onset	duration	trial_type	sample	stim_file	subject	experiment	session	trial	task	item_name	item_num	recog_resp	recog_conf	resp	answer	test_x	test_y	test_z	color_r	color_g	color_b	case	font
199.1	n/a	SESS_START	99550	n/a	LTP271	ltpFR	15	n/a	n/a	n/a	n/a	0	n/a	n/a	n/a	0	0	0	n/a	n/a	n/a	n/a	n/a
226.34	n/a	START	113170	n/a	LTP271	ltpFR	15	n/a	n/a	n/a	n/a	n/a	n/a	n/a	n/a	n/a	n/a	n/a	n/a	n/a	n/a	n/a	n/a
226.372	n/a	PROB	113186	n/a	LTP271	ltpFR	15	n/a	n/a	n/a	n/a	n/a	n/a	n/a	15	3	7	5	n/a	n/a	n/a	n/a	n/a
228.054	n/a	PROB	114027	n/a	LTP271	ltpFR	15	n/a	n/a	n/a	n/a	n/a	n/a	n/a	22	9	6	7	n/a	n/a	n/a	n/a	n/a
229.7	n/a	PROB	114850	n/a	LTP271	ltpFR	15	n/a	n/a	n/a	n/a	n/a	n/a	n/a	14	3	5	6	n/a	n/a	n/a	n/a	n/a
231.314	n/a	PROB	115657	n/a	LTP271	ltpFR	15	n/a	n/a	n/a	n/a	n/a	n/a	n/a	13	5	6	2	n/a	n/a	n/a	n/a	n/a
232.662	n/a	PROB	116331	n/a	LTP271	ltpFR	15	n/a	n/a	n/a	n/a	n/a	n/a	n/a	10	2	5	3	n/a	n/a	n/a	n/a	n/a
233.994	n/a	PROB	116997	n/a	LTP271	ltpFR	15	n/a	n/a	n/a	n/a	n/a	n/a	n/a	12	3	5	4	n/a	n/a	n/a	n/a	n/a
235.192	n/a	PROB	117596	n/a	LTP271	ltpFR	15	n/a	n/a	n/a	n/a	n/a	n/a	n/a	17	6	6	5	n/a	n/a	n/a	n/a	n/a
236.508	n/a	PROB	118254	n/a	LTP271	ltpFR	15	n/a	n/a	n/a	n/a	n/a	n/a	n/a	14	3	8	3	n/a	n/a	n/a	n/a	n/a
238.57	n/a	PROB	119285	n/a	LTP271	ltpFR	15	n/a	n/a	n/a	n/a	n/a	n/a	n/a	24	8	8	8	n/a	n/a	n/a	n/a	n/a
239.986	n/a	PROB	119993	n/a	LTP271	ltpFR	15	n/a	n/a	n/a	n/a	n/a	n/a	n/a	15	4	2	9	n/a	n/a	n/a	n/a	n/a
241.4	n/a	PROB	120700	n/a	LTP271	ltpFR	15	n/a	n/a	n/a	n/a	n/a	n/a	n/a	13	6	1	6	n/a	n/a	n/a	n/a	n/a
242.714	n/a	PROB	121357	n/a	LTP271	ltpFR	15	n/a	n/a	n/a	n/a	n/a	n/a	n/a	17	8	4	5	n/a	n/a	n/a	n/a	n/a
244.246	n/a	PROB	122123	n/a	LTP271	ltpFR	15	n/a	n/a	n/a	n/a	n/a	n/a	n/a	17	1	8	8	n/a	n/a	n/a	n/a	n/a
245.834	n/a	STOP	122917	n/a	LTP271	ltpFR	15	n/a	n/a	n/a	n/a	n/a	n/a	n/a	n/a	n/a	n/a	n/a	n/a	n/a	n/a	n/a	n/a
274.584	n/a	WORD	137292	wordpools/wasnorm_wordpool_less_exclusions.txt	LTP271	ltpFR	15	1	0	TOOTHBRUSH	1482	n/a	n/a	0	n/a	0	0	0	0.422607421875	0.5869140625	0	upper	zerothre.ttf
278.412	n/a	WORD	139206	wordpools/wasnorm_wordpool_less_exclusions.txt	LTP271	ltpFR	15	1	0	WALRUS	1585	n/a	n/a	1	n/a	0	0	0	0.422607421875	0.5869140625	0	upper	zerothre.ttf
282.406	n/a	WORD	141203	wordpools/wasnorm_wordpool_less_exclusions.txt	LTP271	ltpFR	15	1	1	BOOTH	151	n/a	n/a	0	n/a	0	0	0	0.57763671875	0.412841796875	1	lower	amplitud.ttf
286.466	n/a	WORD	143233	wordpools/wasnorm_wordpool_less_exclusions.txt	LTP271	ltpFR	15	1	1	FLAG	573	n/a	n/a	0	n/a	0	0	0	0.57763671875	0.412841796875	1	lower	amplitud.ttf
290.644	n/a	WORD	145322	wordpools/wasnorm_wordpool_less_exclusions.txt	LTP271	ltpFR	15	1	1	ASTRONAUT	51	n/a	n/a	1	n/a	0	0	0	0.57763671875	0.412841796875	1	lower	amplitud.ttf
294.472	n/a	WORD	147236	wordpools/wasnorm_wordpool_less_exclusions.txt	LTP271	ltpFR	15	1	0	BLACKBERRY	132	n/a	n/a	0	n/a	0	0	0	0.422607421875	0.5869140625	0	upper	zerothre.ttf
298.482	n/a	WORD	149241	wordpools/wasnorm_wordpool_less_exclusions.txt	LTP271	ltpFR	15	1	0	CAULIFLOWER	262	n/a	n/a	0	n/a	0	0	0	0.422607421875	0.5869140625	0	upper	zerothre.ttf
302.394	n/a	WORD	151197	wordpools/wasnorm_wordpool_less_exclusions.txt	LTP271	ltpFR	15	1	0	POET	1095	n/a	n/a	1	n/a	0	0	0	0.422607421875	0.5869140625	0	upper	zerothre.ttf
306.42	n/a	WORD	153210	wordpools/wasnorm_wordpool_less_exclusions.txt	LTP271	ltpFR	15	1	0	PUBLICATION	1136	n/a	n/a	0	n/a	0	0	0	0.422607421875	0.5869140625	0	upper	zerothre.ttf
310.63	n/a	WORD	155315	wordpools/wasnorm_wordpool_less_exclusions.txt	LTP271	ltpFR	15	1	0	COP	376	n/a	n/a	1	n/a	0	0	0	0.422607421875	0.5869140625	0	upper	zerothre.ttf
314.808	n/a	WORD	157404	wordpools/wasnorm_wordpool_less_exclusions.txt	LTP271	ltpFR	15	1	0	EMPLOYER	532	n/a	n/a	1	n/a	0	0	0	0.422607421875	0.5869140625	0	upper	zerothre.ttf
318.652	n/a	WORD	159326	wordpools/wasnorm_wordpool_less_exclusions.txt	LTP271	ltpFR	15	1	1	EMPLOYEE	531	n/a	n/a	1	n/a	0	0	0	0.57763671875	0.412841796875	1	lower	amplitud.ttf
322.68	n/a	WORD	161340	wordpools/wasnorm_wordpool_less_exclusions.txt	LTP271	ltpFR	15	1	1	PUMPKIN	1142	n/a	n/a	1	n/a	0	0	0	0.57763671875	0.412841796875	1	lower	amplitud.ttf
326.724	n/a	WORD	163362	wordpools/wasnorm_wordpool_less_exclusions.txt	LTP271	ltpFR	15	1	1	TROMBONE	1508	n/a	n/a	0	n/a	0	0	0	0.57763671875	0.412841796875	1	lower	amplitud.ttf
330.6	n/a	WORD	165300	wordpools/wasnorm_wordpool_less_exclusions.txt	LTP271	ltpFR	15	1	1	VENUS	1557	n/a	n/a	0	n/a	0	0	0	0.57763671875	0.412841796875	1	lower	amplitud.ttf
334.744	n/a	WORD	167372	wordpools/wasnorm_wordpool_less_exclusions.txt	LTP271	ltpFR	15	1	1	OLIVE	975	n/a	n/a	1	n/a	0	0	0	0.57763671875	0.412841796875	1	lower	amplitud.ttf
337.758	n/a	START	168879	n/a	LTP271	ltpFR	15	n/a	n/a	n/a	n/a	n/a	n/a	n/a	n/a	n/a	n/a	n/a	n/a	n/a	n/a	n/a	n/a
338.856	n/a	PROB	169428	n/a	LTP271	ltpFR	15	n/a	n/a	n/a	n/a	n/a	n/a	n/a	25	9	9	7	n/a	n/a	n/a	n/a	n/a
340.602	n/a	PROB	170301	n/a	LTP271	ltpFR	15	n/a	n/a	n/a	n/a	n/a	n/a	n/a	5	1	2	2	n/a	n/a	n/a	n/a	n/a
341.666	n/a	PROB	170833	n/a	LTP271	ltpFR	15	n/a	n/a	n/a	n/a	n/a	n/a	n/a	12	7	2	3	n/a	n/a	n/a	n/a	n/a
342.982	n/a	PROB	171491	n/a	LTP271	ltpFR	15	n/a	n/a	n/a	n/a	n/a	n/a	n/a	23	8	7	8	n/a	n/a	n/a	n/a	n/a
344.876	n/a	STOP	172438	n/a	LTP271	ltpFR	15	n/a	n/a	n/a	n/a	n/a	n/a	n/a	n/a	n/a	n/a	n/a	n/a	n/a	n/a	n/a	n/a
347.692	n/a	REC_START	173846	n/a	LTP271	ltpFR	15	1	n/a	n/a	n/a	n/a	n/a	n/a	n/a	0	0	0	n/a	n/a	n/a	n/a	n/a
349.83	n/a	REC_WORD	174915	wordpools/wasnorm_wordpool_less_exclusions.txt	LTP271	ltpFR	15	1	0	WALRUS	1585	n/a	n/a	1	n/a	0	0	0	n/a	n/a	n/a	n/a	n/a
350.814	n/a	REC_WORD	175407	wordpools/wasnorm_wordpool_less_exclusions.txt	LTP271	ltpFR	15	1	0	TOOTHBRUSH	1482	n/a	n/a	0	n/a	0	0	0	n/a	n/a	n/a	n/a	n/a
352.114	n/a	REC_WORD	176057	wordpools/wasnorm_wordpool_less_exclusions.txt	LTP271	ltpFR	15	1	1	BOOTH	151	n/a	n/a	0	n/a	0	0	0	n/a	n/a	n/a	n/a	n/a
353.024	n/a	REC_WORD	176512	wordpools/wasnorm_wordpool_less_exclusions.txt	LTP271	ltpFR	15	1	1	FLAG	573	n/a	n/a	0	n/a	0	0	0	n/a	n/a	n/a	n/a	n/a
354.872	n/a	REC_WORD	177436	wordpools/wasnorm_wordpool_less_exclusions.txt	LTP271	ltpFR	15	1	1	ASTRONAUT	51	n/a	n/a	1	n/a	0	0	0	n/a	n/a	n/a	n/a	n/a
355.872	n/a	REC_WORD_VV	177936	wordpools/wasnorm_wordpool_less_exclusions.txt	LTP271	ltpFR	15	1	n/a	<>	-1	n/a	n/a	n/a	n/a	0	0	0	n/a	n/a	n/a	n/a	n/a
356.37	n/a	REC_WORD	178185	wordpools/wasnorm_wordpool_less_exclusions.txt	LTP271	ltpFR	15	1	0	POET	1095	n/a	n/a	1	n/a	0	0	0	n/a	n/a	n/a	n/a	n/a
357.524	n/a	REC_WORD	178762	wordpools/wasnorm_wordpool_less_exclusions.txt	LTP271	ltpFR	15	1	0	PUBLICATION	1136	n/a	n/a	0	n/a	0	0	0	n/a	n/a	n/a	n/a	n/a
359.642	n/a	REC_WORD	179821	wordpools/wasnorm_wordpool_less_exclusions.txt	LTP271	ltpFR	15	1	0	CAULIFLOWER	262	n/a	n/a	0	n/a	0	0	0	n/a	n/a	n/a	n/a	n/a
360.642	n/a	REC_WORD_VV	180321	wordpools/wasnorm_wordpool_less_exclusions.txt	LTP271	ltpFR	15	1	n/a	<>	-1	n/a	n/a	n/a	n/a	0	0	0	n/a	n/a	n/a	n/a	n/a
361.122	n/a	REC_WORD	180561	wordpools/wasnorm_wordpool_less_exclusions.txt	LTP271	ltpFR	15	1	1	OLIVE	975	n/a	n/a	1	n/a	0	0	0	n/a	n/a	n/a	n/a	n/a
362.516	n/a	REC_WORD	181258	wordpools/wasnorm_wordpool_less_exclusions.txt	LTP271	ltpFR	15	1	0	EMPLOYER	532	n/a	n/a	1	n/a	0	0	0	n/a	n/a	n/a	n/a	n/a
363.54	n/a	REC_WORD	181770	wordpools/wasnorm_wordpool_less_exclusions.txt	LTP271	ltpFR	15	1	1	EMPLOYEE	531	n/a	n/a	1	n/a	0	0	0	n/a	n/a	n/a	n/a	n/a
365.956	n/a	REC_WORD	182978	wordpools/wasnorm_wordpool_less_exclusions.txt	LTP271	ltpFR	15	1	0	COP	376	n/a	n/a	1	n/a	0	0	0	n/a	n/a	n/a	n/a	n/a
368.754	n/a	REC_WORD	184377	wordpools/wasnorm_wordpool_less_exclusions.txt	LTP271	ltpFR	15	1	1	VENUS	1557	n/a	n/a	0	n/a	0	0	0	n/a	n/a	n/a	n/a	n/a
384.242	n/a	REC_WORD	192121	wordpools/wasnorm_wordpool_less_exclusions.txt	LTP271	ltpFR	15	1	1	PUMPKIN	1142	n/a	n/a	1	n/a	0	0	0	n/a	n/a	n/a	n/a	n/a
424.978	n/a	START	212489	n/a	LTP271	ltpFR	15	n/a	n/a	n/a	n/a	n/a	n/a	n/a	n/a	n/a	n/a	n/a	n/a	n/a	n/a	n/a	n/a
426.492	n/a	PROB	213246	n/a	LTP271	ltpFR	15	n/a	n/a	n/a	n/a	n/a	n/a	n/a	12	8	2	2	n/a	n/a	n/a	n/a	n/a
427.974	n/a	PROB	213987	n/a	LTP271	ltpFR	15	n/a	n/a	n/a	n/a	n/a	n/a	n/a	20	9	8	3	n/a	n/a	n/a	n/a	n/a
429.654	n/a	PROB	214827	n/a	LTP271	ltpFR	15	n/a	n/a	n/a	n/a	n/a	n/a	n/a	10	7	1	2	n/a	n/a	n/a	n/a	n/a
431.32	n/a	PROB	215660	n/a	LTP271	ltpFR	15	n/a	n/a	n/a	n/a	n/a	n/a	n/a	15	7	3	5	n/a	n/a	n/a	n/a	n/a
432.422	n/a	STOP	216211	n/a	LTP271	ltpFR	15	n/a	n/a	n/a	n/a	n/a	n/a	n/a	n/a	n/a	n/a	n/a	n/a	n/a	n/a	n/a	n/a
434.182	n/a	WORD	217091	wordpools/wasnorm_wordpool_less_exclusions.txt	LTP271	ltpFR	15	2	0	PRIMATE	1123	n/a	n/a	1	n/a	0	0	0	0.422607421875	0.5869140625	0	upper	zerothre.ttf
437.194	n/a	START	218597	n/a	LTP271	ltpFR	15	n/a	n/a	n/a	n/a	n/a	n/a	n/a	n/a	n/a	n/a	n/a	n/a	n/a	n/a	n/a	n/a
438.392	n/a	PROB	219196	n/a	LTP271	ltpFR	15	n/a	n/a	n/a	n/a	n/a	n/a	n/a	19	9	3	7	n/a	n/a	n/a	n/a	n/a
440.09	n/a	PROB	220045	n/a	LTP271	ltpFR	15	n/a	n/a	n/a	n/a	n/a	n/a	n/a	18	3	8	7	n/a	n/a	n/a	n/a	n/a
441.804	n/a	PROB	220902	n/a	LTP271	ltpFR	15	n/a	n/a	n/a	n/a	n/a	n/a	n/a	9	3	4	2	n/a	n/a	n/a	n/a	n/a
443.644	n/a	STOP	221822	n/a	LTP271	ltpFR	15	n/a	n/a	n/a	n/a	n/a	n/a	n/a	n/a	n/a	n/a	n/a	n/a	n/a	n/a	n/a	n/a
446.048	n/a	WORD	223024	wordpools/wasnorm_wordpool_less_exclusions.txt	LTP271	ltpFR	15	2	0	PICNIC	1060	n/a	n/a	1	n/a	0	0	0	0.422607421875	0.5869140625	0	upper	zerothre.ttf
449.06	n/a	START	224530	n/a	LTP271	ltpFR	15	n/a	n/a	n/a	n/a	n/a	n/a	n/a	n/a	n/a	n/a	n/a	n/a	n/a	n/a	n/a	n/a
450.042	n/a	PROB	225021	n/a	LTP271	ltpFR	15	n/a	n/a	n/a	n/a	n/a	n/a	n/a	13	8	1	4	n/a	n/a	n/a	n/a	n/a
451.722	n/a	PROB	225861	n/a	LTP271	ltpFR	15	n/a	n/a	n/a	n/a	n/a	n/a	n/a	21	8	8	5	n/a	n/a	n/a	n/a	n/a
453.154	n/a	PROB	226577	n/a	LTP271	ltpFR	15	n/a	n/a	n/a	n/a	n/a	n/a	n/a	19	8	5	6	n/a	n/a	n/a	n/a	n/a
454.984	n/a	PROB	227492	n/a	LTP271	ltpFR	15	n/a	n/a	n/a	n/a	n/a	n/a	n/a	10	1	8	1	n/a	n/a	n/a	n/a	n/a
456.014	n/a	STOP	228007	n/a	LTP271	ltpFR	15	n/a	n/a	n/a	n/a	n/a	n/a	n/a	n/a	n/a	n/a	n/a	n/a	n/a	n/a	n/a	n/a
458.112	n/a	WORD	229056	wordpools/wasnorm_wordpool_less_exclusions.txt	LTP271	ltpFR	15	2	0	CENT	270	n/a	n/a	0	n/a	0	0	0	0.422607421875	0.5869140625	0	upper	zerothre.ttf
461.126	n/a	START	230563	n/a	LTP271	ltpFR	15	n/a	n/a	n/a	n/a	n/a	n/a	n/a	n/a	n/a	n/a	n/a	n/a	n/a	n/a	n/a	n/a
462.006	n/a	PROB	231003	n/a	LTP271	ltpFR	15	n/a	n/a	n/a	n/a	n/a	n/a	n/a	18	8	1	9	n/a	n/a	n/a	n/a	n/a
463.67	n/a	PROB	231835	n/a	LTP271	ltpFR	15	n/a	n/a	n/a	n/a	n/a	n/a	n/a	21	7	7	7	n/a	n/a	n/a	n/a	n/a
464.836	n/a	PROB	232418	n/a	LTP271	ltpFR	15	n/a	n/a	n/a	n/a	n/a	n/a	n/a	14	5	3	6	n/a	n/a	n/a	n/a	n/a
466.35	n/a	PROB	233175	n/a	LTP271	ltpFR	15	n/a	n/a	n/a	n/a	n/a	n/a	n/a	17	9	3	5	n/a	n/a	n/a	n/a	n/a
468.022	n/a	STOP	234011	n/a	LTP271	ltpFR	15	n/a	n/a	n/a	n/a	n/a	n/a	n/a	n/a	n/a	n/a	n/a	n/a	n/a	n/a	n/a	n/a
470.312	n/a	WORD	235156	wordpools/wasnorm_wordpool_less_exclusions.txt	LTP271	ltpFR	15	2	0	OZONE	996	n/a	n/a	1	n/a	0	0	0	0.422607421875	0.5869140625	0	upper	zerothre.ttf
473.324	n/a	START	236662	n/a	LTP271	ltpFR	15	n/a	n/a	n/a	n/a	n/a	n/a	n/a	n/a	n/a	n/a	n/a	n/a	n/a	n/a	n/a	n/a
474.472	n/a	PROB	237236	n/a	LTP271	ltpFR	15	n/a	n/a	n/a	n/a	n/a	n/a	n/a	23	9	9	5	n/a	n/a	n/a	n/a	n/a
475.752	n/a	PROB	237876	n/a	LTP271	ltpFR	15	n/a	n/a	n/a	n/a	n/a	n/a	n/a	11	2	3	6	n/a	n/a	n/a	n/a	n/a
477.084	n/a	PROB	238542	n/a	LTP271	ltpFR	15	n/a	n/a	n/a	n/a	n/a	n/a	n/a	19	9	1	9	n/a	n/a	n/a	n/a	n/a
478.3	n/a	PROB	239150	n/a	LTP271	ltpFR	15	n/a	n/a	n/a	n/a	n/a	n/a	n/a	18	5	8	5	n/a	n/a	n/a	n/a	n/a
479.714	n/a	PROB	239857	n/a	LTP271	ltpFR	15	n/a	n/a	n/a	n/a	n/a	n/a	n/a	11	6	1	4	n/a	n/a	n/a	n/a	n/a
481.062	n/a	STOP	240531	n/a	LTP271	ltpFR	15	n/a	n/a	n/a	n/a	n/a	n/a	n/a	n/a	n/a	n/a	n/a	n/a	n/a	n/a	n/a	n/a
482.426	n/a	WORD	241213	wordpools/wasnorm_wordpool_less_exclusions.txt	LTP271	ltpFR	15	2	0	NITROGEN	954	n/a	n/a	0	n/a	0	0	0	0.422607421875	0.5869140625	0	upper	zerothre.ttf
485.438	n/a	START	242719	n/a	LTP271	ltpFR	15	n/a	n/a	n/a	n/a	n/a	n/a	n/a	n/a	n/a	n/a	n/a	n/a	n/a	n/a	n/a	n/a
486.554	n/a	PROB	243277	n/a	LTP271	ltpFR	15	n/a	n/a	n/a	n/a	n/a	n/a	n/a	17	6	6	5	n/a	n/a	n/a	n/a	n/a
488.002	n/a	PROB	244001	n/a	LTP271	ltpFR	15	n/a	n/a	n/a	n/a	n/a	n/a	n/a	19	9	8	2	n/a	n/a	n/a	n/a	n/a
489.45	n/a	PROB	244725	n/a	LTP271	ltpFR	15	n/a	n/a	n/a	n/a	n/a	n/a	n/a	13	1	6	6	n/a	n/a	n/a	n/a	n/a
490.662	n/a	PROB	245331	n/a	LTP271	ltpFR	15	n/a	n/a	n/a	n/a	n/a	n/a	n/a	19	3	8	8	n/a	n/a	n/a	n/a	n/a
492.102	n/a	STOP	246051	n/a	LTP271	ltpFR	15	n/a	n/a	n/a	n/a	n/a	n/a	n/a	n/a	n/a	n/a	n/a	n/a	n/a	n/a	n/a	n/a
494.408	n/a	WORD	247204	wordpools/wasnorm_wordpool_less_exclusions.txt	LTP271	ltpFR	15	2	0	ANIMAL	23	n/a	n/a	1	n/a	0	0	0	0.422607421875	0.5869140625	0	upper	zerothre.ttf
497.422	n/a	START	248711	n/a	LTP271	ltpFR	15	n/a	n/a	n/a	n/a	n/a	n/a	n/a	n/a	n/a	n/a	n/a	n/a	n/a	n/a	n/a	n/a
498.518	n/a	PROB	249259	n/a	LTP271	ltpFR	15	n/a	n/a	n/a	n/a	n/a	n/a	n/a	19	9	7	3	n/a	n/a	n/a	n/a	n/a
499.866	n/a	PROB	249933	n/a	LTP271	ltpFR	15	n/a	n/a	n/a	n/a	n/a	n/a	n/a	9	3	2	2	n/a	n/a	n/a	n/a	n/a
501.364	n/a	PROB	250682	n/a	LTP271	ltpFR	15	n/a	n/a	n/a	n/a	n/a	n/a	n/a	19	5	8	6	n/a	n/a	n/a	n/a	n/a
503.462	n/a	PROB	251731	n/a	LTP271	ltpFR	15	n/a	n/a	n/a	n/a	n/a	n/a	n/a	12	8	2	2	n/a	n/a	n/a	n/a	n/a
504.518	n/a	STOP	252259	n/a	LTP271	ltpFR	15	n/a	n/a	n/a	n/a	n/a	n/a	n/a	n/a	n/a	n/a	n/a	n/a	n/a	n/a	n/a	n/a
506.492	n/a	WORD	253246	wordpools/wasnorm_wordpool_less_exclusions.txt	LTP271	ltpFR	15	2	0	VET	1560	n/a	n/a	1	n/a	0	0	0	0.422607421875	0.5869140625	0	upper	zerothre.ttf
509.504	n/a	START	254752	n/a	LTP271	ltpFR	15	n/a	n/a	n/a	n/a	n/a	n/a	n/a	n/a	n/a	n/a	n/a	n/a	n/a	n/a	n/a	n/a
510.336	n/a	PROB	255168	n/a	LTP271	ltpFR	15	n/a	n/a	n/a	n/a	n/a	n/a	n/a	19	5	9	7	n/a	n/a	n/a	n/a	n/a
513.098	n/a	PROB	256549	n/a	LTP271	ltpFR	15	n/a	n/a	n/a	n/a	n/a	n/a	n/a	6	2	2	2	n/a	n/a	n/a	n/a	n/a
514.412	n/a	PROB	257206	n/a	LTP271	ltpFR	15	n/a	n/a	n/a	n/a	n/a	n/a	n/a	17	7	6	4	n/a	n/a	n/a	n/a	n/a
516.206	n/a	STOP	258103	n/a	LTP271	ltpFR	15	n/a	n/a	n/a	n/a	n/a	n/a	n/a	n/a	n/a	n/a	n/a	n/a	n/a	n/a	n/a	n/a
518.524	n/a	WORD	259262	wordpools/wasnorm_wordpool_less_exclusions.txt	LTP271	ltpFR	15	2	0	BARLEY	88	n/a	n/a	0	n/a	0	0	0	0.422607421875	0.5869140625	0	upper	zerothre.ttf
521.536	n/a	START	260768	n/a	LTP271	ltpFR	15	n/a	n/a	n/a	n/a	n/a	n/a	n/a	n/a	n/a	n/a	n/a	n/a	n/a	n/a	n/a	n/a
522.35	n/a	PROB	261175	n/a	LTP271	ltpFR	15	n/a	n/a	n/a	n/a	n/a	n/a	n/a	10	1	3	6	n/a	n/a	n/a	n/a	n/a
523.566	n/a	PROB	261783	n/a	LTP271	ltpFR	15	n/a	n/a	n/a	n/a	n/a	n/a	n/a	6	2	1	3	n/a	n/a	n/a	n/a	n/a
525.146	n/a	PROB	262573	n/a	LTP271	ltpFR	15	n/a	n/a	n/a	n/a	n/a	n/a	n/a	11	1	5	5	n/a	n/a	n/a	n/a	n/a
526.262	n/a	PROB	263131	n/a	LTP271	ltpFR	15	n/a	n/a	n/a	n/a	n/a	n/a	n/a	16	5	4	7	n/a	n/a	n/a	n/a	n/a
529.536	n/a	STOP	264768	n/a	LTP271	ltpFR	15	n/a	n/a	n/a	n/a	n/a	n/a	n/a	n/a	n/a	n/a	n/a	n/a	n/a	n/a	n/a	n/a
530.738	n/a	WORD	265369	wordpools/wasnorm_wordpool_less_exclusions.txt	LTP271	ltpFR	15	2	0	KITCHEN	778	n/a	n/a	1	n/a	0	0	0	0.422607421875	0.5869140625	0	upper	zerothre.ttf
533.752	n/a	START	266876	n/a	LTP271	ltpFR	15	n/a	n/a	n/a	n/a	n/a	n/a	n/a	n/a	n/a	n/a	n/a	n/a	n/a	n/a	n/a	n/a
534.932	n/a	PROB	267466	n/a	LTP271	ltpFR	15	n/a	n/a	n/a	n/a	n/a	n/a	n/a	12	1	6	5	n/a	n/a	n/a	n/a	n/a
536.18	n/a	PROB	268090	n/a	LTP271	ltpFR	15	n/a	n/a	n/a	n/a	n/a	n/a	n/a	10	5	3	2	n/a	n/a	n/a	n/a	n/a
537.528	n/a	PROB	268764	n/a	LTP271	ltpFR	15	n/a	n/a	n/a	n/a	n/a	n/a	n/a	25	6	8	9	n/a	n/a	n/a	n/a	n/a
540.278	n/a	STOP	270139	n/a	LTP271	ltpFR	15	n/a	n/a	n/a	n/a	n/a	n/a	n/a	n/a	n/a	n/a	n/a	n/a	n/a	n/a	n/a	n/a
542.72	n/a	WORD	271360	wordpools/wasnorm_wordpool_less_exclusions.txt	LTP271	ltpFR	15	2	0	TREASURE	1500	n/a	n/a	1	n/a	0	0	0	0.422607421875	0.5869140625	0	upper	zerothre.ttf
545.734	n/a	START	272867	n/a	LTP271	ltpFR	15	n/a	n/a	n/a	n/a	n/a	n/a	n/a	n/a	n/a	n/a	n/a	n/a	n/a	n/a	n/a	n/a
546.648	n/a	PROB	273324	n/a	LTP271	ltpFR	15	n/a	n/a	n/a	n/a	n/a	n/a	n/a	2	5	9	8	n/a	n/a	n/a	n/a	n/a
549.078	n/a	PROB	274539	n/a	LTP271	ltpFR	15	n/a	n/a	n/a	n/a	n/a	n/a	n/a	16	2	8	6	n/a	n/a	n/a	n/a	n/a
550.492	n/a	PROB	275246	n/a	LTP271	ltpFR	15	n/a	n/a	n/a	n/a	n/a	n/a	n/a	12	5	1	6	n/a	n/a	n/a	n/a	n/a
551.84	n/a	PROB	275920	n/a	LTP271	ltpFR	15	n/a	n/a	n/a	n/a	n/a	n/a	n/a	19	7	7	5	n/a	n/a	n/a	n/a	n/a
553.198	n/a	STOP	276599	n/a	LTP271	ltpFR	15	n/a	n/a	n/a	n/a	n/a	n/a	n/a	n/a	n/a	n/a	n/a	n/a	n/a	n/a	n/a	n/a
554.552	n/a	WORD	277276	wordpools/wasnorm_wordpool_less_exclusions.txt	LTP271	ltpFR	15	2	0	FEAST	556	n/a	n/a	1	n/a	0	0	0	0.422607421875	0.5869140625	0	upper	zerothre.ttf
557.566	n/a	START	278783	n/a	LTP271	ltpFR	15	n/a	n/a	n/a	n/a	n/a	n/a	n/a	n/a	n/a	n/a	n/a	n/a	n/a	n/a	n/a	n/a
558.546	n/a	PROB	279273	n/a	LTP271	ltpFR	15	n/a	n/a	n/a	n/a	n/a	n/a	n/a	18	6	7	5	n/a	n/a	n/a	n/a	n/a
560.328	n/a	PROB	280164	n/a	LTP271	ltpFR	15	n/a	n/a	n/a	n/a	n/a	n/a	n/a	20	8	3	9	n/a	n/a	n/a	n/a	n/a
562.374	n/a	PROB	281187	n/a	LTP271	ltpFR	15	n/a	n/a	n/a	n/a	n/a	n/a	n/a	15	7	7	1	n/a	n/a	n/a	n/a	n/a
563.806	n/a	PROB	281903	n/a	LTP271	ltpFR	15	n/a	n/a	n/a	n/a	n/a	n/a	n/a	13	6	2	5	n/a	n/a	n/a	n/a	n/a
565.102	n/a	STOP	282551	n/a	LTP271	ltpFR	15	n/a	n/a	n/a	n/a	n/a	n/a	n/a	n/a	n/a	n/a	n/a	n/a	n/a	n/a	n/a	n/a
566.452	n/a	WORD	283226	wordpools/wasnorm_wordpool_less_exclusions.txt	LTP271	ltpFR	15	2	0	STRAW	1390	n/a	n/a	0	n/a	0	0	0	0.422607421875	0.5869140625	0	upper	zerothre.ttf
569.464	n/a	START	284732	n/a	LTP271	ltpFR	15	n/a	n/a	n/a	n/a	n/a	n/a	n/a	n/a	n/a	n/a	n/a	n/a	n/a	n/a	n/a	n/a
570.612	n/a	PROB	285306	n/a	LTP271	ltpFR	15	n/a	n/a	n/a	n/a	n/a	n/a	n/a	13	8	3	2	n/a	n/a	n/a	n/a	n/a
572.01	n/a	PROB	286005	n/a	LTP271	ltpFR	15	n/a	n/a	n/a	n/a	n/a	n/a	n/a	14	4	2	8	n/a	n/a	n/a	n/a	n/a
573.508	n/a	PROB	286754	n/a	LTP271	ltpFR	15	n/a	n/a	n/a	n/a	n/a	n/a	n/a	4	2	1	1	n/a	n/a	n/a	n/a	n/a
574.606	n/a	PROB	287303	n/a	LTP271	ltpFR	15	n/a	n/a	n/a	n/a	n/a	n/a	n/a	23	9	6	8	n/a	n/a	n/a	n/a	n/a
576.118	n/a	STOP	288059	n/a	LTP271	ltpFR	15	n/a	n/a	n/a	n/a	n/a	n/a	n/a	n/a	n/a	n/a	n/a	n/a	n/a	n/a	n/a	n/a
578.584	n/a	WORD	289292	wordpools/wasnorm_wordpool_less_exclusions.txt	LTP271	ltpFR	15	2	0	BREAD	170	n/a	n/a	0	n/a	0	0	0	0.422607421875	0.5869140625	0	upper	zerothre.ttf
581.596	n/a	START	290798	n/a	LTP271	ltpFR	15	n/a	n/a	n/a	n/a	n/a	n/a	n/a	n/a	n/a	n/a	n/a	n/a	n/a	n/a	n/a	n/a
582.61	n/a	PROB	291305	n/a	LTP271	ltpFR	15	n/a	n/a	n/a	n/a	n/a	n/a	n/a	20	7	4	9	n/a	n/a	n/a	n/a	n/a
584.576	n/a	PROB	292288	n/a	LTP271	ltpFR	15	n/a	n/a	n/a	n/a	n/a	n/a	n/a	10	8	1	1	n/a	n/a	n/a	n/a	n/a
585.924	n/a	PROB	292962	n/a	LTP271	ltpFR	15	n/a	n/a	n/a	n/a	n/a	n/a	n/a	22	8	5	9	n/a	n/a	n/a	n/a	n/a
587.572	n/a	PROB	293786	n/a	LTP271	ltpFR	15	n/a	n/a	n/a	n/a	n/a	n/a	n/a	9	5	3	1	n/a	n/a	n/a	n/a	n/a
588.8	n/a	STOP	294400	n/a	LTP271	ltpFR	15	n/a	n/a	n/a	n/a	n/a	n/a	n/a	n/a	n/a	n/a	n/a	n/a	n/a	n/a	n/a	n/a
590.734	n/a	WORD	295367	wordpools/wasnorm_wordpool_less_exclusions.txt	LTP271	ltpFR	15	2	0	ATTIC	56	n/a	n/a	1	n/a	0	0	0	0.422607421875	0.5869140625	0	upper	zerothre.ttf
593.746	n/a	START	296873	n/a	LTP271	ltpFR	15	n/a	n/a	n/a	n/a	n/a	n/a	n/a	n/a	n/a	n/a	n/a	n/a	n/a	n/a	n/a	n/a
594.626	n/a	PROB	297313	n/a	LTP271	ltpFR	15	n/a	n/a	n/a	n/a	n/a	n/a	n/a	13	2	2	9	n/a	n/a	n/a	n/a	n/a
596.606	n/a	PROB	298303	n/a	LTP271	ltpFR	15	n/a	n/a	n/a	n/a	n/a	n/a	n/a	18	2	9	7	n/a	n/a	n/a	n/a	n/a
598.222	n/a	PROB	299111	n/a	LTP271	ltpFR	15	n/a	n/a	n/a	n/a	n/a	n/a	n/a	14	3	9	2	n/a	n/a	n/a	n/a	n/a
599.652	n/a	PROB	299826	n/a	LTP271	ltpFR	15	n/a	n/a	n/a	n/a	n/a	n/a	n/a	8	3	2	3	n/a	n/a	n/a	n/a	n/a
600.84	n/a	STOP	300420	n/a	LTP271	ltpFR	15	n/a	n/a	n/a	n/a	n/a	n/a	n/a	n/a	n/a	n/a	n/a	n/a	n/a	n/a	n/a	n/a
602.716	n/a	WORD	301358	wordpools/wasnorm_wordpool_less_exclusions.txt	LTP271	ltpFR	15	2	0	MESSAGE	888	n/a	n/a	0	n/a	0	0	0	0.422607421875	0.5869140625	0	upper	zerothre.ttf
605.728	n/a	START	302864	n/a	LTP271	ltpFR	15	n/a	n/a	n/a	n/a	n/a	n/a	n/a	n/a	n/a	n/a	n/a	n/a	n/a	n/a	n/a	n/a
606.542	n/a	PROB	303271	n/a	LTP271	ltpFR	15	n/a	n/a	n/a	n/a	n/a	n/a	n/a	9	7	1	1	n/a	n/a	n/a	n/a	n/a
607.692	n/a	PROB	303846	n/a	LTP271	ltpFR	15	n/a	n/a	n/a	n/a	n/a	n/a	n/a	8	4	2	2	n/a	n/a	n/a	n/a	n/a
609.222	n/a	PROB	304611	n/a	LTP271	ltpFR	15	n/a	n/a	n/a	n/a	n/a	n/a	n/a	11	4	4	3	n/a	n/a	n/a	n/a	n/a
610.936	n/a	PROB	305468	n/a	LTP271	ltpFR	15	n/a	n/a	n/a	n/a	n/a	n/a	n/a	16	1	8	7	n/a	n/a	n/a	n/a	n/a
612.4	n/a	STOP	306200	n/a	LTP271	ltpFR	15	n/a	n/a	n/a	n/a	n/a	n/a	n/a	n/a	n/a	n/a	n/a	n/a	n/a	n/a	n/a	n/a
614.714	n/a	WORD	307357	wordpools/wasnorm_wordpool_less_exclusions.txt	LTP271	ltpFR	15	2	0	PONY	1102	n/a	n/a	1	n/a	0	0	0	0.422607421875	0.5869140625	0	upper	zerothre.ttf
617.726	n/a	START	308863	n/a	LTP271	ltpFR	15	n/a	n/a	n/a	n/a	n/a	n/a	n/a	n/a	n/a	n/a	n/a	n/a	n/a	n/a	n/a	n/a
618.574	n/a	PROB	309287	n/a	LTP271	ltpFR	15	n/a	n/a	n/a	n/a	n/a	n/a	n/a	15	9	2	4	n/a	n/a	n/a	n/a	n/a
619.824	n/a	PROB	309912	n/a	LTP271	ltpFR	15	n/a	n/a	n/a	n/a	n/a	n/a	n/a	10	6	2	2	n/a	n/a	n/a	n/a	n/a
621.138	n/a	PROB	310569	n/a	LTP271	ltpFR	15	n/a	n/a	n/a	n/a	n/a	n/a	n/a	20	6	7	7	n/a	n/a	n/a	n/a	n/a
622.718	n/a	PROB	311359	n/a	LTP271	ltpFR	15	n/a	n/a	n/a	n/a	n/a	n/a	n/a	12	9	2	1	n/a	n/a	n/a	n/a	n/a
625.726	n/a	STOP	312863	n/a	LTP271	ltpFR	15	n/a	n/a	n/a	n/a	n/a	n/a	n/a	n/a	n/a	n/a	n/a	n/a	n/a	n/a	n/a	n/a
627.478	n/a	REC_START	313739	n/a	LTP271	ltpFR	15	2	n/a	n/a	n/a	n/a	n/a	n/a	n/a	0	0	0	n/a	n/a	n/a	n/a	n/a
630.494	n/a	REC_WORD	315247	wordpools/wasnorm_wordpool_less_exclusions.txt	LTP271	ltpFR	15	2	0	MESSAGE	888	n/a	n/a	0	n/a	0	0	0	n/a	n/a	n/a	n/a	n/a
631.918	n/a	REC_WORD	315959	wordpools/wasnorm_wordpool_less_exclusions.txt	LTP271	ltpFR	15	2	0	PONY	1102	n/a	n/a	1	n/a	0	0	0	n/a	n/a	n/a	n/a	n/a
633.978	n/a	REC_WORD	316989	wordpools/wasnorm_wordpool_less_exclusions.txt	LTP271	ltpFR	15	2	0	PRIMATE	1123	n/a	n/a	1	n/a	0	0	0	n/a	n/a	n/a	n/a	n/a
640.934	n/a	REC_WORD	320467	wordpools/wasnorm_wordpool_less_exclusions.txt	LTP271	ltpFR	15	2	0	OZONE	996	n/a	n/a	1	n/a	0	0	0	n/a	n/a	n/a	n/a	n/a
641.994	n/a	REC_WORD	320997	wordpools/wasnorm_wordpool_less_exclusions.txt	LTP271	ltpFR	15	2	0	NITROGEN	954	n/a	n/a	0	n/a	0	0	0	n/a	n/a	n/a	n/a	n/a
651.79	n/a	REC_WORD	325895	wordpools/wasnorm_wordpool_less_exclusions.txt	LTP271	ltpFR	15	2	0	PICNIC	1060	n/a	n/a	1	n/a	0	0	0	n/a	n/a	n/a	n/a	n/a
664.892	n/a	REC_WORD	332446	wordpools/wasnorm_wordpool_less_exclusions.txt	LTP271	ltpFR	15	2	0	FEAST	556	n/a	n/a	1	n/a	0	0	0	n/a	n/a	n/a	n/a	n/a
706.228	n/a	WORD	353114	wordpools/wasnorm_wordpool_less_exclusions.txt	LTP271	ltpFR	15	3	0	PIER	1063	n/a	n/a	1	n/a	0	0	0	0.422607421875	0.5869140625	0	upper	zerothre.ttf
710.09	n/a	WORD	355045	wordpools/wasnorm_wordpool_less_exclusions.txt	LTP271	ltpFR	15	3	0	SNAIL	1332	n/a	n/a	0	n/a	0	0	0	0.422607421875	0.5869140625	0	upper	zerothre.ttf
714.216	n/a	WORD	357108	wordpools/wasnorm_wordpool_less_exclusions.txt	LTP271	ltpFR	15	3	0	EYE	545	n/a	n/a	0	n/a	0	0	0	0.422607421875	0.5869140625	0	upper	zerothre.ttf
718.228	n/a	WORD	359114	wordpools/wasnorm_wordpool_less_exclusions.txt	LTP271	ltpFR	15	3	0	NOSE	957	n/a	n/a	0	n/a	0	0	0	0.422607421875	0.5869140625	0	upper	zerothre.ttf
722.204	n/a	WORD	361102	wordpools/wasnorm_wordpool_less_exclusions.txt	LTP271	ltpFR	15	3	0	TAXI	1438	n/a	n/a	1	n/a	0	0	0	0.422607421875	0.5869140625	0	upper	zerothre.ttf
726.066	n/a	WORD	363033	wordpools/wasnorm_wordpool_less_exclusions.txt	LTP271	ltpFR	15	3	0	BEVERAGE	123	n/a	n/a	0	n/a	0	0	0	0.422607421875	0.5869140625	0	upper	zerothre.ttf
730.11	n/a	WORD	365055	wordpools/wasnorm_wordpool_less_exclusions.txt	LTP271	ltpFR	15	3	0	SCOTCH	1251	n/a	n/a	0	n/a	0	0	0	0.422607421875	0.5869140625	0	upper	zerothre.ttf
734.104	n/a	WORD	367052	wordpools/wasnorm_wordpool_less_exclusions.txt	LTP271	ltpFR	15	3	0	STAFF	1365	n/a	n/a	1	n/a	0	0	0	0.422607421875	0.5869140625	0	upper	zerothre.ttf
737.966	n/a	WORD	368983	wordpools/wasnorm_wordpool_less_exclusions.txt	LTP271	ltpFR	15	3	0	DOOR	486	n/a	n/a	1	n/a	0	0	0	0.422607421875	0.5869140625	0	upper	zerothre.ttf
742.092	n/a	WORD	371046	wordpools/wasnorm_wordpool_less_exclusions.txt	LTP271	ltpFR	15	3	0	LADDER	793	n/a	n/a	1	n/a	0	0	0	0.422607421875	0.5869140625	0	upper	zerothre.ttf
746.02	n/a	WORD	373010	wordpools/wasnorm_wordpool_less_exclusions.txt	LTP271	ltpFR	15	3	0	VINEGAR	1569	n/a	n/a	0	n/a	0	0	0	0.422607421875	0.5869140625	0	upper	zerothre.ttf
749.88	n/a	WORD	374940	wordpools/wasnorm_wordpool_less_exclusions.txt	LTP271	ltpFR	15	3	0	RECORD	1176	n/a	n/a	0	n/a	0	0	0	0.422607421875	0.5869140625	0	upper	zerothre.ttf
753.776	n/a	WORD	376888	wordpools/wasnorm_wordpool_less_exclusions.txt	LTP271	ltpFR	15	3	0	UNIFORM	1539	n/a	n/a	0	n/a	0	0	0	0.422607421875	0.5869140625	0	upper	zerothre.ttf
757.886	n/a	WORD	378943	wordpools/wasnorm_wordpool_less_exclusions.txt	LTP271	ltpFR	15	3	0	ROBE	1198	n/a	n/a	0	n/a	0	0	0	0.422607421875	0.5869140625	0	upper	zerothre.ttf
761.746	n/a	WORD	380873	wordpools/wasnorm_wordpool_less_exclusions.txt	LTP271	ltpFR	15	3	0	CAR	241	n/a	n/a	1	n/a	0	0	0	0.422607421875	0.5869140625	0	upper	zerothre.ttf
765.656	n/a	WORD	382828	wordpools/wasnorm_wordpool_less_exclusions.txt	LTP271	ltpFR	15	3	0	PICTURE	1061	n/a	n/a	0	n/a	0	0	0	0.422607421875	0.5869140625	0	upper	zerothre.ttf
768.668	n/a	START	384334	n/a	LTP271	ltpFR	15	n/a	n/a	n/a	n/a	n/a	n/a	n/a	n/a	n/a	n/a	n/a	n/a	n/a	n/a	n/a	n/a
769.584	n/a	PROB	384792	n/a	LTP271	ltpFR	15	n/a	n/a	n/a	n/a	n/a	n/a	n/a	23	7	9	7	n/a	n/a	n/a	n/a	n/a
771.548	n/a	PROB	385774	n/a	LTP271	ltpFR	15	n/a	n/a	n/a	n/a	n/a	n/a	n/a	13	3	3	7	n/a	n/a	n/a	n/a	n/a
773.062	n/a	PROB	386531	n/a	LTP271	ltpFR	15	n/a	n/a	n/a	n/a	n/a	n/a	n/a	1	3	9	1	n/a	n/a	n/a	n/a	n/a
774.228	n/a	PROB	387114	n/a	LTP271	ltpFR	15	n/a	n/a	n/a	n/a	n/a	n/a	n/a	11	1	2	8	n/a	n/a	n/a	n/a	n/a
775.794	n/a	STOP	387897	n/a	LTP271	ltpFR	15	n/a	n/a	n/a	n/a	n/a	n/a	n/a	n/a	n/a	n/a	n/a	n/a	n/a	n/a	n/a	n/a
778.572	n/a	REC_START	389286	n/a	LTP271	ltpFR	15	3	n/a	n/a	n/a	n/a	n/a	n/a	n/a	0	0	0	n/a	n/a	n/a	n/a	n/a
782.2	n/a	REC_WORD	391100	wordpools/wasnorm_wordpool_less_exclusions.txt	LTP271	ltpFR	15	3	0	PIER	1063	n/a	n/a	1	n/a	0	0	0	n/a	n/a	n/a	n/a	n/a
783.478	n/a	REC_WORD	391739	wordpools/wasnorm_wordpool_less_exclusions.txt	LTP271	ltpFR	15	3	0	TAXI	1438	n/a	n/a	1	n/a	0	0	0	n/a	n/a	n/a	n/a	n/a
785.07	n/a	REC_WORD	392535	wordpools/wasnorm_wordpool_less_exclusions.txt	LTP271	ltpFR	15	3	0	CAR	241	n/a	n/a	1	n/a	0	0	0	n/a	n/a	n/a	n/a	n/a
800.68	n/a	REC_WORD	400340	wordpools/wasnorm_wordpool_less_exclusions.txt	LTP271	ltpFR	15	3	0	NOSE	957	n/a	n/a	0	n/a	0	0	0	n/a	n/a	n/a	n/a	n/a
803.076	n/a	REC_WORD	401538	wordpools/wasnorm_wordpool_less_exclusions.txt	LTP271	ltpFR	15	3	0	EYE	545	n/a	n/a	0	n/a	0	0	0	n/a	n/a	n/a	n/a	n/a
804.726	n/a	REC_WORD	402363	wordpools/wasnorm_wordpool_less_exclusions.txt	LTP271	ltpFR	15	3	0	SNAIL	1332	n/a	n/a	0	n/a	0	0	0	n/a	n/a	n/a	n/a	n/a
856.04	n/a	START	428020	n/a	LTP271	ltpFR	15	n/a	n/a	n/a	n/a	n/a	n/a	n/a	n/a	n/a	n/a	n/a	n/a	n/a	n/a	n/a	n/a
857.554	n/a	PROB	428777	n/a	LTP271	ltpFR	15	n/a	n/a	n/a	n/a	n/a	n/a	n/a	18	8	3	7	n/a	n/a	n/a	n/a	n/a
858.968	n/a	PROB	429484	n/a	LTP271	ltpFR	15	n/a	n/a	n/a	n/a	n/a	n/a	n/a	15	5	1	9	n/a	n/a	n/a	n/a	n/a
860.35	n/a	PROB	430175	n/a	LTP271	ltpFR	15	n/a	n/a	n/a	n/a	n/a	n/a	n/a	13	4	4	5	n/a	n/a	n/a	n/a	n/a
861.964	n/a	PROB	430982	n/a	LTP271	ltpFR	15	n/a	n/a	n/a	n/a	n/a	n/a	n/a	15	4	5	6	n/a	n/a	n/a	n/a	n/a
863.234	n/a	STOP	431617	n/a	LTP271	ltpFR	15	n/a	n/a	n/a	n/a	n/a	n/a	n/a	n/a	n/a	n/a	n/a	n/a	n/a	n/a	n/a	n/a
865.044	n/a	WORD	432522	wordpools/wasnorm_wordpool_less_exclusions.txt	LTP271	ltpFR	15	4	1	MOOSE	915	n/a	n/a	1	n/a	0	0	0	0.57763671875	0.412841796875	1	lower	amplitud.ttf
868.056	n/a	START	434028	n/a	LTP271	ltpFR	15	n/a	n/a	n/a	n/a	n/a	n/a	n/a	n/a	n/a	n/a	n/a	n/a	n/a	n/a	n/a	n/a
869.12	n/a	PROB	434560	n/a	LTP271	ltpFR	15	n/a	n/a	n/a	n/a	n/a	n/a	n/a	11	1	1	9	n/a	n/a	n/a	n/a	n/a
870.236	n/a	PROB	435118	n/a	LTP271	ltpFR	15	n/a	n/a	n/a	n/a	n/a	n/a	n/a	10	3	5	2	n/a	n/a	n/a	n/a	n/a
871.65	n/a	PROB	435825	n/a	LTP271	ltpFR	15	n/a	n/a	n/a	n/a	n/a	n/a	n/a	11	3	4	4	n/a	n/a	n/a	n/a	n/a
873.316	n/a	PROB	436658	n/a	LTP271	ltpFR	15	n/a	n/a	n/a	n/a	n/a	n/a	n/a	11	3	2	6	n/a	n/a	n/a	n/a	n/a
874.666	n/a	STOP	437333	n/a	LTP271	ltpFR	15	n/a	n/a	n/a	n/a	n/a	n/a	n/a	n/a	n/a	n/a	n/a	n/a	n/a	n/a	n/a	n/a
877.026	n/a	WORD	438513	wordpools/wasnorm_wordpool_less_exclusions.txt	LTP271	ltpFR	15	4	1	DOLLAR	482	n/a	n/a	0	n/a	0	0	0	0.57763671875	0.412841796875	1	lower	amplitud.ttf
880.038	n/a	START	440019	n/a	LTP271	ltpFR	15	n/a	n/a	n/a	n/a	n/a	n/a	n/a	n/a	n/a	n/a	n/a	n/a	n/a	n/a	n/a	n/a
881.136	n/a	PROB	440568	n/a	LTP271	ltpFR	15	n/a	n/a	n/a	n/a	n/a	n/a	n/a	17	6	8	3	n/a	n/a	n/a	n/a	n/a
882.768	n/a	PROB	441384	n/a	LTP271	ltpFR	15	n/a	n/a	n/a	n/a	n/a	n/a	n/a	21	5	7	7	n/a	n/a	n/a	n/a	n/a
884.598	n/a	PROB	442299	n/a	LTP271	ltpFR	15	n/a	n/a	n/a	n/a	n/a	n/a	n/a	10	2	6	2	n/a	n/a	n/a	n/a	n/a
885.864	n/a	PROB	442932	n/a	LTP271	ltpFR	15	n/a	n/a	n/a	n/a	n/a	n/a	n/a	21	7	6	8	n/a	n/a	n/a	n/a	n/a
887.868	n/a	STOP	443934	n/a	LTP271	ltpFR	15	n/a	n/a	n/a	n/a	n/a	n/a	n/a	n/a	n/a	n/a	n/a	n/a	n/a	n/a	n/a	n/a
889.042	n/a	WORD	444521	wordpools/wasnorm_wordpool_less_exclusions.txt	LTP271	ltpFR	15	4	1	SKI	1316	n/a	n/a	0	n/a	0	0	0	0.57763671875	0.412841796875	1	lower	amplitud.ttf
892.054	n/a	START	446027	n/a	LTP271	ltpFR	15	n/a	n/a	n/a	n/a	n/a	n/a	n/a	n/a	n/a	n/a	n/a	n/a	n/a	n/a	n/a	n/a
893.002	n/a	PROB	446501	n/a	LTP271	ltpFR	15	n/a	n/a	n/a	n/a	n/a	n/a	n/a	7	3	1	3	n/a	n/a	n/a	n/a	n/a
894.368	n/a	PROB	447184	n/a	LTP271	ltpFR	15	n/a	n/a	n/a	n/a	n/a	n/a	n/a	22	8	5	9	n/a	n/a	n/a	n/a	n/a
897.196	n/a	PROB	448598	n/a	LTP271	ltpFR	15	n/a	n/a	n/a	n/a	n/a	n/a	n/a	18	4	5	9	n/a	n/a	n/a	n/a	n/a
898.444	n/a	PROB	449222	n/a	LTP271	ltpFR	15	n/a	n/a	n/a	n/a	n/a	n/a	n/a	18	8	9	1	n/a	n/a	n/a	n/a	n/a
899.78	n/a	STOP	449890	n/a	LTP271	ltpFR	15	n/a	n/a	n/a	n/a	n/a	n/a	n/a	n/a	n/a	n/a	n/a	n/a	n/a	n/a	n/a	n/a
901.19	n/a	WORD	450595	wordpools/wasnorm_wordpool_less_exclusions.txt	LTP271	ltpFR	15	4	1	WATERFALL	1595	n/a	n/a	0	n/a	0	0	0	0.57763671875	0.412841796875	1	lower	amplitud.ttf
904.202	n/a	START	452101	n/a	LTP271	ltpFR	15	n/a	n/a	n/a	n/a	n/a	n/a	n/a	n/a	n/a	n/a	n/a	n/a	n/a	n/a	n/a	n/a
905.034	n/a	PROB	452517	n/a	LTP271	ltpFR	15	n/a	n/a	n/a	n/a	n/a	n/a	n/a	14	7	1	6	n/a	n/a	n/a	n/a	n/a
906.498	n/a	PROB	453249	n/a	LTP271	ltpFR	15	n/a	n/a	n/a	n/a	n/a	n/a	n/a	14	7	6	1	n/a	n/a	n/a	n/a	n/a
907.68	n/a	PROB	453840	n/a	LTP271	ltpFR	15	n/a	n/a	n/a	n/a	n/a	n/a	n/a	12	3	2	7	n/a	n/a	n/a	n/a	n/a
909.194	n/a	PROB	454597	n/a	LTP271	ltpFR	15	n/a	n/a	n/a	n/a	n/a	n/a	n/a	23	6	8	9	n/a	n/a	n/a	n/a	n/a
910.796	n/a	STOP	455398	n/a	LTP271	ltpFR	15	n/a	n/a	n/a	n/a	n/a	n/a	n/a	n/a	n/a	n/a	n/a	n/a	n/a	n/a	n/a	n/a
913.356	n/a	WORD	456678	wordpools/wasnorm_wordpool_less_exclusions.txt	LTP271	ltpFR	15	4	1	BUYER	208	n/a	n/a	1	n/a	0	0	0	0.57763671875	0.412841796875	1	lower	amplitud.ttf
916.368	n/a	START	458184	n/a	LTP271	ltpFR	15	n/a	n/a	n/a	n/a	n/a	n/a	n/a	n/a	n/a	n/a	n/a	n/a	n/a	n/a	n/a	n/a
917.55	n/a	PROB	458775	n/a	LTP271	ltpFR	15	n/a	n/a	n/a	n/a	n/a	n/a	n/a	1	2	3	2	n/a	n/a	n/a	n/a	n/a
919.246	n/a	PROB	459623	n/a	LTP271	ltpFR	15	n/a	n/a	n/a	n/a	n/a	n/a	n/a	20	8	4	8	n/a	n/a	n/a	n/a	n/a
921.394	n/a	PROB	460697	n/a	LTP271	ltpFR	15	n/a	n/a	n/a	n/a	n/a	n/a	n/a	13	7	4	2	n/a	n/a	n/a	n/a	n/a
923.3	n/a	STOP	461650	n/a	LTP271	ltpFR	15	n/a	n/a	n/a	n/a	n/a	n/a	n/a	n/a	n/a	n/a	n/a	n/a	n/a	n/a	n/a	n/a
925.37	n/a	WORD	462685	wordpools/wasnorm_wordpool_less_exclusions.txt	LTP271	ltpFR	15	4	1	CEREAL	272	n/a	n/a	0	n/a	0	0	0	0.57763671875	0.412841796875	1	lower	amplitud.ttf
928.384	n/a	START	464192	n/a	LTP271	ltpFR	15	n/a	n/a	n/a	n/a	n/a	n/a	n/a	n/a	n/a	n/a	n/a	n/a	n/a	n/a	n/a	n/a
929.482	n/a	PROB	464741	n/a	LTP271	ltpFR	15	n/a	n/a	n/a	n/a	n/a	n/a	n/a	25	8	9	9	n/a	n/a	n/a	n/a	n/a
931.928	n/a	PROB	465964	n/a	LTP271	ltpFR	15	n/a	n/a	n/a	n/a	n/a	n/a	n/a	20	4	7	9	n/a	n/a	n/a	n/a	n/a
933.392	n/a	PROB	466696	n/a	LTP271	ltpFR	15	n/a	n/a	n/a	n/a	n/a	n/a	n/a	22	8	7	9	n/a	n/a	n/a	n/a	n/a
935.996	n/a	STOP	467998	n/a	LTP271	ltpFR	15	n/a	n/a	n/a	n/a	n/a	n/a	n/a	n/a	n/a	n/a	n/a	n/a	n/a	n/a	n/a	n/a
937.47	n/a	WORD	468735	wordpools/wasnorm_wordpool_less_exclusions.txt	LTP271	ltpFR	15	4	1	PORPOISE	1109	n/a	n/a	1	n/a	0	0	0	0.57763671875	0.412841796875	1	lower	amplitud.ttf
940.482	n/a	START	470241	n/a	LTP271	ltpFR	15	n/a	n/a	n/a	n/a	n/a	n/a	n/a	n/a	n/a	n/a	n/a	n/a	n/a	n/a	n/a	n/a
941.53	n/a	PROB	470765	n/a	LTP271	ltpFR	15	n/a	n/a	n/a	n/a	n/a	n/a	n/a	18	5	8	5	n/a	n/a	n/a	n/a	n/a
943.094	n/a	PROB	471547	n/a	LTP271	ltpFR	15	n/a	n/a	n/a	n/a	n/a	n/a	n/a	13	7	5	1	n/a	n/a	n/a	n/a	n/a
944.708	n/a	PROB	472354	n/a	LTP271	ltpFR	15	n/a	n/a	n/a	n/a	n/a	n/a	n/a	13	8	6	1	n/a	n/a	n/a	n/a	n/a
946.574	n/a	PROB	473287	n/a	LTP271	ltpFR	15	n/a	n/a	n/a	n/a	n/a	n/a	n/a	9	1	3	5	n/a	n/a	n/a	n/a	n/a
948.172	n/a	STOP	474086	n/a	LTP271	ltpFR	15	n/a	n/a	n/a	n/a	n/a	n/a	n/a	n/a	n/a	n/a	n/a	n/a	n/a	n/a	n/a	n/a
949.486	n/a	WORD	474743	wordpools/wasnorm_wordpool_less_exclusions.txt	LTP271	ltpFR	15	4	1	DOLPHIN	483	n/a	n/a	1	n/a	0	0	0	0.57763671875	0.412841796875	1	lower	amplitud.ttf
952.498	n/a	START	476249	n/a	LTP271	ltpFR	15	n/a	n/a	n/a	n/a	n/a	n/a	n/a	n/a	n/a	n/a	n/a	n/a	n/a	n/a	n/a	n/a
953.514	n/a	PROB	476757	n/a	LTP271	ltpFR	15	n/a	n/a	n/a	n/a	n/a	n/a	n/a	10	3	4	3	n/a	n/a	n/a	n/a	n/a
956.392	n/a	PROB	478196	n/a	LTP271	ltpFR	15	n/a	n/a	n/a	n/a	n/a	n/a	n/a	23	6	9	8	n/a	n/a	n/a	n/a	n/a
957.924	n/a	PROB	478962	n/a	LTP271	ltpFR	15	n/a	n/a	n/a	n/a	n/a	n/a	n/a	19	7	6	6	n/a	n/a	n/a	n/a	n/a
959.892	n/a	STOP	479946	n/a	LTP271	ltpFR	15	n/a	n/a	n/a	n/a	n/a	n/a	n/a	n/a	n/a	n/a	n/a	n/a	n/a	n/a	n/a	n/a
961.7	n/a	WORD	480850	wordpools/wasnorm_wordpool_less_exclusions.txt	LTP271	ltpFR	15	4	1	CASHIER	254	n/a	n/a	1	n/a	0	0	0	0.57763671875	0.412841796875	1	lower	amplitud.ttf
964.714	n/a	START	482357	n/a	LTP271	ltpFR	15	n/a	n/a	n/a	n/a	n/a	n/a	n/a	n/a	n/a	n/a	n/a	n/a	n/a	n/a	n/a	n/a
965.844	n/a	PROB	482922	n/a	LTP271	ltpFR	15	n/a	n/a	n/a	n/a	n/a	n/a	n/a	20	7	9	4	n/a	n/a	n/a	n/a	n/a
967.808	n/a	PROB	483904	n/a	LTP271	ltpFR	15	n/a	n/a	n/a	n/a	n/a	n/a	n/a	5	1	3	1	n/a	n/a	n/a	n/a	n/a
968.906	n/a	PROB	484453	n/a	LTP271	ltpFR	15	n/a	n/a	n/a	n/a	n/a	n/a	n/a	13	5	4	4	n/a	n/a	n/a	n/a	n/a
970.188	n/a	PROB	485094	n/a	LTP271	ltpFR	15	n/a	n/a	n/a	n/a	n/a	n/a	n/a	21	6	9	6	n/a	n/a	n/a	n/a	n/a
971.828	n/a	STOP	485914	n/a	LTP271	ltpFR	15	n/a	n/a	n/a	n/a	n/a	n/a	n/a	n/a	n/a	n/a	n/a	n/a	n/a	n/a	n/a	n/a
973.816	n/a	WORD	486908	wordpools/wasnorm_wordpool_less_exclusions.txt	LTP271	ltpFR	15	4	1	MOSS	918	n/a	n/a	1	n/a	0	0	0	0.57763671875	0.412841796875	1	lower	amplitud.ttf
976.828	n/a	START	488414	n/a	LTP271	ltpFR	15	n/a	n/a	n/a	n/a	n/a	n/a	n/a	n/a	n/a	n/a	n/a	n/a	n/a	n/a	n/a	n/a
977.894	n/a	PROB	488947	n/a	LTP271	ltpFR	15	n/a	n/a	n/a	n/a	n/a	n/a	n/a	15	5	7	3	n/a	n/a	n/a	n/a	n/a
979.408	n/a	PROB	489704	n/a	LTP271	ltpFR	15	n/a	n/a	n/a	n/a	n/a	n/a	n/a	11	7	2	2	n/a	n/a	n/a	n/a	n/a
980.806	n/a	PROB	490403	n/a	LTP271	ltpFR	15	n/a	n/a	n/a	n/a	n/a	n/a	n/a	17	7	5	5	n/a	n/a	n/a	n/a	n/a
982.17	n/a	PROB	491085	n/a	LTP271	ltpFR	15	n/a	n/a	n/a	n/a	n/a	n/a	n/a	19	8	2	9	n/a	n/a	n/a	n/a	n/a
983.38	n/a	STOP	491690	n/a	LTP271	ltpFR	15	n/a	n/a	n/a	n/a	n/a	n/a	n/a	n/a	n/a	n/a	n/a	n/a	n/a	n/a	n/a	n/a
985.932	n/a	WORD	492966	wordpools/wasnorm_wordpool_less_exclusions.txt	LTP271	ltpFR	15	4	1	ANT	25	n/a	n/a	1	n/a	0	0	0	0.57763671875	0.412841796875	1	lower	amplitud.ttf
988.944	n/a	START	494472	n/a	LTP271	ltpFR	15	n/a	n/a	n/a	n/a	n/a	n/a	n/a	n/a	n/a	n/a	n/a	n/a	n/a	n/a	n/a	n/a
989.76	n/a	PROB	494880	n/a	LTP271	ltpFR	15	n/a	n/a	n/a	n/a	n/a	n/a	n/a	14	6	3	5	n/a	n/a	n/a	n/a	n/a
991.34	n/a	PROB	495670	n/a	LTP271	ltpFR	15	n/a	n/a	n/a	n/a	n/a	n/a	n/a	19	9	9	1	n/a	n/a	n/a	n/a	n/a
992.888	n/a	PROB	496444	n/a	LTP271	ltpFR	15	n/a	n/a	n/a	n/a	n/a	n/a	n/a	9	2	5	2	n/a	n/a	n/a	n/a	n/a
994.702	n/a	PROB	497351	n/a	LTP271	ltpFR	15	n/a	n/a	n/a	n/a	n/a	n/a	n/a	13	5	2	6	n/a	n/a	n/a	n/a	n/a
996.388	n/a	STOP	498194	n/a	LTP271	ltpFR	15	n/a	n/a	n/a	n/a	n/a	n/a	n/a	n/a	n/a	n/a	n/a	n/a	n/a	n/a	n/a	n/a
998.064	n/a	WORD	499032	wordpools/wasnorm_wordpool_less_exclusions.txt	LTP271	ltpFR	15	4	1	TRICYCLE	1506	n/a	n/a	0	n/a	0	0	0	0.57763671875	0.412841796875	1	lower	amplitud.ttf
1001.076	n/a	START	500538	n/a	LTP271	ltpFR	15	n/a	n/a	n/a	n/a	n/a	n/a	n/a	n/a	n/a	n/a	n/a	n/a	n/a	n/a	n/a	n/a
1002.04	n/a	PROB	501020	n/a	LTP271	ltpFR	15	n/a	n/a	n/a	n/a	n/a	n/a	n/a	18	5	8	7	n/a	n/a	n/a	n/a	n/a
1004.154	n/a	PROB	502077	n/a	LTP271	ltpFR	15	n/a	n/a	n/a	n/a	n/a	n/a	n/a	23	7	8	8	n/a	n/a	n/a	n/a	n/a
1005.918	n/a	PROB	502959	n/a	LTP271	ltpFR	15	n/a	n/a	n/a	n/a	n/a	n/a	n/a	19	6	9	4	n/a	n/a	n/a	n/a	n/a
1007.382	n/a	PROB	503691	n/a	LTP271	ltpFR	15	n/a	n/a	n/a	n/a	n/a	n/a	n/a	17	3	7	7	n/a	n/a	n/a	n/a	n/a
1008.564	n/a	STOP	504282	n/a	LTP271	ltpFR	15	n/a	n/a	n/a	n/a	n/a	n/a	n/a	n/a	n/a	n/a	n/a	n/a	n/a	n/a	n/a	n/a
1010.078	n/a	WORD	505039	wordpools/wasnorm_wordpool_less_exclusions.txt	LTP271	ltpFR	15	4	1	FAMILY	550	n/a	n/a	1	n/a	0	0	0	0.57763671875	0.412841796875	1	lower	amplitud.ttf
1013.092	n/a	START	506546	n/a	LTP271	ltpFR	15	n/a	n/a	n/a	n/a	n/a	n/a	n/a	n/a	n/a	n/a	n/a	n/a	n/a	n/a	n/a	n/a
1014.256	n/a	PROB	507128	n/a	LTP271	ltpFR	15	n/a	n/a	n/a	n/a	n/a	n/a	n/a	14	5	3	6	n/a	n/a	n/a	n/a	n/a
1015.77	n/a	PROB	507885	n/a	LTP271	ltpFR	15	n/a	n/a	n/a	n/a	n/a	n/a	n/a	19	9	3	7	n/a	n/a	n/a	n/a	n/a
1017.302	n/a	PROB	508651	n/a	LTP271	ltpFR	15	n/a	n/a	n/a	n/a	n/a	n/a	n/a	14	6	1	7	n/a	n/a	n/a	n/a	n/a
1018.75	n/a	PROB	509375	n/a	LTP271	ltpFR	15	n/a	n/a	n/a	n/a	n/a	n/a	n/a	15	6	2	7	n/a	n/a	n/a	n/a	n/a
1020.278	n/a	STOP	510139	n/a	LTP271	ltpFR	15	n/a	n/a	n/a	n/a	n/a	n/a	n/a	n/a	n/a	n/a	n/a	n/a	n/a	n/a	n/a	n/a
1022.262	n/a	WORD	511131	wordpools/wasnorm_wordpool_less_exclusions.txt	LTP271	ltpFR	15	4	1	CHILD	299	n/a	n/a	1	n/a	0	0	0	0.57763671875	0.412841796875	1	lower	amplitud.ttf
1025.274	n/a	START	512637	n/a	LTP271	ltpFR	15	n/a	n/a	n/a	n/a	n/a	n/a	n/a	n/a	n/a	n/a	n/a	n/a	n/a	n/a	n/a	n/a
1026.272	n/a	PROB	513136	n/a	LTP271	ltpFR	15	n/a	n/a	n/a	n/a	n/a	n/a	n/a	13	4	8	1	n/a	n/a	n/a	n/a	n/a
1027.736	n/a	PROB	513868	n/a	LTP271	ltpFR	15	n/a	n/a	n/a	n/a	n/a	n/a	n/a	9	4	3	2	n/a	n/a	n/a	n/a	n/a
1029.134	n/a	PROB	514567	n/a	LTP271	ltpFR	15	n/a	n/a	n/a	n/a	n/a	n/a	n/a	8	2	2	4	n/a	n/a	n/a	n/a	n/a
1030.55	n/a	PROB	515275	n/a	LTP271	ltpFR	15	n/a	n/a	n/a	n/a	n/a	n/a	n/a	9	2	4	3	n/a	n/a	n/a	n/a	n/a
1032.486	n/a	STOP	516243	n/a	LTP271	ltpFR	15	n/a	n/a	n/a	n/a	n/a	n/a	n/a	n/a	n/a	n/a	n/a	n/a	n/a	n/a	n/a	n/a
1034.244	n/a	WORD	517122	wordpools/wasnorm_wordpool_less_exclusions.txt	LTP271	ltpFR	15	4	1	MAPLE	866	n/a	n/a	1	n/a	0	0	0	0.57763671875	0.412841796875	1	lower	amplitud.ttf
1037.256	n/a	START	518628	n/a	LTP271	ltpFR	15	n/a	n/a	n/a	n/a	n/a	n/a	n/a	n/a	n/a	n/a	n/a	n/a	n/a	n/a	n/a	n/a
1038.27	n/a	PROB	519135	n/a	LTP271	ltpFR	15	n/a	n/a	n/a	n/a	n/a	n/a	n/a	15	4	9	2	n/a	n/a	n/a	n/a	n/a
1040.018	n/a	PROB	520009	n/a	LTP271	ltpFR	15	n/a	n/a	n/a	n/a	n/a	n/a	n/a	19	6	8	5	n/a	n/a	n/a	n/a	n/a
1041.7	n/a	PROB	520850	n/a	LTP271	ltpFR	15	n/a	n/a	n/a	n/a	n/a	n/a	n/a	13	6	5	2	n/a	n/a	n/a	n/a	n/a
1043.048	n/a	PROB	521524	n/a	LTP271	ltpFR	15	n/a	n/a	n/a	n/a	n/a	n/a	n/a	21	5	8	8	n/a	n/a	n/a	n/a	n/a
1044.494	n/a	STOP	522247	n/a	LTP271	ltpFR	15	n/a	n/a	n/a	n/a	n/a	n/a	n/a	n/a	n/a	n/a	n/a	n/a	n/a	n/a	n/a	n/a
1046.476	n/a	WORD	523238	wordpools/wasnorm_wordpool_less_exclusions.txt	LTP271	ltpFR	15	4	1	BUTLER	204	n/a	n/a	1	n/a	0	0	0	0.57763671875	0.412841796875	1	lower	amplitud.ttf
1049.488	n/a	START	524744	n/a	LTP271	ltpFR	15	n/a	n/a	n/a	n/a	n/a	n/a	n/a	n/a	n/a	n/a	n/a	n/a	n/a	n/a	n/a	n/a
1050.668	n/a	PROB	525334	n/a	LTP271	ltpFR	15	n/a	n/a	n/a	n/a	n/a	n/a	n/a	15	3	8	4	n/a	n/a	n/a	n/a	n/a
1052.8	n/a	PROB	526400	n/a	LTP271	ltpFR	15	n/a	n/a	n/a	n/a	n/a	n/a	n/a	15	6	7	2	n/a	n/a	n/a	n/a	n/a
1054.896	n/a	PROB	527448	n/a	LTP271	ltpFR	15	n/a	n/a	n/a	n/a	n/a	n/a	n/a	15	6	5	4	n/a	n/a	n/a	n/a	n/a
1056.23	n/a	STOP	528115	n/a	LTP271	ltpFR	15	n/a	n/a	n/a	n/a	n/a	n/a	n/a	n/a	n/a	n/a	n/a	n/a	n/a	n/a	n/a	n/a
1059.374	n/a	REC_START	529687	n/a	LTP271	ltpFR	15	4	n/a	n/a	n/a	n/a	n/a	n/a	n/a	0	0	0	n/a	n/a	n/a	n/a	n/a
1063.274	n/a	REC_WORD	531637	wordpools/wasnorm_wordpool_less_exclusions.txt	LTP271	ltpFR	15	4	1	FAMILY	550	n/a	n/a	1	n/a	0	0	0	n/a	n/a	n/a	n/a	n/a
1064.274	n/a	REC_WORD_VV	532137	wordpools/wasnorm_wordpool_less_exclusions.txt	LTP271	ltpFR	15	4	n/a	<>	-1	n/a	n/a	n/a	n/a	0	0	0	n/a	n/a	n/a	n/a	n/a
1075.24	n/a	REC_WORD	537620	wordpools/wasnorm_wordpool_less_exclusions.txt	LTP271	ltpFR	15	4	1	DOLPHIN	483	n/a	n/a	1	n/a	0	0	0	n/a	n/a	n/a	n/a	n/a
1076.796	n/a	REC_WORD	538398	wordpools/wasnorm_wordpool_less_exclusions.txt	LTP271	ltpFR	15	4	1	PORPOISE	1109	n/a	n/a	1	n/a	0	0	0	n/a	n/a	n/a	n/a	n/a
1077.796	n/a	REC_WORD_VV	538898	wordpools/wasnorm_wordpool_less_exclusions.txt	LTP271	ltpFR	15	4	n/a	<>	-1	n/a	n/a	n/a	n/a	0	0	0	n/a	n/a	n/a	n/a	n/a
1083.73	n/a	REC_WORD	541865	wordpools/wasnorm_wordpool_less_exclusions.txt	LTP271	ltpFR	15	4	1	SKI	1316	n/a	n/a	0	n/a	0	0	0	n/a	n/a	n/a	n/a	n/a
1084.942	n/a	REC_WORD	542471	wordpools/wasnorm_wordpool_less_exclusions.txt	LTP271	ltpFR	15	4	1	WATERFALL	1595	n/a	n/a	0	n/a	0	0	0	n/a	n/a	n/a	n/a	n/a
1087.916	n/a	REC_WORD	543958	wordpools/wasnorm_wordpool_less_exclusions.txt	LTP271	ltpFR	15	4	1	MOOSE	915	n/a	n/a	1	n/a	0	0	0	n/a	n/a	n/a	n/a	n/a
1103.976	n/a	REC_WORD	551988	wordpools/wasnorm_wordpool_less_exclusions.txt	LTP271	ltpFR	15	4	1	MAPLE	866	n/a	n/a	1	n/a	0	0	0	n/a	n/a	n/a	n/a	n/a
1137.656	n/a	START	568828	n/a	LTP271	ltpFR	15	n/a	n/a	n/a	n/a	n/a	n/a	n/a	n/a	n/a	n/a	n/a	n/a	n/a	n/a	n/a	n/a
1139.172	n/a	PROB	569586	n/a	LTP271	ltpFR	15	n/a	n/a	n/a	n/a	n/a	n/a	n/a	18	7	7	4	n/a	n/a	n/a	n/a	n/a
1140.852	n/a	PROB	570426	n/a	LTP271	ltpFR	15	n/a	n/a	n/a	n/a	n/a	n/a	n/a	16	6	7	3	n/a	n/a	n/a	n/a	n/a
1142.284	n/a	PROB	571142	n/a	LTP271	ltpFR	15	n/a	n/a	n/a	n/a	n/a	n/a	n/a	13	8	4	1	n/a	n/a	n/a	n/a	n/a
1143.68	n/a	PROB	571840	n/a	LTP271	ltpFR	15	n/a	n/a	n/a	n/a	n/a	n/a	n/a	15	2	7	6	n/a	n/a	n/a	n/a	n/a
1145.728	n/a	PROB	572864	n/a	LTP271	ltpFR	15	n/a	n/a	n/a	n/a	n/a	n/a	n/a	9	2	3	4	n/a	n/a	n/a	n/a	n/a
1147.16	n/a	PROB	573580	n/a	LTP271	ltpFR	15	n/a	n/a	n/a	n/a	n/a	n/a	n/a	3	1	1	1	n/a	n/a	n/a	n/a	n/a
1148.142	n/a	PROB	574071	n/a	LTP271	ltpFR	15	n/a	n/a	n/a	n/a	n/a	n/a	n/a	16	7	7	2	n/a	n/a	n/a	n/a	n/a
1149.556	n/a	PROB	574778	n/a	LTP271	ltpFR	15	n/a	n/a	n/a	n/a	n/a	n/a	n/a	5	2	2	1	n/a	n/a	n/a	n/a	n/a
1150.704	n/a	PROB	575352	n/a	LTP271	ltpFR	15	n/a	n/a	n/a	n/a	n/a	n/a	n/a	15	6	1	9	n/a	n/a	n/a	n/a	n/a
1152.134	n/a	STOP	576067	n/a	LTP271	ltpFR	15	n/a	n/a	n/a	n/a	n/a	n/a	n/a	n/a	n/a	n/a	n/a	n/a	n/a	n/a	n/a	n/a
1154.748	n/a	WORD	577374	wordpools/wasnorm_wordpool_less_exclusions.txt	LTP271	ltpFR	15	5	1	RUNNER	1218	n/a	n/a	1	n/a	0	0	0	0.57763671875	0.412841796875	1	lower	amplitud.ttf
1157.76	n/a	START	578880	n/a	LTP271	ltpFR	15	n/a	n/a	n/a	n/a	n/a	n/a	n/a	n/a	n/a	n/a	n/a	n/a	n/a	n/a	n/a	n/a
1158.692	n/a	PROB	579346	n/a	LTP271	ltpFR	15	n/a	n/a	n/a	n/a	n/a	n/a	n/a	16	1	8	7	n/a	n/a	n/a	n/a	n/a
1160.04	n/a	PROB	580020	n/a	LTP271	ltpFR	15	n/a	n/a	n/a	n/a	n/a	n/a	n/a	16	7	8	1	n/a	n/a	n/a	n/a	n/a
1161.372	n/a	PROB	580686	n/a	LTP271	ltpFR	15	n/a	n/a	n/a	n/a	n/a	n/a	n/a	13	3	4	6	n/a	n/a	n/a	n/a	n/a
1163.236	n/a	PROB	581618	n/a	LTP271	ltpFR	15	n/a	n/a	n/a	n/a	n/a	n/a	n/a	9	1	2	6	n/a	n/a	n/a	n/a	n/a
1164.55	n/a	PROB	582275	n/a	LTP271	ltpFR	15	n/a	n/a	n/a	n/a	n/a	n/a	n/a	22	4	9	9	n/a	n/a	n/a	n/a	n/a
1166.232	n/a	PROB	583116	n/a	LTP271	ltpFR	15	n/a	n/a	n/a	n/a	n/a	n/a	n/a	16	7	2	9	n/a	n/a	n/a	n/a	n/a
1168.528	n/a	PROB	584264	n/a	LTP271	ltpFR	15	n/a	n/a	n/a	n/a	n/a	n/a	n/a	17	7	5	4	n/a	n/a	n/a	n/a	n/a
1170.924	n/a	PROB	585462	n/a	LTP271	ltpFR	15	n/a	n/a	n/a	n/a	n/a	n/a	n/a	18	9	3	6	n/a	n/a	n/a	n/a	n/a
1173.088	n/a	STOP	586544	n/a	LTP271	ltpFR	15	n/a	n/a	n/a	n/a	n/a	n/a	n/a	n/a	n/a	n/a	n/a	n/a	n/a	n/a	n/a	n/a
1174.936	n/a	WORD	587468	wordpools/wasnorm_wordpool_less_exclusions.txt	LTP271	ltpFR	15	5	1	SAP	1233	n/a	n/a	0	n/a	0	0	0	0.57763671875	0.412841796875	1	lower	amplitud.ttf
1177.948	n/a	START	588974	n/a	LTP271	ltpFR	15	n/a	n/a	n/a	n/a	n/a	n/a	n/a	n/a	n/a	n/a	n/a	n/a	n/a	n/a	n/a	n/a
1179.146	n/a	PROB	589573	n/a	LTP271	ltpFR	15	n/a	n/a	n/a	n/a	n/a	n/a	n/a	21	5	8	8	n/a	n/a	n/a	n/a	n/a
1180.56	n/a	PROB	590280	n/a	LTP271	ltpFR	15	n/a	n/a	n/a	n/a	n/a	n/a	n/a	15	2	5	8	n/a	n/a	n/a	n/a	n/a
1182.69	n/a	PROB	591345	n/a	LTP271	ltpFR	15	n/a	n/a	n/a	n/a	n/a	n/a	n/a	16	8	5	3	n/a	n/a	n/a	n/a	n/a
1184.454	n/a	PROB	592227	n/a	LTP271	ltpFR	15	n/a	n/a	n/a	n/a	n/a	n/a	n/a	8	3	3	2	n/a	n/a	n/a	n/a	n/a
1186.618	n/a	PROB	593309	n/a	LTP271	ltpFR	15	n/a	n/a	n/a	n/a	n/a	n/a	n/a	13	1	7	5	n/a	n/a	n/a	n/a	n/a
1188.232	n/a	PROB	594116	n/a	LTP271	ltpFR	15	n/a	n/a	n/a	n/a	n/a	n/a	n/a	9	1	2	6	n/a	n/a	n/a	n/a	n/a
1189.464	n/a	PROB	594732	n/a	LTP271	ltpFR	15	n/a	n/a	n/a	n/a	n/a	n/a	n/a	15	8	5	2	n/a	n/a	n/a	n/a	n/a
1190.846	n/a	PROB	595423	n/a	LTP271	ltpFR	15	n/a	n/a	n/a	n/a	n/a	n/a	n/a	10	3	6	1	n/a	n/a	n/a	n/a	n/a
1192.576	n/a	STOP	596288	n/a	LTP271	ltpFR	15	n/a	n/a	n/a	n/a	n/a	n/a	n/a	n/a	n/a	n/a	n/a	n/a	n/a	n/a	n/a	n/a
1194.956	n/a	WORD	597478	wordpools/wasnorm_wordpool_less_exclusions.txt	LTP271	ltpFR	15	5	1	FIREPLACE	570	n/a	n/a	0	n/a	0	0	0	0.57763671875	0.412841796875	1	lower	amplitud.ttf
1197.968	n/a	START	598984	n/a	LTP271	ltpFR	15	n/a	n/a	n/a	n/a	n/a	n/a	n/a	n/a	n/a	n/a	n/a	n/a	n/a	n/a	n/a	n/a
1199.082	n/a	PROB	599541	n/a	LTP271	ltpFR	15	n/a	n/a	n/a	n/a	n/a	n/a	n/a	18	5	4	8	n/a	n/a	n/a	n/a	n/a
1200.964	n/a	PROB	600482	n/a	LTP271	ltpFR	15	n/a	n/a	n/a	n/a	n/a	n/a	n/a	13	5	7	1	n/a	n/a	n/a	n/a	n/a
1202.544	n/a	PROB	601272	n/a	LTP271	ltpFR	15	n/a	n/a	n/a	n/a	n/a	n/a	n/a	23	9	9	5	n/a	n/a	n/a	n/a	n/a
1203.958	n/a	PROB	601979	n/a	LTP271	ltpFR	15	n/a	n/a	n/a	n/a	n/a	n/a	n/a	14	3	5	6	n/a	n/a	n/a	n/a	n/a
1205.44	n/a	PROB	602720	n/a	LTP271	ltpFR	15	n/a	n/a	n/a	n/a	n/a	n/a	n/a	16	3	5	8	n/a	n/a	n/a	n/a	n/a
1207.204	n/a	PROB	603602	n/a	LTP271	ltpFR	15	n/a	n/a	n/a	n/a	n/a	n/a	n/a	11	1	1	9	n/a	n/a	n/a	n/a	n/a
1208.418	n/a	PROB	604209	n/a	LTP271	ltpFR	15	n/a	n/a	n/a	n/a	n/a	n/a	n/a	10	7	1	2	n/a	n/a	n/a	n/a	n/a
1209.9	n/a	PROB	604950	n/a	LTP271	ltpFR	15	n/a	n/a	n/a	n/a	n/a	n/a	n/a	7	4	2	1	n/a	n/a	n/a	n/a	n/a
1211.498	n/a	PROB	605749	n/a	LTP271	ltpFR	15	n/a	n/a	n/a	n/a	n/a	n/a	n/a	7	2	3	2	n/a	n/a	n/a	n/a	n/a
1213.384	n/a	STOP	606692	n/a	LTP271	ltpFR	15	n/a	n/a	n/a	n/a	n/a	n/a	n/a	n/a	n/a	n/a	n/a	n/a	n/a	n/a	n/a	n/a
1215.026	n/a	WORD	607513	wordpools/wasnorm_wordpool_less_exclusions.txt	LTP271	ltpFR	15	5	1	FIREMAN	569	n/a	n/a	1	n/a	0	0	0	0.57763671875	0.412841796875	1	lower	amplitud.ttf
1218.038	n/a	START	609019	n/a	LTP271	ltpFR	15	n/a	n/a	n/a	n/a	n/a	n/a	n/a	n/a	n/a	n/a	n/a	n/a	n/a	n/a	n/a	n/a
1219.02	n/a	PROB	609510	n/a	LTP271	ltpFR	15	n/a	n/a	n/a	n/a	n/a	n/a	n/a	16	1	9	6	n/a	n/a	n/a	n/a	n/a
1220.268	n/a	PROB	610134	n/a	LTP271	ltpFR	15	n/a	n/a	n/a	n/a	n/a	n/a	n/a	12	3	8	1	n/a	n/a	n/a	n/a	n/a
1221.732	n/a	PROB	610866	n/a	LTP271	ltpFR	15	n/a	n/a	n/a	n/a	n/a	n/a	n/a	13	3	4	6	n/a	n/a	n/a	n/a	n/a
1223.196	n/a	PROB	611598	n/a	LTP271	ltpFR	15	n/a	n/a	n/a	n/a	n/a	n/a	n/a	16	5	2	9	n/a	n/a	n/a	n/a	n/a
1224.728	n/a	PROB	612364	n/a	LTP271	ltpFR	15	n/a	n/a	n/a	n/a	n/a	n/a	n/a	20	6	7	7	n/a	n/a	n/a	n/a	n/a
1226.442	n/a	PROB	613221	n/a	LTP271	ltpFR	15	n/a	n/a	n/a	n/a	n/a	n/a	n/a	11	1	1	9	n/a	n/a	n/a	n/a	n/a
1227.622	n/a	PROB	613811	n/a	LTP271	ltpFR	15	n/a	n/a	n/a	n/a	n/a	n/a	n/a	10	1	1	8	n/a	n/a	n/a	n/a	n/a
1228.938	n/a	PROB	614469	n/a	LTP271	ltpFR	15	n/a	n/a	n/a	n/a	n/a	n/a	n/a	15	5	8	2	n/a	n/a	n/a	n/a	n/a
1230.452	n/a	PROB	615226	n/a	LTP271	ltpFR	15	n/a	n/a	n/a	n/a	n/a	n/a	n/a	11	6	2	3	n/a	n/a	n/a	n/a	n/a
1231.918	n/a	PROB	615959	n/a	LTP271	ltpFR	15	n/a	n/a	n/a	n/a	n/a	n/a	n/a	17	2	9	6	n/a	n/a	n/a	n/a	n/a
1233.4	n/a	STOP	616700	n/a	LTP271	ltpFR	15	n/a	n/a	n/a	n/a	n/a	n/a	n/a	n/a	n/a	n/a	n/a	n/a	n/a	n/a	n/a	n/a
1234.946	n/a	WORD	617473	wordpools/wasnorm_wordpool_less_exclusions.txt	LTP271	ltpFR	15	5	1	PRINCE	1124	n/a	n/a	1	n/a	0	0	0	0.57763671875	0.412841796875	1	lower	amplitud.ttf
1237.958	n/a	START	618979	n/a	LTP271	ltpFR	15	n/a	n/a	n/a	n/a	n/a	n/a	n/a	n/a	n/a	n/a	n/a	n/a	n/a	n/a	n/a	n/a
1239.156	n/a	PROB	619578	n/a	LTP271	ltpFR	15	n/a	n/a	n/a	n/a	n/a	n/a	n/a	23	9	6	9	n/a	n/a	n/a	n/a	n/a
1241.52	n/a	PROB	620760	n/a	LTP271	ltpFR	15	n/a	n/a	n/a	n/a	n/a	n/a	n/a	8	1	5	2	n/a	n/a	n/a	n/a	n/a
1243.002	n/a	PROB	621501	n/a	LTP271	ltpFR	15	n/a	n/a	n/a	n/a	n/a	n/a	n/a	8	6	1	1	n/a	n/a	n/a	n/a	n/a
1244.216	n/a	PROB	622108	n/a	LTP271	ltpFR	15	n/a	n/a	n/a	n/a	n/a	n/a	n/a	18	7	5	6	n/a	n/a	n/a	n/a	n/a
1246.48	n/a	PROB	623240	n/a	LTP271	ltpFR	15	n/a	n/a	n/a	n/a	n/a	n/a	n/a	23	8	8	7	n/a	n/a	n/a	n/a	n/a
1248.078	n/a	PROB	624039	n/a	LTP271	ltpFR	15	n/a	n/a	n/a	n/a	n/a	n/a	n/a	16	8	7	1	n/a	n/a	n/a	n/a	n/a
1249.858	n/a	PROB	624929	n/a	LTP271	ltpFR	15	n/a	n/a	n/a	n/a	n/a	n/a	n/a	19	3	9	7	n/a	n/a	n/a	n/a	n/a
1251.922	n/a	PROB	625961	n/a	LTP271	ltpFR	15	n/a	n/a	n/a	n/a	n/a	n/a	n/a	17	6	7	4	n/a	n/a	n/a	n/a	n/a
1253.528	n/a	STOP	626764	n/a	LTP271	ltpFR	15	n/a	n/a	n/a	n/a	n/a	n/a	n/a	n/a	n/a	n/a	n/a	n/a	n/a	n/a	n/a	n/a
1254.85	n/a	WORD	627425	wordpools/wasnorm_wordpool_less_exclusions.txt	LTP271	ltpFR	15	5	0	CASTLE	256	n/a	n/a	n/a	n/a	0	0	0	0.422607421875	0.5869140625	0	upper	zerothre.ttf
1257.88	n/a	SLOW_MSG	628940	n/a	LTP271	ltpFR	15	5	n/a	n/a	n/a	n/a	n/a	n/a	n/a	0	0	0	n/a	n/a	n/a	n/a	n/a
1259.41	n/a	START	629705	n/a	LTP271	ltpFR	15	n/a	n/a	n/a	n/a	n/a	n/a	n/a	n/a	n/a	n/a	n/a	n/a	n/a	n/a	n/a	n/a
1260.308	n/a	PROB	630154	n/a	LTP271	ltpFR	15	n/a	n/a	n/a	n/a	n/a	n/a	n/a	20	9	8	3	n/a	n/a	n/a	n/a	n/a
1262.372	n/a	PROB	631186	n/a	LTP271	ltpFR	15	n/a	n/a	n/a	n/a	n/a	n/a	n/a	16	9	5	2	n/a	n/a	n/a	n/a	n/a
1264.736	n/a	PROB	632368	n/a	LTP271	ltpFR	15	n/a	n/a	n/a	n/a	n/a	n/a	n/a	14	3	4	7	n/a	n/a	n/a	n/a	n/a
1266.034	n/a	PROB	633017	n/a	LTP271	ltpFR	15	n/a	n/a	n/a	n/a	n/a	n/a	n/a	17	7	9	1	n/a	n/a	n/a	n/a	n/a
1267.398	n/a	PROB	633699	n/a	LTP271	ltpFR	15	n/a	n/a	n/a	n/a	n/a	n/a	n/a	7	1	3	3	n/a	n/a	n/a	n/a	n/a
1268.846	n/a	PROB	634423	n/a	LTP271	ltpFR	15	n/a	n/a	n/a	n/a	n/a	n/a	n/a	19	8	7	4	n/a	n/a	n/a	n/a	n/a
1270.56	n/a	PROB	635280	n/a	LTP271	ltpFR	15	n/a	n/a	n/a	n/a	n/a	n/a	n/a	10	6	2	2	n/a	n/a	n/a	n/a	n/a
1271.974	n/a	PROB	635987	n/a	LTP271	ltpFR	15	n/a	n/a	n/a	n/a	n/a	n/a	n/a	12	8	3	1	n/a	n/a	n/a	n/a	n/a
1275.408	n/a	STOP	637704	n/a	LTP271	ltpFR	15	n/a	n/a	n/a	n/a	n/a	n/a	n/a	n/a	n/a	n/a	n/a	n/a	n/a	n/a	n/a	n/a
1276.268	n/a	WORD	638134	wordpools/wasnorm_wordpool_less_exclusions.txt	LTP271	ltpFR	15	5	0	ACORN	3	n/a	n/a	0	n/a	0	0	0	0.422607421875	0.5869140625	0	upper	zerothre.ttf
1279.282	n/a	START	639641	n/a	LTP271	ltpFR	15	n/a	n/a	n/a	n/a	n/a	n/a	n/a	n/a	n/a	n/a	n/a	n/a	n/a	n/a	n/a	n/a
1280.296	n/a	PROB	640148	n/a	LTP271	ltpFR	15	n/a	n/a	n/a	n/a	n/a	n/a	n/a	11	4	3	4	n/a	n/a	n/a	n/a	n/a
1281.944	n/a	PROB	640972	n/a	LTP271	ltpFR	15	n/a	n/a	n/a	n/a	n/a	n/a	n/a	15	3	3	9	n/a	n/a	n/a	n/a	n/a
1283.342	n/a	PROB	641671	n/a	LTP271	ltpFR	15	n/a	n/a	n/a	n/a	n/a	n/a	n/a	22	4	9	9	n/a	n/a	n/a	n/a	n/a
1284.922	n/a	PROB	642461	n/a	LTP271	ltpFR	15	n/a	n/a	n/a	n/a	n/a	n/a	n/a	21	5	8	7	n/a	n/a	n/a	n/a	n/a
1287.752	n/a	PROB	643876	n/a	LTP271	ltpFR	15	n/a	n/a	n/a	n/a	n/a	n/a	n/a	10	1	6	3	n/a	n/a	n/a	n/a	n/a
1289.282	n/a	PROB	644641	n/a	LTP271	ltpFR	15	n/a	n/a	n/a	n/a	n/a	n/a	n/a	19	7	7	5	n/a	n/a	n/a	n/a	n/a
1290.946	n/a	PROB	645473	n/a	LTP271	ltpFR	15	n/a	n/a	n/a	n/a	n/a	n/a	n/a	7	1	5	1	n/a	n/a	n/a	n/a	n/a
1292.178	n/a	PROB	646089	n/a	LTP271	ltpFR	15	n/a	n/a	n/a	n/a	n/a	n/a	n/a	13	3	4	6	n/a	n/a	n/a	n/a	n/a
1293.608	n/a	PROB	646804	n/a	LTP271	ltpFR	15	n/a	n/a	n/a	n/a	n/a	n/a	n/a	10	4	3	3	n/a	n/a	n/a	n/a	n/a
1295.064	n/a	STOP	647532	n/a	LTP271	ltpFR	15	n/a	n/a	n/a	n/a	n/a	n/a	n/a	n/a	n/a	n/a	n/a	n/a	n/a	n/a	n/a	n/a
1296.388	n/a	WORD	648194	wordpools/wasnorm_wordpool_less_exclusions.txt	LTP271	ltpFR	15	5	0	HOOP	716	n/a	n/a	1	n/a	0	0	0	0.422607421875	0.5869140625	0	upper	zerothre.ttf
1299.402	n/a	START	649701	n/a	LTP271	ltpFR	15	n/a	n/a	n/a	n/a	n/a	n/a	n/a	n/a	n/a	n/a	n/a	n/a	n/a	n/a	n/a	n/a
1300.466	n/a	PROB	650233	n/a	LTP271	ltpFR	15	n/a	n/a	n/a	n/a	n/a	n/a	n/a	15	3	5	7	n/a	n/a	n/a	n/a	n/a
1301.83	n/a	PROB	650915	n/a	LTP271	ltpFR	15	n/a	n/a	n/a	n/a	n/a	n/a	n/a	9	1	7	1	n/a	n/a	n/a	n/a	n/a
1303.062	n/a	PROB	651531	n/a	LTP271	ltpFR	15	n/a	n/a	n/a	n/a	n/a	n/a	n/a	13	5	4	4	n/a	n/a	n/a	n/a	n/a
1304.526	n/a	PROB	652263	n/a	LTP271	ltpFR	15	n/a	n/a	n/a	n/a	n/a	n/a	n/a	21	8	4	9	n/a	n/a	n/a	n/a	n/a
1306.99	n/a	PROB	653495	n/a	LTP271	ltpFR	15	n/a	n/a	n/a	n/a	n/a	n/a	n/a	6	4	1	1	n/a	n/a	n/a	n/a	n/a
1308.022	n/a	PROB	654011	n/a	LTP271	ltpFR	15	n/a	n/a	n/a	n/a	n/a	n/a	n/a	14	9	1	4	n/a	n/a	n/a	n/a	n/a
1309.22	n/a	PROB	654610	n/a	LTP271	ltpFR	15	n/a	n/a	n/a	n/a	n/a	n/a	n/a	16	9	5	2	n/a	n/a	n/a	n/a	n/a
1310.766	n/a	PROB	655383	n/a	LTP271	ltpFR	15	n/a	n/a	n/a	n/a	n/a	n/a	n/a	13	6	5	2	n/a	n/a	n/a	n/a	n/a
1312.232	n/a	PROB	656116	n/a	LTP271	ltpFR	15	n/a	n/a	n/a	n/a	n/a	n/a	n/a	21	9	5	7	n/a	n/a	n/a	n/a	n/a
1314.042	n/a	STOP	657021	n/a	LTP271	ltpFR	15	n/a	n/a	n/a	n/a	n/a	n/a	n/a	n/a	n/a	n/a	n/a	n/a	n/a	n/a	n/a	n/a
1316.426	n/a	WORD	658213	wordpools/wasnorm_wordpool_less_exclusions.txt	LTP271	ltpFR	15	5	0	PAWN	1030	n/a	n/a	0	n/a	0	0	0	0.422607421875	0.5869140625	0	upper	zerothre.ttf
1319.438	n/a	START	659719	n/a	LTP271	ltpFR	15	n/a	n/a	n/a	n/a	n/a	n/a	n/a	n/a	n/a	n/a	n/a	n/a	n/a	n/a	n/a	n/a
1320.42	n/a	PROB	660210	n/a	LTP271	ltpFR	15	n/a	n/a	n/a	n/a	n/a	n/a	n/a	17	7	6	4	n/a	n/a	n/a	n/a	n/a
1322.134	n/a	PROB	661067	n/a	LTP271	ltpFR	15	n/a	n/a	n/a	n/a	n/a	n/a	n/a	17	9	6	2	n/a	n/a	n/a	n/a	n/a
1325.03	n/a	PROB	662515	n/a	LTP271	ltpFR	15	n/a	n/a	n/a	n/a	n/a	n/a	n/a	13	3	8	1	n/a	n/a	n/a	n/a	n/a
1327.244	n/a	PROB	663622	n/a	LTP271	ltpFR	15	n/a	n/a	n/a	n/a	n/a	n/a	n/a	12	4	2	6	n/a	n/a	n/a	n/a	n/a
1328.824	n/a	PROB	664412	n/a	LTP271	ltpFR	15	n/a	n/a	n/a	n/a	n/a	n/a	n/a	11	8	1	2	n/a	n/a	n/a	n/a	n/a
1330.372	n/a	PROB	665186	n/a	LTP271	ltpFR	15	n/a	n/a	n/a	n/a	n/a	n/a	n/a	11	6	4	1	n/a	n/a	n/a	n/a	n/a
1331.57	n/a	PROB	665785	n/a	LTP271	ltpFR	15	n/a	n/a	n/a	n/a	n/a	n/a	n/a	18	7	4	7	n/a	n/a	n/a	n/a	n/a
1333.134	n/a	PROB	666567	n/a	LTP271	ltpFR	15	n/a	n/a	n/a	n/a	n/a	n/a	n/a	21	7	7	7	n/a	n/a	n/a	n/a	n/a
1334.17	n/a	STOP	667085	n/a	LTP271	ltpFR	15	n/a	n/a	n/a	n/a	n/a	n/a	n/a	n/a	n/a	n/a	n/a	n/a	n/a	n/a	n/a	n/a
1336.412	n/a	WORD	668206	wordpools/wasnorm_wordpool_less_exclusions.txt	LTP271	ltpFR	15	5	1	BUILDER	190	n/a	n/a	1	n/a	0	0	0	0.57763671875	0.412841796875	1	lower	amplitud.ttf
1339.426	n/a	START	669713	n/a	LTP271	ltpFR	15	n/a	n/a	n/a	n/a	n/a	n/a	n/a	n/a	n/a	n/a	n/a	n/a	n/a	n/a	n/a	n/a
1340.474	n/a	PROB	670237	n/a	LTP271	ltpFR	15	n/a	n/a	n/a	n/a	n/a	n/a	n/a	12	5	2	5	n/a	n/a	n/a	n/a	n/a
1341.556	n/a	PROB	670778	n/a	LTP271	ltpFR	15	n/a	n/a	n/a	n/a	n/a	n/a	n/a	20	4	7	9	n/a	n/a	n/a	n/a	n/a
1343.352	n/a	PROB	671676	n/a	LTP271	ltpFR	15	n/a	n/a	n/a	n/a	n/a	n/a	n/a	13	4	3	6	n/a	n/a	n/a	n/a	n/a
1344.818	n/a	PROB	672409	n/a	LTP271	ltpFR	15	n/a	n/a	n/a	n/a	n/a	n/a	n/a	8	1	2	5	n/a	n/a	n/a	n/a	n/a
1346.116	n/a	PROB	673058	n/a	LTP271	ltpFR	15	n/a	n/a	n/a	n/a	n/a	n/a	n/a	20	3	8	9	n/a	n/a	n/a	n/a	n/a
1348.03	n/a	PROB	674015	n/a	LTP271	ltpFR	15	n/a	n/a	n/a	n/a	n/a	n/a	n/a	8	1	3	4	n/a	n/a	n/a	n/a	n/a
1349.36	n/a	PROB	674680	n/a	LTP271	ltpFR	15	n/a	n/a	n/a	n/a	n/a	n/a	n/a	12	2	2	8	n/a	n/a	n/a	n/a	n/a
1350.658	n/a	PROB	675329	n/a	LTP271	ltpFR	15	n/a	n/a	n/a	n/a	n/a	n/a	n/a	15	5	8	2	n/a	n/a	n/a	n/a	n/a
1352.14	n/a	PROB	676070	n/a	LTP271	ltpFR	15	n/a	n/a	n/a	n/a	n/a	n/a	n/a	21	7	5	8	n/a	n/a	n/a	n/a	n/a
1355.002	n/a	STOP	677501	n/a	LTP271	ltpFR	15	n/a	n/a	n/a	n/a	n/a	n/a	n/a	n/a	n/a	n/a	n/a	n/a	n/a	n/a	n/a	n/a
1356.582	n/a	WORD	678291	wordpools/wasnorm_wordpool_less_exclusions.txt	LTP271	ltpFR	15	5	1	GUEST	669	n/a	n/a	1	n/a	0	0	0	0.57763671875	0.412841796875	1	lower	amplitud.ttf
1359.596	n/a	START	679798	n/a	LTP271	ltpFR	15	n/a	n/a	n/a	n/a	n/a	n/a	n/a	n/a	n/a	n/a	n/a	n/a	n/a	n/a	n/a	n/a
1360.61	n/a	PROB	680305	n/a	LTP271	ltpFR	15	n/a	n/a	n/a	n/a	n/a	n/a	n/a	22	8	9	5	n/a	n/a	n/a	n/a	n/a
1363.056	n/a	PROB	681528	n/a	LTP271	ltpFR	15	n/a	n/a	n/a	n/a	n/a	n/a	n/a	10	5	3	2	n/a	n/a	n/a	n/a	n/a
1364.322	n/a	PROB	682161	n/a	LTP271	ltpFR	15	n/a	n/a	n/a	n/a	n/a	n/a	n/a	17	8	8	1	n/a	n/a	n/a	n/a	n/a
1365.77	n/a	PROB	682885	n/a	LTP271	ltpFR	15	n/a	n/a	n/a	n/a	n/a	n/a	n/a	7	3	3	1	n/a	n/a	n/a	n/a	n/a
1368.082	n/a	PROB	684041	n/a	LTP271	ltpFR	15	n/a	n/a	n/a	n/a	n/a	n/a	n/a	13	3	8	2	n/a	n/a	n/a	n/a	n/a
1370.03	n/a	PROB	685015	n/a	LTP271	ltpFR	15	n/a	n/a	n/a	n/a	n/a	n/a	n/a	15	3	5	7	n/a	n/a	n/a	n/a	n/a
1372.46	n/a	PROB	686230	n/a	LTP271	ltpFR	15	n/a	n/a	n/a	n/a	n/a	n/a	n/a	12	1	7	4	n/a	n/a	n/a	n/a	n/a
1373.758	n/a	PROB	686879	n/a	LTP271	ltpFR	15	n/a	n/a	n/a	n/a	n/a	n/a	n/a	17	6	9	2	n/a	n/a	n/a	n/a	n/a
1375.162	n/a	STOP	687581	n/a	LTP271	ltpFR	15	n/a	n/a	n/a	n/a	n/a	n/a	n/a	n/a	n/a	n/a	n/a	n/a	n/a	n/a	n/a	n/a
1376.454	n/a	WORD	688227	wordpools/wasnorm_wordpool_less_exclusions.txt	LTP271	ltpFR	15	5	1	BOUILLON	154	n/a	n/a	0	n/a	0	0	0	0.57763671875	0.412841796875	1	lower	amplitud.ttf
1379.466	n/a	START	689733	n/a	LTP271	ltpFR	15	n/a	n/a	n/a	n/a	n/a	n/a	n/a	n/a	n/a	n/a	n/a	n/a	n/a	n/a	n/a	n/a
1380.33	n/a	PROB	690165	n/a	LTP271	ltpFR	15	n/a	n/a	n/a	n/a	n/a	n/a	n/a	11	6	2	3	n/a	n/a	n/a	n/a	n/a
1381.878	n/a	PROB	690939	n/a	LTP271	ltpFR	15	n/a	n/a	n/a	n/a	n/a	n/a	n/a	11	6	2	3	n/a	n/a	n/a	n/a	n/a
1383.176	n/a	PROB	691588	n/a	LTP271	ltpFR	15	n/a	n/a	n/a	n/a	n/a	n/a	n/a	19	5	8	6	n/a	n/a	n/a	n/a	n/a
1386.022	n/a	PROB	693011	n/a	LTP271	ltpFR	15	n/a	n/a	n/a	n/a	n/a	n/a	n/a	6	2	1	3	n/a	n/a	n/a	n/a	n/a
1387.272	n/a	PROB	693636	n/a	LTP271	ltpFR	15	n/a	n/a	n/a	n/a	n/a	n/a	n/a	17	1	8	8	n/a	n/a	n/a	n/a	n/a
1388.702	n/a	PROB	694351	n/a	LTP271	ltpFR	15	n/a	n/a	n/a	n/a	n/a	n/a	n/a	22	6	7	9	n/a	n/a	n/a	n/a	n/a
1390.466	n/a	PROB	695233	n/a	LTP271	ltpFR	15	n/a	n/a	n/a	n/a	n/a	n/a	n/a	18	9	8	1	n/a	n/a	n/a	n/a	n/a
1392.348	n/a	PROB	696174	n/a	LTP271	ltpFR	15	n/a	n/a	n/a	n/a	n/a	n/a	n/a	18	8	1	9	n/a	n/a	n/a	n/a	n/a
1393.946	n/a	STOP	696973	n/a	LTP271	ltpFR	15	n/a	n/a	n/a	n/a	n/a	n/a	n/a	n/a	n/a	n/a	n/a	n/a	n/a	n/a	n/a	n/a
1396.672	n/a	WORD	698336	wordpools/wasnorm_wordpool_less_exclusions.txt	LTP271	ltpFR	15	5	0	OVAL	990	n/a	n/a	2	n/a	0	0	0	0.422607421875	0.5869140625	0	upper	zerothre.ttf
1398.238	n/a	KEY_MSG	699119	n/a	LTP271	ltpFR	15	5	n/a	n/a	n/a	n/a	n/a	n/a	n/a	0	0	0	n/a	n/a	n/a	n/a	n/a
1399.77	n/a	START	699885	n/a	LTP271	ltpFR	15	n/a	n/a	n/a	n/a	n/a	n/a	n/a	n/a	n/a	n/a	n/a	n/a	n/a	n/a	n/a	n/a
1400.618	n/a	PROB	700309	n/a	LTP271	ltpFR	15	n/a	n/a	n/a	n/a	n/a	n/a	n/a	23	7	7	9	n/a	n/a	n/a	n/a	n/a
1402.598	n/a	PROB	701299	n/a	LTP271	ltpFR	15	n/a	n/a	n/a	n/a	n/a	n/a	n/a	24	8	8	8	n/a	n/a	n/a	n/a	n/a
1404.112	n/a	PROB	702056	n/a	LTP271	ltpFR	15	n/a	n/a	n/a	n/a	n/a	n/a	n/a	9	3	2	4	n/a	n/a	n/a	n/a	n/a
1405.444	n/a	PROB	702722	n/a	LTP271	ltpFR	15	n/a	n/a	n/a	n/a	n/a	n/a	n/a	11	5	4	2	n/a	n/a	n/a	n/a	n/a
1406.776	n/a	PROB	703388	n/a	LTP271	ltpFR	15	n/a	n/a	n/a	n/a	n/a	n/a	n/a	23	7	8	6	n/a	n/a	n/a	n/a	n/a
1409.222	n/a	PROB	704611	n/a	LTP271	ltpFR	15	n/a	n/a	n/a	n/a	n/a	n/a	n/a	15	1	8	6	n/a	n/a	n/a	n/a	n/a
1410.87	n/a	PROB	705435	n/a	LTP271	ltpFR	15	n/a	n/a	n/a	n/a	n/a	n/a	n/a	16	6	9	1	n/a	n/a	n/a	n/a	n/a
1412.7	n/a	PROB	706350	n/a	LTP271	ltpFR	15	n/a	n/a	n/a	n/a	n/a	n/a	n/a	21	8	5	8	n/a	n/a	n/a	n/a	n/a
1415.77	n/a	STOP	707885	n/a	LTP271	ltpFR	15	n/a	n/a	n/a	n/a	n/a	n/a	n/a	n/a	n/a	n/a	n/a	n/a	n/a	n/a	n/a	n/a
1416.76	n/a	WORD	708380	wordpools/wasnorm_wordpool_less_exclusions.txt	LTP271	ltpFR	15	5	0	GYMNAST	675	n/a	n/a	1	n/a	0	0	0	0.422607421875	0.5869140625	0	upper	zerothre.ttf
1419.774	n/a	START	709887	n/a	LTP271	ltpFR	15	n/a	n/a	n/a	n/a	n/a	n/a	n/a	n/a	n/a	n/a	n/a	n/a	n/a	n/a	n/a	n/a
1420.888	n/a	PROB	710444	n/a	LTP271	ltpFR	15	n/a	n/a	n/a	n/a	n/a	n/a	n/a	19	6	6	7	n/a	n/a	n/a	n/a	n/a
1422.452	n/a	PROB	711226	n/a	LTP271	ltpFR	15	n/a	n/a	n/a	n/a	n/a	n/a	n/a	10	2	6	2	n/a	n/a	n/a	n/a	n/a
1423.9	n/a	PROB	711950	n/a	LTP271	ltpFR	15	n/a	n/a	n/a	n/a	n/a	n/a	n/a	23	9	9	7	n/a	n/a	n/a	n/a	n/a
1425.964	n/a	PROB	712982	n/a	LTP271	ltpFR	15	n/a	n/a	n/a	n/a	n/a	n/a	n/a	15	7	2	6	n/a	n/a	n/a	n/a	n/a
1427.778	n/a	PROB	713889	n/a	LTP271	ltpFR	15	n/a	n/a	n/a	n/a	n/a	n/a	n/a	11	1	2	8	n/a	n/a	n/a	n/a	n/a
1429.64	n/a	PROB	714820	n/a	LTP271	ltpFR	15	n/a	n/a	n/a	n/a	n/a	n/a	n/a	17	3	6	8	n/a	n/a	n/a	n/a	n/a
1431.272	n/a	PROB	715636	n/a	LTP271	ltpFR	15	n/a	n/a	n/a	n/a	n/a	n/a	n/a	22	4	1	7	n/a	n/a	n/a	n/a	n/a
1432.936	n/a	PROB	716468	n/a	LTP271	ltpFR	15	n/a	n/a	n/a	n/a	n/a	n/a	n/a	3	1	1	1	n/a	n/a	n/a	n/a	n/a
1433.936	n/a	PROB	716968	n/a	LTP271	ltpFR	15	n/a	n/a	n/a	n/a	n/a	n/a	n/a	18	8	3	7	n/a	n/a	n/a	n/a	n/a
1435.394	n/a	STOP	717697	n/a	LTP271	ltpFR	15	n/a	n/a	n/a	n/a	n/a	n/a	n/a	n/a	n/a	n/a	n/a	n/a	n/a	n/a	n/a	n/a
1436.646	n/a	WORD	718323	wordpools/wasnorm_wordpool_less_exclusions.txt	LTP271	ltpFR	15	5	0	BANNER	85	n/a	n/a	0	n/a	0	0	0	0.422607421875	0.5869140625	0	upper	zerothre.ttf
1439.66	n/a	START	719830	n/a	LTP271	ltpFR	15	n/a	n/a	n/a	n/a	n/a	n/a	n/a	n/a	n/a	n/a	n/a	n/a	n/a	n/a	n/a	n/a
1440.808	n/a	PROB	720404	n/a	LTP271	ltpFR	15	n/a	n/a	n/a	n/a	n/a	n/a	n/a	14	4	4	6	n/a	n/a	n/a	n/a	n/a
1442.856	n/a	PROB	721428	n/a	LTP271	ltpFR	15	n/a	n/a	n/a	n/a	n/a	n/a	n/a	8	1	6	1	n/a	n/a	n/a	n/a	n/a
1444.054	n/a	PROB	722027	n/a	LTP271	ltpFR	15	n/a	n/a	n/a	n/a	n/a	n/a	n/a	15	7	4	4	n/a	n/a	n/a	n/a	n/a
1446.416	n/a	PROB	723208	n/a	LTP271	ltpFR	15	n/a	n/a	n/a	n/a	n/a	n/a	n/a	15	3	8	4	n/a	n/a	n/a	n/a	n/a
1447.848	n/a	PROB	723924	n/a	LTP271	ltpFR	15	n/a	n/a	n/a	n/a	n/a	n/a	n/a	18	7	5	6	n/a	n/a	n/a	n/a	n/a
1450.71	n/a	PROB	725355	n/a	LTP271	ltpFR	15	n/a	n/a	n/a	n/a	n/a	n/a	n/a	24	8	9	7	n/a	n/a	n/a	n/a	n/a
1455.66	n/a	STOP	727830	n/a	LTP271	ltpFR	15	n/a	n/a	n/a	n/a	n/a	n/a	n/a	n/a	n/a	n/a	n/a	n/a	n/a	n/a	n/a	n/a
1456.634	n/a	WORD	728317	wordpools/wasnorm_wordpool_less_exclusions.txt	LTP271	ltpFR	15	5	0	BOLT	146	n/a	n/a	0	n/a	0	0	0	0.422607421875	0.5869140625	0	upper	zerothre.ttf
1459.646	n/a	START	729823	n/a	LTP271	ltpFR	15	n/a	n/a	n/a	n/a	n/a	n/a	n/a	n/a	n/a	n/a	n/a	n/a	n/a	n/a	n/a	n/a
1460.662	n/a	PROB	730331	n/a	LTP271	ltpFR	15	n/a	n/a	n/a	n/a	n/a	n/a	n/a	16	6	1	9	n/a	n/a	n/a	n/a	n/a
1463.208	n/a	PROB	731604	n/a	LTP271	ltpFR	15	n/a	n/a	n/a	n/a	n/a	n/a	n/a	16	3	7	6	n/a	n/a	n/a	n/a	n/a
1464.34	n/a	PROB	732170	n/a	LTP271	ltpFR	15	n/a	n/a	n/a	n/a	n/a	n/a	n/a	20	7	5	8	n/a	n/a	n/a	n/a	n/a
1466.588	n/a	PROB	733294	n/a	LTP271	ltpFR	15	n/a	n/a	n/a	n/a	n/a	n/a	n/a	5	2	2	1	n/a	n/a	n/a	n/a	n/a
1467.786	n/a	PROB	733893	n/a	LTP271	ltpFR	15	n/a	n/a	n/a	n/a	n/a	n/a	n/a	17	9	1	7	n/a	n/a	n/a	n/a	n/a
1469.2	n/a	PROB	734600	n/a	LTP271	ltpFR	15	n/a	n/a	n/a	n/a	n/a	n/a	n/a	21	8	6	7	n/a	n/a	n/a	n/a	n/a
1472.694	n/a	PROB	736347	n/a	LTP271	ltpFR	15	n/a	n/a	n/a	n/a	n/a	n/a	n/a	6	2	1	3	n/a	n/a	n/a	n/a	n/a
1474.804	n/a	STOP	737402	n/a	LTP271	ltpFR	15	n/a	n/a	n/a	n/a	n/a	n/a	n/a	n/a	n/a	n/a	n/a	n/a	n/a	n/a	n/a	n/a
1477.588	n/a	REC_START	738794	n/a	LTP271	ltpFR	15	5	n/a	n/a	n/a	n/a	n/a	n/a	n/a	0	0	0	n/a	n/a	n/a	n/a	n/a
1480.068	n/a	REC_WORD	740034	wordpools/wasnorm_wordpool_less_exclusions.txt	LTP271	ltpFR	15	5	0	BOLT	146	n/a	n/a	0	n/a	0	0	0	n/a	n/a	n/a	n/a	n/a
1481.642	n/a	REC_WORD_VV	740821	wordpools/wasnorm_wordpool_less_exclusions.txt	LTP271	ltpFR	15	5	n/a	<>	-1	n/a	n/a	n/a	n/a	0	0	0	n/a	n/a	n/a	n/a	n/a
1485.014	n/a	REC_WORD	742507	wordpools/wasnorm_wordpool_less_exclusions.txt	LTP271	ltpFR	15	5	1	BOUILLON	154	n/a	n/a	0	n/a	0	0	0	n/a	n/a	n/a	n/a	n/a
1562.162	n/a	WORD	781081	wordpools/wasnorm_wordpool_less_exclusions.txt	LTP271	ltpFR	15	6	1	SURF	1412	n/a	n/a	0	n/a	0	0	0	0.57763671875	0.412841796875	1	lower	amplitud.ttf
1566.172	n/a	WORD	783086	wordpools/wasnorm_wordpool_less_exclusions.txt	LTP271	ltpFR	15	6	1	MARROW	872	n/a	n/a	0	n/a	0	0	0	0.57763671875	0.412841796875	1	lower	amplitud.ttf
1570.166	n/a	WORD	785083	wordpools/wasnorm_wordpool_less_exclusions.txt	LTP271	ltpFR	15	6	0	ELBOW	520	n/a	n/a	0	n/a	0	0	0	0.422607421875	0.5869140625	0	upper	zerothre.ttf
1574.328	n/a	WORD	787164	wordpools/wasnorm_wordpool_less_exclusions.txt	LTP271	ltpFR	15	6	0	FLASK	576	n/a	n/a	0	n/a	0	0	0	0.422607421875	0.5869140625	0	upper	zerothre.ttf
1578.338	n/a	WORD	789169	wordpools/wasnorm_wordpool_less_exclusions.txt	LTP271	ltpFR	15	6	0	BARTENDER	92	n/a	n/a	1	n/a	0	0	0	0.422607421875	0.5869140625	0	upper	zerothre.ttf
1582.416	n/a	WORD	791208	wordpools/wasnorm_wordpool_less_exclusions.txt	LTP271	ltpFR	15	6	0	MARINE	869	n/a	n/a	1	n/a	0	0	0	0.422607421875	0.5869140625	0	upper	zerothre.ttf
1586.26	n/a	WORD	793130	wordpools/wasnorm_wordpool_less_exclusions.txt	LTP271	ltpFR	15	6	0	SINK	1309	n/a	n/a	1	n/a	0	0	0	0.422607421875	0.5869140625	0	upper	zerothre.ttf
1590.37	n/a	WORD	795185	wordpools/wasnorm_wordpool_less_exclusions.txt	LTP271	ltpFR	15	6	0	REEF	1177	n/a	n/a	1	n/a	0	0	0	0.422607421875	0.5869140625	0	upper	zerothre.ttf
1594.314	n/a	WORD	797157	wordpools/wasnorm_wordpool_less_exclusions.txt	LTP271	ltpFR	15	6	1	LIME	823	n/a	n/a	1	n/a	0	0	0	0.57763671875	0.412841796875	1	lower	amplitud.ttf
1598.158	n/a	WORD	799079	wordpools/wasnorm_wordpool_less_exclusions.txt	LTP271	ltpFR	15	6	1	BLUEJAY	141	n/a	n/a	1	n/a	0	0	0	0.57763671875	0.412841796875	1	lower	amplitud.ttf
1602.202	n/a	WORD	801101	wordpools/wasnorm_wordpool_less_exclusions.txt	LTP271	ltpFR	15	6	0	SKYSCRAPER	1322	n/a	n/a	1	n/a	0	0	0	0.422607421875	0.5869140625	0	upper	zerothre.ttf
1606.262	n/a	WORD	803131	wordpools/wasnorm_wordpool_less_exclusions.txt	LTP271	ltpFR	15	6	0	LAGOON	795	n/a	n/a	1	n/a	0	0	0	0.422607421875	0.5869140625	0	upper	zerothre.ttf
1610.124	n/a	WORD	805062	wordpools/wasnorm_wordpool_less_exclusions.txt	LTP271	ltpFR	15	6	1	CANAL	226	n/a	n/a	0	n/a	0	0	0	0.57763671875	0.412841796875	1	lower	amplitud.ttf
1614.236	n/a	WORD	807118	wordpools/wasnorm_wordpool_less_exclusions.txt	LTP271	ltpFR	15	6	1	FORT	595	n/a	n/a	0	n/a	0	0	0	0.57763671875	0.412841796875	1	lower	amplitud.ttf
1618.43	n/a	WORD	809215	wordpools/wasnorm_wordpool_less_exclusions.txt	LTP271	ltpFR	15	6	1	COUNTRY	388	n/a	n/a	0	n/a	0	0	0	0.57763671875	0.412841796875	1	lower	amplitud.ttf
1622.574	n/a	WORD	811287	wordpools/wasnorm_wordpool_less_exclusions.txt	LTP271	ltpFR	15	6	1	MILITARY	894	n/a	n/a	0	n/a	0	0	0	0.57763671875	0.412841796875	1	lower	amplitud.ttf
1625.586	n/a	START	812793	n/a	LTP271	ltpFR	15	n/a	n/a	n/a	n/a	n/a	n/a	n/a	n/a	n/a	n/a	n/a	n/a	n/a	n/a	n/a	n/a
1626.682	n/a	PROB	813341	n/a	LTP271	ltpFR	15	n/a	n/a	n/a	n/a	n/a	n/a	n/a	11	9	1	1	n/a	n/a	n/a	n/a	n/a
1628.282	n/a	PROB	814141	n/a	LTP271	ltpFR	15	n/a	n/a	n/a	n/a	n/a	n/a	n/a	13	1	6	6	n/a	n/a	n/a	n/a	n/a
1629.546	n/a	PROB	814773	n/a	LTP271	ltpFR	15	n/a	n/a	n/a	n/a	n/a	n/a	n/a	9	1	6	2	n/a	n/a	n/a	n/a	n/a
1631.21	n/a	PROB	815605	n/a	LTP271	ltpFR	15	n/a	n/a	n/a	n/a	n/a	n/a	n/a	15	3	4	8	n/a	n/a	n/a	n/a	n/a
1633.14	n/a	PROB	816570	n/a	LTP271	ltpFR	15	n/a	n/a	n/a	n/a	n/a	n/a	n/a	12	6	1	5	n/a	n/a	n/a	n/a	n/a
1634.638	n/a	PROB	817319	n/a	LTP271	ltpFR	15	n/a	n/a	n/a	n/a	n/a	n/a	n/a	11	7	2	2	n/a	n/a	n/a	n/a	n/a
1635.886	n/a	PROB	817943	n/a	LTP271	ltpFR	15	n/a	n/a	n/a	n/a	n/a	n/a	n/a	11	1	1	9	n/a	n/a	n/a	n/a	n/a
1637.052	n/a	PROB	818526	n/a	LTP271	ltpFR	15	n/a	n/a	n/a	n/a	n/a	n/a	n/a	12	6	5	1	n/a	n/a	n/a	n/a	n/a
1639.132	n/a	PROB	819566	n/a	LTP271	ltpFR	15	n/a	n/a	n/a	n/a	n/a	n/a	n/a	16	4	6	6	n/a	n/a	n/a	n/a	n/a
1640.526	n/a	STOP	820263	n/a	LTP271	ltpFR	15	n/a	n/a	n/a	n/a	n/a	n/a	n/a	n/a	n/a	n/a	n/a	n/a	n/a	n/a	n/a	n/a
1643.526	n/a	REC_START	821763	n/a	LTP271	ltpFR	15	6	n/a	n/a	n/a	n/a	n/a	n/a	n/a	0	0	0	n/a	n/a	n/a	n/a	n/a
1647.26	n/a	REC_WORD	823630	wordpools/wasnorm_wordpool_less_exclusions.txt	LTP271	ltpFR	15	6	0	MARINE	869	n/a	n/a	1	n/a	0	0	0	n/a	n/a	n/a	n/a	n/a
1719.13	n/a	REST_REWET	859565	n/a	LTP271	ltpFR	15	6	n/a	n/a	n/a	n/a	n/a	n/a	n/a	0	0	0	n/a	n/a	n/a	n/a	n/a
2254.204	n/a	WORD	1127102	wordpools/wasnorm_wordpool_less_exclusions.txt	LTP271	ltpFR	15	7	1	YARD	1630	n/a	n/a	0	n/a	0	0	0	0.57763671875	0.412841796875	1	lower	amplitud.ttf
2258.248	n/a	WORD	1129124	wordpools/wasnorm_wordpool_less_exclusions.txt	LTP271	ltpFR	15	7	1	PEDAL	1037	n/a	n/a	0	n/a	0	0	0	0.57763671875	0.412841796875	1	lower	amplitud.ttf
2262.176	n/a	WORD	1131088	wordpools/wasnorm_wordpool_less_exclusions.txt	LTP271	ltpFR	15	7	1	FRIES	607	n/a	n/a	0	n/a	0	0	0	0.57763671875	0.412841796875	1	lower	amplitud.ttf
2266.17	n/a	WORD	1133085	wordpools/wasnorm_wordpool_less_exclusions.txt	LTP271	ltpFR	15	7	1	BISCUIT	130	n/a	n/a	0	n/a	0	0	0	0.57763671875	0.412841796875	1	lower	amplitud.ttf
2270.364	n/a	WORD	1135182	wordpools/wasnorm_wordpool_less_exclusions.txt	LTP271	ltpFR	15	7	1	JOKER	759	n/a	n/a	1	n/a	0	0	0	0.57763671875	0.412841796875	1	lower	amplitud.ttf
2274.342	n/a	WORD	1137171	wordpools/wasnorm_wordpool_less_exclusions.txt	LTP271	ltpFR	15	7	1	PUDDLE	1140	n/a	n/a	0	n/a	0	0	0	0.57763671875	0.412841796875	1	lower	amplitud.ttf
2278.186	n/a	WORD	1139093	wordpools/wasnorm_wordpool_less_exclusions.txt	LTP271	ltpFR	15	7	1	PIPE	1073	n/a	n/a	0	n/a	0	0	0	0.57763671875	0.412841796875	1	lower	amplitud.ttf
2282.08	n/a	WORD	1141040	wordpools/wasnorm_wordpool_less_exclusions.txt	LTP271	ltpFR	15	7	1	APARTMENT	30	n/a	n/a	0	n/a	0	0	0	0.57763671875	0.412841796875	1	lower	amplitud.ttf
2286.008	n/a	WORD	1143004	wordpools/wasnorm_wordpool_less_exclusions.txt	LTP271	ltpFR	15	7	1	HUT	729	n/a	n/a	0	n/a	0	0	0	0.57763671875	0.412841796875	1	lower	amplitud.ttf
2289.952	n/a	WORD	1144976	wordpools/wasnorm_wordpool_less_exclusions.txt	LTP271	ltpFR	15	7	1	JUGGLER	763	n/a	n/a	1	n/a	0	0	0	0.57763671875	0.412841796875	1	lower	amplitud.ttf
2293.83	n/a	WORD	1146915	wordpools/wasnorm_wordpool_less_exclusions.txt	LTP271	ltpFR	15	7	1	FATHER	554	n/a	n/a	1	n/a	0	0	0	0.57763671875	0.412841796875	1	lower	amplitud.ttf
2297.856	n/a	WORD	1148928	wordpools/wasnorm_wordpool_less_exclusions.txt	LTP271	ltpFR	15	7	1	MAYONNAISE	880	n/a	n/a	0	n/a	0	0	0	0.57763671875	0.412841796875	1	lower	amplitud.ttf
2301.7	n/a	WORD	1150850	wordpools/wasnorm_wordpool_less_exclusions.txt	LTP271	ltpFR	15	7	1	VIOLIN	1571	n/a	n/a	0	n/a	0	0	0	0.57763671875	0.412841796875	1	lower	amplitud.ttf
2305.562	n/a	WORD	1152781	wordpools/wasnorm_wordpool_less_exclusions.txt	LTP271	ltpFR	15	7	1	PIANO	1057	n/a	n/a	0	n/a	0	0	0	0.57763671875	0.412841796875	1	lower	amplitud.ttf
2309.406	n/a	WORD	1154703	wordpools/wasnorm_wordpool_less_exclusions.txt	LTP271	ltpFR	15	7	1	GUARDIAN	668	n/a	n/a	1	n/a	0	0	0	0.57763671875	0.412841796875	1	lower	amplitud.ttf
2313.434	n/a	WORD	1156717	wordpools/wasnorm_wordpool_less_exclusions.txt	LTP271	ltpFR	15	7	1	CHIEF	298	n/a	n/a	1	n/a	0	0	0	0.57763671875	0.412841796875	1	lower	amplitud.ttf
2318.992	n/a	REC_START	1159496	n/a	LTP271	ltpFR	15	7	n/a	n/a	n/a	n/a	n/a	n/a	n/a	0	0	0	n/a	n/a	n/a	n/a	n/a
2320.664	n/a	REC_WORD	1160332	wordpools/wasnorm_wordpool_less_exclusions.txt	LTP271	ltpFR	15	7	1	CHIEF	298	n/a	n/a	1	n/a	0	0	0	n/a	n/a	n/a	n/a	n/a
2321.474	n/a	REC_WORD	1160737	wordpools/wasnorm_wordpool_less_exclusions.txt	LTP271	ltpFR	15	7	1	FATHER	554	n/a	n/a	1	n/a	0	0	0	n/a	n/a	n/a	n/a	n/a
2322.762	n/a	REC_WORD	1161381	wordpools/wasnorm_wordpool_less_exclusions.txt	LTP271	ltpFR	15	7	1	GUARDIAN	668	n/a	n/a	1	n/a	0	0	0	n/a	n/a	n/a	n/a	n/a
2323.884	n/a	REC_WORD	1161942	wordpools/wasnorm_wordpool_less_exclusions.txt	LTP271	ltpFR	15	7	1	JUGGLER	763	n/a	n/a	1	n/a	0	0	0	n/a	n/a	n/a	n/a	n/a
2324.876	n/a	REC_WORD	1162438	wordpools/wasnorm_wordpool_less_exclusions.txt	LTP271	ltpFR	15	7	1	JOKER	759	n/a	n/a	1	n/a	0	0	0	n/a	n/a	n/a	n/a	n/a
2326.626	n/a	REC_WORD	1163313	wordpools/wasnorm_wordpool_less_exclusions.txt	LTP271	ltpFR	15	7	1	VIOLIN	1571	n/a	n/a	0	n/a	0	0	0	n/a	n/a	n/a	n/a	n/a
2327.56	n/a	REC_WORD	1163780	wordpools/wasnorm_wordpool_less_exclusions.txt	LTP271	ltpFR	15	7	1	PIANO	1057	n/a	n/a	0	n/a	0	0	0	n/a	n/a	n/a	n/a	n/a
2330.002	n/a	REC_WORD	1165001	wordpools/wasnorm_wordpool_less_exclusions.txt	LTP271	ltpFR	15	7	1	YARD	1630	n/a	n/a	0	n/a	0	0	0	n/a	n/a	n/a	n/a	n/a
2331.606	n/a	REC_WORD	1165803	wordpools/wasnorm_wordpool_less_exclusions.txt	LTP271	ltpFR	15	7	1	PEDAL	1037	n/a	n/a	0	n/a	0	0	0	n/a	n/a	n/a	n/a	n/a
2332.598	n/a	REC_WORD	1166299	wordpools/wasnorm_wordpool_less_exclusions.txt	LTP271	ltpFR	15	7	1	PIPE	1073	n/a	n/a	0	n/a	0	0	0	n/a	n/a	n/a	n/a	n/a
2335.29	n/a	REC_WORD	1167645	wordpools/wasnorm_wordpool_less_exclusions.txt	LTP271	ltpFR	15	7	1	BISCUIT	130	n/a	n/a	0	n/a	0	0	0	n/a	n/a	n/a	n/a	n/a
2336.218	n/a	REC_WORD	1168109	wordpools/wasnorm_wordpool_less_exclusions.txt	LTP271	ltpFR	15	7	1	FRIES	607	n/a	n/a	0	n/a	0	0	0	n/a	n/a	n/a	n/a	n/a
2397.26	n/a	START	1198630	n/a	LTP271	ltpFR	15	n/a	n/a	n/a	n/a	n/a	n/a	n/a	n/a	n/a	n/a	n/a	n/a	n/a	n/a	n/a	n/a
2398.774	n/a	PROB	1199387	n/a	LTP271	ltpFR	15	n/a	n/a	n/a	n/a	n/a	n/a	n/a	21	8	7	6	n/a	n/a	n/a	n/a	n/a
2402.102	n/a	PROB	1201051	n/a	LTP271	ltpFR	15	n/a	n/a	n/a	n/a	n/a	n/a	n/a	17	9	5	3	n/a	n/a	n/a	n/a	n/a
2403.75	n/a	PROB	1201875	n/a	LTP271	ltpFR	15	n/a	n/a	n/a	n/a	n/a	n/a	n/a	15	1	6	8	n/a	n/a	n/a	n/a	n/a
2405.364	n/a	PROB	1202682	n/a	LTP271	ltpFR	15	n/a	n/a	n/a	n/a	n/a	n/a	n/a	13	5	1	7	n/a	n/a	n/a	n/a	n/a
2406.896	n/a	PROB	1203448	n/a	LTP271	ltpFR	15	n/a	n/a	n/a	n/a	n/a	n/a	n/a	16	9	4	3	n/a	n/a	n/a	n/a	n/a
2408.908	n/a	PROB	1204454	n/a	LTP271	ltpFR	15	n/a	n/a	n/a	n/a	n/a	n/a	n/a	12	7	1	4	n/a	n/a	n/a	n/a	n/a
2410.556	n/a	PROB	1205278	n/a	LTP271	ltpFR	15	n/a	n/a	n/a	n/a	n/a	n/a	n/a	24	9	7	8	n/a	n/a	n/a	n/a	n/a
2412.608	n/a	STOP	1206304	n/a	LTP271	ltpFR	15	n/a	n/a	n/a	n/a	n/a	n/a	n/a	n/a	n/a	n/a	n/a	n/a	n/a	n/a	n/a	n/a
2414.134	n/a	WORD	1207067	wordpools/wasnorm_wordpool_less_exclusions.txt	LTP271	ltpFR	15	8	0	TUBE	1516	n/a	n/a	0	n/a	0	0	0	0.422607421875	0.5869140625	0	upper	zerothre.ttf
2417.146	n/a	START	1208573	n/a	LTP271	ltpFR	15	n/a	n/a	n/a	n/a	n/a	n/a	n/a	n/a	n/a	n/a	n/a	n/a	n/a	n/a	n/a	n/a
2418.296	n/a	PROB	1209148	n/a	LTP271	ltpFR	15	n/a	n/a	n/a	n/a	n/a	n/a	n/a	17	8	1	8	n/a	n/a	n/a	n/a	n/a
2420.576	n/a	PROB	1210288	n/a	LTP271	ltpFR	15	n/a	n/a	n/a	n/a	n/a	n/a	n/a	12	2	8	2	n/a	n/a	n/a	n/a	n/a
2421.874	n/a	PROB	1210937	n/a	LTP271	ltpFR	15	n/a	n/a	n/a	n/a	n/a	n/a	n/a	19	6	5	8	n/a	n/a	n/a	n/a	n/a
2423.338	n/a	PROB	1211669	n/a	LTP271	ltpFR	15	n/a	n/a	n/a	n/a	n/a	n/a	n/a	17	4	8	5	n/a	n/a	n/a	n/a	n/a
2424.836	n/a	PROB	1212418	n/a	LTP271	ltpFR	15	n/a	n/a	n/a	n/a	n/a	n/a	n/a	15	4	2	9	n/a	n/a	n/a	n/a	n/a
2426.284	n/a	PROB	1213142	n/a	LTP271	ltpFR	15	n/a	n/a	n/a	n/a	n/a	n/a	n/a	18	4	5	9	n/a	n/a	n/a	n/a	n/a
2427.616	n/a	PROB	1213808	n/a	LTP271	ltpFR	15	n/a	n/a	n/a	n/a	n/a	n/a	n/a	13	2	5	6	n/a	n/a	n/a	n/a	n/a
2429.846	n/a	PROB	1214923	n/a	LTP271	ltpFR	15	n/a	n/a	n/a	n/a	n/a	n/a	n/a	21	6	1	4	n/a	n/a	n/a	n/a	n/a
2431.888	n/a	STOP	1215944	n/a	LTP271	ltpFR	15	n/a	n/a	n/a	n/a	n/a	n/a	n/a	n/a	n/a	n/a	n/a	n/a	n/a	n/a	n/a	n/a
2434.038	n/a	WORD	1217019	wordpools/wasnorm_wordpool_less_exclusions.txt	LTP271	ltpFR	15	8	0	SHOWER	1296	n/a	n/a	0	n/a	0	0	0	0.422607421875	0.5869140625	0	upper	zerothre.ttf
2437.052	n/a	START	1218526	n/a	LTP271	ltpFR	15	n/a	n/a	n/a	n/a	n/a	n/a	n/a	n/a	n/a	n/a	n/a	n/a	n/a	n/a	n/a	n/a
2437.866	n/a	PROB	1218933	n/a	LTP271	ltpFR	15	n/a	n/a	n/a	n/a	n/a	n/a	n/a	15	3	8	2	n/a	n/a	n/a	n/a	n/a
2439.214	n/a	PROB	1219607	n/a	LTP271	ltpFR	15	n/a	n/a	n/a	n/a	n/a	n/a	n/a	15	6	2	7	n/a	n/a	n/a	n/a	n/a
2441.644	n/a	PROB	1220822	n/a	LTP271	ltpFR	15	n/a	n/a	n/a	n/a	n/a	n/a	n/a	14	9	2	3	n/a	n/a	n/a	n/a	n/a
2443.276	n/a	PROB	1221638	n/a	LTP271	ltpFR	15	n/a	n/a	n/a	n/a	n/a	n/a	n/a	10	1	1	8	n/a	n/a	n/a	n/a	n/a
2444.524	n/a	PROB	1222262	n/a	LTP271	ltpFR	15	n/a	n/a	n/a	n/a	n/a	n/a	n/a	13	8	4	1	n/a	n/a	n/a	n/a	n/a
2446.138	n/a	PROB	1223069	n/a	LTP271	ltpFR	15	n/a	n/a	n/a	n/a	n/a	n/a	n/a	10	6	3	1	n/a	n/a	n/a	n/a	n/a
2447.486	n/a	PROB	1223743	n/a	LTP271	ltpFR	15	n/a	n/a	n/a	n/a	n/a	n/a	n/a	18	5	4	9	n/a	n/a	n/a	n/a	n/a
2449.166	n/a	PROB	1224583	n/a	LTP271	ltpFR	15	n/a	n/a	n/a	n/a	n/a	n/a	n/a	19	7	5	6	n/a	n/a	n/a	n/a	n/a
2453.048	n/a	STOP	1226524	n/a	LTP271	ltpFR	15	n/a	n/a	n/a	n/a	n/a	n/a	n/a	n/a	n/a	n/a	n/a	n/a	n/a	n/a	n/a	n/a
2453.892	n/a	WORD	1226946	wordpools/wasnorm_wordpool_less_exclusions.txt	LTP271	ltpFR	15	8	0	BLACKBOARD	133	n/a	n/a	1	n/a	0	0	0	0.422607421875	0.5869140625	0	upper	zerothre.ttf
2456.906	n/a	START	1228453	n/a	LTP271	ltpFR	15	n/a	n/a	n/a	n/a	n/a	n/a	n/a	n/a	n/a	n/a	n/a	n/a	n/a	n/a	n/a	n/a
2458.02	n/a	PROB	1229010	n/a	LTP271	ltpFR	15	n/a	n/a	n/a	n/a	n/a	n/a	n/a	16	2	8	6	n/a	n/a	n/a	n/a	n/a
2459.252	n/a	PROB	1229626	n/a	LTP271	ltpFR	15	n/a	n/a	n/a	n/a	n/a	n/a	n/a	16	4	9	3	n/a	n/a	n/a	n/a	n/a
2460.75	n/a	PROB	1230375	n/a	LTP271	ltpFR	15	n/a	n/a	n/a	n/a	n/a	n/a	n/a	8	6	1	1	n/a	n/a	n/a	n/a	n/a
2461.848	n/a	PROB	1230924	n/a	LTP271	ltpFR	15	n/a	n/a	n/a	n/a	n/a	n/a	n/a	16	2	5	9	n/a	n/a	n/a	n/a	n/a
2463.678	n/a	PROB	1231839	n/a	LTP271	ltpFR	15	n/a	n/a	n/a	n/a	n/a	n/a	n/a	19	7	6	6	n/a	n/a	n/a	n/a	n/a
2465.658	n/a	PROB	1232829	n/a	LTP271	ltpFR	15	n/a	n/a	n/a	n/a	n/a	n/a	n/a	24	7	8	9	n/a	n/a	n/a	n/a	n/a
2467.156	n/a	PROB	1233578	n/a	LTP271	ltpFR	15	n/a	n/a	n/a	n/a	n/a	n/a	n/a	10	5	2	3	n/a	n/a	n/a	n/a	n/a
2469.036	n/a	PROB	1234518	n/a	LTP271	ltpFR	15	n/a	n/a	n/a	n/a	n/a	n/a	n/a	8	3	4	1	n/a	n/a	n/a	n/a	n/a
2472.192	n/a	STOP	1236096	n/a	LTP271	ltpFR	15	n/a	n/a	n/a	n/a	n/a	n/a	n/a	n/a	n/a	n/a	n/a	n/a	n/a	n/a	n/a	n/a
2474.096	n/a	WORD	1237048	wordpools/wasnorm_wordpool_less_exclusions.txt	LTP271	ltpFR	15	8	0	DAM	436	n/a	n/a	1	n/a	0	0	0	0.422607421875	0.5869140625	0	upper	zerothre.ttf
2477.108	n/a	START	1238554	n/a	LTP271	ltpFR	15	n/a	n/a	n/a	n/a	n/a	n/a	n/a	n/a	n/a	n/a	n/a	n/a	n/a	n/a	n/a	n/a
2477.956	n/a	PROB	1238978	n/a	LTP271	ltpFR	15	n/a	n/a	n/a	n/a	n/a	n/a	n/a	11	1	8	2	n/a	n/a	n/a	n/a	n/a
2479.67	n/a	PROB	1239835	n/a	LTP271	ltpFR	15	n/a	n/a	n/a	n/a	n/a	n/a	n/a	18	3	7	8	n/a	n/a	n/a	n/a	n/a
2481.068	n/a	PROB	1240534	n/a	LTP271	ltpFR	15	n/a	n/a	n/a	n/a	n/a	n/a	n/a	22	8	8	6	n/a	n/a	n/a	n/a	n/a
2483.05	n/a	PROB	1241525	n/a	LTP271	ltpFR	15	n/a	n/a	n/a	n/a	n/a	n/a	n/a	23	9	7	7	n/a	n/a	n/a	n/a	n/a
2485.046	n/a	PROB	1242523	n/a	LTP271	ltpFR	15	n/a	n/a	n/a	n/a	n/a	n/a	n/a	9	2	3	4	n/a	n/a	n/a	n/a	n/a
2486.428	n/a	PROB	1243214	n/a	LTP271	ltpFR	15	n/a	n/a	n/a	n/a	n/a	n/a	n/a	2	9	5	8	n/a	n/a	n/a	n/a	n/a
2488.408	n/a	PROB	1244204	n/a	LTP271	ltpFR	15	n/a	n/a	n/a	n/a	n/a	n/a	n/a	17	2	9	6	n/a	n/a	n/a	n/a	n/a
2490.77	n/a	PROB	1245385	n/a	LTP271	ltpFR	15	n/a	n/a	n/a	n/a	n/a	n/a	n/a	8	1	4	3	n/a	n/a	n/a	n/a	n/a
2492.162	n/a	STOP	1246081	n/a	LTP271	ltpFR	15	n/a	n/a	n/a	n/a	n/a	n/a	n/a	n/a	n/a	n/a	n/a	n/a	n/a	n/a	n/a	n/a
2494.134	n/a	WORD	1247067	wordpools/wasnorm_wordpool_less_exclusions.txt	LTP271	ltpFR	15	8	0	TORCH	1484	n/a	n/a	1	n/a	0	0	0	0.422607421875	0.5869140625	0	upper	zerothre.ttf
2497.146	n/a	START	1248573	n/a	LTP271	ltpFR	15	n/a	n/a	n/a	n/a	n/a	n/a	n/a	n/a	n/a	n/a	n/a	n/a	n/a	n/a	n/a	n/a
2498.078	n/a	PROB	1249039	n/a	LTP271	ltpFR	15	n/a	n/a	n/a	n/a	n/a	n/a	n/a	17	6	9	2	n/a	n/a	n/a	n/a	n/a
2499.958	n/a	PROB	1249979	n/a	LTP271	ltpFR	15	n/a	n/a	n/a	n/a	n/a	n/a	n/a	11	3	3	5	n/a	n/a	n/a	n/a	n/a
2501.256	n/a	PROB	1250628	n/a	LTP271	ltpFR	15	n/a	n/a	n/a	n/a	n/a	n/a	n/a	17	8	2	7	n/a	n/a	n/a	n/a	n/a
2502.522	n/a	PROB	1251261	n/a	LTP271	ltpFR	15	n/a	n/a	n/a	n/a	n/a	n/a	n/a	18	9	5	4	n/a	n/a	n/a	n/a	n/a
2503.968	n/a	PROB	1251984	n/a	LTP271	ltpFR	15	n/a	n/a	n/a	n/a	n/a	n/a	n/a	11	1	9	1	n/a	n/a	n/a	n/a	n/a
2505.316	n/a	PROB	1252658	n/a	LTP271	ltpFR	15	n/a	n/a	n/a	n/a	n/a	n/a	n/a	14	7	4	3	n/a	n/a	n/a	n/a	n/a
2507.348	n/a	PROB	1253674	n/a	LTP271	ltpFR	15	n/a	n/a	n/a	n/a	n/a	n/a	n/a	9	1	4	4	n/a	n/a	n/a	n/a	n/a
2508.894	n/a	PROB	1254447	n/a	LTP271	ltpFR	15	n/a	n/a	n/a	n/a	n/a	n/a	n/a	13	5	3	5	n/a	n/a	n/a	n/a	n/a
2510.36	n/a	PROB	1255180	n/a	LTP271	ltpFR	15	n/a	n/a	n/a	n/a	n/a	n/a	n/a	18	3	8	7	n/a	n/a	n/a	n/a	n/a
2512.386	n/a	STOP	1256193	n/a	LTP271	ltpFR	15	n/a	n/a	n/a	n/a	n/a	n/a	n/a	n/a	n/a	n/a	n/a	n/a	n/a	n/a	n/a	n/a
2514.136	n/a	WORD	1257068	wordpools/wasnorm_wordpool_less_exclusions.txt	LTP271	ltpFR	15	8	0	BRACELET	163	n/a	n/a	0	n/a	0	0	0	0.422607421875	0.5869140625	0	upper	zerothre.ttf
2517.15	n/a	START	1258575	n/a	LTP271	ltpFR	15	n/a	n/a	n/a	n/a	n/a	n/a	n/a	n/a	n/a	n/a	n/a	n/a	n/a	n/a	n/a	n/a
2518.164	n/a	PROB	1259082	n/a	LTP271	ltpFR	15	n/a	n/a	n/a	n/a	n/a	n/a	n/a	15	8	1	6	n/a	n/a	n/a	n/a	n/a
2519.828	n/a	PROB	1259914	n/a	LTP271	ltpFR	15	n/a	n/a	n/a	n/a	n/a	n/a	n/a	17	7	3	7	n/a	n/a	n/a	n/a	n/a
2521.692	n/a	PROB	1260846	n/a	LTP271	ltpFR	15	n/a	n/a	n/a	n/a	n/a	n/a	n/a	3	1	1	1	n/a	n/a	n/a	n/a	n/a
2522.758	n/a	PROB	1261379	n/a	LTP271	ltpFR	15	n/a	n/a	n/a	n/a	n/a	n/a	n/a	13	1	6	6	n/a	n/a	n/a	n/a	n/a
2524.106	n/a	PROB	1262053	n/a	LTP271	ltpFR	15	n/a	n/a	n/a	n/a	n/a	n/a	n/a	13	6	2	5	n/a	n/a	n/a	n/a	n/a
2525.52	n/a	PROB	1262760	n/a	LTP271	ltpFR	15	n/a	n/a	n/a	n/a	n/a	n/a	n/a	21	9	6	6	n/a	n/a	n/a	n/a	n/a
2527.5	n/a	PROB	1263750	n/a	LTP271	ltpFR	15	n/a	n/a	n/a	n/a	n/a	n/a	n/a	17	9	6	2	n/a	n/a	n/a	n/a	n/a
2529.214	n/a	PROB	1264607	n/a	LTP271	ltpFR	15	n/a	n/a	n/a	n/a	n/a	n/a	n/a	13	6	6	1	n/a	n/a	n/a	n/a	n/a
2530.43	n/a	PROB	1265215	n/a	LTP271	ltpFR	15	n/a	n/a	n/a	n/a	n/a	n/a	n/a	12	2	7	3	n/a	n/a	n/a	n/a	n/a
2531.618	n/a	STOP	1265809	n/a	LTP271	ltpFR	15	n/a	n/a	n/a	n/a	n/a	n/a	n/a	n/a	n/a	n/a	n/a	n/a	n/a	n/a	n/a	n/a
2534.324	n/a	WORD	1267162	wordpools/wasnorm_wordpool_less_exclusions.txt	LTP271	ltpFR	15	8	0	MARGARINE	868	n/a	n/a	0	n/a	0	0	0	0.422607421875	0.5869140625	0	upper	zerothre.ttf
2537.336	n/a	START	1268668	n/a	LTP271	ltpFR	15	n/a	n/a	n/a	n/a	n/a	n/a	n/a	n/a	n/a	n/a	n/a	n/a	n/a	n/a	n/a	n/a
2538.368	n/a	PROB	1269184	n/a	LTP271	ltpFR	15	n/a	n/a	n/a	n/a	n/a	n/a	n/a	8	4	1	3	n/a	n/a	n/a	n/a	n/a
2539.882	n/a	PROB	1269941	n/a	LTP271	ltpFR	15	n/a	n/a	n/a	n/a	n/a	n/a	n/a	20	5	6	9	n/a	n/a	n/a	n/a	n/a
2541.644	n/a	PROB	1270822	n/a	LTP271	ltpFR	15	n/a	n/a	n/a	n/a	n/a	n/a	n/a	20	5	8	7	n/a	n/a	n/a	n/a	n/a
2543.21	n/a	PROB	1271605	n/a	LTP271	ltpFR	15	n/a	n/a	n/a	n/a	n/a	n/a	n/a	6	2	1	3	n/a	n/a	n/a	n/a	n/a
2544.376	n/a	PROB	1272188	n/a	LTP271	ltpFR	15	n/a	n/a	n/a	n/a	n/a	n/a	n/a	15	6	4	5	n/a	n/a	n/a	n/a	n/a
2545.856	n/a	PROB	1272928	n/a	LTP271	ltpFR	15	n/a	n/a	n/a	n/a	n/a	n/a	n/a	19	9	8	2	n/a	n/a	n/a	n/a	n/a
2547.42	n/a	PROB	1273710	n/a	LTP271	ltpFR	15	n/a	n/a	n/a	n/a	n/a	n/a	n/a	15	8	3	4	n/a	n/a	n/a	n/a	n/a
2549.002	n/a	PROB	1274501	n/a	LTP271	ltpFR	15	n/a	n/a	n/a	n/a	n/a	n/a	n/a	21	6	9	6	n/a	n/a	n/a	n/a	n/a
2550.516	n/a	PROB	1275258	n/a	LTP271	ltpFR	15	n/a	n/a	n/a	n/a	n/a	n/a	n/a	10	3	4	3	n/a	n/a	n/a	n/a	n/a
2551.858	n/a	STOP	1275929	n/a	LTP271	ltpFR	15	n/a	n/a	n/a	n/a	n/a	n/a	n/a	n/a	n/a	n/a	n/a	n/a	n/a	n/a	n/a	n/a
2554.344	n/a	WORD	1277172	wordpools/wasnorm_wordpool_less_exclusions.txt	LTP271	ltpFR	15	8	0	POPCORN	1104	n/a	n/a	0	n/a	0	0	0	0.422607421875	0.5869140625	0	upper	zerothre.ttf
2557.356	n/a	START	1278678	n/a	LTP271	ltpFR	15	n/a	n/a	n/a	n/a	n/a	n/a	n/a	n/a	n/a	n/a	n/a	n/a	n/a	n/a	n/a	n/a
2558.238	n/a	PROB	1279119	n/a	LTP271	ltpFR	15	n/a	n/a	n/a	n/a	n/a	n/a	n/a	17	8	8	1	n/a	n/a	n/a	n/a	n/a
2559.586	n/a	PROB	1279793	n/a	LTP271	ltpFR	15	n/a	n/a	n/a	n/a	n/a	n/a	n/a	23	7	9	7	n/a	n/a	n/a	n/a	n/a
2561.5	n/a	PROB	1280750	n/a	LTP271	ltpFR	15	n/a	n/a	n/a	n/a	n/a	n/a	n/a	10	2	1	7	n/a	n/a	n/a	n/a	n/a
2562.88	n/a	PROB	1281440	n/a	LTP271	ltpFR	15	n/a	n/a	n/a	n/a	n/a	n/a	n/a	17	6	4	7	n/a	n/a	n/a	n/a	n/a
2564.728	n/a	PROB	1282364	n/a	LTP271	ltpFR	15	n/a	n/a	n/a	n/a	n/a	n/a	n/a	11	3	5	3	n/a	n/a	n/a	n/a	n/a
2566.46	n/a	PROB	1283230	n/a	LTP271	ltpFR	15	n/a	n/a	n/a	n/a	n/a	n/a	n/a	12	5	5	2	n/a	n/a	n/a	n/a	n/a
2567.492	n/a	PROB	1283746	n/a	LTP271	ltpFR	15	n/a	n/a	n/a	n/a	n/a	n/a	n/a	12	1	6	5	n/a	n/a	n/a	n/a	n/a
2568.89	n/a	PROB	1284445	n/a	LTP271	ltpFR	15	n/a	n/a	n/a	n/a	n/a	n/a	n/a	14	4	2	8	n/a	n/a	n/a	n/a	n/a
2570.32	n/a	PROB	1285160	n/a	LTP271	ltpFR	15	n/a	n/a	n/a	n/a	n/a	n/a	n/a	13	2	5	6	n/a	n/a	n/a	n/a	n/a
2571.768	n/a	PROB	1285884	n/a	LTP271	ltpFR	15	n/a	n/a	n/a	n/a	n/a	n/a	n/a	14	8	4	2	n/a	n/a	n/a	n/a	n/a
2573.242	n/a	STOP	1286621	n/a	LTP271	ltpFR	15	n/a	n/a	n/a	n/a	n/a	n/a	n/a	n/a	n/a	n/a	n/a	n/a	n/a	n/a	n/a	n/a
2574.332	n/a	WORD	1287166	wordpools/wasnorm_wordpool_less_exclusions.txt	LTP271	ltpFR	15	8	0	DRINK	498	n/a	n/a	0	n/a	0	0	0	0.422607421875	0.5869140625	0	upper	zerothre.ttf
2577.344	n/a	START	1288672	n/a	LTP271	ltpFR	15	n/a	n/a	n/a	n/a	n/a	n/a	n/a	n/a	n/a	n/a	n/a	n/a	n/a	n/a	n/a	n/a
2578.16	n/a	PROB	1289080	n/a	LTP271	ltpFR	15	n/a	n/a	n/a	n/a	n/a	n/a	n/a	17	7	4	6	n/a	n/a	n/a	n/a	n/a
2579.724	n/a	PROB	1289862	n/a	LTP271	ltpFR	15	n/a	n/a	n/a	n/a	n/a	n/a	n/a	21	9	3	9	n/a	n/a	n/a	n/a	n/a
2581.354	n/a	PROB	1290677	n/a	LTP271	ltpFR	15	n/a	n/a	n/a	n/a	n/a	n/a	n/a	16	8	1	7	n/a	n/a	n/a	n/a	n/a
2582.852	n/a	PROB	1291426	n/a	LTP271	ltpFR	15	n/a	n/a	n/a	n/a	n/a	n/a	n/a	18	9	3	6	n/a	n/a	n/a	n/a	n/a
2584.35	n/a	PROB	1292175	n/a	LTP271	ltpFR	15	n/a	n/a	n/a	n/a	n/a	n/a	n/a	19	1	6	2	n/a	n/a	n/a	n/a	n/a
2586.628	n/a	PROB	1293314	n/a	LTP271	ltpFR	15	n/a	n/a	n/a	n/a	n/a	n/a	n/a	13	3	9	1	n/a	n/a	n/a	n/a	n/a
2588.128	n/a	PROB	1294064	n/a	LTP271	ltpFR	15	n/a	n/a	n/a	n/a	n/a	n/a	n/a	23	8	6	9	n/a	n/a	n/a	n/a	n/a
2590.324	n/a	PROB	1295162	n/a	LTP271	ltpFR	15	n/a	n/a	n/a	n/a	n/a	n/a	n/a	16	9	2	5	n/a	n/a	n/a	n/a	n/a
2591.822	n/a	PROB	1295911	n/a	LTP271	ltpFR	15	n/a	n/a	n/a	n/a	n/a	n/a	n/a	15	6	6	3	n/a	n/a	n/a	n/a	n/a
2593.026	n/a	STOP	1296513	n/a	LTP271	ltpFR	15	n/a	n/a	n/a	n/a	n/a	n/a	n/a	n/a	n/a	n/a	n/a	n/a	n/a	n/a	n/a	n/a
2594.186	n/a	WORD	1297093	wordpools/wasnorm_wordpool_less_exclusions.txt	LTP271	ltpFR	15	8	0	ASSISTANT	48	n/a	n/a	1	n/a	0	0	0	0.422607421875	0.5869140625	0	upper	zerothre.ttf
2597.198	n/a	START	1298599	n/a	LTP271	ltpFR	15	n/a	n/a	n/a	n/a	n/a	n/a	n/a	n/a	n/a	n/a	n/a	n/a	n/a	n/a	n/a	n/a
2598.412	n/a	PROB	1299206	n/a	LTP271	ltpFR	15	n/a	n/a	n/a	n/a	n/a	n/a	n/a	12	1	6	5	n/a	n/a	n/a	n/a	n/a
2599.692	n/a	PROB	1299846	n/a	LTP271	ltpFR	15	n/a	n/a	n/a	n/a	n/a	n/a	n/a	15	2	9	4	n/a	n/a	n/a	n/a	n/a
2601.558	n/a	PROB	1300779	n/a	LTP271	ltpFR	15	n/a	n/a	n/a	n/a	n/a	n/a	n/a	9	3	3	3	n/a	n/a	n/a	n/a	n/a
2603.006	n/a	PROB	1301503	n/a	LTP271	ltpFR	15	n/a	n/a	n/a	n/a	n/a	n/a	n/a	15	8	6	1	n/a	n/a	n/a	n/a	n/a
2604.52	n/a	PROB	1302260	n/a	LTP271	ltpFR	15	n/a	n/a	n/a	n/a	n/a	n/a	n/a	9	2	4	3	n/a	n/a	n/a	n/a	n/a
2606.234	n/a	PROB	1303117	n/a	LTP271	ltpFR	15	n/a	n/a	n/a	n/a	n/a	n/a	n/a	14	1	9	4	n/a	n/a	n/a	n/a	n/a
2607.482	n/a	PROB	1303741	n/a	LTP271	ltpFR	15	n/a	n/a	n/a	n/a	n/a	n/a	n/a	12	4	2	6	n/a	n/a	n/a	n/a	n/a
2608.78	n/a	PROB	1304390	n/a	LTP271	ltpFR	15	n/a	n/a	n/a	n/a	n/a	n/a	n/a	20	6	9	5	n/a	n/a	n/a	n/a	n/a
2610.212	n/a	PROB	1305106	n/a	LTP271	ltpFR	15	n/a	n/a	n/a	n/a	n/a	n/a	n/a	18	7	6	5	n/a	n/a	n/a	n/a	n/a
2611.794	n/a	STOP	1305897	n/a	LTP271	ltpFR	15	n/a	n/a	n/a	n/a	n/a	n/a	n/a	n/a	n/a	n/a	n/a	n/a	n/a	n/a	n/a	n/a
2614.338	n/a	WORD	1307169	wordpools/wasnorm_wordpool_less_exclusions.txt	LTP271	ltpFR	15	8	0	FINGER	567	n/a	n/a	0	n/a	0	0	0	0.422607421875	0.5869140625	0	upper	zerothre.ttf
2617.35	n/a	START	1308675	n/a	LTP271	ltpFR	15	n/a	n/a	n/a	n/a	n/a	n/a	n/a	n/a	n/a	n/a	n/a	n/a	n/a	n/a	n/a	n/a
2618.448	n/a	PROB	1309224	n/a	LTP271	ltpFR	15	n/a	n/a	n/a	n/a	n/a	n/a	n/a	18	9	2	7	n/a	n/a	n/a	n/a	n/a
2620.164	n/a	PROB	1310082	n/a	LTP271	ltpFR	15	n/a	n/a	n/a	n/a	n/a	n/a	n/a	12	6	2	4	n/a	n/a	n/a	n/a	n/a
2621.71	n/a	PROB	1310855	n/a	LTP271	ltpFR	15	n/a	n/a	n/a	n/a	n/a	n/a	n/a	19	5	9	5	n/a	n/a	n/a	n/a	n/a
2623.424	n/a	PROB	1311712	n/a	LTP271	ltpFR	15	n/a	n/a	n/a	n/a	n/a	n/a	n/a	19	3	8	7	n/a	n/a	n/a	n/a	n/a
2625.738	n/a	PROB	1312869	n/a	LTP271	ltpFR	15	n/a	n/a	n/a	n/a	n/a	n/a	n/a	1	8	4	9	n/a	n/a	n/a	n/a	n/a
2627.752	n/a	PROB	1313876	n/a	LTP271	ltpFR	15	n/a	n/a	n/a	n/a	n/a	n/a	n/a	14	2	7	5	n/a	n/a	n/a	n/a	n/a
2629.25	n/a	PROB	1314625	n/a	LTP271	ltpFR	15	n/a	n/a	n/a	n/a	n/a	n/a	n/a	18	6	1	9	n/a	n/a	n/a	n/a	n/a
2631.08	n/a	PROB	1315540	n/a	LTP271	ltpFR	15	n/a	n/a	n/a	n/a	n/a	n/a	n/a	7	3	1	3	n/a	n/a	n/a	n/a	n/a
2632.938	n/a	STOP	1316469	n/a	LTP271	ltpFR	15	n/a	n/a	n/a	n/a	n/a	n/a	n/a	n/a	n/a	n/a	n/a	n/a	n/a	n/a	n/a	n/a
2634.276	n/a	WORD	1317138	wordpools/wasnorm_wordpool_less_exclusions.txt	LTP271	ltpFR	15	8	0	LIMB	822	n/a	n/a	1	n/a	0	0	0	0.422607421875	0.5869140625	0	upper	zerothre.ttf
2637.288	n/a	START	1318644	n/a	LTP271	ltpFR	15	n/a	n/a	n/a	n/a	n/a	n/a	n/a	n/a	n/a	n/a	n/a	n/a	n/a	n/a	n/a	n/a
2638.452	n/a	PROB	1319226	n/a	LTP271	ltpFR	15	n/a	n/a	n/a	n/a	n/a	n/a	n/a	14	7	2	5	n/a	n/a	n/a	n/a	n/a
2639.918	n/a	PROB	1319959	n/a	LTP271	ltpFR	15	n/a	n/a	n/a	n/a	n/a	n/a	n/a	9	4	4	1	n/a	n/a	n/a	n/a	n/a
2641.166	n/a	PROB	1320583	n/a	LTP271	ltpFR	15	n/a	n/a	n/a	n/a	n/a	n/a	n/a	11	6	3	2	n/a	n/a	n/a	n/a	n/a
2642.514	n/a	PROB	1321257	n/a	LTP271	ltpFR	15	n/a	n/a	n/a	n/a	n/a	n/a	n/a	117	7	8	2	n/a	n/a	n/a	n/a	n/a
2644.61	n/a	PROB	1322305	n/a	LTP271	ltpFR	15	n/a	n/a	n/a	n/a	n/a	n/a	n/a	15	1	5	9	n/a	n/a	n/a	n/a	n/a
2646.192	n/a	PROB	1323096	n/a	LTP271	ltpFR	15	n/a	n/a	n/a	n/a	n/a	n/a	n/a	11	1	5	5	n/a	n/a	n/a	n/a	n/a
2647.94	n/a	PROB	1323970	n/a	LTP271	ltpFR	15	n/a	n/a	n/a	n/a	n/a	n/a	n/a	13	6	4	3	n/a	n/a	n/a	n/a	n/a
2649.12	n/a	PROB	1324560	n/a	LTP271	ltpFR	15	n/a	n/a	n/a	n/a	n/a	n/a	n/a	25	8	8	9	n/a	n/a	n/a	n/a	n/a
2651.518	n/a	PROB	1325759	n/a	LTP271	ltpFR	15	n/a	n/a	n/a	n/a	n/a	n/a	n/a	14	8	2	4	n/a	n/a	n/a	n/a	n/a
2652.58	n/a	STOP	1326290	n/a	LTP271	ltpFR	15	n/a	n/a	n/a	n/a	n/a	n/a	n/a	n/a	n/a	n/a	n/a	n/a	n/a	n/a	n/a	n/a
2654.48	n/a	WORD	1327240	wordpools/wasnorm_wordpool_less_exclusions.txt	LTP271	ltpFR	15	8	0	BIRD	129	n/a	n/a	0	n/a	0	0	0	0.422607421875	0.5869140625	0	upper	zerothre.ttf
2657.492	n/a	START	1328746	n/a	LTP271	ltpFR	15	n/a	n/a	n/a	n/a	n/a	n/a	n/a	n/a	n/a	n/a	n/a	n/a	n/a	n/a	n/a	n/a
2658.356	n/a	PROB	1329178	n/a	LTP271	ltpFR	15	n/a	n/a	n/a	n/a	n/a	n/a	n/a	17	9	5	3	n/a	n/a	n/a	n/a	n/a
2659.888	n/a	PROB	1329944	n/a	LTP271	ltpFR	15	n/a	n/a	n/a	n/a	n/a	n/a	n/a	20	5	9	6	n/a	n/a	n/a	n/a	n/a
2662.134	n/a	PROB	1331067	n/a	LTP271	ltpFR	15	n/a	n/a	n/a	n/a	n/a	n/a	n/a	8	2	3	3	n/a	n/a	n/a	n/a	n/a
2663.582	n/a	PROB	1331791	n/a	LTP271	ltpFR	15	n/a	n/a	n/a	n/a	n/a	n/a	n/a	25	7	9	9	n/a	n/a	n/a	n/a	n/a
2665.712	n/a	PROB	1332856	n/a	LTP271	ltpFR	15	n/a	n/a	n/a	n/a	n/a	n/a	n/a	14	6	3	5	n/a	n/a	n/a	n/a	n/a
2667.144	n/a	PROB	1333572	n/a	LTP271	ltpFR	15	n/a	n/a	n/a	n/a	n/a	n/a	n/a	11	3	2	6	n/a	n/a	n/a	n/a	n/a
2668.542	n/a	PROB	1334271	n/a	LTP271	ltpFR	15	n/a	n/a	n/a	n/a	n/a	n/a	n/a	15	9	5	1	n/a	n/a	n/a	n/a	n/a
2670.456	n/a	PROB	1335228	n/a	LTP271	ltpFR	15	n/a	n/a	n/a	n/a	n/a	n/a	n/a	16	4	4	8	n/a	n/a	n/a	n/a	n/a
2671.996	n/a	STOP	1335998	n/a	LTP271	ltpFR	15	n/a	n/a	n/a	n/a	n/a	n/a	n/a	n/a	n/a	n/a	n/a	n/a	n/a	n/a	n/a	n/a
2674.432	n/a	WORD	1337216	wordpools/wasnorm_wordpool_less_exclusions.txt	LTP271	ltpFR	15	8	0	EAGLE	512	n/a	n/a	1	n/a	0	0	0	0.422607421875	0.5869140625	0	upper	zerothre.ttf
2677.446	n/a	START	1338723	n/a	LTP271	ltpFR	15	n/a	n/a	n/a	n/a	n/a	n/a	n/a	n/a	n/a	n/a	n/a	n/a	n/a	n/a	n/a	n/a
2678.46	n/a	PROB	1339230	n/a	LTP271	ltpFR	15	n/a	n/a	n/a	n/a	n/a	n/a	n/a	18	6	6	4	n/a	n/a	n/a	n/a	n/a
2679.974	n/a	PROB	1339987	n/a	LTP271	ltpFR	15	n/a	n/a	n/a	n/a	n/a	n/a	n/a	22	4	9	8	n/a	n/a	n/a	n/a	n/a
2681.722	n/a	PROB	1340861	n/a	LTP271	ltpFR	15	n/a	n/a	n/a	n/a	n/a	n/a	n/a	21	9	5	8	n/a	n/a	n/a	n/a	n/a
2683.952	n/a	PROB	1341976	n/a	LTP271	ltpFR	15	n/a	n/a	n/a	n/a	n/a	n/a	n/a	9	3	3	3	n/a	n/a	n/a	n/a	n/a
2685.484	n/a	PROB	1342742	n/a	LTP271	ltpFR	15	n/a	n/a	n/a	n/a	n/a	n/a	n/a	19	4	9	6	n/a	n/a	n/a	n/a	n/a
2687.198	n/a	PROB	1343599	n/a	LTP271	ltpFR	15	n/a	n/a	n/a	n/a	n/a	n/a	n/a	11	5	5	1	n/a	n/a	n/a	n/a	n/a
2688.628	n/a	PROB	1344314	n/a	LTP271	ltpFR	15	n/a	n/a	n/a	n/a	n/a	n/a	n/a	18	6	3	9	n/a	n/a	n/a	n/a	n/a
2689.976	n/a	PROB	1344988	n/a	LTP271	ltpFR	15	n/a	n/a	n/a	n/a	n/a	n/a	n/a	7	3	3	1	n/a	n/a	n/a	n/a	n/a
2691.208	n/a	PROB	1345604	n/a	LTP271	ltpFR	15	n/a	n/a	n/a	n/a	n/a	n/a	n/a	13	3	4	6	n/a	n/a	n/a	n/a	n/a
2692.626	n/a	STOP	1346313	n/a	LTP271	ltpFR	15	n/a	n/a	n/a	n/a	n/a	n/a	n/a	n/a	n/a	n/a	n/a	n/a	n/a	n/a	n/a	n/a
2694.652	n/a	WORD	1347326	wordpools/wasnorm_wordpool_less_exclusions.txt	LTP271	ltpFR	15	8	0	CARPENTER	246	n/a	n/a	1	n/a	0	0	0	0.422607421875	0.5869140625	0	upper	zerothre.ttf
2697.664	n/a	START	1348832	n/a	LTP271	ltpFR	15	n/a	n/a	n/a	n/a	n/a	n/a	n/a	n/a	n/a	n/a	n/a	n/a	n/a	n/a	n/a	n/a
2698.48	n/a	PROB	1349240	n/a	LTP271	ltpFR	15	n/a	n/a	n/a	n/a	n/a	n/a	n/a	10	2	4	4	n/a	n/a	n/a	n/a	n/a
2699.778	n/a	PROB	1349889	n/a	LTP271	ltpFR	15	n/a	n/a	n/a	n/a	n/a	n/a	n/a	12	2	7	3	n/a	n/a	n/a	n/a	n/a
2701.11	n/a	PROB	1350555	n/a	LTP271	ltpFR	15	n/a	n/a	n/a	n/a	n/a	n/a	n/a	13	3	4	6	n/a	n/a	n/a	n/a	n/a
2702.558	n/a	PROB	1351279	n/a	LTP271	ltpFR	15	n/a	n/a	n/a	n/a	n/a	n/a	n/a	21	8	9	3	n/a	n/a	n/a	n/a	n/a
2705.554	n/a	PROB	1352777	n/a	LTP271	ltpFR	15	n/a	n/a	n/a	n/a	n/a	n/a	n/a	20	8	5	7	n/a	n/a	n/a	n/a	n/a
2707.334	n/a	PROB	1353667	n/a	LTP271	ltpFR	15	n/a	n/a	n/a	n/a	n/a	n/a	n/a	12	5	6	1	n/a	n/a	n/a	n/a	n/a
2709.014	n/a	PROB	1354507	n/a	LTP271	ltpFR	15	n/a	n/a	n/a	n/a	n/a	n/a	n/a	19	8	7	4	n/a	n/a	n/a	n/a	n/a
2710.962	n/a	PROB	1355481	n/a	LTP271	ltpFR	15	n/a	n/a	n/a	n/a	n/a	n/a	n/a	13	8	3	2	n/a	n/a	n/a	n/a	n/a
2712.34	n/a	STOP	1356170	n/a	LTP271	ltpFR	15	n/a	n/a	n/a	n/a	n/a	n/a	n/a	n/a	n/a	n/a	n/a	n/a	n/a	n/a	n/a	n/a
2714.608	n/a	WORD	1357304	wordpools/wasnorm_wordpool_less_exclusions.txt	LTP271	ltpFR	15	8	0	ERASER	538	n/a	n/a	0	n/a	0	0	0	0.422607421875	0.5869140625	0	upper	zerothre.ttf
2717.62	n/a	START	1358810	n/a	LTP271	ltpFR	15	n/a	n/a	n/a	n/a	n/a	n/a	n/a	n/a	n/a	n/a	n/a	n/a	n/a	n/a	n/a	n/a
2718.568	n/a	PROB	1359284	n/a	LTP271	ltpFR	15	n/a	n/a	n/a	n/a	n/a	n/a	n/a	17	5	5	7	n/a	n/a	n/a	n/a	n/a
2720.05	n/a	PROB	1360025	n/a	LTP271	ltpFR	15	n/a	n/a	n/a	n/a	n/a	n/a	n/a	5	1	2	2	n/a	n/a	n/a	n/a	n/a
2721.248	n/a	PROB	1360624	n/a	LTP271	ltpFR	15	n/a	n/a	n/a	n/a	n/a	n/a	n/a	20	8	6	6	n/a	n/a	n/a	n/a	n/a
2722.878	n/a	PROB	1361439	n/a	LTP271	ltpFR	15	n/a	n/a	n/a	n/a	n/a	n/a	n/a	5	1	3	1	n/a	n/a	n/a	n/a	n/a
2723.994	n/a	PROB	1361997	n/a	LTP271	ltpFR	15	n/a	n/a	n/a	n/a	n/a	n/a	n/a	13	9	4	1	n/a	n/a	n/a	n/a	n/a
2725.574	n/a	PROB	1362787	n/a	LTP271	ltpFR	15	n/a	n/a	n/a	n/a	n/a	n/a	n/a	12	9	2	1	n/a	n/a	n/a	n/a	n/a
2727.488	n/a	PROB	1363744	n/a	LTP271	ltpFR	15	n/a	n/a	n/a	n/a	n/a	n/a	n/a	14	6	7	1	n/a	n/a	n/a	n/a	n/a
2728.952	n/a	PROB	1364476	n/a	LTP271	ltpFR	15	n/a	n/a	n/a	n/a	n/a	n/a	n/a	16	6	8	2	n/a	n/a	n/a	n/a	n/a
2730.334	n/a	PROB	1365167	n/a	LTP271	ltpFR	15	n/a	n/a	n/a	n/a	n/a	n/a	n/a	22	9	4	9	n/a	n/a	n/a	n/a	n/a
2732.268	n/a	STOP	1366134	n/a	LTP271	ltpFR	15	n/a	n/a	n/a	n/a	n/a	n/a	n/a	n/a	n/a	n/a	n/a	n/a	n/a	n/a	n/a	n/a
2735.51	n/a	REC_START	1367755	n/a	LTP271	ltpFR	15	8	n/a	n/a	n/a	n/a	n/a	n/a	n/a	0	0	0	n/a	n/a	n/a	n/a	n/a
2738.392	n/a	REC_WORD	1369196	wordpools/wasnorm_wordpool_less_exclusions.txt	LTP271	ltpFR	15	8	0	BLACKBOARD	133	n/a	n/a	1	n/a	0	0	0	n/a	n/a	n/a	n/a	n/a
2739.632	n/a	REC_WORD	1369816	wordpools/wasnorm_wordpool_less_exclusions.txt	LTP271	ltpFR	15	8	0	ERASER	538	n/a	n/a	0	n/a	0	0	0	n/a	n/a	n/a	n/a	n/a
2741.03	n/a	REC_WORD	1370515	wordpools/wasnorm_wordpool_less_exclusions.txt	LTP271	ltpFR	15	8	0	BIRD	129	n/a	n/a	0	n/a	0	0	0	n/a	n/a	n/a	n/a	n/a
2742.266	n/a	REC_WORD	1371133	wordpools/wasnorm_wordpool_less_exclusions.txt	LTP271	ltpFR	15	8	0	EAGLE	512	n/a	n/a	1	n/a	0	0	0	n/a	n/a	n/a	n/a	n/a
2816.106	n/a	WORD	1408053	wordpools/wasnorm_wordpool_less_exclusions.txt	LTP271	ltpFR	15	9	0	MOUNTAIN	924	n/a	n/a	1	n/a	0	0	0	0.422607421875	0.5869140625	0	upper	zerothre.ttf
2820.184	n/a	WORD	1410092	wordpools/wasnorm_wordpool_less_exclusions.txt	LTP271	ltpFR	15	9	0	MONGOOSE	909	n/a	n/a	1	n/a	0	0	0	0.422607421875	0.5869140625	0	upper	zerothre.ttf
2824.394	n/a	WORD	1412197	wordpools/wasnorm_wordpool_less_exclusions.txt	LTP271	ltpFR	15	9	0	SALIVA	1226	n/a	n/a	0	n/a	0	0	0	0.422607421875	0.5869140625	0	upper	zerothre.ttf
2828.588	n/a	WORD	1414294	wordpools/wasnorm_wordpool_less_exclusions.txt	LTP271	ltpFR	15	9	0	TRIBE	1505	n/a	n/a	1	n/a	0	0	0	0.422607421875	0.5869140625	0	upper	zerothre.ttf
2832.748	n/a	WORD	1416374	wordpools/wasnorm_wordpool_less_exclusions.txt	LTP271	ltpFR	15	9	1	SAILOR	1223	n/a	n/a	1	n/a	0	0	0	0.57763671875	0.412841796875	1	lower	amplitud.ttf
2836.692	n/a	WORD	1418346	wordpools/wasnorm_wordpool_less_exclusions.txt	LTP271	ltpFR	15	9	1	PASTRY	1022	n/a	n/a	0	n/a	0	0	0	0.57763671875	0.412841796875	1	lower	amplitud.ttf
2840.736	n/a	WORD	1420368	wordpools/wasnorm_wordpool_less_exclusions.txt	LTP271	ltpFR	15	9	1	DOUGH	489	n/a	n/a	0	n/a	0	0	0	0.57763671875	0.412841796875	1	lower	amplitud.ttf
2844.664	n/a	WORD	1422332	wordpools/wasnorm_wordpool_less_exclusions.txt	LTP271	ltpFR	15	9	1	COYOTE	396	n/a	n/a	1	n/a	0	0	0	0.57763671875	0.412841796875	1	lower	amplitud.ttf
2848.842	n/a	WORD	1424421	wordpools/wasnorm_wordpool_less_exclusions.txt	LTP271	ltpFR	15	9	1	WAX	1597	n/a	n/a	0	n/a	0	0	0	0.57763671875	0.412841796875	1	lower	amplitud.ttf
2852.886	n/a	WORD	1426443	wordpools/wasnorm_wordpool_less_exclusions.txt	LTP271	ltpFR	15	9	1	COSTUME	383	n/a	n/a	0	n/a	0	0	0	0.57763671875	0.412841796875	1	lower	amplitud.ttf
2857.078	n/a	WORD	1428539	wordpools/wasnorm_wordpool_less_exclusions.txt	LTP271	ltpFR	15	9	0	PLIERS	1089	n/a	n/a	0	n/a	0	0	0	0.422607421875	0.5869140625	0	upper	zerothre.ttf
2860.924	n/a	WORD	1430462	wordpools/wasnorm_wordpool_less_exclusions.txt	LTP271	ltpFR	15	9	0	CHISEL	305	n/a	n/a	0	n/a	0	0	0	0.422607421875	0.5869140625	0	upper	zerothre.ttf
2865.018	n/a	WORD	1432509	wordpools/wasnorm_wordpool_less_exclusions.txt	LTP271	ltpFR	15	9	0	YOLK	1633	n/a	n/a	0	n/a	0	0	0	0.422607421875	0.5869140625	0	upper	zerothre.ttf
2868.878	n/a	WORD	1434439	wordpools/wasnorm_wordpool_less_exclusions.txt	LTP271	ltpFR	15	9	0	ROOST	1208	n/a	n/a	1	n/a	0	0	0	0.422607421875	0.5869140625	0	upper	zerothre.ttf
2872.956	n/a	WORD	1436478	wordpools/wasnorm_wordpool_less_exclusions.txt	LTP271	ltpFR	15	9	1	PIRATE	1074	n/a	n/a	1	n/a	0	0	0	0.57763671875	0.412841796875	1	lower	amplitud.ttf
2876.934	n/a	WORD	1438467	wordpools/wasnorm_wordpool_less_exclusions.txt	LTP271	ltpFR	15	9	1	MASK	876	n/a	n/a	0	n/a	0	0	0	0.57763671875	0.412841796875	1	lower	amplitud.ttf
2879.946	n/a	START	1439973	n/a	LTP271	ltpFR	15	n/a	n/a	n/a	n/a	n/a	n/a	n/a	n/a	n/a	n/a	n/a	n/a	n/a	n/a	n/a	n/a
2881.11	n/a	PROB	1440555	n/a	LTP271	ltpFR	15	n/a	n/a	n/a	n/a	n/a	n/a	n/a	18	9	4	5	n/a	n/a	n/a	n/a	n/a
2883.024	n/a	PROB	1441512	n/a	LTP271	ltpFR	15	n/a	n/a	n/a	n/a	n/a	n/a	n/a	23	9	6	9	n/a	n/a	n/a	n/a	n/a
2885.354	n/a	PROB	1442677	n/a	LTP271	ltpFR	15	n/a	n/a	n/a	n/a	n/a	n/a	n/a	14	9	4	1	n/a	n/a	n/a	n/a	n/a
2886.766	n/a	STOP	1443383	n/a	LTP271	ltpFR	15	n/a	n/a	n/a	n/a	n/a	n/a	n/a	n/a	n/a	n/a	n/a	n/a	n/a	n/a	n/a	n/a
2889.714	n/a	REC_START	1444857	n/a	LTP271	ltpFR	15	9	n/a	n/a	n/a	n/a	n/a	n/a	n/a	0	0	0	n/a	n/a	n/a	n/a	n/a
2892.136	n/a	REC_WORD	1446068	wordpools/wasnorm_wordpool_less_exclusions.txt	LTP271	ltpFR	15	9	1	SAILOR	1223	n/a	n/a	1	n/a	0	0	0	n/a	n/a	n/a	n/a	n/a
2893.754	n/a	REC_WORD	1446877	wordpools/wasnorm_wordpool_less_exclusions.txt	LTP271	ltpFR	15	9	1	PIRATE	1074	n/a	n/a	1	n/a	0	0	0	n/a	n/a	n/a	n/a	n/a
2895.566	n/a	REC_WORD	1447783	wordpools/wasnorm_wordpool_less_exclusions.txt	LTP271	ltpFR	15	9	1	MASK	876	n/a	n/a	0	n/a	0	0	0	n/a	n/a	n/a	n/a	n/a
2898.496	n/a	REC_WORD	1449248	wordpools/wasnorm_wordpool_less_exclusions.txt	LTP271	ltpFR	15	9	0	MOUNTAIN	924	n/a	n/a	1	n/a	0	0	0	n/a	n/a	n/a	n/a	n/a
2899.684	n/a	REC_WORD	1449842	wordpools/wasnorm_wordpool_less_exclusions.txt	LTP271	ltpFR	15	9	0	MONGOOSE	909	n/a	n/a	1	n/a	0	0	0	n/a	n/a	n/a	n/a	n/a
2909.796	n/a	REC_WORD	1454898	wordpools/wasnorm_wordpool_less_exclusions.txt	LTP271	ltpFR	15	9	0	SALIVA	1226	n/a	n/a	0	n/a	0	0	0	n/a	n/a	n/a	n/a	n/a
2968.166	n/a	START	1484083	n/a	LTP271	ltpFR	15	n/a	n/a	n/a	n/a	n/a	n/a	n/a	n/a	n/a	n/a	n/a	n/a	n/a	n/a	n/a	n/a
2969.678	n/a	PROB	1484839	n/a	LTP271	ltpFR	15	n/a	n/a	n/a	n/a	n/a	n/a	n/a	25	9	7	9	n/a	n/a	n/a	n/a	n/a
2971.842	n/a	PROB	1485921	n/a	LTP271	ltpFR	15	n/a	n/a	n/a	n/a	n/a	n/a	n/a	17	5	6	6	n/a	n/a	n/a	n/a	n/a
2973.906	n/a	PROB	1486953	n/a	LTP271	ltpFR	15	n/a	n/a	n/a	n/a	n/a	n/a	n/a	13	7	4	2	n/a	n/a	n/a	n/a	n/a
2975.368	n/a	STOP	1487684	n/a	LTP271	ltpFR	15	n/a	n/a	n/a	n/a	n/a	n/a	n/a	n/a	n/a	n/a	n/a	n/a	n/a	n/a	n/a	n/a
2977.134	n/a	WORD	1488567	wordpools/wasnorm_wordpool_less_exclusions.txt	LTP271	ltpFR	15	10	1	DISH	474	n/a	n/a	0	n/a	0	0	0	0.57763671875	0.412841796875	1	lower	amplitud.ttf
2980.148	n/a	START	1490074	n/a	LTP271	ltpFR	15	n/a	n/a	n/a	n/a	n/a	n/a	n/a	n/a	n/a	n/a	n/a	n/a	n/a	n/a	n/a	n/a
2981.096	n/a	PROB	1490548	n/a	LTP271	ltpFR	15	n/a	n/a	n/a	n/a	n/a	n/a	n/a	11	3	4	4	n/a	n/a	n/a	n/a	n/a
2982.46	n/a	PROB	1491230	n/a	LTP271	ltpFR	15	n/a	n/a	n/a	n/a	n/a	n/a	n/a	11	5	5	1	n/a	n/a	n/a	n/a	n/a
2983.658	n/a	PROB	1491829	n/a	LTP271	ltpFR	15	n/a	n/a	n/a	n/a	n/a	n/a	n/a	18	5	9	4	n/a	n/a	n/a	n/a	n/a
2985.906	n/a	PROB	1492953	n/a	LTP271	ltpFR	15	n/a	n/a	n/a	n/a	n/a	n/a	n/a	16	6	8	2	n/a	n/a	n/a	n/a	n/a
2987.264	n/a	STOP	1493632	n/a	LTP271	ltpFR	15	n/a	n/a	n/a	n/a	n/a	n/a	n/a	n/a	n/a	n/a	n/a	n/a	n/a	n/a	n/a	n/a
2989.25	n/a	WORD	1494625	wordpools/wasnorm_wordpool_less_exclusions.txt	LTP271	ltpFR	15	10	1	TOURIST	1488	n/a	n/a	1	n/a	0	0	0	0.57763671875	0.412841796875	1	lower	amplitud.ttf
2992.262	n/a	START	1496131	n/a	LTP271	ltpFR	15	n/a	n/a	n/a	n/a	n/a	n/a	n/a	n/a	n/a	n/a	n/a	n/a	n/a	n/a	n/a	n/a
2993.278	n/a	PROB	1496639	n/a	LTP271	ltpFR	15	n/a	n/a	n/a	n/a	n/a	n/a	n/a	17	1	9	7	n/a	n/a	n/a	n/a	n/a
2994.542	n/a	PROB	1497271	n/a	LTP271	ltpFR	15	n/a	n/a	n/a	n/a	n/a	n/a	n/a	19	7	5	7	n/a	n/a	n/a	n/a	n/a
2996.14	n/a	PROB	1498070	n/a	LTP271	ltpFR	15	n/a	n/a	n/a	n/a	n/a	n/a	n/a	10	2	3	5	n/a	n/a	n/a	n/a	n/a
2997.388	n/a	PROB	1498694	n/a	LTP271	ltpFR	15	n/a	n/a	n/a	n/a	n/a	n/a	n/a	18	9	4	5	n/a	n/a	n/a	n/a	n/a
2999.432	n/a	STOP	1499716	n/a	LTP271	ltpFR	15	n/a	n/a	n/a	n/a	n/a	n/a	n/a	n/a	n/a	n/a	n/a	n/a	n/a	n/a	n/a	n/a
3001.216	n/a	WORD	1500608	wordpools/wasnorm_wordpool_less_exclusions.txt	LTP271	ltpFR	15	10	1	SALESMAN	1225	n/a	n/a	1	n/a	0	0	0	0.57763671875	0.412841796875	1	lower	amplitud.ttf
3004.228	n/a	START	1502114	n/a	LTP271	ltpFR	15	n/a	n/a	n/a	n/a	n/a	n/a	n/a	n/a	n/a	n/a	n/a	n/a	n/a	n/a	n/a	n/a
3005.226	n/a	PROB	1502613	n/a	LTP271	ltpFR	15	n/a	n/a	n/a	n/a	n/a	n/a	n/a	15	4	5	6	n/a	n/a	n/a	n/a	n/a
