mstime	trial_type	stim_file	subject	experiment	session	trial	task	item_name	item_num	recog_conf	resp	answer	test_x	test_y	test_z	color_b	color_g	color_r	case	font
0	SESS_START	n/a	LTP166	ltpFR	9	n/a	n/a	n/a	n/a	1	n/a	n/a	0	0	0	n/a	n/a	n/a	n/a	n/a
25215	START	n/a	LTP166	ltpFR	9	n/a	n/a	n/a	n/a	n/a	n/a	n/a	n/a	n/a	n/a	n/a	n/a	n/a	n/a	n/a
25248	PROB	n/a	LTP166	ltpFR	9	n/a	n/a	n/a	n/a	n/a	n/a	9	3	2	4	n/a	n/a	n/a	n/a	n/a
27944	PROB	n/a	LTP166	ltpFR	9	n/a	n/a	n/a	n/a	n/a	n/a	17	3	8	6	n/a	n/a	n/a	n/a	n/a
30457	PROB	n/a	LTP166	ltpFR	9	n/a	n/a	n/a	n/a	n/a	n/a	10	3	3	4	n/a	n/a	n/a	n/a	n/a
32738	PROB	n/a	LTP166	ltpFR	9	n/a	n/a	n/a	n/a	n/a	n/a	8	2	4	2	n/a	n/a	n/a	n/a	n/a
34552	PROB	n/a	LTP166	ltpFR	9	n/a	n/a	n/a	n/a	n/a	n/a	17	3	9	5	n/a	n/a	n/a	n/a	n/a
37197	PROB	n/a	LTP166	ltpFR	9	n/a	n/a	n/a	n/a	n/a	n/a	6	1	1	4	n/a	n/a	n/a	n/a	n/a
39859	PROB	n/a	LTP166	ltpFR	9	n/a	n/a	n/a	n/a	n/a	n/a	14	4	7	3	n/a	n/a	n/a	n/a	n/a
41324	PROB	n/a	LTP166	ltpFR	9	n/a	n/a	n/a	n/a	n/a	n/a	9	1	3	5	n/a	n/a	n/a	n/a	n/a
45215	STOP	n/a	LTP166	ltpFR	9	n/a	n/a	n/a	n/a	n/a	n/a	n/a	n/a	n/a	n/a	n/a	n/a	n/a	n/a	n/a
66803	WORD	wordpools/wasnorm_wordpool_less_exclusions.txt	LTP166	ltpFR	9	1	1	BROCCOLI	176	n/a	1	n/a	0	0	0	0	0.5869140625	0.422607421875	upper	../fonts/amplitud.ttf
70814	WORD	wordpools/wasnorm_wordpool_less_exclusions.txt	LTP166	ltpFR	9	1	1	PARSLEY	1016	n/a	1	n/a	0	0	0	0	0.5869140625	0.422607421875	upper	../fonts/amplitud.ttf
74924	WORD	wordpools/wasnorm_wordpool_less_exclusions.txt	LTP166	ltpFR	9	1	1	VEST	1559	n/a	0	n/a	0	0	0	0	0.5869140625	0.422607421875	upper	../fonts/amplitud.ttf
78752	WORD	wordpools/wasnorm_wordpool_less_exclusions.txt	LTP166	ltpFR	9	1	1	OPERATOR	979	n/a	1	n/a	0	0	0	0	0.5869140625	0.422607421875	upper	../fonts/amplitud.ttf
82746	WORD	wordpools/wasnorm_wordpool_less_exclusions.txt	LTP166	ltpFR	9	1	1	WATERFALL	1595	n/a	0	n/a	0	0	0	0	0.5869140625	0.422607421875	upper	../fonts/amplitud.ttf
86856	WORD	wordpools/wasnorm_wordpool_less_exclusions.txt	LTP166	ltpFR	9	1	0	NAVIGATOR	938	n/a	0	n/a	0	0	0	1	0.412841796875	0.57763671875	lower	../fonts/zerothre.ttf
91033	WORD	wordpools/wasnorm_wordpool_less_exclusions.txt	LTP166	ltpFR	9	1	0	MESSAGE	888	n/a	0	n/a	0	0	0	1	0.412841796875	0.57763671875	lower	../fonts/zerothre.ttf
95243	WORD	wordpools/wasnorm_wordpool_less_exclusions.txt	LTP166	ltpFR	9	1	0	BAIT	70	n/a	0	n/a	0	0	0	1	0.412841796875	0.57763671875	lower	../fonts/zerothre.ttf
99470	WORD	wordpools/wasnorm_wordpool_less_exclusions.txt	LTP166	ltpFR	9	1	0	BACON	67	n/a	0	n/a	0	0	0	1	0.412841796875	0.57763671875	lower	../fonts/zerothre.ttf
103431	WORD	wordpools/wasnorm_wordpool_less_exclusions.txt	LTP166	ltpFR	9	1	0	WORLD	1622	n/a	1	n/a	0	0	0	1	0.412841796875	0.57763671875	lower	../fonts/zerothre.ttf
107275	WORD	wordpools/wasnorm_wordpool_less_exclusions.txt	LTP166	ltpFR	9	1	0	JET	756	n/a	1	n/a	0	0	0	1	0.412841796875	0.57763671875	lower	../fonts/zerothre.ttf
111303	WORD	wordpools/wasnorm_wordpool_less_exclusions.txt	LTP166	ltpFR	9	1	1	BUTTERFLY	206	n/a	1	n/a	0	0	0	0	0.5869140625	0.422607421875	upper	../fonts/amplitud.ttf
115330	WORD	wordpools/wasnorm_wordpool_less_exclusions.txt	LTP166	ltpFR	9	1	1	BEETLE	116	n/a	1	n/a	0	0	0	0	0.5869140625	0.422607421875	upper	../fonts/amplitud.ttf
119457	WORD	wordpools/wasnorm_wordpool_less_exclusions.txt	LTP166	ltpFR	9	1	1	CHIP	303	n/a	0	n/a	0	0	0	0	0.5869140625	0.422607421875	upper	../fonts/amplitud.ttf
123501	WORD	wordpools/wasnorm_wordpool_less_exclusions.txt	LTP166	ltpFR	9	1	0	CHEF	290	n/a	1	n/a	0	0	0	1	0.412841796875	0.57763671875	lower	../fonts/zerothre.ttf
127329	WORD	wordpools/wasnorm_wordpool_less_exclusions.txt	LTP166	ltpFR	9	1	0	PIPE	1073	n/a	0	n/a	0	0	0	1	0.412841796875	0.57763671875	lower	../fonts/zerothre.ttf
130341	START	n/a	LTP166	ltpFR	9	n/a	n/a	n/a	n/a	n/a	n/a	n/a	n/a	n/a	n/a	n/a	n/a	n/a	n/a	n/a
131489	PROB	n/a	LTP166	ltpFR	9	n/a	n/a	n/a	n/a	n/a	n/a	16	4	3	9	n/a	n/a	n/a	n/a	n/a
134235	PROB	n/a	LTP166	ltpFR	9	n/a	n/a	n/a	n/a	n/a	n/a	18	4	6	8	n/a	n/a	n/a	n/a	n/a
136889	STOP	n/a	LTP166	ltpFR	9	n/a	n/a	n/a	n/a	n/a	n/a	n/a	n/a	n/a	n/a	n/a	n/a	n/a	n/a	n/a
140144	REC_START	n/a	LTP166	ltpFR	9	1	n/a	n/a	n/a	n/a	n/a	n/a	0	0	0	n/a	n/a	n/a	n/a	n/a
141586	REC_WORD	wordpools/wasnorm_wordpool_less_exclusions.txt	LTP166	ltpFR	9	1	0	BAIT	70	n/a	0	n/a	0	0	0	n/a	n/a	n/a	n/a	n/a
142384	REC_WORD	wordpools/wasnorm_wordpool_less_exclusions.txt	LTP166	ltpFR	9	1	0	PIPE	1073	n/a	0	n/a	0	0	0	n/a	n/a	n/a	n/a	n/a
143202	REC_WORD	wordpools/wasnorm_wordpool_less_exclusions.txt	LTP166	ltpFR	9	1	0	WORLD	1622	n/a	1	n/a	0	0	0	n/a	n/a	n/a	n/a	n/a
144145	REC_WORD	wordpools/wasnorm_wordpool_less_exclusions.txt	LTP166	ltpFR	9	1	1	OPERATOR	979	n/a	1	n/a	0	0	0	n/a	n/a	n/a	n/a	n/a
144958	REC_WORD	wordpools/wasnorm_wordpool_less_exclusions.txt	LTP166	ltpFR	9	1	0	CHEF	290	n/a	1	n/a	0	0	0	n/a	n/a	n/a	n/a	n/a
146070	REC_WORD	wordpools/wasnorm_wordpool_less_exclusions.txt	LTP166	ltpFR	9	1	1	BROCCOLI	176	n/a	1	n/a	0	0	0	n/a	n/a	n/a	n/a	n/a
146968	REC_WORD	wordpools/wasnorm_wordpool_less_exclusions.txt	LTP166	ltpFR	9	1	1	PARSLEY	1016	n/a	1	n/a	0	0	0	n/a	n/a	n/a	n/a	n/a
148550	REC_WORD	wordpools/wasnorm_wordpool_less_exclusions.txt	LTP166	ltpFR	9	1	1	BEETLE	116	n/a	1	n/a	0	0	0	n/a	n/a	n/a	n/a	n/a
149473	REC_WORD	wordpools/wasnorm_wordpool_less_exclusions.txt	LTP166	ltpFR	9	1	1	BUTTERFLY	206	n/a	1	n/a	0	0	0	n/a	n/a	n/a	n/a	n/a
152730	REC_WORD	wordpools/wasnorm_wordpool_less_exclusions.txt	LTP166	ltpFR	9	1	1	CHIP	303	n/a	0	n/a	0	0	0	n/a	n/a	n/a	n/a	n/a
161690	REC_WORD	wordpools/wasnorm_wordpool_less_exclusions.txt	LTP166	ltpFR	9	1	1	VEST	1559	n/a	0	n/a	0	0	0	n/a	n/a	n/a	n/a	n/a
166504	REC_WORD	wordpools/wasnorm_wordpool_less_exclusions.txt	LTP166	ltpFR	9	1	0	MESSAGE	888	n/a	0	n/a	0	0	0	n/a	n/a	n/a	n/a	n/a
167167	REC_WORD	wordpools/wasnorm_wordpool_less_exclusions.txt	LTP166	ltpFR	9	1	0	NAVIGATOR	938	n/a	0	n/a	0	0	0	n/a	n/a	n/a	n/a	n/a
170016	REC_WORD	wordpools/wasnorm_wordpool_less_exclusions.txt	LTP166	ltpFR	9	1	0	BAIT	70	n/a	0	n/a	0	0	0	n/a	n/a	n/a	n/a	n/a
220558	START	n/a	LTP166	ltpFR	9	n/a	n/a	n/a	n/a	n/a	n/a	n/a	n/a	n/a	n/a	n/a	n/a	n/a	n/a	n/a
222071	PROB	n/a	LTP166	ltpFR	9	n/a	n/a	n/a	n/a	n/a	n/a	14	1	9	4	n/a	n/a	n/a	n/a	n/a
224068	PROB	n/a	LTP166	ltpFR	9	n/a	n/a	n/a	n/a	n/a	n/a	12	2	5	5	n/a	n/a	n/a	n/a	n/a
225332	PROB	n/a	LTP166	ltpFR	9	n/a	n/a	n/a	n/a	n/a	n/a	11	2	1	8	n/a	n/a	n/a	n/a	n/a
228557	STOP	n/a	LTP166	ltpFR	9	n/a	n/a	n/a	n/a	n/a	n/a	n/a	n/a	n/a	n/a	n/a	n/a	n/a	n/a	n/a
229710	WORD	wordpools/wasnorm_wordpool_less_exclusions.txt	LTP166	ltpFR	9	2	0	YARD	1630	n/a	1	n/a	0	0	0	1	0.412841796875	0.57763671875	lower	../fonts/zerothre.ttf
232723	START	n/a	LTP166	ltpFR	9	n/a	n/a	n/a	n/a	n/a	n/a	n/a	n/a	n/a	n/a	n/a	n/a	n/a	n/a	n/a
233804	PROB	n/a	LTP166	ltpFR	9	n/a	n/a	n/a	n/a	n/a	n/a	15	2	4	9	n/a	n/a	n/a	n/a	n/a
236033	PROB	n/a	LTP166	ltpFR	9	n/a	n/a	n/a	n/a	n/a	n/a	14	3	4	7	n/a	n/a	n/a	n/a	n/a
240723	STOP	n/a	LTP166	ltpFR	9	n/a	n/a	n/a	n/a	n/a	n/a	n/a	n/a	n/a	n/a	n/a	n/a	n/a	n/a	n/a
241592	WORD	wordpools/wasnorm_wordpool_less_exclusions.txt	LTP166	ltpFR	9	2	0	HANDBAG	684	n/a	1	n/a	0	0	0	1	0.412841796875	0.57763671875	lower	../fonts/zerothre.ttf
244605	START	n/a	LTP166	ltpFR	9	n/a	n/a	n/a	n/a	n/a	n/a	n/a	n/a	n/a	n/a	n/a	n/a	n/a	n/a	n/a
245502	PROB	n/a	LTP166	ltpFR	9	n/a	n/a	n/a	n/a	n/a	n/a	15	4	2	9	n/a	n/a	n/a	n/a	n/a
247634	PROB	n/a	LTP166	ltpFR	9	n/a	n/a	n/a	n/a	n/a	n/a	17	9	1	7	n/a	n/a	n/a	n/a	n/a
249313	PROB	n/a	LTP166	ltpFR	9	n/a	n/a	n/a	n/a	n/a	n/a	13	7	3	3	n/a	n/a	n/a	n/a	n/a
251145	STOP	n/a	LTP166	ltpFR	9	n/a	n/a	n/a	n/a	n/a	n/a	n/a	n/a	n/a	n/a	n/a	n/a	n/a	n/a	n/a
253724	WORD	wordpools/wasnorm_wordpool_less_exclusions.txt	LTP166	ltpFR	9	2	0	SPINE	1353	n/a	1	n/a	0	0	0	1	0.412841796875	0.57763671875	lower	../fonts/zerothre.ttf
256737	START	n/a	LTP166	ltpFR	9	n/a	n/a	n/a	n/a	n/a	n/a	n/a	n/a	n/a	n/a	n/a	n/a	n/a	n/a	n/a
257585	PROB	n/a	LTP166	ltpFR	9	n/a	n/a	n/a	n/a	n/a	n/a	22	9	9	6	n/a	n/a	n/a	n/a	n/a
260664	PROB	n/a	LTP166	ltpFR	9	n/a	n/a	n/a	n/a	n/a	n/a	24	9	7	8	n/a	n/a	n/a	n/a	n/a
264736	STOP	n/a	LTP166	ltpFR	9	n/a	n/a	n/a	n/a	n/a	n/a	n/a	n/a	n/a	n/a	n/a	n/a	n/a	n/a	n/a
265557	WORD	wordpools/wasnorm_wordpool_less_exclusions.txt	LTP166	ltpFR	9	2	0	LITERATURE	831	n/a	1	n/a	0	0	0	1	0.412841796875	0.57763671875	lower	../fonts/zerothre.ttf
268569	START	n/a	LTP166	ltpFR	9	n/a	n/a	n/a	n/a	n/a	n/a	n/a	n/a	n/a	n/a	n/a	n/a	n/a	n/a	n/a
269684	PROB	n/a	LTP166	ltpFR	9	n/a	n/a	n/a	n/a	n/a	n/a	22	9	7	6	n/a	n/a	n/a	n/a	n/a
273028	PROB	n/a	LTP166	ltpFR	9	n/a	n/a	n/a	n/a	n/a	n/a	15	2	8	5	n/a	n/a	n/a	n/a	n/a
274593	PROB	n/a	LTP166	ltpFR	9	n/a	n/a	n/a	n/a	n/a	n/a	14	4	2	8	n/a	n/a	n/a	n/a	n/a
276129	STOP	n/a	LTP166	ltpFR	9	n/a	n/a	n/a	n/a	n/a	n/a	n/a	n/a	n/a	n/a	n/a	n/a	n/a	n/a	n/a
277639	WORD	wordpools/wasnorm_wordpool_less_exclusions.txt	LTP166	ltpFR	9	2	0	BRIEFCASE	175	n/a	1	n/a	0	0	0	1	0.412841796875	0.57763671875	lower	../fonts/zerothre.ttf
280651	START	n/a	LTP166	ltpFR	9	n/a	n/a	n/a	n/a	n/a	n/a	n/a	n/a	n/a	n/a	n/a	n/a	n/a	n/a	n/a
281716	PROB	n/a	LTP166	ltpFR	9	n/a	n/a	n/a	n/a	n/a	n/a	13	9	2	2	n/a	n/a	n/a	n/a	n/a
283829	PROB	n/a	LTP166	ltpFR	9	n/a	n/a	n/a	n/a	n/a	n/a	16	6	7	3	n/a	n/a	n/a	n/a	n/a
285409	PROB	n/a	LTP166	ltpFR	9	n/a	n/a	n/a	n/a	n/a	n/a	18	9	6	3	n/a	n/a	n/a	n/a	n/a
288651	STOP	n/a	LTP166	ltpFR	9	n/a	n/a	n/a	n/a	n/a	n/a	n/a	n/a	n/a	n/a	n/a	n/a	n/a	n/a	n/a
289588	WORD	wordpools/wasnorm_wordpool_less_exclusions.txt	LTP166	ltpFR	9	2	0	STAPLER	1372	n/a	0	n/a	0	0	0	1	0.412841796875	0.57763671875	lower	../fonts/zerothre.ttf
292600	START	n/a	LTP166	ltpFR	9	n/a	n/a	n/a	n/a	n/a	n/a	n/a	n/a	n/a	n/a	n/a	n/a	n/a	n/a	n/a
293464	PROB	n/a	LTP166	ltpFR	9	n/a	n/a	n/a	n/a	n/a	n/a	16	9	6	5	n/a	n/a	n/a	n/a	n/a
296660	PROB	n/a	LTP166	ltpFR	9	n/a	n/a	n/a	n/a	n/a	n/a	15	3	4	5	n/a	n/a	n/a	n/a	n/a
299546	STOP	n/a	LTP166	ltpFR	9	n/a	n/a	n/a	n/a	n/a	n/a	n/a	n/a	n/a	n/a	n/a	n/a	n/a	n/a	n/a
301753	WORD	wordpools/wasnorm_wordpool_less_exclusions.txt	LTP166	ltpFR	9	2	0	TABLE	1426	n/a	1	n/a	0	0	0	1	0.412841796875	0.57763671875	lower	../fonts/zerothre.ttf
304765	START	n/a	LTP166	ltpFR	9	n/a	n/a	n/a	n/a	n/a	n/a	n/a	n/a	n/a	n/a	n/a	n/a	n/a	n/a	n/a
305780	PROB	n/a	LTP166	ltpFR	9	n/a	n/a	n/a	n/a	n/a	n/a	15	3	9	3	n/a	n/a	n/a	n/a	n/a
307727	PROB	n/a	LTP166	ltpFR	9	n/a	n/a	n/a	n/a	n/a	n/a	21	7	6	8	n/a	n/a	n/a	n/a	n/a
309791	PROB	n/a	LTP166	ltpFR	9	n/a	n/a	n/a	n/a	n/a	n/a	10	1	6	3	n/a	n/a	n/a	n/a	n/a
311969	STOP	n/a	LTP166	ltpFR	9	n/a	n/a	n/a	n/a	n/a	n/a	n/a	n/a	n/a	n/a	n/a	n/a	n/a	n/a	n/a
313983	WORD	wordpools/wasnorm_wordpool_less_exclusions.txt	LTP166	ltpFR	9	2	0	NIECE	952	n/a	1	n/a	0	0	0	1	0.412841796875	0.57763671875	lower	../fonts/zerothre.ttf
316996	START	n/a	LTP166	ltpFR	9	n/a	n/a	n/a	n/a	n/a	n/a	n/a	n/a	n/a	n/a	n/a	n/a	n/a	n/a	n/a
317928	PROB	n/a	LTP166	ltpFR	9	n/a	n/a	n/a	n/a	n/a	n/a	22	6	7	9	n/a	n/a	n/a	n/a	n/a
320041	PROB	n/a	LTP166	ltpFR	9	n/a	n/a	n/a	n/a	n/a	n/a	7	2	4	1	n/a	n/a	n/a	n/a	n/a
322088	PROB	n/a	LTP166	ltpFR	9	n/a	n/a	n/a	n/a	n/a	n/a	15	3	6	6	n/a	n/a	n/a	n/a	n/a
324145	STOP	n/a	LTP166	ltpFR	9	n/a	n/a	n/a	n/a	n/a	n/a	n/a	n/a	n/a	n/a	n/a	n/a	n/a	n/a	n/a
326198	WORD	wordpools/wasnorm_wordpool_less_exclusions.txt	LTP166	ltpFR	9	2	0	JELLO	754	n/a	1	n/a	0	0	0	1	0.412841796875	0.57763671875	lower	../fonts/zerothre.ttf
329211	START	n/a	LTP166	ltpFR	9	n/a	n/a	n/a	n/a	n/a	n/a	n/a	n/a	n/a	n/a	n/a	n/a	n/a	n/a	n/a
330143	PROB	n/a	LTP166	ltpFR	9	n/a	n/a	n/a	n/a	n/a	n/a	25	7	9	9	n/a	n/a	n/a	n/a	n/a
333655	PROB	n/a	LTP166	ltpFR	9	n/a	n/a	n/a	n/a	n/a	n/a	10	2	3	5	n/a	n/a	n/a	n/a	n/a
337211	STOP	n/a	LTP166	ltpFR	9	n/a	n/a	n/a	n/a	n/a	n/a	n/a	n/a	n/a	n/a	n/a	n/a	n/a	n/a	n/a
338097	WORD	wordpools/wasnorm_wordpool_less_exclusions.txt	LTP166	ltpFR	9	2	0	TAPIOCA	1434	n/a	1	n/a	0	0	0	1	0.412841796875	0.57763671875	lower	../fonts/zerothre.ttf
341110	START	n/a	LTP166	ltpFR	9	n/a	n/a	n/a	n/a	n/a	n/a	n/a	n/a	n/a	n/a	n/a	n/a	n/a	n/a	n/a
342274	PROB	n/a	LTP166	ltpFR	9	n/a	n/a	n/a	n/a	n/a	n/a	18	6	3	9	n/a	n/a	n/a	n/a	n/a
343872	PROB	n/a	LTP166	ltpFR	9	n/a	n/a	n/a	n/a	n/a	n/a	18	6	8	4	n/a	n/a	n/a	n/a	n/a
346102	PROB	n/a	LTP166	ltpFR	9	n/a	n/a	n/a	n/a	n/a	n/a	15	5	7	3	n/a	n/a	n/a	n/a	n/a
349109	STOP	n/a	LTP166	ltpFR	9	n/a	n/a	n/a	n/a	n/a	n/a	n/a	n/a	n/a	n/a	n/a	n/a	n/a	n/a	n/a
350046	WORD	wordpools/wasnorm_wordpool_less_exclusions.txt	LTP166	ltpFR	9	2	0	FOLDER	588	n/a	0	n/a	0	0	0	1	0.412841796875	0.57763671875	lower	../fonts/zerothre.ttf
353059	START	n/a	LTP166	ltpFR	9	n/a	n/a	n/a	n/a	n/a	n/a	n/a	n/a	n/a	n/a	n/a	n/a	n/a	n/a	n/a
354140	PROB	n/a	LTP166	ltpFR	9	n/a	n/a	n/a	n/a	n/a	n/a	13	2	9	2	n/a	n/a	n/a	n/a	n/a
355937	PROB	n/a	LTP166	ltpFR	9	n/a	n/a	n/a	n/a	n/a	n/a	14	2	7	5	n/a	n/a	n/a	n/a	n/a
358784	PROB	n/a	LTP166	ltpFR	9	n/a	n/a	n/a	n/a	n/a	n/a	19	4	7	8	n/a	n/a	n/a	n/a	n/a
360473	STOP	n/a	LTP166	ltpFR	9	n/a	n/a	n/a	n/a	n/a	n/a	n/a	n/a	n/a	n/a	n/a	n/a	n/a	n/a	n/a
362245	WORD	wordpools/wasnorm_wordpool_less_exclusions.txt	LTP166	ltpFR	9	2	0	PASSAGE	1019	n/a	1	n/a	0	0	0	1	0.412841796875	0.57763671875	lower	../fonts/zerothre.ttf
365257	START	n/a	LTP166	ltpFR	9	n/a	n/a	n/a	n/a	n/a	n/a	n/a	n/a	n/a	n/a	n/a	n/a	n/a	n/a	n/a
366222	PROB	n/a	LTP166	ltpFR	9	n/a	n/a	n/a	n/a	n/a	n/a	7	2	1	4	n/a	n/a	n/a	n/a	n/a
368252	PROB	n/a	LTP166	ltpFR	9	n/a	n/a	n/a	n/a	n/a	n/a	19	4	9	6	n/a	n/a	n/a	n/a	n/a
370050	PROB	n/a	LTP166	ltpFR	9	n/a	n/a	n/a	n/a	n/a	n/a	8	2	3	4	n/a	n/a	n/a	n/a	n/a
372353	STOP	n/a	LTP166	ltpFR	9	n/a	n/a	n/a	n/a	n/a	n/a	n/a	n/a	n/a	n/a	n/a	n/a	n/a	n/a	n/a
374110	WORD	wordpools/wasnorm_wordpool_less_exclusions.txt	LTP166	ltpFR	9	2	0	ANKLE	24	n/a	0	n/a	0	0	0	1	0.412841796875	0.57763671875	lower	../fonts/zerothre.ttf
377123	START	n/a	LTP166	ltpFR	9	n/a	n/a	n/a	n/a	n/a	n/a	n/a	n/a	n/a	n/a	n/a	n/a	n/a	n/a	n/a
378204	PROB	n/a	LTP166	ltpFR	9	n/a	n/a	n/a	n/a	n/a	n/a	6	1	4	1	n/a	n/a	n/a	n/a	n/a
380168	PROB	n/a	LTP166	ltpFR	9	n/a	n/a	n/a	n/a	n/a	n/a	15	5	7	3	n/a	n/a	n/a	n/a	n/a
381399	PROB	n/a	LTP166	ltpFR	9	n/a	n/a	n/a	n/a	n/a	n/a	8	1	1	6	n/a	n/a	n/a	n/a	n/a
382698	PROB	n/a	LTP166	ltpFR	9	n/a	n/a	n/a	n/a	n/a	n/a	14	5	5	4	n/a	n/a	n/a	n/a	n/a
384033	STOP	n/a	LTP166	ltpFR	9	n/a	n/a	n/a	n/a	n/a	n/a	n/a	n/a	n/a	n/a	n/a	n/a	n/a	n/a	n/a
386309	WORD	wordpools/wasnorm_wordpool_less_exclusions.txt	LTP166	ltpFR	9	2	0	JOURNAL	760	n/a	0	n/a	0	0	0	1	0.412841796875	0.57763671875	lower	../fonts/zerothre.ttf
389321	START	n/a	LTP166	ltpFR	9	n/a	n/a	n/a	n/a	n/a	n/a	n/a	n/a	n/a	n/a	n/a	n/a	n/a	n/a	n/a
390319	PROB	n/a	LTP166	ltpFR	9	n/a	n/a	n/a	n/a	n/a	n/a	18	3	9	6	n/a	n/a	n/a	n/a	n/a
392750	PROB	n/a	LTP166	ltpFR	9	n/a	n/a	n/a	n/a	n/a	n/a	23	7	8	8	n/a	n/a	n/a	n/a	n/a
395897	STOP	n/a	LTP166	ltpFR	9	n/a	n/a	n/a	n/a	n/a	n/a	n/a	n/a	n/a	n/a	n/a	n/a	n/a	n/a	n/a
398158	WORD	wordpools/wasnorm_wordpool_less_exclusions.txt	LTP166	ltpFR	9	2	0	KNAPSACK	783	n/a	0	n/a	0	0	0	1	0.412841796875	0.57763671875	lower	../fonts/zerothre.ttf
401171	START	n/a	LTP166	ltpFR	9	n/a	n/a	n/a	n/a	n/a	n/a	n/a	n/a	n/a	n/a	n/a	n/a	n/a	n/a	n/a
402235	PROB	n/a	LTP166	ltpFR	9	n/a	n/a	n/a	n/a	n/a	n/a	17	6	5	6	n/a	n/a	n/a	n/a	n/a
403899	PROB	n/a	LTP166	ltpFR	9	n/a	n/a	n/a	n/a	n/a	n/a	13	1	7	5	n/a	n/a	n/a	n/a	n/a
409171	STOP	n/a	LTP166	ltpFR	9	n/a	n/a	n/a	n/a	n/a	n/a	n/a	n/a	n/a	n/a	n/a	n/a	n/a	n/a	n/a
410340	WORD	wordpools/wasnorm_wordpool_less_exclusions.txt	LTP166	ltpFR	9	2	0	SICKLE	1302	n/a	0	n/a	0	0	0	1	0.412841796875	0.57763671875	lower	../fonts/zerothre.ttf
413352	START	n/a	LTP166	ltpFR	9	n/a	n/a	n/a	n/a	n/a	n/a	n/a	n/a	n/a	n/a	n/a	n/a	n/a	n/a	n/a
414500	PROB	n/a	LTP166	ltpFR	9	n/a	n/a	n/a	n/a	n/a	n/a	17	5	5	7	n/a	n/a	n/a	n/a	n/a
416615	PROB	n/a	LTP166	ltpFR	9	n/a	n/a	n/a	n/a	n/a	n/a	8	4	1	4	n/a	n/a	n/a	n/a	n/a
421351	STOP	n/a	LTP166	ltpFR	9	n/a	n/a	n/a	n/a	n/a	n/a	n/a	n/a	n/a	n/a	n/a	n/a	n/a	n/a	n/a
423204	REC_START	n/a	LTP166	ltpFR	9	2	n/a	n/a	n/a	n/a	n/a	n/a	0	0	0	n/a	n/a	n/a	n/a	n/a
424266	REC_WORD	wordpools/wasnorm_wordpool_less_exclusions.txt	LTP166	ltpFR	9	2	0	SICKLE	1302	n/a	0	n/a	0	0	0	n/a	n/a	n/a	n/a	n/a
428382	REC_WORD	wordpools/wasnorm_wordpool_less_exclusions.txt	LTP166	ltpFR	9	2	0	KNAPSACK	783	n/a	0	n/a	0	0	0	n/a	n/a	n/a	n/a	n/a
430033	REC_WORD	wordpools/wasnorm_wordpool_less_exclusions.txt	LTP166	ltpFR	9	2	0	FOLDER	588	n/a	0	n/a	0	0	0	n/a	n/a	n/a	n/a	n/a
430981	REC_WORD	wordpools/wasnorm_wordpool_less_exclusions.txt	LTP166	ltpFR	9	2	0	STAPLER	1372	n/a	0	n/a	0	0	0	n/a	n/a	n/a	n/a	n/a
475729	REC_WORD	wordpools/wasnorm_wordpool_less_exclusions.txt	LTP166	ltpFR	9	2	0	PASSAGE	1019	n/a	1	n/a	0	0	0	n/a	n/a	n/a	n/a	n/a
477635	REC_WORD	wordpools/wasnorm_wordpool_less_exclusions.txt	LTP166	ltpFR	9	2	0	LITERATURE	831	n/a	1	n/a	0	0	0	n/a	n/a	n/a	n/a	n/a
480453	REC_WORD	wordpools/wasnorm_wordpool_less_exclusions.txt	LTP166	ltpFR	9	2	0	SPINE	1353	n/a	1	n/a	0	0	0	n/a	n/a	n/a	n/a	n/a
500673	START	n/a	LTP166	ltpFR	9	n/a	n/a	n/a	n/a	n/a	n/a	n/a	n/a	n/a	n/a	n/a	n/a	n/a	n/a	n/a
502186	PROB	n/a	LTP166	ltpFR	9	n/a	n/a	n/a	n/a	n/a	n/a	14	5	7	2	n/a	n/a	n/a	n/a	n/a
504316	PROB	n/a	LTP166	ltpFR	9	n/a	n/a	n/a	n/a	n/a	n/a	11	2	8	1	n/a	n/a	n/a	n/a	n/a
506080	PROB	n/a	LTP166	ltpFR	9	n/a	n/a	n/a	n/a	n/a	n/a	4	1	2	1	n/a	n/a	n/a	n/a	n/a
507445	PROB	n/a	LTP166	ltpFR	9	n/a	n/a	n/a	n/a	n/a	n/a	10	3	5	2	n/a	n/a	n/a	n/a	n/a
509725	PROB	n/a	LTP166	ltpFR	9	n/a	n/a	n/a	n/a	n/a	n/a	15	6	7	2	n/a	n/a	n/a	n/a	n/a
512688	PROB	n/a	LTP166	ltpFR	9	n/a	n/a	n/a	n/a	n/a	n/a	8	3	2	3	n/a	n/a	n/a	n/a	n/a
514718	PROB	n/a	LTP166	ltpFR	9	n/a	n/a	n/a	n/a	n/a	n/a	11	1	2	8	n/a	n/a	n/a	n/a	n/a
516281	STOP	n/a	LTP166	ltpFR	9	n/a	n/a	n/a	n/a	n/a	n/a	n/a	n/a	n/a	n/a	n/a	n/a	n/a	n/a	n/a
517862	WORD	wordpools/wasnorm_wordpool_less_exclusions.txt	LTP166	ltpFR	9	3	0	REEF	1177	n/a	1	n/a	0	0	0	1	0.412841796875	0.57763671875	lower	../fonts/zerothre.ttf
520875	START	n/a	LTP166	ltpFR	9	n/a	n/a	n/a	n/a	n/a	n/a	n/a	n/a	n/a	n/a	n/a	n/a	n/a	n/a	n/a
521973	PROB	n/a	LTP166	ltpFR	9	n/a	n/a	n/a	n/a	n/a	n/a	17	9	3	5	n/a	n/a	n/a	n/a	n/a
524170	PROB	n/a	LTP166	ltpFR	9	n/a	n/a	n/a	n/a	n/a	n/a	16	3	9	4	n/a	n/a	n/a	n/a	n/a
527798	PROB	n/a	LTP166	ltpFR	9	n/a	n/a	n/a	n/a	n/a	n/a	11	5	3	3	n/a	n/a	n/a	n/a	n/a
532457	PROB	n/a	LTP166	ltpFR	9	n/a	n/a	n/a	n/a	n/a	n/a	15	5	2	8	n/a	n/a	n/a	n/a	n/a
533839	PROB	n/a	LTP166	ltpFR	9	n/a	n/a	n/a	n/a	n/a	n/a	8	2	1	4	n/a	n/a	n/a	n/a	n/a
536041	STOP	n/a	LTP166	ltpFR	9	n/a	n/a	n/a	n/a	n/a	n/a	n/a	n/a	n/a	n/a	n/a	n/a	n/a	n/a	n/a
538049	WORD	wordpools/wasnorm_wordpool_less_exclusions.txt	LTP166	ltpFR	9	3	0	CALF	222	n/a	1	n/a	0	0	0	1	0.412841796875	0.57763671875	lower	../fonts/zerothre.ttf
541061	START	n/a	LTP166	ltpFR	9	n/a	n/a	n/a	n/a	n/a	n/a	n/a	n/a	n/a	n/a	n/a	n/a	n/a	n/a	n/a
542093	PROB	n/a	LTP166	ltpFR	9	n/a	n/a	n/a	n/a	n/a	n/a	20	9	7	4	n/a	n/a	n/a	n/a	n/a
544939	PROB	n/a	LTP166	ltpFR	9	n/a	n/a	n/a	n/a	n/a	n/a	17	6	9	2	n/a	n/a	n/a	n/a	n/a
548567	PROB	n/a	LTP166	ltpFR	9	n/a	n/a	n/a	n/a	n/a	n/a	10	2	3	5	n/a	n/a	n/a	n/a	n/a
550497	PROB	n/a	LTP166	ltpFR	9	n/a	n/a	n/a	n/a	n/a	n/a	22	9	7	6	n/a	n/a	n/a	n/a	n/a
553276	PROB	n/a	LTP166	ltpFR	9	n/a	n/a	n/a	n/a	n/a	n/a	6	2	3	1	n/a	n/a	n/a	n/a	n/a
557061	STOP	n/a	LTP166	ltpFR	9	n/a	n/a	n/a	n/a	n/a	n/a	n/a	n/a	n/a	n/a	n/a	n/a	n/a	n/a	n/a
558219	WORD	wordpools/wasnorm_wordpool_less_exclusions.txt	LTP166	ltpFR	9	3	0	SHELTER	1282	n/a	1	n/a	0	0	0	1	0.412841796875	0.57763671875	lower	../fonts/zerothre.ttf
561231	START	n/a	LTP166	ltpFR	9	n/a	n/a	n/a	n/a	n/a	n/a	n/a	n/a	n/a	n/a	n/a	n/a	n/a	n/a	n/a
562429	PROB	n/a	LTP166	ltpFR	9	n/a	n/a	n/a	n/a	n/a	n/a	18	5	5	8	n/a	n/a	n/a	n/a	n/a
563778	PROB	n/a	LTP166	ltpFR	9	n/a	n/a	n/a	n/a	n/a	n/a	10	1	4	5	n/a	n/a	n/a	n/a	n/a
565775	PROB	n/a	LTP166	ltpFR	9	n/a	n/a	n/a	n/a	n/a	n/a	18	8	4	6	n/a	n/a	n/a	n/a	n/a
567871	PROB	n/a	LTP166	ltpFR	9	n/a	n/a	n/a	n/a	n/a	n/a	14	6	4	4	n/a	n/a	n/a	n/a	n/a
569302	PROB	n/a	LTP166	ltpFR	9	n/a	n/a	n/a	n/a	n/a	n/a	7	4	2	1	n/a	n/a	n/a	n/a	n/a
571233	PROB	n/a	LTP166	ltpFR	9	n/a	n/a	n/a	n/a	n/a	n/a	19	9	5	5	n/a	n/a	n/a	n/a	n/a
572631	PROB	n/a	LTP166	ltpFR	9	n/a	n/a	n/a	n/a	n/a	n/a	10	1	2	7	n/a	n/a	n/a	n/a	n/a
574212	PROB	n/a	LTP166	ltpFR	9	n/a	n/a	n/a	n/a	n/a	n/a	14	8	3	3	n/a	n/a	n/a	n/a	n/a
576482	STOP	n/a	LTP166	ltpFR	9	n/a	n/a	n/a	n/a	n/a	n/a	n/a	n/a	n/a	n/a	n/a	n/a	n/a	n/a	n/a
578106	WORD	wordpools/wasnorm_wordpool_less_exclusions.txt	LTP166	ltpFR	9	3	0	EXPLOSION	544	n/a	1	n/a	0	0	0	1	0.412841796875	0.57763671875	lower	../fonts/zerothre.ttf
581118	START	n/a	LTP166	ltpFR	9	n/a	n/a	n/a	n/a	n/a	n/a	n/a	n/a	n/a	n/a	n/a	n/a	n/a	n/a	n/a
582133	PROB	n/a	LTP166	ltpFR	9	n/a	n/a	n/a	n/a	n/a	n/a	13	8	4	1	n/a	n/a	n/a	n/a	n/a
584263	PROB	n/a	LTP166	ltpFR	9	n/a	n/a	n/a	n/a	n/a	n/a	20	3	8	9	n/a	n/a	n/a	n/a	n/a
587425	PROB	n/a	LTP166	ltpFR	9	n/a	n/a	n/a	n/a	n/a	n/a	10	6	2	2	n/a	n/a	n/a	n/a	n/a
589089	PROB	n/a	LTP166	ltpFR	9	n/a	n/a	n/a	n/a	n/a	n/a	8	3	4	1	n/a	n/a	n/a	n/a	n/a
591286	PROB	n/a	LTP166	ltpFR	9	n/a	n/a	n/a	n/a	n/a	n/a	14	7	1	6	n/a	n/a	n/a	n/a	n/a
593383	PROB	n/a	LTP166	ltpFR	9	n/a	n/a	n/a	n/a	n/a	n/a	17	8	2	7	n/a	n/a	n/a	n/a	n/a
596410	STOP	n/a	LTP166	ltpFR	9	n/a	n/a	n/a	n/a	n/a	n/a	n/a	n/a	n/a	n/a	n/a	n/a	n/a	n/a	n/a
598109	WORD	wordpools/wasnorm_wordpool_less_exclusions.txt	LTP166	ltpFR	9	3	1	BULL	193	n/a	1	n/a	0	0	0	0	0.5869140625	0.422607421875	upper	../fonts/amplitud.ttf
601122	START	n/a	LTP166	ltpFR	9	n/a	n/a	n/a	n/a	n/a	n/a	n/a	n/a	n/a	n/a	n/a	n/a	n/a	n/a	n/a
602037	PROB	n/a	LTP166	ltpFR	9	n/a	n/a	n/a	n/a	n/a	n/a	17	9	6	2	n/a	n/a	n/a	n/a	n/a
605515	PROB	n/a	LTP166	ltpFR	9	n/a	n/a	n/a	n/a	n/a	n/a	11	6	4	1	n/a	n/a	n/a	n/a	n/a
606879	PROB	n/a	LTP166	ltpFR	9	n/a	n/a	n/a	n/a	n/a	n/a	19	9	5	5	n/a	n/a	n/a	n/a	n/a
608111	PROB	n/a	LTP166	ltpFR	9	n/a	n/a	n/a	n/a	n/a	n/a	9	2	5	1	n/a	n/a	n/a	n/a	n/a
611373	PROB	n/a	LTP166	ltpFR	9	n/a	n/a	n/a	n/a	n/a	n/a	18	9	4	5	n/a	n/a	n/a	n/a	n/a
617121	STOP	n/a	LTP166	ltpFR	9	n/a	n/a	n/a	n/a	n/a	n/a	n/a	n/a	n/a	n/a	n/a	n/a	n/a	n/a	n/a
618129	WORD	wordpools/wasnorm_wordpool_less_exclusions.txt	LTP166	ltpFR	9	3	1	VISITOR	1573	n/a	1	n/a	0	0	0	0	0.5869140625	0.422607421875	upper	../fonts/amplitud.ttf
621142	START	n/a	LTP166	ltpFR	9	n/a	n/a	n/a	n/a	n/a	n/a	n/a	n/a	n/a	n/a	n/a	n/a	n/a	n/a	n/a
622273	PROB	n/a	LTP166	ltpFR	9	n/a	n/a	n/a	n/a	n/a	n/a	19	9	5	5	n/a	n/a	n/a	n/a	n/a
623788	PROB	n/a	LTP166	ltpFR	9	n/a	n/a	n/a	n/a	n/a	n/a	20	9	4	7	n/a	n/a	n/a	n/a	n/a
628896	PROB	n/a	LTP166	ltpFR	9	n/a	n/a	n/a	n/a	n/a	n/a	16	3	7	6	n/a	n/a	n/a	n/a	n/a
630645	PROB	n/a	LTP166	ltpFR	9	n/a	n/a	n/a	n/a	n/a	n/a	17	7	9	1	n/a	n/a	n/a	n/a	n/a
632441	PROB	n/a	LTP166	ltpFR	9	n/a	n/a	n/a	n/a	n/a	n/a	12	9	1	2	n/a	n/a	n/a	n/a	n/a
635320	PROB	n/a	LTP166	ltpFR	9	n/a	n/a	n/a	n/a	n/a	n/a	13	8	2	3	n/a	n/a	n/a	n/a	n/a
636978	STOP	n/a	LTP166	ltpFR	9	n/a	n/a	n/a	n/a	n/a	n/a	n/a	n/a	n/a	n/a	n/a	n/a	n/a	n/a	n/a
638316	WORD	wordpools/wasnorm_wordpool_less_exclusions.txt	LTP166	ltpFR	9	3	1	BUSH	202	n/a	0	n/a	0	0	0	0	0.5869140625	0.422607421875	upper	../fonts/amplitud.ttf
641328	START	n/a	LTP166	ltpFR	9	n/a	n/a	n/a	n/a	n/a	n/a	n/a	n/a	n/a	n/a	n/a	n/a	n/a	n/a	n/a
642410	PROB	n/a	LTP166	ltpFR	9	n/a	n/a	n/a	n/a	n/a	n/a	21	6	9	6	n/a	n/a	n/a	n/a	n/a
645722	PROB	n/a	LTP166	ltpFR	9	n/a	n/a	n/a	n/a	n/a	n/a	16	7	7	2	n/a	n/a	n/a	n/a	n/a
647819	PROB	n/a	LTP166	ltpFR	9	n/a	n/a	n/a	n/a	n/a	n/a	24	8	8	7	n/a	n/a	n/a	n/a	n/a
653577	PROB	n/a	LTP166	ltpFR	9	n/a	n/a	n/a	n/a	n/a	n/a	18	6	6	6	n/a	n/a	n/a	n/a	n/a
655986	STOP	n/a	LTP166	ltpFR	9	n/a	n/a	n/a	n/a	n/a	n/a	n/a	n/a	n/a	n/a	n/a	n/a	n/a	n/a	n/a
658369	WORD	wordpools/wasnorm_wordpool_less_exclusions.txt	LTP166	ltpFR	9	3	1	TREE	1502	n/a	1	n/a	0	0	0	0	0.5869140625	0.422607421875	upper	../fonts/amplitud.ttf
661382	START	n/a	LTP166	ltpFR	9	n/a	n/a	n/a	n/a	n/a	n/a	n/a	n/a	n/a	n/a	n/a	n/a	n/a	n/a	n/a
662380	PROB	n/a	LTP166	ltpFR	9	n/a	n/a	n/a	n/a	n/a	n/a	18	6	9	3	n/a	n/a	n/a	n/a	n/a
664260	PROB	n/a	LTP166	ltpFR	9	n/a	n/a	n/a	n/a	n/a	n/a	16	4	4	8	n/a	n/a	n/a	n/a	n/a
666307	PROB	n/a	LTP166	ltpFR	9	n/a	n/a	n/a	n/a	n/a	n/a	18	5	5	8	n/a	n/a	n/a	n/a	n/a
667723	PROB	n/a	LTP166	ltpFR	9	n/a	n/a	n/a	n/a	n/a	n/a	21	6	9	6	n/a	n/a	n/a	n/a	n/a
670518	PROB	n/a	LTP166	ltpFR	9	n/a	n/a	n/a	n/a	n/a	n/a	13	3	2	8	n/a	n/a	n/a	n/a	n/a
672065	PROB	n/a	LTP166	ltpFR	9	n/a	n/a	n/a	n/a	n/a	n/a	14	9	2	3	n/a	n/a	n/a	n/a	n/a
674245	PROB	n/a	LTP166	ltpFR	9	n/a	n/a	n/a	n/a	n/a	n/a	17	3	7	7	n/a	n/a	n/a	n/a	n/a
676514	STOP	n/a	LTP166	ltpFR	9	n/a	n/a	n/a	n/a	n/a	n/a	n/a	n/a	n/a	n/a	n/a	n/a	n/a	n/a	n/a
678306	WORD	wordpools/wasnorm_wordpool_less_exclusions.txt	LTP166	ltpFR	9	3	0	INCENSE	735	n/a	1	n/a	0	0	0	1	0.412841796875	0.57763671875	lower	../fonts/zerothre.ttf
681319	START	n/a	LTP166	ltpFR	9	n/a	n/a	n/a	n/a	n/a	n/a	n/a	n/a	n/a	n/a	n/a	n/a	n/a	n/a	n/a
682267	PROB	n/a	LTP166	ltpFR	9	n/a	n/a	n/a	n/a	n/a	n/a	11	1	1	9	n/a	n/a	n/a	n/a	n/a
683766	PROB	n/a	LTP166	ltpFR	9	n/a	n/a	n/a	n/a	n/a	n/a	12	3	6	3	n/a	n/a	n/a	n/a	n/a
686728	PROB	n/a	LTP166	ltpFR	9	n/a	n/a	n/a	n/a	n/a	n/a	13	4	1	8	n/a	n/a	n/a	n/a	n/a
688308	PROB	n/a	LTP166	ltpFR	9	n/a	n/a	n/a	n/a	n/a	n/a	17	5	4	8	n/a	n/a	n/a	n/a	n/a
690622	PROB	n/a	LTP166	ltpFR	9	n/a	n/a	n/a	n/a	n/a	n/a	13	3	8	2	n/a	n/a	n/a	n/a	n/a
692636	PROB	n/a	LTP166	ltpFR	9	n/a	n/a	n/a	n/a	n/a	n/a	12	5	1	6	n/a	n/a	n/a	n/a	n/a
695281	PROB	n/a	LTP166	ltpFR	9	n/a	n/a	n/a	n/a	n/a	n/a	12	5	5	2	n/a	n/a	n/a	n/a	n/a
696922	STOP	n/a	LTP166	ltpFR	9	n/a	n/a	n/a	n/a	n/a	n/a	n/a	n/a	n/a	n/a	n/a	n/a	n/a	n/a	n/a
698210	WORD	wordpools/wasnorm_wordpool_less_exclusions.txt	LTP166	ltpFR	9	3	0	OINTMENT	974	n/a	0	n/a	0	0	0	1	0.412841796875	0.57763671875	lower	../fonts/zerothre.ttf
701222	START	n/a	LTP166	ltpFR	9	n/a	n/a	n/a	n/a	n/a	n/a	n/a	n/a	n/a	n/a	n/a	n/a	n/a	n/a	n/a
702120	PROB	n/a	LTP166	ltpFR	9	n/a	n/a	n/a	n/a	n/a	n/a	14	6	6	2	n/a	n/a	n/a	n/a	n/a
703786	PROB	n/a	LTP166	ltpFR	9	n/a	n/a	n/a	n/a	n/a	n/a	15	9	2	4	n/a	n/a	n/a	n/a	n/a
707080	PROB	n/a	LTP166	ltpFR	9	n/a	n/a	n/a	n/a	n/a	n/a	16	9	2	7	n/a	n/a	n/a	n/a	n/a
709827	PROB	n/a	LTP166	ltpFR	9	n/a	n/a	n/a	n/a	n/a	n/a	12	8	1	3	n/a	n/a	n/a	n/a	n/a
717222	STOP	n/a	LTP166	ltpFR	9	n/a	n/a	n/a	n/a	n/a	n/a	n/a	n/a	n/a	n/a	n/a	n/a	n/a	n/a	n/a
718396	WORD	wordpools/wasnorm_wordpool_less_exclusions.txt	LTP166	ltpFR	9	3	1	SUSPECT	1415	n/a	1	n/a	0	0	0	0	0.5869140625	0.422607421875	upper	../fonts/amplitud.ttf
721409	START	n/a	LTP166	ltpFR	9	n/a	n/a	n/a	n/a	n/a	n/a	n/a	n/a	n/a	n/a	n/a	n/a	n/a	n/a	n/a
722290	PROB	n/a	LTP166	ltpFR	9	n/a	n/a	n/a	n/a	n/a	n/a	18	8	7	9	n/a	n/a	n/a	n/a	n/a
724804	PROB	n/a	LTP166	ltpFR	9	n/a	n/a	n/a	n/a	n/a	n/a	11	2	6	3	n/a	n/a	n/a	n/a	n/a
728649	PROB	n/a	LTP166	ltpFR	9	n/a	n/a	n/a	n/a	n/a	n/a	16	3	8	5	n/a	n/a	n/a	n/a	n/a
731694	PROB	n/a	LTP166	ltpFR	9	n/a	n/a	n/a	n/a	n/a	n/a	16	5	6	5	n/a	n/a	n/a	n/a	n/a
733374	PROB	n/a	LTP166	ltpFR	9	n/a	n/a	n/a	n/a	n/a	n/a	22	5	9	9	n/a	n/a	n/a	n/a	n/a
737146	STOP	n/a	LTP166	ltpFR	9	n/a	n/a	n/a	n/a	n/a	n/a	n/a	n/a	n/a	n/a	n/a	n/a	n/a	n/a	n/a
738567	WORD	wordpools/wasnorm_wordpool_less_exclusions.txt	LTP166	ltpFR	9	3	1	BAY	102	n/a	1	n/a	0	0	0	0	0.5869140625	0.422607421875	upper	../fonts/amplitud.ttf
741580	START	n/a	LTP166	ltpFR	9	n/a	n/a	n/a	n/a	n/a	n/a	n/a	n/a	n/a	n/a	n/a	n/a	n/a	n/a	n/a
742544	PROB	n/a	LTP166	ltpFR	9	n/a	n/a	n/a	n/a	n/a	n/a	9	2	4	3	n/a	n/a	n/a	n/a	n/a
745356	PROB	n/a	LTP166	ltpFR	9	n/a	n/a	n/a	n/a	n/a	n/a	5	1	3	1	n/a	n/a	n/a	n/a	n/a
747053	PROB	n/a	LTP166	ltpFR	9	n/a	n/a	n/a	n/a	n/a	n/a	17	8	6	3	n/a	n/a	n/a	n/a	n/a
749067	PROB	n/a	LTP166	ltpFR	9	n/a	n/a	n/a	n/a	n/a	n/a	13	9	3	1	n/a	n/a	n/a	n/a	n/a
751979	PROB	n/a	LTP166	ltpFR	9	n/a	n/a	n/a	n/a	n/a	n/a	7	2	2	3	n/a	n/a	n/a	n/a	n/a
754126	PROB	n/a	LTP166	ltpFR	9	n/a	n/a	n/a	n/a	n/a	n/a	14	8	1	5	n/a	n/a	n/a	n/a	n/a
757580	STOP	n/a	LTP166	ltpFR	9	n/a	n/a	n/a	n/a	n/a	n/a	n/a	n/a	n/a	n/a	n/a	n/a	n/a	n/a	n/a
758737	WORD	wordpools/wasnorm_wordpool_less_exclusions.txt	LTP166	ltpFR	9	3	1	DUNGEON	507	n/a	0	n/a	0	0	0	0	0.5869140625	0.422607421875	upper	../fonts/amplitud.ttf
761750	START	n/a	LTP166	ltpFR	9	n/a	n/a	n/a	n/a	n/a	n/a	n/a	n/a	n/a	n/a	n/a	n/a	n/a	n/a	n/a
762846	PROB	n/a	LTP166	ltpFR	9	n/a	n/a	n/a	n/a	n/a	n/a	16	9	2	5	n/a	n/a	n/a	n/a	n/a
765426	PROB	n/a	LTP166	ltpFR	9	n/a	n/a	n/a	n/a	n/a	n/a	15	7	6	2	n/a	n/a	n/a	n/a	n/a
767823	PROB	n/a	LTP166	ltpFR	9	n/a	n/a	n/a	n/a	n/a	n/a	17	1	9	7	n/a	n/a	n/a	n/a	n/a
769387	PROB	n/a	LTP166	ltpFR	9	n/a	n/a	n/a	n/a	n/a	n/a	17	3	8	6	n/a	n/a	n/a	n/a	n/a
771950	PROB	n/a	LTP166	ltpFR	9	n/a	n/a	n/a	n/a	n/a	n/a	8	1	4	3	n/a	n/a	n/a	n/a	n/a
774263	PROB	n/a	LTP166	ltpFR	9	n/a	n/a	n/a	n/a	n/a	n/a	18	7	7	4	n/a	n/a	n/a	n/a	n/a
777058	STOP	n/a	LTP166	ltpFR	9	n/a	n/a	n/a	n/a	n/a	n/a	n/a	n/a	n/a	n/a	n/a	n/a	n/a	n/a	n/a
778690	WORD	wordpools/wasnorm_wordpool_less_exclusions.txt	LTP166	ltpFR	9	3	1	RUBY	1214	n/a	0	n/a	0	0	0	0	0.5869140625	0.422607421875	upper	../fonts/amplitud.ttf
781703	START	n/a	LTP166	ltpFR	9	n/a	n/a	n/a	n/a	n/a	n/a	n/a	n/a	n/a	n/a	n/a	n/a	n/a	n/a	n/a
782850	PROB	n/a	LTP166	ltpFR	9	n/a	n/a	n/a	n/a	n/a	n/a	23	7	9	7	n/a	n/a	n/a	n/a	n/a
785845	PROB	n/a	LTP166	ltpFR	9	n/a	n/a	n/a	n/a	n/a	n/a	12	5	3	4	n/a	n/a	n/a	n/a	n/a
788809	PROB	n/a	LTP166	ltpFR	9	n/a	n/a	n/a	n/a	n/a	n/a	16	3	7	6	n/a	n/a	n/a	n/a	n/a
792020	PROB	n/a	LTP166	ltpFR	9	n/a	n/a	n/a	n/a	n/a	n/a	16	6	3	7	n/a	n/a	n/a	n/a	n/a
794133	PROB	n/a	LTP166	ltpFR	9	n/a	n/a	n/a	n/a	n/a	n/a	13	5	2	6	n/a	n/a	n/a	n/a	n/a
797034	STOP	n/a	LTP166	ltpFR	9	n/a	n/a	n/a	n/a	n/a	n/a	n/a	n/a	n/a	n/a	n/a	n/a	n/a	n/a	n/a
798577	WORD	wordpools/wasnorm_wordpool_less_exclusions.txt	LTP166	ltpFR	9	3	0	RIB	1188	n/a	1	n/a	0	0	0	1	0.412841796875	0.57763671875	lower	../fonts/zerothre.ttf
801590	START	n/a	LTP166	ltpFR	9	n/a	n/a	n/a	n/a	n/a	n/a	n/a	n/a	n/a	n/a	n/a	n/a	n/a	n/a	n/a
802437	PROB	n/a	LTP166	ltpFR	9	n/a	n/a	n/a	n/a	n/a	n/a	17	4	9	4	n/a	n/a	n/a	n/a	n/a
806148	PROB	n/a	LTP166	ltpFR	9	n/a	n/a	n/a	n/a	n/a	n/a	17	2	8	7	n/a	n/a	n/a	n/a	n/a
808462	PROB	n/a	LTP166	ltpFR	9	n/a	n/a	n/a	n/a	n/a	n/a	11	4	6	1	n/a	n/a	n/a	n/a	n/a
810292	PROB	n/a	LTP166	ltpFR	9	n/a	n/a	n/a	n/a	n/a	n/a	16	7	8	1	n/a	n/a	n/a	n/a	n/a
812139	PROB	n/a	LTP166	ltpFR	9	n/a	n/a	n/a	n/a	n/a	n/a	15	7	4	4	n/a	n/a	n/a	n/a	n/a
817590	STOP	n/a	LTP166	ltpFR	9	n/a	n/a	n/a	n/a	n/a	n/a	n/a	n/a	n/a	n/a	n/a	n/a	n/a	n/a	n/a
818463	WORD	wordpools/wasnorm_wordpool_less_exclusions.txt	LTP166	ltpFR	9	3	0	RECIPE	1175	n/a	n/a	n/a	0	0	0	1	0.412841796875	0.57763671875	lower	../fonts/zerothre.ttf
821492	SLOW_MSG	n/a	LTP166	ltpFR	9	3	n/a	n/a	n/a	n/a	n/a	n/a	0	0	0	n/a	n/a	n/a	n/a	n/a
823024	START	n/a	LTP166	ltpFR	9	n/a	n/a	n/a	n/a	n/a	n/a	n/a	n/a	n/a	n/a	n/a	n/a	n/a	n/a	n/a
823889	PROB	n/a	LTP166	ltpFR	9	n/a	n/a	n/a	n/a	n/a	n/a	17	9	7	1	n/a	n/a	n/a	n/a	n/a
827234	PROB	n/a	LTP166	ltpFR	9	n/a	n/a	n/a	n/a	n/a	n/a	14	7	3	4	n/a	n/a	n/a	n/a	n/a
830063	PROB	n/a	LTP166	ltpFR	9	n/a	n/a	n/a	n/a	n/a	n/a	10	2	1	7	n/a	n/a	n/a	n/a	n/a
831628	PROB	n/a	LTP166	ltpFR	9	n/a	n/a	n/a	n/a	n/a	n/a	7	1	4	2	n/a	n/a	n/a	n/a	n/a
833341	PROB	n/a	LTP166	ltpFR	9	n/a	n/a	n/a	n/a	n/a	n/a	6	2	3	1	n/a	n/a	n/a	n/a	n/a
835138	PROB	n/a	LTP166	ltpFR	9	n/a	n/a	n/a	n/a	n/a	n/a	14	1	6	7	n/a	n/a	n/a	n/a	n/a
839023	STOP	n/a	LTP166	ltpFR	9	n/a	n/a	n/a	n/a	n/a	n/a	n/a	n/a	n/a	n/a	n/a	n/a	n/a	n/a	n/a
840930	REC_START	n/a	LTP166	ltpFR	9	3	n/a	n/a	n/a	n/a	n/a	n/a	0	0	0	n/a	n/a	n/a	n/a	n/a
843015	REC_WORD	wordpools/wasnorm_wordpool_less_exclusions.txt	LTP166	ltpFR	9	3	0	RIB	1188	n/a	1	n/a	0	0	0	n/a	n/a	n/a	n/a	n/a
844866	REC_WORD	wordpools/wasnorm_wordpool_less_exclusions.txt	LTP166	ltpFR	9	3	1	BULL	193	n/a	1	n/a	0	0	0	n/a	n/a	n/a	n/a	n/a
845619	REC_WORD	wordpools/wasnorm_wordpool_less_exclusions.txt	LTP166	ltpFR	9	3	0	RECIPE	1175	n/a	n/a	n/a	0	0	0	n/a	n/a	n/a	n/a	n/a
852000	REC_WORD	wordpools/wasnorm_wordpool_less_exclusions.txt	LTP166	ltpFR	9	3	0	INCENSE	735	n/a	1	n/a	0	0	0	n/a	n/a	n/a	n/a	n/a
854125	REC_WORD	wordpools/wasnorm_wordpool_less_exclusions.txt	LTP166	ltpFR	9	3	0	OINTMENT	974	n/a	0	n/a	0	0	0	n/a	n/a	n/a	n/a	n/a
862157	REC_WORD	wordpools/wasnorm_wordpool_less_exclusions.txt	LTP166	ltpFR	9	3	1	TREE	1502	n/a	1	n/a	0	0	0	n/a	n/a	n/a	n/a	n/a
864102	REC_WORD	wordpools/wasnorm_wordpool_less_exclusions.txt	LTP166	ltpFR	9	3	1	BAY	102	n/a	1	n/a	0	0	0	n/a	n/a	n/a	n/a	n/a
918165	START	n/a	LTP166	ltpFR	9	n/a	n/a	n/a	n/a	n/a	n/a	n/a	n/a	n/a	n/a	n/a	n/a	n/a	n/a	n/a
919680	PROB	n/a	LTP166	ltpFR	9	n/a	n/a	n/a	n/a	n/a	n/a	17	7	4	6	n/a	n/a	n/a	n/a	n/a
921992	PROB	n/a	LTP166	ltpFR	9	n/a	n/a	n/a	n/a	n/a	n/a	12	5	2	5	n/a	n/a	n/a	n/a	n/a
926165	STOP	n/a	LTP166	ltpFR	9	n/a	n/a	n/a	n/a	n/a	n/a	n/a	n/a	n/a	n/a	n/a	n/a	n/a	n/a	n/a
927367	WORD	wordpools/wasnorm_wordpool_less_exclusions.txt	LTP166	ltpFR	9	4	0	GARLIC	624	n/a	0	n/a	0	0	0	1	0.412841796875	0.57763671875	lower	../fonts/zerothre.ttf
930380	START	n/a	LTP166	ltpFR	9	n/a	n/a	n/a	n/a	n/a	n/a	n/a	n/a	n/a	n/a	n/a	n/a	n/a	n/a	n/a
931212	PROB	n/a	LTP166	ltpFR	9	n/a	n/a	n/a	n/a	n/a	n/a	18	5	5	8	n/a	n/a	n/a	n/a	n/a
932577	PROB	n/a	LTP166	ltpFR	9	n/a	n/a	n/a	n/a	n/a	n/a	22	9	7	6	n/a	n/a	n/a	n/a	n/a
937571	STOP	n/a	LTP166	ltpFR	9	n/a	n/a	n/a	n/a	n/a	n/a	n/a	n/a	n/a	n/a	n/a	n/a	n/a	n/a	n/a
939200	WORD	wordpools/wasnorm_wordpool_less_exclusions.txt	LTP166	ltpFR	9	4	0	BUGLE	189	n/a	1	n/a	0	0	0	1	0.412841796875	0.57763671875	lower	../fonts/zerothre.ttf
942213	START	n/a	LTP166	ltpFR	9	n/a	n/a	n/a	n/a	n/a	n/a	n/a	n/a	n/a	n/a	n/a	n/a	n/a	n/a	n/a
943144	PROB	n/a	LTP166	ltpFR	9	n/a	n/a	n/a	n/a	n/a	n/a	16	4	4	8	n/a	n/a	n/a	n/a	n/a
945341	PROB	n/a	LTP166	ltpFR	9	n/a	n/a	n/a	n/a	n/a	n/a	18	4	8	6	n/a	n/a	n/a	n/a	n/a
950213	STOP	n/a	LTP166	ltpFR	9	n/a	n/a	n/a	n/a	n/a	n/a	n/a	n/a	n/a	n/a	n/a	n/a	n/a	n/a	n/a
951315	WORD	wordpools/wasnorm_wordpool_less_exclusions.txt	LTP166	ltpFR	9	4	0	KEEPER	769	n/a	1	n/a	0	0	0	1	0.412841796875	0.57763671875	lower	../fonts/zerothre.ttf
954328	START	n/a	LTP166	ltpFR	9	n/a	n/a	n/a	n/a	n/a	n/a	n/a	n/a	n/a	n/a	n/a	n/a	n/a	n/a	n/a
955292	PROB	n/a	LTP166	ltpFR	9	n/a	n/a	n/a	n/a	n/a	n/a	14	7	2	5	n/a	n/a	n/a	n/a	n/a
957723	PROB	n/a	LTP166	ltpFR	9	n/a	n/a	n/a	n/a	n/a	n/a	17	6	8	3	n/a	n/a	n/a	n/a	n/a
959886	PROB	n/a	LTP166	ltpFR	9	n/a	n/a	n/a	n/a	n/a	n/a	18	9	5	4	n/a	n/a	n/a	n/a	n/a
961850	STOP	n/a	LTP166	ltpFR	9	n/a	n/a	n/a	n/a	n/a	n/a	n/a	n/a	n/a	n/a	n/a	n/a	n/a	n/a	n/a
963397	WORD	wordpools/wasnorm_wordpool_less_exclusions.txt	LTP166	ltpFR	9	4	0	DAD	433	n/a	1	n/a	0	0	0	1	0.412841796875	0.57763671875	lower	../fonts/zerothre.ttf
966410	START	n/a	LTP166	ltpFR	9	n/a	n/a	n/a	n/a	n/a	n/a	n/a	n/a	n/a	n/a	n/a	n/a	n/a	n/a	n/a
967408	PROB	n/a	LTP166	ltpFR	9	n/a	n/a	n/a	n/a	n/a	n/a	14	9	4	1	n/a	n/a	n/a	n/a	n/a
969622	PROB	n/a	LTP166	ltpFR	9	n/a	n/a	n/a	n/a	n/a	n/a	10	7	1	2	n/a	n/a	n/a	n/a	n/a
971152	PROB	n/a	LTP166	ltpFR	9	n/a	n/a	n/a	n/a	n/a	n/a	19	9	9	1	n/a	n/a	n/a	n/a	n/a
973819	STOP	n/a	LTP166	ltpFR	9	n/a	n/a	n/a	n/a	n/a	n/a	n/a	n/a	n/a	n/a	n/a	n/a	n/a	n/a	n/a
975462	WORD	wordpools/wasnorm_wordpool_less_exclusions.txt	LTP166	ltpFR	9	4	0	DEODORANT	448	n/a	0	n/a	0	0	0	1	0.412841796875	0.57763671875	lower	../fonts/zerothre.ttf
978475	START	n/a	LTP166	ltpFR	9	n/a	n/a	n/a	n/a	n/a	n/a	n/a	n/a	n/a	n/a	n/a	n/a	n/a	n/a	n/a
979423	PROB	n/a	LTP166	ltpFR	9	n/a	n/a	n/a	n/a	n/a	n/a	16	3	4	9	n/a	n/a	n/a	n/a	n/a
981654	PROB	n/a	LTP166	ltpFR	9	n/a	n/a	n/a	n/a	n/a	n/a	18	4	7	7	n/a	n/a	n/a	n/a	n/a
986475	STOP	n/a	LTP166	ltpFR	9	n/a	n/a	n/a	n/a	n/a	n/a	n/a	n/a	n/a	n/a	n/a	n/a	n/a	n/a	n/a
987461	WORD	wordpools/wasnorm_wordpool_less_exclusions.txt	LTP166	ltpFR	9	4	0	STONE	1385	n/a	0	n/a	0	0	0	1	0.412841796875	0.57763671875	lower	../fonts/zerothre.ttf
990474	START	n/a	LTP166	ltpFR	9	n/a	n/a	n/a	n/a	n/a	n/a	n/a	n/a	n/a	n/a	n/a	n/a	n/a	n/a	n/a
991622	PROB	n/a	LTP166	ltpFR	9	n/a	n/a	n/a	n/a	n/a	n/a	16	9	6	1	n/a	n/a	n/a	n/a	n/a
993369	PROB	n/a	LTP166	ltpFR	9	n/a	n/a	n/a	n/a	n/a	n/a	23	8	7	7	n/a	n/a	n/a	n/a	n/a
995833	PROB	n/a	LTP166	ltpFR	9	n/a	n/a	n/a	n/a	n/a	n/a	9	3	3	3	n/a	n/a	n/a	n/a	n/a
997506	STOP	n/a	LTP166	ltpFR	9	n/a	n/a	n/a	n/a	n/a	n/a	n/a	n/a	n/a	n/a	n/a	n/a	n/a	n/a	n/a
999377	WORD	wordpools/wasnorm_wordpool_less_exclusions.txt	LTP166	ltpFR	9	4	0	ROCK	1201	n/a	0	n/a	0	0	0	1	0.412841796875	0.57763671875	lower	../fonts/zerothre.ttf
1002389	START	n/a	LTP166	ltpFR	9	n/a	n/a	n/a	n/a	n/a	n/a	n/a	n/a	n/a	n/a	n/a	n/a	n/a	n/a	n/a
1003237	PROB	n/a	LTP166	ltpFR	9	n/a	n/a	n/a	n/a	n/a	n/a	13	2	7	4	n/a	n/a	n/a	n/a	n/a
1006466	PROB	n/a	LTP166	ltpFR	9	n/a	n/a	n/a	n/a	n/a	n/a	13	3	1	9	n/a	n/a	n/a	n/a	n/a
1010389	STOP	n/a	LTP166	ltpFR	9	n/a	n/a	n/a	n/a	n/a	n/a	n/a	n/a	n/a	n/a	n/a	n/a	n/a	n/a	n/a
1011242	WORD	wordpools/wasnorm_wordpool_less_exclusions.txt	LTP166	ltpFR	9	4	0	FRANCE	601	n/a	1	n/a	0	0	0	1	0.412841796875	0.57763671875	lower	../fonts/zerothre.ttf
1014255	START	n/a	LTP166	ltpFR	9	n/a	n/a	n/a	n/a	n/a	n/a	n/a	n/a	n/a	n/a	n/a	n/a	n/a	n/a	n/a
1015136	PROB	n/a	LTP166	ltpFR	9	n/a	n/a	n/a	n/a	n/a	n/a	11	3	2	6	n/a	n/a	n/a	n/a	n/a
1017667	PROB	n/a	LTP166	ltpFR	9	n/a	n/a	n/a	n/a	n/a	n/a	21	9	3	8	n/a	n/a	n/a	n/a	n/a
1020866	STOP	n/a	LTP166	ltpFR	9	n/a	n/a	n/a	n/a	n/a	n/a	n/a	n/a	n/a	n/a	n/a	n/a	n/a	n/a	n/a
1023424	WORD	wordpools/wasnorm_wordpool_less_exclusions.txt	LTP166	ltpFR	9	4	0	ENCYCLOPEDIA	533	n/a	1	n/a	0	0	0	1	0.412841796875	0.57763671875	lower	../fonts/zerothre.ttf
1026437	START	n/a	LTP166	ltpFR	9	n/a	n/a	n/a	n/a	n/a	n/a	n/a	n/a	n/a	n/a	n/a	n/a	n/a	n/a	n/a
1027585	PROB	n/a	LTP166	ltpFR	9	n/a	n/a	n/a	n/a	n/a	n/a	9	3	3	3	n/a	n/a	n/a	n/a	n/a
1028750	PROB	n/a	LTP166	ltpFR	9	n/a	n/a	n/a	n/a	n/a	n/a	14	9	4	1	n/a	n/a	n/a	n/a	n/a
1031495	PROB	n/a	LTP166	ltpFR	9	n/a	n/a	n/a	n/a	n/a	n/a	14	4	5	5	n/a	n/a	n/a	n/a	n/a
1033539	STOP	n/a	LTP166	ltpFR	9	n/a	n/a	n/a	n/a	n/a	n/a	n/a	n/a	n/a	n/a	n/a	n/a	n/a	n/a	n/a
1035607	WORD	wordpools/wasnorm_wordpool_less_exclusions.txt	LTP166	ltpFR	9	4	0	BARK	87	n/a	0	n/a	0	0	0	1	0.412841796875	0.57763671875	lower	../fonts/zerothre.ttf
1038619	START	n/a	LTP166	ltpFR	9	n/a	n/a	n/a	n/a	n/a	n/a	n/a	n/a	n/a	n/a	n/a	n/a	n/a	n/a	n/a
1039483	PROB	n/a	LTP166	ltpFR	9	n/a	n/a	n/a	n/a	n/a	n/a	24	6	9	9	n/a	n/a	n/a	n/a	n/a
1043095	PROB	n/a	LTP166	ltpFR	9	n/a	n/a	n/a	n/a	n/a	n/a	11	3	5	3	n/a	n/a	n/a	n/a	n/a
1045370	STOP	n/a	LTP166	ltpFR	9	n/a	n/a	n/a	n/a	n/a	n/a	n/a	n/a	n/a	n/a	n/a	n/a	n/a	n/a	n/a
1047606	WORD	wordpools/wasnorm_wordpool_less_exclusions.txt	LTP166	ltpFR	9	4	0	TIMBER	1469	n/a	0	n/a	0	0	0	1	0.412841796875	0.57763671875	lower	../fonts/zerothre.ttf
1050618	START	n/a	LTP166	ltpFR	9	n/a	n/a	n/a	n/a	n/a	n/a	n/a	n/a	n/a	n/a	n/a	n/a	n/a	n/a	n/a
1051816	PROB	n/a	LTP166	ltpFR	9	n/a	n/a	n/a	n/a	n/a	n/a	9	1	6	2	n/a	n/a	n/a	n/a	n/a
1054811	PROB	n/a	LTP166	ltpFR	9	n/a	n/a	n/a	n/a	n/a	n/a	12	4	5	3	n/a	n/a	n/a	n/a	n/a
1057024	PROB	n/a	LTP166	ltpFR	9	n/a	n/a	n/a	n/a	n/a	n/a	16	1	9	6	n/a	n/a	n/a	n/a	n/a
1058474	STOP	n/a	LTP166	ltpFR	9	n/a	n/a	n/a	n/a	n/a	n/a	n/a	n/a	n/a	n/a	n/a	n/a	n/a	n/a	n/a
1059821	WORD	wordpools/wasnorm_wordpool_less_exclusions.txt	LTP166	ltpFR	9	4	0	CAPITAL	238	n/a	1	n/a	0	0	0	1	0.412841796875	0.57763671875	lower	../fonts/zerothre.ttf
1062833	START	n/a	LTP166	ltpFR	9	n/a	n/a	n/a	n/a	n/a	n/a	n/a	n/a	n/a	n/a	n/a	n/a	n/a	n/a	n/a
1063930	PROB	n/a	LTP166	ltpFR	9	n/a	n/a	n/a	n/a	n/a	n/a	17	9	7	1	n/a	n/a	n/a	n/a	n/a
1066443	PROB	n/a	LTP166	ltpFR	9	n/a	n/a	n/a	n/a	n/a	n/a	11	2	3	6	n/a	n/a	n/a	n/a	n/a
1070833	STOP	n/a	LTP166	ltpFR	9	n/a	n/a	n/a	n/a	n/a	n/a	n/a	n/a	n/a	n/a	n/a	n/a	n/a	n/a	n/a
1071968	WORD	wordpools/wasnorm_wordpool_less_exclusions.txt	LTP166	ltpFR	9	4	0	ARCHITECT	36	n/a	1	n/a	0	0	0	1	0.412841796875	0.57763671875	lower	../fonts/zerothre.ttf
1074981	START	n/a	LTP166	ltpFR	9	n/a	n/a	n/a	n/a	n/a	n/a	n/a	n/a	n/a	n/a	n/a	n/a	n/a	n/a	n/a
1075879	PROB	n/a	LTP166	ltpFR	9	n/a	n/a	n/a	n/a	n/a	n/a	17	8	4	5	n/a	n/a	n/a	n/a	n/a
1079440	PROB	n/a	LTP166	ltpFR	9	n/a	n/a	n/a	n/a	n/a	n/a	17	3	8	6	n/a	n/a	n/a	n/a	n/a
1082514	STOP	n/a	LTP166	ltpFR	9	n/a	n/a	n/a	n/a	n/a	n/a	n/a	n/a	n/a	n/a	n/a	n/a	n/a	n/a	n/a
1083917	WORD	wordpools/wasnorm_wordpool_less_exclusions.txt	LTP166	ltpFR	9	4	0	LEOPARD	812	n/a	1	n/a	0	0	0	1	0.412841796875	0.57763671875	lower	../fonts/zerothre.ttf
1086930	START	n/a	LTP166	ltpFR	9	n/a	n/a	n/a	n/a	n/a	n/a	n/a	n/a	n/a	n/a	n/a	n/a	n/a	n/a	n/a
1087994	PROB	n/a	LTP166	ltpFR	9	n/a	n/a	n/a	n/a	n/a	n/a	9	1	6	2	n/a	n/a	n/a	n/a	n/a
1090658	PROB	n/a	LTP166	ltpFR	9	n/a	n/a	n/a	n/a	n/a	n/a	20	5	7	8	n/a	n/a	n/a	n/a	n/a
1094930	STOP	n/a	LTP166	ltpFR	9	n/a	n/a	n/a	n/a	n/a	n/a	n/a	n/a	n/a	n/a	n/a	n/a	n/a	n/a	n/a
1096149	WORD	wordpools/wasnorm_wordpool_less_exclusions.txt	LTP166	ltpFR	9	4	0	FEAST	556	n/a	1	n/a	0	0	0	1	0.412841796875	0.57763671875	lower	../fonts/zerothre.ttf
1099161	START	n/a	LTP166	ltpFR	9	n/a	n/a	n/a	n/a	n/a	n/a	n/a	n/a	n/a	n/a	n/a	n/a	n/a	n/a	n/a
1100110	PROB	n/a	LTP166	ltpFR	9	n/a	n/a	n/a	n/a	n/a	n/a	19	8	8	3	n/a	n/a	n/a	n/a	n/a
1102523	PROB	n/a	LTP166	ltpFR	9	n/a	n/a	n/a	n/a	n/a	n/a	17	4	9	4	n/a	n/a	n/a	n/a	n/a
1107160	STOP	n/a	LTP166	ltpFR	9	n/a	n/a	n/a	n/a	n/a	n/a	n/a	n/a	n/a	n/a	n/a	n/a	n/a	n/a	n/a
1108148	WORD	wordpools/wasnorm_wordpool_less_exclusions.txt	LTP166	ltpFR	9	4	0	STUMP	1396	n/a	1	n/a	0	0	0	1	0.412841796875	0.57763671875	lower	../fonts/zerothre.ttf
1111160	START	n/a	LTP166	ltpFR	9	n/a	n/a	n/a	n/a	n/a	n/a	n/a	n/a	n/a	n/a	n/a	n/a	n/a	n/a	n/a
1111975	PROB	n/a	LTP166	ltpFR	9	n/a	n/a	n/a	n/a	n/a	n/a	13	1	8	4	n/a	n/a	n/a	n/a	n/a
1115237	PROB	n/a	LTP166	ltpFR	9	n/a	n/a	n/a	n/a	n/a	n/a	19	2	8	9	n/a	n/a	n/a	n/a	n/a
1119159	STOP	n/a	LTP166	ltpFR	9	n/a	n/a	n/a	n/a	n/a	n/a	n/a	n/a	n/a	n/a	n/a	n/a	n/a	n/a	n/a
1120912	REC_START	n/a	LTP166	ltpFR	9	4	n/a	n/a	n/a	n/a	n/a	n/a	0	0	0	n/a	n/a	n/a	n/a	n/a
1122678	REC_WORD	wordpools/wasnorm_wordpool_less_exclusions.txt	LTP166	ltpFR	9	4	0	ENCYCLOPEDIA	533	n/a	1	n/a	0	0	0	n/a	n/a	n/a	n/a	n/a
1123678	REC_WORD_VV	wordpools/wasnorm_wordpool_less_exclusions.txt	LTP166	ltpFR	9	4	n/a	<>	-1	n/a	n/a	n/a	0	0	0	n/a	n/a	n/a	n/a	n/a
1128056	REC_WORD	wordpools/wasnorm_wordpool_less_exclusions.txt	LTP166	ltpFR	9	4	0	STONE	1385	n/a	0	n/a	0	0	0	n/a	n/a	n/a	n/a	n/a
1129018	REC_WORD	wordpools/wasnorm_wordpool_less_exclusions.txt	LTP166	ltpFR	9	4	0	ROCK	1201	n/a	0	n/a	0	0	0	n/a	n/a	n/a	n/a	n/a
1130914	REC_WORD	wordpools/wasnorm_wordpool_less_exclusions.txt	LTP166	ltpFR	9	4	0	TIMBER	1469	n/a	0	n/a	0	0	0	n/a	n/a	n/a	n/a	n/a
1202423	WORD	wordpools/wasnorm_wordpool_less_exclusions.txt	LTP166	ltpFR	9	5	1	PREACHER	1119	n/a	1	n/a	0	0	0	0	0.5869140625	0.422607421875	upper	../fonts/amplitud.ttf
1206318	WORD	wordpools/wasnorm_wordpool_less_exclusions.txt	LTP166	ltpFR	9	5	1	GEM	629	n/a	0	n/a	0	0	0	0	0.5869140625	0.422607421875	upper	../fonts/amplitud.ttf
1210378	WORD	wordpools/wasnorm_wordpool_less_exclusions.txt	LTP166	ltpFR	9	5	1	CLERK	321	n/a	1	n/a	0	0	0	0	0.5869140625	0.422607421875	upper	../fonts/amplitud.ttf
1214239	WORD	wordpools/wasnorm_wordpool_less_exclusions.txt	LTP166	ltpFR	9	5	0	CATHEDRAL	260	n/a	0	n/a	0	0	0	1	0.412841796875	0.57763671875	lower	../fonts/zerothre.ttf
1218266	WORD	wordpools/wasnorm_wordpool_less_exclusions.txt	LTP166	ltpFR	9	5	0	DONKEY	484	n/a	1	n/a	0	0	0	1	0.412841796875	0.57763671875	lower	../fonts/zerothre.ttf
1222144	WORD	wordpools/wasnorm_wordpool_less_exclusions.txt	LTP166	ltpFR	9	5	0	STALLION	1369	n/a	1	n/a	0	0	0	1	0.412841796875	0.57763671875	lower	../fonts/zerothre.ttf
1226138	WORD	wordpools/wasnorm_wordpool_less_exclusions.txt	LTP166	ltpFR	9	5	0	TACK	1428	n/a	0	n/a	0	0	0	1	0.412841796875	0.57763671875	lower	../fonts/zerothre.ttf
1230099	WORD	wordpools/wasnorm_wordpool_less_exclusions.txt	LTP166	ltpFR	9	5	0	COMPUTER	359	n/a	1	n/a	0	0	0	1	0.412841796875	0.57763671875	lower	../fonts/zerothre.ttf
1233960	WORD	wordpools/wasnorm_wordpool_less_exclusions.txt	LTP166	ltpFR	9	5	0	WHIP	1604	n/a	0	n/a	0	0	0	1	0.412841796875	0.57763671875	lower	../fonts/zerothre.ttf
1237805	WORD	wordpools/wasnorm_wordpool_less_exclusions.txt	LTP166	ltpFR	9	5	1	FUGITIVE	612	n/a	1	n/a	0	0	0	0	0.5869140625	0.422607421875	upper	../fonts/amplitud.ttf
1241898	WORD	wordpools/wasnorm_wordpool_less_exclusions.txt	LTP166	ltpFR	9	5	1	TOENAIL	1474	n/a	0	n/a	0	0	0	0	0.5869140625	0.422607421875	upper	../fonts/amplitud.ttf
1245942	WORD	wordpools/wasnorm_wordpool_less_exclusions.txt	LTP166	ltpFR	9	5	1	MARROW	872	n/a	0	n/a	0	0	0	0	0.5869140625	0.422607421875	upper	../fonts/amplitud.ttf
1249986	WORD	wordpools/wasnorm_wordpool_less_exclusions.txt	LTP166	ltpFR	9	5	1	STRING	1394	n/a	1	n/a	0	0	0	0	0.5869140625	0.422607421875	upper	../fonts/amplitud.ttf
1253946	WORD	wordpools/wasnorm_wordpool_less_exclusions.txt	LTP166	ltpFR	9	5	1	PIANO	1057	n/a	0	n/a	0	0	0	0	0.5869140625	0.422607421875	upper	../fonts/amplitud.ttf
1258057	WORD	wordpools/wasnorm_wordpool_less_exclusions.txt	LTP166	ltpFR	9	5	0	FIDDLE	561	n/a	1	n/a	0	0	0	1	0.412841796875	0.57763671875	lower	../fonts/zerothre.ttf
1262001	WORD	wordpools/wasnorm_wordpool_less_exclusions.txt	LTP166	ltpFR	9	5	0	VIOLA	1570	n/a	1	n/a	0	0	0	1	0.412841796875	0.57763671875	lower	../fonts/zerothre.ttf
1267993	REC_START	n/a	LTP166	ltpFR	9	5	n/a	n/a	n/a	n/a	n/a	n/a	0	0	0	n/a	n/a	n/a	n/a	n/a
1268955	REC_WORD	wordpools/wasnorm_wordpool_less_exclusions.txt	LTP166	ltpFR	9	5	0	FIDDLE	561	n/a	1	n/a	0	0	0	n/a	n/a	n/a	n/a	n/a
1269599	REC_WORD	wordpools/wasnorm_wordpool_less_exclusions.txt	LTP166	ltpFR	9	5	0	VIOLA	1570	n/a	1	n/a	0	0	0	n/a	n/a	n/a	n/a	n/a
1270562	REC_WORD	wordpools/wasnorm_wordpool_less_exclusions.txt	LTP166	ltpFR	9	5	1	PREACHER	1119	n/a	1	n/a	0	0	0	n/a	n/a	n/a	n/a	n/a
1271400	REC_WORD	wordpools/wasnorm_wordpool_less_exclusions.txt	LTP166	ltpFR	9	5	1	GEM	629	n/a	0	n/a	0	0	0	n/a	n/a	n/a	n/a	n/a
1272667	REC_WORD	wordpools/wasnorm_wordpool_less_exclusions.txt	LTP166	ltpFR	9	5	1	CLERK	321	n/a	1	n/a	0	0	0	n/a	n/a	n/a	n/a	n/a
1273195	REC_WORD	wordpools/wasnorm_wordpool_less_exclusions.txt	LTP166	ltpFR	9	5	0	CATHEDRAL	260	n/a	0	n/a	0	0	0	n/a	n/a	n/a	n/a	n/a
1274195	REC_WORD_VV	wordpools/wasnorm_wordpool_less_exclusions.txt	LTP166	ltpFR	9	5	n/a	<>	-1	n/a	n/a	n/a	0	0	0	n/a	n/a	n/a	n/a	n/a
1274842	REC_WORD	wordpools/wasnorm_wordpool_less_exclusions.txt	LTP166	ltpFR	9	5	0	DONKEY	484	n/a	1	n/a	0	0	0	n/a	n/a	n/a	n/a	n/a
1275445	REC_WORD	wordpools/wasnorm_wordpool_less_exclusions.txt	LTP166	ltpFR	9	5	0	STALLION	1369	n/a	1	n/a	0	0	0	n/a	n/a	n/a	n/a	n/a
1278035	REC_WORD	wordpools/wasnorm_wordpool_less_exclusions.txt	LTP166	ltpFR	9	5	0	TACK	1428	n/a	0	n/a	0	0	0	n/a	n/a	n/a	n/a	n/a
1280020	REC_WORD	wordpools/wasnorm_wordpool_less_exclusions.txt	LTP166	ltpFR	9	5	1	TOENAIL	1474	n/a	0	n/a	0	0	0	n/a	n/a	n/a	n/a	n/a
1284929	REC_WORD	wordpools/wasnorm_wordpool_less_exclusions.txt	LTP166	ltpFR	9	5	0	COMPUTER	359	n/a	1	n/a	0	0	0	n/a	n/a	n/a	n/a	n/a
1285766	REC_WORD	wordpools/wasnorm_wordpool_less_exclusions.txt	LTP166	ltpFR	9	5	0	WHIP	1604	n/a	0	n/a	0	0	0	n/a	n/a	n/a	n/a	n/a
1289025	REC_WORD	wordpools/wasnorm_wordpool_less_exclusions.txt	LTP166	ltpFR	9	5	1	FUGITIVE	612	n/a	1	n/a	0	0	0	n/a	n/a	n/a	n/a	n/a
1290025	REC_WORD_VV	wordpools/wasnorm_wordpool_less_exclusions.txt	LTP166	ltpFR	9	5	n/a	<>	-1	n/a	n/a	n/a	0	0	0	n/a	n/a	n/a	n/a	n/a
1295500	REC_WORD_VV	wordpools/wasnorm_wordpool_less_exclusions.txt	LTP166	ltpFR	9	5	n/a	<>	-1	n/a	n/a	n/a	0	0	0	n/a	n/a	n/a	n/a	n/a
1347824	WORD	wordpools/wasnorm_wordpool_less_exclusions.txt	LTP166	ltpFR	9	6	1	HIKER	708	n/a	1	n/a	0	0	0	0	0.5869140625	0.422607421875	upper	../fonts/amplitud.ttf
1351718	WORD	wordpools/wasnorm_wordpool_less_exclusions.txt	LTP166	ltpFR	9	6	1	SOCK	1339	n/a	0	n/a	0	0	0	0	0.5869140625	0.422607421875	upper	../fonts/amplitud.ttf
1355646	WORD	wordpools/wasnorm_wordpool_less_exclusions.txt	LTP166	ltpFR	9	6	1	FINGERNAIL	568	n/a	1	n/a	0	0	0	0	0.5869140625	0.422607421875	upper	../fonts/amplitud.ttf
1359640	WORD	wordpools/wasnorm_wordpool_less_exclusions.txt	LTP166	ltpFR	9	6	1	ROAD	1196	n/a	0	n/a	0	0	0	0	0.5869140625	0.422607421875	upper	../fonts/amplitud.ttf
1363733	WORD	wordpools/wasnorm_wordpool_less_exclusions.txt	LTP166	ltpFR	9	6	1	CHOCOLATE	306	n/a	0	n/a	0	0	0	0	0.5869140625	0.422607421875	upper	../fonts/amplitud.ttf
1367628	WORD	wordpools/wasnorm_wordpool_less_exclusions.txt	LTP166	ltpFR	9	6	1	MONSTER	912	n/a	0	n/a	0	0	0	0	0.5869140625	0.422607421875	upper	../fonts/amplitud.ttf
1371588	WORD	wordpools/wasnorm_wordpool_less_exclusions.txt	LTP166	ltpFR	9	6	1	TURTLE	1522	n/a	1	n/a	0	0	0	0	0.5869140625	0.422607421875	upper	../fonts/amplitud.ttf
1375632	WORD	wordpools/wasnorm_wordpool_less_exclusions.txt	LTP166	ltpFR	9	6	1	TORTOISE	1486	n/a	1	n/a	0	0	0	0	0.5869140625	0.422607421875	upper	../fonts/amplitud.ttf
1379593	WORD	wordpools/wasnorm_wordpool_less_exclusions.txt	LTP166	ltpFR	9	6	1	BILL	126	n/a	0	n/a	0	0	0	0	0.5869140625	0.422607421875	upper	../fonts/amplitud.ttf
1383720	WORD	wordpools/wasnorm_wordpool_less_exclusions.txt	LTP166	ltpFR	9	6	1	CANDY	230	n/a	0	n/a	0	0	0	0	0.5869140625	0.422607421875	upper	../fonts/amplitud.ttf
1387615	WORD	wordpools/wasnorm_wordpool_less_exclusions.txt	LTP166	ltpFR	9	6	1	CAPTAIN	239	n/a	1	n/a	0	0	0	0	0.5869140625	0.422607421875	upper	../fonts/amplitud.ttf
1391692	WORD	wordpools/wasnorm_wordpool_less_exclusions.txt	LTP166	ltpFR	9	6	1	SUBURB	1399	n/a	0	n/a	0	0	0	0	0.5869140625	0.422607421875	upper	../fonts/amplitud.ttf
1395586	WORD	wordpools/wasnorm_wordpool_less_exclusions.txt	LTP166	ltpFR	9	6	1	COUNTRY	388	n/a	0	n/a	0	0	0	0	0.5869140625	0.422607421875	upper	../fonts/amplitud.ttf
1399763	WORD	wordpools/wasnorm_wordpool_less_exclusions.txt	LTP166	ltpFR	9	6	1	PLUTO	1092	n/a	0	n/a	0	0	0	0	0.5869140625	0.422607421875	upper	../fonts/amplitud.ttf
1403972	WORD	wordpools/wasnorm_wordpool_less_exclusions.txt	LTP166	ltpFR	9	6	1	TRASH	1497	n/a	0	n/a	0	0	0	0	0.5869140625	0.422607421875	upper	../fonts/amplitud.ttf
1408116	WORD	wordpools/wasnorm_wordpool_less_exclusions.txt	LTP166	ltpFR	9	6	1	NICKEL	950	n/a	0	n/a	0	0	0	0	0.5869140625	0.422607421875	upper	../fonts/amplitud.ttf
1411129	START	n/a	LTP166	ltpFR	9	n/a	n/a	n/a	n/a	n/a	n/a	n/a	n/a	n/a	n/a	n/a	n/a	n/a	n/a	n/a
1412260	PROB	n/a	LTP166	ltpFR	9	n/a	n/a	n/a	n/a	n/a	n/a	12	9	1	2	n/a	n/a	n/a	n/a	n/a
1419129	STOP	n/a	LTP166	ltpFR	9	n/a	n/a	n/a	n/a	n/a	n/a	n/a	n/a	n/a	n/a	n/a	n/a	n/a	n/a	n/a
1421047	REC_START	n/a	LTP166	ltpFR	9	6	n/a	n/a	n/a	n/a	n/a	n/a	0	0	0	n/a	n/a	n/a	n/a	n/a
1422099	REC_WORD	wordpools/wasnorm_wordpool_less_exclusions.txt	LTP166	ltpFR	9	6	1	NICKEL	950	n/a	0	n/a	0	0	0	n/a	n/a	n/a	n/a	n/a
1425048	REC_WORD_VV	wordpools/wasnorm_wordpool_less_exclusions.txt	LTP166	ltpFR	9	6	n/a	<>	-1	n/a	n/a	n/a	0	0	0	n/a	n/a	n/a	n/a	n/a
1425557	REC_WORD	wordpools/wasnorm_wordpool_less_exclusions.txt	LTP166	ltpFR	9	6	1	CAPTAIN	239	n/a	1	n/a	0	0	0	n/a	n/a	n/a	n/a	n/a
1426200	REC_WORD	wordpools/wasnorm_wordpool_less_exclusions.txt	LTP166	ltpFR	9	6	1	COUNTRY	388	n/a	0	n/a	0	0	0	n/a	n/a	n/a	n/a	n/a
1427377	REC_WORD	wordpools/wasnorm_wordpool_less_exclusions.txt	LTP166	ltpFR	9	6	1	PLUTO	1092	n/a	0	n/a	0	0	0	n/a	n/a	n/a	n/a	n/a
1430979	REC_WORD	wordpools/wasnorm_wordpool_less_exclusions.txt	LTP166	ltpFR	9	6	1	HIKER	708	n/a	1	n/a	0	0	0	n/a	n/a	n/a	n/a	n/a
1432845	REC_WORD	wordpools/wasnorm_wordpool_less_exclusions.txt	LTP166	ltpFR	9	6	1	SOCK	1339	n/a	0	n/a	0	0	0	n/a	n/a	n/a	n/a	n/a
1435574	REC_WORD	wordpools/wasnorm_wordpool_less_exclusions.txt	LTP166	ltpFR	9	6	1	FINGERNAIL	568	n/a	1	n/a	0	0	0	n/a	n/a	n/a	n/a	n/a
1437340	REC_WORD	wordpools/wasnorm_wordpool_less_exclusions.txt	LTP166	ltpFR	9	6	1	CHOCOLATE	306	n/a	0	n/a	0	0	0	n/a	n/a	n/a	n/a	n/a
1440837	REC_WORD	wordpools/wasnorm_wordpool_less_exclusions.txt	LTP166	ltpFR	9	6	1	MONSTER	912	n/a	0	n/a	0	0	0	n/a	n/a	n/a	n/a	n/a
1443022	REC_WORD	wordpools/wasnorm_wordpool_less_exclusions.txt	LTP166	ltpFR	9	6	1	TURTLE	1522	n/a	1	n/a	0	0	0	n/a	n/a	n/a	n/a	n/a
1443990	REC_WORD	wordpools/wasnorm_wordpool_less_exclusions.txt	LTP166	ltpFR	9	6	1	TORTOISE	1486	n/a	1	n/a	0	0	0	n/a	n/a	n/a	n/a	n/a
1445177	REC_WORD	wordpools/wasnorm_wordpool_less_exclusions.txt	LTP166	ltpFR	9	6	1	CANDY	230	n/a	0	n/a	0	0	0	n/a	n/a	n/a	n/a	n/a
1446594	REC_WORD	wordpools/wasnorm_wordpool_less_exclusions.txt	LTP166	ltpFR	9	6	1	SUBURB	1399	n/a	0	n/a	0	0	0	n/a	n/a	n/a	n/a	n/a
1449941	REC_WORD_VV	wordpools/wasnorm_wordpool_less_exclusions.txt	LTP166	ltpFR	9	6	n/a	<>	-1	n/a	n/a	n/a	0	0	0	n/a	n/a	n/a	n/a	n/a
1511512	WORD	wordpools/wasnorm_wordpool_less_exclusions.txt	LTP166	ltpFR	9	7	0	RASPBERRY	1168	n/a	0	n/a	0	0	0	1	0.412841796875	0.57763671875	lower	../fonts/zerothre.ttf
1515439	WORD	wordpools/wasnorm_wordpool_less_exclusions.txt	LTP166	ltpFR	9	7	0	TEAM	1441	n/a	1	n/a	0	0	0	1	0.412841796875	0.57763671875	lower	../fonts/zerothre.ttf
1519517	WORD	wordpools/wasnorm_wordpool_less_exclusions.txt	LTP166	ltpFR	9	7	0	BAKER	71	n/a	1	n/a	0	0	0	1	0.412841796875	0.57763671875	lower	../fonts/zerothre.ttf
1523728	WORD	wordpools/wasnorm_wordpool_less_exclusions.txt	LTP166	ltpFR	9	7	1	SHORTCAKE	1292	n/a	1	n/a	0	0	0	0	0.5869140625	0.422607421875	upper	../fonts/amplitud.ttf
1527722	WORD	wordpools/wasnorm_wordpool_less_exclusions.txt	LTP166	ltpFR	9	7	1	BUTTER	205	n/a	0	n/a	0	0	0	0	0.5869140625	0.422607421875	upper	../fonts/amplitud.ttf
1531898	WORD	wordpools/wasnorm_wordpool_less_exclusions.txt	LTP166	ltpFR	9	7	1	SHRIMP	1297	n/a	1	n/a	0	0	0	0	0.5869140625	0.422607421875	upper	../fonts/amplitud.ttf
1535826	WORD	wordpools/wasnorm_wordpool_less_exclusions.txt	LTP166	ltpFR	9	7	1	QUEEN	1149	n/a	1	n/a	0	0	0	0	0.5869140625	0.422607421875	upper	../fonts/amplitud.ttf
1539821	WORD	wordpools/wasnorm_wordpool_less_exclusions.txt	LTP166	ltpFR	9	7	1	COBBLER	335	n/a	0	n/a	0	0	0	0	0.5869140625	0.422607421875	upper	../fonts/amplitud.ttf
1544013	WORD	wordpools/wasnorm_wordpool_less_exclusions.txt	LTP166	ltpFR	9	7	1	APPLE	33	n/a	1	n/a	0	0	0	0	0.5869140625	0.422607421875	upper	../fonts/amplitud.ttf
1548007	WORD	wordpools/wasnorm_wordpool_less_exclusions.txt	LTP166	ltpFR	9	7	0	TENT	1449	n/a	0	n/a	0	0	0	1	0.412841796875	0.57763671875	lower	../fonts/zerothre.ttf
1552035	WORD	wordpools/wasnorm_wordpool_less_exclusions.txt	LTP166	ltpFR	9	7	0	BOOT	150	n/a	0	n/a	0	0	0	1	0.412841796875	0.57763671875	lower	../fonts/zerothre.ttf
1555929	WORD	wordpools/wasnorm_wordpool_less_exclusions.txt	LTP166	ltpFR	9	7	0	NOMAD	955	n/a	1	n/a	0	0	0	1	0.412841796875	0.57763671875	lower	../fonts/zerothre.ttf
1559923	WORD	wordpools/wasnorm_wordpool_less_exclusions.txt	LTP166	ltpFR	9	7	0	HEN	703	n/a	1	n/a	0	0	0	1	0.412841796875	0.57763671875	lower	../fonts/zerothre.ttf
1564000	WORD	wordpools/wasnorm_wordpool_less_exclusions.txt	LTP166	ltpFR	9	7	0	CRAB	397	n/a	0	n/a	0	0	0	1	0.412841796875	0.57763671875	lower	../fonts/zerothre.ttf
1567928	WORD	wordpools/wasnorm_wordpool_less_exclusions.txt	LTP166	ltpFR	9	7	1	VINE	1568	n/a	0	n/a	0	0	0	0	0.5869140625	0.422607421875	upper	../fonts/amplitud.ttf
1571972	WORD	wordpools/wasnorm_wordpool_less_exclusions.txt	LTP166	ltpFR	9	7	1	ALMOND	18	n/a	1	n/a	0	0	0	0	0.5869140625	0.422607421875	upper	../fonts/amplitud.ttf
1574984	START	n/a	LTP166	ltpFR	9	n/a	n/a	n/a	n/a	n/a	n/a	n/a	n/a	n/a	n/a	n/a	n/a	n/a	n/a	n/a
1575833	PROB	n/a	LTP166	ltpFR	9	n/a	n/a	n/a	n/a	n/a	n/a	11	3	2	6	n/a	n/a	n/a	n/a	n/a
1578812	PROB	n/a	LTP166	ltpFR	9	n/a	n/a	n/a	n/a	n/a	n/a	13	4	6	3	n/a	n/a	n/a	n/a	n/a
1580776	PROB	n/a	LTP166	ltpFR	9	n/a	n/a	n/a	n/a	n/a	n/a	23	9	9	5	n/a	n/a	n/a	n/a	n/a
1585235	PROB	n/a	LTP166	ltpFR	9	n/a	n/a	n/a	n/a	n/a	n/a	13	9	1	3	n/a	n/a	n/a	n/a	n/a
1586999	PROB	n/a	LTP166	ltpFR	9	n/a	n/a	n/a	n/a	n/a	n/a	19	4	6	9	n/a	n/a	n/a	n/a	n/a
1590983	STOP	n/a	LTP166	ltpFR	9	n/a	n/a	n/a	n/a	n/a	n/a	n/a	n/a	n/a	n/a	n/a	n/a	n/a	n/a	n/a
1592842	REC_START	n/a	LTP166	ltpFR	9	7	n/a	n/a	n/a	n/a	n/a	n/a	0	0	0	n/a	n/a	n/a	n/a	n/a
1594957	REC_WORD	wordpools/wasnorm_wordpool_less_exclusions.txt	LTP166	ltpFR	9	7	1	APPLE	33	n/a	1	n/a	0	0	0	n/a	n/a	n/a	n/a	n/a
1595611	REC_WORD	wordpools/wasnorm_wordpool_less_exclusions.txt	LTP166	ltpFR	9	7	1	COBBLER	335	n/a	0	n/a	0	0	0	n/a	n/a	n/a	n/a	n/a
1596354	REC_WORD	wordpools/wasnorm_wordpool_less_exclusions.txt	LTP166	ltpFR	9	7	0	BAKER	71	n/a	1	n/a	0	0	0	n/a	n/a	n/a	n/a	n/a
1598000	REC_WORD	wordpools/wasnorm_wordpool_less_exclusions.txt	LTP166	ltpFR	9	7	0	NOMAD	955	n/a	1	n/a	0	0	0	n/a	n/a	n/a	n/a	n/a
1600943	REC_WORD	wordpools/wasnorm_wordpool_less_exclusions.txt	LTP166	ltpFR	9	7	1	QUEEN	1149	n/a	1	n/a	0	0	0	n/a	n/a	n/a	n/a	n/a
1602066	REC_WORD	wordpools/wasnorm_wordpool_less_exclusions.txt	LTP166	ltpFR	9	7	1	SHRIMP	1297	n/a	1	n/a	0	0	0	n/a	n/a	n/a	n/a	n/a
1603148	REC_WORD	wordpools/wasnorm_wordpool_less_exclusions.txt	LTP166	ltpFR	9	7	1	VINE	1568	n/a	0	n/a	0	0	0	n/a	n/a	n/a	n/a	n/a
1606725	REC_WORD	wordpools/wasnorm_wordpool_less_exclusions.txt	LTP166	ltpFR	9	7	0	CRAB	397	n/a	0	n/a	0	0	0	n/a	n/a	n/a	n/a	n/a
1615011	REC_WORD	wordpools/wasnorm_wordpool_less_exclusions.txt	LTP166	ltpFR	9	7	0	RASPBERRY	1168	n/a	0	n/a	0	0	0	n/a	n/a	n/a	n/a	n/a
1616164	REC_WORD	wordpools/wasnorm_wordpool_less_exclusions.txt	LTP166	ltpFR	9	7	0	TEAM	1441	n/a	1	n/a	0	0	0	n/a	n/a	n/a	n/a	n/a
1671989	START	n/a	LTP166	ltpFR	9	n/a	n/a	n/a	n/a	n/a	n/a	n/a	n/a	n/a	n/a	n/a	n/a	n/a	n/a	n/a
1673503	PROB	n/a	LTP166	ltpFR	9	n/a	n/a	n/a	n/a	n/a	n/a	21	8	7	6	n/a	n/a	n/a	n/a	n/a
1676981	PROB	n/a	LTP166	ltpFR	9	n/a	n/a	n/a	n/a	n/a	n/a	17	1	9	7	n/a	n/a	n/a	n/a	n/a
1678379	PROB	n/a	LTP166	ltpFR	9	n/a	n/a	n/a	n/a	n/a	n/a	12	5	2	5	n/a	n/a	n/a	n/a	n/a
1679522	STOP	n/a	LTP166	ltpFR	9	n/a	n/a	n/a	n/a	n/a	n/a	n/a	n/a	n/a	n/a	n/a	n/a	n/a	n/a	n/a
1681009	WORD	wordpools/wasnorm_wordpool_less_exclusions.txt	LTP166	ltpFR	9	8	1	RING	1193	n/a	0	n/a	0	0	0	0	0.5869140625	0.422607421875	upper	../fonts/amplitud.ttf
1684021	START	n/a	LTP166	ltpFR	9	n/a	n/a	n/a	n/a	n/a	n/a	n/a	n/a	n/a	n/a	n/a	n/a	n/a	n/a	n/a
1685086	PROB	n/a	LTP166	ltpFR	9	n/a	n/a	n/a	n/a	n/a	n/a	11	6	1	4	n/a	n/a	n/a	n/a	n/a
1686601	PROB	n/a	LTP166	ltpFR	9	n/a	n/a	n/a	n/a	n/a	n/a	14	3	2	9	n/a	n/a	n/a	n/a	n/a
1688498	PROB	n/a	LTP166	ltpFR	9	n/a	n/a	n/a	n/a	n/a	n/a	8	1	6	1	n/a	n/a	n/a	n/a	n/a
1689830	PROB	n/a	LTP166	ltpFR	9	n/a	n/a	n/a	n/a	n/a	n/a	13	3	5	5	n/a	n/a	n/a	n/a	n/a
1691402	STOP	n/a	LTP166	ltpFR	9	n/a	n/a	n/a	n/a	n/a	n/a	n/a	n/a	n/a	n/a	n/a	n/a	n/a	n/a	n/a
1693174	WORD	wordpools/wasnorm_wordpool_less_exclusions.txt	LTP166	ltpFR	9	8	1	DIAMOND	458	n/a	0	n/a	0	0	0	0	0.5869140625	0.422607421875	upper	../fonts/amplitud.ttf
1696187	START	n/a	LTP166	ltpFR	9	n/a	n/a	n/a	n/a	n/a	n/a	n/a	n/a	n/a	n/a	n/a	n/a	n/a	n/a	n/a
1697301	PROB	n/a	LTP166	ltpFR	9	n/a	n/a	n/a	n/a	n/a	n/a	13	6	6	1	n/a	n/a	n/a	n/a	n/a
1699148	PROB	n/a	LTP166	ltpFR	9	n/a	n/a	n/a	n/a	n/a	n/a	7	1	2	4	n/a	n/a	n/a	n/a	n/a
1701495	PROB	n/a	LTP166	ltpFR	9	n/a	n/a	n/a	n/a	n/a	n/a	17	8	7	2	n/a	n/a	n/a	n/a	n/a
1703170	STOP	n/a	LTP166	ltpFR	9	n/a	n/a	n/a	n/a	n/a	n/a	n/a	n/a	n/a	n/a	n/a	n/a	n/a	n/a	n/a
1705173	WORD	wordpools/wasnorm_wordpool_less_exclusions.txt	LTP166	ltpFR	9	8	0	WITCH	1617	n/a	1	n/a	0	0	0	1	0.412841796875	0.57763671875	lower	../fonts/zerothre.ttf
1708185	START	n/a	LTP166	ltpFR	9	n/a	n/a	n/a	n/a	n/a	n/a	n/a	n/a	n/a	n/a	n/a	n/a	n/a	n/a	n/a
1709150	PROB	n/a	LTP166	ltpFR	9	n/a	n/a	n/a	n/a	n/a	n/a	15	6	2	7	n/a	n/a	n/a	n/a	n/a
1711697	PROB	n/a	LTP166	ltpFR	9	n/a	n/a	n/a	n/a	n/a	n/a	19	4	6	9	n/a	n/a	n/a	n/a	n/a
1713311	PROB	n/a	LTP166	ltpFR	9	n/a	n/a	n/a	n/a	n/a	n/a	17	6	5	6	n/a	n/a	n/a	n/a	n/a
1715627	STOP	n/a	LTP166	ltpFR	9	n/a	n/a	n/a	n/a	n/a	n/a	n/a	n/a	n/a	n/a	n/a	n/a	n/a	n/a	n/a
1717354	WORD	wordpools/wasnorm_wordpool_less_exclusions.txt	LTP166	ltpFR	9	8	0	BOAT	144	n/a	1	n/a	0	0	0	1	0.412841796875	0.57763671875	lower	../fonts/zerothre.ttf
1720367	START	n/a	LTP166	ltpFR	9	n/a	n/a	n/a	n/a	n/a	n/a	n/a	n/a	n/a	n/a	n/a	n/a	n/a	n/a	n/a
1721398	PROB	n/a	LTP166	ltpFR	9	n/a	n/a	n/a	n/a	n/a	n/a	14	5	8	1	n/a	n/a	n/a	n/a	n/a
1724611	PROB	n/a	LTP166	ltpFR	9	n/a	n/a	n/a	n/a	n/a	n/a	12	4	2	6	n/a	n/a	n/a	n/a	n/a
1727898	STOP	n/a	LTP166	ltpFR	9	n/a	n/a	n/a	n/a	n/a	n/a	n/a	n/a	n/a	n/a	n/a	n/a	n/a	n/a	n/a
1729503	WORD	wordpools/wasnorm_wordpool_less_exclusions.txt	LTP166	ltpFR	9	8	1	ANTLER	29	n/a	0	n/a	0	0	0	0	0.5869140625	0.422607421875	upper	../fonts/amplitud.ttf
1732516	START	n/a	LTP166	ltpFR	9	n/a	n/a	n/a	n/a	n/a	n/a	n/a	n/a	n/a	n/a	n/a	n/a	n/a	n/a	n/a
1733347	PROB	n/a	LTP166	ltpFR	9	n/a	n/a	n/a	n/a	n/a	n/a	14	3	6	5	n/a	n/a	n/a	n/a	n/a
1735893	PROB	n/a	LTP166	ltpFR	9	n/a	n/a	n/a	n/a	n/a	n/a	15	1	8	6	n/a	n/a	n/a	n/a	n/a
1739005	PROB	n/a	LTP166	ltpFR	9	n/a	n/a	n/a	n/a	n/a	n/a	13	3	6	4	n/a	n/a	n/a	n/a	n/a
1740410	STOP	n/a	LTP166	ltpFR	9	n/a	n/a	n/a	n/a	n/a	n/a	n/a	n/a	n/a	n/a	n/a	n/a	n/a	n/a	n/a
1741669	WORD	wordpools/wasnorm_wordpool_less_exclusions.txt	LTP166	ltpFR	9	8	1	BARLEY	88	n/a	0	n/a	0	0	0	0	0.5869140625	0.422607421875	upper	../fonts/amplitud.ttf
1744682	START	n/a	LTP166	ltpFR	9	n/a	n/a	n/a	n/a	n/a	n/a	n/a	n/a	n/a	n/a	n/a	n/a	n/a	n/a	n/a
1745796	PROB	n/a	LTP166	ltpFR	9	n/a	n/a	n/a	n/a	n/a	n/a	14	3	3	8	n/a	n/a	n/a	n/a	n/a
1748075	PROB	n/a	LTP166	ltpFR	9	n/a	n/a	n/a	n/a	n/a	n/a	14	2	5	7	n/a	n/a	n/a	n/a	n/a
1750589	PROB	n/a	LTP166	ltpFR	9	n/a	n/a	n/a	n/a	n/a	n/a	14	7	5	2	n/a	n/a	n/a	n/a	n/a
1752130	STOP	n/a	LTP166	ltpFR	9	n/a	n/a	n/a	n/a	n/a	n/a	n/a	n/a	n/a	n/a	n/a	n/a	n/a	n/a	n/a
1753718	WORD	wordpools/wasnorm_wordpool_less_exclusions.txt	LTP166	ltpFR	9	8	1	PEAR	1033	n/a	1	n/a	0	0	0	0	0.5869140625	0.422607421875	upper	../fonts/amplitud.ttf
1756731	START	n/a	LTP166	ltpFR	9	n/a	n/a	n/a	n/a	n/a	n/a	n/a	n/a	n/a	n/a	n/a	n/a	n/a	n/a	n/a
1757579	PROB	n/a	LTP166	ltpFR	9	n/a	n/a	n/a	n/a	n/a	n/a	7	1	1	5	n/a	n/a	n/a	n/a	n/a
1760423	PROB	n/a	LTP166	ltpFR	9	n/a	n/a	n/a	n/a	n/a	n/a	9	2	1	6	n/a	n/a	n/a	n/a	n/a
1762171	PROB	n/a	LTP166	ltpFR	9	n/a	n/a	n/a	n/a	n/a	n/a	8	4	2	1	n/a	n/a	n/a	n/a	n/a
1763843	STOP	n/a	LTP166	ltpFR	9	n/a	n/a	n/a	n/a	n/a	n/a	n/a	n/a	n/a	n/a	n/a	n/a	n/a	n/a	n/a
1765766	WORD	wordpools/wasnorm_wordpool_less_exclusions.txt	LTP166	ltpFR	9	8	1	ATHLETE	52	n/a	1	n/a	0	0	0	0	0.5869140625	0.422607421875	upper	../fonts/amplitud.ttf
1768779	START	n/a	LTP166	ltpFR	9	n/a	n/a	n/a	n/a	n/a	n/a	n/a	n/a	n/a	n/a	n/a	n/a	n/a	n/a	n/a
1769727	PROB	n/a	LTP166	ltpFR	9	n/a	n/a	n/a	n/a	n/a	n/a	17	6	2	9	n/a	n/a	n/a	n/a	n/a
1774053	PROB	n/a	LTP166	ltpFR	9	n/a	n/a	n/a	n/a	n/a	n/a	17	9	7	1	n/a	n/a	n/a	n/a	n/a
1775779	STOP	n/a	LTP166	ltpFR	9	n/a	n/a	n/a	n/a	n/a	n/a	n/a	n/a	n/a	n/a	n/a	n/a	n/a	n/a	n/a
1777931	WORD	wordpools/wasnorm_wordpool_less_exclusions.txt	LTP166	ltpFR	9	8	0	ACROBAT	4	n/a	1	n/a	0	0	0	1	0.412841796875	0.57763671875	lower	../fonts/zerothre.ttf
1780943	START	n/a	LTP166	ltpFR	9	n/a	n/a	n/a	n/a	n/a	n/a	n/a	n/a	n/a	n/a	n/a	n/a	n/a	n/a	n/a
1781826	PROB	n/a	LTP166	ltpFR	9	n/a	n/a	n/a	n/a	n/a	n/a	20	6	7	7	n/a	n/a	n/a	n/a	n/a
1783573	PROB	n/a	LTP166	ltpFR	9	n/a	n/a	n/a	n/a	n/a	n/a	18	6	4	8	n/a	n/a	n/a	n/a	n/a
1785187	PROB	n/a	LTP166	ltpFR	9	n/a	n/a	n/a	n/a	n/a	n/a	13	5	1	7	n/a	n/a	n/a	n/a	n/a
1788942	STOP	n/a	LTP166	ltpFR	9	n/a	n/a	n/a	n/a	n/a	n/a	n/a	n/a	n/a	n/a	n/a	n/a	n/a	n/a	n/a
1790129	WORD	wordpools/wasnorm_wordpool_less_exclusions.txt	LTP166	ltpFR	9	8	0	HAMBURGER	679	n/a	n/a	n/a	0	0	0	1	0.412841796875	0.57763671875	lower	../fonts/zerothre.ttf
1793158	SLOW_MSG	n/a	LTP166	ltpFR	9	8	n/a	n/a	n/a	n/a	n/a	n/a	0	0	0	n/a	n/a	n/a	n/a	n/a
1794690	START	n/a	LTP166	ltpFR	9	n/a	n/a	n/a	n/a	n/a	n/a	n/a	n/a	n/a	n/a	n/a	n/a	n/a	n/a	n/a
1795639	PROB	n/a	LTP166	ltpFR	9	n/a	n/a	n/a	n/a	n/a	n/a	11	2	7	2	n/a	n/a	n/a	n/a	n/a
1802690	STOP	n/a	LTP166	ltpFR	9	n/a	n/a	n/a	n/a	n/a	n/a	n/a	n/a	n/a	n/a	n/a	n/a	n/a	n/a	n/a
1803776	WORD	wordpools/wasnorm_wordpool_less_exclusions.txt	LTP166	ltpFR	9	8	0	MUFFIN	929	n/a	2	n/a	0	0	0	1	0.412841796875	0.57763671875	lower	../fonts/zerothre.ttf
1805523	KEY_MSG	n/a	LTP166	ltpFR	9	8	n/a	n/a	n/a	n/a	n/a	n/a	0	0	0	n/a	n/a	n/a	n/a	n/a
1807054	START	n/a	LTP166	ltpFR	9	n/a	n/a	n/a	n/a	n/a	n/a	n/a	n/a	n/a	n/a	n/a	n/a	n/a	n/a	n/a
1807919	PROB	n/a	LTP166	ltpFR	9	n/a	n/a	n/a	n/a	n/a	n/a	6	2	3	1	n/a	n/a	n/a	n/a	n/a
1815053	STOP	n/a	LTP166	ltpFR	9	n/a	n/a	n/a	n/a	n/a	n/a	n/a	n/a	n/a	n/a	n/a	n/a	n/a	n/a	n/a
1815974	WORD	wordpools/wasnorm_wordpool_less_exclusions.txt	LTP166	ltpFR	9	8	0	FRIES	607	n/a	1	n/a	0	0	0	1	0.412841796875	0.57763671875	lower	../fonts/zerothre.ttf
1818986	START	n/a	LTP166	ltpFR	9	n/a	n/a	n/a	n/a	n/a	n/a	n/a	n/a	n/a	n/a	n/a	n/a	n/a	n/a	n/a
1819836	PROB	n/a	LTP166	ltpFR	9	n/a	n/a	n/a	n/a	n/a	n/a	14	4	7	3	n/a	n/a	n/a	n/a	n/a
1821650	PROB	n/a	LTP166	ltpFR	9	n/a	n/a	n/a	n/a	n/a	n/a	20	9	6	5	n/a	n/a	n/a	n/a	n/a
1824095	PROB	n/a	LTP166	ltpFR	9	n/a	n/a	n/a	n/a	n/a	n/a	14	4	2	8	n/a	n/a	n/a	n/a	n/a
1826482	STOP	n/a	LTP166	ltpFR	9	n/a	n/a	n/a	n/a	n/a	n/a	n/a	n/a	n/a	n/a	n/a	n/a	n/a	n/a	n/a
1827956	WORD	wordpools/wasnorm_wordpool_less_exclusions.txt	LTP166	ltpFR	9	8	0	SAILOR	1223	n/a	1	n/a	0	0	0	1	0.412841796875	0.57763671875	lower	../fonts/zerothre.ttf
1830969	START	n/a	LTP166	ltpFR	9	n/a	n/a	n/a	n/a	n/a	n/a	n/a	n/a	n/a	n/a	n/a	n/a	n/a	n/a	n/a
1832166	PROB	n/a	LTP166	ltpFR	9	n/a	n/a	n/a	n/a	n/a	n/a	13	5	4	4	n/a	n/a	n/a	n/a	n/a
1834929	PROB	n/a	LTP166	ltpFR	9	n/a	n/a	n/a	n/a	n/a	n/a	10	4	4	2	n/a	n/a	n/a	n/a	n/a
1838969	STOP	n/a	LTP166	ltpFR	9	n/a	n/a	n/a	n/a	n/a	n/a	n/a	n/a	n/a	n/a	n/a	n/a	n/a	n/a	n/a
1839955	WORD	wordpools/wasnorm_wordpool_less_exclusions.txt	LTP166	ltpFR	9	8	0	TWIG	1527	n/a	0	n/a	0	0	0	1	0.412841796875	0.57763671875	lower	../fonts/zerothre.ttf
1842967	START	n/a	LTP166	ltpFR	9	n/a	n/a	n/a	n/a	n/a	n/a	n/a	n/a	n/a	n/a	n/a	n/a	n/a	n/a	n/a
1843866	PROB	n/a	LTP166	ltpFR	9	n/a	n/a	n/a	n/a	n/a	n/a	10	4	2	4	n/a	n/a	n/a	n/a	n/a
1846944	PROB	n/a	LTP166	ltpFR	9	n/a	n/a	n/a	n/a	n/a	n/a	13	3	4	5	n/a	n/a	n/a	n/a	n/a
1850966	STOP	n/a	LTP166	ltpFR	9	n/a	n/a	n/a	n/a	n/a	n/a	n/a	n/a	n/a	n/a	n/a	n/a	n/a	n/a	n/a
1851970	WORD	wordpools/wasnorm_wordpool_less_exclusions.txt	LTP166	ltpFR	9	8	1	ANIMAL	23	n/a	1	n/a	0	0	0	0	0.5869140625	0.422607421875	upper	../fonts/amplitud.ttf
1854983	START	n/a	LTP166	ltpFR	9	n/a	n/a	n/a	n/a	n/a	n/a	n/a	n/a	n/a	n/a	n/a	n/a	n/a	n/a	n/a
1855815	PROB	n/a	LTP166	ltpFR	9	n/a	n/a	n/a	n/a	n/a	n/a	9	2	2	5	n/a	n/a	n/a	n/a	n/a
1857596	PROB	n/a	LTP166	ltpFR	9	n/a	n/a	n/a	n/a	n/a	n/a	23	8	6	9	n/a	n/a	n/a	n/a	n/a
1861611	STOP	n/a	LTP166	ltpFR	9	n/a	n/a	n/a	n/a	n/a	n/a	n/a	n/a	n/a	n/a	n/a	n/a	n/a	n/a	n/a
1864002	WORD	wordpools/wasnorm_wordpool_less_exclusions.txt	LTP166	ltpFR	9	8	1	SANDWICH	1232	n/a	n/a	n/a	0	0	0	0	0.5869140625	0.422607421875	upper	../fonts/amplitud.ttf
1867031	SLOW_MSG	n/a	LTP166	ltpFR	9	8	n/a	n/a	n/a	n/a	n/a	n/a	0	0	0	n/a	n/a	n/a	n/a	n/a
1868563	START	n/a	LTP166	ltpFR	9	n/a	n/a	n/a	n/a	n/a	n/a	n/a	n/a	n/a	n/a	n/a	n/a	n/a	n/a	n/a
1869628	PROB	n/a	LTP166	ltpFR	9	n/a	n/a	n/a	n/a	n/a	n/a	10	2	3	5	n/a	n/a	n/a	n/a	n/a
1871391	PROB	n/a	LTP166	ltpFR	9	n/a	n/a	n/a	n/a	n/a	n/a	22	8	8	7	n/a	n/a	n/a	n/a	n/a
1876563	STOP	n/a	LTP166	ltpFR	9	n/a	n/a	n/a	n/a	n/a	n/a	n/a	n/a	n/a	n/a	n/a	n/a	n/a	n/a	n/a
1878465	REC_START	n/a	LTP166	ltpFR	9	8	n/a	n/a	n/a	n/a	n/a	n/a	0	0	0	n/a	n/a	n/a	n/a	n/a
1879722	REC_WORD	wordpools/wasnorm_wordpool_less_exclusions.txt	LTP166	ltpFR	9	8	0	HAMBURGER	679	n/a	n/a	n/a	0	0	0	n/a	n/a	n/a	n/a	n/a
1880465	REC_WORD	wordpools/wasnorm_wordpool_less_exclusions.txt	LTP166	ltpFR	9	8	0	FRIES	607	n/a	1	n/a	0	0	0	n/a	n/a	n/a	n/a	n/a
1882855	REC_WORD	wordpools/wasnorm_wordpool_less_exclusions.txt	LTP166	ltpFR	9	8	1	SANDWICH	1232	n/a	n/a	n/a	0	0	0	n/a	n/a	n/a	n/a	n/a
1887814	REC_WORD	wordpools/wasnorm_wordpool_less_exclusions.txt	LTP166	ltpFR	9	8	1	DIAMOND	458	n/a	0	n/a	0	0	0	n/a	n/a	n/a	n/a	n/a
1888572	REC_WORD	wordpools/wasnorm_wordpool_less_exclusions.txt	LTP166	ltpFR	9	8	1	RING	1193	n/a	0	n/a	0	0	0	n/a	n/a	n/a	n/a	n/a
1889275	REC_WORD	wordpools/wasnorm_wordpool_less_exclusions.txt	LTP166	ltpFR	9	8	0	WITCH	1617	n/a	1	n/a	0	0	0	n/a	n/a	n/a	n/a	n/a
1890203	REC_WORD	wordpools/wasnorm_wordpool_less_exclusions.txt	LTP166	ltpFR	9	8	0	BOAT	144	n/a	1	n/a	0	0	0	n/a	n/a	n/a	n/a	n/a
1892937	REC_WORD	wordpools/wasnorm_wordpool_less_exclusions.txt	LTP166	ltpFR	9	8	1	ATHLETE	52	n/a	1	n/a	0	0	0	n/a	n/a	n/a	n/a	n/a
1901627	REC_WORD_VV	wordpools/wasnorm_wordpool_less_exclusions.txt	LTP166	ltpFR	9	8	n/a	<>	-1	n/a	n/a	n/a	0	0	0	n/a	n/a	n/a	n/a	n/a
1906836	REC_WORD_VV	wordpools/wasnorm_wordpool_less_exclusions.txt	LTP166	ltpFR	9	8	n/a	<>	-1	n/a	n/a	n/a	0	0	0	n/a	n/a	n/a	n/a	n/a
1907836	REC_WORD_VV	wordpools/wasnorm_wordpool_less_exclusions.txt	LTP166	ltpFR	9	8	n/a	<>	-1	n/a	n/a	n/a	0	0	0	n/a	n/a	n/a	n/a	n/a
1959892	WORD	wordpools/wasnorm_wordpool_less_exclusions.txt	LTP166	ltpFR	9	9	1	GUARD	667	n/a	0	n/a	0	0	0	0	0.5869140625	0.422607421875	upper	../fonts/amplitud.ttf
1963787	WORD	wordpools/wasnorm_wordpool_less_exclusions.txt	LTP166	ltpFR	9	9	1	PAINTER	1004	n/a	1	n/a	0	0	0	0	0.5869140625	0.422607421875	upper	../fonts/amplitud.ttf
1967947	WORD	wordpools/wasnorm_wordpool_less_exclusions.txt	LTP166	ltpFR	9	9	1	COMMUNITY	356	n/a	0	n/a	0	0	0	0	0.5869140625	0.422607421875	upper	../fonts/amplitud.ttf
1972057	WORD	wordpools/wasnorm_wordpool_less_exclusions.txt	LTP166	ltpFR	9	9	1	AUDIENCE	59	n/a	0	n/a	0	0	0	0	0.5869140625	0.422607421875	upper	../fonts/amplitud.ttf
1975985	WORD	wordpools/wasnorm_wordpool_less_exclusions.txt	LTP166	ltpFR	9	9	1	SHRINE	1298	n/a	0	n/a	0	0	0	0	0.5869140625	0.422607421875	upper	../fonts/amplitud.ttf
1980062	WORD	wordpools/wasnorm_wordpool_less_exclusions.txt	LTP166	ltpFR	9	9	1	OVAL	990	n/a	0	n/a	0	0	0	0	0.5869140625	0.422607421875	upper	../fonts/amplitud.ttf
1983906	WORD	wordpools/wasnorm_wordpool_less_exclusions.txt	LTP166	ltpFR	9	9	1	ROOST	1208	n/a	1	n/a	0	0	0	0	0.5869140625	0.422607421875	upper	../fonts/amplitud.ttf
1988034	WORD	wordpools/wasnorm_wordpool_less_exclusions.txt	LTP166	ltpFR	9	9	1	WRITER	1627	n/a	0	n/a	0	0	0	0	0.5869140625	0.422607421875	upper	../fonts/amplitud.ttf
1991944	WORD	wordpools/wasnorm_wordpool_less_exclusions.txt	LTP166	ltpFR	9	9	1	BINDER	127	n/a	1	n/a	0	0	0	0	0.5869140625	0.422607421875	upper	../fonts/amplitud.ttf
1996088	WORD	wordpools/wasnorm_wordpool_less_exclusions.txt	LTP166	ltpFR	9	9	1	ELM	527	n/a	0	n/a	0	0	0	0	0.5869140625	0.422607421875	upper	../fonts/amplitud.ttf
2000066	WORD	wordpools/wasnorm_wordpool_less_exclusions.txt	LTP166	ltpFR	9	9	1	CHILD	299	n/a	0	n/a	0	0	0	0	0.5869140625	0.422607421875	upper	../fonts/amplitud.ttf
2004076	WORD	wordpools/wasnorm_wordpool_less_exclusions.txt	LTP166	ltpFR	9	9	1	GOWN	652	n/a	0	n/a	0	0	0	0	0.5869140625	0.422607421875	upper	../fonts/amplitud.ttf
2007987	WORD	wordpools/wasnorm_wordpool_less_exclusions.txt	LTP166	ltpFR	9	9	1	FUDGE	611	n/a	0	n/a	0	0	0	0	0.5869140625	0.422607421875	upper	../fonts/amplitud.ttf
2011981	WORD	wordpools/wasnorm_wordpool_less_exclusions.txt	LTP166	ltpFR	9	9	1	PAINT	1003	n/a	0	n/a	0	0	0	0	0.5869140625	0.422607421875	upper	../fonts/amplitud.ttf
2015875	WORD	wordpools/wasnorm_wordpool_less_exclusions.txt	LTP166	ltpFR	9	9	1	SHORTS	1293	n/a	1	n/a	0	0	0	0	0.5869140625	0.422607421875	upper	../fonts/amplitud.ttf
2020052	WORD	wordpools/wasnorm_wordpool_less_exclusions.txt	LTP166	ltpFR	9	9	1	PIE	1062	n/a	0	n/a	0	0	0	0	0.5869140625	0.422607421875	upper	../fonts/amplitud.ttf
2023065	START	n/a	LTP166	ltpFR	9	n/a	n/a	n/a	n/a	n/a	n/a	n/a	n/a	n/a	n/a	n/a	n/a	n/a	n/a	n/a
2024096	PROB	n/a	LTP166	ltpFR	9	n/a	n/a	n/a	n/a	n/a	n/a	19	5	7	7	n/a	n/a	n/a	n/a	n/a
2028373	PROB	n/a	LTP166	ltpFR	9	n/a	n/a	n/a	n/a	n/a	n/a	8	1	4	3	n/a	n/a	n/a	n/a	n/a
2033133	PROB	n/a	LTP166	ltpFR	9	n/a	n/a	n/a	n/a	n/a	n/a	10	5	2	3	n/a	n/a	n/a	n/a	n/a
2039065	STOP	n/a	LTP166	ltpFR	9	n/a	n/a	n/a	n/a	n/a	n/a	n/a	n/a	n/a	n/a	n/a	n/a	n/a	n/a	n/a
2040823	REC_START	n/a	LTP166	ltpFR	9	9	n/a	n/a	n/a	n/a	n/a	n/a	0	0	0	n/a	n/a	n/a	n/a	n/a
2043731	REC_WORD	wordpools/wasnorm_wordpool_less_exclusions.txt	LTP166	ltpFR	9	9	1	PAINT	1003	n/a	0	n/a	0	0	0	n/a	n/a	n/a	n/a	n/a
2045692	REC_WORD	wordpools/wasnorm_wordpool_less_exclusions.txt	LTP166	ltpFR	9	9	1	GUARD	667	n/a	0	n/a	0	0	0	n/a	n/a	n/a	n/a	n/a
2047388	REC_WORD	wordpools/wasnorm_wordpool_less_exclusions.txt	LTP166	ltpFR	9	9	1	COMMUNITY	356	n/a	0	n/a	0	0	0	n/a	n/a	n/a	n/a	n/a
2048909	REC_WORD	wordpools/wasnorm_wordpool_less_exclusions.txt	LTP166	ltpFR	9	9	1	AUDIENCE	59	n/a	0	n/a	0	0	0	n/a	n/a	n/a	n/a	n/a
2050590	REC_WORD	wordpools/wasnorm_wordpool_less_exclusions.txt	LTP166	ltpFR	9	9	1	FUDGE	611	n/a	0	n/a	0	0	0	n/a	n/a	n/a	n/a	n/a
2054063	REC_WORD_VV	wordpools/wasnorm_wordpool_less_exclusions.txt	LTP166	ltpFR	9	9	n/a	<>	-1	n/a	n/a	n/a	0	0	0	n/a	n/a	n/a	n/a	n/a
2100397	REC_WORD_VV	wordpools/wasnorm_wordpool_less_exclusions.txt	LTP166	ltpFR	9	9	n/a	<>	-1	n/a	n/a	n/a	0	0	0	n/a	n/a	n/a	n/a	n/a
2171544	WORD	wordpools/wasnorm_wordpool_less_exclusions.txt	LTP166	ltpFR	9	10	0	CANYON	235	n/a	1	n/a	0	0	0	1	0.412841796875	0.57763671875	lower	../fonts/zerothre.ttf
2175605	WORD	wordpools/wasnorm_wordpool_less_exclusions.txt	LTP166	ltpFR	9	10	0	SLOPE	1328	n/a	1	n/a	0	0	0	1	0.412841796875	0.57763671875	lower	../fonts/zerothre.ttf
2179815	WORD	wordpools/wasnorm_wordpool_less_exclusions.txt	LTP166	ltpFR	9	10	0	NECK	939	n/a	1	n/a	0	0	0	1	0.412841796875	0.57763671875	lower	../fonts/zerothre.ttf
2184008	WORD	wordpools/wasnorm_wordpool_less_exclusions.txt	LTP166	ltpFR	9	10	1	TERMITE	1451	n/a	1	n/a	0	0	0	0	0.5869140625	0.422607421875	upper	../fonts/amplitud.ttf
2187852	WORD	wordpools/wasnorm_wordpool_less_exclusions.txt	LTP166	ltpFR	9	10	1	CANAL	226	n/a	0	n/a	0	0	0	0	0.5869140625	0.422607421875	upper	../fonts/amplitud.ttf
2191730	WORD	wordpools/wasnorm_wordpool_less_exclusions.txt	LTP166	ltpFR	9	10	0	BARREL	91	n/a	1	n/a	0	0	0	1	0.412841796875	0.57763671875	lower	../fonts/zerothre.ttf
2195940	WORD	wordpools/wasnorm_wordpool_less_exclusions.txt	LTP166	ltpFR	9	10	0	GIRAFFE	636	n/a	0	n/a	0	0	0	1	0.412841796875	0.57763671875	lower	../fonts/zerothre.ttf
2200117	WORD	wordpools/wasnorm_wordpool_less_exclusions.txt	LTP166	ltpFR	9	10	0	SLEEVE	1324	n/a	1	n/a	0	0	0	1	0.412841796875	0.57763671875	lower	../fonts/zerothre.ttf
2204011	WORD	wordpools/wasnorm_wordpool_less_exclusions.txt	LTP166	ltpFR	9	10	1	PATRIOT	1026	n/a	1	n/a	0	0	0	0	0.5869140625	0.422607421875	upper	../fonts/amplitud.ttf
2207855	WORD	wordpools/wasnorm_wordpool_less_exclusions.txt	LTP166	ltpFR	9	10	1	TRAITOR	1495	n/a	1	n/a	0	0	0	0	0.5869140625	0.422607421875	upper	../fonts/amplitud.ttf
2211701	WORD	wordpools/wasnorm_wordpool_less_exclusions.txt	LTP166	ltpFR	9	10	1	NEUTRON	947	n/a	0	n/a	0	0	0	0	0.5869140625	0.422607421875	upper	../fonts/amplitud.ttf
2215628	WORD	wordpools/wasnorm_wordpool_less_exclusions.txt	LTP166	ltpFR	9	10	1	BANK	83	n/a	0	n/a	0	0	0	0	0.5869140625	0.422607421875	upper	../fonts/amplitud.ttf
2219605	WORD	wordpools/wasnorm_wordpool_less_exclusions.txt	LTP166	ltpFR	9	10	1	CHAIR	274	n/a	0	n/a	0	0	0	0	0.5869140625	0.422607421875	upper	../fonts/amplitud.ttf
2223766	WORD	wordpools/wasnorm_wordpool_less_exclusions.txt	LTP166	ltpFR	9	10	1	PADDING	999	n/a	0	n/a	0	0	0	0	0.5869140625	0.422607421875	upper	../fonts/amplitud.ttf
2227810	WORD	wordpools/wasnorm_wordpool_less_exclusions.txt	LTP166	ltpFR	9	10	0	TICK	1463	n/a	0	n/a	0	0	0	1	0.412841796875	0.57763671875	lower	../fonts/zerothre.ttf
2231853	WORD	wordpools/wasnorm_wordpool_less_exclusions.txt	LTP166	ltpFR	9	10	0	MOLECULE	905	n/a	0	n/a	0	0	0	1	0.412841796875	0.57763671875	lower	../fonts/zerothre.ttf
2237779	REC_START	n/a	LTP166	ltpFR	9	10	n/a	n/a	n/a	n/a	n/a	n/a	0	0	0	n/a	n/a	n/a	n/a	n/a
2238886	REC_WORD	wordpools/wasnorm_wordpool_less_exclusions.txt	LTP166	ltpFR	9	10	0	TICK	1463	n/a	0	n/a	0	0	0	n/a	n/a	n/a	n/a	n/a
2239644	REC_WORD	wordpools/wasnorm_wordpool_less_exclusions.txt	LTP166	ltpFR	9	10	0	MOLECULE	905	n/a	0	n/a	0	0	0	n/a	n/a	n/a	n/a	n/a
2240697	REC_WORD	wordpools/wasnorm_wordpool_less_exclusions.txt	LTP166	ltpFR	9	10	1	NEUTRON	947	n/a	0	n/a	0	0	0	n/a	n/a	n/a	n/a	n/a
2242678	REC_WORD	wordpools/wasnorm_wordpool_less_exclusions.txt	LTP166	ltpFR	9	10	1	PADDING	999	n/a	0	n/a	0	0	0	n/a	n/a	n/a	n/a	n/a
2244798	REC_WORD	wordpools/wasnorm_wordpool_less_exclusions.txt	LTP166	ltpFR	9	10	0	CANYON	235	n/a	1	n/a	0	0	0	n/a	n/a	n/a	n/a	n/a
2246015	REC_WORD	wordpools/wasnorm_wordpool_less_exclusions.txt	LTP166	ltpFR	9	10	1	PATRIOT	1026	n/a	1	n/a	0	0	0	n/a	n/a	n/a	n/a	n/a
2246704	REC_WORD	wordpools/wasnorm_wordpool_less_exclusions.txt	LTP166	ltpFR	9	10	1	TRAITOR	1495	n/a	1	n/a	0	0	0	n/a	n/a	n/a	n/a	n/a
2250405	REC_WORD	wordpools/wasnorm_wordpool_less_exclusions.txt	LTP166	ltpFR	9	10	0	SLOPE	1328	n/a	1	n/a	0	0	0	n/a	n/a	n/a	n/a	n/a
2251607	REC_WORD	wordpools/wasnorm_wordpool_less_exclusions.txt	LTP166	ltpFR	9	10	1	TERMITE	1451	n/a	1	n/a	0	0	0	n/a	n/a	n/a	n/a	n/a
2290080	REC_WORD	wordpools/wasnorm_wordpool_less_exclusions.txt	LTP166	ltpFR	9	10	0	NECK	939	n/a	1	n/a	0	0	0	n/a	n/a	n/a	n/a	n/a
2313365	REST_REWET	n/a	LTP166	ltpFR	9	10	n/a	n/a	n/a	n/a	n/a	n/a	0	0	0	n/a	n/a	n/a	n/a	n/a
2542807	START	n/a	LTP166	ltpFR	9	n/a	n/a	n/a	n/a	n/a	n/a	n/a	n/a	n/a	n/a	n/a	n/a	n/a	n/a	n/a
2544320	PROB	n/a	LTP166	ltpFR	9	n/a	n/a	n/a	n/a	n/a	n/a	11	5	4	2	n/a	n/a	n/a	n/a	n/a
2546350	PROB	n/a	LTP166	ltpFR	9	n/a	n/a	n/a	n/a	n/a	n/a	14	2	6	6	n/a	n/a	n/a	n/a	n/a
2548247	PROB	n/a	LTP166	ltpFR	9	n/a	n/a	n/a	n/a	n/a	n/a	19	3	8	8	n/a	n/a	n/a	n/a	n/a
2550976	PROB	n/a	LTP166	ltpFR	9	n/a	n/a	n/a	n/a	n/a	n/a	18	5	9	4	n/a	n/a	n/a	n/a	n/a
2553073	PROB	n/a	LTP166	ltpFR	9	n/a	n/a	n/a	n/a	n/a	n/a	22	7	9	6	n/a	n/a	n/a	n/a	n/a
2557850	STOP	n/a	LTP166	ltpFR	9	n/a	n/a	n/a	n/a	n/a	n/a	n/a	n/a	n/a	n/a	n/a	n/a	n/a	n/a	n/a
2559863	WORD	wordpools/wasnorm_wordpool_less_exclusions.txt	LTP166	ltpFR	9	11	0	PLANT	1083	n/a	1	n/a	0	0	0	1	0.412841796875	0.57763671875	lower	../fonts/zerothre.ttf
2562876	START	n/a	LTP166	ltpFR	9	n/a	n/a	n/a	n/a	n/a	n/a	n/a	n/a	n/a	n/a	n/a	n/a	n/a	n/a	n/a
2564007	PROB	n/a	LTP166	ltpFR	9	n/a	n/a	n/a	n/a	n/a	n/a	23	9	9	5	n/a	n/a	n/a	n/a	n/a
2567069	PROB	n/a	LTP166	ltpFR	9	n/a	n/a	n/a	n/a	n/a	n/a	19	4	9	6	n/a	n/a	n/a	n/a	n/a
2568866	PROB	n/a	LTP166	ltpFR	9	n/a	n/a	n/a	n/a	n/a	n/a	15	8	4	3	n/a	n/a	n/a	n/a	n/a
2571597	PROB	n/a	LTP166	ltpFR	9	n/a	n/a	n/a	n/a	n/a	n/a	16	4	3	9	n/a	n/a	n/a	n/a	n/a
2573959	PROB	n/a	LTP166	ltpFR	9	n/a	n/a	n/a	n/a	n/a	n/a	11	9	1	1	n/a	n/a	n/a	n/a	n/a
2578876	STOP	n/a	LTP166	ltpFR	9	n/a	n/a	n/a	n/a	n/a	n/a	n/a	n/a	n/a	n/a	n/a	n/a	n/a	n/a	n/a
2579883	WORD	wordpools/wasnorm_wordpool_less_exclusions.txt	LTP166	ltpFR	9	11	0	SHOP	1290	n/a	1	n/a	0	0	0	1	0.412841796875	0.57763671875	lower	../fonts/zerothre.ttf
2582896	START	n/a	LTP166	ltpFR	9	n/a	n/a	n/a	n/a	n/a	n/a	n/a	n/a	n/a	n/a	n/a	n/a	n/a	n/a	n/a
2583977	PROB	n/a	LTP166	ltpFR	9	n/a	n/a	n/a	n/a	n/a	n/a	22	8	8	5	n/a	n/a	n/a	n/a	n/a
2588588	PROB	n/a	LTP166	ltpFR	9	n/a	n/a	n/a	n/a	n/a	n/a	13	1	4	8	n/a	n/a	n/a	n/a	n/a
2593664	PROB	n/a	LTP166	ltpFR	9	n/a	n/a	n/a	n/a	n/a	n/a	15	6	3	6	n/a	n/a	n/a	n/a	n/a
2596626	PROB	n/a	LTP166	ltpFR	9	n/a	n/a	n/a	n/a	n/a	n/a	22	8	8	6	n/a	n/a	n/a	n/a	n/a
2598667	STOP	n/a	LTP166	ltpFR	9	n/a	n/a	n/a	n/a	n/a	n/a	n/a	n/a	n/a	n/a	n/a	n/a	n/a	n/a	n/a
2600070	WORD	wordpools/wasnorm_wordpool_less_exclusions.txt	LTP166	ltpFR	9	11	0	THUMB	1462	n/a	0	n/a	0	0	0	1	0.412841796875	0.57763671875	lower	../fonts/zerothre.ttf
2603082	START	n/a	LTP166	ltpFR	9	n/a	n/a	n/a	n/a	n/a	n/a	n/a	n/a	n/a	n/a	n/a	n/a	n/a	n/a	n/a
2604197	PROB	n/a	LTP166	ltpFR	9	n/a	n/a	n/a	n/a	n/a	n/a	18	7	7	4	n/a	n/a	n/a	n/a	n/a
2605928	PROB	n/a	LTP166	ltpFR	9	n/a	n/a	n/a	n/a	n/a	n/a	16	7	2	7	n/a	n/a	n/a	n/a	n/a
2608091	PROB	n/a	LTP166	ltpFR	9	n/a	n/a	n/a	n/a	n/a	n/a	13	6	3	4	n/a	n/a	n/a	n/a	n/a
2610454	PROB	n/a	LTP166	ltpFR	9	n/a	n/a	n/a	n/a	n/a	n/a	15	8	2	5	n/a	n/a	n/a	n/a	n/a
2612702	PROB	n/a	LTP166	ltpFR	9	n/a	n/a	n/a	n/a	n/a	n/a	18	8	7	3	n/a	n/a	n/a	n/a	n/a
2614149	PROB	n/a	LTP166	ltpFR	9	n/a	n/a	n/a	n/a	n/a	n/a	8	2	4	4	n/a	n/a	n/a	n/a	n/a
2619081	STOP	n/a	LTP166	ltpFR	9	n/a	n/a	n/a	n/a	n/a	n/a	n/a	n/a	n/a	n/a	n/a	n/a	n/a	n/a	n/a
2620007	WORD	wordpools/wasnorm_wordpool_less_exclusions.txt	LTP166	ltpFR	9	11	0	FRIAR	605	n/a	1	n/a	0	0	0	1	0.412841796875	0.57763671875	lower	../fonts/zerothre.ttf
2623019	START	n/a	LTP166	ltpFR	9	n/a	n/a	n/a	n/a	n/a	n/a	n/a	n/a	n/a	n/a	n/a	n/a	n/a	n/a	n/a
2624067	PROB	n/a	LTP166	ltpFR	9	n/a	n/a	n/a	n/a	n/a	n/a	9	3	3	3	n/a	n/a	n/a	n/a	n/a
2625265	PROB	n/a	LTP166	ltpFR	9	n/a	n/a	n/a	n/a	n/a	n/a	12	8	2	2	n/a	n/a	n/a	n/a	n/a
2626731	PROB	n/a	LTP166	ltpFR	9	n/a	n/a	n/a	n/a	n/a	n/a	20	8	5	7	n/a	n/a	n/a	n/a	n/a
2629760	PROB	n/a	LTP166	ltpFR	9	n/a	n/a	n/a	n/a	n/a	n/a	23	7	9	9	n/a	n/a	n/a	n/a	n/a
2634069	PROB	n/a	LTP166	ltpFR	9	n/a	n/a	n/a	n/a	n/a	n/a	18	8	2	8	n/a	n/a	n/a	n/a	n/a
2636533	PROB	n/a	LTP166	ltpFR	9	n/a	n/a	n/a	n/a	n/a	n/a	18	4	6	8	n/a	n/a	n/a	n/a	n/a
2638274	STOP	n/a	LTP166	ltpFR	9	n/a	n/a	n/a	n/a	n/a	n/a	n/a	n/a	n/a	n/a	n/a	n/a	n/a	n/a	n/a
2640193	WORD	wordpools/wasnorm_wordpool_less_exclusions.txt	LTP166	ltpFR	9	11	0	HUMAN	726	n/a	1	n/a	0	0	0	1	0.412841796875	0.57763671875	lower	../fonts/zerothre.ttf
2643206	START	n/a	LTP166	ltpFR	9	n/a	n/a	n/a	n/a	n/a	n/a	n/a	n/a	n/a	n/a	n/a	n/a	n/a	n/a	n/a
2644270	PROB	n/a	LTP166	ltpFR	9	n/a	n/a	n/a	n/a	n/a	n/a	15	5	7	3	n/a	n/a	n/a	n/a	n/a
2646718	PROB	n/a	LTP166	ltpFR	9	n/a	n/a	n/a	n/a	n/a	n/a	15	4	9	2	n/a	n/a	n/a	n/a	n/a
2649763	PROB	n/a	LTP166	ltpFR	9	n/a	n/a	n/a	n/a	n/a	n/a	20	7	5	8	n/a	n/a	n/a	n/a	n/a
2651677	PROB	n/a	LTP166	ltpFR	9	n/a	n/a	n/a	n/a	n/a	n/a	9	4	1	2	n/a	n/a	n/a	n/a	n/a
2654871	PROB	n/a	LTP166	ltpFR	9	n/a	n/a	n/a	n/a	n/a	n/a	12	1	4	7	n/a	n/a	n/a	n/a	n/a
2658819	STOP	n/a	LTP166	ltpFR	9	n/a	n/a	n/a	n/a	n/a	n/a	n/a	n/a	n/a	n/a	n/a	n/a	n/a	n/a	n/a
2660363	WORD	wordpools/wasnorm_wordpool_less_exclusions.txt	LTP166	ltpFR	9	11	0	POSSUM	1112	n/a	1	n/a	0	0	0	1	0.412841796875	0.57763671875	lower	../fonts/zerothre.ttf
2663376	START	n/a	LTP166	ltpFR	9	n/a	n/a	n/a	n/a	n/a	n/a	n/a	n/a	n/a	n/a	n/a	n/a	n/a	n/a	n/a
2664324	PROB	n/a	LTP166	ltpFR	9	n/a	n/a	n/a	n/a	n/a	n/a	23	9	9	7	n/a	n/a	n/a	n/a	n/a
2667753	PROB	n/a	LTP166	ltpFR	9	n/a	n/a	n/a	n/a	n/a	n/a	15	2	5	8	n/a	n/a	n/a	n/a	n/a
2671446	PROB	n/a	LTP166	ltpFR	9	n/a	n/a	n/a	n/a	n/a	n/a	12	4	4	4	n/a	n/a	n/a	n/a	n/a
2673443	PROB	n/a	LTP166	ltpFR	9	n/a	n/a	n/a	n/a	n/a	n/a	18	4	9	5	n/a	n/a	n/a	n/a	n/a
2675490	PROB	n/a	LTP166	ltpFR	9	n/a	n/a	n/a	n/a	n/a	n/a	12	5	5	2	n/a	n/a	n/a	n/a	n/a
2676789	PROB	n/a	LTP166	ltpFR	9	n/a	n/a	n/a	n/a	n/a	n/a	18	9	7	2	n/a	n/a	n/a	n/a	n/a
2679290	STOP	n/a	LTP166	ltpFR	9	n/a	n/a	n/a	n/a	n/a	n/a	n/a	n/a	n/a	n/a	n/a	n/a	n/a	n/a	n/a
2680534	WORD	wordpools/wasnorm_wordpool_less_exclusions.txt	LTP166	ltpFR	9	11	0	MONASTERY	907	n/a	1	n/a	0	0	0	1	0.412841796875	0.57763671875	lower	../fonts/zerothre.ttf
2683546	START	n/a	LTP166	ltpFR	9	n/a	n/a	n/a	n/a	n/a	n/a	n/a	n/a	n/a	n/a	n/a	n/a	n/a	n/a	n/a
2684711	PROB	n/a	LTP166	ltpFR	9	n/a	n/a	n/a	n/a	n/a	n/a	15	4	3	8	n/a	n/a	n/a	n/a	n/a
2686990	PROB	n/a	LTP166	ltpFR	9	n/a	n/a	n/a	n/a	n/a	n/a	17	8	4	5	n/a	n/a	n/a	n/a	n/a
2689604	PROB	n/a	LTP166	ltpFR	9	n/a	n/a	n/a	n/a	n/a	n/a	13	1	8	4	n/a	n/a	n/a	n/a	n/a
2691734	PROB	n/a	LTP166	ltpFR	9	n/a	n/a	n/a	n/a	n/a	n/a	9	4	2	3	n/a	n/a	n/a	n/a	n/a
2697241	PROB	n/a	LTP166	ltpFR	9	n/a	n/a	n/a	n/a	n/a	n/a	17	7	9	1	n/a	n/a	n/a	n/a	n/a
2699314	STOP	n/a	LTP166	ltpFR	9	n/a	n/a	n/a	n/a	n/a	n/a	n/a	n/a	n/a	n/a	n/a	n/a	n/a	n/a	n/a
2700754	WORD	wordpools/wasnorm_wordpool_less_exclusions.txt	LTP166	ltpFR	9	11	0	ARROW	40	n/a	0	n/a	0	0	0	1	0.412841796875	0.57763671875	lower	../fonts/zerothre.ttf
2703766	START	n/a	LTP166	ltpFR	9	n/a	n/a	n/a	n/a	n/a	n/a	n/a	n/a	n/a	n/a	n/a	n/a	n/a	n/a	n/a
2704598	PROB	n/a	LTP166	ltpFR	9	n/a	n/a	n/a	n/a	n/a	n/a	14	9	3	2	n/a	n/a	n/a	n/a	n/a
2707409	PROB	n/a	LTP166	ltpFR	9	n/a	n/a	n/a	n/a	n/a	n/a	14	6	3	5	n/a	n/a	n/a	n/a	n/a
2711071	PROB	n/a	LTP166	ltpFR	9	n/a	n/a	n/a	n/a	n/a	n/a	11	7	2	2	n/a	n/a	n/a	n/a	n/a
2714616	PROB	n/a	LTP166	ltpFR	9	n/a	n/a	n/a	n/a	n/a	n/a	13	9	3	1	n/a	n/a	n/a	n/a	n/a
2717012	PROB	n/a	LTP166	ltpFR	9	n/a	n/a	n/a	n/a	n/a	n/a	7	1	2	4	n/a	n/a	n/a	n/a	n/a
2718739	STOP	n/a	LTP166	ltpFR	9	n/a	n/a	n/a	n/a	n/a	n/a	n/a	n/a	n/a	n/a	n/a	n/a	n/a	n/a	n/a
2720939	WORD	wordpools/wasnorm_wordpool_less_exclusions.txt	LTP166	ltpFR	9	11	0	CHAPEL	280	n/a	1	n/a	0	0	0	1	0.412841796875	0.57763671875	lower	../fonts/zerothre.ttf
2723952	START	n/a	LTP166	ltpFR	9	n/a	n/a	n/a	n/a	n/a	n/a	n/a	n/a	n/a	n/a	n/a	n/a	n/a	n/a	n/a
2724900	PROB	n/a	LTP166	ltpFR	9	n/a	n/a	n/a	n/a	n/a	n/a	16	6	1	9	n/a	n/a	n/a	n/a	n/a
2728062	PROB	n/a	LTP166	ltpFR	9	n/a	n/a	n/a	n/a	n/a	n/a	20	3	9	8	n/a	n/a	n/a	n/a	n/a
2730874	PROB	n/a	LTP166	ltpFR	9	n/a	n/a	n/a	n/a	n/a	n/a	11	7	3	1	n/a	n/a	n/a	n/a	n/a
2732472	PROB	n/a	LTP166	ltpFR	9	n/a	n/a	n/a	n/a	n/a	n/a	16	8	4	4	n/a	n/a	n/a	n/a	n/a
2735884	PROB	n/a	LTP166	ltpFR	9	n/a	n/a	n/a	n/a	n/a	n/a	15	3	9	3	n/a	n/a	n/a	n/a	n/a
2739952	STOP	n/a	LTP166	ltpFR	9	n/a	n/a	n/a	n/a	n/a	n/a	n/a	n/a	n/a	n/a	n/a	n/a	n/a	n/a	n/a
2741092	WORD	wordpools/wasnorm_wordpool_less_exclusions.txt	LTP166	ltpFR	9	11	0	FINGER	567	n/a	0	n/a	0	0	0	1	0.412841796875	0.57763671875	lower	../fonts/zerothre.ttf
2744105	START	n/a	LTP166	ltpFR	9	n/a	n/a	n/a	n/a	n/a	n/a	n/a	n/a	n/a	n/a	n/a	n/a	n/a	n/a	n/a
2745303	PROB	n/a	LTP166	ltpFR	9	n/a	n/a	n/a	n/a	n/a	n/a	19	5	8	6	n/a	n/a	n/a	n/a	n/a
2748165	PROB	n/a	LTP166	ltpFR	9	n/a	n/a	n/a	n/a	n/a	n/a	18	6	6	6	n/a	n/a	n/a	n/a	n/a
2750345	PROB	n/a	LTP166	ltpFR	9	n/a	n/a	n/a	n/a	n/a	n/a	16	2	6	8	n/a	n/a	n/a	n/a	n/a
2752759	PROB	n/a	LTP166	ltpFR	9	n/a	n/a	n/a	n/a	n/a	n/a	19	3	8	6	n/a	n/a	n/a	n/a	n/a
2760105	STOP	n/a	LTP166	ltpFR	9	n/a	n/a	n/a	n/a	n/a	n/a	n/a	n/a	n/a	n/a	n/a	n/a	n/a	n/a	n/a
2761113	WORD	wordpools/wasnorm_wordpool_less_exclusions.txt	LTP166	ltpFR	9	11	0	OFFICER	973	n/a	1	n/a	0	0	0	1	0.412841796875	0.57763671875	lower	../fonts/zerothre.ttf
2764125	START	n/a	LTP166	ltpFR	9	n/a	n/a	n/a	n/a	n/a	n/a	n/a	n/a	n/a	n/a	n/a	n/a	n/a	n/a	n/a
2765107	PROB	n/a	LTP166	ltpFR	9	n/a	n/a	n/a	n/a	n/a	n/a	19	5	5	9	n/a	n/a	n/a	n/a	n/a
2766421	PROB	n/a	LTP166	ltpFR	9	n/a	n/a	n/a	n/a	n/a	n/a	12	3	8	1	n/a	n/a	n/a	n/a	n/a
2769250	PROB	n/a	LTP166	ltpFR	9	n/a	n/a	n/a	n/a	n/a	n/a	9	6	2	1	n/a	n/a	n/a	n/a	n/a
2771114	PROB	n/a	LTP166	ltpFR	9	n/a	n/a	n/a	n/a	n/a	n/a	16	1	9	6	n/a	n/a	n/a	n/a	n/a
2772646	PROB	n/a	LTP166	ltpFR	9	n/a	n/a	n/a	n/a	n/a	n/a	14	1	9	4	n/a	n/a	n/a	n/a	n/a
2773977	PROB	n/a	LTP166	ltpFR	9	n/a	n/a	n/a	n/a	n/a	n/a	10	1	8	2	n/a	n/a	n/a	n/a	n/a
2776323	PROB	n/a	LTP166	ltpFR	9	n/a	n/a	n/a	n/a	n/a	n/a	20	3	9	8	n/a	n/a	n/a	n/a	n/a
2779938	STOP	n/a	LTP166	ltpFR	9	n/a	n/a	n/a	n/a	n/a	n/a	n/a	n/a	n/a	n/a	n/a	n/a	n/a	n/a	n/a
2781216	WORD	wordpools/wasnorm_wordpool_less_exclusions.txt	LTP166	ltpFR	9	11	0	JACKET	747	n/a	1	n/a	0	0	0	1	0.412841796875	0.57763671875	lower	../fonts/zerothre.ttf
2784228	START	n/a	LTP166	ltpFR	9	n/a	n/a	n/a	n/a	n/a	n/a	n/a	n/a	n/a	n/a	n/a	n/a	n/a	n/a	n/a
2785227	PROB	n/a	LTP166	ltpFR	9	n/a	n/a	n/a	n/a	n/a	n/a	13	7	2	4	n/a	n/a	n/a	n/a	n/a
2787757	PROB	n/a	LTP166	ltpFR	9	n/a	n/a	n/a	n/a	n/a	n/a	8	1	5	2	n/a	n/a	n/a	n/a	n/a
2790851	PROB	n/a	LTP166	ltpFR	9	n/a	n/a	n/a	n/a	n/a	n/a	12	6	3	3	n/a	n/a	n/a	n/a	n/a
2794446	PROB	n/a	LTP166	ltpFR	9	n/a	n/a	n/a	n/a	n/a	n/a	16	1	6	9	n/a	n/a	n/a	n/a	n/a
2795977	PROB	n/a	LTP166	ltpFR	9	n/a	n/a	n/a	n/a	n/a	n/a	15	6	5	4	n/a	n/a	n/a	n/a	n/a
2800228	STOP	n/a	LTP166	ltpFR	9	n/a	n/a	n/a	n/a	n/a	n/a	n/a	n/a	n/a	n/a	n/a	n/a	n/a	n/a	n/a
2801236	WORD	wordpools/wasnorm_wordpool_less_exclusions.txt	LTP166	ltpFR	9	11	0	SCARF	1246	n/a	1	n/a	0	0	0	1	0.412841796875	0.57763671875	lower	../fonts/zerothre.ttf
2804249	START	n/a	LTP166	ltpFR	9	n/a	n/a	n/a	n/a	n/a	n/a	n/a	n/a	n/a	n/a	n/a	n/a	n/a	n/a	n/a
2805313	PROB	n/a	LTP166	ltpFR	9	n/a	n/a	n/a	n/a	n/a	n/a	6	2	3	1	n/a	n/a	n/a	n/a	n/a
2808543	PROB	n/a	LTP166	ltpFR	9	n/a	n/a	n/a	n/a	n/a	n/a	16	6	6	5	n/a	n/a	n/a	n/a	n/a
2810739	PROB	n/a	LTP166	ltpFR	9	n/a	n/a	n/a	n/a	n/a	n/a	18	6	6	6	n/a	n/a	n/a	n/a	n/a
2812220	PROB	n/a	LTP166	ltpFR	9	n/a	n/a	n/a	n/a	n/a	n/a	16	8	2	6	n/a	n/a	n/a	n/a	n/a
2813785	PROB	n/a	LTP166	ltpFR	9	n/a	n/a	n/a	n/a	n/a	n/a	20	8	8	4	n/a	n/a	n/a	n/a	n/a
2815632	PROB	n/a	LTP166	ltpFR	9	n/a	n/a	n/a	n/a	n/a	n/a	20	7	9	4	n/a	n/a	n/a	n/a	n/a
2820249	STOP	n/a	LTP166	ltpFR	9	n/a	n/a	n/a	n/a	n/a	n/a	n/a	n/a	n/a	n/a	n/a	n/a	n/a	n/a	n/a
2821439	WORD	wordpools/wasnorm_wordpool_less_exclusions.txt	LTP166	ltpFR	9	11	0	ORCHID	982	n/a	1	n/a	0	0	0	1	0.412841796875	0.57763671875	lower	../fonts/zerothre.ttf
2824452	START	n/a	LTP166	ltpFR	9	n/a	n/a	n/a	n/a	n/a	n/a	n/a	n/a	n/a	n/a	n/a	n/a	n/a	n/a	n/a
2825483	PROB	n/a	LTP166	ltpFR	9	n/a	n/a	n/a	n/a	n/a	n/a	10	1	8	1	n/a	n/a	n/a	n/a	n/a
2827979	PROB	n/a	LTP166	ltpFR	9	n/a	n/a	n/a	n/a	n/a	n/a	17	6	6	5	n/a	n/a	n/a	n/a	n/a
2829744	PROB	n/a	LTP166	ltpFR	9	n/a	n/a	n/a	n/a	n/a	n/a	23	9	7	7	n/a	n/a	n/a	n/a	n/a
2832855	PROB	n/a	LTP166	ltpFR	9	n/a	n/a	n/a	n/a	n/a	n/a	11	2	7	2	n/a	n/a	n/a	n/a	n/a
2835352	PROB	n/a	LTP166	ltpFR	9	n/a	n/a	n/a	n/a	n/a	n/a	5	1	2	2	n/a	n/a	n/a	n/a	n/a
2837016	PROB	n/a	LTP166	ltpFR	9	n/a	n/a	n/a	n/a	n/a	n/a	8	1	1	6	n/a	n/a	n/a	n/a	n/a
2838397	PROB	n/a	LTP166	ltpFR	9	n/a	n/a	n/a	n/a	n/a	n/a	10	4	5	1	n/a	n/a	n/a	n/a	n/a
2840058	STOP	n/a	LTP166	ltpFR	9	n/a	n/a	n/a	n/a	n/a	n/a	n/a	n/a	n/a	n/a	n/a	n/a	n/a	n/a	n/a
2841643	WORD	wordpools/wasnorm_wordpool_less_exclusions.txt	LTP166	ltpFR	9	11	0	SCULPTURE	1258	n/a	1	n/a	0	0	0	1	0.412841796875	0.57763671875	lower	../fonts/zerothre.ttf
2844656	START	n/a	LTP166	ltpFR	9	n/a	n/a	n/a	n/a	n/a	n/a	n/a	n/a	n/a	n/a	n/a	n/a	n/a	n/a	n/a
2845837	PROB	n/a	LTP166	ltpFR	9	n/a	n/a	n/a	n/a	n/a	n/a	21	9	7	5	n/a	n/a	n/a	n/a	n/a
2849314	PROB	n/a	LTP166	ltpFR	9	n/a	n/a	n/a	n/a	n/a	n/a	11	5	4	2	n/a	n/a	n/a	n/a	n/a
2852393	PROB	n/a	LTP166	ltpFR	9	n/a	n/a	n/a	n/a	n/a	n/a	9	5	2	2	n/a	n/a	n/a	n/a	n/a
2854473	PROB	n/a	LTP166	ltpFR	9	n/a	n/a	n/a	n/a	n/a	n/a	9	1	6	2	n/a	n/a	n/a	n/a	n/a
2856387	PROB	n/a	LTP166	ltpFR	9	n/a	n/a	n/a	n/a	n/a	n/a	20	4	9	7	n/a	n/a	n/a	n/a	n/a
2860656	STOP	n/a	LTP166	ltpFR	9	n/a	n/a	n/a	n/a	n/a	n/a	n/a	n/a	n/a	n/a	n/a	n/a	n/a	n/a	n/a
2861730	WORD	wordpools/wasnorm_wordpool_less_exclusions.txt	LTP166	ltpFR	9	11	0	MUSEUM	933	n/a	1	n/a	0	0	0	1	0.412841796875	0.57763671875	lower	../fonts/zerothre.ttf
2864742	START	n/a	LTP166	ltpFR	9	n/a	n/a	n/a	n/a	n/a	n/a	n/a	n/a	n/a	n/a	n/a	n/a	n/a	n/a	n/a
2865923	PROB	n/a	LTP166	ltpFR	9	n/a	n/a	n/a	n/a	n/a	n/a	17	6	7	4	n/a	n/a	n/a	n/a	n/a
2868852	PROB	n/a	LTP166	ltpFR	9	n/a	n/a	n/a	n/a	n/a	n/a	20	8	4	8	n/a	n/a	n/a	n/a	n/a
2871464	PROB	n/a	LTP166	ltpFR	9	n/a	n/a	n/a	n/a	n/a	n/a	19	5	8	6	n/a	n/a	n/a	n/a	n/a
2874410	PROB	n/a	LTP166	ltpFR	9	n/a	n/a	n/a	n/a	n/a	n/a	12	1	9	2	n/a	n/a	n/a	n/a	n/a
2876058	PROB	n/a	LTP166	ltpFR	9	n/a	n/a	n/a	n/a	n/a	n/a	15	5	7	3	n/a	n/a	n/a	n/a	n/a
2877456	PROB	n/a	LTP166	ltpFR	9	n/a	n/a	n/a	n/a	n/a	n/a	16	8	1	7	n/a	n/a	n/a	n/a	n/a
2880742	STOP	n/a	LTP166	ltpFR	9	n/a	n/a	n/a	n/a	n/a	n/a	n/a	n/a	n/a	n/a	n/a	n/a	n/a	n/a	n/a
2882633	REC_START	n/a	LTP166	ltpFR	9	11	n/a	n/a	n/a	n/a	n/a	n/a	0	0	0	n/a	n/a	n/a	n/a	n/a
2885811	REC_WORD	wordpools/wasnorm_wordpool_less_exclusions.txt	LTP166	ltpFR	9	11	0	CHAPEL	280	n/a	1	n/a	0	0	0	n/a	n/a	n/a	n/a	n/a
2886432	REC_WORD	wordpools/wasnorm_wordpool_less_exclusions.txt	LTP166	ltpFR	9	11	0	MONASTERY	907	n/a	1	n/a	0	0	0	n/a	n/a	n/a	n/a	n/a
2887432	REC_WORD_VV	wordpools/wasnorm_wordpool_less_exclusions.txt	LTP166	ltpFR	9	11	n/a	<>	-1	n/a	n/a	n/a	0	0	0	n/a	n/a	n/a	n/a	n/a
2887856	REC_WORD	wordpools/wasnorm_wordpool_less_exclusions.txt	LTP166	ltpFR	9	11	0	FRIAR	605	n/a	1	n/a	0	0	0	n/a	n/a	n/a	n/a	n/a
2888883	REC_WORD	wordpools/wasnorm_wordpool_less_exclusions.txt	LTP166	ltpFR	9	11	0	HUMAN	726	n/a	1	n/a	0	0	0	n/a	n/a	n/a	n/a	n/a
2890874	REC_WORD	wordpools/wasnorm_wordpool_less_exclusions.txt	LTP166	ltpFR	9	11	0	OFFICER	973	n/a	1	n/a	0	0	0	n/a	n/a	n/a	n/a	n/a
2897733	REC_WORD	wordpools/wasnorm_wordpool_less_exclusions.txt	LTP166	ltpFR	9	11	0	PLANT	1083	n/a	1	n/a	0	0	0	n/a	n/a	n/a	n/a	n/a
2954055	REC_WORD	wordpools/wasnorm_wordpool_less_exclusions.txt	LTP166	ltpFR	9	11	0	MUSEUM	933	n/a	1	n/a	0	0	0	n/a	n/a	n/a	n/a	n/a
2972014	WORD	wordpools/wasnorm_wordpool_less_exclusions.txt	LTP166	ltpFR	9	12	1	ROOMMATE	1207	n/a	1	n/a	0	0	0	0	0.5869140625	0.422607421875	upper	../fonts/amplitud.ttf
2975908	WORD	wordpools/wasnorm_wordpool_less_exclusions.txt	LTP166	ltpFR	9	12	1	STRANGER	1389	n/a	1	n/a	0	0	0	0	0.5869140625	0.422607421875	upper	../fonts/amplitud.ttf
2980102	WORD	wordpools/wasnorm_wordpool_less_exclusions.txt	LTP166	ltpFR	9	12	1	SIREN	1310	n/a	0	n/a	0	0	0	0	0.5869140625	0.422607421875	upper	../fonts/amplitud.ttf
2984080	WORD	wordpools/wasnorm_wordpool_less_exclusions.txt	LTP166	ltpFR	9	12	1	MEDAL	885	n/a	0	n/a	0	0	0	0	0.5869140625	0.422607421875	upper	../fonts/amplitud.ttf
2987941	WORD	wordpools/wasnorm_wordpool_less_exclusions.txt	LTP166	ltpFR	9	12	1	SALOON	1228	n/a	0	n/a	0	0	0	0	0.5869140625	0.422607421875	upper	../fonts/amplitud.ttf
2992101	WORD	wordpools/wasnorm_wordpool_less_exclusions.txt	LTP166	ltpFR	9	12	1	BACK	65	n/a	0	n/a	0	0	0	0	0.5869140625	0.422607421875	upper	../fonts/amplitud.ttf
2996195	WORD	wordpools/wasnorm_wordpool_less_exclusions.txt	LTP166	ltpFR	9	12	1	GUM	672	n/a	0	n/a	0	0	0	0	0.5869140625	0.422607421875	upper	../fonts/amplitud.ttf
3000056	WORD	wordpools/wasnorm_wordpool_less_exclusions.txt	LTP166	ltpFR	9	12	1	VALLEY	1545	n/a	0	n/a	0	0	0	0	0.5869140625	0.422607421875	upper	../fonts/amplitud.ttf
3003967	WORD	wordpools/wasnorm_wordpool_less_exclusions.txt	LTP166	ltpFR	9	12	1	PILOT	1070	n/a	1	n/a	0	0	0	0	0.5869140625	0.422607421875	upper	../fonts/amplitud.ttf
3008127	WORD	wordpools/wasnorm_wordpool_less_exclusions.txt	LTP166	ltpFR	9	12	1	BRANCH	168	n/a	0	n/a	0	0	0	0	0.5869140625	0.422607421875	upper	../fonts/amplitud.ttf
3012038	WORD	wordpools/wasnorm_wordpool_less_exclusions.txt	LTP166	ltpFR	9	12	1	KEG	770	n/a	0	n/a	0	0	0	0	0.5869140625	0.422607421875	upper	../fonts/amplitud.ttf
3015949	WORD	wordpools/wasnorm_wordpool_less_exclusions.txt	LTP166	ltpFR	9	12	1	BEAN	105	n/a	0	n/a	0	0	0	0	0.5869140625	0.422607421875	upper	../fonts/amplitud.ttf
3020159	WORD	wordpools/wasnorm_wordpool_less_exclusions.txt	LTP166	ltpFR	9	12	1	PICNIC	1060	n/a	0	n/a	0	0	0	0	0.5869140625	0.422607421875	upper	../fonts/amplitud.ttf
3024353	WORD	wordpools/wasnorm_wordpool_less_exclusions.txt	LTP166	ltpFR	9	12	1	TYPIST	1532	n/a	0	n/a	0	0	0	0	0.5869140625	0.422607421875	upper	../fonts/amplitud.ttf
3028363	WORD	wordpools/wasnorm_wordpool_less_exclusions.txt	LTP166	ltpFR	9	12	1	EMPLOYER	532	n/a	1	n/a	0	0	0	0	0.5869140625	0.422607421875	upper	../fonts/amplitud.ttf
3032208	WORD	wordpools/wasnorm_wordpool_less_exclusions.txt	LTP166	ltpFR	9	12	1	TREASURE	1500	n/a	0	n/a	0	0	0	0	0.5869140625	0.422607421875	upper	../fonts/amplitud.ttf
3035220	START	n/a	LTP166	ltpFR	9	n/a	n/a	n/a	n/a	n/a	n/a	n/a	n/a	n/a	n/a	n/a	n/a	n/a	n/a	n/a
3036401	PROB	n/a	LTP166	ltpFR	9	n/a	n/a	n/a	n/a	n/a	n/a	10	1	6	3	n/a	n/a	n/a	n/a	n/a
3039347	PROB	n/a	LTP166	ltpFR	9	n/a	n/a	n/a	n/a	n/a	n/a	9	1	6	2	n/a	n/a	n/a	n/a	n/a
3040928	PROB	n/a	LTP166	ltpFR	9	n/a	n/a	n/a	n/a	n/a	n/a	15	3	5	7	n/a	n/a	n/a	n/a	n/a
3042426	STOP	n/a	LTP166	ltpFR	9	n/a	n/a	n/a	n/a	n/a	n/a	n/a	n/a	n/a	n/a	n/a	n/a	n/a	n/a	n/a
3045039	REC_START	n/a	LTP166	ltpFR	9	12	n/a	n/a	n/a	n/a	n/a	n/a	0	0	0	n/a	n/a	n/a	n/a	n/a
3046660	REC_WORD	wordpools/wasnorm_wordpool_less_exclusions.txt	LTP166	ltpFR	9	12	1	EMPLOYER	532	n/a	1	n/a	0	0	0	n/a	n/a	n/a	n/a	n/a
3047932	REC_WORD	wordpools/wasnorm_wordpool_less_exclusions.txt	LTP166	ltpFR	9	12	1	ROOMMATE	1207	n/a	1	n/a	0	0	0	n/a	n/a	n/a	n/a	n/a
3048830	REC_WORD	wordpools/wasnorm_wordpool_less_exclusions.txt	LTP166	ltpFR	9	12	1	STRANGER	1389	n/a	1	n/a	0	0	0	n/a	n/a	n/a	n/a	n/a
3051215	REC_WORD	wordpools/wasnorm_wordpool_less_exclusions.txt	LTP166	ltpFR	9	12	1	SALOON	1228	n/a	0	n/a	0	0	0	n/a	n/a	n/a	n/a	n/a
3054751	REC_WORD	wordpools/wasnorm_wordpool_less_exclusions.txt	LTP166	ltpFR	9	12	1	GUM	672	n/a	0	n/a	0	0	0	n/a	n/a	n/a	n/a	n/a
3056692	REC_WORD	wordpools/wasnorm_wordpool_less_exclusions.txt	LTP166	ltpFR	9	12	1	VALLEY	1545	n/a	0	n/a	0	0	0	n/a	n/a	n/a	n/a	n/a
3058748	REC_WORD	wordpools/wasnorm_wordpool_less_exclusions.txt	LTP166	ltpFR	9	12	1	PILOT	1070	n/a	1	n/a	0	0	0	n/a	n/a	n/a	n/a	n/a
3059651	REC_WORD	wordpools/wasnorm_wordpool_less_exclusions.txt	LTP166	ltpFR	9	12	1	BRANCH	168	n/a	0	n/a	0	0	0	n/a	n/a	n/a	n/a	n/a
3064739	REC_WORD	wordpools/wasnorm_wordpool_less_exclusions.txt	LTP166	ltpFR	9	12	1	PICNIC	1060	n/a	0	n/a	0	0	0	n/a	n/a	n/a	n/a	n/a
3065358	REC_WORD	wordpools/wasnorm_wordpool_less_exclusions.txt	LTP166	ltpFR	9	12	1	BEAN	105	n/a	0	n/a	0	0	0	n/a	n/a	n/a	n/a	n/a
3101306	REC_WORD	wordpools/wasnorm_wordpool_less_exclusions.txt	LTP166	ltpFR	9	12	1	TYPIST	1532	n/a	0	n/a	0	0	0	n/a	n/a	n/a	n/a	n/a
3108170	REC_WORD	wordpools/wasnorm_wordpool_less_exclusions.txt	LTP166	ltpFR	9	12	1	SIREN	1310	n/a	0	n/a	0	0	0	n/a	n/a	n/a	n/a	n/a
3136336	REC_START	n/a	LTP166	ltpFR	9	n/a	n/a	n/a	n/a	n/a	n/a	n/a	0	0	0	n/a	n/a	n/a	n/a	n/a
3137992	FFR_REC_WORD	wordpools/wasnorm_wordpool_less_exclusions.txt	LTP166	ltpFR	9	n/a	1	SIREN	1310	n/a	0	n/a	0	0	0	n/a	n/a	n/a	n/a	n/a
3140511	FFR_REC_WORD	wordpools/wasnorm_wordpool_less_exclusions.txt	LTP166	ltpFR	9	n/a	1	ROOMMATE	1207	n/a	1	n/a	0	0	0	n/a	n/a	n/a	n/a	n/a
3141200	FFR_REC_WORD	wordpools/wasnorm_wordpool_less_exclusions.txt	LTP166	ltpFR	9	n/a	1	STRANGER	1389	n/a	1	n/a	0	0	0	n/a	n/a	n/a	n/a	n/a
3143270	FFR_REC_WORD	wordpools/wasnorm_wordpool_less_exclusions.txt	LTP166	ltpFR	9	n/a	1	PICNIC	1060	n/a	0	n/a	0	0	0	n/a	n/a	n/a	n/a	n/a
3144966	FFR_REC_WORD	wordpools/wasnorm_wordpool_less_exclusions.txt	LTP166	ltpFR	9	n/a	1	TYPIST	1532	n/a	0	n/a	0	0	0	n/a	n/a	n/a	n/a	n/a
3146967	FFR_REC_WORD	wordpools/wasnorm_wordpool_less_exclusions.txt	LTP166	ltpFR	9	n/a	1	SALOON	1228	n/a	0	n/a	0	0	0	n/a	n/a	n/a	n/a	n/a
3150005	FFR_REC_WORD	wordpools/wasnorm_wordpool_less_exclusions.txt	LTP166	ltpFR	9	n/a	1	BRANCH	168	n/a	0	n/a	0	0	0	n/a	n/a	n/a	n/a	n/a
3151237	FFR_REC_WORD	wordpools/wasnorm_wordpool_less_exclusions.txt	LTP166	ltpFR	9	n/a	0	TWIG	1527	n/a	0	n/a	0	0	0	n/a	n/a	n/a	n/a	n/a
3154195	FFR_REC_WORD	wordpools/wasnorm_wordpool_less_exclusions.txt	LTP166	ltpFR	9	n/a	1	PILOT	1070	n/a	1	n/a	0	0	0	n/a	n/a	n/a	n/a	n/a
3161514	FFR_REC_WORD	wordpools/wasnorm_wordpool_less_exclusions.txt	LTP166	ltpFR	9	n/a	0	RECIPE	1175	n/a	n/a	n/a	0	0	0	n/a	n/a	n/a	n/a	n/a
3162244	FFR_REC_WORD	wordpools/wasnorm_wordpool_less_exclusions.txt	LTP166	ltpFR	9	n/a	0	HAMBURGER	679	n/a	n/a	n/a	0	0	0	n/a	n/a	n/a	n/a	n/a
3162801	FFR_REC_WORD	wordpools/wasnorm_wordpool_less_exclusions.txt	LTP166	ltpFR	9	n/a	0	FRIES	607	n/a	1	n/a	0	0	0	n/a	n/a	n/a	n/a	n/a
3163422	FFR_REC_WORD	wordpools/wasnorm_wordpool_less_exclusions.txt	LTP166	ltpFR	9	n/a	1	SANDWICH	1232	n/a	n/a	n/a	0	0	0	n/a	n/a	n/a	n/a	n/a
3172129	FFR_REC_WORD	wordpools/wasnorm_wordpool_less_exclusions.txt	LTP166	ltpFR	9	n/a	1	DIAMOND	458	n/a	0	n/a	0	0	0	n/a	n/a	n/a	n/a	n/a
3172703	FFR_REC_WORD	wordpools/wasnorm_wordpool_less_exclusions.txt	LTP166	ltpFR	9	n/a	1	RING	1193	n/a	0	n/a	0	0	0	n/a	n/a	n/a	n/a	n/a
3173236	FFR_REC_WORD	wordpools/wasnorm_wordpool_less_exclusions.txt	LTP166	ltpFR	9	n/a	0	WITCH	1617	n/a	1	n/a	0	0	0	n/a	n/a	n/a	n/a	n/a
3174020	FFR_REC_WORD	wordpools/wasnorm_wordpool_less_exclusions.txt	LTP166	ltpFR	9	n/a	0	BOAT	144	n/a	1	n/a	0	0	0	n/a	n/a	n/a	n/a	n/a
3174958	FFR_REC_WORD	wordpools/wasnorm_wordpool_less_exclusions.txt	LTP166	ltpFR	9	n/a	1	ATHLETE	52	n/a	1	n/a	0	0	0	n/a	n/a	n/a	n/a	n/a
3187754	FFR_REC_WORD	wordpools/wasnorm_wordpool_less_exclusions.txt	LTP166	ltpFR	9	n/a	1	BAY	102	n/a	1	n/a	0	0	0	n/a	n/a	n/a	n/a	n/a
3194863	FFR_REC_WORD	wordpools/wasnorm_wordpool_less_exclusions.txt	LTP166	ltpFR	9	n/a	1	APPLE	33	n/a	1	n/a	0	0	0	n/a	n/a	n/a	n/a	n/a
3195616	FFR_REC_WORD	wordpools/wasnorm_wordpool_less_exclusions.txt	LTP166	ltpFR	9	n/a	1	COBBLER	335	n/a	0	n/a	0	0	0	n/a	n/a	n/a	n/a	n/a
3199851	FFR_REC_WORD	wordpools/wasnorm_wordpool_less_exclusions.txt	LTP166	ltpFR	9	n/a	1	OPERATOR	979	n/a	1	n/a	0	0	0	n/a	n/a	n/a	n/a	n/a
3220988	FFR_REC_WORD	wordpools/wasnorm_wordpool_less_exclusions.txt	LTP166	ltpFR	9	n/a	0	PLANT	1083	n/a	1	n/a	0	0	0	n/a	n/a	n/a	n/a	n/a
3229379	FFR_REC_WORD_VV	wordpools/wasnorm_wordpool_less_exclusions.txt	LTP166	ltpFR	9	n/a	n/a	<>	-1	n/a	n/a	n/a	0	0	0	n/a	n/a	n/a	n/a	n/a
3237905	FFR_REC_WORD	wordpools/wasnorm_wordpool_less_exclusions.txt	LTP166	ltpFR	9	n/a	n/a	CARD	243	n/a	n/a	n/a	0	0	0	n/a	n/a	n/a	n/a	n/a
3238548	FFR_REC_WORD	wordpools/wasnorm_wordpool_less_exclusions.txt	LTP166	ltpFR	9	n/a	1	COMMUNITY	356	n/a	0	n/a	0	0	0	n/a	n/a	n/a	n/a	n/a
3239262	FFR_REC_WORD	wordpools/wasnorm_wordpool_less_exclusions.txt	LTP166	ltpFR	9	n/a	1	AUDIENCE	59	n/a	0	n/a	0	0	0	n/a	n/a	n/a	n/a	n/a
3242609	FFR_REC_WORD	wordpools/wasnorm_wordpool_less_exclusions.txt	LTP166	ltpFR	9	n/a	1	PAINT	1003	n/a	0	n/a	0	0	0	n/a	n/a	n/a	n/a	n/a
3260204	FFR_REC_WORD	wordpools/wasnorm_wordpool_less_exclusions.txt	LTP166	ltpFR	9	n/a	1	MARROW	872	n/a	0	n/a	0	0	0	n/a	n/a	n/a	n/a	n/a
3267338	FFR_REC_WORD	wordpools/wasnorm_wordpool_less_exclusions.txt	LTP166	ltpFR	9	n/a	0	MESSAGE	888	n/a	0	n/a	0	0	0	n/a	n/a	n/a	n/a	n/a
3268106	FFR_REC_WORD	wordpools/wasnorm_wordpool_less_exclusions.txt	LTP166	ltpFR	9	n/a	0	PASSAGE	1019	n/a	1	n/a	0	0	0	n/a	n/a	n/a	n/a	n/a
3312281	FFR_REC_WORD	wordpools/wasnorm_wordpool_less_exclusions.txt	LTP166	ltpFR	9	n/a	1	CAPTAIN	239	n/a	1	n/a	0	0	0	n/a	n/a	n/a	n/a	n/a
3312909	FFR_REC_WORD	wordpools/wasnorm_wordpool_less_exclusions.txt	LTP166	ltpFR	9	n/a	1	COUNTRY	388	n/a	0	n/a	0	0	0	n/a	n/a	n/a	n/a	n/a
3324838	FFR_REC_WORD_VV	wordpools/wasnorm_wordpool_less_exclusions.txt	LTP166	ltpFR	9	n/a	n/a	<>	-1	n/a	n/a	n/a	0	0	0	n/a	n/a	n/a	n/a	n/a
3325838	FFR_REC_WORD_VV	wordpools/wasnorm_wordpool_less_exclusions.txt	LTP166	ltpFR	9	n/a	n/a	<>	-1	n/a	n/a	n/a	0	0	0	n/a	n/a	n/a	n/a	n/a
3326838	FFR_REC_WORD_VV	wordpools/wasnorm_wordpool_less_exclusions.txt	LTP166	ltpFR	9	n/a	n/a	<>	-1	n/a	n/a	n/a	0	0	0	n/a	n/a	n/a	n/a	n/a
3330340	FFR_REC_WORD_VV	wordpools/wasnorm_wordpool_less_exclusions.txt	LTP166	ltpFR	9	n/a	n/a	<>	-1	n/a	n/a	n/a	0	0	0	n/a	n/a	n/a	n/a	n/a
3408537	FFR_REC_WORD	wordpools/wasnorm_wordpool_less_exclusions.txt	LTP166	ltpFR	9	n/a	0	MONASTERY	907	n/a	1	n/a	0	0	0	n/a	n/a	n/a	n/a	n/a
3410323	FFR_REC_WORD	wordpools/wasnorm_wordpool_less_exclusions.txt	LTP166	ltpFR	9	n/a	0	FRIAR	605	n/a	1	n/a	0	0	0	n/a	n/a	n/a	n/a	n/a
