mstime	trial_type	stim_file	subject	experiment	session	trial	task	item_name	item_num	recog_resp	recog_conf	resp	color_r	color_g	color_b	case	font
0	SESS_START	n/a	LTP256	ltpFR	19	n/a	n/a	n/a	n/a	1	2	n/a	n/a	n/a	n/a	n/a	n/a
19568	WORD	wordpools/wasnorm_wordpool_less_exclusions.txt	LTP256	ltpFR	19	1	1	WINNER	1615	0	n/a	1	0.422607421875	0.5869140625	0	upper	zerothre.ttf
23562	WORD	wordpools/wasnorm_wordpool_less_exclusions.txt	LTP256	ltpFR	19	1	1	BLADE	134	n/a	n/a	0	0.422607421875	0.5869140625	0	upper	zerothre.ttf
27390	WORD	wordpools/wasnorm_wordpool_less_exclusions.txt	LTP256	ltpFR	19	1	0	EMERALD	528	n/a	n/a	0	0.57763671875	0.412841796875	1	lower	amplitud.ttf
31550	WORD	wordpools/wasnorm_wordpool_less_exclusions.txt	LTP256	ltpFR	19	1	0	CHEMIST	292	n/a	n/a	1	0.57763671875	0.412841796875	1	lower	amplitud.ttf
35660	WORD	wordpools/wasnorm_wordpool_less_exclusions.txt	LTP256	ltpFR	19	1	0	BEARD	107	n/a	n/a	0	0.57763671875	0.412841796875	1	lower	amplitud.ttf
39621	WORD	wordpools/wasnorm_wordpool_less_exclusions.txt	LTP256	ltpFR	19	1	1	CREAM	402	n/a	n/a	0	0.422607421875	0.5869140625	0	upper	zerothre.ttf
43500	WORD	wordpools/wasnorm_wordpool_less_exclusions.txt	LTP256	ltpFR	19	1	1	IGLOO	734	n/a	n/a	0	0.422607421875	0.5869140625	0	upper	zerothre.ttf
47559	WORD	wordpools/wasnorm_wordpool_less_exclusions.txt	LTP256	ltpFR	19	1	1	PORCUPINE	1107	n/a	n/a	1	0.422607421875	0.5869140625	0	upper	zerothre.ttf
51538	WORD	wordpools/wasnorm_wordpool_less_exclusions.txt	LTP256	ltpFR	19	1	1	SWORD	1423	n/a	n/a	1	0.422607421875	0.5869140625	0	upper	zerothre.ttf
55399	WORD	wordpools/wasnorm_wordpool_less_exclusions.txt	LTP256	ltpFR	19	1	0	LAVA	804	n/a	n/a	1	0.57763671875	0.412841796875	1	lower	amplitud.ttf
59542	WORD	wordpools/wasnorm_wordpool_less_exclusions.txt	LTP256	ltpFR	19	1	0	CREW	406	n/a	n/a	1	0.57763671875	0.412841796875	1	lower	amplitud.ttf
63453	WORD	wordpools/wasnorm_wordpool_less_exclusions.txt	LTP256	ltpFR	19	1	0	SHIP	1286	n/a	n/a	1	0.57763671875	0.412841796875	1	lower	amplitud.ttf
67298	WORD	wordpools/wasnorm_wordpool_less_exclusions.txt	LTP256	ltpFR	19	1	0	ATMOSPHERE	54	n/a	n/a	1	0.57763671875	0.412841796875	1	lower	amplitud.ttf
71375	WORD	wordpools/wasnorm_wordpool_less_exclusions.txt	LTP256	ltpFR	19	1	0	MISTER	901	n/a	n/a	1	0.57763671875	0.412841796875	1	lower	amplitud.ttf
75385	WORD	wordpools/wasnorm_wordpool_less_exclusions.txt	LTP256	ltpFR	19	1	1	FLASK	576	n/a	n/a	0	0.422607421875	0.5869140625	0	upper	zerothre.ttf
79379	WORD	wordpools/wasnorm_wordpool_less_exclusions.txt	LTP256	ltpFR	19	1	1	RUBY	1214	n/a	n/a	0	0.422607421875	0.5869140625	0	upper	zerothre.ttf
85055	REC_START	n/a	LTP256	ltpFR	19	1	n/a	n/a	n/a	n/a	n/a	n/a	n/a	n/a	n/a	n/a	n/a
86592	REC_WORD	wordpools/wasnorm_wordpool_less_exclusions.txt	LTP256	ltpFR	19	1	1	RUBY	1214	n/a	n/a	0	n/a	n/a	n/a	n/a	n/a
87632	REC_WORD	wordpools/wasnorm_wordpool_less_exclusions.txt	LTP256	ltpFR	19	1	0	EMERALD	528	n/a	n/a	0	n/a	n/a	n/a	n/a	n/a
88595	REC_WORD	wordpools/wasnorm_wordpool_less_exclusions.txt	LTP256	ltpFR	19	1	0	BEARD	107	n/a	n/a	0	n/a	n/a	n/a	n/a	n/a
89535	REC_WORD	wordpools/wasnorm_wordpool_less_exclusions.txt	LTP256	ltpFR	19	1	0	CHEMIST	292	n/a	n/a	1	n/a	n/a	n/a	n/a	n/a
90614	REC_WORD	wordpools/wasnorm_wordpool_less_exclusions.txt	LTP256	ltpFR	19	1	n/a	WARRIOR	1589	n/a	n/a	n/a	n/a	n/a	n/a	n/a	n/a
95249	REC_WORD	wordpools/wasnorm_wordpool_less_exclusions.txt	LTP256	ltpFR	19	1	1	BLADE	134	n/a	n/a	0	n/a	n/a	n/a	n/a	n/a
96105	REC_WORD	wordpools/wasnorm_wordpool_less_exclusions.txt	LTP256	ltpFR	19	1	1	SWORD	1423	n/a	n/a	1	n/a	n/a	n/a	n/a	n/a
103506	REC_WORD	wordpools/wasnorm_wordpool_less_exclusions.txt	LTP256	ltpFR	19	1	1	IGLOO	734	n/a	n/a	0	n/a	n/a	n/a	n/a	n/a
104442	REC_WORD	wordpools/wasnorm_wordpool_less_exclusions.txt	LTP256	ltpFR	19	1	0	ATMOSPHERE	54	n/a	n/a	1	n/a	n/a	n/a	n/a	n/a
107407	REC_WORD	wordpools/wasnorm_wordpool_less_exclusions.txt	LTP256	ltpFR	19	1	1	PORCUPINE	1107	n/a	n/a	1	n/a	n/a	n/a	n/a	n/a
110034	REC_WORD	wordpools/wasnorm_wordpool_less_exclusions.txt	LTP256	ltpFR	19	1	0	LAVA	804	n/a	n/a	1	n/a	n/a	n/a	n/a	n/a
111486	REC_WORD	wordpools/wasnorm_wordpool_less_exclusions.txt	LTP256	ltpFR	19	1	0	SHIP	1286	n/a	n/a	1	n/a	n/a	n/a	n/a	n/a
112825	REC_WORD	wordpools/wasnorm_wordpool_less_exclusions.txt	LTP256	ltpFR	19	1	0	CREW	406	n/a	n/a	1	n/a	n/a	n/a	n/a	n/a
142711	REC_WORD	wordpools/wasnorm_wordpool_less_exclusions.txt	LTP256	ltpFR	19	1	1	WINNER	1615	n/a	n/a	1	n/a	n/a	n/a	n/a	n/a
163653	WORD	wordpools/wasnorm_wordpool_less_exclusions.txt	LTP256	ltpFR	19	2	0	POLYESTER	1100	n/a	n/a	1	0.57763671875	0.412841796875	1	lower	amplitud.ttf
167830	WORD	wordpools/wasnorm_wordpool_less_exclusions.txt	LTP256	ltpFR	19	2	0	WHEEL	1603	n/a	n/a	1	0.57763671875	0.412841796875	1	lower	amplitud.ttf
172024	WORD	wordpools/wasnorm_wordpool_less_exclusions.txt	LTP256	ltpFR	19	2	1	SHOWER	1296	n/a	n/a	0	0.422607421875	0.5869140625	0	upper	zerothre.ttf
176202	WORD	wordpools/wasnorm_wordpool_less_exclusions.txt	LTP256	ltpFR	19	2	1	RAG	1160	n/a	n/a	0	0.422607421875	0.5869140625	0	upper	zerothre.ttf
180312	WORD	wordpools/wasnorm_wordpool_less_exclusions.txt	LTP256	ltpFR	19	2	1	FEATHER	557	n/a	n/a	0	0.422607421875	0.5869140625	0	upper	zerothre.ttf
184389	WORD	wordpools/wasnorm_wordpool_less_exclusions.txt	LTP256	ltpFR	19	2	0	VEST	1559	n/a	n/a	1	0.57763671875	0.412841796875	1	lower	amplitud.ttf
188599	WORD	wordpools/wasnorm_wordpool_less_exclusions.txt	LTP256	ltpFR	19	2	0	PELICAN	1039	n/a	n/a	1	0.57763671875	0.412841796875	1	lower	amplitud.ttf
192544	WORD	wordpools/wasnorm_wordpool_less_exclusions.txt	LTP256	ltpFR	19	2	0	DOVE	491	n/a	n/a	1	0.57763671875	0.412841796875	1	lower	amplitud.ttf
196737	WORD	wordpools/wasnorm_wordpool_less_exclusions.txt	LTP256	ltpFR	19	2	1	ELECTRICIAN	521	n/a	n/a	1	0.422607421875	0.5869140625	0	upper	zerothre.ttf
200697	WORD	wordpools/wasnorm_wordpool_less_exclusions.txt	LTP256	ltpFR	19	2	1	FIREMAN	569	n/a	n/a	1	0.422607421875	0.5869140625	0	upper	zerothre.ttf
204658	WORD	wordpools/wasnorm_wordpool_less_exclusions.txt	LTP256	ltpFR	19	2	1	LOFT	840	n/a	n/a	0	0.422607421875	0.5869140625	0	upper	zerothre.ttf
208852	WORD	wordpools/wasnorm_wordpool_less_exclusions.txt	LTP256	ltpFR	19	2	1	SPARROW	1347	n/a	n/a	1	0.422607421875	0.5869140625	0	upper	zerothre.ttf
212813	WORD	wordpools/wasnorm_wordpool_less_exclusions.txt	LTP256	ltpFR	19	2	1	SHRIMP	1297	n/a	n/a	1	0.422607421875	0.5869140625	0	upper	zerothre.ttf
216740	WORD	wordpools/wasnorm_wordpool_less_exclusions.txt	LTP256	ltpFR	19	2	0	ASIA	46	n/a	n/a	1	0.57763671875	0.412841796875	1	lower	amplitud.ttf
220900	WORD	wordpools/wasnorm_wordpool_less_exclusions.txt	LTP256	ltpFR	19	2	0	FARMER	553	n/a	n/a	1	0.57763671875	0.412841796875	1	lower	amplitud.ttf
224728	WORD	wordpools/wasnorm_wordpool_less_exclusions.txt	LTP256	ltpFR	19	2	0	BANKER	84	n/a	n/a	1	0.57763671875	0.412841796875	1	lower	amplitud.ttf
230587	REC_START	n/a	LTP256	ltpFR	19	2	n/a	n/a	n/a	n/a	n/a	n/a	n/a	n/a	n/a	n/a	n/a
230987	REC_WORD	wordpools/wasnorm_wordpool_less_exclusions.txt	LTP256	ltpFR	19	2	0	ASIA	46	n/a	n/a	1	n/a	n/a	n/a	n/a	n/a
231916	REC_WORD	wordpools/wasnorm_wordpool_less_exclusions.txt	LTP256	ltpFR	19	2	0	FARMER	553	n/a	n/a	1	n/a	n/a	n/a	n/a	n/a
233027	REC_WORD	wordpools/wasnorm_wordpool_less_exclusions.txt	LTP256	ltpFR	19	2	0	BANKER	84	n/a	n/a	1	n/a	n/a	n/a	n/a	n/a
234015	REC_WORD	wordpools/wasnorm_wordpool_less_exclusions.txt	LTP256	ltpFR	19	2	1	SHRIMP	1297	n/a	n/a	1	n/a	n/a	n/a	n/a	n/a
240467	REC_WORD	wordpools/wasnorm_wordpool_less_exclusions.txt	LTP256	ltpFR	19	2	0	WHEEL	1603	n/a	n/a	1	n/a	n/a	n/a	n/a	n/a
243589	REC_WORD	wordpools/wasnorm_wordpool_less_exclusions.txt	LTP256	ltpFR	19	2	1	SHOWER	1296	n/a	n/a	0	n/a	n/a	n/a	n/a	n/a
247060	REC_WORD	wordpools/wasnorm_wordpool_less_exclusions.txt	LTP256	ltpFR	19	2	0	POLYESTER	1100	n/a	n/a	1	n/a	n/a	n/a	n/a	n/a
248413	REC_WORD	wordpools/wasnorm_wordpool_less_exclusions.txt	LTP256	ltpFR	19	2	0	VEST	1559	n/a	n/a	1	n/a	n/a	n/a	n/a	n/a
249415	REC_WORD	wordpools/wasnorm_wordpool_less_exclusions.txt	LTP256	ltpFR	19	2	1	FEATHER	557	n/a	n/a	0	n/a	n/a	n/a	n/a	n/a
250628	REC_WORD	wordpools/wasnorm_wordpool_less_exclusions.txt	LTP256	ltpFR	19	2	0	PELICAN	1039	n/a	n/a	1	n/a	n/a	n/a	n/a	n/a
253403	REC_WORD	wordpools/wasnorm_wordpool_less_exclusions.txt	LTP256	ltpFR	19	2	0	DOVE	491	n/a	n/a	1	n/a	n/a	n/a	n/a	n/a
257456	REC_WORD	wordpools/wasnorm_wordpool_less_exclusions.txt	LTP256	ltpFR	19	2	1	SPARROW	1347	n/a	n/a	1	n/a	n/a	n/a	n/a	n/a
266308	REC_WORD	wordpools/wasnorm_wordpool_less_exclusions.txt	LTP256	ltpFR	19	2	1	ELECTRICIAN	521	n/a	n/a	1	n/a	n/a	n/a	n/a	n/a
267820	REC_WORD	wordpools/wasnorm_wordpool_less_exclusions.txt	LTP256	ltpFR	19	2	1	FIREMAN	569	n/a	n/a	1	n/a	n/a	n/a	n/a	n/a
273128	REC_WORD	wordpools/wasnorm_wordpool_less_exclusions.txt	LTP256	ltpFR	19	2	1	LOFT	840	n/a	n/a	0	n/a	n/a	n/a	n/a	n/a
309086	WORD	wordpools/wasnorm_wordpool_less_exclusions.txt	LTP256	ltpFR	19	3	0	VOLLEYBALL	1576	n/a	n/a	1	0.57763671875	0.412841796875	1	lower	amplitud.ttf
313197	WORD	wordpools/wasnorm_wordpool_less_exclusions.txt	LTP256	ltpFR	19	3	0	AIRPLANE	12	n/a	n/a	1	0.57763671875	0.412841796875	1	lower	amplitud.ttf
317307	WORD	wordpools/wasnorm_wordpool_less_exclusions.txt	LTP256	ltpFR	19	3	0	ZIPPER	1636	n/a	n/a	0	0.57763671875	0.412841796875	1	lower	amplitud.ttf
321218	WORD	wordpools/wasnorm_wordpool_less_exclusions.txt	LTP256	ltpFR	19	3	0	CANARY	227	n/a	n/a	0	0.57763671875	0.412841796875	1	lower	amplitud.ttf
325079	WORD	wordpools/wasnorm_wordpool_less_exclusions.txt	LTP256	ltpFR	19	3	0	ROBIN	1199	n/a	n/a	0	0.57763671875	0.412841796875	1	lower	amplitud.ttf
329023	WORD	wordpools/wasnorm_wordpool_less_exclusions.txt	LTP256	ltpFR	19	3	0	ELEPHANT	523	n/a	n/a	1	0.57763671875	0.412841796875	1	lower	amplitud.ttf
333150	WORD	wordpools/wasnorm_wordpool_less_exclusions.txt	LTP256	ltpFR	19	3	0	DOLLAR	482	n/a	n/a	0	0.57763671875	0.412841796875	1	lower	amplitud.ttf
337111	WORD	wordpools/wasnorm_wordpool_less_exclusions.txt	LTP256	ltpFR	19	3	0	BEEF	113	n/a	n/a	1	0.57763671875	0.412841796875	1	lower	amplitud.ttf
341305	WORD	wordpools/wasnorm_wordpool_less_exclusions.txt	LTP256	ltpFR	19	3	0	ISLAND	745	n/a	n/a	1	0.57763671875	0.412841796875	1	lower	amplitud.ttf
345266	WORD	wordpools/wasnorm_wordpool_less_exclusions.txt	LTP256	ltpFR	19	3	0	CASH	252	n/a	n/a	1	0.57763671875	0.412841796875	1	lower	amplitud.ttf
349409	WORD	wordpools/wasnorm_wordpool_less_exclusions.txt	LTP256	ltpFR	19	3	0	CELLAR	267	n/a	n/a	1	0.57763671875	0.412841796875	1	lower	amplitud.ttf
353552	WORD	wordpools/wasnorm_wordpool_less_exclusions.txt	LTP256	ltpFR	19	3	0	BAND	78	n/a	n/a	1	0.57763671875	0.412841796875	1	lower	amplitud.ttf
357696	WORD	wordpools/wasnorm_wordpool_less_exclusions.txt	LTP256	ltpFR	19	3	0	GOO	648	n/a	n/a	0	0.57763671875	0.412841796875	1	lower	amplitud.ttf
361773	WORD	wordpools/wasnorm_wordpool_less_exclusions.txt	LTP256	ltpFR	19	3	0	HERD	705	n/a	n/a	1	0.57763671875	0.412841796875	1	lower	amplitud.ttf
365884	WORD	wordpools/wasnorm_wordpool_less_exclusions.txt	LTP256	ltpFR	19	3	0	CELERY	266	n/a	n/a	0	0.57763671875	0.412841796875	1	lower	amplitud.ttf
369745	WORD	wordpools/wasnorm_wordpool_less_exclusions.txt	LTP256	ltpFR	19	3	0	TURNIP	1521	n/a	n/a	0	0.57763671875	0.412841796875	1	lower	amplitud.ttf
375405	REC_START	n/a	LTP256	ltpFR	19	3	n/a	n/a	n/a	n/a	n/a	n/a	n/a	n/a	n/a	n/a	n/a
375954	REC_WORD	wordpools/wasnorm_wordpool_less_exclusions.txt	LTP256	ltpFR	19	3	0	CELERY	266	n/a	n/a	0	n/a	n/a	n/a	n/a	n/a
377229	REC_WORD	wordpools/wasnorm_wordpool_less_exclusions.txt	LTP256	ltpFR	19	3	0	TURNIP	1521	n/a	n/a	0	n/a	n/a	n/a	n/a	n/a
378353	REC_WORD	wordpools/wasnorm_wordpool_less_exclusions.txt	LTP256	ltpFR	19	3	0	GOO	648	n/a	n/a	0	n/a	n/a	n/a	n/a	n/a
379253	REC_WORD	wordpools/wasnorm_wordpool_less_exclusions.txt	LTP256	ltpFR	19	3	0	HERD	705	n/a	n/a	1	n/a	n/a	n/a	n/a	n/a
380400	REC_WORD	wordpools/wasnorm_wordpool_less_exclusions.txt	LTP256	ltpFR	19	3	0	ELEPHANT	523	n/a	n/a	1	n/a	n/a	n/a	n/a	n/a
381496	REC_WORD	wordpools/wasnorm_wordpool_less_exclusions.txt	LTP256	ltpFR	19	3	0	CANARY	227	n/a	n/a	0	n/a	n/a	n/a	n/a	n/a
390058	REC_WORD	wordpools/wasnorm_wordpool_less_exclusions.txt	LTP256	ltpFR	19	3	0	VOLLEYBALL	1576	n/a	n/a	1	n/a	n/a	n/a	n/a	n/a
392164	REC_WORD	wordpools/wasnorm_wordpool_less_exclusions.txt	LTP256	ltpFR	19	3	0	CELLAR	267	n/a	n/a	1	n/a	n/a	n/a	n/a	n/a
393225	REC_WORD	wordpools/wasnorm_wordpool_less_exclusions.txt	LTP256	ltpFR	19	3	0	BAND	78	n/a	n/a	1	n/a	n/a	n/a	n/a	n/a
398243	REC_WORD	wordpools/wasnorm_wordpool_less_exclusions.txt	LTP256	ltpFR	19	3	0	ZIPPER	1636	n/a	n/a	0	n/a	n/a	n/a	n/a	n/a
399070	REC_WORD	wordpools/wasnorm_wordpool_less_exclusions.txt	LTP256	ltpFR	19	3	0	CASH	252	n/a	n/a	1	n/a	n/a	n/a	n/a	n/a
399792	REC_WORD	wordpools/wasnorm_wordpool_less_exclusions.txt	LTP256	ltpFR	19	3	0	DOLLAR	482	n/a	n/a	0	n/a	n/a	n/a	n/a	n/a
403296	REC_WORD	wordpools/wasnorm_wordpool_less_exclusions.txt	LTP256	ltpFR	19	3	0	AIRPLANE	12	n/a	n/a	1	n/a	n/a	n/a	n/a	n/a
454020	WORD	wordpools/wasnorm_wordpool_less_exclusions.txt	LTP256	ltpFR	19	4	0	FLOOR	581	n/a	n/a	1	0.57763671875	0.412841796875	1	lower	amplitud.ttf
457847	WORD	wordpools/wasnorm_wordpool_less_exclusions.txt	LTP256	ltpFR	19	4	0	TILE	1468	n/a	n/a	1	0.57763671875	0.412841796875	1	lower	amplitud.ttf
461957	WORD	wordpools/wasnorm_wordpool_less_exclusions.txt	LTP256	ltpFR	19	4	0	WASHER	1592	n/a	n/a	1	0.57763671875	0.412841796875	1	lower	amplitud.ttf
466052	WORD	wordpools/wasnorm_wordpool_less_exclusions.txt	LTP256	ltpFR	19	4	0	STRING	1394	n/a	n/a	0	0.57763671875	0.412841796875	1	lower	amplitud.ttf
470113	WORD	wordpools/wasnorm_wordpool_less_exclusions.txt	LTP256	ltpFR	19	4	0	HERB	704	n/a	n/a	0	0.57763671875	0.412841796875	1	lower	amplitud.ttf
474290	WORD	wordpools/wasnorm_wordpool_less_exclusions.txt	LTP256	ltpFR	19	4	0	POT	1114	n/a	n/a	1	0.57763671875	0.412841796875	1	lower	amplitud.ttf
478433	WORD	wordpools/wasnorm_wordpool_less_exclusions.txt	LTP256	ltpFR	19	4	0	PIER	1063	n/a	n/a	1	0.57763671875	0.412841796875	1	lower	amplitud.ttf
482411	WORD	wordpools/wasnorm_wordpool_less_exclusions.txt	LTP256	ltpFR	19	4	0	CLOSET	326	n/a	n/a	1	0.57763671875	0.412841796875	1	lower	amplitud.ttf
486238	WORD	wordpools/wasnorm_wordpool_less_exclusions.txt	LTP256	ltpFR	19	4	0	GOLD	647	n/a	n/a	1	0.57763671875	0.412841796875	1	lower	amplitud.ttf
490199	WORD	wordpools/wasnorm_wordpool_less_exclusions.txt	LTP256	ltpFR	19	4	0	TERMITE	1451	n/a	n/a	0	0.57763671875	0.412841796875	1	lower	amplitud.ttf
494410	WORD	wordpools/wasnorm_wordpool_less_exclusions.txt	LTP256	ltpFR	19	4	0	MOUNTAIN	924	n/a	n/a	1	0.57763671875	0.412841796875	1	lower	amplitud.ttf
498370	WORD	wordpools/wasnorm_wordpool_less_exclusions.txt	LTP256	ltpFR	19	4	0	PEARL	1034	n/a	n/a	0	0.57763671875	0.412841796875	1	lower	amplitud.ttf
502431	WORD	wordpools/wasnorm_wordpool_less_exclusions.txt	LTP256	ltpFR	19	4	0	PICNIC	1060	n/a	n/a	1	0.57763671875	0.412841796875	1	lower	amplitud.ttf
506624	WORD	wordpools/wasnorm_wordpool_less_exclusions.txt	LTP256	ltpFR	19	4	0	GRILL	661	n/a	n/a	1	0.57763671875	0.412841796875	1	lower	amplitud.ttf
510634	WORD	wordpools/wasnorm_wordpool_less_exclusions.txt	LTP256	ltpFR	19	4	0	ABDOMEN	1	n/a	n/a	1	0.57763671875	0.412841796875	1	lower	amplitud.ttf
514662	WORD	wordpools/wasnorm_wordpool_less_exclusions.txt	LTP256	ltpFR	19	4	0	ARROW	40	n/a	n/a	0	0.57763671875	0.412841796875	1	lower	amplitud.ttf
520521	REC_START	n/a	LTP256	ltpFR	19	4	n/a	n/a	n/a	n/a	n/a	n/a	n/a	n/a	n/a	n/a	n/a
520803	REC_WORD	wordpools/wasnorm_wordpool_less_exclusions.txt	LTP256	ltpFR	19	4	0	ARROW	40	n/a	n/a	0	n/a	n/a	n/a	n/a	n/a
521665	REC_WORD	wordpools/wasnorm_wordpool_less_exclusions.txt	LTP256	ltpFR	19	4	0	ABDOMEN	1	n/a	n/a	1	n/a	n/a	n/a	n/a	n/a
522840	REC_WORD	wordpools/wasnorm_wordpool_less_exclusions.txt	LTP256	ltpFR	19	4	n/a	PORT	1110	n/a	n/a	n/a	n/a	n/a	n/a	n/a	n/a
524337	REC_WORD	wordpools/wasnorm_wordpool_less_exclusions.txt	LTP256	ltpFR	19	4	0	PIER	1063	n/a	n/a	1	n/a	n/a	n/a	n/a	n/a
526493	REC_WORD	wordpools/wasnorm_wordpool_less_exclusions.txt	LTP256	ltpFR	19	4	0	MOUNTAIN	924	n/a	n/a	1	n/a	n/a	n/a	n/a	n/a
527317	REC_WORD	wordpools/wasnorm_wordpool_less_exclusions.txt	LTP256	ltpFR	19	4	0	PICNIC	1060	n/a	n/a	1	n/a	n/a	n/a	n/a	n/a
532519	REC_WORD	wordpools/wasnorm_wordpool_less_exclusions.txt	LTP256	ltpFR	19	4	0	WASHER	1592	n/a	n/a	1	n/a	n/a	n/a	n/a	n/a
533205	REC_WORD	wordpools/wasnorm_wordpool_less_exclusions.txt	LTP256	ltpFR	19	4	0	TILE	1468	n/a	n/a	1	n/a	n/a	n/a	n/a	n/a
533638	REC_WORD	wordpools/wasnorm_wordpool_less_exclusions.txt	LTP256	ltpFR	19	4	0	FLOOR	581	n/a	n/a	1	n/a	n/a	n/a	n/a	n/a
539067	REC_WORD	wordpools/wasnorm_wordpool_less_exclusions.txt	LTP256	ltpFR	19	4	0	STRING	1394	n/a	n/a	0	n/a	n/a	n/a	n/a	n/a
553868	REC_WORD	wordpools/wasnorm_wordpool_less_exclusions.txt	LTP256	ltpFR	19	4	0	ARROW	40	n/a	n/a	0	n/a	n/a	n/a	n/a	n/a
561186	REC_WORD	wordpools/wasnorm_wordpool_less_exclusions.txt	LTP256	ltpFR	19	4	0	CLOSET	326	n/a	n/a	1	n/a	n/a	n/a	n/a	n/a
570655	REC_WORD	wordpools/wasnorm_wordpool_less_exclusions.txt	LTP256	ltpFR	19	4	0	GOLD	647	n/a	n/a	1	n/a	n/a	n/a	n/a	n/a
571741	REC_WORD	wordpools/wasnorm_wordpool_less_exclusions.txt	LTP256	ltpFR	19	4	0	TERMITE	1451	n/a	n/a	0	n/a	n/a	n/a	n/a	n/a
581487	REC_WORD	wordpools/wasnorm_wordpool_less_exclusions.txt	LTP256	ltpFR	19	4	0	GRILL	661	n/a	n/a	1	n/a	n/a	n/a	n/a	n/a
599236	WORD	wordpools/wasnorm_wordpool_less_exclusions.txt	LTP256	ltpFR	19	5	-1	JUG	762	n/a	n/a	-1	1.0	1.0	1	upper	Verdana.ttf
603297	WORD	wordpools/wasnorm_wordpool_less_exclusions.txt	LTP256	ltpFR	19	5	-1	TUB	1514	n/a	n/a	-1	1.0	1.0	1	upper	Verdana.ttf
607324	WORD	wordpools/wasnorm_wordpool_less_exclusions.txt	LTP256	ltpFR	19	5	-1	PLIERS	1089	n/a	n/a	-1	1.0	1.0	1	upper	Verdana.ttf
611335	WORD	wordpools/wasnorm_wordpool_less_exclusions.txt	LTP256	ltpFR	19	5	-1	LEVER	815	n/a	n/a	-1	1.0	1.0	1	upper	Verdana.ttf
615196	WORD	wordpools/wasnorm_wordpool_less_exclusions.txt	LTP256	ltpFR	19	5	-1	PEAR	1033	n/a	n/a	-1	1.0	1.0	1	upper	Verdana.ttf
619290	WORD	wordpools/wasnorm_wordpool_less_exclusions.txt	LTP256	ltpFR	19	5	-1	ORANGE	980	n/a	n/a	-1	1.0	1.0	1	upper	Verdana.ttf
623300	WORD	wordpools/wasnorm_wordpool_less_exclusions.txt	LTP256	ltpFR	19	5	-1	ROOF	1205	n/a	n/a	-1	1.0	1.0	1	upper	Verdana.ttf
627128	WORD	wordpools/wasnorm_wordpool_less_exclusions.txt	LTP256	ltpFR	19	5	-1	WALRUS	1585	n/a	n/a	-1	1.0	1.0	1	upper	Verdana.ttf
631039	WORD	wordpools/wasnorm_wordpool_less_exclusions.txt	LTP256	ltpFR	19	5	-1	FRUIT	610	n/a	n/a	-1	1.0	1.0	1	upper	Verdana.ttf
634949	WORD	wordpools/wasnorm_wordpool_less_exclusions.txt	LTP256	ltpFR	19	5	-1	VEGETABLE	1552	n/a	n/a	-1	1.0	1.0	1	upper	Verdana.ttf
638893	WORD	wordpools/wasnorm_wordpool_less_exclusions.txt	LTP256	ltpFR	19	5	-1	PATIO	1025	n/a	n/a	-1	1.0	1.0	1	upper	Verdana.ttf
642953	WORD	wordpools/wasnorm_wordpool_less_exclusions.txt	LTP256	ltpFR	19	5	-1	CLIFF	322	n/a	n/a	-1	1.0	1.0	1	upper	Verdana.ttf
646848	WORD	wordpools/wasnorm_wordpool_less_exclusions.txt	LTP256	ltpFR	19	5	-1	RADISH	1158	n/a	n/a	-1	1.0	1.0	1	upper	Verdana.ttf
650725	WORD	wordpools/wasnorm_wordpool_less_exclusions.txt	LTP256	ltpFR	19	5	-1	ROOT	1210	n/a	n/a	-1	1.0	1.0	1	upper	Verdana.ttf
654603	WORD	wordpools/wasnorm_wordpool_less_exclusions.txt	LTP256	ltpFR	19	5	-1	HORIZON	717	n/a	n/a	-1	1.0	1.0	1	upper	Verdana.ttf
658713	WORD	wordpools/wasnorm_wordpool_less_exclusions.txt	LTP256	ltpFR	19	5	-1	SUN	1406	n/a	n/a	-1	1.0	1.0	1	upper	Verdana.ttf
664555	REC_START	n/a	LTP256	ltpFR	19	5	n/a	n/a	n/a	n/a	n/a	n/a	n/a	n/a	n/a	n/a	n/a
665004	REC_WORD	wordpools/wasnorm_wordpool_less_exclusions.txt	LTP256	ltpFR	19	5	-1	HORIZON	717	n/a	n/a	-1	n/a	n/a	n/a	n/a	n/a
665992	REC_WORD	wordpools/wasnorm_wordpool_less_exclusions.txt	LTP256	ltpFR	19	5	-1	SUN	1406	n/a	n/a	-1	n/a	n/a	n/a	n/a	n/a
667197	REC_WORD	wordpools/wasnorm_wordpool_less_exclusions.txt	LTP256	ltpFR	19	5	-1	PATIO	1025	n/a	n/a	-1	n/a	n/a	n/a	n/a	n/a
669478	REC_WORD	wordpools/wasnorm_wordpool_less_exclusions.txt	LTP256	ltpFR	19	5	-1	ROOF	1205	n/a	n/a	-1	n/a	n/a	n/a	n/a	n/a
671076	REC_WORD	wordpools/wasnorm_wordpool_less_exclusions.txt	LTP256	ltpFR	19	5	-1	VEGETABLE	1552	n/a	n/a	-1	n/a	n/a	n/a	n/a	n/a
672297	REC_WORD	wordpools/wasnorm_wordpool_less_exclusions.txt	LTP256	ltpFR	19	5	0	TURNIP	1521	n/a	n/a	0	n/a	n/a	n/a	n/a	n/a
673475	REC_WORD	wordpools/wasnorm_wordpool_less_exclusions.txt	LTP256	ltpFR	19	5	-1	ROOT	1210	n/a	n/a	-1	n/a	n/a	n/a	n/a	n/a
675471	REC_WORD	wordpools/wasnorm_wordpool_less_exclusions.txt	LTP256	ltpFR	19	5	-1	JUG	762	n/a	n/a	-1	n/a	n/a	n/a	n/a	n/a
677361	REC_WORD	wordpools/wasnorm_wordpool_less_exclusions.txt	LTP256	ltpFR	19	5	-1	TUB	1514	n/a	n/a	-1	n/a	n/a	n/a	n/a	n/a
705569	REC_WORD	wordpools/wasnorm_wordpool_less_exclusions.txt	LTP256	ltpFR	19	5	-1	FRUIT	610	n/a	n/a	-1	n/a	n/a	n/a	n/a	n/a
706714	REC_WORD	wordpools/wasnorm_wordpool_less_exclusions.txt	LTP256	ltpFR	19	5	-1	ORANGE	980	n/a	n/a	-1	n/a	n/a	n/a	n/a	n/a
707704	REC_WORD	wordpools/wasnorm_wordpool_less_exclusions.txt	LTP256	ltpFR	19	5	-1	PEAR	1033	n/a	n/a	-1	n/a	n/a	n/a	n/a	n/a
742921	WORD	wordpools/wasnorm_wordpool_less_exclusions.txt	LTP256	ltpFR	19	6	1	FELLOW	558	n/a	n/a	1	0.422607421875	0.5869140625	0	upper	zerothre.ttf
746898	WORD	wordpools/wasnorm_wordpool_less_exclusions.txt	LTP256	ltpFR	19	6	1	VISITOR	1573	n/a	n/a	1	0.422607421875	0.5869140625	0	upper	zerothre.ttf
750993	WORD	wordpools/wasnorm_wordpool_less_exclusions.txt	LTP256	ltpFR	19	6	1	EAGLE	512	n/a	n/a	1	0.422607421875	0.5869140625	0	upper	zerothre.ttf
755137	WORD	wordpools/wasnorm_wordpool_less_exclusions.txt	LTP256	ltpFR	19	6	0	NICKEL	950	n/a	n/a	0	0.57763671875	0.412841796875	1	lower	amplitud.ttf
759148	WORD	wordpools/wasnorm_wordpool_less_exclusions.txt	LTP256	ltpFR	19	6	0	SLOPE	1328	n/a	n/a	1	0.57763671875	0.412841796875	1	lower	amplitud.ttf
762974	WORD	wordpools/wasnorm_wordpool_less_exclusions.txt	LTP256	ltpFR	19	6	1	WAGON	1578	n/a	n/a	0	0.422607421875	0.5869140625	0	upper	zerothre.ttf
767086	WORD	wordpools/wasnorm_wordpool_less_exclusions.txt	LTP256	ltpFR	19	6	1	LAGOON	795	n/a	n/a	0	0.422607421875	0.5869140625	0	upper	zerothre.ttf
770997	WORD	wordpools/wasnorm_wordpool_less_exclusions.txt	LTP256	ltpFR	19	6	1	MICROPHONE	890	n/a	n/a	0	0.422607421875	0.5869140625	0	upper	zerothre.ttf
774823	WORD	wordpools/wasnorm_wordpool_less_exclusions.txt	LTP256	ltpFR	19	6	1	DRIVER	499	n/a	n/a	1	0.422607421875	0.5869140625	0	upper	zerothre.ttf
778985	WORD	wordpools/wasnorm_wordpool_less_exclusions.txt	LTP256	ltpFR	19	6	1	SWATTER	1418	n/a	n/a	0	0.422607421875	0.5869140625	0	upper	zerothre.ttf
782828	WORD	wordpools/wasnorm_wordpool_less_exclusions.txt	LTP256	ltpFR	19	6	0	CHAMBER	277	n/a	n/a	0	0.57763671875	0.412841796875	1	lower	amplitud.ttf
786888	WORD	wordpools/wasnorm_wordpool_less_exclusions.txt	LTP256	ltpFR	19	6	0	DISHWASHER	475	n/a	n/a	1	0.57763671875	0.412841796875	1	lower	amplitud.ttf
790949	WORD	wordpools/wasnorm_wordpool_less_exclusions.txt	LTP256	ltpFR	19	6	0	PLUMBER	1091	n/a	n/a	1	0.57763671875	0.412841796875	1	lower	amplitud.ttf
794943	WORD	wordpools/wasnorm_wordpool_less_exclusions.txt	LTP256	ltpFR	19	6	0	DAM	436	n/a	n/a	1	0.57763671875	0.412841796875	1	lower	amplitud.ttf
798920	WORD	wordpools/wasnorm_wordpool_less_exclusions.txt	LTP256	ltpFR	19	6	0	TWEEZERS	1526	n/a	n/a	0	0.57763671875	0.412841796875	1	lower	amplitud.ttf
803032	WORD	wordpools/wasnorm_wordpool_less_exclusions.txt	LTP256	ltpFR	19	6	0	BRUSH	182	n/a	n/a	0	0.57763671875	0.412841796875	1	lower	amplitud.ttf
808956	REC_START	n/a	LTP256	ltpFR	19	6	n/a	n/a	n/a	n/a	n/a	n/a	n/a	n/a	n/a	n/a	n/a
809693	REC_WORD	wordpools/wasnorm_wordpool_less_exclusions.txt	LTP256	ltpFR	19	6	0	TWEEZERS	1526	n/a	n/a	0	n/a	n/a	n/a	n/a	n/a
810887	REC_WORD	wordpools/wasnorm_wordpool_less_exclusions.txt	LTP256	ltpFR	19	6	0	BRUSH	182	n/a	n/a	0	n/a	n/a	n/a	n/a	n/a
811984	REC_WORD	wordpools/wasnorm_wordpool_less_exclusions.txt	LTP256	ltpFR	19	6	0	CHAMBER	277	n/a	n/a	0	n/a	n/a	n/a	n/a	n/a
813183	REC_WORD	wordpools/wasnorm_wordpool_less_exclusions.txt	LTP256	ltpFR	19	6	1	WAGON	1578	n/a	n/a	0	n/a	n/a	n/a	n/a	n/a
813956	REC_WORD	wordpools/wasnorm_wordpool_less_exclusions.txt	LTP256	ltpFR	19	6	1	LAGOON	795	n/a	n/a	0	n/a	n/a	n/a	n/a	n/a
815094	REC_WORD	wordpools/wasnorm_wordpool_less_exclusions.txt	LTP256	ltpFR	19	6	1	MICROPHONE	890	n/a	n/a	0	n/a	n/a	n/a	n/a	n/a
816180	REC_WORD	wordpools/wasnorm_wordpool_less_exclusions.txt	LTP256	ltpFR	19	6	1	EAGLE	512	n/a	n/a	1	n/a	n/a	n/a	n/a	n/a
818928	REC_WORD	wordpools/wasnorm_wordpool_less_exclusions.txt	LTP256	ltpFR	19	6	1	FELLOW	558	n/a	n/a	1	n/a	n/a	n/a	n/a	n/a
820030	REC_WORD	wordpools/wasnorm_wordpool_less_exclusions.txt	LTP256	ltpFR	19	6	1	VISITOR	1573	n/a	n/a	1	n/a	n/a	n/a	n/a	n/a
826894	REC_WORD	wordpools/wasnorm_wordpool_less_exclusions.txt	LTP256	ltpFR	19	6	0	DISHWASHER	475	n/a	n/a	1	n/a	n/a	n/a	n/a	n/a
828068	REC_WORD	wordpools/wasnorm_wordpool_less_exclusions.txt	LTP256	ltpFR	19	6	0	PLUMBER	1091	n/a	n/a	1	n/a	n/a	n/a	n/a	n/a
839868	REC_WORD	wordpools/wasnorm_wordpool_less_exclusions.txt	LTP256	ltpFR	19	6	0	SLOPE	1328	n/a	n/a	1	n/a	n/a	n/a	n/a	n/a
887605	WORD	wordpools/wasnorm_wordpool_less_exclusions.txt	LTP256	ltpFR	19	7	1	SQUIRREL	1362	n/a	n/a	1	0.422607421875	0.5869140625	0	upper	zerothre.ttf
891632	WORD	wordpools/wasnorm_wordpool_less_exclusions.txt	LTP256	ltpFR	19	7	1	TIMBER	1469	n/a	n/a	0	0.422607421875	0.5869140625	0	upper	zerothre.ttf
895576	WORD	wordpools/wasnorm_wordpool_less_exclusions.txt	LTP256	ltpFR	19	7	1	LOG	841	n/a	n/a	0	0.422607421875	0.5869140625	0	upper	zerothre.ttf
899587	WORD	wordpools/wasnorm_wordpool_less_exclusions.txt	LTP256	ltpFR	19	7	1	SAUSAGE	1238	n/a	n/a	0	0.422607421875	0.5869140625	0	upper	zerothre.ttf
903532	WORD	wordpools/wasnorm_wordpool_less_exclusions.txt	LTP256	ltpFR	19	7	0	ATTIRE	57	n/a	n/a	0	0.57763671875	0.412841796875	1	lower	amplitud.ttf
907658	WORD	wordpools/wasnorm_wordpool_less_exclusions.txt	LTP256	ltpFR	19	7	0	MEAL	882	n/a	n/a	1	0.57763671875	0.412841796875	1	lower	amplitud.ttf
911802	WORD	wordpools/wasnorm_wordpool_less_exclusions.txt	LTP256	ltpFR	19	7	0	CONDUCTOR	362	n/a	n/a	1	0.57763671875	0.412841796875	1	lower	amplitud.ttf
915746	WORD	wordpools/wasnorm_wordpool_less_exclusions.txt	LTP256	ltpFR	19	7	0	LILY	821	n/a	n/a	0	0.57763671875	0.412841796875	1	lower	amplitud.ttf
919673	WORD	wordpools/wasnorm_wordpool_less_exclusions.txt	LTP256	ltpFR	19	7	1	CHIPMUNK	304	n/a	n/a	1	0.422607421875	0.5869140625	0	upper	zerothre.ttf
923751	WORD	wordpools/wasnorm_wordpool_less_exclusions.txt	LTP256	ltpFR	19	7	1	ONION	977	n/a	n/a	0	0.422607421875	0.5869140625	0	upper	zerothre.ttf
927928	WORD	wordpools/wasnorm_wordpool_less_exclusions.txt	LTP256	ltpFR	19	7	0	HEDGE	699	n/a	n/a	1	0.57763671875	0.412841796875	1	lower	amplitud.ttf
932123	WORD	wordpools/wasnorm_wordpool_less_exclusions.txt	LTP256	ltpFR	19	7	0	FOREST	593	n/a	n/a	1	0.57763671875	0.412841796875	1	lower	amplitud.ttf
936000	WORD	wordpools/wasnorm_wordpool_less_exclusions.txt	LTP256	ltpFR	19	7	0	LAPEL	800	n/a	n/a	0	0.57763671875	0.412841796875	1	lower	amplitud.ttf
940044	WORD	wordpools/wasnorm_wordpool_less_exclusions.txt	LTP256	ltpFR	19	7	0	TURKEY	1520	n/a	n/a	1	0.57763671875	0.412841796875	1	lower	amplitud.ttf
943988	WORD	wordpools/wasnorm_wordpool_less_exclusions.txt	LTP256	ltpFR	19	7	1	ANTENNA	28	n/a	n/a	0	0.422607421875	0.5869140625	0	upper	zerothre.ttf
947898	WORD	wordpools/wasnorm_wordpool_less_exclusions.txt	LTP256	ltpFR	19	7	1	MOVIE	927	n/a	n/a	0	0.422607421875	0.5869140625	0	upper	zerothre.ttf
953840	REC_START	n/a	LTP256	ltpFR	19	7	n/a	n/a	n/a	n/a	n/a	n/a	n/a	n/a	n/a	n/a	n/a
954193	REC_WORD	wordpools/wasnorm_wordpool_less_exclusions.txt	LTP256	ltpFR	19	7	1	ANTENNA	28	n/a	n/a	0	n/a	n/a	n/a	n/a	n/a
955300	REC_WORD	wordpools/wasnorm_wordpool_less_exclusions.txt	LTP256	ltpFR	19	7	1	MOVIE	927	n/a	n/a	0	n/a	n/a	n/a	n/a	n/a
956200	REC_WORD	wordpools/wasnorm_wordpool_less_exclusions.txt	LTP256	ltpFR	19	7	0	MEAL	882	n/a	n/a	1	n/a	n/a	n/a	n/a	n/a
957058	REC_WORD	wordpools/wasnorm_wordpool_less_exclusions.txt	LTP256	ltpFR	19	7	0	TURKEY	1520	n/a	n/a	1	n/a	n/a	n/a	n/a	n/a
957898	REC_WORD	wordpools/wasnorm_wordpool_less_exclusions.txt	LTP256	ltpFR	19	7	1	SAUSAGE	1238	n/a	n/a	0	n/a	n/a	n/a	n/a	n/a
965431	REC_WORD	wordpools/wasnorm_wordpool_less_exclusions.txt	LTP256	ltpFR	19	7	0	LILY	821	n/a	n/a	0	n/a	n/a	n/a	n/a	n/a
966194	REC_WORD	wordpools/wasnorm_wordpool_less_exclusions.txt	LTP256	ltpFR	19	7	0	ATTIRE	57	n/a	n/a	0	n/a	n/a	n/a	n/a	n/a
967059	REC_WORD	wordpools/wasnorm_wordpool_less_exclusions.txt	LTP256	ltpFR	19	7	0	LAPEL	800	n/a	n/a	0	n/a	n/a	n/a	n/a	n/a
972425	REC_WORD	wordpools/wasnorm_wordpool_less_exclusions.txt	LTP256	ltpFR	19	7	0	CONDUCTOR	362	n/a	n/a	1	n/a	n/a	n/a	n/a	n/a
978865	REC_WORD	wordpools/wasnorm_wordpool_less_exclusions.txt	LTP256	ltpFR	19	7	0	HEDGE	699	n/a	n/a	1	n/a	n/a	n/a	n/a	n/a
980531	REC_WORD	wordpools/wasnorm_wordpool_less_exclusions.txt	LTP256	ltpFR	19	7	1	TIMBER	1469	n/a	n/a	0	n/a	n/a	n/a	n/a	n/a
981590	REC_WORD	wordpools/wasnorm_wordpool_less_exclusions.txt	LTP256	ltpFR	19	7	1	LOG	841	n/a	n/a	0	n/a	n/a	n/a	n/a	n/a
982565	REC_WORD	wordpools/wasnorm_wordpool_less_exclusions.txt	LTP256	ltpFR	19	7	1	SQUIRREL	1362	n/a	n/a	1	n/a	n/a	n/a	n/a	n/a
983644	REC_WORD	wordpools/wasnorm_wordpool_less_exclusions.txt	LTP256	ltpFR	19	7	1	CHIPMUNK	304	n/a	n/a	1	n/a	n/a	n/a	n/a	n/a
1006015	REC_WORD	wordpools/wasnorm_wordpool_less_exclusions.txt	LTP256	ltpFR	19	7	1	ONION	977	n/a	n/a	0	n/a	n/a	n/a	n/a	n/a
1032090	WORD	wordpools/wasnorm_wordpool_less_exclusions.txt	LTP256	ltpFR	19	8	-1	STEAM	1375	n/a	n/a	-1	1.0	1.0	1	upper	Verdana.ttf
1036250	WORD	wordpools/wasnorm_wordpool_less_exclusions.txt	LTP256	ltpFR	19	8	-1	MUSHROOM	934	n/a	n/a	-1	1.0	1.0	1	upper	Verdana.ttf
1040411	WORD	wordpools/wasnorm_wordpool_less_exclusions.txt	LTP256	ltpFR	19	8	-1	ZUCCHINI	1638	n/a	n/a	-1	1.0	1.0	1	upper	Verdana.ttf
1044305	WORD	wordpools/wasnorm_wordpool_less_exclusions.txt	LTP256	ltpFR	19	8	-1	BAY	102	n/a	n/a	-1	1.0	1.0	1	upper	Verdana.ttf
1048233	WORD	wordpools/wasnorm_wordpool_less_exclusions.txt	LTP256	ltpFR	19	8	-1	DIVER	476	n/a	n/a	-1	1.0	1.0	1	upper	Verdana.ttf
1052177	WORD	wordpools/wasnorm_wordpool_less_exclusions.txt	LTP256	ltpFR	19	8	-1	ESSAY	540	n/a	n/a	-1	1.0	1.0	1	upper	Verdana.ttf
1056237	WORD	wordpools/wasnorm_wordpool_less_exclusions.txt	LTP256	ltpFR	19	8	-1	PILOT	1070	n/a	n/a	-1	1.0	1.0	1	upper	Verdana.ttf
1060215	WORD	wordpools/wasnorm_wordpool_less_exclusions.txt	LTP256	ltpFR	19	8	-1	AIRCRAFT	11	n/a	n/a	-1	1.0	1.0	1	upper	Verdana.ttf
1064309	WORD	wordpools/wasnorm_wordpool_less_exclusions.txt	LTP256	ltpFR	19	8	-1	LOBSTER	837	n/a	n/a	-1	1.0	1.0	1	upper	Verdana.ttf
1068302	WORD	wordpools/wasnorm_wordpool_less_exclusions.txt	LTP256	ltpFR	19	8	-1	RAFT	1159	n/a	n/a	-1	1.0	1.0	1	upper	Verdana.ttf
1072413	WORD	wordpools/wasnorm_wordpool_less_exclusions.txt	LTP256	ltpFR	19	8	-1	POOL	1103	n/a	n/a	-1	1.0	1.0	1	upper	Verdana.ttf
1076390	WORD	wordpools/wasnorm_wordpool_less_exclusions.txt	LTP256	ltpFR	19	8	-1	BULL	193	n/a	n/a	-1	1.0	1.0	1	upper	Verdana.ttf
1080251	WORD	wordpools/wasnorm_wordpool_less_exclusions.txt	LTP256	ltpFR	19	8	-1	GOAT	644	n/a	n/a	-1	1.0	1.0	1	upper	Verdana.ttf
1084079	WORD	wordpools/wasnorm_wordpool_less_exclusions.txt	LTP256	ltpFR	19	8	-1	CUSTARD	429	n/a	n/a	-1	1.0	1.0	1	upper	Verdana.ttf
1088173	WORD	wordpools/wasnorm_wordpool_less_exclusions.txt	LTP256	ltpFR	19	8	-1	BANNER	85	n/a	n/a	-1	1.0	1.0	1	upper	Verdana.ttf
1092267	WORD	wordpools/wasnorm_wordpool_less_exclusions.txt	LTP256	ltpFR	19	8	-1	BONE	148	n/a	n/a	-1	1.0	1.0	1	upper	Verdana.ttf
1098242	REC_START	n/a	LTP256	ltpFR	19	8	n/a	n/a	n/a	n/a	n/a	n/a	n/a	n/a	n/a	n/a	n/a
1098596	REC_WORD	wordpools/wasnorm_wordpool_less_exclusions.txt	LTP256	ltpFR	19	8	-1	CUSTARD	429	n/a	n/a	-1	n/a	n/a	n/a	n/a	n/a
1099770	REC_WORD	wordpools/wasnorm_wordpool_less_exclusions.txt	LTP256	ltpFR	19	8	-1	BONE	148	n/a	n/a	-1	n/a	n/a	n/a	n/a	n/a
1100673	REC_WORD	wordpools/wasnorm_wordpool_less_exclusions.txt	LTP256	ltpFR	19	8	-1	BAY	102	n/a	n/a	-1	n/a	n/a	n/a	n/a	n/a
1101574	REC_WORD	wordpools/wasnorm_wordpool_less_exclusions.txt	LTP256	ltpFR	19	8	-1	POOL	1103	n/a	n/a	-1	n/a	n/a	n/a	n/a	n/a
1102556	REC_WORD	wordpools/wasnorm_wordpool_less_exclusions.txt	LTP256	ltpFR	19	8	-1	BANNER	85	n/a	n/a	-1	n/a	n/a	n/a	n/a	n/a
1103398	REC_WORD	wordpools/wasnorm_wordpool_less_exclusions.txt	LTP256	ltpFR	19	8	-1	PILOT	1070	n/a	n/a	-1	n/a	n/a	n/a	n/a	n/a
1104419	REC_WORD	wordpools/wasnorm_wordpool_less_exclusions.txt	LTP256	ltpFR	19	8	-1	ESSAY	540	n/a	n/a	-1	n/a	n/a	n/a	n/a	n/a
1105354	REC_WORD	wordpools/wasnorm_wordpool_less_exclusions.txt	LTP256	ltpFR	19	8	n/a	PLANE	1081	n/a	n/a	n/a	n/a	n/a	n/a	n/a	n/a
1112937	REC_WORD	wordpools/wasnorm_wordpool_less_exclusions.txt	LTP256	ltpFR	19	8	-1	GOAT	644	n/a	n/a	-1	n/a	n/a	n/a	n/a	n/a
1114267	REC_WORD	wordpools/wasnorm_wordpool_less_exclusions.txt	LTP256	ltpFR	19	8	-1	BULL	193	n/a	n/a	-1	n/a	n/a	n/a	n/a	n/a
1119713	REC_WORD	wordpools/wasnorm_wordpool_less_exclusions.txt	LTP256	ltpFR	19	8	-1	CUSTARD	429	n/a	n/a	-1	n/a	n/a	n/a	n/a	n/a
1120983	REC_WORD	wordpools/wasnorm_wordpool_less_exclusions.txt	LTP256	ltpFR	19	8	-1	BONE	148	n/a	n/a	-1	n/a	n/a	n/a	n/a	n/a
1176623	WORD	wordpools/wasnorm_wordpool_less_exclusions.txt	LTP256	ltpFR	19	9	0	LEOPARD	812	n/a	n/a	1	0.57763671875	0.412841796875	1	lower	amplitud.ttf
1180767	WORD	wordpools/wasnorm_wordpool_less_exclusions.txt	LTP256	ltpFR	19	9	0	METEOR	889	n/a	n/a	1	0.57763671875	0.412841796875	1	lower	amplitud.ttf
1184944	WORD	wordpools/wasnorm_wordpool_less_exclusions.txt	LTP256	ltpFR	19	9	0	COMET	353	n/a	n/a	1	0.57763671875	0.412841796875	1	lower	amplitud.ttf
1188805	WORD	wordpools/wasnorm_wordpool_less_exclusions.txt	LTP256	ltpFR	19	9	0	PROFESSIONAL	1130	n/a	n/a	1	0.57763671875	0.412841796875	1	lower	amplitud.ttf
1192832	WORD	wordpools/wasnorm_wordpool_less_exclusions.txt	LTP256	ltpFR	19	9	0	ROOST	1208	n/a	n/a	1	0.57763671875	0.412841796875	1	lower	amplitud.ttf
1196743	WORD	wordpools/wasnorm_wordpool_less_exclusions.txt	LTP256	ltpFR	19	9	0	EGG	518	n/a	n/a	0	0.57763671875	0.412841796875	1	lower	amplitud.ttf
1200770	WORD	wordpools/wasnorm_wordpool_less_exclusions.txt	LTP256	ltpFR	19	9	0	TOWER	1490	n/a	n/a	1	0.57763671875	0.412841796875	1	lower	amplitud.ttf
1204698	WORD	wordpools/wasnorm_wordpool_less_exclusions.txt	LTP256	ltpFR	19	9	0	PUB	1135	n/a	n/a	1	0.57763671875	0.412841796875	1	lower	amplitud.ttf
1208875	WORD	wordpools/wasnorm_wordpool_less_exclusions.txt	LTP256	ltpFR	19	9	0	CHIP	303	n/a	n/a	0	0.57763671875	0.412841796875	1	lower	amplitud.ttf
1212886	WORD	wordpools/wasnorm_wordpool_less_exclusions.txt	LTP256	ltpFR	19	9	0	CORN	381	n/a	n/a	0	0.57763671875	0.412841796875	1	lower	amplitud.ttf
1216863	WORD	wordpools/wasnorm_wordpool_less_exclusions.txt	LTP256	ltpFR	19	9	0	LION	827	n/a	n/a	1	0.57763671875	0.412841796875	1	lower	amplitud.ttf
1220957	WORD	wordpools/wasnorm_wordpool_less_exclusions.txt	LTP256	ltpFR	19	9	0	TEA	1439	n/a	n/a	0	0.57763671875	0.412841796875	1	lower	amplitud.ttf
1225102	WORD	wordpools/wasnorm_wordpool_less_exclusions.txt	LTP256	ltpFR	19	9	0	STADIUM	1364	n/a	n/a	1	0.57763671875	0.412841796875	1	lower	amplitud.ttf
1229129	WORD	wordpools/wasnorm_wordpool_less_exclusions.txt	LTP256	ltpFR	19	9	0	WINE	1613	n/a	n/a	0	0.57763671875	0.412841796875	1	lower	amplitud.ttf
1233140	WORD	wordpools/wasnorm_wordpool_less_exclusions.txt	LTP256	ltpFR	19	9	0	BANANA	77	n/a	n/a	0	0.57763671875	0.412841796875	1	lower	amplitud.ttf
1237117	WORD	wordpools/wasnorm_wordpool_less_exclusions.txt	LTP256	ltpFR	19	9	0	MALL	860	n/a	n/a	1	0.57763671875	0.412841796875	1	lower	amplitud.ttf
1243059	REC_START	n/a	LTP256	ltpFR	19	9	n/a	n/a	n/a	n/a	n/a	n/a	n/a	n/a	n/a	n/a	n/a
1243273	REC_WORD	wordpools/wasnorm_wordpool_less_exclusions.txt	LTP256	ltpFR	19	9	0	STADIUM	1364	n/a	n/a	1	n/a	n/a	n/a	n/a	n/a
1244340	REC_WORD	wordpools/wasnorm_wordpool_less_exclusions.txt	LTP256	ltpFR	19	9	0	MALL	860	n/a	n/a	1	n/a	n/a	n/a	n/a	n/a
1251346	REC_WORD	wordpools/wasnorm_wordpool_less_exclusions.txt	LTP256	ltpFR	19	9	0	PROFESSIONAL	1130	n/a	n/a	1	n/a	n/a	n/a	n/a	n/a
1252618	REC_WORD	wordpools/wasnorm_wordpool_less_exclusions.txt	LTP256	ltpFR	19	9	0	TOWER	1490	n/a	n/a	1	n/a	n/a	n/a	n/a	n/a
1253715	REC_WORD	wordpools/wasnorm_wordpool_less_exclusions.txt	LTP256	ltpFR	19	9	0	METEOR	889	n/a	n/a	1	n/a	n/a	n/a	n/a	n/a
1254897	REC_WORD	wordpools/wasnorm_wordpool_less_exclusions.txt	LTP256	ltpFR	19	9	0	COMET	353	n/a	n/a	1	n/a	n/a	n/a	n/a	n/a
1256077	REC_WORD	wordpools/wasnorm_wordpool_less_exclusions.txt	LTP256	ltpFR	19	9	0	ROOST	1208	n/a	n/a	1	n/a	n/a	n/a	n/a	n/a
1257294	REC_WORD	wordpools/wasnorm_wordpool_less_exclusions.txt	LTP256	ltpFR	19	9	0	EGG	518	n/a	n/a	0	n/a	n/a	n/a	n/a	n/a
1268144	REC_WORD	wordpools/wasnorm_wordpool_less_exclusions.txt	LTP256	ltpFR	19	9	0	PUB	1135	n/a	n/a	1	n/a	n/a	n/a	n/a	n/a
1269310	REC_WORD	wordpools/wasnorm_wordpool_less_exclusions.txt	LTP256	ltpFR	19	9	0	CORN	381	n/a	n/a	0	n/a	n/a	n/a	n/a	n/a
1270334	REC_WORD	wordpools/wasnorm_wordpool_less_exclusions.txt	LTP256	ltpFR	19	9	0	CHIP	303	n/a	n/a	0	n/a	n/a	n/a	n/a	n/a
1271393	REC_WORD	wordpools/wasnorm_wordpool_less_exclusions.txt	LTP256	ltpFR	19	9	0	TEA	1439	n/a	n/a	0	n/a	n/a	n/a	n/a	n/a
1272370	REC_WORD	wordpools/wasnorm_wordpool_less_exclusions.txt	LTP256	ltpFR	19	9	0	BANANA	77	n/a	n/a	0	n/a	n/a	n/a	n/a	n/a
1273304	REC_WORD	wordpools/wasnorm_wordpool_less_exclusions.txt	LTP256	ltpFR	19	9	0	WINE	1613	n/a	n/a	0	n/a	n/a	n/a	n/a	n/a
1321906	WORD	wordpools/wasnorm_wordpool_less_exclusions.txt	LTP256	ltpFR	19	10	0	DRYER	503	n/a	n/a	1	0.57763671875	0.412841796875	1	lower	amplitud.ttf
1325750	WORD	wordpools/wasnorm_wordpool_less_exclusions.txt	LTP256	ltpFR	19	10	0	SKIRT	1319	n/a	n/a	1	0.57763671875	0.412841796875	1	lower	amplitud.ttf
1329645	WORD	wordpools/wasnorm_wordpool_less_exclusions.txt	LTP256	ltpFR	19	10	1	TOWEL	1489	n/a	n/a	0	0.422607421875	0.5869140625	0	upper	zerothre.ttf
1333672	WORD	wordpools/wasnorm_wordpool_less_exclusions.txt	LTP256	ltpFR	19	10	1	BEDROOM	111	n/a	n/a	0	0.422607421875	0.5869140625	0	upper	zerothre.ttf
1337866	WORD	wordpools/wasnorm_wordpool_less_exclusions.txt	LTP256	ltpFR	19	10	1	TOOTHBRUSH	1482	n/a	n/a	0	0.422607421875	0.5869140625	0	upper	zerothre.ttf
1342094	WORD	wordpools/wasnorm_wordpool_less_exclusions.txt	LTP256	ltpFR	19	10	1	BRANCH	168	n/a	n/a	0	0.422607421875	0.5869140625	0	upper	zerothre.ttf
1346104	WORD	wordpools/wasnorm_wordpool_less_exclusions.txt	LTP256	ltpFR	19	10	1	WILDERNESS	1610	n/a	n/a	0	0.422607421875	0.5869140625	0	upper	zerothre.ttf
1350182	WORD	wordpools/wasnorm_wordpool_less_exclusions.txt	LTP256	ltpFR	19	10	0	TROUT	1511	n/a	n/a	1	0.57763671875	0.412841796875	1	lower	amplitud.ttf
1354325	WORD	wordpools/wasnorm_wordpool_less_exclusions.txt	LTP256	ltpFR	19	10	0	SNAKE	1333	n/a	n/a	1	0.57763671875	0.412841796875	1	lower	amplitud.ttf
1358186	WORD	wordpools/wasnorm_wordpool_less_exclusions.txt	LTP256	ltpFR	19	10	1	LACE	792	n/a	n/a	0	0.422607421875	0.5869140625	0	upper	zerothre.ttf
1362047	WORD	wordpools/wasnorm_wordpool_less_exclusions.txt	LTP256	ltpFR	19	10	1	BANDANNA	80	n/a	n/a	0	0.422607421875	0.5869140625	0	upper	zerothre.ttf
1366074	WORD	wordpools/wasnorm_wordpool_less_exclusions.txt	LTP256	ltpFR	19	10	1	RAM	1165	n/a	n/a	1	0.422607421875	0.5869140625	0	upper	zerothre.ttf
1370168	WORD	wordpools/wasnorm_wordpool_less_exclusions.txt	LTP256	ltpFR	19	10	0	HAMPER	682	n/a	n/a	1	0.57763671875	0.412841796875	1	lower	amplitud.ttf
1374046	WORD	wordpools/wasnorm_wordpool_less_exclusions.txt	LTP256	ltpFR	19	10	0	WARDROBE	1587	n/a	n/a	1	0.57763671875	0.412841796875	1	lower	amplitud.ttf
1378023	WORD	wordpools/wasnorm_wordpool_less_exclusions.txt	LTP256	ltpFR	19	10	0	SAILOR	1223	n/a	n/a	1	0.57763671875	0.412841796875	1	lower	amplitud.ttf
1382084	WORD	wordpools/wasnorm_wordpool_less_exclusions.txt	LTP256	ltpFR	19	10	0	SHEEP	1278	n/a	n/a	1	0.57763671875	0.412841796875	1	lower	amplitud.ttf
1387892	REC_START	n/a	LTP256	ltpFR	19	10	n/a	n/a	n/a	n/a	n/a	n/a	n/a	n/a	n/a	n/a	n/a
1390870	REC_WORD	wordpools/wasnorm_wordpool_less_exclusions.txt	LTP256	ltpFR	19	10	1	BANDANNA	80	n/a	n/a	0	n/a	n/a	n/a	n/a	n/a
1392064	REC_WORD	wordpools/wasnorm_wordpool_less_exclusions.txt	LTP256	ltpFR	19	10	1	LACE	792	n/a	n/a	0	n/a	n/a	n/a	n/a	n/a
1392971	REC_WORD	wordpools/wasnorm_wordpool_less_exclusions.txt	LTP256	ltpFR	19	10	0	WARDROBE	1587	n/a	n/a	1	n/a	n/a	n/a	n/a	n/a
1394033	REC_WORD	wordpools/wasnorm_wordpool_less_exclusions.txt	LTP256	ltpFR	19	10	0	HAMPER	682	n/a	n/a	1	n/a	n/a	n/a	n/a	n/a
1396365	REC_WORD	wordpools/wasnorm_wordpool_less_exclusions.txt	LTP256	ltpFR	19	10	0	DRYER	503	n/a	n/a	1	n/a	n/a	n/a	n/a	n/a
1399059	REC_WORD	wordpools/wasnorm_wordpool_less_exclusions.txt	LTP256	ltpFR	19	10	1	BRANCH	168	n/a	n/a	0	n/a	n/a	n/a	n/a	n/a
1399997	REC_WORD	wordpools/wasnorm_wordpool_less_exclusions.txt	LTP256	ltpFR	19	10	1	WILDERNESS	1610	n/a	n/a	0	n/a	n/a	n/a	n/a	n/a
1400866	REC_WORD	wordpools/wasnorm_wordpool_less_exclusions.txt	LTP256	ltpFR	19	10	0	SAILOR	1223	n/a	n/a	1	n/a	n/a	n/a	n/a	n/a
1403136	REC_WORD	wordpools/wasnorm_wordpool_less_exclusions.txt	LTP256	ltpFR	19	10	1	RAM	1165	n/a	n/a	1	n/a	n/a	n/a	n/a	n/a
1403953	REC_WORD	wordpools/wasnorm_wordpool_less_exclusions.txt	LTP256	ltpFR	19	10	0	SHEEP	1278	n/a	n/a	1	n/a	n/a	n/a	n/a	n/a
1417423	REC_WORD	wordpools/wasnorm_wordpool_less_exclusions.txt	LTP256	ltpFR	19	10	1	TOOTHBRUSH	1482	n/a	n/a	0	n/a	n/a	n/a	n/a	n/a
1423970	REC_WORD	wordpools/wasnorm_wordpool_less_exclusions.txt	LTP256	ltpFR	19	10	0	SKIRT	1319	n/a	n/a	1	n/a	n/a	n/a	n/a	n/a
1466025	WORD	wordpools/wasnorm_wordpool_less_exclusions.txt	LTP256	ltpFR	19	11	1	BREAST	171	n/a	n/a	1	0.422607421875	0.5869140625	0	upper	zerothre.ttf
1470169	WORD	wordpools/wasnorm_wordpool_less_exclusions.txt	LTP256	ltpFR	19	11	1	BEET	115	n/a	n/a	1	0.422607421875	0.5869140625	0	upper	zerothre.ttf
1474379	WORD	wordpools/wasnorm_wordpool_less_exclusions.txt	LTP256	ltpFR	19	11	1	SCOUT	1252	n/a	n/a	1	0.422607421875	0.5869140625	0	upper	zerothre.ttf
1478540	WORD	wordpools/wasnorm_wordpool_less_exclusions.txt	LTP256	ltpFR	19	11	1	MOTHER	921	n/a	n/a	1	0.422607421875	0.5869140625	0	upper	zerothre.ttf
1482649	WORD	wordpools/wasnorm_wordpool_less_exclusions.txt	LTP256	ltpFR	19	11	1	BANQUET	86	n/a	n/a	0	0.422607421875	0.5869140625	0	upper	zerothre.ttf
1486528	WORD	wordpools/wasnorm_wordpool_less_exclusions.txt	LTP256	ltpFR	19	11	1	WASHCLOTH	1591	n/a	n/a	0	0.422607421875	0.5869140625	0	upper	zerothre.ttf
1490455	WORD	wordpools/wasnorm_wordpool_less_exclusions.txt	LTP256	ltpFR	19	11	1	FACE	547	n/a	n/a	0	0.422607421875	0.5869140625	0	upper	zerothre.ttf
1494399	WORD	wordpools/wasnorm_wordpool_less_exclusions.txt	LTP256	ltpFR	19	11	1	SOCKET	1340	n/a	n/a	0	0.422607421875	0.5869140625	0	upper	zerothre.ttf
1498493	WORD	wordpools/wasnorm_wordpool_less_exclusions.txt	LTP256	ltpFR	19	11	1	FLASHLIGHT	575	n/a	n/a	0	0.422607421875	0.5869140625	0	upper	zerothre.ttf
1502653	WORD	wordpools/wasnorm_wordpool_less_exclusions.txt	LTP256	ltpFR	19	11	1	GUARDIAN	668	n/a	n/a	1	0.422607421875	0.5869140625	0	upper	zerothre.ttf
1506548	WORD	wordpools/wasnorm_wordpool_less_exclusions.txt	LTP256	ltpFR	19	11	1	BOWL	158	n/a	n/a	0	0.422607421875	0.5869140625	0	upper	zerothre.ttf
1510509	WORD	wordpools/wasnorm_wordpool_less_exclusions.txt	LTP256	ltpFR	19	11	1	GIRL	637	n/a	n/a	1	0.422607421875	0.5869140625	0	upper	zerothre.ttf
1514635	WORD	wordpools/wasnorm_wordpool_less_exclusions.txt	LTP256	ltpFR	19	11	1	STUDENT	1395	n/a	n/a	1	0.422607421875	0.5869140625	0	upper	zerothre.ttf
1518530	WORD	wordpools/wasnorm_wordpool_less_exclusions.txt	LTP256	ltpFR	19	11	1	PUPIL	1143	n/a	n/a	0	0.422607421875	0.5869140625	0	upper	zerothre.ttf
1522374	WORD	wordpools/wasnorm_wordpool_less_exclusions.txt	LTP256	ltpFR	19	11	1	POCKETBOOK	1094	n/a	n/a	0	0.422607421875	0.5869140625	0	upper	zerothre.ttf
1526318	WORD	wordpools/wasnorm_wordpool_less_exclusions.txt	LTP256	ltpFR	19	11	1	COUCH	386	n/a	n/a	0	0.422607421875	0.5869140625	0	upper	zerothre.ttf
1531960	REC_START	n/a	LTP256	ltpFR	19	11	n/a	n/a	n/a	n/a	n/a	n/a	n/a	n/a	n/a	n/a	n/a
1532692	REC_WORD	wordpools/wasnorm_wordpool_less_exclusions.txt	LTP256	ltpFR	19	11	1	GIRL	637	n/a	n/a	1	n/a	n/a	n/a	n/a	n/a
1533648	REC_WORD	wordpools/wasnorm_wordpool_less_exclusions.txt	LTP256	ltpFR	19	11	1	BREAST	171	n/a	n/a	1	n/a	n/a	n/a	n/a	n/a
1534578	REC_WORD	wordpools/wasnorm_wordpool_less_exclusions.txt	LTP256	ltpFR	19	11	1	POCKETBOOK	1094	n/a	n/a	0	n/a	n/a	n/a	n/a	n/a
1535555	REC_WORD	wordpools/wasnorm_wordpool_less_exclusions.txt	LTP256	ltpFR	19	11	1	BEET	115	n/a	n/a	1	n/a	n/a	n/a	n/a	n/a
1536268	REC_WORD	wordpools/wasnorm_wordpool_less_exclusions.txt	LTP256	ltpFR	19	11	1	SCOUT	1252	n/a	n/a	1	n/a	n/a	n/a	n/a	n/a
1553378	REC_WORD	wordpools/wasnorm_wordpool_less_exclusions.txt	LTP256	ltpFR	19	11	1	BANQUET	86	n/a	n/a	0	n/a	n/a	n/a	n/a	n/a
1554298	REC_WORD	wordpools/wasnorm_wordpool_less_exclusions.txt	LTP256	ltpFR	19	11	1	BOWL	158	n/a	n/a	0	n/a	n/a	n/a	n/a	n/a
1555479	REC_WORD	wordpools/wasnorm_wordpool_less_exclusions.txt	LTP256	ltpFR	19	11	1	GUARDIAN	668	n/a	n/a	1	n/a	n/a	n/a	n/a	n/a
1556944	REC_WORD	wordpools/wasnorm_wordpool_less_exclusions.txt	LTP256	ltpFR	19	11	1	FLASHLIGHT	575	n/a	n/a	0	n/a	n/a	n/a	n/a	n/a
1558194	REC_WORD	wordpools/wasnorm_wordpool_less_exclusions.txt	LTP256	ltpFR	19	11	1	PUPIL	1143	n/a	n/a	0	n/a	n/a	n/a	n/a	n/a
1559471	REC_WORD	wordpools/wasnorm_wordpool_less_exclusions.txt	LTP256	ltpFR	19	11	0	MEAL	882	n/a	n/a	1	n/a	n/a	n/a	n/a	n/a
1575504	REC_WORD	wordpools/wasnorm_wordpool_less_exclusions.txt	LTP256	ltpFR	19	11	1	MOTHER	921	n/a	n/a	1	n/a	n/a	n/a	n/a	n/a
1610443	WORD	wordpools/wasnorm_wordpool_less_exclusions.txt	LTP256	ltpFR	19	12	1	TURTLE	1522	n/a	n/a	1	0.422607421875	0.5869140625	0	upper	zerothre.ttf
1614370	WORD	wordpools/wasnorm_wordpool_less_exclusions.txt	LTP256	ltpFR	19	12	1	PENNY	1045	n/a	n/a	0	0.422607421875	0.5869140625	0	upper	zerothre.ttf
1618431	WORD	wordpools/wasnorm_wordpool_less_exclusions.txt	LTP256	ltpFR	19	12	1	CAMEL	223	n/a	n/a	1	0.422607421875	0.5869140625	0	upper	zerothre.ttf
1622259	WORD	wordpools/wasnorm_wordpool_less_exclusions.txt	LTP256	ltpFR	19	12	1	CRITIC	410	n/a	n/a	1	0.422607421875	0.5869140625	0	upper	zerothre.ttf
1626269	WORD	wordpools/wasnorm_wordpool_less_exclusions.txt	LTP256	ltpFR	19	12	1	SCREEN	1253	n/a	n/a	0	0.422607421875	0.5869140625	0	upper	zerothre.ttf
1630280	WORD	wordpools/wasnorm_wordpool_less_exclusions.txt	LTP256	ltpFR	19	12	1	RECEPTIONIST	1174	n/a	n/a	1	0.422607421875	0.5869140625	0	upper	zerothre.ttf
1634357	WORD	wordpools/wasnorm_wordpool_less_exclusions.txt	LTP256	ltpFR	19	12	1	PAINTER	1004	n/a	n/a	1	0.422607421875	0.5869140625	0	upper	zerothre.ttf
1638351	WORD	wordpools/wasnorm_wordpool_less_exclusions.txt	LTP256	ltpFR	19	12	1	APRON	35	n/a	n/a	0	0.422607421875	0.5869140625	0	upper	zerothre.ttf
1642395	WORD	wordpools/wasnorm_wordpool_less_exclusions.txt	LTP256	ltpFR	19	12	1	PLANT	1083	n/a	n/a	1	0.422607421875	0.5869140625	0	upper	zerothre.ttf
1646506	WORD	wordpools/wasnorm_wordpool_less_exclusions.txt	LTP256	ltpFR	19	12	1	THORN	1459	n/a	n/a	0	0.422607421875	0.5869140625	0	upper	zerothre.ttf
1650500	WORD	wordpools/wasnorm_wordpool_less_exclusions.txt	LTP256	ltpFR	19	12	1	CHEERLEADER	288	n/a	n/a	1	0.422607421875	0.5869140625	0	upper	zerothre.ttf
1654559	WORD	wordpools/wasnorm_wordpool_less_exclusions.txt	LTP256	ltpFR	19	12	1	CAP	236	n/a	n/a	0	0.422607421875	0.5869140625	0	upper	zerothre.ttf
1658504	WORD	wordpools/wasnorm_wordpool_less_exclusions.txt	LTP256	ltpFR	19	12	1	MICROWAVE	892	n/a	n/a	0	0.422607421875	0.5869140625	0	upper	zerothre.ttf
1662482	WORD	wordpools/wasnorm_wordpool_less_exclusions.txt	LTP256	ltpFR	19	12	1	TRIANGLE	1504	n/a	n/a	0	0.422607421875	0.5869140625	0	upper	zerothre.ttf
1666558	WORD	wordpools/wasnorm_wordpool_less_exclusions.txt	LTP256	ltpFR	19	12	1	SUPERVISOR	1410	n/a	n/a	1	0.422607421875	0.5869140625	0	upper	zerothre.ttf
1670602	WORD	wordpools/wasnorm_wordpool_less_exclusions.txt	LTP256	ltpFR	19	12	1	SEA	1259	n/a	n/a	0	0.422607421875	0.5869140625	0	upper	zerothre.ttf
1676212	REC_START	n/a	LTP256	ltpFR	19	12	n/a	n/a	n/a	n/a	n/a	n/a	n/a	n/a	n/a	n/a	n/a
1679019	REC_WORD	wordpools/wasnorm_wordpool_less_exclusions.txt	LTP256	ltpFR	19	12	1	CRITIC	410	n/a	n/a	1	n/a	n/a	n/a	n/a	n/a
1679986	REC_WORD	wordpools/wasnorm_wordpool_less_exclusions.txt	LTP256	ltpFR	19	12	1	SCREEN	1253	n/a	n/a	0	n/a	n/a	n/a	n/a	n/a
1681158	REC_WORD	wordpools/wasnorm_wordpool_less_exclusions.txt	LTP256	ltpFR	19	12	1	SUPERVISOR	1410	n/a	n/a	1	n/a	n/a	n/a	n/a	n/a
1683288	REC_WORD	wordpools/wasnorm_wordpool_less_exclusions.txt	LTP256	ltpFR	19	12	1	RECEPTIONIST	1174	n/a	n/a	1	n/a	n/a	n/a	n/a	n/a
1684592	REC_WORD	wordpools/wasnorm_wordpool_less_exclusions.txt	LTP256	ltpFR	19	12	1	CHEERLEADER	288	n/a	n/a	1	n/a	n/a	n/a	n/a	n/a
1693506	REC_WORD	wordpools/wasnorm_wordpool_less_exclusions.txt	LTP256	ltpFR	19	12	1	PENNY	1045	n/a	n/a	0	n/a	n/a	n/a	n/a	n/a
1697478	REC_WORD	wordpools/wasnorm_wordpool_less_exclusions.txt	LTP256	ltpFR	19	12	1	TURTLE	1522	n/a	n/a	1	n/a	n/a	n/a	n/a	n/a
1698679	REC_WORD	wordpools/wasnorm_wordpool_less_exclusions.txt	LTP256	ltpFR	19	12	1	CAMEL	223	n/a	n/a	1	n/a	n/a	n/a	n/a	n/a
1700810	REC_WORD	wordpools/wasnorm_wordpool_less_exclusions.txt	LTP256	ltpFR	19	12	1	PLANT	1083	n/a	n/a	1	n/a	n/a	n/a	n/a	n/a
1701868	REC_WORD	wordpools/wasnorm_wordpool_less_exclusions.txt	LTP256	ltpFR	19	12	1	THORN	1459	n/a	n/a	0	n/a	n/a	n/a	n/a	n/a
1702932	REC_WORD	wordpools/wasnorm_wordpool_less_exclusions.txt	LTP256	ltpFR	19	12	1	SEA	1259	n/a	n/a	0	n/a	n/a	n/a	n/a	n/a
1707539	REC_WORD	wordpools/wasnorm_wordpool_less_exclusions.txt	LTP256	ltpFR	19	12	1	MICROWAVE	892	n/a	n/a	0	n/a	n/a	n/a	n/a	n/a
1715005	REC_WORD	wordpools/wasnorm_wordpool_less_exclusions.txt	LTP256	ltpFR	19	12	1	TRIANGLE	1504	n/a	n/a	0	n/a	n/a	n/a	n/a	n/a
1751814	REST_REWET	n/a	LTP256	ltpFR	19	12	n/a	n/a	n/a	n/a	n/a	n/a	n/a	n/a	n/a	n/a	n/a
1962816	WORD	wordpools/wasnorm_wordpool_less_exclusions.txt	LTP256	ltpFR	19	13	1	CRACKER	398	n/a	n/a	0	0.422607421875	0.5869140625	0	upper	zerothre.ttf
1966776	WORD	wordpools/wasnorm_wordpool_less_exclusions.txt	LTP256	ltpFR	19	13	1	CALENDAR	221	n/a	n/a	0	0.422607421875	0.5869140625	0	upper	zerothre.ttf
1970870	WORD	wordpools/wasnorm_wordpool_less_exclusions.txt	LTP256	ltpFR	19	13	1	PECAN	1036	n/a	n/a	0	0.422607421875	0.5869140625	0	upper	zerothre.ttf
1975015	WORD	wordpools/wasnorm_wordpool_less_exclusions.txt	LTP256	ltpFR	19	13	1	ACORN	3	n/a	n/a	0	0.422607421875	0.5869140625	0	upper	zerothre.ttf
1979059	WORD	wordpools/wasnorm_wordpool_less_exclusions.txt	LTP256	ltpFR	19	13	1	CITIZEN	312	n/a	n/a	1	0.422607421875	0.5869140625	0	upper	zerothre.ttf
1982986	WORD	wordpools/wasnorm_wordpool_less_exclusions.txt	LTP256	ltpFR	19	13	1	TEMPLE	1448	n/a	n/a	0	0.422607421875	0.5869140625	0	upper	zerothre.ttf
1987064	WORD	wordpools/wasnorm_wordpool_less_exclusions.txt	LTP256	ltpFR	19	13	1	WHIP	1604	n/a	n/a	0	0.422607421875	0.5869140625	0	upper	zerothre.ttf
1991158	WORD	wordpools/wasnorm_wordpool_less_exclusions.txt	LTP256	ltpFR	19	13	1	TOOTH	1481	n/a	n/a	1	0.422607421875	0.5869140625	0	upper	zerothre.ttf
1995335	WORD	wordpools/wasnorm_wordpool_less_exclusions.txt	LTP256	ltpFR	19	13	1	BALLOT	76	n/a	n/a	0	0.422607421875	0.5869140625	0	upper	zerothre.ttf
1999262	WORD	wordpools/wasnorm_wordpool_less_exclusions.txt	LTP256	ltpFR	19	13	1	CANDIDATE	228	n/a	n/a	1	0.422607421875	0.5869140625	0	upper	zerothre.ttf
2003389	WORD	wordpools/wasnorm_wordpool_less_exclusions.txt	LTP256	ltpFR	19	13	1	TROPHY	1509	n/a	n/a	0	0.422607421875	0.5869140625	0	upper	zerothre.ttf
2007300	WORD	wordpools/wasnorm_wordpool_less_exclusions.txt	LTP256	ltpFR	19	13	1	HUMAN	726	n/a	n/a	1	0.422607421875	0.5869140625	0	upper	zerothre.ttf
2011261	WORD	wordpools/wasnorm_wordpool_less_exclusions.txt	LTP256	ltpFR	19	13	1	DAD	433	n/a	n/a	1	0.422607421875	0.5869140625	0	upper	zerothre.ttf
2015272	WORD	wordpools/wasnorm_wordpool_less_exclusions.txt	LTP256	ltpFR	19	13	1	POPE	1105	n/a	n/a	1	0.422607421875	0.5869140625	0	upper	zerothre.ttf
2019166	WORD	wordpools/wasnorm_wordpool_less_exclusions.txt	LTP256	ltpFR	19	13	1	WRIST	1626	n/a	n/a	0	0.422607421875	0.5869140625	0	upper	zerothre.ttf
2023243	WORD	wordpools/wasnorm_wordpool_less_exclusions.txt	LTP256	ltpFR	19	13	1	CUFF	423	n/a	n/a	0	0.422607421875	0.5869140625	0	upper	zerothre.ttf
2028951	REC_START	n/a	LTP256	ltpFR	19	13	n/a	n/a	n/a	n/a	n/a	n/a	n/a	n/a	n/a	n/a	n/a
2029467	REC_WORD	wordpools/wasnorm_wordpool_less_exclusions.txt	LTP256	ltpFR	19	13	1	WRIST	1626	n/a	n/a	0	n/a	n/a	n/a	n/a	n/a
2030490	REC_WORD	wordpools/wasnorm_wordpool_less_exclusions.txt	LTP256	ltpFR	19	13	1	CUFF	423	n/a	n/a	0	n/a	n/a	n/a	n/a	n/a
2031507	REC_WORD	wordpools/wasnorm_wordpool_less_exclusions.txt	LTP256	ltpFR	19	13	1	DAD	433	n/a	n/a	1	n/a	n/a	n/a	n/a	n/a
2032454	REC_WORD	wordpools/wasnorm_wordpool_less_exclusions.txt	LTP256	ltpFR	19	13	1	POPE	1105	n/a	n/a	1	n/a	n/a	n/a	n/a	n/a
2033390	REC_WORD	wordpools/wasnorm_wordpool_less_exclusions.txt	LTP256	ltpFR	19	13	1	HUMAN	726	n/a	n/a	1	n/a	n/a	n/a	n/a	n/a
2034378	REC_WORD	wordpools/wasnorm_wordpool_less_exclusions.txt	LTP256	ltpFR	19	13	1	CITIZEN	312	n/a	n/a	1	n/a	n/a	n/a	n/a	n/a
2035517	REC_WORD	wordpools/wasnorm_wordpool_less_exclusions.txt	LTP256	ltpFR	19	13	1	PECAN	1036	n/a	n/a	0	n/a	n/a	n/a	n/a	n/a
2036879	REC_WORD	wordpools/wasnorm_wordpool_less_exclusions.txt	LTP256	ltpFR	19	13	1	ACORN	3	n/a	n/a	0	n/a	n/a	n/a	n/a	n/a
2043528	REC_WORD	wordpools/wasnorm_wordpool_less_exclusions.txt	LTP256	ltpFR	19	13	1	BALLOT	76	n/a	n/a	0	n/a	n/a	n/a	n/a	n/a
2044227	REC_WORD	wordpools/wasnorm_wordpool_less_exclusions.txt	LTP256	ltpFR	19	13	1	CANDIDATE	228	n/a	n/a	1	n/a	n/a	n/a	n/a	n/a
2045235	REC_WORD	wordpools/wasnorm_wordpool_less_exclusions.txt	LTP256	ltpFR	19	13	1	TROPHY	1509	n/a	n/a	0	n/a	n/a	n/a	n/a	n/a
2107351	WORD	wordpools/wasnorm_wordpool_less_exclusions.txt	LTP256	ltpFR	19	14	-1	STOMACH	1384	n/a	n/a	-1	1.0	1.0	1	upper	Verdana.ttf
2111445	WORD	wordpools/wasnorm_wordpool_less_exclusions.txt	LTP256	ltpFR	19	14	-1	RUST	1219	n/a	n/a	-1	1.0	1.0	1	upper	Verdana.ttf
2115339	WORD	wordpools/wasnorm_wordpool_less_exclusions.txt	LTP256	ltpFR	19	14	-1	NEST	945	n/a	n/a	-1	1.0	1.0	1	upper	Verdana.ttf
2119183	WORD	wordpools/wasnorm_wordpool_less_exclusions.txt	LTP256	ltpFR	19	14	-1	DICE	461	n/a	n/a	-1	1.0	1.0	1	upper	Verdana.ttf
2123044	WORD	wordpools/wasnorm_wordpool_less_exclusions.txt	LTP256	ltpFR	19	14	-1	SUPPER	1411	n/a	n/a	-1	1.0	1.0	1	upper	Verdana.ttf
2127121	WORD	wordpools/wasnorm_wordpool_less_exclusions.txt	LTP256	ltpFR	19	14	-1	CARDINAL	244	n/a	n/a	-1	1.0	1.0	1	upper	Verdana.ttf
2130948	WORD	wordpools/wasnorm_wordpool_less_exclusions.txt	LTP256	ltpFR	19	14	-1	CERAMICS	271	n/a	n/a	-1	1.0	1.0	1	upper	Verdana.ttf
2134875	WORD	wordpools/wasnorm_wordpool_less_exclusions.txt	LTP256	ltpFR	19	14	-1	BASEBALL	93	n/a	n/a	-1	1.0	1.0	1	upper	Verdana.ttf
2138987	WORD	wordpools/wasnorm_wordpool_less_exclusions.txt	LTP256	ltpFR	19	14	-1	CAN	225	n/a	n/a	-1	1.0	1.0	1	upper	Verdana.ttf
2142980	WORD	wordpools/wasnorm_wordpool_less_exclusions.txt	LTP256	ltpFR	19	14	-1	GARBAGE	622	n/a	n/a	-1	1.0	1.0	1	upper	Verdana.ttf
2147141	WORD	wordpools/wasnorm_wordpool_less_exclusions.txt	LTP256	ltpFR	19	14	-1	BOY	161	n/a	n/a	-1	1.0	1.0	1	upper	Verdana.ttf
2151052	WORD	wordpools/wasnorm_wordpool_less_exclusions.txt	LTP256	ltpFR	19	14	-1	BUGLE	189	n/a	n/a	-1	1.0	1.0	1	upper	Verdana.ttf
2154895	WORD	wordpools/wasnorm_wordpool_less_exclusions.txt	LTP256	ltpFR	19	14	-1	SCISSORS	1250	n/a	n/a	-1	1.0	1.0	1	upper	Verdana.ttf
2158790	WORD	wordpools/wasnorm_wordpool_less_exclusions.txt	LTP256	ltpFR	19	14	-1	NOTEBOOK	959	n/a	n/a	-1	1.0	1.0	1	upper	Verdana.ttf
2162684	WORD	wordpools/wasnorm_wordpool_less_exclusions.txt	LTP256	ltpFR	19	14	-1	BLANKET	135	n/a	n/a	-1	1.0	1.0	1	upper	Verdana.ttf
2166546	WORD	wordpools/wasnorm_wordpool_less_exclusions.txt	LTP256	ltpFR	19	14	-1	MASK	876	n/a	n/a	-1	1.0	1.0	1	upper	Verdana.ttf
2172188	REC_START	n/a	LTP256	ltpFR	19	14	n/a	n/a	n/a	n/a	n/a	n/a	n/a	n/a	n/a	n/a	n/a
2172530	REC_WORD	wordpools/wasnorm_wordpool_less_exclusions.txt	LTP256	ltpFR	19	14	-1	MASK	876	n/a	n/a	-1	n/a	n/a	n/a	n/a	n/a
2173362	REC_WORD	wordpools/wasnorm_wordpool_less_exclusions.txt	LTP256	ltpFR	19	14	-1	DICE	461	n/a	n/a	-1	n/a	n/a	n/a	n/a	n/a
2174047	REC_WORD	wordpools/wasnorm_wordpool_less_exclusions.txt	LTP256	ltpFR	19	14	-1	NOTEBOOK	959	n/a	n/a	-1	n/a	n/a	n/a	n/a	n/a
2174820	REC_WORD	wordpools/wasnorm_wordpool_less_exclusions.txt	LTP256	ltpFR	19	14	-1	RUST	1219	n/a	n/a	-1	n/a	n/a	n/a	n/a	n/a
2175997	REC_WORD	wordpools/wasnorm_wordpool_less_exclusions.txt	LTP256	ltpFR	19	14	-1	BOY	161	n/a	n/a	-1	n/a	n/a	n/a	n/a	n/a
2176681	REC_WORD	wordpools/wasnorm_wordpool_less_exclusions.txt	LTP256	ltpFR	19	14	-1	BUGLE	189	n/a	n/a	-1	n/a	n/a	n/a	n/a	n/a
2179219	REC_WORD	wordpools/wasnorm_wordpool_less_exclusions.txt	LTP256	ltpFR	19	14	-1	STOMACH	1384	n/a	n/a	-1	n/a	n/a	n/a	n/a	n/a
2179889	REC_WORD	wordpools/wasnorm_wordpool_less_exclusions.txt	LTP256	ltpFR	19	14	-1	SUPPER	1411	n/a	n/a	-1	n/a	n/a	n/a	n/a	n/a
2183077	REC_WORD	wordpools/wasnorm_wordpool_less_exclusions.txt	LTP256	ltpFR	19	14	-1	CARDINAL	244	n/a	n/a	-1	n/a	n/a	n/a	n/a	n/a
2183797	REC_WORD	wordpools/wasnorm_wordpool_less_exclusions.txt	LTP256	ltpFR	19	14	-1	BASEBALL	93	n/a	n/a	-1	n/a	n/a	n/a	n/a	n/a
2184482	REC_WORD	wordpools/wasnorm_wordpool_less_exclusions.txt	LTP256	ltpFR	19	14	-1	BLANKET	135	n/a	n/a	-1	n/a	n/a	n/a	n/a	n/a
2194135	REC_WORD	wordpools/wasnorm_wordpool_less_exclusions.txt	LTP256	ltpFR	19	14	-1	SCISSORS	1250	n/a	n/a	-1	n/a	n/a	n/a	n/a	n/a
2194878	REC_WORD	wordpools/wasnorm_wordpool_less_exclusions.txt	LTP256	ltpFR	19	14	-1	CAN	225	n/a	n/a	-1	n/a	n/a	n/a	n/a	n/a
2195661	REC_WORD	wordpools/wasnorm_wordpool_less_exclusions.txt	LTP256	ltpFR	19	14	-1	CERAMICS	271	n/a	n/a	-1	n/a	n/a	n/a	n/a	n/a
2250602	WORD	wordpools/wasnorm_wordpool_less_exclusions.txt	LTP256	ltpFR	19	15	-1	BEGGAR	117	n/a	n/a	-1	1.0	1.0	1	upper	Verdana.ttf
2254696	WORD	wordpools/wasnorm_wordpool_less_exclusions.txt	LTP256	ltpFR	19	15	-1	CLAM	315	n/a	n/a	-1	1.0	1.0	1	upper	Verdana.ttf
2258757	WORD	wordpools/wasnorm_wordpool_less_exclusions.txt	LTP256	ltpFR	19	15	-1	RANCH	1166	n/a	n/a	-1	1.0	1.0	1	upper	Verdana.ttf
2262967	WORD	wordpools/wasnorm_wordpool_less_exclusions.txt	LTP256	ltpFR	19	15	-1	ACTOR	5	n/a	n/a	-1	1.0	1.0	1	upper	Verdana.ttf
2267045	WORD	wordpools/wasnorm_wordpool_less_exclusions.txt	LTP256	ltpFR	19	15	-1	PERISCOPE	1050	n/a	n/a	-1	1.0	1.0	1	upper	Verdana.ttf
2271173	WORD	wordpools/wasnorm_wordpool_less_exclusions.txt	LTP256	ltpFR	19	15	-1	TREAD	1499	n/a	n/a	-1	1.0	1.0	1	upper	Verdana.ttf
2275017	WORD	wordpools/wasnorm_wordpool_less_exclusions.txt	LTP256	ltpFR	19	15	-1	PONY	1102	n/a	n/a	-1	1.0	1.0	1	upper	Verdana.ttf
2278927	WORD	wordpools/wasnorm_wordpool_less_exclusions.txt	LTP256	ltpFR	19	15	-1	HORSE	719	n/a	n/a	-1	1.0	1.0	1	upper	Verdana.ttf
2283155	WORD	wordpools/wasnorm_wordpool_less_exclusions.txt	LTP256	ltpFR	19	15	-1	BARN	89	n/a	n/a	-1	1.0	1.0	1	upper	Verdana.ttf
2287199	WORD	wordpools/wasnorm_wordpool_less_exclusions.txt	LTP256	ltpFR	19	15	-1	SEAFOOD	1260	n/a	n/a	-1	1.0	1.0	1	upper	Verdana.ttf
2291060	WORD	wordpools/wasnorm_wordpool_less_exclusions.txt	LTP256	ltpFR	19	15	-1	WELL	1600	n/a	n/a	-1	1.0	1.0	1	upper	Verdana.ttf
2295203	WORD	wordpools/wasnorm_wordpool_less_exclusions.txt	LTP256	ltpFR	19	15	-1	FIN	566	n/a	n/a	-1	1.0	1.0	1	upper	Verdana.ttf
2299197	WORD	wordpools/wasnorm_wordpool_less_exclusions.txt	LTP256	ltpFR	19	15	-1	SNOB	1335	n/a	n/a	-1	1.0	1.0	1	upper	Verdana.ttf
2303108	WORD	wordpools/wasnorm_wordpool_less_exclusions.txt	LTP256	ltpFR	19	15	-1	GREASE	660	n/a	n/a	-1	1.0	1.0	1	upper	Verdana.ttf
2306952	WORD	wordpools/wasnorm_wordpool_less_exclusions.txt	LTP256	ltpFR	19	15	-1	COAT	333	n/a	n/a	-1	1.0	1.0	1	upper	Verdana.ttf
2311013	WORD	wordpools/wasnorm_wordpool_less_exclusions.txt	LTP256	ltpFR	19	15	-1	TRENCH	1503	n/a	n/a	-1	1.0	1.0	1	upper	Verdana.ttf
2316871	REC_START	n/a	LTP256	ltpFR	19	15	n/a	n/a	n/a	n/a	n/a	n/a	n/a	n/a	n/a	n/a	n/a
2318144	REC_WORD	wordpools/wasnorm_wordpool_less_exclusions.txt	LTP256	ltpFR	19	15	-1	RANCH	1166	n/a	n/a	-1	n/a	n/a	n/a	n/a	n/a
2318817	REC_WORD	wordpools/wasnorm_wordpool_less_exclusions.txt	LTP256	ltpFR	19	15	-1	TRENCH	1503	n/a	n/a	-1	n/a	n/a	n/a	n/a	n/a
2319829	REC_WORD	wordpools/wasnorm_wordpool_less_exclusions.txt	LTP256	ltpFR	19	15	-1	PERISCOPE	1050	n/a	n/a	-1	n/a	n/a	n/a	n/a	n/a
2321492	REC_WORD	wordpools/wasnorm_wordpool_less_exclusions.txt	LTP256	ltpFR	19	15	-1	PONY	1102	n/a	n/a	-1	n/a	n/a	n/a	n/a	n/a
2322581	REC_WORD	wordpools/wasnorm_wordpool_less_exclusions.txt	LTP256	ltpFR	19	15	-1	HORSE	719	n/a	n/a	-1	n/a	n/a	n/a	n/a	n/a
2324580	REC_WORD	wordpools/wasnorm_wordpool_less_exclusions.txt	LTP256	ltpFR	19	15	-1	GREASE	660	n/a	n/a	-1	n/a	n/a	n/a	n/a	n/a
2328315	REC_WORD	wordpools/wasnorm_wordpool_less_exclusions.txt	LTP256	ltpFR	19	15	-1	FIN	566	n/a	n/a	-1	n/a	n/a	n/a	n/a	n/a
2329078	REC_WORD	wordpools/wasnorm_wordpool_less_exclusions.txt	LTP256	ltpFR	19	15	-1	SEAFOOD	1260	n/a	n/a	-1	n/a	n/a	n/a	n/a	n/a
2330474	REC_WORD	wordpools/wasnorm_wordpool_less_exclusions.txt	LTP256	ltpFR	19	15	-1	SNOB	1335	n/a	n/a	-1	n/a	n/a	n/a	n/a	n/a
2335500	REC_WORD	wordpools/wasnorm_wordpool_less_exclusions.txt	LTP256	ltpFR	19	15	-1	BEGGAR	117	n/a	n/a	-1	n/a	n/a	n/a	n/a	n/a
2336328	REC_WORD	wordpools/wasnorm_wordpool_less_exclusions.txt	LTP256	ltpFR	19	15	-1	ACTOR	5	n/a	n/a	-1	n/a	n/a	n/a	n/a	n/a
2337254	REC_WORD	wordpools/wasnorm_wordpool_less_exclusions.txt	LTP256	ltpFR	19	15	-1	CLAM	315	n/a	n/a	-1	n/a	n/a	n/a	n/a	n/a
2338185	REC_WORD	wordpools/wasnorm_wordpool_less_exclusions.txt	LTP256	ltpFR	19	15	-1	TREAD	1499	n/a	n/a	-1	n/a	n/a	n/a	n/a	n/a
2355279	REC_WORD	wordpools/wasnorm_wordpool_less_exclusions.txt	LTP256	ltpFR	19	15	-1	BARN	89	n/a	n/a	-1	n/a	n/a	n/a	n/a	n/a
2394937	WORD	wordpools/wasnorm_wordpool_less_exclusions.txt	LTP256	ltpFR	19	16	0	BROOK	177	n/a	n/a	1	0.57763671875	0.412841796875	1	lower	amplitud.ttf
2399065	WORD	wordpools/wasnorm_wordpool_less_exclusions.txt	LTP256	ltpFR	19	16	0	REFRIGERATOR	1179	n/a	n/a	1	0.57763671875	0.412841796875	1	lower	amplitud.ttf
2403259	WORD	wordpools/wasnorm_wordpool_less_exclusions.txt	LTP256	ltpFR	19	16	0	PIPE	1073	n/a	n/a	1	0.57763671875	0.412841796875	1	lower	amplitud.ttf
2407269	WORD	wordpools/wasnorm_wordpool_less_exclusions.txt	LTP256	ltpFR	19	16	0	SNORKEL	1336	n/a	n/a	1	0.57763671875	0.412841796875	1	lower	amplitud.ttf
2411397	WORD	wordpools/wasnorm_wordpool_less_exclusions.txt	LTP256	ltpFR	19	16	1	RECIPE	1175	n/a	n/a	0	0.422607421875	0.5869140625	0	upper	zerothre.ttf
2415441	WORD	wordpools/wasnorm_wordpool_less_exclusions.txt	LTP256	ltpFR	19	16	1	VIOLIN	1571	n/a	n/a	0	0.422607421875	0.5869140625	0	upper	zerothre.ttf
2419617	WORD	wordpools/wasnorm_wordpool_less_exclusions.txt	LTP256	ltpFR	19	16	1	RECORD	1176	n/a	n/a	0	0.422607421875	0.5869140625	0	upper	zerothre.ttf
2423545	WORD	wordpools/wasnorm_wordpool_less_exclusions.txt	LTP256	ltpFR	19	16	1	SPY	1360	n/a	n/a	1	0.422607421875	0.5869140625	0	upper	zerothre.ttf
2427439	WORD	wordpools/wasnorm_wordpool_less_exclusions.txt	LTP256	ltpFR	19	16	1	CHEEK	287	n/a	n/a	0	0.422607421875	0.5869140625	0	upper	zerothre.ttf
2431317	WORD	wordpools/wasnorm_wordpool_less_exclusions.txt	LTP256	ltpFR	19	16	1	TEAM	1441	n/a	n/a	1	0.422607421875	0.5869140625	0	upper	zerothre.ttf
2435211	WORD	wordpools/wasnorm_wordpool_less_exclusions.txt	LTP256	ltpFR	19	16	0	SIREN	1310	n/a	n/a	1	0.57763671875	0.412841796875	1	lower	amplitud.ttf
2439238	WORD	wordpools/wasnorm_wordpool_less_exclusions.txt	LTP256	ltpFR	19	16	0	ENEMY	534	n/a	n/a	1	0.57763671875	0.412841796875	1	lower	amplitud.ttf
2443099	WORD	wordpools/wasnorm_wordpool_less_exclusions.txt	LTP256	ltpFR	19	16	0	DIRECTOR	471	n/a	n/a	1	0.57763671875	0.412841796875	1	lower	amplitud.ttf
2447093	WORD	wordpools/wasnorm_wordpool_less_exclusions.txt	LTP256	ltpFR	19	16	0	FILM	565	n/a	n/a	1	0.57763671875	0.412841796875	1	lower	amplitud.ttf
2451254	WORD	wordpools/wasnorm_wordpool_less_exclusions.txt	LTP256	ltpFR	19	16	1	TRAITOR	1495	n/a	n/a	1	0.422607421875	0.5869140625	0	upper	zerothre.ttf
2455115	WORD	wordpools/wasnorm_wordpool_less_exclusions.txt	LTP256	ltpFR	19	16	1	JELLY	755	n/a	n/a	0	0.422607421875	0.5869140625	0	upper	zerothre.ttf
2460939	REC_START	n/a	LTP256	ltpFR	19	16	n/a	n/a	n/a	n/a	n/a	n/a	n/a	n/a	n/a	n/a	n/a
2463381	REC_WORD	wordpools/wasnorm_wordpool_less_exclusions.txt	LTP256	ltpFR	19	16	1	TRAITOR	1495	n/a	n/a	1	n/a	n/a	n/a	n/a	n/a
2464445	REC_WORD	wordpools/wasnorm_wordpool_less_exclusions.txt	LTP256	ltpFR	19	16	0	ENEMY	534	n/a	n/a	1	n/a	n/a	n/a	n/a	n/a
2465330	REC_WORD	wordpools/wasnorm_wordpool_less_exclusions.txt	LTP256	ltpFR	19	16	0	DIRECTOR	471	n/a	n/a	1	n/a	n/a	n/a	n/a	n/a
2466522	REC_WORD	wordpools/wasnorm_wordpool_less_exclusions.txt	LTP256	ltpFR	19	16	0	FILM	565	n/a	n/a	1	n/a	n/a	n/a	n/a	n/a
2467759	REC_WORD	wordpools/wasnorm_wordpool_less_exclusions.txt	LTP256	ltpFR	19	16	1	JELLY	755	n/a	n/a	0	n/a	n/a	n/a	n/a	n/a
2468658	REC_WORD	wordpools/wasnorm_wordpool_less_exclusions.txt	LTP256	ltpFR	19	16	0	REFRIGERATOR	1179	n/a	n/a	1	n/a	n/a	n/a	n/a	n/a
2472848	REC_WORD	wordpools/wasnorm_wordpool_less_exclusions.txt	LTP256	ltpFR	19	16	0	PIPE	1073	n/a	n/a	1	n/a	n/a	n/a	n/a	n/a
2473712	REC_WORD	wordpools/wasnorm_wordpool_less_exclusions.txt	LTP256	ltpFR	19	16	0	SNORKEL	1336	n/a	n/a	1	n/a	n/a	n/a	n/a	n/a
2475066	REC_WORD	wordpools/wasnorm_wordpool_less_exclusions.txt	LTP256	ltpFR	19	16	0	BROOK	177	n/a	n/a	1	n/a	n/a	n/a	n/a	n/a
2485388	REC_WORD	wordpools/wasnorm_wordpool_less_exclusions.txt	LTP256	ltpFR	19	16	1	TEAM	1441	n/a	n/a	1	n/a	n/a	n/a	n/a	n/a
2535211	REC_WORD	wordpools/wasnorm_wordpool_less_exclusions.txt	LTP256	ltpFR	19	16	0	SIREN	1310	n/a	n/a	1	n/a	n/a	n/a	n/a	n/a
2556348	REC_START	n/a	LTP256	ltpFR	19	1	n/a	n/a	n/a	n/a	n/a	n/a	n/a	n/a	n/a	n/a	n/a
2556380	RECOG_LURE	n/a	LTP256	ltpFR	19	1	n/a	MARS	873	0	5	n/a	n/a	n/a	n/a	n/a	n/a
2557713	RECOG_RESP	n/a	LTP256	ltpFR	19	1	n/a	MARS	873	0	n/a	n/a	n/a	n/a	n/a	n/a	n/a
2558738	RECOG_CONF	n/a	LTP256	ltpFR	19	1	n/a	MARS	873	n/a	5	n/a	n/a	n/a	n/a	n/a	n/a
2560573	RECOG_LURE	n/a	LTP256	ltpFR	19	1	n/a	WART	1590	0	5	n/a	n/a	n/a	n/a	n/a	n/a
2561213	RECOG_RESP	n/a	LTP256	ltpFR	19	1	n/a	WART	1590	0	n/a	n/a	n/a	n/a	n/a	n/a	n/a
2561828	RECOG_CONF	n/a	LTP256	ltpFR	19	1	n/a	WART	1590	n/a	5	n/a	n/a	n/a	n/a	n/a	n/a
2563536	RECOG_TARGET	n/a	LTP256	ltpFR	19	1	0	EGG	518	0	3	0	n/a	n/a	n/a	n/a	n/a
2564423	RECOG_RESP	n/a	LTP256	ltpFR	19	1	0	EGG	518	0	n/a	0	n/a	n/a	n/a	n/a	n/a
2565038	RECOG_CONF	n/a	LTP256	ltpFR	19	1	0	EGG	518	n/a	3	0	n/a	n/a	n/a	n/a	n/a
2566597	RECOG_TARGET	n/a	LTP256	ltpFR	19	1	0	ENEMY	534	1	4	1	n/a	n/a	n/a	n/a	n/a
2567218	RECOG_RESP	n/a	LTP256	ltpFR	19	1	0	ENEMY	534	1	n/a	1	n/a	n/a	n/a	n/a	n/a
2567608	RECOG_CONF	n/a	LTP256	ltpFR	19	1	0	ENEMY	534	n/a	4	1	n/a	n/a	n/a	n/a	n/a
2569277	RECOG_LURE	n/a	LTP256	ltpFR	19	1	n/a	WALNUT	1584	0	4	n/a	n/a	n/a	n/a	n/a	n/a
2570103	RECOG_RESP	n/a	LTP256	ltpFR	19	1	n/a	WALNUT	1584	0	n/a	n/a	n/a	n/a	n/a	n/a	n/a
2570658	RECOG_CONF	n/a	LTP256	ltpFR	19	1	n/a	WALNUT	1584	n/a	4	n/a	n/a	n/a	n/a	n/a	n/a
2572340	RECOG_TARGET	n/a	LTP256	ltpFR	19	1	0	BEEF	113	1	5	1	n/a	n/a	n/a	n/a	n/a
2573013	RECOG_RESP	n/a	LTP256	ltpFR	19	1	0	BEEF	113	1	n/a	1	n/a	n/a	n/a	n/a	n/a
2573458	RECOG_CONF	n/a	LTP256	ltpFR	19	1	0	BEEF	113	n/a	5	1	n/a	n/a	n/a	n/a	n/a
2575119	RECOG_TARGET	n/a	LTP256	ltpFR	19	1	0	SHEEP	1278	1	2	1	n/a	n/a	n/a	n/a	n/a
2575753	RECOG_RESP	n/a	LTP256	ltpFR	19	1	0	SHEEP	1278	1	n/a	1	n/a	n/a	n/a	n/a	n/a
2576318	RECOG_CONF	n/a	LTP256	ltpFR	19	1	0	SHEEP	1278	n/a	2	1	n/a	n/a	n/a	n/a	n/a
2577980	RECOG_TARGET	n/a	LTP256	ltpFR	19	1	-1	STEAM	1375	1	4	-1	n/a	n/a	n/a	n/a	n/a
2578838	RECOG_RESP	n/a	LTP256	ltpFR	19	1	-1	STEAM	1375	1	n/a	-1	n/a	n/a	n/a	n/a	n/a
2579268	RECOG_CONF	n/a	LTP256	ltpFR	19	1	-1	STEAM	1375	n/a	4	-1	n/a	n/a	n/a	n/a	n/a
2580959	RECOG_LURE	n/a	LTP256	ltpFR	19	1	n/a	TEAPOT	1442	0	4	n/a	n/a	n/a	n/a	n/a	n/a
2581728	RECOG_RESP	n/a	LTP256	ltpFR	19	1	n/a	TEAPOT	1442	0	n/a	n/a	n/a	n/a	n/a	n/a	n/a
2582178	RECOG_CONF	n/a	LTP256	ltpFR	19	1	n/a	TEAPOT	1442	n/a	4	n/a	n/a	n/a	n/a	n/a	n/a
2583755	RECOG_TARGET	n/a	LTP256	ltpFR	19	1	0	LAVA	804	1	5	1	n/a	n/a	n/a	n/a	n/a
2584458	RECOG_RESP	n/a	LTP256	ltpFR	19	1	0	LAVA	804	1	n/a	1	n/a	n/a	n/a	n/a	n/a
2585258	RECOG_CONF	n/a	LTP256	ltpFR	19	1	0	LAVA	804	n/a	5	1	n/a	n/a	n/a	n/a	n/a
2586984	RECOG_TARGET	n/a	LTP256	ltpFR	19	1	0	FILM	565	1	5	1	n/a	n/a	n/a	n/a	n/a
2587618	RECOG_RESP	n/a	LTP256	ltpFR	19	1	0	FILM	565	1	n/a	1	n/a	n/a	n/a	n/a	n/a
2588028	RECOG_CONF	n/a	LTP256	ltpFR	19	1	0	FILM	565	n/a	5	1	n/a	n/a	n/a	n/a	n/a
2589663	RECOG_TARGET	n/a	LTP256	ltpFR	19	1	-1	PATIO	1025	1	5	-1	n/a	n/a	n/a	n/a	n/a
2590298	RECOG_RESP	n/a	LTP256	ltpFR	19	1	-1	PATIO	1025	1	n/a	-1	n/a	n/a	n/a	n/a	n/a
2590718	RECOG_CONF	n/a	LTP256	ltpFR	19	1	-1	PATIO	1025	n/a	5	-1	n/a	n/a	n/a	n/a	n/a
2592376	RECOG_TARGET	n/a	LTP256	ltpFR	19	1	1	BREAST	171	1	5	1	n/a	n/a	n/a	n/a	n/a
2592978	RECOG_RESP	n/a	LTP256	ltpFR	19	1	1	BREAST	171	1	n/a	1	n/a	n/a	n/a	n/a	n/a
2593388	RECOG_CONF	n/a	LTP256	ltpFR	19	1	1	BREAST	171	n/a	5	1	n/a	n/a	n/a	n/a	n/a
2595006	RECOG_TARGET	n/a	LTP256	ltpFR	19	1	0	COMET	353	1	5	1	n/a	n/a	n/a	n/a	n/a
2595668	RECOG_RESP	n/a	LTP256	ltpFR	19	1	0	COMET	353	1	n/a	1	n/a	n/a	n/a	n/a	n/a
2596058	RECOG_CONF	n/a	LTP256	ltpFR	19	1	0	COMET	353	n/a	5	1	n/a	n/a	n/a	n/a	n/a
2597634	RECOG_TARGET	n/a	LTP256	ltpFR	19	1	0	TOWER	1490	1	5	1	n/a	n/a	n/a	n/a	n/a
2598313	RECOG_RESP	n/a	LTP256	ltpFR	19	1	0	TOWER	1490	1	n/a	1	n/a	n/a	n/a	n/a	n/a
2598728	RECOG_CONF	n/a	LTP256	ltpFR	19	1	0	TOWER	1490	n/a	5	1	n/a	n/a	n/a	n/a	n/a
2600348	RECOG_TARGET	n/a	LTP256	ltpFR	19	1	0	PIPE	1073	1	5	1	n/a	n/a	n/a	n/a	n/a
2600913	RECOG_RESP	n/a	LTP256	ltpFR	19	1	0	PIPE	1073	1	n/a	1	n/a	n/a	n/a	n/a	n/a
2601288	RECOG_CONF	n/a	LTP256	ltpFR	19	1	0	PIPE	1073	n/a	5	1	n/a	n/a	n/a	n/a	n/a
2602959	RECOG_TARGET	n/a	LTP256	ltpFR	19	1	-1	VEGETABLE	1552	1	4	-1	n/a	n/a	n/a	n/a	n/a
2603643	RECOG_RESP	n/a	LTP256	ltpFR	19	1	-1	VEGETABLE	1552	1	n/a	-1	n/a	n/a	n/a	n/a	n/a
2603998	RECOG_CONF	n/a	LTP256	ltpFR	19	1	-1	VEGETABLE	1552	n/a	4	-1	n/a	n/a	n/a	n/a	n/a
2605739	RECOG_TARGET	n/a	LTP256	ltpFR	19	1	1	SOCKET	1340	1	5	0	n/a	n/a	n/a	n/a	n/a
2606988	RECOG_RESP	n/a	LTP256	ltpFR	19	1	1	SOCKET	1340	1	n/a	0	n/a	n/a	n/a	n/a	n/a
2607398	RECOG_CONF	n/a	LTP256	ltpFR	19	1	1	SOCKET	1340	n/a	5	0	n/a	n/a	n/a	n/a	n/a
2608934	RECOG_TARGET	n/a	LTP256	ltpFR	19	1	0	POLYESTER	1100	1	4	1	n/a	n/a	n/a	n/a	n/a
2609643	RECOG_RESP	n/a	LTP256	ltpFR	19	1	0	POLYESTER	1100	1	n/a	1	n/a	n/a	n/a	n/a	n/a
2610048	RECOG_CONF	n/a	LTP256	ltpFR	19	1	0	POLYESTER	1100	n/a	4	1	n/a	n/a	n/a	n/a	n/a
2611580	RECOG_TARGET	n/a	LTP256	ltpFR	19	1	1	SQUIRREL	1362	1	5	1	n/a	n/a	n/a	n/a	n/a
2612233	RECOG_RESP	n/a	LTP256	ltpFR	19	1	1	SQUIRREL	1362	1	n/a	1	n/a	n/a	n/a	n/a	n/a
2612628	RECOG_CONF	n/a	LTP256	ltpFR	19	1	1	SQUIRREL	1362	n/a	5	1	n/a	n/a	n/a	n/a	n/a
2615778	REC_START	n/a	LTP256	ltpFR	19	2	n/a	n/a	n/a	n/a	n/a	n/a	n/a	n/a	n/a	n/a	n/a
2615807	RECOG_TARGET	n/a	LTP256	ltpFR	19	2	1	SPY	1360	1	5	1	n/a	n/a	n/a	n/a	n/a
2616398	RECOG_RESP	n/a	LTP256	ltpFR	19	2	1	SPY	1360	1	n/a	1	n/a	n/a	n/a	n/a	n/a
2616768	RECOG_CONF	n/a	LTP256	ltpFR	19	2	1	SPY	1360	n/a	5	1	n/a	n/a	n/a	n/a	n/a
2618487	RECOG_LURE	n/a	LTP256	ltpFR	19	2	n/a	POWDER	1117	0	3	n/a	n/a	n/a	n/a	n/a	n/a
2619133	RECOG_RESP	n/a	LTP256	ltpFR	19	2	n/a	POWDER	1117	0	n/a	n/a	n/a	n/a	n/a	n/a	n/a
2619498	RECOG_CONF	n/a	LTP256	ltpFR	19	2	n/a	POWDER	1117	n/a	3	n/a	n/a	n/a	n/a	n/a	n/a
2621133	RECOG_TARGET	n/a	LTP256	ltpFR	19	2	0	MEAL	882	1	4	1	n/a	n/a	n/a	n/a	n/a
2621718	RECOG_RESP	n/a	LTP256	ltpFR	19	2	0	MEAL	882	1	n/a	1	n/a	n/a	n/a	n/a	n/a
2622108	RECOG_CONF	n/a	LTP256	ltpFR	19	2	0	MEAL	882	n/a	4	1	n/a	n/a	n/a	n/a	n/a
2623662	RECOG_TARGET	n/a	LTP256	ltpFR	19	2	1	WASHCLOTH	1591	1	4	0	n/a	n/a	n/a	n/a	n/a
2624373	RECOG_RESP	n/a	LTP256	ltpFR	19	2	1	WASHCLOTH	1591	1	n/a	0	n/a	n/a	n/a	n/a	n/a
2624798	RECOG_CONF	n/a	LTP256	ltpFR	19	2	1	WASHCLOTH	1591	n/a	4	0	n/a	n/a	n/a	n/a	n/a
2626392	RECOG_TARGET	n/a	LTP256	ltpFR	19	2	1	MOVIE	927	1	2	0	n/a	n/a	n/a	n/a	n/a
2628193	RECOG_RESP	n/a	LTP256	ltpFR	19	2	1	MOVIE	927	1	n/a	0	n/a	n/a	n/a	n/a	n/a
2628578	RECOG_CONF	n/a	LTP256	ltpFR	19	2	1	MOVIE	927	n/a	2	0	n/a	n/a	n/a	n/a	n/a
2630253	RECOG_TARGET	n/a	LTP256	ltpFR	19	2	0	VOLLEYBALL	1576	1	5	1	n/a	n/a	n/a	n/a	n/a
2630923	RECOG_RESP	n/a	LTP256	ltpFR	19	2	0	VOLLEYBALL	1576	1	n/a	1	n/a	n/a	n/a	n/a	n/a
2631308	RECOG_CONF	n/a	LTP256	ltpFR	19	2	0	VOLLEYBALL	1576	n/a	5	1	n/a	n/a	n/a	n/a	n/a
2632898	RECOG_TARGET	n/a	LTP256	ltpFR	19	2	1	RAM	1165	1	5	1	n/a	n/a	n/a	n/a	n/a
2633448	RECOG_RESP	n/a	LTP256	ltpFR	19	2	1	RAM	1165	1	n/a	1	n/a	n/a	n/a	n/a	n/a
2633868	RECOG_CONF	n/a	LTP256	ltpFR	19	2	1	RAM	1165	n/a	5	1	n/a	n/a	n/a	n/a	n/a
2635379	RECOG_LURE	n/a	LTP256	ltpFR	19	2	n/a	BOULDER	155	0	4	n/a	n/a	n/a	n/a	n/a	n/a
2636203	RECOG_RESP	n/a	LTP256	ltpFR	19	2	n/a	BOULDER	155	0	n/a	n/a	n/a	n/a	n/a	n/a	n/a
2636548	RECOG_CONF	n/a	LTP256	ltpFR	19	2	n/a	BOULDER	155	n/a	4	n/a	n/a	n/a	n/a	n/a	n/a
2638274	RECOG_LURE	n/a	LTP256	ltpFR	19	2	n/a	OCTOPUS	971	0	4	n/a	n/a	n/a	n/a	n/a	n/a
2638973	RECOG_RESP	n/a	LTP256	ltpFR	19	2	n/a	OCTOPUS	971	0	n/a	n/a	n/a	n/a	n/a	n/a	n/a
2639308	RECOG_CONF	n/a	LTP256	ltpFR	19	2	n/a	OCTOPUS	971	n/a	4	n/a	n/a	n/a	n/a	n/a	n/a
2641004	RECOG_TARGET	n/a	LTP256	ltpFR	19	2	0	FARMER	553	1	5	1	n/a	n/a	n/a	n/a	n/a
2641538	RECOG_RESP	n/a	LTP256	ltpFR	19	2	0	FARMER	553	1	n/a	1	n/a	n/a	n/a	n/a	n/a
2642038	RECOG_CONF	n/a	LTP256	ltpFR	19	2	0	FARMER	553	n/a	5	1	n/a	n/a	n/a	n/a	n/a
2643533	RECOG_TARGET	n/a	LTP256	ltpFR	19	2	0	ATTIRE	57	1	5	0	n/a	n/a	n/a	n/a	n/a
2644488	RECOG_RESP	n/a	LTP256	ltpFR	19	2	0	ATTIRE	57	1	n/a	0	n/a	n/a	n/a	n/a	n/a
2644948	RECOG_CONF	n/a	LTP256	ltpFR	19	2	0	ATTIRE	57	n/a	5	0	n/a	n/a	n/a	n/a	n/a
2646362	RECOG_TARGET	n/a	LTP256	ltpFR	19	2	1	BEDROOM	111	1	4	0	n/a	n/a	n/a	n/a	n/a
2647068	RECOG_RESP	n/a	LTP256	ltpFR	19	2	1	BEDROOM	111	1	n/a	0	n/a	n/a	n/a	n/a	n/a
2647458	RECOG_CONF	n/a	LTP256	ltpFR	19	2	1	BEDROOM	111	n/a	4	0	n/a	n/a	n/a	n/a	n/a
2649108	RECOG_LURE	n/a	LTP256	ltpFR	19	2	n/a	CHIME	300	0	4	n/a	n/a	n/a	n/a	n/a	n/a
2649763	RECOG_RESP	n/a	LTP256	ltpFR	19	2	n/a	CHIME	300	0	n/a	n/a	n/a	n/a	n/a	n/a	n/a
2650078	RECOG_CONF	n/a	LTP256	ltpFR	19	2	n/a	CHIME	300	n/a	4	n/a	n/a	n/a	n/a	n/a	n/a
2651753	RECOG_TARGET	n/a	LTP256	ltpFR	19	2	0	TURKEY	1520	1	5	1	n/a	n/a	n/a	n/a	n/a
2652363	RECOG_RESP	n/a	LTP256	ltpFR	19	2	0	TURKEY	1520	1	n/a	1	n/a	n/a	n/a	n/a	n/a
2652728	RECOG_CONF	n/a	LTP256	ltpFR	19	2	0	TURKEY	1520	n/a	5	1	n/a	n/a	n/a	n/a	n/a
2654450	RECOG_LURE	n/a	LTP256	ltpFR	19	2	n/a	SIRLOIN	1311	0	5	n/a	n/a	n/a	n/a	n/a	n/a
2655298	RECOG_RESP	n/a	LTP256	ltpFR	19	2	n/a	SIRLOIN	1311	0	n/a	n/a	n/a	n/a	n/a	n/a	n/a
2655648	RECOG_CONF	n/a	LTP256	ltpFR	19	2	n/a	SIRLOIN	1311	n/a	5	n/a	n/a	n/a	n/a	n/a	n/a
2657363	RECOG_TARGET	n/a	LTP256	ltpFR	19	2	1	CHIPMUNK	304	1	5	1	n/a	n/a	n/a	n/a	n/a
2657968	RECOG_RESP	n/a	LTP256	ltpFR	19	2	1	CHIPMUNK	304	1	n/a	1	n/a	n/a	n/a	n/a	n/a
2658358	RECOG_CONF	n/a	LTP256	ltpFR	19	2	1	CHIPMUNK	304	n/a	5	1	n/a	n/a	n/a	n/a	n/a
2659992	RECOG_TARGET	n/a	LTP256	ltpFR	19	2	-1	SNOB	1335	1	5	-1	n/a	n/a	n/a	n/a	n/a
2660548	RECOG_RESP	n/a	LTP256	ltpFR	19	2	-1	SNOB	1335	1	n/a	-1	n/a	n/a	n/a	n/a	n/a
2660928	RECOG_CONF	n/a	LTP256	ltpFR	19	2	-1	SNOB	1335	n/a	5	-1	n/a	n/a	n/a	n/a	n/a
2662587	RECOG_TARGET	n/a	LTP256	ltpFR	19	2	1	WINNER	1615	1	3	1	n/a	n/a	n/a	n/a	n/a
2663863	RECOG_RESP	n/a	LTP256	ltpFR	19	2	1	WINNER	1615	1	n/a	1	n/a	n/a	n/a	n/a	n/a
2664448	RECOG_CONF	n/a	LTP256	ltpFR	19	2	1	WINNER	1615	n/a	3	1	n/a	n/a	n/a	n/a	n/a
2666133	RECOG_TARGET	n/a	LTP256	ltpFR	19	2	1	ELECTRICIAN	521	1	5	1	n/a	n/a	n/a	n/a	n/a
2666753	RECOG_RESP	n/a	LTP256	ltpFR	19	2	1	ELECTRICIAN	521	1	n/a	1	n/a	n/a	n/a	n/a	n/a
2667148	RECOG_CONF	n/a	LTP256	ltpFR	19	2	1	ELECTRICIAN	521	n/a	5	1	n/a	n/a	n/a	n/a	n/a
2668761	RECOG_TARGET	n/a	LTP256	ltpFR	19	2	-1	ESSAY	540	1	5	-1	n/a	n/a	n/a	n/a	n/a
2669443	RECOG_RESP	n/a	LTP256	ltpFR	19	2	-1	ESSAY	540	1	n/a	-1	n/a	n/a	n/a	n/a	n/a
2669678	RECOG_CONF	n/a	LTP256	ltpFR	19	2	-1	ESSAY	540	n/a	5	-1	n/a	n/a	n/a	n/a	n/a
2673089	REC_START	n/a	LTP256	ltpFR	19	3	n/a	n/a	n/a	n/a	n/a	n/a	n/a	n/a	n/a	n/a	n/a
2673122	RECOG_TARGET	n/a	LTP256	ltpFR	19	3	-1	CAN	225	1	4	-1	n/a	n/a	n/a	n/a	n/a
2674219	RECOG_RESP	n/a	LTP256	ltpFR	19	3	-1	CAN	225	1	n/a	-1	n/a	n/a	n/a	n/a	n/a
2674619	RECOG_CONF	n/a	LTP256	ltpFR	19	3	-1	CAN	225	n/a	4	-1	n/a	n/a	n/a	n/a	n/a
2676268	RECOG_TARGET	n/a	LTP256	ltpFR	19	3	0	DOLLAR	482	1	3	0	n/a	n/a	n/a	n/a	n/a
2676934	RECOG_RESP	n/a	LTP256	ltpFR	19	3	0	DOLLAR	482	1	n/a	0	n/a	n/a	n/a	n/a	n/a
2677169	RECOG_CONF	n/a	LTP256	ltpFR	19	3	0	DOLLAR	482	n/a	3	0	n/a	n/a	n/a	n/a	n/a
2678979	RECOG_TARGET	n/a	LTP256	ltpFR	19	3	0	SHIP	1286	1	4	1	n/a	n/a	n/a	n/a	n/a
2679829	RECOG_RESP	n/a	LTP256	ltpFR	19	3	0	SHIP	1286	1	n/a	1	n/a	n/a	n/a	n/a	n/a
2680199	RECOG_CONF	n/a	LTP256	ltpFR	19	3	0	SHIP	1286	n/a	4	1	n/a	n/a	n/a	n/a	n/a
2681892	RECOG_TARGET	n/a	LTP256	ltpFR	19	3	-1	BOY	161	1	5	-1	n/a	n/a	n/a	n/a	n/a
2682449	RECOG_RESP	n/a	LTP256	ltpFR	19	3	-1	BOY	161	1	n/a	-1	n/a	n/a	n/a	n/a	n/a
2682829	RECOG_CONF	n/a	LTP256	ltpFR	19	3	-1	BOY	161	n/a	5	-1	n/a	n/a	n/a	n/a	n/a
2684422	RECOG_LURE	n/a	LTP256	ltpFR	19	3	n/a	MOTEL	919	0	5	n/a	n/a	n/a	n/a	n/a	n/a
2685119	RECOG_RESP	n/a	LTP256	ltpFR	19	3	n/a	MOTEL	919	0	n/a	n/a	n/a	n/a	n/a	n/a	n/a
2685419	RECOG_CONF	n/a	LTP256	ltpFR	19	3	n/a	MOTEL	919	n/a	5	n/a	n/a	n/a	n/a	n/a	n/a
2687035	RECOG_TARGET	n/a	LTP256	ltpFR	19	3	-1	PERISCOPE	1050	1	5	-1	n/a	n/a	n/a	n/a	n/a
2687729	RECOG_RESP	n/a	LTP256	ltpFR	19	3	-1	PERISCOPE	1050	1	n/a	-1	n/a	n/a	n/a	n/a	n/a
2688129	RECOG_CONF	n/a	LTP256	ltpFR	19	3	-1	PERISCOPE	1050	n/a	5	-1	n/a	n/a	n/a	n/a	n/a
2689680	RECOG_LURE	n/a	LTP256	ltpFR	19	3	n/a	SKIN	1318	0	4	n/a	n/a	n/a	n/a	n/a	n/a
2692289	RECOG_RESP	n/a	LTP256	ltpFR	19	3	n/a	SKIN	1318	0	n/a	n/a	n/a	n/a	n/a	n/a	n/a
2692669	RECOG_CONF	n/a	LTP256	ltpFR	19	3	n/a	SKIN	1318	n/a	4	n/a	n/a	n/a	n/a	n/a	n/a
2694391	RECOG_TARGET	n/a	LTP256	ltpFR	19	3	1	POCKETBOOK	1094	1	5	0	n/a	n/a	n/a	n/a	n/a
2694959	RECOG_RESP	n/a	LTP256	ltpFR	19	3	1	POCKETBOOK	1094	1	n/a	0	n/a	n/a	n/a	n/a	n/a
2695359	RECOG_CONF	n/a	LTP256	ltpFR	19	3	1	POCKETBOOK	1094	n/a	5	0	n/a	n/a	n/a	n/a	n/a
2696886	RECOG_LURE	n/a	LTP256	ltpFR	19	3	n/a	FRAME	600	0	3	n/a	n/a	n/a	n/a	n/a	n/a
2698524	RECOG_RESP	n/a	LTP256	ltpFR	19	3	n/a	FRAME	600	0	n/a	n/a	n/a	n/a	n/a	n/a	n/a
2698849	RECOG_CONF	n/a	LTP256	ltpFR	19	3	n/a	FRAME	600	n/a	3	n/a	n/a	n/a	n/a	n/a	n/a
2700448	RECOG_TARGET	n/a	LTP256	ltpFR	19	3	-1	LOBSTER	837	0	5	-1	n/a	n/a	n/a	n/a	n/a
2701199	RECOG_RESP	n/a	LTP256	ltpFR	19	3	-1	LOBSTER	837	0	n/a	-1	n/a	n/a	n/a	n/a	n/a
2701479	RECOG_CONF	n/a	LTP256	ltpFR	19	3	-1	LOBSTER	837	n/a	5	-1	n/a	n/a	n/a	n/a	n/a
2703161	RECOG_TARGET	n/a	LTP256	ltpFR	19	3	1	TROPHY	1509	1	5	0	n/a	n/a	n/a	n/a	n/a
2703789	RECOG_RESP	n/a	LTP256	ltpFR	19	3	1	TROPHY	1509	1	n/a	0	n/a	n/a	n/a	n/a	n/a
2704209	RECOG_CONF	n/a	LTP256	ltpFR	19	3	1	TROPHY	1509	n/a	5	0	n/a	n/a	n/a	n/a	n/a
2705906	RECOG_TARGET	n/a	LTP256	ltpFR	19	3	-1	LEVER	815	1	2	-1	n/a	n/a	n/a	n/a	n/a
2706619	RECOG_RESP	n/a	LTP256	ltpFR	19	3	-1	LEVER	815	1	n/a	-1	n/a	n/a	n/a	n/a	n/a
2707009	RECOG_CONF	n/a	LTP256	ltpFR	19	3	-1	LEVER	815	n/a	2	-1	n/a	n/a	n/a	n/a	n/a
2708768	RECOG_TARGET	n/a	LTP256	ltpFR	19	3	0	SNAKE	1333	1	4	1	n/a	n/a	n/a	n/a	n/a
2709379	RECOG_RESP	n/a	LTP256	ltpFR	19	3	0	SNAKE	1333	1	n/a	1	n/a	n/a	n/a	n/a	n/a
2709779	RECOG_CONF	n/a	LTP256	ltpFR	19	3	0	SNAKE	1333	n/a	4	1	n/a	n/a	n/a	n/a	n/a
2711332	RECOG_TARGET	n/a	LTP256	ltpFR	19	3	0	DISHWASHER	475	1	5	1	n/a	n/a	n/a	n/a	n/a
2711874	RECOG_RESP	n/a	LTP256	ltpFR	19	3	0	DISHWASHER	475	1	n/a	1	n/a	n/a	n/a	n/a	n/a
2712269	RECOG_CONF	n/a	LTP256	ltpFR	19	3	0	DISHWASHER	475	n/a	5	1	n/a	n/a	n/a	n/a	n/a
2713910	RECOG_TARGET	n/a	LTP256	ltpFR	19	3	1	CRITIC	410	1	5	1	n/a	n/a	n/a	n/a	n/a
2714479	RECOG_RESP	n/a	LTP256	ltpFR	19	3	1	CRITIC	410	1	n/a	1	n/a	n/a	n/a	n/a	n/a
2714879	RECOG_CONF	n/a	LTP256	ltpFR	19	3	1	CRITIC	410	n/a	5	1	n/a	n/a	n/a	n/a	n/a
2716474	RECOG_TARGET	n/a	LTP256	ltpFR	19	3	0	BROOK	177	1	5	1	n/a	n/a	n/a	n/a	n/a
2717079	RECOG_RESP	n/a	LTP256	ltpFR	19	3	0	BROOK	177	1	n/a	1	n/a	n/a	n/a	n/a	n/a
2717489	RECOG_CONF	n/a	LTP256	ltpFR	19	3	0	BROOK	177	n/a	5	1	n/a	n/a	n/a	n/a	n/a
2719170	RECOG_TARGET	n/a	LTP256	ltpFR	19	3	0	LION	827	1	4	1	n/a	n/a	n/a	n/a	n/a
2719869	RECOG_RESP	n/a	LTP256	ltpFR	19	3	0	LION	827	1	n/a	1	n/a	n/a	n/a	n/a	n/a
2720279	RECOG_CONF	n/a	LTP256	ltpFR	19	3	0	LION	827	n/a	4	1	n/a	n/a	n/a	n/a	n/a
2721982	RECOG_LURE	n/a	LTP256	ltpFR	19	3	n/a	STOOL	1386	0	4	n/a	n/a	n/a	n/a	n/a	n/a
2722679	RECOG_RESP	n/a	LTP256	ltpFR	19	3	n/a	STOOL	1386	0	n/a	n/a	n/a	n/a	n/a	n/a	n/a
2722989	RECOG_CONF	n/a	LTP256	ltpFR	19	3	n/a	STOOL	1386	n/a	4	n/a	n/a	n/a	n/a	n/a	n/a
2724728	RECOG_TARGET	n/a	LTP256	ltpFR	19	3	1	LACE	792	1	5	0	n/a	n/a	n/a	n/a	n/a
2725404	RECOG_RESP	n/a	LTP256	ltpFR	19	3	1	LACE	792	1	n/a	0	n/a	n/a	n/a	n/a	n/a
2725789	RECOG_CONF	n/a	LTP256	ltpFR	19	3	1	LACE	792	n/a	5	0	n/a	n/a	n/a	n/a	n/a
2727408	RECOG_TARGET	n/a	LTP256	ltpFR	19	3	1	RUBY	1214	1	5	0	n/a	n/a	n/a	n/a	n/a
2728089	RECOG_RESP	n/a	LTP256	ltpFR	19	3	1	RUBY	1214	1	n/a	0	n/a	n/a	n/a	n/a	n/a
2728489	RECOG_CONF	n/a	LTP256	ltpFR	19	3	1	RUBY	1214	n/a	5	0	n/a	n/a	n/a	n/a	n/a
2731308	REC_START	n/a	LTP256	ltpFR	19	4	n/a	n/a	n/a	n/a	n/a	n/a	n/a	n/a	n/a	n/a	n/a
2731335	RECOG_TARGET	n/a	LTP256	ltpFR	19	4	1	TRAITOR	1495	1	4	1	n/a	n/a	n/a	n/a	n/a
2731948	RECOG_RESP	n/a	LTP256	ltpFR	19	4	1	TRAITOR	1495	1	n/a	1	n/a	n/a	n/a	n/a	n/a
2732318	RECOG_CONF	n/a	LTP256	ltpFR	19	4	1	TRAITOR	1495	n/a	4	1	n/a	n/a	n/a	n/a	n/a
2733814	RECOG_TARGET	n/a	LTP256	ltpFR	19	4	0	SNORKEL	1336	1	5	1	n/a	n/a	n/a	n/a	n/a
2734348	RECOG_RESP	n/a	LTP256	ltpFR	19	4	0	SNORKEL	1336	1	n/a	1	n/a	n/a	n/a	n/a	n/a
2734708	RECOG_CONF	n/a	LTP256	ltpFR	19	4	0	SNORKEL	1336	n/a	5	1	n/a	n/a	n/a	n/a	n/a
2736361	RECOG_TARGET	n/a	LTP256	ltpFR	19	4	1	SEA	1259	1	5	0	n/a	n/a	n/a	n/a	n/a
2736928	RECOG_RESP	n/a	LTP256	ltpFR	19	4	1	SEA	1259	1	n/a	0	n/a	n/a	n/a	n/a	n/a
2737308	RECOG_CONF	n/a	LTP256	ltpFR	19	4	1	SEA	1259	n/a	5	0	n/a	n/a	n/a	n/a	n/a
2738807	RECOG_TARGET	n/a	LTP256	ltpFR	19	4	0	TROUT	1511	1	5	1	n/a	n/a	n/a	n/a	n/a
2739418	RECOG_RESP	n/a	LTP256	ltpFR	19	4	0	TROUT	1511	1	n/a	1	n/a	n/a	n/a	n/a	n/a
2739798	RECOG_CONF	n/a	LTP256	ltpFR	19	4	0	TROUT	1511	n/a	5	1	n/a	n/a	n/a	n/a	n/a
2741404	RECOG_LURE	n/a	LTP256	ltpFR	19	4	n/a	MAYONNAISE	880	0	5	n/a	n/a	n/a	n/a	n/a	n/a
2742043	RECOG_RESP	n/a	LTP256	ltpFR	19	4	n/a	MAYONNAISE	880	0	n/a	n/a	n/a	n/a	n/a	n/a	n/a
2742368	RECOG_CONF	n/a	LTP256	ltpFR	19	4	n/a	MAYONNAISE	880	n/a	5	n/a	n/a	n/a	n/a	n/a	n/a
2744016	RECOG_LURE	n/a	LTP256	ltpFR	19	4	n/a	OPERATOR	979	0	5	n/a	n/a	n/a	n/a	n/a	n/a
2744823	RECOG_RESP	n/a	LTP256	ltpFR	19	4	n/a	OPERATOR	979	0	n/a	n/a	n/a	n/a	n/a	n/a	n/a
2745118	RECOG_CONF	n/a	LTP256	ltpFR	19	4	n/a	OPERATOR	979	n/a	5	n/a	n/a	n/a	n/a	n/a	n/a
2746845	RECOG_TARGET	n/a	LTP256	ltpFR	19	4	0	BAND	78	1	4	1	n/a	n/a	n/a	n/a	n/a
2747588	RECOG_RESP	n/a	LTP256	ltpFR	19	4	0	BAND	78	1	n/a	1	n/a	n/a	n/a	n/a	n/a
2747988	RECOG_CONF	n/a	LTP256	ltpFR	19	4	0	BAND	78	n/a	4	1	n/a	n/a	n/a	n/a	n/a
2749657	RECOG_TARGET	n/a	LTP256	ltpFR	19	4	1	ANTENNA	28	1	5	0	n/a	n/a	n/a	n/a	n/a
2750383	RECOG_RESP	n/a	LTP256	ltpFR	19	4	1	ANTENNA	28	1	n/a	0	n/a	n/a	n/a	n/a	n/a
2750758	RECOG_CONF	n/a	LTP256	ltpFR	19	4	1	ANTENNA	28	n/a	5	0	n/a	n/a	n/a	n/a	n/a
2752321	RECOG_TARGET	n/a	LTP256	ltpFR	19	4	0	WARDROBE	1587	1	5	1	n/a	n/a	n/a	n/a	n/a
2753048	RECOG_RESP	n/a	LTP256	ltpFR	19	4	0	WARDROBE	1587	1	n/a	1	n/a	n/a	n/a	n/a	n/a
2753458	RECOG_CONF	n/a	LTP256	ltpFR	19	4	0	WARDROBE	1587	n/a	5	1	n/a	n/a	n/a	n/a	n/a
2754983	RECOG_TARGET	n/a	LTP256	ltpFR	19	4	0	GOLD	647	1	5	1	n/a	n/a	n/a	n/a	n/a
2755638	RECOG_RESP	n/a	LTP256	ltpFR	19	4	0	GOLD	647	1	n/a	1	n/a	n/a	n/a	n/a	n/a
2756038	RECOG_CONF	n/a	LTP256	ltpFR	19	4	0	GOLD	647	n/a	5	1	n/a	n/a	n/a	n/a	n/a
2757562	RECOG_TARGET	n/a	LTP256	ltpFR	19	4	0	WHEEL	1603	1	5	1	n/a	n/a	n/a	n/a	n/a
2758208	RECOG_RESP	n/a	LTP256	ltpFR	19	4	0	WHEEL	1603	1	n/a	1	n/a	n/a	n/a	n/a	n/a
2758578	RECOG_CONF	n/a	LTP256	ltpFR	19	4	0	WHEEL	1603	n/a	5	1	n/a	n/a	n/a	n/a	n/a
2760176	RECOG_TARGET	n/a	LTP256	ltpFR	19	4	-1	JUG	762	1	5	-1	n/a	n/a	n/a	n/a	n/a
2760698	RECOG_RESP	n/a	LTP256	ltpFR	19	4	-1	JUG	762	1	n/a	-1	n/a	n/a	n/a	n/a	n/a
2761078	RECOG_CONF	n/a	LTP256	ltpFR	19	4	-1	JUG	762	n/a	5	-1	n/a	n/a	n/a	n/a	n/a
2762621	RECOG_TARGET	n/a	LTP256	ltpFR	19	4	-1	PILOT	1070	1	5	-1	n/a	n/a	n/a	n/a	n/a
2763268	RECOG_RESP	n/a	LTP256	ltpFR	19	4	-1	PILOT	1070	1	n/a	-1	n/a	n/a	n/a	n/a	n/a
2763658	RECOG_CONF	n/a	LTP256	ltpFR	19	4	-1	PILOT	1070	n/a	5	-1	n/a	n/a	n/a	n/a	n/a
2765251	RECOG_LURE	n/a	LTP256	ltpFR	19	4	n/a	GERM	632	0	5	n/a	n/a	n/a	n/a	n/a	n/a
2765958	RECOG_RESP	n/a	LTP256	ltpFR	19	4	n/a	GERM	632	0	n/a	n/a	n/a	n/a	n/a	n/a	n/a
2766248	RECOG_CONF	n/a	LTP256	ltpFR	19	4	n/a	GERM	632	n/a	5	n/a	n/a	n/a	n/a	n/a	n/a
2767930	RECOG_LURE	n/a	LTP256	ltpFR	19	4	n/a	TAXI	1438	0	4	n/a	n/a	n/a	n/a	n/a	n/a
2768983	RECOG_RESP	n/a	LTP256	ltpFR	19	4	n/a	TAXI	1438	0	n/a	n/a	n/a	n/a	n/a	n/a	n/a
2769298	RECOG_CONF	n/a	LTP256	ltpFR	19	4	n/a	TAXI	1438	n/a	4	n/a	n/a	n/a	n/a	n/a	n/a
2771010	RECOG_TARGET	n/a	LTP256	ltpFR	19	4	1	EAGLE	512	1	4	1	n/a	n/a	n/a	n/a	n/a
2771638	RECOG_RESP	n/a	LTP256	ltpFR	19	4	1	EAGLE	512	1	n/a	1	n/a	n/a	n/a	n/a	n/a
2772028	RECOG_CONF	n/a	LTP256	ltpFR	19	4	1	EAGLE	512	n/a	4	1	n/a	n/a	n/a	n/a	n/a
2773638	RECOG_TARGET	n/a	LTP256	ltpFR	19	4	1	POPE	1105	1	5	1	n/a	n/a	n/a	n/a	n/a
2774243	RECOG_RESP	n/a	LTP256	ltpFR	19	4	1	POPE	1105	1	n/a	1	n/a	n/a	n/a	n/a	n/a
2774598	RECOG_CONF	n/a	LTP256	ltpFR	19	4	1	POPE	1105	n/a	5	1	n/a	n/a	n/a	n/a	n/a
2776168	RECOG_TARGET	n/a	LTP256	ltpFR	19	4	1	TURTLE	1522	1	5	1	n/a	n/a	n/a	n/a	n/a
2776708	RECOG_RESP	n/a	LTP256	ltpFR	19	4	1	TURTLE	1522	1	n/a	1	n/a	n/a	n/a	n/a	n/a
2777078	RECOG_CONF	n/a	LTP256	ltpFR	19	4	1	TURTLE	1522	n/a	5	1	n/a	n/a	n/a	n/a	n/a
2778680	RECOG_TARGET	n/a	LTP256	ltpFR	19	4	0	BANKER	84	1	5	1	n/a	n/a	n/a	n/a	n/a
2779328	RECOG_RESP	n/a	LTP256	ltpFR	19	4	0	BANKER	84	1	n/a	1	n/a	n/a	n/a	n/a	n/a
2779668	RECOG_CONF	n/a	LTP256	ltpFR	19	4	0	BANKER	84	n/a	5	1	n/a	n/a	n/a	n/a	n/a
2781327	RECOG_TARGET	n/a	LTP256	ltpFR	19	4	-1	STOMACH	1384	1	5	-1	n/a	n/a	n/a	n/a	n/a
2781893	RECOG_RESP	n/a	LTP256	ltpFR	19	4	-1	STOMACH	1384	1	n/a	-1	n/a	n/a	n/a	n/a	n/a
2782278	RECOG_CONF	n/a	LTP256	ltpFR	19	4	-1	STOMACH	1384	n/a	5	-1	n/a	n/a	n/a	n/a	n/a
2785191	REC_START	n/a	LTP256	ltpFR	19	5	n/a	n/a	n/a	n/a	n/a	n/a	n/a	n/a	n/a	n/a	n/a
2785222	RECOG_TARGET	n/a	LTP256	ltpFR	19	5	0	FOREST	593	1	5	1	n/a	n/a	n/a	n/a	n/a
2785926	RECOG_RESP	n/a	LTP256	ltpFR	19	5	0	FOREST	593	1	n/a	1	n/a	n/a	n/a	n/a	n/a
2786321	RECOG_CONF	n/a	LTP256	ltpFR	19	5	0	FOREST	593	n/a	5	1	n/a	n/a	n/a	n/a	n/a
2788017	RECOG_TARGET	n/a	LTP256	ltpFR	19	5	1	FIREMAN	569	1	5	1	n/a	n/a	n/a	n/a	n/a
2788571	RECOG_RESP	n/a	LTP256	ltpFR	19	5	1	FIREMAN	569	1	n/a	1	n/a	n/a	n/a	n/a	n/a
2788991	RECOG_CONF	n/a	LTP256	ltpFR	19	5	1	FIREMAN	569	n/a	5	1	n/a	n/a	n/a	n/a	n/a
2790547	RECOG_TARGET	n/a	LTP256	ltpFR	19	5	0	BRUSH	182	1	5	0	n/a	n/a	n/a	n/a	n/a
2791141	RECOG_RESP	n/a	LTP256	ltpFR	19	5	0	BRUSH	182	1	n/a	0	n/a	n/a	n/a	n/a	n/a
2791551	RECOG_CONF	n/a	LTP256	ltpFR	19	5	0	BRUSH	182	n/a	5	0	n/a	n/a	n/a	n/a	n/a
2793143	RECOG_TARGET	n/a	LTP256	ltpFR	19	5	0	PICNIC	1060	1	5	1	n/a	n/a	n/a	n/a	n/a
2793796	RECOG_RESP	n/a	LTP256	ltpFR	19	5	0	PICNIC	1060	1	n/a	1	n/a	n/a	n/a	n/a	n/a
2794211	RECOG_CONF	n/a	LTP256	ltpFR	19	5	0	PICNIC	1060	n/a	5	1	n/a	n/a	n/a	n/a	n/a
2795755	RECOG_TARGET	n/a	LTP256	ltpFR	19	5	-1	RUST	1219	0	1	-1	n/a	n/a	n/a	n/a	n/a
2796411	RECOG_RESP	n/a	LTP256	ltpFR	19	5	-1	RUST	1219	0	n/a	-1	n/a	n/a	n/a	n/a	n/a
2797761	RECOG_CONF	n/a	LTP256	ltpFR	19	5	-1	RUST	1219	n/a	1	-1	n/a	n/a	n/a	n/a	n/a
2799500	RECOG_TARGET	n/a	LTP256	ltpFR	19	5	-1	BAY	102	1	5	-1	n/a	n/a	n/a	n/a	n/a
2800136	RECOG_RESP	n/a	LTP256	ltpFR	19	5	-1	BAY	102	1	n/a	-1	n/a	n/a	n/a	n/a	n/a
2800511	RECOG_CONF	n/a	LTP256	ltpFR	19	5	-1	BAY	102	n/a	5	-1	n/a	n/a	n/a	n/a	n/a
2801979	RECOG_LURE	n/a	LTP256	ltpFR	19	5	n/a	DIRT	472	0	3	n/a	n/a	n/a	n/a	n/a	n/a
2802891	RECOG_RESP	n/a	LTP256	ltpFR	19	5	n/a	DIRT	472	0	n/a	n/a	n/a	n/a	n/a	n/a	n/a
2803401	RECOG_CONF	n/a	LTP256	ltpFR	19	5	n/a	DIRT	472	n/a	3	n/a	n/a	n/a	n/a	n/a	n/a
2804891	RECOG_LURE	n/a	LTP256	ltpFR	19	5	n/a	BENCH	121	0	4	n/a	n/a	n/a	n/a	n/a	n/a
2805686	RECOG_RESP	n/a	LTP256	ltpFR	19	5	n/a	BENCH	121	0	n/a	n/a	n/a	n/a	n/a	n/a	n/a
2806021	RECOG_CONF	n/a	LTP256	ltpFR	19	5	n/a	BENCH	121	n/a	4	n/a	n/a	n/a	n/a	n/a	n/a
2807571	RECOG_TARGET	n/a	LTP256	ltpFR	19	5	0	HERB	704	1	5	0	n/a	n/a	n/a	n/a	n/a
2808296	RECOG_RESP	n/a	LTP256	ltpFR	19	5	0	HERB	704	1	n/a	0	n/a	n/a	n/a	n/a	n/a
2808721	RECOG_CONF	n/a	LTP256	ltpFR	19	5	0	HERB	704	n/a	5	0	n/a	n/a	n/a	n/a	n/a
2810317	RECOG_TARGET	n/a	LTP256	ltpFR	19	5	0	TURNIP	1521	1	4	0	n/a	n/a	n/a	n/a	n/a
2810986	RECOG_RESP	n/a	LTP256	ltpFR	19	5	0	TURNIP	1521	1	n/a	0	n/a	n/a	n/a	n/a	n/a
2811401	RECOG_CONF	n/a	LTP256	ltpFR	19	5	0	TURNIP	1521	n/a	4	0	n/a	n/a	n/a	n/a	n/a
2813080	RECOG_TARGET	n/a	LTP256	ltpFR	19	5	0	AIRPLANE	12	1	4	1	n/a	n/a	n/a	n/a	n/a
2813841	RECOG_RESP	n/a	LTP256	ltpFR	19	5	0	AIRPLANE	12	1	n/a	1	n/a	n/a	n/a	n/a	n/a
2814221	RECOG_CONF	n/a	LTP256	ltpFR	19	5	0	AIRPLANE	12	n/a	4	1	n/a	n/a	n/a	n/a	n/a
2815659	RECOG_TARGET	n/a	LTP256	ltpFR	19	5	1	FLASK	576	1	4	0	n/a	n/a	n/a	n/a	n/a
2816336	RECOG_RESP	n/a	LTP256	ltpFR	19	5	1	FLASK	576	1	n/a	0	n/a	n/a	n/a	n/a	n/a
2816701	RECOG_CONF	n/a	LTP256	ltpFR	19	5	1	FLASK	576	n/a	4	0	n/a	n/a	n/a	n/a	n/a
2818272	RECOG_TARGET	n/a	LTP256	ltpFR	19	5	-1	DICE	461	1	5	-1	n/a	n/a	n/a	n/a	n/a
2818816	RECOG_RESP	n/a	LTP256	ltpFR	19	5	-1	DICE	461	1	n/a	-1	n/a	n/a	n/a	n/a	n/a
2819141	RECOG_CONF	n/a	LTP256	ltpFR	19	5	-1	DICE	461	n/a	5	-1	n/a	n/a	n/a	n/a	n/a
2821085	RECOG_TARGET	n/a	LTP256	ltpFR	19	5	1	PLANT	1083	1	5	1	n/a	n/a	n/a	n/a	n/a
2822421	RECOG_RESP	n/a	LTP256	ltpFR	19	5	1	PLANT	1083	1	n/a	1	n/a	n/a	n/a	n/a	n/a
2822841	RECOG_CONF	n/a	LTP256	ltpFR	19	5	1	PLANT	1083	n/a	5	1	n/a	n/a	n/a	n/a	n/a
2824430	RECOG_TARGET	n/a	LTP256	ltpFR	19	5	0	SAILOR	1223	1	5	1	n/a	n/a	n/a	n/a	n/a
2826906	RECOG_RESP	n/a	LTP256	ltpFR	19	5	0	SAILOR	1223	1	n/a	1	n/a	n/a	n/a	n/a	n/a
2827641	RECOG_CONF	n/a	LTP256	ltpFR	19	5	0	SAILOR	1223	n/a	5	1	n/a	n/a	n/a	n/a	n/a
2829356	RECOG_LURE	n/a	LTP256	ltpFR	19	5	n/a	QUILL	1150	0	4	n/a	n/a	n/a	n/a	n/a	n/a
2830081	RECOG_RESP	n/a	LTP256	ltpFR	19	5	n/a	QUILL	1150	0	n/a	n/a	n/a	n/a	n/a	n/a	n/a
2830411	RECOG_CONF	n/a	LTP256	ltpFR	19	5	n/a	QUILL	1150	n/a	4	n/a	n/a	n/a	n/a	n/a	n/a
2832118	RECOG_TARGET	n/a	LTP256	ltpFR	19	5	-1	BASEBALL	93	1	5	-1	n/a	n/a	n/a	n/a	n/a
2833091	RECOG_RESP	n/a	LTP256	ltpFR	19	5	-1	BASEBALL	93	1	n/a	-1	n/a	n/a	n/a	n/a	n/a
2833531	RECOG_CONF	n/a	LTP256	ltpFR	19	5	-1	BASEBALL	93	n/a	5	-1	n/a	n/a	n/a	n/a	n/a
2835247	RECOG_TARGET	n/a	LTP256	ltpFR	19	5	1	PAINTER	1004	1	2	1	n/a	n/a	n/a	n/a	n/a
2836026	RECOG_RESP	n/a	LTP256	ltpFR	19	5	1	PAINTER	1004	1	n/a	1	n/a	n/a	n/a	n/a	n/a
2836451	RECOG_CONF	n/a	LTP256	ltpFR	19	5	1	PAINTER	1004	n/a	2	1	n/a	n/a	n/a	n/a	n/a
2838076	RECOG_LURE	n/a	LTP256	ltpFR	19	5	n/a	NOMAD	955	0	5	n/a	n/a	n/a	n/a	n/a	n/a
2838891	RECOG_RESP	n/a	LTP256	ltpFR	19	5	n/a	NOMAD	955	0	n/a	n/a	n/a	n/a	n/a	n/a	n/a
2839221	RECOG_CONF	n/a	LTP256	ltpFR	19	5	n/a	NOMAD	955	n/a	5	n/a	n/a	n/a	n/a	n/a	n/a
2840971	RECOG_TARGET	n/a	LTP256	ltpFR	19	5	1	MOTHER	921	1	5	1	n/a	n/a	n/a	n/a	n/a
2841696	RECOG_RESP	n/a	LTP256	ltpFR	19	5	1	MOTHER	921	1	n/a	1	n/a	n/a	n/a	n/a	n/a
2842081	RECOG_CONF	n/a	LTP256	ltpFR	19	5	1	MOTHER	921	n/a	5	1	n/a	n/a	n/a	n/a	n/a
2845094	REC_START	n/a	LTP256	ltpFR	19	6	n/a	n/a	n/a	n/a	n/a	n/a	n/a	n/a	n/a	n/a	n/a
2845132	RECOG_TARGET	n/a	LTP256	ltpFR	19	6	-1	FIN	566	1	5	-1	n/a	n/a	n/a	n/a	n/a
2845744	RECOG_RESP	n/a	LTP256	ltpFR	19	6	-1	FIN	566	1	n/a	-1	n/a	n/a	n/a	n/a	n/a
2846154	RECOG_CONF	n/a	LTP256	ltpFR	19	6	-1	FIN	566	n/a	5	-1	n/a	n/a	n/a	n/a	n/a
2847711	RECOG_TARGET	n/a	LTP256	ltpFR	19	6	1	BRANCH	168	1	5	0	n/a	n/a	n/a	n/a	n/a
2848204	RECOG_RESP	n/a	LTP256	ltpFR	19	6	1	BRANCH	168	1	n/a	0	n/a	n/a	n/a	n/a	n/a
2848714	RECOG_CONF	n/a	LTP256	ltpFR	19	6	1	BRANCH	168	n/a	5	0	n/a	n/a	n/a	n/a	n/a
2850241	RECOG_TARGET	n/a	LTP256	ltpFR	19	6	1	CITIZEN	312	1	5	1	n/a	n/a	n/a	n/a	n/a
2850754	RECOG_RESP	n/a	LTP256	ltpFR	19	6	1	CITIZEN	312	1	n/a	1	n/a	n/a	n/a	n/a	n/a
2851174	RECOG_CONF	n/a	LTP256	ltpFR	19	6	1	CITIZEN	312	n/a	5	1	n/a	n/a	n/a	n/a	n/a
2852736	RECOG_LURE	n/a	LTP256	ltpFR	19	6	n/a	INFANT	737	0	5	n/a	n/a	n/a	n/a	n/a	n/a
2853319	RECOG_RESP	n/a	LTP256	ltpFR	19	6	n/a	INFANT	737	0	n/a	n/a	n/a	n/a	n/a	n/a	n/a
2853664	RECOG_CONF	n/a	LTP256	ltpFR	19	6	n/a	INFANT	737	n/a	5	n/a	n/a	n/a	n/a	n/a	n/a
2855334	RECOG_TARGET	n/a	LTP256	ltpFR	19	6	-1	RADISH	1158	1	4	-1	n/a	n/a	n/a	n/a	n/a
2855889	RECOG_RESP	n/a	LTP256	ltpFR	19	6	-1	RADISH	1158	1	n/a	-1	n/a	n/a	n/a	n/a	n/a
2856314	RECOG_CONF	n/a	LTP256	ltpFR	19	6	-1	RADISH	1158	n/a	4	-1	n/a	n/a	n/a	n/a	n/a
2858030	RECOG_TARGET	n/a	LTP256	ltpFR	19	6	1	VISITOR	1573	1	5	1	n/a	n/a	n/a	n/a	n/a
2858559	RECOG_RESP	n/a	LTP256	ltpFR	19	6	1	VISITOR	1573	1	n/a	1	n/a	n/a	n/a	n/a	n/a
2858944	RECOG_CONF	n/a	LTP256	ltpFR	19	6	1	VISITOR	1573	n/a	5	1	n/a	n/a	n/a	n/a	n/a
2860625	RECOG_TARGET	n/a	LTP256	ltpFR	19	6	0	ATMOSPHERE	54	1	5	1	n/a	n/a	n/a	n/a	n/a
2861189	RECOG_RESP	n/a	LTP256	ltpFR	19	6	0	ATMOSPHERE	54	1	n/a	1	n/a	n/a	n/a	n/a	n/a
2861594	RECOG_CONF	n/a	LTP256	ltpFR	19	6	0	ATMOSPHERE	54	n/a	5	1	n/a	n/a	n/a	n/a	n/a
2863222	RECOG_TARGET	n/a	LTP256	ltpFR	19	6	0	CELERY	266	1	5	0	n/a	n/a	n/a	n/a	n/a
2863849	RECOG_RESP	n/a	LTP256	ltpFR	19	6	0	CELERY	266	1	n/a	0	n/a	n/a	n/a	n/a	n/a
2864274	RECOG_CONF	n/a	LTP256	ltpFR	19	6	0	CELERY	266	n/a	5	0	n/a	n/a	n/a	n/a	n/a
2865883	RECOG_LURE	n/a	LTP256	ltpFR	19	6	n/a	ADULT	8	0	2	n/a	n/a	n/a	n/a	n/a	n/a
2866754	RECOG_RESP	n/a	LTP256	ltpFR	19	6	n/a	ADULT	8	0	n/a	n/a	n/a	n/a	n/a	n/a	n/a
2867224	RECOG_CONF	n/a	LTP256	ltpFR	19	6	n/a	ADULT	8	n/a	2	n/a	n/a	n/a	n/a	n/a	n/a
2868946	RECOG_TARGET	n/a	LTP256	ltpFR	19	6	0	HEDGE	699	1	3	1	n/a	n/a	n/a	n/a	n/a
2869644	RECOG_RESP	n/a	LTP256	ltpFR	19	6	0	HEDGE	699	1	n/a	1	n/a	n/a	n/a	n/a	n/a
2870054	RECOG_CONF	n/a	LTP256	ltpFR	19	6	0	HEDGE	699	n/a	3	1	n/a	n/a	n/a	n/a	n/a
2871758	RECOG_TARGET	n/a	LTP256	ltpFR	19	6	0	ELEPHANT	523	1	5	1	n/a	n/a	n/a	n/a	n/a
2872364	RECOG_RESP	n/a	LTP256	ltpFR	19	6	0	ELEPHANT	523	1	n/a	1	n/a	n/a	n/a	n/a	n/a
2872764	RECOG_CONF	n/a	LTP256	ltpFR	19	6	0	ELEPHANT	523	n/a	5	1	n/a	n/a	n/a	n/a	n/a
2874405	RECOG_LURE	n/a	LTP256	ltpFR	19	6	n/a	CREEK	404	0	4	n/a	n/a	n/a	n/a	n/a	n/a
2875204	RECOG_RESP	n/a	LTP256	ltpFR	19	6	n/a	CREEK	404	0	n/a	n/a	n/a	n/a	n/a	n/a	n/a
2875574	RECOG_CONF	n/a	LTP256	ltpFR	19	6	n/a	CREEK	404	n/a	4	n/a	n/a	n/a	n/a	n/a	n/a
2877201	RECOG_TARGET	n/a	LTP256	ltpFR	19	6	-1	BARN	89	1	5	-1	n/a	n/a	n/a	n/a	n/a
2877764	RECOG_RESP	n/a	LTP256	ltpFR	19	6	-1	BARN	89	1	n/a	-1	n/a	n/a	n/a	n/a	n/a
2878164	RECOG_CONF	n/a	LTP256	ltpFR	19	6	-1	BARN	89	n/a	5	-1	n/a	n/a	n/a	n/a	n/a
2879630	RECOG_TARGET	n/a	LTP256	ltpFR	19	6	0	LILY	821	1	5	0	n/a	n/a	n/a	n/a	n/a
2880204	RECOG_RESP	n/a	LTP256	ltpFR	19	6	0	LILY	821	1	n/a	0	n/a	n/a	n/a	n/a	n/a
2880604	RECOG_CONF	n/a	LTP256	ltpFR	19	6	0	LILY	821	n/a	5	0	n/a	n/a	n/a	n/a	n/a
2882343	RECOG_TARGET	n/a	LTP256	ltpFR	19	6	1	WHIP	1604	1	5	0	n/a	n/a	n/a	n/a	n/a
2882934	RECOG_RESP	n/a	LTP256	ltpFR	19	6	1	WHIP	1604	1	n/a	0	n/a	n/a	n/a	n/a	n/a
2883294	RECOG_CONF	n/a	LTP256	ltpFR	19	6	1	WHIP	1604	n/a	5	0	n/a	n/a	n/a	n/a	n/a
2884922	RECOG_TARGET	n/a	LTP256	ltpFR	19	6	-1	WALRUS	1585	1	4	-1	n/a	n/a	n/a	n/a	n/a
2885509	RECOG_RESP	n/a	LTP256	ltpFR	19	6	-1	WALRUS	1585	1	n/a	-1	n/a	n/a	n/a	n/a	n/a
2885894	RECOG_CONF	n/a	LTP256	ltpFR	19	6	-1	WALRUS	1585	n/a	4	-1	n/a	n/a	n/a	n/a	n/a
2887386	RECOG_TARGET	n/a	LTP256	ltpFR	19	6	0	CONDUCTOR	362	1	5	1	n/a	n/a	n/a	n/a	n/a
2888029	RECOG_RESP	n/a	LTP256	ltpFR	19	6	0	CONDUCTOR	362	1	n/a	1	n/a	n/a	n/a	n/a	n/a
2888444	RECOG_CONF	n/a	LTP256	ltpFR	19	6	0	CONDUCTOR	362	n/a	5	1	n/a	n/a	n/a	n/a	n/a
2890065	RECOG_TARGET	n/a	LTP256	ltpFR	19	6	0	CREW	406	0	2	1	n/a	n/a	n/a	n/a	n/a
2890954	RECOG_RESP	n/a	LTP256	ltpFR	19	6	0	CREW	406	0	n/a	1	n/a	n/a	n/a	n/a	n/a
2891304	RECOG_CONF	n/a	LTP256	ltpFR	19	6	0	CREW	406	n/a	2	1	n/a	n/a	n/a	n/a	n/a
2892960	RECOG_TARGET	n/a	LTP256	ltpFR	19	6	-1	SCISSORS	1250	1	5	-1	n/a	n/a	n/a	n/a	n/a
2893564	RECOG_RESP	n/a	LTP256	ltpFR	19	6	-1	SCISSORS	1250	1	n/a	-1	n/a	n/a	n/a	n/a	n/a
2893964	RECOG_CONF	n/a	LTP256	ltpFR	19	6	-1	SCISSORS	1250	n/a	5	-1	n/a	n/a	n/a	n/a	n/a
2895589	RECOG_TARGET	n/a	LTP256	ltpFR	19	6	0	SIREN	1310	1	5	1	n/a	n/a	n/a	n/a	n/a
2896154	RECOG_RESP	n/a	LTP256	ltpFR	19	6	0	SIREN	1310	1	n/a	1	n/a	n/a	n/a	n/a	n/a
2896524	RECOG_CONF	n/a	LTP256	ltpFR	19	6	0	SIREN	1310	n/a	5	1	n/a	n/a	n/a	n/a	n/a
2899673	REC_START	n/a	LTP256	ltpFR	19	7	n/a	n/a	n/a	n/a	n/a	n/a	n/a	n/a	n/a	n/a	n/a
2899700	RECOG_TARGET	n/a	LTP256	ltpFR	19	7	1	BANDANNA	80	1	5	0	n/a	n/a	n/a	n/a	n/a
2900283	RECOG_RESP	n/a	LTP256	ltpFR	19	7	1	BANDANNA	80	1	n/a	0	n/a	n/a	n/a	n/a	n/a
2900603	RECOG_CONF	n/a	LTP256	ltpFR	19	7	1	BANDANNA	80	n/a	5	0	n/a	n/a	n/a	n/a	n/a
2902313	RECOG_TARGET	n/a	LTP256	ltpFR	19	7	0	ASIA	46	1	4	1	n/a	n/a	n/a	n/a	n/a
2903423	RECOG_RESP	n/a	LTP256	ltpFR	19	7	0	ASIA	46	1	n/a	1	n/a	n/a	n/a	n/a	n/a
2903833	RECOG_CONF	n/a	LTP256	ltpFR	19	7	0	ASIA	46	n/a	4	1	n/a	n/a	n/a	n/a	n/a
2905409	RECOG_TARGET	n/a	LTP256	ltpFR	19	7	1	DAD	433	1	2	1	n/a	n/a	n/a	n/a	n/a
2906118	RECOG_RESP	n/a	LTP256	ltpFR	19	7	1	DAD	433	1	n/a	1	n/a	n/a	n/a	n/a	n/a
2906483	RECOG_CONF	n/a	LTP256	ltpFR	19	7	1	DAD	433	n/a	2	1	n/a	n/a	n/a	n/a	n/a
2908138	RECOG_LURE	n/a	LTP256	ltpFR	19	7	n/a	ARM	38	0	3	n/a	n/a	n/a	n/a	n/a	n/a
2908858	RECOG_RESP	n/a	LTP256	ltpFR	19	7	n/a	ARM	38	0	n/a	n/a	n/a	n/a	n/a	n/a	n/a
2909193	RECOG_CONF	n/a	LTP256	ltpFR	19	7	n/a	ARM	38	n/a	3	n/a	n/a	n/a	n/a	n/a	n/a
2910950	RECOG_TARGET	n/a	LTP256	ltpFR	19	7	1	VIOLIN	1571	1	4	0	n/a	n/a	n/a	n/a	n/a
2911943	RECOG_RESP	n/a	LTP256	ltpFR	19	7	1	VIOLIN	1571	1	n/a	0	n/a	n/a	n/a	n/a	n/a
2912373	RECOG_CONF	n/a	LTP256	ltpFR	19	7	1	VIOLIN	1571	n/a	4	0	n/a	n/a	n/a	n/a	n/a
2914079	RECOG_TARGET	n/a	LTP256	ltpFR	19	7	0	ROOST	1208	1	4	1	n/a	n/a	n/a	n/a	n/a
2914633	RECOG_RESP	n/a	LTP256	ltpFR	19	7	0	ROOST	1208	1	n/a	1	n/a	n/a	n/a	n/a	n/a
2915073	RECOG_CONF	n/a	LTP256	ltpFR	19	7	0	ROOST	1208	n/a	4	1	n/a	n/a	n/a	n/a	n/a
2916691	RECOG_LURE	n/a	LTP256	ltpFR	19	7	n/a	SALT	1229	0	4	n/a	n/a	n/a	n/a	n/a	n/a
2917353	RECOG_RESP	n/a	LTP256	ltpFR	19	7	n/a	SALT	1229	0	n/a	n/a	n/a	n/a	n/a	n/a	n/a
2917733	RECOG_CONF	n/a	LTP256	ltpFR	19	7	n/a	SALT	1229	n/a	4	n/a	n/a	n/a	n/a	n/a	n/a
2919455	RECOG_TARGET	n/a	LTP256	ltpFR	19	7	1	BOWL	158	1	5	0	n/a	n/a	n/a	n/a	n/a
2920083	RECOG_RESP	n/a	LTP256	ltpFR	19	7	1	BOWL	158	1	n/a	0	n/a	n/a	n/a	n/a	n/a
2920513	RECOG_CONF	n/a	LTP256	ltpFR	19	7	1	BOWL	158	n/a	5	0	n/a	n/a	n/a	n/a	n/a
2922034	RECOG_TARGET	n/a	LTP256	ltpFR	19	7	1	FACE	547	1	5	0	n/a	n/a	n/a	n/a	n/a
2922668	RECOG_RESP	n/a	LTP256	ltpFR	19	7	1	FACE	547	1	n/a	0	n/a	n/a	n/a	n/a	n/a
2923093	RECOG_CONF	n/a	LTP256	ltpFR	19	7	1	FACE	547	n/a	5	0	n/a	n/a	n/a	n/a	n/a
2924679	RECOG_TARGET	n/a	LTP256	ltpFR	19	7	0	HAMPER	682	1	5	1	n/a	n/a	n/a	n/a	n/a
2925258	RECOG_RESP	n/a	LTP256	ltpFR	19	7	0	HAMPER	682	1	n/a	1	n/a	n/a	n/a	n/a	n/a
2925673	RECOG_CONF	n/a	LTP256	ltpFR	19	7	0	HAMPER	682	n/a	5	1	n/a	n/a	n/a	n/a	n/a
2927259	RECOG_LURE	n/a	LTP256	ltpFR	19	7	n/a	PAN	1008	0	4	n/a	n/a	n/a	n/a	n/a	n/a
2928048	RECOG_RESP	n/a	LTP256	ltpFR	19	7	n/a	PAN	1008	0	n/a	n/a	n/a	n/a	n/a	n/a	n/a
2928363	RECOG_CONF	n/a	LTP256	ltpFR	19	7	n/a	PAN	1008	n/a	4	n/a	n/a	n/a	n/a	n/a	n/a
2929971	RECOG_LURE	n/a	LTP256	ltpFR	19	7	n/a	GLASS	639	0	2	n/a	n/a	n/a	n/a	n/a	n/a
2930748	RECOG_RESP	n/a	LTP256	ltpFR	19	7	n/a	GLASS	639	0	n/a	n/a	n/a	n/a	n/a	n/a	n/a
2931203	RECOG_CONF	n/a	LTP256	ltpFR	19	7	n/a	GLASS	639	n/a	2	n/a	n/a	n/a	n/a	n/a	n/a
2932734	RECOG_LURE	n/a	LTP256	ltpFR	19	7	n/a	FENCE	560	0	3	n/a	n/a	n/a	n/a	n/a	n/a
2933723	RECOG_RESP	n/a	LTP256	ltpFR	19	7	n/a	FENCE	560	0	n/a	n/a	n/a	n/a	n/a	n/a	n/a
2934093	RECOG_CONF	n/a	LTP256	ltpFR	19	7	n/a	FENCE	560	n/a	3	n/a	n/a	n/a	n/a	n/a	n/a
2935796	RECOG_TARGET	n/a	LTP256	ltpFR	19	7	1	TEAM	1441	1	5	1	n/a	n/a	n/a	n/a	n/a
2936403	RECOG_RESP	n/a	LTP256	ltpFR	19	7	1	TEAM	1441	1	n/a	1	n/a	n/a	n/a	n/a	n/a
2936813	RECOG_CONF	n/a	LTP256	ltpFR	19	7	1	TEAM	1441	n/a	5	1	n/a	n/a	n/a	n/a	n/a
2938410	RECOG_TARGET	n/a	LTP256	ltpFR	19	7	-1	AIRCRAFT	11	0	4	-1	n/a	n/a	n/a	n/a	n/a
2939133	RECOG_RESP	n/a	LTP256	ltpFR	19	7	-1	AIRCRAFT	11	0	n/a	-1	n/a	n/a	n/a	n/a	n/a
2939483	RECOG_CONF	n/a	LTP256	ltpFR	19	7	-1	AIRCRAFT	11	n/a	4	-1	n/a	n/a	n/a	n/a	n/a
2941139	RECOG_TARGET	n/a	LTP256	ltpFR	19	7	1	APRON	35	1	5	0	n/a	n/a	n/a	n/a	n/a
2942033	RECOG_RESP	n/a	LTP256	ltpFR	19	7	1	APRON	35	1	n/a	0	n/a	n/a	n/a	n/a	n/a
2942433	RECOG_CONF	n/a	LTP256	ltpFR	19	7	1	APRON	35	n/a	5	0	n/a	n/a	n/a	n/a	n/a
2943985	RECOG_TARGET	n/a	LTP256	ltpFR	19	7	-1	NOTEBOOK	959	1	5	-1	n/a	n/a	n/a	n/a	n/a
2944543	RECOG_RESP	n/a	LTP256	ltpFR	19	7	-1	NOTEBOOK	959	1	n/a	-1	n/a	n/a	n/a	n/a	n/a
2944953	RECOG_CONF	n/a	LTP256	ltpFR	19	7	-1	NOTEBOOK	959	n/a	5	-1	n/a	n/a	n/a	n/a	n/a
2946563	RECOG_TARGET	n/a	LTP256	ltpFR	19	7	-1	CLIFF	322	1	5	-1	n/a	n/a	n/a	n/a	n/a
