mstime	trial_type	stim_file	subject	experiment	session	trial	task	item_name	item_num	recog_resp	recog_conf	resp	color_r	color_g	color_b	case	font
0	SESS_START	n/a	LTP067	ltpFR	6	n/a	n/a	n/a	n/a	1	5	n/a	n/a	n/a	n/a	n/a	n/a
63216	WORD	wordpools/wasnorm_wordpool.txt	LTP067	ltpFR	6	1	0	SALESMAN	1225	1	n/a	3	0.422607421875	0.5869140625	0	upper	zerothre.ttf
64839	KEY_MSG	n/a	LTP067	ltpFR	6	1	n/a	n/a	n/a	n/a	n/a	n/a	n/a	n/a	n/a	n/a	n/a
67561	WORD	wordpools/wasnorm_wordpool.txt	LTP067	ltpFR	6	1	0	DASHBOARD	441	n/a	n/a	2	0.422607421875	0.5869140625	0	upper	zerothre.ttf
68385	KEY_MSG	n/a	LTP067	ltpFR	6	1	n/a	n/a	n/a	n/a	n/a	n/a	n/a	n/a	n/a	n/a	n/a
71765	WORD	wordpools/wasnorm_wordpool.txt	LTP067	ltpFR	6	1	0	BUTCHER	203	n/a	n/a	1	0.422607421875	0.5869140625	0	upper	zerothre.ttf
75868	WORD	wordpools/wasnorm_wordpool.txt	LTP067	ltpFR	6	1	1	CRYSTAL	418	n/a	n/a	0	0.57763671875	0.412841796875	1	lower	amplitud.ttf
79772	WORD	wordpools/wasnorm_wordpool.txt	LTP067	ltpFR	6	1	1	BRAIN	165	n/a	n/a	0	0.57763671875	0.412841796875	1	lower	amplitud.ttf
83917	WORD	wordpools/wasnorm_wordpool.txt	LTP067	ltpFR	6	1	1	VILLAIN	1567	n/a	n/a	1	0.57763671875	0.412841796875	1	lower	amplitud.ttf
87763	WORD	wordpools/wasnorm_wordpool.txt	LTP067	ltpFR	6	1	1	CANAL	226	n/a	n/a	0	0.57763671875	0.412841796875	1	lower	amplitud.ttf
91858	WORD	wordpools/wasnorm_wordpool.txt	LTP067	ltpFR	6	1	0	RAG	1160	n/a	n/a	0	0.422607421875	0.5869140625	0	upper	zerothre.ttf
95861	WORD	wordpools/wasnorm_wordpool.txt	LTP067	ltpFR	6	1	0	OUTLAW	989	n/a	n/a	1	0.422607421875	0.5869140625	0	upper	zerothre.ttf
99690	WORD	wordpools/wasnorm_wordpool.txt	LTP067	ltpFR	6	1	1	SCULPTURE	1258	n/a	n/a	0	0.57763671875	0.412841796875	1	lower	amplitud.ttf
103603	WORD	wordpools/wasnorm_wordpool.txt	LTP067	ltpFR	6	1	1	DRAWING	494	n/a	n/a	0	0.57763671875	0.412841796875	1	lower	amplitud.ttf
107723	WORD	wordpools/wasnorm_wordpool.txt	LTP067	ltpFR	6	1	1	SUBMARINE	1398	n/a	n/a	0	0.57763671875	0.412841796875	1	lower	amplitud.ttf
111809	WORD	wordpools/wasnorm_wordpool.txt	LTP067	ltpFR	6	1	1	MARSH	874	n/a	n/a	0	0.57763671875	0.412841796875	1	lower	amplitud.ttf
115804	WORD	wordpools/wasnorm_wordpool.txt	LTP067	ltpFR	6	1	0	TORTOISE	1486	n/a	n/a	1	0.422607421875	0.5869140625	0	upper	zerothre.ttf
119742	WORD	wordpools/wasnorm_wordpool.txt	LTP067	ltpFR	6	1	0	CHAIN	273	n/a	n/a	0	0.422607421875	0.5869140625	0	upper	zerothre.ttf
123929	WORD	wordpools/wasnorm_wordpool.txt	LTP067	ltpFR	6	1	0	COAL	332	n/a	n/a	0	0.422607421875	0.5869140625	0	upper	zerothre.ttf
129814	REC_START	n/a	LTP067	ltpFR	6	1	n/a	n/a	n/a	n/a	n/a	n/a	n/a	n/a	n/a	n/a	n/a
130231	REC_WORD	wordpools/wasnorm_wordpool.txt	LTP067	ltpFR	6	1	0	CHAIN	273	n/a	n/a	0	n/a	n/a	n/a	n/a	n/a
131445	REC_WORD	wordpools/wasnorm_wordpool.txt	LTP067	ltpFR	6	1	0	COAL	332	n/a	n/a	0	n/a	n/a	n/a	n/a	n/a
132203	REC_WORD	wordpools/wasnorm_wordpool.txt	LTP067	ltpFR	6	1	1	MARSH	874	n/a	n/a	0	n/a	n/a	n/a	n/a	n/a
132985	REC_WORD	wordpools/wasnorm_wordpool.txt	LTP067	ltpFR	6	1	1	SUBMARINE	1398	n/a	n/a	0	n/a	n/a	n/a	n/a	n/a
137571	REC_WORD	wordpools/wasnorm_wordpool.txt	LTP067	ltpFR	6	1	0	OUTLAW	989	n/a	n/a	1	n/a	n/a	n/a	n/a	n/a
138285	REC_WORD	wordpools/wasnorm_wordpool.txt	LTP067	ltpFR	6	1	1	SCULPTURE	1258	n/a	n/a	0	n/a	n/a	n/a	n/a	n/a
139637	REC_WORD	wordpools/wasnorm_wordpool.txt	LTP067	ltpFR	6	1	n/a	PAINTING	1005	n/a	n/a	n/a	n/a	n/a	n/a	n/a	n/a
143722	REC_WORD	wordpools/wasnorm_wordpool.txt	LTP067	ltpFR	6	1	0	BUTCHER	203	n/a	n/a	1	n/a	n/a	n/a	n/a	n/a
150681	REC_WORD	wordpools/wasnorm_wordpool.txt	LTP067	ltpFR	6	1	1	BRAIN	165	n/a	n/a	0	n/a	n/a	n/a	n/a	n/a
209637	WORD	wordpools/wasnorm_wordpool.txt	LTP067	ltpFR	6	2	1	RAILROAD	1162	n/a	n/a	0	0.57763671875	0.412841796875	1	lower	amplitud.ttf
213657	WORD	wordpools/wasnorm_wordpool.txt	LTP067	ltpFR	6	2	1	SURVEY	1414	n/a	n/a	0	0.57763671875	0.412841796875	1	lower	amplitud.ttf
217861	WORD	wordpools/wasnorm_wordpool.txt	LTP067	ltpFR	6	2	1	BAKER	71	n/a	n/a	1	0.57763671875	0.412841796875	1	lower	amplitud.ttf
221748	WORD	wordpools/wasnorm_wordpool.txt	LTP067	ltpFR	6	2	1	NOOSE	956	n/a	n/a	0	0.57763671875	0.412841796875	1	lower	amplitud.ttf
225676	WORD	wordpools/wasnorm_wordpool.txt	LTP067	ltpFR	6	2	0	TWINE	1529	n/a	n/a	0	0.422607421875	0.5869140625	0	upper	zerothre.ttf
229655	WORD	wordpools/wasnorm_wordpool.txt	LTP067	ltpFR	6	2	0	ENGINEER	536	n/a	n/a	1	0.422607421875	0.5869140625	0	upper	zerothre.ttf
233542	WORD	wordpools/wasnorm_wordpool.txt	LTP067	ltpFR	6	2	0	TRAIN	1494	n/a	n/a	1	0.422607421875	0.5869140625	0	upper	zerothre.ttf
237488	WORD	wordpools/wasnorm_wordpool.txt	LTP067	ltpFR	6	2	0	TUXEDO	1525	n/a	n/a	1	0.422607421875	0.5869140625	0	upper	zerothre.ttf
241458	WORD	wordpools/wasnorm_wordpool.txt	LTP067	ltpFR	6	2	1	DINNER	468	n/a	n/a	0	0.57763671875	0.412841796875	1	lower	amplitud.ttf
245595	WORD	wordpools/wasnorm_wordpool.txt	LTP067	ltpFR	6	2	1	CABOOSE	214	n/a	n/a	0	0.57763671875	0.412841796875	1	lower	amplitud.ttf
249732	WORD	wordpools/wasnorm_wordpool.txt	LTP067	ltpFR	6	2	0	SEAFOOD	1260	n/a	n/a	1	0.422607421875	0.5869140625	0	upper	zerothre.ttf
253843	WORD	wordpools/wasnorm_wordpool.txt	LTP067	ltpFR	6	2	0	WHALE	1601	n/a	n/a	1	0.422607421875	0.5869140625	0	upper	zerothre.ttf
258005	WORD	wordpools/wasnorm_wordpool.txt	LTP067	ltpFR	6	2	0	MOUTH	926	n/a	n/a	0	0.422607421875	0.5869140625	0	upper	zerothre.ttf
262026	WORD	wordpools/wasnorm_wordpool.txt	LTP067	ltpFR	6	2	0	MATCH	878	n/a	n/a	0	0.422607421875	0.5869140625	0	upper	zerothre.ttf
266063	WORD	wordpools/wasnorm_wordpool.txt	LTP067	ltpFR	6	2	1	CAMEL	223	n/a	n/a	0	0.57763671875	0.412841796875	1	lower	amplitud.ttf
270166	WORD	wordpools/wasnorm_wordpool.txt	LTP067	ltpFR	6	2	1	DIVER	476	n/a	n/a	1	0.57763671875	0.412841796875	1	lower	amplitud.ttf
275718	REC_START	n/a	LTP067	ltpFR	6	2	n/a	n/a	n/a	n/a	n/a	n/a	n/a	n/a	n/a	n/a	n/a
276006	REC_WORD	wordpools/wasnorm_wordpool.txt	LTP067	ltpFR	6	2	1	CAMEL	223	n/a	n/a	0	n/a	n/a	n/a	n/a	n/a
276501	REC_WORD	wordpools/wasnorm_wordpool.txt	LTP067	ltpFR	6	2	1	DIVER	476	n/a	n/a	1	n/a	n/a	n/a	n/a	n/a
277081	REC_WORD	wordpools/wasnorm_wordpool.txt	LTP067	ltpFR	6	2	0	MOUTH	926	n/a	n/a	0	n/a	n/a	n/a	n/a	n/a
277524	REC_WORD	wordpools/wasnorm_wordpool.txt	LTP067	ltpFR	6	2	0	MATCH	878	n/a	n/a	0	n/a	n/a	n/a	n/a	n/a
279854	REC_WORD	wordpools/wasnorm_wordpool.txt	LTP067	ltpFR	6	2	1	CABOOSE	214	n/a	n/a	0	n/a	n/a	n/a	n/a	n/a
280517	REC_WORD	wordpools/wasnorm_wordpool.txt	LTP067	ltpFR	6	2	1	RAILROAD	1162	n/a	n/a	0	n/a	n/a	n/a	n/a	n/a
281230	REC_WORD	wordpools/wasnorm_wordpool.txt	LTP067	ltpFR	6	2	0	TRAIN	1494	n/a	n/a	1	n/a	n/a	n/a	n/a	n/a
282807	REC_WORD	wordpools/wasnorm_wordpool.txt	LTP067	ltpFR	6	2	0	TUXEDO	1525	n/a	n/a	1	n/a	n/a	n/a	n/a	n/a
283685	REC_WORD	wordpools/wasnorm_wordpool.txt	LTP067	ltpFR	6	2	0	SEAFOOD	1260	n/a	n/a	1	n/a	n/a	n/a	n/a	n/a
284353	REC_WORD	wordpools/wasnorm_wordpool.txt	LTP067	ltpFR	6	2	1	DINNER	468	n/a	n/a	0	n/a	n/a	n/a	n/a	n/a
286109	REC_WORD	wordpools/wasnorm_wordpool.txt	LTP067	ltpFR	6	2	0	ENGINEER	536	n/a	n/a	1	n/a	n/a	n/a	n/a	n/a
287166	REC_WORD	wordpools/wasnorm_wordpool.txt	LTP067	ltpFR	6	2	1	NOOSE	956	n/a	n/a	0	n/a	n/a	n/a	n/a	n/a
289008	REC_WORD	wordpools/wasnorm_wordpool.txt	LTP067	ltpFR	6	2	0	TWINE	1529	n/a	n/a	0	n/a	n/a	n/a	n/a	n/a
308767	REC_WORD	wordpools/wasnorm_wordpool.txt	LTP067	ltpFR	6	2	1	CABOOSE	214	n/a	n/a	0	n/a	n/a	n/a	n/a	n/a
314076	REC_WORD	wordpools/wasnorm_wordpool.txt	LTP067	ltpFR	6	2	0	COAL	332	n/a	n/a	0	n/a	n/a	n/a	n/a	n/a
317162	REC_WORD	wordpools/wasnorm_wordpool.txt	LTP067	ltpFR	6	2	0	MOUTH	926	n/a	n/a	0	n/a	n/a	n/a	n/a	n/a
318017	REC_WORD	wordpools/wasnorm_wordpool.txt	LTP067	ltpFR	6	2	n/a	VV	-1	n/a	n/a	n/a	n/a	n/a	n/a	n/a	n/a
345973	REC_WORD	wordpools/wasnorm_wordpool.txt	LTP067	ltpFR	6	2	1	DIVER	476	n/a	n/a	1	n/a	n/a	n/a	n/a	n/a
353876	WORD	wordpools/wasnorm_wordpool.txt	LTP067	ltpFR	6	3	-1	SNACK	1331	n/a	n/a	-1	1.0	1.0	1	upper	Verdana.ttf
357804	WORD	wordpools/wasnorm_wordpool.txt	LTP067	ltpFR	6	3	-1	CASTLE	256	n/a	n/a	-1	1.0	1.0	1	upper	Verdana.ttf
361709	WORD	wordpools/wasnorm_wordpool.txt	LTP067	ltpFR	6	3	-1	SOCK	1339	n/a	n/a	-1	1.0	1.0	1	upper	Verdana.ttf
365530	WORD	wordpools/wasnorm_wordpool.txt	LTP067	ltpFR	6	3	-1	PORCH	1106	n/a	n/a	-1	1.0	1.0	1	upper	Verdana.ttf
369408	WORD	wordpools/wasnorm_wordpool.txt	LTP067	ltpFR	6	3	-1	LEOPARD	812	n/a	n/a	-1	1.0	1.0	1	upper	Verdana.ttf
373379	WORD	wordpools/wasnorm_wordpool.txt	LTP067	ltpFR	6	3	-1	SCALLOP	1242	n/a	n/a	-1	1.0	1.0	1	upper	Verdana.ttf
377491	WORD	wordpools/wasnorm_wordpool.txt	LTP067	ltpFR	6	3	-1	LOBSTER	837	n/a	n/a	-1	1.0	1.0	1	upper	Verdana.ttf
381594	WORD	wordpools/wasnorm_wordpool.txt	LTP067	ltpFR	6	3	-1	POSTAGE	1113	n/a	n/a	-1	1.0	1.0	1	upper	Verdana.ttf
385456	WORD	wordpools/wasnorm_wordpool.txt	LTP067	ltpFR	6	3	-1	PACKAGE	997	n/a	n/a	-1	1.0	1.0	1	upper	Verdana.ttf
389393	WORD	wordpools/wasnorm_wordpool.txt	LTP067	ltpFR	6	3	-1	ROOF	1205	n/a	n/a	-1	1.0	1.0	1	upper	Verdana.ttf
393364	WORD	wordpools/wasnorm_wordpool.txt	LTP067	ltpFR	6	3	-1	OWNER	993	n/a	n/a	-1	1.0	1.0	1	upper	Verdana.ttf
397284	WORD	wordpools/wasnorm_wordpool.txt	LTP067	ltpFR	6	3	-1	PUBLISHER	1137	n/a	n/a	-1	1.0	1.0	1	upper	Verdana.ttf
401329	WORD	wordpools/wasnorm_wordpool.txt	LTP067	ltpFR	6	3	-1	DISC	473	n/a	n/a	-1	1.0	1.0	1	upper	Verdana.ttf
405408	WORD	wordpools/wasnorm_wordpool.txt	LTP067	ltpFR	6	3	-1	TIGER	1467	n/a	n/a	-1	1.0	1.0	1	upper	Verdana.ttf
409520	WORD	wordpools/wasnorm_wordpool.txt	LTP067	ltpFR	6	3	-1	TOWER	1490	n/a	n/a	-1	1.0	1.0	1	upper	Verdana.ttf
413432	WORD	wordpools/wasnorm_wordpool.txt	LTP067	ltpFR	6	3	-1	SAXOPHONE	1240	n/a	n/a	-1	1.0	1.0	1	upper	Verdana.ttf
419151	REC_START	n/a	LTP067	ltpFR	6	3	n/a	n/a	n/a	n/a	n/a	n/a	n/a	n/a	n/a	n/a	n/a
419929	REC_WORD	wordpools/wasnorm_wordpool.txt	LTP067	ltpFR	6	3	-1	TIGER	1467	n/a	n/a	-1	n/a	n/a	n/a	n/a	n/a
420533	REC_WORD	wordpools/wasnorm_wordpool.txt	LTP067	ltpFR	6	3	-1	TOWER	1490	n/a	n/a	-1	n/a	n/a	n/a	n/a	n/a
421051	REC_WORD	wordpools/wasnorm_wordpool.txt	LTP067	ltpFR	6	3	-1	PUBLISHER	1137	n/a	n/a	-1	n/a	n/a	n/a	n/a	n/a
421710	REC_WORD	wordpools/wasnorm_wordpool.txt	LTP067	ltpFR	6	3	-1	DISC	473	n/a	n/a	-1	n/a	n/a	n/a	n/a	n/a
422160	REC_WORD	wordpools/wasnorm_wordpool.txt	LTP067	ltpFR	6	3	-1	SAXOPHONE	1240	n/a	n/a	-1	n/a	n/a	n/a	n/a	n/a
432979	REC_WORD_VV	wordpools/wasnorm_wordpool.txt	LTP067	ltpFR	6	3	n/a	<>	-1	n/a	n/a	n/a	n/a	n/a	n/a	n/a	n/a
438881	REC_WORD_VV	wordpools/wasnorm_wordpool.txt	LTP067	ltpFR	6	3	n/a	<>	-1	n/a	n/a	n/a	n/a	n/a	n/a	n/a	n/a
439881	REC_WORD_VV	wordpools/wasnorm_wordpool.txt	LTP067	ltpFR	6	3	n/a	<>	-1	n/a	n/a	n/a	n/a	n/a	n/a	n/a	n/a
440133	REC_WORD	wordpools/wasnorm_wordpool.txt	LTP067	ltpFR	6	3	-1	LOBSTER	837	n/a	n/a	-1	n/a	n/a	n/a	n/a	n/a
443181	REC_WORD	wordpools/wasnorm_wordpool.txt	LTP067	ltpFR	6	3	0	SEAFOOD	1260	n/a	n/a	1	n/a	n/a	n/a	n/a	n/a
445022	REC_WORD_VV	wordpools/wasnorm_wordpool.txt	LTP067	ltpFR	6	3	n/a	<>	-1	n/a	n/a	n/a	n/a	n/a	n/a	n/a	n/a
447007	REC_WORD	wordpools/wasnorm_wordpool.txt	LTP067	ltpFR	6	3	-1	LEOPARD	812	n/a	n/a	-1	n/a	n/a	n/a	n/a	n/a
457419	REC_WORD_VV	wordpools/wasnorm_wordpool.txt	LTP067	ltpFR	6	3	n/a	<>	-1	n/a	n/a	n/a	n/a	n/a	n/a	n/a	n/a
469357	REC_WORD	wordpools/wasnorm_wordpool.txt	LTP067	ltpFR	6	3	-1	CASTLE	256	n/a	n/a	-1	n/a	n/a	n/a	n/a	n/a
470025	REC_WORD	wordpools/wasnorm_wordpool.txt	LTP067	ltpFR	6	3	-1	PORCH	1106	n/a	n/a	-1	n/a	n/a	n/a	n/a	n/a
471951	REC_WORD	wordpools/wasnorm_wordpool.txt	LTP067	ltpFR	6	3	-1	SNACK	1331	n/a	n/a	-1	n/a	n/a	n/a	n/a	n/a
472424	REC_WORD	wordpools/wasnorm_wordpool.txt	LTP067	ltpFR	6	3	-1	SOCK	1339	n/a	n/a	-1	n/a	n/a	n/a	n/a	n/a
488259	REC_WORD	wordpools/wasnorm_wordpool.txt	LTP067	ltpFR	6	3	0	TORTOISE	1486	n/a	n/a	1	n/a	n/a	n/a	n/a	n/a
497109	WORD	wordpools/wasnorm_wordpool.txt	LTP067	ltpFR	6	4	0	TIDE	1465	n/a	n/a	1	0.422607421875	0.5869140625	0	upper	zerothre.ttf
501063	WORD	wordpools/wasnorm_wordpool.txt	LTP067	ltpFR	6	4	0	OVAL	990	n/a	n/a	0	0.422607421875	0.5869140625	0	upper	zerothre.ttf
505224	WORD	wordpools/wasnorm_wordpool.txt	LTP067	ltpFR	6	4	0	ALMANAC	17	n/a	n/a	1	0.422607421875	0.5869140625	0	upper	zerothre.ttf
509378	WORD	wordpools/wasnorm_wordpool.txt	LTP067	ltpFR	6	4	1	ENCYCLOPEDIA	533	n/a	n/a	0	0.57763671875	0.412841796875	1	lower	amplitud.ttf
513223	WORD	wordpools/wasnorm_wordpool.txt	LTP067	ltpFR	6	4	1	LETTUCE	814	n/a	n/a	0	0.57763671875	0.412841796875	1	lower	amplitud.ttf
517102	WORD	wordpools/wasnorm_wordpool.txt	LTP067	ltpFR	6	4	1	SHERIFF	1284	n/a	n/a	1	0.57763671875	0.412841796875	1	lower	amplitud.ttf
520923	WORD	wordpools/wasnorm_wordpool.txt	LTP067	ltpFR	6	4	1	SEASHORE	1263	n/a	n/a	0	0.57763671875	0.412841796875	1	lower	amplitud.ttf
525076	WORD	wordpools/wasnorm_wordpool.txt	LTP067	ltpFR	6	4	0	CAFE	216	n/a	n/a	1	0.422607421875	0.5869140625	0	upper	zerothre.ttf
529013	WORD	wordpools/wasnorm_wordpool.txt	LTP067	ltpFR	6	4	0	CONVICT	371	n/a	n/a	1	0.422607421875	0.5869140625	0	upper	zerothre.ttf
533150	WORD	wordpools/wasnorm_wordpool.txt	LTP067	ltpFR	6	4	0	SEA	1259	n/a	n/a	1	0.422607421875	0.5869140625	0	upper	zerothre.ttf
536996	WORD	wordpools/wasnorm_wordpool.txt	LTP067	ltpFR	6	4	0	CRAB	397	n/a	n/a	0	0.422607421875	0.5869140625	0	upper	zerothre.ttf
540924	WORD	wordpools/wasnorm_wordpool.txt	LTP067	ltpFR	6	4	0	OFFICER	973	n/a	n/a	1	0.422607421875	0.5869140625	0	upper	zerothre.ttf
545011	WORD	wordpools/wasnorm_wordpool.txt	LTP067	ltpFR	6	4	1	BRUNETTE	181	n/a	n/a	1	0.57763671875	0.412841796875	1	lower	amplitud.ttf
549015	WORD	wordpools/wasnorm_wordpool.txt	LTP067	ltpFR	6	4	1	CARPET	247	n/a	n/a	0	0.57763671875	0.412841796875	1	lower	amplitud.ttf
552852	WORD	wordpools/wasnorm_wordpool.txt	LTP067	ltpFR	6	4	1	WAITER	1580	n/a	n/a	1	0.57763671875	0.412841796875	1	lower	amplitud.ttf
556814	WORD	wordpools/wasnorm_wordpool.txt	LTP067	ltpFR	6	4	1	RICE	1190	n/a	n/a	0	0.57763671875	0.412841796875	1	lower	amplitud.ttf
562833	REC_START	n/a	LTP067	ltpFR	6	4	n/a	n/a	n/a	n/a	n/a	n/a	n/a	n/a	n/a	n/a	n/a
562999	REC_WORD_VV	wordpools/wasnorm_wordpool.txt	LTP067	ltpFR	6	4	n/a	<>	-1	n/a	n/a	n/a	n/a	n/a	n/a	n/a	n/a
563634	REC_WORD	wordpools/wasnorm_wordpool.txt	LTP067	ltpFR	6	4	1	WAITER	1580	n/a	n/a	1	n/a	n/a	n/a	n/a	n/a
564354	REC_WORD	wordpools/wasnorm_wordpool.txt	LTP067	ltpFR	6	4	1	BRUNETTE	181	n/a	n/a	1	n/a	n/a	n/a	n/a	n/a
573653	REC_WORD	wordpools/wasnorm_wordpool.txt	LTP067	ltpFR	6	4	0	CRAB	397	n/a	n/a	0	n/a	n/a	n/a	n/a	n/a
576816	REC_WORD	wordpools/wasnorm_wordpool.txt	LTP067	ltpFR	6	4	0	TIDE	1465	n/a	n/a	1	n/a	n/a	n/a	n/a	n/a
577639	REC_WORD	wordpools/wasnorm_wordpool.txt	LTP067	ltpFR	6	4	0	SEA	1259	n/a	n/a	1	n/a	n/a	n/a	n/a	n/a
578318	REC_WORD	wordpools/wasnorm_wordpool.txt	LTP067	ltpFR	6	4	0	OVAL	990	n/a	n/a	0	n/a	n/a	n/a	n/a	n/a
640833	WORD	wordpools/wasnorm_wordpool.txt	LTP067	ltpFR	6	5	1	KID	775	n/a	n/a	1	0.57763671875	0.412841796875	1	lower	amplitud.ttf
644986	WORD	wordpools/wasnorm_wordpool.txt	LTP067	ltpFR	6	5	1	TULIP	1517	n/a	n/a	1	0.57763671875	0.412841796875	1	lower	amplitud.ttf
648873	WORD	wordpools/wasnorm_wordpool.txt	LTP067	ltpFR	6	5	1	CRICKET	408	n/a	n/a	1	0.57763671875	0.412841796875	1	lower	amplitud.ttf
652860	WORD	wordpools/wasnorm_wordpool.txt	LTP067	ltpFR	6	5	1	WATERFALL	1595	n/a	n/a	0	0.57763671875	0.412841796875	1	lower	amplitud.ttf
656889	WORD	wordpools/wasnorm_wordpool.txt	LTP067	ltpFR	6	5	0	CRATER	400	n/a	n/a	1	0.422607421875	0.5869140625	0	upper	zerothre.ttf
660959	WORD	wordpools/wasnorm_wordpool.txt	LTP067	ltpFR	6	5	0	PIT	1077	n/a	n/a	1	0.422607421875	0.5869140625	0	upper	zerothre.ttf
665029	WORD	wordpools/wasnorm_wordpool.txt	LTP067	ltpFR	6	5	0	COBBLER	335	n/a	n/a	0	0.422607421875	0.5869140625	0	upper	zerothre.ttf
668875	WORD	wordpools/wasnorm_wordpool.txt	LTP067	ltpFR	6	5	0	WHEAT	1602	n/a	n/a	0	0.422607421875	0.5869140625	0	upper	zerothre.ttf
672811	WORD	wordpools/wasnorm_wordpool.txt	LTP067	ltpFR	6	5	1	MAMMAL	861	n/a	n/a	1	0.57763671875	0.412841796875	1	lower	amplitud.ttf
676682	WORD	wordpools/wasnorm_wordpool.txt	LTP067	ltpFR	6	5	1	PORPOISE	1109	n/a	n/a	1	0.57763671875	0.412841796875	1	lower	amplitud.ttf
680669	WORD	wordpools/wasnorm_wordpool.txt	LTP067	ltpFR	6	5	1	FAMILY	550	n/a	n/a	1	0.57763671875	0.412841796875	1	lower	amplitud.ttf
684640	WORD	wordpools/wasnorm_wordpool.txt	LTP067	ltpFR	6	5	1	CHERRY	293	n/a	n/a	0	0.57763671875	0.412841796875	1	lower	amplitud.ttf
688493	WORD	wordpools/wasnorm_wordpool.txt	LTP067	ltpFR	6	5	0	POTATO	1115	n/a	n/a	0	0.422607421875	0.5869140625	0	upper	zerothre.ttf
692381	WORD	wordpools/wasnorm_wordpool.txt	LTP067	ltpFR	6	5	0	HAIL	676	n/a	n/a	0	0.422607421875	0.5869140625	0	upper	zerothre.ttf
696509	WORD	wordpools/wasnorm_wordpool.txt	LTP067	ltpFR	6	5	0	PAIL	1002	n/a	n/a	1	0.422607421875	0.5869140625	0	upper	zerothre.ttf
700638	WORD	wordpools/wasnorm_wordpool.txt	LTP067	ltpFR	6	5	0	COCOON	339	n/a	n/a	0	0.422607421875	0.5869140625	0	upper	zerothre.ttf
706373	REC_START	n/a	LTP067	ltpFR	6	5	n/a	n/a	n/a	n/a	n/a	n/a	n/a	n/a	n/a	n/a	n/a
706753	REC_WORD	wordpools/wasnorm_wordpool.txt	LTP067	ltpFR	6	5	0	HAIL	676	n/a	n/a	0	n/a	n/a	n/a	n/a	n/a
707291	REC_WORD	wordpools/wasnorm_wordpool.txt	LTP067	ltpFR	6	5	0	PAIL	1002	n/a	n/a	1	n/a	n/a	n/a	n/a	n/a
707836	REC_WORD	wordpools/wasnorm_wordpool.txt	LTP067	ltpFR	6	5	0	COCOON	339	n/a	n/a	0	n/a	n/a	n/a	n/a	n/a
711456	REC_WORD	wordpools/wasnorm_wordpool.txt	LTP067	ltpFR	6	5	1	PORPOISE	1109	n/a	n/a	1	n/a	n/a	n/a	n/a	n/a
712196	REC_WORD	wordpools/wasnorm_wordpool.txt	LTP067	ltpFR	6	5	1	MAMMAL	861	n/a	n/a	1	n/a	n/a	n/a	n/a	n/a
715931	REC_WORD	wordpools/wasnorm_wordpool.txt	LTP067	ltpFR	6	5	1	KID	775	n/a	n/a	1	n/a	n/a	n/a	n/a	n/a
716724	REC_WORD	wordpools/wasnorm_wordpool.txt	LTP067	ltpFR	6	5	1	WATERFALL	1595	n/a	n/a	0	n/a	n/a	n/a	n/a	n/a
717557	REC_WORD	wordpools/wasnorm_wordpool.txt	LTP067	ltpFR	6	5	1	CRICKET	408	n/a	n/a	1	n/a	n/a	n/a	n/a	n/a
718387	REC_WORD	wordpools/wasnorm_wordpool.txt	LTP067	ltpFR	6	5	1	TULIP	1517	n/a	n/a	1	n/a	n/a	n/a	n/a	n/a
786595	WORD	wordpools/wasnorm_wordpool.txt	LTP067	ltpFR	6	6	0	DUST	508	n/a	n/a	0	0.422607421875	0.5869140625	0	upper	zerothre.ttf
790482	WORD	wordpools/wasnorm_wordpool.txt	LTP067	ltpFR	6	6	0	ZEBRA	1635	n/a	n/a	1	0.422607421875	0.5869140625	0	upper	zerothre.ttf
794661	WORD	wordpools/wasnorm_wordpool.txt	LTP067	ltpFR	6	6	1	SWIMMER	1420	n/a	n/a	1	0.57763671875	0.412841796875	1	lower	amplitud.ttf
798690	WORD	wordpools/wasnorm_wordpool.txt	LTP067	ltpFR	6	6	1	CLOVE	329	n/a	n/a	0	0.57763671875	0.412841796875	1	lower	amplitud.ttf
802560	WORD	wordpools/wasnorm_wordpool.txt	LTP067	ltpFR	6	6	1	HERB	704	n/a	n/a	0	0.57763671875	0.412841796875	1	lower	amplitud.ttf
806580	WORD	wordpools/wasnorm_wordpool.txt	LTP067	ltpFR	6	6	0	JACKET	747	n/a	n/a	1	0.422607421875	0.5869140625	0	upper	zerothre.ttf
810542	WORD	wordpools/wasnorm_wordpool.txt	LTP067	ltpFR	6	6	0	CAP	236	n/a	n/a	0	0.422607421875	0.5869140625	0	upper	zerothre.ttf
814538	WORD	wordpools/wasnorm_wordpool.txt	LTP067	ltpFR	6	6	0	WAVE	1596	n/a	n/a	1	0.422607421875	0.5869140625	0	upper	zerothre.ttf
818467	WORD	wordpools/wasnorm_wordpool.txt	LTP067	ltpFR	6	6	1	CHIMPANZEE	302	n/a	n/a	1	0.57763671875	0.412841796875	1	lower	amplitud.ttf
822545	WORD	wordpools/wasnorm_wordpool.txt	LTP067	ltpFR	6	6	1	MOTHER	921	n/a	n/a	1	0.57763671875	0.412841796875	1	lower	amplitud.ttf
826457	WORD	wordpools/wasnorm_wordpool.txt	LTP067	ltpFR	6	6	1	EARRING	514	n/a	n/a	0	0.57763671875	0.412841796875	1	lower	amplitud.ttf
830328	WORD	wordpools/wasnorm_wordpool.txt	LTP067	ltpFR	6	6	1	APE	31	n/a	n/a	1	0.57763671875	0.412841796875	1	lower	amplitud.ttf
834414	WORD	wordpools/wasnorm_wordpool.txt	LTP067	ltpFR	6	6	1	DONKEY	484	n/a	n/a	1	0.57763671875	0.412841796875	1	lower	amplitud.ttf
838601	WORD	wordpools/wasnorm_wordpool.txt	LTP067	ltpFR	6	6	0	VET	1560	n/a	n/a	1	0.422607421875	0.5869140625	0	upper	zerothre.ttf
842488	WORD	wordpools/wasnorm_wordpool.txt	LTP067	ltpFR	6	6	0	NECK	939	n/a	n/a	0	0.422607421875	0.5869140625	0	upper	zerothre.ttf
846392	WORD	wordpools/wasnorm_wordpool.txt	LTP067	ltpFR	6	6	0	REEF	1177	n/a	n/a	1	0.422607421875	0.5869140625	0	upper	zerothre.ttf
852319	REC_START	n/a	LTP067	ltpFR	6	6	n/a	n/a	n/a	n/a	n/a	n/a	n/a	n/a	n/a	n/a	n/a
852429	REC_WORD	wordpools/wasnorm_wordpool.txt	LTP067	ltpFR	6	6	0	VET	1560	n/a	n/a	1	n/a	n/a	n/a	n/a	n/a
852992	REC_WORD	wordpools/wasnorm_wordpool.txt	LTP067	ltpFR	6	6	0	REEF	1177	n/a	n/a	1	n/a	n/a	n/a	n/a	n/a
853631	REC_WORD	wordpools/wasnorm_wordpool.txt	LTP067	ltpFR	6	6	1	DONKEY	484	n/a	n/a	1	n/a	n/a	n/a	n/a	n/a
854299	REC_WORD	wordpools/wasnorm_wordpool.txt	LTP067	ltpFR	6	6	1	APE	31	n/a	n/a	1	n/a	n/a	n/a	n/a	n/a
858120	REC_WORD	wordpools/wasnorm_wordpool.txt	LTP067	ltpFR	6	6	1	CHIMPANZEE	302	n/a	n/a	1	n/a	n/a	n/a	n/a	n/a
859120	REC_WORD_VV	wordpools/wasnorm_wordpool.txt	LTP067	ltpFR	6	6	n/a	<>	-1	n/a	n/a	n/a	n/a	n/a	n/a	n/a	n/a
859445	REC_WORD	wordpools/wasnorm_wordpool.txt	LTP067	ltpFR	6	6	0	WAVE	1596	n/a	n/a	1	n/a	n/a	n/a	n/a	n/a
860206	REC_WORD	wordpools/wasnorm_wordpool.txt	LTP067	ltpFR	6	6	n/a	HAT	690	n/a	n/a	n/a	n/a	n/a	n/a	n/a	n/a
860999	REC_WORD	wordpools/wasnorm_wordpool.txt	LTP067	ltpFR	6	6	0	JACKET	747	n/a	n/a	1	n/a	n/a	n/a	n/a	n/a
862151	REC_WORD	wordpools/wasnorm_wordpool.txt	LTP067	ltpFR	6	6	1	MOTHER	921	n/a	n/a	1	n/a	n/a	n/a	n/a	n/a
865708	REC_WORD_VV	wordpools/wasnorm_wordpool.txt	LTP067	ltpFR	6	6	n/a	<>	-1	n/a	n/a	n/a	n/a	n/a	n/a	n/a	n/a
870033	REC_WORD	wordpools/wasnorm_wordpool.txt	LTP067	ltpFR	6	6	0	ZEBRA	1635	n/a	n/a	1	n/a	n/a	n/a	n/a	n/a
870742	REC_WORD	wordpools/wasnorm_wordpool.txt	LTP067	ltpFR	6	6	1	SWIMMER	1420	n/a	n/a	1	n/a	n/a	n/a	n/a	n/a
871450	REC_WORD	wordpools/wasnorm_wordpool.txt	LTP067	ltpFR	6	6	0	DUST	508	n/a	n/a	0	n/a	n/a	n/a	n/a	n/a
931401	WORD	wordpools/wasnorm_wordpool.txt	LTP067	ltpFR	6	7	-1	FOUNTAIN	597	n/a	n/a	-1	1.0	1.0	1	upper	Verdana.ttf
935413	WORD	wordpools/wasnorm_wordpool.txt	LTP067	ltpFR	6	7	-1	SCOTCH	1251	n/a	n/a	-1	1.0	1.0	1	upper	Verdana.ttf
939583	WORD	wordpools/wasnorm_wordpool.txt	LTP067	ltpFR	6	7	-1	DAISY	435	n/a	n/a	-1	1.0	1.0	1	upper	Verdana.ttf
943637	WORD	wordpools/wasnorm_wordpool.txt	LTP067	ltpFR	6	7	-1	BUSH	202	n/a	n/a	-1	1.0	1.0	1	upper	Verdana.ttf
947848	WORD	wordpools/wasnorm_wordpool.txt	LTP067	ltpFR	6	7	-1	DICTATOR	462	n/a	n/a	-1	1.0	1.0	1	upper	Verdana.ttf
951960	WORD	wordpools/wasnorm_wordpool.txt	LTP067	ltpFR	6	7	-1	TOOTHBRUSH	1482	n/a	n/a	-1	1.0	1.0	1	upper	Verdana.ttf
956114	WORD	wordpools/wasnorm_wordpool.txt	LTP067	ltpFR	6	7	-1	SPARROW	1347	n/a	n/a	-1	1.0	1.0	1	upper	Verdana.ttf
960034	WORD	wordpools/wasnorm_wordpool.txt	LTP067	ltpFR	6	7	-1	BOAT	144	n/a	n/a	-1	1.0	1.0	1	upper	Verdana.ttf
963871	WORD	wordpools/wasnorm_wordpool.txt	LTP067	ltpFR	6	7	-1	SKIN	1318	n/a	n/a	-1	1.0	1.0	1	upper	Verdana.ttf
967692	WORD	wordpools/wasnorm_wordpool.txt	LTP067	ltpFR	6	7	-1	STEAM	1375	n/a	n/a	-1	1.0	1.0	1	upper	Verdana.ttf
971546	WORD	wordpools/wasnorm_wordpool.txt	LTP067	ltpFR	6	7	-1	EAGLE	512	n/a	n/a	-1	1.0	1.0	1	upper	Verdana.ttf
975732	WORD	wordpools/wasnorm_wordpool.txt	LTP067	ltpFR	6	7	-1	APPENDAGE	32	n/a	n/a	-1	1.0	1.0	1	upper	Verdana.ttf
979570	WORD	wordpools/wasnorm_wordpool.txt	LTP067	ltpFR	6	7	-1	ANKLE	24	n/a	n/a	-1	1.0	1.0	1	upper	Verdana.ttf
983448	WORD	wordpools/wasnorm_wordpool.txt	LTP067	ltpFR	6	7	-1	INN	739	n/a	n/a	-1	1.0	1.0	1	upper	Verdana.ttf
987660	WORD	wordpools/wasnorm_wordpool.txt	LTP067	ltpFR	6	7	-1	RESORT	1186	n/a	n/a	-1	1.0	1.0	1	upper	Verdana.ttf
991804	WORD	wordpools/wasnorm_wordpool.txt	LTP067	ltpFR	6	7	-1	HOOK	715	n/a	n/a	-1	1.0	1.0	1	upper	Verdana.ttf
997474	REC_START	n/a	LTP067	ltpFR	6	7	n/a	n/a	n/a	n/a	n/a	n/a	n/a	n/a	n/a	n/a	n/a
997609	REC_WORD	wordpools/wasnorm_wordpool.txt	LTP067	ltpFR	6	7	-1	HOOK	715	n/a	n/a	-1	n/a	n/a	n/a	n/a	n/a
998092	REC_WORD	wordpools/wasnorm_wordpool.txt	LTP067	ltpFR	6	7	-1	APPENDAGE	32	n/a	n/a	-1	n/a	n/a	n/a	n/a	n/a
998801	REC_WORD	wordpools/wasnorm_wordpool.txt	LTP067	ltpFR	6	7	-1	ANKLE	24	n/a	n/a	-1	n/a	n/a	n/a	n/a	n/a
999421	REC_WORD	wordpools/wasnorm_wordpool.txt	LTP067	ltpFR	6	7	-1	INN	739	n/a	n/a	-1	n/a	n/a	n/a	n/a	n/a
999983	REC_WORD	wordpools/wasnorm_wordpool.txt	LTP067	ltpFR	6	7	-1	RESORT	1186	n/a	n/a	-1	n/a	n/a	n/a	n/a	n/a
1002517	REC_WORD_VV	wordpools/wasnorm_wordpool.txt	LTP067	ltpFR	6	7	n/a	<>	-1	n/a	n/a	n/a	n/a	n/a	n/a	n/a	n/a
1012984	REC_WORD	wordpools/wasnorm_wordpool.txt	LTP067	ltpFR	6	7	-1	FOUNTAIN	597	n/a	n/a	-1	n/a	n/a	n/a	n/a	n/a
1013807	REC_WORD	wordpools/wasnorm_wordpool.txt	LTP067	ltpFR	6	7	-1	SCOTCH	1251	n/a	n/a	-1	n/a	n/a	n/a	n/a	n/a
1014685	REC_WORD	wordpools/wasnorm_wordpool.txt	LTP067	ltpFR	6	7	1	TULIP	1517	n/a	n/a	1	n/a	n/a	n/a	n/a	n/a
1015498	REC_WORD	wordpools/wasnorm_wordpool.txt	LTP067	ltpFR	6	7	-1	BUSH	202	n/a	n/a	-1	n/a	n/a	n/a	n/a	n/a
1016171	REC_WORD	wordpools/wasnorm_wordpool.txt	LTP067	ltpFR	6	7	-1	SPARROW	1347	n/a	n/a	-1	n/a	n/a	n/a	n/a	n/a
1017096	REC_WORD	wordpools/wasnorm_wordpool.txt	LTP067	ltpFR	6	7	-1	EAGLE	512	n/a	n/a	-1	n/a	n/a	n/a	n/a	n/a
1017673	REC_WORD	wordpools/wasnorm_wordpool.txt	LTP067	ltpFR	6	7	-1	SKIN	1318	n/a	n/a	-1	n/a	n/a	n/a	n/a	n/a
1018885	REC_WORD	wordpools/wasnorm_wordpool.txt	LTP067	ltpFR	6	7	-1	STEAM	1375	n/a	n/a	-1	n/a	n/a	n/a	n/a	n/a
1021260	REC_WORD	wordpools/wasnorm_wordpool.txt	LTP067	ltpFR	6	7	-1	BOAT	144	n/a	n/a	-1	n/a	n/a	n/a	n/a	n/a
1028224	REC_WORD	wordpools/wasnorm_wordpool.txt	LTP067	ltpFR	6	7	-1	TOOTHBRUSH	1482	n/a	n/a	-1	n/a	n/a	n/a	n/a	n/a
1028972	REC_WORD	wordpools/wasnorm_wordpool.txt	LTP067	ltpFR	6	7	-1	DICTATOR	462	n/a	n/a	-1	n/a	n/a	n/a	n/a	n/a
1043085	REC_WORD	wordpools/wasnorm_wordpool.txt	LTP067	ltpFR	6	7	-1	DAISY	435	n/a	n/a	-1	n/a	n/a	n/a	n/a	n/a
1081334	WORD	wordpools/wasnorm_wordpool.txt	LTP067	ltpFR	6	8	-1	BUTTON	207	n/a	n/a	-1	1.0	1.0	1	upper	Verdana.ttf
1085463	WORD	wordpools/wasnorm_wordpool.txt	LTP067	ltpFR	6	8	-1	QUAIL	1147	n/a	n/a	-1	1.0	1.0	1	upper	Verdana.ttf
1089458	WORD	wordpools/wasnorm_wordpool.txt	LTP067	ltpFR	6	8	-1	CANE	231	n/a	n/a	-1	1.0	1.0	1	upper	Verdana.ttf
1093661	WORD	wordpools/wasnorm_wordpool.txt	LTP067	ltpFR	6	8	-1	IRON	744	n/a	n/a	-1	1.0	1.0	1	upper	Verdana.ttf
1097848	WORD	wordpools/wasnorm_wordpool.txt	LTP067	ltpFR	6	8	-1	OCTOPUS	971	n/a	n/a	-1	1.0	1.0	1	upper	Verdana.ttf
1102051	WORD	wordpools/wasnorm_wordpool.txt	LTP067	ltpFR	6	8	-1	COTTAGE	384	n/a	n/a	-1	1.0	1.0	1	upper	Verdana.ttf
1106038	WORD	wordpools/wasnorm_wordpool.txt	LTP067	ltpFR	6	8	-1	ENGINE	535	n/a	n/a	-1	1.0	1.0	1	upper	Verdana.ttf
1110184	WORD	wordpools/wasnorm_wordpool.txt	LTP067	ltpFR	6	8	-1	FIREMAN	569	n/a	n/a	-1	1.0	1.0	1	upper	Verdana.ttf
1114254	WORD	wordpools/wasnorm_wordpool.txt	LTP067	ltpFR	6	8	-1	NET	946	n/a	n/a	-1	1.0	1.0	1	upper	Verdana.ttf
1118382	WORD	wordpools/wasnorm_wordpool.txt	LTP067	ltpFR	6	8	-1	CONCRETE	361	n/a	n/a	-1	1.0	1.0	1	upper	Verdana.ttf
1122253	WORD	wordpools/wasnorm_wordpool.txt	LTP067	ltpFR	6	8	-1	MANSION	864	n/a	n/a	-1	1.0	1.0	1	upper	Verdana.ttf
1126165	WORD	wordpools/wasnorm_wordpool.txt	LTP067	ltpFR	6	8	-1	CHEF	290	n/a	n/a	-1	1.0	1.0	1	upper	Verdana.ttf
1130185	WORD	wordpools/wasnorm_wordpool.txt	LTP067	ltpFR	6	8	-1	PAN	1008	n/a	n/a	-1	1.0	1.0	1	upper	Verdana.ttf
1134339	WORD	wordpools/wasnorm_wordpool.txt	LTP067	ltpFR	6	8	-1	DIAGRAM	456	n/a	n/a	-1	1.0	1.0	1	upper	Verdana.ttf
1138384	WORD	wordpools/wasnorm_wordpool.txt	LTP067	ltpFR	6	8	-1	COLT	349	n/a	n/a	-1	1.0	1.0	1	upper	Verdana.ttf
1142537	WORD	wordpools/wasnorm_wordpool.txt	LTP067	ltpFR	6	8	-1	RANCH	1166	n/a	n/a	-1	1.0	1.0	1	upper	Verdana.ttf
1148423	REC_START	n/a	LTP067	ltpFR	6	8	n/a	n/a	n/a	n/a	n/a	n/a	n/a	n/a	n/a	n/a	n/a
1148588	REC_WORD	wordpools/wasnorm_wordpool.txt	LTP067	ltpFR	6	8	-1	COLT	349	n/a	n/a	-1	n/a	n/a	n/a	n/a	n/a
1149096	REC_WORD	wordpools/wasnorm_wordpool.txt	LTP067	ltpFR	6	8	-1	RANCH	1166	n/a	n/a	-1	n/a	n/a	n/a	n/a	n/a
1149979	REC_WORD	wordpools/wasnorm_wordpool.txt	LTP067	ltpFR	6	8	-1	CHEF	290	n/a	n/a	-1	n/a	n/a	n/a	n/a	n/a
1150792	REC_WORD	wordpools/wasnorm_wordpool.txt	LTP067	ltpFR	6	8	-1	PAN	1008	n/a	n/a	-1	n/a	n/a	n/a	n/a	n/a
1151890	REC_WORD	wordpools/wasnorm_wordpool.txt	LTP067	ltpFR	6	8	-1	DIAGRAM	456	n/a	n/a	-1	n/a	n/a	n/a	n/a	n/a
1154888	REC_WORD	wordpools/wasnorm_wordpool.txt	LTP067	ltpFR	6	8	-1	CONCRETE	361	n/a	n/a	-1	n/a	n/a	n/a	n/a	n/a
1155721	REC_WORD	wordpools/wasnorm_wordpool.txt	LTP067	ltpFR	6	8	-1	MANSION	864	n/a	n/a	-1	n/a	n/a	n/a	n/a	n/a
1157113	REC_WORD_VV	wordpools/wasnorm_wordpool.txt	LTP067	ltpFR	6	8	n/a	<>	-1	n/a	n/a	n/a	n/a	n/a	n/a	n/a	n/a
1157637	REC_WORD	wordpools/wasnorm_wordpool.txt	LTP067	ltpFR	6	8	-1	NET	946	n/a	n/a	-1	n/a	n/a	n/a	n/a	n/a
1158196	REC_WORD	wordpools/wasnorm_wordpool.txt	LTP067	ltpFR	6	8	-1	FIREMAN	569	n/a	n/a	-1	n/a	n/a	n/a	n/a	n/a
1159697	REC_WORD	wordpools/wasnorm_wordpool.txt	LTP067	ltpFR	6	8	-1	OCTOPUS	971	n/a	n/a	-1	n/a	n/a	n/a	n/a	n/a
1162606	REC_WORD	wordpools/wasnorm_wordpool.txt	LTP067	ltpFR	6	8	-1	COTTAGE	384	n/a	n/a	-1	n/a	n/a	n/a	n/a	n/a
1212168	REC_WORD	wordpools/wasnorm_wordpool.txt	LTP067	ltpFR	6	8	-1	QUAIL	1147	n/a	n/a	-1	n/a	n/a	n/a	n/a	n/a
1212592	REC_WORD	wordpools/wasnorm_wordpool.txt	LTP067	ltpFR	6	8	-1	BUTTON	207	n/a	n/a	-1	n/a	n/a	n/a	n/a	n/a
1214293	REC_WORD	wordpools/wasnorm_wordpool.txt	LTP067	ltpFR	6	8	-1	CANE	231	n/a	n/a	-1	n/a	n/a	n/a	n/a	n/a
1215256	REC_WORD	wordpools/wasnorm_wordpool.txt	LTP067	ltpFR	6	8	-1	IRON	744	n/a	n/a	-1	n/a	n/a	n/a	n/a	n/a
1226539	WORD	wordpools/wasnorm_wordpool.txt	LTP067	ltpFR	6	9	0	MITTEN	902	n/a	n/a	0	0.422607421875	0.5869140625	0	upper	zerothre.ttf
1230551	WORD	wordpools/wasnorm_wordpool.txt	LTP067	ltpFR	6	9	0	FUR	615	n/a	n/a	0	0.422607421875	0.5869140625	0	upper	zerothre.ttf
1234571	WORD	wordpools/wasnorm_wordpool.txt	LTP067	ltpFR	6	9	0	HORIZON	717	n/a	n/a	1	0.422607421875	0.5869140625	0	upper	zerothre.ttf
1238384	WORD	wordpools/wasnorm_wordpool.txt	LTP067	ltpFR	6	9	0	DRESS	495	n/a	n/a	1	0.422607421875	0.5869140625	0	upper	zerothre.ttf
1242387	WORD	wordpools/wasnorm_wordpool.txt	LTP067	ltpFR	6	9	0	DWARF	510	n/a	n/a	1	0.422607421875	0.5869140625	0	upper	zerothre.ttf
1246324	WORD	wordpools/wasnorm_wordpool.txt	LTP067	ltpFR	6	9	0	LONDON	843	n/a	n/a	1	0.422607421875	0.5869140625	0	upper	zerothre.ttf
1250361	WORD	wordpools/wasnorm_wordpool.txt	LTP067	ltpFR	6	9	0	DANCER	437	n/a	n/a	1	0.422607421875	0.5869140625	0	upper	zerothre.ttf
1254515	WORD	wordpools/wasnorm_wordpool.txt	LTP067	ltpFR	6	9	0	SUN	1406	n/a	n/a	1	0.422607421875	0.5869140625	0	upper	zerothre.ttf
1258702	WORD	wordpools/wasnorm_wordpool.txt	LTP067	ltpFR	6	9	0	PASTRY	1022	n/a	n/a	0	0.422607421875	0.5869140625	0	upper	zerothre.ttf
1262897	WORD	wordpools/wasnorm_wordpool.txt	LTP067	ltpFR	6	9	0	SYRUP	1425	n/a	n/a	0	0.422607421875	0.5869140625	0	upper	zerothre.ttf
1266800	WORD	wordpools/wasnorm_wordpool.txt	LTP067	ltpFR	6	9	0	SEAGULL	1261	n/a	n/a	1	0.422607421875	0.5869140625	0	upper	zerothre.ttf
1270771	WORD	wordpools/wasnorm_wordpool.txt	LTP067	ltpFR	6	9	0	BELT	120	n/a	n/a	0	0.422607421875	0.5869140625	0	upper	zerothre.ttf
1274883	WORD	wordpools/wasnorm_wordpool.txt	LTP067	ltpFR	6	9	0	BUCKLE	185	n/a	n/a	0	0.422607421875	0.5869140625	0	upper	zerothre.ttf
1278820	WORD	wordpools/wasnorm_wordpool.txt	LTP067	ltpFR	6	9	0	VILLAGE	1566	n/a	n/a	1	0.422607421875	0.5869140625	0	upper	zerothre.ttf
1282740	WORD	wordpools/wasnorm_wordpool.txt	LTP067	ltpFR	6	9	0	SHACK	1273	n/a	n/a	1	0.422607421875	0.5869140625	0	upper	zerothre.ttf
1286586	WORD	wordpools/wasnorm_wordpool.txt	LTP067	ltpFR	6	9	0	TRENCH	1503	n/a	n/a	1	0.422607421875	0.5869140625	0	upper	zerothre.ttf
1292280	REC_START	n/a	LTP067	ltpFR	6	9	n/a	n/a	n/a	n/a	n/a	n/a	n/a	n/a	n/a	n/a	n/a
1292594	REC_WORD_VV	wordpools/wasnorm_wordpool.txt	LTP067	ltpFR	6	9	n/a	<>	-1	n/a	n/a	n/a	n/a	n/a	n/a	n/a	n/a
1293328	REC_WORD	wordpools/wasnorm_wordpool.txt	LTP067	ltpFR	6	9	0	VILLAGE	1566	n/a	n/a	1	n/a	n/a	n/a	n/a	n/a
1293917	REC_WORD	wordpools/wasnorm_wordpool.txt	LTP067	ltpFR	6	9	0	SHACK	1273	n/a	n/a	1	n/a	n/a	n/a	n/a	n/a
1294599	REC_WORD	wordpools/wasnorm_wordpool.txt	LTP067	ltpFR	6	9	0	BELT	120	n/a	n/a	0	n/a	n/a	n/a	n/a	n/a
1295313	REC_WORD	wordpools/wasnorm_wordpool.txt	LTP067	ltpFR	6	9	0	BUCKLE	185	n/a	n/a	0	n/a	n/a	n/a	n/a	n/a
1297951	REC_WORD_VV	wordpools/wasnorm_wordpool.txt	LTP067	ltpFR	6	9	n/a	<>	-1	n/a	n/a	n/a	n/a	n/a	n/a	n/a	n/a
1320462	REC_WORD_VV	wordpools/wasnorm_wordpool.txt	LTP067	ltpFR	6	9	n/a	<>	-1	n/a	n/a	n/a	n/a	n/a	n/a	n/a	n/a
1372527	WORD	wordpools/wasnorm_wordpool.txt	LTP067	ltpFR	6	10	0	SKULL	1320	n/a	n/a	1	0.422607421875	0.5869140625	0	upper	zerothre.ttf
1376647	WORD	wordpools/wasnorm_wordpool.txt	LTP067	ltpFR	6	10	0	LIVER	833	n/a	n/a	0	0.422607421875	0.5869140625	0	upper	zerothre.ttf
1380542	WORD	wordpools/wasnorm_wordpool.txt	LTP067	ltpFR	6	10	0	TICKET	1464	n/a	n/a	1	0.422607421875	0.5869140625	0	upper	zerothre.ttf
1384463	WORD	wordpools/wasnorm_wordpool.txt	LTP067	ltpFR	6	10	0	VACUUM	1543	n/a	n/a	1	0.422607421875	0.5869140625	0	upper	zerothre.ttf
1388325	WORD	wordpools/wasnorm_wordpool.txt	LTP067	ltpFR	6	10	0	FARMER	553	n/a	n/a	1	0.422607421875	0.5869140625	0	upper	zerothre.ttf
1392528	WORD	wordpools/wasnorm_wordpool.txt	LTP067	ltpFR	6	10	0	CRUMB	416	n/a	n/a	0	0.422607421875	0.5869140625	0	upper	zerothre.ttf
1396382	WORD	wordpools/wasnorm_wordpool.txt	LTP067	ltpFR	6	10	0	MICROWAVE	892	n/a	n/a	1	0.422607421875	0.5869140625	0	upper	zerothre.ttf
1400261	WORD	wordpools/wasnorm_wordpool.txt	LTP067	ltpFR	6	10	0	FARM	552	n/a	n/a	1	0.422607421875	0.5869140625	0	upper	zerothre.ttf
1404090	WORD	wordpools/wasnorm_wordpool.txt	LTP067	ltpFR	6	10	0	POPCORN	1104	n/a	n/a	0	0.422607421875	0.5869140625	0	upper	zerothre.ttf
1408243	WORD	wordpools/wasnorm_wordpool.txt	LTP067	ltpFR	6	10	0	SKIRT	1319	n/a	n/a	1	0.422607421875	0.5869140625	0	upper	zerothre.ttf
1412114	WORD	wordpools/wasnorm_wordpool.txt	LTP067	ltpFR	6	10	0	CIGARETTE	309	n/a	n/a	0	0.422607421875	0.5869140625	0	upper	zerothre.ttf
1416134	WORD	wordpools/wasnorm_wordpool.txt	LTP067	ltpFR	6	10	0	ASH	44	n/a	n/a	0	0.422607421875	0.5869140625	0	upper	zerothre.ttf
1420129	WORD	wordpools/wasnorm_wordpool.txt	LTP067	ltpFR	6	10	0	TUTU	1524	n/a	n/a	1	0.422607421875	0.5869140625	0	upper	zerothre.ttf
1424258	WORD	wordpools/wasnorm_wordpool.txt	LTP067	ltpFR	6	10	0	DRYER	503	n/a	n/a	1	0.422607421875	0.5869140625	0	upper	zerothre.ttf
1428353	WORD	wordpools/wasnorm_wordpool.txt	LTP067	ltpFR	6	10	0	UMBRELLA	1534	n/a	n/a	1	0.422607421875	0.5869140625	0	upper	zerothre.ttf
1432515	WORD	wordpools/wasnorm_wordpool.txt	LTP067	ltpFR	6	10	0	PAWN	1030	n/a	n/a	0	0.422607421875	0.5869140625	0	upper	zerothre.ttf
1438475	REC_START	n/a	LTP067	ltpFR	6	10	n/a	n/a	n/a	n/a	n/a	n/a	n/a	n/a	n/a	n/a	n/a
1438911	REC_WORD	wordpools/wasnorm_wordpool.txt	LTP067	ltpFR	6	10	0	PAWN	1030	n/a	n/a	0	n/a	n/a	n/a	n/a	n/a
1439635	REC_WORD	wordpools/wasnorm_wordpool.txt	LTP067	ltpFR	6	10	0	UMBRELLA	1534	n/a	n/a	1	n/a	n/a	n/a	n/a	n/a
1467784	REC_WORD	wordpools/wasnorm_wordpool.txt	LTP067	ltpFR	6	10	0	FARM	552	n/a	n/a	1	n/a	n/a	n/a	n/a	n/a
1468313	REC_WORD	wordpools/wasnorm_wordpool.txt	LTP067	ltpFR	6	10	0	FARMER	553	n/a	n/a	1	n/a	n/a	n/a	n/a	n/a
1468913	REC_WORD	wordpools/wasnorm_wordpool.txt	LTP067	ltpFR	6	10	0	POPCORN	1104	n/a	n/a	0	n/a	n/a	n/a	n/a	n/a
1469561	REC_WORD	wordpools/wasnorm_wordpool.txt	LTP067	ltpFR	6	10	0	CRUMB	416	n/a	n/a	0	n/a	n/a	n/a	n/a	n/a
1469992	REC_WORD	wordpools/wasnorm_wordpool.txt	LTP067	ltpFR	6	10	0	VACUUM	1543	n/a	n/a	1	n/a	n/a	n/a	n/a	n/a
1473271	REC_WORD	wordpools/wasnorm_wordpool.txt	LTP067	ltpFR	6	10	0	SKIRT	1319	n/a	n/a	1	n/a	n/a	n/a	n/a	n/a
1473835	REC_WORD	wordpools/wasnorm_wordpool.txt	LTP067	ltpFR	6	10	0	TUTU	1524	n/a	n/a	1	n/a	n/a	n/a	n/a	n/a
1484455	REC_WORD	wordpools/wasnorm_wordpool.txt	LTP067	ltpFR	6	10	0	MICROWAVE	892	n/a	n/a	1	n/a	n/a	n/a	n/a	n/a
1517499	WORD	wordpools/wasnorm_wordpool.txt	LTP067	ltpFR	6	11	1	WALNUT	1584	n/a	n/a	0	0.57763671875	0.412841796875	1	lower	amplitud.ttf
1521627	WORD	wordpools/wasnorm_wordpool.txt	LTP067	ltpFR	6	11	1	BREAST	171	n/a	n/a	0	0.57763671875	0.412841796875	1	lower	amplitud.ttf
1525706	WORD	wordpools/wasnorm_wordpool.txt	LTP067	ltpFR	6	11	1	SCAPEGOAT	1244	n/a	n/a	0	0.57763671875	0.412841796875	1	lower	amplitud.ttf
1529543	WORD	wordpools/wasnorm_wordpool.txt	LTP067	ltpFR	6	11	1	ISLAND	745	n/a	n/a	0	0.57763671875	0.412841796875	1	lower	amplitud.ttf
1533555	WORD	wordpools/wasnorm_wordpool.txt	LTP067	ltpFR	6	11	1	CITRUS	313	n/a	n/a	0	0.57763671875	0.412841796875	1	lower	amplitud.ttf
1537684	WORD	wordpools/wasnorm_wordpool.txt	LTP067	ltpFR	6	11	1	CARROT	249	n/a	n/a	0	0.57763671875	0.412841796875	1	lower	amplitud.ttf
1541787	WORD	wordpools/wasnorm_wordpool.txt	LTP067	ltpFR	6	11	1	BOTTLE	153	n/a	n/a	0	0.57763671875	0.412841796875	1	lower	amplitud.ttf
1545649	WORD	wordpools/wasnorm_wordpool.txt	LTP067	ltpFR	6	11	1	GOO	648	n/a	n/a	0	0.57763671875	0.412841796875	1	lower	amplitud.ttf
1549545	WORD	wordpools/wasnorm_wordpool.txt	LTP067	ltpFR	6	11	1	LAMP	798	n/a	n/a	0	0.57763671875	0.412841796875	1	lower	amplitud.ttf
1553615	WORD	wordpools/wasnorm_wordpool.txt	LTP067	ltpFR	6	11	1	CHEERLEADER	288	n/a	n/a	1	0.57763671875	0.412841796875	1	lower	amplitud.ttf
1557802	WORD	wordpools/wasnorm_wordpool.txt	LTP067	ltpFR	6	11	1	RACCOON	1153	n/a	n/a	1	0.57763671875	0.412841796875	1	lower	amplitud.ttf
1561631	WORD	wordpools/wasnorm_wordpool.txt	LTP067	ltpFR	6	11	1	JUG	762	n/a	n/a	0	0.57763671875	0.412841796875	1	lower	amplitud.ttf
1565451	WORD	wordpools/wasnorm_wordpool.txt	LTP067	ltpFR	6	11	1	POLITICIAN	1099	n/a	n/a	1	0.57763671875	0.412841796875	1	lower	amplitud.ttf
1569588	WORD	wordpools/wasnorm_wordpool.txt	LTP067	ltpFR	6	11	1	GOVERNOR	651	n/a	n/a	1	0.57763671875	0.412841796875	1	lower	amplitud.ttf
1573716	WORD	wordpools/wasnorm_wordpool.txt	LTP067	ltpFR	6	11	1	JAR	750	n/a	n/a	0	0.57763671875	0.412841796875	1	lower	amplitud.ttf
1577762	WORD	wordpools/wasnorm_wordpool.txt	LTP067	ltpFR	6	11	1	PECAN	1036	n/a	n/a	0	0.57763671875	0.412841796875	1	lower	amplitud.ttf
1583339	REC_START	n/a	LTP067	ltpFR	6	11	n/a	n/a	n/a	n/a	n/a	n/a	n/a	n/a	n/a	n/a	n/a
1583803	REC_WORD	wordpools/wasnorm_wordpool.txt	LTP067	ltpFR	6	11	1	PECAN	1036	n/a	n/a	0	n/a	n/a	n/a	n/a	n/a
1584491	REC_WORD	wordpools/wasnorm_wordpool.txt	LTP067	ltpFR	6	11	1	WALNUT	1584	n/a	n/a	0	n/a	n/a	n/a	n/a	n/a
1585000	REC_WORD	wordpools/wasnorm_wordpool.txt	LTP067	ltpFR	6	11	1	CARROT	249	n/a	n/a	0	n/a	n/a	n/a	n/a	n/a
1586292	REC_WORD	wordpools/wasnorm_wordpool.txt	LTP067	ltpFR	6	11	1	JUG	762	n/a	n/a	0	n/a	n/a	n/a	n/a	n/a
1590737	REC_WORD	wordpools/wasnorm_wordpool.txt	LTP067	ltpFR	6	11	1	JAR	750	n/a	n/a	0	n/a	n/a	n/a	n/a	n/a
1593045	REC_WORD	wordpools/wasnorm_wordpool.txt	LTP067	ltpFR	6	11	1	POLITICIAN	1099	n/a	n/a	1	n/a	n/a	n/a	n/a	n/a
1593730	REC_WORD	wordpools/wasnorm_wordpool.txt	LTP067	ltpFR	6	11	1	GOVERNOR	651	n/a	n/a	1	n/a	n/a	n/a	n/a	n/a
1594698	REC_WORD	wordpools/wasnorm_wordpool.txt	LTP067	ltpFR	6	11	1	CHEERLEADER	288	n/a	n/a	1	n/a	n/a	n/a	n/a	n/a
1597601	REC_WORD	wordpools/wasnorm_wordpool.txt	LTP067	ltpFR	6	11	1	CITRUS	313	n/a	n/a	0	n/a	n/a	n/a	n/a	n/a
1598261	REC_WORD	wordpools/wasnorm_wordpool.txt	LTP067	ltpFR	6	11	1	BREAST	171	n/a	n/a	0	n/a	n/a	n/a	n/a	n/a
1601398	REC_WORD	wordpools/wasnorm_wordpool.txt	LTP067	ltpFR	6	11	1	ISLAND	745	n/a	n/a	0	n/a	n/a	n/a	n/a	n/a
1602515	REC_WORD	wordpools/wasnorm_wordpool.txt	LTP067	ltpFR	6	11	1	SCAPEGOAT	1244	n/a	n/a	0	n/a	n/a	n/a	n/a	n/a
1607225	REC_WORD	wordpools/wasnorm_wordpool.txt	LTP067	ltpFR	6	11	1	GOO	648	n/a	n/a	0	n/a	n/a	n/a	n/a	n/a
1612902	REC_WORD	wordpools/wasnorm_wordpool.txt	LTP067	ltpFR	6	11	1	BOTTLE	153	n/a	n/a	0	n/a	n/a	n/a	n/a	n/a
1617102	REC_WORD	wordpools/wasnorm_wordpool.txt	LTP067	ltpFR	6	11	1	RACCOON	1153	n/a	n/a	1	n/a	n/a	n/a	n/a	n/a
1661639	WORD	wordpools/wasnorm_wordpool.txt	LTP067	ltpFR	6	12	-1	BLACKBOARD	133	n/a	n/a	-1	1.0	1.0	1	upper	Verdana.ttf
1665817	WORD	wordpools/wasnorm_wordpool.txt	LTP067	ltpFR	6	12	-1	BROCCOLI	176	n/a	n/a	-1	1.0	1.0	1	upper	Verdana.ttf
1669804	WORD	wordpools/wasnorm_wordpool.txt	LTP067	ltpFR	6	12	-1	ELK	526	n/a	n/a	-1	1.0	1.0	1	upper	Verdana.ttf
1673724	WORD	wordpools/wasnorm_wordpool.txt	LTP067	ltpFR	6	12	-1	OTTER	986	n/a	n/a	-1	1.0	1.0	1	upper	Verdana.ttf
1677828	WORD	wordpools/wasnorm_wordpool.txt	LTP067	ltpFR	6	12	-1	TYPEWRITER	1531	n/a	n/a	-1	1.0	1.0	1	upper	Verdana.ttf
1681648	WORD	wordpools/wasnorm_wordpool.txt	LTP067	ltpFR	6	12	-1	MILDEW	893	n/a	n/a	-1	1.0	1.0	1	upper	Verdana.ttf
1685660	WORD	wordpools/wasnorm_wordpool.txt	LTP067	ltpFR	6	12	-1	VENUS	1557	n/a	n/a	-1	1.0	1.0	1	upper	Verdana.ttf
1689714	WORD	wordpools/wasnorm_wordpool.txt	LTP067	ltpFR	6	12	-1	SATURN	1236	n/a	n/a	-1	1.0	1.0	1	upper	Verdana.ttf
1693551	WORD	wordpools/wasnorm_wordpool.txt	LTP067	ltpFR	6	12	-1	DOORBELL	487	n/a	n/a	-1	1.0	1.0	1	upper	Verdana.ttf
1697455	WORD	wordpools/wasnorm_wordpool.txt	LTP067	ltpFR	6	12	-1	FOLDER	588	n/a	n/a	-1	1.0	1.0	1	upper	Verdana.ttf
1701509	WORD	wordpools/wasnorm_wordpool.txt	LTP067	ltpFR	6	12	-1	CANOE	233	n/a	n/a	-1	1.0	1.0	1	upper	Verdana.ttf
1705446	WORD	wordpools/wasnorm_wordpool.txt	LTP067	ltpFR	6	12	-1	MARINE	869	n/a	n/a	-1	1.0	1.0	1	upper	Verdana.ttf
1709374	WORD	wordpools/wasnorm_wordpool.txt	LTP067	ltpFR	6	12	-1	QUILL	1150	n/a	n/a	-1	1.0	1.0	1	upper	Verdana.ttf
1713278	WORD	wordpools/wasnorm_wordpool.txt	LTP067	ltpFR	6	12	-1	BULLET	194	n/a	n/a	-1	1.0	1.0	1	upper	Verdana.ttf
1717332	WORD	wordpools/wasnorm_wordpool.txt	LTP067	ltpFR	6	12	-1	REPTILE	1185	n/a	n/a	-1	1.0	1.0	1	upper	Verdana.ttf
1721385	WORD	wordpools/wasnorm_wordpool.txt	LTP067	ltpFR	6	12	-1	FLAG	573	n/a	n/a	-1	1.0	1.0	1	upper	Verdana.ttf
1726996	REC_START	n/a	LTP067	ltpFR	6	12	n/a	n/a	n/a	n/a	n/a	n/a	n/a	n/a	n/a	n/a	n/a
1727343	REC_WORD	wordpools/wasnorm_wordpool.txt	LTP067	ltpFR	6	12	-1	FLAG	573	n/a	n/a	-1	n/a	n/a	n/a	n/a	n/a
1728338	REC_WORD	wordpools/wasnorm_wordpool.txt	LTP067	ltpFR	6	12	-1	CANOE	233	n/a	n/a	-1	n/a	n/a	n/a	n/a	n/a
1729236	REC_WORD	wordpools/wasnorm_wordpool.txt	LTP067	ltpFR	6	12	-1	REPTILE	1185	n/a	n/a	-1	n/a	n/a	n/a	n/a	n/a
1730403	REC_WORD	wordpools/wasnorm_wordpool.txt	LTP067	ltpFR	6	12	-1	QUILL	1150	n/a	n/a	-1	n/a	n/a	n/a	n/a	n/a
1731506	REC_WORD	wordpools/wasnorm_wordpool.txt	LTP067	ltpFR	6	12	-1	BULLET	194	n/a	n/a	-1	n/a	n/a	n/a	n/a	n/a
1732069	REC_WORD	wordpools/wasnorm_wordpool.txt	LTP067	ltpFR	6	12	-1	MARINE	869	n/a	n/a	-1	n/a	n/a	n/a	n/a	n/a
1736383	REC_WORD	wordpools/wasnorm_wordpool.txt	LTP067	ltpFR	6	12	-1	OTTER	986	n/a	n/a	-1	n/a	n/a	n/a	n/a	n/a
1737028	REC_WORD	wordpools/wasnorm_wordpool.txt	LTP067	ltpFR	6	12	-1	ELK	526	n/a	n/a	-1	n/a	n/a	n/a	n/a	n/a
1737657	REC_WORD	wordpools/wasnorm_wordpool.txt	LTP067	ltpFR	6	12	-1	BLACKBOARD	133	n/a	n/a	-1	n/a	n/a	n/a	n/a	n/a
1738435	REC_WORD	wordpools/wasnorm_wordpool.txt	LTP067	ltpFR	6	12	-1	TYPEWRITER	1531	n/a	n/a	-1	n/a	n/a	n/a	n/a	n/a
1739423	REC_WORD	wordpools/wasnorm_wordpool.txt	LTP067	ltpFR	6	12	-1	DOORBELL	487	n/a	n/a	-1	n/a	n/a	n/a	n/a	n/a
1740819	REC_WORD	wordpools/wasnorm_wordpool.txt	LTP067	ltpFR	6	12	-1	FOLDER	588	n/a	n/a	-1	n/a	n/a	n/a	n/a	n/a
1747270	REC_WORD	wordpools/wasnorm_wordpool.txt	LTP067	ltpFR	6	12	-1	MILDEW	893	n/a	n/a	-1	n/a	n/a	n/a	n/a	n/a
1748153	REC_WORD	wordpools/wasnorm_wordpool.txt	LTP067	ltpFR	6	12	-1	VENUS	1557	n/a	n/a	-1	n/a	n/a	n/a	n/a	n/a
1748822	REC_WORD	wordpools/wasnorm_wordpool.txt	LTP067	ltpFR	6	12	-1	SATURN	1236	n/a	n/a	-1	n/a	n/a	n/a	n/a	n/a
1802582	REST_REWET	n/a	LTP067	ltpFR	6	12	n/a	n/a	n/a	n/a	n/a	n/a	n/a	n/a	n/a	n/a	n/a
2152032	WORD	wordpools/wasnorm_wordpool.txt	LTP067	ltpFR	6	13	1	PIPE	1073	n/a	n/a	0	0.57763671875	0.412841796875	1	lower	amplitud.ttf
2155844	WORD	wordpools/wasnorm_wordpool.txt	LTP067	ltpFR	6	13	1	DENIM	446	n/a	n/a	0	0.57763671875	0.412841796875	1	lower	amplitud.ttf
2159898	WORD	wordpools/wasnorm_wordpool.txt	LTP067	ltpFR	6	13	1	CHAMPAGNE	278	n/a	n/a	0	0.57763671875	0.412841796875	1	lower	amplitud.ttf
2163876	WORD	wordpools/wasnorm_wordpool.txt	LTP067	ltpFR	6	13	1	MONKEY	911	n/a	n/a	1	0.57763671875	0.412841796875	1	lower	amplitud.ttf
2167938	WORD	wordpools/wasnorm_wordpool.txt	LTP067	ltpFR	6	13	1	GREASE	660	n/a	n/a	0	0.57763671875	0.412841796875	1	lower	amplitud.ttf
2171942	WORD	wordpools/wasnorm_wordpool.txt	LTP067	ltpFR	6	13	1	AUTOMOBILE	62	n/a	n/a	0	0.57763671875	0.412841796875	1	lower	amplitud.ttf
2175762	WORD	wordpools/wasnorm_wordpool.txt	LTP067	ltpFR	6	13	1	TICK	1463	n/a	n/a	0	0.57763671875	0.412841796875	1	lower	amplitud.ttf
2179799	WORD	wordpools/wasnorm_wordpool.txt	LTP067	ltpFR	6	13	1	PAPER	1011	n/a	n/a	0	0.57763671875	0.412841796875	1	lower	amplitud.ttf
2183636	WORD	wordpools/wasnorm_wordpool.txt	LTP067	ltpFR	6	13	1	BLUEBERRY	140	n/a	n/a	0	0.57763671875	0.412841796875	1	lower	amplitud.ttf
2187465	WORD	wordpools/wasnorm_wordpool.txt	LTP067	ltpFR	6	13	1	PASSENGER	1020	n/a	n/a	1	0.57763671875	0.412841796875	1	lower	amplitud.ttf
2191277	WORD	wordpools/wasnorm_wordpool.txt	LTP067	ltpFR	6	13	1	SCROLL	1257	n/a	n/a	n/a	0.57763671875	0.412841796875	1	lower	amplitud.ttf
2194299	SLOW_MSG	n/a	LTP067	ltpFR	6	13	n/a	n/a	n/a	n/a	n/a	n/a	n/a	n/a	n/a	n/a	n/a
2196987	WORD	wordpools/wasnorm_wordpool.txt	LTP067	ltpFR	6	13	1	CASHIER	254	n/a	n/a	1	0.57763671875	0.412841796875	1	lower	amplitud.ttf
2200916	WORD	wordpools/wasnorm_wordpool.txt	LTP067	ltpFR	6	13	1	BANKER	84	n/a	n/a	1	0.57763671875	0.412841796875	1	lower	amplitud.ttf
2205011	WORD	wordpools/wasnorm_wordpool.txt	LTP067	ltpFR	6	13	1	LIME	823	n/a	n/a	0	0.57763671875	0.412841796875	1	lower	amplitud.ttf
2208957	WORD	wordpools/wasnorm_wordpool.txt	LTP067	ltpFR	6	13	1	BOULDER	155	n/a	n/a	0	0.57763671875	0.412841796875	1	lower	amplitud.ttf
2213110	WORD	wordpools/wasnorm_wordpool.txt	LTP067	ltpFR	6	13	1	KIDNEY	776	n/a	n/a	0	0.57763671875	0.412841796875	1	lower	amplitud.ttf
2218996	REC_START	n/a	LTP067	ltpFR	6	13	n/a	n/a	n/a	n/a	n/a	n/a	n/a	n/a	n/a	n/a	n/a
2219558	REC_WORD	wordpools/wasnorm_wordpool.txt	LTP067	ltpFR	6	13	1	KIDNEY	776	n/a	n/a	0	n/a	n/a	n/a	n/a	n/a
2220483	REC_WORD	wordpools/wasnorm_wordpool.txt	LTP067	ltpFR	6	13	1	LIME	823	n/a	n/a	0	n/a	n/a	n/a	n/a	n/a
2221303	REC_WORD	wordpools/wasnorm_wordpool.txt	LTP067	ltpFR	6	13	1	CASHIER	254	n/a	n/a	1	n/a	n/a	n/a	n/a	n/a
2222154	REC_WORD	wordpools/wasnorm_wordpool.txt	LTP067	ltpFR	6	13	1	BANKER	84	n/a	n/a	1	n/a	n/a	n/a	n/a	n/a
2222742	REC_WORD	wordpools/wasnorm_wordpool.txt	LTP067	ltpFR	6	13	1	BOULDER	155	n/a	n/a	0	n/a	n/a	n/a	n/a	n/a
2226584	REC_WORD	wordpools/wasnorm_wordpool.txt	LTP067	ltpFR	6	13	1	GREASE	660	n/a	n/a	0	n/a	n/a	n/a	n/a	n/a
2227392	REC_WORD	wordpools/wasnorm_wordpool.txt	LTP067	ltpFR	6	13	1	AUTOMOBILE	62	n/a	n/a	0	n/a	n/a	n/a	n/a	n/a
2230165	REC_WORD	wordpools/wasnorm_wordpool.txt	LTP067	ltpFR	6	13	1	DENIM	446	n/a	n/a	0	n/a	n/a	n/a	n/a	n/a
2230754	REC_WORD	wordpools/wasnorm_wordpool.txt	LTP067	ltpFR	6	13	1	PIPE	1073	n/a	n/a	0	n/a	n/a	n/a	n/a	n/a
2231387	REC_WORD	wordpools/wasnorm_wordpool.txt	LTP067	ltpFR	6	13	1	MONKEY	911	n/a	n/a	1	n/a	n/a	n/a	n/a	n/a
2232093	REC_WORD	wordpools/wasnorm_wordpool.txt	LTP067	ltpFR	6	13	1	CHAMPAGNE	278	n/a	n/a	0	n/a	n/a	n/a	n/a	n/a
2268289	REC_WORD	wordpools/wasnorm_wordpool.txt	LTP067	ltpFR	6	13	1	CASHIER	254	n/a	n/a	1	n/a	n/a	n/a	n/a	n/a
2272928	REC_WORD	wordpools/wasnorm_wordpool.txt	LTP067	ltpFR	6	13	1	PASSENGER	1020	n/a	n/a	1	n/a	n/a	n/a	n/a	n/a
2274016	REC_WORD	wordpools/wasnorm_wordpool.txt	LTP067	ltpFR	6	13	1	BLUEBERRY	140	n/a	n/a	0	n/a	n/a	n/a	n/a	n/a
2275507	REC_WORD	wordpools/wasnorm_wordpool.txt	LTP067	ltpFR	6	13	1	SCROLL	1257	n/a	n/a	n/a	n/a	n/a	n/a	n/a	n/a
2298402	WORD	wordpools/wasnorm_wordpool.txt	LTP067	ltpFR	6	14	1	TUNNEL	1519	n/a	n/a	0	0.57763671875	0.412841796875	1	lower	amplitud.ttf
2302314	WORD	wordpools/wasnorm_wordpool.txt	LTP067	ltpFR	6	14	1	CAVE	263	n/a	n/a	0	0.57763671875	0.412841796875	1	lower	amplitud.ttf
2306135	WORD	wordpools/wasnorm_wordpool.txt	LTP067	ltpFR	6	14	1	SPIT	1354	n/a	n/a	0	0.57763671875	0.412841796875	1	lower	amplitud.ttf
2310113	WORD	wordpools/wasnorm_wordpool.txt	LTP067	ltpFR	6	14	0	MUSTARD	935	n/a	n/a	0	0.422607421875	0.5869140625	0	upper	zerothre.ttf
2314034	WORD	wordpools/wasnorm_wordpool.txt	LTP067	ltpFR	6	14	0	PARSLEY	1016	n/a	n/a	0	0.422607421875	0.5869140625	0	upper	zerothre.ttf
2317971	WORD	wordpools/wasnorm_wordpool.txt	LTP067	ltpFR	6	14	0	DINOSAUR	469	n/a	n/a	1	0.422607421875	0.5869140625	0	upper	zerothre.ttf
2321783	WORD	wordpools/wasnorm_wordpool.txt	LTP067	ltpFR	6	14	0	KETCHUP	771	n/a	n/a	0	0.422607421875	0.5869140625	0	upper	zerothre.ttf
2325687	WORD	wordpools/wasnorm_wordpool.txt	LTP067	ltpFR	6	14	0	BUNNY	198	n/a	n/a	1	0.422607421875	0.5869140625	0	upper	zerothre.ttf
2329840	WORD	wordpools/wasnorm_wordpool.txt	LTP067	ltpFR	6	14	1	RABBIT	1152	n/a	n/a	3	0.57763671875	0.412841796875	1	lower	amplitud.ttf
2332038	KEY_MSG	n/a	LTP067	ltpFR	6	14	n/a	n/a	n/a	n/a	n/a	n/a	n/a	n/a	n/a	n/a	n/a
2334602	WORD	wordpools/wasnorm_wordpool.txt	LTP067	ltpFR	6	14	1	TURNIP	1521	n/a	n/a	0	0.57763671875	0.412841796875	1	lower	amplitud.ttf
2338472	WORD	wordpools/wasnorm_wordpool.txt	LTP067	ltpFR	6	14	1	SPY	1360	n/a	n/a	1	0.57763671875	0.412841796875	1	lower	amplitud.ttf
2342576	WORD	wordpools/wasnorm_wordpool.txt	LTP067	ltpFR	6	14	0	NURSE	963	n/a	n/a	1	0.422607421875	0.5869140625	0	upper	zerothre.ttf
2346496	WORD	wordpools/wasnorm_wordpool.txt	LTP067	ltpFR	6	14	0	DOLPHIN	483	n/a	n/a	1	0.422607421875	0.5869140625	0	upper	zerothre.ttf
2350533	WORD	wordpools/wasnorm_wordpool.txt	LTP067	ltpFR	6	14	0	TUNA	1518	n/a	n/a	1	0.422607421875	0.5869140625	0	upper	zerothre.ttf
2354520	WORD	wordpools/wasnorm_wordpool.txt	LTP067	ltpFR	6	14	1	BUFFALO	186	n/a	n/a	1	0.57763671875	0.412841796875	1	lower	amplitud.ttf
2358640	WORD	wordpools/wasnorm_wordpool.txt	LTP067	ltpFR	6	14	1	CLOWN	330	n/a	n/a	1	0.57763671875	0.412841796875	1	lower	amplitud.ttf
2364342	REC_START	n/a	LTP067	ltpFR	6	14	n/a	n/a	n/a	n/a	n/a	n/a	n/a	n/a	n/a	n/a	n/a
2364643	REC_WORD	wordpools/wasnorm_wordpool.txt	LTP067	ltpFR	6	14	1	CLOWN	330	n/a	n/a	1	n/a	n/a	n/a	n/a	n/a
2365450	REC_WORD	wordpools/wasnorm_wordpool.txt	LTP067	ltpFR	6	14	1	BUFFALO	186	n/a	n/a	1	n/a	n/a	n/a	n/a	n/a
2366278	REC_WORD	wordpools/wasnorm_wordpool.txt	LTP067	ltpFR	6	14	0	TUNA	1518	n/a	n/a	1	n/a	n/a	n/a	n/a	n/a
2368049	REC_WORD	wordpools/wasnorm_wordpool.txt	LTP067	ltpFR	6	14	0	DOLPHIN	483	n/a	n/a	1	n/a	n/a	n/a	n/a	n/a
2373491	REC_WORD	wordpools/wasnorm_wordpool.txt	LTP067	ltpFR	6	14	1	SPY	1360	n/a	n/a	1	n/a	n/a	n/a	n/a	n/a
2375262	REC_WORD	wordpools/wasnorm_wordpool.txt	LTP067	ltpFR	6	14	0	NURSE	963	n/a	n/a	1	n/a	n/a	n/a	n/a	n/a
2389240	REC_WORD	wordpools/wasnorm_wordpool.txt	LTP067	ltpFR	6	14	0	BUNNY	198	n/a	n/a	1	n/a	n/a	n/a	n/a	n/a
2389712	REC_WORD	wordpools/wasnorm_wordpool.txt	LTP067	ltpFR	6	14	1	RABBIT	1152	n/a	n/a	3	n/a	n/a	n/a	n/a	n/a
2442500	WORD	wordpools/wasnorm_wordpool.txt	LTP067	ltpFR	6	15	1	MANAGER	863	n/a	n/a	1	0.57763671875	0.412841796875	1	lower	amplitud.ttf
2446645	WORD	wordpools/wasnorm_wordpool.txt	LTP067	ltpFR	6	15	1	BARLEY	88	n/a	n/a	0	0.57763671875	0.412841796875	1	lower	amplitud.ttf
2450541	WORD	wordpools/wasnorm_wordpool.txt	LTP067	ltpFR	6	15	1	WALL	1582	n/a	n/a	0	0.57763671875	0.412841796875	1	lower	amplitud.ttf
2454644	WORD	wordpools/wasnorm_wordpool.txt	LTP067	ltpFR	6	15	1	PIN	1072	n/a	n/a	0	0.57763671875	0.412841796875	1	lower	amplitud.ttf
2458756	WORD	wordpools/wasnorm_wordpool.txt	LTP067	ltpFR	6	15	1	PORCUPINE	1107	n/a	n/a	1	0.57763671875	0.412841796875	1	lower	amplitud.ttf
2462685	WORD	wordpools/wasnorm_wordpool.txt	LTP067	ltpFR	6	15	1	GOOSE	649	n/a	n/a	1	0.57763671875	0.412841796875	1	lower	amplitud.ttf
2466830	WORD	wordpools/wasnorm_wordpool.txt	LTP067	ltpFR	6	15	1	LAKE	796	n/a	n/a	0	0.57763671875	0.412841796875	1	lower	amplitud.ttf
2470859	WORD	wordpools/wasnorm_wordpool.txt	LTP067	ltpFR	6	15	1	TAPE	1433	n/a	n/a	0	0.57763671875	0.412841796875	1	lower	amplitud.ttf
2475012	WORD	wordpools/wasnorm_wordpool.txt	LTP067	ltpFR	6	15	1	FRAME	600	n/a	n/a	0	0.57763671875	0.412841796875	1	lower	amplitud.ttf
2478849	WORD	wordpools/wasnorm_wordpool.txt	LTP067	ltpFR	6	15	1	SKI	1316	n/a	n/a	0	0.57763671875	0.412841796875	1	lower	amplitud.ttf
2482911	WORD	wordpools/wasnorm_wordpool.txt	LTP067	ltpFR	6	15	1	BASKETBALL	96	n/a	n/a	0	0.57763671875	0.412841796875	1	lower	amplitud.ttf
2486998	WORD	wordpools/wasnorm_wordpool.txt	LTP067	ltpFR	6	15	1	HOOP	716	n/a	n/a	0	0.57763671875	0.412841796875	1	lower	amplitud.ttf
2491052	WORD	wordpools/wasnorm_wordpool.txt	LTP067	ltpFR	6	15	1	EMPLOYEE	531	n/a	n/a	0	0.57763671875	0.412841796875	1	lower	amplitud.ttf
2495055	WORD	wordpools/wasnorm_wordpool.txt	LTP067	ltpFR	6	15	1	EDITOR	516	n/a	n/a	1	0.57763671875	0.412841796875	1	lower	amplitud.ttf
2499076	WORD	wordpools/wasnorm_wordpool.txt	LTP067	ltpFR	6	15	1	CONDUCTOR	362	n/a	n/a	1	0.57763671875	0.412841796875	1	lower	amplitud.ttf
2502896	WORD	wordpools/wasnorm_wordpool.txt	LTP067	ltpFR	6	15	1	WINDOW	1611	n/a	n/a	0	0.57763671875	0.412841796875	1	lower	amplitud.ttf
2508590	REC_START	n/a	LTP067	ltpFR	6	15	n/a	n/a	n/a	n/a	n/a	n/a	n/a	n/a	n/a	n/a	n/a
2509333	REC_WORD	wordpools/wasnorm_wordpool.txt	LTP067	ltpFR	6	15	1	WINDOW	1611	n/a	n/a	0	n/a	n/a	n/a	n/a	n/a
2510465	REC_WORD	wordpools/wasnorm_wordpool.txt	LTP067	ltpFR	6	15	1	CONDUCTOR	362	n/a	n/a	1	n/a	n/a	n/a	n/a	n/a
2511533	REC_WORD	wordpools/wasnorm_wordpool.txt	LTP067	ltpFR	6	15	1	EMPLOYEE	531	n/a	n/a	0	n/a	n/a	n/a	n/a	n/a
2512591	REC_WORD	wordpools/wasnorm_wordpool.txt	LTP067	ltpFR	6	15	1	BARLEY	88	n/a	n/a	0	n/a	n/a	n/a	n/a	n/a
2513449	REC_WORD	wordpools/wasnorm_wordpool.txt	LTP067	ltpFR	6	15	1	PIN	1072	n/a	n/a	0	n/a	n/a	n/a	n/a	n/a
2514426	REC_WORD	wordpools/wasnorm_wordpool.txt	LTP067	ltpFR	6	15	1	WALL	1582	n/a	n/a	0	n/a	n/a	n/a	n/a	n/a
2515439	REC_WORD	wordpools/wasnorm_wordpool.txt	LTP067	ltpFR	6	15	1	MANAGER	863	n/a	n/a	1	n/a	n/a	n/a	n/a	n/a
2516557	REC_WORD	wordpools/wasnorm_wordpool.txt	LTP067	ltpFR	6	15	1	PORCUPINE	1107	n/a	n/a	1	n/a	n/a	n/a	n/a	n/a
2522034	REC_WORD	wordpools/wasnorm_wordpool.txt	LTP067	ltpFR	6	15	1	GOOSE	649	n/a	n/a	1	n/a	n/a	n/a	n/a	n/a
2524249	REC_WORD	wordpools/wasnorm_wordpool.txt	LTP067	ltpFR	6	15	1	LAKE	796	n/a	n/a	0	n/a	n/a	n/a	n/a	n/a
2525057	REC_WORD	wordpools/wasnorm_wordpool.txt	LTP067	ltpFR	6	15	1	TAPE	1433	n/a	n/a	0	n/a	n/a	n/a	n/a	n/a
2526880	REC_WORD	wordpools/wasnorm_wordpool.txt	LTP067	ltpFR	6	15	1	BASKETBALL	96	n/a	n/a	0	n/a	n/a	n/a	n/a	n/a
2531917	REC_WORD	wordpools/wasnorm_wordpool.txt	LTP067	ltpFR	6	15	1	TAPE	1433	n/a	n/a	0	n/a	n/a	n/a	n/a	n/a
2532360	REC_WORD	wordpools/wasnorm_wordpool.txt	LTP067	ltpFR	6	15	1	BASKETBALL	96	n/a	n/a	0	n/a	n/a	n/a	n/a	n/a
2533131	REC_WORD	wordpools/wasnorm_wordpool.txt	LTP067	ltpFR	6	15	1	FRAME	600	n/a	n/a	0	n/a	n/a	n/a	n/a	n/a
2576136	REC_WORD	wordpools/wasnorm_wordpool.txt	LTP067	ltpFR	6	15	1	BARLEY	88	n/a	n/a	0	n/a	n/a	n/a	n/a	n/a
2587481	WORD	wordpools/wasnorm_wordpool.txt	LTP067	ltpFR	6	16	0	HEATER	698	n/a	n/a	1	0.422607421875	0.5869140625	0	upper	zerothre.ttf
2591459	WORD	wordpools/wasnorm_wordpool.txt	LTP067	ltpFR	6	16	0	BLANKET	135	n/a	n/a	1	0.422607421875	0.5869140625	0	upper	zerothre.ttf
2595346	WORD	wordpools/wasnorm_wordpool.txt	LTP067	ltpFR	6	16	0	BOMB	147	n/a	n/a	1	0.422607421875	0.5869140625	0	upper	zerothre.ttf
2599325	WORD	wordpools/wasnorm_wordpool.txt	LTP067	ltpFR	6	16	0	FUDGE	611	n/a	n/a	0	0.422607421875	0.5869140625	0	upper	zerothre.ttf
2603379	WORD	wordpools/wasnorm_wordpool.txt	LTP067	ltpFR	6	16	0	SCREEN	1253	n/a	n/a	0	0.422607421875	0.5869140625	0	upper	zerothre.ttf
2607449	WORD	wordpools/wasnorm_wordpool.txt	LTP067	ltpFR	6	16	0	FILM	565	n/a	n/a	1	0.422607421875	0.5869140625	0	upper	zerothre.ttf
2611270	WORD	wordpools/wasnorm_wordpool.txt	LTP067	ltpFR	6	16	0	PISTOL	1075	n/a	n/a	0	0.422607421875	0.5869140625	0	upper	zerothre.ttf
2615257	WORD	wordpools/wasnorm_wordpool.txt	LTP067	ltpFR	6	16	0	LUMBER	848	n/a	n/a	1	0.422607421875	0.5869140625	0	upper	zerothre.ttf
2619127	WORD	wordpools/wasnorm_wordpool.txt	LTP067	ltpFR	6	16	0	GIRAFFE	636	n/a	n/a	1	0.422607421875	0.5869140625	0	upper	zerothre.ttf
2623081	WORD	wordpools/wasnorm_wordpool.txt	LTP067	ltpFR	6	16	0	PATROL	1027	n/a	n/a	0	0.422607421875	0.5869140625	0	upper	zerothre.ttf
2627118	WORD	wordpools/wasnorm_wordpool.txt	LTP067	ltpFR	6	16	0	LUNG	850	n/a	n/a	1	0.422607421875	0.5869140625	0	upper	zerothre.ttf
2631188	WORD	wordpools/wasnorm_wordpool.txt	LTP067	ltpFR	6	16	0	MONSTER	912	n/a	n/a	0	0.422607421875	0.5869140625	0	upper	zerothre.ttf
2635009	WORD	wordpools/wasnorm_wordpool.txt	LTP067	ltpFR	6	16	0	KITCHEN	778	n/a	n/a	1	0.422607421875	0.5869140625	0	upper	zerothre.ttf
2638896	WORD	wordpools/wasnorm_wordpool.txt	LTP067	ltpFR	6	16	0	TURKEY	1520	n/a	n/a	1	0.422607421875	0.5869140625	0	upper	zerothre.ttf
2642741	WORD	wordpools/wasnorm_wordpool.txt	LTP067	ltpFR	6	16	0	MOSS	918	n/a	n/a	0	0.422607421875	0.5869140625	0	upper	zerothre.ttf
2646810	WORD	wordpools/wasnorm_wordpool.txt	LTP067	ltpFR	6	16	0	CHOCOLATE	306	n/a	n/a	1	0.422607421875	0.5869140625	0	upper	zerothre.ttf
2652855	REC_START	n/a	LTP067	ltpFR	6	16	n/a	n/a	n/a	n/a	n/a	n/a	n/a	n/a	n/a	n/a	n/a
2652990	REC_WORD	wordpools/wasnorm_wordpool.txt	LTP067	ltpFR	6	16	0	CHOCOLATE	306	n/a	n/a	1	n/a	n/a	n/a	n/a	n/a
2653590	REC_WORD	wordpools/wasnorm_wordpool.txt	LTP067	ltpFR	6	16	0	FUDGE	611	n/a	n/a	0	n/a	n/a	n/a	n/a	n/a
2654416	REC_WORD	wordpools/wasnorm_wordpool.txt	LTP067	ltpFR	6	16	0	TURKEY	1520	n/a	n/a	1	n/a	n/a	n/a	n/a	n/a
2655374	REC_WORD	wordpools/wasnorm_wordpool.txt	LTP067	ltpFR	6	16	0	KITCHEN	778	n/a	n/a	1	n/a	n/a	n/a	n/a	n/a
2656132	REC_WORD	wordpools/wasnorm_wordpool.txt	LTP067	ltpFR	6	16	0	MONSTER	912	n/a	n/a	0	n/a	n/a	n/a	n/a	n/a
2663516	REC_WORD	wordpools/wasnorm_wordpool.txt	LTP067	ltpFR	6	16	0	GIRAFFE	636	n/a	n/a	1	n/a	n/a	n/a	n/a	n/a
2665471	REC_WORD	wordpools/wasnorm_wordpool.txt	LTP067	ltpFR	6	16	n/a	TIMBER	1469	n/a	n/a	n/a	n/a	n/a	n/a	n/a	n/a
2666229	REC_WORD	wordpools/wasnorm_wordpool.txt	LTP067	ltpFR	6	16	0	PISTOL	1075	n/a	n/a	0	n/a	n/a	n/a	n/a	n/a
2709706	REC_WORD	wordpools/wasnorm_wordpool.txt	LTP067	ltpFR	6	16	0	FILM	565	n/a	n/a	1	n/a	n/a	n/a	n/a	n/a
2712155	REC_WORD	wordpools/wasnorm_wordpool.txt	LTP067	ltpFR	6	16	0	SCREEN	1253	n/a	n/a	0	n/a	n/a	n/a	n/a	n/a
2722257	REC_WORD	wordpools/wasnorm_wordpool.txt	LTP067	ltpFR	6	16	0	LUNG	850	n/a	n/a	1	n/a	n/a	n/a	n/a	n/a
2744398	REC_START	n/a	LTP067	ltpFR	6	n/a	n/a	n/a	n/a	n/a	n/a	n/a	n/a	n/a	n/a	n/a	n/a
2744789	FFR_REC_WORD	wordpools/wasnorm_wordpool.txt	LTP067	ltpFR	6	n/a	0	LUNG	850	n/a	n/a	1	n/a	n/a	n/a	n/a	n/a
2746064	FFR_REC_WORD	wordpools/wasnorm_wordpool.txt	LTP067	ltpFR	6	n/a	1	KIDNEY	776	n/a	n/a	0	n/a	n/a	n/a	n/a	n/a
2747516	FFR_REC_WORD	wordpools/wasnorm_wordpool.txt	LTP067	ltpFR	6	n/a	0	SCREEN	1253	n/a	n/a	0	n/a	n/a	n/a	n/a	n/a
2748693	FFR_REC_WORD	wordpools/wasnorm_wordpool.txt	LTP067	ltpFR	6	n/a	0	FILM	565	n/a	n/a	1	n/a	n/a	n/a	n/a	n/a
2749977	FFR_REC_WORD	wordpools/wasnorm_wordpool.txt	LTP067	ltpFR	6	n/a	1	PORCUPINE	1107	n/a	n/a	1	n/a	n/a	n/a	n/a	n/a
2755250	FFR_REC_WORD	wordpools/wasnorm_wordpool.txt	LTP067	ltpFR	6	n/a	1	PORCUPINE	1107	n/a	n/a	1	n/a	n/a	n/a	n/a	n/a
2756037	FFR_REC_WORD	wordpools/wasnorm_wordpool.txt	LTP067	ltpFR	6	n/a	n/a	EEL	-1	n/a	n/a	n/a	n/a	n/a	n/a	n/a	n/a
2757173	FFR_REC_WORD	wordpools/wasnorm_wordpool.txt	LTP067	ltpFR	6	n/a	-1	APPENDAGE	32	n/a	n/a	-1	n/a	n/a	n/a	n/a	n/a
2757951	FFR_REC_WORD	wordpools/wasnorm_wordpool.txt	LTP067	ltpFR	6	n/a	-1	SKIN	1318	n/a	n/a	-1	n/a	n/a	n/a	n/a	n/a
2761656	FFR_REC_WORD	wordpools/wasnorm_wordpool.txt	LTP067	ltpFR	6	n/a	1	LAKE	796	n/a	n/a	0	n/a	n/a	n/a	n/a	n/a
2766327	FFR_REC_WORD	wordpools/wasnorm_wordpool.txt	LTP067	ltpFR	6	n/a	-1	SPARROW	1347	n/a	n/a	-1	n/a	n/a	n/a	n/a	n/a
2767062	FFR_REC_WORD	wordpools/wasnorm_wordpool.txt	LTP067	ltpFR	6	n/a	-1	BOAT	144	n/a	n/a	-1	n/a	n/a	n/a	n/a	n/a
2768282	FFR_REC_WORD	wordpools/wasnorm_wordpool.txt	LTP067	ltpFR	6	n/a	-1	STEAM	1375	n/a	n/a	-1	n/a	n/a	n/a	n/a	n/a
2770510	FFR_REC_WORD	wordpools/wasnorm_wordpool.txt	LTP067	ltpFR	6	n/a	0	TUXEDO	1525	n/a	n/a	1	n/a	n/a	n/a	n/a	n/a
2771448	FFR_REC_WORD	wordpools/wasnorm_wordpool.txt	LTP067	ltpFR	6	n/a	1	CONDUCTOR	362	n/a	n/a	1	n/a	n/a	n/a	n/a	n/a
2773296	FFR_REC_WORD	wordpools/wasnorm_wordpool.txt	LTP067	ltpFR	6	n/a	0	ENGINEER	536	n/a	n/a	1	n/a	n/a	n/a	n/a	n/a
2774056	FFR_REC_WORD	wordpools/wasnorm_wordpool.txt	LTP067	ltpFR	6	n/a	1	NOOSE	956	n/a	n/a	0	n/a	n/a	n/a	n/a	n/a
2776061	FFR_REC_WORD	wordpools/wasnorm_wordpool.txt	LTP067	ltpFR	6	n/a	0	TWINE	1529	n/a	n/a	0	n/a	n/a	n/a	n/a	n/a
2779661	FFR_REC_WORD	wordpools/wasnorm_wordpool.txt	LTP067	ltpFR	6	n/a	1	RAILROAD	1162	n/a	n/a	0	n/a	n/a	n/a	n/a	n/a
2782894	FFR_REC_WORD	wordpools/wasnorm_wordpool.txt	LTP067	ltpFR	6	n/a	0	COAL	332	n/a	n/a	0	n/a	n/a	n/a	n/a	n/a
2790113	FFR_REC_WORD	wordpools/wasnorm_wordpool.txt	LTP067	ltpFR	6	n/a	-1	SKIN	1318	n/a	n/a	-1	n/a	n/a	n/a	n/a	n/a
2797787	FFR_REC_WORD	wordpools/wasnorm_wordpool.txt	LTP067	ltpFR	6	n/a	-1	ELK	526	n/a	n/a	-1	n/a	n/a	n/a	n/a	n/a
2804206	FFR_REC_WORD	wordpools/wasnorm_wordpool.txt	LTP067	ltpFR	6	n/a	1	PORPOISE	1109	n/a	n/a	1	n/a	n/a	n/a	n/a	n/a
2804825	FFR_REC_WORD	wordpools/wasnorm_wordpool.txt	LTP067	ltpFR	6	n/a	1	MAMMAL	861	n/a	n/a	1	n/a	n/a	n/a	n/a	n/a
2815292	FFR_REC_WORD	wordpools/wasnorm_wordpool.txt	LTP067	ltpFR	6	n/a	1	APE	31	n/a	n/a	1	n/a	n/a	n/a	n/a	n/a
2816161	FFR_REC_WORD	wordpools/wasnorm_wordpool.txt	LTP067	ltpFR	6	n/a	1	CHIMPANZEE	302	n/a	n/a	1	n/a	n/a	n/a	n/a	n/a
2817604	FFR_REC_WORD	wordpools/wasnorm_wordpool.txt	LTP067	ltpFR	6	n/a	1	DENIM	446	n/a	n/a	0	n/a	n/a	n/a	n/a	n/a
2818090	FFR_REC_WORD	wordpools/wasnorm_wordpool.txt	LTP067	ltpFR	6	n/a	1	PIPE	1073	n/a	n/a	0	n/a	n/a	n/a	n/a	n/a
2818470	FFR_REC_WORD	wordpools/wasnorm_wordpool.txt	LTP067	ltpFR	6	n/a	1	CHAMPAGNE	278	n/a	n/a	0	n/a	n/a	n/a	n/a	n/a
2821729	FFR_REC_WORD	wordpools/wasnorm_wordpool.txt	LTP067	ltpFR	6	n/a	1	MOTHER	921	n/a	n/a	1	n/a	n/a	n/a	n/a	n/a
2823273	FFR_REC_WORD	wordpools/wasnorm_wordpool.txt	LTP067	ltpFR	6	n/a	1	DONKEY	484	n/a	n/a	1	n/a	n/a	n/a	n/a	n/a
2826934	FFR_REC_WORD	wordpools/wasnorm_wordpool.txt	LTP067	ltpFR	6	n/a	0	VET	1560	n/a	n/a	1	n/a	n/a	n/a	n/a	n/a
2829349	FFR_REC_WORD	wordpools/wasnorm_wordpool.txt	LTP067	ltpFR	6	n/a	1	CHEERLEADER	288	n/a	n/a	1	n/a	n/a	n/a	n/a	n/a
2832597	FFR_REC_WORD	wordpools/wasnorm_wordpool.txt	LTP067	ltpFR	6	n/a	1	CITRUS	313	n/a	n/a	0	n/a	n/a	n/a	n/a	n/a
2833717	FFR_REC_WORD	wordpools/wasnorm_wordpool.txt	LTP067	ltpFR	6	n/a	1	BREAST	171	n/a	n/a	0	n/a	n/a	n/a	n/a	n/a
2834778	FFR_REC_WORD	wordpools/wasnorm_wordpool.txt	LTP067	ltpFR	6	n/a	1	GOO	648	n/a	n/a	0	n/a	n/a	n/a	n/a	n/a
2837957	FFR_REC_WORD	wordpools/wasnorm_wordpool.txt	LTP067	ltpFR	6	n/a	1	WALNUT	1584	n/a	n/a	0	n/a	n/a	n/a	n/a	n/a
2839295	FFR_REC_WORD	wordpools/wasnorm_wordpool.txt	LTP067	ltpFR	6	n/a	1	PECAN	1036	n/a	n/a	0	n/a	n/a	n/a	n/a	n/a
2843488	FFR_REC_WORD	wordpools/wasnorm_wordpool.txt	LTP067	ltpFR	6	n/a	1	CARROT	249	n/a	n/a	0	n/a	n/a	n/a	n/a	n/a
2844054	FFR_REC_WORD	wordpools/wasnorm_wordpool.txt	LTP067	ltpFR	6	n/a	1	BOTTLE	153	n/a	n/a	0	n/a	n/a	n/a	n/a	n/a
2845268	FFR_REC_WORD	wordpools/wasnorm_wordpool.txt	LTP067	ltpFR	6	n/a	1	JUG	762	n/a	n/a	0	n/a	n/a	n/a	n/a	n/a
2845778	FFR_REC_WORD	wordpools/wasnorm_wordpool.txt	LTP067	ltpFR	6	n/a	1	JAR	750	n/a	n/a	0	n/a	n/a	n/a	n/a	n/a
2848635	FFR_REC_WORD	wordpools/wasnorm_wordpool.txt	LTP067	ltpFR	6	n/a	1	GOVERNOR	651	n/a	n/a	1	n/a	n/a	n/a	n/a	n/a
2849571	FFR_REC_WORD	wordpools/wasnorm_wordpool.txt	LTP067	ltpFR	6	n/a	1	POLITICIAN	1099	n/a	n/a	1	n/a	n/a	n/a	n/a	n/a
2853182	FFR_REC_WORD	wordpools/wasnorm_wordpool.txt	LTP067	ltpFR	6	n/a	-1	BOAT	144	n/a	n/a	-1	n/a	n/a	n/a	n/a	n/a
2855331	FFR_REC_WORD	wordpools/wasnorm_wordpool.txt	LTP067	ltpFR	6	n/a	0	GIRAFFE	636	n/a	n/a	1	n/a	n/a	n/a	n/a	n/a
2856299	FFR_REC_WORD	wordpools/wasnorm_wordpool.txt	LTP067	ltpFR	6	n/a	0	PISTOL	1075	n/a	n/a	0	n/a	n/a	n/a	n/a	n/a
2856939	FFR_REC_WORD	wordpools/wasnorm_wordpool.txt	LTP067	ltpFR	6	n/a	n/a	TIMBER	1469	n/a	n/a	n/a	n/a	n/a	n/a	n/a	n/a
2862034	FFR_REC_WORD	wordpools/wasnorm_wordpool.txt	LTP067	ltpFR	6	n/a	-1	REPTILE	1185	n/a	n/a	-1	n/a	n/a	n/a	n/a	n/a
2862755	FFR_REC_WORD	wordpools/wasnorm_wordpool.txt	LTP067	ltpFR	6	n/a	-1	MARINE	869	n/a	n/a	-1	n/a	n/a	n/a	n/a	n/a
2863584	FFR_REC_WORD	wordpools/wasnorm_wordpool.txt	LTP067	ltpFR	6	n/a	-1	BULLET	194	n/a	n/a	-1	n/a	n/a	n/a	n/a	n/a
2864776	FFR_REC_WORD	wordpools/wasnorm_wordpool.txt	LTP067	ltpFR	6	n/a	-1	QUILL	1150	n/a	n/a	-1	n/a	n/a	n/a	n/a	n/a
2866379	FFR_REC_WORD	wordpools/wasnorm_wordpool.txt	LTP067	ltpFR	6	n/a	-1	TYPEWRITER	1531	n/a	n/a	-1	n/a	n/a	n/a	n/a	n/a
2867554	FFR_REC_WORD	wordpools/wasnorm_wordpool.txt	LTP067	ltpFR	6	n/a	-1	BLACKBOARD	133	n/a	n/a	-1	n/a	n/a	n/a	n/a	n/a
2868451	FFR_REC_WORD	wordpools/wasnorm_wordpool.txt	LTP067	ltpFR	6	n/a	-1	ELK	526	n/a	n/a	-1	n/a	n/a	n/a	n/a	n/a
2870929	FFR_REC_WORD	wordpools/wasnorm_wordpool.txt	LTP067	ltpFR	6	n/a	-1	OTTER	986	n/a	n/a	-1	n/a	n/a	n/a	n/a	n/a
2878804	FFR_REC_WORD	wordpools/wasnorm_wordpool.txt	LTP067	ltpFR	6	n/a	1	GREASE	660	n/a	n/a	0	n/a	n/a	n/a	n/a	n/a
2879916	FFR_REC_WORD	wordpools/wasnorm_wordpool.txt	LTP067	ltpFR	6	n/a	1	AUTOMOBILE	62	n/a	n/a	0	n/a	n/a	n/a	n/a	n/a
2899688	FFR_REC_WORD	wordpools/wasnorm_wordpool.txt	LTP067	ltpFR	6	n/a	1	PIN	1072	n/a	n/a	0	n/a	n/a	n/a	n/a	n/a
2902396	FFR_REC_WORD	wordpools/wasnorm_wordpool.txt	LTP067	ltpFR	6	n/a	1	MANAGER	863	n/a	n/a	1	n/a	n/a	n/a	n/a	n/a
2903318	FFR_REC_WORD	wordpools/wasnorm_wordpool.txt	LTP067	ltpFR	6	n/a	1	BARLEY	88	n/a	n/a	0	n/a	n/a	n/a	n/a	n/a
2903940	FFR_REC_WORD	wordpools/wasnorm_wordpool.txt	LTP067	ltpFR	6	n/a	0	WHEAT	1602	n/a	n/a	0	n/a	n/a	n/a	n/a	n/a
2907820	FFR_REC_WORD	wordpools/wasnorm_wordpool.txt	LTP067	ltpFR	6	n/a	1	MANAGER	863	n/a	n/a	1	n/a	n/a	n/a	n/a	n/a
2908519	FFR_REC_WORD	wordpools/wasnorm_wordpool.txt	LTP067	ltpFR	6	n/a	1	EMPLOYEE	531	n/a	n/a	0	n/a	n/a	n/a	n/a	n/a
2910298	FFR_REC_WORD	wordpools/wasnorm_wordpool.txt	LTP067	ltpFR	6	n/a	-1	TOWER	1490	n/a	n/a	-1	n/a	n/a	n/a	n/a	n/a
2911338	FFR_REC_WORD	wordpools/wasnorm_wordpool.txt	LTP067	ltpFR	6	n/a	-1	TIGER	1467	n/a	n/a	-1	n/a	n/a	n/a	n/a	n/a
2912507	FFR_REC_WORD	wordpools/wasnorm_wordpool.txt	LTP067	ltpFR	6	n/a	-1	LEOPARD	812	n/a	n/a	-1	n/a	n/a	n/a	n/a	n/a
2915086	FFR_REC_WORD	wordpools/wasnorm_wordpool.txt	LTP067	ltpFR	6	n/a	1	WALL	1582	n/a	n/a	0	n/a	n/a	n/a	n/a	n/a
2917129	FFR_REC_WORD	wordpools/wasnorm_wordpool.txt	LTP067	ltpFR	6	n/a	0	DWARF	510	n/a	n/a	1	n/a	n/a	n/a	n/a	n/a
2918436	FFR_REC_WORD	wordpools/wasnorm_wordpool.txt	LTP067	ltpFR	6	n/a	0	MITTEN	902	n/a	n/a	0	n/a	n/a	n/a	n/a	n/a
2919419	FFR_REC_WORD	wordpools/wasnorm_wordpool.txt	LTP067	ltpFR	6	n/a	0	HORIZON	717	n/a	n/a	1	n/a	n/a	n/a	n/a	n/a
2921083	FFR_REC_WORD	wordpools/wasnorm_wordpool.txt	LTP067	ltpFR	6	n/a	0	TUTU	1524	n/a	n/a	1	n/a	n/a	n/a	n/a	n/a
2922293	FFR_REC_WORD	wordpools/wasnorm_wordpool.txt	LTP067	ltpFR	6	n/a	0	SKIRT	1319	n/a	n/a	1	n/a	n/a	n/a	n/a	n/a
2926994	FFR_REC_WORD	wordpools/wasnorm_wordpool.txt	LTP067	ltpFR	6	n/a	0	SUN	1406	n/a	n/a	1	n/a	n/a	n/a	n/a	n/a
2937813	FFR_REC_WORD	wordpools/wasnorm_wordpool.txt	LTP067	ltpFR	6	n/a	0	KETCHUP	771	n/a	n/a	0	n/a	n/a	n/a	n/a	n/a
2938336	FFR_REC_WORD	wordpools/wasnorm_wordpool.txt	LTP067	ltpFR	6	n/a	0	MUSTARD	935	n/a	n/a	0	n/a	n/a	n/a	n/a	n/a
2938901	FFR_REC_WORD	wordpools/wasnorm_wordpool.txt	LTP067	ltpFR	6	n/a	0	PARSLEY	1016	n/a	n/a	0	n/a	n/a	n/a	n/a	n/a
2949139	FFR_REC_WORD	wordpools/wasnorm_wordpool.txt	LTP067	ltpFR	6	n/a	-1	QUAIL	1147	n/a	n/a	-1	n/a	n/a	n/a	n/a	n/a
2949776	FFR_REC_WORD	wordpools/wasnorm_wordpool.txt	LTP067	ltpFR	6	n/a	-1	BUTTON	207	n/a	n/a	-1	n/a	n/a	n/a	n/a	n/a
2950981	FFR_REC_WORD	wordpools/wasnorm_wordpool.txt	LTP067	ltpFR	6	n/a	-1	CANE	231	n/a	n/a	-1	n/a	n/a	n/a	n/a	n/a
2951579	FFR_REC_WORD	wordpools/wasnorm_wordpool.txt	LTP067	ltpFR	6	n/a	-1	IRON	744	n/a	n/a	-1	n/a	n/a	n/a	n/a	n/a
2952071	FFR_REC_WORD	wordpools/wasnorm_wordpool.txt	LTP067	ltpFR	6	n/a	-1	OCTOPUS	971	n/a	n/a	-1	n/a	n/a	n/a	n/a	n/a
2952866	FFR_REC_WORD	wordpools/wasnorm_wordpool.txt	LTP067	ltpFR	6	n/a	-1	COTTAGE	384	n/a	n/a	-1	n/a	n/a	n/a	n/a	n/a
2954195	FFR_REC_WORD	wordpools/wasnorm_wordpool.txt	LTP067	ltpFR	6	n/a	-1	FIREMAN	569	n/a	n/a	-1	n/a	n/a	n/a	n/a	n/a
2954968	FFR_REC_WORD	wordpools/wasnorm_wordpool.txt	LTP067	ltpFR	6	n/a	-1	NET	946	n/a	n/a	-1	n/a	n/a	n/a	n/a	n/a
2969164	FFR_REC_WORD	wordpools/wasnorm_wordpool.txt	LTP067	ltpFR	6	n/a	0	SHACK	1273	n/a	n/a	1	n/a	n/a	n/a	n/a	n/a
2970682	FFR_REC_WORD	wordpools/wasnorm_wordpool.txt	LTP067	ltpFR	6	n/a	0	BELT	120	n/a	n/a	0	n/a	n/a	n/a	n/a	n/a
2971052	FFR_REC_WORD	wordpools/wasnorm_wordpool.txt	LTP067	ltpFR	6	n/a	0	BUCKLE	185	n/a	n/a	0	n/a	n/a	n/a	n/a	n/a
2972144	FFR_REC_WORD	wordpools/wasnorm_wordpool.txt	LTP067	ltpFR	6	n/a	0	VILLAGE	1566	n/a	n/a	1	n/a	n/a	n/a	n/a	n/a
2995339	FFR_REC_WORD	wordpools/wasnorm_wordpool.txt	LTP067	ltpFR	6	n/a	n/a	WET	-1	n/a	n/a	n/a	n/a	n/a	n/a	n/a	n/a
3024334	FFR_REC_WORD	wordpools/wasnorm_wordpool.txt	LTP067	ltpFR	6	n/a	0	DINOSAUR	469	n/a	n/a	1	n/a	n/a	n/a	n/a	n/a
3037919	FFR_REC_WORD	wordpools/wasnorm_wordpool.txt	LTP067	ltpFR	6	n/a	1	BRAIN	165	n/a	n/a	0	n/a	n/a	n/a	n/a	n/a
3060978	REC_START	n/a	LTP067	ltpFR	6	1	n/a	n/a	n/a	n/a	n/a	n/a	n/a	n/a	n/a	n/a	n/a
3061010	RECOG_TARGET	n/a	LTP067	ltpFR	6	1	0	MUSTARD	935	1	5	0	n/a	n/a	n/a	n/a	n/a
3062250	RECOG_RESP	n/a	LTP067	ltpFR	6	1	0	MUSTARD	935	1	n/a	0	n/a	n/a	n/a	n/a	n/a
3063647	RECOG_CONF	n/a	LTP067	ltpFR	6	1	0	MUSTARD	935	n/a	5	0	n/a	n/a	n/a	n/a	n/a
3065530	RECOG_LURE	n/a	LTP067	ltpFR	6	1	n/a	CHALK	276	0	5	n/a	n/a	n/a	n/a	n/a	n/a
3066271	RECOG_RESP	n/a	LTP067	ltpFR	6	1	n/a	CHALK	276	0	n/a	n/a	n/a	n/a	n/a	n/a	n/a
3067179	RECOG_CONF	n/a	LTP067	ltpFR	6	1	n/a	CHALK	276	n/a	5	n/a	n/a	n/a	n/a	n/a	n/a
3068868	RECOG_TARGET	n/a	LTP067	ltpFR	6	1	0	CHOCOLATE	306	1	5	1	n/a	n/a	n/a	n/a	n/a
3069474	RECOG_RESP	n/a	LTP067	ltpFR	6	1	0	CHOCOLATE	306	1	n/a	1	n/a	n/a	n/a	n/a	n/a
3070342	RECOG_CONF	n/a	LTP067	ltpFR	6	1	0	CHOCOLATE	306	n/a	5	1	n/a	n/a	n/a	n/a	n/a
3072039	RECOG_TARGET	n/a	LTP067	ltpFR	6	1	0	POTATO	1115	1	5	0	n/a	n/a	n/a	n/a	n/a
3073060	RECOG_RESP	n/a	LTP067	ltpFR	6	1	0	POTATO	1115	1	n/a	0	n/a	n/a	n/a	n/a	n/a
3073834	RECOG_CONF	n/a	LTP067	ltpFR	6	1	0	POTATO	1115	n/a	5	0	n/a	n/a	n/a	n/a	n/a
3075435	RECOG_TARGET	n/a	LTP067	ltpFR	6	1	1	SURVEY	1414	0	3	0	n/a	n/a	n/a	n/a	n/a
3076298	RECOG_RESP	n/a	LTP067	ltpFR	6	1	1	SURVEY	1414	0	n/a	0	n/a	n/a	n/a	n/a	n/a
3077555	RECOG_CONF	n/a	LTP067	ltpFR	6	1	1	SURVEY	1414	n/a	3	0	n/a	n/a	n/a	n/a	n/a
3079181	RECOG_TARGET	n/a	LTP067	ltpFR	6	1	0	FUDGE	611	1	5	0	n/a	n/a	n/a	n/a	n/a
3079810	RECOG_RESP	n/a	LTP067	ltpFR	6	1	0	FUDGE	611	1	n/a	0	n/a	n/a	n/a	n/a	n/a
3080648	RECOG_CONF	n/a	LTP067	ltpFR	6	1	0	FUDGE	611	n/a	5	0	n/a	n/a	n/a	n/a	n/a
3082394	RECOG_TARGET	n/a	LTP067	ltpFR	6	1	0	SYRUP	1425	1	5	0	n/a	n/a	n/a	n/a	n/a
3083023	RECOG_RESP	n/a	LTP067	ltpFR	6	1	0	SYRUP	1425	1	n/a	0	n/a	n/a	n/a	n/a	n/a
3083771	RECOG_CONF	n/a	LTP067	ltpFR	6	1	0	SYRUP	1425	n/a	5	0	n/a	n/a	n/a	n/a	n/a
3085457	RECOG_TARGET	n/a	LTP067	ltpFR	6	1	0	PAIL	1002	1	5	1	n/a	n/a	n/a	n/a	n/a
3086176	RECOG_RESP	n/a	LTP067	ltpFR	6	1	0	PAIL	1002	1	n/a	1	n/a	n/a	n/a	n/a	n/a
3086874	RECOG_CONF	n/a	LTP067	ltpFR	6	1	0	PAIL	1002	n/a	5	1	n/a	n/a	n/a	n/a	n/a
3088378	RECOG_LURE	n/a	LTP067	ltpFR	6	1	n/a	SERPENT	1270	0	5	n/a	n/a	n/a	n/a	n/a	n/a
3089149	RECOG_RESP	n/a	LTP067	ltpFR	6	1	n/a	SERPENT	1270	0	n/a	n/a	n/a	n/a	n/a	n/a	n/a
3089807	RECOG_CONF	n/a	LTP067	ltpFR	6	1	n/a	SERPENT	1270	n/a	5	n/a	n/a	n/a	n/a	n/a	n/a
3091283	RECOG_TARGET	n/a	LTP067	ltpFR	6	1	-1	ENGINE	535	0	2	-1	n/a	n/a	n/a	n/a	n/a
3092771	RECOG_RESP	n/a	LTP067	ltpFR	6	1	-1	ENGINE	535	0	n/a	-1	n/a	n/a	n/a	n/a	n/a
3093718	RECOG_CONF	n/a	LTP067	ltpFR	6	1	-1	ENGINE	535	n/a	2	-1	n/a	n/a	n/a	n/a	n/a
3095387	RECOG_TARGET	n/a	LTP067	ltpFR	6	1	0	DANCER	437	1	4	1	n/a	n/a	n/a	n/a	n/a
3096203	RECOG_RESP	n/a	LTP067	ltpFR	6	1	0	DANCER	437	1	n/a	1	n/a	n/a	n/a	n/a	n/a
3096951	RECOG_CONF	n/a	LTP067	ltpFR	6	1	0	DANCER	437	n/a	4	1	n/a	n/a	n/a	n/a	n/a
3098616	RECOG_TARGET	n/a	LTP067	ltpFR	6	1	1	PORCUPINE	1107	1	5	1	n/a	n/a	n/a	n/a	n/a
3099276	RECOG_RESP	n/a	LTP067	ltpFR	6	1	1	PORCUPINE	1107	1	n/a	1	n/a	n/a	n/a	n/a	n/a
3100054	RECOG_CONF	n/a	LTP067	ltpFR	6	1	1	PORCUPINE	1107	n/a	5	1	n/a	n/a	n/a	n/a	n/a
3101788	RECOG_TARGET	n/a	LTP067	ltpFR	6	1	-1	SKIN	1318	1	5	-1	n/a	n/a	n/a	n/a	n/a
3102389	RECOG_RESP	n/a	LTP067	ltpFR	6	1	-1	SKIN	1318	1	n/a	-1	n/a	n/a	n/a	n/a	n/a
3103155	RECOG_CONF	n/a	LTP067	ltpFR	6	1	-1	SKIN	1318	n/a	5	-1	n/a	n/a	n/a	n/a	n/a
3104618	RECOG_TARGET	n/a	LTP067	ltpFR	6	1	0	LONDON	843	1	5	1	n/a	n/a	n/a	n/a	n/a
3105422	RECOG_RESP	n/a	LTP067	ltpFR	6	1	0	LONDON	843	1	n/a	1	n/a	n/a	n/a	n/a	n/a
3106260	RECOG_CONF	n/a	LTP067	ltpFR	6	1	0	LONDON	843	n/a	5	1	n/a	n/a	n/a	n/a	n/a
3107955	RECOG_TARGET	n/a	LTP067	ltpFR	6	1	-1	FOLDER	588	1	5	-1	n/a	n/a	n/a	n/a	n/a
3108654	RECOG_RESP	n/a	LTP067	ltpFR	6	1	-1	FOLDER	588	1	n/a	-1	n/a	n/a	n/a	n/a	n/a
3109403	RECOG_CONF	n/a	LTP067	ltpFR	6	1	-1	FOLDER	588	n/a	5	-1	n/a	n/a	n/a	n/a	n/a
3110968	RECOG_TARGET	n/a	LTP067	ltpFR	6	1	0	REEF	1177	1	5	1	n/a	n/a	n/a	n/a	n/a
3111628	RECOG_RESP	n/a	LTP067	ltpFR	6	1	0	REEF	1177	1	n/a	1	n/a	n/a	n/a	n/a	n/a
3112376	RECOG_CONF	n/a	LTP067	ltpFR	6	1	0	REEF	1177	n/a	5	1	n/a	n/a	n/a	n/a	n/a
3114056	RECOG_TARGET	n/a	LTP067	ltpFR	6	1	1	POLITICIAN	1099	1	5	1	n/a	n/a	n/a	n/a	n/a
3114751	RECOG_RESP	n/a	LTP067	ltpFR	6	1	1	POLITICIAN	1099	1	n/a	1	n/a	n/a	n/a	n/a	n/a
3115539	RECOG_CONF	n/a	LTP067	ltpFR	6	1	1	POLITICIAN	1099	n/a	5	1	n/a	n/a	n/a	n/a	n/a
3116995	RECOG_TARGET	n/a	LTP067	ltpFR	6	1	1	GOOSE	649	1	5	1	n/a	n/a	n/a	n/a	n/a
3117699	RECOG_RESP	n/a	LTP067	ltpFR	6	1	1	GOOSE	649	1	n/a	1	n/a	n/a	n/a	n/a	n/a
3118392	RECOG_CONF	n/a	LTP067	ltpFR	6	1	1	GOOSE	649	n/a	5	1	n/a	n/a	n/a	n/a	n/a
3120041	RECOG_TARGET	n/a	LTP067	ltpFR	6	1	1	LIME	823	1	5	0	n/a	n/a	n/a	n/a	n/a
3120677	RECOG_RESP	n/a	LTP067	ltpFR	6	1	1	LIME	823	1	n/a	0	n/a	n/a	n/a	n/a	n/a
3121405	RECOG_CONF	n/a	LTP067	ltpFR	6	1	1	LIME	823	n/a	5	0	n/a	n/a	n/a	n/a	n/a
3122913	RECOG_LURE	n/a	LTP067	ltpFR	6	1	n/a	PATIO	1025	0	3	n/a	n/a	n/a	n/a	n/a	n/a
3123940	RECOG_RESP	n/a	LTP067	ltpFR	6	1	n/a	PATIO	1025	0	n/a	n/a	n/a	n/a	n/a	n/a	n/a
3124718	RECOG_CONF	n/a	LTP067	ltpFR	6	1	n/a	PATIO	1025	n/a	3	n/a	n/a	n/a	n/a	n/a	n/a
3128065	REC_START	n/a	LTP067	ltpFR	6	2	n/a	n/a	n/a	n/a	n/a	n/a	n/a	n/a	n/a	n/a	n/a
3128090	RECOG_LURE	n/a	LTP067	ltpFR	6	2	n/a	TWISTER	1530	0	5	n/a	n/a	n/a	n/a	n/a	n/a
3129003	RECOG_RESP	n/a	LTP067	ltpFR	6	2	n/a	TWISTER	1530	0	n/a	n/a	n/a	n/a	n/a	n/a	n/a
3129696	RECOG_CONF	n/a	LTP067	ltpFR	6	2	n/a	TWISTER	1530	n/a	5	n/a	n/a	n/a	n/a	n/a	n/a
3131228	RECOG_TARGET	n/a	LTP067	ltpFR	6	2	0	JACKET	747	1	5	1	n/a	n/a	n/a	n/a	n/a
3132156	RECOG_RESP	n/a	LTP067	ltpFR	6	2	0	JACKET	747	1	n/a	1	n/a	n/a	n/a	n/a	n/a
3132849	RECOG_CONF	n/a	LTP067	ltpFR	6	2	0	JACKET	747	n/a	5	1	n/a	n/a	n/a	n/a	n/a
3134491	RECOG_TARGET	n/a	LTP067	ltpFR	6	2	-1	TOWER	1490	1	5	-1	n/a	n/a	n/a	n/a	n/a
3135094	RECOG_RESP	n/a	LTP067	ltpFR	6	2	-1	TOWER	1490	1	n/a	-1	n/a	n/a	n/a	n/a	n/a
3135742	RECOG_CONF	n/a	LTP067	ltpFR	6	2	-1	TOWER	1490	n/a	5	-1	n/a	n/a	n/a	n/a	n/a
3137454	RECOG_TARGET	n/a	LTP067	ltpFR	6	2	0	ALMANAC	17	1	5	1	n/a	n/a	n/a	n/a	n/a
3138137	RECOG_RESP	n/a	LTP067	ltpFR	6	2	0	ALMANAC	17	1	n/a	1	n/a	n/a	n/a	n/a	n/a
3138885	RECOG_CONF	n/a	LTP067	ltpFR	6	2	0	ALMANAC	17	n/a	5	1	n/a	n/a	n/a	n/a	n/a
3140417	RECOG_TARGET	n/a	LTP067	ltpFR	6	2	1	CLOWN	330	1	5	1	n/a	n/a	n/a	n/a	n/a
3141080	RECOG_RESP	n/a	LTP067	ltpFR	6	2	1	CLOWN	330	1	n/a	1	n/a	n/a	n/a	n/a	n/a
3141759	RECOG_CONF	n/a	LTP067	ltpFR	6	2	1	CLOWN	330	n/a	5	1	n/a	n/a	n/a	n/a	n/a
3143297	RECOG_TARGET	n/a	LTP067	ltpFR	6	2	1	FAMILY	550	0	5	1	n/a	n/a	n/a	n/a	n/a
3143924	RECOG_RESP	n/a	LTP067	ltpFR	6	2	1	FAMILY	550	0	n/a	1	n/a	n/a	n/a	n/a	n/a
3144652	RECOG_CONF	n/a	LTP067	ltpFR	6	2	1	FAMILY	550	n/a	5	1	n/a	n/a	n/a	n/a	n/a
3146211	RECOG_TARGET	n/a	LTP067	ltpFR	6	2	0	HORIZON	717	1	5	1	n/a	n/a	n/a	n/a	n/a
3146872	RECOG_RESP	n/a	LTP067	ltpFR	6	2	0	HORIZON	717	1	n/a	1	n/a	n/a	n/a	n/a	n/a
3147585	RECOG_CONF	n/a	LTP067	ltpFR	6	2	0	HORIZON	717	n/a	5	1	n/a	n/a	n/a	n/a	n/a
3149215	RECOG_TARGET	n/a	LTP067	ltpFR	6	2	0	WHEAT	1602	1	5	0	n/a	n/a	n/a	n/a	n/a
3149741	RECOG_RESP	n/a	LTP067	ltpFR	6	2	0	WHEAT	1602	1	n/a	0	n/a	n/a	n/a	n/a	n/a
3150429	RECOG_CONF	n/a	LTP067	ltpFR	6	2	0	WHEAT	1602	n/a	5	0	n/a	n/a	n/a	n/a	n/a
3152079	RECOG_TARGET	n/a	LTP067	ltpFR	6	2	1	TUNNEL	1519	1	5	0	n/a	n/a	n/a	n/a	n/a
3152819	RECOG_RESP	n/a	LTP067	ltpFR	6	2	1	TUNNEL	1519	1	n/a	0	n/a	n/a	n/a	n/a	n/a
3153474	RECOG_CONF	n/a	LTP067	ltpFR	6	2	1	TUNNEL	1519	n/a	5	0	n/a	n/a	n/a	n/a	n/a
3155083	RECOG_TARGET	n/a	LTP067	ltpFR	6	2	1	TURNIP	1521	0	3	0	n/a	n/a	n/a	n/a	n/a
3155912	RECOG_RESP	n/a	LTP067	ltpFR	6	2	1	TURNIP	1521	0	n/a	0	n/a	n/a	n/a	n/a	n/a
3156655	RECOG_CONF	n/a	LTP067	ltpFR	6	2	1	TURNIP	1521	n/a	3	0	n/a	n/a	n/a	n/a	n/a
3158221	RECOG_TARGET	n/a	LTP067	ltpFR	6	2	1	JUG	762	1	5	0	n/a	n/a	n/a	n/a	n/a
3158880	RECOG_RESP	n/a	LTP067	ltpFR	6	2	1	JUG	762	1	n/a	0	n/a	n/a	n/a	n/a	n/a
3159568	RECOG_CONF	n/a	LTP067	ltpFR	6	2	1	JUG	762	n/a	5	0	n/a	n/a	n/a	n/a	n/a
3161085	RECOG_TARGET	n/a	LTP067	ltpFR	6	2	-1	SNACK	1331	1	5	-1	n/a	n/a	n/a	n/a	n/a
3161773	RECOG_RESP	n/a	LTP067	ltpFR	6	2	-1	SNACK	1331	1	n/a	-1	n/a	n/a	n/a	n/a	n/a
3162432	RECOG_CONF	n/a	LTP067	ltpFR	6	2	-1	SNACK	1331	n/a	5	-1	n/a	n/a	n/a	n/a	n/a
3164190	RECOG_TARGET	n/a	LTP067	ltpFR	6	2	1	TULIP	1517	1	5	1	n/a	n/a	n/a	n/a	n/a
3165185	RECOG_RESP	n/a	LTP067	ltpFR	6	2	1	TULIP	1517	1	n/a	1	n/a	n/a	n/a	n/a	n/a
3165874	RECOG_CONF	n/a	LTP067	ltpFR	6	2	1	TULIP	1517	n/a	5	1	n/a	n/a	n/a	n/a	n/a
3167378	RECOG_TARGET	n/a	LTP067	ltpFR	6	2	1	VILLAIN	1567	1	5	1	n/a	n/a	n/a	n/a	n/a
3167989	RECOG_RESP	n/a	LTP067	ltpFR	6	2	1	VILLAIN	1567	1	n/a	1	n/a	n/a	n/a	n/a	n/a
3169017	RECOG_CONF	n/a	LTP067	ltpFR	6	2	1	VILLAIN	1567	n/a	5	1	n/a	n/a	n/a	n/a	n/a
3170574	RECOG_LURE	n/a	LTP067	ltpFR	6	2	n/a	ZUCCHINI	1638	0	5	n/a	n/a	n/a	n/a	n/a	n/a
3171411	RECOG_RESP	n/a	LTP067	ltpFR	6	2	n/a	ZUCCHINI	1638	0	n/a	n/a	n/a	n/a	n/a	n/a	n/a
3172030	RECOG_CONF	n/a	LTP067	ltpFR	6	2	n/a	ZUCCHINI	1638	n/a	5	n/a	n/a	n/a	n/a	n/a	n/a
3173612	RECOG_TARGET	n/a	LTP067	ltpFR	6	2	0	PARSLEY	1016	1	5	0	n/a	n/a	n/a	n/a	n/a
3174325	RECOG_RESP	n/a	LTP067	ltpFR	6	2	0	PARSLEY	1016	1	n/a	0	n/a	n/a	n/a	n/a	n/a
3174963	RECOG_CONF	n/a	LTP067	ltpFR	6	2	0	PARSLEY	1016	n/a	5	0	n/a	n/a	n/a	n/a	n/a
3176475	RECOG_TARGET	n/a	LTP067	ltpFR	6	2	0	TORTOISE	1486	1	5	1	n/a	n/a	n/a	n/a	n/a
3177113	RECOG_RESP	n/a	LTP067	ltpFR	6	2	0	TORTOISE	1486	1	n/a	1	n/a	n/a	n/a	n/a	n/a
3177797	RECOG_CONF	n/a	LTP067	ltpFR	6	2	0	TORTOISE	1486	n/a	5	1	n/a	n/a	n/a	n/a	n/a
3179372	RECOG_TARGET	n/a	LTP067	ltpFR	6	2	0	VET	1560	1	5	1	n/a	n/a	n/a	n/a	n/a
3180042	RECOG_RESP	n/a	LTP067	ltpFR	6	2	0	VET	1560	1	n/a	1	n/a	n/a	n/a	n/a	n/a
3180710	RECOG_CONF	n/a	LTP067	ltpFR	6	2	0	VET	1560	n/a	5	1	n/a	n/a	n/a	n/a	n/a
3182377	RECOG_TARGET	n/a	LTP067	ltpFR	6	2	1	FRAME	600	1	5	0	n/a	n/a	n/a	n/a	n/a
3183085	RECOG_RESP	n/a	LTP067	ltpFR	6	2	1	FRAME	600	1	n/a	0	n/a	n/a	n/a	n/a	n/a
3183783	RECOG_CONF	n/a	LTP067	ltpFR	6	2	1	FRAME	600	n/a	5	0	n/a	n/a	n/a	n/a	n/a
3185331	RECOG_TARGET	n/a	LTP067	ltpFR	6	2	0	FARM	552	1	5	1	n/a	n/a	n/a	n/a	n/a
3186013	RECOG_RESP	n/a	LTP067	ltpFR	6	2	0	FARM	552	1	n/a	1	n/a	n/a	n/a	n/a	n/a
3186687	RECOG_CONF	n/a	LTP067	ltpFR	6	2	0	FARM	552	n/a	5	1	n/a	n/a	n/a	n/a	n/a
3189522	REC_START	n/a	LTP067	ltpFR	6	3	n/a	n/a	n/a	n/a	n/a	n/a	n/a	n/a	n/a	n/a	n/a
3189551	RECOG_TARGET	n/a	LTP067	ltpFR	6	3	1	BRAIN	165	1	5	0	n/a	n/a	n/a	n/a	n/a
3190165	RECOG_RESP	n/a	LTP067	ltpFR	6	3	1	BRAIN	165	1	n/a	0	n/a	n/a	n/a	n/a	n/a
3190864	RECOG_CONF	n/a	LTP067	ltpFR	6	3	1	BRAIN	165	n/a	5	0	n/a	n/a	n/a	n/a	n/a
3192448	RECOG_TARGET	n/a	LTP067	ltpFR	6	3	1	SCROLL	1257	1	5	n/a	n/a	n/a	n/a	n/a	n/a
3193159	RECOG_RESP	n/a	LTP067	ltpFR	6	3	1	SCROLL	1257	1	n/a	n/a	n/a	n/a	n/a	n/a	n/a
3193827	RECOG_CONF	n/a	LTP067	ltpFR	6	3	1	SCROLL	1257	n/a	5	n/a	n/a	n/a	n/a	n/a	n/a
3195403	RECOG_TARGET	n/a	LTP067	ltpFR	6	3	0	LUNG	850	1	5	1	n/a	n/a	n/a	n/a	n/a
3196057	RECOG_RESP	n/a	LTP067	ltpFR	6	3	0	LUNG	850	1	n/a	1	n/a	n/a	n/a	n/a	n/a
3196760	RECOG_CONF	n/a	LTP067	ltpFR	6	3	0	LUNG	850	n/a	5	1	n/a	n/a	n/a	n/a	n/a
3198441	RECOG_TARGET	n/a	LTP067	ltpFR	6	3	1	PIN	1072	1	5	0	n/a	n/a	n/a	n/a	n/a
3199115	RECOG_RESP	n/a	LTP067	ltpFR	6	3	1	PIN	1072	1	n/a	0	n/a	n/a	n/a	n/a	n/a
3199823	RECOG_CONF	n/a	LTP067	ltpFR	6	3	1	PIN	1072	n/a	5	0	n/a	n/a	n/a	n/a	n/a
3201421	RECOG_TARGET	n/a	LTP067	ltpFR	6	3	0	RAG	1160	0	4	0	n/a	n/a	n/a	n/a	n/a
3202268	RECOG_RESP	n/a	LTP067	ltpFR	6	3	0	RAG	1160	0	n/a	0	n/a	n/a	n/a	n/a	n/a
3203156	RECOG_CONF	n/a	LTP067	ltpFR	6	3	0	RAG	1160	n/a	4	0	n/a	n/a	n/a	n/a	n/a
3204709	RECOG_TARGET	n/a	LTP067	ltpFR	6	3	1	ISLAND	745	1	5	0	n/a	n/a	n/a	n/a	n/a
3205520	RECOG_RESP	n/a	LTP067	ltpFR	6	3	1	ISLAND	745	1	n/a	0	n/a	n/a	n/a	n/a	n/a
3206259	RECOG_CONF	n/a	LTP067	ltpFR	6	3	1	ISLAND	745	n/a	5	0	n/a	n/a	n/a	n/a	n/a
3207905	RECOG_TARGET	n/a	LTP067	ltpFR	6	3	0	PIT	1077	1	5	1	n/a	n/a	n/a	n/a	n/a
3208818	RECOG_RESP	n/a	LTP067	ltpFR	6	3	0	PIT	1077	1	n/a	1	n/a	n/a	n/a	n/a	n/a
3209432	RECOG_CONF	n/a	LTP067	ltpFR	6	3	0	PIT	1077	n/a	5	1	n/a	n/a	n/a	n/a	n/a
3211043	RECOG_TARGET	n/a	LTP067	ltpFR	6	3	-1	ROOF	1205	1	5	-1	n/a	n/a	n/a	n/a	n/a
3211716	RECOG_RESP	n/a	LTP067	ltpFR	6	3	-1	ROOF	1205	1	n/a	-1	n/a	n/a	n/a	n/a	n/a
3212355	RECOG_CONF	n/a	LTP067	ltpFR	6	3	-1	ROOF	1205	n/a	5	-1	n/a	n/a	n/a	n/a	n/a
3213856	RECOG_TARGET	n/a	LTP067	ltpFR	6	3	-1	PACKAGE	997	0	3	-1	n/a	n/a	n/a	n/a	n/a
3214565	RECOG_RESP	n/a	LTP067	ltpFR	6	3	-1	PACKAGE	997	0	n/a	-1	n/a	n/a	n/a	n/a	n/a
3215338	RECOG_CONF	n/a	LTP067	ltpFR	6	3	-1	PACKAGE	997	n/a	3	-1	n/a	n/a	n/a	n/a	n/a
3216878	RECOG_TARGET	n/a	LTP067	ltpFR	6	3	-1	PUBLISHER	1137	1	5	-1	n/a	n/a	n/a	n/a	n/a
3217513	RECOG_RESP	n/a	LTP067	ltpFR	6	3	-1	PUBLISHER	1137	1	n/a	-1	n/a	n/a	n/a	n/a	n/a
3218212	RECOG_CONF	n/a	LTP067	ltpFR	6	3	-1	PUBLISHER	1137	n/a	5	-1	n/a	n/a	n/a	n/a	n/a
3219941	RECOG_LURE	n/a	LTP067	ltpFR	6	3	n/a	STONE	1385	0	4	n/a	n/a	n/a	n/a	n/a	n/a
3220706	RECOG_RESP	n/a	LTP067	ltpFR	6	3	n/a	STONE	1385	0	n/a	n/a	n/a	n/a	n/a	n/a	n/a
3221464	RECOG_CONF	n/a	LTP067	ltpFR	6	3	n/a	STONE	1385	n/a	4	n/a	n/a	n/a	n/a	n/a	n/a
3222971	RECOG_TARGET	n/a	LTP067	ltpFR	6	3	1	PIPE	1073	1	5	0	n/a	n/a	n/a	n/a	n/a
3223659	RECOG_RESP	n/a	LTP067	ltpFR	6	3	1	PIPE	1073	1	n/a	0	n/a	n/a	n/a	n/a	n/a
3224398	RECOG_CONF	n/a	LTP067	ltpFR	6	3	1	PIPE	1073	n/a	5	0	n/a	n/a	n/a	n/a	n/a
3226259	RECOG_LURE	n/a	LTP067	ltpFR	6	3	n/a	POCKETBOOK	1094	0	5	n/a	n/a	n/a	n/a	n/a	n/a
3226982	RECOG_RESP	n/a	LTP067	ltpFR	6	3	n/a	POCKETBOOK	1094	0	n/a	n/a	n/a	n/a	n/a	n/a	n/a
3227570	RECOG_CONF	n/a	LTP067	ltpFR	6	3	n/a	POCKETBOOK	1094	n/a	5	n/a	n/a	n/a	n/a	n/a	n/a
3229230	RECOG_LURE	n/a	LTP067	ltpFR	6	3	n/a	GLACIER	638	0	5	n/a	n/a	n/a	n/a	n/a	n/a
3229895	RECOG_RESP	n/a	LTP067	ltpFR	6	3	n/a	GLACIER	638	0	n/a	n/a	n/a	n/a	n/a	n/a	n/a
3230475	RECOG_CONF	n/a	LTP067	ltpFR	6	3	n/a	GLACIER	638	n/a	5	n/a	n/a	n/a	n/a	n/a	n/a
3232160	RECOG_TARGET	n/a	LTP067	ltpFR	6	3	1	CRICKET	408	1	5	1	n/a	n/a	n/a	n/a	n/a
3232908	RECOG_RESP	n/a	LTP067	ltpFR	6	3	1	CRICKET	408	1	n/a	1	n/a	n/a	n/a	n/a	n/a
3233627	RECOG_CONF	n/a	LTP067	ltpFR	6	3	1	CRICKET	408	n/a	5	1	n/a	n/a	n/a	n/a	n/a
3235614	RECOG_TARGET	n/a	LTP067	ltpFR	6	3	1	BOTTLE	153	1	4	0	n/a	n/a	n/a	n/a	n/a
3236320	RECOG_RESP	n/a	LTP067	ltpFR	6	3	1	BOTTLE	153	1	n/a	0	n/a	n/a	n/a	n/a	n/a
3237228	RECOG_CONF	n/a	LTP067	ltpFR	6	3	1	BOTTLE	153	n/a	4	0	n/a	n/a	n/a	n/a	n/a
3238802	RECOG_LURE	n/a	LTP067	ltpFR	6	3	n/a	MAT	877	0	4	n/a	n/a	n/a	n/a	n/a	n/a
3239912	RECOG_RESP	n/a	LTP067	ltpFR	6	3	n/a	MAT	877	0	n/a	n/a	n/a	n/a	n/a	n/a	n/a
3240671	RECOG_CONF	n/a	LTP067	ltpFR	6	3	n/a	MAT	877	n/a	4	n/a	n/a	n/a	n/a	n/a	n/a
3242290	RECOG_TARGET	n/a	LTP067	ltpFR	6	3	0	PASTRY	1022	1	5	0	n/a	n/a	n/a	n/a	n/a
3242905	RECOG_RESP	n/a	LTP067	ltpFR	6	3	0	PASTRY	1022	1	n/a	0	n/a	n/a	n/a	n/a	n/a
3243714	RECOG_CONF	n/a	LTP067	ltpFR	6	3	0	PASTRY	1022	n/a	5	0	n/a	n/a	n/a	n/a	n/a
3245278	RECOG_LURE	n/a	LTP067	ltpFR	6	3	n/a	ROOT	1210	0	5	n/a	n/a	n/a	n/a	n/a	n/a
3246238	RECOG_RESP	n/a	LTP067	ltpFR	6	3	n/a	ROOT	1210	0	n/a	n/a	n/a	n/a	n/a	n/a	n/a
3246926	RECOG_CONF	n/a	LTP067	ltpFR	6	3	n/a	ROOT	1210	n/a	5	n/a	n/a	n/a	n/a	n/a	n/a
3248466	RECOG_LURE	n/a	LTP067	ltpFR	6	3	n/a	BALCONY	72	0	5	n/a	n/a	n/a	n/a	n/a	n/a
3249166	RECOG_RESP	n/a	LTP067	ltpFR	6	3	n/a	BALCONY	72	0	n/a	n/a	n/a	n/a	n/a	n/a	n/a
3249880	RECOG_CONF	n/a	LTP067	ltpFR	6	3	n/a	BALCONY	72	n/a	5	n/a	n/a	n/a	n/a	n/a	n/a
3253224	REC_START	n/a	LTP067	ltpFR	6	4	n/a	n/a	n/a	n/a	n/a	n/a	n/a	n/a	n/a	n/a	n/a
3253252	RECOG_TARGET	n/a	LTP067	ltpFR	6	4	1	CRYSTAL	418	0	3	0	n/a	n/a	n/a	n/a	n/a
3254067	RECOG_RESP	n/a	LTP067	ltpFR	6	4	1	CRYSTAL	418	0	n/a	0	n/a	n/a	n/a	n/a	n/a
3254865	RECOG_CONF	n/a	LTP067	ltpFR	6	4	1	CRYSTAL	418	n/a	3	0	n/a	n/a	n/a	n/a	n/a
3256432	RECOG_TARGET	n/a	LTP067	ltpFR	6	4	0	POPCORN	1104	1	5	0	n/a	n/a	n/a	n/a	n/a
3257080	RECOG_RESP	n/a	LTP067	ltpFR	6	4	0	POPCORN	1104	1	n/a	0	n/a	n/a	n/a	n/a	n/a
3257798	RECOG_CONF	n/a	LTP067	ltpFR	6	4	0	POPCORN	1104	n/a	5	0	n/a	n/a	n/a	n/a	n/a
3259453	RECOG_TARGET	n/a	LTP067	ltpFR	6	4	1	TAPE	1433	1	5	0	n/a	n/a	n/a	n/a	n/a
3259993	RECOG_RESP	n/a	LTP067	ltpFR	6	4	1	TAPE	1433	1	n/a	0	n/a	n/a	n/a	n/a	n/a
3260632	RECOG_CONF	n/a	LTP067	ltpFR	6	4	1	TAPE	1433	n/a	5	0	n/a	n/a	n/a	n/a	n/a
3262333	RECOG_LURE	n/a	LTP067	ltpFR	6	4	n/a	SLACKS	1323	0	5	n/a	n/a	n/a	n/a	n/a	n/a
3263086	RECOG_RESP	n/a	LTP067	ltpFR	6	4	n/a	SLACKS	1323	0	n/a	n/a	n/a	n/a	n/a	n/a	n/a
3263725	RECOG_CONF	n/a	LTP067	ltpFR	6	4	n/a	SLACKS	1323	n/a	5	n/a	n/a	n/a	n/a	n/a	n/a
3265238	RECOG_TARGET	n/a	LTP067	ltpFR	6	4	1	ENCYCLOPEDIA	533	1	5	0	n/a	n/a	n/a	n/a	n/a
3265890	RECOG_RESP	n/a	LTP067	ltpFR	6	4	1	ENCYCLOPEDIA	533	1	n/a	0	n/a	n/a	n/a	n/a	n/a
3266568	RECOG_CONF	n/a	LTP067	ltpFR	6	4	1	ENCYCLOPEDIA	533	n/a	5	0	n/a	n/a	n/a	n/a	n/a
3268126	RECOG_TARGET	n/a	LTP067	ltpFR	6	4	0	CRAB	397	1	5	0	n/a	n/a	n/a	n/a	n/a
3268754	RECOG_RESP	n/a	LTP067	ltpFR	6	4	0	CRAB	397	1	n/a	0	n/a	n/a	n/a	n/a	n/a
3269482	RECOG_CONF	n/a	LTP067	ltpFR	6	4	0	CRAB	397	n/a	5	0	n/a	n/a	n/a	n/a	n/a
3270923	RECOG_TARGET	n/a	LTP067	ltpFR	6	4	0	COAL	332	1	5	0	n/a	n/a	n/a	n/a	n/a
3271378	RECOG_RESP	n/a	LTP067	ltpFR	6	4	0	COAL	332	1	n/a	0	n/a	n/a	n/a	n/a	n/a
3272026	RECOG_CONF	n/a	LTP067	ltpFR	6	4	0	COAL	332	n/a	5	0	n/a	n/a	n/a	n/a	n/a
3273736	RECOG_TARGET	n/a	LTP067	ltpFR	6	4	0	SEA	1259	0	4	1	n/a	n/a	n/a	n/a	n/a
3274466	RECOG_RESP	n/a	LTP067	ltpFR	6	4	0	SEA	1259	0	n/a	1	n/a	n/a	n/a	n/a	n/a
3275249	RECOG_CONF	n/a	LTP067	ltpFR	6	4	0	SEA	1259	n/a	4	1	n/a	n/a	n/a	n/a	n/a
3276891	RECOG_LURE	n/a	LTP067	ltpFR	6	4	n/a	SUNRISE	1407	0	4	n/a	n/a	n/a	n/a	n/a	n/a
3277803	RECOG_RESP	n/a	LTP067	ltpFR	6	4	n/a	SUNRISE	1407	0	n/a	n/a	n/a	n/a	n/a	n/a	n/a
3278591	RECOG_CONF	n/a	LTP067	ltpFR	6	4	n/a	SUNRISE	1407	n/a	4	n/a	n/a	n/a	n/a	n/a	n/a
3280412	RECOG_TARGET	n/a	LTP067	ltpFR	6	4	1	LAKE	796	1	5	0	n/a	n/a	n/a	n/a	n/a
3281377	RECOG_RESP	n/a	LTP067	ltpFR	6	4	1	LAKE	796	1	n/a	0	n/a	n/a	n/a	n/a	n/a
3282502	RECOG_CONF	n/a	LTP067	ltpFR	6	4	1	LAKE	796	n/a	5	0	n/a	n/a	n/a	n/a	n/a
3285015	RECOG_TARGET	n/a	LTP067	ltpFR	6	4	0	MONSTER	912	1	5	0	n/a	n/a	n/a	n/a	n/a
3285670	RECOG_RESP	n/a	LTP067	ltpFR	6	4	0	MONSTER	912	1	n/a	0	n/a	n/a	n/a	n/a	n/a
3286663	RECOG_CONF	n/a	LTP067	ltpFR	6	4	0	MONSTER	912	n/a	5	0	n/a	n/a	n/a	n/a	n/a
3288303	RECOG_LURE	n/a	LTP067	ltpFR	6	4	n/a	CHISEL	305	0	5	n/a	n/a	n/a	n/a	n/a	n/a
3289007	RECOG_RESP	n/a	LTP067	ltpFR	6	4	n/a	CHISEL	305	0	n/a	n/a	n/a	n/a	n/a	n/a	n/a
3289666	RECOG_CONF	n/a	LTP067	ltpFR	6	4	n/a	CHISEL	305	n/a	5	n/a	n/a	n/a	n/a	n/a	n/a
3291199	RECOG_TARGET	n/a	LTP067	ltpFR	6	4	-1	VENUS	1557	1	5	-1	n/a	n/a	n/a	n/a	n/a
3291901	RECOG_RESP	n/a	LTP067	ltpFR	6	4	-1	VENUS	1557	1	n/a	-1	n/a	n/a	n/a	n/a	n/a
3292679	RECOG_CONF	n/a	LTP067	ltpFR	6	4	-1	VENUS	1557	n/a	5	-1	n/a	n/a	n/a	n/a	n/a
3294346	RECOG_LURE	n/a	LTP067	ltpFR	6	4	n/a	SUMMIT	1405	0	3	n/a	n/a	n/a	n/a	n/a	n/a
3294874	RECOG_RESP_VV	n/a	LTP067	ltpFR	6	4	n/a	SUMMIT	1405	1	n/a	n/a	n/a	n/a	n/a	n/a	n/a
3295732	RECOG_RESP	n/a	LTP067	ltpFR	6	4	n/a	SUMMIT	1405	0	n/a	n/a	n/a	n/a	n/a	n/a	n/a
3296910	RECOG_CONF	n/a	LTP067	ltpFR	6	4	n/a	SUMMIT	1405	n/a	3	n/a	n/a	n/a	n/a	n/a	n/a
3298482	RECOG_TARGET	n/a	LTP067	ltpFR	6	4	0	SHACK	1273	1	5	1	n/a	n/a	n/a	n/a	n/a
3299469	RECOG_RESP	n/a	LTP067	ltpFR	6	4	0	SHACK	1273	1	n/a	1	n/a	n/a	n/a	n/a	n/a
3300172	RECOG_CONF	n/a	LTP067	ltpFR	6	4	0	SHACK	1273	n/a	5	1	n/a	n/a	n/a	n/a	n/a
3301737	RECOG_TARGET	n/a	LTP067	ltpFR	6	4	1	CARPET	247	1	1	0	n/a	n/a	n/a	n/a	n/a
3302347	RECOG_RESP	n/a	LTP067	ltpFR	6	4	1	CARPET	247	1	n/a	0	n/a	n/a	n/a	n/a	n/a
3303165	RECOG_CONF	n/a	LTP067	ltpFR	6	4	1	CARPET	247	n/a	1	0	n/a	n/a	n/a	n/a	n/a
3304659	RECOG_TARGET	n/a	LTP067	ltpFR	6	4	0	ENGINEER	536	1	5	1	n/a	n/a	n/a	n/a	n/a
3305370	RECOG_RESP	n/a	LTP067	ltpFR	6	4	0	ENGINEER	536	1	n/a	1	n/a	n/a	n/a	n/a	n/a
3305989	RECOG_CONF	n/a	LTP067	ltpFR	6	4	0	ENGINEER	536	n/a	5	1	n/a	n/a	n/a	n/a	n/a
3307613	RECOG_TARGET	n/a	LTP067	ltpFR	6	4	0	PATROL	1027	1	5	0	n/a	n/a	n/a	n/a	n/a
3308309	RECOG_RESP	n/a	LTP067	ltpFR	6	4	0	PATROL	1027	1	n/a	0	n/a	n/a	n/a	n/a	n/a
3309012	RECOG_CONF	n/a	LTP067	ltpFR	6	4	0	PATROL	1027	n/a	5	0	n/a	n/a	n/a	n/a	n/a
3310726	RECOG_TARGET	n/a	LTP067	ltpFR	6	4	1	CHERRY	293	1	5	0	n/a	n/a	n/a	n/a	n/a
3311347	RECOG_RESP	n/a	LTP067	ltpFR	6	4	1	CHERRY	293	1	n/a	0	n/a	n/a	n/a	n/a	n/a
3312075	RECOG_CONF	n/a	LTP067	ltpFR	6	4	1	CHERRY	293	n/a	5	0	n/a	n/a	n/a	n/a	n/a
3313781	RECOG_TARGET	n/a	LTP067	ltpFR	6	4	-1	DOORBELL	487	1	5	-1	n/a	n/a	n/a	n/a	n/a
3314609	RECOG_RESP	n/a	LTP067	ltpFR	6	4	-1	DOORBELL	487	1	n/a	-1	n/a	n/a	n/a	n/a	n/a
3315358	RECOG_CONF	n/a	LTP067	ltpFR	6	4	-1	DOORBELL	487	n/a	5	-1	n/a	n/a	n/a	n/a	n/a
3318840	REC_START	n/a	LTP067	ltpFR	6	5	n/a	n/a	n/a	n/a	n/a	n/a	n/a	n/a	n/a	n/a	n/a
3318867	RECOG_TARGET	n/a	LTP067	ltpFR	6	5	0	DWARF	510	1	5	1	n/a	n/a	n/a	n/a	n/a
3319468	RECOG_RESP	n/a	LTP067	ltpFR	6	5	0	DWARF	510	1	n/a	1	n/a	n/a	n/a	n/a	n/a
3320252	RECOG_CONF	n/a	LTP067	ltpFR	6	5	0	DWARF	510	n/a	5	1	n/a	n/a	n/a	n/a	n/a
3321922	RECOG_TARGET	n/a	LTP067	ltpFR	6	5	1	SCULPTURE	1258	1	5	0	n/a	n/a	n/a	n/a	n/a
3322462	RECOG_RESP	n/a	LTP067	ltpFR	6	5	1	SCULPTURE	1258	1	n/a	0	n/a	n/a	n/a	n/a	n/a
3323066	RECOG_CONF	n/a	LTP067	ltpFR	6	5	1	SCULPTURE	1258	n/a	5	0	n/a	n/a	n/a	n/a	n/a
3324960	RECOG_TARGET	n/a	LTP067	ltpFR	6	5	-1	FOUNTAIN	597	1	5	-1	n/a	n/a	n/a	n/a	n/a
3325649	RECOG_RESP	n/a	LTP067	ltpFR	6	5	-1	FOUNTAIN	597	1	n/a	-1	n/a	n/a	n/a	n/a	n/a
3326388	RECOG_CONF	n/a	LTP067	ltpFR	6	5	-1	FOUNTAIN	597	n/a	5	-1	n/a	n/a	n/a	n/a	n/a
3328040	RECOG_LURE	n/a	LTP067	ltpFR	6	5	n/a	BUILDING	191	0	2	n/a	n/a	n/a	n/a	n/a	n/a
3329111	RECOG_RESP	n/a	LTP067	ltpFR	6	5	n/a	BUILDING	191	0	n/a	n/a	n/a	n/a	n/a	n/a	n/a
3329950	RECOG_CONF	n/a	LTP067	ltpFR	6	5	n/a	BUILDING	191	n/a	2	n/a	n/a	n/a	n/a	n/a	n/a
3331527	RECOG_LURE	n/a	LTP067	ltpFR	6	5	n/a	SUBURB	1399	0	5	n/a	n/a	n/a	n/a	n/a	n/a
3332409	RECOG_RESP	n/a	LTP067	ltpFR	6	5	n/a	SUBURB	1399	0	n/a	n/a	n/a	n/a	n/a	n/a	n/a
3333182	RECOG_CONF	n/a	LTP067	ltpFR	6	5	n/a	SUBURB	1399	n/a	5	n/a	n/a	n/a	n/a	n/a	n/a
3334806	RECOG_TARGET	n/a	LTP067	ltpFR	6	5	-1	IRON	744	1	5	-1	n/a	n/a	n/a	n/a	n/a
3335467	RECOG_RESP	n/a	LTP067	ltpFR	6	5	-1	IRON	744	1	n/a	-1	n/a	n/a	n/a	n/a	n/a
3336255	RECOG_CONF	n/a	LTP067	ltpFR	6	5	-1	IRON	744	n/a	5	-1	n/a	n/a	n/a	n/a	n/a
3337911	RECOG_LURE	n/a	LTP067	ltpFR	6	5	n/a	ASHTRAY	45	0	5	n/a	n/a	n/a	n/a	n/a	n/a
3338690	RECOG_RESP	n/a	LTP067	ltpFR	6	5	n/a	ASHTRAY	45	0	n/a	n/a	n/a	n/a	n/a	n/a	n/a
3339448	RECOG_CONF	n/a	LTP067	ltpFR	6	5	n/a	ASHTRAY	45	n/a	5	n/a	n/a	n/a	n/a	n/a	n/a
3341133	RECOG_TARGET	n/a	LTP067	ltpFR	6	5	1	BUFFALO	186	1	5	1	n/a	n/a	n/a	n/a	n/a
3342057	RECOG_RESP	n/a	LTP067	ltpFR	6	5	1	BUFFALO	186	1	n/a	1	n/a	n/a	n/a	n/a	n/a
3342750	RECOG_CONF	n/a	LTP067	ltpFR	6	5	1	BUFFALO	186	n/a	5	1	n/a	n/a	n/a	n/a	n/a
3344570	RECOG_TARGET	n/a	LTP067	ltpFR	6	5	1	CHAMPAGNE	278	1	5	0	n/a	n/a	n/a	n/a	n/a
3345225	RECOG_RESP	n/a	LTP067	ltpFR	6	5	1	CHAMPAGNE	278	1	n/a	0	n/a	n/a	n/a	n/a	n/a
3346023	RECOG_CONF	n/a	LTP067	ltpFR	6	5	1	CHAMPAGNE	278	n/a	5	0	n/a	n/a	n/a	n/a	n/a
3347667	RECOG_TARGET	n/a	LTP067	ltpFR	6	5	1	RICE	1190	1	5	0	n/a	n/a	n/a	n/a	n/a
3348288	RECOG_RESP	n/a	LTP067	ltpFR	6	5	1	RICE	1190	1	n/a	0	n/a	n/a	n/a	n/a	n/a
3349046	RECOG_CONF	n/a	LTP067	ltpFR	6	5	1	RICE	1190	n/a	5	0	n/a	n/a	n/a	n/a	n/a
3350763	RECOG_LURE	n/a	LTP067	ltpFR	6	5	n/a	RULER	1216	0	5	n/a	n/a	n/a	n/a	n/a	n/a
3351540	RECOG_RESP	n/a	LTP067	ltpFR	6	5	n/a	RULER	1216	0	n/a	n/a	n/a	n/a	n/a	n/a	n/a
3352269	RECOG_CONF	n/a	LTP067	ltpFR	6	5	n/a	RULER	1216	n/a	5	n/a	n/a	n/a	n/a	n/a	n/a
3353918	RECOG_TARGET	n/a	LTP067	ltpFR	6	5	-1	SCOTCH	1251	1	5	-1	n/a	n/a	n/a	n/a	n/a
3354544	RECOG_RESP	n/a	LTP067	ltpFR	6	5	-1	SCOTCH	1251	1	n/a	-1	n/a	n/a	n/a	n/a	n/a
3355392	RECOG_CONF	n/a	LTP067	ltpFR	6	5	-1	SCOTCH	1251	n/a	5	-1	n/a	n/a	n/a	n/a	n/a
3357031	RECOG_TARGET	n/a	LTP067	ltpFR	6	5	0	TUTU	1524	1	5	1	n/a	n/a	n/a	n/a	n/a
3357746	RECOG_RESP	n/a	LTP067	ltpFR	6	5	0	TUTU	1524	1	n/a	1	n/a	n/a	n/a	n/a	n/a
3358624	RECOG_CONF	n/a	LTP067	ltpFR	6	5	0	TUTU	1524	n/a	5	1	n/a	n/a	n/a	n/a	n/a
3360393	RECOG_TARGET	n/a	LTP067	ltpFR	6	5	0	OFFICER	973	0	3	1	n/a	n/a	n/a	n/a	n/a
3361268	RECOG_RESP	n/a	LTP067	ltpFR	6	5	0	OFFICER	973	0	n/a	1	n/a	n/a	n/a	n/a	n/a
3362116	RECOG_CONF	n/a	LTP067	ltpFR	6	5	0	OFFICER	973	n/a	3	1	n/a	n/a	n/a	n/a	n/a
3363706	RECOG_TARGET	n/a	LTP067	ltpFR	6	5	-1	MANSION	864	1	5	-1	n/a	n/a	n/a	n/a	n/a
3364361	RECOG_RESP	n/a	LTP067	ltpFR	6	5	-1	MANSION	864	1	n/a	-1	n/a	n/a	n/a	n/a	n/a
3365239	RECOG_CONF	n/a	LTP067	ltpFR	6	5	-1	MANSION	864	n/a	5	-1	n/a	n/a	n/a	n/a	n/a
3366936	RECOG_LURE	n/a	LTP067	ltpFR	6	5	n/a	REPORT	1184	0	4	n/a	n/a	n/a	n/a	n/a	n/a
3367649	RECOG_RESP	n/a	LTP067	ltpFR	6	5	n/a	REPORT	1184	0	n/a	n/a	n/a	n/a	n/a	n/a	n/a
3368422	RECOG_CONF	n/a	LTP067	ltpFR	6	5	n/a	REPORT	1184	n/a	4	n/a	n/a	n/a	n/a	n/a	n/a
3369949	RECOG_TARGET	n/a	LTP067	ltpFR	6	5	0	FARMER	553	1	5	1	n/a	n/a	n/a	n/a	n/a
3370378	RECOG_RESP	n/a	LTP067	ltpFR	6	5	0	FARMER	553	1	n/a	1	n/a	n/a	n/a	n/a	n/a
3371176	RECOG_CONF	n/a	LTP067	ltpFR	6	5	0	FARMER	553	n/a	5	1	n/a	n/a	n/a	n/a	n/a
3372854	RECOG_LURE	n/a	LTP067	ltpFR	6	5	n/a	HAND	683	0	3	n/a	n/a	n/a	n/a	n/a	n/a
3373590	RECOG_RESP	n/a	LTP067	ltpFR	6	5	n/a	HAND	683	0	n/a	n/a	n/a	n/a	n/a	n/a	n/a
3374428	RECOG_CONF	n/a	LTP067	ltpFR	6	5	n/a	HAND	683	n/a	3	n/a	n/a	n/a	n/a	n/a	n/a
3375967	RECOG_TARGET	n/a	LTP067	ltpFR	6	5	1	WATERFALL	1595	1	5	0	n/a	n/a	n/a	n/a	n/a
3376584	RECOG_RESP	n/a	LTP067	ltpFR	6	5	1	WATERFALL	1595	1	n/a	0	n/a	n/a	n/a	n/a	n/a
3377402	RECOG_CONF	n/a	LTP067	ltpFR	6	5	1	WATERFALL	1595	n/a	5	0	n/a	n/a	n/a	n/a	n/a
3379005	RECOG_TARGET	n/a	LTP067	ltpFR	6	5	0	HEATER	698	1	5	1	n/a	n/a	n/a	n/a	n/a
3379652	RECOG_RESP	n/a	LTP067	ltpFR	6	5	0	HEATER	698	1	n/a	1	n/a	n/a	n/a	n/a	n/a
3380395	RECOG_CONF	n/a	LTP067	ltpFR	6	5	0	HEATER	698	n/a	5	1	n/a	n/a	n/a	n/a	n/a
3384066	REC_START	n/a	LTP067	ltpFR	6	6	n/a	n/a	n/a	n/a	n/a	n/a	n/a	n/a	n/a	n/a	n/a
3384091	RECOG_TARGET	n/a	LTP067	ltpFR	6	6	0	NURSE	963	1	1	1	n/a	n/a	n/a	n/a	n/a
3384610	RECOG_RESP	n/a	LTP067	ltpFR	6	6	0	NURSE	963	1	n/a	1	n/a	n/a	n/a	n/a	n/a
3385655	RECOG_CONF	n/a	LTP067	ltpFR	6	6	0	NURSE	963	n/a	1	1	n/a	n/a	n/a	n/a	n/a
3387004	RECOG_TARGET	n/a	LTP067	ltpFR	6	6	1	HOOP	716	0	2	0	n/a	n/a	n/a	n/a	n/a
3387752	RECOG_RESP	n/a	LTP067	ltpFR	6	6	1	HOOP	716	0	n/a	0	n/a	n/a	n/a	n/a	n/a
3388591	RECOG_CONF	n/a	LTP067	ltpFR	6	6	1	HOOP	716	n/a	2	0	n/a	n/a	n/a	n/a	n/a
3390100	RECOG_LURE	n/a	LTP067	ltpFR	6	6	n/a	TROPHY	1509	0	3	n/a	n/a	n/a	n/a	n/a	n/a
3390885	RECOG_RESP	n/a	LTP067	ltpFR	6	6	n/a	TROPHY	1509	0	n/a	n/a	n/a	n/a	n/a	n/a	n/a
3391743	RECOG_CONF	n/a	LTP067	ltpFR	6	6	n/a	TROPHY	1509	n/a	3	n/a	n/a	n/a	n/a	n/a	n/a
3393280	RECOG_TARGET	n/a	LTP067	ltpFR	6	6	-1	BOAT	144	1	5	-1	n/a	n/a	n/a	n/a	n/a
3394357	RECOG_RESP	n/a	LTP067	ltpFR	6	6	-1	BOAT	144	1	n/a	-1	n/a	n/a	n/a	n/a	n/a
3395016	RECOG_CONF	n/a	LTP067	ltpFR	6	6	-1	BOAT	144	n/a	5	-1	n/a	n/a	n/a	n/a	n/a
3396676	RECOG_LURE	n/a	LTP067	ltpFR	6	6	n/a	ORCHID	982	0	5	n/a	n/a	n/a	n/a	n/a	n/a
3397470	RECOG_RESP	n/a	LTP067	ltpFR	6	6	n/a	ORCHID	982	0	n/a	n/a	n/a	n/a	n/a	n/a	n/a
3398129	RECOG_CONF	n/a	LTP067	ltpFR	6	6	n/a	ORCHID	982	n/a	5	n/a	n/a	n/a	n/a	n/a	n/a
3399764	RECOG_TARGET	n/a	LTP067	ltpFR	6	6	1	BOULDER	155	1	5	0	n/a	n/a	n/a	n/a	n/a
3400324	RECOG_RESP	n/a	LTP067	ltpFR	6	6	1	BOULDER	155	1	n/a	0	n/a	n/a	n/a	n/a	n/a
3400962	RECOG_CONF	n/a	LTP067	ltpFR	6	6	1	BOULDER	155	n/a	5	0	n/a	n/a	n/a	n/a	n/a
3402927	RECOG_TARGET	n/a	LTP067	ltpFR	6	6	-1	MARINE	869	1	5	-1	n/a	n/a	n/a	n/a	n/a
3403497	RECOG_RESP	n/a	LTP067	ltpFR	6	6	-1	MARINE	869	1	n/a	-1	n/a	n/a	n/a	n/a	n/a
3404305	RECOG_CONF	n/a	LTP067	ltpFR	6	6	-1	MARINE	869	n/a	5	-1	n/a	n/a	n/a	n/a	n/a
3405957	RECOG_TARGET	n/a	LTP067	ltpFR	6	6	-1	BROCCOLI	176	1	5	-1	n/a	n/a	n/a	n/a	n/a
3406470	RECOG_RESP	n/a	LTP067	ltpFR	6	6	-1	BROCCOLI	176	1	n/a	-1	n/a	n/a	n/a	n/a	n/a
3407448	RECOG_CONF	n/a	LTP067	ltpFR	6	6	-1	BROCCOLI	176	n/a	5	-1	n/a	n/a	n/a	n/a	n/a
3409061	RECOG_TARGET	n/a	LTP067	ltpFR	6	6	-1	SPARROW	1347	1	5	-1	n/a	n/a	n/a	n/a	n/a
3409762	RECOG_RESP	n/a	LTP067	ltpFR	6	6	-1	SPARROW	1347	1	n/a	-1	n/a	n/a	n/a	n/a	n/a
3410630	RECOG_CONF	n/a	LTP067	ltpFR	6	6	-1	SPARROW	1347	n/a	5	-1	n/a	n/a	n/a	n/a	n/a
3412208	RECOG_TARGET	n/a	LTP067	ltpFR	6	6	0	MATCH	878	1	5	0	n/a	n/a	n/a	n/a	n/a
3412706	RECOG_RESP	n/a	LTP067	ltpFR	6	6	0	MATCH	878	1	n/a	0	n/a	n/a	n/a	n/a	n/a
3413434	RECOG_CONF	n/a	LTP067	ltpFR	6	6	0	MATCH	878	n/a	5	0	n/a	n/a	n/a	n/a	n/a
3415038	RECOG_TARGET	n/a	LTP067	ltpFR	6	6	-1	CHEF	290	1	5	-1	n/a	n/a	n/a	n/a	n/a
3415539	RECOG_RESP	n/a	LTP067	ltpFR	6	6	-1	CHEF	290	1	n/a	-1	n/a	n/a	n/a	n/a	n/a
3416347	RECOG_CONF	n/a	LTP067	ltpFR	6	6	-1	CHEF	290	n/a	5	-1	n/a	n/a	n/a	n/a	n/a
3417959	RECOG_TARGET	n/a	LTP067	ltpFR	6	6	-1	OTTER	986	1	5	-1	n/a	n/a	n/a	n/a	n/a
3418403	RECOG_RESP	n/a	LTP067	ltpFR	6	6	-1	OTTER	986	1	n/a	-1	n/a	n/a	n/a	n/a	n/a
3419261	RECOG_CONF	n/a	LTP067	ltpFR	6	6	-1	OTTER	986	n/a	5	-1	n/a	n/a	n/a	n/a	n/a
3420823	RECOG_TARGET	n/a	LTP067	ltpFR	6	6	1	WALL	1582	1	5	0	n/a	n/a	n/a	n/a	n/a
3421231	RECOG_RESP	n/a	LTP067	ltpFR	6	6	1	WALL	1582	1	n/a	0	n/a	n/a	n/a	n/a	n/a
3422045	RECOG_CONF	n/a	LTP067	ltpFR	6	6	1	WALL	1582	n/a	5	0	n/a	n/a	n/a	n/a	n/a
3423619	RECOG_TARGET	n/a	LTP067	ltpFR	6	6	1	SPY	1360	1	5	1	n/a	n/a	n/a	n/a	n/a
3423980	RECOG_RESP	n/a	LTP067	ltpFR	6	6	1	SPY	1360	1	n/a	1	n/a	n/a	n/a	n/a	n/a
3424778	RECOG_CONF	n/a	LTP067	ltpFR	6	6	1	SPY	1360	n/a	5	1	n/a	n/a	n/a	n/a	n/a
3426400	RECOG_TARGET	n/a	LTP067	ltpFR	6	6	-1	DISC	473	0	1	-1	n/a	n/a	n/a	n/a	n/a
3427318	RECOG_RESP	n/a	LTP067	ltpFR	6	6	-1	DISC	473	0	n/a	-1	n/a	n/a	n/a	n/a	n/a
3428610	RECOG_CONF	n/a	LTP067	ltpFR	6	6	-1	DISC	473	n/a	1	-1	n/a	n/a	n/a	n/a	n/a
3430195	RECOG_TARGET	n/a	LTP067	ltpFR	6	6	1	DONKEY	484	1	5	1	n/a	n/a	n/a	n/a	n/a
3430685	RECOG_RESP	n/a	LTP067	ltpFR	6	6	1	DONKEY	484	1	n/a	1	n/a	n/a	n/a	n/a	n/a
3431493	RECOG_CONF	n/a	LTP067	ltpFR	6	6	1	DONKEY	484	n/a	5	1	n/a	n/a	n/a	n/a	n/a
3433008	RECOG_TARGET	n/a	LTP067	ltpFR	6	6	0	BUCKLE	185	1	5	0	n/a	n/a	n/a	n/a	n/a
3433558	RECOG_RESP	n/a	LTP067	ltpFR	6	6	0	BUCKLE	185	1	n/a	0	n/a	n/a	n/a	n/a	n/a
3434396	RECOG_CONF	n/a	LTP067	ltpFR	6	6	0	BUCKLE	185	n/a	5	0	n/a	n/a	n/a	n/a	n/a
3435897	RECOG_LURE	n/a	LTP067	ltpFR	6	6	n/a	VEGETABLE	1552	0	1	n/a	n/a	n/a	n/a	n/a	n/a
3436981	RECOG_RESP	n/a	LTP067	ltpFR	6	6	n/a	VEGETABLE	1552	0	n/a	n/a	n/a	n/a	n/a	n/a	n/a
3437749	RECOG_CONF	n/a	LTP067	ltpFR	6	6	n/a	VEGETABLE	1552	n/a	1	n/a	n/a	n/a	n/a	n/a	n/a
3439185	RECOG_TARGET	n/a	LTP067	ltpFR	6	6	-1	TIGER	1467	1	5	-1	n/a	n/a	n/a	n/a	n/a
3439704	RECOG_RESP	n/a	LTP067	ltpFR	6	6	-1	TIGER	1467	1	n/a	-1	n/a	n/a	n/a	n/a	n/a
3440582	RECOG_CONF	n/a	LTP067	ltpFR	6	6	-1	TIGER	1467	n/a	5	-1	n/a	n/a	n/a	n/a	n/a
3442223	RECOG_TARGET	n/a	LTP067	ltpFR	6	6	0	DRYER	503	1	5	1	n/a	n/a	n/a	n/a	n/a
3442708	RECOG_RESP	n/a	LTP067	ltpFR	6	6	0	DRYER	503	1	n/a	1	n/a	n/a	n/a	n/a	n/a
3443456	RECOG_CONF	n/a	LTP067	ltpFR	6	6	0	DRYER	503	n/a	5	1	n/a	n/a	n/a	n/a	n/a
3447085	REC_START	n/a	LTP067	ltpFR	6	7	n/a	n/a	n/a	n/a	n/a	n/a	n/a	n/a	n/a	n/a	n/a
3447117	RECOG_TARGET	n/a	LTP067	ltpFR	6	7	-1	CANOE	233	1	5	-1	n/a	n/a	n/a	n/a	n/a
3447808	RECOG_RESP	n/a	LTP067	ltpFR	6	7	-1	CANOE	233	1	n/a	-1	n/a	n/a	n/a	n/a	n/a
3448477	RECOG_CONF	n/a	LTP067	ltpFR	6	7	-1	CANOE	233	n/a	5	-1	n/a	n/a	n/a	n/a	n/a
3450272	RECOG_TARGET	n/a	LTP067	ltpFR	6	7	0	CAFE	216	1	5	1	n/a	n/a	n/a	n/a	n/a
3450851	RECOG_RESP	n/a	LTP067	ltpFR	6	7	0	CAFE	216	1	n/a	1	n/a	n/a	n/a	n/a	n/a
3451729	RECOG_CONF	n/a	LTP067	ltpFR	6	7	0	CAFE	216	n/a	5	1	n/a	n/a	n/a	n/a	n/a
3453609	RECOG_TARGET	n/a	LTP067	ltpFR	6	7	-1	CANE	231	1	5	-1	n/a	n/a	n/a	n/a	n/a
3454124	RECOG_RESP	n/a	LTP067	ltpFR	6	7	-1	CANE	231	1	n/a	-1	n/a	n/a	n/a	n/a	n/a
3455002	RECOG_CONF	n/a	LTP067	ltpFR	6	7	-1	CANE	231	n/a	5	-1	n/a	n/a	n/a	n/a	n/a
3456622	RECOG_LURE	n/a	LTP067	ltpFR	6	7	n/a	ANGEL	22	0	4	n/a	n/a	n/a	n/a	n/a	n/a
3457307	RECOG_RESP	n/a	LTP067	ltpFR	6	7	n/a	ANGEL	22	0	n/a	n/a	n/a	n/a	n/a	n/a	n/a
3458514	RECOG_CONF	n/a	LTP067	ltpFR	6	7	n/a	ANGEL	22	n/a	4	n/a	n/a	n/a	n/a	n/a	n/a
3460210	RECOG_LURE	n/a	LTP067	ltpFR	6	7	n/a	CALENDAR	221	0	5	n/a	n/a	n/a	n/a	n/a	n/a
3460863	RECOG_RESP	n/a	LTP067	ltpFR	6	7	n/a	CALENDAR	221	0	n/a	n/a	n/a	n/a	n/a	n/a	n/a
3462126	RECOG_CONF	n/a	LTP067	ltpFR	6	7	n/a	CALENDAR	221	n/a	5	n/a	n/a	n/a	n/a	n/a	n/a
3464114	RECOG_LURE	n/a	LTP067	ltpFR	6	7	n/a	BUCKET	184	1	1	n/a	n/a	n/a	n/a	n/a	n/a
3464800	RECOG_RESP	n/a	LTP067	ltpFR	6	7	n/a	BUCKET	184	1	n/a	n/a	n/a	n/a	n/a	n/a	n/a
3465737	RECOG_CONF	n/a	LTP067	ltpFR	6	7	n/a	BUCKET	184	n/a	1	n/a	n/a	n/a	n/a	n/a	n/a
3467177	RECOG_TARGET	n/a	LTP067	ltpFR	6	7	-1	PORCH	1106	1	5	-1	n/a	n/a	n/a	n/a	n/a
3468057	RECOG_RESP	n/a	LTP067	ltpFR	6	7	-1	PORCH	1106	1	n/a	-1	n/a	n/a	n/a	n/a	n/a
