mstime	trial_type	stim_file	subject	experiment	session	trial	task	item_name	item_num	recog_conf	resp	color_b	color_g	color_r	case	font
0	SESS_START	n/a	LTP262	ltpFR	1	n/a	n/a	n/a	n/a	n/a	n/a	n/a	n/a	n/a	n/a	n/a
409917	WORD	wordpools/wasnorm_wordpool_less_exclusions.txt	LTP262	ltpFR	1	1	1	PORPOISE	1109	n/a	n/a	0	0.5869140625	0.422607421875	upper	../fonts/zerothre.ttf
412962	SLOW_MSG	n/a	LTP262	ltpFR	1	1	n/a	n/a	n/a	n/a	n/a	n/a	n/a	n/a	n/a	n/a
415455	WORD	wordpools/wasnorm_wordpool_less_exclusions.txt	LTP262	ltpFR	1	1	1	EUROPE	541	n/a	0	0	0.5869140625	0.422607421875	upper	../fonts/zerothre.ttf
419671	WORD	wordpools/wasnorm_wordpool_less_exclusions.txt	LTP262	ltpFR	1	1	1	PASSENGER	1020	n/a	1	0	0.5869140625	0.422607421875	upper	../fonts/zerothre.ttf
423603	WORD	wordpools/wasnorm_wordpool_less_exclusions.txt	LTP262	ltpFR	1	1	1	PILOT	1070	n/a	1	0	0.5869140625	0.422607421875	upper	../fonts/zerothre.ttf
427531	WORD	wordpools/wasnorm_wordpool_less_exclusions.txt	LTP262	ltpFR	1	1	0	GRILL	661	n/a	2	1	0.412841796875	0.57763671875	lower	../fonts/amplitud.ttf
428906	KEY_MSG	n/a	LTP262	ltpFR	1	1	n/a	n/a	n/a	n/a	n/a	n/a	n/a	n/a	n/a	n/a
431465	WORD	wordpools/wasnorm_wordpool_less_exclusions.txt	LTP262	ltpFR	1	1	0	TRAY	1498	n/a	1	1	0.412841796875	0.57763671875	lower	../fonts/amplitud.ttf
435598	WORD	wordpools/wasnorm_wordpool_less_exclusions.txt	LTP262	ltpFR	1	1	0	BEDROOM	111	n/a	1	1	0.412841796875	0.57763671875	lower	../fonts/amplitud.ttf
439512	WORD	wordpools/wasnorm_wordpool_less_exclusions.txt	LTP262	ltpFR	1	1	0	HAY	693	n/a	1	1	0.412841796875	0.57763671875	lower	../fonts/amplitud.ttf
443528	WORD	wordpools/wasnorm_wordpool_less_exclusions.txt	LTP262	ltpFR	1	1	1	BOYFRIEND	162	n/a	1	0	0.5869140625	0.422607421875	upper	../fonts/zerothre.ttf
447476	WORD	wordpools/wasnorm_wordpool_less_exclusions.txt	LTP262	ltpFR	1	1	1	CUFF	423	n/a	0	0	0.5869140625	0.422607421875	upper	../fonts/zerothre.ttf
451491	WORD	wordpools/wasnorm_wordpool_less_exclusions.txt	LTP262	ltpFR	1	1	1	LONDON	843	n/a	0	0	0.5869140625	0.422607421875	upper	../fonts/zerothre.ttf
455373	WORD	wordpools/wasnorm_wordpool_less_exclusions.txt	LTP262	ltpFR	1	1	1	WALLET	1583	n/a	0	0	0.5869140625	0.422607421875	upper	../fonts/zerothre.ttf
459352	WORD	wordpools/wasnorm_wordpool_less_exclusions.txt	LTP262	ltpFR	1	1	0	BRICK	172	n/a	0	1	0.412841796875	0.57763671875	lower	../fonts/amplitud.ttf
463536	WORD	wordpools/wasnorm_wordpool_less_exclusions.txt	LTP262	ltpFR	1	1	0	MULE	931	n/a	1	1	0.412841796875	0.57763671875	lower	../fonts/amplitud.ttf
467668	WORD	wordpools/wasnorm_wordpool_less_exclusions.txt	LTP262	ltpFR	1	1	0	HEEL	700	n/a	0	1	0.412841796875	0.57763671875	lower	../fonts/amplitud.ttf
471533	WORD	wordpools/wasnorm_wordpool_less_exclusions.txt	LTP262	ltpFR	1	1	0	PUPPY	1144	n/a	0	1	0.412841796875	0.57763671875	lower	../fonts/amplitud.ttf
477307	REC_START	n/a	LTP262	ltpFR	1	1	n/a	n/a	n/a	n/a	n/a	n/a	n/a	n/a	n/a	n/a
480197	REC_WORD	wordpools/wasnorm_wordpool_less_exclusions.txt	LTP262	ltpFR	1	1	0	PUPPY	1144	n/a	0	n/a	n/a	n/a	n/a	n/a
480944	REC_WORD	wordpools/wasnorm_wordpool_less_exclusions.txt	LTP262	ltpFR	1	1	0	HEEL	700	n/a	0	n/a	n/a	n/a	n/a	n/a
482796	REC_WORD	wordpools/wasnorm_wordpool_less_exclusions.txt	LTP262	ltpFR	1	1	1	PORPOISE	1109	n/a	n/a	n/a	n/a	n/a	n/a	n/a
484202	REC_WORD	wordpools/wasnorm_wordpool_less_exclusions.txt	LTP262	ltpFR	1	1	0	BRICK	172	n/a	0	n/a	n/a	n/a	n/a	n/a
486052	REC_WORD	wordpools/wasnorm_wordpool_less_exclusions.txt	LTP262	ltpFR	1	1	1	CUFF	423	n/a	0	n/a	n/a	n/a	n/a	n/a
489223	REC_WORD	wordpools/wasnorm_wordpool_less_exclusions.txt	LTP262	ltpFR	1	1	1	BOYFRIEND	162	n/a	1	n/a	n/a	n/a	n/a	n/a
493040	REC_WORD	wordpools/wasnorm_wordpool_less_exclusions.txt	LTP262	ltpFR	1	1	0	MULE	931	n/a	1	n/a	n/a	n/a	n/a	n/a
569386	WORD	wordpools/wasnorm_wordpool_less_exclusions.txt	LTP262	ltpFR	1	2	0	PUPIL	1143	n/a	1	1	0.412841796875	0.57763671875	lower	../fonts/amplitud.ttf
573531	WORD	wordpools/wasnorm_wordpool_less_exclusions.txt	LTP262	ltpFR	1	2	0	WAX	1597	n/a	0	1	0.412841796875	0.57763671875	lower	../fonts/amplitud.ttf
577549	WORD	wordpools/wasnorm_wordpool_less_exclusions.txt	LTP262	ltpFR	1	2	0	WAVE	1596	n/a	1	1	0.412841796875	0.57763671875	lower	../fonts/amplitud.ttf
581682	WORD	wordpools/wasnorm_wordpool_less_exclusions.txt	LTP262	ltpFR	1	2	0	LAKE	796	n/a	1	1	0.412841796875	0.57763671875	lower	../fonts/amplitud.ttf
585630	WORD	wordpools/wasnorm_wordpool_less_exclusions.txt	LTP262	ltpFR	1	2	0	TROUT	1511	n/a	0	1	0.412841796875	0.57763671875	lower	../fonts/amplitud.ttf
589792	WORD	wordpools/wasnorm_wordpool_less_exclusions.txt	LTP262	ltpFR	1	2	1	GRASSHOPPER	656	n/a	1	0	0.5869140625	0.422607421875	upper	../fonts/zerothre.ttf
593894	WORD	wordpools/wasnorm_wordpool_less_exclusions.txt	LTP262	ltpFR	1	2	1	GRASS	655	n/a	1	0	0.5869140625	0.422607421875	upper	../fonts/zerothre.ttf
597722	WORD	wordpools/wasnorm_wordpool_less_exclusions.txt	LTP262	ltpFR	1	2	0	JET	756	n/a	1	1	0.412841796875	0.57763671875	lower	../fonts/amplitud.ttf
601824	WORD	wordpools/wasnorm_wordpool_less_exclusions.txt	LTP262	ltpFR	1	2	0	CANDLE	229	n/a	0	1	0.412841796875	0.57763671875	lower	../fonts/amplitud.ttf
605953	WORD	wordpools/wasnorm_wordpool_less_exclusions.txt	LTP262	ltpFR	1	2	0	ELEVATOR	524	n/a	1	1	0.412841796875	0.57763671875	lower	../fonts/amplitud.ttf
610156	WORD	wordpools/wasnorm_wordpool_less_exclusions.txt	LTP262	ltpFR	1	2	1	ESCALATOR	539	n/a	0	0	0.5869140625	0.422607421875	upper	../fonts/zerothre.ttf
614070	WORD	wordpools/wasnorm_wordpool_less_exclusions.txt	LTP262	ltpFR	1	2	1	NECK	939	n/a	0	0	0.5869140625	0.422607421875	upper	../fonts/zerothre.ttf
618203	WORD	wordpools/wasnorm_wordpool_less_exclusions.txt	LTP262	ltpFR	1	2	1	BLOSSOM	138	n/a	1	0	0.5869140625	0.422607421875	upper	../fonts/zerothre.ttf
622201	WORD	wordpools/wasnorm_wordpool_less_exclusions.txt	LTP262	ltpFR	1	2	1	WARRIOR	1589	n/a	1	0	0.5869140625	0.422607421875	upper	../fonts/zerothre.ttf
626384	WORD	wordpools/wasnorm_wordpool_less_exclusions.txt	LTP262	ltpFR	1	2	1	TUB	1514	n/a	0	0	0.5869140625	0.422607421875	upper	../fonts/zerothre.ttf
630215	WORD	wordpools/wasnorm_wordpool_less_exclusions.txt	LTP262	ltpFR	1	2	1	SKILLET	1317	n/a	0	0	0.5869140625	0.422607421875	upper	../fonts/zerothre.ttf
636121	REC_START	n/a	LTP262	ltpFR	1	2	n/a	n/a	n/a	n/a	n/a	n/a	n/a	n/a	n/a	n/a
637158	REC_WORD	wordpools/wasnorm_wordpool_less_exclusions.txt	LTP262	ltpFR	1	2	1	TUB	1514	n/a	0	n/a	n/a	n/a	n/a	n/a
637596	REC_WORD	wordpools/wasnorm_wordpool_less_exclusions.txt	LTP262	ltpFR	1	2	1	SKILLET	1317	n/a	0	n/a	n/a	n/a	n/a	n/a
639911	REC_WORD	wordpools/wasnorm_wordpool_less_exclusions.txt	LTP262	ltpFR	1	2	1	GRASSHOPPER	656	n/a	1	n/a	n/a	n/a	n/a	n/a
642284	REC_WORD	wordpools/wasnorm_wordpool_less_exclusions.txt	LTP262	ltpFR	1	2	0	BRICK	172	n/a	0	n/a	n/a	n/a	n/a	n/a
646858	REC_WORD	wordpools/wasnorm_wordpool_less_exclusions.txt	LTP262	ltpFR	1	2	0	ELEVATOR	524	n/a	1	n/a	n/a	n/a	n/a	n/a
651555	REC_WORD	wordpools/wasnorm_wordpool_less_exclusions.txt	LTP262	ltpFR	1	2	0	JET	756	n/a	1	n/a	n/a	n/a	n/a	n/a
668048	REC_WORD	wordpools/wasnorm_wordpool_less_exclusions.txt	LTP262	ltpFR	1	2	1	CUFF	423	n/a	0	n/a	n/a	n/a	n/a	n/a
676957	REC_WORD	wordpools/wasnorm_wordpool_less_exclusions.txt	LTP262	ltpFR	1	2	1	ESCALATOR	539	n/a	0	n/a	n/a	n/a	n/a	n/a
689244	REC_WORD	wordpools/wasnorm_wordpool_less_exclusions.txt	LTP262	ltpFR	1	2	0	WAX	1597	n/a	0	n/a	n/a	n/a	n/a	n/a
699823	REC_WORD	wordpools/wasnorm_wordpool_less_exclusions.txt	LTP262	ltpFR	1	2	0	CANDLE	229	n/a	0	n/a	n/a	n/a	n/a	n/a
737386	WORD	wordpools/wasnorm_wordpool_less_exclusions.txt	LTP262	ltpFR	1	3	1	KEEPER	769	n/a	1	0	0.5869140625	0.422607421875	upper	../fonts/zerothre.ttf
741384	WORD	wordpools/wasnorm_wordpool_less_exclusions.txt	LTP262	ltpFR	1	3	1	SANDWICH	1232	n/a	0	0	0.5869140625	0.422607421875	upper	../fonts/zerothre.ttf
745499	WORD	wordpools/wasnorm_wordpool_less_exclusions.txt	LTP262	ltpFR	1	3	1	MEAT	883	n/a	0	0	0.5869140625	0.422607421875	upper	../fonts/zerothre.ttf
749494	WORD	wordpools/wasnorm_wordpool_less_exclusions.txt	LTP262	ltpFR	1	3	1	BUGLE	189	n/a	0	0	0.5869140625	0.422607421875	upper	../fonts/zerothre.ttf
753663	WORD	wordpools/wasnorm_wordpool_less_exclusions.txt	LTP262	ltpFR	1	3	1	SCAPEGOAT	1244	n/a	1	0	0.5869140625	0.422607421875	upper	../fonts/zerothre.ttf
757544	WORD	wordpools/wasnorm_wordpool_less_exclusions.txt	LTP262	ltpFR	1	3	1	COTTAGE	384	n/a	0	0	0.5869140625	0.422607421875	upper	../fonts/zerothre.ttf
761610	WORD	wordpools/wasnorm_wordpool_less_exclusions.txt	LTP262	ltpFR	1	3	1	HOME	712	n/a	0	0	0.5869140625	0.422607421875	upper	../fonts/zerothre.ttf
765675	WORD	wordpools/wasnorm_wordpool_less_exclusions.txt	LTP262	ltpFR	1	3	1	UNICORN	1538	n/a	0	0	0.5869140625	0.422607421875	upper	../fonts/zerothre.ttf
769757	WORD	wordpools/wasnorm_wordpool_less_exclusions.txt	LTP262	ltpFR	1	3	1	OREGANO	983	n/a	1	0	0.5869140625	0.422607421875	upper	../fonts/zerothre.ttf
773722	WORD	wordpools/wasnorm_wordpool_less_exclusions.txt	LTP262	ltpFR	1	3	1	LEOPARD	812	n/a	1	0	0.5869140625	0.422607421875	upper	../fonts/zerothre.ttf
777888	WORD	wordpools/wasnorm_wordpool_less_exclusions.txt	LTP262	ltpFR	1	3	1	BISON	131	n/a	1	0	0.5869140625	0.422607421875	upper	../fonts/zerothre.ttf
782084	WORD	wordpools/wasnorm_wordpool_less_exclusions.txt	LTP262	ltpFR	1	3	1	VET	1560	n/a	1	0	0.5869140625	0.422607421875	upper	../fonts/zerothre.ttf
786119	WORD	wordpools/wasnorm_wordpool_less_exclusions.txt	LTP262	ltpFR	1	3	1	CABIN	211	n/a	0	0	0.5869140625	0.422607421875	upper	../fonts/zerothre.ttf
790248	WORD	wordpools/wasnorm_wordpool_less_exclusions.txt	LTP262	ltpFR	1	3	1	BEAVER	109	n/a	1	0	0.5869140625	0.422607421875	upper	../fonts/zerothre.ttf
794082	WORD	wordpools/wasnorm_wordpool_less_exclusions.txt	LTP262	ltpFR	1	3	1	RANCH	1166	n/a	0	0	0.5869140625	0.422607421875	upper	../fonts/zerothre.ttf
798164	WORD	wordpools/wasnorm_wordpool_less_exclusions.txt	LTP262	ltpFR	1	3	1	WATER	1594	n/a	0	0	0.5869140625	0.422607421875	upper	../fonts/zerothre.ttf
803970	REC_START	n/a	LTP262	ltpFR	1	3	n/a	n/a	n/a	n/a	n/a	n/a	n/a	n/a	n/a	n/a
805232	REC_WORD	wordpools/wasnorm_wordpool_less_exclusions.txt	LTP262	ltpFR	1	3	1	WATER	1594	n/a	0	n/a	n/a	n/a	n/a	n/a
806410	REC_WORD_VV	wordpools/wasnorm_wordpool_less_exclusions.txt	LTP262	ltpFR	1	3	n/a	<>	-1	n/a	n/a	n/a	n/a	n/a	n/a	n/a
806838	REC_WORD	wordpools/wasnorm_wordpool_less_exclusions.txt	LTP262	ltpFR	1	3	1	BISON	131	n/a	1	n/a	n/a	n/a	n/a	n/a
808800	REC_WORD	wordpools/wasnorm_wordpool_less_exclusions.txt	LTP262	ltpFR	1	3	n/a	BUFFALO	186	n/a	n/a	n/a	n/a	n/a	n/a	n/a
810023	REC_WORD	wordpools/wasnorm_wordpool_less_exclusions.txt	LTP262	ltpFR	1	3	1	MEAT	883	n/a	0	n/a	n/a	n/a	n/a	n/a
813285	REC_WORD	wordpools/wasnorm_wordpool_less_exclusions.txt	LTP262	ltpFR	1	3	1	SANDWICH	1232	n/a	0	n/a	n/a	n/a	n/a	n/a
815499	REC_WORD	wordpools/wasnorm_wordpool_less_exclusions.txt	LTP262	ltpFR	1	3	1	UNICORN	1538	n/a	0	n/a	n/a	n/a	n/a	n/a
836196	REC_WORD	wordpools/wasnorm_wordpool_less_exclusions.txt	LTP262	ltpFR	1	3	1	RANCH	1166	n/a	0	n/a	n/a	n/a	n/a	n/a
838456	REC_WORD	wordpools/wasnorm_wordpool_less_exclusions.txt	LTP262	ltpFR	1	3	1	OREGANO	983	n/a	1	n/a	n/a	n/a	n/a	n/a
845112	REC_WORD	wordpools/wasnorm_wordpool_less_exclusions.txt	LTP262	ltpFR	1	3	1	BLOSSOM	138	n/a	1	n/a	n/a	n/a	n/a	n/a
899797	WORD	wordpools/wasnorm_wordpool_less_exclusions.txt	LTP262	ltpFR	1	4	-1	GARLIC	624	n/a	-1	1	1.0	1.0	upper	../fonts/Verdana.ttf
903893	WORD	wordpools/wasnorm_wordpool_less_exclusions.txt	LTP262	ltpFR	1	4	-1	PASSAGE	1019	n/a	-1	1	1.0	1.0	upper	../fonts/Verdana.ttf
907727	WORD	wordpools/wasnorm_wordpool_less_exclusions.txt	LTP262	ltpFR	1	4	-1	STREAM	1392	n/a	-1	1	1.0	1.0	upper	../fonts/Verdana.ttf
911625	WORD	wordpools/wasnorm_wordpool_less_exclusions.txt	LTP262	ltpFR	1	4	-1	SAP	1233	n/a	-1	1	1.0	1.0	upper	../fonts/Verdana.ttf
915557	WORD	wordpools/wasnorm_wordpool_less_exclusions.txt	LTP262	ltpFR	1	4	-1	CIGAR	308	n/a	-1	1	1.0	1.0	upper	../fonts/Verdana.ttf
919555	WORD	wordpools/wasnorm_wordpool_less_exclusions.txt	LTP262	ltpFR	1	4	-1	BUFFALO	186	n/a	-1	1	1.0	1.0	upper	../fonts/Verdana.ttf
923436	WORD	wordpools/wasnorm_wordpool_less_exclusions.txt	LTP262	ltpFR	1	4	-1	SURF	1412	n/a	-1	1	1.0	1.0	upper	../fonts/Verdana.ttf
927301	WORD	wordpools/wasnorm_wordpool_less_exclusions.txt	LTP262	ltpFR	1	4	-1	BRANCH	168	n/a	-1	1	1.0	1.0	upper	../fonts/Verdana.ttf
931367	WORD	wordpools/wasnorm_wordpool_less_exclusions.txt	LTP262	ltpFR	1	4	-1	COOKIE	374	n/a	-1	1	1.0	1.0	upper	../fonts/Verdana.ttf
935248	WORD	wordpools/wasnorm_wordpool_less_exclusions.txt	LTP262	ltpFR	1	4	-1	GUM	672	n/a	-1	1	1.0	1.0	upper	../fonts/Verdana.ttf
939296	WORD	wordpools/wasnorm_wordpool_less_exclusions.txt	LTP262	ltpFR	1	4	-1	NAPKIN	937	n/a	-1	1	1.0	1.0	upper	../fonts/Verdana.ttf
943362	WORD	wordpools/wasnorm_wordpool_less_exclusions.txt	LTP262	ltpFR	1	4	-1	TYPEWRITER	1531	n/a	-1	1	1.0	1.0	upper	../fonts/Verdana.ttf
947411	WORD	wordpools/wasnorm_wordpool_less_exclusions.txt	LTP262	ltpFR	1	4	-1	PRESIDENT	1121	n/a	-1	1	1.0	1.0	upper	../fonts/Verdana.ttf
951291	WORD	wordpools/wasnorm_wordpool_less_exclusions.txt	LTP262	ltpFR	1	4	-1	CLIMBER	323	n/a	-1	1	1.0	1.0	upper	../fonts/Verdana.ttf
955437	WORD	wordpools/wasnorm_wordpool_less_exclusions.txt	LTP262	ltpFR	1	4	-1	JEWEL	757	n/a	-1	1	1.0	1.0	upper	../fonts/Verdana.ttf
959503	WORD	wordpools/wasnorm_wordpool_less_exclusions.txt	LTP262	ltpFR	1	4	-1	RUBY	1214	n/a	-1	1	1.0	1.0	upper	../fonts/Verdana.ttf
965128	REC_START	n/a	LTP262	ltpFR	1	4	n/a	n/a	n/a	n/a	n/a	n/a	n/a	n/a	n/a	n/a
965837	REC_WORD	wordpools/wasnorm_wordpool_less_exclusions.txt	LTP262	ltpFR	1	4	-1	JEWEL	757	n/a	-1	n/a	n/a	n/a	n/a	n/a
966634	REC_WORD	wordpools/wasnorm_wordpool_less_exclusions.txt	LTP262	ltpFR	1	4	-1	RUBY	1214	n/a	-1	n/a	n/a	n/a	n/a	n/a
967499	REC_WORD	wordpools/wasnorm_wordpool_less_exclusions.txt	LTP262	ltpFR	1	4	-1	PRESIDENT	1121	n/a	-1	n/a	n/a	n/a	n/a	n/a
968406	REC_WORD	wordpools/wasnorm_wordpool_less_exclusions.txt	LTP262	ltpFR	1	4	-1	TYPEWRITER	1531	n/a	-1	n/a	n/a	n/a	n/a	n/a
973451	REC_WORD	wordpools/wasnorm_wordpool_less_exclusions.txt	LTP262	ltpFR	1	4	-1	BUFFALO	186	n/a	-1	n/a	n/a	n/a	n/a	n/a
977976	REC_WORD	wordpools/wasnorm_wordpool_less_exclusions.txt	LTP262	ltpFR	1	4	-1	COOKIE	374	n/a	-1	n/a	n/a	n/a	n/a	n/a
980856	REC_WORD	wordpools/wasnorm_wordpool_less_exclusions.txt	LTP262	ltpFR	1	4	-1	GUM	672	n/a	-1	n/a	n/a	n/a	n/a	n/a
988523	REC_WORD	wordpools/wasnorm_wordpool_less_exclusions.txt	LTP262	ltpFR	1	4	-1	STREAM	1392	n/a	-1	n/a	n/a	n/a	n/a	n/a
994102	REC_WORD	wordpools/wasnorm_wordpool_less_exclusions.txt	LTP262	ltpFR	1	4	0	WAVE	1596	n/a	1	n/a	n/a	n/a	n/a	n/a
1001248	REC_WORD	wordpools/wasnorm_wordpool_less_exclusions.txt	LTP262	ltpFR	1	4	-1	PRESIDENT	1121	n/a	-1	n/a	n/a	n/a	n/a	n/a
1067245	WORD	wordpools/wasnorm_wordpool_less_exclusions.txt	LTP262	ltpFR	1	5	1	MOTH	920	n/a	1	0	0.5869140625	0.422607421875	upper	../fonts/zerothre.ttf
1071409	WORD	wordpools/wasnorm_wordpool_less_exclusions.txt	LTP262	ltpFR	1	5	1	PARTY	1018	n/a	0	0	0.5869140625	0.422607421875	upper	../fonts/zerothre.ttf
1075326	WORD	wordpools/wasnorm_wordpool_less_exclusions.txt	LTP262	ltpFR	1	5	0	SCREWDRIVER	1255	n/a	0	1	0.412841796875	0.57763671875	lower	../fonts/amplitud.ttf
1079491	WORD	wordpools/wasnorm_wordpool_less_exclusions.txt	LTP262	ltpFR	1	5	0	PEAR	1033	n/a	0	1	0.412841796875	0.57763671875	lower	../fonts/amplitud.ttf
1083357	WORD	wordpools/wasnorm_wordpool_less_exclusions.txt	LTP262	ltpFR	1	5	0	BLACKBERRY	132	n/a	0	1	0.412841796875	0.57763671875	lower	../fonts/amplitud.ttf
1087220	WORD	wordpools/wasnorm_wordpool_less_exclusions.txt	LTP262	ltpFR	1	5	0	WAITRESS	1581	n/a	1	1	0.412841796875	0.57763671875	lower	../fonts/amplitud.ttf
1091269	WORD	wordpools/wasnorm_wordpool_less_exclusions.txt	LTP262	ltpFR	1	5	1	BANQUET	86	n/a	0	0	0.5869140625	0.422607421875	upper	../fonts/zerothre.ttf
1095335	WORD	wordpools/wasnorm_wordpool_less_exclusions.txt	LTP262	ltpFR	1	5	1	HOSTESS	723	n/a	1	0	0.5869140625	0.422607421875	upper	../fonts/zerothre.ttf
1099249	WORD	wordpools/wasnorm_wordpool_less_exclusions.txt	LTP262	ltpFR	1	5	1	CRICKET	408	n/a	1	0	0.5869140625	0.422607421875	upper	../fonts/zerothre.ttf
1103130	WORD	wordpools/wasnorm_wordpool_less_exclusions.txt	LTP262	ltpFR	1	5	1	ELM	527	n/a	1	0	0.5869140625	0.422607421875	upper	../fonts/zerothre.ttf
1107129	WORD	wordpools/wasnorm_wordpool_less_exclusions.txt	LTP262	ltpFR	1	5	1	THORN	1459	n/a	0	0	0.5869140625	0.422607421875	upper	../fonts/zerothre.ttf
1111309	WORD	wordpools/wasnorm_wordpool_less_exclusions.txt	LTP262	ltpFR	1	5	1	WARDROBE	1587	n/a	0	0	0.5869140625	0.422607421875	upper	../fonts/zerothre.ttf
1115460	WORD	wordpools/wasnorm_wordpool_less_exclusions.txt	LTP262	ltpFR	1	5	0	SPOON	1357	n/a	0	1	0.412841796875	0.57763671875	lower	../fonts/amplitud.ttf
1119342	WORD	wordpools/wasnorm_wordpool_less_exclusions.txt	LTP262	ltpFR	1	5	0	MOTEL	919	n/a	1	1	0.412841796875	0.57763671875	lower	../fonts/amplitud.ttf
1123256	WORD	wordpools/wasnorm_wordpool_less_exclusions.txt	LTP262	ltpFR	1	5	0	RAG	1160	n/a	0	1	0.412841796875	0.57763671875	lower	../fonts/amplitud.ttf
1127373	WORD	wordpools/wasnorm_wordpool_less_exclusions.txt	LTP262	ltpFR	1	5	0	MUG	930	n/a	0	1	0.412841796875	0.57763671875	lower	../fonts/amplitud.ttf
1133329	REC_START	n/a	LTP262	ltpFR	1	5	n/a	n/a	n/a	n/a	n/a	n/a	n/a	n/a	n/a	n/a
1134071	REC_WORD	wordpools/wasnorm_wordpool_less_exclusions.txt	LTP262	ltpFR	1	5	0	RAG	1160	n/a	0	n/a	n/a	n/a	n/a	n/a
1134863	REC_WORD	wordpools/wasnorm_wordpool_less_exclusions.txt	LTP262	ltpFR	1	5	0	MUG	930	n/a	0	n/a	n/a	n/a	n/a	n/a
1135501	REC_WORD	wordpools/wasnorm_wordpool_less_exclusions.txt	LTP262	ltpFR	1	5	n/a	SMALL	-1	n/a	n/a	n/a	n/a	n/a	n/a	n/a
1138002	REC_WORD	wordpools/wasnorm_wordpool_less_exclusions.txt	LTP262	ltpFR	1	5	0	WAITRESS	1581	n/a	1	n/a	n/a	n/a	n/a	n/a
1139585	REC_WORD	wordpools/wasnorm_wordpool_less_exclusions.txt	LTP262	ltpFR	1	5	1	MOTH	920	n/a	1	n/a	n/a	n/a	n/a	n/a
1142491	REC_WORD	wordpools/wasnorm_wordpool_less_exclusions.txt	LTP262	ltpFR	1	5	0	MUG	930	n/a	0	n/a	n/a	n/a	n/a	n/a
1148528	REC_WORD	wordpools/wasnorm_wordpool_less_exclusions.txt	LTP262	ltpFR	1	5	1	HOSTESS	723	n/a	1	n/a	n/a	n/a	n/a	n/a
1151500	REC_WORD	wordpools/wasnorm_wordpool_less_exclusions.txt	LTP262	ltpFR	1	5	-1	COOKIE	374	n/a	-1	n/a	n/a	n/a	n/a	n/a
1156160	REC_WORD	wordpools/wasnorm_wordpool_less_exclusions.txt	LTP262	ltpFR	1	5	0	SPOON	1357	n/a	0	n/a	n/a	n/a	n/a	n/a
1167820	REC_WORD	wordpools/wasnorm_wordpool_less_exclusions.txt	LTP262	ltpFR	1	5	1	PARTY	1018	n/a	0	n/a	n/a	n/a	n/a	n/a
1204986	REC_WORD	wordpools/wasnorm_wordpool_less_exclusions.txt	LTP262	ltpFR	1	5	n/a	JUG	762	n/a	n/a	n/a	n/a	n/a	n/a	n/a
1242389	WORD	wordpools/wasnorm_wordpool_less_exclusions.txt	LTP262	ltpFR	1	6	1	VAMPIRE	1547	n/a	1	0	0.5869140625	0.422607421875	upper	../fonts/zerothre.ttf
1246371	WORD	wordpools/wasnorm_wordpool_less_exclusions.txt	LTP262	ltpFR	1	6	1	AUDIENCE	59	n/a	1	0	0.5869140625	0.422607421875	upper	../fonts/zerothre.ttf
1250569	WORD	wordpools/wasnorm_wordpool_less_exclusions.txt	LTP262	ltpFR	1	6	0	BEETLE	116	n/a	0	1	0.412841796875	0.57763671875	lower	../fonts/amplitud.ttf
1254601	WORD	wordpools/wasnorm_wordpool_less_exclusions.txt	LTP262	ltpFR	1	6	0	SWATTER	1418	n/a	1	1	0.412841796875	0.57763671875	lower	../fonts/amplitud.ttf
1258814	WORD	wordpools/wasnorm_wordpool_less_exclusions.txt	LTP262	ltpFR	1	6	0	MECHANIC	884	n/a	1	1	0.412841796875	0.57763671875	lower	../fonts/amplitud.ttf
1263016	WORD	wordpools/wasnorm_wordpool_less_exclusions.txt	LTP262	ltpFR	1	6	0	WHEEL	1603	n/a	1	1	0.412841796875	0.57763671875	lower	../fonts/amplitud.ttf
1266881	WORD	wordpools/wasnorm_wordpool_less_exclusions.txt	LTP262	ltpFR	1	6	1	FIG	563	n/a	1	0	0.5869140625	0.422607421875	upper	../fonts/zerothre.ttf
1270776	WORD	wordpools/wasnorm_wordpool_less_exclusions.txt	LTP262	ltpFR	1	6	1	PELT	1040	n/a	0	0	0.5869140625	0.422607421875	upper	../fonts/zerothre.ttf
1274757	WORD	wordpools/wasnorm_wordpool_less_exclusions.txt	LTP262	ltpFR	1	6	0	ATHLETE	52	n/a	1	1	0.412841796875	0.57763671875	lower	../fonts/amplitud.ttf
1278608	WORD	wordpools/wasnorm_wordpool_less_exclusions.txt	LTP262	ltpFR	1	6	0	SCENERY	1247	n/a	1	1	0.412841796875	0.57763671875	lower	../fonts/amplitud.ttf
1282690	WORD	wordpools/wasnorm_wordpool_less_exclusions.txt	LTP262	ltpFR	1	6	0	ROOT	1210	n/a	1	1	0.412841796875	0.57763671875	lower	../fonts/amplitud.ttf
1286823	WORD	wordpools/wasnorm_wordpool_less_exclusions.txt	LTP262	ltpFR	1	6	0	TAG	1429	n/a	0	1	0.412841796875	0.57763671875	lower	../fonts/amplitud.ttf
1290670	WORD	wordpools/wasnorm_wordpool_less_exclusions.txt	LTP262	ltpFR	1	6	1	CINNAMON	310	n/a	0	0	0.5869140625	0.422607421875	upper	../fonts/zerothre.ttf
1294736	WORD	wordpools/wasnorm_wordpool_less_exclusions.txt	LTP262	ltpFR	1	6	1	TART	1436	n/a	0	0	0.5869140625	0.422607421875	upper	../fonts/zerothre.ttf
1298698	WORD	wordpools/wasnorm_wordpool_less_exclusions.txt	LTP262	ltpFR	1	6	1	PORTRAIT	1111	n/a	1	0	0.5869140625	0.422607421875	upper	../fonts/zerothre.ttf
1302666	WORD	wordpools/wasnorm_wordpool_less_exclusions.txt	LTP262	ltpFR	1	6	1	CANVAS	234	n/a	0	0	0.5869140625	0.422607421875	upper	../fonts/zerothre.ttf
1308673	REC_START	n/a	LTP262	ltpFR	1	6	n/a	n/a	n/a	n/a	n/a	n/a	n/a	n/a	n/a	n/a
1309725	REC_WORD	wordpools/wasnorm_wordpool_less_exclusions.txt	LTP262	ltpFR	1	6	1	CANVAS	234	n/a	0	n/a	n/a	n/a	n/a	n/a
1310854	REC_WORD	wordpools/wasnorm_wordpool_less_exclusions.txt	LTP262	ltpFR	1	6	1	TART	1436	n/a	0	n/a	n/a	n/a	n/a	n/a
1314387	REC_WORD	wordpools/wasnorm_wordpool_less_exclusions.txt	LTP262	ltpFR	1	6	1	CINNAMON	310	n/a	0	n/a	n/a	n/a	n/a	n/a
1317311	REC_WORD	wordpools/wasnorm_wordpool_less_exclusions.txt	LTP262	ltpFR	1	6	0	RAG	1160	n/a	0	n/a	n/a	n/a	n/a	n/a
1323528	REC_WORD	wordpools/wasnorm_wordpool_less_exclusions.txt	LTP262	ltpFR	1	6	0	MECHANIC	884	n/a	1	n/a	n/a	n/a	n/a	n/a
1330972	REC_WORD	wordpools/wasnorm_wordpool_less_exclusions.txt	LTP262	ltpFR	1	6	0	WHEEL	1603	n/a	1	n/a	n/a	n/a	n/a	n/a
1343409	REC_WORD	wordpools/wasnorm_wordpool_less_exclusions.txt	LTP262	ltpFR	1	6	1	THORN	1459	n/a	0	n/a	n/a	n/a	n/a	n/a
1349506	REC_WORD	wordpools/wasnorm_wordpool_less_exclusions.txt	LTP262	ltpFR	1	6	0	ROOT	1210	n/a	1	n/a	n/a	n/a	n/a	n/a
1360479	REC_WORD	wordpools/wasnorm_wordpool_less_exclusions.txt	LTP262	ltpFR	1	6	0	WAITRESS	1581	n/a	1	n/a	n/a	n/a	n/a	n/a
1371596	REC_WORD	wordpools/wasnorm_wordpool_less_exclusions.txt	LTP262	ltpFR	1	6	-1	JEWEL	757	n/a	-1	n/a	n/a	n/a	n/a	n/a
1423287	WORD	wordpools/wasnorm_wordpool_less_exclusions.txt	LTP262	ltpFR	1	7	-1	PRINCESS	1125	n/a	-1	1	1.0	1.0	upper	../fonts/Verdana.ttf
1427202	WORD	wordpools/wasnorm_wordpool_less_exclusions.txt	LTP262	ltpFR	1	7	-1	STRAWBERRY	1391	n/a	-1	1	1.0	1.0	upper	../fonts/Verdana.ttf
1431049	WORD	wordpools/wasnorm_wordpool_less_exclusions.txt	LTP262	ltpFR	1	7	-1	PAIL	1002	n/a	-1	1	1.0	1.0	upper	../fonts/Verdana.ttf
1434964	WORD	wordpools/wasnorm_wordpool_less_exclusions.txt	LTP262	ltpFR	1	7	-1	REGISTER	1180	n/a	-1	1	1.0	1.0	upper	../fonts/Verdana.ttf
1438912	WORD	wordpools/wasnorm_wordpool_less_exclusions.txt	LTP262	ltpFR	1	7	-1	BALLOT	76	n/a	-1	1	1.0	1.0	upper	../fonts/Verdana.ttf
1442777	WORD	wordpools/wasnorm_wordpool_less_exclusions.txt	LTP262	ltpFR	1	7	-1	RESTAURANT	1187	n/a	-1	1	1.0	1.0	upper	../fonts/Verdana.ttf
1446993	WORD	wordpools/wasnorm_wordpool_less_exclusions.txt	LTP262	ltpFR	1	7	-1	FARMER	553	n/a	-1	1	1.0	1.0	upper	../fonts/Verdana.ttf
1450838	WORD	wordpools/wasnorm_wordpool_less_exclusions.txt	LTP262	ltpFR	1	7	-1	ASTEROID	50	n/a	-1	1	1.0	1.0	upper	../fonts/Verdana.ttf
1454756	WORD	wordpools/wasnorm_wordpool_less_exclusions.txt	LTP262	ltpFR	1	7	-1	SPACE	1345	n/a	-1	1	1.0	1.0	upper	../fonts/Verdana.ttf
1458804	WORD	wordpools/wasnorm_wordpool_less_exclusions.txt	LTP262	ltpFR	1	7	-1	BUILDER	190	n/a	-1	1	1.0	1.0	upper	../fonts/Verdana.ttf
1462869	WORD	wordpools/wasnorm_wordpool_less_exclusions.txt	LTP262	ltpFR	1	7	-1	CANAL	226	n/a	-1	1	1.0	1.0	upper	../fonts/Verdana.ttf
1466801	WORD	wordpools/wasnorm_wordpool_less_exclusions.txt	LTP262	ltpFR	1	7	-1	CABLE	213	n/a	-1	1	1.0	1.0	upper	../fonts/Verdana.ttf
1470682	WORD	wordpools/wasnorm_wordpool_less_exclusions.txt	LTP262	ltpFR	1	7	-1	MAILBOX	857	n/a	-1	1	1.0	1.0	upper	../fonts/Verdana.ttf
1474547	WORD	wordpools/wasnorm_wordpool_less_exclusions.txt	LTP262	ltpFR	1	7	-1	EMPEROR	529	n/a	-1	1	1.0	1.0	upper	../fonts/Verdana.ttf
1478545	WORD	wordpools/wasnorm_wordpool_less_exclusions.txt	LTP262	ltpFR	1	7	-1	OYSTER	995	n/a	-1	1	1.0	1.0	upper	../fonts/Verdana.ttf
1482426	WORD	wordpools/wasnorm_wordpool_less_exclusions.txt	LTP262	ltpFR	1	7	-1	CRAB	397	n/a	-1	1	1.0	1.0	upper	../fonts/Verdana.ttf
1488065	REC_START	n/a	LTP262	ltpFR	1	7	n/a	n/a	n/a	n/a	n/a	n/a	n/a	n/a	n/a	n/a
1488597	REC_WORD	wordpools/wasnorm_wordpool_less_exclusions.txt	LTP262	ltpFR	1	7	-1	OYSTER	995	n/a	-1	n/a	n/a	n/a	n/a	n/a
1489378	REC_WORD	wordpools/wasnorm_wordpool_less_exclusions.txt	LTP262	ltpFR	1	7	-1	CRAB	397	n/a	-1	n/a	n/a	n/a	n/a	n/a
1490497	REC_WORD	wordpools/wasnorm_wordpool_less_exclusions.txt	LTP262	ltpFR	1	7	-1	EMPEROR	529	n/a	-1	n/a	n/a	n/a	n/a	n/a
1491527	REC_WORD	wordpools/wasnorm_wordpool_less_exclusions.txt	LTP262	ltpFR	1	7	-1	STRAWBERRY	1391	n/a	-1	n/a	n/a	n/a	n/a	n/a
1493947	REC_WORD	wordpools/wasnorm_wordpool_less_exclusions.txt	LTP262	ltpFR	1	7	-1	ASTEROID	50	n/a	-1	n/a	n/a	n/a	n/a	n/a
1495931	REC_WORD	wordpools/wasnorm_wordpool_less_exclusions.txt	LTP262	ltpFR	1	7	-1	SPACE	1345	n/a	-1	n/a	n/a	n/a	n/a	n/a
1508113	REC_WORD	wordpools/wasnorm_wordpool_less_exclusions.txt	LTP262	ltpFR	1	7	-1	RESTAURANT	1187	n/a	-1	n/a	n/a	n/a	n/a	n/a
1513742	REC_WORD	wordpools/wasnorm_wordpool_less_exclusions.txt	LTP262	ltpFR	1	7	-1	FARMER	553	n/a	-1	n/a	n/a	n/a	n/a	n/a
1541742	REC_WORD	wordpools/wasnorm_wordpool_less_exclusions.txt	LTP262	ltpFR	1	7	-1	OYSTER	995	n/a	-1	n/a	n/a	n/a	n/a	n/a
1548546	REC_WORD	wordpools/wasnorm_wordpool_less_exclusions.txt	LTP262	ltpFR	1	7	n/a	CLAM	315	n/a	n/a	n/a	n/a	n/a	n/a	n/a
1560035	REC_WORD	wordpools/wasnorm_wordpool_less_exclusions.txt	LTP262	ltpFR	1	7	-1	STRAWBERRY	1391	n/a	-1	n/a	n/a	n/a	n/a	n/a
1584946	WORD	wordpools/wasnorm_wordpool_less_exclusions.txt	LTP262	ltpFR	1	8	1	LIGHTER	819	n/a	0	0	0.5869140625	0.422607421875	upper	../fonts/zerothre.ttf
1589112	WORD	wordpools/wasnorm_wordpool_less_exclusions.txt	LTP262	ltpFR	1	8	1	SMOG	1330	n/a	0	0	0.5869140625	0.422607421875	upper	../fonts/zerothre.ttf
1592976	WORD	wordpools/wasnorm_wordpool_less_exclusions.txt	LTP262	ltpFR	1	8	1	ANTLER	29	n/a	0	0	0.5869140625	0.422607421875	upper	../fonts/zerothre.ttf
1596975	WORD	wordpools/wasnorm_wordpool_less_exclusions.txt	LTP262	ltpFR	1	8	1	FLESH	579	n/a	1	0	0.5869140625	0.422607421875	upper	../fonts/zerothre.ttf
1600923	WORD	wordpools/wasnorm_wordpool_less_exclusions.txt	LTP262	ltpFR	1	8	1	BEARD	107	n/a	1	0	0.5869140625	0.422607421875	upper	../fonts/zerothre.ttf
1604905	WORD	wordpools/wasnorm_wordpool_less_exclusions.txt	LTP262	ltpFR	1	8	1	BROOM	178	n/a	0	0	0.5869140625	0.422607421875	upper	../fonts/zerothre.ttf
1609087	WORD	wordpools/wasnorm_wordpool_less_exclusions.txt	LTP262	ltpFR	1	8	1	PANTHER	1009	n/a	1	0	0.5869140625	0.422607421875	upper	../fonts/zerothre.ttf
1612999	WORD	wordpools/wasnorm_wordpool_less_exclusions.txt	LTP262	ltpFR	1	8	1	CAT	257	n/a	1	0	0.5869140625	0.422607421875	upper	../fonts/zerothre.ttf
1616883	WORD	wordpools/wasnorm_wordpool_less_exclusions.txt	LTP262	ltpFR	1	8	1	INCENSE	735	n/a	0	0	0.5869140625	0.422607421875	upper	../fonts/zerothre.ttf
1621015	WORD	wordpools/wasnorm_wordpool_less_exclusions.txt	LTP262	ltpFR	1	8	1	ONION	977	n/a	1	0	0.5869140625	0.422607421875	upper	../fonts/zerothre.ttf
1624997	WORD	wordpools/wasnorm_wordpool_less_exclusions.txt	LTP262	ltpFR	1	8	1	DEER	444	n/a	1	0	0.5869140625	0.422607421875	upper	../fonts/zerothre.ttf
1628895	WORD	wordpools/wasnorm_wordpool_less_exclusions.txt	LTP262	ltpFR	1	8	1	LETTER	813	n/a	0	0	0.5869140625	0.422607421875	upper	../fonts/zerothre.ttf
1632840	WORD	wordpools/wasnorm_wordpool_less_exclusions.txt	LTP262	ltpFR	1	8	1	BRUNETTE	181	n/a	1	0	0.5869140625	0.422607421875	upper	../fonts/zerothre.ttf
1636925	WORD	wordpools/wasnorm_wordpool_less_exclusions.txt	LTP262	ltpFR	1	8	1	MARROW	872	n/a	1	0	0.5869140625	0.422607421875	upper	../fonts/zerothre.ttf
1640890	WORD	wordpools/wasnorm_wordpool_less_exclusions.txt	LTP262	ltpFR	1	8	1	JUDGE	761	n/a	1	0	0.5869140625	0.422607421875	upper	../fonts/zerothre.ttf
1644939	WORD	wordpools/wasnorm_wordpool_less_exclusions.txt	LTP262	ltpFR	1	8	1	CHICK	296	n/a	1	0	0.5869140625	0.422607421875	upper	../fonts/zerothre.ttf
1650778	REC_START	n/a	LTP262	ltpFR	1	8	n/a	n/a	n/a	n/a	n/a	n/a	n/a	n/a	n/a	n/a
1651654	REC_WORD	wordpools/wasnorm_wordpool_less_exclusions.txt	LTP262	ltpFR	1	8	1	MARROW	872	n/a	1	n/a	n/a	n/a	n/a	n/a
1652931	REC_WORD	wordpools/wasnorm_wordpool_less_exclusions.txt	LTP262	ltpFR	1	8	1	DEER	444	n/a	1	n/a	n/a	n/a	n/a	n/a
1655889	REC_WORD	wordpools/wasnorm_wordpool_less_exclusions.txt	LTP262	ltpFR	1	8	1	JUDGE	761	n/a	1	n/a	n/a	n/a	n/a	n/a
1661374	REC_WORD	wordpools/wasnorm_wordpool_less_exclusions.txt	LTP262	ltpFR	1	8	1	ANTLER	29	n/a	0	n/a	n/a	n/a	n/a	n/a
1664198	REC_WORD	wordpools/wasnorm_wordpool_less_exclusions.txt	LTP262	ltpFR	1	8	1	ONION	977	n/a	1	n/a	n/a	n/a	n/a	n/a
1708051	REC_WORD	wordpools/wasnorm_wordpool_less_exclusions.txt	LTP262	ltpFR	1	8	1	WATER	1594	n/a	0	n/a	n/a	n/a	n/a	n/a
1751792	WORD	wordpools/wasnorm_wordpool_less_exclusions.txt	LTP262	ltpFR	1	9	0	CONDUCTOR	362	n/a	1	1	0.412841796875	0.57763671875	lower	../fonts/amplitud.ttf
1755656	WORD	wordpools/wasnorm_wordpool_less_exclusions.txt	LTP262	ltpFR	1	9	0	PITCHFORK	1078	n/a	1	1	0.412841796875	0.57763671875	lower	../fonts/amplitud.ttf
1759521	WORD	wordpools/wasnorm_wordpool_less_exclusions.txt	LTP262	ltpFR	1	9	0	EGG	518	n/a	0	1	0.412841796875	0.57763671875	lower	../fonts/amplitud.ttf
1763653	WORD	wordpools/wasnorm_wordpool_less_exclusions.txt	LTP262	ltpFR	1	9	0	MUFFIN	929	n/a	0	1	0.412841796875	0.57763671875	lower	../fonts/amplitud.ttf
1767685	WORD	wordpools/wasnorm_wordpool_less_exclusions.txt	LTP262	ltpFR	1	9	0	BLUEJAY	141	n/a	0	1	0.412841796875	0.57763671875	lower	../fonts/amplitud.ttf
1771733	WORD	wordpools/wasnorm_wordpool_less_exclusions.txt	LTP262	ltpFR	1	9	0	ORNAMENT	985	n/a	0	1	0.412841796875	0.57763671875	lower	../fonts/amplitud.ttf
1775749	WORD	wordpools/wasnorm_wordpool_less_exclusions.txt	LTP262	ltpFR	1	9	0	DONKEY	484	n/a	1	1	0.412841796875	0.57763671875	lower	../fonts/amplitud.ttf
1779898	WORD	wordpools/wasnorm_wordpool_less_exclusions.txt	LTP262	ltpFR	1	9	0	ALLIGATOR	16	n/a	1	1	0.412841796875	0.57763671875	lower	../fonts/amplitud.ttf
1783729	WORD	wordpools/wasnorm_wordpool_less_exclusions.txt	LTP262	ltpFR	1	9	0	MAYONNAISE	880	n/a	0	1	0.412841796875	0.57763671875	lower	../fonts/amplitud.ttf
1787710	WORD	wordpools/wasnorm_wordpool_less_exclusions.txt	LTP262	ltpFR	1	9	0	RAILROAD	1162	n/a	1	1	0.412841796875	0.57763671875	lower	../fonts/amplitud.ttf
1791843	WORD	wordpools/wasnorm_wordpool_less_exclusions.txt	LTP262	ltpFR	1	9	0	ARENA	37	n/a	1	1	0.412841796875	0.57763671875	lower	../fonts/amplitud.ttf
1796058	WORD	wordpools/wasnorm_wordpool_less_exclusions.txt	LTP262	ltpFR	1	9	0	UMPIRE	1535	n/a	1	1	0.412841796875	0.57763671875	lower	../fonts/amplitud.ttf
1800071	WORD	wordpools/wasnorm_wordpool_less_exclusions.txt	LTP262	ltpFR	1	9	0	SWAMP	1416	n/a	1	1	0.412841796875	0.57763671875	lower	../fonts/amplitud.ttf
1804206	WORD	wordpools/wasnorm_wordpool_less_exclusions.txt	LTP262	ltpFR	1	9	0	PLUM	1090	n/a	0	1	0.412841796875	0.57763671875	lower	../fonts/amplitud.ttf
1808353	WORD	wordpools/wasnorm_wordpool_less_exclusions.txt	LTP262	ltpFR	1	9	0	BERRY	122	n/a	0	1	0.412841796875	0.57763671875	lower	../fonts/amplitud.ttf
1812504	WORD	wordpools/wasnorm_wordpool_less_exclusions.txt	LTP262	ltpFR	1	9	0	EWE	542	n/a	1	1	0.412841796875	0.57763671875	lower	../fonts/amplitud.ttf
1818427	REC_START	n/a	LTP262	ltpFR	1	9	n/a	n/a	n/a	n/a	n/a	n/a	n/a	n/a	n/a	n/a
1819396	REC_WORD	wordpools/wasnorm_wordpool_less_exclusions.txt	LTP262	ltpFR	1	9	0	EWE	542	n/a	1	n/a	n/a	n/a	n/a	n/a
1820416	REC_WORD	wordpools/wasnorm_wordpool_less_exclusions.txt	LTP262	ltpFR	1	9	0	BERRY	122	n/a	0	n/a	n/a	n/a	n/a	n/a
1821191	REC_WORD	wordpools/wasnorm_wordpool_less_exclusions.txt	LTP262	ltpFR	1	9	0	UMPIRE	1535	n/a	1	n/a	n/a	n/a	n/a	n/a
1822011	REC_WORD	wordpools/wasnorm_wordpool_less_exclusions.txt	LTP262	ltpFR	1	9	-1	STRAWBERRY	1391	n/a	-1	n/a	n/a	n/a	n/a	n/a
1829186	REC_WORD	wordpools/wasnorm_wordpool_less_exclusions.txt	LTP262	ltpFR	1	9	0	MAYONNAISE	880	n/a	0	n/a	n/a	n/a	n/a	n/a
1838115	REC_WORD	wordpools/wasnorm_wordpool_less_exclusions.txt	LTP262	ltpFR	1	9	0	DONKEY	484	n/a	1	n/a	n/a	n/a	n/a	n/a
1841671	REC_WORD	wordpools/wasnorm_wordpool_less_exclusions.txt	LTP262	ltpFR	1	9	0	EWE	542	n/a	1	n/a	n/a	n/a	n/a	n/a
1853881	REC_WORD	wordpools/wasnorm_wordpool_less_exclusions.txt	LTP262	ltpFR	1	9	0	ARENA	37	n/a	1	n/a	n/a	n/a	n/a	n/a
1861296	REC_WORD	wordpools/wasnorm_wordpool_less_exclusions.txt	LTP262	ltpFR	1	9	1	JUDGE	761	n/a	1	n/a	n/a	n/a	n/a	n/a
1877641	REC_WORD	wordpools/wasnorm_wordpool_less_exclusions.txt	LTP262	ltpFR	1	9	0	BRICK	172	n/a	0	n/a	n/a	n/a	n/a	n/a
1879103	REC_WORD	wordpools/wasnorm_wordpool_less_exclusions.txt	LTP262	ltpFR	1	9	0	PITCHFORK	1078	n/a	1	n/a	n/a	n/a	n/a	n/a
1888425	REC_WORD	wordpools/wasnorm_wordpool_less_exclusions.txt	LTP262	ltpFR	1	9	1	RANCH	1166	n/a	0	n/a	n/a	n/a	n/a	n/a
1927705	WORD	wordpools/wasnorm_wordpool_less_exclusions.txt	LTP262	ltpFR	1	10	-1	BLUEPRINT	142	n/a	-1	1	1.0	1.0	upper	../fonts/Verdana.ttf
1931870	WORD	wordpools/wasnorm_wordpool_less_exclusions.txt	LTP262	ltpFR	1	10	-1	SHEET	1279	n/a	-1	1	1.0	1.0	upper	../fonts/Verdana.ttf
1935752	WORD	wordpools/wasnorm_wordpool_less_exclusions.txt	LTP262	ltpFR	1	10	-1	CART	250	n/a	-1	1	1.0	1.0	upper	../fonts/Verdana.ttf
1939683	WORD	wordpools/wasnorm_wordpool_less_exclusions.txt	LTP262	ltpFR	1	10	-1	HONEY	713	n/a	-1	1	1.0	1.0	upper	../fonts/Verdana.ttf
1943531	WORD	wordpools/wasnorm_wordpool_less_exclusions.txt	LTP262	ltpFR	1	10	-1	TROMBONE	1508	n/a	-1	1	1.0	1.0	upper	../fonts/Verdana.ttf
1947377	WORD	wordpools/wasnorm_wordpool_less_exclusions.txt	LTP262	ltpFR	1	10	-1	TRUMPET	1513	n/a	-1	1	1.0	1.0	upper	../fonts/Verdana.ttf
1951412	WORD	wordpools/wasnorm_wordpool_less_exclusions.txt	LTP262	ltpFR	1	10	-1	PIE	1062	n/a	-1	1	1.0	1.0	upper	../fonts/Verdana.ttf
1955593	WORD	wordpools/wasnorm_wordpool_less_exclusions.txt	LTP262	ltpFR	1	10	-1	FIST	572	n/a	-1	1	1.0	1.0	upper	../fonts/Verdana.ttf
1959625	WORD	wordpools/wasnorm_wordpool_less_exclusions.txt	LTP262	ltpFR	1	10	-1	STREET	1393	n/a	-1	1	1.0	1.0	upper	../fonts/Verdana.ttf
1963774	WORD	wordpools/wasnorm_wordpool_less_exclusions.txt	LTP262	ltpFR	1	10	-1	ANTENNA	28	n/a	-1	1	1.0	1.0	upper	../fonts/Verdana.ttf
1967987	WORD	wordpools/wasnorm_wordpool_less_exclusions.txt	LTP262	ltpFR	1	10	-1	GLOVE	642	n/a	-1	1	1.0	1.0	upper	../fonts/Verdana.ttf
1972002	WORD	wordpools/wasnorm_wordpool_less_exclusions.txt	LTP262	ltpFR	1	10	-1	JAR	750	n/a	-1	1	1.0	1.0	upper	../fonts/Verdana.ttf
1975853	WORD	wordpools/wasnorm_wordpool_less_exclusions.txt	LTP262	ltpFR	1	10	-1	CUCUMBER	421	n/a	-1	1	1.0	1.0	upper	../fonts/Verdana.ttf
1979834	WORD	wordpools/wasnorm_wordpool_less_exclusions.txt	LTP262	ltpFR	1	10	-1	LADY	794	n/a	-1	1	1.0	1.0	upper	../fonts/Verdana.ttf
1983983	WORD	wordpools/wasnorm_wordpool_less_exclusions.txt	LTP262	ltpFR	1	10	-1	DASHBOARD	441	n/a	-1	1	1.0	1.0	upper	../fonts/Verdana.ttf
1988015	WORD	wordpools/wasnorm_wordpool_less_exclusions.txt	LTP262	ltpFR	1	10	-1	TAR	1435	n/a	-1	1	1.0	1.0	upper	../fonts/Verdana.ttf
1993788	REC_START	n/a	LTP262	ltpFR	1	10	n/a	n/a	n/a	n/a	n/a	n/a	n/a	n/a	n/a	n/a
1994977	REC_WORD	wordpools/wasnorm_wordpool_less_exclusions.txt	LTP262	ltpFR	1	10	-1	TAR	1435	n/a	-1	n/a	n/a	n/a	n/a	n/a
1997969	REC_WORD	wordpools/wasnorm_wordpool_less_exclusions.txt	LTP262	ltpFR	1	10	-1	DASHBOARD	441	n/a	-1	n/a	n/a	n/a	n/a	n/a
1999683	REC_WORD	wordpools/wasnorm_wordpool_less_exclusions.txt	LTP262	ltpFR	1	10	-1	HONEY	713	n/a	-1	n/a	n/a	n/a	n/a	n/a
2004248	REC_WORD	wordpools/wasnorm_wordpool_less_exclusions.txt	LTP262	ltpFR	1	10	-1	JAR	750	n/a	-1	n/a	n/a	n/a	n/a	n/a
2012596	REC_WORD	wordpools/wasnorm_wordpool_less_exclusions.txt	LTP262	ltpFR	1	10	-1	FIST	572	n/a	-1	n/a	n/a	n/a	n/a	n/a
2017966	REC_WORD	wordpools/wasnorm_wordpool_less_exclusions.txt	LTP262	ltpFR	1	10	0	MAYONNAISE	880	n/a	0	n/a	n/a	n/a	n/a	n/a
2043515	REC_WORD	wordpools/wasnorm_wordpool_less_exclusions.txt	LTP262	ltpFR	1	10	-1	BLUEPRINT	142	n/a	-1	n/a	n/a	n/a	n/a	n/a
2045208	REC_WORD	wordpools/wasnorm_wordpool_less_exclusions.txt	LTP262	ltpFR	1	10	-1	SHEET	1279	n/a	-1	n/a	n/a	n/a	n/a	n/a
2109590	WORD	wordpools/wasnorm_wordpool_less_exclusions.txt	LTP262	ltpFR	1	11	0	WEED	1599	n/a	0	1	0.412841796875	0.57763671875	lower	../fonts/amplitud.ttf
2113689	WORD	wordpools/wasnorm_wordpool_less_exclusions.txt	LTP262	ltpFR	1	11	0	KIDNEY	776	n/a	0	1	0.412841796875	0.57763671875	lower	../fonts/amplitud.ttf
2117520	WORD	wordpools/wasnorm_wordpool_less_exclusions.txt	LTP262	ltpFR	1	11	0	DRAWING	494	n/a	1	1	0.412841796875	0.57763671875	lower	../fonts/amplitud.ttf
2121416	WORD	wordpools/wasnorm_wordpool_less_exclusions.txt	LTP262	ltpFR	1	11	0	STEM	1376	n/a	0	1	0.412841796875	0.57763671875	lower	../fonts/amplitud.ttf
2125584	WORD	wordpools/wasnorm_wordpool_less_exclusions.txt	LTP262	ltpFR	1	11	1	ANTEATER	26	n/a	1	0	0.5869140625	0.422607421875	upper	../fonts/zerothre.ttf
2129582	WORD	wordpools/wasnorm_wordpool_less_exclusions.txt	LTP262	ltpFR	1	11	1	MAMMAL	861	n/a	1	0	0.5869140625	0.422607421875	upper	../fonts/zerothre.ttf
2133647	WORD	wordpools/wasnorm_wordpool_less_exclusions.txt	LTP262	ltpFR	1	11	1	BEAD	103	n/a	0	0	0.5869140625	0.422607421875	upper	../fonts/zerothre.ttf
2137827	WORD	wordpools/wasnorm_wordpool_less_exclusions.txt	LTP262	ltpFR	1	11	1	ANGEL	22	n/a	1	0	0.5869140625	0.422607421875	upper	../fonts/zerothre.ttf
2142012	WORD	wordpools/wasnorm_wordpool_less_exclusions.txt	LTP262	ltpFR	1	11	1	TELESCOPE	1446	n/a	0	0	0.5869140625	0.422607421875	upper	../fonts/zerothre.ttf
2146008	WORD	wordpools/wasnorm_wordpool_less_exclusions.txt	LTP262	ltpFR	1	11	1	HINGE	709	n/a	0	0	0.5869140625	0.422607421875	upper	../fonts/zerothre.ttf
2150093	WORD	wordpools/wasnorm_wordpool_less_exclusions.txt	LTP262	ltpFR	1	11	0	DOOR	486	n/a	1	1	0.412841796875	0.57763671875	lower	../fonts/amplitud.ttf
2154105	WORD	wordpools/wasnorm_wordpool_less_exclusions.txt	LTP262	ltpFR	1	11	0	DIGGER	464	n/a	1	1	0.412841796875	0.57763671875	lower	../fonts/amplitud.ttf
2158103	WORD	wordpools/wasnorm_wordpool_less_exclusions.txt	LTP262	ltpFR	1	11	0	PAINTER	1004	n/a	1	1	0.412841796875	0.57763671875	lower	../fonts/amplitud.ttf
2162071	WORD	wordpools/wasnorm_wordpool_less_exclusions.txt	LTP262	ltpFR	1	11	0	OATMEAL	967	n/a	0	1	0.412841796875	0.57763671875	lower	../fonts/amplitud.ttf
2166033	WORD	wordpools/wasnorm_wordpool_less_exclusions.txt	LTP262	ltpFR	1	11	1	CAFE	216	n/a	0	0	0.5869140625	0.422607421875	upper	../fonts/zerothre.ttf
2170168	WORD	wordpools/wasnorm_wordpool_less_exclusions.txt	LTP262	ltpFR	1	11	1	PEACH	1031	n/a	1	0	0.5869140625	0.422607421875	upper	../fonts/zerothre.ttf
2175790	REC_START	n/a	LTP262	ltpFR	1	11	n/a	n/a	n/a	n/a	n/a	n/a	n/a	n/a	n/a	n/a
2176802	REC_WORD	wordpools/wasnorm_wordpool_less_exclusions.txt	LTP262	ltpFR	1	11	1	PEACH	1031	n/a	1	n/a	n/a	n/a	n/a	n/a
2180279	REC_WORD	wordpools/wasnorm_wordpool_less_exclusions.txt	LTP262	ltpFR	1	11	0	DOOR	486	n/a	1	n/a	n/a	n/a	n/a	n/a
2184534	REC_WORD	wordpools/wasnorm_wordpool_less_exclusions.txt	LTP262	ltpFR	1	11	1	HINGE	709	n/a	0	n/a	n/a	n/a	n/a	n/a
2187733	REC_WORD	wordpools/wasnorm_wordpool_less_exclusions.txt	LTP262	ltpFR	1	11	0	OATMEAL	967	n/a	0	n/a	n/a	n/a	n/a	n/a
2228136	REC_WORD	wordpools/wasnorm_wordpool_less_exclusions.txt	LTP262	ltpFR	1	11	0	DRAWING	494	n/a	1	n/a	n/a	n/a	n/a	n/a
2231277	REC_WORD	wordpools/wasnorm_wordpool_less_exclusions.txt	LTP262	ltpFR	1	11	1	ANGEL	22	n/a	1	n/a	n/a	n/a	n/a	n/a
2239046	REC_WORD	wordpools/wasnorm_wordpool_less_exclusions.txt	LTP262	ltpFR	1	11	0	DONKEY	484	n/a	1	n/a	n/a	n/a	n/a	n/a
2246542	REC_WORD	wordpools/wasnorm_wordpool_less_exclusions.txt	LTP262	ltpFR	1	11	1	CAFE	216	n/a	0	n/a	n/a	n/a	n/a	n/a
2278661	WORD	wordpools/wasnorm_wordpool_less_exclusions.txt	LTP262	ltpFR	1	12	0	DOUGHNUT	490	n/a	0	1	0.412841796875	0.57763671875	lower	../fonts/amplitud.ttf
2282807	WORD	wordpools/wasnorm_wordpool_less_exclusions.txt	LTP262	ltpFR	1	12	0	PERCH	1048	n/a	1	1	0.412841796875	0.57763671875	lower	../fonts/amplitud.ttf
2286841	WORD	wordpools/wasnorm_wordpool_less_exclusions.txt	LTP262	ltpFR	1	12	0	BAY	102	n/a	0	1	0.412841796875	0.57763671875	lower	../fonts/amplitud.ttf
2290689	WORD	wordpools/wasnorm_wordpool_less_exclusions.txt	LTP262	ltpFR	1	12	0	LITTER	832	n/a	1	1	0.412841796875	0.57763671875	lower	../fonts/amplitud.ttf
2294752	WORD	wordpools/wasnorm_wordpool_less_exclusions.txt	LTP262	ltpFR	1	12	0	MOSQUITO	917	n/a	0	1	0.412841796875	0.57763671875	lower	../fonts/amplitud.ttf
2298650	WORD	wordpools/wasnorm_wordpool_less_exclusions.txt	LTP262	ltpFR	1	12	0	BEET	115	n/a	0	1	0.412841796875	0.57763671875	lower	../fonts/amplitud.ttf
2302668	WORD	wordpools/wasnorm_wordpool_less_exclusions.txt	LTP262	ltpFR	1	12	0	GORILLA	650	n/a	1	1	0.412841796875	0.57763671875	lower	../fonts/amplitud.ttf
2306499	WORD	wordpools/wasnorm_wordpool_less_exclusions.txt	LTP262	ltpFR	1	12	0	COOKBOOK	373	n/a	0	1	0.412841796875	0.57763671875	lower	../fonts/amplitud.ttf
2310480	WORD	wordpools/wasnorm_wordpool_less_exclusions.txt	LTP262	ltpFR	1	12	0	LITERATURE	831	n/a	1	1	0.412841796875	0.57763671875	lower	../fonts/amplitud.ttf
2314696	WORD	wordpools/wasnorm_wordpool_less_exclusions.txt	LTP262	ltpFR	1	12	0	CAULIFLOWER	262	n/a	0	1	0.412841796875	0.57763671875	lower	../fonts/amplitud.ttf
2318575	WORD	wordpools/wasnorm_wordpool_less_exclusions.txt	LTP262	ltpFR	1	12	0	MICROWAVE	892	n/a	1	1	0.412841796875	0.57763671875	lower	../fonts/amplitud.ttf
2322727	WORD	wordpools/wasnorm_wordpool_less_exclusions.txt	LTP262	ltpFR	1	12	0	LOLLIPOP	842	n/a	0	1	0.412841796875	0.57763671875	lower	../fonts/amplitud.ttf
2326876	WORD	wordpools/wasnorm_wordpool_less_exclusions.txt	LTP262	ltpFR	1	12	0	FUDGE	611	n/a	0	1	0.412841796875	0.57763671875	lower	../fonts/amplitud.ttf
2330974	WORD	wordpools/wasnorm_wordpool_less_exclusions.txt	LTP262	ltpFR	1	12	0	JOURNAL	760	n/a	0	1	0.412841796875	0.57763671875	lower	../fonts/amplitud.ttf
2334836	WORD	wordpools/wasnorm_wordpool_less_exclusions.txt	LTP262	ltpFR	1	12	0	LIBRARY	816	n/a	1	1	0.412841796875	0.57763671875	lower	../fonts/amplitud.ttf
2338988	WORD	wordpools/wasnorm_wordpool_less_exclusions.txt	LTP262	ltpFR	1	12	0	RIVER	1194	n/a	1	1	0.412841796875	0.57763671875	lower	../fonts/amplitud.ttf
2344894	REC_START	n/a	LTP262	ltpFR	1	12	n/a	n/a	n/a	n/a	n/a	n/a	n/a	n/a	n/a	n/a
2345480	REC_WORD	wordpools/wasnorm_wordpool_less_exclusions.txt	LTP262	ltpFR	1	12	0	JOURNAL	760	n/a	0	n/a	n/a	n/a	n/a	n/a
2346314	REC_WORD	wordpools/wasnorm_wordpool_less_exclusions.txt	LTP262	ltpFR	1	12	0	RIVER	1194	n/a	1	n/a	n/a	n/a	n/a	n/a
2366035	REC_WORD	wordpools/wasnorm_wordpool_less_exclusions.txt	LTP262	ltpFR	1	12	0	STEM	1376	n/a	0	n/a	n/a	n/a	n/a	n/a
2389109	REC_WORD	wordpools/wasnorm_wordpool_less_exclusions.txt	LTP262	ltpFR	1	12	0	DONKEY	484	n/a	1	n/a	n/a	n/a	n/a	n/a
2394693	REC_WORD	wordpools/wasnorm_wordpool_less_exclusions.txt	LTP262	ltpFR	1	12	0	RIVER	1194	n/a	1	n/a	n/a	n/a	n/a	n/a
2420545	REST_REWET	n/a	LTP262	ltpFR	1	12	n/a	n/a	n/a	n/a	n/a	n/a	n/a	n/a	n/a	n/a
3372968	WORD	wordpools/wasnorm_wordpool_less_exclusions.txt	LTP262	ltpFR	1	13	0	CLASS	318	n/a	n/a	1	0.412841796875	0.57763671875	lower	../fonts/amplitud.ttf
3376013	SLOW_MSG	n/a	LTP262	ltpFR	1	13	n/a	n/a	n/a	n/a	n/a	n/a	n/a	n/a	n/a	n/a
3378572	WORD	wordpools/wasnorm_wordpool_less_exclusions.txt	LTP262	ltpFR	1	13	0	DRIVEWAY	500	n/a	1	1	0.412841796875	0.57763671875	lower	../fonts/amplitud.ttf
3382571	WORD	wordpools/wasnorm_wordpool_less_exclusions.txt	LTP262	ltpFR	1	13	0	COCOON	339	n/a	0	1	0.412841796875	0.57763671875	lower	../fonts/amplitud.ttf
3386586	WORD	wordpools/wasnorm_wordpool_less_exclusions.txt	LTP262	ltpFR	1	13	0	CORPORATION	382	n/a	1	1	0.412841796875	0.57763671875	lower	../fonts/amplitud.ttf
3390431	WORD	wordpools/wasnorm_wordpool_less_exclusions.txt	LTP262	ltpFR	1	13	1	ASSISTANT	48	n/a	1	0	0.5869140625	0.422607421875	upper	../fonts/zerothre.ttf
3394479	WORD	wordpools/wasnorm_wordpool_less_exclusions.txt	LTP262	ltpFR	1	13	1	EXPERT	543	n/a	1	0	0.5869140625	0.422607421875	upper	../fonts/zerothre.ttf
3398431	WORD	wordpools/wasnorm_wordpool_less_exclusions.txt	LTP262	ltpFR	1	13	1	PROFESSIONAL	1130	n/a	1	0	0.5869140625	0.422607421875	upper	../fonts/zerothre.ttf
3402462	WORD	wordpools/wasnorm_wordpool_less_exclusions.txt	LTP262	ltpFR	1	13	1	JAM	748	n/a	0	0	0.5869140625	0.422607421875	upper	../fonts/zerothre.ttf
3406478	WORD	wordpools/wasnorm_wordpool_less_exclusions.txt	LTP262	ltpFR	1	13	1	APPENDAGE	32	n/a	0	0	0.5869140625	0.422607421875	upper	../fonts/zerothre.ttf
3410610	WORD	wordpools/wasnorm_wordpool_less_exclusions.txt	LTP262	ltpFR	1	13	1	SCALLOP	1242	n/a	1	0	0.5869140625	0.422607421875	upper	../fonts/zerothre.ttf
3414541	WORD	wordpools/wasnorm_wordpool_less_exclusions.txt	LTP262	ltpFR	1	13	0	CUPBOARD	425	n/a	1	1	0.412841796875	0.57763671875	lower	../fonts/amplitud.ttf
3418604	WORD	wordpools/wasnorm_wordpool_less_exclusions.txt	LTP262	ltpFR	1	13	0	PISTON	1076	n/a	0	1	0.412841796875	0.57763671875	lower	../fonts/amplitud.ttf
3422471	WORD	wordpools/wasnorm_wordpool_less_exclusions.txt	LTP262	ltpFR	1	13	1	TANK	1432	n/a	0	0	0.5869140625	0.422607421875	upper	../fonts/zerothre.ttf
3426520	WORD	wordpools/wasnorm_wordpool_less_exclusions.txt	LTP262	ltpFR	1	13	1	VIDEO	1564	n/a	0	0	0.5869140625	0.422607421875	upper	../fonts/zerothre.ttf
3430719	WORD	wordpools/wasnorm_wordpool_less_exclusions.txt	LTP262	ltpFR	1	13	0	FLASK	576	n/a	0	1	0.412841796875	0.57763671875	lower	../fonts/amplitud.ttf
3434667	WORD	wordpools/wasnorm_wordpool_less_exclusions.txt	LTP262	ltpFR	1	13	0	BIOLOGIST	128	n/a	1	1	0.412841796875	0.57763671875	lower	../fonts/amplitud.ttf
3440524	REC_START	n/a	LTP262	ltpFR	1	13	n/a	n/a	n/a	n/a	n/a	n/a	n/a	n/a	n/a	n/a
3441069	REC_WORD	wordpools/wasnorm_wordpool_less_exclusions.txt	LTP262	ltpFR	1	13	0	FLASK	576	n/a	0	n/a	n/a	n/a	n/a	n/a
3442197	REC_WORD	wordpools/wasnorm_wordpool_less_exclusions.txt	LTP262	ltpFR	1	13	0	BIOLOGIST	128	n/a	1	n/a	n/a	n/a	n/a	n/a
3445331	REC_WORD	wordpools/wasnorm_wordpool_less_exclusions.txt	LTP262	ltpFR	1	13	0	COCOON	339	n/a	0	n/a	n/a	n/a	n/a	n/a
3462281	REC_WORD	wordpools/wasnorm_wordpool_less_exclusions.txt	LTP262	ltpFR	1	13	0	CUPBOARD	425	n/a	1	n/a	n/a	n/a	n/a	n/a
3476140	REC_WORD	wordpools/wasnorm_wordpool_less_exclusions.txt	LTP262	ltpFR	1	13	0	PISTON	1076	n/a	0	n/a	n/a	n/a	n/a	n/a
3502390	REC_WORD	wordpools/wasnorm_wordpool_less_exclusions.txt	LTP262	ltpFR	1	13	0	CLASS	318	n/a	n/a	n/a	n/a	n/a	n/a	n/a
3504332	REC_WORD	wordpools/wasnorm_wordpool_less_exclusions.txt	LTP262	ltpFR	1	13	1	PROFESSIONAL	1130	n/a	1	n/a	n/a	n/a	n/a	n/a
3538492	WORD	wordpools/wasnorm_wordpool_less_exclusions.txt	LTP262	ltpFR	1	14	0	SHOWER	1296	n/a	1	1	0.412841796875	0.57763671875	lower	../fonts/amplitud.ttf
3542574	WORD	wordpools/wasnorm_wordpool_less_exclusions.txt	LTP262	ltpFR	1	14	0	SALOON	1228	n/a	1	1	0.412841796875	0.57763671875	lower	../fonts/amplitud.ttf
3546773	WORD	wordpools/wasnorm_wordpool_less_exclusions.txt	LTP262	ltpFR	1	14	0	WALNUT	1584	n/a	0	1	0.412841796875	0.57763671875	lower	../fonts/amplitud.ttf
3550718	WORD	wordpools/wasnorm_wordpool_less_exclusions.txt	LTP262	ltpFR	1	14	0	PILLOW	1069	n/a	1	1	0.412841796875	0.57763671875	lower	../fonts/amplitud.ttf
3554636	WORD	wordpools/wasnorm_wordpool_less_exclusions.txt	LTP262	ltpFR	1	14	0	PATIO	1025	n/a	1	1	0.412841796875	0.57763671875	lower	../fonts/amplitud.ttf
3558514	WORD	wordpools/wasnorm_wordpool_less_exclusions.txt	LTP262	ltpFR	1	14	0	PASTRY	1022	n/a	0	1	0.412841796875	0.57763671875	lower	../fonts/amplitud.ttf
3562449	WORD	wordpools/wasnorm_wordpool_less_exclusions.txt	LTP262	ltpFR	1	14	0	CREW	406	n/a	1	1	0.412841796875	0.57763671875	lower	../fonts/amplitud.ttf
3566514	WORD	wordpools/wasnorm_wordpool_less_exclusions.txt	LTP262	ltpFR	1	14	0	DESSERT	453	n/a	0	1	0.412841796875	0.57763671875	lower	../fonts/amplitud.ttf
3570713	WORD	wordpools/wasnorm_wordpool_less_exclusions.txt	LTP262	ltpFR	1	14	0	CHIMNEY	301	n/a	1	1	0.412841796875	0.57763671875	lower	../fonts/amplitud.ttf
3574692	WORD	wordpools/wasnorm_wordpool_less_exclusions.txt	LTP262	ltpFR	1	14	0	BATH	98	n/a	1	1	0.412841796875	0.57763671875	lower	../fonts/amplitud.ttf
3578727	WORD	wordpools/wasnorm_wordpool_less_exclusions.txt	LTP262	ltpFR	1	14	0	ICING	732	n/a	0	1	0.412841796875	0.57763671875	lower	../fonts/amplitud.ttf
3582809	WORD	wordpools/wasnorm_wordpool_less_exclusions.txt	LTP262	ltpFR	1	14	0	SWORD	1423	n/a	1	1	0.412841796875	0.57763671875	lower	../fonts/amplitud.ttf
3586891	WORD	wordpools/wasnorm_wordpool_less_exclusions.txt	LTP262	ltpFR	1	14	0	UTENSIL	1542	n/a	0	1	0.412841796875	0.57763671875	lower	../fonts/amplitud.ttf
3591107	WORD	wordpools/wasnorm_wordpool_less_exclusions.txt	LTP262	ltpFR	1	14	0	FOREHEAD	592	n/a	1	1	0.412841796875	0.57763671875	lower	../fonts/amplitud.ttf
3595038	WORD	wordpools/wasnorm_wordpool_less_exclusions.txt	LTP262	ltpFR	1	14	0	CROW	414	n/a	1	1	0.412841796875	0.57763671875	lower	../fonts/amplitud.ttf
3598987	WORD	wordpools/wasnorm_wordpool_less_exclusions.txt	LTP262	ltpFR	1	14	0	PIGEON	1065	n/a	0	1	0.412841796875	0.57763671875	lower	../fonts/amplitud.ttf
3604559	REC_START	n/a	LTP262	ltpFR	1	14	n/a	n/a	n/a	n/a	n/a	n/a	n/a	n/a	n/a	n/a
3605343	REC_WORD	wordpools/wasnorm_wordpool_less_exclusions.txt	LTP262	ltpFR	1	14	0	CROW	414	n/a	1	n/a	n/a	n/a	n/a	n/a
3606180	REC_WORD	wordpools/wasnorm_wordpool_less_exclusions.txt	LTP262	ltpFR	1	14	0	PIGEON	1065	n/a	0	n/a	n/a	n/a	n/a	n/a
3608284	REC_WORD	wordpools/wasnorm_wordpool_less_exclusions.txt	LTP262	ltpFR	1	14	0	CHIMNEY	301	n/a	1	n/a	n/a	n/a	n/a	n/a
3613239	REC_WORD	wordpools/wasnorm_wordpool_less_exclusions.txt	LTP262	ltpFR	1	14	0	SHOWER	1296	n/a	1	n/a	n/a	n/a	n/a	n/a
3614384	REC_WORD	wordpools/wasnorm_wordpool_less_exclusions.txt	LTP262	ltpFR	1	14	0	BATH	98	n/a	1	n/a	n/a	n/a	n/a	n/a
3625803	REC_WORD	wordpools/wasnorm_wordpool_less_exclusions.txt	LTP262	ltpFR	1	14	0	WALNUT	1584	n/a	0	n/a	n/a	n/a	n/a	n/a
3635866	REC_WORD	wordpools/wasnorm_wordpool_less_exclusions.txt	LTP262	ltpFR	1	14	0	CREW	406	n/a	1	n/a	n/a	n/a	n/a	n/a
3646465	REC_WORD	wordpools/wasnorm_wordpool_less_exclusions.txt	LTP262	ltpFR	1	14	0	FOREHEAD	592	n/a	1	n/a	n/a	n/a	n/a	n/a
3674549	REC_WORD	wordpools/wasnorm_wordpool_less_exclusions.txt	LTP262	ltpFR	1	14	0	WAITRESS	1581	n/a	1	n/a	n/a	n/a	n/a	n/a
3713133	WORD	wordpools/wasnorm_wordpool_less_exclusions.txt	LTP262	ltpFR	1	15	1	BEVERAGE	123	n/a	0	0	0.5869140625	0.422607421875	upper	../fonts/zerothre.ttf
3717015	WORD	wordpools/wasnorm_wordpool_less_exclusions.txt	LTP262	ltpFR	1	15	1	KEG	770	n/a	0	0	0.5869140625	0.422607421875	upper	../fonts/zerothre.ttf
3721177	WORD	wordpools/wasnorm_wordpool_less_exclusions.txt	LTP262	ltpFR	1	15	1	GOWN	652	n/a	0	0	0.5869140625	0.422607421875	upper	../fonts/zerothre.ttf
3725196	WORD	wordpools/wasnorm_wordpool_less_exclusions.txt	LTP262	ltpFR	1	15	1	CUB	419	n/a	1	0	0.5869140625	0.422607421875	upper	../fonts/zerothre.ttf
3729110	WORD	wordpools/wasnorm_wordpool_less_exclusions.txt	LTP262	ltpFR	1	15	1	ATTIC	56	n/a	0	0	0.5869140625	0.422607421875	upper	../fonts/zerothre.ttf
3732992	WORD	wordpools/wasnorm_wordpool_less_exclusions.txt	LTP262	ltpFR	1	15	1	WELL	1600	n/a	0	0	0.5869140625	0.422607421875	upper	../fonts/zerothre.ttf
3736920	WORD	wordpools/wasnorm_wordpool_less_exclusions.txt	LTP262	ltpFR	1	15	1	WALL	1582	n/a	0	0	0.5869140625	0.422607421875	upper	../fonts/zerothre.ttf
3740885	WORD	wordpools/wasnorm_wordpool_less_exclusions.txt	LTP262	ltpFR	1	15	1	SUBURB	1399	n/a	0	0	0.5869140625	0.422607421875	upper	../fonts/zerothre.ttf
3744786	WORD	wordpools/wasnorm_wordpool_less_exclusions.txt	LTP262	ltpFR	1	15	1	STRANGER	1389	n/a	1	0	0.5869140625	0.422607421875	upper	../fonts/zerothre.ttf
3749002	WORD	wordpools/wasnorm_wordpool_less_exclusions.txt	LTP262	ltpFR	1	15	1	ARCHITECT	36	n/a	1	0	0.5869140625	0.422607421875	upper	../fonts/zerothre.ttf
3752930	WORD	wordpools/wasnorm_wordpool_less_exclusions.txt	LTP262	ltpFR	1	15	1	LACE	792	n/a	0	0	0.5869140625	0.422607421875	upper	../fonts/zerothre.ttf
3756996	WORD	wordpools/wasnorm_wordpool_less_exclusions.txt	LTP262	ltpFR	1	15	1	SENATOR	1268	n/a	1	0	0.5869140625	0.422607421875	upper	../fonts/zerothre.ttf
3761164	WORD	wordpools/wasnorm_wordpool_less_exclusions.txt	LTP262	ltpFR	1	15	1	SENATE	1267	n/a	0	0	0.5869140625	0.422607421875	upper	../fonts/zerothre.ttf
3765096	WORD	wordpools/wasnorm_wordpool_less_exclusions.txt	LTP262	ltpFR	1	15	1	OWNER	993	n/a	1	0	0.5869140625	0.422607421875	upper	../fonts/zerothre.ttf
3769228	WORD	wordpools/wasnorm_wordpool_less_exclusions.txt	LTP262	ltpFR	1	15	1	DEPARTMENT	449	n/a	0	0	0.5869140625	0.422607421875	upper	../fonts/zerothre.ttf
3773412	WORD	wordpools/wasnorm_wordpool_less_exclusions.txt	LTP262	ltpFR	1	15	1	TOWER	1490	n/a	0	0	0.5869140625	0.422607421875	upper	../fonts/zerothre.ttf
3779233	REC_START	n/a	LTP262	ltpFR	1	15	n/a	n/a	n/a	n/a	n/a	n/a	n/a	n/a	n/a	n/a
3779890	REC_WORD	wordpools/wasnorm_wordpool_less_exclusions.txt	LTP262	ltpFR	1	15	1	TOWER	1490	n/a	0	n/a	n/a	n/a	n/a	n/a
3780635	REC_WORD	wordpools/wasnorm_wordpool_less_exclusions.txt	LTP262	ltpFR	1	15	1	DEPARTMENT	449	n/a	0	n/a	n/a	n/a	n/a	n/a
3789205	REC_WORD	wordpools/wasnorm_wordpool_less_exclusions.txt	LTP262	ltpFR	1	15	1	ARCHITECT	36	n/a	1	n/a	n/a	n/a	n/a	n/a
3797193	REC_WORD	wordpools/wasnorm_wordpool_less_exclusions.txt	LTP262	ltpFR	1	15	1	WELL	1600	n/a	0	n/a	n/a	n/a	n/a	n/a
3811985	REC_WORD	wordpools/wasnorm_wordpool_less_exclusions.txt	LTP262	ltpFR	1	15	1	WALL	1582	n/a	0	n/a	n/a	n/a	n/a	n/a
3831961	REC_WORD	wordpools/wasnorm_wordpool_less_exclusions.txt	LTP262	ltpFR	1	15	1	KEG	770	n/a	0	n/a	n/a	n/a	n/a	n/a
3834119	REC_WORD	wordpools/wasnorm_wordpool_less_exclusions.txt	LTP262	ltpFR	1	15	1	BEVERAGE	123	n/a	0	n/a	n/a	n/a	n/a	n/a
3880277	WORD	wordpools/wasnorm_wordpool_less_exclusions.txt	LTP262	ltpFR	1	16	-1	PADDLE	1000	n/a	-1	1	1.0	1.0	upper	../fonts/Verdana.ttf
3884380	WORD	wordpools/wasnorm_wordpool_less_exclusions.txt	LTP262	ltpFR	1	16	-1	PATROL	1027	n/a	-1	1	1.0	1.0	upper	../fonts/Verdana.ttf
3888528	WORD	wordpools/wasnorm_wordpool_less_exclusions.txt	LTP262	ltpFR	1	16	-1	FIREMAN	569	n/a	-1	1	1.0	1.0	upper	../fonts/Verdana.ttf
3892526	WORD	wordpools/wasnorm_wordpool_less_exclusions.txt	LTP262	ltpFR	1	16	-1	WAND	1586	n/a	-1	1	1.0	1.0	upper	../fonts/Verdana.ttf
3896725	WORD	wordpools/wasnorm_wordpool_less_exclusions.txt	LTP262	ltpFR	1	16	-1	CROOK	412	n/a	-1	1	1.0	1.0	upper	../fonts/Verdana.ttf
3900824	WORD	wordpools/wasnorm_wordpool_less_exclusions.txt	LTP262	ltpFR	1	16	-1	FUGITIVE	612	n/a	-1	1	1.0	1.0	upper	../fonts/Verdana.ttf
3904886	WORD	wordpools/wasnorm_wordpool_less_exclusions.txt	LTP262	ltpFR	1	16	-1	BOXER	160	n/a	-1	1	1.0	1.0	upper	../fonts/Verdana.ttf
3909055	WORD	wordpools/wasnorm_wordpool_less_exclusions.txt	LTP262	ltpFR	1	16	-1	TWINE	1529	n/a	-1	1	1.0	1.0	upper	../fonts/Verdana.ttf
3912883	WORD	wordpools/wasnorm_wordpool_less_exclusions.txt	LTP262	ltpFR	1	16	-1	KNOT	788	n/a	-1	1	1.0	1.0	upper	../fonts/Verdana.ttf
3917002	WORD	wordpools/wasnorm_wordpool_less_exclusions.txt	LTP262	ltpFR	1	16	-1	TREAT	1501	n/a	-1	1	1.0	1.0	upper	../fonts/Verdana.ttf
3921184	WORD	wordpools/wasnorm_wordpool_less_exclusions.txt	LTP262	ltpFR	1	16	-1	ROBIN	1199	n/a	-1	1	1.0	1.0	upper	../fonts/Verdana.ttf
3925230	WORD	wordpools/wasnorm_wordpool_less_exclusions.txt	LTP262	ltpFR	1	16	-1	BEER	114	n/a	-1	1	1.0	1.0	upper	../fonts/Verdana.ttf
3929329	WORD	wordpools/wasnorm_wordpool_less_exclusions.txt	LTP262	ltpFR	1	16	-1	VEGETABLE	1552	n/a	-1	1	1.0	1.0	upper	../fonts/Verdana.ttf
3933480	WORD	wordpools/wasnorm_wordpool_less_exclusions.txt	LTP262	ltpFR	1	16	-1	FORT	595	n/a	-1	1	1.0	1.0	upper	../fonts/Verdana.ttf
3937613	WORD	wordpools/wasnorm_wordpool_less_exclusions.txt	LTP262	ltpFR	1	16	-1	SUGAR	1401	n/a	-1	1	1.0	1.0	upper	../fonts/Verdana.ttf
3941611	WORD	wordpools/wasnorm_wordpool_less_exclusions.txt	LTP262	ltpFR	1	16	-1	QUAIL	1147	n/a	-1	1	1.0	1.0	upper	../fonts/Verdana.ttf
3947518	REC_START	n/a	LTP262	ltpFR	1	16	n/a	n/a	n/a	n/a	n/a	n/a	n/a	n/a	n/a	n/a
3947984	REC_WORD	wordpools/wasnorm_wordpool_less_exclusions.txt	LTP262	ltpFR	1	16	-1	PADDLE	1000	n/a	-1	n/a	n/a	n/a	n/a	n/a
3948604	REC_WORD	wordpools/wasnorm_wordpool_less_exclusions.txt	LTP262	ltpFR	1	16	-1	PATROL	1027	n/a	-1	n/a	n/a	n/a	n/a	n/a
3949381	REC_WORD	wordpools/wasnorm_wordpool_less_exclusions.txt	LTP262	ltpFR	1	16	-1	FIREMAN	569	n/a	-1	n/a	n/a	n/a	n/a	n/a
3952427	REC_WORD	wordpools/wasnorm_wordpool_less_exclusions.txt	LTP262	ltpFR	1	16	-1	QUAIL	1147	n/a	-1	n/a	n/a	n/a	n/a	n/a
3954052	REC_WORD	wordpools/wasnorm_wordpool_less_exclusions.txt	LTP262	ltpFR	1	16	0	PIGEON	1065	n/a	0	n/a	n/a	n/a	n/a	n/a
3988127	REC_WORD	wordpools/wasnorm_wordpool_less_exclusions.txt	LTP262	ltpFR	1	16	-1	BOXER	160	n/a	-1	n/a	n/a	n/a	n/a	n/a
3991082	REC_WORD	wordpools/wasnorm_wordpool_less_exclusions.txt	LTP262	ltpFR	1	16	-1	SUGAR	1401	n/a	-1	n/a	n/a	n/a	n/a	n/a
3994680	REC_WORD	wordpools/wasnorm_wordpool_less_exclusions.txt	LTP262	ltpFR	1	16	-1	COOKIE	374	n/a	-1	n/a	n/a	n/a	n/a	n/a
3995411	REC_WORD	wordpools/wasnorm_wordpool_less_exclusions.txt	LTP262	ltpFR	1	16	-1	BEER	114	n/a	-1	n/a	n/a	n/a	n/a	n/a
4065730	REC_START	n/a	LTP262	ltpFR	1	n/a	n/a	n/a	n/a	n/a	n/a	n/a	n/a	n/a	n/a	n/a
4066289	FFR_REC_WORD	wordpools/wasnorm_wordpool_less_exclusions.txt	LTP262	ltpFR	1	n/a	0	PIGEON	1065	n/a	0	n/a	n/a	n/a	n/a	n/a
4067700	FFR_REC_WORD	wordpools/wasnorm_wordpool_less_exclusions.txt	LTP262	ltpFR	1	n/a	-1	FORT	595	n/a	-1	n/a	n/a	n/a	n/a	n/a
4071841	FFR_REC_WORD	wordpools/wasnorm_wordpool_less_exclusions.txt	LTP262	ltpFR	1	n/a	-1	QUAIL	1147	n/a	-1	n/a	n/a	n/a	n/a	n/a
4076575	FFR_REC_WORD	wordpools/wasnorm_wordpool_less_exclusions.txt	LTP262	ltpFR	1	n/a	-1	FIREMAN	569	n/a	-1	n/a	n/a	n/a	n/a	n/a
4092020	FFR_REC_WORD	wordpools/wasnorm_wordpool_less_exclusions.txt	LTP262	ltpFR	1	n/a	n/a	DOCUMENT	479	n/a	n/a	n/a	n/a	n/a	n/a	n/a
4093771	FFR_REC_WORD	wordpools/wasnorm_wordpool_less_exclusions.txt	LTP262	ltpFR	1	n/a	0	ROOT	1210	n/a	1	n/a	n/a	n/a	n/a	n/a
4094564	FFR_REC_WORD	wordpools/wasnorm_wordpool_less_exclusions.txt	LTP262	ltpFR	1	n/a	0	STEM	1376	n/a	0	n/a	n/a	n/a	n/a	n/a
4101598	FFR_REC_WORD	wordpools/wasnorm_wordpool_less_exclusions.txt	LTP262	ltpFR	1	n/a	0	ALLIGATOR	16	n/a	1	n/a	n/a	n/a	n/a	n/a
4104467	FFR_REC_WORD	wordpools/wasnorm_wordpool_less_exclusions.txt	LTP262	ltpFR	1	n/a	0	WAITRESS	1581	n/a	1	n/a	n/a	n/a	n/a	n/a
4105869	FFR_REC_WORD	wordpools/wasnorm_wordpool_less_exclusions.txt	LTP262	ltpFR	1	n/a	-1	BEER	114	n/a	-1	n/a	n/a	n/a	n/a	n/a
4108642	FFR_REC_WORD	wordpools/wasnorm_wordpool_less_exclusions.txt	LTP262	ltpFR	1	n/a	-1	COOKIE	374	n/a	-1	n/a	n/a	n/a	n/a	n/a
4111705	FFR_REC_WORD	wordpools/wasnorm_wordpool_less_exclusions.txt	LTP262	ltpFR	1	n/a	-1	HONEY	713	n/a	-1	n/a	n/a	n/a	n/a	n/a
4117512	FFR_REC_WORD	wordpools/wasnorm_wordpool_less_exclusions.txt	LTP262	ltpFR	1	n/a	1	SENATE	1267	n/a	0	n/a	n/a	n/a	n/a	n/a
4118285	FFR_REC_WORD	wordpools/wasnorm_wordpool_less_exclusions.txt	LTP262	ltpFR	1	n/a	1	SENATOR	1268	n/a	1	n/a	n/a	n/a	n/a	n/a
4122745	FFR_REC_WORD	wordpools/wasnorm_wordpool_less_exclusions.txt	LTP262	ltpFR	1	n/a	1	ANGEL	22	n/a	1	n/a	n/a	n/a	n/a	n/a
4131241	FFR_REC_WORD	wordpools/wasnorm_wordpool_less_exclusions.txt	LTP262	ltpFR	1	n/a	0	BRICK	172	n/a	0	n/a	n/a	n/a	n/a	n/a
4137147	FFR_REC_WORD	wordpools/wasnorm_wordpool_less_exclusions.txt	LTP262	ltpFR	1	n/a	1	UNICORN	1538	n/a	0	n/a	n/a	n/a	n/a	n/a
4140799	FFR_REC_WORD	wordpools/wasnorm_wordpool_less_exclusions.txt	LTP262	ltpFR	1	n/a	1	DEER	444	n/a	1	n/a	n/a	n/a	n/a	n/a
4151764	FFR_REC_WORD	wordpools/wasnorm_wordpool_less_exclusions.txt	LTP262	ltpFR	1	n/a	1	BEVERAGE	123	n/a	0	n/a	n/a	n/a	n/a	n/a
4154468	FFR_REC_WORD	wordpools/wasnorm_wordpool_less_exclusions.txt	LTP262	ltpFR	1	n/a	0	CUPBOARD	425	n/a	1	n/a	n/a	n/a	n/a	n/a
4157925	FFR_REC_WORD	wordpools/wasnorm_wordpool_less_exclusions.txt	LTP262	ltpFR	1	n/a	1	WALL	1582	n/a	0	n/a	n/a	n/a	n/a	n/a
4161712	FFR_REC_WORD	wordpools/wasnorm_wordpool_less_exclusions.txt	LTP262	ltpFR	1	n/a	0	FOREHEAD	592	n/a	1	n/a	n/a	n/a	n/a	n/a
4168970	FFR_REC_WORD	wordpools/wasnorm_wordpool_less_exclusions.txt	LTP262	ltpFR	1	n/a	1	KEG	770	n/a	0	n/a	n/a	n/a	n/a	n/a
4195335	FFR_REC_WORD	wordpools/wasnorm_wordpool_less_exclusions.txt	LTP262	ltpFR	1	n/a	-1	ASTEROID	50	n/a	-1	n/a	n/a	n/a	n/a	n/a
4196483	FFR_REC_WORD	wordpools/wasnorm_wordpool_less_exclusions.txt	LTP262	ltpFR	1	n/a	-1	SPACE	1345	n/a	-1	n/a	n/a	n/a	n/a	n/a
4213179	FFR_REC_WORD	wordpools/wasnorm_wordpool_less_exclusions.txt	LTP262	ltpFR	1	n/a	1	DEPARTMENT	449	n/a	0	n/a	n/a	n/a	n/a	n/a
4223411	FFR_REC_WORD	wordpools/wasnorm_wordpool_less_exclusions.txt	LTP262	ltpFR	1	n/a	1	HINGE	709	n/a	0	n/a	n/a	n/a	n/a	n/a
4234317	FFR_REC_WORD	wordpools/wasnorm_wordpool_less_exclusions.txt	LTP262	ltpFR	1	n/a	-1	BUFFALO	186	n/a	-1	n/a	n/a	n/a	n/a	n/a
4235464	FFR_REC_WORD	wordpools/wasnorm_wordpool_less_exclusions.txt	LTP262	ltpFR	1	n/a	1	BISON	131	n/a	1	n/a	n/a	n/a	n/a	n/a
4242842	FFR_REC_WORD	wordpools/wasnorm_wordpool_less_exclusions.txt	LTP262	ltpFR	1	n/a	-1	FIREMAN	569	n/a	-1	n/a	n/a	n/a	n/a	n/a
4265216	FFR_REC_WORD	wordpools/wasnorm_wordpool_less_exclusions.txt	LTP262	ltpFR	1	n/a	-1	COOKIE	374	n/a	-1	n/a	n/a	n/a	n/a	n/a
4297308	FFR_REC_WORD	wordpools/wasnorm_wordpool_less_exclusions.txt	LTP262	ltpFR	1	n/a	1	ARCHITECT	36	n/a	1	n/a	n/a	n/a	n/a	n/a
4312928	FFR_REC_WORD	wordpools/wasnorm_wordpool_less_exclusions.txt	LTP262	ltpFR	1	n/a	0	SPOON	1357	n/a	0	n/a	n/a	n/a	n/a	n/a
4354952	FFR_REC_WORD	wordpools/wasnorm_wordpool_less_exclusions.txt	LTP262	ltpFR	1	n/a	1	CINNAMON	310	n/a	0	n/a	n/a	n/a	n/a	n/a
4356923	FFR_REC_WORD	wordpools/wasnorm_wordpool_less_exclusions.txt	LTP262	ltpFR	1	n/a	1	OREGANO	983	n/a	1	n/a	n/a	n/a	n/a	n/a
4488289	REC_START	n/a	LTP262	ltpFR	1	1	n/a	n/a	n/a	n/a	n/a	n/a	n/a	n/a	n/a	n/a
4488339	RECOG_TARGET	n/a	LTP262	ltpFR	1	1	1	CABIN	211	4	0	n/a	n/a	n/a	n/a	n/a
4490349	RECOG_RESP	n/a	LTP262	ltpFR	1	1	1	CABIN	211	n/a	0	n/a	n/a	n/a	n/a	n/a
4493921	RECOG_CONF	n/a	LTP262	ltpFR	1	1	1	CABIN	211	4	0	n/a	n/a	n/a	n/a	n/a
4495479	RECOG_TARGET	n/a	LTP262	ltpFR	1	1	1	BLOSSOM	138	5	1	n/a	n/a	n/a	n/a	n/a
4497074	RECOG_RESP	n/a	LTP262	ltpFR	1	1	1	BLOSSOM	138	n/a	1	n/a	n/a	n/a	n/a	n/a
4498940	RECOG_CONF	n/a	LTP262	ltpFR	1	1	1	BLOSSOM	138	5	1	n/a	n/a	n/a	n/a	n/a
4500267	RECOG_TARGET	n/a	LTP262	ltpFR	1	1	0	LOLLIPOP	842	5	0	n/a	n/a	n/a	n/a	n/a
4501554	RECOG_RESP	n/a	LTP262	ltpFR	1	1	0	LOLLIPOP	842	n/a	0	n/a	n/a	n/a	n/a	n/a
4502611	RECOG_CONF	n/a	LTP262	ltpFR	1	1	0	LOLLIPOP	842	5	0	n/a	n/a	n/a	n/a	n/a
4503981	RECOG_TARGET	n/a	LTP262	ltpFR	1	1	-1	STRAWBERRY	1391	5	-1	n/a	n/a	n/a	n/a	n/a
4505170	RECOG_RESP	n/a	LTP262	ltpFR	1	1	-1	STRAWBERRY	1391	n/a	-1	n/a	n/a	n/a	n/a	n/a
4506083	RECOG_CONF	n/a	LTP262	ltpFR	1	1	-1	STRAWBERRY	1391	5	-1	n/a	n/a	n/a	n/a	n/a
4507711	RECOG_TARGET	n/a	LTP262	ltpFR	1	1	0	UTENSIL	1542	5	0	n/a	n/a	n/a	n/a	n/a
4509111	RECOG_RESP	n/a	LTP262	ltpFR	1	1	0	UTENSIL	1542	n/a	0	n/a	n/a	n/a	n/a	n/a
4510314	RECOG_CONF	n/a	LTP262	ltpFR	1	1	0	UTENSIL	1542	5	0	n/a	n/a	n/a	n/a	n/a
4512058	RECOG_LURE	n/a	LTP262	ltpFR	1	1	n/a	STATUE	1374	3	n/a	n/a	n/a	n/a	n/a	n/a
4513596	RECOG_RESP	n/a	LTP262	ltpFR	1	1	n/a	STATUE	1374	n/a	n/a	n/a	n/a	n/a	n/a	n/a
4514594	RECOG_CONF	n/a	LTP262	ltpFR	1	1	n/a	STATUE	1374	3	n/a	n/a	n/a	n/a	n/a	n/a
4516862	RECOG_TARGET	n/a	LTP262	ltpFR	1	1	-1	COOKIE	374	5	-1	n/a	n/a	n/a	n/a	n/a
4517817	RECOG_RESP	n/a	LTP262	ltpFR	1	1	-1	COOKIE	374	n/a	-1	n/a	n/a	n/a	n/a	n/a
4518914	RECOG_CONF	n/a	LTP262	ltpFR	1	1	-1	COOKIE	374	5	-1	n/a	n/a	n/a	n/a	n/a
4520560	RECOG_TARGET	n/a	LTP262	ltpFR	1	1	-1	QUAIL	1147	5	-1	n/a	n/a	n/a	n/a	n/a
4521788	RECOG_RESP	n/a	LTP262	ltpFR	1	1	-1	QUAIL	1147	n/a	-1	n/a	n/a	n/a	n/a	n/a
4522626	RECOG_CONF	n/a	LTP262	ltpFR	1	1	-1	QUAIL	1147	5	-1	n/a	n/a	n/a	n/a	n/a
4524120	RECOG_TARGET	n/a	LTP262	ltpFR	1	1	1	PEACH	1031	5	1	n/a	n/a	n/a	n/a	n/a
4525779	RECOG_RESP	n/a	LTP262	ltpFR	1	1	1	PEACH	1031	n/a	1	n/a	n/a	n/a	n/a	n/a
4527036	RECOG_CONF	n/a	LTP262	ltpFR	1	1	1	PEACH	1031	5	1	n/a	n/a	n/a	n/a	n/a
4528674	RECOG_TARGET	n/a	LTP262	ltpFR	1	1	0	BERRY	122	5	0	n/a	n/a	n/a	n/a	n/a
4529700	RECOG_RESP	n/a	LTP262	ltpFR	1	1	0	BERRY	122	n/a	0	n/a	n/a	n/a	n/a	n/a
4530827	RECOG_CONF	n/a	LTP262	ltpFR	1	1	0	BERRY	122	5	0	n/a	n/a	n/a	n/a	n/a
4532538	RECOG_LURE	n/a	LTP262	ltpFR	1	1	n/a	SPHINX	1349	3	n/a	n/a	n/a	n/a	n/a	n/a
4533880	RECOG_RESP	n/a	LTP262	ltpFR	1	1	n/a	SPHINX	1349	n/a	n/a	n/a	n/a	n/a	n/a	n/a
4535117	RECOG_CONF	n/a	LTP262	ltpFR	1	1	n/a	SPHINX	1349	3	n/a	n/a	n/a	n/a	n/a	n/a
4536888	RECOG_TARGET	n/a	LTP262	ltpFR	1	1	1	PILOT	1070	5	1	n/a	n/a	n/a	n/a	n/a
4538011	RECOG_RESP	n/a	LTP262	ltpFR	1	1	1	PILOT	1070	n/a	1	n/a	n/a	n/a	n/a	n/a
4539068	RECOG_CONF	n/a	LTP262	ltpFR	1	1	1	PILOT	1070	5	1	n/a	n/a	n/a	n/a	n/a
4540686	RECOG_TARGET	n/a	LTP262	ltpFR	1	1	-1	BLUEPRINT	142	5	-1	n/a	n/a	n/a	n/a	n/a
4541872	RECOG_RESP	n/a	LTP262	ltpFR	1	1	-1	BLUEPRINT	142	n/a	-1	n/a	n/a	n/a	n/a	n/a
4543379	RECOG_CONF	n/a	LTP262	ltpFR	1	1	-1	BLUEPRINT	142	5	-1	n/a	n/a	n/a	n/a	n/a
4545085	RECOG_TARGET	n/a	LTP262	ltpFR	1	1	1	AUDIENCE	59	2	1	n/a	n/a	n/a	n/a	n/a
4546781	RECOG_RESP	n/a	LTP262	ltpFR	1	1	1	AUDIENCE	59	n/a	1	n/a	n/a	n/a	n/a	n/a
4547878	RECOG_CONF	n/a	LTP262	ltpFR	1	1	1	AUDIENCE	59	2	1	n/a	n/a	n/a	n/a	n/a
4549519	RECOG_TARGET	n/a	LTP262	ltpFR	1	1	1	EUROPE	541	2	0	n/a	n/a	n/a	n/a	n/a
4551415	RECOG_RESP	n/a	LTP262	ltpFR	1	1	1	EUROPE	541	n/a	0	n/a	n/a	n/a	n/a	n/a
4553675	RECOG_CONF	n/a	LTP262	ltpFR	1	1	1	EUROPE	541	2	0	n/a	n/a	n/a	n/a	n/a
4555274	RECOG_TARGET	n/a	LTP262	ltpFR	1	1	-1	PRESIDENT	1121	5	-1	n/a	n/a	n/a	n/a	n/a
4556319	RECOG_RESP	n/a	LTP262	ltpFR	1	1	-1	PRESIDENT	1121	n/a	-1	n/a	n/a	n/a	n/a	n/a
4557467	RECOG_CONF	n/a	LTP262	ltpFR	1	1	-1	PRESIDENT	1121	5	-1	n/a	n/a	n/a	n/a	n/a
4559021	RECOG_TARGET	n/a	LTP262	ltpFR	1	1	1	FLESH	579	5	1	n/a	n/a	n/a	n/a	n/a
4560101	RECOG_RESP	n/a	LTP262	ltpFR	1	1	1	FLESH	579	n/a	1	n/a	n/a	n/a	n/a	n/a
4561138	RECOG_CONF	n/a	LTP262	ltpFR	1	1	1	FLESH	579	5	1	n/a	n/a	n/a	n/a	n/a
4562802	RECOG_TARGET	n/a	LTP262	ltpFR	1	1	0	JET	756	3	1	n/a	n/a	n/a	n/a	n/a
4564550	RECOG_RESP	n/a	LTP262	ltpFR	1	1	0	JET	756	n/a	1	n/a	n/a	n/a	n/a	n/a
4566027	RECOG_CONF	n/a	LTP262	ltpFR	1	1	0	JET	756	3	1	n/a	n/a	n/a	n/a	n/a
4567721	RECOG_TARGET	n/a	LTP262	ltpFR	1	1	1	BOYFRIEND	162	5	1	n/a	n/a	n/a	n/a	n/a
4568721	RECOG_RESP	n/a	LTP262	ltpFR	1	1	1	BOYFRIEND	162	n/a	1	n/a	n/a	n/a	n/a	n/a
4569848	RECOG_CONF	n/a	LTP262	ltpFR	1	1	1	BOYFRIEND	162	5	1	n/a	n/a	n/a	n/a	n/a
4571468	RECOG_TARGET	n/a	LTP262	ltpFR	1	1	1	MOTH	920	4	1	n/a	n/a	n/a	n/a	n/a
4572896	RECOG_RESP	n/a	LTP262	ltpFR	1	1	1	MOTH	920	n/a	1	n/a	n/a	n/a	n/a	n/a
4574238	RECOG_CONF	n/a	LTP262	ltpFR	1	1	1	MOTH	920	4	1	n/a	n/a	n/a	n/a	n/a
4590419	REC_START	n/a	LTP262	ltpFR	1	2	n/a	n/a	n/a	n/a	n/a	n/a	n/a	n/a	n/a	n/a
4590470	RECOG_TARGET	n/a	LTP262	ltpFR	1	2	1	NECK	939	3	0	n/a	n/a	n/a	n/a	n/a
4591895	RECOG_RESP	n/a	LTP262	ltpFR	1	2	1	NECK	939	n/a	0	n/a	n/a	n/a	n/a	n/a
4593716	RECOG_CONF	n/a	LTP262	ltpFR	1	2	1	NECK	939	3	0	n/a	n/a	n/a	n/a	n/a
4595559	RECOG_TARGET	n/a	LTP262	ltpFR	1	2	1	SUBURB	1399	4	0	n/a	n/a	n/a	n/a	n/a
4596959	RECOG_RESP	n/a	LTP262	ltpFR	1	2	1	SUBURB	1399	n/a	0	n/a	n/a	n/a	n/a	n/a
4597957	RECOG_CONF	n/a	LTP262	ltpFR	1	2	1	SUBURB	1399	4	0	n/a	n/a	n/a	n/a	n/a
4599792	RECOG_TARGET	n/a	LTP262	ltpFR	1	2	1	SKILLET	1317	3	0	n/a	n/a	n/a	n/a	n/a
4601194	RECOG_RESP	n/a	LTP262	ltpFR	1	2	1	SKILLET	1317	n/a	0	n/a	n/a	n/a	n/a	n/a
4602187	RECOG_CONF	n/a	LTP262	ltpFR	1	2	1	SKILLET	1317	3	0	n/a	n/a	n/a	n/a	n/a
4603907	RECOG_TARGET	n/a	LTP262	ltpFR	1	2	0	EWE	542	5	1	n/a	n/a	n/a	n/a	n/a
4604911	RECOG_RESP	n/a	LTP262	ltpFR	1	2	0	EWE	542	n/a	1	n/a	n/a	n/a	n/a	n/a
4605929	RECOG_CONF	n/a	LTP262	ltpFR	1	2	0	EWE	542	5	1	n/a	n/a	n/a	n/a	n/a
4607554	RECOG_TARGET	n/a	LTP262	ltpFR	1	2	0	PASTRY	1022	5	0	n/a	n/a	n/a	n/a	n/a
4608642	RECOG_RESP	n/a	LTP262	ltpFR	1	2	0	PASTRY	1022	n/a	0	n/a	n/a	n/a	n/a	n/a
4609590	RECOG_CONF	n/a	LTP262	ltpFR	1	2	0	PASTRY	1022	5	0	n/a	n/a	n/a	n/a	n/a
4611251	RECOG_LURE	n/a	LTP262	ltpFR	1	2	n/a	SLACKS	1323	3	n/a	n/a	n/a	n/a	n/a	n/a
4612489	RECOG_RESP	n/a	LTP262	ltpFR	1	2	n/a	SLACKS	1323	n/a	n/a	n/a	n/a	n/a	n/a	n/a
4613671	RECOG_CONF	n/a	LTP262	ltpFR	1	2	n/a	SLACKS	1323	3	n/a	n/a	n/a	n/a	n/a	n/a
4615398	RECOG_TARGET	n/a	LTP262	ltpFR	1	2	0	MUFFIN	929	5	0	n/a	n/a	n/a	n/a	n/a
4616345	RECOG_RESP	n/a	LTP262	ltpFR	1	2	0	MUFFIN	929	n/a	0	n/a	n/a	n/a	n/a	n/a
4617412	RECOG_CONF	n/a	LTP262	ltpFR	1	2	0	MUFFIN	929	5	0	n/a	n/a	n/a	n/a	n/a
4619031	RECOG_TARGET	n/a	LTP262	ltpFR	1	2	1	WARDROBE	1587	4	0	n/a	n/a	n/a	n/a	n/a
4620361	RECOG_RESP	n/a	LTP262	ltpFR	1	2	1	WARDROBE	1587	n/a	0	n/a	n/a	n/a	n/a	n/a
4621633	RECOG_CONF	n/a	LTP262	ltpFR	1	2	1	WARDROBE	1587	4	0	n/a	n/a	n/a	n/a	n/a
4623180	RECOG_TARGET	n/a	LTP262	ltpFR	1	2	1	BRUNETTE	181	5	1	n/a	n/a	n/a	n/a	n/a
4624372	RECOG_RESP	n/a	LTP262	ltpFR	1	2	1	BRUNETTE	181	n/a	1	n/a	n/a	n/a	n/a	n/a
4625724	RECOG_CONF	n/a	LTP262	ltpFR	1	2	1	BRUNETTE	181	5	1	n/a	n/a	n/a	n/a	n/a
4627295	RECOG_TARGET	n/a	LTP262	ltpFR	1	2	1	CAT	257	4	1	n/a	n/a	n/a	n/a	n/a
4628502	RECOG_RESP	n/a	LTP262	ltpFR	1	2	1	CAT	257	n/a	1	n/a	n/a	n/a	n/a	n/a
4629734	RECOG_CONF	n/a	LTP262	ltpFR	1	2	1	CAT	257	4	1	n/a	n/a	n/a	n/a	n/a
4631444	RECOG_TARGET	n/a	LTP262	ltpFR	1	2	1	ANTLER	29	5	0	n/a	n/a	n/a	n/a	n/a
4632523	RECOG_RESP	n/a	LTP262	ltpFR	1	2	1	ANTLER	29	n/a	0	n/a	n/a	n/a	n/a	n/a
4633656	RECOG_CONF	n/a	LTP262	ltpFR	1	2	1	ANTLER	29	5	0	n/a	n/a	n/a	n/a	n/a
4635390	RECOG_TARGET	n/a	LTP262	ltpFR	1	2	1	PORTRAIT	1111	4	1	n/a	n/a	n/a	n/a	n/a
4636793	RECOG_RESP	n/a	LTP262	ltpFR	1	2	1	PORTRAIT	1111	n/a	1	n/a	n/a	n/a	n/a	n/a
4638255	RECOG_CONF	n/a	LTP262	ltpFR	1	2	1	PORTRAIT	1111	4	1	n/a	n/a	n/a	n/a	n/a
4639689	RECOG_LURE	n/a	LTP262	ltpFR	1	2	n/a	SILK	1307	4	n/a	n/a	n/a	n/a	n/a	n/a
4641163	RECOG_RESP	n/a	LTP262	ltpFR	1	2	n/a	SILK	1307	n/a	n/a	n/a	n/a	n/a	n/a	n/a
4642725	RECOG_CONF	n/a	LTP262	ltpFR	1	2	n/a	SILK	1307	4	n/a	n/a	n/a	n/a	n/a	n/a
4644474	RECOG_LURE	n/a	LTP262	ltpFR	1	2	n/a	SPOUSE	1358	3	n/a	n/a	n/a	n/a	n/a	n/a
4646127	RECOG_RESP	n/a	LTP262	ltpFR	1	2	n/a	SPOUSE	1358	n/a	n/a	n/a	n/a	n/a	n/a	n/a
4647265	RECOG_CONF	n/a	LTP262	ltpFR	1	2	n/a	SPOUSE	1358	3	n/a	n/a	n/a	n/a	n/a	n/a
4649011	RECOG_TARGET	n/a	LTP262	ltpFR	1	2	-1	MAILBOX	857	3	-1	n/a	n/a	n/a	n/a	n/a
4650168	RECOG_RESP	n/a	LTP262	ltpFR	1	2	-1	MAILBOX	857	n/a	-1	n/a	n/a	n/a	n/a	n/a
4651794	RECOG_CONF	n/a	LTP262	ltpFR	1	2	-1	MAILBOX	857	3	-1	n/a	n/a	n/a	n/a	n/a
4653494	RECOG_TARGET	n/a	LTP262	ltpFR	1	2	0	CLASS	318	5	n/a	n/a	n/a	n/a	n/a	n/a
4654837	RECOG_RESP	n/a	LTP262	ltpFR	1	2	0	CLASS	318	n/a	n/a	n/a	n/a	n/a	n/a	n/a
4655885	RECOG_CONF	n/a	LTP262	ltpFR	1	2	0	CLASS	318	5	n/a	n/a	n/a	n/a	n/a	n/a
4657459	RECOG_TARGET	n/a	LTP262	ltpFR	1	2	-1	PATROL	1027	2	-1	n/a	n/a	n/a	n/a	n/a
4659018	RECOG_RESP	n/a	LTP262	ltpFR	1	2	-1	PATROL	1027	n/a	-1	n/a	n/a	n/a	n/a	n/a
4660465	RECOG_CONF	n/a	LTP262	ltpFR	1	2	-1	PATROL	1027	2	-1	n/a	n/a	n/a	n/a	n/a
4662093	RECOG_TARGET	n/a	LTP262	ltpFR	1	2	0	TAG	1429	3	0	n/a	n/a	n/a	n/a	n/a
4663847	RECOG_RESP	n/a	LTP262	ltpFR	1	2	0	TAG	1429	n/a	0	n/a	n/a	n/a	n/a	n/a
4665842	RECOG_CONF	n/a	LTP262	ltpFR	1	2	0	TAG	1429	3	0	n/a	n/a	n/a	n/a	n/a
4667447	RECOG_LURE	n/a	LTP262	ltpFR	1	2	n/a	DIAPER	459	3	n/a	n/a	n/a	n/a	n/a	n/a
4669394	RECOG_RESP	n/a	LTP262	ltpFR	1	2	n/a	DIAPER	459	n/a	n/a	n/a	n/a	n/a	n/a	n/a
4671290	RECOG_CONF	n/a	LTP262	ltpFR	1	2	n/a	DIAPER	459	3	n/a	n/a	n/a	n/a	n/a	n/a
4672733	RECOG_TARGET	n/a	LTP262	ltpFR	1	2	0	LIBRARY	816	5	1	n/a	n/a	n/a	n/a	n/a
4673914	RECOG_RESP	n/a	LTP262	ltpFR	1	2	0	LIBRARY	816	n/a	1	n/a	n/a	n/a	n/a	n/a
4675630	RECOG_CONF	n/a	LTP262	ltpFR	1	2	0	LIBRARY	816	5	1	n/a	n/a	n/a	n/a	n/a
4694898	REC_START	n/a	LTP262	ltpFR	1	3	n/a	n/a	n/a	n/a	n/a	n/a	n/a	n/a	n/a	n/a
4694950	RECOG_TARGET	n/a	LTP262	ltpFR	1	3	0	MULE	931	4	1	n/a	n/a	n/a	n/a	n/a
4696180	RECOG_RESP	n/a	LTP262	ltpFR	1	3	0	MULE	931	n/a	1	n/a	n/a	n/a	n/a	n/a
4697347	RECOG_CONF	n/a	LTP262	ltpFR	1	3	0	MULE	931	4	1	n/a	n/a	n/a	n/a	n/a
4699166	RECOG_LURE	n/a	LTP262	ltpFR	1	3	n/a	WHALE	1601	3	n/a	n/a	n/a	n/a	n/a	n/a
4700270	RECOG_RESP	n/a	LTP262	ltpFR	1	3	n/a	WHALE	1601	n/a	n/a	n/a	n/a	n/a	n/a	n/a
4701348	RECOG_CONF	n/a	LTP262	ltpFR	1	3	n/a	WHALE	1601	3	n/a	n/a	n/a	n/a	n/a	n/a
4703265	RECOG_LURE	n/a	LTP262	ltpFR	1	3	n/a	COD	340	1	n/a	n/a	n/a	n/a	n/a	n/a
4704760	RECOG_RESP	n/a	LTP262	ltpFR	1	3	n/a	COD	340	n/a	n/a	n/a	n/a	n/a	n/a	n/a
4706087	RECOG_CONF	n/a	LTP262	ltpFR	1	3	n/a	COD	340	1	n/a	n/a	n/a	n/a	n/a	n/a
4708267	RECOG_TARGET	n/a	LTP262	ltpFR	1	3	0	BEETLE	116	3	0	n/a	n/a	n/a	n/a	n/a
4709689	RECOG_RESP	n/a	LTP262	ltpFR	1	3	0	BEETLE	116	n/a	0	n/a	n/a	n/a	n/a	n/a
4710827	RECOG_CONF	n/a	LTP262	ltpFR	1	3	0	BEETLE	116	3	0	n/a	n/a	n/a	n/a	n/a
4712583	RECOG_TARGET	n/a	LTP262	ltpFR	1	3	1	PASSENGER	1020	4	1	n/a	n/a	n/a	n/a	n/a
4714373	RECOG_RESP	n/a	LTP262	ltpFR	1	3	1	PASSENGER	1020	n/a	1	n/a	n/a	n/a	n/a	n/a
4715686	RECOG_CONF	n/a	LTP262	ltpFR	1	3	1	PASSENGER	1020	4	1	n/a	n/a	n/a	n/a	n/a
4717469	RECOG_TARGET	n/a	LTP262	ltpFR	1	3	1	CINNAMON	310	5	0	n/a	n/a	n/a	n/a	n/a
4718798	RECOG_RESP	n/a	LTP262	ltpFR	1	3	1	CINNAMON	310	n/a	0	n/a	n/a	n/a	n/a	n/a
4719836	RECOG_CONF	n/a	LTP262	ltpFR	1	3	1	CINNAMON	310	5	0	n/a	n/a	n/a	n/a	n/a
4721481	RECOG_TARGET	n/a	LTP262	ltpFR	1	3	-1	FIREMAN	569	5	-1	n/a	n/a	n/a	n/a	n/a
4722460	RECOG_RESP	n/a	LTP262	ltpFR	1	3	-1	FIREMAN	569	n/a	-1	n/a	n/a	n/a	n/a	n/a
4723458	RECOG_CONF	n/a	LTP262	ltpFR	1	3	-1	FIREMAN	569	5	-1	n/a	n/a	n/a	n/a	n/a
4724997	RECOG_LURE	n/a	LTP262	ltpFR	1	3	n/a	COLESLAW	344	3	n/a	n/a	n/a	n/a	n/a	n/a
4727329	RECOG_RESP	n/a	LTP262	ltpFR	1	3	n/a	COLESLAW	344	n/a	n/a	n/a	n/a	n/a	n/a	n/a
4728546	RECOG_CONF	n/a	LTP262	ltpFR	1	3	n/a	COLESLAW	344	3	n/a	n/a	n/a	n/a	n/a	n/a
4730300	RECOG_TARGET	n/a	LTP262	ltpFR	1	3	1	DEPARTMENT	449	5	0	n/a	n/a	n/a	n/a	n/a
4731749	RECOG_RESP	n/a	LTP262	ltpFR	1	3	1	DEPARTMENT	449	n/a	0	n/a	n/a	n/a	n/a	n/a
4732837	RECOG_CONF	n/a	LTP262	ltpFR	1	3	1	DEPARTMENT	449	5	0	n/a	n/a	n/a	n/a	n/a
4734563	RECOG_LURE	n/a	LTP262	ltpFR	1	3	n/a	THRONE	1461	3	n/a	n/a	n/a	n/a	n/a	n/a
4735939	RECOG_RESP	n/a	LTP262	ltpFR	1	3	n/a	THRONE	1461	n/a	n/a	n/a	n/a	n/a	n/a	n/a
4737077	RECOG_CONF	n/a	LTP262	ltpFR	1	3	n/a	THRONE	1461	3	n/a	n/a	n/a	n/a	n/a	n/a
4738880	RECOG_TARGET	n/a	LTP262	ltpFR	1	3	0	SPOON	1357	5	0	n/a	n/a	n/a	n/a	n/a
4740245	RECOG_RESP	n/a	LTP262	ltpFR	1	3	0	SPOON	1357	n/a	0	n/a	n/a	n/a	n/a	n/a
4741427	RECOG_CONF	n/a	LTP262	ltpFR	1	3	0	SPOON	1357	5	0	n/a	n/a	n/a	n/a	n/a
4743199	RECOG_TARGET	n/a	LTP262	ltpFR	1	3	-1	RESTAURANT	1187	5	-1	n/a	n/a	n/a	n/a	n/a
4744450	RECOG_RESP	n/a	LTP262	ltpFR	1	3	-1	RESTAURANT	1187	n/a	-1	n/a	n/a	n/a	n/a	n/a
4745647	RECOG_CONF	n/a	LTP262	ltpFR	1	3	-1	RESTAURANT	1187	5	-1	n/a	n/a	n/a	n/a	n/a
4747515	RECOG_TARGET	n/a	LTP262	ltpFR	1	3	0	WALNUT	1584	5	0	n/a	n/a	n/a	n/a	n/a
4749080	RECOG_RESP	n/a	LTP262	ltpFR	1	3	0	WALNUT	1584	n/a	0	n/a	n/a	n/a	n/a	n/a
4750167	RECOG_CONF	n/a	LTP262	ltpFR	1	3	0	WALNUT	1584	5	0	n/a	n/a	n/a	n/a	n/a
4751865	RECOG_TARGET	n/a	LTP262	ltpFR	1	3	0	WAVE	1596	5	1	n/a	n/a	n/a	n/a	n/a
4752886	RECOG_RESP	n/a	LTP262	ltpFR	1	3	0	WAVE	1596	n/a	1	n/a	n/a	n/a	n/a	n/a
4754018	RECOG_CONF	n/a	LTP262	ltpFR	1	3	0	WAVE	1596	5	1	n/a	n/a	n/a	n/a	n/a
4755813	RECOG_LURE	n/a	LTP262	ltpFR	1	3	n/a	FUNGUS	614	3	n/a	n/a	n/a	n/a	n/a	n/a
4757386	RECOG_RESP	n/a	LTP262	ltpFR	1	3	n/a	FUNGUS	614	n/a	n/a	n/a	n/a	n/a	n/a	n/a
4758688	RECOG_CONF	n/a	LTP262	ltpFR	1	3	n/a	FUNGUS	614	3	n/a	n/a	n/a	n/a	n/a	n/a
4760398	RECOG_TARGET	n/a	LTP262	ltpFR	1	3	0	MUG	930	5	0	n/a	n/a	n/a	n/a	n/a
4761631	RECOG_RESP	n/a	LTP262	ltpFR	1	3	0	MUG	930	n/a	0	n/a	n/a	n/a	n/a	n/a
4762719	RECOG_CONF	n/a	LTP262	ltpFR	1	3	0	MUG	930	5	0	n/a	n/a	n/a	n/a	n/a
4764329	RECOG_TARGET	n/a	LTP262	ltpFR	1	3	1	ESCALATOR	539	5	0	n/a	n/a	n/a	n/a	n/a
4765737	RECOG_RESP	n/a	LTP262	ltpFR	1	3	1	ESCALATOR	539	n/a	0	n/a	n/a	n/a	n/a	n/a
4766839	RECOG_CONF	n/a	LTP262	ltpFR	1	3	1	ESCALATOR	539	5	0	n/a	n/a	n/a	n/a	n/a
4768444	RECOG_LURE	n/a	LTP262	ltpFR	1	3	n/a	VALLEY	1545	2	n/a	n/a	n/a	n/a	n/a	n/a
4769618	RECOG_RESP	n/a	LTP262	ltpFR	1	3	n/a	VALLEY	1545	n/a	n/a	n/a	n/a	n/a	n/a	n/a
4770960	RECOG_CONF	n/a	LTP262	ltpFR	1	3	n/a	VALLEY	1545	2	n/a	n/a	n/a	n/a	n/a	n/a
4772590	RECOG_LURE	n/a	LTP262	ltpFR	1	3	n/a	HUSBAND	728	3	n/a	n/a	n/a	n/a	n/a	n/a
4774058	RECOG_RESP	n/a	LTP262	ltpFR	1	3	n/a	HUSBAND	728	n/a	n/a	n/a	n/a	n/a	n/a	n/a
4775470	RECOG_CONF	n/a	LTP262	ltpFR	1	3	n/a	HUSBAND	728	3	n/a	n/a	n/a	n/a	n/a	n/a
4777160	RECOG_TARGET	n/a	LTP262	ltpFR	1	3	1	ONION	977	5	1	n/a	n/a	n/a	n/a	n/a
4778188	RECOG_RESP	n/a	LTP262	ltpFR	1	3	1	ONION	977	n/a	1	n/a	n/a	n/a	n/a	n/a
4779381	RECOG_CONF	n/a	LTP262	ltpFR	1	3	1	ONION	977	5	1	n/a	n/a	n/a	n/a	n/a
4798341	REC_START	n/a	LTP262	ltpFR	1	4	n/a	n/a	n/a	n/a	n/a	n/a	n/a	n/a	n/a	n/a
4798391	RECOG_LURE	n/a	LTP262	ltpFR	1	4	n/a	TOOL	1480	3	n/a	n/a	n/a	n/a	n/a	n/a
4799533	RECOG_RESP	n/a	LTP262	ltpFR	1	4	n/a	TOOL	1480	n/a	n/a	n/a	n/a	n/a	n/a	n/a
4800641	RECOG_CONF	n/a	LTP262	ltpFR	1	4	n/a	TOOL	1480	3	n/a	n/a	n/a	n/a	n/a	n/a
4802423	RECOG_TARGET	n/a	LTP262	ltpFR	1	4	-1	PRINCESS	1125	2	-1	n/a	n/a	n/a	n/a	n/a
4803883	RECOG_RESP	n/a	LTP262	ltpFR	1	4	-1	PRINCESS	1125	n/a	-1	n/a	n/a	n/a	n/a	n/a
4805310	RECOG_CONF	n/a	LTP262	ltpFR	1	4	-1	PRINCESS	1125	2	-1	n/a	n/a	n/a	n/a	n/a
4807023	RECOG_LURE	n/a	LTP262	ltpFR	1	4	n/a	BROCCOLI	176	5	n/a	n/a	n/a	n/a	n/a	n/a
4808383	RECOG_RESP	n/a	LTP262	ltpFR	1	4	n/a	BROCCOLI	176	n/a	n/a	n/a	n/a	n/a	n/a	n/a
4809520	RECOG_CONF	n/a	LTP262	ltpFR	1	4	n/a	BROCCOLI	176	5	n/a	n/a	n/a	n/a	n/a	n/a
4811272	RECOG_TARGET	n/a	LTP262	ltpFR	1	4	-1	JAR	750	4	-1	n/a	n/a	n/a	n/a	n/a
4812364	RECOG_RESP	n/a	LTP262	ltpFR	1	4	-1	JAR	750	n/a	-1	n/a	n/a	n/a	n/a	n/a
4813511	RECOG_CONF	n/a	LTP262	ltpFR	1	4	-1	JAR	750	4	-1	n/a	n/a	n/a	n/a	n/a
4815067	RECOG_TARGET	n/a	LTP262	ltpFR	1	4	0	BEET	115	5	0	n/a	n/a	n/a	n/a	n/a
4816060	RECOG_RESP	n/a	LTP262	ltpFR	1	4	0	BEET	115	n/a	0	n/a	n/a	n/a	n/a	n/a
4817103	RECOG_CONF	n/a	LTP262	ltpFR	1	4	0	BEET	115	5	0	n/a	n/a	n/a	n/a	n/a
4818731	RECOG_LURE	n/a	LTP262	ltpFR	1	4	n/a	FLIPPER	580	2	n/a	n/a	n/a	n/a	n/a	n/a
4819762	RECOG_RESP	n/a	LTP262	ltpFR	1	4	n/a	FLIPPER	580	n/a	n/a	n/a	n/a	n/a	n/a	n/a
4820845	RECOG_CONF	n/a	LTP262	ltpFR	1	4	n/a	FLIPPER	580	2	n/a	n/a	n/a	n/a	n/a	n/a
4822382	RECOG_TARGET	n/a	LTP262	ltpFR	1	4	-1	KNOT	788	3	-1	n/a	n/a	n/a	n/a	n/a
4823623	RECOG_RESP	n/a	LTP262	ltpFR	1	4	-1	KNOT	788	n/a	-1	n/a	n/a	n/a	n/a	n/a
4824716	RECOG_CONF	n/a	LTP262	ltpFR	1	4	-1	KNOT	788	3	-1	n/a	n/a	n/a	n/a	n/a
4826429	RECOG_TARGET	n/a	LTP262	ltpFR	1	4	-1	GLOVE	642	3	-1	n/a	n/a	n/a	n/a	n/a
4827559	RECOG_RESP	n/a	LTP262	ltpFR	1	4	-1	GLOVE	642	n/a	-1	n/a	n/a	n/a	n/a	n/a
4828687	RECOG_CONF	n/a	LTP262	ltpFR	1	4	-1	GLOVE	642	3	-1	n/a	n/a	n/a	n/a	n/a
4830207	RECOG_LURE	n/a	LTP262	ltpFR	1	4	n/a	ELBOW	520	2	n/a	n/a	n/a	n/a	n/a	n/a
4831246	RECOG_RESP	n/a	LTP262	ltpFR	1	4	n/a	ELBOW	520	n/a	n/a	n/a	n/a	n/a	n/a	n/a
4832478	RECOG_CONF	n/a	LTP262	ltpFR	1	4	n/a	ELBOW	520	2	n/a	n/a	n/a	n/a	n/a	n/a
4834175	RECOG_TARGET	n/a	LTP262	ltpFR	1	4	1	OREGANO	983	5	1	n/a	n/a	n/a	n/a	n/a
4835397	RECOG_RESP	n/a	LTP262	ltpFR	1	4	1	OREGANO	983	n/a	1	n/a	n/a	n/a	n/a	n/a
4836599	RECOG_CONF	n/a	LTP262	ltpFR	1	4	1	OREGANO	983	5	1	n/a	n/a	n/a	n/a	n/a
4838392	RECOG_TARGET	n/a	LTP262	ltpFR	1	4	1	ASSISTANT	48	5	1	n/a	n/a	n/a	n/a	n/a
4839557	RECOG_RESP	n/a	LTP262	ltpFR	1	4	1	ASSISTANT	48	n/a	1	n/a	n/a	n/a	n/a	n/a
4840919	RECOG_CONF	n/a	LTP262	ltpFR	1	4	1	ASSISTANT	48	5	1	n/a	n/a	n/a	n/a	n/a
4842774	RECOG_TARGET	n/a	LTP262	ltpFR	1	4	0	CAULIFLOWER	262	5	0	n/a	n/a	n/a	n/a	n/a
4844067	RECOG_RESP	n/a	LTP262	ltpFR	1	4	0	CAULIFLOWER	262	n/a	0	n/a	n/a	n/a	n/a	n/a
4845269	RECOG_CONF	n/a	LTP262	ltpFR	1	4	0	CAULIFLOWER	262	5	0	n/a	n/a	n/a	n/a	n/a
4847040	RECOG_LURE	n/a	LTP262	ltpFR	1	4	n/a	WAGON	1578	3	n/a	n/a	n/a	n/a	n/a	n/a
4848083	RECOG_RESP	n/a	LTP262	ltpFR	1	4	n/a	WAGON	1578	n/a	n/a	n/a	n/a	n/a	n/a	n/a
4849120	RECOG_CONF	n/a	LTP262	ltpFR	1	4	n/a	WAGON	1578	3	n/a	n/a	n/a	n/a	n/a	n/a
4850654	RECOG_TARGET	n/a	LTP262	ltpFR	1	4	1	ELM	527	5	1	n/a	n/a	n/a	n/a	n/a
4851650	RECOG_RESP	n/a	LTP262	ltpFR	1	4	1	ELM	527	n/a	1	n/a	n/a	n/a	n/a	n/a
4852722	RECOG_CONF	n/a	LTP262	ltpFR	1	4	1	ELM	527	5	1	n/a	n/a	n/a	n/a	n/a
4854485	RECOG_TARGET	n/a	LTP262	ltpFR	1	4	-1	GARLIC	624	5	-1	n/a	n/a	n/a	n/a	n/a
4855296	RECOG_RESP	n/a	LTP262	ltpFR	1	4	-1	GARLIC	624	n/a	-1	n/a	n/a	n/a	n/a	n/a
4856384	RECOG_CONF	n/a	LTP262	ltpFR	1	4	-1	GARLIC	624	5	-1	n/a	n/a	n/a	n/a	n/a
4858095	RECOG_TARGET	n/a	LTP262	ltpFR	1	4	1	BEARD	107	5	1	n/a	n/a	n/a	n/a	n/a
4859018	RECOG_RESP	n/a	LTP262	ltpFR	1	4	1	BEARD	107	n/a	1	n/a	n/a	n/a	n/a	n/a
4860105	RECOG_CONF	n/a	LTP262	ltpFR	1	4	1	BEARD	107	5	1	n/a	n/a	n/a	n/a	n/a
4861846	RECOG_LURE	n/a	LTP262	ltpFR	1	4	n/a	STAMP	1370	3	n/a	n/a	n/a	n/a	n/a	n/a
4862879	RECOG_RESP	n/a	LTP262	ltpFR	1	4	n/a	STAMP	1370	n/a	n/a	n/a	n/a	n/a	n/a	n/a
4864166	RECOG_CONF	n/a	LTP262	ltpFR	1	4	n/a	STAMP	1370	3	n/a	n/a	n/a	n/a	n/a	n/a
4865711	RECOG_TARGET	n/a	LTP262	ltpFR	1	4	1	CRICKET	408	3	1	n/a	n/a	n/a	n/a	n/a
4867364	RECOG_RESP	n/a	LTP262	ltpFR	1	4	1	CRICKET	408	n/a	1	n/a	n/a	n/a	n/a	n/a
4868616	RECOG_CONF	n/a	LTP262	ltpFR	1	4	1	CRICKET	408	3	1	n/a	n/a	n/a	n/a	n/a
4870010	RECOG_TARGET	n/a	LTP262	ltpFR	1	4	0	RAG	1160	5	0	n/a	n/a	n/a	n/a	n/a
4871195	RECOG_RESP	n/a	LTP262	ltpFR	1	4	0	RAG	1160	n/a	0	n/a	n/a	n/a	n/a	n/a
4872258	RECOG_CONF	n/a	LTP262	ltpFR	1	4	0	RAG	1160	5	0	n/a	n/a	n/a	n/a	n/a
4873938	RECOG_LURE	n/a	LTP262	ltpFR	1	4	n/a	SYRUP	1425	5	n/a	n/a	n/a	n/a	n/a	n/a
4875221	RECOG_RESP	n/a	LTP262	ltpFR	1	4	n/a	SYRUP	1425	n/a	n/a	n/a	n/a	n/a	n/a	n/a
4876508	RECOG_CONF	n/a	LTP262	ltpFR	1	4	n/a	SYRUP	1425	5	n/a	n/a	n/a	n/a	n/a	n/a
4887088	REC_START	n/a	LTP262	ltpFR	1	5	n/a	n/a	n/a	n/a	n/a	n/a	n/a	n/a	n/a	n/a
4887141	RECOG_LURE	n/a	LTP262	ltpFR	1	5	n/a	VALVE	1546	3	n/a	n/a	n/a	n/a	n/a	n/a
4888729	RECOG_RESP	n/a	LTP262	ltpFR	1	5	n/a	VALVE	1546	n/a	n/a	n/a	n/a	n/a	n/a	n/a
4890844	RECOG_CONF	n/a	LTP262	ltpFR	1	5	n/a	VALVE	1546	3	n/a	n/a	n/a	n/a	n/a	n/a
4892763	RECOG_TARGET	n/a	LTP262	ltpFR	1	5	0	BLUEJAY	141	3	0	n/a	n/a	n/a	n/a	n/a
4894202	RECOG_RESP	n/a	LTP262	ltpFR	1	5	0	BLUEJAY	141	n/a	0	n/a	n/a	n/a	n/a	n/a
4896781	RECOG_CONF	n/a	LTP262	ltpFR	1	5	0	BLUEJAY	141	3	0	n/a	n/a	n/a	n/a	n/a
4898401	RECOG_TARGET	n/a	LTP262	ltpFR	1	5	0	WHEEL	1603	5	1	n/a	n/a	n/a	n/a	n/a
4899445	RECOG_RESP	n/a	LTP262	ltpFR	1	5	0	WHEEL	1603	n/a	1	n/a	n/a	n/a	n/a	n/a
4900572	RECOG_CONF	n/a	LTP262	ltpFR	1	5	0	WHEEL	1603	5	1	n/a	n/a	n/a	n/a	n/a
4902298	RECOG_TARGET	n/a	LTP262	ltpFR	1	5	-1	ANTENNA	28	5	-1	n/a	n/a	n/a	n/a	n/a
4903286	RECOG_RESP	n/a	LTP262	ltpFR	1	5	-1	ANTENNA	28	n/a	-1	n/a	n/a	n/a	n/a	n/a
4904344	RECOG_CONF	n/a	LTP262	ltpFR	1	5	-1	ANTENNA	28	5	-1	n/a	n/a	n/a	n/a	n/a
4906365	RECOG_TARGET	n/a	LTP262	ltpFR	1	5	-1	CIGAR	308	5	-1	n/a	n/a	n/a	n/a	n/a
4907471	RECOG_RESP	n/a	LTP262	ltpFR	1	5	-1	CIGAR	308	n/a	-1	n/a	n/a	n/a	n/a	n/a
4908554	RECOG_CONF	n/a	LTP262	ltpFR	1	5	-1	CIGAR	308	5	-1	n/a	n/a	n/a	n/a	n/a
4910228	RECOG_LURE	n/a	LTP262	ltpFR	1	5	n/a	MATCH	878	3	n/a	n/a	n/a	n/a	n/a	n/a
4911517	RECOG_RESP	n/a	LTP262	ltpFR	1	5	n/a	MATCH	878	n/a	n/a	n/a	n/a	n/a	n/a	n/a
4912745	RECOG_CONF	n/a	LTP262	ltpFR	1	5	n/a	MATCH	878	3	n/a	n/a	n/a	n/a	n/a	n/a
4914528	RECOG_TARGET	n/a	LTP262	ltpFR	1	5	0	CONDUCTOR	362	5	1	n/a	n/a	n/a	n/a	n/a
4915688	RECOG_RESP	n/a	LTP262	ltpFR	1	5	0	CONDUCTOR	362	n/a	1	n/a	n/a	n/a	n/a	n/a
4916945	RECOG_CONF	n/a	LTP262	ltpFR	1	5	0	CONDUCTOR	362	5	1	n/a	n/a	n/a	n/a	n/a
4918643	RECOG_TARGET	n/a	LTP262	ltpFR	1	5	-1	TYPEWRITER	1531	5	-1	n/a	n/a	n/a	n/a	n/a
4919649	RECOG_RESP	n/a	LTP262	ltpFR	1	5	-1	TYPEWRITER	1531	n/a	-1	n/a	n/a	n/a	n/a	n/a
4920796	RECOG_CONF	n/a	LTP262	ltpFR	1	5	-1	TYPEWRITER	1531	5	-1	n/a	n/a	n/a	n/a	n/a
4922555	RECOG_TARGET	n/a	LTP262	ltpFR	1	5	0	TROUT	1511	5	0	n/a	n/a	n/a	n/a	n/a
4924019	RECOG_RESP	n/a	LTP262	ltpFR	1	5	0	TROUT	1511	n/a	0	n/a	n/a	n/a	n/a	n/a
4925945	RECOG_CONF	n/a	LTP262	ltpFR	1	5	0	TROUT	1511	5	0	n/a	n/a	n/a	n/a	n/a
4927394	RECOG_LURE	n/a	LTP262	ltpFR	1	5	n/a	SLIDE	1326	3	n/a	n/a	n/a	n/a	n/a	n/a
4928748	RECOG_RESP	n/a	LTP262	ltpFR	1	5	n/a	SLIDE	1326	n/a	n/a	n/a	n/a	n/a	n/a	n/a
4929816	RECOG_CONF	n/a	LTP262	ltpFR	1	5	n/a	SLIDE	1326	3	n/a	n/a	n/a	n/a	n/a	n/a
4931359	RECOG_TARGET	n/a	LTP262	ltpFR	1	5	1	RANCH	1166	5	0	n/a	n/a	n/a	n/a	n/a
4932345	RECOG_RESP	n/a	LTP262	ltpFR	1	5	1	RANCH	1166	n/a	0	n/a	n/a	n/a	n/a	n/a
4933447	RECOG_CONF	n/a	LTP262	ltpFR	1	5	1	RANCH	1166	5	0	n/a	n/a	n/a	n/a	n/a
4935055	RECOG_LURE	n/a	LTP262	ltpFR	1	5	n/a	STALLION	1369	2	n/a	n/a	n/a	n/a	n/a	n/a
4936411	RECOG_RESP	n/a	LTP262	ltpFR	1	5	n/a	STALLION	1369	n/a	n/a	n/a	n/a	n/a	n/a	n/a
4937578	RECOG_CONF	n/a	LTP262	ltpFR	1	5	n/a	STALLION	1369	2	n/a	n/a	n/a	n/a	n/a	n/a
4939455	RECOG_TARGET	n/a	LTP262	ltpFR	1	5	0	DESSERT	453	5	0	n/a	n/a	n/a	n/a	n/a
4940631	RECOG_RESP	n/a	LTP262	ltpFR	1	5	0	DESSERT	453	n/a	0	n/a	n/a	n/a	n/a	n/a
4941669	RECOG_CONF	n/a	LTP262	ltpFR	1	5	0	DESSERT	453	5	0	n/a	n/a	n/a	n/a	n/a
4943219	RECOG_TARGET	n/a	LTP262	ltpFR	1	5	1	SCAPEGOAT	1244	5	1	n/a	n/a	n/a	n/a	n/a
4944333	RECOG_RESP	n/a	LTP262	ltpFR	1	5	1	SCAPEGOAT	1244	n/a	1	n/a	n/a	n/a	n/a	n/a
4945430	RECOG_CONF	n/a	LTP262	ltpFR	1	5	1	SCAPEGOAT	1244	5	1	n/a	n/a	n/a	n/a	n/a
4947017	RECOG_TARGET	n/a	LTP262	ltpFR	1	5	0	BATH	98	5	1	n/a	n/a	n/a	n/a	n/a
4948229	RECOG_RESP	n/a	LTP262	ltpFR	1	5	0	BATH	98	n/a	1	n/a	n/a	n/a	n/a	n/a
4949411	RECOG_CONF	n/a	LTP262	ltpFR	1	5	0	BATH	98	5	1	n/a	n/a	n/a	n/a	n/a
4951283	RECOG_TARGET	n/a	LTP262	ltpFR	1	5	1	STRANGER	1389	5	1	n/a	n/a	n/a	n/a	n/a
4952315	RECOG_RESP	n/a	LTP262	ltpFR	1	5	1	STRANGER	1389	n/a	1	n/a	n/a	n/a	n/a	n/a
4953332	RECOG_CONF	n/a	LTP262	ltpFR	1	5	1	STRANGER	1389	5	1	n/a	n/a	n/a	n/a	n/a
4955198	RECOG_TARGET	n/a	LTP262	ltpFR	1	5	0	CROW	414	5	1	n/a	n/a	n/a	n/a	n/a
4956221	RECOG_RESP	n/a	LTP262	ltpFR	1	5	0	CROW	414	n/a	1	n/a	n/a	n/a	n/a	n/a
4957363	RECOG_CONF	n/a	LTP262	ltpFR	1	5	0	CROW	414	5	1	n/a	n/a	n/a	n/a	n/a
4958962	RECOG_TARGET	n/a	LTP262	ltpFR	1	5	1	BEVERAGE	123	5	0	n/a	n/a	n/a	n/a	n/a
4959867	RECOG_RESP	n/a	LTP262	ltpFR	1	5	1	BEVERAGE	123	n/a	0	n/a	n/a	n/a	n/a	n/a
4960945	RECOG_CONF	n/a	LTP262	ltpFR	1	5	1	BEVERAGE	123	5	0	n/a	n/a	n/a	n/a	n/a
4962827	RECOG_TARGET	n/a	LTP262	ltpFR	1	5	0	MOSQUITO	917	3	0	n/a	n/a	n/a	n/a	n/a
4964517	RECOG_RESP	n/a	LTP262	ltpFR	1	5	0	MOSQUITO	917	n/a	0	n/a	n/a	n/a	n/a	n/a
4965644	RECOG_CONF	n/a	LTP262	ltpFR	1	5	0	MOSQUITO	917	3	0	n/a	n/a	n/a	n/a	n/a
4967260	RECOG_TARGET	n/a	LTP262	ltpFR	1	5	1	FIG	563	5	1	n/a	n/a	n/a	n/a	n/a
4968238	RECOG_RESP	n/a	LTP262	ltpFR	1	5	1	FIG	563	n/a	1	n/a	n/a	n/a	n/a	n/a
4969256	RECOG_CONF	n/a	LTP262	ltpFR	1	5	1	FIG	563	5	1	n/a	n/a	n/a	n/a	n/a
4993244	REC_START	n/a	LTP262	ltpFR	1	6	n/a	n/a	n/a	n/a	n/a	n/a	n/a	n/a	n/a	n/a
4993306	RECOG_TARGET	n/a	LTP262	ltpFR	1	6	1	KEEPER	769	5	1	n/a	n/a	n/a	n/a	n/a
4994256	RECOG_RESP	n/a	LTP262	ltpFR	1	6	1	KEEPER	769	n/a	1	n/a	n/a	n/a	n/a	n/a
4995344	RECOG_CONF	n/a	LTP262	ltpFR	1	6	1	KEEPER	769	5	1	n/a	n/a	n/a	n/a	n/a
4996989	RECOG_TARGET	n/a	LTP262	ltpFR	1	6	0	DRIVEWAY	500	5	1	n/a	n/a	n/a	n/a	n/a
4997793	RECOG_RESP	n/a	LTP262	ltpFR	1	6	0	DRIVEWAY	500	n/a	1	n/a	n/a	n/a	n/a	n/a
4998756	RECOG_CONF	n/a	LTP262	ltpFR	1	6	0	DRIVEWAY	500	5	1	n/a	n/a	n/a	n/a	n/a
5000217	RECOG_TARGET	n/a	LTP262	ltpFR	1	6	-1	TRUMPET	1513	5	-1	n/a	n/a	n/a	n/a	n/a
5001256	RECOG_RESP	n/a	LTP262	ltpFR	1	6	-1	TRUMPET	1513	n/a	-1	n/a	n/a	n/a	n/a	n/a
5002348	RECOG_CONF	n/a	LTP262	ltpFR	1	6	-1	TRUMPET	1513	5	-1	n/a	n/a	n/a	n/a	n/a
5004334	RECOG_TARGET	n/a	LTP262	ltpFR	1	6	1	VET	1560	5	1	n/a	n/a	n/a	n/a	n/a
5005471	RECOG_RESP	n/a	LTP262	ltpFR	1	6	1	VET	1560	n/a	1	n/a	n/a	n/a	n/a	n/a
5006479	RECOG_CONF	n/a	LTP262	ltpFR	1	6	1	VET	1560	5	1	n/a	n/a	n/a	n/a	n/a
5008231	RECOG_TARGET	n/a	LTP262	ltpFR	1	6	-1	LADY	794	5	-1	n/a	n/a	n/a	n/a	n/a
5009327	RECOG_RESP	n/a	LTP262	ltpFR	1	6	-1	LADY	794	n/a	-1	n/a	n/a	n/a	n/a	n/a
5010320	RECOG_CONF	n/a	LTP262	ltpFR	1	6	-1	LADY	794	5	-1	n/a	n/a	n/a	n/a	n/a
5012129	RECOG_TARGET	n/a	LTP262	ltpFR	1	6	0	LITERATURE	831	5	1	n/a	n/a	n/a	n/a	n/a
5013034	RECOG_RESP	n/a	LTP262	ltpFR	1	6	0	LITERATURE	831	n/a	1	n/a	n/a	n/a	n/a	n/a
5014091	RECOG_CONF	n/a	LTP262	ltpFR	1	6	0	LITERATURE	831	5	1	n/a	n/a	n/a	n/a	n/a
5015759	RECOG_TARGET	n/a	LTP262	ltpFR	1	6	0	PILLOW	1069	5	1	n/a	n/a	n/a	n/a	n/a
5016850	RECOG_RESP	n/a	LTP262	ltpFR	1	6	0	PILLOW	1069	n/a	1	n/a	n/a	n/a	n/a	n/a
5017853	RECOG_CONF	n/a	LTP262	ltpFR	1	6	0	PILLOW	1069	5	1	n/a	n/a	n/a	n/a	n/a
5019674	RECOG_LURE	n/a	LTP262	ltpFR	1	6	n/a	YOLK	1633	3	n/a	n/a	n/a	n/a	n/a	n/a
5021380	RECOG_RESP	n/a	LTP262	ltpFR	1	6	n/a	YOLK	1633	n/a	n/a	n/a	n/a	n/a	n/a	n/a
5022393	RECOG_CONF	n/a	LTP262	ltpFR	1	6	n/a	YOLK	1633	3	n/a	n/a	n/a	n/a	n/a	n/a
5024024	RECOG_TARGET	n/a	LTP262	ltpFR	1	6	0	LITTER	832	5	1	n/a	n/a	n/a	n/a	n/a
5025121	RECOG_RESP	n/a	LTP262	ltpFR	1	6	0	LITTER	832	n/a	1	n/a	n/a	n/a	n/a	n/a
5026443	RECOG_CONF	n/a	LTP262	ltpFR	1	6	0	LITTER	832	5	1	n/a	n/a	n/a	n/a	n/a
5028358	RECOG_TARGET	n/a	LTP262	ltpFR	1	6	0	SWORD	1423	5	1	n/a	n/a	n/a	n/a	n/a
5029212	RECOG_RESP	n/a	LTP262	ltpFR	1	6	0	SWORD	1423	n/a	1	n/a	n/a	n/a	n/a	n/a
5030364	RECOG_CONF	n/a	LTP262	ltpFR	1	6	0	SWORD	1423	5	1	n/a	n/a	n/a	n/a	n/a
5032390	RECOG_TARGET	n/a	LTP262	ltpFR	1	6	0	PEAR	1033	5	0	n/a	n/a	n/a	n/a	n/a
5033577	RECOG_RESP	n/a	LTP262	ltpFR	1	6	0	PEAR	1033	n/a	0	n/a	n/a	n/a	n/a	n/a
5034495	RECOG_CONF	n/a	LTP262	ltpFR	1	6	0	PEAR	1033	5	0	n/a	n/a	n/a	n/a	n/a
5036170	RECOG_TARGET	n/a	LTP262	ltpFR	1	6	-1	NAPKIN	937	3	-1	n/a	n/a	n/a	n/a	n/a
5037972	RECOG_RESP	n/a	LTP262	ltpFR	1	6	-1	NAPKIN	937	n/a	-1	n/a	n/a	n/a	n/a	n/a
5038955	RECOG_CONF	n/a	LTP262	ltpFR	1	6	-1	NAPKIN	937	3	-1	n/a	n/a	n/a	n/a	n/a
5040751	RECOG_LURE	n/a	LTP262	ltpFR	1	6	n/a	DRESS	495	5	n/a	n/a	n/a	n/a	n/a	n/a
5042128	RECOG_RESP	n/a	LTP262	ltpFR	1	6	n/a	DRESS	495	n/a	n/a	n/a	n/a	n/a	n/a	n/a
5044013	RECOG_CONF	n/a	LTP262	ltpFR	1	6	n/a	DRESS	495	5	n/a	n/a	n/a	n/a	n/a	n/a
5045522	RECOG_TARGET	n/a	LTP262	ltpFR	1	6	-1	CANAL	226	5	-1	n/a	n/a	n/a	n/a	n/a
5046717	RECOG_RESP	n/a	LTP262	ltpFR	1	6	-1	CANAL	226	n/a	-1	n/a	n/a	n/a	n/a	n/a
5047994	RECOG_CONF	n/a	LTP262	ltpFR	1	6	-1	CANAL	226	5	-1	n/a	n/a	n/a	n/a	n/a
5049754	RECOG_LURE	n/a	LTP262	ltpFR	1	6	n/a	PHOTO	1055	2	n/a	n/a	n/a	n/a	n/a	n/a
5051082	RECOG_RESP	n/a	LTP262	ltpFR	1	6	n/a	PHOTO	1055	n/a	n/a	n/a	n/a	n/a	n/a	n/a
5052344	RECOG_CONF	n/a	LTP262	ltpFR	1	6	n/a	PHOTO	1055	2	n/a	n/a	n/a	n/a	n/a	n/a
5054034	RECOG_TARGET	n/a	LTP262	ltpFR	1	6	0	PLUM	1090	3	0	n/a	n/a	n/a	n/a	n/a
5055482	RECOG_RESP	n/a	LTP262	ltpFR	1	6	0	PLUM	1090	n/a	0	n/a	n/a	n/a	n/a	n/a
5057722	RECOG_CONF	n/a	LTP262	ltpFR	1	6	0	PLUM	1090	3	0	n/a	n/a	n/a	n/a	n/a
5059792	RECOG_TARGET	n/a	LTP262	ltpFR	1	6	-1	SHEET	1279	5	-1	n/a	n/a	n/a	n/a	n/a
5060785	RECOG_RESP	n/a	LTP262	ltpFR	1	6	-1	SHEET	1279	n/a	-1	n/a	n/a	n/a	n/a	n/a
5062192	RECOG_CONF	n/a	LTP262	ltpFR	1	6	-1	SHEET	1279	5	-1	n/a	n/a	n/a	n/a	n/a
5064092	RECOG_TARGET	n/a	LTP262	ltpFR	1	6	-1	SUGAR	1401	5	-1	n/a	n/a	n/a	n/a	n/a
5065295	RECOG_RESP	n/a	LTP262	ltpFR	1	6	-1	SUGAR	1401	n/a	-1	n/a	n/a	n/a	n/a	n/a
5066492	RECOG_CONF	n/a	LTP262	ltpFR	1	6	-1	SUGAR	1401	5	-1	n/a	n/a	n/a	n/a	n/a
5068455	RECOG_LURE	n/a	LTP262	ltpFR	1	6	n/a	RING	1193	3	n/a	n/a	n/a	n/a	n/a	n/a
5070314	RECOG_RESP	n/a	LTP262	ltpFR	1	6	n/a	RING	1193	n/a	n/a	n/a	n/a	n/a	n/a	n/a
5072120	RECOG_CONF	n/a	LTP262	ltpFR	1	6	n/a	RING	1193	3	n/a	n/a	n/a	n/a	n/a	n/a
5073845	RECOG_TARGET	n/a	LTP262	ltpFR	1	6	-1	STREET	1393	5	-1	n/a	n/a	n/a	n/a	n/a
5075023	RECOG_RESP	n/a	LTP262	ltpFR	1	6	-1	STREET	1393	n/a	-1	n/a	n/a	n/a	n/a	n/a
5076190	RECOG_CONF	n/a	LTP262	ltpFR	1	6	-1	STREET	1393	5	-1	n/a	n/a	n/a	n/a	n/a
5097817	REC_START	n/a	LTP262	ltpFR	1	7	n/a	n/a	n/a	n/a	n/a	n/a	n/a	n/a	n/a	n/a
5097869	RECOG_LURE	n/a	LTP262	ltpFR	1	7	n/a	LID	817	3	n/a	n/a	n/a	n/a	n/a	n/a
5098854	RECOG_RESP	n/a	LTP262	ltpFR	1	7	n/a	LID	817	n/a	n/a	n/a	n/a	n/a	n/a	n/a
5100356	RECOG_CONF	n/a	LTP262	ltpFR	1	7	n/a	LID	817	3	n/a	n/a	n/a	n/a	n/a	n/a
5102152	RECOG_TARGET	n/a	LTP262	ltpFR	1	7	0	DOOR	486	5	1	n/a	n/a	n/a	n/a	n/a
5103279	RECOG_RESP	n/a	LTP262	ltpFR	1	7	0	DOOR	486	n/a	1	n/a	n/a	n/a	n/a	n/a
5104397	RECOG_CONF	n/a	LTP262	ltpFR	1	7	0	DOOR	486	5	1	n/a	n/a	n/a	n/a	n/a
5106100	RECOG_TARGET	n/a	LTP262	ltpFR	1	7	0	FUDGE	611	5	0	n/a	n/a	n/a	n/a	n/a
5107395	RECOG_RESP	n/a	LTP262	ltpFR	1	7	0	FUDGE	611	n/a	0	n/a	n/a	n/a	n/a	n/a
5108468	RECOG_CONF	n/a	LTP262	ltpFR	1	7	0	FUDGE	611	5	0	n/a	n/a	n/a	n/a	n/a
5110215	RECOG_TARGET	n/a	LTP262	ltpFR	1	7	0	DIGGER	464	5	1	n/a	n/a	n/a	n/a	n/a
5111256	RECOG_RESP	n/a	LTP262	ltpFR	1	7	0	DIGGER	464	n/a	1	n/a	n/a	n/a	n/a	n/a
5112359	RECOG_CONF	n/a	LTP262	ltpFR	1	7	0	DIGGER	464	5	1	n/a	n/a	n/a	n/a	n/a
5113946	RECOG_TARGET	n/a	LTP262	ltpFR	1	7	1	PROFESSIONAL	1130	5	1	n/a	n/a	n/a	n/a	n/a
5115063	RECOG_RESP	n/a	LTP262	ltpFR	1	7	1	PROFESSIONAL	1130	n/a	1	n/a	n/a	n/a	n/a	n/a
5116170	RECOG_CONF	n/a	LTP262	ltpFR	1	7	1	PROFESSIONAL	1130	5	1	n/a	n/a	n/a	n/a	n/a
5117928	RECOG_TARGET	n/a	LTP262	ltpFR	1	7	-1	CABLE	213	4	-1	n/a	n/a	n/a	n/a	n/a
5119203	RECOG_RESP	n/a	LTP262	ltpFR	1	7	-1	CABLE	213	n/a	-1	n/a	n/a	n/a	n/a	n/a
5120251	RECOG_CONF	n/a	LTP262	ltpFR	1	7	-1	CABLE	213	4	-1	n/a	n/a	n/a	n/a	n/a
5122277	RECOG_TARGET	n/a	LTP262	ltpFR	1	7	0	BEDROOM	111	3	1	n/a	n/a	n/a	n/a	n/a
5123543	RECOG_RESP	n/a	LTP262	ltpFR	1	7	0	BEDROOM	111	n/a	1	n/a	n/a	n/a	n/a	n/a
5124870	RECOG_CONF	n/a	LTP262	ltpFR	1	7	0	BEDROOM	111	3	1	n/a	n/a	n/a	n/a	n/a
5126577	RECOG_TARGET	n/a	LTP262	ltpFR	1	7	0	ALLIGATOR	16	5	1	n/a	n/a	n/a	n/a	n/a
5127804	RECOG_RESP	n/a	LTP262	ltpFR	1	7	0	ALLIGATOR	16	n/a	1	n/a	n/a	n/a	n/a	n/a
5129021	RECOG_CONF	n/a	LTP262	ltpFR	1	7	0	ALLIGATOR	16	5	1	n/a	n/a	n/a	n/a	n/a
5130659	RECOG_TARGET	n/a	LTP262	ltpFR	1	7	0	SWAMP	1416	5	1	n/a	n/a	n/a	n/a	n/a
5131834	RECOG_RESP	n/a	LTP262	ltpFR	1	7	0	SWAMP	1416	n/a	1	n/a	n/a	n/a	n/a	n/a
5132952	RECOG_CONF	n/a	LTP262	ltpFR	1	7	0	SWAMP	1416	5	1	n/a	n/a	n/a	n/a	n/a
5135042	RECOG_TARGET	n/a	LTP262	ltpFR	1	7	-1	WAND	1586	5	-1	n/a	n/a	n/a	n/a	n/a
5136155	RECOG_RESP	n/a	LTP262	ltpFR	1	7	-1	WAND	1586	n/a	-1	n/a	n/a	n/a	n/a	n/a
5137392	RECOG_CONF	n/a	LTP262	ltpFR	1	7	-1	WAND	1586	5	-1	n/a	n/a	n/a	n/a	n/a
5139208	RECOG_LURE	n/a	LTP262	ltpFR	1	7	n/a	CROWN	415	5	n/a	n/a	n/a	n/a	n/a	n/a
5140420	RECOG_RESP	n/a	LTP262	ltpFR	1	7	n/a	CROWN	415	n/a	n/a	n/a	n/a	n/a	n/a	n/a
5141572	RECOG_CONF	n/a	LTP262	ltpFR	1	7	n/a	CROWN	415	5	n/a	n/a	n/a	n/a	n/a	n/a
5143391	RECOG_LURE	n/a	LTP262	ltpFR	1	7	n/a	WAIST	1579	3	n/a	n/a	n/a	n/a	n/a	n/a
5145299	RECOG_RESP	n/a	LTP262	ltpFR	1	7	n/a	WAIST	1579	n/a	n/a	n/a	n/a	n/a	n/a	n/a
5146850	RECOG_CONF	n/a	LTP262	ltpFR	1	7	n/a	WAIST	1579	3	n/a	n/a	n/a	n/a	n/a	n/a
5148610	RECOG_TARGET	n/a	LTP262	ltpFR	1	7	-1	EMPEROR	529	5	-1	n/a	n/a	n/a	n/a	n/a
5149629	RECOG_RESP	n/a	LTP262	ltpFR	1	7	-1	EMPEROR	529	n/a	-1	n/a	n/a	n/a	n/a	n/a
5150801	RECOG_CONF	n/a	LTP262	ltpFR	1	7	-1	EMPEROR	529	5	-1	n/a	n/a	n/a	n/a	n/a
5152508	RECOG_TARGET	n/a	LTP262	ltpFR	1	7	-1	CLIMBER	323	5	-1	n/a	n/a	n/a	n/a	n/a
5153645	RECOG_RESP	n/a	LTP262	ltpFR	1	7	-1	CLIMBER	323	n/a	-1	n/a	n/a	n/a	n/a	n/a
5154972	RECOG_CONF	n/a	LTP262	ltpFR	1	7	-1	CLIMBER	323	5	-1	n/a	n/a	n/a	n/a	n/a
5156674	RECOG_LURE	n/a	LTP262	ltpFR	1	7	n/a	MICROPHONE	890	4	n/a	n/a	n/a	n/a	n/a	n/a
5157731	RECOG_RESP	n/a	LTP262	ltpFR	1	7	n/a	MICROPHONE	890	n/a	n/a	n/a	n/a	n/a	n/a	n/a
5158973	RECOG_CONF	n/a	LTP262	ltpFR	1	7	n/a	MICROPHONE	890	4	n/a	n/a	n/a	n/a	n/a	n/a
5160672	RECOG_TARGET	n/a	LTP262	ltpFR	1	7	-1	CRAB	397	5	-1	n/a	n/a	n/a	n/a	n/a
5161722	RECOG_RESP	n/a	LTP262	ltpFR	1	7	-1	CRAB	397	n/a	-1	n/a	n/a	n/a	n/a	n/a
5163093	RECOG_CONF	n/a	LTP262	ltpFR	1	7	-1	CRAB	397	5	-1	n/a	n/a	n/a	n/a	n/a
5164721	RECOG_TARGET	n/a	LTP262	ltpFR	1	7	1	GRASSHOPPER	656	3	1	n/a	n/a	n/a	n/a	n/a
5165727	RECOG_RESP	n/a	LTP262	ltpFR	1	7	1	GRASSHOPPER	656	n/a	1	n/a	n/a	n/a	n/a	n/a
5167094	RECOG_CONF	n/a	LTP262	ltpFR	1	7	1	GRASSHOPPER	656	3	1	n/a	n/a	n/a	n/a	n/a
5168803	RECOG_LURE	n/a	LTP262	ltpFR	1	7	n/a	POLE	1097	3	n/a	n/a	n/a	n/a	n/a	n/a
5170217	RECOG_RESP	n/a	LTP262	ltpFR	1	7	n/a	POLE	1097	n/a	n/a	n/a	n/a	n/a	n/a	n/a
5171335	RECOG_CONF	n/a	LTP262	ltpFR	1	7	n/a	POLE	1097	3	n/a	n/a	n/a	n/a	n/a	n/a
5173186	RECOG_TARGET	n/a	LTP262	ltpFR	1	7	-1	RUBY	1214	5	-1	n/a	n/a	n/a	n/a	n/a
5174093	RECOG_RESP	n/a	LTP262	ltpFR	1	7	-1	RUBY	1214	n/a	-1	n/a	n/a	n/a	n/a	n/a
5175236	RECOG_CONF	n/a	LTP262	ltpFR	1	7	-1	RUBY	1214	5	-1	n/a	n/a	n/a	n/a	n/a
5176917	RECOG_LURE	n/a	LTP262	ltpFR	1	7	n/a	EDITORIAL	517	5	n/a	n/a	n/a	n/a	n/a	n/a
5178044	RECOG_RESP	n/a	LTP262	ltpFR	1	7	n/a	EDITORIAL	517	n/a	n/a	n/a	n/a	n/a	n/a	n/a
5179297	RECOG_CONF	n/a	LTP262	ltpFR	1	7	n/a	EDITORIAL	517	5	n/a	n/a	n/a	n/a	n/a	n/a
5202059	REC_START	n/a	LTP262	ltpFR	1	8	n/a	n/a	n/a	n/a	n/a	n/a	n/a	n/a	n/a	n/a
5202112	RECOG_TARGET	n/a	LTP262	ltpFR	1	8	0	JOURNAL	760	4	0	n/a	n/a	n/a	n/a	n/a
5203151	RECOG_RESP	n/a	LTP262	ltpFR	1	8	0	JOURNAL	760	n/a	0	n/a	n/a	n/a	n/a	n/a
5204189	RECOG_CONF	n/a	LTP262	ltpFR	1	8	0	JOURNAL	760	4	0	n/a	n/a	n/a	n/a	n/a
5205775	RECOG_TARGET	n/a	LTP262	ltpFR	1	8	1	WALLET	1583	3	0	n/a	n/a	n/a	n/a	n/a
5206668	RECOG_RESP	n/a	LTP262	ltpFR	1	8	1	WALLET	1583	n/a	0	n/a	n/a	n/a	n/a	n/a
5208130	RECOG_CONF	n/a	LTP262	ltpFR	1	8	1	WALLET	1583	3	0	n/a	n/a	n/a	n/a	n/a
5210042	RECOG_TARGET	n/a	LTP262	ltpFR	1	8	1	SCALLOP	1242	5	1	n/a	n/a	n/a	n/a	n/a
5210884	RECOG_RESP	n/a	LTP262	ltpFR	1	8	1	SCALLOP	1242	n/a	1	n/a	n/a	n/a	n/a	n/a
5211921	RECOG_CONF	n/a	LTP262	ltpFR	1	8	1	SCALLOP	1242	5	1	n/a	n/a	n/a	n/a	n/a
5213438	RECOG_TARGET	n/a	LTP262	ltpFR	1	8	0	EGG	518	3	0	n/a	n/a	n/a	n/a	n/a
5215179	RECOG_RESP	n/a	LTP262	ltpFR	1	8	0	EGG	518	n/a	0	n/a	n/a	n/a	n/a	n/a
5216232	RECOG_CONF	n/a	LTP262	ltpFR	1	8	0	EGG	518	3	0	n/a	n/a	n/a	n/a	n/a
5217771	RECOG_LURE	n/a	LTP262	ltpFR	1	8	n/a	GRAVEL	659	2	n/a	n/a	n/a	n/a	n/a	n/a
5219793	RECOG_RESP	n/a	LTP262	ltpFR	1	8	n/a	GRAVEL	659	n/a	n/a	n/a	n/a	n/a	n/a	n/a
5220981	RECOG_CONF	n/a	LTP262	ltpFR	1	8	n/a	GRAVEL	659	2	n/a	n/a	n/a	n/a	n/a	n/a
5222806	RECOG_TARGET	n/a	LTP262	ltpFR	1	8	1	DEER	444	5	1	n/a	n/a	n/a	n/a	n/a
5223665	RECOG_RESP	n/a	LTP262	ltpFR	1	8	1	DEER	444	n/a	1	n/a	n/a	n/a	n/a	n/a
5224822	RECOG_CONF	n/a	LTP262	ltpFR	1	8	1	DEER	444	5	1	n/a	n/a	n/a	n/a	n/a
5226537	RECOG_TARGET	n/a	LTP262	ltpFR	1	8	-1	BRANCH	168	4	-1	n/a	n/a	n/a	n/a	n/a
5228269	RECOG_RESP	n/a	LTP262	ltpFR	1	8	-1	BRANCH	168	n/a	-1	n/a	n/a	n/a	n/a	n/a
5229641	RECOG_CONF	n/a	LTP262	ltpFR	1	8	-1	BRANCH	168	4	-1	n/a	n/a	n/a	n/a	n/a
5231205	RECOG_LURE	n/a	LTP262	ltpFR	1	8	n/a	BEAN	105	3	n/a	n/a	n/a	n/a	n/a	n/a
5232699	RECOG_RESP	n/a	LTP262	ltpFR	1	8	n/a	BEAN	105	n/a	n/a	n/a	n/a	n/a	n/a	n/a
5234091	RECOG_CONF	n/a	LTP262	ltpFR	1	8	n/a	BEAN	105	3	n/a	n/a	n/a	n/a	n/a	n/a
5235922	RECOG_TARGET	n/a	LTP262	ltpFR	1	8	1	WATER	1594	5	0	n/a	n/a	n/a	n/a	n/a
5236905	RECOG_RESP	n/a	LTP262	ltpFR	1	8	1	WATER	1594	n/a	0	n/a	n/a	n/a	n/a	n/a
5238072	RECOG_CONF	n/a	LTP262	ltpFR	1	8	1	WATER	1594	5	0	n/a	n/a	n/a	n/a	n/a
5239703	RECOG_TARGET	n/a	LTP262	ltpFR	1	8	-1	CUCUMBER	421	5	-1	n/a	n/a	n/a	n/a	n/a
5240915	RECOG_RESP	n/a	LTP262	ltpFR	1	8	-1	CUCUMBER	421	n/a	-1	n/a	n/a	n/a	n/a	n/a
5242213	RECOG_CONF	n/a	LTP262	ltpFR	1	8	-1	CUCUMBER	421	5	-1	n/a	n/a	n/a	n/a	n/a
5243752	RECOG_TARGET	n/a	LTP262	ltpFR	1	8	0	DRAWING	494	5	1	n/a	n/a	n/a	n/a	n/a
5244901	RECOG_RESP	n/a	LTP262	ltpFR	1	8	0	DRAWING	494	n/a	1	n/a	n/a	n/a	n/a	n/a
5246184	RECOG_CONF	n/a	LTP262	ltpFR	1	8	0	DRAWING	494	5	1	n/a	n/a	n/a	n/a	n/a
5248152	RECOG_TARGET	n/a	LTP262	ltpFR	1	8	1	THORN	1459	5	0	n/a	n/a	n/a	n/a	n/a
5249252	RECOG_RESP	n/a	LTP262	ltpFR	1	8	1	THORN	1459	n/a	0	n/a	n/a	n/a	n/a	n/a
5250414	RECOG_CONF	n/a	LTP262	ltpFR	1	8	1	THORN	1459	5	0	n/a	n/a	n/a	n/a	n/a
5252150	RECOG_TARGET	n/a	LTP262	ltpFR	1	8	0	WEED	1599	5	0	n/a	n/a	n/a	n/a	n/a
5253342	RECOG_RESP	n/a	LTP262	ltpFR	1	8	0	WEED	1599	n/a	0	n/a	n/a	n/a	n/a	n/a
5254664	RECOG_CONF	n/a	LTP262	ltpFR	1	8	0	WEED	1599	5	0	n/a	n/a	n/a	n/a	n/a
5256751	RECOG_TARGET	n/a	LTP262	ltpFR	1	8	-1	TAR	1435	5	-1	n/a	n/a	n/a	n/a	n/a
5257797	RECOG_RESP	n/a	LTP262	ltpFR	1	8	-1	TAR	1435	n/a	-1	n/a	n/a	n/a	n/a	n/a
5258825	RECOG_CONF	n/a	LTP262	ltpFR	1	8	-1	TAR	1435	5	-1	n/a	n/a	n/a	n/a	n/a
5260766	RECOG_TARGET	n/a	LTP262	ltpFR	1	8	1	TELESCOPE	1446	5	0	n/a	n/a	n/a	n/a	n/a
5261803	RECOG_RESP	n/a	LTP262	ltpFR	1	8	1	TELESCOPE	1446	n/a	0	n/a	n/a	n/a	n/a	n/a
5263025	RECOG_CONF	n/a	LTP262	ltpFR	1	8	1	TELESCOPE	1446	5	0	n/a	n/a	n/a	n/a	n/a
5264999	RECOG_TARGET	n/a	LTP262	ltpFR	1	8	0	UMPIRE	1535	5	1	n/a	n/a	n/a	n/a	n/a
5266158	RECOG_RESP	n/a	LTP262	ltpFR	1	8	0	UMPIRE	1535	n/a	1	n/a	n/a	n/a	n/a	n/a
5267306	RECOG_CONF	n/a	LTP262	ltpFR	1	8	0	UMPIRE	1535	5	1	n/a	n/a	n/a	n/a	n/a
5269011	RECOG_LURE	n/a	LTP262	ltpFR	1	8	n/a	TEAPOT	1442	3	n/a	n/a	n/a	n/a	n/a	n/a
5270169	RECOG_RESP	n/a	LTP262	ltpFR	1	8	n/a	TEAPOT	1442	n/a	n/a	n/a	n/a	n/a	n/a	n/a
5271296	RECOG_CONF	n/a	LTP262	ltpFR	1	8	n/a	TEAPOT	1442	3	n/a	n/a	n/a	n/a	n/a	n/a
