mstime	trial_type	stim_file	subject	experiment	session	trial	task	item_name	item_num	recog_resp	recog_conf	resp	color_r	color_g	color_b	case	font
0	SESS_START	n/a	LTP098	ltpFR	4	n/a	n/a	n/a	n/a	1	n/a	n/a	n/a	n/a	n/a	n/a	n/a
70557	WORD	wordpools/wasnorm_wordpool.txt	LTP098	ltpFR	4	1	0	SHEET	1279	n/a	n/a	1	0.422607421875	0.5869140625	0	lower	amplitud.ttf
74552	WORD	wordpools/wasnorm_wordpool.txt	LTP098	ltpFR	4	1	0	VICTOR	1563	n/a	n/a	1	0.422607421875	0.5869140625	0	lower	amplitud.ttf
78514	WORD	wordpools/wasnorm_wordpool.txt	LTP098	ltpFR	4	1	0	GRASSHOPPER	656	n/a	n/a	0	0.422607421875	0.5869140625	0	lower	amplitud.ttf
82368	WORD	wordpools/wasnorm_wordpool.txt	LTP098	ltpFR	4	1	0	RECIPE	1175	n/a	n/a	0	0.422607421875	0.5869140625	0	lower	amplitud.ttf
86355	WORD	wordpools/wasnorm_wordpool.txt	LTP098	ltpFR	4	1	1	BLUEPRINT	142	n/a	n/a	0	0.57763671875	0.412841796875	1	upper	zerothre.ttf
90475	WORD	wordpools/wasnorm_wordpool.txt	LTP098	ltpFR	4	1	1	CROWN	415	n/a	n/a	0	0.57763671875	0.412841796875	1	upper	zerothre.ttf
94621	WORD	wordpools/wasnorm_wordpool.txt	LTP098	ltpFR	4	1	1	JEWEL	757	n/a	n/a	1	0.57763671875	0.412841796875	1	upper	zerothre.ttf
98533	WORD	wordpools/wasnorm_wordpool.txt	LTP098	ltpFR	4	1	1	BALLOT	76	n/a	n/a	0	0.57763671875	0.412841796875	1	upper	zerothre.ttf
102386	WORD	wordpools/wasnorm_wordpool.txt	LTP098	ltpFR	4	1	1	BLANKET	135	n/a	n/a	0	0.57763671875	0.412841796875	1	upper	zerothre.ttf
106215	WORD	wordpools/wasnorm_wordpool.txt	LTP098	ltpFR	4	1	1	CABIN	211	n/a	n/a	0	0.57763671875	0.412841796875	1	upper	zerothre.ttf
110369	WORD	wordpools/wasnorm_wordpool.txt	LTP098	ltpFR	4	1	0	CANDIDATE	228	n/a	n/a	1	0.422607421875	0.5869140625	0	lower	amplitud.ttf
114306	WORD	wordpools/wasnorm_wordpool.txt	LTP098	ltpFR	4	1	0	PELICAN	1039	n/a	n/a	1	0.422607421875	0.5869140625	0	lower	amplitud.ttf
118218	WORD	wordpools/wasnorm_wordpool.txt	LTP098	ltpFR	4	1	0	GIRAFFE	636	n/a	n/a	1	0.422607421875	0.5869140625	0	lower	amplitud.ttf
122355	WORD	wordpools/wasnorm_wordpool.txt	LTP098	ltpFR	4	1	0	POSSUM	1112	n/a	n/a	1	0.422607421875	0.5869140625	0	lower	amplitud.ttf
126417	WORD	wordpools/wasnorm_wordpool.txt	LTP098	ltpFR	4	1	1	NICOTINE	951	n/a	n/a	0	0.57763671875	0.412841796875	1	upper	zerothre.ttf
130412	WORD	wordpools/wasnorm_wordpool.txt	LTP098	ltpFR	4	1	1	CIGAR	308	n/a	n/a	0	0.57763671875	0.412841796875	1	upper	zerothre.ttf
136148	REC_START	n/a	LTP098	ltpFR	4	1	n/a	n/a	n/a	n/a	n/a	n/a	n/a	n/a	n/a	n/a	n/a
137355	REC_WORD	wordpools/wasnorm_wordpool.txt	LTP098	ltpFR	4	1	1	NICOTINE	951	n/a	n/a	0	n/a	n/a	n/a	n/a	n/a
138084	REC_WORD	wordpools/wasnorm_wordpool.txt	LTP098	ltpFR	4	1	1	CIGAR	308	n/a	n/a	0	n/a	n/a	n/a	n/a	n/a
139261	REC_WORD	wordpools/wasnorm_wordpool.txt	LTP098	ltpFR	4	1	1	BALLOT	76	n/a	n/a	0	n/a	n/a	n/a	n/a	n/a
140094	REC_WORD	wordpools/wasnorm_wordpool.txt	LTP098	ltpFR	4	1	0	POSSUM	1112	n/a	n/a	1	n/a	n/a	n/a	n/a	n/a
140927	REC_WORD	wordpools/wasnorm_wordpool.txt	LTP098	ltpFR	4	1	0	GIRAFFE	636	n/a	n/a	1	n/a	n/a	n/a	n/a	n/a
141970	REC_WORD	wordpools/wasnorm_wordpool.txt	LTP098	ltpFR	4	1	0	GRASSHOPPER	656	n/a	n/a	0	n/a	n/a	n/a	n/a	n/a
142855	REC_WORD	wordpools/wasnorm_wordpool.txt	LTP098	ltpFR	4	1	0	SHEET	1279	n/a	n/a	1	n/a	n/a	n/a	n/a	n/a
144005	REC_WORD	wordpools/wasnorm_wordpool.txt	LTP098	ltpFR	4	1	0	RECIPE	1175	n/a	n/a	0	n/a	n/a	n/a	n/a	n/a
147153	REC_WORD	wordpools/wasnorm_wordpool.txt	LTP098	ltpFR	4	1	0	CANDIDATE	228	n/a	n/a	1	n/a	n/a	n/a	n/a	n/a
150859	REC_WORD	wordpools/wasnorm_wordpool.txt	LTP098	ltpFR	4	1	1	CROWN	415	n/a	n/a	0	n/a	n/a	n/a	n/a	n/a
151777	REC_WORD	wordpools/wasnorm_wordpool.txt	LTP098	ltpFR	4	1	1	JEWEL	757	n/a	n/a	1	n/a	n/a	n/a	n/a	n/a
162149	REC_WORD	wordpools/wasnorm_wordpool.txt	LTP098	ltpFR	4	1	1	BALLOT	76	n/a	n/a	0	n/a	n/a	n/a	n/a	n/a
218944	WORD	wordpools/wasnorm_wordpool.txt	LTP098	ltpFR	4	2	1	STALLION	1369	n/a	n/a	1	0.57763671875	0.412841796875	1	upper	zerothre.ttf
223097	WORD	wordpools/wasnorm_wordpool.txt	LTP098	ltpFR	4	2	1	RIDER	1191	n/a	n/a	1	0.57763671875	0.412841796875	1	upper	zerothre.ttf
226951	WORD	wordpools/wasnorm_wordpool.txt	LTP098	ltpFR	4	2	0	BALL	73	n/a	n/a	0	0.422607421875	0.5869140625	0	lower	amplitud.ttf
230913	WORD	wordpools/wasnorm_wordpool.txt	LTP098	ltpFR	4	2	0	DRUM	502	n/a	n/a	1	0.422607421875	0.5869140625	0	lower	amplitud.ttf
234725	WORD	wordpools/wasnorm_wordpool.txt	LTP098	ltpFR	4	2	0	BLOUSE	139	n/a	n/a	0	0.422607421875	0.5869140625	0	lower	amplitud.ttf
238804	WORD	wordpools/wasnorm_wordpool.txt	LTP098	ltpFR	4	2	0	ROCK	1201	n/a	n/a	0	0.422607421875	0.5869140625	0	lower	amplitud.ttf
242774	WORD	wordpools/wasnorm_wordpool.txt	LTP098	ltpFR	4	2	1	KIDNEY	776	n/a	n/a	1	0.57763671875	0.412841796875	1	upper	zerothre.ttf
246778	WORD	wordpools/wasnorm_wordpool.txt	LTP098	ltpFR	4	2	1	SOCIETY	1338	n/a	n/a	0	0.57763671875	0.412841796875	1	upper	zerothre.ttf
250690	WORD	wordpools/wasnorm_wordpool.txt	LTP098	ltpFR	4	2	1	VINE	1568	n/a	n/a	1	0.57763671875	0.412841796875	1	upper	zerothre.ttf
254660	WORD	wordpools/wasnorm_wordpool.txt	LTP098	ltpFR	4	2	1	DICE	461	n/a	n/a	0	0.57763671875	0.412841796875	1	upper	zerothre.ttf
258614	WORD	wordpools/wasnorm_wordpool.txt	LTP098	ltpFR	4	2	1	DECK	443	n/a	n/a	0	0.57763671875	0.412841796875	1	upper	zerothre.ttf
262425	WORD	wordpools/wasnorm_wordpool.txt	LTP098	ltpFR	4	2	1	BUFFALO	186	n/a	n/a	1	0.57763671875	0.412841796875	1	upper	zerothre.ttf
266479	WORD	wordpools/wasnorm_wordpool.txt	LTP098	ltpFR	4	2	0	CHIEF	298	n/a	n/a	1	0.422607421875	0.5869140625	0	lower	amplitud.ttf
270516	WORD	wordpools/wasnorm_wordpool.txt	LTP098	ltpFR	4	2	0	TUBA	1515	n/a	n/a	0	0.422607421875	0.5869140625	0	lower	amplitud.ttf
274345	WORD	wordpools/wasnorm_wordpool.txt	LTP098	ltpFR	4	2	0	DONKEY	484	n/a	n/a	1	0.422607421875	0.5869140625	0	lower	amplitud.ttf
278523	WORD	wordpools/wasnorm_wordpool.txt	LTP098	ltpFR	4	2	0	POLYESTER	1100	n/a	n/a	0	0.422607421875	0.5869140625	0	lower	amplitud.ttf
284425	REC_START	n/a	LTP098	ltpFR	4	2	n/a	n/a	n/a	n/a	n/a	n/a	n/a	n/a	n/a	n/a	n/a
284924	REC_WORD	wordpools/wasnorm_wordpool.txt	LTP098	ltpFR	4	2	0	CHIEF	298	n/a	n/a	1	n/a	n/a	n/a	n/a	n/a
285617	REC_WORD	wordpools/wasnorm_wordpool.txt	LTP098	ltpFR	4	2	1	BUFFALO	186	n/a	n/a	1	n/a	n/a	n/a	n/a	n/a
286314	REC_WORD	wordpools/wasnorm_wordpool.txt	LTP098	ltpFR	4	2	1	DECK	443	n/a	n/a	0	n/a	n/a	n/a	n/a	n/a
286919	REC_WORD	wordpools/wasnorm_wordpool.txt	LTP098	ltpFR	4	2	0	TUBA	1515	n/a	n/a	0	n/a	n/a	n/a	n/a	n/a
287633	REC_WORD	wordpools/wasnorm_wordpool.txt	LTP098	ltpFR	4	2	0	DONKEY	484	n/a	n/a	1	n/a	n/a	n/a	n/a	n/a
288213	REC_WORD	wordpools/wasnorm_wordpool.txt	LTP098	ltpFR	4	2	0	POLYESTER	1100	n/a	n/a	0	n/a	n/a	n/a	n/a	n/a
289877	REC_WORD	wordpools/wasnorm_wordpool.txt	LTP098	ltpFR	4	2	0	BLOUSE	139	n/a	n/a	0	n/a	n/a	n/a	n/a	n/a
290701	REC_WORD	wordpools/wasnorm_wordpool.txt	LTP098	ltpFR	4	2	0	ROCK	1201	n/a	n/a	0	n/a	n/a	n/a	n/a	n/a
292002	REC_WORD	wordpools/wasnorm_wordpool.txt	LTP098	ltpFR	4	2	1	STALLION	1369	n/a	n/a	1	n/a	n/a	n/a	n/a	n/a
292857	REC_WORD	wordpools/wasnorm_wordpool.txt	LTP098	ltpFR	4	2	n/a	WRITER	1627	n/a	n/a	n/a	n/a	n/a	n/a	n/a	n/a
296333	REC_WORD	wordpools/wasnorm_wordpool.txt	LTP098	ltpFR	4	2	0	DRUM	502	n/a	n/a	1	n/a	n/a	n/a	n/a	n/a
303621	REC_WORD	wordpools/wasnorm_wordpool.txt	LTP098	ltpFR	4	2	1	VINE	1568	n/a	n/a	1	n/a	n/a	n/a	n/a	n/a
372132	WORD	wordpools/wasnorm_wordpool.txt	LTP098	ltpFR	4	3	1	NICKEL	950	n/a	n/a	0	0.57763671875	0.412841796875	1	upper	zerothre.ttf
376210	WORD	wordpools/wasnorm_wordpool.txt	LTP098	ltpFR	4	3	1	GLASSES	640	n/a	n/a	0	0.57763671875	0.412841796875	1	upper	zerothre.ttf
380264	WORD	wordpools/wasnorm_wordpool.txt	LTP098	ltpFR	4	3	0	EYE	545	n/a	n/a	0	0.422607421875	0.5869140625	0	lower	amplitud.ttf
384417	WORD	wordpools/wasnorm_wordpool.txt	LTP098	ltpFR	4	3	0	MOLECULE	905	n/a	n/a	0	0.422607421875	0.5869140625	0	lower	amplitud.ttf
388421	WORD	wordpools/wasnorm_wordpool.txt	LTP098	ltpFR	4	3	0	HEEL	700	n/a	n/a	0	0.422607421875	0.5869140625	0	lower	amplitud.ttf
392558	WORD	wordpools/wasnorm_wordpool.txt	LTP098	ltpFR	4	3	0	DIRECTOR	471	n/a	n/a	1	0.422607421875	0.5869140625	0	lower	amplitud.ttf
396536	WORD	wordpools/wasnorm_wordpool.txt	LTP098	ltpFR	4	3	1	SOFTBALL	1343	n/a	n/a	0	0.57763671875	0.412841796875	1	upper	zerothre.ttf
400448	WORD	wordpools/wasnorm_wordpool.txt	LTP098	ltpFR	4	3	1	ATHLETE	52	n/a	n/a	1	0.57763671875	0.412841796875	1	upper	zerothre.ttf
404444	WORD	wordpools/wasnorm_wordpool.txt	LTP098	ltpFR	4	3	1	STAGE	1366	n/a	n/a	0	0.57763671875	0.412841796875	1	upper	zerothre.ttf
408456	WORD	wordpools/wasnorm_wordpool.txt	LTP098	ltpFR	4	3	1	SCHOOL	1248	n/a	n/a	0	0.57763671875	0.412841796875	1	upper	zerothre.ttf
412627	WORD	wordpools/wasnorm_wordpool.txt	LTP098	ltpFR	4	3	0	LAWYER	806	n/a	n/a	1	0.422607421875	0.5869140625	0	lower	amplitud.ttf
416496	WORD	wordpools/wasnorm_wordpool.txt	LTP098	ltpFR	4	3	0	SNEAKER	1334	n/a	n/a	0	0.422607421875	0.5869140625	0	lower	amplitud.ttf
420434	WORD	wordpools/wasnorm_wordpool.txt	LTP098	ltpFR	4	3	0	SHIRT	1287	n/a	n/a	0	0.422607421875	0.5869140625	0	lower	amplitud.ttf
424396	WORD	wordpools/wasnorm_wordpool.txt	LTP098	ltpFR	4	3	0	SWEATER	1419	n/a	n/a	1	0.422607421875	0.5869140625	0	lower	amplitud.ttf
428549	WORD	wordpools/wasnorm_wordpool.txt	LTP098	ltpFR	4	3	1	LADY	794	n/a	n/a	0	0.57763671875	0.412841796875	1	upper	zerothre.ttf
432511	WORD	wordpools/wasnorm_wordpool.txt	LTP098	ltpFR	4	3	1	ADOLESCENT	7	n/a	n/a	1	0.57763671875	0.412841796875	1	upper	zerothre.ttf
438081	REC_START	n/a	LTP098	ltpFR	4	3	n/a	n/a	n/a	n/a	n/a	n/a	n/a	n/a	n/a	n/a	n/a
438572	REC_WORD	wordpools/wasnorm_wordpool.txt	LTP098	ltpFR	4	3	1	ADOLESCENT	7	n/a	n/a	1	n/a	n/a	n/a	n/a	n/a
439572	REC_WORD	wordpools/wasnorm_wordpool.txt	LTP098	ltpFR	4	3	1	LADY	794	n/a	n/a	0	n/a	n/a	n/a	n/a	n/a
440160	REC_WORD	wordpools/wasnorm_wordpool.txt	LTP098	ltpFR	4	3	0	SNEAKER	1334	n/a	n/a	0	n/a	n/a	n/a	n/a	n/a
440897	REC_WORD	wordpools/wasnorm_wordpool.txt	LTP098	ltpFR	4	3	0	SHIRT	1287	n/a	n/a	0	n/a	n/a	n/a	n/a	n/a
441912	REC_WORD	wordpools/wasnorm_wordpool.txt	LTP098	ltpFR	4	3	1	SOFTBALL	1343	n/a	n/a	0	n/a	n/a	n/a	n/a	n/a
445095	REC_WORD	wordpools/wasnorm_wordpool.txt	LTP098	ltpFR	4	3	0	HEEL	700	n/a	n/a	0	n/a	n/a	n/a	n/a	n/a
446217	REC_WORD	wordpools/wasnorm_wordpool.txt	LTP098	ltpFR	4	3	n/a	SHOE	1288	n/a	n/a	n/a	n/a	n/a	n/a	n/a	n/a
454084	REC_WORD	wordpools/wasnorm_wordpool.txt	LTP098	ltpFR	4	3	1	SCHOOL	1248	n/a	n/a	0	n/a	n/a	n/a	n/a	n/a
455865	REC_WORD	wordpools/wasnorm_wordpool.txt	LTP098	ltpFR	4	3	1	STAGE	1366	n/a	n/a	0	n/a	n/a	n/a	n/a	n/a
458669	REC_WORD	wordpools/wasnorm_wordpool.txt	LTP098	ltpFR	4	3	0	LAWYER	806	n/a	n/a	1	n/a	n/a	n/a	n/a	n/a
464286	REC_WORD	wordpools/wasnorm_wordpool.txt	LTP098	ltpFR	4	3	1	NICKEL	950	n/a	n/a	0	n/a	n/a	n/a	n/a	n/a
464970	REC_WORD	wordpools/wasnorm_wordpool.txt	LTP098	ltpFR	4	3	1	GLASSES	640	n/a	n/a	0	n/a	n/a	n/a	n/a	n/a
516472	WORD	wordpools/wasnorm_wordpool.txt	LTP098	ltpFR	4	4	-1	SHIP	1286	n/a	n/a	-1	1.0	1.0	1	upper	Verdana.ttf
520442	WORD	wordpools/wasnorm_wordpool.txt	LTP098	ltpFR	4	4	-1	SCENERY	1247	n/a	n/a	-1	1.0	1.0	1	upper	Verdana.ttf
524255	WORD	wordpools/wasnorm_wordpool.txt	LTP098	ltpFR	4	4	-1	OCEAN	970	n/a	n/a	-1	1.0	1.0	1	upper	Verdana.ttf
528183	WORD	wordpools/wasnorm_wordpool.txt	LTP098	ltpFR	4	4	-1	BOAT	144	n/a	n/a	-1	1.0	1.0	1	upper	Verdana.ttf
532279	WORD	wordpools/wasnorm_wordpool.txt	LTP098	ltpFR	4	4	-1	CANE	231	n/a	n/a	-1	1.0	1.0	1	upper	Verdana.ttf
536241	WORD	wordpools/wasnorm_wordpool.txt	LTP098	ltpFR	4	4	-1	PIN	1072	n/a	n/a	-1	1.0	1.0	1	upper	Verdana.ttf
540228	WORD	wordpools/wasnorm_wordpool.txt	LTP098	ltpFR	4	4	-1	NEEDLE	941	n/a	n/a	-1	1.0	1.0	1	upper	Verdana.ttf
544306	WORD	wordpools/wasnorm_wordpool.txt	LTP098	ltpFR	4	4	-1	PASTA	1021	n/a	n/a	-1	1.0	1.0	1	upper	Verdana.ttf
548376	WORD	wordpools/wasnorm_wordpool.txt	LTP098	ltpFR	4	4	-1	PERFUME	1049	n/a	n/a	-1	1.0	1.0	1	upper	Verdana.ttf
552463	WORD	wordpools/wasnorm_wordpool.txt	LTP098	ltpFR	4	4	-1	HINGE	709	n/a	n/a	-1	1.0	1.0	1	upper	Verdana.ttf
556401	WORD	wordpools/wasnorm_wordpool.txt	LTP098	ltpFR	4	4	-1	CANAL	226	n/a	n/a	-1	1.0	1.0	1	upper	Verdana.ttf
560296	WORD	wordpools/wasnorm_wordpool.txt	LTP098	ltpFR	4	4	-1	CONE	363	n/a	n/a	-1	1.0	1.0	1	upper	Verdana.ttf
564126	WORD	wordpools/wasnorm_wordpool.txt	LTP098	ltpFR	4	4	-1	SHEARS	1276	n/a	n/a	-1	1.0	1.0	1	upper	Verdana.ttf
568245	WORD	wordpools/wasnorm_wordpool.txt	LTP098	ltpFR	4	4	-1	OINTMENT	974	n/a	n/a	-1	1.0	1.0	1	upper	Verdana.ttf
572365	WORD	wordpools/wasnorm_wordpool.txt	LTP098	ltpFR	4	4	-1	RAISIN	1163	n/a	n/a	-1	1.0	1.0	1	upper	Verdana.ttf
576327	WORD	wordpools/wasnorm_wordpool.txt	LTP098	ltpFR	4	4	-1	BLUEBERRY	140	n/a	n/a	-1	1.0	1.0	1	upper	Verdana.ttf
582014	REC_START	n/a	LTP098	ltpFR	4	4	n/a	n/a	n/a	n/a	n/a	n/a	n/a	n/a	n/a	n/a	n/a
582478	REC_WORD	wordpools/wasnorm_wordpool.txt	LTP098	ltpFR	4	4	-1	CONE	363	n/a	n/a	-1	n/a	n/a	n/a	n/a	n/a
583034	REC_WORD	wordpools/wasnorm_wordpool.txt	LTP098	ltpFR	4	4	-1	SHEARS	1276	n/a	n/a	-1	n/a	n/a	n/a	n/a	n/a
583959	REC_WORD	wordpools/wasnorm_wordpool.txt	LTP098	ltpFR	4	4	-1	OINTMENT	974	n/a	n/a	-1	n/a	n/a	n/a	n/a	n/a
584708	REC_WORD	wordpools/wasnorm_wordpool.txt	LTP098	ltpFR	4	4	-1	BLUEBERRY	140	n/a	n/a	-1	n/a	n/a	n/a	n/a	n/a
585565	REC_WORD	wordpools/wasnorm_wordpool.txt	LTP098	ltpFR	4	4	-1	RAISIN	1163	n/a	n/a	-1	n/a	n/a	n/a	n/a	n/a
587362	REC_WORD	wordpools/wasnorm_wordpool.txt	LTP098	ltpFR	4	4	-1	CANAL	226	n/a	n/a	-1	n/a	n/a	n/a	n/a	n/a
588489	REC_WORD	wordpools/wasnorm_wordpool.txt	LTP098	ltpFR	4	4	-1	OCEAN	970	n/a	n/a	-1	n/a	n/a	n/a	n/a	n/a
589467	REC_WORD	wordpools/wasnorm_wordpool.txt	LTP098	ltpFR	4	4	-1	BOAT	144	n/a	n/a	-1	n/a	n/a	n/a	n/a	n/a
590195	REC_WORD	wordpools/wasnorm_wordpool.txt	LTP098	ltpFR	4	4	-1	SHIP	1286	n/a	n/a	-1	n/a	n/a	n/a	n/a	n/a
591323	REC_WORD	wordpools/wasnorm_wordpool.txt	LTP098	ltpFR	4	4	-1	HINGE	709	n/a	n/a	-1	n/a	n/a	n/a	n/a	n/a
592226	REC_WORD	wordpools/wasnorm_wordpool.txt	LTP098	ltpFR	4	4	-1	PERFUME	1049	n/a	n/a	-1	n/a	n/a	n/a	n/a	n/a
596251	REC_WORD	wordpools/wasnorm_wordpool.txt	LTP098	ltpFR	4	4	-1	PIN	1072	n/a	n/a	-1	n/a	n/a	n/a	n/a	n/a
597179	REC_WORD	wordpools/wasnorm_wordpool.txt	LTP098	ltpFR	4	4	-1	NEEDLE	941	n/a	n/a	-1	n/a	n/a	n/a	n/a	n/a
599985	REC_WORD_VV	wordpools/wasnorm_wordpool.txt	LTP098	ltpFR	4	4	n/a	<>	-1	n/a	n/a	n/a	n/a	n/a	n/a	n/a	n/a
600985	REC_WORD_VV	wordpools/wasnorm_wordpool.txt	LTP098	ltpFR	4	4	n/a	<>	-1	n/a	n/a	n/a	n/a	n/a	n/a	n/a	n/a
606867	REC_WORD	wordpools/wasnorm_wordpool.txt	LTP098	ltpFR	4	4	-1	CANE	231	n/a	n/a	-1	n/a	n/a	n/a	n/a	n/a
610005	REC_WORD	wordpools/wasnorm_wordpool.txt	LTP098	ltpFR	4	4	-1	PASTA	1021	n/a	n/a	-1	n/a	n/a	n/a	n/a	n/a
660163	WORD	wordpools/wasnorm_wordpool.txt	LTP098	ltpFR	4	5	-1	CARD	243	n/a	n/a	-1	1.0	1.0	1	upper	Verdana.ttf
663985	WORD	wordpools/wasnorm_wordpool.txt	LTP098	ltpFR	4	5	-1	DIARY	460	n/a	n/a	-1	1.0	1.0	1	upper	Verdana.ttf
667914	WORD	wordpools/wasnorm_wordpool.txt	LTP098	ltpFR	4	5	-1	BAG	69	n/a	n/a	-1	1.0	1.0	1	upper	Verdana.ttf
671801	WORD	wordpools/wasnorm_wordpool.txt	LTP098	ltpFR	4	5	-1	WAREHOUSE	1588	n/a	n/a	-1	1.0	1.0	1	upper	Verdana.ttf
675754	WORD	wordpools/wasnorm_wordpool.txt	LTP098	ltpFR	4	5	-1	PAGE	1001	n/a	n/a	-1	1.0	1.0	1	upper	Verdana.ttf
679642	WORD	wordpools/wasnorm_wordpool.txt	LTP098	ltpFR	4	5	-1	ROCKET	1202	n/a	n/a	-1	1.0	1.0	1	upper	Verdana.ttf
683820	WORD	wordpools/wasnorm_wordpool.txt	LTP098	ltpFR	4	5	-1	WATERFALL	1595	n/a	n/a	-1	1.0	1.0	1	upper	Verdana.ttf
687782	WORD	wordpools/wasnorm_wordpool.txt	LTP098	ltpFR	4	5	-1	NAPKIN	937	n/a	n/a	-1	1.0	1.0	1	upper	Verdana.ttf
691619	WORD	wordpools/wasnorm_wordpool.txt	LTP098	ltpFR	4	5	-1	SEA	1259	n/a	n/a	-1	1.0	1.0	1	upper	Verdana.ttf
695681	WORD	wordpools/wasnorm_wordpool.txt	LTP098	ltpFR	4	5	-1	SQUID	1361	n/a	n/a	-1	1.0	1.0	1	upper	Verdana.ttf
699727	WORD	wordpools/wasnorm_wordpool.txt	LTP098	ltpFR	4	5	-1	MECHANIC	884	n/a	n/a	-1	1.0	1.0	1	upper	Verdana.ttf
703546	WORD	wordpools/wasnorm_wordpool.txt	LTP098	ltpFR	4	5	-1	SUBMARINE	1398	n/a	n/a	-1	1.0	1.0	1	upper	Verdana.ttf
707442	WORD	wordpools/wasnorm_wordpool.txt	LTP098	ltpFR	4	5	-1	VOLLEYBALL	1576	n/a	n/a	-1	1.0	1.0	1	upper	Verdana.ttf
711613	WORD	wordpools/wasnorm_wordpool.txt	LTP098	ltpFR	4	5	-1	COACH	331	n/a	n/a	-1	1.0	1.0	1	upper	Verdana.ttf
715616	WORD	wordpools/wasnorm_wordpool.txt	LTP098	ltpFR	4	5	-1	AIRCRAFT	11	n/a	n/a	-1	1.0	1.0	1	upper	Verdana.ttf
719595	WORD	wordpools/wasnorm_wordpool.txt	LTP098	ltpFR	4	5	-1	HAMPER	682	n/a	n/a	-1	1.0	1.0	1	upper	Verdana.ttf
725554	REC_START	n/a	LTP098	ltpFR	4	5	n/a	n/a	n/a	n/a	n/a	n/a	n/a	n/a	n/a	n/a	n/a
726107	REC_WORD	wordpools/wasnorm_wordpool.txt	LTP098	ltpFR	4	5	-1	VOLLEYBALL	1576	n/a	n/a	-1	n/a	n/a	n/a	n/a	n/a
727020	REC_WORD	wordpools/wasnorm_wordpool.txt	LTP098	ltpFR	4	5	-1	COACH	331	n/a	n/a	-1	n/a	n/a	n/a	n/a	n/a
727869	REC_WORD	wordpools/wasnorm_wordpool.txt	LTP098	ltpFR	4	5	-1	AIRCRAFT	11	n/a	n/a	-1	n/a	n/a	n/a	n/a	n/a
728761	REC_WORD	wordpools/wasnorm_wordpool.txt	LTP098	ltpFR	4	5	-1	HAMPER	682	n/a	n/a	-1	n/a	n/a	n/a	n/a	n/a
729709	REC_WORD	wordpools/wasnorm_wordpool.txt	LTP098	ltpFR	4	5	-1	ROCKET	1202	n/a	n/a	-1	n/a	n/a	n/a	n/a	n/a
730787	REC_WORD	wordpools/wasnorm_wordpool.txt	LTP098	ltpFR	4	5	-1	WATERFALL	1595	n/a	n/a	-1	n/a	n/a	n/a	n/a	n/a
733181	REC_WORD	wordpools/wasnorm_wordpool.txt	LTP098	ltpFR	4	5	-1	OCEAN	970	n/a	n/a	-1	n/a	n/a	n/a	n/a	n/a
734782	REC_WORD	wordpools/wasnorm_wordpool.txt	LTP098	ltpFR	4	5	-1	SEA	1259	n/a	n/a	-1	n/a	n/a	n/a	n/a	n/a
737187	REC_WORD	wordpools/wasnorm_wordpool.txt	LTP098	ltpFR	4	5	-1	SQUID	1361	n/a	n/a	-1	n/a	n/a	n/a	n/a	n/a
741532	REC_WORD	wordpools/wasnorm_wordpool.txt	LTP098	ltpFR	4	5	-1	DIARY	460	n/a	n/a	-1	n/a	n/a	n/a	n/a	n/a
742640	REC_WORD	wordpools/wasnorm_wordpool.txt	LTP098	ltpFR	4	5	-1	CARD	243	n/a	n/a	-1	n/a	n/a	n/a	n/a	n/a
743613	REC_WORD	wordpools/wasnorm_wordpool.txt	LTP098	ltpFR	4	5	-1	PAGE	1001	n/a	n/a	-1	n/a	n/a	n/a	n/a	n/a
744481	REC_WORD	wordpools/wasnorm_wordpool.txt	LTP098	ltpFR	4	5	-1	WAREHOUSE	1588	n/a	n/a	-1	n/a	n/a	n/a	n/a	n/a
747599	REC_WORD	wordpools/wasnorm_wordpool.txt	LTP098	ltpFR	4	5	-1	MECHANIC	884	n/a	n/a	-1	n/a	n/a	n/a	n/a	n/a
798658	REC_WORD	wordpools/wasnorm_wordpool.txt	LTP098	ltpFR	4	5	-1	BAG	69	n/a	n/a	-1	n/a	n/a	n/a	n/a	n/a
804271	WORD	wordpools/wasnorm_wordpool.txt	LTP098	ltpFR	4	6	1	FRUIT	610	n/a	n/a	1	0.57763671875	0.412841796875	1	upper	zerothre.ttf
808474	WORD	wordpools/wasnorm_wordpool.txt	LTP098	ltpFR	4	6	1	CAGE	218	n/a	n/a	0	0.57763671875	0.412841796875	1	upper	zerothre.ttf
812495	WORD	wordpools/wasnorm_wordpool.txt	LTP098	ltpFR	4	6	1	PREDATOR	1120	n/a	n/a	1	0.57763671875	0.412841796875	1	upper	zerothre.ttf
816682	WORD	wordpools/wasnorm_wordpool.txt	LTP098	ltpFR	4	6	1	DENIM	446	n/a	n/a	0	0.57763671875	0.412841796875	1	upper	zerothre.ttf
820560	WORD	wordpools/wasnorm_wordpool.txt	LTP098	ltpFR	4	6	1	SUBWAY	1400	n/a	n/a	0	0.57763671875	0.412841796875	1	upper	zerothre.ttf
824598	WORD	wordpools/wasnorm_wordpool.txt	LTP098	ltpFR	4	6	1	POTATO	1115	n/a	n/a	1	0.57763671875	0.412841796875	1	upper	zerothre.ttf
828735	WORD	wordpools/wasnorm_wordpool.txt	LTP098	ltpFR	4	6	1	ZIPPER	1636	n/a	n/a	0	0.57763671875	0.412841796875	1	upper	zerothre.ttf
832880	WORD	wordpools/wasnorm_wordpool.txt	LTP098	ltpFR	4	6	1	NITROGEN	954	n/a	n/a	0	0.57763671875	0.412841796875	1	upper	zerothre.ttf
836917	WORD	wordpools/wasnorm_wordpool.txt	LTP098	ltpFR	4	6	1	MUSHROOM	934	n/a	n/a	1	0.57763671875	0.412841796875	1	upper	zerothre.ttf
840821	WORD	wordpools/wasnorm_wordpool.txt	LTP098	ltpFR	4	6	1	SANDWICH	1232	n/a	n/a	1	0.57763671875	0.412841796875	1	upper	zerothre.ttf
844833	WORD	wordpools/wasnorm_wordpool.txt	LTP098	ltpFR	4	6	1	EAGLE	512	n/a	n/a	1	0.57763671875	0.412841796875	1	upper	zerothre.ttf
848837	WORD	wordpools/wasnorm_wordpool.txt	LTP098	ltpFR	4	6	1	BIRD	129	n/a	n/a	1	0.57763671875	0.412841796875	1	upper	zerothre.ttf
852865	WORD	wordpools/wasnorm_wordpool.txt	LTP098	ltpFR	4	6	1	PRIEST	1122	n/a	n/a	1	0.57763671875	0.412841796875	1	upper	zerothre.ttf
857019	WORD	wordpools/wasnorm_wordpool.txt	LTP098	ltpFR	4	6	1	VAMPIRE	1547	n/a	n/a	1	0.57763671875	0.412841796875	1	upper	zerothre.ttf
861230	WORD	wordpools/wasnorm_wordpool.txt	LTP098	ltpFR	4	6	1	CAPTAIN	239	n/a	n/a	1	0.57763671875	0.412841796875	1	upper	zerothre.ttf
865375	WORD	wordpools/wasnorm_wordpool.txt	LTP098	ltpFR	4	6	1	KETCHUP	771	n/a	n/a	0	0.57763671875	0.412841796875	1	upper	zerothre.ttf
871252	REC_START	n/a	LTP098	ltpFR	4	6	n/a	n/a	n/a	n/a	n/a	n/a	n/a	n/a	n/a	n/a	n/a
871563	REC_WORD	wordpools/wasnorm_wordpool.txt	LTP098	ltpFR	4	6	1	EAGLE	512	n/a	n/a	1	n/a	n/a	n/a	n/a	n/a
872155	REC_WORD	wordpools/wasnorm_wordpool.txt	LTP098	ltpFR	4	6	1	PRIEST	1122	n/a	n/a	1	n/a	n/a	n/a	n/a	n/a
872771	REC_WORD	wordpools/wasnorm_wordpool.txt	LTP098	ltpFR	4	6	1	VAMPIRE	1547	n/a	n/a	1	n/a	n/a	n/a	n/a	n/a
873616	REC_WORD	wordpools/wasnorm_wordpool.txt	LTP098	ltpFR	4	6	1	CAPTAIN	239	n/a	n/a	1	n/a	n/a	n/a	n/a	n/a
874370	REC_WORD	wordpools/wasnorm_wordpool.txt	LTP098	ltpFR	4	6	1	KETCHUP	771	n/a	n/a	0	n/a	n/a	n/a	n/a	n/a
875737	REC_WORD	wordpools/wasnorm_wordpool.txt	LTP098	ltpFR	4	6	1	DENIM	446	n/a	n/a	0	n/a	n/a	n/a	n/a	n/a
876393	REC_WORD	wordpools/wasnorm_wordpool.txt	LTP098	ltpFR	4	6	1	ZIPPER	1636	n/a	n/a	0	n/a	n/a	n/a	n/a	n/a
877083	REC_WORD	wordpools/wasnorm_wordpool.txt	LTP098	ltpFR	4	6	1	POTATO	1115	n/a	n/a	1	n/a	n/a	n/a	n/a	n/a
878391	REC_WORD	wordpools/wasnorm_wordpool.txt	LTP098	ltpFR	4	6	1	SUBWAY	1400	n/a	n/a	0	n/a	n/a	n/a	n/a	n/a
879618	REC_WORD	wordpools/wasnorm_wordpool.txt	LTP098	ltpFR	4	6	1	FRUIT	610	n/a	n/a	1	n/a	n/a	n/a	n/a	n/a
880755	REC_WORD	wordpools/wasnorm_wordpool.txt	LTP098	ltpFR	4	6	1	CAGE	218	n/a	n/a	0	n/a	n/a	n/a	n/a	n/a
949460	WORD	wordpools/wasnorm_wordpool.txt	LTP098	ltpFR	4	7	0	SIRLOIN	1311	n/a	n/a	1	0.422607421875	0.5869140625	0	lower	amplitud.ttf
953373	WORD	wordpools/wasnorm_wordpool.txt	LTP098	ltpFR	4	7	0	FARMER	553	n/a	n/a	1	0.422607421875	0.5869140625	0	lower	amplitud.ttf
957360	WORD	wordpools/wasnorm_wordpool.txt	LTP098	ltpFR	4	7	0	RUBY	1214	n/a	n/a	0	0.422607421875	0.5869140625	0	lower	amplitud.ttf
961263	WORD	wordpools/wasnorm_wordpool.txt	LTP098	ltpFR	4	7	0	STY	1397	n/a	n/a	0	0.422607421875	0.5869140625	0	lower	amplitud.ttf
965317	WORD	wordpools/wasnorm_wordpool.txt	LTP098	ltpFR	4	7	0	TOMB	1477	n/a	n/a	1	0.422607421875	0.5869140625	0	lower	amplitud.ttf
969271	WORD	wordpools/wasnorm_wordpool.txt	LTP098	ltpFR	4	7	0	ERASER	538	n/a	n/a	0	0.422607421875	0.5869140625	0	lower	amplitud.ttf
973324	WORD	wordpools/wasnorm_wordpool.txt	LTP098	ltpFR	4	7	0	DOLLAR	482	n/a	n/a	0	0.422607421875	0.5869140625	0	lower	amplitud.ttf
977403	WORD	wordpools/wasnorm_wordpool.txt	LTP098	ltpFR	4	7	0	BANKER	84	n/a	n/a	1	0.422607421875	0.5869140625	0	lower	amplitud.ttf
981540	WORD	wordpools/wasnorm_wordpool.txt	LTP098	ltpFR	4	7	0	BEARD	107	n/a	n/a	0	0.422607421875	0.5869140625	0	lower	amplitud.ttf
985552	WORD	wordpools/wasnorm_wordpool.txt	LTP098	ltpFR	4	7	0	ACID	2	n/a	n/a	0	0.422607421875	0.5869140625	0	lower	amplitud.ttf
989706	WORD	wordpools/wasnorm_wordpool.txt	LTP098	ltpFR	4	7	0	BRAN	167	n/a	n/a	1	0.422607421875	0.5869140625	0	lower	amplitud.ttf
993768	WORD	wordpools/wasnorm_wordpool.txt	LTP098	ltpFR	4	7	0	LEOPARD	812	n/a	n/a	1	0.422607421875	0.5869140625	0	lower	amplitud.ttf
997789	WORD	wordpools/wasnorm_wordpool.txt	LTP098	ltpFR	4	7	0	CLIPPERS	324	n/a	n/a	1	0.422607421875	0.5869140625	0	lower	amplitud.ttf
1001642	WORD	wordpools/wasnorm_wordpool.txt	LTP098	ltpFR	4	7	0	TWEEZERS	1526	n/a	n/a	0	0.422607421875	0.5869140625	0	lower	amplitud.ttf
1005829	WORD	wordpools/wasnorm_wordpool.txt	LTP098	ltpFR	4	7	0	BULLETIN	195	n/a	n/a	1	0.422607421875	0.5869140625	0	lower	amplitud.ttf
1009841	WORD	wordpools/wasnorm_wordpool.txt	LTP098	ltpFR	4	7	0	WHEAT	1602	n/a	n/a	1	0.422607421875	0.5869140625	0	lower	amplitud.ttf
1015693	REC_START	n/a	LTP098	ltpFR	4	7	n/a	n/a	n/a	n/a	n/a	n/a	n/a	n/a	n/a	n/a	n/a
1016361	REC_WORD	wordpools/wasnorm_wordpool.txt	LTP098	ltpFR	4	7	0	WHEAT	1602	n/a	n/a	1	n/a	n/a	n/a	n/a	n/a
1017169	REC_WORD	wordpools/wasnorm_wordpool.txt	LTP098	ltpFR	4	7	0	BRAN	167	n/a	n/a	1	n/a	n/a	n/a	n/a	n/a
1017958	REC_WORD	wordpools/wasnorm_wordpool.txt	LTP098	ltpFR	4	7	0	CLIPPERS	324	n/a	n/a	1	n/a	n/a	n/a	n/a	n/a
1018701	REC_WORD	wordpools/wasnorm_wordpool.txt	LTP098	ltpFR	4	7	0	TWEEZERS	1526	n/a	n/a	0	n/a	n/a	n/a	n/a	n/a
1021111	REC_WORD_VV	wordpools/wasnorm_wordpool.txt	LTP098	ltpFR	4	7	n/a	<>	-1	n/a	n/a	n/a	n/a	n/a	n/a	n/a	n/a
1021839	REC_WORD	wordpools/wasnorm_wordpool.txt	LTP098	ltpFR	4	7	0	STY	1397	n/a	n/a	0	n/a	n/a	n/a	n/a	n/a
1023969	REC_WORD	wordpools/wasnorm_wordpool.txt	LTP098	ltpFR	4	7	0	TOMB	1477	n/a	n/a	1	n/a	n/a	n/a	n/a	n/a
1024907	REC_WORD	wordpools/wasnorm_wordpool.txt	LTP098	ltpFR	4	7	0	ERASER	538	n/a	n/a	0	n/a	n/a	n/a	n/a	n/a
1027556	REC_WORD	wordpools/wasnorm_wordpool.txt	LTP098	ltpFR	4	7	0	SIRLOIN	1311	n/a	n/a	1	n/a	n/a	n/a	n/a	n/a
1029716	REC_WORD	wordpools/wasnorm_wordpool.txt	LTP098	ltpFR	4	7	0	FARMER	553	n/a	n/a	1	n/a	n/a	n/a	n/a	n/a
1040107	REC_WORD	wordpools/wasnorm_wordpool.txt	LTP098	ltpFR	4	7	0	WHEAT	1602	n/a	n/a	1	n/a	n/a	n/a	n/a	n/a
1093827	WORD	wordpools/wasnorm_wordpool.txt	LTP098	ltpFR	4	8	-1	DOLPHIN	483	n/a	n/a	-1	1.0	1.0	1	upper	Verdana.ttf
1097647	WORD	wordpools/wasnorm_wordpool.txt	LTP098	ltpFR	4	8	-1	DIVER	476	n/a	n/a	-1	1.0	1.0	1	upper	Verdana.ttf
1101509	WORD	wordpools/wasnorm_wordpool.txt	LTP098	ltpFR	4	8	-1	FUR	615	n/a	n/a	-1	1.0	1.0	1	upper	Verdana.ttf
1105346	WORD	wordpools/wasnorm_wordpool.txt	LTP098	ltpFR	4	8	-1	BOTTLE	153	n/a	n/a	-1	1.0	1.0	1	upper	Verdana.ttf
1109200	WORD	wordpools/wasnorm_wordpool.txt	LTP098	ltpFR	4	8	-1	ELBOW	520	n/a	n/a	-1	1.0	1.0	1	upper	Verdana.ttf
1113228	WORD	wordpools/wasnorm_wordpool.txt	LTP098	ltpFR	4	8	-1	ASSISTANT	48	n/a	n/a	-1	1.0	1.0	1	upper	Verdana.ttf
1117399	WORD	wordpools/wasnorm_wordpool.txt	LTP098	ltpFR	4	8	-1	TUBE	1516	n/a	n/a	-1	1.0	1.0	1	upper	Verdana.ttf
1121436	WORD	wordpools/wasnorm_wordpool.txt	LTP098	ltpFR	4	8	-1	MINK	897	n/a	n/a	-1	1.0	1.0	1	upper	Verdana.ttf
1125456	WORD	wordpools/wasnorm_wordpool.txt	LTP098	ltpFR	4	8	-1	JACKET	747	n/a	n/a	-1	1.0	1.0	1	upper	Verdana.ttf
1129568	WORD	wordpools/wasnorm_wordpool.txt	LTP098	ltpFR	4	8	-1	MOOSE	915	n/a	n/a	-1	1.0	1.0	1	upper	Verdana.ttf
1133513	WORD	wordpools/wasnorm_wordpool.txt	LTP098	ltpFR	4	8	-1	PIER	1063	n/a	n/a	-1	1.0	1.0	1	upper	Verdana.ttf
1137618	WORD	wordpools/wasnorm_wordpool.txt	LTP098	ltpFR	4	8	-1	PORT	1110	n/a	n/a	-1	1.0	1.0	1	upper	Verdana.ttf
1141655	WORD	wordpools/wasnorm_wordpool.txt	LTP098	ltpFR	4	8	-1	SHORTCAKE	1292	n/a	n/a	-1	1.0	1.0	1	upper	Verdana.ttf
1145675	WORD	wordpools/wasnorm_wordpool.txt	LTP098	ltpFR	4	8	-1	COLUMN	350	n/a	n/a	-1	1.0	1.0	1	upper	Verdana.ttf
1149770	WORD	wordpools/wasnorm_wordpool.txt	LTP098	ltpFR	4	8	-1	STRAW	1390	n/a	n/a	-1	1.0	1.0	1	upper	Verdana.ttf
1153616	WORD	wordpools/wasnorm_wordpool.txt	LTP098	ltpFR	4	8	-1	BLACKBERRY	132	n/a	n/a	-1	1.0	1.0	1	upper	Verdana.ttf
1159475	REC_START	n/a	LTP098	ltpFR	4	8	n/a	n/a	n/a	n/a	n/a	n/a	n/a	n/a	n/a	n/a	n/a
1159768	REC_WORD	wordpools/wasnorm_wordpool.txt	LTP098	ltpFR	4	8	-1	BLACKBERRY	132	n/a	n/a	-1	n/a	n/a	n/a	n/a	n/a
1160492	REC_WORD	wordpools/wasnorm_wordpool.txt	LTP098	ltpFR	4	8	-1	COLUMN	350	n/a	n/a	-1	n/a	n/a	n/a	n/a	n/a
1161059	REC_WORD	wordpools/wasnorm_wordpool.txt	LTP098	ltpFR	4	8	-1	STRAW	1390	n/a	n/a	-1	n/a	n/a	n/a	n/a	n/a
1161740	REC_WORD	wordpools/wasnorm_wordpool.txt	LTP098	ltpFR	4	8	-1	SHORTCAKE	1292	n/a	n/a	-1	n/a	n/a	n/a	n/a	n/a
1163291	REC_WORD	wordpools/wasnorm_wordpool.txt	LTP098	ltpFR	4	8	-1	PORT	1110	n/a	n/a	-1	n/a	n/a	n/a	n/a	n/a
1163905	REC_WORD	wordpools/wasnorm_wordpool.txt	LTP098	ltpFR	4	8	-1	PIER	1063	n/a	n/a	-1	n/a	n/a	n/a	n/a	n/a
1165518	REC_WORD	wordpools/wasnorm_wordpool.txt	LTP098	ltpFR	4	8	-1	MOOSE	915	n/a	n/a	-1	n/a	n/a	n/a	n/a	n/a
1166309	REC_WORD	wordpools/wasnorm_wordpool.txt	LTP098	ltpFR	4	8	-1	MINK	897	n/a	n/a	-1	n/a	n/a	n/a	n/a	n/a
1166939	REC_WORD	wordpools/wasnorm_wordpool.txt	LTP098	ltpFR	4	8	-1	FUR	615	n/a	n/a	-1	n/a	n/a	n/a	n/a	n/a
1172455	REC_WORD	wordpools/wasnorm_wordpool.txt	LTP098	ltpFR	4	8	n/a	COAT	333	n/a	n/a	n/a	n/a	n/a	n/a	n/a	n/a
1175044	REC_WORD	wordpools/wasnorm_wordpool.txt	LTP098	ltpFR	4	8	-1	ASSISTANT	48	n/a	n/a	-1	n/a	n/a	n/a	n/a	n/a
1175952	REC_WORD	wordpools/wasnorm_wordpool.txt	LTP098	ltpFR	4	8	-1	ELBOW	520	n/a	n/a	-1	n/a	n/a	n/a	n/a	n/a
1177120	REC_WORD	wordpools/wasnorm_wordpool.txt	LTP098	ltpFR	4	8	-1	DIVER	476	n/a	n/a	-1	n/a	n/a	n/a	n/a	n/a
1178089	REC_WORD	wordpools/wasnorm_wordpool.txt	LTP098	ltpFR	4	8	-1	DOLPHIN	483	n/a	n/a	-1	n/a	n/a	n/a	n/a	n/a
1179674	REC_WORD	wordpools/wasnorm_wordpool.txt	LTP098	ltpFR	4	8	-1	TUBE	1516	n/a	n/a	-1	n/a	n/a	n/a	n/a	n/a
1186834	REC_WORD_VV	wordpools/wasnorm_wordpool.txt	LTP098	ltpFR	4	8	n/a	<>	-1	n/a	n/a	n/a	n/a	n/a	n/a	n/a	n/a
1188923	REC_WORD	wordpools/wasnorm_wordpool.txt	LTP098	ltpFR	4	8	-1	STRAW	1390	n/a	n/a	-1	n/a	n/a	n/a	n/a	n/a
1237635	WORD	wordpools/wasnorm_wordpool.txt	LTP098	ltpFR	4	9	1	TONGUE	1479	n/a	n/a	1	0.57763671875	0.412841796875	1	upper	zerothre.ttf
1241680	WORD	wordpools/wasnorm_wordpool.txt	LTP098	ltpFR	4	9	1	CLERK	321	n/a	n/a	1	0.57763671875	0.412841796875	1	upper	zerothre.ttf
1245767	WORD	wordpools/wasnorm_wordpool.txt	LTP098	ltpFR	4	9	1	LAKE	796	n/a	n/a	0	0.57763671875	0.412841796875	1	upper	zerothre.ttf
1249679	WORD	wordpools/wasnorm_wordpool.txt	LTP098	ltpFR	4	9	1	ELM	527	n/a	n/a	1	0.57763671875	0.412841796875	1	upper	zerothre.ttf
1253658	WORD	wordpools/wasnorm_wordpool.txt	LTP098	ltpFR	4	9	1	LENS	811	n/a	n/a	0	0.57763671875	0.412841796875	1	upper	zerothre.ttf
1257653	WORD	wordpools/wasnorm_wordpool.txt	LTP098	ltpFR	4	9	1	CALCULATOR	220	n/a	n/a	0	0.57763671875	0.412841796875	1	upper	zerothre.ttf
1261740	WORD	wordpools/wasnorm_wordpool.txt	LTP098	ltpFR	4	9	1	LIP	828	n/a	n/a	1	0.57763671875	0.412841796875	1	upper	zerothre.ttf
1265627	WORD	wordpools/wasnorm_wordpool.txt	LTP098	ltpFR	4	9	1	FOE	587	n/a	n/a	1	0.57763671875	0.412841796875	1	upper	zerothre.ttf
1269547	WORD	wordpools/wasnorm_wordpool.txt	LTP098	ltpFR	4	9	1	FELLOW	558	n/a	n/a	1	0.57763671875	0.412841796875	1	upper	zerothre.ttf
1273734	WORD	wordpools/wasnorm_wordpool.txt	LTP098	ltpFR	4	9	1	BOSS	152	n/a	n/a	1	0.57763671875	0.412841796875	1	upper	zerothre.ttf
1277663	WORD	wordpools/wasnorm_wordpool.txt	LTP098	ltpFR	4	9	1	DRIVEWAY	500	n/a	n/a	0	0.57763671875	0.412841796875	1	upper	zerothre.ttf
1281800	WORD	wordpools/wasnorm_wordpool.txt	LTP098	ltpFR	4	9	1	BIKE	125	n/a	n/a	0	0.57763671875	0.412841796875	1	upper	zerothre.ttf
1285712	WORD	wordpools/wasnorm_wordpool.txt	LTP098	ltpFR	4	9	1	STABLE	1363	n/a	n/a	0	0.57763671875	0.412841796875	1	upper	zerothre.ttf
1289741	WORD	wordpools/wasnorm_wordpool.txt	LTP098	ltpFR	4	9	1	DIAGRAM	456	n/a	n/a	0	0.57763671875	0.412841796875	1	upper	zerothre.ttf
1293645	WORD	wordpools/wasnorm_wordpool.txt	LTP098	ltpFR	4	9	1	KITTEN	780	n/a	n/a	1	0.57763671875	0.412841796875	1	upper	zerothre.ttf
1297682	WORD	wordpools/wasnorm_wordpool.txt	LTP098	ltpFR	4	9	1	MOUSE	925	n/a	n/a	1	0.57763671875	0.412841796875	1	upper	zerothre.ttf
1303618	REC_START	n/a	LTP098	ltpFR	4	9	n/a	n/a	n/a	n/a	n/a	n/a	n/a	n/a	n/a	n/a	n/a
1303997	REC_WORD	wordpools/wasnorm_wordpool.txt	LTP098	ltpFR	4	9	1	DRIVEWAY	500	n/a	n/a	0	n/a	n/a	n/a	n/a	n/a
1304780	REC_WORD	wordpools/wasnorm_wordpool.txt	LTP098	ltpFR	4	9	1	BIKE	125	n/a	n/a	0	n/a	n/a	n/a	n/a	n/a
1305234	REC_WORD	wordpools/wasnorm_wordpool.txt	LTP098	ltpFR	4	9	1	STABLE	1363	n/a	n/a	0	n/a	n/a	n/a	n/a	n/a
1306169	REC_WORD	wordpools/wasnorm_wordpool.txt	LTP098	ltpFR	4	9	1	DIAGRAM	456	n/a	n/a	0	n/a	n/a	n/a	n/a	n/a
1307225	REC_WORD	wordpools/wasnorm_wordpool.txt	LTP098	ltpFR	4	9	n/a	MOUTH	926	n/a	n/a	n/a	n/a	n/a	n/a	n/a	n/a
1308013	REC_WORD	wordpools/wasnorm_wordpool.txt	LTP098	ltpFR	4	9	1	KITTEN	780	n/a	n/a	1	n/a	n/a	n/a	n/a	n/a
1309350	REC_WORD	wordpools/wasnorm_wordpool.txt	LTP098	ltpFR	4	9	1	FELLOW	558	n/a	n/a	1	n/a	n/a	n/a	n/a	n/a
1310118	REC_WORD	wordpools/wasnorm_wordpool.txt	LTP098	ltpFR	4	9	1	BOSS	152	n/a	n/a	1	n/a	n/a	n/a	n/a	n/a
1327129	REC_WORD	wordpools/wasnorm_wordpool.txt	LTP098	ltpFR	4	9	1	LIP	828	n/a	n/a	1	n/a	n/a	n/a	n/a	n/a
1327923	REC_WORD	wordpools/wasnorm_wordpool.txt	LTP098	ltpFR	4	9	1	CLERK	321	n/a	n/a	1	n/a	n/a	n/a	n/a	n/a
1329364	REC_WORD	wordpools/wasnorm_wordpool.txt	LTP098	ltpFR	4	9	1	LAKE	796	n/a	n/a	0	n/a	n/a	n/a	n/a	n/a
1333410	REC_WORD	wordpools/wasnorm_wordpool.txt	LTP098	ltpFR	4	9	1	LENS	811	n/a	n/a	0	n/a	n/a	n/a	n/a	n/a
1382575	WORD	wordpools/wasnorm_wordpool.txt	LTP098	ltpFR	4	10	1	LINT	826	n/a	n/a	0	0.57763671875	0.412841796875	1	upper	zerothre.ttf
1386469	WORD	wordpools/wasnorm_wordpool.txt	LTP098	ltpFR	4	10	1	FIREMAN	569	n/a	n/a	1	0.57763671875	0.412841796875	1	upper	zerothre.ttf
1390574	WORD	wordpools/wasnorm_wordpool.txt	LTP098	ltpFR	4	10	1	ARENA	37	n/a	n/a	0	0.57763671875	0.412841796875	1	upper	zerothre.ttf
1394636	WORD	wordpools/wasnorm_wordpool.txt	LTP098	ltpFR	4	10	0	RAG	1160	n/a	n/a	0	0.422607421875	0.5869140625	0	lower	amplitud.ttf
1398480	WORD	wordpools/wasnorm_wordpool.txt	LTP098	ltpFR	4	10	0	STONE	1385	n/a	n/a	0	0.422607421875	0.5869140625	0	lower	amplitud.ttf
1402342	WORD	wordpools/wasnorm_wordpool.txt	LTP098	ltpFR	4	10	1	CLOTHES	327	n/a	n/a	0	0.57763671875	0.412841796875	1	upper	zerothre.ttf
1406279	WORD	wordpools/wasnorm_wordpool.txt	LTP098	ltpFR	4	10	1	FAUCET	555	n/a	n/a	0	0.57763671875	0.412841796875	1	upper	zerothre.ttf
1410333	WORD	wordpools/wasnorm_wordpool.txt	LTP098	ltpFR	4	10	1	FRAGRANCE	599	n/a	n/a	0	0.57763671875	0.412841796875	1	upper	zerothre.ttf
1414545	WORD	wordpools/wasnorm_wordpool.txt	LTP098	ltpFR	4	10	1	REBEL	1172	n/a	n/a	1	0.57763671875	0.412841796875	1	upper	zerothre.ttf
1418549	WORD	wordpools/wasnorm_wordpool.txt	LTP098	ltpFR	4	10	1	PATRIOT	1026	n/a	n/a	1	0.57763671875	0.412841796875	1	upper	zerothre.ttf
1422402	WORD	wordpools/wasnorm_wordpool.txt	LTP098	ltpFR	4	10	0	MONGOOSE	909	n/a	n/a	1	0.422607421875	0.5869140625	0	lower	amplitud.ttf
1426615	WORD	wordpools/wasnorm_wordpool.txt	LTP098	ltpFR	4	10	0	RACCOON	1153	n/a	n/a	1	0.422607421875	0.5869140625	0	lower	amplitud.ttf
1430577	WORD	wordpools/wasnorm_wordpool.txt	LTP098	ltpFR	4	10	0	OBOE	969	n/a	n/a	0	0.422607421875	0.5869140625	0	lower	amplitud.ttf
1434522	WORD	wordpools/wasnorm_wordpool.txt	LTP098	ltpFR	4	10	0	BOULDER	155	n/a	n/a	1	0.422607421875	0.5869140625	0	lower	amplitud.ttf
1438401	WORD	wordpools/wasnorm_wordpool.txt	LTP098	ltpFR	4	10	0	ZOO	1637	n/a	n/a	1	0.422607421875	0.5869140625	0	lower	amplitud.ttf
1442221	WORD	wordpools/wasnorm_wordpool.txt	LTP098	ltpFR	4	10	0	BISON	131	n/a	n/a	1	0.422607421875	0.5869140625	0	lower	amplitud.ttf
1447958	REC_START	n/a	LTP098	ltpFR	4	10	n/a	n/a	n/a	n/a	n/a	n/a	n/a	n/a	n/a	n/a	n/a
1448287	REC_WORD	wordpools/wasnorm_wordpool.txt	LTP098	ltpFR	4	10	0	OBOE	969	n/a	n/a	0	n/a	n/a	n/a	n/a	n/a
1448943	REC_WORD	wordpools/wasnorm_wordpool.txt	LTP098	ltpFR	4	10	0	BOULDER	155	n/a	n/a	1	n/a	n/a	n/a	n/a	n/a
1449537	REC_WORD	wordpools/wasnorm_wordpool.txt	LTP098	ltpFR	4	10	0	ZOO	1637	n/a	n/a	1	n/a	n/a	n/a	n/a	n/a
1450352	REC_WORD	wordpools/wasnorm_wordpool.txt	LTP098	ltpFR	4	10	0	BISON	131	n/a	n/a	1	n/a	n/a	n/a	n/a	n/a
1453316	REC_WORD	wordpools/wasnorm_wordpool.txt	LTP098	ltpFR	4	10	0	MONGOOSE	909	n/a	n/a	1	n/a	n/a	n/a	n/a	n/a
1454862	REC_WORD	wordpools/wasnorm_wordpool.txt	LTP098	ltpFR	4	10	1	ARENA	37	n/a	n/a	0	n/a	n/a	n/a	n/a	n/a
1456279	REC_WORD	wordpools/wasnorm_wordpool.txt	LTP098	ltpFR	4	10	1	LINT	826	n/a	n/a	0	n/a	n/a	n/a	n/a	n/a
1456942	REC_WORD	wordpools/wasnorm_wordpool.txt	LTP098	ltpFR	4	10	1	FIREMAN	569	n/a	n/a	1	n/a	n/a	n/a	n/a	n/a
1458383	REC_WORD	wordpools/wasnorm_wordpool.txt	LTP098	ltpFR	4	10	0	STONE	1385	n/a	n/a	0	n/a	n/a	n/a	n/a	n/a
1461567	REC_WORD	wordpools/wasnorm_wordpool.txt	LTP098	ltpFR	4	10	1	FRAGRANCE	599	n/a	n/a	0	n/a	n/a	n/a	n/a	n/a
1530518	WORD	wordpools/wasnorm_wordpool.txt	LTP098	ltpFR	4	11	0	SHOWER	1296	n/a	n/a	1	0.422607421875	0.5869140625	0	lower	amplitud.ttf
1534530	WORD	wordpools/wasnorm_wordpool.txt	LTP098	ltpFR	4	11	0	WIRE	1616	n/a	n/a	0	0.422607421875	0.5869140625	0	lower	amplitud.ttf
1538660	WORD	wordpools/wasnorm_wordpool.txt	LTP098	ltpFR	4	11	1	SHOE	1288	n/a	n/a	0	0.57763671875	0.412841796875	1	upper	zerothre.ttf
1542772	WORD	wordpools/wasnorm_wordpool.txt	LTP098	ltpFR	4	11	1	BUS	201	n/a	n/a	0	0.57763671875	0.412841796875	1	upper	zerothre.ttf
1546759	WORD	wordpools/wasnorm_wordpool.txt	LTP098	ltpFR	4	11	1	VALVE	1546	n/a	n/a	0	0.57763671875	0.412841796875	1	upper	zerothre.ttf
1550604	WORD	wordpools/wasnorm_wordpool.txt	LTP098	ltpFR	4	11	1	BLENDER	136	n/a	n/a	0	0.57763671875	0.412841796875	1	upper	zerothre.ttf
1554432	WORD	wordpools/wasnorm_wordpool.txt	LTP098	ltpFR	4	11	0	STUDENT	1395	n/a	n/a	1	0.422607421875	0.5869140625	0	lower	amplitud.ttf
1558503	WORD	wordpools/wasnorm_wordpool.txt	LTP098	ltpFR	4	11	0	TICK	1463	n/a	n/a	0	0.422607421875	0.5869140625	0	lower	amplitud.ttf
1562481	WORD	wordpools/wasnorm_wordpool.txt	LTP098	ltpFR	4	11	0	WOLF	1619	n/a	n/a	1	0.422607421875	0.5869140625	0	lower	amplitud.ttf
1566502	WORD	wordpools/wasnorm_wordpool.txt	LTP098	ltpFR	4	11	1	COBBLER	335	n/a	n/a	0	0.57763671875	0.412841796875	1	upper	zerothre.ttf
1570472	WORD	wordpools/wasnorm_wordpool.txt	LTP098	ltpFR	4	11	1	WHIP	1604	n/a	n/a	0	0.57763671875	0.412841796875	1	upper	zerothre.ttf
1574334	WORD	wordpools/wasnorm_wordpool.txt	LTP098	ltpFR	4	11	1	PISTON	1076	n/a	n/a	0	0.57763671875	0.412841796875	1	upper	zerothre.ttf
1578271	WORD	wordpools/wasnorm_wordpool.txt	LTP098	ltpFR	4	11	1	APPENDAGE	32	n/a	n/a	0	0.57763671875	0.412841796875	1	upper	zerothre.ttf
1582283	WORD	wordpools/wasnorm_wordpool.txt	LTP098	ltpFR	4	11	0	PUBLISHER	1137	n/a	n/a	1	0.422607421875	0.5869140625	0	lower	amplitud.ttf
1586130	WORD	wordpools/wasnorm_wordpool.txt	LTP098	ltpFR	4	11	0	CONVICT	371	n/a	n/a	1	0.422607421875	0.5869140625	0	lower	amplitud.ttf
1590274	WORD	wordpools/wasnorm_wordpool.txt	LTP098	ltpFR	4	11	0	CARAVAN	242	n/a	n/a	1	0.422607421875	0.5869140625	0	lower	amplitud.ttf
1595936	REC_START	n/a	LTP098	ltpFR	4	11	n/a	n/a	n/a	n/a	n/a	n/a	n/a	n/a	n/a	n/a	n/a
1596345	REC_WORD	wordpools/wasnorm_wordpool.txt	LTP098	ltpFR	4	11	0	PUBLISHER	1137	n/a	n/a	1	n/a	n/a	n/a	n/a	n/a
1597060	REC_WORD	wordpools/wasnorm_wordpool.txt	LTP098	ltpFR	4	11	0	CONVICT	371	n/a	n/a	1	n/a	n/a	n/a	n/a	n/a
1597886	REC_WORD	wordpools/wasnorm_wordpool.txt	LTP098	ltpFR	4	11	0	CARAVAN	242	n/a	n/a	1	n/a	n/a	n/a	n/a	n/a
1598884	REC_WORD	wordpools/wasnorm_wordpool.txt	LTP098	ltpFR	4	11	0	TICK	1463	n/a	n/a	0	n/a	n/a	n/a	n/a	n/a
1599772	REC_WORD	wordpools/wasnorm_wordpool.txt	LTP098	ltpFR	4	11	0	SHOWER	1296	n/a	n/a	1	n/a	n/a	n/a	n/a	n/a
1600810	REC_WORD	wordpools/wasnorm_wordpool.txt	LTP098	ltpFR	4	11	0	WIRE	1616	n/a	n/a	0	n/a	n/a	n/a	n/a	n/a
1674410	WORD	wordpools/wasnorm_wordpool.txt	LTP098	ltpFR	4	12	0	CARTON	251	n/a	n/a	1	0.422607421875	0.5869140625	0	lower	amplitud.ttf
1678480	WORD	wordpools/wasnorm_wordpool.txt	LTP098	ltpFR	4	12	0	SERGEANT	1269	n/a	n/a	1	0.422607421875	0.5869140625	0	lower	amplitud.ttf
1682334	WORD	wordpools/wasnorm_wordpool.txt	LTP098	ltpFR	4	12	0	OYSTER	995	n/a	n/a	0	0.422607421875	0.5869140625	0	lower	amplitud.ttf
1686412	WORD	wordpools/wasnorm_wordpool.txt	LTP098	ltpFR	4	12	0	OAR	966	n/a	n/a	1	0.422607421875	0.5869140625	0	lower	amplitud.ttf
1690600	WORD	wordpools/wasnorm_wordpool.txt	LTP098	ltpFR	4	12	0	STOCKING	1383	n/a	n/a	0	0.422607421875	0.5869140625	0	lower	amplitud.ttf
1694803	WORD	wordpools/wasnorm_wordpool.txt	LTP098	ltpFR	4	12	1	WASP	1593	n/a	n/a	1	0.57763671875	0.412841796875	1	upper	zerothre.ttf
1698716	WORD	wordpools/wasnorm_wordpool.txt	LTP098	ltpFR	4	12	1	CLAM	315	n/a	n/a	1	0.57763671875	0.412841796875	1	upper	zerothre.ttf
1702728	WORD	wordpools/wasnorm_wordpool.txt	LTP098	ltpFR	4	12	1	MOTHER	921	n/a	n/a	1	0.57763671875	0.412841796875	1	upper	zerothre.ttf
1706756	WORD	wordpools/wasnorm_wordpool.txt	LTP098	ltpFR	4	12	1	ASH	44	n/a	n/a	0	0.57763671875	0.412841796875	1	upper	zerothre.ttf
1710768	WORD	wordpools/wasnorm_wordpool.txt	LTP098	ltpFR	4	12	0	CANYON	235	n/a	n/a	1	0.422607421875	0.5869140625	0	lower	amplitud.ttf
1714830	WORD	wordpools/wasnorm_wordpool.txt	LTP098	ltpFR	4	12	0	CRAYON	401	n/a	n/a	0	0.422607421875	0.5869140625	0	lower	amplitud.ttf
1719042	WORD	wordpools/wasnorm_wordpool.txt	LTP098	ltpFR	4	12	0	NAVIGATOR	938	n/a	n/a	1	0.422607421875	0.5869140625	0	lower	amplitud.ttf
1723046	WORD	wordpools/wasnorm_wordpool.txt	LTP098	ltpFR	4	12	1	CELERY	266	n/a	n/a	1	0.57763671875	0.412841796875	1	upper	zerothre.ttf
1727148	WORD	wordpools/wasnorm_wordpool.txt	LTP098	ltpFR	4	12	1	RADISH	1158	n/a	n/a	1	0.57763671875	0.412841796875	1	upper	zerothre.ttf
1731260	WORD	wordpools/wasnorm_wordpool.txt	LTP098	ltpFR	4	12	1	PITCHFORK	1078	n/a	n/a	0	0.57763671875	0.412841796875	1	upper	zerothre.ttf
1735339	WORD	wordpools/wasnorm_wordpool.txt	LTP098	ltpFR	4	12	1	HAY	693	n/a	n/a	1	0.57763671875	0.412841796875	1	upper	zerothre.ttf
1741149	REC_START	n/a	LTP098	ltpFR	4	12	n/a	n/a	n/a	n/a	n/a	n/a	n/a	n/a	n/a	n/a	n/a
1741429	REC_WORD	wordpools/wasnorm_wordpool.txt	LTP098	ltpFR	4	12	1	CELERY	266	n/a	n/a	1	n/a	n/a	n/a	n/a	n/a
1742177	REC_WORD	wordpools/wasnorm_wordpool.txt	LTP098	ltpFR	4	12	1	RADISH	1158	n/a	n/a	1	n/a	n/a	n/a	n/a	n/a
1742913	REC_WORD	wordpools/wasnorm_wordpool.txt	LTP098	ltpFR	4	12	1	PITCHFORK	1078	n/a	n/a	0	n/a	n/a	n/a	n/a	n/a
1743644	REC_WORD	wordpools/wasnorm_wordpool.txt	LTP098	ltpFR	4	12	1	HAY	693	n/a	n/a	1	n/a	n/a	n/a	n/a	n/a
1744496	REC_WORD	wordpools/wasnorm_wordpool.txt	LTP098	ltpFR	4	12	1	CLAM	315	n/a	n/a	1	n/a	n/a	n/a	n/a	n/a
1745253	REC_WORD	wordpools/wasnorm_wordpool.txt	LTP098	ltpFR	4	12	0	OYSTER	995	n/a	n/a	0	n/a	n/a	n/a	n/a	n/a
1746502	REC_WORD	wordpools/wasnorm_wordpool.txt	LTP098	ltpFR	4	12	0	CANYON	235	n/a	n/a	1	n/a	n/a	n/a	n/a	n/a
1747202	REC_WORD	wordpools/wasnorm_wordpool.txt	LTP098	ltpFR	4	12	0	CRAYON	401	n/a	n/a	0	n/a	n/a	n/a	n/a	n/a
1747981	REC_WORD	wordpools/wasnorm_wordpool.txt	LTP098	ltpFR	4	12	1	MOTHER	921	n/a	n/a	1	n/a	n/a	n/a	n/a	n/a
1748706	REC_WORD	wordpools/wasnorm_wordpool.txt	LTP098	ltpFR	4	12	1	WASP	1593	n/a	n/a	1	n/a	n/a	n/a	n/a	n/a
1749330	REC_WORD	wordpools/wasnorm_wordpool.txt	LTP098	ltpFR	4	12	0	STOCKING	1383	n/a	n/a	0	n/a	n/a	n/a	n/a	n/a
1816720	REST_REWET	n/a	LTP098	ltpFR	4	12	n/a	n/a	n/a	n/a	n/a	n/a	n/a	n/a	n/a	n/a	n/a
2704888	WORD	wordpools/wasnorm_wordpool.txt	LTP098	ltpFR	4	13	0	RUM	1217	n/a	n/a	0	0.422607421875	0.5869140625	0	lower	amplitud.ttf
2709041	WORD	wordpools/wasnorm_wordpool.txt	LTP098	ltpFR	4	13	0	ALMOND	18	n/a	n/a	0	0.422607421875	0.5869140625	0	lower	amplitud.ttf
2713128	WORD	wordpools/wasnorm_wordpool.txt	LTP098	ltpFR	4	13	0	WORM	1623	n/a	n/a	0	0.422607421875	0.5869140625	0	lower	amplitud.ttf
2717124	WORD	wordpools/wasnorm_wordpool.txt	LTP098	ltpFR	4	13	0	YOKE	1632	n/a	n/a	0	0.422607421875	0.5869140625	0	lower	amplitud.ttf
2721086	WORD	wordpools/wasnorm_wordpool.txt	LTP098	ltpFR	4	13	0	LACE	792	n/a	n/a	0	0.422607421875	0.5869140625	0	lower	amplitud.ttf
2724923	WORD	wordpools/wasnorm_wordpool.txt	LTP098	ltpFR	4	13	0	HOE	711	n/a	n/a	1	0.422607421875	0.5869140625	0	lower	amplitud.ttf
2728860	WORD	wordpools/wasnorm_wordpool.txt	LTP098	ltpFR	4	13	0	SKILLET	1317	n/a	n/a	1	0.422607421875	0.5869140625	0	lower	amplitud.ttf
2732681	WORD	wordpools/wasnorm_wordpool.txt	LTP098	ltpFR	4	13	0	RUNNER	1218	n/a	n/a	1	0.422607421875	0.5869140625	0	lower	amplitud.ttf
2736868	WORD	wordpools/wasnorm_wordpool.txt	LTP098	ltpFR	4	13	0	EARTH	515	n/a	n/a	1	0.422607421875	0.5869140625	0	lower	amplitud.ttf
2740730	WORD	wordpools/wasnorm_wordpool.txt	LTP098	ltpFR	4	13	0	DIGGER	464	n/a	n/a	1	0.422607421875	0.5869140625	0	lower	amplitud.ttf
2744767	WORD	wordpools/wasnorm_wordpool.txt	LTP098	ltpFR	4	13	0	CROCODILE	411	n/a	n/a	1	0.422607421875	0.5869140625	0	lower	amplitud.ttf
2748787	WORD	wordpools/wasnorm_wordpool.txt	LTP098	ltpFR	4	13	0	TRACTOR	1493	n/a	n/a	1	0.422607421875	0.5869140625	0	lower	amplitud.ttf
2752807	WORD	wordpools/wasnorm_wordpool.txt	LTP098	ltpFR	4	13	0	CART	250	n/a	n/a	1	0.422607421875	0.5869140625	0	lower	amplitud.ttf
2756620	WORD	wordpools/wasnorm_wordpool.txt	LTP098	ltpFR	4	13	0	GROCERY	664	n/a	n/a	1	0.422607421875	0.5869140625	0	lower	amplitud.ttf
2760623	WORD	wordpools/wasnorm_wordpool.txt	LTP098	ltpFR	4	13	0	ORCHESTRA	981	n/a	n/a	n/a	0.422607421875	0.5869140625	0	lower	amplitud.ttf
2763645	SLOW_MSG	n/a	LTP098	ltpFR	4	13	n/a	n/a	n/a	n/a	n/a	n/a	n/a	n/a	n/a	n/a	n/a
2766291	WORD	wordpools/wasnorm_wordpool.txt	LTP098	ltpFR	4	13	0	TAPE	1433	n/a	n/a	0	0.422607421875	0.5869140625	0	lower	amplitud.ttf
2772102	REC_START	n/a	LTP098	ltpFR	4	13	n/a	n/a	n/a	n/a	n/a	n/a	n/a	n/a	n/a	n/a	n/a
2774451	REC_WORD	wordpools/wasnorm_wordpool.txt	LTP098	ltpFR	4	13	0	TAPE	1433	n/a	n/a	0	n/a	n/a	n/a	n/a	n/a
2775419	REC_WORD	wordpools/wasnorm_wordpool.txt	LTP098	ltpFR	4	13	0	ORCHESTRA	981	n/a	n/a	n/a	n/a	n/a	n/a	n/a	n/a
2776851	REC_WORD	wordpools/wasnorm_wordpool.txt	LTP098	ltpFR	4	13	0	WORM	1623	n/a	n/a	0	n/a	n/a	n/a	n/a	n/a
2777784	REC_WORD	wordpools/wasnorm_wordpool.txt	LTP098	ltpFR	4	13	0	ALMOND	18	n/a	n/a	0	n/a	n/a	n/a	n/a	n/a
2778866	REC_WORD	wordpools/wasnorm_wordpool.txt	LTP098	ltpFR	4	13	0	DIGGER	464	n/a	n/a	1	n/a	n/a	n/a	n/a	n/a
2783226	REC_WORD	wordpools/wasnorm_wordpool.txt	LTP098	ltpFR	4	13	0	EARTH	515	n/a	n/a	1	n/a	n/a	n/a	n/a	n/a
2787641	REC_WORD	wordpools/wasnorm_wordpool.txt	LTP098	ltpFR	4	13	0	RUM	1217	n/a	n/a	0	n/a	n/a	n/a	n/a	n/a
2796382	REC_WORD	wordpools/wasnorm_wordpool.txt	LTP098	ltpFR	4	13	0	RUNNER	1218	n/a	n/a	1	n/a	n/a	n/a	n/a	n/a
2851093	WORD	wordpools/wasnorm_wordpool.txt	LTP098	ltpFR	4	14	0	PLANET	1082	n/a	n/a	1	0.422607421875	0.5869140625	0	lower	amplitud.ttf
2855097	WORD	wordpools/wasnorm_wordpool.txt	LTP098	ltpFR	4	14	0	CRICKET	408	n/a	n/a	0	0.422607421875	0.5869140625	0	lower	amplitud.ttf
2858926	WORD	wordpools/wasnorm_wordpool.txt	LTP098	ltpFR	4	14	0	LAUNDRY	803	n/a	n/a	1	0.422607421875	0.5869140625	0	lower	amplitud.ttf
2863063	WORD	wordpools/wasnorm_wordpool.txt	LTP098	ltpFR	4	14	0	TELEPHONE	1445	n/a	n/a	1	0.422607421875	0.5869140625	0	lower	amplitud.ttf
2866958	WORD	wordpools/wasnorm_wordpool.txt	LTP098	ltpFR	4	14	0	DIAL	457	n/a	n/a	0	0.422607421875	0.5869140625	0	lower	amplitud.ttf
2871095	WORD	wordpools/wasnorm_wordpool.txt	LTP098	ltpFR	4	14	0	KNOB	787	n/a	n/a	0	0.422607421875	0.5869140625	0	lower	amplitud.ttf
2875090	WORD	wordpools/wasnorm_wordpool.txt	LTP098	ltpFR	4	14	0	POT	1114	n/a	n/a	1	0.422607421875	0.5869140625	0	lower	amplitud.ttf
2879086	WORD	wordpools/wasnorm_wordpool.txt	LTP098	ltpFR	4	14	0	TEAPOT	1442	n/a	n/a	1	0.422607421875	0.5869140625	0	lower	amplitud.ttf
2883014	WORD	wordpools/wasnorm_wordpool.txt	LTP098	ltpFR	4	14	0	CELLAR	267	n/a	n/a	1	0.422607421875	0.5869140625	0	lower	amplitud.ttf
2887109	WORD	wordpools/wasnorm_wordpool.txt	LTP098	ltpFR	4	14	0	TERMITE	1451	n/a	n/a	0	0.422607421875	0.5869140625	0	lower	amplitud.ttf
2891212	WORD	wordpools/wasnorm_wordpool.txt	LTP098	ltpFR	4	14	0	ONION	977	n/a	n/a	0	0.422607421875	0.5869140625	0	lower	amplitud.ttf
2895416	WORD	wordpools/wasnorm_wordpool.txt	LTP098	ltpFR	4	14	0	WART	1590	n/a	n/a	0	0.422607421875	0.5869140625	0	lower	amplitud.ttf
2899486	WORD	wordpools/wasnorm_wordpool.txt	LTP098	ltpFR	4	14	0	MONASTERY	907	n/a	n/a	1	0.422607421875	0.5869140625	0	lower	amplitud.ttf
2903415	WORD	wordpools/wasnorm_wordpool.txt	LTP098	ltpFR	4	14	0	MAID	856	n/a	n/a	1	0.422607421875	0.5869140625	0	lower	amplitud.ttf
2907393	WORD	wordpools/wasnorm_wordpool.txt	LTP098	ltpFR	4	14	0	BUTTON	207	n/a	n/a	0	0.422607421875	0.5869140625	0	lower	amplitud.ttf
2911355	WORD	wordpools/wasnorm_wordpool.txt	LTP098	ltpFR	4	14	0	GOWN	652	n/a	n/a	1	0.422607421875	0.5869140625	0	lower	amplitud.ttf
2917216	REC_START	n/a	LTP098	ltpFR	4	14	n/a	n/a	n/a	n/a	n/a	n/a	n/a	n/a	n/a	n/a	n/a
2917740	REC_WORD	wordpools/wasnorm_wordpool.txt	LTP098	ltpFR	4	14	0	ONION	977	n/a	n/a	0	n/a	n/a	n/a	n/a	n/a
2918437	REC_WORD	wordpools/wasnorm_wordpool.txt	LTP098	ltpFR	4	14	0	WART	1590	n/a	n/a	0	n/a	n/a	n/a	n/a	n/a
2919042	REC_WORD	wordpools/wasnorm_wordpool.txt	LTP098	ltpFR	4	14	0	MONASTERY	907	n/a	n/a	1	n/a	n/a	n/a	n/a	n/a
2920094	REC_WORD	wordpools/wasnorm_wordpool.txt	LTP098	ltpFR	4	14	0	MAID	856	n/a	n/a	1	n/a	n/a	n/a	n/a	n/a
2920897	REC_WORD	wordpools/wasnorm_wordpool.txt	LTP098	ltpFR	4	14	0	BUTTON	207	n/a	n/a	0	n/a	n/a	n/a	n/a	n/a
2921701	REC_WORD	wordpools/wasnorm_wordpool.txt	LTP098	ltpFR	4	14	0	GOWN	652	n/a	n/a	1	n/a	n/a	n/a	n/a	n/a
2996624	WORD	wordpools/wasnorm_wordpool.txt	LTP098	ltpFR	4	15	-1	TRIBE	1505	n/a	n/a	-1	1.0	1.0	1	upper	Verdana.ttf
3000569	WORD	wordpools/wasnorm_wordpool.txt	LTP098	ltpFR	4	15	-1	FOLLOWER	589	n/a	n/a	-1	1.0	1.0	1	upper	Verdana.ttf
3004489	WORD	wordpools/wasnorm_wordpool.txt	LTP098	ltpFR	4	15	-1	SUSPECT	1415	n/a	n/a	-1	1.0	1.0	1	upper	Verdana.ttf
3008467	WORD	wordpools/wasnorm_wordpool.txt	LTP098	ltpFR	4	15	-1	HAIL	676	n/a	n/a	-1	1.0	1.0	1	upper	Verdana.ttf
3012305	WORD	wordpools/wasnorm_wordpool.txt	LTP098	ltpFR	4	15	-1	COOLER	375	n/a	n/a	-1	1.0	1.0	1	upper	Verdana.ttf
3016500	WORD	wordpools/wasnorm_wordpool.txt	LTP098	ltpFR	4	15	-1	CHAMPAGNE	278	n/a	n/a	-1	1.0	1.0	1	upper	Verdana.ttf
3020604	WORD	wordpools/wasnorm_wordpool.txt	LTP098	ltpFR	4	15	-1	NERVE	944	n/a	n/a	-1	1.0	1.0	1	upper	Verdana.ttf
3024482	WORD	wordpools/wasnorm_wordpool.txt	LTP098	ltpFR	4	15	-1	PAD	998	n/a	n/a	-1	1.0	1.0	1	upper	Verdana.ttf
3028519	WORD	wordpools/wasnorm_wordpool.txt	LTP098	ltpFR	4	15	-1	JOURNAL	760	n/a	n/a	-1	1.0	1.0	1	upper	Verdana.ttf
3032531	WORD	wordpools/wasnorm_wordpool.txt	LTP098	ltpFR	4	15	-1	CLARINET	317	n/a	n/a	-1	1.0	1.0	1	upper	Verdana.ttf
3036677	WORD	wordpools/wasnorm_wordpool.txt	LTP098	ltpFR	4	15	-1	STEAM	1375	n/a	n/a	-1	1.0	1.0	1	upper	Verdana.ttf
3040522	WORD	wordpools/wasnorm_wordpool.txt	LTP098	ltpFR	4	15	-1	TRASH	1497	n/a	n/a	-1	1.0	1.0	1	upper	Verdana.ttf
3044376	WORD	wordpools/wasnorm_wordpool.txt	LTP098	ltpFR	4	15	-1	BRAIN	165	n/a	n/a	-1	1.0	1.0	1	upper	Verdana.ttf
3048321	WORD	wordpools/wasnorm_wordpool.txt	LTP098	ltpFR	4	15	-1	SOLDIER	1344	n/a	n/a	-1	1.0	1.0	1	upper	Verdana.ttf
3052233	WORD	wordpools/wasnorm_wordpool.txt	LTP098	ltpFR	4	15	-1	SANDPAPER	1231	n/a	n/a	-1	1.0	1.0	1	upper	Verdana.ttf
3056262	WORD	wordpools/wasnorm_wordpool.txt	LTP098	ltpFR	4	15	-1	RECORD	1176	n/a	n/a	-1	1.0	1.0	1	upper	Verdana.ttf
3061973	REC_START	n/a	LTP098	ltpFR	4	15	n/a	n/a	n/a	n/a	n/a	n/a	n/a	n/a	n/a	n/a	n/a
3062164	REC_WORD	wordpools/wasnorm_wordpool.txt	LTP098	ltpFR	4	15	-1	SOLDIER	1344	n/a	n/a	-1	n/a	n/a	n/a	n/a	n/a
3062909	REC_WORD	wordpools/wasnorm_wordpool.txt	LTP098	ltpFR	4	15	-1	SANDPAPER	1231	n/a	n/a	-1	n/a	n/a	n/a	n/a	n/a
3063943	REC_WORD	wordpools/wasnorm_wordpool.txt	LTP098	ltpFR	4	15	-1	RECORD	1176	n/a	n/a	-1	n/a	n/a	n/a	n/a	n/a
3065395	REC_WORD	wordpools/wasnorm_wordpool.txt	LTP098	ltpFR	4	15	-1	BRAIN	165	n/a	n/a	-1	n/a	n/a	n/a	n/a	n/a
3066468	REC_WORD	wordpools/wasnorm_wordpool.txt	LTP098	ltpFR	4	15	-1	STEAM	1375	n/a	n/a	-1	n/a	n/a	n/a	n/a	n/a
3067620	REC_WORD	wordpools/wasnorm_wordpool.txt	LTP098	ltpFR	4	15	-1	TRASH	1497	n/a	n/a	-1	n/a	n/a	n/a	n/a	n/a
3070783	REC_WORD	wordpools/wasnorm_wordpool.txt	LTP098	ltpFR	4	15	-1	PAD	998	n/a	n/a	-1	n/a	n/a	n/a	n/a	n/a
3071595	REC_WORD	wordpools/wasnorm_wordpool.txt	LTP098	ltpFR	4	15	-1	JOURNAL	760	n/a	n/a	-1	n/a	n/a	n/a	n/a	n/a
3073786	REC_WORD	wordpools/wasnorm_wordpool.txt	LTP098	ltpFR	4	15	-1	SUSPECT	1415	n/a	n/a	-1	n/a	n/a	n/a	n/a	n/a
3075118	REC_WORD	wordpools/wasnorm_wordpool.txt	LTP098	ltpFR	4	15	-1	TRIBE	1505	n/a	n/a	-1	n/a	n/a	n/a	n/a	n/a
3076400	REC_WORD	wordpools/wasnorm_wordpool.txt	LTP098	ltpFR	4	15	-1	FOLLOWER	589	n/a	n/a	-1	n/a	n/a	n/a	n/a	n/a
3080665	REC_WORD	wordpools/wasnorm_wordpool.txt	LTP098	ltpFR	4	15	-1	COOLER	375	n/a	n/a	-1	n/a	n/a	n/a	n/a	n/a
3083145	REC_WORD	wordpools/wasnorm_wordpool.txt	LTP098	ltpFR	4	15	-1	CHAMPAGNE	278	n/a	n/a	-1	n/a	n/a	n/a	n/a	n/a
3089061	REC_WORD	wordpools/wasnorm_wordpool.txt	LTP098	ltpFR	4	15	-1	HAIL	676	n/a	n/a	-1	n/a	n/a	n/a	n/a	n/a
3140840	WORD	wordpools/wasnorm_wordpool.txt	LTP098	ltpFR	4	16	1	FRANCE	601	n/a	n/a	0	0.57763671875	0.412841796875	1	upper	zerothre.ttf
3144968	WORD	wordpools/wasnorm_wordpool.txt	LTP098	ltpFR	4	16	1	PERSON	1052	n/a	n/a	1	0.57763671875	0.412841796875	1	upper	zerothre.ttf
3148789	WORD	wordpools/wasnorm_wordpool.txt	LTP098	ltpFR	4	16	1	WALNUT	1584	n/a	n/a	0	0.57763671875	0.412841796875	1	upper	zerothre.ttf
3152742	WORD	wordpools/wasnorm_wordpool.txt	LTP098	ltpFR	4	16	1	RULER	1216	n/a	n/a	0	0.57763671875	0.412841796875	1	upper	zerothre.ttf
3156779	WORD	wordpools/wasnorm_wordpool.txt	LTP098	ltpFR	4	16	1	MULE	931	n/a	n/a	1	0.57763671875	0.412841796875	1	upper	zerothre.ttf
3160950	WORD	wordpools/wasnorm_wordpool.txt	LTP098	ltpFR	4	16	1	CATTLE	261	n/a	n/a	1	0.57763671875	0.412841796875	1	upper	zerothre.ttf
3164762	WORD	wordpools/wasnorm_wordpool.txt	LTP098	ltpFR	4	16	1	RAM	1165	n/a	n/a	1	0.57763671875	0.412841796875	1	upper	zerothre.ttf
3168799	WORD	wordpools/wasnorm_wordpool.txt	LTP098	ltpFR	4	16	1	GAUZE	626	n/a	n/a	0	0.57763671875	0.412841796875	1	upper	zerothre.ttf
3172927	WORD	wordpools/wasnorm_wordpool.txt	LTP098	ltpFR	4	16	1	SCISSORS	1250	n/a	n/a	0	0.57763671875	0.412841796875	1	upper	zerothre.ttf
3176998	WORD	wordpools/wasnorm_wordpool.txt	LTP098	ltpFR	4	16	1	PRESIDENT	1121	n/a	n/a	1	0.57763671875	0.412841796875	1	upper	zerothre.ttf
3180935	WORD	wordpools/wasnorm_wordpool.txt	LTP098	ltpFR	4	16	1	COUNTY	389	n/a	n/a	0	0.57763671875	0.412841796875	1	upper	zerothre.ttf
3184905	WORD	wordpools/wasnorm_wordpool.txt	LTP098	ltpFR	4	16	1	HORSE	719	n/a	n/a	1	0.57763671875	0.412841796875	1	upper	zerothre.ttf
3188834	WORD	wordpools/wasnorm_wordpool.txt	LTP098	ltpFR	4	16	1	LIST	830	n/a	n/a	0	0.57763671875	0.412841796875	1	upper	zerothre.ttf
3192696	WORD	wordpools/wasnorm_wordpool.txt	LTP098	ltpFR	4	16	1	CAPITAL	238	n/a	n/a	0	0.57763671875	0.412841796875	1	upper	zerothre.ttf
3196825	WORD	wordpools/wasnorm_wordpool.txt	LTP098	ltpFR	4	16	1	TREAD	1499	n/a	n/a	0	0.57763671875	0.412841796875	1	upper	zerothre.ttf
3200662	WORD	wordpools/wasnorm_wordpool.txt	LTP098	ltpFR	4	16	1	ISLAND	745	n/a	n/a	0	0.57763671875	0.412841796875	1	upper	zerothre.ttf
3206330	REC_START	n/a	LTP098	ltpFR	4	16	n/a	n/a	n/a	n/a	n/a	n/a	n/a	n/a	n/a	n/a	n/a
3206769	REC_WORD	wordpools/wasnorm_wordpool.txt	LTP098	ltpFR	4	16	1	TREAD	1499	n/a	n/a	0	n/a	n/a	n/a	n/a	n/a
3207642	REC_WORD	wordpools/wasnorm_wordpool.txt	LTP098	ltpFR	4	16	1	ISLAND	745	n/a	n/a	0	n/a	n/a	n/a	n/a	n/a
3208520	REC_WORD	wordpools/wasnorm_wordpool.txt	LTP098	ltpFR	4	16	1	CAPITAL	238	n/a	n/a	0	n/a	n/a	n/a	n/a	n/a
3209274	REC_WORD	wordpools/wasnorm_wordpool.txt	LTP098	ltpFR	4	16	1	FRANCE	601	n/a	n/a	0	n/a	n/a	n/a	n/a	n/a
3210411	REC_WORD	wordpools/wasnorm_wordpool.txt	LTP098	ltpFR	4	16	1	RAM	1165	n/a	n/a	1	n/a	n/a	n/a	n/a	n/a
3211503	REC_WORD	wordpools/wasnorm_wordpool.txt	LTP098	ltpFR	4	16	1	GAUZE	626	n/a	n/a	0	n/a	n/a	n/a	n/a	n/a
3212291	REC_WORD	wordpools/wasnorm_wordpool.txt	LTP098	ltpFR	4	16	1	SCISSORS	1250	n/a	n/a	0	n/a	n/a	n/a	n/a	n/a
3214092	REC_WORD	wordpools/wasnorm_wordpool.txt	LTP098	ltpFR	4	16	n/a	COW	393	n/a	n/a	n/a	n/a	n/a	n/a	n/a	n/a
3215050	REC_WORD	wordpools/wasnorm_wordpool.txt	LTP098	ltpFR	4	16	1	MULE	931	n/a	n/a	1	n/a	n/a	n/a	n/a	n/a
3220418	REC_WORD	wordpools/wasnorm_wordpool.txt	LTP098	ltpFR	4	16	1	PRESIDENT	1121	n/a	n/a	1	n/a	n/a	n/a	n/a	n/a
3221306	REC_WORD	wordpools/wasnorm_wordpool.txt	LTP098	ltpFR	4	16	1	RULER	1216	n/a	n/a	0	n/a	n/a	n/a	n/a	n/a
3226030	REC_WORD	wordpools/wasnorm_wordpool.txt	LTP098	ltpFR	4	16	1	WALNUT	1584	n/a	n/a	0	n/a	n/a	n/a	n/a	n/a
3303674	REC_START	n/a	LTP098	ltpFR	4	1	n/a	n/a	n/a	n/a	n/a	n/a	n/a	n/a	n/a	n/a	n/a
3303700	RECOG_LURE	n/a	LTP098	ltpFR	4	1	n/a	SPOON	1357	0	5	n/a	n/a	n/a	n/a	n/a	n/a
3305470	RECOG_RESP	n/a	LTP098	ltpFR	4	1	n/a	SPOON	1357	0	n/a	n/a	n/a	n/a	n/a	n/a	n/a
3306732	RECOG_CONF	n/a	LTP098	ltpFR	4	1	n/a	SPOON	1357	n/a	5	n/a	n/a	n/a	n/a	n/a	n/a
3308477	RECOG_TARGET	n/a	LTP098	ltpFR	4	1	1	BUS	201	0	4	0	n/a	n/a	n/a	n/a	n/a
3309391	RECOG_RESP	n/a	LTP098	ltpFR	4	1	1	BUS	201	0	n/a	0	n/a	n/a	n/a	n/a	n/a
3310140	RECOG_CONF	n/a	LTP098	ltpFR	4	1	1	BUS	201	n/a	4	0	n/a	n/a	n/a	n/a	n/a
3311540	RECOG_TARGET	n/a	LTP098	ltpFR	4	1	1	SCISSORS	1250	1	5	0	n/a	n/a	n/a	n/a	n/a
3312267	RECOG_RESP	n/a	LTP098	ltpFR	4	1	1	SCISSORS	1250	1	n/a	0	n/a	n/a	n/a	n/a	n/a
3312848	RECOG_CONF	n/a	LTP098	ltpFR	4	1	1	SCISSORS	1250	n/a	5	0	n/a	n/a	n/a	n/a	n/a
3314528	RECOG_LURE	n/a	LTP098	ltpFR	4	1	n/a	RECEPTIONIST	1174	0	4	n/a	n/a	n/a	n/a	n/a	n/a
3315462	RECOG_RESP	n/a	LTP098	ltpFR	4	1	n/a	RECEPTIONIST	1174	0	n/a	n/a	n/a	n/a	n/a	n/a	n/a
3316111	RECOG_CONF	n/a	LTP098	ltpFR	4	1	n/a	RECEPTIONIST	1174	n/a	4	n/a	n/a	n/a	n/a	n/a	n/a
3317676	RECOG_TARGET	n/a	LTP098	ltpFR	4	1	1	GAUZE	626	1	5	0	n/a	n/a	n/a	n/a	n/a
3318395	RECOG_RESP	n/a	LTP098	ltpFR	4	1	1	GAUZE	626	1	n/a	0	n/a	n/a	n/a	n/a	n/a
3319034	RECOG_CONF	n/a	LTP098	ltpFR	4	1	1	GAUZE	626	n/a	5	0	n/a	n/a	n/a	n/a	n/a
3320546	RECOG_LURE	n/a	LTP098	ltpFR	4	1	n/a	GATE	625	1	1	n/a	n/a	n/a	n/a	n/a	n/a
3321683	RECOG_RESP	n/a	LTP098	ltpFR	4	1	n/a	GATE	625	1	n/a	n/a	n/a	n/a	n/a	n/a	n/a
3322316	RECOG_CONF	n/a	LTP098	ltpFR	4	1	n/a	GATE	625	n/a	1	n/a	n/a	n/a	n/a	n/a	n/a
3323752	RECOG_LURE	n/a	LTP098	ltpFR	4	1	n/a	SEAT	1264	0	1	n/a	n/a	n/a	n/a	n/a	n/a
3324876	RECOG_RESP	n/a	LTP098	ltpFR	4	1	n/a	SEAT	1264	0	n/a	n/a	n/a	n/a	n/a	n/a	n/a
3325539	RECOG_CONF	n/a	LTP098	ltpFR	4	1	n/a	SEAT	1264	n/a	1	n/a	n/a	n/a	n/a	n/a	n/a
3326948	RECOG_LURE	n/a	LTP098	ltpFR	4	1	n/a	LASER	801	0	3	n/a	n/a	n/a	n/a	n/a	n/a
3327829	RECOG_RESP	n/a	LTP098	ltpFR	4	1	n/a	LASER	801	0	n/a	n/a	n/a	n/a	n/a	n/a	n/a
3328423	RECOG_CONF	n/a	LTP098	ltpFR	4	1	n/a	LASER	801	n/a	3	n/a	n/a	n/a	n/a	n/a	n/a
3329920	RECOG_TARGET	n/a	LTP098	ltpFR	4	1	1	GLASSES	640	1	4	0	n/a	n/a	n/a	n/a	n/a
3331306	RECOG_RESP	n/a	LTP098	ltpFR	4	1	1	GLASSES	640	1	n/a	0	n/a	n/a	n/a	n/a	n/a
3332024	RECOG_CONF	n/a	LTP098	ltpFR	4	1	1	GLASSES	640	n/a	4	0	n/a	n/a	n/a	n/a	n/a
3333498	RECOG_TARGET	n/a	LTP098	ltpFR	4	1	1	LADY	794	1	5	0	n/a	n/a	n/a	n/a	n/a
3334289	RECOG_RESP	n/a	LTP098	ltpFR	4	1	1	LADY	794	1	n/a	0	n/a	n/a	n/a	n/a	n/a
3334838	RECOG_CONF	n/a	LTP098	ltpFR	4	1	1	LADY	794	n/a	5	0	n/a	n/a	n/a	n/a	n/a
3336320	RECOG_LURE	n/a	LTP098	ltpFR	4	1	n/a	LODGE	839	0	1	n/a	n/a	n/a	n/a	n/a	n/a
3337163	RECOG_RESP	n/a	LTP098	ltpFR	4	1	n/a	LODGE	839	0	n/a	n/a	n/a	n/a	n/a	n/a	n/a
3337751	RECOG_CONF	n/a	LTP098	ltpFR	4	1	n/a	LODGE	839	n/a	1	n/a	n/a	n/a	n/a	n/a	n/a
3339175	RECOG_LURE	n/a	LTP098	ltpFR	4	1	n/a	CALENDAR	221	0	1	n/a	n/a	n/a	n/a	n/a	n/a
3340735	RECOG_RESP	n/a	LTP098	ltpFR	4	1	n/a	CALENDAR	221	0	n/a	n/a	n/a	n/a	n/a	n/a	n/a
3341283	RECOG_CONF	n/a	LTP098	ltpFR	4	1	n/a	CALENDAR	221	n/a	1	n/a	n/a	n/a	n/a	n/a	n/a
3342713	RECOG_LURE	n/a	LTP098	ltpFR	4	1	n/a	JAM	748	1	1	n/a	n/a	n/a	n/a	n/a	n/a
3344735	RECOG_RESP	n/a	LTP098	ltpFR	4	1	n/a	JAM	748	1	n/a	n/a	n/a	n/a	n/a	n/a	n/a
3345324	RECOG_CONF	n/a	LTP098	ltpFR	4	1	n/a	JAM	748	n/a	1	n/a	n/a	n/a	n/a	n/a	n/a
3346800	RECOG_TARGET	n/a	LTP098	ltpFR	4	1	1	HAY	693	1	5	1	n/a	n/a	n/a	n/a	n/a
3347459	RECOG_RESP	n/a	LTP098	ltpFR	4	1	1	HAY	693	1	n/a	1	n/a	n/a	n/a	n/a	n/a
3347928	RECOG_CONF	n/a	LTP098	ltpFR	4	1	1	HAY	693	n/a	5	1	n/a	n/a	n/a	n/a	n/a
3349546	RECOG_LURE	n/a	LTP098	ltpFR	4	1	n/a	SHRIMP	1297	0	1	n/a	n/a	n/a	n/a	n/a	n/a
3350622	RECOG_RESP	n/a	LTP098	ltpFR	4	1	n/a	SHRIMP	1297	0	n/a	n/a	n/a	n/a	n/a	n/a	n/a
3351241	RECOG_CONF	n/a	LTP098	ltpFR	4	1	n/a	SHRIMP	1297	n/a	1	n/a	n/a	n/a	n/a	n/a	n/a
3352652	RECOG_TARGET	n/a	LTP098	ltpFR	4	1	0	ORCHESTRA	981	1	5	n/a	n/a	n/a	n/a	n/a	n/a
3353336	RECOG_RESP	n/a	LTP098	ltpFR	4	1	0	ORCHESTRA	981	1	n/a	n/a	n/a	n/a	n/a	n/a	n/a
3353965	RECOG_CONF	n/a	LTP098	ltpFR	4	1	0	ORCHESTRA	981	n/a	5	n/a	n/a	n/a	n/a	n/a	n/a
3355414	RECOG_LURE	n/a	LTP098	ltpFR	4	1	n/a	OATMEAL	967	1	1	n/a	n/a	n/a	n/a	n/a	n/a
3356189	RECOG_RESP	n/a	LTP098	ltpFR	4	1	n/a	OATMEAL	967	1	n/a	n/a	n/a	n/a	n/a	n/a	n/a
3356848	RECOG_CONF	n/a	LTP098	ltpFR	4	1	n/a	OATMEAL	967	n/a	1	n/a	n/a	n/a	n/a	n/a	n/a
3358286	RECOG_LURE	n/a	LTP098	ltpFR	4	1	n/a	COTTAGE	384	0	1	n/a	n/a	n/a	n/a	n/a	n/a
3359682	RECOG_RESP	n/a	LTP098	ltpFR	4	1	n/a	COTTAGE	384	0	n/a	n/a	n/a	n/a	n/a	n/a	n/a
3360280	RECOG_CONF	n/a	LTP098	ltpFR	4	1	n/a	COTTAGE	384	n/a	1	n/a	n/a	n/a	n/a	n/a	n/a
3361808	RECOG_TARGET	n/a	LTP098	ltpFR	4	1	1	RADISH	1158	1	1	1	n/a	n/a	n/a	n/a	n/a
3362615	RECOG_RESP	n/a	LTP098	ltpFR	4	1	1	RADISH	1158	1	n/a	1	n/a	n/a	n/a	n/a	n/a
3363204	RECOG_CONF	n/a	LTP098	ltpFR	4	1	1	RADISH	1158	n/a	1	1	n/a	n/a	n/a	n/a	n/a
3364679	RECOG_TARGET	n/a	LTP098	ltpFR	4	1	1	TREAD	1499	1	5	0	n/a	n/a	n/a	n/a	n/a
3365319	RECOG_RESP	n/a	LTP098	ltpFR	4	1	1	TREAD	1499	1	n/a	0	n/a	n/a	n/a	n/a	n/a
3365937	RECOG_CONF	n/a	LTP098	ltpFR	4	1	1	TREAD	1499	n/a	5	0	n/a	n/a	n/a	n/a	n/a
3370051	REC_START	n/a	LTP098	ltpFR	4	2	n/a	n/a	n/a	n/a	n/a	n/a	n/a	n/a	n/a	n/a	n/a
3370082	RECOG_LURE	n/a	LTP098	ltpFR	4	2	n/a	TART	1436	1	1	n/a	n/a	n/a	n/a	n/a	n/a
3371368	RECOG_RESP	n/a	LTP098	ltpFR	4	2	n/a	TART	1436	1	n/a	n/a	n/a	n/a	n/a	n/a	n/a
3372011	RECOG_CONF	n/a	LTP098	ltpFR	4	2	n/a	TART	1436	n/a	1	n/a	n/a	n/a	n/a	n/a	n/a
3373443	RECOG_LURE	n/a	LTP098	ltpFR	4	2	n/a	SKIRT	1319	0	1	n/a	n/a	n/a	n/a	n/a	n/a
3374316	RECOG_RESP	n/a	LTP098	ltpFR	4	2	n/a	SKIRT	1319	0	n/a	n/a	n/a	n/a	n/a	n/a	n/a
3374895	RECOG_CONF	n/a	LTP098	ltpFR	4	2	n/a	SKIRT	1319	n/a	1	n/a	n/a	n/a	n/a	n/a	n/a
3376357	RECOG_LURE	n/a	LTP098	ltpFR	4	2	n/a	DOCTOR	478	0	1	n/a	n/a	n/a	n/a	n/a	n/a
3377165	RECOG_RESP	n/a	LTP098	ltpFR	4	2	n/a	DOCTOR	478	0	n/a	n/a	n/a	n/a	n/a	n/a	n/a
3377758	RECOG_CONF	n/a	LTP098	ltpFR	4	2	n/a	DOCTOR	478	n/a	1	n/a	n/a	n/a	n/a	n/a	n/a
3379270	RECOG_TARGET	n/a	LTP098	ltpFR	4	2	1	LAKE	796	1	5	0	n/a	n/a	n/a	n/a	n/a
3380013	RECOG_RESP	n/a	LTP098	ltpFR	4	2	1	LAKE	796	1	n/a	0	n/a	n/a	n/a	n/a	n/a
3380570	RECOG_CONF	n/a	LTP098	ltpFR	4	2	1	LAKE	796	n/a	5	0	n/a	n/a	n/a	n/a	n/a
3382043	RECOG_TARGET	n/a	LTP098	ltpFR	4	2	0	MOLECULE	905	1	5	0	n/a	n/a	n/a	n/a	n/a
3382882	RECOG_RESP	n/a	LTP098	ltpFR	4	2	0	MOLECULE	905	1	n/a	0	n/a	n/a	n/a	n/a	n/a
3383495	RECOG_CONF	n/a	LTP098	ltpFR	4	2	0	MOLECULE	905	n/a	5	0	n/a	n/a	n/a	n/a	n/a
3384906	RECOG_LURE	n/a	LTP098	ltpFR	4	2	n/a	HANDCUFFS	685	0	1	n/a	n/a	n/a	n/a	n/a	n/a
3386678	RECOG_RESP	n/a	LTP098	ltpFR	4	2	n/a	HANDCUFFS	685	0	n/a	n/a	n/a	n/a	n/a	n/a	n/a
3387287	RECOG_CONF	n/a	LTP098	ltpFR	4	2	n/a	HANDCUFFS	685	n/a	1	n/a	n/a	n/a	n/a	n/a	n/a
3388801	RECOG_TARGET	n/a	LTP098	ltpFR	4	2	0	BULLETIN	195	1	5	1	n/a	n/a	n/a	n/a	n/a
3389427	RECOG_RESP	n/a	LTP098	ltpFR	4	2	0	BULLETIN	195	1	n/a	1	n/a	n/a	n/a	n/a	n/a
3389921	RECOG_CONF	n/a	LTP098	ltpFR	4	2	0	BULLETIN	195	n/a	5	1	n/a	n/a	n/a	n/a	n/a
3391447	RECOG_LURE	n/a	LTP098	ltpFR	4	2	n/a	GLASS	639	1	4	n/a	n/a	n/a	n/a	n/a	n/a
3392500	RECOG_RESP	n/a	LTP098	ltpFR	4	2	n/a	GLASS	639	1	n/a	n/a	n/a	n/a	n/a	n/a	n/a
3393103	RECOG_CONF	n/a	LTP098	ltpFR	4	2	n/a	GLASS	639	n/a	4	n/a	n/a	n/a	n/a	n/a	n/a
3394560	RECOG_LURE	n/a	LTP098	ltpFR	4	2	n/a	PARENT	1013	0	1	n/a	n/a	n/a	n/a	n/a	n/a
3395463	RECOG_RESP	n/a	LTP098	ltpFR	4	2	n/a	PARENT	1013	0	n/a	n/a	n/a	n/a	n/a	n/a	n/a
3396037	RECOG_CONF	n/a	LTP098	ltpFR	4	2	n/a	PARENT	1013	n/a	1	n/a	n/a	n/a	n/a	n/a	n/a
3397499	RECOG_LURE	n/a	LTP098	ltpFR	4	2	n/a	BABY	64	1	1	n/a	n/a	n/a	n/a	n/a	n/a
3399853	RECOG_RESP	n/a	LTP098	ltpFR	4	2	n/a	BABY	64	1	n/a	n/a	n/a	n/a	n/a	n/a	n/a
3400387	RECOG_CONF	n/a	LTP098	ltpFR	4	2	n/a	BABY	64	n/a	1	n/a	n/a	n/a	n/a	n/a	n/a
3401878	RECOG_LURE	n/a	LTP098	ltpFR	4	2	n/a	CATCHER	258	0	1	n/a	n/a	n/a	n/a	n/a	n/a
3402766	RECOG_RESP	n/a	LTP098	ltpFR	4	2	n/a	CATCHER	258	0	n/a	n/a	n/a	n/a	n/a	n/a	n/a
3403320	RECOG_CONF	n/a	LTP098	ltpFR	4	2	n/a	CATCHER	258	n/a	1	n/a	n/a	n/a	n/a	n/a	n/a
3404716	RECOG_TARGET	n/a	LTP098	ltpFR	4	2	0	GOWN	652	1	5	1	n/a	n/a	n/a	n/a	n/a
3405515	RECOG_RESP	n/a	LTP098	ltpFR	4	2	0	GOWN	652	1	n/a	1	n/a	n/a	n/a	n/a	n/a
3405984	RECOG_CONF	n/a	LTP098	ltpFR	4	2	0	GOWN	652	n/a	5	1	n/a	n/a	n/a	n/a	n/a
3407512	RECOG_LURE	n/a	LTP098	ltpFR	4	2	n/a	TACK	1428	1	1	n/a	n/a	n/a	n/a	n/a	n/a
3409147	RECOG_RESP	n/a	LTP098	ltpFR	4	2	n/a	TACK	1428	1	n/a	n/a	n/a	n/a	n/a	n/a	n/a
3409736	RECOG_CONF	n/a	LTP098	ltpFR	4	2	n/a	TACK	1428	n/a	1	n/a	n/a	n/a	n/a	n/a	n/a
3411149	RECOG_LURE	n/a	LTP098	ltpFR	4	2	n/a	CHOCOLATE	306	0	1	n/a	n/a	n/a	n/a	n/a	n/a
3412065	RECOG_RESP	n/a	LTP098	ltpFR	4	2	n/a	CHOCOLATE	306	0	n/a	n/a	n/a	n/a	n/a	n/a	n/a
3412669	RECOG_CONF	n/a	LTP098	ltpFR	4	2	n/a	CHOCOLATE	306	n/a	1	n/a	n/a	n/a	n/a	n/a	n/a
3414196	RECOG_TARGET	n/a	LTP098	ltpFR	4	2	1	PRIEST	1122	1	3	1	n/a	n/a	n/a	n/a	n/a
3415009	RECOG_RESP	n/a	LTP098	ltpFR	4	2	1	PRIEST	1122	1	n/a	1	n/a	n/a	n/a	n/a	n/a
3415582	RECOG_CONF	n/a	LTP098	ltpFR	4	2	1	PRIEST	1122	n/a	3	1	n/a	n/a	n/a	n/a	n/a
3417035	RECOG_TARGET	n/a	LTP098	ltpFR	4	2	-1	STEAM	1375	1	5	-1	n/a	n/a	n/a	n/a	n/a
3417683	RECOG_RESP	n/a	LTP098	ltpFR	4	2	-1	STEAM	1375	1	n/a	-1	n/a	n/a	n/a	n/a	n/a
3418206	RECOG_CONF	n/a	LTP098	ltpFR	4	2	-1	STEAM	1375	n/a	5	-1	n/a	n/a	n/a	n/a	n/a
3419632	RECOG_TARGET	n/a	LTP098	ltpFR	4	2	0	CHIEF	298	1	5	1	n/a	n/a	n/a	n/a	n/a
3420501	RECOG_RESP	n/a	LTP098	ltpFR	4	2	0	CHIEF	298	1	n/a	1	n/a	n/a	n/a	n/a	n/a
3420990	RECOG_CONF	n/a	LTP098	ltpFR	4	2	0	CHIEF	298	n/a	5	1	n/a	n/a	n/a	n/a	n/a
3422428	RECOG_LURE	n/a	LTP098	ltpFR	4	2	n/a	COMMUNITY	356	1	1	n/a	n/a	n/a	n/a	n/a	n/a
3423110	RECOG_RESP	n/a	LTP098	ltpFR	4	2	n/a	COMMUNITY	356	1	n/a	n/a	n/a	n/a	n/a	n/a	n/a
3423674	RECOG_CONF	n/a	LTP098	ltpFR	4	2	n/a	COMMUNITY	356	n/a	1	n/a	n/a	n/a	n/a	n/a	n/a
3425101	RECOG_LURE	n/a	LTP098	ltpFR	4	2	n/a	NEPTUNE	943	0	1	n/a	n/a	n/a	n/a	n/a	n/a
3426069	RECOG_RESP	n/a	LTP098	ltpFR	4	2	n/a	NEPTUNE	943	0	n/a	n/a	n/a	n/a	n/a	n/a	n/a
3426617	RECOG_CONF	n/a	LTP098	ltpFR	4	2	n/a	NEPTUNE	943	n/a	1	n/a	n/a	n/a	n/a	n/a	n/a
3428056	RECOG_LURE	n/a	LTP098	ltpFR	4	2	n/a	AUNT	60	0	5	n/a	n/a	n/a	n/a	n/a	n/a
3428787	RECOG_RESP	n/a	LTP098	ltpFR	4	2	n/a	AUNT	60	0	n/a	n/a	n/a	n/a	n/a	n/a	n/a
3429351	RECOG_CONF	n/a	LTP098	ltpFR	4	2	n/a	AUNT	60	n/a	5	n/a	n/a	n/a	n/a	n/a	n/a
3432821	REC_START	n/a	LTP098	ltpFR	4	3	n/a	n/a	n/a	n/a	n/a	n/a	n/a	n/a	n/a	n/a	n/a
3432850	RECOG_TARGET	n/a	LTP098	ltpFR	4	3	1	RIDER	1191	1	4	1	n/a	n/a	n/a	n/a	n/a
3433539	RECOG_RESP	n/a	LTP098	ltpFR	4	3	1	RIDER	1191	1	n/a	1	n/a	n/a	n/a	n/a	n/a
3434073	RECOG_CONF	n/a	LTP098	ltpFR	4	3	1	RIDER	1191	n/a	4	1	n/a	n/a	n/a	n/a	n/a
3435529	RECOG_TARGET	n/a	LTP098	ltpFR	4	3	0	CART	250	1	3	1	n/a	n/a	n/a	n/a	n/a
3436213	RECOG_RESP	n/a	LTP098	ltpFR	4	3	0	CART	250	1	n/a	1	n/a	n/a	n/a	n/a	n/a
3436837	RECOG_CONF	n/a	LTP098	ltpFR	4	3	0	CART	250	n/a	3	1	n/a	n/a	n/a	n/a	n/a
3438193	RECOG_TARGET	n/a	LTP098	ltpFR	4	3	0	GRASSHOPPER	656	1	2	0	n/a	n/a	n/a	n/a	n/a
3438917	RECOG_RESP	n/a	LTP098	ltpFR	4	3	0	GRASSHOPPER	656	1	n/a	0	n/a	n/a	n/a	n/a	n/a
3439491	RECOG_CONF	n/a	LTP098	ltpFR	4	3	0	GRASSHOPPER	656	n/a	2	0	n/a	n/a	n/a	n/a	n/a
3440933	RECOG_TARGET	n/a	LTP098	ltpFR	4	3	1	BIRD	129	1	1	1	n/a	n/a	n/a	n/a	n/a
3441601	RECOG_RESP	n/a	LTP098	ltpFR	4	3	1	BIRD	129	1	n/a	1	n/a	n/a	n/a	n/a	n/a
3442195	RECOG_CONF	n/a	LTP098	ltpFR	4	3	1	BIRD	129	n/a	1	1	n/a	n/a	n/a	n/a	n/a
3443571	RECOG_TARGET	n/a	LTP098	ltpFR	4	3	1	LIST	830	1	5	0	n/a	n/a	n/a	n/a	n/a
3444165	RECOG_RESP	n/a	LTP098	ltpFR	4	3	1	LIST	830	1	n/a	0	n/a	n/a	n/a	n/a	n/a
3444669	RECOG_CONF	n/a	LTP098	ltpFR	4	3	1	LIST	830	n/a	5	0	n/a	n/a	n/a	n/a	n/a
3446102	RECOG_TARGET	n/a	LTP098	ltpFR	4	3	1	CIGAR	308	1	3	0	n/a	n/a	n/a	n/a	n/a
3447024	RECOG_RESP	n/a	LTP098	ltpFR	4	3	1	CIGAR	308	1	n/a	0	n/a	n/a	n/a	n/a	n/a
3447642	RECOG_CONF	n/a	LTP098	ltpFR	4	3	1	CIGAR	308	n/a	3	0	n/a	n/a	n/a	n/a	n/a
3449015	RECOG_TARGET	n/a	LTP098	ltpFR	4	3	0	HEEL	700	1	5	0	n/a	n/a	n/a	n/a	n/a
3449787	RECOG_RESP	n/a	LTP098	ltpFR	4	3	0	HEEL	700	1	n/a	0	n/a	n/a	n/a	n/a	n/a
3450276	RECOG_CONF	n/a	LTP098	ltpFR	4	3	0	HEEL	700	n/a	5	0	n/a	n/a	n/a	n/a	n/a
3451770	RECOG_LURE	n/a	LTP098	ltpFR	4	3	n/a	EXPLOSION	544	0	4	n/a	n/a	n/a	n/a	n/a	n/a
3452950	RECOG_RESP	n/a	LTP098	ltpFR	4	3	n/a	EXPLOSION	544	0	n/a	n/a	n/a	n/a	n/a	n/a	n/a
3453469	RECOG_CONF	n/a	LTP098	ltpFR	4	3	n/a	EXPLOSION	544	n/a	4	n/a	n/a	n/a	n/a	n/a	n/a
3454983	RECOG_TARGET	n/a	LTP098	ltpFR	4	3	-1	SQUID	1361	1	5	-1	n/a	n/a	n/a	n/a	n/a
3455754	RECOG_RESP	n/a	LTP098	ltpFR	4	3	-1	SQUID	1361	1	n/a	-1	n/a	n/a	n/a	n/a	n/a
3456213	RECOG_CONF	n/a	LTP098	ltpFR	4	3	-1	SQUID	1361	n/a	5	-1	n/a	n/a	n/a	n/a	n/a
3457696	RECOG_LURE	n/a	LTP098	ltpFR	4	3	n/a	DRILL	497	1	1	n/a	n/a	n/a	n/a	n/a	n/a
3459076	RECOG_RESP	n/a	LTP098	ltpFR	4	3	n/a	DRILL	497	1	n/a	n/a	n/a	n/a	n/a	n/a	n/a
3459725	RECOG_CONF	n/a	LTP098	ltpFR	4	3	n/a	DRILL	497	n/a	1	n/a	n/a	n/a	n/a	n/a	n/a
3461043	RECOG_TARGET	n/a	LTP098	ltpFR	4	3	0	BEARD	107	1	5	0	n/a	n/a	n/a	n/a	n/a
3461685	RECOG_RESP	n/a	LTP098	ltpFR	4	3	0	BEARD	107	1	n/a	0	n/a	n/a	n/a	n/a	n/a
3462119	RECOG_CONF	n/a	LTP098	ltpFR	4	3	0	BEARD	107	n/a	5	0	n/a	n/a	n/a	n/a	n/a
3463673	RECOG_TARGET	n/a	LTP098	ltpFR	4	3	0	ONION	977	1	5	0	n/a	n/a	n/a	n/a	n/a
3464339	RECOG_RESP	n/a	LTP098	ltpFR	4	3	0	ONION	977	1	n/a	0	n/a	n/a	n/a	n/a	n/a
3464853	RECOG_CONF	n/a	LTP098	ltpFR	4	3	0	ONION	977	n/a	5	0	n/a	n/a	n/a	n/a	n/a
3466377	RECOG_TARGET	n/a	LTP098	ltpFR	4	3	1	PERSON	1052	1	5	1	n/a	n/a	n/a	n/a	n/a
3467013	RECOG_RESP	n/a	LTP098	ltpFR	4	3	1	PERSON	1052	1	n/a	1	n/a	n/a	n/a	n/a	n/a
3467657	RECOG_CONF	n/a	LTP098	ltpFR	4	3	1	PERSON	1052	n/a	5	1	n/a	n/a	n/a	n/a	n/a
3469042	RECOG_LURE	n/a	LTP098	ltpFR	4	3	n/a	MANAGER	863	1	1	n/a	n/a	n/a	n/a	n/a	n/a
3470555	RECOG_RESP	n/a	LTP098	ltpFR	4	3	n/a	MANAGER	863	1	n/a	n/a	n/a	n/a	n/a	n/a	n/a
3471139	RECOG_CONF	n/a	LTP098	ltpFR	4	3	n/a	MANAGER	863	n/a	1	n/a	n/a	n/a	n/a	n/a	n/a
3472679	RECOG_LURE	n/a	LTP098	ltpFR	4	3	n/a	BRANCH	168	0	1	n/a	n/a	n/a	n/a	n/a	n/a
3474092	RECOG_RESP	n/a	LTP098	ltpFR	4	3	n/a	BRANCH	168	0	n/a	n/a	n/a	n/a	n/a	n/a	n/a
3474691	RECOG_CONF	n/a	LTP098	ltpFR	4	3	n/a	BRANCH	168	n/a	1	n/a	n/a	n/a	n/a	n/a	n/a
3476166	RECOG_TARGET	n/a	LTP098	ltpFR	4	3	0	LACE	792	1	5	0	n/a	n/a	n/a	n/a	n/a
3476956	RECOG_RESP	n/a	LTP098	ltpFR	4	3	0	LACE	792	1	n/a	0	n/a	n/a	n/a	n/a	n/a
3477444	RECOG_CONF	n/a	LTP098	ltpFR	4	3	0	LACE	792	n/a	5	0	n/a	n/a	n/a	n/a	n/a
3478938	RECOG_TARGET	n/a	LTP098	ltpFR	4	3	-1	PAD	998	1	5	-1	n/a	n/a	n/a	n/a	n/a
3479604	RECOG_RESP	n/a	LTP098	ltpFR	4	3	-1	PAD	998	1	n/a	-1	n/a	n/a	n/a	n/a	n/a
3480048	RECOG_CONF	n/a	LTP098	ltpFR	4	3	-1	PAD	998	n/a	5	-1	n/a	n/a	n/a	n/a	n/a
3481594	RECOG_TARGET	n/a	LTP098	ltpFR	4	3	-1	PIN	1072	1	5	-1	n/a	n/a	n/a	n/a	n/a
3482468	RECOG_RESP	n/a	LTP098	ltpFR	4	3	-1	PIN	1072	1	n/a	-1	n/a	n/a	n/a	n/a	n/a
3482962	RECOG_CONF	n/a	LTP098	ltpFR	4	3	-1	PIN	1072	n/a	5	-1	n/a	n/a	n/a	n/a	n/a
3484489	RECOG_TARGET	n/a	LTP098	ltpFR	4	3	-1	SUBMARINE	1398	1	5	-1	n/a	n/a	n/a	n/a	n/a
3485257	RECOG_RESP	n/a	LTP098	ltpFR	4	3	-1	SUBMARINE	1398	1	n/a	-1	n/a	n/a	n/a	n/a	n/a
3485785	RECOG_CONF	n/a	LTP098	ltpFR	4	3	-1	SUBMARINE	1398	n/a	5	-1	n/a	n/a	n/a	n/a	n/a
3487394	RECOG_TARGET	n/a	LTP098	ltpFR	4	3	1	WHIP	1604	1	5	0	n/a	n/a	n/a	n/a	n/a
3488050	RECOG_RESP	n/a	LTP098	ltpFR	4	3	1	WHIP	1604	1	n/a	0	n/a	n/a	n/a	n/a	n/a
3488479	RECOG_CONF	n/a	LTP098	ltpFR	4	3	1	WHIP	1604	n/a	5	0	n/a	n/a	n/a	n/a	n/a
3492149	REC_START	n/a	LTP098	ltpFR	4	4	n/a	n/a	n/a	n/a	n/a	n/a	n/a	n/a	n/a	n/a	n/a
3492180	RECOG_TARGET	n/a	LTP098	ltpFR	4	4	1	POTATO	1115	1	5	1	n/a	n/a	n/a	n/a	n/a
3492972	RECOG_RESP	n/a	LTP098	ltpFR	4	4	1	POTATO	1115	1	n/a	1	n/a	n/a	n/a	n/a	n/a
3493441	RECOG_CONF	n/a	LTP098	ltpFR	4	4	1	POTATO	1115	n/a	5	1	n/a	n/a	n/a	n/a	n/a
3494895	RECOG_TARGET	n/a	LTP098	ltpFR	4	4	-1	OINTMENT	974	1	5	-1	n/a	n/a	n/a	n/a	n/a
3495491	RECOG_RESP	n/a	LTP098	ltpFR	4	4	-1	OINTMENT	974	1	n/a	-1	n/a	n/a	n/a	n/a	n/a
3495985	RECOG_CONF	n/a	LTP098	ltpFR	4	4	-1	OINTMENT	974	n/a	5	-1	n/a	n/a	n/a	n/a	n/a
3497449	RECOG_TARGET	n/a	LTP098	ltpFR	4	4	1	ZIPPER	1636	1	5	0	n/a	n/a	n/a	n/a	n/a
3498120	RECOG_RESP	n/a	LTP098	ltpFR	4	4	1	ZIPPER	1636	1	n/a	0	n/a	n/a	n/a	n/a	n/a
3498619	RECOG_CONF	n/a	LTP098	ltpFR	4	4	1	ZIPPER	1636	n/a	5	0	n/a	n/a	n/a	n/a	n/a
3500097	RECOG_TARGET	n/a	LTP098	ltpFR	4	4	-1	BLUEBERRY	140	1	5	-1	n/a	n/a	n/a	n/a	n/a
3500664	RECOG_RESP	n/a	LTP098	ltpFR	4	4	-1	BLUEBERRY	140	1	n/a	-1	n/a	n/a	n/a	n/a	n/a
3501203	RECOG_CONF	n/a	LTP098	ltpFR	4	4	-1	BLUEBERRY	140	n/a	5	-1	n/a	n/a	n/a	n/a	n/a
3502636	RECOG_LURE	n/a	LTP098	ltpFR	4	4	n/a	PEDESTRIAN	1038	0	1	n/a	n/a	n/a	n/a	n/a	n/a
3504261	RECOG_RESP	n/a	LTP098	ltpFR	4	4	n/a	PEDESTRIAN	1038	0	n/a	n/a	n/a	n/a	n/a	n/a	n/a
3504795	RECOG_CONF	n/a	LTP098	ltpFR	4	4	n/a	PEDESTRIAN	1038	n/a	1	n/a	n/a	n/a	n/a	n/a	n/a
3506306	RECOG_TARGET	n/a	LTP098	ltpFR	4	4	-1	BAG	69	1	5	-1	n/a	n/a	n/a	n/a	n/a
3507030	RECOG_RESP	n/a	LTP098	ltpFR	4	4	-1	BAG	69	1	n/a	-1	n/a	n/a	n/a	n/a	n/a
3507569	RECOG_CONF	n/a	LTP098	ltpFR	4	4	-1	BAG	69	n/a	5	-1	n/a	n/a	n/a	n/a	n/a
3509103	RECOG_TARGET	n/a	LTP098	ltpFR	4	4	0	CONVICT	371	1	1	1	n/a	n/a	n/a	n/a	n/a
3510108	RECOG_RESP	n/a	LTP098	ltpFR	4	4	0	CONVICT	371	1	n/a	1	n/a	n/a	n/a	n/a	n/a
3510702	RECOG_CONF	n/a	LTP098	ltpFR	4	4	0	CONVICT	371	n/a	1	1	n/a	n/a	n/a	n/a	n/a
3512157	RECOG_LURE	n/a	LTP098	ltpFR	4	4	n/a	BASEMENT	94	1	1	n/a	n/a	n/a	n/a	n/a	n/a
3515027	RECOG_RESP	n/a	LTP098	ltpFR	4	4	n/a	BASEMENT	94	1	n/a	n/a	n/a	n/a	n/a	n/a	n/a
3515945	RECOG_CONF	n/a	LTP098	ltpFR	4	4	n/a	BASEMENT	94	n/a	1	n/a	n/a	n/a	n/a	n/a	n/a
3517542	RECOG_TARGET	n/a	LTP098	ltpFR	4	4	-1	NEEDLE	941	1	5	-1	n/a	n/a	n/a	n/a	n/a
3519152	RECOG_RESP	n/a	LTP098	ltpFR	4	4	-1	NEEDLE	941	1	n/a	-1	n/a	n/a	n/a	n/a	n/a
3519641	RECOG_CONF	n/a	LTP098	ltpFR	4	4	-1	NEEDLE	941	n/a	5	-1	n/a	n/a	n/a	n/a	n/a
3521073	RECOG_TARGET	n/a	LTP098	ltpFR	4	4	1	MOTHER	921	1	5	1	n/a	n/a	n/a	n/a	n/a
3521786	RECOG_RESP	n/a	LTP098	ltpFR	4	4	1	MOTHER	921	1	n/a	1	n/a	n/a	n/a	n/a	n/a
3522343	RECOG_CONF	n/a	LTP098	ltpFR	4	4	1	MOTHER	921	n/a	5	1	n/a	n/a	n/a	n/a	n/a
3523736	RECOG_LURE	n/a	LTP098	ltpFR	4	4	n/a	GRAVEL	659	0	4	n/a	n/a	n/a	n/a	n/a	n/a
3524560	RECOG_RESP	n/a	LTP098	ltpFR	4	4	n/a	GRAVEL	659	0	n/a	n/a	n/a	n/a	n/a	n/a	n/a
3525259	RECOG_CONF	n/a	LTP098	ltpFR	4	4	n/a	GRAVEL	659	n/a	4	n/a	n/a	n/a	n/a	n/a	n/a
3526749	RECOG_LURE	n/a	LTP098	ltpFR	4	4	n/a	HOSTAGE	722	0	4	n/a	n/a	n/a	n/a	n/a	n/a
3527748	RECOG_RESP	n/a	LTP098	ltpFR	4	4	n/a	HOSTAGE	722	0	n/a	n/a	n/a	n/a	n/a	n/a	n/a
3528352	RECOG_CONF	n/a	LTP098	ltpFR	4	4	n/a	HOSTAGE	722	n/a	4	n/a	n/a	n/a	n/a	n/a	n/a
3529946	RECOG_TARGET	n/a	LTP098	ltpFR	4	4	0	LEOPARD	812	1	5	1	n/a	n/a	n/a	n/a	n/a
3530736	RECOG_RESP	n/a	LTP098	ltpFR	4	4	0	LEOPARD	812	1	n/a	1	n/a	n/a	n/a	n/a	n/a
3531165	RECOG_CONF	n/a	LTP098	ltpFR	4	4	0	LEOPARD	812	n/a	5	1	n/a	n/a	n/a	n/a	n/a
3533282	RECOG_LURE	n/a	LTP098	ltpFR	4	4	n/a	SLOPE	1328	0	1	n/a	n/a	n/a	n/a	n/a	n/a
3534168	RECOG_RESP	n/a	LTP098	ltpFR	4	4	n/a	SLOPE	1328	0	n/a	n/a	n/a	n/a	n/a	n/a	n/a
3534957	RECOG_CONF	n/a	LTP098	ltpFR	4	4	n/a	SLOPE	1328	n/a	1	n/a	n/a	n/a	n/a	n/a	n/a
3536537	RECOG_LURE	n/a	LTP098	ltpFR	4	4	n/a	OVEN	991	0	1	n/a	n/a	n/a	n/a	n/a	n/a
3539117	RECOG_RESP	n/a	LTP098	ltpFR	4	4	n/a	OVEN	991	0	n/a	n/a	n/a	n/a	n/a	n/a	n/a
3539716	RECOG_CONF	n/a	LTP098	ltpFR	4	4	n/a	OVEN	991	n/a	1	n/a	n/a	n/a	n/a	n/a	n/a
3541116	RECOG_TARGET	n/a	LTP098	ltpFR	4	4	-1	DOLPHIN	483	1	5	-1	n/a	n/a	n/a	n/a	n/a
3541821	RECOG_RESP	n/a	LTP098	ltpFR	4	4	-1	DOLPHIN	483	1	n/a	-1	n/a	n/a	n/a	n/a	n/a
3542380	RECOG_CONF	n/a	LTP098	ltpFR	4	4	-1	DOLPHIN	483	n/a	5	-1	n/a	n/a	n/a	n/a	n/a
3543805	RECOG_LURE	n/a	LTP098	ltpFR	4	4	n/a	PIGEON	1065	0	1	n/a	n/a	n/a	n/a	n/a	n/a
3545108	RECOG_RESP	n/a	LTP098	ltpFR	4	4	n/a	PIGEON	1065	0	n/a	n/a	n/a	n/a	n/a	n/a	n/a
3545682	RECOG_CONF	n/a	LTP098	ltpFR	4	4	n/a	PIGEON	1065	n/a	1	n/a	n/a	n/a	n/a	n/a	n/a
3547109	RECOG_TARGET	n/a	LTP098	ltpFR	4	4	1	FOE	587	0	5	1	n/a	n/a	n/a	n/a	n/a
3548062	RECOG_RESP	n/a	LTP098	ltpFR	4	4	1	FOE	587	0	n/a	1	n/a	n/a	n/a	n/a	n/a
3548566	RECOG_CONF	n/a	LTP098	ltpFR	4	4	1	FOE	587	n/a	5	1	n/a	n/a	n/a	n/a	n/a
3550047	RECOG_LURE	n/a	LTP098	ltpFR	4	4	n/a	PEAR	1033	0	1	n/a	n/a	n/a	n/a	n/a	n/a
3552691	RECOG_RESP	n/a	LTP098	ltpFR	4	4	n/a	PEAR	1033	0	n/a	n/a	n/a	n/a	n/a	n/a	n/a
3553265	RECOG_CONF	n/a	LTP098	ltpFR	4	4	n/a	PEAR	1033	n/a	1	n/a	n/a	n/a	n/a	n/a	n/a
3554709	RECOG_LURE	n/a	LTP098	ltpFR	4	4	n/a	BANK	83	0	1	n/a	n/a	n/a	n/a	n/a	n/a
3555530	RECOG_RESP	n/a	LTP098	ltpFR	4	4	n/a	BANK	83	0	n/a	n/a	n/a	n/a	n/a	n/a	n/a
3556098	RECOG_CONF	n/a	LTP098	ltpFR	4	4	n/a	BANK	83	n/a	1	n/a	n/a	n/a	n/a	n/a	n/a
3559490	REC_START	n/a	LTP098	ltpFR	4	5	n/a	n/a	n/a	n/a	n/a	n/a	n/a	n/a	n/a	n/a	n/a
3559519	RECOG_LURE	n/a	LTP098	ltpFR	4	5	n/a	LINEN	825	1	1	n/a	n/a	n/a	n/a	n/a	n/a
3560577	RECOG_RESP	n/a	LTP098	ltpFR	4	5	n/a	LINEN	825	1	n/a	n/a	n/a	n/a	n/a	n/a	n/a
3561161	RECOG_CONF	n/a	LTP098	ltpFR	4	5	n/a	LINEN	825	n/a	1	n/a	n/a	n/a	n/a	n/a	n/a
3562608	RECOG_TARGET	n/a	LTP098	ltpFR	4	5	0	CANYON	235	1	5	1	n/a	n/a	n/a	n/a	n/a
3563231	RECOG_RESP	n/a	LTP098	ltpFR	4	5	0	CANYON	235	1	n/a	1	n/a	n/a	n/a	n/a	n/a
3563685	RECOG_CONF	n/a	LTP098	ltpFR	4	5	0	CANYON	235	n/a	5	1	n/a	n/a	n/a	n/a	n/a
3565162	RECOG_LURE	n/a	LTP098	ltpFR	4	5	n/a	AUDIENCE	59	1	3	n/a	n/a	n/a	n/a	n/a	n/a
3566000	RECOG_RESP	n/a	LTP098	ltpFR	4	5	n/a	AUDIENCE	59	1	n/a	n/a	n/a	n/a	n/a	n/a	n/a
3566589	RECOG_CONF	n/a	LTP098	ltpFR	4	5	n/a	AUDIENCE	59	n/a	3	n/a	n/a	n/a	n/a	n/a	n/a
3568060	RECOG_TARGET	n/a	LTP098	ltpFR	4	5	0	KNOB	787	1	5	0	n/a	n/a	n/a	n/a	n/a
3568883	RECOG_RESP	n/a	LTP098	ltpFR	4	5	0	KNOB	787	1	n/a	0	n/a	n/a	n/a	n/a	n/a
3569402	RECOG_CONF	n/a	LTP098	ltpFR	4	5	0	KNOB	787	n/a	5	0	n/a	n/a	n/a	n/a	n/a
3570948	RECOG_LURE	n/a	LTP098	ltpFR	4	5	n/a	STRAWBERRY	1391	0	1	n/a	n/a	n/a	n/a	n/a	n/a
3572056	RECOG_RESP	n/a	LTP098	ltpFR	4	5	n/a	STRAWBERRY	1391	0	n/a	n/a	n/a	n/a	n/a	n/a	n/a
3572595	RECOG_CONF	n/a	LTP098	ltpFR	4	5	n/a	STRAWBERRY	1391	n/a	1	n/a	n/a	n/a	n/a	n/a	n/a
3574036	RECOG_LURE	n/a	LTP098	ltpFR	4	5	n/a	DANDRUFF	439	0	5	n/a	n/a	n/a	n/a	n/a	n/a
3575025	RECOG_RESP	n/a	LTP098	ltpFR	4	5	n/a	DANDRUFF	439	0	n/a	n/a	n/a	n/a	n/a	n/a	n/a
3575628	RECOG_CONF	n/a	LTP098	ltpFR	4	5	n/a	DANDRUFF	439	n/a	5	n/a	n/a	n/a	n/a	n/a	n/a
3577091	RECOG_LURE	n/a	LTP098	ltpFR	4	5	n/a	BEAKER	104	0	5	n/a	n/a	n/a	n/a	n/a	n/a
3577953	RECOG_RESP	n/a	LTP098	ltpFR	4	5	n/a	BEAKER	104	0	n/a	n/a	n/a	n/a	n/a	n/a	n/a
3578441	RECOG_CONF	n/a	LTP098	ltpFR	4	5	n/a	BEAKER	104	n/a	5	n/a	n/a	n/a	n/a	n/a	n/a
3579938	RECOG_TARGET	n/a	LTP098	ltpFR	4	5	-1	HINGE	709	1	5	-1	n/a	n/a	n/a	n/a	n/a
3580886	RECOG_RESP	n/a	LTP098	ltpFR	4	5	-1	HINGE	709	1	n/a	-1	n/a	n/a	n/a	n/a	n/a
3581295	RECOG_CONF	n/a	LTP098	ltpFR	4	5	-1	HINGE	709	n/a	5	-1	n/a	n/a	n/a	n/a	n/a
3582851	RECOG_TARGET	n/a	LTP098	ltpFR	4	5	1	PATRIOT	1026	1	5	1	n/a	n/a	n/a	n/a	n/a
3583590	RECOG_RESP	n/a	LTP098	ltpFR	4	5	1	PATRIOT	1026	1	n/a	1	n/a	n/a	n/a	n/a	n/a
3584069	RECOG_CONF	n/a	LTP098	ltpFR	4	5	1	PATRIOT	1026	n/a	5	1	n/a	n/a	n/a	n/a	n/a
3585547	RECOG_TARGET	n/a	LTP098	ltpFR	4	5	-1	MOOSE	915	1	5	-1	n/a	n/a	n/a	n/a	n/a
3586099	RECOG_RESP	n/a	LTP098	ltpFR	4	5	-1	MOOSE	915	1	n/a	-1	n/a	n/a	n/a	n/a	n/a
3586603	RECOG_CONF	n/a	LTP098	ltpFR	4	5	-1	MOOSE	915	n/a	5	-1	n/a	n/a	n/a	n/a	n/a
3588003	RECOG_TARGET	n/a	LTP098	ltpFR	4	5	1	MOUSE	925	1	5	1	n/a	n/a	n/a	n/a	n/a
3588564	RECOG_RESP	n/a	LTP098	ltpFR	4	5	1	MOUSE	925	1	n/a	1	n/a	n/a	n/a	n/a	n/a
3589108	RECOG_CONF	n/a	LTP098	ltpFR	4	5	1	MOUSE	925	n/a	5	1	n/a	n/a	n/a	n/a	n/a
3590584	RECOG_TARGET	n/a	LTP098	ltpFR	4	5	1	DRIVEWAY	500	1	5	0	n/a	n/a	n/a	n/a	n/a
3591243	RECOG_RESP	n/a	LTP098	ltpFR	4	5	1	DRIVEWAY	500	1	n/a	0	n/a	n/a	n/a	n/a	n/a
3591722	RECOG_CONF	n/a	LTP098	ltpFR	4	5	1	DRIVEWAY	500	n/a	5	0	n/a	n/a	n/a	n/a	n/a
3593288	RECOG_LURE	n/a	LTP098	ltpFR	4	5	n/a	CUE	422	0	1	n/a	n/a	n/a	n/a	n/a	n/a
3594121	RECOG_RESP	n/a	LTP098	ltpFR	4	5	n/a	CUE	422	0	n/a	n/a	n/a	n/a	n/a	n/a	n/a
3594655	RECOG_CONF	n/a	LTP098	ltpFR	4	5	n/a	CUE	422	n/a	1	n/a	n/a	n/a	n/a	n/a	n/a
3596077	RECOG_TARGET	n/a	LTP098	ltpFR	4	5	1	ISLAND	745	1	5	0	n/a	n/a	n/a	n/a	n/a
3596745	RECOG_RESP	n/a	LTP098	ltpFR	4	5	1	ISLAND	745	1	n/a	0	n/a	n/a	n/a	n/a	n/a
3597189	RECOG_CONF	n/a	LTP098	ltpFR	4	5	1	ISLAND	745	n/a	5	0	n/a	n/a	n/a	n/a	n/a
3598683	RECOG_TARGET	n/a	LTP098	ltpFR	4	5	1	LIP	828	1	5	1	n/a	n/a	n/a	n/a	n/a
3599225	RECOG_RESP	n/a	LTP098	ltpFR	4	5	1	LIP	828	1	n/a	1	n/a	n/a	n/a	n/a	n/a
3599743	RECOG_CONF	n/a	LTP098	ltpFR	4	5	1	LIP	828	n/a	5	1	n/a	n/a	n/a	n/a	n/a
3601154	RECOG_TARGET	n/a	LTP098	ltpFR	4	5	1	BLANKET	135	1	5	0	n/a	n/a	n/a	n/a	n/a
3601878	RECOG_RESP	n/a	LTP098	ltpFR	4	5	1	BLANKET	135	1	n/a	0	n/a	n/a	n/a	n/a	n/a
3602337	RECOG_CONF	n/a	LTP098	ltpFR	4	5	1	BLANKET	135	n/a	5	0	n/a	n/a	n/a	n/a	n/a
3603827	RECOG_TARGET	n/a	LTP098	ltpFR	4	5	0	TEAPOT	1442	1	5	1	n/a	n/a	n/a	n/a	n/a
3606099	RECOG_RESP	n/a	LTP098	ltpFR	4	5	0	TEAPOT	1442	1	n/a	1	n/a	n/a	n/a	n/a	n/a
3606568	RECOG_CONF	n/a	LTP098	ltpFR	4	5	0	TEAPOT	1442	n/a	5	1	n/a	n/a	n/a	n/a	n/a
3608097	RECOG_TARGET	n/a	LTP098	ltpFR	4	5	-1	MINK	897	1	5	-1	n/a	n/a	n/a	n/a	n/a
3608793	RECOG_RESP	n/a	LTP098	ltpFR	4	5	-1	MINK	897	1	n/a	-1	n/a	n/a	n/a	n/a	n/a
3609282	RECOG_CONF	n/a	LTP098	ltpFR	4	5	-1	MINK	897	n/a	5	-1	n/a	n/a	n/a	n/a	n/a
3610760	RECOG_TARGET	n/a	LTP098	ltpFR	4	5	0	TICK	1463	1	5	0	n/a	n/a	n/a	n/a	n/a
3611332	RECOG_RESP	n/a	LTP098	ltpFR	4	5	0	TICK	1463	1	n/a	0	n/a	n/a	n/a	n/a	n/a
3611846	RECOG_CONF	n/a	LTP098	ltpFR	4	5	0	TICK	1463	n/a	5	0	n/a	n/a	n/a	n/a	n/a
3613273	RECOG_LURE	n/a	LTP098	ltpFR	4	5	n/a	RAT	1169	0	1	n/a	n/a	n/a	n/a	n/a	n/a
3614250	RECOG_RESP	n/a	LTP098	ltpFR	4	5	n/a	RAT	1169	0	n/a	n/a	n/a	n/a	n/a	n/a	n/a
3614779	RECOG_CONF	n/a	LTP098	ltpFR	4	5	n/a	RAT	1169	n/a	1	n/a	n/a	n/a	n/a	n/a	n/a
3619118	REC_START	n/a	LTP098	ltpFR	4	6	n/a	n/a	n/a	n/a	n/a	n/a	n/a	n/a	n/a	n/a	n/a
3619141	RECOG_TARGET	n/a	LTP098	ltpFR	4	6	-1	SHIP	1286	1	5	-1	n/a	n/a	n/a	n/a	n/a
3619861	RECOG_RESP	n/a	LTP098	ltpFR	4	6	-1	SHIP	1286	1	n/a	-1	n/a	n/a	n/a	n/a	n/a
3620370	RECOG_CONF	n/a	LTP098	ltpFR	4	6	-1	SHIP	1286	n/a	5	-1	n/a	n/a	n/a	n/a	n/a
3621756	RECOG_TARGET	n/a	LTP098	ltpFR	4	6	0	CELLAR	267	1	1	1	n/a	n/a	n/a	n/a	n/a
3623124	RECOG_RESP	n/a	LTP098	ltpFR	4	6	0	CELLAR	267	1	n/a	1	n/a	n/a	n/a	n/a	n/a
3623633	RECOG_CONF	n/a	LTP098	ltpFR	4	6	0	CELLAR	267	n/a	1	1	n/a	n/a	n/a	n/a	n/a
3625002	RECOG_LURE	n/a	LTP098	ltpFR	4	6	n/a	EMERALD	528	0	1	n/a	n/a	n/a	n/a	n/a	n/a
3625942	RECOG_RESP	n/a	LTP098	ltpFR	4	6	n/a	EMERALD	528	0	n/a	n/a	n/a	n/a	n/a	n/a	n/a
3626436	RECOG_CONF	n/a	LTP098	ltpFR	4	6	n/a	EMERALD	528	n/a	1	n/a	n/a	n/a	n/a	n/a	n/a
3627757	RECOG_LURE	n/a	LTP098	ltpFR	4	6	n/a	COOKBOOK	373	0	5	n/a	n/a	n/a	n/a	n/a	n/a
3628526	RECOG_RESP	n/a	LTP098	ltpFR	4	6	n/a	COOKBOOK	373	0	n/a	n/a	n/a	n/a	n/a	n/a	n/a
3628970	RECOG_CONF	n/a	LTP098	ltpFR	4	6	n/a	COOKBOOK	373	n/a	5	n/a	n/a	n/a	n/a	n/a	n/a
3630495	RECOG_TARGET	n/a	LTP098	ltpFR	4	6	1	FAUCET	555	1	5	0	n/a	n/a	n/a	n/a	n/a
3631220	RECOG_RESP	n/a	LTP098	ltpFR	4	6	1	FAUCET	555	1	n/a	0	n/a	n/a	n/a	n/a	n/a
3631714	RECOG_CONF	n/a	LTP098	ltpFR	4	6	1	FAUCET	555	n/a	5	0	n/a	n/a	n/a	n/a	n/a
3633183	RECOG_TARGET	n/a	LTP098	ltpFR	4	6	-1	PORT	1110	1	5	-1	n/a	n/a	n/a	n/a	n/a
3633770	RECOG_RESP	n/a	LTP098	ltpFR	4	6	-1	PORT	1110	1	n/a	-1	n/a	n/a	n/a	n/a	n/a
3634248	RECOG_CONF	n/a	LTP098	ltpFR	4	6	-1	PORT	1110	n/a	5	-1	n/a	n/a	n/a	n/a	n/a
3635831	RECOG_TARGET	n/a	LTP098	ltpFR	4	6	1	SHOE	1288	1	1	0	n/a	n/a	n/a	n/a	n/a
3636463	RECOG_RESP	n/a	LTP098	ltpFR	4	6	1	SHOE	1288	1	n/a	0	n/a	n/a	n/a	n/a	n/a
3636972	RECOG_CONF	n/a	LTP098	ltpFR	4	6	1	SHOE	1288	n/a	1	0	n/a	n/a	n/a	n/a	n/a
3638410	RECOG_TARGET	n/a	LTP098	ltpFR	4	6	-1	CHAMPAGNE	278	1	5	-1	n/a	n/a	n/a	n/a	n/a
3639167	RECOG_RESP	n/a	LTP098	ltpFR	4	6	-1	CHAMPAGNE	278	1	n/a	-1	n/a	n/a	n/a	n/a	n/a
3639626	RECOG_CONF	n/a	LTP098	ltpFR	4	6	-1	CHAMPAGNE	278	n/a	5	-1	n/a	n/a	n/a	n/a	n/a
3641149	RECOG_TARGET	n/a	LTP098	ltpFR	4	6	0	TERMITE	1451	1	5	0	n/a	n/a	n/a	n/a	n/a
3641951	RECOG_RESP	n/a	LTP098	ltpFR	4	6	0	TERMITE	1451	1	n/a	0	n/a	n/a	n/a	n/a	n/a
3642410	RECOG_CONF	n/a	LTP098	ltpFR	4	6	0	TERMITE	1451	n/a	5	0	n/a	n/a	n/a	n/a	n/a
3643838	RECOG_LURE	n/a	LTP098	ltpFR	4	6	n/a	BEETLE	116	1	1	n/a	n/a	n/a	n/a	n/a	n/a
3644311	RECOG_RESP	n/a	LTP098	ltpFR	4	6	n/a	BEETLE	116	1	n/a	n/a	n/a	n/a	n/a	n/a	n/a
3645303	RECOG_CONF	n/a	LTP098	ltpFR	4	6	n/a	BEETLE	116	n/a	1	n/a	n/a	n/a	n/a	n/a	n/a
3646868	RECOG_TARGET	n/a	LTP098	ltpFR	4	6	-1	COOLER	375	1	3	-1	n/a	n/a	n/a	n/a	n/a
3647882	RECOG_RESP	n/a	LTP098	ltpFR	4	6	-1	COOLER	375	1	n/a	-1	n/a	n/a	n/a	n/a	n/a
3648426	RECOG_CONF	n/a	LTP098	ltpFR	4	6	-1	COOLER	375	n/a	3	-1	n/a	n/a	n/a	n/a	n/a
3649757	RECOG_LURE	n/a	LTP098	ltpFR	4	6	n/a	PIGMENT	1066	0	4	n/a	n/a	n/a	n/a	n/a	n/a
3651095	RECOG_RESP	n/a	LTP098	ltpFR	4	6	n/a	PIGMENT	1066	0	n/a	n/a	n/a	n/a	n/a	n/a	n/a
3651609	RECOG_CONF	n/a	LTP098	ltpFR	4	6	n/a	PIGMENT	1066	n/a	4	n/a	n/a	n/a	n/a	n/a	n/a
3653136	RECOG_TARGET	n/a	LTP098	ltpFR	4	6	1	ASH	44	1	5	0	n/a	n/a	n/a	n/a	n/a
3653909	RECOG_RESP	n/a	LTP098	ltpFR	4	6	1	ASH	44	1	n/a	0	n/a	n/a	n/a	n/a	n/a
3654373	RECOG_CONF	n/a	LTP098	ltpFR	4	6	1	ASH	44	n/a	5	0	n/a	n/a	n/a	n/a	n/a
3655908	RECOG_TARGET	n/a	LTP098	ltpFR	4	6	1	BLUEPRINT	142	1	5	0	n/a	n/a	n/a	n/a	n/a
3656857	RECOG_RESP	n/a	LTP098	ltpFR	4	6	1	BLUEPRINT	142	1	n/a	0	n/a	n/a	n/a	n/a	n/a
3657306	RECOG_CONF	n/a	LTP098	ltpFR	4	6	1	BLUEPRINT	142	n/a	5	0	n/a	n/a	n/a	n/a	n/a
3658821	RECOG_TARGET	n/a	LTP098	ltpFR	4	6	0	LAWYER	806	1	1	1	n/a	n/a	n/a	n/a	n/a
3659351	RECOG_RESP	n/a	LTP098	ltpFR	4	6	0	LAWYER	806	1	n/a	1	n/a	n/a	n/a	n/a	n/a
3659940	RECOG_CONF	n/a	LTP098	ltpFR	4	6	0	LAWYER	806	n/a	1	1	n/a	n/a	n/a	n/a	n/a
3661275	RECOG_LURE	n/a	LTP098	ltpFR	4	6	n/a	GLOVE	642	1	1	n/a	n/a	n/a	n/a	n/a	n/a
3662365	RECOG_RESP	n/a	LTP098	ltpFR	4	6	n/a	GLOVE	642	1	n/a	n/a	n/a	n/a	n/a	n/a	n/a
3662953	RECOG_CONF	n/a	LTP098	ltpFR	4	6	n/a	GLOVE	642	n/a	1	n/a	n/a	n/a	n/a	n/a	n/a
3664388	RECOG_TARGET	n/a	LTP098	ltpFR	4	6	0	TRACTOR	1493	1	3	1	n/a	n/a	n/a	n/a	n/a
3665448	RECOG_RESP	n/a	LTP098	ltpFR	4	6	0	TRACTOR	1493	1	n/a	1	n/a	n/a	n/a	n/a	n/a
3665966	RECOG_CONF	n/a	LTP098	ltpFR	4	6	0	TRACTOR	1493	n/a	3	1	n/a	n/a	n/a	n/a	n/a
3667360	RECOG_LURE	n/a	LTP098	ltpFR	4	6	n/a	HEN	703	1	4	n/a	n/a	n/a	n/a	n/a	n/a
3667902	RECOG_RESP	n/a	LTP098	ltpFR	4	6	n/a	HEN	703	1	n/a	n/a	n/a	n/a	n/a	n/a	n/a
3668521	RECOG_CONF	n/a	LTP098	ltpFR	4	6	n/a	HEN	703	n/a	4	n/a	n/a	n/a	n/a	n/a	n/a
3669958	RECOG_LURE	n/a	LTP098	ltpFR	4	6	n/a	LION	827	0	5	n/a	n/a	n/a	n/a	n/a	n/a
3670820	RECOG_RESP	n/a	LTP098	ltpFR	4	6	n/a	LION	827	0	n/a	n/a	n/a	n/a	n/a	n/a	n/a
3671374	RECOG_CONF	n/a	LTP098	ltpFR	4	6	n/a	LION	827	n/a	5	n/a	n/a	n/a	n/a	n/a	n/a
3672796	RECOG_TARGET	n/a	LTP098	ltpFR	4	6	1	STALLION	1369	1	5	1	n/a	n/a	n/a	n/a	n/a
3673968	RECOG_RESP	n/a	LTP098	ltpFR	4	6	1	STALLION	1369	1	n/a	1	n/a	n/a	n/a	n/a	n/a
3674577	RECOG_CONF	n/a	LTP098	ltpFR	4	6	1	STALLION	1369	n/a	5	1	n/a	n/a	n/a	n/a	n/a
3678206	REC_START	n/a	LTP098	ltpFR	4	7	n/a	n/a	n/a	n/a	n/a	n/a	n/a	n/a	n/a	n/a	n/a
3678239	RECOG_LURE	n/a	LTP098	ltpFR	4	7	n/a	DOORBELL	487	0	1	n/a	n/a	n/a	n/a	n/a	n/a
3679204	RECOG_RESP	n/a	LTP098	ltpFR	4	7	n/a	DOORBELL	487	0	n/a	n/a	n/a	n/a	n/a	n/a	n/a
3679717	RECOG_CONF	n/a	LTP098	ltpFR	4	7	n/a	DOORBELL	487	n/a	1	n/a	n/a	n/a	n/a	n/a	n/a
3681186	RECOG_LURE	n/a	LTP098	ltpFR	4	7	n/a	VITAMIN	1574	0	1	n/a	n/a	n/a	n/a	n/a	n/a
3681997	RECOG_RESP	n/a	LTP098	ltpFR	4	7	n/a	VITAMIN	1574	0	n/a	n/a	n/a	n/a	n/a	n/a	n/a
3682561	RECOG_CONF	n/a	LTP098	ltpFR	4	7	n/a	VITAMIN	1574	n/a	1	n/a	n/a	n/a	n/a	n/a	n/a
3683867	RECOG_TARGET	n/a	LTP098	ltpFR	4	7	-1	SHEARS	1276	1	5	-1	n/a	n/a	n/a	n/a	n/a
3684506	RECOG_RESP	n/a	LTP098	ltpFR	4	7	-1	SHEARS	1276	1	n/a	-1	n/a	n/a	n/a	n/a	n/a
3684965	RECOG_CONF	n/a	LTP098	ltpFR	4	7	-1	SHEARS	1276	n/a	5	-1	n/a	n/a	n/a	n/a	n/a
3686479	RECOG_LURE	n/a	LTP098	ltpFR	4	7	n/a	SUPPER	1411	0	1	n/a	n/a	n/a	n/a	n/a	n/a
3687405	RECOG_RESP	n/a	LTP098	ltpFR	4	7	n/a	SUPPER	1411	0	n/a	n/a	n/a	n/a	n/a	n/a	n/a
3687929	RECOG_CONF	n/a	LTP098	ltpFR	4	7	n/a	SUPPER	1411	n/a	1	n/a	n/a	n/a	n/a	n/a	n/a
3689376	RECOG_LURE	n/a	LTP098	ltpFR	4	7	n/a	SERPENT	1270	0	1	n/a	n/a	n/a	n/a	n/a	n/a
3692653	RECOG_RESP	n/a	LTP098	ltpFR	4	7	n/a	SERPENT	1270	0	n/a	n/a	n/a	n/a	n/a	n/a	n/a
3693137	RECOG_CONF	n/a	LTP098	ltpFR	4	7	n/a	SERPENT	1270	n/a	1	n/a	n/a	n/a	n/a	n/a	n/a
3694553	RECOG_TARGET	n/a	LTP098	ltpFR	4	7	0	BISON	131	1	4	1	n/a	n/a	n/a	n/a	n/a
3695512	RECOG_RESP	n/a	LTP098	ltpFR	4	7	0	BISON	131	1	n/a	1	n/a	n/a	n/a	n/a	n/a
3696370	RECOG_CONF	n/a	LTP098	ltpFR	4	7	0	BISON	131	n/a	4	1	n/a	n/a	n/a	n/a	n/a
3697776	RECOG_TARGET	n/a	LTP098	ltpFR	4	7	0	FARMER	553	1	3	1	n/a	n/a	n/a	n/a	n/a
3698555	RECOG_RESP	n/a	LTP098	ltpFR	4	7	0	FARMER	553	1	n/a	1	n/a	n/a	n/a	n/a	n/a
3699113	RECOG_CONF	n/a	LTP098	ltpFR	4	7	0	FARMER	553	n/a	3	1	n/a	n/a	n/a	n/a	n/a
3700563	RECOG_LURE	n/a	LTP098	ltpFR	4	7	n/a	FIREPLACE	570	0	1	n/a	n/a	n/a	n/a	n/a	n/a
3701463	RECOG_RESP	n/a	LTP098	ltpFR	4	7	n/a	FIREPLACE	570	0	n/a	n/a	n/a	n/a	n/a	n/a	n/a
3701957	RECOG_CONF	n/a	LTP098	ltpFR	4	7	n/a	FIREPLACE	570	n/a	1	n/a	n/a	n/a	n/a	n/a	n/a
3703410	RECOG_TARGET	n/a	LTP098	ltpFR	4	7	0	CANDIDATE	228	1	5	1	n/a	n/a	n/a	n/a	n/a
3704351	RECOG_RESP	n/a	LTP098	ltpFR	4	7	0	CANDIDATE	228	1	n/a	1	n/a	n/a	n/a	n/a	n/a
3704930	RECOG_CONF	n/a	LTP098	ltpFR	4	7	0	CANDIDATE	228	n/a	5	1	n/a	n/a	n/a	n/a	n/a
3706273	RECOG_TARGET	n/a	LTP098	ltpFR	4	7	1	NITROGEN	954	1	5	0	n/a	n/a	n/a	n/a	n/a
3707040	RECOG_RESP	n/a	LTP098	ltpFR	4	7	1	NITROGEN	954	1	n/a	0	n/a	n/a	n/a	n/a	n/a
3707494	RECOG_CONF	n/a	LTP098	ltpFR	4	7	1	NITROGEN	954	n/a	5	0	n/a	n/a	n/a	n/a	n/a
3708963	RECOG_LURE	n/a	LTP098	ltpFR	4	7	n/a	SHAMPOO	1274	0	1	n/a	n/a	n/a	n/a	n/a	n/a
3709709	RECOG_RESP	n/a	LTP098	ltpFR	4	7	n/a	SHAMPOO	1274	0	n/a	n/a	n/a	n/a	n/a	n/a	n/a
3710178	RECOG_CONF	n/a	LTP098	ltpFR	4	7	n/a	SHAMPOO	1274	n/a	1	n/a	n/a	n/a	n/a	n/a	n/a
3711610	RECOG_LURE	n/a	LTP098	ltpFR	4	7	n/a	COCKTAIL	338	1	3	n/a	n/a	n/a	n/a	n/a	n/a
3713141	RECOG_RESP	n/a	LTP098	ltpFR	4	7	n/a	COCKTAIL	338	1	n/a	n/a	n/a	n/a	n/a	n/a	n/a
3713700	RECOG_CONF	n/a	LTP098	ltpFR	4	7	n/a	COCKTAIL	338	n/a	3	n/a	n/a	n/a	n/a	n/a	n/a
3715089	RECOG_TARGET	n/a	LTP098	ltpFR	4	7	0	NAVIGATOR	938	0	1	1	n/a	n/a	n/a	n/a	n/a
3716040	RECOG_RESP	n/a	LTP098	ltpFR	4	7	0	NAVIGATOR	938	0	n/a	1	n/a	n/a	n/a	n/a	n/a
3716564	RECOG_CONF	n/a	LTP098	ltpFR	4	7	0	NAVIGATOR	938	n/a	1	1	n/a	n/a	n/a	n/a	n/a
3717927	RECOG_TARGET	n/a	LTP098	ltpFR	4	7	0	OAR	966	1	5	1	n/a	n/a	n/a	n/a	n/a
3718744	RECOG_RESP	n/a	LTP098	ltpFR	4	7	0	OAR	966	1	n/a	1	n/a	n/a	n/a	n/a	n/a
3719317	RECOG_CONF	n/a	LTP098	ltpFR	4	7	0	OAR	966	n/a	5	1	n/a	n/a	n/a	n/a	n/a
3720657	RECOG_TARGET	n/a	LTP098	ltpFR	4	7	0	OBOE	969	1	2	0	n/a	n/a	n/a	n/a	n/a
3721408	RECOG_RESP	n/a	LTP098	ltpFR	4	7	0	OBOE	969	1	n/a	0	n/a	n/a	n/a	n/a	n/a
3722041	RECOG_CONF	n/a	LTP098	ltpFR	4	7	0	OBOE	969	n/a	2	0	n/a	n/a	n/a	n/a	n/a
3723461	RECOG_LURE	n/a	LTP098	ltpFR	4	7	n/a	DAGGER	434	0	5	n/a	n/a	n/a	n/a	n/a	n/a
3724176	RECOG_RESP	n/a	LTP098	ltpFR	4	7	n/a	DAGGER	434	0	n/a	n/a	n/a	n/a	n/a	n/a	n/a
3724685	RECOG_CONF	n/a	LTP098	ltpFR	4	7	n/a	DAGGER	434	n/a	5	n/a	n/a	n/a	n/a	n/a	n/a
3726150	RECOG_LURE	n/a	LTP098	ltpFR	4	7	n/a	THERMOMETER	1453	0	1	n/a	n/a	n/a	n/a	n/a	n/a
3727204	RECOG_RESP	n/a	LTP098	ltpFR	4	7	n/a	THERMOMETER	1453	0	n/a	n/a	n/a	n/a	n/a	n/a	n/a
3727738	RECOG_CONF	n/a	LTP098	ltpFR	4	7	n/a	THERMOMETER	1453	n/a	1	n/a	n/a	n/a	n/a	n/a	n/a
3729238	RECOG_TARGET	n/a	LTP098	ltpFR	4	7	-1	ROCKET	1202	1	5	-1	n/a	n/a	n/a	n/a	n/a
3729918	RECOG_RESP	n/a	LTP098	ltpFR	4	7	-1	ROCKET	1202	1	n/a	-1	n/a	n/a	n/a	n/a	n/a
3730322	RECOG_CONF	n/a	LTP098	ltpFR	4	7	-1	ROCKET	1202	n/a	5	-1	n/a	n/a	n/a	n/a	n/a
3731803	RECOG_LURE	n/a	LTP098	ltpFR	4	7	n/a	RUST	1219	0	1	n/a	n/a	n/a	n/a	n/a	n/a
3732707	RECOG_RESP	n/a	LTP098	ltpFR	4	7	n/a	RUST	1219	0	n/a	n/a	n/a	n/a	n/a	n/a	n/a
3733226	RECOG_CONF	n/a	LTP098	ltpFR	4	7	n/a	RUST	1219	n/a	1	n/a	n/a	n/a	n/a	n/a	n/a
3734591	RECOG_TARGET	n/a	LTP098	ltpFR	4	7	0	OYSTER	995	1	5	0	n/a	n/a	n/a	n/a	n/a
3735351	RECOG_RESP	n/a	LTP098	ltpFR	4	7	0	OYSTER	995	1	n/a	0	n/a	n/a	n/a	n/a	n/a
3735830	RECOG_CONF	n/a	LTP098	ltpFR	4	7	0	OYSTER	995	n/a	5	0	n/a	n/a	n/a	n/a	n/a
3739441	REC_START	n/a	LTP098	ltpFR	4	8	n/a	n/a	n/a	n/a	n/a	n/a	n/a	n/a	n/a	n/a	n/a
3739468	RECOG_TARGET	n/a	LTP098	ltpFR	4	8	1	FRAGRANCE	599	1	5	0	n/a	n/a	n/a	n/a	n/a
3740189	RECOG_RESP	n/a	LTP098	ltpFR	4	8	1	FRAGRANCE	599	1	n/a	0	n/a	n/a	n/a	n/a	n/a
3740663	RECOG_CONF	n/a	LTP098	ltpFR	4	8	1	FRAGRANCE	599	n/a	5	0	n/a	n/a	n/a	n/a	n/a
3742041	RECOG_LURE	n/a	LTP098	ltpFR	4	8	n/a	GLACIER	638	0	1	n/a	n/a	n/a	n/a	n/a	n/a
3742953	RECOG_RESP	n/a	LTP098	ltpFR	4	8	n/a	GLACIER	638	0	n/a	n/a	n/a	n/a	n/a	n/a	n/a
3743497	RECOG_CONF	n/a	LTP098	ltpFR	4	8	n/a	GLACIER	638	n/a	1	n/a	n/a	n/a	n/a	n/a	n/a
3744904	RECOG_LURE	n/a	LTP098	ltpFR	4	8	n/a	PERCH	1048	1	1	n/a	n/a	n/a	n/a	n/a	n/a
3746195	RECOG_RESP	n/a	LTP098	ltpFR	4	8	n/a	PERCH	1048	1	n/a	n/a	n/a	n/a	n/a	n/a	n/a
3746669	RECOG_CONF	n/a	LTP098	ltpFR	4	8	n/a	PERCH	1048	n/a	1	n/a	n/a	n/a	n/a	n/a	n/a
3748158	RECOG_LURE	n/a	LTP098	ltpFR	4	8	n/a	AIRPORT	13	0	1	n/a	n/a	n/a	n/a	n/a	n/a
3752436	RECOG_RESP	n/a	LTP098	ltpFR	4	8	n/a	AIRPORT	13	0	n/a	n/a	n/a	n/a	n/a	n/a	n/a
3753055	RECOG_CONF	n/a	LTP098	ltpFR	4	8	n/a	AIRPORT	13	n/a	1	n/a	n/a	n/a	n/a	n/a	n/a
3754509	RECOG_TARGET	n/a	LTP098	ltpFR	4	8	1	PREDATOR	1120	1	5	1	n/a	n/a	n/a	n/a	n/a
3755245	RECOG_RESP	n/a	LTP098	ltpFR	4	8	1	PREDATOR	1120	1	n/a	1	n/a	n/a	n/a	n/a	n/a
3755859	RECOG_CONF	n/a	LTP098	ltpFR	4	8	1	PREDATOR	1120	n/a	5	1	n/a	n/a	n/a	n/a	n/a
3757355	RECOG_TARGET	n/a	LTP098	ltpFR	4	8	1	WASP	1593	1	5	1	n/a	n/a	n/a	n/a	n/a
3757999	RECOG_RESP	n/a	LTP098	ltpFR	4	8	1	WASP	1593	1	n/a	1	n/a	n/a	n/a	n/a	n/a
3758580	RECOG_CONF	n/a	LTP098	ltpFR	4	8	1	WASP	1593	n/a	5	1	n/a	n/a	n/a	n/a	n/a
3759995	RECOG_TARGET	n/a	LTP098	ltpFR	4	8	-1	RAISIN	1163	1	5	-1	n/a	n/a	n/a	n/a	n/a
3760802	RECOG_RESP	n/a	LTP098	ltpFR	4	8	-1	RAISIN	1163	1	n/a	-1	n/a	n/a	n/a	n/a	n/a
3761376	RECOG_CONF	n/a	LTP098	ltpFR	4	8	-1	RAISIN	1163	n/a	5	-1	n/a	n/a	n/a	n/a	n/a
3762833	RECOG_LURE	n/a	LTP098	ltpFR	4	8	n/a	ACROBAT	4	0	1	n/a	n/a	n/a	n/a	n/a	n/a
3765127	RECOG_RESP	n/a	LTP098	ltpFR	4	8	n/a	ACROBAT	4	0	n/a	n/a	n/a	n/a	n/a	n/a	n/a
3765676	RECOG_CONF	n/a	LTP098	ltpFR	4	8	n/a	ACROBAT	4	n/a	1	n/a	n/a	n/a	n/a	n/a	n/a
3767120	RECOG_LURE	n/a	LTP098	ltpFR	4	8	n/a	PORCUPINE	1107	0	1	n/a	n/a	n/a	n/a	n/a	n/a
3768395	RECOG_RESP	n/a	LTP098	ltpFR	4	8	n/a	PORCUPINE	1107	0	n/a	n/a	n/a	n/a	n/a	n/a	n/a
3769148	RECOG_CONF	n/a	LTP098	ltpFR	4	8	n/a	PORCUPINE	1107	n/a	1	n/a	n/a	n/a	n/a	n/a	n/a
3770774	RECOG_LURE	n/a	LTP098	ltpFR	4	8	n/a	MAYONNAISE	880	0	1	n/a	n/a	n/a	n/a	n/a	n/a
3772406	RECOG_RESP	n/a	LTP098	ltpFR	4	8	n/a	MAYONNAISE	880	0	n/a	n/a	n/a	n/a	n/a	n/a	n/a
3772890	RECOG_CONF	n/a	LTP098	ltpFR	4	8	n/a	MAYONNAISE	880	n/a	1	n/a	n/a	n/a	n/a	n/a	n/a
3774377	RECOG_LURE	n/a	LTP098	ltpFR	4	8	n/a	PAPER	1011	0	1	n/a	n/a	n/a	n/a	n/a	n/a
3775200	RECOG_RESP	n/a	LTP098	ltpFR	4	8	n/a	PAPER	1011	0	n/a	n/a	n/a	n/a	n/a	n/a	n/a
3775773	RECOG_CONF	n/a	LTP098	ltpFR	4	8	n/a	PAPER	1011	n/a	1	n/a	n/a	n/a	n/a	n/a	n/a
3777157	RECOG_LURE	n/a	LTP098	ltpFR	4	8	n/a	TELESCOPE	1446	0	1	n/a	n/a	n/a	n/a	n/a	n/a
3777993	RECOG_RESP	n/a	LTP098	ltpFR	4	8	n/a	TELESCOPE	1446	0	n/a	n/a	n/a	n/a	n/a	n/a	n/a
3778597	RECOG_CONF	n/a	LTP098	ltpFR	4	8	n/a	TELESCOPE	1446	n/a	1	n/a	n/a	n/a	n/a	n/a	n/a
3780055	RECOG_TARGET	n/a	LTP098	ltpFR	4	8	1	CLAM	315	1	3	1	n/a	n/a	n/a	n/a	n/a
3782209	RECOG_RESP	n/a	LTP098	ltpFR	4	8	1	CLAM	315	1	n/a	1	n/a	n/a	n/a	n/a	n/a
3782917	RECOG_CONF	n/a	LTP098	ltpFR	4	8	1	CLAM	315	n/a	3	1	n/a	n/a	n/a	n/a	n/a
3784274	RECOG_TARGET	n/a	LTP098	ltpFR	4	8	1	STABLE	1363	1	5	0	n/a	n/a	n/a	n/a	n/a
3785052	RECOG_RESP	n/a	LTP098	ltpFR	4	8	1	STABLE	1363	1	n/a	0	n/a	n/a	n/a	n/a	n/a
3785558	RECOG_CONF	n/a	LTP098	ltpFR	4	8	1	STABLE	1363	n/a	5	0	n/a	n/a	n/a	n/a	n/a
3786905	RECOG_LURE	n/a	LTP098	ltpFR	4	8	n/a	RAZOR	1171	1	1	n/a	n/a	n/a	n/a	n/a	n/a
3787716	RECOG_RESP	n/a	LTP098	ltpFR	4	8	n/a	RAZOR	1171	1	n/a	n/a	n/a	n/a	n/a	n/a	n/a
3788195	RECOG_CONF	n/a	LTP098	ltpFR	4	8	n/a	RAZOR	1171	n/a	1	n/a	n/a	n/a	n/a	n/a	n/a
3789710	RECOG_LURE	n/a	LTP098	ltpFR	4	8	n/a	VEIN	1554	0	1	n/a	n/a	n/a	n/a	n/a	n/a
3790595	RECOG_RESP	n/a	LTP098	ltpFR	4	8	n/a	VEIN	1554	0	n/a	n/a	n/a	n/a	n/a	n/a	n/a
3791078	RECOG_CONF	n/a	LTP098	ltpFR	4	8	n/a	VEIN	1554	n/a	1	n/a	n/a	n/a	n/a	n/a	n/a
3792523	RECOG_TARGET	n/a	LTP098	ltpFR	4	8	0	WART	1590	1	5	0	n/a	n/a	n/a	n/a	n/a
3794047	RECOG_RESP	n/a	LTP098	ltpFR	4	8	0	WART	1590	1	n/a	0	n/a	n/a	n/a	n/a	n/a
3794590	RECOG_CONF	n/a	LTP098	ltpFR	4	8	0	WART	1590	n/a	5	0	n/a	n/a	n/a	n/a	n/a
3795986	RECOG_TARGET	n/a	LTP098	ltpFR	4	8	-1	VOLLEYBALL	1576	1	5	-1	n/a	n/a	n/a	n/a	n/a
3796716	RECOG_RESP	n/a	LTP098	ltpFR	4	8	-1	VOLLEYBALL	1576	1	n/a	-1	n/a	n/a	n/a	n/a	n/a
3797135	RECOG_CONF	n/a	LTP098	ltpFR	4	8	-1	VOLLEYBALL	1576	n/a	5	-1	n/a	n/a	n/a	n/a	n/a
3798633	RECOG_TARGET	n/a	LTP098	ltpFR	4	8	0	POLYESTER	1100	1	5	0	n/a	n/a	n/a	n/a	n/a
3799529	RECOG_RESP	n/a	LTP098	ltpFR	4	8	0	POLYESTER	1100	1	n/a	0	n/a	n/a	n/a	n/a	n/a
3799978	RECOG_CONF	n/a	LTP098	ltpFR	4	8	0	POLYESTER	1100	n/a	5	0	n/a	n/a	n/a	n/a	n/a
3801463	RECOG_LURE	n/a	LTP098	ltpFR	4	8	n/a	FOREHEAD	592	1	1	n/a	n/a	n/a	n/a	n/a	n/a
3803146	RECOG_RESP	n/a	LTP098	ltpFR	4	8	n/a	FOREHEAD	592	1	n/a	n/a	n/a	n/a	n/a	n/a	n/a
3803700	RECOG_CONF	n/a	LTP098	ltpFR	4	8	n/a	FOREHEAD	592	n/a	1	n/a	n/a	n/a	n/a	n/a	n/a
3818084	REC_START	n/a	LTP098	ltpFR	4	9	n/a	n/a	n/a	n/a	n/a	n/a	n/a	n/a	n/a	n/a	n/a
3818111	RECOG_TARGET	n/a	LTP098	ltpFR	4	9	-1	OCEAN	970	1	5	-1	n/a	n/a	n/a	n/a	n/a
3818877	RECOG_RESP	n/a	LTP098	ltpFR	4	9	-1	OCEAN	970	1	n/a	-1	n/a	n/a	n/a	n/a	n/a
3819436	RECOG_CONF	n/a	LTP098	ltpFR	4	9	-1	OCEAN	970	n/a	5	-1	n/a	n/a	n/a	n/a	n/a
3820758	RECOG_TARGET	n/a	LTP098	ltpFR	4	9	1	CALCULATOR	220	1	1	0	n/a	n/a	n/a	n/a	n/a
3821646	RECOG_RESP	n/a	LTP098	ltpFR	4	9	1	CALCULATOR	220	1	n/a	0	n/a	n/a	n/a	n/a	n/a
3822170	RECOG_CONF	n/a	LTP098	ltpFR	4	9	1	CALCULATOR	220	n/a	1	0	n/a	n/a	n/a	n/a	n/a
3823579	RECOG_LURE	n/a	LTP098	ltpFR	4	9	n/a	HORNET	718	1	1	n/a	n/a	n/a	n/a	n/a	n/a
3824609	RECOG_RESP	n/a	LTP098	ltpFR	4	9	n/a	HORNET	718	1	n/a	n/a	n/a	n/a	n/a	n/a	n/a
3825103	RECOG_CONF	n/a	LTP098	ltpFR	4	9	n/a	HORNET	718	n/a	1	n/a	n/a	n/a	n/a	n/a	n/a
3826584	RECOG_TARGET	n/a	LTP098	ltpFR	4	9	-1	BOTTLE	153	1	3	-1	n/a	n/a	n/a	n/a	n/a
3827373	RECOG_RESP	n/a	LTP098	ltpFR	4	9	-1	BOTTLE	153	1	n/a	-1	n/a	n/a	n/a	n/a	n/a
3827936	RECOG_CONF	n/a	LTP098	ltpFR	4	9	-1	BOTTLE	153	n/a	3	-1	n/a	n/a	n/a	n/a	n/a
3829363	RECOG_TARGET	n/a	LTP098	ltpFR	4	9	0	CARTON	251	1	1	1	n/a	n/a	n/a	n/a	n/a
3830116	RECOG_RESP	n/a	LTP098	ltpFR	4	9	0	CARTON	251	1	n/a	1	n/a	n/a	n/a	n/a	n/a
3830670	RECOG_CONF	n/a	LTP098	ltpFR	4	9	0	CARTON	251	n/a	1	1	n/a	n/a	n/a	n/a	n/a
3832020	RECOG_TARGET	n/a	LTP098	ltpFR	4	9	1	RULER	1216	1	5	0	n/a	n/a	n/a	n/a	n/a
3832711	RECOG_RESP	n/a	LTP098	ltpFR	4	9	1	RULER	1216	1	n/a	0	n/a	n/a	n/a	n/a	n/a
3833135	RECOG_CONF	n/a	LTP098	ltpFR	4	9	1	RULER	1216	n/a	5	0	n/a	n/a	n/a	n/a	n/a
3834658	RECOG_TARGET	n/a	LTP098	ltpFR	4	9	0	SHEET	1279	1	3	1	n/a	n/a	n/a	n/a	n/a
3835389	RECOG_RESP	n/a	LTP098	ltpFR	4	9	0	SHEET	1279	1	n/a	1	n/a	n/a	n/a	n/a	n/a
3835908	RECOG_CONF	n/a	LTP098	ltpFR	4	9	0	SHEET	1279	n/a	3	1	n/a	n/a	n/a	n/a	n/a
3837354	RECOG_TARGET	n/a	LTP098	ltpFR	4	9	0	DOLLAR	482	1	1	0	n/a	n/a	n/a	n/a	n/a
3840682	RECOG_RESP	n/a	LTP098	ltpFR	4	9	0	DOLLAR	482	1	n/a	0	n/a	n/a	n/a	n/a	n/a
3841715	RECOG_CONF	n/a	LTP098	ltpFR	4	9	0	DOLLAR	482	n/a	1	0	n/a	n/a	n/a	n/a	n/a
3843214	RECOG_TARGET	n/a	LTP098	ltpFR	4	9	0	ZOO	1637	1	1	1	n/a	n/a	n/a	n/a	n/a
3844673	RECOG_RESP	n/a	LTP098	ltpFR	4	9	0	ZOO	1637	1	n/a	1	n/a	n/a	n/a	n/a	n/a
3845237	RECOG_CONF	n/a	LTP098	ltpFR	4	9	0	ZOO	1637	n/a	1	1	n/a	n/a	n/a	n/a	n/a
3846636	RECOG_LURE	n/a	LTP098	ltpFR	4	9	n/a	TOENAIL	1474	1	1	n/a	n/a	n/a	n/a	n/a	n/a
3847377	RECOG_RESP	n/a	LTP098	ltpFR	4	9	n/a	TOENAIL	1474	1	n/a	n/a	n/a	n/a	n/a	n/a	n/a
3847931	RECOG_CONF	n/a	LTP098	ltpFR	4	9	n/a	TOENAIL	1474	n/a	1	n/a	n/a	n/a	n/a	n/a	n/a
3849299	RECOG_LURE	n/a	LTP098	ltpFR	4	9	n/a	DINNER	468	0	1	n/a	n/a	n/a	n/a	n/a	n/a
3850600	RECOG_RESP	n/a	LTP098	ltpFR	4	9	n/a	DINNER	468	0	n/a	n/a	n/a	n/a	n/a	n/a	n/a
3851111	RECOG_CONF	n/a	LTP098	ltpFR	4	9	n/a	DINNER	468	n/a	1	n/a	n/a	n/a	n/a	n/a	n/a
3852553	RECOG_LURE	n/a	LTP098	ltpFR	4	9	n/a	SAUSAGE	1238	0	1	n/a	n/a	n/a	n/a	n/a	n/a
3853753	RECOG_RESP	n/a	LTP098	ltpFR	4	9	n/a	SAUSAGE	1238	0	n/a	n/a	n/a	n/a	n/a	n/a	n/a
3854346	RECOG_CONF	n/a	LTP098	ltpFR	4	9	n/a	SAUSAGE	1238	n/a	1	n/a	n/a	n/a	n/a	n/a	n/a
3855625	RECOG_TARGET	n/a	LTP098	ltpFR	4	9	0	STY	1397	1	5	0	n/a	n/a	n/a	n/a	n/a
3856197	RECOG_RESP	n/a	LTP098	ltpFR	4	9	0	STY	1397	1	n/a	0	n/a	n/a	n/a	n/a	n/a
3856651	RECOG_CONF	n/a	LTP098	ltpFR	4	9	0	STY	1397	n/a	5	0	n/a	n/a	n/a	n/a	n/a
3858089	RECOG_LURE	n/a	LTP098	ltpFR	4	9	n/a	RING	1193	0	1	n/a	n/a	n/a	n/a	n/a	n/a
3859126	RECOG_RESP	n/a	LTP098	ltpFR	4	9	n/a	RING	1193	0	n/a	n/a	n/a	n/a	n/a	n/a	n/a
3859674	RECOG_CONF	n/a	LTP098	ltpFR	4	9	n/a	RING	1193	n/a	1	n/a	n/a	n/a	n/a	n/a	n/a
3861036	RECOG_TARGET	n/a	LTP098	ltpFR	4	9	1	LINT	826	1	5	0	n/a	n/a	n/a	n/a	n/a
3861570	RECOG_RESP	n/a	LTP098	ltpFR	4	9	1	LINT	826	1	n/a	0	n/a	n/a	n/a	n/a	n/a
3862039	RECOG_CONF	n/a	LTP098	ltpFR	4	9	1	LINT	826	n/a	5	0	n/a	n/a	n/a	n/a	n/a
3863507	RECOG_TARGET	n/a	LTP098	ltpFR	4	9	1	VINE	1568	1	5	1	n/a	n/a	n/a	n/a	n/a
3864613	RECOG_RESP	n/a	LTP098	ltpFR	4	9	1	VINE	1568	1	n/a	1	n/a	n/a	n/a	n/a	n/a
3865062	RECOG_CONF	n/a	LTP098	ltpFR	4	9	1	VINE	1568	n/a	5	1	n/a	n/a	n/a	n/a	n/a
3866604	RECOG_TARGET	n/a	LTP098	ltpFR	4	9	-1	BLACKBERRY	132	1	5	-1	n/a	n/a	n/a	n/a	n/a
3867307	RECOG_RESP	n/a	LTP098	ltpFR	4	9	-1	BLACKBERRY	132	1	n/a	-1	n/a	n/a	n/a	n/a	n/a
3867771	RECOG_CONF	n/a	LTP098	ltpFR	4	9	-1	BLACKBERRY	132	n/a	5	-1	n/a	n/a	n/a	n/a	n/a
3869309	RECOG_LURE	n/a	LTP098	ltpFR	4	9	n/a	SWIMMER	1420	1	1	n/a	n/a	n/a	n/a	n/a	n/a
3871882	RECOG_RESP	n/a	LTP098	ltpFR	4	9	n/a	SWIMMER	1420	1	n/a	n/a	n/a	n/a	n/a	n/a	n/a
