mstime	trial_type	stim_file	subject	experiment	session	trial	task	item_name	item_num	recog_resp	recog_conf	resp	color_r	color_g	color_b	case	font
0	SESS_START	n/a	LTP108	ltpFR	3	n/a	n/a	n/a	n/a	0	5	n/a	n/a	n/a	n/a	n/a	n/a
58078	WORD	wordpools/wasnorm_wordpool.txt	LTP108	ltpFR	3	1	0	LINT	826	0	n/a	0	0.422607421875	0.5869140625	0	lower	zerothre.ttf
62085	WORD	wordpools/wasnorm_wordpool.txt	LTP108	ltpFR	3	1	0	CRICKET	408	n/a	n/a	0	0.422607421875	0.5869140625	0	lower	zerothre.ttf
66108	WORD	wordpools/wasnorm_wordpool.txt	LTP108	ltpFR	3	1	1	BEETLE	116	n/a	n/a	1	0.57763671875	0.412841796875	1	upper	amplitud.ttf
69957	WORD	wordpools/wasnorm_wordpool.txt	LTP108	ltpFR	3	1	1	VEAL	1551	n/a	n/a	1	0.57763671875	0.412841796875	1	upper	amplitud.ttf
73797	WORD	wordpools/wasnorm_wordpool.txt	LTP108	ltpFR	3	1	1	GOAT	644	n/a	n/a	1	0.57763671875	0.412841796875	1	upper	amplitud.ttf
77829	WORD	wordpools/wasnorm_wordpool.txt	LTP108	ltpFR	3	1	0	PILLOW	1069	n/a	n/a	1	0.422607421875	0.5869140625	0	lower	zerothre.ttf
81994	WORD	wordpools/wasnorm_wordpool.txt	LTP108	ltpFR	3	1	0	BURGLAR	200	n/a	n/a	1	0.422607421875	0.5869140625	0	lower	zerothre.ttf
86084	WORD	wordpools/wasnorm_wordpool.txt	LTP108	ltpFR	3	1	0	CITIZEN	312	n/a	n/a	1	0.422607421875	0.5869140625	0	lower	zerothre.ttf
90141	WORD	wordpools/wasnorm_wordpool.txt	LTP108	ltpFR	3	1	0	TOURIST	1488	n/a	n/a	1	0.422607421875	0.5869140625	0	lower	zerothre.ttf
94057	WORD	wordpools/wasnorm_wordpool.txt	LTP108	ltpFR	3	1	0	GRASSHOPPER	656	n/a	n/a	0	0.422607421875	0.5869140625	0	lower	zerothre.ttf
97930	WORD	wordpools/wasnorm_wordpool.txt	LTP108	ltpFR	3	1	0	CORAL	378	n/a	n/a	1	0.422607421875	0.5869140625	0	lower	zerothre.ttf
101987	WORD	wordpools/wasnorm_wordpool.txt	LTP108	ltpFR	3	1	1	SEA	1259	n/a	n/a	0	0.57763671875	0.412841796875	1	upper	amplitud.ttf
105811	WORD	wordpools/wasnorm_wordpool.txt	LTP108	ltpFR	3	1	1	BUREAU	199	n/a	n/a	0	0.57763671875	0.412841796875	1	upper	amplitud.ttf
109659	WORD	wordpools/wasnorm_wordpool.txt	LTP108	ltpFR	3	1	1	BRIEFCASE	175	n/a	n/a	0	0.57763671875	0.412841796875	1	upper	amplitud.ttf
113541	WORD	wordpools/wasnorm_wordpool.txt	LTP108	ltpFR	3	1	1	WAGON	1578	n/a	n/a	0	0.57763671875	0.412841796875	1	upper	amplitud.ttf
117498	WORD	wordpools/wasnorm_wordpool.txt	LTP108	ltpFR	3	1	1	RADIATOR	1156	n/a	n/a	0	0.57763671875	0.412841796875	1	upper	amplitud.ttf
123497	REC_START	n/a	LTP108	ltpFR	3	1	n/a	n/a	n/a	n/a	n/a	n/a	n/a	n/a	n/a	n/a	n/a
124704	REC_WORD	wordpools/wasnorm_wordpool.txt	LTP108	ltpFR	3	1	1	RADIATOR	1156	n/a	n/a	0	n/a	n/a	n/a	n/a	n/a
125687	REC_WORD	wordpools/wasnorm_wordpool.txt	LTP108	ltpFR	3	1	1	WAGON	1578	n/a	n/a	0	n/a	n/a	n/a	n/a	n/a
126590	REC_WORD	wordpools/wasnorm_wordpool.txt	LTP108	ltpFR	3	1	1	BUREAU	199	n/a	n/a	0	n/a	n/a	n/a	n/a	n/a
127752	REC_WORD	wordpools/wasnorm_wordpool.txt	LTP108	ltpFR	3	1	0	PILLOW	1069	n/a	n/a	1	n/a	n/a	n/a	n/a	n/a
128560	REC_WORD	wordpools/wasnorm_wordpool.txt	LTP108	ltpFR	3	1	1	VEAL	1551	n/a	n/a	1	n/a	n/a	n/a	n/a	n/a
129289	REC_WORD	wordpools/wasnorm_wordpool.txt	LTP108	ltpFR	3	1	0	LINT	826	n/a	n/a	0	n/a	n/a	n/a	n/a	n/a
132092	REC_WORD	wordpools/wasnorm_wordpool.txt	LTP108	ltpFR	3	1	0	GRASSHOPPER	656	n/a	n/a	0	n/a	n/a	n/a	n/a	n/a
133798	REC_WORD	wordpools/wasnorm_wordpool.txt	LTP108	ltpFR	3	1	0	BURGLAR	200	n/a	n/a	1	n/a	n/a	n/a	n/a	n/a
134307	REC_WORD	wordpools/wasnorm_wordpool.txt	LTP108	ltpFR	3	1	0	CITIZEN	312	n/a	n/a	1	n/a	n/a	n/a	n/a	n/a
151663	REC_WORD	wordpools/wasnorm_wordpool.txt	LTP108	ltpFR	3	1	1	BRIEFCASE	175	n/a	n/a	0	n/a	n/a	n/a	n/a	n/a
196850	REC_WORD	wordpools/wasnorm_wordpool.txt	LTP108	ltpFR	3	1	0	TOURIST	1488	n/a	n/a	1	n/a	n/a	n/a	n/a	n/a
205517	WORD	wordpools/wasnorm_wordpool.txt	LTP108	ltpFR	3	2	1	LODGE	839	n/a	n/a	0	0.57763671875	0.412841796875	1	upper	amplitud.ttf
209699	WORD	wordpools/wasnorm_wordpool.txt	LTP108	ltpFR	3	2	1	STATUE	1374	n/a	n/a	0	0.57763671875	0.412841796875	1	upper	amplitud.ttf
213514	WORD	wordpools/wasnorm_wordpool.txt	LTP108	ltpFR	3	2	1	LUNG	850	n/a	n/a	1	0.57763671875	0.412841796875	1	upper	amplitud.ttf
217413	WORD	wordpools/wasnorm_wordpool.txt	LTP108	ltpFR	3	2	1	SAGE	1222	n/a	n/a	1	0.57763671875	0.412841796875	1	upper	amplitud.ttf
221503	WORD	wordpools/wasnorm_wordpool.txt	LTP108	ltpFR	3	2	0	PEDESTRIAN	1038	n/a	n/a	0	0.422607421875	0.5869140625	0	lower	zerothre.ttf
225602	WORD	wordpools/wasnorm_wordpool.txt	LTP108	ltpFR	3	2	0	PEOPLE	1046	n/a	n/a	0	0.422607421875	0.5869140625	0	lower	zerothre.ttf
229658	WORD	wordpools/wasnorm_wordpool.txt	LTP108	ltpFR	3	2	0	MARBLE	867	n/a	n/a	0	0.422607421875	0.5869140625	0	lower	zerothre.ttf
233682	WORD	wordpools/wasnorm_wordpool.txt	LTP108	ltpFR	3	2	0	QUAIL	1147	n/a	n/a	0	0.422607421875	0.5869140625	0	lower	zerothre.ttf
237622	WORD	wordpools/wasnorm_wordpool.txt	LTP108	ltpFR	3	2	1	SALT	1229	n/a	n/a	0	0.57763671875	0.412841796875	1	upper	amplitud.ttf
241588	WORD	wordpools/wasnorm_wordpool.txt	LTP108	ltpFR	3	2	1	DRIVEWAY	500	n/a	n/a	0	0.57763671875	0.412841796875	1	upper	amplitud.ttf
245619	WORD	wordpools/wasnorm_wordpool.txt	LTP108	ltpFR	3	2	1	BATTERY	101	n/a	n/a	0	0.57763671875	0.412841796875	1	upper	amplitud.ttf
249818	WORD	wordpools/wasnorm_wordpool.txt	LTP108	ltpFR	3	2	1	PUDDLE	1140	n/a	n/a	0	0.57763671875	0.412841796875	1	upper	amplitud.ttf
253683	WORD	wordpools/wasnorm_wordpool.txt	LTP108	ltpFR	3	2	0	PERCH	1048	n/a	n/a	1	0.422607421875	0.5869140625	0	lower	zerothre.ttf
257682	WORD	wordpools/wasnorm_wordpool.txt	LTP108	ltpFR	3	2	0	CROCODILE	411	n/a	n/a	1	0.422607421875	0.5869140625	0	lower	zerothre.ttf
261589	WORD	wordpools/wasnorm_wordpool.txt	LTP108	ltpFR	3	2	0	BUFFALO	186	n/a	n/a	1	0.422607421875	0.5869140625	0	lower	zerothre.ttf
265779	WORD	wordpools/wasnorm_wordpool.txt	LTP108	ltpFR	3	2	0	PASSAGE	1019	n/a	n/a	0	0.422607421875	0.5869140625	0	lower	zerothre.ttf
271469	REC_START	n/a	LTP108	ltpFR	3	2	n/a	n/a	n/a	n/a	n/a	n/a	n/a	n/a	n/a	n/a	n/a
272347	REC_WORD	wordpools/wasnorm_wordpool.txt	LTP108	ltpFR	3	2	0	PASSAGE	1019	n/a	n/a	0	n/a	n/a	n/a	n/a	n/a
273225	REC_WORD	wordpools/wasnorm_wordpool.txt	LTP108	ltpFR	3	2	0	CROCODILE	411	n/a	n/a	1	n/a	n/a	n/a	n/a	n/a
276872	REC_WORD	wordpools/wasnorm_wordpool.txt	LTP108	ltpFR	3	2	1	LODGE	839	n/a	n/a	0	n/a	n/a	n/a	n/a	n/a
277455	REC_WORD	wordpools/wasnorm_wordpool.txt	LTP108	ltpFR	3	2	1	STATUE	1374	n/a	n/a	0	n/a	n/a	n/a	n/a	n/a
280733	REC_WORD	wordpools/wasnorm_wordpool.txt	LTP108	ltpFR	3	2	1	PUDDLE	1140	n/a	n/a	0	n/a	n/a	n/a	n/a	n/a
296517	REC_WORD	wordpools/wasnorm_wordpool.txt	LTP108	ltpFR	3	2	1	DRIVEWAY	500	n/a	n/a	0	n/a	n/a	n/a	n/a	n/a
306015	REC_WORD	wordpools/wasnorm_wordpool.txt	LTP108	ltpFR	3	2	0	PASSAGE	1019	n/a	n/a	0	n/a	n/a	n/a	n/a	n/a
352173	WORD	wordpools/wasnorm_wordpool.txt	LTP108	ltpFR	3	3	1	OBOE	969	n/a	n/a	0	0.57763671875	0.412841796875	1	upper	amplitud.ttf
356080	WORD	wordpools/wasnorm_wordpool.txt	LTP108	ltpFR	3	3	1	TAPE	1433	n/a	n/a	0	0.57763671875	0.412841796875	1	upper	amplitud.ttf
360212	WORD	wordpools/wasnorm_wordpool.txt	LTP108	ltpFR	3	3	1	SATURN	1236	n/a	n/a	0	0.57763671875	0.412841796875	1	upper	amplitud.ttf
364219	WORD	wordpools/wasnorm_wordpool.txt	LTP108	ltpFR	3	3	1	POLICE	1098	n/a	n/a	1	0.57763671875	0.412841796875	1	upper	amplitud.ttf
368101	WORD	wordpools/wasnorm_wordpool.txt	LTP108	ltpFR	3	3	1	SUSPECT	1415	n/a	n/a	1	0.57763671875	0.412841796875	1	upper	amplitud.ttf
372058	WORD	wordpools/wasnorm_wordpool.txt	LTP108	ltpFR	3	3	1	PREDATOR	1120	n/a	n/a	1	0.57763671875	0.412841796875	1	upper	amplitud.ttf
376115	WORD	wordpools/wasnorm_wordpool.txt	LTP108	ltpFR	3	3	1	BISON	131	n/a	n/a	1	0.57763671875	0.412841796875	1	upper	amplitud.ttf
380305	WORD	wordpools/wasnorm_wordpool.txt	LTP108	ltpFR	3	3	1	POLYESTER	1100	n/a	n/a	0	0.57763671875	0.412841796875	1	upper	amplitud.ttf
384428	WORD	wordpools/wasnorm_wordpool.txt	LTP108	ltpFR	3	3	1	BUYER	208	n/a	n/a	1	0.57763671875	0.412841796875	1	upper	amplitud.ttf
388519	WORD	wordpools/wasnorm_wordpool.txt	LTP108	ltpFR	3	3	1	DETECTIVE	454	n/a	n/a	1	0.57763671875	0.412841796875	1	upper	amplitud.ttf
392492	WORD	wordpools/wasnorm_wordpool.txt	LTP108	ltpFR	3	3	1	BUILDER	190	n/a	n/a	1	0.57763671875	0.412841796875	1	upper	amplitud.ttf
396583	WORD	wordpools/wasnorm_wordpool.txt	LTP108	ltpFR	3	3	1	PATIO	1025	n/a	n/a	0	0.57763671875	0.412841796875	1	upper	amplitud.ttf
400606	WORD	wordpools/wasnorm_wordpool.txt	LTP108	ltpFR	3	3	1	BARK	87	n/a	n/a	0	0.57763671875	0.412841796875	1	upper	amplitud.ttf
404630	WORD	wordpools/wasnorm_wordpool.txt	LTP108	ltpFR	3	3	1	NEPTUNE	943	n/a	n/a	0	0.57763671875	0.412841796875	1	upper	amplitud.ttf
408512	WORD	wordpools/wasnorm_wordpool.txt	LTP108	ltpFR	3	3	1	SKULL	1320	n/a	n/a	0	0.57763671875	0.412841796875	1	upper	amplitud.ttf
412393	WORD	wordpools/wasnorm_wordpool.txt	LTP108	ltpFR	3	3	1	DOG	480	n/a	n/a	1	0.57763671875	0.412841796875	1	upper	amplitud.ttf
418267	REC_START	n/a	LTP108	ltpFR	3	3	n/a	n/a	n/a	n/a	n/a	n/a	n/a	n/a	n/a	n/a	n/a
418985	REC_WORD	wordpools/wasnorm_wordpool.txt	LTP108	ltpFR	3	3	1	DOG	480	n/a	n/a	1	n/a	n/a	n/a	n/a	n/a
419664	REC_WORD	wordpools/wasnorm_wordpool.txt	LTP108	ltpFR	3	3	1	NEPTUNE	943	n/a	n/a	0	n/a	n/a	n/a	n/a	n/a
420572	REC_WORD	wordpools/wasnorm_wordpool.txt	LTP108	ltpFR	3	3	1	SATURN	1236	n/a	n/a	0	n/a	n/a	n/a	n/a	n/a
421669	REC_WORD	wordpools/wasnorm_wordpool.txt	LTP108	ltpFR	3	3	1	PREDATOR	1120	n/a	n/a	1	n/a	n/a	n/a	n/a	n/a
424483	REC_WORD	wordpools/wasnorm_wordpool.txt	LTP108	ltpFR	3	3	1	BISON	131	n/a	n/a	1	n/a	n/a	n/a	n/a	n/a
425405	REC_WORD	wordpools/wasnorm_wordpool.txt	LTP108	ltpFR	3	3	1	SKULL	1320	n/a	n/a	0	n/a	n/a	n/a	n/a	n/a
457358	REC_WORD	wordpools/wasnorm_wordpool.txt	LTP108	ltpFR	3	3	1	POLICE	1098	n/a	n/a	1	n/a	n/a	n/a	n/a	n/a
458610	REC_WORD	wordpools/wasnorm_wordpool.txt	LTP108	ltpFR	3	3	1	BUILDER	190	n/a	n/a	1	n/a	n/a	n/a	n/a	n/a
460251	REC_WORD	wordpools/wasnorm_wordpool.txt	LTP108	ltpFR	3	3	1	SUSPECT	1415	n/a	n/a	1	n/a	n/a	n/a	n/a	n/a
489216	REC_WORD	wordpools/wasnorm_wordpool.txt	LTP108	ltpFR	3	3	1	BARK	87	n/a	n/a	0	n/a	n/a	n/a	n/a	n/a
498763	WORD	wordpools/wasnorm_wordpool.txt	LTP108	ltpFR	3	4	1	PRUNE	1134	n/a	n/a	0	0.57763671875	0.412841796875	1	upper	amplitud.ttf
502770	WORD	wordpools/wasnorm_wordpool.txt	LTP108	ltpFR	3	4	1	RASPBERRY	1168	n/a	n/a	1	0.57763671875	0.412841796875	1	upper	amplitud.ttf
506835	WORD	wordpools/wasnorm_wordpool.txt	LTP108	ltpFR	3	4	1	PREACHER	1119	n/a	n/a	1	0.57763671875	0.412841796875	1	upper	amplitud.ttf
510875	WORD	wordpools/wasnorm_wordpool.txt	LTP108	ltpFR	3	4	1	DRILL	497	n/a	n/a	0	0.57763671875	0.412841796875	1	upper	amplitud.ttf
514974	WORD	wordpools/wasnorm_wordpool.txt	LTP108	ltpFR	3	4	1	PELICAN	1039	n/a	n/a	1	0.57763671875	0.412841796875	1	upper	amplitud.ttf
518906	WORD	wordpools/wasnorm_wordpool.txt	LTP108	ltpFR	3	4	1	SQUIRREL	1362	n/a	n/a	1	0.57763671875	0.412841796875	1	upper	amplitud.ttf
523038	WORD	wordpools/wasnorm_wordpool.txt	LTP108	ltpFR	3	4	1	CAGE	218	n/a	n/a	0	0.57763671875	0.412841796875	1	upper	amplitud.ttf
527186	WORD	wordpools/wasnorm_wordpool.txt	LTP108	ltpFR	3	4	1	WINGS	1614	n/a	n/a	1	0.57763671875	0.412841796875	1	upper	amplitud.ttf
531368	WORD	wordpools/wasnorm_wordpool.txt	LTP108	ltpFR	3	4	1	CANDIDATE	228	n/a	n/a	1	0.57763671875	0.412841796875	1	upper	amplitud.ttf
535200	WORD	wordpools/wasnorm_wordpool.txt	LTP108	ltpFR	3	4	1	LENS	811	n/a	n/a	0	0.57763671875	0.412841796875	1	upper	amplitud.ttf
539190	WORD	wordpools/wasnorm_wordpool.txt	LTP108	ltpFR	3	4	1	FLESH	579	n/a	n/a	0	0.57763671875	0.412841796875	1	upper	amplitud.ttf
543339	WORD	wordpools/wasnorm_wordpool.txt	LTP108	ltpFR	3	4	1	VELVET	1555	n/a	n/a	0	0.57763671875	0.412841796875	1	upper	amplitud.ttf
547221	WORD	wordpools/wasnorm_wordpool.txt	LTP108	ltpFR	3	4	1	GENERAL	630	n/a	n/a	1	0.57763671875	0.412841796875	1	upper	amplitud.ttf
551194	WORD	wordpools/wasnorm_wordpool.txt	LTP108	ltpFR	3	4	1	BUGLE	189	n/a	n/a	1	0.57763671875	0.412841796875	1	upper	amplitud.ttf
555101	WORD	wordpools/wasnorm_wordpool.txt	LTP108	ltpFR	3	4	1	SPARROW	1347	n/a	n/a	1	0.57763671875	0.412841796875	1	upper	amplitud.ttf
559125	WORD	wordpools/wasnorm_wordpool.txt	LTP108	ltpFR	3	4	1	NOSE	957	n/a	n/a	0	0.57763671875	0.412841796875	1	upper	amplitud.ttf
564915	REC_START	n/a	LTP108	ltpFR	3	4	n/a	n/a	n/a	n/a	n/a	n/a	n/a	n/a	n/a	n/a	n/a
565468	REC_WORD	wordpools/wasnorm_wordpool.txt	LTP108	ltpFR	3	4	1	NOSE	957	n/a	n/a	0	n/a	n/a	n/a	n/a	n/a
566107	REC_WORD	wordpools/wasnorm_wordpool.txt	LTP108	ltpFR	3	4	1	PELICAN	1039	n/a	n/a	1	n/a	n/a	n/a	n/a	n/a
567130	REC_WORD	wordpools/wasnorm_wordpool.txt	LTP108	ltpFR	3	4	1	CAGE	218	n/a	n/a	0	n/a	n/a	n/a	n/a	n/a
567863	REC_WORD	wordpools/wasnorm_wordpool.txt	LTP108	ltpFR	3	4	1	WINGS	1614	n/a	n/a	1	n/a	n/a	n/a	n/a	n/a
568486	REC_WORD	wordpools/wasnorm_wordpool.txt	LTP108	ltpFR	3	4	1	SQUIRREL	1362	n/a	n/a	1	n/a	n/a	n/a	n/a	n/a
572527	REC_WORD	wordpools/wasnorm_wordpool.txt	LTP108	ltpFR	3	4	1	SPARROW	1347	n/a	n/a	1	n/a	n/a	n/a	n/a	n/a
593056	REC_WORD	wordpools/wasnorm_wordpool.txt	LTP108	ltpFR	3	4	1	PREACHER	1119	n/a	n/a	1	n/a	n/a	n/a	n/a	n/a
597206	REC_WORD	wordpools/wasnorm_wordpool.txt	LTP108	ltpFR	3	4	1	PRUNE	1134	n/a	n/a	0	n/a	n/a	n/a	n/a	n/a
657823	WORD	wordpools/wasnorm_wordpool.txt	LTP108	ltpFR	3	5	-1	TURKEY	1520	n/a	n/a	-1	1.0	1.0	1	upper	Verdana.ttf
661663	WORD	wordpools/wasnorm_wordpool.txt	LTP108	ltpFR	3	5	-1	ITEM	746	n/a	n/a	-1	1.0	1.0	1	upper	Verdana.ttf
665762	WORD	wordpools/wasnorm_wordpool.txt	LTP108	ltpFR	3	5	-1	THREAD	1460	n/a	n/a	-1	1.0	1.0	1	upper	Verdana.ttf
669827	WORD	wordpools/wasnorm_wordpool.txt	LTP108	ltpFR	3	5	-1	THORN	1459	n/a	n/a	-1	1.0	1.0	1	upper	Verdana.ttf
673659	WORD	wordpools/wasnorm_wordpool.txt	LTP108	ltpFR	3	5	-1	RACK	1154	n/a	n/a	-1	1.0	1.0	1	upper	Verdana.ttf
677791	WORD	wordpools/wasnorm_wordpool.txt	LTP108	ltpFR	3	5	-1	CUBE	420	n/a	n/a	-1	1.0	1.0	1	upper	Verdana.ttf
681764	WORD	wordpools/wasnorm_wordpool.txt	LTP108	ltpFR	3	5	-1	CHAMPAGNE	278	n/a	n/a	-1	1.0	1.0	1	upper	Verdana.ttf
685805	WORD	wordpools/wasnorm_wordpool.txt	LTP108	ltpFR	3	5	-1	RADISH	1158	n/a	n/a	-1	1.0	1.0	1	upper	Verdana.ttf
689653	WORD	wordpools/wasnorm_wordpool.txt	LTP108	ltpFR	3	5	-1	FIG	563	n/a	n/a	-1	1.0	1.0	1	upper	Verdana.ttf
693627	WORD	wordpools/wasnorm_wordpool.txt	LTP108	ltpFR	3	5	-1	PEACH	1031	n/a	n/a	-1	1.0	1.0	1	upper	Verdana.ttf
697634	WORD	wordpools/wasnorm_wordpool.txt	LTP108	ltpFR	3	5	-1	PEPPER	1047	n/a	n/a	-1	1.0	1.0	1	upper	Verdana.ttf
701841	WORD	wordpools/wasnorm_wordpool.txt	LTP108	ltpFR	3	5	-1	APPLE	33	n/a	n/a	-1	1.0	1.0	1	upper	Verdana.ttf
705856	WORD	wordpools/wasnorm_wordpool.txt	LTP108	ltpFR	3	5	-1	FEAST	556	n/a	n/a	-1	1.0	1.0	1	upper	Verdana.ttf
709879	WORD	wordpools/wasnorm_wordpool.txt	LTP108	ltpFR	3	5	-1	DRAWER	493	n/a	n/a	-1	1.0	1.0	1	upper	Verdana.ttf
713753	WORD	wordpools/wasnorm_wordpool.txt	LTP108	ltpFR	3	5	-1	LIME	823	n/a	n/a	-1	1.0	1.0	1	upper	Verdana.ttf
717693	WORD	wordpools/wasnorm_wordpool.txt	LTP108	ltpFR	3	5	-1	TART	1436	n/a	n/a	-1	1.0	1.0	1	upper	Verdana.ttf
723425	REC_START	n/a	LTP108	ltpFR	3	5	n/a	n/a	n/a	n/a	n/a	n/a	n/a	n/a	n/a	n/a	n/a
724437	REC_WORD	wordpools/wasnorm_wordpool.txt	LTP108	ltpFR	3	5	-1	LIME	823	n/a	n/a	-1	n/a	n/a	n/a	n/a	n/a
725176	REC_WORD	wordpools/wasnorm_wordpool.txt	LTP108	ltpFR	3	5	-1	TART	1436	n/a	n/a	-1	n/a	n/a	n/a	n/a	n/a
725765	REC_WORD	wordpools/wasnorm_wordpool.txt	LTP108	ltpFR	3	5	-1	DRAWER	493	n/a	n/a	-1	n/a	n/a	n/a	n/a	n/a
726388	REC_WORD	wordpools/wasnorm_wordpool.txt	LTP108	ltpFR	3	5	-1	TURKEY	1520	n/a	n/a	-1	n/a	n/a	n/a	n/a	n/a
727221	REC_WORD	wordpools/wasnorm_wordpool.txt	LTP108	ltpFR	3	5	1	PRUNE	1134	n/a	n/a	0	n/a	n/a	n/a	n/a	n/a
736660	REC_WORD	wordpools/wasnorm_wordpool.txt	LTP108	ltpFR	3	5	-1	PEACH	1031	n/a	n/a	-1	n/a	n/a	n/a	n/a	n/a
763554	REC_WORD	wordpools/wasnorm_wordpool.txt	LTP108	ltpFR	3	5	-1	CHAMPAGNE	278	n/a	n/a	-1	n/a	n/a	n/a	n/a	n/a
772668	REC_WORD	wordpools/wasnorm_wordpool.txt	LTP108	ltpFR	3	5	-1	FIG	563	n/a	n/a	-1	n/a	n/a	n/a	n/a	n/a
802888	WORD	wordpools/wasnorm_wordpool.txt	LTP108	ltpFR	3	6	1	POSSUM	1112	n/a	n/a	1	0.57763671875	0.412841796875	1	upper	amplitud.ttf
806770	WORD	wordpools/wasnorm_wordpool.txt	LTP108	ltpFR	3	6	1	GLASSES	640	n/a	n/a	0	0.57763671875	0.412841796875	1	upper	amplitud.ttf
810710	WORD	wordpools/wasnorm_wordpool.txt	LTP108	ltpFR	3	6	1	POWDER	1117	n/a	n/a	0	0.57763671875	0.412841796875	1	upper	amplitud.ttf
814776	WORD	wordpools/wasnorm_wordpool.txt	LTP108	ltpFR	3	6	0	CANDY	230	n/a	n/a	0	0.422607421875	0.5869140625	0	lower	zerothre.ttf
818982	WORD	wordpools/wasnorm_wordpool.txt	LTP108	ltpFR	3	6	0	FACE	547	n/a	n/a	0	0.422607421875	0.5869140625	0	lower	zerothre.ttf
823098	WORD	wordpools/wasnorm_wordpool.txt	LTP108	ltpFR	3	6	1	UNIFORM	1539	n/a	n/a	0	0.57763671875	0.412841796875	1	upper	amplitud.ttf
827138	WORD	wordpools/wasnorm_wordpool.txt	LTP108	ltpFR	3	6	1	ATTIRE	57	n/a	n/a	0	0.57763671875	0.412841796875	1	upper	amplitud.ttf
831128	WORD	wordpools/wasnorm_wordpool.txt	LTP108	ltpFR	3	6	1	CIRCUS	311	n/a	n/a	0	0.57763671875	0.412841796875	1	upper	amplitud.ttf
834993	WORD	wordpools/wasnorm_wordpool.txt	LTP108	ltpFR	3	6	0	LIGHTER	819	n/a	n/a	0	0.422607421875	0.5869140625	0	lower	zerothre.ttf
838817	WORD	wordpools/wasnorm_wordpool.txt	LTP108	ltpFR	3	6	0	GULL	671	n/a	n/a	1	0.422607421875	0.5869140625	0	lower	zerothre.ttf
842774	WORD	wordpools/wasnorm_wordpool.txt	LTP108	ltpFR	3	6	0	CROW	414	n/a	n/a	1	0.422607421875	0.5869140625	0	lower	zerothre.ttf
846872	WORD	wordpools/wasnorm_wordpool.txt	LTP108	ltpFR	3	6	0	SEAL	1262	n/a	n/a	1	0.422607421875	0.5869140625	0	lower	zerothre.ttf
850904	WORD	wordpools/wasnorm_wordpool.txt	LTP108	ltpFR	3	6	0	FRECKLE	602	n/a	n/a	0	0.422607421875	0.5869140625	0	lower	zerothre.ttf
855070	WORD	wordpools/wasnorm_wordpool.txt	LTP108	ltpFR	3	6	0	CARROT	249	n/a	n/a	0	0.422607421875	0.5869140625	0	lower	zerothre.ttf
859260	WORD	wordpools/wasnorm_wordpool.txt	LTP108	ltpFR	3	6	1	LEMON	810	n/a	n/a	1	0.57763671875	0.412841796875	1	upper	amplitud.ttf
863250	WORD	wordpools/wasnorm_wordpool.txt	LTP108	ltpFR	3	6	1	FOX	598	n/a	n/a	1	0.57763671875	0.412841796875	1	upper	amplitud.ttf
869165	REC_START	n/a	LTP108	ltpFR	3	6	n/a	n/a	n/a	n/a	n/a	n/a	n/a	n/a	n/a	n/a	n/a
869978	REC_WORD	wordpools/wasnorm_wordpool.txt	LTP108	ltpFR	3	6	1	FOX	598	n/a	n/a	1	n/a	n/a	n/a	n/a	n/a
870756	REC_WORD	wordpools/wasnorm_wordpool.txt	LTP108	ltpFR	3	6	1	LEMON	810	n/a	n/a	1	n/a	n/a	n/a	n/a	n/a
871400	REC_WORD	wordpools/wasnorm_wordpool.txt	LTP108	ltpFR	3	6	0	LIGHTER	819	n/a	n/a	0	n/a	n/a	n/a	n/a	n/a
872477	REC_WORD	wordpools/wasnorm_wordpool.txt	LTP108	ltpFR	3	6	0	CROW	414	n/a	n/a	1	n/a	n/a	n/a	n/a	n/a
896089	REC_WORD	wordpools/wasnorm_wordpool.txt	LTP108	ltpFR	3	6	1	UNIFORM	1539	n/a	n/a	0	n/a	n/a	n/a	n/a	n/a
896862	REC_WORD	wordpools/wasnorm_wordpool.txt	LTP108	ltpFR	3	6	1	ATTIRE	57	n/a	n/a	0	n/a	n/a	n/a	n/a	n/a
929323	REC_WORD	wordpools/wasnorm_wordpool.txt	LTP108	ltpFR	3	6	1	POSSUM	1112	n/a	n/a	1	n/a	n/a	n/a	n/a	n/a
952243	WORD	wordpools/wasnorm_wordpool.txt	LTP108	ltpFR	3	7	0	FIELD	562	n/a	n/a	1	0.422607421875	0.5869140625	0	lower	zerothre.ttf
956433	WORD	wordpools/wasnorm_wordpool.txt	LTP108	ltpFR	3	7	0	MOUSE	925	n/a	n/a	0	0.422607421875	0.5869140625	0	lower	zerothre.ttf
960449	WORD	wordpools/wasnorm_wordpool.txt	LTP108	ltpFR	3	7	0	TRIBE	1505	n/a	n/a	1	0.422607421875	0.5869140625	0	lower	zerothre.ttf
964564	WORD	wordpools/wasnorm_wordpool.txt	LTP108	ltpFR	3	7	0	COW	393	n/a	n/a	1	0.422607421875	0.5869140625	0	lower	zerothre.ttf
968671	WORD	wordpools/wasnorm_wordpool.txt	LTP108	ltpFR	3	7	0	BAG	69	n/a	n/a	0	0.422607421875	0.5869140625	0	lower	zerothre.ttf
972878	WORD	wordpools/wasnorm_wordpool.txt	LTP108	ltpFR	3	7	1	LEOPARD	812	n/a	n/a	1	0.57763671875	0.412841796875	1	upper	amplitud.ttf
976751	WORD	wordpools/wasnorm_wordpool.txt	LTP108	ltpFR	3	7	1	BROOM	178	n/a	n/a	0	0.57763671875	0.412841796875	1	upper	amplitud.ttf
980658	WORD	wordpools/wasnorm_wordpool.txt	LTP108	ltpFR	3	7	1	DIRT	472	n/a	n/a	0	0.57763671875	0.412841796875	1	upper	amplitud.ttf
984757	WORD	wordpools/wasnorm_wordpool.txt	LTP108	ltpFR	3	7	1	CAVITY	264	n/a	n/a	0	0.57763671875	0.412841796875	1	upper	amplitud.ttf
988739	WORD	wordpools/wasnorm_wordpool.txt	LTP108	ltpFR	3	7	0	ACID	2	n/a	n/a	0	0.422607421875	0.5869140625	0	lower	zerothre.ttf
992895	WORD	wordpools/wasnorm_wordpool.txt	LTP108	ltpFR	3	7	0	FRUIT	610	n/a	n/a	0	0.422607421875	0.5869140625	0	lower	zerothre.ttf
996727	WORD	wordpools/wasnorm_wordpool.txt	LTP108	ltpFR	3	7	0	BERRY	122	n/a	n/a	0	0.422607421875	0.5869140625	0	lower	zerothre.ttf
1000601	WORD	wordpools/wasnorm_wordpool.txt	LTP108	ltpFR	3	7	1	BAIT	70	n/a	n/a	0	0.57763671875	0.412841796875	1	upper	amplitud.ttf
1004525	WORD	wordpools/wasnorm_wordpool.txt	LTP108	ltpFR	3	7	1	OCTOPUS	971	n/a	n/a	1	0.57763671875	0.412841796875	1	upper	amplitud.ttf
1008732	WORD	wordpools/wasnorm_wordpool.txt	LTP108	ltpFR	3	7	1	SACK	1220	n/a	n/a	0	0.57763671875	0.412841796875	1	upper	amplitud.ttf
1012772	WORD	wordpools/wasnorm_wordpool.txt	LTP108	ltpFR	3	7	1	CAP	236	n/a	n/a	0	0.57763671875	0.412841796875	1	upper	amplitud.ttf
1018837	REC_START	n/a	LTP108	ltpFR	3	7	n/a	n/a	n/a	n/a	n/a	n/a	n/a	n/a	n/a	n/a	n/a
1020014	REC_WORD	wordpools/wasnorm_wordpool.txt	LTP108	ltpFR	3	7	1	CAP	236	n/a	n/a	0	n/a	n/a	n/a	n/a	n/a
1020613	REC_WORD	wordpools/wasnorm_wordpool.txt	LTP108	ltpFR	3	7	1	SACK	1220	n/a	n/a	0	n/a	n/a	n/a	n/a	n/a
1021316	REC_WORD	wordpools/wasnorm_wordpool.txt	LTP108	ltpFR	3	7	0	BAG	69	n/a	n/a	0	n/a	n/a	n/a	n/a	n/a
1021830	REC_WORD	wordpools/wasnorm_wordpool.txt	LTP108	ltpFR	3	7	1	OCTOPUS	971	n/a	n/a	1	n/a	n/a	n/a	n/a	n/a
1022823	REC_WORD	wordpools/wasnorm_wordpool.txt	LTP108	ltpFR	3	7	1	BAIT	70	n/a	n/a	0	n/a	n/a	n/a	n/a	n/a
1026254	REC_WORD_VV	wordpools/wasnorm_wordpool.txt	LTP108	ltpFR	3	7	n/a	<>	-1	n/a	n/a	n/a	n/a	n/a	n/a	n/a	n/a
1027190	REC_WORD	wordpools/wasnorm_wordpool.txt	LTP108	ltpFR	3	7	0	FIELD	562	n/a	n/a	1	n/a	n/a	n/a	n/a	n/a
1028041	REC_WORD	wordpools/wasnorm_wordpool.txt	LTP108	ltpFR	3	7	0	MOUSE	925	n/a	n/a	0	n/a	n/a	n/a	n/a	n/a
1033798	REC_WORD	wordpools/wasnorm_wordpool.txt	LTP108	ltpFR	3	7	0	ACID	2	n/a	n/a	0	n/a	n/a	n/a	n/a	n/a
1077069	REC_WORD	wordpools/wasnorm_wordpool.txt	LTP108	ltpFR	3	7	0	FRUIT	610	n/a	n/a	0	n/a	n/a	n/a	n/a	n/a
1082078	REC_WORD	wordpools/wasnorm_wordpool.txt	LTP108	ltpFR	3	7	0	BERRY	122	n/a	n/a	0	n/a	n/a	n/a	n/a	n/a
1082587	REC_WORD	wordpools/wasnorm_wordpool.txt	LTP108	ltpFR	3	7	1	RASPBERRY	1168	n/a	n/a	1	n/a	n/a	n/a	n/a	n/a
1098966	WORD	wordpools/wasnorm_wordpool.txt	LTP108	ltpFR	3	8	-1	MATCH	878	n/a	n/a	-1	1.0	1.0	1	upper	Verdana.ttf
1102890	WORD	wordpools/wasnorm_wordpool.txt	LTP108	ltpFR	3	8	-1	COOLER	375	n/a	n/a	-1	1.0	1.0	1	upper	Verdana.ttf
1106755	WORD	wordpools/wasnorm_wordpool.txt	LTP108	ltpFR	3	8	-1	BARREL	91	n/a	n/a	-1	1.0	1.0	1	upper	Verdana.ttf
1110929	WORD	wordpools/wasnorm_wordpool.txt	LTP108	ltpFR	3	8	-1	BEAN	105	n/a	n/a	-1	1.0	1.0	1	upper	Verdana.ttf
1114819	WORD	wordpools/wasnorm_wordpool.txt	LTP108	ltpFR	3	8	-1	COLESLAW	344	n/a	n/a	-1	1.0	1.0	1	upper	Verdana.ttf
1118667	WORD	wordpools/wasnorm_wordpool.txt	LTP108	ltpFR	3	8	-1	NECK	939	n/a	n/a	-1	1.0	1.0	1	upper	Verdana.ttf
1122524	WORD	wordpools/wasnorm_wordpool.txt	LTP108	ltpFR	3	8	-1	TEA	1439	n/a	n/a	-1	1.0	1.0	1	upper	Verdana.ttf
1126456	WORD	wordpools/wasnorm_wordpool.txt	LTP108	ltpFR	3	8	-1	FLASHLIGHT	575	n/a	n/a	-1	1.0	1.0	1	upper	Verdana.ttf
1130581	WORD	wordpools/wasnorm_wordpool.txt	LTP108	ltpFR	3	8	-1	SALAD	1224	n/a	n/a	-1	1.0	1.0	1	upper	Verdana.ttf
1134445	WORD	wordpools/wasnorm_wordpool.txt	LTP108	ltpFR	3	8	-1	REBEL	1172	n/a	n/a	-1	1.0	1.0	1	upper	Verdana.ttf
1138344	WORD	wordpools/wasnorm_wordpool.txt	LTP108	ltpFR	3	8	-1	PIANO	1057	n/a	n/a	-1	1.0	1.0	1	upper	Verdana.ttf
1142417	WORD	wordpools/wasnorm_wordpool.txt	LTP108	ltpFR	3	8	-1	DIRECTOR	471	n/a	n/a	-1	1.0	1.0	1	upper	Verdana.ttf
1146341	WORD	wordpools/wasnorm_wordpool.txt	LTP108	ltpFR	3	8	-1	GHETTO	633	n/a	n/a	-1	1.0	1.0	1	upper	Verdana.ttf
1150348	WORD	wordpools/wasnorm_wordpool.txt	LTP108	ltpFR	3	8	-1	TAG	1429	n/a	n/a	-1	1.0	1.0	1	upper	Verdana.ttf
1154538	WORD	wordpools/wasnorm_wordpool.txt	LTP108	ltpFR	3	8	-1	NEST	945	n/a	n/a	-1	1.0	1.0	1	upper	Verdana.ttf
1158470	WORD	wordpools/wasnorm_wordpool.txt	LTP108	ltpFR	3	8	-1	HAWK	692	n/a	n/a	-1	1.0	1.0	1	upper	Verdana.ttf
1164152	REC_START	n/a	LTP108	ltpFR	3	8	n/a	n/a	n/a	n/a	n/a	n/a	n/a	n/a	n/a	n/a	n/a
1164631	REC_WORD	wordpools/wasnorm_wordpool.txt	LTP108	ltpFR	3	8	-1	HAWK	692	n/a	n/a	-1	n/a	n/a	n/a	n/a	n/a
1165354	REC_WORD	wordpools/wasnorm_wordpool.txt	LTP108	ltpFR	3	8	-1	NEST	945	n/a	n/a	-1	n/a	n/a	n/a	n/a	n/a
1166137	REC_WORD	wordpools/wasnorm_wordpool.txt	LTP108	ltpFR	3	8	n/a	ACTOR	5	n/a	n/a	n/a	n/a	n/a	n/a	n/a	n/a
1166711	REC_WORD	wordpools/wasnorm_wordpool.txt	LTP108	ltpFR	3	8	-1	PIANO	1057	n/a	n/a	-1	n/a	n/a	n/a	n/a	n/a
1184022	REC_WORD	wordpools/wasnorm_wordpool.txt	LTP108	ltpFR	3	8	-1	COLESLAW	344	n/a	n/a	-1	n/a	n/a	n/a	n/a	n/a
1246155	WORD	wordpools/wasnorm_wordpool.txt	LTP108	ltpFR	3	9	-1	JUVENILE	767	n/a	n/a	-1	1.0	1.0	1	upper	Verdana.ttf
1250137	WORD	wordpools/wasnorm_wordpool.txt	LTP108	ltpFR	3	9	-1	CANAL	226	n/a	n/a	-1	1.0	1.0	1	upper	Verdana.ttf
1254086	WORD	wordpools/wasnorm_wordpool.txt	LTP108	ltpFR	3	9	-1	DEPARTMENT	449	n/a	n/a	-1	1.0	1.0	1	upper	Verdana.ttf
1258068	WORD	wordpools/wasnorm_wordpool.txt	LTP108	ltpFR	3	9	-1	OUTLAW	989	n/a	n/a	-1	1.0	1.0	1	upper	Verdana.ttf
1261950	WORD	wordpools/wasnorm_wordpool.txt	LTP108	ltpFR	3	9	-1	THIEF	1456	n/a	n/a	-1	1.0	1.0	1	upper	Verdana.ttf
1265982	WORD	wordpools/wasnorm_wordpool.txt	LTP108	ltpFR	3	9	-1	XEROX	1628	n/a	n/a	-1	1.0	1.0	1	upper	Verdana.ttf
1270022	WORD	wordpools/wasnorm_wordpool.txt	LTP108	ltpFR	3	9	-1	BROTHER	179	n/a	n/a	-1	1.0	1.0	1	upper	Verdana.ttf
1273987	WORD	wordpools/wasnorm_wordpool.txt	LTP108	ltpFR	3	9	-1	BABY	64	n/a	n/a	-1	1.0	1.0	1	upper	Verdana.ttf
1278119	WORD	wordpools/wasnorm_wordpool.txt	LTP108	ltpFR	3	9	-1	SURF	1412	n/a	n/a	-1	1.0	1.0	1	upper	Verdana.ttf
1282118	WORD	wordpools/wasnorm_wordpool.txt	LTP108	ltpFR	3	9	-1	DISHWASHER	475	n/a	n/a	-1	1.0	1.0	1	upper	Verdana.ttf
1286274	WORD	wordpools/wasnorm_wordpool.txt	LTP108	ltpFR	3	9	-1	STEM	1376	n/a	n/a	-1	1.0	1.0	1	upper	Verdana.ttf
1290090	WORD	wordpools/wasnorm_wordpool.txt	LTP108	ltpFR	3	9	-1	CREAM	402	n/a	n/a	-1	1.0	1.0	1	upper	Verdana.ttf
1294197	WORD	wordpools/wasnorm_wordpool.txt	LTP108	ltpFR	3	9	-1	MOVIE	927	n/a	n/a	-1	1.0	1.0	1	upper	Verdana.ttf
1298037	WORD	wordpools/wasnorm_wordpool.txt	LTP108	ltpFR	3	9	-1	ACTRESS	6	n/a	n/a	-1	1.0	1.0	1	upper	Verdana.ttf
1302094	WORD	wordpools/wasnorm_wordpool.txt	LTP108	ltpFR	3	9	-1	MACHINE	852	n/a	n/a	-1	1.0	1.0	1	upper	Verdana.ttf
1305917	WORD	wordpools/wasnorm_wordpool.txt	LTP108	ltpFR	3	9	-1	WATERFALL	1595	n/a	n/a	-1	1.0	1.0	1	upper	Verdana.ttf
1311833	REC_START	n/a	LTP108	ltpFR	3	9	n/a	n/a	n/a	n/a	n/a	n/a	n/a	n/a	n/a	n/a	n/a
1312241	REC_WORD_VV	wordpools/wasnorm_wordpool.txt	LTP108	ltpFR	3	9	n/a	<>	-1	n/a	n/a	n/a	n/a	n/a	n/a	n/a	n/a
1313260	REC_WORD	wordpools/wasnorm_wordpool.txt	LTP108	ltpFR	3	9	-1	MOVIE	927	n/a	n/a	-1	n/a	n/a	n/a	n/a	n/a
1313792	REC_WORD	wordpools/wasnorm_wordpool.txt	LTP108	ltpFR	3	9	-1	ACTRESS	6	n/a	n/a	-1	n/a	n/a	n/a	n/a	n/a
1314432	REC_WORD	wordpools/wasnorm_wordpool.txt	LTP108	ltpFR	3	9	-1	MACHINE	852	n/a	n/a	-1	n/a	n/a	n/a	n/a	n/a
1315140	REC_WORD	wordpools/wasnorm_wordpool.txt	LTP108	ltpFR	3	9	-1	WATERFALL	1595	n/a	n/a	-1	n/a	n/a	n/a	n/a	n/a
1316098	REC_WORD	wordpools/wasnorm_wordpool.txt	LTP108	ltpFR	3	9	-1	BABY	64	n/a	n/a	-1	n/a	n/a	n/a	n/a	n/a
1320029	REC_WORD	wordpools/wasnorm_wordpool.txt	LTP108	ltpFR	3	9	-1	THIEF	1456	n/a	n/a	-1	n/a	n/a	n/a	n/a	n/a
1322109	REC_WORD	wordpools/wasnorm_wordpool.txt	LTP108	ltpFR	3	9	-1	DISHWASHER	475	n/a	n/a	-1	n/a	n/a	n/a	n/a	n/a
1327607	REC_WORD	wordpools/wasnorm_wordpool.txt	LTP108	ltpFR	3	9	-1	CANAL	226	n/a	n/a	-1	n/a	n/a	n/a	n/a	n/a
1328415	REC_WORD	wordpools/wasnorm_wordpool.txt	LTP108	ltpFR	3	9	-1	DEPARTMENT	449	n/a	n/a	-1	n/a	n/a	n/a	n/a	n/a
1329153	REC_WORD	wordpools/wasnorm_wordpool.txt	LTP108	ltpFR	3	9	-1	JUVENILE	767	n/a	n/a	-1	n/a	n/a	n/a	n/a	n/a
1331957	REC_WORD	wordpools/wasnorm_wordpool.txt	LTP108	ltpFR	3	9	-1	OUTLAW	989	n/a	n/a	-1	n/a	n/a	n/a	n/a	n/a
1334611	REC_WORD	wordpools/wasnorm_wordpool.txt	LTP108	ltpFR	3	9	-1	BROTHER	179	n/a	n/a	-1	n/a	n/a	n/a	n/a	n/a
1404599	WORD	wordpools/wasnorm_wordpool.txt	LTP108	ltpFR	3	10	-1	KIDNEY	776	n/a	n/a	-1	1.0	1.0	1	upper	Verdana.ttf
1408598	WORD	wordpools/wasnorm_wordpool.txt	LTP108	ltpFR	3	10	-1	ULCER	1533	n/a	n/a	-1	1.0	1.0	1	upper	Verdana.ttf
1412580	WORD	wordpools/wasnorm_wordpool.txt	LTP108	ltpFR	3	10	-1	DRIVER	499	n/a	n/a	-1	1.0	1.0	1	upper	Verdana.ttf
1416561	WORD	wordpools/wasnorm_wordpool.txt	LTP108	ltpFR	3	10	-1	PEAR	1033	n/a	n/a	-1	1.0	1.0	1	upper	Verdana.ttf
1420660	WORD	wordpools/wasnorm_wordpool.txt	LTP108	ltpFR	3	10	-1	TOOL	1480	n/a	n/a	-1	1.0	1.0	1	upper	Verdana.ttf
1424534	WORD	wordpools/wasnorm_wordpool.txt	LTP108	ltpFR	3	10	-1	NURSERY	964	n/a	n/a	-1	1.0	1.0	1	upper	Verdana.ttf
1428632	WORD	wordpools/wasnorm_wordpool.txt	LTP108	ltpFR	3	10	-1	GANGSTER	620	n/a	n/a	-1	1.0	1.0	1	upper	Verdana.ttf
1432589	WORD	wordpools/wasnorm_wordpool.txt	LTP108	ltpFR	3	10	-1	RIFLE	1192	n/a	n/a	-1	1.0	1.0	1	upper	Verdana.ttf
1436613	WORD	wordpools/wasnorm_wordpool.txt	LTP108	ltpFR	3	10	-1	PARROT	1015	n/a	n/a	-1	1.0	1.0	1	upper	Verdana.ttf
1440761	WORD	wordpools/wasnorm_wordpool.txt	LTP108	ltpFR	3	10	-1	SWORD	1423	n/a	n/a	-1	1.0	1.0	1	upper	Verdana.ttf
1444651	WORD	wordpools/wasnorm_wordpool.txt	LTP108	ltpFR	3	10	-1	SNEAKER	1334	n/a	n/a	-1	1.0	1.0	1	upper	Verdana.ttf
1448608	WORD	wordpools/wasnorm_wordpool.txt	LTP108	ltpFR	3	10	-1	MARKER	870	n/a	n/a	-1	1.0	1.0	1	upper	Verdana.ttf
1452583	WORD	wordpools/wasnorm_wordpool.txt	LTP108	ltpFR	3	10	-1	PENCIL	1042	n/a	n/a	-1	1.0	1.0	1	upper	Verdana.ttf
1456439	WORD	wordpools/wasnorm_wordpool.txt	LTP108	ltpFR	3	10	-1	BLADE	134	n/a	n/a	-1	1.0	1.0	1	upper	Verdana.ttf
1460580	WORD	wordpools/wasnorm_wordpool.txt	LTP108	ltpFR	3	10	-1	CONSOLE	364	n/a	n/a	-1	1.0	1.0	1	upper	Verdana.ttf
1464744	WORD	wordpools/wasnorm_wordpool.txt	LTP108	ltpFR	3	10	-1	STRING	1394	n/a	n/a	-1	1.0	1.0	1	upper	Verdana.ttf
1470343	REC_START	n/a	LTP108	ltpFR	3	10	n/a	n/a	n/a	n/a	n/a	n/a	n/a	n/a	n/a	n/a	n/a
1471201	REC_WORD	wordpools/wasnorm_wordpool.txt	LTP108	ltpFR	3	10	-1	STRING	1394	n/a	n/a	-1	n/a	n/a	n/a	n/a	n/a
1471979	REC_WORD	wordpools/wasnorm_wordpool.txt	LTP108	ltpFR	3	10	-1	MARKER	870	n/a	n/a	-1	n/a	n/a	n/a	n/a	n/a
1472538	REC_WORD	wordpools/wasnorm_wordpool.txt	LTP108	ltpFR	3	10	-1	PENCIL	1042	n/a	n/a	-1	n/a	n/a	n/a	n/a	n/a
1473236	REC_WORD	wordpools/wasnorm_wordpool.txt	LTP108	ltpFR	3	10	-1	NURSERY	964	n/a	n/a	-1	n/a	n/a	n/a	n/a	n/a
1474164	REC_WORD	wordpools/wasnorm_wordpool.txt	LTP108	ltpFR	3	10	-1	TOOL	1480	n/a	n/a	-1	n/a	n/a	n/a	n/a	n/a
1474747	REC_WORD	wordpools/wasnorm_wordpool.txt	LTP108	ltpFR	3	10	-1	THIEF	1456	n/a	n/a	-1	n/a	n/a	n/a	n/a	n/a
1475501	REC_WORD	wordpools/wasnorm_wordpool.txt	LTP108	ltpFR	3	10	-1	SWORD	1423	n/a	n/a	-1	n/a	n/a	n/a	n/a	n/a
1482565	REC_WORD	wordpools/wasnorm_wordpool.txt	LTP108	ltpFR	3	10	-1	DRIVER	499	n/a	n/a	-1	n/a	n/a	n/a	n/a	n/a
1483288	REC_WORD	wordpools/wasnorm_wordpool.txt	LTP108	ltpFR	3	10	-1	KIDNEY	776	n/a	n/a	-1	n/a	n/a	n/a	n/a	n/a
1485304	REC_WORD	wordpools/wasnorm_wordpool.txt	LTP108	ltpFR	3	10	-1	ULCER	1533	n/a	n/a	-1	n/a	n/a	n/a	n/a	n/a
1498579	REC_WORD	wordpools/wasnorm_wordpool.txt	LTP108	ltpFR	3	10	-1	PARROT	1015	n/a	n/a	-1	n/a	n/a	n/a	n/a	n/a
1551588	WORD	wordpools/wasnorm_wordpool.txt	LTP108	ltpFR	3	11	1	ATTORNEY	58	n/a	n/a	0	0.57763671875	0.412841796875	1	upper	amplitud.ttf
1555479	WORD	wordpools/wasnorm_wordpool.txt	LTP108	ltpFR	3	11	1	SADDLE	1221	n/a	n/a	0	0.57763671875	0.412841796875	1	upper	amplitud.ttf
1559561	WORD	wordpools/wasnorm_wordpool.txt	LTP108	ltpFR	3	11	1	COLT	349	n/a	n/a	1	0.57763671875	0.412841796875	1	upper	amplitud.ttf
1563559	WORD	wordpools/wasnorm_wordpool.txt	LTP108	ltpFR	3	11	1	APARTMENT	30	n/a	n/a	0	0.57763671875	0.412841796875	1	upper	amplitud.ttf
1567733	WORD	wordpools/wasnorm_wordpool.txt	LTP108	ltpFR	3	11	1	DEPUTY	450	n/a	n/a	1	0.57763671875	0.412841796875	1	upper	amplitud.ttf
1571706	WORD	wordpools/wasnorm_wordpool.txt	LTP108	ltpFR	3	11	1	STEAM	1375	n/a	n/a	0	0.57763671875	0.412841796875	1	upper	amplitud.ttf
1575871	WORD	wordpools/wasnorm_wordpool.txt	LTP108	ltpFR	3	11	1	HOSE	720	n/a	n/a	0	0.57763671875	0.412841796875	1	upper	amplitud.ttf
1580028	WORD	wordpools/wasnorm_wordpool.txt	LTP108	ltpFR	3	11	1	FOE	587	n/a	n/a	0	0.57763671875	0.412841796875	1	upper	amplitud.ttf
1584027	WORD	wordpools/wasnorm_wordpool.txt	LTP108	ltpFR	3	11	1	DOLL	481	n/a	n/a	0	0.57763671875	0.412841796875	1	upper	amplitud.ttf
1587984	WORD	wordpools/wasnorm_wordpool.txt	LTP108	ltpFR	3	11	1	TRENCH	1503	n/a	n/a	0	0.57763671875	0.412841796875	1	upper	amplitud.ttf
1592032	WORD	wordpools/wasnorm_wordpool.txt	LTP108	ltpFR	3	11	1	CARDINAL	244	n/a	n/a	0	0.57763671875	0.412841796875	1	upper	amplitud.ttf
1596097	WORD	wordpools/wasnorm_wordpool.txt	LTP108	ltpFR	3	11	1	SHOP	1290	n/a	n/a	0	0.57763671875	0.412841796875	1	upper	amplitud.ttf
1600213	WORD	wordpools/wasnorm_wordpool.txt	LTP108	ltpFR	3	11	1	HANDKERCHIEF	686	n/a	n/a	0	0.57763671875	0.412841796875	1	upper	amplitud.ttf
1604336	WORD	wordpools/wasnorm_wordpool.txt	LTP108	ltpFR	3	11	1	SCROLL	1257	n/a	n/a	0	0.57763671875	0.412841796875	1	upper	amplitud.ttf
1608276	WORD	wordpools/wasnorm_wordpool.txt	LTP108	ltpFR	3	11	1	ASSOCIATE	49	n/a	n/a	1	0.57763671875	0.412841796875	1	upper	amplitud.ttf
1612175	WORD	wordpools/wasnorm_wordpool.txt	LTP108	ltpFR	3	11	1	VASE	1549	n/a	n/a	0	0.57763671875	0.412841796875	1	upper	amplitud.ttf
1617899	REC_START	n/a	LTP108	ltpFR	3	11	n/a	n/a	n/a	n/a	n/a	n/a	n/a	n/a	n/a	n/a	n/a
1619166	REC_WORD_VV	wordpools/wasnorm_wordpool.txt	LTP108	ltpFR	3	11	n/a	<>	-1	n/a	n/a	n/a	n/a	n/a	n/a	n/a	n/a
1619650	REC_WORD	wordpools/wasnorm_wordpool.txt	LTP108	ltpFR	3	11	1	VASE	1549	n/a	n/a	0	n/a	n/a	n/a	n/a	n/a
1620248	REC_WORD	wordpools/wasnorm_wordpool.txt	LTP108	ltpFR	3	11	1	ASSOCIATE	49	n/a	n/a	1	n/a	n/a	n/a	n/a	n/a
1621097	REC_WORD	wordpools/wasnorm_wordpool.txt	LTP108	ltpFR	3	11	1	SCROLL	1257	n/a	n/a	0	n/a	n/a	n/a	n/a	n/a
1622254	REC_WORD	wordpools/wasnorm_wordpool.txt	LTP108	ltpFR	3	11	1	SADDLE	1221	n/a	n/a	0	n/a	n/a	n/a	n/a	n/a
1622932	REC_WORD	wordpools/wasnorm_wordpool.txt	LTP108	ltpFR	3	11	1	ATTORNEY	58	n/a	n/a	0	n/a	n/a	n/a	n/a	n/a
1702586	WORD	wordpools/wasnorm_wordpool.txt	LTP108	ltpFR	3	12	0	EDITOR	516	n/a	n/a	1	0.422607421875	0.5869140625	0	lower	zerothre.ttf
1706650	WORD	wordpools/wasnorm_wordpool.txt	LTP108	ltpFR	3	12	0	AGENT	10	n/a	n/a	1	0.422607421875	0.5869140625	0	lower	zerothre.ttf
1710790	WORD	wordpools/wasnorm_wordpool.txt	LTP108	ltpFR	3	12	0	OYSTER	995	n/a	n/a	1	0.422607421875	0.5869140625	0	lower	zerothre.ttf
1714647	WORD	wordpools/wasnorm_wordpool.txt	LTP108	ltpFR	3	12	1	PLUMBER	1091	n/a	n/a	1	0.57763671875	0.412841796875	1	upper	amplitud.ttf
1718820	WORD	wordpools/wasnorm_wordpool.txt	LTP108	ltpFR	3	12	1	VOLLEYBALL	1576	n/a	n/a	0	0.57763671875	0.412841796875	1	upper	amplitud.ttf
1722802	WORD	wordpools/wasnorm_wordpool.txt	LTP108	ltpFR	3	12	1	CASTLE	256	n/a	n/a	0	0.57763671875	0.412841796875	1	upper	amplitud.ttf
1726659	WORD	wordpools/wasnorm_wordpool.txt	LTP108	ltpFR	3	12	1	TILE	1468	n/a	n/a	0	0.57763671875	0.412841796875	1	upper	amplitud.ttf
1730666	WORD	wordpools/wasnorm_wordpool.txt	LTP108	ltpFR	3	12	1	SPRINKLE	1359	n/a	n/a	0	0.57763671875	0.412841796875	1	upper	amplitud.ttf
1734773	WORD	wordpools/wasnorm_wordpool.txt	LTP108	ltpFR	3	12	0	DIVER	476	n/a	n/a	1	0.422607421875	0.5869140625	0	lower	zerothre.ttf
1738722	WORD	wordpools/wasnorm_wordpool.txt	LTP108	ltpFR	3	12	0	TRAY	1498	n/a	n/a	0	0.422607421875	0.5869140625	0	lower	zerothre.ttf
1742870	WORD	wordpools/wasnorm_wordpool.txt	LTP108	ltpFR	3	12	1	WRITER	1627	n/a	n/a	1	0.57763671875	0.412841796875	1	upper	amplitud.ttf
1746777	WORD	wordpools/wasnorm_wordpool.txt	LTP108	ltpFR	3	12	1	WAITRESS	1581	n/a	n/a	1	0.57763671875	0.412841796875	1	upper	amplitud.ttf
1750751	WORD	wordpools/wasnorm_wordpool.txt	LTP108	ltpFR	3	12	1	CAFE	216	n/a	n/a	0	0.57763671875	0.412841796875	1	upper	amplitud.ttf
1754816	WORD	wordpools/wasnorm_wordpool.txt	LTP108	ltpFR	3	12	0	CUFF	423	n/a	n/a	1	0.422607421875	0.5869140625	0	lower	zerothre.ttf
1758840	WORD	wordpools/wasnorm_wordpool.txt	LTP108	ltpFR	3	12	0	SHIRT	1287	n/a	n/a	1	0.422607421875	0.5869140625	0	lower	zerothre.ttf
1762871	WORD	wordpools/wasnorm_wordpool.txt	LTP108	ltpFR	3	12	0	SHOE	1288	n/a	n/a	0	0.422607421875	0.5869140625	0	lower	zerothre.ttf
1768512	REC_START	n/a	LTP108	ltpFR	3	12	n/a	n/a	n/a	n/a	n/a	n/a	n/a	n/a	n/a	n/a	n/a
1770003	REC_WORD	wordpools/wasnorm_wordpool.txt	LTP108	ltpFR	3	12	0	CUFF	423	n/a	n/a	1	n/a	n/a	n/a	n/a	n/a
1770647	REC_WORD	wordpools/wasnorm_wordpool.txt	LTP108	ltpFR	3	12	0	SHIRT	1287	n/a	n/a	1	n/a	n/a	n/a	n/a	n/a
1771385	REC_WORD	wordpools/wasnorm_wordpool.txt	LTP108	ltpFR	3	12	0	SHOE	1288	n/a	n/a	0	n/a	n/a	n/a	n/a	n/a
1772597	REC_WORD	wordpools/wasnorm_wordpool.txt	LTP108	ltpFR	3	12	n/a	WAITER	1580	n/a	n/a	n/a	n/a	n/a	n/a	n/a	n/a
1773351	REC_WORD	wordpools/wasnorm_wordpool.txt	LTP108	ltpFR	3	12	1	WAITRESS	1581	n/a	n/a	1	n/a	n/a	n/a	n/a	n/a
1774289	REC_WORD	wordpools/wasnorm_wordpool.txt	LTP108	ltpFR	3	12	1	CAFE	216	n/a	n/a	0	n/a	n/a	n/a	n/a	n/a
1844109	REST_REWET	n/a	LTP108	ltpFR	3	12	n/a	n/a	n/a	n/a	n/a	n/a	n/a	n/a	n/a	n/a	n/a
2425936	WORD	wordpools/wasnorm_wordpool.txt	LTP108	ltpFR	3	13	0	IRON	744	n/a	n/a	0	0.422607421875	0.5869140625	0	lower	zerothre.ttf
2429768	WORD	wordpools/wasnorm_wordpool.txt	LTP108	ltpFR	3	13	0	PLAID	1080	n/a	n/a	0	0.422607421875	0.5869140625	0	lower	zerothre.ttf
2433891	WORD	wordpools/wasnorm_wordpool.txt	LTP108	ltpFR	3	13	0	MINT	898	n/a	n/a	0	0.422607421875	0.5869140625	0	lower	zerothre.ttf
2437706	WORD	wordpools/wasnorm_wordpool.txt	LTP108	ltpFR	3	13	0	SURGEON	1413	n/a	n/a	1	0.422607421875	0.5869140625	0	lower	zerothre.ttf
2441697	WORD	wordpools/wasnorm_wordpool.txt	LTP108	ltpFR	3	13	0	FUNERAL	613	n/a	n/a	1	0.422607421875	0.5869140625	0	lower	zerothre.ttf
2445737	WORD	wordpools/wasnorm_wordpool.txt	LTP108	ltpFR	3	13	0	FEATHER	557	n/a	n/a	0	0.422607421875	0.5869140625	0	lower	zerothre.ttf
2449611	WORD	wordpools/wasnorm_wordpool.txt	LTP108	ltpFR	3	13	0	SWAN	1417	n/a	n/a	0	0.422607421875	0.5869140625	0	lower	zerothre.ttf
2453585	WORD	wordpools/wasnorm_wordpool.txt	LTP108	ltpFR	3	13	0	PADDLE	1000	n/a	n/a	0	0.422607421875	0.5869140625	0	lower	zerothre.ttf
2457591	WORD	wordpools/wasnorm_wordpool.txt	LTP108	ltpFR	3	13	0	BOAT	144	n/a	n/a	0	0.422607421875	0.5869140625	0	lower	zerothre.ttf
2461690	WORD	wordpools/wasnorm_wordpool.txt	LTP108	ltpFR	3	13	0	PHYSICIAN	1056	n/a	n/a	1	0.422607421875	0.5869140625	0	lower	zerothre.ttf
2465613	WORD	wordpools/wasnorm_wordpool.txt	LTP108	ltpFR	3	13	0	POISON	1096	n/a	n/a	0	0.422607421875	0.5869140625	0	lower	zerothre.ttf
2469612	WORD	wordpools/wasnorm_wordpool.txt	LTP108	ltpFR	3	13	0	DOUGHNUT	490	n/a	n/a	0	0.422607421875	0.5869140625	0	lower	zerothre.ttf
2473586	WORD	wordpools/wasnorm_wordpool.txt	LTP108	ltpFR	3	13	0	CHESS	294	n/a	n/a	0	0.422607421875	0.5869140625	0	lower	zerothre.ttf
2477467	WORD	wordpools/wasnorm_wordpool.txt	LTP108	ltpFR	3	13	0	COPIER	377	n/a	n/a	1	0.422607421875	0.5869140625	0	lower	zerothre.ttf
2481533	WORD	wordpools/wasnorm_wordpool.txt	LTP108	ltpFR	3	13	0	SCALLOP	1242	n/a	n/a	0	0.422607421875	0.5869140625	0	lower	zerothre.ttf
2485623	WORD	wordpools/wasnorm_wordpool.txt	LTP108	ltpFR	3	13	0	HINGE	709	n/a	n/a	0	0.422607421875	0.5869140625	0	lower	zerothre.ttf
2491363	REC_START	n/a	LTP108	ltpFR	3	13	n/a	n/a	n/a	n/a	n/a	n/a	n/a	n/a	n/a	n/a	n/a
2492515	REC_WORD	wordpools/wasnorm_wordpool.txt	LTP108	ltpFR	3	13	0	HINGE	709	n/a	n/a	0	n/a	n/a	n/a	n/a	n/a
2493268	REC_WORD	wordpools/wasnorm_wordpool.txt	LTP108	ltpFR	3	13	0	COPIER	377	n/a	n/a	1	n/a	n/a	n/a	n/a	n/a
2494311	REC_WORD	wordpools/wasnorm_wordpool.txt	LTP108	ltpFR	3	13	0	BOAT	144	n/a	n/a	0	n/a	n/a	n/a	n/a	n/a
2494825	REC_WORD	wordpools/wasnorm_wordpool.txt	LTP108	ltpFR	3	13	0	PADDLE	1000	n/a	n/a	0	n/a	n/a	n/a	n/a	n/a
2496002	REC_WORD	wordpools/wasnorm_wordpool.txt	LTP108	ltpFR	3	13	0	SURGEON	1413	n/a	n/a	1	n/a	n/a	n/a	n/a	n/a
2497544	REC_WORD	wordpools/wasnorm_wordpool.txt	LTP108	ltpFR	3	13	0	PHYSICIAN	1056	n/a	n/a	1	n/a	n/a	n/a	n/a	n/a
2498461	REC_WORD	wordpools/wasnorm_wordpool.txt	LTP108	ltpFR	3	13	0	FUNERAL	613	n/a	n/a	1	n/a	n/a	n/a	n/a	n/a
2499200	REC_WORD	wordpools/wasnorm_wordpool.txt	LTP108	ltpFR	3	13	0	FEATHER	557	n/a	n/a	0	n/a	n/a	n/a	n/a	n/a
2502283	REC_WORD	wordpools/wasnorm_wordpool.txt	LTP108	ltpFR	3	13	0	PLAID	1080	n/a	n/a	0	n/a	n/a	n/a	n/a	n/a
2570651	WORD	wordpools/wasnorm_wordpool.txt	LTP108	ltpFR	3	14	0	RADIO	1157	n/a	n/a	0	0.422607421875	0.5869140625	0	lower	zerothre.ttf
2574691	WORD	wordpools/wasnorm_wordpool.txt	LTP108	ltpFR	3	14	0	TUBA	1515	n/a	n/a	1	0.422607421875	0.5869140625	0	lower	zerothre.ttf
2578656	WORD	wordpools/wasnorm_wordpool.txt	LTP108	ltpFR	3	14	0	LIPSTICK	829	n/a	n/a	0	0.422607421875	0.5869140625	0	lower	zerothre.ttf
2582663	WORD	wordpools/wasnorm_wordpool.txt	LTP108	ltpFR	3	14	0	SKIRT	1319	n/a	n/a	0	0.422607421875	0.5869140625	0	lower	zerothre.ttf
2586828	WORD	wordpools/wasnorm_wordpool.txt	LTP108	ltpFR	3	14	0	BILL	126	n/a	n/a	1	0.422607421875	0.5869140625	0	lower	zerothre.ttf
2590910	WORD	wordpools/wasnorm_wordpool.txt	LTP108	ltpFR	3	14	0	CHECK	284	n/a	n/a	0	0.422607421875	0.5869140625	0	lower	zerothre.ttf
2595042	WORD	wordpools/wasnorm_wordpool.txt	LTP108	ltpFR	3	14	0	CLOWN	330	n/a	n/a	1	0.422607421875	0.5869140625	0	lower	zerothre.ttf
2599024	WORD	wordpools/wasnorm_wordpool.txt	LTP108	ltpFR	3	14	0	SICKLE	1302	n/a	n/a	0	0.422607421875	0.5869140625	0	lower	zerothre.ttf
2603198	WORD	wordpools/wasnorm_wordpool.txt	LTP108	ltpFR	3	14	0	ROOF	1205	n/a	n/a	0	0.422607421875	0.5869140625	0	lower	zerothre.ttf
2607371	WORD	wordpools/wasnorm_wordpool.txt	LTP108	ltpFR	3	14	0	ROOM	1206	n/a	n/a	1	0.422607421875	0.5869140625	0	lower	zerothre.ttf
2611378	WORD	wordpools/wasnorm_wordpool.txt	LTP108	ltpFR	3	14	0	MARGARINE	868	n/a	n/a	0	0.422607421875	0.5869140625	0	lower	zerothre.ttf
2615418	WORD	wordpools/wasnorm_wordpool.txt	LTP108	ltpFR	3	14	0	ROSE	1212	n/a	n/a	0	0.422607421875	0.5869140625	0	lower	zerothre.ttf
2619342	WORD	wordpools/wasnorm_wordpool.txt	LTP108	ltpFR	3	14	0	COMEDIAN	352	n/a	n/a	1	0.422607421875	0.5869140625	0	lower	zerothre.ttf
2623324	WORD	wordpools/wasnorm_wordpool.txt	LTP108	ltpFR	3	14	0	LUMBER	848	n/a	n/a	0	0.422607421875	0.5869140625	0	lower	zerothre.ttf
2627506	WORD	wordpools/wasnorm_wordpool.txt	LTP108	ltpFR	3	14	0	SUIT	1402	n/a	n/a	0	0.422607421875	0.5869140625	0	lower	zerothre.ttf
2631421	WORD	wordpools/wasnorm_wordpool.txt	LTP108	ltpFR	3	14	0	LILY	821	n/a	n/a	0	0.422607421875	0.5869140625	0	lower	zerothre.ttf
2637078	REC_START	n/a	LTP108	ltpFR	3	14	n/a	n/a	n/a	n/a	n/a	n/a	n/a	n/a	n/a	n/a	n/a
2640061	REC_WORD	wordpools/wasnorm_wordpool.txt	LTP108	ltpFR	3	14	0	LILY	821	n/a	n/a	0	n/a	n/a	n/a	n/a	n/a
2641139	REC_WORD	wordpools/wasnorm_wordpool.txt	LTP108	ltpFR	3	14	0	LUMBER	848	n/a	n/a	0	n/a	n/a	n/a	n/a	n/a
2642251	REC_WORD	wordpools/wasnorm_wordpool.txt	LTP108	ltpFR	3	14	0	CLOWN	330	n/a	n/a	1	n/a	n/a	n/a	n/a	n/a
2642900	REC_WORD	wordpools/wasnorm_wordpool.txt	LTP108	ltpFR	3	14	0	COMEDIAN	352	n/a	n/a	1	n/a	n/a	n/a	n/a	n/a
2643807	REC_WORD	wordpools/wasnorm_wordpool.txt	LTP108	ltpFR	3	14	0	ROOF	1205	n/a	n/a	0	n/a	n/a	n/a	n/a	n/a
2644421	REC_WORD	wordpools/wasnorm_wordpool.txt	LTP108	ltpFR	3	14	0	ROOM	1206	n/a	n/a	1	n/a	n/a	n/a	n/a	n/a
2719748	WORD	wordpools/wasnorm_wordpool.txt	LTP108	ltpFR	3	15	1	ASSISTANT	48	n/a	n/a	1	0.57763671875	0.412841796875	1	upper	amplitud.ttf
2723638	WORD	wordpools/wasnorm_wordpool.txt	LTP108	ltpFR	3	15	1	MANAGER	863	n/a	n/a	1	0.57763671875	0.412841796875	1	upper	amplitud.ttf
2727629	WORD	wordpools/wasnorm_wordpool.txt	LTP108	ltpFR	3	15	1	TERRITORY	1452	n/a	n/a	0	0.57763671875	0.412841796875	1	upper	amplitud.ttf
2731602	WORD	wordpools/wasnorm_wordpool.txt	LTP108	ltpFR	3	15	1	LAMP	798	n/a	n/a	0	0.57763671875	0.412841796875	1	upper	amplitud.ttf
2735492	WORD	wordpools/wasnorm_wordpool.txt	LTP108	ltpFR	3	15	0	HANGER	687	n/a	n/a	0	0.422607421875	0.5869140625	0	lower	zerothre.ttf
2739458	WORD	wordpools/wasnorm_wordpool.txt	LTP108	ltpFR	3	15	0	ASH	44	n/a	n/a	0	0.422607421875	0.5869140625	0	lower	zerothre.ttf
2743365	WORD	wordpools/wasnorm_wordpool.txt	LTP108	ltpFR	3	15	0	BASKETBALL	96	n/a	n/a	0	0.422607421875	0.5869140625	0	lower	zerothre.ttf
2747197	WORD	wordpools/wasnorm_wordpool.txt	LTP108	ltpFR	3	15	0	INSECT	740	n/a	n/a	0	0.422607421875	0.5869140625	0	lower	zerothre.ttf
2751087	WORD	wordpools/wasnorm_wordpool.txt	LTP108	ltpFR	3	15	0	COUNTY	389	n/a	n/a	0	0.422607421875	0.5869140625	0	lower	zerothre.ttf
2755260	WORD	wordpools/wasnorm_wordpool.txt	LTP108	ltpFR	3	15	1	COSTUME	383	n/a	n/a	1	0.57763671875	0.412841796875	1	upper	amplitud.ttf
2759417	WORD	wordpools/wasnorm_wordpool.txt	LTP108	ltpFR	3	15	1	AWARD	63	n/a	n/a	0	0.57763671875	0.412841796875	1	upper	amplitud.ttf
2763241	WORD	wordpools/wasnorm_wordpool.txt	LTP108	ltpFR	3	15	1	MOUTH	926	n/a	n/a	1	0.57763671875	0.412841796875	1	upper	amplitud.ttf
2767298	WORD	wordpools/wasnorm_wordpool.txt	LTP108	ltpFR	3	15	1	TERMITE	1451	n/a	n/a	1	0.57763671875	0.412841796875	1	upper	amplitud.ttf
2771471	WORD	wordpools/wasnorm_wordpool.txt	LTP108	ltpFR	3	15	0	POET	1095	n/a	n/a	0	0.422607421875	0.5869140625	0	lower	zerothre.ttf
2775403	WORD	wordpools/wasnorm_wordpool.txt	LTP108	ltpFR	3	15	0	ORCHID	982	n/a	n/a	1	0.422607421875	0.5869140625	0	lower	zerothre.ttf
2779435	WORD	wordpools/wasnorm_wordpool.txt	LTP108	ltpFR	3	15	0	FLOWER	584	n/a	n/a	0	0.422607421875	0.5869140625	0	lower	zerothre.ttf
2785284	REC_START	n/a	LTP108	ltpFR	3	15	n/a	n/a	n/a	n/a	n/a	n/a	n/a	n/a	n/a	n/a	n/a
2787783	REC_WORD	wordpools/wasnorm_wordpool.txt	LTP108	ltpFR	3	15	1	ASSISTANT	48	n/a	n/a	1	n/a	n/a	n/a	n/a	n/a
2788781	REC_WORD	wordpools/wasnorm_wordpool.txt	LTP108	ltpFR	3	15	1	TERRITORY	1452	n/a	n/a	0	n/a	n/a	n/a	n/a	n/a
2789913	REC_WORD	wordpools/wasnorm_wordpool.txt	LTP108	ltpFR	3	15	1	MANAGER	863	n/a	n/a	1	n/a	n/a	n/a	n/a	n/a
2792582	REC_WORD	wordpools/wasnorm_wordpool.txt	LTP108	ltpFR	3	15	0	FLOWER	584	n/a	n/a	0	n/a	n/a	n/a	n/a	n/a
2793824	REC_WORD	wordpools/wasnorm_wordpool.txt	LTP108	ltpFR	3	15	0	ORCHID	982	n/a	n/a	1	n/a	n/a	n/a	n/a	n/a
2797775	REC_WORD	wordpools/wasnorm_wordpool.txt	LTP108	ltpFR	3	15	0	COUNTY	389	n/a	n/a	0	n/a	n/a	n/a	n/a	n/a
2800524	REC_WORD	wordpools/wasnorm_wordpool.txt	LTP108	ltpFR	3	15	1	COSTUME	383	n/a	n/a	1	n/a	n/a	n/a	n/a	n/a
2867445	WORD	wordpools/wasnorm_wordpool.txt	LTP108	ltpFR	3	16	0	BROCCOLI	176	n/a	n/a	0	0.422607421875	0.5869140625	0	lower	zerothre.ttf
2871636	WORD	wordpools/wasnorm_wordpool.txt	LTP108	ltpFR	3	16	0	SHOVEL	1295	n/a	n/a	1	0.422607421875	0.5869140625	0	lower	zerothre.ttf
2875693	WORD	wordpools/wasnorm_wordpool.txt	LTP108	ltpFR	3	16	0	CYCLONE	431	n/a	n/a	1	0.422607421875	0.5869140625	0	lower	zerothre.ttf
2879891	WORD	wordpools/wasnorm_wordpool.txt	LTP108	ltpFR	3	16	0	SHRUB	1299	n/a	n/a	0	0.422607421875	0.5869140625	0	lower	zerothre.ttf
2883981	WORD	wordpools/wasnorm_wordpool.txt	LTP108	ltpFR	3	16	0	FOREST	593	n/a	n/a	1	0.422607421875	0.5869140625	0	lower	zerothre.ttf
2887980	WORD	wordpools/wasnorm_wordpool.txt	LTP108	ltpFR	3	16	0	GRASS	655	n/a	n/a	0	0.422607421875	0.5869140625	0	lower	zerothre.ttf
2891845	WORD	wordpools/wasnorm_wordpool.txt	LTP108	ltpFR	3	16	0	DUST	508	n/a	n/a	0	0.422607421875	0.5869140625	0	lower	zerothre.ttf
2895944	WORD	wordpools/wasnorm_wordpool.txt	LTP108	ltpFR	3	16	0	RAISIN	1163	n/a	n/a	0	0.422607421875	0.5869140625	0	lower	zerothre.ttf
2899792	WORD	wordpools/wasnorm_wordpool.txt	LTP108	ltpFR	3	16	0	SHORTCAKE	1292	n/a	n/a	0	0.422607421875	0.5869140625	0	lower	zerothre.ttf
2903941	WORD	wordpools/wasnorm_wordpool.txt	LTP108	ltpFR	3	16	0	STOOL	1386	n/a	n/a	0	0.422607421875	0.5869140625	0	lower	zerothre.ttf
2907998	WORD	wordpools/wasnorm_wordpool.txt	LTP108	ltpFR	3	16	0	PORCH	1106	n/a	n/a	1	0.422607421875	0.5869140625	0	lower	zerothre.ttf
2911996	WORD	wordpools/wasnorm_wordpool.txt	LTP108	ltpFR	3	16	0	CABBAGE	210	n/a	n/a	0	0.422607421875	0.5869140625	0	lower	zerothre.ttf
2916136	WORD	wordpools/wasnorm_wordpool.txt	LTP108	ltpFR	3	16	0	EGYPT	519	n/a	n/a	1	0.422607421875	0.5869140625	0	lower	zerothre.ttf
2920002	WORD	wordpools/wasnorm_wordpool.txt	LTP108	ltpFR	3	16	0	VINEGAR	1569	n/a	n/a	0	0.422607421875	0.5869140625	0	lower	zerothre.ttf
2923867	WORD	wordpools/wasnorm_wordpool.txt	LTP108	ltpFR	3	16	0	PEN	1041	n/a	n/a	0	0.422607421875	0.5869140625	0	lower	zerothre.ttf
2927707	WORD	wordpools/wasnorm_wordpool.txt	LTP108	ltpFR	3	16	0	LIZARD	834	n/a	n/a	1	0.422607421875	0.5869140625	0	lower	zerothre.ttf
2933539	REC_START	n/a	LTP108	ltpFR	3	16	n/a	n/a	n/a	n/a	n/a	n/a	n/a	n/a	n/a	n/a	n/a
2935400	REC_WORD	wordpools/wasnorm_wordpool.txt	LTP108	ltpFR	3	16	0	LIZARD	834	n/a	n/a	1	n/a	n/a	n/a	n/a	n/a
2936093	REC_WORD	wordpools/wasnorm_wordpool.txt	LTP108	ltpFR	3	16	0	SHORTCAKE	1292	n/a	n/a	0	n/a	n/a	n/a	n/a	n/a
2937669	REC_WORD	wordpools/wasnorm_wordpool.txt	LTP108	ltpFR	3	16	0	PEN	1041	n/a	n/a	0	n/a	n/a	n/a	n/a	n/a
2938717	REC_WORD	wordpools/wasnorm_wordpool.txt	LTP108	ltpFR	3	16	0	FOREST	593	n/a	n/a	1	n/a	n/a	n/a	n/a	n/a
2939805	REC_WORD	wordpools/wasnorm_wordpool.txt	LTP108	ltpFR	3	16	0	GRASS	655	n/a	n/a	0	n/a	n/a	n/a	n/a	n/a
2940503	REC_WORD	wordpools/wasnorm_wordpool.txt	LTP108	ltpFR	3	16	0	SHRUB	1299	n/a	n/a	0	n/a	n/a	n/a	n/a	n/a
2949792	REC_WORD	wordpools/wasnorm_wordpool.txt	LTP108	ltpFR	3	16	0	BROCCOLI	176	n/a	n/a	0	n/a	n/a	n/a	n/a	n/a
2953069	REC_WORD	wordpools/wasnorm_wordpool.txt	LTP108	ltpFR	3	16	0	VINEGAR	1569	n/a	n/a	0	n/a	n/a	n/a	n/a	n/a
2962922	REC_WORD	wordpools/wasnorm_wordpool.txt	LTP108	ltpFR	3	16	0	CABBAGE	210	n/a	n/a	0	n/a	n/a	n/a	n/a	n/a
2977893	REC_WORD	wordpools/wasnorm_wordpool.txt	LTP108	ltpFR	3	16	n/a	TREE	1502	n/a	n/a	n/a	n/a	n/a	n/a	n/a	n/a
3023566	REC_START	n/a	LTP108	ltpFR	3	n/a	n/a	n/a	n/a	n/a	n/a	n/a	n/a	n/a	n/a	n/a	n/a
3024868	FFR_REC_WORD	wordpools/wasnorm_wordpool.txt	LTP108	ltpFR	3	n/a	0	BROCCOLI	176	n/a	n/a	0	n/a	n/a	n/a	n/a	n/a
3025407	FFR_REC_WORD	wordpools/wasnorm_wordpool.txt	LTP108	ltpFR	3	n/a	0	CABBAGE	210	n/a	n/a	0	n/a	n/a	n/a	n/a	n/a
3026095	FFR_REC_WORD	wordpools/wasnorm_wordpool.txt	LTP108	ltpFR	3	n/a	0	SHORTCAKE	1292	n/a	n/a	0	n/a	n/a	n/a	n/a	n/a
3027447	FFR_REC_WORD	wordpools/wasnorm_wordpool.txt	LTP108	ltpFR	3	n/a	0	PEN	1041	n/a	n/a	0	n/a	n/a	n/a	n/a	n/a
3028125	FFR_REC_WORD	wordpools/wasnorm_wordpool.txt	LTP108	ltpFR	3	n/a	0	HINGE	709	n/a	n/a	0	n/a	n/a	n/a	n/a	n/a
3029163	FFR_REC_WORD	wordpools/wasnorm_wordpool.txt	LTP108	ltpFR	3	n/a	0	ROOF	1205	n/a	n/a	0	n/a	n/a	n/a	n/a	n/a
3031418	FFR_REC_WORD	wordpools/wasnorm_wordpool.txt	LTP108	ltpFR	3	n/a	0	ROOF	1205	n/a	n/a	0	n/a	n/a	n/a	n/a	n/a
3034740	FFR_REC_WORD	wordpools/wasnorm_wordpool.txt	LTP108	ltpFR	3	n/a	0	PHYSICIAN	1056	n/a	n/a	1	n/a	n/a	n/a	n/a	n/a
3036706	FFR_REC_WORD	wordpools/wasnorm_wordpool.txt	LTP108	ltpFR	3	n/a	0	SURGEON	1413	n/a	n/a	1	n/a	n/a	n/a	n/a	n/a
3039135	FFR_REC_WORD	wordpools/wasnorm_wordpool.txt	LTP108	ltpFR	3	n/a	0	FUNERAL	613	n/a	n/a	1	n/a	n/a	n/a	n/a	n/a
3040288	FFR_REC_WORD	wordpools/wasnorm_wordpool.txt	LTP108	ltpFR	3	n/a	0	FLOWER	584	n/a	n/a	0	n/a	n/a	n/a	n/a	n/a
3041211	FFR_REC_WORD	wordpools/wasnorm_wordpool.txt	LTP108	ltpFR	3	n/a	0	LILY	821	n/a	n/a	0	n/a	n/a	n/a	n/a	n/a
3042792	FFR_REC_WORD	wordpools/wasnorm_wordpool.txt	LTP108	ltpFR	3	n/a	0	ORCHID	982	n/a	n/a	1	n/a	n/a	n/a	n/a	n/a
3043560	FFR_REC_WORD	wordpools/wasnorm_wordpool.txt	LTP108	ltpFR	3	n/a	0	ROSE	1212	n/a	n/a	0	n/a	n/a	n/a	n/a	n/a
3045167	FFR_REC_WORD	wordpools/wasnorm_wordpool.txt	LTP108	ltpFR	3	n/a	0	ACID	2	n/a	n/a	0	n/a	n/a	n/a	n/a	n/a
3053877	FFR_REC_WORD	wordpools/wasnorm_wordpool.txt	LTP108	ltpFR	3	n/a	0	FACE	547	n/a	n/a	0	n/a	n/a	n/a	n/a	n/a
3055329	FFR_REC_WORD	wordpools/wasnorm_wordpool.txt	LTP108	ltpFR	3	n/a	1	NOSE	957	n/a	n/a	0	n/a	n/a	n/a	n/a	n/a
3063261	FFR_REC_WORD	wordpools/wasnorm_wordpool.txt	LTP108	ltpFR	3	n/a	0	PADDLE	1000	n/a	n/a	0	n/a	n/a	n/a	n/a	n/a
3064119	FFR_REC_WORD	wordpools/wasnorm_wordpool.txt	LTP108	ltpFR	3	n/a	0	BOAT	144	n/a	n/a	0	n/a	n/a	n/a	n/a	n/a
3067521	FFR_REC_WORD	wordpools/wasnorm_wordpool.txt	LTP108	ltpFR	3	n/a	1	CASTLE	256	n/a	n/a	0	n/a	n/a	n/a	n/a	n/a
3074201	FFR_REC_WORD	wordpools/wasnorm_wordpool.txt	LTP108	ltpFR	3	n/a	1	CASTLE	256	n/a	n/a	0	n/a	n/a	n/a	n/a	n/a
3078681	FFR_REC_WORD	wordpools/wasnorm_wordpool.txt	LTP108	ltpFR	3	n/a	-1	DIRECTOR	471	n/a	n/a	-1	n/a	n/a	n/a	n/a	n/a
3079389	FFR_REC_WORD	wordpools/wasnorm_wordpool.txt	LTP108	ltpFR	3	n/a	1	ASSISTANT	48	n/a	n/a	1	n/a	n/a	n/a	n/a	n/a
3093597	FFR_REC_WORD	wordpools/wasnorm_wordpool.txt	LTP108	ltpFR	3	n/a	-1	FIG	563	n/a	n/a	-1	n/a	n/a	n/a	n/a	n/a
3094450	FFR_REC_WORD	wordpools/wasnorm_wordpool.txt	LTP108	ltpFR	3	n/a	0	FRUIT	610	n/a	n/a	0	n/a	n/a	n/a	n/a	n/a
3097303	FFR_REC_WORD	wordpools/wasnorm_wordpool.txt	LTP108	ltpFR	3	n/a	-1	PEAR	1033	n/a	n/a	-1	n/a	n/a	n/a	n/a	n/a
3113646	FFR_REC_WORD	wordpools/wasnorm_wordpool.txt	LTP108	ltpFR	3	n/a	-1	THREAD	1460	n/a	n/a	-1	n/a	n/a	n/a	n/a	n/a
3123115	FFR_REC_WORD	wordpools/wasnorm_wordpool.txt	LTP108	ltpFR	3	n/a	-1	BABY	64	n/a	n/a	-1	n/a	n/a	n/a	n/a	n/a
3123723	FFR_REC_WORD	wordpools/wasnorm_wordpool.txt	LTP108	ltpFR	3	n/a	-1	NURSERY	964	n/a	n/a	-1	n/a	n/a	n/a	n/a	n/a
3125359	FFR_REC_WORD	wordpools/wasnorm_wordpool.txt	LTP108	ltpFR	3	n/a	-1	BROTHER	179	n/a	n/a	-1	n/a	n/a	n/a	n/a	n/a
3134963	FFR_REC_WORD	wordpools/wasnorm_wordpool.txt	LTP108	ltpFR	3	n/a	n/a	PRAIRIE	1118	n/a	n/a	n/a	n/a	n/a	n/a	n/a	n/a
3150776	FFR_REC_WORD	wordpools/wasnorm_wordpool.txt	LTP108	ltpFR	3	n/a	0	FIELD	562	n/a	n/a	1	n/a	n/a	n/a	n/a	n/a
3151730	FFR_REC_WORD	wordpools/wasnorm_wordpool.txt	LTP108	ltpFR	3	n/a	0	MOUSE	925	n/a	n/a	0	n/a	n/a	n/a	n/a	n/a
3157447	FFR_REC_WORD	wordpools/wasnorm_wordpool.txt	LTP108	ltpFR	3	n/a	-1	CANAL	226	n/a	n/a	-1	n/a	n/a	n/a	n/a	n/a
3161886	FFR_REC_WORD	wordpools/wasnorm_wordpool.txt	LTP108	ltpFR	3	n/a	-1	THIEF	1456	n/a	n/a	-1	n/a	n/a	n/a	n/a	n/a
3162899	FFR_REC_WORD	wordpools/wasnorm_wordpool.txt	LTP108	ltpFR	3	n/a	-1	OUTLAW	989	n/a	n/a	-1	n/a	n/a	n/a	n/a	n/a
3171564	FFR_REC_WORD	wordpools/wasnorm_wordpool.txt	LTP108	ltpFR	3	n/a	1	POLICE	1098	n/a	n/a	1	n/a	n/a	n/a	n/a	n/a
3191848	FFR_REC_WORD	wordpools/wasnorm_wordpool.txt	LTP108	ltpFR	3	n/a	-1	XEROX	1628	n/a	n/a	-1	n/a	n/a	n/a	n/a	n/a
3192661	FFR_REC_WORD	wordpools/wasnorm_wordpool.txt	LTP108	ltpFR	3	n/a	0	COPIER	377	n/a	n/a	1	n/a	n/a	n/a	n/a	n/a
3201681	FFR_REC_WORD	wordpools/wasnorm_wordpool.txt	LTP108	ltpFR	3	n/a	0	CLOWN	330	n/a	n/a	1	n/a	n/a	n/a	n/a	n/a
3202310	FFR_REC_WORD	wordpools/wasnorm_wordpool.txt	LTP108	ltpFR	3	n/a	0	COMEDIAN	352	n/a	n/a	1	n/a	n/a	n/a	n/a	n/a
3214541	FFR_REC_WORD	wordpools/wasnorm_wordpool.txt	LTP108	ltpFR	3	n/a	1	ATTIRE	57	n/a	n/a	0	n/a	n/a	n/a	n/a	n/a
3217160	FFR_REC_WORD	wordpools/wasnorm_wordpool.txt	LTP108	ltpFR	3	n/a	0	SKIRT	1319	n/a	n/a	0	n/a	n/a	n/a	n/a	n/a
3219765	FFR_REC_WORD	wordpools/wasnorm_wordpool.txt	LTP108	ltpFR	3	n/a	0	CUFF	423	n/a	n/a	1	n/a	n/a	n/a	n/a	n/a
3220374	FFR_REC_WORD	wordpools/wasnorm_wordpool.txt	LTP108	ltpFR	3	n/a	0	SKIRT	1319	n/a	n/a	0	n/a	n/a	n/a	n/a	n/a
3221157	FFR_REC_WORD	wordpools/wasnorm_wordpool.txt	LTP108	ltpFR	3	n/a	0	SHOE	1288	n/a	n/a	0	n/a	n/a	n/a	n/a	n/a
3250390	FFR_REC_WORD	wordpools/wasnorm_wordpool.txt	LTP108	ltpFR	3	n/a	1	PELICAN	1039	n/a	n/a	1	n/a	n/a	n/a	n/a	n/a
3256910	FFR_REC_WORD	wordpools/wasnorm_wordpool.txt	LTP108	ltpFR	3	n/a	1	VEAL	1551	n/a	n/a	1	n/a	n/a	n/a	n/a	n/a
3267576	FFR_REC_WORD	wordpools/wasnorm_wordpool.txt	LTP108	ltpFR	3	n/a	1	SPARROW	1347	n/a	n/a	1	n/a	n/a	n/a	n/a	n/a
3268534	FFR_REC_WORD	wordpools/wasnorm_wordpool.txt	LTP108	ltpFR	3	n/a	-1	PARROT	1015	n/a	n/a	-1	n/a	n/a	n/a	n/a	n/a
3272834	FFR_REC_WORD	wordpools/wasnorm_wordpool.txt	LTP108	ltpFR	3	n/a	-1	SWORD	1423	n/a	n/a	-1	n/a	n/a	n/a	n/a	n/a
3274944	FFR_REC_WORD	wordpools/wasnorm_wordpool.txt	LTP108	ltpFR	3	n/a	-1	TOOL	1480	n/a	n/a	-1	n/a	n/a	n/a	n/a	n/a
3323458	FFR_REC_WORD_VV	wordpools/wasnorm_wordpool.txt	LTP108	ltpFR	3	n/a	n/a	<>	-1	n/a	n/a	n/a	n/a	n/a	n/a	n/a	n/a
3355115	REC_START	n/a	LTP108	ltpFR	3	1	n/a	n/a	n/a	n/a	n/a	n/a	n/a	n/a	n/a	n/a	n/a
3355147	RECOG_TARGET	n/a	LTP108	ltpFR	3	1	0	CUFF	423	1	5	1	n/a	n/a	n/a	n/a	n/a
3358293	RECOG_RESP	n/a	LTP108	ltpFR	3	1	0	CUFF	423	1	n/a	1	n/a	n/a	n/a	n/a	n/a
3359360	RECOG_CONF	n/a	LTP108	ltpFR	3	1	0	CUFF	423	n/a	5	1	n/a	n/a	n/a	n/a	n/a
3361078	RECOG_TARGET	n/a	LTP108	ltpFR	3	1	0	PHYSICIAN	1056	1	5	1	n/a	n/a	n/a	n/a	n/a
3361984	RECOG_RESP	n/a	LTP108	ltpFR	3	1	0	PHYSICIAN	1056	1	n/a	1	n/a	n/a	n/a	n/a	n/a
3362613	RECOG_CONF	n/a	LTP108	ltpFR	3	1	0	PHYSICIAN	1056	n/a	5	1	n/a	n/a	n/a	n/a	n/a
3364177	RECOG_LURE	n/a	LTP108	ltpFR	3	1	n/a	PISTOL	1075	0	2	n/a	n/a	n/a	n/a	n/a	n/a
3365127	RECOG_RESP	n/a	LTP108	ltpFR	3	1	n/a	PISTOL	1075	0	n/a	n/a	n/a	n/a	n/a	n/a	n/a
3365975	RECOG_CONF	n/a	LTP108	ltpFR	3	1	n/a	PISTOL	1075	n/a	2	n/a	n/a	n/a	n/a	n/a	n/a
3367418	RECOG_TARGET	n/a	LTP108	ltpFR	3	1	0	POISON	1096	1	5	0	n/a	n/a	n/a	n/a	n/a
3368225	RECOG_RESP	n/a	LTP108	ltpFR	3	1	0	POISON	1096	1	n/a	0	n/a	n/a	n/a	n/a	n/a
3368918	RECOG_CONF	n/a	LTP108	ltpFR	3	1	0	POISON	1096	n/a	5	0	n/a	n/a	n/a	n/a	n/a
3370383	RECOG_TARGET	n/a	LTP108	ltpFR	3	1	1	ATTIRE	57	1	5	0	n/a	n/a	n/a	n/a	n/a
3371158	RECOG_RESP	n/a	LTP108	ltpFR	3	1	1	ATTIRE	57	1	n/a	0	n/a	n/a	n/a	n/a	n/a
3371762	RECOG_CONF	n/a	LTP108	ltpFR	3	1	1	ATTIRE	57	n/a	5	0	n/a	n/a	n/a	n/a	n/a
3373274	RECOG_LURE	n/a	LTP108	ltpFR	3	1	n/a	PLUTO	1092	0	5	n/a	n/a	n/a	n/a	n/a	n/a
3374581	RECOG_RESP	n/a	LTP108	ltpFR	3	1	n/a	PLUTO	1092	0	n/a	n/a	n/a	n/a	n/a	n/a	n/a
3375354	RECOG_CONF	n/a	LTP108	ltpFR	3	1	n/a	PLUTO	1092	n/a	5	n/a	n/a	n/a	n/a	n/a	n/a
3376856	RECOG_TARGET	n/a	LTP108	ltpFR	3	1	0	PERCH	1048	1	3	1	n/a	n/a	n/a	n/a	n/a
3377988	RECOG_RESP	n/a	LTP108	ltpFR	3	1	0	PERCH	1048	1	n/a	1	n/a	n/a	n/a	n/a	n/a
3378866	RECOG_CONF	n/a	LTP108	ltpFR	3	1	0	PERCH	1048	n/a	3	1	n/a	n/a	n/a	n/a	n/a
3380271	RECOG_LURE	n/a	LTP108	ltpFR	3	1	n/a	ISLAND	745	0	5	n/a	n/a	n/a	n/a	n/a	n/a
3381031	RECOG_RESP	n/a	LTP108	ltpFR	3	1	n/a	ISLAND	745	0	n/a	n/a	n/a	n/a	n/a	n/a	n/a
3381719	RECOG_CONF	n/a	LTP108	ltpFR	3	1	n/a	ISLAND	745	n/a	5	n/a	n/a	n/a	n/a	n/a	n/a
3383104	RECOG_TARGET	n/a	LTP108	ltpFR	3	1	1	VOLLEYBALL	1576	1	4	0	n/a	n/a	n/a	n/a	n/a
3384194	RECOG_RESP	n/a	LTP108	ltpFR	3	1	1	VOLLEYBALL	1576	1	n/a	0	n/a	n/a	n/a	n/a	n/a
3384932	RECOG_CONF	n/a	LTP108	ltpFR	3	1	1	VOLLEYBALL	1576	n/a	4	0	n/a	n/a	n/a	n/a	n/a
3386444	RECOG_LURE	n/a	LTP108	ltpFR	3	1	n/a	BRACELET	163	0	5	n/a	n/a	n/a	n/a	n/a	n/a
3387337	RECOG_RESP	n/a	LTP108	ltpFR	3	1	n/a	BRACELET	163	0	n/a	n/a	n/a	n/a	n/a	n/a	n/a
3388015	RECOG_CONF	n/a	LTP108	ltpFR	3	1	n/a	BRACELET	163	n/a	5	n/a	n/a	n/a	n/a	n/a	n/a
3389368	RECOG_TARGET	n/a	LTP108	ltpFR	3	1	-1	CHAMPAGNE	278	1	5	-1	n/a	n/a	n/a	n/a	n/a
3390180	RECOG_RESP	n/a	LTP108	ltpFR	3	1	-1	CHAMPAGNE	278	1	n/a	-1	n/a	n/a	n/a	n/a	n/a
3390829	RECOG_CONF	n/a	LTP108	ltpFR	3	1	-1	CHAMPAGNE	278	n/a	5	-1	n/a	n/a	n/a	n/a	n/a
3392176	RECOG_TARGET	n/a	LTP108	ltpFR	3	1	1	DRIVEWAY	500	1	4	0	n/a	n/a	n/a	n/a	n/a
3392894	RECOG_RESP	n/a	LTP108	ltpFR	3	1	1	DRIVEWAY	500	1	n/a	0	n/a	n/a	n/a	n/a	n/a
3393642	RECOG_CONF	n/a	LTP108	ltpFR	3	1	1	DRIVEWAY	500	n/a	4	0	n/a	n/a	n/a	n/a	n/a
3394991	RECOG_TARGET	n/a	LTP108	ltpFR	3	1	1	POLICE	1098	1	5	1	n/a	n/a	n/a	n/a	n/a
3395618	RECOG_RESP	n/a	LTP108	ltpFR	3	1	1	POLICE	1098	1	n/a	1	n/a	n/a	n/a	n/a	n/a
3396306	RECOG_CONF	n/a	LTP108	ltpFR	3	1	1	POLICE	1098	n/a	5	1	n/a	n/a	n/a	n/a	n/a
3397707	RECOG_TARGET	n/a	LTP108	ltpFR	3	1	-1	DRAWER	493	1	5	-1	n/a	n/a	n/a	n/a	n/a
3398362	RECOG_RESP	n/a	LTP108	ltpFR	3	1	-1	DRAWER	493	1	n/a	-1	n/a	n/a	n/a	n/a	n/a
3398980	RECOG_CONF	n/a	LTP108	ltpFR	3	1	-1	DRAWER	493	n/a	5	-1	n/a	n/a	n/a	n/a	n/a
3400364	RECOG_TARGET	n/a	LTP108	ltpFR	3	1	1	FOE	587	0	5	0	n/a	n/a	n/a	n/a	n/a
3401240	RECOG_RESP	n/a	LTP108	ltpFR	3	1	1	FOE	587	0	n/a	0	n/a	n/a	n/a	n/a	n/a
3401814	RECOG_CONF	n/a	LTP108	ltpFR	3	1	1	FOE	587	n/a	5	0	n/a	n/a	n/a	n/a	n/a
3403188	RECOG_TARGET	n/a	LTP108	ltpFR	3	1	0	PILLOW	1069	1	5	1	n/a	n/a	n/a	n/a	n/a
3403958	RECOG_RESP	n/a	LTP108	ltpFR	3	1	0	PILLOW	1069	1	n/a	1	n/a	n/a	n/a	n/a	n/a
3404597	RECOG_CONF	n/a	LTP108	ltpFR	3	1	0	PILLOW	1069	n/a	5	1	n/a	n/a	n/a	n/a	n/a
3406046	RECOG_TARGET	n/a	LTP108	ltpFR	3	1	0	RAISIN	1163	1	5	0	n/a	n/a	n/a	n/a	n/a
3406787	RECOG_RESP	n/a	LTP108	ltpFR	3	1	0	RAISIN	1163	1	n/a	0	n/a	n/a	n/a	n/a	n/a
3407441	RECOG_CONF	n/a	LTP108	ltpFR	3	1	0	RAISIN	1163	n/a	5	0	n/a	n/a	n/a	n/a	n/a
3408828	RECOG_LURE	n/a	LTP108	ltpFR	3	1	n/a	SCIENTIST	1249	1	2	n/a	n/a	n/a	n/a	n/a	n/a
3410404	RECOG_RESP	n/a	LTP108	ltpFR	3	1	n/a	SCIENTIST	1249	1	n/a	n/a	n/a	n/a	n/a	n/a	n/a
3411113	RECOG_CONF	n/a	LTP108	ltpFR	3	1	n/a	SCIENTIST	1249	n/a	2	n/a	n/a	n/a	n/a	n/a	n/a
3412552	RECOG_TARGET	n/a	LTP108	ltpFR	3	1	1	CAP	236	0	1	0	n/a	n/a	n/a	n/a	n/a
3414031	RECOG_RESP	n/a	LTP108	ltpFR	3	1	1	CAP	236	0	n/a	0	n/a	n/a	n/a	n/a	n/a
3414645	RECOG_CONF	n/a	LTP108	ltpFR	3	1	1	CAP	236	n/a	1	0	n/a	n/a	n/a	n/a	n/a
3416092	RECOG_TARGET	n/a	LTP108	ltpFR	3	1	0	SWAN	1417	1	5	0	n/a	n/a	n/a	n/a	n/a
3416760	RECOG_RESP	n/a	LTP108	ltpFR	3	1	0	SWAN	1417	1	n/a	0	n/a	n/a	n/a	n/a	n/a
3417358	RECOG_CONF	n/a	LTP108	ltpFR	3	1	0	SWAN	1417	n/a	5	0	n/a	n/a	n/a	n/a	n/a
3422472	REC_START	n/a	LTP108	ltpFR	3	2	n/a	n/a	n/a	n/a	n/a	n/a	n/a	n/a	n/a	n/a	n/a
3422506	RECOG_LURE	n/a	LTP108	ltpFR	3	2	n/a	MUSTARD	935	1	2	n/a	n/a	n/a	n/a	n/a	n/a
3423529	RECOG_RESP	n/a	LTP108	ltpFR	3	2	n/a	MUSTARD	935	1	n/a	n/a	n/a	n/a	n/a	n/a	n/a
3424243	RECOG_CONF	n/a	LTP108	ltpFR	3	2	n/a	MUSTARD	935	n/a	2	n/a	n/a	n/a	n/a	n/a	n/a
3425639	RECOG_TARGET	n/a	LTP108	ltpFR	3	2	1	DETECTIVE	454	1	1	1	n/a	n/a	n/a	n/a	n/a
3427241	RECOG_RESP	n/a	LTP108	ltpFR	3	2	1	DETECTIVE	454	1	n/a	1	n/a	n/a	n/a	n/a	n/a
3427924	RECOG_CONF	n/a	LTP108	ltpFR	3	2	1	DETECTIVE	454	n/a	1	1	n/a	n/a	n/a	n/a	n/a
3429404	RECOG_TARGET	n/a	LTP108	ltpFR	3	2	0	ORCHID	982	1	5	1	n/a	n/a	n/a	n/a	n/a
3430030	RECOG_RESP	n/a	LTP108	ltpFR	3	2	0	ORCHID	982	1	n/a	1	n/a	n/a	n/a	n/a	n/a
3430489	RECOG_CONF	n/a	LTP108	ltpFR	3	2	0	ORCHID	982	n/a	5	1	n/a	n/a	n/a	n/a	n/a
3432170	RECOG_TARGET	n/a	LTP108	ltpFR	3	2	1	LEMON	810	0	3	1	n/a	n/a	n/a	n/a	n/a
3433177	RECOG_RESP	n/a	LTP108	ltpFR	3	2	1	LEMON	810	0	n/a	1	n/a	n/a	n/a	n/a	n/a
3433921	RECOG_CONF	n/a	LTP108	ltpFR	3	2	1	LEMON	810	n/a	3	1	n/a	n/a	n/a	n/a	n/a
3435235	RECOG_TARGET	n/a	LTP108	ltpFR	3	2	-1	PEAR	1033	1	5	-1	n/a	n/a	n/a	n/a	n/a
3435861	RECOG_RESP	n/a	LTP108	ltpFR	3	2	-1	PEAR	1033	1	n/a	-1	n/a	n/a	n/a	n/a	n/a
3436535	RECOG_CONF	n/a	LTP108	ltpFR	3	2	-1	PEAR	1033	n/a	5	-1	n/a	n/a	n/a	n/a	n/a
3437876	RECOG_TARGET	n/a	LTP108	ltpFR	3	2	0	CORAL	378	1	5	1	n/a	n/a	n/a	n/a	n/a
3438605	RECOG_RESP	n/a	LTP108	ltpFR	3	2	0	CORAL	378	1	n/a	1	n/a	n/a	n/a	n/a	n/a
3439189	RECOG_CONF	n/a	LTP108	ltpFR	3	2	0	CORAL	378	n/a	5	1	n/a	n/a	n/a	n/a	n/a
3440617	RECOG_TARGET	n/a	LTP108	ltpFR	3	2	-1	OUTLAW	989	1	5	-1	n/a	n/a	n/a	n/a	n/a
3441359	RECOG_RESP	n/a	LTP108	ltpFR	3	2	-1	OUTLAW	989	1	n/a	-1	n/a	n/a	n/a	n/a	n/a
3441943	RECOG_CONF	n/a	LTP108	ltpFR	3	2	-1	OUTLAW	989	n/a	5	-1	n/a	n/a	n/a	n/a	n/a
3443399	RECOG_TARGET	n/a	LTP108	ltpFR	3	2	-1	ACTRESS	6	1	1	-1	n/a	n/a	n/a	n/a	n/a
3444921	RECOG_RESP	n/a	LTP108	ltpFR	3	2	-1	ACTRESS	6	1	n/a	-1	n/a	n/a	n/a	n/a	n/a
3445564	RECOG_CONF	n/a	LTP108	ltpFR	3	2	-1	ACTRESS	6	n/a	1	-1	n/a	n/a	n/a	n/a	n/a
3447089	RECOG_LURE	n/a	LTP108	ltpFR	3	2	n/a	DANDRUFF	439	0	5	n/a	n/a	n/a	n/a	n/a	n/a
3447839	RECOG_RESP	n/a	LTP108	ltpFR	3	2	n/a	DANDRUFF	439	0	n/a	n/a	n/a	n/a	n/a	n/a	n/a
3448528	RECOG_CONF	n/a	LTP108	ltpFR	3	2	n/a	DANDRUFF	439	n/a	5	n/a	n/a	n/a	n/a	n/a	n/a
3449905	RECOG_TARGET	n/a	LTP108	ltpFR	3	2	1	SACK	1220	1	5	0	n/a	n/a	n/a	n/a	n/a
3450753	RECOG_RESP	n/a	LTP108	ltpFR	3	2	1	SACK	1220	1	n/a	0	n/a	n/a	n/a	n/a	n/a
3451491	RECOG_CONF	n/a	LTP108	ltpFR	3	2	1	SACK	1220	n/a	5	0	n/a	n/a	n/a	n/a	n/a
3452921	RECOG_TARGET	n/a	LTP108	ltpFR	3	2	1	SKULL	1320	1	5	0	n/a	n/a	n/a	n/a	n/a
3453571	RECOG_RESP	n/a	LTP108	ltpFR	3	2	1	SKULL	1320	1	n/a	0	n/a	n/a	n/a	n/a	n/a
3454294	RECOG_CONF	n/a	LTP108	ltpFR	3	2	1	SKULL	1320	n/a	5	0	n/a	n/a	n/a	n/a	n/a
3455703	RECOG_LURE	n/a	LTP108	ltpFR	3	2	n/a	SOCKET	1340	0	4	n/a	n/a	n/a	n/a	n/a	n/a
3456589	RECOG_RESP	n/a	LTP108	ltpFR	3	2	n/a	SOCKET	1340	0	n/a	n/a	n/a	n/a	n/a	n/a	n/a
3457318	RECOG_CONF	n/a	LTP108	ltpFR	3	2	n/a	SOCKET	1340	n/a	4	n/a	n/a	n/a	n/a	n/a	n/a
3458660	RECOG_TARGET	n/a	LTP108	ltpFR	3	2	1	ASSISTANT	48	1	5	1	n/a	n/a	n/a	n/a	n/a
3459348	RECOG_RESP	n/a	LTP108	ltpFR	3	2	1	ASSISTANT	48	1	n/a	1	n/a	n/a	n/a	n/a	n/a
3459982	RECOG_CONF	n/a	LTP108	ltpFR	3	2	1	ASSISTANT	48	n/a	5	1	n/a	n/a	n/a	n/a	n/a
3461476	RECOG_TARGET	n/a	LTP108	ltpFR	3	2	1	BAIT	70	1	5	0	n/a	n/a	n/a	n/a	n/a
3462202	RECOG_RESP	n/a	LTP108	ltpFR	3	2	1	BAIT	70	1	n/a	0	n/a	n/a	n/a	n/a	n/a
3462805	RECOG_CONF	n/a	LTP108	ltpFR	3	2	1	BAIT	70	n/a	5	0	n/a	n/a	n/a	n/a	n/a
3464300	RECOG_LURE	n/a	LTP108	ltpFR	3	2	n/a	CLIFF	322	0	2	n/a	n/a	n/a	n/a	n/a	n/a
3465210	RECOG_RESP	n/a	LTP108	ltpFR	3	2	n/a	CLIFF	322	0	n/a	n/a	n/a	n/a	n/a	n/a	n/a
3465918	RECOG_CONF	n/a	LTP108	ltpFR	3	2	n/a	CLIFF	322	n/a	2	n/a	n/a	n/a	n/a	n/a	n/a
3467282	RECOG_LURE	n/a	LTP108	ltpFR	3	2	n/a	WOUND	1624	0	5	n/a	n/a	n/a	n/a	n/a	n/a
3468028	RECOG_RESP	n/a	LTP108	ltpFR	3	2	n/a	WOUND	1624	0	n/a	n/a	n/a	n/a	n/a	n/a	n/a
3468961	RECOG_CONF	n/a	LTP108	ltpFR	3	2	n/a	WOUND	1624	n/a	5	n/a	n/a	n/a	n/a	n/a	n/a
3470373	RECOG_TARGET	n/a	LTP108	ltpFR	3	2	1	POSSUM	1112	1	5	1	n/a	n/a	n/a	n/a	n/a
3471096	RECOG_RESP	n/a	LTP108	ltpFR	3	2	1	POSSUM	1112	1	n/a	1	n/a	n/a	n/a	n/a	n/a
3471735	RECOG_CONF	n/a	LTP108	ltpFR	3	2	1	POSSUM	1112	n/a	5	1	n/a	n/a	n/a	n/a	n/a
3473213	RECOG_TARGET	n/a	LTP108	ltpFR	3	2	-1	THORN	1459	0	1	-1	n/a	n/a	n/a	n/a	n/a
3474239	RECOG_RESP	n/a	LTP108	ltpFR	3	2	-1	THORN	1459	0	n/a	-1	n/a	n/a	n/a	n/a	n/a
3474908	RECOG_CONF	n/a	LTP108	ltpFR	3	2	-1	THORN	1459	n/a	1	-1	n/a	n/a	n/a	n/a	n/a
3476545	RECOG_TARGET	n/a	LTP108	ltpFR	3	2	-1	COLESLAW	344	1	5	-1	n/a	n/a	n/a	n/a	n/a
3477287	RECOG_RESP	n/a	LTP108	ltpFR	3	2	-1	COLESLAW	344	1	n/a	-1	n/a	n/a	n/a	n/a	n/a
3477991	RECOG_CONF	n/a	LTP108	ltpFR	3	2	-1	COLESLAW	344	n/a	5	-1	n/a	n/a	n/a	n/a	n/a
3479436	RECOG_LURE	n/a	LTP108	ltpFR	3	2	n/a	BACK	65	0	3	n/a	n/a	n/a	n/a	n/a	n/a
3480490	RECOG_RESP	n/a	LTP108	ltpFR	3	2	n/a	BACK	65	0	n/a	n/a	n/a	n/a	n/a	n/a	n/a
3481213	RECOG_CONF	n/a	LTP108	ltpFR	3	2	n/a	BACK	65	n/a	3	n/a	n/a	n/a	n/a	n/a	n/a
3484710	REC_START	n/a	LTP108	ltpFR	3	3	n/a	n/a	n/a	n/a	n/a	n/a	n/a	n/a	n/a	n/a	n/a
3484743	RECOG_TARGET	n/a	LTP108	ltpFR	3	3	1	PELICAN	1039	1	5	1	n/a	n/a	n/a	n/a	n/a
3485663	RECOG_RESP	n/a	LTP108	ltpFR	3	3	1	PELICAN	1039	1	n/a	1	n/a	n/a	n/a	n/a	n/a
3486311	RECOG_CONF	n/a	LTP108	ltpFR	3	3	1	PELICAN	1039	n/a	5	1	n/a	n/a	n/a	n/a	n/a
3487717	RECOG_TARGET	n/a	LTP108	ltpFR	3	3	-1	REBEL	1172	0	2	-1	n/a	n/a	n/a	n/a	n/a
3488616	RECOG_RESP	n/a	LTP108	ltpFR	3	3	-1	REBEL	1172	0	n/a	-1	n/a	n/a	n/a	n/a	n/a
3489354	RECOG_CONF	n/a	LTP108	ltpFR	3	3	-1	REBEL	1172	n/a	2	-1	n/a	n/a	n/a	n/a	n/a
3490665	RECOG_TARGET	n/a	LTP108	ltpFR	3	3	1	BUGLE	189	1	5	1	n/a	n/a	n/a	n/a	n/a
3491534	RECOG_RESP	n/a	LTP108	ltpFR	3	3	1	BUGLE	189	1	n/a	1	n/a	n/a	n/a	n/a	n/a
3492228	RECOG_CONF	n/a	LTP108	ltpFR	3	3	1	BUGLE	189	n/a	5	1	n/a	n/a	n/a	n/a	n/a
3493606	RECOG_TARGET	n/a	LTP108	ltpFR	3	3	1	DEPUTY	450	0	3	1	n/a	n/a	n/a	n/a	n/a
3494692	RECOG_RESP	n/a	LTP108	ltpFR	3	3	1	DEPUTY	450	0	n/a	1	n/a	n/a	n/a	n/a	n/a
3495430	RECOG_CONF	n/a	LTP108	ltpFR	3	3	1	DEPUTY	450	n/a	3	1	n/a	n/a	n/a	n/a	n/a
3496772	RECOG_TARGET	n/a	LTP108	ltpFR	3	3	0	TRIBE	1505	1	5	1	n/a	n/a	n/a	n/a	n/a
3497441	RECOG_RESP	n/a	LTP108	ltpFR	3	3	0	TRIBE	1505	1	n/a	1	n/a	n/a	n/a	n/a	n/a
3498005	RECOG_CONF	n/a	LTP108	ltpFR	3	3	0	TRIBE	1505	n/a	5	1	n/a	n/a	n/a	n/a	n/a
3499471	RECOG_TARGET	n/a	LTP108	ltpFR	3	3	-1	CUBE	420	0	4	-1	n/a	n/a	n/a	n/a	n/a
3500344	RECOG_RESP	n/a	LTP108	ltpFR	3	3	-1	CUBE	420	0	n/a	-1	n/a	n/a	n/a	n/a	n/a
3500928	RECOG_CONF	n/a	LTP108	ltpFR	3	3	-1	CUBE	420	n/a	4	-1	n/a	n/a	n/a	n/a	n/a
3502295	RECOG_LURE	n/a	LTP108	ltpFR	3	3	n/a	SUMMIT	1405	0	3	n/a	n/a	n/a	n/a	n/a	n/a
3503796	RECOG_RESP	n/a	LTP108	ltpFR	3	3	n/a	SUMMIT	1405	0	n/a	n/a	n/a	n/a	n/a	n/a	n/a
3504570	RECOG_CONF	n/a	LTP108	ltpFR	3	3	n/a	SUMMIT	1405	n/a	3	n/a	n/a	n/a	n/a	n/a	n/a
3505902	RECOG_TARGET	n/a	LTP108	ltpFR	3	3	0	SEAL	1262	1	5	1	n/a	n/a	n/a	n/a	n/a
3506675	RECOG_RESP	n/a	LTP108	ltpFR	3	3	0	SEAL	1262	1	n/a	1	n/a	n/a	n/a	n/a	n/a
3507254	RECOG_CONF	n/a	LTP108	ltpFR	3	3	0	SEAL	1262	n/a	5	1	n/a	n/a	n/a	n/a	n/a
3508717	RECOG_TARGET	n/a	LTP108	ltpFR	3	3	0	FUNERAL	613	1	5	1	n/a	n/a	n/a	n/a	n/a
3509434	RECOG_RESP	n/a	LTP108	ltpFR	3	3	0	FUNERAL	613	1	n/a	1	n/a	n/a	n/a	n/a	n/a
3510007	RECOG_CONF	n/a	LTP108	ltpFR	3	3	0	FUNERAL	613	n/a	5	1	n/a	n/a	n/a	n/a	n/a
3511325	RECOG_TARGET	n/a	LTP108	ltpFR	3	3	0	MARGARINE	868	1	5	0	n/a	n/a	n/a	n/a	n/a
3512202	RECOG_RESP	n/a	LTP108	ltpFR	3	3	0	MARGARINE	868	1	n/a	0	n/a	n/a	n/a	n/a	n/a
3512791	RECOG_CONF	n/a	LTP108	ltpFR	3	3	0	MARGARINE	868	n/a	5	0	n/a	n/a	n/a	n/a	n/a
3514174	RECOG_TARGET	n/a	LTP108	ltpFR	3	3	1	SPARROW	1347	1	5	1	n/a	n/a	n/a	n/a	n/a
3514831	RECOG_RESP	n/a	LTP108	ltpFR	3	3	1	SPARROW	1347	1	n/a	1	n/a	n/a	n/a	n/a	n/a
3515385	RECOG_CONF	n/a	LTP108	ltpFR	3	3	1	SPARROW	1347	n/a	5	1	n/a	n/a	n/a	n/a	n/a
3516806	RECOG_TARGET	n/a	LTP108	ltpFR	3	3	0	BILL	126	1	5	1	n/a	n/a	n/a	n/a	n/a
3517520	RECOG_RESP	n/a	LTP108	ltpFR	3	3	0	BILL	126	1	n/a	1	n/a	n/a	n/a	n/a	n/a
3518119	RECOG_CONF	n/a	LTP108	ltpFR	3	3	0	BILL	126	n/a	5	1	n/a	n/a	n/a	n/a	n/a
3519405	RECOG_LURE	n/a	LTP108	ltpFR	3	3	n/a	COCKTAIL	338	1	1	n/a	n/a	n/a	n/a	n/a	n/a
3520134	RECOG_RESP	n/a	LTP108	ltpFR	3	3	n/a	COCKTAIL	338	1	n/a	n/a	n/a	n/a	n/a	n/a	n/a
3521262	RECOG_CONF	n/a	LTP108	ltpFR	3	3	n/a	COCKTAIL	338	n/a	1	n/a	n/a	n/a	n/a	n/a	n/a
3522729	RECOG_LURE	n/a	LTP108	ltpFR	3	3	n/a	PILL	1068	0	3	n/a	n/a	n/a	n/a	n/a	n/a
3523981	RECOG_RESP	n/a	LTP108	ltpFR	3	3	n/a	PILL	1068	0	n/a	n/a	n/a	n/a	n/a	n/a	n/a
3524674	RECOG_CONF	n/a	LTP108	ltpFR	3	3	n/a	PILL	1068	n/a	3	n/a	n/a	n/a	n/a	n/a	n/a
3526045	RECOG_LURE	n/a	LTP108	ltpFR	3	3	n/a	SWEATER	1419	0	4	n/a	n/a	n/a	n/a	n/a	n/a
3526929	RECOG_RESP	n/a	LTP108	ltpFR	3	3	n/a	SWEATER	1419	0	n/a	n/a	n/a	n/a	n/a	n/a	n/a
3527547	RECOG_CONF	n/a	LTP108	ltpFR	3	3	n/a	SWEATER	1419	n/a	4	n/a	n/a	n/a	n/a	n/a	n/a
3528894	RECOG_TARGET	n/a	LTP108	ltpFR	3	3	-1	THREAD	1460	1	5	-1	n/a	n/a	n/a	n/a	n/a
3529563	RECOG_RESP	n/a	LTP108	ltpFR	3	3	-1	THREAD	1460	1	n/a	-1	n/a	n/a	n/a	n/a	n/a
3530132	RECOG_CONF	n/a	LTP108	ltpFR	3	3	-1	THREAD	1460	n/a	5	-1	n/a	n/a	n/a	n/a	n/a
3531585	RECOG_TARGET	n/a	LTP108	ltpFR	3	3	1	LAMP	798	1	5	0	n/a	n/a	n/a	n/a	n/a
3532347	RECOG_RESP	n/a	LTP108	ltpFR	3	3	1	LAMP	798	1	n/a	0	n/a	n/a	n/a	n/a	n/a
3532935	RECOG_CONF	n/a	LTP108	ltpFR	3	3	1	LAMP	798	n/a	5	0	n/a	n/a	n/a	n/a	n/a
3534342	RECOG_TARGET	n/a	LTP108	ltpFR	3	3	0	COUNTY	389	1	5	0	n/a	n/a	n/a	n/a	n/a
3535030	RECOG_RESP	n/a	LTP108	ltpFR	3	3	0	COUNTY	389	1	n/a	0	n/a	n/a	n/a	n/a	n/a
3535639	RECOG_CONF	n/a	LTP108	ltpFR	3	3	0	COUNTY	389	n/a	5	0	n/a	n/a	n/a	n/a	n/a
3537016	RECOG_TARGET	n/a	LTP108	ltpFR	3	3	1	VELVET	1555	1	5	0	n/a	n/a	n/a	n/a	n/a
3537709	RECOG_RESP	n/a	LTP108	ltpFR	3	3	1	VELVET	1555	1	n/a	0	n/a	n/a	n/a	n/a	n/a
3538293	RECOG_CONF	n/a	LTP108	ltpFR	3	3	1	VELVET	1555	n/a	5	0	n/a	n/a	n/a	n/a	n/a
3539748	RECOG_TARGET	n/a	LTP108	ltpFR	3	3	-1	PEPPER	1047	1	5	-1	n/a	n/a	n/a	n/a	n/a
3540438	RECOG_RESP	n/a	LTP108	ltpFR	3	3	-1	PEPPER	1047	1	n/a	-1	n/a	n/a	n/a	n/a	n/a
3540997	RECOG_CONF	n/a	LTP108	ltpFR	3	3	-1	PEPPER	1047	n/a	5	-1	n/a	n/a	n/a	n/a	n/a
3548366	REC_START	n/a	LTP108	ltpFR	3	4	n/a	n/a	n/a	n/a	n/a	n/a	n/a	n/a	n/a	n/a	n/a
3548403	RECOG_TARGET	n/a	LTP108	ltpFR	3	4	0	GULL	671	0	2	1	n/a	n/a	n/a	n/a	n/a
3549658	RECOG_RESP	n/a	LTP108	ltpFR	3	4	0	GULL	671	0	n/a	1	n/a	n/a	n/a	n/a	n/a
3550356	RECOG_CONF	n/a	LTP108	ltpFR	3	4	0	GULL	671	n/a	2	1	n/a	n/a	n/a	n/a	n/a
3551752	RECOG_TARGET	n/a	LTP108	ltpFR	3	4	1	SHOP	1290	1	3	0	n/a	n/a	n/a	n/a	n/a
3552696	RECOG_RESP	n/a	LTP108	ltpFR	3	4	1	SHOP	1290	1	n/a	0	n/a	n/a	n/a	n/a	n/a
3553489	RECOG_CONF	n/a	LTP108	ltpFR	3	4	1	SHOP	1290	n/a	3	0	n/a	n/a	n/a	n/a	n/a
3554801	RECOG_LURE	n/a	LTP108	ltpFR	3	4	n/a	PERMIT	1051	0	1	n/a	n/a	n/a	n/a	n/a	n/a
3555754	RECOG_RESP	n/a	LTP108	ltpFR	3	4	n/a	PERMIT	1051	0	n/a	n/a	n/a	n/a	n/a	n/a	n/a
3556423	RECOG_CONF	n/a	LTP108	ltpFR	3	4	n/a	PERMIT	1051	n/a	1	n/a	n/a	n/a	n/a	n/a	n/a
3557758	RECOG_TARGET	n/a	LTP108	ltpFR	3	4	1	PRUNE	1134	1	3	0	n/a	n/a	n/a	n/a	n/a
3558403	RECOG_RESP	n/a	LTP108	ltpFR	3	4	1	PRUNE	1134	1	n/a	0	n/a	n/a	n/a	n/a	n/a
3559156	RECOG_CONF	n/a	LTP108	ltpFR	3	4	1	PRUNE	1134	n/a	3	0	n/a	n/a	n/a	n/a	n/a
3560491	RECOG_TARGET	n/a	LTP108	ltpFR	3	4	-1	RADISH	1158	0	4	-1	n/a	n/a	n/a	n/a	n/a
3561361	RECOG_RESP	n/a	LTP108	ltpFR	3	4	-1	RADISH	1158	0	n/a	-1	n/a	n/a	n/a	n/a	n/a
3562000	RECOG_CONF	n/a	LTP108	ltpFR	3	4	-1	RADISH	1158	n/a	4	-1	n/a	n/a	n/a	n/a	n/a
3563340	RECOG_LURE	n/a	LTP108	ltpFR	3	4	n/a	MONARCH	906	0	3	n/a	n/a	n/a	n/a	n/a	n/a
3564394	RECOG_RESP	n/a	LTP108	ltpFR	3	4	n/a	MONARCH	906	0	n/a	n/a	n/a	n/a	n/a	n/a	n/a
3565173	RECOG_CONF	n/a	LTP108	ltpFR	3	4	n/a	MONARCH	906	n/a	3	n/a	n/a	n/a	n/a	n/a	n/a
3566489	RECOG_TARGET	n/a	LTP108	ltpFR	3	4	1	MOUTH	926	0	1	1	n/a	n/a	n/a	n/a	n/a
3567991	RECOG_RESP	n/a	LTP108	ltpFR	3	4	1	MOUTH	926	0	n/a	1	n/a	n/a	n/a	n/a	n/a
3568695	RECOG_CONF	n/a	LTP108	ltpFR	3	4	1	MOUTH	926	n/a	1	1	n/a	n/a	n/a	n/a	n/a
3570071	RECOG_TARGET	n/a	LTP108	ltpFR	3	4	0	CHECK	284	0	4	0	n/a	n/a	n/a	n/a	n/a
3571039	RECOG_RESP	n/a	LTP108	ltpFR	3	4	0	CHECK	284	0	n/a	0	n/a	n/a	n/a	n/a	n/a
3571827	RECOG_CONF	n/a	LTP108	ltpFR	3	4	0	CHECK	284	n/a	4	0	n/a	n/a	n/a	n/a	n/a
3573070	RECOG_LURE	n/a	LTP108	ltpFR	3	4	n/a	RUBY	1214	0	3	n/a	n/a	n/a	n/a	n/a	n/a
3574302	RECOG_RESP	n/a	LTP108	ltpFR	3	4	n/a	RUBY	1214	0	n/a	n/a	n/a	n/a	n/a	n/a	n/a
3575050	RECOG_CONF	n/a	LTP108	ltpFR	3	4	n/a	RUBY	1214	n/a	3	n/a	n/a	n/a	n/a	n/a	n/a
3576477	RECOG_TARGET	n/a	LTP108	ltpFR	3	4	0	LIZARD	834	1	5	1	n/a	n/a	n/a	n/a	n/a
3577140	RECOG_RESP	n/a	LTP108	ltpFR	3	4	0	LIZARD	834	1	n/a	1	n/a	n/a	n/a	n/a	n/a
3577804	RECOG_CONF	n/a	LTP108	ltpFR	3	4	0	LIZARD	834	n/a	5	1	n/a	n/a	n/a	n/a	n/a
3579167	RECOG_TARGET	n/a	LTP108	ltpFR	3	4	1	TERRITORY	1452	1	5	0	n/a	n/a	n/a	n/a	n/a
3579929	RECOG_RESP	n/a	LTP108	ltpFR	3	4	1	TERRITORY	1452	1	n/a	0	n/a	n/a	n/a	n/a	n/a
3580538	RECOG_CONF	n/a	LTP108	ltpFR	3	4	1	TERRITORY	1452	n/a	5	0	n/a	n/a	n/a	n/a	n/a
3581916	RECOG_TARGET	n/a	LTP108	ltpFR	3	4	-1	TEA	1439	0	4	-1	n/a	n/a	n/a	n/a	n/a
3582713	RECOG_RESP	n/a	LTP108	ltpFR	3	4	-1	TEA	1439	0	n/a	-1	n/a	n/a	n/a	n/a	n/a
3583431	RECOG_CONF	n/a	LTP108	ltpFR	3	4	-1	TEA	1439	n/a	4	-1	n/a	n/a	n/a	n/a	n/a
3584774	RECOG_TARGET	n/a	LTP108	ltpFR	3	4	1	SPRINKLE	1359	1	5	0	n/a	n/a	n/a	n/a	n/a
3585611	RECOG_RESP	n/a	LTP108	ltpFR	3	4	1	SPRINKLE	1359	1	n/a	0	n/a	n/a	n/a	n/a	n/a
3586235	RECOG_CONF	n/a	LTP108	ltpFR	3	4	1	SPRINKLE	1359	n/a	5	0	n/a	n/a	n/a	n/a	n/a
3587798	RECOG_LURE	n/a	LTP108	ltpFR	3	4	n/a	CLAW	319	0	3	n/a	n/a	n/a	n/a	n/a	n/a
3589223	RECOG_RESP	n/a	LTP108	ltpFR	3	4	n/a	CLAW	319	0	n/a	n/a	n/a	n/a	n/a	n/a	n/a
3590036	RECOG_CONF	n/a	LTP108	ltpFR	3	4	n/a	CLAW	319	n/a	3	n/a	n/a	n/a	n/a	n/a	n/a
3591371	RECOG_TARGET	n/a	LTP108	ltpFR	3	4	0	PASSAGE	1019	1	4	0	n/a	n/a	n/a	n/a	n/a
3592411	RECOG_RESP	n/a	LTP108	ltpFR	3	4	0	PASSAGE	1019	1	n/a	0	n/a	n/a	n/a	n/a	n/a
3593089	RECOG_CONF	n/a	LTP108	ltpFR	3	4	0	PASSAGE	1019	n/a	4	0	n/a	n/a	n/a	n/a	n/a
3594445	RECOG_TARGET	n/a	LTP108	ltpFR	3	4	0	PEOPLE	1046	0	3	0	n/a	n/a	n/a	n/a	n/a
3595244	RECOG_RESP	n/a	LTP108	ltpFR	3	4	0	PEOPLE	1046	0	n/a	0	n/a	n/a	n/a	n/a	n/a
3595983	RECOG_CONF	n/a	LTP108	ltpFR	3	4	0	PEOPLE	1046	n/a	3	0	n/a	n/a	n/a	n/a	n/a
3597336	RECOG_TARGET	n/a	LTP108	ltpFR	3	4	0	ROSE	1212	1	5	0	n/a	n/a	n/a	n/a	n/a
3597993	RECOG_RESP	n/a	LTP108	ltpFR	3	4	0	ROSE	1212	1	n/a	0	n/a	n/a	n/a	n/a	n/a
3598597	RECOG_CONF	n/a	LTP108	ltpFR	3	4	0	ROSE	1212	n/a	5	0	n/a	n/a	n/a	n/a	n/a
3600085	RECOG_TARGET	n/a	LTP108	ltpFR	3	4	1	LUNG	850	1	1	1	n/a	n/a	n/a	n/a	n/a
3600971	RECOG_RESP	n/a	LTP108	ltpFR	3	4	1	LUNG	850	1	n/a	1	n/a	n/a	n/a	n/a	n/a
3601720	RECOG_CONF	n/a	LTP108	ltpFR	3	4	1	LUNG	850	n/a	1	1	n/a	n/a	n/a	n/a	n/a
3603092	RECOG_TARGET	n/a	LTP108	ltpFR	3	4	1	BISON	131	1	5	1	n/a	n/a	n/a	n/a	n/a
3604199	RECOG_RESP	n/a	LTP108	ltpFR	3	4	1	BISON	131	1	n/a	1	n/a	n/a	n/a	n/a	n/a
3604763	RECOG_CONF	n/a	LTP108	ltpFR	3	4	1	BISON	131	n/a	5	1	n/a	n/a	n/a	n/a	n/a
3606233	RECOG_TARGET	n/a	LTP108	ltpFR	3	4	-1	SURF	1412	0	3	-1	n/a	n/a	n/a	n/a	n/a
3607756	RECOG_RESP	n/a	LTP108	ltpFR	3	4	-1	SURF	1412	0	n/a	-1	n/a	n/a	n/a	n/a	n/a
3608534	RECOG_CONF	n/a	LTP108	ltpFR	3	4	-1	SURF	1412	n/a	3	-1	n/a	n/a	n/a	n/a	n/a
3612314	REC_START	n/a	LTP108	ltpFR	3	5	n/a	n/a	n/a	n/a	n/a	n/a	n/a	n/a	n/a	n/a	n/a
3612347	RECOG_TARGET	n/a	LTP108	ltpFR	3	5	-1	PARROT	1015	1	5	-1	n/a	n/a	n/a	n/a	n/a
3613147	RECOG_RESP	n/a	LTP108	ltpFR	3	5	-1	PARROT	1015	1	n/a	-1	n/a	n/a	n/a	n/a	n/a
3613795	RECOG_CONF	n/a	LTP108	ltpFR	3	5	-1	PARROT	1015	n/a	5	-1	n/a	n/a	n/a	n/a	n/a
3615155	RECOG_TARGET	n/a	LTP108	ltpFR	3	5	1	COLT	349	1	3	1	n/a	n/a	n/a	n/a	n/a
3616255	RECOG_RESP	n/a	LTP108	ltpFR	3	5	1	COLT	349	1	n/a	1	n/a	n/a	n/a	n/a	n/a
3616968	RECOG_CONF	n/a	LTP108	ltpFR	3	5	1	COLT	349	n/a	3	1	n/a	n/a	n/a	n/a	n/a
3618270	RECOG_TARGET	n/a	LTP108	ltpFR	3	5	0	BASKETBALL	96	0	4	0	n/a	n/a	n/a	n/a	n/a
3619283	RECOG_RESP	n/a	LTP108	ltpFR	3	5	0	BASKETBALL	96	0	n/a	0	n/a	n/a	n/a	n/a	n/a
3619941	RECOG_CONF	n/a	LTP108	ltpFR	3	5	0	BASKETBALL	96	n/a	4	0	n/a	n/a	n/a	n/a	n/a
3621127	RECOG_LURE	n/a	LTP108	ltpFR	3	5	n/a	KNIGHT	786	0	1	n/a	n/a	n/a	n/a	n/a	n/a
3622002	RECOG_RESP	n/a	LTP108	ltpFR	3	5	n/a	KNIGHT	786	0	n/a	n/a	n/a	n/a	n/a	n/a	n/a
3622755	RECOG_CONF	n/a	LTP108	ltpFR	3	5	n/a	KNIGHT	786	n/a	1	n/a	n/a	n/a	n/a	n/a	n/a
3624151	RECOG_TARGET	n/a	LTP108	ltpFR	3	5	1	VEAL	1551	1	5	1	n/a	n/a	n/a	n/a	n/a
3624840	RECOG_RESP	n/a	LTP108	ltpFR	3	5	1	VEAL	1551	1	n/a	1	n/a	n/a	n/a	n/a	n/a
3625459	RECOG_CONF	n/a	LTP108	ltpFR	3	5	1	VEAL	1551	n/a	5	1	n/a	n/a	n/a	n/a	n/a
3626875	RECOG_TARGET	n/a	LTP108	ltpFR	3	5	-1	FLASHLIGHT	575	0	4	-1	n/a	n/a	n/a	n/a	n/a
3627624	RECOG_RESP	n/a	LTP108	ltpFR	3	5	-1	FLASHLIGHT	575	0	n/a	-1	n/a	n/a	n/a	n/a	n/a
3628302	RECOG_CONF	n/a	LTP108	ltpFR	3	5	-1	FLASHLIGHT	575	n/a	4	-1	n/a	n/a	n/a	n/a	n/a
3629483	RECOG_TARGET	n/a	LTP108	ltpFR	3	5	-1	CANAL	226	1	5	-1	n/a	n/a	n/a	n/a	n/a
3630278	RECOG_RESP	n/a	LTP108	ltpFR	3	5	-1	CANAL	226	1	n/a	-1	n/a	n/a	n/a	n/a	n/a
3630907	RECOG_CONF	n/a	LTP108	ltpFR	3	5	-1	CANAL	226	n/a	5	-1	n/a	n/a	n/a	n/a	n/a
3632323	RECOG_TARGET	n/a	LTP108	ltpFR	3	5	1	NEPTUNE	943	1	4	0	n/a	n/a	n/a	n/a	n/a
3633092	RECOG_RESP	n/a	LTP108	ltpFR	3	5	1	NEPTUNE	943	1	n/a	0	n/a	n/a	n/a	n/a	n/a
3633960	RECOG_CONF	n/a	LTP108	ltpFR	3	5	1	NEPTUNE	943	n/a	4	0	n/a	n/a	n/a	n/a	n/a
3635281	RECOG_LURE	n/a	LTP108	ltpFR	3	5	n/a	FARMER	553	0	3	n/a	n/a	n/a	n/a	n/a	n/a
3636668	RECOG_RESP	n/a	LTP108	ltpFR	3	5	n/a	FARMER	553	0	n/a	n/a	n/a	n/a	n/a	n/a	n/a
3637392	RECOG_CONF	n/a	LTP108	ltpFR	3	5	n/a	FARMER	553	n/a	3	n/a	n/a	n/a	n/a	n/a	n/a
3638780	RECOG_TARGET	n/a	LTP108	ltpFR	3	5	0	PORCH	1106	1	5	1	n/a	n/a	n/a	n/a	n/a
3639991	RECOG_RESP_VV	n/a	LTP108	ltpFR	3	5	0	PORCH	1106	0	n/a	1	n/a	n/a	n/a	n/a	n/a
3640609	RECOG_RESP	n/a	LTP108	ltpFR	3	5	0	PORCH	1106	1	n/a	1	n/a	n/a	n/a	n/a	n/a
3641393	RECOG_CONF	n/a	LTP108	ltpFR	3	5	0	PORCH	1106	n/a	5	1	n/a	n/a	n/a	n/a	n/a
3642861	RECOG_TARGET	n/a	LTP108	ltpFR	3	5	1	CAVITY	264	0	2	0	n/a	n/a	n/a	n/a	n/a
3644107	RECOG_RESP	n/a	LTP108	ltpFR	3	5	1	CAVITY	264	0	n/a	0	n/a	n/a	n/a	n/a	n/a
3644845	RECOG_CONF	n/a	LTP108	ltpFR	3	5	1	CAVITY	264	n/a	2	0	n/a	n/a	n/a	n/a	n/a
3646193	RECOG_LURE	n/a	LTP108	ltpFR	3	5	n/a	LAKE	796	0	4	n/a	n/a	n/a	n/a	n/a	n/a
3647175	RECOG_RESP	n/a	LTP108	ltpFR	3	5	n/a	LAKE	796	0	n/a	n/a	n/a	n/a	n/a	n/a	n/a
3647768	RECOG_CONF	n/a	LTP108	ltpFR	3	5	n/a	LAKE	796	n/a	4	n/a	n/a	n/a	n/a	n/a	n/a
3649076	RECOG_LURE	n/a	LTP108	ltpFR	3	5	n/a	CACTUS	215	0	5	n/a	n/a	n/a	n/a	n/a	n/a
3649809	RECOG_RESP	n/a	LTP108	ltpFR	3	5	n/a	CACTUS	215	0	n/a	n/a	n/a	n/a	n/a	n/a	n/a
3650422	RECOG_CONF	n/a	LTP108	ltpFR	3	5	n/a	CACTUS	215	n/a	5	n/a	n/a	n/a	n/a	n/a	n/a
3651867	RECOG_LURE	n/a	LTP108	ltpFR	3	5	n/a	CATERPILLAR	259	0	4	n/a	n/a	n/a	n/a	n/a	n/a
3652787	RECOG_RESP	n/a	LTP108	ltpFR	3	5	n/a	CATERPILLAR	259	0	n/a	n/a	n/a	n/a	n/a	n/a	n/a
3653545	RECOG_CONF	n/a	LTP108	ltpFR	3	5	n/a	CATERPILLAR	259	n/a	4	n/a	n/a	n/a	n/a	n/a	n/a
3654832	RECOG_TARGET	n/a	LTP108	ltpFR	3	5	1	PATIO	1025	1	4	0	n/a	n/a	n/a	n/a	n/a
3655950	RECOG_RESP	n/a	LTP108	ltpFR	3	5	1	PATIO	1025	1	n/a	0	n/a	n/a	n/a	n/a	n/a
3656718	RECOG_CONF	n/a	LTP108	ltpFR	3	5	1	PATIO	1025	n/a	4	0	n/a	n/a	n/a	n/a	n/a
3658048	RECOG_LURE	n/a	LTP108	ltpFR	3	5	n/a	FLOUR	583	0	5	n/a	n/a	n/a	n/a	n/a	n/a
3659083	RECOG_RESP	n/a	LTP108	ltpFR	3	5	n/a	FLOUR	583	0	n/a	n/a	n/a	n/a	n/a	n/a	n/a
3659731	RECOG_CONF	n/a	LTP108	ltpFR	3	5	n/a	FLOUR	583	n/a	5	n/a	n/a	n/a	n/a	n/a	n/a
3661138	RECOG_TARGET	n/a	LTP108	ltpFR	3	5	0	CYCLONE	431	1	5	1	n/a	n/a	n/a	n/a	n/a
3661881	RECOG_RESP	n/a	LTP108	ltpFR	3	5	0	CYCLONE	431	1	n/a	1	n/a	n/a	n/a	n/a	n/a
3662515	RECOG_CONF	n/a	LTP108	ltpFR	3	5	0	CYCLONE	431	n/a	5	1	n/a	n/a	n/a	n/a	n/a
3663929	RECOG_TARGET	n/a	LTP108	ltpFR	3	5	0	POET	1095	1	5	0	n/a	n/a	n/a	n/a	n/a
3664620	RECOG_RESP	n/a	LTP108	ltpFR	3	5	0	POET	1095	1	n/a	0	n/a	n/a	n/a	n/a	n/a
3665179	RECOG_CONF	n/a	LTP108	ltpFR	3	5	0	POET	1095	n/a	5	0	n/a	n/a	n/a	n/a	n/a
3666728	RECOG_TARGET	n/a	LTP108	ltpFR	3	5	-1	NECK	939	0	3	-1	n/a	n/a	n/a	n/a	n/a
3667688	RECOG_RESP	n/a	LTP108	ltpFR	3	5	-1	NECK	939	0	n/a	-1	n/a	n/a	n/a	n/a	n/a
3668731	RECOG_CONF	n/a	LTP108	ltpFR	3	5	-1	NECK	939	n/a	3	-1	n/a	n/a	n/a	n/a	n/a
3670102	RECOG_TARGET	n/a	LTP108	ltpFR	3	5	0	BROCCOLI	176	1	5	0	n/a	n/a	n/a	n/a	n/a
3670966	RECOG_RESP	n/a	LTP108	ltpFR	3	5	0	BROCCOLI	176	1	n/a	0	n/a	n/a	n/a	n/a	n/a
3671584	RECOG_CONF	n/a	LTP108	ltpFR	3	5	0	BROCCOLI	176	n/a	5	0	n/a	n/a	n/a	n/a	n/a
3675088	REC_START	n/a	LTP108	ltpFR	3	6	n/a	n/a	n/a	n/a	n/a	n/a	n/a	n/a	n/a	n/a	n/a
3675125	RECOG_TARGET	n/a	LTP108	ltpFR	3	6	-1	TAG	1429	0	3	-1	n/a	n/a	n/a	n/a	n/a
3676011	RECOG_RESP	n/a	LTP108	ltpFR	3	6	-1	TAG	1429	0	n/a	-1	n/a	n/a	n/a	n/a	n/a
3676759	RECOG_CONF	n/a	LTP108	ltpFR	3	6	-1	TAG	1429	n/a	3	-1	n/a	n/a	n/a	n/a	n/a
3678016	RECOG_TARGET	n/a	LTP108	ltpFR	3	6	1	DIRT	472	1	5	0	n/a	n/a	n/a	n/a	n/a
3679323	RECOG_RESP	n/a	LTP108	ltpFR	3	6	1	DIRT	472	1	n/a	0	n/a	n/a	n/a	n/a	n/a
3680032	RECOG_CONF	n/a	LTP108	ltpFR	3	6	1	DIRT	472	n/a	5	0	n/a	n/a	n/a	n/a	n/a
3681464	RECOG_TARGET	n/a	LTP108	ltpFR	3	6	0	HINGE	709	1	5	0	n/a	n/a	n/a	n/a	n/a
3682227	RECOG_RESP	n/a	LTP108	ltpFR	3	6	0	HINGE	709	1	n/a	0	n/a	n/a	n/a	n/a	n/a
3682805	RECOG_CONF	n/a	LTP108	ltpFR	3	6	0	HINGE	709	n/a	5	0	n/a	n/a	n/a	n/a	n/a
3684455	RECOG_TARGET	n/a	LTP108	ltpFR	3	6	0	CLOWN	330	1	5	1	n/a	n/a	n/a	n/a	n/a
3685614	RECOG_RESP	n/a	LTP108	ltpFR	3	6	0	CLOWN	330	1	n/a	1	n/a	n/a	n/a	n/a	n/a
3686297	RECOG_CONF	n/a	LTP108	ltpFR	3	6	0	CLOWN	330	n/a	5	1	n/a	n/a	n/a	n/a	n/a
3687679	RECOG_TARGET	n/a	LTP108	ltpFR	3	6	0	ASH	44	1	5	0	n/a	n/a	n/a	n/a	n/a
3688432	RECOG_RESP	n/a	LTP108	ltpFR	3	6	0	ASH	44	1	n/a	0	n/a	n/a	n/a	n/a	n/a
3689151	RECOG_CONF	n/a	LTP108	ltpFR	3	6	0	ASH	44	n/a	5	0	n/a	n/a	n/a	n/a	n/a
3690544	RECOG_TARGET	n/a	LTP108	ltpFR	3	6	1	ATTORNEY	58	1	5	0	n/a	n/a	n/a	n/a	n/a
3691386	RECOG_RESP	n/a	LTP108	ltpFR	3	6	1	ATTORNEY	58	1	n/a	0	n/a	n/a	n/a	n/a	n/a
3692044	RECOG_CONF	n/a	LTP108	ltpFR	3	6	1	ATTORNEY	58	n/a	5	0	n/a	n/a	n/a	n/a	n/a
3693485	RECOG_TARGET	n/a	LTP108	ltpFR	3	6	1	CAFE	216	1	5	0	n/a	n/a	n/a	n/a	n/a
3694164	RECOG_RESP	n/a	LTP108	ltpFR	3	6	1	CAFE	216	1	n/a	0	n/a	n/a	n/a	n/a	n/a
3694908	RECOG_CONF	n/a	LTP108	ltpFR	3	6	1	CAFE	216	n/a	5	0	n/a	n/a	n/a	n/a	n/a
3696301	RECOG_TARGET	n/a	LTP108	ltpFR	3	6	-1	BABY	64	1	4	-1	n/a	n/a	n/a	n/a	n/a
3697741	RECOG_RESP	n/a	LTP108	ltpFR	3	6	-1	BABY	64	1	n/a	-1	n/a	n/a	n/a	n/a	n/a
3698410	RECOG_CONF	n/a	LTP108	ltpFR	3	6	-1	BABY	64	n/a	4	-1	n/a	n/a	n/a	n/a	n/a
3699941	RECOG_TARGET	n/a	LTP108	ltpFR	3	6	0	LUMBER	848	1	3	0	n/a	n/a	n/a	n/a	n/a
3701014	RECOG_RESP_VV	n/a	LTP108	ltpFR	3	6	0	LUMBER	848	0	n/a	0	n/a	n/a	n/a	n/a	n/a
3701523	RECOG_RESP	n/a	LTP108	ltpFR	3	6	0	LUMBER	848	1	n/a	0	n/a	n/a	n/a	n/a	n/a
3702461	RECOG_CONF	n/a	LTP108	ltpFR	3	6	0	LUMBER	848	n/a	3	0	n/a	n/a	n/a	n/a	n/a
3703815	RECOG_LURE	n/a	LTP108	ltpFR	3	6	n/a	ANCHOR	21	0	4	n/a	n/a	n/a	n/a	n/a	n/a
3704905	RECOG_RESP	n/a	LTP108	ltpFR	3	6	n/a	ANCHOR	21	0	n/a	n/a	n/a	n/a	n/a	n/a	n/a
3705663	RECOG_CONF	n/a	LTP108	ltpFR	3	6	n/a	ANCHOR	21	n/a	4	n/a	n/a	n/a	n/a	n/a	n/a
3706939	RECOG_TARGET	n/a	LTP108	ltpFR	3	6	-1	STRING	1394	0	1	-1	n/a	n/a	n/a	n/a	n/a
3708013	RECOG_RESP	n/a	LTP108	ltpFR	3	6	-1	STRING	1394	0	n/a	-1	n/a	n/a	n/a	n/a	n/a
3708846	RECOG_CONF	n/a	LTP108	ltpFR	3	6	-1	STRING	1394	n/a	1	-1	n/a	n/a	n/a	n/a	n/a
3710187	RECOG_TARGET	n/a	LTP108	ltpFR	3	6	0	STOOL	1386	1	5	0	n/a	n/a	n/a	n/a	n/a
3711001	RECOG_RESP	n/a	LTP108	ltpFR	3	6	0	STOOL	1386	1	n/a	0	n/a	n/a	n/a	n/a	n/a
3711680	RECOG_CONF	n/a	LTP108	ltpFR	3	6	0	STOOL	1386	n/a	5	0	n/a	n/a	n/a	n/a	n/a
3713078	RECOG_TARGET	n/a	LTP108	ltpFR	3	6	0	COMEDIAN	352	1	5	1	n/a	n/a	n/a	n/a	n/a
3713915	RECOG_RESP	n/a	LTP108	ltpFR	3	6	0	COMEDIAN	352	1	n/a	1	n/a	n/a	n/a	n/a	n/a
3714523	RECOG_CONF	n/a	LTP108	ltpFR	3	6	0	COMEDIAN	352	n/a	5	1	n/a	n/a	n/a	n/a	n/a
3715910	RECOG_TARGET	n/a	LTP108	ltpFR	3	6	1	BATTERY	101	1	5	0	n/a	n/a	n/a	n/a	n/a
3716838	RECOG_RESP	n/a	LTP108	ltpFR	3	6	1	BATTERY	101	1	n/a	0	n/a	n/a	n/a	n/a	n/a
3717437	RECOG_CONF	n/a	LTP108	ltpFR	3	6	1	BATTERY	101	n/a	5	0	n/a	n/a	n/a	n/a	n/a
3718876	RECOG_TARGET	n/a	LTP108	ltpFR	3	6	0	INSECT	740	1	5	0	n/a	n/a	n/a	n/a	n/a
3719861	RECOG_RESP	n/a	LTP108	ltpFR	3	6	0	INSECT	740	1	n/a	0	n/a	n/a	n/a	n/a	n/a
3720559	RECOG_CONF	n/a	LTP108	ltpFR	3	6	0	INSECT	740	n/a	5	0	n/a	n/a	n/a	n/a	n/a
3722058	RECOG_TARGET	n/a	LTP108	ltpFR	3	6	1	BUYER	208	0	1	1	n/a	n/a	n/a	n/a	n/a
3722934	RECOG_RESP	n/a	LTP108	ltpFR	3	6	1	BUYER	208	0	n/a	1	n/a	n/a	n/a	n/a	n/a
3723632	RECOG_CONF	n/a	LTP108	ltpFR	3	6	1	BUYER	208	n/a	1	1	n/a	n/a	n/a	n/a	n/a
3725057	RECOG_LURE	n/a	LTP108	ltpFR	3	6	n/a	FILM	565	0	1	n/a	n/a	n/a	n/a	n/a	n/a
3726132	RECOG_RESP	n/a	LTP108	ltpFR	3	6	n/a	FILM	565	0	n/a	n/a	n/a	n/a	n/a	n/a	n/a
3726895	RECOG_CONF	n/a	LTP108	ltpFR	3	6	n/a	FILM	565	n/a	1	n/a	n/a	n/a	n/a	n/a	n/a
3728231	RECOG_TARGET	n/a	LTP108	ltpFR	3	6	1	SQUIRREL	1362	1	4	1	n/a	n/a	n/a	n/a	n/a
3728930	RECOG_RESP	n/a	LTP108	ltpFR	3	6	1	SQUIRREL	1362	1	n/a	1	n/a	n/a	n/a	n/a	n/a
3729749	RECOG_CONF	n/a	LTP108	ltpFR	3	6	1	SQUIRREL	1362	n/a	4	1	n/a	n/a	n/a	n/a	n/a
3731022	RECOG_TARGET	n/a	LTP108	ltpFR	3	6	0	SUIT	1402	1	3	0	n/a	n/a	n/a	n/a	n/a
3731874	RECOG_RESP	n/a	LTP108	ltpFR	3	6	0	SUIT	1402	1	n/a	0	n/a	n/a	n/a	n/a	n/a
3732652	RECOG_CONF	n/a	LTP108	ltpFR	3	6	0	SUIT	1402	n/a	3	0	n/a	n/a	n/a	n/a	n/a
3733962	RECOG_TARGET	n/a	LTP108	ltpFR	3	6	1	RADIATOR	1156	1	1	0	n/a	n/a	n/a	n/a	n/a
3736064	RECOG_RESP	n/a	LTP108	ltpFR	3	6	1	RADIATOR	1156	1	n/a	0	n/a	n/a	n/a	n/a	n/a
3736813	RECOG_CONF	n/a	LTP108	ltpFR	3	6	1	RADIATOR	1156	n/a	1	0	n/a	n/a	n/a	n/a	n/a
3741565	REC_START	n/a	LTP108	ltpFR	3	7	n/a	n/a	n/a	n/a	n/a	n/a	n/a	n/a	n/a	n/a	n/a
3741601	RECOG_TARGET	n/a	LTP108	ltpFR	3	7	0	SHRUB	1299	1	5	0	n/a	n/a	n/a	n/a	n/a
3742383	RECOG_RESP	n/a	LTP108	ltpFR	3	7	0	SHRUB	1299	1	n/a	0	n/a	n/a	n/a	n/a	n/a
3742977	RECOG_CONF	n/a	LTP108	ltpFR	3	7	0	SHRUB	1299	n/a	5	0	n/a	n/a	n/a	n/a	n/a
3744475	RECOG_LURE	n/a	LTP108	ltpFR	3	7	n/a	CRYSTAL	418	1	1	n/a	n/a	n/a	n/a	n/a	n/a
3745341	RECOG_RESP	n/a	LTP108	ltpFR	3	7	n/a	CRYSTAL	418	1	n/a	n/a	n/a	n/a	n/a	n/a	n/a
3745950	RECOG_CONF	n/a	LTP108	ltpFR	3	7	n/a	CRYSTAL	418	n/a	1	n/a	n/a	n/a	n/a	n/a	n/a
3747283	RECOG_TARGET	n/a	LTP108	ltpFR	3	7	0	GRASSHOPPER	656	1	5	0	n/a	n/a	n/a	n/a	n/a
3748729	RECOG_RESP	n/a	LTP108	ltpFR	3	7	0	GRASSHOPPER	656	1	n/a	0	n/a	n/a	n/a	n/a	n/a
3749631	RECOG_CONF	n/a	LTP108	ltpFR	3	7	0	GRASSHOPPER	656	n/a	5	0	n/a	n/a	n/a	n/a	n/a
3750998	RECOG_TARGET	n/a	LTP108	ltpFR	3	7	0	MINT	898	1	5	0	n/a	n/a	n/a	n/a	n/a
3751717	RECOG_RESP	n/a	LTP108	ltpFR	3	7	0	MINT	898	1	n/a	0	n/a	n/a	n/a	n/a	n/a
3752365	RECOG_CONF	n/a	LTP108	ltpFR	3	7	0	MINT	898	n/a	5	0	n/a	n/a	n/a	n/a	n/a
3753780	RECOG_TARGET	n/a	LTP108	ltpFR	3	7	1	GENERAL	630	1	4	1	n/a	n/a	n/a	n/a	n/a
3754620	RECOG_RESP	n/a	LTP108	ltpFR	3	7	1	GENERAL	630	1	n/a	1	n/a	n/a	n/a	n/a	n/a
3755348	RECOG_CONF	n/a	LTP108	ltpFR	3	7	1	GENERAL	630	n/a	4	1	n/a	n/a	n/a	n/a	n/a
3756721	RECOG_TARGET	n/a	LTP108	ltpFR	3	7	-1	SWORD	1423	1	5	-1	n/a	n/a	n/a	n/a	n/a
3757474	RECOG_RESP	n/a	LTP108	ltpFR	3	7	-1	SWORD	1423	1	n/a	-1	n/a	n/a	n/a	n/a	n/a
3758062	RECOG_CONF	n/a	LTP108	ltpFR	3	7	-1	SWORD	1423	n/a	5	-1	n/a	n/a	n/a	n/a	n/a
3759437	RECOG_TARGET	n/a	LTP108	ltpFR	3	7	1	PUDDLE	1140	1	5	0	n/a	n/a	n/a	n/a	n/a
3761495	RECOG_RESP	n/a	LTP108	ltpFR	3	7	1	PUDDLE	1140	1	n/a	0	n/a	n/a	n/a	n/a	n/a
3762143	RECOG_CONF	n/a	LTP108	ltpFR	3	7	1	PUDDLE	1140	n/a	5	0	n/a	n/a	n/a	n/a	n/a
3763627	RECOG_TARGET	n/a	LTP108	ltpFR	3	7	-1	BLADE	134	1	1	-1	n/a	n/a	n/a	n/a	n/a
3764403	RECOG_RESP	n/a	LTP108	ltpFR	3	7	-1	BLADE	134	1	n/a	-1	n/a	n/a	n/a	n/a	n/a
3765216	RECOG_CONF	n/a	LTP108	ltpFR	3	7	-1	BLADE	134	n/a	1	-1	n/a	n/a	n/a	n/a	n/a
3766676	RECOG_TARGET	n/a	LTP108	ltpFR	3	7	1	WRITER	1627	1	4	1	n/a	n/a	n/a	n/a	n/a
3767611	RECOG_RESP	n/a	LTP108	ltpFR	3	7	1	WRITER	1627	1	n/a	1	n/a	n/a	n/a	n/a	n/a
3768309	RECOG_CONF	n/a	LTP108	ltpFR	3	7	1	WRITER	1627	n/a	4	1	n/a	n/a	n/a	n/a	n/a
3769716	RECOG_TARGET	n/a	LTP108	ltpFR	3	7	1	COSTUME	383	1	5	1	n/a	n/a	n/a	n/a	n/a
3770464	RECOG_RESP	n/a	LTP108	ltpFR	3	7	1	COSTUME	383	1	n/a	1	n/a	n/a	n/a	n/a	n/a
3771212	RECOG_CONF	n/a	LTP108	ltpFR	3	7	1	COSTUME	383	n/a	5	1	n/a	n/a	n/a	n/a	n/a
3772665	RECOG_TARGET	n/a	LTP108	ltpFR	3	7	-1	DRIVER	499	1	1	-1	n/a	n/a	n/a	n/a	n/a
3773328	RECOG_RESP	n/a	LTP108	ltpFR	3	7	-1	DRIVER	499	1	n/a	-1	n/a	n/a	n/a	n/a	n/a
3774046	RECOG_CONF	n/a	LTP108	ltpFR	3	7	-1	DRIVER	499	n/a	1	-1	n/a	n/a	n/a	n/a	n/a
3775498	RECOG_TARGET	n/a	LTP108	ltpFR	3	7	1	BARK	87	1	5	0	n/a	n/a	n/a	n/a	n/a
3776126	RECOG_RESP	n/a	LTP108	ltpFR	3	7	1	BARK	87	1	n/a	0	n/a	n/a	n/a	n/a	n/a
3776770	RECOG_CONF	n/a	LTP108	ltpFR	3	7	1	BARK	87	n/a	5	0	n/a	n/a	n/a	n/a	n/a
3778055	RECOG_TARGET	n/a	LTP108	ltpFR	3	7	1	AWARD	63	0	1	0	n/a	n/a	n/a	n/a	n/a
3778850	RECOG_RESP_VV	n/a	LTP108	ltpFR	3	7	1	AWARD	63	1	n/a	0	n/a	n/a	n/a	n/a	n/a
3779489	RECOG_RESP	n/a	LTP108	ltpFR	3	7	1	AWARD	63	0	n/a	0	n/a	n/a	n/a	n/a	n/a
3781918	RECOG_CONF	n/a	LTP108	ltpFR	3	7	1	AWARD	63	n/a	1	0	n/a	n/a	n/a	n/a	n/a
3783336	RECOG_LURE	n/a	LTP108	ltpFR	3	7	n/a	SHELL	1281	0	4	n/a	n/a	n/a	n/a	n/a	n/a
3785704	RECOG_RESP	n/a	LTP108	ltpFR	3	7	n/a	SHELL	1281	0	n/a	n/a	n/a	n/a	n/a	n/a	n/a
3786418	RECOG_CONF	n/a	LTP108	ltpFR	3	7	n/a	SHELL	1281	n/a	4	n/a	n/a	n/a	n/a	n/a	n/a
3787818	RECOG_TARGET	n/a	LTP108	ltpFR	3	7	1	GOAT	644	1	1	1	n/a	n/a	n/a	n/a	n/a
3788713	RECOG_RESP	n/a	LTP108	ltpFR	3	7	1	GOAT	644	1	n/a	1	n/a	n/a	n/a	n/a	n/a
3789441	RECOG_CONF	n/a	LTP108	ltpFR	3	7	1	GOAT	644	n/a	1	1	n/a	n/a	n/a	n/a	n/a
3790934	RECOG_TARGET	n/a	LTP108	ltpFR	3	7	0	FRUIT	610	1	5	0	n/a	n/a	n/a	n/a	n/a
3791536	RECOG_RESP	n/a	LTP108	ltpFR	3	7	0	FRUIT	610	1	n/a	0	n/a	n/a	n/a	n/a	n/a
3792115	RECOG_CONF	n/a	LTP108	ltpFR	3	7	0	FRUIT	610	n/a	5	0	n/a	n/a	n/a	n/a	n/a
3793533	RECOG_TARGET	n/a	LTP108	ltpFR	3	7	-1	KIDNEY	776	1	5	-1	n/a	n/a	n/a	n/a	n/a
3794190	RECOG_RESP	n/a	LTP108	ltpFR	3	7	-1	KIDNEY	776	1	n/a	-1	n/a	n/a	n/a	n/a	n/a
3794799	RECOG_CONF	n/a	LTP108	ltpFR	3	7	-1	KIDNEY	776	n/a	5	-1	n/a	n/a	n/a	n/a	n/a
3796207	RECOG_TARGET	n/a	LTP108	ltpFR	3	7	0	BOAT	144	1	5	0	n/a	n/a	n/a	n/a	n/a
3796869	RECOG_RESP	n/a	LTP108	ltpFR	3	7	0	BOAT	144	1	n/a	0	n/a	n/a	n/a	n/a	n/a
3797523	RECOG_CONF	n/a	LTP108	ltpFR	3	7	0	BOAT	144	n/a	5	0	n/a	n/a	n/a	n/a	n/a
3798914	RECOG_TARGET	n/a	LTP108	ltpFR	3	7	0	BAG	69	1	5	0	n/a	n/a	n/a	n/a	n/a
3799623	RECOG_RESP	n/a	LTP108	ltpFR	3	7	0	BAG	69	1	n/a	0	n/a	n/a	n/a	n/a	n/a
3800256	RECOG_CONF	n/a	LTP108	ltpFR	3	7	0	BAG	69	n/a	5	0	n/a	n/a	n/a	n/a	n/a
3801688	RECOG_TARGET	n/a	LTP108	ltpFR	3	7	-1	PENCIL	1042	1	1	-1	n/a	n/a	n/a	n/a	n/a
3802382	RECOG_RESP	n/a	LTP108	ltpFR	3	7	-1	PENCIL	1042	1	n/a	-1	n/a	n/a	n/a	n/a	n/a
3803090	RECOG_CONF	n/a	LTP108	ltpFR	3	7	-1	PENCIL	1042	n/a	1	-1	n/a	n/a	n/a	n/a	n/a
3806599	REC_START	n/a	LTP108	ltpFR	3	8	n/a	n/a	n/a	n/a	n/a	n/a	n/a	n/a	n/a	n/a	n/a
3806636	RECOG_LURE	n/a	LTP108	ltpFR	3	8	n/a	PAINT	1003	0	1	n/a	n/a	n/a	n/a	n/a	n/a
3807651	RECOG_RESP	n/a	LTP108	ltpFR	3	8	n/a	PAINT	1003	0	n/a	n/a	n/a	n/a	n/a	n/a	n/a
3808330	RECOG_CONF	n/a	LTP108	ltpFR	3	8	n/a	PAINT	1003	n/a	1	n/a	n/a	n/a	n/a	n/a	n/a
3809685	RECOG_LURE	n/a	LTP108	ltpFR	3	8	n/a	ANGEL	22	0	1	n/a	n/a	n/a	n/a	n/a	n/a
3810809	RECOG_RESP	n/a	LTP108	ltpFR	3	8	n/a	ANGEL	22	0	n/a	n/a	n/a	n/a	n/a	n/a	n/a
3811582	RECOG_CONF	n/a	LTP108	ltpFR	3	8	n/a	ANGEL	22	n/a	1	n/a	n/a	n/a	n/a	n/a	n/a
3812968	RECOG_TARGET	n/a	LTP108	ltpFR	3	8	1	ASSOCIATE	49	1	5	1	n/a	n/a	n/a	n/a	n/a
3813708	RECOG_RESP	n/a	LTP108	ltpFR	3	8	1	ASSOCIATE	49	1	n/a	1	n/a	n/a	n/a	n/a	n/a
3814246	RECOG_CONF	n/a	LTP108	ltpFR	3	8	1	ASSOCIATE	49	n/a	5	1	n/a	n/a	n/a	n/a	n/a
3815650	RECOG_TARGET	n/a	LTP108	ltpFR	3	8	0	FLOWER	584	1	5	0	n/a	n/a	n/a	n/a	n/a
3817000	RECOG_RESP	n/a	LTP108	ltpFR	3	8	0	FLOWER	584	1	n/a	0	n/a	n/a	n/a	n/a	n/a
3817599	RECOG_CONF	n/a	LTP108	ltpFR	3	8	0	FLOWER	584	n/a	5	0	n/a	n/a	n/a	n/a	n/a
3818990	RECOG_TARGET	n/a	LTP108	ltpFR	3	8	-1	GHETTO	633	1	5	-1	n/a	n/a	n/a	n/a	n/a
3819794	RECOG_RESP	n/a	LTP108	ltpFR	3	8	-1	GHETTO	633	1	n/a	-1	n/a	n/a	n/a	n/a	n/a
3820382	RECOG_CONF	n/a	LTP108	ltpFR	3	8	-1	GHETTO	633	n/a	5	-1	n/a	n/a	n/a	n/a	n/a
3821806	RECOG_TARGET	n/a	LTP108	ltpFR	3	8	1	UNIFORM	1539	1	5	0	n/a	n/a	n/a	n/a	n/a
3822458	RECOG_RESP	n/a	LTP108	ltpFR	3	8	1	UNIFORM	1539	1	n/a	0	n/a	n/a	n/a	n/a	n/a
3823007	RECOG_CONF	n/a	LTP108	ltpFR	3	8	1	UNIFORM	1539	n/a	5	0	n/a	n/a	n/a	n/a	n/a
3824330	RECOG_LURE	n/a	LTP108	ltpFR	3	8	n/a	MONSTER	912	0	4	n/a	n/a	n/a	n/a	n/a	n/a
3825221	RECOG_RESP	n/a	LTP108	ltpFR	3	8	n/a	MONSTER	912	0	n/a	n/a	n/a	n/a	n/a	n/a	n/a
3825880	RECOG_CONF	n/a	LTP108	ltpFR	3	8	n/a	MONSTER	912	n/a	4	n/a	n/a	n/a	n/a	n/a	n/a
3827237	RECOG_LURE	n/a	LTP108	ltpFR	3	8	n/a	WAVE	1596	0	3	n/a	n/a	n/a	n/a	n/a	n/a
3828280	RECOG_RESP	n/a	LTP108	ltpFR	3	8	n/a	WAVE	1596	0	n/a	n/a	n/a	n/a	n/a	n/a	n/a
3828983	RECOG_CONF	n/a	LTP108	ltpFR	3	8	n/a	WAVE	1596	n/a	3	n/a	n/a	n/a	n/a	n/a	n/a
3830361	RECOG_TARGET	n/a	LTP108	ltpFR	3	8	-1	BARREL	91	0	1	-1	n/a	n/a	n/a	n/a	n/a
3831422	RECOG_RESP	n/a	LTP108	ltpFR	3	8	-1	BARREL	91	0	n/a	-1	n/a	n/a	n/a	n/a	n/a
3832066	RECOG_CONF	n/a	LTP108	ltpFR	3	8	-1	BARREL	91	n/a	1	-1	n/a	n/a	n/a	n/a	n/a
3833469	RECOG_TARGET	n/a	LTP108	ltpFR	3	8	1	TERMITE	1451	1	5	1	n/a	n/a	n/a	n/a	n/a
3834241	RECOG_RESP	n/a	LTP108	ltpFR	3	8	1	TERMITE	1451	1	n/a	1	n/a	n/a	n/a	n/a	n/a
3834800	RECOG_CONF	n/a	LTP108	ltpFR	3	8	1	TERMITE	1451	n/a	5	1	n/a	n/a	n/a	n/a	n/a
3836201	RECOG_TARGET	n/a	LTP108	ltpFR	3	8	1	SALT	1229	1	4	0	n/a	n/a	n/a	n/a	n/a
3837479	RECOG_RESP	n/a	LTP108	ltpFR	3	8	1	SALT	1229	1	n/a	0	n/a	n/a	n/a	n/a	n/a
3838272	RECOG_CONF	n/a	LTP108	ltpFR	3	8	1	SALT	1229	n/a	4	0	n/a	n/a	n/a	n/a	n/a
3839675	RECOG_TARGET	n/a	LTP108	ltpFR	3	8	0	LIPSTICK	829	1	5	0	n/a	n/a	n/a	n/a	n/a
3840437	RECOG_RESP	n/a	LTP108	ltpFR	3	8	0	LIPSTICK	829	1	n/a	0	n/a	n/a	n/a	n/a	n/a
3841075	RECOG_CONF	n/a	LTP108	ltpFR	3	8	0	LIPSTICK	829	n/a	5	0	n/a	n/a	n/a	n/a	n/a
3842424	RECOG_LURE	n/a	LTP108	ltpFR	3	8	n/a	SUN	1406	0	4	n/a	n/a	n/a	n/a	n/a	n/a
3843171	RECOG_RESP	n/a	LTP108	ltpFR	3	8	n/a	SUN	1406	0	n/a	n/a	n/a	n/a	n/a	n/a	n/a
3843909	RECOG_CONF	n/a	LTP108	ltpFR	3	8	n/a	SUN	1406	n/a	4	n/a	n/a	n/a	n/a	n/a	n/a
3845264	RECOG_LURE	n/a	LTP108	ltpFR	3	8	n/a	DESK	452	0	5	n/a	n/a	n/a	n/a	n/a	n/a
3846174	RECOG_RESP	n/a	LTP108	ltpFR	3	8	n/a	DESK	452	0	n/a	n/a	n/a	n/a	n/a	n/a	n/a
3846846	RECOG_CONF	n/a	LTP108	ltpFR	3	8	n/a	DESK	452	n/a	5	n/a	n/a	n/a	n/a	n/a	n/a
3848205	RECOG_LURE	n/a	LTP108	ltpFR	3	8	n/a	HURRICANE	727	1	2	n/a	n/a	n/a	n/a	n/a	n/a
3850255	RECOG_RESP	n/a	LTP108	ltpFR	3	8	n/a	HURRICANE	727	1	n/a	n/a	n/a	n/a	n/a	n/a	n/a
3851033	RECOG_CONF	n/a	LTP108	ltpFR	3	8	n/a	HURRICANE	727	n/a	2	n/a	n/a	n/a	n/a	n/a	n/a
3852437	RECOG_LURE	n/a	LTP108	ltpFR	3	8	n/a	FLAG	573	0	2	n/a	n/a	n/a	n/a	n/a	n/a
3853991	RECOG_RESP	n/a	LTP108	ltpFR	3	8	n/a	FLAG	573	0	n/a	n/a	n/a	n/a	n/a	n/a	n/a
3854794	RECOG_CONF	n/a	LTP108	ltpFR	3	8	n/a	FLAG	573	n/a	2	n/a	n/a	n/a	n/a	n/a	n/a
3856260	RECOG_TARGET	n/a	LTP108	ltpFR	3	8	-1	PIANO	1057	1	5	-1	n/a	n/a	n/a	n/a	n/a
3856934	RECOG_RESP	n/a	LTP108	ltpFR	3	8	-1	PIANO	1057	1	n/a	-1	n/a	n/a	n/a	n/a	n/a
3857498	RECOG_CONF	n/a	LTP108	ltpFR	3	8	-1	PIANO	1057	n/a	5	-1	n/a	n/a	n/a	n/a	n/a
3859001	RECOG_LURE	n/a	LTP108	ltpFR	3	8	n/a	SHACK	1273	1	1	n/a	n/a	n/a	n/a	n/a	n/a
3860691	RECOG_RESP	n/a	LTP108	ltpFR	3	8	n/a	SHACK	1273	1	n/a	n/a	n/a	n/a	n/a	n/a	n/a
3861329	RECOG_CONF	n/a	LTP108	ltpFR	3	8	n/a	SHACK	1273	n/a	1	n/a	n/a	n/a	n/a	n/a	n/a
3862808	RECOG_LURE	n/a	LTP108	ltpFR	3	8	n/a	SQUID	1361	0	2	n/a	n/a	n/a	n/a	n/a	n/a
3864023	RECOG_RESP	n/a	LTP108	ltpFR	3	8	n/a	SQUID	1361	0	n/a	n/a	n/a	n/a	n/a	n/a	n/a
3864742	RECOG_CONF	n/a	LTP108	ltpFR	3	8	n/a	SQUID	1361	n/a	2	n/a	n/a	n/a	n/a	n/a	n/a
3866157	RECOG_TARGET	n/a	LTP108	ltpFR	3	8	1	SUSPECT	1415	1	5	1	n/a	n/a	n/a	n/a	n/a
3866987	RECOG_RESP	n/a	LTP108	ltpFR	3	8	1	SUSPECT	1415	1	n/a	1	n/a	n/a	n/a	n/a	n/a
3867635	RECOG_CONF	n/a	LTP108	ltpFR	3	8	1	SUSPECT	1415	n/a	5	1	n/a	n/a	n/a	n/a	n/a
3873321	REC_START	n/a	LTP108	ltpFR	3	9	n/a	n/a	n/a	n/a	n/a	n/a	n/a	n/a	n/a	n/a	n/a
3873354	RECOG_TARGET	n/a	LTP108	ltpFR	3	9	1	SADDLE	1221	1	5	0	n/a	n/a	n/a	n/a	n/a
3874164	RECOG_RESP	n/a	LTP108	ltpFR	3	9	1	SADDLE	1221	1	n/a	0	n/a	n/a	n/a	n/a	n/a
3874733	RECOG_CONF	n/a	LTP108	ltpFR	3	9	1	SADDLE	1221	n/a	5	0	n/a	n/a	n/a	n/a	n/a
3876178	RECOG_TARGET	n/a	LTP108	ltpFR	3	9	-1	THIEF	1456	1	5	-1	n/a	n/a	n/a	n/a	n/a
3876788	RECOG_RESP	n/a	LTP108	ltpFR	3	9	-1	THIEF	1456	1	n/a	-1	n/a	n/a	n/a	n/a	n/a
3877426	RECOG_CONF	n/a	LTP108	ltpFR	3	9	-1	THIEF	1456	n/a	5	-1	n/a	n/a	n/a	n/a	n/a
3878902	RECOG_LURE	n/a	LTP108	ltpFR	3	9	n/a	BOOTH	151	1	1	n/a	n/a	n/a	n/a	n/a	n/a
3880230	RECOG_RESP	n/a	LTP108	ltpFR	3	9	n/a	BOOTH	151	1	n/a	n/a	n/a	n/a	n/a	n/a	n/a
3880919	RECOG_CONF	n/a	LTP108	ltpFR	3	9	n/a	BOOTH	151	n/a	1	n/a	n/a	n/a	n/a	n/a	n/a
3882351	RECOG_TARGET	n/a	LTP108	ltpFR	3	9	-1	SALAD	1224	1	5	-1	n/a	n/a	n/a	n/a	n/a
3883498	RECOG_RESP	n/a	LTP108	ltpFR	3	9	-1	SALAD	1224	1	n/a	-1	n/a	n/a	n/a	n/a	n/a
3884031	RECOG_CONF	n/a	LTP108	ltpFR	3	9	-1	SALAD	1224	n/a	5	-1	n/a	n/a	n/a	n/a	n/a
3885442	RECOG_TARGET	n/a	LTP108	ltpFR	3	9	1	NOSE	957	1	1	0	n/a	n/a	n/a	n/a	n/a
3886097	RECOG_RESP	n/a	LTP108	ltpFR	3	9	1	NOSE	957	1	n/a	0	n/a	n/a	n/a	n/a	n/a
3886815	RECOG_CONF	n/a	LTP108	ltpFR	3	9	1	NOSE	957	n/a	1	0	n/a	n/a	n/a	n/a	n/a
3888207	RECOG_TARGET	n/a	LTP108	ltpFR	3	9	-1	GANGSTER	620	1	4	-1	n/a	n/a	n/a	n/a	n/a
3889344	RECOG_RESP	n/a	LTP108	ltpFR	3	9	-1	GANGSTER	620	1	n/a	-1	n/a	n/a	n/a	n/a	n/a
3889928	RECOG_CONF	n/a	LTP108	ltpFR	3	9	-1	GANGSTER	620	n/a	4	-1	n/a	n/a	n/a	n/a	n/a
3891331	RECOG_TARGET	n/a	LTP108	ltpFR	3	9	0	PLAID	1080	1	5	0	n/a	n/a	n/a	n/a	n/a
3891998	RECOG_RESP	n/a	LTP108	ltpFR	3	9	0	PLAID	1080	1	n/a	0	n/a	n/a	n/a	n/a	n/a
3892492	RECOG_CONF	n/a	LTP108	ltpFR	3	9	0	PLAID	1080	n/a	5	0	n/a	n/a	n/a	n/a	n/a
3893939	RECOG_LURE	n/a	LTP108	ltpFR	3	9	n/a	SHIP	1286	0	1	n/a	n/a	n/a	n/a	n/a	n/a
3895426	RECOG_RESP	n/a	LTP108	ltpFR	3	9	n/a	SHIP	1286	0	n/a	n/a	n/a	n/a	n/a	n/a	n/a
3896154	RECOG_CONF	n/a	LTP108	ltpFR	3	9	n/a	SHIP	1286	n/a	1	n/a	n/a	n/a	n/a	n/a	n/a
3897437	RECOG_LURE	n/a	LTP108	ltpFR	3	9	n/a	EARTH	515	0	4	n/a	n/a	n/a	n/a	n/a	n/a
3898349	RECOG_RESP	n/a	LTP108	ltpFR	3	9	n/a	EARTH	515	0	n/a	n/a	n/a	n/a	n/a	n/a	n/a
3899127	RECOG_CONF	n/a	LTP108	ltpFR	3	9	n/a	EARTH	515	n/a	4	n/a	n/a	n/a	n/a	n/a	n/a
3900436	RECOG_TARGET	n/a	LTP108	ltpFR	3	9	0	FACE	547	1	3	0	n/a	n/a	n/a	n/a	n/a
3902041	RECOG_RESP	n/a	LTP108	ltpFR	3	9	0	FACE	547	1	n/a	0	n/a	n/a	n/a	n/a	n/a
3902819	RECOG_CONF	n/a	LTP108	ltpFR	3	9	0	FACE	547	n/a	3	0	n/a	n/a	n/a	n/a	n/a
3904177	RECOG_TARGET	n/a	LTP108	ltpFR	3	9	1	SEA	1259	0	1	0	n/a	n/a	n/a	n/a	n/a
3905553	RECOG_RESP	n/a	LTP108	ltpFR	3	9	1	SEA	1259	0	n/a	0	n/a	n/a	n/a	n/a	n/a
3906191	RECOG_CONF	n/a	LTP108	ltpFR	3	9	1	SEA	1259	n/a	1	0	n/a	n/a	n/a	n/a	n/a
3907642	RECOG_TARGET	n/a	LTP108	ltpFR	3	9	-1	TOOL	1480	1	5	-1	n/a	n/a	n/a	n/a	n/a
3908281	RECOG_RESP	n/a	LTP108	ltpFR	3	9	-1	TOOL	1480	1	n/a	-1	n/a	n/a	n/a	n/a	n/a
3908915	RECOG_CONF	n/a	LTP108	ltpFR	3	9	-1	TOOL	1480	n/a	5	-1	n/a	n/a	n/a	n/a	n/a
3910275	RECOG_TARGET	n/a	LTP108	ltpFR	3	9	1	APARTMENT	30	0	4	0	n/a	n/a	n/a	n/a	n/a
3911170	RECOG_RESP	n/a	LTP108	ltpFR	3	9	1	APARTMENT	30	0	n/a	0	n/a	n/a	n/a	n/a	n/a
3911778	RECOG_CONF	n/a	LTP108	ltpFR	3	9	1	APARTMENT	30	n/a	4	0	n/a	n/a	n/a	n/a	n/a
3913199	RECOG_TARGET	n/a	LTP108	ltpFR	3	9	-1	CREAM	402	0	1	-1	n/a	n/a	n/a	n/a	n/a
3914208	RECOG_RESP	n/a	LTP108	ltpFR	3	9	-1	CREAM	402	0	n/a	-1	n/a	n/a	n/a	n/a	n/a
3914881	RECOG_CONF	n/a	LTP108	ltpFR	3	9	-1	CREAM	402	n/a	1	-1	n/a	n/a	n/a	n/a	n/a
3916264	RECOG_LURE	n/a	LTP108	ltpFR	3	9	n/a	THRONE	1461	0	5	n/a	n/a	n/a	n/a	n/a	n/a
3917176	RECOG_RESP	n/a	LTP108	ltpFR	3	9	n/a	THRONE	1461	0	n/a	n/a	n/a	n/a	n/a	n/a	n/a
3918034	RECOG_CONF	n/a	LTP108	ltpFR	3	9	n/a	THRONE	1461	n/a	5	n/a	n/a	n/a	n/a	n/a	n/a
3919430	RECOG_TARGET	n/a	LTP108	ltpFR	3	9	1	LODGE	839	1	4	0	n/a	n/a	n/a	n/a	n/a
3920399	RECOG_RESP	n/a	LTP108	ltpFR	3	9	1	LODGE	839	1	n/a	0	n/a	n/a	n/a	n/a	n/a
3921047	RECOG_CONF	n/a	LTP108	ltpFR	3	9	1	LODGE	839	n/a	4	0	n/a	n/a	n/a	n/a	n/a
