mstime	trial_type	stim_file	subject	experiment	session	trial	task	item_name	item_num	recog_conf	resp	answer	test_x	test_y	test_z	color_b	color_g	color_r	case	font
0	SESS_START	n/a	LTP207	ltpFR	9	n/a	n/a	n/a	n/a	4	n/a	n/a	0	0	0	n/a	n/a	n/a	n/a	n/a
46879	START	n/a	LTP207	ltpFR	9	n/a	n/a	n/a	n/a	n/a	n/a	n/a	n/a	n/a	n/a	n/a	n/a	n/a	n/a	n/a
46912	PROB	n/a	LTP207	ltpFR	9	n/a	n/a	n/a	n/a	n/a	n/a	18	9	2	7	n/a	n/a	n/a	n/a	n/a
49341	PROB	n/a	LTP207	ltpFR	9	n/a	n/a	n/a	n/a	n/a	n/a	16	6	5	5	n/a	n/a	n/a	n/a	n/a
50939	PROB	n/a	LTP207	ltpFR	9	n/a	n/a	n/a	n/a	n/a	n/a	16	4	8	4	n/a	n/a	n/a	n/a	n/a
53336	PROB	n/a	LTP207	ltpFR	9	n/a	n/a	n/a	n/a	n/a	n/a	9	1	7	1	n/a	n/a	n/a	n/a	n/a
54716	PROB	n/a	LTP207	ltpFR	9	n/a	n/a	n/a	n/a	n/a	n/a	17	9	4	4	n/a	n/a	n/a	n/a	n/a
56530	PROB	n/a	LTP207	ltpFR	9	n/a	n/a	n/a	n/a	n/a	n/a	27	9	9	6	n/a	n/a	n/a	n/a	n/a
59509	PROB	n/a	LTP207	ltpFR	9	n/a	n/a	n/a	n/a	n/a	n/a	20	8	8	3	n/a	n/a	n/a	n/a	n/a
62156	PROB	n/a	LTP207	ltpFR	9	n/a	n/a	n/a	n/a	n/a	n/a	12	7	4	1	n/a	n/a	n/a	n/a	n/a
64902	PROB	n/a	LTP207	ltpFR	9	n/a	n/a	n/a	n/a	n/a	n/a	16	3	7	6	n/a	n/a	n/a	n/a	n/a
66127	STOP	n/a	LTP207	ltpFR	9	n/a	n/a	n/a	n/a	n/a	n/a	n/a	n/a	n/a	n/a	n/a	n/a	n/a	n/a	n/a
121516	WORD	wordpools/wasnorm_wordpool_less_exclusions.txt	LTP207	ltpFR	9	1	1	LIME	823	n/a	0	n/a	0	0	0	1	0.412841796875	0.57763671875	upper	../fonts/zerothre.ttf
125610	WORD	wordpools/wasnorm_wordpool_less_exclusions.txt	LTP207	ltpFR	9	1	1	EARTH	515	n/a	0	n/a	0	0	0	1	0.412841796875	0.57763671875	upper	../fonts/zerothre.ttf
129455	WORD	wordpools/wasnorm_wordpool_less_exclusions.txt	LTP207	ltpFR	9	1	1	CHIP	303	n/a	0	n/a	0	0	0	1	0.412841796875	0.57763671875	upper	../fonts/zerothre.ttf
133481	WORD	wordpools/wasnorm_wordpool_less_exclusions.txt	LTP207	ltpFR	9	1	1	COBBLER	335	n/a	0	n/a	0	0	0	1	0.412841796875	0.57763671875	upper	../fonts/zerothre.ttf
137377	WORD	wordpools/wasnorm_wordpool_less_exclusions.txt	LTP207	ltpFR	9	1	1	FLY	586	n/a	1	n/a	0	0	0	1	0.412841796875	0.57763671875	upper	../fonts/zerothre.ttf
141304	WORD	wordpools/wasnorm_wordpool_less_exclusions.txt	LTP207	ltpFR	9	1	1	CATERPILLAR	259	n/a	1	n/a	0	0	0	1	0.412841796875	0.57763671875	upper	../fonts/zerothre.ttf
145248	WORD	wordpools/wasnorm_wordpool_less_exclusions.txt	LTP207	ltpFR	9	1	1	TAVERN	1437	n/a	0	n/a	0	0	0	1	0.412841796875	0.57763671875	upper	../fonts/zerothre.ttf
149109	WORD	wordpools/wasnorm_wordpool_less_exclusions.txt	LTP207	ltpFR	9	1	1	SALOON	1228	n/a	0	n/a	0	0	0	1	0.412841796875	0.57763671875	upper	../fonts/zerothre.ttf
153253	WORD	wordpools/wasnorm_wordpool_less_exclusions.txt	LTP207	ltpFR	9	1	1	RAFT	1159	n/a	0	n/a	0	0	0	1	0.412841796875	0.57763671875	upper	../fonts/zerothre.ttf
157097	WORD	wordpools/wasnorm_wordpool_less_exclusions.txt	LTP207	ltpFR	9	1	1	METEOR	889	n/a	0	n/a	0	0	0	1	0.412841796875	0.57763671875	upper	../fonts/zerothre.ttf
161125	WORD	wordpools/wasnorm_wordpool_less_exclusions.txt	LTP207	ltpFR	9	1	1	CHAPEL	280	n/a	0	n/a	0	0	0	1	0.412841796875	0.57763671875	upper	../fonts/zerothre.ttf
165218	WORD	wordpools/wasnorm_wordpool_less_exclusions.txt	LTP207	ltpFR	9	1	1	LEMON	810	n/a	0	n/a	0	0	0	1	0.412841796875	0.57763671875	upper	../fonts/zerothre.ttf
169412	WORD	wordpools/wasnorm_wordpool_less_exclusions.txt	LTP207	ltpFR	9	1	1	REEF	1177	n/a	0	n/a	0	0	0	1	0.412841796875	0.57763671875	upper	../fonts/zerothre.ttf
173340	WORD	wordpools/wasnorm_wordpool_less_exclusions.txt	LTP207	ltpFR	9	1	1	RODENT	1204	n/a	1	n/a	0	0	0	1	0.412841796875	0.57763671875	upper	../fonts/zerothre.ttf
177217	WORD	wordpools/wasnorm_wordpool_less_exclusions.txt	LTP207	ltpFR	9	1	1	DOOR	486	n/a	0	n/a	0	0	0	1	0.412841796875	0.57763671875	upper	../fonts/zerothre.ttf
181328	WORD	wordpools/wasnorm_wordpool_less_exclusions.txt	LTP207	ltpFR	9	1	1	BARLEY	88	n/a	0	n/a	0	0	0	1	0.412841796875	0.57763671875	upper	../fonts/zerothre.ttf
184340	START	n/a	LTP207	ltpFR	9	n/a	n/a	n/a	n/a	n/a	n/a	n/a	n/a	n/a	n/a	n/a	n/a	n/a	n/a	n/a
185537	PROB	n/a	LTP207	ltpFR	9	n/a	n/a	n/a	n/a	n/a	n/a	10	6	1	3	n/a	n/a	n/a	n/a	n/a
187601	PROB	n/a	LTP207	ltpFR	9	n/a	n/a	n/a	n/a	n/a	n/a	21	4	8	9	n/a	n/a	n/a	n/a	n/a
189731	PROB	n/a	LTP207	ltpFR	9	n/a	n/a	n/a	n/a	n/a	n/a	25	7	9	9	n/a	n/a	n/a	n/a	n/a
191718	STOP	n/a	LTP207	ltpFR	9	n/a	n/a	n/a	n/a	n/a	n/a	n/a	n/a	n/a	n/a	n/a	n/a	n/a	n/a	n/a
194142	REC_START	n/a	LTP207	ltpFR	9	1	n/a	n/a	n/a	n/a	n/a	n/a	0	0	0	n/a	n/a	n/a	n/a	n/a
195633	REC_WORD	wordpools/wasnorm_wordpool_less_exclusions.txt	LTP207	ltpFR	9	1	1	REEF	1177	n/a	0	n/a	0	0	0	n/a	n/a	n/a	n/a	n/a
197045	REC_WORD	wordpools/wasnorm_wordpool_less_exclusions.txt	LTP207	ltpFR	9	1	1	BARLEY	88	n/a	0	n/a	0	0	0	n/a	n/a	n/a	n/a	n/a
199230	REC_WORD	wordpools/wasnorm_wordpool_less_exclusions.txt	LTP207	ltpFR	9	1	1	TAVERN	1437	n/a	0	n/a	0	0	0	n/a	n/a	n/a	n/a	n/a
201016	REC_WORD	wordpools/wasnorm_wordpool_less_exclusions.txt	LTP207	ltpFR	9	1	1	LEMON	810	n/a	0	n/a	0	0	0	n/a	n/a	n/a	n/a	n/a
201974	REC_WORD	wordpools/wasnorm_wordpool_less_exclusions.txt	LTP207	ltpFR	9	1	1	LIME	823	n/a	0	n/a	0	0	0	n/a	n/a	n/a	n/a	n/a
205077	REC_WORD	wordpools/wasnorm_wordpool_less_exclusions.txt	LTP207	ltpFR	9	1	1	CHIP	303	n/a	0	n/a	0	0	0	n/a	n/a	n/a	n/a	n/a
209306	REC_WORD	wordpools/wasnorm_wordpool_less_exclusions.txt	LTP207	ltpFR	9	1	1	FLY	586	n/a	1	n/a	0	0	0	n/a	n/a	n/a	n/a	n/a
211822	REC_WORD	wordpools/wasnorm_wordpool_less_exclusions.txt	LTP207	ltpFR	9	1	1	CATERPILLAR	259	n/a	1	n/a	0	0	0	n/a	n/a	n/a	n/a	n/a
217698	REC_WORD	wordpools/wasnorm_wordpool_less_exclusions.txt	LTP207	ltpFR	9	1	1	SALOON	1228	n/a	0	n/a	0	0	0	n/a	n/a	n/a	n/a	n/a
222792	REC_WORD	wordpools/wasnorm_wordpool_less_exclusions.txt	LTP207	ltpFR	9	1	1	RODENT	1204	n/a	1	n/a	0	0	0	n/a	n/a	n/a	n/a	n/a
225974	REC_WORD	wordpools/wasnorm_wordpool_less_exclusions.txt	LTP207	ltpFR	9	1	1	EARTH	515	n/a	0	n/a	0	0	0	n/a	n/a	n/a	n/a	n/a
257949	REC_WORD	wordpools/wasnorm_wordpool_less_exclusions.txt	LTP207	ltpFR	9	1	n/a	CATHEDRAL	260	n/a	n/a	n/a	0	0	0	n/a	n/a	n/a	n/a	n/a
283143	START	n/a	LTP207	ltpFR	9	n/a	n/a	n/a	n/a	n/a	n/a	n/a	n/a	n/a	n/a	n/a	n/a	n/a	n/a	n/a
284656	PROB	n/a	LTP207	ltpFR	9	n/a	n/a	n/a	n/a	n/a	n/a	7	2	2	3	n/a	n/a	n/a	n/a	n/a
287452	PROB	n/a	LTP207	ltpFR	9	n/a	n/a	n/a	n/a	n/a	n/a	17	9	6	2	n/a	n/a	n/a	n/a	n/a
289498	PROB	n/a	LTP207	ltpFR	9	n/a	n/a	n/a	n/a	n/a	n/a	11	1	3	7	n/a	n/a	n/a	n/a	n/a
290951	STOP	n/a	LTP207	ltpFR	9	n/a	n/a	n/a	n/a	n/a	n/a	n/a	n/a	n/a	n/a	n/a	n/a	n/a	n/a	n/a
291996	WORD	wordpools/wasnorm_wordpool_less_exclusions.txt	LTP207	ltpFR	9	2	0	CASHEW	253	n/a	0	n/a	0	0	0	0	0.5869140625	0.422607421875	lower	../fonts/amplitud.ttf
295008	START	n/a	LTP207	ltpFR	9	n/a	n/a	n/a	n/a	n/a	n/a	n/a	n/a	n/a	n/a	n/a	n/a	n/a	n/a	n/a
296056	PROB	n/a	LTP207	ltpFR	9	n/a	n/a	n/a	n/a	n/a	n/a	13	3	4	6	n/a	n/a	n/a	n/a	n/a
297553	PROB	n/a	LTP207	ltpFR	9	n/a	n/a	n/a	n/a	n/a	n/a	8	3	1	4	n/a	n/a	n/a	n/a	n/a
299185	PROB	n/a	LTP207	ltpFR	9	n/a	n/a	n/a	n/a	n/a	n/a	15	6	3	6	n/a	n/a	n/a	n/a	n/a
303007	STOP	n/a	LTP207	ltpFR	9	n/a	n/a	n/a	n/a	n/a	n/a	n/a	n/a	n/a	n/a	n/a	n/a	n/a	n/a	n/a
303961	WORD	wordpools/wasnorm_wordpool_less_exclusions.txt	LTP207	ltpFR	9	2	0	KEYBOARD	774	n/a	1	n/a	0	0	0	0	0.5869140625	0.422607421875	lower	../fonts/amplitud.ttf
306974	START	n/a	LTP207	ltpFR	9	n/a	n/a	n/a	n/a	n/a	n/a	n/a	n/a	n/a	n/a	n/a	n/a	n/a	n/a	n/a
308088	PROB	n/a	LTP207	ltpFR	9	n/a	n/a	n/a	n/a	n/a	n/a	12	7	1	4	n/a	n/a	n/a	n/a	n/a
310002	PROB	n/a	LTP207	ltpFR	9	n/a	n/a	n/a	n/a	n/a	n/a	16	3	6	7	n/a	n/a	n/a	n/a	n/a
312614	PROB	n/a	LTP207	ltpFR	9	n/a	n/a	n/a	n/a	n/a	n/a	4	1	1	2	n/a	n/a	n/a	n/a	n/a
313670	STOP	n/a	LTP207	ltpFR	9	n/a	n/a	n/a	n/a	n/a	n/a	n/a	n/a	n/a	n/a	n/a	n/a	n/a	n/a	n/a
315910	WORD	wordpools/wasnorm_wordpool_less_exclusions.txt	LTP207	ltpFR	9	2	0	PILOT	1070	n/a	1	n/a	0	0	0	0	0.5869140625	0.422607421875	lower	../fonts/amplitud.ttf
318923	START	n/a	LTP207	ltpFR	9	n/a	n/a	n/a	n/a	n/a	n/a	n/a	n/a	n/a	n/a	n/a	n/a	n/a	n/a	n/a
319887	PROB	n/a	LTP207	ltpFR	9	n/a	n/a	n/a	n/a	n/a	n/a	21	7	6	8	n/a	n/a	n/a	n/a	n/a
323232	PROB	n/a	LTP207	ltpFR	9	n/a	n/a	n/a	n/a	n/a	n/a	16	4	5	7	n/a	n/a	n/a	n/a	n/a
324947	PROB	n/a	LTP207	ltpFR	9	n/a	n/a	n/a	n/a	n/a	n/a	15	7	5	3	n/a	n/a	n/a	n/a	n/a
326518	STOP	n/a	LTP207	ltpFR	9	n/a	n/a	n/a	n/a	n/a	n/a	n/a	n/a	n/a	n/a	n/a	n/a	n/a	n/a	n/a
327759	WORD	wordpools/wasnorm_wordpool_less_exclusions.txt	LTP207	ltpFR	9	2	0	TORTOISE	1486	n/a	1	n/a	0	0	0	0	0.5869140625	0.422607421875	lower	../fonts/amplitud.ttf
330772	START	n/a	LTP207	ltpFR	9	n/a	n/a	n/a	n/a	n/a	n/a	n/a	n/a	n/a	n/a	n/a	n/a	n/a	n/a	n/a
331669	PROB	n/a	LTP207	ltpFR	9	n/a	n/a	n/a	n/a	n/a	n/a	15	3	6	6	n/a	n/a	n/a	n/a	n/a
333783	PROB	n/a	LTP207	ltpFR	9	n/a	n/a	n/a	n/a	n/a	n/a	17	7	3	7	n/a	n/a	n/a	n/a	n/a
335646	PROB	n/a	LTP207	ltpFR	9	n/a	n/a	n/a	n/a	n/a	n/a	16	2	9	5	n/a	n/a	n/a	n/a	n/a
338590	STOP	n/a	LTP207	ltpFR	9	n/a	n/a	n/a	n/a	n/a	n/a	n/a	n/a	n/a	n/a	n/a	n/a	n/a	n/a	n/a
339924	WORD	wordpools/wasnorm_wordpool_less_exclusions.txt	LTP207	ltpFR	9	2	1	VIOLA	1570	n/a	0	n/a	0	0	0	1	0.412841796875	0.57763671875	upper	../fonts/zerothre.ttf
342937	START	n/a	LTP207	ltpFR	9	n/a	n/a	n/a	n/a	n/a	n/a	n/a	n/a	n/a	n/a	n/a	n/a	n/a	n/a	n/a
344118	PROB	n/a	LTP207	ltpFR	9	n/a	n/a	n/a	n/a	n/a	n/a	20	8	8	4	n/a	n/a	n/a	n/a	n/a
346048	PROB	n/a	LTP207	ltpFR	9	n/a	n/a	n/a	n/a	n/a	n/a	12	4	7	1	n/a	n/a	n/a	n/a	n/a
347678	PROB	n/a	LTP207	ltpFR	9	n/a	n/a	n/a	n/a	n/a	n/a	14	6	7	1	n/a	n/a	n/a	n/a	n/a
350919	STOP	n/a	LTP207	ltpFR	9	n/a	n/a	n/a	n/a	n/a	n/a	n/a	n/a	n/a	n/a	n/a	n/a	n/a	n/a	n/a
352156	WORD	wordpools/wasnorm_wordpool_less_exclusions.txt	LTP207	ltpFR	9	2	1	TONGUE	1479	n/a	0	n/a	0	0	0	1	0.412841796875	0.57763671875	upper	../fonts/zerothre.ttf
355169	START	n/a	LTP207	ltpFR	9	n/a	n/a	n/a	n/a	n/a	n/a	n/a	n/a	n/a	n/a	n/a	n/a	n/a	n/a	n/a
356167	PROB	n/a	LTP207	ltpFR	9	n/a	n/a	n/a	n/a	n/a	n/a	15	6	3	3	n/a	n/a	n/a	n/a	n/a
358263	PROB	n/a	LTP207	ltpFR	9	n/a	n/a	n/a	n/a	n/a	n/a	12	7	2	3	n/a	n/a	n/a	n/a	n/a
360926	PROB	n/a	LTP207	ltpFR	9	n/a	n/a	n/a	n/a	n/a	n/a	14	1	9	4	n/a	n/a	n/a	n/a	n/a
362478	STOP	n/a	LTP207	ltpFR	9	n/a	n/a	n/a	n/a	n/a	n/a	n/a	n/a	n/a	n/a	n/a	n/a	n/a	n/a	n/a
364321	WORD	wordpools/wasnorm_wordpool_less_exclusions.txt	LTP207	ltpFR	9	2	1	WALNUT	1584	n/a	0	n/a	0	0	0	1	0.412841796875	0.57763671875	upper	../fonts/zerothre.ttf
367334	START	n/a	LTP207	ltpFR	9	n/a	n/a	n/a	n/a	n/a	n/a	n/a	n/a	n/a	n/a	n/a	n/a	n/a	n/a	n/a
368348	PROB	n/a	LTP207	ltpFR	9	n/a	n/a	n/a	n/a	n/a	n/a	14	5	5	4	n/a	n/a	n/a	n/a	n/a
369979	PROB	n/a	LTP207	ltpFR	9	n/a	n/a	n/a	n/a	n/a	n/a	19	8	2	9	n/a	n/a	n/a	n/a	n/a
371509	PROB	n/a	LTP207	ltpFR	9	n/a	n/a	n/a	n/a	n/a	n/a	21	7	9	5	n/a	n/a	n/a	n/a	n/a
375319	STOP	n/a	LTP207	ltpFR	9	n/a	n/a	n/a	n/a	n/a	n/a	n/a	n/a	n/a	n/a	n/a	n/a	n/a	n/a	n/a
376502	WORD	wordpools/wasnorm_wordpool_less_exclusions.txt	LTP207	ltpFR	9	2	1	BEAVER	109	n/a	3	n/a	0	0	0	1	0.412841796875	0.57763671875	upper	../fonts/zerothre.ttf
377617	KEY_MSG	n/a	LTP207	ltpFR	9	2	n/a	n/a	n/a	n/a	n/a	n/a	0	0	0	n/a	n/a	n/a	n/a	n/a
379514	START	n/a	LTP207	ltpFR	9	n/a	n/a	n/a	n/a	n/a	n/a	n/a	n/a	n/a	n/a	n/a	n/a	n/a	n/a	n/a
380579	PROB	n/a	LTP207	ltpFR	9	n/a	n/a	n/a	n/a	n/a	n/a	10	2	5	3	n/a	n/a	n/a	n/a	n/a
382643	PROB	n/a	LTP207	ltpFR	9	n/a	n/a	n/a	n/a	n/a	n/a	13	4	8	1	n/a	n/a	n/a	n/a	n/a
387513	STOP	n/a	LTP207	ltpFR	9	n/a	n/a	n/a	n/a	n/a	n/a	n/a	n/a	n/a	n/a	n/a	n/a	n/a	n/a	n/a
388402	WORD	wordpools/wasnorm_wordpool_less_exclusions.txt	LTP207	ltpFR	9	2	0	DOCK	477	n/a	1	n/a	0	0	0	0	0.5869140625	0.422607421875	lower	../fonts/amplitud.ttf
391414	START	n/a	LTP207	ltpFR	9	n/a	n/a	n/a	n/a	n/a	n/a	n/a	n/a	n/a	n/a	n/a	n/a	n/a	n/a	n/a
392594	PROB	n/a	LTP207	ltpFR	9	n/a	n/a	n/a	n/a	n/a	n/a	22	8	6	8	n/a	n/a	n/a	n/a	n/a
394226	PROB	n/a	LTP207	ltpFR	9	n/a	n/a	n/a	n/a	n/a	n/a	13	1	3	9	n/a	n/a	n/a	n/a	n/a
396307	PROB	n/a	LTP207	ltpFR	9	n/a	n/a	n/a	n/a	n/a	n/a	10	4	3	3	n/a	n/a	n/a	n/a	n/a
398111	STOP	n/a	LTP207	ltpFR	9	n/a	n/a	n/a	n/a	n/a	n/a	n/a	n/a	n/a	n/a	n/a	n/a	n/a	n/a	n/a
400301	WORD	wordpools/wasnorm_wordpool_less_exclusions.txt	LTP207	ltpFR	9	2	0	OAR	966	n/a	1	n/a	0	0	0	0	0.5869140625	0.422607421875	lower	../fonts/amplitud.ttf
403313	START	n/a	LTP207	ltpFR	9	n/a	n/a	n/a	n/a	n/a	n/a	n/a	n/a	n/a	n/a	n/a	n/a	n/a	n/a	n/a
404444	PROB	n/a	LTP207	ltpFR	9	n/a	n/a	n/a	n/a	n/a	n/a	16	9	6	1	n/a	n/a	n/a	n/a	n/a
406242	PROB	n/a	LTP207	ltpFR	9	n/a	n/a	n/a	n/a	n/a	n/a	13	3	7	3	n/a	n/a	n/a	n/a	n/a
407639	PROB	n/a	LTP207	ltpFR	9	n/a	n/a	n/a	n/a	n/a	n/a	21	3	9	9	n/a	n/a	n/a	n/a	n/a
409569	PROB	n/a	LTP207	ltpFR	9	n/a	n/a	n/a	n/a	n/a	n/a	16	6	3	7	n/a	n/a	n/a	n/a	n/a
411135	STOP	n/a	LTP207	ltpFR	9	n/a	n/a	n/a	n/a	n/a	n/a	n/a	n/a	n/a	n/a	n/a	n/a	n/a	n/a	n/a
412233	WORD	wordpools/wasnorm_wordpool_less_exclusions.txt	LTP207	ltpFR	9	2	0	JAW	751	n/a	0	n/a	0	0	0	0	0.5869140625	0.422607421875	lower	../fonts/amplitud.ttf
415245	START	n/a	LTP207	ltpFR	9	n/a	n/a	n/a	n/a	n/a	n/a	n/a	n/a	n/a	n/a	n/a	n/a	n/a	n/a	n/a
416127	PROB	n/a	LTP207	ltpFR	9	n/a	n/a	n/a	n/a	n/a	n/a	19	8	3	8	n/a	n/a	n/a	n/a	n/a
418672	PROB	n/a	LTP207	ltpFR	9	n/a	n/a	n/a	n/a	n/a	n/a	17	9	7	1	n/a	n/a	n/a	n/a	n/a
421353	PROB	n/a	LTP207	ltpFR	9	n/a	n/a	n/a	n/a	n/a	n/a	14	4	1	9	n/a	n/a	n/a	n/a	n/a
422847	STOP	n/a	LTP207	ltpFR	9	n/a	n/a	n/a	n/a	n/a	n/a	n/a	n/a	n/a	n/a	n/a	n/a	n/a	n/a	n/a
424065	WORD	wordpools/wasnorm_wordpool_less_exclusions.txt	LTP207	ltpFR	9	2	0	SILVERWARE	1308	n/a	0	n/a	0	0	0	0	0.5869140625	0.422607421875	lower	../fonts/amplitud.ttf
427078	START	n/a	LTP207	ltpFR	9	n/a	n/a	n/a	n/a	n/a	n/a	n/a	n/a	n/a	n/a	n/a	n/a	n/a	n/a	n/a
427943	PROB	n/a	LTP207	ltpFR	9	n/a	n/a	n/a	n/a	n/a	n/a	23	8	9	6	n/a	n/a	n/a	n/a	n/a
430721	PROB	n/a	LTP207	ltpFR	9	n/a	n/a	n/a	n/a	n/a	n/a	16	3	8	5	n/a	n/a	n/a	n/a	n/a
432568	PROB	n/a	LTP207	ltpFR	9	n/a	n/a	n/a	n/a	n/a	n/a	20	9	7	4	n/a	n/a	n/a	n/a	n/a
434143	STOP	n/a	LTP207	ltpFR	9	n/a	n/a	n/a	n/a	n/a	n/a	n/a	n/a	n/a	n/a	n/a	n/a	n/a	n/a	n/a
436230	WORD	wordpools/wasnorm_wordpool_less_exclusions.txt	LTP207	ltpFR	9	2	1	MAID	856	n/a	1	n/a	0	0	0	1	0.412841796875	0.57763671875	upper	../fonts/zerothre.ttf
439243	START	n/a	LTP207	ltpFR	9	n/a	n/a	n/a	n/a	n/a	n/a	n/a	n/a	n/a	n/a	n/a	n/a	n/a	n/a	n/a
440358	PROB	n/a	LTP207	ltpFR	9	n/a	n/a	n/a	n/a	n/a	n/a	5	2	3	3	n/a	n/a	n/a	n/a	n/a
445734	STOP	n/a	LTP207	ltpFR	9	n/a	n/a	n/a	n/a	n/a	n/a	n/a	n/a	n/a	n/a	n/a	n/a	n/a	n/a	n/a
448445	WORD	wordpools/wasnorm_wordpool_less_exclusions.txt	LTP207	ltpFR	9	2	1	UNIFORM	1539	n/a	0	n/a	0	0	0	1	0.412841796875	0.57763671875	upper	../fonts/zerothre.ttf
451457	START	n/a	LTP207	ltpFR	9	n/a	n/a	n/a	n/a	n/a	n/a	n/a	n/a	n/a	n/a	n/a	n/a	n/a	n/a	n/a
452423	PROB	n/a	LTP207	ltpFR	9	n/a	n/a	n/a	n/a	n/a	n/a	14	8	3	3	n/a	n/a	n/a	n/a	n/a
456665	PROB	n/a	LTP207	ltpFR	9	n/a	n/a	n/a	n/a	n/a	n/a	10	1	6	3	n/a	n/a	n/a	n/a	n/a
458702	STOP	n/a	LTP207	ltpFR	9	n/a	n/a	n/a	n/a	n/a	n/a	n/a	n/a	n/a	n/a	n/a	n/a	n/a	n/a	n/a
460659	WORD	wordpools/wasnorm_wordpool_less_exclusions.txt	LTP207	ltpFR	9	2	1	PRAIRIE	1118	n/a	0	n/a	0	0	0	1	0.412841796875	0.57763671875	upper	../fonts/zerothre.ttf
463672	START	n/a	LTP207	ltpFR	9	n/a	n/a	n/a	n/a	n/a	n/a	n/a	n/a	n/a	n/a	n/a	n/a	n/a	n/a	n/a
464520	PROB	n/a	LTP207	ltpFR	9	n/a	n/a	n/a	n/a	n/a	n/a	16	6	7	3	n/a	n/a	n/a	n/a	n/a
466036	PROB	n/a	LTP207	ltpFR	9	n/a	n/a	n/a	n/a	n/a	n/a	13	9	3	1	n/a	n/a	n/a	n/a	n/a
467999	PROB	n/a	LTP207	ltpFR	9	n/a	n/a	n/a	n/a	n/a	n/a	19	8	5	6	n/a	n/a	n/a	n/a	n/a
470247	STOP	n/a	LTP207	ltpFR	9	n/a	n/a	n/a	n/a	n/a	n/a	n/a	n/a	n/a	n/a	n/a	n/a	n/a	n/a	n/a
472876	WORD	wordpools/wasnorm_wordpool_less_exclusions.txt	LTP207	ltpFR	9	2	1	TAIL	1430	n/a	0	n/a	0	0	0	1	0.412841796875	0.57763671875	upper	../fonts/zerothre.ttf
475888	START	n/a	LTP207	ltpFR	9	n/a	n/a	n/a	n/a	n/a	n/a	n/a	n/a	n/a	n/a	n/a	n/a	n/a	n/a	n/a
476936	PROB	n/a	LTP207	ltpFR	9	n/a	n/a	n/a	n/a	n/a	n/a	8	2	2	4	n/a	n/a	n/a	n/a	n/a
479748	PROB	n/a	LTP207	ltpFR	9	n/a	n/a	n/a	n/a	n/a	n/a	17	6	4	7	n/a	n/a	n/a	n/a	n/a
481396	PROB	n/a	LTP207	ltpFR	9	n/a	n/a	n/a	n/a	n/a	n/a	15	5	4	6	n/a	n/a	n/a	n/a	n/a
482815	STOP	n/a	LTP207	ltpFR	9	n/a	n/a	n/a	n/a	n/a	n/a	n/a	n/a	n/a	n/a	n/a	n/a	n/a	n/a	n/a
485823	REC_START	n/a	LTP207	ltpFR	9	2	n/a	n/a	n/a	n/a	n/a	n/a	0	0	0	n/a	n/a	n/a	n/a	n/a
487898	REC_WORD	wordpools/wasnorm_wordpool_less_exclusions.txt	LTP207	ltpFR	9	2	1	PRAIRIE	1118	n/a	0	n/a	0	0	0	n/a	n/a	n/a	n/a	n/a
490931	REC_WORD	wordpools/wasnorm_wordpool_less_exclusions.txt	LTP207	ltpFR	9	2	1	VIOLA	1570	n/a	0	n/a	0	0	0	n/a	n/a	n/a	n/a	n/a
495231	REC_WORD	wordpools/wasnorm_wordpool_less_exclusions.txt	LTP207	ltpFR	9	2	1	TONGUE	1479	n/a	0	n/a	0	0	0	n/a	n/a	n/a	n/a	n/a
498265	REC_WORD	wordpools/wasnorm_wordpool_less_exclusions.txt	LTP207	ltpFR	9	2	1	BEAVER	109	n/a	3	n/a	0	0	0	n/a	n/a	n/a	n/a	n/a
501452	REC_WORD	wordpools/wasnorm_wordpool_less_exclusions.txt	LTP207	ltpFR	9	2	0	OAR	966	n/a	1	n/a	0	0	0	n/a	n/a	n/a	n/a	n/a
505094	REC_WORD	wordpools/wasnorm_wordpool_less_exclusions.txt	LTP207	ltpFR	9	2	0	SILVERWARE	1308	n/a	0	n/a	0	0	0	n/a	n/a	n/a	n/a	n/a
510265	REC_WORD	wordpools/wasnorm_wordpool_less_exclusions.txt	LTP207	ltpFR	9	2	0	TORTOISE	1486	n/a	1	n/a	0	0	0	n/a	n/a	n/a	n/a	n/a
512803	REC_WORD	wordpools/wasnorm_wordpool_less_exclusions.txt	LTP207	ltpFR	9	2	0	KEYBOARD	774	n/a	1	n/a	0	0	0	n/a	n/a	n/a	n/a	n/a
515924	REC_WORD	wordpools/wasnorm_wordpool_less_exclusions.txt	LTP207	ltpFR	9	2	0	CASHEW	253	n/a	0	n/a	0	0	0	n/a	n/a	n/a	n/a	n/a
564687	WORD	wordpools/wasnorm_wordpool_less_exclusions.txt	LTP207	ltpFR	9	3	1	SHORTCAKE	1292	n/a	0	n/a	0	0	0	1	0.412841796875	0.57763671875	upper	../fonts/zerothre.ttf
568715	WORD	wordpools/wasnorm_wordpool_less_exclusions.txt	LTP207	ltpFR	9	3	1	MICROWAVE	892	n/a	0	n/a	0	0	0	1	0.412841796875	0.57763671875	upper	../fonts/zerothre.ttf
572559	WORD	wordpools/wasnorm_wordpool_less_exclusions.txt	LTP207	ltpFR	9	3	1	BRIDE	173	n/a	1	n/a	0	0	0	1	0.412841796875	0.57763671875	upper	../fonts/zerothre.ttf
576438	WORD	wordpools/wasnorm_wordpool_less_exclusions.txt	LTP207	ltpFR	9	3	1	THUMB	1462	n/a	0	n/a	0	0	0	1	0.412841796875	0.57763671875	upper	../fonts/zerothre.ttf
580480	WORD	wordpools/wasnorm_wordpool_less_exclusions.txt	LTP207	ltpFR	9	3	0	GENERAL	630	n/a	1	n/a	0	0	0	0	0.5869140625	0.422607421875	lower	../fonts/amplitud.ttf
584541	WORD	wordpools/wasnorm_wordpool_less_exclusions.txt	LTP207	ltpFR	9	3	0	SUN	1406	n/a	1	n/a	0	0	0	0	0.5869140625	0.422607421875	lower	../fonts/amplitud.ttf
588386	WORD	wordpools/wasnorm_wordpool_less_exclusions.txt	LTP207	ltpFR	9	3	1	HEAD	695	n/a	0	n/a	0	0	0	1	0.412841796875	0.57763671875	upper	../fonts/zerothre.ttf
592529	WORD	wordpools/wasnorm_wordpool_less_exclusions.txt	LTP207	ltpFR	9	3	1	TANK	1432	n/a	0	n/a	0	0	0	1	0.412841796875	0.57763671875	upper	../fonts/zerothre.ttf
596556	WORD	wordpools/wasnorm_wordpool_less_exclusions.txt	LTP207	ltpFR	9	3	1	TORCH	1484	n/a	0	n/a	0	0	0	1	0.412841796875	0.57763671875	upper	../fonts/zerothre.ttf
600717	WORD	wordpools/wasnorm_wordpool_less_exclusions.txt	LTP207	ltpFR	9	3	1	GOO	648	n/a	0	n/a	0	0	0	1	0.412841796875	0.57763671875	upper	../fonts/zerothre.ttf
604661	WORD	wordpools/wasnorm_wordpool_less_exclusions.txt	LTP207	ltpFR	9	3	0	CHAUFFEUR	283	n/a	1	n/a	0	0	0	0	0.5869140625	0.422607421875	lower	../fonts/amplitud.ttf
608522	WORD	wordpools/wasnorm_wordpool_less_exclusions.txt	LTP207	ltpFR	9	3	0	BATTERY	101	n/a	0	n/a	0	0	0	0	0.5869140625	0.422607421875	lower	../fonts/amplitud.ttf
612401	WORD	wordpools/wasnorm_wordpool_less_exclusions.txt	LTP207	ltpFR	9	3	0	OUTFIT	988	n/a	n/a	n/a	0	0	0	0	0.5869140625	0.422607421875	lower	../fonts/amplitud.ttf
615429	SLOW_MSG	n/a	LTP207	ltpFR	9	3	n/a	n/a	n/a	n/a	n/a	n/a	0	0	0	n/a	n/a	n/a	n/a	n/a
618009	WORD	wordpools/wasnorm_wordpool_less_exclusions.txt	LTP207	ltpFR	9	3	0	RACK	1154	n/a	0	n/a	0	0	0	0	0.5869140625	0.422607421875	lower	../fonts/amplitud.ttf
621870	WORD	wordpools/wasnorm_wordpool_less_exclusions.txt	LTP207	ltpFR	9	3	0	LIEUTENANT	818	n/a	1	n/a	0	0	0	0	0.5869140625	0.422607421875	lower	../fonts/amplitud.ttf
625880	WORD	wordpools/wasnorm_wordpool_less_exclusions.txt	LTP207	ltpFR	9	3	0	TUNA	1518	n/a	1	n/a	0	0	0	0	0.5869140625	0.422607421875	lower	../fonts/amplitud.ttf
628893	START	n/a	LTP207	ltpFR	9	n/a	n/a	n/a	n/a	n/a	n/a	n/a	n/a	n/a	n/a	n/a	n/a	n/a	n/a	n/a
629707	PROB	n/a	LTP207	ltpFR	9	n/a	n/a	n/a	n/a	n/a	n/a	18	6	5	7	n/a	n/a	n/a	n/a	n/a
631737	PROB	n/a	LTP207	ltpFR	9	n/a	n/a	n/a	n/a	n/a	n/a	19	9	2	8	n/a	n/a	n/a	n/a	n/a
633369	PROB	n/a	LTP207	ltpFR	9	n/a	n/a	n/a	n/a	n/a	n/a	20	7	5	8	n/a	n/a	n/a	n/a	n/a
635000	PROB	n/a	LTP207	ltpFR	9	n/a	n/a	n/a	n/a	n/a	n/a	9	3	4	2	n/a	n/a	n/a	n/a	n/a
636613	PROB	n/a	LTP207	ltpFR	9	n/a	n/a	n/a	n/a	n/a	n/a	15	7	5	3	n/a	n/a	n/a	n/a	n/a
638212	PROB	n/a	LTP207	ltpFR	9	n/a	n/a	n/a	n/a	n/a	n/a	9	3	5	1	n/a	n/a	n/a	n/a	n/a
639742	PROB	n/a	LTP207	ltpFR	9	n/a	n/a	n/a	n/a	n/a	n/a	14	6	3	5	n/a	n/a	n/a	n/a	n/a
641623	PROB	n/a	LTP207	ltpFR	9	n/a	n/a	n/a	n/a	n/a	n/a	8	1	5	2	n/a	n/a	n/a	n/a	n/a
643863	STOP	n/a	LTP207	ltpFR	9	n/a	n/a	n/a	n/a	n/a	n/a	n/a	n/a	n/a	n/a	n/a	n/a	n/a	n/a	n/a
646666	REC_START	n/a	LTP207	ltpFR	9	3	n/a	n/a	n/a	n/a	n/a	n/a	0	0	0	n/a	n/a	n/a	n/a	n/a
648529	REC_WORD	wordpools/wasnorm_wordpool_less_exclusions.txt	LTP207	ltpFR	9	3	0	LIEUTENANT	818	n/a	1	n/a	0	0	0	n/a	n/a	n/a	n/a	n/a
650492	REC_WORD	wordpools/wasnorm_wordpool_less_exclusions.txt	LTP207	ltpFR	9	3	0	GENERAL	630	n/a	1	n/a	0	0	0	n/a	n/a	n/a	n/a	n/a
653271	REC_WORD	wordpools/wasnorm_wordpool_less_exclusions.txt	LTP207	ltpFR	9	3	1	TANK	1432	n/a	0	n/a	0	0	0	n/a	n/a	n/a	n/a	n/a
655469	REC_WORD	wordpools/wasnorm_wordpool_less_exclusions.txt	LTP207	ltpFR	9	3	1	BRIDE	173	n/a	1	n/a	0	0	0	n/a	n/a	n/a	n/a	n/a
658005	REC_WORD	wordpools/wasnorm_wordpool_less_exclusions.txt	LTP207	ltpFR	9	3	1	THUMB	1462	n/a	0	n/a	0	0	0	n/a	n/a	n/a	n/a	n/a
659851	REC_WORD	wordpools/wasnorm_wordpool_less_exclusions.txt	LTP207	ltpFR	9	3	1	SHORTCAKE	1292	n/a	0	n/a	0	0	0	n/a	n/a	n/a	n/a	n/a
664765	REC_WORD	wordpools/wasnorm_wordpool_less_exclusions.txt	LTP207	ltpFR	9	3	1	MICROWAVE	892	n/a	0	n/a	0	0	0	n/a	n/a	n/a	n/a	n/a
672169	REC_WORD	wordpools/wasnorm_wordpool_less_exclusions.txt	LTP207	ltpFR	9	3	0	RACK	1154	n/a	0	n/a	0	0	0	n/a	n/a	n/a	n/a	n/a
675351	REC_WORD	wordpools/wasnorm_wordpool_less_exclusions.txt	LTP207	ltpFR	9	3	0	TUNA	1518	n/a	1	n/a	0	0	0	n/a	n/a	n/a	n/a	n/a
757767	START	n/a	LTP207	ltpFR	9	n/a	n/a	n/a	n/a	n/a	n/a	n/a	n/a	n/a	n/a	n/a	n/a	n/a	n/a	n/a
759281	PROB	n/a	LTP207	ltpFR	9	n/a	n/a	n/a	n/a	n/a	n/a	12	4	7	1	n/a	n/a	n/a	n/a	n/a
761062	PROB	n/a	LTP207	ltpFR	9	n/a	n/a	n/a	n/a	n/a	n/a	14	2	7	5	n/a	n/a	n/a	n/a	n/a
763841	PROB	n/a	LTP207	ltpFR	9	n/a	n/a	n/a	n/a	n/a	n/a	21	9	4	8	n/a	n/a	n/a	n/a	n/a
765771	PROB	n/a	LTP207	ltpFR	9	n/a	n/a	n/a	n/a	n/a	n/a	7	3	3	1	n/a	n/a	n/a	n/a	n/a
767153	PROB	n/a	LTP207	ltpFR	9	n/a	n/a	n/a	n/a	n/a	n/a	13	5	6	2	n/a	n/a	n/a	n/a	n/a
768933	PROB	n/a	LTP207	ltpFR	9	n/a	n/a	n/a	n/a	n/a	n/a	16	8	3	5	n/a	n/a	n/a	n/a	n/a
770630	PROB	n/a	LTP207	ltpFR	9	n/a	n/a	n/a	n/a	n/a	n/a	16	7	2	7	n/a	n/a	n/a	n/a	n/a
772823	STOP	n/a	LTP207	ltpFR	9	n/a	n/a	n/a	n/a	n/a	n/a	n/a	n/a	n/a	n/a	n/a	n/a	n/a	n/a	n/a
774775	WORD	wordpools/wasnorm_wordpool_less_exclusions.txt	LTP207	ltpFR	9	4	0	CLOSET	326	n/a	1	n/a	0	0	0	0	0.5869140625	0.422607421875	lower	../fonts/amplitud.ttf
777787	START	n/a	LTP207	ltpFR	9	n/a	n/a	n/a	n/a	n/a	n/a	n/a	n/a	n/a	n/a	n/a	n/a	n/a	n/a	n/a
778752	PROB	n/a	LTP207	ltpFR	9	n/a	n/a	n/a	n/a	n/a	n/a	21	9	8	4	n/a	n/a	n/a	n/a	n/a
780632	PROB	n/a	LTP207	ltpFR	9	n/a	n/a	n/a	n/a	n/a	n/a	17	7	2	8	n/a	n/a	n/a	n/a	n/a
782662	PROB	n/a	LTP207	ltpFR	9	n/a	n/a	n/a	n/a	n/a	n/a	15	9	3	3	n/a	n/a	n/a	n/a	n/a
784194	PROB	n/a	LTP207	ltpFR	9	n/a	n/a	n/a	n/a	n/a	n/a	14	2	7	5	n/a	n/a	n/a	n/a	n/a
785875	PROB	n/a	LTP207	ltpFR	9	n/a	n/a	n/a	n/a	n/a	n/a	10	4	1	5	n/a	n/a	n/a	n/a	n/a
788088	PROB	n/a	LTP207	ltpFR	9	n/a	n/a	n/a	n/a	n/a	n/a	12	3	4	5	n/a	n/a	n/a	n/a	n/a
790102	PROB	n/a	LTP207	ltpFR	9	n/a	n/a	n/a	n/a	n/a	n/a	19	9	2	8	n/a	n/a	n/a	n/a	n/a
793175	STOP	n/a	LTP207	ltpFR	9	n/a	n/a	n/a	n/a	n/a	n/a	n/a	n/a	n/a	n/a	n/a	n/a	n/a	n/a	n/a
794677	WORD	wordpools/wasnorm_wordpool_less_exclusions.txt	LTP207	ltpFR	9	4	0	HAY	693	n/a	0	n/a	0	0	0	0	0.5869140625	0.422607421875	lower	../fonts/amplitud.ttf
797690	START	n/a	LTP207	ltpFR	9	n/a	n/a	n/a	n/a	n/a	n/a	n/a	n/a	n/a	n/a	n/a	n/a	n/a	n/a	n/a
798671	PROB	n/a	LTP207	ltpFR	9	n/a	n/a	n/a	n/a	n/a	n/a	22	8	6	8	n/a	n/a	n/a	n/a	n/a
800502	PROB	n/a	LTP207	ltpFR	9	n/a	n/a	n/a	n/a	n/a	n/a	18	4	7	7	n/a	n/a	n/a	n/a	n/a
802383	PROB	n/a	LTP207	ltpFR	9	n/a	n/a	n/a	n/a	n/a	n/a	6	4	1	1	n/a	n/a	n/a	n/a	n/a
803898	PROB	n/a	LTP207	ltpFR	9	n/a	n/a	n/a	n/a	n/a	n/a	19	5	7	7	n/a	n/a	n/a	n/a	n/a
805895	PROB	n/a	LTP207	ltpFR	9	n/a	n/a	n/a	n/a	n/a	n/a	22	6	8	8	n/a	n/a	n/a	n/a	n/a
807792	PROB	n/a	LTP207	ltpFR	9	n/a	n/a	n/a	n/a	n/a	n/a	23	6	7	9	n/a	n/a	n/a	n/a	n/a
813690	STOP	n/a	LTP207	ltpFR	9	n/a	n/a	n/a	n/a	n/a	n/a	n/a	n/a	n/a	n/a	n/a	n/a	n/a	n/a	n/a
814631	WORD	wordpools/wasnorm_wordpool_less_exclusions.txt	LTP207	ltpFR	9	4	0	POTATO	1115	n/a	0	n/a	0	0	0	0	0.5869140625	0.422607421875	lower	../fonts/amplitud.ttf
817643	START	n/a	LTP207	ltpFR	9	n/a	n/a	n/a	n/a	n/a	n/a	n/a	n/a	n/a	n/a	n/a	n/a	n/a	n/a	n/a
818658	PROB	n/a	LTP207	ltpFR	9	n/a	n/a	n/a	n/a	n/a	n/a	12	9	1	2	n/a	n/a	n/a	n/a	n/a
820638	PROB	n/a	LTP207	ltpFR	9	n/a	n/a	n/a	n/a	n/a	n/a	18	8	9	1	n/a	n/a	n/a	n/a	n/a
822953	PROB	n/a	LTP207	ltpFR	9	n/a	n/a	n/a	n/a	n/a	n/a	15	5	3	7	n/a	n/a	n/a	n/a	n/a
825166	PROB	n/a	LTP207	ltpFR	9	n/a	n/a	n/a	n/a	n/a	n/a	10	2	7	1	n/a	n/a	n/a	n/a	n/a
827180	PROB	n/a	LTP207	ltpFR	9	n/a	n/a	n/a	n/a	n/a	n/a	22	5	8	9	n/a	n/a	n/a	n/a	n/a
829277	PROB	n/a	LTP207	ltpFR	9	n/a	n/a	n/a	n/a	n/a	n/a	17	6	3	8	n/a	n/a	n/a	n/a	n/a
831307	PROB	n/a	LTP207	ltpFR	9	n/a	n/a	n/a	n/a	n/a	n/a	16	9	5	2	n/a	n/a	n/a	n/a	n/a
832927	STOP	n/a	LTP207	ltpFR	9	n/a	n/a	n/a	n/a	n/a	n/a	n/a	n/a	n/a	n/a	n/a	n/a	n/a	n/a	n/a
834668	WORD	wordpools/wasnorm_wordpool_less_exclusions.txt	LTP207	ltpFR	9	4	1	BEEF	113	n/a	0	n/a	0	0	0	1	0.412841796875	0.57763671875	upper	../fonts/zerothre.ttf
837680	START	n/a	LTP207	ltpFR	9	n/a	n/a	n/a	n/a	n/a	n/a	n/a	n/a	n/a	n/a	n/a	n/a	n/a	n/a	n/a
838512	PROB	n/a	LTP207	ltpFR	9	n/a	n/a	n/a	n/a	n/a	n/a	7	2	3	2	n/a	n/a	n/a	n/a	n/a
840642	PROB	n/a	LTP207	ltpFR	9	n/a	n/a	n/a	n/a	n/a	n/a	17	4	9	4	n/a	n/a	n/a	n/a	n/a
842790	PROB	n/a	LTP207	ltpFR	9	n/a	n/a	n/a	n/a	n/a	n/a	16	7	1	8	n/a	n/a	n/a	n/a	n/a
844686	PROB	n/a	LTP207	ltpFR	9	n/a	n/a	n/a	n/a	n/a	n/a	17	3	6	8	n/a	n/a	n/a	n/a	n/a
846967	PROB	n/a	LTP207	ltpFR	9	n/a	n/a	n/a	n/a	n/a	n/a	14	9	4	1	n/a	n/a	n/a	n/a	n/a
848781	PROB	n/a	LTP207	ltpFR	9	n/a	n/a	n/a	n/a	n/a	n/a	9	5	2	2	n/a	n/a	n/a	n/a	n/a
851227	PROB	n/a	LTP207	ltpFR	9	n/a	n/a	n/a	n/a	n/a	n/a	9	6	1	2	n/a	n/a	n/a	n/a	n/a
853486	STOP	n/a	LTP207	ltpFR	9	n/a	n/a	n/a	n/a	n/a	n/a	n/a	n/a	n/a	n/a	n/a	n/a	n/a	n/a	n/a
854738	WORD	wordpools/wasnorm_wordpool_less_exclusions.txt	LTP207	ltpFR	9	4	1	BUSH	202	n/a	0	n/a	0	0	0	1	0.412841796875	0.57763671875	upper	../fonts/zerothre.ttf
857750	START	n/a	LTP207	ltpFR	9	n/a	n/a	n/a	n/a	n/a	n/a	n/a	n/a	n/a	n/a	n/a	n/a	n/a	n/a	n/a
858916	PROB	n/a	LTP207	ltpFR	9	n/a	n/a	n/a	n/a	n/a	n/a	18	3	8	7	n/a	n/a	n/a	n/a	n/a
860662	PROB	n/a	LTP207	ltpFR	9	n/a	n/a	n/a	n/a	n/a	n/a	16	5	8	3	n/a	n/a	n/a	n/a	n/a
862659	PROB	n/a	LTP207	ltpFR	9	n/a	n/a	n/a	n/a	n/a	n/a	15	7	7	1	n/a	n/a	n/a	n/a	n/a
864490	PROB	n/a	LTP207	ltpFR	9	n/a	n/a	n/a	n/a	n/a	n/a	10	4	4	2	n/a	n/a	n/a	n/a	n/a
867203	PROB	n/a	LTP207	ltpFR	9	n/a	n/a	n/a	n/a	n/a	n/a	11	2	2	7	n/a	n/a	n/a	n/a	n/a
868500	PROB	n/a	LTP207	ltpFR	9	n/a	n/a	n/a	n/a	n/a	n/a	18	7	6	5	n/a	n/a	n/a	n/a	n/a
870647	PROB	n/a	LTP207	ltpFR	9	n/a	n/a	n/a	n/a	n/a	n/a	17	7	8	2	n/a	n/a	n/a	n/a	n/a
872775	STOP	n/a	LTP207	ltpFR	9	n/a	n/a	n/a	n/a	n/a	n/a	n/a	n/a	n/a	n/a	n/a	n/a	n/a	n/a	n/a
874825	WORD	wordpools/wasnorm_wordpool_less_exclusions.txt	LTP207	ltpFR	9	4	1	CLASS	318	n/a	0	n/a	0	0	0	1	0.412841796875	0.57763671875	upper	../fonts/zerothre.ttf
877838	START	n/a	LTP207	ltpFR	9	n/a	n/a	n/a	n/a	n/a	n/a	n/a	n/a	n/a	n/a	n/a	n/a	n/a	n/a	n/a
878769	PROB	n/a	LTP207	ltpFR	9	n/a	n/a	n/a	n/a	n/a	n/a	6	1	4	1	n/a	n/a	n/a	n/a	n/a
880300	PROB	n/a	LTP207	ltpFR	9	n/a	n/a	n/a	n/a	n/a	n/a	10	2	1	7	n/a	n/a	n/a	n/a	n/a
881848	PROB	n/a	LTP207	ltpFR	9	n/a	n/a	n/a	n/a	n/a	n/a	16	4	5	7	n/a	n/a	n/a	n/a	n/a
883644	PROB	n/a	LTP207	ltpFR	9	n/a	n/a	n/a	n/a	n/a	n/a	5	1	1	3	n/a	n/a	n/a	n/a	n/a
885508	PROB	n/a	LTP207	ltpFR	9	n/a	n/a	n/a	n/a	n/a	n/a	11	6	4	1	n/a	n/a	n/a	n/a	n/a
886791	PROB	n/a	LTP207	ltpFR	9	n/a	n/a	n/a	n/a	n/a	n/a	7	1	4	2	n/a	n/a	n/a	n/a	n/a
889170	PROB	n/a	LTP207	ltpFR	9	n/a	n/a	n/a	n/a	n/a	n/a	15	3	8	4	n/a	n/a	n/a	n/a	n/a
890851	PROB	n/a	LTP207	ltpFR	9	n/a	n/a	n/a	n/a	n/a	n/a	7	4	2	1	n/a	n/a	n/a	n/a	n/a
893207	STOP	n/a	LTP207	ltpFR	9	n/a	n/a	n/a	n/a	n/a	n/a	n/a	n/a	n/a	n/a	n/a	n/a	n/a	n/a	n/a
894795	WORD	wordpools/wasnorm_wordpool_less_exclusions.txt	LTP207	ltpFR	9	4	1	QUILL	1150	n/a	0	n/a	0	0	0	1	0.412841796875	0.57763671875	upper	../fonts/zerothre.ttf
897808	START	n/a	LTP207	ltpFR	9	n/a	n/a	n/a	n/a	n/a	n/a	n/a	n/a	n/a	n/a	n/a	n/a	n/a	n/a	n/a
898738	PROB	n/a	LTP207	ltpFR	9	n/a	n/a	n/a	n/a	n/a	n/a	21	6	8	7	n/a	n/a	n/a	n/a	n/a
903033	PROB	n/a	LTP207	ltpFR	9	n/a	n/a	n/a	n/a	n/a	n/a	15	2	4	8	n/a	n/a	n/a	n/a	n/a
904713	PROB	n/a	LTP207	ltpFR	9	n/a	n/a	n/a	n/a	n/a	n/a	10	1	2	7	n/a	n/a	n/a	n/a	n/a
908557	PROB	n/a	LTP207	ltpFR	9	n/a	n/a	n/a	n/a	n/a	n/a	15	7	2	6	n/a	n/a	n/a	n/a	n/a
910571	PROB	n/a	LTP207	ltpFR	9	n/a	n/a	n/a	n/a	n/a	n/a	8	5	2	1	n/a	n/a	n/a	n/a	n/a
912407	STOP	n/a	LTP207	ltpFR	9	n/a	n/a	n/a	n/a	n/a	n/a	n/a	n/a	n/a	n/a	n/a	n/a	n/a	n/a	n/a
914815	WORD	wordpools/wasnorm_wordpool_less_exclusions.txt	LTP207	ltpFR	9	4	0	GARDEN	623	n/a	1	n/a	0	0	0	0	0.5869140625	0.422607421875	lower	../fonts/amplitud.ttf
917828	START	n/a	LTP207	ltpFR	9	n/a	n/a	n/a	n/a	n/a	n/a	n/a	n/a	n/a	n/a	n/a	n/a	n/a	n/a	n/a
918926	PROB	n/a	LTP207	ltpFR	9	n/a	n/a	n/a	n/a	n/a	n/a	13	3	7	3	n/a	n/a	n/a	n/a	n/a
921023	PROB	n/a	LTP207	ltpFR	9	n/a	n/a	n/a	n/a	n/a	n/a	10	2	2	6	n/a	n/a	n/a	n/a	n/a
924384	PROB	n/a	LTP207	ltpFR	9	n/a	n/a	n/a	n/a	n/a	n/a	22	9	8	5	n/a	n/a	n/a	n/a	n/a
926814	PROB	n/a	LTP207	ltpFR	9	n/a	n/a	n/a	n/a	n/a	n/a	14	2	6	6	n/a	n/a	n/a	n/a	n/a
929177	PROB	n/a	LTP207	ltpFR	9	n/a	n/a	n/a	n/a	n/a	n/a	10	2	7	1	n/a	n/a	n/a	n/a	n/a
930524	PROB	n/a	LTP207	ltpFR	9	n/a	n/a	n/a	n/a	n/a	n/a	18	8	1	9	n/a	n/a	n/a	n/a	n/a
932710	STOP	n/a	LTP207	ltpFR	9	n/a	n/a	n/a	n/a	n/a	n/a	n/a	n/a	n/a	n/a	n/a	n/a	n/a	n/a	n/a
934701	WORD	wordpools/wasnorm_wordpool_less_exclusions.txt	LTP207	ltpFR	9	4	0	LEAF	808	n/a	0	n/a	0	0	0	0	0.5869140625	0.422607421875	lower	../fonts/amplitud.ttf
937714	START	n/a	LTP207	ltpFR	9	n/a	n/a	n/a	n/a	n/a	n/a	n/a	n/a	n/a	n/a	n/a	n/a	n/a	n/a	n/a
938579	PROB	n/a	LTP207	ltpFR	9	n/a	n/a	n/a	n/a	n/a	n/a	14	6	6	2	n/a	n/a	n/a	n/a	n/a
940244	PROB	n/a	LTP207	ltpFR	9	n/a	n/a	n/a	n/a	n/a	n/a	10	1	8	1	n/a	n/a	n/a	n/a	n/a
941575	PROB	n/a	LTP207	ltpFR	9	n/a	n/a	n/a	n/a	n/a	n/a	15	8	6	2	n/a	n/a	n/a	n/a	n/a
944854	PROB	n/a	LTP207	ltpFR	9	n/a	n/a	n/a	n/a	n/a	n/a	17	8	3	6	n/a	n/a	n/a	n/a	n/a
947400	PROB	n/a	LTP207	ltpFR	9	n/a	n/a	n/a	n/a	n/a	n/a	15	9	1	5	n/a	n/a	n/a	n/a	n/a
948747	PROB	n/a	LTP207	ltpFR	9	n/a	n/a	n/a	n/a	n/a	n/a	22	8	7	7	n/a	n/a	n/a	n/a	n/a
950594	PROB	n/a	LTP207	ltpFR	9	n/a	n/a	n/a	n/a	n/a	n/a	6	2	1	3	n/a	n/a	n/a	n/a	n/a
953143	STOP	n/a	LTP207	ltpFR	9	n/a	n/a	n/a	n/a	n/a	n/a	n/a	n/a	n/a	n/a	n/a	n/a	n/a	n/a	n/a
954622	WORD	wordpools/wasnorm_wordpool_less_exclusions.txt	LTP207	ltpFR	9	4	0	MOSS	918	n/a	0	n/a	0	0	0	0	0.5869140625	0.422607421875	lower	../fonts/amplitud.ttf
957634	START	n/a	LTP207	ltpFR	9	n/a	n/a	n/a	n/a	n/a	n/a	n/a	n/a	n/a	n/a	n/a	n/a	n/a	n/a	n/a
958833	PROB	n/a	LTP207	ltpFR	9	n/a	n/a	n/a	n/a	n/a	n/a	18	4	5	9	n/a	n/a	n/a	n/a	n/a
960930	PROB	n/a	LTP207	ltpFR	9	n/a	n/a	n/a	n/a	n/a	n/a	8	2	3	3	n/a	n/a	n/a	n/a	n/a
963160	PROB	n/a	LTP207	ltpFR	9	n/a	n/a	n/a	n/a	n/a	n/a	7	2	4	1	n/a	n/a	n/a	n/a	n/a
965057	PROB	n/a	LTP207	ltpFR	9	n/a	n/a	n/a	n/a	n/a	n/a	24	7	9	8	n/a	n/a	n/a	n/a	n/a
967536	PROB	n/a	LTP207	ltpFR	9	n/a	n/a	n/a	n/a	n/a	n/a	19	4	8	7	n/a	n/a	n/a	n/a	n/a
969666	PROB	n/a	LTP207	ltpFR	9	n/a	n/a	n/a	n/a	n/a	n/a	19	8	5	6	n/a	n/a	n/a	n/a	n/a
971530	PROB	n/a	LTP207	ltpFR	9	n/a	n/a	n/a	n/a	n/a	n/a	14	7	5	2	n/a	n/a	n/a	n/a	n/a
973470	STOP	n/a	LTP207	ltpFR	9	n/a	n/a	n/a	n/a	n/a	n/a	n/a	n/a	n/a	n/a	n/a	n/a	n/a	n/a	n/a
974742	WORD	wordpools/wasnorm_wordpool_less_exclusions.txt	LTP207	ltpFR	9	4	1	SERVANT	1271	n/a	1	n/a	0	0	0	1	0.412841796875	0.57763671875	upper	../fonts/zerothre.ttf
977755	START	n/a	LTP207	ltpFR	9	n/a	n/a	n/a	n/a	n/a	n/a	n/a	n/a	n/a	n/a	n/a	n/a	n/a	n/a	n/a
978636	PROB	n/a	LTP207	ltpFR	9	n/a	n/a	n/a	n/a	n/a	n/a	15	9	5	1	n/a	n/a	n/a	n/a	n/a
980883	PROB	n/a	LTP207	ltpFR	9	n/a	n/a	n/a	n/a	n/a	n/a	17	7	8	1	n/a	n/a	n/a	n/a	n/a
983313	PROB	n/a	LTP207	ltpFR	9	n/a	n/a	n/a	n/a	n/a	n/a	13	3	6	4	n/a	n/a	n/a	n/a	n/a
985492	PROB	n/a	LTP207	ltpFR	9	n/a	n/a	n/a	n/a	n/a	n/a	15	5	7	3	n/a	n/a	n/a	n/a	n/a
987374	PROB	n/a	LTP207	ltpFR	9	n/a	n/a	n/a	n/a	n/a	n/a	14	7	4	3	n/a	n/a	n/a	n/a	n/a
988971	PROB	n/a	LTP207	ltpFR	9	n/a	n/a	n/a	n/a	n/a	n/a	13	3	1	9	n/a	n/a	n/a	n/a	n/a
990701	PROB	n/a	LTP207	ltpFR	9	n/a	n/a	n/a	n/a	n/a	n/a	18	9	4	5	n/a	n/a	n/a	n/a	n/a
992566	STOP	n/a	LTP207	ltpFR	9	n/a	n/a	n/a	n/a	n/a	n/a	n/a	n/a	n/a	n/a	n/a	n/a	n/a	n/a	n/a
994829	WORD	wordpools/wasnorm_wordpool_less_exclusions.txt	LTP207	ltpFR	9	4	1	GUEST	669	n/a	1	n/a	0	0	0	1	0.412841796875	0.57763671875	upper	../fonts/zerothre.ttf
997842	START	n/a	LTP207	ltpFR	9	n/a	n/a	n/a	n/a	n/a	n/a	n/a	n/a	n/a	n/a	n/a	n/a	n/a	n/a	n/a
999023	PROB	n/a	LTP207	ltpFR	9	n/a	n/a	n/a	n/a	n/a	n/a	23	8	9	6	n/a	n/a	n/a	n/a	n/a
1002335	PROB	n/a	LTP207	ltpFR	9	n/a	n/a	n/a	n/a	n/a	n/a	11	8	1	2	n/a	n/a	n/a	n/a	n/a
1004182	PROB	n/a	LTP207	ltpFR	9	n/a	n/a	n/a	n/a	n/a	n/a	10	4	1	5	n/a	n/a	n/a	n/a	n/a
1005846	PROB	n/a	LTP207	ltpFR	9	n/a	n/a	n/a	n/a	n/a	n/a	18	4	5	9	n/a	n/a	n/a	n/a	n/a
1008209	PROB	n/a	LTP207	ltpFR	9	n/a	n/a	n/a	n/a	n/a	n/a	19	4	6	9	n/a	n/a	n/a	n/a	n/a
1010306	PROB	n/a	LTP207	ltpFR	9	n/a	n/a	n/a	n/a	n/a	n/a	17	4	6	7	n/a	n/a	n/a	n/a	n/a
1013842	STOP	n/a	LTP207	ltpFR	9	n/a	n/a	n/a	n/a	n/a	n/a	n/a	n/a	n/a	n/a	n/a	n/a	n/a	n/a	n/a
1014866	WORD	wordpools/wasnorm_wordpool_less_exclusions.txt	LTP207	ltpFR	9	4	1	WARDROBE	1587	n/a	0	n/a	0	0	0	1	0.412841796875	0.57763671875	upper	../fonts/zerothre.ttf
1017879	START	n/a	LTP207	ltpFR	9	n/a	n/a	n/a	n/a	n/a	n/a	n/a	n/a	n/a	n/a	n/a	n/a	n/a	n/a	n/a
1018960	PROB	n/a	LTP207	ltpFR	9	n/a	n/a	n/a	n/a	n/a	n/a	11	7	3	1	n/a	n/a	n/a	n/a	n/a
1020141	PROB	n/a	LTP207	ltpFR	9	n/a	n/a	n/a	n/a	n/a	n/a	19	6	5	8	n/a	n/a	n/a	n/a	n/a
1021889	PROB	n/a	LTP207	ltpFR	9	n/a	n/a	n/a	n/a	n/a	n/a	9	3	2	4	n/a	n/a	n/a	n/a	n/a
1023886	PROB	n/a	LTP207	ltpFR	9	n/a	n/a	n/a	n/a	n/a	n/a	20	7	8	5	n/a	n/a	n/a	n/a	n/a
1027696	PROB	n/a	LTP207	ltpFR	9	n/a	n/a	n/a	n/a	n/a	n/a	11	5	1	5	n/a	n/a	n/a	n/a	n/a
1028878	PROB	n/a	LTP207	ltpFR	9	n/a	n/a	n/a	n/a	n/a	n/a	10	8	1	1	n/a	n/a	n/a	n/a	n/a
1030343	PROB	n/a	LTP207	ltpFR	9	n/a	n/a	n/a	n/a	n/a	n/a	27	9	9	9	n/a	n/a	n/a	n/a	n/a
1032622	STOP	n/a	LTP207	ltpFR	9	n/a	n/a	n/a	n/a	n/a	n/a	n/a	n/a	n/a	n/a	n/a	n/a	n/a	n/a	n/a
1035003	WORD	wordpools/wasnorm_wordpool_less_exclusions.txt	LTP207	ltpFR	9	4	1	OX	994	n/a	1	n/a	0	0	0	1	0.412841796875	0.57763671875	upper	../fonts/zerothre.ttf
1038015	START	n/a	LTP207	ltpFR	9	n/a	n/a	n/a	n/a	n/a	n/a	n/a	n/a	n/a	n/a	n/a	n/a	n/a	n/a	n/a
1039130	PROB	n/a	LTP207	ltpFR	9	n/a	n/a	n/a	n/a	n/a	n/a	15	6	7	2	n/a	n/a	n/a	n/a	n/a
1041143	PROB	n/a	LTP207	ltpFR	9	n/a	n/a	n/a	n/a	n/a	n/a	22	5	9	7	n/a	n/a	n/a	n/a	n/a
1044255	PROB	n/a	LTP207	ltpFR	9	n/a	n/a	n/a	n/a	n/a	n/a	13	2	9	2	n/a	n/a	n/a	n/a	n/a
1046634	PROB	n/a	LTP207	ltpFR	9	n/a	n/a	n/a	n/a	n/a	n/a	18	7	5	6	n/a	n/a	n/a	n/a	n/a
1048531	PROB	n/a	LTP207	ltpFR	9	n/a	n/a	n/a	n/a	n/a	n/a	17	1	9	7	n/a	n/a	n/a	n/a	n/a
1050363	PROB	n/a	LTP207	ltpFR	9	n/a	n/a	n/a	n/a	n/a	n/a	17	5	5	7	n/a	n/a	n/a	n/a	n/a
1051977	PROB	n/a	LTP207	ltpFR	9	n/a	n/a	n/a	n/a	n/a	n/a	18	3	7	8	n/a	n/a	n/a	n/a	n/a
1053694	STOP	n/a	LTP207	ltpFR	9	n/a	n/a	n/a	n/a	n/a	n/a	n/a	n/a	n/a	n/a	n/a	n/a	n/a	n/a	n/a
1054890	WORD	wordpools/wasnorm_wordpool_less_exclusions.txt	LTP207	ltpFR	9	4	0	POLITICIAN	1099	n/a	1	n/a	0	0	0	0	0.5869140625	0.422607421875	lower	../fonts/amplitud.ttf
1057902	START	n/a	LTP207	ltpFR	9	n/a	n/a	n/a	n/a	n/a	n/a	n/a	n/a	n/a	n/a	n/a	n/a	n/a	n/a	n/a
1058934	PROB	n/a	LTP207	ltpFR	9	n/a	n/a	n/a	n/a	n/a	n/a	13	5	2	6	n/a	n/a	n/a	n/a	n/a
1061662	PROB	n/a	LTP207	ltpFR	9	n/a	n/a	n/a	n/a	n/a	n/a	16	6	1	9	n/a	n/a	n/a	n/a	n/a
1063609	PROB	n/a	LTP207	ltpFR	9	n/a	n/a	n/a	n/a	n/a	n/a	19	9	5	5	n/a	n/a	n/a	n/a	n/a
1064975	PROB	n/a	LTP207	ltpFR	9	n/a	n/a	n/a	n/a	n/a	n/a	17	8	7	2	n/a	n/a	n/a	n/a	n/a
1067854	PROB	n/a	LTP207	ltpFR	9	n/a	n/a	n/a	n/a	n/a	n/a	18	7	9	2	n/a	n/a	n/a	n/a	n/a
1069967	PROB	n/a	LTP207	ltpFR	9	n/a	n/a	n/a	n/a	n/a	n/a	20	7	8	5	n/a	n/a	n/a	n/a	n/a
1071647	PROB	n/a	LTP207	ltpFR	9	n/a	n/a	n/a	n/a	n/a	n/a	11	5	6	1	n/a	n/a	n/a	n/a	n/a
1073799	STOP	n/a	LTP207	ltpFR	9	n/a	n/a	n/a	n/a	n/a	n/a	n/a	n/a	n/a	n/a	n/a	n/a	n/a	n/a	n/a
1074976	WORD	wordpools/wasnorm_wordpool_less_exclusions.txt	LTP207	ltpFR	9	4	0	SCROLL	1257	n/a	0	n/a	0	0	0	0	0.5869140625	0.422607421875	lower	../fonts/amplitud.ttf
1077989	START	n/a	LTP207	ltpFR	9	n/a	n/a	n/a	n/a	n/a	n/a	n/a	n/a	n/a	n/a	n/a	n/a	n/a	n/a	n/a
1079070	PROB	n/a	LTP207	ltpFR	9	n/a	n/a	n/a	n/a	n/a	n/a	21	6	8	7	n/a	n/a	n/a	n/a	n/a
1081167	PROB	n/a	LTP207	ltpFR	9	n/a	n/a	n/a	n/a	n/a	n/a	8	1	5	2	n/a	n/a	n/a	n/a	n/a
1083846	PROB	n/a	LTP207	ltpFR	9	n/a	n/a	n/a	n/a	n/a	n/a	17	7	1	8	n/a	n/a	n/a	n/a	n/a
1085743	PROB	n/a	LTP207	ltpFR	9	n/a	n/a	n/a	n/a	n/a	n/a	13	8	2	3	n/a	n/a	n/a	n/a	n/a
1088140	PROB	n/a	LTP207	ltpFR	9	n/a	n/a	n/a	n/a	n/a	n/a	19	4	8	7	n/a	n/a	n/a	n/a	n/a
1090237	PROB	n/a	LTP207	ltpFR	9	n/a	n/a	n/a	n/a	n/a	n/a	13	5	5	3	n/a	n/a	n/a	n/a	n/a
1091452	PROB	n/a	LTP207	ltpFR	9	n/a	n/a	n/a	n/a	n/a	n/a	16	4	6	6	n/a	n/a	n/a	n/a	n/a
1093055	STOP	n/a	LTP207	ltpFR	9	n/a	n/a	n/a	n/a	n/a	n/a	n/a	n/a	n/a	n/a	n/a	n/a	n/a	n/a	n/a
1095762	REC_START	n/a	LTP207	ltpFR	9	4	n/a	n/a	n/a	n/a	n/a	n/a	0	0	0	n/a	n/a	n/a	n/a	n/a
1147729	REC_WORD	wordpools/wasnorm_wordpool_less_exclusions.txt	LTP207	ltpFR	9	4	1	BUSH	202	n/a	0	n/a	0	0	0	n/a	n/a	n/a	n/a	n/a
1150487	REC_WORD	wordpools/wasnorm_wordpool_less_exclusions.txt	LTP207	ltpFR	9	4	1	REEF	1177	n/a	0	n/a	0	0	0	n/a	n/a	n/a	n/a	n/a
1161936	REC_WORD	wordpools/wasnorm_wordpool_less_exclusions.txt	LTP207	ltpFR	9	4	0	POLITICIAN	1099	n/a	1	n/a	0	0	0	n/a	n/a	n/a	n/a	n/a
1175876	WORD	wordpools/wasnorm_wordpool_less_exclusions.txt	LTP207	ltpFR	9	5	0	DRESSER	496	n/a	1	n/a	0	0	0	0	0.5869140625	0.422607421875	lower	../fonts/amplitud.ttf
1179735	WORD	wordpools/wasnorm_wordpool_less_exclusions.txt	LTP207	ltpFR	9	5	0	CLIFF	322	n/a	1	n/a	0	0	0	0	0.5869140625	0.422607421875	lower	../fonts/amplitud.ttf
1183563	WORD	wordpools/wasnorm_wordpool_less_exclusions.txt	LTP207	ltpFR	9	5	0	MOUNTAIN	924	n/a	1	n/a	0	0	0	0	0.5869140625	0.422607421875	lower	../fonts/amplitud.ttf
1187707	WORD	wordpools/wasnorm_wordpool_less_exclusions.txt	LTP207	ltpFR	9	5	0	WORM	1623	n/a	0	n/a	0	0	0	0	0.5869140625	0.422607421875	lower	../fonts/amplitud.ttf
1191601	WORD	wordpools/wasnorm_wordpool_less_exclusions.txt	LTP207	ltpFR	9	5	1	OVEN	991	n/a	0	n/a	0	0	0	1	0.412841796875	0.57763671875	upper	../fonts/zerothre.ttf
1195628	WORD	wordpools/wasnorm_wordpool_less_exclusions.txt	LTP207	ltpFR	9	5	1	PIT	1077	n/a	0	n/a	0	0	0	1	0.412841796875	0.57763671875	upper	../fonts/zerothre.ttf
1199572	WORD	wordpools/wasnorm_wordpool_less_exclusions.txt	LTP207	ltpFR	9	5	1	BRANCH	168	n/a	0	n/a	0	0	0	1	0.412841796875	0.57763671875	upper	../fonts/zerothre.ttf
1203650	WORD	wordpools/wasnorm_wordpool_less_exclusions.txt	LTP207	ltpFR	9	5	1	TWIG	1527	n/a	0	n/a	0	0	0	1	0.412841796875	0.57763671875	upper	../fonts/zerothre.ttf
1207844	WORD	wordpools/wasnorm_wordpool_less_exclusions.txt	LTP207	ltpFR	9	5	0	FLIPPER	580	n/a	0	n/a	0	0	0	0	0.5869140625	0.422607421875	lower	../fonts/amplitud.ttf
1211838	WORD	wordpools/wasnorm_wordpool_less_exclusions.txt	LTP207	ltpFR	9	5	0	HANGER	687	n/a	0	n/a	0	0	0	0	0.5869140625	0.422607421875	lower	../fonts/amplitud.ttf
1215966	WORD	wordpools/wasnorm_wordpool_less_exclusions.txt	LTP207	ltpFR	9	5	0	CALF	222	n/a	1	n/a	0	0	0	0	0.5869140625	0.422607421875	lower	../fonts/amplitud.ttf
1220143	WORD	wordpools/wasnorm_wordpool_less_exclusions.txt	LTP207	ltpFR	9	5	0	TIGER	1467	n/a	1	n/a	0	0	0	0	0.5869140625	0.422607421875	lower	../fonts/amplitud.ttf
1224320	WORD	wordpools/wasnorm_wordpool_less_exclusions.txt	LTP207	ltpFR	9	5	1	WALRUS	1585	n/a	1	n/a	0	0	0	1	0.412841796875	0.57763671875	upper	../fonts/zerothre.ttf
1228496	WORD	wordpools/wasnorm_wordpool_less_exclusions.txt	LTP207	ltpFR	9	5	1	PITCHFORK	1078	n/a	0	n/a	0	0	0	1	0.412841796875	0.57763671875	upper	../fonts/zerothre.ttf
1232441	WORD	wordpools/wasnorm_wordpool_less_exclusions.txt	LTP207	ltpFR	9	5	1	SHRIMP	1297	n/a	1	n/a	0	0	0	1	0.412841796875	0.57763671875	upper	../fonts/zerothre.ttf
1236634	WORD	wordpools/wasnorm_wordpool_less_exclusions.txt	LTP207	ltpFR	9	5	1	FEAST	556	n/a	0	n/a	0	0	0	1	0.412841796875	0.57763671875	upper	../fonts/zerothre.ttf
1239646	START	n/a	LTP207	ltpFR	9	n/a	n/a	n/a	n/a	n/a	n/a	n/a	n/a	n/a	n/a	n/a	n/a	n/a	n/a	n/a
1240828	PROB	n/a	LTP207	ltpFR	9	n/a	n/a	n/a	n/a	n/a	n/a	10	3	1	6	n/a	n/a	n/a	n/a	n/a
1242725	PROB	n/a	LTP207	ltpFR	9	n/a	n/a	n/a	n/a	n/a	n/a	17	7	5	5	n/a	n/a	n/a	n/a	n/a
1245039	PROB	n/a	LTP207	ltpFR	9	n/a	n/a	n/a	n/a	n/a	n/a	11	2	4	5	n/a	n/a	n/a	n/a	n/a
1247542	STOP	n/a	LTP207	ltpFR	9	n/a	n/a	n/a	n/a	n/a	n/a	n/a	n/a	n/a	n/a	n/a	n/a	n/a	n/a	n/a
1249482	REC_START	n/a	LTP207	ltpFR	9	5	n/a	n/a	n/a	n/a	n/a	n/a	0	0	0	n/a	n/a	n/a	n/a	n/a
1251073	REC_WORD	wordpools/wasnorm_wordpool_less_exclusions.txt	LTP207	ltpFR	9	5	0	DRESSER	496	n/a	1	n/a	0	0	0	n/a	n/a	n/a	n/a	n/a
1252520	REC_WORD	wordpools/wasnorm_wordpool_less_exclusions.txt	LTP207	ltpFR	9	5	0	CLIFF	322	n/a	1	n/a	0	0	0	n/a	n/a	n/a	n/a	n/a
1254570	REC_WORD	wordpools/wasnorm_wordpool_less_exclusions.txt	LTP207	ltpFR	9	5	0	MOUNTAIN	924	n/a	1	n/a	0	0	0	n/a	n/a	n/a	n/a	n/a
1267715	REC_WORD	wordpools/wasnorm_wordpool_less_exclusions.txt	LTP207	ltpFR	9	5	1	OVEN	991	n/a	0	n/a	0	0	0	n/a	n/a	n/a	n/a	n/a
1271901	REC_WORD	wordpools/wasnorm_wordpool_less_exclusions.txt	LTP207	ltpFR	9	5	0	WORM	1623	n/a	0	n/a	0	0	0	n/a	n/a	n/a	n/a	n/a
1276126	REC_WORD	wordpools/wasnorm_wordpool_less_exclusions.txt	LTP207	ltpFR	9	5	1	PIT	1077	n/a	0	n/a	0	0	0	n/a	n/a	n/a	n/a	n/a
1282043	REC_WORD	wordpools/wasnorm_wordpool_less_exclusions.txt	LTP207	ltpFR	9	5	1	BRANCH	168	n/a	0	n/a	0	0	0	n/a	n/a	n/a	n/a	n/a
1283260	REC_WORD	wordpools/wasnorm_wordpool_less_exclusions.txt	LTP207	ltpFR	9	5	1	TWIG	1527	n/a	0	n/a	0	0	0	n/a	n/a	n/a	n/a	n/a
1285964	REC_WORD	wordpools/wasnorm_wordpool_less_exclusions.txt	LTP207	ltpFR	9	5	1	WALRUS	1585	n/a	1	n/a	0	0	0	n/a	n/a	n/a	n/a	n/a
1334422	WORD	wordpools/wasnorm_wordpool_less_exclusions.txt	LTP207	ltpFR	9	6	1	TICK	1463	n/a	1	n/a	0	0	0	1	0.412841796875	0.57763671875	upper	../fonts/zerothre.ttf
1338465	WORD	wordpools/wasnorm_wordpool_less_exclusions.txt	LTP207	ltpFR	9	6	1	WOLF	1619	n/a	1	n/a	0	0	0	1	0.412841796875	0.57763671875	upper	../fonts/zerothre.ttf
1342310	WORD	wordpools/wasnorm_wordpool_less_exclusions.txt	LTP207	ltpFR	9	6	1	DANDELION	438	n/a	1	n/a	0	0	0	1	0.412841796875	0.57763671875	upper	../fonts/zerothre.ttf
1346271	WORD	wordpools/wasnorm_wordpool_less_exclusions.txt	LTP207	ltpFR	9	6	1	SPHINX	1349	n/a	1	n/a	0	0	0	1	0.412841796875	0.57763671875	upper	../fonts/zerothre.ttf
1350448	WORD	wordpools/wasnorm_wordpool_less_exclusions.txt	LTP207	ltpFR	9	6	1	BAKER	71	n/a	1	n/a	0	0	0	1	0.412841796875	0.57763671875	upper	../fonts/zerothre.ttf
1354624	WORD	wordpools/wasnorm_wordpool_less_exclusions.txt	LTP207	ltpFR	9	6	1	PAINTING	1005	n/a	0	n/a	0	0	0	1	0.412841796875	0.57763671875	upper	../fonts/zerothre.ttf
1358502	WORD	wordpools/wasnorm_wordpool_less_exclusions.txt	LTP207	ltpFR	9	6	1	MONUMENT	913	n/a	0	n/a	0	0	0	1	0.412841796875	0.57763671875	upper	../fonts/zerothre.ttf
1362562	WORD	wordpools/wasnorm_wordpool_less_exclusions.txt	LTP207	ltpFR	9	6	1	COLT	349	n/a	1	n/a	0	0	0	1	0.412841796875	0.57763671875	upper	../fonts/zerothre.ttf
1366673	WORD	wordpools/wasnorm_wordpool_less_exclusions.txt	LTP207	ltpFR	9	6	1	CANDIDATE	228	n/a	1	n/a	0	0	0	1	0.412841796875	0.57763671875	upper	../fonts/zerothre.ttf
1370534	WORD	wordpools/wasnorm_wordpool_less_exclusions.txt	LTP207	ltpFR	9	6	1	JUGGLER	763	n/a	1	n/a	0	0	0	1	0.412841796875	0.57763671875	upper	../fonts/zerothre.ttf
1374561	WORD	wordpools/wasnorm_wordpool_less_exclusions.txt	LTP207	ltpFR	9	6	1	PLANT	1083	n/a	1	n/a	0	0	0	1	0.412841796875	0.57763671875	upper	../fonts/zerothre.ttf
1378456	WORD	wordpools/wasnorm_wordpool_less_exclusions.txt	LTP207	ltpFR	9	6	1	BOTTLE	153	n/a	0	n/a	0	0	0	1	0.412841796875	0.57763671875	upper	../fonts/zerothre.ttf
1382499	WORD	wordpools/wasnorm_wordpool_less_exclusions.txt	LTP207	ltpFR	9	6	1	CHAMPAGNE	278	n/a	0	n/a	0	0	0	1	0.412841796875	0.57763671875	upper	../fonts/zerothre.ttf
1386411	WORD	wordpools/wasnorm_wordpool_less_exclusions.txt	LTP207	ltpFR	9	6	1	JAR	750	n/a	0	n/a	0	0	0	1	0.412841796875	0.57763671875	upper	../fonts/zerothre.ttf
1390239	WORD	wordpools/wasnorm_wordpool_less_exclusions.txt	LTP207	ltpFR	9	6	1	CRUMB	416	n/a	0	n/a	0	0	0	1	0.412841796875	0.57763671875	upper	../fonts/zerothre.ttf
1394150	WORD	wordpools/wasnorm_wordpool_less_exclusions.txt	LTP207	ltpFR	9	6	1	PUCK	1138	n/a	0	n/a	0	0	0	1	0.412841796875	0.57763671875	upper	../fonts/zerothre.ttf
1400124	REC_START	n/a	LTP207	ltpFR	9	6	n/a	n/a	n/a	n/a	n/a	n/a	0	0	0	n/a	n/a	n/a	n/a	n/a
1401835	REC_WORD	wordpools/wasnorm_wordpool_less_exclusions.txt	LTP207	ltpFR	9	6	1	JAR	750	n/a	0	n/a	0	0	0	n/a	n/a	n/a	n/a	n/a
1404447	REC_WORD	wordpools/wasnorm_wordpool_less_exclusions.txt	LTP207	ltpFR	9	6	1	CRUMB	416	n/a	0	n/a	0	0	0	n/a	n/a	n/a	n/a	n/a
1410909	REC_WORD	wordpools/wasnorm_wordpool_less_exclusions.txt	LTP207	ltpFR	9	6	1	WOLF	1619	n/a	1	n/a	0	0	0	n/a	n/a	n/a	n/a	n/a
1413144	REC_WORD	wordpools/wasnorm_wordpool_less_exclusions.txt	LTP207	ltpFR	9	6	1	TICK	1463	n/a	1	n/a	0	0	0	n/a	n/a	n/a	n/a	n/a
1415554	REC_WORD	wordpools/wasnorm_wordpool_less_exclusions.txt	LTP207	ltpFR	9	6	1	DANDELION	438	n/a	1	n/a	0	0	0	n/a	n/a	n/a	n/a	n/a
1419270	REC_WORD	wordpools/wasnorm_wordpool_less_exclusions.txt	LTP207	ltpFR	9	6	1	BAKER	71	n/a	1	n/a	0	0	0	n/a	n/a	n/a	n/a	n/a
1422583	REC_WORD	wordpools/wasnorm_wordpool_less_exclusions.txt	LTP207	ltpFR	9	6	1	PAINTING	1005	n/a	0	n/a	0	0	0	n/a	n/a	n/a	n/a	n/a
1426075	REC_WORD	wordpools/wasnorm_wordpool_less_exclusions.txt	LTP207	ltpFR	9	6	1	MONUMENT	913	n/a	0	n/a	0	0	0	n/a	n/a	n/a	n/a	n/a
1488658	START	n/a	LTP207	ltpFR	9	n/a	n/a	n/a	n/a	n/a	n/a	n/a	n/a	n/a	n/a	n/a	n/a	n/a	n/a	n/a
1490173	PROB	n/a	LTP207	ltpFR	9	n/a	n/a	n/a	n/a	n/a	n/a	13	1	5	7	n/a	n/a	n/a	n/a	n/a
1491953	PROB	n/a	LTP207	ltpFR	9	n/a	n/a	n/a	n/a	n/a	n/a	13	6	6	1	n/a	n/a	n/a	n/a	n/a
1493285	PROB	n/a	LTP207	ltpFR	9	n/a	n/a	n/a	n/a	n/a	n/a	10	2	1	6	n/a	n/a	n/a	n/a	n/a
1496658	STOP	n/a	LTP207	ltpFR	9	n/a	n/a	n/a	n/a	n/a	n/a	n/a	n/a	n/a	n/a	n/a	n/a	n/a	n/a	n/a
1497544	WORD	wordpools/wasnorm_wordpool_less_exclusions.txt	LTP207	ltpFR	9	7	0	LOUNGE	845	n/a	1	n/a	0	0	0	0	0.5869140625	0.422607421875	lower	../fonts/amplitud.ttf
1500557	START	n/a	LTP207	ltpFR	9	n/a	n/a	n/a	n/a	n/a	n/a	n/a	n/a	n/a	n/a	n/a	n/a	n/a	n/a	n/a
1501488	PROB	n/a	LTP207	ltpFR	9	n/a	n/a	n/a	n/a	n/a	n/a	16	9	3	4	n/a	n/a	n/a	n/a	n/a
1504035	PROB	n/a	LTP207	ltpFR	9	n/a	n/a	n/a	n/a	n/a	n/a	19	6	8	5	n/a	n/a	n/a	n/a	n/a
1508295	STOP	n/a	LTP207	ltpFR	9	n/a	n/a	n/a	n/a	n/a	n/a	n/a	n/a	n/a	n/a	n/a	n/a	n/a	n/a	n/a
1509559	WORD	wordpools/wasnorm_wordpool_less_exclusions.txt	LTP207	ltpFR	9	7	0	STEREO	1378	n/a	1	n/a	0	0	0	0	0.5869140625	0.422607421875	lower	../fonts/amplitud.ttf
1512572	START	n/a	LTP207	ltpFR	9	n/a	n/a	n/a	n/a	n/a	n/a	n/a	n/a	n/a	n/a	n/a	n/a	n/a	n/a	n/a
1513603	PROB	n/a	LTP207	ltpFR	9	n/a	n/a	n/a	n/a	n/a	n/a	18	7	4	7	n/a	n/a	n/a	n/a	n/a
1515402	PROB	n/a	LTP207	ltpFR	9	n/a	n/a	n/a	n/a	n/a	n/a	16	5	3	8	n/a	n/a	n/a	n/a	n/a
1517132	PROB	n/a	LTP207	ltpFR	9	n/a	n/a	n/a	n/a	n/a	n/a	14	5	2	7	n/a	n/a	n/a	n/a	n/a
1519295	STOP	n/a	LTP207	ltpFR	9	n/a	n/a	n/a	n/a	n/a	n/a	n/a	n/a	n/a	n/a	n/a	n/a	n/a	n/a	n/a
1521475	WORD	wordpools/wasnorm_wordpool_less_exclusions.txt	LTP207	ltpFR	9	7	0	DOLLAR	482	n/a	0	n/a	0	0	0	0	0.5869140625	0.422607421875	lower	../fonts/amplitud.ttf
1524488	START	n/a	LTP207	ltpFR	9	n/a	n/a	n/a	n/a	n/a	n/a	n/a	n/a	n/a	n/a	n/a	n/a	n/a	n/a	n/a
1525320	PROB	n/a	LTP207	ltpFR	9	n/a	n/a	n/a	n/a	n/a	n/a	17	7	7	3	n/a	n/a	n/a	n/a	n/a
1532488	STOP	n/a	LTP207	ltpFR	9	n/a	n/a	n/a	n/a	n/a	n/a	n/a	n/a	n/a	n/a	n/a	n/a	n/a	n/a	n/a
1533392	WORD	wordpools/wasnorm_wordpool_less_exclusions.txt	LTP207	ltpFR	9	7	0	FLAG	573	n/a	1	n/a	0	0	0	0	0.5869140625	0.422607421875	lower	../fonts/amplitud.ttf
1536404	START	n/a	LTP207	ltpFR	9	n/a	n/a	n/a	n/a	n/a	n/a	n/a	n/a	n/a	n/a	n/a	n/a	n/a	n/a	n/a
1537319	PROB	n/a	LTP207	ltpFR	9	n/a	n/a	n/a	n/a	n/a	n/a	14	6	6	3	n/a	n/a	n/a	n/a	n/a
1541113	PROB	n/a	LTP207	ltpFR	9	n/a	n/a	n/a	n/a	n/a	n/a	16	7	2	7	n/a	n/a	n/a	n/a	n/a
1543119	STOP	n/a	LTP207	ltpFR	9	n/a	n/a	n/a	n/a	n/a	n/a	n/a	n/a	n/a	n/a	n/a	n/a	n/a	n/a	n/a
1545357	WORD	wordpools/wasnorm_wordpool_less_exclusions.txt	LTP207	ltpFR	9	7	0	HERO	706	n/a	1	n/a	0	0	0	0	0.5869140625	0.422607421875	lower	../fonts/amplitud.ttf
1548370	START	n/a	LTP207	ltpFR	9	n/a	n/a	n/a	n/a	n/a	n/a	n/a	n/a	n/a	n/a	n/a	n/a	n/a	n/a	n/a
1549184	PROB	n/a	LTP207	ltpFR	9	n/a	n/a	n/a	n/a	n/a	n/a	18	7	9	2	n/a	n/a	n/a	n/a	n/a
1551847	PROB	n/a	LTP207	ltpFR	9	n/a	n/a	n/a	n/a	n/a	n/a	16	6	8	2	n/a	n/a	n/a	n/a	n/a
1556369	STOP	n/a	LTP207	ltpFR	9	n/a	n/a	n/a	n/a	n/a	n/a	n/a	n/a	n/a	n/a	n/a	n/a	n/a	n/a	n/a
1557471	WORD	wordpools/wasnorm_wordpool_less_exclusions.txt	LTP207	ltpFR	9	7	0	KEG	770	n/a	1	n/a	0	0	0	0	0.5869140625	0.422607421875	lower	../fonts/amplitud.ttf
1560484	START	n/a	LTP207	ltpFR	9	n/a	n/a	n/a	n/a	n/a	n/a	n/a	n/a	n/a	n/a	n/a	n/a	n/a	n/a	n/a
1561400	PROB	n/a	LTP207	ltpFR	9	n/a	n/a	n/a	n/a	n/a	n/a	20	9	4	7	n/a	n/a	n/a	n/a	n/a
1564245	PROB	n/a	LTP207	ltpFR	9	n/a	n/a	n/a	n/a	n/a	n/a	24	8	7	9	n/a	n/a	n/a	n/a	n/a
1568484	STOP	n/a	LTP207	ltpFR	9	n/a	n/a	n/a	n/a	n/a	n/a	n/a	n/a	n/a	n/a	n/a	n/a	n/a	n/a	n/a
1569586	WORD	wordpools/wasnorm_wordpool_less_exclusions.txt	LTP207	ltpFR	9	7	0	OYSTER	995	n/a	0	n/a	0	0	0	0	0.5869140625	0.422607421875	lower	../fonts/amplitud.ttf
1572599	START	n/a	LTP207	ltpFR	9	n/a	n/a	n/a	n/a	n/a	n/a	n/a	n/a	n/a	n/a	n/a	n/a	n/a	n/a	n/a
1573464	PROB	n/a	LTP207	ltpFR	9	n/a	n/a	n/a	n/a	n/a	n/a	17	9	3	5	n/a	n/a	n/a	n/a	n/a
1575528	PROB	n/a	LTP207	ltpFR	9	n/a	n/a	n/a	n/a	n/a	n/a	23	8	6	9	n/a	n/a	n/a	n/a	n/a
1580598	STOP	n/a	LTP207	ltpFR	9	n/a	n/a	n/a	n/a	n/a	n/a	n/a	n/a	n/a	n/a	n/a	n/a	n/a	n/a	n/a
1581535	WORD	wordpools/wasnorm_wordpool_less_exclusions.txt	LTP207	ltpFR	9	7	0	BASKET	95	n/a	1	n/a	0	0	0	0	0.5869140625	0.422607421875	lower	../fonts/amplitud.ttf
1584548	START	n/a	LTP207	ltpFR	9	n/a	n/a	n/a	n/a	n/a	n/a	n/a	n/a	n/a	n/a	n/a	n/a	n/a	n/a	n/a
1585729	PROB	n/a	LTP207	ltpFR	9	n/a	n/a	n/a	n/a	n/a	n/a	17	7	7	3	n/a	n/a	n/a	n/a	n/a
1587844	PROB	n/a	LTP207	ltpFR	9	n/a	n/a	n/a	n/a	n/a	n/a	22	8	8	5	n/a	n/a	n/a	n/a	n/a
1592548	STOP	n/a	LTP207	ltpFR	9	n/a	n/a	n/a	n/a	n/a	n/a	n/a	n/a	n/a	n/a	n/a	n/a	n/a	n/a	n/a
1593617	WORD	wordpools/wasnorm_wordpool_less_exclusions.txt	LTP207	ltpFR	9	7	0	WALLET	1583	n/a	0	n/a	0	0	0	0	0.5869140625	0.422607421875	lower	../fonts/amplitud.ttf
1596630	START	n/a	LTP207	ltpFR	9	n/a	n/a	n/a	n/a	n/a	n/a	n/a	n/a	n/a	n/a	n/a	n/a	n/a	n/a	n/a
1597812	PROB	n/a	LTP207	ltpFR	9	n/a	n/a	n/a	n/a	n/a	n/a	12	7	2	3	n/a	n/a	n/a	n/a	n/a
1600092	PROB	n/a	LTP207	ltpFR	9	n/a	n/a	n/a	n/a	n/a	n/a	17	9	6	2	n/a	n/a	n/a	n/a	n/a
1604630	STOP	n/a	LTP207	ltpFR	9	n/a	n/a	n/a	n/a	n/a	n/a	n/a	n/a	n/a	n/a	n/a	n/a	n/a	n/a	n/a
1605699	WORD	wordpools/wasnorm_wordpool_less_exclusions.txt	LTP207	ltpFR	9	7	0	SQUIRREL	1362	n/a	0	n/a	0	0	0	0	0.5869140625	0.422607421875	lower	../fonts/amplitud.ttf
1608712	START	n/a	LTP207	ltpFR	9	n/a	n/a	n/a	n/a	n/a	n/a	n/a	n/a	n/a	n/a	n/a	n/a	n/a	n/a	n/a
1609844	PROB	n/a	LTP207	ltpFR	9	n/a	n/a	n/a	n/a	n/a	n/a	10	1	7	2	n/a	n/a	n/a	n/a	n/a
1611342	PROB	n/a	LTP207	ltpFR	9	n/a	n/a	n/a	n/a	n/a	n/a	7	5	1	1	n/a	n/a	n/a	n/a	n/a
1612856	PROB	n/a	LTP207	ltpFR	9	n/a	n/a	n/a	n/a	n/a	n/a	15	4	8	3	n/a	n/a	n/a	n/a	n/a
1616712	STOP	n/a	LTP207	ltpFR	9	n/a	n/a	n/a	n/a	n/a	n/a	n/a	n/a	n/a	n/a	n/a	n/a	n/a	n/a	n/a
1617815	WORD	wordpools/wasnorm_wordpool_less_exclusions.txt	LTP207	ltpFR	9	7	0	PERFUME	1049	n/a	0	n/a	0	0	0	0	0.5869140625	0.422607421875	lower	../fonts/amplitud.ttf
1620828	START	n/a	LTP207	ltpFR	9	n/a	n/a	n/a	n/a	n/a	n/a	n/a	n/a	n/a	n/a	n/a	n/a	n/a	n/a	n/a
1621976	PROB	n/a	LTP207	ltpFR	9	n/a	n/a	n/a	n/a	n/a	n/a	16	9	1	6	n/a	n/a	n/a	n/a	n/a
1623757	PROB	n/a	LTP207	ltpFR	9	n/a	n/a	n/a	n/a	n/a	n/a	11	3	3	5	n/a	n/a	n/a	n/a	n/a
1625520	PROB	n/a	LTP207	ltpFR	9	n/a	n/a	n/a	n/a	n/a	n/a	13	1	3	9	n/a	n/a	n/a	n/a	n/a
1626952	PROB	n/a	LTP207	ltpFR	9	n/a	n/a	n/a	n/a	n/a	n/a	3	1	1	1	n/a	n/a	n/a	n/a	n/a
1627991	STOP	n/a	LTP207	ltpFR	9	n/a	n/a	n/a	n/a	n/a	n/a	n/a	n/a	n/a	n/a	n/a	n/a	n/a	n/a	n/a
1629864	WORD	wordpools/wasnorm_wordpool_less_exclusions.txt	LTP207	ltpFR	9	7	0	VINEGAR	1569	n/a	0	n/a	0	0	0	0	0.5869140625	0.422607421875	lower	../fonts/amplitud.ttf
1632877	START	n/a	LTP207	ltpFR	9	n/a	n/a	n/a	n/a	n/a	n/a	n/a	n/a	n/a	n/a	n/a	n/a	n/a	n/a	n/a
1633925	PROB	n/a	LTP207	ltpFR	9	n/a	n/a	n/a	n/a	n/a	n/a	12	4	4	4	n/a	n/a	n/a	n/a	n/a
1637336	PROB	n/a	LTP207	ltpFR	9	n/a	n/a	n/a	n/a	n/a	n/a	15	5	7	3	n/a	n/a	n/a	n/a	n/a
1640063	STOP	n/a	LTP207	ltpFR	9	n/a	n/a	n/a	n/a	n/a	n/a	n/a	n/a	n/a	n/a	n/a	n/a	n/a	n/a	n/a
1641763	WORD	wordpools/wasnorm_wordpool_less_exclusions.txt	LTP207	ltpFR	9	7	0	COB	334	n/a	0	n/a	0	0	0	0	0.5869140625	0.422607421875	lower	../fonts/amplitud.ttf
1644776	START	n/a	LTP207	ltpFR	9	n/a	n/a	n/a	n/a	n/a	n/a	n/a	n/a	n/a	n/a	n/a	n/a	n/a	n/a	n/a
1645940	PROB	n/a	LTP207	ltpFR	9	n/a	n/a	n/a	n/a	n/a	n/a	17	3	8	6	n/a	n/a	n/a	n/a	n/a
1648054	PROB	n/a	LTP207	ltpFR	9	n/a	n/a	n/a	n/a	n/a	n/a	12	3	3	6	n/a	n/a	n/a	n/a	n/a
1652776	STOP	n/a	LTP207	ltpFR	9	n/a	n/a	n/a	n/a	n/a	n/a	n/a	n/a	n/a	n/a	n/a	n/a	n/a	n/a	n/a
1653594	WORD	wordpools/wasnorm_wordpool_less_exclusions.txt	LTP207	ltpFR	9	7	0	CORN	381	n/a	0	n/a	0	0	0	0	0.5869140625	0.422607421875	lower	../fonts/amplitud.ttf
1656607	START	n/a	LTP207	ltpFR	9	n/a	n/a	n/a	n/a	n/a	n/a	n/a	n/a	n/a	n/a	n/a	n/a	n/a	n/a	n/a
1657555	PROB	n/a	LTP207	ltpFR	9	n/a	n/a	n/a	n/a	n/a	n/a	18	7	3	8	n/a	n/a	n/a	n/a	n/a
1660086	PROB	n/a	LTP207	ltpFR	9	n/a	n/a	n/a	n/a	n/a	n/a	11	3	5	3	n/a	n/a	n/a	n/a	n/a
1663263	STOP	n/a	LTP207	ltpFR	9	n/a	n/a	n/a	n/a	n/a	n/a	n/a	n/a	n/a	n/a	n/a	n/a	n/a	n/a	n/a
1665710	WORD	wordpools/wasnorm_wordpool_less_exclusions.txt	LTP207	ltpFR	9	7	0	PIE	1062	n/a	0	n/a	0	0	0	0	0.5869140625	0.422607421875	lower	../fonts/amplitud.ttf
1668722	START	n/a	LTP207	ltpFR	9	n/a	n/a	n/a	n/a	n/a	n/a	n/a	n/a	n/a	n/a	n/a	n/a	n/a	n/a	n/a
1669570	PROB	n/a	LTP207	ltpFR	9	n/a	n/a	n/a	n/a	n/a	n/a	18	6	6	6	n/a	n/a	n/a	n/a	n/a
1671617	PROB	n/a	LTP207	ltpFR	9	n/a	n/a	n/a	n/a	n/a	n/a	15	1	9	5	n/a	n/a	n/a	n/a	n/a
1672966	PROB	n/a	LTP207	ltpFR	9	n/a	n/a	n/a	n/a	n/a	n/a	14	5	7	2	n/a	n/a	n/a	n/a	n/a
1675375	STOP	n/a	LTP207	ltpFR	9	n/a	n/a	n/a	n/a	n/a	n/a	n/a	n/a	n/a	n/a	n/a	n/a	n/a	n/a	n/a
1677859	WORD	wordpools/wasnorm_wordpool_less_exclusions.txt	LTP207	ltpFR	9	7	0	RUM	1217	n/a	0	n/a	0	0	0	0	0.5869140625	0.422607421875	lower	../fonts/amplitud.ttf
1680871	START	n/a	LTP207	ltpFR	9	n/a	n/a	n/a	n/a	n/a	n/a	n/a	n/a	n/a	n/a	n/a	n/a	n/a	n/a	n/a
1681936	PROB	n/a	LTP207	ltpFR	9	n/a	n/a	n/a	n/a	n/a	n/a	13	3	6	4	n/a	n/a	n/a	n/a	n/a
1683917	PROB	n/a	LTP207	ltpFR	9	n/a	n/a	n/a	n/a	n/a	n/a	8	6	1	1	n/a	n/a	n/a	n/a	n/a
1685231	PROB	n/a	LTP207	ltpFR	9	n/a	n/a	n/a	n/a	n/a	n/a	12	5	6	1	n/a	n/a	n/a	n/a	n/a
1686578	PROB	n/a	LTP207	ltpFR	9	n/a	n/a	n/a	n/a	n/a	n/a	16	7	6	3	n/a	n/a	n/a	n/a	n/a
1688566	STOP	n/a	LTP207	ltpFR	9	n/a	n/a	n/a	n/a	n/a	n/a	n/a	n/a	n/a	n/a	n/a	n/a	n/a	n/a	n/a
1690757	REC_START	n/a	LTP207	ltpFR	9	7	n/a	n/a	n/a	n/a	n/a	n/a	0	0	0	n/a	n/a	n/a	n/a	n/a
1693266	REC_WORD	wordpools/wasnorm_wordpool_less_exclusions.txt	LTP207	ltpFR	9	7	0	LOUNGE	845	n/a	1	n/a	0	0	0	n/a	n/a	n/a	n/a	n/a
1696868	REC_WORD	wordpools/wasnorm_wordpool_less_exclusions.txt	LTP207	ltpFR	9	7	0	CLOSET	326	n/a	1	n/a	0	0	0	n/a	n/a	n/a	n/a	n/a
1700447	REC_WORD	wordpools/wasnorm_wordpool_less_exclusions.txt	LTP207	ltpFR	9	7	0	STEREO	1378	n/a	1	n/a	0	0	0	n/a	n/a	n/a	n/a	n/a
1706720	REC_WORD	wordpools/wasnorm_wordpool_less_exclusions.txt	LTP207	ltpFR	9	7	0	SQUIRREL	1362	n/a	0	n/a	0	0	0	n/a	n/a	n/a	n/a	n/a
1794418	WORD	wordpools/wasnorm_wordpool_less_exclusions.txt	LTP207	ltpFR	9	8	1	PAW	1029	n/a	0	n/a	0	0	0	1	0.412841796875	0.57763671875	upper	../fonts/zerothre.ttf
1798312	WORD	wordpools/wasnorm_wordpool_less_exclusions.txt	LTP207	ltpFR	9	8	1	HIKER	708	n/a	1	n/a	0	0	0	1	0.412841796875	0.57763671875	upper	../fonts/zerothre.ttf
1802190	WORD	wordpools/wasnorm_wordpool_less_exclusions.txt	LTP207	ltpFR	9	8	0	VALLEY	1545	n/a	1	n/a	0	0	0	0	0.5869140625	0.422607421875	lower	../fonts/amplitud.ttf
1806317	WORD	wordpools/wasnorm_wordpool_less_exclusions.txt	LTP207	ltpFR	9	8	0	GARBAGE	622	n/a	1	n/a	0	0	0	0	0.5869140625	0.422607421875	lower	../fonts/amplitud.ttf
1810361	WORD	wordpools/wasnorm_wordpool_less_exclusions.txt	LTP207	ltpFR	9	8	0	NOSE	957	n/a	0	n/a	0	0	0	0	0.5869140625	0.422607421875	lower	../fonts/amplitud.ttf
1814322	WORD	wordpools/wasnorm_wordpool_less_exclusions.txt	LTP207	ltpFR	9	8	1	SPIDER	1351	n/a	1	n/a	0	0	0	1	0.412841796875	0.57763671875	upper	../fonts/zerothre.ttf
1818149	WORD	wordpools/wasnorm_wordpool_less_exclusions.txt	LTP207	ltpFR	9	8	1	LITTER	832	n/a	0	n/a	0	0	0	1	0.412841796875	0.57763671875	upper	../fonts/zerothre.ttf
1822077	WORD	wordpools/wasnorm_wordpool_less_exclusions.txt	LTP207	ltpFR	9	8	0	CATTLE	261	n/a	1	n/a	0	0	0	0	0.5869140625	0.422607421875	lower	../fonts/amplitud.ttf
1826271	WORD	wordpools/wasnorm_wordpool_less_exclusions.txt	LTP207	ltpFR	9	8	0	FENCE	560	n/a	1	n/a	0	0	0	0	0.5869140625	0.422607421875	lower	../fonts/amplitud.ttf
1830231	WORD	wordpools/wasnorm_wordpool_less_exclusions.txt	LTP207	ltpFR	9	8	0	FARM	552	n/a	1	n/a	0	0	0	0	0.5869140625	0.422607421875	lower	../fonts/amplitud.ttf
1834292	WORD	wordpools/wasnorm_wordpool_less_exclusions.txt	LTP207	ltpFR	9	8	0	FOUNTAIN	597	n/a	1	n/a	0	0	0	0	0.5869140625	0.422607421875	lower	../fonts/amplitud.ttf
1838253	WORD	wordpools/wasnorm_wordpool_less_exclusions.txt	LTP207	ltpFR	9	8	0	TOWER	1490	n/a	1	n/a	0	0	0	0	0.5869140625	0.422607421875	lower	../fonts/amplitud.ttf
1842114	WORD	wordpools/wasnorm_wordpool_less_exclusions.txt	LTP207	ltpFR	9	8	1	MOOSE	915	n/a	n/a	n/a	0	0	0	1	0.412841796875	0.57763671875	upper	../fonts/zerothre.ttf
1845142	SLOW_MSG	n/a	LTP207	ltpFR	9	8	n/a	n/a	n/a	n/a	n/a	n/a	0	0	0	n/a	n/a	n/a	n/a	n/a
1847805	WORD	wordpools/wasnorm_wordpool_less_exclusions.txt	LTP207	ltpFR	9	8	1	WASP	1593	n/a	1	n/a	0	0	0	1	0.412841796875	0.57763671875	upper	../fonts/zerothre.ttf
1851982	WORD	wordpools/wasnorm_wordpool_less_exclusions.txt	LTP207	ltpFR	9	8	1	MOTEL	919	n/a	0	n/a	0	0	0	1	0.412841796875	0.57763671875	upper	../fonts/zerothre.ttf
1855910	WORD	wordpools/wasnorm_wordpool_less_exclusions.txt	LTP207	ltpFR	9	8	1	DORM	488	n/a	0	n/a	0	0	0	1	0.412841796875	0.57763671875	upper	../fonts/zerothre.ttf
1858922	START	n/a	LTP207	ltpFR	9	n/a	n/a	n/a	n/a	n/a	n/a	n/a	n/a	n/a	n/a	n/a	n/a	n/a	n/a	n/a
1860070	PROB	n/a	LTP207	ltpFR	9	n/a	n/a	n/a	n/a	n/a	n/a	25	9	9	7	n/a	n/a	n/a	n/a	n/a
1862766	PROB	n/a	LTP207	ltpFR	9	n/a	n/a	n/a	n/a	n/a	n/a	10	4	3	3	n/a	n/a	n/a	n/a	n/a
1864197	PROB	n/a	LTP207	ltpFR	9	n/a	n/a	n/a	n/a	n/a	n/a	17	8	1	8	n/a	n/a	n/a	n/a	n/a
1865871	STOP	n/a	LTP207	ltpFR	9	n/a	n/a	n/a	n/a	n/a	n/a	n/a	n/a	n/a	n/a	n/a	n/a	n/a	n/a	n/a
1868824	REC_START	n/a	LTP207	ltpFR	9	8	n/a	n/a	n/a	n/a	n/a	n/a	0	0	0	n/a	n/a	n/a	n/a	n/a
1870400	REC_WORD	wordpools/wasnorm_wordpool_less_exclusions.txt	LTP207	ltpFR	9	8	1	DORM	488	n/a	0	n/a	0	0	0	n/a	n/a	n/a	n/a	n/a
1871637	REC_WORD	wordpools/wasnorm_wordpool_less_exclusions.txt	LTP207	ltpFR	9	8	1	WASP	1593	n/a	1	n/a	0	0	0	n/a	n/a	n/a	n/a	n/a
1881335	REC_WORD	wordpools/wasnorm_wordpool_less_exclusions.txt	LTP207	ltpFR	9	8	0	GARBAGE	622	n/a	1	n/a	0	0	0	n/a	n/a	n/a	n/a	n/a
1883495	REC_WORD	wordpools/wasnorm_wordpool_less_exclusions.txt	LTP207	ltpFR	9	8	1	PAW	1029	n/a	0	n/a	0	0	0	n/a	n/a	n/a	n/a	n/a
1885261	REC_WORD	wordpools/wasnorm_wordpool_less_exclusions.txt	LTP207	ltpFR	9	8	1	HIKER	708	n/a	1	n/a	0	0	0	n/a	n/a	n/a	n/a	n/a
1888195	REC_WORD	wordpools/wasnorm_wordpool_less_exclusions.txt	LTP207	ltpFR	9	8	0	VALLEY	1545	n/a	1	n/a	0	0	0	n/a	n/a	n/a	n/a	n/a
1892139	REC_WORD	wordpools/wasnorm_wordpool_less_exclusions.txt	LTP207	ltpFR	9	8	0	FARM	552	n/a	1	n/a	0	0	0	n/a	n/a	n/a	n/a	n/a
1935981	REC_WORD	wordpools/wasnorm_wordpool_less_exclusions.txt	LTP207	ltpFR	9	8	0	NOSE	957	n/a	0	n/a	0	0	0	n/a	n/a	n/a	n/a	n/a
1949204	START	n/a	LTP207	ltpFR	9	n/a	n/a	n/a	n/a	n/a	n/a	n/a	n/a	n/a	n/a	n/a	n/a	n/a	n/a	n/a
1950717	PROB	n/a	LTP207	ltpFR	9	n/a	n/a	n/a	n/a	n/a	n/a	11	4	5	2	n/a	n/a	n/a	n/a	n/a
1952399	PROB	n/a	LTP207	ltpFR	9	n/a	n/a	n/a	n/a	n/a	n/a	23	6	8	9	n/a	n/a	n/a	n/a	n/a
1956151	STOP	n/a	LTP207	ltpFR	9	n/a	n/a	n/a	n/a	n/a	n/a	n/a	n/a	n/a	n/a	n/a	n/a	n/a	n/a	n/a
1958257	WORD	wordpools/wasnorm_wordpool_less_exclusions.txt	LTP207	ltpFR	9	9	1	PUPIL	1143	n/a	0	n/a	0	0	0	1	0.412841796875	0.57763671875	upper	../fonts/zerothre.ttf
1961269	START	n/a	LTP207	ltpFR	9	n/a	n/a	n/a	n/a	n/a	n/a	n/a	n/a	n/a	n/a	n/a	n/a	n/a	n/a	n/a
1962118	PROB	n/a	LTP207	ltpFR	9	n/a	n/a	n/a	n/a	n/a	n/a	19	8	8	3	n/a	n/a	n/a	n/a	n/a
1963782	PROB	n/a	LTP207	ltpFR	9	n/a	n/a	n/a	n/a	n/a	n/a	17	9	3	5	n/a	n/a	n/a	n/a	n/a
1965728	PROB	n/a	LTP207	ltpFR	9	n/a	n/a	n/a	n/a	n/a	n/a	16	7	5	4	n/a	n/a	n/a	n/a	n/a
1969269	STOP	n/a	LTP207	ltpFR	9	n/a	n/a	n/a	n/a	n/a	n/a	n/a	n/a	n/a	n/a	n/a	n/a	n/a	n/a	n/a
1970405	WORD	wordpools/wasnorm_wordpool_less_exclusions.txt	LTP207	ltpFR	9	9	1	ACTRESS	6	n/a	1	n/a	0	0	0	1	0.412841796875	0.57763671875	upper	../fonts/zerothre.ttf
1973418	START	n/a	LTP207	ltpFR	9	n/a	n/a	n/a	n/a	n/a	n/a	n/a	n/a	n/a	n/a	n/a	n/a	n/a	n/a	n/a
1974498	PROB	n/a	LTP207	ltpFR	9	n/a	n/a	n/a	n/a	n/a	n/a	14	9	1	4	n/a	n/a	n/a	n/a	n/a
1976446	PROB	n/a	LTP207	ltpFR	9	n/a	n/a	n/a	n/a	n/a	n/a	13	5	4	4	n/a	n/a	n/a	n/a	n/a
1978576	PROB	n/a	LTP207	ltpFR	9	n/a	n/a	n/a	n/a	n/a	n/a	18	8	9	1	n/a	n/a	n/a	n/a	n/a
1980207	STOP	n/a	LTP207	ltpFR	9	n/a	n/a	n/a	n/a	n/a	n/a	n/a	n/a	n/a	n/a	n/a	n/a	n/a	n/a	n/a
1982503	WORD	wordpools/wasnorm_wordpool_less_exclusions.txt	LTP207	ltpFR	9	9	1	CHIME	300	n/a	0	n/a	0	0	0	1	0.412841796875	0.57763671875	upper	../fonts/zerothre.ttf
1985516	START	n/a	LTP207	ltpFR	9	n/a	n/a	n/a	n/a	n/a	n/a	n/a	n/a	n/a	n/a	n/a	n/a	n/a	n/a	n/a
1986530	PROB	n/a	LTP207	ltpFR	9	n/a	n/a	n/a	n/a	n/a	n/a	12	2	4	6	n/a	n/a	n/a	n/a	n/a
1989410	PROB	n/a	LTP207	ltpFR	9	n/a	n/a	n/a	n/a	n/a	n/a	21	6	9	6	n/a	n/a	n/a	n/a	n/a
1991606	PROB	n/a	LTP207	ltpFR	9	n/a	n/a	n/a	n/a	n/a	n/a	10	2	1	7	n/a	n/a	n/a	n/a	n/a
1993068	STOP	n/a	LTP207	ltpFR	9	n/a	n/a	n/a	n/a	n/a	n/a	n/a	n/a	n/a	n/a	n/a	n/a	n/a	n/a	n/a
1994651	WORD	wordpools/wasnorm_wordpool_less_exclusions.txt	LTP207	ltpFR	9	9	1	SAPPHIRE	1234	n/a	0	n/a	0	0	0	1	0.412841796875	0.57763671875	upper	../fonts/zerothre.ttf
1997664	START	n/a	LTP207	ltpFR	9	n/a	n/a	n/a	n/a	n/a	n/a	n/a	n/a	n/a	n/a	n/a	n/a	n/a	n/a	n/a
1998596	PROB	n/a	LTP207	ltpFR	9	n/a	n/a	n/a	n/a	n/a	n/a	14	7	1	6	n/a	n/a	n/a	n/a	n/a
2000344	PROB	n/a	LTP207	ltpFR	9	n/a	n/a	n/a	n/a	n/a	n/a	8	2	3	3	n/a	n/a	n/a	n/a	n/a
2001908	PROB	n/a	LTP207	ltpFR	9	n/a	n/a	n/a	n/a	n/a	n/a	19	2	8	9	n/a	n/a	n/a	n/a	n/a
2003822	PROB	n/a	LTP207	ltpFR	9	n/a	n/a	n/a	n/a	n/a	n/a	19	7	3	9	n/a	n/a	n/a	n/a	n/a
2005199	STOP	n/a	LTP207	ltpFR	9	n/a	n/a	n/a	n/a	n/a	n/a	n/a	n/a	n/a	n/a	n/a	n/a	n/a	n/a	n/a
2006600	WORD	wordpools/wasnorm_wordpool_less_exclusions.txt	LTP207	ltpFR	9	9	1	ARM	38	n/a	0	n/a	0	0	0	1	0.412841796875	0.57763671875	upper	../fonts/zerothre.ttf
2009613	START	n/a	LTP207	ltpFR	9	n/a	n/a	n/a	n/a	n/a	n/a	n/a	n/a	n/a	n/a	n/a	n/a	n/a	n/a	n/a
2010795	PROB	n/a	LTP207	ltpFR	9	n/a	n/a	n/a	n/a	n/a	n/a	11	4	1	6	n/a	n/a	n/a	n/a	n/a
2012160	PROB	n/a	LTP207	ltpFR	9	n/a	n/a	n/a	n/a	n/a	n/a	12	2	9	1	n/a	n/a	n/a	n/a	n/a
2013791	PROB	n/a	LTP207	ltpFR	9	n/a	n/a	n/a	n/a	n/a	n/a	18	9	5	4	n/a	n/a	n/a	n/a	n/a
2017613	STOP	n/a	LTP207	ltpFR	9	n/a	n/a	n/a	n/a	n/a	n/a	n/a	n/a	n/a	n/a	n/a	n/a	n/a	n/a	n/a
2018483	WORD	wordpools/wasnorm_wordpool_less_exclusions.txt	LTP207	ltpFR	9	9	1	PICNIC	1060	n/a	0	n/a	0	0	0	1	0.412841796875	0.57763671875	upper	../fonts/zerothre.ttf
2021495	START	n/a	LTP207	ltpFR	9	n/a	n/a	n/a	n/a	n/a	n/a	n/a	n/a	n/a	n/a	n/a	n/a	n/a	n/a	n/a
2022543	PROB	n/a	LTP207	ltpFR	9	n/a	n/a	n/a	n/a	n/a	n/a	16	4	4	8	n/a	n/a	n/a	n/a	n/a
2025174	PROB	n/a	LTP207	ltpFR	9	n/a	n/a	n/a	n/a	n/a	n/a	14	4	9	1	n/a	n/a	n/a	n/a	n/a
2027387	PROB	n/a	LTP207	ltpFR	9	n/a	n/a	n/a	n/a	n/a	n/a	16	4	4	8	n/a	n/a	n/a	n/a	n/a
2029143	STOP	n/a	LTP207	ltpFR	9	n/a	n/a	n/a	n/a	n/a	n/a	n/a	n/a	n/a	n/a	n/a	n/a	n/a	n/a	n/a
2030565	WORD	wordpools/wasnorm_wordpool_less_exclusions.txt	LTP207	ltpFR	9	9	1	UMBRELLA	1534	n/a	0	n/a	0	0	0	1	0.412841796875	0.57763671875	upper	../fonts/zerothre.ttf
2033577	START	n/a	LTP207	ltpFR	9	n/a	n/a	n/a	n/a	n/a	n/a	n/a	n/a	n/a	n/a	n/a	n/a	n/a	n/a	n/a
2034608	PROB	n/a	LTP207	ltpFR	9	n/a	n/a	n/a	n/a	n/a	n/a	13	1	6	6	n/a	n/a	n/a	n/a	n/a
2036240	PROB	n/a	LTP207	ltpFR	9	n/a	n/a	n/a	n/a	n/a	n/a	10	1	7	2	n/a	n/a	n/a	n/a	n/a
2038370	PROB	n/a	LTP207	ltpFR	9	n/a	n/a	n/a	n/a	n/a	n/a	19	7	8	4	n/a	n/a	n/a	n/a	n/a
2040111	STOP	n/a	LTP207	ltpFR	9	n/a	n/a	n/a	n/a	n/a	n/a	n/a	n/a	n/a	n/a	n/a	n/a	n/a	n/a	n/a
2042713	WORD	wordpools/wasnorm_wordpool_less_exclusions.txt	LTP207	ltpFR	9	9	1	SPRINKLE	1359	n/a	0	n/a	0	0	0	1	0.412841796875	0.57763671875	upper	../fonts/zerothre.ttf
2045726	START	n/a	LTP207	ltpFR	9	n/a	n/a	n/a	n/a	n/a	n/a	n/a	n/a	n/a	n/a	n/a	n/a	n/a	n/a	n/a
2046574	PROB	n/a	LTP207	ltpFR	9	n/a	n/a	n/a	n/a	n/a	n/a	24	9	6	9	n/a	n/a	n/a	n/a	n/a
2050336	PROB	n/a	LTP207	ltpFR	9	n/a	n/a	n/a	n/a	n/a	n/a	20	7	4	9	n/a	n/a	n/a	n/a	n/a
2051917	PROB	n/a	LTP207	ltpFR	9	n/a	n/a	n/a	n/a	n/a	n/a	8	2	6	2	n/a	n/a	n/a	n/a	n/a
2053231	STOP	n/a	LTP207	ltpFR	9	n/a	n/a	n/a	n/a	n/a	n/a	n/a	n/a	n/a	n/a	n/a	n/a	n/a	n/a	n/a
2054662	WORD	wordpools/wasnorm_wordpool_less_exclusions.txt	LTP207	ltpFR	9	9	1	MOTHER	921	n/a	1	n/a	0	0	0	1	0.412841796875	0.57763671875	upper	../fonts/zerothre.ttf
2057674	START	n/a	LTP207	ltpFR	9	n/a	n/a	n/a	n/a	n/a	n/a	n/a	n/a	n/a	n/a	n/a	n/a	n/a	n/a	n/a
2058573	PROB	n/a	LTP207	ltpFR	9	n/a	n/a	n/a	n/a	n/a	n/a	12	1	8	3	n/a	n/a	n/a	n/a	n/a
2060188	PROB	n/a	LTP207	ltpFR	9	n/a	n/a	n/a	n/a	n/a	n/a	19	2	9	8	n/a	n/a	n/a	n/a	n/a
2062451	PROB	n/a	LTP207	ltpFR	9	n/a	n/a	n/a	n/a	n/a	n/a	20	9	3	8	n/a	n/a	n/a	n/a	n/a
2064582	STOP	n/a	LTP207	ltpFR	9	n/a	n/a	n/a	n/a	n/a	n/a	n/a	n/a	n/a	n/a	n/a	n/a	n/a	n/a	n/a
2066661	WORD	wordpools/wasnorm_wordpool_less_exclusions.txt	LTP207	ltpFR	9	9	1	RAIL	1161	n/a	0	n/a	0	0	0	1	0.412841796875	0.57763671875	upper	../fonts/zerothre.ttf
2069673	START	n/a	LTP207	ltpFR	9	n/a	n/a	n/a	n/a	n/a	n/a	n/a	n/a	n/a	n/a	n/a	n/a	n/a	n/a	n/a
2070588	PROB	n/a	LTP207	ltpFR	9	n/a	n/a	n/a	n/a	n/a	n/a	19	7	5	7	n/a	n/a	n/a	n/a	n/a
2072386	PROB	n/a	LTP207	ltpFR	9	n/a	n/a	n/a	n/a	n/a	n/a	12	1	4	7	n/a	n/a	n/a	n/a	n/a
2074400	PROB	n/a	LTP207	ltpFR	9	n/a	n/a	n/a	n/a	n/a	n/a	22	9	5	8	n/a	n/a	n/a	n/a	n/a
2077672	STOP	n/a	LTP207	ltpFR	9	n/a	n/a	n/a	n/a	n/a	n/a	n/a	n/a	n/a	n/a	n/a	n/a	n/a	n/a	n/a
2078742	WORD	wordpools/wasnorm_wordpool_less_exclusions.txt	LTP207	ltpFR	9	9	1	WITNESS	1618	n/a	1	n/a	0	0	0	1	0.412841796875	0.57763671875	upper	../fonts/zerothre.ttf
2081756	START	n/a	LTP207	ltpFR	9	n/a	n/a	n/a	n/a	n/a	n/a	n/a	n/a	n/a	n/a	n/a	n/a	n/a	n/a	n/a
2082937	PROB	n/a	LTP207	ltpFR	9	n/a	n/a	n/a	n/a	n/a	n/a	17	1	7	9	n/a	n/a	n/a	n/a	n/a
2085599	PROB	n/a	LTP207	ltpFR	9	n/a	n/a	n/a	n/a	n/a	n/a	15	5	3	7	n/a	n/a	n/a	n/a	n/a
2087297	PROB	n/a	LTP207	ltpFR	9	n/a	n/a	n/a	n/a	n/a	n/a	20	4	7	9	n/a	n/a	n/a	n/a	n/a
2089718	STOP	n/a	LTP207	ltpFR	9	n/a	n/a	n/a	n/a	n/a	n/a	n/a	n/a	n/a	n/a	n/a	n/a	n/a	n/a	n/a
2090892	WORD	wordpools/wasnorm_wordpool_less_exclusions.txt	LTP207	ltpFR	9	9	1	BASKETBALL	96	n/a	0	n/a	0	0	0	1	0.412841796875	0.57763671875	upper	../fonts/zerothre.ttf
2093905	START	n/a	LTP207	ltpFR	9	n/a	n/a	n/a	n/a	n/a	n/a	n/a	n/a	n/a	n/a	n/a	n/a	n/a	n/a	n/a
2095003	PROB	n/a	LTP207	ltpFR	9	n/a	n/a	n/a	n/a	n/a	n/a	19	9	1	9	n/a	n/a	n/a	n/a	n/a
2097416	PROB	n/a	LTP207	ltpFR	9	n/a	n/a	n/a	n/a	n/a	n/a	14	1	4	9	n/a	n/a	n/a	n/a	n/a
2098897	PROB	n/a	LTP207	ltpFR	9	n/a	n/a	n/a	n/a	n/a	n/a	9	6	2	1	n/a	n/a	n/a	n/a	n/a
2100702	STOP	n/a	LTP207	ltpFR	9	n/a	n/a	n/a	n/a	n/a	n/a	n/a	n/a	n/a	n/a	n/a	n/a	n/a	n/a	n/a
2102808	WORD	wordpools/wasnorm_wordpool_less_exclusions.txt	LTP207	ltpFR	9	9	1	DIRECTOR	471	n/a	1	n/a	0	0	0	1	0.412841796875	0.57763671875	upper	../fonts/zerothre.ttf
2105820	START	n/a	LTP207	ltpFR	9	n/a	n/a	n/a	n/a	n/a	n/a	n/a	n/a	n/a	n/a	n/a	n/a	n/a	n/a	n/a
2106935	PROB	n/a	LTP207	ltpFR	9	n/a	n/a	n/a	n/a	n/a	n/a	8	4	2	2	n/a	n/a	n/a	n/a	n/a
2108648	PROB	n/a	LTP207	ltpFR	9	n/a	n/a	n/a	n/a	n/a	n/a	16	3	8	5	n/a	n/a	n/a	n/a	n/a
2110263	PROB	n/a	LTP207	ltpFR	9	n/a	n/a	n/a	n/a	n/a	n/a	12	2	6	4	n/a	n/a	n/a	n/a	n/a
2112550	STOP	n/a	LTP207	ltpFR	9	n/a	n/a	n/a	n/a	n/a	n/a	n/a	n/a	n/a	n/a	n/a	n/a	n/a	n/a	n/a
2114840	WORD	wordpools/wasnorm_wordpool_less_exclusions.txt	LTP207	ltpFR	9	9	1	COMMITTEE	355	n/a	1	n/a	0	0	0	1	0.412841796875	0.57763671875	upper	../fonts/zerothre.ttf
2117852	START	n/a	LTP207	ltpFR	9	n/a	n/a	n/a	n/a	n/a	n/a	n/a	n/a	n/a	n/a	n/a	n/a	n/a	n/a	n/a
2118784	PROB	n/a	LTP207	ltpFR	9	n/a	n/a	n/a	n/a	n/a	n/a	16	4	9	3	n/a	n/a	n/a	n/a	n/a
2120547	PROB	n/a	LTP207	ltpFR	9	n/a	n/a	n/a	n/a	n/a	n/a	16	5	6	5	n/a	n/a	n/a	n/a	n/a
2122162	PROB	n/a	LTP207	ltpFR	9	n/a	n/a	n/a	n/a	n/a	n/a	18	5	6	7	n/a	n/a	n/a	n/a	n/a
2125852	STOP	n/a	LTP207	ltpFR	9	n/a	n/a	n/a	n/a	n/a	n/a	n/a	n/a	n/a	n/a	n/a	n/a	n/a	n/a	n/a
2126905	WORD	wordpools/wasnorm_wordpool_less_exclusions.txt	LTP207	ltpFR	9	9	1	DAD	433	n/a	1	n/a	0	0	0	1	0.412841796875	0.57763671875	upper	../fonts/zerothre.ttf
2129918	START	n/a	LTP207	ltpFR	9	n/a	n/a	n/a	n/a	n/a	n/a	n/a	n/a	n/a	n/a	n/a	n/a	n/a	n/a	n/a
2130766	PROB	n/a	LTP207	ltpFR	9	n/a	n/a	n/a	n/a	n/a	n/a	16	9	6	1	n/a	n/a	n/a	n/a	n/a
2132397	PROB	n/a	LTP207	ltpFR	9	n/a	n/a	n/a	n/a	n/a	n/a	19	6	8	5	n/a	n/a	n/a	n/a	n/a
2134476	PROB	n/a	LTP207	ltpFR	9	n/a	n/a	n/a	n/a	n/a	n/a	17	5	5	7	n/a	n/a	n/a	n/a	n/a
2137918	STOP	n/a	LTP207	ltpFR	9	n/a	n/a	n/a	n/a	n/a	n/a	n/a	n/a	n/a	n/a	n/a	n/a	n/a	n/a	n/a
2139120	WORD	wordpools/wasnorm_wordpool_less_exclusions.txt	LTP207	ltpFR	9	9	1	GATE	625	n/a	0	n/a	0	0	0	1	0.412841796875	0.57763671875	upper	../fonts/zerothre.ttf
2142132	START	n/a	LTP207	ltpFR	9	n/a	n/a	n/a	n/a	n/a	n/a	n/a	n/a	n/a	n/a	n/a	n/a	n/a	n/a	n/a
2143314	PROB	n/a	LTP207	ltpFR	9	n/a	n/a	n/a	n/a	n/a	n/a	23	8	8	7	n/a	n/a	n/a	n/a	n/a
2145493	PROB	n/a	LTP207	ltpFR	9	n/a	n/a	n/a	n/a	n/a	n/a	25	8	9	8	n/a	n/a	n/a	n/a	n/a
2148073	PROB	n/a	LTP207	ltpFR	9	n/a	n/a	n/a	n/a	n/a	n/a	11	7	3	1	n/a	n/a	n/a	n/a	n/a
2149151	STOP	n/a	LTP207	ltpFR	9	n/a	n/a	n/a	n/a	n/a	n/a	n/a	n/a	n/a	n/a	n/a	n/a	n/a	n/a	n/a
2152018	REC_START	n/a	LTP207	ltpFR	9	9	n/a	n/a	n/a	n/a	n/a	n/a	0	0	0	n/a	n/a	n/a	n/a	n/a
2153988	REC_WORD	wordpools/wasnorm_wordpool_less_exclusions.txt	LTP207	ltpFR	9	9	1	ACTRESS	6	n/a	1	n/a	0	0	0	n/a	n/a	n/a	n/a	n/a
2155789	REC_WORD	wordpools/wasnorm_wordpool_less_exclusions.txt	LTP207	ltpFR	9	9	1	PUPIL	1143	n/a	0	n/a	0	0	0	n/a	n/a	n/a	n/a	n/a
2158388	REC_WORD	wordpools/wasnorm_wordpool_less_exclusions.txt	LTP207	ltpFR	9	9	1	SAPPHIRE	1234	n/a	0	n/a	0	0	0	n/a	n/a	n/a	n/a	n/a
2161242	REC_WORD	wordpools/wasnorm_wordpool_less_exclusions.txt	LTP207	ltpFR	9	9	1	ARM	38	n/a	0	n/a	0	0	0	n/a	n/a	n/a	n/a	n/a
2163646	REC_WORD	wordpools/wasnorm_wordpool_less_exclusions.txt	LTP207	ltpFR	9	9	1	UMBRELLA	1534	n/a	0	n/a	0	0	0	n/a	n/a	n/a	n/a	n/a
2165871	REC_WORD	wordpools/wasnorm_wordpool_less_exclusions.txt	LTP207	ltpFR	9	9	1	SPRINKLE	1359	n/a	0	n/a	0	0	0	n/a	n/a	n/a	n/a	n/a
2169094	REC_WORD	wordpools/wasnorm_wordpool_less_exclusions.txt	LTP207	ltpFR	9	9	1	GATE	625	n/a	0	n/a	0	0	0	n/a	n/a	n/a	n/a	n/a
2170621	REC_WORD	wordpools/wasnorm_wordpool_less_exclusions.txt	LTP207	ltpFR	9	9	1	RAIL	1161	n/a	0	n/a	0	0	0	n/a	n/a	n/a	n/a	n/a
2172661	REC_WORD	wordpools/wasnorm_wordpool_less_exclusions.txt	LTP207	ltpFR	9	9	1	MOTHER	921	n/a	1	n/a	0	0	0	n/a	n/a	n/a	n/a	n/a
2174557	REC_WORD	wordpools/wasnorm_wordpool_less_exclusions.txt	LTP207	ltpFR	9	9	1	DAD	433	n/a	1	n/a	0	0	0	n/a	n/a	n/a	n/a	n/a
2176611	REC_WORD	wordpools/wasnorm_wordpool_less_exclusions.txt	LTP207	ltpFR	9	9	1	WITNESS	1618	n/a	1	n/a	0	0	0	n/a	n/a	n/a	n/a	n/a
2178837	REC_WORD	wordpools/wasnorm_wordpool_less_exclusions.txt	LTP207	ltpFR	9	9	1	BASKETBALL	96	n/a	0	n/a	0	0	0	n/a	n/a	n/a	n/a	n/a
2181097	REC_WORD	wordpools/wasnorm_wordpool_less_exclusions.txt	LTP207	ltpFR	9	9	1	CHIME	300	n/a	0	n/a	0	0	0	n/a	n/a	n/a	n/a	n/a
2216272	REC_WORD	wordpools/wasnorm_wordpool_less_exclusions.txt	LTP207	ltpFR	9	9	1	DIRECTOR	471	n/a	1	n/a	0	0	0	n/a	n/a	n/a	n/a	n/a
2217364	REC_WORD	wordpools/wasnorm_wordpool_less_exclusions.txt	LTP207	ltpFR	9	9	1	COMMITTEE	355	n/a	1	n/a	0	0	0	n/a	n/a	n/a	n/a	n/a
2242366	START	n/a	LTP207	ltpFR	9	n/a	n/a	n/a	n/a	n/a	n/a	n/a	n/a	n/a	n/a	n/a	n/a	n/a	n/a	n/a
2243880	PROB	n/a	LTP207	ltpFR	9	n/a	n/a	n/a	n/a	n/a	n/a	15	7	9	9	n/a	n/a	n/a	n/a	n/a
2246608	PROB	n/a	LTP207	ltpFR	9	n/a	n/a	n/a	n/a	n/a	n/a	15	2	8	5	n/a	n/a	n/a	n/a	n/a
2247957	PROB	n/a	LTP207	ltpFR	9	n/a	n/a	n/a	n/a	n/a	n/a	13	2	3	8	n/a	n/a	n/a	n/a	n/a
2249637	PROB	n/a	LTP207	ltpFR	9	n/a	n/a	n/a	n/a	n/a	n/a	19	8	8	3	n/a	n/a	n/a	n/a	n/a
2251386	PROB	n/a	LTP207	ltpFR	9	n/a	n/a	n/a	n/a	n/a	n/a	10	3	4	3	n/a	n/a	n/a	n/a	n/a
2253366	PROB	n/a	LTP207	ltpFR	9	n/a	n/a	n/a	n/a	n/a	n/a	17	2	6	9	n/a	n/a	n/a	n/a	n/a
2255380	PROB	n/a	LTP207	ltpFR	9	n/a	n/a	n/a	n/a	n/a	n/a	5	1	3	1	n/a	n/a	n/a	n/a	n/a
2256677	PROB	n/a	LTP207	ltpFR	9	n/a	n/a	n/a	n/a	n/a	n/a	16	8	2	6	n/a	n/a	n/a	n/a	n/a
2258263	STOP	n/a	LTP207	ltpFR	9	n/a	n/a	n/a	n/a	n/a	n/a	n/a	n/a	n/a	n/a	n/a	n/a	n/a	n/a	n/a
2259307	WORD	wordpools/wasnorm_wordpool_less_exclusions.txt	LTP207	ltpFR	9	10	0	WORLD	1622	n/a	1	n/a	0	0	0	0	0.5869140625	0.422607421875	lower	../fonts/amplitud.ttf
2262320	START	n/a	LTP207	ltpFR	9	n/a	n/a	n/a	n/a	n/a	n/a	n/a	n/a	n/a	n/a	n/a	n/a	n/a	n/a	n/a
2263285	PROB	n/a	LTP207	ltpFR	9	n/a	n/a	n/a	n/a	n/a	n/a	9	6	2	1	n/a	n/a	n/a	n/a	n/a
2264715	PROB	n/a	LTP207	ltpFR	9	n/a	n/a	n/a	n/a	n/a	n/a	17	3	6	8	n/a	n/a	n/a	n/a	n/a
2266495	PROB	n/a	LTP207	ltpFR	9	n/a	n/a	n/a	n/a	n/a	n/a	19	8	8	3	n/a	n/a	n/a	n/a	n/a
2268294	PROB	n/a	LTP207	ltpFR	9	n/a	n/a	n/a	n/a	n/a	n/a	11	8	2	1	n/a	n/a	n/a	n/a	n/a
2269958	PROB	n/a	LTP207	ltpFR	9	n/a	n/a	n/a	n/a	n/a	n/a	19	7	9	3	n/a	n/a	n/a	n/a	n/a
2271755	PROB	n/a	LTP207	ltpFR	9	n/a	n/a	n/a	n/a	n/a	n/a	14	4	7	3	n/a	n/a	n/a	n/a	n/a
2273919	PROB	n/a	LTP207	ltpFR	9	n/a	n/a	n/a	n/a	n/a	n/a	22	8	8	6	n/a	n/a	n/a	n/a	n/a
2275783	PROB	n/a	LTP207	ltpFR	9	n/a	n/a	n/a	n/a	n/a	n/a	11	1	5	5	n/a	n/a	n/a	n/a	n/a
2276847	STOP	n/a	LTP207	ltpFR	9	n/a	n/a	n/a	n/a	n/a	n/a	n/a	n/a	n/a	n/a	n/a	n/a	n/a	n/a	n/a
2279277	WORD	wordpools/wasnorm_wordpool_less_exclusions.txt	LTP207	ltpFR	9	10	0	DENIM	446	n/a	0	n/a	0	0	0	0	0.5869140625	0.422607421875	lower	../fonts/amplitud.ttf
2282290	START	n/a	LTP207	ltpFR	9	n/a	n/a	n/a	n/a	n/a	n/a	n/a	n/a	n/a	n/a	n/a	n/a	n/a	n/a	n/a
2283255	PROB	n/a	LTP207	ltpFR	9	n/a	n/a	n/a	n/a	n/a	n/a	15	3	3	9	n/a	n/a	n/a	n/a	n/a
2285152	PROB	n/a	LTP207	ltpFR	9	n/a	n/a	n/a	n/a	n/a	n/a	13	1	7	5	n/a	n/a	n/a	n/a	n/a
2287399	PROB	n/a	LTP207	ltpFR	9	n/a	n/a	n/a	n/a	n/a	n/a	16	1	7	8	n/a	n/a	n/a	n/a	n/a
2289661	PROB	n/a	LTP207	ltpFR	9	n/a	n/a	n/a	n/a	n/a	n/a	21	9	9	3	n/a	n/a	n/a	n/a	n/a
2293190	PROB	n/a	LTP207	ltpFR	9	n/a	n/a	n/a	n/a	n/a	n/a	12	6	5	1	n/a	n/a	n/a	n/a	n/a
2294703	PROB	n/a	LTP207	ltpFR	9	n/a	n/a	n/a	n/a	n/a	n/a	13	7	4	2	n/a	n/a	n/a	n/a	n/a
2297295	STOP	n/a	LTP207	ltpFR	9	n/a	n/a	n/a	n/a	n/a	n/a	n/a	n/a	n/a	n/a	n/a	n/a	n/a	n/a	n/a
2299447	WORD	wordpools/wasnorm_wordpool_less_exclusions.txt	LTP207	ltpFR	9	10	0	JEWEL	757	n/a	0	n/a	0	0	0	0	0.5869140625	0.422607421875	lower	../fonts/amplitud.ttf
2302459	START	n/a	LTP207	ltpFR	9	n/a	n/a	n/a	n/a	n/a	n/a	n/a	n/a	n/a	n/a	n/a	n/a	n/a	n/a	n/a
2303325	PROB	n/a	LTP207	ltpFR	9	n/a	n/a	n/a	n/a	n/a	n/a	20	8	3	9	n/a	n/a	n/a	n/a	n/a
2306919	PROB	n/a	LTP207	ltpFR	9	n/a	n/a	n/a	n/a	n/a	n/a	10	1	5	4	n/a	n/a	n/a	n/a	n/a
2308317	PROB	n/a	LTP207	ltpFR	9	n/a	n/a	n/a	n/a	n/a	n/a	16	3	8	5	n/a	n/a	n/a	n/a	n/a
2310081	PROB	n/a	LTP207	ltpFR	9	n/a	n/a	n/a	n/a	n/a	n/a	6	1	2	3	n/a	n/a	n/a	n/a	n/a
2312211	PROB	n/a	LTP207	ltpFR	9	n/a	n/a	n/a	n/a	n/a	n/a	17	8	2	7	n/a	n/a	n/a	n/a	n/a
2313876	PROB	n/a	LTP207	ltpFR	9	n/a	n/a	n/a	n/a	n/a	n/a	16	1	9	6	n/a	n/a	n/a	n/a	n/a
2315605	PROB	n/a	LTP207	ltpFR	9	n/a	n/a	n/a	n/a	n/a	n/a	12	1	3	8	n/a	n/a	n/a	n/a	n/a
2317047	STOP	n/a	LTP207	ltpFR	9	n/a	n/a	n/a	n/a	n/a	n/a	n/a	n/a	n/a	n/a	n/a	n/a	n/a	n/a	n/a
2319434	WORD	wordpools/wasnorm_wordpool_less_exclusions.txt	LTP207	ltpFR	9	10	0	BELL	118	n/a	0	n/a	0	0	0	0	0.5869140625	0.422607421875	lower	../fonts/amplitud.ttf
2322447	START	n/a	LTP207	ltpFR	9	n/a	n/a	n/a	n/a	n/a	n/a	n/a	n/a	n/a	n/a	n/a	n/a	n/a	n/a	n/a
2323361	PROB	n/a	LTP207	ltpFR	9	n/a	n/a	n/a	n/a	n/a	n/a	10	3	2	5	n/a	n/a	n/a	n/a	n/a
2325775	PROB	n/a	LTP207	ltpFR	9	n/a	n/a	n/a	n/a	n/a	n/a	25	9	9	7	n/a	n/a	n/a	n/a	n/a
2328071	PROB	n/a	LTP207	ltpFR	9	n/a	n/a	n/a	n/a	n/a	n/a	12	5	5	2	n/a	n/a	n/a	n/a	n/a
2330368	PROB	n/a	LTP207	ltpFR	9	n/a	n/a	n/a	n/a	n/a	n/a	5	4	1	1	n/a	n/a	n/a	n/a	n/a
2333430	PROB	n/a	LTP207	ltpFR	9	n/a	n/a	n/a	n/a	n/a	n/a	11	3	3	5	n/a	n/a	n/a	n/a	n/a
2334911	PROB	n/a	LTP207	ltpFR	9	n/a	n/a	n/a	n/a	n/a	n/a	8	6	1	1	n/a	n/a	n/a	n/a	n/a
2336126	PROB	n/a	LTP207	ltpFR	9	n/a	n/a	n/a	n/a	n/a	n/a	20	9	4	7	n/a	n/a	n/a	n/a	n/a
2337903	STOP	n/a	LTP207	ltpFR	9	n/a	n/a	n/a	n/a	n/a	n/a	n/a	n/a	n/a	n/a	n/a	n/a	n/a	n/a	n/a
2339338	WORD	wordpools/wasnorm_wordpool_less_exclusions.txt	LTP207	ltpFR	9	10	0	HAND	683	n/a	0	n/a	0	0	0	0	0.5869140625	0.422607421875	lower	../fonts/amplitud.ttf
2342350	START	n/a	LTP207	ltpFR	9	n/a	n/a	n/a	n/a	n/a	n/a	n/a	n/a	n/a	n/a	n/a	n/a	n/a	n/a	n/a
2343348	PROB	n/a	LTP207	ltpFR	9	n/a	n/a	n/a	n/a	n/a	n/a	9	4	2	3	n/a	n/a	n/a	n/a	n/a
2345944	PROB	n/a	LTP207	ltpFR	9	n/a	n/a	n/a	n/a	n/a	n/a	15	8	1	6	n/a	n/a	n/a	n/a	n/a
2347892	PROB	n/a	LTP207	ltpFR	9	n/a	n/a	n/a	n/a	n/a	n/a	21	9	8	4	n/a	n/a	n/a	n/a	n/a
2349922	PROB	n/a	LTP207	ltpFR	9	n/a	n/a	n/a	n/a	n/a	n/a	15	6	7	2	n/a	n/a	n/a	n/a	n/a
2351585	PROB	n/a	LTP207	ltpFR	9	n/a	n/a	n/a	n/a	n/a	n/a	21	6	6	9	n/a	n/a	n/a	n/a	n/a
2353816	PROB	n/a	LTP207	ltpFR	9	n/a	n/a	n/a	n/a	n/a	n/a	14	2	6	6	n/a	n/a	n/a	n/a	n/a
2355996	PROB	n/a	LTP207	ltpFR	9	n/a	n/a	n/a	n/a	n/a	n/a	14	7	3	4	n/a	n/a	n/a	n/a	n/a
2357431	STOP	n/a	LTP207	ltpFR	9	n/a	n/a	n/a	n/a	n/a	n/a	n/a	n/a	n/a	n/a	n/a	n/a	n/a	n/a	n/a
2359506	WORD	wordpools/wasnorm_wordpool_less_exclusions.txt	LTP207	ltpFR	9	10	0	CHIMNEY	301	n/a	1	n/a	0	0	0	0	0.5869140625	0.422607421875	lower	../fonts/amplitud.ttf
2362519	START	n/a	LTP207	ltpFR	9	n/a	n/a	n/a	n/a	n/a	n/a	n/a	n/a	n/a	n/a	n/a	n/a	n/a	n/a	n/a
2363500	PROB	n/a	LTP207	ltpFR	9	n/a	n/a	n/a	n/a	n/a	n/a	12	1	8	3	n/a	n/a	n/a	n/a	n/a
2365033	PROB	n/a	LTP207	ltpFR	9	n/a	n/a	n/a	n/a	n/a	n/a	9	6	2	1	n/a	n/a	n/a	n/a	n/a
2366513	PROB	n/a	LTP207	ltpFR	9	n/a	n/a	n/a	n/a	n/a	n/a	7	1	2	4	n/a	n/a	n/a	n/a	n/a
2368311	PROB	n/a	LTP207	ltpFR	9	n/a	n/a	n/a	n/a	n/a	n/a	13	9	2	2	n/a	n/a	n/a	n/a	n/a
2370042	PROB	n/a	LTP207	ltpFR	9	n/a	n/a	n/a	n/a	n/a	n/a	13	5	4	4	n/a	n/a	n/a	n/a	n/a
2372438	PROB	n/a	LTP207	ltpFR	9	n/a	n/a	n/a	n/a	n/a	n/a	19	4	7	8	n/a	n/a	n/a	n/a	n/a
2374069	PROB	n/a	LTP207	ltpFR	9	n/a	n/a	n/a	n/a	n/a	n/a	15	2	8	3	n/a	n/a	n/a	n/a	n/a
2378175	STOP	n/a	LTP207	ltpFR	9	n/a	n/a	n/a	n/a	n/a	n/a	n/a	n/a	n/a	n/a	n/a	n/a	n/a	n/a	n/a
2379444	WORD	wordpools/wasnorm_wordpool_less_exclusions.txt	LTP207	ltpFR	9	10	0	COUNTRY	388	n/a	1	n/a	0	0	0	0	0.5869140625	0.422607421875	lower	../fonts/amplitud.ttf
2382457	START	n/a	LTP207	ltpFR	9	n/a	n/a	n/a	n/a	n/a	n/a	n/a	n/a	n/a	n/a	n/a	n/a	n/a	n/a	n/a
2383289	PROB	n/a	LTP207	ltpFR	9	n/a	n/a	n/a	n/a	n/a	n/a	23	7	8	8	n/a	n/a	n/a	n/a	n/a
2386516	PROB	n/a	LTP207	ltpFR	9	n/a	n/a	n/a	n/a	n/a	n/a	10	5	4	1	n/a	n/a	n/a	n/a	n/a
2387799	PROB	n/a	LTP207	ltpFR	9	n/a	n/a	n/a	n/a	n/a	n/a	13	7	1	5	n/a	n/a	n/a	n/a	n/a
2389661	PROB	n/a	LTP207	ltpFR	9	n/a	n/a	n/a	n/a	n/a	n/a	18	6	6	6	n/a	n/a	n/a	n/a	n/a
2391393	PROB	n/a	LTP207	ltpFR	9	n/a	n/a	n/a	n/a	n/a	n/a	12	3	7	2	n/a	n/a	n/a	n/a	n/a
2392590	PROB	n/a	LTP207	ltpFR	9	n/a	n/a	n/a	n/a	n/a	n/a	23	9	7	7	n/a	n/a	n/a	n/a	n/a
2394256	PROB	n/a	LTP207	ltpFR	9	n/a	n/a	n/a	n/a	n/a	n/a	12	5	1	6	n/a	n/a	n/a	n/a	n/a
2395837	PROB	n/a	LTP207	ltpFR	9	n/a	n/a	n/a	n/a	n/a	n/a	17	5	7	5	n/a	n/a	n/a	n/a	n/a
2397375	STOP	n/a	LTP207	ltpFR	9	n/a	n/a	n/a	n/a	n/a	n/a	n/a	n/a	n/a	n/a	n/a	n/a	n/a	n/a	n/a
2399348	WORD	wordpools/wasnorm_wordpool_less_exclusions.txt	LTP207	ltpFR	9	10	0	GLOVE	642	n/a	0	n/a	0	0	0	0	0.5869140625	0.422607421875	lower	../fonts/amplitud.ttf
2402361	START	n/a	LTP207	ltpFR	9	n/a	n/a	n/a	n/a	n/a	n/a	n/a	n/a	n/a	n/a	n/a	n/a	n/a	n/a	n/a
2403176	PROB	n/a	LTP207	ltpFR	9	n/a	n/a	n/a	n/a	n/a	n/a	20	9	8	3	n/a	n/a	n/a	n/a	n/a
2407003	PROB	n/a	LTP207	ltpFR	9	n/a	n/a	n/a	n/a	n/a	n/a	11	4	1	6	n/a	n/a	n/a	n/a	n/a
2408750	PROB	n/a	LTP207	ltpFR	9	n/a	n/a	n/a	n/a	n/a	n/a	13	5	5	3	n/a	n/a	n/a	n/a	n/a
2410065	PROB	n/a	LTP207	ltpFR	9	n/a	n/a	n/a	n/a	n/a	n/a	22	6	7	9	n/a	n/a	n/a	n/a	n/a
2411779	PROB	n/a	LTP207	ltpFR	9	n/a	n/a	n/a	n/a	n/a	n/a	20	8	8	4	n/a	n/a	n/a	n/a	n/a
2413960	PROB	n/a	LTP207	ltpFR	9	n/a	n/a	n/a	n/a	n/a	n/a	8	3	1	4	n/a	n/a	n/a	n/a	n/a
2415307	PROB	n/a	LTP207	ltpFR	9	n/a	n/a	n/a	n/a	n/a	n/a	8	2	5	1	n/a	n/a	n/a	n/a	n/a
2417127	STOP	n/a	LTP207	ltpFR	9	n/a	n/a	n/a	n/a	n/a	n/a	n/a	n/a	n/a	n/a	n/a	n/a	n/a	n/a	n/a
2419467	WORD	wordpools/wasnorm_wordpool_less_exclusions.txt	LTP207	ltpFR	9	10	0	LAPEL	800	n/a	0	n/a	0	0	0	0	0.5869140625	0.422607421875	lower	../fonts/amplitud.ttf
2422479	START	n/a	LTP207	ltpFR	9	n/a	n/a	n/a	n/a	n/a	n/a	n/a	n/a	n/a	n/a	n/a	n/a	n/a	n/a	n/a
2423494	PROB	n/a	LTP207	ltpFR	9	n/a	n/a	n/a	n/a	n/a	n/a	20	7	7	6	n/a	n/a	n/a	n/a	n/a
2425026	PROB	n/a	LTP207	ltpFR	9	n/a	n/a	n/a	n/a	n/a	n/a	14	5	7	2	n/a	n/a	n/a	n/a	n/a
2427023	PROB	n/a	LTP207	ltpFR	9	n/a	n/a	n/a	n/a	n/a	n/a	11	3	1	7	n/a	n/a	n/a	n/a	n/a
2428355	PROB	n/a	LTP207	ltpFR	9	n/a	n/a	n/a	n/a	n/a	n/a	11	9	4	5	n/a	n/a	n/a	n/a	n/a
2431001	PROB	n/a	LTP207	ltpFR	9	n/a	n/a	n/a	n/a	n/a	n/a	12	6	2	4	n/a	n/a	n/a	n/a	n/a
2434029	PROB	n/a	LTP207	ltpFR	9	n/a	n/a	n/a	n/a	n/a	n/a	17	9	3	5	n/a	n/a	n/a	n/a	n/a
2436143	PROB	n/a	LTP207	ltpFR	9	n/a	n/a	n/a	n/a	n/a	n/a	14	7	2	5	n/a	n/a	n/a	n/a	n/a
2437638	STOP	n/a	LTP207	ltpFR	9	n/a	n/a	n/a	n/a	n/a	n/a	n/a	n/a	n/a	n/a	n/a	n/a	n/a	n/a	n/a
2439520	WORD	wordpools/wasnorm_wordpool_less_exclusions.txt	LTP207	ltpFR	9	10	0	BUTTON	207	n/a	0	n/a	0	0	0	0	0.5869140625	0.422607421875	lower	../fonts/amplitud.ttf
2442533	START	n/a	LTP207	ltpFR	9	n/a	n/a	n/a	n/a	n/a	n/a	n/a	n/a	n/a	n/a	n/a	n/a	n/a	n/a	n/a
2443531	PROB	n/a	LTP207	ltpFR	9	n/a	n/a	n/a	n/a	n/a	n/a	25	9	9	7	n/a	n/a	n/a	n/a	n/a
2445845	PROB	n/a	LTP207	ltpFR	9	n/a	n/a	n/a	n/a	n/a	n/a	9	1	3	5	n/a	n/a	n/a	n/a	n/a
2447691	PROB	n/a	LTP207	ltpFR	9	n/a	n/a	n/a	n/a	n/a	n/a	12	3	7	2	n/a	n/a	n/a	n/a	n/a
2449738	PROB	n/a	LTP207	ltpFR	9	n/a	n/a	n/a	n/a	n/a	n/a	10	7	1	2	n/a	n/a	n/a	n/a	n/a
2451221	PROB	n/a	LTP207	ltpFR	9	n/a	n/a	n/a	n/a	n/a	n/a	15	5	8	2	n/a	n/a	n/a	n/a	n/a
2454166	PROB	n/a	LTP207	ltpFR	9	n/a	n/a	n/a	n/a	n/a	n/a	19	7	5	7	n/a	n/a	n/a	n/a	n/a
2455963	PROB	n/a	LTP207	ltpFR	9	n/a	n/a	n/a	n/a	n/a	n/a	15	5	1	9	n/a	n/a	n/a	n/a	n/a
2457183	STOP	n/a	LTP207	ltpFR	9	n/a	n/a	n/a	n/a	n/a	n/a	n/a	n/a	n/a	n/a	n/a	n/a	n/a	n/a	n/a
2459640	WORD	wordpools/wasnorm_wordpool_less_exclusions.txt	LTP207	ltpFR	9	10	0	PHOTO	1055	n/a	0	n/a	0	0	0	0	0.5869140625	0.422607421875	lower	../fonts/amplitud.ttf
2462653	START	n/a	LTP207	ltpFR	9	n/a	n/a	n/a	n/a	n/a	n/a	n/a	n/a	n/a	n/a	n/a	n/a	n/a	n/a	n/a
2463568	PROB	n/a	LTP207	ltpFR	9	n/a	n/a	n/a	n/a	n/a	n/a	6	1	2	3	n/a	n/a	n/a	n/a	n/a
2465548	PROB	n/a	LTP207	ltpFR	9	n/a	n/a	n/a	n/a	n/a	n/a	19	7	4	8	n/a	n/a	n/a	n/a	n/a
2468095	PROB	n/a	LTP207	ltpFR	9	n/a	n/a	n/a	n/a	n/a	n/a	20	9	4	7	n/a	n/a	n/a	n/a	n/a
2470126	PROB	n/a	LTP207	ltpFR	9	n/a	n/a	n/a	n/a	n/a	n/a	18	5	7	6	n/a	n/a	n/a	n/a	n/a
2472256	PROB	n/a	LTP207	ltpFR	9	n/a	n/a	n/a	n/a	n/a	n/a	24	9	9	6	n/a	n/a	n/a	n/a	n/a
2474036	PROB	n/a	LTP207	ltpFR	9	n/a	n/a	n/a	n/a	n/a	n/a	10	1	7	2	n/a	n/a	n/a	n/a	n/a
2475451	PROB	n/a	LTP207	ltpFR	9	n/a	n/a	n/a	n/a	n/a	n/a	16	2	7	7	n/a	n/a	n/a	n/a	n/a
2477015	PROB	n/a	LTP207	ltpFR	9	n/a	n/a	n/a	n/a	n/a	n/a	18	3	7	8	n/a	n/a	n/a	n/a	n/a
2478287	STOP	n/a	LTP207	ltpFR	9	n/a	n/a	n/a	n/a	n/a	n/a	n/a	n/a	n/a	n/a	n/a	n/a	n/a	n/a	n/a
2479477	WORD	wordpools/wasnorm_wordpool_less_exclusions.txt	LTP207	ltpFR	9	10	0	MARSH	874	n/a	1	n/a	0	0	0	0	0.5869140625	0.422607421875	lower	../fonts/amplitud.ttf
2482490	START	n/a	LTP207	ltpFR	9	n/a	n/a	n/a	n/a	n/a	n/a	n/a	n/a	n/a	n/a	n/a	n/a	n/a	n/a	n/a
2483671	PROB	n/a	LTP207	ltpFR	9	n/a	n/a	n/a	n/a	n/a	n/a	15	1	6	8	n/a	n/a	n/a	n/a	n/a
2486401	PROB	n/a	LTP207	ltpFR	9	n/a	n/a	n/a	n/a	n/a	n/a	17	9	7	1	n/a	n/a	n/a	n/a	n/a
2488647	PROB	n/a	LTP207	ltpFR	9	n/a	n/a	n/a	n/a	n/a	n/a	16	8	1	7	n/a	n/a	n/a	n/a	n/a
2491993	PROB	n/a	LTP207	ltpFR	9	n/a	n/a	n/a	n/a	n/a	n/a	18	9	4	7	n/a	n/a	n/a	n/a	n/a
2494040	PROB	n/a	LTP207	ltpFR	9	n/a	n/a	n/a	n/a	n/a	n/a	16	9	5	2	n/a	n/a	n/a	n/a	n/a
2495703	PROB	n/a	LTP207	ltpFR	9	n/a	n/a	n/a	n/a	n/a	n/a	5	1	1	3	n/a	n/a	n/a	n/a	n/a
2498490	STOP	n/a	LTP207	ltpFR	9	n/a	n/a	n/a	n/a	n/a	n/a	n/a	n/a	n/a	n/a	n/a	n/a	n/a	n/a	n/a
2499349	WORD	wordpools/wasnorm_wordpool_less_exclusions.txt	LTP207	ltpFR	9	10	0	MARKET	871	n/a	1	n/a	0	0	0	0	0.5869140625	0.422607421875	lower	../fonts/amplitud.ttf
2502361	START	n/a	LTP207	ltpFR	9	n/a	n/a	n/a	n/a	n/a	n/a	n/a	n/a	n/a	n/a	n/a	n/a	n/a	n/a	n/a
2503475	PROB	n/a	LTP207	ltpFR	9	n/a	n/a	n/a	n/a	n/a	n/a	11	4	4	3	n/a	n/a	n/a	n/a	n/a
2504990	PROB	n/a	LTP207	ltpFR	9	n/a	n/a	n/a	n/a	n/a	n/a	17	6	4	7	n/a	n/a	n/a	n/a	n/a
2506754	PROB	n/a	LTP207	ltpFR	9	n/a	n/a	n/a	n/a	n/a	n/a	17	2	6	9	n/a	n/a	n/a	n/a	n/a
2508484	PROB	n/a	LTP207	ltpFR	9	n/a	n/a	n/a	n/a	n/a	n/a	18	8	4	6	n/a	n/a	n/a	n/a	n/a
2511081	PROB	n/a	LTP207	ltpFR	9	n/a	n/a	n/a	n/a	n/a	n/a	17	3	5	9	n/a	n/a	n/a	n/a	n/a
2512828	PROB	n/a	LTP207	ltpFR	9	n/a	n/a	n/a	n/a	n/a	n/a	24	8	8	8	n/a	n/a	n/a	n/a	n/a
2514475	PROB	n/a	LTP207	ltpFR	9	n/a	n/a	n/a	n/a	n/a	n/a	18	7	7	4	n/a	n/a	n/a	n/a	n/a
2516257	PROB	n/a	LTP207	ltpFR	9	n/a	n/a	n/a	n/a	n/a	n/a	4	2	1	1	n/a	n/a	n/a	n/a	n/a
2517494	STOP	n/a	LTP207	ltpFR	9	n/a	n/a	n/a	n/a	n/a	n/a	n/a	n/a	n/a	n/a	n/a	n/a	n/a	n/a	n/a
2519567	WORD	wordpools/wasnorm_wordpool_less_exclusions.txt	LTP207	ltpFR	9	10	0	STORE	1387	n/a	1	n/a	0	0	0	0	0.5869140625	0.422607421875	lower	../fonts/amplitud.ttf
2522580	START	n/a	LTP207	ltpFR	9	n/a	n/a	n/a	n/a	n/a	n/a	n/a	n/a	n/a	n/a	n/a	n/a	n/a	n/a	n/a
2523578	PROB	n/a	LTP207	ltpFR	9	n/a	n/a	n/a	n/a	n/a	n/a	10	1	6	3	n/a	n/a	n/a	n/a	n/a
2524894	PROB	n/a	LTP207	ltpFR	9	n/a	n/a	n/a	n/a	n/a	n/a	23	6	8	9	n/a	n/a	n/a	n/a	n/a
2528687	PROB	n/a	LTP207	ltpFR	9	n/a	n/a	n/a	n/a	n/a	n/a	21	8	8	5	n/a	n/a	n/a	n/a	n/a
2530236	PROB	n/a	LTP207	ltpFR	9	n/a	n/a	n/a	n/a	n/a	n/a	17	7	6	4	n/a	n/a	n/a	n/a	n/a
2531967	PROB	n/a	LTP207	ltpFR	9	n/a	n/a	n/a	n/a	n/a	n/a	18	8	3	7	n/a	n/a	n/a	n/a	n/a
2533713	PROB	n/a	LTP207	ltpFR	9	n/a	n/a	n/a	n/a	n/a	n/a	20	7	7	6	n/a	n/a	n/a	n/a	n/a
2535494	PROB	n/a	LTP207	ltpFR	9	n/a	n/a	n/a	n/a	n/a	n/a	14	5	6	3	n/a	n/a	n/a	n/a	n/a
2537191	STOP	n/a	LTP207	ltpFR	9	n/a	n/a	n/a	n/a	n/a	n/a	n/a	n/a	n/a	n/a	n/a	n/a	n/a	n/a	n/a
2539471	WORD	wordpools/wasnorm_wordpool_less_exclusions.txt	LTP207	ltpFR	9	10	0	LEG	809	n/a	1	n/a	0	0	0	0	0.5869140625	0.422607421875	lower	../fonts/amplitud.ttf
2542484	START	n/a	LTP207	ltpFR	9	n/a	n/a	n/a	n/a	n/a	n/a	n/a	n/a	n/a	n/a	n/a	n/a	n/a	n/a	n/a
2543648	PROB	n/a	LTP207	ltpFR	9	n/a	n/a	n/a	n/a	n/a	n/a	18	7	8	3	n/a	n/a	n/a	n/a	n/a
2545330	PROB	n/a	LTP207	ltpFR	9	n/a	n/a	n/a	n/a	n/a	n/a	22	9	7	6	n/a	n/a	n/a	n/a	n/a
2546994	PROB	n/a	LTP207	ltpFR	9	n/a	n/a	n/a	n/a	n/a	n/a	14	6	7	1	n/a	n/a	n/a	n/a	n/a
2549008	PROB	n/a	LTP207	ltpFR	9	n/a	n/a	n/a	n/a	n/a	n/a	8	1	1	6	n/a	n/a	n/a	n/a	n/a
2550372	PROB	n/a	LTP207	ltpFR	9	n/a	n/a	n/a	n/a	n/a	n/a	14	9	2	3	n/a	n/a	n/a	n/a	n/a
2553285	PROB	n/a	LTP207	ltpFR	9	n/a	n/a	n/a	n/a	n/a	n/a	11	3	6	2	n/a	n/a	n/a	n/a	n/a
2554682	PROB	n/a	LTP207	ltpFR	9	n/a	n/a	n/a	n/a	n/a	n/a	4	1	1	2	n/a	n/a	n/a	n/a	n/a
2555947	PROB	n/a	LTP207	ltpFR	9	n/a	n/a	n/a	n/a	n/a	n/a	22	8	7	7	n/a	n/a	n/a	n/a	n/a
2557799	STOP	n/a	LTP207	ltpFR	9	n/a	n/a	n/a	n/a	n/a	n/a	n/a	n/a	n/a	n/a	n/a	n/a	n/a	n/a	n/a
2559524	WORD	wordpools/wasnorm_wordpool_less_exclusions.txt	LTP207	ltpFR	9	10	0	MARROW	872	n/a	0	n/a	0	0	0	0	0.5869140625	0.422607421875	lower	../fonts/amplitud.ttf
2562537	START	n/a	LTP207	ltpFR	9	n/a	n/a	n/a	n/a	n/a	n/a	n/a	n/a	n/a	n/a	n/a	n/a	n/a	n/a	n/a
2563502	PROB	n/a	LTP207	ltpFR	9	n/a	n/a	n/a	n/a	n/a	n/a	13	7	2	4	n/a	n/a	n/a	n/a	n/a
2567131	PROB	n/a	LTP207	ltpFR	9	n/a	n/a	n/a	n/a	n/a	n/a	17	3	5	9	n/a	n/a	n/a	n/a	n/a
2568677	PROB	n/a	LTP207	ltpFR	9	n/a	n/a	n/a	n/a	n/a	n/a	12	6	4	2	n/a	n/a	n/a	n/a	n/a
2569843	PROB	n/a	LTP207	ltpFR	9	n/a	n/a	n/a	n/a	n/a	n/a	18	9	7	2	n/a	n/a	n/a	n/a	n/a
2571408	PROB	n/a	LTP207	ltpFR	9	n/a	n/a	n/a	n/a	n/a	n/a	19	9	7	3	n/a	n/a	n/a	n/a	n/a
2572989	PROB	n/a	LTP207	ltpFR	9	n/a	n/a	n/a	n/a	n/a	n/a	23	7	8	8	n/a	n/a	n/a	n/a	n/a
2575252	PROB	n/a	LTP207	ltpFR	9	n/a	n/a	n/a	n/a	n/a	n/a	9	5	3	1	n/a	n/a	n/a	n/a	n/a
2578536	STOP	n/a	LTP207	ltpFR	9	n/a	n/a	n/a	n/a	n/a	n/a	n/a	n/a	n/a	n/a	n/a	n/a	n/a	n/a	n/a
2580312	REC_START	n/a	LTP207	ltpFR	9	10	n/a	n/a	n/a	n/a	n/a	n/a	0	0	0	n/a	n/a	n/a	n/a	n/a
2582881	REC_WORD	wordpools/wasnorm_wordpool_less_exclusions.txt	LTP207	ltpFR	9	10	0	WORLD	1622	n/a	1	n/a	0	0	0	n/a	n/a	n/a	n/a	n/a
2585011	REC_WORD	wordpools/wasnorm_wordpool_less_exclusions.txt	LTP207	ltpFR	9	10	0	COUNTRY	388	n/a	1	n/a	0	0	0	n/a	n/a	n/a	n/a	n/a
2588289	REC_WORD	wordpools/wasnorm_wordpool_less_exclusions.txt	LTP207	ltpFR	9	10	0	LEG	809	n/a	1	n/a	0	0	0	n/a	n/a	n/a	n/a	n/a
2590893	REC_WORD	wordpools/wasnorm_wordpool_less_exclusions.txt	LTP207	ltpFR	9	10	0	STORE	1387	n/a	1	n/a	0	0	0	n/a	n/a	n/a	n/a	n/a
2593207	REC_WORD	wordpools/wasnorm_wordpool_less_exclusions.txt	LTP207	ltpFR	9	10	0	MARKET	871	n/a	1	n/a	0	0	0	n/a	n/a	n/a	n/a	n/a
2599907	REC_WORD	wordpools/wasnorm_wordpool_less_exclusions.txt	LTP207	ltpFR	9	10	0	HAND	683	n/a	0	n/a	0	0	0	n/a	n/a	n/a	n/a	n/a
2602008	REC_WORD	wordpools/wasnorm_wordpool_less_exclusions.txt	LTP207	ltpFR	9	10	0	GLOVE	642	n/a	0	n/a	0	0	0	n/a	n/a	n/a	n/a	n/a
2605207	REC_WORD	wordpools/wasnorm_wordpool_less_exclusions.txt	LTP207	ltpFR	9	10	0	JEWEL	757	n/a	0	n/a	0	0	0	n/a	n/a	n/a	n/a	n/a
2618530	REC_WORD	wordpools/wasnorm_wordpool_less_exclusions.txt	LTP207	ltpFR	9	10	0	MARROW	872	n/a	0	n/a	0	0	0	n/a	n/a	n/a	n/a	n/a
2655915	REST_REWET	n/a	LTP207	ltpFR	9	10	n/a	n/a	n/a	n/a	n/a	n/a	0	0	0	n/a	n/a	n/a	n/a	n/a
2928807	WORD	wordpools/wasnorm_wordpool_less_exclusions.txt	LTP207	ltpFR	9	11	1	LABYRINTH	791	n/a	0	n/a	0	0	0	1	0.412841796875	0.57763671875	upper	../fonts/zerothre.ttf
2932851	WORD	wordpools/wasnorm_wordpool_less_exclusions.txt	LTP207	ltpFR	9	11	1	PAIL	1002	n/a	0	n/a	0	0	0	1	0.412841796875	0.57763671875	upper	../fonts/zerothre.ttf
2936795	WORD	wordpools/wasnorm_wordpool_less_exclusions.txt	LTP207	ltpFR	9	11	0	BRIEFCASE	175	n/a	1	n/a	0	0	0	0	0.5869140625	0.422607421875	lower	../fonts/amplitud.ttf
2940655	WORD	wordpools/wasnorm_wordpool_less_exclusions.txt	LTP207	ltpFR	9	11	0	PUZZLE	1146	n/a	1	n/a	0	0	0	0	0.5869140625	0.422607421875	lower	../fonts/amplitud.ttf
2944732	WORD	wordpools/wasnorm_wordpool_less_exclusions.txt	LTP207	ltpFR	9	11	0	WITCH	1617	n/a	1	n/a	0	0	0	0	0.5869140625	0.422607421875	lower	../fonts/amplitud.ttf
2948660	WORD	wordpools/wasnorm_wordpool_less_exclusions.txt	LTP207	ltpFR	9	11	0	CANAL	226	n/a	1	n/a	0	0	0	0	0.5869140625	0.422607421875	lower	../fonts/amplitud.ttf
2952821	WORD	wordpools/wasnorm_wordpool_less_exclusions.txt	LTP207	ltpFR	9	11	1	SHARK	1275	n/a	1	n/a	0	0	0	1	0.412841796875	0.57763671875	upper	../fonts/zerothre.ttf
2956899	WORD	wordpools/wasnorm_wordpool_less_exclusions.txt	LTP207	ltpFR	9	11	1	ROOST	1208	n/a	0	n/a	0	0	0	1	0.412841796875	0.57763671875	upper	../fonts/zerothre.ttf
2960759	WORD	wordpools/wasnorm_wordpool_less_exclusions.txt	LTP207	ltpFR	9	11	1	TURKEY	1520	n/a	1	n/a	0	0	0	1	0.412841796875	0.57763671875	upper	../fonts/zerothre.ttf
2964619	WORD	wordpools/wasnorm_wordpool_less_exclusions.txt	LTP207	ltpFR	9	11	1	OVAL	990	n/a	0	n/a	0	0	0	1	0.412841796875	0.57763671875	upper	../fonts/zerothre.ttf
2968448	WORD	wordpools/wasnorm_wordpool_less_exclusions.txt	LTP207	ltpFR	9	11	1	BEET	115	n/a	0	n/a	0	0	0	1	0.412841796875	0.57763671875	upper	../fonts/zerothre.ttf
2972392	WORD	wordpools/wasnorm_wordpool_less_exclusions.txt	LTP207	ltpFR	9	11	1	DIVER	476	n/a	1	n/a	0	0	0	1	0.412841796875	0.57763671875	upper	../fonts/zerothre.ttf
2976585	WORD	wordpools/wasnorm_wordpool_less_exclusions.txt	LTP207	ltpFR	9	11	0	TRIANGLE	1504	n/a	0	n/a	0	0	0	0	0.5869140625	0.422607421875	lower	../fonts/amplitud.ttf
2980479	WORD	wordpools/wasnorm_wordpool_less_exclusions.txt	LTP207	ltpFR	9	11	0	SUPERVISOR	1410	n/a	1	n/a	0	0	0	0	0.5869140625	0.422607421875	lower	../fonts/amplitud.ttf
2984639	WORD	wordpools/wasnorm_wordpool_less_exclusions.txt	LTP207	ltpFR	9	11	0	BLACKBERRY	132	n/a	0	n/a	0	0	0	0	0.5869140625	0.422607421875	lower	../fonts/amplitud.ttf
2988750	WORD	wordpools/wasnorm_wordpool_less_exclusions.txt	LTP207	ltpFR	9	11	0	KIWI	781	n/a	0	n/a	0	0	0	0	0.5869140625	0.422607421875	lower	../fonts/amplitud.ttf
2991763	START	n/a	LTP207	ltpFR	9	n/a	n/a	n/a	n/a	n/a	n/a	n/a	n/a	n/a	n/a	n/a	n/a	n/a	n/a	n/a
2992845	PROB	n/a	LTP207	ltpFR	9	n/a	n/a	n/a	n/a	n/a	n/a	15	4	9	5	n/a	n/a	n/a	n/a	n/a
3000051	PROB	n/a	LTP207	ltpFR	9	n/a	n/a	n/a	n/a	n/a	n/a	8	2	4	2	n/a	n/a	n/a	n/a	n/a
3002297	PROB	n/a	LTP207	ltpFR	9	n/a	n/a	n/a	n/a	n/a	n/a	13	6	6	1	n/a	n/a	n/a	n/a	n/a
3003711	PROB	n/a	LTP207	ltpFR	9	n/a	n/a	n/a	n/a	n/a	n/a	27	9	9	9	n/a	n/a	n/a	n/a	n/a
3005809	PROB	n/a	LTP207	ltpFR	9	n/a	n/a	n/a	n/a	n/a	n/a	15	1	5	9	n/a	n/a	n/a	n/a	n/a
3007239	STOP	n/a	LTP207	ltpFR	9	n/a	n/a	n/a	n/a	n/a	n/a	n/a	n/a	n/a	n/a	n/a	n/a	n/a	n/a	n/a
3009619	REC_START	n/a	LTP207	ltpFR	9	11	n/a	n/a	n/a	n/a	n/a	n/a	0	0	0	n/a	n/a	n/a	n/a	n/a
3012023	REC_WORD	wordpools/wasnorm_wordpool_less_exclusions.txt	LTP207	ltpFR	9	11	1	LABYRINTH	791	n/a	0	n/a	0	0	0	n/a	n/a	n/a	n/a	n/a
3014069	REC_WORD	wordpools/wasnorm_wordpool_less_exclusions.txt	LTP207	ltpFR	9	11	0	PUZZLE	1146	n/a	1	n/a	0	0	0	n/a	n/a	n/a	n/a	n/a
3015900	REC_WORD	wordpools/wasnorm_wordpool_less_exclusions.txt	LTP207	ltpFR	9	11	0	TRIANGLE	1504	n/a	0	n/a	0	0	0	n/a	n/a	n/a	n/a	n/a
3017770	REC_WORD	wordpools/wasnorm_wordpool_less_exclusions.txt	LTP207	ltpFR	9	11	1	PAIL	1002	n/a	0	n/a	0	0	0	n/a	n/a	n/a	n/a	n/a
3021153	REC_WORD	wordpools/wasnorm_wordpool_less_exclusions.txt	LTP207	ltpFR	9	11	0	CANAL	226	n/a	1	n/a	0	0	0	n/a	n/a	n/a	n/a	n/a
3024485	REC_WORD	wordpools/wasnorm_wordpool_less_exclusions.txt	LTP207	ltpFR	9	11	1	DIVER	476	n/a	1	n/a	0	0	0	n/a	n/a	n/a	n/a	n/a
3026216	REC_WORD	wordpools/wasnorm_wordpool_less_exclusions.txt	LTP207	ltpFR	9	11	1	BEET	115	n/a	0	n/a	0	0	0	n/a	n/a	n/a	n/a	n/a
3027753	REC_WORD	wordpools/wasnorm_wordpool_less_exclusions.txt	LTP207	ltpFR	9	11	0	KIWI	781	n/a	0	n/a	0	0	0	n/a	n/a	n/a	n/a	n/a
3031140	REC_WORD	wordpools/wasnorm_wordpool_less_exclusions.txt	LTP207	ltpFR	9	11	0	BLACKBERRY	132	n/a	0	n/a	0	0	0	n/a	n/a	n/a	n/a	n/a
3037331	REC_WORD	wordpools/wasnorm_wordpool_less_exclusions.txt	LTP207	ltpFR	9	11	0	WITCH	1617	n/a	1	n/a	0	0	0	n/a	n/a	n/a	n/a	n/a
3041217	REC_WORD	wordpools/wasnorm_wordpool_less_exclusions.txt	LTP207	ltpFR	9	11	1	ROOST	1208	n/a	0	n/a	0	0	0	n/a	n/a	n/a	n/a	n/a
3044649	REC_WORD	wordpools/wasnorm_wordpool_less_exclusions.txt	LTP207	ltpFR	9	11	1	TURKEY	1520	n/a	1	n/a	0	0	0	n/a	n/a	n/a	n/a	n/a
3090149	WORD	wordpools/wasnorm_wordpool_less_exclusions.txt	LTP207	ltpFR	9	12	0	BATHROOM	99	n/a	1	n/a	0	0	0	0	0.5869140625	0.422607421875	lower	../fonts/amplitud.ttf
3094044	WORD	wordpools/wasnorm_wordpool_less_exclusions.txt	LTP207	ltpFR	9	12	0	PLUMBER	1091	n/a	1	n/a	0	0	0	0	0.5869140625	0.422607421875	lower	../fonts/amplitud.ttf
3097904	WORD	wordpools/wasnorm_wordpool_less_exclusions.txt	LTP207	ltpFR	9	12	0	FOX	598	n/a	1	n/a	0	0	0	0	0.5869140625	0.422607421875	lower	../fonts/amplitud.ttf
3101899	WORD	wordpools/wasnorm_wordpool_less_exclusions.txt	LTP207	ltpFR	9	12	0	SCAPEGOAT	1244	n/a	1	n/a	0	0	0	0	0.5869140625	0.422607421875	lower	../fonts/amplitud.ttf
3105725	WORD	wordpools/wasnorm_wordpool_less_exclusions.txt	LTP207	ltpFR	9	12	0	PEPPER	1047	n/a	0	n/a	0	0	0	0	0.5869140625	0.422607421875	lower	../fonts/amplitud.ttf
3109553	WORD	wordpools/wasnorm_wordpool_less_exclusions.txt	LTP207	ltpFR	9	12	0	BRAN	167	n/a	0	n/a	0	0	0	0	0.5869140625	0.422607421875	lower	../fonts/amplitud.ttf
3113663	WORD	wordpools/wasnorm_wordpool_less_exclusions.txt	LTP207	ltpFR	9	12	0	SATURN	1236	n/a	1	n/a	0	0	0	0	0.5869140625	0.422607421875	lower	../fonts/amplitud.ttf
3117741	WORD	wordpools/wasnorm_wordpool_less_exclusions.txt	LTP207	ltpFR	9	12	0	MARGARINE	868	n/a	0	n/a	0	0	0	0	0.5869140625	0.422607421875	lower	../fonts/amplitud.ttf
3121568	WORD	wordpools/wasnorm_wordpool_less_exclusions.txt	LTP207	ltpFR	9	12	0	OATS	968	n/a	0	n/a	0	0	0	0	0.5869140625	0.422607421875	lower	../fonts/amplitud.ttf
3125645	WORD	wordpools/wasnorm_wordpool_less_exclusions.txt	LTP207	ltpFR	9	12	0	FRIES	607	n/a	0	n/a	0	0	0	0	0.5869140625	0.422607421875	lower	../fonts/amplitud.ttf
3129723	WORD	wordpools/wasnorm_wordpool_less_exclusions.txt	LTP207	ltpFR	9	12	0	TOOL	1480	n/a	0	n/a	0	0	0	0	0.5869140625	0.422607421875	lower	../fonts/amplitud.ttf
3133650	WORD	wordpools/wasnorm_wordpool_less_exclusions.txt	LTP207	ltpFR	9	12	0	PEANUT	1032	n/a	0	n/a	0	0	0	0	0.5869140625	0.422607421875	lower	../fonts/amplitud.ttf
3137594	WORD	wordpools/wasnorm_wordpool_less_exclusions.txt	LTP207	ltpFR	9	12	0	ACROBAT	4	n/a	1	n/a	0	0	0	0	0.5869140625	0.422607421875	lower	../fonts/amplitud.ttf
3141522	WORD	wordpools/wasnorm_wordpool_less_exclusions.txt	LTP207	ltpFR	9	12	0	CARNIVAL	245	n/a	1	n/a	0	0	0	0	0.5869140625	0.422607421875	lower	../fonts/amplitud.ttf
3145665	WORD	wordpools/wasnorm_wordpool_less_exclusions.txt	LTP207	ltpFR	9	12	0	RADIATOR	1156	n/a	1	n/a	0	0	0	0	0.5869140625	0.422607421875	lower	../fonts/amplitud.ttf
3149860	WORD	wordpools/wasnorm_wordpool_less_exclusions.txt	LTP207	ltpFR	9	12	0	ELM	527	n/a	1	n/a	0	0	0	0	0.5869140625	0.422607421875	lower	../fonts/amplitud.ttf
3155601	REC_START	n/a	LTP207	ltpFR	9	12	n/a	n/a	n/a	n/a	n/a	n/a	0	0	0	n/a	n/a	n/a	n/a	n/a
3158310	REC_WORD	wordpools/wasnorm_wordpool_less_exclusions.txt	LTP207	ltpFR	9	12	0	ELM	527	n/a	1	n/a	0	0	0	n/a	n/a	n/a	n/a	n/a
3159352	REC_WORD_VV	wordpools/wasnorm_wordpool_less_exclusions.txt	LTP207	ltpFR	9	12	n/a	<>	-1	n/a	n/a	n/a	0	0	0	n/a	n/a	n/a	n/a	n/a
3160849	REC_WORD	wordpools/wasnorm_wordpool_less_exclusions.txt	LTP207	ltpFR	9	12	0	RADIATOR	1156	n/a	1	n/a	0	0	0	n/a	n/a	n/a	n/a	n/a
3172046	REC_WORD	wordpools/wasnorm_wordpool_less_exclusions.txt	LTP207	ltpFR	9	12	0	SATURN	1236	n/a	1	n/a	0	0	0	n/a	n/a	n/a	n/a	n/a
3175311	REC_WORD	wordpools/wasnorm_wordpool_less_exclusions.txt	LTP207	ltpFR	9	12	0	MARGARINE	868	n/a	0	n/a	0	0	0	n/a	n/a	n/a	n/a	n/a
3177261	REC_WORD	wordpools/wasnorm_wordpool_less_exclusions.txt	LTP207	ltpFR	9	12	0	FRIES	607	n/a	0	n/a	0	0	0	n/a	n/a	n/a	n/a	n/a
3180260	REC_WORD	wordpools/wasnorm_wordpool_less_exclusions.txt	LTP207	ltpFR	9	12	0	PEPPER	1047	n/a	0	n/a	0	0	0	n/a	n/a	n/a	n/a	n/a
3195048	REC_WORD	wordpools/wasnorm_wordpool_less_exclusions.txt	LTP207	ltpFR	9	12	0	SCAPEGOAT	1244	n/a	1	n/a	0	0	0	n/a	n/a	n/a	n/a	n/a
3197784	REC_WORD	wordpools/wasnorm_wordpool_less_exclusions.txt	LTP207	ltpFR	9	12	0	PLUMBER	1091	n/a	1	n/a	0	0	0	n/a	n/a	n/a	n/a	n/a
3199845	REC_WORD	wordpools/wasnorm_wordpool_less_exclusions.txt	LTP207	ltpFR	9	12	0	BATHROOM	99	n/a	1	n/a	0	0	0	n/a	n/a	n/a	n/a	n/a
3202186	REC_WORD	wordpools/wasnorm_wordpool_less_exclusions.txt	LTP207	ltpFR	9	12	0	FOX	598	n/a	1	n/a	0	0	0	n/a	n/a	n/a	n/a	n/a
3217989	REC_WORD	wordpools/wasnorm_wordpool_less_exclusions.txt	LTP207	ltpFR	9	12	0	BRAN	167	n/a	0	n/a	0	0	0	n/a	n/a	n/a	n/a	n/a
3219640	REC_WORD	wordpools/wasnorm_wordpool_less_exclusions.txt	LTP207	ltpFR	9	12	0	OATS	968	n/a	0	n/a	0	0	0	n/a	n/a	n/a	n/a	n/a
3242339	REC_START	n/a	LTP207	ltpFR	9	n/a	n/a	n/a	n/a	n/a	n/a	n/a	0	0	0	n/a	n/a	n/a	n/a	n/a
3243980	FFR_REC_WORD	wordpools/wasnorm_wordpool_less_exclusions.txt	LTP207	ltpFR	9	n/a	0	BRAN	167	n/a	0	n/a	0	0	0	n/a	n/a	n/a	n/a	n/a
3244813	FFR_REC_WORD	wordpools/wasnorm_wordpool_less_exclusions.txt	LTP207	ltpFR	9	n/a	0	OATS	968	n/a	0	n/a	0	0	0	n/a	n/a	n/a	n/a	n/a
3246504	FFR_REC_WORD	wordpools/wasnorm_wordpool_less_exclusions.txt	LTP207	ltpFR	9	n/a	0	SUPERVISOR	1410	n/a	1	n/a	0	0	0	n/a	n/a	n/a	n/a	n/a
3247504	FFR_REC_WORD_VV	wordpools/wasnorm_wordpool_less_exclusions.txt	LTP207	ltpFR	9	n/a	n/a	<>	-1	n/a	n/a	n/a	0	0	0	n/a	n/a	n/a	n/a	n/a
3247951	FFR_REC_WORD	wordpools/wasnorm_wordpool_less_exclusions.txt	LTP207	ltpFR	9	n/a	0	RADIATOR	1156	n/a	1	n/a	0	0	0	n/a	n/a	n/a	n/a	n/a
3251032	FFR_REC_WORD	wordpools/wasnorm_wordpool_less_exclusions.txt	LTP207	ltpFR	9	n/a	0	PLUMBER	1091	n/a	1	n/a	0	0	0	n/a	n/a	n/a	n/a	n/a
