mstime	trial_type	stim_file	subject	experiment	session	trial	task	item_name	item_num	recog_resp	recog_conf	resp	color_r	color_g	color_b	case	font
0	SESS_START	n/a	LTP134	ltpFR	6	n/a	n/a	n/a	n/a	1	1	n/a	n/a	n/a	n/a	n/a	n/a
108861	WORD	wordpools/wasnorm_wordpool.txt	LTP134	ltpFR	6	1	0	FLANNEL	574	1	n/a	1	0.57763671875	0.412841796875	1	lower	zerothre.ttf
112710	WORD	wordpools/wasnorm_wordpool.txt	LTP134	ltpFR	6	1	0	JUGGLER	763	n/a	n/a	1	0.57763671875	0.412841796875	1	lower	zerothre.ttf
116525	WORD	wordpools/wasnorm_wordpool.txt	LTP134	ltpFR	6	1	0	SUN	1406	n/a	n/a	1	0.57763671875	0.412841796875	1	lower	zerothre.ttf
120599	WORD	wordpools/wasnorm_wordpool.txt	LTP134	ltpFR	6	1	0	LEMON	810	n/a	n/a	1	0.57763671875	0.412841796875	1	lower	zerothre.ttf
124439	WORD	wordpools/wasnorm_wordpool.txt	LTP134	ltpFR	6	1	1	HOUND	724	n/a	n/a	1	0.422607421875	0.5869140625	0	upper	amplitud.ttf
128413	WORD	wordpools/wasnorm_wordpool.txt	LTP134	ltpFR	6	1	1	WOLF	1619	n/a	n/a	1	0.422607421875	0.5869140625	0	upper	amplitud.ttf
132328	WORD	wordpools/wasnorm_wordpool.txt	LTP134	ltpFR	6	1	1	PRINCESS	1125	n/a	n/a	1	0.422607421875	0.5869140625	0	upper	amplitud.ttf
136252	WORD	wordpools/wasnorm_wordpool.txt	LTP134	ltpFR	6	1	1	CHAIN	273	n/a	n/a	0	0.422607421875	0.5869140625	0	upper	amplitud.ttf
140284	WORD	wordpools/wasnorm_wordpool.txt	LTP134	ltpFR	6	1	0	KNOB	787	n/a	n/a	0	0.57763671875	0.412841796875	1	lower	zerothre.ttf
144440	WORD	wordpools/wasnorm_wordpool.txt	LTP134	ltpFR	6	1	0	COW	393	n/a	n/a	1	0.57763671875	0.412841796875	1	lower	zerothre.ttf
148621	WORD	wordpools/wasnorm_wordpool.txt	LTP134	ltpFR	6	1	1	BUFFALO	186	n/a	n/a	1	0.422607421875	0.5869140625	0	upper	amplitud.ttf
152779	WORD	wordpools/wasnorm_wordpool.txt	LTP134	ltpFR	6	1	1	ACTRESS	6	n/a	n/a	1	0.422607421875	0.5869140625	0	upper	amplitud.ttf
156803	WORD	wordpools/wasnorm_wordpool.txt	LTP134	ltpFR	6	1	1	LAPEL	800	n/a	n/a	0	0.422607421875	0.5869140625	0	upper	amplitud.ttf
160793	WORD	wordpools/wasnorm_wordpool.txt	LTP134	ltpFR	6	1	1	GALAXY	617	n/a	n/a	0	0.422607421875	0.5869140625	0	upper	amplitud.ttf
164892	WORD	wordpools/wasnorm_wordpool.txt	LTP134	ltpFR	6	1	0	BRUISE	180	n/a	n/a	1	0.57763671875	0.412841796875	1	lower	zerothre.ttf
169007	WORD	wordpools/wasnorm_wordpool.txt	LTP134	ltpFR	6	1	0	MOVIE	927	n/a	n/a	1	0.57763671875	0.412841796875	1	lower	zerothre.ttf
174705	REC_START	n/a	LTP134	ltpFR	6	1	n/a	n/a	n/a	n/a	n/a	n/a	n/a	n/a	n/a	n/a	n/a
176995	REC_WORD	wordpools/wasnorm_wordpool.txt	LTP134	ltpFR	6	1	0	MOVIE	927	n/a	n/a	1	n/a	n/a	n/a	n/a	n/a
178676	REC_WORD	wordpools/wasnorm_wordpool.txt	LTP134	ltpFR	6	1	0	BRUISE	180	n/a	n/a	1	n/a	n/a	n/a	n/a	n/a
181305	REC_WORD	wordpools/wasnorm_wordpool.txt	LTP134	ltpFR	6	1	1	ACTRESS	6	n/a	n/a	1	n/a	n/a	n/a	n/a	n/a
183919	REC_WORD	wordpools/wasnorm_wordpool.txt	LTP134	ltpFR	6	1	1	BUFFALO	186	n/a	n/a	1	n/a	n/a	n/a	n/a	n/a
187601	REC_WORD	wordpools/wasnorm_wordpool.txt	LTP134	ltpFR	6	1	0	JUGGLER	763	n/a	n/a	1	n/a	n/a	n/a	n/a	n/a
188662	REC_WORD	wordpools/wasnorm_wordpool.txt	LTP134	ltpFR	6	1	0	FLANNEL	574	n/a	n/a	1	n/a	n/a	n/a	n/a	n/a
190938	REC_WORD	wordpools/wasnorm_wordpool.txt	LTP134	ltpFR	6	1	0	LEMON	810	n/a	n/a	1	n/a	n/a	n/a	n/a	n/a
192479	REC_WORD	wordpools/wasnorm_wordpool.txt	LTP134	ltpFR	6	1	0	SUN	1406	n/a	n/a	1	n/a	n/a	n/a	n/a	n/a
194624	REC_WORD	wordpools/wasnorm_wordpool.txt	LTP134	ltpFR	6	1	1	HOUND	724	n/a	n/a	1	n/a	n/a	n/a	n/a	n/a
196226	REC_WORD	wordpools/wasnorm_wordpool.txt	LTP134	ltpFR	6	1	1	WOLF	1619	n/a	n/a	1	n/a	n/a	n/a	n/a	n/a
199498	REC_WORD	wordpools/wasnorm_wordpool.txt	LTP134	ltpFR	6	1	1	PRINCESS	1125	n/a	n/a	1	n/a	n/a	n/a	n/a	n/a
203869	REC_WORD	wordpools/wasnorm_wordpool.txt	LTP134	ltpFR	6	1	0	KNOB	787	n/a	n/a	0	n/a	n/a	n/a	n/a	n/a
205914	REC_WORD	wordpools/wasnorm_wordpool.txt	LTP134	ltpFR	6	1	1	LAPEL	800	n/a	n/a	0	n/a	n/a	n/a	n/a	n/a
207854	REC_WORD	wordpools/wasnorm_wordpool.txt	LTP134	ltpFR	6	1	1	GALAXY	617	n/a	n/a	0	n/a	n/a	n/a	n/a	n/a
211701	REC_WORD	wordpools/wasnorm_wordpool.txt	LTP134	ltpFR	6	1	0	MOVIE	927	n/a	n/a	1	n/a	n/a	n/a	n/a	n/a
256526	WORD	wordpools/wasnorm_wordpool.txt	LTP134	ltpFR	6	2	1	BUTTER	205	n/a	n/a	0	0.422607421875	0.5869140625	0	upper	amplitud.ttf
260632	WORD	wordpools/wasnorm_wordpool.txt	LTP134	ltpFR	6	2	1	WATERFALL	1595	n/a	n/a	0	0.422607421875	0.5869140625	0	upper	amplitud.ttf
264489	WORD	wordpools/wasnorm_wordpool.txt	LTP134	ltpFR	6	2	1	ELEPHANT	523	n/a	n/a	1	0.422607421875	0.5869140625	0	upper	amplitud.ttf
268313	WORD	wordpools/wasnorm_wordpool.txt	LTP134	ltpFR	6	2	0	PROFESSIONAL	1130	n/a	n/a	1	0.57763671875	0.412841796875	1	lower	zerothre.ttf
272512	WORD	wordpools/wasnorm_wordpool.txt	LTP134	ltpFR	6	2	0	CUP	424	n/a	n/a	0	0.57763671875	0.412841796875	1	lower	zerothre.ttf
276502	WORD	wordpools/wasnorm_wordpool.txt	LTP134	ltpFR	6	2	0	SEAL	1262	n/a	n/a	1	0.57763671875	0.412841796875	1	lower	zerothre.ttf
280425	WORD	wordpools/wasnorm_wordpool.txt	LTP134	ltpFR	6	2	1	QUILL	1150	n/a	n/a	0	0.422607421875	0.5869140625	0	upper	amplitud.ttf
284291	WORD	wordpools/wasnorm_wordpool.txt	LTP134	ltpFR	6	2	1	COMEDIAN	352	n/a	n/a	1	0.422607421875	0.5869140625	0	upper	amplitud.ttf
288464	WORD	wordpools/wasnorm_wordpool.txt	LTP134	ltpFR	6	2	0	SWEATER	1419	n/a	n/a	1	0.57763671875	0.412841796875	1	lower	zerothre.ttf
292671	WORD	wordpools/wasnorm_wordpool.txt	LTP134	ltpFR	6	2	0	SCARF	1246	n/a	n/a	0	0.57763671875	0.412841796875	1	lower	zerothre.ttf
296611	WORD	wordpools/wasnorm_wordpool.txt	LTP134	ltpFR	6	2	0	TWIG	1527	n/a	n/a	0	0.57763671875	0.412841796875	1	lower	zerothre.ttf
300477	WORD	wordpools/wasnorm_wordpool.txt	LTP134	ltpFR	6	2	0	THICKET	1455	n/a	n/a	0	0.57763671875	0.412841796875	1	lower	zerothre.ttf
304359	WORD	wordpools/wasnorm_wordpool.txt	LTP134	ltpFR	6	2	0	MARGARINE	868	n/a	n/a	1	0.57763671875	0.412841796875	1	lower	zerothre.ttf
308274	WORD	wordpools/wasnorm_wordpool.txt	LTP134	ltpFR	6	2	1	ESSAY	540	n/a	n/a	0	0.422607421875	0.5869140625	0	upper	amplitud.ttf
312397	WORD	wordpools/wasnorm_wordpool.txt	LTP134	ltpFR	6	2	1	TORTOISE	1486	n/a	n/a	1	0.422607421875	0.5869140625	0	upper	amplitud.ttf
316563	WORD	wordpools/wasnorm_wordpool.txt	LTP134	ltpFR	6	2	1	TURTLE	1522	n/a	n/a	1	0.422607421875	0.5869140625	0	upper	amplitud.ttf
322203	REC_START	n/a	LTP134	ltpFR	6	2	n/a	n/a	n/a	n/a	n/a	n/a	n/a	n/a	n/a	n/a	n/a
324478	REC_WORD	wordpools/wasnorm_wordpool.txt	LTP134	ltpFR	6	2	1	ESSAY	540	n/a	n/a	0	n/a	n/a	n/a	n/a	n/a
325959	REC_WORD	wordpools/wasnorm_wordpool.txt	LTP134	ltpFR	6	2	1	TURTLE	1522	n/a	n/a	1	n/a	n/a	n/a	n/a	n/a
327526	REC_WORD	wordpools/wasnorm_wordpool.txt	LTP134	ltpFR	6	2	1	TORTOISE	1486	n/a	n/a	1	n/a	n/a	n/a	n/a	n/a
329207	REC_WORD	wordpools/wasnorm_wordpool.txt	LTP134	ltpFR	6	2	1	WATERFALL	1595	n/a	n/a	0	n/a	n/a	n/a	n/a	n/a
331262	REC_WORD	wordpools/wasnorm_wordpool.txt	LTP134	ltpFR	6	2	1	BUTTER	205	n/a	n/a	0	n/a	n/a	n/a	n/a	n/a
333128	REC_WORD	wordpools/wasnorm_wordpool.txt	LTP134	ltpFR	6	2	1	ELEPHANT	523	n/a	n/a	1	n/a	n/a	n/a	n/a	n/a
339164	REC_WORD	wordpools/wasnorm_wordpool.txt	LTP134	ltpFR	6	2	1	QUILL	1150	n/a	n/a	0	n/a	n/a	n/a	n/a	n/a
344138	REC_WORD	wordpools/wasnorm_wordpool.txt	LTP134	ltpFR	6	2	0	MARGARINE	868	n/a	n/a	1	n/a	n/a	n/a	n/a	n/a
410879	WORD	wordpools/wasnorm_wordpool.txt	LTP134	ltpFR	6	3	0	TOILET	1475	n/a	n/a	1	0.57763671875	0.412841796875	1	lower	zerothre.ttf
414936	WORD	wordpools/wasnorm_wordpool.txt	LTP134	ltpFR	6	3	0	SENATOR	1268	n/a	n/a	1	0.57763671875	0.412841796875	1	lower	zerothre.ttf
418785	WORD	wordpools/wasnorm_wordpool.txt	LTP134	ltpFR	6	3	0	ORCHID	982	n/a	n/a	0	0.57763671875	0.412841796875	1	lower	zerothre.ttf
422642	WORD	wordpools/wasnorm_wordpool.txt	LTP134	ltpFR	6	3	0	TULIP	1517	n/a	n/a	0	0.57763671875	0.412841796875	1	lower	zerothre.ttf
426540	WORD	wordpools/wasnorm_wordpool.txt	LTP134	ltpFR	6	3	0	THERMOMETER	1453	n/a	n/a	0	0.57763671875	0.412841796875	1	lower	zerothre.ttf
430680	WORD	wordpools/wasnorm_wordpool.txt	LTP134	ltpFR	6	3	0	CELLO	268	n/a	n/a	1	0.57763671875	0.412841796875	1	lower	zerothre.ttf
434637	WORD	wordpools/wasnorm_wordpool.txt	LTP134	ltpFR	6	3	0	PIANO	1057	n/a	n/a	1	0.57763671875	0.412841796875	1	lower	zerothre.ttf
438827	WORD	wordpools/wasnorm_wordpool.txt	LTP134	ltpFR	6	3	0	SCIENTIST	1249	n/a	n/a	1	0.57763671875	0.412841796875	1	lower	zerothre.ttf
442818	WORD	wordpools/wasnorm_wordpool.txt	LTP134	ltpFR	6	3	0	GOVERNOR	651	n/a	n/a	1	0.57763671875	0.412841796875	1	lower	zerothre.ttf
447000	WORD	wordpools/wasnorm_wordpool.txt	LTP134	ltpFR	6	3	0	ELECTRICIAN	521	n/a	n/a	1	0.57763671875	0.412841796875	1	lower	zerothre.ttf
450848	WORD	wordpools/wasnorm_wordpool.txt	LTP134	ltpFR	6	3	0	LOUNGE	845	n/a	n/a	1	0.57763671875	0.412841796875	1	lower	zerothre.ttf
454955	WORD	wordpools/wasnorm_wordpool.txt	LTP134	ltpFR	6	3	0	CAKE	219	n/a	n/a	0	0.57763671875	0.412841796875	1	lower	zerothre.ttf
458795	WORD	wordpools/wasnorm_wordpool.txt	LTP134	ltpFR	6	3	0	SNACK	1331	n/a	n/a	0	0.57763671875	0.412841796875	1	lower	zerothre.ttf
462936	WORD	wordpools/wasnorm_wordpool.txt	LTP134	ltpFR	6	3	0	BUCKET	184	n/a	n/a	1	0.57763671875	0.412841796875	1	lower	zerothre.ttf
466751	WORD	wordpools/wasnorm_wordpool.txt	LTP134	ltpFR	6	3	0	REEF	1177	n/a	n/a	1	0.57763671875	0.412841796875	1	lower	zerothre.ttf
470874	WORD	wordpools/wasnorm_wordpool.txt	LTP134	ltpFR	6	3	0	RADIO	1157	n/a	n/a	1	0.57763671875	0.412841796875	1	lower	zerothre.ttf
476590	REC_START	n/a	LTP134	ltpFR	6	3	n/a	n/a	n/a	n/a	n/a	n/a	n/a	n/a	n/a	n/a	n/a
478366	REC_WORD	wordpools/wasnorm_wordpool.txt	LTP134	ltpFR	6	3	0	RADIO	1157	n/a	n/a	1	n/a	n/a	n/a	n/a	n/a
479927	REC_WORD	wordpools/wasnorm_wordpool.txt	LTP134	ltpFR	6	3	0	BUCKET	184	n/a	n/a	1	n/a	n/a	n/a	n/a	n/a
481459	REC_WORD	wordpools/wasnorm_wordpool.txt	LTP134	ltpFR	6	3	0	REEF	1177	n/a	n/a	1	n/a	n/a	n/a	n/a	n/a
484042	REC_WORD	wordpools/wasnorm_wordpool.txt	LTP134	ltpFR	6	3	0	SENATOR	1268	n/a	n/a	1	n/a	n/a	n/a	n/a	n/a
486098	REC_WORD	wordpools/wasnorm_wordpool.txt	LTP134	ltpFR	6	3	0	TOILET	1475	n/a	n/a	1	n/a	n/a	n/a	n/a	n/a
488139	REC_WORD	wordpools/wasnorm_wordpool.txt	LTP134	ltpFR	6	3	0	TULIP	1517	n/a	n/a	0	n/a	n/a	n/a	n/a	n/a
492334	REC_WORD	wordpools/wasnorm_wordpool.txt	LTP134	ltpFR	6	3	0	ORCHID	982	n/a	n/a	0	n/a	n/a	n/a	n/a	n/a
497906	REC_WORD	wordpools/wasnorm_wordpool.txt	LTP134	ltpFR	6	3	0	PIANO	1057	n/a	n/a	1	n/a	n/a	n/a	n/a	n/a
499388	REC_WORD	wordpools/wasnorm_wordpool.txt	LTP134	ltpFR	6	3	0	CELLO	268	n/a	n/a	1	n/a	n/a	n/a	n/a	n/a
501977	REC_WORD	wordpools/wasnorm_wordpool.txt	LTP134	ltpFR	6	3	0	LOUNGE	845	n/a	n/a	1	n/a	n/a	n/a	n/a	n/a
505369	REC_WORD	wordpools/wasnorm_wordpool.txt	LTP134	ltpFR	6	3	0	ELECTRICIAN	521	n/a	n/a	1	n/a	n/a	n/a	n/a	n/a
507329	REC_WORD	wordpools/wasnorm_wordpool.txt	LTP134	ltpFR	6	3	0	SCIENTIST	1249	n/a	n/a	1	n/a	n/a	n/a	n/a	n/a
566415	WORD	wordpools/wasnorm_wordpool.txt	LTP134	ltpFR	6	4	1	HAY	693	n/a	n/a	0	0.422607421875	0.5869140625	0	upper	amplitud.ttf
570539	WORD	wordpools/wasnorm_wordpool.txt	LTP134	ltpFR	6	4	1	CONTAINER	366	n/a	n/a	0	0.422607421875	0.5869140625	0	upper	amplitud.ttf
574646	WORD	wordpools/wasnorm_wordpool.txt	LTP134	ltpFR	6	4	1	COOK	372	n/a	n/a	0	0.422607421875	0.5869140625	0	upper	amplitud.ttf
578794	WORD	wordpools/wasnorm_wordpool.txt	LTP134	ltpFR	6	4	1	SKETCH	1315	n/a	n/a	0	0.422607421875	0.5869140625	0	upper	amplitud.ttf
582676	WORD	wordpools/wasnorm_wordpool.txt	LTP134	ltpFR	6	4	1	PAINTER	1004	n/a	n/a	1	0.422607421875	0.5869140625	0	upper	amplitud.ttf
586758	WORD	wordpools/wasnorm_wordpool.txt	LTP134	ltpFR	6	4	1	COYOTE	396	n/a	n/a	1	0.422607421875	0.5869140625	0	upper	amplitud.ttf
590724	WORD	wordpools/wasnorm_wordpool.txt	LTP134	ltpFR	6	4	1	BOY	161	n/a	n/a	1	0.422607421875	0.5869140625	0	upper	amplitud.ttf
594621	WORD	wordpools/wasnorm_wordpool.txt	LTP134	ltpFR	6	4	1	TUSK	1523	n/a	n/a	0	0.422607421875	0.5869140625	0	upper	amplitud.ttf
598621	WORD	wordpools/wasnorm_wordpool.txt	LTP134	ltpFR	6	4	1	POSSUM	1112	n/a	n/a	1	0.422607421875	0.5869140625	0	upper	amplitud.ttf
602644	WORD	wordpools/wasnorm_wordpool.txt	LTP134	ltpFR	6	4	1	CAGE	218	n/a	n/a	0	0.422607421875	0.5869140625	0	upper	amplitud.ttf
606585	WORD	wordpools/wasnorm_wordpool.txt	LTP134	ltpFR	6	4	1	FLEA	577	n/a	n/a	0	0.422607421875	0.5869140625	0	upper	amplitud.ttf
610675	WORD	wordpools/wasnorm_wordpool.txt	LTP134	ltpFR	6	4	1	POT	1114	n/a	n/a	0	0.422607421875	0.5869140625	0	upper	amplitud.ttf
614657	WORD	wordpools/wasnorm_wordpool.txt	LTP134	ltpFR	6	4	1	LEADER	807	n/a	n/a	1	0.422607421875	0.5869140625	0	upper	amplitud.ttf
618472	WORD	wordpools/wasnorm_wordpool.txt	LTP134	ltpFR	6	4	1	DICTATOR	462	n/a	n/a	1	0.422607421875	0.5869140625	0	upper	amplitud.ttf
622412	WORD	wordpools/wasnorm_wordpool.txt	LTP134	ltpFR	6	4	1	COOLER	375	n/a	n/a	0	0.422607421875	0.5869140625	0	upper	amplitud.ttf
626453	WORD	wordpools/wasnorm_wordpool.txt	LTP134	ltpFR	6	4	1	SICKLE	1302	n/a	n/a	0	0.422607421875	0.5869140625	0	upper	amplitud.ttf
632160	REC_START	n/a	LTP134	ltpFR	6	4	n/a	n/a	n/a	n/a	n/a	n/a	n/a	n/a	n/a	n/a	n/a
634055	REC_WORD	wordpools/wasnorm_wordpool.txt	LTP134	ltpFR	6	4	1	SICKLE	1302	n/a	n/a	0	n/a	n/a	n/a	n/a	n/a
635642	REC_WORD	wordpools/wasnorm_wordpool.txt	LTP134	ltpFR	6	4	1	COOLER	375	n/a	n/a	0	n/a	n/a	n/a	n/a	n/a
637513	REC_WORD	wordpools/wasnorm_wordpool.txt	LTP134	ltpFR	6	4	1	LEADER	807	n/a	n/a	1	n/a	n/a	n/a	n/a	n/a
639368	REC_WORD	wordpools/wasnorm_wordpool.txt	LTP134	ltpFR	6	4	1	DICTATOR	462	n/a	n/a	1	n/a	n/a	n/a	n/a	n/a
646212	REC_WORD	wordpools/wasnorm_wordpool.txt	LTP134	ltpFR	6	4	1	SKETCH	1315	n/a	n/a	0	n/a	n/a	n/a	n/a	n/a
648747	REC_WORD	wordpools/wasnorm_wordpool.txt	LTP134	ltpFR	6	4	n/a	PAINT	1003	n/a	n/a	n/a	n/a	n/a	n/a	n/a	n/a
651626	REC_WORD	wordpools/wasnorm_wordpool.txt	LTP134	ltpFR	6	4	1	COOK	372	n/a	n/a	0	n/a	n/a	n/a	n/a	n/a
660411	REC_WORD	wordpools/wasnorm_wordpool.txt	LTP134	ltpFR	6	4	1	BOY	161	n/a	n/a	1	n/a	n/a	n/a	n/a	n/a
669151	REC_WORD	wordpools/wasnorm_wordpool.txt	LTP134	ltpFR	6	4	1	TUSK	1523	n/a	n/a	0	n/a	n/a	n/a	n/a	n/a
736980	WORD	wordpools/wasnorm_wordpool.txt	LTP134	ltpFR	6	5	-1	HOOP	716	n/a	n/a	-1	1.0	1.0	1	upper	Verdana.ttf
740987	WORD	wordpools/wasnorm_wordpool.txt	LTP134	ltpFR	6	5	-1	WILDERNESS	1610	n/a	n/a	-1	1.0	1.0	1	upper	Verdana.ttf
745169	WORD	wordpools/wasnorm_wordpool.txt	LTP134	ltpFR	6	5	-1	HOSPITAL	721	n/a	n/a	-1	1.0	1.0	1	upper	Verdana.ttf
749325	WORD	wordpools/wasnorm_wordpool.txt	LTP134	ltpFR	6	5	-1	HAT	690	n/a	n/a	-1	1.0	1.0	1	upper	Verdana.ttf
753349	WORD	wordpools/wasnorm_wordpool.txt	LTP134	ltpFR	6	5	-1	STAR	1373	n/a	n/a	-1	1.0	1.0	1	upper	Verdana.ttf
757414	WORD	wordpools/wasnorm_wordpool.txt	LTP134	ltpFR	6	5	-1	THIMBLE	1458	n/a	n/a	-1	1.0	1.0	1	upper	Verdana.ttf
761571	WORD	wordpools/wasnorm_wordpool.txt	LTP134	ltpFR	6	5	-1	LOLLIPOP	842	n/a	n/a	-1	1.0	1.0	1	upper	Verdana.ttf
765678	WORD	wordpools/wasnorm_wordpool.txt	LTP134	ltpFR	6	5	-1	FOREST	593	n/a	n/a	-1	1.0	1.0	1	upper	Verdana.ttf
769702	WORD	wordpools/wasnorm_wordpool.txt	LTP134	ltpFR	6	5	-1	NAVIGATOR	938	n/a	n/a	-1	1.0	1.0	1	upper	Verdana.ttf
773534	WORD	wordpools/wasnorm_wordpool.txt	LTP134	ltpFR	6	5	-1	HELICOPTER	701	n/a	n/a	-1	1.0	1.0	1	upper	Verdana.ttf
777374	WORD	wordpools/wasnorm_wordpool.txt	LTP134	ltpFR	6	5	-1	AMBULANCE	19	n/a	n/a	-1	1.0	1.0	1	upper	Verdana.ttf
781347	WORD	wordpools/wasnorm_wordpool.txt	LTP134	ltpFR	6	5	-1	RUST	1219	n/a	n/a	-1	1.0	1.0	1	upper	Verdana.ttf
785463	WORD	wordpools/wasnorm_wordpool.txt	LTP134	ltpFR	6	5	-1	COUCH	386	n/a	n/a	-1	1.0	1.0	1	upper	Verdana.ttf
789295	WORD	wordpools/wasnorm_wordpool.txt	LTP134	ltpFR	6	5	-1	CHAIR	274	n/a	n/a	-1	1.0	1.0	1	upper	Verdana.ttf
793235	WORD	wordpools/wasnorm_wordpool.txt	LTP134	ltpFR	6	5	-1	BLOUSE	139	n/a	n/a	-1	1.0	1.0	1	upper	Verdana.ttf
797358	WORD	wordpools/wasnorm_wordpool.txt	LTP134	ltpFR	6	5	-1	PORCUPINE	1107	n/a	n/a	-1	1.0	1.0	1	upper	Verdana.ttf
803057	REC_START	n/a	LTP134	ltpFR	6	5	n/a	n/a	n/a	n/a	n/a	n/a	n/a	n/a	n/a	n/a	n/a
805082	REC_WORD	wordpools/wasnorm_wordpool.txt	LTP134	ltpFR	6	5	-1	PORCUPINE	1107	n/a	n/a	-1	n/a	n/a	n/a	n/a	n/a
808260	REC_WORD	wordpools/wasnorm_wordpool.txt	LTP134	ltpFR	6	5	n/a	DRESS	495	n/a	n/a	n/a	n/a	n/a	n/a	n/a	n/a
811656	REC_WORD	wordpools/wasnorm_wordpool.txt	LTP134	ltpFR	6	5	-1	STAR	1373	n/a	n/a	-1	n/a	n/a	n/a	n/a	n/a
813398	REC_WORD	wordpools/wasnorm_wordpool.txt	LTP134	ltpFR	6	5	-1	HAT	690	n/a	n/a	-1	n/a	n/a	n/a	n/a	n/a
814994	REC_WORD	wordpools/wasnorm_wordpool.txt	LTP134	ltpFR	6	5	-1	HOOP	716	n/a	n/a	-1	n/a	n/a	n/a	n/a	n/a
817175	REC_WORD	wordpools/wasnorm_wordpool.txt	LTP134	ltpFR	6	5	-1	WILDERNESS	1610	n/a	n/a	-1	n/a	n/a	n/a	n/a	n/a
819100	REC_WORD	wordpools/wasnorm_wordpool.txt	LTP134	ltpFR	6	5	-1	FOREST	593	n/a	n/a	-1	n/a	n/a	n/a	n/a	n/a
821350	REC_WORD	wordpools/wasnorm_wordpool.txt	LTP134	ltpFR	6	5	-1	HOSPITAL	721	n/a	n/a	-1	n/a	n/a	n/a	n/a	n/a
823825	REC_WORD	wordpools/wasnorm_wordpool.txt	LTP134	ltpFR	6	5	-1	NAVIGATOR	938	n/a	n/a	-1	n/a	n/a	n/a	n/a	n/a
826379	REC_WORD	wordpools/wasnorm_wordpool.txt	LTP134	ltpFR	6	5	-1	HELICOPTER	701	n/a	n/a	-1	n/a	n/a	n/a	n/a	n/a
828424	REC_WORD	wordpools/wasnorm_wordpool.txt	LTP134	ltpFR	6	5	-1	AMBULANCE	19	n/a	n/a	-1	n/a	n/a	n/a	n/a	n/a
835713	REC_WORD	wordpools/wasnorm_wordpool.txt	LTP134	ltpFR	6	5	-1	CHAIR	274	n/a	n/a	-1	n/a	n/a	n/a	n/a	n/a
837184	REC_WORD	wordpools/wasnorm_wordpool.txt	LTP134	ltpFR	6	5	-1	COUCH	386	n/a	n/a	-1	n/a	n/a	n/a	n/a	n/a
839140	REC_WORD	wordpools/wasnorm_wordpool.txt	LTP134	ltpFR	6	5	-1	RUST	1219	n/a	n/a	-1	n/a	n/a	n/a	n/a	n/a
841335	REC_WORD	wordpools/wasnorm_wordpool.txt	LTP134	ltpFR	6	5	-1	BLOUSE	139	n/a	n/a	-1	n/a	n/a	n/a	n/a	n/a
848803	REC_WORD	wordpools/wasnorm_wordpool.txt	LTP134	ltpFR	6	5	-1	THIMBLE	1458	n/a	n/a	-1	n/a	n/a	n/a	n/a	n/a
919107	WORD	wordpools/wasnorm_wordpool.txt	LTP134	ltpFR	6	6	1	BUILDING	191	n/a	n/a	0	0.422607421875	0.5869140625	0	upper	amplitud.ttf
922930	WORD	wordpools/wasnorm_wordpool.txt	LTP134	ltpFR	6	6	1	CUSTOMER	430	n/a	n/a	1	0.422607421875	0.5869140625	0	upper	amplitud.ttf
927004	WORD	wordpools/wasnorm_wordpool.txt	LTP134	ltpFR	6	6	1	BOYFRIEND	162	n/a	n/a	0	0.422607421875	0.5869140625	0	upper	amplitud.ttf
931078	WORD	wordpools/wasnorm_wordpool.txt	LTP134	ltpFR	6	6	1	FUGITIVE	612	n/a	n/a	1	0.422607421875	0.5869140625	0	upper	amplitud.ttf
934943	WORD	wordpools/wasnorm_wordpool.txt	LTP134	ltpFR	6	6	1	CONTRACTOR	369	n/a	n/a	0	0.422607421875	0.5869140625	0	upper	amplitud.ttf
939141	WORD	wordpools/wasnorm_wordpool.txt	LTP134	ltpFR	6	6	1	CAB	209	n/a	n/a	0	0.422607421875	0.5869140625	0	upper	amplitud.ttf
943357	WORD	wordpools/wasnorm_wordpool.txt	LTP134	ltpFR	6	6	1	CARAVAN	242	n/a	n/a	0	0.422607421875	0.5869140625	0	upper	amplitud.ttf
947172	WORD	wordpools/wasnorm_wordpool.txt	LTP134	ltpFR	6	6	1	MASCARA	875	n/a	n/a	0	0.422607421875	0.5869140625	0	upper	amplitud.ttf
951295	WORD	wordpools/wasnorm_wordpool.txt	LTP134	ltpFR	6	6	1	FRECKLE	602	n/a	n/a	0	0.422607421875	0.5869140625	0	upper	amplitud.ttf
955502	WORD	wordpools/wasnorm_wordpool.txt	LTP134	ltpFR	6	6	1	DOVE	491	n/a	n/a	0	0.422607421875	0.5869140625	0	upper	amplitud.ttf
959651	WORD	wordpools/wasnorm_wordpool.txt	LTP134	ltpFR	6	6	1	CEILING	265	n/a	n/a	0	0.422607421875	0.5869140625	0	upper	amplitud.ttf
963691	WORD	wordpools/wasnorm_wordpool.txt	LTP134	ltpFR	6	6	1	JELLY	755	n/a	n/a	0	0.422607421875	0.5869140625	0	upper	amplitud.ttf
967640	WORD	wordpools/wasnorm_wordpool.txt	LTP134	ltpFR	6	6	1	MUSTARD	935	n/a	n/a	0	0.422607421875	0.5869140625	0	upper	amplitud.ttf
971596	WORD	wordpools/wasnorm_wordpool.txt	LTP134	ltpFR	6	6	1	DILL	465	n/a	n/a	0	0.422607421875	0.5869140625	0	upper	amplitud.ttf
975803	WORD	wordpools/wasnorm_wordpool.txt	LTP134	ltpFR	6	6	1	PENNY	1045	n/a	n/a	0	0.422607421875	0.5869140625	0	upper	amplitud.ttf
979952	WORD	wordpools/wasnorm_wordpool.txt	LTP134	ltpFR	6	6	1	TUNNEL	1519	n/a	n/a	0	0.422607421875	0.5869140625	0	upper	amplitud.ttf
985934	REC_START	n/a	LTP134	ltpFR	6	6	n/a	n/a	n/a	n/a	n/a	n/a	n/a	n/a	n/a	n/a	n/a
988278	REC_WORD	wordpools/wasnorm_wordpool.txt	LTP134	ltpFR	6	6	1	PENNY	1045	n/a	n/a	0	n/a	n/a	n/a	n/a	n/a
989915	REC_WORD	wordpools/wasnorm_wordpool.txt	LTP134	ltpFR	6	6	1	TUNNEL	1519	n/a	n/a	0	n/a	n/a	n/a	n/a	n/a
993382	REC_WORD	wordpools/wasnorm_wordpool.txt	LTP134	ltpFR	6	6	1	DILL	465	n/a	n/a	0	n/a	n/a	n/a	n/a	n/a
995781	REC_WORD	wordpools/wasnorm_wordpool.txt	LTP134	ltpFR	6	6	1	MUSTARD	935	n/a	n/a	0	n/a	n/a	n/a	n/a	n/a
997567	REC_WORD	wordpools/wasnorm_wordpool.txt	LTP134	ltpFR	6	6	1	JELLY	755	n/a	n/a	0	n/a	n/a	n/a	n/a	n/a
999323	REC_WORD	wordpools/wasnorm_wordpool.txt	LTP134	ltpFR	6	6	1	CEILING	265	n/a	n/a	0	n/a	n/a	n/a	n/a	n/a
1001548	REC_WORD	wordpools/wasnorm_wordpool.txt	LTP134	ltpFR	6	6	1	MASCARA	875	n/a	n/a	0	n/a	n/a	n/a	n/a	n/a
1003773	REC_WORD	wordpools/wasnorm_wordpool.txt	LTP134	ltpFR	6	6	1	DOVE	491	n/a	n/a	0	n/a	n/a	n/a	n/a	n/a
1006138	REC_WORD	wordpools/wasnorm_wordpool.txt	LTP134	ltpFR	6	6	1	CARAVAN	242	n/a	n/a	0	n/a	n/a	n/a	n/a	n/a
1009844	REC_WORD	wordpools/wasnorm_wordpool.txt	LTP134	ltpFR	6	6	1	FUGITIVE	612	n/a	n/a	1	n/a	n/a	n/a	n/a	n/a
1089813	WORD	wordpools/wasnorm_wordpool.txt	LTP134	ltpFR	6	7	1	CHIPMUNK	304	n/a	n/a	1	0.422607421875	0.5869140625	0	upper	amplitud.ttf
1093820	WORD	wordpools/wasnorm_wordpool.txt	LTP134	ltpFR	6	7	1	SLUG	1329	n/a	n/a	1	0.422607421875	0.5869140625	0	upper	amplitud.ttf
1097802	WORD	wordpools/wasnorm_wordpool.txt	LTP134	ltpFR	6	7	0	MILDEW	893	n/a	n/a	0	0.57763671875	0.412841796875	1	lower	zerothre.ttf
1101783	WORD	wordpools/wasnorm_wordpool.txt	LTP134	ltpFR	6	7	0	BUYER	208	n/a	n/a	1	0.57763671875	0.412841796875	1	lower	zerothre.ttf
1105624	WORD	wordpools/wasnorm_wordpool.txt	LTP134	ltpFR	6	7	0	ACORN	3	n/a	n/a	0	0.57763671875	0.412841796875	1	lower	zerothre.ttf
1109631	WORD	wordpools/wasnorm_wordpool.txt	LTP134	ltpFR	6	7	0	BUSH	202	n/a	n/a	1	0.57763671875	0.412841796875	1	lower	zerothre.ttf
1113471	WORD	wordpools/wasnorm_wordpool.txt	LTP134	ltpFR	6	7	1	ANCHOR	21	n/a	n/a	0	0.422607421875	0.5869140625	0	upper	amplitud.ttf
1117445	WORD	wordpools/wasnorm_wordpool.txt	LTP134	ltpFR	6	7	1	PORT	1110	n/a	n/a	0	0.422607421875	0.5869140625	0	upper	amplitud.ttf
1121626	WORD	wordpools/wasnorm_wordpool.txt	LTP134	ltpFR	6	7	1	KIDNEY	776	n/a	n/a	1	0.422607421875	0.5869140625	0	upper	amplitud.ttf
1125508	WORD	wordpools/wasnorm_wordpool.txt	LTP134	ltpFR	6	7	1	BOUQUET	157	n/a	n/a	0	0.422607421875	0.5869140625	0	upper	amplitud.ttf
1129682	WORD	wordpools/wasnorm_wordpool.txt	LTP134	ltpFR	6	7	1	SERGEANT	1269	n/a	n/a	1	0.422607421875	0.5869140625	0	upper	amplitud.ttf
1133672	WORD	wordpools/wasnorm_wordpool.txt	LTP134	ltpFR	6	7	1	CREATURE	403	n/a	n/a	1	0.422607421875	0.5869140625	0	upper	amplitud.ttf
1137554	WORD	wordpools/wasnorm_wordpool.txt	LTP134	ltpFR	6	7	0	VEIN	1554	n/a	n/a	0	0.57763671875	0.412841796875	1	lower	zerothre.ttf
1141519	WORD	wordpools/wasnorm_wordpool.txt	LTP134	ltpFR	6	7	0	SCOUT	1252	n/a	n/a	1	0.57763671875	0.412841796875	1	lower	zerothre.ttf
1145718	WORD	wordpools/wasnorm_wordpool.txt	LTP134	ltpFR	6	7	0	TRUCK	1512	n/a	n/a	1	0.57763671875	0.412841796875	1	lower	zerothre.ttf
1149716	WORD	wordpools/wasnorm_wordpool.txt	LTP134	ltpFR	6	7	0	LIPSTICK	829	n/a	n/a	0	0.57763671875	0.412841796875	1	lower	zerothre.ttf
1155715	REC_START	n/a	LTP134	ltpFR	6	7	n/a	n/a	n/a	n/a	n/a	n/a	n/a	n/a	n/a	n/a	n/a
1158459	REC_WORD	wordpools/wasnorm_wordpool.txt	LTP134	ltpFR	6	7	0	LIPSTICK	829	n/a	n/a	0	n/a	n/a	n/a	n/a	n/a
1161626	REC_WORD	wordpools/wasnorm_wordpool.txt	LTP134	ltpFR	6	7	n/a	TRUNK	-1	n/a	n/a	n/a	n/a	n/a	n/a	n/a	n/a
1162963	REC_WORD	wordpools/wasnorm_wordpool.txt	LTP134	ltpFR	6	7	0	TRUCK	1512	n/a	n/a	1	n/a	n/a	n/a	n/a	n/a
1169603	REC_WORD	wordpools/wasnorm_wordpool.txt	LTP134	ltpFR	6	7	1	SLUG	1329	n/a	n/a	1	n/a	n/a	n/a	n/a	n/a
1171449	REC_WORD	wordpools/wasnorm_wordpool.txt	LTP134	ltpFR	6	7	1	CHIPMUNK	304	n/a	n/a	1	n/a	n/a	n/a	n/a	n/a
1173125	REC_WORD	wordpools/wasnorm_wordpool.txt	LTP134	ltpFR	6	7	0	MILDEW	893	n/a	n/a	0	n/a	n/a	n/a	n/a	n/a
1175565	REC_WORD	wordpools/wasnorm_wordpool.txt	LTP134	ltpFR	6	7	0	BUYER	208	n/a	n/a	1	n/a	n/a	n/a	n/a	n/a
1260602	WORD	wordpools/wasnorm_wordpool.txt	LTP134	ltpFR	6	8	0	CEREAL	272	n/a	n/a	1	0.57763671875	0.412841796875	1	lower	zerothre.ttf
1264767	WORD	wordpools/wasnorm_wordpool.txt	LTP134	ltpFR	6	8	0	BUTTERFLY	206	n/a	n/a	0	0.57763671875	0.412841796875	1	lower	zerothre.ttf
1268816	WORD	wordpools/wasnorm_wordpool.txt	LTP134	ltpFR	6	8	0	SCREEN	1253	n/a	n/a	1	0.57763671875	0.412841796875	1	lower	zerothre.ttf
1272631	WORD	wordpools/wasnorm_wordpool.txt	LTP134	ltpFR	6	8	0	BARN	89	n/a	n/a	1	0.57763671875	0.412841796875	1	lower	zerothre.ttf
1276446	WORD	wordpools/wasnorm_wordpool.txt	LTP134	ltpFR	6	8	0	CARRIAGE	248	n/a	n/a	1	0.57763671875	0.412841796875	1	lower	zerothre.ttf
1280453	WORD	wordpools/wasnorm_wordpool.txt	LTP134	ltpFR	6	8	0	MAN	862	n/a	n/a	1	0.57763671875	0.412841796875	1	lower	zerothre.ttf
1284610	WORD	wordpools/wasnorm_wordpool.txt	LTP134	ltpFR	6	8	0	SHOE	1288	n/a	n/a	0	0.57763671875	0.412841796875	1	lower	zerothre.ttf
1288492	WORD	wordpools/wasnorm_wordpool.txt	LTP134	ltpFR	6	8	0	SHOELACE	1289	n/a	n/a	0	0.57763671875	0.412841796875	1	lower	zerothre.ttf
1292424	WORD	wordpools/wasnorm_wordpool.txt	LTP134	ltpFR	6	8	0	SALESMAN	1225	n/a	n/a	1	0.57763671875	0.412841796875	1	lower	zerothre.ttf
1296323	WORD	wordpools/wasnorm_wordpool.txt	LTP134	ltpFR	6	8	0	GLOVE	642	n/a	n/a	0	0.57763671875	0.412841796875	1	lower	zerothre.ttf
1300238	WORD	wordpools/wasnorm_wordpool.txt	LTP134	ltpFR	6	8	0	BEAN	105	n/a	n/a	0	0.57763671875	0.412841796875	1	lower	zerothre.ttf
1304087	WORD	wordpools/wasnorm_wordpool.txt	LTP134	ltpFR	6	8	0	MEADOW	881	n/a	n/a	1	0.57763671875	0.412841796875	1	lower	zerothre.ttf
1308252	WORD	wordpools/wasnorm_wordpool.txt	LTP134	ltpFR	6	8	0	PEARL	1034	n/a	n/a	0	0.57763671875	0.412841796875	1	lower	zerothre.ttf
1312342	WORD	wordpools/wasnorm_wordpool.txt	LTP134	ltpFR	6	8	0	WEB	1598	n/a	n/a	0	0.57763671875	0.412841796875	1	lower	zerothre.ttf
1316299	WORD	wordpools/wasnorm_wordpool.txt	LTP134	ltpFR	6	8	0	FIST	572	n/a	n/a	0	0.57763671875	0.412841796875	1	lower	zerothre.ttf
1320347	WORD	wordpools/wasnorm_wordpool.txt	LTP134	ltpFR	6	8	0	LADY	794	n/a	n/a	0	0.57763671875	0.412841796875	1	lower	zerothre.ttf
1326138	REC_START	n/a	LTP134	ltpFR	6	8	n/a	n/a	n/a	n/a	n/a	n/a	n/a	n/a	n/a	n/a	n/a
1328911	REC_WORD	wordpools/wasnorm_wordpool.txt	LTP134	ltpFR	6	8	0	WEB	1598	n/a	n/a	0	n/a	n/a	n/a	n/a	n/a
1330438	REC_WORD	wordpools/wasnorm_wordpool.txt	LTP134	ltpFR	6	8	0	FIST	572	n/a	n/a	0	n/a	n/a	n/a	n/a	n/a
1332394	REC_WORD	wordpools/wasnorm_wordpool.txt	LTP134	ltpFR	6	8	0	LADY	794	n/a	n/a	0	n/a	n/a	n/a	n/a	n/a
1334728	REC_WORD	wordpools/wasnorm_wordpool.txt	LTP134	ltpFR	6	8	0	MEADOW	881	n/a	n/a	1	n/a	n/a	n/a	n/a	n/a
1339393	REC_WORD	wordpools/wasnorm_wordpool.txt	LTP134	ltpFR	6	8	0	CARRIAGE	248	n/a	n/a	1	n/a	n/a	n/a	n/a	n/a
1341154	REC_WORD	wordpools/wasnorm_wordpool.txt	LTP134	ltpFR	6	8	0	MAN	862	n/a	n/a	1	n/a	n/a	n/a	n/a	n/a
1356643	REC_WORD	wordpools/wasnorm_wordpool.txt	LTP134	ltpFR	6	8	0	BUTTERFLY	206	n/a	n/a	0	n/a	n/a	n/a	n/a	n/a
1358504	REC_WORD	wordpools/wasnorm_wordpool.txt	LTP134	ltpFR	6	8	0	SCREEN	1253	n/a	n/a	1	n/a	n/a	n/a	n/a	n/a
1362695	REC_WORD	wordpools/wasnorm_wordpool.txt	LTP134	ltpFR	6	8	0	BARN	89	n/a	n/a	1	n/a	n/a	n/a	n/a	n/a
1363946	REC_WORD	wordpools/wasnorm_wordpool.txt	LTP134	ltpFR	6	8	n/a	FARM	552	n/a	n/a	n/a	n/a	n/a	n/a	n/a	n/a
1370651	REC_WORD	wordpools/wasnorm_wordpool.txt	LTP134	ltpFR	6	8	0	CEREAL	272	n/a	n/a	1	n/a	n/a	n/a	n/a	n/a
1412706	WORD	wordpools/wasnorm_wordpool.txt	LTP134	ltpFR	6	9	0	EWE	542	n/a	n/a	1	0.57763671875	0.412841796875	1	lower	zerothre.ttf
1416755	WORD	wordpools/wasnorm_wordpool.txt	LTP134	ltpFR	6	9	0	TRAY	1498	n/a	n/a	1	0.57763671875	0.412841796875	1	lower	zerothre.ttf
1420837	WORD	wordpools/wasnorm_wordpool.txt	LTP134	ltpFR	6	9	0	ANT	25	n/a	n/a	0	0.57763671875	0.412841796875	1	lower	zerothre.ttf
1424877	WORD	wordpools/wasnorm_wordpool.txt	LTP134	ltpFR	6	9	0	COMPASS	358	n/a	n/a	0	0.57763671875	0.412841796875	1	lower	zerothre.ttf
1428867	WORD	wordpools/wasnorm_wordpool.txt	LTP134	ltpFR	6	9	1	KITCHEN	778	n/a	n/a	0	0.422607421875	0.5869140625	0	upper	amplitud.ttf
1432991	WORD	wordpools/wasnorm_wordpool.txt	LTP134	ltpFR	6	9	1	MINK	897	n/a	n/a	0	0.422607421875	0.5869140625	0	upper	amplitud.ttf
1436939	WORD	wordpools/wasnorm_wordpool.txt	LTP134	ltpFR	6	9	1	PEBBLE	1035	n/a	n/a	0	0.422607421875	0.5869140625	0	upper	amplitud.ttf
1441088	WORD	wordpools/wasnorm_wordpool.txt	LTP134	ltpFR	6	9	0	ARROW	40	n/a	n/a	1	0.57763671875	0.412841796875	1	lower	zerothre.ttf
1444978	WORD	wordpools/wasnorm_wordpool.txt	LTP134	ltpFR	6	9	0	LOFT	840	n/a	n/a	1	0.57763671875	0.412841796875	1	lower	zerothre.ttf
1449052	WORD	wordpools/wasnorm_wordpool.txt	LTP134	ltpFR	6	9	1	MANSION	864	n/a	n/a	0	0.422607421875	0.5869140625	0	upper	amplitud.ttf
1453084	WORD	wordpools/wasnorm_wordpool.txt	LTP134	ltpFR	6	9	1	TURNIP	1521	n/a	n/a	1	0.422607421875	0.5869140625	0	upper	amplitud.ttf
1457041	WORD	wordpools/wasnorm_wordpool.txt	LTP134	ltpFR	6	9	1	GOOSE	649	n/a	n/a	1	0.422607421875	0.5869140625	0	upper	amplitud.ttf
1460922	WORD	wordpools/wasnorm_wordpool.txt	LTP134	ltpFR	6	9	1	DUCK	504	n/a	n/a	1	0.422607421875	0.5869140625	0	upper	amplitud.ttf
1464829	WORD	wordpools/wasnorm_wordpool.txt	LTP134	ltpFR	6	9	1	DISH	474	n/a	n/a	0	0.422607421875	0.5869140625	0	upper	amplitud.ttf
1468895	WORD	wordpools/wasnorm_wordpool.txt	LTP134	ltpFR	6	9	0	SILVERWARE	1308	n/a	n/a	0	0.57763671875	0.412841796875	1	lower	zerothre.ttf
1472977	WORD	wordpools/wasnorm_wordpool.txt	LTP134	ltpFR	6	9	0	SHEEP	1278	n/a	n/a	1	0.57763671875	0.412841796875	1	lower	zerothre.ttf
1478858	REC_START	n/a	LTP134	ltpFR	6	9	n/a	n/a	n/a	n/a	n/a	n/a	n/a	n/a	n/a	n/a	n/a
1482460	REC_WORD	wordpools/wasnorm_wordpool.txt	LTP134	ltpFR	6	9	0	SHEEP	1278	n/a	n/a	1	n/a	n/a	n/a	n/a	n/a
1496727	REC_WORD	wordpools/wasnorm_wordpool.txt	LTP134	ltpFR	6	9	0	LOFT	840	n/a	n/a	1	n/a	n/a	n/a	n/a	n/a
1498533	REC_WORD	wordpools/wasnorm_wordpool.txt	LTP134	ltpFR	6	9	0	TRAY	1498	n/a	n/a	1	n/a	n/a	n/a	n/a	n/a
1501062	REC_WORD	wordpools/wasnorm_wordpool.txt	LTP134	ltpFR	6	9	0	ANT	25	n/a	n/a	0	n/a	n/a	n/a	n/a	n/a
1502838	REC_WORD	wordpools/wasnorm_wordpool.txt	LTP134	ltpFR	6	9	0	COMPASS	358	n/a	n/a	0	n/a	n/a	n/a	n/a	n/a
1507488	REC_WORD	wordpools/wasnorm_wordpool.txt	LTP134	ltpFR	6	9	0	ARROW	40	n/a	n/a	1	n/a	n/a	n/a	n/a	n/a
1515375	REC_WORD	wordpools/wasnorm_wordpool.txt	LTP134	ltpFR	6	9	1	MANSION	864	n/a	n/a	0	n/a	n/a	n/a	n/a	n/a
1523671	REC_WORD	wordpools/wasnorm_wordpool.txt	LTP134	ltpFR	6	9	1	DISH	474	n/a	n/a	0	n/a	n/a	n/a	n/a	n/a
1529343	REC_WORD	wordpools/wasnorm_wordpool.txt	LTP134	ltpFR	6	9	1	KITCHEN	778	n/a	n/a	0	n/a	n/a	n/a	n/a	n/a
1563161	WORD	wordpools/wasnorm_wordpool.txt	LTP134	ltpFR	6	10	1	QUARTER	1148	n/a	n/a	0	0.422607421875	0.5869140625	0	upper	amplitud.ttf
1567185	WORD	wordpools/wasnorm_wordpool.txt	LTP134	ltpFR	6	10	1	FOSSIL	596	n/a	n/a	0	0.422607421875	0.5869140625	0	upper	amplitud.ttf
1571058	WORD	wordpools/wasnorm_wordpool.txt	LTP134	ltpFR	6	10	1	DINOSAUR	469	n/a	n/a	0	0.422607421875	0.5869140625	0	upper	amplitud.ttf
1575107	WORD	wordpools/wasnorm_wordpool.txt	LTP134	ltpFR	6	10	1	BULLY	196	n/a	n/a	0	0.422607421875	0.5869140625	0	upper	amplitud.ttf
1579214	WORD	wordpools/wasnorm_wordpool.txt	LTP134	ltpFR	6	10	0	STAPLE	1371	n/a	n/a	0	0.57763671875	0.412841796875	1	lower	zerothre.ttf
1583254	WORD	wordpools/wasnorm_wordpool.txt	LTP134	ltpFR	6	10	0	MECHANIC	884	n/a	n/a	1	0.57763671875	0.412841796875	1	lower	zerothre.ttf
1587169	WORD	wordpools/wasnorm_wordpool.txt	LTP134	ltpFR	6	10	0	VICTOR	1563	n/a	n/a	1	0.57763671875	0.412841796875	1	lower	zerothre.ttf
1591193	WORD	wordpools/wasnorm_wordpool.txt	LTP134	ltpFR	6	10	1	BONE	148	n/a	n/a	2	0.422607421875	0.5869140625	0	upper	amplitud.ttf
1593134	KEY_MSG	n/a	LTP134	ltpFR	6	10	n/a	n/a	n/a	n/a	n/a	n/a	n/a	n/a	n/a	n/a	n/a
1595841	WORD	wordpools/wasnorm_wordpool.txt	LTP134	ltpFR	6	10	1	PAWN	1030	n/a	n/a	0	0.422607421875	0.5869140625	0	upper	amplitud.ttf
1599715	WORD	wordpools/wasnorm_wordpool.txt	LTP134	ltpFR	6	10	0	BOMB	147	n/a	n/a	1	0.57763671875	0.412841796875	1	lower	zerothre.ttf
1603872	WORD	wordpools/wasnorm_wordpool.txt	LTP134	ltpFR	6	10	0	ERASER	538	n/a	n/a	0	0.57763671875	0.412841796875	1	lower	zerothre.ttf
1607687	WORD	wordpools/wasnorm_wordpool.txt	LTP134	ltpFR	6	10	0	PAPER	1011	n/a	n/a	0	0.57763671875	0.412841796875	1	lower	zerothre.ttf
1611710	WORD	wordpools/wasnorm_wordpool.txt	LTP134	ltpFR	6	10	0	CRAB	397	n/a	n/a	1	0.57763671875	0.412841796875	1	lower	zerothre.ttf
1615909	WORD	wordpools/wasnorm_wordpool.txt	LTP134	ltpFR	6	10	0	CLAM	315	n/a	n/a	1	0.57763671875	0.412841796875	1	lower	zerothre.ttf
1620041	WORD	wordpools/wasnorm_wordpool.txt	LTP134	ltpFR	6	10	1	MARROW	872	n/a	n/a	0	0.422607421875	0.5869140625	0	upper	amplitud.ttf
1624156	WORD	wordpools/wasnorm_wordpool.txt	LTP134	ltpFR	6	10	1	GANG	619	n/a	n/a	0	0.422607421875	0.5869140625	0	upper	amplitud.ttf
1629838	REC_START	n/a	LTP134	ltpFR	6	10	n/a	n/a	n/a	n/a	n/a	n/a	n/a	n/a	n/a	n/a	n/a
1631709	REC_WORD	wordpools/wasnorm_wordpool.txt	LTP134	ltpFR	6	10	1	MARROW	872	n/a	n/a	0	n/a	n/a	n/a	n/a	n/a
1633654	REC_WORD	wordpools/wasnorm_wordpool.txt	LTP134	ltpFR	6	10	1	GANG	619	n/a	n/a	0	n/a	n/a	n/a	n/a	n/a
1635999	REC_WORD	wordpools/wasnorm_wordpool.txt	LTP134	ltpFR	6	10	1	PAWN	1030	n/a	n/a	0	n/a	n/a	n/a	n/a	n/a
1638363	REC_WORD	wordpools/wasnorm_wordpool.txt	LTP134	ltpFR	6	10	0	PAPER	1011	n/a	n/a	0	n/a	n/a	n/a	n/a	n/a
1640613	REC_WORD	wordpools/wasnorm_wordpool.txt	LTP134	ltpFR	6	10	0	ERASER	538	n/a	n/a	0	n/a	n/a	n/a	n/a	n/a
1643696	REC_WORD	wordpools/wasnorm_wordpool.txt	LTP134	ltpFR	6	10	0	BOMB	147	n/a	n/a	1	n/a	n/a	n/a	n/a	n/a
1745971	WORD	wordpools/wasnorm_wordpool.txt	LTP134	ltpFR	6	11	-1	UNIVERSITY	1541	n/a	n/a	-1	1.0	1.0	1	upper	Verdana.ttf
1750003	WORD	wordpools/wasnorm_wordpool.txt	LTP134	ltpFR	6	11	-1	PUPIL	1143	n/a	n/a	-1	1.0	1.0	1	upper	Verdana.ttf
1753927	WORD	wordpools/wasnorm_wordpool.txt	LTP134	ltpFR	6	11	-1	PEACH	1031	n/a	n/a	-1	1.0	1.0	1	upper	Verdana.ttf
1757984	WORD	wordpools/wasnorm_wordpool.txt	LTP134	ltpFR	6	11	-1	BERRY	122	n/a	n/a	-1	1.0	1.0	1	upper	Verdana.ttf
1761824	WORD	wordpools/wasnorm_wordpool.txt	LTP134	ltpFR	6	11	-1	WAITER	1580	n/a	n/a	-1	1.0	1.0	1	upper	Verdana.ttf
1765672	WORD	wordpools/wasnorm_wordpool.txt	LTP134	ltpFR	6	11	-1	PIGMENT	1066	n/a	n/a	-1	1.0	1.0	1	upper	Verdana.ttf
1769488	WORD	wordpools/wasnorm_wordpool.txt	LTP134	ltpFR	6	11	-1	SALMON	1227	n/a	n/a	-1	1.0	1.0	1	upper	Verdana.ttf
1773645	WORD	wordpools/wasnorm_wordpool.txt	LTP134	ltpFR	6	11	-1	TUB	1514	n/a	n/a	-1	1.0	1.0	1	upper	Verdana.ttf
1777751	WORD	wordpools/wasnorm_wordpool.txt	LTP134	ltpFR	6	11	-1	GRAVEL	659	n/a	n/a	-1	1.0	1.0	1	upper	Verdana.ttf
1781733	WORD	wordpools/wasnorm_wordpool.txt	LTP134	ltpFR	6	11	-1	DUST	508	n/a	n/a	-1	1.0	1.0	1	upper	Verdana.ttf
1785549	WORD	wordpools/wasnorm_wordpool.txt	LTP134	ltpFR	6	11	-1	SQUID	1361	n/a	n/a	-1	1.0	1.0	1	upper	Verdana.ttf
1789656	WORD	wordpools/wasnorm_wordpool.txt	LTP134	ltpFR	6	11	-1	MICROWAVE	892	n/a	n/a	-1	1.0	1.0	1	upper	Verdana.ttf
1793504	WORD	wordpools/wasnorm_wordpool.txt	LTP134	ltpFR	6	11	-1	GRATE	657	n/a	n/a	-1	1.0	1.0	1	upper	Verdana.ttf
1797445	WORD	wordpools/wasnorm_wordpool.txt	LTP134	ltpFR	6	11	-1	PIER	1063	n/a	n/a	-1	1.0	1.0	1	upper	Verdana.ttf
1801268	WORD	wordpools/wasnorm_wordpool.txt	LTP134	ltpFR	6	11	-1	RELISH	1183	n/a	n/a	-1	1.0	1.0	1	upper	Verdana.ttf
1805183	WORD	wordpools/wasnorm_wordpool.txt	LTP134	ltpFR	6	11	-1	SACK	1220	n/a	n/a	-1	1.0	1.0	1	upper	Verdana.ttf
1811082	REC_START	n/a	LTP134	ltpFR	6	11	n/a	n/a	n/a	n/a	n/a	n/a	n/a	n/a	n/a	n/a	n/a
1813446	REC_WORD	wordpools/wasnorm_wordpool.txt	LTP134	ltpFR	6	11	-1	PIER	1063	n/a	n/a	-1	n/a	n/a	n/a	n/a	n/a
1815143	REC_WORD	wordpools/wasnorm_wordpool.txt	LTP134	ltpFR	6	11	-1	RELISH	1183	n/a	n/a	-1	n/a	n/a	n/a	n/a	n/a
1817616	REC_WORD	wordpools/wasnorm_wordpool.txt	LTP134	ltpFR	6	11	-1	SACK	1220	n/a	n/a	-1	n/a	n/a	n/a	n/a	n/a
1821378	REC_WORD	wordpools/wasnorm_wordpool.txt	LTP134	ltpFR	6	11	-1	SQUID	1361	n/a	n/a	-1	n/a	n/a	n/a	n/a	n/a
1823065	REC_WORD	wordpools/wasnorm_wordpool.txt	LTP134	ltpFR	6	11	-1	MICROWAVE	892	n/a	n/a	-1	n/a	n/a	n/a	n/a	n/a
1825704	REC_WORD	wordpools/wasnorm_wordpool.txt	LTP134	ltpFR	6	11	-1	TUB	1514	n/a	n/a	-1	n/a	n/a	n/a	n/a	n/a
1827579	REC_WORD	wordpools/wasnorm_wordpool.txt	LTP134	ltpFR	6	11	-1	WAITER	1580	n/a	n/a	-1	n/a	n/a	n/a	n/a	n/a
1831570	REC_WORD	wordpools/wasnorm_wordpool.txt	LTP134	ltpFR	6	11	-1	PEACH	1031	n/a	n/a	-1	n/a	n/a	n/a	n/a	n/a
1836803	REC_WORD	wordpools/wasnorm_wordpool.txt	LTP134	ltpFR	6	11	-1	BERRY	122	n/a	n/a	-1	n/a	n/a	n/a	n/a	n/a
1838195	REC_WORD	wordpools/wasnorm_wordpool.txt	LTP134	ltpFR	6	11	n/a	BLUEBERRY	140	n/a	n/a	n/a	n/a	n/a	n/a	n/a	n/a
1843917	REC_WORD	wordpools/wasnorm_wordpool.txt	LTP134	ltpFR	6	11	-1	SALMON	1227	n/a	n/a	-1	n/a	n/a	n/a	n/a	n/a
1893794	WORD	wordpools/wasnorm_wordpool.txt	LTP134	ltpFR	6	12	-1	SHELTER	1282	n/a	n/a	-1	1.0	1.0	1	upper	Verdana.ttf
1897792	WORD	wordpools/wasnorm_wordpool.txt	LTP134	ltpFR	6	12	-1	VILLAGE	1566	n/a	n/a	-1	1.0	1.0	1	upper	Verdana.ttf
1901674	WORD	wordpools/wasnorm_wordpool.txt	LTP134	ltpFR	6	12	-1	LINT	826	n/a	n/a	-1	1.0	1.0	1	upper	Verdana.ttf
1905556	WORD	wordpools/wasnorm_wordpool.txt	LTP134	ltpFR	6	12	-1	TRENCH	1503	n/a	n/a	-1	1.0	1.0	1	upper	Verdana.ttf
1909663	WORD	wordpools/wasnorm_wordpool.txt	LTP134	ltpFR	6	12	-1	FLASHLIGHT	575	n/a	n/a	-1	1.0	1.0	1	upper	Verdana.ttf
1913553	WORD	wordpools/wasnorm_wordpool.txt	LTP134	ltpFR	6	12	-1	STREET	1393	n/a	n/a	-1	1.0	1.0	1	upper	Verdana.ttf
1917735	WORD	wordpools/wasnorm_wordpool.txt	LTP134	ltpFR	6	12	-1	BED	110	n/a	n/a	-1	1.0	1.0	1	upper	Verdana.ttf
1921784	WORD	wordpools/wasnorm_wordpool.txt	LTP134	ltpFR	6	12	-1	GRAPE	654	n/a	n/a	-1	1.0	1.0	1	upper	Verdana.ttf
1925707	WORD	wordpools/wasnorm_wordpool.txt	LTP134	ltpFR	6	12	-1	NEST	945	n/a	n/a	-1	1.0	1.0	1	upper	Verdana.ttf
1929914	WORD	wordpools/wasnorm_wordpool.txt	LTP134	ltpFR	6	12	-1	LIME	823	n/a	n/a	-1	1.0	1.0	1	upper	Verdana.ttf
1933938	WORD	wordpools/wasnorm_wordpool.txt	LTP134	ltpFR	6	12	-1	TABLE	1426	n/a	n/a	-1	1.0	1.0	1	upper	Verdana.ttf
1937961	WORD	wordpools/wasnorm_wordpool.txt	LTP134	ltpFR	6	12	-1	STOOL	1386	n/a	n/a	-1	1.0	1.0	1	upper	Verdana.ttf
1941918	WORD	wordpools/wasnorm_wordpool.txt	LTP134	ltpFR	6	12	-1	CUCUMBER	421	n/a	n/a	-1	1.0	1.0	1	upper	Verdana.ttf
1945783	WORD	wordpools/wasnorm_wordpool.txt	LTP134	ltpFR	6	12	-1	RUNNER	1218	n/a	n/a	-1	1.0	1.0	1	upper	Verdana.ttf
1949599	WORD	wordpools/wasnorm_wordpool.txt	LTP134	ltpFR	6	12	-1	PICK	1058	n/a	n/a	-1	1.0	1.0	1	upper	Verdana.ttf
1953697	WORD	wordpools/wasnorm_wordpool.txt	LTP134	ltpFR	6	12	-1	PERCH	1048	n/a	n/a	-1	1.0	1.0	1	upper	Verdana.ttf
1959479	REC_START	n/a	LTP134	ltpFR	6	12	n/a	n/a	n/a	n/a	n/a	n/a	n/a	n/a	n/a	n/a	n/a
1961529	REC_WORD	wordpools/wasnorm_wordpool.txt	LTP134	ltpFR	6	12	-1	PERCH	1048	n/a	n/a	-1	n/a	n/a	n/a	n/a	n/a
1964078	REC_WORD	wordpools/wasnorm_wordpool.txt	LTP134	ltpFR	6	12	-1	TABLE	1426	n/a	n/a	-1	n/a	n/a	n/a	n/a	n/a
1965869	REC_WORD	wordpools/wasnorm_wordpool.txt	LTP134	ltpFR	6	12	-1	STOOL	1386	n/a	n/a	-1	n/a	n/a	n/a	n/a	n/a
1971900	REC_WORD	wordpools/wasnorm_wordpool.txt	LTP134	ltpFR	6	12	n/a	FRIEND	606	n/a	n/a	n/a	n/a	n/a	n/a	n/a	n/a
2035060	REST_REWET	n/a	LTP134	ltpFR	6	12	n/a	n/a	n/a	n/a	n/a	n/a	n/a	n/a	n/a	n/a	n/a
2446889	WORD	wordpools/wasnorm_wordpool.txt	LTP134	ltpFR	6	13	1	SNORKEL	1336	n/a	n/a	0	0.422607421875	0.5869140625	0	upper	amplitud.ttf
2450729	WORD	wordpools/wasnorm_wordpool.txt	LTP134	ltpFR	6	13	1	CORAL	378	n/a	n/a	0	0.422607421875	0.5869140625	0	upper	amplitud.ttf
2454852	WORD	wordpools/wasnorm_wordpool.txt	LTP134	ltpFR	6	13	1	MANAGER	863	n/a	n/a	1	0.422607421875	0.5869140625	0	upper	amplitud.ttf
2458709	WORD	wordpools/wasnorm_wordpool.txt	LTP134	ltpFR	6	13	1	NOMAD	955	n/a	n/a	1	0.422607421875	0.5869140625	0	upper	amplitud.ttf
2462575	WORD	wordpools/wasnorm_wordpool.txt	LTP134	ltpFR	6	13	1	ICEBERG	731	n/a	n/a	0	0.422607421875	0.5869140625	0	upper	amplitud.ttf
2466557	WORD	wordpools/wasnorm_wordpool.txt	LTP134	ltpFR	6	13	1	SCREWDRIVER	1255	n/a	n/a	0	0.422607421875	0.5869140625	0	upper	amplitud.ttf
2470613	WORD	wordpools/wasnorm_wordpool.txt	LTP134	ltpFR	6	13	1	STOMACH	1384	n/a	n/a	0	0.422607421875	0.5869140625	0	upper	amplitud.ttf
2474520	WORD	wordpools/wasnorm_wordpool.txt	LTP134	ltpFR	6	13	1	SKELETON	1314	n/a	n/a	0	0.422607421875	0.5869140625	0	upper	amplitud.ttf
2478627	WORD	wordpools/wasnorm_wordpool.txt	LTP134	ltpFR	6	13	1	SUPERVISOR	1410	n/a	n/a	1	0.422607421875	0.5869140625	0	upper	amplitud.ttf
2482717	WORD	wordpools/wasnorm_wordpool.txt	LTP134	ltpFR	6	13	1	BLANKET	135	n/a	n/a	0	0.422607421875	0.5869140625	0	upper	amplitud.ttf
2486608	WORD	wordpools/wasnorm_wordpool.txt	LTP134	ltpFR	6	13	1	PILLOW	1069	n/a	n/a	0	0.422607421875	0.5869140625	0	upper	amplitud.ttf
2490690	WORD	wordpools/wasnorm_wordpool.txt	LTP134	ltpFR	6	13	1	MATTRESS	879	n/a	n/a	0	0.422607421875	0.5869140625	0	upper	amplitud.ttf
2494846	WORD	wordpools/wasnorm_wordpool.txt	LTP134	ltpFR	6	13	1	HUMAN	726	n/a	n/a	1	0.422607421875	0.5869140625	0	upper	amplitud.ttf
2498662	WORD	wordpools/wasnorm_wordpool.txt	LTP134	ltpFR	6	13	1	VEAL	1551	n/a	n/a	0	0.422607421875	0.5869140625	0	upper	amplitud.ttf
2502760	WORD	wordpools/wasnorm_wordpool.txt	LTP134	ltpFR	6	13	1	COMB	351	n/a	n/a	0	0.422607421875	0.5869140625	0	upper	amplitud.ttf
2506851	WORD	wordpools/wasnorm_wordpool.txt	LTP134	ltpFR	6	13	1	TOMB	1477	n/a	n/a	0	0.422607421875	0.5869140625	0	upper	amplitud.ttf
2512866	REC_START	n/a	LTP134	ltpFR	6	13	n/a	n/a	n/a	n/a	n/a	n/a	n/a	n/a	n/a	n/a	n/a
2515205	REC_WORD	wordpools/wasnorm_wordpool.txt	LTP134	ltpFR	6	13	1	COMB	351	n/a	n/a	0	n/a	n/a	n/a	n/a	n/a
2516877	REC_WORD	wordpools/wasnorm_wordpool.txt	LTP134	ltpFR	6	13	1	TOMB	1477	n/a	n/a	0	n/a	n/a	n/a	n/a	n/a
2520513	REC_WORD	wordpools/wasnorm_wordpool.txt	LTP134	ltpFR	6	13	1	SNORKEL	1336	n/a	n/a	0	n/a	n/a	n/a	n/a	n/a
2523322	REC_WORD	wordpools/wasnorm_wordpool.txt	LTP134	ltpFR	6	13	1	CORAL	378	n/a	n/a	0	n/a	n/a	n/a	n/a	n/a
2527268	REC_WORD	wordpools/wasnorm_wordpool.txt	LTP134	ltpFR	6	13	1	MANAGER	863	n/a	n/a	1	n/a	n/a	n/a	n/a	n/a
2529917	REC_WORD	wordpools/wasnorm_wordpool.txt	LTP134	ltpFR	6	13	1	NOMAD	955	n/a	n/a	1	n/a	n/a	n/a	n/a	n/a
2532875	REC_WORD	wordpools/wasnorm_wordpool.txt	LTP134	ltpFR	6	13	1	ICEBERG	731	n/a	n/a	0	n/a	n/a	n/a	n/a	n/a
2535698	REC_WORD	wordpools/wasnorm_wordpool.txt	LTP134	ltpFR	6	13	1	SCREWDRIVER	1255	n/a	n/a	0	n/a	n/a	n/a	n/a	n/a
2536698	REC_WORD_VV	wordpools/wasnorm_wordpool.txt	LTP134	ltpFR	6	13	n/a	<>	-1	n/a	n/a	n/a	n/a	n/a	n/a	n/a	n/a
2538173	REC_WORD	wordpools/wasnorm_wordpool.txt	LTP134	ltpFR	6	13	1	SKELETON	1314	n/a	n/a	0	n/a	n/a	n/a	n/a	n/a
2540023	REC_WORD	wordpools/wasnorm_wordpool.txt	LTP134	ltpFR	6	13	1	STOMACH	1384	n/a	n/a	0	n/a	n/a	n/a	n/a	n/a
2543461	REC_WORD	wordpools/wasnorm_wordpool.txt	LTP134	ltpFR	6	13	1	SUPERVISOR	1410	n/a	n/a	1	n/a	n/a	n/a	n/a	n/a
2544461	REC_WORD_VV	wordpools/wasnorm_wordpool.txt	LTP134	ltpFR	6	13	n/a	<>	-1	n/a	n/a	n/a	n/a	n/a	n/a	n/a	n/a
2546350	REC_WORD	wordpools/wasnorm_wordpool.txt	LTP134	ltpFR	6	13	1	BLANKET	135	n/a	n/a	0	n/a	n/a	n/a	n/a	n/a
2547756	REC_WORD	wordpools/wasnorm_wordpool.txt	LTP134	ltpFR	6	13	1	PILLOW	1069	n/a	n/a	0	n/a	n/a	n/a	n/a	n/a
2550390	REC_WORD	wordpools/wasnorm_wordpool.txt	LTP134	ltpFR	6	13	1	MATTRESS	879	n/a	n/a	0	n/a	n/a	n/a	n/a	n/a
2553154	REC_WORD	wordpools/wasnorm_wordpool.txt	LTP134	ltpFR	6	13	1	VEAL	1551	n/a	n/a	0	n/a	n/a	n/a	n/a	n/a
2558951	REC_WORD	wordpools/wasnorm_wordpool.txt	LTP134	ltpFR	6	13	1	COMB	351	n/a	n/a	0	n/a	n/a	n/a	n/a	n/a
2593636	WORD	wordpools/wasnorm_wordpool.txt	LTP134	ltpFR	6	14	0	STICKER	1382	n/a	n/a	0	0.57763671875	0.412841796875	1	lower	zerothre.ttf
2597727	WORD	wordpools/wasnorm_wordpool.txt	LTP134	ltpFR	6	14	0	SHEET	1279	n/a	n/a	0	0.57763671875	0.412841796875	1	lower	zerothre.ttf
2601817	WORD	wordpools/wasnorm_wordpool.txt	LTP134	ltpFR	6	14	0	SWITCH	1422	n/a	n/a	0	0.57763671875	0.412841796875	1	lower	zerothre.ttf
2605632	WORD	wordpools/wasnorm_wordpool.txt	LTP134	ltpFR	6	14	0	BROOK	177	n/a	n/a	1	0.57763671875	0.412841796875	1	lower	zerothre.ttf
2609764	WORD	wordpools/wasnorm_wordpool.txt	LTP134	ltpFR	6	14	0	PLUMBER	1091	n/a	n/a	1	0.57763671875	0.412841796875	1	lower	zerothre.ttf
2613746	WORD	wordpools/wasnorm_wordpool.txt	LTP134	ltpFR	6	14	0	GOWN	652	n/a	n/a	1	0.57763671875	0.412841796875	1	lower	zerothre.ttf
2617869	WORD	wordpools/wasnorm_wordpool.txt	LTP134	ltpFR	6	14	0	PERMIT	1051	n/a	n/a	1	0.57763671875	0.412841796875	1	lower	zerothre.ttf
2621968	WORD	wordpools/wasnorm_wordpool.txt	LTP134	ltpFR	6	14	0	STAPLER	1372	n/a	n/a	0	0.57763671875	0.412841796875	1	lower	zerothre.ttf
2625800	WORD	wordpools/wasnorm_wordpool.txt	LTP134	ltpFR	6	14	0	BASKET	95	n/a	n/a	1	0.57763671875	0.412841796875	1	lower	zerothre.ttf
2629824	WORD	wordpools/wasnorm_wordpool.txt	LTP134	ltpFR	6	14	0	COD	340	n/a	n/a	0	0.57763671875	0.412841796875	1	lower	zerothre.ttf
2633705	WORD	wordpools/wasnorm_wordpool.txt	LTP134	ltpFR	6	14	0	PANTHER	1009	n/a	n/a	1	0.57763671875	0.412841796875	1	lower	zerothre.ttf
2637521	WORD	wordpools/wasnorm_wordpool.txt	LTP134	ltpFR	6	14	0	PAW	1029	n/a	n/a	1	0.57763671875	0.412841796875	1	lower	zerothre.ttf
2641528	WORD	wordpools/wasnorm_wordpool.txt	LTP134	ltpFR	6	14	0	PEPPER	1047	n/a	n/a	0	0.57763671875	0.412841796875	1	lower	zerothre.ttf
2645643	WORD	wordpools/wasnorm_wordpool.txt	LTP134	ltpFR	6	14	0	SPOOL	1356	n/a	n/a	0	0.57763671875	0.412841796875	1	lower	zerothre.ttf
2649650	WORD	wordpools/wasnorm_wordpool.txt	LTP134	ltpFR	6	14	0	NEEDLE	941	n/a	n/a	0	0.57763671875	0.412841796875	1	lower	zerothre.ttf
2653548	WORD	wordpools/wasnorm_wordpool.txt	LTP134	ltpFR	6	14	0	CLOTHES	327	n/a	n/a	1	0.57763671875	0.412841796875	1	lower	zerothre.ttf
2659389	REC_START	n/a	LTP134	ltpFR	6	14	n/a	n/a	n/a	n/a	n/a	n/a	n/a	n/a	n/a	n/a	n/a
2661149	REC_WORD	wordpools/wasnorm_wordpool.txt	LTP134	ltpFR	6	14	0	SPOOL	1356	n/a	n/a	0	n/a	n/a	n/a	n/a	n/a
2663030	REC_WORD	wordpools/wasnorm_wordpool.txt	LTP134	ltpFR	6	14	0	NEEDLE	941	n/a	n/a	0	n/a	n/a	n/a	n/a	n/a
2664696	REC_WORD	wordpools/wasnorm_wordpool.txt	LTP134	ltpFR	6	14	0	CLOTHES	327	n/a	n/a	1	n/a	n/a	n/a	n/a	n/a
2666577	REC_WORD	wordpools/wasnorm_wordpool.txt	LTP134	ltpFR	6	14	0	BASKET	95	n/a	n/a	1	n/a	n/a	n/a	n/a	n/a
2668628	REC_WORD	wordpools/wasnorm_wordpool.txt	LTP134	ltpFR	6	14	0	COD	340	n/a	n/a	0	n/a	n/a	n/a	n/a	n/a
2670948	REC_WORD	wordpools/wasnorm_wordpool.txt	LTP134	ltpFR	6	14	0	PEPPER	1047	n/a	n/a	0	n/a	n/a	n/a	n/a	n/a
2673053	REC_WORD	wordpools/wasnorm_wordpool.txt	LTP134	ltpFR	6	14	0	PANTHER	1009	n/a	n/a	1	n/a	n/a	n/a	n/a	n/a
2675068	REC_WORD	wordpools/wasnorm_wordpool.txt	LTP134	ltpFR	6	14	0	PAW	1029	n/a	n/a	1	n/a	n/a	n/a	n/a	n/a
2680895	REC_WORD	wordpools/wasnorm_wordpool.txt	LTP134	ltpFR	6	14	0	PLUMBER	1091	n/a	n/a	1	n/a	n/a	n/a	n/a	n/a
2683170	REC_WORD	wordpools/wasnorm_wordpool.txt	LTP134	ltpFR	6	14	0	PERMIT	1051	n/a	n/a	1	n/a	n/a	n/a	n/a	n/a
2702640	REC_WORD	wordpools/wasnorm_wordpool.txt	LTP134	ltpFR	6	14	0	STICKER	1382	n/a	n/a	0	n/a	n/a	n/a	n/a	n/a
2704002	REC_WORD	wordpools/wasnorm_wordpool.txt	LTP134	ltpFR	6	14	0	SHEET	1279	n/a	n/a	0	n/a	n/a	n/a	n/a	n/a
2708018	REC_WORD	wordpools/wasnorm_wordpool.txt	LTP134	ltpFR	6	14	0	MEADOW	881	n/a	n/a	1	n/a	n/a	n/a	n/a	n/a
2711136	REC_WORD	wordpools/wasnorm_wordpool.txt	LTP134	ltpFR	6	14	0	SWITCH	1422	n/a	n/a	0	n/a	n/a	n/a	n/a	n/a
2740501	WORD	wordpools/wasnorm_wordpool.txt	LTP134	ltpFR	6	15	0	ARCHITECT	36	n/a	n/a	1	0.57763671875	0.412841796875	1	lower	zerothre.ttf
2744599	WORD	wordpools/wasnorm_wordpool.txt	LTP134	ltpFR	6	15	0	BLUEPRINT	142	n/a	n/a	1	0.57763671875	0.412841796875	1	lower	zerothre.ttf
2748556	WORD	wordpools/wasnorm_wordpool.txt	LTP134	ltpFR	6	15	0	CRITIC	410	n/a	n/a	1	0.57763671875	0.412841796875	1	lower	zerothre.ttf
2752671	WORD	wordpools/wasnorm_wordpool.txt	LTP134	ltpFR	6	15	0	GUEST	669	n/a	n/a	1	0.57763671875	0.412841796875	1	lower	zerothre.ttf
2756612	WORD	wordpools/wasnorm_wordpool.txt	LTP134	ltpFR	6	15	0	SHRIMP	1297	n/a	n/a	0	0.57763671875	0.412841796875	1	lower	zerothre.ttf
2760502	WORD	wordpools/wasnorm_wordpool.txt	LTP134	ltpFR	6	15	0	MARKET	871	n/a	n/a	1	0.57763671875	0.412841796875	1	lower	zerothre.ttf
2764509	WORD	wordpools/wasnorm_wordpool.txt	LTP134	ltpFR	6	15	1	PEN	1041	n/a	n/a	0	0.422607421875	0.5869140625	0	upper	amplitud.ttf
2768582	WORD	wordpools/wasnorm_wordpool.txt	LTP134	ltpFR	6	15	1	CHEERLEADER	288	n/a	n/a	1	0.422607421875	0.5869140625	0	upper	amplitud.ttf
2772756	WORD	wordpools/wasnorm_wordpool.txt	LTP134	ltpFR	6	15	1	ASSOCIATE	49	n/a	n/a	1	0.422607421875	0.5869140625	0	upper	amplitud.ttf
2776929	WORD	wordpools/wasnorm_wordpool.txt	LTP134	ltpFR	6	15	1	WHEEL	1603	n/a	n/a	0	0.422607421875	0.5869140625	0	upper	amplitud.ttf
2780920	WORD	wordpools/wasnorm_wordpool.txt	LTP134	ltpFR	6	15	0	GARAGE	621	n/a	n/a	1	0.57763671875	0.412841796875	1	lower	zerothre.ttf
2784752	WORD	wordpools/wasnorm_wordpool.txt	LTP134	ltpFR	6	15	0	DUNE	506	n/a	n/a	1	0.57763671875	0.412841796875	1	lower	zerothre.ttf
2788825	WORD	wordpools/wasnorm_wordpool.txt	LTP134	ltpFR	6	15	1	BLUEBERRY	140	n/a	n/a	1	0.422607421875	0.5869140625	0	upper	amplitud.ttf
2792674	WORD	wordpools/wasnorm_wordpool.txt	LTP134	ltpFR	6	15	1	KNOT	788	n/a	n/a	0	0.422607421875	0.5869140625	0	upper	amplitud.ttf
2796564	WORD	wordpools/wasnorm_wordpool.txt	LTP134	ltpFR	6	15	1	MARKER	870	n/a	n/a	0	0.422607421875	0.5869140625	0	upper	amplitud.ttf
2800529	WORD	wordpools/wasnorm_wordpool.txt	LTP134	ltpFR	6	15	1	MEAT	883	n/a	n/a	0	0.422607421875	0.5869140625	0	upper	amplitud.ttf
2806428	REC_START	n/a	LTP134	ltpFR	6	15	n/a	n/a	n/a	n/a	n/a	n/a	n/a	n/a	n/a	n/a	n/a
2808558	REC_WORD	wordpools/wasnorm_wordpool.txt	LTP134	ltpFR	6	15	1	MARKER	870	n/a	n/a	0	n/a	n/a	n/a	n/a	n/a
2810035	REC_WORD	wordpools/wasnorm_wordpool.txt	LTP134	ltpFR	6	15	1	MEAT	883	n/a	n/a	0	n/a	n/a	n/a	n/a	n/a
2814065	REC_WORD	wordpools/wasnorm_wordpool.txt	LTP134	ltpFR	6	15	0	GARAGE	621	n/a	n/a	1	n/a	n/a	n/a	n/a	n/a
2816285	REC_WORD	wordpools/wasnorm_wordpool.txt	LTP134	ltpFR	6	15	0	DUNE	506	n/a	n/a	1	n/a	n/a	n/a	n/a	n/a
2825290	REC_WORD	wordpools/wasnorm_wordpool.txt	LTP134	ltpFR	6	15	1	BLUEBERRY	140	n/a	n/a	1	n/a	n/a	n/a	n/a	n/a
2831351	REC_WORD	wordpools/wasnorm_wordpool.txt	LTP134	ltpFR	6	15	0	ARCHITECT	36	n/a	n/a	1	n/a	n/a	n/a	n/a	n/a
2833222	REC_WORD	wordpools/wasnorm_wordpool.txt	LTP134	ltpFR	6	15	0	BLUEPRINT	142	n/a	n/a	1	n/a	n/a	n/a	n/a	n/a
2837901	REC_WORD	wordpools/wasnorm_wordpool.txt	LTP134	ltpFR	6	15	1	ASSOCIATE	49	n/a	n/a	1	n/a	n/a	n/a	n/a	n/a
2841279	REC_WORD	wordpools/wasnorm_wordpool.txt	LTP134	ltpFR	6	15	1	CHEERLEADER	288	n/a	n/a	1	n/a	n/a	n/a	n/a	n/a
2843189	REC_WORD	wordpools/wasnorm_wordpool.txt	LTP134	ltpFR	6	15	1	WHEEL	1603	n/a	n/a	0	n/a	n/a	n/a	n/a	n/a
2851026	REC_WORD	wordpools/wasnorm_wordpool.txt	LTP134	ltpFR	6	15	0	GUEST	669	n/a	n/a	1	n/a	n/a	n/a	n/a	n/a
2853855	REC_WORD	wordpools/wasnorm_wordpool.txt	LTP134	ltpFR	6	15	0	SHRIMP	1297	n/a	n/a	0	n/a	n/a	n/a	n/a	n/a
2857003	REC_WORD	wordpools/wasnorm_wordpool.txt	LTP134	ltpFR	6	15	1	PEN	1041	n/a	n/a	0	n/a	n/a	n/a	n/a	n/a
2861313	REC_WORD	wordpools/wasnorm_wordpool.txt	LTP134	ltpFR	6	15	0	MARKET	871	n/a	n/a	1	n/a	n/a	n/a	n/a	n/a
2975817	WORD	wordpools/wasnorm_wordpool.txt	LTP134	ltpFR	6	16	-1	FARM	552	n/a	n/a	-1	1.0	1.0	1	upper	Verdana.ttf
2980032	WORD	wordpools/wasnorm_wordpool.txt	LTP134	ltpFR	6	16	-1	PHYSICIAN	1056	n/a	n/a	-1	1.0	1.0	1	upper	Verdana.ttf
2984131	WORD	wordpools/wasnorm_wordpool.txt	LTP134	ltpFR	6	16	-1	SPRINKLE	1359	n/a	n/a	-1	1.0	1.0	1	upper	Verdana.ttf
2988204	WORD	wordpools/wasnorm_wordpool.txt	LTP134	ltpFR	6	16	-1	KNEE	784	n/a	n/a	-1	1.0	1.0	1	upper	Verdana.ttf
2992045	WORD	wordpools/wasnorm_wordpool.txt	LTP134	ltpFR	6	16	-1	BILL	126	n/a	n/a	-1	1.0	1.0	1	upper	Verdana.ttf
2996052	WORD	wordpools/wasnorm_wordpool.txt	LTP134	ltpFR	6	16	-1	DIME	466	n/a	n/a	-1	1.0	1.0	1	upper	Verdana.ttf
3000208	WORD	wordpools/wasnorm_wordpool.txt	LTP134	ltpFR	6	16	-1	CAT	257	n/a	n/a	-1	1.0	1.0	1	upper	Verdana.ttf
3004390	WORD	wordpools/wasnorm_wordpool.txt	LTP134	ltpFR	6	16	-1	MAILMAN	858	n/a	n/a	-1	1.0	1.0	1	upper	Verdana.ttf
3008322	WORD	wordpools/wasnorm_wordpool.txt	LTP134	ltpFR	6	16	-1	CHIMPANZEE	302	n/a	n/a	-1	1.0	1.0	1	upper	Verdana.ttf
3012512	WORD	wordpools/wasnorm_wordpool.txt	LTP134	ltpFR	6	16	-1	CHEDDAR	286	n/a	n/a	-1	1.0	1.0	1	upper	Verdana.ttf
3016469	WORD	wordpools/wasnorm_wordpool.txt	LTP134	ltpFR	6	16	-1	RESORT	1186	n/a	n/a	-1	1.0	1.0	1	upper	Verdana.ttf
3020493	WORD	wordpools/wasnorm_wordpool.txt	LTP134	ltpFR	6	16	-1	HAYSTACK	694	n/a	n/a	-1	1.0	1.0	1	upper	Verdana.ttf
3024408	WORD	wordpools/wasnorm_wordpool.txt	LTP134	ltpFR	6	16	-1	HAIL	676	n/a	n/a	-1	1.0	1.0	1	upper	Verdana.ttf
3028465	WORD	wordpools/wasnorm_wordpool.txt	LTP134	ltpFR	6	16	-1	THIGH	1457	n/a	n/a	-1	1.0	1.0	1	upper	Verdana.ttf
3032664	WORD	wordpools/wasnorm_wordpool.txt	LTP134	ltpFR	6	16	-1	WATER	1594	n/a	n/a	-1	1.0	1.0	1	upper	Verdana.ttf
3036579	WORD	wordpools/wasnorm_wordpool.txt	LTP134	ltpFR	6	16	-1	SINK	1309	n/a	n/a	-1	1.0	1.0	1	upper	Verdana.ttf
3042294	REC_START	n/a	LTP134	ltpFR	6	16	n/a	n/a	n/a	n/a	n/a	n/a	n/a	n/a	n/a	n/a	n/a
3044438	REC_WORD	wordpools/wasnorm_wordpool.txt	LTP134	ltpFR	6	16	-1	FARM	552	n/a	n/a	-1	n/a	n/a	n/a	n/a	n/a
3045935	REC_WORD	wordpools/wasnorm_wordpool.txt	LTP134	ltpFR	6	16	-1	PHYSICIAN	1056	n/a	n/a	-1	n/a	n/a	n/a	n/a	n/a
3047841	REC_WORD	wordpools/wasnorm_wordpool.txt	LTP134	ltpFR	6	16	-1	SPRINKLE	1359	n/a	n/a	-1	n/a	n/a	n/a	n/a	n/a
3049936	REC_WORD	wordpools/wasnorm_wordpool.txt	LTP134	ltpFR	6	16	-1	KNEE	784	n/a	n/a	-1	n/a	n/a	n/a	n/a	n/a
3051837	REC_WORD	wordpools/wasnorm_wordpool.txt	LTP134	ltpFR	6	16	-1	BILL	126	n/a	n/a	-1	n/a	n/a	n/a	n/a	n/a
3053828	REC_WORD	wordpools/wasnorm_wordpool.txt	LTP134	ltpFR	6	16	-1	DIME	466	n/a	n/a	-1	n/a	n/a	n/a	n/a	n/a
3056008	REC_WORD	wordpools/wasnorm_wordpool.txt	LTP134	ltpFR	6	16	-1	CAT	257	n/a	n/a	-1	n/a	n/a	n/a	n/a	n/a
3057724	REC_WORD	wordpools/wasnorm_wordpool.txt	LTP134	ltpFR	6	16	-1	MAILMAN	858	n/a	n/a	-1	n/a	n/a	n/a	n/a	n/a
3059679	REC_WORD	wordpools/wasnorm_wordpool.txt	LTP134	ltpFR	6	16	-1	CHIMPANZEE	302	n/a	n/a	-1	n/a	n/a	n/a	n/a	n/a
3062273	REC_WORD	wordpools/wasnorm_wordpool.txt	LTP134	ltpFR	6	16	-1	CHEDDAR	286	n/a	n/a	-1	n/a	n/a	n/a	n/a	n/a
3063975	REC_WORD	wordpools/wasnorm_wordpool.txt	LTP134	ltpFR	6	16	-1	RESORT	1186	n/a	n/a	-1	n/a	n/a	n/a	n/a	n/a
3070584	REC_WORD	wordpools/wasnorm_wordpool.txt	LTP134	ltpFR	6	16	-1	HAYSTACK	694	n/a	n/a	-1	n/a	n/a	n/a	n/a	n/a
3072380	REC_WORD	wordpools/wasnorm_wordpool.txt	LTP134	ltpFR	6	16	-1	HAIL	676	n/a	n/a	-1	n/a	n/a	n/a	n/a	n/a
3074615	REC_WORD	wordpools/wasnorm_wordpool.txt	LTP134	ltpFR	6	16	-1	THIGH	1457	n/a	n/a	-1	n/a	n/a	n/a	n/a	n/a
3076326	REC_WORD	wordpools/wasnorm_wordpool.txt	LTP134	ltpFR	6	16	-1	WATER	1594	n/a	n/a	-1	n/a	n/a	n/a	n/a	n/a
3078112	REC_WORD	wordpools/wasnorm_wordpool.txt	LTP134	ltpFR	6	16	-1	SINK	1309	n/a	n/a	-1	n/a	n/a	n/a	n/a	n/a
3147524	REC_START	n/a	LTP134	ltpFR	6	1	n/a	n/a	n/a	n/a	n/a	n/a	n/a	n/a	n/a	n/a	n/a
3147556	RECOG_TARGET	n/a	LTP134	ltpFR	6	1	0	SCREEN	1253	1	1	1	n/a	n/a	n/a	n/a	n/a
3149325	RECOG_RESP	n/a	LTP134	ltpFR	6	1	0	SCREEN	1253	1	n/a	1	n/a	n/a	n/a	n/a	n/a
3150824	RECOG_CONF	n/a	LTP134	ltpFR	6	1	0	SCREEN	1253	n/a	1	1	n/a	n/a	n/a	n/a	n/a
3152446	RECOG_LURE	n/a	LTP134	ltpFR	6	1	n/a	CLIPPERS	324	0	1	n/a	n/a	n/a	n/a	n/a	n/a
3153459	RECOG_RESP	n/a	LTP134	ltpFR	6	1	n/a	CLIPPERS	324	0	n/a	n/a	n/a	n/a	n/a	n/a	n/a
3154857	RECOG_CONF	n/a	LTP134	ltpFR	6	1	n/a	CLIPPERS	324	n/a	1	n/a	n/a	n/a	n/a	n/a	n/a
3156495	RECOG_TARGET	n/a	LTP134	ltpFR	6	1	1	DICTATOR	462	1	3	1	n/a	n/a	n/a	n/a	n/a
3157532	RECOG_RESP	n/a	LTP134	ltpFR	6	1	1	DICTATOR	462	1	n/a	1	n/a	n/a	n/a	n/a	n/a
3158728	RECOG_CONF	n/a	LTP134	ltpFR	6	1	1	DICTATOR	462	n/a	3	1	n/a	n/a	n/a	n/a	n/a
3160376	RECOG_TARGET	n/a	LTP134	ltpFR	6	1	1	GALAXY	617	1	3	0	n/a	n/a	n/a	n/a	n/a
3161081	RECOG_RESP	n/a	LTP134	ltpFR	6	1	1	GALAXY	617	1	n/a	0	n/a	n/a	n/a	n/a	n/a
3162143	RECOG_CONF	n/a	LTP134	ltpFR	6	1	1	GALAXY	617	n/a	3	0	n/a	n/a	n/a	n/a	n/a
3163909	RECOG_LURE	n/a	LTP134	ltpFR	6	1	n/a	JOINT	758	0	3	n/a	n/a	n/a	n/a	n/a	n/a
3165213	RECOG_RESP	n/a	LTP134	ltpFR	6	1	n/a	JOINT	758	0	n/a	n/a	n/a	n/a	n/a	n/a	n/a
3166417	RECOG_CONF	n/a	LTP134	ltpFR	6	1	n/a	JOINT	758	n/a	3	n/a	n/a	n/a	n/a	n/a	n/a
3168099	RECOG_LURE	n/a	LTP134	ltpFR	6	1	n/a	VACUUM	1543	0	2	n/a	n/a	n/a	n/a	n/a	n/a
3169001	RECOG_RESP	n/a	LTP134	ltpFR	6	1	n/a	VACUUM	1543	0	n/a	n/a	n/a	n/a	n/a	n/a	n/a
3170042	RECOG_CONF	n/a	LTP134	ltpFR	6	1	n/a	VACUUM	1543	n/a	2	n/a	n/a	n/a	n/a	n/a	n/a
3171731	RECOG_TARGET	n/a	LTP134	ltpFR	6	1	1	MEAT	883	1	3	0	n/a	n/a	n/a	n/a	n/a
3172543	RECOG_RESP	n/a	LTP134	ltpFR	6	1	1	MEAT	883	1	n/a	0	n/a	n/a	n/a	n/a	n/a
3173543	RECOG_CONF	n/a	LTP134	ltpFR	6	1	1	MEAT	883	n/a	3	0	n/a	n/a	n/a	n/a	n/a
3175321	RECOG_TARGET	n/a	LTP134	ltpFR	6	1	-1	HAT	690	1	3	-1	n/a	n/a	n/a	n/a	n/a
3176090	RECOG_RESP	n/a	LTP134	ltpFR	6	1	-1	HAT	690	1	n/a	-1	n/a	n/a	n/a	n/a	n/a
3177072	RECOG_CONF	n/a	LTP134	ltpFR	6	1	-1	HAT	690	n/a	3	-1	n/a	n/a	n/a	n/a	n/a
3178762	RECOG_TARGET	n/a	LTP134	ltpFR	6	1	1	SCREWDRIVER	1255	1	3	0	n/a	n/a	n/a	n/a	n/a
3179676	RECOG_RESP	n/a	LTP134	ltpFR	6	1	1	SCREWDRIVER	1255	1	n/a	0	n/a	n/a	n/a	n/a	n/a
3180678	RECOG_CONF	n/a	LTP134	ltpFR	6	1	1	SCREWDRIVER	1255	n/a	3	0	n/a	n/a	n/a	n/a	n/a
3182460	RECOG_LURE	n/a	LTP134	ltpFR	6	1	n/a	THESAURUS	1454	0	3	n/a	n/a	n/a	n/a	n/a	n/a
3183448	RECOG_RESP	n/a	LTP134	ltpFR	6	1	n/a	THESAURUS	1454	0	n/a	n/a	n/a	n/a	n/a	n/a	n/a
3184436	RECOG_CONF	n/a	LTP134	ltpFR	6	1	n/a	THESAURUS	1454	n/a	3	n/a	n/a	n/a	n/a	n/a	n/a
3186192	RECOG_LURE	n/a	LTP134	ltpFR	6	1	n/a	CURTAIN	427	0	1	n/a	n/a	n/a	n/a	n/a	n/a
3187441	RECOG_RESP	n/a	LTP134	ltpFR	6	1	n/a	CURTAIN	427	0	n/a	n/a	n/a	n/a	n/a	n/a	n/a
3188470	RECOG_CONF	n/a	LTP134	ltpFR	6	1	n/a	CURTAIN	427	n/a	1	n/a	n/a	n/a	n/a	n/a	n/a
3190233	RECOG_TARGET	n/a	LTP134	ltpFR	6	1	0	COMPASS	358	1	4	0	n/a	n/a	n/a	n/a	n/a
3190961	RECOG_RESP	n/a	LTP134	ltpFR	6	1	0	COMPASS	358	1	n/a	0	n/a	n/a	n/a	n/a	n/a
3191748	RECOG_CONF	n/a	LTP134	ltpFR	6	1	0	COMPASS	358	n/a	4	0	n/a	n/a	n/a	n/a	n/a
3193548	RECOG_TARGET	n/a	LTP134	ltpFR	6	1	1	BUFFALO	186	1	3	1	n/a	n/a	n/a	n/a	n/a
3194487	RECOG_RESP	n/a	LTP134	ltpFR	6	1	1	BUFFALO	186	1	n/a	1	n/a	n/a	n/a	n/a	n/a
3195423	RECOG_CONF	n/a	LTP134	ltpFR	6	1	1	BUFFALO	186	n/a	3	1	n/a	n/a	n/a	n/a	n/a
3197205	RECOG_TARGET	n/a	LTP134	ltpFR	6	1	0	CRAB	397	1	1	1	n/a	n/a	n/a	n/a	n/a
3198170	RECOG_RESP	n/a	LTP134	ltpFR	6	1	0	CRAB	397	1	n/a	1	n/a	n/a	n/a	n/a	n/a
3199371	RECOG_CONF	n/a	LTP134	ltpFR	6	1	0	CRAB	397	n/a	1	1	n/a	n/a	n/a	n/a	n/a
3201020	RECOG_TARGET	n/a	LTP134	ltpFR	6	1	0	MOVIE	927	1	3	1	n/a	n/a	n/a	n/a	n/a
3202954	RECOG_RESP	n/a	LTP134	ltpFR	6	1	0	MOVIE	927	1	n/a	1	n/a	n/a	n/a	n/a	n/a
3204237	RECOG_CONF	n/a	LTP134	ltpFR	6	1	0	MOVIE	927	n/a	3	1	n/a	n/a	n/a	n/a	n/a
3205810	RECOG_TARGET	n/a	LTP134	ltpFR	6	1	1	TURTLE	1522	1	3	1	n/a	n/a	n/a	n/a	n/a
3206500	RECOG_RESP	n/a	LTP134	ltpFR	6	1	1	TURTLE	1522	1	n/a	1	n/a	n/a	n/a	n/a	n/a
3207567	RECOG_CONF	n/a	LTP134	ltpFR	6	1	1	TURTLE	1522	n/a	3	1	n/a	n/a	n/a	n/a	n/a
3209226	RECOG_TARGET	n/a	LTP134	ltpFR	6	1	-1	STAR	1373	1	4	-1	n/a	n/a	n/a	n/a	n/a
3210167	RECOG_RESP	n/a	LTP134	ltpFR	6	1	-1	STAR	1373	1	n/a	-1	n/a	n/a	n/a	n/a	n/a
3211094	RECOG_CONF	n/a	LTP134	ltpFR	6	1	-1	STAR	1373	n/a	4	-1	n/a	n/a	n/a	n/a	n/a
3212891	RECOG_LURE	n/a	LTP134	ltpFR	6	1	n/a	LIP	828	0	2	n/a	n/a	n/a	n/a	n/a	n/a
3213964	RECOG_RESP	n/a	LTP134	ltpFR	6	1	n/a	LIP	828	0	n/a	n/a	n/a	n/a	n/a	n/a	n/a
3215077	RECOG_CONF	n/a	LTP134	ltpFR	6	1	n/a	LIP	828	n/a	2	n/a	n/a	n/a	n/a	n/a	n/a
3216632	RECOG_LURE	n/a	LTP134	ltpFR	6	1	n/a	VASE	1549	0	2	n/a	n/a	n/a	n/a	n/a	n/a
3217473	RECOG_RESP	n/a	LTP134	ltpFR	6	1	n/a	VASE	1549	0	n/a	n/a	n/a	n/a	n/a	n/a	n/a
3218495	RECOG_CONF	n/a	LTP134	ltpFR	6	1	n/a	VASE	1549	n/a	2	n/a	n/a	n/a	n/a	n/a	n/a
3220122	RECOG_TARGET	n/a	LTP134	ltpFR	6	1	1	BULLY	196	1	3	0	n/a	n/a	n/a	n/a	n/a
3221000	RECOG_RESP	n/a	LTP134	ltpFR	6	1	1	BULLY	196	1	n/a	0	n/a	n/a	n/a	n/a	n/a
3222027	RECOG_CONF	n/a	LTP134	ltpFR	6	1	1	BULLY	196	n/a	3	0	n/a	n/a	n/a	n/a	n/a
3228157	REC_START	n/a	LTP134	ltpFR	6	2	n/a	n/a	n/a	n/a	n/a	n/a	n/a	n/a	n/a	n/a	n/a
3228194	RECOG_LURE	n/a	LTP134	ltpFR	6	2	n/a	PALM	1007	0	1	n/a	n/a	n/a	n/a	n/a	n/a
3229249	RECOG_RESP_VV	n/a	LTP134	ltpFR	6	2	n/a	PALM	1007	0	n/a	n/a	n/a	n/a	n/a	n/a	n/a
3230420	RECOG_RESP	n/a	LTP134	ltpFR	6	2	n/a	PALM	1007	0	n/a	n/a	n/a	n/a	n/a	n/a	n/a
3231645	RECOG_CONF	n/a	LTP134	ltpFR	6	2	n/a	PALM	1007	n/a	1	n/a	n/a	n/a	n/a	n/a	n/a
3233251	RECOG_TARGET	n/a	LTP134	ltpFR	6	2	0	LIPSTICK	829	1	3	0	n/a	n/a	n/a	n/a	n/a
3234321	RECOG_RESP	n/a	LTP134	ltpFR	6	2	0	LIPSTICK	829	1	n/a	0	n/a	n/a	n/a	n/a	n/a
3235387	RECOG_CONF	n/a	LTP134	ltpFR	6	2	0	LIPSTICK	829	n/a	3	0	n/a	n/a	n/a	n/a	n/a
3237016	RECOG_TARGET	n/a	LTP134	ltpFR	6	2	1	BUILDING	191	0	2	0	n/a	n/a	n/a	n/a	n/a
3238757	RECOG_RESP	n/a	LTP134	ltpFR	6	2	1	BUILDING	191	0	n/a	0	n/a	n/a	n/a	n/a	n/a
3239861	RECOG_CONF	n/a	LTP134	ltpFR	6	2	1	BUILDING	191	n/a	2	0	n/a	n/a	n/a	n/a	n/a
3241589	RECOG_TARGET	n/a	LTP134	ltpFR	6	2	1	CEILING	265	1	3	0	n/a	n/a	n/a	n/a	n/a
3242438	RECOG_RESP	n/a	LTP134	ltpFR	6	2	1	CEILING	265	1	n/a	0	n/a	n/a	n/a	n/a	n/a
3243427	RECOG_CONF	n/a	LTP134	ltpFR	6	2	1	CEILING	265	n/a	3	0	n/a	n/a	n/a	n/a	n/a
3245038	RECOG_TARGET	n/a	LTP134	ltpFR	6	2	0	DUNE	506	1	4	1	n/a	n/a	n/a	n/a	n/a
3245918	RECOG_RESP	n/a	LTP134	ltpFR	6	2	0	DUNE	506	1	n/a	1	n/a	n/a	n/a	n/a	n/a
3246769	RECOG_CONF	n/a	LTP134	ltpFR	6	2	0	DUNE	506	n/a	4	1	n/a	n/a	n/a	n/a	n/a
3248562	RECOG_TARGET	n/a	LTP134	ltpFR	6	2	1	DILL	465	1	2	0	n/a	n/a	n/a	n/a	n/a
3249718	RECOG_RESP	n/a	LTP134	ltpFR	6	2	1	DILL	465	1	n/a	0	n/a	n/a	n/a	n/a	n/a
3250901	RECOG_CONF	n/a	LTP134	ltpFR	6	2	1	DILL	465	n/a	2	0	n/a	n/a	n/a	n/a	n/a
3252727	RECOG_TARGET	n/a	LTP134	ltpFR	6	2	1	FOSSIL	596	1	3	0	n/a	n/a	n/a	n/a	n/a
3253512	RECOG_RESP	n/a	LTP134	ltpFR	6	2	1	FOSSIL	596	1	n/a	0	n/a	n/a	n/a	n/a	n/a
3254644	RECOG_CONF	n/a	LTP134	ltpFR	6	2	1	FOSSIL	596	n/a	3	0	n/a	n/a	n/a	n/a	n/a
3256292	RECOG_TARGET	n/a	LTP134	ltpFR	6	2	1	QUILL	1150	1	3	0	n/a	n/a	n/a	n/a	n/a
3257066	RECOG_RESP	n/a	LTP134	ltpFR	6	2	1	QUILL	1150	1	n/a	0	n/a	n/a	n/a	n/a	n/a
3258064	RECOG_CONF	n/a	LTP134	ltpFR	6	2	1	QUILL	1150	n/a	3	0	n/a	n/a	n/a	n/a	n/a
3259733	RECOG_TARGET	n/a	LTP134	ltpFR	6	2	1	ASSOCIATE	49	1	4	1	n/a	n/a	n/a	n/a	n/a
3260709	RECOG_RESP	n/a	LTP134	ltpFR	6	2	1	ASSOCIATE	49	1	n/a	1	n/a	n/a	n/a	n/a	n/a
3261521	RECOG_CONF	n/a	LTP134	ltpFR	6	2	1	ASSOCIATE	49	n/a	4	1	n/a	n/a	n/a	n/a	n/a
3263298	RECOG_TARGET	n/a	LTP134	ltpFR	6	2	0	LADY	794	1	2	0	n/a	n/a	n/a	n/a	n/a
3264494	RECOG_RESP	n/a	LTP134	ltpFR	6	2	0	LADY	794	1	n/a	0	n/a	n/a	n/a	n/a	n/a
3265523	RECOG_CONF	n/a	LTP134	ltpFR	6	2	0	LADY	794	n/a	2	0	n/a	n/a	n/a	n/a	n/a
3267180	RECOG_TARGET	n/a	LTP134	ltpFR	6	2	0	TRUCK	1512	1	2	1	n/a	n/a	n/a	n/a	n/a
3268082	RECOG_RESP	n/a	LTP134	ltpFR	6	2	0	TRUCK	1512	1	n/a	1	n/a	n/a	n/a	n/a	n/a
3269121	RECOG_CONF	n/a	LTP134	ltpFR	6	2	0	TRUCK	1512	n/a	2	1	n/a	n/a	n/a	n/a	n/a
3270779	RECOG_TARGET	n/a	LTP134	ltpFR	6	2	0	CAKE	219	1	3	0	n/a	n/a	n/a	n/a	n/a
3271509	RECOG_RESP	n/a	LTP134	ltpFR	6	2	0	CAKE	219	1	n/a	0	n/a	n/a	n/a	n/a	n/a
3272481	RECOG_RESP_VV	n/a	LTP134	ltpFR	6	2	0	CAKE	219	n/a	4	0	n/a	n/a	n/a	n/a	n/a
3273454	RECOG_CONF	n/a	LTP134	ltpFR	6	2	0	CAKE	219	n/a	3	0	n/a	n/a	n/a	n/a	n/a
3275052	RECOG_LURE	n/a	LTP134	ltpFR	6	2	n/a	WALL	1582	0	1	n/a	n/a	n/a	n/a	n/a	n/a
3276830	RECOG_RESP_VV	n/a	LTP134	ltpFR	6	2	n/a	WALL	1582	1	n/a	n/a	n/a	n/a	n/a	n/a	n/a
3277905	RECOG_RESP	n/a	LTP134	ltpFR	6	2	n/a	WALL	1582	0	n/a	n/a	n/a	n/a	n/a	n/a	n/a
3279179	RECOG_CONF	n/a	LTP134	ltpFR	6	2	n/a	WALL	1582	n/a	1	n/a	n/a	n/a	n/a	n/a	n/a
3280884	RECOG_TARGET	n/a	LTP134	ltpFR	6	2	0	PIANO	1057	1	3	1	n/a	n/a	n/a	n/a	n/a
3281805	RECOG_RESP	n/a	LTP134	ltpFR	6	2	0	PIANO	1057	1	n/a	1	n/a	n/a	n/a	n/a	n/a
3282804	RECOG_CONF	n/a	LTP134	ltpFR	6	2	0	PIANO	1057	n/a	3	1	n/a	n/a	n/a	n/a	n/a
3284532	RECOG_TARGET	n/a	LTP134	ltpFR	6	2	1	MARKER	870	1	3	0	n/a	n/a	n/a	n/a	n/a
3285409	RECOG_RESP	n/a	LTP134	ltpFR	6	2	1	MARKER	870	1	n/a	0	n/a	n/a	n/a	n/a	n/a
3286679	RECOG_CONF	n/a	LTP134	ltpFR	6	2	1	MARKER	870	n/a	3	0	n/a	n/a	n/a	n/a	n/a
3288214	RECOG_TARGET	n/a	LTP134	ltpFR	6	2	-1	CUCUMBER	421	0	2	-1	n/a	n/a	n/a	n/a	n/a
3289231	RECOG_RESP	n/a	LTP134	ltpFR	6	2	-1	CUCUMBER	421	0	n/a	-1	n/a	n/a	n/a	n/a	n/a
3290262	RECOG_CONF	n/a	LTP134	ltpFR	6	2	-1	CUCUMBER	421	n/a	2	-1	n/a	n/a	n/a	n/a	n/a
3292030	RECOG_TARGET	n/a	LTP134	ltpFR	6	2	-1	PHYSICIAN	1056	1	5	-1	n/a	n/a	n/a	n/a	n/a
3292939	RECOG_RESP	n/a	LTP134	ltpFR	6	2	-1	PHYSICIAN	1056	1	n/a	-1	n/a	n/a	n/a	n/a	n/a
3293886	RECOG_CONF	n/a	LTP134	ltpFR	6	2	-1	PHYSICIAN	1056	n/a	5	-1	n/a	n/a	n/a	n/a	n/a
3295662	RECOG_LURE	n/a	LTP134	ltpFR	6	2	n/a	FEAST	556	0	2	n/a	n/a	n/a	n/a	n/a	n/a
3296751	RECOG_RESP	n/a	LTP134	ltpFR	6	2	n/a	FEAST	556	0	n/a	n/a	n/a	n/a	n/a	n/a	n/a
3298037	RECOG_CONF	n/a	LTP134	ltpFR	6	2	n/a	FEAST	556	n/a	2	n/a	n/a	n/a	n/a	n/a	n/a
3299660	RECOG_LURE	n/a	LTP134	ltpFR	6	2	n/a	OBOE	969	0	4	n/a	n/a	n/a	n/a	n/a	n/a
3300789	RECOG_RESP	n/a	LTP134	ltpFR	6	2	n/a	OBOE	969	0	n/a	n/a	n/a	n/a	n/a	n/a	n/a
3301881	RECOG_CONF	n/a	LTP134	ltpFR	6	2	n/a	OBOE	969	n/a	4	n/a	n/a	n/a	n/a	n/a	n/a
3303559	RECOG_TARGET	n/a	LTP134	ltpFR	6	2	1	CHIPMUNK	304	1	2	1	n/a	n/a	n/a	n/a	n/a
3304510	RECOG_RESP	n/a	LTP134	ltpFR	6	2	1	CHIPMUNK	304	1	n/a	1	n/a	n/a	n/a	n/a	n/a
3305755	RECOG_CONF	n/a	LTP134	ltpFR	6	2	1	CHIPMUNK	304	n/a	2	1	n/a	n/a	n/a	n/a	n/a
3310155	REC_START	n/a	LTP134	ltpFR	6	3	n/a	n/a	n/a	n/a	n/a	n/a	n/a	n/a	n/a	n/a	n/a
3310190	RECOG_TARGET	n/a	LTP134	ltpFR	6	3	1	GOOSE	649	0	2	1	n/a	n/a	n/a	n/a	n/a
3311278	RECOG_RESP	n/a	LTP134	ltpFR	6	3	1	GOOSE	649	0	n/a	1	n/a	n/a	n/a	n/a	n/a
3312243	RECOG_CONF	n/a	LTP134	ltpFR	6	3	1	GOOSE	649	n/a	2	1	n/a	n/a	n/a	n/a	n/a
3314030	RECOG_TARGET	n/a	LTP134	ltpFR	6	3	-1	CHAIR	274	0	2	-1	n/a	n/a	n/a	n/a	n/a
3315092	RECOG_RESP	n/a	LTP134	ltpFR	6	3	-1	CHAIR	274	0	n/a	-1	n/a	n/a	n/a	n/a	n/a
3316179	RECOG_CONF	n/a	LTP134	ltpFR	6	3	-1	CHAIR	274	n/a	2	-1	n/a	n/a	n/a	n/a	n/a
3317812	RECOG_LURE	n/a	LTP134	ltpFR	6	3	n/a	MOWER	928	0	2	n/a	n/a	n/a	n/a	n/a	n/a
3319340	RECOG_RESP	n/a	LTP134	ltpFR	6	3	n/a	MOWER	928	0	n/a	n/a	n/a	n/a	n/a	n/a	n/a
3320372	RECOG_CONF	n/a	LTP134	ltpFR	6	3	n/a	MOWER	928	n/a	2	n/a	n/a	n/a	n/a	n/a	n/a
3321961	RECOG_TARGET	n/a	LTP134	ltpFR	6	3	1	CHAIN	273	1	1	0	n/a	n/a	n/a	n/a	n/a
3323037	RECOG_RESP_VV	n/a	LTP134	ltpFR	6	3	1	CHAIN	273	0	n/a	0	n/a	n/a	n/a	n/a	n/a
3324320	RECOG_RESP	n/a	LTP134	ltpFR	6	3	1	CHAIN	273	1	n/a	0	n/a	n/a	n/a	n/a	n/a
3325568	RECOG_CONF	n/a	LTP134	ltpFR	6	3	1	CHAIN	273	n/a	1	0	n/a	n/a	n/a	n/a	n/a
3327184	RECOG_TARGET	n/a	LTP134	ltpFR	6	3	0	ANT	25	1	4	0	n/a	n/a	n/a	n/a	n/a
3328146	RECOG_RESP	n/a	LTP134	ltpFR	6	3	0	ANT	25	1	n/a	0	n/a	n/a	n/a	n/a	n/a
3328932	RECOG_RESP_VV	n/a	LTP134	ltpFR	6	3	0	ANT	25	n/a	4	0	n/a	n/a	n/a	n/a	n/a
3329585	RECOG_CONF	n/a	LTP134	ltpFR	6	3	0	ANT	25	n/a	4	0	n/a	n/a	n/a	n/a	n/a
3331482	RECOG_TARGET	n/a	LTP134	ltpFR	6	3	-1	RUST	1219	1	4	-1	n/a	n/a	n/a	n/a	n/a
3332192	RECOG_RESP	n/a	LTP134	ltpFR	6	3	-1	RUST	1219	1	n/a	-1	n/a	n/a	n/a	n/a	n/a
3333128	RECOG_CONF	n/a	LTP134	ltpFR	6	3	-1	RUST	1219	n/a	4	-1	n/a	n/a	n/a	n/a	n/a
3334881	RECOG_TARGET	n/a	LTP134	ltpFR	6	3	0	SENATOR	1268	1	3	1	n/a	n/a	n/a	n/a	n/a
3335790	RECOG_RESP	n/a	LTP134	ltpFR	6	3	0	SENATOR	1268	1	n/a	1	n/a	n/a	n/a	n/a	n/a
3336955	RECOG_CONF	n/a	LTP134	ltpFR	6	3	0	SENATOR	1268	n/a	3	1	n/a	n/a	n/a	n/a	n/a
3338680	RECOG_TARGET	n/a	LTP134	ltpFR	6	3	1	MATTRESS	879	1	5	0	n/a	n/a	n/a	n/a	n/a
3339637	RECOG_RESP	n/a	LTP134	ltpFR	6	3	1	MATTRESS	879	1	n/a	0	n/a	n/a	n/a	n/a	n/a
3340441	RECOG_CONF	n/a	LTP134	ltpFR	6	3	1	MATTRESS	879	n/a	5	0	n/a	n/a	n/a	n/a	n/a
3342129	RECOG_LURE	n/a	LTP134	ltpFR	6	3	n/a	STAFF	1365	0	2	n/a	n/a	n/a	n/a	n/a	n/a
3343155	RECOG_RESP	n/a	LTP134	ltpFR	6	3	n/a	STAFF	1365	0	n/a	n/a	n/a	n/a	n/a	n/a	n/a
3344138	RECOG_CONF	n/a	LTP134	ltpFR	6	3	n/a	STAFF	1365	n/a	2	n/a	n/a	n/a	n/a	n/a	n/a
3345786	RECOG_TARGET	n/a	LTP134	ltpFR	6	3	0	CUP	424	1	2	0	n/a	n/a	n/a	n/a	n/a
3346827	RECOG_RESP	n/a	LTP134	ltpFR	6	3	0	CUP	424	1	n/a	0	n/a	n/a	n/a	n/a	n/a
3347807	RECOG_CONF	n/a	LTP134	ltpFR	6	3	0	CUP	424	n/a	2	0	n/a	n/a	n/a	n/a	n/a
3349443	RECOG_TARGET	n/a	LTP134	ltpFR	6	3	-1	HELICOPTER	701	1	3	-1	n/a	n/a	n/a	n/a	n/a
3350649	RECOG_RESP	n/a	LTP134	ltpFR	6	3	-1	HELICOPTER	701	1	n/a	-1	n/a	n/a	n/a	n/a	n/a
3353210	RECOG_CONF	n/a	LTP134	ltpFR	6	3	-1	HELICOPTER	701	n/a	3	-1	n/a	n/a	n/a	n/a	n/a
3354916	RECOG_TARGET	n/a	LTP134	ltpFR	6	3	0	VEIN	1554	1	3	0	n/a	n/a	n/a	n/a	n/a
3356523	RECOG_RESP	n/a	LTP134	ltpFR	6	3	0	VEIN	1554	1	n/a	0	n/a	n/a	n/a	n/a	n/a
3357830	RECOG_CONF	n/a	LTP134	ltpFR	6	3	0	VEIN	1554	n/a	3	0	n/a	n/a	n/a	n/a	n/a
3359564	RECOG_TARGET	n/a	LTP134	ltpFR	6	3	0	BASKET	95	1	3	1	n/a	n/a	n/a	n/a	n/a
3360394	RECOG_RESP	n/a	LTP134	ltpFR	6	3	0	BASKET	95	1	n/a	1	n/a	n/a	n/a	n/a	n/a
3361409	RECOG_CONF	n/a	LTP134	ltpFR	6	3	0	BASKET	95	n/a	3	1	n/a	n/a	n/a	n/a	n/a
3363113	RECOG_TARGET	n/a	LTP134	ltpFR	6	3	0	MARGARINE	868	1	4	1	n/a	n/a	n/a	n/a	n/a
3364173	RECOG_RESP	n/a	LTP134	ltpFR	6	3	0	MARGARINE	868	1	n/a	1	n/a	n/a	n/a	n/a	n/a
3365138	RECOG_CONF	n/a	LTP134	ltpFR	6	3	0	MARGARINE	868	n/a	4	1	n/a	n/a	n/a	n/a	n/a
3366928	RECOG_LURE	n/a	LTP134	ltpFR	6	3	n/a	RASPBERRY	1168	0	2	n/a	n/a	n/a	n/a	n/a	n/a
3368263	RECOG_RESP	n/a	LTP134	ltpFR	6	3	n/a	RASPBERRY	1168	0	n/a	n/a	n/a	n/a	n/a	n/a	n/a
3369559	RECOG_CONF	n/a	LTP134	ltpFR	6	3	n/a	RASPBERRY	1168	n/a	2	n/a	n/a	n/a	n/a	n/a	n/a
3371218	RECOG_TARGET	n/a	LTP134	ltpFR	6	3	1	DISH	474	1	4	0	n/a	n/a	n/a	n/a	n/a
3372332	RECOG_RESP	n/a	LTP134	ltpFR	6	3	1	DISH	474	1	n/a	0	n/a	n/a	n/a	n/a	n/a
3373226	RECOG_CONF	n/a	LTP134	ltpFR	6	3	1	DISH	474	n/a	4	0	n/a	n/a	n/a	n/a	n/a
3375009	RECOG_LURE	n/a	LTP134	ltpFR	6	3	n/a	HOME	712	0	2	n/a	n/a	n/a	n/a	n/a	n/a
3376600	RECOG_RESP	n/a	LTP134	ltpFR	6	3	n/a	HOME	712	0	n/a	n/a	n/a	n/a	n/a	n/a	n/a
3377639	RECOG_CONF	n/a	LTP134	ltpFR	6	3	n/a	HOME	712	n/a	2	n/a	n/a	n/a	n/a	n/a	n/a
3379265	RECOG_TARGET	n/a	LTP134	ltpFR	6	3	1	TUSK	1523	1	3	0	n/a	n/a	n/a	n/a	n/a
3380132	RECOG_RESP	n/a	LTP134	ltpFR	6	3	1	TUSK	1523	1	n/a	0	n/a	n/a	n/a	n/a	n/a
3381108	RECOG_CONF	n/a	LTP134	ltpFR	6	3	1	TUSK	1523	n/a	3	0	n/a	n/a	n/a	n/a	n/a
3382781	RECOG_TARGET	n/a	LTP134	ltpFR	6	3	1	ACTRESS	6	1	3	1	n/a	n/a	n/a	n/a	n/a
3383956	RECOG_RESP	n/a	LTP134	ltpFR	6	3	1	ACTRESS	6	1	n/a	1	n/a	n/a	n/a	n/a	n/a
3384933	RECOG_CONF	n/a	LTP134	ltpFR	6	3	1	ACTRESS	6	n/a	3	1	n/a	n/a	n/a	n/a	n/a
3386513	RECOG_TARGET	n/a	LTP134	ltpFR	6	3	-1	VILLAGE	1566	1	1	-1	n/a	n/a	n/a	n/a	n/a
3387488	RECOG_RESP	n/a	LTP134	ltpFR	6	3	-1	VILLAGE	1566	1	n/a	-1	n/a	n/a	n/a	n/a	n/a
3388662	RECOG_CONF	n/a	LTP134	ltpFR	6	3	-1	VILLAGE	1566	n/a	1	-1	n/a	n/a	n/a	n/a	n/a
3396021	REC_START	n/a	LTP134	ltpFR	6	4	n/a	n/a	n/a	n/a	n/a	n/a	n/a	n/a	n/a	n/a	n/a
3396059	RECOG_TARGET	n/a	LTP134	ltpFR	6	4	0	ACORN	3	1	3	0	n/a	n/a	n/a	n/a	n/a
3396786	RECOG_RESP	n/a	LTP134	ltpFR	6	4	0	ACORN	3	1	n/a	0	n/a	n/a	n/a	n/a	n/a
3397697	RECOG_CONF	n/a	LTP134	ltpFR	6	4	0	ACORN	3	n/a	3	0	n/a	n/a	n/a	n/a	n/a
3399283	RECOG_TARGET	n/a	LTP134	ltpFR	6	4	-1	PEACH	1031	1	4	-1	n/a	n/a	n/a	n/a	n/a
3400039	RECOG_RESP	n/a	LTP134	ltpFR	6	4	-1	PEACH	1031	1	n/a	-1	n/a	n/a	n/a	n/a	n/a
3400854	RECOG_CONF	n/a	LTP134	ltpFR	6	4	-1	PEACH	1031	n/a	4	-1	n/a	n/a	n/a	n/a	n/a
3402490	RECOG_TARGET	n/a	LTP134	ltpFR	6	4	-1	TRENCH	1503	1	4	-1	n/a	n/a	n/a	n/a	n/a
3403514	RECOG_RESP	n/a	LTP134	ltpFR	6	4	-1	TRENCH	1503	1	n/a	-1	n/a	n/a	n/a	n/a	n/a
3404267	RECOG_CONF	n/a	LTP134	ltpFR	6	4	-1	TRENCH	1503	n/a	4	-1	n/a	n/a	n/a	n/a	n/a
3405989	RECOG_TARGET	n/a	LTP134	ltpFR	6	4	1	JELLY	755	1	4	0	n/a	n/a	n/a	n/a	n/a
3406522	RECOG_RESP	n/a	LTP134	ltpFR	6	4	1	JELLY	755	1	n/a	0	n/a	n/a	n/a	n/a	n/a
3407764	RECOG_CONF	n/a	LTP134	ltpFR	6	4	1	JELLY	755	n/a	4	0	n/a	n/a	n/a	n/a	n/a
3409396	RECOG_TARGET	n/a	LTP134	ltpFR	6	4	1	COOLER	375	1	4	0	n/a	n/a	n/a	n/a	n/a
3410121	RECOG_RESP	n/a	LTP134	ltpFR	6	4	1	COOLER	375	1	n/a	0	n/a	n/a	n/a	n/a	n/a
3410946	RECOG_CONF	n/a	LTP134	ltpFR	6	4	1	COOLER	375	n/a	4	0	n/a	n/a	n/a	n/a	n/a
3412645	RECOG_TARGET	n/a	LTP134	ltpFR	6	4	0	JUGGLER	763	1	5	1	n/a	n/a	n/a	n/a	n/a
3413325	RECOG_RESP	n/a	LTP134	ltpFR	6	4	0	JUGGLER	763	1	n/a	1	n/a	n/a	n/a	n/a	n/a
3414094	RECOG_CONF	n/a	LTP134	ltpFR	6	4	0	JUGGLER	763	n/a	5	1	n/a	n/a	n/a	n/a	n/a
3415852	RECOG_TARGET	n/a	LTP134	ltpFR	6	4	0	CEREAL	272	1	5	1	n/a	n/a	n/a	n/a	n/a
3416475	RECOG_RESP	n/a	LTP134	ltpFR	6	4	0	CEREAL	272	1	n/a	1	n/a	n/a	n/a	n/a	n/a
3417246	RECOG_CONF	n/a	LTP134	ltpFR	6	4	0	CEREAL	272	n/a	5	1	n/a	n/a	n/a	n/a	n/a
3418843	RECOG_LURE	n/a	LTP134	ltpFR	6	4	n/a	HAMMER	680	0	2	n/a	n/a	n/a	n/a	n/a	n/a
3419782	RECOG_RESP	n/a	LTP134	ltpFR	6	4	n/a	HAMMER	680	0	n/a	n/a	n/a	n/a	n/a	n/a	n/a
3421298	RECOG_CONF	n/a	LTP134	ltpFR	6	4	n/a	HAMMER	680	n/a	2	n/a	n/a	n/a	n/a	n/a	n/a
3423000	RECOG_TARGET	n/a	LTP134	ltpFR	6	4	1	PAWN	1030	1	4	0	n/a	n/a	n/a	n/a	n/a
3423836	RECOG_RESP	n/a	LTP134	ltpFR	6	4	1	PAWN	1030	1	n/a	0	n/a	n/a	n/a	n/a	n/a
3424725	RECOG_CONF	n/a	LTP134	ltpFR	6	4	1	PAWN	1030	n/a	4	0	n/a	n/a	n/a	n/a	n/a
3426515	RECOG_TARGET	n/a	LTP134	ltpFR	6	4	0	SHOE	1288	1	4	0	n/a	n/a	n/a	n/a	n/a
3427711	RECOG_RESP	n/a	LTP134	ltpFR	6	4	0	SHOE	1288	1	n/a	0	n/a	n/a	n/a	n/a	n/a
3428654	RECOG_CONF	n/a	LTP134	ltpFR	6	4	0	SHOE	1288	n/a	4	0	n/a	n/a	n/a	n/a	n/a
3430431	RECOG_LURE	n/a	LTP134	ltpFR	6	4	n/a	FLOUR	583	0	2	n/a	n/a	n/a	n/a	n/a	n/a
3431321	RECOG_RESP	n/a	LTP134	ltpFR	6	4	n/a	FLOUR	583	0	n/a	n/a	n/a	n/a	n/a	n/a	n/a
3432425	RECOG_CONF	n/a	LTP134	ltpFR	6	4	n/a	FLOUR	583	n/a	2	n/a	n/a	n/a	n/a	n/a	n/a
3433979	RECOG_TARGET	n/a	LTP134	ltpFR	6	4	-1	BLOUSE	139	1	4	-1	n/a	n/a	n/a	n/a	n/a
3434775	RECOG_RESP	n/a	LTP134	ltpFR	6	4	-1	BLOUSE	139	1	n/a	-1	n/a	n/a	n/a	n/a	n/a
3435586	RECOG_CONF	n/a	LTP134	ltpFR	6	4	-1	BLOUSE	139	n/a	4	-1	n/a	n/a	n/a	n/a	n/a
3437236	RECOG_LURE	n/a	LTP134	ltpFR	6	4	n/a	HIGHWAY	707	0	2	n/a	n/a	n/a	n/a	n/a	n/a
3438261	RECOG_RESP	n/a	LTP134	ltpFR	6	4	n/a	HIGHWAY	707	0	n/a	n/a	n/a	n/a	n/a	n/a	n/a
3439259	RECOG_CONF	n/a	LTP134	ltpFR	6	4	n/a	HIGHWAY	707	n/a	2	n/a	n/a	n/a	n/a	n/a	n/a
3440918	RECOG_TARGET	n/a	LTP134	ltpFR	6	4	1	KNOT	788	1	3	0	n/a	n/a	n/a	n/a	n/a
3441774	RECOG_RESP	n/a	LTP134	ltpFR	6	4	1	KNOT	788	1	n/a	0	n/a	n/a	n/a	n/a	n/a
3442718	RECOG_CONF	n/a	LTP134	ltpFR	6	4	1	KNOT	788	n/a	3	0	n/a	n/a	n/a	n/a	n/a
3444350	RECOG_TARGET	n/a	LTP134	ltpFR	6	4	-1	TUB	1514	1	4	-1	n/a	n/a	n/a	n/a	n/a
3445038	RECOG_RESP	n/a	LTP134	ltpFR	6	4	-1	TUB	1514	1	n/a	-1	n/a	n/a	n/a	n/a	n/a
3445922	RECOG_CONF	n/a	LTP134	ltpFR	6	4	-1	TUB	1514	n/a	4	-1	n/a	n/a	n/a	n/a	n/a
3447633	RECOG_LURE	n/a	LTP134	ltpFR	6	4	n/a	DRUG	501	0	3	n/a	n/a	n/a	n/a	n/a	n/a
3448501	RECOG_RESP	n/a	LTP134	ltpFR	6	4	n/a	DRUG	501	0	n/a	n/a	n/a	n/a	n/a	n/a	n/a
3449548	RECOG_CONF	n/a	LTP134	ltpFR	6	4	n/a	DRUG	501	n/a	3	n/a	n/a	n/a	n/a	n/a	n/a
3451231	RECOG_TARGET	n/a	LTP134	ltpFR	6	4	0	BARN	89	1	3	1	n/a	n/a	n/a	n/a	n/a
3452393	RECOG_RESP	n/a	LTP134	ltpFR	6	4	0	BARN	89	1	n/a	1	n/a	n/a	n/a	n/a	n/a
3453436	RECOG_CONF	n/a	LTP134	ltpFR	6	4	0	BARN	89	n/a	3	1	n/a	n/a	n/a	n/a	n/a
3454997	RECOG_TARGET	n/a	LTP134	ltpFR	6	4	-1	HOOP	716	1	4	-1	n/a	n/a	n/a	n/a	n/a
3455637	RECOG_RESP	n/a	LTP134	ltpFR	6	4	-1	HOOP	716	1	n/a	-1	n/a	n/a	n/a	n/a	n/a
3456488	RECOG_CONF	n/a	LTP134	ltpFR	6	4	-1	HOOP	716	n/a	4	-1	n/a	n/a	n/a	n/a	n/a
3458137	RECOG_TARGET	n/a	LTP134	ltpFR	6	4	0	BOMB	147	1	4	1	n/a	n/a	n/a	n/a	n/a
3458907	RECOG_RESP	n/a	LTP134	ltpFR	6	4	0	BOMB	147	1	n/a	1	n/a	n/a	n/a	n/a	n/a
3459820	RECOG_CONF	n/a	LTP134	ltpFR	6	4	0	BOMB	147	n/a	4	1	n/a	n/a	n/a	n/a	n/a
3461369	RECOG_TARGET	n/a	LTP134	ltpFR	6	4	1	COMB	351	1	4	0	n/a	n/a	n/a	n/a	n/a
3462233	RECOG_RESP	n/a	LTP134	ltpFR	6	4	1	COMB	351	1	n/a	0	n/a	n/a	n/a	n/a	n/a
3463078	RECOG_CONF	n/a	LTP134	ltpFR	6	4	1	COMB	351	n/a	4	0	n/a	n/a	n/a	n/a	n/a
3476049	REC_START	n/a	LTP134	ltpFR	6	5	n/a	n/a	n/a	n/a	n/a	n/a	n/a	n/a	n/a	n/a	n/a
3476081	RECOG_LURE	n/a	LTP134	ltpFR	6	5	n/a	GROUND	666	0	2	n/a	n/a	n/a	n/a	n/a	n/a
3477917	RECOG_RESP_VV	n/a	LTP134	ltpFR	6	5	n/a	GROUND	666	1	n/a	n/a	n/a	n/a	n/a	n/a	n/a
3478841	RECOG_RESP	n/a	LTP134	ltpFR	6	5	n/a	GROUND	666	0	n/a	n/a	n/a	n/a	n/a	n/a	n/a
3479900	RECOG_CONF	n/a	LTP134	ltpFR	6	5	n/a	GROUND	666	n/a	2	n/a	n/a	n/a	n/a	n/a	n/a
3481546	RECOG_TARGET	n/a	LTP134	ltpFR	6	5	1	MARROW	872	1	3	0	n/a	n/a	n/a	n/a	n/a
3482403	RECOG_RESP	n/a	LTP134	ltpFR	6	5	1	MARROW	872	1	n/a	0	n/a	n/a	n/a	n/a	n/a
3483336	RECOG_CONF	n/a	LTP134	ltpFR	6	5	1	MARROW	872	n/a	3	0	n/a	n/a	n/a	n/a	n/a
3484878	RECOG_LURE	n/a	LTP134	ltpFR	6	5	n/a	DESK	452	1	1	n/a	n/a	n/a	n/a	n/a	n/a
3486175	RECOG_RESP	n/a	LTP134	ltpFR	6	5	n/a	DESK	452	1	n/a	n/a	n/a	n/a	n/a	n/a	n/a
3487238	RECOG_CONF	n/a	LTP134	ltpFR	6	5	n/a	DESK	452	n/a	1	n/a	n/a	n/a	n/a	n/a	n/a
3488718	RECOG_TARGET	n/a	LTP134	ltpFR	6	5	0	STAPLER	1372	1	4	0	n/a	n/a	n/a	n/a	n/a
3489449	RECOG_RESP	n/a	LTP134	ltpFR	6	5	0	STAPLER	1372	1	n/a	0	n/a	n/a	n/a	n/a	n/a
3490281	RECOG_CONF	n/a	LTP134	ltpFR	6	5	0	STAPLER	1372	n/a	4	0	n/a	n/a	n/a	n/a	n/a
3491909	RECOG_TARGET	n/a	LTP134	ltpFR	6	5	-1	TABLE	1426	1	4	-1	n/a	n/a	n/a	n/a	n/a
3492944	RECOG_RESP	n/a	LTP134	ltpFR	6	5	-1	TABLE	1426	1	n/a	-1	n/a	n/a	n/a	n/a	n/a
3493723	RECOG_CONF	n/a	LTP134	ltpFR	6	5	-1	TABLE	1426	n/a	4	-1	n/a	n/a	n/a	n/a	n/a
3495382	RECOG_TARGET	n/a	LTP134	ltpFR	6	5	0	SWEATER	1419	1	4	1	n/a	n/a	n/a	n/a	n/a
3496133	RECOG_RESP	n/a	LTP134	ltpFR	6	5	0	SWEATER	1419	1	n/a	1	n/a	n/a	n/a	n/a	n/a
3496931	RECOG_CONF	n/a	LTP134	ltpFR	6	5	0	SWEATER	1419	n/a	4	1	n/a	n/a	n/a	n/a	n/a
3498431	RECOG_TARGET	n/a	LTP134	ltpFR	6	5	1	ESSAY	540	1	2	0	n/a	n/a	n/a	n/a	n/a
3499589	RECOG_RESP	n/a	LTP134	ltpFR	6	5	1	ESSAY	540	1	n/a	0	n/a	n/a	n/a	n/a	n/a
3500676	RECOG_CONF	n/a	LTP134	ltpFR	6	5	1	ESSAY	540	n/a	2	0	n/a	n/a	n/a	n/a	n/a
3502430	RECOG_TARGET	n/a	LTP134	ltpFR	6	5	1	CAB	209	1	2	0	n/a	n/a	n/a	n/a	n/a
3503634	RECOG_RESP	n/a	LTP134	ltpFR	6	5	1	CAB	209	1	n/a	0	n/a	n/a	n/a	n/a	n/a
3504783	RECOG_CONF	n/a	LTP134	ltpFR	6	5	1	CAB	209	n/a	2	0	n/a	n/a	n/a	n/a	n/a
3506445	RECOG_TARGET	n/a	LTP134	ltpFR	6	5	0	CLOTHES	327	1	2	1	n/a	n/a	n/a	n/a	n/a
3507179	RECOG_RESP	n/a	LTP134	ltpFR	6	5	0	CLOTHES	327	1	n/a	1	n/a	n/a	n/a	n/a	n/a
3508217	RECOG_CONF	n/a	LTP134	ltpFR	6	5	0	CLOTHES	327	n/a	2	1	n/a	n/a	n/a	n/a	n/a
3509794	RECOG_TARGET	n/a	LTP134	ltpFR	6	5	0	BUSH	202	1	3	1	n/a	n/a	n/a	n/a	n/a
3510957	RECOG_RESP	n/a	LTP134	ltpFR	6	5	0	BUSH	202	1	n/a	1	n/a	n/a	n/a	n/a	n/a
3511896	RECOG_CONF	n/a	LTP134	ltpFR	6	5	0	BUSH	202	n/a	3	1	n/a	n/a	n/a	n/a	n/a
3513434	RECOG_TARGET	n/a	LTP134	ltpFR	6	5	1	MINK	897	1	3	0	n/a	n/a	n/a	n/a	n/a
3514259	RECOG_RESP	n/a	LTP134	ltpFR	6	5	1	MINK	897	1	n/a	0	n/a	n/a	n/a	n/a	n/a
3515158	RECOG_CONF	n/a	LTP134	ltpFR	6	5	1	MINK	897	n/a	3	0	n/a	n/a	n/a	n/a	n/a
3516700	RECOG_TARGET	n/a	LTP134	ltpFR	6	5	0	STAPLE	1371	1	3	0	n/a	n/a	n/a	n/a	n/a
3517636	RECOG_RESP	n/a	LTP134	ltpFR	6	5	0	STAPLE	1371	1	n/a	0	n/a	n/a	n/a	n/a	n/a
3518553	RECOG_CONF	n/a	LTP134	ltpFR	6	5	0	STAPLE	1371	n/a	3	0	n/a	n/a	n/a	n/a	n/a
3519949	RECOG_TARGET	n/a	LTP134	ltpFR	6	5	0	CARRIAGE	248	1	2	1	n/a	n/a	n/a	n/a	n/a
3521577	RECOG_RESP	n/a	LTP134	ltpFR	6	5	0	CARRIAGE	248	1	n/a	1	n/a	n/a	n/a	n/a	n/a
3522576	RECOG_CONF	n/a	LTP134	ltpFR	6	5	0	CARRIAGE	248	n/a	2	1	n/a	n/a	n/a	n/a	n/a
3524097	RECOG_TARGET	n/a	LTP134	ltpFR	6	5	1	CONTAINER	366	1	3	0	n/a	n/a	n/a	n/a	n/a
3524885	RECOG_RESP	n/a	LTP134	ltpFR	6	5	1	CONTAINER	366	1	n/a	0	n/a	n/a	n/a	n/a	n/a
3525800	RECOG_CONF	n/a	LTP134	ltpFR	6	5	1	CONTAINER	366	n/a	3	0	n/a	n/a	n/a	n/a	n/a
3527313	RECOG_TARGET	n/a	LTP134	ltpFR	6	5	1	LEADER	807	1	3	1	n/a	n/a	n/a	n/a	n/a
3527925	RECOG_RESP	n/a	LTP134	ltpFR	6	5	1	LEADER	807	1	n/a	1	n/a	n/a	n/a	n/a	n/a
3528891	RECOG_CONF	n/a	LTP134	ltpFR	6	5	1	LEADER	807	n/a	3	1	n/a	n/a	n/a	n/a	n/a
3530437	RECOG_TARGET	n/a	LTP134	ltpFR	6	5	-1	UNIVERSITY	1541	1	4	-1	n/a	n/a	n/a	n/a	n/a
3531137	RECOG_RESP	n/a	LTP134	ltpFR	6	5	-1	UNIVERSITY	1541	1	n/a	-1	n/a	n/a	n/a	n/a	n/a
3532047	RECOG_CONF	n/a	LTP134	ltpFR	6	5	-1	UNIVERSITY	1541	n/a	4	-1	n/a	n/a	n/a	n/a	n/a
3533560	RECOG_TARGET	n/a	LTP134	ltpFR	6	5	0	MEADOW	881	1	2	1	n/a	n/a	n/a	n/a	n/a
3534539	RECOG_RESP	n/a	LTP134	ltpFR	6	5	0	MEADOW	881	1	n/a	1	n/a	n/a	n/a	n/a	n/a
3535475	RECOG_CONF	n/a	LTP134	ltpFR	6	5	0	MEADOW	881	n/a	2	1	n/a	n/a	n/a	n/a	n/a
3537034	RECOG_TARGET	n/a	LTP134	ltpFR	6	5	0	BROOK	177	0	2	1	n/a	n/a	n/a	n/a	n/a
3538255	RECOG_RESP	n/a	LTP134	ltpFR	6	5	0	BROOK	177	0	n/a	1	n/a	n/a	n/a	n/a	n/a
3539205	RECOG_CONF	n/a	LTP134	ltpFR	6	5	0	BROOK	177	n/a	2	1	n/a	n/a	n/a	n/a	n/a
3540850	RECOG_TARGET	n/a	LTP134	ltpFR	6	5	0	BUCKET	184	1	2	1	n/a	n/a	n/a	n/a	n/a
3542000	RECOG_RESP	n/a	LTP134	ltpFR	6	5	0	BUCKET	184	1	n/a	1	n/a	n/a	n/a	n/a	n/a
3542950	RECOG_CONF	n/a	LTP134	ltpFR	6	5	0	BUCKET	184	n/a	2	1	n/a	n/a	n/a	n/a	n/a
3544582	RECOG_LURE	n/a	LTP134	ltpFR	6	5	n/a	TAR	1435	0	2	n/a	n/a	n/a	n/a	n/a	n/a
3545758	RECOG_RESP	n/a	LTP134	ltpFR	6	5	n/a	TAR	1435	0	n/a	n/a	n/a	n/a	n/a	n/a	n/a
3546767	RECOG_CONF	n/a	LTP134	ltpFR	6	5	n/a	TAR	1435	n/a	2	n/a	n/a	n/a	n/a	n/a	n/a
3573933	REC_START	n/a	LTP134	ltpFR	6	6	n/a	n/a	n/a	n/a	n/a	n/a	n/a	n/a	n/a	n/a	n/a
3573971	RECOG_TARGET	n/a	LTP134	ltpFR	6	6	1	TURNIP	1521	1	3	1	n/a	n/a	n/a	n/a	n/a
3575140	RECOG_RESP	n/a	LTP134	ltpFR	6	6	1	TURNIP	1521	1	n/a	1	n/a	n/a	n/a	n/a	n/a
3576173	RECOG_CONF	n/a	LTP134	ltpFR	6	6	1	TURNIP	1521	n/a	3	1	n/a	n/a	n/a	n/a	n/a
3577786	RECOG_TARGET	n/a	LTP134	ltpFR	6	6	1	TOMB	1477	1	3	0	n/a	n/a	n/a	n/a	n/a
3579011	RECOG_RESP	n/a	LTP134	ltpFR	6	6	1	TOMB	1477	1	n/a	0	n/a	n/a	n/a	n/a	n/a
3579902	RECOG_CONF	n/a	LTP134	ltpFR	6	6	1	TOMB	1477	n/a	3	0	n/a	n/a	n/a	n/a	n/a
3581543	RECOG_TARGET	n/a	LTP134	ltpFR	6	6	0	THICKET	1455	0	1	0	n/a	n/a	n/a	n/a	n/a
3582466	RECOG_RESP	n/a	LTP134	ltpFR	6	6	0	THICKET	1455	0	n/a	0	n/a	n/a	n/a	n/a	n/a
3583496	RECOG_CONF	n/a	LTP134	ltpFR	6	6	0	THICKET	1455	n/a	1	0	n/a	n/a	n/a	n/a	n/a
3585334	RECOG_TARGET	n/a	LTP134	ltpFR	6	6	-1	PORCUPINE	1107	1	3	-1	n/a	n/a	n/a	n/a	n/a
3586290	RECOG_RESP	n/a	LTP134	ltpFR	6	6	-1	PORCUPINE	1107	1	n/a	-1	n/a	n/a	n/a	n/a	n/a
3587221	RECOG_CONF	n/a	LTP134	ltpFR	6	6	-1	PORCUPINE	1107	n/a	3	-1	n/a	n/a	n/a	n/a	n/a
3588866	RECOG_TARGET	n/a	LTP134	ltpFR	6	6	1	MUSTARD	935	1	2	0	n/a	n/a	n/a	n/a	n/a
3589780	RECOG_RESP	n/a	LTP134	ltpFR	6	6	1	MUSTARD	935	1	n/a	0	n/a	n/a	n/a	n/a	n/a
3590809	RECOG_CONF	n/a	LTP134	ltpFR	6	6	1	MUSTARD	935	n/a	2	0	n/a	n/a	n/a	n/a	n/a
3592439	RECOG_TARGET	n/a	LTP134	ltpFR	6	6	1	CUSTOMER	430	0	1	1	n/a	n/a	n/a	n/a	n/a
3593547	RECOG_RESP	n/a	LTP134	ltpFR	6	6	1	CUSTOMER	430	0	n/a	1	n/a	n/a	n/a	n/a	n/a
3594593	RECOG_CONF	n/a	LTP134	ltpFR	6	6	1	CUSTOMER	430	n/a	1	1	n/a	n/a	n/a	n/a	n/a
3596271	RECOG_TARGET	n/a	LTP134	ltpFR	6	6	-1	STOOL	1386	0	2	-1	n/a	n/a	n/a	n/a	n/a
3597227	RECOG_RESP	n/a	LTP134	ltpFR	6	6	-1	STOOL	1386	0	n/a	-1	n/a	n/a	n/a	n/a	n/a
3598088	RECOG_CONF	n/a	LTP134	ltpFR	6	6	-1	STOOL	1386	n/a	2	-1	n/a	n/a	n/a	n/a	n/a
3599795	RECOG_TARGET	n/a	LTP134	ltpFR	6	6	-1	CHIMPANZEE	302	1	4	-1	n/a	n/a	n/a	n/a	n/a
3601690	RECOG_RESP	n/a	LTP134	ltpFR	6	6	-1	CHIMPANZEE	302	1	n/a	-1	n/a	n/a	n/a	n/a	n/a
3602996	RECOG_CONF	n/a	LTP134	ltpFR	6	6	-1	CHIMPANZEE	302	n/a	4	-1	n/a	n/a	n/a	n/a	n/a
3604569	RECOG_TARGET	n/a	LTP134	ltpFR	6	6	0	MILDEW	893	1	4	0	n/a	n/a	n/a	n/a	n/a
3605542	RECOG_RESP	n/a	LTP134	ltpFR	6	6	0	MILDEW	893	1	n/a	0	n/a	n/a	n/a	n/a	n/a
3606354	RECOG_CONF	n/a	LTP134	ltpFR	6	6	0	MILDEW	893	n/a	4	0	n/a	n/a	n/a	n/a	n/a
3607934	RECOG_TARGET	n/a	LTP134	ltpFR	6	6	-1	NAVIGATOR	938	1	4	-1	n/a	n/a	n/a	n/a	n/a
3608917	RECOG_RESP	n/a	LTP134	ltpFR	6	6	-1	NAVIGATOR	938	1	n/a	-1	n/a	n/a	n/a	n/a	n/a
3609796	RECOG_CONF	n/a	LTP134	ltpFR	6	6	-1	NAVIGATOR	938	n/a	4	-1	n/a	n/a	n/a	n/a	n/a
3611424	RECOG_TARGET	n/a	LTP134	ltpFR	6	6	1	WOLF	1619	1	2	1	n/a	n/a	n/a	n/a	n/a
3612219	RECOG_RESP	n/a	LTP134	ltpFR	6	6	1	WOLF	1619	1	n/a	1	n/a	n/a	n/a	n/a	n/a
3613246	RECOG_CONF	n/a	LTP134	ltpFR	6	6	1	WOLF	1619	n/a	2	1	n/a	n/a	n/a	n/a	n/a
3614782	RECOG_TARGET	n/a	LTP134	ltpFR	6	6	1	BOYFRIEND	162	1	1	0	n/a	n/a	n/a	n/a	n/a
3616022	RECOG_RESP	n/a	LTP134	ltpFR	6	6	1	BOYFRIEND	162	1	n/a	0	n/a	n/a	n/a	n/a	n/a
3617108	RECOG_CONF	n/a	LTP134	ltpFR	6	6	1	BOYFRIEND	162	n/a	1	0	n/a	n/a	n/a	n/a	n/a
3618621	RECOG_TARGET	n/a	LTP134	ltpFR	6	6	1	SUPERVISOR	1410	1	3	1	n/a	n/a	n/a	n/a	n/a
3619494	RECOG_RESP	n/a	LTP134	ltpFR	6	6	1	SUPERVISOR	1410	1	n/a	1	n/a	n/a	n/a	n/a	n/a
3620436	RECOG_CONF	n/a	LTP134	ltpFR	6	6	1	SUPERVISOR	1410	n/a	3	1	n/a	n/a	n/a	n/a	n/a
3622046	RECOG_TARGET	n/a	LTP134	ltpFR	6	6	0	SPOOL	1356	0	1	0	n/a	n/a	n/a	n/a	n/a
3623617	RECOG_RESP	n/a	LTP134	ltpFR	6	6	0	SPOOL	1356	0	n/a	0	n/a	n/a	n/a	n/a	n/a
3624813	RECOG_CONF	n/a	LTP134	ltpFR	6	6	0	SPOOL	1356	n/a	1	0	n/a	n/a	n/a	n/a	n/a
3626344	RECOG_LURE	n/a	LTP134	ltpFR	6	6	n/a	STOVE	1388	0	1	n/a	n/a	n/a	n/a	n/a	n/a
3627281	RECOG_RESP	n/a	LTP134	ltpFR	6	6	n/a	STOVE	1388	0	n/a	n/a	n/a	n/a	n/a	n/a	n/a
3628364	RECOG_CONF	n/a	LTP134	ltpFR	6	6	n/a	STOVE	1388	n/a	1	n/a	n/a	n/a	n/a	n/a	n/a
3629768	RECOG_TARGET	n/a	LTP134	ltpFR	6	6	0	PERMIT	1051	1	3	1	n/a	n/a	n/a	n/a	n/a
3630694	RECOG_RESP	n/a	LTP134	ltpFR	6	6	0	PERMIT	1051	1	n/a	1	n/a	n/a	n/a	n/a	n/a
3631570	RECOG_CONF	n/a	LTP134	ltpFR	6	6	0	PERMIT	1051	n/a	3	1	n/a	n/a	n/a	n/a	n/a
3633492	RECOG_TARGET	n/a	LTP134	ltpFR	6	6	0	BEAN	105	1	4	0	n/a	n/a	n/a	n/a	n/a
3634209	RECOG_RESP	n/a	LTP134	ltpFR	6	6	0	BEAN	105	1	n/a	0	n/a	n/a	n/a	n/a	n/a
3635029	RECOG_CONF	n/a	LTP134	ltpFR	6	6	0	BEAN	105	n/a	4	0	n/a	n/a	n/a	n/a	n/a
3636690	RECOG_TARGET	n/a	LTP134	ltpFR	6	6	1	BUTTER	205	1	4	0	n/a	n/a	n/a	n/a	n/a
3637378	RECOG_RESP	n/a	LTP134	ltpFR	6	6	1	BUTTER	205	1	n/a	0	n/a	n/a	n/a	n/a	n/a
3638062	RECOG_CONF	n/a	LTP134	ltpFR	6	6	1	BUTTER	205	n/a	4	0	n/a	n/a	n/a	n/a	n/a
3639731	RECOG_TARGET	n/a	LTP134	ltpFR	6	6	0	SCIENTIST	1249	1	5	1	n/a	n/a	n/a	n/a	n/a
3640648	RECOG_RESP	n/a	LTP134	ltpFR	6	6	0	SCIENTIST	1249	1	n/a	1	n/a	n/a	n/a	n/a	n/a
3641404	RECOG_CONF	n/a	LTP134	ltpFR	6	6	0	SCIENTIST	1249	n/a	5	1	n/a	n/a	n/a	n/a	n/a
3643105	RECOG_TARGET	n/a	LTP134	ltpFR	6	6	0	TRAY	1498	1	5	1	n/a	n/a	n/a	n/a	n/a
3643739	RECOG_RESP	n/a	LTP134	ltpFR	6	6	0	TRAY	1498	1	n/a	1	n/a	n/a	n/a	n/a	n/a
3644427	RECOG_CONF	n/a	LTP134	ltpFR	6	6	0	TRAY	1498	n/a	5	1	n/a	n/a	n/a	n/a	n/a
3648786	REC_START	n/a	LTP134	ltpFR	6	7	n/a	n/a	n/a	n/a	n/a	n/a	n/a	n/a	n/a	n/a	n/a
3648819	RECOG_TARGET	n/a	LTP134	ltpFR	6	7	-1	CAT	257	1	5	-1	n/a	n/a	n/a	n/a	n/a
3649657	RECOG_RESP	n/a	LTP134	ltpFR	6	7	-1	CAT	257	1	n/a	-1	n/a	n/a	n/a	n/a	n/a
3650327	RECOG_CONF	n/a	LTP134	ltpFR	6	7	-1	CAT	257	n/a	5	-1	n/a	n/a	n/a	n/a	n/a
3651960	RECOG_LURE	n/a	LTP134	ltpFR	6	7	n/a	PELT	1040	0	2	n/a	n/a	n/a	n/a	n/a	n/a
3652947	RECOG_RESP	n/a	LTP134	ltpFR	6	7	n/a	PELT	1040	0	n/a	n/a	n/a	n/a	n/a	n/a	n/a
3654124	RECOG_CONF	n/a	LTP134	ltpFR	6	7	n/a	PELT	1040	n/a	2	n/a	n/a	n/a	n/a	n/a	n/a
3655750	RECOG_LURE	n/a	LTP134	ltpFR	6	7	n/a	PUZZLE	1146	0	3	n/a	n/a	n/a	n/a	n/a	n/a
3656537	RECOG_RESP	n/a	LTP134	ltpFR	6	7	n/a	PUZZLE	1146	0	n/a	n/a	n/a	n/a	n/a	n/a	n/a
3657632	RECOG_CONF	n/a	LTP134	ltpFR	6	7	n/a	PUZZLE	1146	n/a	3	n/a	n/a	n/a	n/a	n/a	n/a
3659108	RECOG_LURE	n/a	LTP134	ltpFR	6	7	n/a	TUBE	1516	0	3	n/a	n/a	n/a	n/a	n/a	n/a
3660425	RECOG_RESP	n/a	LTP134	ltpFR	6	7	n/a	TUBE	1516	0	n/a	n/a	n/a	n/a	n/a	n/a	n/a
3661335	RECOG_CONF	n/a	LTP134	ltpFR	6	7	n/a	TUBE	1516	n/a	3	n/a	n/a	n/a	n/a	n/a	n/a
3662939	RECOG_TARGET	n/a	LTP134	ltpFR	6	7	0	CLAM	315	1	3	1	n/a	n/a	n/a	n/a	n/a
3663724	RECOG_RESP	n/a	LTP134	ltpFR	6	7	0	CLAM	315	1	n/a	1	n/a	n/a	n/a	n/a	n/a
3664908	RECOG_CONF	n/a	LTP134	ltpFR	6	7	0	CLAM	315	n/a	3	1	n/a	n/a	n/a	n/a	n/a
3666505	RECOG_TARGET	n/a	LTP134	ltpFR	6	7	1	CARAVAN	242	1	5	0	n/a	n/a	n/a	n/a	n/a
3667280	RECOG_RESP	n/a	LTP134	ltpFR	6	7	1	CARAVAN	242	1	n/a	0	n/a	n/a	n/a	n/a	n/a
3668066	RECOG_CONF	n/a	LTP134	ltpFR	6	7	1	CARAVAN	242	n/a	5	0	n/a	n/a	n/a	n/a	n/a
3669845	RECOG_TARGET	n/a	LTP134	ltpFR	6	7	0	GOVERNOR	651	0	2	1	n/a	n/a	n/a	n/a	n/a
3670810	RECOG_RESP	n/a	LTP134	ltpFR	6	7	0	GOVERNOR	651	0	n/a	1	n/a	n/a	n/a	n/a	n/a
3671741	RECOG_CONF	n/a	LTP134	ltpFR	6	7	0	GOVERNOR	651	n/a	2	1	n/a	n/a	n/a	n/a	n/a
3673444	RECOG_TARGET	n/a	LTP134	ltpFR	6	7	1	COOK	372	1	3	0	n/a	n/a	n/a	n/a	n/a
3674425	RECOG_RESP	n/a	LTP134	ltpFR	6	7	1	COOK	372	1	n/a	0	n/a	n/a	n/a	n/a	n/a
3675318	RECOG_CONF	n/a	LTP134	ltpFR	6	7	1	COOK	372	n/a	3	0	n/a	n/a	n/a	n/a	n/a
3676818	RECOG_TARGET	n/a	LTP134	ltpFR	6	7	0	MARKET	871	1	4	1	n/a	n/a	n/a	n/a	n/a
3677513	RECOG_RESP	n/a	LTP134	ltpFR	6	7	0	MARKET	871	1	n/a	1	n/a	n/a	n/a	n/a	n/a
3678283	RECOG_CONF	n/a	LTP134	ltpFR	6	7	0	MARKET	871	n/a	4	1	n/a	n/a	n/a	n/a	n/a
3679850	RECOG_TARGET	n/a	LTP134	ltpFR	6	7	1	KIDNEY	776	0	1	1	n/a	n/a	n/a	n/a	n/a
3680798	RECOG_RESP	n/a	LTP134	ltpFR	6	7	1	KIDNEY	776	0	n/a	1	n/a	n/a	n/a	n/a	n/a
3682288	RECOG_CONF	n/a	LTP134	ltpFR	6	7	1	KIDNEY	776	n/a	1	1	n/a	n/a	n/a	n/a	n/a
3683982	RECOG_TARGET	n/a	LTP134	ltpFR	6	7	-1	FLASHLIGHT	575	1	3	-1	n/a	n/a	n/a	n/a	n/a
3686336	RECOG_RESP	n/a	LTP134	ltpFR	6	7	-1	FLASHLIGHT	575	1	n/a	-1	n/a	n/a	n/a	n/a	n/a
3687298	RECOG_CONF	n/a	LTP134	ltpFR	6	7	-1	FLASHLIGHT	575	n/a	3	-1	n/a	n/a	n/a	n/a	n/a
3688805	RECOG_TARGET	n/a	LTP134	ltpFR	6	7	0	GLOVE	642	1	4	0	n/a	n/a	n/a	n/a	n/a
3689992	RECOG_RESP	n/a	LTP134	ltpFR	6	7	0	GLOVE	642	1	n/a	0	n/a	n/a	n/a	n/a	n/a
3690945	RECOG_CONF	n/a	LTP134	ltpFR	6	7	0	GLOVE	642	n/a	4	0	n/a	n/a	n/a	n/a	n/a
3692687	RECOG_TARGET	n/a	LTP134	ltpFR	6	7	0	PEARL	1034	1	3	0	n/a	n/a	n/a	n/a	n/a
3693418	RECOG_RESP	n/a	LTP134	ltpFR	6	7	0	PEARL	1034	1	n/a	0	n/a	n/a	n/a	n/a	n/a
3694489	RECOG_CONF	n/a	LTP134	ltpFR	6	7	0	PEARL	1034	n/a	3	0	n/a	n/a	n/a	n/a	n/a
3696003	RECOG_TARGET	n/a	LTP134	ltpFR	6	7	1	WHEEL	1603	1	3	0	n/a	n/a	n/a	n/a	n/a
3696662	RECOG_RESP	n/a	LTP134	ltpFR	6	7	1	WHEEL	1603	1	n/a	0	n/a	n/a	n/a	n/a	n/a
3697485	RECOG_CONF	n/a	LTP134	ltpFR	6	7	1	WHEEL	1603	n/a	3	0	n/a	n/a	n/a	n/a	n/a
3698977	RECOG_TARGET	n/a	LTP134	ltpFR	6	7	-1	WATER	1594	1	4	-1	n/a	n/a	n/a	n/a	n/a
3700465	RECOG_RESP	n/a	LTP134	ltpFR	6	7	-1	WATER	1594	1	n/a	-1	n/a	n/a	n/a	n/a	n/a
3701615	RECOG_CONF	n/a	LTP134	ltpFR	6	7	-1	WATER	1594	n/a	4	-1	n/a	n/a	n/a	n/a	n/a
3703242	RECOG_TARGET	n/a	LTP134	ltpFR	6	7	0	ORCHID	982	1	4	0	n/a	n/a	n/a	n/a	n/a
3704138	RECOG_RESP	n/a	LTP134	ltpFR	6	7	0	ORCHID	982	1	n/a	0	n/a	n/a	n/a	n/a	n/a
3704933	RECOG_CONF	n/a	LTP134	ltpFR	6	7	0	ORCHID	982	n/a	4	0	n/a	n/a	n/a	n/a	n/a
3706641	RECOG_TARGET	n/a	LTP134	ltpFR	6	7	-1	SHELTER	1282	0	2	-1	n/a	n/a	n/a	n/a	n/a
3707783	RECOG_RESP	n/a	LTP134	ltpFR	6	7	-1	SHELTER	1282	0	n/a	-1	n/a	n/a	n/a	n/a	n/a
3708750	RECOG_CONF	n/a	LTP134	ltpFR	6	7	-1	SHELTER	1282	n/a	2	-1	n/a	n/a	n/a	n/a	n/a
3710331	RECOG_TARGET	n/a	LTP134	ltpFR	6	7	0	SHEET	1279	1	3	0	n/a	n/a	n/a	n/a	n/a
3711571	RECOG_RESP	n/a	LTP134	ltpFR	6	7	0	SHEET	1279	1	n/a	0	n/a	n/a	n/a	n/a	n/a
3712878	RECOG_CONF	n/a	LTP134	ltpFR	6	7	0	SHEET	1279	n/a	3	0	n/a	n/a	n/a	n/a	n/a
3714513	RECOG_TARGET	n/a	LTP134	ltpFR	6	7	0	THERMOMETER	1453	1	4	0	n/a	n/a	n/a	n/a	n/a
3715248	RECOG_RESP	n/a	LTP134	ltpFR	6	7	0	THERMOMETER	1453	1	n/a	0	n/a	n/a	n/a	n/a	n/a
3716187	RECOG_CONF	n/a	LTP134	ltpFR	6	7	0	THERMOMETER	1453	n/a	4	0	n/a	n/a	n/a	n/a	n/a
3717737	RECOG_TARGET	n/a	LTP134	ltpFR	6	7	1	LAPEL	800	1	4	0	n/a	n/a	n/a	n/a	n/a
3718445	RECOG_RESP	n/a	LTP134	ltpFR	6	7	1	LAPEL	800	1	n/a	0	n/a	n/a	n/a	n/a	n/a
3719200	RECOG_CONF	n/a	LTP134	ltpFR	6	7	1	LAPEL	800	n/a	4	0	n/a	n/a	n/a	n/a	n/a
3741241	REC_START	n/a	LTP134	ltpFR	6	8	n/a	n/a	n/a	n/a	n/a	n/a	n/a	n/a	n/a	n/a	n/a
3741278	RECOG_LURE	n/a	LTP134	ltpFR	6	8	n/a	RIFLE	1192	0	2	n/a	n/a	n/a	n/a	n/a	n/a
3742672	RECOG_RESP	n/a	LTP134	ltpFR	6	8	n/a	RIFLE	1192	0	n/a	n/a	n/a	n/a	n/a	n/a	n/a
3743773	RECOG_CONF	n/a	LTP134	ltpFR	6	8	n/a	RIFLE	1192	n/a	2	n/a	n/a	n/a	n/a	n/a	n/a
3745277	RECOG_TARGET	n/a	LTP134	ltpFR	6	8	1	DOVE	491	1	4	0	n/a	n/a	n/a	n/a	n/a
3746104	RECOG_RESP	n/a	LTP134	ltpFR	6	8	1	DOVE	491	1	n/a	0	n/a	n/a	n/a	n/a	n/a
3746952	RECOG_CONF	n/a	LTP134	ltpFR	6	8	1	DOVE	491	n/a	4	0	n/a	n/a	n/a	n/a	n/a
3748626	RECOG_LURE	n/a	LTP134	ltpFR	6	8	n/a	MERMAID	887	0	3	n/a	n/a	n/a	n/a	n/a	n/a
3749466	RECOG_RESP	n/a	LTP134	ltpFR	6	8	n/a	MERMAID	887	0	n/a	n/a	n/a	n/a	n/a	n/a	n/a
3750659	RECOG_CONF	n/a	LTP134	ltpFR	6	8	n/a	MERMAID	887	n/a	3	n/a	n/a	n/a	n/a	n/a	n/a
3752258	RECOG_TARGET	n/a	LTP134	ltpFR	6	8	1	DUCK	504	1	3	1	n/a	n/a	n/a	n/a	n/a
3752914	RECOG_RESP	n/a	LTP134	ltpFR	6	8	1	DUCK	504	1	n/a	1	n/a	n/a	n/a	n/a	n/a
3754044	RECOG_CONF	n/a	LTP134	ltpFR	6	8	1	DUCK	504	n/a	3	1	n/a	n/a	n/a	n/a	n/a
3755565	RECOG_TARGET	n/a	LTP134	ltpFR	6	8	0	SHEEP	1278	1	2	1	n/a	n/a	n/a	n/a	n/a
3756546	RECOG_RESP	n/a	LTP134	ltpFR	6	8	0	SHEEP	1278	1	n/a	1	n/a	n/a	n/a	n/a	n/a
3757540	RECOG_CONF	n/a	LTP134	ltpFR	6	8	0	SHEEP	1278	n/a	2	1	n/a	n/a	n/a	n/a	n/a
3759197	RECOG_TARGET	n/a	LTP134	ltpFR	6	8	0	GUEST	669	1	3	1	n/a	n/a	n/a	n/a	n/a
3759816	RECOG_RESP	n/a	LTP134	ltpFR	6	8	0	GUEST	669	1	n/a	1	n/a	n/a	n/a	n/a	n/a
3760889	RECOG_CONF	n/a	LTP134	ltpFR	6	8	0	GUEST	669	n/a	3	1	n/a	n/a	n/a	n/a	n/a
3762496	RECOG_TARGET	n/a	LTP134	ltpFR	6	8	0	SHOELACE	1289	1	4	0	n/a	n/a	n/a	n/a	n/a
3763240	RECOG_RESP	n/a	LTP134	ltpFR	6	8	0	SHOELACE	1289	1	n/a	0	n/a	n/a	n/a	n/a	n/a
3764074	RECOG_CONF	n/a	LTP134	ltpFR	6	8	0	SHOELACE	1289	n/a	4	0	n/a	n/a	n/a	n/a	n/a
3765661	RECOG_TARGET	n/a	LTP134	ltpFR	6	8	1	PILLOW	1069	1	3	0	n/a	n/a	n/a	n/a	n/a
3766743	RECOG_RESP	n/a	LTP134	ltpFR	6	8	1	PILLOW	1069	1	n/a	0	n/a	n/a	n/a	n/a	n/a
3767670	RECOG_CONF	n/a	LTP134	ltpFR	6	8	1	PILLOW	1069	n/a	3	0	n/a	n/a	n/a	n/a	n/a
3769352	RECOG_LURE	n/a	LTP134	ltpFR	6	8	n/a	PECAN	1036	1	1	n/a	n/a	n/a	n/a	n/a	n/a
3771038	RECOG_RESP	n/a	LTP134	ltpFR	6	8	n/a	PECAN	1036	1	n/a	n/a	n/a	n/a	n/a	n/a	n/a
3772179	RECOG_CONF	n/a	LTP134	ltpFR	6	8	n/a	PECAN	1036	n/a	1	n/a	n/a	n/a	n/a	n/a	n/a
3773850	RECOG_TARGET	n/a	LTP134	ltpFR	6	8	-1	BERRY	122	0	1	-1	n/a	n/a	n/a	n/a	n/a
3775281	RECOG_RESP	n/a	LTP134	ltpFR	6	8	-1	BERRY	122	0	n/a	-1	n/a	n/a	n/a	n/a	n/a
3776414	RECOG_CONF	n/a	LTP134	ltpFR	6	8	-1	BERRY	122	n/a	1	-1	n/a	n/a	n/a	n/a	n/a
3778099	RECOG_LURE	n/a	LTP134	ltpFR	6	8	n/a	UNIVERSE	1540	0	2	n/a	n/a	n/a	n/a	n/a	n/a
3779069	RECOG_RESP	n/a	LTP134	ltpFR	6	8	n/a	UNIVERSE	1540	0	n/a	n/a	n/a	n/a	n/a	n/a	n/a
3780132	RECOG_CONF	n/a	LTP134	ltpFR	6	8	n/a	UNIVERSE	1540	n/a	2	n/a	n/a	n/a	n/a	n/a	n/a
3781772	RECOG_TARGET	n/a	LTP134	ltpFR	6	8	-1	GRAPE	654	0	3	-1	n/a	n/a	n/a	n/a	n/a
3782546	RECOG_RESP	n/a	LTP134	ltpFR	6	8	-1	GRAPE	654	0	n/a	-1	n/a	n/a	n/a	n/a	n/a
3783534	RECOG_CONF	n/a	LTP134	ltpFR	6	8	-1	GRAPE	654	n/a	3	-1	n/a	n/a	n/a	n/a	n/a
3785221	RECOG_TARGET	n/a	LTP134	ltpFR	6	8	-1	THIGH	1457	1	4	-1	n/a	n/a	n/a	n/a	n/a
3786237	RECOG_RESP	n/a	LTP134	ltpFR	6	8	-1	THIGH	1457	1	n/a	-1	n/a	n/a	n/a	n/a	n/a
3787015	RECOG_CONF	n/a	LTP134	ltpFR	6	8	-1	THIGH	1457	n/a	4	-1	n/a	n/a	n/a	n/a	n/a
3788720	RECOG_TARGET	n/a	LTP134	ltpFR	6	8	1	COYOTE	396	1	n/a	1	n/a	n/a	n/a	n/a	n/a
3789810	RECOG_RESP_VV	n/a	LTP134	ltpFR	6	8	1	COYOTE	396	0	n/a	1	n/a	n/a	n/a	n/a	n/a
3790944	RECOG_RESP	n/a	LTP134	ltpFR	6	8	1	COYOTE	396	1	n/a	1	n/a	n/a	n/a	n/a	n/a
3792568	RECOG_TARGET	n/a	LTP134	ltpFR	6	8	0	LOFT	840	1	4	1	n/a	n/a	n/a	n/a	n/a
3793337	RECOG_RESP	n/a	LTP134	ltpFR	6	8	0	LOFT	840	1	n/a	1	n/a	n/a	n/a	n/a	n/a
3794195	RECOG_CONF	n/a	LTP134	ltpFR	6	8	0	LOFT	840	n/a	4	1	n/a	n/a	n/a	n/a	n/a
3795767	RECOG_TARGET	n/a	LTP134	ltpFR	6	8	1	CAGE	218	1	3	0	n/a	n/a	n/a	n/a	n/a
3796475	RECOG_RESP	n/a	LTP134	ltpFR	6	8	1	CAGE	218	1	n/a	0	n/a	n/a	n/a	n/a	n/a
3797382	RECOG_CONF	n/a	LTP134	ltpFR	6	8	1	CAGE	218	n/a	3	0	n/a	n/a	n/a	n/a	n/a
3798883	RECOG_TARGET	n/a	LTP134	ltpFR	6	8	0	COD	340	1	5	0	n/a	n/a	n/a	n/a	n/a
3799721	RECOG_RESP	n/a	LTP134	ltpFR	6	8	0	COD	340	1	n/a	0	n/a	n/a	n/a	n/a	n/a
3800536	RECOG_CONF	n/a	LTP134	ltpFR	6	8	0	COD	340	n/a	5	0	n/a	n/a	n/a	n/a	n/a
3802107	RECOG_TARGET	n/a	LTP134	ltpFR	6	8	0	BUYER	208	1	5	1	n/a	n/a	n/a	n/a	n/a
3802831	RECOG_RESP	n/a	LTP134	ltpFR	6	8	0	BUYER	208	1	n/a	1	n/a	n/a	n/a	n/a	n/a
3803654	RECOG_CONF	n/a	LTP134	ltpFR	6	8	0	BUYER	208	n/a	5	1	n/a	n/a	n/a	n/a	n/a
3805172	RECOG_TARGET	n/a	LTP134	ltpFR	6	8	0	SUN	1406	1	5	1	n/a	n/a	n/a	n/a	n/a
3805989	RECOG_RESP	n/a	LTP134	ltpFR	6	8	0	SUN	1406	1	n/a	1	n/a	n/a	n/a	n/a	n/a
3806756	RECOG_CONF	n/a	LTP134	ltpFR	6	8	0	SUN	1406	n/a	5	1	n/a	n/a	n/a	n/a	n/a
3808488	RECOG_TARGET	n/a	LTP134	ltpFR	6	8	-1	PICK	1058	0	2	-1	n/a	n/a	n/a	n/a	n/a
3809606	RECOG_RESP	n/a	LTP134	ltpFR	6	8	-1	PICK	1058	0	n/a	-1	n/a	n/a	n/a	n/a	n/a
3811027	RECOG_CONF	n/a	LTP134	ltpFR	6	8	-1	PICK	1058	n/a	2	-1	n/a	n/a	n/a	n/a	n/a
3821635	REC_START	n/a	LTP134	ltpFR	6	9	n/a	n/a	n/a	n/a	n/a	n/a	n/a	n/a	n/a	n/a	n/a
3821666	RECOG_TARGET	n/a	LTP134	ltpFR	6	9	-1	BILL	126	1	4	-1	n/a	n/a	n/a	n/a	n/a
3822480	RECOG_RESP	n/a	LTP134	ltpFR	6	9	-1	BILL	126	1	n/a	-1	n/a	n/a	n/a	n/a	n/a
3823316	RECOG_CONF	n/a	LTP134	ltpFR	6	9	-1	BILL	126	n/a	4	-1	n/a	n/a	n/a	n/a	n/a
3825032	RECOG_TARGET	n/a	LTP134	ltpFR	6	9	1	PEN	1041	1	4	0	n/a	n/a	n/a	n/a	n/a
3825795	RECOG_RESP	n/a	LTP134	ltpFR	6	9	1	PEN	1041	1	n/a	0	n/a	n/a	n/a	n/a	n/a
3826589	RECOG_CONF	n/a	LTP134	ltpFR	6	9	1	PEN	1041	n/a	4	0	n/a	n/a	n/a	n/a	n/a
3828189	RECOG_TARGET	n/a	LTP134	ltpFR	6	9	-1	HOSPITAL	721	1	4	-1	n/a	n/a	n/a	n/a	n/a
3828758	RECOG_RESP	n/a	LTP134	ltpFR	6	9	-1	HOSPITAL	721	1	n/a	-1	n/a	n/a	n/a	n/a	n/a
3829552	RECOG_CONF	n/a	LTP134	ltpFR	6	9	-1	HOSPITAL	721	n/a	4	-1	n/a	n/a	n/a	n/a	n/a
3831063	RECOG_LURE	n/a	LTP134	ltpFR	6	9	n/a	TOASTER	1472	0	1	n/a	n/a	n/a	n/a	n/a	n/a
3832619	RECOG_RESP_VV	n/a	LTP134	ltpFR	6	9	n/a	TOASTER	1472	1	n/a	n/a	n/a	n/a	n/a	n/a	n/a
3833602	RECOG_RESP	n/a	LTP134	ltpFR	6	9	n/a	TOASTER	1472	0	n/a	n/a	n/a	n/a	n/a	n/a	n/a
3834545	RECOG_CONF	n/a	LTP134	ltpFR	6	9	n/a	TOASTER	1472	n/a	1	n/a	n/a	n/a	n/a	n/a	n/a
3836144	RECOG_LURE	n/a	LTP134	ltpFR	6	9	n/a	SLOPE	1328	0	1	n/a	n/a	n/a	n/a	n/a	n/a
3837335	RECOG_RESP	n/a	LTP134	ltpFR	6	9	n/a	SLOPE	1328	0	n/a	n/a	n/a	n/a	n/a	n/a	n/a
3838223	RECOG_CONF	n/a	LTP134	ltpFR	6	9	n/a	SLOPE	1328	n/a	1	n/a	n/a	n/a	n/a	n/a	n/a
3839768	RECOG_TARGET	n/a	LTP134	ltpFR	6	9	1	SKETCH	1315	1	3	0	n/a	n/a	n/a	n/a	n/a
3840441	RECOG_RESP	n/a	LTP134	ltpFR	6	9	1	SKETCH	1315	1	n/a	0	n/a	n/a	n/a	n/a	n/a
3841455	RECOG_CONF	n/a	LTP134	ltpFR	6	9	1	SKETCH	1315	n/a	3	0	n/a	n/a	n/a	n/a	n/a
3843009	RECOG_TARGET	n/a	LTP134	ltpFR	6	9	-1	WAITER	1580	1	3	-1	n/a	n/a	n/a	n/a	n/a
3843947	RECOG_RESP	n/a	LTP134	ltpFR	6	9	-1	WAITER	1580	1	n/a	-1	n/a	n/a	n/a	n/a	n/a
3844883	RECOG_CONF	n/a	LTP134	ltpFR	6	9	-1	WAITER	1580	n/a	3	-1	n/a	n/a	n/a	n/a	n/a
3846433	RECOG_LURE	n/a	LTP134	ltpFR	6	9	n/a	SUNRISE	1407	0	2	n/a	n/a	n/a	n/a	n/a	n/a
3847429	RECOG_RESP	n/a	LTP134	ltpFR	6	9	n/a	SUNRISE	1407	0	n/a	n/a	n/a	n/a	n/a	n/a	n/a
3848815	RECOG_CONF	n/a	LTP134	ltpFR	6	9	n/a	SUNRISE	1407	n/a	2	n/a	n/a	n/a	n/a	n/a	n/a
3850381	RECOG_TARGET	n/a	LTP134	ltpFR	6	9	0	BRUISE	180	1	4	1	n/a	n/a	n/a	n/a	n/a
3851138	RECOG_RESP	n/a	LTP134	ltpFR	6	9	0	BRUISE	180	1	n/a	1	n/a	n/a	n/a	n/a	n/a
3852045	RECOG_CONF	n/a	LTP134	ltpFR	6	9	0	BRUISE	180	n/a	4	1	n/a	n/a	n/a	n/a	n/a
3853763	RECOG_TARGET	n/a	LTP134	ltpFR	6	9	0	REEF	1177	1	2	1	n/a	n/a	n/a	n/a	n/a
3855069	RECOG_RESP	n/a	LTP134	ltpFR	6	9	0	REEF	1177	1	n/a	1	n/a	n/a	n/a	n/a	n/a
3856035	RECOG_CONF	n/a	LTP134	ltpFR	6	9	0	REEF	1177	n/a	2	1	n/a	n/a	n/a	n/a	n/a
3857554	RECOG_LURE	n/a	LTP134	ltpFR	6	9	n/a	JAR	750	1	2	n/a	n/a	n/a	n/a	n/a	n/a
3858467	RECOG_RESP	n/a	LTP134	ltpFR	6	9	n/a	JAR	750	1	n/a	n/a	n/a	n/a	n/a	n/a	n/a
3859948	RECOG_CONF	n/a	LTP134	ltpFR	6	9	n/a	JAR	750	n/a	2	n/a	n/a	n/a	n/a	n/a	n/a
3861536	RECOG_TARGET	n/a	LTP134	ltpFR	6	9	-1	DIME	466	1	2	-1	n/a	n/a	n/a	n/a	n/a
3862128	RECOG_RESP	n/a	LTP134	ltpFR	6	9	-1	DIME	466	1	n/a	-1	n/a	n/a	n/a	n/a	n/a
3863191	RECOG_CONF	n/a	LTP134	ltpFR	6	9	-1	DIME	466	n/a	2	-1	n/a	n/a	n/a	n/a	n/a
3864826	RECOG_LURE	n/a	LTP134	ltpFR	6	9	n/a	BEE	112	0	2	n/a	n/a	n/a	n/a	n/a	n/a
3865597	RECOG_RESP	n/a	LTP134	ltpFR	6	9	n/a	BEE	112	0	n/a	n/a	n/a	n/a	n/a	n/a	n/a
3866705	RECOG_CONF	n/a	LTP134	ltpFR	6	9	n/a	BEE	112	n/a	2	n/a	n/a	n/a	n/a	n/a	n/a
3868242	RECOG_LURE	n/a	LTP134	ltpFR	6	9	n/a	WAIST	1579	0	1	n/a	n/a	n/a	n/a	n/a	n/a
3869138	RECOG_RESP	n/a	LTP134	ltpFR	6	9	n/a	WAIST	1579	0	n/a	n/a	n/a	n/a	n/a	n/a	n/a
3870045	RECOG_CONF	n/a	LTP134	ltpFR	6	9	n/a	WAIST	1579	n/a	1	n/a	n/a	n/a	n/a	n/a	n/a
3871457	RECOG_TARGET	n/a	LTP134	ltpFR	6	9	1	COMEDIAN	352	1	2	1	n/a	n/a	n/a	n/a	n/a
3872574	RECOG_RESP	n/a	LTP134	ltpFR	6	9	1	COMEDIAN	352	1	n/a	1	n/a	n/a	n/a	n/a	n/a
3874450	RECOG_CONF	n/a	LTP134	ltpFR	6	9	1	COMEDIAN	352	n/a	2	1	n/a	n/a	n/a	n/a	n/a
3876172	RECOG_TARGET	n/a	LTP134	ltpFR	6	9	1	FRECKLE	602	1	3	0	n/a	n/a	n/a	n/a	n/a
3876964	RECOG_RESP	n/a	LTP134	ltpFR	6	9	1	FRECKLE	602	1	n/a	0	n/a	n/a	n/a	n/a	n/a
3877898	RECOG_CONF	n/a	LTP134	ltpFR	6	9	1	FRECKLE	602	n/a	3	0	n/a	n/a	n/a	n/a	n/a
3879446	RECOG_TARGET	n/a	LTP134	ltpFR	6	9	1	SKELETON	1314	1	4	0	n/a	n/a	n/a	n/a	n/a
3880374	RECOG_RESP	n/a	LTP134	ltpFR	6	9	1	SKELETON	1314	1	n/a	0	n/a	n/a	n/a	n/a	n/a
3881124	RECOG_CONF	n/a	LTP134	ltpFR	6	9	1	SKELETON	1314	n/a	4	0	n/a	n/a	n/a	n/a	n/a
3882653	RECOG_LURE	n/a	LTP134	ltpFR	6	9	n/a	CHAPEL	280	0	1	n/a	n/a	n/a	n/a	n/a	n/a
3883547	RECOG_RESP	n/a	LTP134	ltpFR	6	9	n/a	CHAPEL	280	0	n/a	n/a	n/a	n/a	n/a	n/a	n/a
3884637	RECOG_CONF	n/a	LTP134	ltpFR	6	9	n/a	CHAPEL	280	n/a	1	n/a	n/a	n/a	n/a	n/a	n/a
3886293	RECOG_TARGET	n/a	LTP134	ltpFR	6	9	-1	RUNNER	1218	1	3	-1	n/a	n/a	n/a	n/a	n/a
3887373	RECOG_RESP	n/a	LTP134	ltpFR	6	9	-1	RUNNER	1218	1	n/a	-1	n/a	n/a	n/a	n/a	n/a
3888432	RECOG_CONF	n/a	LTP134	ltpFR	6	9	-1	RUNNER	1218	n/a	3	-1	n/a	n/a	n/a	n/a	n/a
3889975	RECOG_LURE	n/a	LTP134	ltpFR	6	9	n/a	INFANT	737	0	3	n/a	n/a	n/a	n/a	n/a	n/a
3891053	RECOG_RESP	n/a	LTP134	ltpFR	6	9	n/a	INFANT	737	0	n/a	n/a	n/a	n/a	n/a	n/a	n/a
