onset	duration	trial_type	sample	stim_file	subject	experiment	session	trial	item_name	item_num	list	answer	test_x	test_y	test_z
223.38525390625	n/a	SESS_START	457493	n/a	LTP378	ltpFR2	11	n/a	n/a	n/a	n/a	n/a	0	0	0
240.67138671875	n/a	START	492895	n/a	LTP378	ltpFR2	11	n/a	n/a	n/a	-1	n/a	n/a	n/a	n/a
240.70263671875	n/a	PROB	492959	n/a	LTP378	ltpFR2	11	n/a	n/a	n/a	-1	21	9	3	9
244.13427734375	n/a	PROB	499987	n/a	LTP378	ltpFR2	11	n/a	n/a	n/a	-1	16	2	6	8
246.0673828125	n/a	PROB	503946	n/a	LTP378	ltpFR2	11	n/a	n/a	n/a	-1	15	7	5	3
247.7685546875	n/a	PROB	507430	n/a	LTP378	ltpFR2	11	n/a	n/a	n/a	-1	23	8	7	8
251.35107421875	n/a	STOP	514767	n/a	LTP378	ltpFR2	11	n/a	n/a	n/a	-1	n/a	n/a	n/a	n/a
284.26611328125	n/a	WORD	582177	wordpools/wasnorm_wordpool_576.txt	LTP378	ltpFR2	11	1	BASEMENT	94	n/a	n/a	0	0	0
286.96533203125	n/a	WORD	587705	wordpools/wasnorm_wordpool_576.txt	LTP378	ltpFR2	11	1	SKILLET	1317	n/a	n/a	0	0	0
289.38232421875	n/a	WORD	592655	wordpools/wasnorm_wordpool_576.txt	LTP378	ltpFR2	11	1	HANDBAG	684	n/a	n/a	0	0	0
292.19921875	n/a	WORD	598424	wordpools/wasnorm_wordpool_576.txt	LTP378	ltpFR2	11	1	VENUS	1557	n/a	n/a	0	0	0
294.9150390625	n/a	WORD	603986	wordpools/wasnorm_wordpool_576.txt	LTP378	ltpFR2	11	1	CELLAR	267	n/a	n/a	0	0	0
297.515625	n/a	WORD	609312	wordpools/wasnorm_wordpool_576.txt	LTP378	ltpFR2	11	1	COMPASS	358	n/a	n/a	0	0	0
300.31494140625	n/a	WORD	615045	wordpools/wasnorm_wordpool_576.txt	LTP378	ltpFR2	11	1	CLAM	315	n/a	n/a	0	0	0
303.08154296875	n/a	WORD	620711	wordpools/wasnorm_wordpool_576.txt	LTP378	ltpFR2	11	1	SNAKE	1333	n/a	n/a	0	0	0
305.765625	n/a	WORD	626208	wordpools/wasnorm_wordpool_576.txt	LTP378	ltpFR2	11	1	MONEY	908	n/a	n/a	0	0	0
308.515625	n/a	WORD	631840	wordpools/wasnorm_wordpool_576.txt	LTP378	ltpFR2	11	1	AGENT	10	n/a	n/a	0	0	0
311.13134765625	n/a	WORD	637197	wordpools/wasnorm_wordpool_576.txt	LTP378	ltpFR2	11	1	THREAD	1460	n/a	n/a	0	0	0
313.74853515625	n/a	WORD	642557	wordpools/wasnorm_wordpool_576.txt	LTP378	ltpFR2	11	1	SPOOL	1356	n/a	n/a	0	0	0
316.51513671875	n/a	WORD	648223	wordpools/wasnorm_wordpool_576.txt	LTP378	ltpFR2	11	1	PARROT	1015	n/a	n/a	0	0	0
319.2470703125	n/a	WORD	653818	wordpools/wasnorm_wordpool_576.txt	LTP378	ltpFR2	11	1	AIRPLANE	12	n/a	n/a	0	0	0
321.748046875	n/a	WORD	658940	wordpools/wasnorm_wordpool_576.txt	LTP378	ltpFR2	11	1	GROUND	666	n/a	n/a	0	0	0
324.34716796875	n/a	WORD	664263	wordpools/wasnorm_wordpool_576.txt	LTP378	ltpFR2	11	1	SLIME	1327	n/a	n/a	0	0	0
326.98095703125	n/a	WORD	669657	wordpools/wasnorm_wordpool_576.txt	LTP378	ltpFR2	11	1	PIMPLE	1071	n/a	n/a	0	0	0
329.64794921875	n/a	WORD	675119	wordpools/wasnorm_wordpool_576.txt	LTP378	ltpFR2	11	1	MAILMAN	858	n/a	n/a	0	0	0
332.31396484375	n/a	WORD	680579	wordpools/wasnorm_wordpool_576.txt	LTP378	ltpFR2	11	1	SUMMIT	1405	n/a	n/a	0	0	0
334.9638671875	n/a	WORD	686006	wordpools/wasnorm_wordpool_576.txt	LTP378	ltpFR2	11	1	PERCH	1048	n/a	n/a	0	0	0
337.69775390625	n/a	WORD	691605	wordpools/wasnorm_wordpool_576.txt	LTP378	ltpFR2	11	1	WAITRESS	1581	n/a	n/a	0	0	0
340.37939453125	n/a	WORD	697097	wordpools/wasnorm_wordpool_576.txt	LTP378	ltpFR2	11	1	PICNIC	1060	n/a	n/a	0	0	0
343.09619140625	n/a	WORD	702661	wordpools/wasnorm_wordpool_576.txt	LTP378	ltpFR2	11	1	TRACTOR	1493	n/a	n/a	0	0	0
345.73046875	n/a	WORD	708056	wordpools/wasnorm_wordpool_576.txt	LTP378	ltpFR2	11	1	MARSH	874	n/a	n/a	0	0	0
347.34619140625	n/a	START	711365	n/a	LTP378	ltpFR2	11	n/a	n/a	n/a	1	n/a	n/a	n/a	n/a
348.451171875	n/a	DISTRACTOR	713628	n/a	LTP378	ltpFR2	11	1	n/a	n/a	n/a	n/a	0	0	0
348.46337890625	n/a	PROB	713653	n/a	LTP378	ltpFR2	11	n/a	n/a	n/a	1	15	5	3	7
350.61328125	n/a	PROB	718056	n/a	LTP378	ltpFR2	11	n/a	n/a	n/a	1	10	5	3	2
354.830078125	n/a	PROB	726692	n/a	LTP378	ltpFR2	11	n/a	n/a	n/a	1	14	5	2	7
356.94580078125	n/a	PROB	731025	n/a	LTP378	ltpFR2	11	n/a	n/a	n/a	1	20	4	8	8
359.5966796875	n/a	PROB	736454	n/a	LTP378	ltpFR2	11	n/a	n/a	n/a	1	12	2	4	6
361.546875	n/a	PROB	740448	n/a	LTP378	ltpFR2	11	n/a	n/a	n/a	1	13	8	4	1
363.26171875	n/a	PROB	743960	n/a	LTP378	ltpFR2	11	n/a	n/a	n/a	1	16	9	5	2
365.5126953125	n/a	PROB	748570	n/a	LTP378	ltpFR2	11	n/a	n/a	n/a	1	15	1	9	5
367.3115234375	n/a	PROB	752254	n/a	LTP378	ltpFR2	11	n/a	n/a	n/a	1	19	9	6	4
371.345703125	n/a	STOP	760516	n/a	LTP378	ltpFR2	11	n/a	n/a	n/a	1	n/a	n/a	n/a	n/a
373.2626953125	n/a	REC_START	764442	n/a	LTP378	ltpFR2	11	1	n/a	n/a	n/a	n/a	0	0	0
375.6005859375	n/a	REC_WORD	769230	wordpools/wasnorm_wordpool_576.txt	LTP378	ltpFR2	11	1	BASEMENT	94	n/a	n/a	0	0	0
376.443359375	n/a	REC_WORD	770956	wordpools/wasnorm_wordpool_576.txt	LTP378	ltpFR2	11	1	SKILLET	1317	n/a	n/a	0	0	0
378.1025390625	n/a	REC_WORD	774354	wordpools/wasnorm_wordpool_576.txt	LTP378	ltpFR2	11	1	HANDBAG	684	n/a	n/a	0	0	0
379.39111328125	n/a	REC_WORD	776993	wordpools/wasnorm_wordpool_576.txt	LTP378	ltpFR2	11	1	VENUS	1557	n/a	n/a	0	0	0
380.447265625	n/a	REC_WORD	779156	wordpools/wasnorm_wordpool_576.txt	LTP378	ltpFR2	11	1	CELLAR	267	n/a	n/a	0	0	0
386.7099609375	n/a	REC_WORD	791982	wordpools/wasnorm_wordpool_576.txt	LTP378	ltpFR2	11	1	COMPASS	358	n/a	n/a	0	0	0
396.15966796875	n/a	REC_WORD	811335	wordpools/wasnorm_wordpool_576.txt	LTP378	ltpFR2	11	1	AIRPLANE	12	n/a	n/a	0	0	0
396.81689453125	n/a	REC_WORD	812681	wordpools/wasnorm_wordpool_576.txt	LTP378	ltpFR2	11	1	GROUND	666	n/a	n/a	0	0	0
397.29296875	n/a	REC_WORD	813656	wordpools/wasnorm_wordpool_576.txt	LTP378	ltpFR2	11	1	SLIME	1327	n/a	n/a	0	0	0
400.12353515625	n/a	REC_WORD	819453	wordpools/wasnorm_wordpool_576.txt	LTP378	ltpFR2	11	1	PIMPLE	1071	n/a	n/a	0	0	0
400.6064453125	n/a	REC_WORD	820442	wordpools/wasnorm_wordpool_576.txt	LTP378	ltpFR2	11	1	MAILMAN	858	n/a	n/a	0	0	0
402.45458984375	n/a	REC_WORD	824227	wordpools/wasnorm_wordpool_576.txt	LTP378	ltpFR2	11	1	SUMMIT	1405	n/a	n/a	0	0	0
403.109375	n/a	REC_WORD	825568	wordpools/wasnorm_wordpool_576.txt	LTP378	ltpFR2	11	1	PERCH	1048	n/a	n/a	0	0	0
403.607421875	n/a	REC_WORD	826588	wordpools/wasnorm_wordpool_576.txt	LTP378	ltpFR2	11	1	WAITRESS	1581	n/a	n/a	0	0	0
417.88525390625	n/a	REC_WORD	855829	wordpools/wasnorm_wordpool_576.txt	LTP378	ltpFR2	11	1	PICNIC	1060	n/a	n/a	0	0	0
418.779296875	n/a	REC_WORD	857660	wordpools/wasnorm_wordpool_576.txt	LTP378	ltpFR2	11	1	TRACTOR	1493	n/a	n/a	0	0	0
421.10888671875	n/a	REC_WORD	862431	wordpools/wasnorm_wordpool_576.txt	LTP378	ltpFR2	11	1	MARSH	874	n/a	n/a	0	0	0
463.6748046875	n/a	DISTRACTOR	949606	n/a	LTP378	ltpFR2	11	2	n/a	n/a	n/a	n/a	0	0	0
463.6748046875	n/a	START	949606	n/a	LTP378	ltpFR2	11	n/a	n/a	n/a	2	n/a	n/a	n/a	n/a
463.69189453125	n/a	PROB	949641	n/a	LTP378	ltpFR2	11	n/a	n/a	n/a	2	6	1	3	2
467.5244140625	n/a	PROB	957490	n/a	LTP378	ltpFR2	11	n/a	n/a	n/a	2	11	7	2	2
469.5244140625	n/a	PROB	961586	n/a	LTP378	ltpFR2	11	n/a	n/a	n/a	2	16	7	7	2
473.17333984375	n/a	PROB	969059	n/a	LTP378	ltpFR2	11	n/a	n/a	n/a	2	17	5	5	7
474.8564453125	n/a	PROB	972506	n/a	LTP378	ltpFR2	11	n/a	n/a	n/a	2	17	7	1	9
477.72412109375	n/a	PROB	978379	n/a	LTP378	ltpFR2	11	n/a	n/a	n/a	2	10	2	2	6
487.6728515625	n/a	STOP	998754	n/a	LTP378	ltpFR2	11	n/a	n/a	n/a	2	n/a	n/a	n/a	n/a
488.873046875	n/a	WORD	1001212	wordpools/wasnorm_wordpool_576.txt	LTP378	ltpFR2	11	2	PEDAL	1037	n/a	n/a	0	0	0
491.373046875	n/a	WORD	1006332	wordpools/wasnorm_wordpool_576.txt	LTP378	ltpFR2	11	2	CHURCH	307	n/a	n/a	0	0	0
494.1396484375	n/a	WORD	1011998	wordpools/wasnorm_wordpool_576.txt	LTP378	ltpFR2	11	2	GLOVE	642	n/a	n/a	0	0	0
496.95556640625	n/a	WORD	1017765	wordpools/wasnorm_wordpool_576.txt	LTP378	ltpFR2	11	2	SURVEY	1414	n/a	n/a	0	0	0
499.6904296875	n/a	WORD	1023366	wordpools/wasnorm_wordpool_576.txt	LTP378	ltpFR2	11	2	SKIRT	1319	n/a	n/a	0	0	0
502.42333984375	n/a	WORD	1028963	wordpools/wasnorm_wordpool_576.txt	LTP378	ltpFR2	11	2	COUSIN	392	n/a	n/a	0	0	0
505.08837890625	n/a	WORD	1034421	wordpools/wasnorm_wordpool_576.txt	LTP378	ltpFR2	11	2	TURKEY	1520	n/a	n/a	0	0	0
507.70654296875	n/a	WORD	1039783	wordpools/wasnorm_wordpool_576.txt	LTP378	ltpFR2	11	2	FRECKLE	602	n/a	n/a	0	0	0
510.25537109375	n/a	WORD	1045003	wordpools/wasnorm_wordpool_576.txt	LTP378	ltpFR2	11	2	CABIN	211	n/a	n/a	0	0	0
512.7060546875	n/a	WORD	1050022	wordpools/wasnorm_wordpool_576.txt	LTP378	ltpFR2	11	2	JELLO	754	n/a	n/a	0	0	0
515.421875	n/a	WORD	1055584	wordpools/wasnorm_wordpool_576.txt	LTP378	ltpFR2	11	2	PUDDING	1139	n/a	n/a	0	0	0
518.15478515625	n/a	WORD	1061181	wordpools/wasnorm_wordpool_576.txt	LTP378	ltpFR2	11	2	BLUEPRINT	142	n/a	n/a	0	0	0
520.8388671875	n/a	WORD	1066678	wordpools/wasnorm_wordpool_576.txt	LTP378	ltpFR2	11	2	MARKER	870	n/a	n/a	0	0	0
523.35498046875	n/a	WORD	1071831	wordpools/wasnorm_wordpool_576.txt	LTP378	ltpFR2	11	2	TABLET	1427	n/a	n/a	0	0	0
526.1376953125	n/a	WORD	1077530	wordpools/wasnorm_wordpool_576.txt	LTP378	ltpFR2	11	2	OUTFIT	988	n/a	n/a	0	0	0
528.6884765625	n/a	WORD	1082754	wordpools/wasnorm_wordpool_576.txt	LTP378	ltpFR2	11	2	DIVER	476	n/a	n/a	0	0	0
531.25439453125	n/a	WORD	1088009	wordpools/wasnorm_wordpool_576.txt	LTP378	ltpFR2	11	2	LEOPARD	812	n/a	n/a	0	0	0
533.92041015625	n/a	WORD	1093469	wordpools/wasnorm_wordpool_576.txt	LTP378	ltpFR2	11	2	CHEMIST	292	n/a	n/a	0	0	0
536.58837890625	n/a	WORD	1098933	wordpools/wasnorm_wordpool_576.txt	LTP378	ltpFR2	11	2	FLASK	576	n/a	n/a	0	0	0
539.30322265625	n/a	WORD	1104493	wordpools/wasnorm_wordpool_576.txt	LTP378	ltpFR2	11	2	LAKE	796	n/a	n/a	0	0	0
541.8212890625	n/a	WORD	1109650	wordpools/wasnorm_wordpool_576.txt	LTP378	ltpFR2	11	2	SPOUSE	1358	n/a	n/a	0	0	0
544.47119140625	n/a	WORD	1115077	wordpools/wasnorm_wordpool_576.txt	LTP378	ltpFR2	11	2	LOVER	846	n/a	n/a	0	0	0
547.169921875	n/a	WORD	1120604	wordpools/wasnorm_wordpool_576.txt	LTP378	ltpFR2	11	2	WORKER	1621	n/a	n/a	0	0	0
549.919921875	n/a	WORD	1126236	wordpools/wasnorm_wordpool_576.txt	LTP378	ltpFR2	11	2	CROSS	413	n/a	n/a	0	0	0
551.52099609375	n/a	START	1129515	n/a	LTP378	ltpFR2	11	n/a	n/a	n/a	3	n/a	n/a	n/a	n/a
552.384765625	n/a	DISTRACTOR	1131284	n/a	LTP378	ltpFR2	11	2	n/a	n/a	n/a	n/a	0	0	0
552.38671875	n/a	PROB	1131288	n/a	LTP378	ltpFR2	11	n/a	n/a	n/a	3	23	7	7	9
559.20263671875	n/a	PROB	1145247	n/a	LTP378	ltpFR2	11	n/a	n/a	n/a	3	24	9	7	8
562.65380859375	n/a	PROB	1152315	n/a	LTP378	ltpFR2	11	n/a	n/a	n/a	3	10	1	8	1
564.2197265625	n/a	PROB	1155522	n/a	LTP378	ltpFR2	11	n/a	n/a	n/a	3	19	5	9	5
568.28564453125	n/a	PROB	1163849	n/a	LTP378	ltpFR2	11	n/a	n/a	n/a	3	16	2	7	7
574.5205078125	n/a	STOP	1176618	n/a	LTP378	ltpFR2	11	n/a	n/a	n/a	3	n/a	n/a	n/a	n/a
577.38623046875	n/a	REC_START	1182487	n/a	LTP378	ltpFR2	11	2	n/a	n/a	n/a	n/a	0	0	0
581.7041015625	n/a	REC_WORD	1191330	wordpools/wasnorm_wordpool_576.txt	LTP378	ltpFR2	11	2	PEDAL	1037	n/a	n/a	0	0	0
582.31005859375	n/a	REC_WORD	1192571	wordpools/wasnorm_wordpool_576.txt	LTP378	ltpFR2	11	2	CHURCH	307	n/a	n/a	0	0	0
584.98291015625	n/a	REC_WORD	1198045	wordpools/wasnorm_wordpool_576.txt	LTP378	ltpFR2	11	2	SKIRT	1319	n/a	n/a	0	0	0
585.73486328125	n/a	REC_WORD	1199585	wordpools/wasnorm_wordpool_576.txt	LTP378	ltpFR2	11	2	SURVEY	1414	n/a	n/a	0	0	0
588.388671875	n/a	REC_WORD	1205020	wordpools/wasnorm_wordpool_576.txt	LTP378	ltpFR2	11	2	GLOVE	642	n/a	n/a	0	0	0
590.78466796875	n/a	REC_WORD	1209927	wordpools/wasnorm_wordpool_576.txt	LTP378	ltpFR2	11	2	FRECKLE	602	n/a	n/a	0	0	0
591.671875	n/a	REC_WORD	1211744	wordpools/wasnorm_wordpool_576.txt	LTP378	ltpFR2	11	2	TURKEY	1520	n/a	n/a	0	0	0
592.3798828125	n/a	REC_WORD	1213194	wordpools/wasnorm_wordpool_576.txt	LTP378	ltpFR2	11	2	COUSIN	392	n/a	n/a	0	0	0
595.65771484375	n/a	REC_WORD	1219907	wordpools/wasnorm_wordpool_576.txt	LTP378	ltpFR2	11	2	CABIN	211	n/a	n/a	0	0	0
600.2802734375	n/a	REC_WORD	1229374	wordpools/wasnorm_wordpool_576.txt	LTP378	ltpFR2	11	2	JELLO	754	n/a	n/a	0	0	0
600.84130859375	n/a	REC_WORD	1230523	wordpools/wasnorm_wordpool_576.txt	LTP378	ltpFR2	11	2	PUDDING	1139	n/a	n/a	0	0	0
667.84716796875	n/a	WORD	1367751	wordpools/wasnorm_wordpool_576.txt	LTP378	ltpFR2	11	3	QUAIL	1147	n/a	n/a	0	0	0
670.49853515625	n/a	WORD	1373181	wordpools/wasnorm_wordpool_576.txt	LTP378	ltpFR2	11	3	DASHBOARD	441	n/a	n/a	0	0	0
673.01416015625	n/a	WORD	1378333	wordpools/wasnorm_wordpool_576.txt	LTP378	ltpFR2	11	3	SERVANT	1271	n/a	n/a	0	0	0
675.58203125	n/a	WORD	1383592	wordpools/wasnorm_wordpool_576.txt	LTP378	ltpFR2	11	3	PILOT	1070	n/a	n/a	0	0	0
678.4150390625	n/a	WORD	1389394	wordpools/wasnorm_wordpool_576.txt	LTP378	ltpFR2	11	3	ROCKET	1202	n/a	n/a	0	0	0
681.2138671875	n/a	WORD	1395126	wordpools/wasnorm_wordpool_576.txt	LTP378	ltpFR2	11	3	LAGOON	795	n/a	n/a	0	0	0
683.7978515625	n/a	WORD	1400418	wordpools/wasnorm_wordpool_576.txt	LTP378	ltpFR2	11	3	SNAIL	1332	n/a	n/a	0	0	0
686.31396484375	n/a	WORD	1405571	wordpools/wasnorm_wordpool_576.txt	LTP378	ltpFR2	11	3	BROTHER	179	n/a	n/a	0	0	0
688.8798828125	n/a	WORD	1410826	wordpools/wasnorm_wordpool_576.txt	LTP378	ltpFR2	11	3	SHRUB	1299	n/a	n/a	0	0	0
691.564453125	n/a	WORD	1416324	wordpools/wasnorm_wordpool_576.txt	LTP378	ltpFR2	11	3	BRANCH	168	n/a	n/a	0	0	0
694.013671875	n/a	WORD	1421340	wordpools/wasnorm_wordpool_576.txt	LTP378	ltpFR2	11	3	PIGEON	1065	n/a	n/a	0	0	0
696.6142578125	n/a	WORD	1426666	wordpools/wasnorm_wordpool_576.txt	LTP378	ltpFR2	11	3	SUBWAY	1400	n/a	n/a	0	0	0
699.34619140625	n/a	WORD	1432261	wordpools/wasnorm_wordpool_576.txt	LTP378	ltpFR2	11	3	BLOUSE	139	n/a	n/a	0	0	0
702.12939453125	n/a	WORD	1437961	wordpools/wasnorm_wordpool_576.txt	LTP378	ltpFR2	11	3	FLOWER	584	n/a	n/a	0	0	0
704.8623046875	n/a	WORD	1443558	wordpools/wasnorm_wordpool_576.txt	LTP378	ltpFR2	11	3	HOOD	714	n/a	n/a	0	0	0
707.63037109375	n/a	WORD	1449227	wordpools/wasnorm_wordpool_576.txt	LTP378	ltpFR2	11	3	BRICK	172	n/a	n/a	0	0	0
710.3623046875	n/a	WORD	1454822	wordpools/wasnorm_wordpool_576.txt	LTP378	ltpFR2	11	3	SPACE	1345	n/a	n/a	0	0	0
713.0458984375	n/a	WORD	1460318	wordpools/wasnorm_wordpool_576.txt	LTP378	ltpFR2	11	3	HONEY	713	n/a	n/a	0	0	0
715.546875	n/a	WORD	1465440	wordpools/wasnorm_wordpool_576.txt	LTP378	ltpFR2	11	3	PICTURE	1061	n/a	n/a	0	0	0
718.32861328125	n/a	WORD	1471137	wordpools/wasnorm_wordpool_576.txt	LTP378	ltpFR2	11	3	PANTHER	1009	n/a	n/a	0	0	0
720.9619140625	n/a	WORD	1476530	wordpools/wasnorm_wordpool_576.txt	LTP378	ltpFR2	11	3	BOUQUET	157	n/a	n/a	0	0	0
723.52978515625	n/a	WORD	1481789	wordpools/wasnorm_wordpool_576.txt	LTP378	ltpFR2	11	3	CHAUFFEUR	283	n/a	n/a	0	0	0
726.3115234375	n/a	WORD	1487486	wordpools/wasnorm_wordpool_576.txt	LTP378	ltpFR2	11	3	BRAKE	166	n/a	n/a	0	0	0
728.861328125	n/a	WORD	1492708	wordpools/wasnorm_wordpool_576.txt	LTP378	ltpFR2	11	3	SCARF	1246	n/a	n/a	0	0	0
730.46240234375	n/a	START	1495987	n/a	LTP378	ltpFR2	11	n/a	n/a	n/a	4	n/a	n/a	n/a	n/a
731.4345703125	n/a	DISTRACTOR	1497978	n/a	LTP378	ltpFR2	11	3	n/a	n/a	n/a	n/a	0	0	0
731.4453125	n/a	PROB	1498000	n/a	LTP378	ltpFR2	11	n/a	n/a	n/a	4	20	8	3	9
736.662109375	n/a	PROB	1508684	n/a	LTP378	ltpFR2	11	n/a	n/a	n/a	4	12	2	6	4
738.779296875	n/a	PROB	1513020	n/a	LTP378	ltpFR2	11	n/a	n/a	n/a	4	10	5	3	2
740.56201171875	n/a	PROB	1516671	n/a	LTP378	ltpFR2	11	n/a	n/a	n/a	4	21	7	5	9
747.427734375	n/a	PROB	1530732	n/a	LTP378	ltpFR2	11	n/a	n/a	n/a	4	16	9	1	6
748.9267578125	n/a	PROB	1533802	n/a	LTP378	ltpFR2	11	n/a	n/a	n/a	4	19	5	6	8
751.16064453125	n/a	PROB	1538377	n/a	LTP378	ltpFR2	11	n/a	n/a	n/a	4	14	4	5	5
753.2626953125	n/a	STOP	1542682	n/a	LTP378	ltpFR2	11	n/a	n/a	n/a	4	n/a	n/a	n/a	n/a
756.36083984375	n/a	REC_START	1549027	n/a	LTP378	ltpFR2	11	3	n/a	n/a	n/a	n/a	0	0	0
761.4697265625	n/a	REC_WORD	1559490	wordpools/wasnorm_wordpool_576.txt	LTP378	ltpFR2	11	3	AIRPLANE	12	n/a	n/a	0	0	0
763.0732421875	n/a	REC_WORD	1562774	wordpools/wasnorm_wordpool_576.txt	LTP378	ltpFR2	11	3	PILOT	1070	n/a	n/a	0	0	0
782.27978515625	n/a	REC_WORD	1602109	wordpools/wasnorm_wordpool_576.txt	LTP378	ltpFR2	11	3	LAGOON	795	n/a	n/a	0	0	0
862.75634765625	n/a	WORD	1766925	wordpools/wasnorm_wordpool_576.txt	LTP378	ltpFR2	11	4	TURTLE	1522	n/a	n/a	0	0	0
865.2880859375	n/a	WORD	1772110	wordpools/wasnorm_wordpool_576.txt	LTP378	ltpFR2	11	4	RABBIT	1152	n/a	n/a	0	0	0
868.10498046875	n/a	WORD	1777879	wordpools/wasnorm_wordpool_576.txt	LTP378	ltpFR2	11	4	BROOK	177	n/a	n/a	0	0	0
870.67333984375	n/a	WORD	1783139	wordpools/wasnorm_wordpool_576.txt	LTP378	ltpFR2	11	4	RAFT	1159	n/a	n/a	0	0	0
873.171875	n/a	WORD	1788256	wordpools/wasnorm_wordpool_576.txt	LTP378	ltpFR2	11	4	APPLE	33	n/a	n/a	0	0	0
875.755859375	n/a	WORD	1793548	wordpools/wasnorm_wordpool_576.txt	LTP378	ltpFR2	11	4	WHISKERS	1605	n/a	n/a	0	0	0
878.27099609375	n/a	WORD	1798699	wordpools/wasnorm_wordpool_576.txt	LTP378	ltpFR2	11	4	LABEL	790	n/a	n/a	0	0	0
880.8876953125	n/a	WORD	1804058	wordpools/wasnorm_wordpool_576.txt	LTP378	ltpFR2	11	4	TURNIP	1521	n/a	n/a	0	0	0
883.4716796875	n/a	WORD	1809350	wordpools/wasnorm_wordpool_576.txt	LTP378	ltpFR2	11	4	GANGSTER	620	n/a	n/a	0	0	0
886.1044921875	n/a	WORD	1814742	wordpools/wasnorm_wordpool_576.txt	LTP378	ltpFR2	11	4	MACHINE	852	n/a	n/a	0	0	0
888.82177734375	n/a	WORD	1820307	wordpools/wasnorm_wordpool_576.txt	LTP378	ltpFR2	11	4	FOREST	593	n/a	n/a	0	0	0
891.62158203125	n/a	WORD	1826041	wordpools/wasnorm_wordpool_576.txt	LTP378	ltpFR2	11	4	JUNGLE	764	n/a	n/a	0	0	0
894.2373046875	n/a	WORD	1831398	wordpools/wasnorm_wordpool_576.txt	LTP378	ltpFR2	11	4	PORK	1108	n/a	n/a	0	0	0
896.7041015625	n/a	WORD	1836450	wordpools/wasnorm_wordpool_576.txt	LTP378	ltpFR2	11	4	SPHINX	1349	n/a	n/a	0	0	0
899.50439453125	n/a	WORD	1842185	wordpools/wasnorm_wordpool_576.txt	LTP378	ltpFR2	11	4	FOOT	590	n/a	n/a	0	0	0
902.02001953125	n/a	WORD	1847337	wordpools/wasnorm_wordpool_576.txt	LTP378	ltpFR2	11	4	SCOTCH	1251	n/a	n/a	0	0	0
904.654296875	n/a	WORD	1852732	wordpools/wasnorm_wordpool_576.txt	LTP378	ltpFR2	11	4	HOOK	715	n/a	n/a	0	0	0
907.203125	n/a	WORD	1857952	wordpools/wasnorm_wordpool_576.txt	LTP378	ltpFR2	11	4	COOK	372	n/a	n/a	0	0	0
909.8701171875	n/a	WORD	1863414	wordpools/wasnorm_wordpool_576.txt	LTP378	ltpFR2	11	4	MUFFIN	929	n/a	n/a	0	0	0
912.50390625	n/a	WORD	1868808	wordpools/wasnorm_wordpool_576.txt	LTP378	ltpFR2	11	4	FOREHEAD	592	n/a	n/a	0	0	0
915.06982421875	n/a	WORD	1874063	wordpools/wasnorm_wordpool_576.txt	LTP378	ltpFR2	11	4	ANKLE	24	n/a	n/a	0	0	0
917.8037109375	n/a	WORD	1879662	wordpools/wasnorm_wordpool_576.txt	LTP378	ltpFR2	11	4	RUG	1215	n/a	n/a	0	0	0
920.5537109375	n/a	WORD	1885294	wordpools/wasnorm_wordpool_576.txt	LTP378	ltpFR2	11	4	NURSE	963	n/a	n/a	0	0	0
923.3525390625	n/a	WORD	1891026	wordpools/wasnorm_wordpool_576.txt	LTP378	ltpFR2	11	4	DOUGHNUT	490	n/a	n/a	0	0	0
924.96923828125	n/a	START	1894337	n/a	LTP378	ltpFR2	11	n/a	n/a	n/a	5	n/a	n/a	n/a	n/a
925.943359375	n/a	DISTRACTOR	1896332	n/a	LTP378	ltpFR2	11	4	n/a	n/a	n/a	n/a	0	0	0
925.95263671875	n/a	PROB	1896351	n/a	LTP378	ltpFR2	11	n/a	n/a	n/a	5	13	7	2	4
928.869140625	n/a	PROB	1902324	n/a	LTP378	ltpFR2	11	n/a	n/a	n/a	5	15	5	5	5
930.5703125	n/a	PROB	1905808	n/a	LTP378	ltpFR2	11	n/a	n/a	n/a	5	15	6	4	5
932.33544921875	n/a	PROB	1909423	n/a	LTP378	ltpFR2	11	n/a	n/a	n/a	5	18	8	2	8
934.76904296875	n/a	PROB	1914407	n/a	LTP378	ltpFR2	11	n/a	n/a	n/a	5	4	1	2	1
936.73583984375	n/a	PROB	1918435	n/a	LTP378	ltpFR2	11	n/a	n/a	n/a	5	16	3	5	8
939.5029296875	n/a	PROB	1924102	n/a	LTP378	ltpFR2	11	n/a	n/a	n/a	5	18	8	6	4
942.16796875	n/a	PROB	1929560	n/a	LTP378	ltpFR2	11	n/a	n/a	n/a	5	9	4	3	2
948.9677734375	n/a	STOP	1943486	n/a	LTP378	ltpFR2	11	n/a	n/a	n/a	5	n/a	n/a	n/a	n/a
950.73779296875	n/a	REC_START	1947111	n/a	LTP378	ltpFR2	11	4	n/a	n/a	n/a	n/a	0	0	0
952.04150390625	n/a	REC_WORD	1949781	wordpools/wasnorm_wordpool_576.txt	LTP378	ltpFR2	11	4	TORTOISE	1486	n/a	n/a	0	0	0
952.78369140625	n/a	REC_WORD	1951301	wordpools/wasnorm_wordpool_576.txt	LTP378	ltpFR2	11	4	RABBIT	1152	n/a	n/a	0	0	0
953.884765625	n/a	REC_WORD	1953556	wordpools/wasnorm_wordpool_576.txt	LTP378	ltpFR2	11	4	BROOK	177	n/a	n/a	0	0	0
954.61962890625	n/a	REC_WORD	1955061	wordpools/wasnorm_wordpool_576.txt	LTP378	ltpFR2	11	4	RAFT	1159	n/a	n/a	0	0	0
958.271484375	n/a	REC_WORD	1962540	wordpools/wasnorm_wordpool_576.txt	LTP378	ltpFR2	11	4	APPLE	33	n/a	n/a	0	0	0
959.30029296875	n/a	REC_WORD	1964647	wordpools/wasnorm_wordpool_576.txt	LTP378	ltpFR2	11	4	WHISKERS	1605	n/a	n/a	0	0	0
964.3623046875	n/a	REC_WORD	1975014	wordpools/wasnorm_wordpool_576.txt	LTP378	ltpFR2	11	4	LABEL	790	n/a	n/a	0	0	0
971.81005859375	n/a	REC_WORD	1990267	wordpools/wasnorm_wordpool_576.txt	LTP378	ltpFR2	11	4	GANGSTER	620	n/a	n/a	0	0	0
972.6630859375	n/a	REC_WORD	1992014	wordpools/wasnorm_wordpool_576.txt	LTP378	ltpFR2	11	4	MACHINE	852	n/a	n/a	0	0	0
1019.54443359375	n/a	REC_WORD	2088027	wordpools/wasnorm_wordpool_576.txt	LTP378	ltpFR2	11	4	PORK	1108	n/a	n/a	0	0	0
1022.00537109375	n/a	REC_WORD	2093067	wordpools/wasnorm_wordpool_576.txt	LTP378	ltpFR2	11	4	SPHINX	1349	n/a	n/a	0	0	0
1023.44921875	n/a	REC_WORD	2096024	wordpools/wasnorm_wordpool_576.txt	LTP378	ltpFR2	11	4	FOOT	590	n/a	n/a	0	0	0
1041.1796875	n/a	DISTRACTOR	2132336	n/a	LTP378	ltpFR2	11	5	n/a	n/a	n/a	n/a	0	0	0
1041.1806640625	n/a	START	2132338	n/a	LTP378	ltpFR2	11	n/a	n/a	n/a	6	n/a	n/a	n/a	n/a
1041.19677734375	n/a	PROB	2132371	n/a	LTP378	ltpFR2	11	n/a	n/a	n/a	6	16	9	1	6
1043.19677734375	n/a	PROB	2136467	n/a	LTP378	ltpFR2	11	n/a	n/a	n/a	6	10	3	1	6
1046.046875	n/a	PROB	2142304	n/a	LTP378	ltpFR2	11	n/a	n/a	n/a	6	12	6	3	3
1048.8466796875	n/a	PROB	2148038	n/a	LTP378	ltpFR2	11	n/a	n/a	n/a	6	24	9	7	8
1051.6474609375	n/a	PROB	2153774	n/a	LTP378	ltpFR2	11	n/a	n/a	n/a	6	12	6	1	5
1054.1962890625	n/a	PROB	2158994	n/a	LTP378	ltpFR2	11	n/a	n/a	n/a	6	18	5	7	6
1057.2294921875	n/a	PROB	2165206	n/a	LTP378	ltpFR2	11	n/a	n/a	n/a	6	13	2	9	2
1059.01220703125	n/a	PROB	2168857	n/a	LTP378	ltpFR2	11	n/a	n/a	n/a	6	15	6	6	3
1064.87109375	n/a	STOP	2180856	n/a	LTP378	ltpFR2	11	n/a	n/a	n/a	6	n/a	n/a	n/a	n/a
1066.1123046875	n/a	WORD	2183398	wordpools/wasnorm_wordpool_576.txt	LTP378	ltpFR2	11	5	TROUT	1511	n/a	n/a	0	0	0
1068.84619140625	n/a	WORD	2188997	wordpools/wasnorm_wordpool_576.txt	LTP378	ltpFR2	11	5	SALMON	1227	n/a	n/a	0	0	0
1071.345703125	n/a	WORD	2194116	wordpools/wasnorm_wordpool_576.txt	LTP378	ltpFR2	11	5	TUTU	1524	n/a	n/a	0	0	0
1074.11181640625	n/a	WORD	2199781	wordpools/wasnorm_wordpool_576.txt	LTP378	ltpFR2	11	5	CANDY	230	n/a	n/a	0	0	0
1076.87890625	n/a	WORD	2205448	wordpools/wasnorm_wordpool_576.txt	LTP378	ltpFR2	11	5	SWORD	1423	n/a	n/a	0	0	0
1079.66259765625	n/a	WORD	2211149	wordpools/wasnorm_wordpool_576.txt	LTP378	ltpFR2	11	5	MAILBOX	857	n/a	n/a	0	0	0
1082.37939453125	n/a	WORD	2216713	wordpools/wasnorm_wordpool_576.txt	LTP378	ltpFR2	11	5	CRAYON	401	n/a	n/a	0	0	0
1084.9287109375	n/a	WORD	2221934	wordpools/wasnorm_wordpool_576.txt	LTP378	ltpFR2	11	5	BUREAU	199	n/a	n/a	0	0	0
1087.46240234375	n/a	WORD	2227123	wordpools/wasnorm_wordpool_576.txt	LTP378	ltpFR2	11	5	RELISH	1183	n/a	n/a	0	0	0
1090.26123046875	n/a	WORD	2232855	wordpools/wasnorm_wordpool_576.txt	LTP378	ltpFR2	11	5	JUGGLER	763	n/a	n/a	0	0	0
1093.0283203125	n/a	WORD	2238522	wordpools/wasnorm_wordpool_576.txt	LTP378	ltpFR2	11	5	DRESSER	496	n/a	n/a	0	0	0
1095.64501953125	n/a	WORD	2243881	wordpools/wasnorm_wordpool_576.txt	LTP378	ltpFR2	11	5	CITRUS	313	n/a	n/a	0	0	0
1098.2939453125	n/a	WORD	2249306	wordpools/wasnorm_wordpool_576.txt	LTP378	ltpFR2	11	5	TEACHER	1440	n/a	n/a	0	0	0
1100.9609375	n/a	WORD	2254768	wordpools/wasnorm_wordpool_576.txt	LTP378	ltpFR2	11	5	COLLEGE	346	n/a	n/a	0	0	0
1103.662109375	n/a	WORD	2260300	wordpools/wasnorm_wordpool_576.txt	LTP378	ltpFR2	11	5	KLEENEX	782	n/a	n/a	0	0	0
1106.32666015625	n/a	WORD	2265757	wordpools/wasnorm_wordpool_576.txt	LTP378	ltpFR2	11	5	DRUG	501	n/a	n/a	0	0	0
1108.84375	n/a	WORD	2270912	wordpools/wasnorm_wordpool_576.txt	LTP378	ltpFR2	11	5	HERO	706	n/a	n/a	0	0	0
1111.560546875	n/a	WORD	2276476	wordpools/wasnorm_wordpool_576.txt	LTP378	ltpFR2	11	5	COLONEL	348	n/a	n/a	0	0	0
1114.20947265625	n/a	WORD	2281901	wordpools/wasnorm_wordpool_576.txt	LTP378	ltpFR2	11	5	DOLPHIN	483	n/a	n/a	0	0	0
1116.810546875	n/a	WORD	2287228	wordpools/wasnorm_wordpool_576.txt	LTP378	ltpFR2	11	5	HARP	689	n/a	n/a	0	0	0
1119.34326171875	n/a	WORD	2292415	wordpools/wasnorm_wordpool_576.txt	LTP378	ltpFR2	11	5	NAPKIN	937	n/a	n/a	0	0	0
1121.8935546875	n/a	WORD	2297638	wordpools/wasnorm_wordpool_576.txt	LTP378	ltpFR2	11	5	DRESS	495	n/a	n/a	0	0	0
1124.67724609375	n/a	WORD	2303339	wordpools/wasnorm_wordpool_576.txt	LTP378	ltpFR2	11	5	SPOON	1357	n/a	n/a	0	0	0
1127.193359375	n/a	WORD	2308492	wordpools/wasnorm_wordpool_576.txt	LTP378	ltpFR2	11	5	BELLY	119	n/a	n/a	0	0	0
1128.81005859375	n/a	START	2311803	n/a	LTP378	ltpFR2	11	n/a	n/a	n/a	7	n/a	n/a	n/a	n/a
1129.8251953125	n/a	DISTRACTOR	2313882	n/a	LTP378	ltpFR2	11	5	n/a	n/a	n/a	n/a	0	0	0
1129.8271484375	n/a	PROB	2313886	n/a	LTP378	ltpFR2	11	n/a	n/a	n/a	7	11	7	3	1
1133.3427734375	n/a	PROB	2321086	n/a	LTP378	ltpFR2	11	n/a	n/a	n/a	7	19	9	9	1
1135.7431640625	n/a	PROB	2326002	n/a	LTP378	ltpFR2	11	n/a	n/a	n/a	7	15	2	4	9
1141.02587890625	n/a	PROB	2336821	n/a	LTP378	ltpFR2	11	n/a	n/a	n/a	7	14	9	3	2
1143.24169921875	n/a	PROB	2341359	n/a	LTP378	ltpFR2	11	n/a	n/a	n/a	7	20	7	4	9
1145.24169921875	n/a	PROB	2345455	n/a	LTP378	ltpFR2	11	n/a	n/a	n/a	7	16	9	5	2
1149.29150390625	n/a	PROB	2353749	n/a	LTP378	ltpFR2	11	n/a	n/a	n/a	7	17	4	7	6
1151.9423828125	n/a	STOP	2359178	n/a	LTP378	ltpFR2	11	n/a	n/a	n/a	7	n/a	n/a	n/a	n/a
1154.62646484375	n/a	REC_START	2364675	n/a	LTP378	ltpFR2	11	5	n/a	n/a	n/a	n/a	0	0	0
1156.4833984375	n/a	REC_WORD	2368478	wordpools/wasnorm_wordpool_576.txt	LTP378	ltpFR2	11	5	TROUT	1511	n/a	n/a	0	0	0
1157.22119140625	n/a	REC_WORD	2369989	wordpools/wasnorm_wordpool_576.txt	LTP378	ltpFR2	11	5	SALMON	1227	n/a	n/a	0	0	0
1158.17431640625	n/a	REC_WORD	2371941	wordpools/wasnorm_wordpool_576.txt	LTP378	ltpFR2	11	5	TUTU	1524	n/a	n/a	0	0	0
1162.97119140625	n/a	REC_WORD	2381765	wordpools/wasnorm_wordpool_576.txt	LTP378	ltpFR2	11	5	CANDY	230	n/a	n/a	0	0	0
1166.76708984375	n/a	REC_WORD	2389539	wordpools/wasnorm_wordpool_576.txt	LTP378	ltpFR2	11	5	SWORD	1423	n/a	n/a	0	0	0
1170.93798828125	n/a	REC_WORD	2398081	wordpools/wasnorm_wordpool_576.txt	LTP378	ltpFR2	11	5	RUG	1215	n/a	n/a	0	0	0
1245.08740234375	n/a	WORD	2549939	wordpools/wasnorm_wordpool_576.txt	LTP378	ltpFR2	11	6	CASKET	255	n/a	n/a	0	0	0
1247.67138671875	n/a	WORD	2555231	wordpools/wasnorm_wordpool_576.txt	LTP378	ltpFR2	11	6	SANDWICH	1232	n/a	n/a	0	0	0
1250.47119140625	n/a	WORD	2560965	wordpools/wasnorm_wordpool_576.txt	LTP378	ltpFR2	11	6	BLADE	134	n/a	n/a	0	0	0
1253.13720703125	n/a	WORD	2566425	wordpools/wasnorm_wordpool_576.txt	LTP378	ltpFR2	11	6	PEBBLE	1035	n/a	n/a	0	0	0
1255.8212890625	n/a	WORD	2571922	wordpools/wasnorm_wordpool_576.txt	LTP378	ltpFR2	11	6	TRIBE	1505	n/a	n/a	0	0	0
1258.50390625	n/a	WORD	2577416	wordpools/wasnorm_wordpool_576.txt	LTP378	ltpFR2	11	6	WITNESS	1618	n/a	n/a	0	0	0
1261.0029296875	n/a	WORD	2582534	wordpools/wasnorm_wordpool_576.txt	LTP378	ltpFR2	11	6	COTTAGE	384	n/a	n/a	0	0	0
1263.55419921875	n/a	WORD	2587759	wordpools/wasnorm_wordpool_576.txt	LTP378	ltpFR2	11	6	JELLY	755	n/a	n/a	0	0	0
1265.98583984375	n/a	WORD	2592739	wordpools/wasnorm_wordpool_576.txt	LTP378	ltpFR2	11	6	BODY	145	n/a	n/a	0	0	0
1268.40380859375	n/a	WORD	2597691	wordpools/wasnorm_wordpool_576.txt	LTP378	ltpFR2	11	6	WORLD	1622	n/a	n/a	0	0	0
1271.2197265625	n/a	WORD	2603458	wordpools/wasnorm_wordpool_576.txt	LTP378	ltpFR2	11	6	FRIAR	605	n/a	n/a	0	0	0
1273.9697265625	n/a	WORD	2609090	wordpools/wasnorm_wordpool_576.txt	LTP378	ltpFR2	11	6	GYMNAST	675	n/a	n/a	0	0	0
1276.470703125	n/a	WORD	2614212	wordpools/wasnorm_wordpool_576.txt	LTP378	ltpFR2	11	6	PISTON	1076	n/a	n/a	0	0	0
1279.16943359375	n/a	WORD	2619739	wordpools/wasnorm_wordpool_576.txt	LTP378	ltpFR2	11	6	STAPLE	1371	n/a	n/a	0	0	0
1281.90234375	n/a	WORD	2625336	wordpools/wasnorm_wordpool_576.txt	LTP378	ltpFR2	11	6	INMATE	738	n/a	n/a	0	0	0
1284.38623046875	n/a	WORD	2630423	wordpools/wasnorm_wordpool_576.txt	LTP378	ltpFR2	11	6	BACON	67	n/a	n/a	0	0	0
1287.2021484375	n/a	WORD	2636190	wordpools/wasnorm_wordpool_576.txt	LTP378	ltpFR2	11	6	SAUSAGE	1238	n/a	n/a	0	0	0
1289.68603515625	n/a	WORD	2641277	wordpools/wasnorm_wordpool_576.txt	LTP378	ltpFR2	11	6	STAKE	1368	n/a	n/a	0	0	0
1292.4033203125	n/a	WORD	2646842	wordpools/wasnorm_wordpool_576.txt	LTP378	ltpFR2	11	6	FLASHLIGHT	575	n/a	n/a	0	0	0
1295.03515625	n/a	WORD	2652232	wordpools/wasnorm_wordpool_576.txt	LTP378	ltpFR2	11	6	LASER	801	n/a	n/a	0	0	0
1297.8017578125	n/a	WORD	2657898	wordpools/wasnorm_wordpool_576.txt	LTP378	ltpFR2	11	6	CAPTIVE	240	n/a	n/a	0	0	0
1300.46875	n/a	WORD	2663360	wordpools/wasnorm_wordpool_576.txt	LTP378	ltpFR2	11	6	COWBOY	395	n/a	n/a	0	0	0
1303.15087890625	n/a	WORD	2668853	wordpools/wasnorm_wordpool_576.txt	LTP378	ltpFR2	11	6	FRANCE	601	n/a	n/a	0	0	0
1305.61865234375	n/a	WORD	2673907	wordpools/wasnorm_wordpool_576.txt	LTP378	ltpFR2	11	6	BEAVER	109	n/a	n/a	0	0	0
1307.23486328125	n/a	START	2677217	n/a	LTP378	ltpFR2	11	n/a	n/a	n/a	8	n/a	n/a	n/a	n/a
1308.24658203125	n/a	DISTRACTOR	2679289	n/a	LTP378	ltpFR2	11	6	n/a	n/a	n/a	n/a	0	0	0
1308.25048828125	n/a	PROB	2679297	n/a	LTP378	ltpFR2	11	n/a	n/a	n/a	8	24	9	9	6
1313.53564453125	n/a	PROB	2690121	n/a	LTP378	ltpFR2	11	n/a	n/a	n/a	8	22	8	6	8
1317.21728515625	n/a	PROB	2697661	n/a	LTP378	ltpFR2	11	n/a	n/a	n/a	8	13	4	3	6
1319.818359375	n/a	PROB	2702988	n/a	LTP378	ltpFR2	11	n/a	n/a	n/a	8	26	9	8	9
1326.0498046875	n/a	PROB	2715750	n/a	LTP378	ltpFR2	11	n/a	n/a	n/a	8	12	1	8	3
1328.4677734375	n/a	PROB	2720702	n/a	LTP378	ltpFR2	11	n/a	n/a	n/a	8	18	9	7	2
1331.126953125	n/a	STOP	2726148	n/a	LTP378	ltpFR2	11	n/a	n/a	n/a	8	n/a	n/a	n/a	n/a
1333.0166015625	n/a	REC_START	2730018	n/a	LTP378	ltpFR2	11	6	n/a	n/a	n/a	n/a	0	0	0
1336.8935546875	n/a	REC_WORD	2737958	wordpools/wasnorm_wordpool_576.txt	LTP378	ltpFR2	11	6	CASKET	255	n/a	n/a	0	0	0
1337.70849609375	n/a	REC_WORD	2739627	wordpools/wasnorm_wordpool_576.txt	LTP378	ltpFR2	11	6	SANDWICH	1232	n/a	n/a	0	0	0
1341.45751953125	n/a	REC_WORD	2747305	wordpools/wasnorm_wordpool_576.txt	LTP378	ltpFR2	11	6	BLADE	134	n/a	n/a	0	0	0
1342.08935546875	n/a	REC_WORD	2748599	wordpools/wasnorm_wordpool_576.txt	LTP378	ltpFR2	11	6	PEBBLE	1035	n/a	n/a	0	0	0
1348.90625	n/a	REC_WORD	2762560	wordpools/wasnorm_wordpool_576.txt	LTP378	ltpFR2	11	6	PEBBLE	1035	n/a	n/a	0	0	0
1357.60302734375	n/a	REC_WORD	2780371	wordpools/wasnorm_wordpool_576.txt	LTP378	ltpFR2	11	6	JELLY	755	n/a	n/a	0	0	0
1358.68408203125	n/a	REC_WORD	2782585	wordpools/wasnorm_wordpool_576.txt	LTP378	ltpFR2	11	6	BODY	145	n/a	n/a	0	0	0
1423.47998046875	n/a	WORD	2915287	wordpools/wasnorm_wordpool_576.txt	LTP378	ltpFR2	11	7	DONKEY	484	n/a	n/a	0	0	0
1426.0947265625	n/a	WORD	2920642	wordpools/wasnorm_wordpool_576.txt	LTP378	ltpFR2	11	7	TROMBONE	1508	n/a	n/a	0	0	0
1428.56298828125	n/a	WORD	2925697	wordpools/wasnorm_wordpool_576.txt	LTP378	ltpFR2	11	7	MEDAL	885	n/a	n/a	0	0	0
1430.99462890625	n/a	WORD	2930677	wordpools/wasnorm_wordpool_576.txt	LTP378	ltpFR2	11	7	NECKLACE	940	n/a	n/a	0	0	0
1433.49560546875	n/a	WORD	2935799	wordpools/wasnorm_wordpool_576.txt	LTP378	ltpFR2	11	7	YACHT	1629	n/a	n/a	0	0	0
1436.04443359375	n/a	WORD	2941019	wordpools/wasnorm_wordpool_576.txt	LTP378	ltpFR2	11	7	PADDLE	1000	n/a	n/a	0	0	0
1438.6796875	n/a	WORD	2946416	wordpools/wasnorm_wordpool_576.txt	LTP378	ltpFR2	11	7	SCALPEL	1243	n/a	n/a	0	0	0
1441.29443359375	n/a	WORD	2951771	wordpools/wasnorm_wordpool_576.txt	LTP378	ltpFR2	11	7	NIGHTGOWN	953	n/a	n/a	0	0	0
1443.79541015625	n/a	WORD	2956893	wordpools/wasnorm_wordpool_576.txt	LTP378	ltpFR2	11	7	WOMAN	1620	n/a	n/a	0	0	0
1446.3623046875	n/a	WORD	2962150	wordpools/wasnorm_wordpool_576.txt	LTP378	ltpFR2	11	7	HUMAN	726	n/a	n/a	0	0	0
1449.12744140625	n/a	WORD	2967813	wordpools/wasnorm_wordpool_576.txt	LTP378	ltpFR2	11	7	OINTMENT	974	n/a	n/a	0	0	0
1451.6279296875	n/a	WORD	2972934	wordpools/wasnorm_wordpool_576.txt	LTP378	ltpFR2	11	7	KITCHEN	778	n/a	n/a	0	0	0
1454.22705078125	n/a	WORD	2978257	wordpools/wasnorm_wordpool_576.txt	LTP378	ltpFR2	11	7	HIKER	708	n/a	n/a	0	0	0
1456.81201171875	n/a	WORD	2983551	wordpools/wasnorm_wordpool_576.txt	LTP378	ltpFR2	11	7	TYPIST	1532	n/a	n/a	0	0	0
1459.31103515625	n/a	WORD	2988669	wordpools/wasnorm_wordpool_576.txt	LTP378	ltpFR2	11	7	PIGMENT	1066	n/a	n/a	0	0	0
1461.97705078125	n/a	WORD	2994129	wordpools/wasnorm_wordpool_576.txt	LTP378	ltpFR2	11	7	SIDEWALK	1303	n/a	n/a	0	0	0
1464.77783203125	n/a	WORD	2999865	wordpools/wasnorm_wordpool_576.txt	LTP378	ltpFR2	11	7	SEAGULL	1261	n/a	n/a	0	0	0
1467.259765625	n/a	WORD	3004948	wordpools/wasnorm_wordpool_576.txt	LTP378	ltpFR2	11	7	SWIMMER	1420	n/a	n/a	0	0	0
1469.74462890625	n/a	WORD	3010037	wordpools/wasnorm_wordpool_576.txt	LTP378	ltpFR2	11	7	TOASTER	1472	n/a	n/a	0	0	0
1472.34375	n/a	WORD	3015360	wordpools/wasnorm_wordpool_576.txt	LTP378	ltpFR2	11	7	OFFICE	972	n/a	n/a	0	0	0
1475.1435546875	n/a	WORD	3021094	wordpools/wasnorm_wordpool_576.txt	LTP378	ltpFR2	11	7	FOX	598	n/a	n/a	0	0	0
1477.79443359375	n/a	WORD	3026523	wordpools/wasnorm_wordpool_576.txt	LTP378	ltpFR2	11	7	BLACKBOARD	133	n/a	n/a	0	0	0
1480.22607421875	n/a	WORD	3031503	wordpools/wasnorm_wordpool_576.txt	LTP378	ltpFR2	11	7	SMOG	1330	n/a	n/a	0	0	0
1482.9931640625	n/a	WORD	3037170	wordpools/wasnorm_wordpool_576.txt	LTP378	ltpFR2	11	7	BLOCKADE	137	n/a	n/a	0	0	0
1484.6103515625	n/a	START	3040482	n/a	LTP378	ltpFR2	11	n/a	n/a	n/a	9	n/a	n/a	n/a	n/a
1485.79296875	n/a	DISTRACTOR	3042904	n/a	LTP378	ltpFR2	11	7	n/a	n/a	n/a	n/a	0	0	0
1485.81005859375	n/a	PROB	3042939	n/a	LTP378	ltpFR2	11	n/a	n/a	n/a	9	16	8	2	6
1488.7099609375	n/a	PROB	3048878	n/a	LTP378	ltpFR2	11	n/a	n/a	n/a	9	14	8	2	4
1490.326171875	n/a	PROB	3052188	n/a	LTP378	ltpFR2	11	n/a	n/a	n/a	9	9	1	5	3
1491.99169921875	n/a	PROB	3055599	n/a	LTP378	ltpFR2	11	n/a	n/a	n/a	9	8	1	5	2
1493.6767578125	n/a	PROB	3059050	n/a	LTP378	ltpFR2	11	n/a	n/a	n/a	9	14	7	6	1
1495.4267578125	n/a	PROB	3062634	n/a	LTP378	ltpFR2	11	n/a	n/a	n/a	9	11	7	1	3
1496.85888671875	n/a	PROB	3065567	n/a	LTP378	ltpFR2	11	n/a	n/a	n/a	9	15	6	5	4
1499.17578125	n/a	PROB	3070312	n/a	LTP378	ltpFR2	11	n/a	n/a	n/a	9	19	7	9	3
1504.759765625	n/a	PROB	3081748	n/a	LTP378	ltpFR2	11	n/a	n/a	n/a	9	12	2	5	5
1508.609375	n/a	STOP	3089632	n/a	LTP378	ltpFR2	11	n/a	n/a	n/a	9	n/a	n/a	n/a	n/a
1510.5595703125	n/a	REC_START	3093626	n/a	LTP378	ltpFR2	11	7	n/a	n/a	n/a	n/a	0	0	0
1515.525390625	n/a	REC_WORD	3103796	wordpools/wasnorm_wordpool_576.txt	LTP378	ltpFR2	11	7	BLOCKADE	137	n/a	n/a	0	0	0
1635.16845703125	n/a	DISTRACTOR	3348825	n/a	LTP378	ltpFR2	11	8	n/a	n/a	n/a	n/a	0	0	0
1635.16943359375	n/a	START	3348827	n/a	LTP378	ltpFR2	11	n/a	n/a	n/a	10	n/a	n/a	n/a	n/a
1635.185546875	n/a	PROB	3348860	n/a	LTP378	ltpFR2	11	n/a	n/a	n/a	10	13	1	6	6
1637.50341796875	n/a	PROB	3353607	n/a	LTP378	ltpFR2	11	n/a	n/a	n/a	10	17	8	8	1
1639.6533203125	n/a	PROB	3358010	n/a	LTP378	ltpFR2	11	n/a	n/a	n/a	10	8	1	1	6
1642.5693359375	n/a	PROB	3363982	n/a	LTP378	ltpFR2	11	n/a	n/a	n/a	10	17	5	7	5
1644.90234375	n/a	PROB	3368760	n/a	LTP378	ltpFR2	11	n/a	n/a	n/a	10	9	4	3	2
1648.68603515625	n/a	PROB	3376509	n/a	LTP378	ltpFR2	11	n/a	n/a	n/a	10	21	5	8	8
1651.31787109375	n/a	PROB	3381899	n/a	LTP378	ltpFR2	11	n/a	n/a	n/a	10	16	3	8	5
1654.26806640625	n/a	PROB	3387941	n/a	LTP378	ltpFR2	11	n/a	n/a	n/a	10	10	2	7	1
1659.1669921875	n/a	STOP	3397974	n/a	LTP378	ltpFR2	11	n/a	n/a	n/a	10	n/a	n/a	n/a	n/a
1660.25048828125	n/a	WORD	3400193	wordpools/wasnorm_wordpool_576.txt	LTP378	ltpFR2	11	8	COMET	353	n/a	n/a	0	0	0
1663.00048828125	n/a	WORD	3405825	wordpools/wasnorm_wordpool_576.txt	LTP378	ltpFR2	11	8	ROD	1203	n/a	n/a	0	0	0
1665.58544921875	n/a	WORD	3411119	wordpools/wasnorm_wordpool_576.txt	LTP378	ltpFR2	11	8	THRONE	1461	n/a	n/a	0	0	0
1668.1005859375	n/a	WORD	3416270	wordpools/wasnorm_wordpool_576.txt	LTP378	ltpFR2	11	8	LILY	821	n/a	n/a	0	0	0
1670.80126953125	n/a	WORD	3421801	wordpools/wasnorm_wordpool_576.txt	LTP378	ltpFR2	11	8	MEAT	883	n/a	n/a	0	0	0
1673.3173828125	n/a	WORD	3426954	wordpools/wasnorm_wordpool_576.txt	LTP378	ltpFR2	11	8	BATHTUB	100	n/a	n/a	0	0	0
1676.0830078125	n/a	WORD	3432618	wordpools/wasnorm_wordpool_576.txt	LTP378	ltpFR2	11	8	DONOR	485	n/a	n/a	0	0	0
1678.8173828125	n/a	WORD	3438218	wordpools/wasnorm_wordpool_576.txt	LTP378	ltpFR2	11	8	KNAPSACK	783	n/a	n/a	0	0	0
1681.451171875	n/a	WORD	3443612	wordpools/wasnorm_wordpool_576.txt	LTP378	ltpFR2	11	8	HIGHWAY	707	n/a	n/a	0	0	0
1683.8828125	n/a	WORD	3448592	wordpools/wasnorm_wordpool_576.txt	LTP378	ltpFR2	11	8	BUBBLE	183	n/a	n/a	0	0	0
1686.35009765625	n/a	WORD	3453645	wordpools/wasnorm_wordpool_576.txt	LTP378	ltpFR2	11	8	SHELF	1280	n/a	n/a	0	0	0
1688.89990234375	n/a	WORD	3458867	wordpools/wasnorm_wordpool_576.txt	LTP378	ltpFR2	11	8	BUGGY	188	n/a	n/a	0	0	0
1691.5009765625	n/a	WORD	3464194	wordpools/wasnorm_wordpool_576.txt	LTP378	ltpFR2	11	8	CARRIAGE	248	n/a	n/a	0	0	0
1694.1328125	n/a	WORD	3469584	wordpools/wasnorm_wordpool_576.txt	LTP378	ltpFR2	11	8	BRACES	164	n/a	n/a	0	0	0
1696.8154296875	n/a	WORD	3475078	wordpools/wasnorm_wordpool_576.txt	LTP378	ltpFR2	11	8	SHARK	1275	n/a	n/a	0	0	0
1699.265625	n/a	WORD	3480096	wordpools/wasnorm_wordpool_576.txt	LTP378	ltpFR2	11	8	MATCH	878	n/a	n/a	0	0	0
1701.75048828125	n/a	WORD	3485185	wordpools/wasnorm_wordpool_576.txt	LTP378	ltpFR2	11	8	GARBAGE	622	n/a	n/a	0	0	0
1704.21533203125	n/a	WORD	3490233	wordpools/wasnorm_wordpool_576.txt	LTP378	ltpFR2	11	8	GLOBE	641	n/a	n/a	0	0	0
1707.01513671875	n/a	WORD	3495967	wordpools/wasnorm_wordpool_576.txt	LTP378	ltpFR2	11	8	GLASS	639	n/a	n/a	0	0	0
1709.4833984375	n/a	WORD	3501022	wordpools/wasnorm_wordpool_576.txt	LTP378	ltpFR2	11	8	CHEST	295	n/a	n/a	0	0	0
1712.1982421875	n/a	WORD	3506582	wordpools/wasnorm_wordpool_576.txt	LTP378	ltpFR2	11	8	ROBIN	1199	n/a	n/a	0	0	0
1714.98193359375	n/a	WORD	3512283	wordpools/wasnorm_wordpool_576.txt	LTP378	ltpFR2	11	8	BEEF	113	n/a	n/a	0	0	0
1717.53271484375	n/a	WORD	3517507	wordpools/wasnorm_wordpool_576.txt	LTP378	ltpFR2	11	8	SILK	1307	n/a	n/a	0	0	0
1720.03173828125	n/a	WORD	3522625	wordpools/wasnorm_wordpool_576.txt	LTP378	ltpFR2	11	8	PADDING	999	n/a	n/a	0	0	0
1721.64990234375	n/a	START	3525939	n/a	LTP378	ltpFR2	11	n/a	n/a	n/a	11	n/a	n/a	n/a	n/a
1722.68701171875	n/a	DISTRACTOR	3528063	n/a	LTP378	ltpFR2	11	8	n/a	n/a	n/a	n/a	0	0	0
1722.69873046875	n/a	PROB	3528087	n/a	LTP378	ltpFR2	11	n/a	n/a	n/a	11	15	2	6	7
1726.78173828125	n/a	PROB	3536449	n/a	LTP378	ltpFR2	11	n/a	n/a	n/a	11	15	8	5	2
1728.7158203125	n/a	PROB	3540410	n/a	LTP378	ltpFR2	11	n/a	n/a	n/a	11	3	1	1	1
1730.16455078125	n/a	PROB	3543377	n/a	LTP378	ltpFR2	11	n/a	n/a	n/a	11	17	2	7	8
1733.23046875	n/a	PROB	3549656	n/a	LTP378	ltpFR2	11	n/a	n/a	n/a	11	18	7	8	3
1735.23046875	n/a	PROB	3553752	n/a	LTP378	ltpFR2	11	n/a	n/a	n/a	11	21	5	8	8
1740.064453125	n/a	PROB	3563652	n/a	LTP378	ltpFR2	11	n/a	n/a	n/a	11	14	7	5	2
1742.79833984375	n/a	PROB	3569251	n/a	LTP378	ltpFR2	11	n/a	n/a	n/a	11	13	5	2	6
1745.39892578125	n/a	STOP	3574577	n/a	LTP378	ltpFR2	11	n/a	n/a	n/a	11	n/a	n/a	n/a	n/a
1747.48193359375	n/a	REC_START	3578843	n/a	LTP378	ltpFR2	11	8	n/a	n/a	n/a	n/a	0	0	0
1750.328125	n/a	REC_WORD	3584672	wordpools/wasnorm_wordpool_576.txt	LTP378	ltpFR2	11	8	CHEST	295	n/a	n/a	0	0	0
1753.4189453125	n/a	REC_WORD	3591002	wordpools/wasnorm_wordpool_576.txt	LTP378	ltpFR2	11	8	ROBIN	1199	n/a	n/a	0	0	0
1824.009765625	n/a	REST_REWET	3735572	n/a	LTP378	ltpFR2	11	8	n/a	n/a	n/a	n/a	0	0	0
1958.9033203125	n/a	WORD	4011834	wordpools/wasnorm_wordpool_576.txt	LTP378	ltpFR2	11	9	SALAD	1224	n/a	n/a	0	0	0
1961.33642578125	n/a	WORD	4016817	wordpools/wasnorm_wordpool_576.txt	LTP378	ltpFR2	11	9	CYCLONE	431	n/a	n/a	0	0	0
1964.0205078125	n/a	WORD	4022314	wordpools/wasnorm_wordpool_576.txt	LTP378	ltpFR2	11	9	RIVER	1194	n/a	n/a	0	0	0
1966.75439453125	n/a	WORD	4027913	wordpools/wasnorm_wordpool_576.txt	LTP378	ltpFR2	11	9	CASHIER	254	n/a	n/a	0	0	0
1969.3701171875	n/a	WORD	4033270	wordpools/wasnorm_wordpool_576.txt	LTP378	ltpFR2	11	9	COSTUME	383	n/a	n/a	0	0	0
1971.986328125	n/a	WORD	4038628	wordpools/wasnorm_wordpool_576.txt	LTP378	ltpFR2	11	9	PAIL	1002	n/a	n/a	0	0	0
1974.55419921875	n/a	WORD	4043887	wordpools/wasnorm_wordpool_576.txt	LTP378	ltpFR2	11	9	VICTIM	1562	n/a	n/a	0	0	0
1977.31884765625	n/a	WORD	4049549	wordpools/wasnorm_wordpool_576.txt	LTP378	ltpFR2	11	9	GOBLIN	645	n/a	n/a	0	0	0
1979.90283203125	n/a	WORD	4054841	wordpools/wasnorm_wordpool_576.txt	LTP378	ltpFR2	11	9	MARKET	871	n/a	n/a	0	0	0
1982.63671875	n/a	WORD	4060440	wordpools/wasnorm_wordpool_576.txt	LTP378	ltpFR2	11	9	ARMY	39	n/a	n/a	0	0	0
1985.185546875	n/a	WORD	4065660	wordpools/wasnorm_wordpool_576.txt	LTP378	ltpFR2	11	9	PUPPY	1144	n/a	n/a	0	0	0
1987.70361328125	n/a	WORD	4070817	wordpools/wasnorm_wordpool_576.txt	LTP378	ltpFR2	11	9	STAR	1373	n/a	n/a	0	0	0
1990.51953125	n/a	WORD	4076584	wordpools/wasnorm_wordpool_576.txt	LTP378	ltpFR2	11	9	BRIEFCASE	175	n/a	n/a	0	0	0
1993.13525390625	n/a	WORD	4081941	wordpools/wasnorm_wordpool_576.txt	LTP378	ltpFR2	11	9	PLAZA	1088	n/a	n/a	0	0	0
1995.80224609375	n/a	WORD	4087403	wordpools/wasnorm_wordpool_576.txt	LTP378	ltpFR2	11	9	WINDOW	1611	n/a	n/a	0	0	0
1998.5361328125	n/a	WORD	4093002	wordpools/wasnorm_wordpool_576.txt	LTP378	ltpFR2	11	9	JEANS	752	n/a	n/a	0	0	0
2001.30126953125	n/a	WORD	4098665	wordpools/wasnorm_wordpool_576.txt	LTP378	ltpFR2	11	9	MARINE	869	n/a	n/a	0	0	0
2003.8349609375	n/a	WORD	4103854	wordpools/wasnorm_wordpool_576.txt	LTP378	ltpFR2	11	9	APRON	35	n/a	n/a	0	0	0
2006.40185546875	n/a	WORD	4109111	wordpools/wasnorm_wordpool_576.txt	LTP378	ltpFR2	11	9	WASHER	1592	n/a	n/a	0	0	0
2008.85107421875	n/a	WORD	4114127	wordpools/wasnorm_wordpool_576.txt	LTP378	ltpFR2	11	9	LODGE	839	n/a	n/a	0	0	0
2011.60205078125	n/a	WORD	4119761	wordpools/wasnorm_wordpool_576.txt	LTP378	ltpFR2	11	9	DORM	488	n/a	n/a	0	0	0
2014.2177734375	n/a	WORD	4125118	wordpools/wasnorm_wordpool_576.txt	LTP378	ltpFR2	11	9	PEANUT	1032	n/a	n/a	0	0	0
2016.73486328125	n/a	WORD	4130273	wordpools/wasnorm_wordpool_576.txt	LTP378	ltpFR2	11	9	CASHEW	253	n/a	n/a	0	0	0
2019.18359375	n/a	WORD	4135288	wordpools/wasnorm_wordpool_576.txt	LTP378	ltpFR2	11	9	COURSE	390	n/a	n/a	0	0	0
2020.78466796875	n/a	START	4138567	n/a	LTP378	ltpFR2	11	n/a	n/a	n/a	12	n/a	n/a	n/a	n/a
2021.802734375	n/a	DISTRACTOR	4140652	n/a	LTP378	ltpFR2	11	9	n/a	n/a	n/a	n/a	0	0	0
2021.8173828125	n/a	PROB	4140682	n/a	LTP378	ltpFR2	11	n/a	n/a	n/a	12	16	6	9	1
2025.53466796875	n/a	PROB	4148295	n/a	LTP378	ltpFR2	11	n/a	n/a	n/a	12	14	1	9	4
2027.4013671875	n/a	PROB	4152118	n/a	LTP378	ltpFR2	11	n/a	n/a	n/a	12	13	3	9	1
2029.93310546875	n/a	PROB	4157303	n/a	LTP378	ltpFR2	11	n/a	n/a	n/a	12	10	6	3	1
2032.5673828125	n/a	PROB	4162698	n/a	LTP378	ltpFR2	11	n/a	n/a	n/a	12	14	5	7	2
2035.13330078125	n/a	PROB	4167953	n/a	LTP378	ltpFR2	11	n/a	n/a	n/a	12	12	5	2	5
2036.93310546875	n/a	PROB	4171639	n/a	LTP378	ltpFR2	11	n/a	n/a	n/a	12	22	9	4	8
2044.78369140625	n/a	STOP	4187717	n/a	LTP378	ltpFR2	11	n/a	n/a	n/a	12	n/a	n/a	n/a	n/a
2046.6337890625	n/a	REC_START	4191506	n/a	LTP378	ltpFR2	11	9	n/a	n/a	n/a	n/a	0	0	0
2053.24072265625	n/a	REC_WORD	4205037	wordpools/wasnorm_wordpool_576.txt	LTP378	ltpFR2	11	9	VICTIM	1562	n/a	n/a	0	0	0
2054.54638671875	n/a	REC_WORD	4207711	wordpools/wasnorm_wordpool_576.txt	LTP378	ltpFR2	11	9	GOBLIN	645	n/a	n/a	0	0	0
2055.40966796875	n/a	REC_WORD	4209479	wordpools/wasnorm_wordpool_576.txt	LTP378	ltpFR2	11	9	MARKET	871	n/a	n/a	0	0	0
2058.1865234375	n/a	REC_WORD	4215166	wordpools/wasnorm_wordpool_576.txt	LTP378	ltpFR2	11	9	CASHEW	253	n/a	n/a	0	0	0
2058.9736328125	n/a	REC_WORD	4216778	wordpools/wasnorm_wordpool_576.txt	LTP378	ltpFR2	11	9	PEANUT	1032	n/a	n/a	0	0	0
2060.76416015625	n/a	REC_WORD_VV	4220445	wordpools/wasnorm_wordpool_576.txt	LTP378	ltpFR2	11	9	<>	-1	n/a	n/a	0	0	0
2061.05029296875	n/a	REC_WORD	4221031	wordpools/wasnorm_wordpool_576.txt	LTP378	ltpFR2	11	9	LODGE	839	n/a	n/a	0	0	0
2062.67236328125	n/a	REC_WORD	4224353	wordpools/wasnorm_wordpool_576.txt	LTP378	ltpFR2	11	9	DORM	488	n/a	n/a	0	0	0
2063.28125	n/a	REC_WORD	4225600	wordpools/wasnorm_wordpool_576.txt	LTP378	ltpFR2	11	9	COURSE	390	n/a	n/a	0	0	0
2137.09521484375	n/a	WORD	4376771	wordpools/wasnorm_wordpool_576.txt	LTP378	ltpFR2	11	10	LACE	792	n/a	n/a	0	0	0
2139.595703125	n/a	WORD	4381892	wordpools/wasnorm_wordpool_576.txt	LTP378	ltpFR2	11	10	PLAYGROUND	1087	n/a	n/a	0	0	0
2142.1279296875	n/a	WORD	4387078	wordpools/wasnorm_wordpool_576.txt	LTP378	ltpFR2	11	10	MUMMY	932	n/a	n/a	0	0	0
2144.8779296875	n/a	WORD	4392710	wordpools/wasnorm_wordpool_576.txt	LTP378	ltpFR2	11	10	TEMPLE	1448	n/a	n/a	0	0	0
2147.29443359375	n/a	WORD	4397659	wordpools/wasnorm_wordpool_576.txt	LTP378	ltpFR2	11	10	SHORTS	1293	n/a	n/a	0	0	0
2150.01171875	n/a	WORD	4403224	wordpools/wasnorm_wordpool_576.txt	LTP378	ltpFR2	11	10	FRUIT	610	n/a	n/a	0	0	0
2152.7783203125	n/a	WORD	4408890	wordpools/wasnorm_wordpool_576.txt	LTP378	ltpFR2	11	10	POISON	1096	n/a	n/a	0	0	0
2155.310546875	n/a	WORD	4414076	wordpools/wasnorm_wordpool_576.txt	LTP378	ltpFR2	11	10	SKETCH	1315	n/a	n/a	0	0	0
2157.87744140625	n/a	WORD	4419333	wordpools/wasnorm_wordpool_576.txt	LTP378	ltpFR2	11	10	GALLON	618	n/a	n/a	0	0	0
2160.4111328125	n/a	WORD	4424522	wordpools/wasnorm_wordpool_576.txt	LTP378	ltpFR2	11	10	EGYPT	519	n/a	n/a	0	0	0
2162.84423828125	n/a	WORD	4429505	wordpools/wasnorm_wordpool_576.txt	LTP378	ltpFR2	11	10	PLASTER	1085	n/a	n/a	0	0	0
2165.27734375	n/a	WORD	4434488	wordpools/wasnorm_wordpool_576.txt	LTP378	ltpFR2	11	10	LUMBER	848	n/a	n/a	0	0	0
2167.994140625	n/a	WORD	4440052	wordpools/wasnorm_wordpool_576.txt	LTP378	ltpFR2	11	10	ORCHID	982	n/a	n/a	0	0	0
2170.56103515625	n/a	WORD	4445309	wordpools/wasnorm_wordpool_576.txt	LTP378	ltpFR2	11	10	BISON	131	n/a	n/a	0	0	0
2173.259765625	n/a	WORD	4450836	wordpools/wasnorm_wordpool_576.txt	LTP378	ltpFR2	11	10	HAMPER	682	n/a	n/a	0	0	0
2175.892578125	n/a	WORD	4456228	wordpools/wasnorm_wordpool_576.txt	LTP378	ltpFR2	11	10	TERMITE	1451	n/a	n/a	0	0	0
2178.3935546875	n/a	WORD	4461350	wordpools/wasnorm_wordpool_576.txt	LTP378	ltpFR2	11	10	BALLOON	75	n/a	n/a	0	0	0
2180.85986328125	n/a	WORD	4466401	wordpools/wasnorm_wordpool_576.txt	LTP378	ltpFR2	11	10	MILK	895	n/a	n/a	0	0	0
2183.41064453125	n/a	WORD	4471625	wordpools/wasnorm_wordpool_576.txt	LTP378	ltpFR2	11	10	FRAME	600	n/a	n/a	0	0	0
2185.9765625	n/a	WORD	4476880	wordpools/wasnorm_wordpool_576.txt	LTP378	ltpFR2	11	10	BARREL	91	n/a	n/a	0	0	0
2188.693359375	n/a	WORD	4482444	wordpools/wasnorm_wordpool_576.txt	LTP378	ltpFR2	11	10	FLUTE	585	n/a	n/a	0	0	0
2191.17529296875	n/a	WORD	4487527	wordpools/wasnorm_wordpool_576.txt	LTP378	ltpFR2	11	10	ASIA	46	n/a	n/a	0	0	0
2193.875	n/a	WORD	4493056	wordpools/wasnorm_wordpool_576.txt	LTP378	ltpFR2	11	10	JAPAN	749	n/a	n/a	0	0	0
2196.6259765625	n/a	WORD	4498690	wordpools/wasnorm_wordpool_576.txt	LTP378	ltpFR2	11	10	XEROX	1628	n/a	n/a	0	0	0
2198.2421875	n/a	START	4502000	n/a	LTP378	ltpFR2	11	n/a	n/a	n/a	13	n/a	n/a	n/a	n/a
2199.22607421875	n/a	DISTRACTOR	4504015	n/a	LTP378	ltpFR2	11	10	n/a	n/a	n/a	n/a	0	0	0
2199.2421875	n/a	PROB	4504048	n/a	LTP378	ltpFR2	11	n/a	n/a	n/a	13	20	7	4	9
2204.30908203125	n/a	PROB	4514425	n/a	LTP378	ltpFR2	11	n/a	n/a	n/a	13	18	6	9	3
2207.82470703125	n/a	PROB	4521625	n/a	LTP378	ltpFR2	11	n/a	n/a	n/a	13	7	4	2	1
2211.60888671875	n/a	PROB	4529375	n/a	LTP378	ltpFR2	11	n/a	n/a	n/a	13	13	1	8	4
2213.94140625	n/a	PROB	4534152	n/a	LTP378	ltpFR2	11	n/a	n/a	n/a	13	21	9	4	9
2217.07470703125	n/a	PROB	4540569	n/a	LTP378	ltpFR2	11	n/a	n/a	n/a	13	12	2	6	4
2222.2412109375	n/a	STOP	4551150	n/a	LTP378	ltpFR2	11	n/a	n/a	n/a	13	n/a	n/a	n/a	n/a
2224.158203125	n/a	REC_START	4555076	n/a	LTP378	ltpFR2	11	10	n/a	n/a	n/a	n/a	0	0	0
2226.17724609375	n/a	REC_WORD	4559211	wordpools/wasnorm_wordpool_576.txt	LTP378	ltpFR2	11	10	LUMBER	848	n/a	n/a	0	0	0
2226.79736328125	n/a	REC_WORD	4560481	wordpools/wasnorm_wordpool_576.txt	LTP378	ltpFR2	11	10	ORCHARD	-1	n/a	n/a	0	0	0
2230.2431640625	n/a	REC_WORD	4567538	wordpools/wasnorm_wordpool_576.txt	LTP378	ltpFR2	11	10	ORCHID	982	n/a	n/a	0	0	0
2275.138671875	n/a	REC_WORD	4659484	wordpools/wasnorm_wordpool_576.txt	LTP378	ltpFR2	11	10	BISON	131	n/a	n/a	0	0	0
2346.41943359375	n/a	DISTRACTOR	4805467	n/a	LTP378	ltpFR2	11	11	n/a	n/a	n/a	n/a	0	0	0
2346.41943359375	n/a	START	4805467	n/a	LTP378	ltpFR2	11	n/a	n/a	n/a	14	n/a	n/a	n/a	n/a
2346.4365234375	n/a	PROB	4805502	n/a	LTP378	ltpFR2	11	n/a	n/a	n/a	14	11	2	5	4
2349.685546875	n/a	PROB	4812156	n/a	LTP378	ltpFR2	11	n/a	n/a	n/a	14	17	4	7	6
2352.05126953125	n/a	PROB	4817001	n/a	LTP378	ltpFR2	11	n/a	n/a	n/a	14	18	7	9	2
2354.2841796875	n/a	PROB	4821574	n/a	LTP378	ltpFR2	11	n/a	n/a	n/a	14	15	7	7	1
2358.01806640625	n/a	PROB	4829221	n/a	LTP378	ltpFR2	11	n/a	n/a	n/a	14	16	7	1	8
2359.78515625	n/a	PROB	4832840	n/a	LTP378	ltpFR2	11	n/a	n/a	n/a	14	9	1	4	4
2363.01806640625	n/a	PROB	4839461	n/a	LTP378	ltpFR2	11	n/a	n/a	n/a	14	16	7	4	5
2369.0859375	n/a	STOP	4851888	n/a	LTP378	ltpFR2	11	n/a	n/a	n/a	14	n/a	n/a	n/a	n/a
2371.56787109375	n/a	WORD	4856971	wordpools/wasnorm_wordpool_576.txt	LTP378	ltpFR2	11	11	PROTON	1132	n/a	n/a	0	0	0
2374.30078125	n/a	WORD	4862568	wordpools/wasnorm_wordpool_576.txt	LTP378	ltpFR2	11	11	POPCORN	1104	n/a	n/a	0	0	0
2377.05078125	n/a	WORD	4868200	wordpools/wasnorm_wordpool_576.txt	LTP378	ltpFR2	11	11	FILM	565	n/a	n/a	0	0	0
2379.5673828125	n/a	WORD	4873354	wordpools/wasnorm_wordpool_576.txt	LTP378	ltpFR2	11	11	ZIPPER	1636	n/a	n/a	0	0	0
2382.3515625	n/a	WORD	4879056	wordpools/wasnorm_wordpool_576.txt	LTP378	ltpFR2	11	11	POCKET	1093	n/a	n/a	0	0	0
2384.900390625	n/a	WORD	4884276	wordpools/wasnorm_wordpool_576.txt	LTP378	ltpFR2	11	11	RIFLE	1192	n/a	n/a	0	0	0
2387.55029296875	n/a	WORD	4889703	wordpools/wasnorm_wordpool_576.txt	LTP378	ltpFR2	11	11	FOOTBALL	591	n/a	n/a	0	0	0
2390.26611328125	n/a	WORD	4895265	wordpools/wasnorm_wordpool_576.txt	LTP378	ltpFR2	11	11	EAGLE	512	n/a	n/a	0	0	0
2393.01611328125	n/a	WORD	4900897	wordpools/wasnorm_wordpool_576.txt	LTP378	ltpFR2	11	11	LUNCH	849	n/a	n/a	0	0	0
2395.5341796875	n/a	WORD	4906054	wordpools/wasnorm_wordpool_576.txt	LTP378	ltpFR2	11	11	RECORD	1176	n/a	n/a	0	0	0
2398.1328125	n/a	WORD	4911376	wordpools/wasnorm_wordpool_576.txt	LTP378	ltpFR2	11	11	COFFEE	341	n/a	n/a	0	0	0
2400.94873046875	n/a	WORD	4917143	wordpools/wasnorm_wordpool_576.txt	LTP378	ltpFR2	11	11	WHISTLE	1606	n/a	n/a	0	0	0
2403.64990234375	n/a	WORD	4922675	wordpools/wasnorm_wordpool_576.txt	LTP378	ltpFR2	11	11	SLUG	1329	n/a	n/a	0	0	0
2406.11572265625	n/a	WORD	4927725	wordpools/wasnorm_wordpool_576.txt	LTP378	ltpFR2	11	11	BLENDER	136	n/a	n/a	0	0	0
2408.61669921875	n/a	WORD	4932847	wordpools/wasnorm_wordpool_576.txt	LTP378	ltpFR2	11	11	FIDDLE	561	n/a	n/a	0	0	0
2411.0654296875	n/a	WORD	4937862	wordpools/wasnorm_wordpool_576.txt	LTP378	ltpFR2	11	11	CATCHER	258	n/a	n/a	0	0	0
2413.69921875	n/a	WORD	4943256	wordpools/wasnorm_wordpool_576.txt	LTP378	ltpFR2	11	11	SCISSORS	1250	n/a	n/a	0	0	0
2416.16552734375	n/a	WORD	4948307	wordpools/wasnorm_wordpool_576.txt	LTP378	ltpFR2	11	11	RUST	1219	n/a	n/a	0	0	0
2418.79833984375	n/a	WORD	4953699	wordpools/wasnorm_wordpool_576.txt	LTP378	ltpFR2	11	11	TOMBSTONE	1478	n/a	n/a	0	0	0
2421.44921875	n/a	WORD	4959128	wordpools/wasnorm_wordpool_576.txt	LTP378	ltpFR2	11	11	GRAVE	658	n/a	n/a	0	0	0
2423.88134765625	n/a	WORD	4964109	wordpools/wasnorm_wordpool_576.txt	LTP378	ltpFR2	11	11	CRITIC	410	n/a	n/a	0	0	0
2426.548828125	n/a	WORD	4969572	wordpools/wasnorm_wordpool_576.txt	LTP378	ltpFR2	11	11	CIGAR	308	n/a	n/a	0	0	0
2429.248046875	n/a	WORD	4975100	wordpools/wasnorm_wordpool_576.txt	LTP378	ltpFR2	11	11	POWDER	1117	n/a	n/a	0	0	0
2431.69873046875	n/a	WORD	4980119	wordpools/wasnorm_wordpool_576.txt	LTP378	ltpFR2	11	11	ISLAND	745	n/a	n/a	0	0	0
2433.31494140625	n/a	START	4983429	n/a	LTP378	ltpFR2	11	n/a	n/a	n/a	15	n/a	n/a	n/a	n/a
2434.40380859375	n/a	DISTRACTOR	4985659	n/a	LTP378	ltpFR2	11	11	n/a	n/a	n/a	n/a	0	0	0
2434.41455078125	n/a	PROB	4985681	n/a	LTP378	ltpFR2	11	n/a	n/a	n/a	15	13	8	3	2
2437.78173828125	n/a	PROB	4992577	n/a	LTP378	ltpFR2	11	n/a	n/a	n/a	15	14	1	9	4
2442.09765625	n/a	PROB	5001416	n/a	LTP378	ltpFR2	11	n/a	n/a	n/a	15	17	6	3	8
2444.04736328125	n/a	PROB	5005409	n/a	LTP378	ltpFR2	11	n/a	n/a	n/a	15	19	6	7	6
2446.1806640625	n/a	PROB	5009778	n/a	LTP378	ltpFR2	11	n/a	n/a	n/a	15	15	6	6	3
2449.23046875	n/a	PROB	5016024	n/a	LTP378	ltpFR2	11	n/a	n/a	n/a	15	14	8	3	3
2451.830078125	n/a	PROB	5021348	n/a	LTP378	ltpFR2	11	n/a	n/a	n/a	15	18	7	4	7
2457.31298828125	n/a	STOP	5032577	n/a	LTP378	ltpFR2	11	n/a	n/a	n/a	15	n/a	n/a	n/a	n/a
2459.2138671875	n/a	REC_START	5036470	n/a	LTP378	ltpFR2	11	11	n/a	n/a	n/a	n/a	0	0	0
2460.97119140625	n/a	REC_WORD	5040069	wordpools/wasnorm_wordpool_576.txt	LTP378	ltpFR2	11	11	SLUG	1329	n/a	n/a	0	0	0
2463.134765625	n/a	REC_WORD	5044500	wordpools/wasnorm_wordpool_576.txt	LTP378	ltpFR2	11	11	COFFEE	341	n/a	n/a	0	0	0
2464.4609375	n/a	REC_WORD	5047216	wordpools/wasnorm_wordpool_576.txt	LTP378	ltpFR2	11	11	WHISTLE	1606	n/a	n/a	0	0	0
2474.69677734375	n/a	REC_WORD	5068179	wordpools/wasnorm_wordpool_576.txt	LTP378	ltpFR2	11	11	POCKET	1093	n/a	n/a	0	0	0
2475.6767578125	n/a	REC_WORD	5070186	wordpools/wasnorm_wordpool_576.txt	LTP378	ltpFR2	11	11	ZIPPER	1636	n/a	n/a	0	0	0
2476.62841796875	n/a	REC_WORD	5072135	wordpools/wasnorm_wordpool_576.txt	LTP378	ltpFR2	11	11	FILM	565	n/a	n/a	0	0	0
2479.8125	n/a	REC_WORD	5078656	wordpools/wasnorm_wordpool_576.txt	LTP378	ltpFR2	11	11	RIFLE	1192	n/a	n/a	0	0	0
2486.25927734375	n/a	REC_WORD	5091859	wordpools/wasnorm_wordpool_576.txt	LTP378	ltpFR2	11	11	PROTON	1132	n/a	n/a	0	0	0
2486.92333984375	n/a	REC_WORD	5093219	wordpools/wasnorm_wordpool_576.txt	LTP378	ltpFR2	11	11	POPCORN	1104	n/a	n/a	0	0	0
2527.61474609375	n/a	REC_WORD	5176555	wordpools/wasnorm_wordpool_576.txt	LTP378	ltpFR2	11	11	FIDDLE	561	n/a	n/a	0	0	0
2549.64306640625	n/a	WORD	5221669	wordpools/wasnorm_wordpool_576.txt	LTP378	ltpFR2	11	12	BARLEY	88	n/a	n/a	0	0	0
2552.2919921875	n/a	WORD	5227094	wordpools/wasnorm_wordpool_576.txt	LTP378	ltpFR2	11	12	DAISY	435	n/a	n/a	0	0	0
2554.85791015625	n/a	WORD	5232349	wordpools/wasnorm_wordpool_576.txt	LTP378	ltpFR2	11	12	CLOCK	325	n/a	n/a	0	0	0
2557.35888671875	n/a	WORD	5237471	wordpools/wasnorm_wordpool_576.txt	LTP378	ltpFR2	11	12	CARROT	249	n/a	n/a	0	0	0
2559.94189453125	n/a	WORD	5242761	wordpools/wasnorm_wordpool_576.txt	LTP378	ltpFR2	11	12	TILE	1468	n/a	n/a	0	0	0
2562.458984375	n/a	WORD	5247916	wordpools/wasnorm_wordpool_576.txt	LTP378	ltpFR2	11	12	HORNET	718	n/a	n/a	0	0	0
2565.17578125	n/a	WORD	5253480	wordpools/wasnorm_wordpool_576.txt	LTP378	ltpFR2	11	12	HEART	697	n/a	n/a	0	0	0
2567.8916015625	n/a	WORD	5259042	wordpools/wasnorm_wordpool_576.txt	LTP378	ltpFR2	11	12	TOURIST	1488	n/a	n/a	0	0	0
2570.7255859375	n/a	WORD	5264846	wordpools/wasnorm_wordpool_576.txt	LTP378	ltpFR2	11	12	SUITCASE	1403	n/a	n/a	0	0	0
2573.50830078125	n/a	WORD	5270545	wordpools/wasnorm_wordpool_576.txt	LTP378	ltpFR2	11	12	OX	994	n/a	n/a	0	0	0
2576.25732421875	n/a	WORD	5276175	wordpools/wasnorm_wordpool_576.txt	LTP378	ltpFR2	11	12	HOUND	724	n/a	n/a	0	0	0
2579.00732421875	n/a	WORD	5281807	wordpools/wasnorm_wordpool_576.txt	LTP378	ltpFR2	11	12	PERMIT	1051	n/a	n/a	0	0	0
2581.47509765625	n/a	WORD	5286861	wordpools/wasnorm_wordpool_576.txt	LTP378	ltpFR2	11	12	IDOL	733	n/a	n/a	0	0	0
2584.17431640625	n/a	WORD	5292389	wordpools/wasnorm_wordpool_576.txt	LTP378	ltpFR2	11	12	ULCER	1533	n/a	n/a	0	0	0
2586.72509765625	n/a	WORD	5297613	wordpools/wasnorm_wordpool_576.txt	LTP378	ltpFR2	11	12	BUG	187	n/a	n/a	0	0	0
2589.4580078125	n/a	WORD	5303210	wordpools/wasnorm_wordpool_576.txt	LTP378	ltpFR2	11	12	SUNRISE	1407	n/a	n/a	0	0	0
2591.90673828125	n/a	WORD	5308225	wordpools/wasnorm_wordpool_576.txt	LTP378	ltpFR2	11	12	HUSBAND	728	n/a	n/a	0	0	0
2594.69091796875	n/a	WORD	5313927	wordpools/wasnorm_wordpool_576.txt	LTP378	ltpFR2	11	12	WASP	1593	n/a	n/a	0	0	0
2597.5078125	n/a	WORD	5319696	wordpools/wasnorm_wordpool_576.txt	LTP378	ltpFR2	11	12	ORANGE	980	n/a	n/a	0	0	0
2599.939453125	n/a	WORD	5324676	wordpools/wasnorm_wordpool_576.txt	LTP378	ltpFR2	11	12	BRANDY	169	n/a	n/a	0	0	0
2602.49072265625	n/a	WORD	5329901	wordpools/wasnorm_wordpool_576.txt	LTP378	ltpFR2	11	12	CEILING	265	n/a	n/a	0	0	0
2605.1396484375	n/a	WORD	5335326	wordpools/wasnorm_wordpool_576.txt	LTP378	ltpFR2	11	12	PEPPER	1047	n/a	n/a	0	0	0
2607.78955078125	n/a	WORD	5340753	wordpools/wasnorm_wordpool_576.txt	LTP378	ltpFR2	11	12	BANK	83	n/a	n/a	0	0	0
2610.25634765625	n/a	WORD	5345805	wordpools/wasnorm_wordpool_576.txt	LTP378	ltpFR2	11	12	BANKER	84	n/a	n/a	0	0	0
2611.8720703125	n/a	START	5349114	n/a	LTP378	ltpFR2	11	n/a	n/a	n/a	16	n/a	n/a	n/a	n/a
2612.83740234375	n/a	DISTRACTOR	5351091	n/a	LTP378	ltpFR2	11	12	n/a	n/a	n/a	n/a	0	0	0
2612.8564453125	n/a	PROB	5351130	n/a	LTP378	ltpFR2	11	n/a	n/a	n/a	16	10	6	3	1
2617.59033203125	n/a	PROB	5360825	n/a	LTP378	ltpFR2	11	n/a	n/a	n/a	16	17	4	7	6
2625.77294921875	n/a	PROB	5377583	n/a	LTP378	ltpFR2	11	n/a	n/a	n/a	16	5	1	3	1
2627.43994140625	n/a	PROB	5380997	n/a	LTP378	ltpFR2	11	n/a	n/a	n/a	16	12	5	4	3
2631.3388671875	n/a	PROB	5388982	n/a	LTP378	ltpFR2	11	n/a	n/a	n/a	16	11	3	1	7
2635.87158203125	n/a	STOP	5398265	n/a	LTP378	ltpFR2	11	n/a	n/a	n/a	16	n/a	n/a	n/a	n/a
2637.72265625	n/a	REC_START	5402056	n/a	LTP378	ltpFR2	11	12	n/a	n/a	n/a	n/a	0	0	0
2644.6455078125	n/a	REC_WORD	5416234	wordpools/wasnorm_wordpool_576.txt	LTP378	ltpFR2	11	12	IDOL	733	n/a	n/a	0	0	0
2645.822265625	n/a	REC_WORD	5418644	wordpools/wasnorm_wordpool_576.txt	LTP378	ltpFR2	11	12	BUG	187	n/a	n/a	0	0	0
2648.51904296875	n/a	REC_WORD	5424167	wordpools/wasnorm_wordpool_576.txt	LTP378	ltpFR2	11	12	SUNRISE	1407	n/a	n/a	0	0	0
2649.72998046875	n/a	REC_WORD	5426647	wordpools/wasnorm_wordpool_576.txt	LTP378	ltpFR2	11	12	HUSBAND	728	n/a	n/a	0	0	0
2653.19189453125	n/a	REC_WORD	5433737	wordpools/wasnorm_wordpool_576.txt	LTP378	ltpFR2	11	12	OX	994	n/a	n/a	0	0	0
2752.56689453125	n/a	WORD	5637257	wordpools/wasnorm_wordpool_576.txt	LTP378	ltpFR2	11	13	MUSTARD	935	n/a	n/a	0	0	0
2755.298828125	n/a	WORD	5642852	wordpools/wasnorm_wordpool_576.txt	LTP378	ltpFR2	11	13	WIFE	1609	n/a	n/a	0	0	0
2758.03173828125	n/a	WORD	5648449	wordpools/wasnorm_wordpool_576.txt	LTP378	ltpFR2	11	13	LADDER	793	n/a	n/a	0	0	0
2760.44970703125	n/a	WORD	5653401	wordpools/wasnorm_wordpool_576.txt	LTP378	ltpFR2	11	13	TWIG	1527	n/a	n/a	0	0	0
2763.1318359375	n/a	WORD	5658894	wordpools/wasnorm_wordpool_576.txt	LTP378	ltpFR2	11	13	KETCHUP	771	n/a	n/a	0	0	0
2765.63232421875	n/a	WORD	5664015	wordpools/wasnorm_wordpool_576.txt	LTP378	ltpFR2	11	13	JURY	766	n/a	n/a	0	0	0
2768.1982421875	n/a	WORD	5669270	wordpools/wasnorm_wordpool_576.txt	LTP378	ltpFR2	11	13	HEDGE	699	n/a	n/a	0	0	0
2770.9482421875	n/a	WORD	5674902	wordpools/wasnorm_wordpool_576.txt	LTP378	ltpFR2	11	13	GRILL	661	n/a	n/a	0	0	0
2773.49951171875	n/a	WORD	5680127	wordpools/wasnorm_wordpool_576.txt	LTP378	ltpFR2	11	13	RECEIPT	1173	n/a	n/a	0	0	0
2776.064453125	n/a	WORD	5685380	wordpools/wasnorm_wordpool_576.txt	LTP378	ltpFR2	11	13	OMELET	976	n/a	n/a	0	0	0
2778.51513671875	n/a	WORD	5690399	wordpools/wasnorm_wordpool_576.txt	LTP378	ltpFR2	11	13	QUEEN	1149	n/a	n/a	0	0	0
2781.06396484375	n/a	WORD	5695619	wordpools/wasnorm_wordpool_576.txt	LTP378	ltpFR2	11	13	GAZELLE	628	n/a	n/a	0	0	0
2783.68212890625	n/a	WORD	5700981	wordpools/wasnorm_wordpool_576.txt	LTP378	ltpFR2	11	13	MOP	916	n/a	n/a	0	0	0
2786.1640625	n/a	WORD	5706064	wordpools/wasnorm_wordpool_576.txt	LTP378	ltpFR2	11	13	PARSLEY	1016	n/a	n/a	0	0	0
2788.9638671875	n/a	WORD	5711798	wordpools/wasnorm_wordpool_576.txt	LTP378	ltpFR2	11	13	NOVEL	960	n/a	n/a	0	0	0
2791.48193359375	n/a	WORD	5716955	wordpools/wasnorm_wordpool_576.txt	LTP378	ltpFR2	11	13	PASSAGE	1019	n/a	n/a	0	0	0
2794.08056640625	n/a	WORD	5722277	wordpools/wasnorm_wordpool_576.txt	LTP378	ltpFR2	11	13	SWITCH	1422	n/a	n/a	0	0	0
2796.83056640625	n/a	WORD	5727909	wordpools/wasnorm_wordpool_576.txt	LTP378	ltpFR2	11	13	FRAGRANCE	599	n/a	n/a	0	0	0
2799.29638671875	n/a	WORD	5732959	wordpools/wasnorm_wordpool_576.txt	LTP378	ltpFR2	11	13	SPONGE	1355	n/a	n/a	0	0	0
2802.04638671875	n/a	WORD	5738591	wordpools/wasnorm_wordpool_576.txt	LTP378	ltpFR2	11	13	CANYON	235	n/a	n/a	0	0	0
2804.63134765625	n/a	WORD	5743885	wordpools/wasnorm_wordpool_576.txt	LTP378	ltpFR2	11	13	ARM	38	n/a	n/a	0	0	0
2807.447265625	n/a	WORD	5749652	wordpools/wasnorm_wordpool_576.txt	LTP378	ltpFR2	11	13	HAND	683	n/a	n/a	0	0	0
2810.1630859375	n/a	WORD	5755214	wordpools/wasnorm_wordpool_576.txt	LTP378	ltpFR2	11	13	KIDNEY	776	n/a	n/a	0	0	0
2812.92919921875	n/a	WORD	5760879	wordpools/wasnorm_wordpool_576.txt	LTP378	ltpFR2	11	13	LIVER	833	n/a	n/a	0	0	0
2814.53125	n/a	START	5764160	n/a	LTP378	ltpFR2	11	n/a	n/a	n/a	17	n/a	n/a	n/a	n/a
2815.71923828125	n/a	DISTRACTOR	5766593	n/a	LTP378	ltpFR2	11	13	n/a	n/a	n/a	n/a	0	0	0
2815.72998046875	n/a	PROB	5766615	n/a	LTP378	ltpFR2	11	n/a	n/a	n/a	17	13	3	7	3
2818.0126953125	n/a	PROB	5771290	n/a	LTP378	ltpFR2	11	n/a	n/a	n/a	17	9	2	1	6
2819.97900390625	n/a	PROB	5775317	n/a	LTP378	ltpFR2	11	n/a	n/a	n/a	17	16	5	3	8
2822.47998046875	n/a	PROB	5780439	n/a	LTP378	ltpFR2	11	n/a	n/a	n/a	17	13	3	1	9
2824.962890625	n/a	PROB	5785524	n/a	LTP378	ltpFR2	11	n/a	n/a	n/a	17	8	2	3	3
2826.87890625	n/a	PROB	5789448	n/a	LTP378	ltpFR2	11	n/a	n/a	n/a	17	12	2	6	4
2828.77880859375	n/a	PROB	5793339	n/a	LTP378	ltpFR2	11	n/a	n/a	n/a	17	21	8	8	5
2831.91162109375	n/a	PROB	5799755	n/a	LTP378	ltpFR2	11	n/a	n/a	n/a	17	4	1	1	2
2833.87841796875	n/a	PROB	5803783	n/a	LTP378	ltpFR2	11	n/a	n/a	n/a	17	9	4	1	4
2838.5302734375	n/a	STOP	5813310	n/a	LTP378	ltpFR2	11	n/a	n/a	n/a	17	n/a	n/a	n/a	n/a
2840.34619140625	n/a	REC_START	5817029	n/a	LTP378	ltpFR2	11	13	n/a	n/a	n/a	n/a	0	0	0
2841.71337890625	n/a	REC_WORD	5819829	wordpools/wasnorm_wordpool_576.txt	LTP378	ltpFR2	11	13	HAND	683	n/a	n/a	0	0	0
2844.27392578125	n/a	REC_WORD	5825073	wordpools/wasnorm_wordpool_576.txt	LTP378	ltpFR2	11	13	ARM	38	n/a	n/a	0	0	0
2845.3310546875	n/a	REC_WORD	5827238	wordpools/wasnorm_wordpool_576.txt	LTP378	ltpFR2	11	13	FOOT	590	n/a	n/a	0	0	0
2846.68408203125	n/a	REC_WORD	5830009	wordpools/wasnorm_wordpool_576.txt	LTP378	ltpFR2	11	13	LIVER	833	n/a	n/a	0	0	0
2847.419921875	n/a	REC_WORD	5831516	wordpools/wasnorm_wordpool_576.txt	LTP378	ltpFR2	11	13	KIDNEY	776	n/a	n/a	0	0	0
2860.7998046875	n/a	REC_WORD_VV	5858918	wordpools/wasnorm_wordpool_576.txt	LTP378	ltpFR2	11	13	<>	-1	n/a	n/a	0	0	0
2861.87451171875	n/a	REC_WORD	5861119	wordpools/wasnorm_wordpool_576.txt	LTP378	ltpFR2	11	13	MUSTARD	935	n/a	n/a	0	0	0
2863.11474609375	n/a	REC_WORD	5863659	wordpools/wasnorm_wordpool_576.txt	LTP378	ltpFR2	11	13	LADDER	793	n/a	n/a	0	0	0
2864.5654296875	n/a	REC_WORD	5866630	wordpools/wasnorm_wordpool_576.txt	LTP378	ltpFR2	11	13	TWIG	1527	n/a	n/a	0	0	0
2866.78955078125	n/a	REC_WORD	5871185	wordpools/wasnorm_wordpool_576.txt	LTP378	ltpFR2	11	13	KETCHUP	771	n/a	n/a	0	0	0
2867.734375	n/a	REC_WORD	5873120	wordpools/wasnorm_wordpool_576.txt	LTP378	ltpFR2	11	13	JURY	766	n/a	n/a	0	0	0
2868.5283203125	n/a	REC_WORD	5874746	wordpools/wasnorm_wordpool_576.txt	LTP378	ltpFR2	11	13	HEDGE	699	n/a	n/a	0	0	0
2869.47119140625	n/a	REC_WORD	5876677	wordpools/wasnorm_wordpool_576.txt	LTP378	ltpFR2	11	13	RECEIPT	1173	n/a	n/a	0	0	0
2871.0322265625	n/a	REC_WORD	5879874	wordpools/wasnorm_wordpool_576.txt	LTP378	ltpFR2	11	13	GRILL	661	n/a	n/a	0	0	0
2882.1171875	n/a	REC_WORD	5902576	wordpools/wasnorm_wordpool_576.txt	LTP378	ltpFR2	11	13	WIFE	1609	n/a	n/a	0	0	0
2902.66552734375	n/a	REC_WORD	5944659	wordpools/wasnorm_wordpool_576.txt	LTP378	ltpFR2	11	13	LILY	821	n/a	n/a	0	0	0
2930.8076171875	n/a	WORD	6002294	wordpools/wasnorm_wordpool_576.txt	LTP378	ltpFR2	11	14	VALLEY	1545	n/a	n/a	0	0	0
2933.240234375	n/a	WORD	6007276	wordpools/wasnorm_wordpool_576.txt	LTP378	ltpFR2	11	14	STALLION	1369	n/a	n/a	0	0	0
2935.79052734375	n/a	WORD	6012499	wordpools/wasnorm_wordpool_576.txt	LTP378	ltpFR2	11	14	ICEBERG	731	n/a	n/a	0	0	0
2938.57421875	n/a	WORD	6018200	wordpools/wasnorm_wordpool_576.txt	LTP378	ltpFR2	11	14	PERFUME	1049	n/a	n/a	0	0	0
2941.22314453125	n/a	WORD	6023625	wordpools/wasnorm_wordpool_576.txt	LTP378	ltpFR2	11	14	PRINCESS	1125	n/a	n/a	0	0	0
2943.93994140625	n/a	WORD	6029189	wordpools/wasnorm_wordpool_576.txt	LTP378	ltpFR2	11	14	SHOVEL	1295	n/a	n/a	0	0	0
2946.5908203125	n/a	WORD	6034618	wordpools/wasnorm_wordpool_576.txt	LTP378	ltpFR2	11	14	GRAVEL	659	n/a	n/a	0	0	0
2949.07275390625	n/a	WORD	6039701	wordpools/wasnorm_wordpool_576.txt	LTP378	ltpFR2	11	14	ZEBRA	1635	n/a	n/a	0	0	0
2951.57373046875	n/a	WORD	6044823	wordpools/wasnorm_wordpool_576.txt	LTP378	ltpFR2	11	14	CATTLE	261	n/a	n/a	0	0	0
2954.3408203125	n/a	WORD	6050490	wordpools/wasnorm_wordpool_576.txt	LTP378	ltpFR2	11	14	BEAST	108	n/a	n/a	0	0	0
2957.07275390625	n/a	WORD	6056085	wordpools/wasnorm_wordpool_576.txt	LTP378	ltpFR2	11	14	AWARD	63	n/a	n/a	0	0	0
2959.54052734375	n/a	WORD	6061139	wordpools/wasnorm_wordpool_576.txt	LTP378	ltpFR2	11	14	ACTOR	5	n/a	n/a	0	0	0
2962.22265625	n/a	WORD	6066632	wordpools/wasnorm_wordpool_576.txt	LTP378	ltpFR2	11	14	PATROL	1027	n/a	n/a	0	0	0
2964.939453125	n/a	WORD	6072196	wordpools/wasnorm_wordpool_576.txt	LTP378	ltpFR2	11	14	MISTER	901	n/a	n/a	0	0	0
2967.55615234375	n/a	WORD	6077555	wordpools/wasnorm_wordpool_576.txt	LTP378	ltpFR2	11	14	LADY	794	n/a	n/a	0	0	0
2970.0390625	n/a	WORD	6082640	wordpools/wasnorm_wordpool_576.txt	LTP378	ltpFR2	11	14	DRIVER	499	n/a	n/a	0	0	0
2972.4892578125	n/a	WORD	6087658	wordpools/wasnorm_wordpool_576.txt	LTP378	ltpFR2	11	14	ONION	977	n/a	n/a	0	0	0
2975.072265625	n/a	WORD	6092948	wordpools/wasnorm_wordpool_576.txt	LTP378	ltpFR2	11	14	VIKING	1565	n/a	n/a	0	0	0
2977.755859375	n/a	WORD	6098444	wordpools/wasnorm_wordpool_576.txt	LTP378	ltpFR2	11	14	LIGHTNING	820	n/a	n/a	0	0	0
2980.3388671875	n/a	WORD	6103734	wordpools/wasnorm_wordpool_576.txt	LTP378	ltpFR2	11	14	MESSAGE	888	n/a	n/a	0	0	0
2983.0546875	n/a	WORD	6109296	wordpools/wasnorm_wordpool_576.txt	LTP378	ltpFR2	11	14	NEUTRON	947	n/a	n/a	0	0	0
2985.77294921875	n/a	WORD	6114863	wordpools/wasnorm_wordpool_576.txt	LTP378	ltpFR2	11	14	HORSE	719	n/a	n/a	0	0	0
2988.20458984375	n/a	WORD	6119843	wordpools/wasnorm_wordpool_576.txt	LTP378	ltpFR2	11	14	CONTRACT	368	n/a	n/a	0	0	0
2990.70556640625	n/a	WORD	6124965	wordpools/wasnorm_wordpool_576.txt	LTP378	ltpFR2	11	14	SERVER	1272	n/a	n/a	0	0	0
2992.32275390625	n/a	START	6128277	n/a	LTP378	ltpFR2	11	n/a	n/a	n/a	18	n/a	n/a	n/a	n/a
2993.49072265625	n/a	DISTRACTOR	6130669	n/a	LTP378	ltpFR2	11	14	n/a	n/a	n/a	n/a	0	0	0
2993.50537109375	n/a	PROB	6130699	n/a	LTP378	ltpFR2	11	n/a	n/a	n/a	18	14	2	5	7
2996.00439453125	n/a	PROB	6135817	n/a	LTP378	ltpFR2	11	n/a	n/a	n/a	18	19	4	6	9
2998.92041015625	n/a	PROB	6141789	n/a	LTP378	ltpFR2	11	n/a	n/a	n/a	18	19	8	2	9
3000.4384765625	n/a	PROB	6144898	n/a	LTP378	ltpFR2	11	n/a	n/a	n/a	18	13	7	3	2
3002.58837890625	n/a	PROB	6149301	n/a	LTP378	ltpFR2	11	n/a	n/a	n/a	18	15	6	7	2
3007.13720703125	n/a	PROB	6158617	n/a	LTP378	ltpFR2	11	n/a	n/a	n/a	18	17	5	3	9
3009.05419921875	n/a	PROB	6162543	n/a	LTP378	ltpFR2	11	n/a	n/a	n/a	18	16	2	6	8
3011.35400390625	n/a	PROB	6167253	n/a	LTP378	ltpFR2	11	n/a	n/a	n/a	18	21	9	9	2
3016.32177734375	n/a	STOP	6177427	n/a	LTP378	ltpFR2	11	n/a	n/a	n/a	18	n/a	n/a	n/a	n/a
3018.13671875	n/a	REC_START	6181144	n/a	LTP378	ltpFR2	11	14	n/a	n/a	n/a	n/a	0	0	0
3021.47265625	n/a	REC_WORD	6187976	wordpools/wasnorm_wordpool_576.txt	LTP378	ltpFR2	11	14	PRINCESS	1125	n/a	n/a	0	0	0
3022.1337890625	n/a	REC_WORD	6189330	wordpools/wasnorm_wordpool_576.txt	LTP378	ltpFR2	11	14	PERFUME	1049	n/a	n/a	0	0	0
3022.78564453125	n/a	REC_WORD	6190665	wordpools/wasnorm_wordpool_576.txt	LTP378	ltpFR2	11	14	STALLION	1369	n/a	n/a	0	0	0
3023.5625	n/a	REC_WORD	6192256	wordpools/wasnorm_wordpool_576.txt	LTP378	ltpFR2	11	14	VALLEY	1545	n/a	n/a	0	0	0
3026.8916015625	n/a	REC_WORD	6199074	wordpools/wasnorm_wordpool_576.txt	LTP378	ltpFR2	11	14	ICEBERG	731	n/a	n/a	0	0	0
3030.7021484375	n/a	REC_WORD	6206878	wordpools/wasnorm_wordpool_576.txt	LTP378	ltpFR2	11	14	MESSAGE	888	n/a	n/a	0	0	0
3033.1982421875	n/a	REC_WORD	6211990	wordpools/wasnorm_wordpool_576.txt	LTP378	ltpFR2	11	14	SHOVEL	1295	n/a	n/a	0	0	0
3034.26611328125	n/a	REC_WORD	6214177	wordpools/wasnorm_wordpool_576.txt	LTP378	ltpFR2	11	14	GRAVEL	659	n/a	n/a	0	0	0
3060.431640625	n/a	REC_WORD	6267764	wordpools/wasnorm_wordpool_576.txt	LTP378	ltpFR2	11	14	BEAST	108	n/a	n/a	0	0	0
3062.267578125	n/a	REC_WORD	6271524	wordpools/wasnorm_wordpool_576.txt	LTP378	ltpFR2	11	14	CATTLE	261	n/a	n/a	0	0	0
3070.98095703125	n/a	REC_WORD	6289369	wordpools/wasnorm_wordpool_576.txt	LTP378	ltpFR2	11	14	MISTER	901	n/a	n/a	0	0	0
3108.5830078125	n/a	DISTRACTOR	6366378	n/a	LTP378	ltpFR2	11	15	n/a	n/a	n/a	n/a	0	0	0
3108.5830078125	n/a	START	6366378	n/a	LTP378	ltpFR2	11	n/a	n/a	n/a	19	n/a	n/a	n/a	n/a
3108.60009765625	n/a	PROB	6366413	n/a	LTP378	ltpFR2	11	n/a	n/a	n/a	19	19	3	7	9
3110.93212890625	n/a	PROB	6371189	n/a	LTP378	ltpFR2	11	n/a	n/a	n/a	19	13	1	4	8
3113.349609375	n/a	PROB	6376140	n/a	LTP378	ltpFR2	11	n/a	n/a	n/a	19	9	1	5	3
3114.8818359375	n/a	PROB	6379278	n/a	LTP378	ltpFR2	11	n/a	n/a	n/a	19	16	5	8	3
3117.03173828125	n/a	PROB	6383681	n/a	LTP378	ltpFR2	11	n/a	n/a	n/a	19	19	2	8	9
3118.99853515625	n/a	PROB	6387709	n/a	LTP378	ltpFR2	11	n/a	n/a	n/a	19	20	3	9	8
3123.44970703125	n/a	PROB	6396825	n/a	LTP378	ltpFR2	11	n/a	n/a	n/a	19	18	6	6	6
3132.58203125	n/a	STOP	6415528	n/a	LTP378	ltpFR2	11	n/a	n/a	n/a	19	n/a	n/a	n/a	n/a
3133.51513671875	n/a	WORD	6417439	wordpools/wasnorm_wordpool_576.txt	LTP378	ltpFR2	11	15	COUNTRY	388	n/a	n/a	0	0	0
3136.046875	n/a	WORD	6422624	wordpools/wasnorm_wordpool_576.txt	LTP378	ltpFR2	11	15	UNCLE	1536	n/a	n/a	0	0	0
3138.748046875	n/a	WORD	6428156	wordpools/wasnorm_wordpool_576.txt	LTP378	ltpFR2	11	15	MISSILE	900	n/a	n/a	0	0	0
3141.296875	n/a	WORD	6433376	wordpools/wasnorm_wordpool_576.txt	LTP378	ltpFR2	11	15	DANCER	437	n/a	n/a	0	0	0
3143.8310546875	n/a	WORD	6438566	wordpools/wasnorm_wordpool_576.txt	LTP378	ltpFR2	11	15	BUTCHER	203	n/a	n/a	0	0	0
3146.46484375	n/a	WORD	6443960	wordpools/wasnorm_wordpool_576.txt	LTP378	ltpFR2	11	15	PRIMATE	1123	n/a	n/a	0	0	0
3149.296875	n/a	WORD	6449760	wordpools/wasnorm_wordpool_576.txt	LTP378	ltpFR2	11	15	POSSUM	1112	n/a	n/a	0	0	0
3152.0634765625	n/a	WORD	6455426	wordpools/wasnorm_wordpool_576.txt	LTP378	ltpFR2	11	15	RAZOR	1171	n/a	n/a	0	0	0
3154.49755859375	n/a	WORD	6460411	wordpools/wasnorm_wordpool_576.txt	LTP378	ltpFR2	11	15	DRAWING	494	n/a	n/a	0	0	0
3157.146484375	n/a	WORD	6465836	wordpools/wasnorm_wordpool_576.txt	LTP378	ltpFR2	11	15	CRUTCH	417	n/a	n/a	0	0	0
3159.59716796875	n/a	WORD	6470855	wordpools/wasnorm_wordpool_576.txt	LTP378	ltpFR2	11	15	ELBOW	520	n/a	n/a	0	0	0
3162.17919921875	n/a	WORD	6476143	wordpools/wasnorm_wordpool_576.txt	LTP378	ltpFR2	11	15	DENIM	446	n/a	n/a	0	0	0
3164.87939453125	n/a	WORD	6481673	wordpools/wasnorm_wordpool_576.txt	LTP378	ltpFR2	11	15	MASK	876	n/a	n/a	0	0	0
3167.46435546875	n/a	WORD	6486967	wordpools/wasnorm_wordpool_576.txt	LTP378	ltpFR2	11	15	GAVEL	627	n/a	n/a	0	0	0
3170.26318359375	n/a	WORD	6492699	wordpools/wasnorm_wordpool_576.txt	LTP378	ltpFR2	11	15	PISTOL	1075	n/a	n/a	0	0	0
3173.01318359375	n/a	WORD	6498331	wordpools/wasnorm_wordpool_576.txt	LTP378	ltpFR2	11	15	GARLIC	624	n/a	n/a	0	0	0
3175.546875	n/a	WORD	6503520	wordpools/wasnorm_wordpool_576.txt	LTP378	ltpFR2	11	15	SHELTER	1282	n/a	n/a	0	0	0
3178.06201171875	n/a	WORD	6508671	wordpools/wasnorm_wordpool_576.txt	LTP378	ltpFR2	11	15	DANDRUFF	439	n/a	n/a	0	0	0
3180.82861328125	n/a	WORD	6514337	wordpools/wasnorm_wordpool_576.txt	LTP378	ltpFR2	11	15	MARROW	872	n/a	n/a	0	0	0
3183.26171875	n/a	WORD	6519320	wordpools/wasnorm_wordpool_576.txt	LTP378	ltpFR2	11	15	SALT	1229	n/a	n/a	0	0	0
3185.82861328125	n/a	WORD	6524577	wordpools/wasnorm_wordpool_576.txt	LTP378	ltpFR2	11	15	SCULPTURE	1258	n/a	n/a	0	0	0
3188.62939453125	n/a	WORD	6530313	wordpools/wasnorm_wordpool_576.txt	LTP378	ltpFR2	11	15	WAITER	1580	n/a	n/a	0	0	0
3191.09521484375	n/a	WORD	6535363	wordpools/wasnorm_wordpool_576.txt	LTP378	ltpFR2	11	15	HOSTESS	723	n/a	n/a	0	0	0
3193.662109375	n/a	WORD	6540620	wordpools/wasnorm_wordpool_576.txt	LTP378	ltpFR2	11	15	OYSTER	995	n/a	n/a	0	0	0
3195.2783203125	n/a	START	6543930	n/a	LTP378	ltpFR2	11	n/a	n/a	n/a	20	n/a	n/a	n/a	n/a
3196.39208984375	n/a	DISTRACTOR	6546211	n/a	LTP378	ltpFR2	11	15	n/a	n/a	n/a	n/a	0	0	0
3196.39501953125	n/a	PROB	6546217	n/a	LTP378	ltpFR2	11	n/a	n/a	n/a	20	14	2	6	6
3200.01123046875	n/a	PROB	6553623	n/a	LTP378	ltpFR2	11	n/a	n/a	n/a	20	18	2	8	8
3202.22802734375	n/a	PROB	6558163	n/a	LTP378	ltpFR2	11	n/a	n/a	n/a	20	15	8	3	4
3204.09423828125	n/a	PROB	6561985	n/a	LTP378	ltpFR2	11	n/a	n/a	n/a	20	23	9	5	8
3213.36181640625	n/a	PROB	6580965	n/a	LTP378	ltpFR2	11	n/a	n/a	n/a	20	15	7	2	6
3218.57373046875	n/a	STOP	6591639	n/a	LTP378	ltpFR2	11	n/a	n/a	n/a	20	n/a	n/a	n/a	n/a
3221.060546875	n/a	REC_START	6596732	n/a	LTP378	ltpFR2	11	15	n/a	n/a	n/a	n/a	0	0	0
3235.55712890625	n/a	REC_WORD	6626421	wordpools/wasnorm_wordpool_576.txt	LTP378	ltpFR2	11	15	CABIN	211	n/a	n/a	0	0	0
3244.634765625	n/a	REC_WORD	6645012	wordpools/wasnorm_wordpool_576.txt	LTP378	ltpFR2	11	15	WAITER	1580	n/a	n/a	0	0	0
3256.783203125	n/a	REC_WORD	6669892	wordpools/wasnorm_wordpool_576.txt	LTP378	ltpFR2	11	15	BUTCHER	203	n/a	n/a	0	0	0
3258.80615234375	n/a	REC_WORD	6674035	wordpools/wasnorm_wordpool_576.txt	LTP378	ltpFR2	11	15	ZEBRA	1635	n/a	n/a	0	0	0
3293.04541015625	n/a	REC_WORD	6744157	wordpools/wasnorm_wordpool_576.txt	LTP378	ltpFR2	11	15	CRUTCH	417	n/a	n/a	0	0	0
3293.58935546875	n/a	REC_WORD	6745271	wordpools/wasnorm_wordpool_576.txt	LTP378	ltpFR2	11	15	ELBOW	520	n/a	n/a	0	0	0
3311.49072265625	n/a	DISTRACTOR	6781933	n/a	LTP378	ltpFR2	11	16	n/a	n/a	n/a	n/a	0	0	0
3311.49072265625	n/a	START	6781933	n/a	LTP378	ltpFR2	11	n/a	n/a	n/a	21	n/a	n/a	n/a	n/a
3311.5068359375	n/a	PROB	6781966	n/a	LTP378	ltpFR2	11	n/a	n/a	n/a	21	9	1	6	2
3313.82275390625	n/a	PROB	6786709	n/a	LTP378	ltpFR2	11	n/a	n/a	n/a	21	15	5	4	6
3317.0224609375	n/a	PROB	6793262	n/a	LTP378	ltpFR2	11	n/a	n/a	n/a	21	17	1	7	9
3319.9052734375	n/a	PROB	6799166	n/a	LTP378	ltpFR2	11	n/a	n/a	n/a	21	17	9	7	1
3321.87255859375	n/a	PROB	6803195	n/a	LTP378	ltpFR2	11	n/a	n/a	n/a	21	17	6	4	7
3323.955078125	n/a	PROB	6807460	n/a	LTP378	ltpFR2	11	n/a	n/a	n/a	21	18	3	9	6
3329.072265625	n/a	PROB	6817940	n/a	LTP378	ltpFR2	11	n/a	n/a	n/a	21	12	1	6	5
3330.837890625	n/a	PROB	6821556	n/a	LTP378	ltpFR2	11	n/a	n/a	n/a	21	16	4	6	6
3335.48876953125	n/a	STOP	6831081	n/a	LTP378	ltpFR2	11	n/a	n/a	n/a	21	n/a	n/a	n/a	n/a
3336.7216796875	n/a	WORD	6833606	wordpools/wasnorm_wordpool_576.txt	LTP378	ltpFR2	11	16	SIBLING	1301	n/a	n/a	0	0	0
3339.388671875	n/a	WORD	6839068	wordpools/wasnorm_wordpool_576.txt	LTP378	ltpFR2	11	16	COCOON	339	n/a	n/a	0	0	0
3341.93798828125	n/a	WORD	6844289	wordpools/wasnorm_wordpool_576.txt	LTP378	ltpFR2	11	16	CREATURE	403	n/a	n/a	0	0	0
3344.5556640625	n/a	WORD	6849650	wordpools/wasnorm_wordpool_576.txt	LTP378	ltpFR2	11	16	LEADER	807	n/a	n/a	0	0	0
3347.25439453125	n/a	WORD	6855177	wordpools/wasnorm_wordpool_576.txt	LTP378	ltpFR2	11	16	FEMALE	559	n/a	n/a	0	0	0
3349.970703125	n/a	WORD	6860740	wordpools/wasnorm_wordpool_576.txt	LTP378	ltpFR2	11	16	DUST	508	n/a	n/a	0	0	0
3352.67138671875	n/a	WORD	6866271	wordpools/wasnorm_wordpool_576.txt	LTP378	ltpFR2	11	16	DUSTPAN	509	n/a	n/a	0	0	0
3355.47119140625	n/a	WORD	6872005	wordpools/wasnorm_wordpool_576.txt	LTP378	ltpFR2	11	16	CLOUD	328	n/a	n/a	0	0	0
3358.1533203125	n/a	WORD	6877498	wordpools/wasnorm_wordpool_576.txt	LTP378	ltpFR2	11	16	GRAPE	654	n/a	n/a	0	0	0
3360.58837890625	n/a	WORD	6882485	wordpools/wasnorm_wordpool_576.txt	LTP378	ltpFR2	11	16	PUPIL	1143	n/a	n/a	0	0	0
3363.203125	n/a	WORD	6887840	wordpools/wasnorm_wordpool_576.txt	LTP378	ltpFR2	11	16	STUDENT	1395	n/a	n/a	0	0	0
3365.68701171875	n/a	WORD	6892927	wordpools/wasnorm_wordpool_576.txt	LTP378	ltpFR2	11	16	NOTEBOOK	959	n/a	n/a	0	0	0
3368.4541015625	n/a	WORD	6898594	wordpools/wasnorm_wordpool_576.txt	LTP378	ltpFR2	11	16	TAXI	1438	n/a	n/a	0	0	0
3371.0859375	n/a	WORD	6903984	wordpools/wasnorm_wordpool_576.txt	LTP378	ltpFR2	11	16	MAMMAL	861	n/a	n/a	0	0	0
3373.76953125	n/a	WORD	6909480	wordpools/wasnorm_wordpool_576.txt	LTP378	ltpFR2	11	16	WRENCH	1625	n/a	n/a	0	0	0
3376.3037109375	n/a	WORD	6914670	wordpools/wasnorm_wordpool_576.txt	LTP378	ltpFR2	11	16	COCKTAIL	338	n/a	n/a	0	0	0
3379.01953125	n/a	WORD	6920232	wordpools/wasnorm_wordpool_576.txt	LTP378	ltpFR2	11	16	POSTAGE	1113	n/a	n/a	0	0	0
3381.603515625	n/a	WORD	6925524	wordpools/wasnorm_wordpool_576.txt	LTP378	ltpFR2	11	16	FLEET	578	n/a	n/a	0	0	0
3384.03564453125	n/a	WORD	6930505	wordpools/wasnorm_wordpool_576.txt	LTP378	ltpFR2	11	16	PALACE	1006	n/a	n/a	0	0	0
3386.83544921875	n/a	WORD	6936239	wordpools/wasnorm_wordpool_576.txt	LTP378	ltpFR2	11	16	DRINK	498	n/a	n/a	0	0	0
3389.28515625	n/a	WORD	6941256	wordpools/wasnorm_wordpool_576.txt	LTP378	ltpFR2	11	16	PLAID	1080	n/a	n/a	0	0	0
3392.068359375	n/a	WORD	6946956	wordpools/wasnorm_wordpool_576.txt	LTP378	ltpFR2	11	16	RADISH	1158	n/a	n/a	0	0	0
3394.71923828125	n/a	WORD	6952385	wordpools/wasnorm_wordpool_576.txt	LTP378	ltpFR2	11	16	OZONE	996	n/a	n/a	0	0	0
3397.3359375	n/a	WORD	6957744	wordpools/wasnorm_wordpool_576.txt	LTP378	ltpFR2	11	16	TREAT	1501	n/a	n/a	0	0	0
3398.9521484375	n/a	START	6961054	n/a	LTP378	ltpFR2	11	n/a	n/a	n/a	22	n/a	n/a	n/a	n/a
3399.97900390625	n/a	DISTRACTOR	6963157	n/a	LTP378	ltpFR2	11	16	n/a	n/a	n/a	n/a	0	0	0
3399.98486328125	n/a	PROB	6963169	n/a	LTP378	ltpFR2	11	n/a	n/a	n/a	22	15	9	2	4
3406.267578125	n/a	PROB	6976036	n/a	LTP378	ltpFR2	11	n/a	n/a	n/a	22	19	2	8	9
3408.267578125	n/a	PROB	6980132	n/a	LTP378	ltpFR2	11	n/a	n/a	n/a	22	18	4	6	8
3409.66845703125	n/a	PROB	6983001	n/a	LTP378	ltpFR2	11	n/a	n/a	n/a	22	14	2	8	4
3411.50146484375	n/a	PROB	6986755	n/a	LTP378	ltpFR2	11	n/a	n/a	n/a	22	14	5	7	2
3413.70166015625	n/a	PROB	6991261	n/a	LTP378	ltpFR2	11	n/a	n/a	n/a	22	9	2	5	2
3416.33544921875	n/a	PROB	6996655	n/a	LTP378	ltpFR2	11	n/a	n/a	n/a	22	14	6	7	1
3417.8505859375	n/a	PROB	6999758	n/a	LTP378	ltpFR2	11	n/a	n/a	n/a	22	17	9	2	6
3420.150390625	n/a	PROB	7004468	n/a	LTP378	ltpFR2	11	n/a	n/a	n/a	22	18	3	8	7
3421.83642578125	n/a	STOP	7007921	n/a	LTP378	ltpFR2	11	n/a	n/a	n/a	22	n/a	n/a	n/a	n/a
3424.76708984375	n/a	REC_START	7013923	n/a	LTP378	ltpFR2	11	16	n/a	n/a	n/a	n/a	0	0	0
3425.93017578125	n/a	REC_WORD	7016305	wordpools/wasnorm_wordpool_576.txt	LTP378	ltpFR2	11	16	SIBLING	1301	n/a	n/a	0	0	0
3434.97607421875	n/a	REC_WORD	7034831	wordpools/wasnorm_wordpool_576.txt	LTP378	ltpFR2	11	16	FEMALE	559	n/a	n/a	0	0	0
3438.95751953125	n/a	REC_WORD	7042985	wordpools/wasnorm_wordpool_576.txt	LTP378	ltpFR2	11	16	LEADER	807	n/a	n/a	0	0	0
3439.896484375	n/a	REC_WORD	7044908	wordpools/wasnorm_wordpool_576.txt	LTP378	ltpFR2	11	16	DUST	508	n/a	n/a	0	0	0
3440.61572265625	n/a	REC_WORD	7046381	wordpools/wasnorm_wordpool_576.txt	LTP378	ltpFR2	11	16	DUSTPAN	509	n/a	n/a	0	0	0
3501.31494140625	n/a	REST_REWET	7170693	n/a	LTP378	ltpFR2	11	16	n/a	n/a	n/a	n/a	0	0	0
3633.0576171875	n/a	DISTRACTOR	7440502	n/a	LTP378	ltpFR2	11	17	n/a	n/a	n/a	n/a	0	0	0
3633.0576171875	n/a	START	7440502	n/a	LTP378	ltpFR2	11	n/a	n/a	n/a	23	n/a	n/a	n/a	n/a
3633.07373046875	n/a	PROB	7440535	n/a	LTP378	ltpFR2	11	n/a	n/a	n/a	23	5	2	1	2
3635.74169921875	n/a	PROB	7445999	n/a	LTP378	ltpFR2	11	n/a	n/a	n/a	23	13	3	4	6
3638.0908203125	n/a	PROB	7450810	n/a	LTP378	ltpFR2	11	n/a	n/a	n/a	23	12	4	1	7
3639.84033203125	n/a	PROB	7454393	n/a	LTP378	ltpFR2	11	n/a	n/a	n/a	23	10	5	2	3
3642.6572265625	n/a	PROB	7460162	n/a	LTP378	ltpFR2	11	n/a	n/a	n/a	23	22	6	7	9
3650.0732421875	n/a	PROB	7475350	n/a	LTP378	ltpFR2	11	n/a	n/a	n/a	23	13	7	3	3
3652.30712890625	n/a	PROB	7479925	n/a	LTP378	ltpFR2	11	n/a	n/a	n/a	23	15	9	1	5
3657.05615234375	n/a	STOP	7489651	n/a	LTP378	ltpFR2	11	n/a	n/a	n/a	23	n/a	n/a	n/a	n/a
3658.07275390625	n/a	WORD	7491733	wordpools/wasnorm_wordpool_576.txt	LTP378	ltpFR2	11	17	LION	827	n/a	n/a	0	0	0
3660.55712890625	n/a	WORD	7496821	wordpools/wasnorm_wordpool_576.txt	LTP378	ltpFR2	11	17	GRIZZLY	662	n/a	n/a	0	0	0
3663.22265625	n/a	WORD	7502280	wordpools/wasnorm_wordpool_576.txt	LTP378	ltpFR2	11	17	CREVICE	405	n/a	n/a	0	0	0
3665.6728515625	n/a	WORD	7507298	wordpools/wasnorm_wordpool_576.txt	LTP378	ltpFR2	11	17	PARENT	1013	n/a	n/a	0	0	0
3668.138671875	n/a	WORD	7512348	wordpools/wasnorm_wordpool_576.txt	LTP378	ltpFR2	11	17	SEAL	1262	n/a	n/a	0	0	0
3670.673828125	n/a	WORD	7517540	wordpools/wasnorm_wordpool_576.txt	LTP378	ltpFR2	11	17	BEAKER	104	n/a	n/a	0	0	0
3673.306640625	n/a	WORD	7522932	wordpools/wasnorm_wordpool_576.txt	LTP378	ltpFR2	11	17	LEG	809	n/a	n/a	0	0	0
3675.888671875	n/a	WORD	7528220	wordpools/wasnorm_wordpool_576.txt	LTP378	ltpFR2	11	17	LAPEL	800	n/a	n/a	0	0	0
3678.4892578125	n/a	WORD	7533546	wordpools/wasnorm_wordpool_576.txt	LTP378	ltpFR2	11	17	BACKBONE	66	n/a	n/a	0	0	0
3681.13818359375	n/a	WORD	7538971	wordpools/wasnorm_wordpool_576.txt	LTP378	ltpFR2	11	17	OUTDOORS	987	n/a	n/a	0	0	0
3683.68896484375	n/a	WORD	7544195	wordpools/wasnorm_wordpool_576.txt	LTP378	ltpFR2	11	17	STAMP	1370	n/a	n/a	0	0	0
3686.38916015625	n/a	WORD	7549725	wordpools/wasnorm_wordpool_576.txt	LTP378	ltpFR2	11	17	BOARD	143	n/a	n/a	0	0	0
3688.98779296875	n/a	WORD	7555047	wordpools/wasnorm_wordpool_576.txt	LTP378	ltpFR2	11	17	BURGLAR	200	n/a	n/a	0	0	0
3691.57177734375	n/a	WORD	7560339	wordpools/wasnorm_wordpool_576.txt	LTP378	ltpFR2	11	17	SHOULDER	1294	n/a	n/a	0	0	0
3694.23779296875	n/a	WORD	7565799	wordpools/wasnorm_wordpool_576.txt	LTP378	ltpFR2	11	17	SISTER	1312	n/a	n/a	0	0	0
3696.87060546875	n/a	WORD	7571191	wordpools/wasnorm_wordpool_576.txt	LTP378	ltpFR2	11	17	PECAN	1036	n/a	n/a	0	0	0
3699.3388671875	n/a	WORD	7576246	wordpools/wasnorm_wordpool_576.txt	LTP378	ltpFR2	11	17	BANJO	82	n/a	n/a	0	0	0
3702.00341796875	n/a	WORD	7581703	wordpools/wasnorm_wordpool_576.txt	LTP378	ltpFR2	11	17	JUDGE	761	n/a	n/a	0	0	0
3704.8037109375	n/a	WORD	7587438	wordpools/wasnorm_wordpool_576.txt	LTP378	ltpFR2	11	17	COIN	343	n/a	n/a	0	0	0
3707.28759765625	n/a	WORD	7592525	wordpools/wasnorm_wordpool_576.txt	LTP378	ltpFR2	11	17	STREAM	1392	n/a	n/a	0	0	0
3710.12060546875	n/a	WORD	7598327	wordpools/wasnorm_wordpool_576.txt	LTP378	ltpFR2	11	17	CANAL	226	n/a	n/a	0	0	0
3712.7041015625	n/a	WORD	7603618	wordpools/wasnorm_wordpool_576.txt	LTP378	ltpFR2	11	17	HATCHET	691	n/a	n/a	0	0	0
3715.33740234375	n/a	WORD	7609011	wordpools/wasnorm_wordpool_576.txt	LTP378	ltpFR2	11	17	TRANSPLANT	1496	n/a	n/a	0	0	0
3718.10302734375	n/a	WORD	7614675	wordpools/wasnorm_wordpool_576.txt	LTP378	ltpFR2	11	17	FLESH	579	n/a	n/a	0	0	0
3719.7041015625	n/a	START	7617954	n/a	LTP378	ltpFR2	11	n/a	n/a	n/a	24	n/a	n/a	n/a	n/a
3720.7509765625	n/a	DISTRACTOR	7620098	n/a	LTP378	ltpFR2	11	17	n/a	n/a	n/a	n/a	0	0	0
3720.7529296875	n/a	PROB	7620102	n/a	LTP378	ltpFR2	11	n/a	n/a	n/a	24	14	7	2	5
3726.02001953125	n/a	PROB	7630889	n/a	LTP378	ltpFR2	11	n/a	n/a	n/a	24	10	2	2	6
3727.85302734375	n/a	PROB	7634643	n/a	LTP378	ltpFR2	11	n/a	n/a	n/a	24	21	8	8	5
3730.61962890625	n/a	PROB	7640309	n/a	LTP378	ltpFR2	11	n/a	n/a	n/a	24	12	3	6	3
3733.90283203125	n/a	PROB	7647033	n/a	LTP378	ltpFR2	11	n/a	n/a	n/a	24	9	4	2	3
3735.70361328125	n/a	PROB	7650721	n/a	LTP378	ltpFR2	11	n/a	n/a	n/a	24	14	4	4	6
3737.86865234375	n/a	PROB	7655155	n/a	LTP378	ltpFR2	11	n/a	n/a	n/a	24	17	9	1	7
3740.068359375	n/a	PROB	7659660	n/a	LTP378	ltpFR2	11	n/a	n/a	n/a	24	17	7	6	4
3742.908203125	n/a	STOP	7665476	n/a	LTP378	ltpFR2	11	n/a	n/a	n/a	24	n/a	n/a	n/a	n/a
3745.55322265625	n/a	REC_START	7670893	n/a	LTP378	ltpFR2	11	17	n/a	n/a	n/a	n/a	0	0	0
3749.43017578125	n/a	REC_WORD	7678833	wordpools/wasnorm_wordpool_576.txt	LTP378	ltpFR2	11	17	HATCHET	691	n/a	n/a	0	0	0
3750.13037109375	n/a	REC_WORD	7680267	wordpools/wasnorm_wordpool_576.txt	LTP378	ltpFR2	11	17	TRANSPLANT	1496	n/a	n/a	0	0	0
3751.080078125	n/a	REC_WORD	7682212	wordpools/wasnorm_wordpool_576.txt	LTP378	ltpFR2	11	17	SISTER	1312	n/a	n/a	0	0	0
3775.34228515625	n/a	REC_WORD	7731901	wordpools/wasnorm_wordpool_576.txt	LTP378	ltpFR2	11	17	GRIZZLY	662	n/a	n/a	0	0	0
3775.92236328125	n/a	REC_WORD	7733089	wordpools/wasnorm_wordpool_576.txt	LTP378	ltpFR2	11	17	LION	827	n/a	n/a	0	0	0
3779.17529296875	n/a	REC_WORD	7739751	wordpools/wasnorm_wordpool_576.txt	LTP378	ltpFR2	11	17	CERVICHE	-1	n/a	n/a	0	0	0
3781.984375	n/a	REC_WORD	7745504	wordpools/wasnorm_wordpool_576.txt	LTP378	ltpFR2	11	17	LAPEL	800	n/a	n/a	0	0	0
3782.8759765625	n/a	REC_WORD	7747330	wordpools/wasnorm_wordpool_576.txt	LTP378	ltpFR2	11	17	PARENT	1013	n/a	n/a	0	0	0
3783.408203125	n/a	REC_WORD	7748420	wordpools/wasnorm_wordpool_576.txt	LTP378	ltpFR2	11	17	SEAL	1262	n/a	n/a	0	0	0
3795.23193359375	n/a	REC_WORD	7772635	wordpools/wasnorm_wordpool_576.txt	LTP378	ltpFR2	11	17	LEG	809	n/a	n/a	0	0	0
3835.99755859375	n/a	DISTRACTOR	7856123	n/a	LTP378	ltpFR2	11	18	n/a	n/a	n/a	n/a	0	0	0
3835.99853515625	n/a	START	7856125	n/a	LTP378	ltpFR2	11	n/a	n/a	n/a	25	n/a	n/a	n/a	n/a
3836.0146484375	n/a	PROB	7856158	n/a	LTP378	ltpFR2	11	n/a	n/a	n/a	25	16	5	6	5
3839.08056640625	n/a	PROB	7862437	n/a	LTP378	ltpFR2	11	n/a	n/a	n/a	25	8	1	2	5
3840.8642578125	n/a	PROB	7866090	n/a	LTP378	ltpFR2	11	n/a	n/a	n/a	25	15	7	5	3
3843.01416015625	n/a	PROB	7870493	n/a	LTP378	ltpFR2	11	n/a	n/a	n/a	25	13	6	5	2
3845.29833984375	n/a	PROB	7875171	n/a	LTP378	ltpFR2	11	n/a	n/a	n/a	25	17	9	6	2
3848.1142578125	n/a	PROB	7880938	n/a	LTP378	ltpFR2	11	n/a	n/a	n/a	25	15	2	4	9
3850.5478515625	n/a	PROB	7885922	n/a	LTP378	ltpFR2	11	n/a	n/a	n/a	25	13	1	9	3
3852.080078125	n/a	PROB	7889060	n/a	LTP378	ltpFR2	11	n/a	n/a	n/a	25	12	1	5	6
3853.59814453125	n/a	PROB	7892169	n/a	LTP378	ltpFR2	11	n/a	n/a	n/a	25	14	4	4	6
3856.77978515625	n/a	PROB	7898685	n/a	LTP378	ltpFR2	11	n/a	n/a	n/a	25	12	1	5	6
3859.01953125	n/a	STOP	7903272	n/a	LTP378	ltpFR2	11	n/a	n/a	n/a	25	n/a	n/a	n/a	n/a
3861.0126953125	n/a	WORD	7907354	wordpools/wasnorm_wordpool_576.txt	LTP378	ltpFR2	11	18	FUNGUS	614	n/a	n/a	0	0	0
3863.61376953125	n/a	WORD	7912681	wordpools/wasnorm_wordpool_576.txt	LTP378	ltpFR2	11	18	FRIEND	606	n/a	n/a	0	0	0
3866.2294921875	n/a	WORD	7918038	wordpools/wasnorm_wordpool_576.txt	LTP378	ltpFR2	11	18	TRENCH	1503	n/a	n/a	0	0	0
3868.66357421875	n/a	WORD	7923023	wordpools/wasnorm_wordpool_576.txt	LTP378	ltpFR2	11	18	ICING	732	n/a	n/a	0	0	0
3871.21240234375	n/a	WORD	7928243	wordpools/wasnorm_wordpool_576.txt	LTP378	ltpFR2	11	18	SHORTCAKE	1292	n/a	n/a	0	0	0
3873.84521484375	n/a	WORD	7933635	wordpools/wasnorm_wordpool_576.txt	LTP378	ltpFR2	11	18	EMPIRE	530	n/a	n/a	0	0	0
3876.63037109375	n/a	WORD	7939339	wordpools/wasnorm_wordpool_576.txt	LTP378	ltpFR2	11	18	HEADBAND	696	n/a	n/a	0	0	0
3879.31298828125	n/a	WORD	7944833	wordpools/wasnorm_wordpool_576.txt	LTP378	ltpFR2	11	18	PENGUIN	1044	n/a	n/a	0	0	0
3882.11181640625	n/a	WORD	7950565	wordpools/wasnorm_wordpool_576.txt	LTP378	ltpFR2	11	18	CAFE	216	n/a	n/a	0	0	0
3884.912109375	n/a	WORD	7956300	wordpools/wasnorm_wordpool_576.txt	LTP378	ltpFR2	11	18	PASTRY	1022	n/a	n/a	0	0	0
3887.6796875	n/a	WORD	7961968	wordpools/wasnorm_wordpool_576.txt	LTP378	ltpFR2	11	18	STOMACH	1384	n/a	n/a	0	0	0
3890.49560546875	n/a	WORD	7967735	wordpools/wasnorm_wordpool_576.txt	LTP378	ltpFR2	11	18	KNIFE	785	n/a	n/a	0	0	0
3892.9619140625	n/a	WORD	7972786	wordpools/wasnorm_wordpool_576.txt	LTP378	ltpFR2	11	18	SUSPECT	1415	n/a	n/a	0	0	0
3895.57861328125	n/a	WORD	7978145	wordpools/wasnorm_wordpool_576.txt	LTP378	ltpFR2	11	18	CONVICT	371	n/a	n/a	0	0	0
3898.01171875	n/a	WORD	7983128	wordpools/wasnorm_wordpool_576.txt	LTP378	ltpFR2	11	18	KEEPER	769	n/a	n/a	0	0	0
3900.77734375	n/a	WORD	7988792	wordpools/wasnorm_wordpool_576.txt	LTP378	ltpFR2	11	18	SODA	1341	n/a	n/a	0	0	0
3903.26123046875	n/a	WORD	7993879	wordpools/wasnorm_wordpool_576.txt	LTP378	ltpFR2	11	18	PARTNER	1017	n/a	n/a	0	0	0
3905.9775390625	n/a	WORD	7999442	wordpools/wasnorm_wordpool_576.txt	LTP378	ltpFR2	11	18	PEACH	1031	n/a	n/a	0	0	0
3908.4951171875	n/a	WORD	8004598	wordpools/wasnorm_wordpool_576.txt	LTP378	ltpFR2	11	18	CRICKET	408	n/a	n/a	0	0	0
3911.0439453125	n/a	WORD	8009818	wordpools/wasnorm_wordpool_576.txt	LTP378	ltpFR2	11	18	TART	1436	n/a	n/a	0	0	0
3913.4951171875	n/a	WORD	8014838	wordpools/wasnorm_wordpool_576.txt	LTP378	ltpFR2	11	18	PLATE	1086	n/a	n/a	0	0	0
3915.94384765625	n/a	WORD	8019853	wordpools/wasnorm_wordpool_576.txt	LTP378	ltpFR2	11	18	DAUGHTER	442	n/a	n/a	0	0	0
3918.72802734375	n/a	WORD	8025555	wordpools/wasnorm_wordpool_576.txt	LTP378	ltpFR2	11	18	WARDROBE	1587	n/a	n/a	0	0	0
3921.36083984375	n/a	WORD	8030947	wordpools/wasnorm_wordpool_576.txt	LTP378	ltpFR2	11	18	EXPERT	543	n/a	n/a	0	0	0
3922.9765625	n/a	START	8034256	n/a	LTP378	ltpFR2	11	n/a	n/a	n/a	26	n/a	n/a	n/a	n/a
3924.001953125	n/a	DISTRACTOR	8036356	n/a	LTP378	ltpFR2	11	18	n/a	n/a	n/a	n/a	0	0	0
3924.009765625	n/a	PROB	8036372	n/a	LTP378	ltpFR2	11	n/a	n/a	n/a	26	12	4	6	2
3926.20947265625	n/a	PROB	8040877	n/a	LTP378	ltpFR2	11	n/a	n/a	n/a	26	17	7	8	2
3931.07666015625	n/a	PROB	8050845	n/a	LTP378	ltpFR2	11	n/a	n/a	n/a	26	13	7	1	5
3934.04248046875	n/a	PROB	8056919	n/a	LTP378	ltpFR2	11	n/a	n/a	n/a	26	17	8	7	2
3937.142578125	n/a	PROB	8063268	n/a	LTP378	ltpFR2	11	n/a	n/a	n/a	26	14	4	4	6
3939.443359375	n/a	PROB	8067980	n/a	LTP378	ltpFR2	11	n/a	n/a	n/a	26	20	8	4	8
3946.97607421875	n/a	STOP	8083407	n/a	LTP378	ltpFR2	11	n/a	n/a	n/a	26	n/a	n/a	n/a	n/a
3948.826171875	n/a	REC_START	8087196	n/a	LTP378	ltpFR2	11	18	n/a	n/a	n/a	n/a	0	0	0
3950.123046875	n/a	REC_WORD	8089852	wordpools/wasnorm_wordpool_576.txt	LTP378	ltpFR2	11	18	CONVICT	371	n/a	n/a	0	0	0
3951.794921875	n/a	REC_WORD_VV	8093276	wordpools/wasnorm_wordpool_576.txt	LTP378	ltpFR2	11	18	<>	-1	n/a	n/a	0	0	0
3953.06396484375	n/a	REC_WORD_VV	8095875	wordpools/wasnorm_wordpool_576.txt	LTP378	ltpFR2	11	18	<>	-1	n/a	n/a	0	0	0
3953.52392578125	n/a	REC_WORD	8096817	wordpools/wasnorm_wordpool_576.txt	LTP378	ltpFR2	11	18	KNIFE	785	n/a	n/a	0	0	0
3954.17578125	n/a	REC_WORD	8098152	wordpools/wasnorm_wordpool_576.txt	LTP378	ltpFR2	11	18	STOMACH	1384	n/a	n/a	0	0	0
3956.16259765625	n/a	REC_WORD	8102221	wordpools/wasnorm_wordpool_576.txt	LTP378	ltpFR2	11	18	VICTIM	1562	n/a	n/a	0	0	0
3960.15087890625	n/a	REC_WORD	8110389	wordpools/wasnorm_wordpool_576.txt	LTP378	ltpFR2	11	18	FUNGUS	614	n/a	n/a	0	0	0
3967.67919921875	n/a	REC_WORD	8125807	wordpools/wasnorm_wordpool_576.txt	LTP378	ltpFR2	11	18	TRENCH	1503	n/a	n/a	0	0	0
3974.8193359375	n/a	REC_WORD	8140430	wordpools/wasnorm_wordpool_576.txt	LTP378	ltpFR2	11	18	ICING	732	n/a	n/a	0	0	0
3975.65234375	n/a	REC_WORD	8142136	wordpools/wasnorm_wordpool_576.txt	LTP378	ltpFR2	11	18	PEANUT	1032	n/a	n/a	0	0	0
3976.3203125	n/a	REC_WORD	8143504	wordpools/wasnorm_wordpool_576.txt	LTP378	ltpFR2	11	18	CAFE	216	n/a	n/a	0	0	0
3979.65625	n/a	REC_WORD	8150336	wordpools/wasnorm_wordpool_576.txt	LTP378	ltpFR2	11	18	HEADBAND	696	n/a	n/a	0	0	0
3980.65087890625	n/a	REC_WORD	8152373	wordpools/wasnorm_wordpool_576.txt	LTP378	ltpFR2	11	18	PENGUIN	1044	n/a	n/a	0	0	0
3988.5126953125	n/a	REC_WORD	8168474	wordpools/wasnorm_wordpool_576.txt	LTP378	ltpFR2	11	18	TART	1436	n/a	n/a	0	0	0
3989.728515625	n/a	REC_WORD	8170964	wordpools/wasnorm_wordpool_576.txt	LTP378	ltpFR2	11	18	PEACH	1031	n/a	n/a	0	0	0
3990.64892578125	n/a	REC_WORD	8172849	wordpools/wasnorm_wordpool_576.txt	LTP378	ltpFR2	11	18	CRICKET	408	n/a	n/a	0	0	0
4039.25439453125	n/a	DISTRACTOR	8272393	n/a	LTP378	ltpFR2	11	19	n/a	n/a	n/a	n/a	0	0	0
4039.25537109375	n/a	START	8272395	n/a	LTP378	ltpFR2	11	n/a	n/a	n/a	27	n/a	n/a	n/a	n/a
4039.27099609375	n/a	PROB	8272427	n/a	LTP378	ltpFR2	11	n/a	n/a	n/a	27	10	1	3	6
4041.88818359375	n/a	PROB	8277787	n/a	LTP378	ltpFR2	11	n/a	n/a	n/a	27	22	8	6	8
4044.88818359375	n/a	PROB	8283931	n/a	LTP378	ltpFR2	11	n/a	n/a	n/a	27	9	3	5	1
4047.43896484375	n/a	PROB	8289155	n/a	LTP378	ltpFR2	11	n/a	n/a	n/a	27	11	4	6	1
4048.75390625	n/a	PROB	8291848	n/a	LTP378	ltpFR2	11	n/a	n/a	n/a	27	14	3	4	7
4050.78662109375	n/a	PROB	8296011	n/a	LTP378	ltpFR2	11	n/a	n/a	n/a	27	13	4	4	5
4053.53759765625	n/a	PROB	8301645	n/a	LTP378	ltpFR2	11	n/a	n/a	n/a	27	13	5	1	7
4055.6044921875	n/a	PROB	8305878	n/a	LTP378	ltpFR2	11	n/a	n/a	n/a	27	11	4	2	5
4058.00341796875	n/a	PROB	8310791	n/a	LTP378	ltpFR2	11	n/a	n/a	n/a	27	11	3	6	2
4060.13671875	n/a	PROB	8315160	n/a	LTP378	ltpFR2	11	n/a	n/a	n/a	27	9	3	3	3
4062.1474609375	n/a	STOP	8319278	n/a	LTP378	ltpFR2	11	n/a	n/a	n/a	27	n/a	n/a	n/a	n/a
4064.1533203125	n/a	WORD	8323386	wordpools/wasnorm_wordpool_576.txt	LTP378	ltpFR2	11	19	YARN	1631	n/a	n/a	0	0	0
4066.92041015625	n/a	WORD	8329053	wordpools/wasnorm_wordpool_576.txt	LTP378	ltpFR2	11	19	MOTOR	922	n/a	n/a	0	0	0
4069.55419921875	n/a	WORD	8334447	wordpools/wasnorm_wordpool_576.txt	LTP378	ltpFR2	11	19	INFANT	737	n/a	n/a	0	0	0
4072.119140625	n/a	WORD	8339700	wordpools/wasnorm_wordpool_576.txt	LTP378	ltpFR2	11	19	RATTLE	1170	n/a	n/a	0	0	0
4074.72021484375	n/a	WORD	8345027	wordpools/wasnorm_wordpool_576.txt	LTP378	ltpFR2	11	19	DENTIST	447	n/a	n/a	0	0	0
4077.287109375	n/a	WORD	8350284	wordpools/wasnorm_wordpool_576.txt	LTP378	ltpFR2	11	19	REPORT	1184	n/a	n/a	0	0	0
4079.90283203125	n/a	WORD	8355641	wordpools/wasnorm_wordpool_576.txt	LTP378	ltpFR2	11	19	CORAL	378	n/a	n/a	0	0	0
4082.669921875	n/a	WORD	8361308	wordpools/wasnorm_wordpool_576.txt	LTP378	ltpFR2	11	19	UMPIRE	1535	n/a	n/a	0	0	0
4085.1025390625	n/a	WORD	8366290	wordpools/wasnorm_wordpool_576.txt	LTP378	ltpFR2	11	19	SOFTBALL	1343	n/a	n/a	0	0	0
4087.70263671875	n/a	WORD	8371615	wordpools/wasnorm_wordpool_576.txt	LTP378	ltpFR2	11	19	FARMER	553	n/a	n/a	0	0	0
4090.1357421875	n/a	WORD	8376598	wordpools/wasnorm_wordpool_576.txt	LTP378	ltpFR2	11	19	DRAGON	492	n/a	n/a	0	0	0
4092.66943359375	n/a	WORD	8381787	wordpools/wasnorm_wordpool_576.txt	LTP378	ltpFR2	11	19	STOVE	1388	n/a	n/a	0	0	0
4095.45263671875	n/a	WORD	8387487	wordpools/wasnorm_wordpool_576.txt	LTP378	ltpFR2	11	19	THIEF	1456	n/a	n/a	0	0	0
4097.9013671875	n/a	WORD	8392502	wordpools/wasnorm_wordpool_576.txt	LTP378	ltpFR2	11	19	YOLK	1633	n/a	n/a	0	0	0
4100.58642578125	n/a	WORD	8398001	wordpools/wasnorm_wordpool_576.txt	LTP378	ltpFR2	11	19	SLOPE	1328	n/a	n/a	0	0	0
4103.38623046875	n/a	WORD	8403735	wordpools/wasnorm_wordpool_576.txt	LTP378	ltpFR2	11	19	DIME	466	n/a	n/a	0	0	0
4106.18505859375	n/a	WORD	8409467	wordpools/wasnorm_wordpool_576.txt	LTP378	ltpFR2	11	19	CAMEL	223	n/a	n/a	0	0	0
4108.96826171875	n/a	WORD	8415167	wordpools/wasnorm_wordpool_576.txt	LTP378	ltpFR2	11	19	CONCERT	360	n/a	n/a	0	0	0
4111.619140625	n/a	WORD	8420596	wordpools/wasnorm_wordpool_576.txt	LTP378	ltpFR2	11	19	STONE	1385	n/a	n/a	0	0	0
4114.2509765625	n/a	WORD	8425986	wordpools/wasnorm_wordpool_576.txt	LTP378	ltpFR2	11	19	MONSTER	912	n/a	n/a	0	0	0
4116.70166015625	n/a	WORD	8431005	wordpools/wasnorm_wordpool_576.txt	LTP378	ltpFR2	11	19	DRILL	497	n/a	n/a	0	0	0
4119.3515625	n/a	WORD	8436432	wordpools/wasnorm_wordpool_576.txt	LTP378	ltpFR2	11	19	ROBBER	1197	n/a	n/a	0	0	0
4121.78369140625	n/a	WORD	8441413	wordpools/wasnorm_wordpool_576.txt	LTP378	ltpFR2	11	19	LUGGAGE	847	n/a	n/a	0	0	0
4124.58447265625	n/a	WORD	8447149	wordpools/wasnorm_wordpool_576.txt	LTP378	ltpFR2	11	19	SPIDER	1351	n/a	n/a	0	0	0
4126.20068359375	n/a	START	8450459	n/a	LTP378	ltpFR2	11	n/a	n/a	n/a	28	n/a	n/a	n/a	n/a
4127.11572265625	n/a	DISTRACTOR	8452333	n/a	LTP378	ltpFR2	11	19	n/a	n/a	n/a	n/a	0	0	0
4127.11767578125	n/a	PROB	8452337	n/a	LTP378	ltpFR2	11	n/a	n/a	n/a	28	21	5	7	9
4132.30126953125	n/a	PROB	8462953	n/a	LTP378	ltpFR2	11	n/a	n/a	n/a	28	8	3	1	4
4134.484375	n/a	PROB	8467424	n/a	LTP378	ltpFR2	11	n/a	n/a	n/a	28	12	1	6	5
4136.30126953125	n/a	PROB	8471145	n/a	LTP378	ltpFR2	11	n/a	n/a	n/a	28	13	6	5	2
4139.46728515625	n/a	PROB	8477629	n/a	LTP378	ltpFR2	11	n/a	n/a	n/a	28	17	9	2	6
4142.333984375	n/a	PROB	8483500	n/a	LTP378	ltpFR2	11	n/a	n/a	n/a	28	18	5	5	8
4150.19970703125	n/a	STOP	8499609	n/a	LTP378	ltpFR2	11	n/a	n/a	n/a	28	n/a	n/a	n/a	n/a
4152.099609375	n/a	REC_START	8503500	n/a	LTP378	ltpFR2	11	19	n/a	n/a	n/a	n/a	0	0	0
4153.95751953125	n/a	REC_WORD	8507305	wordpools/wasnorm_wordpool_576.txt	LTP378	ltpFR2	11	19	ROBBER	1197	n/a	n/a	0	0	0
4154.8994140625	n/a	REC_WORD	8509234	wordpools/wasnorm_wordpool_576.txt	LTP378	ltpFR2	11	19	LUGGAGE	847	n/a	n/a	0	0	0
4155.77880859375	n/a	REC_WORD	8511035	wordpools/wasnorm_wordpool_576.txt	LTP378	ltpFR2	11	19	SPIDER	1351	n/a	n/a	0	0	0
4161.400390625	n/a	REC_WORD	8522548	wordpools/wasnorm_wordpool_576.txt	LTP378	ltpFR2	11	19	CROSS	413	n/a	n/a	0	0	0
4183.52587890625	n/a	REC_WORD	8567861	wordpools/wasnorm_wordpool_576.txt	LTP378	ltpFR2	11	19	CABIN	211	n/a	n/a	0	0	0
4242.5458984375	n/a	WORD	8688734	wordpools/wasnorm_wordpool_576.txt	LTP378	ltpFR2	11	20	BOX	159	n/a	n/a	0	0	0
4245.345703125	n/a	WORD	8694468	wordpools/wasnorm_wordpool_576.txt	LTP378	ltpFR2	11	20	SUNSET	1408	n/a	n/a	0	0	0
4247.89453125	n/a	WORD	8699688	wordpools/wasnorm_wordpool_576.txt	LTP378	ltpFR2	11	20	BINDER	127	n/a	n/a	0	0	0
4250.57861328125	n/a	WORD	8705185	wordpools/wasnorm_wordpool_576.txt	LTP378	ltpFR2	11	20	JOURNAL	760	n/a	n/a	0	0	0
4253.21044921875	n/a	WORD	8710575	wordpools/wasnorm_wordpool_576.txt	LTP378	ltpFR2	11	20	COD	340	n/a	n/a	0	0	0
4255.91064453125	n/a	WORD	8716105	wordpools/wasnorm_wordpool_576.txt	LTP378	ltpFR2	11	20	FLIPPER	580	n/a	n/a	0	0	0
4258.5283203125	n/a	WORD	8721466	wordpools/wasnorm_wordpool_576.txt	LTP378	ltpFR2	11	20	BABY	64	n/a	n/a	0	0	0
4261.02734375	n/a	WORD	8726584	wordpools/wasnorm_wordpool_576.txt	LTP378	ltpFR2	11	20	VELVET	1555	n/a	n/a	0	0	0
4263.72802734375	n/a	WORD	8732115	wordpools/wasnorm_wordpool_576.txt	LTP378	ltpFR2	11	20	GIFT	635	n/a	n/a	0	0	0
4266.4111328125	n/a	WORD	8737610	wordpools/wasnorm_wordpool_576.txt	LTP378	ltpFR2	11	20	PIANO	1057	n/a	n/a	0	0	0
4269.14404296875	n/a	WORD	8743207	wordpools/wasnorm_wordpool_576.txt	LTP378	ltpFR2	11	20	PAPER	1011	n/a	n/a	0	0	0
4271.97705078125	n/a	WORD	8749009	wordpools/wasnorm_wordpool_576.txt	LTP378	ltpFR2	11	20	ATOM	55	n/a	n/a	0	0	0
4274.494140625	n/a	WORD	8754164	wordpools/wasnorm_wordpool_576.txt	LTP378	ltpFR2	11	20	PIZZA	1079	n/a	n/a	0	0	0
4276.9599609375	n/a	WORD	8759214	wordpools/wasnorm_wordpool_576.txt	LTP378	ltpFR2	11	20	QUARTER	1148	n/a	n/a	0	0	0
4279.5439453125	n/a	WORD	8764506	wordpools/wasnorm_wordpool_576.txt	LTP378	ltpFR2	11	20	BREAST	171	n/a	n/a	0	0	0
4282.04248046875	n/a	WORD	8769623	wordpools/wasnorm_wordpool_576.txt	LTP378	ltpFR2	11	20	HELMET	702	n/a	n/a	0	0	0
4284.82666015625	n/a	WORD	8775325	wordpools/wasnorm_wordpool_576.txt	LTP378	ltpFR2	11	20	CRIB	407	n/a	n/a	0	0	0
4287.259765625	n/a	WORD	8780308	wordpools/wasnorm_wordpool_576.txt	LTP378	ltpFR2	11	20	CUPBOARD	425	n/a	n/a	0	0	0
4290.0263671875	n/a	WORD	8785974	wordpools/wasnorm_wordpool_576.txt	LTP378	ltpFR2	11	20	TORTOISE	1486	n/a	n/a	0	0	0
4292.62646484375	n/a	WORD	8791299	wordpools/wasnorm_wordpool_576.txt	LTP378	ltpFR2	11	20	LAMP	798	n/a	n/a	0	0	0
4295.14208984375	n/a	WORD	8796451	wordpools/wasnorm_wordpool_576.txt	LTP378	ltpFR2	11	20	MATTRESS	879	n/a	n/a	0	0	0
4297.72607421875	n/a	WORD	8801743	wordpools/wasnorm_wordpool_576.txt	LTP378	ltpFR2	11	20	AIRPORT	13	n/a	n/a	0	0	0
4300.47607421875	n/a	WORD	8807375	wordpools/wasnorm_wordpool_576.txt	LTP378	ltpFR2	11	20	BADGE	68	n/a	n/a	0	0	0
4303.09228515625	n/a	WORD	8812733	wordpools/wasnorm_wordpool_576.txt	LTP378	ltpFR2	11	20	OUTLAW	989	n/a	n/a	0	0	0
4304.7099609375	n/a	START	8816046	n/a	LTP378	ltpFR2	11	n/a	n/a	n/a	29	n/a	n/a	n/a	n/a
4305.85498046875	n/a	DISTRACTOR	8818391	n/a	LTP378	ltpFR2	11	20	n/a	n/a	n/a	n/a	0	0	0
4305.85888671875	n/a	PROB	8818399	n/a	LTP378	ltpFR2	11	n/a	n/a	n/a	29	12	3	2	7
4309.7919921875	n/a	PROB	8826454	n/a	LTP378	ltpFR2	11	n/a	n/a	n/a	29	8	3	4	1
4311.3427734375	n/a	PROB	8829630	n/a	LTP378	ltpFR2	11	n/a	n/a	n/a	29	6	2	7	4
4315.32568359375	n/a	PROB	8837787	n/a	LTP378	ltpFR2	11	n/a	n/a	n/a	29	20	3	8	9
4320.62548828125	n/a	PROB	8848641	n/a	LTP378	ltpFR2	11	n/a	n/a	n/a	29	17	2	7	8
4328.70947265625	n/a	STOP	8865197	n/a	LTP378	ltpFR2	11	n/a	n/a	n/a	29	n/a	n/a	n/a	n/a
4330.59228515625	n/a	REC_START	8869053	n/a	LTP378	ltpFR2	11	20	n/a	n/a	n/a	n/a	0	0	0
4334.10498046875	n/a	REC_WORD	8876247	wordpools/wasnorm_wordpool_576.txt	LTP378	ltpFR2	11	20	BOX	159	n/a	n/a	0	0	0
4342.873046875	n/a	REC_WORD	8894204	wordpools/wasnorm_wordpool_576.txt	LTP378	ltpFR2	11	20	BREAST	171	n/a	n/a	0	0	0
4353.53857421875	n/a	REC_WORD	8916047	wordpools/wasnorm_wordpool_576.txt	LTP378	ltpFR2	11	20	CUPBOARD	425	n/a	n/a	0	0	0
4356.234375	n/a	REC_WORD	8921568	wordpools/wasnorm_wordpool_576.txt	LTP378	ltpFR2	11	20	FLIPPER	580	n/a	n/a	0	0	0
4358.234375	n/a	REC_WORD	8925664	wordpools/wasnorm_wordpool_576.txt	LTP378	ltpFR2	11	20	VELVET	1555	n/a	n/a	0	0	0
4363.76708984375	n/a	REC_WORD	8936995	wordpools/wasnorm_wordpool_576.txt	LTP378	ltpFR2	11	20	OUTLAW	989	n/a	n/a	0	0	0
4364.42724609375	n/a	REC_WORD	8938347	wordpools/wasnorm_wordpool_576.txt	LTP378	ltpFR2	11	20	AIRPORT	13	n/a	n/a	0	0	0
4367.05224609375	n/a	REC_WORD	8943723	wordpools/wasnorm_wordpool_576.txt	LTP378	ltpFR2	11	20	COD	340	n/a	n/a	0	0	0
4383.9775390625	n/a	REC_WORD	8978386	wordpools/wasnorm_wordpool_576.txt	LTP378	ltpFR2	11	20	TORTOISE	1486	n/a	n/a	0	0	0
4392.7451171875	n/a	REC_WORD	8996342	wordpools/wasnorm_wordpool_576.txt	LTP378	ltpFR2	11	20	BADGE	68	n/a	n/a	0	0	0
4399.21630859375	n/a	REC_WORD	9009595	wordpools/wasnorm_wordpool_576.txt	LTP378	ltpFR2	11	20	GIFT	635	n/a	n/a	0	0	0
4421.03662109375	n/a	DISTRACTOR	9054283	n/a	LTP378	ltpFR2	11	21	n/a	n/a	n/a	n/a	0	0	0
4421.03662109375	n/a	START	9054283	n/a	LTP378	ltpFR2	11	n/a	n/a	n/a	30	n/a	n/a	n/a	n/a
4421.05322265625	n/a	PROB	9054317	n/a	LTP378	ltpFR2	11	n/a	n/a	n/a	30	17	9	5	3
