mstime	trial_type	stim_file	subject	experiment	session	trial	item_name	item_num	list	answer	test_x	test_y	test_z
0	SESS_START	n/a	LTP342	ltpFR2	13	n/a	n/a	n/a	n/a	n/a	0	0	0
12482	START	n/a	LTP342	ltpFR2	13	n/a	n/a	n/a	-1	n/a	n/a	n/a	n/a
12512	PROB	n/a	LTP342	ltpFR2	13	n/a	n/a	n/a	-1	19	8	2	9
14495	PROB	n/a	LTP342	ltpFR2	13	n/a	n/a	n/a	-1	18	8	5	5
15627	PROB	n/a	LTP342	ltpFR2	13	n/a	n/a	n/a	-1	10	3	5	2
17042	PROB	n/a	LTP342	ltpFR2	13	n/a	n/a	n/a	-1	9	3	5	1
18376	PROB	n/a	LTP342	ltpFR2	13	n/a	n/a	n/a	-1	10	2	2	6
19509	PROB	n/a	LTP342	ltpFR2	13	n/a	n/a	n/a	-1	17	4	5	8
20892	PROB	n/a	LTP342	ltpFR2	13	n/a	n/a	n/a	-1	12	2	4	6
24482	STOP	n/a	LTP342	ltpFR2	13	n/a	n/a	n/a	-1	n/a	n/a	n/a	n/a
73618	WORD	wordpools/wasnorm_wordpool_576.txt	LTP342	ltpFR2	13	1	OUTDOORS	987	n/a	n/a	0	0	0
76250	WORD	wordpools/wasnorm_wordpool_576.txt	LTP342	ltpFR2	13	1	CHAMPAGNE	278	n/a	n/a	0	0	0
78965	WORD	wordpools/wasnorm_wordpool_576.txt	LTP342	ltpFR2	13	1	TEACHER	1440	n/a	n/a	0	0	0
81548	WORD	wordpools/wasnorm_wordpool_576.txt	LTP342	ltpFR2	13	1	SOFTBALL	1343	n/a	n/a	0	0	0
83980	WORD	wordpools/wasnorm_wordpool_576.txt	LTP342	ltpFR2	13	1	NIGHTGOWN	953	n/a	n/a	0	0	0
86595	WORD	wordpools/wasnorm_wordpool_576.txt	LTP342	ltpFR2	13	1	SEAFOOD	1260	n/a	n/a	0	0	0
89394	WORD	wordpools/wasnorm_wordpool_576.txt	LTP342	ltpFR2	13	1	PASTA	1021	n/a	n/a	0	0	0
92193	WORD	wordpools/wasnorm_wordpool_576.txt	LTP342	ltpFR2	13	1	DOLPHIN	483	n/a	n/a	0	0	0
94675	WORD	wordpools/wasnorm_wordpool_576.txt	LTP342	ltpFR2	13	1	NEUTRON	947	n/a	n/a	0	0	0
97474	WORD	wordpools/wasnorm_wordpool_576.txt	LTP342	ltpFR2	13	1	SHOVEL	1295	n/a	n/a	0	0	0
100189	WORD	wordpools/wasnorm_wordpool_576.txt	LTP342	ltpFR2	13	1	SUNRISE	1407	n/a	n/a	0	0	0
102688	WORD	wordpools/wasnorm_wordpool_576.txt	LTP342	ltpFR2	13	1	SUNSET	1408	n/a	n/a	0	0	0
105453	WORD	wordpools/wasnorm_wordpool_576.txt	LTP342	ltpFR2	13	1	HONEY	713	n/a	n/a	0	0	0
108051	WORD	wordpools/wasnorm_wordpool_576.txt	LTP342	ltpFR2	13	1	FOREST	593	n/a	n/a	0	0	0
110634	WORD	wordpools/wasnorm_wordpool_576.txt	LTP342	ltpFR2	13	1	HEDGE	699	n/a	n/a	0	0	0
113400	WORD	wordpools/wasnorm_wordpool_576.txt	LTP342	ltpFR2	13	1	CRICKET	408	n/a	n/a	0	0	0
115849	WORD	wordpools/wasnorm_wordpool_576.txt	LTP342	ltpFR2	13	1	OX	994	n/a	n/a	0	0	0
118614	WORD	wordpools/wasnorm_wordpool_576.txt	LTP342	ltpFR2	13	1	DUSTPAN	509	n/a	n/a	0	0	0
121313	WORD	wordpools/wasnorm_wordpool_576.txt	LTP342	ltpFR2	13	1	SPONGE	1355	n/a	n/a	0	0	0
123994	WORD	wordpools/wasnorm_wordpool_576.txt	LTP342	ltpFR2	13	1	SHARK	1275	n/a	n/a	0	0	0
126560	WORD	wordpools/wasnorm_wordpool_576.txt	LTP342	ltpFR2	13	1	CATCHER	258	n/a	n/a	0	0	0
129293	WORD	wordpools/wasnorm_wordpool_576.txt	LTP342	ltpFR2	13	1	RUST	1219	n/a	n/a	0	0	0
132007	WORD	wordpools/wasnorm_wordpool_576.txt	LTP342	ltpFR2	13	1	TAXI	1438	n/a	n/a	0	0	0
134690	WORD	wordpools/wasnorm_wordpool_576.txt	LTP342	ltpFR2	13	1	BARLEY	88	n/a	n/a	0	0	0
136306	START	n/a	LTP342	ltpFR2	13	n/a	n/a	n/a	1	n/a	n/a	n/a	n/a
137401	DISTRACTOR	n/a	LTP342	ltpFR2	13	1	n/a	n/a	n/a	n/a	0	0	0
137406	PROB	n/a	LTP342	ltpFR2	13	n/a	n/a	n/a	1	5	1	3	1
138572	PROB	n/a	LTP342	ltpFR2	13	n/a	n/a	n/a	1	17	4	8	5
140471	PROB	n/a	LTP342	ltpFR2	13	n/a	n/a	n/a	1	16	1	7	8
141837	PROB	n/a	LTP342	ltpFR2	13	n/a	n/a	n/a	1	23	7	8	7
143819	PROB	n/a	LTP342	ltpFR2	13	n/a	n/a	n/a	1	15	6	8	1
145435	PROB	n/a	LTP342	ltpFR2	13	n/a	n/a	n/a	1	17	9	2	6
147618	PROB	n/a	LTP342	ltpFR2	13	n/a	n/a	n/a	1	17	6	9	2
149150	PROB	n/a	LTP342	ltpFR2	13	n/a	n/a	n/a	1	15	4	9	2
150833	PROB	n/a	LTP342	ltpFR2	13	n/a	n/a	n/a	1	7	1	1	5
152015	PROB	n/a	LTP342	ltpFR2	13	n/a	n/a	n/a	1	12	4	7	1
153182	PROB	n/a	LTP342	ltpFR2	13	n/a	n/a	n/a	1	19	7	4	8
155281	PROB	n/a	LTP342	ltpFR2	13	n/a	n/a	n/a	1	17	8	5	4
157213	PROB	n/a	LTP342	ltpFR2	13	n/a	n/a	n/a	1	22	7	9	4
160306	STOP	n/a	LTP342	ltpFR2	13	n/a	n/a	n/a	1	n/a	n/a	n/a	n/a
162145	REC_START	n/a	LTP342	ltpFR2	13	1	n/a	n/a	n/a	n/a	0	0	0
163636	REC_WORD	wordpools/wasnorm_wordpool_576.txt	LTP342	ltpFR2	13	1	OUTDOORS	987	n/a	n/a	0	0	0
164461	REC_WORD	wordpools/wasnorm_wordpool_576.txt	LTP342	ltpFR2	13	1	CHAMPAGNE	278	n/a	n/a	0	0	0
166118	REC_WORD	wordpools/wasnorm_wordpool_576.txt	LTP342	ltpFR2	13	1	SOFTBALL	1343	n/a	n/a	0	0	0
167336	REC_WORD	wordpools/wasnorm_wordpool_576.txt	LTP342	ltpFR2	13	1	TEACHER	1440	n/a	n/a	0	0	0
168467	REC_WORD	wordpools/wasnorm_wordpool_576.txt	LTP342	ltpFR2	13	1	HONEY	713	n/a	n/a	0	0	0
170583	REC_WORD	wordpools/wasnorm_wordpool_576.txt	LTP342	ltpFR2	13	1	DOLPHIN	483	n/a	n/a	0	0	0
171411	REC_WORD	wordpools/wasnorm_wordpool_576.txt	LTP342	ltpFR2	13	1	NEUTRON	947	n/a	n/a	0	0	0
172328	REC_WORD	wordpools/wasnorm_wordpool_576.txt	LTP342	ltpFR2	13	1	SHOVEL	1295	n/a	n/a	0	0	0
173579	REC_WORD	wordpools/wasnorm_wordpool_576.txt	LTP342	ltpFR2	13	1	RUST	1219	n/a	n/a	0	0	0
174326	REC_WORD	wordpools/wasnorm_wordpool_576.txt	LTP342	ltpFR2	13	1	TAXI	1438	n/a	n/a	0	0	0
175209	REC_WORD	wordpools/wasnorm_wordpool_576.txt	LTP342	ltpFR2	13	1	BARLEY	88	n/a	n/a	0	0	0
176693	REC_WORD	wordpools/wasnorm_wordpool_576.txt	LTP342	ltpFR2	13	1	DUSTPAN	509	n/a	n/a	0	0	0
177547	REC_WORD	wordpools/wasnorm_wordpool_576.txt	LTP342	ltpFR2	13	1	SPONGE	1355	n/a	n/a	0	0	0
178397	REC_WORD	wordpools/wasnorm_wordpool_576.txt	LTP342	ltpFR2	13	1	HEDGE	699	n/a	n/a	0	0	0
179267	REC_WORD	wordpools/wasnorm_wordpool_576.txt	LTP342	ltpFR2	13	1	CRICKET	408	n/a	n/a	0	0	0
180150	REC_WORD	wordpools/wasnorm_wordpool_576.txt	LTP342	ltpFR2	13	1	OX	994	n/a	n/a	0	0	0
181004	REC_WORD	wordpools/wasnorm_wordpool_576.txt	LTP342	ltpFR2	13	1	FOREST	593	n/a	n/a	0	0	0
183556	REC_WORD	wordpools/wasnorm_wordpool_576.txt	LTP342	ltpFR2	13	1	SEAFOOD	1260	n/a	n/a	0	0	0
184533	REC_WORD	wordpools/wasnorm_wordpool_576.txt	LTP342	ltpFR2	13	1	PASTA	1021	n/a	n/a	0	0	0
191600	REC_WORD	wordpools/wasnorm_wordpool_576.txt	LTP342	ltpFR2	13	1	NIGHTGOWN	953	n/a	n/a	0	0	0
228615	REC_WORD	wordpools/wasnorm_wordpool_576.txt	LTP342	ltpFR2	13	1	SHOVEL	1295	n/a	n/a	0	0	0
252570	DISTRACTOR	n/a	LTP342	ltpFR2	13	2	n/a	n/a	n/a	n/a	0	0	0
252570	START	n/a	LTP342	ltpFR2	13	n/a	n/a	n/a	2	n/a	n/a	n/a	n/a
252587	PROB	n/a	LTP342	ltpFR2	13	n/a	n/a	n/a	2	19	6	7	6
254403	PROB	n/a	LTP342	ltpFR2	13	n/a	n/a	n/a	2	11	8	1	2
256552	PROB	n/a	LTP342	ltpFR2	13	n/a	n/a	n/a	2	23	8	5	9
258517	PROB	n/a	LTP342	ltpFR2	13	n/a	n/a	n/a	2	9	4	4	1
259584	PROB	n/a	LTP342	ltpFR2	13	n/a	n/a	n/a	2	11	3	1	7
260750	PROB	n/a	LTP342	ltpFR2	13	n/a	n/a	n/a	2	22	6	8	8
262299	PROB	n/a	LTP342	ltpFR2	13	n/a	n/a	n/a	2	23	7	7	9
263882	PROB	n/a	LTP342	ltpFR2	13	n/a	n/a	n/a	2	22	9	5	8
267563	PROB	n/a	LTP342	ltpFR2	13	n/a	n/a	n/a	2	16	9	5	2
270162	PROB	n/a	LTP342	ltpFR2	13	n/a	n/a	n/a	2	10	1	6	3
272644	PROB	n/a	LTP342	ltpFR2	13	n/a	n/a	n/a	2	16	5	3	8
274127	PROB	n/a	LTP342	ltpFR2	13	n/a	n/a	n/a	2	6	3	1	2
275218	STOP	n/a	LTP342	ltpFR2	13	n/a	n/a	n/a	2	n/a	n/a	n/a	n/a
277642	WORD	wordpools/wasnorm_wordpool_576.txt	LTP342	ltpFR2	13	2	GLASS	639	n/a	n/a	0	0	0
280191	WORD	wordpools/wasnorm_wordpool_576.txt	LTP342	ltpFR2	13	2	CUSTARD	429	n/a	n/a	0	0	0
282773	WORD	wordpools/wasnorm_wordpool_576.txt	LTP342	ltpFR2	13	2	SCALPEL	1243	n/a	n/a	0	0	0
285572	WORD	wordpools/wasnorm_wordpool_576.txt	LTP342	ltpFR2	13	2	LAKE	796	n/a	n/a	0	0	0
288121	WORD	wordpools/wasnorm_wordpool_576.txt	LTP342	ltpFR2	13	2	TYPIST	1532	n/a	n/a	0	0	0
290603	WORD	wordpools/wasnorm_wordpool_576.txt	LTP342	ltpFR2	13	2	POCKET	1093	n/a	n/a	0	0	0
293352	WORD	wordpools/wasnorm_wordpool_576.txt	LTP342	ltpFR2	13	2	ZIPPER	1636	n/a	n/a	0	0	0
295984	WORD	wordpools/wasnorm_wordpool_576.txt	LTP342	ltpFR2	13	2	POWDER	1117	n/a	n/a	0	0	0
298566	WORD	wordpools/wasnorm_wordpool_576.txt	LTP342	ltpFR2	13	2	STAMP	1370	n/a	n/a	0	0	0
301165	WORD	wordpools/wasnorm_wordpool_576.txt	LTP342	ltpFR2	13	2	JELLO	754	n/a	n/a	0	0	0
303764	WORD	wordpools/wasnorm_wordpool_576.txt	LTP342	ltpFR2	13	2	RECORD	1176	n/a	n/a	0	0	0
306196	WORD	wordpools/wasnorm_wordpool_576.txt	LTP342	ltpFR2	13	2	JUNGLE	764	n/a	n/a	0	0	0
308678	WORD	wordpools/wasnorm_wordpool_576.txt	LTP342	ltpFR2	13	2	GRAPE	654	n/a	n/a	0	0	0
311127	WORD	wordpools/wasnorm_wordpool_576.txt	LTP342	ltpFR2	13	2	CAPTIVE	240	n/a	n/a	0	0	0
313876	WORD	wordpools/wasnorm_wordpool_576.txt	LTP342	ltpFR2	13	2	CONVICT	371	n/a	n/a	0	0	0
316474	WORD	wordpools/wasnorm_wordpool_576.txt	LTP342	ltpFR2	13	2	CHILD	299	n/a	n/a	0	0	0
319273	WORD	wordpools/wasnorm_wordpool_576.txt	LTP342	ltpFR2	13	2	REBEL	1172	n/a	n/a	0	0	0
322089	WORD	wordpools/wasnorm_wordpool_576.txt	LTP342	ltpFR2	13	2	GUITAR	670	n/a	n/a	0	0	0
324687	WORD	wordpools/wasnorm_wordpool_576.txt	LTP342	ltpFR2	13	2	GANGSTER	620	n/a	n/a	0	0	0
327303	WORD	wordpools/wasnorm_wordpool_576.txt	LTP342	ltpFR2	13	2	WASP	1593	n/a	n/a	0	0	0
329852	WORD	wordpools/wasnorm_wordpool_576.txt	LTP342	ltpFR2	13	2	HANDBAG	684	n/a	n/a	0	0	0
332501	WORD	wordpools/wasnorm_wordpool_576.txt	LTP342	ltpFR2	13	2	WAITRESS	1581	n/a	n/a	0	0	0
335015	WORD	wordpools/wasnorm_wordpool_576.txt	LTP342	ltpFR2	13	2	SWITCH	1422	n/a	n/a	0	0	0
337582	WORD	wordpools/wasnorm_wordpool_576.txt	LTP342	ltpFR2	13	2	LIGHTNING	820	n/a	n/a	0	0	0
339198	START	n/a	LTP342	ltpFR2	13	n/a	n/a	n/a	3	n/a	n/a	n/a	n/a
340295	DISTRACTOR	n/a	LTP342	ltpFR2	13	2	n/a	n/a	n/a	n/a	0	0	0
340297	PROB	n/a	LTP342	ltpFR2	13	n/a	n/a	n/a	3	17	8	6	3
341963	PROB	n/a	LTP342	ltpFR2	13	n/a	n/a	n/a	3	11	7	1	3
343462	PROB	n/a	LTP342	ltpFR2	13	n/a	n/a	n/a	3	15	9	4	2
344745	PROB	n/a	LTP342	ltpFR2	13	n/a	n/a	n/a	3	18	6	9	3
346594	PROB	n/a	LTP342	ltpFR2	13	n/a	n/a	n/a	3	20	6	7	7
348610	PROB	n/a	LTP342	ltpFR2	13	n/a	n/a	n/a	3	18	6	7	5
350226	PROB	n/a	LTP342	ltpFR2	13	n/a	n/a	n/a	3	16	8	5	3
351809	PROB	n/a	LTP342	ltpFR2	13	n/a	n/a	n/a	3	20	9	8	5
354040	PROB	n/a	LTP342	ltpFR2	13	n/a	n/a	n/a	3	22	7	9	8
356923	PROB	n/a	LTP342	ltpFR2	13	n/a	n/a	n/a	3	20	9	4	7
360037	PROB	n/a	LTP342	ltpFR2	13	n/a	n/a	n/a	3	19	6	4	9
363197	STOP	n/a	LTP342	ltpFR2	13	n/a	n/a	n/a	3	n/a	n/a	n/a	n/a
365035	REC_START	n/a	LTP342	ltpFR2	13	2	n/a	n/a	n/a	n/a	0	0	0
370156	REC_WORD	wordpools/wasnorm_wordpool_576.txt	LTP342	ltpFR2	13	2	CUSTARD	429	n/a	n/a	0	0	0
371342	REC_WORD	wordpools/wasnorm_wordpool_576.txt	LTP342	ltpFR2	13	2	GLASS	639	n/a	n/a	0	0	0
372123	REC_WORD	wordpools/wasnorm_wordpool_576.txt	LTP342	ltpFR2	13	2	SCALPEL	1243	n/a	n/a	0	0	0
373557	REC_WORD	wordpools/wasnorm_wordpool_576.txt	LTP342	ltpFR2	13	2	TYPIST	1532	n/a	n/a	0	0	0
374603	REC_WORD	wordpools/wasnorm_wordpool_576.txt	LTP342	ltpFR2	13	2	ZIPPER	1636	n/a	n/a	0	0	0
375645	REC_WORD	wordpools/wasnorm_wordpool_576.txt	LTP342	ltpFR2	13	2	POCKET	1093	n/a	n/a	0	0	0
376685	REC_WORD	wordpools/wasnorm_wordpool_576.txt	LTP342	ltpFR2	13	2	POWDER	1117	n/a	n/a	0	0	0
377690	REC_WORD	wordpools/wasnorm_wordpool_576.txt	LTP342	ltpFR2	13	2	JELLO	754	n/a	n/a	0	0	0
378752	REC_WORD	wordpools/wasnorm_wordpool_576.txt	LTP342	ltpFR2	13	2	STAMP	1370	n/a	n/a	0	0	0
381283	REC_WORD	wordpools/wasnorm_wordpool_576.txt	LTP342	ltpFR2	13	2	REBEL	1172	n/a	n/a	0	0	0
382271	REC_WORD	wordpools/wasnorm_wordpool_576.txt	LTP342	ltpFR2	13	2	CHILD	299	n/a	n/a	0	0	0
385387	REC_WORD	wordpools/wasnorm_wordpool_576.txt	LTP342	ltpFR2	13	2	GUITAR	670	n/a	n/a	0	0	0
455495	DISTRACTOR	n/a	LTP342	ltpFR2	13	3	n/a	n/a	n/a	n/a	0	0	0
455495	START	n/a	LTP342	ltpFR2	13	n/a	n/a	n/a	4	n/a	n/a	n/a	n/a
455512	PROB	n/a	LTP342	ltpFR2	13	n/a	n/a	n/a	4	18	3	8	7
457344	PROB	n/a	LTP342	ltpFR2	13	n/a	n/a	n/a	4	9	7	1	1
458410	PROB	n/a	LTP342	ltpFR2	13	n/a	n/a	n/a	4	16	2	8	6
459693	PROB	n/a	LTP342	ltpFR2	13	n/a	n/a	n/a	4	25	8	8	9
461176	PROB	n/a	LTP342	ltpFR2	13	n/a	n/a	n/a	4	12	3	2	7
462758	PROB	n/a	LTP342	ltpFR2	13	n/a	n/a	n/a	4	14	8	2	4
464174	PROB	n/a	LTP342	ltpFR2	13	n/a	n/a	n/a	4	20	4	7	9
465674	PROB	n/a	LTP342	ltpFR2	13	n/a	n/a	n/a	4	14	7	1	6
468323	PROB	n/a	LTP342	ltpFR2	13	n/a	n/a	n/a	4	12	1	3	8
469689	PROB	n/a	LTP342	ltpFR2	13	n/a	n/a	n/a	4	18	4	7	7
471504	PROB	n/a	LTP342	ltpFR2	13	n/a	n/a	n/a	4	13	6	4	3
472887	PROB	n/a	LTP342	ltpFR2	13	n/a	n/a	n/a	4	16	8	7	1
474536	PROB	n/a	LTP342	ltpFR2	13	n/a	n/a	n/a	4	17	8	3	6
477635	PROB	n/a	LTP342	ltpFR2	13	n/a	n/a	n/a	4	15	8	5	2
479105	STOP	n/a	LTP342	ltpFR2	13	n/a	n/a	n/a	4	n/a	n/a	n/a	n/a
480600	WORD	wordpools/wasnorm_wordpool_576.txt	LTP342	ltpFR2	13	3	THIEF	1456	n/a	n/a	0	0	0
483299	WORD	wordpools/wasnorm_wordpool_576.txt	LTP342	ltpFR2	13	3	RIFLE	1192	n/a	n/a	0	0	0
485931	WORD	wordpools/wasnorm_wordpool_576.txt	LTP342	ltpFR2	13	3	STAPLE	1371	n/a	n/a	0	0	0
488647	WORD	wordpools/wasnorm_wordpool_576.txt	LTP342	ltpFR2	13	3	MARKER	870	n/a	n/a	0	0	0
491079	WORD	wordpools/wasnorm_wordpool_576.txt	LTP342	ltpFR2	13	3	SLUG	1329	n/a	n/a	0	0	0
493711	WORD	wordpools/wasnorm_wordpool_576.txt	LTP342	ltpFR2	13	3	SPIDER	1351	n/a	n/a	0	0	0
496476	WORD	wordpools/wasnorm_wordpool_576.txt	LTP342	ltpFR2	13	3	HAWK	692	n/a	n/a	0	0	0
499024	WORD	wordpools/wasnorm_wordpool_576.txt	LTP342	ltpFR2	13	3	GOBLIN	645	n/a	n/a	0	0	0
501574	WORD	wordpools/wasnorm_wordpool_576.txt	LTP342	ltpFR2	13	3	COTTAGE	384	n/a	n/a	0	0	0
504073	WORD	wordpools/wasnorm_wordpool_576.txt	LTP342	ltpFR2	13	3	ROD	1203	n/a	n/a	0	0	0
506572	WORD	wordpools/wasnorm_wordpool_576.txt	LTP342	ltpFR2	13	3	PICTURE	1061	n/a	n/a	0	0	0
509237	WORD	wordpools/wasnorm_wordpool_576.txt	LTP342	ltpFR2	13	3	BOUQUET	157	n/a	n/a	0	0	0
511853	WORD	wordpools/wasnorm_wordpool_576.txt	LTP342	ltpFR2	13	3	PLASTER	1085	n/a	n/a	0	0	0
514618	WORD	wordpools/wasnorm_wordpool_576.txt	LTP342	ltpFR2	13	3	MONSTER	912	n/a	n/a	0	0	0
517350	WORD	wordpools/wasnorm_wordpool_576.txt	LTP342	ltpFR2	13	3	LAGOON	795	n/a	n/a	0	0	0
519816	WORD	wordpools/wasnorm_wordpool_576.txt	LTP342	ltpFR2	13	3	FRAGRANCE	599	n/a	n/a	0	0	0
522498	WORD	wordpools/wasnorm_wordpool_576.txt	LTP342	ltpFR2	13	3	LOVER	846	n/a	n/a	0	0	0
525130	WORD	wordpools/wasnorm_wordpool_576.txt	LTP342	ltpFR2	13	3	SCULPTURE	1258	n/a	n/a	0	0	0
527912	WORD	wordpools/wasnorm_wordpool_576.txt	LTP342	ltpFR2	13	3	DRAWING	494	n/a	n/a	0	0	0
530644	WORD	wordpools/wasnorm_wordpool_576.txt	LTP342	ltpFR2	13	3	KNAPSACK	783	n/a	n/a	0	0	0
533426	WORD	wordpools/wasnorm_wordpool_576.txt	LTP342	ltpFR2	13	3	FRIEND	606	n/a	n/a	0	0	0
536024	WORD	wordpools/wasnorm_wordpool_576.txt	LTP342	ltpFR2	13	3	PORTRAIT	1111	n/a	n/a	0	0	0
538624	WORD	wordpools/wasnorm_wordpool_576.txt	LTP342	ltpFR2	13	3	BALLOON	75	n/a	n/a	0	0	0
541439	WORD	wordpools/wasnorm_wordpool_576.txt	LTP342	ltpFR2	13	3	GAVEL	627	n/a	n/a	0	0	0
543055	START	n/a	LTP342	ltpFR2	13	n/a	n/a	n/a	5	n/a	n/a	n/a	n/a
544022	DISTRACTOR	n/a	LTP342	ltpFR2	13	3	n/a	n/a	n/a	n/a	0	0	0
544037	PROB	n/a	LTP342	ltpFR2	13	n/a	n/a	n/a	5	10	5	3	2
545504	PROB	n/a	LTP342	ltpFR2	13	n/a	n/a	n/a	5	19	6	7	6
547353	PROB	n/a	LTP342	ltpFR2	13	n/a	n/a	n/a	5	10	2	1	7
548486	PROB	n/a	LTP342	ltpFR2	13	n/a	n/a	n/a	5	11	6	2	3
549935	PROB	n/a	LTP342	ltpFR2	13	n/a	n/a	n/a	5	12	7	3	2
551468	PROB	n/a	LTP342	ltpFR2	13	n/a	n/a	n/a	5	19	7	9	3
553201	PROB	n/a	LTP342	ltpFR2	13	n/a	n/a	n/a	5	9	6	1	2
554950	PROB	n/a	LTP342	ltpFR2	13	n/a	n/a	n/a	5	13	1	4	7
556416	PROB	n/a	LTP342	ltpFR2	13	n/a	n/a	n/a	5	17	7	6	4
558182	PROB	n/a	LTP342	ltpFR2	13	n/a	n/a	n/a	5	15	9	1	5
559398	PROB	n/a	LTP342	ltpFR2	13	n/a	n/a	n/a	5	6	4	1	1
560497	PROB	n/a	LTP342	ltpFR2	13	n/a	n/a	n/a	5	12	9	2	1
561780	PROB	n/a	LTP342	ltpFR2	13	n/a	n/a	n/a	5	22	8	5	9
563995	PROB	n/a	LTP342	ltpFR2	13	n/a	n/a	n/a	5	18	4	5	9
565523	STOP	n/a	LTP342	ltpFR2	13	n/a	n/a	n/a	5	n/a	n/a	n/a	n/a
568928	REC_START	n/a	LTP342	ltpFR2	13	3	n/a	n/a	n/a	n/a	0	0	0
569756	REC_WORD	wordpools/wasnorm_wordpool_576.txt	LTP342	ltpFR2	13	3	SCULPTURE	1258	n/a	n/a	0	0	0
570789	REC_WORD	wordpools/wasnorm_wordpool_576.txt	LTP342	ltpFR2	13	3	DRAWING	494	n/a	n/a	0	0	0
571784	REC_WORD	wordpools/wasnorm_wordpool_576.txt	LTP342	ltpFR2	13	3	PORTRAIT	1111	n/a	n/a	0	0	0
572956	REC_WORD	wordpools/wasnorm_wordpool_576.txt	LTP342	ltpFR2	13	3	BALLOON	75	n/a	n/a	0	0	0
589215	REC_WORD	wordpools/wasnorm_wordpool_576.txt	LTP342	ltpFR2	13	3	FRIEND	606	n/a	n/a	0	0	0
615943	REC_WORD	wordpools/wasnorm_wordpool_576.txt	LTP342	ltpFR2	13	3	KNAPSACK	783	n/a	n/a	0	0	0
659369	WORD	wordpools/wasnorm_wordpool_576.txt	LTP342	ltpFR2	13	4	CORAL	378	n/a	n/a	0	0	0
662034	WORD	wordpools/wasnorm_wordpool_576.txt	LTP342	ltpFR2	13	4	RELISH	1183	n/a	n/a	0	0	0
664467	WORD	wordpools/wasnorm_wordpool_576.txt	LTP342	ltpFR2	13	4	BACKBONE	66	n/a	n/a	0	0	0
667149	WORD	wordpools/wasnorm_wordpool_576.txt	LTP342	ltpFR2	13	4	BREAST	171	n/a	n/a	0	0	0
669815	WORD	wordpools/wasnorm_wordpool_576.txt	LTP342	ltpFR2	13	4	TILE	1468	n/a	n/a	0	0	0
672264	WORD	wordpools/wasnorm_wordpool_576.txt	LTP342	ltpFR2	13	4	BLOCKADE	137	n/a	n/a	0	0	0
674879	WORD	wordpools/wasnorm_wordpool_576.txt	LTP342	ltpFR2	13	4	KETCHUP	771	n/a	n/a	0	0	0
677694	WORD	wordpools/wasnorm_wordpool_576.txt	LTP342	ltpFR2	13	4	SPOON	1357	n/a	n/a	0	0	0
680310	WORD	wordpools/wasnorm_wordpool_576.txt	LTP342	ltpFR2	13	4	COUNTRY	388	n/a	n/a	0	0	0
683041	WORD	wordpools/wasnorm_wordpool_576.txt	LTP342	ltpFR2	13	4	ICING	732	n/a	n/a	0	0	0
685491	WORD	wordpools/wasnorm_wordpool_576.txt	LTP342	ltpFR2	13	4	GLOVE	642	n/a	n/a	0	0	0
688005	WORD	wordpools/wasnorm_wordpool_576.txt	LTP342	ltpFR2	13	4	WRIST	1626	n/a	n/a	0	0	0
690539	WORD	wordpools/wasnorm_wordpool_576.txt	LTP342	ltpFR2	13	4	KEEPER	769	n/a	n/a	0	0	0
693171	WORD	wordpools/wasnorm_wordpool_576.txt	LTP342	ltpFR2	13	4	PEACH	1031	n/a	n/a	0	0	0
695970	WORD	wordpools/wasnorm_wordpool_576.txt	LTP342	ltpFR2	13	4	GRILL	661	n/a	n/a	0	0	0
698435	WORD	wordpools/wasnorm_wordpool_576.txt	LTP342	ltpFR2	13	4	GRAVEL	659	n/a	n/a	0	0	0
701217	WORD	wordpools/wasnorm_wordpool_576.txt	LTP342	ltpFR2	13	4	WHISKERS	1605	n/a	n/a	0	0	0
703849	WORD	wordpools/wasnorm_wordpool_576.txt	LTP342	ltpFR2	13	4	COUCH	386	n/a	n/a	0	0	0
706331	WORD	wordpools/wasnorm_wordpool_576.txt	LTP342	ltpFR2	13	4	HATCHET	691	n/a	n/a	0	0	0
709064	WORD	wordpools/wasnorm_wordpool_576.txt	LTP342	ltpFR2	13	4	OFFICE	972	n/a	n/a	0	0	0
711662	WORD	wordpools/wasnorm_wordpool_576.txt	LTP342	ltpFR2	13	4	OUTLAW	989	n/a	n/a	0	0	0
714245	WORD	wordpools/wasnorm_wordpool_576.txt	LTP342	ltpFR2	13	4	ROBBER	1197	n/a	n/a	0	0	0
716977	WORD	wordpools/wasnorm_wordpool_576.txt	LTP342	ltpFR2	13	4	BRICK	172	n/a	n/a	0	0	0
719442	WORD	wordpools/wasnorm_wordpool_576.txt	LTP342	ltpFR2	13	4	LETTUCE	814	n/a	n/a	0	0	0
721058	START	n/a	LTP342	ltpFR2	13	n/a	n/a	n/a	6	n/a	n/a	n/a	n/a
722010	DISTRACTOR	n/a	LTP342	ltpFR2	13	4	n/a	n/a	n/a	n/a	0	0	0
722023	PROB	n/a	LTP342	ltpFR2	13	n/a	n/a	n/a	6	6	3	1	2
724423	PROB	n/a	LTP342	ltpFR2	13	n/a	n/a	n/a	6	14	8	1	5
726222	PROB	n/a	LTP342	ltpFR2	13	n/a	n/a	n/a	6	16	8	4	4
727738	PROB	n/a	LTP342	ltpFR2	13	n/a	n/a	n/a	6	18	7	4	7
729504	PROB	n/a	LTP342	ltpFR2	13	n/a	n/a	n/a	6	12	4	3	5
732953	PROB	n/a	LTP342	ltpFR2	13	n/a	n/a	n/a	6	14	5	6	3
734602	PROB	n/a	LTP342	ltpFR2	13	n/a	n/a	n/a	6	13	3	8	2
736034	PROB	n/a	LTP342	ltpFR2	13	n/a	n/a	n/a	6	10	1	7	2
738900	PROB	n/a	LTP342	ltpFR2	13	n/a	n/a	n/a	6	14	1	9	4
740716	PROB	n/a	LTP342	ltpFR2	13	n/a	n/a	n/a	6	13	2	3	8
742465	PROB	n/a	LTP342	ltpFR2	13	n/a	n/a	n/a	6	17	6	4	7
744040	STOP	n/a	LTP342	ltpFR2	13	n/a	n/a	n/a	6	n/a	n/a	n/a	n/a
746814	REC_START	n/a	LTP342	ltpFR2	13	4	n/a	n/a	n/a	n/a	0	0	0
747813	REC_WORD	wordpools/wasnorm_wordpool_576.txt	LTP342	ltpFR2	13	4	OUTLAW	989	n/a	n/a	0	0	0
748541	REC_WORD	wordpools/wasnorm_wordpool_576.txt	LTP342	ltpFR2	13	4	ROBBER	1197	n/a	n/a	0	0	0
749431	REC_WORD	wordpools/wasnorm_wordpool_576.txt	LTP342	ltpFR2	13	4	GLOVE	642	n/a	n/a	0	0	0
750199	REC_WORD	wordpools/wasnorm_wordpool_576.txt	LTP342	ltpFR2	13	4	WRIST	1626	n/a	n/a	0	0	0
751007	REC_WORD	wordpools/wasnorm_wordpool_576.txt	LTP342	ltpFR2	13	4	KEEPER	769	n/a	n/a	0	0	0
752346	REC_WORD	wordpools/wasnorm_wordpool_576.txt	LTP342	ltpFR2	13	4	LETTUCE	814	n/a	n/a	0	0	0
753203	REC_WORD	wordpools/wasnorm_wordpool_576.txt	LTP342	ltpFR2	13	4	BRICK	172	n/a	n/a	0	0	0
757090	REC_WORD	wordpools/wasnorm_wordpool_576.txt	LTP342	ltpFR2	13	4	KETCHUP	771	n/a	n/a	0	0	0
757749	REC_WORD	wordpools/wasnorm_wordpool_576.txt	LTP342	ltpFR2	13	4	BACKBONE	66	n/a	n/a	0	0	0
758614	REC_WORD	wordpools/wasnorm_wordpool_576.txt	LTP342	ltpFR2	13	4	BREAST	171	n/a	n/a	0	0	0
764884	REC_WORD	wordpools/wasnorm_wordpool_576.txt	LTP342	ltpFR2	13	4	TILE	1468	n/a	n/a	0	0	0
837272	WORD	wordpools/wasnorm_wordpool_576.txt	LTP342	ltpFR2	13	5	SUITCASE	1403	n/a	n/a	0	0	0
839738	WORD	wordpools/wasnorm_wordpool_576.txt	LTP342	ltpFR2	13	5	BANQUET	86	n/a	n/a	0	0	0
842520	WORD	wordpools/wasnorm_wordpool_576.txt	LTP342	ltpFR2	13	5	PUPPY	1144	n/a	n/a	0	0	0
845102	WORD	wordpools/wasnorm_wordpool_576.txt	LTP342	ltpFR2	13	5	TUBA	1515	n/a	n/a	0	0	0
847651	WORD	wordpools/wasnorm_wordpool_576.txt	LTP342	ltpFR2	13	5	FLIPPER	580	n/a	n/a	0	0	0
850400	WORD	wordpools/wasnorm_wordpool_576.txt	LTP342	ltpFR2	13	5	WIDOW	1608	n/a	n/a	0	0	0
853065	WORD	wordpools/wasnorm_wordpool_576.txt	LTP342	ltpFR2	13	5	MAMMAL	861	n/a	n/a	0	0	0
855631	WORD	wordpools/wasnorm_wordpool_576.txt	LTP342	ltpFR2	13	5	PLATE	1086	n/a	n/a	0	0	0
858179	WORD	wordpools/wasnorm_wordpool_576.txt	LTP342	ltpFR2	13	5	COD	340	n/a	n/a	0	0	0
860712	WORD	wordpools/wasnorm_wordpool_576.txt	LTP342	ltpFR2	13	5	SCOTCH	1251	n/a	n/a	0	0	0
863294	WORD	wordpools/wasnorm_wordpool_576.txt	LTP342	ltpFR2	13	5	BODY	145	n/a	n/a	0	0	0
865759	WORD	wordpools/wasnorm_wordpool_576.txt	LTP342	ltpFR2	13	5	GUARD	667	n/a	n/a	0	0	0
868341	WORD	wordpools/wasnorm_wordpool_576.txt	LTP342	ltpFR2	13	5	BURGLAR	200	n/a	n/a	0	0	0
871039	WORD	wordpools/wasnorm_wordpool_576.txt	LTP342	ltpFR2	13	5	PIGMENT	1066	n/a	n/a	0	0	0
873572	WORD	wordpools/wasnorm_wordpool_576.txt	LTP342	ltpFR2	13	5	HUSBAND	728	n/a	n/a	0	0	0
876121	WORD	wordpools/wasnorm_wordpool_576.txt	LTP342	ltpFR2	13	5	SPOUSE	1358	n/a	n/a	0	0	0
878670	WORD	wordpools/wasnorm_wordpool_576.txt	LTP342	ltpFR2	13	5	BOX	159	n/a	n/a	0	0	0
881386	WORD	wordpools/wasnorm_wordpool_576.txt	LTP342	ltpFR2	13	5	GIFT	635	n/a	n/a	0	0	0
884168	WORD	wordpools/wasnorm_wordpool_576.txt	LTP342	ltpFR2	13	5	SLOPE	1328	n/a	n/a	0	0	0
886617	WORD	wordpools/wasnorm_wordpool_576.txt	LTP342	ltpFR2	13	5	CRAYON	401	n/a	n/a	0	0	0
889048	WORD	wordpools/wasnorm_wordpool_576.txt	LTP342	ltpFR2	13	5	GHETTO	633	n/a	n/a	0	0	0
891731	WORD	wordpools/wasnorm_wordpool_576.txt	LTP342	ltpFR2	13	5	COUNTY	389	n/a	n/a	0	0	0
894313	WORD	wordpools/wasnorm_wordpool_576.txt	LTP342	ltpFR2	13	5	BARREL	91	n/a	n/a	0	0	0
896812	WORD	wordpools/wasnorm_wordpool_576.txt	LTP342	ltpFR2	13	5	FOX	598	n/a	n/a	0	0	0
898428	START	n/a	LTP342	ltpFR2	13	n/a	n/a	n/a	7	n/a	n/a	n/a	n/a
899533	DISTRACTOR	n/a	LTP342	ltpFR2	13	5	n/a	n/a	n/a	n/a	0	0	0
899544	PROB	n/a	LTP342	ltpFR2	13	n/a	n/a	n/a	7	18	7	3	8
901626	PROB	n/a	LTP342	ltpFR2	13	n/a	n/a	n/a	7	18	8	7	3
903176	PROB	n/a	LTP342	ltpFR2	13	n/a	n/a	n/a	7	20	8	5	7
906374	PROB	n/a	LTP342	ltpFR2	13	n/a	n/a	n/a	7	20	8	6	6
910173	PROB	n/a	LTP342	ltpFR2	13	n/a	n/a	n/a	7	8	1	4	3
911638	PROB	n/a	LTP342	ltpFR2	13	n/a	n/a	n/a	7	22	8	8	6
913271	PROB	n/a	LTP342	ltpFR2	13	n/a	n/a	n/a	7	19	8	4	7
914837	PROB	n/a	LTP342	ltpFR2	13	n/a	n/a	n/a	7	13	6	1	8
917486	PROB	n/a	LTP342	ltpFR2	13	n/a	n/a	n/a	7	13	1	5	7
920168	PROB	n/a	LTP342	ltpFR2	13	n/a	n/a	n/a	7	14	1	4	9
921471	STOP	n/a	LTP342	ltpFR2	13	n/a	n/a	n/a	7	n/a	n/a	n/a	n/a
924300	REC_START	n/a	LTP342	ltpFR2	13	5	n/a	n/a	n/a	n/a	0	0	0
926023	REC_WORD	wordpools/wasnorm_wordpool_576.txt	LTP342	ltpFR2	13	5	GHETTO	633	n/a	n/a	0	0	0
926706	REC_WORD	wordpools/wasnorm_wordpool_576.txt	LTP342	ltpFR2	13	5	CRAYON	401	n/a	n/a	0	0	0
927920	REC_WORD	wordpools/wasnorm_wordpool_576.txt	LTP342	ltpFR2	13	5	COUNTY	389	n/a	n/a	0	0	0
928847	REC_WORD	wordpools/wasnorm_wordpool_576.txt	LTP342	ltpFR2	13	5	BARREL	91	n/a	n/a	0	0	0
930788	REC_WORD	wordpools/wasnorm_wordpool_576.txt	LTP342	ltpFR2	13	5	FOX	598	n/a	n/a	0	0	0
931913	REC_WORD	wordpools/wasnorm_wordpool_576.txt	LTP342	ltpFR2	13	5	GIFT	635	n/a	n/a	0	0	0
932786	REC_WORD	wordpools/wasnorm_wordpool_576.txt	LTP342	ltpFR2	13	5	BOX	159	n/a	n/a	0	0	0
933578	REC_WORD	wordpools/wasnorm_wordpool_576.txt	LTP342	ltpFR2	13	5	WIDOW	1608	n/a	n/a	0	0	0
934246	REC_WORD	wordpools/wasnorm_wordpool_576.txt	LTP342	ltpFR2	13	5	SPOUSE	1358	n/a	n/a	0	0	0
935141	REC_WORD	wordpools/wasnorm_wordpool_576.txt	LTP342	ltpFR2	13	5	HUSBAND	728	n/a	n/a	0	0	0
936044	REC_WORD	wordpools/wasnorm_wordpool_576.txt	LTP342	ltpFR2	13	5	MAMMAL	861	n/a	n/a	0	0	0
936859	REC_WORD	wordpools/wasnorm_wordpool_576.txt	LTP342	ltpFR2	13	5	FLIPPER	580	n/a	n/a	0	0	0
938213	REC_WORD	wordpools/wasnorm_wordpool_576.txt	LTP342	ltpFR2	13	5	GUARD	667	n/a	n/a	0	0	0
939374	REC_WORD	wordpools/wasnorm_wordpool_576.txt	LTP342	ltpFR2	13	5	BURGLAR	200	n/a	n/a	0	0	0
940760	REC_WORD	wordpools/wasnorm_wordpool_576.txt	LTP342	ltpFR2	13	5	PLATE	1086	n/a	n/a	0	0	0
941446	REC_WORD	wordpools/wasnorm_wordpool_576.txt	LTP342	ltpFR2	13	5	COD	340	n/a	n/a	0	0	0
942074	REC_WORD	wordpools/wasnorm_wordpool_576.txt	LTP342	ltpFR2	13	5	SCOTCH	1251	n/a	n/a	0	0	0
942934	REC_WORD	wordpools/wasnorm_wordpool_576.txt	LTP342	ltpFR2	13	5	BODY	145	n/a	n/a	0	0	0
943638	REC_WORD	wordpools/wasnorm_wordpool_576.txt	LTP342	ltpFR2	13	5	BANQUET	86	n/a	n/a	0	0	0
944161	REC_WORD	wordpools/wasnorm_wordpool_576.txt	LTP342	ltpFR2	13	5	SUITCASE	1403	n/a	n/a	0	0	0
946877	REC_WORD	wordpools/wasnorm_wordpool_576.txt	LTP342	ltpFR2	13	5	PUPPY	1144	n/a	n/a	0	0	0
951138	REC_WORD	wordpools/wasnorm_wordpool_576.txt	LTP342	ltpFR2	13	5	TUBA	1515	n/a	n/a	0	0	0
1014725	DISTRACTOR	n/a	LTP342	ltpFR2	13	6	n/a	n/a	n/a	n/a	0	0	0
1014725	START	n/a	LTP342	ltpFR2	13	n/a	n/a	n/a	8	n/a	n/a	n/a	n/a
1014742	PROB	n/a	LTP342	ltpFR2	13	n/a	n/a	n/a	8	15	4	2	9
1016174	PROB	n/a	LTP342	ltpFR2	13	n/a	n/a	n/a	8	14	4	4	6
1017740	PROB	n/a	LTP342	ltpFR2	13	n/a	n/a	n/a	8	14	3	6	5
1019240	PROB	n/a	LTP342	ltpFR2	13	n/a	n/a	n/a	8	11	6	4	1
1020739	PROB	n/a	LTP342	ltpFR2	13	n/a	n/a	n/a	8	21	9	8	4
1022088	PROB	n/a	LTP342	ltpFR2	13	n/a	n/a	n/a	8	15	5	6	4
1024471	PROB	n/a	LTP342	ltpFR2	13	n/a	n/a	n/a	8	20	7	4	9
1026137	PROB	n/a	LTP342	ltpFR2	13	n/a	n/a	n/a	8	17	9	4	4
1027653	PROB	n/a	LTP342	ltpFR2	13	n/a	n/a	n/a	8	9	1	2	6
1029102	PROB	n/a	LTP342	ltpFR2	13	n/a	n/a	n/a	8	11	5	5	1
1030101	PROB	n/a	LTP342	ltpFR2	13	n/a	n/a	n/a	8	14	5	3	6
1032134	PROB	n/a	LTP342	ltpFR2	13	n/a	n/a	n/a	8	18	6	6	6
1033433	PROB	n/a	LTP342	ltpFR2	13	n/a	n/a	n/a	8	22	9	8	6
1035183	PROB	n/a	LTP342	ltpFR2	13	n/a	n/a	n/a	8	19	6	4	9
1038724	STOP	n/a	LTP342	ltpFR2	13	n/a	n/a	n/a	8	n/a	n/a	n/a	n/a
1039880	WORD	wordpools/wasnorm_wordpool_576.txt	LTP342	ltpFR2	13	6	CELLAR	267	n/a	n/a	0	0	0
1042546	WORD	wordpools/wasnorm_wordpool_576.txt	LTP342	ltpFR2	13	6	LUGGAGE	847	n/a	n/a	0	0	0
1045261	WORD	wordpools/wasnorm_wordpool_576.txt	LTP342	ltpFR2	13	6	XEROX	1628	n/a	n/a	0	0	0
1047810	WORD	wordpools/wasnorm_wordpool_576.txt	LTP342	ltpFR2	13	6	MUMMY	932	n/a	n/a	0	0	0
1050242	WORD	wordpools/wasnorm_wordpool_576.txt	LTP342	ltpFR2	13	6	BELLY	119	n/a	n/a	0	0	0
1052891	WORD	wordpools/wasnorm_wordpool_576.txt	LTP342	ltpFR2	13	6	LIVER	833	n/a	n/a	0	0	0
1055323	WORD	wordpools/wasnorm_wordpool_576.txt	LTP342	ltpFR2	13	6	BRANCH	168	n/a	n/a	0	0	0
1057906	WORD	wordpools/wasnorm_wordpool_576.txt	LTP342	ltpFR2	13	6	ROBOT	1200	n/a	n/a	0	0	0
1060355	WORD	wordpools/wasnorm_wordpool_576.txt	LTP342	ltpFR2	13	6	NOMAD	955	n/a	n/a	0	0	0
1062970	WORD	wordpools/wasnorm_wordpool_576.txt	LTP342	ltpFR2	13	6	PRINCESS	1125	n/a	n/a	0	0	0
1065552	WORD	wordpools/wasnorm_wordpool_576.txt	LTP342	ltpFR2	13	6	QUEEN	1149	n/a	n/a	0	0	0
1068251	WORD	wordpools/wasnorm_wordpool_576.txt	LTP342	ltpFR2	13	6	COUSIN	392	n/a	n/a	0	0	0
1070750	WORD	wordpools/wasnorm_wordpool_576.txt	LTP342	ltpFR2	13	6	BUGGY	188	n/a	n/a	0	0	0
1073232	WORD	wordpools/wasnorm_wordpool_576.txt	LTP342	ltpFR2	13	6	DRINK	498	n/a	n/a	0	0	0
1076046	WORD	wordpools/wasnorm_wordpool_576.txt	LTP342	ltpFR2	13	6	TUNNEL	1519	n/a	n/a	0	0	0
1078779	WORD	wordpools/wasnorm_wordpool_576.txt	LTP342	ltpFR2	13	6	MAPLE	866	n/a	n/a	0	0	0
1081312	WORD	wordpools/wasnorm_wordpool_576.txt	LTP342	ltpFR2	13	6	GYMNAST	675	n/a	n/a	0	0	0
1084026	WORD	wordpools/wasnorm_wordpool_576.txt	LTP342	ltpFR2	13	6	JUGGLER	763	n/a	n/a	0	0	0
1086659	WORD	wordpools/wasnorm_wordpool_576.txt	LTP342	ltpFR2	13	6	QUAIL	1147	n/a	n/a	0	0	0
1089208	WORD	wordpools/wasnorm_wordpool_576.txt	LTP342	ltpFR2	13	6	ANKLE	24	n/a	n/a	0	0	0
1091657	WORD	wordpools/wasnorm_wordpool_576.txt	LTP342	ltpFR2	13	6	ULCER	1533	n/a	n/a	0	0	0
1094106	WORD	wordpools/wasnorm_wordpool_576.txt	LTP342	ltpFR2	13	6	HEART	697	n/a	n/a	0	0	0
1096821	WORD	wordpools/wasnorm_wordpool_576.txt	LTP342	ltpFR2	13	6	PERCH	1048	n/a	n/a	0	0	0
1099287	WORD	wordpools/wasnorm_wordpool_576.txt	LTP342	ltpFR2	13	6	FLEET	578	n/a	n/a	0	0	0
1100903	START	n/a	LTP342	ltpFR2	13	n/a	n/a	n/a	9	n/a	n/a	n/a	n/a
1101720	DISTRACTOR	n/a	LTP342	ltpFR2	13	6	n/a	n/a	n/a	n/a	0	0	0
1101736	PROB	n/a	LTP342	ltpFR2	13	n/a	n/a	n/a	9	6	1	2	3
1103485	PROB	n/a	LTP342	ltpFR2	13	n/a	n/a	n/a	9	15	5	5	5
1104668	PROB	n/a	LTP342	ltpFR2	13	n/a	n/a	n/a	9	18	6	2	8
1106234	PROB	n/a	LTP342	ltpFR2	13	n/a	n/a	n/a	9	17	4	7	6
1107966	PROB	n/a	LTP342	ltpFR2	13	n/a	n/a	n/a	9	18	9	6	3
1109382	PROB	n/a	LTP342	ltpFR2	13	n/a	n/a	n/a	9	20	5	9	6
1111014	PROB	n/a	LTP342	ltpFR2	13	n/a	n/a	n/a	9	13	6	1	8
1113680	PROB	n/a	LTP342	ltpFR2	13	n/a	n/a	n/a	9	14	4	3	7
1115580	PROB	n/a	LTP342	ltpFR2	13	n/a	n/a	n/a	9	17	6	2	9
1118128	PROB	n/a	LTP342	ltpFR2	13	n/a	n/a	n/a	9	20	7	9	4
1119911	PROB	n/a	LTP342	ltpFR2	13	n/a	n/a	n/a	9	23	9	7	7
1122177	PROB	n/a	LTP342	ltpFR2	13	n/a	n/a	n/a	9	17	3	7	7
1124341	STOP	n/a	LTP342	ltpFR2	13	n/a	n/a	n/a	9	n/a	n/a	n/a	n/a
1126809	REC_START	n/a	LTP342	ltpFR2	13	6	n/a	n/a	n/a	n/a	0	0	0
1128606	REC_WORD	wordpools/wasnorm_wordpool_576.txt	LTP342	ltpFR2	13	6	CELLAR	267	n/a	n/a	0	0	0
1129592	REC_WORD	wordpools/wasnorm_wordpool_576.txt	LTP342	ltpFR2	13	6	LUGGAGE	847	n/a	n/a	0	0	0
1130406	REC_WORD	wordpools/wasnorm_wordpool_576.txt	LTP342	ltpFR2	13	6	XEROX	1628	n/a	n/a	0	0	0
1131418	REC_WORD	wordpools/wasnorm_wordpool_576.txt	LTP342	ltpFR2	13	6	MUMMY	932	n/a	n/a	0	0	0
1132193	REC_WORD	wordpools/wasnorm_wordpool_576.txt	LTP342	ltpFR2	13	6	BELLY	119	n/a	n/a	0	0	0
1132787	REC_WORD	wordpools/wasnorm_wordpool_576.txt	LTP342	ltpFR2	13	6	LIVER	833	n/a	n/a	0	0	0
1133967	REC_WORD	wordpools/wasnorm_wordpool_576.txt	LTP342	ltpFR2	13	6	ROBOT	1200	n/a	n/a	0	0	0
1134672	REC_WORD	wordpools/wasnorm_wordpool_576.txt	LTP342	ltpFR2	13	6	NOMAD	955	n/a	n/a	0	0	0
1136613	REC_WORD	wordpools/wasnorm_wordpool_576.txt	LTP342	ltpFR2	13	6	BRANCH	168	n/a	n/a	0	0	0
1137955	REC_WORD	wordpools/wasnorm_wordpool_576.txt	LTP342	ltpFR2	13	6	PRINCESS	1125	n/a	n/a	0	0	0
1139308	REC_WORD	wordpools/wasnorm_wordpool_576.txt	LTP342	ltpFR2	13	6	COUSIN	392	n/a	n/a	0	0	0
1140188	REC_WORD	wordpools/wasnorm_wordpool_576.txt	LTP342	ltpFR2	13	6	QUEEN	1149	n/a	n/a	0	0	0
1143363	REC_WORD	wordpools/wasnorm_wordpool_576.txt	LTP342	ltpFR2	13	6	BUGGY	188	n/a	n/a	0	0	0
1144157	REC_WORD	wordpools/wasnorm_wordpool_576.txt	LTP342	ltpFR2	13	6	TUNNEL	1519	n/a	n/a	0	0	0
1144941	REC_WORD	wordpools/wasnorm_wordpool_576.txt	LTP342	ltpFR2	13	6	MAPLE	866	n/a	n/a	0	0	0
1145683	REC_WORD	wordpools/wasnorm_wordpool_576.txt	LTP342	ltpFR2	13	6	DRINK	498	n/a	n/a	0	0	0
1147408	REC_WORD	wordpools/wasnorm_wordpool_576.txt	LTP342	ltpFR2	13	6	ULCER	1533	n/a	n/a	0	0	0
1149560	REC_WORD	wordpools/wasnorm_wordpool_576.txt	LTP342	ltpFR2	13	6	GYMNAST	675	n/a	n/a	0	0	0
1151853	REC_WORD	wordpools/wasnorm_wordpool_576.txt	LTP342	ltpFR2	13	6	JUGGLER	763	n/a	n/a	0	0	0
1152926	REC_WORD	wordpools/wasnorm_wordpool_576.txt	LTP342	ltpFR2	13	6	QUAIL	1147	n/a	n/a	0	0	0
1154190	REC_WORD	wordpools/wasnorm_wordpool_576.txt	LTP342	ltpFR2	13	6	ANKLE	24	n/a	n/a	0	0	0
1161752	REC_WORD	wordpools/wasnorm_wordpool_576.txt	LTP342	ltpFR2	13	6	PERCH	1048	n/a	n/a	0	0	0
1162397	REC_WORD	wordpools/wasnorm_wordpool_576.txt	LTP342	ltpFR2	13	6	FLEET	578	n/a	n/a	0	0	0
1263513	WORD	wordpools/wasnorm_wordpool_576.txt	LTP342	ltpFR2	13	7	DAISY	435	n/a	n/a	0	0	0
1266195	WORD	wordpools/wasnorm_wordpool_576.txt	LTP342	ltpFR2	13	7	RADISH	1158	n/a	n/a	0	0	0
1268693	WORD	wordpools/wasnorm_wordpool_576.txt	LTP342	ltpFR2	13	7	ROCKET	1202	n/a	n/a	0	0	0
1271226	WORD	wordpools/wasnorm_wordpool_576.txt	LTP342	ltpFR2	13	7	CARRIAGE	248	n/a	n/a	0	0	0
1273791	WORD	wordpools/wasnorm_wordpool_576.txt	LTP342	ltpFR2	13	7	BACON	67	n/a	n/a	0	0	0
1276323	WORD	wordpools/wasnorm_wordpool_576.txt	LTP342	ltpFR2	13	7	OMELET	976	n/a	n/a	0	0	0
1279089	WORD	wordpools/wasnorm_wordpool_576.txt	LTP342	ltpFR2	13	7	CRIB	407	n/a	n/a	0	0	0
1281804	WORD	wordpools/wasnorm_wordpool_576.txt	LTP342	ltpFR2	13	7	SNACK	1331	n/a	n/a	0	0	0
1284286	WORD	wordpools/wasnorm_wordpool_576.txt	LTP342	ltpFR2	13	7	BOYFRIEND	162	n/a	n/a	0	0	0
1287102	WORD	wordpools/wasnorm_wordpool_576.txt	LTP342	ltpFR2	13	7	CASHIER	254	n/a	n/a	0	0	0
1289751	WORD	wordpools/wasnorm_wordpool_576.txt	LTP342	ltpFR2	13	7	LUNCH	849	n/a	n/a	0	0	0
1292499	WORD	wordpools/wasnorm_wordpool_576.txt	LTP342	ltpFR2	13	7	TWISTER	1530	n/a	n/a	0	0	0
1295065	WORD	wordpools/wasnorm_wordpool_576.txt	LTP342	ltpFR2	13	7	BUNNY	198	n/a	n/a	0	0	0
1297630	WORD	wordpools/wasnorm_wordpool_576.txt	LTP342	ltpFR2	13	7	FRUIT	610	n/a	n/a	0	0	0
1300246	WORD	wordpools/wasnorm_wordpool_576.txt	LTP342	ltpFR2	13	7	CARROT	249	n/a	n/a	0	0	0
1302761	WORD	wordpools/wasnorm_wordpool_576.txt	LTP342	ltpFR2	13	7	AIRPORT	13	n/a	n/a	0	0	0
1305210	WORD	wordpools/wasnorm_wordpool_576.txt	LTP342	ltpFR2	13	7	EMPIRE	530	n/a	n/a	0	0	0
1307909	WORD	wordpools/wasnorm_wordpool_576.txt	LTP342	ltpFR2	13	7	PLUTO	1092	n/a	n/a	0	0	0
1310558	WORD	wordpools/wasnorm_wordpool_576.txt	LTP342	ltpFR2	13	7	PERFUME	1049	n/a	n/a	0	0	0
1313039	WORD	wordpools/wasnorm_wordpool_576.txt	LTP342	ltpFR2	13	7	SHORTS	1293	n/a	n/a	0	0	0
1315772	WORD	wordpools/wasnorm_wordpool_576.txt	LTP342	ltpFR2	13	7	BOARD	143	n/a	n/a	0	0	0
1318221	WORD	wordpools/wasnorm_wordpool_576.txt	LTP342	ltpFR2	13	7	LADY	794	n/a	n/a	0	0	0
1320753	WORD	wordpools/wasnorm_wordpool_576.txt	LTP342	ltpFR2	13	7	MARS	873	n/a	n/a	0	0	0
1323285	WORD	wordpools/wasnorm_wordpool_576.txt	LTP342	ltpFR2	13	7	CANDY	230	n/a	n/a	0	0	0
1324902	START	n/a	LTP342	ltpFR2	13	n/a	n/a	n/a	10	n/a	n/a	n/a	n/a
1325742	DISTRACTOR	n/a	LTP342	ltpFR2	13	7	n/a	n/a	n/a	n/a	0	0	0
1325751	PROB	n/a	LTP342	ltpFR2	13	n/a	n/a	n/a	10	6	1	3	2
1327267	PROB	n/a	LTP342	ltpFR2	13	n/a	n/a	n/a	10	19	7	7	5
1328733	PROB	n/a	LTP342	ltpFR2	13	n/a	n/a	n/a	10	14	2	9	3
1330082	PROB	n/a	LTP342	ltpFR2	13	n/a	n/a	n/a	10	8	4	2	2
1331182	PROB	n/a	LTP342	ltpFR2	13	n/a	n/a	n/a	10	10	3	1	6
1332365	PROB	n/a	LTP342	ltpFR2	13	n/a	n/a	n/a	10	19	8	8	3
1333847	PROB	n/a	LTP342	ltpFR2	13	n/a	n/a	n/a	10	9	5	1	3
1335480	PROB	n/a	LTP342	ltpFR2	13	n/a	n/a	n/a	10	21	5	9	7
1336829	PROB	n/a	LTP342	ltpFR2	13	n/a	n/a	n/a	10	10	3	5	2
1339511	PROB	n/a	LTP342	ltpFR2	13	n/a	n/a	n/a	10	10	4	1	5
1340694	PROB	n/a	LTP342	ltpFR2	13	n/a	n/a	n/a	10	16	4	8	4
1342210	PROB	n/a	LTP342	ltpFR2	13	n/a	n/a	n/a	10	16	7	3	6
1343493	PROB	n/a	LTP342	ltpFR2	13	n/a	n/a	n/a	10	16	3	6	7
1345259	PROB	n/a	LTP342	ltpFR2	13	n/a	n/a	n/a	10	16	9	5	2
1347108	PROB	n/a	LTP342	ltpFR2	13	n/a	n/a	n/a	10	19	8	8	3
1348460	STOP	n/a	LTP342	ltpFR2	13	n/a	n/a	n/a	10	n/a	n/a	n/a	n/a
1350840	REC_START	n/a	LTP342	ltpFR2	13	7	n/a	n/a	n/a	n/a	0	0	0
1353194	REC_WORD	wordpools/wasnorm_wordpool_576.txt	LTP342	ltpFR2	13	7	BOARD	143	n/a	n/a	0	0	0
1353777	REC_WORD	wordpools/wasnorm_wordpool_576.txt	LTP342	ltpFR2	13	7	SHORTS	1293	n/a	n/a	0	0	0
1354727	REC_WORD	wordpools/wasnorm_wordpool_576.txt	LTP342	ltpFR2	13	7	AIRPORT	13	n/a	n/a	0	0	0
1356247	REC_WORD	wordpools/wasnorm_wordpool_576.txt	LTP342	ltpFR2	13	7	EMPIRE	530	n/a	n/a	0	0	0
1357732	REC_WORD	wordpools/wasnorm_wordpool_576.txt	LTP342	ltpFR2	13	7	PLUTO	1092	n/a	n/a	0	0	0
1360394	REC_WORD	wordpools/wasnorm_wordpool_576.txt	LTP342	ltpFR2	13	7	MARS	873	n/a	n/a	0	0	0
1361326	REC_WORD	wordpools/wasnorm_wordpool_576.txt	LTP342	ltpFR2	13	7	LADY	794	n/a	n/a	0	0	0
1441265	DISTRACTOR	n/a	LTP342	ltpFR2	13	8	n/a	n/a	n/a	n/a	0	0	0
1441265	START	n/a	LTP342	ltpFR2	13	n/a	n/a	n/a	11	n/a	n/a	n/a	n/a
1441282	PROB	n/a	LTP342	ltpFR2	13	n/a	n/a	n/a	11	17	5	9	3
1442781	PROB	n/a	LTP342	ltpFR2	13	n/a	n/a	n/a	11	16	2	8	6
1444181	PROB	n/a	LTP342	ltpFR2	13	n/a	n/a	n/a	11	17	6	6	5
1445630	PROB	n/a	LTP342	ltpFR2	13	n/a	n/a	n/a	11	17	8	8	1
1448079	PROB	n/a	LTP342	ltpFR2	13	n/a	n/a	n/a	11	14	1	8	5
1449645	PROB	n/a	LTP342	ltpFR2	13	n/a	n/a	n/a	11	17	8	3	6
1452510	PROB	n/a	LTP342	ltpFR2	13	n/a	n/a	n/a	11	18	9	5	4
1455625	PROB	n/a	LTP342	ltpFR2	13	n/a	n/a	n/a	11	12	5	7	9
1457891	PROB	n/a	LTP342	ltpFR2	13	n/a	n/a	n/a	11	15	3	8	3
1460290	PROB	n/a	LTP342	ltpFR2	13	n/a	n/a	n/a	11	20	9	5	6
1462038	PROB	n/a	LTP342	ltpFR2	13	n/a	n/a	n/a	11	19	2	9	8
1465265	STOP	n/a	LTP342	ltpFR2	13	n/a	n/a	n/a	11	n/a	n/a	n/a	n/a
1466204	WORD	wordpools/wasnorm_wordpool_576.txt	LTP342	ltpFR2	13	8	TRIBE	1505	n/a	n/a	0	0	0
1468803	WORD	wordpools/wasnorm_wordpool_576.txt	LTP342	ltpFR2	13	8	TURTLE	1522	n/a	n/a	0	0	0
1471535	WORD	wordpools/wasnorm_wordpool_576.txt	LTP342	ltpFR2	13	8	ELBOW	520	n/a	n/a	0	0	0
1474033	WORD	wordpools/wasnorm_wordpool_576.txt	LTP342	ltpFR2	13	8	SHOULDER	1294	n/a	n/a	0	0	0
1476583	WORD	wordpools/wasnorm_wordpool_576.txt	LTP342	ltpFR2	13	8	LEG	809	n/a	n/a	0	0	0
1479215	WORD	wordpools/wasnorm_wordpool_576.txt	LTP342	ltpFR2	13	8	PEPPER	1047	n/a	n/a	0	0	0
1481947	WORD	wordpools/wasnorm_wordpool_576.txt	LTP342	ltpFR2	13	8	CLAMP	316	n/a	n/a	0	0	0
1484612	WORD	wordpools/wasnorm_wordpool_576.txt	LTP342	ltpFR2	13	8	WRENCH	1625	n/a	n/a	0	0	0
1487261	WORD	wordpools/wasnorm_wordpool_576.txt	LTP342	ltpFR2	13	8	CHEST	295	n/a	n/a	0	0	0
1489893	WORD	wordpools/wasnorm_wordpool_576.txt	LTP342	ltpFR2	13	8	SUBWAY	1400	n/a	n/a	0	0	0
1492359	WORD	wordpools/wasnorm_wordpool_576.txt	LTP342	ltpFR2	13	8	SHRUB	1299	n/a	n/a	0	0	0
1495040	WORD	wordpools/wasnorm_wordpool_576.txt	LTP342	ltpFR2	13	8	LODGE	839	n/a	n/a	0	0	0
1497523	WORD	wordpools/wasnorm_wordpool_576.txt	LTP342	ltpFR2	13	8	DRESSER	496	n/a	n/a	0	0	0
1500155	WORD	wordpools/wasnorm_wordpool_576.txt	LTP342	ltpFR2	13	8	FRAME	600	n/a	n/a	0	0	0
1502787	WORD	wordpools/wasnorm_wordpool_576.txt	LTP342	ltpFR2	13	8	SKETCH	1315	n/a	n/a	0	0	0
1505536	WORD	wordpools/wasnorm_wordpool_576.txt	LTP342	ltpFR2	13	8	PATROL	1027	n/a	n/a	0	0	0
1508352	WORD	wordpools/wasnorm_wordpool_576.txt	LTP342	ltpFR2	13	8	BRAKE	166	n/a	n/a	0	0	0
1511033	WORD	wordpools/wasnorm_wordpool_576.txt	LTP342	ltpFR2	13	8	DENTIST	447	n/a	n/a	0	0	0
1513599	WORD	wordpools/wasnorm_wordpool_576.txt	LTP342	ltpFR2	13	8	PLIERS	1089	n/a	n/a	0	0	0
1516115	WORD	wordpools/wasnorm_wordpool_576.txt	LTP342	ltpFR2	13	8	STAKE	1368	n/a	n/a	0	0	0
1518747	WORD	wordpools/wasnorm_wordpool_576.txt	LTP342	ltpFR2	13	8	TRANSPLANT	1496	n/a	n/a	0	0	0
1521213	WORD	wordpools/wasnorm_wordpool_576.txt	LTP342	ltpFR2	13	8	SHERIFF	1284	n/a	n/a	0	0	0
1523678	WORD	wordpools/wasnorm_wordpool_576.txt	LTP342	ltpFR2	13	8	TROUT	1511	n/a	n/a	0	0	0
1526343	WORD	wordpools/wasnorm_wordpool_576.txt	LTP342	ltpFR2	13	8	SHELTER	1282	n/a	n/a	0	0	0
1527960	START	n/a	LTP342	ltpFR2	13	n/a	n/a	n/a	12	n/a	n/a	n/a	n/a
1529156	DISTRACTOR	n/a	LTP342	ltpFR2	13	8	n/a	n/a	n/a	n/a	0	0	0
1529159	PROB	n/a	LTP342	ltpFR2	13	n/a	n/a	n/a	12	15	8	1	5
1531524	PROB	n/a	LTP342	ltpFR2	13	n/a	n/a	n/a	12	13	8	2	3
1533407	PROB	n/a	LTP342	ltpFR2	13	n/a	n/a	n/a	12	19	9	6	4
1535173	PROB	n/a	LTP342	ltpFR2	13	n/a	n/a	n/a	12	17	4	6	7
1536605	PROB	n/a	LTP342	ltpFR2	13	n/a	n/a	n/a	12	14	1	5	8
1538605	PROB	n/a	LTP342	ltpFR2	13	n/a	n/a	n/a	12	15	9	2	4
1539837	PROB	n/a	LTP342	ltpFR2	13	n/a	n/a	n/a	12	11	9	1	1
1540904	PROB	n/a	LTP342	ltpFR2	13	n/a	n/a	n/a	12	17	9	3	5
1542836	PROB	n/a	LTP342	ltpFR2	13	n/a	n/a	n/a	12	16	2	6	8
1544235	PROB	n/a	LTP342	ltpFR2	13	n/a	n/a	n/a	12	13	6	1	6
1545585	PROB	n/a	LTP342	ltpFR2	13	n/a	n/a	n/a	12	14	4	9	1
1546917	PROB	n/a	LTP342	ltpFR2	13	n/a	n/a	n/a	12	16	8	1	7
1548900	PROB	n/a	LTP342	ltpFR2	13	n/a	n/a	n/a	12	10	1	6	3
1550434	STOP	n/a	LTP342	ltpFR2	13	n/a	n/a	n/a	12	n/a	n/a	n/a	n/a
1553798	REC_START	n/a	LTP342	ltpFR2	13	8	n/a	n/a	n/a	n/a	0	0	0
1556204	REC_WORD	wordpools/wasnorm_wordpool_576.txt	LTP342	ltpFR2	13	8	TRIBE	1505	n/a	n/a	0	0	0
1557172	REC_WORD	wordpools/wasnorm_wordpool_576.txt	LTP342	ltpFR2	13	8	TURTLE	1522	n/a	n/a	0	0	0
1558275	REC_WORD	wordpools/wasnorm_wordpool_576.txt	LTP342	ltpFR2	13	8	LEG	809	n/a	n/a	0	0	0
1559000	REC_WORD	wordpools/wasnorm_wordpool_576.txt	LTP342	ltpFR2	13	8	SHOULDER	1294	n/a	n/a	0	0	0
1560162	REC_WORD	wordpools/wasnorm_wordpool_576.txt	LTP342	ltpFR2	13	8	ELBOW	520	n/a	n/a	0	0	0
1561233	REC_WORD	wordpools/wasnorm_wordpool_576.txt	LTP342	ltpFR2	13	8	PEPPER	1047	n/a	n/a	0	0	0
1565267	REC_WORD	wordpools/wasnorm_wordpool_576.txt	LTP342	ltpFR2	13	8	CLAMP	316	n/a	n/a	0	0	0
1566064	REC_WORD	wordpools/wasnorm_wordpool_576.txt	LTP342	ltpFR2	13	8	WRENCH	1625	n/a	n/a	0	0	0
1567040	REC_WORD	wordpools/wasnorm_wordpool_576.txt	LTP342	ltpFR2	13	8	CHEST	295	n/a	n/a	0	0	0
1567864	REC_WORD	wordpools/wasnorm_wordpool_576.txt	LTP342	ltpFR2	13	8	SUBWAY	1400	n/a	n/a	0	0	0
1569613	REC_WORD	wordpools/wasnorm_wordpool_576.txt	LTP342	ltpFR2	13	8	SHRUB	1299	n/a	n/a	0	0	0
1571421	REC_WORD	wordpools/wasnorm_wordpool_576.txt	LTP342	ltpFR2	13	8	LODGE	839	n/a	n/a	0	0	0
1583984	REC_WORD	wordpools/wasnorm_wordpool_576.txt	LTP342	ltpFR2	13	8	DRESSER	496	n/a	n/a	0	0	0
1585722	REC_WORD	wordpools/wasnorm_wordpool_576.txt	LTP342	ltpFR2	13	8	FRAME	600	n/a	n/a	0	0	0
1586510	REC_WORD	wordpools/wasnorm_wordpool_576.txt	LTP342	ltpFR2	13	8	SKETCH	1315	n/a	n/a	0	0	0
1591641	REC_WORD	wordpools/wasnorm_wordpool_576.txt	LTP342	ltpFR2	13	8	DENTIST	447	n/a	n/a	0	0	0
1592788	REC_WORD	wordpools/wasnorm_wordpool_576.txt	LTP342	ltpFR2	13	8	PATROL	1027	n/a	n/a	0	0	0
1594317	REC_WORD	wordpools/wasnorm_wordpool_576.txt	LTP342	ltpFR2	13	8	BRAKE	166	n/a	n/a	0	0	0
1599876	REC_WORD	wordpools/wasnorm_wordpool_576.txt	LTP342	ltpFR2	13	8	PLIERS	1089	n/a	n/a	0	0	0
1601789	REC_WORD	wordpools/wasnorm_wordpool_576.txt	LTP342	ltpFR2	13	8	STAKE	1368	n/a	n/a	0	0	0
1604196	REC_WORD	wordpools/wasnorm_wordpool_576.txt	LTP342	ltpFR2	13	8	TRANSPLANT	1496	n/a	n/a	0	0	0
1605168	REC_WORD	wordpools/wasnorm_wordpool_576.txt	LTP342	ltpFR2	13	8	SHERIFF	1284	n/a	n/a	0	0	0
1606233	REC_WORD	wordpools/wasnorm_wordpool_576.txt	LTP342	ltpFR2	13	8	SHELTER	1282	n/a	n/a	0	0	0
1621800	REC_WORD	wordpools/wasnorm_wordpool_576.txt	LTP342	ltpFR2	13	8	TROUT	1511	n/a	n/a	0	0	0
1630346	REST_REWET	n/a	LTP342	ltpFR2	13	8	n/a	n/a	n/a	n/a	0	0	0
1760354	WORD	wordpools/wasnorm_wordpool_576.txt	LTP342	ltpFR2	13	9	PADDLE	1000	n/a	n/a	0	0	0
1763086	WORD	wordpools/wasnorm_wordpool_576.txt	LTP342	ltpFR2	13	9	FARMER	553	n/a	n/a	0	0	0
1765818	WORD	wordpools/wasnorm_wordpool_576.txt	LTP342	ltpFR2	13	9	SEAGULL	1261	n/a	n/a	0	0	0
1768300	WORD	wordpools/wasnorm_wordpool_576.txt	LTP342	ltpFR2	13	9	CABIN	211	n/a	n/a	0	0	0
1770933	WORD	wordpools/wasnorm_wordpool_576.txt	LTP342	ltpFR2	13	9	CRATER	400	n/a	n/a	0	0	0
1773448	WORD	wordpools/wasnorm_wordpool_576.txt	LTP342	ltpFR2	13	9	STONE	1385	n/a	n/a	0	0	0
1776247	WORD	wordpools/wasnorm_wordpool_576.txt	LTP342	ltpFR2	13	9	APPLE	33	n/a	n/a	0	0	0
1778696	WORD	wordpools/wasnorm_wordpool_576.txt	LTP342	ltpFR2	13	9	SKILLET	1317	n/a	n/a	0	0	0
1781328	WORD	wordpools/wasnorm_wordpool_576.txt	LTP342	ltpFR2	13	9	EAGLE	512	n/a	n/a	0	0	0
1783960	WORD	wordpools/wasnorm_wordpool_576.txt	LTP342	ltpFR2	13	9	PLAYGROUND	1087	n/a	n/a	0	0	0
1786492	WORD	wordpools/wasnorm_wordpool_576.txt	LTP342	ltpFR2	13	9	SLIDE	1326	n/a	n/a	0	0	0
1789124	WORD	wordpools/wasnorm_wordpool_576.txt	LTP342	ltpFR2	13	9	OZONE	996	n/a	n/a	0	0	0
1791706	WORD	wordpools/wasnorm_wordpool_576.txt	LTP342	ltpFR2	13	9	CONTRACT	368	n/a	n/a	0	0	0
1794322	WORD	wordpools/wasnorm_wordpool_576.txt	LTP342	ltpFR2	13	9	PADDING	999	n/a	n/a	0	0	0
1797087	WORD	wordpools/wasnorm_wordpool_576.txt	LTP342	ltpFR2	13	9	BLUEPRINT	142	n/a	n/a	0	0	0
1799753	WORD	wordpools/wasnorm_wordpool_576.txt	LTP342	ltpFR2	13	9	TWIG	1527	n/a	n/a	0	0	0
1802202	WORD	wordpools/wasnorm_wordpool_576.txt	LTP342	ltpFR2	13	9	STICKER	1382	n/a	n/a	0	0	0
1804634	WORD	wordpools/wasnorm_wordpool_576.txt	LTP342	ltpFR2	13	9	SPOOL	1356	n/a	n/a	0	0	0
1807183	WORD	wordpools/wasnorm_wordpool_576.txt	LTP342	ltpFR2	13	9	OYSTER	995	n/a	n/a	0	0	0
1809832	WORD	wordpools/wasnorm_wordpool_576.txt	LTP342	ltpFR2	13	9	CRAB	397	n/a	n/a	0	0	0
1812580	WORD	wordpools/wasnorm_wordpool_576.txt	LTP342	ltpFR2	13	9	TEMPLE	1448	n/a	n/a	0	0	0
1815346	WORD	wordpools/wasnorm_wordpool_576.txt	LTP342	ltpFR2	13	9	SNAIL	1332	n/a	n/a	0	0	0
1818111	WORD	wordpools/wasnorm_wordpool_576.txt	LTP342	ltpFR2	13	9	FIREPLACE	570	n/a	n/a	0	0	0
1820677	WORD	wordpools/wasnorm_wordpool_576.txt	LTP342	ltpFR2	13	9	FIREMAN	569	n/a	n/a	0	0	0
1822293	START	n/a	LTP342	ltpFR2	13	n/a	n/a	n/a	13	n/a	n/a	n/a	n/a
1823203	DISTRACTOR	n/a	LTP342	ltpFR2	13	9	n/a	n/a	n/a	n/a	0	0	0
1823209	PROB	n/a	LTP342	ltpFR2	13	n/a	n/a	n/a	13	19	9	4	6
1825175	PROB	n/a	LTP342	ltpFR2	13	n/a	n/a	n/a	13	8	1	2	5
1827257	PROB	n/a	LTP342	ltpFR2	13	n/a	n/a	n/a	13	19	9	7	3
1828656	PROB	n/a	LTP342	ltpFR2	13	n/a	n/a	n/a	13	8	1	4	2
1830172	PROB	n/a	LTP342	ltpFR2	13	n/a	n/a	n/a	13	8	5	1	2
1832088	PROB	n/a	LTP342	ltpFR2	13	n/a	n/a	n/a	13	27	9	9	9
1834504	PROB	n/a	LTP342	ltpFR2	13	n/a	n/a	n/a	13	12	1	2	9
1835620	PROB	n/a	LTP342	ltpFR2	13	n/a	n/a	n/a	13	10	2	4	4
1837402	PROB	n/a	LTP342	ltpFR2	13	n/a	n/a	n/a	13	12	4	2	6
1838752	PROB	n/a	LTP342	ltpFR2	13	n/a	n/a	n/a	13	15	8	3	4
1840335	PROB	n/a	LTP342	ltpFR2	13	n/a	n/a	n/a	13	13	7	3	3
1841584	PROB	n/a	LTP342	ltpFR2	13	n/a	n/a	n/a	13	9	4	1	4
1842767	PROB	n/a	LTP342	ltpFR2	13	n/a	n/a	n/a	13	18	8	4	6
1846292	STOP	n/a	LTP342	ltpFR2	13	n/a	n/a	n/a	13	n/a	n/a	n/a	n/a
1848065	REC_START	n/a	LTP342	ltpFR2	13	9	n/a	n/a	n/a	n/a	0	0	0
1849706	REC_WORD	wordpools/wasnorm_wordpool_576.txt	LTP342	ltpFR2	13	9	FIREMAN	569	n/a	n/a	0	0	0
1850452	REC_WORD	wordpools/wasnorm_wordpool_576.txt	LTP342	ltpFR2	13	9	FIREPLACE	570	n/a	n/a	0	0	0
1851577	REC_WORD	wordpools/wasnorm_wordpool_576.txt	LTP342	ltpFR2	13	9	CABIN	211	n/a	n/a	0	0	0
1852275	REC_WORD	wordpools/wasnorm_wordpool_576.txt	LTP342	ltpFR2	13	9	CRATER	400	n/a	n/a	0	0	0
1852999	REC_WORD	wordpools/wasnorm_wordpool_576.txt	LTP342	ltpFR2	13	9	PADDLE	1000	n/a	n/a	0	0	0
1863830	REC_WORD	wordpools/wasnorm_wordpool_576.txt	LTP342	ltpFR2	13	9	STONE	1385	n/a	n/a	0	0	0
1867936	REC_WORD	wordpools/wasnorm_wordpool_576.txt	LTP342	ltpFR2	13	9	OZONE	996	n/a	n/a	0	0	0
1868735	REC_WORD_VV	wordpools/wasnorm_wordpool_576.txt	LTP342	ltpFR2	13	9	<>	-1	n/a	n/a	0	0	0
1869582	REC_WORD	wordpools/wasnorm_wordpool_576.txt	LTP342	ltpFR2	13	9	PLAYGROUND	1087	n/a	n/a	0	0	0
1870392	REC_WORD	wordpools/wasnorm_wordpool_576.txt	LTP342	ltpFR2	13	9	SLIDE	1326	n/a	n/a	0	0	0
1938507	WORD	wordpools/wasnorm_wordpool_576.txt	LTP342	ltpFR2	13	10	MOTOR	922	n/a	n/a	0	0	0
1941189	WORD	wordpools/wasnorm_wordpool_576.txt	LTP342	ltpFR2	13	10	DASHBOARD	441	n/a	n/a	0	0	0
1944003	WORD	wordpools/wasnorm_wordpool_576.txt	LTP342	ltpFR2	13	10	BUREAU	199	n/a	n/a	0	0	0
1946486	WORD	wordpools/wasnorm_wordpool_576.txt	LTP342	ltpFR2	13	10	CURTAIN	427	n/a	n/a	0	0	0
1948952	WORD	wordpools/wasnorm_wordpool_576.txt	LTP342	ltpFR2	13	10	NOTEBOOK	959	n/a	n/a	0	0	0
1951634	WORD	wordpools/wasnorm_wordpool_576.txt	LTP342	ltpFR2	13	10	BROTHER	179	n/a	n/a	0	0	0
1954399	WORD	wordpools/wasnorm_wordpool_576.txt	LTP342	ltpFR2	13	10	WINDOW	1611	n/a	n/a	0	0	0
1957165	WORD	wordpools/wasnorm_wordpool_576.txt	LTP342	ltpFR2	13	10	WAGON	1578	n/a	n/a	0	0	0
1959930	WORD	wordpools/wasnorm_wordpool_576.txt	LTP342	ltpFR2	13	10	LEADER	807	n/a	n/a	0	0	0
1962479	WORD	wordpools/wasnorm_wordpool_576.txt	LTP342	ltpFR2	13	10	ROOSTER	1209	n/a	n/a	0	0	0
1964961	WORD	wordpools/wasnorm_wordpool_576.txt	LTP342	ltpFR2	13	10	TURKEY	1520	n/a	n/a	0	0	0
1967527	WORD	wordpools/wasnorm_wordpool_576.txt	LTP342	ltpFR2	13	10	GARDEN	623	n/a	n/a	0	0	0
1970276	WORD	wordpools/wasnorm_wordpool_576.txt	LTP342	ltpFR2	13	10	APRON	35	n/a	n/a	0	0	0
1973091	WORD	wordpools/wasnorm_wordpool_576.txt	LTP342	ltpFR2	13	10	VALLEY	1545	n/a	n/a	0	0	0
1975740	WORD	wordpools/wasnorm_wordpool_576.txt	LTP342	ltpFR2	13	10	RIVER	1194	n/a	n/a	0	0	0
1978372	WORD	wordpools/wasnorm_wordpool_576.txt	LTP342	ltpFR2	13	10	PIANO	1057	n/a	n/a	0	0	0
1980837	WORD	wordpools/wasnorm_wordpool_576.txt	LTP342	ltpFR2	13	10	LASER	801	n/a	n/a	0	0	0
1983486	WORD	wordpools/wasnorm_wordpool_576.txt	LTP342	ltpFR2	13	10	AIRPLANE	12	n/a	n/a	0	0	0
1986185	WORD	wordpools/wasnorm_wordpool_576.txt	LTP342	ltpFR2	13	10	GRAVE	658	n/a	n/a	0	0	0
1988917	WORD	wordpools/wasnorm_wordpool_576.txt	LTP342	ltpFR2	13	10	SERVANT	1271	n/a	n/a	0	0	0
1991633	WORD	wordpools/wasnorm_wordpool_576.txt	LTP342	ltpFR2	13	10	MESSAGE	888	n/a	n/a	0	0	0
1994131	WORD	wordpools/wasnorm_wordpool_576.txt	LTP342	ltpFR2	13	10	IGLOO	734	n/a	n/a	0	0	0
1996647	WORD	wordpools/wasnorm_wordpool_576.txt	LTP342	ltpFR2	13	10	YACHT	1629	n/a	n/a	0	0	0
1999429	WORD	wordpools/wasnorm_wordpool_576.txt	LTP342	ltpFR2	13	10	COWBOY	395	n/a	n/a	0	0	0
2001044	START	n/a	LTP342	ltpFR2	13	n/a	n/a	n/a	14	n/a	n/a	n/a	n/a
2002135	DISTRACTOR	n/a	LTP342	ltpFR2	13	10	n/a	n/a	n/a	n/a	0	0	0
2002144	PROB	n/a	LTP342	ltpFR2	13	n/a	n/a	n/a	14	14	6	4	4
2003777	PROB	n/a	LTP342	ltpFR2	13	n/a	n/a	n/a	14	9	1	1	7
2005042	PROB	n/a	LTP342	ltpFR2	13	n/a	n/a	n/a	14	10	2	2	6
2006126	PROB	n/a	LTP342	ltpFR2	13	n/a	n/a	n/a	14	12	2	7	3
2007625	PROB	n/a	LTP342	ltpFR2	13	n/a	n/a	n/a	14	17	7	5	5
2009974	PROB	n/a	LTP342	ltpFR2	13	n/a	n/a	n/a	14	17	7	8	2
2011690	PROB	n/a	LTP342	ltpFR2	13	n/a	n/a	n/a	14	12	4	7	1
2013256	PROB	n/a	LTP342	ltpFR2	13	n/a	n/a	n/a	14	14	7	6	1
2016538	PROB	n/a	LTP342	ltpFR2	13	n/a	n/a	n/a	14	9	1	2	6
2017654	PROB	n/a	LTP342	ltpFR2	13	n/a	n/a	n/a	14	6	1	2	3
2018704	PROB	n/a	LTP342	ltpFR2	13	n/a	n/a	n/a	14	17	8	9	1
2020286	PROB	n/a	LTP342	ltpFR2	13	n/a	n/a	n/a	14	9	2	4	3
2021802	PROB	n/a	LTP342	ltpFR2	13	n/a	n/a	n/a	14	10	2	2	6
2025044	STOP	n/a	LTP342	ltpFR2	13	n/a	n/a	n/a	14	n/a	n/a	n/a	n/a
2026967	REC_START	n/a	LTP342	ltpFR2	13	10	n/a	n/a	n/a	n/a	0	0	0
2028691	REC_WORD	wordpools/wasnorm_wordpool_576.txt	LTP342	ltpFR2	13	10	LASER	801	n/a	n/a	0	0	0
2029561	REC_WORD	wordpools/wasnorm_wordpool_576.txt	LTP342	ltpFR2	13	10	AIRPLANE	12	n/a	n/a	0	0	0
2030361	REC_WORD	wordpools/wasnorm_wordpool_576.txt	LTP342	ltpFR2	13	10	MESSAGE	888	n/a	n/a	0	0	0
2031110	REC_WORD	wordpools/wasnorm_wordpool_576.txt	LTP342	ltpFR2	13	10	SERVANT	1271	n/a	n/a	0	0	0
2031948	REC_WORD	wordpools/wasnorm_wordpool_576.txt	LTP342	ltpFR2	13	10	IGLOO	734	n/a	n/a	0	0	0
2032871	REC_WORD	wordpools/wasnorm_wordpool_576.txt	LTP342	ltpFR2	13	10	COWBOY	395	n/a	n/a	0	0	0
2039500	REC_WORD	wordpools/wasnorm_wordpool_576.txt	LTP342	ltpFR2	13	10	DASHBOARD	441	n/a	n/a	0	0	0
2040356	REC_WORD	wordpools/wasnorm_wordpool_576.txt	LTP342	ltpFR2	13	10	BROTHER	179	n/a	n/a	0	0	0
2041592	REC_WORD	wordpools/wasnorm_wordpool_576.txt	LTP342	ltpFR2	13	10	MOTOR	922	n/a	n/a	0	0	0
2042549	REC_WORD	wordpools/wasnorm_wordpool_576.txt	LTP342	ltpFR2	13	10	WAGON	1578	n/a	n/a	0	0	0
2044480	REC_WORD	wordpools/wasnorm_wordpool_576.txt	LTP342	ltpFR2	13	10	NOTEBOOK	959	n/a	n/a	0	0	0
2045391	REC_WORD	wordpools/wasnorm_wordpool_576.txt	LTP342	ltpFR2	13	10	CURTAIN	427	n/a	n/a	0	0	0
2047051	REC_WORD	wordpools/wasnorm_wordpool_576.txt	LTP342	ltpFR2	13	10	WINDOW	1611	n/a	n/a	0	0	0
2047914	REC_WORD	wordpools/wasnorm_wordpool_576.txt	LTP342	ltpFR2	13	10	ROOSTER	1209	n/a	n/a	0	0	0
2048677	REC_WORD	wordpools/wasnorm_wordpool_576.txt	LTP342	ltpFR2	13	10	TURKEY	1520	n/a	n/a	0	0	0
2049420	REC_WORD	wordpools/wasnorm_wordpool_576.txt	LTP342	ltpFR2	13	10	LEADER	807	n/a	n/a	0	0	0
2117409	WORD	wordpools/wasnorm_wordpool_576.txt	LTP342	ltpFR2	13	11	POPCORN	1104	n/a	n/a	0	0	0
2120174	WORD	wordpools/wasnorm_wordpool_576.txt	LTP342	ltpFR2	13	11	DENIM	446	n/a	n/a	0	0	0
2122940	WORD	wordpools/wasnorm_wordpool_576.txt	LTP342	ltpFR2	13	11	LONDON	843	n/a	n/a	0	0	0
2125605	WORD	wordpools/wasnorm_wordpool_576.txt	LTP342	ltpFR2	13	11	SLIME	1327	n/a	n/a	0	0	0
2128337	WORD	wordpools/wasnorm_wordpool_576.txt	LTP342	ltpFR2	13	11	PARENT	1013	n/a	n/a	0	0	0
2131119	WORD	wordpools/wasnorm_wordpool_576.txt	LTP342	ltpFR2	13	11	LAVA	804	n/a	n/a	0	0	0
2133602	WORD	wordpools/wasnorm_wordpool_576.txt	LTP342	ltpFR2	13	11	MARROW	872	n/a	n/a	0	0	0
2136117	WORD	wordpools/wasnorm_wordpool_576.txt	LTP342	ltpFR2	13	11	MEAT	883	n/a	n/a	0	0	0
2138649	WORD	wordpools/wasnorm_wordpool_576.txt	LTP342	ltpFR2	13	11	GROUND	666	n/a	n/a	0	0	0
2141215	WORD	wordpools/wasnorm_wordpool_576.txt	LTP342	ltpFR2	13	11	RAFT	1159	n/a	n/a	0	0	0
2143880	WORD	wordpools/wasnorm_wordpool_576.txt	LTP342	ltpFR2	13	11	SWAMP	1416	n/a	n/a	0	0	0
2146346	WORD	wordpools/wasnorm_wordpool_576.txt	LTP342	ltpFR2	13	11	BEAST	108	n/a	n/a	0	0	0
2148795	WORD	wordpools/wasnorm_wordpool_576.txt	LTP342	ltpFR2	13	11	WIFE	1609	n/a	n/a	0	0	0
2151493	WORD	wordpools/wasnorm_wordpool_576.txt	LTP342	ltpFR2	13	11	STOVE	1388	n/a	n/a	0	0	0
2154276	WORD	wordpools/wasnorm_wordpool_576.txt	LTP342	ltpFR2	13	11	KITCHEN	778	n/a	n/a	0	0	0
2156891	WORD	wordpools/wasnorm_wordpool_576.txt	LTP342	ltpFR2	13	11	PISTOL	1075	n/a	n/a	0	0	0
2159556	WORD	wordpools/wasnorm_wordpool_576.txt	LTP342	ltpFR2	13	11	THRONE	1461	n/a	n/a	0	0	0
2162139	WORD	wordpools/wasnorm_wordpool_576.txt	LTP342	ltpFR2	13	11	JEANS	752	n/a	n/a	0	0	0
2164787	WORD	wordpools/wasnorm_wordpool_576.txt	LTP342	ltpFR2	13	11	WARDROBE	1587	n/a	n/a	0	0	0
2167403	WORD	wordpools/wasnorm_wordpool_576.txt	LTP342	ltpFR2	13	11	COSTUME	383	n/a	n/a	0	0	0
2170001	WORD	wordpools/wasnorm_wordpool_576.txt	LTP342	ltpFR2	13	11	LILY	821	n/a	n/a	0	0	0
2172650	WORD	wordpools/wasnorm_wordpool_576.txt	LTP342	ltpFR2	13	11	LABEL	790	n/a	n/a	0	0	0
2175399	WORD	wordpools/wasnorm_wordpool_576.txt	LTP342	ltpFR2	13	11	HAND	683	n/a	n/a	0	0	0
2178165	WORD	wordpools/wasnorm_wordpool_576.txt	LTP342	ltpFR2	13	11	DAUGHTER	442	n/a	n/a	0	0	0
2179781	START	n/a	LTP342	ltpFR2	13	n/a	n/a	n/a	15	n/a	n/a	n/a	n/a
2180774	DISTRACTOR	n/a	LTP342	ltpFR2	13	11	n/a	n/a	n/a	n/a	0	0	0
2180780	PROB	n/a	LTP342	ltpFR2	13	n/a	n/a	n/a	15	10	4	2	4
2182529	PROB	n/a	LTP342	ltpFR2	13	n/a	n/a	n/a	15	10	6	2	2
2183862	PROB	n/a	LTP342	ltpFR2	13	n/a	n/a	n/a	15	25	7	9	9
2185778	PROB	n/a	LTP342	ltpFR2	13	n/a	n/a	n/a	15	17	1	7	9
2187111	PROB	n/a	LTP342	ltpFR2	13	n/a	n/a	n/a	15	13	3	8	2
2190126	PROB	n/a	LTP342	ltpFR2	13	n/a	n/a	n/a	15	15	7	2	6
2191575	PROB	n/a	LTP342	ltpFR2	13	n/a	n/a	n/a	15	5	1	1	3
2192525	PROB	n/a	LTP342	ltpFR2	13	n/a	n/a	n/a	15	19	7	5	7
2194257	PROB	n/a	LTP342	ltpFR2	13	n/a	n/a	n/a	15	7	3	3	1
2195523	PROB	n/a	LTP342	ltpFR2	13	n/a	n/a	n/a	15	12	2	4	6
2196856	PROB	n/a	LTP342	ltpFR2	13	n/a	n/a	n/a	15	17	7	6	4
2198405	PROB	n/a	LTP342	ltpFR2	13	n/a	n/a	n/a	15	15	8	6	1
2200688	PROB	n/a	LTP342	ltpFR2	13	n/a	n/a	n/a	15	20	9	7	4
2202254	PROB	n/a	LTP342	ltpFR2	13	n/a	n/a	n/a	15	5	2	2	1
2203095	STOP	n/a	LTP342	ltpFR2	13	n/a	n/a	n/a	15	n/a	n/a	n/a	n/a
2205669	REC_START	n/a	LTP342	ltpFR2	13	11	n/a	n/a	n/a	n/a	0	0	0
2207563	REC_WORD	wordpools/wasnorm_wordpool_576.txt	LTP342	ltpFR2	13	11	JEANS	752	n/a	n/a	0	0	0
2208669	REC_WORD	wordpools/wasnorm_wordpool_576.txt	LTP342	ltpFR2	13	11	DENIM	446	n/a	n/a	0	0	0
2209467	REC_WORD	wordpools/wasnorm_wordpool_576.txt	LTP342	ltpFR2	13	11	WARDROBE	1587	n/a	n/a	0	0	0
2210598	REC_WORD	wordpools/wasnorm_wordpool_576.txt	LTP342	ltpFR2	13	11	COSTUME	383	n/a	n/a	0	0	0
2214422	REC_WORD	wordpools/wasnorm_wordpool_576.txt	LTP342	ltpFR2	13	11	DAUGHTER	442	n/a	n/a	0	0	0
2215506	REC_WORD	wordpools/wasnorm_wordpool_576.txt	LTP342	ltpFR2	13	11	LILY	821	n/a	n/a	0	0	0
2224058	REC_WORD	wordpools/wasnorm_wordpool_576.txt	LTP342	ltpFR2	13	11	BEAST	108	n/a	n/a	0	0	0
2251320	REC_WORD	wordpools/wasnorm_wordpool_576.txt	LTP342	ltpFR2	13	11	LAVA	804	n/a	n/a	0	0	0
2253018	REC_WORD	wordpools/wasnorm_wordpool_576.txt	LTP342	ltpFR2	13	11	PARENT	1013	n/a	n/a	0	0	0
2253903	REC_WORD	wordpools/wasnorm_wordpool_576.txt	LTP342	ltpFR2	13	11	LONDON	843	n/a	n/a	0	0	0
2296111	WORD	wordpools/wasnorm_wordpool_576.txt	LTP342	ltpFR2	13	12	FREEZER	604	n/a	n/a	0	0	0
2298843	WORD	wordpools/wasnorm_wordpool_576.txt	LTP342	ltpFR2	13	12	NECKLACE	940	n/a	n/a	0	0	0
2301625	WORD	wordpools/wasnorm_wordpool_576.txt	LTP342	ltpFR2	13	12	GIRL	637	n/a	n/a	0	0	0
2304424	WORD	wordpools/wasnorm_wordpool_576.txt	LTP342	ltpFR2	13	12	CHAPEL	280	n/a	n/a	0	0	0
2306923	WORD	wordpools/wasnorm_wordpool_576.txt	LTP342	ltpFR2	13	12	DIVER	476	n/a	n/a	0	0	0
2309389	WORD	wordpools/wasnorm_wordpool_576.txt	LTP342	ltpFR2	13	12	SWIMMER	1420	n/a	n/a	0	0	0
2311937	WORD	wordpools/wasnorm_wordpool_576.txt	LTP342	ltpFR2	13	12	PISTON	1076	n/a	n/a	0	0	0
2314453	WORD	wordpools/wasnorm_wordpool_576.txt	LTP342	ltpFR2	13	12	PEBBLE	1035	n/a	n/a	0	0	0
2317001	WORD	wordpools/wasnorm_wordpool_576.txt	LTP342	ltpFR2	13	12	STATUE	1374	n/a	n/a	0	0	0
2319584	WORD	wordpools/wasnorm_wordpool_576.txt	LTP342	ltpFR2	13	12	BANKER	84	n/a	n/a	0	0	0
2322099	WORD	wordpools/wasnorm_wordpool_576.txt	LTP342	ltpFR2	13	12	SCARF	1246	n/a	n/a	0	0	0
2324615	WORD	wordpools/wasnorm_wordpool_576.txt	LTP342	ltpFR2	13	12	PRIMATE	1123	n/a	n/a	0	0	0
2327247	WORD	wordpools/wasnorm_wordpool_576.txt	LTP342	ltpFR2	13	12	DUST	508	n/a	n/a	0	0	0
2329779	WORD	wordpools/wasnorm_wordpool_576.txt	LTP342	ltpFR2	13	12	SCRIBBLE	1256	n/a	n/a	0	0	0
2332578	WORD	wordpools/wasnorm_wordpool_576.txt	LTP342	ltpFR2	13	12	SAUSAGE	1238	n/a	n/a	0	0	0
2335009	WORD	wordpools/wasnorm_wordpool_576.txt	LTP342	ltpFR2	13	12	GLOBE	641	n/a	n/a	0	0	0
2337609	WORD	wordpools/wasnorm_wordpool_576.txt	LTP342	ltpFR2	13	12	CITRUS	313	n/a	n/a	0	0	0
2340275	WORD	wordpools/wasnorm_wordpool_576.txt	LTP342	ltpFR2	13	12	SHORTCAKE	1292	n/a	n/a	0	0	0
2342823	WORD	wordpools/wasnorm_wordpool_576.txt	LTP342	ltpFR2	13	12	TRENCH	1503	n/a	n/a	0	0	0
2345556	WORD	wordpools/wasnorm_wordpool_576.txt	LTP342	ltpFR2	13	12	MONEY	908	n/a	n/a	0	0	0
2348238	WORD	wordpools/wasnorm_wordpool_576.txt	LTP342	ltpFR2	13	12	UNCLE	1536	n/a	n/a	0	0	0
2351052	WORD	wordpools/wasnorm_wordpool_576.txt	LTP342	ltpFR2	13	12	FLOWER	584	n/a	n/a	0	0	0
2353619	WORD	wordpools/wasnorm_wordpool_576.txt	LTP342	ltpFR2	13	12	VAGRANT	1544	n/a	n/a	0	0	0
2356167	WORD	wordpools/wasnorm_wordpool_576.txt	LTP342	ltpFR2	13	12	SHELF	1280	n/a	n/a	0	0	0
2357783	START	n/a	LTP342	ltpFR2	13	n/a	n/a	n/a	16	n/a	n/a	n/a	n/a
2358735	DISTRACTOR	n/a	LTP342	ltpFR2	13	12	n/a	n/a	n/a	n/a	0	0	0
2358749	PROB	n/a	LTP342	ltpFR2	13	n/a	n/a	n/a	16	19	6	6	7
2361565	PROB	n/a	LTP342	ltpFR2	13	n/a	n/a	n/a	16	16	7	1	8
2363131	PROB	n/a	LTP342	ltpFR2	13	n/a	n/a	n/a	16	9	7	1	1
2364180	PROB	n/a	LTP342	ltpFR2	13	n/a	n/a	n/a	16	15	5	9	1
2365596	PROB	n/a	LTP342	ltpFR2	13	n/a	n/a	n/a	16	14	6	4	4
2367079	PROB	n/a	LTP342	ltpFR2	13	n/a	n/a	n/a	16	17	7	6	4
2369945	PROB	n/a	LTP342	ltpFR2	13	n/a	n/a	n/a	16	21	9	9	3
2371644	PROB	n/a	LTP342	ltpFR2	13	n/a	n/a	n/a	16	15	2	6	8
2373160	PROB	n/a	LTP342	ltpFR2	13	n/a	n/a	n/a	16	11	8	1	2
2375209	PROB	n/a	LTP342	ltpFR2	13	n/a	n/a	n/a	16	13	2	7	4
2376858	PROB	n/a	LTP342	ltpFR2	13	n/a	n/a	n/a	16	5	3	1	1
2377841	PROB	n/a	LTP342	ltpFR2	13	n/a	n/a	n/a	16	6	1	2	3
2378807	PROB	n/a	LTP342	ltpFR2	13	n/a	n/a	n/a	16	23	9	5	9
2381508	STOP	n/a	LTP342	ltpFR2	13	n/a	n/a	n/a	16	n/a	n/a	n/a	n/a
2383605	REC_START	n/a	LTP342	ltpFR2	13	12	n/a	n/a	n/a	n/a	0	0	0
2385949	REC_WORD	wordpools/wasnorm_wordpool_576.txt	LTP342	ltpFR2	13	12	CHAPEL	280	n/a	n/a	0	0	0
2386813	REC_WORD	wordpools/wasnorm_wordpool_576.txt	LTP342	ltpFR2	13	12	SWIMMER	1420	n/a	n/a	0	0	0
2387989	REC_WORD	wordpools/wasnorm_wordpool_576.txt	LTP342	ltpFR2	13	12	DIVER	476	n/a	n/a	0	0	0
2388932	REC_WORD	wordpools/wasnorm_wordpool_576.txt	LTP342	ltpFR2	13	12	NECKLACE	940	n/a	n/a	0	0	0
2389773	REC_WORD	wordpools/wasnorm_wordpool_576.txt	LTP342	ltpFR2	13	12	FREEZER	604	n/a	n/a	0	0	0
2390894	REC_WORD	wordpools/wasnorm_wordpool_576.txt	LTP342	ltpFR2	13	12	GIRL	637	n/a	n/a	0	0	0
2474046	DISTRACTOR	n/a	LTP342	ltpFR2	13	13	n/a	n/a	n/a	n/a	0	0	0
2474046	START	n/a	LTP342	ltpFR2	13	n/a	n/a	n/a	17	n/a	n/a	n/a	n/a
2474064	PROB	n/a	LTP342	ltpFR2	13	n/a	n/a	n/a	17	2	8	7	6
2476613	PROB	n/a	LTP342	ltpFR2	13	n/a	n/a	n/a	17	18	5	7	6
2479295	PROB	n/a	LTP342	ltpFR2	13	n/a	n/a	n/a	17	16	6	4	6
2480811	PROB	n/a	LTP342	ltpFR2	13	n/a	n/a	n/a	17	12	3	2	7
2482277	PROB	n/a	LTP342	ltpFR2	13	n/a	n/a	n/a	17	18	5	4	9
2483693	PROB	n/a	LTP342	ltpFR2	13	n/a	n/a	n/a	17	10	2	1	7
2485809	PROB	n/a	LTP342	ltpFR2	13	n/a	n/a	n/a	17	13	4	4	5
2487691	PROB	n/a	LTP342	ltpFR2	13	n/a	n/a	n/a	17	15	4	2	9
2489057	PROB	n/a	LTP342	ltpFR2	13	n/a	n/a	n/a	17	17	1	8	8
2491256	PROB	n/a	LTP342	ltpFR2	13	n/a	n/a	n/a	17	7	1	1	5
2492672	PROB	n/a	LTP342	ltpFR2	13	n/a	n/a	n/a	17	12	3	5	4
2498046	STOP	n/a	LTP342	ltpFR2	13	n/a	n/a	n/a	17	n/a	n/a	n/a	n/a
2499252	WORD	wordpools/wasnorm_wordpool_576.txt	LTP342	ltpFR2	13	13	INMATE	738	n/a	n/a	0	0	0
2501818	WORD	wordpools/wasnorm_wordpool_576.txt	LTP342	ltpFR2	13	13	SUSPECT	1415	n/a	n/a	0	0	0
2504300	WORD	wordpools/wasnorm_wordpool_576.txt	LTP342	ltpFR2	13	13	PUDDLE	1140	n/a	n/a	0	0	0
2507066	WORD	wordpools/wasnorm_wordpool_576.txt	LTP342	ltpFR2	13	13	PERMIT	1051	n/a	n/a	0	0	0
2509848	WORD	wordpools/wasnorm_wordpool_576.txt	LTP342	ltpFR2	13	13	EYELASH	546	n/a	n/a	0	0	0
2512280	WORD	wordpools/wasnorm_wordpool_576.txt	LTP342	ltpFR2	13	13	SCARECROW	1245	n/a	n/a	0	0	0
2514895	WORD	wordpools/wasnorm_wordpool_576.txt	LTP342	ltpFR2	13	13	DANDRUFF	439	n/a	n/a	0	0	0
2517461	WORD	wordpools/wasnorm_wordpool_576.txt	LTP342	ltpFR2	13	13	HUMAN	726	n/a	n/a	0	0	0
2520060	WORD	wordpools/wasnorm_wordpool_576.txt	LTP342	ltpFR2	13	13	SODA	1341	n/a	n/a	0	0	0
2522492	WORD	wordpools/wasnorm_wordpool_576.txt	LTP342	ltpFR2	13	13	LADDER	793	n/a	n/a	0	0	0
2524974	WORD	wordpools/wasnorm_wordpool_576.txt	LTP342	ltpFR2	13	13	CLAM	315	n/a	n/a	0	0	0
2527706	WORD	wordpools/wasnorm_wordpool_576.txt	LTP342	ltpFR2	13	13	FRECKLE	602	n/a	n/a	0	0	0
2530155	WORD	wordpools/wasnorm_wordpool_576.txt	LTP342	ltpFR2	13	13	TUTU	1524	n/a	n/a	0	0	0
2532821	WORD	wordpools/wasnorm_wordpool_576.txt	LTP342	ltpFR2	13	13	PREACHER	1119	n/a	n/a	0	0	0
2535436	WORD	wordpools/wasnorm_wordpool_576.txt	LTP342	ltpFR2	13	13	MARSH	874	n/a	n/a	0	0	0
2538185	WORD	wordpools/wasnorm_wordpool_576.txt	LTP342	ltpFR2	13	13	PARSLEY	1016	n/a	n/a	0	0	0
2540767	WORD	wordpools/wasnorm_wordpool_576.txt	LTP342	ltpFR2	13	13	CROSS	413	n/a	n/a	0	0	0
2543499	WORD	wordpools/wasnorm_wordpool_576.txt	LTP342	ltpFR2	13	13	CLOCK	325	n/a	n/a	0	0	0
2546081	WORD	wordpools/wasnorm_wordpool_576.txt	LTP342	ltpFR2	13	13	DOUGHNUT	490	n/a	n/a	0	0	0
2548513	WORD	wordpools/wasnorm_wordpool_576.txt	LTP342	ltpFR2	13	13	HERO	706	n/a	n/a	0	0	0
2551146	WORD	wordpools/wasnorm_wordpool_576.txt	LTP342	ltpFR2	13	13	IDOL	733	n/a	n/a	0	0	0
2553694	WORD	wordpools/wasnorm_wordpool_576.txt	LTP342	ltpFR2	13	13	BIKE	125	n/a	n/a	0	0	0
2556143	WORD	wordpools/wasnorm_wordpool_576.txt	LTP342	ltpFR2	13	13	QUARTER	1148	n/a	n/a	0	0	0
2558759	WORD	wordpools/wasnorm_wordpool_576.txt	LTP342	ltpFR2	13	13	CASKET	255	n/a	n/a	0	0	0
2560375	START	n/a	LTP342	ltpFR2	13	n/a	n/a	n/a	18	n/a	n/a	n/a	n/a
2561534	DISTRACTOR	n/a	LTP342	ltpFR2	13	13	n/a	n/a	n/a	n/a	0	0	0
2561541	PROB	n/a	LTP342	ltpFR2	13	n/a	n/a	n/a	18	20	6	5	9
2563290	PROB	n/a	LTP342	ltpFR2	13	n/a	n/a	n/a	18	23	6	9	8
2565156	PROB	n/a	LTP342	ltpFR2	13	n/a	n/a	n/a	18	21	6	6	9
2566639	PROB	n/a	LTP342	ltpFR2	13	n/a	n/a	n/a	18	12	5	6	1
2568938	PROB	n/a	LTP342	ltpFR2	13	n/a	n/a	n/a	18	15	8	6	2
2570404	PROB	n/a	LTP342	ltpFR2	13	n/a	n/a	n/a	18	13	4	3	6
2572153	PROB	n/a	LTP342	ltpFR2	13	n/a	n/a	n/a	18	16	8	6	2
2574302	PROB	n/a	LTP342	ltpFR2	13	n/a	n/a	n/a	18	20	6	8	5
2576684	PROB	n/a	LTP342	ltpFR2	13	n/a	n/a	n/a	18	12	4	7	1
2579766	PROB	n/a	LTP342	ltpFR2	13	n/a	n/a	n/a	18	16	2	5	9
2584371	STOP	n/a	LTP342	ltpFR2	13	n/a	n/a	n/a	18	n/a	n/a	n/a	n/a
2586247	REC_START	n/a	LTP342	ltpFR2	13	13	n/a	n/a	n/a	n/a	0	0	0
2587810	REC_WORD	wordpools/wasnorm_wordpool_576.txt	LTP342	ltpFR2	13	13	PREACHER	1119	n/a	n/a	0	0	0
2589443	REC_WORD	wordpools/wasnorm_wordpool_576.txt	LTP342	ltpFR2	13	13	MARSH	874	n/a	n/a	0	0	0
2590392	REC_WORD	wordpools/wasnorm_wordpool_576.txt	LTP342	ltpFR2	13	13	PARSLEY	1016	n/a	n/a	0	0	0
2592041	REC_WORD	wordpools/wasnorm_wordpool_576.txt	LTP342	ltpFR2	13	13	CROSS	413	n/a	n/a	0	0	0
2592959	REC_WORD	wordpools/wasnorm_wordpool_576.txt	LTP342	ltpFR2	13	13	CLOCK	325	n/a	n/a	0	0	0
2593674	REC_WORD	wordpools/wasnorm_wordpool_576.txt	LTP342	ltpFR2	13	13	HERO	706	n/a	n/a	0	0	0
2594586	REC_WORD	wordpools/wasnorm_wordpool_576.txt	LTP342	ltpFR2	13	13	IDOL	733	n/a	n/a	0	0	0
2595381	REC_WORD	wordpools/wasnorm_wordpool_576.txt	LTP342	ltpFR2	13	13	BIKE	125	n/a	n/a	0	0	0
2596160	REC_WORD	wordpools/wasnorm_wordpool_576.txt	LTP342	ltpFR2	13	13	QUARTER	1148	n/a	n/a	0	0	0
2597096	REC_WORD	wordpools/wasnorm_wordpool_576.txt	LTP342	ltpFR2	13	13	BASKET	95	n/a	n/a	0	0	0
2698011	WORD	wordpools/wasnorm_wordpool_576.txt	LTP342	ltpFR2	13	14	GARBAGE	622	n/a	n/a	0	0	0
2700545	WORD	wordpools/wasnorm_wordpool_576.txt	LTP342	ltpFR2	13	14	SPACE	1345	n/a	n/a	0	0	0
2703143	WORD	wordpools/wasnorm_wordpool_576.txt	LTP342	ltpFR2	13	14	TABLE	1426	n/a	n/a	0	0	0
2705842	WORD	wordpools/wasnorm_wordpool_576.txt	LTP342	ltpFR2	13	14	WASHER	1592	n/a	n/a	0	0	0
2708658	WORD	wordpools/wasnorm_wordpool_576.txt	LTP342	ltpFR2	13	14	FIDDLE	561	n/a	n/a	0	0	0
2711490	WORD	wordpools/wasnorm_wordpool_576.txt	LTP342	ltpFR2	13	14	TOMBSTONE	1478	n/a	n/a	0	0	0
2714054	WORD	wordpools/wasnorm_wordpool_576.txt	LTP342	ltpFR2	13	14	DANCER	437	n/a	n/a	0	0	0
2716771	WORD	wordpools/wasnorm_wordpool_576.txt	LTP342	ltpFR2	13	14	MOP	916	n/a	n/a	0	0	0
2719236	WORD	wordpools/wasnorm_wordpool_576.txt	LTP342	ltpFR2	13	14	CIGAR	308	n/a	n/a	0	0	0
2722034	WORD	wordpools/wasnorm_wordpool_576.txt	LTP342	ltpFR2	13	14	PUDDING	1139	n/a	n/a	0	0	0
2724817	WORD	wordpools/wasnorm_wordpool_576.txt	LTP342	ltpFR2	13	14	DRIVER	499	n/a	n/a	0	0	0
2727516	WORD	wordpools/wasnorm_wordpool_576.txt	LTP342	ltpFR2	13	14	FOREHEAD	592	n/a	n/a	0	0	0
2730331	WORD	wordpools/wasnorm_wordpool_576.txt	LTP342	ltpFR2	13	14	DRUG	501	n/a	n/a	0	0	0
2732913	WORD	wordpools/wasnorm_wordpool_576.txt	LTP342	ltpFR2	13	14	COMET	353	n/a	n/a	0	0	0
2735612	WORD	wordpools/wasnorm_wordpool_576.txt	LTP342	ltpFR2	13	14	SERVER	1272	n/a	n/a	0	0	0
2738194	WORD	wordpools/wasnorm_wordpool_576.txt	LTP342	ltpFR2	13	14	SUPPER	1411	n/a	n/a	0	0	0
2740992	WORD	wordpools/wasnorm_wordpool_576.txt	LTP342	ltpFR2	13	14	WHISTLE	1606	n/a	n/a	0	0	0
2743808	WORD	wordpools/wasnorm_wordpool_576.txt	LTP342	ltpFR2	13	14	DRESS	495	n/a	n/a	0	0	0
2746474	WORD	wordpools/wasnorm_wordpool_576.txt	LTP342	ltpFR2	13	14	PENGUIN	1044	n/a	n/a	0	0	0
2749106	WORD	wordpools/wasnorm_wordpool_576.txt	LTP342	ltpFR2	13	14	SISTER	1312	n/a	n/a	0	0	0
2751538	WORD	wordpools/wasnorm_wordpool_576.txt	LTP342	ltpFR2	13	14	SIBLING	1301	n/a	n/a	0	0	0
2753970	WORD	wordpools/wasnorm_wordpool_576.txt	LTP342	ltpFR2	13	14	GAZELLE	628	n/a	n/a	0	0	0
2756486	WORD	wordpools/wasnorm_wordpool_576.txt	LTP342	ltpFR2	13	14	SKIRT	1319	n/a	n/a	0	0	0
2759301	WORD	wordpools/wasnorm_wordpool_576.txt	LTP342	ltpFR2	13	14	MASK	876	n/a	n/a	0	0	0
2760917	START	n/a	LTP342	ltpFR2	13	n/a	n/a	n/a	19	n/a	n/a	n/a	n/a
2761884	DISTRACTOR	n/a	LTP342	ltpFR2	13	14	n/a	n/a	n/a	n/a	0	0	0
2761900	PROB	n/a	LTP342	ltpFR2	13	n/a	n/a	n/a	19	10	4	1	5
2763799	PROB	n/a	LTP342	ltpFR2	13	n/a	n/a	n/a	19	20	8	6	6
2765715	PROB	n/a	LTP342	ltpFR2	13	n/a	n/a	n/a	19	15	4	4	7
2767114	PROB	n/a	LTP342	ltpFR2	13	n/a	n/a	n/a	19	17	5	5	7
2768530	PROB	n/a	LTP342	ltpFR2	13	n/a	n/a	n/a	19	16	3	4	9
2769995	PROB	n/a	LTP342	ltpFR2	13	n/a	n/a	n/a	19	18	7	3	8
2772096	PROB	n/a	LTP342	ltpFR2	13	n/a	n/a	n/a	19	13	9	1	3
2773495	PROB	n/a	LTP342	ltpFR2	13	n/a	n/a	n/a	19	15	2	4	9
2774844	PROB	n/a	LTP342	ltpFR2	13	n/a	n/a	n/a	19	14	6	5	3
2776527	PROB	n/a	LTP342	ltpFR2	13	n/a	n/a	n/a	19	21	8	7	6
2778326	PROB	n/a	LTP342	ltpFR2	13	n/a	n/a	n/a	19	24	9	9	6
2780142	PROB	n/a	LTP342	ltpFR2	13	n/a	n/a	n/a	19	11	3	7	1
2781358	PROB	n/a	LTP342	ltpFR2	13	n/a	n/a	n/a	19	18	2	9	7
2783006	PROB	n/a	LTP342	ltpFR2	13	n/a	n/a	n/a	19	9	3	3	3
2784048	STOP	n/a	LTP342	ltpFR2	13	n/a	n/a	n/a	19	n/a	n/a	n/a	n/a
2786689	REC_START	n/a	LTP342	ltpFR2	13	14	n/a	n/a	n/a	n/a	0	0	0
2788377	REC_WORD	wordpools/wasnorm_wordpool_576.txt	LTP342	ltpFR2	13	14	GAZELLE	628	n/a	n/a	0	0	0
2789397	REC_WORD	wordpools/wasnorm_wordpool_576.txt	LTP342	ltpFR2	13	14	COMET	353	n/a	n/a	0	0	0
2831091	REC_WORD	wordpools/wasnorm_wordpool_576.txt	LTP342	ltpFR2	13	14	TABLE	1426	n/a	n/a	0	0	0
2832006	REC_WORD	wordpools/wasnorm_wordpool_576.txt	LTP342	ltpFR2	13	14	GARBAGE	622	n/a	n/a	0	0	0
2833027	REC_WORD	wordpools/wasnorm_wordpool_576.txt	LTP342	ltpFR2	13	14	SPACE	1345	n/a	n/a	0	0	0
2877115	DISTRACTOR	n/a	LTP342	ltpFR2	13	15	n/a	n/a	n/a	n/a	0	0	0
2877115	START	n/a	LTP342	ltpFR2	13	n/a	n/a	n/a	20	n/a	n/a	n/a	n/a
2877131	PROB	n/a	LTP342	ltpFR2	13	n/a	n/a	n/a	20	15	6	7	2
2878547	PROB	n/a	LTP342	ltpFR2	13	n/a	n/a	n/a	20	14	9	2	3
2880430	PROB	n/a	LTP342	ltpFR2	13	n/a	n/a	n/a	20	10	6	1	3
2881896	PROB	n/a	LTP342	ltpFR2	13	n/a	n/a	n/a	20	19	7	3	9
2883495	PROB	n/a	LTP342	ltpFR2	13	n/a	n/a	n/a	20	12	1	3	8
2884778	PROB	n/a	LTP342	ltpFR2	13	n/a	n/a	n/a	20	11	4	5	2
2885927	PROB	n/a	LTP342	ltpFR2	13	n/a	n/a	n/a	20	12	2	2	8
2887077	PROB	n/a	LTP342	ltpFR2	13	n/a	n/a	n/a	20	13	4	1	8
2888609	PROB	n/a	LTP342	ltpFR2	13	n/a	n/a	n/a	20	9	4	4	1
2889576	PROB	n/a	LTP342	ltpFR2	13	n/a	n/a	n/a	20	21	5	9	7
2890875	PROB	n/a	LTP342	ltpFR2	13	n/a	n/a	n/a	20	17	9	6	2
2893006	PROB	n/a	LTP342	ltpFR2	13	n/a	n/a	n/a	20	8	4	1	3
2894324	PROB	n/a	LTP342	ltpFR2	13	n/a	n/a	n/a	20	21	9	7	5
2895640	PROB	n/a	LTP342	ltpFR2	13	n/a	n/a	n/a	20	22	9	5	8
2899004	PROB	n/a	LTP342	ltpFR2	13	n/a	n/a	n/a	20	15	8	1	6
2900444	STOP	n/a	LTP342	ltpFR2	13	n/a	n/a	n/a	20	n/a	n/a	n/a	n/a
2902103	WORD	wordpools/wasnorm_wordpool_576.txt	LTP342	ltpFR2	13	15	PASSAGE	1019	n/a	n/a	0	0	0
2904835	WORD	wordpools/wasnorm_wordpool_576.txt	LTP342	ltpFR2	13	15	AWARD	63	n/a	n/a	0	0	0
2907318	WORD	wordpools/wasnorm_wordpool_576.txt	LTP342	ltpFR2	13	15	PAIL	1002	n/a	n/a	0	0	0
2909966	WORD	wordpools/wasnorm_wordpool_576.txt	LTP342	ltpFR2	13	15	MISSILE	900	n/a	n/a	0	0	0
2912549	WORD	wordpools/wasnorm_wordpool_576.txt	LTP342	ltpFR2	13	15	THREAD	1460	n/a	n/a	0	0	0
2915297	WORD	wordpools/wasnorm_wordpool_576.txt	LTP342	ltpFR2	13	15	SIDEWALK	1303	n/a	n/a	0	0	0
2917846	WORD	wordpools/wasnorm_wordpool_576.txt	LTP342	ltpFR2	13	15	HIGHWAY	707	n/a	n/a	0	0	0
2920628	WORD	wordpools/wasnorm_wordpool_576.txt	LTP342	ltpFR2	13	15	GARLIC	624	n/a	n/a	0	0	0
2923277	WORD	wordpools/wasnorm_wordpool_576.txt	LTP342	ltpFR2	13	15	YARN	1631	n/a	n/a	0	0	0
2925976	WORD	wordpools/wasnorm_wordpool_576.txt	LTP342	ltpFR2	13	15	BADGE	68	n/a	n/a	0	0	0
2928625	WORD	wordpools/wasnorm_wordpool_576.txt	LTP342	ltpFR2	13	15	CHEMIST	292	n/a	n/a	0	0	0
2931340	WORD	wordpools/wasnorm_wordpool_576.txt	LTP342	ltpFR2	13	15	FLASK	576	n/a	n/a	0	0	0
2933772	WORD	wordpools/wasnorm_wordpool_576.txt	LTP342	ltpFR2	13	15	POSTAGE	1113	n/a	n/a	0	0	0
2936521	WORD	wordpools/wasnorm_wordpool_576.txt	LTP342	ltpFR2	13	15	COURSE	390	n/a	n/a	0	0	0
2939203	WORD	wordpools/wasnorm_wordpool_576.txt	LTP342	ltpFR2	13	15	RATTLE	1170	n/a	n/a	0	0	0
2941919	WORD	wordpools/wasnorm_wordpool_576.txt	LTP342	ltpFR2	13	15	ZEBRA	1635	n/a	n/a	0	0	0
2944651	WORD	wordpools/wasnorm_wordpool_576.txt	LTP342	ltpFR2	13	15	NOVEL	960	n/a	n/a	0	0	0
2947433	WORD	wordpools/wasnorm_wordpool_576.txt	LTP342	ltpFR2	13	15	CASHEW	253	n/a	n/a	0	0	0
2949865	WORD	wordpools/wasnorm_wordpool_576.txt	LTP342	ltpFR2	13	15	LUMBER	848	n/a	n/a	0	0	0
2952530	WORD	wordpools/wasnorm_wordpool_576.txt	LTP342	ltpFR2	13	15	DRAGON	492	n/a	n/a	0	0	0
2955012	WORD	wordpools/wasnorm_wordpool_576.txt	LTP342	ltpFR2	13	15	ONION	977	n/a	n/a	0	0	0
2957678	WORD	wordpools/wasnorm_wordpool_576.txt	LTP342	ltpFR2	13	15	STAR	1373	n/a	n/a	0	0	0
2960144	WORD	wordpools/wasnorm_wordpool_576.txt	LTP342	ltpFR2	13	15	MACHINE	852	n/a	n/a	0	0	0
2962659	WORD	wordpools/wasnorm_wordpool_576.txt	LTP342	ltpFR2	13	15	BRACES	164	n/a	n/a	0	0	0
2964275	START	n/a	LTP342	ltpFR2	13	n/a	n/a	n/a	21	n/a	n/a	n/a	n/a
2965242	DISTRACTOR	n/a	LTP342	ltpFR2	13	15	n/a	n/a	n/a	n/a	0	0	0
2965258	PROB	n/a	LTP342	ltpFR2	13	n/a	n/a	n/a	21	12	2	6	4
2967207	PROB	n/a	LTP342	ltpFR2	13	n/a	n/a	n/a	21	21	4	9	8
2968923	PROB	n/a	LTP342	ltpFR2	13	n/a	n/a	n/a	21	9	3	1	5
2970172	PROB	n/a	LTP342	ltpFR2	13	n/a	n/a	n/a	21	14	3	2	9
2971755	PROB	n/a	LTP342	ltpFR2	13	n/a	n/a	n/a	21	16	8	5	3
2973338	PROB	n/a	LTP342	ltpFR2	13	n/a	n/a	n/a	21	16	5	3	8
2974887	PROB	n/a	LTP342	ltpFR2	13	n/a	n/a	n/a	21	10	3	6	1
2977002	PROB	n/a	LTP342	ltpFR2	13	n/a	n/a	n/a	21	14	7	3	4
2979085	PROB	n/a	LTP342	ltpFR2	13	n/a	n/a	n/a	21	21	8	9	4
2980501	PROB	n/a	LTP342	ltpFR2	13	n/a	n/a	n/a	21	12	4	5	3
2981667	PROB	n/a	LTP342	ltpFR2	13	n/a	n/a	n/a	21	15	3	3	9
2982717	PROB	n/a	LTP342	ltpFR2	13	n/a	n/a	n/a	21	10	2	4	4
2983966	PROB	n/a	LTP342	ltpFR2	13	n/a	n/a	n/a	21	21	9	7	4
2985349	PROB	n/a	LTP342	ltpFR2	13	n/a	n/a	n/a	21	16	6	9	1
2987959	STOP	n/a	LTP342	ltpFR2	13	n/a	n/a	n/a	21	n/a	n/a	n/a	n/a
2990214	REC_START	n/a	LTP342	ltpFR2	13	15	n/a	n/a	n/a	n/a	0	0	0
2990899	REC_WORD	wordpools/wasnorm_wordpool_576.txt	LTP342	ltpFR2	13	15	BRACES	164	n/a	n/a	0	0	0
2991826	REC_WORD	wordpools/wasnorm_wordpool_576.txt	LTP342	ltpFR2	13	15	DRAGON	492	n/a	n/a	0	0	0
2996799	REC_WORD	wordpools/wasnorm_wordpool_576.txt	LTP342	ltpFR2	13	15	PASSAGE	1019	n/a	n/a	0	0	0
2997896	REC_WORD	wordpools/wasnorm_wordpool_576.txt	LTP342	ltpFR2	13	15	AWARD	63	n/a	n/a	0	0	0
3000151	REC_WORD	wordpools/wasnorm_wordpool_576.txt	LTP342	ltpFR2	13	15	MEDAL	885	n/a	n/a	0	0	0
3001126	REC_WORD	wordpools/wasnorm_wordpool_576.txt	LTP342	ltpFR2	13	15	YARN	1631	n/a	n/a	0	0	0
3001987	REC_WORD	wordpools/wasnorm_wordpool_576.txt	LTP342	ltpFR2	13	15	THREAD	1460	n/a	n/a	0	0	0
3003007	REC_WORD	wordpools/wasnorm_wordpool_576.txt	LTP342	ltpFR2	13	15	PAIL	1002	n/a	n/a	0	0	0
3003977	REC_WORD	wordpools/wasnorm_wordpool_576.txt	LTP342	ltpFR2	13	15	MISSILE	900	n/a	n/a	0	0	0
3004940	REC_WORD	wordpools/wasnorm_wordpool_576.txt	LTP342	ltpFR2	13	15	CHEMIST	292	n/a	n/a	0	0	0
3005918	REC_WORD	wordpools/wasnorm_wordpool_576.txt	LTP342	ltpFR2	13	15	GARLIC	624	n/a	n/a	0	0	0
3007865	REC_WORD	wordpools/wasnorm_wordpool_576.txt	LTP342	ltpFR2	13	15	SIDEWALK	1303	n/a	n/a	0	0	0
3008669	REC_WORD	wordpools/wasnorm_wordpool_576.txt	LTP342	ltpFR2	13	15	HIGHWAY	707	n/a	n/a	0	0	0
3080639	DISTRACTOR	n/a	LTP342	ltpFR2	13	16	n/a	n/a	n/a	n/a	0	0	0
3080639	START	n/a	LTP342	ltpFR2	13	n/a	n/a	n/a	22	n/a	n/a	n/a	n/a
3080656	PROB	n/a	LTP342	ltpFR2	13	n/a	n/a	n/a	22	21	6	7	8
3082172	PROB	n/a	LTP342	ltpFR2	13	n/a	n/a	n/a	22	16	6	9	1
3083821	PROB	n/a	LTP342	ltpFR2	13	n/a	n/a	n/a	22	24	9	8	7
3085820	PROB	n/a	LTP342	ltpFR2	13	n/a	n/a	n/a	22	7	3	2	2
3087836	PROB	n/a	LTP342	ltpFR2	13	n/a	n/a	n/a	22	15	5	6	4
3089069	PROB	n/a	LTP342	ltpFR2	13	n/a	n/a	n/a	22	16	7	8	1
3090435	PROB	n/a	LTP342	ltpFR2	13	n/a	n/a	n/a	22	18	9	7	2
3091951	PROB	n/a	LTP342	ltpFR2	13	n/a	n/a	n/a	22	8	6	1	1
3092883	PROB	n/a	LTP342	ltpFR2	13	n/a	n/a	n/a	22	10	2	5	3
3094383	PROB	n/a	LTP342	ltpFR2	13	n/a	n/a	n/a	22	8	2	2	4
3095599	PROB	n/a	LTP342	ltpFR2	13	n/a	n/a	n/a	22	17	8	1	8
3097082	PROB	n/a	LTP342	ltpFR2	13	n/a	n/a	n/a	22	1	8	3	8
3099214	PROB	n/a	LTP342	ltpFR2	13	n/a	n/a	n/a	22	10	4	1	5
3102612	PROB	n/a	LTP342	ltpFR2	13	n/a	n/a	n/a	22	8	1	5	2
3104195	STOP	n/a	LTP342	ltpFR2	13	n/a	n/a	n/a	22	n/a	n/a	n/a	n/a
3105478	WORD	wordpools/wasnorm_wordpool_576.txt	LTP342	ltpFR2	13	16	ACTOR	5	n/a	n/a	0	0	0
3108177	WORD	wordpools/wasnorm_wordpool_576.txt	LTP342	ltpFR2	13	16	ACTRESS	6	n/a	n/a	0	0	0
3110659	WORD	wordpools/wasnorm_wordpool_576.txt	LTP342	ltpFR2	13	16	DORM	488	n/a	n/a	0	0	0
3113158	WORD	wordpools/wasnorm_wordpool_576.txt	LTP342	ltpFR2	13	16	TOURIST	1488	n/a	n/a	0	0	0
3115673	WORD	wordpools/wasnorm_wordpool_576.txt	LTP342	ltpFR2	13	16	PLAZA	1088	n/a	n/a	0	0	0
3118405	WORD	wordpools/wasnorm_wordpool_576.txt	LTP342	ltpFR2	13	16	VALVE	1546	n/a	n/a	0	0	0
3120837	WORD	wordpools/wasnorm_wordpool_576.txt	LTP342	ltpFR2	13	16	RACKET	1155	n/a	n/a	0	0	0
3123320	WORD	wordpools/wasnorm_wordpool_576.txt	LTP342	ltpFR2	13	16	COLONEL	348	n/a	n/a	0	0	0
3125952	WORD	wordpools/wasnorm_wordpool_576.txt	LTP342	ltpFR2	13	16	LAMP	798	n/a	n/a	0	0	0
3128484	WORD	wordpools/wasnorm_wordpool_576.txt	LTP342	ltpFR2	13	16	NURSE	963	n/a	n/a	0	0	0
3131200	WORD	wordpools/wasnorm_wordpool_576.txt	LTP342	ltpFR2	13	16	MARKET	871	n/a	n/a	0	0	0
3133648	WORD	wordpools/wasnorm_wordpool_576.txt	LTP342	ltpFR2	13	16	RABBIT	1152	n/a	n/a	0	0	0
3136247	WORD	wordpools/wasnorm_wordpool_576.txt	LTP342	ltpFR2	13	16	CABBAGE	210	n/a	n/a	0	0	0
3138679	WORD	wordpools/wasnorm_wordpool_576.txt	LTP342	ltpFR2	13	16	MOTEL	919	n/a	n/a	0	0	0
3141478	WORD	wordpools/wasnorm_wordpool_576.txt	LTP342	ltpFR2	13	16	TABLET	1427	n/a	n/a	0	0	0
3144244	WORD	wordpools/wasnorm_wordpool_576.txt	LTP342	ltpFR2	13	16	BABY	64	n/a	n/a	0	0	0
3146909	WORD	wordpools/wasnorm_wordpool_576.txt	LTP342	ltpFR2	13	16	SALAD	1224	n/a	n/a	0	0	0
3149391	WORD	wordpools/wasnorm_wordpool_576.txt	LTP342	ltpFR2	13	16	REPORT	1184	n/a	n/a	0	0	0
3151990	WORD	wordpools/wasnorm_wordpool_576.txt	LTP342	ltpFR2	13	16	CREVICE	405	n/a	n/a	0	0	0
3154639	WORD	wordpools/wasnorm_wordpool_576.txt	LTP342	ltpFR2	13	16	KNIFE	785	n/a	n/a	0	0	0
3157238	WORD	wordpools/wasnorm_wordpool_576.txt	LTP342	ltpFR2	13	16	DIME	466	n/a	n/a	0	0	0
3159803	WORD	wordpools/wasnorm_wordpool_576.txt	LTP342	ltpFR2	13	16	COFFEE	341	n/a	n/a	0	0	0
3162485	WORD	wordpools/wasnorm_wordpool_576.txt	LTP342	ltpFR2	13	16	CAFE	216	n/a	n/a	0	0	0
3165184	WORD	wordpools/wasnorm_wordpool_576.txt	LTP342	ltpFR2	13	16	PAPER	1011	n/a	n/a	0	0	0
3166800	START	n/a	LTP342	ltpFR2	13	n/a	n/a	n/a	23	n/a	n/a	n/a	n/a
3167875	DISTRACTOR	n/a	LTP342	ltpFR2	13	16	n/a	n/a	n/a	n/a	0	0	0
3167883	PROB	n/a	LTP342	ltpFR2	13	n/a	n/a	n/a	23	15	7	7	1
3169682	PROB	n/a	LTP342	ltpFR2	13	n/a	n/a	n/a	23	13	2	9	2
3171115	PROB	n/a	LTP342	ltpFR2	13	n/a	n/a	n/a	23	10	1	6	3
3172214	PROB	n/a	LTP342	ltpFR2	13	n/a	n/a	n/a	23	14	6	4	4
3173663	PROB	n/a	LTP342	ltpFR2	13	n/a	n/a	n/a	23	16	3	7	6
3174863	PROB	n/a	LTP342	ltpFR2	13	n/a	n/a	n/a	23	14	6	1	7
3176596	PROB	n/a	LTP342	ltpFR2	13	n/a	n/a	n/a	23	17	9	3	5
3179444	PROB	n/a	LTP342	ltpFR2	13	n/a	n/a	n/a	23	19	5	8	6
3183276	PROB	n/a	LTP342	ltpFR2	13	n/a	n/a	n/a	23	12	2	1	9
3184875	PROB	n/a	LTP342	ltpFR2	13	n/a	n/a	n/a	23	7	5	2	1
3186391	PROB	n/a	LTP342	ltpFR2	13	n/a	n/a	n/a	23	4	1	2	1
3188790	PROB	n/a	LTP342	ltpFR2	13	n/a	n/a	n/a	23	11	4	6	1
3190012	STOP	n/a	LTP342	ltpFR2	13	n/a	n/a	n/a	23	n/a	n/a	n/a	n/a
3192622	REC_START	n/a	LTP342	ltpFR2	13	16	n/a	n/a	n/a	n/a	0	0	0
3194051	REC_WORD	wordpools/wasnorm_wordpool_576.txt	LTP342	ltpFR2	13	16	COLONEL	348	n/a	n/a	0	0	0
3194652	REC_WORD	wordpools/wasnorm_wordpool_576.txt	LTP342	ltpFR2	13	16	CABBAGE	210	n/a	n/a	0	0	0
3195253	REC_WORD	wordpools/wasnorm_wordpool_576.txt	LTP342	ltpFR2	13	16	KNIFE	785	n/a	n/a	0	0	0
3195685	REC_WORD	wordpools/wasnorm_wordpool_576.txt	LTP342	ltpFR2	13	16	REPORT	1184	n/a	n/a	0	0	0
3197241	REC_WORD	wordpools/wasnorm_wordpool_576.txt	LTP342	ltpFR2	13	16	WAITRESS	1581	n/a	n/a	0	0	0
3197877	REC_WORD	wordpools/wasnorm_wordpool_576.txt	LTP342	ltpFR2	13	16	ACTOR	5	n/a	n/a	0	0	0
3198483	REC_WORD	wordpools/wasnorm_wordpool_576.txt	LTP342	ltpFR2	13	16	ACTRESS	6	n/a	n/a	0	0	0
3199400	REC_WORD	wordpools/wasnorm_wordpool_576.txt	LTP342	ltpFR2	13	16	SALAD	1224	n/a	n/a	0	0	0
3200577	REC_WORD	wordpools/wasnorm_wordpool_576.txt	LTP342	ltpFR2	13	16	DORM	488	n/a	n/a	0	0	0
3201353	REC_WORD	wordpools/wasnorm_wordpool_576.txt	LTP342	ltpFR2	13	16	PLAZA	1088	n/a	n/a	0	0	0
3269153	REST_REWET	n/a	LTP342	ltpFR2	13	16	n/a	n/a	n/a	n/a	0	0	0
3385117	WORD	wordpools/wasnorm_wordpool_576.txt	LTP342	ltpFR2	13	17	LACE	792	n/a	n/a	0	0	0
3387716	WORD	wordpools/wasnorm_wordpool_576.txt	LTP342	ltpFR2	13	17	ORCHID	982	n/a	n/a	0	0	0
3390382	WORD	wordpools/wasnorm_wordpool_576.txt	LTP342	ltpFR2	13	17	PALACE	1006	n/a	n/a	0	0	0
3393046	WORD	wordpools/wasnorm_wordpool_576.txt	LTP342	ltpFR2	13	17	PRINCE	1124	n/a	n/a	0	0	0
3395746	WORD	wordpools/wasnorm_wordpool_576.txt	LTP342	ltpFR2	13	17	CRUTCH	417	n/a	n/a	0	0	0
3398361	WORD	wordpools/wasnorm_wordpool_576.txt	LTP342	ltpFR2	13	17	JUDGE	761	n/a	n/a	0	0	0
3400927	WORD	wordpools/wasnorm_wordpool_576.txt	LTP342	ltpFR2	13	17	TRACTOR	1493	n/a	n/a	0	0	0
3403426	WORD	wordpools/wasnorm_wordpool_576.txt	LTP342	ltpFR2	13	17	TORTOISE	1486	n/a	n/a	0	0	0
3405975	WORD	wordpools/wasnorm_wordpool_576.txt	LTP342	ltpFR2	13	17	SUMMIT	1405	n/a	n/a	0	0	0
3408690	WORD	wordpools/wasnorm_wordpool_576.txt	LTP342	ltpFR2	13	17	LEOPARD	812	n/a	n/a	0	0	0
3411222	WORD	wordpools/wasnorm_wordpool_576.txt	LTP342	ltpFR2	13	17	LIZARD	834	n/a	n/a	0	0	0
3413654	WORD	wordpools/wasnorm_wordpool_576.txt	LTP342	ltpFR2	13	17	COBRA	336	n/a	n/a	0	0	0
3416270	WORD	wordpools/wasnorm_wordpool_576.txt	LTP342	ltpFR2	13	17	FRANCE	601	n/a	n/a	0	0	0
3419085	WORD	wordpools/wasnorm_wordpool_576.txt	LTP342	ltpFR2	13	17	ASIA	46	n/a	n/a	0	0	0
3421584	WORD	wordpools/wasnorm_wordpool_576.txt	LTP342	ltpFR2	13	17	SADDLE	1221	n/a	n/a	0	0	0
3424299	WORD	wordpools/wasnorm_wordpool_576.txt	LTP342	ltpFR2	13	17	VENUS	1557	n/a	n/a	0	0	0
3426848	WORD	wordpools/wasnorm_wordpool_576.txt	LTP342	ltpFR2	13	17	AGENT	10	n/a	n/a	0	0	0
3429664	WORD	wordpools/wasnorm_wordpool_576.txt	LTP342	ltpFR2	13	17	BANK	83	n/a	n/a	0	0	0
3432329	WORD	wordpools/wasnorm_wordpool_576.txt	LTP342	ltpFR2	13	17	CANYON	235	n/a	n/a	0	0	0
3434845	WORD	wordpools/wasnorm_wordpool_576.txt	LTP342	ltpFR2	13	17	ITEM	746	n/a	n/a	0	0	0
3437444	WORD	wordpools/wasnorm_wordpool_576.txt	LTP342	ltpFR2	13	17	LION	827	n/a	n/a	0	0	0
3440176	WORD	wordpools/wasnorm_wordpool_576.txt	LTP342	ltpFR2	13	17	TROMBONE	1508	n/a	n/a	0	0	0
3442891	WORD	wordpools/wasnorm_wordpool_576.txt	LTP342	ltpFR2	13	17	CANAL	226	n/a	n/a	0	0	0
3445357	WORD	wordpools/wasnorm_wordpool_576.txt	LTP342	ltpFR2	13	17	JURY	766	n/a	n/a	0	0	0
3446973	START	n/a	LTP342	ltpFR2	13	n/a	n/a	n/a	24	n/a	n/a	n/a	n/a
3447808	DISTRACTOR	n/a	LTP342	ltpFR2	13	17	n/a	n/a	n/a	n/a	0	0	0
3447822	PROB	n/a	LTP342	ltpFR2	13	n/a	n/a	n/a	24	12	2	8	2
3449771	PROB	n/a	LTP342	ltpFR2	13	n/a	n/a	n/a	24	24	6	9	9
3451604	PROB	n/a	LTP342	ltpFR2	13	n/a	n/a	n/a	24	12	1	2	9
3452886	PROB	n/a	LTP342	ltpFR2	13	n/a	n/a	n/a	24	14	3	3	8
3455152	PROB	n/a	LTP342	ltpFR2	13	n/a	n/a	n/a	24	10	1	1	8
3456518	PROB	n/a	LTP342	ltpFR2	13	n/a	n/a	n/a	24	19	7	4	8
3459100	PROB	n/a	LTP342	ltpFR2	13	n/a	n/a	n/a	24	10	2	4	4
3460899	PROB	n/a	LTP342	ltpFR2	13	n/a	n/a	n/a	24	21	4	8	9
3462332	PROB	n/a	LTP342	ltpFR2	13	n/a	n/a	n/a	24	14	1	5	8
3464181	PROB	n/a	LTP342	ltpFR2	13	n/a	n/a	n/a	24	13	6	3	4
3466164	PROB	n/a	LTP342	ltpFR2	13	n/a	n/a	n/a	24	13	7	3	3
3467546	PROB	n/a	LTP342	ltpFR2	13	n/a	n/a	n/a	24	11	2	5	4
3469950	STOP	n/a	LTP342	ltpFR2	13	n/a	n/a	n/a	24	n/a	n/a	n/a	n/a
3472845	REC_START	n/a	LTP342	ltpFR2	13	17	n/a	n/a	n/a	n/a	0	0	0
3474897	REC_WORD	wordpools/wasnorm_wordpool_576.txt	LTP342	ltpFR2	13	17	LACE	792	n/a	n/a	0	0	0
3475617	REC_WORD	wordpools/wasnorm_wordpool_576.txt	LTP342	ltpFR2	13	17	ORCHID	982	n/a	n/a	0	0	0
3476540	REC_WORD	wordpools/wasnorm_wordpool_576.txt	LTP342	ltpFR2	13	17	PRINCE	1124	n/a	n/a	0	0	0
3479048	REC_WORD	wordpools/wasnorm_wordpool_576.txt	LTP342	ltpFR2	13	17	PALACE	1006	n/a	n/a	0	0	0
3480308	REC_WORD	wordpools/wasnorm_wordpool_576.txt	LTP342	ltpFR2	13	17	CRUTCH	417	n/a	n/a	0	0	0
3481709	REC_WORD	wordpools/wasnorm_wordpool_576.txt	LTP342	ltpFR2	13	17	JUDGE	761	n/a	n/a	0	0	0
3482636	REC_WORD	wordpools/wasnorm_wordpool_576.txt	LTP342	ltpFR2	13	17	TRACTOR	1493	n/a	n/a	0	0	0
3486235	REC_WORD	wordpools/wasnorm_wordpool_576.txt	LTP342	ltpFR2	13	17	TURTLE	1522	n/a	n/a	0	0	0
3487085	REC_WORD	wordpools/wasnorm_wordpool_576.txt	LTP342	ltpFR2	13	17	SUMMIT	1405	n/a	n/a	0	0	0
3490812	REC_WORD	wordpools/wasnorm_wordpool_576.txt	LTP342	ltpFR2	13	17	COBRA	336	n/a	n/a	0	0	0
3491626	REC_WORD	wordpools/wasnorm_wordpool_576.txt	LTP342	ltpFR2	13	17	LIZARD	834	n/a	n/a	0	0	0
3492770	REC_WORD	wordpools/wasnorm_wordpool_576.txt	LTP342	ltpFR2	13	17	LEOPARD	812	n/a	n/a	0	0	0
3494719	REC_WORD	wordpools/wasnorm_wordpool_576.txt	LTP342	ltpFR2	13	17	ASIA	46	n/a	n/a	0	0	0
3495553	REC_WORD	wordpools/wasnorm_wordpool_576.txt	LTP342	ltpFR2	13	17	FRANCE	601	n/a	n/a	0	0	0
3498354	REC_WORD	wordpools/wasnorm_wordpool_576.txt	LTP342	ltpFR2	13	17	AGENT	10	n/a	n/a	0	0	0
3499586	REC_WORD	wordpools/wasnorm_wordpool_576.txt	LTP342	ltpFR2	13	17	BANK	83	n/a	n/a	0	0	0
3501838	REC_WORD	wordpools/wasnorm_wordpool_576.txt	LTP342	ltpFR2	13	17	CANYON	235	n/a	n/a	0	0	0
3504904	REC_WORD	wordpools/wasnorm_wordpool_576.txt	LTP342	ltpFR2	13	17	ITEM	746	n/a	n/a	0	0	0
3505674	REC_WORD	wordpools/wasnorm_wordpool_576.txt	LTP342	ltpFR2	13	17	LION	827	n/a	n/a	0	0	0
3506724	REC_WORD	wordpools/wasnorm_wordpool_576.txt	LTP342	ltpFR2	13	17	TROMBONE	1508	n/a	n/a	0	0	0
3507949	REC_WORD	wordpools/wasnorm_wordpool_576.txt	LTP342	ltpFR2	13	17	CANAL	226	n/a	n/a	0	0	0
3563270	DISTRACTOR	n/a	LTP342	ltpFR2	13	18	n/a	n/a	n/a	n/a	0	0	0
3563270	START	n/a	LTP342	ltpFR2	13	n/a	n/a	n/a	25	n/a	n/a	n/a	n/a
3563286	PROB	n/a	LTP342	ltpFR2	13	n/a	n/a	n/a	25	9	3	1	5
3565519	PROB	n/a	LTP342	ltpFR2	13	n/a	n/a	n/a	25	9	4	4	1
3566835	PROB	n/a	LTP342	ltpFR2	13	n/a	n/a	n/a	25	12	8	1	3
3568251	PROB	n/a	LTP342	ltpFR2	13	n/a	n/a	n/a	25	18	4	8	6
3570016	PROB	n/a	LTP342	ltpFR2	13	n/a	n/a	n/a	25	16	6	6	4
3572099	PROB	n/a	LTP342	ltpFR2	13	n/a	n/a	n/a	25	11	2	7	2
3573515	PROB	n/a	LTP342	ltpFR2	13	n/a	n/a	n/a	25	9	5	2	1
3575231	PROB	n/a	LTP342	ltpFR2	13	n/a	n/a	n/a	25	15	8	4	3
3576664	PROB	n/a	LTP342	ltpFR2	13	n/a	n/a	n/a	25	16	5	6	5
3578146	PROB	n/a	LTP342	ltpFR2	13	n/a	n/a	n/a	25	7	6	1	1
3580329	PROB	n/a	LTP342	ltpFR2	13	n/a	n/a	n/a	25	15	4	9	2
3581545	PROB	n/a	LTP342	ltpFR2	13	n/a	n/a	n/a	25	12	5	1	6
3582811	PROB	n/a	LTP342	ltpFR2	13	n/a	n/a	n/a	25	8	1	2	5
3584144	PROB	n/a	LTP342	ltpFR2	13	n/a	n/a	n/a	25	11	2	7	2
3585326	PROB	n/a	LTP342	ltpFR2	13	n/a	n/a	n/a	25	8	1	3	4
3586481	STOP	n/a	LTP342	ltpFR2	13	n/a	n/a	n/a	25	n/a	n/a	n/a	n/a
3588375	WORD	wordpools/wasnorm_wordpool_576.txt	LTP342	ltpFR2	13	18	POISON	1096	n/a	n/a	0	0	0
3590807	WORD	wordpools/wasnorm_wordpool_576.txt	LTP342	ltpFR2	13	18	SNAKE	1333	n/a	n/a	0	0	0
3593339	WORD	wordpools/wasnorm_wordpool_576.txt	LTP342	ltpFR2	13	18	FEMALE	559	n/a	n/a	0	0	0
3595971	WORD	wordpools/wasnorm_wordpool_576.txt	LTP342	ltpFR2	13	18	SCISSORS	1250	n/a	n/a	0	0	0
3598737	WORD	wordpools/wasnorm_wordpool_576.txt	LTP342	ltpFR2	13	18	TERMITE	1451	n/a	n/a	0	0	0
3601386	WORD	wordpools/wasnorm_wordpool_576.txt	LTP342	ltpFR2	13	18	RAZOR	1171	n/a	n/a	0	0	0
3604201	WORD	wordpools/wasnorm_wordpool_576.txt	LTP342	ltpFR2	13	18	KIDNEY	776	n/a	n/a	0	0	0
3606883	WORD	wordpools/wasnorm_wordpool_576.txt	LTP342	ltpFR2	13	18	DONOR	485	n/a	n/a	0	0	0
3609465	WORD	wordpools/wasnorm_wordpool_576.txt	LTP342	ltpFR2	13	18	HIKER	708	n/a	n/a	0	0	0
3611947	WORD	wordpools/wasnorm_wordpool_576.txt	LTP342	ltpFR2	13	18	MUSTARD	935	n/a	n/a	0	0	0
3614380	WORD	wordpools/wasnorm_wordpool_576.txt	LTP342	ltpFR2	13	18	MISTER	901	n/a	n/a	0	0	0
3616829	WORD	wordpools/wasnorm_wordpool_576.txt	LTP342	ltpFR2	13	18	CLOUD	328	n/a	n/a	0	0	0
3619527	WORD	wordpools/wasnorm_wordpool_576.txt	LTP342	ltpFR2	13	18	DRILL	497	n/a	n/a	0	0	0
3622009	WORD	wordpools/wasnorm_wordpool_576.txt	LTP342	ltpFR2	13	18	PARTNER	1017	n/a	n/a	0	0	0
3624792	WORD	wordpools/wasnorm_wordpool_576.txt	LTP342	ltpFR2	13	18	KLEENEX	782	n/a	n/a	0	0	0
3627574	WORD	wordpools/wasnorm_wordpool_576.txt	LTP342	ltpFR2	13	18	SMOG	1330	n/a	n/a	0	0	0
3630306	WORD	wordpools/wasnorm_wordpool_576.txt	LTP342	ltpFR2	13	18	BUBBLE	183	n/a	n/a	0	0	0
3632921	WORD	wordpools/wasnorm_wordpool_576.txt	LTP342	ltpFR2	13	18	LOFT	840	n/a	n/a	0	0	0
3635653	WORD	wordpools/wasnorm_wordpool_576.txt	LTP342	ltpFR2	13	18	BANJO	82	n/a	n/a	0	0	0
3638336	WORD	wordpools/wasnorm_wordpool_576.txt	LTP342	ltpFR2	13	18	SHIRT	1287	n/a	n/a	0	0	0
3640951	WORD	wordpools/wasnorm_wordpool_576.txt	LTP342	ltpFR2	13	18	HAMPER	682	n/a	n/a	0	0	0
3643383	WORD	wordpools/wasnorm_wordpool_576.txt	LTP342	ltpFR2	13	18	BUG	187	n/a	n/a	0	0	0
3645882	WORD	wordpools/wasnorm_wordpool_576.txt	LTP342	ltpFR2	13	18	FOOT	590	n/a	n/a	0	0	0
3648314	WORD	wordpools/wasnorm_wordpool_576.txt	LTP342	ltpFR2	13	18	FLAG	573	n/a	n/a	0	0	0
3649930	START	n/a	LTP342	ltpFR2	13	n/a	n/a	n/a	26	n/a	n/a	n/a	n/a
3650989	DISTRACTOR	n/a	LTP342	ltpFR2	13	18	n/a	n/a	n/a	n/a	0	0	0
3650995	PROB	n/a	LTP342	ltpFR2	13	n/a	n/a	n/a	26	18	6	8	6
3653229	PROB	n/a	LTP342	ltpFR2	13	n/a	n/a	n/a	26	21	9	3	9
3655694	PROB	n/a	LTP342	ltpFR2	13	n/a	n/a	n/a	26	20	5	8	7
3657660	PROB	n/a	LTP342	ltpFR2	13	n/a	n/a	n/a	26	11	4	1	6
3659176	PROB	n/a	LTP342	ltpFR2	13	n/a	n/a	n/a	26	17	5	9	2
3660625	PROB	n/a	LTP342	ltpFR2	13	n/a	n/a	n/a	26	9	1	1	7
3662191	PROB	n/a	LTP342	ltpFR2	13	n/a	n/a	n/a	26	17	6	2	5
3664807	PROB	n/a	LTP342	ltpFR2	13	n/a	n/a	n/a	26	23	9	9	5
3667055	PROB	n/a	LTP342	ltpFR2	13	n/a	n/a	n/a	26	17	6	4	7
3668588	PROB	n/a	LTP342	ltpFR2	13	n/a	n/a	n/a	26	24	8	8	8
3669988	PROB	n/a	LTP342	ltpFR2	13	n/a	n/a	n/a	26	11	6	3	2
3673929	STOP	n/a	LTP342	ltpFR2	13	n/a	n/a	n/a	26	n/a	n/a	n/a	n/a
3675836	REC_START	n/a	LTP342	ltpFR2	13	18	n/a	n/a	n/a	n/a	0	0	0
3676694	REC_WORD	wordpools/wasnorm_wordpool_576.txt	LTP342	ltpFR2	13	18	SHIRT	1287	n/a	n/a	0	0	0
3677415	REC_WORD	wordpools/wasnorm_wordpool_576.txt	LTP342	ltpFR2	13	18	HAMPER	682	n/a	n/a	0	0	0
3698884	REC_WORD	wordpools/wasnorm_wordpool_576.txt	LTP342	ltpFR2	13	18	BANJO	82	n/a	n/a	0	0	0
3766277	WORD	wordpools/wasnorm_wordpool_576.txt	LTP342	ltpFR2	13	19	WAITER	1580	n/a	n/a	0	0	0
3769093	WORD	wordpools/wasnorm_wordpool_576.txt	LTP342	ltpFR2	13	19	CHIPMUNK	304	n/a	n/a	0	0	0
3771758	WORD	wordpools/wasnorm_wordpool_576.txt	LTP342	ltpFR2	13	19	SPHINX	1349	n/a	n/a	0	0	0
3774474	WORD	wordpools/wasnorm_wordpool_576.txt	LTP342	ltpFR2	13	19	NAPKIN	937	n/a	n/a	0	0	0
3777072	WORD	wordpools/wasnorm_wordpool_576.txt	LTP342	ltpFR2	13	19	LIPSTICK	829	n/a	n/a	0	0	0
3779555	WORD	wordpools/wasnorm_wordpool_576.txt	LTP342	ltpFR2	13	19	HOUND	724	n/a	n/a	0	0	0
3782320	WORD	wordpools/wasnorm_wordpool_576.txt	LTP342	ltpFR2	13	19	ANTLER	29	n/a	n/a	0	0	0
3785001	WORD	wordpools/wasnorm_wordpool_576.txt	LTP342	ltpFR2	13	19	EUROPE	541	n/a	n/a	0	0	0
3787818	WORD	wordpools/wasnorm_wordpool_576.txt	LTP342	ltpFR2	13	19	JAPAN	749	n/a	n/a	0	0	0
3790366	WORD	wordpools/wasnorm_wordpool_576.txt	LTP342	ltpFR2	13	19	DINER	467	n/a	n/a	0	0	0
3792865	WORD	wordpools/wasnorm_wordpool_576.txt	LTP342	ltpFR2	13	19	POSSUM	1112	n/a	n/a	0	0	0
3795431	WORD	wordpools/wasnorm_wordpool_576.txt	LTP342	ltpFR2	13	19	LAPEL	800	n/a	n/a	0	0	0
3797863	WORD	wordpools/wasnorm_wordpool_576.txt	LTP342	ltpFR2	13	19	CLOTHES	327	n/a	n/a	0	0	0
3800412	WORD	wordpools/wasnorm_wordpool_576.txt	LTP342	ltpFR2	13	19	CEILING	265	n/a	n/a	0	0	0
3803061	WORD	wordpools/wasnorm_wordpool_576.txt	LTP342	ltpFR2	13	19	HORSE	719	n/a	n/a	0	0	0
3805859	WORD	wordpools/wasnorm_wordpool_576.txt	LTP342	ltpFR2	13	19	CRITIC	410	n/a	n/a	0	0	0
3808458	WORD	wordpools/wasnorm_wordpool_576.txt	LTP342	ltpFR2	13	19	MILDEW	893	n/a	n/a	0	0	0
3810974	WORD	wordpools/wasnorm_wordpool_576.txt	LTP342	ltpFR2	13	19	GALLON	618	n/a	n/a	0	0	0
3813756	WORD	wordpools/wasnorm_wordpool_576.txt	LTP342	ltpFR2	13	19	MILK	895	n/a	n/a	0	0	0
3816571	WORD	wordpools/wasnorm_wordpool_576.txt	LTP342	ltpFR2	13	19	YOLK	1633	n/a	n/a	0	0	0
3819270	WORD	wordpools/wasnorm_wordpool_576.txt	LTP342	ltpFR2	13	19	MARINE	869	n/a	n/a	0	0	0
3822018	WORD	wordpools/wasnorm_wordpool_576.txt	LTP342	ltpFR2	13	19	EGYPT	519	n/a	n/a	0	0	0
3824651	WORD	wordpools/wasnorm_wordpool_576.txt	LTP342	ltpFR2	13	19	FLUTE	585	n/a	n/a	0	0	0
3827200	WORD	wordpools/wasnorm_wordpool_576.txt	LTP342	ltpFR2	13	19	OUTFIT	988	n/a	n/a	0	0	0
3828816	START	n/a	LTP342	ltpFR2	13	n/a	n/a	n/a	27	n/a	n/a	n/a	n/a
3829704	DISTRACTOR	n/a	LTP342	ltpFR2	13	19	n/a	n/a	n/a	n/a	0	0	0
3829715	PROB	n/a	LTP342	ltpFR2	13	n/a	n/a	n/a	27	22	6	8	8
3832181	PROB	n/a	LTP342	ltpFR2	13	n/a	n/a	n/a	27	17	7	7	3
3833897	PROB	n/a	LTP342	ltpFR2	13	n/a	n/a	n/a	27	8	2	5	1
3835812	PROB	n/a	LTP342	ltpFR2	13	n/a	n/a	n/a	27	14	3	8	3
3837961	PROB	n/a	LTP342	ltpFR2	13	n/a	n/a	n/a	27	17	5	5	7
3839328	PROB	n/a	LTP342	ltpFR2	13	n/a	n/a	n/a	27	18	9	7	2
3841626	PROB	n/a	LTP342	ltpFR2	13	n/a	n/a	n/a	27	7	3	2	2
3844442	PROB	n/a	LTP342	ltpFR2	13	n/a	n/a	n/a	27	23	8	8	7
3846691	PROB	n/a	LTP342	ltpFR2	13	n/a	n/a	n/a	27	27	9	9	9
3848640	PROB	n/a	LTP342	ltpFR2	13	n/a	n/a	n/a	27	18	9	5	4
3852105	STOP	n/a	LTP342	ltpFR2	13	n/a	n/a	n/a	27	n/a	n/a	n/a	n/a
3854638	REC_START	n/a	LTP342	ltpFR2	13	19	n/a	n/a	n/a	n/a	0	0	0
3859738	REC_WORD	wordpools/wasnorm_wordpool_576.txt	LTP342	ltpFR2	13	19	CHIPMUNK	304	n/a	n/a	0	0	0
3860856	REC_WORD	wordpools/wasnorm_wordpool_576.txt	LTP342	ltpFR2	13	19	CHIPMUNK	304	n/a	n/a	0	0	0
3861447	REC_WORD	wordpools/wasnorm_wordpool_576.txt	LTP342	ltpFR2	13	19	WAITER	1580	n/a	n/a	0	0	0
3861952	REC_WORD	wordpools/wasnorm_wordpool_576.txt	LTP342	ltpFR2	13	19	HORSE	719	n/a	n/a	0	0	0
3862558	REC_WORD	wordpools/wasnorm_wordpool_576.txt	LTP342	ltpFR2	13	19	CRITIC	410	n/a	n/a	0	0	0
3863026	REC_WORD	wordpools/wasnorm_wordpool_576.txt	LTP342	ltpFR2	13	19	MILDEW	893	n/a	n/a	0	0	0
3863679	REC_WORD	wordpools/wasnorm_wordpool_576.txt	LTP342	ltpFR2	13	19	GALLON	618	n/a	n/a	0	0	0
3864229	REC_WORD	wordpools/wasnorm_wordpool_576.txt	LTP342	ltpFR2	13	19	MILK	895	n/a	n/a	0	0	0
3864695	REC_WORD	wordpools/wasnorm_wordpool_576.txt	LTP342	ltpFR2	13	19	YOLK	1633	n/a	n/a	0	0	0
3945063	DISTRACTOR	n/a	LTP342	ltpFR2	13	20	n/a	n/a	n/a	n/a	0	0	0
3945063	START	n/a	LTP342	ltpFR2	13	n/a	n/a	n/a	28	n/a	n/a	n/a	n/a
3945079	PROB	n/a	LTP342	ltpFR2	13	n/a	n/a	n/a	28	9	7	1	1
3946496	PROB	n/a	LTP342	ltpFR2	13	n/a	n/a	n/a	28	17	7	8	2
3948211	PROB	n/a	LTP342	ltpFR2	13	n/a	n/a	n/a	28	14	6	3	5
3949811	PROB	n/a	LTP342	ltpFR2	13	n/a	n/a	n/a	28	22	8	9	5
3952025	PROB	n/a	LTP342	ltpFR2	13	n/a	n/a	n/a	28	13	5	3	5
3953742	PROB	n/a	LTP342	ltpFR2	13	n/a	n/a	n/a	28	17	4	5	8
3956508	PROB	n/a	LTP342	ltpFR2	13	n/a	n/a	n/a	28	11	2	6	3
3957940	PROB	n/a	LTP342	ltpFR2	13	n/a	n/a	n/a	28	22	9	4	9
3960055	PROB	n/a	LTP342	ltpFR2	13	n/a	n/a	n/a	28	19	6	6	7
3961739	PROB	n/a	LTP342	ltpFR2	13	n/a	n/a	n/a	28	10	6	3	1
3963105	PROB	n/a	LTP342	ltpFR2	13	n/a	n/a	n/a	28	12	6	5	1
3964237	PROB	n/a	LTP342	ltpFR2	13	n/a	n/a	n/a	28	6	2	1	3
3965887	PROB	n/a	LTP342	ltpFR2	13	n/a	n/a	n/a	28	15	7	6	2
3969061	STOP	n/a	LTP342	ltpFR2	13	n/a	n/a	n/a	28	n/a	n/a	n/a	n/a
3970218	WORD	wordpools/wasnorm_wordpool_576.txt	LTP342	ltpFR2	13	20	ORANGE	980	n/a	n/a	0	0	0
3973016	WORD	wordpools/wasnorm_wordpool_576.txt	LTP342	ltpFR2	13	20	BUCKET	184	n/a	n/a	0	0	0
3975482	WORD	wordpools/wasnorm_wordpool_576.txt	LTP342	ltpFR2	13	20	BATHTUB	100	n/a	n/a	0	0	0
3978047	WORD	wordpools/wasnorm_wordpool_576.txt	LTP342	ltpFR2	13	20	POET	1095	n/a	n/a	0	0	0
3980830	WORD	wordpools/wasnorm_wordpool_576.txt	LTP342	ltpFR2	13	20	SPARROW	1347	n/a	n/a	0	0	0
3983462	WORD	wordpools/wasnorm_wordpool_576.txt	LTP342	ltpFR2	13	20	STREAM	1392	n/a	n/a	0	0	0
3986077	WORD	wordpools/wasnorm_wordpool_576.txt	LTP342	ltpFR2	13	20	HARP	689	n/a	n/a	0	0	0
3988626	WORD	wordpools/wasnorm_wordpool_576.txt	LTP342	ltpFR2	13	20	HOOK	715	n/a	n/a	0	0	0
3991408	WORD	wordpools/wasnorm_wordpool_576.txt	LTP342	ltpFR2	13	20	TOASTER	1472	n/a	n/a	0	0	0
3993957	WORD	wordpools/wasnorm_wordpool_576.txt	LTP342	ltpFR2	13	20	CUPBOARD	425	n/a	n/a	0	0	0
3996556	WORD	wordpools/wasnorm_wordpool_576.txt	LTP342	ltpFR2	13	20	COOK	372	n/a	n/a	0	0	0
3999072	WORD	wordpools/wasnorm_wordpool_576.txt	LTP342	ltpFR2	13	20	COOKBOOK	373	n/a	n/a	0	0	0
4001637	WORD	wordpools/wasnorm_wordpool_576.txt	LTP342	ltpFR2	13	20	PANTHER	1009	n/a	n/a	0	0	0
4004402	WORD	wordpools/wasnorm_wordpool_576.txt	LTP342	ltpFR2	13	20	JOURNAL	760	n/a	n/a	0	0	0
4007050	WORD	wordpools/wasnorm_wordpool_576.txt	LTP342	ltpFR2	13	20	BINDER	127	n/a	n/a	0	0	0
4009533	WORD	wordpools/wasnorm_wordpool_576.txt	LTP342	ltpFR2	13	20	HEADBAND	696	n/a	n/a	0	0	0
4012282	WORD	wordpools/wasnorm_wordpool_576.txt	LTP342	ltpFR2	13	20	SCALLOP	1242	n/a	n/a	0	0	0
4015081	WORD	wordpools/wasnorm_wordpool_576.txt	LTP342	ltpFR2	13	20	SALT	1229	n/a	n/a	0	0	0
4017830	WORD	wordpools/wasnorm_wordpool_576.txt	LTP342	ltpFR2	13	20	PIMPLE	1071	n/a	n/a	0	0	0
4020495	WORD	wordpools/wasnorm_wordpool_576.txt	LTP342	ltpFR2	13	20	TWEEZERS	1526	n/a	n/a	0	0	0
4023010	WORD	wordpools/wasnorm_wordpool_576.txt	LTP342	ltpFR2	13	20	FINGER	567	n/a	n/a	0	0	0
4025626	WORD	wordpools/wasnorm_wordpool_576.txt	LTP342	ltpFR2	13	20	COCKTAIL	338	n/a	n/a	0	0	0
4028358	WORD	wordpools/wasnorm_wordpool_576.txt	LTP342	ltpFR2	13	20	SALMON	1227	n/a	n/a	0	0	0
4031140	WORD	wordpools/wasnorm_wordpool_576.txt	LTP342	ltpFR2	13	20	CYCLONE	431	n/a	n/a	0	0	0
4032757	START	n/a	LTP342	ltpFR2	13	n/a	n/a	n/a	29	n/a	n/a	n/a	n/a
4033569	DISTRACTOR	n/a	LTP342	ltpFR2	13	20	n/a	n/a	n/a	n/a	0	0	0
4033573	PROB	n/a	LTP342	ltpFR2	13	n/a	n/a	n/a	29	19	7	3	9
4035405	PROB	n/a	LTP342	ltpFR2	13	n/a	n/a	n/a	29	9	5	3	1
4036871	PROB	n/a	LTP342	ltpFR2	13	n/a	n/a	n/a	29	19	7	9	3
4038887	PROB	n/a	LTP342	ltpFR2	13	n/a	n/a	n/a	29	13	3	1	9
4041051	PROB	n/a	LTP342	ltpFR2	13	n/a	n/a	n/a	29	13	2	4	7
4042952	PROB	n/a	LTP342	ltpFR2	13	n/a	n/a	n/a	29	14	3	7	4
4045000	PROB	n/a	LTP342	ltpFR2	13	n/a	n/a	n/a	29	14	5	2	7
4046900	PROB	n/a	LTP342	ltpFR2	13	n/a	n/a	n/a	29	20	3	8	9
4049532	PROB	n/a	LTP342	ltpFR2	13	n/a	n/a	n/a	29	56	8	7	8
4053214	PROB	n/a	LTP342	ltpFR2	13	n/a	n/a	n/a	29	12	5	3	4
4056151	STOP	n/a	LTP342	ltpFR2	13	n/a	n/a	n/a	29	n/a	n/a	n/a	n/a
4058595	REC_START	n/a	LTP342	ltpFR2	13	20	n/a	n/a	n/a	n/a	0	0	0
4061754	REC_WORD	wordpools/wasnorm_wordpool_576.txt	LTP342	ltpFR2	13	20	PIMPLE	1071	n/a	n/a	0	0	0
4062688	REC_WORD	wordpools/wasnorm_wordpool_576.txt	LTP342	ltpFR2	13	20	TWEEZERS	1526	n/a	n/a	0	0	0
4063711	REC_WORD	wordpools/wasnorm_wordpool_576.txt	LTP342	ltpFR2	13	20	FINGER	567	n/a	n/a	0	0	0
4066540	REC_WORD	wordpools/wasnorm_wordpool_576.txt	LTP342	ltpFR2	13	20	TOASTER	1472	n/a	n/a	0	0	0
4070032	REC_WORD	wordpools/wasnorm_wordpool_576.txt	LTP342	ltpFR2	13	20	HOOK	715	n/a	n/a	0	0	0
4071765	REC_WORD	wordpools/wasnorm_wordpool_576.txt	LTP342	ltpFR2	13	20	STREAM	1392	n/a	n/a	0	0	0
4072824	REC_WORD	wordpools/wasnorm_wordpool_576.txt	LTP342	ltpFR2	13	20	SPARROW	1347	n/a	n/a	0	0	0
4074071	REC_WORD	wordpools/wasnorm_wordpool_576.txt	LTP342	ltpFR2	13	20	POET	1095	n/a	n/a	0	0	0
4075083	REC_WORD	wordpools/wasnorm_wordpool_576.txt	LTP342	ltpFR2	13	20	ORANGE	980	n/a	n/a	0	0	0
4076069	REC_WORD	wordpools/wasnorm_wordpool_576.txt	LTP342	ltpFR2	13	20	BUCKET	184	n/a	n/a	0	0	0
4077019	REC_WORD	wordpools/wasnorm_wordpool_576.txt	LTP342	ltpFR2	13	20	BATHTUB	100	n/a	n/a	0	0	0
4149019	DISTRACTOR	n/a	LTP342	ltpFR2	13	21	n/a	n/a	n/a	n/a	0	0	0
4149019	START	n/a	LTP342	ltpFR2	13	n/a	n/a	n/a	30	n/a	n/a	n/a	n/a
4149036	PROB	n/a	LTP342	ltpFR2	13	n/a	n/a	n/a	30	15	8	2	5
4151169	PROB	n/a	LTP342	ltpFR2	13	n/a	n/a	n/a	30	14	5	6	3
4152852	PROB	n/a	LTP342	ltpFR2	13	n/a	n/a	n/a	30	13	7	1	5
4155517	PROB	n/a	LTP342	ltpFR2	13	n/a	n/a	n/a	30	17	9	4	4
4156999	PROB	n/a	LTP342	ltpFR2	13	n/a	n/a	n/a	30	16	4	9	3
4158466	PROB	n/a	LTP342	ltpFR2	13	n/a	n/a	n/a	30	7	4	2	1
4160115	PROB	n/a	LTP342	ltpFR2	13	n/a	n/a	n/a	30	10	2	5	3
4163013	PROB	n/a	LTP342	ltpFR2	13	n/a	n/a	n/a	30	16	4	5	7
4164430	PROB	n/a	LTP342	ltpFR2	13	n/a	n/a	n/a	30	20	8	3	9
4166595	PROB	n/a	LTP342	ltpFR2	13	n/a	n/a	n/a	30	13	4	2	7
4168044	PROB	n/a	LTP342	ltpFR2	13	n/a	n/a	n/a	30	19	1	9	9
4169444	PROB	n/a	LTP342	ltpFR2	13	n/a	n/a	n/a	30	14	9	2	3
4173019	STOP	n/a	LTP342	ltpFR2	13	n/a	n/a	n/a	30	n/a	n/a	n/a	n/a
4174175	WORD	wordpools/wasnorm_wordpool_576.txt	LTP342	ltpFR2	13	21	VIRUS	1572	n/a	n/a	0	0	0
4176641	WORD	wordpools/wasnorm_wordpool_576.txt	LTP342	ltpFR2	13	21	PORK	1108	n/a	n/a	0	0	0
4179456	WORD	wordpools/wasnorm_wordpool_576.txt	LTP342	ltpFR2	13	21	BEEF	113	n/a	n/a	0	0	0
4182004	WORD	wordpools/wasnorm_wordpool_576.txt	LTP342	ltpFR2	13	21	PATIENT	1024	n/a	n/a	0	0	0
4184621	WORD	wordpools/wasnorm_wordpool_576.txt	LTP342	ltpFR2	13	21	HOSTESS	723	n/a	n/a	0	0	0
4187070	WORD	wordpools/wasnorm_wordpool_576.txt	LTP342	ltpFR2	13	21	DONKEY	484	n/a	n/a	0	0	0
4189568	WORD	wordpools/wasnorm_wordpool_576.txt	LTP342	ltpFR2	13	21	OINTMENT	974	n/a	n/a	0	0	0
4192067	WORD	wordpools/wasnorm_wordpool_576.txt	LTP342	ltpFR2	13	21	CLIMBER	323	n/a	n/a	0	0	0
4194549	WORD	wordpools/wasnorm_wordpool_576.txt	LTP342	ltpFR2	13	21	PLAID	1080	n/a	n/a	0	0	0
4197332	WORD	wordpools/wasnorm_wordpool_576.txt	LTP342	ltpFR2	13	21	CHURCH	307	n/a	n/a	0	0	0
4199847	WORD	wordpools/wasnorm_wordpool_576.txt	LTP342	ltpFR2	13	21	FRIAR	605	n/a	n/a	0	0	0
4202463	WORD	wordpools/wasnorm_wordpool_576.txt	LTP342	ltpFR2	13	21	BUTCHER	203	n/a	n/a	0	0	0
4205044	WORD	wordpools/wasnorm_wordpool_576.txt	LTP342	ltpFR2	13	21	ATLAS	53	n/a	n/a	0	0	0
4207477	WORD	wordpools/wasnorm_wordpool_576.txt	LTP342	ltpFR2	13	21	RECEIPT	1173	n/a	n/a	0	0	0
4210076	WORD	wordpools/wasnorm_wordpool_576.txt	LTP342	ltpFR2	13	21	STALLION	1369	n/a	n/a	0	0	0
4212591	WORD	wordpools/wasnorm_wordpool_576.txt	LTP342	ltpFR2	13	21	COCOON	339	n/a	n/a	0	0	0
4215340	WORD	wordpools/wasnorm_wordpool_576.txt	LTP342	ltpFR2	13	21	FILM	565	n/a	n/a	0	0	0
4218155	WORD	wordpools/wasnorm_wordpool_576.txt	LTP342	ltpFR2	13	21	WITNESS	1618	n/a	n/a	0	0	0
4220604	WORD	wordpools/wasnorm_wordpool_576.txt	LTP342	ltpFR2	13	21	BRIEFCASE	175	n/a	n/a	0	0	0
4223320	WORD	wordpools/wasnorm_wordpool_576.txt	LTP342	ltpFR2	13	21	VICTIM	1562	n/a	n/a	0	0	0
4225919	WORD	wordpools/wasnorm_wordpool_576.txt	LTP342	ltpFR2	13	21	COIN	343	n/a	n/a	0	0	0
