onset	duration	trial_type	sample	stim_file	subject	experiment	session	trial	item_name	item_num	list	answer	test_x	test_y	test_z
351.708	n/a	SESS_START	175854	n/a	LTP304	ltpFR2	0	n/a	n/a	n/a	n/a	n/a	0	0	0
407.772	n/a	START	203886	n/a	LTP304	ltpFR2	0	n/a	n/a	n/a	-1	n/a	n/a	n/a	n/a
407.788	n/a	PROB	203894	n/a	LTP304	ltpFR2	0	n/a	n/a	n/a	-1	12	5	3	4
413.224	n/a	PROB	206612	n/a	LTP304	ltpFR2	0	n/a	n/a	n/a	-1	13	6	8	9
419.666	n/a	STOP	209833	n/a	LTP304	ltpFR2	0	n/a	n/a	n/a	-1	n/a	n/a	n/a	n/a
497.76	n/a	DISTRACTOR	248880	n/a	LTP304	ltpFR2	0	1	n/a	n/a	n/a	n/a	0	0	0
497.76	n/a	START	248880	n/a	LTP304	ltpFR2	0	n/a	n/a	n/a	1	n/a	n/a	n/a	n/a
497.776	n/a	PROB	248888	n/a	LTP304	ltpFR2	0	n/a	n/a	n/a	1	20	8	4	8
501.744	n/a	PROB	250872	n/a	LTP304	ltpFR2	0	n/a	n/a	n/a	1	16	7	8	1
505.516	n/a	PROB	252758	n/a	LTP304	ltpFR2	0	n/a	n/a	n/a	1	15	8	8	9
508.348	n/a	PROB	254174	n/a	LTP304	ltpFR2	0	n/a	n/a	n/a	1	12	7	2	3
513.036	n/a	PROB	256518	n/a	LTP304	ltpFR2	0	n/a	n/a	n/a	1	24	9	6	9
517.056	n/a	PROB	258528	n/a	LTP304	ltpFR2	0	n/a	n/a	n/a	1	16	6	2	8
521.758	n/a	STOP	260879	n/a	LTP304	ltpFR2	0	n/a	n/a	n/a	1	n/a	n/a	n/a	n/a
522.602	n/a	WORD	261301	wordpools/wasnorm_wordpool_576.txt	LTP304	ltpFR2	0	1	VIKING	1565	n/a	n/a	0	0	0
525.372	n/a	WORD	262686	wordpools/wasnorm_wordpool_576.txt	LTP304	ltpFR2	0	1	SWAMP	1416	n/a	n/a	0	0	0
527.85	n/a	WORD	263925	wordpools/wasnorm_wordpool_576.txt	LTP304	ltpFR2	0	1	BEAST	108	n/a	n/a	0	0	0
530.426	n/a	WORD	265213	wordpools/wasnorm_wordpool_576.txt	LTP304	ltpFR2	0	1	TUBA	1515	n/a	n/a	0	0	0
533.036	n/a	WORD	266518	wordpools/wasnorm_wordpool_576.txt	LTP304	ltpFR2	0	1	FOREST	593	n/a	n/a	0	0	0
535.798	n/a	WORD	267899	wordpools/wasnorm_wordpool_576.txt	LTP304	ltpFR2	0	1	SPHINX	1349	n/a	n/a	0	0	0
538.416	n/a	WORD	269208	wordpools/wasnorm_wordpool_576.txt	LTP304	ltpFR2	0	1	COCOON	339	n/a	n/a	0	0	0
541.118	n/a	WORD	270559	wordpools/wasnorm_wordpool_576.txt	LTP304	ltpFR2	0	1	SISTER	1312	n/a	n/a	0	0	0
543.788	n/a	WORD	271894	wordpools/wasnorm_wordpool_576.txt	LTP304	ltpFR2	0	1	SKIRT	1319	n/a	n/a	0	0	0
546.59	n/a	WORD	273295	wordpools/wasnorm_wordpool_576.txt	LTP304	ltpFR2	0	1	FILM	565	n/a	n/a	0	0	0
549.376	n/a	WORD	274688	wordpools/wasnorm_wordpool_576.txt	LTP304	ltpFR2	0	1	TWEEZERS	1526	n/a	n/a	0	0	0
552.11	n/a	WORD	276055	wordpools/wasnorm_wordpool_576.txt	LTP304	ltpFR2	0	1	STALLION	1369	n/a	n/a	0	0	0
554.864	n/a	WORD	277432	wordpools/wasnorm_wordpool_576.txt	LTP304	ltpFR2	0	1	HORSE	719	n/a	n/a	0	0	0
557.44	n/a	WORD	278720	wordpools/wasnorm_wordpool_576.txt	LTP304	ltpFR2	0	1	PLAYGROUND	1087	n/a	n/a	0	0	0
560.118	n/a	WORD	280059	wordpools/wasnorm_wordpool_576.txt	LTP304	ltpFR2	0	1	SLIDE	1326	n/a	n/a	0	0	0
562.854	n/a	WORD	281427	wordpools/wasnorm_wordpool_576.txt	LTP304	ltpFR2	0	1	BOARD	143	n/a	n/a	0	0	0
565.456	n/a	WORD	282728	wordpools/wasnorm_wordpool_576.txt	LTP304	ltpFR2	0	1	COMPASS	358	n/a	n/a	0	0	0
568.008	n/a	WORD	284004	wordpools/wasnorm_wordpool_576.txt	LTP304	ltpFR2	0	1	WORLD	1622	n/a	n/a	0	0	0
570.682	n/a	WORD	285341	wordpools/wasnorm_wordpool_576.txt	LTP304	ltpFR2	0	1	OZONE	996	n/a	n/a	0	0	0
573.428	n/a	WORD	286714	wordpools/wasnorm_wordpool_576.txt	LTP304	ltpFR2	0	1	CLOTHES	327	n/a	n/a	0	0	0
575.864	n/a	WORD	287932	wordpools/wasnorm_wordpool_576.txt	LTP304	ltpFR2	0	1	NOVEL	960	n/a	n/a	0	0	0
578.356	n/a	WORD	289178	wordpools/wasnorm_wordpool_576.txt	LTP304	ltpFR2	0	1	FREEZER	604	n/a	n/a	0	0	0
581.074	n/a	WORD	290537	wordpools/wasnorm_wordpool_576.txt	LTP304	ltpFR2	0	1	CHIPMUNK	304	n/a	n/a	0	0	0
583.672	n/a	WORD	291836	wordpools/wasnorm_wordpool_576.txt	LTP304	ltpFR2	0	1	BANK	83	n/a	n/a	0	0	0
585.278	n/a	START	292639	n/a	LTP304	ltpFR2	0	n/a	n/a	n/a	2	n/a	n/a	n/a	n/a
586.248	n/a	DISTRACTOR	293124	n/a	LTP304	ltpFR2	0	1	n/a	n/a	n/a	n/a	0	0	0
586.256	n/a	PROB	293128	n/a	LTP304	ltpFR2	0	n/a	n/a	n/a	2	16	9	4	3
591.064	n/a	PROB	295532	n/a	LTP304	ltpFR2	0	n/a	n/a	n/a	2	18	9	3	6
593.734	n/a	PROB	296867	n/a	LTP304	ltpFR2	0	n/a	n/a	n/a	2	21	4	8	9
609.276	n/a	STOP	304638	n/a	LTP304	ltpFR2	0	n/a	n/a	n/a	2	n/a	n/a	n/a	n/a
611.162	n/a	REC_START	305581	n/a	LTP304	ltpFR2	0	1	n/a	n/a	n/a	n/a	0	0	0
613.604	n/a	REC_WORD	306802	wordpools/wasnorm_wordpool_576.txt	LTP304	ltpFR2	0	1	VIKING	1565	n/a	n/a	0	0	0
615.352	n/a	REC_WORD	307676	wordpools/wasnorm_wordpool_576.txt	LTP304	ltpFR2	0	1	TUBA	1515	n/a	n/a	0	0	0
616.564	n/a	REC_WORD	308282	wordpools/wasnorm_wordpool_576.txt	LTP304	ltpFR2	0	1	CHIPMUNK	304	n/a	n/a	0	0	0
617.722	n/a	REC_WORD	308861	wordpools/wasnorm_wordpool_576.txt	LTP304	ltpFR2	0	1	SWAMP	1416	n/a	n/a	0	0	0
619.19	n/a	REC_WORD	309595	wordpools/wasnorm_wordpool_576.txt	LTP304	ltpFR2	0	1	TWEEZERS	1526	n/a	n/a	0	0	0
625.046	n/a	REC_WORD	312523	wordpools/wasnorm_wordpool_576.txt	LTP304	ltpFR2	0	1	BEAST	108	n/a	n/a	0	0	0
627.11	n/a	REC_WORD	313555	wordpools/wasnorm_wordpool_576.txt	LTP304	ltpFR2	0	1	COCOON	339	n/a	n/a	0	0	0
628.504	n/a	REC_WORD	314252	wordpools/wasnorm_wordpool_576.txt	LTP304	ltpFR2	0	1	WORLD	1622	n/a	n/a	0	0	0
629.848	n/a	REC_WORD	314924	wordpools/wasnorm_wordpool_576.txt	LTP304	ltpFR2	0	1	OZONE	996	n/a	n/a	0	0	0
631.93	n/a	REC_WORD	315965	wordpools/wasnorm_wordpool_576.txt	LTP304	ltpFR2	0	1	CLOTHES	327	n/a	n/a	0	0	0
646.664	n/a	REC_WORD	323332	wordpools/wasnorm_wordpool_576.txt	LTP304	ltpFR2	0	1	FREEZER	604	n/a	n/a	0	0	0
654.134	n/a	REC_WORD	327067	wordpools/wasnorm_wordpool_576.txt	LTP304	ltpFR2	0	1	TUBA	1515	n/a	n/a	0	0	0
661.478	n/a	REC_WORD	330739	wordpools/wasnorm_wordpool_576.txt	LTP304	ltpFR2	0	1	SKIRT	1319	n/a	n/a	0	0	0
741.506	n/a	DISTRACTOR	370753	n/a	LTP304	ltpFR2	0	2	n/a	n/a	n/a	n/a	0	0	0
741.506	n/a	START	370753	n/a	LTP304	ltpFR2	0	n/a	n/a	n/a	3	n/a	n/a	n/a	n/a
741.524	n/a	PROB	370762	n/a	LTP304	ltpFR2	0	n/a	n/a	n/a	3	10	5	3	2
744.316	n/a	PROB	372158	n/a	LTP304	ltpFR2	0	n/a	n/a	n/a	3	8	3	3	2
746.368	n/a	PROB	373184	n/a	LTP304	ltpFR2	0	n/a	n/a	n/a	3	12	8	1	3
750.722	n/a	PROB	375361	n/a	LTP304	ltpFR2	0	n/a	n/a	n/a	3	13	8	6	9
756.226	n/a	PROB	378113	n/a	LTP304	ltpFR2	0	n/a	n/a	n/a	3	14	5	7	2
759.68	n/a	PROB	379840	n/a	LTP304	ltpFR2	0	n/a	n/a	n/a	3	16	7	4	5
765.506	n/a	STOP	382753	n/a	LTP304	ltpFR2	0	n/a	n/a	n/a	3	n/a	n/a	n/a	n/a
766.452	n/a	WORD	383226	wordpools/wasnorm_wordpool_576.txt	LTP304	ltpFR2	0	2	DUST	508	n/a	n/a	0	0	0
769.17	n/a	WORD	384585	wordpools/wasnorm_wordpool_576.txt	LTP304	ltpFR2	0	2	ROCKET	1202	n/a	n/a	0	0	0
771.93	n/a	WORD	385965	wordpools/wasnorm_wordpool_576.txt	LTP304	ltpFR2	0	2	WINDOW	1611	n/a	n/a	0	0	0
774.55	n/a	WORD	387275	wordpools/wasnorm_wordpool_576.txt	LTP304	ltpFR2	0	2	LILY	821	n/a	n/a	0	0	0
776.976	n/a	WORD	388488	wordpools/wasnorm_wordpool_576.txt	LTP304	ltpFR2	0	2	PISTON	1076	n/a	n/a	0	0	0
779.762	n/a	WORD	389881	wordpools/wasnorm_wordpool_576.txt	LTP304	ltpFR2	0	2	TEACHER	1440	n/a	n/a	0	0	0
782.264	n/a	WORD	391132	wordpools/wasnorm_wordpool_576.txt	LTP304	ltpFR2	0	2	COBRA	336	n/a	n/a	0	0	0
784.826	n/a	WORD	392413	wordpools/wasnorm_wordpool_576.txt	LTP304	ltpFR2	0	2	COIN	343	n/a	n/a	0	0	0
787.452	n/a	WORD	393726	wordpools/wasnorm_wordpool_576.txt	LTP304	ltpFR2	0	2	ACTOR	5	n/a	n/a	0	0	0
790.27	n/a	WORD	395135	wordpools/wasnorm_wordpool_576.txt	LTP304	ltpFR2	0	2	DRAWING	494	n/a	n/a	0	0	0
793.056	n/a	WORD	396528	wordpools/wasnorm_wordpool_576.txt	LTP304	ltpFR2	0	2	GLASS	639	n/a	n/a	0	0	0
795.568	n/a	WORD	397784	wordpools/wasnorm_wordpool_576.txt	LTP304	ltpFR2	0	2	HAND	683	n/a	n/a	0	0	0
798.352	n/a	WORD	399176	wordpools/wasnorm_wordpool_576.txt	LTP304	ltpFR2	0	2	WRIST	1626	n/a	n/a	0	0	0
801.006	n/a	WORD	400503	wordpools/wasnorm_wordpool_576.txt	LTP304	ltpFR2	0	2	SPACE	1345	n/a	n/a	0	0	0
803.596	n/a	WORD	401798	wordpools/wasnorm_wordpool_576.txt	LTP304	ltpFR2	0	2	CURTAIN	427	n/a	n/a	0	0	0
806.142	n/a	WORD	403071	wordpools/wasnorm_wordpool_576.txt	LTP304	ltpFR2	0	2	JUNGLE	764	n/a	n/a	0	0	0
808.846	n/a	WORD	404423	wordpools/wasnorm_wordpool_576.txt	LTP304	ltpFR2	0	2	SWITCH	1422	n/a	n/a	0	0	0
811.464	n/a	WORD	405732	wordpools/wasnorm_wordpool_576.txt	LTP304	ltpFR2	0	2	STONE	1385	n/a	n/a	0	0	0
813.95	n/a	WORD	406975	wordpools/wasnorm_wordpool_576.txt	LTP304	ltpFR2	0	2	PEBBLE	1035	n/a	n/a	0	0	0
816.702	n/a	WORD	408351	wordpools/wasnorm_wordpool_576.txt	LTP304	ltpFR2	0	2	BREAST	171	n/a	n/a	0	0	0
819.504	n/a	WORD	409752	wordpools/wasnorm_wordpool_576.txt	LTP304	ltpFR2	0	2	TART	1436	n/a	n/a	0	0	0
821.978	n/a	WORD	410989	wordpools/wasnorm_wordpool_576.txt	LTP304	ltpFR2	0	2	CONCERT	360	n/a	n/a	0	0	0
824.664	n/a	WORD	412332	wordpools/wasnorm_wordpool_576.txt	LTP304	ltpFR2	0	2	PEDAL	1037	n/a	n/a	0	0	0
827.244	n/a	WORD	413622	wordpools/wasnorm_wordpool_576.txt	LTP304	ltpFR2	0	2	CAFE	216	n/a	n/a	0	0	0
828.852	n/a	START	414426	n/a	LTP304	ltpFR2	0	n/a	n/a	n/a	4	n/a	n/a	n/a	n/a
829.928	n/a	DISTRACTOR	414964	n/a	LTP304	ltpFR2	0	2	n/a	n/a	n/a	n/a	0	0	0
829.936	n/a	PROB	414968	n/a	LTP304	ltpFR2	0	n/a	n/a	n/a	4	18	7	7	4
833.856	n/a	PROB	416928	n/a	LTP304	ltpFR2	0	n/a	n/a	n/a	4	17	7	8	2
836.29	n/a	PROB	418145	n/a	LTP304	ltpFR2	0	n/a	n/a	n/a	4	12	2	1	9
838.976	n/a	PROB	419488	n/a	LTP304	ltpFR2	0	n/a	n/a	n/a	4	15	8	5	2
842.362	n/a	PROB	421181	n/a	LTP304	ltpFR2	0	n/a	n/a	n/a	4	10	5	3	2
844.256	n/a	PROB	422128	n/a	LTP304	ltpFR2	0	n/a	n/a	n/a	4	15	8	8	9
846.848	n/a	PROB	423424	n/a	LTP304	ltpFR2	0	n/a	n/a	n/a	4	18	8	5	5
849.278	n/a	PROB	424639	n/a	LTP304	ltpFR2	0	n/a	n/a	n/a	4	16	5	3	8
851.386	n/a	STOP	425693	n/a	LTP304	ltpFR2	0	n/a	n/a	n/a	4	n/a	n/a	n/a	n/a
854.686	n/a	REC_START	427343	n/a	LTP304	ltpFR2	0	2	n/a	n/a	n/a	n/a	0	0	0
855.692	n/a	REC_WORD	427846	wordpools/wasnorm_wordpool_576.txt	LTP304	ltpFR2	0	2	COIN	343	n/a	n/a	0	0	0
856.792	n/a	REC_WORD	428396	wordpools/wasnorm_wordpool_576.txt	LTP304	ltpFR2	0	2	BREAST	171	n/a	n/a	0	0	0
858.908	n/a	REC_WORD	429454	wordpools/wasnorm_wordpool_576.txt	LTP304	ltpFR2	0	2	TART	1436	n/a	n/a	0	0	0
860.024	n/a	REC_WORD	430012	wordpools/wasnorm_wordpool_576.txt	LTP304	ltpFR2	0	2	CAFE	216	n/a	n/a	0	0	0
862.358	n/a	REC_WORD	431179	wordpools/wasnorm_wordpool_576.txt	LTP304	ltpFR2	0	2	COBBLE	-1	n/a	n/a	0	0	0
865.338	n/a	REC_WORD	432669	wordpools/wasnorm_wordpool_576.txt	LTP304	ltpFR2	0	2	PEDAL	1037	n/a	n/a	0	0	0
897.904	n/a	REC_WORD	448952	wordpools/wasnorm_wordpool_576.txt	LTP304	ltpFR2	0	2	COMPASS	358	n/a	n/a	0	0	0
945.124	n/a	WORD	472562	wordpools/wasnorm_wordpool_576.txt	LTP304	ltpFR2	0	3	MARS	873	n/a	n/a	0	0	0
947.698	n/a	WORD	473849	wordpools/wasnorm_wordpool_576.txt	LTP304	ltpFR2	0	3	MILDEW	893	n/a	n/a	0	0	0
950.262	n/a	WORD	475131	wordpools/wasnorm_wordpool_576.txt	LTP304	ltpFR2	0	3	CATCHER	258	n/a	n/a	0	0	0
952.814	n/a	WORD	476407	wordpools/wasnorm_wordpool_576.txt	LTP304	ltpFR2	0	3	SHERIFF	1284	n/a	n/a	0	0	0
955.534	n/a	WORD	477767	wordpools/wasnorm_wordpool_576.txt	LTP304	ltpFR2	0	3	VALVE	1546	n/a	n/a	0	0	0
958.202	n/a	WORD	479101	wordpools/wasnorm_wordpool_576.txt	LTP304	ltpFR2	0	3	STAR	1373	n/a	n/a	0	0	0
960.82	n/a	WORD	480410	wordpools/wasnorm_wordpool_576.txt	LTP304	ltpFR2	0	3	POWDER	1117	n/a	n/a	0	0	0
963.524	n/a	WORD	481762	wordpools/wasnorm_wordpool_576.txt	LTP304	ltpFR2	0	3	RABBIT	1152	n/a	n/a	0	0	0
966.03	n/a	WORD	483015	wordpools/wasnorm_wordpool_576.txt	LTP304	ltpFR2	0	3	CARROT	249	n/a	n/a	0	0	0
968.76	n/a	WORD	484380	wordpools/wasnorm_wordpool_576.txt	LTP304	ltpFR2	0	3	COD	340	n/a	n/a	0	0	0
971.38	n/a	WORD	485690	wordpools/wasnorm_wordpool_576.txt	LTP304	ltpFR2	0	3	OUTLAW	989	n/a	n/a	0	0	0
973.886	n/a	WORD	486943	wordpools/wasnorm_wordpool_576.txt	LTP304	ltpFR2	0	3	INFANT	737	n/a	n/a	0	0	0
976.35	n/a	WORD	488175	wordpools/wasnorm_wordpool_576.txt	LTP304	ltpFR2	0	3	RECORD	1176	n/a	n/a	0	0	0
979.002	n/a	WORD	489501	wordpools/wasnorm_wordpool_576.txt	LTP304	ltpFR2	0	3	ROBOT	1200	n/a	n/a	0	0	0
981.688	n/a	WORD	490844	wordpools/wasnorm_wordpool_576.txt	LTP304	ltpFR2	0	3	CHAPEL	280	n/a	n/a	0	0	0
984.44	n/a	WORD	492220	wordpools/wasnorm_wordpool_576.txt	LTP304	ltpFR2	0	3	CLIMBER	323	n/a	n/a	0	0	0
987.19	n/a	WORD	493595	wordpools/wasnorm_wordpool_576.txt	LTP304	ltpFR2	0	3	PIANO	1057	n/a	n/a	0	0	0
989.866	n/a	WORD	494933	wordpools/wasnorm_wordpool_576.txt	LTP304	ltpFR2	0	3	PISTOL	1075	n/a	n/a	0	0	0
992.646	n/a	WORD	496323	wordpools/wasnorm_wordpool_576.txt	LTP304	ltpFR2	0	3	GANGSTER	620	n/a	n/a	0	0	0
995.236	n/a	WORD	497618	wordpools/wasnorm_wordpool_576.txt	LTP304	ltpFR2	0	3	VAGRANT	1544	n/a	n/a	0	0	0
997.682	n/a	WORD	498841	wordpools/wasnorm_wordpool_576.txt	LTP304	ltpFR2	0	3	SOFTBALL	1343	n/a	n/a	0	0	0
1000.24	n/a	WORD	500120	wordpools/wasnorm_wordpool_576.txt	LTP304	ltpFR2	0	3	BLOCKADE	137	n/a	n/a	0	0	0
1002.986	n/a	WORD	501493	wordpools/wasnorm_wordpool_576.txt	LTP304	ltpFR2	0	3	ARMY	39	n/a	n/a	0	0	0
1005.672	n/a	WORD	502836	wordpools/wasnorm_wordpool_576.txt	LTP304	ltpFR2	0	3	STOVE	1388	n/a	n/a	0	0	0
1007.282	n/a	START	503641	n/a	LTP304	ltpFR2	0	n/a	n/a	n/a	5	n/a	n/a	n/a	n/a
1008.09	n/a	DISTRACTOR	504045	n/a	LTP304	ltpFR2	0	3	n/a	n/a	n/a	n/a	0	0	0
1008.098	n/a	PROB	504049	n/a	LTP304	ltpFR2	0	n/a	n/a	n/a	5	15	8	9	8
1012.326	n/a	PROB	506163	n/a	LTP304	ltpFR2	0	n/a	n/a	n/a	5	16	9	1	6
1014.512	n/a	PROB	507256	n/a	LTP304	ltpFR2	0	n/a	n/a	n/a	5	24	8	8	8
1017.032	n/a	PROB	508516	n/a	LTP304	ltpFR2	0	n/a	n/a	n/a	5	18	9	7	2
1019.248	n/a	PROB	509624	n/a	LTP304	ltpFR2	0	n/a	n/a	n/a	5	6	1	1	4
1021.1	n/a	PROB	510550	n/a	LTP304	ltpFR2	0	n/a	n/a	n/a	5	11	3	4	4
1024.636	n/a	PROB	512318	n/a	LTP304	ltpFR2	0	n/a	n/a	n/a	5	12	1	8	3
1031.282	n/a	STOP	515641	n/a	LTP304	ltpFR2	0	n/a	n/a	n/a	5	n/a	n/a	n/a	n/a
1033.026	n/a	REC_START	516513	n/a	LTP304	ltpFR2	0	3	n/a	n/a	n/a	n/a	0	0	0
1034.702	n/a	REC_WORD	517351	wordpools/wasnorm_wordpool_576.txt	LTP304	ltpFR2	0	3	GANGSTER	620	n/a	n/a	0	0	0
1035.844	n/a	REC_WORD	517922	wordpools/wasnorm_wordpool_576.txt	LTP304	ltpFR2	0	3	VALVE	1546	n/a	n/a	0	0	0
1037.33	n/a	REC_WORD	518665	wordpools/wasnorm_wordpool_576.txt	LTP304	ltpFR2	0	3	POWDER	1117	n/a	n/a	0	0	0
1038.31	n/a	REC_WORD	519155	wordpools/wasnorm_wordpool_576.txt	LTP304	ltpFR2	0	3	CARROT	249	n/a	n/a	0	0	0
1040.136	n/a	REC_WORD	520068	wordpools/wasnorm_wordpool_576.txt	LTP304	ltpFR2	0	3	RABBIT	1152	n/a	n/a	0	0	0
1050.588	n/a	REC_WORD	525294	wordpools/wasnorm_wordpool_576.txt	LTP304	ltpFR2	0	3	VAGRANT	1544	n/a	n/a	0	0	0
1060.232	n/a	REC_WORD	530116	wordpools/wasnorm_wordpool_576.txt	LTP304	ltpFR2	0	3	POWDER	1117	n/a	n/a	0	0	0
1139.812	n/a	DISTRACTOR	569906	n/a	LTP304	ltpFR2	0	4	n/a	n/a	n/a	n/a	0	0	0
1139.812	n/a	START	569906	n/a	LTP304	ltpFR2	0	n/a	n/a	n/a	6	n/a	n/a	n/a	n/a
1139.826	n/a	PROB	569913	n/a	LTP304	ltpFR2	0	n/a	n/a	n/a	6	19	3	8	7
1144.612	n/a	PROB	572306	n/a	LTP304	ltpFR2	0	n/a	n/a	n/a	6	12	4	4	4
1146.298	n/a	PROB	573149	n/a	LTP304	ltpFR2	0	n/a	n/a	n/a	6	19	9	7	3
1148.716	n/a	PROB	574358	n/a	LTP304	ltpFR2	0	n/a	n/a	n/a	6	13	2	7	4
1152.002	n/a	PROB	576001	n/a	LTP304	ltpFR2	0	n/a	n/a	n/a	6	10	1	5	4
1154.788	n/a	PROB	577394	n/a	LTP304	ltpFR2	0	n/a	n/a	n/a	6	19	5	5	9
1157.524	n/a	PROB	578762	n/a	LTP304	ltpFR2	0	n/a	n/a	n/a	6	17	6	7	4
1160.426	n/a	PROB	580213	n/a	LTP304	ltpFR2	0	n/a	n/a	n/a	6	13	2	2	9
1162.536	n/a	STOP	581268	n/a	LTP304	ltpFR2	0	n/a	n/a	n/a	6	n/a	n/a	n/a	n/a
1164.78	n/a	WORD	582390	wordpools/wasnorm_wordpool_576.txt	LTP304	ltpFR2	0	4	PUDDING	1139	n/a	n/a	0	0	0
1167.552	n/a	WORD	583776	wordpools/wasnorm_wordpool_576.txt	LTP304	ltpFR2	0	4	SHIRT	1287	n/a	n/a	0	0	0
1170.138	n/a	WORD	585069	wordpools/wasnorm_wordpool_576.txt	LTP304	ltpFR2	0	4	POCKET	1093	n/a	n/a	0	0	0
1172.586	n/a	WORD	586293	wordpools/wasnorm_wordpool_576.txt	LTP304	ltpFR2	0	4	DORM	488	n/a	n/a	0	0	0
1175.304	n/a	WORD	587652	wordpools/wasnorm_wordpool_576.txt	LTP304	ltpFR2	0	4	LAMP	798	n/a	n/a	0	0	0
1177.758	n/a	WORD	588879	wordpools/wasnorm_wordpool_576.txt	LTP304	ltpFR2	0	4	MATCH	878	n/a	n/a	0	0	0
1180.29	n/a	WORD	590145	wordpools/wasnorm_wordpool_576.txt	LTP304	ltpFR2	0	4	CRIB	407	n/a	n/a	0	0	0
1182.844	n/a	WORD	591422	wordpools/wasnorm_wordpool_576.txt	LTP304	ltpFR2	0	4	PARENT	1013	n/a	n/a	0	0	0
1185.462	n/a	WORD	592731	wordpools/wasnorm_wordpool_576.txt	LTP304	ltpFR2	0	4	DANDRUFF	439	n/a	n/a	0	0	0
1188.246	n/a	WORD	594123	wordpools/wasnorm_wordpool_576.txt	LTP304	ltpFR2	0	4	JELLO	754	n/a	n/a	0	0	0
1190.95	n/a	WORD	595475	wordpools/wasnorm_wordpool_576.txt	LTP304	ltpFR2	0	4	PEANUT	1032	n/a	n/a	0	0	0
1193.518	n/a	WORD	596759	wordpools/wasnorm_wordpool_576.txt	LTP304	ltpFR2	0	4	XEROX	1628	n/a	n/a	0	0	0
1196.188	n/a	WORD	598094	wordpools/wasnorm_wordpool_576.txt	LTP304	ltpFR2	0	4	BRANCH	168	n/a	n/a	0	0	0
1198.788	n/a	WORD	599394	wordpools/wasnorm_wordpool_576.txt	LTP304	ltpFR2	0	4	LAPEL	800	n/a	n/a	0	0	0
1201.524	n/a	WORD	600762	wordpools/wasnorm_wordpool_576.txt	LTP304	ltpFR2	0	4	BLOUSE	139	n/a	n/a	0	0	0
1204.16	n/a	WORD	602080	wordpools/wasnorm_wordpool_576.txt	LTP304	ltpFR2	0	4	MACHINE	852	n/a	n/a	0	0	0
1206.98	n/a	WORD	603490	wordpools/wasnorm_wordpool_576.txt	LTP304	ltpFR2	0	4	LAVA	804	n/a	n/a	0	0	0
1209.748	n/a	WORD	604874	wordpools/wasnorm_wordpool_576.txt	LTP304	ltpFR2	0	4	SUNRISE	1407	n/a	n/a	0	0	0
1212.316	n/a	WORD	606158	wordpools/wasnorm_wordpool_576.txt	LTP304	ltpFR2	0	4	BUGGY	188	n/a	n/a	0	0	0
1215.036	n/a	WORD	607518	wordpools/wasnorm_wordpool_576.txt	LTP304	ltpFR2	0	4	JUGGLER	763	n/a	n/a	0	0	0
1217.772	n/a	WORD	608886	wordpools/wasnorm_wordpool_576.txt	LTP304	ltpFR2	0	4	HERO	706	n/a	n/a	0	0	0
1220.558	n/a	WORD	610279	wordpools/wasnorm_wordpool_576.txt	LTP304	ltpFR2	0	4	TROMBONE	1508	n/a	n/a	0	0	0
1223.366	n/a	WORD	611683	wordpools/wasnorm_wordpool_576.txt	LTP304	ltpFR2	0	4	COTTAGE	384	n/a	n/a	0	0	0
1226.06	n/a	WORD	613030	wordpools/wasnorm_wordpool_576.txt	LTP304	ltpFR2	0	4	PLASTER	1085	n/a	n/a	0	0	0
1227.668	n/a	START	613834	n/a	LTP304	ltpFR2	0	n/a	n/a	n/a	7	n/a	n/a	n/a	n/a
1228.616	n/a	DISTRACTOR	614308	n/a	LTP304	ltpFR2	0	4	n/a	n/a	n/a	n/a	0	0	0
1228.628	n/a	PROB	614314	n/a	LTP304	ltpFR2	0	n/a	n/a	n/a	7	17	6	9	2
1232.312	n/a	PROB	616156	n/a	LTP304	ltpFR2	0	n/a	n/a	n/a	7	7	4	2	1
1235.068	n/a	PROB	617534	n/a	LTP304	ltpFR2	0	n/a	n/a	n/a	7	15	8	1	6
1236.984	n/a	PROB	618492	n/a	LTP304	ltpFR2	0	n/a	n/a	n/a	7	17	6	6	5
1238.986	n/a	PROB	619493	n/a	LTP304	ltpFR2	0	n/a	n/a	n/a	7	22	9	5	8
1244.074	n/a	PROB	622037	n/a	LTP304	ltpFR2	0	n/a	n/a	n/a	7	11	1	1	9
1245.992	n/a	PROB	622996	n/a	LTP304	ltpFR2	0	n/a	n/a	n/a	7	24	8	9	7
1250.304	n/a	STOP	625152	n/a	LTP304	ltpFR2	0	n/a	n/a	n/a	7	n/a	n/a	n/a	n/a
1253.414	n/a	REC_START	626707	n/a	LTP304	ltpFR2	0	4	n/a	n/a	n/a	n/a	0	0	0
1254.858	n/a	REC_WORD	627429	wordpools/wasnorm_wordpool_576.txt	LTP304	ltpFR2	0	4	LAVA	804	n/a	n/a	0	0	0
1255.898	n/a	REC_WORD	627949	wordpools/wasnorm_wordpool_576.txt	LTP304	ltpFR2	0	4	SUNRISE	1407	n/a	n/a	0	0	0
1257.832	n/a	REC_WORD	628916	wordpools/wasnorm_wordpool_576.txt	LTP304	ltpFR2	0	4	JUGGLER	763	n/a	n/a	0	0	0
1261.006	n/a	REC_WORD	630503	wordpools/wasnorm_wordpool_576.txt	LTP304	ltpFR2	0	4	BLOUSE	139	n/a	n/a	0	0	0
1262.256	n/a	REC_WORD	631128	wordpools/wasnorm_wordpool_576.txt	LTP304	ltpFR2	0	4	POCKET	1093	n/a	n/a	0	0	0
1263.934	n/a	REC_WORD	631967	wordpools/wasnorm_wordpool_576.txt	LTP304	ltpFR2	0	4	PUDDING	1139	n/a	n/a	0	0	0
1264.998	n/a	REC_WORD	632499	wordpools/wasnorm_wordpool_576.txt	LTP304	ltpFR2	0	4	PEANUT	1032	n/a	n/a	0	0	0
1269.158	n/a	REC_WORD	634579	wordpools/wasnorm_wordpool_576.txt	LTP304	ltpFR2	0	4	DORM	488	n/a	n/a	0	0	0
1270.27	n/a	REC_WORD	635135	wordpools/wasnorm_wordpool_576.txt	LTP304	ltpFR2	0	4	PARENT	1013	n/a	n/a	0	0	0
1273.822	n/a	REC_WORD	636911	wordpools/wasnorm_wordpool_576.txt	LTP304	ltpFR2	0	4	CRIB	407	n/a	n/a	0	0	0
1288.884	n/a	REC_WORD	644442	wordpools/wasnorm_wordpool_576.txt	LTP304	ltpFR2	0	4	BUGLER	-1	n/a	n/a	0	0	0
1289.74	n/a	REC_WORD	644870	wordpools/wasnorm_wordpool_576.txt	LTP304	ltpFR2	0	4	BUGLE	189	n/a	n/a	0	0	0
1302.198	n/a	REC_WORD_VV	651099	wordpools/wasnorm_wordpool_576.txt	LTP304	ltpFR2	0	4	<>	-1	n/a	n/a	0	0	0
1302.536	n/a	REC_WORD	651268	wordpools/wasnorm_wordpool_576.txt	LTP304	ltpFR2	0	4	XEROX	1628	n/a	n/a	0	0	0
1305.842	n/a	REC_WORD	652921	wordpools/wasnorm_wordpool_576.txt	LTP304	ltpFR2	0	4	BRANCH	168	n/a	n/a	0	0	0
1316.28	n/a	REC_WORD	658140	wordpools/wasnorm_wordpool_576.txt	LTP304	ltpFR2	0	4	COTTAGE	384	n/a	n/a	0	0	0
1343.886	n/a	WORD	671943	wordpools/wasnorm_wordpool_576.txt	LTP304	ltpFR2	0	5	MARKER	870	n/a	n/a	0	0	0
1346.686	n/a	WORD	673343	wordpools/wasnorm_wordpool_576.txt	LTP304	ltpFR2	0	5	PIGMENT	1066	n/a	n/a	0	0	0
1349.158	n/a	WORD	674579	wordpools/wasnorm_wordpool_576.txt	LTP304	ltpFR2	0	5	PUPIL	1143	n/a	n/a	0	0	0
1351.79	n/a	WORD	675895	wordpools/wasnorm_wordpool_576.txt	LTP304	ltpFR2	0	5	SALT	1229	n/a	n/a	0	0	0
1354.51	n/a	WORD	677255	wordpools/wasnorm_wordpool_576.txt	LTP304	ltpFR2	0	5	BRACES	164	n/a	n/a	0	0	0
1356.946	n/a	WORD	678473	wordpools/wasnorm_wordpool_576.txt	LTP304	ltpFR2	0	5	FRAGRANCE	599	n/a	n/a	0	0	0
1359.63	n/a	WORD	679815	wordpools/wasnorm_wordpool_576.txt	LTP304	ltpFR2	0	5	PERFUME	1049	n/a	n/a	0	0	0
1362.45	n/a	WORD	681225	wordpools/wasnorm_wordpool_576.txt	LTP304	ltpFR2	0	5	SUMMIT	1405	n/a	n/a	0	0	0
1365.086	n/a	WORD	682543	wordpools/wasnorm_wordpool_576.txt	LTP304	ltpFR2	0	5	SHOULDER	1294	n/a	n/a	0	0	0
1367.572	n/a	WORD	683786	wordpools/wasnorm_wordpool_576.txt	LTP304	ltpFR2	0	5	BACKBONE	66	n/a	n/a	0	0	0
1370.24	n/a	WORD	685120	wordpools/wasnorm_wordpool_576.txt	LTP304	ltpFR2	0	5	SMOG	1330	n/a	n/a	0	0	0
1372.942	n/a	WORD	686471	wordpools/wasnorm_wordpool_576.txt	LTP304	ltpFR2	0	5	NAPKIN	937	n/a	n/a	0	0	0
1375.644	n/a	WORD	687822	wordpools/wasnorm_wordpool_576.txt	LTP304	ltpFR2	0	5	LONDON	843	n/a	n/a	0	0	0
1378.278	n/a	WORD	689139	wordpools/wasnorm_wordpool_576.txt	LTP304	ltpFR2	0	5	GREASE	660	n/a	n/a	0	0	0
1380.848	n/a	WORD	690424	wordpools/wasnorm_wordpool_576.txt	LTP304	ltpFR2	0	5	TWISTER	1530	n/a	n/a	0	0	0
1383.432	n/a	WORD	691716	wordpools/wasnorm_wordpool_576.txt	LTP304	ltpFR2	0	5	CLOUD	328	n/a	n/a	0	0	0
1385.986	n/a	WORD	692993	wordpools/wasnorm_wordpool_576.txt	LTP304	ltpFR2	0	5	HIKER	708	n/a	n/a	0	0	0
1388.654	n/a	WORD	694327	wordpools/wasnorm_wordpool_576.txt	LTP304	ltpFR2	0	5	COUNTY	389	n/a	n/a	0	0	0
1391.238	n/a	WORD	695619	wordpools/wasnorm_wordpool_576.txt	LTP304	ltpFR2	0	5	JAPAN	749	n/a	n/a	0	0	0
1393.942	n/a	WORD	696971	wordpools/wasnorm_wordpool_576.txt	LTP304	ltpFR2	0	5	ATOM	55	n/a	n/a	0	0	0
1396.51	n/a	WORD	698255	wordpools/wasnorm_wordpool_576.txt	LTP304	ltpFR2	0	5	COFFEE	341	n/a	n/a	0	0	0
1399.062	n/a	WORD	699531	wordpools/wasnorm_wordpool_576.txt	LTP304	ltpFR2	0	5	SPARROW	1347	n/a	n/a	0	0	0
1401.514	n/a	WORD	700757	wordpools/wasnorm_wordpool_576.txt	LTP304	ltpFR2	0	5	NEUTRON	947	n/a	n/a	0	0	0
1404.266	n/a	WORD	702133	wordpools/wasnorm_wordpool_576.txt	LTP304	ltpFR2	0	5	CYCLONE	431	n/a	n/a	0	0	0
1405.87	n/a	START	702935	n/a	LTP304	ltpFR2	0	n/a	n/a	n/a	8	n/a	n/a	n/a	n/a
1406.748	n/a	DISTRACTOR	703374	n/a	LTP304	ltpFR2	0	5	n/a	n/a	n/a	n/a	0	0	0
1406.752	n/a	PROB	703376	n/a	LTP304	ltpFR2	0	n/a	n/a	n/a	8	13	1	6	6
1409.42	n/a	PROB	704710	n/a	LTP304	ltpFR2	0	n/a	n/a	n/a	8	15	7	5	3
1413.222	n/a	PROB	706611	n/a	LTP304	ltpFR2	0	n/a	n/a	n/a	8	11	6	2	3
1416.224	n/a	PROB	708112	n/a	LTP304	ltpFR2	0	n/a	n/a	n/a	8	14	4	2	8
1418.092	n/a	PROB	709046	n/a	LTP304	ltpFR2	0	n/a	n/a	n/a	8	12	3	2	7
1420.744	n/a	PROB	710372	n/a	LTP304	ltpFR2	0	n/a	n/a	n/a	8	10	3	5	2
1423.562	n/a	PROB	711781	n/a	LTP304	ltpFR2	0	n/a	n/a	n/a	8	16	8	7	1
1425.9	n/a	PROB	712950	n/a	LTP304	ltpFR2	0	n/a	n/a	n/a	8	7	1	4	2
1429.87	n/a	STOP	714935	n/a	LTP304	ltpFR2	0	n/a	n/a	n/a	8	n/a	n/a	n/a	n/a
1431.638	n/a	REC_START	715819	n/a	LTP304	ltpFR2	0	5	n/a	n/a	n/a	n/a	0	0	0
1432.99	n/a	REC_WORD	716495	wordpools/wasnorm_wordpool_576.txt	LTP304	ltpFR2	0	5	SUMMIT	1405	n/a	n/a	0	0	0
1435.02	n/a	REC_WORD	717510	wordpools/wasnorm_wordpool_576.txt	LTP304	ltpFR2	0	5	JAPAN	749	n/a	n/a	0	0	0
1435.908	n/a	REC_WORD	717954	wordpools/wasnorm_wordpool_576.txt	LTP304	ltpFR2	0	5	GREASE	660	n/a	n/a	0	0	0
1436.994	n/a	REC_WORD	718497	wordpools/wasnorm_wordpool_576.txt	LTP304	ltpFR2	0	5	LONDON	843	n/a	n/a	0	0	0
1438.314	n/a	REC_WORD	719157	wordpools/wasnorm_wordpool_576.txt	LTP304	ltpFR2	0	5	HIKER	708	n/a	n/a	0	0	0
1441.584	n/a	REC_WORD	720792	wordpools/wasnorm_wordpool_576.txt	LTP304	ltpFR2	0	5	MARKER	870	n/a	n/a	0	0	0
1443.996	n/a	REC_WORD	721998	wordpools/wasnorm_wordpool_576.txt	LTP304	ltpFR2	0	5	PIGMENT	1066	n/a	n/a	0	0	0
1447.4	n/a	REC_WORD	723700	wordpools/wasnorm_wordpool_576.txt	LTP304	ltpFR2	0	5	ATOM	55	n/a	n/a	0	0	0
1448.384	n/a	REC_WORD	724192	wordpools/wasnorm_wordpool_576.txt	LTP304	ltpFR2	0	5	NEUTRON	947	n/a	n/a	0	0	0
1454.212	n/a	REC_WORD	727106	wordpools/wasnorm_wordpool_576.txt	LTP304	ltpFR2	0	5	SUNRISE	1407	n/a	n/a	0	0	0
1456.068	n/a	REC_WORD	728034	wordpools/wasnorm_wordpool_576.txt	LTP304	ltpFR2	0	5	SMOG	1330	n/a	n/a	0	0	0
1463.518	n/a	REC_WORD	731759	wordpools/wasnorm_wordpool_576.txt	LTP304	ltpFR2	0	5	COFFEE	341	n/a	n/a	0	0	0
1465.966	n/a	REC_WORD	732983	wordpools/wasnorm_wordpool_576.txt	LTP304	ltpFR2	0	5	SHOULDER	1294	n/a	n/a	0	0	0
1471.616	n/a	REC_WORD	735808	wordpools/wasnorm_wordpool_576.txt	LTP304	ltpFR2	0	5	COLLAR	345	n/a	n/a	0	0	0
1472.018	n/a	REC_WORD	736009	wordpools/wasnorm_wordpool_576.txt	LTP304	ltpFR2	0	5	BONE	148	n/a	n/a	0	0	0
1531.848	n/a	WORD	765924	wordpools/wasnorm_wordpool_576.txt	LTP304	ltpFR2	0	6	BIKE	125	n/a	n/a	0	0	0
1534.594	n/a	WORD	767297	wordpools/wasnorm_wordpool_576.txt	LTP304	ltpFR2	0	6	TUTU	1524	n/a	n/a	0	0	0
1537.382	n/a	WORD	768691	wordpools/wasnorm_wordpool_576.txt	LTP304	ltpFR2	0	6	EYELASH	546	n/a	n/a	0	0	0
1539.882	n/a	WORD	769941	wordpools/wasnorm_wordpool_576.txt	LTP304	ltpFR2	0	6	EAGLE	512	n/a	n/a	0	0	0
1542.524	n/a	WORD	771262	wordpools/wasnorm_wordpool_576.txt	LTP304	ltpFR2	0	6	ROBIN	1199	n/a	n/a	0	0	0
1545.122	n/a	WORD	772561	wordpools/wasnorm_wordpool_576.txt	LTP304	ltpFR2	0	6	PRINCE	1124	n/a	n/a	0	0	0
1547.906	n/a	WORD	773953	wordpools/wasnorm_wordpool_576.txt	LTP304	ltpFR2	0	6	PALACE	1006	n/a	n/a	0	0	0
1550.676	n/a	WORD	775338	wordpools/wasnorm_wordpool_576.txt	LTP304	ltpFR2	0	6	JOURNAL	760	n/a	n/a	0	0	0
1553.228	n/a	WORD	776614	wordpools/wasnorm_wordpool_576.txt	LTP304	ltpFR2	0	6	GLOBE	641	n/a	n/a	0	0	0
1555.88	n/a	WORD	777940	wordpools/wasnorm_wordpool_576.txt	LTP304	ltpFR2	0	6	NIGHTGOWN	953	n/a	n/a	0	0	0
1558.616	n/a	WORD	779308	wordpools/wasnorm_wordpool_576.txt	LTP304	ltpFR2	0	6	PILOT	1070	n/a	n/a	0	0	0
1561.302	n/a	WORD	780651	wordpools/wasnorm_wordpool_576.txt	LTP304	ltpFR2	0	6	MAMMAL	861	n/a	n/a	0	0	0
1563.904	n/a	WORD	781952	wordpools/wasnorm_wordpool_576.txt	LTP304	ltpFR2	0	6	STICKER	1382	n/a	n/a	0	0	0
1566.606	n/a	WORD	783303	wordpools/wasnorm_wordpool_576.txt	LTP304	ltpFR2	0	6	HANDBAG	684	n/a	n/a	0	0	0
1569.04	n/a	WORD	784520	wordpools/wasnorm_wordpool_576.txt	LTP304	ltpFR2	0	6	QUARTER	1148	n/a	n/a	0	0	0
1571.71	n/a	WORD	785855	wordpools/wasnorm_wordpool_576.txt	LTP304	ltpFR2	0	6	TRUCK	1512	n/a	n/a	0	0	0
1574.194	n/a	WORD	787097	wordpools/wasnorm_wordpool_576.txt	LTP304	ltpFR2	0	6	BACON	67	n/a	n/a	0	0	0
1576.664	n/a	WORD	788332	wordpools/wasnorm_wordpool_576.txt	LTP304	ltpFR2	0	6	COUSIN	392	n/a	n/a	0	0	0
1579.15	n/a	WORD	789575	wordpools/wasnorm_wordpool_576.txt	LTP304	ltpFR2	0	6	SHELF	1280	n/a	n/a	0	0	0
1581.952	n/a	WORD	790976	wordpools/wasnorm_wordpool_576.txt	LTP304	ltpFR2	0	6	BUBBLE	183	n/a	n/a	0	0	0
1584.422	n/a	WORD	792211	wordpools/wasnorm_wordpool_576.txt	LTP304	ltpFR2	0	6	LEADER	807	n/a	n/a	0	0	0
1587.074	n/a	WORD	793537	wordpools/wasnorm_wordpool_576.txt	LTP304	ltpFR2	0	6	PIZZA	1079	n/a	n/a	0	0	0
1589.892	n/a	WORD	794946	wordpools/wasnorm_wordpool_576.txt	LTP304	ltpFR2	0	6	DANCER	437	n/a	n/a	0	0	0
1592.428	n/a	WORD	796214	wordpools/wasnorm_wordpool_576.txt	LTP304	ltpFR2	0	6	FRECKLE	602	n/a	n/a	0	0	0
1594.048	n/a	START	797024	n/a	LTP304	ltpFR2	0	n/a	n/a	n/a	9	n/a	n/a	n/a	n/a
1594.888	n/a	DISTRACTOR	797444	n/a	LTP304	ltpFR2	0	6	n/a	n/a	n/a	n/a	0	0	0
1594.896	n/a	PROB	797448	n/a	LTP304	ltpFR2	0	n/a	n/a	n/a	9	15	6	5	4
1597.634	n/a	PROB	798817	n/a	LTP304	ltpFR2	0	n/a	n/a	n/a	9	14	2	7	5
1600.368	n/a	PROB	800184	n/a	LTP304	ltpFR2	0	n/a	n/a	n/a	9	11	5	1	5
1602.07	n/a	PROB	801035	n/a	LTP304	ltpFR2	0	n/a	n/a	n/a	9	20	7	5	8
1606.174	n/a	PROB	803087	n/a	LTP304	ltpFR2	0	n/a	n/a	n/a	9	18	7	4	7
1608.96	n/a	PROB	804480	n/a	LTP304	ltpFR2	0	n/a	n/a	n/a	9	14	3	8	3
1611.91	n/a	PROB	805955	n/a	LTP304	ltpFR2	0	n/a	n/a	n/a	9	19	4	8	7
1615.414	n/a	PROB	807707	n/a	LTP304	ltpFR2	0	n/a	n/a	n/a	9	14	4	5	5
1617.104	n/a	STOP	808552	n/a	LTP304	ltpFR2	0	n/a	n/a	n/a	9	n/a	n/a	n/a	n/a
1619.902	n/a	REC_START	809951	n/a	LTP304	ltpFR2	0	6	n/a	n/a	n/a	n/a	0	0	0
1620.788	n/a	REC_WORD	810394	wordpools/wasnorm_wordpool_576.txt	LTP304	ltpFR2	0	6	EYELASH	546	n/a	n/a	0	0	0
1622.186	n/a	REC_WORD	811093	wordpools/wasnorm_wordpool_576.txt	LTP304	ltpFR2	0	6	BIKE	125	n/a	n/a	0	0	0
1623.24	n/a	REC_WORD	811620	wordpools/wasnorm_wordpool_576.txt	LTP304	ltpFR2	0	6	PRINCE	1124	n/a	n/a	0	0	0
1624.496	n/a	REC_WORD	812248	wordpools/wasnorm_wordpool_576.txt	LTP304	ltpFR2	0	6	TUTU	1524	n/a	n/a	0	0	0
1627.518	n/a	REC_WORD	813759	wordpools/wasnorm_wordpool_576.txt	LTP304	ltpFR2	0	6	JOURNAL	760	n/a	n/a	0	0	0
1628.818	n/a	REC_WORD	814409	wordpools/wasnorm_wordpool_576.txt	LTP304	ltpFR2	0	6	PILOT	1070	n/a	n/a	0	0	0
1631.834	n/a	REC_WORD	815917	wordpools/wasnorm_wordpool_576.txt	LTP304	ltpFR2	0	6	GLOBE	641	n/a	n/a	0	0	0
1633.56	n/a	REC_WORD	816780	wordpools/wasnorm_wordpool_576.txt	LTP304	ltpFR2	0	6	NIGHTGOWN	953	n/a	n/a	0	0	0
1635.894	n/a	REC_WORD	817947	wordpools/wasnorm_wordpool_576.txt	LTP304	ltpFR2	0	6	MAMMAL	861	n/a	n/a	0	0	0
1658.69	n/a	REC_WORD	829345	wordpools/wasnorm_wordpool_576.txt	LTP304	ltpFR2	0	6	STICKER	1382	n/a	n/a	0	0	0
1660.84	n/a	REC_WORD	830420	wordpools/wasnorm_wordpool_576.txt	LTP304	ltpFR2	0	6	PER	-1	n/a	n/a	0	0	0
1661.24	n/a	REC_WORD_VV	830620	wordpools/wasnorm_wordpool_576.txt	LTP304	ltpFR2	0	6	<>	-1	n/a	n/a	0	0	0
1661.694	n/a	REC_WORD	830847	wordpools/wasnorm_wordpool_576.txt	LTP304	ltpFR2	0	6	BAG	69	n/a	n/a	0	0	0
1662.654	n/a	REC_WORD	831327	wordpools/wasnorm_wordpool_576.txt	LTP304	ltpFR2	0	6	QUARTER	1148	n/a	n/a	0	0	0
1710.338	n/a	WORD	855169	wordpools/wasnorm_wordpool_576.txt	LTP304	ltpFR2	0	7	SHORTS	1293	n/a	n/a	0	0	0
1713.048	n/a	WORD	856524	wordpools/wasnorm_wordpool_576.txt	LTP304	ltpFR2	0	7	LEOPARD	812	n/a	n/a	0	0	0
1715.492	n/a	WORD	857746	wordpools/wasnorm_wordpool_576.txt	LTP304	ltpFR2	0	7	PANTHER	1009	n/a	n/a	0	0	0
1718.134	n/a	WORD	859067	wordpools/wasnorm_wordpool_576.txt	LTP304	ltpFR2	0	7	BRICK	172	n/a	n/a	0	0	0
1720.578	n/a	WORD	860289	wordpools/wasnorm_wordpool_576.txt	LTP304	ltpFR2	0	7	WORKER	1621	n/a	n/a	0	0	0
1723.066	n/a	WORD	861533	wordpools/wasnorm_wordpool_576.txt	LTP304	ltpFR2	0	7	LETTUCE	814	n/a	n/a	0	0	0
1725.55	n/a	WORD	862775	wordpools/wasnorm_wordpool_576.txt	LTP304	ltpFR2	0	7	GHETTO	633	n/a	n/a	0	0	0
1728.336	n/a	WORD	864168	wordpools/wasnorm_wordpool_576.txt	LTP304	ltpFR2	0	7	FLASK	576	n/a	n/a	0	0	0
1730.838	n/a	WORD	865419	wordpools/wasnorm_wordpool_576.txt	LTP304	ltpFR2	0	7	RIFLE	1192	n/a	n/a	0	0	0
1733.256	n/a	WORD	866628	wordpools/wasnorm_wordpool_576.txt	LTP304	ltpFR2	0	7	PASTA	1021	n/a	n/a	0	0	0
1735.942	n/a	WORD	867971	wordpools/wasnorm_wordpool_576.txt	LTP304	ltpFR2	0	7	CANDY	230	n/a	n/a	0	0	0
1738.628	n/a	WORD	869314	wordpools/wasnorm_wordpool_576.txt	LTP304	ltpFR2	0	7	REBEL	1172	n/a	n/a	0	0	0
1741.146	n/a	WORD	870573	wordpools/wasnorm_wordpool_576.txt	LTP304	ltpFR2	0	7	PUDDLE	1140	n/a	n/a	0	0	0
1743.658	n/a	WORD	871829	wordpools/wasnorm_wordpool_576.txt	LTP304	ltpFR2	0	7	MEDAL	885	n/a	n/a	0	0	0
1746.224	n/a	WORD	873112	wordpools/wasnorm_wordpool_576.txt	LTP304	ltpFR2	0	7	NECKLACE	940	n/a	n/a	0	0	0
1748.67	n/a	WORD	874335	wordpools/wasnorm_wordpool_576.txt	LTP304	ltpFR2	0	7	PACKAGE	997	n/a	n/a	0	0	0
1751.43	n/a	WORD	875715	wordpools/wasnorm_wordpool_576.txt	LTP304	ltpFR2	0	7	PUPPY	1144	n/a	n/a	0	0	0
1753.882	n/a	WORD	876941	wordpools/wasnorm_wordpool_576.txt	LTP304	ltpFR2	0	7	TREAT	1501	n/a	n/a	0	0	0
1756.568	n/a	WORD	878284	wordpools/wasnorm_wordpool_576.txt	LTP304	ltpFR2	0	7	LIPSTICK	829	n/a	n/a	0	0	0
1759.036	n/a	WORD	879518	wordpools/wasnorm_wordpool_576.txt	LTP304	ltpFR2	0	7	SUSPECT	1415	n/a	n/a	0	0	0
1761.812	n/a	WORD	880906	wordpools/wasnorm_wordpool_576.txt	LTP304	ltpFR2	0	7	BARREL	91	n/a	n/a	0	0	0
1764.458	n/a	WORD	882229	wordpools/wasnorm_wordpool_576.txt	LTP304	ltpFR2	0	7	PORK	1108	n/a	n/a	0	0	0
1767.06	n/a	WORD	883530	wordpools/wasnorm_wordpool_576.txt	LTP304	ltpFR2	0	7	BUNNY	198	n/a	n/a	0	0	0
1769.678	n/a	WORD	884839	wordpools/wasnorm_wordpool_576.txt	LTP304	ltpFR2	0	7	VICTIM	1562	n/a	n/a	0	0	0
1771.286	n/a	START	885643	n/a	LTP304	ltpFR2	0	n/a	n/a	n/a	10	n/a	n/a	n/a	n/a
1772.142	n/a	DISTRACTOR	886071	n/a	LTP304	ltpFR2	0	7	n/a	n/a	n/a	n/a	0	0	0
1772.148	n/a	PROB	886074	n/a	LTP304	ltpFR2	0	n/a	n/a	n/a	10	9	3	2	4
1775.472	n/a	PROB	887736	n/a	LTP304	ltpFR2	0	n/a	n/a	n/a	10	6	2	1	3
1777.338	n/a	PROB	888669	n/a	LTP304	ltpFR2	0	n/a	n/a	n/a	10	14	3	2	9
1781.092	n/a	PROB	890546	n/a	LTP304	ltpFR2	0	n/a	n/a	n/a	10	20	8	9	3
1784.678	n/a	PROB	892339	n/a	LTP304	ltpFR2	0	n/a	n/a	n/a	10	16	5	9	2
1787.698	n/a	PROB	893849	n/a	LTP304	ltpFR2	0	n/a	n/a	n/a	10	10	3	2	5
1789.8	n/a	PROB	894900	n/a	LTP304	ltpFR2	0	n/a	n/a	n/a	10	14	6	7	1
1792.234	n/a	PROB	896117	n/a	LTP304	ltpFR2	0	n/a	n/a	n/a	10	20	8	8	4
1794.332	n/a	STOP	897166	n/a	LTP304	ltpFR2	0	n/a	n/a	n/a	10	n/a	n/a	n/a	n/a
1797.124	n/a	REC_START	898562	n/a	LTP304	ltpFR2	0	7	n/a	n/a	n/a	n/a	0	0	0
1802.284	n/a	REC_WORD	901142	wordpools/wasnorm_wordpool_576.txt	LTP304	ltpFR2	0	7	PUPPY	1144	n/a	n/a	0	0	0
1803.414	n/a	REC_WORD	901707	wordpools/wasnorm_wordpool_576.txt	LTP304	ltpFR2	0	7	BUNNY	198	n/a	n/a	0	0	0
1804.286	n/a	REC_WORD	902143	wordpools/wasnorm_wordpool_576.txt	LTP304	ltpFR2	0	7	TREAT	1501	n/a	n/a	0	0	0
1805.38	n/a	REC_WORD	902690	wordpools/wasnorm_wordpool_576.txt	LTP304	ltpFR2	0	7	VICTIM	1562	n/a	n/a	0	0	0
1806.282	n/a	REC_WORD	903141	wordpools/wasnorm_wordpool_576.txt	LTP304	ltpFR2	0	7	SUSPECT	1415	n/a	n/a	0	0	0
1807.702	n/a	REC_WORD	903851	wordpools/wasnorm_wordpool_576.txt	LTP304	ltpFR2	0	7	PACKAGE	997	n/a	n/a	0	0	0
1808.92	n/a	REC_WORD	904460	wordpools/wasnorm_wordpool_576.txt	LTP304	ltpFR2	0	7	MEDAL	885	n/a	n/a	0	0	0
1810.104	n/a	REC_WORD	905052	wordpools/wasnorm_wordpool_576.txt	LTP304	ltpFR2	0	7	NECKLACE	940	n/a	n/a	0	0	0
1843.44	n/a	REC_WORD	921720	wordpools/wasnorm_wordpool_576.txt	LTP304	ltpFR2	0	7	BARREL	91	n/a	n/a	0	0	0
1844.872	n/a	REC_WORD	922436	wordpools/wasnorm_wordpool_576.txt	LTP304	ltpFR2	0	7	PORK	1108	n/a	n/a	0	0	0
1887.592	n/a	WORD	943796	wordpools/wasnorm_wordpool_576.txt	LTP304	ltpFR2	0	8	NOMAD	955	n/a	n/a	0	0	0
1890.162	n/a	WORD	945081	wordpools/wasnorm_wordpool_576.txt	LTP304	ltpFR2	0	8	ZIPPER	1636	n/a	n/a	0	0	0
1892.68	n/a	WORD	946340	wordpools/wasnorm_wordpool_576.txt	LTP304	ltpFR2	0	8	CUPBOARD	425	n/a	n/a	0	0	0
1895.198	n/a	WORD	947599	wordpools/wasnorm_wordpool_576.txt	LTP304	ltpFR2	0	8	SKETCH	1315	n/a	n/a	0	0	0
1897.802	n/a	WORD	948901	wordpools/wasnorm_wordpool_576.txt	LTP304	ltpFR2	0	8	BABY	64	n/a	n/a	0	0	0
1900.34	n/a	WORD	950170	wordpools/wasnorm_wordpool_576.txt	LTP304	ltpFR2	0	8	PROTON	1132	n/a	n/a	0	0	0
1902.938	n/a	WORD	951469	wordpools/wasnorm_wordpool_576.txt	LTP304	ltpFR2	0	8	THREAD	1460	n/a	n/a	0	0	0
1905.458	n/a	WORD	952729	wordpools/wasnorm_wordpool_576.txt	LTP304	ltpFR2	0	8	SPOOL	1356	n/a	n/a	0	0	0
1908.262	n/a	WORD	954131	wordpools/wasnorm_wordpool_576.txt	LTP304	ltpFR2	0	8	DRESS	495	n/a	n/a	0	0	0
1910.994	n/a	WORD	955497	wordpools/wasnorm_wordpool_576.txt	LTP304	ltpFR2	0	8	NURSE	963	n/a	n/a	0	0	0
1913.43	n/a	WORD	956715	wordpools/wasnorm_wordpool_576.txt	LTP304	ltpFR2	0	8	CHAUFFEUR	283	n/a	n/a	0	0	0
1916.066	n/a	WORD	958033	wordpools/wasnorm_wordpool_576.txt	LTP304	ltpFR2	0	8	DRIVER	499	n/a	n/a	0	0	0
1918.538	n/a	WORD	959269	wordpools/wasnorm_wordpool_576.txt	LTP304	ltpFR2	0	8	MUFFIN	929	n/a	n/a	0	0	0
1921.324	n/a	WORD	960662	wordpools/wasnorm_wordpool_576.txt	LTP304	ltpFR2	0	8	SEAGULL	1261	n/a	n/a	0	0	0
1923.988	n/a	WORD	961994	wordpools/wasnorm_wordpool_576.txt	LTP304	ltpFR2	0	8	SUBWAY	1400	n/a	n/a	0	0	0
1926.64	n/a	WORD	963320	wordpools/wasnorm_wordpool_576.txt	LTP304	ltpFR2	0	8	TUNNEL	1519	n/a	n/a	0	0	0
1929.076	n/a	WORD	964538	wordpools/wasnorm_wordpool_576.txt	LTP304	ltpFR2	0	8	POLICE	1098	n/a	n/a	0	0	0
1931.6	n/a	WORD	965800	wordpools/wasnorm_wordpool_576.txt	LTP304	ltpFR2	0	8	SUNSET	1408	n/a	n/a	0	0	0
1934.114	n/a	WORD	967057	wordpools/wasnorm_wordpool_576.txt	LTP304	ltpFR2	0	8	PATIENT	1024	n/a	n/a	0	0	0
1936.838	n/a	WORD	968419	wordpools/wasnorm_wordpool_576.txt	LTP304	ltpFR2	0	8	LUGGAGE	847	n/a	n/a	0	0	0
1939.3	n/a	WORD	969650	wordpools/wasnorm_wordpool_576.txt	LTP304	ltpFR2	0	8	KNIFE	785	n/a	n/a	0	0	0
1941.92	n/a	WORD	970960	wordpools/wasnorm_wordpool_576.txt	LTP304	ltpFR2	0	8	PORTRAIT	1111	n/a	n/a	0	0	0
1944.722	n/a	WORD	972361	wordpools/wasnorm_wordpool_576.txt	LTP304	ltpFR2	0	8	SCALPEL	1243	n/a	n/a	0	0	0
1947.206	n/a	WORD	973603	wordpools/wasnorm_wordpool_576.txt	LTP304	ltpFR2	0	8	BUREAU	199	n/a	n/a	0	0	0
1948.816	n/a	START	974408	n/a	LTP304	ltpFR2	0	n/a	n/a	n/a	11	n/a	n/a	n/a	n/a
1949.694	n/a	DISTRACTOR	974847	n/a	LTP304	ltpFR2	0	8	n/a	n/a	n/a	n/a	0	0	0
1949.698	n/a	PROB	974849	n/a	LTP304	ltpFR2	0	n/a	n/a	n/a	11	16	5	7	4
1953.428	n/a	PROB	976714	n/a	LTP304	ltpFR2	0	n/a	n/a	n/a	11	16	4	4	8
1956.412	n/a	PROB	978206	n/a	LTP304	ltpFR2	0	n/a	n/a	n/a	11	15	3	9	3
1958.664	n/a	PROB	979332	n/a	LTP304	ltpFR2	0	n/a	n/a	n/a	11	21	9	5	7
1962.2	n/a	PROB	981100	n/a	LTP304	ltpFR2	0	n/a	n/a	n/a	11	11	5	4	2
1964.818	n/a	PROB	982409	n/a	LTP304	ltpFR2	0	n/a	n/a	n/a	11	14	3	3	8
1966.688	n/a	PROB	983344	n/a	LTP304	ltpFR2	0	n/a	n/a	n/a	11	11	4	3	4
1972.814	n/a	STOP	986407	n/a	LTP304	ltpFR2	0	n/a	n/a	n/a	11	n/a	n/a	n/a	n/a
1974.612	n/a	REC_START	987306	n/a	LTP304	ltpFR2	0	8	n/a	n/a	n/a	n/a	0	0	0
1975.904	n/a	REC_WORD	987952	wordpools/wasnorm_wordpool_576.txt	LTP304	ltpFR2	0	8	NURSE	963	n/a	n/a	0	0	0
1977.14	n/a	REC_WORD	988570	wordpools/wasnorm_wordpool_576.txt	LTP304	ltpFR2	0	8	PATIENT	1024	n/a	n/a	0	0	0
1978.428	n/a	REC_WORD	989214	wordpools/wasnorm_wordpool_576.txt	LTP304	ltpFR2	0	8	KNIFE	785	n/a	n/a	0	0	0
1979.172	n/a	REC_WORD	989586	wordpools/wasnorm_wordpool_576.txt	LTP304	ltpFR2	0	8	SCALPEL	1243	n/a	n/a	0	0	0
1980.802	n/a	REC_WORD	990401	wordpools/wasnorm_wordpool_576.txt	LTP304	ltpFR2	0	8	THREAD	1460	n/a	n/a	0	0	0
1982.172	n/a	REC_WORD	991086	wordpools/wasnorm_wordpool_576.txt	LTP304	ltpFR2	0	8	SPOOL	1356	n/a	n/a	0	0	0
1984.07	n/a	REC_WORD	992035	wordpools/wasnorm_wordpool_576.txt	LTP304	ltpFR2	0	8	NEEDLE	941	n/a	n/a	0	0	0
1986.354	n/a	REC_WORD	993177	wordpools/wasnorm_wordpool_576.txt	LTP304	ltpFR2	0	8	SUBWAY	1400	n/a	n/a	0	0	0
1987.348	n/a	REC_WORD	993674	wordpools/wasnorm_wordpool_576.txt	LTP304	ltpFR2	0	8	TUNNEL	1519	n/a	n/a	0	0	0
1988.27	n/a	REC_WORD	994135	wordpools/wasnorm_wordpool_576.txt	LTP304	ltpFR2	0	8	POLICE	1098	n/a	n/a	0	0	0
1990.066	n/a	REC_WORD	995033	wordpools/wasnorm_wordpool_576.txt	LTP304	ltpFR2	0	8	SEAGULL	1261	n/a	n/a	0	0	0
1991.242	n/a	REC_WORD	995621	wordpools/wasnorm_wordpool_576.txt	LTP304	ltpFR2	0	8	MUFFIN	929	n/a	n/a	0	0	0
1993.758	n/a	REC_WORD	996879	wordpools/wasnorm_wordpool_576.txt	LTP304	ltpFR2	0	8	SKETCH	1315	n/a	n/a	0	0	0
1995.058	n/a	REC_WORD	997529	wordpools/wasnorm_wordpool_576.txt	LTP304	ltpFR2	0	8	NOMAD	955	n/a	n/a	0	0	0
1996.252	n/a	REC_WORD	998126	wordpools/wasnorm_wordpool_576.txt	LTP304	ltpFR2	0	8	CUPBOARD	425	n/a	n/a	0	0	0
1998.23	n/a	REC_WORD	999115	wordpools/wasnorm_wordpool_576.txt	LTP304	ltpFR2	0	8	BABY	64	n/a	n/a	0	0	0
2000.18	n/a	REC_WORD	1000090	wordpools/wasnorm_wordpool_576.txt	LTP304	ltpFR2	0	8	PROTON	1132	n/a	n/a	0	0	0
2026.18	n/a	REC_WORD	1013090	wordpools/wasnorm_wordpool_576.txt	LTP304	ltpFR2	0	8	KNIFE	785	n/a	n/a	0	0	0
2051.152	n/a	REST_REWET	1025576	n/a	LTP304	ltpFR2	0	8	n/a	n/a	n/a	n/a	0	0	0
2434.862	n/a	DISTRACTOR	1217431	n/a	LTP304	ltpFR2	0	9	n/a	n/a	n/a	n/a	0	0	0
2434.862	n/a	START	1217431	n/a	LTP304	ltpFR2	0	n/a	n/a	n/a	12	n/a	n/a	n/a	n/a
2434.878	n/a	PROB	1217439	n/a	LTP304	ltpFR2	0	n/a	n/a	n/a	12	13	6	4	3
2438.254	n/a	PROB	1219127	n/a	LTP304	ltpFR2	0	n/a	n/a	n/a	12	13	5	5	3
2440.09	n/a	PROB	1220045	n/a	LTP304	ltpFR2	0	n/a	n/a	n/a	12	19	8	6	5
2443.258	n/a	PROB	1221629	n/a	LTP304	ltpFR2	0	n/a	n/a	n/a	12	15	8	4	3
2445.26	n/a	PROB	1222630	n/a	LTP304	ltpFR2	0	n/a	n/a	n/a	12	20	5	8	7
2449.348	n/a	PROB	1224674	n/a	LTP304	ltpFR2	0	n/a	n/a	n/a	12	20	5	6	9
2451.616	n/a	PROB	1225808	n/a	LTP304	ltpFR2	0	n/a	n/a	n/a	12	14	8	3	3
2454.152	n/a	PROB	1227076	n/a	LTP304	ltpFR2	0	n/a	n/a	n/a	12	15	2	7	6
2458.86	n/a	STOP	1229430	n/a	LTP304	ltpFR2	0	n/a	n/a	n/a	12	n/a	n/a	n/a	n/a
2459.806	n/a	WORD	1229903	wordpools/wasnorm_wordpool_576.txt	LTP304	ltpFR2	0	9	REPORT	1184	n/a	n/a	0	0	0
2462.576	n/a	WORD	1231288	wordpools/wasnorm_wordpool_576.txt	LTP304	ltpFR2	0	9	NOTEBOOK	959	n/a	n/a	0	0	0
2465.052	n/a	WORD	1232526	wordpools/wasnorm_wordpool_576.txt	LTP304	ltpFR2	0	9	PIMPLE	1071	n/a	n/a	0	0	0
2467.796	n/a	WORD	1233898	wordpools/wasnorm_wordpool_576.txt	LTP304	ltpFR2	0	9	CATTLE	261	n/a	n/a	0	0	0
2470.558	n/a	WORD	1235279	wordpools/wasnorm_wordpool_576.txt	LTP304	ltpFR2	0	9	SLUG	1329	n/a	n/a	0	0	0
2473.342	n/a	WORD	1236671	wordpools/wasnorm_wordpool_576.txt	LTP304	ltpFR2	0	9	WAITRESS	1581	n/a	n/a	0	0	0
2475.996	n/a	WORD	1237998	wordpools/wasnorm_wordpool_576.txt	LTP304	ltpFR2	0	9	COCKTAIL	338	n/a	n/a	0	0	0
2478.556	n/a	WORD	1239278	wordpools/wasnorm_wordpool_576.txt	LTP304	ltpFR2	0	9	BRIEFCASE	175	n/a	n/a	0	0	0
2481.134	n/a	WORD	1240567	wordpools/wasnorm_wordpool_576.txt	LTP304	ltpFR2	0	9	ICING	732	n/a	n/a	0	0	0
2483.608	n/a	WORD	1241804	wordpools/wasnorm_wordpool_576.txt	LTP304	ltpFR2	0	9	HOSTESS	723	n/a	n/a	0	0	0
2486.188	n/a	WORD	1243094	wordpools/wasnorm_wordpool_576.txt	LTP304	ltpFR2	0	9	SNAIL	1332	n/a	n/a	0	0	0
2488.822	n/a	WORD	1244411	wordpools/wasnorm_wordpool_576.txt	LTP304	ltpFR2	0	9	WARDROBE	1587	n/a	n/a	0	0	0
2491.33	n/a	WORD	1245665	wordpools/wasnorm_wordpool_576.txt	LTP304	ltpFR2	0	9	DOUGHNUT	490	n/a	n/a	0	0	0
2494.016	n/a	WORD	1247008	wordpools/wasnorm_wordpool_576.txt	LTP304	ltpFR2	0	9	ZEBRA	1635	n/a	n/a	0	0	0
2496.444	n/a	WORD	1248222	wordpools/wasnorm_wordpool_576.txt	LTP304	ltpFR2	0	9	BOYFRIEND	162	n/a	n/a	0	0	0
2499.032	n/a	WORD	1249516	wordpools/wasnorm_wordpool_576.txt	LTP304	ltpFR2	0	9	BEEF	113	n/a	n/a	0	0	0
2501.59	n/a	WORD	1250795	wordpools/wasnorm_wordpool_576.txt	LTP304	ltpFR2	0	9	PERMIT	1051	n/a	n/a	0	0	0
2504.036	n/a	WORD	1252018	wordpools/wasnorm_wordpool_576.txt	LTP304	ltpFR2	0	9	MOTOR	922	n/a	n/a	0	0	0
2506.52	n/a	WORD	1253260	wordpools/wasnorm_wordpool_576.txt	LTP304	ltpFR2	0	9	FARMER	553	n/a	n/a	0	0	0
2509.204	n/a	WORD	1254602	wordpools/wasnorm_wordpool_576.txt	LTP304	ltpFR2	0	9	SANDWICH	1232	n/a	n/a	0	0	0
2511.81	n/a	WORD	1255905	wordpools/wasnorm_wordpool_576.txt	LTP304	ltpFR2	0	9	MARROW	872	n/a	n/a	0	0	0
2514.528	n/a	WORD	1257264	wordpools/wasnorm_wordpool_576.txt	LTP304	ltpFR2	0	9	CIGAR	308	n/a	n/a	0	0	0
2517.33	n/a	WORD	1258665	wordpools/wasnorm_wordpool_576.txt	LTP304	ltpFR2	0	9	CRUTCH	417	n/a	n/a	0	0	0
2519.804	n/a	WORD	1259902	wordpools/wasnorm_wordpool_576.txt	LTP304	ltpFR2	0	9	ARM	38	n/a	n/a	0	0	0
2521.418	n/a	START	1260709	n/a	LTP304	ltpFR2	0	n/a	n/a	n/a	13	n/a	n/a	n/a	n/a
2522.232	n/a	DISTRACTOR	1261116	n/a	LTP304	ltpFR2	0	9	n/a	n/a	n/a	n/a	0	0	0
2522.238	n/a	PROB	1261119	n/a	LTP304	ltpFR2	0	n/a	n/a	n/a	13	15	8	6	1
2525.758	n/a	PROB	1262879	n/a	LTP304	ltpFR2	0	n/a	n/a	n/a	13	17	4	7	6
2528.338	n/a	PROB	1264169	n/a	LTP304	ltpFR2	0	n/a	n/a	n/a	13	19	4	7	8
2532.776	n/a	PROB	1266388	n/a	LTP304	ltpFR2	0	n/a	n/a	n/a	13	17	1	7	9
2535.018	n/a	PROB	1267509	n/a	LTP304	ltpFR2	0	n/a	n/a	n/a	13	16	6	7	3
2537.696	n/a	PROB	1268848	n/a	LTP304	ltpFR2	0	n/a	n/a	n/a	13	18	9	8	1
2539.364	n/a	PROB	1269682	n/a	LTP304	ltpFR2	0	n/a	n/a	n/a	13	10	4	5	1
2541.282	n/a	PROB	1270641	n/a	LTP304	ltpFR2	0	n/a	n/a	n/a	13	18	8	2	8
2542.97	n/a	PROB	1271485	n/a	LTP304	ltpFR2	0	n/a	n/a	n/a	13	14	6	1	7
2544.648	n/a	STOP	1272324	n/a	LTP304	ltpFR2	0	n/a	n/a	n/a	13	n/a	n/a	n/a	n/a
2547.342	n/a	REC_START	1273671	n/a	LTP304	ltpFR2	0	9	n/a	n/a	n/a	n/a	0	0	0
2548.306	n/a	REC_WORD	1274153	wordpools/wasnorm_wordpool_576.txt	LTP304	ltpFR2	0	9	MARROW	872	n/a	n/a	0	0	0
2549.956	n/a	REC_WORD	1274978	wordpools/wasnorm_wordpool_576.txt	LTP304	ltpFR2	0	9	WAITRESS	1581	n/a	n/a	0	0	0
2551.188	n/a	REC_WORD	1275594	wordpools/wasnorm_wordpool_576.txt	LTP304	ltpFR2	0	9	WARDROBE	1587	n/a	n/a	0	0	0
2552.614	n/a	REC_WORD	1276307	wordpools/wasnorm_wordpool_576.txt	LTP304	ltpFR2	0	9	BRIEFCASE	175	n/a	n/a	0	0	0
2554.362	n/a	REC_WORD	1277181	wordpools/wasnorm_wordpool_576.txt	LTP304	ltpFR2	0	9	JOURNAL	760	n/a	n/a	0	0	0
2555.714	n/a	REC_WORD	1277857	wordpools/wasnorm_wordpool_576.txt	LTP304	ltpFR2	0	9	REPORT	1184	n/a	n/a	0	0	0
2557.16	n/a	REC_WORD	1278580	wordpools/wasnorm_wordpool_576.txt	LTP304	ltpFR2	0	9	CATTLE	261	n/a	n/a	0	0	0
2558.328	n/a	REC_WORD	1279164	wordpools/wasnorm_wordpool_576.txt	LTP304	ltpFR2	0	9	BEEF	113	n/a	n/a	0	0	0
2559.454	n/a	REC_WORD	1279727	wordpools/wasnorm_wordpool_576.txt	LTP304	ltpFR2	0	9	MARROW	872	n/a	n/a	0	0	0
2561.02	n/a	REC_WORD	1280510	wordpools/wasnorm_wordpool_576.txt	LTP304	ltpFR2	0	9	ICING	732	n/a	n/a	0	0	0
2562.55	n/a	REC_WORD	1281275	wordpools/wasnorm_wordpool_576.txt	LTP304	ltpFR2	0	9	DOUGHNUT	490	n/a	n/a	0	0	0
2563.532	n/a	REC_WORD	1281766	wordpools/wasnorm_wordpool_576.txt	LTP304	ltpFR2	0	9	SANDWICH	1232	n/a	n/a	0	0	0
2564.808	n/a	REC_WORD	1282404	wordpools/wasnorm_wordpool_576.txt	LTP304	ltpFR2	0	9	SLUG	1329	n/a	n/a	0	0	0
2566.026	n/a	REC_WORD	1283013	wordpools/wasnorm_wordpool_576.txt	LTP304	ltpFR2	0	9	SNAIL	1332	n/a	n/a	0	0	0
2572.99	n/a	REC_WORD	1286495	wordpools/wasnorm_wordpool_576.txt	LTP304	ltpFR2	0	9	REPORT	1184	n/a	n/a	0	0	0
2577.156	n/a	REC_WORD	1288578	wordpools/wasnorm_wordpool_576.txt	LTP304	ltpFR2	0	9	PERMIT	1051	n/a	n/a	0	0	0
2578.426	n/a	REC_WORD	1289213	wordpools/wasnorm_wordpool_576.txt	LTP304	ltpFR2	0	9	MOTOR	922	n/a	n/a	0	0	0
2581.974	n/a	REC_WORD	1290987	wordpools/wasnorm_wordpool_576.txt	LTP304	ltpFR2	0	9	BOYFRIEND	162	n/a	n/a	0	0	0
2583.046	n/a	REC_WORD	1291523	wordpools/wasnorm_wordpool_576.txt	LTP304	ltpFR2	0	9	FARMER	553	n/a	n/a	0	0	0
2596.128	n/a	REC_WORD	1298064	wordpools/wasnorm_wordpool_576.txt	LTP304	ltpFR2	0	9	CRUTCH	417	n/a	n/a	0	0	0
2597.336	n/a	REC_WORD	1298668	wordpools/wasnorm_wordpool_576.txt	LTP304	ltpFR2	0	9	ARM	38	n/a	n/a	0	0	0
2605.7	n/a	REC_WORD	1302850	wordpools/wasnorm_wordpool_576.txt	LTP304	ltpFR2	0	9	CIGAR	308	n/a	n/a	0	0	0
2637.782	n/a	DISTRACTOR	1318891	n/a	LTP304	ltpFR2	0	10	n/a	n/a	n/a	n/a	0	0	0
2637.782	n/a	START	1318891	n/a	LTP304	ltpFR2	0	n/a	n/a	n/a	14	n/a	n/a	n/a	n/a
2637.798	n/a	PROB	1318899	n/a	LTP304	ltpFR2	0	n/a	n/a	n/a	14	15	9	4	2
2640.762	n/a	PROB	1320381	n/a	LTP304	ltpFR2	0	n/a	n/a	n/a	14	9	3	1	5
2642.564	n/a	PROB	1321282	n/a	LTP304	ltpFR2	0	n/a	n/a	n/a	14	12	6	2	4
2644.682	n/a	PROB	1322341	n/a	LTP304	ltpFR2	0	n/a	n/a	n/a	14	24	8	8	8
2646.4	n/a	PROB	1323200	n/a	LTP304	ltpFR2	0	n/a	n/a	n/a	14	14	6	6	2
2648.986	n/a	PROB	1324493	n/a	LTP304	ltpFR2	0	n/a	n/a	n/a	14	12	7	3	1
2652.156	n/a	PROB	1326078	n/a	LTP304	ltpFR2	0	n/a	n/a	n/a	14	15	7	2	6
2657.342	n/a	PROB	1328671	n/a	LTP304	ltpFR2	0	n/a	n/a	n/a	14	17	7	9	1
2659.062	n/a	PROB	1329531	n/a	LTP304	ltpFR2	0	n/a	n/a	n/a	14	10	4	5	1
2661.018	n/a	STOP	1330509	n/a	LTP304	ltpFR2	0	n/a	n/a	n/a	14	n/a	n/a	n/a	n/a
2662.764	n/a	WORD	1331382	wordpools/wasnorm_wordpool_576.txt	LTP304	ltpFR2	0	10	STAMP	1370	n/a	n/a	0	0	0
2665.434	n/a	WORD	1332717	wordpools/wasnorm_wordpool_576.txt	LTP304	ltpFR2	0	10	MESSAGE	888	n/a	n/a	0	0	0
2668.142	n/a	WORD	1334071	wordpools/wasnorm_wordpool_576.txt	LTP304	ltpFR2	0	10	COUNTRY	388	n/a	n/a	0	0	0
2670.622	n/a	WORD	1335311	wordpools/wasnorm_wordpool_576.txt	LTP304	ltpFR2	0	10	ASIA	46	n/a	n/a	0	0	0
2673.178	n/a	WORD	1336589	wordpools/wasnorm_wordpool_576.txt	LTP304	ltpFR2	0	10	MARKET	871	n/a	n/a	0	0	0
2675.632	n/a	WORD	1337816	wordpools/wasnorm_wordpool_576.txt	LTP304	ltpFR2	0	10	SCISSORS	1250	n/a	n/a	0	0	0
2678.16	n/a	WORD	1339080	wordpools/wasnorm_wordpool_576.txt	LTP304	ltpFR2	0	10	FLIPPER	580	n/a	n/a	0	0	0
2680.902	n/a	WORD	1340451	wordpools/wasnorm_wordpool_576.txt	LTP304	ltpFR2	0	10	BALLOON	75	n/a	n/a	0	0	0
2683.414	n/a	WORD	1341707	wordpools/wasnorm_wordpool_576.txt	LTP304	ltpFR2	0	10	DRILL	497	n/a	n/a	0	0	0
2685.956	n/a	WORD	1342978	wordpools/wasnorm_wordpool_576.txt	LTP304	ltpFR2	0	10	WASHER	1592	n/a	n/a	0	0	0
2688.542	n/a	WORD	1344271	wordpools/wasnorm_wordpool_576.txt	LTP304	ltpFR2	0	10	COOKBOOK	373	n/a	n/a	0	0	0
2690.986	n/a	WORD	1345493	wordpools/wasnorm_wordpool_576.txt	LTP304	ltpFR2	0	10	MATTRESS	879	n/a	n/a	0	0	0
2693.612	n/a	WORD	1346806	wordpools/wasnorm_wordpool_576.txt	LTP304	ltpFR2	0	10	CAPTIVE	240	n/a	n/a	0	0	0
2696.19	n/a	WORD	1348095	wordpools/wasnorm_wordpool_576.txt	LTP304	ltpFR2	0	10	DRESSER	496	n/a	n/a	0	0	0
2698.876	n/a	WORD	1349438	wordpools/wasnorm_wordpool_576.txt	LTP304	ltpFR2	0	10	SODA	1341	n/a	n/a	0	0	0
2701.378	n/a	WORD	1350689	wordpools/wasnorm_wordpool_576.txt	LTP304	ltpFR2	0	10	ROBBER	1197	n/a	n/a	0	0	0
2704.138	n/a	WORD	1352069	wordpools/wasnorm_wordpool_576.txt	LTP304	ltpFR2	0	10	MONSTER	912	n/a	n/a	0	0	0
2706.898	n/a	WORD	1353449	wordpools/wasnorm_wordpool_576.txt	LTP304	ltpFR2	0	10	APRON	35	n/a	n/a	0	0	0
2709.426	n/a	WORD	1354713	wordpools/wasnorm_wordpool_576.txt	LTP304	ltpFR2	0	10	MEAT	883	n/a	n/a	0	0	0
2712.178	n/a	WORD	1356089	wordpools/wasnorm_wordpool_576.txt	LTP304	ltpFR2	0	10	IDOL	733	n/a	n/a	0	0	0
2714.938	n/a	WORD	1357469	wordpools/wasnorm_wordpool_576.txt	LTP304	ltpFR2	0	10	VENUS	1557	n/a	n/a	0	0	0
2717.568	n/a	WORD	1358784	wordpools/wasnorm_wordpool_576.txt	LTP304	ltpFR2	0	10	POSSUM	1112	n/a	n/a	0	0	0
2720.12	n/a	WORD	1360060	wordpools/wasnorm_wordpool_576.txt	LTP304	ltpFR2	0	10	SALMON	1227	n/a	n/a	0	0	0
2722.678	n/a	WORD	1361339	wordpools/wasnorm_wordpool_576.txt	LTP304	ltpFR2	0	10	INMATE	738	n/a	n/a	0	0	0
2724.29	n/a	START	1362145	n/a	LTP304	ltpFR2	0	n/a	n/a	n/a	15	n/a	n/a	n/a	n/a
2725.23	n/a	DISTRACTOR	1362615	n/a	LTP304	ltpFR2	0	10	n/a	n/a	n/a	n/a	0	0	0
2725.24	n/a	PROB	1362620	n/a	LTP304	ltpFR2	0	n/a	n/a	n/a	15	9	3	3	3
2727.114	n/a	PROB	1363557	n/a	LTP304	ltpFR2	0	n/a	n/a	n/a	15	19	7	9	3
2730.232	n/a	PROB	1365116	n/a	LTP304	ltpFR2	0	n/a	n/a	n/a	15	17	3	4	5
2733.518	n/a	PROB	1366759	n/a	LTP304	ltpFR2	0	n/a	n/a	n/a	15	23	7	9	7
2737.106	n/a	PROB	1368553	n/a	LTP304	ltpFR2	0	n/a	n/a	n/a	15	8	1	6	1
2738.524	n/a	PROB	1369262	n/a	LTP304	ltpFR2	0	n/a	n/a	n/a	15	20	9	9	8
2741.24	n/a	PROB	1370620	n/a	LTP304	ltpFR2	0	n/a	n/a	n/a	15	15	9	3	3
2744.762	n/a	PROB	1372381	n/a	LTP304	ltpFR2	0	n/a	n/a	n/a	15	18	8	7	3
2746.932	n/a	STOP	1373466	n/a	LTP304	ltpFR2	0	n/a	n/a	n/a	15	n/a	n/a	n/a	n/a
2750.098	n/a	REC_START	1375049	n/a	LTP304	ltpFR2	0	10	n/a	n/a	n/a	n/a	0	0	0
2750.838	n/a	REC_WORD	1375419	wordpools/wasnorm_wordpool_576.txt	LTP304	ltpFR2	0	10	CAPTIVE	240	n/a	n/a	0	0	0
2752.328	n/a	REC_WORD	1376164	wordpools/wasnorm_wordpool_576.txt	LTP304	ltpFR2	0	10	INMATE	738	n/a	n/a	0	0	0
2753.39	n/a	REC_WORD	1376695	wordpools/wasnorm_wordpool_576.txt	LTP304	ltpFR2	0	10	STAMP	1370	n/a	n/a	0	0	0
2754.736	n/a	REC_WORD	1377368	wordpools/wasnorm_wordpool_576.txt	LTP304	ltpFR2	0	10	MESSAGE	888	n/a	n/a	0	0	0
2756.01	n/a	REC_WORD	1378005	wordpools/wasnorm_wordpool_576.txt	LTP304	ltpFR2	0	10	COUNTRY	388	n/a	n/a	0	0	0
2757.18	n/a	REC_WORD	1378590	wordpools/wasnorm_wordpool_576.txt	LTP304	ltpFR2	0	10	ASIA	46	n/a	n/a	0	0	0
2758.19	n/a	REC_WORD	1379095	wordpools/wasnorm_wordpool_576.txt	LTP304	ltpFR2	0	10	COOKBOOK	373	n/a	n/a	0	0	0
2760.56	n/a	REC_WORD	1380280	wordpools/wasnorm_wordpool_576.txt	LTP304	ltpFR2	0	10	SCISSORS	1250	n/a	n/a	0	0	0
2761.662	n/a	REC_WORD	1380831	wordpools/wasnorm_wordpool_576.txt	LTP304	ltpFR2	0	10	FLIPPER	580	n/a	n/a	0	0	0
2763.17	n/a	REC_WORD	1381585	wordpools/wasnorm_wordpool_576.txt	LTP304	ltpFR2	0	10	DRILL	497	n/a	n/a	0	0	0
2764.52	n/a	REC_WORD	1382260	wordpools/wasnorm_wordpool_576.txt	LTP304	ltpFR2	0	10	WASHER	1592	n/a	n/a	0	0	0
2766.404	n/a	REC_WORD	1383202	wordpools/wasnorm_wordpool_576.txt	LTP304	ltpFR2	0	10	MARKET	871	n/a	n/a	0	0	0
2768.758	n/a	REC_WORD	1384379	wordpools/wasnorm_wordpool_576.txt	LTP304	ltpFR2	0	10	APRON	35	n/a	n/a	0	0	0
2772.982	n/a	REC_WORD	1386491	wordpools/wasnorm_wordpool_576.txt	LTP304	ltpFR2	0	10	MEAT	883	n/a	n/a	0	0	0
2779.33	n/a	REC_WORD	1389665	wordpools/wasnorm_wordpool_576.txt	LTP304	ltpFR2	0	10	POSSUM	1112	n/a	n/a	0	0	0
2780.448	n/a	REC_WORD	1390224	wordpools/wasnorm_wordpool_576.txt	LTP304	ltpFR2	0	10	SALMON	1227	n/a	n/a	0	0	0
2822.42	n/a	REC_WORD	1411210	wordpools/wasnorm_wordpool_576.txt	LTP304	ltpFR2	0	10	BALLOON	75	n/a	n/a	0	0	0
2840.568	n/a	WORD	1420284	wordpools/wasnorm_wordpool_576.txt	LTP304	ltpFR2	0	11	GAZELLE	628	n/a	n/a	0	0	0
2843.006	n/a	WORD	1421503	wordpools/wasnorm_wordpool_576.txt	LTP304	ltpFR2	0	11	CANAL	226	n/a	n/a	0	0	0
2845.826	n/a	WORD	1422913	wordpools/wasnorm_wordpool_576.txt	LTP304	ltpFR2	0	11	CLOCK	325	n/a	n/a	0	0	0
2848.56	n/a	WORD	1424280	wordpools/wasnorm_wordpool_576.txt	LTP304	ltpFR2	0	11	COWBOY	395	n/a	n/a	0	0	0
2851.096	n/a	WORD	1425548	wordpools/wasnorm_wordpool_576.txt	LTP304	ltpFR2	0	11	SPOON	1357	n/a	n/a	0	0	0
2853.848	n/a	WORD	1426924	wordpools/wasnorm_wordpool_576.txt	LTP304	ltpFR2	0	11	CITRUS	313	n/a	n/a	0	0	0
2856.498	n/a	WORD	1428249	wordpools/wasnorm_wordpool_576.txt	LTP304	ltpFR2	0	11	TABLE	1426	n/a	n/a	0	0	0
2859.166	n/a	WORD	1429583	wordpools/wasnorm_wordpool_576.txt	LTP304	ltpFR2	0	11	BEAKER	104	n/a	n/a	0	0	0
2861.704	n/a	WORD	1430852	wordpools/wasnorm_wordpool_576.txt	LTP304	ltpFR2	0	11	ORANGE	980	n/a	n/a	0	0	0
2864.388	n/a	WORD	1432194	wordpools/wasnorm_wordpool_576.txt	LTP304	ltpFR2	0	11	QUAIL	1147	n/a	n/a	0	0	0
2867.192	n/a	WORD	1433596	wordpools/wasnorm_wordpool_576.txt	LTP304	ltpFR2	0	11	RACKET	1155	n/a	n/a	0	0	0
2869.844	n/a	WORD	1434922	wordpools/wasnorm_wordpool_576.txt	LTP304	ltpFR2	0	11	TRIBE	1505	n/a	n/a	0	0	0
2872.398	n/a	WORD	1436199	wordpools/wasnorm_wordpool_576.txt	LTP304	ltpFR2	0	11	UNCLE	1536	n/a	n/a	0	0	0
2875.098	n/a	WORD	1437549	wordpools/wasnorm_wordpool_576.txt	LTP304	ltpFR2	0	11	STUDENT	1395	n/a	n/a	0	0	0
2877.598	n/a	WORD	1438799	wordpools/wasnorm_wordpool_576.txt	LTP304	ltpFR2	0	11	BLACKBOARD	133	n/a	n/a	0	0	0
2880.284	n/a	WORD	1440142	wordpools/wasnorm_wordpool_576.txt	LTP304	ltpFR2	0	11	PARSLEY	1016	n/a	n/a	0	0	0
2883.054	n/a	WORD	1441527	wordpools/wasnorm_wordpool_576.txt	LTP304	ltpFR2	0	11	AIRPLANE	12	n/a	n/a	0	0	0
2885.526	n/a	WORD	1442763	wordpools/wasnorm_wordpool_576.txt	LTP304	ltpFR2	0	11	VIRUS	1572	n/a	n/a	0	0	0
2888.112	n/a	WORD	1444056	wordpools/wasnorm_wordpool_576.txt	LTP304	ltpFR2	0	11	CRITIC	410	n/a	n/a	0	0	0
2890.758	n/a	WORD	1445379	wordpools/wasnorm_wordpool_576.txt	LTP304	ltpFR2	0	11	POPCORN	1104	n/a	n/a	0	0	0
2893.46	n/a	WORD	1446730	wordpools/wasnorm_wordpool_576.txt	LTP304	ltpFR2	0	11	TOASTER	1472	n/a	n/a	0	0	0
2896.014	n/a	WORD	1448007	wordpools/wasnorm_wordpool_576.txt	LTP304	ltpFR2	0	11	PRINCESS	1125	n/a	n/a	0	0	0
2898.754	n/a	WORD	1449377	wordpools/wasnorm_wordpool_576.txt	LTP304	ltpFR2	0	11	CROWN	415	n/a	n/a	0	0	0
2901.216	n/a	WORD	1450608	wordpools/wasnorm_wordpool_576.txt	LTP304	ltpFR2	0	11	CREATURE	403	n/a	n/a	0	0	0
2902.826	n/a	START	1451413	n/a	LTP304	ltpFR2	0	n/a	n/a	n/a	16	n/a	n/a	n/a	n/a
2904.024	n/a	DISTRACTOR	1452012	n/a	LTP304	ltpFR2	0	11	n/a	n/a	n/a	n/a	0	0	0
2904.036	n/a	PROB	1452018	n/a	LTP304	ltpFR2	0	n/a	n/a	n/a	16	10	2	3	5
2906.656	n/a	PROB	1453328	n/a	LTP304	ltpFR2	0	n/a	n/a	n/a	16	19	6	7	6
2910.658	n/a	PROB	1455329	n/a	LTP304	ltpFR2	0	n/a	n/a	n/a	16	20	6	8	6
2913.11	n/a	PROB	1456555	n/a	LTP304	ltpFR2	0	n/a	n/a	n/a	16	16	7	3	6
2914.794	n/a	PROB	1457397	n/a	LTP304	ltpFR2	0	n/a	n/a	n/a	16	23	6	9	8
2919.148	n/a	PROB	1459574	n/a	LTP304	ltpFR2	0	n/a	n/a	n/a	16	14	8	3	3
2920.85	n/a	PROB	1460425	n/a	LTP304	ltpFR2	0	n/a	n/a	n/a	16	14	8	5	1
2922.634	n/a	PROB	1461317	n/a	LTP304	ltpFR2	0	n/a	n/a	n/a	16	18	4	9	5
2925.982	n/a	STOP	1462991	n/a	LTP304	ltpFR2	0	n/a	n/a	n/a	16	n/a	n/a	n/a	n/a
2928.67	n/a	REC_START	1464335	n/a	LTP304	ltpFR2	0	11	n/a	n/a	n/a	n/a	0	0	0
2929.344	n/a	REC_WORD	1464672	wordpools/wasnorm_wordpool_576.txt	LTP304	ltpFR2	0	11	GAZELLE	628	n/a	n/a	0	0	0
2930.5	n/a	REC_WORD	1465250	wordpools/wasnorm_wordpool_576.txt	LTP304	ltpFR2	0	11	WALL	1582	n/a	n/a	0	0	0
2931.654	n/a	REC_WORD	1465827	wordpools/wasnorm_wordpool_576.txt	LTP304	ltpFR2	0	11	COWBOY	395	n/a	n/a	0	0	0
2932.982	n/a	REC_WORD	1466491	wordpools/wasnorm_wordpool_576.txt	LTP304	ltpFR2	0	11	SPOON	1357	n/a	n/a	0	0	0
2934.718	n/a	REC_WORD	1467359	wordpools/wasnorm_wordpool_576.txt	LTP304	ltpFR2	0	11	CITRUS	313	n/a	n/a	0	0	0
2937.34	n/a	REC_WORD	1468670	wordpools/wasnorm_wordpool_576.txt	LTP304	ltpFR2	0	11	ORANGE	980	n/a	n/a	0	0	0
2938.562	n/a	REC_WORD	1469281	wordpools/wasnorm_wordpool_576.txt	LTP304	ltpFR2	0	11	BEAKER	104	n/a	n/a	0	0	0
2939.77	n/a	REC_WORD	1469885	wordpools/wasnorm_wordpool_576.txt	LTP304	ltpFR2	0	11	UNCLE	1536	n/a	n/a	0	0	0
2940.65	n/a	REC_WORD	1470325	wordpools/wasnorm_wordpool_576.txt	LTP304	ltpFR2	0	11	STUDENT	1395	n/a	n/a	0	0	0
2941.972	n/a	REC_WORD	1470986	wordpools/wasnorm_wordpool_576.txt	LTP304	ltpFR2	0	11	CHOCOLATE	306	n/a	n/a	0	0	0
2947.472	n/a	REC_WORD	1473736	wordpools/wasnorm_wordpool_576.txt	LTP304	ltpFR2	0	11	PRINCESS	1125	n/a	n/a	0	0	0
2948.696	n/a	REC_WORD	1474348	wordpools/wasnorm_wordpool_576.txt	LTP304	ltpFR2	0	11	CROWN	415	n/a	n/a	0	0	0
2956.224	n/a	REC_WORD	1478112	wordpools/wasnorm_wordpool_576.txt	LTP304	ltpFR2	0	11	BOARD	143	n/a	n/a	0	0	0
2960.538	n/a	REC_WORD	1480269	wordpools/wasnorm_wordpool_576.txt	LTP304	ltpFR2	0	11	VIRUS	1572	n/a	n/a	0	0	0
2961.852	n/a	REC_WORD	1480926	wordpools/wasnorm_wordpool_576.txt	LTP304	ltpFR2	0	11	AIRPLANE	12	n/a	n/a	0	0	0
2965.694	n/a	REC_WORD	1482847	wordpools/wasnorm_wordpool_576.txt	LTP304	ltpFR2	0	11	TRIBE	1505	n/a	n/a	0	0	0
2967.306	n/a	REC_WORD	1483653	wordpools/wasnorm_wordpool_576.txt	LTP304	ltpFR2	0	11	QUAIL	1147	n/a	n/a	0	0	0
2968.5	n/a	REC_WORD	1484250	wordpools/wasnorm_wordpool_576.txt	LTP304	ltpFR2	0	11	RACKET	1155	n/a	n/a	0	0	0
2984.17	n/a	REC_WORD	1492085	wordpools/wasnorm_wordpool_576.txt	LTP304	ltpFR2	0	11	PARSLEY	1016	n/a	n/a	0	0	0
3026.882	n/a	DISTRACTOR	1513441	n/a	LTP304	ltpFR2	0	12	n/a	n/a	n/a	n/a	0	0	0
3026.884	n/a	START	1513442	n/a	LTP304	ltpFR2	0	n/a	n/a	n/a	17	n/a	n/a	n/a	n/a
3026.898	n/a	PROB	1513449	n/a	LTP304	ltpFR2	0	n/a	n/a	n/a	17	24	9	8	7
3033.536	n/a	PROB	1516768	n/a	LTP304	ltpFR2	0	n/a	n/a	n/a	17	18	9	4	5
3035.47	n/a	PROB	1517735	n/a	LTP304	ltpFR2	0	n/a	n/a	n/a	17	15	1	6	8
3038.306	n/a	PROB	1519153	n/a	LTP304	ltpFR2	0	n/a	n/a	n/a	17	11	1	7	3
3041.544	n/a	PROB	1520772	n/a	LTP304	ltpFR2	0	n/a	n/a	n/a	17	8	4	1	3
3043.494	n/a	PROB	1521747	n/a	LTP304	ltpFR2	0	n/a	n/a	n/a	17	18	1	8	9
3045.48	n/a	PROB	1522740	n/a	LTP304	ltpFR2	0	n/a	n/a	n/a	17	12	5	1	6
3050.882	n/a	STOP	1525441	n/a	LTP304	ltpFR2	0	n/a	n/a	n/a	17	n/a	n/a	n/a	n/a
3052.018	n/a	WORD	1526009	wordpools/wasnorm_wordpool_576.txt	LTP304	ltpFR2	0	12	POET	1095	n/a	n/a	0	0	0
3054.62	n/a	WORD	1527310	wordpools/wasnorm_wordpool_576.txt	LTP304	ltpFR2	0	12	DAISY	435	n/a	n/a	0	0	0
3057.356	n/a	WORD	1528678	wordpools/wasnorm_wordpool_576.txt	LTP304	ltpFR2	0	12	FLASHLIGHT	575	n/a	n/a	0	0	0
3060.042	n/a	WORD	1530021	wordpools/wasnorm_wordpool_576.txt	LTP304	ltpFR2	0	12	WRENCH	1625	n/a	n/a	0	0	0
3062.61	n/a	WORD	1531305	wordpools/wasnorm_wordpool_576.txt	LTP304	ltpFR2	0	12	BUG	187	n/a	n/a	0	0	0
3065.128	n/a	WORD	1532564	wordpools/wasnorm_wordpool_576.txt	LTP304	ltpFR2	0	12	HAMPER	682	n/a	n/a	0	0	0
3067.848	n/a	WORD	1533924	wordpools/wasnorm_wordpool_576.txt	LTP304	ltpFR2	0	12	BUTCHER	203	n/a	n/a	0	0	0
3070.616	n/a	WORD	1535308	wordpools/wasnorm_wordpool_576.txt	LTP304	ltpFR2	0	12	BANJO	82	n/a	n/a	0	0	0
3073.15	n/a	WORD	1536575	wordpools/wasnorm_wordpool_576.txt	LTP304	ltpFR2	0	12	LASER	801	n/a	n/a	0	0	0
3075.92	n/a	WORD	1537960	wordpools/wasnorm_wordpool_576.txt	LTP304	ltpFR2	0	12	ACTRESS	6	n/a	n/a	0	0	0
3078.556	n/a	WORD	1539278	wordpools/wasnorm_wordpool_576.txt	LTP304	ltpFR2	0	12	SPOUSE	1358	n/a	n/a	0	0	0
3081.306	n/a	WORD	1540653	wordpools/wasnorm_wordpool_576.txt	LTP304	ltpFR2	0	12	HUSBAND	728	n/a	n/a	0	0	0
3084.01	n/a	WORD	1542005	wordpools/wasnorm_wordpool_576.txt	LTP304	ltpFR2	0	12	HOOD	714	n/a	n/a	0	0	0
3086.662	n/a	WORD	1543331	wordpools/wasnorm_wordpool_576.txt	LTP304	ltpFR2	0	12	TAXI	1438	n/a	n/a	0	0	0
3089.212	n/a	WORD	1544606	wordpools/wasnorm_wordpool_576.txt	LTP304	ltpFR2	0	12	SIBLING	1301	n/a	n/a	0	0	0
3091.666	n/a	WORD	1545833	wordpools/wasnorm_wordpool_576.txt	LTP304	ltpFR2	0	12	EGYPT	519	n/a	n/a	0	0	0
3094.468	n/a	WORD	1547234	wordpools/wasnorm_wordpool_576.txt	LTP304	ltpFR2	0	12	GAVEL	627	n/a	n/a	0	0	0
3097.086	n/a	WORD	1548543	wordpools/wasnorm_wordpool_576.txt	LTP304	ltpFR2	0	12	HEADBAND	696	n/a	n/a	0	0	0
3099.64	n/a	WORD	1549820	wordpools/wasnorm_wordpool_576.txt	LTP304	ltpFR2	0	12	SCARF	1246	n/a	n/a	0	0	0
3102.458	n/a	WORD	1551229	wordpools/wasnorm_wordpool_576.txt	LTP304	ltpFR2	0	12	POSTAGE	1113	n/a	n/a	0	0	0
3105.144	n/a	WORD	1552572	wordpools/wasnorm_wordpool_576.txt	LTP304	ltpFR2	0	12	FRUIT	610	n/a	n/a	0	0	0
3107.746	n/a	WORD	1553873	wordpools/wasnorm_wordpool_576.txt	LTP304	ltpFR2	0	12	CANYON	235	n/a	n/a	0	0	0
3110.314	n/a	WORD	1555157	wordpools/wasnorm_wordpool_576.txt	LTP304	ltpFR2	0	12	SEAL	1262	n/a	n/a	0	0	0
3112.984	n/a	WORD	1556492	wordpools/wasnorm_wordpool_576.txt	LTP304	ltpFR2	0	12	BELLY	119	n/a	n/a	0	0	0
3114.59	n/a	START	1557295	n/a	LTP304	ltpFR2	0	n/a	n/a	n/a	18	n/a	n/a	n/a	n/a
3115.584	n/a	DISTRACTOR	1557792	n/a	LTP304	ltpFR2	0	12	n/a	n/a	n/a	n/a	0	0	0
3115.602	n/a	PROB	1557801	n/a	LTP304	ltpFR2	0	n/a	n/a	n/a	18	9	4	2	3
3118.234	n/a	PROB	1559117	n/a	LTP304	ltpFR2	0	n/a	n/a	n/a	18	25	8	8	9
3124.308	n/a	PROB	1562154	n/a	LTP304	ltpFR2	0	n/a	n/a	n/a	18	17	3	7	7
3126.726	n/a	PROB	1563363	n/a	LTP304	ltpFR2	0	n/a	n/a	n/a	18	19	8	8	3
3129.028	n/a	PROB	1564514	n/a	LTP304	ltpFR2	0	n/a	n/a	n/a	18	19	8	2	9
3130.88	n/a	PROB	1565440	n/a	LTP304	ltpFR2	0	n/a	n/a	n/a	18	17	2	8	7
3132.546	n/a	PROB	1566273	n/a	LTP304	ltpFR2	0	n/a	n/a	n/a	18	16	6	7	3
3134.464	n/a	PROB	1567232	n/a	LTP304	ltpFR2	0	n/a	n/a	n/a	18	13	1	5	7
3137.29	n/a	STOP	1568645	n/a	LTP304	ltpFR2	0	n/a	n/a	n/a	18	n/a	n/a	n/a	n/a
3140.486	n/a	REC_START	1570243	n/a	LTP304	ltpFR2	0	12	n/a	n/a	n/a	n/a	0	0	0
3141.116	n/a	REC_WORD	1570558	wordpools/wasnorm_wordpool_576.txt	LTP304	ltpFR2	0	12	GAVEL	627	n/a	n/a	0	0	0
3142.406	n/a	REC_WORD	1571203	wordpools/wasnorm_wordpool_576.txt	LTP304	ltpFR2	0	12	BELLY	119	n/a	n/a	0	0	0
3145.136	n/a	REC_WORD	1572568	wordpools/wasnorm_wordpool_576.txt	LTP304	ltpFR2	0	12	SCARF	1246	n/a	n/a	0	0	0
3146.258	n/a	REC_WORD	1573129	wordpools/wasnorm_wordpool_576.txt	LTP304	ltpFR2	0	12	FLASHLIGHT	575	n/a	n/a	0	0	0
3148.69	n/a	REC_WORD	1574345	wordpools/wasnorm_wordpool_576.txt	LTP304	ltpFR2	0	12	POET	1095	n/a	n/a	0	0	0
3151.278	n/a	REC_WORD	1575639	wordpools/wasnorm_wordpool_576.txt	LTP304	ltpFR2	0	12	DAISY	435	n/a	n/a	0	0	0
3153.198	n/a	REC_WORD	1576599	wordpools/wasnorm_wordpool_576.txt	LTP304	ltpFR2	0	12	WRENCH	1625	n/a	n/a	0	0	0
3154.176	n/a	REC_WORD	1577088	wordpools/wasnorm_wordpool_576.txt	LTP304	ltpFR2	0	12	BUG	187	n/a	n/a	0	0	0
3155.214	n/a	REC_WORD	1577607	wordpools/wasnorm_wordpool_576.txt	LTP304	ltpFR2	0	12	TENT	1449	n/a	n/a	0	0	0
3156.98	n/a	REC_WORD	1578490	wordpools/wasnorm_wordpool_576.txt	LTP304	ltpFR2	0	12	HUSBAND	728	n/a	n/a	0	0	0
3159.882	n/a	REC_WORD	1579941	wordpools/wasnorm_wordpool_576.txt	LTP304	ltpFR2	0	12	SPOUSE	1358	n/a	n/a	0	0	0
3230.934	n/a	WORD	1615467	wordpools/wasnorm_wordpool_576.txt	LTP304	ltpFR2	0	13	IGLOO	734	n/a	n/a	0	0	0
3233.426	n/a	WORD	1616713	wordpools/wasnorm_wordpool_576.txt	LTP304	ltpFR2	0	13	ROOSTER	1209	n/a	n/a	0	0	0
3235.958	n/a	WORD	1617979	wordpools/wasnorm_wordpool_576.txt	LTP304	ltpFR2	0	13	WITNESS	1618	n/a	n/a	0	0	0
3238.632	n/a	WORD	1619316	wordpools/wasnorm_wordpool_576.txt	LTP304	ltpFR2	0	13	SEAFOOD	1260	n/a	n/a	0	0	0
3241.26	n/a	WORD	1620630	wordpools/wasnorm_wordpool_576.txt	LTP304	ltpFR2	0	13	OYSTER	995	n/a	n/a	0	0	0
3243.78	n/a	WORD	1621890	wordpools/wasnorm_wordpool_576.txt	LTP304	ltpFR2	0	13	FLOWER	584	n/a	n/a	0	0	0
3246.382	n/a	WORD	1623191	wordpools/wasnorm_wordpool_576.txt	LTP304	ltpFR2	0	13	GARDEN	623	n/a	n/a	0	0	0
3248.906	n/a	WORD	1624453	wordpools/wasnorm_wordpool_576.txt	LTP304	ltpFR2	0	13	BROTHER	179	n/a	n/a	0	0	0
3251.504	n/a	WORD	1625752	wordpools/wasnorm_wordpool_576.txt	LTP304	ltpFR2	0	13	JUDGE	761	n/a	n/a	0	0	0
3253.99	n/a	WORD	1626995	wordpools/wasnorm_wordpool_576.txt	LTP304	ltpFR2	0	13	MOP	916	n/a	n/a	0	0	0
3256.458	n/a	WORD	1628229	wordpools/wasnorm_wordpool_576.txt	LTP304	ltpFR2	0	13	RIVER	1194	n/a	n/a	0	0	0
3259.23	n/a	WORD	1629615	wordpools/wasnorm_wordpool_576.txt	LTP304	ltpFR2	0	13	BURGLAR	200	n/a	n/a	0	0	0
3261.8	n/a	WORD	1630900	wordpools/wasnorm_wordpool_576.txt	LTP304	ltpFR2	0	13	GARBAGE	622	n/a	n/a	0	0	0
3264.446	n/a	WORD	1632223	wordpools/wasnorm_wordpool_576.txt	LTP304	ltpFR2	0	13	BOUQUET	157	n/a	n/a	0	0	0
3267.0	n/a	WORD	1633500	wordpools/wasnorm_wordpool_576.txt	LTP304	ltpFR2	0	13	THRONE	1461	n/a	n/a	0	0	0
3269.786	n/a	WORD	1634893	wordpools/wasnorm_wordpool_576.txt	LTP304	ltpFR2	0	13	LOFT	840	n/a	n/a	0	0	0
3272.27	n/a	WORD	1636135	wordpools/wasnorm_wordpool_576.txt	LTP304	ltpFR2	0	13	CARRIAGE	248	n/a	n/a	0	0	0
3274.94	n/a	WORD	1637470	wordpools/wasnorm_wordpool_576.txt	LTP304	ltpFR2	0	13	PEACH	1031	n/a	n/a	0	0	0
3277.66	n/a	WORD	1638830	wordpools/wasnorm_wordpool_576.txt	LTP304	ltpFR2	0	13	EMPIRE	530	n/a	n/a	0	0	0
3280.16	n/a	WORD	1640080	wordpools/wasnorm_wordpool_576.txt	LTP304	ltpFR2	0	13	CONVICT	371	n/a	n/a	0	0	0
3282.63	n/a	WORD	1641315	wordpools/wasnorm_wordpool_576.txt	LTP304	ltpFR2	0	13	OUTDOORS	987	n/a	n/a	0	0	0
3285.382	n/a	WORD	1642691	wordpools/wasnorm_wordpool_576.txt	LTP304	ltpFR2	0	13	TILE	1468	n/a	n/a	0	0	0
3287.952	n/a	WORD	1643976	wordpools/wasnorm_wordpool_576.txt	LTP304	ltpFR2	0	13	CREVICE	405	n/a	n/a	0	0	0
3290.604	n/a	WORD	1645302	wordpools/wasnorm_wordpool_576.txt	LTP304	ltpFR2	0	13	ROD	1203	n/a	n/a	0	0	0
3292.222	n/a	START	1646111	n/a	LTP304	ltpFR2	0	n/a	n/a	n/a	19	n/a	n/a	n/a	n/a
3293.112	n/a	DISTRACTOR	1646556	n/a	LTP304	ltpFR2	0	13	n/a	n/a	n/a	n/a	0	0	0
3293.122	n/a	PROB	1646561	n/a	LTP304	ltpFR2	0	n/a	n/a	n/a	19	8	1	1	6
3295.156	n/a	PROB	1647578	n/a	LTP304	ltpFR2	0	n/a	n/a	n/a	19	6	3	1	2
3297.308	n/a	PROB	1648654	n/a	LTP304	ltpFR2	0	n/a	n/a	n/a	19	17	8	1	8
3299.944	n/a	PROB	1649972	n/a	LTP304	ltpFR2	0	n/a	n/a	n/a	19	10	1	5	4
3301.928	n/a	PROB	1650964	n/a	LTP304	ltpFR2	0	n/a	n/a	n/a	19	14	1	9	4
3303.564	n/a	PROB	1651782	n/a	LTP304	ltpFR2	0	n/a	n/a	n/a	19	14	5	2	7
3305.298	n/a	PROB	1652649	n/a	LTP304	ltpFR2	0	n/a	n/a	n/a	19	5	2	2	1
3306.884	n/a	PROB	1653442	n/a	LTP304	ltpFR2	0	n/a	n/a	n/a	19	7	3	1	3
3309.068	n/a	PROB	1654534	n/a	LTP304	ltpFR2	0	n/a	n/a	n/a	19	8	1	5	2
3310.838	n/a	PROB	1655419	n/a	LTP304	ltpFR2	0	n/a	n/a	n/a	19	11	1	3	7
3313.304	n/a	PROB	1656652	n/a	LTP304	ltpFR2	0	n/a	n/a	n/a	19	17	5	5	7
3314.798	n/a	STOP	1657399	n/a	LTP304	ltpFR2	0	n/a	n/a	n/a	19	n/a	n/a	n/a	n/a
3318.158	n/a	REC_START	1659079	n/a	LTP304	ltpFR2	0	13	n/a	n/a	n/a	n/a	0	0	0
3318.708	n/a	REC_WORD	1659354	wordpools/wasnorm_wordpool_576.txt	LTP304	ltpFR2	0	13	IGLOO	734	n/a	n/a	0	0	0
3319.548	n/a	REC_WORD	1659774	wordpools/wasnorm_wordpool_576.txt	LTP304	ltpFR2	0	13	ROOSTER	1209	n/a	n/a	0	0	0
3320.956	n/a	REC_WORD	1660478	wordpools/wasnorm_wordpool_576.txt	LTP304	ltpFR2	0	13	WITNESS	1618	n/a	n/a	0	0	0
3322.912	n/a	REC_WORD	1661456	wordpools/wasnorm_wordpool_576.txt	LTP304	ltpFR2	0	13	BURGLAR	200	n/a	n/a	0	0	0
3327.932	n/a	REC_WORD	1663966	wordpools/wasnorm_wordpool_576.txt	LTP304	ltpFR2	0	13	SEAFOOD	1260	n/a	n/a	0	0	0
3328.98	n/a	REC_WORD	1664490	wordpools/wasnorm_wordpool_576.txt	LTP304	ltpFR2	0	13	OYSTER	995	n/a	n/a	0	0	0
3329.756	n/a	REC_WORD	1664878	wordpools/wasnorm_wordpool_576.txt	LTP304	ltpFR2	0	13	FLOWER	584	n/a	n/a	0	0	0
3331.58	n/a	REC_WORD	1665790	wordpools/wasnorm_wordpool_576.txt	LTP304	ltpFR2	0	13	FIELD	562	n/a	n/a	0	0	0
3332.394	n/a	REC_WORD	1666197	wordpools/wasnorm_wordpool_576.txt	LTP304	ltpFR2	0	13	GARDEN	623	n/a	n/a	0	0	0
3333.54	n/a	REC_WORD	1666770	wordpools/wasnorm_wordpool_576.txt	LTP304	ltpFR2	0	13	BOUQUET	157	n/a	n/a	0	0	0
3335.088	n/a	REC_WORD	1667544	wordpools/wasnorm_wordpool_576.txt	LTP304	ltpFR2	0	13	GARBAGE	622	n/a	n/a	0	0	0
3337.91	n/a	REC_WORD	1668955	wordpools/wasnorm_wordpool_576.txt	LTP304	ltpFR2	0	13	BROTHER	179	n/a	n/a	0	0	0
3338.922	n/a	REC_WORD	1669461	wordpools/wasnorm_wordpool_576.txt	LTP304	ltpFR2	0	13	JUDGE	761	n/a	n/a	0	0	0
3341.494	n/a	REC_WORD	1670747	wordpools/wasnorm_wordpool_576.txt	LTP304	ltpFR2	0	13	CARRIAGE	248	n/a	n/a	0	0	0
3343.044	n/a	REC_WORD	1671522	wordpools/wasnorm_wordpool_576.txt	LTP304	ltpFR2	0	13	THRONE	1461	n/a	n/a	0	0	0
3344.308	n/a	REC_WORD	1672154	wordpools/wasnorm_wordpool_576.txt	LTP304	ltpFR2	0	13	LOFT	840	n/a	n/a	0	0	0
3349.944	n/a	REC_WORD	1674972	wordpools/wasnorm_wordpool_576.txt	LTP304	ltpFR2	0	13	EMPIRE	530	n/a	n/a	0	0	0
3357.61	n/a	REC_WORD	1678805	wordpools/wasnorm_wordpool_576.txt	LTP304	ltpFR2	0	13	CONVICT	371	n/a	n/a	0	0	0
3365.6	n/a	REC_WORD	1682800	wordpools/wasnorm_wordpool_576.txt	LTP304	ltpFR2	0	13	CREVICE	405	n/a	n/a	0	0	0
3366.336	n/a	REC_WORD	1683168	wordpools/wasnorm_wordpool_576.txt	LTP304	ltpFR2	0	13	MOP	916	n/a	n/a	0	0	0
3367.402	n/a	REC_WORD	1683701	wordpools/wasnorm_wordpool_576.txt	LTP304	ltpFR2	0	13	ROD	1203	n/a	n/a	0	0	0
3368.402	n/a	REC_WORD	1684201	wordpools/wasnorm_wordpool_576.txt	LTP304	ltpFR2	0	13	RIVER	1194	n/a	n/a	0	0	0
3369.288	n/a	REC_WORD	1684644	wordpools/wasnorm_wordpool_576.txt	LTP304	ltpFR2	0	13	OUTDOORS	987	n/a	n/a	0	0	0
3408.58	n/a	DISTRACTOR	1704290	n/a	LTP304	ltpFR2	0	14	n/a	n/a	n/a	n/a	0	0	0
3408.58	n/a	START	1704290	n/a	LTP304	ltpFR2	0	n/a	n/a	n/a	20	n/a	n/a	n/a	n/a
3408.594	n/a	PROB	1704297	n/a	LTP304	ltpFR2	0	n/a	n/a	n/a	20	17	8	1	8
3411.08	n/a	PROB	1705540	n/a	LTP304	ltpFR2	0	n/a	n/a	n/a	20	10	7	2	1
3413.066	n/a	PROB	1706533	n/a	LTP304	ltpFR2	0	n/a	n/a	n/a	20	12	7	4	1
3416.752	n/a	PROB	1708376	n/a	LTP304	ltpFR2	0	n/a	n/a	n/a	20	13	1	8	4
3418.788	n/a	PROB	1709394	n/a	LTP304	ltpFR2	0	n/a	n/a	n/a	20	17	7	2	8
3421.04	n/a	PROB	1710520	n/a	LTP304	ltpFR2	0	n/a	n/a	n/a	20	11	8	2	1
3423.59	n/a	PROB	1711795	n/a	LTP304	ltpFR2	0	n/a	n/a	n/a	20	19	6	5	8
3426.258	n/a	PROB	1713129	n/a	LTP304	ltpFR2	0	n/a	n/a	n/a	20	17	7	8	2
3428.528	n/a	PROB	1714264	n/a	LTP304	ltpFR2	0	n/a	n/a	n/a	20	8	6	4	2
3432.58	n/a	STOP	1716290	n/a	LTP304	ltpFR2	0	n/a	n/a	n/a	20	n/a	n/a	n/a	n/a
3433.424	n/a	WORD	1716712	wordpools/wasnorm_wordpool_576.txt	LTP304	ltpFR2	0	14	HUMAN	726	n/a	n/a	0	0	0
3436.002	n/a	WORD	1718001	wordpools/wasnorm_wordpool_576.txt	LTP304	ltpFR2	0	14	DONOR	485	n/a	n/a	0	0	0
3438.454	n/a	WORD	1719227	wordpools/wasnorm_wordpool_576.txt	LTP304	ltpFR2	0	14	AWARD	63	n/a	n/a	0	0	0
3441.164	n/a	WORD	1720582	wordpools/wasnorm_wordpool_576.txt	LTP304	ltpFR2	0	14	BADGE	68	n/a	n/a	0	0	0
3443.868	n/a	WORD	1721934	wordpools/wasnorm_wordpool_576.txt	LTP304	ltpFR2	0	14	BINDER	127	n/a	n/a	0	0	0
3446.66	n/a	WORD	1723330	wordpools/wasnorm_wordpool_576.txt	LTP304	ltpFR2	0	14	YACHT	1629	n/a	n/a	0	0	0
3449.238	n/a	WORD	1724619	wordpools/wasnorm_wordpool_576.txt	LTP304	ltpFR2	0	14	GIRL	637	n/a	n/a	0	0	0
3451.74	n/a	WORD	1725870	wordpools/wasnorm_wordpool_576.txt	LTP304	ltpFR2	0	14	RATTLE	1170	n/a	n/a	0	0	0
3454.526	n/a	WORD	1727263	wordpools/wasnorm_wordpool_576.txt	LTP304	ltpFR2	0	14	TRANSPLANT	1496	n/a	n/a	0	0	0
3457.0	n/a	WORD	1728500	wordpools/wasnorm_wordpool_576.txt	LTP304	ltpFR2	0	14	COUCH	386	n/a	n/a	0	0	0
3459.646	n/a	WORD	1729823	wordpools/wasnorm_wordpool_576.txt	LTP304	ltpFR2	0	14	TURKEY	1520	n/a	n/a	0	0	0
3462.23	n/a	WORD	1731115	wordpools/wasnorm_wordpool_576.txt	LTP304	ltpFR2	0	14	WIDOW	1608	n/a	n/a	0	0	0
3464.89	n/a	WORD	1732445	wordpools/wasnorm_wordpool_576.txt	LTP304	ltpFR2	0	14	MONEY	908	n/a	n/a	0	0	0
3467.486	n/a	WORD	1733743	wordpools/wasnorm_wordpool_576.txt	LTP304	ltpFR2	0	14	ANTLER	29	n/a	n/a	0	0	0
3470.172	n/a	WORD	1735086	wordpools/wasnorm_wordpool_576.txt	LTP304	ltpFR2	0	14	KIDNEY	776	n/a	n/a	0	0	0
3472.696	n/a	WORD	1736348	wordpools/wasnorm_wordpool_576.txt	LTP304	ltpFR2	0	14	TWIG	1527	n/a	n/a	0	0	0
3475.176	n/a	WORD	1737588	wordpools/wasnorm_wordpool_576.txt	LTP304	ltpFR2	0	14	LUMBER	848	n/a	n/a	0	0	0
3477.946	n/a	WORD	1738973	wordpools/wasnorm_wordpool_576.txt	LTP304	ltpFR2	0	14	RECEIPT	1173	n/a	n/a	0	0	0
3480.464	n/a	WORD	1740232	wordpools/wasnorm_wordpool_576.txt	LTP304	ltpFR2	0	14	DIME	466	n/a	n/a	0	0	0
3482.966	n/a	WORD	1741483	wordpools/wasnorm_wordpool_576.txt	LTP304	ltpFR2	0	14	GRILL	661	n/a	n/a	0	0	0
3485.72	n/a	WORD	1742860	wordpools/wasnorm_wordpool_576.txt	LTP304	ltpFR2	0	14	TROUT	1511	n/a	n/a	0	0	0
3488.258	n/a	WORD	1744129	wordpools/wasnorm_wordpool_576.txt	LTP304	ltpFR2	0	14	SHARK	1275	n/a	n/a	0	0	0
3491.006	n/a	WORD	1745503	wordpools/wasnorm_wordpool_576.txt	LTP304	ltpFR2	0	14	CONTRACT	368	n/a	n/a	0	0	0
3493.476	n/a	WORD	1746738	wordpools/wasnorm_wordpool_576.txt	LTP304	ltpFR2	0	14	HELMET	702	n/a	n/a	0	0	0
3495.082	n/a	START	1747541	n/a	LTP304	ltpFR2	0	n/a	n/a	n/a	21	n/a	n/a	n/a	n/a
3495.996	n/a	DISTRACTOR	1747998	n/a	LTP304	ltpFR2	0	14	n/a	n/a	n/a	n/a	0	0	0
3496.012	n/a	PROB	1748006	n/a	LTP304	ltpFR2	0	n/a	n/a	n/a	21	21	9	5	7
3500.798	n/a	PROB	1750399	n/a	LTP304	ltpFR2	0	n/a	n/a	n/a	21	23	9	6	8
3503.804	n/a	PROB	1751902	n/a	LTP304	ltpFR2	0	n/a	n/a	n/a	21	15	5	1	9
3505.786	n/a	PROB	1752893	n/a	LTP304	ltpFR2	0	n/a	n/a	n/a	21	15	5	4	6
3508.136	n/a	PROB	1754068	n/a	LTP304	ltpFR2	0	n/a	n/a	n/a	21	14	5	5	4
3509.988	n/a	PROB	1754994	n/a	LTP304	ltpFR2	0	n/a	n/a	n/a	21	16	7	5	4
3512.172	n/a	PROB	1756086	n/a	LTP304	ltpFR2	0	n/a	n/a	n/a	21	26	9	7	9
3515.226	n/a	PROB	1757613	n/a	LTP304	ltpFR2	0	n/a	n/a	n/a	21	17	6	9	2
3517.69	n/a	STOP	1758845	n/a	LTP304	ltpFR2	0	n/a	n/a	n/a	21	n/a	n/a	n/a	n/a
3521.002	n/a	REC_START	1760501	n/a	LTP304	ltpFR2	0	14	n/a	n/a	n/a	n/a	0	0	0
3521.806	n/a	REC_WORD	1760903	wordpools/wasnorm_wordpool_576.txt	LTP304	ltpFR2	0	14	TWIG	1527	n/a	n/a	0	0	0
3523.278	n/a	REC_WORD	1761639	wordpools/wasnorm_wordpool_576.txt	LTP304	ltpFR2	0	14	LUMBER	848	n/a	n/a	0	0	0
3524.732	n/a	REC_WORD	1762366	wordpools/wasnorm_wordpool_576.txt	LTP304	ltpFR2	0	14	DONOR	485	n/a	n/a	0	0	0
3525.936	n/a	REC_WORD	1762968	wordpools/wasnorm_wordpool_576.txt	LTP304	ltpFR2	0	14	RECIPIENT	-1	n/a	n/a	0	0	0
3527.51	n/a	REC_WORD	1763755	wordpools/wasnorm_wordpool_576.txt	LTP304	ltpFR2	0	14	KIDNEY	776	n/a	n/a	0	0	0
3528.642	n/a	REC_WORD	1764321	wordpools/wasnorm_wordpool_576.txt	LTP304	ltpFR2	0	14	YACHT	1629	n/a	n/a	0	0	0
3530.254	n/a	REC_WORD	1765127	wordpools/wasnorm_wordpool_576.txt	LTP304	ltpFR2	0	14	TRANSPLANT	1496	n/a	n/a	0	0	0
3531.948	n/a	REC_WORD	1765974	wordpools/wasnorm_wordpool_576.txt	LTP304	ltpFR2	0	14	GIRL	637	n/a	n/a	0	0	0
3533.064	n/a	REC_WORD	1766532	wordpools/wasnorm_wordpool_576.txt	LTP304	ltpFR2	0	14	COUCH	386	n/a	n/a	0	0	0
3534.44	n/a	REC_WORD	1767220	wordpools/wasnorm_wordpool_576.txt	LTP304	ltpFR2	0	14	WIDOW	1608	n/a	n/a	0	0	0
3536.09	n/a	REC_WORD	1768045	wordpools/wasnorm_wordpool_576.txt	LTP304	ltpFR2	0	14	DIME	466	n/a	n/a	0	0	0
3539.628	n/a	REC_WORD	1769814	wordpools/wasnorm_wordpool_576.txt	LTP304	ltpFR2	0	14	TROUT	1511	n/a	n/a	0	0	0
3542.264	n/a	REC_WORD	1771132	wordpools/wasnorm_wordpool_576.txt	LTP304	ltpFR2	0	14	GRILL	661	n/a	n/a	0	0	0
3548.466	n/a	REC_WORD	1774233	wordpools/wasnorm_wordpool_576.txt	LTP304	ltpFR2	0	14	KIDNEY	776	n/a	n/a	0	0	0
3553.126	n/a	REC_WORD	1776563	wordpools/wasnorm_wordpool_576.txt	LTP304	ltpFR2	0	14	RECEIPT	1173	n/a	n/a	0	0	0
3555.532	n/a	REC_WORD	1777766	wordpools/wasnorm_wordpool_576.txt	LTP304	ltpFR2	0	14	CONTRACT	368	n/a	n/a	0	0	0
3559.024	n/a	REC_WORD	1779512	wordpools/wasnorm_wordpool_576.txt	LTP304	ltpFR2	0	14	RATTLE	1170	n/a	n/a	0	0	0
3564.414	n/a	REC_WORD	1782207	wordpools/wasnorm_wordpool_576.txt	LTP304	ltpFR2	0	14	SHARK	1275	n/a	n/a	0	0	0
3611.454	n/a	WORD	1805727	wordpools/wasnorm_wordpool_576.txt	LTP304	ltpFR2	0	15	SILK	1307	n/a	n/a	0	0	0
3613.974	n/a	WORD	1806987	wordpools/wasnorm_wordpool_576.txt	LTP304	ltpFR2	0	15	MUMMY	932	n/a	n/a	0	0	0
3616.68	n/a	WORD	1808340	wordpools/wasnorm_wordpool_576.txt	LTP304	ltpFR2	0	15	DINER	467	n/a	n/a	0	0	0
3619.444	n/a	WORD	1809722	wordpools/wasnorm_wordpool_576.txt	LTP304	ltpFR2	0	15	QUEEN	1149	n/a	n/a	0	0	0
3622.23	n/a	WORD	1811115	wordpools/wasnorm_wordpool_576.txt	LTP304	ltpFR2	0	15	HIGHWAY	707	n/a	n/a	0	0	0
3624.92	n/a	WORD	1812460	wordpools/wasnorm_wordpool_576.txt	LTP304	ltpFR2	0	15	LIVER	833	n/a	n/a	0	0	0
3627.552	n/a	WORD	1813776	wordpools/wasnorm_wordpool_576.txt	LTP304	ltpFR2	0	15	SERVANT	1271	n/a	n/a	0	0	0
3630.07	n/a	WORD	1815035	wordpools/wasnorm_wordpool_576.txt	LTP304	ltpFR2	0	15	MASK	876	n/a	n/a	0	0	0
3632.788	n/a	WORD	1816394	wordpools/wasnorm_wordpool_576.txt	LTP304	ltpFR2	0	15	BASEMENT	94	n/a	n/a	0	0	0
3635.558	n/a	WORD	1817779	wordpools/wasnorm_wordpool_576.txt	LTP304	ltpFR2	0	15	ICEBERG	731	n/a	n/a	0	0	0
3638.224	n/a	WORD	1819112	wordpools/wasnorm_wordpool_576.txt	LTP304	ltpFR2	0	15	SNACK	1331	n/a	n/a	0	0	0
3640.944	n/a	WORD	1820472	wordpools/wasnorm_wordpool_576.txt	LTP304	ltpFR2	0	15	DAUGHTER	442	n/a	n/a	0	0	0
3643.63	n/a	WORD	1821815	wordpools/wasnorm_wordpool_576.txt	LTP304	ltpFR2	0	15	CLAM	315	n/a	n/a	0	0	0
3646.332	n/a	WORD	1823166	wordpools/wasnorm_wordpool_576.txt	LTP304	ltpFR2	0	15	OUTFIT	988	n/a	n/a	0	0	0
3648.952	n/a	WORD	1824476	wordpools/wasnorm_wordpool_576.txt	LTP304	ltpFR2	0	15	CASKET	255	n/a	n/a	0	0	0
3651.576	n/a	WORD	1825788	wordpools/wasnorm_wordpool_576.txt	LTP304	ltpFR2	0	15	TURNIP	1521	n/a	n/a	0	0	0
3654.378	n/a	WORD	1827189	wordpools/wasnorm_wordpool_576.txt	LTP304	ltpFR2	0	15	CHILD	299	n/a	n/a	0	0	0
3656.864	n/a	WORD	1828432	wordpools/wasnorm_wordpool_576.txt	LTP304	ltpFR2	0	15	COSTUME	383	n/a	n/a	0	0	0
3659.584	n/a	WORD	1829792	wordpools/wasnorm_wordpool_576.txt	LTP304	ltpFR2	0	15	PICNIC	1060	n/a	n/a	0	0	0
3662.252	n/a	WORD	1831126	wordpools/wasnorm_wordpool_576.txt	LTP304	ltpFR2	0	15	FUNGUS	614	n/a	n/a	0	0	0
3664.886	n/a	WORD	1832443	wordpools/wasnorm_wordpool_576.txt	LTP304	ltpFR2	0	15	CABBAGE	210	n/a	n/a	0	0	0
3667.398	n/a	WORD	1833699	wordpools/wasnorm_wordpool_576.txt	LTP304	ltpFR2	0	15	MOTEL	919	n/a	n/a	0	0	0
3669.85	n/a	WORD	1834925	wordpools/wasnorm_wordpool_576.txt	LTP304	ltpFR2	0	15	LODGE	839	n/a	n/a	0	0	0
3672.578	n/a	WORD	1836289	wordpools/wasnorm_wordpool_576.txt	LTP304	ltpFR2	0	15	JURY	766	n/a	n/a	0	0	0
3674.186	n/a	START	1837093	n/a	LTP304	ltpFR2	0	n/a	n/a	n/a	22	n/a	n/a	n/a	n/a
3675.134	n/a	DISTRACTOR	1837567	n/a	LTP304	ltpFR2	0	15	n/a	n/a	n/a	n/a	0	0	0
3675.138	n/a	PROB	1837569	n/a	LTP304	ltpFR2	0	n/a	n/a	n/a	22	11	1	5	5
3677.072	n/a	PROB	1838536	n/a	LTP304	ltpFR2	0	n/a	n/a	n/a	22	12	3	2	7
3678.99	n/a	PROB	1839495	n/a	LTP304	ltpFR2	0	n/a	n/a	n/a	22	19	7	5	7
3681.11	n/a	PROB	1840555	n/a	LTP304	ltpFR2	0	n/a	n/a	n/a	22	16	3	7	6
3683.01	n/a	PROB	1841505	n/a	LTP304	ltpFR2	0	n/a	n/a	n/a	22	19	8	9	2
3686.63	n/a	PROB	1843315	n/a	LTP304	ltpFR2	0	n/a	n/a	n/a	22	14	8	4	2
3688.212	n/a	PROB	1844106	n/a	LTP304	ltpFR2	0	n/a	n/a	n/a	22	20	7	6	7
3690.516	n/a	PROB	1845258	n/a	LTP304	ltpFR2	0	n/a	n/a	n/a	22	24	6	7	9
3693.904	n/a	PROB	1846952	n/a	LTP304	ltpFR2	0	n/a	n/a	n/a	22	15	8	2	5
3698.186	n/a	STOP	1849093	n/a	LTP304	ltpFR2	0	n/a	n/a	n/a	22	n/a	n/a	n/a	n/a
3700.04	n/a	REC_START	1850020	n/a	LTP304	ltpFR2	0	15	n/a	n/a	n/a	n/a	0	0	0
3700.95	n/a	REC_WORD	1850475	wordpools/wasnorm_wordpool_576.txt	LTP304	ltpFR2	0	15	DINER	467	n/a	n/a	0	0	0
3701.7	n/a	REC_WORD	1850850	wordpools/wasnorm_wordpool_576.txt	LTP304	ltpFR2	0	15	MUMMY	932	n/a	n/a	0	0	0
3702.634	n/a	REC_WORD	1851317	wordpools/wasnorm_wordpool_576.txt	LTP304	ltpFR2	0	15	MASK	876	n/a	n/a	0	0	0
3703.928	n/a	REC_WORD	1851964	wordpools/wasnorm_wordpool_576.txt	LTP304	ltpFR2	0	15	SERVANT	1271	n/a	n/a	0	0	0
3705.278	n/a	REC_WORD	1852639	wordpools/wasnorm_wordpool_576.txt	LTP304	ltpFR2	0	15	DAUGHTER	442	n/a	n/a	0	0	0
3706.208	n/a	REC_WORD	1853104	wordpools/wasnorm_wordpool_576.txt	LTP304	ltpFR2	0	15	CHILD	299	n/a	n/a	0	0	0
3707.528	n/a	REC_WORD	1853764	wordpools/wasnorm_wordpool_576.txt	LTP304	ltpFR2	0	15	LIVER	833	n/a	n/a	0	0	0
3708.286	n/a	REC_WORD	1854143	wordpools/wasnorm_wordpool_576.txt	LTP304	ltpFR2	0	15	SNACK	1331	n/a	n/a	0	0	0
3709.652	n/a	REC_WORD	1854826	wordpools/wasnorm_wordpool_576.txt	LTP304	ltpFR2	0	15	PICNIC	1060	n/a	n/a	0	0	0
3710.442	n/a	REC_WORD	1855221	wordpools/wasnorm_wordpool_576.txt	LTP304	ltpFR2	0	15	FUNGUS	614	n/a	n/a	0	0	0
3711.676	n/a	REC_WORD	1855838	wordpools/wasnorm_wordpool_576.txt	LTP304	ltpFR2	0	15	CABBAGE	210	n/a	n/a	0	0	0
3716.066	n/a	REC_WORD	1858033	wordpools/wasnorm_wordpool_576.txt	LTP304	ltpFR2	0	15	BASEMENT	94	n/a	n/a	0	0	0
3718.766	n/a	REC_WORD	1859383	wordpools/wasnorm_wordpool_576.txt	LTP304	ltpFR2	0	15	CASKET	255	n/a	n/a	0	0	0
3730.116	n/a	REC_WORD	1865058	wordpools/wasnorm_wordpool_576.txt	LTP304	ltpFR2	0	15	TURNIP	1521	n/a	n/a	0	0	0
3746.076	n/a	REC_WORD	1873038	wordpools/wasnorm_wordpool_576.txt	LTP304	ltpFR2	0	15	COSTUME	383	n/a	n/a	0	0	0
3747.05	n/a	REC_WORD	1873525	wordpools/wasnorm_wordpool_576.txt	LTP304	ltpFR2	0	15	OUTFIT	988	n/a	n/a	0	0	0
3754.69	n/a	REC_WORD	1877345	wordpools/wasnorm_wordpool_576.txt	LTP304	ltpFR2	0	15	JURY	766	n/a	n/a	0	0	0
3755.656	n/a	REC_WORD	1877828	wordpools/wasnorm_wordpool_576.txt	LTP304	ltpFR2	0	15	LODGE	839	n/a	n/a	0	0	0
3756.872	n/a	REC_WORD	1878436	wordpools/wasnorm_wordpool_576.txt	LTP304	ltpFR2	0	15	MOTEL	919	n/a	n/a	0	0	0
3790.51	n/a	WORD	1895255	wordpools/wasnorm_wordpool_576.txt	LTP304	ltpFR2	0	16	PAIL	1002	n/a	n/a	0	0	0
3793.18	n/a	WORD	1896590	wordpools/wasnorm_wordpool_576.txt	LTP304	ltpFR2	0	16	CAMEL	223	n/a	n/a	0	0	0
3795.616	n/a	WORD	1897808	wordpools/wasnorm_wordpool_576.txt	LTP304	ltpFR2	0	16	ONION	977	n/a	n/a	0	0	0
3798.066	n/a	WORD	1899033	wordpools/wasnorm_wordpool_576.txt	LTP304	ltpFR2	0	16	MAPLE	866	n/a	n/a	0	0	0
3800.852	n/a	WORD	1900426	wordpools/wasnorm_wordpool_576.txt	LTP304	ltpFR2	0	16	SHRUB	1299	n/a	n/a	0	0	0
3803.488	n/a	WORD	1901744	wordpools/wasnorm_wordpool_576.txt	LTP304	ltpFR2	0	16	FRANCE	601	n/a	n/a	0	0	0
3806.138	n/a	WORD	1903069	wordpools/wasnorm_wordpool_576.txt	LTP304	ltpFR2	0	16	LION	827	n/a	n/a	0	0	0
3808.742	n/a	WORD	1904371	wordpools/wasnorm_wordpool_576.txt	LTP304	ltpFR2	0	16	FIREMAN	569	n/a	n/a	0	0	0
3811.36	n/a	WORD	1905680	wordpools/wasnorm_wordpool_576.txt	LTP304	ltpFR2	0	16	FIREPLACE	570	n/a	n/a	0	0	0
3813.946	n/a	WORD	1906973	wordpools/wasnorm_wordpool_576.txt	LTP304	ltpFR2	0	16	ISLAND	745	n/a	n/a	0	0	0
3816.766	n/a	WORD	1908383	wordpools/wasnorm_wordpool_576.txt	LTP304	ltpFR2	0	16	LEG	809	n/a	n/a	0	0	0
3819.484	n/a	WORD	1909742	wordpools/wasnorm_wordpool_576.txt	LTP304	ltpFR2	0	16	DASHBOARD	441	n/a	n/a	0	0	0
3821.984	n/a	WORD	1910992	wordpools/wasnorm_wordpool_576.txt	LTP304	ltpFR2	0	16	HAWK	692	n/a	n/a	0	0	0
3824.754	n/a	WORD	1912377	wordpools/wasnorm_wordpool_576.txt	LTP304	ltpFR2	0	16	ELBOW	520	n/a	n/a	0	0	0
3827.206	n/a	WORD	1913603	wordpools/wasnorm_wordpool_576.txt	LTP304	ltpFR2	0	16	CHEMIST	292	n/a	n/a	0	0	0
3829.792	n/a	WORD	1914896	wordpools/wasnorm_wordpool_576.txt	LTP304	ltpFR2	0	16	SCULPTURE	1258	n/a	n/a	0	0	0
3832.578	n/a	WORD	1916289	wordpools/wasnorm_wordpool_576.txt	LTP304	ltpFR2	0	16	LACE	792	n/a	n/a	0	0	0
3835.08	n/a	WORD	1917540	wordpools/wasnorm_wordpool_576.txt	LTP304	ltpFR2	0	16	PEPPER	1047	n/a	n/a	0	0	0
3837.6	n/a	WORD	1918800	wordpools/wasnorm_wordpool_576.txt	LTP304	ltpFR2	0	16	CORAL	378	n/a	n/a	0	0	0
3840.334	n/a	WORD	1920167	wordpools/wasnorm_wordpool_576.txt	LTP304	ltpFR2	0	16	LAKE	796	n/a	n/a	0	0	0
3842.952	n/a	WORD	1921476	wordpools/wasnorm_wordpool_576.txt	LTP304	ltpFR2	0	16	JELLY	755	n/a	n/a	0	0	0
3845.742	n/a	WORD	1922871	wordpools/wasnorm_wordpool_576.txt	LTP304	ltpFR2	0	16	WAGON	1578	n/a	n/a	0	0	0
3848.456	n/a	WORD	1924228	wordpools/wasnorm_wordpool_576.txt	LTP304	ltpFR2	0	16	PATROL	1027	n/a	n/a	0	0	0
3850.908	n/a	WORD	1925454	wordpools/wasnorm_wordpool_576.txt	LTP304	ltpFR2	0	16	LUNCH	849	n/a	n/a	0	0	0
3852.514	n/a	START	1926257	n/a	LTP304	ltpFR2	0	n/a	n/a	n/a	23	n/a	n/a	n/a	n/a
3853.446	n/a	DISTRACTOR	1926723	n/a	LTP304	ltpFR2	0	16	n/a	n/a	n/a	n/a	0	0	0
3853.46	n/a	PROB	1926730	n/a	LTP304	ltpFR2	0	n/a	n/a	n/a	23	13	2	5	6
3857.296	n/a	PROB	1928648	n/a	LTP304	ltpFR2	0	n/a	n/a	n/a	23	12	2	2	8
3860.23	n/a	PROB	1930115	n/a	LTP304	ltpFR2	0	n/a	n/a	n/a	23	18	6	4	8
3861.732	n/a	PROB	1930866	n/a	LTP304	ltpFR2	0	n/a	n/a	n/a	23	21	9	5	7
3864.718	n/a	PROB	1932359	n/a	LTP304	ltpFR2	0	n/a	n/a	n/a	23	17	6	9	2
3866.77	n/a	PROB	1933385	n/a	LTP304	ltpFR2	0	n/a	n/a	n/a	23	11	7	2	2
3869.17	n/a	PROB	1934585	n/a	LTP304	ltpFR2	0	n/a	n/a	n/a	23	14	4	9	1
3870.79	n/a	PROB	1935395	n/a	LTP304	ltpFR2	0	n/a	n/a	n/a	23	23	7	9	7
3873.824	n/a	PROB	1936912	n/a	LTP304	ltpFR2	0	n/a	n/a	n/a	23	12	5	5	2
3875.008	n/a	STOP	1937504	n/a	LTP304	ltpFR2	0	n/a	n/a	n/a	23	n/a	n/a	n/a	n/a
3878.26	n/a	REC_START	1939130	n/a	LTP304	ltpFR2	0	16	n/a	n/a	n/a	n/a	0	0	0
3878.768	n/a	REC_WORD	1939384	wordpools/wasnorm_wordpool_576.txt	LTP304	ltpFR2	0	16	PAIL	1002	n/a	n/a	0	0	0
3879.698	n/a	REC_WORD	1939849	wordpools/wasnorm_wordpool_576.txt	LTP304	ltpFR2	0	16	CAMEL	223	n/a	n/a	0	0	0
3881.196	n/a	REC_WORD	1940598	wordpools/wasnorm_wordpool_576.txt	LTP304	ltpFR2	0	16	LION	827	n/a	n/a	0	0	0
3882.618	n/a	REC_WORD	1941309	wordpools/wasnorm_wordpool_576.txt	LTP304	ltpFR2	0	16	FRANCE	601	n/a	n/a	0	0	0
3884.664	n/a	REC_WORD	1942332	wordpools/wasnorm_wordpool_576.txt	LTP304	ltpFR2	0	16	ISLAND	745	n/a	n/a	0	0	0
3886.582	n/a	REC_WORD	1943291	wordpools/wasnorm_wordpool_576.txt	LTP304	ltpFR2	0	16	FIREMAN	569	n/a	n/a	0	0	0
3887.914	n/a	REC_WORD	1943957	wordpools/wasnorm_wordpool_576.txt	LTP304	ltpFR2	0	16	FIREPLACE	570	n/a	n/a	0	0	0
3890.998	n/a	REC_WORD	1945499	wordpools/wasnorm_wordpool_576.txt	LTP304	ltpFR2	0	16	LUNCH	849	n/a	n/a	0	0	0
3892.834	n/a	REC_WORD	1946417	wordpools/wasnorm_wordpool_576.txt	LTP304	ltpFR2	0	16	LEG	809	n/a	n/a	0	0	0
3893.818	n/a	REC_WORD	1946909	wordpools/wasnorm_wordpool_576.txt	LTP304	ltpFR2	0	16	DASHBOARD	441	n/a	n/a	0	0	0
3895.378	n/a	REC_WORD	1947689	wordpools/wasnorm_wordpool_576.txt	LTP304	ltpFR2	0	16	ELBOW	520	n/a	n/a	0	0	0
3896.434	n/a	REC_WORD	1948217	wordpools/wasnorm_wordpool_576.txt	LTP304	ltpFR2	0	16	HAWK	692	n/a	n/a	0	0	0
3919.946	n/a	REC_WORD	1959973	wordpools/wasnorm_wordpool_576.txt	LTP304	ltpFR2	0	16	CHEMIST	292	n/a	n/a	0	0	0
3946.766	n/a	REC_WORD	1973383	wordpools/wasnorm_wordpool_576.txt	LTP304	ltpFR2	0	16	PATROL	1027	n/a	n/a	0	0	0
3954.788	n/a	REST_REWET	1977394	n/a	LTP304	ltpFR2	0	16	n/a	n/a	n/a	n/a	0	0	0
4192.858	n/a	DISTRACTOR	2096429	n/a	LTP304	ltpFR2	0	17	n/a	n/a	n/a	n/a	0	0	0
4192.858	n/a	START	2096429	n/a	LTP304	ltpFR2	0	n/a	n/a	n/a	24	n/a	n/a	n/a	n/a
4192.874	n/a	PROB	2096437	n/a	LTP304	ltpFR2	0	n/a	n/a	n/a	24	17	6	7	4
4198.562	n/a	PROB	2099281	n/a	LTP304	ltpFR2	0	n/a	n/a	n/a	24	11	8	1	2
4200.38	n/a	PROB	2100190	n/a	LTP304	ltpFR2	0	n/a	n/a	n/a	24	10	3	8	9
4203.082	n/a	PROB	2101541	n/a	LTP304	ltpFR2	0	n/a	n/a	n/a	24	13	7	5	1
4205.032	n/a	PROB	2102516	n/a	LTP304	ltpFR2	0	n/a	n/a	n/a	24	17	3	9	5
4207.702	n/a	PROB	2103851	n/a	LTP304	ltpFR2	0	n/a	n/a	n/a	24	13	4	2	7
4209.706	n/a	PROB	2104853	n/a	LTP304	ltpFR2	0	n/a	n/a	n/a	24	25	7	9	9
4212.856	n/a	PROB	2106428	n/a	LTP304	ltpFR2	0	n/a	n/a	n/a	24	12	3	4	5
4216.118	n/a	STOP	2108059	n/a	LTP304	ltpFR2	0	n/a	n/a	n/a	24	n/a	n/a	n/a	n/a
4218.042	n/a	WORD	2109021	wordpools/wasnorm_wordpool_576.txt	LTP304	ltpFR2	0	17	LADY	794	n/a	n/a	0	0	0
4220.744	n/a	WORD	2110372	wordpools/wasnorm_wordpool_576.txt	LTP304	ltpFR2	0	17	STAKE	1368	n/a	n/a	0	0	0
4223.528	n/a	WORD	2111764	wordpools/wasnorm_wordpool_576.txt	LTP304	ltpFR2	0	17	DUSTPAN	509	n/a	n/a	0	0	0
4226.146	n/a	WORD	2113073	wordpools/wasnorm_wordpool_576.txt	LTP304	ltpFR2	0	17	DRINK	498	n/a	n/a	0	0	0
4228.718	n/a	WORD	2114359	wordpools/wasnorm_wordpool_576.txt	LTP304	ltpFR2	0	17	BISON	131	n/a	n/a	0	0	0
4231.518	n/a	WORD	2115759	wordpools/wasnorm_wordpool_576.txt	LTP304	ltpFR2	0	17	CROSS	413	n/a	n/a	0	0	0
4233.954	n/a	WORD	2116977	wordpools/wasnorm_wordpool_576.txt	LTP304	ltpFR2	0	17	TORTOISE	1486	n/a	n/a	0	0	0
4236.39	n/a	WORD	2118195	wordpools/wasnorm_wordpool_576.txt	LTP304	ltpFR2	0	17	SURVEY	1414	n/a	n/a	0	0	0
4238.892	n/a	WORD	2119446	wordpools/wasnorm_wordpool_576.txt	LTP304	ltpFR2	0	17	KLEENEX	782	n/a	n/a	0	0	0
4241.51	n/a	WORD	2120755	wordpools/wasnorm_wordpool_576.txt	LTP304	ltpFR2	0	17	STATUE	1374	n/a	n/a	0	0	0
4243.962	n/a	WORD	2121981	wordpools/wasnorm_wordpool_576.txt	LTP304	ltpFR2	0	17	YARN	1631	n/a	n/a	0	0	0
4246.564	n/a	WORD	2123282	wordpools/wasnorm_wordpool_576.txt	LTP304	ltpFR2	0	17	EUROPE	541	n/a	n/a	0	0	0
4249.084	n/a	WORD	2124542	wordpools/wasnorm_wordpool_576.txt	LTP304	ltpFR2	0	17	SLIME	1327	n/a	n/a	0	0	0
4251.736	n/a	WORD	2125868	wordpools/wasnorm_wordpool_576.txt	LTP304	ltpFR2	0	17	CHAMPAGNE	278	n/a	n/a	0	0	0
4254.17	n/a	WORD	2127085	wordpools/wasnorm_wordpool_576.txt	LTP304	ltpFR2	0	17	BARLEY	88	n/a	n/a	0	0	0
4256.892	n/a	WORD	2128446	wordpools/wasnorm_wordpool_576.txt	LTP304	ltpFR2	0	17	MILK	895	n/a	n/a	0	0	0
4259.576	n/a	WORD	2129788	wordpools/wasnorm_wordpool_576.txt	LTP304	ltpFR2	0	17	OX	994	n/a	n/a	0	0	0
4262.396	n/a	WORD	2131198	wordpools/wasnorm_wordpool_576.txt	LTP304	ltpFR2	0	17	LABEL	790	n/a	n/a	0	0	0
4265.18	n/a	WORD	2132590	wordpools/wasnorm_wordpool_576.txt	LTP304	ltpFR2	0	17	BEAVER	109	n/a	n/a	0	0	0
4267.884	n/a	WORD	2133942	wordpools/wasnorm_wordpool_576.txt	LTP304	ltpFR2	0	17	COLONEL	348	n/a	n/a	0	0	0
4270.502	n/a	WORD	2135251	wordpools/wasnorm_wordpool_576.txt	LTP304	ltpFR2	0	17	HARP	689	n/a	n/a	0	0	0
4273.104	n/a	WORD	2136552	wordpools/wasnorm_wordpool_576.txt	LTP304	ltpFR2	0	17	MISTER	901	n/a	n/a	0	0	0
4275.79	n/a	WORD	2137895	wordpools/wasnorm_wordpool_576.txt	LTP304	ltpFR2	0	17	WOMAN	1620	n/a	n/a	0	0	0
4278.576	n/a	WORD	2139288	wordpools/wasnorm_wordpool_576.txt	LTP304	ltpFR2	0	17	FIDDLE	561	n/a	n/a	0	0	0
4280.194	n/a	START	2140097	n/a	LTP304	ltpFR2	0	n/a	n/a	n/a	25	n/a	n/a	n/a	n/a
4281.224	n/a	DISTRACTOR	2140612	n/a	LTP304	ltpFR2	0	17	n/a	n/a	n/a	n/a	0	0	0
4281.242	n/a	PROB	2140621	n/a	LTP304	ltpFR2	0	n/a	n/a	n/a	25	9	6	2	1
4284.228	n/a	PROB	2142114	n/a	LTP304	ltpFR2	0	n/a	n/a	n/a	25	15	6	4	5
4285.846	n/a	PROB	2142923	n/a	LTP304	ltpFR2	0	n/a	n/a	n/a	25	9	2	4	3
4288.816	n/a	PROB	2144408	n/a	LTP304	ltpFR2	0	n/a	n/a	n/a	25	19	3	8	8
4291.4	n/a	PROB	2145700	n/a	LTP304	ltpFR2	0	n/a	n/a	n/a	25	11	4	5	2
4293.134	n/a	PROB	2146567	n/a	LTP304	ltpFR2	0	n/a	n/a	n/a	25	13	6	6	7
4295.122	n/a	PROB	2147561	n/a	LTP304	ltpFR2	0	n/a	n/a	n/a	25	20	6	8	6
4298.708	n/a	PROB	2149354	n/a	LTP304	ltpFR2	0	n/a	n/a	n/a	25	12	9	9	3
4301.092	n/a	PROB	2150546	n/a	LTP304	ltpFR2	0	n/a	n/a	n/a	25	12	4	4	3
4303.472	n/a	STOP	2151736	n/a	LTP304	ltpFR2	0	n/a	n/a	n/a	25	n/a	n/a	n/a	n/a
4305.998	n/a	REC_START	2152999	n/a	LTP304	ltpFR2	0	17	n/a	n/a	n/a	n/a	0	0	0
4307.94	n/a	REC_WORD	2153970	wordpools/wasnorm_wordpool_576.txt	LTP304	ltpFR2	0	17	LADY	794	n/a	n/a	0	0	0
4308.618	n/a	REC_WORD	2154309	wordpools/wasnorm_wordpool_576.txt	LTP304	ltpFR2	0	17	STAKE	1368	n/a	n/a	0	0	0
4309.85	n/a	REC_WORD	2154925	wordpools/wasnorm_wordpool_576.txt	LTP304	ltpFR2	0	17	DUSTPAN	509	n/a	n/a	0	0	0
4310.91	n/a	REC_WORD	2155455	wordpools/wasnorm_wordpool_576.txt	LTP304	ltpFR2	0	17	KLEENEX	782	n/a	n/a	0	0	0
4316.254	n/a	REC_WORD	2158127	wordpools/wasnorm_wordpool_576.txt	LTP304	ltpFR2	0	17	BEAVER	109	n/a	n/a	0	0	0
4317.934	n/a	REC_WORD	2158967	wordpools/wasnorm_wordpool_576.txt	LTP304	ltpFR2	0	17	SLIME	1327	n/a	n/a	0	0	0
4324.052	n/a	REC_WORD	2162026	wordpools/wasnorm_wordpool_576.txt	LTP304	ltpFR2	0	17	MISTER	901	n/a	n/a	0	0	0
4326.198	n/a	REC_WORD	2163099	wordpools/wasnorm_wordpool_576.txt	LTP304	ltpFR2	0	17	EUROPE	541	n/a	n/a	0	0	0
4334.894	n/a	REC_WORD	2167447	wordpools/wasnorm_wordpool_576.txt	LTP304	ltpFR2	0	17	OX	994	n/a	n/a	0	0	0
4335.938	n/a	REC_WORD	2167969	wordpools/wasnorm_wordpool_576.txt	LTP304	ltpFR2	0	17	LABEL	790	n/a	n/a	0	0	0
4337.748	n/a	REC_WORD	2168874	wordpools/wasnorm_wordpool_576.txt	LTP304	ltpFR2	0	17	BARLEY	88	n/a	n/a	0	0	0
4338.494	n/a	REC_WORD	2169247	wordpools/wasnorm_wordpool_576.txt	LTP304	ltpFR2	0	17	CHAMPAGNE	278	n/a	n/a	0	0	0
4339.57	n/a	REC_WORD	2169785	wordpools/wasnorm_wordpool_576.txt	LTP304	ltpFR2	0	17	MILK	895	n/a	n/a	0	0	0
4354.33	n/a	REC_WORD	2177165	wordpools/wasnorm_wordpool_576.txt	LTP304	ltpFR2	0	17	COLONEL	348	n/a	n/a	0	0	0
4396.432	n/a	WORD	2198216	wordpools/wasnorm_wordpool_576.txt	LTP304	ltpFR2	0	18	UMPIRE	1535	n/a	n/a	0	0	0
4399.112	n/a	WORD	2199556	wordpools/wasnorm_wordpool_576.txt	LTP304	ltpFR2	0	18	COMET	353	n/a	n/a	0	0	0
4401.604	n/a	WORD	2200802	wordpools/wasnorm_wordpool_576.txt	LTP304	ltpFR2	0	18	BLADE	134	n/a	n/a	0	0	0
4404.248	n/a	WORD	2202124	wordpools/wasnorm_wordpool_576.txt	LTP304	ltpFR2	0	18	KEEPER	769	n/a	n/a	0	0	0
4407.018	n/a	WORD	2203509	wordpools/wasnorm_wordpool_576.txt	LTP304	ltpFR2	0	18	GUARD	667	n/a	n/a	0	0	0
4409.744	n/a	WORD	2204872	wordpools/wasnorm_wordpool_576.txt	LTP304	ltpFR2	0	18	AGENT	10	n/a	n/a	0	0	0
4412.528	n/a	WORD	2206264	wordpools/wasnorm_wordpool_576.txt	LTP304	ltpFR2	0	18	PASSAGE	1019	n/a	n/a	0	0	0
4415.108	n/a	WORD	2207554	wordpools/wasnorm_wordpool_576.txt	LTP304	ltpFR2	0	18	ANKLE	24	n/a	n/a	0	0	0
4417.778	n/a	WORD	2208889	wordpools/wasnorm_wordpool_576.txt	LTP304	ltpFR2	0	18	FOOT	590	n/a	n/a	0	0	0
4420.346	n/a	WORD	2210173	wordpools/wasnorm_wordpool_576.txt	LTP304	ltpFR2	0	18	LIGHTNING	820	n/a	n/a	0	0	0
4423.13	n/a	WORD	2211565	wordpools/wasnorm_wordpool_576.txt	LTP304	ltpFR2	0	18	HOOK	715	n/a	n/a	0	0	0
4425.918	n/a	WORD	2212959	wordpools/wasnorm_wordpool_576.txt	LTP304	ltpFR2	0	18	GUITAR	670	n/a	n/a	0	0	0
4428.502	n/a	WORD	2214251	wordpools/wasnorm_wordpool_576.txt	LTP304	ltpFR2	0	18	SHELTER	1282	n/a	n/a	0	0	0
4431.26	n/a	WORD	2215630	wordpools/wasnorm_wordpool_576.txt	LTP304	ltpFR2	0	18	HEDGE	699	n/a	n/a	0	0	0
4433.962	n/a	WORD	2216981	wordpools/wasnorm_wordpool_576.txt	LTP304	ltpFR2	0	18	MISSILE	900	n/a	n/a	0	0	0
4436.744	n/a	WORD	2218372	wordpools/wasnorm_wordpool_576.txt	LTP304	ltpFR2	0	18	BRAKE	166	n/a	n/a	0	0	0
4439.21	n/a	WORD	2219605	wordpools/wasnorm_wordpool_576.txt	LTP304	ltpFR2	0	18	CABIN	211	n/a	n/a	0	0	0
4441.714	n/a	WORD	2220857	wordpools/wasnorm_wordpool_576.txt	LTP304	ltpFR2	0	18	EXPERT	543	n/a	n/a	0	0	0
4444.282	n/a	WORD	2222141	wordpools/wasnorm_wordpool_576.txt	LTP304	ltpFR2	0	18	RAZOR	1171	n/a	n/a	0	0	0
4446.9	n/a	WORD	2223450	wordpools/wasnorm_wordpool_576.txt	LTP304	ltpFR2	0	18	PASTRY	1022	n/a	n/a	0	0	0
4449.636	n/a	WORD	2224818	wordpools/wasnorm_wordpool_576.txt	LTP304	ltpFR2	0	18	PLAID	1080	n/a	n/a	0	0	0
4452.456	n/a	WORD	2226228	wordpools/wasnorm_wordpool_576.txt	LTP304	ltpFR2	0	18	DENIM	446	n/a	n/a	0	0	0
4454.942	n/a	WORD	2227471	wordpools/wasnorm_wordpool_576.txt	LTP304	ltpFR2	0	18	PADDLE	1000	n/a	n/a	0	0	0
4457.594	n/a	WORD	2228797	wordpools/wasnorm_wordpool_576.txt	LTP304	ltpFR2	0	18	TRACTOR	1493	n/a	n/a	0	0	0
4459.2	n/a	START	2229600	n/a	LTP304	ltpFR2	0	n/a	n/a	n/a	26	n/a	n/a	n/a	n/a
4460.284	n/a	DISTRACTOR	2230142	n/a	LTP304	ltpFR2	0	18	n/a	n/a	n/a	n/a	0	0	0
4460.296	n/a	PROB	2230148	n/a	LTP304	ltpFR2	0	n/a	n/a	n/a	26	18	4	7	7
4462.882	n/a	PROB	2231441	n/a	LTP304	ltpFR2	0	n/a	n/a	n/a	26	7	4	2	1
4464.566	n/a	PROB	2232283	n/a	LTP304	ltpFR2	0	n/a	n/a	n/a	26	13	4	8	1
4466.322	n/a	PROB	2233161	n/a	LTP304	ltpFR2	0	n/a	n/a	n/a	26	24	9	6	9
4469.104	n/a	PROB	2234552	n/a	LTP304	ltpFR2	0	n/a	n/a	n/a	26	13	2	9	2
4472.022	n/a	PROB	2236011	n/a	LTP304	ltpFR2	0	n/a	n/a	n/a	26	14	4	2	8
4474.424	n/a	PROB	2237212	n/a	LTP304	ltpFR2	0	n/a	n/a	n/a	26	12	1	4	7
4476.158	n/a	PROB	2238079	n/a	LTP304	ltpFR2	0	n/a	n/a	n/a	26	16	9	5	2
4483.198	n/a	STOP	2241599	n/a	LTP304	ltpFR2	0	n/a	n/a	n/a	26	n/a	n/a	n/a	n/a
4485.12	n/a	REC_START	2242560	n/a	LTP304	ltpFR2	0	18	n/a	n/a	n/a	n/a	0	0	0
4486.256	n/a	REC_WORD	2243128	wordpools/wasnorm_wordpool_576.txt	LTP304	ltpFR2	0	18	BLADE	134	n/a	n/a	0	0	0
4487.4	n/a	REC_WORD	2243700	wordpools/wasnorm_wordpool_576.txt	LTP304	ltpFR2	0	18	UMPIRE	1535	n/a	n/a	0	0	0
4489.074	n/a	REC_WORD	2244537	wordpools/wasnorm_wordpool_576.txt	LTP304	ltpFR2	0	18	KEEPER	769	n/a	n/a	0	0	0
4490.06	n/a	REC_WORD	2245030	wordpools/wasnorm_wordpool_576.txt	LTP304	ltpFR2	0	18	GUARD	667	n/a	n/a	0	0	0
4492.442	n/a	REC_WORD	2246221	wordpools/wasnorm_wordpool_576.txt	LTP304	ltpFR2	0	18	BRAKE	166	n/a	n/a	0	0	0
4493.576	n/a	REC_WORD	2246788	wordpools/wasnorm_wordpool_576.txt	LTP304	ltpFR2	0	18	LIGHTNING	820	n/a	n/a	0	0	0
4495.284	n/a	REC_WORD	2247642	wordpools/wasnorm_wordpool_576.txt	LTP304	ltpFR2	0	18	CABIN	211	n/a	n/a	0	0	0
4496.226	n/a	REC_WORD	2248113	wordpools/wasnorm_wordpool_576.txt	LTP304	ltpFR2	0	18	GUITAR	670	n/a	n/a	0	0	0
4497.464	n/a	REC_WORD	2248732	wordpools/wasnorm_wordpool_576.txt	LTP304	ltpFR2	0	18	SHELTER	1282	n/a	n/a	0	0	0
4498.69	n/a	REC_WORD	2249345	wordpools/wasnorm_wordpool_576.txt	LTP304	ltpFR2	0	18	TRACTOR	1493	n/a	n/a	0	0	0
4503.026	n/a	REC_WORD	2251513	wordpools/wasnorm_wordpool_576.txt	LTP304	ltpFR2	0	18	EXPERT	543	n/a	n/a	0	0	0
4511.212	n/a	REC_WORD	2255606	wordpools/wasnorm_wordpool_576.txt	LTP304	ltpFR2	0	18	FOOT	590	n/a	n/a	0	0	0
4512.31	n/a	REC_WORD	2256155	wordpools/wasnorm_wordpool_576.txt	LTP304	ltpFR2	0	18	ANKLE	24	n/a	n/a	0	0	0
4520.882	n/a	REC_WORD	2260441	wordpools/wasnorm_wordpool_576.txt	LTP304	ltpFR2	0	18	AGENT	10	n/a	n/a	0	0	0
4523.208	n/a	REC_WORD	2261604	wordpools/wasnorm_wordpool_576.txt	LTP304	ltpFR2	0	18	HOOK	715	n/a	n/a	0	0	0
4531.804	n/a	REC_WORD	2265902	wordpools/wasnorm_wordpool_576.txt	LTP304	ltpFR2	0	18	MISSILE	900	n/a	n/a	0	0	0
4534.374	n/a	REC_WORD	2267187	wordpools/wasnorm_wordpool_576.txt	LTP304	ltpFR2	0	18	RAZOR	1171	n/a	n/a	0	0	0
4536.13	n/a	REC_WORD	2268065	wordpools/wasnorm_wordpool_576.txt	LTP304	ltpFR2	0	18	PASTRY	1022	n/a	n/a	0	0	0
4540.06	n/a	REC_WORD	2270030	wordpools/wasnorm_wordpool_576.txt	LTP304	ltpFR2	0	18	DENIM	446	n/a	n/a	0	0	0
4540.61	n/a	REC_WORD	2270305	wordpools/wasnorm_wordpool_576.txt	LTP304	ltpFR2	0	18	PLAID	1080	n/a	n/a	0	0	0
4575.54	n/a	DISTRACTOR	2287770	n/a	LTP304	ltpFR2	0	19	n/a	n/a	n/a	n/a	0	0	0
4575.54	n/a	START	2287770	n/a	LTP304	ltpFR2	0	n/a	n/a	n/a	27	n/a	n/a	n/a	n/a
4575.554	n/a	PROB	2287777	n/a	LTP304	ltpFR2	0	n/a	n/a	n/a	27	20	7	4	9
4583.31	n/a	PROB	2291655	n/a	LTP304	ltpFR2	0	n/a	n/a	n/a	27	12	5	3	4
4585.578	n/a	PROB	2292789	n/a	LTP304	ltpFR2	0	n/a	n/a	n/a	27	12	3	2	7
4587.532	n/a	PROB	2293766	n/a	LTP304	ltpFR2	0	n/a	n/a	n/a	27	15	1	9	5
4589.064	n/a	PROB	2294532	n/a	LTP304	ltpFR2	0	n/a	n/a	n/a	27	14	7	4	3
4591.418	n/a	PROB	2295709	n/a	LTP304	ltpFR2	0	n/a	n/a	n/a	27	13	4	3	6
4594.052	n/a	PROB	2297026	n/a	LTP304	ltpFR2	0	n/a	n/a	n/a	27	14	5	2	7
4595.638	n/a	PROB	2297819	n/a	LTP304	ltpFR2	0	n/a	n/a	n/a	27	13	2	2	9
4599.54	n/a	STOP	2299770	n/a	LTP304	ltpFR2	0	n/a	n/a	n/a	27	n/a	n/a	n/a	n/a
4600.392	n/a	WORD	2300196	wordpools/wasnorm_wordpool_576.txt	LTP304	ltpFR2	0	19	SWORD	1423	n/a	n/a	0	0	0
4603.06	n/a	WORD	2301530	wordpools/wasnorm_wordpool_576.txt	LTP304	ltpFR2	0	19	HATCHET	691	n/a	n/a	0	0	0
4605.762	n/a	WORD	2302881	wordpools/wasnorm_wordpool_576.txt	LTP304	ltpFR2	0	19	YOLK	1633	n/a	n/a	0	0	0
4608.498	n/a	WORD	2304249	wordpools/wasnorm_wordpool_576.txt	LTP304	ltpFR2	0	19	SKILLET	1317	n/a	n/a	0	0	0
4611.174	n/a	WORD	2305587	wordpools/wasnorm_wordpool_576.txt	LTP304	ltpFR2	0	19	SPONGE	1355	n/a	n/a	0	0	0
4613.87	n/a	WORD	2306935	wordpools/wasnorm_wordpool_576.txt	LTP304	ltpFR2	0	19	SAUSAGE	1238	n/a	n/a	0	0	0
4616.588	n/a	WORD	2308294	wordpools/wasnorm_wordpool_576.txt	LTP304	ltpFR2	0	19	COOK	372	n/a	n/a	0	0	0
4619.074	n/a	WORD	2309537	wordpools/wasnorm_wordpool_576.txt	LTP304	ltpFR2	0	19	GARLIC	624	n/a	n/a	0	0	0
4621.55	n/a	WORD	2310775	wordpools/wasnorm_wordpool_576.txt	LTP304	ltpFR2	0	19	GALLON	618	n/a	n/a	0	0	0
4624.084	n/a	WORD	2312042	wordpools/wasnorm_wordpool_576.txt	LTP304	ltpFR2	0	19	LADDER	793	n/a	n/a	0	0	0
4626.73	n/a	WORD	2313365	wordpools/wasnorm_wordpool_576.txt	LTP304	ltpFR2	0	19	RUST	1219	n/a	n/a	0	0	0
4629.48	n/a	WORD	2314740	wordpools/wasnorm_wordpool_576.txt	LTP304	ltpFR2	0	19	CASHIER	254	n/a	n/a	0	0	0
4632.14	n/a	WORD	2316070	wordpools/wasnorm_wordpool_576.txt	LTP304	ltpFR2	0	19	APPLE	33	n/a	n/a	0	0	0
4634.702	n/a	WORD	2317351	wordpools/wasnorm_wordpool_576.txt	LTP304	ltpFR2	0	19	ULCER	1533	n/a	n/a	0	0	0
4637.262	n/a	WORD	2318631	wordpools/wasnorm_wordpool_576.txt	LTP304	ltpFR2	0	19	SHORTCAKE	1292	n/a	n/a	0	0	0
4639.74	n/a	WORD	2319870	wordpools/wasnorm_wordpool_576.txt	LTP304	ltpFR2	0	19	VALLEY	1545	n/a	n/a	0	0	0
4642.468	n/a	WORD	2321234	wordpools/wasnorm_wordpool_576.txt	LTP304	ltpFR2	0	19	BROOK	177	n/a	n/a	0	0	0
4645.218	n/a	WORD	2322609	wordpools/wasnorm_wordpool_576.txt	LTP304	ltpFR2	0	19	PLIERS	1089	n/a	n/a	0	0	0
4647.972	n/a	WORD	2323986	wordpools/wasnorm_wordpool_576.txt	LTP304	ltpFR2	0	19	KNAPSACK	783	n/a	n/a	0	0	0
4650.642	n/a	WORD	2325321	wordpools/wasnorm_wordpool_576.txt	LTP304	ltpFR2	0	19	KITCHEN	778	n/a	n/a	0	0	0
4653.282	n/a	WORD	2326641	wordpools/wasnorm_wordpool_576.txt	LTP304	ltpFR2	0	19	GROUND	666	n/a	n/a	0	0	0
4655.862	n/a	WORD	2327931	wordpools/wasnorm_wordpool_576.txt	LTP304	ltpFR2	0	19	CELLAR	267	n/a	n/a	0	0	0
4658.504	n/a	WORD	2329252	wordpools/wasnorm_wordpool_576.txt	LTP304	ltpFR2	0	19	SALAD	1224	n/a	n/a	0	0	0
