mstime	trial_type	stim_file	subject	experiment	session	trial	item_name	item_num	list	answer	test_x	test_y	test_z
0	SESS_START	n/a	LTP318	ltpFR2	21	n/a	n/a	n/a	n/a	n/a	0	0	0
16365	START	n/a	LTP318	ltpFR2	21	n/a	n/a	n/a	-1	n/a	n/a	n/a	n/a
16390	PROB	n/a	LTP318	ltpFR2	21	n/a	n/a	n/a	-1	17	5	9	3
19415	PROB	n/a	LTP318	ltpFR2	21	n/a	n/a	n/a	-1	19	8	4	7
22733	PROB	n/a	LTP318	ltpFR2	21	n/a	n/a	n/a	-1	11	4	2	5
24820	PROB	n/a	LTP318	ltpFR2	21	n/a	n/a	n/a	-1	11	4	2	5
28365	STOP	n/a	LTP318	ltpFR2	21	n/a	n/a	n/a	-1	n/a	n/a	n/a	n/a
62665	DISTRACTOR	n/a	LTP318	ltpFR2	21	1	n/a	n/a	n/a	n/a	0	0	0
62665	START	n/a	LTP318	ltpFR2	21	n/a	n/a	n/a	1	n/a	n/a	n/a	n/a
62683	PROB	n/a	LTP318	ltpFR2	21	n/a	n/a	n/a	1	21	9	6	6
65698	PROB	n/a	LTP318	ltpFR2	21	n/a	n/a	n/a	1	14	6	1	7
67301	PROB	n/a	LTP318	ltpFR2	21	n/a	n/a	n/a	1	23	8	6	9
70453	PROB	n/a	LTP318	ltpFR2	21	n/a	n/a	n/a	1	11	4	3	4
72339	PROB	n/a	LTP318	ltpFR2	21	n/a	n/a	n/a	1	13	9	2	2
74556	PROB	n/a	LTP318	ltpFR2	21	n/a	n/a	n/a	1	7	3	1	3
76027	PROB	n/a	LTP318	ltpFR2	21	n/a	n/a	n/a	1	17	6	9	2
77976	PROB	n/a	LTP318	ltpFR2	21	n/a	n/a	n/a	1	24	6	9	9
79643	PROB	n/a	LTP318	ltpFR2	21	n/a	n/a	n/a	1	9	4	4	1
81166	PROB	n/a	LTP318	ltpFR2	21	n/a	n/a	n/a	1	18	9	8	1
82947	PROB	n/a	LTP318	ltpFR2	21	n/a	n/a	n/a	1	17	8	5	4
86665	STOP	n/a	LTP318	ltpFR2	21	n/a	n/a	n/a	1	n/a	n/a	n/a	n/a
87669	WORD	wordpools/wasnorm_wordpool_576.txt	LTP318	ltpFR2	21	1	FREEZER	604	n/a	n/a	0	0	0
90289	WORD	wordpools/wasnorm_wordpool_576.txt	LTP318	ltpFR2	21	1	PILOT	1070	n/a	n/a	0	0	0
92956	WORD	wordpools/wasnorm_wordpool_576.txt	LTP318	ltpFR2	21	1	PASTRY	1022	n/a	n/a	0	0	0
95409	WORD	wordpools/wasnorm_wordpool_576.txt	LTP318	ltpFR2	21	1	BASEMENT	94	n/a	n/a	0	0	0
97961	WORD	wordpools/wasnorm_wordpool_576.txt	LTP318	ltpFR2	21	1	WIFE	1609	n/a	n/a	0	0	0
100531	WORD	wordpools/wasnorm_wordpool_576.txt	LTP318	ltpFR2	21	1	POET	1095	n/a	n/a	0	0	0
103316	WORD	wordpools/wasnorm_wordpool_576.txt	LTP318	ltpFR2	21	1	TEMPLE	1448	n/a	n/a	0	0	0
106034	WORD	wordpools/wasnorm_wordpool_576.txt	LTP318	ltpFR2	21	1	PLAZA	1088	n/a	n/a	0	0	0
108752	WORD	wordpools/wasnorm_wordpool_576.txt	LTP318	ltpFR2	21	1	MARKET	871	n/a	n/a	0	0	0
111356	WORD	wordpools/wasnorm_wordpool_576.txt	LTP318	ltpFR2	21	1	PIGEON	1065	n/a	n/a	0	0	0
114025	WORD	wordpools/wasnorm_wordpool_576.txt	LTP318	ltpFR2	21	1	REBEL	1172	n/a	n/a	0	0	0
116643	WORD	wordpools/wasnorm_wordpool_576.txt	LTP318	ltpFR2	21	1	SIBLING	1301	n/a	n/a	0	0	0
119246	WORD	wordpools/wasnorm_wordpool_576.txt	LTP318	ltpFR2	21	1	AIRPLANE	12	n/a	n/a	0	0	0
121897	WORD	wordpools/wasnorm_wordpool_576.txt	LTP318	ltpFR2	21	1	CHAPEL	280	n/a	n/a	0	0	0
124450	WORD	wordpools/wasnorm_wordpool_576.txt	LTP318	ltpFR2	21	1	EXPERT	543	n/a	n/a	0	0	0
127186	WORD	wordpools/wasnorm_wordpool_576.txt	LTP318	ltpFR2	21	1	TEACHER	1440	n/a	n/a	0	0	0
130003	WORD	wordpools/wasnorm_wordpool_576.txt	LTP318	ltpFR2	21	1	TOURIST	1488	n/a	n/a	0	0	0
132473	WORD	wordpools/wasnorm_wordpool_576.txt	LTP318	ltpFR2	21	1	SUITCASE	1403	n/a	n/a	0	0	0
135092	WORD	wordpools/wasnorm_wordpool_576.txt	LTP318	ltpFR2	21	1	TART	1436	n/a	n/a	0	0	0
137643	WORD	wordpools/wasnorm_wordpool_576.txt	LTP318	ltpFR2	21	1	BRANCH	168	n/a	n/a	0	0	0
140229	WORD	wordpools/wasnorm_wordpool_576.txt	LTP318	ltpFR2	21	1	STALLION	1369	n/a	n/a	0	0	0
142847	WORD	wordpools/wasnorm_wordpool_576.txt	LTP318	ltpFR2	21	1	BUNNY	198	n/a	n/a	0	0	0
145283	WORD	wordpools/wasnorm_wordpool_576.txt	LTP318	ltpFR2	21	1	SEAGULL	1261	n/a	n/a	0	0	0
148067	WORD	wordpools/wasnorm_wordpool_576.txt	LTP318	ltpFR2	21	1	ATLAS	53	n/a	n/a	0	0	0
149674	START	n/a	LTP318	ltpFR2	21	n/a	n/a	n/a	2	n/a	n/a	n/a	n/a
150565	DISTRACTOR	n/a	LTP318	ltpFR2	21	1	n/a	n/a	n/a	n/a	0	0	0
150571	PROB	n/a	LTP318	ltpFR2	21	n/a	n/a	n/a	2	23	9	9	5
153072	PROB	n/a	LTP318	ltpFR2	21	n/a	n/a	n/a	2	23	8	6	9
155124	PROB	n/a	LTP318	ltpFR2	21	n/a	n/a	n/a	2	14	4	2	8
157526	PROB	n/a	LTP318	ltpFR2	21	n/a	n/a	n/a	2	26	9	8	9
159126	PROB	n/a	LTP318	ltpFR2	21	n/a	n/a	n/a	2	9	6	1	2
160895	PROB	n/a	LTP318	ltpFR2	21	n/a	n/a	n/a	2	18	5	8	5
162412	PROB	n/a	LTP318	ltpFR2	21	n/a	n/a	n/a	2	17	3	7	7
163848	PROB	n/a	LTP318	ltpFR2	21	n/a	n/a	n/a	2	19	9	9	1
165631	PROB	n/a	LTP318	ltpFR2	21	n/a	n/a	n/a	2	8	2	3	3
168434	PROB	n/a	LTP318	ltpFR2	21	n/a	n/a	n/a	2	13	6	3	4
170052	PROB	n/a	LTP318	ltpFR2	21	n/a	n/a	n/a	2	12	6	5	1
173674	STOP	n/a	LTP318	ltpFR2	21	n/a	n/a	n/a	2	n/a	n/a	n/a	n/a
175459	REC_START	n/a	LTP318	ltpFR2	21	1	n/a	n/a	n/a	n/a	0	0	0
179309	REC_WORD	wordpools/wasnorm_wordpool_576.txt	LTP318	ltpFR2	21	1	PILOT	1070	n/a	n/a	0	0	0
180110	REC_WORD	wordpools/wasnorm_wordpool_576.txt	LTP318	ltpFR2	21	1	FREEZER	604	n/a	n/a	0	0	0
181548	REC_WORD	wordpools/wasnorm_wordpool_576.txt	LTP318	ltpFR2	21	1	PASTRY	1022	n/a	n/a	0	0	0
183761	REC_WORD	wordpools/wasnorm_wordpool_576.txt	LTP318	ltpFR2	21	1	BASEMENT	94	n/a	n/a	0	0	0
185062	REC_WORD	wordpools/wasnorm_wordpool_576.txt	LTP318	ltpFR2	21	1	WIFE	1609	n/a	n/a	0	0	0
185725	REC_WORD	wordpools/wasnorm_wordpool_576.txt	LTP318	ltpFR2	21	1	POET	1095	n/a	n/a	0	0	0
193060	REC_WORD	wordpools/wasnorm_wordpool_576.txt	LTP318	ltpFR2	21	1	TEMPLE	1448	n/a	n/a	0	0	0
194011	REC_WORD	wordpools/wasnorm_wordpool_576.txt	LTP318	ltpFR2	21	1	CHAPEL	280	n/a	n/a	0	0	0
199572	REC_WORD	wordpools/wasnorm_wordpool_576.txt	LTP318	ltpFR2	21	1	PLAZA	1088	n/a	n/a	0	0	0
200463	REC_WORD	wordpools/wasnorm_wordpool_576.txt	LTP318	ltpFR2	21	1	PIGEON	1065	n/a	n/a	0	0	0
201446	REC_WORD	wordpools/wasnorm_wordpool_576.txt	LTP318	ltpFR2	21	1	SEAGULL	1261	n/a	n/a	0	0	0
202586	REC_WORD	wordpools/wasnorm_wordpool_576.txt	LTP318	ltpFR2	21	1	BUNNY	198	n/a	n/a	0	0	0
208912	REC_WORD	wordpools/wasnorm_wordpool_576.txt	LTP318	ltpFR2	21	1	TOURIST	1488	n/a	n/a	0	0	0
209612	REC_WORD	wordpools/wasnorm_wordpool_576.txt	LTP318	ltpFR2	21	1	SUITCASE	1403	n/a	n/a	0	0	0
210612	REC_WORD_VV	wordpools/wasnorm_wordpool_576.txt	LTP318	ltpFR2	21	1	<>	-1	n/a	n/a	0	0	0
220776	REC_WORD	wordpools/wasnorm_wordpool_576.txt	LTP318	ltpFR2	21	1	TEACHER	1440	n/a	n/a	0	0	0
221572	REC_WORD	wordpools/wasnorm_wordpool_576.txt	LTP318	ltpFR2	21	1	EXPERT	543	n/a	n/a	0	0	0
244678	REC_WORD	wordpools/wasnorm_wordpool_576.txt	LTP318	ltpFR2	21	1	ATLAS	53	n/a	n/a	0	0	0
265895	WORD	wordpools/wasnorm_wordpool_576.txt	LTP318	ltpFR2	21	2	GANGSTER	620	n/a	n/a	0	0	0
268493	WORD	wordpools/wasnorm_wordpool_576.txt	LTP318	ltpFR2	21	2	SLOPE	1328	n/a	n/a	0	0	0
271279	WORD	wordpools/wasnorm_wordpool_576.txt	LTP318	ltpFR2	21	2	PIGMENT	1066	n/a	n/a	0	0	0
274052	WORD	wordpools/wasnorm_wordpool_576.txt	LTP318	ltpFR2	21	2	PLASTER	1085	n/a	n/a	0	0	0
276854	WORD	wordpools/wasnorm_wordpool_576.txt	LTP318	ltpFR2	21	2	LABEL	790	n/a	n/a	0	0	0
279606	WORD	wordpools/wasnorm_wordpool_576.txt	LTP318	ltpFR2	21	2	QUAIL	1147	n/a	n/a	0	0	0
282389	WORD	wordpools/wasnorm_wordpool_576.txt	LTP318	ltpFR2	21	2	EAGLE	512	n/a	n/a	0	0	0
284907	WORD	wordpools/wasnorm_wordpool_576.txt	LTP318	ltpFR2	21	2	CLIMBER	323	n/a	n/a	0	0	0
287327	WORD	wordpools/wasnorm_wordpool_576.txt	LTP318	ltpFR2	21	2	RIFLE	1192	n/a	n/a	0	0	0
290113	WORD	wordpools/wasnorm_wordpool_576.txt	LTP318	ltpFR2	21	2	BACON	67	n/a	n/a	0	0	0
292634	WORD	wordpools/wasnorm_wordpool_576.txt	LTP318	ltpFR2	21	2	BRAKE	166	n/a	n/a	0	0	0
295337	WORD	wordpools/wasnorm_wordpool_576.txt	LTP318	ltpFR2	21	2	SKETCH	1315	n/a	n/a	0	0	0
298119	WORD	wordpools/wasnorm_wordpool_576.txt	LTP318	ltpFR2	21	2	GAVEL	627	n/a	n/a	0	0	0
300554	WORD	wordpools/wasnorm_wordpool_576.txt	LTP318	ltpFR2	21	2	SNACK	1331	n/a	n/a	0	0	0
303357	WORD	wordpools/wasnorm_wordpool_576.txt	LTP318	ltpFR2	21	2	SHORTCAKE	1292	n/a	n/a	0	0	0
306142	WORD	wordpools/wasnorm_wordpool_576.txt	LTP318	ltpFR2	21	2	TAXI	1438	n/a	n/a	0	0	0
308680	WORD	wordpools/wasnorm_wordpool_576.txt	LTP318	ltpFR2	21	2	HIGHWAY	707	n/a	n/a	0	0	0
311197	WORD	wordpools/wasnorm_wordpool_576.txt	LTP318	ltpFR2	21	2	QUEEN	1149	n/a	n/a	0	0	0
313866	WORD	wordpools/wasnorm_wordpool_576.txt	LTP318	ltpFR2	21	2	STAMP	1370	n/a	n/a	0	0	0
316385	WORD	wordpools/wasnorm_wordpool_576.txt	LTP318	ltpFR2	21	2	TWIG	1527	n/a	n/a	0	0	0
319020	WORD	wordpools/wasnorm_wordpool_576.txt	LTP318	ltpFR2	21	2	EGYPT	519	n/a	n/a	0	0	0
321789	WORD	wordpools/wasnorm_wordpool_576.txt	LTP318	ltpFR2	21	2	SHELF	1280	n/a	n/a	0	0	0
324591	WORD	wordpools/wasnorm_wordpool_576.txt	LTP318	ltpFR2	21	2	SERVANT	1271	n/a	n/a	0	0	0
327328	WORD	wordpools/wasnorm_wordpool_576.txt	LTP318	ltpFR2	21	2	LOVER	846	n/a	n/a	0	0	0
328947	START	n/a	LTP318	ltpFR2	21	n/a	n/a	n/a	3	n/a	n/a	n/a	n/a
330087	DISTRACTOR	n/a	LTP318	ltpFR2	21	2	n/a	n/a	n/a	n/a	0	0	0
330097	PROB	n/a	LTP318	ltpFR2	21	n/a	n/a	n/a	3	13	1	4	8
332217	PROB	n/a	LTP318	ltpFR2	21	n/a	n/a	n/a	3	14	3	4	7
333718	PROB	n/a	LTP318	ltpFR2	21	n/a	n/a	n/a	3	17	4	6	7
335051	PROB	n/a	LTP318	ltpFR2	21	n/a	n/a	n/a	3	17	9	1	7
336519	PROB	n/a	LTP318	ltpFR2	21	n/a	n/a	n/a	3	15	5	1	9
338187	PROB	n/a	LTP318	ltpFR2	21	n/a	n/a	n/a	3	7	2	4	1
340506	PROB	n/a	LTP318	ltpFR2	21	n/a	n/a	n/a	3	5	1	3	1
341939	PROB	n/a	LTP318	ltpFR2	21	n/a	n/a	n/a	3	11	5	5	1
343443	PROB	n/a	LTP318	ltpFR2	21	n/a	n/a	n/a	3	10	4	1	5
345028	PROB	n/a	LTP318	ltpFR2	21	n/a	n/a	n/a	3	22	6	8	8
346843	PROB	n/a	LTP318	ltpFR2	21	n/a	n/a	n/a	3	22	9	6	7
349045	PROB	n/a	LTP318	ltpFR2	21	n/a	n/a	n/a	3	17	9	2	6
352933	STOP	n/a	LTP318	ltpFR2	21	n/a	n/a	n/a	3	n/a	n/a	n/a	n/a
354733	REC_START	n/a	LTP318	ltpFR2	21	2	n/a	n/a	n/a	n/a	0	0	0
361116	REC_WORD	wordpools/wasnorm_wordpool_576.txt	LTP318	ltpFR2	21	2	GANGSTER	620	n/a	n/a	0	0	0
361962	REC_WORD	wordpools/wasnorm_wordpool_576.txt	LTP318	ltpFR2	21	2	SLOPE	1328	n/a	n/a	0	0	0
362962	REC_WORD_VV	wordpools/wasnorm_wordpool_576.txt	LTP318	ltpFR2	21	2	<>	-1	n/a	n/a	0	0	0
364329	REC_WORD	wordpools/wasnorm_wordpool_576.txt	LTP318	ltpFR2	21	2	PIGMENT	1066	n/a	n/a	0	0	0
365093	REC_WORD	wordpools/wasnorm_wordpool_576.txt	LTP318	ltpFR2	21	2	PLASTER	1085	n/a	n/a	0	0	0
370801	REC_WORD	wordpools/wasnorm_wordpool_576.txt	LTP318	ltpFR2	21	2	SHORTCAKE	1292	n/a	n/a	0	0	0
371801	REC_WORD_VV	wordpools/wasnorm_wordpool_576.txt	LTP318	ltpFR2	21	2	<>	-1	n/a	n/a	0	0	0
380323	REC_WORD	wordpools/wasnorm_wordpool_576.txt	LTP318	ltpFR2	21	2	QUEEN	1149	n/a	n/a	0	0	0
381597	REC_WORD	wordpools/wasnorm_wordpool_576.txt	LTP318	ltpFR2	21	2	EGYPT	519	n/a	n/a	0	0	0
382479	REC_WORD	wordpools/wasnorm_wordpool_576.txt	LTP318	ltpFR2	21	2	GAVEL	627	n/a	n/a	0	0	0
383229	REC_WORD	wordpools/wasnorm_wordpool_576.txt	LTP318	ltpFR2	21	2	TWIG	1527	n/a	n/a	0	0	0
399825	REC_WORD	wordpools/wasnorm_wordpool_576.txt	LTP318	ltpFR2	21	2	SHORTCAKE	1292	n/a	n/a	0	0	0
400825	REC_WORD_VV	wordpools/wasnorm_wordpool_576.txt	LTP318	ltpFR2	21	2	<>	-1	n/a	n/a	0	0	0
445158	DISTRACTOR	n/a	LTP318	ltpFR2	21	3	n/a	n/a	n/a	n/a	0	0	0
445158	START	n/a	LTP318	ltpFR2	21	n/a	n/a	n/a	4	n/a	n/a	n/a	n/a
445172	PROB	n/a	LTP318	ltpFR2	21	n/a	n/a	n/a	4	12	1	2	9
447258	PROB	n/a	LTP318	ltpFR2	21	n/a	n/a	n/a	4	14	5	7	2
449058	PROB	n/a	LTP318	ltpFR2	21	n/a	n/a	n/a	4	19	7	4	8
450776	PROB	n/a	LTP318	ltpFR2	21	n/a	n/a	n/a	4	18	9	6	3
452911	PROB	n/a	LTP318	ltpFR2	21	n/a	n/a	n/a	4	12	3	7	2
454480	PROB	n/a	LTP318	ltpFR2	21	n/a	n/a	n/a	4	13	1	5	7
456048	PROB	n/a	LTP318	ltpFR2	21	n/a	n/a	n/a	4	17	9	1	7
457434	PROB	n/a	LTP318	ltpFR2	21	n/a	n/a	n/a	4	10	2	5	3
459250	PROB	n/a	LTP318	ltpFR2	21	n/a	n/a	n/a	4	15	7	1	7
460601	PROB	n/a	LTP318	ltpFR2	21	n/a	n/a	n/a	4	16	4	9	3
462486	PROB	n/a	LTP318	ltpFR2	21	n/a	n/a	n/a	4	10	8	1	1
464089	PROB	n/a	LTP318	ltpFR2	21	n/a	n/a	n/a	4	22	6	7	9
466224	PROB	n/a	LTP318	ltpFR2	21	n/a	n/a	n/a	4	19	9	4	6
468139	STOP	n/a	LTP318	ltpFR2	21	n/a	n/a	n/a	4	n/a	n/a	n/a	n/a
470328	WORD	wordpools/wasnorm_wordpool_576.txt	LTP318	ltpFR2	21	3	GARLIC	624	n/a	n/a	0	0	0
472762	WORD	wordpools/wasnorm_wordpool_576.txt	LTP318	ltpFR2	21	3	MESSAGE	888	n/a	n/a	0	0	0
475331	WORD	wordpools/wasnorm_wordpool_576.txt	LTP318	ltpFR2	21	3	MAILBOX	857	n/a	n/a	0	0	0
477866	WORD	wordpools/wasnorm_wordpool_576.txt	LTP318	ltpFR2	21	3	GLOVE	642	n/a	n/a	0	0	0
480502	WORD	wordpools/wasnorm_wordpool_576.txt	LTP318	ltpFR2	21	3	DRIVER	499	n/a	n/a	0	0	0
483029	WORD	wordpools/wasnorm_wordpool_576.txt	LTP318	ltpFR2	21	3	CRUTCH	417	n/a	n/a	0	0	0
485732	WORD	wordpools/wasnorm_wordpool_576.txt	LTP318	ltpFR2	21	3	YACHT	1629	n/a	n/a	0	0	0
488558	WORD	wordpools/wasnorm_wordpool_576.txt	LTP318	ltpFR2	21	3	SWIMMER	1420	n/a	n/a	0	0	0
491205	WORD	wordpools/wasnorm_wordpool_576.txt	LTP318	ltpFR2	21	3	BIKE	125	n/a	n/a	0	0	0
493739	WORD	wordpools/wasnorm_wordpool_576.txt	LTP318	ltpFR2	21	3	RECEIPT	1173	n/a	n/a	0	0	0
496365	WORD	wordpools/wasnorm_wordpool_576.txt	LTP318	ltpFR2	21	3	HAND	683	n/a	n/a	0	0	0
498876	WORD	wordpools/wasnorm_wordpool_576.txt	LTP318	ltpFR2	21	3	SCOTCH	1251	n/a	n/a	0	0	0
501629	WORD	wordpools/wasnorm_wordpool_576.txt	LTP318	ltpFR2	21	3	TOASTER	1472	n/a	n/a	0	0	0
504382	WORD	wordpools/wasnorm_wordpool_576.txt	LTP318	ltpFR2	21	3	STOVE	1388	n/a	n/a	0	0	0
506939	WORD	wordpools/wasnorm_wordpool_576.txt	LTP318	ltpFR2	21	3	THRONE	1461	n/a	n/a	0	0	0
509636	WORD	wordpools/wasnorm_wordpool_576.txt	LTP318	ltpFR2	21	3	SADDLE	1221	n/a	n/a	0	0	0
512105	WORD	wordpools/wasnorm_wordpool_576.txt	LTP318	ltpFR2	21	3	FLASK	576	n/a	n/a	0	0	0
514657	WORD	wordpools/wasnorm_wordpool_576.txt	LTP318	ltpFR2	21	3	FIREPLACE	570	n/a	n/a	0	0	0
517126	WORD	wordpools/wasnorm_wordpool_576.txt	LTP318	ltpFR2	21	3	TRACTOR	1493	n/a	n/a	0	0	0
519845	WORD	wordpools/wasnorm_wordpool_576.txt	LTP318	ltpFR2	21	3	RAZOR	1171	n/a	n/a	0	0	0
522531	WORD	wordpools/wasnorm_wordpool_576.txt	LTP318	ltpFR2	21	3	HEDGE	699	n/a	n/a	0	0	0
525250	WORD	wordpools/wasnorm_wordpool_576.txt	LTP318	ltpFR2	21	3	SKILLET	1317	n/a	n/a	0	0	0
527823	WORD	wordpools/wasnorm_wordpool_576.txt	LTP318	ltpFR2	21	3	ACTRESS	6	n/a	n/a	0	0	0
530421	WORD	wordpools/wasnorm_wordpool_576.txt	LTP318	ltpFR2	21	3	POCKET	1093	n/a	n/a	0	0	0
532028	START	n/a	LTP318	ltpFR2	21	n/a	n/a	n/a	5	n/a	n/a	n/a	n/a
532839	DISTRACTOR	n/a	LTP318	ltpFR2	21	3	n/a	n/a	n/a	n/a	0	0	0
532843	PROB	n/a	LTP318	ltpFR2	21	n/a	n/a	n/a	5	17	7	5	5
535414	PROB	n/a	LTP318	ltpFR2	21	n/a	n/a	n/a	5	13	4	5	4
542500	PROB	n/a	LTP318	ltpFR2	21	n/a	n/a	n/a	5	15	4	9	2
544270	PROB	n/a	LTP318	ltpFR2	21	n/a	n/a	n/a	5	23	8	6	9
546951	PROB	n/a	LTP318	ltpFR2	21	n/a	n/a	n/a	5	16	6	1	9
549390	PROB	n/a	LTP318	ltpFR2	21	n/a	n/a	n/a	5	18	9	7	2
551405	PROB	n/a	LTP318	ltpFR2	21	n/a	n/a	n/a	5	13	3	1	9
553191	PROB	n/a	LTP318	ltpFR2	21	n/a	n/a	n/a	5	12	2	2	8
554741	STOP	n/a	LTP318	ltpFR2	21	n/a	n/a	n/a	5	n/a	n/a	n/a	n/a
557862	REC_START	n/a	LTP318	ltpFR2	21	3	n/a	n/a	n/a	n/a	0	0	0
561895	REC_WORD	wordpools/wasnorm_wordpool_576.txt	LTP318	ltpFR2	21	3	SKILLET	1317	n/a	n/a	0	0	0
563248	REC_WORD	wordpools/wasnorm_wordpool_576.txt	LTP318	ltpFR2	21	3	ACTRESS	6	n/a	n/a	0	0	0
565128	REC_WORD	wordpools/wasnorm_wordpool_576.txt	LTP318	ltpFR2	21	3	POCKET	1093	n/a	n/a	0	0	0
568565	REC_WORD	wordpools/wasnorm_wordpool_576.txt	LTP318	ltpFR2	21	3	GARLIC	624	n/a	n/a	0	0	0
569431	REC_WORD	wordpools/wasnorm_wordpool_576.txt	LTP318	ltpFR2	21	3	MESSAGE	888	n/a	n/a	0	0	0
570378	REC_WORD	wordpools/wasnorm_wordpool_576.txt	LTP318	ltpFR2	21	3	MAILBOX	857	n/a	n/a	0	0	0
571518	REC_WORD	wordpools/wasnorm_wordpool_576.txt	LTP318	ltpFR2	21	3	GLOVE	642	n/a	n/a	0	0	0
573184	REC_WORD	wordpools/wasnorm_wordpool_576.txt	LTP318	ltpFR2	21	3	DRIVER	499	n/a	n/a	0	0	0
576116	REC_WORD	wordpools/wasnorm_wordpool_576.txt	LTP318	ltpFR2	21	3	CRUTCH	417	n/a	n/a	0	0	0
582514	REC_WORD	wordpools/wasnorm_wordpool_576.txt	LTP318	ltpFR2	21	3	YACHT	1629	n/a	n/a	0	0	0
583404	REC_WORD	wordpools/wasnorm_wordpool_576.txt	LTP318	ltpFR2	21	3	SWIMMER	1420	n/a	n/a	0	0	0
588908	REC_WORD	wordpools/wasnorm_wordpool_576.txt	LTP318	ltpFR2	21	3	BIKE	125	n/a	n/a	0	0	0
590417	REC_WORD	wordpools/wasnorm_wordpool_576.txt	LTP318	ltpFR2	21	3	SCOTCH	1251	n/a	n/a	0	0	0
648304	WORD	wordpools/wasnorm_wordpool_576.txt	LTP318	ltpFR2	21	4	COURSE	390	n/a	n/a	0	0	0
650921	WORD	wordpools/wasnorm_wordpool_576.txt	LTP318	ltpFR2	21	4	GUARD	667	n/a	n/a	0	0	0
653674	WORD	wordpools/wasnorm_wordpool_576.txt	LTP318	ltpFR2	21	4	MUFFIN	929	n/a	n/a	0	0	0
656381	WORD	wordpools/wasnorm_wordpool_576.txt	LTP318	ltpFR2	21	4	LACE	792	n/a	n/a	0	0	0
659200	WORD	wordpools/wasnorm_wordpool_576.txt	LTP318	ltpFR2	21	4	DENIM	446	n/a	n/a	0	0	0
661646	WORD	wordpools/wasnorm_wordpool_576.txt	LTP318	ltpFR2	21	4	PEANUT	1032	n/a	n/a	0	0	0
664249	WORD	wordpools/wasnorm_wordpool_576.txt	LTP318	ltpFR2	21	4	CRIB	407	n/a	n/a	0	0	0
666884	WORD	wordpools/wasnorm_wordpool_576.txt	LTP318	ltpFR2	21	4	INFANT	737	n/a	n/a	0	0	0
669703	WORD	wordpools/wasnorm_wordpool_576.txt	LTP318	ltpFR2	21	4	PUDDLE	1140	n/a	n/a	0	0	0
672295	WORD	wordpools/wasnorm_wordpool_576.txt	LTP318	ltpFR2	21	4	STAPLE	1371	n/a	n/a	0	0	0
675074	WORD	wordpools/wasnorm_wordpool_576.txt	LTP318	ltpFR2	21	4	NOTEBOOK	959	n/a	n/a	0	0	0
677516	WORD	wordpools/wasnorm_wordpool_576.txt	LTP318	ltpFR2	21	4	CHIPMUNK	304	n/a	n/a	0	0	0
680262	WORD	wordpools/wasnorm_wordpool_576.txt	LTP318	ltpFR2	21	4	BISON	131	n/a	n/a	0	0	0
682746	WORD	wordpools/wasnorm_wordpool_576.txt	LTP318	ltpFR2	21	4	MAPLE	866	n/a	n/a	0	0	0
685373	WORD	wordpools/wasnorm_wordpool_576.txt	LTP318	ltpFR2	21	4	DORM	488	n/a	n/a	0	0	0
688103	WORD	wordpools/wasnorm_wordpool_576.txt	LTP318	ltpFR2	21	4	COLLEGE	346	n/a	n/a	0	0	0
690603	WORD	wordpools/wasnorm_wordpool_576.txt	LTP318	ltpFR2	21	4	AGENT	10	n/a	n/a	0	0	0
693373	WORD	wordpools/wasnorm_wordpool_576.txt	LTP318	ltpFR2	21	4	GLOBE	641	n/a	n/a	0	0	0
696025	WORD	wordpools/wasnorm_wordpool_576.txt	LTP318	ltpFR2	21	4	BLUEPRINT	142	n/a	n/a	0	0	0
698559	WORD	wordpools/wasnorm_wordpool_576.txt	LTP318	ltpFR2	21	4	CHEST	295	n/a	n/a	0	0	0
701029	WORD	wordpools/wasnorm_wordpool_576.txt	LTP318	ltpFR2	21	4	FLAG	573	n/a	n/a	0	0	0
703630	WORD	wordpools/wasnorm_wordpool_576.txt	LTP318	ltpFR2	21	4	PIMPLE	1071	n/a	n/a	0	0	0
706233	WORD	wordpools/wasnorm_wordpool_576.txt	LTP318	ltpFR2	21	4	GRAVEL	659	n/a	n/a	0	0	0
708902	WORD	wordpools/wasnorm_wordpool_576.txt	LTP318	ltpFR2	21	4	WORLD	1622	n/a	n/a	0	0	0
710512	START	n/a	LTP318	ltpFR2	21	n/a	n/a	n/a	6	n/a	n/a	n/a	n/a
711449	DISTRACTOR	n/a	LTP318	ltpFR2	21	4	n/a	n/a	n/a	n/a	0	0	0
711454	PROB	n/a	LTP318	ltpFR2	21	n/a	n/a	n/a	6	10	4	4	2
713855	PROB	n/a	LTP318	ltpFR2	21	n/a	n/a	n/a	6	22	9	4	9
715390	PROB	n/a	LTP318	ltpFR2	21	n/a	n/a	n/a	6	19	6	7	6
718008	PROB	n/a	LTP318	ltpFR2	21	n/a	n/a	n/a	6	24	9	8	7
721129	PROB	n/a	LTP318	ltpFR2	21	n/a	n/a	n/a	6	18	7	6	5
723296	PROB	n/a	LTP318	ltpFR2	21	n/a	n/a	n/a	6	16	2	7	7
724698	PROB	n/a	LTP318	ltpFR2	21	n/a	n/a	n/a	6	26	8	9	9
726298	PROB	n/a	LTP318	ltpFR2	21	n/a	n/a	n/a	6	12	4	2	6
729066	PROB	n/a	LTP318	ltpFR2	21	n/a	n/a	n/a	6	3	1	1	1
730385	PROB	n/a	LTP318	ltpFR2	21	n/a	n/a	n/a	6	11	4	2	5
731868	PROB	n/a	LTP318	ltpFR2	21	n/a	n/a	n/a	6	13	4	2	7
733764	STOP	n/a	LTP318	ltpFR2	21	n/a	n/a	n/a	6	n/a	n/a	n/a	n/a
736408	REC_START	n/a	LTP318	ltpFR2	21	4	n/a	n/a	n/a	n/a	0	0	0
741386	REC_WORD	wordpools/wasnorm_wordpool_576.txt	LTP318	ltpFR2	21	4	FLAG	573	n/a	n/a	0	0	0
742412	REC_WORD	wordpools/wasnorm_wordpool_576.txt	LTP318	ltpFR2	21	4	PIMPLE	1071	n/a	n/a	0	0	0
746514	REC_WORD	wordpools/wasnorm_wordpool_576.txt	LTP318	ltpFR2	21	4	WORLD	1622	n/a	n/a	0	0	0
762193	REC_WORD	wordpools/wasnorm_wordpool_576.txt	LTP318	ltpFR2	21	4	TRAVEL	-1	n/a	n/a	0	0	0
764373	REC_WORD	wordpools/wasnorm_wordpool_576.txt	LTP318	ltpFR2	21	4	COLLEGE	346	n/a	n/a	0	0	0
765282	REC_WORD	wordpools/wasnorm_wordpool_576.txt	LTP318	ltpFR2	21	4	AGENT	10	n/a	n/a	0	0	0
768907	REC_WORD	wordpools/wasnorm_wordpool_576.txt	LTP318	ltpFR2	21	4	BLUEPRINT	142	n/a	n/a	0	0	0
769618	REC_WORD	wordpools/wasnorm_wordpool_576.txt	LTP318	ltpFR2	21	4	CHEST	295	n/a	n/a	0	0	0
772432	REC_WORD	wordpools/wasnorm_wordpool_576.txt	LTP318	ltpFR2	21	4	COURSE	390	n/a	n/a	0	0	0
773431	REC_WORD	wordpools/wasnorm_wordpool_576.txt	LTP318	ltpFR2	21	4	MAPLE	866	n/a	n/a	0	0	0
776375	REC_WORD	wordpools/wasnorm_wordpool_576.txt	LTP318	ltpFR2	21	4	BISON	131	n/a	n/a	0	0	0
782835	REC_WORD	wordpools/wasnorm_wordpool_576.txt	LTP318	ltpFR2	21	4	GUARD	667	n/a	n/a	0	0	0
783865	REC_WORD	wordpools/wasnorm_wordpool_576.txt	LTP318	ltpFR2	21	4	LACE	792	n/a	n/a	0	0	0
784723	REC_WORD	wordpools/wasnorm_wordpool_576.txt	LTP318	ltpFR2	21	4	DENIM	446	n/a	n/a	0	0	0
785600	REC_WORD	wordpools/wasnorm_wordpool_576.txt	LTP318	ltpFR2	21	4	MUFFIN	929	n/a	n/a	0	0	0
786736	REC_WORD	wordpools/wasnorm_wordpool_576.txt	LTP318	ltpFR2	21	4	PEANUT	1032	n/a	n/a	0	0	0
826862	DISTRACTOR	n/a	LTP318	ltpFR2	21	5	n/a	n/a	n/a	n/a	0	0	0
826863	START	n/a	LTP318	ltpFR2	21	n/a	n/a	n/a	7	n/a	n/a	n/a	n/a
826879	PROB	n/a	LTP318	ltpFR2	21	n/a	n/a	n/a	7	8	4	2	2
829081	PROB	n/a	LTP318	ltpFR2	21	n/a	n/a	n/a	7	11	2	5	4
831449	PROB	n/a	LTP318	ltpFR2	21	n/a	n/a	n/a	7	12	2	2	8
832883	PROB	n/a	LTP318	ltpFR2	21	n/a	n/a	n/a	7	17	8	7	2
834669	PROB	n/a	LTP318	ltpFR2	21	n/a	n/a	n/a	7	16	9	3	4
837288	PROB	n/a	LTP318	ltpFR2	21	n/a	n/a	n/a	7	15	4	6	5
839705	PROB	n/a	LTP318	ltpFR2	21	n/a	n/a	n/a	7	13	6	6	1
841340	PROB	n/a	LTP318	ltpFR2	21	n/a	n/a	n/a	7	17	9	3	5
842874	PROB	n/a	LTP318	ltpFR2	21	n/a	n/a	n/a	7	19	6	7	6
844659	PROB	n/a	LTP318	ltpFR2	21	n/a	n/a	n/a	7	15	6	8	1
846561	PROB	n/a	LTP318	ltpFR2	21	n/a	n/a	n/a	7	18	9	7	2
848496	PROB	n/a	LTP318	ltpFR2	21	n/a	n/a	n/a	7	17	5	6	6
850697	STOP	n/a	LTP318	ltpFR2	21	n/a	n/a	n/a	7	n/a	n/a	n/a	n/a
851816	WORD	wordpools/wasnorm_wordpool_576.txt	LTP318	ltpFR2	21	5	TERMITE	1451	n/a	n/a	0	0	0
854436	WORD	wordpools/wasnorm_wordpool_576.txt	LTP318	ltpFR2	21	5	OX	994	n/a	n/a	0	0	0
857086	WORD	wordpools/wasnorm_wordpool_576.txt	LTP318	ltpFR2	21	5	LIZARD	834	n/a	n/a	0	0	0
859589	WORD	wordpools/wasnorm_wordpool_576.txt	LTP318	ltpFR2	21	5	BUGGY	188	n/a	n/a	0	0	0
862377	WORD	wordpools/wasnorm_wordpool_576.txt	LTP318	ltpFR2	21	5	NURSE	963	n/a	n/a	0	0	0
864926	WORD	wordpools/wasnorm_wordpool_576.txt	LTP318	ltpFR2	21	5	AIRPORT	13	n/a	n/a	0	0	0
867728	WORD	wordpools/wasnorm_wordpool_576.txt	LTP318	ltpFR2	21	5	EUROPE	541	n/a	n/a	0	0	0
870315	WORD	wordpools/wasnorm_wordpool_576.txt	LTP318	ltpFR2	21	5	LONDON	843	n/a	n/a	0	0	0
872916	WORD	wordpools/wasnorm_wordpool_576.txt	LTP318	ltpFR2	21	5	MARS	873	n/a	n/a	0	0	0
875718	WORD	wordpools/wasnorm_wordpool_576.txt	LTP318	ltpFR2	21	5	CHAMPAGNE	278	n/a	n/a	0	0	0
878155	WORD	wordpools/wasnorm_wordpool_576.txt	LTP318	ltpFR2	21	5	JELLY	755	n/a	n/a	0	0	0
880705	WORD	wordpools/wasnorm_wordpool_576.txt	LTP318	ltpFR2	21	5	HAMPER	682	n/a	n/a	0	0	0
883193	WORD	wordpools/wasnorm_wordpool_576.txt	LTP318	ltpFR2	21	5	ROD	1203	n/a	n/a	0	0	0
885876	WORD	wordpools/wasnorm_wordpool_576.txt	LTP318	ltpFR2	21	5	DRILL	497	n/a	n/a	0	0	0
888400	WORD	wordpools/wasnorm_wordpool_576.txt	LTP318	ltpFR2	21	5	OUTFIT	988	n/a	n/a	0	0	0
891165	WORD	wordpools/wasnorm_wordpool_576.txt	LTP318	ltpFR2	21	5	SPHINX	1349	n/a	n/a	0	0	0
893616	WORD	wordpools/wasnorm_wordpool_576.txt	LTP318	ltpFR2	21	5	RACKET	1155	n/a	n/a	0	0	0
896336	WORD	wordpools/wasnorm_wordpool_576.txt	LTP318	ltpFR2	21	5	DONKEY	484	n/a	n/a	0	0	0
898886	WORD	wordpools/wasnorm_wordpool_576.txt	LTP318	ltpFR2	21	5	GREASE	660	n/a	n/a	0	0	0
901440	WORD	wordpools/wasnorm_wordpool_576.txt	LTP318	ltpFR2	21	5	PISTOL	1075	n/a	n/a	0	0	0
903979	WORD	wordpools/wasnorm_wordpool_576.txt	LTP318	ltpFR2	21	5	BULLET	194	n/a	n/a	0	0	0
906581	WORD	wordpools/wasnorm_wordpool_576.txt	LTP318	ltpFR2	21	5	SODA	1341	n/a	n/a	0	0	0
909262	WORD	wordpools/wasnorm_wordpool_576.txt	LTP318	ltpFR2	21	5	BALLOON	75	n/a	n/a	0	0	0
911930	WORD	wordpools/wasnorm_wordpool_576.txt	LTP318	ltpFR2	21	5	HELMET	702	n/a	n/a	0	0	0
913540	START	n/a	LTP318	ltpFR2	21	n/a	n/a	n/a	8	n/a	n/a	n/a	n/a
914657	DISTRACTOR	n/a	LTP318	ltpFR2	21	5	n/a	n/a	n/a	n/a	0	0	0
914666	PROB	n/a	LTP318	ltpFR2	21	n/a	n/a	n/a	8	9	5	2	2
916968	PROB	n/a	LTP318	ltpFR2	21	n/a	n/a	n/a	8	20	7	6	7
919036	PROB	n/a	LTP318	ltpFR2	21	n/a	n/a	n/a	8	19	3	9	7
920886	PROB	n/a	LTP318	ltpFR2	21	n/a	n/a	n/a	8	18	4	8	6
922589	PROB	n/a	LTP318	ltpFR2	21	n/a	n/a	n/a	8	19	7	7	5
924191	PROB	n/a	LTP318	ltpFR2	21	n/a	n/a	n/a	8	18	2	8	8
926342	PROB	n/a	LTP318	ltpFR2	21	n/a	n/a	n/a	8	15	3	9	3
928559	PROB	n/a	LTP318	ltpFR2	21	n/a	n/a	n/a	8	8	5	1	2
930912	PROB	n/a	LTP318	ltpFR2	21	n/a	n/a	n/a	8	18	7	3	8
932415	PROB	n/a	LTP318	ltpFR2	21	n/a	n/a	n/a	8	12	3	2	7
934384	PROB	n/a	LTP318	ltpFR2	21	n/a	n/a	n/a	8	19	2	8	9
936469	STOP	n/a	LTP318	ltpFR2	21	n/a	n/a	n/a	8	n/a	n/a	n/a	n/a
939286	REC_START	n/a	LTP318	ltpFR2	21	5	n/a	n/a	n/a	n/a	0	0	0
945011	REC_WORD	wordpools/wasnorm_wordpool_576.txt	LTP318	ltpFR2	21	5	SPHINX	1349	n/a	n/a	0	0	0
946011	REC_WORD_VV	wordpools/wasnorm_wordpool_576.txt	LTP318	ltpFR2	21	5	<>	-1	n/a	n/a	0	0	0
946196	REC_WORD	wordpools/wasnorm_wordpool_576.txt	LTP318	ltpFR2	21	5	SODA	1341	n/a	n/a	0	0	0
947483	REC_WORD	wordpools/wasnorm_wordpool_576.txt	LTP318	ltpFR2	21	5	BALLOON	75	n/a	n/a	0	0	0
950207	REC_WORD	wordpools/wasnorm_wordpool_576.txt	LTP318	ltpFR2	21	5	AIRPORT	13	n/a	n/a	0	0	0
954190	REC_WORD	wordpools/wasnorm_wordpool_576.txt	LTP318	ltpFR2	21	5	EUROPE	541	n/a	n/a	0	0	0
955085	REC_WORD	wordpools/wasnorm_wordpool_576.txt	LTP318	ltpFR2	21	5	MARS	873	n/a	n/a	0	0	0
957778	REC_WORD	wordpools/wasnorm_wordpool_576.txt	LTP318	ltpFR2	21	5	PISTOL	1075	n/a	n/a	0	0	0
958645	REC_WORD	wordpools/wasnorm_wordpool_576.txt	LTP318	ltpFR2	21	5	BULLET	194	n/a	n/a	0	0	0
961521	REC_WORD	wordpools/wasnorm_wordpool_576.txt	LTP318	ltpFR2	21	5	RACKET	1155	n/a	n/a	0	0	0
964992	REC_WORD	wordpools/wasnorm_wordpool_576.txt	LTP318	ltpFR2	21	5	OX	994	n/a	n/a	0	0	0
965687	REC_WORD	wordpools/wasnorm_wordpool_576.txt	LTP318	ltpFR2	21	5	TERMITE	1451	n/a	n/a	0	0	0
966681	REC_WORD	wordpools/wasnorm_wordpool_576.txt	LTP318	ltpFR2	21	5	BUGGY	188	n/a	n/a	0	0	0
1012050	REC_WORD	wordpools/wasnorm_wordpool_576.txt	LTP318	ltpFR2	21	5	SPHINX	1349	n/a	n/a	0	0	0
1013050	REC_WORD_VV	wordpools/wasnorm_wordpool_576.txt	LTP318	ltpFR2	21	5	<>	-1	n/a	n/a	0	0	0
1029738	WORD	wordpools/wasnorm_wordpool_576.txt	LTP318	ltpFR2	21	6	FLASHLIGHT	575	n/a	n/a	0	0	0
1032475	WORD	wordpools/wasnorm_wordpool_576.txt	LTP318	ltpFR2	21	6	LAPEL	800	n/a	n/a	0	0	0
1034927	WORD	wordpools/wasnorm_wordpool_576.txt	LTP318	ltpFR2	21	6	TRENCH	1503	n/a	n/a	0	0	0
1037380	WORD	wordpools/wasnorm_wordpool_576.txt	LTP318	ltpFR2	21	6	CANAL	226	n/a	n/a	0	0	0
1039833	WORD	wordpools/wasnorm_wordpool_576.txt	LTP318	ltpFR2	21	6	MARINE	869	n/a	n/a	0	0	0
1042635	WORD	wordpools/wasnorm_wordpool_576.txt	LTP318	ltpFR2	21	6	APRON	35	n/a	n/a	0	0	0
1045170	WORD	wordpools/wasnorm_wordpool_576.txt	LTP318	ltpFR2	21	6	POLICE	1098	n/a	n/a	0	0	0
1047805	WORD	wordpools/wasnorm_wordpool_576.txt	LTP318	ltpFR2	21	6	BLOCKADE	137	n/a	n/a	0	0	0
1050508	WORD	wordpools/wasnorm_wordpool_576.txt	LTP318	ltpFR2	21	6	RELISH	1183	n/a	n/a	0	0	0
1053261	WORD	wordpools/wasnorm_wordpool_576.txt	LTP318	ltpFR2	21	6	SNAKE	1333	n/a	n/a	0	0	0
1055812	WORD	wordpools/wasnorm_wordpool_576.txt	LTP318	ltpFR2	21	6	DAUGHTER	442	n/a	n/a	0	0	0
1058433	WORD	wordpools/wasnorm_wordpool_576.txt	LTP318	ltpFR2	21	6	WRIST	1626	n/a	n/a	0	0	0
1061234	WORD	wordpools/wasnorm_wordpool_576.txt	LTP318	ltpFR2	21	6	SHOULDER	1294	n/a	n/a	0	0	0
1063803	WORD	wordpools/wasnorm_wordpool_576.txt	LTP318	ltpFR2	21	6	BANKER	84	n/a	n/a	0	0	0
1066521	WORD	wordpools/wasnorm_wordpool_576.txt	LTP318	ltpFR2	21	6	CHILD	299	n/a	n/a	0	0	0
1069225	WORD	wordpools/wasnorm_wordpool_576.txt	LTP318	ltpFR2	21	6	HONEY	713	n/a	n/a	0	0	0
1072010	WORD	wordpools/wasnorm_wordpool_576.txt	LTP318	ltpFR2	21	6	BEEF	113	n/a	n/a	0	0	0
1074778	WORD	wordpools/wasnorm_wordpool_576.txt	LTP318	ltpFR2	21	6	STREAM	1392	n/a	n/a	0	0	0
1077364	WORD	wordpools/wasnorm_wordpool_576.txt	LTP318	ltpFR2	21	6	SPARROW	1347	n/a	n/a	0	0	0
1079915	WORD	wordpools/wasnorm_wordpool_576.txt	LTP318	ltpFR2	21	6	FLUTE	585	n/a	n/a	0	0	0
1082567	WORD	wordpools/wasnorm_wordpool_576.txt	LTP318	ltpFR2	21	6	SWAMP	1416	n/a	n/a	0	0	0
1085105	WORD	wordpools/wasnorm_wordpool_576.txt	LTP318	ltpFR2	21	6	ARMY	39	n/a	n/a	0	0	0
1087839	WORD	wordpools/wasnorm_wordpool_576.txt	LTP318	ltpFR2	21	6	FRIAR	605	n/a	n/a	0	0	0
1090524	WORD	wordpools/wasnorm_wordpool_576.txt	LTP318	ltpFR2	21	6	DRESSER	496	n/a	n/a	0	0	0
1092129	START	n/a	LTP318	ltpFR2	21	n/a	n/a	n/a	9	n/a	n/a	n/a	n/a
1093277	DISTRACTOR	n/a	LTP318	ltpFR2	21	6	n/a	n/a	n/a	n/a	0	0	0
1093294	PROB	n/a	LTP318	ltpFR2	21	n/a	n/a	n/a	9	10	2	7	1
1095628	PROB	n/a	LTP318	ltpFR2	21	n/a	n/a	n/a	9	11	1	5	5
1097062	PROB	n/a	LTP318	ltpFR2	21	n/a	n/a	n/a	9	16	5	6	5
1098846	PROB	n/a	LTP318	ltpFR2	21	n/a	n/a	n/a	9	16	8	2	6
1100598	PROB	n/a	LTP318	ltpFR2	21	n/a	n/a	n/a	9	16	5	9	2
1103185	PROB	n/a	LTP318	ltpFR2	21	n/a	n/a	n/a	9	12	2	5	5
1105051	PROB	n/a	LTP318	ltpFR2	21	n/a	n/a	n/a	9	10	3	3	4
1106638	PROB	n/a	LTP318	ltpFR2	21	n/a	n/a	n/a	9	20	8	3	9
1108655	PROB	n/a	LTP318	ltpFR2	21	n/a	n/a	n/a	9	16	3	6	7
1111275	PROB	n/a	LTP318	ltpFR2	21	n/a	n/a	n/a	9	18	6	7	5
1113426	PROB	n/a	LTP318	ltpFR2	21	n/a	n/a	n/a	9	14	5	6	3
1115340	STOP	n/a	LTP318	ltpFR2	21	n/a	n/a	n/a	9	n/a	n/a	n/a	n/a
1117896	REC_START	n/a	LTP318	ltpFR2	21	6	n/a	n/a	n/a	n/a	0	0	0
1125566	REC_WORD	wordpools/wasnorm_wordpool_576.txt	LTP318	ltpFR2	21	6	FRIAR	605	n/a	n/a	0	0	0
1126470	REC_WORD	wordpools/wasnorm_wordpool_576.txt	LTP318	ltpFR2	21	6	DRESSER	496	n/a	n/a	0	0	0
1131968	REC_WORD	wordpools/wasnorm_wordpool_576.txt	LTP318	ltpFR2	21	6	FLASHLIGHT	575	n/a	n/a	0	0	0
1133328	REC_WORD	wordpools/wasnorm_wordpool_576.txt	LTP318	ltpFR2	21	6	LAPEL	800	n/a	n/a	0	0	0
1137739	REC_WORD	wordpools/wasnorm_wordpool_576.txt	LTP318	ltpFR2	21	6	CANAL	226	n/a	n/a	0	0	0
1138538	REC_WORD	wordpools/wasnorm_wordpool_576.txt	LTP318	ltpFR2	21	6	TRENCH	1503	n/a	n/a	0	0	0
1139614	REC_WORD	wordpools/wasnorm_wordpool_576.txt	LTP318	ltpFR2	21	6	MARINE	869	n/a	n/a	0	0	0
1141450	REC_WORD	wordpools/wasnorm_wordpool_576.txt	LTP318	ltpFR2	21	6	POLICE	1098	n/a	n/a	0	0	0
1144789	REC_WORD	wordpools/wasnorm_wordpool_576.txt	LTP318	ltpFR2	21	6	BLOCKADE	137	n/a	n/a	0	0	0
1167319	REC_WORD	wordpools/wasnorm_wordpool_576.txt	LTP318	ltpFR2	21	6	BANKER	84	n/a	n/a	0	0	0
1168373	REC_WORD	wordpools/wasnorm_wordpool_576.txt	LTP318	ltpFR2	21	6	DAUGHTER	442	n/a	n/a	0	0	0
1171124	REC_WORD	wordpools/wasnorm_wordpool_576.txt	LTP318	ltpFR2	21	6	CHILD	299	n/a	n/a	0	0	0
1208335	WORD	wordpools/wasnorm_wordpool_576.txt	LTP318	ltpFR2	21	7	JAPAN	749	n/a	n/a	0	0	0
1210997	WORD	wordpools/wasnorm_wordpool_576.txt	LTP318	ltpFR2	21	7	POSSUM	1112	n/a	n/a	0	0	0
1213722	WORD	wordpools/wasnorm_wordpool_576.txt	LTP318	ltpFR2	21	7	OMELET	976	n/a	n/a	0	0	0
1216443	WORD	wordpools/wasnorm_wordpool_576.txt	LTP318	ltpFR2	21	7	MUMMY	932	n/a	n/a	0	0	0
1219139	WORD	wordpools/wasnorm_wordpool_576.txt	LTP318	ltpFR2	21	7	DONOR	485	n/a	n/a	0	0	0
1221612	WORD	wordpools/wasnorm_wordpool_576.txt	LTP318	ltpFR2	21	7	PISTON	1076	n/a	n/a	0	0	0
1224248	WORD	wordpools/wasnorm_wordpool_576.txt	LTP318	ltpFR2	21	7	FLEET	578	n/a	n/a	0	0	0
1226883	WORD	wordpools/wasnorm_wordpool_576.txt	LTP318	ltpFR2	21	7	COLONEL	348	n/a	n/a	0	0	0
1229697	WORD	wordpools/wasnorm_wordpool_576.txt	LTP318	ltpFR2	21	7	MONSTER	912	n/a	n/a	0	0	0
1232439	WORD	wordpools/wasnorm_wordpool_576.txt	LTP318	ltpFR2	21	7	TROMBONE	1508	n/a	n/a	0	0	0
1235019	WORD	wordpools/wasnorm_wordpool_576.txt	LTP318	ltpFR2	21	7	BOYFRIEND	162	n/a	n/a	0	0	0
1237608	WORD	wordpools/wasnorm_wordpool_576.txt	LTP318	ltpFR2	21	7	NECKLACE	940	n/a	n/a	0	0	0
1240278	WORD	wordpools/wasnorm_wordpool_576.txt	LTP318	ltpFR2	21	7	GOBLIN	645	n/a	n/a	0	0	0
1243030	WORD	wordpools/wasnorm_wordpool_576.txt	LTP318	ltpFR2	21	7	MASK	876	n/a	n/a	0	0	0
1245648	WORD	wordpools/wasnorm_wordpool_576.txt	LTP318	ltpFR2	21	7	CARRIAGE	248	n/a	n/a	0	0	0
1248198	WORD	wordpools/wasnorm_wordpool_576.txt	LTP318	ltpFR2	21	7	VALVE	1546	n/a	n/a	0	0	0
1250998	WORD	wordpools/wasnorm_wordpool_576.txt	LTP318	ltpFR2	21	7	MACHINE	852	n/a	n/a	0	0	0
1253535	WORD	wordpools/wasnorm_wordpool_576.txt	LTP318	ltpFR2	21	7	HATCHET	691	n/a	n/a	0	0	0
1256258	WORD	wordpools/wasnorm_wordpool_576.txt	LTP318	ltpFR2	21	7	TABLE	1426	n/a	n/a	0	0	0
1258688	WORD	wordpools/wasnorm_wordpool_576.txt	LTP318	ltpFR2	21	7	MOTEL	919	n/a	n/a	0	0	0
1261191	WORD	wordpools/wasnorm_wordpool_576.txt	LTP318	ltpFR2	21	7	SUNSET	1408	n/a	n/a	0	0	0
1263960	WORD	wordpools/wasnorm_wordpool_576.txt	LTP318	ltpFR2	21	7	CROWN	415	n/a	n/a	0	0	0
1266379	WORD	wordpools/wasnorm_wordpool_576.txt	LTP318	ltpFR2	21	7	PRINCESS	1125	n/a	n/a	0	0	0
1268985	WORD	wordpools/wasnorm_wordpool_576.txt	LTP318	ltpFR2	21	7	SCALPEL	1243	n/a	n/a	0	0	0
1270600	START	n/a	LTP318	ltpFR2	21	n/a	n/a	n/a	10	n/a	n/a	n/a	n/a
1271480	DISTRACTOR	n/a	LTP318	ltpFR2	21	7	n/a	n/a	n/a	n/a	0	0	0
1271484	PROB	n/a	LTP318	ltpFR2	21	n/a	n/a	n/a	10	18	1	9	8
1274205	PROB	n/a	LTP318	ltpFR2	21	n/a	n/a	n/a	10	13	5	6	2
1277720	PROB	n/a	LTP318	ltpFR2	21	n/a	n/a	n/a	10	12	3	8	1
1279406	PROB	n/a	LTP318	ltpFR2	21	n/a	n/a	n/a	10	20	9	5	6
1281427	PROB	n/a	LTP318	ltpFR2	21	n/a	n/a	n/a	10	10	3	4	3
1283677	PROB	n/a	LTP318	ltpFR2	21	n/a	n/a	n/a	10	23	8	9	6
1285579	PROB	n/a	LTP318	ltpFR2	21	n/a	n/a	n/a	10	18	6	4	8
1287047	PROB	n/a	LTP318	ltpFR2	21	n/a	n/a	n/a	10	18	7	8	3
1288867	PROB	n/a	LTP318	ltpFR2	21	n/a	n/a	n/a	10	16	6	2	8
1290400	PROB	n/a	LTP318	ltpFR2	21	n/a	n/a	n/a	10	15	3	7	5
1291935	PROB	n/a	LTP318	ltpFR2	21	n/a	n/a	n/a	10	14	5	4	5
1293363	STOP	n/a	LTP318	ltpFR2	21	n/a	n/a	n/a	10	n/a	n/a	n/a	n/a
1296458	REC_START	n/a	LTP318	ltpFR2	21	7	n/a	n/a	n/a	n/a	0	0	0
1301752	REC_WORD	wordpools/wasnorm_wordpool_576.txt	LTP318	ltpFR2	21	7	PRINCESS	1125	n/a	n/a	0	0	0
1302657	REC_WORD	wordpools/wasnorm_wordpool_576.txt	LTP318	ltpFR2	21	7	CROWN	415	n/a	n/a	0	0	0
1306615	REC_WORD	wordpools/wasnorm_wordpool_576.txt	LTP318	ltpFR2	21	7	GOBLIN	645	n/a	n/a	0	0	0
1307247	REC_WORD	wordpools/wasnorm_wordpool_576.txt	LTP318	ltpFR2	21	7	MASK	876	n/a	n/a	0	0	0
1307953	REC_WORD	wordpools/wasnorm_wordpool_576.txt	LTP318	ltpFR2	21	7	MONSTER	912	n/a	n/a	0	0	0
1313451	REC_WORD	wordpools/wasnorm_wordpool_576.txt	LTP318	ltpFR2	21	7	PISTON	1076	n/a	n/a	0	0	0
1314158	REC_WORD	wordpools/wasnorm_wordpool_576.txt	LTP318	ltpFR2	21	7	FLEET	578	n/a	n/a	0	0	0
1314903	REC_WORD	wordpools/wasnorm_wordpool_576.txt	LTP318	ltpFR2	21	7	COLONEL	348	n/a	n/a	0	0	0
1316694	REC_WORD	wordpools/wasnorm_wordpool_576.txt	LTP318	ltpFR2	21	7	BOYFRIEND	162	n/a	n/a	0	0	0
1328815	REC_WORD	wordpools/wasnorm_wordpool_576.txt	LTP318	ltpFR2	21	7	OMELET	976	n/a	n/a	0	0	0
1330704	REC_WORD	wordpools/wasnorm_wordpool_576.txt	LTP318	ltpFR2	21	7	JAPAN	749	n/a	n/a	0	0	0
1331530	REC_WORD	wordpools/wasnorm_wordpool_576.txt	LTP318	ltpFR2	21	7	POSSUM	1112	n/a	n/a	0	0	0
1336644	REC_WORD	wordpools/wasnorm_wordpool_576.txt	LTP318	ltpFR2	21	7	MACHINE	852	n/a	n/a	0	0	0
1340996	REC_WORD	wordpools/wasnorm_wordpool_576.txt	LTP318	ltpFR2	21	7	HATCHET	691	n/a	n/a	0	0	0
1341906	REC_WORD	wordpools/wasnorm_wordpool_576.txt	LTP318	ltpFR2	21	7	SCALPEL	1243	n/a	n/a	0	0	0
1386879	DISTRACTOR	n/a	LTP318	ltpFR2	21	8	n/a	n/a	n/a	n/a	0	0	0
1386880	START	n/a	LTP318	ltpFR2	21	n/a	n/a	n/a	11	n/a	n/a	n/a	n/a
1386894	PROB	n/a	LTP318	ltpFR2	21	n/a	n/a	n/a	11	6	1	3	2
1389630	PROB	n/a	LTP318	ltpFR2	21	n/a	n/a	n/a	11	14	2	5	7
1391064	PROB	n/a	LTP318	ltpFR2	21	n/a	n/a	n/a	11	15	2	5	8
1393551	PROB	n/a	LTP318	ltpFR2	21	n/a	n/a	n/a	11	11	3	7	1
1395453	PROB	n/a	LTP318	ltpFR2	21	n/a	n/a	n/a	11	13	1	6	6
1396869	PROB	n/a	LTP318	ltpFR2	21	n/a	n/a	n/a	11	18	4	5	9
1398539	PROB	n/a	LTP318	ltpFR2	21	n/a	n/a	n/a	11	12	4	4	4
1400038	PROB	n/a	LTP318	ltpFR2	21	n/a	n/a	n/a	11	17	7	6	4
1401606	PROB	n/a	LTP318	ltpFR2	21	n/a	n/a	n/a	11	15	2	7	6
1403192	PROB	n/a	LTP318	ltpFR2	21	n/a	n/a	n/a	11	18	7	2	9
1404758	PROB	n/a	LTP318	ltpFR2	21	n/a	n/a	n/a	11	12	2	4	6
1406412	PROB	n/a	LTP318	ltpFR2	21	n/a	n/a	n/a	11	22	9	4	9
1408114	PROB	n/a	LTP318	ltpFR2	21	n/a	n/a	n/a	11	12	7	2	3
1409663	STOP	n/a	LTP318	ltpFR2	21	n/a	n/a	n/a	11	n/a	n/a	n/a	n/a
1411788	WORD	wordpools/wasnorm_wordpool_576.txt	LTP318	ltpFR2	21	8	PALACE	1006	n/a	n/a	0	0	0
1414359	WORD	wordpools/wasnorm_wordpool_576.txt	LTP318	ltpFR2	21	8	HUMAN	726	n/a	n/a	0	0	0
1417060	WORD	wordpools/wasnorm_wordpool_576.txt	LTP318	ltpFR2	21	8	TORTOISE	1486	n/a	n/a	0	0	0
1419579	WORD	wordpools/wasnorm_wordpool_576.txt	LTP318	ltpFR2	21	8	GHETTO	633	n/a	n/a	0	0	0
1421998	WORD	wordpools/wasnorm_wordpool_576.txt	LTP318	ltpFR2	21	8	TUTU	1524	n/a	n/a	0	0	0
1424666	WORD	wordpools/wasnorm_wordpool_576.txt	LTP318	ltpFR2	21	8	BANQUET	86	n/a	n/a	0	0	0
1427212	WORD	wordpools/wasnorm_wordpool_576.txt	LTP318	ltpFR2	21	8	PEACH	1031	n/a	n/a	0	0	0
1429838	WORD	wordpools/wasnorm_wordpool_576.txt	LTP318	ltpFR2	21	8	BELLY	119	n/a	n/a	0	0	0
1432341	WORD	wordpools/wasnorm_wordpool_576.txt	LTP318	ltpFR2	21	8	LIVER	833	n/a	n/a	0	0	0
1435025	WORD	wordpools/wasnorm_wordpool_576.txt	LTP318	ltpFR2	21	8	BROTHER	179	n/a	n/a	0	0	0
1437453	WORD	wordpools/wasnorm_wordpool_576.txt	LTP318	ltpFR2	21	8	VAGRANT	1544	n/a	n/a	0	0	0
1440097	WORD	wordpools/wasnorm_wordpool_576.txt	LTP318	ltpFR2	21	8	MONEY	908	n/a	n/a	0	0	0
1442573	WORD	wordpools/wasnorm_wordpool_576.txt	LTP318	ltpFR2	21	8	WAITER	1580	n/a	n/a	0	0	0
1445110	WORD	wordpools/wasnorm_wordpool_576.txt	LTP318	ltpFR2	21	8	CRAYON	401	n/a	n/a	0	0	0
1447661	WORD	wordpools/wasnorm_wordpool_576.txt	LTP318	ltpFR2	21	8	PRINCE	1124	n/a	n/a	0	0	0
1450397	WORD	wordpools/wasnorm_wordpool_576.txt	LTP318	ltpFR2	21	8	BATHTUB	100	n/a	n/a	0	0	0
1453074	WORD	wordpools/wasnorm_wordpool_576.txt	LTP318	ltpFR2	21	8	MOP	916	n/a	n/a	0	0	0
1455793	WORD	wordpools/wasnorm_wordpool_576.txt	LTP318	ltpFR2	21	8	BADGE	68	n/a	n/a	0	0	0
1458437	WORD	wordpools/wasnorm_wordpool_576.txt	LTP318	ltpFR2	21	8	CUPBOARD	425	n/a	n/a	0	0	0
1461199	WORD	wordpools/wasnorm_wordpool_576.txt	LTP318	ltpFR2	21	8	SPOON	1357	n/a	n/a	0	0	0
1463800	WORD	wordpools/wasnorm_wordpool_576.txt	LTP318	ltpFR2	21	8	EMPIRE	530	n/a	n/a	0	0	0
1466554	WORD	wordpools/wasnorm_wordpool_576.txt	LTP318	ltpFR2	21	8	PATROL	1027	n/a	n/a	0	0	0
1469362	WORD	wordpools/wasnorm_wordpool_576.txt	LTP318	ltpFR2	21	8	BEAKER	104	n/a	n/a	0	0	0
1471808	WORD	wordpools/wasnorm_wordpool_576.txt	LTP318	ltpFR2	21	8	CHEMIST	292	n/a	n/a	0	0	0
1473416	START	n/a	LTP318	ltpFR2	21	n/a	n/a	n/a	12	n/a	n/a	n/a	n/a
1474476	DISTRACTOR	n/a	LTP318	ltpFR2	21	8	n/a	n/a	n/a	n/a	0	0	0
1474483	PROB	n/a	LTP318	ltpFR2	21	n/a	n/a	n/a	12	19	7	6	6
1477252	PROB	n/a	LTP318	ltpFR2	21	n/a	n/a	n/a	12	8	1	5	2
1478569	PROB	n/a	LTP318	ltpFR2	21	n/a	n/a	n/a	12	12	1	8	3
1480354	PROB	n/a	LTP318	ltpFR2	21	n/a	n/a	n/a	12	9	3	2	4
1482272	PROB	n/a	LTP318	ltpFR2	21	n/a	n/a	n/a	12	16	6	5	5
1483723	PROB	n/a	LTP318	ltpFR2	21	n/a	n/a	n/a	12	6	1	3	2
1485658	PROB	n/a	LTP318	ltpFR2	21	n/a	n/a	n/a	12	16	2	8	6
1487162	PROB	n/a	LTP318	ltpFR2	21	n/a	n/a	n/a	12	9	1	7	1
1488560	PROB	n/a	LTP318	ltpFR2	21	n/a	n/a	n/a	12	13	2	9	2
1490696	PROB	n/a	LTP318	ltpFR2	21	n/a	n/a	n/a	12	9	2	2	5
1492147	PROB	n/a	LTP318	ltpFR2	21	n/a	n/a	n/a	12	16	3	5	8
1494650	PROB	n/a	LTP318	ltpFR2	21	n/a	n/a	n/a	12	19	4	6	9
1496811	STOP	n/a	LTP318	ltpFR2	21	n/a	n/a	n/a	12	n/a	n/a	n/a	n/a
1499185	REC_START	n/a	LTP318	ltpFR2	21	8	n/a	n/a	n/a	n/a	0	0	0
1505270	REC_WORD	wordpools/wasnorm_wordpool_576.txt	LTP318	ltpFR2	21	8	MOP	916	n/a	n/a	0	0	0
1506103	REC_WORD	wordpools/wasnorm_wordpool_576.txt	LTP318	ltpFR2	21	8	PATROL	1027	n/a	n/a	0	0	0
1513544	REC_WORD	wordpools/wasnorm_wordpool_576.txt	LTP318	ltpFR2	21	8	PEACH	1031	n/a	n/a	0	0	0
1514263	REC_WORD	wordpools/wasnorm_wordpool_576.txt	LTP318	ltpFR2	21	8	BELLY	119	n/a	n/a	0	0	0
1514831	REC_WORD	wordpools/wasnorm_wordpool_576.txt	LTP318	ltpFR2	21	8	LIVER	833	n/a	n/a	0	0	0
1515848	REC_WORD	wordpools/wasnorm_wordpool_576.txt	LTP318	ltpFR2	21	8	BROTHER	179	n/a	n/a	0	0	0
1523767	REC_WORD	wordpools/wasnorm_wordpool_576.txt	LTP318	ltpFR2	21	8	PALACE	1006	n/a	n/a	0	0	0
1532882	REC_WORD	wordpools/wasnorm_wordpool_576.txt	LTP318	ltpFR2	21	8	TUTU	1524	n/a	n/a	0	0	0
1533554	REC_WORD	wordpools/wasnorm_wordpool_576.txt	LTP318	ltpFR2	21	8	HUMAN	726	n/a	n/a	0	0	0
1538206	REC_WORD	wordpools/wasnorm_wordpool_576.txt	LTP318	ltpFR2	21	8	PRINCE	1124	n/a	n/a	0	0	0
1549147	REC_WORD	wordpools/wasnorm_wordpool_576.txt	LTP318	ltpFR2	21	8	MONEY	908	n/a	n/a	0	0	0
1575730	REST_REWET	n/a	LTP318	ltpFR2	21	8	n/a	n/a	n/a	n/a	0	0	0
2202378	WORD	wordpools/wasnorm_wordpool_576.txt	LTP318	ltpFR2	21	9	CASKET	255	n/a	n/a	0	0	0
2204963	WORD	wordpools/wasnorm_wordpool_576.txt	LTP318	ltpFR2	21	9	CATTLE	261	n/a	n/a	0	0	0
2207720	WORD	wordpools/wasnorm_wordpool_576.txt	LTP318	ltpFR2	21	9	STATUE	1374	n/a	n/a	0	0	0
2210203	WORD	wordpools/wasnorm_wordpool_576.txt	LTP318	ltpFR2	21	9	VIKING	1565	n/a	n/a	0	0	0
2212786	WORD	wordpools/wasnorm_wordpool_576.txt	LTP318	ltpFR2	21	9	STUDENT	1395	n/a	n/a	0	0	0
2215477	WORD	wordpools/wasnorm_wordpool_576.txt	LTP318	ltpFR2	21	9	LAVA	804	n/a	n/a	0	0	0
2218258	WORD	wordpools/wasnorm_wordpool_576.txt	LTP318	ltpFR2	21	9	CRATER	400	n/a	n/a	0	0	0
2220828	WORD	wordpools/wasnorm_wordpool_576.txt	LTP318	ltpFR2	21	9	TUBA	1515	n/a	n/a	0	0	0
2223562	WORD	wordpools/wasnorm_wordpool_576.txt	LTP318	ltpFR2	21	9	BANJO	82	n/a	n/a	0	0	0
2225982	WORD	wordpools/wasnorm_wordpool_576.txt	LTP318	ltpFR2	21	9	WASP	1593	n/a	n/a	0	0	0
2228717	WORD	wordpools/wasnorm_wordpool_576.txt	LTP318	ltpFR2	21	9	JUNGLE	764	n/a	n/a	0	0	0
2231303	WORD	wordpools/wasnorm_wordpool_576.txt	LTP318	ltpFR2	21	9	RAFT	1159	n/a	n/a	0	0	0
2234056	WORD	wordpools/wasnorm_wordpool_576.txt	LTP318	ltpFR2	21	9	SALT	1229	n/a	n/a	0	0	0
2236607	WORD	wordpools/wasnorm_wordpool_576.txt	LTP318	ltpFR2	21	9	OUTDOORS	987	n/a	n/a	0	0	0
2239377	WORD	wordpools/wasnorm_wordpool_576.txt	LTP318	ltpFR2	21	9	SHARK	1275	n/a	n/a	0	0	0
2241811	WORD	wordpools/wasnorm_wordpool_576.txt	LTP318	ltpFR2	21	9	ICING	732	n/a	n/a	0	0	0
2244282	WORD	wordpools/wasnorm_wordpool_576.txt	LTP318	ltpFR2	21	9	KITCHEN	778	n/a	n/a	0	0	0
2247083	WORD	wordpools/wasnorm_wordpool_576.txt	LTP318	ltpFR2	21	9	PANTHER	1009	n/a	n/a	0	0	0
2249802	WORD	wordpools/wasnorm_wordpool_576.txt	LTP318	ltpFR2	21	9	COBRA	336	n/a	n/a	0	0	0
2252555	WORD	wordpools/wasnorm_wordpool_576.txt	LTP318	ltpFR2	21	9	ZIPPER	1636	n/a	n/a	0	0	0
2255375	WORD	wordpools/wasnorm_wordpool_576.txt	LTP318	ltpFR2	21	9	PEPPER	1047	n/a	n/a	0	0	0
2258043	WORD	wordpools/wasnorm_wordpool_576.txt	LTP318	ltpFR2	21	9	ROBOT	1200	n/a	n/a	0	0	0
2260812	WORD	wordpools/wasnorm_wordpool_576.txt	LTP318	ltpFR2	21	9	FOREST	593	n/a	n/a	0	0	0
2263281	WORD	wordpools/wasnorm_wordpool_576.txt	LTP318	ltpFR2	21	9	DOUGHNUT	490	n/a	n/a	0	0	0
2264899	START	n/a	LTP318	ltpFR2	21	n/a	n/a	n/a	13	n/a	n/a	n/a	n/a
2265853	DISTRACTOR	n/a	LTP318	ltpFR2	21	9	n/a	n/a	n/a	n/a	0	0	0
2265866	PROB	n/a	LTP318	ltpFR2	21	n/a	n/a	n/a	13	13	3	2	8
2268503	PROB	n/a	LTP318	ltpFR2	21	n/a	n/a	n/a	13	20	8	6	6
2270987	PROB	n/a	LTP318	ltpFR2	21	n/a	n/a	n/a	13	11	1	9	1
2272239	PROB	n/a	LTP318	ltpFR2	21	n/a	n/a	n/a	13	10	4	1	5
2274923	PROB	n/a	LTP318	ltpFR2	21	n/a	n/a	n/a	13	16	4	8	4
2277126	PROB	n/a	LTP318	ltpFR2	21	n/a	n/a	n/a	13	16	7	5	4
2278894	PROB	n/a	LTP318	ltpFR2	21	n/a	n/a	n/a	13	16	9	5	2
2280845	PROB	n/a	LTP318	ltpFR2	21	n/a	n/a	n/a	13	19	6	5	8
2283130	PROB	n/a	LTP318	ltpFR2	21	n/a	n/a	n/a	13	19	7	4	8
2284981	PROB	n/a	LTP318	ltpFR2	21	n/a	n/a	n/a	13	24	7	8	9
2288123	STOP	n/a	LTP318	ltpFR2	21	n/a	n/a	n/a	13	n/a	n/a	n/a	n/a
2290769	REC_START	n/a	LTP318	ltpFR2	21	9	n/a	n/a	n/a	n/a	0	0	0
2293493	REC_WORD	wordpools/wasnorm_wordpool_576.txt	LTP318	ltpFR2	21	9	ICING	732	n/a	n/a	0	0	0
2294277	REC_WORD	wordpools/wasnorm_wordpool_576.txt	LTP318	ltpFR2	21	9	ZIPPER	1636	n/a	n/a	0	0	0
2295368	REC_WORD	wordpools/wasnorm_wordpool_576.txt	LTP318	ltpFR2	21	9	ROBOT	1200	n/a	n/a	0	0	0
2296107	REC_WORD	wordpools/wasnorm_wordpool_576.txt	LTP318	ltpFR2	21	9	FOREST	593	n/a	n/a	0	0	0
2297107	REC_WORD_VV	wordpools/wasnorm_wordpool_576.txt	LTP318	ltpFR2	21	9	<>	-1	n/a	n/a	0	0	0
2303963	REC_WORD	wordpools/wasnorm_wordpool_576.txt	LTP318	ltpFR2	21	9	JUNGLE	764	n/a	n/a	0	0	0
2304652	REC_WORD	wordpools/wasnorm_wordpool_576.txt	LTP318	ltpFR2	21	9	RAFT	1159	n/a	n/a	0	0	0
2305287	REC_WORD	wordpools/wasnorm_wordpool_576.txt	LTP318	ltpFR2	21	9	SALT	1229	n/a	n/a	0	0	0
2305969	REC_WORD	wordpools/wasnorm_wordpool_576.txt	LTP318	ltpFR2	21	9	PEPPER	1047	n/a	n/a	0	0	0
2317616	REC_WORD	wordpools/wasnorm_wordpool_576.txt	LTP318	ltpFR2	21	9	CRATER	400	n/a	n/a	0	0	0
2318243	REC_WORD	wordpools/wasnorm_wordpool_576.txt	LTP318	ltpFR2	21	9	STUDENT	1395	n/a	n/a	0	0	0
2321648	REC_WORD	wordpools/wasnorm_wordpool_576.txt	LTP318	ltpFR2	21	9	CASKET	255	n/a	n/a	0	0	0
2324325	REC_WORD	wordpools/wasnorm_wordpool_576.txt	LTP318	ltpFR2	21	9	VIKING	1565	n/a	n/a	0	0	0
2381194	DISTRACTOR	n/a	LTP318	ltpFR2	21	10	n/a	n/a	n/a	n/a	0	0	0
2381194	START	n/a	LTP318	ltpFR2	21	n/a	n/a	n/a	14	n/a	n/a	n/a	n/a
2381209	PROB	n/a	LTP318	ltpFR2	21	n/a	n/a	n/a	14	13	5	5	3
2384028	PROB	n/a	LTP318	ltpFR2	21	n/a	n/a	n/a	14	19	7	9	3
2386029	PROB	n/a	LTP318	ltpFR2	21	n/a	n/a	n/a	14	14	7	1	6
2388080	PROB	n/a	LTP318	ltpFR2	21	n/a	n/a	n/a	14	18	4	6	8
2389582	PROB	n/a	LTP318	ltpFR2	21	n/a	n/a	n/a	14	11	4	1	6
2390982	PROB	n/a	LTP318	ltpFR2	21	n/a	n/a	n/a	14	17	7	2	8
2393519	PROB	n/a	LTP318	ltpFR2	21	n/a	n/a	n/a	14	16	8	1	7
2395153	PROB	n/a	LTP318	ltpFR2	21	n/a	n/a	n/a	14	22	8	6	8
2397788	PROB	n/a	LTP318	ltpFR2	21	n/a	n/a	n/a	14	19	5	6	8
2400125	PROB	n/a	LTP318	ltpFR2	21	n/a	n/a	n/a	14	15	2	9	4
2401625	PROB	n/a	LTP318	ltpFR2	21	n/a	n/a	n/a	14	8	1	5	2
2403143	PROB	n/a	LTP318	ltpFR2	21	n/a	n/a	n/a	14	16	2	8	6
2405023	STOP	n/a	LTP318	ltpFR2	21	n/a	n/a	n/a	14	n/a	n/a	n/a	n/a
2406265	WORD	wordpools/wasnorm_wordpool_576.txt	LTP318	ltpFR2	21	10	COFFEE	341	n/a	n/a	0	0	0
2408758	WORD	wordpools/wasnorm_wordpool_576.txt	LTP318	ltpFR2	21	10	JUGGLER	763	n/a	n/a	0	0	0
2411418	WORD	wordpools/wasnorm_wordpool_576.txt	LTP318	ltpFR2	21	10	BRICK	172	n/a	n/a	0	0	0
2414213	WORD	wordpools/wasnorm_wordpool_576.txt	LTP318	ltpFR2	21	10	WAGON	1578	n/a	n/a	0	0	0
2416731	WORD	wordpools/wasnorm_wordpool_576.txt	LTP318	ltpFR2	21	10	FOX	598	n/a	n/a	0	0	0
2419508	WORD	wordpools/wasnorm_wordpool_576.txt	LTP318	ltpFR2	21	10	CRICKET	408	n/a	n/a	0	0	0
2422019	WORD	wordpools/wasnorm_wordpool_576.txt	LTP318	ltpFR2	21	10	BUG	187	n/a	n/a	0	0	0
2424455	WORD	wordpools/wasnorm_wordpool_576.txt	LTP318	ltpFR2	21	10	COD	340	n/a	n/a	0	0	0
2427174	WORD	wordpools/wasnorm_wordpool_576.txt	LTP318	ltpFR2	21	10	BEAVER	109	n/a	n/a	0	0	0
2429642	WORD	wordpools/wasnorm_wordpool_576.txt	LTP318	ltpFR2	21	10	CREATURE	403	n/a	n/a	0	0	0
2432162	WORD	wordpools/wasnorm_wordpool_576.txt	LTP318	ltpFR2	21	10	GIRL	637	n/a	n/a	0	0	0
2434736	WORD	wordpools/wasnorm_wordpool_576.txt	LTP318	ltpFR2	21	10	MILDEW	893	n/a	n/a	0	0	0
2437250	WORD	wordpools/wasnorm_wordpool_576.txt	LTP318	ltpFR2	21	10	LAKE	796	n/a	n/a	0	0	0
2439701	WORD	wordpools/wasnorm_wordpool_576.txt	LTP318	ltpFR2	21	10	LADY	794	n/a	n/a	0	0	0
2442454	WORD	wordpools/wasnorm_wordpool_576.txt	LTP318	ltpFR2	21	10	COIN	343	n/a	n/a	0	0	0
2445173	WORD	wordpools/wasnorm_wordpool_576.txt	LTP318	ltpFR2	21	10	ONION	977	n/a	n/a	0	0	0
2447857	WORD	wordpools/wasnorm_wordpool_576.txt	LTP318	ltpFR2	21	10	MUSTARD	935	n/a	n/a	0	0	0
2450661	WORD	wordpools/wasnorm_wordpool_576.txt	LTP318	ltpFR2	21	10	SALAD	1224	n/a	n/a	0	0	0
2453080	WORD	wordpools/wasnorm_wordpool_576.txt	LTP318	ltpFR2	21	10	PARENT	1013	n/a	n/a	0	0	0
2455698	WORD	wordpools/wasnorm_wordpool_576.txt	LTP318	ltpFR2	21	10	SHRUB	1299	n/a	n/a	0	0	0
2458369	WORD	wordpools/wasnorm_wordpool_576.txt	LTP318	ltpFR2	21	10	LUMBER	848	n/a	n/a	0	0	0
2461120	WORD	wordpools/wasnorm_wordpool_576.txt	LTP318	ltpFR2	21	10	ICEBERG	731	n/a	n/a	0	0	0
2463856	WORD	wordpools/wasnorm_wordpool_576.txt	LTP318	ltpFR2	21	10	SEAFOOD	1260	n/a	n/a	0	0	0
2466641	WORD	wordpools/wasnorm_wordpool_576.txt	LTP318	ltpFR2	21	10	GARDEN	623	n/a	n/a	0	0	0
2468248	START	n/a	LTP318	ltpFR2	21	n/a	n/a	n/a	15	n/a	n/a	n/a	n/a
2469173	DISTRACTOR	n/a	LTP318	ltpFR2	21	10	n/a	n/a	n/a	n/a	0	0	0
2469177	PROB	n/a	LTP318	ltpFR2	21	n/a	n/a	n/a	15	10	2	6	2
2471695	PROB	n/a	LTP318	ltpFR2	21	n/a	n/a	n/a	15	18	1	9	8
2472945	PROB	n/a	LTP318	ltpFR2	21	n/a	n/a	n/a	15	20	7	5	8
2474564	PROB	n/a	LTP318	ltpFR2	21	n/a	n/a	n/a	15	20	7	7	6
2476366	PROB	n/a	LTP318	ltpFR2	21	n/a	n/a	n/a	15	12	4	2	6
2477883	PROB	n/a	LTP318	ltpFR2	21	n/a	n/a	n/a	15	11	9	1	1
2479103	PROB	n/a	LTP318	ltpFR2	21	n/a	n/a	n/a	15	20	3	9	8
2481704	PROB	n/a	LTP318	ltpFR2	21	n/a	n/a	n/a	15	17	6	3	8
2483222	PROB	n/a	LTP318	ltpFR2	21	n/a	n/a	n/a	15	15	7	5	3
2485040	PROB	n/a	LTP318	ltpFR2	21	n/a	n/a	n/a	15	14	3	5	6
2487194	PROB	n/a	LTP318	ltpFR2	21	n/a	n/a	n/a	15	17	6	4	7
2488944	PROB	n/a	LTP318	ltpFR2	21	n/a	n/a	n/a	15	17	2	8	7
2490213	PROB	n/a	LTP318	ltpFR2	21	n/a	n/a	n/a	15	10	5	1	4
2492171	STOP	n/a	LTP318	ltpFR2	21	n/a	n/a	n/a	15	n/a	n/a	n/a	n/a
2494151	REC_START	n/a	LTP318	ltpFR2	21	10	n/a	n/a	n/a	n/a	0	0	0
2496221	REC_WORD	wordpools/wasnorm_wordpool_576.txt	LTP318	ltpFR2	21	10	SHRUB	1299	n/a	n/a	0	0	0
2497108	REC_WORD	wordpools/wasnorm_wordpool_576.txt	LTP318	ltpFR2	21	10	LUMBER	848	n/a	n/a	0	0	0
2498049	REC_WORD	wordpools/wasnorm_wordpool_576.txt	LTP318	ltpFR2	21	10	ICEBERG	731	n/a	n/a	0	0	0
2499049	REC_WORD_VV	wordpools/wasnorm_wordpool_576.txt	LTP318	ltpFR2	21	10	<>	-1	n/a	n/a	0	0	0
2504165	REC_WORD	wordpools/wasnorm_wordpool_576.txt	LTP318	ltpFR2	21	10	GARDEN	623	n/a	n/a	0	0	0
2506732	REC_WORD	wordpools/wasnorm_wordpool_576.txt	LTP318	ltpFR2	21	10	JUGGLER	763	n/a	n/a	0	0	0
2507455	REC_WORD	wordpools/wasnorm_wordpool_576.txt	LTP318	ltpFR2	21	10	COFFEE	341	n/a	n/a	0	0	0
2508629	REC_WORD	wordpools/wasnorm_wordpool_576.txt	LTP318	ltpFR2	21	10	BRICK	172	n/a	n/a	0	0	0
2512758	REC_WORD	wordpools/wasnorm_wordpool_576.txt	LTP318	ltpFR2	21	10	SHRUB	1299	n/a	n/a	0	0	0
2518440	REC_WORD	wordpools/wasnorm_wordpool_576.txt	LTP318	ltpFR2	21	10	WAGON	1578	n/a	n/a	0	0	0
2519440	REC_WORD_VV	wordpools/wasnorm_wordpool_576.txt	LTP318	ltpFR2	21	10	<>	-1	n/a	n/a	0	0	0
2520510	REC_WORD	wordpools/wasnorm_wordpool_576.txt	LTP318	ltpFR2	21	10	COD	340	n/a	n/a	0	0	0
2521322	REC_WORD	wordpools/wasnorm_wordpool_576.txt	LTP318	ltpFR2	21	10	BUG	187	n/a	n/a	0	0	0
2522513	REC_WORD	wordpools/wasnorm_wordpool_576.txt	LTP318	ltpFR2	21	10	BEAVER	109	n/a	n/a	0	0	0
2525764	REC_WORD	wordpools/wasnorm_wordpool_576.txt	LTP318	ltpFR2	21	10	FOX	598	n/a	n/a	0	0	0
2557691	REC_WORD	wordpools/wasnorm_wordpool_576.txt	LTP318	ltpFR2	21	10	MUSTARD	935	n/a	n/a	0	0	0
2558691	REC_WORD_VV	wordpools/wasnorm_wordpool_576.txt	LTP318	ltpFR2	21	10	<>	-1	n/a	n/a	0	0	0
2558995	REC_WORD	wordpools/wasnorm_wordpool_576.txt	LTP318	ltpFR2	21	10	ONION	977	n/a	n/a	0	0	0
2584605	WORD	wordpools/wasnorm_wordpool_576.txt	LTP318	ltpFR2	21	11	COUNTRY	388	n/a	n/a	0	0	0
2587197	WORD	wordpools/wasnorm_wordpool_576.txt	LTP318	ltpFR2	21	11	COUNTY	389	n/a	n/a	0	0	0
2589977	WORD	wordpools/wasnorm_wordpool_576.txt	LTP318	ltpFR2	21	11	PICTURE	1061	n/a	n/a	0	0	0
2592779	WORD	wordpools/wasnorm_wordpool_576.txt	LTP318	ltpFR2	21	11	WIDOW	1608	n/a	n/a	0	0	0
2595472	WORD	wordpools/wasnorm_wordpool_576.txt	LTP318	ltpFR2	21	11	RECORD	1176	n/a	n/a	0	0	0
2598218	WORD	wordpools/wasnorm_wordpool_576.txt	LTP318	ltpFR2	21	11	DIVER	476	n/a	n/a	0	0	0
2601002	WORD	wordpools/wasnorm_wordpool_576.txt	LTP318	ltpFR2	21	11	TWISTER	1530	n/a	n/a	0	0	0
2603805	WORD	wordpools/wasnorm_wordpool_576.txt	LTP318	ltpFR2	21	11	PIANO	1057	n/a	n/a	0	0	0
2606374	WORD	wordpools/wasnorm_wordpool_576.txt	LTP318	ltpFR2	21	11	STAKE	1368	n/a	n/a	0	0	0
2609065	WORD	wordpools/wasnorm_wordpool_576.txt	LTP318	ltpFR2	21	11	WORKER	1621	n/a	n/a	0	0	0
2611628	WORD	wordpools/wasnorm_wordpool_576.txt	LTP318	ltpFR2	21	11	SHIRT	1287	n/a	n/a	0	0	0
2614137	WORD	wordpools/wasnorm_wordpool_576.txt	LTP318	ltpFR2	21	11	FRANCE	601	n/a	n/a	0	0	0
2616638	WORD	wordpools/wasnorm_wordpool_576.txt	LTP318	ltpFR2	21	11	APPLE	33	n/a	n/a	0	0	0
2619235	WORD	wordpools/wasnorm_wordpool_576.txt	LTP318	ltpFR2	21	11	FRUIT	610	n/a	n/a	0	0	0
2621976	WORD	wordpools/wasnorm_wordpool_576.txt	LTP318	ltpFR2	21	11	FRAME	600	n/a	n/a	0	0	0
2624512	WORD	wordpools/wasnorm_wordpool_576.txt	LTP318	ltpFR2	21	11	BLOUSE	139	n/a	n/a	0	0	0
2627166	WORD	wordpools/wasnorm_wordpool_576.txt	LTP318	ltpFR2	21	11	ULCER	1533	n/a	n/a	0	0	0
2629817	WORD	wordpools/wasnorm_wordpool_576.txt	LTP318	ltpFR2	21	11	STONE	1385	n/a	n/a	0	0	0
2632253	WORD	wordpools/wasnorm_wordpool_576.txt	LTP318	ltpFR2	21	11	CREVICE	405	n/a	n/a	0	0	0
2634812	WORD	wordpools/wasnorm_wordpool_576.txt	LTP318	ltpFR2	21	11	ORANGE	980	n/a	n/a	0	0	0
2637341	WORD	wordpools/wasnorm_wordpool_576.txt	LTP318	ltpFR2	21	11	VENUS	1557	n/a	n/a	0	0	0
2639908	WORD	wordpools/wasnorm_wordpool_576.txt	LTP318	ltpFR2	21	11	ISLAND	745	n/a	n/a	0	0	0
2642462	WORD	wordpools/wasnorm_wordpool_576.txt	LTP318	ltpFR2	21	11	TRIBE	1505	n/a	n/a	0	0	0
2644897	WORD	wordpools/wasnorm_wordpool_576.txt	LTP318	ltpFR2	21	11	MARSH	874	n/a	n/a	0	0	0
2646507	START	n/a	LTP318	ltpFR2	21	n/a	n/a	n/a	16	n/a	n/a	n/a	n/a
2647485	DISTRACTOR	n/a	LTP318	ltpFR2	21	11	n/a	n/a	n/a	n/a	0	0	0
2647490	PROB	n/a	LTP318	ltpFR2	21	n/a	n/a	n/a	16	14	8	1	5
2649773	PROB	n/a	LTP318	ltpFR2	21	n/a	n/a	n/a	16	18	4	9	5
2651926	PROB	n/a	LTP318	ltpFR2	21	n/a	n/a	n/a	16	24	6	9	9
2653512	PROB	n/a	LTP318	ltpFR2	21	n/a	n/a	n/a	16	11	4	1	6
2655196	PROB	n/a	LTP318	ltpFR2	21	n/a	n/a	n/a	16	10	3	4	3
2656879	PROB	n/a	LTP318	ltpFR2	21	n/a	n/a	n/a	16	8	3	2	3
2658816	PROB	n/a	LTP318	ltpFR2	21	n/a	n/a	n/a	16	11	2	4	5
2660183	PROB	n/a	LTP318	ltpFR2	21	n/a	n/a	n/a	16	21	5	9	7
2662902	PROB	n/a	LTP318	ltpFR2	21	n/a	n/a	n/a	16	17	7	8	2
2664386	PROB	n/a	LTP318	ltpFR2	21	n/a	n/a	n/a	16	15	2	7	6
2666307	PROB	n/a	LTP318	ltpFR2	21	n/a	n/a	n/a	16	11	2	3	6
2667971	PROB	n/a	LTP318	ltpFR2	21	n/a	n/a	n/a	16	13	9	1	3
2669569	STOP	n/a	LTP318	ltpFR2	21	n/a	n/a	n/a	16	n/a	n/a	n/a	n/a
2672378	REC_START	n/a	LTP318	ltpFR2	21	11	n/a	n/a	n/a	n/a	0	0	0
2676578	REC_WORD	wordpools/wasnorm_wordpool_576.txt	LTP318	ltpFR2	21	11	ORANGE	980	n/a	n/a	0	0	0
2677468	REC_WORD	wordpools/wasnorm_wordpool_576.txt	LTP318	ltpFR2	21	11	TRIBE	1505	n/a	n/a	0	0	0
2678192	REC_WORD	wordpools/wasnorm_wordpool_576.txt	LTP318	ltpFR2	21	11	MOUSE	925	n/a	n/a	0	0	0
2679192	REC_WORD_VV	wordpools/wasnorm_wordpool_576.txt	LTP318	ltpFR2	21	11	<>	-1	n/a	n/a	0	0	0
2682306	REC_WORD	wordpools/wasnorm_wordpool_576.txt	LTP318	ltpFR2	21	11	MARSH	874	n/a	n/a	0	0	0
2686582	REC_WORD	wordpools/wasnorm_wordpool_576.txt	LTP318	ltpFR2	21	11	COUNTY	389	n/a	n/a	0	0	0
2687348	REC_WORD	wordpools/wasnorm_wordpool_576.txt	LTP318	ltpFR2	21	11	COUNTRY	388	n/a	n/a	0	0	0
2692163	REC_WORD	wordpools/wasnorm_wordpool_576.txt	LTP318	ltpFR2	21	11	TWISTER	1530	n/a	n/a	0	0	0
2692945	REC_WORD	wordpools/wasnorm_wordpool_576.txt	LTP318	ltpFR2	21	11	PIANO	1057	n/a	n/a	0	0	0
2695398	REC_WORD	wordpools/wasnorm_wordpool_576.txt	LTP318	ltpFR2	21	11	STAKE	1368	n/a	n/a	0	0	0
2699725	REC_WORD	wordpools/wasnorm_wordpool_576.txt	LTP318	ltpFR2	21	11	APPLE	33	n/a	n/a	0	0	0
2700300	REC_WORD	wordpools/wasnorm_wordpool_576.txt	LTP318	ltpFR2	21	11	FRUIT	610	n/a	n/a	0	0	0
2701305	REC_WORD	wordpools/wasnorm_wordpool_576.txt	LTP318	ltpFR2	21	11	FRANCE	601	n/a	n/a	0	0	0
2702624	REC_WORD	wordpools/wasnorm_wordpool_576.txt	LTP318	ltpFR2	21	11	SHIRT	1287	n/a	n/a	0	0	0
2762833	DISTRACTOR	n/a	LTP318	ltpFR2	21	12	n/a	n/a	n/a	n/a	0	0	0
2762833	START	n/a	LTP318	ltpFR2	21	n/a	n/a	n/a	17	n/a	n/a	n/a	n/a
2762848	PROB	n/a	LTP318	ltpFR2	21	n/a	n/a	n/a	17	11	1	8	2
2765017	PROB	n/a	LTP318	ltpFR2	21	n/a	n/a	n/a	17	12	1	9	2
2766635	PROB	n/a	LTP318	ltpFR2	21	n/a	n/a	n/a	17	10	7	1	2
2768353	PROB	n/a	LTP318	ltpFR2	21	n/a	n/a	n/a	17	14	2	9	3
2770090	PROB	n/a	LTP318	ltpFR2	21	n/a	n/a	n/a	17	23	8	8	7
2772389	PROB	n/a	LTP318	ltpFR2	21	n/a	n/a	n/a	17	10	8	1	1
2773674	PROB	n/a	LTP318	ltpFR2	21	n/a	n/a	n/a	17	8	1	6	1
2774975	PROB	n/a	LTP318	ltpFR2	21	n/a	n/a	n/a	17	6	1	1	4
2776327	PROB	n/a	LTP318	ltpFR2	21	n/a	n/a	n/a	17	10	4	4	2
2777810	PROB	n/a	LTP318	ltpFR2	21	n/a	n/a	n/a	17	13	3	8	2
2779546	PROB	n/a	LTP318	ltpFR2	21	n/a	n/a	n/a	17	23	8	7	8
2782165	PROB	n/a	LTP318	ltpFR2	21	n/a	n/a	n/a	17	23	8	7	8
2784233	PROB	n/a	LTP318	ltpFR2	21	n/a	n/a	n/a	17	13	6	5	2
2786598	STOP	n/a	LTP318	ltpFR2	21	n/a	n/a	n/a	17	n/a	n/a	n/a	n/a
2787670	WORD	wordpools/wasnorm_wordpool_576.txt	LTP318	ltpFR2	21	12	SPOUSE	1358	n/a	n/a	0	0	0
2790188	WORD	wordpools/wasnorm_wordpool_576.txt	LTP318	ltpFR2	21	12	HUSBAND	728	n/a	n/a	0	0	0
2792722	WORD	wordpools/wasnorm_wordpool_576.txt	LTP318	ltpFR2	21	12	VALLEY	1545	n/a	n/a	0	0	0
2795309	WORD	wordpools/wasnorm_wordpool_576.txt	LTP318	ltpFR2	21	12	OFFICE	972	n/a	n/a	0	0	0
2798043	WORD	wordpools/wasnorm_wordpool_576.txt	LTP318	ltpFR2	21	12	PUPPY	1144	n/a	n/a	0	0	0
2800497	WORD	wordpools/wasnorm_wordpool_576.txt	LTP318	ltpFR2	21	12	TILE	1468	n/a	n/a	0	0	0
2802917	WORD	wordpools/wasnorm_wordpool_576.txt	LTP318	ltpFR2	21	12	GROUND	666	n/a	n/a	0	0	0
2805518	WORD	wordpools/wasnorm_wordpool_576.txt	LTP318	ltpFR2	21	12	LUGGAGE	847	n/a	n/a	0	0	0
2808220	WORD	wordpools/wasnorm_wordpool_576.txt	LTP318	ltpFR2	21	12	SOFTBALL	1343	n/a	n/a	0	0	0
2810774	WORD	wordpools/wasnorm_wordpool_576.txt	LTP318	ltpFR2	21	12	FLIPPER	580	n/a	n/a	0	0	0
2813457	WORD	wordpools/wasnorm_wordpool_576.txt	LTP318	ltpFR2	21	12	LASER	801	n/a	n/a	0	0	0
2815912	WORD	wordpools/wasnorm_wordpool_576.txt	LTP318	ltpFR2	21	12	PASTA	1021	n/a	n/a	0	0	0
2818478	WORD	wordpools/wasnorm_wordpool_576.txt	LTP318	ltpFR2	21	12	SURVEY	1414	n/a	n/a	0	0	0
2821251	WORD	wordpools/wasnorm_wordpool_576.txt	LTP318	ltpFR2	21	12	CABBAGE	210	n/a	n/a	0	0	0
2823814	WORD	wordpools/wasnorm_wordpool_576.txt	LTP318	ltpFR2	21	12	SAUSAGE	1238	n/a	n/a	0	0	0
2826601	WORD	wordpools/wasnorm_wordpool_576.txt	LTP318	ltpFR2	21	12	BOARD	143	n/a	n/a	0	0	0
2829086	WORD	wordpools/wasnorm_wordpool_576.txt	LTP318	ltpFR2	21	12	DINER	467	n/a	n/a	0	0	0
2831543	WORD	wordpools/wasnorm_wordpool_576.txt	LTP318	ltpFR2	21	12	FUNGUS	614	n/a	n/a	0	0	0
2834324	WORD	wordpools/wasnorm_wordpool_576.txt	LTP318	ltpFR2	21	12	MARKER	870	n/a	n/a	0	0	0
2836825	WORD	wordpools/wasnorm_wordpool_576.txt	LTP318	ltpFR2	21	12	CRAB	397	n/a	n/a	0	0	0
2839450	WORD	wordpools/wasnorm_wordpool_576.txt	LTP318	ltpFR2	21	12	BOUQUET	157	n/a	n/a	0	0	0
2841962	WORD	wordpools/wasnorm_wordpool_576.txt	LTP318	ltpFR2	21	12	BLACKBOARD	133	n/a	n/a	0	0	0
2844548	WORD	wordpools/wasnorm_wordpool_576.txt	LTP318	ltpFR2	21	12	WARDROBE	1587	n/a	n/a	0	0	0
2847307	WORD	wordpools/wasnorm_wordpool_576.txt	LTP318	ltpFR2	21	12	FOREHEAD	592	n/a	n/a	0	0	0
2848919	START	n/a	LTP318	ltpFR2	21	n/a	n/a	n/a	18	n/a	n/a	n/a	n/a
2849823	DISTRACTOR	n/a	LTP318	ltpFR2	21	12	n/a	n/a	n/a	n/a	0	0	0
2849836	PROB	n/a	LTP318	ltpFR2	21	n/a	n/a	n/a	18	14	4	5	5
2852137	PROB	n/a	LTP318	ltpFR2	21	n/a	n/a	n/a	18	18	7	9	2
2853855	PROB	n/a	LTP318	ltpFR2	21	n/a	n/a	n/a	18	13	1	9	3
2856242	PROB	n/a	LTP318	ltpFR2	21	n/a	n/a	n/a	18	21	8	4	9
2859143	PROB	n/a	LTP318	ltpFR2	21	n/a	n/a	n/a	18	10	2	1	7
2860411	PROB	n/a	LTP318	ltpFR2	21	n/a	n/a	n/a	18	13	8	1	4
2862077	PROB	n/a	LTP318	ltpFR2	21	n/a	n/a	n/a	18	25	9	9	7
2863547	PROB	n/a	LTP318	ltpFR2	21	n/a	n/a	n/a	18	16	4	5	7
2866131	PROB	n/a	LTP318	ltpFR2	21	n/a	n/a	n/a	18	12	6	2	4
2868066	PROB	n/a	LTP318	ltpFR2	21	n/a	n/a	n/a	18	13	5	1	7
2870185	PROB	n/a	LTP318	ltpFR2	21	n/a	n/a	n/a	18	12	6	4	2
2871641	STOP	n/a	LTP318	ltpFR2	21	n/a	n/a	n/a	18	n/a	n/a	n/a	n/a
2874772	REC_START	n/a	LTP318	ltpFR2	21	12	n/a	n/a	n/a	n/a	0	0	0
2880271	REC_WORD	wordpools/wasnorm_wordpool_576.txt	LTP318	ltpFR2	21	12	BLACKBOARD	133	n/a	n/a	0	0	0
2881240	REC_WORD	wordpools/wasnorm_wordpool_576.txt	LTP318	ltpFR2	21	12	FOREHEAD	592	n/a	n/a	0	0	0
2882311	REC_WORD	wordpools/wasnorm_wordpool_576.txt	LTP318	ltpFR2	21	12	MARKER	870	n/a	n/a	0	0	0
2883063	REC_WORD	wordpools/wasnorm_wordpool_576.txt	LTP318	ltpFR2	21	12	CRAB	397	n/a	n/a	0	0	0
2884972	REC_WORD	wordpools/wasnorm_wordpool_576.txt	LTP318	ltpFR2	21	12	FUNGUS	614	n/a	n/a	0	0	0
2889042	REC_WORD	wordpools/wasnorm_wordpool_576.txt	LTP318	ltpFR2	21	12	DINER	467	n/a	n/a	0	0	0
2891762	REC_WORD	wordpools/wasnorm_wordpool_576.txt	LTP318	ltpFR2	21	12	VALLEY	1545	n/a	n/a	0	0	0
2892659	REC_WORD	wordpools/wasnorm_wordpool_576.txt	LTP318	ltpFR2	21	12	GROUND	666	n/a	n/a	0	0	0
2893500	REC_WORD_VV	wordpools/wasnorm_wordpool_576.txt	LTP318	ltpFR2	21	12	<>	-1	n/a	n/a	0	0	0
2897351	REC_WORD	wordpools/wasnorm_wordpool_576.txt	LTP318	ltpFR2	21	12	TILE	1468	n/a	n/a	0	0	0
2965210	DISTRACTOR	n/a	LTP318	ltpFR2	21	13	n/a	n/a	n/a	n/a	0	0	0
2965210	START	n/a	LTP318	ltpFR2	21	n/a	n/a	n/a	19	n/a	n/a	n/a	n/a
2965225	PROB	n/a	LTP318	ltpFR2	21	n/a	n/a	n/a	19	12	6	5	1
2968447	PROB	n/a	LTP318	ltpFR2	21	n/a	n/a	n/a	19	14	1	8	5
2970531	PROB	n/a	LTP318	ltpFR2	21	n/a	n/a	n/a	19	16	8	6	2
2972298	PROB	n/a	LTP318	ltpFR2	21	n/a	n/a	n/a	19	19	4	8	7
2974016	PROB	n/a	LTP318	ltpFR2	21	n/a	n/a	n/a	19	16	3	9	4
2975987	PROB	n/a	LTP318	ltpFR2	21	n/a	n/a	n/a	19	18	8	4	6
2977987	PROB	n/a	LTP318	ltpFR2	21	n/a	n/a	n/a	19	19	8	3	8
2980173	PROB	n/a	LTP318	ltpFR2	21	n/a	n/a	n/a	19	10	5	4	1
2981575	PROB	n/a	LTP318	ltpFR2	21	n/a	n/a	n/a	19	17	1	7	9
2983092	PROB	n/a	LTP318	ltpFR2	21	n/a	n/a	n/a	19	15	9	4	2
2984776	PROB	n/a	LTP318	ltpFR2	21	n/a	n/a	n/a	19	16	6	4	6
2986146	PROB	n/a	LTP318	ltpFR2	21	n/a	n/a	n/a	19	11	5	1	5
2989210	STOP	n/a	LTP318	ltpFR2	21	n/a	n/a	n/a	19	n/a	n/a	n/a	n/a
2990248	WORD	wordpools/wasnorm_wordpool_576.txt	LTP318	ltpFR2	21	13	STAR	1373	n/a	n/a	0	0	0
2992949	WORD	wordpools/wasnorm_wordpool_576.txt	LTP318	ltpFR2	21	13	DUST	508	n/a	n/a	0	0	0
2995402	WORD	wordpools/wasnorm_wordpool_576.txt	LTP318	ltpFR2	21	13	BLENDER	136	n/a	n/a	0	0	0
2998121	WORD	wordpools/wasnorm_wordpool_576.txt	LTP318	ltpFR2	21	13	FOOTBALL	591	n/a	n/a	0	0	0
3000857	WORD	wordpools/wasnorm_wordpool_576.txt	LTP318	ltpFR2	21	13	SNAIL	1332	n/a	n/a	0	0	0
3003309	WORD	wordpools/wasnorm_wordpool_576.txt	LTP318	ltpFR2	21	13	DUSTPAN	509	n/a	n/a	0	0	0
3005810	WORD	wordpools/wasnorm_wordpool_576.txt	LTP318	ltpFR2	21	13	LODGE	839	n/a	n/a	0	0	0
3008397	WORD	wordpools/wasnorm_wordpool_576.txt	LTP318	ltpFR2	21	13	DRESS	495	n/a	n/a	0	0	0
3010881	WORD	wordpools/wasnorm_wordpool_576.txt	LTP318	ltpFR2	21	13	MISSILE	900	n/a	n/a	0	0	0
3013650	WORD	wordpools/wasnorm_wordpool_576.txt	LTP318	ltpFR2	21	13	SCULPTURE	1258	n/a	n/a	0	0	0
3016321	WORD	wordpools/wasnorm_wordpool_576.txt	LTP318	ltpFR2	21	13	RUST	1219	n/a	n/a	0	0	0
3019021	WORD	wordpools/wasnorm_wordpool_576.txt	LTP318	ltpFR2	21	13	PERCH	1048	n/a	n/a	0	0	0
3021723	WORD	wordpools/wasnorm_wordpool_576.txt	LTP318	ltpFR2	21	13	SALMON	1227	n/a	n/a	0	0	0
3024460	WORD	wordpools/wasnorm_wordpool_576.txt	LTP318	ltpFR2	21	13	DANDRUFF	439	n/a	n/a	0	0	0
3027060	WORD	wordpools/wasnorm_wordpool_576.txt	LTP318	ltpFR2	21	13	SCALLOP	1242	n/a	n/a	0	0	0
3029697	WORD	wordpools/wasnorm_wordpool_576.txt	LTP318	ltpFR2	21	13	CLAM	315	n/a	n/a	0	0	0
3032517	WORD	wordpools/wasnorm_wordpool_576.txt	LTP318	ltpFR2	21	13	HOSTESS	723	n/a	n/a	0	0	0
3035151	WORD	wordpools/wasnorm_wordpool_576.txt	LTP318	ltpFR2	21	13	COSTUME	383	n/a	n/a	0	0	0
3037870	WORD	wordpools/wasnorm_wordpool_576.txt	LTP318	ltpFR2	21	13	CANYON	235	n/a	n/a	0	0	0
3040323	WORD	wordpools/wasnorm_wordpool_576.txt	LTP318	ltpFR2	21	13	BROOK	177	n/a	n/a	0	0	0
3043142	WORD	wordpools/wasnorm_wordpool_576.txt	LTP318	ltpFR2	21	13	PRIMATE	1123	n/a	n/a	0	0	0
3045759	WORD	wordpools/wasnorm_wordpool_576.txt	LTP318	ltpFR2	21	13	LADDER	793	n/a	n/a	0	0	0
3048248	WORD	wordpools/wasnorm_wordpool_576.txt	LTP318	ltpFR2	21	13	COOK	372	n/a	n/a	0	0	0
3050763	WORD	wordpools/wasnorm_wordpool_576.txt	LTP318	ltpFR2	21	13	ROBIN	1199	n/a	n/a	0	0	0
3052370	START	n/a	LTP318	ltpFR2	21	n/a	n/a	n/a	20	n/a	n/a	n/a	n/a
3053419	DISTRACTOR	n/a	LTP318	ltpFR2	21	13	n/a	n/a	n/a	n/a	0	0	0
3053433	PROB	n/a	LTP318	ltpFR2	21	n/a	n/a	n/a	20	19	9	8	2
3055600	PROB	n/a	LTP318	ltpFR2	21	n/a	n/a	n/a	20	19	7	8	4
3057551	PROB	n/a	LTP318	ltpFR2	21	n/a	n/a	n/a	20	17	8	3	6
3060037	PROB	n/a	LTP318	ltpFR2	21	n/a	n/a	n/a	20	13	2	2	9
3061921	PROB	n/a	LTP318	ltpFR2	21	n/a	n/a	n/a	20	14	4	9	1
3063540	PROB	n/a	LTP318	ltpFR2	21	n/a	n/a	n/a	20	8	3	2	3
3065509	PROB	n/a	LTP318	ltpFR2	21	n/a	n/a	n/a	20	16	5	4	7
3067361	PROB	n/a	LTP318	ltpFR2	21	n/a	n/a	n/a	20	19	6	8	5
3069245	PROB	n/a	LTP318	ltpFR2	21	n/a	n/a	n/a	20	19	6	7	6
3070796	PROB	n/a	LTP318	ltpFR2	21	n/a	n/a	n/a	20	20	6	6	8
3072549	PROB	n/a	LTP318	ltpFR2	21	n/a	n/a	n/a	20	20	7	7	6
3074232	PROB	n/a	LTP318	ltpFR2	21	n/a	n/a	n/a	20	23	8	8	7
3075817	STOP	n/a	LTP318	ltpFR2	21	n/a	n/a	n/a	20	n/a	n/a	n/a	n/a
3078120	REC_START	n/a	LTP318	ltpFR2	21	13	n/a	n/a	n/a	n/a	0	0	0
3084051	REC_WORD	wordpools/wasnorm_wordpool_576.txt	LTP318	ltpFR2	21	13	ROBIN	1199	n/a	n/a	0	0	0
3089286	REC_WORD	wordpools/wasnorm_wordpool_576.txt	LTP318	ltpFR2	21	13	COOK	372	n/a	n/a	0	0	0
3089889	REC_WORD	wordpools/wasnorm_wordpool_576.txt	LTP318	ltpFR2	21	13	HOSTESS	723	n/a	n/a	0	0	0
3092595	REC_WORD	wordpools/wasnorm_wordpool_576.txt	LTP318	ltpFR2	21	13	LADDER	793	n/a	n/a	0	0	0
3093291	REC_WORD	wordpools/wasnorm_wordpool_576.txt	LTP318	ltpFR2	21	13	BROOK	177	n/a	n/a	0	0	0
3093877	REC_WORD	wordpools/wasnorm_wordpool_576.txt	LTP318	ltpFR2	21	13	CANYON	235	n/a	n/a	0	0	0
3101817	REC_WORD	wordpools/wasnorm_wordpool_576.txt	LTP318	ltpFR2	21	13	FOOTBALL	591	n/a	n/a	0	0	0
3106873	REC_WORD	wordpools/wasnorm_wordpool_576.txt	LTP318	ltpFR2	21	13	BLENDER	136	n/a	n/a	0	0	0
3107549	REC_WORD	wordpools/wasnorm_wordpool_576.txt	LTP318	ltpFR2	21	13	STAR	1373	n/a	n/a	0	0	0
3108271	REC_WORD	wordpools/wasnorm_wordpool_576.txt	LTP318	ltpFR2	21	13	DUST	508	n/a	n/a	0	0	0
3121600	REC_WORD	wordpools/wasnorm_wordpool_576.txt	LTP318	ltpFR2	21	13	SCULPTURE	1258	n/a	n/a	0	0	0
3124640	REC_WORD	wordpools/wasnorm_wordpool_576.txt	LTP318	ltpFR2	21	13	PRIMATE	1123	n/a	n/a	0	0	0
3168552	WORD	wordpools/wasnorm_wordpool_576.txt	LTP318	ltpFR2	21	14	BUREAU	199	n/a	n/a	0	0	0
3171189	WORD	wordpools/wasnorm_wordpool_576.txt	LTP318	ltpFR2	21	14	LEADER	807	n/a	n/a	0	0	0
3173723	WORD	wordpools/wasnorm_wordpool_576.txt	LTP318	ltpFR2	21	14	BREAST	171	n/a	n/a	0	0	0
3176394	WORD	wordpools/wasnorm_wordpool_576.txt	LTP318	ltpFR2	21	14	POSTAGE	1113	n/a	n/a	0	0	0
3178879	WORD	wordpools/wasnorm_wordpool_576.txt	LTP318	ltpFR2	21	14	LAGOON	795	n/a	n/a	0	0	0
3181449	WORD	wordpools/wasnorm_wordpool_576.txt	LTP318	ltpFR2	21	14	PAIL	1002	n/a	n/a	0	0	0
3184053	WORD	wordpools/wasnorm_wordpool_576.txt	LTP318	ltpFR2	21	14	COTTAGE	384	n/a	n/a	0	0	0
3186553	WORD	wordpools/wasnorm_wordpool_576.txt	LTP318	ltpFR2	21	14	DRINK	498	n/a	n/a	0	0	0
3189020	WORD	wordpools/wasnorm_wordpool_576.txt	LTP318	ltpFR2	21	14	GUITAR	670	n/a	n/a	0	0	0
3191573	WORD	wordpools/wasnorm_wordpool_576.txt	LTP318	ltpFR2	21	14	COOKBOOK	373	n/a	n/a	0	0	0
3194075	WORD	wordpools/wasnorm_wordpool_576.txt	LTP318	ltpFR2	21	14	SERVER	1272	n/a	n/a	0	0	0
3196547	WORD	wordpools/wasnorm_wordpool_576.txt	LTP318	ltpFR2	21	14	LEOPARD	812	n/a	n/a	0	0	0
3199316	WORD	wordpools/wasnorm_wordpool_576.txt	LTP318	ltpFR2	21	14	WRENCH	1625	n/a	n/a	0	0	0
3202032	WORD	wordpools/wasnorm_wordpool_576.txt	LTP318	ltpFR2	21	14	WASHER	1592	n/a	n/a	0	0	0
3204518	WORD	wordpools/wasnorm_wordpool_576.txt	LTP318	ltpFR2	21	14	TUNNEL	1519	n/a	n/a	0	0	0
3207071	WORD	wordpools/wasnorm_wordpool_576.txt	LTP318	ltpFR2	21	14	SHOVEL	1295	n/a	n/a	0	0	0
3209805	WORD	wordpools/wasnorm_wordpool_576.txt	LTP318	ltpFR2	21	14	ANTLER	29	n/a	n/a	0	0	0
3212391	WORD	wordpools/wasnorm_wordpool_576.txt	LTP318	ltpFR2	21	14	SKIRT	1319	n/a	n/a	0	0	0
3214910	WORD	wordpools/wasnorm_wordpool_576.txt	LTP318	ltpFR2	21	14	CONCERT	360	n/a	n/a	0	0	0
3217447	WORD	wordpools/wasnorm_wordpool_576.txt	LTP318	ltpFR2	21	14	CEILING	265	n/a	n/a	0	0	0
3219947	WORD	wordpools/wasnorm_wordpool_576.txt	LTP318	ltpFR2	21	14	SUBWAY	1400	n/a	n/a	0	0	0
3222367	WORD	wordpools/wasnorm_wordpool_576.txt	LTP318	ltpFR2	21	14	PERFUME	1049	n/a	n/a	0	0	0
3225002	WORD	wordpools/wasnorm_wordpool_576.txt	LTP318	ltpFR2	21	14	MARROW	872	n/a	n/a	0	0	0
3227805	WORD	wordpools/wasnorm_wordpool_576.txt	LTP318	ltpFR2	21	14	MEDAL	885	n/a	n/a	0	0	0
3229424	START	n/a	LTP318	ltpFR2	21	n/a	n/a	n/a	21	n/a	n/a	n/a	n/a
3230569	DISTRACTOR	n/a	LTP318	ltpFR2	21	14	n/a	n/a	n/a	n/a	0	0	0
3230573	PROB	n/a	LTP318	ltpFR2	21	n/a	n/a	n/a	21	8	1	2	5
3232991	PROB	n/a	LTP318	ltpFR2	21	n/a	n/a	n/a	21	14	4	8	2
3235643	PROB	n/a	LTP318	ltpFR2	21	n/a	n/a	n/a	21	20	7	6	7
3237197	PROB	n/a	LTP318	ltpFR2	21	n/a	n/a	n/a	21	13	6	4	3
3239182	PROB	n/a	LTP318	ltpFR2	21	n/a	n/a	n/a	21	22	7	7	8
3240833	PROB	n/a	LTP318	ltpFR2	21	n/a	n/a	n/a	21	12	6	3	3
3242233	PROB	n/a	LTP318	ltpFR2	21	n/a	n/a	n/a	21	11	2	5	4
3243567	PROB	n/a	LTP318	ltpFR2	21	n/a	n/a	n/a	21	17	8	3	6
3244852	PROB	n/a	LTP318	ltpFR2	21	n/a	n/a	n/a	21	6	4	1	1
3245986	PROB	n/a	LTP318	ltpFR2	21	n/a	n/a	n/a	21	3	1	1	1
3247187	PROB	n/a	LTP318	ltpFR2	21	n/a	n/a	n/a	21	9	3	3	3
3253423	STOP	n/a	LTP318	ltpFR2	21	n/a	n/a	n/a	21	n/a	n/a	n/a	n/a
3255211	REC_START	n/a	LTP318	ltpFR2	21	14	n/a	n/a	n/a	n/a	0	0	0
3257068	REC_WORD	wordpools/wasnorm_wordpool_576.txt	LTP318	ltpFR2	21	14	PERFUME	1049	n/a	n/a	0	0	0
3258454	REC_WORD	wordpools/wasnorm_wordpool_576.txt	LTP318	ltpFR2	21	14	MARROW	872	n/a	n/a	0	0	0
3266375	REC_WORD	wordpools/wasnorm_wordpool_576.txt	LTP318	ltpFR2	21	14	PAIL	1002	n/a	n/a	0	0	0
3267818	REC_WORD	wordpools/wasnorm_wordpool_576.txt	LTP318	ltpFR2	21	14	POSTAGE	1113	n/a	n/a	0	0	0
3268818	REC_WORD_VV	wordpools/wasnorm_wordpool_576.txt	LTP318	ltpFR2	21	14	<>	-1	n/a	n/a	0	0	0
3271930	REC_WORD	wordpools/wasnorm_wordpool_576.txt	LTP318	ltpFR2	21	14	COTTAGE	384	n/a	n/a	0	0	0
3289584	REC_WORD	wordpools/wasnorm_wordpool_576.txt	LTP318	ltpFR2	21	14	DRINK	498	n/a	n/a	0	0	0
3317438	REC_WORD	wordpools/wasnorm_wordpool_576.txt	LTP318	ltpFR2	21	14	SERVER	1272	n/a	n/a	0	0	0
3345640	DISTRACTOR	n/a	LTP318	ltpFR2	21	15	n/a	n/a	n/a	n/a	0	0	0
3345640	START	n/a	LTP318	ltpFR2	21	n/a	n/a	n/a	22	n/a	n/a	n/a	n/a
3345658	PROB	n/a	LTP318	ltpFR2	21	n/a	n/a	n/a	22	13	6	6	1
3347700	PROB	n/a	LTP318	ltpFR2	21	n/a	n/a	n/a	22	9	6	2	1
3349453	PROB	n/a	LTP318	ltpFR2	21	n/a	n/a	n/a	22	26	8	9	9
3351019	PROB	n/a	LTP318	ltpFR2	21	n/a	n/a	n/a	22	25	7	9	9
3352672	PROB	n/a	LTP318	ltpFR2	21	n/a	n/a	n/a	22	15	1	6	8
3354089	PROB	n/a	LTP318	ltpFR2	21	n/a	n/a	n/a	22	22	7	8	7
3355775	PROB	n/a	LTP318	ltpFR2	21	n/a	n/a	n/a	22	22	9	6	7
3357193	PROB	n/a	LTP318	ltpFR2	21	n/a	n/a	n/a	22	13	5	2	6
3359179	PROB	n/a	LTP318	ltpFR2	21	n/a	n/a	n/a	22	13	7	2	4
3361045	PROB	n/a	LTP318	ltpFR2	21	n/a	n/a	n/a	22	19	9	3	7
3362731	PROB	n/a	LTP318	ltpFR2	21	n/a	n/a	n/a	22	12	8	1	3
3364631	PROB	n/a	LTP318	ltpFR2	21	n/a	n/a	n/a	22	20	7	4	9
3366565	PROB	n/a	LTP318	ltpFR2	21	n/a	n/a	n/a	22	15	4	2	9
3369639	STOP	n/a	LTP318	ltpFR2	21	n/a	n/a	n/a	22	n/a	n/a	n/a	n/a
3370762	WORD	wordpools/wasnorm_wordpool_576.txt	LTP318	ltpFR2	21	15	SUNRISE	1407	n/a	n/a	0	0	0
3373282	WORD	wordpools/wasnorm_wordpool_576.txt	LTP318	ltpFR2	21	15	CASHIER	254	n/a	n/a	0	0	0
3376050	WORD	wordpools/wasnorm_wordpool_576.txt	LTP318	ltpFR2	21	15	STICKER	1382	n/a	n/a	0	0	0
3378819	WORD	wordpools/wasnorm_wordpool_576.txt	LTP318	ltpFR2	21	15	PLIERS	1089	n/a	n/a	0	0	0
3381295	WORD	wordpools/wasnorm_wordpool_576.txt	LTP318	ltpFR2	21	15	DASHBOARD	441	n/a	n/a	0	0	0
3384074	WORD	wordpools/wasnorm_wordpool_576.txt	LTP318	ltpFR2	21	15	HARP	689	n/a	n/a	0	0	0
3386850	WORD	wordpools/wasnorm_wordpool_576.txt	LTP318	ltpFR2	21	15	INMATE	738	n/a	n/a	0	0	0
3389495	WORD	wordpools/wasnorm_wordpool_576.txt	LTP318	ltpFR2	21	15	FRAGRANCE	599	n/a	n/a	0	0	0
3391937	WORD	wordpools/wasnorm_wordpool_576.txt	LTP318	ltpFR2	21	15	VELVET	1555	n/a	n/a	0	0	0
3394700	WORD	wordpools/wasnorm_wordpool_576.txt	LTP318	ltpFR2	21	15	CLAMP	316	n/a	n/a	0	0	0
3397403	WORD	wordpools/wasnorm_wordpool_576.txt	LTP318	ltpFR2	21	15	CHAUFFEUR	283	n/a	n/a	0	0	0
3399887	WORD	wordpools/wasnorm_wordpool_576.txt	LTP318	ltpFR2	21	15	PADDLE	1000	n/a	n/a	0	0	0
3402457	WORD	wordpools/wasnorm_wordpool_576.txt	LTP318	ltpFR2	21	15	PADDING	999	n/a	n/a	0	0	0
3404925	WORD	wordpools/wasnorm_wordpool_576.txt	LTP318	ltpFR2	21	15	WHISTLE	1606	n/a	n/a	0	0	0
3407695	WORD	wordpools/wasnorm_wordpool_576.txt	LTP318	ltpFR2	21	15	MISTER	901	n/a	n/a	0	0	0
3410436	WORD	wordpools/wasnorm_wordpool_576.txt	LTP318	ltpFR2	21	15	PIZZA	1079	n/a	n/a	0	0	0
3412866	WORD	wordpools/wasnorm_wordpool_576.txt	LTP318	ltpFR2	21	15	ROCKET	1202	n/a	n/a	0	0	0
3415318	WORD	wordpools/wasnorm_wordpool_576.txt	LTP318	ltpFR2	21	15	REPORT	1184	n/a	n/a	0	0	0
3418126	WORD	wordpools/wasnorm_wordpool_576.txt	LTP318	ltpFR2	21	15	PAPER	1011	n/a	n/a	0	0	0
3420789	WORD	wordpools/wasnorm_wordpool_576.txt	LTP318	ltpFR2	21	15	HIKER	708	n/a	n/a	0	0	0
3423292	WORD	wordpools/wasnorm_wordpool_576.txt	LTP318	ltpFR2	21	15	SUMMIT	1405	n/a	n/a	0	0	0
3425760	WORD	wordpools/wasnorm_wordpool_576.txt	LTP318	ltpFR2	21	15	OUTLAW	989	n/a	n/a	0	0	0
3428546	WORD	wordpools/wasnorm_wordpool_576.txt	LTP318	ltpFR2	21	15	ATOM	55	n/a	n/a	0	0	0
3431269	WORD	wordpools/wasnorm_wordpool_576.txt	LTP318	ltpFR2	21	15	THREAD	1460	n/a	n/a	0	0	0
3432883	START	n/a	LTP318	ltpFR2	21	n/a	n/a	n/a	23	n/a	n/a	n/a	n/a
3434056	DISTRACTOR	n/a	LTP318	ltpFR2	21	15	n/a	n/a	n/a	n/a	0	0	0
3434068	PROB	n/a	LTP318	ltpFR2	21	n/a	n/a	n/a	23	18	8	7	3
3437355	PROB	n/a	LTP318	ltpFR2	21	n/a	n/a	n/a	23	16	2	8	6
3438637	PROB	n/a	LTP318	ltpFR2	21	n/a	n/a	n/a	23	6	1	3	2
3440439	PROB	n/a	LTP318	ltpFR2	21	n/a	n/a	n/a	23	11	1	2	8
3441809	PROB	n/a	LTP318	ltpFR2	21	n/a	n/a	n/a	23	14	9	2	3
3443458	PROB	n/a	LTP318	ltpFR2	21	n/a	n/a	n/a	23	16	6	3	7
3445127	PROB	n/a	LTP318	ltpFR2	21	n/a	n/a	n/a	23	18	1	8	9
3446446	PROB	n/a	LTP318	ltpFR2	21	n/a	n/a	n/a	23	17	1	7	9
3449163	PROB	n/a	LTP318	ltpFR2	21	n/a	n/a	n/a	23	21	7	6	8
3453032	PROB	n/a	LTP318	ltpFR2	21	n/a	n/a	n/a	23	19	7	6	6
3454570	PROB	n/a	LTP318	ltpFR2	21	n/a	n/a	n/a	23	17	6	3	8
3456225	STOP	n/a	LTP318	ltpFR2	21	n/a	n/a	n/a	23	n/a	n/a	n/a	n/a
3458707	REC_START	n/a	LTP318	ltpFR2	21	15	n/a	n/a	n/a	n/a	0	0	0
3461051	REC_WORD	wordpools/wasnorm_wordpool_576.txt	LTP318	ltpFR2	21	15	OUTLAW	989	n/a	n/a	0	0	0
3462278	REC_WORD	wordpools/wasnorm_wordpool_576.txt	LTP318	ltpFR2	21	15	ATOM	55	n/a	n/a	0	0	0
3463802	REC_WORD	wordpools/wasnorm_wordpool_576.txt	LTP318	ltpFR2	21	15	THREAD	1460	n/a	n/a	0	0	0
3468273	REC_WORD	wordpools/wasnorm_wordpool_576.txt	LTP318	ltpFR2	21	15	SUNRISE	1407	n/a	n/a	0	0	0
3469074	REC_WORD	wordpools/wasnorm_wordpool_576.txt	LTP318	ltpFR2	21	15	CASHIER	254	n/a	n/a	0	0	0
3469763	REC_WORD	wordpools/wasnorm_wordpool_576.txt	LTP318	ltpFR2	21	15	STICKER	1382	n/a	n/a	0	0	0
3472051	REC_WORD	wordpools/wasnorm_wordpool_576.txt	LTP318	ltpFR2	21	15	PLIERS	1089	n/a	n/a	0	0	0
3472922	REC_WORD	wordpools/wasnorm_wordpool_576.txt	LTP318	ltpFR2	21	15	HARP	689	n/a	n/a	0	0	0
3549163	WORD	wordpools/wasnorm_wordpool_576.txt	LTP318	ltpFR2	21	16	BLADE	134	n/a	n/a	0	0	0
3551665	WORD	wordpools/wasnorm_wordpool_576.txt	LTP318	ltpFR2	21	16	FILM	565	n/a	n/a	0	0	0
3554168	WORD	wordpools/wasnorm_wordpool_576.txt	LTP318	ltpFR2	21	16	BUBBLE	183	n/a	n/a	0	0	0
3556741	WORD	wordpools/wasnorm_wordpool_576.txt	LTP318	ltpFR2	21	16	TURNIP	1521	n/a	n/a	0	0	0
3559388	WORD	wordpools/wasnorm_wordpool_576.txt	LTP318	ltpFR2	21	16	MEAT	883	n/a	n/a	0	0	0
3562175	WORD	wordpools/wasnorm_wordpool_576.txt	LTP318	ltpFR2	21	16	PORTRAIT	1111	n/a	n/a	0	0	0
3564675	WORD	wordpools/wasnorm_wordpool_576.txt	LTP318	ltpFR2	21	16	FLOWER	584	n/a	n/a	0	0	0
3567379	WORD	wordpools/wasnorm_wordpool_576.txt	LTP318	ltpFR2	21	16	NIGHTGOWN	953	n/a	n/a	0	0	0
3570136	WORD	wordpools/wasnorm_wordpool_576.txt	LTP318	ltpFR2	21	16	GRAVE	658	n/a	n/a	0	0	0
3572765	WORD	wordpools/wasnorm_wordpool_576.txt	LTP318	ltpFR2	21	16	ASIA	46	n/a	n/a	0	0	0
3575218	WORD	wordpools/wasnorm_wordpool_576.txt	LTP318	ltpFR2	21	16	PLATE	1086	n/a	n/a	0	0	0
3577992	WORD	wordpools/wasnorm_wordpool_576.txt	LTP318	ltpFR2	21	16	FOOT	590	n/a	n/a	0	0	0
3580588	WORD	wordpools/wasnorm_wordpool_576.txt	LTP318	ltpFR2	21	16	SMOG	1330	n/a	n/a	0	0	0
3583375	WORD	wordpools/wasnorm_wordpool_576.txt	LTP318	ltpFR2	21	16	WHISKERS	1605	n/a	n/a	0	0	0
3585925	WORD	wordpools/wasnorm_wordpool_576.txt	LTP318	ltpFR2	21	16	PECAN	1036	n/a	n/a	0	0	0
3588479	WORD	wordpools/wasnorm_wordpool_576.txt	LTP318	ltpFR2	21	16	CASHEW	253	n/a	n/a	0	0	0
3591164	WORD	wordpools/wasnorm_wordpool_576.txt	LTP318	ltpFR2	21	16	BUTCHER	203	n/a	n/a	0	0	0
3593790	WORD	wordpools/wasnorm_wordpool_576.txt	LTP318	ltpFR2	21	16	SEAL	1262	n/a	n/a	0	0	0
3596352	WORD	wordpools/wasnorm_wordpool_576.txt	LTP318	ltpFR2	21	16	ZEBRA	1635	n/a	n/a	0	0	0
3598870	WORD	wordpools/wasnorm_wordpool_576.txt	LTP318	ltpFR2	21	16	NOMAD	955	n/a	n/a	0	0	0
3601364	WORD	wordpools/wasnorm_wordpool_576.txt	LTP318	ltpFR2	21	16	KIDNEY	776	n/a	n/a	0	0	0
3603823	WORD	wordpools/wasnorm_wordpool_576.txt	LTP318	ltpFR2	21	16	BODY	145	n/a	n/a	0	0	0
3606558	WORD	wordpools/wasnorm_wordpool_576.txt	LTP318	ltpFR2	21	16	THIEF	1456	n/a	n/a	0	0	0
3609060	WORD	wordpools/wasnorm_wordpool_576.txt	LTP318	ltpFR2	21	16	OZONE	996	n/a	n/a	0	0	0
3610672	START	n/a	LTP318	ltpFR2	21	n/a	n/a	n/a	24	n/a	n/a	n/a	n/a
3611761	DISTRACTOR	n/a	LTP318	ltpFR2	21	16	n/a	n/a	n/a	n/a	0	0	0
3611772	PROB	n/a	LTP318	ltpFR2	21	n/a	n/a	n/a	24	12	2	7	3
3614116	PROB	n/a	LTP318	ltpFR2	21	n/a	n/a	n/a	24	14	2	3	9
3615632	PROB	n/a	LTP318	ltpFR2	21	n/a	n/a	n/a	24	18	9	8	1
3617700	PROB	n/a	LTP318	ltpFR2	21	n/a	n/a	n/a	24	9	6	2	1
3618919	PROB	n/a	LTP318	ltpFR2	21	n/a	n/a	n/a	24	23	9	5	9
3620471	PROB	n/a	LTP318	ltpFR2	21	n/a	n/a	n/a	24	12	1	4	7
3621869	PROB	n/a	LTP318	ltpFR2	21	n/a	n/a	n/a	24	174	2	5	7
3624556	PROB	n/a	LTP318	ltpFR2	21	n/a	n/a	n/a	24	14	3	5	6
3628094	PROB	n/a	LTP318	ltpFR2	21	n/a	n/a	n/a	24	16	8	6	2
3629927	PROB	n/a	LTP318	ltpFR2	21	n/a	n/a	n/a	24	12	4	7	1
3631711	PROB	n/a	LTP318	ltpFR2	21	n/a	n/a	n/a	24	13	4	1	8
3633224	STOP	n/a	LTP318	ltpFR2	21	n/a	n/a	n/a	24	n/a	n/a	n/a	n/a
3636435	REC_START	n/a	LTP318	ltpFR2	21	16	n/a	n/a	n/a	n/a	0	0	0
3639252	REC_WORD	wordpools/wasnorm_wordpool_576.txt	LTP318	ltpFR2	21	16	ZEBRA	1635	n/a	n/a	0	0	0
3640252	REC_WORD_VV	wordpools/wasnorm_wordpool_576.txt	LTP318	ltpFR2	21	16	<>	-1	n/a	n/a	0	0	0
3641329	REC_WORD	wordpools/wasnorm_wordpool_576.txt	LTP318	ltpFR2	21	16	KIDNEY	776	n/a	n/a	0	0	0
3643316	REC_WORD	wordpools/wasnorm_wordpool_576.txt	LTP318	ltpFR2	21	16	BODY	145	n/a	n/a	0	0	0
3644004	REC_WORD	wordpools/wasnorm_wordpool_576.txt	LTP318	ltpFR2	21	16	THIEF	1456	n/a	n/a	0	0	0
3652203	REC_WORD	wordpools/wasnorm_wordpool_576.txt	LTP318	ltpFR2	21	16	WHISKERS	1605	n/a	n/a	0	0	0
3653151	REC_WORD	wordpools/wasnorm_wordpool_576.txt	LTP318	ltpFR2	21	16	ASIA	46	n/a	n/a	0	0	0
3655172	REC_WORD	wordpools/wasnorm_wordpool_576.txt	LTP318	ltpFR2	21	16	BUTCHER	203	n/a	n/a	0	0	0
3656160	REC_WORD	wordpools/wasnorm_wordpool_576.txt	LTP318	ltpFR2	21	16	CASHEW	253	n/a	n/a	0	0	0
3662706	REC_WORD	wordpools/wasnorm_wordpool_576.txt	LTP318	ltpFR2	21	16	BLADE	134	n/a	n/a	0	0	0
3663343	REC_WORD	wordpools/wasnorm_wordpool_576.txt	LTP318	ltpFR2	21	16	FILM	565	n/a	n/a	0	0	0
3668240	REC_WORD	wordpools/wasnorm_wordpool_576.txt	LTP318	ltpFR2	21	16	FLOWER	584	n/a	n/a	0	0	0
3669164	REC_WORD	wordpools/wasnorm_wordpool_576.txt	LTP318	ltpFR2	21	16	BUBBLE	183	n/a	n/a	0	0	0
3669779	REC_WORD	wordpools/wasnorm_wordpool_576.txt	LTP318	ltpFR2	21	16	GRAVE	658	n/a	n/a	0	0	0
3712977	REST_REWET	n/a	LTP318	ltpFR2	21	16	n/a	n/a	n/a	n/a	0	0	0
4204922	DISTRACTOR	n/a	LTP318	ltpFR2	21	17	n/a	n/a	n/a	n/a	0	0	0
4204923	START	n/a	LTP318	ltpFR2	21	n/a	n/a	n/a	25	n/a	n/a	n/a	n/a
4204938	PROB	n/a	LTP318	ltpFR2	21	n/a	n/a	n/a	25	20	6	8	6
4207507	PROB	n/a	LTP318	ltpFR2	21	n/a	n/a	n/a	25	14	4	6	4
4209074	PROB	n/a	LTP318	ltpFR2	21	n/a	n/a	n/a	25	17	9	3	5
4211042	PROB	n/a	LTP318	ltpFR2	21	n/a	n/a	n/a	25	11	1	4	6
4212445	PROB	n/a	LTP318	ltpFR2	21	n/a	n/a	n/a	25	16	2	5	9
4215013	PROB	n/a	LTP318	ltpFR2	21	n/a	n/a	n/a	25	13	4	1	8
4216630	PROB	n/a	LTP318	ltpFR2	21	n/a	n/a	n/a	25	15	7	5	3
4218682	PROB	n/a	LTP318	ltpFR2	21	n/a	n/a	n/a	25	25	7	9	9
4220117	PROB	n/a	LTP318	ltpFR2	21	n/a	n/a	n/a	25	14	2	5	6
4224604	PROB	n/a	LTP318	ltpFR2	21	n/a	n/a	n/a	25	15	5	3	7
4226589	PROB	n/a	LTP318	ltpFR2	21	n/a	n/a	n/a	25	11	2	6	3
4228280	STOP	n/a	LTP318	ltpFR2	21	n/a	n/a	n/a	25	n/a	n/a	n/a	n/a
4229992	WORD	wordpools/wasnorm_wordpool_576.txt	LTP318	ltpFR2	21	17	TWEEZERS	1526	n/a	n/a	0	0	0
4232777	WORD	wordpools/wasnorm_wordpool_576.txt	LTP318	ltpFR2	21	17	UNCLE	1536	n/a	n/a	0	0	0
4235349	WORD	wordpools/wasnorm_wordpool_576.txt	LTP318	ltpFR2	21	17	BANK	83	n/a	n/a	0	0	0
4238150	WORD	wordpools/wasnorm_wordpool_576.txt	LTP318	ltpFR2	21	17	FRECKLE	602	n/a	n/a	0	0	0
4240918	WORD	wordpools/wasnorm_wordpool_576.txt	LTP318	ltpFR2	21	17	HEADBAND	696	n/a	n/a	0	0	0
4243437	WORD	wordpools/wasnorm_wordpool_576.txt	LTP318	ltpFR2	21	17	GRILL	661	n/a	n/a	0	0	0
4246190	WORD	wordpools/wasnorm_wordpool_576.txt	LTP318	ltpFR2	21	17	ROOSTER	1209	n/a	n/a	0	0	0
4248707	WORD	wordpools/wasnorm_wordpool_576.txt	LTP318	ltpFR2	21	17	SWITCH	1422	n/a	n/a	0	0	0
4251126	WORD	wordpools/wasnorm_wordpool_576.txt	LTP318	ltpFR2	21	17	JUDGE	761	n/a	n/a	0	0	0
4253878	WORD	wordpools/wasnorm_wordpool_576.txt	LTP318	ltpFR2	21	17	SCARF	1246	n/a	n/a	0	0	0
4256697	WORD	wordpools/wasnorm_wordpool_576.txt	LTP318	ltpFR2	21	17	AWARD	63	n/a	n/a	0	0	0
4259216	WORD	wordpools/wasnorm_wordpool_576.txt	LTP318	ltpFR2	21	17	GYMNAST	675	n/a	n/a	0	0	0
4261785	WORD	wordpools/wasnorm_wordpool_576.txt	LTP318	ltpFR2	21	17	DOLPHIN	483	n/a	n/a	0	0	0
4264408	WORD	wordpools/wasnorm_wordpool_576.txt	LTP318	ltpFR2	21	17	MAMMAL	861	n/a	n/a	0	0	0
4267010	WORD	wordpools/wasnorm_wordpool_576.txt	LTP318	ltpFR2	21	17	CELLAR	267	n/a	n/a	0	0	0
4269574	WORD	wordpools/wasnorm_wordpool_576.txt	LTP318	ltpFR2	21	17	COUCH	386	n/a	n/a	0	0	0
4272311	WORD	wordpools/wasnorm_wordpool_576.txt	LTP318	ltpFR2	21	17	WINDOW	1611	n/a	n/a	0	0	0
4274817	WORD	wordpools/wasnorm_wordpool_576.txt	LTP318	ltpFR2	21	17	KLEENEX	782	n/a	n/a	0	0	0
4277269	WORD	wordpools/wasnorm_wordpool_576.txt	LTP318	ltpFR2	21	17	CORAL	378	n/a	n/a	0	0	0
4280082	WORD	wordpools/wasnorm_wordpool_576.txt	LTP318	ltpFR2	21	17	LAMP	798	n/a	n/a	0	0	0
4282518	WORD	wordpools/wasnorm_wordpool_576.txt	LTP318	ltpFR2	21	17	SIDEWALK	1303	n/a	n/a	0	0	0
4285304	WORD	wordpools/wasnorm_wordpool_576.txt	LTP318	ltpFR2	21	17	COUSIN	392	n/a	n/a	0	0	0
4287745	WORD	wordpools/wasnorm_wordpool_576.txt	LTP318	ltpFR2	21	17	MATCH	878	n/a	n/a	0	0	0
4290364	WORD	wordpools/wasnorm_wordpool_576.txt	LTP318	ltpFR2	21	17	GRIZZLY	662	n/a	n/a	0	0	0
4291976	START	n/a	LTP318	ltpFR2	21	n/a	n/a	n/a	26	n/a	n/a	n/a	n/a
4293020	DISTRACTOR	n/a	LTP318	ltpFR2	21	17	n/a	n/a	n/a	n/a	0	0	0
4293026	PROB	n/a	LTP318	ltpFR2	21	n/a	n/a	n/a	26	16	3	7	6
4295512	PROB	n/a	LTP318	ltpFR2	21	n/a	n/a	n/a	26	6	1	1	4
4297398	PROB	n/a	LTP318	ltpFR2	21	n/a	n/a	n/a	26	19	1	9	9
4299415	PROB	n/a	LTP318	ltpFR2	21	n/a	n/a	n/a	26	20	8	7	5
4301917	PROB	n/a	LTP318	ltpFR2	21	n/a	n/a	n/a	26	14	3	2	9
4303616	PROB	n/a	LTP318	ltpFR2	21	n/a	n/a	n/a	26	15	9	4	2
4305269	PROB	n/a	LTP318	ltpFR2	21	n/a	n/a	n/a	26	16	2	5	9
4307420	PROB	n/a	LTP318	ltpFR2	21	n/a	n/a	n/a	26	16	7	8	1
4309506	PROB	n/a	LTP318	ltpFR2	21	n/a	n/a	n/a	26	13	3	4	6
4311173	PROB	n/a	LTP318	ltpFR2	21	n/a	n/a	n/a	26	14	8	5	1
4312907	PROB	n/a	LTP318	ltpFR2	21	n/a	n/a	n/a	26	6	3	1	2
4314507	STOP	n/a	LTP318	ltpFR2	21	n/a	n/a	n/a	26	n/a	n/a	n/a	n/a
4317895	REC_START	n/a	LTP318	ltpFR2	21	17	n/a	n/a	n/a	n/a	0	0	0
4328387	REC_WORD	wordpools/wasnorm_wordpool_576.txt	LTP318	ltpFR2	21	17	LAMP	798	n/a	n/a	0	0	0
4329009	REC_WORD	wordpools/wasnorm_wordpool_576.txt	LTP318	ltpFR2	21	17	SIDEWALK	1303	n/a	n/a	0	0	0
4331982	REC_WORD	wordpools/wasnorm_wordpool_576.txt	LTP318	ltpFR2	21	17	WINDOW	1611	n/a	n/a	0	0	0
4332847	REC_WORD	wordpools/wasnorm_wordpool_576.txt	LTP318	ltpFR2	21	17	UNCLE	1536	n/a	n/a	0	0	0
4333466	REC_WORD	wordpools/wasnorm_wordpool_576.txt	LTP318	ltpFR2	21	17	FRECKLE	602	n/a	n/a	0	0	0
4334305	REC_WORD	wordpools/wasnorm_wordpool_576.txt	LTP318	ltpFR2	21	17	TWEEZERS	1526	n/a	n/a	0	0	0
4337672	REC_WORD	wordpools/wasnorm_wordpool_576.txt	LTP318	ltpFR2	21	17	BANK	83	n/a	n/a	0	0	0
4340776	REC_WORD	wordpools/wasnorm_wordpool_576.txt	LTP318	ltpFR2	21	17	HEADBAND	696	n/a	n/a	0	0	0
4341776	REC_WORD_VV	wordpools/wasnorm_wordpool_576.txt	LTP318	ltpFR2	21	17	<>	-1	n/a	n/a	0	0	0
4342886	REC_WORD	wordpools/wasnorm_wordpool_576.txt	LTP318	ltpFR2	21	17	GRILL	661	n/a	n/a	0	0	0
4343715	REC_WORD	wordpools/wasnorm_wordpool_576.txt	LTP318	ltpFR2	21	17	AWARD	63	n/a	n/a	0	0	0
4344871	REC_WORD	wordpools/wasnorm_wordpool_576.txt	LTP318	ltpFR2	21	17	ROOSTER	1209	n/a	n/a	0	0	0
4351957	REC_WORD	wordpools/wasnorm_wordpool_576.txt	LTP318	ltpFR2	21	17	MAMMAL	861	n/a	n/a	0	0	0
4352835	REC_WORD	wordpools/wasnorm_wordpool_576.txt	LTP318	ltpFR2	21	17	DOLPHIN	483	n/a	n/a	0	0	0
4408337	DISTRACTOR	n/a	LTP318	ltpFR2	21	18	n/a	n/a	n/a	n/a	0	0	0
4408337	START	n/a	LTP318	ltpFR2	21	n/a	n/a	n/a	27	n/a	n/a	n/a	n/a
4408352	PROB	n/a	LTP318	ltpFR2	21	n/a	n/a	n/a	27	13	3	2	8
4410100	PROB	n/a	LTP318	ltpFR2	21	n/a	n/a	n/a	27	16	5	8	3
4411684	PROB	n/a	LTP318	ltpFR2	21	n/a	n/a	n/a	27	18	7	8	3
4413587	PROB	n/a	LTP318	ltpFR2	21	n/a	n/a	n/a	27	8	4	3	1
4414803	PROB	n/a	LTP318	ltpFR2	21	n/a	n/a	n/a	27	13	4	1	8
4416272	PROB	n/a	LTP318	ltpFR2	21	n/a	n/a	n/a	27	9	4	2	3
4418326	PROB	n/a	LTP318	ltpFR2	21	n/a	n/a	n/a	27	12	3	6	3
4420395	PROB	n/a	LTP318	ltpFR2	21	n/a	n/a	n/a	27	18	4	5	9
4421777	PROB	n/a	LTP318	ltpFR2	21	n/a	n/a	n/a	27	22	4	9	9
4422996	PROB	n/a	LTP318	ltpFR2	21	n/a	n/a	n/a	27	9	3	1	5
4424483	PROB	n/a	LTP318	ltpFR2	21	n/a	n/a	n/a	27	7	3	1	3
4425766	PROB	n/a	LTP318	ltpFR2	21	n/a	n/a	n/a	27	22	6	9	7
4427485	PROB	n/a	LTP318	ltpFR2	21	n/a	n/a	n/a	27	18	4	5	9
4428849	PROB	n/a	LTP318	ltpFR2	21	n/a	n/a	n/a	27	17	8	3	6
4430354	PROB	n/a	LTP318	ltpFR2	21	n/a	n/a	n/a	27	19	7	3	9
4431943	STOP	n/a	LTP318	ltpFR2	21	n/a	n/a	n/a	27	n/a	n/a	n/a	n/a
4433222	WORD	wordpools/wasnorm_wordpool_576.txt	LTP318	ltpFR2	21	18	TOMBSTONE	1478	n/a	n/a	0	0	0
4435873	WORD	wordpools/wasnorm_wordpool_576.txt	LTP318	ltpFR2	21	18	HOOK	715	n/a	n/a	0	0	0
4438410	WORD	wordpools/wasnorm_wordpool_576.txt	LTP318	ltpFR2	21	18	RIVER	1194	n/a	n/a	0	0	0
4441077	WORD	wordpools/wasnorm_wordpool_576.txt	LTP318	ltpFR2	21	18	SWORD	1423	n/a	n/a	0	0	0
4443830	WORD	wordpools/wasnorm_wordpool_576.txt	LTP318	ltpFR2	21	18	KNIFE	785	n/a	n/a	0	0	0
4446267	WORD	wordpools/wasnorm_wordpool_576.txt	LTP318	ltpFR2	21	18	HORNET	718	n/a	n/a	0	0	0
4448917	WORD	wordpools/wasnorm_wordpool_576.txt	LTP318	ltpFR2	21	18	LIPSTICK	829	n/a	n/a	0	0	0
4451421	WORD	wordpools/wasnorm_wordpool_576.txt	LTP318	ltpFR2	21	18	EYELASH	546	n/a	n/a	0	0	0
4454240	WORD	wordpools/wasnorm_wordpool_576.txt	LTP318	ltpFR2	21	18	ROBBER	1197	n/a	n/a	0	0	0
4456874	WORD	wordpools/wasnorm_wordpool_576.txt	LTP318	ltpFR2	21	18	MATTRESS	879	n/a	n/a	0	0	0
4459377	WORD	wordpools/wasnorm_wordpool_576.txt	LTP318	ltpFR2	21	18	FARMER	553	n/a	n/a	0	0	0
4461878	WORD	wordpools/wasnorm_wordpool_576.txt	LTP318	ltpFR2	21	18	POISON	1096	n/a	n/a	0	0	0
4464331	WORD	wordpools/wasnorm_wordpool_576.txt	LTP318	ltpFR2	21	18	ITEM	746	n/a	n/a	0	0	0
4466782	WORD	wordpools/wasnorm_wordpool_576.txt	LTP318	ltpFR2	21	18	SUPPER	1411	n/a	n/a	0	0	0
4469251	WORD	wordpools/wasnorm_wordpool_576.txt	LTP318	ltpFR2	21	18	JEANS	752	n/a	n/a	0	0	0
4472020	WORD	wordpools/wasnorm_wordpool_576.txt	LTP318	ltpFR2	21	18	ELBOW	520	n/a	n/a	0	0	0
4474722	WORD	wordpools/wasnorm_wordpool_576.txt	LTP318	ltpFR2	21	18	PLUTO	1092	n/a	n/a	0	0	0
4477508	WORD	wordpools/wasnorm_wordpool_576.txt	LTP318	ltpFR2	21	18	SCISSORS	1250	n/a	n/a	0	0	0
4480211	WORD	wordpools/wasnorm_wordpool_576.txt	LTP318	ltpFR2	21	18	GAZELLE	628	n/a	n/a	0	0	0
4483028	WORD	wordpools/wasnorm_wordpool_576.txt	LTP318	ltpFR2	21	18	BARLEY	88	n/a	n/a	0	0	0
4485798	WORD	wordpools/wasnorm_wordpool_576.txt	LTP318	ltpFR2	21	18	BURGLAR	200	n/a	n/a	0	0	0
4488483	WORD	wordpools/wasnorm_wordpool_576.txt	LTP318	ltpFR2	21	18	PATIENT	1024	n/a	n/a	0	0	0
4491303	WORD	wordpools/wasnorm_wordpool_576.txt	LTP318	ltpFR2	21	18	BEAST	108	n/a	n/a	0	0	0
4493803	WORD	wordpools/wasnorm_wordpool_576.txt	LTP318	ltpFR2	21	18	ANKLE	24	n/a	n/a	0	0	0
4495410	START	n/a	LTP318	ltpFR2	21	n/a	n/a	n/a	28	n/a	n/a	n/a	n/a
4496247	DISTRACTOR	n/a	LTP318	ltpFR2	21	18	n/a	n/a	n/a	n/a	0	0	0
4496257	PROB	n/a	LTP318	ltpFR2	21	n/a	n/a	n/a	28	116	3	5	8
4498409	PROB	n/a	LTP318	ltpFR2	21	n/a	n/a	n/a	28	5	2	2	1
4499624	PROB	n/a	LTP318	ltpFR2	21	n/a	n/a	n/a	28	9	6	1	2
4502427	PROB	n/a	LTP318	ltpFR2	21	n/a	n/a	n/a	28	9	5	1	3
4504197	PROB	n/a	LTP318	ltpFR2	21	n/a	n/a	n/a	28	21	9	3	9
4505612	PROB	n/a	LTP318	ltpFR2	21	n/a	n/a	n/a	28	21	7	7	7
4507331	PROB	n/a	LTP318	ltpFR2	21	n/a	n/a	n/a	28	13	4	7	2
4508781	PROB	n/a	LTP318	ltpFR2	21	n/a	n/a	n/a	28	17	7	9	1
4510048	PROB	n/a	LTP318	ltpFR2	21	n/a	n/a	n/a	28	17	4	9	4
4511900	PROB	n/a	LTP318	ltpFR2	21	n/a	n/a	n/a	28	15	3	6	6
4513186	PROB	n/a	LTP318	ltpFR2	21	n/a	n/a	n/a	28	13	8	3	2
4514620	PROB	n/a	LTP318	ltpFR2	21	n/a	n/a	n/a	28	15	2	6	7
4516238	PROB	n/a	LTP318	ltpFR2	21	n/a	n/a	n/a	28	13	1	3	9
4517772	PROB	n/a	LTP318	ltpFR2	21	n/a	n/a	n/a	28	11	2	1	8
4519203	STOP	n/a	LTP318	ltpFR2	21	n/a	n/a	n/a	28	n/a	n/a	n/a	n/a
4521309	REC_START	n/a	LTP318	ltpFR2	21	18	n/a	n/a	n/a	n/a	0	0	0
4525707	REC_WORD	wordpools/wasnorm_wordpool_576.txt	LTP318	ltpFR2	21	18	PATIENT	1024	n/a	n/a	0	0	0
4526824	REC_WORD	wordpools/wasnorm_wordpool_576.txt	LTP318	ltpFR2	21	18	BEAST	108	n/a	n/a	0	0	0
4529980	REC_WORD	wordpools/wasnorm_wordpool_576.txt	LTP318	ltpFR2	21	18	PLUTO	1092	n/a	n/a	0	0	0
4533927	REC_WORD	wordpools/wasnorm_wordpool_576.txt	LTP318	ltpFR2	21	18	SCISSORS	1250	n/a	n/a	0	0	0
4534739	REC_WORD	wordpools/wasnorm_wordpool_576.txt	LTP318	ltpFR2	21	18	BARLEY	88	n/a	n/a	0	0	0
4535502	REC_WORD	wordpools/wasnorm_wordpool_576.txt	LTP318	ltpFR2	21	18	GAZELLE	628	n/a	n/a	0	0	0
4538771	REC_WORD	wordpools/wasnorm_wordpool_576.txt	LTP318	ltpFR2	21	18	FARMER	553	n/a	n/a	0	0	0
4539386	REC_WORD	wordpools/wasnorm_wordpool_576.txt	LTP318	ltpFR2	21	18	MATTRESS	879	n/a	n/a	0	0	0
4540257	REC_WORD	wordpools/wasnorm_wordpool_576.txt	LTP318	ltpFR2	21	18	POISON	1096	n/a	n/a	0	0	0
4548447	REC_WORD	wordpools/wasnorm_wordpool_576.txt	LTP318	ltpFR2	21	18	RIVER	1194	n/a	n/a	0	0	0
4611732	WORD	wordpools/wasnorm_wordpool_576.txt	LTP318	ltpFR2	21	19	SILK	1307	n/a	n/a	0	0	0
4614419	WORD	wordpools/wasnorm_wordpool_576.txt	LTP318	ltpFR2	21	19	FLESH	579	n/a	n/a	0	0	0
4616981	WORD	wordpools/wasnorm_wordpool_576.txt	LTP318	ltpFR2	21	19	BUCKET	184	n/a	n/a	0	0	0
4619583	WORD	wordpools/wasnorm_wordpool_576.txt	LTP318	ltpFR2	21	19	TRANSPLANT	1496	n/a	n/a	0	0	0
4622336	WORD	wordpools/wasnorm_wordpool_576.txt	LTP318	ltpFR2	21	19	UMPIRE	1535	n/a	n/a	0	0	0
4625156	WORD	wordpools/wasnorm_wordpool_576.txt	LTP318	ltpFR2	21	19	CAPTIVE	240	n/a	n/a	0	0	0
4627840	WORD	wordpools/wasnorm_wordpool_576.txt	LTP318	ltpFR2	21	19	VICTIM	1562	n/a	n/a	0	0	0
4630643	WORD	wordpools/wasnorm_wordpool_576.txt	LTP318	ltpFR2	21	19	HEART	697	n/a	n/a	0	0	0
4633346	WORD	wordpools/wasnorm_wordpool_576.txt	LTP318	ltpFR2	21	19	FEMALE	559	n/a	n/a	0	0	0
4635764	WORD	wordpools/wasnorm_wordpool_576.txt	LTP318	ltpFR2	21	19	BARREL	91	n/a	n/a	0	0	0
4638520	WORD	wordpools/wasnorm_wordpool_576.txt	LTP318	ltpFR2	21	19	DENTIST	447	n/a	n/a	0	0	0
4641103	WORD	wordpools/wasnorm_wordpool_576.txt	LTP318	ltpFR2	21	19	BRACES	164	n/a	n/a	0	0	0
4643838	WORD	wordpools/wasnorm_wordpool_576.txt	LTP318	ltpFR2	21	19	NOVEL	960	n/a	n/a	0	0	0
4646357	WORD	wordpools/wasnorm_wordpool_576.txt	LTP318	ltpFR2	21	19	PLAYGROUND	1087	n/a	n/a	0	0	0
4648942	WORD	wordpools/wasnorm_wordpool_576.txt	LTP318	ltpFR2	21	19	TRUCK	1512	n/a	n/a	0	0	0
4651662	WORD	wordpools/wasnorm_wordpool_576.txt	LTP318	ltpFR2	21	19	SLIDE	1326	n/a	n/a	0	0	0
4654431	WORD	wordpools/wasnorm_wordpool_576.txt	LTP318	ltpFR2	21	19	STOMACH	1384	n/a	n/a	0	0	0
4657217	WORD	wordpools/wasnorm_wordpool_576.txt	LTP318	ltpFR2	21	19	RUG	1215	n/a	n/a	0	0	0
4659768	WORD	wordpools/wasnorm_wordpool_576.txt	LTP318	ltpFR2	21	19	HOUND	724	n/a	n/a	0	0	0
4662554	WORD	wordpools/wasnorm_wordpool_576.txt	LTP318	ltpFR2	21	19	HANDBAG	684	n/a	n/a	0	0	0
4665006	WORD	wordpools/wasnorm_wordpool_576.txt	LTP318	ltpFR2	21	19	PROTON	1132	n/a	n/a	0	0	0
4667442	WORD	wordpools/wasnorm_wordpool_576.txt	LTP318	ltpFR2	21	19	PASSAGE	1019	n/a	n/a	0	0	0
4670246	WORD	wordpools/wasnorm_wordpool_576.txt	LTP318	ltpFR2	21	19	KNAPSACK	783	n/a	n/a	0	0	0
4672813	WORD	wordpools/wasnorm_wordpool_576.txt	LTP318	ltpFR2	21	19	LUNCH	849	n/a	n/a	0	0	0
4674432	START	n/a	LTP318	ltpFR2	21	n/a	n/a	n/a	29	n/a	n/a	n/a	n/a
4675269	DISTRACTOR	n/a	LTP318	ltpFR2	21	19	n/a	n/a	n/a	n/a	0	0	0
4675282	PROB	n/a	LTP318	ltpFR2	21	n/a	n/a	n/a	29	14	8	2	4
4678851	PROB	n/a	LTP318	ltpFR2	21	n/a	n/a	n/a	29	15	8	1	6
4680603	PROB	n/a	LTP318	ltpFR2	21	n/a	n/a	n/a	29	11	2	5	4
4682154	PROB	n/a	LTP318	ltpFR2	21	n/a	n/a	n/a	29	16	4	6	6
4683688	PROB	n/a	LTP318	ltpFR2	21	n/a	n/a	n/a	29	16	9	1	6
4684724	PROB	n/a	LTP318	ltpFR2	21	n/a	n/a	n/a	29	9	1	1	7
4685724	PROB	n/a	LTP318	ltpFR2	21	n/a	n/a	n/a	29	21	9	3	9
4686876	PROB	n/a	LTP318	ltpFR2	21	n/a	n/a	n/a	29	25	9	8	8
4689345	PROB	n/a	LTP318	ltpFR2	21	n/a	n/a	n/a	29	18	8	7	3
4690677	PROB	n/a	LTP318	ltpFR2	21	n/a	n/a	n/a	29	11	6	3	2
4691811	PROB	n/a	LTP318	ltpFR2	21	n/a	n/a	n/a	29	14	5	7	2
4692930	PROB	n/a	LTP318	ltpFR2	21	n/a	n/a	n/a	29	19	6	6	7
4693929	PROB	n/a	LTP318	ltpFR2	21	n/a	n/a	n/a	29	22	7	8	7
4695647	PROB	n/a	LTP318	ltpFR2	21	n/a	n/a	n/a	29	14	8	1	5
4697306	STOP	n/a	LTP318	ltpFR2	21	n/a	n/a	n/a	29	n/a	n/a	n/a	n/a
4700286	REC_START	n/a	LTP318	ltpFR2	21	19	n/a	n/a	n/a	n/a	0	0	0
4709374	REC_WORD	wordpools/wasnorm_wordpool_576.txt	LTP318	ltpFR2	21	19	PASSAGE	1019	n/a	n/a	0	0	0
4710213	REC_WORD	wordpools/wasnorm_wordpool_576.txt	LTP318	ltpFR2	21	19	KNAPSACK	783	n/a	n/a	0	0	0
4711213	REC_WORD_VV	wordpools/wasnorm_wordpool_576.txt	LTP318	ltpFR2	21	19	<>	-1	n/a	n/a	0	0	0
4712872	REC_WORD	wordpools/wasnorm_wordpool_576.txt	LTP318	ltpFR2	21	19	SLIDE	1326	n/a	n/a	0	0	0
4713480	REC_WORD	wordpools/wasnorm_wordpool_576.txt	LTP318	ltpFR2	21	19	STOMACH	1384	n/a	n/a	0	0	0
4721213	REC_WORD	wordpools/wasnorm_wordpool_576.txt	LTP318	ltpFR2	21	19	HEART	697	n/a	n/a	0	0	0
4722598	REC_WORD	wordpools/wasnorm_wordpool_576.txt	LTP318	ltpFR2	21	19	TRANSPLANT	1496	n/a	n/a	0	0	0
4723508	REC_WORD	wordpools/wasnorm_wordpool_576.txt	LTP318	ltpFR2	21	19	FLESH	579	n/a	n/a	0	0	0
4724161	REC_WORD	wordpools/wasnorm_wordpool_576.txt	LTP318	ltpFR2	21	19	SILK	1307	n/a	n/a	0	0	0
4725462	REC_WORD	wordpools/wasnorm_wordpool_576.txt	LTP318	ltpFR2	21	19	DENTIST	447	n/a	n/a	0	0	0
4726241	REC_WORD	wordpools/wasnorm_wordpool_576.txt	LTP318	ltpFR2	21	19	BRACES	164	n/a	n/a	0	0	0
4731091	REC_WORD	wordpools/wasnorm_wordpool_576.txt	LTP318	ltpFR2	21	19	BUCKET	184	n/a	n/a	0	0	0
4790724	WORD	wordpools/wasnorm_wordpool_576.txt	LTP318	ltpFR2	21	20	CLOCK	325	n/a	n/a	0	0	0
4793444	WORD	wordpools/wasnorm_wordpool_576.txt	LTP318	ltpFR2	21	20	CAFE	216	n/a	n/a	0	0	0
4795953	WORD	wordpools/wasnorm_wordpool_576.txt	LTP318	ltpFR2	21	20	LEG	809	n/a	n/a	0	0	0
4798564	WORD	wordpools/wasnorm_wordpool_576.txt	LTP318	ltpFR2	21	20	CAMEL	223	n/a	n/a	0	0	0
4801325	WORD	wordpools/wasnorm_wordpool_576.txt	LTP318	ltpFR2	21	20	GIFT	635	n/a	n/a	0	0	0
4804043	WORD	wordpools/wasnorm_wordpool_576.txt	LTP318	ltpFR2	21	20	GARBAGE	622	n/a	n/a	0	0	0
4806522	WORD	wordpools/wasnorm_wordpool_576.txt	LTP318	ltpFR2	21	20	BINDER	127	n/a	n/a	0	0	0
4809291	WORD	wordpools/wasnorm_wordpool_576.txt	LTP318	ltpFR2	21	20	TURTLE	1522	n/a	n/a	0	0	0
4811975	WORD	wordpools/wasnorm_wordpool_576.txt	LTP318	ltpFR2	21	20	CIGAR	308	n/a	n/a	0	0	0
4814529	WORD	wordpools/wasnorm_wordpool_576.txt	LTP318	ltpFR2	21	20	MAILMAN	858	n/a	n/a	0	0	0
4816996	WORD	wordpools/wasnorm_wordpool_576.txt	LTP318	ltpFR2	21	20	SCARECROW	1245	n/a	n/a	0	0	0
4819698	WORD	wordpools/wasnorm_wordpool_576.txt	LTP318	ltpFR2	21	20	SISTER	1312	n/a	n/a	0	0	0
4822134	WORD	wordpools/wasnorm_wordpool_576.txt	LTP318	ltpFR2	21	20	SPONGE	1355	n/a	n/a	0	0	0
4824562	WORD	wordpools/wasnorm_wordpool_576.txt	LTP318	ltpFR2	21	20	BOX	159	n/a	n/a	0	0	0
4827349	WORD	wordpools/wasnorm_wordpool_576.txt	LTP318	ltpFR2	21	20	NAPKIN	937	n/a	n/a	0	0	0
4829874	WORD	wordpools/wasnorm_wordpool_576.txt	LTP318	ltpFR2	21	20	DANCER	437	n/a	n/a	0	0	0
4832359	WORD	wordpools/wasnorm_wordpool_576.txt	LTP318	ltpFR2	21	20	PUDDING	1139	n/a	n/a	0	0	0
4835021	WORD	wordpools/wasnorm_wordpool_576.txt	LTP318	ltpFR2	21	20	CUSTARD	429	n/a	n/a	0	0	0
4837473	WORD	wordpools/wasnorm_wordpool_576.txt	LTP318	ltpFR2	21	20	OINTMENT	974	n/a	n/a	0	0	0
4840065	WORD	wordpools/wasnorm_wordpool_576.txt	LTP318	ltpFR2	21	20	JELLO	754	n/a	n/a	0	0	0
4842544	WORD	wordpools/wasnorm_wordpool_576.txt	LTP318	ltpFR2	21	20	RABBIT	1152	n/a	n/a	0	0	0
4845114	WORD	wordpools/wasnorm_wordpool_576.txt	LTP318	ltpFR2	21	20	RATTLE	1170	n/a	n/a	0	0	0
4847782	WORD	wordpools/wasnorm_wordpool_576.txt	LTP318	ltpFR2	21	20	TURKEY	1520	n/a	n/a	0	0	0
4850567	WORD	wordpools/wasnorm_wordpool_576.txt	LTP318	ltpFR2	21	20	PICNIC	1060	n/a	n/a	0	0	0
4852176	START	n/a	LTP318	ltpFR2	21	n/a	n/a	n/a	30	n/a	n/a	n/a	n/a
4853093	DISTRACTOR	n/a	LTP318	ltpFR2	21	20	n/a	n/a	n/a	n/a	0	0	0
4853104	PROB	n/a	LTP318	ltpFR2	21	n/a	n/a	n/a	30	6	1	1	4
4855294	PROB	n/a	LTP318	ltpFR2	21	n/a	n/a	n/a	30	17	4	8	5
4858346	PROB	n/a	LTP318	ltpFR2	21	n/a	n/a	n/a	30	21	8	9	4
4860332	PROB	n/a	LTP318	ltpFR2	21	n/a	n/a	n/a	30	18	6	3	9
4862500	PROB	n/a	LTP318	ltpFR2	21	n/a	n/a	n/a	30	10	2	7	1
4864552	PROB	n/a	LTP318	ltpFR2	21	n/a	n/a	n/a	30	17	8	6	3
4866520	PROB	n/a	LTP318	ltpFR2	21	n/a	n/a	n/a	30	18	5	5	8
4868388	PROB	n/a	LTP318	ltpFR2	21	n/a	n/a	n/a	30	21	7	7	7
4869906	PROB	n/a	LTP318	ltpFR2	21	n/a	n/a	n/a	30	6	3	2	1
4871822	PROB	n/a	LTP318	ltpFR2	21	n/a	n/a	n/a	30	20	6	6	8
4873721	PROB	n/a	LTP318	ltpFR2	21	n/a	n/a	n/a	30	21	4	9	8
4875441	STOP	n/a	LTP318	ltpFR2	21	n/a	n/a	n/a	30	n/a	n/a	n/a	n/a
4878075	REC_START	n/a	LTP318	ltpFR2	21	20	n/a	n/a	n/a	n/a	0	0	0
4880566	REC_WORD	wordpools/wasnorm_wordpool_576.txt	LTP318	ltpFR2	21	20	SPONGE	1355	n/a	n/a	0	0	0
4881636	REC_WORD	wordpools/wasnorm_wordpool_576.txt	LTP318	ltpFR2	21	20	PUDDING	1139	n/a	n/a	0	0	0
4882361	REC_WORD	wordpools/wasnorm_wordpool_576.txt	LTP318	ltpFR2	21	20	CUSTARD	429	n/a	n/a	0	0	0
4883813	REC_WORD	wordpools/wasnorm_wordpool_576.txt	LTP318	ltpFR2	21	20	RATTLE	1170	n/a	n/a	0	0	0
4884647	REC_WORD	wordpools/wasnorm_wordpool_576.txt	LTP318	ltpFR2	21	20	PICNIC	1060	n/a	n/a	0	0	0
4890230	REC_WORD	wordpools/wasnorm_wordpool_576.txt	LTP318	ltpFR2	21	20	JELLY	755	n/a	n/a	0	0	0
4896248	REC_WORD	wordpools/wasnorm_wordpool_576.txt	LTP318	ltpFR2	21	20	CLOCK	325	n/a	n/a	0	0	0
4900749	REC_WORD	wordpools/wasnorm_wordpool_576.txt	LTP318	ltpFR2	21	20	CAFE	216	n/a	n/a	0	0	0
4903787	REC_WORD	wordpools/wasnorm_wordpool_576.txt	LTP318	ltpFR2	21	20	GIFT	635	n/a	n/a	0	0	0
4905529	REC_WORD	wordpools/wasnorm_wordpool_576.txt	LTP318	ltpFR2	21	20	CAMEL	223	n/a	n/a	0	0	0
4906651	REC_WORD	wordpools/wasnorm_wordpool_576.txt	LTP318	ltpFR2	21	20	LEG	809	n/a	n/a	0	0	0
4910054	REC_WORD	wordpools/wasnorm_wordpool_576.txt	LTP318	ltpFR2	21	20	TURTLE	1522	n/a	n/a	0	0	0
4910630	REC_WORD	wordpools/wasnorm_wordpool_576.txt	LTP318	ltpFR2	21	20	CIGAR	308	n/a	n/a	0	0	0
4968518	WORD	wordpools/wasnorm_wordpool_576.txt	LTP318	ltpFR2	21	21	LION	827	n/a	n/a	0	0	0
4971103	WORD	wordpools/wasnorm_wordpool_576.txt	LTP318	ltpFR2	21	21	TROUT	1511	n/a	n/a	0	0	0
4973888	WORD	wordpools/wasnorm_wordpool_576.txt	LTP318	ltpFR2	21	21	KEEPER	769	n/a	n/a	0	0	0
4976308	WORD	wordpools/wasnorm_wordpool_576.txt	LTP318	ltpFR2	21	21	QUARTER	1148	n/a	n/a	0	0	0
4979110	WORD	wordpools/wasnorm_wordpool_576.txt	LTP318	ltpFR2	21	21	GALLON	618	n/a	n/a	0	0	0
4981811	WORD	wordpools/wasnorm_wordpool_576.txt	LTP318	ltpFR2	21	21	POWDER	1117	n/a	n/a	0	0	0
4984585	WORD	wordpools/wasnorm_wordpool_576.txt	LTP318	ltpFR2	21	21	CONTRACT	368	n/a	n/a	0	0	0
4987217	WORD	wordpools/wasnorm_wordpool_576.txt	LTP318	ltpFR2	21	21	LIGHTNING	820	n/a	n/a	0	0	0
4989985	WORD	wordpools/wasnorm_wordpool_576.txt	LTP318	ltpFR2	21	21	JURY	766	n/a	n/a	0	0	0
4992574	WORD	wordpools/wasnorm_wordpool_576.txt	LTP318	ltpFR2	21	21	PORK	1108	n/a	n/a	0	0	0
4995291	WORD	wordpools/wasnorm_wordpool_576.txt	LTP318	ltpFR2	21	21	DRAGON	492	n/a	n/a	0	0	0
4998012	WORD	wordpools/wasnorm_wordpool_576.txt	LTP318	ltpFR2	21	21	IDOL	733	n/a	n/a	0	0	0
5000478	WORD	wordpools/wasnorm_wordpool_576.txt	LTP318	ltpFR2	21	21	COMET	353	n/a	n/a	0	0	0
5002945	WORD	wordpools/wasnorm_wordpool_576.txt	LTP318	ltpFR2	21	21	DIME	466	n/a	n/a	0	0	0
5005448	WORD	wordpools/wasnorm_wordpool_576.txt	LTP318	ltpFR2	21	21	MILK	895	n/a	n/a	0	0	0
5008200	WORD	wordpools/wasnorm_wordpool_576.txt	LTP318	ltpFR2	21	21	BRIEFCASE	175	n/a	n/a	0	0	0
5010718	WORD	wordpools/wasnorm_wordpool_576.txt	LTP318	ltpFR2	21	21	AUTHOR	61	n/a	n/a	0	0	0
5013322	WORD	wordpools/wasnorm_wordpool_576.txt	LTP318	ltpFR2	21	21	CLOUD	328	n/a	n/a	0	0	0
5016011	WORD	wordpools/wasnorm_wordpool_576.txt	LTP318	ltpFR2	21	21	CYCLONE	431	n/a	n/a	0	0	0
5018741	WORD	wordpools/wasnorm_wordpool_576.txt	LTP318	ltpFR2	21	21	SPACE	1345	n/a	n/a	0	0	0
5021311	WORD	wordpools/wasnorm_wordpool_576.txt	LTP318	ltpFR2	21	21	PERMIT	1051	n/a	n/a	0	0	0
5023729	WORD	wordpools/wasnorm_wordpool_576.txt	LTP318	ltpFR2	21	21	HORSE	719	n/a	n/a	0	0	0
5026321	WORD	wordpools/wasnorm_wordpool_576.txt	LTP318	ltpFR2	21	21	HAWK	692	n/a	n/a	0	0	0
5028883	WORD	wordpools/wasnorm_wordpool_576.txt	LTP318	ltpFR2	21	21	PENGUIN	1044	n/a	n/a	0	0	0
5030492	START	n/a	LTP318	ltpFR2	21	n/a	n/a	n/a	31	n/a	n/a	n/a	n/a
5031629	DISTRACTOR	n/a	LTP318	ltpFR2	21	21	n/a	n/a	n/a	n/a	0	0	0
5031634	PROB	n/a	LTP318	ltpFR2	21	n/a	n/a	n/a	31	17	6	4	7
5033720	PROB	n/a	LTP318	ltpFR2	21	n/a	n/a	n/a	31	20	3	9	8
5035437	PROB	n/a	LTP318	ltpFR2	21	n/a	n/a	n/a	31	17	2	9	6
5036955	PROB	n/a	LTP318	ltpFR2	21	n/a	n/a	n/a	31	17	3	8	6
5038573	PROB	n/a	LTP318	ltpFR2	21	n/a	n/a	n/a	31	12	7	2	3
