mstime	trial_type	stim_file	subject	experiment	session	trial	task	item_name	item_num	recog_conf	resp	color_b	color_g	color_r	case	font
0	SESS_START	n/a	LTP291	ltpFR	18	n/a	n/a	n/a	n/a	2	n/a	n/a	n/a	n/a	n/a	n/a
74969635	SESS_START	n/a	LTP291	ltpFR	18	n/a	n/a	n/a	n/a	n/a	n/a	n/a	n/a	n/a	n/a	n/a
74987543	WORD	wordpools/wasnorm_wordpool_less_exclusions.txt	LTP291	ltpFR	18	1	0	POLICE	1098	n/a	1	0	0.5869140625	0.422607421875	upper	../fonts/amplitud.ttf
74991721	WORD	wordpools/wasnorm_wordpool_less_exclusions.txt	LTP291	ltpFR	18	1	0	COSTUME	383	n/a	1	0	0.5869140625	0.422607421875	upper	../fonts/amplitud.ttf
74995581	WORD	wordpools/wasnorm_wordpool_less_exclusions.txt	LTP291	ltpFR	18	1	0	NECKLACE	940	n/a	0	0	0.5869140625	0.422607421875	upper	../fonts/amplitud.ttf
74999675	WORD	wordpools/wasnorm_wordpool_less_exclusions.txt	LTP291	ltpFR	18	1	0	POWDER	1117	n/a	0	0	0.5869140625	0.422607421875	upper	../fonts/amplitud.ttf
75003819	WORD	wordpools/wasnorm_wordpool_less_exclusions.txt	LTP291	ltpFR	18	1	1	LIPSTICK	829	n/a	0	1	0.412841796875	0.57763671875	lower	../fonts/zerothre.ttf
75008014	WORD	wordpools/wasnorm_wordpool_less_exclusions.txt	LTP291	ltpFR	18	1	1	WOMAN	1620	n/a	0	1	0.412841796875	0.57763671875	lower	../fonts/zerothre.ttf
75011925	WORD	wordpools/wasnorm_wordpool_less_exclusions.txt	LTP291	ltpFR	18	1	0	OTTER	986	n/a	0	0	0.5869140625	0.422607421875	upper	../fonts/amplitud.ttf
75016117	WORD	wordpools/wasnorm_wordpool_less_exclusions.txt	LTP291	ltpFR	18	1	0	GENERAL	630	n/a	0	0	0.5869140625	0.422607421875	upper	../fonts/amplitud.ttf
75020228	WORD	wordpools/wasnorm_wordpool_less_exclusions.txt	LTP291	ltpFR	18	1	1	SPOOL	1356	n/a	0	1	0.412841796875	0.57763671875	lower	../fonts/zerothre.ttf
75024139	WORD	wordpools/wasnorm_wordpool_less_exclusions.txt	LTP291	ltpFR	18	1	1	DETECTIVE	454	n/a	0	1	0.412841796875	0.57763671875	lower	../fonts/zerothre.ttf
75028149	WORD	wordpools/wasnorm_wordpool_less_exclusions.txt	LTP291	ltpFR	18	1	1	MAILBOX	857	n/a	0	1	0.412841796875	0.57763671875	lower	../fonts/zerothre.ttf
75032011	WORD	wordpools/wasnorm_wordpool_less_exclusions.txt	LTP291	ltpFR	18	1	1	SCROLL	1257	n/a	0	1	0.412841796875	0.57763671875	lower	../fonts/zerothre.ttf
75035972	WORD	wordpools/wasnorm_wordpool_less_exclusions.txt	LTP291	ltpFR	18	1	1	WATERFALL	1595	n/a	0	1	0.412841796875	0.57763671875	lower	../fonts/zerothre.ttf
75040181	WORD	wordpools/wasnorm_wordpool_less_exclusions.txt	LTP291	ltpFR	18	1	1	FOLDER	588	n/a	0	1	0.412841796875	0.57763671875	lower	../fonts/zerothre.ttf
75044192	WORD	wordpools/wasnorm_wordpool_less_exclusions.txt	LTP291	ltpFR	18	1	0	BINDER	127	n/a	0	0	0.5869140625	0.422607421875	upper	../fonts/amplitud.ttf
75048336	WORD	wordpools/wasnorm_wordpool_less_exclusions.txt	LTP291	ltpFR	18	1	0	SHED	1277	n/a	0	0	0.5869140625	0.422607421875	upper	../fonts/amplitud.ttf
75054062	REC_START	n/a	LTP291	ltpFR	18	1	n/a	n/a	n/a	n/a	n/a	n/a	n/a	n/a	n/a	n/a
75055809	REC_WORD	wordpools/wasnorm_wordpool_less_exclusions.txt	LTP291	ltpFR	18	1	0	SHED	1277	n/a	0	n/a	n/a	n/a	n/a	n/a
75063547	REC_WORD	wordpools/wasnorm_wordpool_less_exclusions.txt	LTP291	ltpFR	18	1	1	MAILBOX	857	n/a	0	n/a	n/a	n/a	n/a	n/a
75065327	REC_WORD	wordpools/wasnorm_wordpool_less_exclusions.txt	LTP291	ltpFR	18	1	1	SCROLL	1257	n/a	0	n/a	n/a	n/a	n/a	n/a
75066659	REC_WORD	wordpools/wasnorm_wordpool_less_exclusions.txt	LTP291	ltpFR	18	1	1	WATERFALL	1595	n/a	0	n/a	n/a	n/a	n/a	n/a
75067933	REC_WORD	wordpools/wasnorm_wordpool_less_exclusions.txt	LTP291	ltpFR	18	1	0	GENERAL	630	n/a	0	n/a	n/a	n/a	n/a	n/a
75069167	REC_WORD	wordpools/wasnorm_wordpool_less_exclusions.txt	LTP291	ltpFR	18	1	0	OTTER	986	n/a	0	n/a	n/a	n/a	n/a	n/a
75072369	REC_WORD	wordpools/wasnorm_wordpool_less_exclusions.txt	LTP291	ltpFR	18	1	0	POLICE	1098	n/a	1	n/a	n/a	n/a	n/a	n/a
75075059	REC_WORD	wordpools/wasnorm_wordpool_less_exclusions.txt	LTP291	ltpFR	18	1	0	COSTUME	383	n/a	1	n/a	n/a	n/a	n/a	n/a
75076214	REC_WORD	wordpools/wasnorm_wordpool_less_exclusions.txt	LTP291	ltpFR	18	1	1	LIPSTICK	829	n/a	0	n/a	n/a	n/a	n/a	n/a
75077746	REC_WORD	wordpools/wasnorm_wordpool_less_exclusions.txt	LTP291	ltpFR	18	1	0	POWDER	1117	n/a	0	n/a	n/a	n/a	n/a	n/a
75091537	REC_WORD	wordpools/wasnorm_wordpool_less_exclusions.txt	LTP291	ltpFR	18	1	1	WOMAN	1620	n/a	0	n/a	n/a	n/a	n/a	n/a
75131395	WORD	wordpools/wasnorm_wordpool_less_exclusions.txt	LTP291	ltpFR	18	2	1	GEM	629	n/a	2	1	0.412841796875	0.57763671875	lower	../fonts/zerothre.ttf
75132560	KEY_MSG	n/a	LTP291	ltpFR	18	2	n/a	n/a	n/a	n/a	n/a	n/a	n/a	n/a	n/a	n/a
75135489	WORD	wordpools/wasnorm_wordpool_less_exclusions.txt	LTP291	ltpFR	18	2	1	SOFA	1342	n/a	1	1	0.412841796875	0.57763671875	lower	../fonts/zerothre.ttf
75139516	WORD	wordpools/wasnorm_wordpool_less_exclusions.txt	LTP291	ltpFR	18	2	1	AUTHOR	61	n/a	1	1	0.412841796875	0.57763671875	lower	../fonts/zerothre.ttf
75143377	WORD	wordpools/wasnorm_wordpool_less_exclusions.txt	LTP291	ltpFR	18	2	1	FACE	547	n/a	0	1	0.412841796875	0.57763671875	lower	../fonts/zerothre.ttf
75147222	WORD	wordpools/wasnorm_wordpool_less_exclusions.txt	LTP291	ltpFR	18	2	0	DASHBOARD	441	n/a	0	0	0.5869140625	0.422607421875	upper	../fonts/amplitud.ttf
75151182	WORD	wordpools/wasnorm_wordpool_less_exclusions.txt	LTP291	ltpFR	18	2	0	LIMOUSINE	824	n/a	0	0	0.5869140625	0.422607421875	upper	../fonts/amplitud.ttf
75155011	WORD	wordpools/wasnorm_wordpool_less_exclusions.txt	LTP291	ltpFR	18	2	0	OPERATOR	979	n/a	0	0	0.5869140625	0.422607421875	upper	../fonts/amplitud.ttf
75159055	WORD	wordpools/wasnorm_wordpool_less_exclusions.txt	LTP291	ltpFR	18	2	0	CAULIFLOWER	262	n/a	0	0	0.5869140625	0.422607421875	upper	../fonts/amplitud.ttf
75163214	WORD	wordpools/wasnorm_wordpool_less_exclusions.txt	LTP291	ltpFR	18	2	1	EMPLOYER	532	n/a	0	1	0.412841796875	0.57763671875	lower	../fonts/zerothre.ttf
75167142	WORD	wordpools/wasnorm_wordpool_less_exclusions.txt	LTP291	ltpFR	18	2	1	MASCARA	875	n/a	0	1	0.412841796875	0.57763671875	lower	../fonts/zerothre.ttf
75171186	WORD	wordpools/wasnorm_wordpool_less_exclusions.txt	LTP291	ltpFR	18	2	1	PLATE	1086	n/a	0	1	0.412841796875	0.57763671875	lower	../fonts/zerothre.ttf
75175081	WORD	wordpools/wasnorm_wordpool_less_exclusions.txt	LTP291	ltpFR	18	2	1	SAUCER	1237	n/a	0	1	0.412841796875	0.57763671875	lower	../fonts/zerothre.ttf
75178942	WORD	wordpools/wasnorm_wordpool_less_exclusions.txt	LTP291	ltpFR	18	2	0	SNORKEL	1336	n/a	0	0	0.5869140625	0.422607421875	upper	../fonts/amplitud.ttf
75182868	WORD	wordpools/wasnorm_wordpool_less_exclusions.txt	LTP291	ltpFR	18	2	0	PORPOISE	1109	n/a	0	0	0.5869140625	0.422607421875	upper	../fonts/amplitud.ttf
75186763	WORD	wordpools/wasnorm_wordpool_less_exclusions.txt	LTP291	ltpFR	18	2	0	CORD	379	n/a	0	0	0.5869140625	0.422607421875	upper	../fonts/amplitud.ttf
75190590	WORD	wordpools/wasnorm_wordpool_less_exclusions.txt	LTP291	ltpFR	18	2	0	HARE	688	n/a	0	0	0.5869140625	0.422607421875	upper	../fonts/amplitud.ttf
75196249	REC_START	n/a	LTP291	ltpFR	18	2	n/a	n/a	n/a	n/a	n/a	n/a	n/a	n/a	n/a	n/a
75196987	REC_WORD	wordpools/wasnorm_wordpool_less_exclusions.txt	LTP291	ltpFR	18	2	0	HARE	688	n/a	0	n/a	n/a	n/a	n/a	n/a
75197851	REC_WORD	wordpools/wasnorm_wordpool_less_exclusions.txt	LTP291	ltpFR	18	2	0	CORD	379	n/a	0	n/a	n/a	n/a	n/a	n/a
75201434	REC_WORD	wordpools/wasnorm_wordpool_less_exclusions.txt	LTP291	ltpFR	18	2	1	AUTHOR	61	n/a	1	n/a	n/a	n/a	n/a	n/a
75202314	REC_WORD	wordpools/wasnorm_wordpool_less_exclusions.txt	LTP291	ltpFR	18	2	1	FACE	547	n/a	0	n/a	n/a	n/a	n/a	n/a
75205249	REC_WORD	wordpools/wasnorm_wordpool_less_exclusions.txt	LTP291	ltpFR	18	2	0	LIMOUSINE	824	n/a	0	n/a	n/a	n/a	n/a	n/a
75206372	REC_WORD	wordpools/wasnorm_wordpool_less_exclusions.txt	LTP291	ltpFR	18	2	0	DASHBOARD	441	n/a	0	n/a	n/a	n/a	n/a	n/a
75236616	REC_WORD	wordpools/wasnorm_wordpool_less_exclusions.txt	LTP291	ltpFR	18	2	1	GEM	629	n/a	2	n/a	n/a	n/a	n/a	n/a
75255510	REC_WORD	wordpools/wasnorm_wordpool_less_exclusions.txt	LTP291	ltpFR	18	2	0	OPERATOR	979	n/a	0	n/a	n/a	n/a	n/a	n/a
75273566	WORD	wordpools/wasnorm_wordpool_less_exclusions.txt	LTP291	ltpFR	18	3	1	PIT	1077	n/a	2	1	0.412841796875	0.57763671875	lower	../fonts/zerothre.ttf
75274531	KEY_MSG	n/a	LTP291	ltpFR	18	3	n/a	n/a	n/a	n/a	n/a	n/a	n/a	n/a	n/a	n/a
75277660	WORD	wordpools/wasnorm_wordpool_less_exclusions.txt	LTP291	ltpFR	18	3	1	DWARF	510	n/a	1	1	0.412841796875	0.57763671875	lower	../fonts/zerothre.ttf
75281787	WORD	wordpools/wasnorm_wordpool_less_exclusions.txt	LTP291	ltpFR	18	3	1	QUAIL	1147	n/a	0	1	0.412841796875	0.57763671875	lower	../fonts/zerothre.ttf
75285949	WORD	wordpools/wasnorm_wordpool_less_exclusions.txt	LTP291	ltpFR	18	3	1	LUNCH	849	n/a	0	1	0.412841796875	0.57763671875	lower	../fonts/zerothre.ttf
75289892	WORD	wordpools/wasnorm_wordpool_less_exclusions.txt	LTP291	ltpFR	18	3	1	VILLAGE	1566	n/a	1	1	0.412841796875	0.57763671875	lower	../fonts/zerothre.ttf
75293853	WORD	wordpools/wasnorm_wordpool_less_exclusions.txt	LTP291	ltpFR	18	3	1	COUNTY	389	n/a	0	1	0.412841796875	0.57763671875	lower	../fonts/zerothre.ttf
75297747	WORD	wordpools/wasnorm_wordpool_less_exclusions.txt	LTP291	ltpFR	18	3	1	CHIPMUNK	304	n/a	1	1	0.412841796875	0.57763671875	lower	../fonts/zerothre.ttf
75301608	WORD	wordpools/wasnorm_wordpool_less_exclusions.txt	LTP291	ltpFR	18	3	1	ANIMAL	23	n/a	1	1	0.412841796875	0.57763671875	lower	../fonts/zerothre.ttf
75305535	WORD	wordpools/wasnorm_wordpool_less_exclusions.txt	LTP291	ltpFR	18	3	1	CAFETERIA	217	n/a	0	1	0.412841796875	0.57763671875	lower	../fonts/zerothre.ttf
75309562	WORD	wordpools/wasnorm_wordpool_less_exclusions.txt	LTP291	ltpFR	18	3	1	RUG	1215	n/a	0	1	0.412841796875	0.57763671875	lower	../fonts/zerothre.ttf
75313440	WORD	wordpools/wasnorm_wordpool_less_exclusions.txt	LTP291	ltpFR	18	3	1	BUILDING	191	n/a	0	1	0.412841796875	0.57763671875	lower	../fonts/zerothre.ttf
75317534	WORD	wordpools/wasnorm_wordpool_less_exclusions.txt	LTP291	ltpFR	18	3	1	DIGGER	464	n/a	0	1	0.412841796875	0.57763671875	lower	../fonts/zerothre.ttf
75321478	WORD	wordpools/wasnorm_wordpool_less_exclusions.txt	LTP291	ltpFR	18	3	1	RESTAURANT	1187	n/a	0	1	0.412841796875	0.57763671875	lower	../fonts/zerothre.ttf
75325622	WORD	wordpools/wasnorm_wordpool_less_exclusions.txt	LTP291	ltpFR	18	3	1	CUSHION	428	n/a	0	1	0.412841796875	0.57763671875	lower	../fonts/zerothre.ttf
75329716	WORD	wordpools/wasnorm_wordpool_less_exclusions.txt	LTP291	ltpFR	18	3	1	CELLAR	267	n/a	0	1	0.412841796875	0.57763671875	lower	../fonts/zerothre.ttf
75333560	WORD	wordpools/wasnorm_wordpool_less_exclusions.txt	LTP291	ltpFR	18	3	1	PASSAGE	1019	n/a	0	1	0.412841796875	0.57763671875	lower	../fonts/zerothre.ttf
75339418	REC_START	n/a	LTP291	ltpFR	18	3	n/a	n/a	n/a	n/a	n/a	n/a	n/a	n/a	n/a	n/a
75339899	REC_WORD	wordpools/wasnorm_wordpool_less_exclusions.txt	LTP291	ltpFR	18	3	1	CELLAR	267	n/a	0	n/a	n/a	n/a	n/a	n/a
75341113	REC_WORD	wordpools/wasnorm_wordpool_less_exclusions.txt	LTP291	ltpFR	18	3	1	PASSAGE	1019	n/a	0	n/a	n/a	n/a	n/a	n/a
75345696	REC_WORD	wordpools/wasnorm_wordpool_less_exclusions.txt	LTP291	ltpFR	18	3	1	RESTAURANT	1187	n/a	0	n/a	n/a	n/a	n/a	n/a
75348443	REC_WORD	wordpools/wasnorm_wordpool_less_exclusions.txt	LTP291	ltpFR	18	3	1	CUSHION	428	n/a	0	n/a	n/a	n/a	n/a	n/a
75349798	REC_WORD	wordpools/wasnorm_wordpool_less_exclusions.txt	LTP291	ltpFR	18	3	1	RUG	1215	n/a	0	n/a	n/a	n/a	n/a	n/a
75355796	REC_WORD	wordpools/wasnorm_wordpool_less_exclusions.txt	LTP291	ltpFR	18	3	1	CAFETERIA	217	n/a	0	n/a	n/a	n/a	n/a	n/a
75357319	REC_WORD	wordpools/wasnorm_wordpool_less_exclusions.txt	LTP291	ltpFR	18	3	1	BUILDING	191	n/a	0	n/a	n/a	n/a	n/a	n/a
75361450	REC_WORD	wordpools/wasnorm_wordpool_less_exclusions.txt	LTP291	ltpFR	18	3	1	DWARF	510	n/a	1	n/a	n/a	n/a	n/a	n/a
75362487	REC_WORD	wordpools/wasnorm_wordpool_less_exclusions.txt	LTP291	ltpFR	18	3	1	CHIPMUNK	304	n/a	1	n/a	n/a	n/a	n/a	n/a
75363835	REC_WORD	wordpools/wasnorm_wordpool_less_exclusions.txt	LTP291	ltpFR	18	3	1	QUAIL	1147	n/a	0	n/a	n/a	n/a	n/a	n/a
75366202	REC_WORD	wordpools/wasnorm_wordpool_less_exclusions.txt	LTP291	ltpFR	18	3	1	LUNCH	849	n/a	0	n/a	n/a	n/a	n/a	n/a
75367929	REC_WORD	wordpools/wasnorm_wordpool_less_exclusions.txt	LTP291	ltpFR	18	3	1	DIGGER	464	n/a	0	n/a	n/a	n/a	n/a	n/a
75416636	WORD	wordpools/wasnorm_wordpool_less_exclusions.txt	LTP291	ltpFR	18	4	0	SALOON	1228	n/a	0	0	0.5869140625	0.422607421875	upper	../fonts/amplitud.ttf
75420763	WORD	wordpools/wasnorm_wordpool_less_exclusions.txt	LTP291	ltpFR	18	4	0	BANDANNA	80	n/a	0	0	0.5869140625	0.422607421875	upper	../fonts/amplitud.ttf
75424890	WORD	wordpools/wasnorm_wordpool_less_exclusions.txt	LTP291	ltpFR	18	4	0	CART	250	n/a	0	0	0.5869140625	0.422607421875	upper	../fonts/amplitud.ttf
75428751	WORD	wordpools/wasnorm_wordpool_less_exclusions.txt	LTP291	ltpFR	18	4	0	RADIO	1157	n/a	0	0	0.5869140625	0.422607421875	upper	../fonts/amplitud.ttf
75432929	WORD	wordpools/wasnorm_wordpool_less_exclusions.txt	LTP291	ltpFR	18	4	0	DIRECTOR	471	n/a	1	0	0.5869140625	0.422607421875	upper	../fonts/amplitud.ttf
75436940	WORD	wordpools/wasnorm_wordpool_less_exclusions.txt	LTP291	ltpFR	18	4	0	ROUGE	1213	n/a	0	0	0.5869140625	0.422607421875	upper	../fonts/amplitud.ttf
75441000	WORD	wordpools/wasnorm_wordpool_less_exclusions.txt	LTP291	ltpFR	18	4	0	CHICK	296	n/a	1	0	0.5869140625	0.422607421875	upper	../fonts/amplitud.ttf
75444944	WORD	wordpools/wasnorm_wordpool_less_exclusions.txt	LTP291	ltpFR	18	4	0	CANVAS	234	n/a	0	0	0.5869140625	0.422607421875	upper	../fonts/amplitud.ttf
75448988	WORD	wordpools/wasnorm_wordpool_less_exclusions.txt	LTP291	ltpFR	18	4	0	PROFESSIONAL	1130	n/a	1	0	0.5869140625	0.422607421875	upper	../fonts/amplitud.ttf
75453098	WORD	wordpools/wasnorm_wordpool_less_exclusions.txt	LTP291	ltpFR	18	4	0	COLT	349	n/a	1	0	0.5869140625	0.422607421875	upper	../fonts/amplitud.ttf
75457026	WORD	wordpools/wasnorm_wordpool_less_exclusions.txt	LTP291	ltpFR	18	4	0	PAINTING	1005	n/a	1	0	0.5869140625	0.422607421875	upper	../fonts/amplitud.ttf
75461236	WORD	wordpools/wasnorm_wordpool_less_exclusions.txt	LTP291	ltpFR	18	4	0	TURNIP	1521	n/a	0	0	0.5869140625	0.422607421875	upper	../fonts/amplitud.ttf
75465280	WORD	wordpools/wasnorm_wordpool_less_exclusions.txt	LTP291	ltpFR	18	4	0	CABBAGE	210	n/a	0	0	0.5869140625	0.422607421875	upper	../fonts/amplitud.ttf
75469340	WORD	wordpools/wasnorm_wordpool_less_exclusions.txt	LTP291	ltpFR	18	4	0	CIGAR	308	n/a	0	0	0.5869140625	0.422607421875	upper	../fonts/amplitud.ttf
75473168	WORD	wordpools/wasnorm_wordpool_less_exclusions.txt	LTP291	ltpFR	18	4	0	CIGARETTE	309	n/a	0	0	0.5869140625	0.422607421875	upper	../fonts/amplitud.ttf
75477179	WORD	wordpools/wasnorm_wordpool_less_exclusions.txt	LTP291	ltpFR	18	4	0	TEACHER	1440	n/a	0	0	0.5869140625	0.422607421875	upper	../fonts/amplitud.ttf
75483204	REC_START	n/a	LTP291	ltpFR	18	4	n/a	n/a	n/a	n/a	n/a	n/a	n/a	n/a	n/a	n/a
75483655	REC_WORD	wordpools/wasnorm_wordpool_less_exclusions.txt	LTP291	ltpFR	18	4	0	TEACHER	1440	n/a	0	n/a	n/a	n/a	n/a	n/a
75484907	REC_WORD	wordpools/wasnorm_wordpool_less_exclusions.txt	LTP291	ltpFR	18	4	0	CIGAR	308	n/a	0	n/a	n/a	n/a	n/a	n/a
75486007	REC_WORD	wordpools/wasnorm_wordpool_less_exclusions.txt	LTP291	ltpFR	18	4	0	CIGARETTE	309	n/a	0	n/a	n/a	n/a	n/a	n/a
75487701	REC_WORD	wordpools/wasnorm_wordpool_less_exclusions.txt	LTP291	ltpFR	18	4	0	CHICK	296	n/a	1	n/a	n/a	n/a	n/a	n/a
75488694	REC_WORD	wordpools/wasnorm_wordpool_less_exclusions.txt	LTP291	ltpFR	18	4	0	ROUGE	1213	n/a	0	n/a	n/a	n/a	n/a	n/a
75493019	REC_WORD	wordpools/wasnorm_wordpool_less_exclusions.txt	LTP291	ltpFR	18	4	0	PAINTING	1005	n/a	1	n/a	n/a	n/a	n/a	n/a
75494085	REC_WORD	wordpools/wasnorm_wordpool_less_exclusions.txt	LTP291	ltpFR	18	4	0	CANVAS	234	n/a	0	n/a	n/a	n/a	n/a	n/a
75495414	REC_WORD	wordpools/wasnorm_wordpool_less_exclusions.txt	LTP291	ltpFR	18	4	0	TURNIP	1521	n/a	0	n/a	n/a	n/a	n/a	n/a
75496597	REC_WORD	wordpools/wasnorm_wordpool_less_exclusions.txt	LTP291	ltpFR	18	4	0	CABBAGE	210	n/a	0	n/a	n/a	n/a	n/a	n/a
75498346	REC_WORD	wordpools/wasnorm_wordpool_less_exclusions.txt	LTP291	ltpFR	18	4	0	CART	250	n/a	0	n/a	n/a	n/a	n/a	n/a
75499702	REC_WORD	wordpools/wasnorm_wordpool_less_exclusions.txt	LTP291	ltpFR	18	4	0	RADIO	1157	n/a	0	n/a	n/a	n/a	n/a	n/a
75500991	REC_WORD	wordpools/wasnorm_wordpool_less_exclusions.txt	LTP291	ltpFR	18	4	0	SALOON	1228	n/a	0	n/a	n/a	n/a	n/a	n/a
75504533	REC_WORD	wordpools/wasnorm_wordpool_less_exclusions.txt	LTP291	ltpFR	18	4	0	DIRECTOR	471	n/a	1	n/a	n/a	n/a	n/a	n/a
75509554	REC_WORD	wordpools/wasnorm_wordpool_less_exclusions.txt	LTP291	ltpFR	18	4	0	BANDANNA	80	n/a	0	n/a	n/a	n/a	n/a	n/a
75560504	WORD	wordpools/wasnorm_wordpool_less_exclusions.txt	LTP291	ltpFR	18	5	1	EWE	542	n/a	0	1	0.412841796875	0.57763671875	lower	../fonts/zerothre.ttf
75564498	WORD	wordpools/wasnorm_wordpool_less_exclusions.txt	LTP291	ltpFR	18	5	1	SPIDER	1351	n/a	0	1	0.412841796875	0.57763671875	lower	../fonts/zerothre.ttf
75568426	WORD	wordpools/wasnorm_wordpool_less_exclusions.txt	LTP291	ltpFR	18	5	1	BANK	83	n/a	0	1	0.412841796875	0.57763671875	lower	../fonts/zerothre.ttf
75572453	WORD	wordpools/wasnorm_wordpool_less_exclusions.txt	LTP291	ltpFR	18	5	1	ENVELOPE	537	n/a	0	1	0.412841796875	0.57763671875	lower	../fonts/zerothre.ttf
75576281	WORD	wordpools/wasnorm_wordpool_less_exclusions.txt	LTP291	ltpFR	18	5	1	KITE	779	n/a	0	1	0.412841796875	0.57763671875	lower	../fonts/zerothre.ttf
75580191	WORD	wordpools/wasnorm_wordpool_less_exclusions.txt	LTP291	ltpFR	18	5	1	NICKEL	950	n/a	0	1	0.412841796875	0.57763671875	lower	../fonts/zerothre.ttf
75584102	WORD	wordpools/wasnorm_wordpool_less_exclusions.txt	LTP291	ltpFR	18	5	1	ROOSTER	1209	n/a	1	1	0.412841796875	0.57763671875	lower	../fonts/zerothre.ttf
75588263	WORD	wordpools/wasnorm_wordpool_less_exclusions.txt	LTP291	ltpFR	18	5	1	SPINACH	1352	n/a	0	1	0.412841796875	0.57763671875	lower	../fonts/zerothre.ttf
75592390	WORD	wordpools/wasnorm_wordpool_less_exclusions.txt	LTP291	ltpFR	18	5	1	BUSH	202	n/a	0	1	0.412841796875	0.57763671875	lower	../fonts/zerothre.ttf
75596534	WORD	wordpools/wasnorm_wordpool_less_exclusions.txt	LTP291	ltpFR	18	5	1	TRAY	1498	n/a	0	1	0.412841796875	0.57763671875	lower	../fonts/zerothre.ttf
75600677	WORD	wordpools/wasnorm_wordpool_less_exclusions.txt	LTP291	ltpFR	18	5	1	ESSAY	540	n/a	0	1	0.412841796875	0.57763671875	lower	../fonts/zerothre.ttf
75604572	WORD	wordpools/wasnorm_wordpool_less_exclusions.txt	LTP291	ltpFR	18	5	1	WATER	1594	n/a	0	1	0.412841796875	0.57763671875	lower	../fonts/zerothre.ttf
75608566	WORD	wordpools/wasnorm_wordpool_less_exclusions.txt	LTP291	ltpFR	18	5	1	BUCKET	184	n/a	0	1	0.412841796875	0.57763671875	lower	../fonts/zerothre.ttf
75612443	WORD	wordpools/wasnorm_wordpool_less_exclusions.txt	LTP291	ltpFR	18	5	1	DRIVER	499	n/a	0	1	0.412841796875	0.57763671875	lower	../fonts/zerothre.ttf
75616321	WORD	wordpools/wasnorm_wordpool_less_exclusions.txt	LTP291	ltpFR	18	5	1	COMMITTEE	355	n/a	1	1	0.412841796875	0.57763671875	lower	../fonts/zerothre.ttf
75620331	WORD	wordpools/wasnorm_wordpool_less_exclusions.txt	LTP291	ltpFR	18	5	1	PERSONNEL	1053	n/a	1	1	0.412841796875	0.57763671875	lower	../fonts/zerothre.ttf
75626223	REC_START	n/a	LTP291	ltpFR	18	5	n/a	n/a	n/a	n/a	n/a	n/a	n/a	n/a	n/a	n/a
75626993	REC_WORD	wordpools/wasnorm_wordpool_less_exclusions.txt	LTP291	ltpFR	18	5	1	COMMITTEE	355	n/a	1	n/a	n/a	n/a	n/a	n/a
75628001	REC_WORD	wordpools/wasnorm_wordpool_less_exclusions.txt	LTP291	ltpFR	18	5	1	PERSONNEL	1053	n/a	1	n/a	n/a	n/a	n/a	n/a
75629403	REC_WORD	wordpools/wasnorm_wordpool_less_exclusions.txt	LTP291	ltpFR	18	5	1	DRIVER	499	n/a	0	n/a	n/a	n/a	n/a	n/a
75631721	REC_WORD	wordpools/wasnorm_wordpool_less_exclusions.txt	LTP291	ltpFR	18	5	1	SPIDER	1351	n/a	0	n/a	n/a	n/a	n/a	n/a
75633574	REC_WORD	wordpools/wasnorm_wordpool_less_exclusions.txt	LTP291	ltpFR	18	5	1	BANK	83	n/a	0	n/a	n/a	n/a	n/a	n/a
75636255	REC_WORD	wordpools/wasnorm_wordpool_less_exclusions.txt	LTP291	ltpFR	18	5	1	ENVELOPE	537	n/a	0	n/a	n/a	n/a	n/a	n/a
75637734	REC_WORD	wordpools/wasnorm_wordpool_less_exclusions.txt	LTP291	ltpFR	18	5	1	KITE	779	n/a	0	n/a	n/a	n/a	n/a	n/a
75639438	REC_WORD	wordpools/wasnorm_wordpool_less_exclusions.txt	LTP291	ltpFR	18	5	1	NICKEL	950	n/a	0	n/a	n/a	n/a	n/a	n/a
75640853	REC_WORD	wordpools/wasnorm_wordpool_less_exclusions.txt	LTP291	ltpFR	18	5	1	ESSAY	540	n/a	0	n/a	n/a	n/a	n/a	n/a
75645814	REC_WORD	wordpools/wasnorm_wordpool_less_exclusions.txt	LTP291	ltpFR	18	5	1	ROOSTER	1209	n/a	1	n/a	n/a	n/a	n/a	n/a
75649446	REC_WORD	wordpools/wasnorm_wordpool_less_exclusions.txt	LTP291	ltpFR	18	5	1	TRAY	1498	n/a	0	n/a	n/a	n/a	n/a	n/a
75650794	REC_WORD	wordpools/wasnorm_wordpool_less_exclusions.txt	LTP291	ltpFR	18	5	1	SPINACH	1352	n/a	0	n/a	n/a	n/a	n/a	n/a
75652470	REC_WORD	wordpools/wasnorm_wordpool_less_exclusions.txt	LTP291	ltpFR	18	5	1	BUCKET	184	n/a	0	n/a	n/a	n/a	n/a	n/a
75654346	REC_WORD	wordpools/wasnorm_wordpool_less_exclusions.txt	LTP291	ltpFR	18	5	1	WATER	1594	n/a	0	n/a	n/a	n/a	n/a	n/a
75658005	REC_WORD	wordpools/wasnorm_wordpool_less_exclusions.txt	LTP291	ltpFR	18	5	1	BUSH	202	n/a	0	n/a	n/a	n/a	n/a	n/a
75703707	WORD	wordpools/wasnorm_wordpool_less_exclusions.txt	LTP291	ltpFR	18	6	0	WHIP	1604	n/a	0	0	0.5869140625	0.422607421875	upper	../fonts/amplitud.ttf
75707717	WORD	wordpools/wasnorm_wordpool_less_exclusions.txt	LTP291	ltpFR	18	6	0	FOREST	593	n/a	0	0	0.5869140625	0.422607421875	upper	../fonts/amplitud.ttf
75711662	WORD	wordpools/wasnorm_wordpool_less_exclusions.txt	LTP291	ltpFR	18	6	1	CATCHER	258	n/a	1	1	0.412841796875	0.57763671875	lower	../fonts/zerothre.ttf
75715606	WORD	wordpools/wasnorm_wordpool_less_exclusions.txt	LTP291	ltpFR	18	6	1	TOURIST	1488	n/a	1	1	0.412841796875	0.57763671875	lower	../fonts/zerothre.ttf
75719483	WORD	wordpools/wasnorm_wordpool_less_exclusions.txt	LTP291	ltpFR	18	6	1	BEVERAGE	123	n/a	0	1	0.412841796875	0.57763671875	lower	../fonts/zerothre.ttf
75723677	WORD	wordpools/wasnorm_wordpool_less_exclusions.txt	LTP291	ltpFR	18	6	0	OUTDOORS	987	n/a	0	0	0.5869140625	0.422607421875	upper	../fonts/amplitud.ttf
75727604	WORD	wordpools/wasnorm_wordpool_less_exclusions.txt	LTP291	ltpFR	18	6	0	ANTEATER	26	n/a	0	0	0.5869140625	0.422607421875	upper	../fonts/amplitud.ttf
75731515	WORD	wordpools/wasnorm_wordpool_less_exclusions.txt	LTP291	ltpFR	18	6	0	COCOON	339	n/a	1	0	0.5869140625	0.422607421875	upper	../fonts/amplitud.ttf
75735509	WORD	wordpools/wasnorm_wordpool_less_exclusions.txt	LTP291	ltpFR	18	6	0	PLANT	1083	n/a	0	0	0.5869140625	0.422607421875	upper	../fonts/amplitud.ttf
75739437	WORD	wordpools/wasnorm_wordpool_less_exclusions.txt	LTP291	ltpFR	18	6	0	LIZARD	834	n/a	1	0	0.5869140625	0.422607421875	upper	../fonts/amplitud.ttf
75743631	WORD	wordpools/wasnorm_wordpool_less_exclusions.txt	LTP291	ltpFR	18	6	0	BRANDY	169	n/a	0	0	0.5869140625	0.422607421875	upper	../fonts/amplitud.ttf
75747491	WORD	wordpools/wasnorm_wordpool_less_exclusions.txt	LTP291	ltpFR	18	6	1	VEIN	1554	n/a	0	1	0.412841796875	0.57763671875	lower	../fonts/zerothre.ttf
75751436	WORD	wordpools/wasnorm_wordpool_less_exclusions.txt	LTP291	ltpFR	18	6	1	LOG	841	n/a	0	1	0.412841796875	0.57763671875	lower	../fonts/zerothre.ttf
75755579	WORD	wordpools/wasnorm_wordpool_less_exclusions.txt	LTP291	ltpFR	18	6	1	DRAGON	492	n/a	0	1	0.412841796875	0.57763671875	lower	../fonts/zerothre.ttf
75759440	WORD	wordpools/wasnorm_wordpool_less_exclusions.txt	LTP291	ltpFR	18	6	1	CHAIN	273	n/a	0	1	0.412841796875	0.57763671875	lower	../fonts/zerothre.ttf
75763268	WORD	wordpools/wasnorm_wordpool_less_exclusions.txt	LTP291	ltpFR	18	6	1	RIB	1188	n/a	0	1	0.412841796875	0.57763671875	lower	../fonts/zerothre.ttf
75769028	REC_START	n/a	LTP291	ltpFR	18	6	n/a	n/a	n/a	n/a	n/a	n/a	n/a	n/a	n/a	n/a
75769453	REC_WORD	wordpools/wasnorm_wordpool_less_exclusions.txt	LTP291	ltpFR	18	6	1	RIB	1188	n/a	0	n/a	n/a	n/a	n/a	n/a
75770357	REC_WORD	wordpools/wasnorm_wordpool_less_exclusions.txt	LTP291	ltpFR	18	6	1	DRAGON	492	n/a	0	n/a	n/a	n/a	n/a	n/a
75771384	REC_WORD	wordpools/wasnorm_wordpool_less_exclusions.txt	LTP291	ltpFR	18	6	1	VEIN	1554	n/a	0	n/a	n/a	n/a	n/a	n/a
75772686	REC_WORD	wordpools/wasnorm_wordpool_less_exclusions.txt	LTP291	ltpFR	18	6	1	CHAIN	273	n/a	0	n/a	n/a	n/a	n/a	n/a
75785696	REC_WORD	wordpools/wasnorm_wordpool_less_exclusions.txt	LTP291	ltpFR	18	6	1	BEVERAGE	123	n/a	0	n/a	n/a	n/a	n/a	n/a
75786840	REC_WORD	wordpools/wasnorm_wordpool_less_exclusions.txt	LTP291	ltpFR	18	6	0	BRANDY	169	n/a	0	n/a	n/a	n/a	n/a	n/a
75791643	REC_WORD	wordpools/wasnorm_wordpool_less_exclusions.txt	LTP291	ltpFR	18	6	0	WHIP	1604	n/a	0	n/a	n/a	n/a	n/a	n/a
75794698	REC_WORD	wordpools/wasnorm_wordpool_less_exclusions.txt	LTP291	ltpFR	18	6	0	OUTDOORS	987	n/a	0	n/a	n/a	n/a	n/a	n/a
75816752	REC_WORD	wordpools/wasnorm_wordpool_less_exclusions.txt	LTP291	ltpFR	18	6	0	FOREST	593	n/a	0	n/a	n/a	n/a	n/a	n/a
75826525	REC_WORD	wordpools/wasnorm_wordpool_less_exclusions.txt	LTP291	ltpFR	18	6	1	TOURIST	1488	n/a	1	n/a	n/a	n/a	n/a	n/a
75846560	WORD	wordpools/wasnorm_wordpool_less_exclusions.txt	LTP291	ltpFR	18	7	0	VINEGAR	1569	n/a	0	0	0.5869140625	0.422607421875	upper	../fonts/amplitud.ttf
75850637	WORD	wordpools/wasnorm_wordpool_less_exclusions.txt	LTP291	ltpFR	18	7	0	CAR	241	n/a	0	0	0.5869140625	0.422607421875	upper	../fonts/amplitud.ttf
75854814	WORD	wordpools/wasnorm_wordpool_less_exclusions.txt	LTP291	ltpFR	18	7	0	TWINE	1529	n/a	0	0	0.5869140625	0.422607421875	upper	../fonts/amplitud.ttf
75858976	WORD	wordpools/wasnorm_wordpool_less_exclusions.txt	LTP291	ltpFR	18	7	0	SIGNATURE	1306	n/a	0	0	0.5869140625	0.422607421875	upper	../fonts/amplitud.ttf
75863202	WORD	wordpools/wasnorm_wordpool_less_exclusions.txt	LTP291	ltpFR	18	7	0	CONTRACT	368	n/a	0	0	0.5869140625	0.422607421875	upper	../fonts/amplitud.ttf
75867412	WORD	wordpools/wasnorm_wordpool_less_exclusions.txt	LTP291	ltpFR	18	7	0	SERVER	1272	n/a	0	0	0.5869140625	0.422607421875	upper	../fonts/amplitud.ttf
75871589	WORD	wordpools/wasnorm_wordpool_less_exclusions.txt	LTP291	ltpFR	18	7	0	WAITRESS	1581	n/a	1	0	0.5869140625	0.422607421875	upper	../fonts/amplitud.ttf
75875633	WORD	wordpools/wasnorm_wordpool_less_exclusions.txt	LTP291	ltpFR	18	7	0	STEREO	1378	n/a	1	0	0.5869140625	0.422607421875	upper	../fonts/amplitud.ttf
75879794	WORD	wordpools/wasnorm_wordpool_less_exclusions.txt	LTP291	ltpFR	18	7	0	CONDUCTOR	362	n/a	1	0	0.5869140625	0.422607421875	upper	../fonts/amplitud.ttf
75883905	WORD	wordpools/wasnorm_wordpool_less_exclusions.txt	LTP291	ltpFR	18	7	0	JOINT	758	n/a	1	0	0.5869140625	0.422607421875	upper	../fonts/amplitud.ttf
75888082	WORD	wordpools/wasnorm_wordpool_less_exclusions.txt	LTP291	ltpFR	18	7	0	RIBBON	1189	n/a	0	0	0.5869140625	0.422607421875	upper	../fonts/amplitud.ttf
75892043	WORD	wordpools/wasnorm_wordpool_less_exclusions.txt	LTP291	ltpFR	18	7	0	BEER	114	n/a	0	0	0.5869140625	0.422607421875	upper	../fonts/amplitud.ttf
75896252	WORD	wordpools/wasnorm_wordpool_less_exclusions.txt	LTP291	ltpFR	18	7	0	GARAGE	621	n/a	0	0	0.5869140625	0.422607421875	upper	../fonts/amplitud.ttf
75900313	WORD	wordpools/wasnorm_wordpool_less_exclusions.txt	LTP291	ltpFR	18	7	0	REINDEER	1181	n/a	1	0	0.5869140625	0.422607421875	upper	../fonts/amplitud.ttf
75904290	WORD	wordpools/wasnorm_wordpool_less_exclusions.txt	LTP291	ltpFR	18	7	0	KEEPER	769	n/a	1	0	0.5869140625	0.422607421875	upper	../fonts/amplitud.ttf
75908135	WORD	wordpools/wasnorm_wordpool_less_exclusions.txt	LTP291	ltpFR	18	7	0	SLACKS	1323	n/a	0	0	0.5869140625	0.422607421875	upper	../fonts/amplitud.ttf
75913977	REC_START	n/a	LTP291	ltpFR	18	7	n/a	n/a	n/a	n/a	n/a	n/a	n/a	n/a	n/a	n/a
75914381	REC_WORD	wordpools/wasnorm_wordpool_less_exclusions.txt	LTP291	ltpFR	18	7	0	GARAGE	621	n/a	0	n/a	n/a	n/a	n/a	n/a
75915555	REC_WORD	wordpools/wasnorm_wordpool_less_exclusions.txt	LTP291	ltpFR	18	7	0	REINDEER	1181	n/a	1	n/a	n/a	n/a	n/a	n/a
75916657	REC_WORD	wordpools/wasnorm_wordpool_less_exclusions.txt	LTP291	ltpFR	18	7	0	SLACKS	1323	n/a	0	n/a	n/a	n/a	n/a	n/a
75917951	REC_WORD	wordpools/wasnorm_wordpool_less_exclusions.txt	LTP291	ltpFR	18	7	0	KEEPER	769	n/a	1	n/a	n/a	n/a	n/a	n/a
75921662	REC_WORD	wordpools/wasnorm_wordpool_less_exclusions.txt	LTP291	ltpFR	18	7	0	SERVER	1272	n/a	0	n/a	n/a	n/a	n/a	n/a
75923171	REC_WORD	wordpools/wasnorm_wordpool_less_exclusions.txt	LTP291	ltpFR	18	7	0	WAITRESS	1581	n/a	1	n/a	n/a	n/a	n/a	n/a
75924830	REC_WORD	wordpools/wasnorm_wordpool_less_exclusions.txt	LTP291	ltpFR	18	7	0	CONDUCTOR	362	n/a	1	n/a	n/a	n/a	n/a	n/a
75928553	REC_WORD	wordpools/wasnorm_wordpool_less_exclusions.txt	LTP291	ltpFR	18	7	0	BEER	114	n/a	0	n/a	n/a	n/a	n/a	n/a
75930296	REC_WORD	wordpools/wasnorm_wordpool_less_exclusions.txt	LTP291	ltpFR	18	7	0	JOINT	758	n/a	1	n/a	n/a	n/a	n/a	n/a
75931560	REC_WORD	wordpools/wasnorm_wordpool_less_exclusions.txt	LTP291	ltpFR	18	7	0	STEREO	1378	n/a	1	n/a	n/a	n/a	n/a	n/a
75934011	REC_WORD	wordpools/wasnorm_wordpool_less_exclusions.txt	LTP291	ltpFR	18	7	0	GARAGE	621	n/a	0	n/a	n/a	n/a	n/a	n/a
75940626	REC_WORD	wordpools/wasnorm_wordpool_less_exclusions.txt	LTP291	ltpFR	18	7	0	SIGNATURE	1306	n/a	0	n/a	n/a	n/a	n/a	n/a
75942177	REC_WORD	wordpools/wasnorm_wordpool_less_exclusions.txt	LTP291	ltpFR	18	7	0	CONTRACT	368	n/a	0	n/a	n/a	n/a	n/a	n/a
75945059	REC_WORD	wordpools/wasnorm_wordpool_less_exclusions.txt	LTP291	ltpFR	18	7	0	CAR	241	n/a	0	n/a	n/a	n/a	n/a	n/a
75948821	REC_WORD	wordpools/wasnorm_wordpool_less_exclusions.txt	LTP291	ltpFR	18	7	0	VINEGAR	1569	n/a	0	n/a	n/a	n/a	n/a	n/a
75993507	WORD	wordpools/wasnorm_wordpool_less_exclusions.txt	LTP291	ltpFR	18	8	-1	ELBOW	520	n/a	-1	1	1.0	1.0	upper	../fonts/Verdana.ttf
75997701	WORD	wordpools/wasnorm_wordpool_less_exclusions.txt	LTP291	ltpFR	18	8	-1	APPENDAGE	32	n/a	-1	1	1.0	1.0	upper	../fonts/Verdana.ttf
76001811	WORD	wordpools/wasnorm_wordpool_less_exclusions.txt	LTP291	ltpFR	18	8	-1	SIDING	1304	n/a	-1	1	1.0	1.0	upper	../fonts/Verdana.ttf
76005722	WORD	wordpools/wasnorm_wordpool_less_exclusions.txt	LTP291	ltpFR	18	8	-1	OWNER	993	n/a	-1	1	1.0	1.0	upper	../fonts/Verdana.ttf
76009567	WORD	wordpools/wasnorm_wordpool_less_exclusions.txt	LTP291	ltpFR	18	8	-1	HAMBURGER	679	n/a	-1	1	1.0	1.0	upper	../fonts/Verdana.ttf
76013744	WORD	wordpools/wasnorm_wordpool_less_exclusions.txt	LTP291	ltpFR	18	8	-1	DILL	465	n/a	-1	1	1.0	1.0	upper	../fonts/Verdana.ttf
76017604	WORD	wordpools/wasnorm_wordpool_less_exclusions.txt	LTP291	ltpFR	18	8	-1	TYPEWRITER	1531	n/a	-1	1	1.0	1.0	upper	../fonts/Verdana.ttf
76021682	WORD	wordpools/wasnorm_wordpool_less_exclusions.txt	LTP291	ltpFR	18	8	-1	SHIP	1286	n/a	-1	1	1.0	1.0	upper	../fonts/Verdana.ttf
76025859	WORD	wordpools/wasnorm_wordpool_less_exclusions.txt	LTP291	ltpFR	18	8	-1	ARTIST	43	n/a	-1	1	1.0	1.0	upper	../fonts/Verdana.ttf
76029954	WORD	wordpools/wasnorm_wordpool_less_exclusions.txt	LTP291	ltpFR	18	8	-1	PLUM	1090	n/a	-1	1	1.0	1.0	upper	../fonts/Verdana.ttf
76034048	WORD	wordpools/wasnorm_wordpool_less_exclusions.txt	LTP291	ltpFR	18	8	-1	FEATHER	557	n/a	-1	1	1.0	1.0	upper	../fonts/Verdana.ttf
76038207	WORD	wordpools/wasnorm_wordpool_less_exclusions.txt	LTP291	ltpFR	18	8	-1	SCENERY	1247	n/a	-1	1	1.0	1.0	upper	../fonts/Verdana.ttf
76042384	WORD	wordpools/wasnorm_wordpool_less_exclusions.txt	LTP291	ltpFR	18	8	-1	HUMAN	726	n/a	-1	1	1.0	1.0	upper	../fonts/Verdana.ttf
76046228	WORD	wordpools/wasnorm_wordpool_less_exclusions.txt	LTP291	ltpFR	18	8	-1	RING	1193	n/a	-1	1	1.0	1.0	upper	../fonts/Verdana.ttf
76050106	WORD	wordpools/wasnorm_wordpool_less_exclusions.txt	LTP291	ltpFR	18	8	-1	CLERK	321	n/a	-1	1	1.0	1.0	upper	../fonts/Verdana.ttf
76054300	WORD	wordpools/wasnorm_wordpool_less_exclusions.txt	LTP291	ltpFR	18	8	-1	BLUEBERRY	140	n/a	-1	1	1.0	1.0	upper	../fonts/Verdana.ttf
76060043	REC_START	n/a	LTP291	ltpFR	18	8	n/a	n/a	n/a	n/a	n/a	n/a	n/a	n/a	n/a	n/a
76060826	REC_WORD	wordpools/wasnorm_wordpool_less_exclusions.txt	LTP291	ltpFR	18	8	-1	HUMAN	726	n/a	-1	n/a	n/a	n/a	n/a	n/a
76061968	REC_WORD	wordpools/wasnorm_wordpool_less_exclusions.txt	LTP291	ltpFR	18	8	-1	RING	1193	n/a	-1	n/a	n/a	n/a	n/a	n/a
76063590	REC_WORD	wordpools/wasnorm_wordpool_less_exclusions.txt	LTP291	ltpFR	18	8	-1	CLERK	321	n/a	-1	n/a	n/a	n/a	n/a	n/a
76065137	REC_WORD	wordpools/wasnorm_wordpool_less_exclusions.txt	LTP291	ltpFR	18	8	-1	BLUEBERRY	140	n/a	-1	n/a	n/a	n/a	n/a	n/a
76066603	REC_WORD	wordpools/wasnorm_wordpool_less_exclusions.txt	LTP291	ltpFR	18	8	-1	SCENERY	1247	n/a	-1	n/a	n/a	n/a	n/a	n/a
76068443	REC_WORD	wordpools/wasnorm_wordpool_less_exclusions.txt	LTP291	ltpFR	18	8	-1	ARTIST	43	n/a	-1	n/a	n/a	n/a	n/a	n/a
76070137	REC_WORD	wordpools/wasnorm_wordpool_less_exclusions.txt	LTP291	ltpFR	18	8	-1	SHIP	1286	n/a	-1	n/a	n/a	n/a	n/a	n/a
76071736	REC_WORD	wordpools/wasnorm_wordpool_less_exclusions.txt	LTP291	ltpFR	18	8	-1	FEATHER	557	n/a	-1	n/a	n/a	n/a	n/a	n/a
76075135	REC_WORD	wordpools/wasnorm_wordpool_less_exclusions.txt	LTP291	ltpFR	18	8	-1	OWNER	993	n/a	-1	n/a	n/a	n/a	n/a	n/a
76077538	REC_WORD	wordpools/wasnorm_wordpool_less_exclusions.txt	LTP291	ltpFR	18	8	-1	TYPEWRITER	1531	n/a	-1	n/a	n/a	n/a	n/a	n/a
76083170	REC_WORD	wordpools/wasnorm_wordpool_less_exclusions.txt	LTP291	ltpFR	18	8	-1	ELBOW	520	n/a	-1	n/a	n/a	n/a	n/a	n/a
76084956	REC_WORD	wordpools/wasnorm_wordpool_less_exclusions.txt	LTP291	ltpFR	18	8	-1	APPENDAGE	32	n/a	-1	n/a	n/a	n/a	n/a	n/a
76087351	REC_WORD	wordpools/wasnorm_wordpool_less_exclusions.txt	LTP291	ltpFR	18	8	-1	HAMBURGER	679	n/a	-1	n/a	n/a	n/a	n/a	n/a
76089663	REC_WORD	wordpools/wasnorm_wordpool_less_exclusions.txt	LTP291	ltpFR	18	8	-1	DILL	465	n/a	-1	n/a	n/a	n/a	n/a	n/a
76091662	REC_WORD	wordpools/wasnorm_wordpool_less_exclusions.txt	LTP291	ltpFR	18	8	-1	PLUM	1090	n/a	-1	n/a	n/a	n/a	n/a	n/a
76100830	REC_WORD	wordpools/wasnorm_wordpool_less_exclusions.txt	LTP291	ltpFR	18	8	-1	SIDING	1304	n/a	-1	n/a	n/a	n/a	n/a	n/a
76135645	REST_REWET	n/a	LTP291	ltpFR	18	8	n/a	n/a	n/a	n/a	n/a	n/a	n/a	n/a	n/a	n/a
76525346	WORD	wordpools/wasnorm_wordpool_less_exclusions.txt	LTP291	ltpFR	18	9	1	CHERRY	293	n/a	0	1	0.412841796875	0.57763671875	lower	../fonts/zerothre.ttf
76529207	WORD	wordpools/wasnorm_wordpool_less_exclusions.txt	LTP291	ltpFR	18	9	1	GRATE	657	n/a	0	1	0.412841796875	0.57763671875	lower	../fonts/zerothre.ttf
76533184	WORD	wordpools/wasnorm_wordpool_less_exclusions.txt	LTP291	ltpFR	18	9	0	FOOTBALL	591	n/a	0	0	0.5869140625	0.422607421875	upper	../fonts/amplitud.ttf
76537029	WORD	wordpools/wasnorm_wordpool_less_exclusions.txt	LTP291	ltpFR	18	9	0	FIELD	562	n/a	0	0	0.5869140625	0.422607421875	upper	../fonts/amplitud.ttf
76540873	WORD	wordpools/wasnorm_wordpool_less_exclusions.txt	LTP291	ltpFR	18	9	0	UNCLE	1536	n/a	2	0	0.5869140625	0.422607421875	upper	../fonts/amplitud.ttf
76543004	KEY_MSG	n/a	LTP291	ltpFR	18	9	n/a	n/a	n/a	n/a	n/a	n/a	n/a	n/a	n/a	n/a
76545632	WORD	wordpools/wasnorm_wordpool_less_exclusions.txt	LTP291	ltpFR	18	9	0	CHARCOAL	281	n/a	1	0	0.5869140625	0.422607421875	upper	../fonts/amplitud.ttf
76549610	WORD	wordpools/wasnorm_wordpool_less_exclusions.txt	LTP291	ltpFR	18	9	1	SAUSAGE	1238	n/a	0	1	0.412841796875	0.57763671875	lower	../fonts/zerothre.ttf
76553587	WORD	wordpools/wasnorm_wordpool_less_exclusions.txt	LTP291	ltpFR	18	9	1	ZOO	1637	n/a	1	1	0.412841796875	0.57763671875	lower	../fonts/zerothre.ttf
76557548	WORD	wordpools/wasnorm_wordpool_less_exclusions.txt	LTP291	ltpFR	18	9	1	FARM	552	n/a	0	1	0.412841796875	0.57763671875	lower	../fonts/zerothre.ttf
76561658	WORD	wordpools/wasnorm_wordpool_less_exclusions.txt	LTP291	ltpFR	18	9	1	BROCCOLI	176	n/a	0	1	0.412841796875	0.57763671875	lower	../fonts/zerothre.ttf
76565819	WORD	wordpools/wasnorm_wordpool_less_exclusions.txt	LTP291	ltpFR	18	9	1	BASKETBALL	96	n/a	0	1	0.412841796875	0.57763671875	lower	../fonts/zerothre.ttf
76570014	WORD	wordpools/wasnorm_wordpool_less_exclusions.txt	LTP291	ltpFR	18	9	1	COACH	331	n/a	0	1	0.412841796875	0.57763671875	lower	../fonts/zerothre.ttf
76574041	WORD	wordpools/wasnorm_wordpool_less_exclusions.txt	LTP291	ltpFR	18	9	0	COBRA	336	n/a	0	0	0.5869140625	0.422607421875	upper	../fonts/amplitud.ttf
76578250	WORD	wordpools/wasnorm_wordpool_less_exclusions.txt	LTP291	ltpFR	18	9	0	REPTILE	1185	n/a	0	0	0.5869140625	0.422607421875	upper	../fonts/amplitud.ttf
76582377	WORD	wordpools/wasnorm_wordpool_less_exclusions.txt	LTP291	ltpFR	18	9	0	SUITE	1404	n/a	0	0	0.5869140625	0.422607421875	upper	../fonts/amplitud.ttf
76586488	WORD	wordpools/wasnorm_wordpool_less_exclusions.txt	LTP291	ltpFR	18	9	0	BANANA	77	n/a	0	0	0.5869140625	0.422607421875	upper	../fonts/amplitud.ttf
76592280	REC_START	n/a	LTP291	ltpFR	18	9	n/a	n/a	n/a	n/a	n/a	n/a	n/a	n/a	n/a	n/a
76592884	REC_WORD	wordpools/wasnorm_wordpool_less_exclusions.txt	LTP291	ltpFR	18	9	0	BANANA	77	n/a	0	n/a	n/a	n/a	n/a	n/a
76594080	REC_WORD	wordpools/wasnorm_wordpool_less_exclusions.txt	LTP291	ltpFR	18	9	0	COBRA	336	n/a	0	n/a	n/a	n/a	n/a	n/a
76595200	REC_WORD	wordpools/wasnorm_wordpool_less_exclusions.txt	LTP291	ltpFR	18	9	0	REPTILE	1185	n/a	0	n/a	n/a	n/a	n/a	n/a
76596821	REC_WORD	wordpools/wasnorm_wordpool_less_exclusions.txt	LTP291	ltpFR	18	9	0	SUITE	1404	n/a	0	n/a	n/a	n/a	n/a	n/a
76602470	REC_WORD	wordpools/wasnorm_wordpool_less_exclusions.txt	LTP291	ltpFR	18	9	0	FIELD	562	n/a	0	n/a	n/a	n/a	n/a	n/a
76603697	REC_WORD	wordpools/wasnorm_wordpool_less_exclusions.txt	LTP291	ltpFR	18	9	0	FOOTBALL	591	n/a	0	n/a	n/a	n/a	n/a	n/a
76606185	REC_WORD	wordpools/wasnorm_wordpool_less_exclusions.txt	LTP291	ltpFR	18	9	0	UNCLE	1536	n/a	2	n/a	n/a	n/a	n/a	n/a
76607319	REC_WORD	wordpools/wasnorm_wordpool_less_exclusions.txt	LTP291	ltpFR	18	9	1	COACH	331	n/a	0	n/a	n/a	n/a	n/a	n/a
76608553	REC_WORD	wordpools/wasnorm_wordpool_less_exclusions.txt	LTP291	ltpFR	18	9	1	BASKETBALL	96	n/a	0	n/a	n/a	n/a	n/a	n/a
76619165	REC_WORD	wordpools/wasnorm_wordpool_less_exclusions.txt	LTP291	ltpFR	18	9	1	FARM	552	n/a	0	n/a	n/a	n/a	n/a	n/a
76640155	REC_WORD	wordpools/wasnorm_wordpool_less_exclusions.txt	LTP291	ltpFR	18	9	1	CHERRY	293	n/a	0	n/a	n/a	n/a	n/a	n/a
76669581	WORD	wordpools/wasnorm_wordpool_less_exclusions.txt	LTP291	ltpFR	18	10	-1	HIGHWAY	707	n/a	-1	1	1.0	1.0	upper	../fonts/Verdana.ttf
76673591	WORD	wordpools/wasnorm_wordpool_less_exclusions.txt	LTP291	ltpFR	18	10	-1	RUST	1219	n/a	-1	1	1.0	1.0	upper	../fonts/Verdana.ttf
76677502	WORD	wordpools/wasnorm_wordpool_less_exclusions.txt	LTP291	ltpFR	18	10	-1	MONEY	908	n/a	-1	1	1.0	1.0	upper	../fonts/Verdana.ttf
76681662	WORD	wordpools/wasnorm_wordpool_less_exclusions.txt	LTP291	ltpFR	18	10	-1	SWATTER	1418	n/a	-1	1	1.0	1.0	upper	../fonts/Verdana.ttf
76685806	WORD	wordpools/wasnorm_wordpool_less_exclusions.txt	LTP291	ltpFR	18	10	-1	PRESIDENT	1121	n/a	-1	1	1.0	1.0	upper	../fonts/Verdana.ttf
76689850	WORD	wordpools/wasnorm_wordpool_less_exclusions.txt	LTP291	ltpFR	18	10	-1	BALLOT	76	n/a	-1	1	1.0	1.0	upper	../fonts/Verdana.ttf
76693811	WORD	wordpools/wasnorm_wordpool_less_exclusions.txt	LTP291	ltpFR	18	10	-1	ENEMY	534	n/a	-1	1	1.0	1.0	upper	../fonts/Verdana.ttf
76697872	WORD	wordpools/wasnorm_wordpool_less_exclusions.txt	LTP291	ltpFR	18	10	-1	INSECT	740	n/a	-1	1	1.0	1.0	upper	../fonts/Verdana.ttf
76701699	WORD	wordpools/wasnorm_wordpool_less_exclusions.txt	LTP291	ltpFR	18	10	-1	BAY	102	n/a	-1	1	1.0	1.0	upper	../fonts/Verdana.ttf
76705893	WORD	wordpools/wasnorm_wordpool_less_exclusions.txt	LTP291	ltpFR	18	10	-1	CUP	424	n/a	-1	1	1.0	1.0	upper	../fonts/Verdana.ttf
76710038	WORD	wordpools/wasnorm_wordpool_less_exclusions.txt	LTP291	ltpFR	18	10	-1	NOMAD	955	n/a	-1	1	1.0	1.0	upper	../fonts/Verdana.ttf
76713949	WORD	wordpools/wasnorm_wordpool_less_exclusions.txt	LTP291	ltpFR	18	10	-1	POLE	1097	n/a	-1	1	1.0	1.0	upper	../fonts/Verdana.ttf
76717792	WORD	wordpools/wasnorm_wordpool_less_exclusions.txt	LTP291	ltpFR	18	10	-1	ATTORNEY	58	n/a	-1	1	1.0	1.0	upper	../fonts/Verdana.ttf
76721902	WORD	wordpools/wasnorm_wordpool_less_exclusions.txt	LTP291	ltpFR	18	10	-1	BUCKLE	185	n/a	-1	1	1.0	1.0	upper	../fonts/Verdana.ttf
76725964	WORD	wordpools/wasnorm_wordpool_less_exclusions.txt	LTP291	ltpFR	18	10	-1	SHOELACE	1289	n/a	-1	1	1.0	1.0	upper	../fonts/Verdana.ttf
76729958	WORD	wordpools/wasnorm_wordpool_less_exclusions.txt	LTP291	ltpFR	18	10	-1	BRIDGE	174	n/a	-1	1	1.0	1.0	upper	../fonts/Verdana.ttf
76735999	REC_START	n/a	LTP291	ltpFR	18	10	n/a	n/a	n/a	n/a	n/a	n/a	n/a	n/a	n/a	n/a
76736457	REC_WORD	wordpools/wasnorm_wordpool_less_exclusions.txt	LTP291	ltpFR	18	10	-1	BRIDGE	174	n/a	-1	n/a	n/a	n/a	n/a	n/a
76737377	REC_WORD	wordpools/wasnorm_wordpool_less_exclusions.txt	LTP291	ltpFR	18	10	-1	BAY	102	n/a	-1	n/a	n/a	n/a	n/a	n/a
76740127	REC_WORD	wordpools/wasnorm_wordpool_less_exclusions.txt	LTP291	ltpFR	18	10	-1	SHOELACE	1289	n/a	-1	n/a	n/a	n/a	n/a	n/a
76741343	REC_WORD	wordpools/wasnorm_wordpool_less_exclusions.txt	LTP291	ltpFR	18	10	-1	BUCKLE	185	n/a	-1	n/a	n/a	n/a	n/a	n/a
76743341	REC_WORD	wordpools/wasnorm_wordpool_less_exclusions.txt	LTP291	ltpFR	18	10	-1	POLE	1097	n/a	-1	n/a	n/a	n/a	n/a	n/a
76752537	REC_WORD	wordpools/wasnorm_wordpool_less_exclusions.txt	LTP291	ltpFR	18	10	-1	PRESIDENT	1121	n/a	-1	n/a	n/a	n/a	n/a	n/a
76754408	REC_WORD	wordpools/wasnorm_wordpool_less_exclusions.txt	LTP291	ltpFR	18	10	-1	ENEMY	534	n/a	-1	n/a	n/a	n/a	n/a	n/a
76759817	REC_WORD	wordpools/wasnorm_wordpool_less_exclusions.txt	LTP291	ltpFR	18	10	-1	RUST	1219	n/a	-1	n/a	n/a	n/a	n/a	n/a
76762147	REC_WORD	wordpools/wasnorm_wordpool_less_exclusions.txt	LTP291	ltpFR	18	10	-1	HIGHWAY	707	n/a	-1	n/a	n/a	n/a	n/a	n/a
76767249	REC_WORD	wordpools/wasnorm_wordpool_less_exclusions.txt	LTP291	ltpFR	18	10	-1	SWATTER	1418	n/a	-1	n/a	n/a	n/a	n/a	n/a
76768812	REC_WORD	wordpools/wasnorm_wordpool_less_exclusions.txt	LTP291	ltpFR	18	10	-1	INSECT	740	n/a	-1	n/a	n/a	n/a	n/a	n/a
76771441	REC_WORD	wordpools/wasnorm_wordpool_less_exclusions.txt	LTP291	ltpFR	18	10	-1	NOMAD	955	n/a	-1	n/a	n/a	n/a	n/a	n/a
76772945	REC_WORD	wordpools/wasnorm_wordpool_less_exclusions.txt	LTP291	ltpFR	18	10	-1	ATTORNEY	58	n/a	-1	n/a	n/a	n/a	n/a	n/a
76783972	REC_WORD	wordpools/wasnorm_wordpool_less_exclusions.txt	LTP291	ltpFR	18	10	-1	MONEY	908	n/a	-1	n/a	n/a	n/a	n/a	n/a
76813316	WORD	wordpools/wasnorm_wordpool_less_exclusions.txt	LTP291	ltpFR	18	11	-1	CYLINDER	432	n/a	-1	1	1.0	1.0	upper	../fonts/Verdana.ttf
76817227	WORD	wordpools/wasnorm_wordpool_less_exclusions.txt	LTP291	ltpFR	18	11	-1	SHOWER	1296	n/a	-1	1	1.0	1.0	upper	../fonts/Verdana.ttf
76821337	WORD	wordpools/wasnorm_wordpool_less_exclusions.txt	LTP291	ltpFR	18	11	-1	HERD	705	n/a	-1	1	1.0	1.0	upper	../fonts/Verdana.ttf
76825414	WORD	wordpools/wasnorm_wordpool_less_exclusions.txt	LTP291	ltpFR	18	11	-1	COW	393	n/a	-1	1	1.0	1.0	upper	../fonts/Verdana.ttf
76829525	WORD	wordpools/wasnorm_wordpool_less_exclusions.txt	LTP291	ltpFR	18	11	-1	STOVE	1388	n/a	-1	1	1.0	1.0	upper	../fonts/Verdana.ttf
76833502	WORD	wordpools/wasnorm_wordpool_less_exclusions.txt	LTP291	ltpFR	18	11	-1	SINK	1309	n/a	-1	1	1.0	1.0	upper	../fonts/Verdana.ttf
76837496	WORD	wordpools/wasnorm_wordpool_less_exclusions.txt	LTP291	ltpFR	18	11	-1	NAPKIN	937	n/a	-1	1	1.0	1.0	upper	../fonts/Verdana.ttf
76841690	WORD	wordpools/wasnorm_wordpool_less_exclusions.txt	LTP291	ltpFR	18	11	-1	KETCHUP	771	n/a	-1	1	1.0	1.0	upper	../fonts/Verdana.ttf
76845850	WORD	wordpools/wasnorm_wordpool_less_exclusions.txt	LTP291	ltpFR	18	11	-1	LEMON	810	n/a	-1	1	1.0	1.0	upper	../fonts/Verdana.ttf
76849778	WORD	wordpools/wasnorm_wordpool_less_exclusions.txt	LTP291	ltpFR	18	11	-1	ORANGE	980	n/a	-1	1	1.0	1.0	upper	../fonts/Verdana.ttf
76854006	WORD	wordpools/wasnorm_wordpool_less_exclusions.txt	LTP291	ltpFR	18	11	-1	STEW	1380	n/a	-1	1	1.0	1.0	upper	../fonts/Verdana.ttf
76857899	WORD	wordpools/wasnorm_wordpool_less_exclusions.txt	LTP291	ltpFR	18	11	-1	EYELASH	546	n/a	-1	1	1.0	1.0	upper	../fonts/Verdana.ttf
76861893	WORD	wordpools/wasnorm_wordpool_less_exclusions.txt	LTP291	ltpFR	18	11	-1	MUSTARD	935	n/a	-1	1	1.0	1.0	upper	../fonts/Verdana.ttf
76865871	WORD	wordpools/wasnorm_wordpool_less_exclusions.txt	LTP291	ltpFR	18	11	-1	BUGLE	189	n/a	-1	1	1.0	1.0	upper	../fonts/Verdana.ttf
76870032	WORD	wordpools/wasnorm_wordpool_less_exclusions.txt	LTP291	ltpFR	18	11	-1	CUBE	420	n/a	-1	1	1.0	1.0	upper	../fonts/Verdana.ttf
76874093	WORD	wordpools/wasnorm_wordpool_less_exclusions.txt	LTP291	ltpFR	18	11	-1	LIST	830	n/a	-1	1	1.0	1.0	upper	../fonts/Verdana.ttf
76879834	REC_START	n/a	LTP291	ltpFR	18	11	n/a	n/a	n/a	n/a	n/a	n/a	n/a	n/a	n/a	n/a
76880280	REC_WORD	wordpools/wasnorm_wordpool_less_exclusions.txt	LTP291	ltpFR	18	11	-1	MUSTARD	935	n/a	-1	n/a	n/a	n/a	n/a	n/a
76881408	REC_WORD	wordpools/wasnorm_wordpool_less_exclusions.txt	LTP291	ltpFR	18	11	-1	BUGLE	189	n/a	-1	n/a	n/a	n/a	n/a	n/a
76883233	REC_WORD	wordpools/wasnorm_wordpool_less_exclusions.txt	LTP291	ltpFR	18	11	-1	LIST	830	n/a	-1	n/a	n/a	n/a	n/a	n/a
76893092	REC_WORD	wordpools/wasnorm_wordpool_less_exclusions.txt	LTP291	ltpFR	18	11	-1	EYELASH	546	n/a	-1	n/a	n/a	n/a	n/a	n/a
76895288	REC_WORD	wordpools/wasnorm_wordpool_less_exclusions.txt	LTP291	ltpFR	18	11	-1	LEMON	810	n/a	-1	n/a	n/a	n/a	n/a	n/a
76898378	REC_WORD	wordpools/wasnorm_wordpool_less_exclusions.txt	LTP291	ltpFR	18	11	-1	ORANGE	980	n/a	-1	n/a	n/a	n/a	n/a	n/a
76899522	REC_WORD	wordpools/wasnorm_wordpool_less_exclusions.txt	LTP291	ltpFR	18	11	-1	NAPKIN	937	n/a	-1	n/a	n/a	n/a	n/a	n/a
76900845	REC_WORD	wordpools/wasnorm_wordpool_less_exclusions.txt	LTP291	ltpFR	18	11	-1	KETCHUP	771	n/a	-1	n/a	n/a	n/a	n/a	n/a
76902029	REC_WORD	wordpools/wasnorm_wordpool_less_exclusions.txt	LTP291	ltpFR	18	11	-1	STEW	1380	n/a	-1	n/a	n/a	n/a	n/a	n/a
76903287	REC_WORD	wordpools/wasnorm_wordpool_less_exclusions.txt	LTP291	ltpFR	18	11	-1	SINK	1309	n/a	-1	n/a	n/a	n/a	n/a	n/a
76905512	REC_WORD	wordpools/wasnorm_wordpool_less_exclusions.txt	LTP291	ltpFR	18	11	-1	SHOWER	1296	n/a	-1	n/a	n/a	n/a	n/a	n/a
76906752	REC_WORD	wordpools/wasnorm_wordpool_less_exclusions.txt	LTP291	ltpFR	18	11	-1	CYLINDER	432	n/a	-1	n/a	n/a	n/a	n/a	n/a
76909699	REC_WORD	wordpools/wasnorm_wordpool_less_exclusions.txt	LTP291	ltpFR	18	11	-1	HERD	705	n/a	-1	n/a	n/a	n/a	n/a	n/a
76913491	REC_WORD	wordpools/wasnorm_wordpool_less_exclusions.txt	LTP291	ltpFR	18	11	-1	COW	393	n/a	-1	n/a	n/a	n/a	n/a	n/a
76915292	REC_WORD	wordpools/wasnorm_wordpool_less_exclusions.txt	LTP291	ltpFR	18	11	-1	STOVE	1388	n/a	-1	n/a	n/a	n/a	n/a	n/a
76957184	WORD	wordpools/wasnorm_wordpool_less_exclusions.txt	LTP291	ltpFR	18	12	-1	PILL	1068	n/a	-1	1	1.0	1.0	upper	../fonts/Verdana.ttf
76961278	WORD	wordpools/wasnorm_wordpool_less_exclusions.txt	LTP291	ltpFR	18	12	-1	OINTMENT	974	n/a	-1	1	1.0	1.0	upper	../fonts/Verdana.ttf
76965289	WORD	wordpools/wasnorm_wordpool_less_exclusions.txt	LTP291	ltpFR	18	12	-1	CACTUS	215	n/a	-1	1	1.0	1.0	upper	../fonts/Verdana.ttf
76969249	WORD	wordpools/wasnorm_wordpool_less_exclusions.txt	LTP291	ltpFR	18	12	-1	PIER	1063	n/a	-1	1	1.0	1.0	upper	../fonts/Verdana.ttf
76973144	WORD	wordpools/wasnorm_wordpool_less_exclusions.txt	LTP291	ltpFR	18	12	-1	WAVE	1596	n/a	-1	1	1.0	1.0	upper	../fonts/Verdana.ttf
76976972	WORD	wordpools/wasnorm_wordpool_less_exclusions.txt	LTP291	ltpFR	18	12	-1	VACUUM	1543	n/a	-1	1	1.0	1.0	upper	../fonts/Verdana.ttf
76981000	WORD	wordpools/wasnorm_wordpool_less_exclusions.txt	LTP291	ltpFR	18	12	-1	LABYRINTH	791	n/a	-1	1	1.0	1.0	upper	../fonts/Verdana.ttf
76985027	WORD	wordpools/wasnorm_wordpool_less_exclusions.txt	LTP291	ltpFR	18	12	-1	GIFT	635	n/a	-1	1	1.0	1.0	upper	../fonts/Verdana.ttf
76988921	WORD	wordpools/wasnorm_wordpool_less_exclusions.txt	LTP291	ltpFR	18	12	-1	NOTEBOOK	959	n/a	-1	1	1.0	1.0	upper	../fonts/Verdana.ttf
76992998	WORD	wordpools/wasnorm_wordpool_less_exclusions.txt	LTP291	ltpFR	18	12	-1	ANKLE	24	n/a	-1	1	1.0	1.0	upper	../fonts/Verdana.ttf
76996976	WORD	wordpools/wasnorm_wordpool_less_exclusions.txt	LTP291	ltpFR	18	12	-1	LEAF	808	n/a	-1	1	1.0	1.0	upper	../fonts/Verdana.ttf
77001053	WORD	wordpools/wasnorm_wordpool_less_exclusions.txt	LTP291	ltpFR	18	12	-1	SECRETARY	1265	n/a	-1	1	1.0	1.0	upper	../fonts/Verdana.ttf
77005097	WORD	wordpools/wasnorm_wordpool_less_exclusions.txt	LTP291	ltpFR	18	12	-1	ROSE	1212	n/a	-1	1	1.0	1.0	upper	../fonts/Verdana.ttf
77008974	WORD	wordpools/wasnorm_wordpool_less_exclusions.txt	LTP291	ltpFR	18	12	-1	ROOT	1210	n/a	-1	1	1.0	1.0	upper	../fonts/Verdana.ttf
77013151	WORD	wordpools/wasnorm_wordpool_less_exclusions.txt	LTP291	ltpFR	18	12	-1	PIZZA	1079	n/a	-1	1	1.0	1.0	upper	../fonts/Verdana.ttf
77017261	WORD	wordpools/wasnorm_wordpool_less_exclusions.txt	LTP291	ltpFR	18	12	-1	DOUGH	489	n/a	-1	1	1.0	1.0	upper	../fonts/Verdana.ttf
77023120	REC_START	n/a	LTP291	ltpFR	18	12	n/a	n/a	n/a	n/a	n/a	n/a	n/a	n/a	n/a	n/a
77023617	REC_WORD	wordpools/wasnorm_wordpool_less_exclusions.txt	LTP291	ltpFR	18	12	-1	PIZZA	1079	n/a	-1	n/a	n/a	n/a	n/a	n/a
77024694	REC_WORD	wordpools/wasnorm_wordpool_less_exclusions.txt	LTP291	ltpFR	18	12	-1	DOUGH	489	n/a	-1	n/a	n/a	n/a	n/a	n/a
77025918	REC_WORD	wordpools/wasnorm_wordpool_less_exclusions.txt	LTP291	ltpFR	18	12	-1	ROOT	1210	n/a	-1	n/a	n/a	n/a	n/a	n/a
77028280	REC_WORD	wordpools/wasnorm_wordpool_less_exclusions.txt	LTP291	ltpFR	18	12	-1	ROSE	1212	n/a	-1	n/a	n/a	n/a	n/a	n/a
77030417	REC_WORD	wordpools/wasnorm_wordpool_less_exclusions.txt	LTP291	ltpFR	18	12	-1	SECRETARY	1265	n/a	-1	n/a	n/a	n/a	n/a	n/a
77032526	REC_WORD	wordpools/wasnorm_wordpool_less_exclusions.txt	LTP291	ltpFR	18	12	-1	ANKLE	24	n/a	-1	n/a	n/a	n/a	n/a	n/a
77037540	REC_WORD	wordpools/wasnorm_wordpool_less_exclusions.txt	LTP291	ltpFR	18	12	-1	LEAF	808	n/a	-1	n/a	n/a	n/a	n/a	n/a
77043344	REC_WORD	wordpools/wasnorm_wordpool_less_exclusions.txt	LTP291	ltpFR	18	12	-1	VACUUM	1543	n/a	-1	n/a	n/a	n/a	n/a	n/a
77044696	REC_WORD	wordpools/wasnorm_wordpool_less_exclusions.txt	LTP291	ltpFR	18	12	-1	LABYRINTH	791	n/a	-1	n/a	n/a	n/a	n/a	n/a
77045983	REC_WORD	wordpools/wasnorm_wordpool_less_exclusions.txt	LTP291	ltpFR	18	12	-1	GIFT	635	n/a	-1	n/a	n/a	n/a	n/a	n/a
77049971	REC_WORD	wordpools/wasnorm_wordpool_less_exclusions.txt	LTP291	ltpFR	18	12	-1	NOTEBOOK	959	n/a	-1	n/a	n/a	n/a	n/a	n/a
77058796	REC_WORD	wordpools/wasnorm_wordpool_less_exclusions.txt	LTP291	ltpFR	18	12	-1	WAVE	1596	n/a	-1	n/a	n/a	n/a	n/a	n/a
77060125	REC_WORD	wordpools/wasnorm_wordpool_less_exclusions.txt	LTP291	ltpFR	18	12	-1	PIER	1063	n/a	-1	n/a	n/a	n/a	n/a	n/a
77069869	REC_WORD	wordpools/wasnorm_wordpool_less_exclusions.txt	LTP291	ltpFR	18	12	-1	OINTMENT	974	n/a	-1	n/a	n/a	n/a	n/a	n/a
77073100	REC_WORD	wordpools/wasnorm_wordpool_less_exclusions.txt	LTP291	ltpFR	18	12	-1	CACTUS	215	n/a	-1	n/a	n/a	n/a	n/a	n/a
77100620	WORD	wordpools/wasnorm_wordpool_less_exclusions.txt	LTP291	ltpFR	18	13	0	WHEAT	1602	n/a	0	0	0.5869140625	0.422607421875	upper	../fonts/amplitud.ttf
77104464	WORD	wordpools/wasnorm_wordpool_less_exclusions.txt	LTP291	ltpFR	18	13	0	SPICE	1350	n/a	0	0	0.5869140625	0.422607421875	upper	../fonts/amplitud.ttf
77108358	WORD	wordpools/wasnorm_wordpool_less_exclusions.txt	LTP291	ltpFR	18	13	0	SENATOR	1268	n/a	1	0	0.5869140625	0.422607421875	upper	../fonts/amplitud.ttf
77112552	WORD	wordpools/wasnorm_wordpool_less_exclusions.txt	LTP291	ltpFR	18	13	0	CONTRACTOR	369	n/a	1	0	0.5869140625	0.422607421875	upper	../fonts/amplitud.ttf
77116613	WORD	wordpools/wasnorm_wordpool_less_exclusions.txt	LTP291	ltpFR	18	13	0	BOUILLON	154	n/a	1	0	0.5869140625	0.422607421875	upper	../fonts/amplitud.ttf
77120756	WORD	wordpools/wasnorm_wordpool_less_exclusions.txt	LTP291	ltpFR	18	13	0	TELESCOPE	1446	n/a	1	0	0.5869140625	0.422607421875	upper	../fonts/amplitud.ttf
77124634	WORD	wordpools/wasnorm_wordpool_less_exclusions.txt	LTP291	ltpFR	18	13	0	METEOR	889	n/a	1	0	0.5869140625	0.422607421875	upper	../fonts/amplitud.ttf
77128828	WORD	wordpools/wasnorm_wordpool_less_exclusions.txt	LTP291	ltpFR	18	13	0	DISH	474	n/a	1	0	0.5869140625	0.422607421875	upper	../fonts/amplitud.ttf
77132923	WORD	wordpools/wasnorm_wordpool_less_exclusions.txt	LTP291	ltpFR	18	13	0	CITY	314	n/a	1	0	0.5869140625	0.422607421875	upper	../fonts/amplitud.ttf
77137083	WORD	wordpools/wasnorm_wordpool_less_exclusions.txt	LTP291	ltpFR	18	13	0	TABLET	1427	n/a	1	0	0.5869140625	0.422607421875	upper	../fonts/amplitud.ttf
77141292	WORD	wordpools/wasnorm_wordpool_less_exclusions.txt	LTP291	ltpFR	18	13	0	UNICORN	1538	n/a	1	0	0.5869140625	0.422607421875	upper	../fonts/amplitud.ttf
77145253	WORD	wordpools/wasnorm_wordpool_less_exclusions.txt	LTP291	ltpFR	18	13	0	COLUMN	350	n/a	1	0	0.5869140625	0.422607421875	upper	../fonts/amplitud.ttf
77149281	WORD	wordpools/wasnorm_wordpool_less_exclusions.txt	LTP291	ltpFR	18	13	0	GOVERNOR	651	n/a	1	0	0.5869140625	0.422607421875	upper	../fonts/amplitud.ttf
77153358	WORD	wordpools/wasnorm_wordpool_less_exclusions.txt	LTP291	ltpFR	18	13	0	GLASS	639	n/a	0	0	0.5869140625	0.422607421875	upper	../fonts/amplitud.ttf
77157269	WORD	wordpools/wasnorm_wordpool_less_exclusions.txt	LTP291	ltpFR	18	13	0	MONK	910	n/a	0	0	0.5869140625	0.422607421875	upper	../fonts/amplitud.ttf
77161213	WORD	wordpools/wasnorm_wordpool_less_exclusions.txt	LTP291	ltpFR	18	13	0	NUN	962	n/a	1	0	0.5869140625	0.422607421875	upper	../fonts/amplitud.ttf
77167056	REC_START	n/a	LTP291	ltpFR	18	13	n/a	n/a	n/a	n/a	n/a	n/a	n/a	n/a	n/a	n/a
77167409	REC_WORD	wordpools/wasnorm_wordpool_less_exclusions.txt	LTP291	ltpFR	18	13	0	MONK	910	n/a	0	n/a	n/a	n/a	n/a	n/a
77168315	REC_WORD	wordpools/wasnorm_wordpool_less_exclusions.txt	LTP291	ltpFR	18	13	0	NUN	962	n/a	1	n/a	n/a	n/a	n/a	n/a
77169545	REC_WORD	wordpools/wasnorm_wordpool_less_exclusions.txt	LTP291	ltpFR	18	13	0	GLASS	639	n/a	0	n/a	n/a	n/a	n/a	n/a
77170616	REC_WORD	wordpools/wasnorm_wordpool_less_exclusions.txt	LTP291	ltpFR	18	13	0	TABLET	1427	n/a	1	n/a	n/a	n/a	n/a	n/a
77171718	REC_WORD	wordpools/wasnorm_wordpool_less_exclusions.txt	LTP291	ltpFR	18	13	0	UNICORN	1538	n/a	1	n/a	n/a	n/a	n/a	n/a
77179583	REC_WORD	wordpools/wasnorm_wordpool_less_exclusions.txt	LTP291	ltpFR	18	13	0	TELESCOPE	1446	n/a	1	n/a	n/a	n/a	n/a	n/a
77181112	REC_WORD	wordpools/wasnorm_wordpool_less_exclusions.txt	LTP291	ltpFR	18	13	0	METEOR	889	n/a	1	n/a	n/a	n/a	n/a	n/a
77182297	REC_WORD	wordpools/wasnorm_wordpool_less_exclusions.txt	LTP291	ltpFR	18	13	0	CONTRACTOR	369	n/a	1	n/a	n/a	n/a	n/a	n/a
77184429	REC_WORD	wordpools/wasnorm_wordpool_less_exclusions.txt	LTP291	ltpFR	18	13	0	DISH	474	n/a	1	n/a	n/a	n/a	n/a	n/a
77186459	REC_WORD	wordpools/wasnorm_wordpool_less_exclusions.txt	LTP291	ltpFR	18	13	0	CITY	314	n/a	1	n/a	n/a	n/a	n/a	n/a
77192409	REC_WORD	wordpools/wasnorm_wordpool_less_exclusions.txt	LTP291	ltpFR	18	13	0	SENATOR	1268	n/a	1	n/a	n/a	n/a	n/a	n/a
77244505	WORD	wordpools/wasnorm_wordpool_less_exclusions.txt	LTP291	ltpFR	18	14	1	TAVERN	1437	n/a	0	1	0.412841796875	0.57763671875	lower	../fonts/zerothre.ttf
77248349	WORD	wordpools/wasnorm_wordpool_less_exclusions.txt	LTP291	ltpFR	18	14	1	BENCH	121	n/a	0	1	0.412841796875	0.57763671875	lower	../fonts/zerothre.ttf
77252193	WORD	wordpools/wasnorm_wordpool_less_exclusions.txt	LTP291	ltpFR	18	14	0	DOG	480	n/a	0	0	0.5869140625	0.422607421875	upper	../fonts/amplitud.ttf
77256154	WORD	wordpools/wasnorm_wordpool_less_exclusions.txt	LTP291	ltpFR	18	14	0	TICK	1463	n/a	0	0	0.5869140625	0.422607421875	upper	../fonts/amplitud.ttf
77260115	WORD	wordpools/wasnorm_wordpool_less_exclusions.txt	LTP291	ltpFR	18	14	0	UMPIRE	1535	n/a	1	0	0.5869140625	0.422607421875	upper	../fonts/amplitud.ttf
77264010	WORD	wordpools/wasnorm_wordpool_less_exclusions.txt	LTP291	ltpFR	18	14	0	ELECTRON	522	n/a	0	0	0.5869140625	0.422607421875	upper	../fonts/amplitud.ttf
77268103	WORD	wordpools/wasnorm_wordpool_less_exclusions.txt	LTP291	ltpFR	18	14	1	TRIGGER	1507	n/a	0	1	0.412841796875	0.57763671875	lower	../fonts/zerothre.ttf
77272280	WORD	wordpools/wasnorm_wordpool_less_exclusions.txt	LTP291	ltpFR	18	14	1	ROOMMATE	1207	n/a	0	1	0.412841796875	0.57763671875	lower	../fonts/zerothre.ttf
77276341	WORD	wordpools/wasnorm_wordpool_less_exclusions.txt	LTP291	ltpFR	18	14	1	PUPPY	1144	n/a	1	1	0.412841796875	0.57763671875	lower	../fonts/zerothre.ttf
77280202	WORD	wordpools/wasnorm_wordpool_less_exclusions.txt	LTP291	ltpFR	18	14	1	VET	1560	n/a	0	1	0.412841796875	0.57763671875	lower	../fonts/zerothre.ttf
77284112	WORD	wordpools/wasnorm_wordpool_less_exclusions.txt	LTP291	ltpFR	18	14	0	RACKET	1155	n/a	0	0	0.5869140625	0.422607421875	upper	../fonts/amplitud.ttf
77288156	WORD	wordpools/wasnorm_wordpool_less_exclusions.txt	LTP291	ltpFR	18	14	0	SOFTBALL	1343	n/a	0	0	0.5869140625	0.422607421875	upper	../fonts/amplitud.ttf
77292002	WORD	wordpools/wasnorm_wordpool_less_exclusions.txt	LTP291	ltpFR	18	14	0	ICING	732	n/a	0	0	0.5869140625	0.422607421875	upper	../fonts/amplitud.ttf
77295996	WORD	wordpools/wasnorm_wordpool_less_exclusions.txt	LTP291	ltpFR	18	14	0	MUFFIN	929	n/a	0	0	0.5869140625	0.422607421875	upper	../fonts/amplitud.ttf
77300040	WORD	wordpools/wasnorm_wordpool_less_exclusions.txt	LTP291	ltpFR	18	14	1	PROTON	1132	n/a	0	1	0.412841796875	0.57763671875	lower	../fonts/zerothre.ttf
77304084	WORD	wordpools/wasnorm_wordpool_less_exclusions.txt	LTP291	ltpFR	18	14	1	COCKTAIL	338	n/a	0	1	0.412841796875	0.57763671875	lower	../fonts/zerothre.ttf
77309925	REC_START	n/a	LTP291	ltpFR	18	14	n/a	n/a	n/a	n/a	n/a	n/a	n/a	n/a	n/a	n/a
77310214	REC_WORD	wordpools/wasnorm_wordpool_less_exclusions.txt	LTP291	ltpFR	18	14	0	MUFFIN	929	n/a	0	n/a	n/a	n/a	n/a	n/a
77311151	REC_WORD	wordpools/wasnorm_wordpool_less_exclusions.txt	LTP291	ltpFR	18	14	0	ICING	732	n/a	0	n/a	n/a	n/a	n/a	n/a
77312191	REC_WORD	wordpools/wasnorm_wordpool_less_exclusions.txt	LTP291	ltpFR	18	14	1	COCKTAIL	338	n/a	0	n/a	n/a	n/a	n/a	n/a
77313251	REC_WORD	wordpools/wasnorm_wordpool_less_exclusions.txt	LTP291	ltpFR	18	14	1	PROTON	1132	n/a	0	n/a	n/a	n/a	n/a	n/a
77314328	REC_WORD	wordpools/wasnorm_wordpool_less_exclusions.txt	LTP291	ltpFR	18	14	0	ELECTRON	522	n/a	0	n/a	n/a	n/a	n/a	n/a
77315567	REC_WORD	wordpools/wasnorm_wordpool_less_exclusions.txt	LTP291	ltpFR	18	14	1	TRIGGER	1507	n/a	0	n/a	n/a	n/a	n/a	n/a
77317685	REC_WORD	wordpools/wasnorm_wordpool_less_exclusions.txt	LTP291	ltpFR	18	14	1	ROOMMATE	1207	n/a	0	n/a	n/a	n/a	n/a	n/a
77321409	REC_WORD	wordpools/wasnorm_wordpool_less_exclusions.txt	LTP291	ltpFR	18	14	0	RACKET	1155	n/a	0	n/a	n/a	n/a	n/a	n/a
77323346	REC_WORD	wordpools/wasnorm_wordpool_less_exclusions.txt	LTP291	ltpFR	18	14	0	SOFTBALL	1343	n/a	0	n/a	n/a	n/a	n/a	n/a
77327700	REC_WORD	wordpools/wasnorm_wordpool_less_exclusions.txt	LTP291	ltpFR	18	14	0	DOG	480	n/a	0	n/a	n/a	n/a	n/a	n/a
77328716	REC_WORD	wordpools/wasnorm_wordpool_less_exclusions.txt	LTP291	ltpFR	18	14	1	PUPPY	1144	n/a	1	n/a	n/a	n/a	n/a	n/a
77330207	REC_WORD	wordpools/wasnorm_wordpool_less_exclusions.txt	LTP291	ltpFR	18	14	1	BENCH	121	n/a	0	n/a	n/a	n/a	n/a	n/a
77332393	REC_WORD	wordpools/wasnorm_wordpool_less_exclusions.txt	LTP291	ltpFR	18	14	1	TAVERN	1437	n/a	0	n/a	n/a	n/a	n/a	n/a
77387342	WORD	wordpools/wasnorm_wordpool_less_exclusions.txt	LTP291	ltpFR	18	15	1	OLIVE	975	n/a	0	1	0.412841796875	0.57763671875	lower	../fonts/zerothre.ttf
77391236	WORD	wordpools/wasnorm_wordpool_less_exclusions.txt	LTP291	ltpFR	18	15	1	ZUCCHINI	1638	n/a	0	1	0.412841796875	0.57763671875	lower	../fonts/zerothre.ttf
77395413	WORD	wordpools/wasnorm_wordpool_less_exclusions.txt	LTP291	ltpFR	18	15	1	FLIPPER	580	n/a	0	1	0.412841796875	0.57763671875	lower	../fonts/zerothre.ttf
77399390	WORD	wordpools/wasnorm_wordpool_less_exclusions.txt	LTP291	ltpFR	18	15	1	SANDPAPER	1231	n/a	0	1	0.412841796875	0.57763671875	lower	../fonts/zerothre.ttf
77403418	WORD	wordpools/wasnorm_wordpool_less_exclusions.txt	LTP291	ltpFR	18	15	1	RESORT	1186	n/a	0	1	0.412841796875	0.57763671875	lower	../fonts/zerothre.ttf
77407528	WORD	wordpools/wasnorm_wordpool_less_exclusions.txt	LTP291	ltpFR	18	15	1	COAL	332	n/a	0	1	0.412841796875	0.57763671875	lower	../fonts/zerothre.ttf
77411605	WORD	wordpools/wasnorm_wordpool_less_exclusions.txt	LTP291	ltpFR	18	15	1	TAR	1435	n/a	0	1	0.412841796875	0.57763671875	lower	../fonts/zerothre.ttf
77415682	WORD	wordpools/wasnorm_wordpool_less_exclusions.txt	LTP291	ltpFR	18	15	1	BROOK	177	n/a	0	1	0.412841796875	0.57763671875	lower	../fonts/zerothre.ttf
77419876	WORD	wordpools/wasnorm_wordpool_less_exclusions.txt	LTP291	ltpFR	18	15	1	POOL	1103	n/a	0	1	0.412841796875	0.57763671875	lower	../fonts/zerothre.ttf
77423854	WORD	wordpools/wasnorm_wordpool_less_exclusions.txt	LTP291	ltpFR	18	15	1	BARRACUDA	90	n/a	1	1	0.412841796875	0.57763671875	lower	../fonts/zerothre.ttf
77427831	WORD	wordpools/wasnorm_wordpool_less_exclusions.txt	LTP291	ltpFR	18	15	1	BANJO	82	n/a	0	1	0.412841796875	0.57763671875	lower	../fonts/zerothre.ttf
77431792	WORD	wordpools/wasnorm_wordpool_less_exclusions.txt	LTP291	ltpFR	18	15	1	PILLOW	1069	n/a	0	1	0.412841796875	0.57763671875	lower	../fonts/zerothre.ttf
77435736	WORD	wordpools/wasnorm_wordpool_less_exclusions.txt	LTP291	ltpFR	18	15	1	CANDIDATE	228	n/a	0	1	0.412841796875	0.57763671875	lower	../fonts/zerothre.ttf
77439630	WORD	wordpools/wasnorm_wordpool_less_exclusions.txt	LTP291	ltpFR	18	15	1	BAND	78	n/a	1	1	0.412841796875	0.57763671875	lower	../fonts/zerothre.ttf
77443558	WORD	wordpools/wasnorm_wordpool_less_exclusions.txt	LTP291	ltpFR	18	15	1	SALMON	1227	n/a	1	1	0.412841796875	0.57763671875	lower	../fonts/zerothre.ttf
77447568	WORD	wordpools/wasnorm_wordpool_less_exclusions.txt	LTP291	ltpFR	18	15	1	SERPENT	1270	n/a	1	1	0.412841796875	0.57763671875	lower	../fonts/zerothre.ttf
77453294	REC_START	n/a	LTP291	ltpFR	18	15	n/a	n/a	n/a	n/a	n/a	n/a	n/a	n/a	n/a	n/a
77453581	REC_WORD	wordpools/wasnorm_wordpool_less_exclusions.txt	LTP291	ltpFR	18	15	1	BAND	78	n/a	1	n/a	n/a	n/a	n/a	n/a
77454399	REC_WORD	wordpools/wasnorm_wordpool_less_exclusions.txt	LTP291	ltpFR	18	15	1	SALMON	1227	n/a	1	n/a	n/a	n/a	n/a	n/a
77455392	REC_WORD	wordpools/wasnorm_wordpool_less_exclusions.txt	LTP291	ltpFR	18	15	1	SERPENT	1270	n/a	1	n/a	n/a	n/a	n/a	n/a
77457509	REC_WORD	wordpools/wasnorm_wordpool_less_exclusions.txt	LTP291	ltpFR	18	15	1	PILLOW	1069	n/a	0	n/a	n/a	n/a	n/a	n/a
77459044	REC_WORD	wordpools/wasnorm_wordpool_less_exclusions.txt	LTP291	ltpFR	18	15	1	CANDIDATE	228	n/a	0	n/a	n/a	n/a	n/a	n/a
77460185	REC_WORD	wordpools/wasnorm_wordpool_less_exclusions.txt	LTP291	ltpFR	18	15	1	BANJO	82	n/a	0	n/a	n/a	n/a	n/a	n/a
77467808	REC_WORD	wordpools/wasnorm_wordpool_less_exclusions.txt	LTP291	ltpFR	18	15	1	OLIVE	975	n/a	0	n/a	n/a	n/a	n/a	n/a
77468924	REC_WORD	wordpools/wasnorm_wordpool_less_exclusions.txt	LTP291	ltpFR	18	15	1	ZUCCHINI	1638	n/a	0	n/a	n/a	n/a	n/a	n/a
77470281	REC_WORD	wordpools/wasnorm_wordpool_less_exclusions.txt	LTP291	ltpFR	18	15	1	TAR	1435	n/a	0	n/a	n/a	n/a	n/a	n/a
77471484	REC_WORD	wordpools/wasnorm_wordpool_less_exclusions.txt	LTP291	ltpFR	18	15	1	SANDPAPER	1231	n/a	0	n/a	n/a	n/a	n/a	n/a
77472954	REC_WORD	wordpools/wasnorm_wordpool_less_exclusions.txt	LTP291	ltpFR	18	15	1	FLIPPER	580	n/a	0	n/a	n/a	n/a	n/a	n/a
77476690	REC_WORD	wordpools/wasnorm_wordpool_less_exclusions.txt	LTP291	ltpFR	18	15	1	COAL	332	n/a	0	n/a	n/a	n/a	n/a	n/a
77500361	REC_WORD	wordpools/wasnorm_wordpool_less_exclusions.txt	LTP291	ltpFR	18	15	1	RESORT	1186	n/a	0	n/a	n/a	n/a	n/a	n/a
77502763	REC_WORD	wordpools/wasnorm_wordpool_less_exclusions.txt	LTP291	ltpFR	18	15	1	POOL	1103	n/a	0	n/a	n/a	n/a	n/a	n/a
77503851	REC_WORD	wordpools/wasnorm_wordpool_less_exclusions.txt	LTP291	ltpFR	18	15	1	BARRACUDA	90	n/a	1	n/a	n/a	n/a	n/a	n/a
77530761	WORD	wordpools/wasnorm_wordpool_less_exclusions.txt	LTP291	ltpFR	18	16	0	CHISEL	305	n/a	2	0	0.5869140625	0.422607421875	upper	../fonts/amplitud.ttf
77531826	KEY_MSG	n/a	LTP291	ltpFR	18	16	n/a	n/a	n/a	n/a	n/a	n/a	n/a	n/a	n/a	n/a
77534655	WORD	wordpools/wasnorm_wordpool_less_exclusions.txt	LTP291	ltpFR	18	16	0	PUBLISHER	1137	n/a	0	0	0.5869140625	0.422607421875	upper	../fonts/amplitud.ttf
77538832	WORD	wordpools/wasnorm_wordpool_less_exclusions.txt	LTP291	ltpFR	18	16	1	BARN	89	n/a	0	1	0.412841796875	0.57763671875	lower	../fonts/zerothre.ttf
77542809	WORD	wordpools/wasnorm_wordpool_less_exclusions.txt	LTP291	ltpFR	18	16	1	DOUGHNUT	490	n/a	0	1	0.412841796875	0.57763671875	lower	../fonts/zerothre.ttf
77546820	WORD	wordpools/wasnorm_wordpool_less_exclusions.txt	LTP291	ltpFR	18	16	0	MEAL	882	n/a	0	0	0.5869140625	0.422607421875	upper	../fonts/amplitud.ttf
77550648	WORD	wordpools/wasnorm_wordpool_less_exclusions.txt	LTP291	ltpFR	18	16	0	PLUMBER	1091	n/a	0	0	0.5869140625	0.422607421875	upper	../fonts/amplitud.ttf
77554825	WORD	wordpools/wasnorm_wordpool_less_exclusions.txt	LTP291	ltpFR	18	16	1	WILDERNESS	1610	n/a	0	1	0.412841796875	0.57763671875	lower	../fonts/zerothre.ttf
77558686	WORD	wordpools/wasnorm_wordpool_less_exclusions.txt	LTP291	ltpFR	18	16	1	PERISCOPE	1050	n/a	0	1	0.412841796875	0.57763671875	lower	../fonts/zerothre.ttf
77562730	WORD	wordpools/wasnorm_wordpool_less_exclusions.txt	LTP291	ltpFR	18	16	1	BARLEY	88	n/a	0	1	0.412841796875	0.57763671875	lower	../fonts/zerothre.ttf
77566740	WORD	wordpools/wasnorm_wordpool_less_exclusions.txt	LTP291	ltpFR	18	16	1	OATS	968	n/a	0	1	0.412841796875	0.57763671875	lower	../fonts/zerothre.ttf
77570568	WORD	wordpools/wasnorm_wordpool_less_exclusions.txt	LTP291	ltpFR	18	16	1	CARPENTER	246	n/a	0	1	0.412841796875	0.57763671875	lower	../fonts/zerothre.ttf
77574712	WORD	wordpools/wasnorm_wordpool_less_exclusions.txt	LTP291	ltpFR	18	16	1	TREE	1502	n/a	0	1	0.412841796875	0.57763671875	lower	../fonts/zerothre.ttf
77578639	WORD	wordpools/wasnorm_wordpool_less_exclusions.txt	LTP291	ltpFR	18	16	0	MAPLE	866	n/a	0	0	0.5869140625	0.422607421875	upper	../fonts/amplitud.ttf
77582616	WORD	wordpools/wasnorm_wordpool_less_exclusions.txt	LTP291	ltpFR	18	16	0	BIOLOGIST	128	n/a	2	0	0.5869140625	0.422607421875	upper	../fonts/amplitud.ttf
77584514	KEY_MSG	n/a	LTP291	ltpFR	18	16	n/a	n/a	n/a	n/a	n/a	n/a	n/a	n/a	n/a	n/a
77586978	WORD	wordpools/wasnorm_wordpool_less_exclusions.txt	LTP291	ltpFR	18	16	0	CORPORATION	382	n/a	0	0	0.5869140625	0.422607421875	upper	../fonts/amplitud.ttf
77591187	WORD	wordpools/wasnorm_wordpool_less_exclusions.txt	LTP291	ltpFR	18	16	0	CAVE	263	n/a	1	0	0.5869140625	0.422607421875	upper	../fonts/amplitud.ttf
77597046	REC_START	n/a	LTP291	ltpFR	18	16	n/a	n/a	n/a	n/a	n/a	n/a	n/a	n/a	n/a	n/a
77597400	REC_WORD	wordpools/wasnorm_wordpool_less_exclusions.txt	LTP291	ltpFR	18	16	0	BIOLOGIST	128	n/a	2	n/a	n/a	n/a	n/a	n/a
77598900	REC_WORD	wordpools/wasnorm_wordpool_less_exclusions.txt	LTP291	ltpFR	18	16	0	CORPORATION	382	n/a	0	n/a	n/a	n/a	n/a	n/a
77600278	REC_WORD	wordpools/wasnorm_wordpool_less_exclusions.txt	LTP291	ltpFR	18	16	0	CAVE	263	n/a	1	n/a	n/a	n/a	n/a	n/a
77601451	REC_WORD	wordpools/wasnorm_wordpool_less_exclusions.txt	LTP291	ltpFR	18	16	1	CARPENTER	246	n/a	0	n/a	n/a	n/a	n/a	n/a
77604754	REC_WORD	wordpools/wasnorm_wordpool_less_exclusions.txt	LTP291	ltpFR	18	16	0	MAPLE	866	n/a	0	n/a	n/a	n/a	n/a	n/a
77606051	REC_WORD	wordpools/wasnorm_wordpool_less_exclusions.txt	LTP291	ltpFR	18	16	1	TREE	1502	n/a	0	n/a	n/a	n/a	n/a	n/a
77611354	REC_WORD	wordpools/wasnorm_wordpool_less_exclusions.txt	LTP291	ltpFR	18	16	0	CHISEL	305	n/a	2	n/a	n/a	n/a	n/a	n/a
77612702	REC_WORD	wordpools/wasnorm_wordpool_less_exclusions.txt	LTP291	ltpFR	18	16	1	BARN	89	n/a	0	n/a	n/a	n/a	n/a	n/a
77614009	REC_WORD	wordpools/wasnorm_wordpool_less_exclusions.txt	LTP291	ltpFR	18	16	1	DOUGHNUT	490	n/a	0	n/a	n/a	n/a	n/a	n/a
77616827	REC_WORD	wordpools/wasnorm_wordpool_less_exclusions.txt	LTP291	ltpFR	18	16	1	LUNCH	849	n/a	0	n/a	n/a	n/a	n/a	n/a
77634214	REC_WORD	wordpools/wasnorm_wordpool_less_exclusions.txt	LTP291	ltpFR	18	16	0	PUBLISHER	1137	n/a	0	n/a	n/a	n/a	n/a	n/a
78053897	REC_START	n/a	LTP291	ltpFR	18	1	n/a	n/a	n/a	n/a	n/a	n/a	n/a	n/a	n/a	n/a
78053930	RECOG_TARGET	n/a	LTP291	ltpFR	18	1	1	ZOO	1637	3	1	n/a	n/a	n/a	n/a	n/a
78055917	RECOG_RESP	n/a	LTP291	ltpFR	18	1	1	ZOO	1637	n/a	1	n/a	n/a	n/a	n/a	n/a
78057047	RECOG_CONF	n/a	LTP291	ltpFR	18	1	1	ZOO	1637	3	1	n/a	n/a	n/a	n/a	n/a
78059022	RECOG_LURE	n/a	LTP291	ltpFR	18	1	n/a	CHIP	303	3	n/a	n/a	n/a	n/a	n/a	n/a
78059802	RECOG_RESP	n/a	LTP291	ltpFR	18	1	n/a	CHIP	303	n/a	n/a	n/a	n/a	n/a	n/a	n/a
78060617	RECOG_CONF	n/a	LTP291	ltpFR	18	1	n/a	CHIP	303	3	n/a	n/a	n/a	n/a	n/a	n/a
78062316	RECOG_LURE	n/a	LTP291	ltpFR	18	1	n/a	PRISON	1127	1	n/a	n/a	n/a	n/a	n/a	n/a
78063462	RECOG_RESP	n/a	LTP291	ltpFR	18	1	n/a	PRISON	1127	n/a	n/a	n/a	n/a	n/a	n/a	n/a
78064167	RECOG_CONF	n/a	LTP291	ltpFR	18	1	n/a	PRISON	1127	1	n/a	n/a	n/a	n/a	n/a	n/a
78065962	RECOG_TARGET	n/a	LTP291	ltpFR	18	1	1	EWE	542	5	0	n/a	n/a	n/a	n/a	n/a
78066627	RECOG_RESP	n/a	LTP291	ltpFR	18	1	1	EWE	542	n/a	0	n/a	n/a	n/a	n/a	n/a
78067407	RECOG_CONF	n/a	LTP291	ltpFR	18	1	1	EWE	542	5	0	n/a	n/a	n/a	n/a	n/a
78069323	RECOG_TARGET	n/a	LTP291	ltpFR	18	1	0	PROFESSIONAL	1130	3	1	n/a	n/a	n/a	n/a	n/a
78070127	RECOG_RESP	n/a	LTP291	ltpFR	18	1	0	PROFESSIONAL	1130	n/a	1	n/a	n/a	n/a	n/a	n/a
78071097	RECOG_CONF	n/a	LTP291	ltpFR	18	1	0	PROFESSIONAL	1130	3	1	n/a	n/a	n/a	n/a	n/a
78072985	RECOG_TARGET	n/a	LTP291	ltpFR	18	1	-1	PIER	1063	4	-1	n/a	n/a	n/a	n/a	n/a
78073732	RECOG_RESP	n/a	LTP291	ltpFR	18	1	-1	PIER	1063	n/a	-1	n/a	n/a	n/a	n/a	n/a
78074357	RECOG_CONF	n/a	LTP291	ltpFR	18	1	-1	PIER	1063	4	-1	n/a	n/a	n/a	n/a	n/a
78076014	RECOG_TARGET	n/a	LTP291	ltpFR	18	1	1	RUG	1215	3	0	n/a	n/a	n/a	n/a	n/a
78076872	RECOG_RESP	n/a	LTP291	ltpFR	18	1	1	RUG	1215	n/a	0	n/a	n/a	n/a	n/a	n/a
78077467	RECOG_CONF	n/a	LTP291	ltpFR	18	1	1	RUG	1215	3	0	n/a	n/a	n/a	n/a	n/a
78079291	RECOG_TARGET	n/a	LTP291	ltpFR	18	1	-1	SECRETARY	1265	3	-1	n/a	n/a	n/a	n/a	n/a
78079887	RECOG_RESP	n/a	LTP291	ltpFR	18	1	-1	SECRETARY	1265	n/a	-1	n/a	n/a	n/a	n/a	n/a
78080657	RECOG_CONF	n/a	LTP291	ltpFR	18	1	-1	SECRETARY	1265	3	-1	n/a	n/a	n/a	n/a	n/a
78082470	RECOG_LURE	n/a	LTP291	ltpFR	18	1	n/a	PEBBLE	1035	2	n/a	n/a	n/a	n/a	n/a	n/a
78083272	RECOG_RESP	n/a	LTP291	ltpFR	18	1	n/a	PEBBLE	1035	n/a	n/a	n/a	n/a	n/a	n/a	n/a
78083967	RECOG_CONF	n/a	LTP291	ltpFR	18	1	n/a	PEBBLE	1035	2	n/a	n/a	n/a	n/a	n/a	n/a
78085715	RECOG_TARGET	n/a	LTP291	ltpFR	18	1	1	CARPENTER	246	3	0	n/a	n/a	n/a	n/a	n/a
78086662	RECOG_RESP	n/a	LTP291	ltpFR	18	1	1	CARPENTER	246	n/a	0	n/a	n/a	n/a	n/a	n/a
78087377	RECOG_CONF	n/a	LTP291	ltpFR	18	1	1	CARPENTER	246	3	0	n/a	n/a	n/a	n/a	n/a
78089176	RECOG_LURE	n/a	LTP291	ltpFR	18	1	n/a	HONEY	713	3	n/a	n/a	n/a	n/a	n/a	n/a
78089942	RECOG_RESP	n/a	LTP291	ltpFR	18	1	n/a	HONEY	713	n/a	n/a	n/a	n/a	n/a	n/a	n/a
78090647	RECOG_CONF	n/a	LTP291	ltpFR	18	1	n/a	HONEY	713	3	n/a	n/a	n/a	n/a	n/a	n/a
78092372	RECOG_TARGET	n/a	LTP291	ltpFR	18	1	1	ENVELOPE	537	5	0	n/a	n/a	n/a	n/a	n/a
78093072	RECOG_RESP	n/a	LTP291	ltpFR	18	1	1	ENVELOPE	537	n/a	0	n/a	n/a	n/a	n/a	n/a
78093647	RECOG_CONF	n/a	LTP291	ltpFR	18	1	1	ENVELOPE	537	5	0	n/a	n/a	n/a	n/a	n/a
78095500	RECOG_LURE	n/a	LTP291	ltpFR	18	1	n/a	SPOUSE	1358	4	n/a	n/a	n/a	n/a	n/a	n/a
78096197	RECOG_RESP	n/a	LTP291	ltpFR	18	1	n/a	SPOUSE	1358	n/a	n/a	n/a	n/a	n/a	n/a	n/a
78096807	RECOG_CONF	n/a	LTP291	ltpFR	18	1	n/a	SPOUSE	1358	4	n/a	n/a	n/a	n/a	n/a	n/a
78098695	RECOG_TARGET	n/a	LTP291	ltpFR	18	1	1	SANDPAPER	1231	5	0	n/a	n/a	n/a	n/a	n/a
78099437	RECOG_RESP	n/a	LTP291	ltpFR	18	1	1	SANDPAPER	1231	n/a	0	n/a	n/a	n/a	n/a	n/a
78100067	RECOG_CONF	n/a	LTP291	ltpFR	18	1	1	SANDPAPER	1231	5	0	n/a	n/a	n/a	n/a	n/a
78101891	RECOG_TARGET	n/a	LTP291	ltpFR	18	1	0	MONK	910	4	0	n/a	n/a	n/a	n/a	n/a
78102767	RECOG_RESP	n/a	LTP291	ltpFR	18	1	0	MONK	910	n/a	0	n/a	n/a	n/a	n/a	n/a
78103407	RECOG_CONF	n/a	LTP291	ltpFR	18	1	0	MONK	910	4	0	n/a	n/a	n/a	n/a	n/a
78105202	RECOG_TARGET	n/a	LTP291	ltpFR	18	1	0	UNICORN	1538	4	1	n/a	n/a	n/a	n/a	n/a
78105782	RECOG_RESP	n/a	LTP291	ltpFR	18	1	0	UNICORN	1538	n/a	1	n/a	n/a	n/a	n/a	n/a
78106357	RECOG_CONF	n/a	LTP291	ltpFR	18	1	0	UNICORN	1538	4	1	n/a	n/a	n/a	n/a	n/a
78108181	RECOG_LURE	n/a	LTP291	ltpFR	18	1	n/a	BOULEVARD	156	3	n/a	n/a	n/a	n/a	n/a	n/a
78108817	RECOG_RESP	n/a	LTP291	ltpFR	18	1	n/a	BOULEVARD	156	n/a	n/a	n/a	n/a	n/a	n/a	n/a
78109497	RECOG_CONF	n/a	LTP291	ltpFR	18	1	n/a	BOULEVARD	156	3	n/a	n/a	n/a	n/a	n/a	n/a
78111343	RECOG_LURE	n/a	LTP291	ltpFR	18	1	n/a	OVAL	990	3	n/a	n/a	n/a	n/a	n/a	n/a
78111962	RECOG_RESP	n/a	LTP291	ltpFR	18	1	n/a	OVAL	990	n/a	n/a	n/a	n/a	n/a	n/a	n/a
78112607	RECOG_CONF	n/a	LTP291	ltpFR	18	1	n/a	OVAL	990	3	n/a	n/a	n/a	n/a	n/a	n/a
78114372	RECOG_TARGET	n/a	LTP291	ltpFR	18	1	1	TOURIST	1488	3	1	n/a	n/a	n/a	n/a	n/a
78115162	RECOG_RESP	n/a	LTP291	ltpFR	18	1	1	TOURIST	1488	n/a	1	n/a	n/a	n/a	n/a	n/a
78115897	RECOG_CONF	n/a	LTP291	ltpFR	18	1	1	TOURIST	1488	3	1	n/a	n/a	n/a	n/a	n/a
78117700	RECOG_TARGET	n/a	LTP291	ltpFR	18	1	-1	SWATTER	1418	5	-1	n/a	n/a	n/a	n/a	n/a
78118447	RECOG_RESP	n/a	LTP291	ltpFR	18	1	-1	SWATTER	1418	n/a	-1	n/a	n/a	n/a	n/a	n/a
78119147	RECOG_CONF	n/a	LTP291	ltpFR	18	1	-1	SWATTER	1418	5	-1	n/a	n/a	n/a	n/a	n/a
78122591	REC_START	n/a	LTP291	ltpFR	18	2	n/a	n/a	n/a	n/a	n/a	n/a	n/a	n/a	n/a	n/a
78122626	RECOG_TARGET	n/a	LTP291	ltpFR	18	2	1	SAUSAGE	1238	3	0	n/a	n/a	n/a	n/a	n/a
78123296	RECOG_RESP	n/a	LTP291	ltpFR	18	2	1	SAUSAGE	1238	n/a	0	n/a	n/a	n/a	n/a	n/a
78123971	RECOG_CONF	n/a	LTP291	ltpFR	18	2	1	SAUSAGE	1238	3	0	n/a	n/a	n/a	n/a	n/a
78125655	RECOG_TARGET	n/a	LTP291	ltpFR	18	2	-1	PLUM	1090	2	-1	n/a	n/a	n/a	n/a	n/a
78126251	RECOG_RESP	n/a	LTP291	ltpFR	18	2	-1	PLUM	1090	n/a	-1	n/a	n/a	n/a	n/a	n/a
78127081	RECOG_CONF	n/a	LTP291	ltpFR	18	2	-1	PLUM	1090	2	-1	n/a	n/a	n/a	n/a	n/a
78128767	RECOG_TARGET	n/a	LTP291	ltpFR	18	2	1	COAL	332	5	0	n/a	n/a	n/a	n/a	n/a
78129471	RECOG_RESP	n/a	LTP291	ltpFR	18	2	1	COAL	332	n/a	0	n/a	n/a	n/a	n/a	n/a
78130171	RECOG_CONF	n/a	LTP291	ltpFR	18	2	1	COAL	332	5	0	n/a	n/a	n/a	n/a	n/a
78132063	RECOG_TARGET	n/a	LTP291	ltpFR	18	2	1	OLIVE	975	5	0	n/a	n/a	n/a	n/a	n/a
78132681	RECOG_RESP	n/a	LTP291	ltpFR	18	2	1	OLIVE	975	n/a	0	n/a	n/a	n/a	n/a	n/a
78133181	RECOG_CONF	n/a	LTP291	ltpFR	18	2	1	OLIVE	975	5	0	n/a	n/a	n/a	n/a	n/a
78135124	RECOG_TARGET	n/a	LTP291	ltpFR	18	2	0	SIGNATURE	1306	5	0	n/a	n/a	n/a	n/a	n/a
78135801	RECOG_RESP	n/a	LTP291	ltpFR	18	2	0	SIGNATURE	1306	n/a	0	n/a	n/a	n/a	n/a	n/a
78136381	RECOG_CONF	n/a	LTP291	ltpFR	18	2	0	SIGNATURE	1306	5	0	n/a	n/a	n/a	n/a	n/a
78138170	RECOG_TARGET	n/a	LTP291	ltpFR	18	2	1	COCKTAIL	338	4	0	n/a	n/a	n/a	n/a	n/a
78138831	RECOG_RESP	n/a	LTP291	ltpFR	18	2	1	COCKTAIL	338	n/a	0	n/a	n/a	n/a	n/a	n/a
78139421	RECOG_CONF	n/a	LTP291	ltpFR	18	2	1	COCKTAIL	338	4	0	n/a	n/a	n/a	n/a	n/a
78141332	RECOG_LURE	n/a	LTP291	ltpFR	18	2	n/a	COUSIN	392	1	n/a	n/a	n/a	n/a	n/a	n/a
78142876	RECOG_RESP	n/a	LTP291	ltpFR	18	2	n/a	COUSIN	392	n/a	n/a	n/a	n/a	n/a	n/a	n/a
78143571	RECOG_CONF	n/a	LTP291	ltpFR	18	2	n/a	COUSIN	392	1	n/a	n/a	n/a	n/a	n/a	n/a
78145426	RECOG_TARGET	n/a	LTP291	ltpFR	18	2	-1	PILL	1068	2	-1	n/a	n/a	n/a	n/a	n/a
78146156	RECOG_RESP	n/a	LTP291	ltpFR	18	2	-1	PILL	1068	n/a	-1	n/a	n/a	n/a	n/a	n/a
78146811	RECOG_CONF	n/a	LTP291	ltpFR	18	2	-1	PILL	1068	2	-1	n/a	n/a	n/a	n/a	n/a
78148554	RECOG_TARGET	n/a	LTP291	ltpFR	18	2	1	COUNTY	389	2	0	n/a	n/a	n/a	n/a	n/a
78149181	RECOG_RESP	n/a	LTP291	ltpFR	18	2	1	COUNTY	389	n/a	0	n/a	n/a	n/a	n/a	n/a
78149881	RECOG_CONF	n/a	LTP291	ltpFR	18	2	1	COUNTY	389	2	0	n/a	n/a	n/a	n/a	n/a
78151533	RECOG_TARGET	n/a	LTP291	ltpFR	18	2	1	BROCCOLI	176	2	0	n/a	n/a	n/a	n/a	n/a
78152186	RECOG_RESP	n/a	LTP291	ltpFR	18	2	1	BROCCOLI	176	n/a	0	n/a	n/a	n/a	n/a	n/a
78152841	RECOG_CONF	n/a	LTP291	ltpFR	18	2	1	BROCCOLI	176	2	0	n/a	n/a	n/a	n/a	n/a
78154495	RECOG_TARGET	n/a	LTP291	ltpFR	18	2	0	LIMOUSINE	824	4	0	n/a	n/a	n/a	n/a	n/a
78155086	RECOG_RESP	n/a	LTP291	ltpFR	18	2	0	LIMOUSINE	824	n/a	0	n/a	n/a	n/a	n/a	n/a
78155501	RECOG_CONF	n/a	LTP291	ltpFR	18	2	0	LIMOUSINE	824	4	0	n/a	n/a	n/a	n/a	n/a
78157558	RECOG_TARGET	n/a	LTP291	ltpFR	18	2	0	COCOON	339	4	1	n/a	n/a	n/a	n/a	n/a
78158296	RECOG_RESP	n/a	LTP291	ltpFR	18	2	0	COCOON	339	n/a	1	n/a	n/a	n/a	n/a	n/a
78158841	RECOG_CONF	n/a	LTP291	ltpFR	18	2	0	COCOON	339	4	1	n/a	n/a	n/a	n/a	n/a
78160636	RECOG_TARGET	n/a	LTP291	ltpFR	18	2	1	BROOK	177	2	0	n/a	n/a	n/a	n/a	n/a
78161256	RECOG_RESP	n/a	LTP291	ltpFR	18	2	1	BROOK	177	n/a	0	n/a	n/a	n/a	n/a	n/a
78161901	RECOG_CONF	n/a	LTP291	ltpFR	18	2	1	BROOK	177	2	0	n/a	n/a	n/a	n/a	n/a
78163632	RECOG_TARGET	n/a	LTP291	ltpFR	18	2	0	NECKLACE	940	2	0	n/a	n/a	n/a	n/a	n/a
78164281	RECOG_RESP	n/a	LTP291	ltpFR	18	2	0	NECKLACE	940	n/a	0	n/a	n/a	n/a	n/a	n/a
78164891	RECOG_CONF	n/a	LTP291	ltpFR	18	2	0	NECKLACE	940	2	0	n/a	n/a	n/a	n/a	n/a
78166711	RECOG_TARGET	n/a	LTP291	ltpFR	18	2	0	WHEAT	1602	4	0	n/a	n/a	n/a	n/a	n/a
78167281	RECOG_RESP	n/a	LTP291	ltpFR	18	2	0	WHEAT	1602	n/a	0	n/a	n/a	n/a	n/a	n/a
78167871	RECOG_CONF	n/a	LTP291	ltpFR	18	2	0	WHEAT	1602	4	0	n/a	n/a	n/a	n/a	n/a
78169673	RECOG_TARGET	n/a	LTP291	ltpFR	18	2	0	COLT	349	5	1	n/a	n/a	n/a	n/a	n/a
78170231	RECOG_RESP	n/a	LTP291	ltpFR	18	2	0	COLT	349	n/a	1	n/a	n/a	n/a	n/a	n/a
78170791	RECOG_CONF	n/a	LTP291	ltpFR	18	2	0	COLT	349	5	1	n/a	n/a	n/a	n/a	n/a
78172635	RECOG_TARGET	n/a	LTP291	ltpFR	18	2	0	UNCLE	1536	5	2	n/a	n/a	n/a	n/a	n/a
78173156	RECOG_RESP	n/a	LTP291	ltpFR	18	2	0	UNCLE	1536	n/a	2	n/a	n/a	n/a	n/a	n/a
78173701	RECOG_CONF	n/a	LTP291	ltpFR	18	2	0	UNCLE	1536	5	2	n/a	n/a	n/a	n/a	n/a
78175614	RECOG_TARGET	n/a	LTP291	ltpFR	18	2	0	CITY	314	3	1	n/a	n/a	n/a	n/a	n/a
78176561	RECOG_RESP	n/a	LTP291	ltpFR	18	2	0	CITY	314	n/a	1	n/a	n/a	n/a	n/a	n/a
78177161	RECOG_CONF	n/a	LTP291	ltpFR	18	2	0	CITY	314	3	1	n/a	n/a	n/a	n/a	n/a
78179010	RECOG_TARGET	n/a	LTP291	ltpFR	18	2	-1	MUSTARD	935	2	-1	n/a	n/a	n/a	n/a	n/a
78179616	RECOG_RESP	n/a	LTP291	ltpFR	18	2	-1	MUSTARD	935	n/a	-1	n/a	n/a	n/a	n/a	n/a
78180211	RECOG_CONF	n/a	LTP291	ltpFR	18	2	-1	MUSTARD	935	2	-1	n/a	n/a	n/a	n/a	n/a
78182089	RECOG_TARGET	n/a	LTP291	ltpFR	18	2	1	TAR	1435	5	0	n/a	n/a	n/a	n/a	n/a
78182621	RECOG_RESP	n/a	LTP291	ltpFR	18	2	1	TAR	1435	n/a	0	n/a	n/a	n/a	n/a	n/a
78183121	RECOG_CONF	n/a	LTP291	ltpFR	18	2	1	TAR	1435	5	0	n/a	n/a	n/a	n/a	n/a
78186594	REC_START	n/a	LTP291	ltpFR	18	3	n/a	n/a	n/a	n/a	n/a	n/a	n/a	n/a	n/a	n/a
78186631	RECOG_LURE	n/a	LTP291	ltpFR	18	3	n/a	SPIT	1354	3	n/a	n/a	n/a	n/a	n/a	n/a
78187434	RECOG_RESP	n/a	LTP291	ltpFR	18	3	n/a	SPIT	1354	n/a	n/a	n/a	n/a	n/a	n/a	n/a
78188014	RECOG_CONF	n/a	LTP291	ltpFR	18	3	n/a	SPIT	1354	3	n/a	n/a	n/a	n/a	n/a	n/a
78189826	RECOG_TARGET	n/a	LTP291	ltpFR	18	3	0	DIRECTOR	471	2	1	n/a	n/a	n/a	n/a	n/a
78190509	RECOG_RESP	n/a	LTP291	ltpFR	18	3	0	DIRECTOR	471	n/a	1	n/a	n/a	n/a	n/a	n/a
78191324	RECOG_CONF	n/a	LTP291	ltpFR	18	3	0	DIRECTOR	471	2	1	n/a	n/a	n/a	n/a	n/a
78193022	RECOG_TARGET	n/a	LTP291	ltpFR	18	3	1	PIT	1077	3	2	n/a	n/a	n/a	n/a	n/a
78193634	RECOG_RESP	n/a	LTP291	ltpFR	18	3	1	PIT	1077	n/a	2	n/a	n/a	n/a	n/a	n/a
78194244	RECOG_CONF	n/a	LTP291	ltpFR	18	3	1	PIT	1077	3	2	n/a	n/a	n/a	n/a	n/a
78195968	RECOG_LURE	n/a	LTP291	ltpFR	18	3	n/a	GHETTO	633	5	n/a	n/a	n/a	n/a	n/a	n/a
78196644	RECOG_RESP	n/a	LTP291	ltpFR	18	3	n/a	GHETTO	633	n/a	n/a	n/a	n/a	n/a	n/a	n/a
78197114	RECOG_CONF	n/a	LTP291	ltpFR	18	3	n/a	GHETTO	633	5	n/a	n/a	n/a	n/a	n/a	n/a
78199063	RECOG_LURE	n/a	LTP291	ltpFR	18	3	n/a	LOFT	840	2	n/a	n/a	n/a	n/a	n/a	n/a
78199729	RECOG_RESP	n/a	LTP291	ltpFR	18	3	n/a	LOFT	840	n/a	n/a	n/a	n/a	n/a	n/a	n/a
78200364	RECOG_CONF	n/a	LTP291	ltpFR	18	3	n/a	LOFT	840	2	n/a	n/a	n/a	n/a	n/a	n/a
78202124	RECOG_TARGET	n/a	LTP291	ltpFR	18	3	1	CATCHER	258	3	1	n/a	n/a	n/a	n/a	n/a
78202944	RECOG_RESP	n/a	LTP291	ltpFR	18	3	1	CATCHER	258	n/a	1	n/a	n/a	n/a	n/a	n/a
78203524	RECOG_CONF	n/a	LTP291	ltpFR	18	3	1	CATCHER	258	3	1	n/a	n/a	n/a	n/a	n/a
78205303	RECOG_TARGET	n/a	LTP291	ltpFR	18	3	-1	ROOT	1210	3	-1	n/a	n/a	n/a	n/a	n/a
78205959	RECOG_RESP	n/a	LTP291	ltpFR	18	3	-1	ROOT	1210	n/a	-1	n/a	n/a	n/a	n/a	n/a
78206514	RECOG_CONF	n/a	LTP291	ltpFR	18	3	-1	ROOT	1210	3	-1	n/a	n/a	n/a	n/a	n/a
78208199	RECOG_TARGET	n/a	LTP291	ltpFR	18	3	0	CORD	379	3	0	n/a	n/a	n/a	n/a	n/a
78209389	RECOG_RESP	n/a	LTP291	ltpFR	18	3	0	CORD	379	n/a	0	n/a	n/a	n/a	n/a	n/a
78210004	RECOG_CONF	n/a	LTP291	ltpFR	18	3	0	CORD	379	3	0	n/a	n/a	n/a	n/a	n/a
78211843	RECOG_TARGET	n/a	LTP291	ltpFR	18	3	0	CIGARETTE	309	4	0	n/a	n/a	n/a	n/a	n/a
78212774	RECOG_RESP	n/a	LTP291	ltpFR	18	3	0	CIGARETTE	309	n/a	0	n/a	n/a	n/a	n/a	n/a
78213364	RECOG_CONF	n/a	LTP291	ltpFR	18	3	0	CIGARETTE	309	4	0	n/a	n/a	n/a	n/a	n/a
78215155	RECOG_TARGET	n/a	LTP291	ltpFR	18	3	-1	ATTORNEY	58	2	-1	n/a	n/a	n/a	n/a	n/a
78216009	RECOG_RESP	n/a	LTP291	ltpFR	18	3	-1	ATTORNEY	58	n/a	-1	n/a	n/a	n/a	n/a	n/a
78216604	RECOG_CONF	n/a	LTP291	ltpFR	18	3	-1	ATTORNEY	58	2	-1	n/a	n/a	n/a	n/a	n/a
78218350	RECOG_TARGET	n/a	LTP291	ltpFR	18	3	1	VET	1560	5	0	n/a	n/a	n/a	n/a	n/a
78219024	RECOG_RESP	n/a	LTP291	ltpFR	18	3	1	VET	1560	n/a	0	n/a	n/a	n/a	n/a	n/a
78219534	RECOG_CONF	n/a	LTP291	ltpFR	18	3	1	VET	1560	5	0	n/a	n/a	n/a	n/a	n/a
78221346	RECOG_TARGET	n/a	LTP291	ltpFR	18	3	0	CORPORATION	382	1	0	n/a	n/a	n/a	n/a	n/a
78222094	RECOG_RESP	n/a	LTP291	ltpFR	18	3	0	CORPORATION	382	n/a	0	n/a	n/a	n/a	n/a	n/a
78222814	RECOG_CONF	n/a	LTP291	ltpFR	18	3	0	CORPORATION	382	1	0	n/a	n/a	n/a	n/a	n/a
78224607	RECOG_TARGET	n/a	LTP291	ltpFR	18	3	1	LOG	841	2	0	n/a	n/a	n/a	n/a	n/a
78225299	RECOG_RESP	n/a	LTP291	ltpFR	18	3	1	LOG	841	n/a	0	n/a	n/a	n/a	n/a	n/a
78225924	RECOG_CONF	n/a	LTP291	ltpFR	18	3	1	LOG	841	2	0	n/a	n/a	n/a	n/a	n/a
78227620	RECOG_TARGET	n/a	LTP291	ltpFR	18	3	0	TURNIP	1521	4	0	n/a	n/a	n/a	n/a	n/a
78228249	RECOG_RESP	n/a	LTP291	ltpFR	18	3	0	TURNIP	1521	n/a	0	n/a	n/a	n/a	n/a	n/a
78228834	RECOG_CONF	n/a	LTP291	ltpFR	18	3	0	TURNIP	1521	4	0	n/a	n/a	n/a	n/a	n/a
78230715	RECOG_TARGET	n/a	LTP291	ltpFR	18	3	-1	ANKLE	24	5	-1	n/a	n/a	n/a	n/a	n/a
78231264	RECOG_RESP	n/a	LTP291	ltpFR	18	3	-1	ANKLE	24	n/a	-1	n/a	n/a	n/a	n/a	n/a
78231684	RECOG_CONF	n/a	LTP291	ltpFR	18	3	-1	ANKLE	24	5	-1	n/a	n/a	n/a	n/a	n/a
78233544	RECOG_TARGET	n/a	LTP291	ltpFR	18	3	0	SLACKS	1323	4	0	n/a	n/a	n/a	n/a	n/a
78234209	RECOG_RESP	n/a	LTP291	ltpFR	18	3	0	SLACKS	1323	n/a	0	n/a	n/a	n/a	n/a	n/a
78234734	RECOG_CONF	n/a	LTP291	ltpFR	18	3	0	SLACKS	1323	4	0	n/a	n/a	n/a	n/a	n/a
78236606	RECOG_TARGET	n/a	LTP291	ltpFR	18	3	1	BARRACUDA	90	4	1	n/a	n/a	n/a	n/a	n/a
78237169	RECOG_RESP	n/a	LTP291	ltpFR	18	3	1	BARRACUDA	90	n/a	1	n/a	n/a	n/a	n/a	n/a
78237734	RECOG_CONF	n/a	LTP291	ltpFR	18	3	1	BARRACUDA	90	4	1	n/a	n/a	n/a	n/a	n/a
78239585	RECOG_TARGET	n/a	LTP291	ltpFR	18	3	1	COACH	331	1	0	n/a	n/a	n/a	n/a	n/a
78240339	RECOG_RESP	n/a	LTP291	ltpFR	18	3	1	COACH	331	n/a	0	n/a	n/a	n/a	n/a	n/a
78241064	RECOG_CONF	n/a	LTP291	ltpFR	18	3	1	COACH	331	1	0	n/a	n/a	n/a	n/a	n/a
78242897	RECOG_TARGET	n/a	LTP291	ltpFR	18	3	1	TAVERN	1437	4	0	n/a	n/a	n/a	n/a	n/a
78243464	RECOG_RESP	n/a	LTP291	ltpFR	18	3	1	TAVERN	1437	n/a	0	n/a	n/a	n/a	n/a	n/a
78244024	RECOG_CONF	n/a	LTP291	ltpFR	18	3	1	TAVERN	1437	4	0	n/a	n/a	n/a	n/a	n/a
78245826	RECOG_TARGET	n/a	LTP291	ltpFR	18	3	0	FOREST	593	1	0	n/a	n/a	n/a	n/a	n/a
78246539	RECOG_RESP	n/a	LTP291	ltpFR	18	3	0	FOREST	593	n/a	0	n/a	n/a	n/a	n/a	n/a
78247124	RECOG_CONF	n/a	LTP291	ltpFR	18	3	0	FOREST	593	1	0	n/a	n/a	n/a	n/a	n/a
78250121	REC_START	n/a	LTP291	ltpFR	18	4	n/a	n/a	n/a	n/a	n/a	n/a	n/a	n/a	n/a	n/a
78250153	RECOG_TARGET	n/a	LTP291	ltpFR	18	4	1	BENCH	121	5	0	n/a	n/a	n/a	n/a	n/a
78250966	RECOG_RESP	n/a	LTP291	ltpFR	18	4	1	BENCH	121	n/a	0	n/a	n/a	n/a	n/a	n/a
78251421	RECOG_CONF	n/a	LTP291	ltpFR	18	4	1	BENCH	121	5	0	n/a	n/a	n/a	n/a	n/a
78253298	RECOG_TARGET	n/a	LTP291	ltpFR	18	4	0	PUBLISHER	1137	2	0	n/a	n/a	n/a	n/a	n/a
78253946	RECOG_RESP	n/a	LTP291	ltpFR	18	4	0	PUBLISHER	1137	n/a	0	n/a	n/a	n/a	n/a	n/a
78254531	RECOG_CONF	n/a	LTP291	ltpFR	18	4	0	PUBLISHER	1137	2	0	n/a	n/a	n/a	n/a	n/a
78256243	RECOG_TARGET	n/a	LTP291	ltpFR	18	4	0	FOOTBALL	591	5	0	n/a	n/a	n/a	n/a	n/a
78256806	RECOG_RESP	n/a	LTP291	ltpFR	18	4	0	FOOTBALL	591	n/a	0	n/a	n/a	n/a	n/a	n/a
78257231	RECOG_CONF	n/a	LTP291	ltpFR	18	4	0	FOOTBALL	591	5	0	n/a	n/a	n/a	n/a	n/a
78259139	RECOG_TARGET	n/a	LTP291	ltpFR	18	4	0	BIOLOGIST	128	2	2	n/a	n/a	n/a	n/a	n/a
78259796	RECOG_RESP	n/a	LTP291	ltpFR	18	4	0	BIOLOGIST	128	n/a	2	n/a	n/a	n/a	n/a	n/a
78260361	RECOG_CONF	n/a	LTP291	ltpFR	18	4	0	BIOLOGIST	128	2	2	n/a	n/a	n/a	n/a	n/a
78262086	RECOG_TARGET	n/a	LTP291	ltpFR	18	4	-1	VACUUM	1543	5	-1	n/a	n/a	n/a	n/a	n/a
78262611	RECOG_RESP	n/a	LTP291	ltpFR	18	4	-1	VACUUM	1543	n/a	-1	n/a	n/a	n/a	n/a	n/a
78263111	RECOG_CONF	n/a	LTP291	ltpFR	18	4	-1	VACUUM	1543	5	-1	n/a	n/a	n/a	n/a	n/a
78264932	RECOG_TARGET	n/a	LTP291	ltpFR	18	4	0	POWDER	1117	3	0	n/a	n/a	n/a	n/a	n/a
78265581	RECOG_RESP	n/a	LTP291	ltpFR	18	4	0	POWDER	1117	n/a	0	n/a	n/a	n/a	n/a	n/a
78266401	RECOG_CONF	n/a	LTP291	ltpFR	18	4	0	POWDER	1117	3	0	n/a	n/a	n/a	n/a	n/a
78268093	RECOG_TARGET	n/a	LTP291	ltpFR	18	4	-1	EYELASH	546	3	-1	n/a	n/a	n/a	n/a	n/a
78268841	RECOG_RESP	n/a	LTP291	ltpFR	18	4	-1	EYELASH	546	n/a	-1	n/a	n/a	n/a	n/a	n/a
78269531	RECOG_CONF	n/a	LTP291	ltpFR	18	4	-1	EYELASH	546	3	-1	n/a	n/a	n/a	n/a	n/a
78271121	RECOG_TARGET	n/a	LTP291	ltpFR	18	4	1	SPIDER	1351	5	0	n/a	n/a	n/a	n/a	n/a
78271726	RECOG_RESP	n/a	LTP291	ltpFR	18	4	1	SPIDER	1351	n/a	0	n/a	n/a	n/a	n/a	n/a
78272251	RECOG_CONF	n/a	LTP291	ltpFR	18	4	1	SPIDER	1351	5	0	n/a	n/a	n/a	n/a	n/a
78274085	RECOG_TARGET	n/a	LTP291	ltpFR	18	4	1	SOFA	1342	1	1	n/a	n/a	n/a	n/a	n/a
78274901	RECOG_RESP	n/a	LTP291	ltpFR	18	4	1	SOFA	1342	n/a	1	n/a	n/a	n/a	n/a	n/a
78275581	RECOG_CONF	n/a	LTP291	ltpFR	18	4	1	SOFA	1342	1	1	n/a	n/a	n/a	n/a	n/a
78277345	RECOG_TARGET	n/a	LTP291	ltpFR	18	4	-1	HAMBURGER	679	4	-1	n/a	n/a	n/a	n/a	n/a
78278021	RECOG_RESP	n/a	LTP291	ltpFR	18	4	-1	HAMBURGER	679	n/a	-1	n/a	n/a	n/a	n/a	n/a
78278661	RECOG_CONF	n/a	LTP291	ltpFR	18	4	-1	HAMBURGER	679	4	-1	n/a	n/a	n/a	n/a	n/a
78280357	RECOG_TARGET	n/a	LTP291	ltpFR	18	4	-1	STOVE	1388	2	-1	n/a	n/a	n/a	n/a	n/a
78280936	RECOG_RESP	n/a	LTP291	ltpFR	18	4	-1	STOVE	1388	n/a	-1	n/a	n/a	n/a	n/a	n/a
78281571	RECOG_CONF	n/a	LTP291	ltpFR	18	4	-1	STOVE	1388	2	-1	n/a	n/a	n/a	n/a	n/a
78283386	RECOG_LURE	n/a	LTP291	ltpFR	18	4	n/a	BOTTLE	153	3	n/a	n/a	n/a	n/a	n/a	n/a
78284136	RECOG_RESP	n/a	LTP291	ltpFR	18	4	n/a	BOTTLE	153	n/a	n/a	n/a	n/a	n/a	n/a	n/a
78284761	RECOG_CONF	n/a	LTP291	ltpFR	18	4	n/a	BOTTLE	153	3	n/a	n/a	n/a	n/a	n/a	n/a
78286465	RECOG_TARGET	n/a	LTP291	ltpFR	18	4	1	LUNCH	849	3	0	n/a	n/a	n/a	n/a	n/a
78287136	RECOG_RESP	n/a	LTP291	ltpFR	18	4	1	LUNCH	849	n/a	0	n/a	n/a	n/a	n/a	n/a
78287711	RECOG_CONF	n/a	LTP291	ltpFR	18	4	1	LUNCH	849	3	0	n/a	n/a	n/a	n/a	n/a
78289677	RECOG_TARGET	n/a	LTP291	ltpFR	18	4	-1	LEAF	808	4	-1	n/a	n/a	n/a	n/a	n/a
78290301	RECOG_RESP	n/a	LTP291	ltpFR	18	4	-1	LEAF	808	n/a	-1	n/a	n/a	n/a	n/a	n/a
78290861	RECOG_CONF	n/a	LTP291	ltpFR	18	4	-1	LEAF	808	4	-1	n/a	n/a	n/a	n/a	n/a
78292689	RECOG_TARGET	n/a	LTP291	ltpFR	18	4	0	BINDER	127	4	0	n/a	n/a	n/a	n/a	n/a
78293231	RECOG_RESP	n/a	LTP291	ltpFR	18	4	0	BINDER	127	n/a	0	n/a	n/a	n/a	n/a	n/a
78293571	RECOG_CONF	n/a	LTP291	ltpFR	18	4	0	BINDER	127	4	0	n/a	n/a	n/a	n/a	n/a
78295651	RECOG_TARGET	n/a	LTP291	ltpFR	18	4	1	BARN	89	3	0	n/a	n/a	n/a	n/a	n/a
78296266	RECOG_RESP	n/a	LTP291	ltpFR	18	4	1	BARN	89	n/a	0	n/a	n/a	n/a	n/a	n/a
78296891	RECOG_CONF	n/a	LTP291	ltpFR	18	4	1	BARN	89	3	0	n/a	n/a	n/a	n/a	n/a
78298680	RECOG_TARGET	n/a	LTP291	ltpFR	18	4	1	ANIMAL	23	3	1	n/a	n/a	n/a	n/a	n/a
78299286	RECOG_RESP	n/a	LTP291	ltpFR	18	4	1	ANIMAL	23	n/a	1	n/a	n/a	n/a	n/a	n/a
78299861	RECOG_CONF	n/a	LTP291	ltpFR	18	4	1	ANIMAL	23	3	1	n/a	n/a	n/a	n/a	n/a
78301742	RECOG_TARGET	n/a	LTP291	ltpFR	18	4	1	SALMON	1227	5	1	n/a	n/a	n/a	n/a	n/a
78302281	RECOG_RESP	n/a	LTP291	ltpFR	18	4	1	SALMON	1227	n/a	1	n/a	n/a	n/a	n/a	n/a
78302701	RECOG_CONF	n/a	LTP291	ltpFR	18	4	1	SALMON	1227	5	1	n/a	n/a	n/a	n/a	n/a
78304671	RECOG_TARGET	n/a	LTP291	ltpFR	18	4	0	OPERATOR	979	3	0	n/a	n/a	n/a	n/a	n/a
78305626	RECOG_RESP	n/a	LTP291	ltpFR	18	4	0	OPERATOR	979	n/a	0	n/a	n/a	n/a	n/a	n/a
78306341	RECOG_CONF	n/a	LTP291	ltpFR	18	4	0	OPERATOR	979	3	0	n/a	n/a	n/a	n/a	n/a
78308099	RECOG_TARGET	n/a	LTP291	ltpFR	18	4	-1	POLE	1097	2	-1	n/a	n/a	n/a	n/a	n/a
78308696	RECOG_RESP	n/a	LTP291	ltpFR	18	4	-1	POLE	1097	n/a	-1	n/a	n/a	n/a	n/a	n/a
78309261	RECOG_CONF	n/a	LTP291	ltpFR	18	4	-1	POLE	1097	2	-1	n/a	n/a	n/a	n/a	n/a
78312362	REC_START	n/a	LTP291	ltpFR	18	5	n/a	n/a	n/a	n/a	n/a	n/a	n/a	n/a	n/a	n/a
78312393	RECOG_TARGET	n/a	LTP291	ltpFR	18	5	0	SALOON	1228	3	0	n/a	n/a	n/a	n/a	n/a
78312947	RECOG_RESP	n/a	LTP291	ltpFR	18	5	0	SALOON	1228	n/a	0	n/a	n/a	n/a	n/a	n/a
78313472	RECOG_CONF	n/a	LTP291	ltpFR	18	5	0	SALOON	1228	3	0	n/a	n/a	n/a	n/a	n/a
78315272	RECOG_TARGET	n/a	LTP291	ltpFR	18	5	0	SPICE	1350	4	0	n/a	n/a	n/a	n/a	n/a
78315852	RECOG_RESP	n/a	LTP291	ltpFR	18	5	0	SPICE	1350	n/a	0	n/a	n/a	n/a	n/a	n/a
78316392	RECOG_CONF	n/a	LTP291	ltpFR	18	5	0	SPICE	1350	4	0	n/a	n/a	n/a	n/a	n/a
78318251	RECOG_TARGET	n/a	LTP291	ltpFR	18	5	1	WOMAN	1620	4	0	n/a	n/a	n/a	n/a	n/a
78318792	RECOG_RESP	n/a	LTP291	ltpFR	18	5	1	WOMAN	1620	n/a	0	n/a	n/a	n/a	n/a	n/a
78319212	RECOG_CONF	n/a	LTP291	ltpFR	18	5	1	WOMAN	1620	4	0	n/a	n/a	n/a	n/a	n/a
78321081	RECOG_TARGET	n/a	LTP291	ltpFR	18	5	-1	INSECT	740	5	-1	n/a	n/a	n/a	n/a	n/a
78321682	RECOG_RESP	n/a	LTP291	ltpFR	18	5	-1	INSECT	740	n/a	-1	n/a	n/a	n/a	n/a	n/a
78322152	RECOG_CONF	n/a	LTP291	ltpFR	18	5	-1	INSECT	740	5	-1	n/a	n/a	n/a	n/a	n/a
78324027	RECOG_TARGET	n/a	LTP291	ltpFR	18	5	0	WAITRESS	1581	5	1	n/a	n/a	n/a	n/a	n/a
78324667	RECOG_RESP	n/a	LTP291	ltpFR	18	5	0	WAITRESS	1581	n/a	1	n/a	n/a	n/a	n/a	n/a
78325232	RECOG_CONF	n/a	LTP291	ltpFR	18	5	0	WAITRESS	1581	5	1	n/a	n/a	n/a	n/a	n/a
78327121	RECOG_TARGET	n/a	LTP291	ltpFR	18	5	-1	HIGHWAY	707	5	-1	n/a	n/a	n/a	n/a	n/a
78327712	RECOG_RESP	n/a	LTP291	ltpFR	18	5	-1	HIGHWAY	707	n/a	-1	n/a	n/a	n/a	n/a	n/a
78328092	RECOG_CONF	n/a	LTP291	ltpFR	18	5	-1	HIGHWAY	707	5	-1	n/a	n/a	n/a	n/a	n/a
78330166	RECOG_TARGET	n/a	LTP291	ltpFR	18	5	1	DIGGER	464	3	0	n/a	n/a	n/a	n/a	n/a
78330732	RECOG_RESP	n/a	LTP291	ltpFR	18	5	1	DIGGER	464	n/a	0	n/a	n/a	n/a	n/a	n/a
78331272	RECOG_CONF	n/a	LTP291	ltpFR	18	5	1	DIGGER	464	3	0	n/a	n/a	n/a	n/a	n/a
78333162	RECOG_TARGET	n/a	LTP291	ltpFR	18	5	0	CONTRACT	368	3	0	n/a	n/a	n/a	n/a	n/a
78333747	RECOG_RESP	n/a	LTP291	ltpFR	18	5	0	CONTRACT	368	n/a	0	n/a	n/a	n/a	n/a	n/a
78334362	RECOG_CONF	n/a	LTP291	ltpFR	18	5	0	CONTRACT	368	3	0	n/a	n/a	n/a	n/a	n/a
78335992	RECOG_TARGET	n/a	LTP291	ltpFR	18	5	0	FIELD	562	5	0	n/a	n/a	n/a	n/a	n/a
78336662	RECOG_RESP	n/a	LTP291	ltpFR	18	5	0	FIELD	562	n/a	0	n/a	n/a	n/a	n/a	n/a
78337212	RECOG_CONF	n/a	LTP291	ltpFR	18	5	0	FIELD	562	5	0	n/a	n/a	n/a	n/a	n/a
78339087	RECOG_TARGET	n/a	LTP291	ltpFR	18	5	1	PASSAGE	1019	2	0	n/a	n/a	n/a	n/a	n/a
78340002	RECOG_RESP	n/a	LTP291	ltpFR	18	5	1	PASSAGE	1019	n/a	0	n/a	n/a	n/a	n/a	n/a
78340562	RECOG_CONF	n/a	LTP291	ltpFR	18	5	1	PASSAGE	1019	2	0	n/a	n/a	n/a	n/a	n/a
78342381	RECOG_TARGET	n/a	LTP291	ltpFR	18	5	1	GEM	629	5	2	n/a	n/a	n/a	n/a	n/a
78342942	RECOG_RESP	n/a	LTP291	ltpFR	18	5	1	GEM	629	n/a	2	n/a	n/a	n/a	n/a	n/a
78343342	RECOG_CONF	n/a	LTP291	ltpFR	18	5	1	GEM	629	5	2	n/a	n/a	n/a	n/a	n/a
78345244	RECOG_TARGET	n/a	LTP291	ltpFR	18	5	1	DRAGON	492	5	0	n/a	n/a	n/a	n/a	n/a
78345792	RECOG_RESP	n/a	LTP291	ltpFR	18	5	1	DRAGON	492	n/a	0	n/a	n/a	n/a	n/a	n/a
78346212	RECOG_CONF	n/a	LTP291	ltpFR	18	5	1	DRAGON	492	5	0	n/a	n/a	n/a	n/a	n/a
78348106	RECOG_LURE	n/a	LTP291	ltpFR	18	5	n/a	VENUS	1557	2	n/a	n/a	n/a	n/a	n/a	n/a
78349357	RECOG_RESP	n/a	LTP291	ltpFR	18	5	n/a	VENUS	1557	n/a	n/a	n/a	n/a	n/a	n/a	n/a
78349992	RECOG_CONF	n/a	LTP291	ltpFR	18	5	n/a	VENUS	1557	2	n/a	n/a	n/a	n/a	n/a	n/a
78351751	RECOG_LURE	n/a	LTP291	ltpFR	18	5	n/a	LIEUTENANT	818	1	n/a	n/a	n/a	n/a	n/a	n/a
78352672	RECOG_RESP	n/a	LTP291	ltpFR	18	5	n/a	LIEUTENANT	818	n/a	n/a	n/a	n/a	n/a	n/a	n/a
78353292	RECOG_CONF	n/a	LTP291	ltpFR	18	5	n/a	LIEUTENANT	818	1	n/a	n/a	n/a	n/a	n/a	n/a
78355063	RECOG_TARGET	n/a	LTP291	ltpFR	18	5	1	PILLOW	1069	3	0	n/a	n/a	n/a	n/a	n/a
78355647	RECOG_RESP	n/a	LTP291	ltpFR	18	5	1	PILLOW	1069	n/a	0	n/a	n/a	n/a	n/a	n/a
78356252	RECOG_CONF	n/a	LTP291	ltpFR	18	5	1	PILLOW	1069	3	0	n/a	n/a	n/a	n/a	n/a
78358009	RECOG_LURE	n/a	LTP291	ltpFR	18	5	n/a	THUMB	1462	3	n/a	n/a	n/a	n/a	n/a	n/a
78358882	RECOG_RESP	n/a	LTP291	ltpFR	18	5	n/a	THUMB	1462	n/a	n/a	n/a	n/a	n/a	n/a	n/a
78359472	RECOG_CONF	n/a	LTP291	ltpFR	18	5	n/a	THUMB	1462	3	n/a	n/a	n/a	n/a	n/a	n/a
78361320	RECOG_TARGET	n/a	LTP291	ltpFR	18	5	0	CART	250	4	0	n/a	n/a	n/a	n/a	n/a
78362072	RECOG_RESP	n/a	LTP291	ltpFR	18	5	0	CART	250	n/a	0	n/a	n/a	n/a	n/a	n/a
78362642	RECOG_CONF	n/a	LTP291	ltpFR	18	5	0	CART	250	4	0	n/a	n/a	n/a	n/a	n/a
78364449	RECOG_TARGET	n/a	LTP291	ltpFR	18	5	1	WATERFALL	1595	5	0	n/a	n/a	n/a	n/a	n/a
78365117	RECOG_RESP	n/a	LTP291	ltpFR	18	5	1	WATERFALL	1595	n/a	0	n/a	n/a	n/a	n/a	n/a
78365542	RECOG_CONF	n/a	LTP291	ltpFR	18	5	1	WATERFALL	1595	5	0	n/a	n/a	n/a	n/a	n/a
78367594	RECOG_TARGET	n/a	LTP291	ltpFR	18	5	1	FACE	547	5	0	n/a	n/a	n/a	n/a	n/a
78368207	RECOG_RESP	n/a	LTP291	ltpFR	18	5	1	FACE	547	n/a	0	n/a	n/a	n/a	n/a	n/a
78368612	RECOG_CONF	n/a	LTP291	ltpFR	18	5	1	FACE	547	5	0	n/a	n/a	n/a	n/a	n/a
78370673	RECOG_TARGET	n/a	LTP291	ltpFR	18	5	0	LIZARD	834	5	1	n/a	n/a	n/a	n/a	n/a
78371217	RECOG_RESP	n/a	LTP291	ltpFR	18	5	0	LIZARD	834	n/a	1	n/a	n/a	n/a	n/a	n/a
78372362	RECOG_CONF	n/a	LTP291	ltpFR	18	5	0	LIZARD	834	5	1	n/a	n/a	n/a	n/a	n/a
78375550	REC_START	n/a	LTP291	ltpFR	18	6	n/a	n/a	n/a	n/a	n/a	n/a	n/a	n/a	n/a	n/a
78375582	RECOG_TARGET	n/a	LTP291	ltpFR	18	6	-1	MONEY	908	5	-1	n/a	n/a	n/a	n/a	n/a
78376115	RECOG_RESP	n/a	LTP291	ltpFR	18	6	-1	MONEY	908	n/a	-1	n/a	n/a	n/a	n/a	n/a
78376540	RECOG_CONF	n/a	LTP291	ltpFR	18	6	-1	MONEY	908	5	-1	n/a	n/a	n/a	n/a	n/a
78378527	RECOG_TARGET	n/a	LTP291	ltpFR	18	6	-1	BUCKLE	185	5	-1	n/a	n/a	n/a	n/a	n/a
78379080	RECOG_RESP	n/a	LTP291	ltpFR	18	6	-1	BUCKLE	185	n/a	-1	n/a	n/a	n/a	n/a	n/a
78379470	RECOG_CONF	n/a	LTP291	ltpFR	18	6	-1	BUCKLE	185	5	-1	n/a	n/a	n/a	n/a	n/a
78381390	RECOG_LURE	n/a	LTP291	ltpFR	18	6	n/a	IRON	744	3	n/a	n/a	n/a	n/a	n/a	n/a
78382050	RECOG_RESP	n/a	LTP291	ltpFR	18	6	n/a	IRON	744	n/a	n/a	n/a	n/a	n/a	n/a	n/a
78382630	RECOG_CONF	n/a	LTP291	ltpFR	18	6	n/a	IRON	744	3	n/a	n/a	n/a	n/a	n/a	n/a
78384352	RECOG_TARGET	n/a	LTP291	ltpFR	18	6	1	COMMITTEE	355	1	1	n/a	n/a	n/a	n/a	n/a
78388395	RECOG_RESP	n/a	LTP291	ltpFR	18	6	1	COMMITTEE	355	n/a	1	n/a	n/a	n/a	n/a	n/a
78389100	RECOG_CONF	n/a	LTP291	ltpFR	18	6	1	COMMITTEE	355	1	1	n/a	n/a	n/a	n/a	n/a
78390826	RECOG_TARGET	n/a	LTP291	ltpFR	18	6	-1	FEATHER	557	2	-1	n/a	n/a	n/a	n/a	n/a
78391865	RECOG_RESP	n/a	LTP291	ltpFR	18	6	-1	FEATHER	557	n/a	-1	n/a	n/a	n/a	n/a	n/a
78392930	RECOG_CONF	n/a	LTP291	ltpFR	18	6	-1	FEATHER	557	2	-1	n/a	n/a	n/a	n/a	n/a
78394637	RECOG_TARGET	n/a	LTP291	ltpFR	18	6	-1	OINTMENT	974	4	-1	n/a	n/a	n/a	n/a	n/a
78395370	RECOG_RESP	n/a	LTP291	ltpFR	18	6	-1	OINTMENT	974	n/a	-1	n/a	n/a	n/a	n/a	n/a
78396010	RECOG_CONF	n/a	LTP291	ltpFR	18	6	-1	OINTMENT	974	4	-1	n/a	n/a	n/a	n/a	n/a
78397682	RECOG_TARGET	n/a	LTP291	ltpFR	18	6	1	OATS	968	2	0	n/a	n/a	n/a	n/a	n/a
78398350	RECOG_RESP	n/a	LTP291	ltpFR	18	6	1	OATS	968	n/a	0	n/a	n/a	n/a	n/a	n/a
78398950	RECOG_CONF	n/a	LTP291	ltpFR	18	6	1	OATS	968	2	0	n/a	n/a	n/a	n/a	n/a
78400661	RECOG_LURE	n/a	LTP291	ltpFR	18	6	n/a	SCREEN	1253	2	n/a	n/a	n/a	n/a	n/a	n/a
78401300	RECOG_RESP	n/a	LTP291	ltpFR	18	6	n/a	SCREEN	1253	n/a	n/a	n/a	n/a	n/a	n/a	n/a
78401860	RECOG_CONF	n/a	LTP291	ltpFR	18	6	n/a	SCREEN	1253	2	n/a	n/a	n/a	n/a	n/a	n/a
78403657	RECOG_TARGET	n/a	LTP291	ltpFR	18	6	0	SHED	1277	1	0	n/a	n/a	n/a	n/a	n/a
78404340	RECOG_RESP	n/a	LTP291	ltpFR	18	6	0	SHED	1277	n/a	0	n/a	n/a	n/a	n/a	n/a
78404900	RECOG_CONF	n/a	LTP291	ltpFR	18	6	0	SHED	1277	1	0	n/a	n/a	n/a	n/a	n/a
78406552	RECOG_TARGET	n/a	LTP291	ltpFR	18	6	-1	CACTUS	215	4	-1	n/a	n/a	n/a	n/a	n/a
78407110	RECOG_RESP	n/a	LTP291	ltpFR	18	6	-1	CACTUS	215	n/a	-1	n/a	n/a	n/a	n/a	n/a
78407610	RECOG_CONF	n/a	LTP291	ltpFR	18	6	-1	CACTUS	215	4	-1	n/a	n/a	n/a	n/a	n/a
78409381	RECOG_TARGET	n/a	LTP291	ltpFR	18	6	-1	ENEMY	534	4	-1	n/a	n/a	n/a	n/a	n/a
78409850	RECOG_RESP	n/a	LTP291	ltpFR	18	6	-1	ENEMY	534	n/a	-1	n/a	n/a	n/a	n/a	n/a
78410300	RECOG_CONF	n/a	LTP291	ltpFR	18	6	-1	ENEMY	534	4	-1	n/a	n/a	n/a	n/a	n/a
78412144	RECOG_TARGET	n/a	LTP291	ltpFR	18	6	0	METEOR	889	5	1	n/a	n/a	n/a	n/a	n/a
78412595	RECOG_RESP	n/a	LTP291	ltpFR	18	6	0	METEOR	889	n/a	1	n/a	n/a	n/a	n/a	n/a
78413090	RECOG_CONF	n/a	LTP291	ltpFR	18	6	0	METEOR	889	5	1	n/a	n/a	n/a	n/a	n/a
78414890	RECOG_TARGET	n/a	LTP291	ltpFR	18	6	1	ESSAY	540	4	0	n/a	n/a	n/a	n/a	n/a
78415490	RECOG_RESP	n/a	LTP291	ltpFR	18	6	1	ESSAY	540	n/a	0	n/a	n/a	n/a	n/a	n/a
78415920	RECOG_CONF	n/a	LTP291	ltpFR	18	6	1	ESSAY	540	4	0	n/a	n/a	n/a	n/a	n/a
78417636	RECOG_TARGET	n/a	LTP291	ltpFR	18	6	1	PROTON	1132	5	0	n/a	n/a	n/a	n/a	n/a
78418155	RECOG_RESP	n/a	LTP291	ltpFR	18	6	1	PROTON	1132	n/a	0	n/a	n/a	n/a	n/a	n/a
78418610	RECOG_CONF	n/a	LTP291	ltpFR	18	6	1	PROTON	1132	5	0	n/a	n/a	n/a	n/a	n/a
78420348	RECOG_LURE	n/a	LTP291	ltpFR	18	6	n/a	CHURCH	307	1	n/a	n/a	n/a	n/a	n/a	n/a
78420915	RECOG_RESP	n/a	LTP291	ltpFR	18	6	n/a	CHURCH	307	n/a	n/a	n/a	n/a	n/a	n/a	n/a
78421780	RECOG_CONF	n/a	LTP291	ltpFR	18	6	n/a	CHURCH	307	1	n/a	n/a	n/a	n/a	n/a	n/a
78423527	RECOG_TARGET	n/a	LTP291	ltpFR	18	6	0	ICING	732	3	0	n/a	n/a	n/a	n/a	n/a
78424665	RECOG_RESP	n/a	LTP291	ltpFR	18	6	0	ICING	732	n/a	0	n/a	n/a	n/a	n/a	n/a
78425270	RECOG_CONF	n/a	LTP291	ltpFR	18	6	0	ICING	732	3	0	n/a	n/a	n/a	n/a	n/a
78427006	RECOG_LURE	n/a	LTP291	ltpFR	18	6	n/a	GOWN	652	1	n/a	n/a	n/a	n/a	n/a	n/a
78427700	RECOG_RESP	n/a	LTP291	ltpFR	18	6	n/a	GOWN	652	n/a	n/a	n/a	n/a	n/a	n/a	n/a
78428270	RECOG_CONF	n/a	LTP291	ltpFR	18	6	n/a	GOWN	652	1	n/a	n/a	n/a	n/a	n/a	n/a
78430052	RECOG_TARGET	n/a	LTP291	ltpFR	18	6	0	COBRA	336	3	0	n/a	n/a	n/a	n/a	n/a
78430765	RECOG_RESP	n/a	LTP291	ltpFR	18	6	0	COBRA	336	n/a	0	n/a	n/a	n/a	n/a	n/a
78431360	RECOG_CONF	n/a	LTP291	ltpFR	18	6	0	COBRA	336	3	0	n/a	n/a	n/a	n/a	n/a
78433064	RECOG_LURE	n/a	LTP291	ltpFR	18	6	n/a	STY	1397	4	n/a	n/a	n/a	n/a	n/a	n/a
78433710	RECOG_RESP	n/a	LTP291	ltpFR	18	6	n/a	STY	1397	n/a	n/a	n/a	n/a	n/a	n/a	n/a
78434250	RECOG_CONF	n/a	LTP291	ltpFR	18	6	n/a	STY	1397	4	n/a	n/a	n/a	n/a	n/a	n/a
78435959	RECOG_TARGET	n/a	LTP291	ltpFR	18	6	-1	CUP	424	2	-1	n/a	n/a	n/a	n/a	n/a
78436680	RECOG_RESP	n/a	LTP291	ltpFR	18	6	-1	CUP	424	n/a	-1	n/a	n/a	n/a	n/a	n/a
78437320	RECOG_CONF	n/a	LTP291	ltpFR	18	6	-1	CUP	424	2	-1	n/a	n/a	n/a	n/a	n/a
78440544	REC_START	n/a	LTP291	ltpFR	18	7	n/a	n/a	n/a	n/a	n/a	n/a	n/a	n/a	n/a	n/a
78440568	RECOG_LURE	n/a	LTP291	ltpFR	18	7	n/a	THORN	1459	3	n/a	n/a	n/a	n/a	n/a	n/a
78441294	RECOG_RESP	n/a	LTP291	ltpFR	18	7	n/a	THORN	1459	n/a	n/a	n/a	n/a	n/a	n/a	n/a
78441824	RECOG_CONF	n/a	LTP291	ltpFR	18	7	n/a	THORN	1459	3	n/a	n/a	n/a	n/a	n/a	n/a
78443580	RECOG_TARGET	n/a	LTP291	ltpFR	18	7	0	CONDUCTOR	362	5	1	n/a	n/a	n/a	n/a	n/a
78444469	RECOG_RESP	n/a	LTP291	ltpFR	18	7	0	CONDUCTOR	362	n/a	1	n/a	n/a	n/a	n/a	n/a
78444854	RECOG_CONF	n/a	LTP291	ltpFR	18	7	0	CONDUCTOR	362	5	1	n/a	n/a	n/a	n/a	n/a
78446926	RECOG_TARGET	n/a	LTP291	ltpFR	18	7	-1	ARTIST	43	5	-1	n/a	n/a	n/a	n/a	n/a
78447404	RECOG_RESP	n/a	LTP291	ltpFR	18	7	-1	ARTIST	43	n/a	-1	n/a	n/a	n/a	n/a	n/a
78447864	RECOG_CONF	n/a	LTP291	ltpFR	18	7	-1	ARTIST	43	5	-1	n/a	n/a	n/a	n/a	n/a
78449605	RECOG_LURE	n/a	LTP291	ltpFR	18	7	n/a	SATURN	1236	3	n/a	n/a	n/a	n/a	n/a	n/a
78450449	RECOG_RESP	n/a	LTP291	ltpFR	18	7	n/a	SATURN	1236	n/a	n/a	n/a	n/a	n/a	n/a	n/a
78451104	RECOG_CONF	n/a	LTP291	ltpFR	18	7	n/a	SATURN	1236	3	n/a	n/a	n/a	n/a	n/a	n/a
78452934	RECOG_TARGET	n/a	LTP291	ltpFR	18	7	1	CHAIN	273	4	0	n/a	n/a	n/a	n/a	n/a
78453719	RECOG_RESP	n/a	LTP291	ltpFR	18	7	1	CHAIN	273	n/a	0	n/a	n/a	n/a	n/a	n/a
78454234	RECOG_CONF	n/a	LTP291	ltpFR	18	7	1	CHAIN	273	4	0	n/a	n/a	n/a	n/a	n/a
78456161	RECOG_TARGET	n/a	LTP291	ltpFR	18	7	0	BOUILLON	154	5	1	n/a	n/a	n/a	n/a	n/a
78456774	RECOG_RESP	n/a	LTP291	ltpFR	18	7	0	BOUILLON	154	n/a	1	n/a	n/a	n/a	n/a	n/a
78457214	RECOG_CONF	n/a	LTP291	ltpFR	18	7	0	BOUILLON	154	5	1	n/a	n/a	n/a	n/a	n/a
78458925	RECOG_TARGET	n/a	LTP291	ltpFR	18	7	-1	LIST	830	2	-1	n/a	n/a	n/a	n/a	n/a
78459534	RECOG_RESP	n/a	LTP291	ltpFR	18	7	-1	LIST	830	n/a	-1	n/a	n/a	n/a	n/a	n/a
78460154	RECOG_CONF	n/a	LTP291	ltpFR	18	7	-1	LIST	830	2	-1	n/a	n/a	n/a	n/a	n/a
78461987	RECOG_TARGET	n/a	LTP291	ltpFR	18	7	0	TELESCOPE	1446	3	1	n/a	n/a	n/a	n/a	n/a
78462564	RECOG_RESP	n/a	LTP291	ltpFR	18	7	0	TELESCOPE	1446	n/a	1	n/a	n/a	n/a	n/a	n/a
78463044	RECOG_CONF	n/a	LTP291	ltpFR	18	7	0	TELESCOPE	1446	3	1	n/a	n/a	n/a	n/a	n/a
78464699	RECOG_TARGET	n/a	LTP291	ltpFR	18	7	1	ROOMMATE	1207	4	0	n/a	n/a	n/a	n/a	n/a
78465334	RECOG_RESP	n/a	LTP291	ltpFR	18	7	1	ROOMMATE	1207	n/a	0	n/a	n/a	n/a	n/a	n/a
78465844	RECOG_CONF	n/a	LTP291	ltpFR	18	7	1	ROOMMATE	1207	4	0	n/a	n/a	n/a	n/a	n/a
78467528	RECOG_TARGET	n/a	LTP291	ltpFR	18	7	-1	TYPEWRITER	1531	5	-1	n/a	n/a	n/a	n/a	n/a
78468154	RECOG_RESP	n/a	LTP291	ltpFR	18	7	-1	TYPEWRITER	1531	n/a	-1	n/a	n/a	n/a	n/a	n/a
78468624	RECOG_CONF	n/a	LTP291	ltpFR	18	7	-1	TYPEWRITER	1531	5	-1	n/a	n/a	n/a	n/a	n/a
78470523	RECOG_TARGET	n/a	LTP291	ltpFR	18	7	1	LIPSTICK	829	3	0	n/a	n/a	n/a	n/a	n/a
78471094	RECOG_RESP	n/a	LTP291	ltpFR	18	7	1	LIPSTICK	829	n/a	0	n/a	n/a	n/a	n/a	n/a
78471624	RECOG_CONF	n/a	LTP291	ltpFR	18	7	1	LIPSTICK	829	3	0	n/a	n/a	n/a	n/a	n/a
78473369	RECOG_TARGET	n/a	LTP291	ltpFR	18	7	0	PLANT	1083	2	0	n/a	n/a	n/a	n/a	n/a
78473984	RECOG_RESP	n/a	LTP291	ltpFR	18	7	0	PLANT	1083	n/a	0	n/a	n/a	n/a	n/a	n/a
78474724	RECOG_CONF	n/a	LTP291	ltpFR	18	7	0	PLANT	1083	2	0	n/a	n/a	n/a	n/a	n/a
78476331	RECOG_TARGET	n/a	LTP291	ltpFR	18	7	-1	SINK	1309	3	-1	n/a	n/a	n/a	n/a	n/a
78476874	RECOG_RESP	n/a	LTP291	ltpFR	18	7	-1	SINK	1309	n/a	-1	n/a	n/a	n/a	n/a	n/a
78477454	RECOG_CONF	n/a	LTP291	ltpFR	18	7	-1	SINK	1309	3	-1	n/a	n/a	n/a	n/a	n/a
78479095	RECOG_TARGET	n/a	LTP291	ltpFR	18	7	-1	KETCHUP	771	3	-1	n/a	n/a	n/a	n/a	n/a
78479639	RECOG_RESP	n/a	LTP291	ltpFR	18	7	-1	KETCHUP	771	n/a	-1	n/a	n/a	n/a	n/a	n/a
78480124	RECOG_CONF	n/a	LTP291	ltpFR	18	7	-1	KETCHUP	771	3	-1	n/a	n/a	n/a	n/a	n/a
