mstime	trial_type	stim_file	subject	experiment	session	trial	task	item_name	item_num	recog_resp	recog_conf	resp	color_r	color_g	color_b	case	font
0	SESS_START	n/a	LTP215	ltpFR	6	n/a	n/a	n/a	n/a	1	n/a	n/a	n/a	n/a	n/a	n/a	n/a
63948	WORD	wordpools/wasnorm_wordpool_less_exclusions.txt	LTP215	ltpFR	6	1	0	FAIRY	549	n/a	n/a	0	0.57763671875	0.412841796875	1	lower	zerothre.ttf
67853	WORD	wordpools/wasnorm_wordpool_less_exclusions.txt	LTP215	ltpFR	6	1	0	AWARD	63	n/a	n/a	1	0.57763671875	0.412841796875	1	lower	zerothre.ttf
71868	WORD	wordpools/wasnorm_wordpool_less_exclusions.txt	LTP215	ltpFR	6	1	0	SERPENT	1270	n/a	n/a	1	0.57763671875	0.412841796875	1	lower	zerothre.ttf
75943	WORD	wordpools/wasnorm_wordpool_less_exclusions.txt	LTP215	ltpFR	6	1	0	REPTILE	1185	n/a	n/a	1	0.57763671875	0.412841796875	1	lower	zerothre.ttf
79992	WORD	wordpools/wasnorm_wordpool_less_exclusions.txt	LTP215	ltpFR	6	1	1	CRATER	400	n/a	n/a	0	0.422607421875	0.5869140625	0	upper	amplitud.ttf
84157	WORD	wordpools/wasnorm_wordpool_less_exclusions.txt	LTP215	ltpFR	6	1	1	DONKEY	484	n/a	n/a	1	0.422607421875	0.5869140625	0	upper	amplitud.ttf
88062	WORD	wordpools/wasnorm_wordpool_less_exclusions.txt	LTP215	ltpFR	6	1	1	BUBBLE	183	n/a	n/a	0	0.422607421875	0.5869140625	0	upper	amplitud.ttf
92271	WORD	wordpools/wasnorm_wordpool_less_exclusions.txt	LTP215	ltpFR	6	1	1	BATH	98	n/a	n/a	0	0.422607421875	0.5869140625	0	upper	amplitud.ttf
96444	WORD	wordpools/wasnorm_wordpool_less_exclusions.txt	LTP215	ltpFR	6	1	1	GLASS	639	n/a	n/a	0	0.422607421875	0.5869140625	0	upper	amplitud.ttf
100544	WORD	wordpools/wasnorm_wordpool_less_exclusions.txt	LTP215	ltpFR	6	1	1	DRINK	498	n/a	n/a	0	0.422607421875	0.5869140625	0	upper	amplitud.ttf
104752	WORD	wordpools/wasnorm_wordpool_less_exclusions.txt	LTP215	ltpFR	6	1	0	SAP	1233	n/a	n/a	0	0.57763671875	0.412841796875	1	lower	zerothre.ttf
108691	WORD	wordpools/wasnorm_wordpool_less_exclusions.txt	LTP215	ltpFR	6	1	0	MEAL	882	n/a	n/a	0	0.57763671875	0.412841796875	1	lower	zerothre.ttf
112572	WORD	wordpools/wasnorm_wordpool_less_exclusions.txt	LTP215	ltpFR	6	1	1	MARS	873	n/a	n/a	0	0.422607421875	0.5869140625	0	upper	amplitud.ttf
116681	WORD	wordpools/wasnorm_wordpool_less_exclusions.txt	LTP215	ltpFR	6	1	1	UNICORN	1538	n/a	n/a	0	0.422607421875	0.5869140625	0	upper	amplitud.ttf
120586	WORD	wordpools/wasnorm_wordpool_less_exclusions.txt	LTP215	ltpFR	6	1	0	SEAT	1264	n/a	n/a	3	0.57763671875	0.412841796875	1	lower	zerothre.ttf
121371	KEY_MSG	n/a	LTP215	ltpFR	6	1	n/a	n/a	n/a	n/a	n/a	n/a	n/a	n/a	n/a	n/a	n/a
124493	WORD	wordpools/wasnorm_wordpool_less_exclusions.txt	LTP215	ltpFR	6	1	0	TREE	1502	n/a	n/a	1	0.57763671875	0.412841796875	1	lower	zerothre.ttf
130165	REC_START	n/a	LTP215	ltpFR	6	1	n/a	n/a	n/a	n/a	n/a	n/a	n/a	n/a	n/a	n/a	n/a
131192	REC_WORD	wordpools/wasnorm_wordpool_less_exclusions.txt	LTP215	ltpFR	6	1	0	TREE	1502	n/a	n/a	1	n/a	n/a	n/a	n/a	n/a
131755	REC_WORD	wordpools/wasnorm_wordpool_less_exclusions.txt	LTP215	ltpFR	6	1	0	SAP	1233	n/a	n/a	0	n/a	n/a	n/a	n/a	n/a
132909	REC_WORD	wordpools/wasnorm_wordpool_less_exclusions.txt	LTP215	ltpFR	6	1	1	CRATER	400	n/a	n/a	0	n/a	n/a	n/a	n/a	n/a
135992	REC_WORD	wordpools/wasnorm_wordpool_less_exclusions.txt	LTP215	ltpFR	6	1	1	MARS	873	n/a	n/a	0	n/a	n/a	n/a	n/a	n/a
139831	REC_WORD	wordpools/wasnorm_wordpool_less_exclusions.txt	LTP215	ltpFR	6	1	0	FAIRY	549	n/a	n/a	0	n/a	n/a	n/a	n/a	n/a
143105	REC_WORD	wordpools/wasnorm_wordpool_less_exclusions.txt	LTP215	ltpFR	6	1	1	UNICORN	1538	n/a	n/a	0	n/a	n/a	n/a	n/a	n/a
156400	REC_WORD	wordpools/wasnorm_wordpool_less_exclusions.txt	LTP215	ltpFR	6	1	0	MEAL	882	n/a	n/a	0	n/a	n/a	n/a	n/a	n/a
164112	REC_WORD	wordpools/wasnorm_wordpool_less_exclusions.txt	LTP215	ltpFR	6	1	0	SERPENT	1270	n/a	n/a	1	n/a	n/a	n/a	n/a	n/a
210467	WORD	wordpools/wasnorm_wordpool_less_exclusions.txt	LTP215	ltpFR	6	2	1	LAWYER	806	n/a	n/a	1	0.422607421875	0.5869140625	0	upper	amplitud.ttf
214338	WORD	wordpools/wasnorm_wordpool_less_exclusions.txt	LTP215	ltpFR	6	2	1	ANIMAL	23	n/a	n/a	1	0.422607421875	0.5869140625	0	upper	amplitud.ttf
218487	WORD	wordpools/wasnorm_wordpool_less_exclusions.txt	LTP215	ltpFR	6	2	1	RAIL	1161	n/a	n/a	0	0.422607421875	0.5869140625	0	upper	amplitud.ttf
222495	WORD	wordpools/wasnorm_wordpool_less_exclusions.txt	LTP215	ltpFR	6	2	0	CANDLE	229	n/a	n/a	0	0.57763671875	0.412841796875	1	lower	zerothre.ttf
226662	WORD	wordpools/wasnorm_wordpool_less_exclusions.txt	LTP215	ltpFR	6	2	0	FARM	552	n/a	n/a	1	0.57763671875	0.412841796875	1	lower	zerothre.ttf
230817	WORD	wordpools/wasnorm_wordpool_less_exclusions.txt	LTP215	ltpFR	6	2	0	GOAT	644	n/a	n/a	1	0.57763671875	0.412841796875	1	lower	zerothre.ttf
234642	WORD	wordpools/wasnorm_wordpool_less_exclusions.txt	LTP215	ltpFR	6	2	1	CONTAINER	366	n/a	n/a	0	0.422607421875	0.5869140625	0	upper	amplitud.ttf
238781	WORD	wordpools/wasnorm_wordpool_less_exclusions.txt	LTP215	ltpFR	6	2	1	BARRACUDA	90	n/a	n/a	1	0.422607421875	0.5869140625	0	upper	amplitud.ttf
242772	WORD	wordpools/wasnorm_wordpool_less_exclusions.txt	LTP215	ltpFR	6	2	0	TRAIN	1494	n/a	n/a	1	0.57763671875	0.412841796875	1	lower	zerothre.ttf
246978	WORD	wordpools/wasnorm_wordpool_less_exclusions.txt	LTP215	ltpFR	6	2	0	CHAMPAGNE	278	n/a	n/a	1	0.57763671875	0.412841796875	1	lower	zerothre.ttf
250960	WORD	wordpools/wasnorm_wordpool_less_exclusions.txt	LTP215	ltpFR	6	2	0	SCOTCH	1251	n/a	n/a	1	0.57763671875	0.412841796875	1	lower	zerothre.ttf
255001	WORD	wordpools/wasnorm_wordpool_less_exclusions.txt	LTP215	ltpFR	6	2	0	GUM	672	n/a	n/a	0	0.57763671875	0.412841796875	1	lower	zerothre.ttf
259107	WORD	wordpools/wasnorm_wordpool_less_exclusions.txt	LTP215	ltpFR	6	2	0	STAKE	1368	n/a	n/a	1	0.57763671875	0.412841796875	1	lower	zerothre.ttf
263148	WORD	wordpools/wasnorm_wordpool_less_exclusions.txt	LTP215	ltpFR	6	2	1	CONCRETE	361	n/a	n/a	0	0.422607421875	0.5869140625	0	upper	amplitud.ttf
267355	WORD	wordpools/wasnorm_wordpool_less_exclusions.txt	LTP215	ltpFR	6	2	1	PAVEMENT	1028	n/a	n/a	0	0.422607421875	0.5869140625	0	upper	amplitud.ttf
271437	WORD	wordpools/wasnorm_wordpool_less_exclusions.txt	LTP215	ltpFR	6	2	1	CORAL	378	n/a	n/a	1	0.422607421875	0.5869140625	0	upper	amplitud.ttf
277394	REC_START	n/a	LTP215	ltpFR	6	2	n/a	n/a	n/a	n/a	n/a	n/a	n/a	n/a	n/a	n/a	n/a
277990	REC_WORD	wordpools/wasnorm_wordpool_less_exclusions.txt	LTP215	ltpFR	6	2	1	CORAL	378	n/a	n/a	1	n/a	n/a	n/a	n/a	n/a
278776	REC_WORD	wordpools/wasnorm_wordpool_less_exclusions.txt	LTP215	ltpFR	6	2	1	PAVEMENT	1028	n/a	n/a	0	n/a	n/a	n/a	n/a	n/a
279389	REC_WORD	wordpools/wasnorm_wordpool_less_exclusions.txt	LTP215	ltpFR	6	2	1	CONCRETE	361	n/a	n/a	0	n/a	n/a	n/a	n/a	n/a
280280	REC_WORD	wordpools/wasnorm_wordpool_less_exclusions.txt	LTP215	ltpFR	6	2	0	STAKE	1368	n/a	n/a	1	n/a	n/a	n/a	n/a	n/a
282093	REC_WORD	wordpools/wasnorm_wordpool_less_exclusions.txt	LTP215	ltpFR	6	2	1	BARRACUDA	90	n/a	n/a	1	n/a	n/a	n/a	n/a	n/a
285714	REC_WORD	wordpools/wasnorm_wordpool_less_exclusions.txt	LTP215	ltpFR	6	2	0	FARM	552	n/a	n/a	1	n/a	n/a	n/a	n/a	n/a
287446	REC_WORD	wordpools/wasnorm_wordpool_less_exclusions.txt	LTP215	ltpFR	6	2	0	GOAT	644	n/a	n/a	1	n/a	n/a	n/a	n/a	n/a
289092	REC_WORD	wordpools/wasnorm_wordpool_less_exclusions.txt	LTP215	ltpFR	6	2	1	ANIMAL	23	n/a	n/a	1	n/a	n/a	n/a	n/a	n/a
290434	REC_WORD	wordpools/wasnorm_wordpool_less_exclusions.txt	LTP215	ltpFR	6	2	1	LAWYER	806	n/a	n/a	1	n/a	n/a	n/a	n/a	n/a
360331	WORD	wordpools/wasnorm_wordpool_less_exclusions.txt	LTP215	ltpFR	6	3	1	LEADER	807	n/a	n/a	1	0.422607421875	0.5869140625	0	upper	amplitud.ttf
364229	WORD	wordpools/wasnorm_wordpool_less_exclusions.txt	LTP215	ltpFR	6	3	1	NEPTUNE	943	n/a	n/a	0	0.422607421875	0.5869140625	0	upper	amplitud.ttf
368068	WORD	wordpools/wasnorm_wordpool_less_exclusions.txt	LTP215	ltpFR	6	3	0	BARLEY	88	n/a	n/a	0	0.57763671875	0.412841796875	1	lower	zerothre.ttf
372033	WORD	wordpools/wasnorm_wordpool_less_exclusions.txt	LTP215	ltpFR	6	3	0	TUNA	1518	n/a	n/a	0	0.57763671875	0.412841796875	1	lower	zerothre.ttf
375873	WORD	wordpools/wasnorm_wordpool_less_exclusions.txt	LTP215	ltpFR	6	3	0	EARTH	515	n/a	n/a	1	0.57763671875	0.412841796875	1	lower	zerothre.ttf
379705	WORD	wordpools/wasnorm_wordpool_less_exclusions.txt	LTP215	ltpFR	6	3	0	INTESTINE	742	n/a	n/a	1	0.57763671875	0.412841796875	1	lower	zerothre.ttf
383861	WORD	wordpools/wasnorm_wordpool_less_exclusions.txt	LTP215	ltpFR	6	3	1	SKIRT	1319	n/a	n/a	0	0.422607421875	0.5869140625	0	upper	amplitud.ttf
388060	WORD	wordpools/wasnorm_wordpool_less_exclusions.txt	LTP215	ltpFR	6	3	1	PRESIDENT	1121	n/a	n/a	1	0.422607421875	0.5869140625	0	upper	amplitud.ttf
392025	WORD	wordpools/wasnorm_wordpool_less_exclusions.txt	LTP215	ltpFR	6	3	0	BASSINET	97	n/a	n/a	1	0.57763671875	0.412841796875	1	lower	zerothre.ttf
396107	WORD	wordpools/wasnorm_wordpool_less_exclusions.txt	LTP215	ltpFR	6	3	0	GOO	648	n/a	n/a	0	0.57763671875	0.412841796875	1	lower	zerothre.ttf
400172	WORD	wordpools/wasnorm_wordpool_less_exclusions.txt	LTP215	ltpFR	6	3	0	SHRINE	1298	n/a	n/a	1	0.57763671875	0.412841796875	1	lower	zerothre.ttf
404288	WORD	wordpools/wasnorm_wordpool_less_exclusions.txt	LTP215	ltpFR	6	3	0	CONVENT	370	n/a	n/a	1	0.57763671875	0.412841796875	1	lower	zerothre.ttf
408286	WORD	wordpools/wasnorm_wordpool_less_exclusions.txt	LTP215	ltpFR	6	3	1	THIGH	1457	n/a	n/a	0	0.422607421875	0.5869140625	0	upper	amplitud.ttf
412495	WORD	wordpools/wasnorm_wordpool_less_exclusions.txt	LTP215	ltpFR	6	3	1	FLOWER	584	n/a	n/a	1	0.422607421875	0.5869140625	0	upper	amplitud.ttf
416333	WORD	wordpools/wasnorm_wordpool_less_exclusions.txt	LTP215	ltpFR	6	3	1	CRAB	397	n/a	n/a	1	0.422607421875	0.5869140625	0	upper	amplitud.ttf
420458	WORD	wordpools/wasnorm_wordpool_less_exclusions.txt	LTP215	ltpFR	6	3	1	TURKEY	1520	n/a	n/a	1	0.422607421875	0.5869140625	0	upper	amplitud.ttf
426138	REC_START	n/a	LTP215	ltpFR	6	3	n/a	n/a	n/a	n/a	n/a	n/a	n/a	n/a	n/a	n/a	n/a
426452	REC_WORD	wordpools/wasnorm_wordpool_less_exclusions.txt	LTP215	ltpFR	6	3	1	FLOWER	584	n/a	n/a	1	n/a	n/a	n/a	n/a	n/a
427160	REC_WORD	wordpools/wasnorm_wordpool_less_exclusions.txt	LTP215	ltpFR	6	3	1	CRAB	397	n/a	n/a	1	n/a	n/a	n/a	n/a	n/a
427749	REC_WORD	wordpools/wasnorm_wordpool_less_exclusions.txt	LTP215	ltpFR	6	3	1	TURKEY	1520	n/a	n/a	1	n/a	n/a	n/a	n/a	n/a
428298	REC_WORD	wordpools/wasnorm_wordpool_less_exclusions.txt	LTP215	ltpFR	6	3	0	SHRINE	1298	n/a	n/a	1	n/a	n/a	n/a	n/a	n/a
429400	REC_WORD	wordpools/wasnorm_wordpool_less_exclusions.txt	LTP215	ltpFR	6	3	0	CONVENT	370	n/a	n/a	1	n/a	n/a	n/a	n/a	n/a
430967	REC_WORD	wordpools/wasnorm_wordpool_less_exclusions.txt	LTP215	ltpFR	6	3	1	NEPTUNE	943	n/a	n/a	0	n/a	n/a	n/a	n/a	n/a
433301	REC_WORD	wordpools/wasnorm_wordpool_less_exclusions.txt	LTP215	ltpFR	6	3	1	LEADER	807	n/a	n/a	1	n/a	n/a	n/a	n/a	n/a
436423	REC_WORD	wordpools/wasnorm_wordpool_less_exclusions.txt	LTP215	ltpFR	6	3	1	PRESIDENT	1121	n/a	n/a	1	n/a	n/a	n/a	n/a	n/a
447190	REC_WORD	wordpools/wasnorm_wordpool_less_exclusions.txt	LTP215	ltpFR	6	3	0	GOO	648	n/a	n/a	0	n/a	n/a	n/a	n/a	n/a
452209	REC_WORD	wordpools/wasnorm_wordpool_less_exclusions.txt	LTP215	ltpFR	6	3	0	EARTH	515	n/a	n/a	1	n/a	n/a	n/a	n/a	n/a
513308	WORD	wordpools/wasnorm_wordpool_less_exclusions.txt	LTP215	ltpFR	6	4	1	BALL	73	n/a	n/a	0	0.422607421875	0.5869140625	0	upper	amplitud.ttf
517146	WORD	wordpools/wasnorm_wordpool_less_exclusions.txt	LTP215	ltpFR	6	4	1	LASH	802	n/a	n/a	0	0.422607421875	0.5869140625	0	upper	amplitud.ttf
521362	WORD	wordpools/wasnorm_wordpool_less_exclusions.txt	LTP215	ltpFR	6	4	1	PACKAGE	997	n/a	n/a	0	0.422607421875	0.5869140625	0	upper	amplitud.ttf
525444	WORD	wordpools/wasnorm_wordpool_less_exclusions.txt	LTP215	ltpFR	6	4	1	WOMAN	1620	n/a	n/a	1	0.422607421875	0.5869140625	0	upper	amplitud.ttf
529385	WORD	wordpools/wasnorm_wordpool_less_exclusions.txt	LTP215	ltpFR	6	4	1	LAMB	797	n/a	n/a	1	0.422607421875	0.5869140625	0	upper	amplitud.ttf
533384	WORD	wordpools/wasnorm_wordpool_less_exclusions.txt	LTP215	ltpFR	6	4	1	SHED	1277	n/a	n/a	0	0.422607421875	0.5869140625	0	upper	amplitud.ttf
537322	WORD	wordpools/wasnorm_wordpool_less_exclusions.txt	LTP215	ltpFR	6	4	1	ENVELOPE	537	n/a	n/a	0	0.422607421875	0.5869140625	0	upper	amplitud.ttf
541170	WORD	wordpools/wasnorm_wordpool_less_exclusions.txt	LTP215	ltpFR	6	4	1	CLIFF	322	n/a	n/a	0	0.422607421875	0.5869140625	0	upper	amplitud.ttf
545379	WORD	wordpools/wasnorm_wordpool_less_exclusions.txt	LTP215	ltpFR	6	4	1	BALCONY	72	n/a	n/a	0	0.422607421875	0.5869140625	0	upper	amplitud.ttf
549427	WORD	wordpools/wasnorm_wordpool_less_exclusions.txt	LTP215	ltpFR	6	4	1	COYOTE	396	n/a	n/a	1	0.422607421875	0.5869140625	0	upper	amplitud.ttf
553392	WORD	wordpools/wasnorm_wordpool_less_exclusions.txt	LTP215	ltpFR	6	4	1	MOUTH	926	n/a	n/a	0	0.422607421875	0.5869140625	0	upper	amplitud.ttf
557550	WORD	wordpools/wasnorm_wordpool_less_exclusions.txt	LTP215	ltpFR	6	4	1	LADY	794	n/a	n/a	1	0.422607421875	0.5869140625	0	upper	amplitud.ttf
561456	WORD	wordpools/wasnorm_wordpool_less_exclusions.txt	LTP215	ltpFR	6	4	1	BANK	83	n/a	n/a	0	0.422607421875	0.5869140625	0	upper	amplitud.ttf
565378	WORD	wordpools/wasnorm_wordpool_less_exclusions.txt	LTP215	ltpFR	6	4	1	NUN	962	n/a	n/a	1	0.422607421875	0.5869140625	0	upper	amplitud.ttf
569259	WORD	wordpools/wasnorm_wordpool_less_exclusions.txt	LTP215	ltpFR	6	4	1	SALMON	1227	n/a	n/a	1	0.422607421875	0.5869140625	0	upper	amplitud.ttf
573234	WORD	wordpools/wasnorm_wordpool_less_exclusions.txt	LTP215	ltpFR	6	4	1	SHRIMP	1297	n/a	n/a	1	0.422607421875	0.5869140625	0	upper	amplitud.ttf
579198	REC_START	n/a	LTP215	ltpFR	6	4	n/a	n/a	n/a	n/a	n/a	n/a	n/a	n/a	n/a	n/a	n/a
579567	REC_WORD	wordpools/wasnorm_wordpool_less_exclusions.txt	LTP215	ltpFR	6	4	1	SALMON	1227	n/a	n/a	1	n/a	n/a	n/a	n/a	n/a
580249	REC_WORD	wordpools/wasnorm_wordpool_less_exclusions.txt	LTP215	ltpFR	6	4	1	SHRIMP	1297	n/a	n/a	1	n/a	n/a	n/a	n/a	n/a
580906	REC_WORD	wordpools/wasnorm_wordpool_less_exclusions.txt	LTP215	ltpFR	6	4	1	WOMAN	1620	n/a	n/a	1	n/a	n/a	n/a	n/a	n/a
581444	REC_WORD	wordpools/wasnorm_wordpool_less_exclusions.txt	LTP215	ltpFR	6	4	1	LADY	794	n/a	n/a	1	n/a	n/a	n/a	n/a	n/a
583423	REC_WORD	wordpools/wasnorm_wordpool_less_exclusions.txt	LTP215	ltpFR	6	4	1	BANK	83	n/a	n/a	0	n/a	n/a	n/a	n/a	n/a
598004	REC_WORD	wordpools/wasnorm_wordpool_less_exclusions.txt	LTP215	ltpFR	6	4	1	CLIFF	322	n/a	n/a	0	n/a	n/a	n/a	n/a	n/a
598639	REC_WORD	wordpools/wasnorm_wordpool_less_exclusions.txt	LTP215	ltpFR	6	4	1	BALCONY	72	n/a	n/a	0	n/a	n/a	n/a	n/a	n/a
601522	REC_WORD	wordpools/wasnorm_wordpool_less_exclusions.txt	LTP215	ltpFR	6	4	1	COYOTE	396	n/a	n/a	1	n/a	n/a	n/a	n/a	n/a
609264	REC_WORD	wordpools/wasnorm_wordpool_less_exclusions.txt	LTP215	ltpFR	6	4	1	SHED	1277	n/a	n/a	0	n/a	n/a	n/a	n/a	n/a
665489	WORD	wordpools/wasnorm_wordpool_less_exclusions.txt	LTP215	ltpFR	6	5	1	BEAR	106	n/a	n/a	1	0.422607421875	0.5869140625	0	upper	amplitud.ttf
669555	WORD	wordpools/wasnorm_wordpool_less_exclusions.txt	LTP215	ltpFR	6	5	1	CONSOLE	364	n/a	n/a	0	0.422607421875	0.5869140625	0	upper	amplitud.ttf
673747	WORD	wordpools/wasnorm_wordpool_less_exclusions.txt	LTP215	ltpFR	6	5	1	TOENAIL	1474	n/a	n/a	0	0.422607421875	0.5869140625	0	upper	amplitud.ttf
677585	WORD	wordpools/wasnorm_wordpool_less_exclusions.txt	LTP215	ltpFR	6	5	1	SHOELACE	1289	n/a	n/a	0	0.422607421875	0.5869140625	0	upper	amplitud.ttf
681727	WORD	wordpools/wasnorm_wordpool_less_exclusions.txt	LTP215	ltpFR	6	5	1	TURNIP	1521	n/a	n/a	1	0.422607421875	0.5869140625	0	upper	amplitud.ttf
685608	WORD	wordpools/wasnorm_wordpool_less_exclusions.txt	LTP215	ltpFR	6	5	1	LIGHTER	819	n/a	n/a	0	0.422607421875	0.5869140625	0	upper	amplitud.ttf
689640	WORD	wordpools/wasnorm_wordpool_less_exclusions.txt	LTP215	ltpFR	6	5	1	MICROPHONE	890	n/a	n/a	0	0.422607421875	0.5869140625	0	upper	amplitud.ttf
693779	WORD	wordpools/wasnorm_wordpool_less_exclusions.txt	LTP215	ltpFR	6	5	1	ANTEATER	26	n/a	n/a	1	0.422607421875	0.5869140625	0	upper	amplitud.ttf
697971	WORD	wordpools/wasnorm_wordpool_less_exclusions.txt	LTP215	ltpFR	6	5	1	POSSUM	1112	n/a	n/a	1	0.422607421875	0.5869140625	0	upper	amplitud.ttf
702043	WORD	wordpools/wasnorm_wordpool_less_exclusions.txt	LTP215	ltpFR	6	5	1	CIGARETTE	309	n/a	n/a	0	0.422607421875	0.5869140625	0	upper	amplitud.ttf
706075	WORD	wordpools/wasnorm_wordpool_less_exclusions.txt	LTP215	ltpFR	6	5	1	ARTICLE	42	n/a	n/a	0	0.422607421875	0.5869140625	0	upper	amplitud.ttf
710233	WORD	wordpools/wasnorm_wordpool_less_exclusions.txt	LTP215	ltpFR	6	5	1	MEADOW	881	n/a	n/a	0	0.422607421875	0.5869140625	0	upper	amplitud.ttf
714323	WORD	wordpools/wasnorm_wordpool_less_exclusions.txt	LTP215	ltpFR	6	5	1	LAWN	805	n/a	n/a	0	0.422607421875	0.5869140625	0	upper	amplitud.ttf
718314	WORD	wordpools/wasnorm_wordpool_less_exclusions.txt	LTP215	ltpFR	6	5	1	PRINCESS	1125	n/a	n/a	1	0.422607421875	0.5869140625	0	upper	amplitud.ttf
722262	WORD	wordpools/wasnorm_wordpool_less_exclusions.txt	LTP215	ltpFR	6	5	1	ISLAND	745	n/a	n/a	0	0.422607421875	0.5869140625	0	upper	amplitud.ttf
726201	WORD	wordpools/wasnorm_wordpool_less_exclusions.txt	LTP215	ltpFR	6	5	1	MERMAID	887	n/a	n/a	1	0.422607421875	0.5869140625	0	upper	amplitud.ttf
731906	REC_START	n/a	LTP215	ltpFR	6	5	n/a	n/a	n/a	n/a	n/a	n/a	n/a	n/a	n/a	n/a	n/a
732214	REC_WORD	wordpools/wasnorm_wordpool_less_exclusions.txt	LTP215	ltpFR	6	5	1	PRINCESS	1125	n/a	n/a	1	n/a	n/a	n/a	n/a	n/a
732874	REC_WORD	wordpools/wasnorm_wordpool_less_exclusions.txt	LTP215	ltpFR	6	5	1	ISLAND	745	n/a	n/a	0	n/a	n/a	n/a	n/a	n/a
733423	REC_WORD	wordpools/wasnorm_wordpool_less_exclusions.txt	LTP215	ltpFR	6	5	1	MERMAID	887	n/a	n/a	1	n/a	n/a	n/a	n/a	n/a
733997	REC_WORD	wordpools/wasnorm_wordpool_less_exclusions.txt	LTP215	ltpFR	6	5	1	LAWN	805	n/a	n/a	0	n/a	n/a	n/a	n/a	n/a
734566	REC_WORD	wordpools/wasnorm_wordpool_less_exclusions.txt	LTP215	ltpFR	6	5	1	CIGARETTE	309	n/a	n/a	0	n/a	n/a	n/a	n/a	n/a
737802	REC_WORD	wordpools/wasnorm_wordpool_less_exclusions.txt	LTP215	ltpFR	6	5	1	BEAR	106	n/a	n/a	1	n/a	n/a	n/a	n/a	n/a
739788	REC_WORD	wordpools/wasnorm_wordpool_less_exclusions.txt	LTP215	ltpFR	6	5	1	ANTEATER	26	n/a	n/a	1	n/a	n/a	n/a	n/a	n/a
745181	REC_WORD	wordpools/wasnorm_wordpool_less_exclusions.txt	LTP215	ltpFR	6	5	1	TOENAIL	1474	n/a	n/a	0	n/a	n/a	n/a	n/a	n/a
746173	REC_WORD	wordpools/wasnorm_wordpool_less_exclusions.txt	LTP215	ltpFR	6	5	1	SHOELACE	1289	n/a	n/a	0	n/a	n/a	n/a	n/a	n/a
752040	REC_WORD	wordpools/wasnorm_wordpool_less_exclusions.txt	LTP215	ltpFR	6	5	1	MICROPHONE	890	n/a	n/a	0	n/a	n/a	n/a	n/a	n/a
817093	WORD	wordpools/wasnorm_wordpool_less_exclusions.txt	LTP215	ltpFR	6	6	-1	CEILING	265	n/a	n/a	-1	1.0	1.0	1	upper	Verdana.ttf
820934	WORD	wordpools/wasnorm_wordpool_less_exclusions.txt	LTP215	ltpFR	6	6	-1	CHAMPION	279	n/a	n/a	-1	1.0	1.0	1	upper	Verdana.ttf
825023	WORD	wordpools/wasnorm_wordpool_less_exclusions.txt	LTP215	ltpFR	6	6	-1	OREGANO	983	n/a	n/a	-1	1.0	1.0	1	upper	Verdana.ttf
829098	WORD	wordpools/wasnorm_wordpool_less_exclusions.txt	LTP215	ltpFR	6	6	-1	SUGAR	1401	n/a	n/a	-1	1.0	1.0	1	upper	Verdana.ttf
832946	WORD	wordpools/wasnorm_wordpool_less_exclusions.txt	LTP215	ltpFR	6	6	-1	SNORKEL	1336	n/a	n/a	-1	1.0	1.0	1	upper	Verdana.ttf
836935	WORD	wordpools/wasnorm_wordpool_less_exclusions.txt	LTP215	ltpFR	6	6	-1	CANAL	226	n/a	n/a	-1	1.0	1.0	1	upper	Verdana.ttf
841134	WORD	wordpools/wasnorm_wordpool_less_exclusions.txt	LTP215	ltpFR	6	6	-1	SHIP	1286	n/a	n/a	-1	1.0	1.0	1	upper	Verdana.ttf
845142	WORD	wordpools/wasnorm_wordpool_less_exclusions.txt	LTP215	ltpFR	6	6	-1	CHECKERS	285	n/a	n/a	-1	1.0	1.0	1	upper	Verdana.ttf
849341	WORD	wordpools/wasnorm_wordpool_less_exclusions.txt	LTP215	ltpFR	6	6	-1	PATH	1023	n/a	n/a	-1	1.0	1.0	1	upper	Verdana.ttf
853306	WORD	wordpools/wasnorm_wordpool_less_exclusions.txt	LTP215	ltpFR	6	6	-1	PICNIC	1060	n/a	n/a	-1	1.0	1.0	1	upper	Verdana.ttf
857178	WORD	wordpools/wasnorm_wordpool_less_exclusions.txt	LTP215	ltpFR	6	6	-1	PERSONNEL	1053	n/a	n/a	-1	1.0	1.0	1	upper	Verdana.ttf
861193	WORD	wordpools/wasnorm_wordpool_less_exclusions.txt	LTP215	ltpFR	6	6	-1	JUPITER	765	n/a	n/a	-1	1.0	1.0	1	upper	Verdana.ttf
865359	WORD	wordpools/wasnorm_wordpool_less_exclusions.txt	LTP215	ltpFR	6	6	-1	MOON	914	n/a	n/a	-1	1.0	1.0	1	upper	Verdana.ttf
869500	WORD	wordpools/wasnorm_wordpool_less_exclusions.txt	LTP215	ltpFR	6	6	-1	VICTOR	1563	n/a	n/a	-1	1.0	1.0	1	upper	Verdana.ttf
873658	WORD	wordpools/wasnorm_wordpool_less_exclusions.txt	LTP215	ltpFR	6	6	-1	TAR	1435	n/a	n/a	-1	1.0	1.0	1	upper	Verdana.ttf
877872	WORD	wordpools/wasnorm_wordpool_less_exclusions.txt	LTP215	ltpFR	6	6	-1	WAITRESS	1581	n/a	n/a	-1	1.0	1.0	1	upper	Verdana.ttf
883680	REC_START	n/a	LTP215	ltpFR	6	6	n/a	n/a	n/a	n/a	n/a	n/a	n/a	n/a	n/a	n/a	n/a
884263	REC_WORD	wordpools/wasnorm_wordpool_less_exclusions.txt	LTP215	ltpFR	6	6	-1	PATH	1023	n/a	n/a	-1	n/a	n/a	n/a	n/a	n/a
884822	REC_WORD	wordpools/wasnorm_wordpool_less_exclusions.txt	LTP215	ltpFR	6	6	-1	PERSONNEL	1053	n/a	n/a	-1	n/a	n/a	n/a	n/a	n/a
885705	REC_WORD	wordpools/wasnorm_wordpool_less_exclusions.txt	LTP215	ltpFR	6	6	-1	JUPITER	765	n/a	n/a	-1	n/a	n/a	n/a	n/a	n/a
886313	REC_WORD	wordpools/wasnorm_wordpool_less_exclusions.txt	LTP215	ltpFR	6	6	-1	MOON	914	n/a	n/a	-1	n/a	n/a	n/a	n/a	n/a
886778	REC_WORD	wordpools/wasnorm_wordpool_less_exclusions.txt	LTP215	ltpFR	6	6	-1	VICTOR	1563	n/a	n/a	-1	n/a	n/a	n/a	n/a	n/a
887570	REC_WORD	wordpools/wasnorm_wordpool_less_exclusions.txt	LTP215	ltpFR	6	6	-1	WAITRESS	1581	n/a	n/a	-1	n/a	n/a	n/a	n/a	n/a
889099	REC_WORD	wordpools/wasnorm_wordpool_less_exclusions.txt	LTP215	ltpFR	6	6	-1	CEILING	265	n/a	n/a	-1	n/a	n/a	n/a	n/a	n/a
892344	REC_WORD	wordpools/wasnorm_wordpool_less_exclusions.txt	LTP215	ltpFR	6	6	-1	SNORKEL	1336	n/a	n/a	-1	n/a	n/a	n/a	n/a	n/a
893517	REC_WORD	wordpools/wasnorm_wordpool_less_exclusions.txt	LTP215	ltpFR	6	6	-1	CANAL	226	n/a	n/a	-1	n/a	n/a	n/a	n/a	n/a
897852	REC_WORD	wordpools/wasnorm_wordpool_less_exclusions.txt	LTP215	ltpFR	6	6	-1	SHIP	1286	n/a	n/a	-1	n/a	n/a	n/a	n/a	n/a
932519	REC_WORD	wordpools/wasnorm_wordpool_less_exclusions.txt	LTP215	ltpFR	6	6	-1	JUPITER	765	n/a	n/a	-1	n/a	n/a	n/a	n/a	n/a
933074	REC_WORD	wordpools/wasnorm_wordpool_less_exclusions.txt	LTP215	ltpFR	6	6	-1	MOON	914	n/a	n/a	-1	n/a	n/a	n/a	n/a	n/a
973944	WORD	wordpools/wasnorm_wordpool_less_exclusions.txt	LTP215	ltpFR	6	7	1	PELICAN	1039	n/a	n/a	1	0.422607421875	0.5869140625	0	upper	amplitud.ttf
978100	WORD	wordpools/wasnorm_wordpool_less_exclusions.txt	LTP215	ltpFR	6	7	1	NEST	945	n/a	n/a	0	0.422607421875	0.5869140625	0	upper	amplitud.ttf
982182	WORD	wordpools/wasnorm_wordpool_less_exclusions.txt	LTP215	ltpFR	6	7	1	FROG	608	n/a	n/a	1	0.422607421875	0.5869140625	0	upper	amplitud.ttf
986290	WORD	wordpools/wasnorm_wordpool_less_exclusions.txt	LTP215	ltpFR	6	7	1	MAILMAN	858	n/a	n/a	1	0.422607421875	0.5869140625	0	upper	amplitud.ttf
990146	WORD	wordpools/wasnorm_wordpool_less_exclusions.txt	LTP215	ltpFR	6	7	1	COFFEE	341	n/a	n/a	0	0.422607421875	0.5869140625	0	upper	amplitud.ttf
994003	WORD	wordpools/wasnorm_wordpool_less_exclusions.txt	LTP215	ltpFR	6	7	1	FIN	566	n/a	n/a	0	0.422607421875	0.5869140625	0	upper	amplitud.ttf
997968	WORD	wordpools/wasnorm_wordpool_less_exclusions.txt	LTP215	ltpFR	6	7	1	MAMMAL	861	n/a	n/a	1	0.422607421875	0.5869140625	0	upper	amplitud.ttf
1001973	WORD	wordpools/wasnorm_wordpool_less_exclusions.txt	LTP215	ltpFR	6	7	1	CART	250	n/a	n/a	0	0.422607421875	0.5869140625	0	upper	amplitud.ttf
1005905	WORD	wordpools/wasnorm_wordpool_less_exclusions.txt	LTP215	ltpFR	6	7	1	BUGLE	189	n/a	n/a	0	0.422607421875	0.5869140625	0	upper	amplitud.ttf
1010104	WORD	wordpools/wasnorm_wordpool_less_exclusions.txt	LTP215	ltpFR	6	7	1	LUNCH	849	n/a	n/a	0	0.422607421875	0.5869140625	0	upper	amplitud.ttf
1014229	WORD	wordpools/wasnorm_wordpool_less_exclusions.txt	LTP215	ltpFR	6	7	1	SADDLE	1221	n/a	n/a	0	0.422607421875	0.5869140625	0	upper	amplitud.ttf
1018235	WORD	wordpools/wasnorm_wordpool_less_exclusions.txt	LTP215	ltpFR	6	7	1	CELLAR	267	n/a	n/a	0	0.422607421875	0.5869140625	0	upper	amplitud.ttf
1022417	WORD	wordpools/wasnorm_wordpool_less_exclusions.txt	LTP215	ltpFR	6	7	1	DOORBELL	487	n/a	n/a	0	0.422607421875	0.5869140625	0	upper	amplitud.ttf
1026315	WORD	wordpools/wasnorm_wordpool_less_exclusions.txt	LTP215	ltpFR	6	7	1	TRAY	1498	n/a	n/a	0	0.422607421875	0.5869140625	0	upper	amplitud.ttf
1030196	WORD	wordpools/wasnorm_wordpool_less_exclusions.txt	LTP215	ltpFR	6	7	1	GENERAL	630	n/a	n/a	1	0.422607421875	0.5869140625	0	upper	amplitud.ttf
1034128	WORD	wordpools/wasnorm_wordpool_less_exclusions.txt	LTP215	ltpFR	6	7	1	SKYSCRAPER	1322	n/a	n/a	0	0.422607421875	0.5869140625	0	upper	amplitud.ttf
1039910	REC_START	n/a	LTP215	ltpFR	6	7	n/a	n/a	n/a	n/a	n/a	n/a	n/a	n/a	n/a	n/a	n/a
1040194	REC_WORD	wordpools/wasnorm_wordpool_less_exclusions.txt	LTP215	ltpFR	6	7	1	GENERAL	630	n/a	n/a	1	n/a	n/a	n/a	n/a	n/a
1040764	REC_WORD	wordpools/wasnorm_wordpool_less_exclusions.txt	LTP215	ltpFR	6	7	1	SKYSCRAPER	1322	n/a	n/a	0	n/a	n/a	n/a	n/a	n/a
1041773	REC_WORD_VV	wordpools/wasnorm_wordpool_less_exclusions.txt	LTP215	ltpFR	6	7	n/a	<>	-1	n/a	n/a	n/a	n/a	n/a	n/a	n/a	n/a
1043417	REC_WORD	wordpools/wasnorm_wordpool_less_exclusions.txt	LTP215	ltpFR	6	7	1	BUGLE	189	n/a	n/a	0	n/a	n/a	n/a	n/a	n/a
1045642	REC_WORD	wordpools/wasnorm_wordpool_less_exclusions.txt	LTP215	ltpFR	6	7	1	LUNCH	849	n/a	n/a	0	n/a	n/a	n/a	n/a	n/a
1048390	REC_WORD	wordpools/wasnorm_wordpool_less_exclusions.txt	LTP215	ltpFR	6	7	1	MAILMAN	858	n/a	n/a	1	n/a	n/a	n/a	n/a	n/a
1059909	REC_WORD	wordpools/wasnorm_wordpool_less_exclusions.txt	LTP215	ltpFR	6	7	1	PELICAN	1039	n/a	n/a	1	n/a	n/a	n/a	n/a	n/a
1060595	REC_WORD	wordpools/wasnorm_wordpool_less_exclusions.txt	LTP215	ltpFR	6	7	1	NEST	945	n/a	n/a	0	n/a	n/a	n/a	n/a	n/a
1069962	REC_WORD	wordpools/wasnorm_wordpool_less_exclusions.txt	LTP215	ltpFR	6	7	1	TRAY	1498	n/a	n/a	0	n/a	n/a	n/a	n/a	n/a
1126844	WORD	wordpools/wasnorm_wordpool_less_exclusions.txt	LTP215	ltpFR	6	8	1	NUCLEUS	961	n/a	n/a	0	0.422607421875	0.5869140625	0	upper	amplitud.ttf
1130952	WORD	wordpools/wasnorm_wordpool_less_exclusions.txt	LTP215	ltpFR	6	8	1	ASTRONAUT	51	n/a	n/a	1	0.422607421875	0.5869140625	0	upper	amplitud.ttf
1135018	WORD	wordpools/wasnorm_wordpool_less_exclusions.txt	LTP215	ltpFR	6	8	1	CLERK	321	n/a	n/a	1	0.422607421875	0.5869140625	0	upper	amplitud.ttf
1139083	WORD	wordpools/wasnorm_wordpool_less_exclusions.txt	LTP215	ltpFR	6	8	1	COBRA	336	n/a	n/a	1	0.422607421875	0.5869140625	0	upper	amplitud.ttf
1143282	WORD	wordpools/wasnorm_wordpool_less_exclusions.txt	LTP215	ltpFR	6	8	0	COLOGNE	347	n/a	n/a	0	0.57763671875	0.412841796875	1	lower	zerothre.ttf
1147472	WORD	wordpools/wasnorm_wordpool_less_exclusions.txt	LTP215	ltpFR	6	8	0	GUITAR	670	n/a	n/a	1	0.57763671875	0.412841796875	1	lower	zerothre.ttf
1151386	WORD	wordpools/wasnorm_wordpool_less_exclusions.txt	LTP215	ltpFR	6	8	0	VITAMIN	1574	n/a	n/a	0	0.57763671875	0.412841796875	1	lower	zerothre.ttf
1155234	WORD	wordpools/wasnorm_wordpool_less_exclusions.txt	LTP215	ltpFR	6	8	0	EMPLOYER	532	n/a	n/a	1	0.57763671875	0.412841796875	1	lower	zerothre.ttf
1159292	WORD	wordpools/wasnorm_wordpool_less_exclusions.txt	LTP215	ltpFR	6	8	0	TOWEL	1489	n/a	n/a	0	0.57763671875	0.412841796875	1	lower	zerothre.ttf
1163308	WORD	wordpools/wasnorm_wordpool_less_exclusions.txt	LTP215	ltpFR	6	8	0	OUTFIT	988	n/a	n/a	1	0.57763671875	0.412841796875	1	lower	zerothre.ttf
1167306	WORD	wordpools/wasnorm_wordpool_less_exclusions.txt	LTP215	ltpFR	6	8	1	CHEST	295	n/a	n/a	0	0.422607421875	0.5869140625	0	upper	amplitud.ttf
1171154	WORD	wordpools/wasnorm_wordpool_less_exclusions.txt	LTP215	ltpFR	6	8	1	TWEEZERS	1526	n/a	n/a	0	0.422607421875	0.5869140625	0	upper	amplitud.ttf
1175076	WORD	wordpools/wasnorm_wordpool_less_exclusions.txt	LTP215	ltpFR	6	8	1	DRAWING	494	n/a	n/a	0	0.422607421875	0.5869140625	0	upper	amplitud.ttf
1179057	WORD	wordpools/wasnorm_wordpool_less_exclusions.txt	LTP215	ltpFR	6	8	1	DIAGRAM	456	n/a	n/a	0	0.422607421875	0.5869140625	0	upper	amplitud.ttf
1182915	WORD	wordpools/wasnorm_wordpool_less_exclusions.txt	LTP215	ltpFR	6	8	0	METEOR	889	n/a	n/a	1	0.57763671875	0.412841796875	1	lower	zerothre.ttf
1187097	WORD	wordpools/wasnorm_wordpool_less_exclusions.txt	LTP215	ltpFR	6	8	0	SLIDE	1326	n/a	n/a	1	0.57763671875	0.412841796875	1	lower	zerothre.ttf
1192754	REC_START	n/a	LTP215	ltpFR	6	8	n/a	n/a	n/a	n/a	n/a	n/a	n/a	n/a	n/a	n/a	n/a
1193296	REC_WORD	wordpools/wasnorm_wordpool_less_exclusions.txt	LTP215	ltpFR	6	8	1	TWEEZERS	1526	n/a	n/a	0	n/a	n/a	n/a	n/a	n/a
1193878	REC_WORD	wordpools/wasnorm_wordpool_less_exclusions.txt	LTP215	ltpFR	6	8	0	SLIDE	1326	n/a	n/a	1	n/a	n/a	n/a	n/a	n/a
1194759	REC_WORD	wordpools/wasnorm_wordpool_less_exclusions.txt	LTP215	ltpFR	6	8	1	DIAGRAM	456	n/a	n/a	0	n/a	n/a	n/a	n/a	n/a
1195702	REC_WORD	wordpools/wasnorm_wordpool_less_exclusions.txt	LTP215	ltpFR	6	8	1	DRAWING	494	n/a	n/a	0	n/a	n/a	n/a	n/a	n/a
1200501	REC_WORD	wordpools/wasnorm_wordpool_less_exclusions.txt	LTP215	ltpFR	6	8	1	ASTRONAUT	51	n/a	n/a	1	n/a	n/a	n/a	n/a	n/a
1291566	WORD	wordpools/wasnorm_wordpool_less_exclusions.txt	LTP215	ltpFR	6	9	-1	TICK	1463	n/a	n/a	-1	1.0	1.0	1	upper	Verdana.ttf
1295790	WORD	wordpools/wasnorm_wordpool_less_exclusions.txt	LTP215	ltpFR	6	9	-1	BELL	118	n/a	n/a	-1	1.0	1.0	1	upper	Verdana.ttf
1299913	WORD	wordpools/wasnorm_wordpool_less_exclusions.txt	LTP215	ltpFR	6	9	-1	BOXER	160	n/a	n/a	-1	1.0	1.0	1	upper	Verdana.ttf
1303804	WORD	wordpools/wasnorm_wordpool_less_exclusions.txt	LTP215	ltpFR	6	9	-1	SAILOR	1223	n/a	n/a	-1	1.0	1.0	1	upper	Verdana.ttf
1307953	WORD	wordpools/wasnorm_wordpool_less_exclusions.txt	LTP215	ltpFR	6	9	-1	ALBUM	14	n/a	n/a	-1	1.0	1.0	1	upper	Verdana.ttf
1312042	WORD	wordpools/wasnorm_wordpool_less_exclusions.txt	LTP215	ltpFR	6	9	-1	THORN	1459	n/a	n/a	-1	1.0	1.0	1	upper	Verdana.ttf
1316083	WORD	wordpools/wasnorm_wordpool_less_exclusions.txt	LTP215	ltpFR	6	9	-1	SUITE	1404	n/a	n/a	-1	1.0	1.0	1	upper	Verdana.ttf
1320306	WORD	wordpools/wasnorm_wordpool_less_exclusions.txt	LTP215	ltpFR	6	9	-1	CHOCOLATE	306	n/a	n/a	-1	1.0	1.0	1	upper	Verdana.ttf
1324147	WORD	wordpools/wasnorm_wordpool_less_exclusions.txt	LTP215	ltpFR	6	9	-1	BUGGY	188	n/a	n/a	-1	1.0	1.0	1	upper	Verdana.ttf
1328346	WORD	wordpools/wasnorm_wordpool_less_exclusions.txt	LTP215	ltpFR	6	9	-1	RECORD	1176	n/a	n/a	-1	1.0	1.0	1	upper	Verdana.ttf
1332520	WORD	wordpools/wasnorm_wordpool_less_exclusions.txt	LTP215	ltpFR	6	9	-1	THREAD	1460	n/a	n/a	-1	1.0	1.0	1	upper	Verdana.ttf
1336434	WORD	wordpools/wasnorm_wordpool_less_exclusions.txt	LTP215	ltpFR	6	9	-1	CONCERT	360	n/a	n/a	-1	1.0	1.0	1	upper	Verdana.ttf
1340425	WORD	wordpools/wasnorm_wordpool_less_exclusions.txt	LTP215	ltpFR	6	9	-1	TROMBONE	1508	n/a	n/a	-1	1.0	1.0	1	upper	Verdana.ttf
1344380	WORD	wordpools/wasnorm_wordpool_less_exclusions.txt	LTP215	ltpFR	6	9	-1	SPIDER	1351	n/a	n/a	-1	1.0	1.0	1	upper	Verdana.ttf
1348362	WORD	wordpools/wasnorm_wordpool_less_exclusions.txt	LTP215	ltpFR	6	9	-1	RELISH	1183	n/a	n/a	-1	1.0	1.0	1	upper	Verdana.ttf
1352387	WORD	wordpools/wasnorm_wordpool_less_exclusions.txt	LTP215	ltpFR	6	9	-1	DILL	465	n/a	n/a	-1	1.0	1.0	1	upper	Verdana.ttf
1358150	REC_START	n/a	LTP215	ltpFR	6	9	n/a	n/a	n/a	n/a	n/a	n/a	n/a	n/a	n/a	n/a	n/a
1358367	REC_WORD	wordpools/wasnorm_wordpool_less_exclusions.txt	LTP215	ltpFR	6	9	-1	SPIDER	1351	n/a	n/a	-1	n/a	n/a	n/a	n/a	n/a
1359103	REC_WORD	wordpools/wasnorm_wordpool_less_exclusions.txt	LTP215	ltpFR	6	9	-1	RELISH	1183	n/a	n/a	-1	n/a	n/a	n/a	n/a	n/a
1359776	REC_WORD	wordpools/wasnorm_wordpool_less_exclusions.txt	LTP215	ltpFR	6	9	-1	DILL	465	n/a	n/a	-1	n/a	n/a	n/a	n/a	n/a
1364577	REC_WORD	wordpools/wasnorm_wordpool_less_exclusions.txt	LTP215	ltpFR	6	9	-1	THREAD	1460	n/a	n/a	-1	n/a	n/a	n/a	n/a	n/a
1370051	REC_WORD	wordpools/wasnorm_wordpool_less_exclusions.txt	LTP215	ltpFR	6	9	-1	RECORD	1176	n/a	n/a	-1	n/a	n/a	n/a	n/a	n/a
1374263	REC_WORD	wordpools/wasnorm_wordpool_less_exclusions.txt	LTP215	ltpFR	6	9	-1	TICK	1463	n/a	n/a	-1	n/a	n/a	n/a	n/a	n/a
1444491	WORD	wordpools/wasnorm_wordpool_less_exclusions.txt	LTP215	ltpFR	6	10	0	RIB	1188	n/a	n/a	1	0.57763671875	0.412841796875	1	lower	zerothre.ttf
1448517	WORD	wordpools/wasnorm_wordpool_less_exclusions.txt	LTP215	ltpFR	6	10	0	TOOTHBRUSH	1482	n/a	n/a	0	0.57763671875	0.412841796875	1	lower	zerothre.ttf
1452639	WORD	wordpools/wasnorm_wordpool_less_exclusions.txt	LTP215	ltpFR	6	10	0	CABIN	211	n/a	n/a	1	0.57763671875	0.412841796875	1	lower	zerothre.ttf
1456814	WORD	wordpools/wasnorm_wordpool_less_exclusions.txt	LTP215	ltpFR	6	10	0	HUT	729	n/a	n/a	1	0.57763671875	0.412841796875	1	lower	zerothre.ttf
1460753	WORD	wordpools/wasnorm_wordpool_less_exclusions.txt	LTP215	ltpFR	6	10	0	MONK	910	n/a	n/a	1	0.57763671875	0.412841796875	1	lower	zerothre.ttf
1464794	WORD	wordpools/wasnorm_wordpool_less_exclusions.txt	LTP215	ltpFR	6	10	0	GRAPE	654	n/a	n/a	0	0.57763671875	0.412841796875	1	lower	zerothre.ttf
1468967	WORD	wordpools/wasnorm_wordpool_less_exclusions.txt	LTP215	ltpFR	6	10	0	CUCUMBER	421	n/a	n/a	0	0.57763671875	0.412841796875	1	lower	zerothre.ttf
1473099	WORD	wordpools/wasnorm_wordpool_less_exclusions.txt	LTP215	ltpFR	6	10	0	BARN	89	n/a	n/a	1	0.57763671875	0.412841796875	1	lower	zerothre.ttf
1477090	WORD	wordpools/wasnorm_wordpool_less_exclusions.txt	LTP215	ltpFR	6	10	0	SHARK	1275	n/a	n/a	1	0.57763671875	0.412841796875	1	lower	zerothre.ttf
1480979	WORD	wordpools/wasnorm_wordpool_less_exclusions.txt	LTP215	ltpFR	6	10	0	DIAMOND	458	n/a	n/a	0	0.57763671875	0.412841796875	1	lower	zerothre.ttf
1484910	WORD	wordpools/wasnorm_wordpool_less_exclusions.txt	LTP215	ltpFR	6	10	0	ARROW	40	n/a	n/a	0	0.57763671875	0.412841796875	1	lower	zerothre.ttf
1488885	WORD	wordpools/wasnorm_wordpool_less_exclusions.txt	LTP215	ltpFR	6	10	0	PAINT	1003	n/a	n/a	1	0.57763671875	0.412841796875	1	lower	zerothre.ttf
1492833	WORD	wordpools/wasnorm_wordpool_less_exclusions.txt	LTP215	ltpFR	6	10	0	SANDWICH	1232	n/a	n/a	0	0.57763671875	0.412841796875	1	lower	zerothre.ttf
1496898	WORD	wordpools/wasnorm_wordpool_less_exclusions.txt	LTP215	ltpFR	6	10	0	MONASTERY	907	n/a	n/a	1	0.57763671875	0.412841796875	1	lower	zerothre.ttf
1500730	WORD	wordpools/wasnorm_wordpool_less_exclusions.txt	LTP215	ltpFR	6	10	0	PLANET	1082	n/a	n/a	1	0.57763671875	0.412841796875	1	lower	zerothre.ttf
1504828	WORD	wordpools/wasnorm_wordpool_less_exclusions.txt	LTP215	ltpFR	6	10	0	SATURN	1236	n/a	n/a	1	0.57763671875	0.412841796875	1	lower	zerothre.ttf
1510784	REC_START	n/a	LTP215	ltpFR	6	10	n/a	n/a	n/a	n/a	n/a	n/a	n/a	n/a	n/a	n/a	n/a
1511003	REC_WORD	wordpools/wasnorm_wordpool_less_exclusions.txt	LTP215	ltpFR	6	10	0	MONASTERY	907	n/a	n/a	1	n/a	n/a	n/a	n/a	n/a
1511767	REC_WORD	wordpools/wasnorm_wordpool_less_exclusions.txt	LTP215	ltpFR	6	10	0	MONK	910	n/a	n/a	1	n/a	n/a	n/a	n/a	n/a
1512411	REC_WORD	wordpools/wasnorm_wordpool_less_exclusions.txt	LTP215	ltpFR	6	10	0	PLANET	1082	n/a	n/a	1	n/a	n/a	n/a	n/a	n/a
1512999	REC_WORD	wordpools/wasnorm_wordpool_less_exclusions.txt	LTP215	ltpFR	6	10	0	SATURN	1236	n/a	n/a	1	n/a	n/a	n/a	n/a	n/a
1514296	REC_WORD	wordpools/wasnorm_wordpool_less_exclusions.txt	LTP215	ltpFR	6	10	0	GRAPE	654	n/a	n/a	0	n/a	n/a	n/a	n/a	n/a
1514969	REC_WORD	wordpools/wasnorm_wordpool_less_exclusions.txt	LTP215	ltpFR	6	10	0	TOOTHBRUSH	1482	n/a	n/a	0	n/a	n/a	n/a	n/a	n/a
1516261	REC_WORD	wordpools/wasnorm_wordpool_less_exclusions.txt	LTP215	ltpFR	6	10	0	RIB	1188	n/a	n/a	1	n/a	n/a	n/a	n/a	n/a
1534624	REC_WORD	wordpools/wasnorm_wordpool_less_exclusions.txt	LTP215	ltpFR	6	10	0	PLANET	1082	n/a	n/a	1	n/a	n/a	n/a	n/a	n/a
1538885	REC_WORD	wordpools/wasnorm_wordpool_less_exclusions.txt	LTP215	ltpFR	6	10	0	BARN	89	n/a	n/a	1	n/a	n/a	n/a	n/a	n/a
1540357	REC_WORD	wordpools/wasnorm_wordpool_less_exclusions.txt	LTP215	ltpFR	6	10	0	HUT	729	n/a	n/a	1	n/a	n/a	n/a	n/a	n/a
1544078	REC_WORD	wordpools/wasnorm_wordpool_less_exclusions.txt	LTP215	ltpFR	6	10	0	PAINT	1003	n/a	n/a	1	n/a	n/a	n/a	n/a	n/a
1599200	WORD	wordpools/wasnorm_wordpool_less_exclusions.txt	LTP215	ltpFR	6	11	-1	RADISH	1158	n/a	n/a	-1	1.0	1.0	1	upper	Verdana.ttf
1603299	WORD	wordpools/wasnorm_wordpool_less_exclusions.txt	LTP215	ltpFR	6	11	-1	OLIVE	975	n/a	n/a	-1	1.0	1.0	1	upper	Verdana.ttf
1607164	WORD	wordpools/wasnorm_wordpool_less_exclusions.txt	LTP215	ltpFR	6	11	-1	BRUSH	182	n/a	n/a	-1	1.0	1.0	1	upper	Verdana.ttf
1611035	WORD	wordpools/wasnorm_wordpool_less_exclusions.txt	LTP215	ltpFR	6	11	-1	STOVE	1388	n/a	n/a	-1	1.0	1.0	1	upper	Verdana.ttf
1614900	WORD	wordpools/wasnorm_wordpool_less_exclusions.txt	LTP215	ltpFR	6	11	-1	PONY	1102	n/a	n/a	-1	1.0	1.0	1	upper	Verdana.ttf
1618725	WORD	wordpools/wasnorm_wordpool_less_exclusions.txt	LTP215	ltpFR	6	11	-1	LILY	821	n/a	n/a	-1	1.0	1.0	1	upper	Verdana.ttf
1622806	WORD	wordpools/wasnorm_wordpool_less_exclusions.txt	LTP215	ltpFR	6	11	-1	ASIA	46	n/a	n/a	-1	1.0	1.0	1	upper	Verdana.ttf
1626905	WORD	wordpools/wasnorm_wordpool_less_exclusions.txt	LTP215	ltpFR	6	11	-1	AFRICA	9	n/a	n/a	-1	1.0	1.0	1	upper	Verdana.ttf
1630819	WORD	wordpools/wasnorm_wordpool_less_exclusions.txt	LTP215	ltpFR	6	11	-1	FINGER	567	n/a	n/a	-1	1.0	1.0	1	upper	Verdana.ttf
1634909	WORD	wordpools/wasnorm_wordpool_less_exclusions.txt	LTP215	ltpFR	6	11	-1	COMMANDER	354	n/a	n/a	-1	1.0	1.0	1	upper	Verdana.ttf
1638773	WORD	wordpools/wasnorm_wordpool_less_exclusions.txt	LTP215	ltpFR	6	11	-1	HEATER	698	n/a	n/a	-1	1.0	1.0	1	upper	Verdana.ttf
1642656	WORD	wordpools/wasnorm_wordpool_less_exclusions.txt	LTP215	ltpFR	6	11	-1	LOG	841	n/a	n/a	-1	1.0	1.0	1	upper	Verdana.ttf
1646820	WORD	wordpools/wasnorm_wordpool_less_exclusions.txt	LTP215	ltpFR	6	11	-1	MILITARY	894	n/a	n/a	-1	1.0	1.0	1	upper	Verdana.ttf
1650712	WORD	wordpools/wasnorm_wordpool_less_exclusions.txt	LTP215	ltpFR	6	11	-1	OINTMENT	974	n/a	n/a	-1	1.0	1.0	1	upper	Verdana.ttf
1654567	WORD	wordpools/wasnorm_wordpool_less_exclusions.txt	LTP215	ltpFR	6	11	-1	SHEARS	1276	n/a	n/a	-1	1.0	1.0	1	upper	Verdana.ttf
1658525	WORD	wordpools/wasnorm_wordpool_less_exclusions.txt	LTP215	ltpFR	6	11	-1	MICROWAVE	892	n/a	n/a	-1	1.0	1.0	1	upper	Verdana.ttf
1664464	REC_START	n/a	LTP215	ltpFR	6	11	n/a	n/a	n/a	n/a	n/a	n/a	n/a	n/a	n/a	n/a	n/a
1664893	REC_WORD	wordpools/wasnorm_wordpool_less_exclusions.txt	LTP215	ltpFR	6	11	-1	SHEARS	1276	n/a	n/a	-1	n/a	n/a	n/a	n/a	n/a
1665631	REC_WORD	wordpools/wasnorm_wordpool_less_exclusions.txt	LTP215	ltpFR	6	11	-1	OINTMENT	974	n/a	n/a	-1	n/a	n/a	n/a	n/a	n/a
1666419	REC_WORD	wordpools/wasnorm_wordpool_less_exclusions.txt	LTP215	ltpFR	6	11	-1	MICROWAVE	892	n/a	n/a	-1	n/a	n/a	n/a	n/a	n/a
1667741	REC_WORD	wordpools/wasnorm_wordpool_less_exclusions.txt	LTP215	ltpFR	6	11	-1	HEATER	698	n/a	n/a	-1	n/a	n/a	n/a	n/a	n/a
1669956	REC_WORD	wordpools/wasnorm_wordpool_less_exclusions.txt	LTP215	ltpFR	6	11	-1	COMMANDER	354	n/a	n/a	-1	n/a	n/a	n/a	n/a	n/a
1672200	REC_WORD	wordpools/wasnorm_wordpool_less_exclusions.txt	LTP215	ltpFR	6	11	-1	AFRICA	9	n/a	n/a	-1	n/a	n/a	n/a	n/a	n/a
1673239	REC_WORD	wordpools/wasnorm_wordpool_less_exclusions.txt	LTP215	ltpFR	6	11	-1	ASIA	46	n/a	n/a	-1	n/a	n/a	n/a	n/a	n/a
1674022	REC_WORD	wordpools/wasnorm_wordpool_less_exclusions.txt	LTP215	ltpFR	6	11	-1	LILY	821	n/a	n/a	-1	n/a	n/a	n/a	n/a	n/a
1675715	REC_WORD	wordpools/wasnorm_wordpool_less_exclusions.txt	LTP215	ltpFR	6	11	-1	FINGER	567	n/a	n/a	-1	n/a	n/a	n/a	n/a	n/a
1682276	REC_WORD	wordpools/wasnorm_wordpool_less_exclusions.txt	LTP215	ltpFR	6	11	-1	OLIVE	975	n/a	n/a	-1	n/a	n/a	n/a	n/a	n/a
1696122	REC_WORD	wordpools/wasnorm_wordpool_less_exclusions.txt	LTP215	ltpFR	6	11	-1	BRUSH	182	n/a	n/a	-1	n/a	n/a	n/a	n/a	n/a
1765519	WORD	wordpools/wasnorm_wordpool_less_exclusions.txt	LTP215	ltpFR	6	12	0	BEETLE	116	n/a	n/a	0	0.57763671875	0.412841796875	1	lower	zerothre.ttf
1769593	WORD	wordpools/wasnorm_wordpool_less_exclusions.txt	LTP215	ltpFR	6	12	0	BANDIT	81	n/a	n/a	1	0.57763671875	0.412841796875	1	lower	zerothre.ttf
1773659	WORD	wordpools/wasnorm_wordpool_less_exclusions.txt	LTP215	ltpFR	6	12	0	BURGLAR	200	n/a	n/a	1	0.57763671875	0.412841796875	1	lower	zerothre.ttf
1777807	WORD	wordpools/wasnorm_wordpool_less_exclusions.txt	LTP215	ltpFR	6	12	1	HOSTESS	723	n/a	n/a	1	0.422607421875	0.5869140625	0	upper	amplitud.ttf
1781996	WORD	wordpools/wasnorm_wordpool_less_exclusions.txt	LTP215	ltpFR	6	12	1	PREACHER	1119	n/a	n/a	1	0.422607421875	0.5869140625	0	upper	amplitud.ttf
1785995	WORD	wordpools/wasnorm_wordpool_less_exclusions.txt	LTP215	ltpFR	6	12	1	SUIT	1402	n/a	n/a	0	0.422607421875	0.5869140625	0	upper	amplitud.ttf
1790110	WORD	wordpools/wasnorm_wordpool_less_exclusions.txt	LTP215	ltpFR	6	12	1	BLUEBERRY	140	n/a	n/a	1	0.422607421875	0.5869140625	0	upper	amplitud.ttf
1794235	WORD	wordpools/wasnorm_wordpool_less_exclusions.txt	LTP215	ltpFR	6	12	1	CATHEDRAL	260	n/a	n/a	0	0.422607421875	0.5869140625	0	upper	amplitud.ttf
1798157	WORD	wordpools/wasnorm_wordpool_less_exclusions.txt	LTP215	ltpFR	6	12	1	BOX	159	n/a	n/a	0	0.422607421875	0.5869140625	0	upper	amplitud.ttf
1802206	WORD	wordpools/wasnorm_wordpool_less_exclusions.txt	LTP215	ltpFR	6	12	0	WRENCH	1625	n/a	n/a	0	0.57763671875	0.412841796875	1	lower	zerothre.ttf
1806080	WORD	wordpools/wasnorm_wordpool_less_exclusions.txt	LTP215	ltpFR	6	12	0	TRUMPET	1513	n/a	n/a	1	0.57763671875	0.412841796875	1	lower	zerothre.ttf
1810078	WORD	wordpools/wasnorm_wordpool_less_exclusions.txt	LTP215	ltpFR	6	12	0	RADIO	1157	n/a	n/a	1	0.57763671875	0.412841796875	1	lower	zerothre.ttf
1813917	WORD	wordpools/wasnorm_wordpool_less_exclusions.txt	LTP215	ltpFR	6	12	0	BABY	64	n/a	n/a	0	0.57763671875	0.412841796875	1	lower	zerothre.ttf
1818058	WORD	wordpools/wasnorm_wordpool_less_exclusions.txt	LTP215	ltpFR	6	12	0	LANDSCAPE	799	n/a	n/a	1	0.57763671875	0.412841796875	1	lower	zerothre.ttf
1822023	WORD	wordpools/wasnorm_wordpool_less_exclusions.txt	LTP215	ltpFR	6	12	1	JACKET	747	n/a	n/a	0	0.422607421875	0.5869140625	0	upper	amplitud.ttf
1826180	WORD	wordpools/wasnorm_wordpool_less_exclusions.txt	LTP215	ltpFR	6	12	1	SLUG	1329	n/a	n/a	1	0.422607421875	0.5869140625	0	upper	amplitud.ttf
1832103	REC_START	n/a	LTP215	ltpFR	6	12	n/a	n/a	n/a	n/a	n/a	n/a	n/a	n/a	n/a	n/a	n/a
1832896	REC_WORD	wordpools/wasnorm_wordpool_less_exclusions.txt	LTP215	ltpFR	6	12	0	LANDSCAPE	799	n/a	n/a	1	n/a	n/a	n/a	n/a	n/a
1833689	REC_WORD	wordpools/wasnorm_wordpool_less_exclusions.txt	LTP215	ltpFR	6	12	1	JACKET	747	n/a	n/a	0	n/a	n/a	n/a	n/a	n/a
1834258	REC_WORD	wordpools/wasnorm_wordpool_less_exclusions.txt	LTP215	ltpFR	6	12	1	SLUG	1329	n/a	n/a	1	n/a	n/a	n/a	n/a	n/a
1835241	REC_WORD	wordpools/wasnorm_wordpool_less_exclusions.txt	LTP215	ltpFR	6	12	0	BABY	64	n/a	n/a	0	n/a	n/a	n/a	n/a	n/a
1837017	REC_WORD	wordpools/wasnorm_wordpool_less_exclusions.txt	LTP215	ltpFR	6	12	0	BEETLE	116	n/a	n/a	0	n/a	n/a	n/a	n/a	n/a
1847252	REC_WORD	wordpools/wasnorm_wordpool_less_exclusions.txt	LTP215	ltpFR	6	12	1	HOSTESS	723	n/a	n/a	1	n/a	n/a	n/a	n/a	n/a
1853186	REC_WORD	wordpools/wasnorm_wordpool_less_exclusions.txt	LTP215	ltpFR	6	12	0	WRENCH	1625	n/a	n/a	0	n/a	n/a	n/a	n/a	n/a
1907747	REST_REWET	n/a	LTP215	ltpFR	6	12	n/a	n/a	n/a	n/a	n/a	n/a	n/a	n/a	n/a	n/a	n/a
2215891	WORD	wordpools/wasnorm_wordpool_less_exclusions.txt	LTP215	ltpFR	6	13	0	INSTRUCTOR	741	n/a	n/a	1	0.57763671875	0.412841796875	1	lower	zerothre.ttf
2220014	WORD	wordpools/wasnorm_wordpool_less_exclusions.txt	LTP215	ltpFR	6	13	0	ASSISTANT	48	n/a	n/a	1	0.57763671875	0.412841796875	1	lower	zerothre.ttf
2224230	WORD	wordpools/wasnorm_wordpool_less_exclusions.txt	LTP215	ltpFR	6	13	0	RATTLE	1170	n/a	n/a	1	0.57763671875	0.412841796875	1	lower	zerothre.ttf
2228429	WORD	wordpools/wasnorm_wordpool_less_exclusions.txt	LTP215	ltpFR	6	13	0	DASHBOARD	441	n/a	n/a	1	0.57763671875	0.412841796875	1	lower	zerothre.ttf
2232286	WORD	wordpools/wasnorm_wordpool_less_exclusions.txt	LTP215	ltpFR	6	13	0	VAN	1548	n/a	n/a	1	0.57763671875	0.412841796875	1	lower	zerothre.ttf
2236385	WORD	wordpools/wasnorm_wordpool_less_exclusions.txt	LTP215	ltpFR	6	13	0	DRESS	495	n/a	n/a	1	0.57763671875	0.412841796875	1	lower	zerothre.ttf
2240457	WORD	wordpools/wasnorm_wordpool_less_exclusions.txt	LTP215	ltpFR	6	13	0	BELT	120	n/a	n/a	0	0.57763671875	0.412841796875	1	lower	zerothre.ttf
2244406	WORD	wordpools/wasnorm_wordpool_less_exclusions.txt	LTP215	ltpFR	6	13	0	GLACIER	638	n/a	n/a	1	0.57763671875	0.412841796875	1	lower	zerothre.ttf
2248480	WORD	wordpools/wasnorm_wordpool_less_exclusions.txt	LTP215	ltpFR	6	13	0	NECKLACE	940	n/a	n/a	0	0.57763671875	0.412841796875	1	lower	zerothre.ttf
2252571	WORD	wordpools/wasnorm_wordpool_less_exclusions.txt	LTP215	ltpFR	6	13	0	PROTRACTOR	1133	n/a	n/a	1	0.57763671875	0.412841796875	1	lower	zerothre.ttf
2256686	WORD	wordpools/wasnorm_wordpool_less_exclusions.txt	LTP215	ltpFR	6	13	0	BUNNY	198	n/a	n/a	0	0.57763671875	0.412841796875	1	lower	zerothre.ttf
2260735	WORD	wordpools/wasnorm_wordpool_less_exclusions.txt	LTP215	ltpFR	6	13	0	HOOP	716	n/a	n/a	1	0.57763671875	0.412841796875	1	lower	zerothre.ttf
2264599	WORD	wordpools/wasnorm_wordpool_less_exclusions.txt	LTP215	ltpFR	6	13	0	SHIRT	1287	n/a	n/a	0	0.57763671875	0.412841796875	1	lower	zerothre.ttf
2268814	WORD	wordpools/wasnorm_wordpool_less_exclusions.txt	LTP215	ltpFR	6	13	0	FROST	609	n/a	n/a	0	0.57763671875	0.412841796875	1	lower	zerothre.ttf
2272762	WORD	wordpools/wasnorm_wordpool_less_exclusions.txt	LTP215	ltpFR	6	13	0	CYLINDER	432	n/a	n/a	0	0.57763671875	0.412841796875	1	lower	zerothre.ttf
2276628	WORD	wordpools/wasnorm_wordpool_less_exclusions.txt	LTP215	ltpFR	6	13	0	LOOP	844	n/a	n/a	0	0.57763671875	0.412841796875	1	lower	zerothre.ttf
2282678	REC_START	n/a	LTP215	ltpFR	6	13	n/a	n/a	n/a	n/a	n/a	n/a	n/a	n/a	n/a	n/a	n/a
2283004	REC_WORD	wordpools/wasnorm_wordpool_less_exclusions.txt	LTP215	ltpFR	6	13	0	CYLINDER	432	n/a	n/a	0	n/a	n/a	n/a	n/a	n/a
2283743	REC_WORD	wordpools/wasnorm_wordpool_less_exclusions.txt	LTP215	ltpFR	6	13	0	LOOP	844	n/a	n/a	0	n/a	n/a	n/a	n/a	n/a
2284238	REC_WORD	wordpools/wasnorm_wordpool_less_exclusions.txt	LTP215	ltpFR	6	13	0	SHIRT	1287	n/a	n/a	0	n/a	n/a	n/a	n/a	n/a
2285052	REC_WORD	wordpools/wasnorm_wordpool_less_exclusions.txt	LTP215	ltpFR	6	13	0	DRESS	495	n/a	n/a	1	n/a	n/a	n/a	n/a	n/a
2286015	REC_WORD	wordpools/wasnorm_wordpool_less_exclusions.txt	LTP215	ltpFR	6	13	0	BELT	120	n/a	n/a	0	n/a	n/a	n/a	n/a	n/a
2287357	REC_WORD	wordpools/wasnorm_wordpool_less_exclusions.txt	LTP215	ltpFR	6	13	n/a	CONTRACTOR	369	n/a	n/a	n/a	n/a	n/a	n/a	n/a	n/a
2288358	REC_WORD_VV	wordpools/wasnorm_wordpool_less_exclusions.txt	LTP215	ltpFR	6	13	n/a	<>	-1	n/a	n/a	n/a	n/a	n/a	n/a	n/a	n/a
2311023	REC_WORD	wordpools/wasnorm_wordpool_less_exclusions.txt	LTP215	ltpFR	6	13	0	RATTLE	1170	n/a	n/a	1	n/a	n/a	n/a	n/a	n/a
2319634	REC_WORD	wordpools/wasnorm_wordpool_less_exclusions.txt	LTP215	ltpFR	6	13	0	GLACIER	638	n/a	n/a	1	n/a	n/a	n/a	n/a	n/a
2320427	REC_WORD	wordpools/wasnorm_wordpool_less_exclusions.txt	LTP215	ltpFR	6	13	0	FROST	609	n/a	n/a	0	n/a	n/a	n/a	n/a	n/a
2368038	WORD	wordpools/wasnorm_wordpool_less_exclusions.txt	LTP215	ltpFR	6	14	0	BASKET	95	n/a	n/a	1	0.57763671875	0.412841796875	1	lower	zerothre.ttf
2372120	WORD	wordpools/wasnorm_wordpool_less_exclusions.txt	LTP215	ltpFR	6	14	0	TIE	1466	n/a	n/a	0	0.57763671875	0.412841796875	1	lower	zerothre.ttf
2376102	WORD	wordpools/wasnorm_wordpool_less_exclusions.txt	LTP215	ltpFR	6	14	0	COLLAR	345	n/a	n/a	0	0.57763671875	0.412841796875	1	lower	zerothre.ttf
2379950	WORD	wordpools/wasnorm_wordpool_less_exclusions.txt	LTP215	ltpFR	6	14	1	PEANUT	1032	n/a	n/a	0	0.422607421875	0.5869140625	0	upper	amplitud.ttf
2384008	WORD	wordpools/wasnorm_wordpool_less_exclusions.txt	LTP215	ltpFR	6	14	1	MAJOR	859	n/a	n/a	0	0.422607421875	0.5869140625	0	upper	amplitud.ttf
2387997	WORD	wordpools/wasnorm_wordpool_less_exclusions.txt	LTP215	ltpFR	6	14	1	TOOTHPASTE	1483	n/a	n/a	0	0.422607421875	0.5869140625	0	upper	amplitud.ttf
2392129	WORD	wordpools/wasnorm_wordpool_less_exclusions.txt	LTP215	ltpFR	6	14	0	VIOLA	1570	n/a	n/a	1	0.57763671875	0.412841796875	1	lower	zerothre.ttf
2395986	WORD	wordpools/wasnorm_wordpool_less_exclusions.txt	LTP215	ltpFR	6	14	0	LAMP	798	n/a	n/a	1	0.57763671875	0.412841796875	1	lower	zerothre.ttf
2400126	WORD	wordpools/wasnorm_wordpool_less_exclusions.txt	LTP215	ltpFR	6	14	0	COLONEL	348	n/a	n/a	1	0.57763671875	0.412841796875	1	lower	zerothre.ttf
2404318	WORD	wordpools/wasnorm_wordpool_less_exclusions.txt	LTP215	ltpFR	6	14	1	WORKER	1621	n/a	n/a	0	0.422607421875	0.5869140625	0	upper	amplitud.ttf
2408518	WORD	wordpools/wasnorm_wordpool_less_exclusions.txt	LTP215	ltpFR	6	14	1	ELECTRICIAN	521	n/a	n/a	1	0.422607421875	0.5869140625	0	upper	amplitud.ttf
2412405	WORD	wordpools/wasnorm_wordpool_less_exclusions.txt	LTP215	ltpFR	6	14	1	POND	1101	n/a	n/a	0	0.422607421875	0.5869140625	0	upper	amplitud.ttf
2416454	WORD	wordpools/wasnorm_wordpool_less_exclusions.txt	LTP215	ltpFR	6	14	1	DOUGH	489	n/a	n/a	0	0.422607421875	0.5869140625	0	upper	amplitud.ttf
2420563	WORD	wordpools/wasnorm_wordpool_less_exclusions.txt	LTP215	ltpFR	6	14	1	MOTH	920	n/a	n/a	1	0.422607421875	0.5869140625	0	upper	amplitud.ttf
2424477	WORD	wordpools/wasnorm_wordpool_less_exclusions.txt	LTP215	ltpFR	6	14	0	CRICKET	408	n/a	n/a	0	0.57763671875	0.412841796875	1	lower	zerothre.ttf
2428499	WORD	wordpools/wasnorm_wordpool_less_exclusions.txt	LTP215	ltpFR	6	14	0	TUBE	1516	n/a	n/a	0	0.57763671875	0.412841796875	1	lower	zerothre.ttf
2434289	REC_START	n/a	LTP215	ltpFR	6	14	n/a	n/a	n/a	n/a	n/a	n/a	n/a	n/a	n/a	n/a	n/a
2434718	REC_WORD	wordpools/wasnorm_wordpool_less_exclusions.txt	LTP215	ltpFR	6	14	0	TUBE	1516	n/a	n/a	0	n/a	n/a	n/a	n/a	n/a
2435267	REC_WORD	wordpools/wasnorm_wordpool_less_exclusions.txt	LTP215	ltpFR	6	14	1	TOOTHPASTE	1483	n/a	n/a	0	n/a	n/a	n/a	n/a	n/a
2436034	REC_WORD	wordpools/wasnorm_wordpool_less_exclusions.txt	LTP215	ltpFR	6	14	1	MOTH	920	n/a	n/a	1	n/a	n/a	n/a	n/a	n/a
2436633	REC_WORD	wordpools/wasnorm_wordpool_less_exclusions.txt	LTP215	ltpFR	6	14	0	CRICKET	408	n/a	n/a	0	n/a	n/a	n/a	n/a	n/a
2437751	REC_WORD	wordpools/wasnorm_wordpool_less_exclusions.txt	LTP215	ltpFR	6	14	1	ELECTRICIAN	521	n/a	n/a	1	n/a	n/a	n/a	n/a	n/a
2438566	REC_WORD	wordpools/wasnorm_wordpool_less_exclusions.txt	LTP215	ltpFR	6	14	1	WORKER	1621	n/a	n/a	0	n/a	n/a	n/a	n/a	n/a
2440140	REC_WORD	wordpools/wasnorm_wordpool_less_exclusions.txt	LTP215	ltpFR	6	14	1	POND	1101	n/a	n/a	0	n/a	n/a	n/a	n/a	n/a
2445892	REC_WORD	wordpools/wasnorm_wordpool_less_exclusions.txt	LTP215	ltpFR	6	14	0	COLONEL	348	n/a	n/a	1	n/a	n/a	n/a	n/a	n/a
2508964	REC_WORD	wordpools/wasnorm_wordpool_less_exclusions.txt	LTP215	ltpFR	6	14	0	VIOLA	1570	n/a	n/a	1	n/a	n/a	n/a	n/a	n/a
2516642	WORD	wordpools/wasnorm_wordpool_less_exclusions.txt	LTP215	ltpFR	6	15	0	SKI	1316	n/a	n/a	1	0.57763671875	0.412841796875	1	lower	zerothre.ttf
2520840	WORD	wordpools/wasnorm_wordpool_less_exclusions.txt	LTP215	ltpFR	6	15	0	ROOM	1206	n/a	n/a	1	0.57763671875	0.412841796875	1	lower	zerothre.ttf
2524946	WORD	wordpools/wasnorm_wordpool_less_exclusions.txt	LTP215	ltpFR	6	15	0	ELBOW	520	n/a	n/a	0	0.57763671875	0.412841796875	1	lower	zerothre.ttf
2528921	WORD	wordpools/wasnorm_wordpool_less_exclusions.txt	LTP215	ltpFR	6	15	0	OAR	966	n/a	n/a	1	0.57763671875	0.412841796875	1	lower	zerothre.ttf
2532943	WORD	wordpools/wasnorm_wordpool_less_exclusions.txt	LTP215	ltpFR	6	15	0	HOUSE	725	n/a	n/a	1	0.57763671875	0.412841796875	1	lower	zerothre.ttf
2536858	WORD	wordpools/wasnorm_wordpool_less_exclusions.txt	LTP215	ltpFR	6	15	0	MINT	898	n/a	n/a	0	0.57763671875	0.412841796875	1	lower	zerothre.ttf
2540866	WORD	wordpools/wasnorm_wordpool_less_exclusions.txt	LTP215	ltpFR	6	15	0	COOKIE	374	n/a	n/a	0	0.57763671875	0.412841796875	1	lower	zerothre.ttf
2544955	WORD	wordpools/wasnorm_wordpool_less_exclusions.txt	LTP215	ltpFR	6	15	0	BADGE	68	n/a	n/a	0	0.57763671875	0.412841796875	1	lower	zerothre.ttf
2548820	WORD	wordpools/wasnorm_wordpool_less_exclusions.txt	LTP215	ltpFR	6	15	0	BOULEVARD	156	n/a	n/a	1	0.57763671875	0.412841796875	1	lower	zerothre.ttf
2553019	WORD	wordpools/wasnorm_wordpool_less_exclusions.txt	LTP215	ltpFR	6	15	0	PATIO	1025	n/a	n/a	1	0.57763671875	0.412841796875	1	lower	zerothre.ttf
2557201	WORD	wordpools/wasnorm_wordpool_less_exclusions.txt	LTP215	ltpFR	6	15	0	COOKBOOK	373	n/a	n/a	0	0.57763671875	0.412841796875	1	lower	zerothre.ttf
2561109	WORD	wordpools/wasnorm_wordpool_less_exclusions.txt	LTP215	ltpFR	6	15	0	HAMBURGER	679	n/a	n/a	0	0.57763671875	0.412841796875	1	lower	zerothre.ttf
2565140	WORD	wordpools/wasnorm_wordpool_less_exclusions.txt	LTP215	ltpFR	6	15	0	LEG	809	n/a	n/a	0	0.57763671875	0.412841796875	1	lower	zerothre.ttf
2569356	WORD	wordpools/wasnorm_wordpool_less_exclusions.txt	LTP215	ltpFR	6	15	0	JEWEL	757	n/a	n/a	0	0.57763671875	0.412841796875	1	lower	zerothre.ttf
2573312	WORD	wordpools/wasnorm_wordpool_less_exclusions.txt	LTP215	ltpFR	6	15	0	PUBLICATION	1136	n/a	n/a	1	0.57763671875	0.412841796875	1	lower	zerothre.ttf
2577353	WORD	wordpools/wasnorm_wordpool_less_exclusions.txt	LTP215	ltpFR	6	15	0	BOOK	149	n/a	n/a	1	0.57763671875	0.412841796875	1	lower	zerothre.ttf
2583109	REC_START	n/a	LTP215	ltpFR	6	15	n/a	n/a	n/a	n/a	n/a	n/a	n/a	n/a	n/a	n/a	n/a
2583658	REC_WORD	wordpools/wasnorm_wordpool_less_exclusions.txt	LTP215	ltpFR	6	15	0	JEWEL	757	n/a	n/a	0	n/a	n/a	n/a	n/a	n/a
2584111	REC_WORD	wordpools/wasnorm_wordpool_less_exclusions.txt	LTP215	ltpFR	6	15	0	PUBLICATION	1136	n/a	n/a	1	n/a	n/a	n/a	n/a	n/a
2585094	REC_WORD	wordpools/wasnorm_wordpool_less_exclusions.txt	LTP215	ltpFR	6	15	0	BOOK	149	n/a	n/a	1	n/a	n/a	n/a	n/a	n/a
2585643	REC_WORD	wordpools/wasnorm_wordpool_less_exclusions.txt	LTP215	ltpFR	6	15	0	COOKBOOK	373	n/a	n/a	0	n/a	n/a	n/a	n/a	n/a
2587135	REC_WORD	wordpools/wasnorm_wordpool_less_exclusions.txt	LTP215	ltpFR	6	15	0	HAMBURGER	679	n/a	n/a	0	n/a	n/a	n/a	n/a	n/a
2587954	REC_WORD	wordpools/wasnorm_wordpool_less_exclusions.txt	LTP215	ltpFR	6	15	0	MINT	898	n/a	n/a	0	n/a	n/a	n/a	n/a	n/a
2588681	REC_WORD	wordpools/wasnorm_wordpool_less_exclusions.txt	LTP215	ltpFR	6	15	0	COOKIE	374	n/a	n/a	0	n/a	n/a	n/a	n/a	n/a
2589227	REC_WORD	wordpools/wasnorm_wordpool_less_exclusions.txt	LTP215	ltpFR	6	15	0	HOUSE	725	n/a	n/a	1	n/a	n/a	n/a	n/a	n/a
2589993	REC_WORD	wordpools/wasnorm_wordpool_less_exclusions.txt	LTP215	ltpFR	6	15	0	PATIO	1025	n/a	n/a	1	n/a	n/a	n/a	n/a	n/a
2590771	REC_WORD	wordpools/wasnorm_wordpool_less_exclusions.txt	LTP215	ltpFR	6	15	0	ROOM	1206	n/a	n/a	1	n/a	n/a	n/a	n/a	n/a
2591594	REC_WORD	wordpools/wasnorm_wordpool_less_exclusions.txt	LTP215	ltpFR	6	15	0	BOULEVARD	156	n/a	n/a	1	n/a	n/a	n/a	n/a	n/a
2673850	WORD	wordpools/wasnorm_wordpool_less_exclusions.txt	LTP215	ltpFR	6	16	-1	SMOG	1330	n/a	n/a	-1	1.0	1.0	1	upper	Verdana.ttf
2677906	WORD	wordpools/wasnorm_wordpool_less_exclusions.txt	LTP215	ltpFR	6	16	-1	COLLEGE	346	n/a	n/a	-1	1.0	1.0	1	upper	Verdana.ttf
2682122	WORD	wordpools/wasnorm_wordpool_less_exclusions.txt	LTP215	ltpFR	6	16	-1	BUILDER	190	n/a	n/a	-1	1.0	1.0	1	upper	Verdana.ttf
2686104	WORD	wordpools/wasnorm_wordpool_less_exclusions.txt	LTP215	ltpFR	6	16	-1	TELEVISION	1447	n/a	n/a	-1	1.0	1.0	1	upper	Verdana.ttf
2690152	WORD	wordpools/wasnorm_wordpool_less_exclusions.txt	LTP215	ltpFR	6	16	-1	COD	340	n/a	n/a	-1	1.0	1.0	1	upper	Verdana.ttf
2694368	WORD	wordpools/wasnorm_wordpool_less_exclusions.txt	LTP215	ltpFR	6	16	-1	SCALLOP	1242	n/a	n/a	-1	1.0	1.0	1	upper	Verdana.ttf
2698300	WORD	wordpools/wasnorm_wordpool_less_exclusions.txt	LTP215	ltpFR	6	16	-1	MAPLE	866	n/a	n/a	-1	1.0	1.0	1	upper	Verdana.ttf
2702240	WORD	wordpools/wasnorm_wordpool_less_exclusions.txt	LTP215	ltpFR	6	16	-1	KETTLE	772	n/a	n/a	-1	1.0	1.0	1	upper	Verdana.ttf
2706263	WORD	wordpools/wasnorm_wordpool_less_exclusions.txt	LTP215	ltpFR	6	16	-1	KEY	773	n/a	n/a	-1	1.0	1.0	1	upper	Verdana.ttf
2710237	WORD	wordpools/wasnorm_wordpool_less_exclusions.txt	LTP215	ltpFR	6	16	-1	HINGE	709	n/a	n/a	-1	1.0	1.0	1	upper	Verdana.ttf
2714293	WORD	wordpools/wasnorm_wordpool_less_exclusions.txt	LTP215	ltpFR	6	16	-1	STOCKING	1383	n/a	n/a	-1	1.0	1.0	1	upper	Verdana.ttf
2718117	WORD	wordpools/wasnorm_wordpool_less_exclusions.txt	LTP215	ltpFR	6	16	-1	MOSS	918	n/a	n/a	-1	1.0	1.0	1	upper	Verdana.ttf
2722223	WORD	wordpools/wasnorm_wordpool_less_exclusions.txt	LTP215	ltpFR	6	16	-1	FILM	565	n/a	n/a	-1	1.0	1.0	1	upper	Verdana.ttf
2726138	WORD	wordpools/wasnorm_wordpool_less_exclusions.txt	LTP215	ltpFR	6	16	-1	BUILDING	191	n/a	n/a	-1	1.0	1.0	1	upper	Verdana.ttf
2730246	WORD	wordpools/wasnorm_wordpool_less_exclusions.txt	LTP215	ltpFR	6	16	-1	DINNER	468	n/a	n/a	-1	1.0	1.0	1	upper	Verdana.ttf
2734302	WORD	wordpools/wasnorm_wordpool_less_exclusions.txt	LTP215	ltpFR	6	16	-1	HAM	678	n/a	n/a	-1	1.0	1.0	1	upper	Verdana.ttf
2740335	REC_START	n/a	LTP215	ltpFR	6	16	n/a	n/a	n/a	n/a	n/a	n/a	n/a	n/a	n/a	n/a	n/a
2740619	REC_WORD	wordpools/wasnorm_wordpool_less_exclusions.txt	LTP215	ltpFR	6	16	-1	DINNER	468	n/a	n/a	-1	n/a	n/a	n/a	n/a	n/a
2740953	REC_WORD	wordpools/wasnorm_wordpool_less_exclusions.txt	LTP215	ltpFR	6	16	-1	HAM	678	n/a	n/a	-1	n/a	n/a	n/a	n/a	n/a
2741440	REC_WORD	wordpools/wasnorm_wordpool_less_exclusions.txt	LTP215	ltpFR	6	16	-1	STOCKING	1383	n/a	n/a	-1	n/a	n/a	n/a	n/a	n/a
2742249	REC_WORD	wordpools/wasnorm_wordpool_less_exclusions.txt	LTP215	ltpFR	6	16	-1	MOSS	918	n/a	n/a	-1	n/a	n/a	n/a	n/a	n/a
2744675	REC_WORD	wordpools/wasnorm_wordpool_less_exclusions.txt	LTP215	ltpFR	6	16	-1	BUILDING	191	n/a	n/a	-1	n/a	n/a	n/a	n/a	n/a
2747703	REC_WORD	wordpools/wasnorm_wordpool_less_exclusions.txt	LTP215	ltpFR	6	16	-1	COD	340	n/a	n/a	-1	n/a	n/a	n/a	n/a	n/a
2754208	REC_WORD	wordpools/wasnorm_wordpool_less_exclusions.txt	LTP215	ltpFR	6	16	-1	SCALLOP	1242	n/a	n/a	-1	n/a	n/a	n/a	n/a	n/a
2756383	REC_WORD	wordpools/wasnorm_wordpool_less_exclusions.txt	LTP215	ltpFR	6	16	-1	MAPLE	866	n/a	n/a	-1	n/a	n/a	n/a	n/a	n/a
2759656	REC_WORD	wordpools/wasnorm_wordpool_less_exclusions.txt	LTP215	ltpFR	6	16	-1	COLLEGE	346	n/a	n/a	-1	n/a	n/a	n/a	n/a	n/a
2760825	REC_WORD	wordpools/wasnorm_wordpool_less_exclusions.txt	LTP215	ltpFR	6	16	-1	SMOG	1330	n/a	n/a	-1	n/a	n/a	n/a	n/a	n/a
2847205	REC_START	n/a	LTP215	ltpFR	6	1	n/a	n/a	n/a	n/a	n/a	n/a	n/a	n/a	n/a	n/a	n/a
2847261	RECOG_TARGET	n/a	LTP215	ltpFR	6	1	0	RATTLE	1170	1	4	1	n/a	n/a	n/a	n/a	n/a
2848942	RECOG_RESP	n/a	LTP215	ltpFR	6	1	0	RATTLE	1170	1	n/a	1	n/a	n/a	n/a	n/a	n/a
2850019	RECOG_CONF	n/a	LTP215	ltpFR	6	1	0	RATTLE	1170	n/a	4	1	n/a	n/a	n/a	n/a	n/a
2851662	RECOG_TARGET	n/a	LTP215	ltpFR	6	1	0	GRAPE	654	1	5	0	n/a	n/a	n/a	n/a	n/a
2852388	RECOG_RESP	n/a	LTP215	ltpFR	6	1	0	GRAPE	654	1	n/a	0	n/a	n/a	n/a	n/a	n/a
2853166	RECOG_CONF	n/a	LTP215	ltpFR	6	1	0	GRAPE	654	n/a	5	0	n/a	n/a	n/a	n/a	n/a
2854556	RECOG_TARGET	n/a	LTP215	ltpFR	6	1	1	MARS	873	1	4	0	n/a	n/a	n/a	n/a	n/a
2855296	RECOG_RESP	n/a	LTP215	ltpFR	6	1	1	MARS	873	1	n/a	0	n/a	n/a	n/a	n/a	n/a
2855946	RECOG_CONF	n/a	LTP215	ltpFR	6	1	1	MARS	873	n/a	4	0	n/a	n/a	n/a	n/a	n/a
2857500	RECOG_TARGET	n/a	LTP215	ltpFR	6	1	1	GLASS	639	1	2	0	n/a	n/a	n/a	n/a	n/a
2858991	RECOG_RESP	n/a	LTP215	ltpFR	6	1	1	GLASS	639	1	n/a	0	n/a	n/a	n/a	n/a	n/a
2859801	RECOG_CONF	n/a	LTP215	ltpFR	6	1	1	GLASS	639	n/a	2	0	n/a	n/a	n/a	n/a	n/a
2861163	RECOG_TARGET	n/a	LTP215	ltpFR	6	1	1	SKYSCRAPER	1322	0	2	0	n/a	n/a	n/a	n/a	n/a
2864099	RECOG_RESP	n/a	LTP215	ltpFR	6	1	1	SKYSCRAPER	1322	0	n/a	0	n/a	n/a	n/a	n/a	n/a
2864851	RECOG_CONF	n/a	LTP215	ltpFR	6	1	1	SKYSCRAPER	1322	n/a	2	0	n/a	n/a	n/a	n/a	n/a
2866366	RECOG_LURE	n/a	LTP215	ltpFR	6	1	n/a	CHAIN	273	1	1	n/a	n/a	n/a	n/a	n/a	n/a
2868060	RECOG_RESP	n/a	LTP215	ltpFR	6	1	n/a	CHAIN	273	1	n/a	n/a	n/a	n/a	n/a	n/a	n/a
2868587	RECOG_CONF	n/a	LTP215	ltpFR	6	1	n/a	CHAIN	273	n/a	1	n/a	n/a	n/a	n/a	n/a	n/a
2870248	RECOG_TARGET	n/a	LTP215	ltpFR	6	1	1	MAJOR	859	1	4	0	n/a	n/a	n/a	n/a	n/a
2871153	RECOG_RESP	n/a	LTP215	ltpFR	6	1	1	MAJOR	859	1	n/a	0	n/a	n/a	n/a	n/a	n/a
2871844	RECOG_CONF	n/a	LTP215	ltpFR	6	1	1	MAJOR	859	n/a	4	0	n/a	n/a	n/a	n/a	n/a
2873335	RECOG_TARGET	n/a	LTP215	ltpFR	6	1	1	MAILMAN	858	1	3	1	n/a	n/a	n/a	n/a	n/a
2874163	RECOG_RESP	n/a	LTP215	ltpFR	6	1	1	MAILMAN	858	1	n/a	1	n/a	n/a	n/a	n/a	n/a
2874777	RECOG_CONF	n/a	LTP215	ltpFR	6	1	1	MAILMAN	858	n/a	3	1	n/a	n/a	n/a	n/a	n/a
2876146	RECOG_TARGET	n/a	LTP215	ltpFR	6	1	1	SALMON	1227	1	4	1	n/a	n/a	n/a	n/a	n/a
2876860	RECOG_RESP	n/a	LTP215	ltpFR	6	1	1	SALMON	1227	1	n/a	1	n/a	n/a	n/a	n/a	n/a
2877471	RECOG_CONF	n/a	LTP215	ltpFR	6	1	1	SALMON	1227	n/a	4	1	n/a	n/a	n/a	n/a	n/a
2878823	RECOG_TARGET	n/a	LTP215	ltpFR	6	1	1	TRAY	1498	1	1	0	n/a	n/a	n/a	n/a	n/a
2880534	RECOG_RESP	n/a	LTP215	ltpFR	6	1	1	TRAY	1498	1	n/a	0	n/a	n/a	n/a	n/a	n/a
2881342	RECOG_CONF	n/a	LTP215	ltpFR	6	1	1	TRAY	1498	n/a	1	0	n/a	n/a	n/a	n/a	n/a
2882979	RECOG_TARGET	n/a	LTP215	ltpFR	6	1	0	CYLINDER	432	1	4	0	n/a	n/a	n/a	n/a	n/a
2883955	RECOG_RESP	n/a	LTP215	ltpFR	6	1	0	CYLINDER	432	1	n/a	0	n/a	n/a	n/a	n/a	n/a
2884575	RECOG_CONF	n/a	LTP215	ltpFR	6	1	0	CYLINDER	432	n/a	4	0	n/a	n/a	n/a	n/a	n/a
2886024	RECOG_LURE	n/a	LTP215	ltpFR	6	1	n/a	PRISONER	1128	0	4	n/a	n/a	n/a	n/a	n/a	n/a
2887324	RECOG_RESP	n/a	LTP215	ltpFR	6	1	n/a	PRISONER	1128	0	n/a	n/a	n/a	n/a	n/a	n/a	n/a
2888060	RECOG_CONF	n/a	LTP215	ltpFR	6	1	n/a	PRISONER	1128	n/a	4	n/a	n/a	n/a	n/a	n/a	n/a
2889631	RECOG_TARGET	n/a	LTP215	ltpFR	6	1	0	TRAIN	1494	0	1	1	n/a	n/a	n/a	n/a	n/a
2892264	RECOG_RESP	n/a	LTP215	ltpFR	6	1	0	TRAIN	1494	0	n/a	1	n/a	n/a	n/a	n/a	n/a
2892872	RECOG_CONF	n/a	LTP215	ltpFR	6	1	0	TRAIN	1494	n/a	1	1	n/a	n/a	n/a	n/a	n/a
2894633	RECOG_TARGET	n/a	LTP215	ltpFR	6	1	1	TOOTHPASTE	1483	1	4	0	n/a	n/a	n/a	n/a	n/a
2895279	RECOG_RESP	n/a	LTP215	ltpFR	6	1	1	TOOTHPASTE	1483	1	n/a	0	n/a	n/a	n/a	n/a	n/a
2895919	RECOG_CONF	n/a	LTP215	ltpFR	6	1	1	TOOTHPASTE	1483	n/a	4	0	n/a	n/a	n/a	n/a	n/a
2897259	RECOG_TARGET	n/a	LTP215	ltpFR	6	1	1	WORKER	1621	1	3	0	n/a	n/a	n/a	n/a	n/a
2898491	RECOG_RESP	n/a	LTP215	ltpFR	6	1	1	WORKER	1621	1	n/a	0	n/a	n/a	n/a	n/a	n/a
2899060	RECOG_CONF	n/a	LTP215	ltpFR	6	1	1	WORKER	1621	n/a	3	0	n/a	n/a	n/a	n/a	n/a
2900512	RECOG_LURE	n/a	LTP215	ltpFR	6	1	n/a	RAG	1160	0	2	n/a	n/a	n/a	n/a	n/a	n/a
2901596	RECOG_RESP	n/a	LTP215	ltpFR	6	1	n/a	RAG	1160	0	n/a	n/a	n/a	n/a	n/a	n/a	n/a
2902199	RECOG_CONF	n/a	LTP215	ltpFR	6	1	n/a	RAG	1160	n/a	2	n/a	n/a	n/a	n/a	n/a	n/a
2903600	RECOG_LURE	n/a	LTP215	ltpFR	6	1	n/a	ORGAN	984	0	3	n/a	n/a	n/a	n/a	n/a	n/a
2905827	RECOG_RESP	n/a	LTP215	ltpFR	6	1	n/a	ORGAN	984	0	n/a	n/a	n/a	n/a	n/a	n/a	n/a
2907129	RECOG_CONF	n/a	LTP215	ltpFR	6	1	n/a	ORGAN	984	n/a	3	n/a	n/a	n/a	n/a	n/a	n/a
2908710	RECOG_TARGET	n/a	LTP215	ltpFR	6	1	0	TIE	1466	1	3	0	n/a	n/a	n/a	n/a	n/a
2909648	RECOG_RESP	n/a	LTP215	ltpFR	6	1	0	TIE	1466	1	n/a	0	n/a	n/a	n/a	n/a	n/a
2910308	RECOG_CONF	n/a	LTP215	ltpFR	6	1	0	TIE	1466	n/a	3	0	n/a	n/a	n/a	n/a	n/a
2911714	RECOG_TARGET	n/a	LTP215	ltpFR	6	1	-1	BUGGY	188	0	3	-1	n/a	n/a	n/a	n/a	n/a
2912636	RECOG_RESP	n/a	LTP215	ltpFR	6	1	-1	BUGGY	188	0	n/a	-1	n/a	n/a	n/a	n/a	n/a
2913197	RECOG_CONF	n/a	LTP215	ltpFR	6	1	-1	BUGGY	188	n/a	3	-1	n/a	n/a	n/a	n/a	n/a
2914726	RECOG_TARGET	n/a	LTP215	ltpFR	6	1	-1	BUILDING	191	1	4	-1	n/a	n/a	n/a	n/a	n/a
2915446	RECOG_RESP	n/a	LTP215	ltpFR	6	1	-1	BUILDING	191	1	n/a	-1	n/a	n/a	n/a	n/a	n/a
2916093	RECOG_CONF	n/a	LTP215	ltpFR	6	1	-1	BUILDING	191	n/a	4	-1	n/a	n/a	n/a	n/a	n/a
2919400	REC_START	n/a	LTP215	ltpFR	6	2	n/a	n/a	n/a	n/a	n/a	n/a	n/a	n/a	n/a	n/a	n/a
2919450	RECOG_TARGET	n/a	LTP215	ltpFR	6	2	-1	CHAMPION	279	1	1	-1	n/a	n/a	n/a	n/a	n/a
2921016	RECOG_RESP	n/a	LTP215	ltpFR	6	2	-1	CHAMPION	279	1	n/a	-1	n/a	n/a	n/a	n/a	n/a
2921629	RECOG_CONF	n/a	LTP215	ltpFR	6	2	-1	CHAMPION	279	n/a	1	-1	n/a	n/a	n/a	n/a	n/a
2923113	RECOG_TARGET	n/a	LTP215	ltpFR	6	2	1	CLIFF	322	1	4	0	n/a	n/a	n/a	n/a	n/a
2924144	RECOG_RESP	n/a	LTP215	ltpFR	6	2	1	CLIFF	322	1	n/a	0	n/a	n/a	n/a	n/a	n/a
2924712	RECOG_CONF	n/a	LTP215	ltpFR	6	2	1	CLIFF	322	n/a	4	0	n/a	n/a	n/a	n/a	n/a
2926309	RECOG_TARGET	n/a	LTP215	ltpFR	6	2	1	PAVEMENT	1028	1	4	0	n/a	n/a	n/a	n/a	n/a
2927471	RECOG_RESP	n/a	LTP215	ltpFR	6	2	1	PAVEMENT	1028	1	n/a	0	n/a	n/a	n/a	n/a	n/a
2928135	RECOG_CONF	n/a	LTP215	ltpFR	6	2	1	PAVEMENT	1028	n/a	4	0	n/a	n/a	n/a	n/a	n/a
2929548	RECOG_TARGET	n/a	LTP215	ltpFR	6	2	0	MONK	910	1	2	1	n/a	n/a	n/a	n/a	n/a
2930568	RECOG_RESP	n/a	LTP215	ltpFR	6	2	0	MONK	910	1	n/a	1	n/a	n/a	n/a	n/a	n/a
2931241	RECOG_CONF	n/a	LTP215	ltpFR	6	2	0	MONK	910	n/a	2	1	n/a	n/a	n/a	n/a	n/a
2932701	RECOG_TARGET	n/a	LTP215	ltpFR	6	2	-1	FINGER	567	1	3	-1	n/a	n/a	n/a	n/a	n/a
2933393	RECOG_RESP	n/a	LTP215	ltpFR	6	2	-1	FINGER	567	1	n/a	-1	n/a	n/a	n/a	n/a	n/a
2934028	RECOG_CONF	n/a	LTP215	ltpFR	6	2	-1	FINGER	567	n/a	3	-1	n/a	n/a	n/a	n/a	n/a
2935376	RECOG_LURE	n/a	LTP215	ltpFR	6	2	n/a	FIGHTER	564	n/a	1	n/a	n/a	n/a	n/a	n/a	n/a
2937397	RECOG_CONF	n/a	LTP215	ltpFR	6	2	n/a	FIGHTER	564	n/a	1	n/a	n/a	n/a	n/a	n/a	n/a
2938849	RECOG_TARGET	n/a	LTP215	ltpFR	6	2	-1	COLLEGE	346	1	4	-1	n/a	n/a	n/a	n/a	n/a
2939957	RECOG_RESP	n/a	LTP215	ltpFR	6	2	-1	COLLEGE	346	1	n/a	-1	n/a	n/a	n/a	n/a	n/a
2940640	RECOG_CONF	n/a	LTP215	ltpFR	6	2	-1	COLLEGE	346	n/a	4	-1	n/a	n/a	n/a	n/a	n/a
2942369	RECOG_TARGET	n/a	LTP215	ltpFR	6	2	0	GUM	672	1	5	0	n/a	n/a	n/a	n/a	n/a
2943191	RECOG_RESP	n/a	LTP215	ltpFR	6	2	0	GUM	672	1	n/a	0	n/a	n/a	n/a	n/a	n/a
2943727	RECOG_CONF	n/a	LTP215	ltpFR	6	2	0	GUM	672	n/a	5	0	n/a	n/a	n/a	n/a	n/a
2945314	RECOG_TARGET	n/a	LTP215	ltpFR	6	2	0	SAP	1233	1	3	0	n/a	n/a	n/a	n/a	n/a
2947152	RECOG_RESP	n/a	LTP215	ltpFR	6	2	0	SAP	1233	1	n/a	0	n/a	n/a	n/a	n/a	n/a
2947999	RECOG_CONF	n/a	LTP215	ltpFR	6	2	0	SAP	1233	n/a	3	0	n/a	n/a	n/a	n/a	n/a
2949446	RECOG_LURE	n/a	LTP215	ltpFR	6	2	n/a	CLOVE	329	0	2	n/a	n/a	n/a	n/a	n/a	n/a
2952779	RECOG_RESP	n/a	LTP215	ltpFR	6	2	n/a	CLOVE	329	0	n/a	n/a	n/a	n/a	n/a	n/a	n/a
2953591	RECOG_CONF	n/a	LTP215	ltpFR	6	2	n/a	CLOVE	329	n/a	2	n/a	n/a	n/a	n/a	n/a	n/a
2955067	RECOG_TARGET	n/a	LTP215	ltpFR	6	2	1	ENVELOPE	537	0	3	0	n/a	n/a	n/a	n/a	n/a
2956190	RECOG_RESP	n/a	LTP215	ltpFR	6	2	1	ENVELOPE	537	0	n/a	0	n/a	n/a	n/a	n/a	n/a
2956850	RECOG_CONF	n/a	LTP215	ltpFR	6	2	1	ENVELOPE	537	n/a	3	0	n/a	n/a	n/a	n/a	n/a
2958138	RECOG_TARGET	n/a	LTP215	ltpFR	6	2	0	TOWEL	1489	1	3	0	n/a	n/a	n/a	n/a	n/a
2958959	RECOG_RESP	n/a	LTP215	ltpFR	6	2	0	TOWEL	1489	1	n/a	0	n/a	n/a	n/a	n/a	n/a
2959532	RECOG_CONF	n/a	LTP215	ltpFR	6	2	0	TOWEL	1489	n/a	3	0	n/a	n/a	n/a	n/a	n/a
2960973	RECOG_LURE	n/a	LTP215	ltpFR	6	2	n/a	SAGE	1222	0	2	n/a	n/a	n/a	n/a	n/a	n/a
2961963	RECOG_RESP	n/a	LTP215	ltpFR	6	2	n/a	SAGE	1222	0	n/a	n/a	n/a	n/a	n/a	n/a	n/a
2962590	RECOG_CONF	n/a	LTP215	ltpFR	6	2	n/a	SAGE	1222	n/a	2	n/a	n/a	n/a	n/a	n/a	n/a
2963901	RECOG_TARGET	n/a	LTP215	ltpFR	6	2	1	MICROPHONE	890	1	3	0	n/a	n/a	n/a	n/a	n/a
2964727	RECOG_RESP	n/a	LTP215	ltpFR	6	2	1	MICROPHONE	890	1	n/a	0	n/a	n/a	n/a	n/a	n/a
2965348	RECOG_CONF	n/a	LTP215	ltpFR	6	2	1	MICROPHONE	890	n/a	3	0	n/a	n/a	n/a	n/a	n/a
2966787	RECOG_TARGET	n/a	LTP215	ltpFR	6	2	0	NECKLACE	940	0	1	0	n/a	n/a	n/a	n/a	n/a
2968125	RECOG_RESP	n/a	LTP215	ltpFR	6	2	0	NECKLACE	940	0	n/a	0	n/a	n/a	n/a	n/a	n/a
2968698	RECOG_CONF	n/a	LTP215	ltpFR	6	2	0	NECKLACE	940	n/a	1	0	n/a	n/a	n/a	n/a	n/a
2970091	RECOG_TARGET	n/a	LTP215	ltpFR	6	2	1	DOUGH	489	1	4	0	n/a	n/a	n/a	n/a	n/a
2970910	RECOG_RESP	n/a	LTP215	ltpFR	6	2	1	DOUGH	489	1	n/a	0	n/a	n/a	n/a	n/a	n/a
2971496	RECOG_CONF	n/a	LTP215	ltpFR	6	2	1	DOUGH	489	n/a	4	0	n/a	n/a	n/a	n/a	n/a
2973011	RECOG_TARGET	n/a	LTP215	ltpFR	6	2	1	POND	1101	1	2	0	n/a	n/a	n/a	n/a	n/a
2974413	RECOG_RESP	n/a	LTP215	ltpFR	6	2	1	POND	1101	1	n/a	0	n/a	n/a	n/a	n/a	n/a
2975044	RECOG_CONF	n/a	LTP215	ltpFR	6	2	1	POND	1101	n/a	2	0	n/a	n/a	n/a	n/a	n/a
2976650	RECOG_TARGET	n/a	LTP215	ltpFR	6	2	-1	ASIA	46	1	5	-1	n/a	n/a	n/a	n/a	n/a
2977353	RECOG_RESP	n/a	LTP215	ltpFR	6	2	-1	ASIA	46	1	n/a	-1	n/a	n/a	n/a	n/a	n/a
2977972	RECOG_CONF	n/a	LTP215	ltpFR	6	2	-1	ASIA	46	n/a	5	-1	n/a	n/a	n/a	n/a	n/a
2979268	RECOG_TARGET	n/a	LTP215	ltpFR	6	2	1	CHEST	295	1	2	0	n/a	n/a	n/a	n/a	n/a
2981536	RECOG_RESP	n/a	LTP215	ltpFR	6	2	1	CHEST	295	1	n/a	0	n/a	n/a	n/a	n/a	n/a
2982287	RECOG_CONF	n/a	LTP215	ltpFR	6	2	1	CHEST	295	n/a	2	0	n/a	n/a	n/a	n/a	n/a
2983976	RECOG_TARGET	n/a	LTP215	ltpFR	6	2	-1	MOON	914	1	4	-1	n/a	n/a	n/a	n/a	n/a
2984974	RECOG_RESP	n/a	LTP215	ltpFR	6	2	-1	MOON	914	1	n/a	-1	n/a	n/a	n/a	n/a	n/a
2985654	RECOG_CONF	n/a	LTP215	ltpFR	6	2	-1	MOON	914	n/a	4	-1	n/a	n/a	n/a	n/a	n/a
2989180	REC_START	n/a	LTP215	ltpFR	6	3	n/a	n/a	n/a	n/a	n/a	n/a	n/a	n/a	n/a	n/a	n/a
2989229	RECOG_TARGET	n/a	LTP215	ltpFR	6	3	-1	LILY	821	1	5	-1	n/a	n/a	n/a	n/a	n/a
2989936	RECOG_RESP	n/a	LTP215	ltpFR	6	3	-1	LILY	821	1	n/a	-1	n/a	n/a	n/a	n/a	n/a
2990593	RECOG_CONF	n/a	LTP215	ltpFR	6	3	-1	LILY	821	n/a	5	-1	n/a	n/a	n/a	n/a	n/a
2992284	RECOG_TARGET	n/a	LTP215	ltpFR	6	3	1	BLUEBERRY	140	1	4	1	n/a	n/a	n/a	n/a	n/a
2995169	RECOG_RESP	n/a	LTP215	ltpFR	6	3	1	BLUEBERRY	140	1	n/a	1	n/a	n/a	n/a	n/a	n/a
2995850	RECOG_CONF	n/a	LTP215	ltpFR	6	3	1	BLUEBERRY	140	n/a	4	1	n/a	n/a	n/a	n/a	n/a
2997369	RECOG_TARGET	n/a	LTP215	ltpFR	6	3	1	SHED	1277	1	2	0	n/a	n/a	n/a	n/a	n/a
2998876	RECOG_RESP	n/a	LTP215	ltpFR	6	3	1	SHED	1277	1	n/a	0	n/a	n/a	n/a	n/a	n/a
2999575	RECOG_CONF	n/a	LTP215	ltpFR	6	3	1	SHED	1277	n/a	2	0	n/a	n/a	n/a	n/a	n/a
3001117	RECOG_TARGET	n/a	LTP215	ltpFR	6	3	1	PACKAGE	997	0	1	0	n/a	n/a	n/a	n/a	n/a
3002982	RECOG_RESP	n/a	LTP215	ltpFR	6	3	1	PACKAGE	997	0	n/a	0	n/a	n/a	n/a	n/a	n/a
3003755	RECOG_CONF	n/a	LTP215	ltpFR	6	3	1	PACKAGE	997	n/a	1	0	n/a	n/a	n/a	n/a	n/a
3005340	RECOG_TARGET	n/a	LTP215	ltpFR	6	3	-1	STOCKING	1383	1	2	-1	n/a	n/a	n/a	n/a	n/a
3006204	RECOG_RESP	n/a	LTP215	ltpFR	6	3	-1	STOCKING	1383	1	n/a	-1	n/a	n/a	n/a	n/a	n/a
3006925	RECOG_CONF	n/a	LTP215	ltpFR	6	3	-1	STOCKING	1383	n/a	2	-1	n/a	n/a	n/a	n/a	n/a
3008511	RECOG_TARGET	n/a	LTP215	ltpFR	6	3	0	BASKET	95	1	3	1	n/a	n/a	n/a	n/a	n/a
3009611	RECOG_RESP	n/a	LTP215	ltpFR	6	3	0	BASKET	95	1	n/a	1	n/a	n/a	n/a	n/a	n/a
3010296	RECOG_CONF	n/a	LTP215	ltpFR	6	3	0	BASKET	95	n/a	3	1	n/a	n/a	n/a	n/a	n/a
3011764	RECOG_TARGET	n/a	LTP215	ltpFR	6	3	1	MEADOW	881	1	4	0	n/a	n/a	n/a	n/a	n/a
3012674	RECOG_RESP	n/a	LTP215	ltpFR	6	3	1	MEADOW	881	1	n/a	0	n/a	n/a	n/a	n/a	n/a
3013470	RECOG_CONF	n/a	LTP215	ltpFR	6	3	1	MEADOW	881	n/a	4	0	n/a	n/a	n/a	n/a	n/a
3014876	RECOG_TARGET	n/a	LTP215	ltpFR	6	3	-1	SUGAR	1401	1	4	-1	n/a	n/a	n/a	n/a	n/a
3015755	RECOG_RESP	n/a	LTP215	ltpFR	6	3	-1	SUGAR	1401	1	n/a	-1	n/a	n/a	n/a	n/a	n/a
3016453	RECOG_CONF	n/a	LTP215	ltpFR	6	3	-1	SUGAR	1401	n/a	4	-1	n/a	n/a	n/a	n/a	n/a
3017914	RECOG_LURE	n/a	LTP215	ltpFR	6	3	n/a	JUVENILE	767	0	1	n/a	n/a	n/a	n/a	n/a	n/a
3019652	RECOG_RESP	n/a	LTP215	ltpFR	6	3	n/a	JUVENILE	767	0	n/a	n/a	n/a	n/a	n/a	n/a	n/a
3020314	RECOG_CONF	n/a	LTP215	ltpFR	6	3	n/a	JUVENILE	767	n/a	1	n/a	n/a	n/a	n/a	n/a	n/a
3021919	RECOG_TARGET	n/a	LTP215	ltpFR	6	3	-1	SHEARS	1276	1	3	-1	n/a	n/a	n/a	n/a	n/a
3023680	RECOG_RESP	n/a	LTP215	ltpFR	6	3	-1	SHEARS	1276	1	n/a	-1	n/a	n/a	n/a	n/a	n/a
3024549	RECOG_CONF	n/a	LTP215	ltpFR	6	3	-1	SHEARS	1276	n/a	3	-1	n/a	n/a	n/a	n/a	n/a
3026161	RECOG_TARGET	n/a	LTP215	ltpFR	6	3	1	SHOELACE	1289	1	4	0	n/a	n/a	n/a	n/a	n/a
3026829	RECOG_RESP	n/a	LTP215	ltpFR	6	3	1	SHOELACE	1289	1	n/a	0	n/a	n/a	n/a	n/a	n/a
3027538	RECOG_CONF	n/a	LTP215	ltpFR	6	3	1	SHOELACE	1289	n/a	4	0	n/a	n/a	n/a	n/a	n/a
3028905	RECOG_TARGET	n/a	LTP215	ltpFR	6	3	1	NUN	962	0	2	1	n/a	n/a	n/a	n/a	n/a
3031667	RECOG_RESP	n/a	LTP215	ltpFR	6	3	1	NUN	962	0	n/a	1	n/a	n/a	n/a	n/a	n/a
3032330	RECOG_CONF	n/a	LTP215	ltpFR	6	3	1	NUN	962	n/a	2	1	n/a	n/a	n/a	n/a	n/a
3033991	RECOG_TARGET	n/a	LTP215	ltpFR	6	3	0	GOAT	644	1	3	1	n/a	n/a	n/a	n/a	n/a
3034776	RECOG_RESP	n/a	LTP215	ltpFR	6	3	0	GOAT	644	1	n/a	1	n/a	n/a	n/a	n/a	n/a
3035416	RECOG_CONF	n/a	LTP215	ltpFR	6	3	0	GOAT	644	n/a	3	1	n/a	n/a	n/a	n/a	n/a
3036918	RECOG_TARGET	n/a	LTP215	ltpFR	6	3	0	BANDIT	81	1	4	1	n/a	n/a	n/a	n/a	n/a
3037870	RECOG_RESP	n/a	LTP215	ltpFR	6	3	0	BANDIT	81	1	n/a	1	n/a	n/a	n/a	n/a	n/a
3038612	RECOG_CONF	n/a	LTP215	ltpFR	6	3	0	BANDIT	81	n/a	4	1	n/a	n/a	n/a	n/a	n/a
3040013	RECOG_TARGET	n/a	LTP215	ltpFR	6	3	0	VAN	1548	0	2	1	n/a	n/a	n/a	n/a	n/a
3042848	RECOG_RESP	n/a	LTP215	ltpFR	6	3	0	VAN	1548	0	n/a	1	n/a	n/a	n/a	n/a	n/a
3043474	RECOG_CONF	n/a	LTP215	ltpFR	6	3	0	VAN	1548	n/a	2	1	n/a	n/a	n/a	n/a	n/a
3045056	RECOG_TARGET	n/a	LTP215	ltpFR	6	3	0	CRICKET	408	0	2	0	n/a	n/a	n/a	n/a	n/a
3046369	RECOG_RESP	n/a	LTP215	ltpFR	6	3	0	CRICKET	408	0	n/a	0	n/a	n/a	n/a	n/a	n/a
3047138	RECOG_CONF	n/a	LTP215	ltpFR	6	3	0	CRICKET	408	n/a	2	0	n/a	n/a	n/a	n/a	n/a
3048755	RECOG_TARGET	n/a	LTP215	ltpFR	6	3	0	CUCUMBER	421	1	3	0	n/a	n/a	n/a	n/a	n/a
3049860	RECOG_RESP	n/a	LTP215	ltpFR	6	3	0	CUCUMBER	421	1	n/a	0	n/a	n/a	n/a	n/a	n/a
3050544	RECOG_CONF	n/a	LTP215	ltpFR	6	3	0	CUCUMBER	421	n/a	3	0	n/a	n/a	n/a	n/a	n/a
3051958	RECOG_TARGET	n/a	LTP215	ltpFR	6	3	0	SCOTCH	1251	1	4	1	n/a	n/a	n/a	n/a	n/a
3052830	RECOG_RESP	n/a	LTP215	ltpFR	6	3	0	SCOTCH	1251	1	n/a	1	n/a	n/a	n/a	n/a	n/a
3053539	RECOG_CONF	n/a	LTP215	ltpFR	6	3	0	SCOTCH	1251	n/a	4	1	n/a	n/a	n/a	n/a	n/a
3054960	RECOG_TARGET	n/a	LTP215	ltpFR	6	3	1	BUGLE	189	1	5	0	n/a	n/a	n/a	n/a	n/a
3055678	RECOG_RESP	n/a	LTP215	ltpFR	6	3	1	BUGLE	189	1	n/a	0	n/a	n/a	n/a	n/a	n/a
3056292	RECOG_CONF	n/a	LTP215	ltpFR	6	3	1	BUGLE	189	n/a	5	0	n/a	n/a	n/a	n/a	n/a
3057897	RECOG_TARGET	n/a	LTP215	ltpFR	6	3	0	ARROW	40	1	3	0	n/a	n/a	n/a	n/a	n/a
3059261	RECOG_RESP	n/a	LTP215	ltpFR	6	3	0	ARROW	40	1	n/a	0	n/a	n/a	n/a	n/a	n/a
3059921	RECOG_CONF	n/a	LTP215	ltpFR	6	3	0	ARROW	40	n/a	3	0	n/a	n/a	n/a	n/a	n/a
3063534	REC_START	n/a	LTP215	ltpFR	6	4	n/a	n/a	n/a	n/a	n/a	n/a	n/a	n/a	n/a	n/a	n/a
3063594	RECOG_TARGET	n/a	LTP215	ltpFR	6	4	-1	CHECKERS	285	0	2	-1	n/a	n/a	n/a	n/a	n/a
3064863	RECOG_RESP	n/a	LTP215	ltpFR	6	4	-1	CHECKERS	285	0	n/a	-1	n/a	n/a	n/a	n/a	n/a
3065497	RECOG_CONF	n/a	LTP215	ltpFR	6	4	-1	CHECKERS	285	n/a	2	-1	n/a	n/a	n/a	n/a	n/a
3066972	RECOG_LURE	n/a	LTP215	ltpFR	6	4	n/a	CENT	270	0	3	n/a	n/a	n/a	n/a	n/a	n/a
3068567	RECOG_RESP	n/a	LTP215	ltpFR	6	4	n/a	CENT	270	0	n/a	n/a	n/a	n/a	n/a	n/a	n/a
3069219	RECOG_CONF	n/a	LTP215	ltpFR	6	4	n/a	CENT	270	n/a	3	n/a	n/a	n/a	n/a	n/a	n/a
3070820	RECOG_TARGET	n/a	LTP215	ltpFR	6	4	-1	RELISH	1183	1	2	-1	n/a	n/a	n/a	n/a	n/a
3072351	RECOG_RESP	n/a	LTP215	ltpFR	6	4	-1	RELISH	1183	1	n/a	-1	n/a	n/a	n/a	n/a	n/a
3073076	RECOG_CONF	n/a	LTP215	ltpFR	6	4	-1	RELISH	1183	n/a	2	-1	n/a	n/a	n/a	n/a	n/a
3074501	RECOG_TARGET	n/a	LTP215	ltpFR	6	4	-1	SMOG	1330	1	3	-1	n/a	n/a	n/a	n/a	n/a
3076025	RECOG_RESP	n/a	LTP215	ltpFR	6	4	-1	SMOG	1330	1	n/a	-1	n/a	n/a	n/a	n/a	n/a
3076680	RECOG_CONF	n/a	LTP215	ltpFR	6	4	-1	SMOG	1330	n/a	3	-1	n/a	n/a	n/a	n/a	n/a
3078148	RECOG_TARGET	n/a	LTP215	ltpFR	6	4	0	SANDWICH	1232	1	4	0	n/a	n/a	n/a	n/a	n/a
3079044	RECOG_RESP	n/a	LTP215	ltpFR	6	4	0	SANDWICH	1232	1	n/a	0	n/a	n/a	n/a	n/a	n/a
3079681	RECOG_CONF	n/a	LTP215	ltpFR	6	4	0	SANDWICH	1232	n/a	4	0	n/a	n/a	n/a	n/a	n/a
3081185	RECOG_TARGET	n/a	LTP215	ltpFR	6	4	0	MEAL	882	1	4	0	n/a	n/a	n/a	n/a	n/a
3082150	RECOG_RESP	n/a	LTP215	ltpFR	6	4	0	MEAL	882	1	n/a	0	n/a	n/a	n/a	n/a	n/a
3082825	RECOG_CONF	n/a	LTP215	ltpFR	6	4	0	MEAL	882	n/a	4	0	n/a	n/a	n/a	n/a	n/a
3084137	RECOG_TARGET	n/a	LTP215	ltpFR	6	4	1	NEPTUNE	943	1	4	0	n/a	n/a	n/a	n/a	n/a
3084880	RECOG_RESP	n/a	LTP215	ltpFR	6	4	1	NEPTUNE	943	1	n/a	0	n/a	n/a	n/a	n/a	n/a
3085549	RECOG_CONF	n/a	LTP215	ltpFR	6	4	1	NEPTUNE	943	n/a	4	0	n/a	n/a	n/a	n/a	n/a
3087041	RECOG_LURE	n/a	LTP215	ltpFR	6	4	n/a	VIOLIN	1571	0	4	n/a	n/a	n/a	n/a	n/a	n/a
3088968	RECOG_RESP	n/a	LTP215	ltpFR	6	4	n/a	VIOLIN	1571	0	n/a	n/a	n/a	n/a	n/a	n/a	n/a
3089613	RECOG_CONF	n/a	LTP215	ltpFR	6	4	n/a	VIOLIN	1571	n/a	4	n/a	n/a	n/a	n/a	n/a	n/a
3091089	RECOG_LURE	n/a	LTP215	ltpFR	6	4	n/a	GAVEL	627	0	3	n/a	n/a	n/a	n/a	n/a	n/a
3092722	RECOG_RESP	n/a	LTP215	ltpFR	6	4	n/a	GAVEL	627	0	n/a	n/a	n/a	n/a	n/a	n/a	n/a
3093331	RECOG_CONF	n/a	LTP215	ltpFR	6	4	n/a	GAVEL	627	n/a	3	n/a	n/a	n/a	n/a	n/a	n/a
3094961	RECOG_LURE	n/a	LTP215	ltpFR	6	4	n/a	PORK	1108	0	4	n/a	n/a	n/a	n/a	n/a	n/a
3096039	RECOG_RESP	n/a	LTP215	ltpFR	6	4	n/a	PORK	1108	0	n/a	n/a	n/a	n/a	n/a	n/a	n/a
3096580	RECOG_CONF	n/a	LTP215	ltpFR	6	4	n/a	PORK	1108	n/a	4	n/a	n/a	n/a	n/a	n/a	n/a
3098257	RECOG_LURE	n/a	LTP215	ltpFR	6	4	n/a	SHINGLE	1285	0	1	n/a	n/a	n/a	n/a	n/a	n/a
3100073	RECOG_RESP	n/a	LTP215	ltpFR	6	4	n/a	SHINGLE	1285	0	n/a	n/a	n/a	n/a	n/a	n/a	n/a
3100631	RECOG_CONF	n/a	LTP215	ltpFR	6	4	n/a	SHINGLE	1285	n/a	1	n/a	n/a	n/a	n/a	n/a	n/a
3102298	RECOG_TARGET	n/a	LTP215	ltpFR	6	4	-1	THREAD	1460	1	3	-1	n/a	n/a	n/a	n/a	n/a
3103298	RECOG_RESP	n/a	LTP215	ltpFR	6	4	-1	THREAD	1460	1	n/a	-1	n/a	n/a	n/a	n/a	n/a
3103936	RECOG_CONF	n/a	LTP215	ltpFR	6	4	-1	THREAD	1460	n/a	3	-1	n/a	n/a	n/a	n/a	n/a
3105528	RECOG_TARGET	n/a	LTP215	ltpFR	6	4	-1	PERSONNEL	1053	1	3	-1	n/a	n/a	n/a	n/a	n/a
3106476	RECOG_RESP	n/a	LTP215	ltpFR	6	4	-1	PERSONNEL	1053	1	n/a	-1	n/a	n/a	n/a	n/a	n/a
3107068	RECOG_CONF	n/a	LTP215	ltpFR	6	4	-1	PERSONNEL	1053	n/a	3	-1	n/a	n/a	n/a	n/a	n/a
3108573	RECOG_TARGET	n/a	LTP215	ltpFR	6	4	0	COOKBOOK	373	1	5	0	n/a	n/a	n/a	n/a	n/a
3109215	RECOG_RESP	n/a	LTP215	ltpFR	6	4	0	COOKBOOK	373	1	n/a	0	n/a	n/a	n/a	n/a	n/a
3109834	RECOG_CONF	n/a	LTP215	ltpFR	6	4	0	COOKBOOK	373	n/a	5	0	n/a	n/a	n/a	n/a	n/a
3111423	RECOG_TARGET	n/a	LTP215	ltpFR	6	4	0	TOOTHBRUSH	1482	1	5	0	n/a	n/a	n/a	n/a	n/a
3111984	RECOG_RESP	n/a	LTP215	ltpFR	6	4	0	TOOTHBRUSH	1482	1	n/a	0	n/a	n/a	n/a	n/a	n/a
3112647	RECOG_CONF	n/a	LTP215	ltpFR	6	4	0	TOOTHBRUSH	1482	n/a	5	0	n/a	n/a	n/a	n/a	n/a
3114117	RECOG_TARGET	n/a	LTP215	ltpFR	6	4	-1	MAPLE	866	1	5	-1	n/a	n/a	n/a	n/a	n/a
3114837	RECOG_RESP	n/a	LTP215	ltpFR	6	4	-1	MAPLE	866	1	n/a	-1	n/a	n/a	n/a	n/a	n/a
3115481	RECOG_CONF	n/a	LTP215	ltpFR	6	4	-1	MAPLE	866	n/a	5	-1	n/a	n/a	n/a	n/a	n/a
3116944	RECOG_TARGET	n/a	LTP215	ltpFR	6	4	-1	SPIDER	1351	1	3	-1	n/a	n/a	n/a	n/a	n/a
3118384	RECOG_RESP	n/a	LTP215	ltpFR	6	4	-1	SPIDER	1351	1	n/a	-1	n/a	n/a	n/a	n/a	n/a
3119068	RECOG_CONF	n/a	LTP215	ltpFR	6	4	-1	SPIDER	1351	n/a	3	-1	n/a	n/a	n/a	n/a	n/a
3120726	RECOG_LURE	n/a	LTP215	ltpFR	6	4	n/a	HAND	683	0	3	n/a	n/a	n/a	n/a	n/a	n/a
3121830	RECOG_RESP	n/a	LTP215	ltpFR	6	4	n/a	HAND	683	0	n/a	n/a	n/a	n/a	n/a	n/a	n/a
3122462	RECOG_CONF	n/a	LTP215	ltpFR	6	4	n/a	HAND	683	n/a	3	n/a	n/a	n/a	n/a	n/a	n/a
3123987	RECOG_TARGET	n/a	LTP215	ltpFR	6	4	1	COBRA	336	1	4	1	n/a	n/a	n/a	n/a	n/a
3126431	RECOG_RESP	n/a	LTP215	ltpFR	6	4	1	COBRA	336	1	n/a	1	n/a	n/a	n/a	n/a	n/a
3127134	RECOG_CONF	n/a	LTP215	ltpFR	6	4	1	COBRA	336	n/a	4	1	n/a	n/a	n/a	n/a	n/a
3128706	RECOG_LURE	n/a	LTP215	ltpFR	6	4	n/a	CUSHION	428	0	4	n/a	n/a	n/a	n/a	n/a	n/a
3129636	RECOG_RESP	n/a	LTP215	ltpFR	6	4	n/a	CUSHION	428	0	n/a	n/a	n/a	n/a	n/a	n/a	n/a
3130347	RECOG_CONF	n/a	LTP215	ltpFR	6	4	n/a	CUSHION	428	n/a	4	n/a	n/a	n/a	n/a	n/a	n/a
3133829	REC_START	n/a	LTP215	ltpFR	6	5	n/a	n/a	n/a	n/a	n/a	n/a	n/a	n/a	n/a	n/a	n/a
3133884	RECOG_TARGET	n/a	LTP215	ltpFR	6	5	-1	JUPITER	765	1	3	-1	n/a	n/a	n/a	n/a	n/a
3134682	RECOG_RESP	n/a	LTP215	ltpFR	6	5	-1	JUPITER	765	1	n/a	-1	n/a	n/a	n/a	n/a	n/a
3135317	RECOG_CONF	n/a	LTP215	ltpFR	6	5	-1	JUPITER	765	n/a	3	-1	n/a	n/a	n/a	n/a	n/a
3136903	RECOG_TARGET	n/a	LTP215	ltpFR	6	5	0	FROST	609	1	4	0	n/a	n/a	n/a	n/a	n/a
3137639	RECOG_RESP	n/a	LTP215	ltpFR	6	5	0	FROST	609	1	n/a	0	n/a	n/a	n/a	n/a	n/a
3138264	RECOG_CONF	n/a	LTP215	ltpFR	6	5	0	FROST	609	n/a	4	0	n/a	n/a	n/a	n/a	n/a
3139697	RECOG_LURE	n/a	LTP215	ltpFR	6	5	n/a	RAZOR	1171	0	3	n/a	n/a	n/a	n/a	n/a	n/a
3141165	RECOG_RESP	n/a	LTP215	ltpFR	6	5	n/a	RAZOR	1171	0	n/a	n/a	n/a	n/a	n/a	n/a	n/a
3141703	RECOG_CONF	n/a	LTP215	ltpFR	6	5	n/a	RAZOR	1171	n/a	3	n/a	n/a	n/a	n/a	n/a	n/a
3143252	RECOG_TARGET	n/a	LTP215	ltpFR	6	5	-1	SHIP	1286	1	4	-1	n/a	n/a	n/a	n/a	n/a
3144034	RECOG_RESP	n/a	LTP215	ltpFR	6	5	-1	SHIP	1286	1	n/a	-1	n/a	n/a	n/a	n/a	n/a
3144709	RECOG_CONF	n/a	LTP215	ltpFR	6	5	-1	SHIP	1286	n/a	4	-1	n/a	n/a	n/a	n/a	n/a
3146238	RECOG_TARGET	n/a	LTP215	ltpFR	6	5	0	RADIO	1157	1	3	1	n/a	n/a	n/a	n/a	n/a
3146859	RECOG_RESP	n/a	LTP215	ltpFR	6	5	0	RADIO	1157	1	n/a	1	n/a	n/a	n/a	n/a	n/a
3147503	RECOG_CONF	n/a	LTP215	ltpFR	6	5	0	RADIO	1157	n/a	3	1	n/a	n/a	n/a	n/a	n/a
3149141	RECOG_TARGET	n/a	LTP215	ltpFR	6	5	1	JACKET	747	1	4	0	n/a	n/a	n/a	n/a	n/a
3149920	RECOG_RESP	n/a	LTP215	ltpFR	6	5	1	JACKET	747	1	n/a	0	n/a	n/a	n/a	n/a	n/a
3150586	RECOG_CONF	n/a	LTP215	ltpFR	6	5	1	JACKET	747	n/a	4	0	n/a	n/a	n/a	n/a	n/a
3152060	RECOG_TARGET	n/a	LTP215	ltpFR	6	5	0	PATIO	1025	1	5	1	n/a	n/a	n/a	n/a	n/a
3152902	RECOG_RESP	n/a	LTP215	ltpFR	6	5	0	PATIO	1025	1	n/a	1	n/a	n/a	n/a	n/a	n/a
3153599	RECOG_CONF	n/a	LTP215	ltpFR	6	5	0	PATIO	1025	n/a	5	1	n/a	n/a	n/a	n/a	n/a
3155037	RECOG_TARGET	n/a	LTP215	ltpFR	6	5	0	CHAMPAGNE	278	1	4	1	n/a	n/a	n/a	n/a	n/a
3155828	RECOG_RESP	n/a	LTP215	ltpFR	6	5	0	CHAMPAGNE	278	1	n/a	1	n/a	n/a	n/a	n/a	n/a
3156506	RECOG_CONF	n/a	LTP215	ltpFR	6	5	0	CHAMPAGNE	278	n/a	4	1	n/a	n/a	n/a	n/a	n/a
3158175	RECOG_TARGET	n/a	LTP215	ltpFR	6	5	-1	WAITRESS	1581	1	3	-1	n/a	n/a	n/a	n/a	n/a
3158922	RECOG_RESP	n/a	LTP215	ltpFR	6	5	-1	WAITRESS	1581	1	n/a	-1	n/a	n/a	n/a	n/a	n/a
3159723	RECOG_CONF	n/a	LTP215	ltpFR	6	5	-1	WAITRESS	1581	n/a	3	-1	n/a	n/a	n/a	n/a	n/a
3161261	RECOG_TARGET	n/a	LTP215	ltpFR	6	5	-1	CANAL	226	1	3	-1	n/a	n/a	n/a	n/a	n/a
3162113	RECOG_RESP	n/a	LTP215	ltpFR	6	5	-1	CANAL	226	1	n/a	-1	n/a	n/a	n/a	n/a	n/a
3162760	RECOG_CONF	n/a	LTP215	ltpFR	6	5	-1	CANAL	226	n/a	3	-1	n/a	n/a	n/a	n/a	n/a
3164356	RECOG_TARGET	n/a	LTP215	ltpFR	6	5	0	AWARD	63	1	2	1	n/a	n/a	n/a	n/a	n/a
3165332	RECOG_RESP	n/a	LTP215	ltpFR	6	5	0	AWARD	63	1	n/a	1	n/a	n/a	n/a	n/a	n/a
3166161	RECOG_CONF	n/a	LTP215	ltpFR	6	5	0	AWARD	63	n/a	2	1	n/a	n/a	n/a	n/a	n/a
3167696	RECOG_TARGET	n/a	LTP215	ltpFR	6	5	0	LAMP	798	1	3	1	n/a	n/a	n/a	n/a	n/a
3168533	RECOG_RESP	n/a	LTP215	ltpFR	6	5	0	LAMP	798	1	n/a	1	n/a	n/a	n/a	n/a	n/a
3169245	RECOG_CONF	n/a	LTP215	ltpFR	6	5	0	LAMP	798	n/a	3	1	n/a	n/a	n/a	n/a	n/a
3170873	RECOG_TARGET	n/a	LTP215	ltpFR	6	5	1	TOENAIL	1474	1	4	0	n/a	n/a	n/a	n/a	n/a
3171603	RECOG_RESP	n/a	LTP215	ltpFR	6	5	1	TOENAIL	1474	1	n/a	0	n/a	n/a	n/a	n/a	n/a
3172221	RECOG_CONF	n/a	LTP215	ltpFR	6	5	1	TOENAIL	1474	n/a	4	0	n/a	n/a	n/a	n/a	n/a
3173659	RECOG_TARGET	n/a	LTP215	ltpFR	6	5	1	DIAGRAM	456	1	5	0	n/a	n/a	n/a	n/a	n/a
3174699	RECOG_RESP	n/a	LTP215	ltpFR	6	5	1	DIAGRAM	456	1	n/a	0	n/a	n/a	n/a	n/a	n/a
3175409	RECOG_CONF	n/a	LTP215	ltpFR	6	5	1	DIAGRAM	456	n/a	5	0	n/a	n/a	n/a	n/a	n/a
3176946	RECOG_TARGET	n/a	LTP215	ltpFR	6	5	0	DIAMOND	458	1	5	0	n/a	n/a	n/a	n/a	n/a
3177747	RECOG_RESP	n/a	LTP215	ltpFR	6	5	0	DIAMOND	458	1	n/a	0	n/a	n/a	n/a	n/a	n/a
3178383	RECOG_CONF	n/a	LTP215	ltpFR	6	5	0	DIAMOND	458	n/a	5	0	n/a	n/a	n/a	n/a	n/a
3179881	RECOG_TARGET	n/a	LTP215	ltpFR	6	5	1	BALCONY	72	1	3	0	n/a	n/a	n/a	n/a	n/a
3180805	RECOG_RESP	n/a	LTP215	ltpFR	6	5	1	BALCONY	72	1	n/a	0	n/a	n/a	n/a	n/a	n/a
3181501	RECOG_CONF	n/a	LTP215	ltpFR	6	5	1	BALCONY	72	n/a	3	0	n/a	n/a	n/a	n/a	n/a
3182909	RECOG_TARGET	n/a	LTP215	ltpFR	6	5	-1	MICROWAVE	892	1	4	-1	n/a	n/a	n/a	n/a	n/a
3183609	RECOG_RESP	n/a	LTP215	ltpFR	6	5	-1	MICROWAVE	892	1	n/a	-1	n/a	n/a	n/a	n/a	n/a
3184259	RECOG_CONF	n/a	LTP215	ltpFR	6	5	-1	MICROWAVE	892	n/a	4	-1	n/a	n/a	n/a	n/a	n/a
3185663	RECOG_TARGET	n/a	LTP215	ltpFR	6	5	0	PUBLICATION	1136	1	4	1	n/a	n/a	n/a	n/a	n/a
3186609	RECOG_RESP	n/a	LTP215	ltpFR	6	5	0	PUBLICATION	1136	1	n/a	1	n/a	n/a	n/a	n/a	n/a
3187212	RECOG_CONF	n/a	LTP215	ltpFR	6	5	0	PUBLICATION	1136	n/a	4	1	n/a	n/a	n/a	n/a	n/a
3188798	RECOG_LURE	n/a	LTP215	ltpFR	6	5	n/a	OX	994	0	4	n/a	n/a	n/a	n/a	n/a	n/a
3189590	RECOG_RESP	n/a	LTP215	ltpFR	6	5	n/a	OX	994	0	n/a	n/a	n/a	n/a	n/a	n/a	n/a
3190199	RECOG_CONF	n/a	LTP215	ltpFR	6	5	n/a	OX	994	n/a	4	n/a	n/a	n/a	n/a	n/a	n/a
3191819	RECOG_TARGET	n/a	LTP215	ltpFR	6	5	0	BOULEVARD	156	1	4	1	n/a	n/a	n/a	n/a	n/a
3192585	RECOG_RESP	n/a	LTP215	ltpFR	6	5	0	BOULEVARD	156	1	n/a	1	n/a	n/a	n/a	n/a	n/a
3193229	RECOG_CONF	n/a	LTP215	ltpFR	6	5	0	BOULEVARD	156	n/a	4	1	n/a	n/a	n/a	n/a	n/a
3196933	REC_START	n/a	LTP215	ltpFR	6	6	n/a	n/a	n/a	n/a	n/a	n/a	n/a	n/a	n/a	n/a	n/a
3196979	RECOG_TARGET	n/a	LTP215	ltpFR	6	6	1	CRAB	397	1	4	1	n/a	n/a	n/a	n/a	n/a
3198048	RECOG_RESP	n/a	LTP215	ltpFR	6	6	1	CRAB	397	1	n/a	1	n/a	n/a	n/a	n/a	n/a
3198784	RECOG_CONF	n/a	LTP215	ltpFR	6	6	1	CRAB	397	n/a	4	1	n/a	n/a	n/a	n/a	n/a
3200217	RECOG_TARGET	n/a	LTP215	ltpFR	6	6	0	COLOGNE	347	1	5	0	n/a	n/a	n/a	n/a	n/a
3200924	RECOG_RESP	n/a	LTP215	ltpFR	6	6	0	COLOGNE	347	1	n/a	0	n/a	n/a	n/a	n/a	n/a
3201597	RECOG_CONF	n/a	LTP215	ltpFR	6	6	0	COLOGNE	347	n/a	5	0	n/a	n/a	n/a	n/a	n/a
3203229	RECOG_TARGET	n/a	LTP215	ltpFR	6	6	1	SUIT	1402	1	4	0	n/a	n/a	n/a	n/a	n/a
3203922	RECOG_RESP	n/a	LTP215	ltpFR	6	6	1	SUIT	1402	1	n/a	0	n/a	n/a	n/a	n/a	n/a
3204590	RECOG_CONF	n/a	LTP215	ltpFR	6	6	1	SUIT	1402	n/a	4	0	n/a	n/a	n/a	n/a	n/a
3206180	RECOG_TARGET	n/a	LTP215	ltpFR	6	6	1	DRAWING	494	1	5	0	n/a	n/a	n/a	n/a	n/a
3206780	RECOG_RESP	n/a	LTP215	ltpFR	6	6	1	DRAWING	494	1	n/a	0	n/a	n/a	n/a	n/a	n/a
3207394	RECOG_CONF	n/a	LTP215	ltpFR	6	6	1	DRAWING	494	n/a	5	0	n/a	n/a	n/a	n/a	n/a
3208907	RECOG_TARGET	n/a	LTP215	ltpFR	6	6	1	WOMAN	1620	1	5	1	n/a	n/a	n/a	n/a	n/a
3209708	RECOG_RESP	n/a	LTP215	ltpFR	6	6	1	WOMAN	1620	1	n/a	1	n/a	n/a	n/a	n/a	n/a
3210367	RECOG_CONF	n/a	LTP215	ltpFR	6	6	1	WOMAN	1620	n/a	5	1	n/a	n/a	n/a	n/a	n/a
3211761	RECOG_LURE	n/a	LTP215	ltpFR	6	6	n/a	LITTER	832	0	4	n/a	n/a	n/a	n/a	n/a	n/a
3212720	RECOG_RESP	n/a	LTP215	ltpFR	6	6	n/a	LITTER	832	0	n/a	n/a	n/a	n/a	n/a	n/a	n/a
3213430	RECOG_CONF	n/a	LTP215	ltpFR	6	6	n/a	LITTER	832	n/a	4	n/a	n/a	n/a	n/a	n/a	n/a
3214913	RECOG_TARGET	n/a	LTP215	ltpFR	6	6	0	SKI	1316	1	5	1	n/a	n/a	n/a	n/a	n/a
3215600	RECOG_RESP	n/a	LTP215	ltpFR	6	6	0	SKI	1316	1	n/a	1	n/a	n/a	n/a	n/a	n/a
3216284	RECOG_CONF	n/a	LTP215	ltpFR	6	6	0	SKI	1316	n/a	5	1	n/a	n/a	n/a	n/a	n/a
3217751	RECOG_TARGET	n/a	LTP215	ltpFR	6	6	1	BOX	159	0	2	0	n/a	n/a	n/a	n/a	n/a
3218777	RECOG_RESP	n/a	LTP215	ltpFR	6	6	1	BOX	159	0	n/a	0	n/a	n/a	n/a	n/a	n/a
3219390	RECOG_CONF	n/a	LTP215	ltpFR	6	6	1	BOX	159	n/a	2	0	n/a	n/a	n/a	n/a	n/a
3220936	RECOG_TARGET	n/a	LTP215	ltpFR	6	6	1	LUNCH	849	1	2	0	n/a	n/a	n/a	n/a	n/a
3221753	RECOG_RESP	n/a	LTP215	ltpFR	6	6	1	LUNCH	849	1	n/a	0	n/a	n/a	n/a	n/a	n/a
3222548	RECOG_CONF	n/a	LTP215	ltpFR	6	6	1	LUNCH	849	n/a	2	0	n/a	n/a	n/a	n/a	n/a
3224115	RECOG_TARGET	n/a	LTP215	ltpFR	6	6	0	HAMBURGER	679	1	5	0	n/a	n/a	n/a	n/a	n/a
3224828	RECOG_RESP	n/a	LTP215	ltpFR	6	6	0	HAMBURGER	679	1	n/a	0	n/a	n/a	n/a	n/a	n/a
3225443	RECOG_CONF	n/a	LTP215	ltpFR	6	6	0	HAMBURGER	679	n/a	5	0	n/a	n/a	n/a	n/a	n/a
3226875	RECOG_LURE	n/a	LTP215	ltpFR	6	6	n/a	RIFLE	1192	0	2	n/a	n/a	n/a	n/a	n/a	n/a
3227936	RECOG_RESP	n/a	LTP215	ltpFR	6	6	n/a	RIFLE	1192	0	n/a	n/a	n/a	n/a	n/a	n/a	n/a
3228600	RECOG_CONF	n/a	LTP215	ltpFR	6	6	n/a	RIFLE	1192	n/a	2	n/a	n/a	n/a	n/a	n/a	n/a
3230147	RECOG_LURE	n/a	LTP215	ltpFR	6	6	n/a	SLEIGH	1325	0	2	n/a	n/a	n/a	n/a	n/a	n/a
3231187	RECOG_RESP	n/a	LTP215	ltpFR	6	6	n/a	SLEIGH	1325	0	n/a	n/a	n/a	n/a	n/a	n/a	n/a
3231812	RECOG_CONF	n/a	LTP215	ltpFR	6	6	n/a	SLEIGH	1325	n/a	2	n/a	n/a	n/a	n/a	n/a	n/a
3233359	RECOG_TARGET	n/a	LTP215	ltpFR	6	6	1	CART	250	0	3	0	n/a	n/a	n/a	n/a	n/a
3234467	RECOG_RESP	n/a	LTP215	ltpFR	6	6	1	CART	250	0	n/a	0	n/a	n/a	n/a	n/a	n/a
3235141	RECOG_CONF	n/a	LTP215	ltpFR	6	6	1	CART	250	n/a	3	0	n/a	n/a	n/a	n/a	n/a
3236613	RECOG_TARGET	n/a	LTP215	ltpFR	6	6	-1	COMMANDER	354	1	3	-1	n/a	n/a	n/a	n/a	n/a
3237550	RECOG_RESP	n/a	LTP215	ltpFR	6	6	-1	COMMANDER	354	1	n/a	-1	n/a	n/a	n/a	n/a	n/a
3238145	RECOG_CONF	n/a	LTP215	ltpFR	6	6	-1	COMMANDER	354	n/a	3	-1	n/a	n/a	n/a	n/a	n/a
3239657	RECOG_TARGET	n/a	LTP215	ltpFR	6	6	0	SHRINE	1298	1	3	1	n/a	n/a	n/a	n/a	n/a
3240524	RECOG_RESP	n/a	LTP215	ltpFR	6	6	0	SHRINE	1298	1	n/a	1	n/a	n/a	n/a	n/a	n/a
3241283	RECOG_CONF	n/a	LTP215	ltpFR	6	6	0	SHRINE	1298	n/a	3	1	n/a	n/a	n/a	n/a	n/a
3242794	RECOG_TARGET	n/a	LTP215	ltpFR	6	6	0	OAR	966	1	4	1	n/a	n/a	n/a	n/a	n/a
3243508	RECOG_RESP	n/a	LTP215	ltpFR	6	6	0	OAR	966	1	n/a	1	n/a	n/a	n/a	n/a	n/a
3244131	RECOG_CONF	n/a	LTP215	ltpFR	6	6	0	OAR	966	n/a	4	1	n/a	n/a	n/a	n/a	n/a
3245530	RECOG_TARGET	n/a	LTP215	ltpFR	6	6	0	MONASTERY	907	1	4	1	n/a	n/a	n/a	n/a	n/a
3246209	RECOG_RESP	n/a	LTP215	ltpFR	6	6	0	MONASTERY	907	1	n/a	1	n/a	n/a	n/a	n/a	n/a
3246804	RECOG_CONF	n/a	LTP215	ltpFR	6	6	0	MONASTERY	907	n/a	4	1	n/a	n/a	n/a	n/a	n/a
3248332	RECOG_TARGET	n/a	LTP215	ltpFR	6	6	1	COFFEE	341	1	5	0	n/a	n/a	n/a	n/a	n/a
3248873	RECOG_RESP	n/a	LTP215	ltpFR	6	6	1	COFFEE	341	1	n/a	0	n/a	n/a	n/a	n/a	n/a
3249419	RECOG_CONF	n/a	LTP215	ltpFR	6	6	1	COFFEE	341	n/a	5	0	n/a	n/a	n/a	n/a	n/a
3250849	RECOG_TARGET	n/a	LTP215	ltpFR	6	6	1	GENERAL	630	1	5	1	n/a	n/a	n/a	n/a	n/a
3251567	RECOG_RESP	n/a	LTP215	ltpFR	6	6	1	GENERAL	630	1	n/a	1	n/a	n/a	n/a	n/a	n/a
3252232	RECOG_CONF	n/a	LTP215	ltpFR	6	6	1	GENERAL	630	n/a	5	1	n/a	n/a	n/a	n/a	n/a
3253593	RECOG_TARGET	n/a	LTP215	ltpFR	6	6	-1	OREGANO	983	1	4	-1	n/a	n/a	n/a	n/a	n/a
3254309	RECOG_RESP	n/a	LTP215	ltpFR	6	6	-1	OREGANO	983	1	n/a	-1	n/a	n/a	n/a	n/a	n/a
3254966	RECOG_CONF	n/a	LTP215	ltpFR	6	6	-1	OREGANO	983	n/a	4	-1	n/a	n/a	n/a	n/a	n/a
3258537	REC_START	n/a	LTP215	ltpFR	6	7	n/a	n/a	n/a	n/a	n/a	n/a	n/a	n/a	n/a	n/a	n/a
3258588	RECOG_TARGET	n/a	LTP215	ltpFR	6	7	0	BEETLE	116	1	3	0	n/a	n/a	n/a	n/a	n/a
3259497	RECOG_RESP	n/a	LTP215	ltpFR	6	7	0	BEETLE	116	1	n/a	0	n/a	n/a	n/a	n/a	n/a
3260108	RECOG_CONF	n/a	LTP215	ltpFR	6	7	0	BEETLE	116	n/a	3	0	n/a	n/a	n/a	n/a	n/a
3261690	RECOG_TARGET	n/a	LTP215	ltpFR	6	7	-1	DILL	465	1	3	-1	n/a	n/a	n/a	n/a	n/a
3262403	RECOG_RESP	n/a	LTP215	ltpFR	6	7	-1	DILL	465	1	n/a	-1	n/a	n/a	n/a	n/a	n/a
3263019	RECOG_CONF	n/a	LTP215	ltpFR	6	7	-1	DILL	465	n/a	3	-1	n/a	n/a	n/a	n/a	n/a
3264426	RECOG_TARGET	n/a	LTP215	ltpFR	6	7	0	BASSINET	97	1	4	1	n/a	n/a	n/a	n/a	n/a
3265922	RECOG_RESP	n/a	LTP215	ltpFR	6	7	0	BASSINET	97	1	n/a	1	n/a	n/a	n/a	n/a	n/a
3266653	RECOG_CONF	n/a	LTP215	ltpFR	6	7	0	BASSINET	97	n/a	4	1	n/a	n/a	n/a	n/a	n/a
3268214	RECOG_TARGET	n/a	LTP215	ltpFR	6	7	-1	AFRICA	9	1	5	-1	n/a	n/a	n/a	n/a	n/a
3268814	RECOG_RESP	n/a	LTP215	ltpFR	6	7	-1	AFRICA	9	1	n/a	-1	n/a	n/a	n/a	n/a	n/a
3269437	RECOG_CONF	n/a	LTP215	ltpFR	6	7	-1	AFRICA	9	n/a	5	-1	n/a	n/a	n/a	n/a	n/a
3270900	RECOG_TARGET	n/a	LTP215	ltpFR	6	7	0	VITAMIN	1574	1	5	0	n/a	n/a	n/a	n/a	n/a
3271769	RECOG_RESP	n/a	LTP215	ltpFR	6	7	0	VITAMIN	1574	1	n/a	0	n/a	n/a	n/a	n/a	n/a
3272532	RECOG_CONF	n/a	LTP215	ltpFR	6	7	0	VITAMIN	1574	n/a	5	0	n/a	n/a	n/a	n/a	n/a
3274069	RECOG_TARGET	n/a	LTP215	ltpFR	6	7	1	HOSTESS	723	1	2	1	n/a	n/a	n/a	n/a	n/a
3275494	RECOG_RESP	n/a	LTP215	ltpFR	6	7	1	HOSTESS	723	1	n/a	1	n/a	n/a	n/a	n/a	n/a
3276257	RECOG_CONF	n/a	LTP215	ltpFR	6	7	1	HOSTESS	723	n/a	2	1	n/a	n/a	n/a	n/a	n/a
3277927	RECOG_TARGET	n/a	LTP215	ltpFR	6	7	-1	CHOCOLATE	306	1	4	-1	n/a	n/a	n/a	n/a	n/a
3278539	RECOG_RESP	n/a	LTP215	ltpFR	6	7	-1	CHOCOLATE	306	1	n/a	-1	n/a	n/a	n/a	n/a	n/a
3279145	RECOG_CONF	n/a	LTP215	ltpFR	6	7	-1	CHOCOLATE	306	n/a	4	-1	n/a	n/a	n/a	n/a	n/a
3280554	RECOG_TARGET	n/a	LTP215	ltpFR	6	7	-1	TROMBONE	1508	0	3	-1	n/a	n/a	n/a	n/a	n/a
3281991	RECOG_RESP	n/a	LTP215	ltpFR	6	7	-1	TROMBONE	1508	0	n/a	-1	n/a	n/a	n/a	n/a	n/a
3282748	RECOG_CONF	n/a	LTP215	ltpFR	6	7	-1	TROMBONE	1508	n/a	3	-1	n/a	n/a	n/a	n/a	n/a
3284267	RECOG_TARGET	n/a	LTP215	ltpFR	6	7	1	BEAR	106	1	3	1	n/a	n/a	n/a	n/a	n/a
3285482	RECOG_RESP	n/a	LTP215	ltpFR	6	7	1	BEAR	106	1	n/a	1	n/a	n/a	n/a	n/a	n/a
3286069	RECOG_CONF	n/a	LTP215	ltpFR	6	7	1	BEAR	106	n/a	3	1	n/a	n/a	n/a	n/a	n/a
3287631	RECOG_TARGET	n/a	LTP215	ltpFR	6	7	1	LAMB	797	0	3	1	n/a	n/a	n/a	n/a	n/a
3288638	RECOG_RESP	n/a	LTP215	ltpFR	6	7	1	LAMB	797	0	n/a	1	n/a	n/a	n/a	n/a	n/a
3289222	RECOG_CONF	n/a	LTP215	ltpFR	6	7	1	LAMB	797	n/a	3	1	n/a	n/a	n/a	n/a	n/a
3290716	RECOG_TARGET	n/a	LTP215	ltpFR	6	7	-1	KETTLE	772	1	3	-1	n/a	n/a	n/a	n/a	n/a
3292463	RECOG_RESP	n/a	LTP215	ltpFR	6	7	-1	KETTLE	772	1	n/a	-1	n/a	n/a	n/a	n/a	n/a
3293291	RECOG_CONF	n/a	LTP215	ltpFR	6	7	-1	KETTLE	772	n/a	3	-1	n/a	n/a	n/a	n/a	n/a
3294798	RECOG_TARGET	n/a	LTP215	ltpFR	6	7	1	LAWYER	806	1	3	1	n/a	n/a	n/a	n/a	n/a
3295591	RECOG_RESP	n/a	LTP215	ltpFR	6	7	1	LAWYER	806	1	n/a	1	n/a	n/a	n/a	n/a	n/a
3296181	RECOG_CONF	n/a	LTP215	ltpFR	6	7	1	LAWYER	806	n/a	3	1	n/a	n/a	n/a	n/a	n/a
3297775	RECOG_TARGET	n/a	LTP215	ltpFR	6	7	0	DRESS	495	1	5	1	n/a	n/a	n/a	n/a	n/a
3298603	RECOG_RESP	n/a	LTP215	ltpFR	6	7	0	DRESS	495	1	n/a	1	n/a	n/a	n/a	n/a	n/a
3299269	RECOG_CONF	n/a	LTP215	ltpFR	6	7	0	DRESS	495	n/a	5	1	n/a	n/a	n/a	n/a	n/a
3300804	RECOG_TARGET	n/a	LTP215	ltpFR	6	7	0	METEOR	889	1	4	1	n/a	n/a	n/a	n/a	n/a
3302359	RECOG_RESP	n/a	LTP215	ltpFR	6	7	0	METEOR	889	1	n/a	1	n/a	n/a	n/a	n/a	n/a
3303084	RECOG_CONF	n/a	LTP215	ltpFR	6	7	0	METEOR	889	n/a	4	1	n/a	n/a	n/a	n/a	n/a
3304695	RECOG_TARGET	n/a	LTP215	ltpFR	6	7	-1	CONCERT	360	0	2	-1	n/a	n/a	n/a	n/a	n/a
3305820	RECOG_RESP	n/a	LTP215	ltpFR	6	7	-1	CONCERT	360	0	n/a	-1	n/a	n/a	n/a	n/a	n/a
3306490	RECOG_CONF	n/a	LTP215	ltpFR	6	7	-1	CONCERT	360	n/a	2	-1	n/a	n/a	n/a	n/a	n/a
3307947	RECOG_LURE	n/a	LTP215	ltpFR	6	7	n/a	BLUEJAY	141	0	5	n/a	n/a	n/a	n/a	n/a	n/a
3308835	RECOG_RESP	n/a	LTP215	ltpFR	6	7	n/a	BLUEJAY	141	0	n/a	n/a	n/a	n/a	n/a	n/a	n/a
3309486	RECOG_CONF	n/a	LTP215	ltpFR	6	7	n/a	BLUEJAY	141	n/a	5	n/a	n/a	n/a	n/a	n/a	n/a
3310925	RECOG_TARGET	n/a	LTP215	ltpFR	6	7	0	INTESTINE	742	1	4	1	n/a	n/a	n/a	n/a	n/a
3312070	RECOG_RESP	n/a	LTP215	ltpFR	6	7	0	INTESTINE	742	1	n/a	1	n/a	n/a	n/a	n/a	n/a
3312739	RECOG_CONF	n/a	LTP215	ltpFR	6	7	0	INTESTINE	742	n/a	4	1	n/a	n/a	n/a	n/a	n/a
3314314	RECOG_TARGET	n/a	LTP215	ltpFR	6	7	1	PRINCESS	1125	1	5	1	n/a	n/a	n/a	n/a	n/a
3315034	RECOG_RESP	n/a	LTP215	ltpFR	6	7	1	PRINCESS	1125	1	n/a	1	n/a	n/a	n/a	n/a	n/a
3315762	RECOG_CONF	n/a	LTP215	ltpFR	6	7	1	PRINCESS	1125	n/a	5	1	n/a	n/a	n/a	n/a	n/a
3317215	RECOG_TARGET	n/a	LTP215	ltpFR	6	7	0	BARLEY	88	1	4	0	n/a	n/a	n/a	n/a	n/a
3318335	RECOG_RESP	n/a	LTP215	ltpFR	6	7	0	BARLEY	88	1	n/a	0	n/a	n/a	n/a	n/a	n/a
3319184	RECOG_CONF	n/a	LTP215	ltpFR	6	7	0	BARLEY	88	n/a	4	0	n/a	n/a	n/a	n/a	n/a
3320562	RECOG_TARGET	n/a	LTP215	ltpFR	6	7	0	TUNA	1518	1	5	0	n/a	n/a	n/a	n/a	n/a
3321372	RECOG_RESP	n/a	LTP215	ltpFR	6	7	0	TUNA	1518	1	n/a	0	n/a	n/a	n/a	n/a	n/a
3322087	RECOG_CONF	n/a	LTP215	ltpFR	6	7	0	TUNA	1518	n/a	5	0	n/a	n/a	n/a	n/a	n/a
3326427	REC_START	n/a	LTP215	ltpFR	6	8	n/a	n/a	n/a	n/a	n/a	n/a	n/a	n/a	n/a	n/a	n/a
3326476	RECOG_TARGET	n/a	LTP215	ltpFR	6	8	-1	BOXER	160	1	2	-1	n/a	n/a	n/a	n/a	n/a
3328969	RECOG_RESP	n/a	LTP215	ltpFR	6	8	-1	BOXER	160	1	n/a	-1	n/a	n/a	n/a	n/a	n/a
3329696	RECOG_CONF	n/a	LTP215	ltpFR	6	8	-1	BOXER	160	n/a	2	-1	n/a	n/a	n/a	n/a	n/a
3331361	RECOG_TARGET	n/a	LTP215	ltpFR	6	8	-1	TELEVISION	1447	0	3	-1	n/a	n/a	n/a	n/a	n/a
3332536	RECOG_RESP	n/a	LTP215	ltpFR	6	8	-1	TELEVISION	1447	0	n/a	-1	n/a	n/a	n/a	n/a	n/a
3333265	RECOG_CONF	n/a	LTP215	ltpFR	6	8	-1	TELEVISION	1447	n/a	3	-1	n/a	n/a	n/a	n/a	n/a
3334798	RECOG_TARGET	n/a	LTP215	ltpFR	6	8	1	ISLAND	745	1	3	0	n/a	n/a	n/a	n/a	n/a
3335519	RECOG_RESP	n/a	LTP215	ltpFR	6	8	1	ISLAND	745	1	n/a	0	n/a	n/a	n/a	n/a	n/a
3336190	RECOG_CONF	n/a	LTP215	ltpFR	6	8	1	ISLAND	745	n/a	3	0	n/a	n/a	n/a	n/a	n/a
3337670	RECOG_LURE	n/a	LTP215	ltpFR	6	8	n/a	PEACH	1031	0	3	n/a	n/a	n/a	n/a	n/a	n/a
3338821	RECOG_RESP	n/a	LTP215	ltpFR	6	8	n/a	PEACH	1031	0	n/a	n/a	n/a	n/a	n/a	n/a	n/a
3339354	RECOG_CONF	n/a	LTP215	ltpFR	6	8	n/a	PEACH	1031	n/a	3	n/a	n/a	n/a	n/a	n/a	n/a
3340998	RECOG_TARGET	n/a	LTP215	ltpFR	6	8	-1	KEY	773	0	2	-1	n/a	n/a	n/a	n/a	n/a
3343225	RECOG_RESP	n/a	LTP215	ltpFR	6	8	-1	KEY	773	0	n/a	-1	n/a	n/a	n/a	n/a	n/a
3343879	RECOG_CONF	n/a	LTP215	ltpFR	6	8	-1	KEY	773	n/a	2	-1	n/a	n/a	n/a	n/a	n/a
3345381	RECOG_TARGET	n/a	LTP215	ltpFR	6	8	0	RIB	1188	1	4	1	n/a	n/a	n/a	n/a	n/a
3346115	RECOG_RESP	n/a	LTP215	ltpFR	6	8	0	RIB	1188	1	n/a	1	n/a	n/a	n/a	n/a	n/a
3346776	RECOG_CONF	n/a	LTP215	ltpFR	6	8	0	RIB	1188	n/a	4	1	n/a	n/a	n/a	n/a	n/a
3348141	RECOG_TARGET	n/a	LTP215	ltpFR	6	8	1	ARTICLE	42	1	4	0	n/a	n/a	n/a	n/a	n/a
3349206	RECOG_RESP	n/a	LTP215	ltpFR	6	8	1	ARTICLE	42	1	n/a	0	n/a	n/a	n/a	n/a	n/a
3349869	RECOG_CONF	n/a	LTP215	ltpFR	6	8	1	ARTICLE	42	n/a	4	0	n/a	n/a	n/a	n/a	n/a
3351294	RECOG_TARGET	n/a	LTP215	ltpFR	6	8	0	SEAT	1264	0	2	3	n/a	n/a	n/a	n/a	n/a
3352567	RECOG_RESP	n/a	LTP215	ltpFR	6	8	0	SEAT	1264	0	n/a	3	n/a	n/a	n/a	n/a	n/a
3353183	RECOG_CONF	n/a	LTP215	ltpFR	6	8	0	SEAT	1264	n/a	2	3	n/a	n/a	n/a	n/a	n/a
3354624	RECOG_TARGET	n/a	LTP215	ltpFR	6	8	0	MINT	898	1	4	0	n/a	n/a	n/a	n/a	n/a
3355774	RECOG_RESP	n/a	LTP215	ltpFR	6	8	0	MINT	898	1	n/a	0	n/a	n/a	n/a	n/a	n/a
3356444	RECOG_CONF	n/a	LTP215	ltpFR	6	8	0	MINT	898	n/a	4	0	n/a	n/a	n/a	n/a	n/a
3357778	RECOG_LURE	n/a	LTP215	ltpFR	6	8	n/a	DICTIONARY	463	0	4	n/a	n/a	n/a	n/a	n/a	n/a
3358924	RECOG_RESP	n/a	LTP215	ltpFR	6	8	n/a	DICTIONARY	463	0	n/a	n/a	n/a	n/a	n/a	n/a	n/a
3359471	RECOG_CONF	n/a	LTP215	ltpFR	6	8	n/a	DICTIONARY	463	n/a	4	n/a	n/a	n/a	n/a	n/a	n/a
3360923	RECOG_TARGET	n/a	LTP215	ltpFR	6	8	1	TWEEZERS	1526	1	4	0	n/a	n/a	n/a	n/a	n/a
3361590	RECOG_RESP	n/a	LTP215	ltpFR	6	8	1	TWEEZERS	1526	1	n/a	0	n/a	n/a	n/a	n/a	n/a
3362210	RECOG_CONF	n/a	LTP215	ltpFR	6	8	1	TWEEZERS	1526	n/a	4	0	n/a	n/a	n/a	n/a	n/a
3363634	RECOG_TARGET	n/a	LTP215	ltpFR	6	8	-1	SCALLOP	1242	1	5	-1	n/a	n/a	n/a	n/a	n/a
3364342	RECOG_RESP	n/a	LTP215	ltpFR	6	8	-1	SCALLOP	1242	1	n/a	-1	n/a	n/a	n/a	n/a	n/a
3365024	RECOG_CONF	n/a	LTP215	ltpFR	6	8	-1	SCALLOP	1242	n/a	5	-1	n/a	n/a	n/a	n/a	n/a
3366460	RECOG_TARGET	n/a	LTP215	ltpFR	6	8	0	BUNNY	198	1	2	0	n/a	n/a	n/a	n/a	n/a
3367123	RECOG_RESP	n/a	LTP215	ltpFR	6	8	0	BUNNY	198	1	n/a	0	n/a	n/a	n/a	n/a	n/a
3368133	RECOG_CONF	n/a	LTP215	ltpFR	6	8	0	BUNNY	198	n/a	2	0	n/a	n/a	n/a	n/a	n/a
3369773	RECOG_TARGET	n/a	LTP215	ltpFR	6	8	0	PLANET	1082	1	3	1	n/a	n/a	n/a	n/a	n/a
3370433	RECOG_RESP	n/a	LTP215	ltpFR	6	8	0	PLANET	1082	1	n/a	1	n/a	n/a	n/a	n/a	n/a
3371543	RECOG_CONF	n/a	LTP215	ltpFR	6	8	0	PLANET	1082	n/a	3	1	n/a	n/a	n/a	n/a	n/a
3373042	RECOG_LURE	n/a	LTP215	ltpFR	6	8	n/a	CARRIAGE	248	1	1	n/a	n/a	n/a	n/a	n/a	n/a
3374762	RECOG_RESP	n/a	LTP215	ltpFR	6	8	n/a	CARRIAGE	248	1	n/a	n/a	n/a	n/a	n/a	n/a	n/a
3375504	RECOG_CONF	n/a	LTP215	ltpFR	6	8	n/a	CARRIAGE	248	n/a	1	n/a	n/a	n/a	n/a	n/a	n/a
3377007	RECOG_TARGET	n/a	LTP215	ltpFR	6	8	-1	THORN	1459	1	3	-1	n/a	n/a	n/a	n/a	n/a
3378137	RECOG_RESP	n/a	LTP215	ltpFR	6	8	-1	THORN	1459	1	n/a	-1	n/a	n/a	n/a	n/a	n/a
3378923	RECOG_CONF	n/a	LTP215	ltpFR	6	8	-1	THORN	1459	n/a	3	-1	n/a	n/a	n/a	n/a	n/a
3380555	RECOG_TARGET	n/a	LTP215	ltpFR	6	8	0	BELT	120	1	4	0	n/a	n/a	n/a	n/a	n/a
3381563	RECOG_RESP	n/a	LTP215	ltpFR	6	8	0	BELT	120	1	n/a	0	n/a	n/a	n/a	n/a	n/a
3382225	RECOG_CONF	n/a	LTP215	ltpFR	6	8	0	BELT	120	n/a	4	0	n/a	n/a	n/a	n/a	n/a
3383617	RECOG_TARGET	n/a	LTP215	ltpFR	6	8	1	THIGH	1457	1	5	0	n/a	n/a	n/a	n/a	n/a
3384408	RECOG_RESP	n/a	LTP215	ltpFR	6	8	1	THIGH	1457	1	n/a	0	n/a	n/a	n/a	n/a	n/a
3385049	RECOG_CONF	n/a	LTP215	ltpFR	6	8	1	THIGH	1457	n/a	5	0	n/a	n/a	n/a	n/a	n/a
3386561	RECOG_TARGET	n/a	LTP215	ltpFR	6	8	0	FAIRY	549	0	2	0	n/a	n/a	n/a	n/a	n/a
3387379	RECOG_RESP	n/a	LTP215	ltpFR	6	8	0	FAIRY	549	0	n/a	0	n/a	n/a	n/a	n/a	n/a
3388108	RECOG_CONF	n/a	LTP215	ltpFR	6	8	0	FAIRY	549	n/a	2	0	n/a	n/a	n/a	n/a	n/a
3389532	RECOG_TARGET	n/a	LTP215	ltpFR	6	8	1	LEADER	807	1	3	1	n/a	n/a	n/a	n/a	n/a
3391049	RECOG_RESP	n/a	LTP215	ltpFR	6	8	1	LEADER	807	1	n/a	1	n/a	n/a	n/a	n/a	n/a
3391749	RECOG_CONF	n/a	LTP215	ltpFR	6	8	1	LEADER	807	n/a	3	1	n/a	n/a	n/a	n/a	n/a
3404481	REC_START	n/a	LTP215	ltpFR	6	9	n/a	n/a	n/a	n/a	n/a	n/a	n/a	n/a	n/a	n/a	n/a
3404538	RECOG_TARGET	n/a	LTP215	ltpFR	6	9	1	SHRIMP	1297	1	2	1	n/a	n/a	n/a	n/a	n/a
3405494	RECOG_RESP	n/a	LTP215	ltpFR	6	9	1	SHRIMP	1297	1	n/a	1	n/a	n/a	n/a	n/a	n/a
3406337	RECOG_CONF	n/a	LTP215	ltpFR	6	9	1	SHRIMP	1297	n/a	2	1	n/a	n/a	n/a	n/a	n/a
3407924	RECOG_TARGET	n/a	LTP215	ltpFR	6	9	0	TRUMPET	1513	1	3	1	n/a	n/a	n/a	n/a	n/a
3409327	RECOG_RESP	n/a	LTP215	ltpFR	6	9	0	TRUMPET	1513	1	n/a	1	n/a	n/a	n/a	n/a	n/a
3409960	RECOG_CONF	n/a	LTP215	ltpFR	6	9	0	TRUMPET	1513	n/a	3	1	n/a	n/a	n/a	n/a	n/a
3411565	RECOG_TARGET	n/a	LTP215	ltpFR	6	9	0	SATURN	1236	1	4	1	n/a	n/a	n/a	n/a	n/a
3412123	RECOG_RESP	n/a	LTP215	ltpFR	6	9	0	SATURN	1236	1	n/a	1	n/a	n/a	n/a	n/a	n/a
3412767	RECOG_CONF	n/a	LTP215	ltpFR	6	9	0	SATURN	1236	n/a	4	1	n/a	n/a	n/a	n/a	n/a
3414131	RECOG_TARGET	n/a	LTP215	ltpFR	6	9	-1	BRUSH	182	1	5	-1	n/a	n/a	n/a	n/a	n/a
3414677	RECOG_RESP	n/a	LTP215	ltpFR	6	9	-1	BRUSH	182	1	n/a	-1	n/a	n/a	n/a	n/a	n/a
3415411	RECOG_CONF	n/a	LTP215	ltpFR	6	9	-1	BRUSH	182	n/a	5	-1	n/a	n/a	n/a	n/a	n/a
3416934	RECOG_TARGET	n/a	LTP215	ltpFR	6	9	1	LIGHTER	819	1	5	0	n/a	n/a	n/a	n/a	n/a
3417699	RECOG_RESP	n/a	LTP215	ltpFR	6	9	1	LIGHTER	819	1	n/a	0	n/a	n/a	n/a	n/a	n/a
3418514	RECOG_CONF	n/a	LTP215	ltpFR	6	9	1	LIGHTER	819	n/a	5	0	n/a	n/a	n/a	n/a	n/a
3419945	RECOG_TARGET	n/a	LTP215	ltpFR	6	9	1	LASH	802	0	2	0	n/a	n/a	n/a	n/a	n/a
3420878	RECOG_RESP	n/a	LTP215	ltpFR	6	9	1	LASH	802	0	n/a	0	n/a	n/a	n/a	n/a	n/a
3421521	RECOG_CONF	n/a	LTP215	ltpFR	6	9	1	LASH	802	n/a	2	0	n/a	n/a	n/a	n/a	n/a
3422947	RECOG_TARGET	n/a	LTP215	ltpFR	6	9	0	PAINT	1003	1	4	1	n/a	n/a	n/a	n/a	n/a
3423653	RECOG_RESP	n/a	LTP215	ltpFR	6	9	0	PAINT	1003	1	n/a	1	n/a	n/a	n/a	n/a	n/a
3424241	RECOG_CONF	n/a	LTP215	ltpFR	6	9	0	PAINT	1003	n/a	4	1	n/a	n/a	n/a	n/a	n/a
3425618	RECOG_TARGET	n/a	LTP215	ltpFR	6	9	-1	OLIVE	975	1	5	-1	n/a	n/a	n/a	n/a	n/a
3426331	RECOG_RESP	n/a	LTP215	ltpFR	6	9	-1	OLIVE	975	1	n/a	-1	n/a	n/a	n/a	n/a	n/a
3426935	RECOG_CONF	n/a	LTP215	ltpFR	6	9	-1	OLIVE	975	n/a	5	-1	n/a	n/a	n/a	n/a	n/a
3428444	RECOG_TARGET	n/a	LTP215	ltpFR	6	9	1	BUBBLE	183	1	2	0	n/a	n/a	n/a	n/a	n/a
3429592	RECOG_RESP	n/a	LTP215	ltpFR	6	9	1	BUBBLE	183	1	n/a	0	n/a	n/a	n/a	n/a	n/a
3430244	RECOG_CONF	n/a	LTP215	ltpFR	6	9	1	BUBBLE	183	n/a	2	0	n/a	n/a	n/a	n/a	n/a
3431797	RECOG_TARGET	n/a	LTP215	ltpFR	6	9	0	EMPLOYER	532	1	3	1	n/a	n/a	n/a	n/a	n/a
3432522	RECOG_RESP	n/a	LTP215	ltpFR	6	9	0	EMPLOYER	532	1	n/a	1	n/a	n/a	n/a	n/a	n/a
3433062	RECOG_CONF	n/a	LTP215	ltpFR	6	9	0	EMPLOYER	532	n/a	3	1	n/a	n/a	n/a	n/a	n/a
3434433	RECOG_TARGET	n/a	LTP215	ltpFR	6	9	1	DRINK	498	0	1	0	n/a	n/a	n/a	n/a	n/a
3436007	RECOG_RESP	n/a	LTP215	ltpFR	6	9	1	DRINK	498	0	n/a	0	n/a	n/a	n/a	n/a	n/a
3436691	RECOG_CONF	n/a	LTP215	ltpFR	6	9	1	DRINK	498	n/a	1	0	n/a	n/a	n/a	n/a	n/a
