mstime	trial_type	stim_file	subject	experiment	session	trial	task	item_name	item_num	recog_resp	recog_conf	resp	answer	test_x	test_y	test_z	color_r	color_g	color_b	case	font
0	SESS_START	n/a	LTP231	ltpFR	13	n/a	n/a	n/a	n/a	1	1	n/a	n/a	0	0	0	n/a	n/a	n/a	n/a	n/a
36175	START	n/a	LTP231	ltpFR	13	n/a	n/a	n/a	n/a	n/a	n/a	n/a	n/a	n/a	n/a	n/a	n/a	n/a	n/a	n/a	n/a
36225	PROB	n/a	LTP231	ltpFR	13	n/a	n/a	n/a	n/a	n/a	n/a	n/a	5	2	1	2	n/a	n/a	n/a	n/a	n/a
38534	PROB	n/a	LTP231	ltpFR	13	n/a	n/a	n/a	n/a	n/a	n/a	n/a	21	9	7	5	n/a	n/a	n/a	n/a	n/a
41446	PROB	n/a	LTP231	ltpFR	13	n/a	n/a	n/a	n/a	n/a	n/a	n/a	18	5	8	5	n/a	n/a	n/a	n/a	n/a
45058	PROB	n/a	LTP231	ltpFR	13	n/a	n/a	n/a	n/a	n/a	n/a	n/a	15	7	6	2	n/a	n/a	n/a	n/a	n/a
48856	PROB	n/a	LTP231	ltpFR	13	n/a	n/a	n/a	n/a	n/a	n/a	n/a	23	8	6	9	n/a	n/a	n/a	n/a	n/a
52971	PROB	n/a	LTP231	ltpFR	13	n/a	n/a	n/a	n/a	n/a	n/a	n/a	15	7	4	4	n/a	n/a	n/a	n/a	n/a
55918	STOP	n/a	LTP231	ltpFR	13	n/a	n/a	n/a	n/a	n/a	n/a	n/a	n/a	n/a	n/a	n/a	n/a	n/a	n/a	n/a	n/a
104516	WORD	wordpools/wasnorm_wordpool_less_exclusions.txt	LTP231	ltpFR	13	1	1	STATUE	1374	0	n/a	0	n/a	0	0	0	0.422607421875	0.5869140625	0	lower	zerothre.ttf
108614	WORD	wordpools/wasnorm_wordpool_less_exclusions.txt	LTP231	ltpFR	13	1	1	MOON	914	n/a	n/a	0	n/a	0	0	0	0.422607421875	0.5869140625	0	lower	zerothre.ttf
112813	WORD	wordpools/wasnorm_wordpool_less_exclusions.txt	LTP231	ltpFR	13	1	1	SCAPEGOAT	1244	n/a	n/a	1	n/a	0	0	0	0.422607421875	0.5869140625	0	lower	zerothre.ttf
116695	WORD	wordpools/wasnorm_wordpool_less_exclusions.txt	LTP231	ltpFR	13	1	1	CART	250	n/a	n/a	0	n/a	0	0	0	0.422607421875	0.5869140625	0	lower	zerothre.ttf
120777	WORD	wordpools/wasnorm_wordpool_less_exclusions.txt	LTP231	ltpFR	13	1	1	DETECTIVE	454	n/a	n/a	1	n/a	0	0	0	0.422607421875	0.5869140625	0	lower	zerothre.ttf
124926	WORD	wordpools/wasnorm_wordpool_less_exclusions.txt	LTP231	ltpFR	13	1	1	ROPE	1211	n/a	n/a	0	n/a	0	0	0	0.422607421875	0.5869140625	0	lower	zerothre.ttf
128757	WORD	wordpools/wasnorm_wordpool_less_exclusions.txt	LTP231	ltpFR	13	1	1	STRING	1394	n/a	n/a	0	n/a	0	0	0	0.422607421875	0.5869140625	0	lower	zerothre.ttf
132872	WORD	wordpools/wasnorm_wordpool_less_exclusions.txt	LTP231	ltpFR	13	1	1	ANCHOR	21	n/a	n/a	0	n/a	0	0	0	0.422607421875	0.5869140625	0	lower	zerothre.ttf
136971	WORD	wordpools/wasnorm_wordpool_less_exclusions.txt	LTP231	ltpFR	13	1	1	SUN	1406	n/a	n/a	0	n/a	0	0	0	0.422607421875	0.5869140625	0	lower	zerothre.ttf
141020	WORD	wordpools/wasnorm_wordpool_less_exclusions.txt	LTP231	ltpFR	13	1	1	PIPE	1073	n/a	n/a	0	n/a	0	0	0	0.422607421875	0.5869140625	0	lower	zerothre.ttf
145202	WORD	wordpools/wasnorm_wordpool_less_exclusions.txt	LTP231	ltpFR	13	1	1	WATER	1594	n/a	n/a	0	n/a	0	0	0	0.422607421875	0.5869140625	0	lower	zerothre.ttf
149386	WORD	wordpools/wasnorm_wordpool_less_exclusions.txt	LTP231	ltpFR	13	1	1	CHICKEN	297	n/a	n/a	1	n/a	0	0	0	0.422607421875	0.5869140625	0	lower	zerothre.ttf
153367	WORD	wordpools/wasnorm_wordpool_less_exclusions.txt	LTP231	ltpFR	13	1	1	CREATURE	403	n/a	n/a	1	n/a	0	0	0	0.422607421875	0.5869140625	0	lower	zerothre.ttf
157366	WORD	wordpools/wasnorm_wordpool_less_exclusions.txt	LTP231	ltpFR	13	1	1	RADISH	1158	n/a	n/a	1	n/a	0	0	0	0.422607421875	0.5869140625	0	lower	zerothre.ttf
161564	WORD	wordpools/wasnorm_wordpool_less_exclusions.txt	LTP231	ltpFR	13	1	1	OLIVE	975	n/a	n/a	1	n/a	0	0	0	0.422607421875	0.5869140625	0	lower	zerothre.ttf
165579	WORD	wordpools/wasnorm_wordpool_less_exclusions.txt	LTP231	ltpFR	13	1	1	MUSEUM	933	n/a	n/a	0	n/a	0	0	0	0.422607421875	0.5869140625	0	lower	zerothre.ttf
168591	START	n/a	LTP231	ltpFR	13	n/a	n/a	n/a	n/a	n/a	n/a	n/a	n/a	n/a	n/a	n/a	n/a	n/a	n/a	n/a	n/a
169778	PROB	n/a	LTP231	ltpFR	13	n/a	n/a	n/a	n/a	n/a	n/a	n/a	12	7	3	2	n/a	n/a	n/a	n/a	n/a
172020	PROB	n/a	LTP231	ltpFR	13	n/a	n/a	n/a	n/a	n/a	n/a	n/a	12	6	1	5	n/a	n/a	n/a	n/a	n/a
174028	PROB	n/a	LTP231	ltpFR	13	n/a	n/a	n/a	n/a	n/a	n/a	n/a	20	5	6	9	n/a	n/a	n/a	n/a	n/a
176167	STOP	n/a	LTP231	ltpFR	13	n/a	n/a	n/a	n/a	n/a	n/a	n/a	n/a	n/a	n/a	n/a	n/a	n/a	n/a	n/a	n/a
178462	REC_START	n/a	LTP231	ltpFR	13	1	n/a	n/a	n/a	n/a	n/a	n/a	n/a	0	0	0	n/a	n/a	n/a	n/a	n/a
181176	REC_WORD	wordpools/wasnorm_wordpool_less_exclusions.txt	LTP231	ltpFR	13	1	1	CREATURE	403	n/a	n/a	1	n/a	0	0	0	n/a	n/a	n/a	n/a	n/a
182308	REC_WORD	wordpools/wasnorm_wordpool_less_exclusions.txt	LTP231	ltpFR	13	1	1	MUSEUM	933	n/a	n/a	0	n/a	0	0	0	n/a	n/a	n/a	n/a	n/a
185286	REC_WORD	wordpools/wasnorm_wordpool_less_exclusions.txt	LTP231	ltpFR	13	1	1	SCAPEGOAT	1244	n/a	n/a	1	n/a	0	0	0	n/a	n/a	n/a	n/a	n/a
186643	REC_WORD	wordpools/wasnorm_wordpool_less_exclusions.txt	LTP231	ltpFR	13	1	1	STRING	1394	n/a	n/a	0	n/a	0	0	0	n/a	n/a	n/a	n/a	n/a
187933	REC_WORD	wordpools/wasnorm_wordpool_less_exclusions.txt	LTP231	ltpFR	13	1	1	ROPE	1211	n/a	n/a	0	n/a	0	0	0	n/a	n/a	n/a	n/a	n/a
188948	REC_WORD	wordpools/wasnorm_wordpool_less_exclusions.txt	LTP231	ltpFR	13	1	1	WATER	1594	n/a	n/a	0	n/a	0	0	0	n/a	n/a	n/a	n/a	n/a
190100	REC_WORD	wordpools/wasnorm_wordpool_less_exclusions.txt	LTP231	ltpFR	13	1	1	SUN	1406	n/a	n/a	0	n/a	0	0	0	n/a	n/a	n/a	n/a	n/a
190833	REC_WORD	wordpools/wasnorm_wordpool_less_exclusions.txt	LTP231	ltpFR	13	1	1	MOON	914	n/a	n/a	0	n/a	0	0	0	n/a	n/a	n/a	n/a	n/a
196829	REC_WORD	wordpools/wasnorm_wordpool_less_exclusions.txt	LTP231	ltpFR	13	1	1	STATUE	1374	n/a	n/a	0	n/a	0	0	0	n/a	n/a	n/a	n/a	n/a
202273	REC_WORD	wordpools/wasnorm_wordpool_less_exclusions.txt	LTP231	ltpFR	13	1	1	OLIVE	975	n/a	n/a	1	n/a	0	0	0	n/a	n/a	n/a	n/a	n/a
256054	START	n/a	LTP231	ltpFR	13	n/a	n/a	n/a	n/a	n/a	n/a	n/a	n/a	n/a	n/a	n/a	n/a	n/a	n/a	n/a	n/a
257559	PROB	n/a	LTP231	ltpFR	13	n/a	n/a	n/a	n/a	n/a	n/a	n/a	14	3	4	7	n/a	n/a	n/a	n/a	n/a
259868	PROB	n/a	LTP231	ltpFR	13	n/a	n/a	n/a	n/a	n/a	n/a	n/a	9	3	1	5	n/a	n/a	n/a	n/a	n/a
264054	STOP	n/a	LTP231	ltpFR	13	n/a	n/a	n/a	n/a	n/a	n/a	n/a	n/a	n/a	n/a	n/a	n/a	n/a	n/a	n/a	n/a
264937	WORD	wordpools/wasnorm_wordpool_less_exclusions.txt	LTP231	ltpFR	13	2	0	BAIT	70	n/a	n/a	0	n/a	0	0	0	0.57763671875	0.412841796875	1	upper	amplitud.ttf
267949	START	n/a	LTP231	ltpFR	13	n/a	n/a	n/a	n/a	n/a	n/a	n/a	n/a	n/a	n/a	n/a	n/a	n/a	n/a	n/a	n/a
269002	PROB	n/a	LTP231	ltpFR	13	n/a	n/a	n/a	n/a	n/a	n/a	n/a	13	1	9	3	n/a	n/a	n/a	n/a	n/a
270842	PROB	n/a	LTP231	ltpFR	13	n/a	n/a	n/a	n/a	n/a	n/a	n/a	15	2	4	9	n/a	n/a	n/a	n/a	n/a
272950	PROB	n/a	LTP231	ltpFR	13	n/a	n/a	n/a	n/a	n/a	n/a	n/a	9	6	1	2	n/a	n/a	n/a	n/a	n/a
274534	STOP	n/a	LTP231	ltpFR	13	n/a	n/a	n/a	n/a	n/a	n/a	n/a	n/a	n/a	n/a	n/a	n/a	n/a	n/a	n/a	n/a
277049	WORD	wordpools/wasnorm_wordpool_less_exclusions.txt	LTP231	ltpFR	13	2	0	WORM	1623	n/a	n/a	0	n/a	0	0	0	0.57763671875	0.412841796875	1	upper	amplitud.ttf
280061	START	n/a	LTP231	ltpFR	13	n/a	n/a	n/a	n/a	n/a	n/a	n/a	n/a	n/a	n/a	n/a	n/a	n/a	n/a	n/a	n/a
281048	PROB	n/a	LTP231	ltpFR	13	n/a	n/a	n/a	n/a	n/a	n/a	n/a	23	8	9	6	n/a	n/a	n/a	n/a	n/a
283607	PROB	n/a	LTP231	ltpFR	13	n/a	n/a	n/a	n/a	n/a	n/a	n/a	9	4	1	4	n/a	n/a	n/a	n/a	n/a
285378	PROB	n/a	LTP231	ltpFR	13	n/a	n/a	n/a	n/a	n/a	n/a	n/a	12	8	2	2	n/a	n/a	n/a	n/a	n/a
286663	STOP	n/a	LTP231	ltpFR	13	n/a	n/a	n/a	n/a	n/a	n/a	n/a	n/a	n/a	n/a	n/a	n/a	n/a	n/a	n/a	n/a
289195	WORD	wordpools/wasnorm_wordpool_less_exclusions.txt	LTP231	ltpFR	13	2	0	WATERFALL	1595	n/a	n/a	1	n/a	0	0	0	0.57763671875	0.412841796875	1	upper	amplitud.ttf
292207	START	n/a	LTP231	ltpFR	13	n/a	n/a	n/a	n/a	n/a	n/a	n/a	n/a	n/a	n/a	n/a	n/a	n/a	n/a	n/a	n/a
293378	PROB	n/a	LTP231	ltpFR	13	n/a	n/a	n/a	n/a	n/a	n/a	n/a	18	6	9	3	n/a	n/a	n/a	n/a	n/a
295549	PROB	n/a	LTP231	ltpFR	13	n/a	n/a	n/a	n/a	n/a	n/a	n/a	13	9	2	2	n/a	n/a	n/a	n/a	n/a
297306	PROB	n/a	LTP231	ltpFR	13	n/a	n/a	n/a	n/a	n/a	n/a	n/a	8	1	1	6	n/a	n/a	n/a	n/a	n/a
298663	STOP	n/a	LTP231	ltpFR	13	n/a	n/a	n/a	n/a	n/a	n/a	n/a	n/a	n/a	n/a	n/a	n/a	n/a	n/a	n/a	n/a
301220	WORD	wordpools/wasnorm_wordpool_less_exclusions.txt	LTP231	ltpFR	13	2	0	RIVER	1194	n/a	n/a	0	n/a	0	0	0	0.57763671875	0.412841796875	1	upper	amplitud.ttf
304236	START	n/a	LTP231	ltpFR	13	n/a	n/a	n/a	n/a	n/a	n/a	n/a	n/a	n/a	n/a	n/a	n/a	n/a	n/a	n/a	n/a
305105	PROB	n/a	LTP231	ltpFR	13	n/a	n/a	n/a	n/a	n/a	n/a	n/a	5	3	1	1	n/a	n/a	n/a	n/a	n/a
306390	PROB	n/a	LTP231	ltpFR	13	n/a	n/a	n/a	n/a	n/a	n/a	n/a	16	6	8	2	n/a	n/a	n/a	n/a	n/a
312236	STOP	n/a	LTP231	ltpFR	13	n/a	n/a	n/a	n/a	n/a	n/a	n/a	n/a	n/a	n/a	n/a	n/a	n/a	n/a	n/a	n/a
313354	WORD	wordpools/wasnorm_wordpool_less_exclusions.txt	LTP231	ltpFR	13	2	0	NEWSSTAND	949	n/a	n/a	1	n/a	0	0	0	0.57763671875	0.412841796875	1	upper	amplitud.ttf
316366	START	n/a	LTP231	ltpFR	13	n/a	n/a	n/a	n/a	n/a	n/a	n/a	n/a	n/a	n/a	n/a	n/a	n/a	n/a	n/a	n/a
317369	PROB	n/a	LTP231	ltpFR	13	n/a	n/a	n/a	n/a	n/a	n/a	n/a	11	1	9	1	n/a	n/a	n/a	n/a	n/a
318887	PROB	n/a	LTP231	ltpFR	13	n/a	n/a	n/a	n/a	n/a	n/a	n/a	18	6	9	3	n/a	n/a	n/a	n/a	n/a
320914	PROB	n/a	LTP231	ltpFR	13	n/a	n/a	n/a	n/a	n/a	n/a	n/a	13	4	3	6	n/a	n/a	n/a	n/a	n/a
323063	STOP	n/a	LTP231	ltpFR	13	n/a	n/a	n/a	n/a	n/a	n/a	n/a	n/a	n/a	n/a	n/a	n/a	n/a	n/a	n/a	n/a
325465	WORD	wordpools/wasnorm_wordpool_less_exclusions.txt	LTP231	ltpFR	13	2	0	STALLION	1369	n/a	n/a	1	n/a	0	0	0	0.57763671875	0.412841796875	1	upper	amplitud.ttf
328477	START	n/a	LTP231	ltpFR	13	n/a	n/a	n/a	n/a	n/a	n/a	n/a	n/a	n/a	n/a	n/a	n/a	n/a	n/a	n/a	n/a
329614	PROB	n/a	LTP231	ltpFR	13	n/a	n/a	n/a	n/a	n/a	n/a	n/a	14	1	9	4	n/a	n/a	n/a	n/a	n/a
331284	PROB	n/a	LTP231	ltpFR	13	n/a	n/a	n/a	n/a	n/a	n/a	n/a	15	6	5	4	n/a	n/a	n/a	n/a	n/a
336477	STOP	n/a	LTP231	ltpFR	13	n/a	n/a	n/a	n/a	n/a	n/a	n/a	n/a	n/a	n/a	n/a	n/a	n/a	n/a	n/a	n/a
337594	WORD	wordpools/wasnorm_wordpool_less_exclusions.txt	LTP231	ltpFR	13	2	0	HAYSTACK	694	n/a	n/a	1	n/a	0	0	0	0.57763671875	0.412841796875	1	upper	amplitud.ttf
340606	START	n/a	LTP231	ltpFR	13	n/a	n/a	n/a	n/a	n/a	n/a	n/a	n/a	n/a	n/a	n/a	n/a	n/a	n/a	n/a	n/a
341706	PROB	n/a	LTP231	ltpFR	13	n/a	n/a	n/a	n/a	n/a	n/a	n/a	25	9	8	8	n/a	n/a	n/a	n/a	n/a
344972	PROB	n/a	LTP231	ltpFR	13	n/a	n/a	n/a	n/a	n/a	n/a	n/a	15	4	5	6	n/a	n/a	n/a	n/a	n/a
347110	STOP	n/a	LTP231	ltpFR	13	n/a	n/a	n/a	n/a	n/a	n/a	n/a	n/a	n/a	n/a	n/a	n/a	n/a	n/a	n/a	n/a
349489	WORD	wordpools/wasnorm_wordpool_less_exclusions.txt	LTP231	ltpFR	13	2	0	GOVERNOR	651	n/a	n/a	1	n/a	0	0	0	0.57763671875	0.412841796875	1	upper	amplitud.ttf
352501	START	n/a	LTP231	ltpFR	13	n/a	n/a	n/a	n/a	n/a	n/a	n/a	n/a	n/a	n/a	n/a	n/a	n/a	n/a	n/a	n/a
353521	PROB	n/a	LTP231	ltpFR	13	n/a	n/a	n/a	n/a	n/a	n/a	n/a	9	1	3	5	n/a	n/a	n/a	n/a	n/a
355842	PROB	n/a	LTP231	ltpFR	13	n/a	n/a	n/a	n/a	n/a	n/a	n/a	12	4	3	5	n/a	n/a	n/a	n/a	n/a
359798	STOP	n/a	LTP231	ltpFR	13	n/a	n/a	n/a	n/a	n/a	n/a	n/a	n/a	n/a	n/a	n/a	n/a	n/a	n/a	n/a	n/a
361401	WORD	wordpools/wasnorm_wordpool_less_exclusions.txt	LTP231	ltpFR	13	2	0	CREW	406	n/a	n/a	1	n/a	0	0	0	0.57763671875	0.412841796875	1	upper	amplitud.ttf
364413	START	n/a	LTP231	ltpFR	13	n/a	n/a	n/a	n/a	n/a	n/a	n/a	n/a	n/a	n/a	n/a	n/a	n/a	n/a	n/a	n/a
365499	PROB	n/a	LTP231	ltpFR	13	n/a	n/a	n/a	n/a	n/a	n/a	n/a	17	4	4	9	n/a	n/a	n/a	n/a	n/a
368711	PROB	n/a	LTP231	ltpFR	13	n/a	n/a	n/a	n/a	n/a	n/a	n/a	20	8	3	9	n/a	n/a	n/a	n/a	n/a
371751	STOP	n/a	LTP231	ltpFR	13	n/a	n/a	n/a	n/a	n/a	n/a	n/a	n/a	n/a	n/a	n/a	n/a	n/a	n/a	n/a	n/a
373596	WORD	wordpools/wasnorm_wordpool_less_exclusions.txt	LTP231	ltpFR	13	2	0	HEAD	695	n/a	n/a	0	n/a	0	0	0	0.57763671875	0.412841796875	1	upper	amplitud.ttf
376608	START	n/a	LTP231	ltpFR	13	n/a	n/a	n/a	n/a	n/a	n/a	n/a	n/a	n/a	n/a	n/a	n/a	n/a	n/a	n/a	n/a
377812	PROB	n/a	LTP231	ltpFR	13	n/a	n/a	n/a	n/a	n/a	n/a	n/a	16	8	2	6	n/a	n/a	n/a	n/a	n/a
379950	PROB	n/a	LTP231	ltpFR	13	n/a	n/a	n/a	n/a	n/a	n/a	n/a	14	3	2	9	n/a	n/a	n/a	n/a	n/a
384608	STOP	n/a	LTP231	ltpFR	13	n/a	n/a	n/a	n/a	n/a	n/a	n/a	n/a	n/a	n/a	n/a	n/a	n/a	n/a	n/a	n/a
385809	WORD	wordpools/wasnorm_wordpool_less_exclusions.txt	LTP231	ltpFR	13	2	0	DAISY	435	n/a	n/a	0	n/a	0	0	0	0.57763671875	0.412841796875	1	upper	amplitud.ttf
388821	START	n/a	LTP231	ltpFR	13	n/a	n/a	n/a	n/a	n/a	n/a	n/a	n/a	n/a	n/a	n/a	n/a	n/a	n/a	n/a	n/a
389891	PROB	n/a	LTP231	ltpFR	13	n/a	n/a	n/a	n/a	n/a	n/a	n/a	15	5	1	9	n/a	n/a	n/a	n/a	n/a
391711	PROB	n/a	LTP231	ltpFR	13	n/a	n/a	n/a	n/a	n/a	n/a	n/a	12	3	1	8	n/a	n/a	n/a	n/a	n/a
393953	PROB	n/a	LTP231	ltpFR	13	n/a	n/a	n/a	n/a	n/a	n/a	n/a	13	2	8	3	n/a	n/a	n/a	n/a	n/a
395591	STOP	n/a	LTP231	ltpFR	13	n/a	n/a	n/a	n/a	n/a	n/a	n/a	n/a	n/a	n/a	n/a	n/a	n/a	n/a	n/a	n/a
397754	WORD	wordpools/wasnorm_wordpool_less_exclusions.txt	LTP231	ltpFR	13	2	0	CROSS	413	n/a	n/a	1	n/a	0	0	0	0.57763671875	0.412841796875	1	upper	amplitud.ttf
400766	START	n/a	LTP231	ltpFR	13	n/a	n/a	n/a	n/a	n/a	n/a	n/a	n/a	n/a	n/a	n/a	n/a	n/a	n/a	n/a	n/a
401652	PROB	n/a	LTP231	ltpFR	13	n/a	n/a	n/a	n/a	n/a	n/a	n/a	6	2	1	3	n/a	n/a	n/a	n/a	n/a
403907	PROB	n/a	LTP231	ltpFR	13	n/a	n/a	n/a	n/a	n/a	n/a	n/a	21	9	5	7	n/a	n/a	n/a	n/a	n/a
406768	PROB	n/a	LTP231	ltpFR	13	n/a	n/a	n/a	n/a	n/a	n/a	n/a	10	1	3	6	n/a	n/a	n/a	n/a	n/a
408726	STOP	n/a	LTP231	ltpFR	13	n/a	n/a	n/a	n/a	n/a	n/a	n/a	n/a	n/a	n/a	n/a	n/a	n/a	n/a	n/a	n/a
409800	WORD	wordpools/wasnorm_wordpool_less_exclusions.txt	LTP231	ltpFR	13	2	0	FOLLOWER	589	n/a	n/a	1	n/a	0	0	0	0.57763671875	0.412841796875	1	upper	amplitud.ttf
412811	START	n/a	LTP231	ltpFR	13	n/a	n/a	n/a	n/a	n/a	n/a	n/a	n/a	n/a	n/a	n/a	n/a	n/a	n/a	n/a	n/a
413714	PROB	n/a	LTP231	ltpFR	13	n/a	n/a	n/a	n/a	n/a	n/a	n/a	8	1	6	1	n/a	n/a	n/a	n/a	n/a
415203	PROB	n/a	LTP231	ltpFR	13	n/a	n/a	n/a	n/a	n/a	n/a	n/a	15	4	5	6	n/a	n/a	n/a	n/a	n/a
417174	PROB	n/a	LTP231	ltpFR	13	n/a	n/a	n/a	n/a	n/a	n/a	n/a	20	9	7	4	n/a	n/a	n/a	n/a	n/a
419839	STOP	n/a	LTP231	ltpFR	13	n/a	n/a	n/a	n/a	n/a	n/a	n/a	n/a	n/a	n/a	n/a	n/a	n/a	n/a	n/a	n/a
421878	WORD	wordpools/wasnorm_wordpool_less_exclusions.txt	LTP231	ltpFR	13	2	0	CAPITAL	238	n/a	n/a	1	n/a	0	0	0	0.57763671875	0.412841796875	1	upper	amplitud.ttf
424890	START	n/a	LTP231	ltpFR	13	n/a	n/a	n/a	n/a	n/a	n/a	n/a	n/a	n/a	n/a	n/a	n/a	n/a	n/a	n/a	n/a
426061	PROB	n/a	LTP231	ltpFR	13	n/a	n/a	n/a	n/a	n/a	n/a	n/a	19	5	6	8	n/a	n/a	n/a	n/a	n/a
428554	PROB	n/a	LTP231	ltpFR	13	n/a	n/a	n/a	n/a	n/a	n/a	n/a	18	4	9	5	n/a	n/a	n/a	n/a	n/a
432879	STOP	n/a	LTP231	ltpFR	13	n/a	n/a	n/a	n/a	n/a	n/a	n/a	n/a	n/a	n/a	n/a	n/a	n/a	n/a	n/a	n/a
433840	WORD	wordpools/wasnorm_wordpool_less_exclusions.txt	LTP231	ltpFR	13	2	0	WEB	1598	n/a	n/a	0	n/a	0	0	0	0.57763671875	0.412841796875	1	upper	amplitud.ttf
436852	START	n/a	LTP231	ltpFR	13	n/a	n/a	n/a	n/a	n/a	n/a	n/a	n/a	n/a	n/a	n/a	n/a	n/a	n/a	n/a	n/a
438023	PROB	n/a	LTP231	ltpFR	13	n/a	n/a	n/a	n/a	n/a	n/a	n/a	8	2	2	4	n/a	n/a	n/a	n/a	n/a
440064	PROB	n/a	LTP231	ltpFR	13	n/a	n/a	n/a	n/a	n/a	n/a	n/a	18	7	8	3	n/a	n/a	n/a	n/a	n/a
442054	PROB	n/a	LTP231	ltpFR	13	n/a	n/a	n/a	n/a	n/a	n/a	n/a	16	5	9	2	n/a	n/a	n/a	n/a	n/a
444663	STOP	n/a	LTP231	ltpFR	13	n/a	n/a	n/a	n/a	n/a	n/a	n/a	n/a	n/a	n/a	n/a	n/a	n/a	n/a	n/a	n/a
445785	WORD	wordpools/wasnorm_wordpool_less_exclusions.txt	LTP231	ltpFR	13	2	0	CAPTAIN	239	n/a	n/a	1	n/a	0	0	0	0.57763671875	0.412841796875	1	upper	amplitud.ttf
448797	START	n/a	LTP231	ltpFR	13	n/a	n/a	n/a	n/a	n/a	n/a	n/a	n/a	n/a	n/a	n/a	n/a	n/a	n/a	n/a	n/a
449666	PROB	n/a	LTP231	ltpFR	13	n/a	n/a	n/a	n/a	n/a	n/a	n/a	15	4	7	4	n/a	n/a	n/a	n/a	n/a
452155	PROB	n/a	LTP231	ltpFR	13	n/a	n/a	n/a	n/a	n/a	n/a	n/a	20	7	5	8	n/a	n/a	n/a	n/a	n/a
454999	PROB	n/a	LTP231	ltpFR	13	n/a	n/a	n/a	n/a	n/a	n/a	n/a	15	2	8	5	n/a	n/a	n/a	n/a	n/a
456734	STOP	n/a	LTP231	ltpFR	13	n/a	n/a	n/a	n/a	n/a	n/a	n/a	n/a	n/a	n/a	n/a	n/a	n/a	n/a	n/a	n/a
458685	REC_START	n/a	LTP231	ltpFR	13	2	n/a	n/a	n/a	n/a	n/a	n/a	n/a	0	0	0	n/a	n/a	n/a	n/a	n/a
460835	REC_WORD	wordpools/wasnorm_wordpool_less_exclusions.txt	LTP231	ltpFR	13	2	0	GOVERNOR	651	n/a	n/a	1	n/a	0	0	0	n/a	n/a	n/a	n/a	n/a
546231	START	n/a	LTP231	ltpFR	13	n/a	n/a	n/a	n/a	n/a	n/a	n/a	n/a	n/a	n/a	n/a	n/a	n/a	n/a	n/a	n/a
547736	PROB	n/a	LTP231	ltpFR	13	n/a	n/a	n/a	n/a	n/a	n/a	n/a	13	9	2	2	n/a	n/a	n/a	n/a	n/a
550297	PROB	n/a	LTP231	ltpFR	13	n/a	n/a	n/a	n/a	n/a	n/a	n/a	18	7	3	8	n/a	n/a	n/a	n/a	n/a
554231	STOP	n/a	LTP231	ltpFR	13	n/a	n/a	n/a	n/a	n/a	n/a	n/a	n/a	n/a	n/a	n/a	n/a	n/a	n/a	n/a	n/a
555080	WORD	wordpools/wasnorm_wordpool_less_exclusions.txt	LTP231	ltpFR	13	3	1	LIPSTICK	829	n/a	n/a	0	n/a	0	0	0	0.422607421875	0.5869140625	0	lower	zerothre.ttf
558092	START	n/a	LTP231	ltpFR	13	n/a	n/a	n/a	n/a	n/a	n/a	n/a	n/a	n/a	n/a	n/a	n/a	n/a	n/a	n/a	n/a
559146	PROB	n/a	LTP231	ltpFR	13	n/a	n/a	n/a	n/a	n/a	n/a	n/a	11	2	1	8	n/a	n/a	n/a	n/a	n/a
560848	PROB	n/a	LTP231	ltpFR	13	n/a	n/a	n/a	n/a	n/a	n/a	n/a	11	4	3	4	n/a	n/a	n/a	n/a	n/a
564829	STOP	n/a	LTP231	ltpFR	13	n/a	n/a	n/a	n/a	n/a	n/a	n/a	n/a	n/a	n/a	n/a	n/a	n/a	n/a	n/a	n/a
567159	WORD	wordpools/wasnorm_wordpool_less_exclusions.txt	LTP231	ltpFR	13	3	1	FACE	547	n/a	n/a	2	n/a	0	0	0	0.422607421875	0.5869140625	0	lower	zerothre.ttf
568180	KEY_MSG	n/a	LTP231	ltpFR	13	3	n/a	n/a	n/a	n/a	n/a	n/a	n/a	0	0	0	n/a	n/a	n/a	n/a	n/a
570171	START	n/a	LTP231	ltpFR	13	n/a	n/a	n/a	n/a	n/a	n/a	n/a	n/a	n/a	n/a	n/a	n/a	n/a	n/a	n/a	n/a
571309	PROB	n/a	LTP231	ltpFR	13	n/a	n/a	n/a	n/a	n/a	n/a	n/a	10	1	3	6	n/a	n/a	n/a	n/a	n/a
573145	PROB	n/a	LTP231	ltpFR	13	n/a	n/a	n/a	n/a	n/a	n/a	n/a	18	8	4	6	n/a	n/a	n/a	n/a	n/a
575571	PROB	n/a	LTP231	ltpFR	13	n/a	n/a	n/a	n/a	n/a	n/a	n/a	22	7	6	9	n/a	n/a	n/a	n/a	n/a
578070	STOP	n/a	LTP231	ltpFR	13	n/a	n/a	n/a	n/a	n/a	n/a	n/a	n/a	n/a	n/a	n/a	n/a	n/a	n/a	n/a	n/a
579071	WORD	wordpools/wasnorm_wordpool_less_exclusions.txt	LTP231	ltpFR	13	3	1	LOBSTER	837	n/a	n/a	1	n/a	0	0	0	0.422607421875	0.5869140625	0	lower	zerothre.ttf
582083	START	n/a	LTP231	ltpFR	13	n/a	n/a	n/a	n/a	n/a	n/a	n/a	n/a	n/a	n/a	n/a	n/a	n/a	n/a	n/a	n/a
583186	PROB	n/a	LTP231	ltpFR	13	n/a	n/a	n/a	n/a	n/a	n/a	n/a	18	5	6	7	n/a	n/a	n/a	n/a	n/a
585792	PROB	n/a	LTP231	ltpFR	13	n/a	n/a	n/a	n/a	n/a	n/a	n/a	7	2	4	1	n/a	n/a	n/a	n/a	n/a
588967	STOP	n/a	LTP231	ltpFR	13	n/a	n/a	n/a	n/a	n/a	n/a	n/a	n/a	n/a	n/a	n/a	n/a	n/a	n/a	n/a	n/a
591083	WORD	wordpools/wasnorm_wordpool_less_exclusions.txt	LTP231	ltpFR	13	3	1	NAVIGATOR	938	n/a	n/a	1	n/a	0	0	0	0.422607421875	0.5869140625	0	lower	zerothre.ttf
594095	START	n/a	LTP231	ltpFR	13	n/a	n/a	n/a	n/a	n/a	n/a	n/a	n/a	n/a	n/a	n/a	n/a	n/a	n/a	n/a	n/a
595061	PROB	n/a	LTP231	ltpFR	13	n/a	n/a	n/a	n/a	n/a	n/a	n/a	14	5	4	5	n/a	n/a	n/a	n/a	n/a
597370	PROB	n/a	LTP231	ltpFR	13	n/a	n/a	n/a	n/a	n/a	n/a	n/a	7	3	3	1	n/a	n/a	n/a	n/a	n/a
600951	STOP	n/a	LTP231	ltpFR	13	n/a	n/a	n/a	n/a	n/a	n/a	n/a	n/a	n/a	n/a	n/a	n/a	n/a	n/a	n/a	n/a
602927	WORD	wordpools/wasnorm_wordpool_less_exclusions.txt	LTP231	ltpFR	13	3	0	POPCORN	1104	n/a	n/a	0	n/a	0	0	0	0.57763671875	0.412841796875	1	upper	amplitud.ttf
605939	START	n/a	LTP231	ltpFR	13	n/a	n/a	n/a	n/a	n/a	n/a	n/a	n/a	n/a	n/a	n/a	n/a	n/a	n/a	n/a	n/a
606989	PROB	n/a	LTP231	ltpFR	13	n/a	n/a	n/a	n/a	n/a	n/a	n/a	9	1	7	1	n/a	n/a	n/a	n/a	n/a
608465	PROB	n/a	LTP231	ltpFR	13	n/a	n/a	n/a	n/a	n/a	n/a	n/a	11	4	2	5	n/a	n/a	n/a	n/a	n/a
610991	PROB	n/a	LTP231	ltpFR	13	n/a	n/a	n/a	n/a	n/a	n/a	n/a	16	6	8	2	n/a	n/a	n/a	n/a	n/a
612799	STOP	n/a	LTP231	ltpFR	13	n/a	n/a	n/a	n/a	n/a	n/a	n/a	n/a	n/a	n/a	n/a	n/a	n/a	n/a	n/a	n/a
614956	WORD	wordpools/wasnorm_wordpool_less_exclusions.txt	LTP231	ltpFR	13	3	0	FOREST	593	n/a	n/a	1	n/a	0	0	0	0.57763671875	0.412841796875	1	upper	amplitud.ttf
617968	START	n/a	LTP231	ltpFR	13	n/a	n/a	n/a	n/a	n/a	n/a	n/a	n/a	n/a	n/a	n/a	n/a	n/a	n/a	n/a	n/a
619055	PROB	n/a	LTP231	ltpFR	13	n/a	n/a	n/a	n/a	n/a	n/a	n/a	14	1	4	9	n/a	n/a	n/a	n/a	n/a
621527	PROB	n/a	LTP231	ltpFR	13	n/a	n/a	n/a	n/a	n/a	n/a	n/a	11	1	7	3	n/a	n/a	n/a	n/a	n/a
623217	PROB	n/a	LTP231	ltpFR	13	n/a	n/a	n/a	n/a	n/a	n/a	n/a	13	3	5	5	n/a	n/a	n/a	n/a	n/a
624879	STOP	n/a	LTP231	ltpFR	13	n/a	n/a	n/a	n/a	n/a	n/a	n/a	n/a	n/a	n/a	n/a	n/a	n/a	n/a	n/a	n/a
626931	WORD	wordpools/wasnorm_wordpool_less_exclusions.txt	LTP231	ltpFR	13	3	1	BRACELET	163	n/a	n/a	0	n/a	0	0	0	0.422607421875	0.5869140625	0	lower	zerothre.ttf
629947	START	n/a	LTP231	ltpFR	13	n/a	n/a	n/a	n/a	n/a	n/a	n/a	n/a	n/a	n/a	n/a	n/a	n/a	n/a	n/a	n/a
630879	PROB	n/a	LTP231	ltpFR	13	n/a	n/a	n/a	n/a	n/a	n/a	n/a	9	3	3	3	n/a	n/a	n/a	n/a	n/a
632306	PROB	n/a	LTP231	ltpFR	13	n/a	n/a	n/a	n/a	n/a	n/a	n/a	23	5	9	9	n/a	n/a	n/a	n/a	n/a
634944	PROB	n/a	LTP231	ltpFR	13	n/a	n/a	n/a	n/a	n/a	n/a	n/a	11	2	4	5	n/a	n/a	n/a	n/a	n/a
637479	STOP	n/a	LTP231	ltpFR	13	n/a	n/a	n/a	n/a	n/a	n/a	n/a	n/a	n/a	n/a	n/a	n/a	n/a	n/a	n/a	n/a
638997	WORD	wordpools/wasnorm_wordpool_less_exclusions.txt	LTP231	ltpFR	13	3	1	CAULIFLOWER	262	n/a	n/a	1	n/a	0	0	0	0.422607421875	0.5869140625	0	lower	zerothre.ttf
642008	START	n/a	LTP231	ltpFR	13	n/a	n/a	n/a	n/a	n/a	n/a	n/a	n/a	n/a	n/a	n/a	n/a	n/a	n/a	n/a	n/a
643213	PROB	n/a	LTP231	ltpFR	13	n/a	n/a	n/a	n/a	n/a	n/a	n/a	16	9	1	6	n/a	n/a	n/a	n/a	n/a
646338	PROB	n/a	LTP231	ltpFR	13	n/a	n/a	n/a	n/a	n/a	n/a	n/a	16	9	4	3	n/a	n/a	n/a	n/a	n/a
649207	STOP	n/a	LTP231	ltpFR	13	n/a	n/a	n/a	n/a	n/a	n/a	n/a	n/a	n/a	n/a	n/a	n/a	n/a	n/a	n/a	n/a
650888	WORD	wordpools/wasnorm_wordpool_less_exclusions.txt	LTP231	ltpFR	13	3	1	ALMANAC	17	n/a	n/a	0	n/a	0	0	0	0.422607421875	0.5869140625	0	lower	zerothre.ttf
653903	START	n/a	LTP231	ltpFR	13	n/a	n/a	n/a	n/a	n/a	n/a	n/a	n/a	n/a	n/a	n/a	n/a	n/a	n/a	n/a	n/a
654806	PROB	n/a	LTP231	ltpFR	13	n/a	n/a	n/a	n/a	n/a	n/a	n/a	12	4	3	5	n/a	n/a	n/a	n/a	n/a
657417	PROB	n/a	LTP231	ltpFR	13	n/a	n/a	n/a	n/a	n/a	n/a	n/a	18	3	7	8	n/a	n/a	n/a	n/a	n/a
659136	PROB	n/a	LTP231	ltpFR	13	n/a	n/a	n/a	n/a	n/a	n/a	n/a	11	8	2	1	n/a	n/a	n/a	n/a	n/a
660623	STOP	n/a	LTP231	ltpFR	13	n/a	n/a	n/a	n/a	n/a	n/a	n/a	n/a	n/a	n/a	n/a	n/a	n/a	n/a	n/a	n/a
663104	WORD	wordpools/wasnorm_wordpool_less_exclusions.txt	LTP231	ltpFR	13	3	1	SAILOR	1223	n/a	n/a	1	n/a	0	0	0	0.422607421875	0.5869140625	0	lower	zerothre.ttf
666116	START	n/a	LTP231	ltpFR	13	n/a	n/a	n/a	n/a	n/a	n/a	n/a	n/a	n/a	n/a	n/a	n/a	n/a	n/a	n/a	n/a
667301	PROB	n/a	LTP231	ltpFR	13	n/a	n/a	n/a	n/a	n/a	n/a	n/a	21	7	5	9	n/a	n/a	n/a	n/a	n/a
669913	PROB	n/a	LTP231	ltpFR	13	n/a	n/a	n/a	n/a	n/a	n/a	n/a	18	9	2	7	n/a	n/a	n/a	n/a	n/a
674116	STOP	n/a	LTP231	ltpFR	13	n/a	n/a	n/a	n/a	n/a	n/a	n/a	n/a	n/a	n/a	n/a	n/a	n/a	n/a	n/a	n/a
675079	WORD	wordpools/wasnorm_wordpool_less_exclusions.txt	LTP231	ltpFR	13	3	0	PADDLE	1000	n/a	n/a	0	n/a	0	0	0	0.57763671875	0.412841796875	1	upper	amplitud.ttf
678095	START	n/a	LTP231	ltpFR	13	n/a	n/a	n/a	n/a	n/a	n/a	n/a	n/a	n/a	n/a	n/a	n/a	n/a	n/a	n/a	n/a
679215	PROB	n/a	LTP231	ltpFR	13	n/a	n/a	n/a	n/a	n/a	n/a	n/a	23	7	7	9	n/a	n/a	n/a	n/a	n/a
681570	PROB	n/a	LTP231	ltpFR	13	n/a	n/a	n/a	n/a	n/a	n/a	n/a	22	7	7	8	n/a	n/a	n/a	n/a	n/a
686095	STOP	n/a	LTP231	ltpFR	13	n/a	n/a	n/a	n/a	n/a	n/a	n/a	n/a	n/a	n/a	n/a	n/a	n/a	n/a	n/a	n/a
687293	WORD	wordpools/wasnorm_wordpool_less_exclusions.txt	LTP231	ltpFR	13	3	0	MARKET	871	n/a	n/a	1	n/a	0	0	0	0.57763671875	0.412841796875	1	upper	amplitud.ttf
690308	START	n/a	LTP231	ltpFR	13	n/a	n/a	n/a	n/a	n/a	n/a	n/a	n/a	n/a	n/a	n/a	n/a	n/a	n/a	n/a	n/a
691345	PROB	n/a	LTP231	ltpFR	13	n/a	n/a	n/a	n/a	n/a	n/a	n/a	5	2	1	2	n/a	n/a	n/a	n/a	n/a
692996	PROB	n/a	LTP231	ltpFR	13	n/a	n/a	n/a	n/a	n/a	n/a	n/a	21	4	9	8	n/a	n/a	n/a	n/a	n/a
697775	STOP	n/a	LTP231	ltpFR	13	n/a	n/a	n/a	n/a	n/a	n/a	n/a	n/a	n/a	n/a	n/a	n/a	n/a	n/a	n/a	n/a
699190	WORD	wordpools/wasnorm_wordpool_less_exclusions.txt	LTP231	ltpFR	13	3	0	SALMON	1227	n/a	n/a	0	n/a	0	0	0	0.57763671875	0.412841796875	1	upper	amplitud.ttf
702202	START	n/a	LTP231	ltpFR	13	n/a	n/a	n/a	n/a	n/a	n/a	n/a	n/a	n/a	n/a	n/a	n/a	n/a	n/a	n/a	n/a
703138	PROB	n/a	LTP231	ltpFR	13	n/a	n/a	n/a	n/a	n/a	n/a	n/a	20	5	8	7	n/a	n/a	n/a	n/a	n/a
705929	PROB	n/a	LTP231	ltpFR	13	n/a	n/a	n/a	n/a	n/a	n/a	n/a	13	7	5	1	n/a	n/a	n/a	n/a	n/a
710202	STOP	n/a	LTP231	ltpFR	13	n/a	n/a	n/a	n/a	n/a	n/a	n/a	n/a	n/a	n/a	n/a	n/a	n/a	n/a	n/a	n/a
711421	WORD	wordpools/wasnorm_wordpool_less_exclusions.txt	LTP231	ltpFR	13	3	0	VESSEL	1558	n/a	n/a	1	n/a	0	0	0	0.57763671875	0.412841796875	1	upper	amplitud.ttf
714432	START	n/a	LTP231	ltpFR	13	n/a	n/a	n/a	n/a	n/a	n/a	n/a	n/a	n/a	n/a	n/a	n/a	n/a	n/a	n/a	n/a
715485	PROB	n/a	LTP231	ltpFR	13	n/a	n/a	n/a	n/a	n/a	n/a	n/a	10	3	4	3	n/a	n/a	n/a	n/a	n/a
717593	PROB	n/a	LTP231	ltpFR	13	n/a	n/a	n/a	n/a	n/a	n/a	n/a	15	7	2	6	n/a	n/a	n/a	n/a	n/a
720086	PROB	n/a	LTP231	ltpFR	13	n/a	n/a	n/a	n/a	n/a	n/a	n/a	13	8	1	4	n/a	n/a	n/a	n/a	n/a
722031	STOP	n/a	LTP231	ltpFR	13	n/a	n/a	n/a	n/a	n/a	n/a	n/a	n/a	n/a	n/a	n/a	n/a	n/a	n/a	n/a	n/a
723265	WORD	wordpools/wasnorm_wordpool_less_exclusions.txt	LTP231	ltpFR	13	3	0	MARSH	874	n/a	n/a	1	n/a	0	0	0	0.57763671875	0.412841796875	1	upper	amplitud.ttf
726277	START	n/a	LTP231	ltpFR	13	n/a	n/a	n/a	n/a	n/a	n/a	n/a	n/a	n/a	n/a	n/a	n/a	n/a	n/a	n/a	n/a
727095	PROB	n/a	LTP231	ltpFR	13	n/a	n/a	n/a	n/a	n/a	n/a	n/a	15	5	2	8	n/a	n/a	n/a	n/a	n/a
728584	PROB	n/a	LTP231	ltpFR	13	n/a	n/a	n/a	n/a	n/a	n/a	n/a	16	2	7	8	n/a	n/a	n/a	n/a	n/a
734277	STOP	n/a	LTP231	ltpFR	13	n/a	n/a	n/a	n/a	n/a	n/a	n/a	n/a	n/a	n/a	n/a	n/a	n/a	n/a	n/a	n/a
735290	WORD	wordpools/wasnorm_wordpool_less_exclusions.txt	LTP231	ltpFR	13	3	0	WEED	1599	n/a	n/a	0	n/a	0	0	0	0.57763671875	0.412841796875	1	upper	amplitud.ttf
738306	START	n/a	LTP231	ltpFR	13	n/a	n/a	n/a	n/a	n/a	n/a	n/a	n/a	n/a	n/a	n/a	n/a	n/a	n/a	n/a	n/a
739224	PROB	n/a	LTP231	ltpFR	13	n/a	n/a	n/a	n/a	n/a	n/a	n/a	6	2	2	2	n/a	n/a	n/a	n/a	n/a
740643	PROB	n/a	LTP231	ltpFR	13	n/a	n/a	n/a	n/a	n/a	n/a	n/a	13	8	4	1	n/a	n/a	n/a	n/a	n/a
743002	PROB	n/a	LTP231	ltpFR	13	n/a	n/a	n/a	n/a	n/a	n/a	n/a	12	1	9	2	n/a	n/a	n/a	n/a	n/a
746306	STOP	n/a	LTP231	ltpFR	13	n/a	n/a	n/a	n/a	n/a	n/a	n/a	n/a	n/a	n/a	n/a	n/a	n/a	n/a	n/a	n/a
748188	REC_START	n/a	LTP231	ltpFR	13	3	n/a	n/a	n/a	n/a	n/a	n/a	n/a	0	0	0	n/a	n/a	n/a	n/a	n/a
749689	REC_WORD	wordpools/wasnorm_wordpool_less_exclusions.txt	LTP231	ltpFR	13	3	0	MARSH	874	n/a	n/a	1	n/a	0	0	0	n/a	n/a	n/a	n/a	n/a
757282	REC_WORD	wordpools/wasnorm_wordpool_less_exclusions.txt	LTP231	ltpFR	13	3	0	PADDLE	1000	n/a	n/a	0	n/a	0	0	0	n/a	n/a	n/a	n/a	n/a
761038	REC_WORD	wordpools/wasnorm_wordpool_less_exclusions.txt	LTP231	ltpFR	13	3	1	FACE	547	n/a	n/a	2	n/a	0	0	0	n/a	n/a	n/a	n/a	n/a
838433	WORD	wordpools/wasnorm_wordpool_less_exclusions.txt	LTP231	ltpFR	13	4	1	DETERGENT	455	n/a	n/a	0	n/a	0	0	0	0.422607421875	0.5869140625	0	lower	zerothre.ttf
842414	WORD	wordpools/wasnorm_wordpool_less_exclusions.txt	LTP231	ltpFR	13	4	1	FREEWAY	603	n/a	n/a	0	n/a	0	0	0	0.422607421875	0.5869140625	0	lower	zerothre.ttf
846596	WORD	wordpools/wasnorm_wordpool_less_exclusions.txt	LTP231	ltpFR	13	4	1	CARPENTER	246	n/a	n/a	0	n/a	0	0	0	0.422607421875	0.5869140625	0	lower	zerothre.ttf
850624	WORD	wordpools/wasnorm_wordpool_less_exclusions.txt	LTP231	ltpFR	13	4	1	ELM	527	n/a	n/a	1	n/a	0	0	0	0.422607421875	0.5869140625	0	lower	zerothre.ttf
854593	WORD	wordpools/wasnorm_wordpool_less_exclusions.txt	LTP231	ltpFR	13	4	1	FIN	566	n/a	n/a	0	n/a	0	0	0	0.422607421875	0.5869140625	0	lower	zerothre.ttf
858503	WORD	wordpools/wasnorm_wordpool_less_exclusions.txt	LTP231	ltpFR	13	4	1	PORPOISE	1109	n/a	n/a	1	n/a	0	0	0	0.422607421875	0.5869140625	0	lower	zerothre.ttf
862522	WORD	wordpools/wasnorm_wordpool_less_exclusions.txt	LTP231	ltpFR	13	4	1	PLANT	1083	n/a	n/a	1	n/a	0	0	0	0.422607421875	0.5869140625	0	lower	zerothre.ttf
866655	WORD	wordpools/wasnorm_wordpool_less_exclusions.txt	LTP231	ltpFR	13	4	1	RAISIN	1163	n/a	n/a	0	n/a	0	0	0	0.422607421875	0.5869140625	0	lower	zerothre.ttf
870503	WORD	wordpools/wasnorm_wordpool_less_exclusions.txt	LTP231	ltpFR	13	4	1	EAGLE	512	n/a	n/a	1	n/a	0	0	0	0.422607421875	0.5869140625	0	lower	zerothre.ttf
874534	WORD	wordpools/wasnorm_wordpool_less_exclusions.txt	LTP231	ltpFR	13	4	1	PENGUIN	1044	n/a	n/a	1	n/a	0	0	0	0.422607421875	0.5869140625	0	lower	zerothre.ttf
878717	WORD	wordpools/wasnorm_wordpool_less_exclusions.txt	LTP231	ltpFR	13	4	1	TRUCK	1512	n/a	n/a	0	n/a	0	0	0	0.422607421875	0.5869140625	0	lower	zerothre.ttf
882895	WORD	wordpools/wasnorm_wordpool_less_exclusions.txt	LTP231	ltpFR	13	4	1	APE	31	n/a	n/a	1	n/a	0	0	0	0.422607421875	0.5869140625	0	lower	zerothre.ttf
886797	WORD	wordpools/wasnorm_wordpool_less_exclusions.txt	LTP231	ltpFR	13	4	1	SINK	1309	n/a	n/a	0	n/a	0	0	0	0.422607421875	0.5869140625	0	lower	zerothre.ttf
890812	WORD	wordpools/wasnorm_wordpool_less_exclusions.txt	LTP231	ltpFR	13	4	1	AUTHOR	61	n/a	n/a	1	n/a	0	0	0	0.422607421875	0.5869140625	0	lower	zerothre.ttf
894761	WORD	wordpools/wasnorm_wordpool_less_exclusions.txt	LTP231	ltpFR	13	4	1	NOTEBOOK	959	n/a	n/a	0	n/a	0	0	0	0.422607421875	0.5869140625	0	lower	zerothre.ttf
898889	WORD	wordpools/wasnorm_wordpool_less_exclusions.txt	LTP231	ltpFR	13	4	1	BRANCH	168	n/a	n/a	0	n/a	0	0	0	0.422607421875	0.5869140625	0	lower	zerothre.ttf
901905	START	n/a	LTP231	ltpFR	13	n/a	n/a	n/a	n/a	n/a	n/a	n/a	n/a	n/a	n/a	n/a	n/a	n/a	n/a	n/a	n/a
902908	PROB	n/a	LTP231	ltpFR	13	n/a	n/a	n/a	n/a	n/a	n/a	n/a	15	2	4	9	n/a	n/a	n/a	n/a	n/a
905062	PROB	n/a	LTP231	ltpFR	13	n/a	n/a	n/a	n/a	n/a	n/a	n/a	14	3	6	5	n/a	n/a	n/a	n/a	n/a
907689	PROB	n/a	LTP231	ltpFR	13	n/a	n/a	n/a	n/a	n/a	n/a	n/a	14	2	4	8	n/a	n/a	n/a	n/a	n/a
909039	STOP	n/a	LTP231	ltpFR	13	n/a	n/a	n/a	n/a	n/a	n/a	n/a	n/a	n/a	n/a	n/a	n/a	n/a	n/a	n/a	n/a
911792	REC_START	n/a	LTP231	ltpFR	13	4	n/a	n/a	n/a	n/a	n/a	n/a	n/a	0	0	0	n/a	n/a	n/a	n/a	n/a
913638	REC_WORD	wordpools/wasnorm_wordpool_less_exclusions.txt	LTP231	ltpFR	13	4	1	PORPOISE	1109	n/a	n/a	1	n/a	0	0	0	n/a	n/a	n/a	n/a	n/a
915594	REC_WORD	wordpools/wasnorm_wordpool_less_exclusions.txt	LTP231	ltpFR	13	4	1	BRANCH	168	n/a	n/a	0	n/a	0	0	0	n/a	n/a	n/a	n/a	n/a
917549	REC_WORD	wordpools/wasnorm_wordpool_less_exclusions.txt	LTP231	ltpFR	13	4	1	ELM	527	n/a	n/a	1	n/a	0	0	0	n/a	n/a	n/a	n/a	n/a
919464	REC_WORD	wordpools/wasnorm_wordpool_less_exclusions.txt	LTP231	ltpFR	13	4	1	CARPENTER	246	n/a	n/a	0	n/a	0	0	0	n/a	n/a	n/a	n/a	n/a
922587	REC_WORD	wordpools/wasnorm_wordpool_less_exclusions.txt	LTP231	ltpFR	13	4	1	RAISIN	1163	n/a	n/a	0	n/a	0	0	0	n/a	n/a	n/a	n/a	n/a
979018	REC_WORD	wordpools/wasnorm_wordpool_less_exclusions.txt	LTP231	ltpFR	13	4	0	SALMON	1227	n/a	n/a	0	n/a	0	0	0	n/a	n/a	n/a	n/a	n/a
1000309	WORD	wordpools/wasnorm_wordpool_less_exclusions.txt	LTP231	ltpFR	13	5	1	SILK	1307	n/a	n/a	0	n/a	0	0	0	0.422607421875	0.5869140625	0	lower	zerothre.ttf
1004254	WORD	wordpools/wasnorm_wordpool_less_exclusions.txt	LTP231	ltpFR	13	5	1	PLATE	1086	n/a	n/a	0	n/a	0	0	0	0.422607421875	0.5869140625	0	lower	zerothre.ttf
1008369	WORD	wordpools/wasnorm_wordpool_less_exclusions.txt	LTP231	ltpFR	13	5	0	MINER	896	n/a	n/a	1	n/a	0	0	0	0.57763671875	0.412841796875	1	upper	amplitud.ttf
1012488	WORD	wordpools/wasnorm_wordpool_less_exclusions.txt	LTP231	ltpFR	13	5	0	SPARROW	1347	n/a	n/a	0	n/a	0	0	0	0.57763671875	0.412841796875	1	upper	amplitud.ttf
1016503	WORD	wordpools/wasnorm_wordpool_less_exclusions.txt	LTP231	ltpFR	13	5	0	LACE	792	n/a	n/a	0	n/a	0	0	0	0.57763671875	0.412841796875	1	upper	amplitud.ttf
1020535	WORD	wordpools/wasnorm_wordpool_less_exclusions.txt	LTP231	ltpFR	13	5	1	FAMILY	550	n/a	n/a	0	n/a	0	0	0	0.422607421875	0.5869140625	0	lower	zerothre.ttf
1024513	WORD	wordpools/wasnorm_wordpool_less_exclusions.txt	LTP231	ltpFR	13	5	1	SIBLING	1301	n/a	n/a	1	n/a	0	0	0	0.422607421875	0.5869140625	0	lower	zerothre.ttf
1028649	WORD	wordpools/wasnorm_wordpool_less_exclusions.txt	LTP231	ltpFR	13	5	1	QUEEN	1149	n/a	n/a	1	n/a	0	0	0	0.422607421875	0.5869140625	0	lower	zerothre.ttf
1032647	WORD	wordpools/wasnorm_wordpool_less_exclusions.txt	LTP231	ltpFR	13	5	1	CASTLE	256	n/a	n/a	0	n/a	0	0	0	0.422607421875	0.5869140625	0	lower	zerothre.ttf
1036662	WORD	wordpools/wasnorm_wordpool_less_exclusions.txt	LTP231	ltpFR	13	5	1	MAGNET	855	n/a	n/a	0	n/a	0	0	0	0.422607421875	0.5869140625	0	lower	zerothre.ttf
1040623	WORD	wordpools/wasnorm_wordpool_less_exclusions.txt	LTP231	ltpFR	13	5	1	PIGEON	1065	n/a	n/a	1	n/a	0	0	0	0.422607421875	0.5869140625	0	lower	zerothre.ttf
1044609	WORD	wordpools/wasnorm_wordpool_less_exclusions.txt	LTP231	ltpFR	13	5	0	SOAP	1337	n/a	n/a	0	n/a	0	0	0	0.57763671875	0.412841796875	1	upper	amplitud.ttf
1048808	WORD	wordpools/wasnorm_wordpool_less_exclusions.txt	LTP231	ltpFR	13	5	0	COLOGNE	347	n/a	n/a	0	n/a	0	0	0	0.57763671875	0.412841796875	1	upper	amplitud.ttf
1052722	WORD	wordpools/wasnorm_wordpool_less_exclusions.txt	LTP231	ltpFR	13	5	0	TIGER	1467	n/a	n/a	1	n/a	0	0	0	0.57763671875	0.412841796875	1	upper	amplitud.ttf
1056717	WORD	wordpools/wasnorm_wordpool_less_exclusions.txt	LTP231	ltpFR	13	5	0	DISH	474	n/a	n/a	0	n/a	0	0	0	0.57763671875	0.412841796875	1	upper	amplitud.ttf
1060636	WORD	wordpools/wasnorm_wordpool_less_exclusions.txt	LTP231	ltpFR	13	5	0	DAM	436	n/a	n/a	0	n/a	0	0	0	0.57763671875	0.412841796875	1	upper	amplitud.ttf
1066376	REC_START	n/a	LTP231	ltpFR	13	5	n/a	n/a	n/a	n/a	n/a	n/a	n/a	0	0	0	n/a	n/a	n/a	n/a	n/a
1068147	REC_WORD	wordpools/wasnorm_wordpool_less_exclusions.txt	LTP231	ltpFR	13	5	0	DAM	436	n/a	n/a	0	n/a	0	0	0	n/a	n/a	n/a	n/a	n/a
1069204	REC_WORD	wordpools/wasnorm_wordpool_less_exclusions.txt	LTP231	ltpFR	13	5	0	DISH	474	n/a	n/a	0	n/a	0	0	0	n/a	n/a	n/a	n/a	n/a
1071583	REC_WORD	wordpools/wasnorm_wordpool_less_exclusions.txt	LTP231	ltpFR	13	5	0	SPARROW	1347	n/a	n/a	0	n/a	0	0	0	n/a	n/a	n/a	n/a	n/a
1073714	REC_WORD	wordpools/wasnorm_wordpool_less_exclusions.txt	LTP231	ltpFR	13	5	0	COLOGNE	347	n/a	n/a	0	n/a	0	0	0	n/a	n/a	n/a	n/a	n/a
1075065	REC_WORD	wordpools/wasnorm_wordpool_less_exclusions.txt	LTP231	ltpFR	13	5	0	SOAP	1337	n/a	n/a	0	n/a	0	0	0	n/a	n/a	n/a	n/a	n/a
1077056	REC_WORD	wordpools/wasnorm_wordpool_less_exclusions.txt	LTP231	ltpFR	13	5	0	MINER	896	n/a	n/a	1	n/a	0	0	0	n/a	n/a	n/a	n/a	n/a
1081476	REC_WORD_VV	wordpools/wasnorm_wordpool_less_exclusions.txt	LTP231	ltpFR	13	5	n/a	<>	-1	n/a	n/a	n/a	n/a	0	0	0	n/a	n/a	n/a	n/a	n/a
1082476	REC_WORD_VV	wordpools/wasnorm_wordpool_less_exclusions.txt	LTP231	ltpFR	13	5	n/a	<>	-1	n/a	n/a	n/a	n/a	0	0	0	n/a	n/a	n/a	n/a	n/a
1145067	START	n/a	LTP231	ltpFR	13	n/a	n/a	n/a	n/a	n/a	n/a	n/a	n/a	n/a	n/a	n/a	n/a	n/a	n/a	n/a	n/a
1146576	PROB	n/a	LTP231	ltpFR	13	n/a	n/a	n/a	n/a	n/a	n/a	n/a	23	7	9	7	n/a	n/a	n/a	n/a	n/a
1148747	PROB	n/a	LTP231	ltpFR	13	n/a	n/a	n/a	n/a	n/a	n/a	n/a	8	1	3	4	n/a	n/a	n/a	n/a	n/a
1150943	PROB	n/a	LTP231	ltpFR	13	n/a	n/a	n/a	n/a	n/a	n/a	n/a	13	2	2	9	n/a	n/a	n/a	n/a	n/a
1152947	PROB	n/a	LTP231	ltpFR	13	n/a	n/a	n/a	n/a	n/a	n/a	n/a	13	2	9	2	n/a	n/a	n/a	n/a	n/a
1155021	PROB	n/a	LTP231	ltpFR	13	n/a	n/a	n/a	n/a	n/a	n/a	n/a	19	9	3	7	n/a	n/a	n/a	n/a	n/a
1157314	PROB	n/a	LTP231	ltpFR	13	n/a	n/a	n/a	n/a	n/a	n/a	n/a	13	3	4	6	n/a	n/a	n/a	n/a	n/a
1159607	STOP	n/a	LTP231	ltpFR	13	n/a	n/a	n/a	n/a	n/a	n/a	n/a	n/a	n/a	n/a	n/a	n/a	n/a	n/a	n/a	n/a
1162235	WORD	wordpools/wasnorm_wordpool_less_exclusions.txt	LTP231	ltpFR	13	6	1	EGG	518	n/a	n/a	0	n/a	0	0	0	0.422607421875	0.5869140625	0	lower	zerothre.ttf
1165248	START	n/a	LTP231	ltpFR	13	n/a	n/a	n/a	n/a	n/a	n/a	n/a	n/a	n/a	n/a	n/a	n/a	n/a	n/a	n/a	n/a
1166167	PROB	n/a	LTP231	ltpFR	13	n/a	n/a	n/a	n/a	n/a	n/a	n/a	15	4	3	8	n/a	n/a	n/a	n/a	n/a
1168272	PROB	n/a	LTP231	ltpFR	13	n/a	n/a	n/a	n/a	n/a	n/a	n/a	18	6	6	6	n/a	n/a	n/a	n/a	n/a
1171684	PROB	n/a	LTP231	ltpFR	13	n/a	n/a	n/a	n/a	n/a	n/a	n/a	25	8	9	8	n/a	n/a	n/a	n/a	n/a
1175147	PROB	n/a	LTP231	ltpFR	13	n/a	n/a	n/a	n/a	n/a	n/a	n/a	20	8	8	4	n/a	n/a	n/a	n/a	n/a
1177727	PROB	n/a	LTP231	ltpFR	13	n/a	n/a	n/a	n/a	n/a	n/a	n/a	10	2	7	1	n/a	n/a	n/a	n/a	n/a
1179703	STOP	n/a	LTP231	ltpFR	13	n/a	n/a	n/a	n/a	n/a	n/a	n/a	n/a	n/a	n/a	n/a	n/a	n/a	n/a	n/a	n/a
1182379	WORD	wordpools/wasnorm_wordpool_less_exclusions.txt	LTP231	ltpFR	13	6	1	SQUIRREL	1362	n/a	n/a	1	n/a	0	0	0	0.422607421875	0.5869140625	0	lower	zerothre.ttf
1185391	START	n/a	LTP231	ltpFR	13	n/a	n/a	n/a	n/a	n/a	n/a	n/a	n/a	n/a	n/a	n/a	n/a	n/a	n/a	n/a	n/a
1186560	PROB	n/a	LTP231	ltpFR	13	n/a	n/a	n/a	n/a	n/a	n/a	n/a	13	7	2	4	n/a	n/a	n/a	n/a	n/a
1189368	PROB	n/a	LTP231	ltpFR	13	n/a	n/a	n/a	n/a	n/a	n/a	n/a	16	4	6	6	n/a	n/a	n/a	n/a	n/a
1194105	PROB	n/a	LTP231	ltpFR	13	n/a	n/a	n/a	n/a	n/a	n/a	n/a	21	6	8	7	n/a	n/a	n/a	n/a	n/a
1199959	STOP	n/a	LTP231	ltpFR	13	n/a	n/a	n/a	n/a	n/a	n/a	n/a	n/a	n/a	n/a	n/a	n/a	n/a	n/a	n/a	n/a
1202271	WORD	wordpools/wasnorm_wordpool_less_exclusions.txt	LTP231	ltpFR	13	6	0	SHEET	1279	n/a	n/a	0	n/a	0	0	0	0.57763671875	0.412841796875	1	upper	amplitud.ttf
1205282	START	n/a	LTP231	ltpFR	13	n/a	n/a	n/a	n/a	n/a	n/a	n/a	n/a	n/a	n/a	n/a	n/a	n/a	n/a	n/a	n/a
1206469	PROB	n/a	LTP231	ltpFR	13	n/a	n/a	n/a	n/a	n/a	n/a	n/a	16	8	1	7	n/a	n/a	n/a	n/a	n/a
1209025	PROB	n/a	LTP231	ltpFR	13	n/a	n/a	n/a	n/a	n/a	n/a	n/a	18	5	7	6	n/a	n/a	n/a	n/a	n/a
1211688	PROB	n/a	LTP231	ltpFR	13	n/a	n/a	n/a	n/a	n/a	n/a	n/a	12	9	1	2	n/a	n/a	n/a	n/a	n/a
1213562	PROB	n/a	LTP231	ltpFR	13	n/a	n/a	n/a	n/a	n/a	n/a	n/a	12	4	3	5	n/a	n/a	n/a	n/a	n/a
1217138	PROB	n/a	LTP231	ltpFR	13	n/a	n/a	n/a	n/a	n/a	n/a	n/a	14	3	5	6	n/a	n/a	n/a	n/a	n/a
1220815	STOP	n/a	LTP231	ltpFR	13	n/a	n/a	n/a	n/a	n/a	n/a	n/a	n/a	n/a	n/a	n/a	n/a	n/a	n/a	n/a	n/a
1222446	WORD	wordpools/wasnorm_wordpool_less_exclusions.txt	LTP231	ltpFR	13	6	0	GARAGE	621	n/a	n/a	1	n/a	0	0	0	0.57763671875	0.412841796875	1	upper	amplitud.ttf
1225458	START	n/a	LTP231	ltpFR	13	n/a	n/a	n/a	n/a	n/a	n/a	n/a	n/a	n/a	n/a	n/a	n/a	n/a	n/a	n/a	n/a
1226645	PROB	n/a	LTP231	ltpFR	13	n/a	n/a	n/a	n/a	n/a	n/a	n/a	11	5	5	1	n/a	n/a	n/a	n/a	n/a
1228252	PROB	n/a	LTP231	ltpFR	13	n/a	n/a	n/a	n/a	n/a	n/a	n/a	9	3	1	5	n/a	n/a	n/a	n/a	n/a
1230306	PROB	n/a	LTP231	ltpFR	13	n/a	n/a	n/a	n/a	n/a	n/a	n/a	10	1	5	4	n/a	n/a	n/a	n/a	n/a
1232317	PROB	n/a	LTP231	ltpFR	13	n/a	n/a	n/a	n/a	n/a	n/a	n/a	10	2	2	6	n/a	n/a	n/a	n/a	n/a
1234438	PROB	n/a	LTP231	ltpFR	13	n/a	n/a	n/a	n/a	n/a	n/a	n/a	19	8	7	4	n/a	n/a	n/a	n/a	n/a
1237064	PROB	n/a	LTP231	ltpFR	13	n/a	n/a	n/a	n/a	n/a	n/a	n/a	12	9	2	1	n/a	n/a	n/a	n/a	n/a
1238837	PROB	n/a	LTP231	ltpFR	13	n/a	n/a	n/a	n/a	n/a	n/a	n/a	20	9	2	9	n/a	n/a	n/a	n/a	n/a
1241344	STOP	n/a	LTP231	ltpFR	13	n/a	n/a	n/a	n/a	n/a	n/a	n/a	n/a	n/a	n/a	n/a	n/a	n/a	n/a	n/a	n/a
1242438	WORD	wordpools/wasnorm_wordpool_less_exclusions.txt	LTP231	ltpFR	13	6	0	CHICK	296	n/a	n/a	0	n/a	0	0	0	0.57763671875	0.412841796875	1	upper	amplitud.ttf
1245451	START	n/a	LTP231	ltpFR	13	n/a	n/a	n/a	n/a	n/a	n/a	n/a	n/a	n/a	n/a	n/a	n/a	n/a	n/a	n/a	n/a
1246633	PROB	n/a	LTP231	ltpFR	13	n/a	n/a	n/a	n/a	n/a	n/a	n/a	19	6	6	7	n/a	n/a	n/a	n/a	n/a
1249611	PROB	n/a	LTP231	ltpFR	13	n/a	n/a	n/a	n/a	n/a	n/a	n/a	22	8	7	7	n/a	n/a	n/a	n/a	n/a
1253011	PROB	n/a	LTP231	ltpFR	13	n/a	n/a	n/a	n/a	n/a	n/a	n/a	18	7	3	8	n/a	n/a	n/a	n/a	n/a
1255219	PROB	n/a	LTP231	ltpFR	13	n/a	n/a	n/a	n/a	n/a	n/a	n/a	24	6	9	9	n/a	n/a	n/a	n/a	n/a
1258243	PROB	n/a	LTP231	ltpFR	13	n/a	n/a	n/a	n/a	n/a	n/a	n/a	14	6	1	7	n/a	n/a	n/a	n/a	n/a
1260352	STOP	n/a	LTP231	ltpFR	13	n/a	n/a	n/a	n/a	n/a	n/a	n/a	n/a	n/a	n/a	n/a	n/a	n/a	n/a	n/a	n/a
1262496	WORD	wordpools/wasnorm_wordpool_less_exclusions.txt	LTP231	ltpFR	13	6	1	LAGOON	795	n/a	n/a	0	n/a	0	0	0	0.422607421875	0.5869140625	0	lower	zerothre.ttf
1265508	START	n/a	LTP231	ltpFR	13	n/a	n/a	n/a	n/a	n/a	n/a	n/a	n/a	n/a	n/a	n/a	n/a	n/a	n/a	n/a	n/a
1266625	PROB	n/a	LTP231	ltpFR	13	n/a	n/a	n/a	n/a	n/a	n/a	n/a	9	1	2	6	n/a	n/a	n/a	n/a	n/a
1268532	PROB	n/a	LTP231	ltpFR	13	n/a	n/a	n/a	n/a	n/a	n/a	n/a	11	5	1	5	n/a	n/a	n/a	n/a	n/a
1270323	PROB	n/a	LTP231	ltpFR	13	n/a	n/a	n/a	n/a	n/a	n/a	n/a	19	2	9	8	n/a	n/a	n/a	n/a	n/a
1272318	PROB	n/a	LTP231	ltpFR	13	n/a	n/a	n/a	n/a	n/a	n/a	n/a	16	5	6	5	n/a	n/a	n/a	n/a	n/a
1275626	PROB	n/a	LTP231	ltpFR	13	n/a	n/a	n/a	n/a	n/a	n/a	n/a	14	4	8	2	n/a	n/a	n/a	n/a	n/a
1277466	PROB	n/a	LTP231	ltpFR	13	n/a	n/a	n/a	n/a	n/a	n/a	n/a	19	9	8	2	n/a	n/a	n/a	n/a	n/a
1279072	PROB	n/a	LTP231	ltpFR	13	n/a	n/a	n/a	n/a	n/a	n/a	n/a	13	3	6	4	n/a	n/a	n/a	n/a	n/a
1280767	STOP	n/a	LTP231	ltpFR	13	n/a	n/a	n/a	n/a	n/a	n/a	n/a	n/a	n/a	n/a	n/a	n/a	n/a	n/a	n/a	n/a
1282472	WORD	wordpools/wasnorm_wordpool_less_exclusions.txt	LTP231	ltpFR	13	6	1	WHALE	1601	n/a	n/a	1	n/a	0	0	0	0.422607421875	0.5869140625	0	lower	zerothre.ttf
1285484	START	n/a	LTP231	ltpFR	13	n/a	n/a	n/a	n/a	n/a	n/a	n/a	n/a	n/a	n/a	n/a	n/a	n/a	n/a	n/a	n/a
1286688	PROB	n/a	LTP231	ltpFR	13	n/a	n/a	n/a	n/a	n/a	n/a	n/a	8	2	5	1	n/a	n/a	n/a	n/a	n/a
1288946	PROB	n/a	LTP231	ltpFR	13	n/a	n/a	n/a	n/a	n/a	n/a	n/a	18	3	9	6	n/a	n/a	n/a	n/a	n/a
1291987	PROB	n/a	LTP231	ltpFR	13	n/a	n/a	n/a	n/a	n/a	n/a	n/a	24	9	8	7	n/a	n/a	n/a	n/a	n/a
1295233	PROB	n/a	LTP231	ltpFR	13	n/a	n/a	n/a	n/a	n/a	n/a	n/a	15	6	7	2	n/a	n/a	n/a	n/a	n/a
1297512	PROB	n/a	LTP231	ltpFR	13	n/a	n/a	n/a	n/a	n/a	n/a	n/a	10	6	3	1	n/a	n/a	n/a	n/a	n/a
1301484	STOP	n/a	LTP231	ltpFR	13	n/a	n/a	n/a	n/a	n/a	n/a	n/a	n/a	n/a	n/a	n/a	n/a	n/a	n/a	n/a	n/a
1302698	WORD	wordpools/wasnorm_wordpool_less_exclusions.txt	LTP231	ltpFR	13	6	1	MOUSE	925	n/a	n/a	1	n/a	0	0	0	0.422607421875	0.5869140625	0	lower	zerothre.ttf
1305710	START	n/a	LTP231	ltpFR	13	n/a	n/a	n/a	n/a	n/a	n/a	n/a	n/a	n/a	n/a	n/a	n/a	n/a	n/a	n/a	n/a
1306646	PROB	n/a	LTP231	ltpFR	13	n/a	n/a	n/a	n/a	n/a	n/a	n/a	11	2	8	1	n/a	n/a	n/a	n/a	n/a
1308250	PROB	n/a	LTP231	ltpFR	13	n/a	n/a	n/a	n/a	n/a	n/a	n/a	9	5	1	3	n/a	n/a	n/a	n/a	n/a
1310291	PROB	n/a	LTP231	ltpFR	13	n/a	n/a	n/a	n/a	n/a	n/a	n/a	21	9	6	6	n/a	n/a	n/a	n/a	n/a
1312335	PROB	n/a	LTP231	ltpFR	13	n/a	n/a	n/a	n/a	n/a	n/a	n/a	11	3	5	3	n/a	n/a	n/a	n/a	n/a
1316864	PROB	n/a	LTP231	ltpFR	13	n/a	n/a	n/a	n/a	n/a	n/a	n/a	9	3	1	5	n/a	n/a	n/a	n/a	n/a
1318725	PROB	n/a	LTP231	ltpFR	13	n/a	n/a	n/a	n/a	n/a	n/a	n/a	17	6	4	7	n/a	n/a	n/a	n/a	n/a
1320663	STOP	n/a	LTP231	ltpFR	13	n/a	n/a	n/a	n/a	n/a	n/a	n/a	n/a	n/a	n/a	n/a	n/a	n/a	n/a	n/a	n/a
1322690	WORD	wordpools/wasnorm_wordpool_less_exclusions.txt	LTP231	ltpFR	13	6	0	PANTHER	1009	n/a	n/a	1	n/a	0	0	0	0.57763671875	0.412841796875	1	upper	amplitud.ttf
1325702	START	n/a	LTP231	ltpFR	13	n/a	n/a	n/a	n/a	n/a	n/a	n/a	n/a	n/a	n/a	n/a	n/a	n/a	n/a	n/a	n/a
1326571	PROB	n/a	LTP231	ltpFR	13	n/a	n/a	n/a	n/a	n/a	n/a	n/a	12	5	2	5	n/a	n/a	n/a	n/a	n/a
1327977	PROB	n/a	LTP231	ltpFR	13	n/a	n/a	n/a	n/a	n/a	n/a	n/a	11	8	2	1	n/a	n/a	n/a	n/a	n/a
1329362	PROB	n/a	LTP231	ltpFR	13	n/a	n/a	n/a	n/a	n/a	n/a	n/a	17	7	3	7	n/a	n/a	n/a	n/a	n/a
1330901	PROB	n/a	LTP231	ltpFR	13	n/a	n/a	n/a	n/a	n/a	n/a	n/a	11	6	3	2	n/a	n/a	n/a	n/a	n/a
1333243	PROB	n/a	LTP231	ltpFR	13	n/a	n/a	n/a	n/a	n/a	n/a	n/a	12	4	6	2	n/a	n/a	n/a	n/a	n/a
1334735	PROB	n/a	LTP231	ltpFR	13	n/a	n/a	n/a	n/a	n/a	n/a	n/a	18	6	3	9	n/a	n/a	n/a	n/a	n/a
1336538	PROB	n/a	LTP231	ltpFR	13	n/a	n/a	n/a	n/a	n/a	n/a	n/a	16	8	6	2	n/a	n/a	n/a	n/a	n/a
1338717	PROB	n/a	LTP231	ltpFR	13	n/a	n/a	n/a	n/a	n/a	n/a	n/a	15	9	5	1	n/a	n/a	n/a	n/a	n/a
1340959	STOP	n/a	LTP231	ltpFR	13	n/a	n/a	n/a	n/a	n/a	n/a	n/a	n/a	n/a	n/a	n/a	n/a	n/a	n/a	n/a	n/a
1342795	WORD	wordpools/wasnorm_wordpool_less_exclusions.txt	LTP231	ltpFR	13	6	0	COLUMN	350	n/a	n/a	0	n/a	0	0	0	0.57763671875	0.412841796875	1	upper	amplitud.ttf
1345811	START	n/a	LTP231	ltpFR	13	n/a	n/a	n/a	n/a	n/a	n/a	n/a	n/a	n/a	n/a	n/a	n/a	n/a	n/a	n/a	n/a
1346660	PROB	n/a	LTP231	ltpFR	13	n/a	n/a	n/a	n/a	n/a	n/a	n/a	22	7	9	6	n/a	n/a	n/a	n/a	n/a
1349236	PROB	n/a	LTP231	ltpFR	13	n/a	n/a	n/a	n/a	n/a	n/a	n/a	9	6	1	2	n/a	n/a	n/a	n/a	n/a
1351093	PROB	n/a	LTP231	ltpFR	13	n/a	n/a	n/a	n/a	n/a	n/a	n/a	12	2	3	7	n/a	n/a	n/a	n/a	n/a
1353620	PROB	n/a	LTP231	ltpFR	13	n/a	n/a	n/a	n/a	n/a	n/a	n/a	19	4	8	7	n/a	n/a	n/a	n/a	n/a
1357170	PROB	n/a	LTP231	ltpFR	13	n/a	n/a	n/a	n/a	n/a	n/a	n/a	10	5	3	2	n/a	n/a	n/a	n/a	n/a
1359312	PROB	n/a	LTP231	ltpFR	13	n/a	n/a	n/a	n/a	n/a	n/a	n/a	20	8	6	6	n/a	n/a	n/a	n/a	n/a
1361199	STOP	n/a	LTP231	ltpFR	13	n/a	n/a	n/a	n/a	n/a	n/a	n/a	n/a	n/a	n/a	n/a	n/a	n/a	n/a	n/a	n/a
1362787	WORD	wordpools/wasnorm_wordpool_less_exclusions.txt	LTP231	ltpFR	13	6	0	HAM	678	n/a	n/a	1	n/a	0	0	0	0.57763671875	0.412841796875	1	upper	amplitud.ttf
1365803	START	n/a	LTP231	ltpFR	13	n/a	n/a	n/a	n/a	n/a	n/a	n/a	n/a	n/a	n/a	n/a	n/a	n/a	n/a	n/a	n/a
1366940	PROB	n/a	LTP231	ltpFR	13	n/a	n/a	n/a	n/a	n/a	n/a	n/a	20	9	5	6	n/a	n/a	n/a	n/a	n/a
1368877	PROB	n/a	LTP231	ltpFR	13	n/a	n/a	n/a	n/a	n/a	n/a	n/a	14	1	7	6	n/a	n/a	n/a	n/a	n/a
1371052	PROB	n/a	LTP231	ltpFR	13	n/a	n/a	n/a	n/a	n/a	n/a	n/a	17	9	4	4	n/a	n/a	n/a	n/a	n/a
1374498	PROB	n/a	LTP231	ltpFR	13	n/a	n/a	n/a	n/a	n/a	n/a	n/a	24	7	9	8	n/a	n/a	n/a	n/a	n/a
1380215	STOP	n/a	LTP231	ltpFR	13	n/a	n/a	n/a	n/a	n/a	n/a	n/a	n/a	n/a	n/a	n/a	n/a	n/a	n/a	n/a	n/a
1382980	WORD	wordpools/wasnorm_wordpool_less_exclusions.txt	LTP231	ltpFR	13	6	0	SAUSAGE	1238	n/a	n/a	0	n/a	0	0	0	0.57763671875	0.412841796875	1	upper	amplitud.ttf
1385996	START	n/a	LTP231	ltpFR	13	n/a	n/a	n/a	n/a	n/a	n/a	n/a	n/a	n/a	n/a	n/a	n/a	n/a	n/a	n/a	n/a
1386945	PROB	n/a	LTP231	ltpFR	13	n/a	n/a	n/a	n/a	n/a	n/a	n/a	10	7	1	2	n/a	n/a	n/a	n/a	n/a
1388651	PROB	n/a	LTP231	ltpFR	13	n/a	n/a	n/a	n/a	n/a	n/a	n/a	17	6	3	8	n/a	n/a	n/a	n/a	n/a
1390977	PROB	n/a	LTP231	ltpFR	13	n/a	n/a	n/a	n/a	n/a	n/a	n/a	13	8	2	3	n/a	n/a	n/a	n/a	n/a
1392800	PROB	n/a	LTP231	ltpFR	13	n/a	n/a	n/a	n/a	n/a	n/a	n/a	18	9	8	1	n/a	n/a	n/a	n/a	n/a
1394561	PROB	n/a	LTP231	ltpFR	13	n/a	n/a	n/a	n/a	n/a	n/a	n/a	16	7	6	3	n/a	n/a	n/a	n/a	n/a
1396514	PROB	n/a	LTP231	ltpFR	13	n/a	n/a	n/a	n/a	n/a	n/a	n/a	23	6	8	9	n/a	n/a	n/a	n/a	n/a
1401996	STOP	n/a	LTP231	ltpFR	13	n/a	n/a	n/a	n/a	n/a	n/a	n/a	n/a	n/a	n/a	n/a	n/a	n/a	n/a	n/a	n/a
1403009	WORD	wordpools/wasnorm_wordpool_less_exclusions.txt	LTP231	ltpFR	13	6	0	BOAT	144	n/a	n/a	1	n/a	0	0	0	0.57763671875	0.412841796875	1	upper	amplitud.ttf
1406021	START	n/a	LTP231	ltpFR	13	n/a	n/a	n/a	n/a	n/a	n/a	n/a	n/a	n/a	n/a	n/a	n/a	n/a	n/a	n/a	n/a
1407205	PROB	n/a	LTP231	ltpFR	13	n/a	n/a	n/a	n/a	n/a	n/a	n/a	12	2	2	8	n/a	n/a	n/a	n/a	n/a
1408526	PROB	n/a	LTP231	ltpFR	13	n/a	n/a	n/a	n/a	n/a	n/a	n/a	11	5	2	4	n/a	n/a	n/a	n/a	n/a
1410969	PROB	n/a	LTP231	ltpFR	13	n/a	n/a	n/a	n/a	n/a	n/a	n/a	13	6	3	4	n/a	n/a	n/a	n/a	n/a
1413198	PROB	n/a	LTP231	ltpFR	13	n/a	n/a	n/a	n/a	n/a	n/a	n/a	18	6	7	5	n/a	n/a	n/a	n/a	n/a
1416222	PROB	n/a	LTP231	ltpFR	13	n/a	n/a	n/a	n/a	n/a	n/a	n/a	10	1	7	2	n/a	n/a	n/a	n/a	n/a
1417828	PROB	n/a	LTP231	ltpFR	13	n/a	n/a	n/a	n/a	n/a	n/a	n/a	15	5	8	2	n/a	n/a	n/a	n/a	n/a
1419116	PROB	n/a	LTP231	ltpFR	13	n/a	n/a	n/a	n/a	n/a	n/a	n/a	14	1	9	4	n/a	n/a	n/a	n/a	n/a
1420583	STOP	n/a	LTP231	ltpFR	13	n/a	n/a	n/a	n/a	n/a	n/a	n/a	n/a	n/a	n/a	n/a	n/a	n/a	n/a	n/a	n/a
1422918	WORD	wordpools/wasnorm_wordpool_less_exclusions.txt	LTP231	ltpFR	13	6	1	KANGAROO	768	n/a	n/a	1	n/a	0	0	0	0.422607421875	0.5869140625	0	lower	zerothre.ttf
1425930	START	n/a	LTP231	ltpFR	13	n/a	n/a	n/a	n/a	n/a	n/a	n/a	n/a	n/a	n/a	n/a	n/a	n/a	n/a	n/a	n/a
1426816	PROB	n/a	LTP231	ltpFR	13	n/a	n/a	n/a	n/a	n/a	n/a	n/a	10	2	7	1	n/a	n/a	n/a	n/a	n/a
1428419	PROB	n/a	LTP231	ltpFR	13	n/a	n/a	n/a	n/a	n/a	n/a	n/a	24	9	7	8	n/a	n/a	n/a	n/a	n/a
1433788	PROB	n/a	LTP231	ltpFR	13	n/a	n/a	n/a	n/a	n/a	n/a	n/a	10	2	5	3	n/a	n/a	n/a	n/a	n/a
1435833	PROB	n/a	LTP231	ltpFR	13	n/a	n/a	n/a	n/a	n/a	n/a	n/a	15	7	3	5	n/a	n/a	n/a	n/a	n/a
1437403	PROB	n/a	LTP231	ltpFR	13	n/a	n/a	n/a	n/a	n/a	n/a	n/a	18	2	9	7	n/a	n/a	n/a	n/a	n/a
1439460	PROB	n/a	LTP231	ltpFR	13	n/a	n/a	n/a	n/a	n/a	n/a	n/a	11	3	2	6	n/a	n/a	n/a	n/a	n/a
1441535	STOP	n/a	LTP231	ltpFR	13	n/a	n/a	n/a	n/a	n/a	n/a	n/a	n/a	n/a	n/a	n/a	n/a	n/a	n/a	n/a	n/a
1442926	WORD	wordpools/wasnorm_wordpool_less_exclusions.txt	LTP231	ltpFR	13	6	1	WAGON	1578	n/a	n/a	2	n/a	0	0	0	0.422607421875	0.5869140625	0	lower	zerothre.ttf
1444466	KEY_MSG	n/a	LTP231	ltpFR	13	6	n/a	n/a	n/a	n/a	n/a	n/a	n/a	0	0	0	n/a	n/a	n/a	n/a	n/a
1445989	START	n/a	LTP231	ltpFR	13	n/a	n/a	n/a	n/a	n/a	n/a	n/a	n/a	n/a	n/a	n/a	n/a	n/a	n/a	n/a	n/a
1447176	PROB	n/a	LTP231	ltpFR	13	n/a	n/a	n/a	n/a	n/a	n/a	n/a	18	6	5	7	n/a	n/a	n/a	n/a	n/a
1449464	PROB	n/a	LTP231	ltpFR	13	n/a	n/a	n/a	n/a	n/a	n/a	n/a	15	4	6	5	n/a	n/a	n/a	n/a	n/a
1451509	PROB	n/a	LTP231	ltpFR	13	n/a	n/a	n/a	n/a	n/a	n/a	n/a	20	3	9	8	n/a	n/a	n/a	n/a	n/a
1454065	PROB	n/a	LTP231	ltpFR	13	n/a	n/a	n/a	n/a	n/a	n/a	n/a	14	8	5	1	n/a	n/a	n/a	n/a	n/a
1456524	PROB	n/a	LTP231	ltpFR	13	n/a	n/a	n/a	n/a	n/a	n/a	n/a	10	5	3	2	n/a	n/a	n/a	n/a	n/a
1458883	PROB	n/a	LTP231	ltpFR	13	n/a	n/a	n/a	n/a	n/a	n/a	n/a	9	4	1	4	n/a	n/a	n/a	n/a	n/a
1460679	STOP	n/a	LTP231	ltpFR	13	n/a	n/a	n/a	n/a	n/a	n/a	n/a	n/a	n/a	n/a	n/a	n/a	n/a	n/a	n/a	n/a
1463182	WORD	wordpools/wasnorm_wordpool_less_exclusions.txt	LTP231	ltpFR	13	6	1	SHOP	1290	n/a	n/a	0	n/a	0	0	0	0.422607421875	0.5869140625	0	lower	zerothre.ttf
1466198	START	n/a	LTP231	ltpFR	13	n/a	n/a	n/a	n/a	n/a	n/a	n/a	n/a	n/a	n/a	n/a	n/a	n/a	n/a	n/a	n/a
1467185	PROB	n/a	LTP231	ltpFR	13	n/a	n/a	n/a	n/a	n/a	n/a	n/a	18	7	2	9	n/a	n/a	n/a	n/a	n/a
1469407	PROB	n/a	LTP231	ltpFR	13	n/a	n/a	n/a	n/a	n/a	n/a	n/a	10	6	3	1	n/a	n/a	n/a	n/a	n/a
1471179	PROB	n/a	LTP231	ltpFR	13	n/a	n/a	n/a	n/a	n/a	n/a	n/a	7	1	4	2	n/a	n/a	n/a	n/a	n/a
1476232	PROB	n/a	LTP231	ltpFR	13	n/a	n/a	n/a	n/a	n/a	n/a	n/a	9	6	1	2	n/a	n/a	n/a	n/a	n/a
1478457	PROB	n/a	LTP231	ltpFR	13	n/a	n/a	n/a	n/a	n/a	n/a	n/a	10	1	4	5	n/a	n/a	n/a	n/a	n/a
1482183	STOP	n/a	LTP231	ltpFR	13	n/a	n/a	n/a	n/a	n/a	n/a	n/a	n/a	n/a	n/a	n/a	n/a	n/a	n/a	n/a	n/a
1484079	REC_START	n/a	LTP231	ltpFR	13	6	n/a	n/a	n/a	n/a	n/a	n/a	n/a	0	0	0	n/a	n/a	n/a	n/a	n/a
1486294	REC_WORD	wordpools/wasnorm_wordpool_less_exclusions.txt	LTP231	ltpFR	13	6	1	SHOP	1290	n/a	n/a	0	n/a	0	0	0	n/a	n/a	n/a	n/a	n/a
1496570	REC_WORD	wordpools/wasnorm_wordpool_less_exclusions.txt	LTP231	ltpFR	13	6	1	KANGAROO	768	n/a	n/a	1	n/a	0	0	0	n/a	n/a	n/a	n/a	n/a
1575840	WORD	wordpools/wasnorm_wordpool_less_exclusions.txt	LTP231	ltpFR	13	7	0	POLYESTER	1100	n/a	n/a	0	n/a	0	0	0	0.57763671875	0.412841796875	1	upper	amplitud.ttf
1579876	WORD	wordpools/wasnorm_wordpool_less_exclusions.txt	LTP231	ltpFR	13	7	0	HAMPER	682	n/a	n/a	1	n/a	0	0	0	0.57763671875	0.412841796875	1	upper	amplitud.ttf
1583988	WORD	wordpools/wasnorm_wordpool_less_exclusions.txt	LTP231	ltpFR	13	7	0	HEATER	698	n/a	n/a	1	n/a	0	0	0	0.57763671875	0.412841796875	1	upper	amplitud.ttf
1587906	WORD	wordpools/wasnorm_wordpool_less_exclusions.txt	LTP231	ltpFR	13	7	0	BUSH	202	n/a	n/a	1	n/a	0	0	0	0.57763671875	0.412841796875	1	upper	amplitud.ttf
1592055	WORD	wordpools/wasnorm_wordpool_less_exclusions.txt	LTP231	ltpFR	13	7	0	SALT	1229	n/a	n/a	0	n/a	0	0	0	0.57763671875	0.412841796875	1	upper	amplitud.ttf
1596238	WORD	wordpools/wasnorm_wordpool_less_exclusions.txt	LTP231	ltpFR	13	7	0	BANQUET	86	n/a	n/a	1	n/a	0	0	0	0.57763671875	0.412841796875	1	upper	amplitud.ttf
1600136	WORD	wordpools/wasnorm_wordpool_less_exclusions.txt	LTP231	ltpFR	13	7	0	COAT	333	n/a	n/a	0	n/a	0	0	0	0.57763671875	0.412841796875	1	upper	amplitud.ttf
1604214	WORD	wordpools/wasnorm_wordpool_less_exclusions.txt	LTP231	ltpFR	13	7	0	LIMOUSINE	824	n/a	n/a	1	n/a	0	0	0	0.57763671875	0.412841796875	1	upper	amplitud.ttf
1608351	WORD	wordpools/wasnorm_wordpool_less_exclusions.txt	LTP231	ltpFR	13	7	0	TOMATO	1476	n/a	n/a	0	n/a	0	0	0	0.57763671875	0.412841796875	1	upper	amplitud.ttf
1612366	WORD	wordpools/wasnorm_wordpool_less_exclusions.txt	LTP231	ltpFR	13	7	0	CAP	236	n/a	n/a	0	n/a	0	0	0	0.57763671875	0.412841796875	1	upper	amplitud.ttf
1616277	WORD	wordpools/wasnorm_wordpool_less_exclusions.txt	LTP231	ltpFR	13	7	0	COUNTRY	388	n/a	n/a	1	n/a	0	0	0	0.57763671875	0.412841796875	1	upper	amplitud.ttf
1620396	WORD	wordpools/wasnorm_wordpool_less_exclusions.txt	LTP231	ltpFR	13	7	0	BUS	201	n/a	n/a	1	n/a	0	0	0	0.57763671875	0.412841796875	1	upper	amplitud.ttf
1624424	WORD	wordpools/wasnorm_wordpool_less_exclusions.txt	LTP231	ltpFR	13	7	0	RADIO	1157	n/a	n/a	1	n/a	0	0	0	0.57763671875	0.412841796875	1	upper	amplitud.ttf
1628393	WORD	wordpools/wasnorm_wordpool_less_exclusions.txt	LTP231	ltpFR	13	7	0	CABLE	213	n/a	n/a	0	n/a	0	0	0	0.57763671875	0.412841796875	1	upper	amplitud.ttf
1632240	WORD	wordpools/wasnorm_wordpool_less_exclusions.txt	LTP231	ltpFR	13	7	0	CABINET	212	n/a	n/a	1	n/a	0	0	0	0.57763671875	0.412841796875	1	upper	amplitud.ttf
1636188	WORD	wordpools/wasnorm_wordpool_less_exclusions.txt	LTP231	ltpFR	13	7	0	LID	817	n/a	n/a	0	n/a	0	0	0	0.57763671875	0.412841796875	1	upper	amplitud.ttf
1639200	START	n/a	LTP231	ltpFR	13	n/a	n/a	n/a	n/a	n/a	n/a	n/a	n/a	n/a	n/a	n/a	n/a	n/a	n/a	n/a	n/a
1640288	PROB	n/a	LTP231	ltpFR	13	n/a	n/a	n/a	n/a	n/a	n/a	n/a	12	9	2	1	n/a	n/a	n/a	n/a	n/a
1642426	PROB	n/a	LTP231	ltpFR	13	n/a	n/a	n/a	n/a	n/a	n/a	n/a	16	3	9	4	n/a	n/a	n/a	n/a	n/a
1646456	PROB	n/a	LTP231	ltpFR	13	n/a	n/a	n/a	n/a	n/a	n/a	n/a	13	3	6	4	n/a	n/a	n/a	n/a	n/a
1648598	PROB	n/a	LTP231	ltpFR	13	n/a	n/a	n/a	n/a	n/a	n/a	n/a	15	8	6	1	n/a	n/a	n/a	n/a	n/a
1650840	PROB	n/a	LTP231	ltpFR	13	n/a	n/a	n/a	n/a	n/a	n/a	n/a	19	9	5	5	n/a	n/a	n/a	n/a	n/a
1652413	PROB	n/a	LTP231	ltpFR	13	n/a	n/a	n/a	n/a	n/a	n/a	n/a	10	4	2	4	n/a	n/a	n/a	n/a	n/a
1654871	STOP	n/a	LTP231	ltpFR	13	n/a	n/a	n/a	n/a	n/a	n/a	n/a	n/a	n/a	n/a	n/a	n/a	n/a	n/a	n/a	n/a
1657102	REC_START	n/a	LTP231	ltpFR	13	7	n/a	n/a	n/a	n/a	n/a	n/a	n/a	0	0	0	n/a	n/a	n/a	n/a	n/a
1658099	REC_WORD	wordpools/wasnorm_wordpool_less_exclusions.txt	LTP231	ltpFR	13	7	0	LIMOUSINE	824	n/a	n/a	1	n/a	0	0	0	n/a	n/a	n/a	n/a	n/a
1659431	REC_WORD	wordpools/wasnorm_wordpool_less_exclusions.txt	LTP231	ltpFR	13	7	0	LID	817	n/a	n/a	0	n/a	0	0	0	n/a	n/a	n/a	n/a	n/a
1660833	REC_WORD	wordpools/wasnorm_wordpool_less_exclusions.txt	LTP231	ltpFR	13	7	0	CABLE	213	n/a	n/a	0	n/a	0	0	0	n/a	n/a	n/a	n/a	n/a
1662345	REC_WORD	wordpools/wasnorm_wordpool_less_exclusions.txt	LTP231	ltpFR	13	7	0	RADIO	1157	n/a	n/a	1	n/a	0	0	0	n/a	n/a	n/a	n/a	n/a
1739762	WORD	wordpools/wasnorm_wordpool_less_exclusions.txt	LTP231	ltpFR	13	8	0	KNOB	787	n/a	n/a	0	n/a	0	0	0	0.57763671875	0.412841796875	1	upper	amplitud.ttf
1743743	WORD	wordpools/wasnorm_wordpool_less_exclusions.txt	LTP231	ltpFR	13	8	0	ASSISTANT	48	n/a	n/a	1	n/a	0	0	0	0.57763671875	0.412841796875	1	upper	amplitud.ttf
1747839	WORD	wordpools/wasnorm_wordpool_less_exclusions.txt	LTP231	ltpFR	13	8	0	TAPE	1433	n/a	n/a	0	n/a	0	0	0	0.57763671875	0.412841796875	1	upper	amplitud.ttf
1751673	WORD	wordpools/wasnorm_wordpool_less_exclusions.txt	LTP231	ltpFR	13	8	0	CONDUCTOR	362	n/a	n/a	1	n/a	0	0	0	0.57763671875	0.412841796875	1	upper	amplitud.ttf
1755584	WORD	wordpools/wasnorm_wordpool_less_exclusions.txt	LTP231	ltpFR	13	8	0	LUMBER	848	n/a	n/a	1	n/a	0	0	0	0.57763671875	0.412841796875	1	upper	amplitud.ttf
1759486	WORD	wordpools/wasnorm_wordpool_less_exclusions.txt	LTP231	ltpFR	13	8	1	SUBURB	1399	n/a	n/a	0	n/a	0	0	0	0.422607421875	0.5869140625	0	lower	zerothre.ttf
1763631	WORD	wordpools/wasnorm_wordpool_less_exclusions.txt	LTP231	ltpFR	13	8	1	TOWN	1491	n/a	n/a	0	n/a	0	0	0	0.422607421875	0.5869140625	0	lower	zerothre.ttf
1767784	WORD	wordpools/wasnorm_wordpool_less_exclusions.txt	LTP231	ltpFR	13	8	1	MINK	897	n/a	n/a	1	n/a	0	0	0	0.422607421875	0.5869140625	0	lower	zerothre.ttf
1771833	WORD	wordpools/wasnorm_wordpool_less_exclusions.txt	LTP231	ltpFR	13	8	0	BOYFRIEND	162	n/a	n/a	1	n/a	0	0	0	0.57763671875	0.412841796875	1	upper	amplitud.ttf
1775664	WORD	wordpools/wasnorm_wordpool_less_exclusions.txt	LTP231	ltpFR	13	8	0	FIREPLACE	570	n/a	n/a	1	n/a	0	0	0	0.57763671875	0.412841796875	1	upper	amplitud.ttf
1779779	WORD	wordpools/wasnorm_wordpool_less_exclusions.txt	LTP231	ltpFR	13	8	0	OTTER	986	n/a	n/a	0	n/a	0	0	0	0.57763671875	0.412841796875	1	upper	amplitud.ttf
1783657	WORD	wordpools/wasnorm_wordpool_less_exclusions.txt	LTP231	ltpFR	13	8	1	TURKEY	1520	n/a	n/a	1	n/a	0	0	0	0.422607421875	0.5869140625	0	lower	zerothre.ttf
1787860	WORD	wordpools/wasnorm_wordpool_less_exclusions.txt	LTP231	ltpFR	13	8	1	BATHTUB	100	n/a	n/a	0	n/a	0	0	0	0.422607421875	0.5869140625	0	lower	zerothre.ttf
1792009	WORD	wordpools/wasnorm_wordpool_less_exclusions.txt	LTP231	ltpFR	13	8	1	CHISEL	305	n/a	n/a	0	n/a	0	0	0	0.422607421875	0.5869140625	0	lower	zerothre.ttf
1796057	WORD	wordpools/wasnorm_wordpool_less_exclusions.txt	LTP231	ltpFR	13	8	1	TOE	1473	n/a	n/a	0	n/a	0	0	0	0.422607421875	0.5869140625	0	lower	zerothre.ttf
1799955	WORD	wordpools/wasnorm_wordpool_less_exclusions.txt	LTP231	ltpFR	13	8	1	VOLUNTEER	1577	n/a	n/a	1	n/a	0	0	0	0.422607421875	0.5869140625	0	lower	zerothre.ttf
1802967	START	n/a	LTP231	ltpFR	13	n/a	n/a	n/a	n/a	n/a	n/a	n/a	n/a	n/a	n/a	n/a	n/a	n/a	n/a	n/a	n/a
1803937	PROB	n/a	LTP231	ltpFR	13	n/a	n/a	n/a	n/a	n/a	n/a	n/a	5	1	3	1	n/a	n/a	n/a	n/a	n/a
1805757	PROB	n/a	LTP231	ltpFR	13	n/a	n/a	n/a	n/a	n/a	n/a	n/a	19	9	2	8	n/a	n/a	n/a	n/a	n/a
1807534	PROB	n/a	LTP231	ltpFR	13	n/a	n/a	n/a	n/a	n/a	n/a	n/a	11	6	2	3	n/a	n/a	n/a	n/a	n/a
1809807	STOP	n/a	LTP231	ltpFR	13	n/a	n/a	n/a	n/a	n/a	n/a	n/a	n/a	n/a	n/a	n/a	n/a	n/a	n/a	n/a	n/a
1812888	REC_START	n/a	LTP231	ltpFR	13	8	n/a	n/a	n/a	n/a	n/a	n/a	n/a	0	0	0	n/a	n/a	n/a	n/a	n/a
1813975	REC_WORD	wordpools/wasnorm_wordpool_less_exclusions.txt	LTP231	ltpFR	13	8	1	VOLUNTEER	1577	n/a	n/a	1	n/a	0	0	0	n/a	n/a	n/a	n/a	n/a
1815701	REC_WORD	wordpools/wasnorm_wordpool_less_exclusions.txt	LTP231	ltpFR	13	8	1	CHISEL	305	n/a	n/a	0	n/a	0	0	0	n/a	n/a	n/a	n/a	n/a
1820271	REC_WORD	wordpools/wasnorm_wordpool_less_exclusions.txt	LTP231	ltpFR	13	8	1	TURKEY	1520	n/a	n/a	1	n/a	0	0	0	n/a	n/a	n/a	n/a	n/a
1821149	REC_WORD	wordpools/wasnorm_wordpool_less_exclusions.txt	LTP231	ltpFR	13	8	0	OTTER	986	n/a	n/a	0	n/a	0	0	0	n/a	n/a	n/a	n/a	n/a
1902676	START	n/a	LTP231	ltpFR	13	n/a	n/a	n/a	n/a	n/a	n/a	n/a	n/a	n/a	n/a	n/a	n/a	n/a	n/a	n/a	n/a
1904181	PROB	n/a	LTP231	ltpFR	13	n/a	n/a	n/a	n/a	n/a	n/a	n/a	13	2	7	4	n/a	n/a	n/a	n/a	n/a
1910676	STOP	n/a	LTP231	ltpFR	13	n/a	n/a	n/a	n/a	n/a	n/a	n/a	n/a	n/a	n/a	n/a	n/a	n/a	n/a	n/a	n/a
1911727	WORD	wordpools/wasnorm_wordpool_less_exclusions.txt	LTP231	ltpFR	13	9	0	PICNIC	1060	n/a	n/a	0	n/a	0	0	0	0.57763671875	0.412841796875	1	upper	amplitud.ttf
1914739	START	n/a	LTP231	ltpFR	13	n/a	n/a	n/a	n/a	n/a	n/a	n/a	n/a	n/a	n/a	n/a	n/a	n/a	n/a	n/a	n/a
1915558	PROB	n/a	LTP231	ltpFR	13	n/a	n/a	n/a	n/a	n/a	n/a	n/a	18	8	2	8	n/a	n/a	n/a	n/a	n/a
1917210	PROB	n/a	LTP231	ltpFR	13	n/a	n/a	n/a	n/a	n/a	n/a	n/a	11	2	1	8	n/a	n/a	n/a	n/a	n/a
1922739	STOP	n/a	LTP231	ltpFR	13	n/a	n/a	n/a	n/a	n/a	n/a	n/a	n/a	n/a	n/a	n/a	n/a	n/a	n/a	n/a	n/a
1923818	WORD	wordpools/wasnorm_wordpool_less_exclusions.txt	LTP231	ltpFR	13	9	0	SCOTCH	1251	n/a	n/a	0	n/a	0	0	0	0.57763671875	0.412841796875	1	upper	amplitud.ttf
1926834	START	n/a	LTP231	ltpFR	13	n/a	n/a	n/a	n/a	n/a	n/a	n/a	n/a	n/a	n/a	n/a	n/a	n/a	n/a	n/a	n/a
1927854	PROB	n/a	LTP231	ltpFR	13	n/a	n/a	n/a	n/a	n/a	n/a	n/a	12	3	1	8	n/a	n/a	n/a	n/a	n/a
1929995	PROB	n/a	LTP231	ltpFR	13	n/a	n/a	n/a	n/a	n/a	n/a	n/a	17	4	4	9	n/a	n/a	n/a	n/a	n/a
1932200	PROB	n/a	LTP231	ltpFR	13	n/a	n/a	n/a	n/a	n/a	n/a	n/a	10	1	1	8	n/a	n/a	n/a	n/a	n/a
1934023	STOP	n/a	LTP231	ltpFR	13	n/a	n/a	n/a	n/a	n/a	n/a	n/a	n/a	n/a	n/a	n/a	n/a	n/a	n/a	n/a	n/a
1935700	WORD	wordpools/wasnorm_wordpool_less_exclusions.txt	LTP231	ltpFR	13	9	0	DANDRUFF	439	n/a	n/a	0	n/a	0	0	0	0.57763671875	0.412841796875	1	upper	amplitud.ttf
1938712	START	n/a	LTP231	ltpFR	13	n/a	n/a	n/a	n/a	n/a	n/a	n/a	n/a	n/a	n/a	n/a	n/a	n/a	n/a	n/a	n/a
1939829	PROB	n/a	LTP231	ltpFR	13	n/a	n/a	n/a	n/a	n/a	n/a	n/a	18	2	7	9	n/a	n/a	n/a	n/a	n/a
1942306	PROB	n/a	LTP231	ltpFR	13	n/a	n/a	n/a	n/a	n/a	n/a	n/a	17	6	5	6	n/a	n/a	n/a	n/a	n/a
1946711	STOP	n/a	LTP231	ltpFR	13	n/a	n/a	n/a	n/a	n/a	n/a	n/a	n/a	n/a	n/a	n/a	n/a	n/a	n/a	n/a	n/a
1947695	WORD	wordpools/wasnorm_wordpool_less_exclusions.txt	LTP231	ltpFR	13	9	0	MICROWAVE	892	n/a	n/a	0	n/a	0	0	0	0.57763671875	0.412841796875	1	upper	amplitud.ttf
1950708	START	n/a	LTP231	ltpFR	13	n/a	n/a	n/a	n/a	n/a	n/a	n/a	n/a	n/a	n/a	n/a	n/a	n/a	n/a	n/a	n/a
1951794	PROB	n/a	LTP231	ltpFR	13	n/a	n/a	n/a	n/a	n/a	n/a	n/a	12	8	1	3	n/a	n/a	n/a	n/a	n/a
1954555	PROB	n/a	LTP231	ltpFR	13	n/a	n/a	n/a	n/a	n/a	n/a	n/a	11	5	4	2	n/a	n/a	n/a	n/a	n/a
1958708	STOP	n/a	LTP231	ltpFR	13	n/a	n/a	n/a	n/a	n/a	n/a	n/a	n/a	n/a	n/a	n/a	n/a	n/a	n/a	n/a	n/a
1959687	WORD	wordpools/wasnorm_wordpool_less_exclusions.txt	LTP231	ltpFR	13	9	0	SNAKE	1333	n/a	n/a	0	n/a	0	0	0	0.57763671875	0.412841796875	1	upper	amplitud.ttf
1962703	START	n/a	LTP231	ltpFR	13	n/a	n/a	n/a	n/a	n/a	n/a	n/a	n/a	n/a	n/a	n/a	n/a	n/a	n/a	n/a	n/a
1963739	PROB	n/a	LTP231	ltpFR	13	n/a	n/a	n/a	n/a	n/a	n/a	n/a	19	5	5	9	n/a	n/a	n/a	n/a	n/a
1965526	PROB	n/a	LTP231	ltpFR	13	n/a	n/a	n/a	n/a	n/a	n/a	n/a	19	2	9	8	n/a	n/a	n/a	n/a	n/a
1967350	PROB	n/a	LTP231	ltpFR	13	n/a	n/a	n/a	n/a	n/a	n/a	n/a	22	9	7	6	n/a	n/a	n/a	n/a	n/a
1970031	STOP	n/a	LTP231	ltpFR	13	n/a	n/a	n/a	n/a	n/a	n/a	n/a	n/a	n/a	n/a	n/a	n/a	n/a	n/a	n/a	n/a
1971552	WORD	wordpools/wasnorm_wordpool_less_exclusions.txt	LTP231	ltpFR	13	9	0	CORN	381	n/a	n/a	0	n/a	0	0	0	0.57763671875	0.412841796875	1	upper	amplitud.ttf
1974564	START	n/a	LTP231	ltpFR	13	n/a	n/a	n/a	n/a	n/a	n/a	n/a	n/a	n/a	n/a	n/a	n/a	n/a	n/a	n/a	n/a
1975567	PROB	n/a	LTP231	ltpFR	13	n/a	n/a	n/a	n/a	n/a	n/a	n/a	20	3	9	8	n/a	n/a	n/a	n/a	n/a
1982564	STOP	n/a	LTP231	ltpFR	13	n/a	n/a	n/a	n/a	n/a	n/a	n/a	n/a	n/a	n/a	n/a	n/a	n/a	n/a	n/a	n/a
1983411	WORD	wordpools/wasnorm_wordpool_less_exclusions.txt	LTP231	ltpFR	13	9	0	SNACK	1331	n/a	n/a	0	n/a	0	0	0	0.57763671875	0.412841796875	1	upper	amplitud.ttf
1986426	START	n/a	LTP231	ltpFR	13	n/a	n/a	n/a	n/a	n/a	n/a	n/a	n/a	n/a	n/a	n/a	n/a	n/a	n/a	n/a	n/a
1987629	PROB	n/a	LTP231	ltpFR	13	n/a	n/a	n/a	n/a	n/a	n/a	n/a	19	7	3	9	n/a	n/a	n/a	n/a	n/a
1989834	PROB	n/a	LTP231	ltpFR	13	n/a	n/a	n/a	n/a	n/a	n/a	n/a	9	3	3	3	n/a	n/a	n/a	n/a	n/a
1991324	PROB	n/a	LTP231	ltpFR	13	n/a	n/a	n/a	n/a	n/a	n/a	n/a	18	8	7	3	n/a	n/a	n/a	n/a	n/a
1993215	STOP	n/a	LTP231	ltpFR	13	n/a	n/a	n/a	n/a	n/a	n/a	n/a	n/a	n/a	n/a	n/a	n/a	n/a	n/a	n/a	n/a
1995459	WORD	wordpools/wasnorm_wordpool_less_exclusions.txt	LTP231	ltpFR	13	9	0	SHORTCAKE	1292	n/a	n/a	0	n/a	0	0	0	0.57763671875	0.412841796875	1	upper	amplitud.ttf
1998471	START	n/a	LTP231	ltpFR	13	n/a	n/a	n/a	n/a	n/a	n/a	n/a	n/a	n/a	n/a	n/a	n/a	n/a	n/a	n/a	n/a
1999304	PROB	n/a	LTP231	ltpFR	13	n/a	n/a	n/a	n/a	n/a	n/a	n/a	21	7	5	9	n/a	n/a	n/a	n/a	n/a
2002234	PROB	n/a	LTP231	ltpFR	13	n/a	n/a	n/a	n/a	n/a	n/a	n/a	16	7	6	3	n/a	n/a	n/a	n/a	n/a
2005927	STOP	n/a	LTP231	ltpFR	13	n/a	n/a	n/a	n/a	n/a	n/a	n/a	n/a	n/a	n/a	n/a	n/a	n/a	n/a	n/a	n/a
2007471	WORD	wordpools/wasnorm_wordpool_less_exclusions.txt	LTP231	ltpFR	13	9	0	VEGETABLE	1552	n/a	n/a	0	n/a	0	0	0	0.57763671875	0.412841796875	1	upper	amplitud.ttf
2010483	START	n/a	LTP231	ltpFR	13	n/a	n/a	n/a	n/a	n/a	n/a	n/a	n/a	n/a	n/a	n/a	n/a	n/a	n/a	n/a	n/a
2011687	PROB	n/a	LTP231	ltpFR	13	n/a	n/a	n/a	n/a	n/a	n/a	n/a	12	4	4	4	n/a	n/a	n/a	n/a	n/a
2014514	PROB	n/a	LTP231	ltpFR	13	n/a	n/a	n/a	n/a	n/a	n/a	n/a	23	8	8	7	n/a	n/a	n/a	n/a	n/a
2017079	STOP	n/a	LTP231	ltpFR	13	n/a	n/a	n/a	n/a	n/a	n/a	n/a	n/a	n/a	n/a	n/a	n/a	n/a	n/a	n/a	n/a
2019350	WORD	wordpools/wasnorm_wordpool_less_exclusions.txt	LTP231	ltpFR	13	9	0	LOUNGE	845	n/a	n/a	1	n/a	0	0	0	0.57763671875	0.412841796875	1	upper	amplitud.ttf
2022362	START	n/a	LTP231	ltpFR	13	n/a	n/a	n/a	n/a	n/a	n/a	n/a	n/a	n/a	n/a	n/a	n/a	n/a	n/a	n/a	n/a
2023548	PROB	n/a	LTP231	ltpFR	13	n/a	n/a	n/a	n/a	n/a	n/a	n/a	14	5	6	3	n/a	n/a	n/a	n/a	n/a
2026121	PROB	n/a	LTP231	ltpFR	13	n/a	n/a	n/a	n/a	n/a	n/a	n/a	23	8	7	8	n/a	n/a	n/a	n/a	n/a
2028999	STOP	n/a	LTP231	ltpFR	13	n/a	n/a	n/a	n/a	n/a	n/a	n/a	n/a	n/a	n/a	n/a	n/a	n/a	n/a	n/a	n/a
2031210	WORD	wordpools/wasnorm_wordpool_less_exclusions.txt	LTP231	ltpFR	13	9	0	PUBLISHER	1137	n/a	n/a	1	n/a	0	0	0	0.57763671875	0.412841796875	1	upper	amplitud.ttf
2034222	START	n/a	LTP231	ltpFR	13	n/a	n/a	n/a	n/a	n/a	n/a	n/a	n/a	n/a	n/a	n/a	n/a	n/a	n/a	n/a	n/a
2035427	PROB	n/a	LTP231	ltpFR	13	n/a	n/a	n/a	n/a	n/a	n/a	n/a	26	8	9	9	n/a	n/a	n/a	n/a	n/a
2038789	PROB	n/a	LTP231	ltpFR	13	n/a	n/a	n/a	n/a	n/a	n/a	n/a	7	3	3	1	n/a	n/a	n/a	n/a	n/a
2040935	STOP	n/a	LTP231	ltpFR	13	n/a	n/a	n/a	n/a	n/a	n/a	n/a	n/a	n/a	n/a	n/a	n/a	n/a	n/a	n/a	n/a
2043155	WORD	wordpools/wasnorm_wordpool_less_exclusions.txt	LTP231	ltpFR	13	9	0	SCRIBBLE	1256	n/a	n/a	0	n/a	0	0	0	0.57763671875	0.412841796875	1	upper	amplitud.ttf
2046167	START	n/a	LTP231	ltpFR	13	n/a	n/a	n/a	n/a	n/a	n/a	n/a	n/a	n/a	n/a	n/a	n/a	n/a	n/a	n/a	n/a
2047204	PROB	n/a	LTP231	ltpFR	13	n/a	n/a	n/a	n/a	n/a	n/a	n/a	17	4	7	6	n/a	n/a	n/a	n/a	n/a
2049643	PROB	n/a	LTP231	ltpFR	13	n/a	n/a	n/a	n/a	n/a	n/a	n/a	11	3	2	6	n/a	n/a	n/a	n/a	n/a
2054167	STOP	n/a	LTP231	ltpFR	13	n/a	n/a	n/a	n/a	n/a	n/a	n/a	n/a	n/a	n/a	n/a	n/a	n/a	n/a	n/a	n/a
2055083	WORD	wordpools/wasnorm_wordpool_less_exclusions.txt	LTP231	ltpFR	13	9	0	MUSTARD	935	n/a	n/a	0	n/a	0	0	0	0.57763671875	0.412841796875	1	upper	amplitud.ttf
2058095	START	n/a	LTP231	ltpFR	13	n/a	n/a	n/a	n/a	n/a	n/a	n/a	n/a	n/a	n/a	n/a	n/a	n/a	n/a	n/a	n/a
2059182	PROB	n/a	LTP231	ltpFR	13	n/a	n/a	n/a	n/a	n/a	n/a	n/a	13	1	5	7	n/a	n/a	n/a	n/a	n/a
2061721	PROB	n/a	LTP231	ltpFR	13	n/a	n/a	n/a	n/a	n/a	n/a	n/a	13	1	6	6	n/a	n/a	n/a	n/a	n/a
2066095	STOP	n/a	LTP231	ltpFR	13	n/a	n/a	n/a	n/a	n/a	n/a	n/a	n/a	n/a	n/a	n/a	n/a	n/a	n/a	n/a	n/a
2067162	WORD	wordpools/wasnorm_wordpool_less_exclusions.txt	LTP231	ltpFR	13	9	0	FOOTBALL	591	n/a	n/a	0	n/a	0	0	0	0.57763671875	0.412841796875	1	upper	amplitud.ttf
2070174	START	n/a	LTP231	ltpFR	13	n/a	n/a	n/a	n/a	n/a	n/a	n/a	n/a	n/a	n/a	n/a	n/a	n/a	n/a	n/a	n/a
2071262	PROB	n/a	LTP231	ltpFR	13	n/a	n/a	n/a	n/a	n/a	n/a	n/a	6	1	2	3	n/a	n/a	n/a	n/a	n/a
2073433	PROB	n/a	LTP231	ltpFR	13	n/a	n/a	n/a	n/a	n/a	n/a	n/a	12	4	4	4	n/a	n/a	n/a	n/a	n/a
2075088	PROB	n/a	LTP231	ltpFR	13	n/a	n/a	n/a	n/a	n/a	n/a	n/a	22	9	9	3	n/a	n/a	n/a	n/a	n/a
2078039	STOP	n/a	LTP231	ltpFR	13	n/a	n/a	n/a	n/a	n/a	n/a	n/a	n/a	n/a	n/a	n/a	n/a	n/a	n/a	n/a	n/a
2079393	WORD	wordpools/wasnorm_wordpool_less_exclusions.txt	LTP231	ltpFR	13	9	0	CHEERLEADER	288	n/a	n/a	1	n/a	0	0	0	0.57763671875	0.412841796875	1	upper	amplitud.ttf
2082405	START	n/a	LTP231	ltpFR	13	n/a	n/a	n/a	n/a	n/a	n/a	n/a	n/a	n/a	n/a	n/a	n/a	n/a	n/a	n/a	n/a
2083257	PROB	n/a	LTP231	ltpFR	13	n/a	n/a	n/a	n/a	n/a	n/a	n/a	13	5	2	6	n/a	n/a	n/a	n/a	n/a
2086365	PROB	n/a	LTP231	ltpFR	13	n/a	n/a	n/a	n/a	n/a	n/a	n/a	11	5	3	3	n/a	n/a	n/a	n/a	n/a
2089991	STOP	n/a	LTP231	ltpFR	13	n/a	n/a	n/a	n/a	n/a	n/a	n/a	n/a	n/a	n/a	n/a	n/a	n/a	n/a	n/a	n/a
2091454	WORD	wordpools/wasnorm_wordpool_less_exclusions.txt	LTP231	ltpFR	13	9	0	TRACTOR	1493	n/a	n/a	1	n/a	0	0	0	0.57763671875	0.412841796875	1	upper	amplitud.ttf
2094465	START	n/a	LTP231	ltpFR	13	n/a	n/a	n/a	n/a	n/a	n/a	n/a	n/a	n/a	n/a	n/a	n/a	n/a	n/a	n/a	n/a
2095519	PROB	n/a	LTP231	ltpFR	13	n/a	n/a	n/a	n/a	n/a	n/a	n/a	18	7	9	2	n/a	n/a	n/a	n/a	n/a
2097978	PROB	n/a	LTP231	ltpFR	13	n/a	n/a	n/a	n/a	n/a	n/a	n/a	23	8	6	9	n/a	n/a	n/a	n/a	n/a
2101432	STOP	n/a	LTP231	ltpFR	13	n/a	n/a	n/a	n/a	n/a	n/a	n/a	n/a	n/a	n/a	n/a	n/a	n/a	n/a	n/a	n/a
2104371	REC_START	n/a	LTP231	ltpFR	13	9	n/a	n/a	n/a	n/a	n/a	n/a	n/a	0	0	0	n/a	n/a	n/a	n/a	n/a
2105483	REC_WORD	wordpools/wasnorm_wordpool_less_exclusions.txt	LTP231	ltpFR	13	9	0	TRACTOR	1493	n/a	n/a	1	n/a	0	0	0	n/a	n/a	n/a	n/a	n/a
2106483	REC_WORD_VV	wordpools/wasnorm_wordpool_less_exclusions.txt	LTP231	ltpFR	13	9	n/a	<>	-1	n/a	n/a	n/a	n/a	0	0	0	n/a	n/a	n/a	n/a	n/a
2184906	WORD	wordpools/wasnorm_wordpool_less_exclusions.txt	LTP231	ltpFR	13	10	0	SHINGLE	1285	n/a	n/a	0	n/a	0	0	0	0.57763671875	0.412841796875	1	upper	amplitud.ttf
2188754	WORD	wordpools/wasnorm_wordpool_less_exclusions.txt	LTP231	ltpFR	13	10	0	WALL	1582	n/a	n/a	1	n/a	0	0	0	0.57763671875	0.412841796875	1	upper	amplitud.ttf
2192819	WORD	wordpools/wasnorm_wordpool_less_exclusions.txt	LTP231	ltpFR	13	10	1	BIRD	129	n/a	n/a	1	n/a	0	0	0	0.422607421875	0.5869140625	0	lower	zerothre.ttf
2196847	WORD	wordpools/wasnorm_wordpool_less_exclusions.txt	LTP231	ltpFR	13	10	1	APARTMENT	30	n/a	n/a	0	n/a	0	0	0	0.422607421875	0.5869140625	0	lower	zerothre.ttf
2200762	WORD	wordpools/wasnorm_wordpool_less_exclusions.txt	LTP231	ltpFR	13	10	1	MILITARY	894	n/a	n/a	0	n/a	0	0	0	0.422607421875	0.5869140625	0	lower	zerothre.ttf
2204865	WORD	wordpools/wasnorm_wordpool_less_exclusions.txt	LTP231	ltpFR	13	10	0	SERGEANT	1269	n/a	n/a	1	n/a	0	0	0	0.57763671875	0.412841796875	1	upper	amplitud.ttf
2208947	WORD	wordpools/wasnorm_wordpool_less_exclusions.txt	LTP231	ltpFR	13	10	0	MOAT	903	n/a	n/a	1	n/a	0	0	0	0.57763671875	0.412841796875	1	upper	amplitud.ttf
2212979	WORD	wordpools/wasnorm_wordpool_less_exclusions.txt	LTP231	ltpFR	13	10	1	BATH	98	n/a	n/a	0	n/a	0	0	0	0.422607421875	0.5869140625	0	lower	zerothre.ttf
2217044	WORD	wordpools/wasnorm_wordpool_less_exclusions.txt	LTP231	ltpFR	13	10	1	MULE	931	n/a	n/a	1	n/a	0	0	0	0.422607421875	0.5869140625	0	lower	zerothre.ttf
2221038	WORD	wordpools/wasnorm_wordpool_less_exclusions.txt	LTP231	ltpFR	13	10	1	FIST	572	n/a	n/a	0	n/a	0	0	0	0.422607421875	0.5869140625	0	lower	zerothre.ttf
2224957	WORD	wordpools/wasnorm_wordpool_less_exclusions.txt	LTP231	ltpFR	13	10	1	GUEST	669	n/a	n/a	1	n/a	0	0	0	0.422607421875	0.5869140625	0	lower	zerothre.ttf
2229156	WORD	wordpools/wasnorm_wordpool_less_exclusions.txt	LTP231	ltpFR	13	10	1	HORSE	719	n/a	n/a	1	n/a	0	0	0	0.422607421875	0.5869140625	0	lower	zerothre.ttf
2233151	WORD	wordpools/wasnorm_wordpool_less_exclusions.txt	LTP231	ltpFR	13	10	0	AUTOMOBILE	62	n/a	n/a	1	n/a	0	0	0	0.57763671875	0.412841796875	1	upper	amplitud.ttf
2237086	WORD	wordpools/wasnorm_wordpool_less_exclusions.txt	LTP231	ltpFR	13	10	0	CYLINDER	432	n/a	n/a	0	n/a	0	0	0	0.57763671875	0.412841796875	1	upper	amplitud.ttf
2241303	WORD	wordpools/wasnorm_wordpool_less_exclusions.txt	LTP231	ltpFR	13	10	0	DUCK	504	n/a	n/a	0	n/a	0	0	0	0.57763671875	0.412841796875	1	upper	amplitud.ttf
2245368	WORD	wordpools/wasnorm_wordpool_less_exclusions.txt	LTP231	ltpFR	13	10	0	CANARY	227	n/a	n/a	0	n/a	0	0	0	0.57763671875	0.412841796875	1	upper	amplitud.ttf
2251442	REC_START	n/a	LTP231	ltpFR	13	10	n/a	n/a	n/a	n/a	n/a	n/a	n/a	0	0	0	n/a	n/a	n/a	n/a	n/a
2252240	REC_WORD	wordpools/wasnorm_wordpool_less_exclusions.txt	LTP231	ltpFR	13	10	0	CANARY	227	n/a	n/a	0	n/a	0	0	0	n/a	n/a	n/a	n/a	n/a
2253986	REC_WORD	wordpools/wasnorm_wordpool_less_exclusions.txt	LTP231	ltpFR	13	10	0	AUTOMOBILE	62	n/a	n/a	1	n/a	0	0	0	n/a	n/a	n/a	n/a	n/a
2266333	REC_WORD	wordpools/wasnorm_wordpool_less_exclusions.txt	LTP231	ltpFR	13	10	1	BIRD	129	n/a	n/a	1	n/a	0	0	0	n/a	n/a	n/a	n/a	n/a
2267420	REC_WORD	wordpools/wasnorm_wordpool_less_exclusions.txt	LTP231	ltpFR	13	10	1	MULE	931	n/a	n/a	1	n/a	0	0	0	n/a	n/a	n/a	n/a	n/a
2327088	REST_REWET	n/a	LTP231	ltpFR	13	10	n/a	n/a	n/a	n/a	n/a	n/a	n/a	0	0	0	n/a	n/a	n/a	n/a	n/a
2620782	START	n/a	LTP231	ltpFR	13	n/a	n/a	n/a	n/a	n/a	n/a	n/a	n/a	n/a	n/a	n/a	n/a	n/a	n/a	n/a	n/a
2622289	PROB	n/a	LTP231	ltpFR	13	n/a	n/a	n/a	n/a	n/a	n/a	n/a	13	5	1	7	n/a	n/a	n/a	n/a	n/a
2626704	PROB	n/a	LTP231	ltpFR	13	n/a	n/a	n/a	n/a	n/a	n/a	n/a	13	2	4	7	n/a	n/a	n/a	n/a	n/a
2628993	PROB	n/a	LTP231	ltpFR	13	n/a	n/a	n/a	n/a	n/a	n/a	n/a	18	7	9	2	n/a	n/a	n/a	n/a	n/a
2630987	PROB	n/a	LTP231	ltpFR	13	n/a	n/a	n/a	n/a	n/a	n/a	n/a	14	6	1	7	n/a	n/a	n/a	n/a	n/a
2633694	PROB	n/a	LTP231	ltpFR	13	n/a	n/a	n/a	n/a	n/a	n/a	n/a	6	2	3	1	n/a	n/a	n/a	n/a	n/a
2635647	STOP	n/a	LTP231	ltpFR	13	n/a	n/a	n/a	n/a	n/a	n/a	n/a	n/a	n/a	n/a	n/a	n/a	n/a	n/a	n/a	n/a
2637696	WORD	wordpools/wasnorm_wordpool_less_exclusions.txt	LTP231	ltpFR	13	11	0	NEPTUNE	943	n/a	n/a	1	n/a	0	0	0	0.57763671875	0.412841796875	1	upper	amplitud.ttf
2640708	START	n/a	LTP231	ltpFR	13	n/a	n/a	n/a	n/a	n/a	n/a	n/a	n/a	n/a	n/a	n/a	n/a	n/a	n/a	n/a	n/a
2641657	PROB	n/a	LTP231	ltpFR	13	n/a	n/a	n/a	n/a	n/a	n/a	n/a	21	9	6	6	n/a	n/a	n/a	n/a	n/a
2644100	PROB	n/a	LTP231	ltpFR	13	n/a	n/a	n/a	n/a	n/a	n/a	n/a	20	8	4	8	n/a	n/a	n/a	n/a	n/a
2646309	PROB	n/a	LTP231	ltpFR	13	n/a	n/a	n/a	n/a	n/a	n/a	n/a	7	4	1	2	n/a	n/a	n/a	n/a	n/a
2649337	PROB	n/a	LTP231	ltpFR	13	n/a	n/a	n/a	n/a	n/a	n/a	n/a	13	5	7	1	n/a	n/a	n/a	n/a	n/a
2652766	PROB	n/a	LTP231	ltpFR	13	n/a	n/a	n/a	n/a	n/a	n/a	n/a	21	9	8	4	n/a	n/a	n/a	n/a	n/a
2656708	STOP	n/a	LTP231	ltpFR	13	n/a	n/a	n/a	n/a	n/a	n/a	n/a	n/a	n/a	n/a	n/a	n/a	n/a	n/a	n/a	n/a
2657721	WORD	wordpools/wasnorm_wordpool_less_exclusions.txt	LTP231	ltpFR	13	11	0	SNORKEL	1336	n/a	n/a	0	n/a	0	0	0	0.57763671875	0.412841796875	1	upper	amplitud.ttf
2660733	START	n/a	LTP231	ltpFR	13	n/a	n/a	n/a	n/a	n/a	n/a	n/a	n/a	n/a	n/a	n/a	n/a	n/a	n/a	n/a	n/a
2661686	PROB	n/a	LTP231	ltpFR	13	n/a	n/a	n/a	n/a	n/a	n/a	n/a	9	5	2	2	n/a	n/a	n/a	n/a	n/a
2663874	PROB	n/a	LTP231	ltpFR	13	n/a	n/a	n/a	n/a	n/a	n/a	n/a	18	2	7	9	n/a	n/a	n/a	n/a	n/a
2667338	PROB	n/a	LTP231	ltpFR	13	n/a	n/a	n/a	n/a	n/a	n/a	n/a	18	9	2	7	n/a	n/a	n/a	n/a	n/a
2669679	PROB	n/a	LTP231	ltpFR	13	n/a	n/a	n/a	n/a	n/a	n/a	n/a	14	6	7	1	n/a	n/a	n/a	n/a	n/a
2671637	PROB	n/a	LTP231	ltpFR	13	n/a	n/a	n/a	n/a	n/a	n/a	n/a	11	3	2	6	n/a	n/a	n/a	n/a	n/a
2673494	PROB	n/a	LTP231	ltpFR	13	n/a	n/a	n/a	n/a	n/a	n/a	n/a	13	2	4	7	n/a	n/a	n/a	n/a	n/a
2675455	STOP	n/a	LTP231	ltpFR	13	n/a	n/a	n/a	n/a	n/a	n/a	n/a	n/a	n/a	n/a	n/a	n/a	n/a	n/a	n/a	n/a
2677697	WORD	wordpools/wasnorm_wordpool_less_exclusions.txt	LTP231	ltpFR	13	11	0	VEIN	1554	n/a	n/a	0	n/a	0	0	0	0.57763671875	0.412841796875	1	upper	amplitud.ttf
2680709	START	n/a	LTP231	ltpFR	13	n/a	n/a	n/a	n/a	n/a	n/a	n/a	n/a	n/a	n/a	n/a	n/a	n/a	n/a	n/a	n/a
2681678	PROB	n/a	LTP231	ltpFR	13	n/a	n/a	n/a	n/a	n/a	n/a	n/a	22	9	5	8	n/a	n/a	n/a	n/a	n/a
2685238	PROB	n/a	LTP231	ltpFR	13	n/a	n/a	n/a	n/a	n/a	n/a	n/a	20	4	7	9	n/a	n/a	n/a	n/a	n/a
2688550	PROB	n/a	LTP231	ltpFR	13	n/a	n/a	n/a	n/a	n/a	n/a	n/a	7	2	2	3	n/a	n/a	n/a	n/a	n/a
2691316	PROB	n/a	LTP231	ltpFR	13	n/a	n/a	n/a	n/a	n/a	n/a	n/a	20	2	9	9	n/a	n/a	n/a	n/a	n/a
2693436	PROB	n/a	LTP231	ltpFR	13	n/a	n/a	n/a	n/a	n/a	n/a	n/a	17	7	7	3	n/a	n/a	n/a	n/a	n/a
2695871	STOP	n/a	LTP231	ltpFR	13	n/a	n/a	n/a	n/a	n/a	n/a	n/a	n/a	n/a	n/a	n/a	n/a	n/a	n/a	n/a	n/a
2697772	WORD	wordpools/wasnorm_wordpool_less_exclusions.txt	LTP231	ltpFR	13	11	0	TERRITORY	1452	n/a	n/a	1	n/a	0	0	0	0.57763671875	0.412841796875	1	upper	amplitud.ttf
2700784	START	n/a	LTP231	ltpFR	13	n/a	n/a	n/a	n/a	n/a	n/a	n/a	n/a	n/a	n/a	n/a	n/a	n/a	n/a	n/a	n/a
2701905	PROB	n/a	LTP231	ltpFR	13	n/a	n/a	n/a	n/a	n/a	n/a	n/a	12	4	2	6	n/a	n/a	n/a	n/a	n/a
2703892	PROB	n/a	LTP231	ltpFR	13	n/a	n/a	n/a	n/a	n/a	n/a	n/a	12	2	9	1	n/a	n/a	n/a	n/a	n/a
2705415	PROB	n/a	LTP231	ltpFR	13	n/a	n/a	n/a	n/a	n/a	n/a	n/a	15	5	7	3	n/a	n/a	n/a	n/a	n/a
2706907	PROB	n/a	LTP231	ltpFR	13	n/a	n/a	n/a	n/a	n/a	n/a	n/a	13	4	8	1	n/a	n/a	n/a	n/a	n/a
2708777	PROB	n/a	LTP231	ltpFR	13	n/a	n/a	n/a	n/a	n/a	n/a	n/a	16	2	9	5	n/a	n/a	n/a	n/a	n/a
2710667	PROB	n/a	LTP231	ltpFR	13	n/a	n/a	n/a	n/a	n/a	n/a	n/a	16	8	2	6	n/a	n/a	n/a	n/a	n/a
2712809	PROB	n/a	LTP231	ltpFR	13	n/a	n/a	n/a	n/a	n/a	n/a	n/a	3	1	1	1	n/a	n/a	n/a	n/a	n/a
2714097	PROB	n/a	LTP231	ltpFR	13	n/a	n/a	n/a	n/a	n/a	n/a	n/a	12	8	1	3	n/a	n/a	n/a	n/a	n/a
2715999	STOP	n/a	LTP231	ltpFR	13	n/a	n/a	n/a	n/a	n/a	n/a	n/a	n/a	n/a	n/a	n/a	n/a	n/a	n/a	n/a	n/a
2717660	WORD	wordpools/wasnorm_wordpool_less_exclusions.txt	LTP231	ltpFR	13	11	1	VET	1560	n/a	n/a	1	n/a	0	0	0	0.422607421875	0.5869140625	0	lower	zerothre.ttf
2720676	START	n/a	LTP231	ltpFR	13	n/a	n/a	n/a	n/a	n/a	n/a	n/a	n/a	n/a	n/a	n/a	n/a	n/a	n/a	n/a	n/a
2721746	PROB	n/a	LTP231	ltpFR	13	n/a	n/a	n/a	n/a	n/a	n/a	n/a	10	2	3	5	n/a	n/a	n/a	n/a	n/a
2723700	PROB	n/a	LTP231	ltpFR	13	n/a	n/a	n/a	n/a	n/a	n/a	n/a	18	9	5	4	n/a	n/a	n/a	n/a	n/a
2725958	PROB	n/a	LTP231	ltpFR	13	n/a	n/a	n/a	n/a	n/a	n/a	n/a	17	6	5	6	n/a	n/a	n/a	n/a	n/a
2728518	PROB	n/a	LTP231	ltpFR	13	n/a	n/a	n/a	n/a	n/a	n/a	n/a	23	8	8	7	n/a	n/a	n/a	n/a	n/a
2732215	PROB	n/a	LTP231	ltpFR	13	n/a	n/a	n/a	n/a	n/a	n/a	n/a	12	4	7	1	n/a	n/a	n/a	n/a	n/a
2736676	STOP	n/a	LTP231	ltpFR	13	n/a	n/a	n/a	n/a	n/a	n/a	n/a	n/a	n/a	n/a	n/a	n/a	n/a	n/a	n/a	n/a
2737639	WORD	wordpools/wasnorm_wordpool_less_exclusions.txt	LTP231	ltpFR	13	11	1	BARRACUDA	90	n/a	n/a	1	n/a	0	0	0	0.422607421875	0.5869140625	0	lower	zerothre.ttf
2740651	START	n/a	LTP231	ltpFR	13	n/a	n/a	n/a	n/a	n/a	n/a	n/a	n/a	n/a	n/a	n/a	n/a	n/a	n/a	n/a	n/a
2741667	PROB	n/a	LTP231	ltpFR	13	n/a	n/a	n/a	n/a	n/a	n/a	n/a	18	3	9	6	n/a	n/a	n/a	n/a	n/a
2743942	PROB	n/a	LTP231	ltpFR	13	n/a	n/a	n/a	n/a	n/a	n/a	n/a	16	5	4	7	n/a	n/a	n/a	n/a	n/a
2746436	PROB	n/a	LTP231	ltpFR	13	n/a	n/a	n/a	n/a	n/a	n/a	n/a	12	1	7	4	n/a	n/a	n/a	n/a	n/a
2749116	PROB	n/a	LTP231	ltpFR	13	n/a	n/a	n/a	n/a	n/a	n/a	n/a	9	1	7	1	n/a	n/a	n/a	n/a	n/a
2751305	PROB	n/a	LTP231	ltpFR	13	n/a	n/a	n/a	n/a	n/a	n/a	n/a	13	1	6	6	n/a	n/a	n/a	n/a	n/a
2753244	PROB	n/a	LTP231	ltpFR	13	n/a	n/a	n/a	n/a	n/a	n/a	n/a	20	6	5	9	n/a	n/a	n/a	n/a	n/a
2755207	STOP	n/a	LTP231	ltpFR	13	n/a	n/a	n/a	n/a	n/a	n/a	n/a	n/a	n/a	n/a	n/a	n/a	n/a	n/a	n/a	n/a
2757564	WORD	wordpools/wasnorm_wordpool_less_exclusions.txt	LTP231	ltpFR	13	11	0	INSTRUCTOR	741	n/a	n/a	1	n/a	0	0	0	0.57763671875	0.412841796875	1	upper	amplitud.ttf
2760576	START	n/a	LTP231	ltpFR	13	n/a	n/a	n/a	n/a	n/a	n/a	n/a	n/a	n/a	n/a	n/a	n/a	n/a	n/a	n/a	n/a
2761492	PROB	n/a	LTP231	ltpFR	13	n/a	n/a	n/a	n/a	n/a	n/a	n/a	18	3	7	8	n/a	n/a	n/a	n/a	n/a
2764454	PROB	n/a	LTP231	ltpFR	13	n/a	n/a	n/a	n/a	n/a	n/a	n/a	14	1	7	6	n/a	n/a	n/a	n/a	n/a
2766963	PROB	n/a	LTP231	ltpFR	13	n/a	n/a	n/a	n/a	n/a	n/a	n/a	11	8	1	2	n/a	n/a	n/a	n/a	n/a
2768669	PROB	n/a	LTP231	ltpFR	13	n/a	n/a	n/a	n/a	n/a	n/a	n/a	13	1	9	3	n/a	n/a	n/a	n/a	n/a
2770861	PROB	n/a	LTP231	ltpFR	13	n/a	n/a	n/a	n/a	n/a	n/a	n/a	4	1	1	2	n/a	n/a	n/a	n/a	n/a
2772617	PROB	n/a	LTP231	ltpFR	13	n/a	n/a	n/a	n/a	n/a	n/a	n/a	19	8	2	9	n/a	n/a	n/a	n/a	n/a
2774173	PROB	n/a	LTP231	ltpFR	13	n/a	n/a	n/a	n/a	n/a	n/a	n/a	18	6	4	8	n/a	n/a	n/a	n/a	n/a
2775783	STOP	n/a	LTP231	ltpFR	13	n/a	n/a	n/a	n/a	n/a	n/a	n/a	n/a	n/a	n/a	n/a	n/a	n/a	n/a	n/a	n/a
2777673	WORD	wordpools/wasnorm_wordpool_less_exclusions.txt	LTP231	ltpFR	13	11	0	VAMPIRE	1547	n/a	n/a	1	n/a	0	0	0	0.57763671875	0.412841796875	1	upper	amplitud.ttf
2780685	START	n/a	LTP231	ltpFR	13	n/a	n/a	n/a	n/a	n/a	n/a	n/a	n/a	n/a	n/a	n/a	n/a	n/a	n/a	n/a	n/a
2781852	PROB	n/a	LTP231	ltpFR	13	n/a	n/a	n/a	n/a	n/a	n/a	n/a	15	2	8	5	n/a	n/a	n/a	n/a	n/a
2783893	PROB	n/a	LTP231	ltpFR	13	n/a	n/a	n/a	n/a	n/a	n/a	n/a	13	3	1	9	n/a	n/a	n/a	n/a	n/a
2786218	PROB	n/a	LTP231	ltpFR	13	n/a	n/a	n/a	n/a	n/a	n/a	n/a	16	7	8	1	n/a	n/a	n/a	n/a	n/a
2788694	PROB	n/a	LTP231	ltpFR	13	n/a	n/a	n/a	n/a	n/a	n/a	n/a	7	1	5	1	n/a	n/a	n/a	n/a	n/a
2790322	PROB	n/a	LTP231	ltpFR	13	n/a	n/a	n/a	n/a	n/a	n/a	n/a	8	4	1	3	n/a	n/a	n/a	n/a	n/a
2793730	PROB	n/a	LTP231	ltpFR	13	n/a	n/a	n/a	n/a	n/a	n/a	n/a	20	7	8	5	n/a	n/a	n/a	n/a	n/a
2796352	STOP	n/a	LTP231	ltpFR	13	n/a	n/a	n/a	n/a	n/a	n/a	n/a	n/a	n/a	n/a	n/a	n/a	n/a	n/a	n/a	n/a
2797548	WORD	wordpools/wasnorm_wordpool_less_exclusions.txt	LTP231	ltpFR	13	11	0	CRAB	397	n/a	n/a	0	n/a	0	0	0	0.57763671875	0.412841796875	1	upper	amplitud.ttf
2800560	START	n/a	LTP231	ltpFR	13	n/a	n/a	n/a	n/a	n/a	n/a	n/a	n/a	n/a	n/a	n/a	n/a	n/a	n/a	n/a	n/a
2801480	PROB	n/a	LTP231	ltpFR	13	n/a	n/a	n/a	n/a	n/a	n/a	n/a	16	5	9	2	n/a	n/a	n/a	n/a	n/a
2804405	PROB	n/a	LTP231	ltpFR	13	n/a	n/a	n/a	n/a	n/a	n/a	n/a	11	6	2	3	n/a	n/a	n/a	n/a	n/a
2807850	PROB	n/a	LTP231	ltpFR	13	n/a	n/a	n/a	n/a	n/a	n/a	n/a	11	1	2	8	n/a	n/a	n/a	n/a	n/a
2809610	PROB	n/a	LTP231	ltpFR	13	n/a	n/a	n/a	n/a	n/a	n/a	n/a	15	6	2	7	n/a	n/a	n/a	n/a	n/a
2812467	PROB	n/a	LTP231	ltpFR	13	n/a	n/a	n/a	n/a	n/a	n/a	n/a	20	9	5	6	n/a	n/a	n/a	n/a	n/a
2815183	STOP	n/a	LTP231	ltpFR	13	n/a	n/a	n/a	n/a	n/a	n/a	n/a	n/a	n/a	n/a	n/a	n/a	n/a	n/a	n/a	n/a
2817724	WORD	wordpools/wasnorm_wordpool_less_exclusions.txt	LTP231	ltpFR	13	11	0	BLACKBOARD	133	n/a	n/a	1	n/a	0	0	0	0.57763671875	0.412841796875	1	upper	amplitud.ttf
2820736	START	n/a	LTP231	ltpFR	13	n/a	n/a	n/a	n/a	n/a	n/a	n/a	n/a	n/a	n/a	n/a	n/a	n/a	n/a	n/a	n/a
2821555	PROB	n/a	LTP231	ltpFR	13	n/a	n/a	n/a	n/a	n/a	n/a	n/a	18	3	9	6	n/a	n/a	n/a	n/a	n/a
2824065	PROB	n/a	LTP231	ltpFR	13	n/a	n/a	n/a	n/a	n/a	n/a	n/a	12	3	4	5	n/a	n/a	n/a	n/a	n/a
2826504	PROB	n/a	LTP231	ltpFR	13	n/a	n/a	n/a	n/a	n/a	n/a	n/a	18	6	8	4	n/a	n/a	n/a	n/a	n/a
2829432	PROB	n/a	LTP231	ltpFR	13	n/a	n/a	n/a	n/a	n/a	n/a	n/a	19	5	8	6	n/a	n/a	n/a	n/a	n/a
2835336	STOP	n/a	LTP231	ltpFR	13	n/a	n/a	n/a	n/a	n/a	n/a	n/a	n/a	n/a	n/a	n/a	n/a	n/a	n/a	n/a	n/a
2837666	WORD	wordpools/wasnorm_wordpool_less_exclusions.txt	LTP231	ltpFR	13	11	1	PICK	1058	n/a	n/a	0	n/a	0	0	0	0.422607421875	0.5869140625	0	lower	zerothre.ttf
2840678	START	n/a	LTP231	ltpFR	13	n/a	n/a	n/a	n/a	n/a	n/a	n/a	n/a	n/a	n/a	n/a	n/a	n/a	n/a	n/a	n/a
2841715	PROB	n/a	LTP231	ltpFR	13	n/a	n/a	n/a	n/a	n/a	n/a	n/a	14	2	4	8	n/a	n/a	n/a	n/a	n/a
2843588	PROB	n/a	LTP231	ltpFR	13	n/a	n/a	n/a	n/a	n/a	n/a	n/a	19	3	7	9	n/a	n/a	n/a	n/a	n/a
2847169	PROB	n/a	LTP231	ltpFR	13	n/a	n/a	n/a	n/a	n/a	n/a	n/a	18	4	6	8	n/a	n/a	n/a	n/a	n/a
2848771	PROB	n/a	LTP231	ltpFR	13	n/a	n/a	n/a	n/a	n/a	n/a	n/a	19	3	9	7	n/a	n/a	n/a	n/a	n/a
2850732	PROB	n/a	LTP231	ltpFR	13	n/a	n/a	n/a	n/a	n/a	n/a	n/a	15	4	5	6	n/a	n/a	n/a	n/a	n/a
2852689	PROB	n/a	LTP231	ltpFR	13	n/a	n/a	n/a	n/a	n/a	n/a	n/a	16	1	8	7	n/a	n/a	n/a	n/a	n/a
2856678	STOP	n/a	LTP231	ltpFR	13	n/a	n/a	n/a	n/a	n/a	n/a	n/a	n/a	n/a	n/a	n/a	n/a	n/a	n/a	n/a	n/a
2857658	WORD	wordpools/wasnorm_wordpool_less_exclusions.txt	LTP231	ltpFR	13	11	1	TIMBER	1469	n/a	n/a	0	n/a	0	0	0	0.422607421875	0.5869140625	0	lower	zerothre.ttf
2860670	START	n/a	LTP231	ltpFR	13	n/a	n/a	n/a	n/a	n/a	n/a	n/a	n/a	n/a	n/a	n/a	n/a	n/a	n/a	n/a	n/a
2861870	PROB	n/a	LTP231	ltpFR	13	n/a	n/a	n/a	n/a	n/a	n/a	n/a	19	6	4	9	n/a	n/a	n/a	n/a	n/a
2863627	PROB	n/a	LTP231	ltpFR	13	n/a	n/a	n/a	n/a	n/a	n/a	n/a	16	7	7	2	n/a	n/a	n/a	n/a	n/a
2865668	PROB	n/a	LTP231	ltpFR	13	n/a	n/a	n/a	n/a	n/a	n/a	n/a	16	9	3	4	n/a	n/a	n/a	n/a	n/a
2868479	PROB	n/a	LTP231	ltpFR	13	n/a	n/a	n/a	n/a	n/a	n/a	n/a	14	7	6	1	n/a	n/a	n/a	n/a	n/a
2870637	PROB	n/a	LTP231	ltpFR	13	n/a	n/a	n/a	n/a	n/a	n/a	n/a	9	1	5	2	n/a	n/a	n/a	n/a	n/a
2876670	STOP	n/a	LTP231	ltpFR	13	n/a	n/a	n/a	n/a	n/a	n/a	n/a	n/a	n/a	n/a	n/a	n/a	n/a	n/a	n/a	n/a
2877667	WORD	wordpools/wasnorm_wordpool_less_exclusions.txt	LTP231	ltpFR	13	11	1	TREE	1502	n/a	n/a	1	n/a	0	0	0	0.422607421875	0.5869140625	0	lower	zerothre.ttf
2880679	START	n/a	LTP231	ltpFR	13	n/a	n/a	n/a	n/a	n/a	n/a	n/a	n/a	n/a	n/a	n/a	n/a	n/a	n/a	n/a	n/a
2881832	PROB	n/a	LTP231	ltpFR	13	n/a	n/a	n/a	n/a	n/a	n/a	n/a	11	8	2	1	n/a	n/a	n/a	n/a	n/a
2883602	PROB	n/a	LTP231	ltpFR	13	n/a	n/a	n/a	n/a	n/a	n/a	n/a	13	2	6	5	n/a	n/a	n/a	n/a	n/a
2886597	PROB	n/a	LTP231	ltpFR	13	n/a	n/a	n/a	n/a	n/a	n/a	n/a	18	8	3	7	n/a	n/a	n/a	n/a	n/a
2888993	PROB	n/a	LTP231	ltpFR	13	n/a	n/a	n/a	n/a	n/a	n/a	n/a	13	6	4	3	n/a	n/a	n/a	n/a	n/a
2890662	PROB	n/a	LTP231	ltpFR	13	n/a	n/a	n/a	n/a	n/a	n/a	n/a	8	3	2	3	n/a	n/a	n/a	n/a	n/a
2892586	PROB	n/a	LTP231	ltpFR	13	n/a	n/a	n/a	n/a	n/a	n/a	n/a	13	8	1	4	n/a	n/a	n/a	n/a	n/a
2896679	STOP	n/a	LTP231	ltpFR	13	n/a	n/a	n/a	n/a	n/a	n/a	n/a	n/a	n/a	n/a	n/a	n/a	n/a	n/a	n/a	n/a
2897609	WORD	wordpools/wasnorm_wordpool_less_exclusions.txt	LTP231	ltpFR	13	11	1	GORILLA	650	n/a	n/a	1	n/a	0	0	0	0.422607421875	0.5869140625	0	lower	zerothre.ttf
2900621	START	n/a	LTP231	ltpFR	13	n/a	n/a	n/a	n/a	n/a	n/a	n/a	n/a	n/a	n/a	n/a	n/a	n/a	n/a	n/a	n/a
2901590	PROB	n/a	LTP231	ltpFR	13	n/a	n/a	n/a	n/a	n/a	n/a	n/a	20	8	6	6	n/a	n/a	n/a	n/a	n/a
2903828	PROB	n/a	LTP231	ltpFR	13	n/a	n/a	n/a	n/a	n/a	n/a	n/a	13	5	3	5	n/a	n/a	n/a	n/a	n/a
2906154	PROB	n/a	LTP231	ltpFR	13	n/a	n/a	n/a	n/a	n/a	n/a	n/a	16	1	8	7	n/a	n/a	n/a	n/a	n/a
2908161	PROB	n/a	LTP231	ltpFR	13	n/a	n/a	n/a	n/a	n/a	n/a	n/a	7	2	2	3	n/a	n/a	n/a	n/a	n/a
2911274	PROB	n/a	LTP231	ltpFR	13	n/a	n/a	n/a	n/a	n/a	n/a	n/a	13	5	3	5	n/a	n/a	n/a	n/a	n/a
2912929	PROB	n/a	LTP231	ltpFR	13	n/a	n/a	n/a	n/a	n/a	n/a	n/a	13	3	3	5	n/a	n/a	n/a	n/a	n/a
2916567	STOP	n/a	LTP231	ltpFR	13	n/a	n/a	n/a	n/a	n/a	n/a	n/a	n/a	n/a	n/a	n/a	n/a	n/a	n/a	n/a	n/a
2917785	WORD	wordpools/wasnorm_wordpool_less_exclusions.txt	LTP231	ltpFR	13	11	1	RUST	1219	n/a	n/a	n/a	n/a	0	0	0	0.422607421875	0.5869140625	0	lower	zerothre.ttf
2920829	SLOW_MSG	n/a	LTP231	ltpFR	13	11	n/a	n/a	n/a	n/a	n/a	n/a	n/a	0	0	0	n/a	n/a	n/a	n/a	n/a
2922353	START	n/a	LTP231	ltpFR	13	n/a	n/a	n/a	n/a	n/a	n/a	n/a	n/a	n/a	n/a	n/a	n/a	n/a	n/a	n/a	n/a
2923536	PROB	n/a	LTP231	ltpFR	13	n/a	n/a	n/a	n/a	n/a	n/a	n/a	19	8	5	6	n/a	n/a	n/a	n/a	n/a
2925661	PROB	n/a	LTP231	ltpFR	13	n/a	n/a	n/a	n/a	n/a	n/a	n/a	15	3	5	7	n/a	n/a	n/a	n/a	n/a
2927452	PROB	n/a	LTP231	ltpFR	13	n/a	n/a	n/a	n/a	n/a	n/a	n/a	14	4	6	4	n/a	n/a	n/a	n/a	n/a
2929144	PROB	n/a	LTP231	ltpFR	13	n/a	n/a	n/a	n/a	n/a	n/a	n/a	11	4	6	1	n/a	n/a	n/a	n/a	n/a
2930914	PROB	n/a	LTP231	ltpFR	13	n/a	n/a	n/a	n/a	n/a	n/a	n/a	18	8	1	9	n/a	n/a	n/a	n/a	n/a
2932787	PROB	n/a	LTP231	ltpFR	13	n/a	n/a	n/a	n/a	n/a	n/a	n/a	15	6	1	8	n/a	n/a	n/a	n/a	n/a
2934929	PROB	n/a	LTP231	ltpFR	13	n/a	n/a	n/a	n/a	n/a	n/a	n/a	4	1	2	1	n/a	n/a	n/a	n/a	n/a
2938344	STOP	n/a	LTP231	ltpFR	13	n/a	n/a	n/a	n/a	n/a	n/a	n/a	n/a	n/a	n/a	n/a	n/a	n/a	n/a	n/a	n/a
2939350	WORD	wordpools/wasnorm_wordpool_less_exclusions.txt	LTP231	ltpFR	13	11	1	CHAUFFEUR	283	n/a	n/a	1	n/a	0	0	0	0.422607421875	0.5869140625	0	lower	zerothre.ttf
2942362	START	n/a	LTP231	ltpFR	13	n/a	n/a	n/a	n/a	n/a	n/a	n/a	n/a	n/a	n/a	n/a	n/a	n/a	n/a	n/a	n/a
2943261	PROB	n/a	LTP231	ltpFR	13	n/a	n/a	n/a	n/a	n/a	n/a	n/a	16	2	9	5	n/a	n/a	n/a	n/a	n/a
2946727	PROB	n/a	LTP231	ltpFR	13	n/a	n/a	n/a	n/a	n/a	n/a	n/a	12	1	4	7	n/a	n/a	n/a	n/a	n/a
2948664	PROB	n/a	LTP231	ltpFR	13	n/a	n/a	n/a	n/a	n/a	n/a	n/a	19	3	7	9	n/a	n/a	n/a	n/a	n/a
2950642	PROB	n/a	LTP231	ltpFR	13	n/a	n/a	n/a	n/a	n/a	n/a	n/a	18	7	6	5	n/a	n/a	n/a	n/a	n/a
2952913	PROB	n/a	LTP231	ltpFR	13	n/a	n/a	n/a	n/a	n/a	n/a	n/a	10	1	8	1	n/a	n/a	n/a	n/a	n/a
2954770	PROB	n/a	LTP231	ltpFR	13	n/a	n/a	n/a	n/a	n/a	n/a	n/a	13	6	4	3	n/a	n/a	n/a	n/a	n/a
2956428	PROB	n/a	LTP231	ltpFR	13	n/a	n/a	n/a	n/a	n/a	n/a	n/a	5	2	1	2	n/a	n/a	n/a	n/a	n/a
2957927	STOP	n/a	LTP231	ltpFR	13	n/a	n/a	n/a	n/a	n/a	n/a	n/a	n/a	n/a	n/a	n/a	n/a	n/a	n/a	n/a	n/a
2960175	REC_START	n/a	LTP231	ltpFR	13	11	n/a	n/a	n/a	n/a	n/a	n/a	n/a	0	0	0	n/a	n/a	n/a	n/a	n/a
2961906	REC_WORD	wordpools/wasnorm_wordpool_less_exclusions.txt	LTP231	ltpFR	13	11	1	CHAUFFEUR	283	n/a	n/a	1	n/a	0	0	0	n/a	n/a	n/a	n/a	n/a
2989189	REC_WORD	wordpools/wasnorm_wordpool_less_exclusions.txt	LTP231	ltpFR	13	11	1	GORILLA	650	n/a	n/a	1	n/a	0	0	0	n/a	n/a	n/a	n/a	n/a
3005671	REC_WORD	wordpools/wasnorm_wordpool_less_exclusions.txt	LTP231	ltpFR	13	11	1	BARRACUDA	90	n/a	n/a	1	n/a	0	0	0	n/a	n/a	n/a	n/a	n/a
3039344	WORD	wordpools/wasnorm_wordpool_less_exclusions.txt	LTP231	ltpFR	13	12	1	STAGE	1366	n/a	n/a	0	n/a	0	0	0	0.422607421875	0.5869140625	0	lower	zerothre.ttf
3043292	WORD	wordpools/wasnorm_wordpool_less_exclusions.txt	LTP231	ltpFR	13	12	1	ACTOR	5	n/a	n/a	1	n/a	0	0	0	0.422607421875	0.5869140625	0	lower	zerothre.ttf
3047457	WORD	wordpools/wasnorm_wordpool_less_exclusions.txt	LTP231	ltpFR	13	12	1	SLUG	1329	n/a	n/a	1	n/a	0	0	0	0.422607421875	0.5869140625	0	lower	zerothre.ttf
3051439	WORD	wordpools/wasnorm_wordpool_less_exclusions.txt	LTP231	ltpFR	13	12	1	FELLOW	558	n/a	n/a	1	n/a	0	0	0	0.422607421875	0.5869140625	0	lower	zerothre.ttf
3055438	WORD	wordpools/wasnorm_wordpool_less_exclusions.txt	LTP231	ltpFR	13	12	1	MAN	862	n/a	n/a	1	n/a	0	0	0	0.422607421875	0.5869140625	0	lower	zerothre.ttf
3059336	WORD	wordpools/wasnorm_wordpool_less_exclusions.txt	LTP231	ltpFR	13	12	1	MEAT	883	n/a	n/a	0	n/a	0	0	0	0.422607421875	0.5869140625	0	lower	zerothre.ttf
3063448	WORD	wordpools/wasnorm_wordpool_less_exclusions.txt	LTP231	ltpFR	13	12	1	SUIT	1402	n/a	n/a	0	n/a	0	0	0	0.422607421875	0.5869140625	0	lower	zerothre.ttf
3067633	WORD	wordpools/wasnorm_wordpool_less_exclusions.txt	LTP231	ltpFR	13	12	1	ARCHITECT	36	n/a	n/a	0	n/a	0	0	0	0.422607421875	0.5869140625	0	lower	zerothre.ttf
3071460	WORD	wordpools/wasnorm_wordpool_less_exclusions.txt	LTP231	ltpFR	13	12	1	PATROL	1027	n/a	n/a	0	n/a	0	0	0	0.422607421875	0.5869140625	0	lower	zerothre.ttf
3075363	WORD	wordpools/wasnorm_wordpool_less_exclusions.txt	LTP231	ltpFR	13	12	1	HAT	690	n/a	n/a	0	n/a	0	0	0	0.422607421875	0.5869140625	0	lower	zerothre.ttf
3079578	WORD	wordpools/wasnorm_wordpool_less_exclusions.txt	LTP231	ltpFR	13	12	1	SUITCASE	1403	n/a	n/a	0	n/a	0	0	0	0.422607421875	0.5869140625	0	lower	zerothre.ttf
3083476	WORD	wordpools/wasnorm_wordpool_less_exclusions.txt	LTP231	ltpFR	13	12	1	TOWER	1490	n/a	n/a	0	n/a	0	0	0	0.422607421875	0.5869140625	0	lower	zerothre.ttf
3087675	WORD	wordpools/wasnorm_wordpool_less_exclusions.txt	LTP231	ltpFR	13	12	1	WHISKERS	1605	n/a	n/a	0	n/a	0	0	0	0.422607421875	0.5869140625	0	lower	zerothre.ttf
3091606	WORD	wordpools/wasnorm_wordpool_less_exclusions.txt	LTP231	ltpFR	13	12	1	COP	376	n/a	n/a	1	n/a	0	0	0	0.422607421875	0.5869140625	0	lower	zerothre.ttf
3095471	WORD	wordpools/wasnorm_wordpool_less_exclusions.txt	LTP231	ltpFR	13	12	1	CHEMICAL	291	n/a	n/a	0	n/a	0	0	0	0.422607421875	0.5869140625	0	lower	zerothre.ttf
3099403	WORD	wordpools/wasnorm_wordpool_less_exclusions.txt	LTP231	ltpFR	13	12	1	NERVE	944	n/a	n/a	0	n/a	0	0	0	0.422607421875	0.5869140625	0	lower	zerothre.ttf
3102415	START	n/a	LTP231	ltpFR	13	n/a	n/a	n/a	n/a	n/a	n/a	n/a	n/a	n/a	n/a	n/a	n/a	n/a	n/a	n/a	n/a
3103485	PROB	n/a	LTP231	ltpFR	13	n/a	n/a	n/a	n/a	n/a	n/a	n/a	11	4	3	4	n/a	n/a	n/a	n/a	n/a
3107011	PROB	n/a	LTP231	ltpFR	13	n/a	n/a	n/a	n/a	n/a	n/a	n/a	12	2	3	7	n/a	n/a	n/a	n/a	n/a
3109106	PROB	n/a	LTP231	ltpFR	13	n/a	n/a	n/a	n/a	n/a	n/a	n/a	15	2	9	4	n/a	n/a	n/a	n/a	n/a
3111043	PROB	n/a	LTP231	ltpFR	13	n/a	n/a	n/a	n/a	n/a	n/a	n/a	18	8	8	2	n/a	n/a	n/a	n/a	n/a
3113352	PROB	n/a	LTP231	ltpFR	13	n/a	n/a	n/a	n/a	n/a	n/a	n/a	8	5	2	1	n/a	n/a	n/a	n/a	n/a
3115444	PROB	n/a	LTP231	ltpFR	13	n/a	n/a	n/a	n/a	n/a	n/a	n/a	15	2	7	6	n/a	n/a	n/a	n/a	n/a
3117440	STOP	n/a	LTP231	ltpFR	13	n/a	n/a	n/a	n/a	n/a	n/a	n/a	n/a	n/a	n/a	n/a	n/a	n/a	n/a	n/a	n/a
3120232	REC_START	n/a	LTP231	ltpFR	13	12	n/a	n/a	n/a	n/a	n/a	n/a	n/a	0	0	0	n/a	n/a	n/a	n/a	n/a
3123289	REC_WORD	wordpools/wasnorm_wordpool_less_exclusions.txt	LTP231	ltpFR	13	12	1	SUIT	1402	n/a	n/a	0	n/a	0	0	0	n/a	n/a	n/a	n/a	n/a
3124612	REC_WORD	wordpools/wasnorm_wordpool_less_exclusions.txt	LTP231	ltpFR	13	12	1	CHEMICAL	291	n/a	n/a	0	n/a	0	0	0	n/a	n/a	n/a	n/a	n/a
3125550	REC_WORD	wordpools/wasnorm_wordpool_less_exclusions.txt	LTP231	ltpFR	13	12	1	COP	376	n/a	n/a	1	n/a	0	0	0	n/a	n/a	n/a	n/a	n/a
3126956	REC_WORD	wordpools/wasnorm_wordpool_less_exclusions.txt	LTP231	ltpFR	13	12	1	NERVE	944	n/a	n/a	0	n/a	0	0	0	n/a	n/a	n/a	n/a	n/a
3128642	REC_WORD	wordpools/wasnorm_wordpool_less_exclusions.txt	LTP231	ltpFR	13	12	1	PATROL	1027	n/a	n/a	0	n/a	0	0	0	n/a	n/a	n/a	n/a	n/a
3130139	REC_WORD	wordpools/wasnorm_wordpool_less_exclusions.txt	LTP231	ltpFR	13	12	1	TOWER	1490	n/a	n/a	0	n/a	0	0	0	n/a	n/a	n/a	n/a	n/a
3131566	REC_WORD	wordpools/wasnorm_wordpool_less_exclusions.txt	LTP231	ltpFR	13	12	1	MEAT	883	n/a	n/a	0	n/a	0	0	0	n/a	n/a	n/a	n/a	n/a
3133232	REC_WORD	wordpools/wasnorm_wordpool_less_exclusions.txt	LTP231	ltpFR	13	12	1	SUITCASE	1403	n/a	n/a	0	n/a	0	0	0	n/a	n/a	n/a	n/a	n/a
3135018	REC_WORD	wordpools/wasnorm_wordpool_less_exclusions.txt	LTP231	ltpFR	13	12	1	HAT	690	n/a	n/a	0	n/a	0	0	0	n/a	n/a	n/a	n/a	n/a
3137118	REC_WORD	wordpools/wasnorm_wordpool_less_exclusions.txt	LTP231	ltpFR	13	12	1	SLUG	1329	n/a	n/a	1	n/a	0	0	0	n/a	n/a	n/a	n/a	n/a
3138614	REC_WORD	wordpools/wasnorm_wordpool_less_exclusions.txt	LTP231	ltpFR	13	12	1	STAGE	1366	n/a	n/a	0	n/a	0	0	0	n/a	n/a	n/a	n/a	n/a
3139822	REC_WORD	wordpools/wasnorm_wordpool_less_exclusions.txt	LTP231	ltpFR	13	12	1	ACTOR	5	n/a	n/a	1	n/a	0	0	0	n/a	n/a	n/a	n/a	n/a
3143489	REC_WORD	wordpools/wasnorm_wordpool_less_exclusions.txt	LTP231	ltpFR	13	12	1	MEAT	883	n/a	n/a	0	n/a	0	0	0	n/a	n/a	n/a	n/a	n/a
3147155	REC_WORD	wordpools/wasnorm_wordpool_less_exclusions.txt	LTP231	ltpFR	13	12	1	FELLOW	558	n/a	n/a	1	n/a	0	0	0	n/a	n/a	n/a	n/a	n/a
3148413	REC_WORD	wordpools/wasnorm_wordpool_less_exclusions.txt	LTP231	ltpFR	13	12	1	MAN	862	n/a	n/a	1	n/a	0	0	0	n/a	n/a	n/a	n/a	n/a
3171800	REC_WORD	wordpools/wasnorm_wordpool_less_exclusions.txt	LTP231	ltpFR	13	12	n/a	LAWYER	806	n/a	n/a	n/a	n/a	0	0	0	n/a	n/a	n/a	n/a	n/a
3208226	REC_START	n/a	LTP231	ltpFR	13	n/a	n/a	n/a	n/a	n/a	n/a	n/a	n/a	0	0	0	n/a	n/a	n/a	n/a	n/a
3209238	FFR_REC_WORD	wordpools/wasnorm_wordpool_less_exclusions.txt	LTP231	ltpFR	13	n/a	1	GORILLA	650	n/a	n/a	1	n/a	0	0	0	n/a	n/a	n/a	n/a	n/a
3210173	FFR_REC_WORD	wordpools/wasnorm_wordpool_less_exclusions.txt	LTP231	ltpFR	13	n/a	1	MEAT	883	n/a	n/a	0	n/a	0	0	0	n/a	n/a	n/a	n/a	n/a
3210643	FFR_REC_WORD	wordpools/wasnorm_wordpool_less_exclusions.txt	LTP231	ltpFR	13	n/a	1	SLUG	1329	n/a	n/a	1	n/a	0	0	0	n/a	n/a	n/a	n/a	n/a
3211458	FFR_REC_WORD	wordpools/wasnorm_wordpool_less_exclusions.txt	LTP231	ltpFR	13	n/a	1	SUIT	1402	n/a	n/a	0	n/a	0	0	0	n/a	n/a	n/a	n/a	n/a
3212301	FFR_REC_WORD	wordpools/wasnorm_wordpool_less_exclusions.txt	LTP231	ltpFR	13	n/a	1	ACTOR	5	n/a	n/a	1	n/a	0	0	0	n/a	n/a	n/a	n/a	n/a
3212927	FFR_REC_WORD	wordpools/wasnorm_wordpool_less_exclusions.txt	LTP231	ltpFR	13	n/a	1	STAGE	1366	n/a	n/a	0	n/a	0	0	0	n/a	n/a	n/a	n/a	n/a
3213927	FFR_REC_WORD_VV	wordpools/wasnorm_wordpool_less_exclusions.txt	LTP231	ltpFR	13	n/a	n/a	<>	-1	n/a	n/a	n/a	n/a	0	0	0	n/a	n/a	n/a	n/a	n/a
3215395	FFR_REC_WORD	wordpools/wasnorm_wordpool_less_exclusions.txt	LTP231	ltpFR	13	n/a	1	BARRACUDA	90	n/a	n/a	1	n/a	0	0	0	n/a	n/a	n/a	n/a	n/a
3216395	FFR_REC_WORD_VV	wordpools/wasnorm_wordpool_less_exclusions.txt	LTP231	ltpFR	13	n/a	n/a	<>	-1	n/a	n/a	n/a	n/a	0	0	0	n/a	n/a	n/a	n/a	n/a
3220323	FFR_REC_WORD	wordpools/wasnorm_wordpool_less_exclusions.txt	LTP231	ltpFR	13	n/a	1	SUITCASE	1403	n/a	n/a	0	n/a	0	0	0	n/a	n/a	n/a	n/a	n/a
3221323	FFR_REC_WORD_VV	wordpools/wasnorm_wordpool_less_exclusions.txt	LTP231	ltpFR	13	n/a	n/a	<>	-1	n/a	n/a	n/a	n/a	0	0	0	n/a	n/a	n/a	n/a	n/a
3222149	FFR_REC_WORD	wordpools/wasnorm_wordpool_less_exclusions.txt	LTP231	ltpFR	13	n/a	1	FELLOW	558	n/a	n/a	1	n/a	0	0	0	n/a	n/a	n/a	n/a	n/a
3223416	FFR_REC_WORD	wordpools/wasnorm_wordpool_less_exclusions.txt	LTP231	ltpFR	13	n/a	1	MAN	862	n/a	n/a	1	n/a	0	0	0	n/a	n/a	n/a	n/a	n/a
3227901	FFR_REC_WORD	wordpools/wasnorm_wordpool_less_exclusions.txt	LTP231	ltpFR	13	n/a	1	TOWER	1490	n/a	n/a	0	n/a	0	0	0	n/a	n/a	n/a	n/a	n/a
3232231	FFR_REC_WORD	wordpools/wasnorm_wordpool_less_exclusions.txt	LTP231	ltpFR	13	n/a	1	HAT	690	n/a	n/a	0	n/a	0	0	0	n/a	n/a	n/a	n/a	n/a
3233239	FFR_REC_WORD	wordpools/wasnorm_wordpool_less_exclusions.txt	LTP231	ltpFR	13	n/a	1	COP	376	n/a	n/a	1	n/a	0	0	0	n/a	n/a	n/a	n/a	n/a
3234476	FFR_REC_WORD	wordpools/wasnorm_wordpool_less_exclusions.txt	LTP231	ltpFR	13	n/a	1	PATROL	1027	n/a	n/a	0	n/a	0	0	0	n/a	n/a	n/a	n/a	n/a
3236761	FFR_REC_WORD	wordpools/wasnorm_wordpool_less_exclusions.txt	LTP231	ltpFR	13	n/a	1	TRUCK	1512	n/a	n/a	0	n/a	0	0	0	n/a	n/a	n/a	n/a	n/a
3238801	FFR_REC_WORD	wordpools/wasnorm_wordpool_less_exclusions.txt	LTP231	ltpFR	13	n/a	0	OTTER	986	n/a	n/a	0	n/a	0	0	0	n/a	n/a	n/a	n/a	n/a
3244927	FFR_REC_WORD	wordpools/wasnorm_wordpool_less_exclusions.txt	LTP231	ltpFR	13	n/a	0	CANARY	227	n/a	n/a	0	n/a	0	0	0	n/a	n/a	n/a	n/a	n/a
3246599	FFR_REC_WORD	wordpools/wasnorm_wordpool_less_exclusions.txt	LTP231	ltpFR	13	n/a	1	BIRD	129	n/a	n/a	1	n/a	0	0	0	n/a	n/a	n/a	n/a	n/a
3274485	FFR_REC_WORD	wordpools/wasnorm_wordpool_less_exclusions.txt	LTP231	ltpFR	13	n/a	0	COAT	333	n/a	n/a	0	n/a	0	0	0	n/a	n/a	n/a	n/a	n/a
3276386	FFR_REC_WORD	wordpools/wasnorm_wordpool_less_exclusions.txt	LTP231	ltpFR	13	n/a	1	FACE	547	n/a	n/a	2	n/a	0	0	0	n/a	n/a	n/a	n/a	n/a
3277463	FFR_REC_WORD	wordpools/wasnorm_wordpool_less_exclusions.txt	LTP231	ltpFR	13	n/a	0	HEAD	695	n/a	n/a	0	n/a	0	0	0	n/a	n/a	n/a	n/a	n/a
3282497	FFR_REC_WORD	wordpools/wasnorm_wordpool_less_exclusions.txt	LTP231	ltpFR	13	n/a	0	COLOGNE	347	n/a	n/a	0	n/a	0	0	0	n/a	n/a	n/a	n/a	n/a
3283275	FFR_REC_WORD	wordpools/wasnorm_wordpool_less_exclusions.txt	LTP231	ltpFR	13	n/a	0	SOAP	1337	n/a	n/a	0	n/a	0	0	0	n/a	n/a	n/a	n/a	n/a
3285869	FFR_REC_WORD	wordpools/wasnorm_wordpool_less_exclusions.txt	LTP231	ltpFR	13	n/a	1	MILITARY	894	n/a	n/a	0	n/a	0	0	0	n/a	n/a	n/a	n/a	n/a
3292609	FFR_REC_WORD	wordpools/wasnorm_wordpool_less_exclusions.txt	LTP231	ltpFR	13	n/a	1	MULE	931	n/a	n/a	1	n/a	0	0	0	n/a	n/a	n/a	n/a	n/a
3294415	FFR_REC_WORD	wordpools/wasnorm_wordpool_less_exclusions.txt	LTP231	ltpFR	13	n/a	1	HORSE	719	n/a	n/a	1	n/a	0	0	0	n/a	n/a	n/a	n/a	n/a
3299253	FFR_REC_WORD	wordpools/wasnorm_wordpool_less_exclusions.txt	LTP231	ltpFR	13	n/a	1	STATUE	1374	n/a	n/a	0	n/a	0	0	0	n/a	n/a	n/a	n/a	n/a
3302417	FFR_REC_WORD	wordpools/wasnorm_wordpool_less_exclusions.txt	LTP231	ltpFR	13	n/a	0	TOMATO	1476	n/a	n/a	0	n/a	0	0	0	n/a	n/a	n/a	n/a	n/a
3386999	FFR_REC_WORD	wordpools/wasnorm_wordpool_less_exclusions.txt	LTP231	ltpFR	13	n/a	0	LIMOUSINE	824	n/a	n/a	1	n/a	0	0	0	n/a	n/a	n/a	n/a	n/a
3388641	FFR_REC_WORD	wordpools/wasnorm_wordpool_less_exclusions.txt	LTP231	ltpFR	13	n/a	0	LID	817	n/a	n/a	0	n/a	0	0	0	n/a	n/a	n/a	n/a	n/a
3397052	FFR_REC_WORD_VV	wordpools/wasnorm_wordpool_less_exclusions.txt	LTP231	ltpFR	13	n/a	n/a	<>	-1	n/a	n/a	n/a	n/a	0	0	0	n/a	n/a	n/a	n/a	n/a
3535698	REC_START	n/a	LTP231	ltpFR	13	1	n/a	n/a	n/a	n/a	n/a	n/a	n/a	0	0	0	n/a	n/a	n/a	n/a	n/a
3535747	RECOG_TARGET	n/a	LTP231	ltpFR	13	1	1	QUEEN	1149	1	4	1	n/a	0	0	0	n/a	n/a	n/a	n/a	n/a
3537683	RECOG_RESP	n/a	LTP231	ltpFR	13	1	1	QUEEN	1149	1	n/a	1	n/a	0	0	0	n/a	n/a	n/a	n/a	n/a
3538823	RECOG_CONF	n/a	LTP231	ltpFR	13	1	1	QUEEN	1149	n/a	4	1	n/a	0	0	0	n/a	n/a	n/a	n/a	n/a
3540933	RECOG_TARGET	n/a	LTP231	ltpFR	13	1	1	WHALE	1601	1	4	1	n/a	0	0	0	n/a	n/a	n/a	n/a	n/a
3541699	RECOG_RESP	n/a	LTP231	ltpFR	13	1	1	WHALE	1601	1	n/a	1	n/a	0	0	0	n/a	n/a	n/a	n/a	n/a
3543036	RECOG_CONF	n/a	LTP231	ltpFR	13	1	1	WHALE	1601	n/a	4	1	n/a	0	0	0	n/a	n/a	n/a	n/a	n/a
3544748	RECOG_TARGET	n/a	LTP231	ltpFR	13	1	0	MICROWAVE	892	1	3	0	n/a	0	0	0	n/a	n/a	n/a	n/a	n/a
3545665	RECOG_RESP_VV	n/a	LTP231	ltpFR	13	1	0	MICROWAVE	892	0	n/a	0	n/a	0	0	0	n/a	n/a	n/a	n/a	n/a
3547344	RECOG_RESP	n/a	LTP231	ltpFR	13	1	0	MICROWAVE	892	1	n/a	0	n/a	0	0	0	n/a	n/a	n/a	n/a	n/a
3548680	RECOG_CONF	n/a	LTP231	ltpFR	13	1	0	MICROWAVE	892	n/a	3	0	n/a	0	0	0	n/a	n/a	n/a	n/a	n/a
3550586	RECOG_LURE	n/a	LTP231	ltpFR	13	1	n/a	ORANGE	980	0	3	n/a	n/a	0	0	0	n/a	n/a	n/a	n/a	n/a
3551480	RECOG_RESP	n/a	LTP231	ltpFR	13	1	n/a	ORANGE	980	0	n/a	n/a	n/a	0	0	0	n/a	n/a	n/a	n/a	n/a
3553388	RECOG_CONF	n/a	LTP231	ltpFR	13	1	n/a	ORANGE	980	n/a	3	n/a	n/a	0	0	0	n/a	n/a	n/a	n/a	n/a
3555405	RECOG_TARGET	n/a	LTP231	ltpFR	13	1	0	LIMOUSINE	824	1	5	1	n/a	0	0	0	n/a	n/a	n/a	n/a	n/a
3556201	RECOG_RESP	n/a	LTP231	ltpFR	13	1	0	LIMOUSINE	824	1	n/a	1	n/a	0	0	0	n/a	n/a	n/a	n/a	n/a
3557099	RECOG_CONF	n/a	LTP231	ltpFR	13	1	0	LIMOUSINE	824	n/a	5	1	n/a	0	0	0	n/a	n/a	n/a	n/a	n/a
3559001	RECOG_TARGET	n/a	LTP231	ltpFR	13	1	1	RADISH	1158	1	4	1	n/a	0	0	0	n/a	n/a	n/a	n/a	n/a
3559816	RECOG_RESP	n/a	LTP231	ltpFR	13	1	1	RADISH	1158	1	n/a	1	n/a	0	0	0	n/a	n/a	n/a	n/a	n/a
3560866	RECOG_CONF	n/a	LTP231	ltpFR	13	1	1	RADISH	1158	n/a	4	1	n/a	0	0	0	n/a	n/a	n/a	n/a	n/a
3562665	RECOG_TARGET	n/a	LTP231	ltpFR	13	1	1	ROPE	1211	1	3	0	n/a	0	0	0	n/a	n/a	n/a	n/a	n/a
3563407	RECOG_RESP	n/a	LTP231	ltpFR	13	1	1	ROPE	1211	1	n/a	0	n/a	0	0	0	n/a	n/a	n/a	n/a	n/a
3564318	RECOG_CONF	n/a	LTP231	ltpFR	13	1	1	ROPE	1211	n/a	3	0	n/a	0	0	0	n/a	n/a	n/a	n/a	n/a
3566044	RECOG_TARGET	n/a	LTP231	ltpFR	13	1	1	SIBLING	1301	1	3	1	n/a	0	0	0	n/a	n/a	n/a	n/a	n/a
3567074	RECOG_RESP	n/a	LTP231	ltpFR	13	1	1	SIBLING	1301	1	n/a	1	n/a	0	0	0	n/a	n/a	n/a	n/a	n/a
3568010	RECOG_CONF	n/a	LTP231	ltpFR	13	1	1	SIBLING	1301	n/a	3	1	n/a	0	0	0	n/a	n/a	n/a	n/a	n/a
3569909	RECOG_TARGET	n/a	LTP231	ltpFR	13	1	1	PIPE	1073	1	2	0	n/a	0	0	0	n/a	n/a	n/a	n/a	n/a
3570696	RECOG_RESP	n/a	LTP231	ltpFR	13	1	1	PIPE	1073	1	n/a	0	n/a	0	0	0	n/a	n/a	n/a	n/a	n/a
3571582	RECOG_CONF	n/a	LTP231	ltpFR	13	1	1	PIPE	1073	n/a	2	0	n/a	0	0	0	n/a	n/a	n/a	n/a	n/a
3573340	RECOG_TARGET	n/a	LTP231	ltpFR	13	1	1	PORPOISE	1109	1	4	1	n/a	0	0	0	n/a	n/a	n/a	n/a	n/a
3574048	RECOG_RESP	n/a	LTP231	ltpFR	13	1	1	PORPOISE	1109	1	n/a	1	n/a	0	0	0	n/a	n/a	n/a	n/a	n/a
3574889	RECOG_CONF	n/a	LTP231	ltpFR	13	1	1	PORPOISE	1109	n/a	4	1	n/a	0	0	0	n/a	n/a	n/a	n/a	n/a
3576701	RECOG_TARGET	n/a	LTP231	ltpFR	13	1	1	LIPSTICK	829	1	3	0	n/a	0	0	0	n/a	n/a	n/a	n/a	n/a
3577520	RECOG_RESP	n/a	LTP231	ltpFR	13	1	1	LIPSTICK	829	1	n/a	0	n/a	0	0	0	n/a	n/a	n/a	n/a	n/a
3578506	RECOG_CONF	n/a	LTP231	ltpFR	13	1	1	LIPSTICK	829	n/a	3	0	n/a	0	0	0	n/a	n/a	n/a	n/a	n/a
3580416	RECOG_LURE	n/a	LTP231	ltpFR	13	1	n/a	BROCCOLI	176	0	4	n/a	n/a	0	0	0	n/a	n/a	n/a	n/a	n/a
3581300	RECOG_RESP	n/a	LTP231	ltpFR	13	1	n/a	BROCCOLI	176	0	n/a	n/a	n/a	0	0	0	n/a	n/a	n/a	n/a	n/a
3582170	RECOG_CONF	n/a	LTP231	ltpFR	13	1	n/a	BROCCOLI	176	n/a	4	n/a	n/a	0	0	0	n/a	n/a	n/a	n/a	n/a
3584142	RECOG_TARGET	n/a	LTP231	ltpFR	13	1	0	WORM	1623	1	2	0	n/a	0	0	0	n/a	n/a	n/a	n/a	n/a
3585538	RECOG_RESP	n/a	LTP231	ltpFR	13	1	0	WORM	1623	1	n/a	0	n/a	0	0	0	n/a	n/a	n/a	n/a	n/a
3586482	RECOG_CONF	n/a	LTP231	ltpFR	13	1	0	WORM	1623	n/a	2	0	n/a	0	0	0	n/a	n/a	n/a	n/a	n/a
3588228	RECOG_TARGET	n/a	LTP231	ltpFR	13	1	0	HEAD	695	1	3	0	n/a	0	0	0	n/a	n/a	n/a	n/a	n/a
3589548	RECOG_RESP	n/a	LTP231	ltpFR	13	1	0	HEAD	695	1	n/a	0	n/a	0	0	0	n/a	n/a	n/a	n/a	n/a
3590474	RECOG_CONF	n/a	LTP231	ltpFR	13	1	0	HEAD	695	n/a	3	0	n/a	0	0	0	n/a	n/a	n/a	n/a	n/a
3592294	RECOG_TARGET	n/a	LTP231	ltpFR	13	1	0	CORN	381	1	4	0	n/a	0	0	0	n/a	n/a	n/a	n/a	n/a
3592962	RECOG_RESP	n/a	LTP231	ltpFR	13	1	0	CORN	381	1	n/a	0	n/a	0	0	0	n/a	n/a	n/a	n/a	n/a
3593765	RECOG_CONF	n/a	LTP231	ltpFR	13	1	0	CORN	381	n/a	4	0	n/a	0	0	0	n/a	n/a	n/a	n/a	n/a
3595522	RECOG_TARGET	n/a	LTP231	ltpFR	13	1	0	TERRITORY	1452	1	3	1	n/a	0	0	0	n/a	n/a	n/a	n/a	n/a
3596343	RECOG_RESP	n/a	LTP231	ltpFR	13	1	0	TERRITORY	1452	1	n/a	1	n/a	0	0	0	n/a	n/a	n/a	n/a	n/a
3597245	RECOG_CONF	n/a	LTP231	ltpFR	13	1	0	TERRITORY	1452	n/a	3	1	n/a	0	0	0	n/a	n/a	n/a	n/a	n/a
3599019	RECOG_TARGET	n/a	LTP231	ltpFR	13	1	0	CYLINDER	432	1	4	0	n/a	0	0	0	n/a	n/a	n/a	n/a	n/a
3599877	RECOG_RESP	n/a	LTP231	ltpFR	13	1	0	CYLINDER	432	1	n/a	0	n/a	0	0	0	n/a	n/a	n/a	n/a	n/a
3600764	RECOG_CONF	n/a	LTP231	ltpFR	13	1	0	CYLINDER	432	n/a	4	0	n/a	0	0	0	n/a	n/a	n/a	n/a	n/a
3602616	RECOG_LURE	n/a	LTP231	ltpFR	13	1	n/a	BASKET	95	1	2	n/a	n/a	0	0	0	n/a	n/a	n/a	n/a	n/a
3603289	RECOG_RESP	n/a	LTP231	ltpFR	13	1	n/a	BASKET	95	1	n/a	n/a	n/a	0	0	0	n/a	n/a	n/a	n/a	n/a
3604257	RECOG_CONF	n/a	LTP231	ltpFR	13	1	n/a	BASKET	95	n/a	2	n/a	n/a	0	0	0	n/a	n/a	n/a	n/a	n/a
3605962	RECOG_TARGET	n/a	LTP231	ltpFR	13	1	1	SINK	1309	1	2	0	n/a	0	0	0	n/a	n/a	n/a	n/a	n/a
3606711	RECOG_RESP	n/a	LTP231	ltpFR	13	1	1	SINK	1309	1	n/a	0	n/a	0	0	0	n/a	n/a	n/a	n/a	n/a
3607656	RECOG_CONF	n/a	LTP231	ltpFR	13	1	1	SINK	1309	n/a	2	0	n/a	0	0	0	n/a	n/a	n/a	n/a	n/a
