onset	duration	trial_type	sample	stim_file	subject	experiment	session	trial	task	item_name	item_num	recog_resp	recog_conf	resp	color_r	color_g	color_b	case	font
214.696	n/a	SESS_START	107348	n/a	LTP106	ltpFR	16	n/a	n/a	n/a	n/a	1	5	n/a	n/a	n/a	n/a	n/a	n/a
258.326	n/a	WORD	129163	wordpools/wasnorm_wordpool.txt	LTP106	ltpFR	16	1	1	BRUSH	182	0	1	0	0.422607421875	0.5869140625	0	upper	amplitud.ttf
262.416	n/a	WORD	131208	wordpools/wasnorm_wordpool.txt	LTP106	ltpFR	16	1	1	LEADER	807	1	5	0	0.422607421875	0.5869140625	0	upper	amplitud.ttf
266.274	n/a	WORD	133137	wordpools/wasnorm_wordpool.txt	LTP106	ltpFR	16	1	0	CARDINAL	244	n/a	n/a	n/a	0.57763671875	0.412841796875	1	lower	zerothre.ttf
269.3	n/a	SLOW_MSG	134650	n/a	LTP106	ltpFR	16	1	n/a	n/a	n/a	n/a	n/a	n/a	n/a	n/a	n/a	n/a	n/a
271.792	n/a	WORD	135896	wordpools/wasnorm_wordpool.txt	LTP106	ltpFR	16	1	0	REPTILE	1185	n/a	n/a	0	0.57763671875	0.412841796875	1	lower	zerothre.ttf
275.64	n/a	WORD	137820	wordpools/wasnorm_wordpool.txt	LTP106	ltpFR	16	1	0	PEDESTRIAN	1038	n/a	n/a	1	0.57763671875	0.412841796875	1	lower	zerothre.ttf
279.824	n/a	WORD	139912	wordpools/wasnorm_wordpool.txt	LTP106	ltpFR	16	1	0	PARROT	1015	n/a	n/a	0	0.57763671875	0.412841796875	1	lower	zerothre.ttf
283.932	n/a	WORD	141966	wordpools/wasnorm_wordpool.txt	LTP106	ltpFR	16	1	0	APRON	35	n/a	n/a	0	0.57763671875	0.412841796875	1	lower	zerothre.ttf
287.874	n/a	WORD	143937	wordpools/wasnorm_wordpool.txt	LTP106	ltpFR	16	1	0	GOAT	644	n/a	n/a	1	0.57763671875	0.412841796875	1	lower	zerothre.ttf
292.04	n/a	WORD	146020	wordpools/wasnorm_wordpool.txt	LTP106	ltpFR	16	1	1	SHEEP	1278	n/a	n/a	1	0.422607421875	0.5869140625	0	upper	amplitud.ttf
295.99	n/a	WORD	147995	wordpools/wasnorm_wordpool.txt	LTP106	ltpFR	16	1	1	PUCK	1138	n/a	n/a	0	0.422607421875	0.5869140625	0	upper	amplitud.ttf
299.99	n/a	WORD	149995	wordpools/wasnorm_wordpool.txt	LTP106	ltpFR	16	1	1	FLEET	578	n/a	n/a	0	0.422607421875	0.5869140625	0	upper	amplitud.ttf
303.832	n/a	WORD	151916	wordpools/wasnorm_wordpool.txt	LTP106	ltpFR	16	1	1	CABINET	212	n/a	n/a	0	0.422607421875	0.5869140625	0	upper	amplitud.ttf
307.766	n/a	WORD	153883	wordpools/wasnorm_wordpool.txt	LTP106	ltpFR	16	1	1	GRIZZLY	662	n/a	n/a	1	0.422607421875	0.5869140625	0	upper	amplitud.ttf
311.948	n/a	WORD	155974	wordpools/wasnorm_wordpool.txt	LTP106	ltpFR	16	1	1	CRAB	397	n/a	n/a	1	0.422607421875	0.5869140625	0	upper	amplitud.ttf
316.048	n/a	WORD	158024	wordpools/wasnorm_wordpool.txt	LTP106	ltpFR	16	1	0	ALBUM	14	n/a	n/a	0	0.57763671875	0.412841796875	1	lower	zerothre.ttf
319.948	n/a	WORD	159974	wordpools/wasnorm_wordpool.txt	LTP106	ltpFR	16	1	0	DRAWING	494	n/a	n/a	0	0.57763671875	0.412841796875	1	lower	zerothre.ttf
325.816	n/a	REC_START	162908	n/a	LTP106	ltpFR	16	1	n/a	n/a	n/a	n/a	n/a	n/a	n/a	n/a	n/a	n/a	n/a
326.414	n/a	REC_WORD	163207	wordpools/wasnorm_wordpool.txt	LTP106	ltpFR	16	1	0	ALBUM	14	n/a	n/a	0	n/a	n/a	n/a	n/a	n/a
327.1	n/a	REC_WORD	163550	wordpools/wasnorm_wordpool.txt	LTP106	ltpFR	16	1	0	DRAWING	494	n/a	n/a	0	n/a	n/a	n/a	n/a	n/a
327.732	n/a	REC_WORD	163866	wordpools/wasnorm_wordpool.txt	LTP106	ltpFR	16	1	1	FLEET	578	n/a	n/a	0	n/a	n/a	n/a	n/a	n/a
328.418	n/a	REC_WORD	164209	wordpools/wasnorm_wordpool.txt	LTP106	ltpFR	16	1	1	SHEEP	1278	n/a	n/a	1	n/a	n/a	n/a	n/a	n/a
329.2	n/a	REC_WORD	164600	wordpools/wasnorm_wordpool.txt	LTP106	ltpFR	16	1	0	PARROT	1015	n/a	n/a	0	n/a	n/a	n/a	n/a	n/a
329.95	n/a	REC_WORD	164975	wordpools/wasnorm_wordpool.txt	LTP106	ltpFR	16	1	0	GOAT	644	n/a	n/a	1	n/a	n/a	n/a	n/a	n/a
330.632	n/a	REC_WORD	165316	wordpools/wasnorm_wordpool.txt	LTP106	ltpFR	16	1	0	CARDINAL	244	n/a	n/a	n/a	n/a	n/a	n/a	n/a	n/a
331.288	n/a	REC_WORD	165644	wordpools/wasnorm_wordpool.txt	LTP106	ltpFR	16	1	1	LEADER	807	n/a	n/a	0	n/a	n/a	n/a	n/a	n/a
331.938	n/a	REC_WORD	165969	wordpools/wasnorm_wordpool.txt	LTP106	ltpFR	16	1	0	PEDESTRIAN	1038	n/a	n/a	1	n/a	n/a	n/a	n/a	n/a
332.882	n/a	REC_WORD	166441	wordpools/wasnorm_wordpool.txt	LTP106	ltpFR	16	1	0	APRON	35	n/a	n/a	0	n/a	n/a	n/a	n/a	n/a
335.468	n/a	REC_WORD	167734	wordpools/wasnorm_wordpool.txt	LTP106	ltpFR	16	1	1	GRIZZLY	662	n/a	n/a	1	n/a	n/a	n/a	n/a	n/a
341.34	n/a	REC_WORD	170670	wordpools/wasnorm_wordpool.txt	LTP106	ltpFR	16	1	1	BRUSH	182	n/a	n/a	0	n/a	n/a	n/a	n/a	n/a
354.578	n/a	REC_WORD	177289	wordpools/wasnorm_wordpool.txt	LTP106	ltpFR	16	1	1	CRAB	397	n/a	n/a	1	n/a	n/a	n/a	n/a	n/a
389.63	n/a	REC_WORD	194815	wordpools/wasnorm_wordpool.txt	LTP106	ltpFR	16	1	n/a	PEANUT	1032	n/a	n/a	n/a	n/a	n/a	n/a	n/a	n/a
397.842	n/a	REC_WORD	198921	wordpools/wasnorm_wordpool.txt	LTP106	ltpFR	16	1	n/a	KID	775	n/a	n/a	n/a	n/a	n/a	n/a	n/a	n/a
404.772	n/a	WORD	202386	wordpools/wasnorm_wordpool.txt	LTP106	ltpFR	16	2	0	DANDELION	438	n/a	n/a	0	0.57763671875	0.412841796875	1	lower	zerothre.ttf
408.97	n/a	WORD	204485	wordpools/wasnorm_wordpool.txt	LTP106	ltpFR	16	2	0	VOLCANO	1575	n/a	n/a	1	0.57763671875	0.412841796875	1	lower	zerothre.ttf
412.904	n/a	WORD	206452	wordpools/wasnorm_wordpool.txt	LTP106	ltpFR	16	2	0	RABBIT	1152	n/a	n/a	0	0.57763671875	0.412841796875	1	lower	zerothre.ttf
416.822	n/a	WORD	208411	wordpools/wasnorm_wordpool.txt	LTP106	ltpFR	16	2	0	BEAD	103	n/a	n/a	0	0.57763671875	0.412841796875	1	lower	zerothre.ttf
420.988	n/a	WORD	210494	wordpools/wasnorm_wordpool.txt	LTP106	ltpFR	16	2	0	MUSHROOM	934	n/a	n/a	0	0.57763671875	0.412841796875	1	lower	zerothre.ttf
424.988	n/a	WORD	212494	wordpools/wasnorm_wordpool.txt	LTP106	ltpFR	16	2	1	GARDEN	623	n/a	n/a	0	0.422607421875	0.5869140625	0	upper	amplitud.ttf
428.936	n/a	WORD	214468	wordpools/wasnorm_wordpool.txt	LTP106	ltpFR	16	2	1	DYNAMITE	511	n/a	n/a	0	0.422607421875	0.5869140625	0	upper	amplitud.ttf
432.904	n/a	WORD	216452	wordpools/wasnorm_wordpool.txt	LTP106	ltpFR	16	2	1	PALACE	1006	n/a	n/a	0	0.422607421875	0.5869140625	0	upper	amplitud.ttf
436.804	n/a	WORD	218402	wordpools/wasnorm_wordpool.txt	LTP106	ltpFR	16	2	1	CHEF	290	n/a	n/a	1	0.422607421875	0.5869140625	0	upper	amplitud.ttf
440.686	n/a	WORD	220343	wordpools/wasnorm_wordpool.txt	LTP106	ltpFR	16	2	0	STAKE	1368	n/a	n/a	0	0.57763671875	0.412841796875	1	lower	zerothre.ttf
444.636	n/a	WORD	222318	wordpools/wasnorm_wordpool.txt	LTP106	ltpFR	16	2	0	FLOWER	584	n/a	n/a	0	0.57763671875	0.412841796875	1	lower	zerothre.ttf
448.752	n/a	WORD	224376	wordpools/wasnorm_wordpool.txt	LTP106	ltpFR	16	2	0	FEATHER	557	n/a	n/a	0	0.57763671875	0.412841796875	1	lower	zerothre.ttf
452.586	n/a	WORD	226293	wordpools/wasnorm_wordpool.txt	LTP106	ltpFR	16	2	1	SWAN	1417	n/a	n/a	1	0.422607421875	0.5869140625	0	upper	amplitud.ttf
456.57	n/a	WORD	228285	wordpools/wasnorm_wordpool.txt	LTP106	ltpFR	16	2	1	TOTE	1487	n/a	n/a	0	0.422607421875	0.5869140625	0	upper	amplitud.ttf
460.394	n/a	WORD	230197	wordpools/wasnorm_wordpool.txt	LTP106	ltpFR	16	2	1	KNAPSACK	783	n/a	n/a	0	0.422607421875	0.5869140625	0	upper	amplitud.ttf
464.536	n/a	WORD	232268	wordpools/wasnorm_wordpool.txt	LTP106	ltpFR	16	2	1	HOE	711	n/a	n/a	0	0.422607421875	0.5869140625	0	upper	amplitud.ttf
470.286	n/a	REC_START	235143	n/a	LTP106	ltpFR	16	2	n/a	n/a	n/a	n/a	n/a	n/a	n/a	n/a	n/a	n/a	n/a
470.786	n/a	REC_WORD	235393	wordpools/wasnorm_wordpool.txt	LTP106	ltpFR	16	2	1	KNAPSACK	783	n/a	n/a	0	n/a	n/a	n/a	n/a	n/a
471.562	n/a	REC_WORD	235781	wordpools/wasnorm_wordpool.txt	LTP106	ltpFR	16	2	1	TOTE	1487	n/a	n/a	0	n/a	n/a	n/a	n/a	n/a
472.292	n/a	REC_WORD	236146	wordpools/wasnorm_wordpool.txt	LTP106	ltpFR	16	2	0	BEAD	103	n/a	n/a	0	n/a	n/a	n/a	n/a	n/a
472.968	n/a	REC_WORD	236484	wordpools/wasnorm_wordpool.txt	LTP106	ltpFR	16	2	1	GARDEN	623	n/a	n/a	0	n/a	n/a	n/a	n/a	n/a
473.648	n/a	REC_WORD	236824	wordpools/wasnorm_wordpool.txt	LTP106	ltpFR	16	2	1	PALACE	1006	n/a	n/a	0	n/a	n/a	n/a	n/a	n/a
474.316	n/a	REC_WORD	237158	wordpools/wasnorm_wordpool.txt	LTP106	ltpFR	16	2	1	CHEF	290	n/a	n/a	1	n/a	n/a	n/a	n/a	n/a
475.12	n/a	REC_WORD	237560	wordpools/wasnorm_wordpool.txt	LTP106	ltpFR	16	2	1	HOE	711	n/a	n/a	0	n/a	n/a	n/a	n/a	n/a
476.182	n/a	REC_WORD	238091	wordpools/wasnorm_wordpool.txt	LTP106	ltpFR	16	2	0	VOLCANO	1575	n/a	n/a	1	n/a	n/a	n/a	n/a	n/a
477.096	n/a	REC_WORD	238548	wordpools/wasnorm_wordpool.txt	LTP106	ltpFR	16	2	1	DYNAMITE	511	n/a	n/a	0	n/a	n/a	n/a	n/a	n/a
478.488	n/a	REC_WORD	239244	wordpools/wasnorm_wordpool.txt	LTP106	ltpFR	16	2	0	RABBIT	1152	n/a	n/a	0	n/a	n/a	n/a	n/a	n/a
481.054	n/a	REC_WORD	240527	wordpools/wasnorm_wordpool.txt	LTP106	ltpFR	16	2	0	DANDELION	438	n/a	n/a	0	n/a	n/a	n/a	n/a	n/a
481.78	n/a	REC_WORD	240890	wordpools/wasnorm_wordpool.txt	LTP106	ltpFR	16	2	0	FLOWER	584	n/a	n/a	0	n/a	n/a	n/a	n/a	n/a
484.842	n/a	REC_WORD_VV	242421	wordpools/wasnorm_wordpool.txt	LTP106	ltpFR	16	2	n/a	<>	-1	n/a	n/a	n/a	n/a	n/a	n/a	n/a	n/a
487.594	n/a	REC_WORD	243797	wordpools/wasnorm_wordpool.txt	LTP106	ltpFR	16	2	0	VOLCANO	1575	n/a	n/a	1	n/a	n/a	n/a	n/a	n/a
493.358	n/a	REC_WORD	246679	wordpools/wasnorm_wordpool.txt	LTP106	ltpFR	16	2	n/a	STEAK	-1	n/a	n/a	n/a	n/a	n/a	n/a	n/a	n/a
494.102	n/a	REC_WORD	247051	wordpools/wasnorm_wordpool.txt	LTP106	ltpFR	16	2	1	SWAN	1417	n/a	n/a	1	n/a	n/a	n/a	n/a	n/a
494.844	n/a	REC_WORD	247422	wordpools/wasnorm_wordpool.txt	LTP106	ltpFR	16	2	0	FEATHER	557	n/a	n/a	0	n/a	n/a	n/a	n/a	n/a
536.04	n/a	REC_WORD	268020	wordpools/wasnorm_wordpool.txt	LTP106	ltpFR	16	2	n/a	BAG	69	n/a	n/a	n/a	n/a	n/a	n/a	n/a	n/a
539.966	n/a	REC_WORD	269983	wordpools/wasnorm_wordpool.txt	LTP106	ltpFR	16	2	n/a	BUNNY	198	n/a	n/a	n/a	n/a	n/a	n/a	n/a	n/a
544.026	n/a	REC_WORD	272013	wordpools/wasnorm_wordpool.txt	LTP106	ltpFR	16	2	n/a	LAVA	804	n/a	n/a	n/a	n/a	n/a	n/a	n/a	n/a
548.266	n/a	WORD	274133	wordpools/wasnorm_wordpool.txt	LTP106	ltpFR	16	3	1	ALLIGATOR	16	n/a	n/a	1	0.422607421875	0.5869140625	0	upper	amplitud.ttf
552.184	n/a	WORD	276092	wordpools/wasnorm_wordpool.txt	LTP106	ltpFR	16	3	1	FOUNTAIN	597	n/a	n/a	0	0.422607421875	0.5869140625	0	upper	amplitud.ttf
556.192	n/a	WORD	278096	wordpools/wasnorm_wordpool.txt	LTP106	ltpFR	16	3	0	MINT	898	n/a	n/a	0	0.57763671875	0.412841796875	1	lower	zerothre.ttf
560.284	n/a	WORD	280142	wordpools/wasnorm_wordpool.txt	LTP106	ltpFR	16	3	0	PASTRY	1022	n/a	n/a	0	0.57763671875	0.412841796875	1	lower	zerothre.ttf
564.376	n/a	WORD	282188	wordpools/wasnorm_wordpool.txt	LTP106	ltpFR	16	3	0	KING	777	n/a	n/a	1	0.57763671875	0.412841796875	1	lower	zerothre.ttf
568.308	n/a	WORD	284154	wordpools/wasnorm_wordpool.txt	LTP106	ltpFR	16	3	0	RECEPTIONIST	1174	n/a	n/a	1	0.57763671875	0.412841796875	1	lower	zerothre.ttf
572.292	n/a	WORD	286146	wordpools/wasnorm_wordpool.txt	LTP106	ltpFR	16	3	0	BOOTH	151	n/a	n/a	1	0.57763671875	0.412841796875	1	lower	zerothre.ttf
576.226	n/a	WORD	288113	wordpools/wasnorm_wordpool.txt	LTP106	ltpFR	16	3	0	HANDCUFFS	685	n/a	n/a	0	0.57763671875	0.412841796875	1	lower	zerothre.ttf
580.316	n/a	WORD	290158	wordpools/wasnorm_wordpool.txt	LTP106	ltpFR	16	3	1	PUPPY	1144	n/a	n/a	1	0.422607421875	0.5869140625	0	upper	amplitud.ttf
584.448	n/a	WORD	292224	wordpools/wasnorm_wordpool.txt	LTP106	ltpFR	16	3	1	PAW	1029	n/a	n/a	0	0.422607421875	0.5869140625	0	upper	amplitud.ttf
588.514	n/a	WORD	294257	wordpools/wasnorm_wordpool.txt	LTP106	ltpFR	16	3	1	ZEBRA	1635	n/a	n/a	1	0.422607421875	0.5869140625	0	upper	amplitud.ttf
592.458	n/a	WORD	296229	wordpools/wasnorm_wordpool.txt	LTP106	ltpFR	16	3	1	PRINCESS	1125	n/a	n/a	1	0.422607421875	0.5869140625	0	upper	amplitud.ttf
596.324	n/a	WORD	298162	wordpools/wasnorm_wordpool.txt	LTP106	ltpFR	16	3	1	DETECTIVE	454	n/a	n/a	1	0.422607421875	0.5869140625	0	upper	amplitud.ttf
600.332	n/a	WORD	300166	wordpools/wasnorm_wordpool.txt	LTP106	ltpFR	16	3	1	CHILD	299	n/a	n/a	1	0.422607421875	0.5869140625	0	upper	amplitud.ttf
604.44	n/a	WORD	302220	wordpools/wasnorm_wordpool.txt	LTP106	ltpFR	16	3	0	ORCHID	982	n/a	n/a	0	0.57763671875	0.412841796875	1	lower	zerothre.ttf
608.622	n/a	WORD	304311	wordpools/wasnorm_wordpool.txt	LTP106	ltpFR	16	3	0	CATERPILLAR	259	n/a	n/a	0	0.57763671875	0.412841796875	1	lower	zerothre.ttf
614.366	n/a	REC_START	307183	n/a	LTP106	ltpFR	16	3	n/a	n/a	n/a	n/a	n/a	n/a	n/a	n/a	n/a	n/a	n/a
615.078	n/a	REC_WORD	307539	wordpools/wasnorm_wordpool.txt	LTP106	ltpFR	16	3	0	ORCHID	982	n/a	n/a	0	n/a	n/a	n/a	n/a	n/a
615.72	n/a	REC_WORD	307860	wordpools/wasnorm_wordpool.txt	LTP106	ltpFR	16	3	0	CATERPILLAR	259	n/a	n/a	0	n/a	n/a	n/a	n/a	n/a
616.586	n/a	REC_WORD	308293	wordpools/wasnorm_wordpool.txt	LTP106	ltpFR	16	3	1	PRINCESS	1125	n/a	n/a	1	n/a	n/a	n/a	n/a	n/a
617.294	n/a	REC_WORD	308647	wordpools/wasnorm_wordpool.txt	LTP106	ltpFR	16	3	1	CHILD	299	n/a	n/a	1	n/a	n/a	n/a	n/a	n/a
617.964	n/a	REC_WORD	308982	wordpools/wasnorm_wordpool.txt	LTP106	ltpFR	16	3	0	KING	777	n/a	n/a	1	n/a	n/a	n/a	n/a	n/a
618.718	n/a	REC_WORD	309359	wordpools/wasnorm_wordpool.txt	LTP106	ltpFR	16	3	0	RECEPTIONIST	1174	n/a	n/a	1	n/a	n/a	n/a	n/a	n/a
619.972	n/a	REC_WORD	309986	wordpools/wasnorm_wordpool.txt	LTP106	ltpFR	16	3	1	DETECTIVE	454	n/a	n/a	1	n/a	n/a	n/a	n/a	n/a
622.434	n/a	REC_WORD	311217	wordpools/wasnorm_wordpool.txt	LTP106	ltpFR	16	3	1	ALLIGATOR	16	n/a	n/a	1	n/a	n/a	n/a	n/a	n/a
623.224	n/a	REC_WORD	311612	wordpools/wasnorm_wordpool.txt	LTP106	ltpFR	16	3	1	FOUNTAIN	597	n/a	n/a	0	n/a	n/a	n/a	n/a	n/a
624.016	n/a	REC_WORD	312008	wordpools/wasnorm_wordpool.txt	LTP106	ltpFR	16	3	1	PUPPY	1144	n/a	n/a	1	n/a	n/a	n/a	n/a	n/a
624.666	n/a	REC_WORD	312333	wordpools/wasnorm_wordpool.txt	LTP106	ltpFR	16	3	1	PAW	1029	n/a	n/a	0	n/a	n/a	n/a	n/a	n/a
628.494	n/a	REC_WORD	314247	wordpools/wasnorm_wordpool.txt	LTP106	ltpFR	16	3	0	BOOTH	151	n/a	n/a	1	n/a	n/a	n/a	n/a	n/a
640.398	n/a	REC_WORD	320199	wordpools/wasnorm_wordpool.txt	LTP106	ltpFR	16	3	0	MINT	898	n/a	n/a	0	n/a	n/a	n/a	n/a	n/a
641.106	n/a	REC_WORD	320553	wordpools/wasnorm_wordpool.txt	LTP106	ltpFR	16	3	0	PASTRY	1022	n/a	n/a	0	n/a	n/a	n/a	n/a	n/a
654.21	n/a	REC_WORD	327105	wordpools/wasnorm_wordpool.txt	LTP106	ltpFR	16	3	0	ORCHID	982	n/a	n/a	0	n/a	n/a	n/a	n/a	n/a
671.91	n/a	REC_WORD	335955	wordpools/wasnorm_wordpool.txt	LTP106	ltpFR	16	3	0	RABBIT	1152	n/a	n/a	0	n/a	n/a	n/a	n/a	n/a
687.758	n/a	REC_WORD_VV	343879	wordpools/wasnorm_wordpool.txt	LTP106	ltpFR	16	3	n/a	<>	-1	n/a	n/a	n/a	n/a	n/a	n/a	n/a	n/a
692.18	n/a	WORD	346090	wordpools/wasnorm_wordpool.txt	LTP106	ltpFR	16	4	0	CONTAINER	366	n/a	n/a	0	0.57763671875	0.412841796875	1	lower	zerothre.ttf
696.322	n/a	WORD	348161	wordpools/wasnorm_wordpool.txt	LTP106	ltpFR	16	4	0	BRIDE	173	n/a	n/a	1	0.57763671875	0.412841796875	1	lower	zerothre.ttf
700.462	n/a	WORD	350231	wordpools/wasnorm_wordpool.txt	LTP106	ltpFR	16	4	0	ROOM	1206	n/a	n/a	1	0.57763671875	0.412841796875	1	lower	zerothre.ttf
704.412	n/a	WORD	352206	wordpools/wasnorm_wordpool.txt	LTP106	ltpFR	16	4	0	LOBBY	836	n/a	n/a	1	0.57763671875	0.412841796875	1	lower	zerothre.ttf
708.488	n/a	WORD	354244	wordpools/wasnorm_wordpool.txt	LTP106	ltpFR	16	4	0	WALLET	1583	n/a	n/a	0	0.57763671875	0.412841796875	1	lower	zerothre.ttf
712.612	n/a	WORD	356306	wordpools/wasnorm_wordpool.txt	LTP106	ltpFR	16	4	0	PENNY	1045	n/a	n/a	0	0.57763671875	0.412841796875	1	lower	zerothre.ttf
716.486	n/a	WORD	358243	wordpools/wasnorm_wordpool.txt	LTP106	ltpFR	16	4	0	SHRUB	1299	n/a	n/a	1	0.57763671875	0.412841796875	1	lower	zerothre.ttf
720.428	n/a	WORD	360214	wordpools/wasnorm_wordpool.txt	LTP106	ltpFR	16	4	0	VIDEO	1564	n/a	n/a	0	0.57763671875	0.412841796875	1	lower	zerothre.ttf
724.428	n/a	WORD	362214	wordpools/wasnorm_wordpool.txt	LTP106	ltpFR	16	4	0	BEDROOM	111	n/a	n/a	1	0.57763671875	0.412841796875	1	lower	zerothre.ttf
728.454	n/a	WORD	364227	wordpools/wasnorm_wordpool.txt	LTP106	ltpFR	16	4	0	JAW	751	n/a	n/a	0	0.57763671875	0.412841796875	1	lower	zerothre.ttf
732.554	n/a	WORD	366277	wordpools/wasnorm_wordpool.txt	LTP106	ltpFR	16	4	0	LID	817	n/a	n/a	0	0.57763671875	0.412841796875	1	lower	zerothre.ttf
736.504	n/a	WORD	368252	wordpools/wasnorm_wordpool.txt	LTP106	ltpFR	16	4	0	TERMINAL	1450	n/a	n/a	1	0.57763671875	0.412841796875	1	lower	zerothre.ttf
740.71	n/a	WORD	370355	wordpools/wasnorm_wordpool.txt	LTP106	ltpFR	16	4	0	TOURIST	1488	n/a	n/a	1	0.57763671875	0.412841796875	1	lower	zerothre.ttf
744.702	n/a	WORD	372351	wordpools/wasnorm_wordpool.txt	LTP106	ltpFR	16	4	0	DIAGRAM	456	n/a	n/a	0	0.57763671875	0.412841796875	1	lower	zerothre.ttf
748.578	n/a	WORD	374289	wordpools/wasnorm_wordpool.txt	LTP106	ltpFR	16	4	0	BUSH	202	n/a	n/a	1	0.57763671875	0.412841796875	1	lower	zerothre.ttf
752.602	n/a	WORD	376301	wordpools/wasnorm_wordpool.txt	LTP106	ltpFR	16	4	0	DRILL	497	n/a	n/a	0	0.57763671875	0.412841796875	1	lower	zerothre.ttf
758.436	n/a	REC_START	379218	n/a	LTP106	ltpFR	16	4	n/a	n/a	n/a	n/a	n/a	n/a	n/a	n/a	n/a	n/a	n/a
758.87	n/a	REC_WORD	379435	wordpools/wasnorm_wordpool.txt	LTP106	ltpFR	16	4	0	BUSH	202	n/a	n/a	1	n/a	n/a	n/a	n/a	n/a
759.458	n/a	REC_WORD	379729	wordpools/wasnorm_wordpool.txt	LTP106	ltpFR	16	4	0	DRILL	497	n/a	n/a	0	n/a	n/a	n/a	n/a	n/a
760.0	n/a	REC_WORD	380000	wordpools/wasnorm_wordpool.txt	LTP106	ltpFR	16	4	0	SHRUB	1299	n/a	n/a	1	n/a	n/a	n/a	n/a	n/a
760.712	n/a	REC_WORD	380356	wordpools/wasnorm_wordpool.txt	LTP106	ltpFR	16	4	0	WALLET	1583	n/a	n/a	0	n/a	n/a	n/a	n/a	n/a
761.386	n/a	REC_WORD	380693	wordpools/wasnorm_wordpool.txt	LTP106	ltpFR	16	4	0	PENNY	1045	n/a	n/a	0	n/a	n/a	n/a	n/a	n/a
761.996	n/a	REC_WORD	380998	wordpools/wasnorm_wordpool.txt	LTP106	ltpFR	16	4	0	LOBBY	836	n/a	n/a	1	n/a	n/a	n/a	n/a	n/a
762.728	n/a	REC_WORD	381364	wordpools/wasnorm_wordpool.txt	LTP106	ltpFR	16	4	0	TERMINAL	1450	n/a	n/a	1	n/a	n/a	n/a	n/a	n/a
763.616	n/a	REC_WORD	381808	wordpools/wasnorm_wordpool.txt	LTP106	ltpFR	16	4	0	TOURIST	1488	n/a	n/a	1	n/a	n/a	n/a	n/a	n/a
766.294	n/a	REC_WORD	383147	wordpools/wasnorm_wordpool.txt	LTP106	ltpFR	16	4	0	BEDROOM	111	n/a	n/a	1	n/a	n/a	n/a	n/a	n/a
767.04	n/a	REC_WORD	383520	wordpools/wasnorm_wordpool.txt	LTP106	ltpFR	16	4	0	ROOM	1206	n/a	n/a	1	n/a	n/a	n/a	n/a	n/a
768.06	n/a	REC_WORD	384030	wordpools/wasnorm_wordpool.txt	LTP106	ltpFR	16	4	0	BRIDE	173	n/a	n/a	1	n/a	n/a	n/a	n/a	n/a
768.67	n/a	REC_WORD	384335	wordpools/wasnorm_wordpool.txt	LTP106	ltpFR	16	4	0	CONTAINER	366	n/a	n/a	0	n/a	n/a	n/a	n/a	n/a
769.54	n/a	REC_WORD	384770	wordpools/wasnorm_wordpool.txt	LTP106	ltpFR	16	4	0	LID	817	n/a	n/a	0	n/a	n/a	n/a	n/a	n/a
770.698	n/a	REC_WORD	385349	wordpools/wasnorm_wordpool.txt	LTP106	ltpFR	16	4	0	DRILL	497	n/a	n/a	0	n/a	n/a	n/a	n/a	n/a
782.618	n/a	REC_WORD_VV	391309	wordpools/wasnorm_wordpool.txt	LTP106	ltpFR	16	4	n/a	<>	-1	n/a	n/a	n/a	n/a	n/a	n/a	n/a	n/a
807.586	n/a	REC_WORD	403793	wordpools/wasnorm_wordpool.txt	LTP106	ltpFR	16	4	0	GOAT	644	n/a	n/a	1	n/a	n/a	n/a	n/a	n/a
813.246	n/a	REC_WORD	406623	wordpools/wasnorm_wordpool.txt	LTP106	ltpFR	16	4	0	CONTAINER	366	n/a	n/a	0	n/a	n/a	n/a	n/a	n/a
827.456	n/a	REC_WORD	413728	wordpools/wasnorm_wordpool.txt	LTP106	ltpFR	16	4	n/a	HONEYMOON	-1	n/a	n/a	n/a	n/a	n/a	n/a	n/a	n/a
836.226	n/a	WORD	418113	wordpools/wasnorm_wordpool.txt	LTP106	ltpFR	16	5	-1	ACID	2	n/a	n/a	-1	1.0	1.0	1	upper	Verdana.ttf
840.118	n/a	WORD	420059	wordpools/wasnorm_wordpool.txt	LTP106	ltpFR	16	5	-1	COURSE	390	n/a	n/a	-1	1.0	1.0	1	upper	Verdana.ttf
844.244	n/a	WORD	422122	wordpools/wasnorm_wordpool.txt	LTP106	ltpFR	16	5	-1	GLACIER	638	n/a	n/a	-1	1.0	1.0	1	upper	Verdana.ttf
848.176	n/a	WORD	424088	wordpools/wasnorm_wordpool.txt	LTP106	ltpFR	16	5	-1	LOLLIPOP	842	n/a	n/a	-1	1.0	1.0	1	upper	Verdana.ttf
852.018	n/a	WORD	426009	wordpools/wasnorm_wordpool.txt	LTP106	ltpFR	16	5	-1	PLUM	1090	n/a	n/a	-1	1.0	1.0	1	upper	Verdana.ttf
855.842	n/a	WORD	427921	wordpools/wasnorm_wordpool.txt	LTP106	ltpFR	16	5	-1	REEF	1177	n/a	n/a	-1	1.0	1.0	1	upper	Verdana.ttf
859.884	n/a	WORD	429942	wordpools/wasnorm_wordpool.txt	LTP106	ltpFR	16	5	-1	FAUCET	555	n/a	n/a	-1	1.0	1.0	1	upper	Verdana.ttf
864.092	n/a	WORD	432046	wordpools/wasnorm_wordpool.txt	LTP106	ltpFR	16	5	-1	FOOTBALL	591	n/a	n/a	-1	1.0	1.0	1	upper	Verdana.ttf
867.934	n/a	WORD	433967	wordpools/wasnorm_wordpool.txt	LTP106	ltpFR	16	5	-1	ATHLETE	52	n/a	n/a	-1	1.0	1.0	1	upper	Verdana.ttf
871.75	n/a	WORD	435875	wordpools/wasnorm_wordpool.txt	LTP106	ltpFR	16	5	-1	DICE	461	n/a	n/a	-1	1.0	1.0	1	upper	Verdana.ttf
875.666	n/a	WORD	437833	wordpools/wasnorm_wordpool.txt	LTP106	ltpFR	16	5	-1	DINNER	468	n/a	n/a	-1	1.0	1.0	1	upper	Verdana.ttf
879.598	n/a	WORD	439799	wordpools/wasnorm_wordpool.txt	LTP106	ltpFR	16	5	-1	VINEGAR	1569	n/a	n/a	-1	1.0	1.0	1	upper	Verdana.ttf
883.5	n/a	WORD	441750	wordpools/wasnorm_wordpool.txt	LTP106	ltpFR	16	5	-1	DIVER	476	n/a	n/a	-1	1.0	1.0	1	upper	Verdana.ttf
887.532	n/a	WORD	443766	wordpools/wasnorm_wordpool.txt	LTP106	ltpFR	16	5	-1	BROOK	177	n/a	n/a	-1	1.0	1.0	1	upper	Verdana.ttf
891.424	n/a	WORD	445712	wordpools/wasnorm_wordpool.txt	LTP106	ltpFR	16	5	-1	RASPBERRY	1168	n/a	n/a	-1	1.0	1.0	1	upper	Verdana.ttf
895.416	n/a	WORD	447708	wordpools/wasnorm_wordpool.txt	LTP106	ltpFR	16	5	-1	DRUG	501	n/a	n/a	-1	1.0	1.0	1	upper	Verdana.ttf
901.024	n/a	REC_START	450512	n/a	LTP106	ltpFR	16	5	n/a	n/a	n/a	n/a	n/a	n/a	n/a	n/a	n/a	n/a	n/a
901.616	n/a	REC_WORD	450808	wordpools/wasnorm_wordpool.txt	LTP106	ltpFR	16	5	-1	VINEGAR	1569	n/a	n/a	-1	n/a	n/a	n/a	n/a	n/a
902.316	n/a	REC_WORD	451158	wordpools/wasnorm_wordpool.txt	LTP106	ltpFR	16	5	-1	DIVER	476	n/a	n/a	-1	n/a	n/a	n/a	n/a	n/a
903.136	n/a	REC_WORD	451568	wordpools/wasnorm_wordpool.txt	LTP106	ltpFR	16	5	-1	BROOK	177	n/a	n/a	-1	n/a	n/a	n/a	n/a	n/a
903.732	n/a	REC_WORD	451866	wordpools/wasnorm_wordpool.txt	LTP106	ltpFR	16	5	-1	RASPBERRY	1168	n/a	n/a	-1	n/a	n/a	n/a	n/a	n/a
905.41	n/a	REC_WORD	452705	wordpools/wasnorm_wordpool.txt	LTP106	ltpFR	16	5	-1	COURSE	390	n/a	n/a	-1	n/a	n/a	n/a	n/a	n/a
907.09	n/a	REC_WORD	453545	wordpools/wasnorm_wordpool.txt	LTP106	ltpFR	16	5	-1	ACID	2	n/a	n/a	-1	n/a	n/a	n/a	n/a	n/a
907.866	n/a	REC_WORD	453933	wordpools/wasnorm_wordpool.txt	LTP106	ltpFR	16	5	-1	GLACIER	638	n/a	n/a	-1	n/a	n/a	n/a	n/a	n/a
908.602	n/a	REC_WORD	454301	wordpools/wasnorm_wordpool.txt	LTP106	ltpFR	16	5	-1	REEF	1177	n/a	n/a	-1	n/a	n/a	n/a	n/a	n/a
909.278	n/a	REC_WORD	454639	wordpools/wasnorm_wordpool.txt	LTP106	ltpFR	16	5	-1	FAUCET	555	n/a	n/a	-1	n/a	n/a	n/a	n/a	n/a
910.09	n/a	REC_WORD	455045	wordpools/wasnorm_wordpool.txt	LTP106	ltpFR	16	5	-1	ATHLETE	52	n/a	n/a	-1	n/a	n/a	n/a	n/a	n/a
910.822	n/a	REC_WORD	455411	wordpools/wasnorm_wordpool.txt	LTP106	ltpFR	16	5	-1	LOLLIPOP	842	n/a	n/a	-1	n/a	n/a	n/a	n/a	n/a
911.568	n/a	REC_WORD	455784	wordpools/wasnorm_wordpool.txt	LTP106	ltpFR	16	5	-1	PLUM	1090	n/a	n/a	-1	n/a	n/a	n/a	n/a	n/a
912.902	n/a	REC_WORD	456451	wordpools/wasnorm_wordpool.txt	LTP106	ltpFR	16	5	-1	FOOTBALL	591	n/a	n/a	-1	n/a	n/a	n/a	n/a	n/a
939.44	n/a	REC_WORD	469720	wordpools/wasnorm_wordpool.txt	LTP106	ltpFR	16	5	-1	DRUG	501	n/a	n/a	-1	n/a	n/a	n/a	n/a	n/a
984.656	n/a	WORD	492328	wordpools/wasnorm_wordpool.txt	LTP106	ltpFR	16	6	1	ROBBER	1197	n/a	n/a	1	0.422607421875	0.5869140625	0	upper	amplitud.ttf
988.738	n/a	WORD	494369	wordpools/wasnorm_wordpool.txt	LTP106	ltpFR	16	6	1	SCAPEGOAT	1244	n/a	n/a	1	0.422607421875	0.5869140625	0	upper	amplitud.ttf
992.588	n/a	WORD	496294	wordpools/wasnorm_wordpool.txt	LTP106	ltpFR	16	6	1	WORKER	1621	n/a	n/a	1	0.422607421875	0.5869140625	0	upper	amplitud.ttf
996.688	n/a	WORD	498344	wordpools/wasnorm_wordpool.txt	LTP106	ltpFR	16	6	1	CLAM	315	n/a	n/a	1	0.422607421875	0.5869140625	0	upper	amplitud.ttf
1000.764	n/a	WORD	500382	wordpools/wasnorm_wordpool.txt	LTP106	ltpFR	16	6	1	CHAUFFEUR	283	n/a	n/a	1	0.422607421875	0.5869140625	0	upper	amplitud.ttf
1004.88	n/a	WORD	502440	wordpools/wasnorm_wordpool.txt	LTP106	ltpFR	16	6	1	WINDSHIELD	1612	n/a	n/a	0	0.422607421875	0.5869140625	0	upper	amplitud.ttf
1008.712	n/a	WORD	504356	wordpools/wasnorm_wordpool.txt	LTP106	ltpFR	16	6	1	GARLIC	624	n/a	n/a	0	0.422607421875	0.5869140625	0	upper	amplitud.ttf
1012.762	n/a	WORD	506381	wordpools/wasnorm_wordpool.txt	LTP106	ltpFR	16	6	1	ELECTRON	522	n/a	n/a	0	0.422607421875	0.5869140625	0	upper	amplitud.ttf
1016.822	n/a	WORD	508411	wordpools/wasnorm_wordpool.txt	LTP106	ltpFR	16	6	1	CLAY	320	n/a	n/a	0	0.422607421875	0.5869140625	0	upper	amplitud.ttf
1020.996	n/a	WORD	510498	wordpools/wasnorm_wordpool.txt	LTP106	ltpFR	16	6	1	STATUE	1374	n/a	n/a	0	0.422607421875	0.5869140625	0	upper	amplitud.ttf
1025.122	n/a	WORD	512561	wordpools/wasnorm_wordpool.txt	LTP106	ltpFR	16	6	1	DEODORANT	448	n/a	n/a	0	0.422607421875	0.5869140625	0	upper	amplitud.ttf
1029.18	n/a	WORD	514590	wordpools/wasnorm_wordpool.txt	LTP106	ltpFR	16	6	1	CATCHER	258	n/a	n/a	1	0.422607421875	0.5869140625	0	upper	amplitud.ttf
1033.388	n/a	WORD	516694	wordpools/wasnorm_wordpool.txt	LTP106	ltpFR	16	6	1	PROTON	1132	n/a	n/a	0	0.422607421875	0.5869140625	0	upper	amplitud.ttf
1037.552	n/a	WORD	518776	wordpools/wasnorm_wordpool.txt	LTP106	ltpFR	16	6	1	CASH	252	n/a	n/a	0	0.422607421875	0.5869140625	0	upper	amplitud.ttf
1041.47	n/a	WORD	520735	wordpools/wasnorm_wordpool.txt	LTP106	ltpFR	16	6	1	QUARTER	1148	n/a	n/a	0	0.422607421875	0.5869140625	0	upper	amplitud.ttf
1045.554	n/a	WORD	522777	wordpools/wasnorm_wordpool.txt	LTP106	ltpFR	16	6	1	CORPORATION	382	n/a	n/a	0	0.422607421875	0.5869140625	0	upper	amplitud.ttf
1051.296	n/a	REC_START	525648	n/a	LTP106	ltpFR	16	6	n/a	n/a	n/a	n/a	n/a	n/a	n/a	n/a	n/a	n/a	n/a
1051.644	n/a	REC_WORD	525822	wordpools/wasnorm_wordpool.txt	LTP106	ltpFR	16	6	1	CORPORATION	382	n/a	n/a	0	n/a	n/a	n/a	n/a	n/a
1052.582	n/a	REC_WORD	526291	wordpools/wasnorm_wordpool.txt	LTP106	ltpFR	16	6	1	CASH	252	n/a	n/a	0	n/a	n/a	n/a	n/a	n/a
1053.26	n/a	REC_WORD	526630	wordpools/wasnorm_wordpool.txt	LTP106	ltpFR	16	6	1	QUARTER	1148	n/a	n/a	0	n/a	n/a	n/a	n/a	n/a
1053.912	n/a	REC_WORD	526956	wordpools/wasnorm_wordpool.txt	LTP106	ltpFR	16	6	1	DEODORANT	448	n/a	n/a	0	n/a	n/a	n/a	n/a	n/a
1054.526	n/a	REC_WORD	527263	wordpools/wasnorm_wordpool.txt	LTP106	ltpFR	16	6	1	STATUE	1374	n/a	n/a	0	n/a	n/a	n/a	n/a	n/a
1055.248	n/a	REC_WORD	527624	wordpools/wasnorm_wordpool.txt	LTP106	ltpFR	16	6	1	CHAUFFEUR	283	n/a	n/a	1	n/a	n/a	n/a	n/a	n/a
1056.476	n/a	REC_WORD	528238	wordpools/wasnorm_wordpool.txt	LTP106	ltpFR	16	6	1	WORKER	1621	n/a	n/a	1	n/a	n/a	n/a	n/a	n/a
1056.98	n/a	REC_WORD	528490	wordpools/wasnorm_wordpool.txt	LTP106	ltpFR	16	6	1	SCAPEGOAT	1244	n/a	n/a	1	n/a	n/a	n/a	n/a	n/a
1057.83	n/a	REC_WORD	528915	wordpools/wasnorm_wordpool.txt	LTP106	ltpFR	16	6	1	ROBBER	1197	n/a	n/a	1	n/a	n/a	n/a	n/a	n/a
1058.484	n/a	REC_WORD	529242	wordpools/wasnorm_wordpool.txt	LTP106	ltpFR	16	6	1	CATCHER	258	n/a	n/a	1	n/a	n/a	n/a	n/a	n/a
1059.638	n/a	REC_WORD	529819	wordpools/wasnorm_wordpool.txt	LTP106	ltpFR	16	6	1	WINDSHIELD	1612	n/a	n/a	0	n/a	n/a	n/a	n/a	n/a
1061.294	n/a	REC_WORD	530647	wordpools/wasnorm_wordpool.txt	LTP106	ltpFR	16	6	1	CLAM	315	n/a	n/a	1	n/a	n/a	n/a	n/a	n/a
1062.134	n/a	REC_WORD	531067	wordpools/wasnorm_wordpool.txt	LTP106	ltpFR	16	6	1	GARLIC	624	n/a	n/a	0	n/a	n/a	n/a	n/a	n/a
1068.174	n/a	REC_WORD_VV	534087	wordpools/wasnorm_wordpool.txt	LTP106	ltpFR	16	6	n/a	<>	-1	n/a	n/a	n/a	n/a	n/a	n/a	n/a	n/a
1069.174	n/a	REC_WORD_VV	534587	wordpools/wasnorm_wordpool.txt	LTP106	ltpFR	16	6	n/a	<>	-1	n/a	n/a	n/a	n/a	n/a	n/a	n/a	n/a
1099.798	n/a	REC_WORD	549899	wordpools/wasnorm_wordpool.txt	LTP106	ltpFR	16	6	1	PROTON	1132	n/a	n/a	0	n/a	n/a	n/a	n/a	n/a
1100.434	n/a	REC_WORD	550217	wordpools/wasnorm_wordpool.txt	LTP106	ltpFR	16	6	1	ELECTRON	522	n/a	n/a	0	n/a	n/a	n/a	n/a	n/a
1102.442	n/a	REC_WORD	551221	wordpools/wasnorm_wordpool.txt	LTP106	ltpFR	16	6	1	CLAY	320	n/a	n/a	0	n/a	n/a	n/a	n/a	n/a
1104.438	n/a	REC_WORD	552219	wordpools/wasnorm_wordpool.txt	LTP106	ltpFR	16	6	n/a	NEURON	-1	n/a	n/a	n/a	n/a	n/a	n/a	n/a	n/a
1122.648	n/a	REC_WORD	561324	wordpools/wasnorm_wordpool.txt	LTP106	ltpFR	16	6	n/a	SECRETARY	1265	n/a	n/a	n/a	n/a	n/a	n/a	n/a	n/a
1129.202	n/a	WORD	564601	wordpools/wasnorm_wordpool.txt	LTP106	ltpFR	16	7	1	LAKE	796	n/a	n/a	1	0.422607421875	0.5869140625	0	upper	amplitud.ttf
1133.268	n/a	WORD	566634	wordpools/wasnorm_wordpool.txt	LTP106	ltpFR	16	7	1	WAVE	1596	n/a	n/a	0	0.422607421875	0.5869140625	0	upper	amplitud.ttf
1137.36	n/a	WORD	568680	wordpools/wasnorm_wordpool.txt	LTP106	ltpFR	16	7	1	TOWER	1490	n/a	n/a	0	0.422607421875	0.5869140625	0	upper	amplitud.ttf
1141.534	n/a	WORD	570767	wordpools/wasnorm_wordpool.txt	LTP106	ltpFR	16	7	1	CHISEL	305	n/a	n/a	0	0.422607421875	0.5869140625	0	upper	amplitud.ttf
1145.576	n/a	WORD	572788	wordpools/wasnorm_wordpool.txt	LTP106	ltpFR	16	7	1	SALT	1229	n/a	n/a	0	0.422607421875	0.5869140625	0	upper	amplitud.ttf
1149.758	n/a	WORD	574879	wordpools/wasnorm_wordpool.txt	LTP106	ltpFR	16	7	1	ELF	525	n/a	n/a	1	0.422607421875	0.5869140625	0	upper	amplitud.ttf
1153.892	n/a	WORD	576946	wordpools/wasnorm_wordpool.txt	LTP106	ltpFR	16	7	1	BUFFALO	186	n/a	n/a	1	0.422607421875	0.5869140625	0	upper	amplitud.ttf
1157.91	n/a	WORD	578955	wordpools/wasnorm_wordpool.txt	LTP106	ltpFR	16	7	1	BAKER	71	n/a	n/a	1	0.422607421875	0.5869140625	0	upper	amplitud.ttf
1161.834	n/a	WORD	580917	wordpools/wasnorm_wordpool.txt	LTP106	ltpFR	16	7	1	CREATURE	403	n/a	n/a	1	0.422607421875	0.5869140625	0	upper	amplitud.ttf
1165.75	n/a	WORD	582875	wordpools/wasnorm_wordpool.txt	LTP106	ltpFR	16	7	1	PRIMATE	1123	n/a	n/a	1	0.422607421875	0.5869140625	0	upper	amplitud.ttf
1169.834	n/a	WORD	584917	wordpools/wasnorm_wordpool.txt	LTP106	ltpFR	16	7	1	SPY	1360	n/a	n/a	1	0.422607421875	0.5869140625	0	upper	amplitud.ttf
1173.774	n/a	WORD	586887	wordpools/wasnorm_wordpool.txt	LTP106	ltpFR	16	7	1	TOOL	1480	n/a	n/a	0	0.422607421875	0.5869140625	0	upper	amplitud.ttf
1177.868	n/a	WORD	588934	wordpools/wasnorm_wordpool.txt	LTP106	ltpFR	16	7	1	GIRAFFE	636	n/a	n/a	1	0.422607421875	0.5869140625	0	upper	amplitud.ttf
1181.968	n/a	WORD	590984	wordpools/wasnorm_wordpool.txt	LTP106	ltpFR	16	7	1	ANCHOR	21	n/a	n/a	0	0.422607421875	0.5869140625	0	upper	amplitud.ttf
1186.0	n/a	WORD	593000	wordpools/wasnorm_wordpool.txt	LTP106	ltpFR	16	7	1	YACHT	1629	n/a	n/a	0	0.422607421875	0.5869140625	0	upper	amplitud.ttf
1189.884	n/a	WORD	594942	wordpools/wasnorm_wordpool.txt	LTP106	ltpFR	16	7	1	PIE	1062	n/a	n/a	0	0.422607421875	0.5869140625	0	upper	amplitud.ttf
1195.692	n/a	REC_START	597846	n/a	LTP106	ltpFR	16	7	n/a	n/a	n/a	n/a	n/a	n/a	n/a	n/a	n/a	n/a	n/a
1196.14	n/a	REC_WORD	598070	wordpools/wasnorm_wordpool.txt	LTP106	ltpFR	16	7	1	LAKE	796	n/a	n/a	1	n/a	n/a	n/a	n/a	n/a
1196.83	n/a	REC_WORD	598415	wordpools/wasnorm_wordpool.txt	LTP106	ltpFR	16	7	1	WAVE	1596	n/a	n/a	0	n/a	n/a	n/a	n/a	n/a
1197.45	n/a	REC_WORD	598725	wordpools/wasnorm_wordpool.txt	LTP106	ltpFR	16	7	1	TOWER	1490	n/a	n/a	0	n/a	n/a	n/a	n/a	n/a
1198.122	n/a	REC_WORD	599061	wordpools/wasnorm_wordpool.txt	LTP106	ltpFR	16	7	1	CHISEL	305	n/a	n/a	0	n/a	n/a	n/a	n/a	n/a
1198.66	n/a	REC_WORD	599330	wordpools/wasnorm_wordpool.txt	LTP106	ltpFR	16	7	1	SALT	1229	n/a	n/a	0	n/a	n/a	n/a	n/a	n/a
1199.438	n/a	REC_WORD	599719	wordpools/wasnorm_wordpool.txt	LTP106	ltpFR	16	7	1	ELF	525	n/a	n/a	1	n/a	n/a	n/a	n/a	n/a
1200.052	n/a	REC_WORD	600026	wordpools/wasnorm_wordpool.txt	LTP106	ltpFR	16	7	1	CREATURE	403	n/a	n/a	1	n/a	n/a	n/a	n/a	n/a
1200.746	n/a	REC_WORD	600373	wordpools/wasnorm_wordpool.txt	LTP106	ltpFR	16	7	1	GIRAFFE	636	n/a	n/a	1	n/a	n/a	n/a	n/a	n/a
1201.55	n/a	REC_WORD	600775	wordpools/wasnorm_wordpool.txt	LTP106	ltpFR	16	7	1	BUFFALO	186	n/a	n/a	1	n/a	n/a	n/a	n/a	n/a
1202.274	n/a	REC_WORD	601137	wordpools/wasnorm_wordpool.txt	LTP106	ltpFR	16	7	1	BAKER	71	n/a	n/a	1	n/a	n/a	n/a	n/a	n/a
1202.928	n/a	REC_WORD	601464	wordpools/wasnorm_wordpool.txt	LTP106	ltpFR	16	7	1	PIE	1062	n/a	n/a	0	n/a	n/a	n/a	n/a	n/a
1207.482	n/a	REC_WORD	603741	wordpools/wasnorm_wordpool.txt	LTP106	ltpFR	16	7	1	ANCHOR	21	n/a	n/a	0	n/a	n/a	n/a	n/a	n/a
1208.078	n/a	REC_WORD	604039	wordpools/wasnorm_wordpool.txt	LTP106	ltpFR	16	7	1	YACHT	1629	n/a	n/a	0	n/a	n/a	n/a	n/a	n/a
1248.722	n/a	REC_WORD	624361	wordpools/wasnorm_wordpool.txt	LTP106	ltpFR	16	7	n/a	TREE	1502	n/a	n/a	n/a	n/a	n/a	n/a	n/a	n/a
1251.076	n/a	REC_WORD	625538	wordpools/wasnorm_wordpool.txt	LTP106	ltpFR	16	7	n/a	FISH	571	n/a	n/a	n/a	n/a	n/a	n/a	n/a	n/a
1261.224	n/a	REC_WORD	630612	wordpools/wasnorm_wordpool.txt	LTP106	ltpFR	16	7	1	STATUE	1374	n/a	n/a	0	n/a	n/a	n/a	n/a	n/a
1273.514	n/a	WORD	636757	wordpools/wasnorm_wordpool.txt	LTP106	ltpFR	16	8	-1	AUTHOR	61	n/a	n/a	-1	1.0	1.0	1	upper	Verdana.ttf
1277.522	n/a	WORD	638761	wordpools/wasnorm_wordpool.txt	LTP106	ltpFR	16	8	-1	SAP	1233	n/a	n/a	-1	1.0	1.0	1	upper	Verdana.ttf
1281.446	n/a	WORD	640723	wordpools/wasnorm_wordpool.txt	LTP106	ltpFR	16	8	-1	STOMACH	1384	n/a	n/a	-1	1.0	1.0	1	upper	Verdana.ttf
1285.472	n/a	WORD	642736	wordpools/wasnorm_wordpool.txt	LTP106	ltpFR	16	8	-1	OAR	966	n/a	n/a	-1	1.0	1.0	1	upper	Verdana.ttf
1289.546	n/a	WORD	644773	wordpools/wasnorm_wordpool.txt	LTP106	ltpFR	16	8	-1	RAM	1165	n/a	n/a	-1	1.0	1.0	1	upper	Verdana.ttf
1293.39	n/a	WORD	646695	wordpools/wasnorm_wordpool.txt	LTP106	ltpFR	16	8	-1	TEAM	1441	n/a	n/a	-1	1.0	1.0	1	upper	Verdana.ttf
1297.406	n/a	WORD	648703	wordpools/wasnorm_wordpool.txt	LTP106	ltpFR	16	8	-1	SNACK	1331	n/a	n/a	-1	1.0	1.0	1	upper	Verdana.ttf
1301.472	n/a	WORD	650736	wordpools/wasnorm_wordpool.txt	LTP106	ltpFR	16	8	-1	STUMP	1396	n/a	n/a	-1	1.0	1.0	1	upper	Verdana.ttf
1305.496	n/a	WORD	652748	wordpools/wasnorm_wordpool.txt	LTP106	ltpFR	16	8	-1	DIME	466	n/a	n/a	-1	1.0	1.0	1	upper	Verdana.ttf
1309.596	n/a	WORD	654798	wordpools/wasnorm_wordpool.txt	LTP106	ltpFR	16	8	-1	BUCKLE	185	n/a	n/a	-1	1.0	1.0	1	upper	Verdana.ttf
1313.614	n/a	WORD	656807	wordpools/wasnorm_wordpool.txt	LTP106	ltpFR	16	8	-1	PARTNER	1017	n/a	n/a	-1	1.0	1.0	1	upper	Verdana.ttf
1317.488	n/a	WORD	658744	wordpools/wasnorm_wordpool.txt	LTP106	ltpFR	16	8	-1	ROOMMATE	1207	n/a	n/a	-1	1.0	1.0	1	upper	Verdana.ttf
1321.58	n/a	WORD	660790	wordpools/wasnorm_wordpool.txt	LTP106	ltpFR	16	8	-1	LIMB	822	n/a	n/a	-1	1.0	1.0	1	upper	Verdana.ttf
1325.562	n/a	WORD	662781	wordpools/wasnorm_wordpool.txt	LTP106	ltpFR	16	8	-1	FIG	563	n/a	n/a	-1	1.0	1.0	1	upper	Verdana.ttf
1329.662	n/a	WORD	664831	wordpools/wasnorm_wordpool.txt	LTP106	ltpFR	16	8	-1	PERSON	1052	n/a	n/a	-1	1.0	1.0	1	upper	Verdana.ttf
1333.704	n/a	WORD	666852	wordpools/wasnorm_wordpool.txt	LTP106	ltpFR	16	8	-1	LIST	830	n/a	n/a	-1	1.0	1.0	1	upper	Verdana.ttf
1339.438	n/a	REC_START	669719	n/a	LTP106	ltpFR	16	8	n/a	n/a	n/a	n/a	n/a	n/a	n/a	n/a	n/a	n/a	n/a
1339.864	n/a	REC_WORD	669932	wordpools/wasnorm_wordpool.txt	LTP106	ltpFR	16	8	-1	LIST	830	n/a	n/a	-1	n/a	n/a	n/a	n/a	n/a
1340.51	n/a	REC_WORD	670255	wordpools/wasnorm_wordpool.txt	LTP106	ltpFR	16	8	-1	PERSON	1052	n/a	n/a	-1	n/a	n/a	n/a	n/a	n/a
1341.424	n/a	REC_WORD	670712	wordpools/wasnorm_wordpool.txt	LTP106	ltpFR	16	8	-1	ROOMMATE	1207	n/a	n/a	-1	n/a	n/a	n/a	n/a	n/a
1342.138	n/a	REC_WORD	671069	wordpools/wasnorm_wordpool.txt	LTP106	ltpFR	16	8	-1	PARTNER	1017	n/a	n/a	-1	n/a	n/a	n/a	n/a	n/a
1342.848	n/a	REC_WORD	671424	wordpools/wasnorm_wordpool.txt	LTP106	ltpFR	16	8	-1	AUTHOR	61	n/a	n/a	-1	n/a	n/a	n/a	n/a	n/a
1343.546	n/a	REC_WORD	671773	wordpools/wasnorm_wordpool.txt	LTP106	ltpFR	16	8	-1	OAR	966	n/a	n/a	-1	n/a	n/a	n/a	n/a	n/a
1344.082	n/a	REC_WORD	672041	wordpools/wasnorm_wordpool.txt	LTP106	ltpFR	16	8	-1	STOMACH	1384	n/a	n/a	-1	n/a	n/a	n/a	n/a	n/a
1344.918	n/a	REC_WORD	672459	wordpools/wasnorm_wordpool.txt	LTP106	ltpFR	16	8	-1	SAP	1233	n/a	n/a	-1	n/a	n/a	n/a	n/a	n/a
1346.43	n/a	REC_WORD	673215	wordpools/wasnorm_wordpool.txt	LTP106	ltpFR	16	8	-1	LIMB	822	n/a	n/a	-1	n/a	n/a	n/a	n/a	n/a
1347.22	n/a	REC_WORD	673610	wordpools/wasnorm_wordpool.txt	LTP106	ltpFR	16	8	-1	FIG	563	n/a	n/a	-1	n/a	n/a	n/a	n/a	n/a
1350.592	n/a	REC_WORD_VV	675296	wordpools/wasnorm_wordpool.txt	LTP106	ltpFR	16	8	n/a	<>	-1	n/a	n/a	n/a	n/a	n/a	n/a	n/a	n/a
1352.83	n/a	REC_WORD	676415	wordpools/wasnorm_wordpool.txt	LTP106	ltpFR	16	8	-1	SNACK	1331	n/a	n/a	-1	n/a	n/a	n/a	n/a	n/a
1353.424	n/a	REC_WORD	676712	wordpools/wasnorm_wordpool.txt	LTP106	ltpFR	16	8	-1	STUMP	1396	n/a	n/a	-1	n/a	n/a	n/a	n/a	n/a
1355.856	n/a	REC_WORD	677928	wordpools/wasnorm_wordpool.txt	LTP106	ltpFR	16	8	-1	DIME	466	n/a	n/a	-1	n/a	n/a	n/a	n/a	n/a
1395.41	n/a	REC_WORD	697705	wordpools/wasnorm_wordpool.txt	LTP106	ltpFR	16	8	n/a	BOOK	149	n/a	n/a	n/a	n/a	n/a	n/a	n/a	n/a
1402.522	n/a	REC_WORD	701261	wordpools/wasnorm_wordpool.txt	LTP106	ltpFR	16	8	-1	PERSON	1052	n/a	n/a	-1	n/a	n/a	n/a	n/a	n/a
1422.902	n/a	WORD	711451	wordpools/wasnorm_wordpool.txt	LTP106	ltpFR	16	9	0	CRAYON	401	n/a	n/a	0	0.57763671875	0.412841796875	1	lower	zerothre.ttf
1427.086	n/a	WORD	713543	wordpools/wasnorm_wordpool.txt	LTP106	ltpFR	16	9	0	LAPEL	800	n/a	n/a	0	0.57763671875	0.412841796875	1	lower	zerothre.ttf
1431.26	n/a	WORD	715630	wordpools/wasnorm_wordpool.txt	LTP106	ltpFR	16	9	0	OYSTER	995	n/a	n/a	1	0.57763671875	0.412841796875	1	lower	zerothre.ttf
1435.386	n/a	WORD	717693	wordpools/wasnorm_wordpool.txt	LTP106	ltpFR	16	9	1	PADDLE	1000	n/a	n/a	0	0.422607421875	0.5869140625	0	upper	amplitud.ttf
1439.328	n/a	WORD	719664	wordpools/wasnorm_wordpool.txt	LTP106	ltpFR	16	9	1	ROBOT	1200	n/a	n/a	0	0.422607421875	0.5869140625	0	upper	amplitud.ttf
1443.386	n/a	WORD	721693	wordpools/wasnorm_wordpool.txt	LTP106	ltpFR	16	9	1	DIAL	457	n/a	n/a	0	0.422607421875	0.5869140625	0	upper	amplitud.ttf
1447.468	n/a	WORD	723734	wordpools/wasnorm_wordpool.txt	LTP106	ltpFR	16	9	1	RING	1193	n/a	n/a	0	0.422607421875	0.5869140625	0	upper	amplitud.ttf
1451.46	n/a	WORD	725730	wordpools/wasnorm_wordpool.txt	LTP106	ltpFR	16	9	0	MARINE	869	n/a	n/a	1	0.57763671875	0.412841796875	1	lower	zerothre.ttf
1455.46	n/a	WORD	727730	wordpools/wasnorm_wordpool.txt	LTP106	ltpFR	16	9	0	FOX	598	n/a	n/a	1	0.57763671875	0.412841796875	1	lower	zerothre.ttf
1459.384	n/a	WORD	729692	wordpools/wasnorm_wordpool.txt	LTP106	ltpFR	16	9	0	CANDY	230	n/a	n/a	0	0.57763671875	0.412841796875	1	lower	zerothre.ttf
1463.458	n/a	WORD	731729	wordpools/wasnorm_wordpool.txt	LTP106	ltpFR	16	9	1	TREAT	1501	n/a	n/a	0	0.422607421875	0.5869140625	0	upper	amplitud.ttf
1467.584	n/a	WORD	733792	wordpools/wasnorm_wordpool.txt	LTP106	ltpFR	16	9	1	BISON	131	n/a	n/a	1	0.422607421875	0.5869140625	0	upper	amplitud.ttf
1471.776	n/a	WORD	735888	wordpools/wasnorm_wordpool.txt	LTP106	ltpFR	16	9	1	TUXEDO	1525	n/a	n/a	0	0.422607421875	0.5869140625	0	upper	amplitud.ttf
1475.852	n/a	WORD	737926	wordpools/wasnorm_wordpool.txt	LTP106	ltpFR	16	9	1	HOOP	716	n/a	n/a	0	0.422607421875	0.5869140625	0	upper	amplitud.ttf
1479.91	n/a	WORD	739955	wordpools/wasnorm_wordpool.txt	LTP106	ltpFR	16	9	0	COMPUTER	359	n/a	n/a	0	0.57763671875	0.412841796875	1	lower	zerothre.ttf
1484.058	n/a	WORD	742029	wordpools/wasnorm_wordpool.txt	LTP106	ltpFR	16	9	0	HERO	706	n/a	n/a	1	0.57763671875	0.412841796875	1	lower	zerothre.ttf
1490.086	n/a	REC_START	745043	n/a	LTP106	ltpFR	16	9	n/a	n/a	n/a	n/a	n/a	n/a	n/a	n/a	n/a	n/a	n/a
1490.512	n/a	REC_WORD	745256	wordpools/wasnorm_wordpool.txt	LTP106	ltpFR	16	9	0	COMPUTER	359	n/a	n/a	0	n/a	n/a	n/a	n/a	n/a
1491.178	n/a	REC_WORD	745589	wordpools/wasnorm_wordpool.txt	LTP106	ltpFR	16	9	0	HERO	706	n/a	n/a	1	n/a	n/a	n/a	n/a	n/a
1491.858	n/a	REC_WORD	745929	wordpools/wasnorm_wordpool.txt	LTP106	ltpFR	16	9	0	MARINE	869	n/a	n/a	1	n/a	n/a	n/a	n/a	n/a
1492.586	n/a	REC_WORD	746293	wordpools/wasnorm_wordpool.txt	LTP106	ltpFR	16	9	0	OYSTER	995	n/a	n/a	1	n/a	n/a	n/a	n/a	n/a
1493.18	n/a	REC_WORD	746590	wordpools/wasnorm_wordpool.txt	LTP106	ltpFR	16	9	0	LAPEL	800	n/a	n/a	0	n/a	n/a	n/a	n/a	n/a
1494.016	n/a	REC_WORD	747008	wordpools/wasnorm_wordpool.txt	LTP106	ltpFR	16	9	1	TUXEDO	1525	n/a	n/a	0	n/a	n/a	n/a	n/a	n/a
1494.808	n/a	REC_WORD	747404	wordpools/wasnorm_wordpool.txt	LTP106	ltpFR	16	9	1	HOOP	716	n/a	n/a	0	n/a	n/a	n/a	n/a	n/a
1499.972	n/a	REC_WORD	749986	wordpools/wasnorm_wordpool.txt	LTP106	ltpFR	16	9	1	BISON	131	n/a	n/a	1	n/a	n/a	n/a	n/a	n/a
1501.736	n/a	REC_WORD	750868	wordpools/wasnorm_wordpool.txt	LTP106	ltpFR	16	9	0	CANDY	230	n/a	n/a	0	n/a	n/a	n/a	n/a	n/a
1502.48	n/a	REC_WORD	751240	wordpools/wasnorm_wordpool.txt	LTP106	ltpFR	16	9	1	TREAT	1501	n/a	n/a	0	n/a	n/a	n/a	n/a	n/a
1504.228	n/a	REC_WORD	752114	wordpools/wasnorm_wordpool.txt	LTP106	ltpFR	16	9	1	PADDLE	1000	n/a	n/a	0	n/a	n/a	n/a	n/a	n/a
1505.416	n/a	REC_WORD	752708	wordpools/wasnorm_wordpool.txt	LTP106	ltpFR	16	9	-1	OAR	966	n/a	n/a	-1	n/a	n/a	n/a	n/a	n/a
1523.042	n/a	REC_WORD	761521	wordpools/wasnorm_wordpool.txt	LTP106	ltpFR	16	9	0	COMPUTER	359	n/a	n/a	0	n/a	n/a	n/a	n/a	n/a
1558.918	n/a	REC_WORD	779459	wordpools/wasnorm_wordpool.txt	LTP106	ltpFR	16	9	n/a	BEAR	106	n/a	n/a	n/a	n/a	n/a	n/a	n/a	n/a
1561.306	n/a	REC_WORD	780653	wordpools/wasnorm_wordpool.txt	LTP106	ltpFR	16	9	1	CLAM	315	n/a	n/a	1	n/a	n/a	n/a	n/a	n/a
1568.266	n/a	WORD	784133	wordpools/wasnorm_wordpool.txt	LTP106	ltpFR	16	10	0	TANK	1432	n/a	n/a	1	0.57763671875	0.412841796875	1	lower	zerothre.ttf
1572.14	n/a	WORD	786070	wordpools/wasnorm_wordpool.txt	LTP106	ltpFR	16	10	0	TROUT	1511	n/a	n/a	0	0.57763671875	0.412841796875	1	lower	zerothre.ttf
1576.306	n/a	WORD	788153	wordpools/wasnorm_wordpool.txt	LTP106	ltpFR	16	10	0	FLASK	576	n/a	n/a	0	0.57763671875	0.412841796875	1	lower	zerothre.ttf
1580.498	n/a	WORD	790249	wordpools/wasnorm_wordpool.txt	LTP106	ltpFR	16	10	0	STRING	1394	n/a	n/a	0	0.57763671875	0.412841796875	1	lower	zerothre.ttf
1584.49	n/a	WORD	792245	wordpools/wasnorm_wordpool.txt	LTP106	ltpFR	16	10	0	WAITRESS	1581	n/a	n/a	1	0.57763671875	0.412841796875	1	lower	zerothre.ttf
1588.656	n/a	WORD	794328	wordpools/wasnorm_wordpool.txt	LTP106	ltpFR	16	10	1	LIGHTNING	820	n/a	n/a	0	0.422607421875	0.5869140625	0	upper	amplitud.ttf
1592.714	n/a	WORD	796357	wordpools/wasnorm_wordpool.txt	LTP106	ltpFR	16	10	1	TAPE	1433	n/a	n/a	0	0.422607421875	0.5869140625	0	upper	amplitud.ttf
1596.832	n/a	WORD	798416	wordpools/wasnorm_wordpool.txt	LTP106	ltpFR	16	10	1	MOUSE	925	n/a	n/a	1	0.422607421875	0.5869140625	0	upper	amplitud.ttf
1600.78	n/a	WORD	800390	wordpools/wasnorm_wordpool.txt	LTP106	ltpFR	16	10	0	FLIPPER	580	n/a	n/a	0	0.57763671875	0.412841796875	1	lower	zerothre.ttf
1604.948	n/a	WORD	802474	wordpools/wasnorm_wordpool.txt	LTP106	ltpFR	16	10	0	SPRINKLE	1359	n/a	n/a	0	0.57763671875	0.412841796875	1	lower	zerothre.ttf
1608.864	n/a	WORD	804432	wordpools/wasnorm_wordpool.txt	LTP106	ltpFR	16	10	0	COTTAGE	384	n/a	n/a	1	0.57763671875	0.412841796875	1	lower	zerothre.ttf
1612.746	n/a	WORD	806373	wordpools/wasnorm_wordpool.txt	LTP106	ltpFR	16	10	1	MANSION	864	n/a	n/a	0	0.422607421875	0.5869140625	0	upper	amplitud.ttf
1616.722	n/a	WORD	808361	wordpools/wasnorm_wordpool.txt	LTP106	ltpFR	16	10	1	STICKER	1382	n/a	n/a	0	0.422607421875	0.5869140625	0	upper	amplitud.ttf
1620.604	n/a	WORD	810302	wordpools/wasnorm_wordpool.txt	LTP106	ltpFR	16	10	1	WHALE	1601	n/a	n/a	1	0.422607421875	0.5869140625	0	upper	amplitud.ttf
1624.504	n/a	WORD	812252	wordpools/wasnorm_wordpool.txt	LTP106	ltpFR	16	10	1	JUVENILE	767	n/a	n/a	1	0.422607421875	0.5869140625	0	upper	amplitud.ttf
1628.496	n/a	WORD	814248	wordpools/wasnorm_wordpool.txt	LTP106	ltpFR	16	10	1	OUTLAW	989	n/a	n/a	1	0.422607421875	0.5869140625	0	upper	amplitud.ttf
1634.39	n/a	REC_START	817195	n/a	LTP106	ltpFR	16	10	n/a	n/a	n/a	n/a	n/a	n/a	n/a	n/a	n/a	n/a	n/a
1635.044	n/a	REC_WORD	817522	wordpools/wasnorm_wordpool.txt	LTP106	ltpFR	16	10	1	JUVENILE	767	n/a	n/a	1	n/a	n/a	n/a	n/a	n/a
1635.756	n/a	REC_WORD	817878	wordpools/wasnorm_wordpool.txt	LTP106	ltpFR	16	10	1	OUTLAW	989	n/a	n/a	1	n/a	n/a	n/a	n/a	n/a
1636.458	n/a	REC_WORD	818229	wordpools/wasnorm_wordpool.txt	LTP106	ltpFR	16	10	1	WHALE	1601	n/a	n/a	1	n/a	n/a	n/a	n/a	n/a
1637.09	n/a	REC_WORD	818545	wordpools/wasnorm_wordpool.txt	LTP106	ltpFR	16	10	0	TANK	1432	n/a	n/a	1	n/a	n/a	n/a	n/a	n/a
1637.792	n/a	REC_WORD	818896	wordpools/wasnorm_wordpool.txt	LTP106	ltpFR	16	10	0	TROUT	1511	n/a	n/a	0	n/a	n/a	n/a	n/a	n/a
1638.534	n/a	REC_WORD	819267	wordpools/wasnorm_wordpool.txt	LTP106	ltpFR	16	10	0	FLASK	576	n/a	n/a	0	n/a	n/a	n/a	n/a	n/a
1639.168	n/a	REC_WORD	819584	wordpools/wasnorm_wordpool.txt	LTP106	ltpFR	16	10	0	STRING	1394	n/a	n/a	0	n/a	n/a	n/a	n/a	n/a
1639.982	n/a	REC_WORD	819991	wordpools/wasnorm_wordpool.txt	LTP106	ltpFR	16	10	1	TAPE	1433	n/a	n/a	0	n/a	n/a	n/a	n/a	n/a
1643.958	n/a	REC_WORD	821979	wordpools/wasnorm_wordpool.txt	LTP106	ltpFR	16	10	1	LIGHTNING	820	n/a	n/a	0	n/a	n/a	n/a	n/a	n/a
1644.634	n/a	REC_WORD	822317	wordpools/wasnorm_wordpool.txt	LTP106	ltpFR	16	10	0	WAITRESS	1581	n/a	n/a	1	n/a	n/a	n/a	n/a	n/a
1646.776	n/a	REC_WORD	823388	wordpools/wasnorm_wordpool.txt	LTP106	ltpFR	16	10	1	STICKER	1382	n/a	n/a	0	n/a	n/a	n/a	n/a	n/a
1674.946	n/a	REC_WORD	837473	wordpools/wasnorm_wordpool.txt	LTP106	ltpFR	16	10	n/a	THUNDER	-1	n/a	n/a	n/a	n/a	n/a	n/a	n/a	n/a
1692.35	n/a	REC_WORD	846175	wordpools/wasnorm_wordpool.txt	LTP106	ltpFR	16	10	n/a	BASS	-1	n/a	n/a	n/a	n/a	n/a	n/a	n/a	n/a
1712.46	n/a	WORD	856230	wordpools/wasnorm_wordpool.txt	LTP106	ltpFR	16	11	1	BARN	89	n/a	n/a	0	0.422607421875	0.5869140625	0	upper	amplitud.ttf
1716.386	n/a	WORD	858193	wordpools/wasnorm_wordpool.txt	LTP106	ltpFR	16	11	1	LIVER	833	n/a	n/a	0	0.422607421875	0.5869140625	0	upper	amplitud.ttf
1720.578	n/a	WORD	860289	wordpools/wasnorm_wordpool.txt	LTP106	ltpFR	16	11	1	HEAD	695	n/a	n/a	0	0.422607421875	0.5869140625	0	upper	amplitud.ttf
1724.752	n/a	WORD	862376	wordpools/wasnorm_wordpool.txt	LTP106	ltpFR	16	11	1	CUBE	420	n/a	n/a	0	0.422607421875	0.5869140625	0	upper	amplitud.ttf
1728.844	n/a	WORD	864422	wordpools/wasnorm_wordpool.txt	LTP106	ltpFR	16	11	1	BLACKBOARD	133	n/a	n/a	0	0.422607421875	0.5869140625	0	upper	amplitud.ttf
1732.91	n/a	WORD	866455	wordpools/wasnorm_wordpool.txt	LTP106	ltpFR	16	11	1	PIGEON	1065	n/a	n/a	0	0.422607421875	0.5869140625	0	upper	amplitud.ttf
1736.802	n/a	WORD	868401	wordpools/wasnorm_wordpool.txt	LTP106	ltpFR	16	11	1	HAWK	692	n/a	n/a	1	0.422607421875	0.5869140625	0	upper	amplitud.ttf
1740.836	n/a	WORD	870418	wordpools/wasnorm_wordpool.txt	LTP106	ltpFR	16	11	1	DUST	508	n/a	n/a	0	0.422607421875	0.5869140625	0	upper	amplitud.ttf
1744.81	n/a	WORD	872405	wordpools/wasnorm_wordpool.txt	LTP106	ltpFR	16	11	1	DILL	465	n/a	n/a	0	0.422607421875	0.5869140625	0	upper	amplitud.ttf
1748.726	n/a	WORD	874363	wordpools/wasnorm_wordpool.txt	LTP106	ltpFR	16	11	1	CHIMPANZEE	302	n/a	n/a	1	0.422607421875	0.5869140625	0	upper	amplitud.ttf
1752.584	n/a	WORD	876292	wordpools/wasnorm_wordpool.txt	LTP106	ltpFR	16	11	1	PURSE	1145	n/a	n/a	0	0.422607421875	0.5869140625	0	upper	amplitud.ttf
1756.444	n/a	WORD	878222	wordpools/wasnorm_wordpool.txt	LTP106	ltpFR	16	11	1	COMB	351	n/a	n/a	0	0.422607421875	0.5869140625	0	upper	amplitud.ttf
1760.386	n/a	WORD	880193	wordpools/wasnorm_wordpool.txt	LTP106	ltpFR	16	11	1	STRANGER	1389	n/a	n/a	0	0.422607421875	0.5869140625	0	upper	amplitud.ttf
1764.576	n/a	WORD	882288	wordpools/wasnorm_wordpool.txt	LTP106	ltpFR	16	11	1	LOVER	846	n/a	n/a	1	0.422607421875	0.5869140625	0	upper	amplitud.ttf
1768.402	n/a	WORD	884201	wordpools/wasnorm_wordpool.txt	LTP106	ltpFR	16	11	1	MULE	931	n/a	n/a	1	0.422607421875	0.5869140625	0	upper	amplitud.ttf
1772.444	n/a	WORD	886222	wordpools/wasnorm_wordpool.txt	LTP106	ltpFR	16	11	1	APE	31	n/a	n/a	1	0.422607421875	0.5869140625	0	upper	amplitud.ttf
1778.418	n/a	REC_START	889209	n/a	LTP106	ltpFR	16	11	n/a	n/a	n/a	n/a	n/a	n/a	n/a	n/a	n/a	n/a	n/a
1779.288	n/a	REC_WORD	889644	wordpools/wasnorm_wordpool.txt	LTP106	ltpFR	16	11	1	BARN	89	n/a	n/a	0	n/a	n/a	n/a	n/a	n/a
1779.822	n/a	REC_WORD	889911	wordpools/wasnorm_wordpool.txt	LTP106	ltpFR	16	11	1	HEAD	695	n/a	n/a	0	n/a	n/a	n/a	n/a	n/a
1780.522	n/a	REC_WORD	890261	wordpools/wasnorm_wordpool.txt	LTP106	ltpFR	16	11	1	LIVER	833	n/a	n/a	0	n/a	n/a	n/a	n/a	n/a
1781.166	n/a	REC_WORD	890583	wordpools/wasnorm_wordpool.txt	LTP106	ltpFR	16	11	1	CUBE	420	n/a	n/a	0	n/a	n/a	n/a	n/a	n/a
1781.822	n/a	REC_WORD	890911	wordpools/wasnorm_wordpool.txt	LTP106	ltpFR	16	11	1	BLACKBOARD	133	n/a	n/a	0	n/a	n/a	n/a	n/a	n/a
1782.54	n/a	REC_WORD	891270	wordpools/wasnorm_wordpool.txt	LTP106	ltpFR	16	11	1	DUST	508	n/a	n/a	0	n/a	n/a	n/a	n/a	n/a
1783.19	n/a	REC_WORD	891595	wordpools/wasnorm_wordpool.txt	LTP106	ltpFR	16	11	1	DILL	465	n/a	n/a	0	n/a	n/a	n/a	n/a	n/a
1783.654	n/a	REC_WORD	891827	wordpools/wasnorm_wordpool.txt	LTP106	ltpFR	16	11	1	STRANGER	1389	n/a	n/a	0	n/a	n/a	n/a	n/a	n/a
1784.424	n/a	REC_WORD	892212	wordpools/wasnorm_wordpool.txt	LTP106	ltpFR	16	11	1	LOVER	846	n/a	n/a	1	n/a	n/a	n/a	n/a	n/a
1785.288	n/a	REC_WORD	892644	wordpools/wasnorm_wordpool.txt	LTP106	ltpFR	16	11	1	CHIMPANZEE	302	n/a	n/a	1	n/a	n/a	n/a	n/a	n/a
1786.334	n/a	REC_WORD	893167	wordpools/wasnorm_wordpool.txt	LTP106	ltpFR	16	11	1	APE	31	n/a	n/a	1	n/a	n/a	n/a	n/a	n/a
1787.13	n/a	REC_WORD	893565	wordpools/wasnorm_wordpool.txt	LTP106	ltpFR	16	11	1	PRIMATE	1123	n/a	n/a	1	n/a	n/a	n/a	n/a	n/a
1788.844	n/a	REC_WORD	894422	wordpools/wasnorm_wordpool.txt	LTP106	ltpFR	16	11	1	PURSE	1145	n/a	n/a	0	n/a	n/a	n/a	n/a	n/a
1789.532	n/a	REC_WORD	894766	wordpools/wasnorm_wordpool.txt	LTP106	ltpFR	16	11	1	COMB	351	n/a	n/a	0	n/a	n/a	n/a	n/a	n/a
1796.456	n/a	REC_WORD_VV	898228	wordpools/wasnorm_wordpool.txt	LTP106	ltpFR	16	11	n/a	<>	-1	n/a	n/a	n/a	n/a	n/a	n/a	n/a	n/a
1800.628	n/a	REC_WORD	900314	wordpools/wasnorm_wordpool.txt	LTP106	ltpFR	16	11	1	DUST	508	n/a	n/a	0	n/a	n/a	n/a	n/a	n/a
1808.174	n/a	REC_WORD	904087	wordpools/wasnorm_wordpool.txt	LTP106	ltpFR	16	11	1	MULE	931	n/a	n/a	1	n/a	n/a	n/a	n/a	n/a
1811.612	n/a	REC_WORD	905806	wordpools/wasnorm_wordpool.txt	LTP106	ltpFR	16	11	1	PIGEON	1065	n/a	n/a	0	n/a	n/a	n/a	n/a	n/a
1812.104	n/a	REC_WORD	906052	wordpools/wasnorm_wordpool.txt	LTP106	ltpFR	16	11	1	HAWK	692	n/a	n/a	1	n/a	n/a	n/a	n/a	n/a
1813.002	n/a	REC_WORD	906501	wordpools/wasnorm_wordpool.txt	LTP106	ltpFR	16	11	n/a	BIRD	129	n/a	n/a	n/a	n/a	n/a	n/a	n/a	n/a
1839.168	n/a	REC_WORD	919584	wordpools/wasnorm_wordpool.txt	LTP106	ltpFR	16	11	0	COTTAGE	384	n/a	n/a	1	n/a	n/a	n/a	n/a	n/a
1840.362	n/a	REC_WORD	920181	wordpools/wasnorm_wordpool.txt	LTP106	ltpFR	16	11	1	MANSION	864	n/a	n/a	0	n/a	n/a	n/a	n/a	n/a
1860.908	n/a	WORD	930454	wordpools/wasnorm_wordpool.txt	LTP106	ltpFR	16	12	0	OCEAN	970	n/a	n/a	1	0.57763671875	0.412841796875	1	lower	zerothre.ttf
1864.966	n/a	WORD	932483	wordpools/wasnorm_wordpool.txt	LTP106	ltpFR	16	12	0	BRAIN	165	n/a	n/a	0	0.57763671875	0.412841796875	1	lower	zerothre.ttf
1868.974	n/a	WORD	934487	wordpools/wasnorm_wordpool.txt	LTP106	ltpFR	16	12	0	TRANSPLANT	1496	n/a	n/a	0	0.57763671875	0.412841796875	1	lower	zerothre.ttf
1872.874	n/a	WORD	936437	wordpools/wasnorm_wordpool.txt	LTP106	ltpFR	16	12	0	SWATTER	1418	n/a	n/a	0	0.57763671875	0.412841796875	1	lower	zerothre.ttf
1876.782	n/a	WORD	938391	wordpools/wasnorm_wordpool.txt	LTP106	ltpFR	16	12	0	PROFESSIONAL	1130	n/a	n/a	1	0.57763671875	0.412841796875	1	lower	zerothre.ttf
1880.664	n/a	WORD	940332	wordpools/wasnorm_wordpool.txt	LTP106	ltpFR	16	12	0	FRAGRANCE	599	n/a	n/a	0	0.57763671875	0.412841796875	1	lower	zerothre.ttf
1884.614	n/a	WORD	942307	wordpools/wasnorm_wordpool.txt	LTP106	ltpFR	16	12	0	MARSH	874	n/a	n/a	1	0.57763671875	0.412841796875	1	lower	zerothre.ttf
1888.772	n/a	WORD	944386	wordpools/wasnorm_wordpool.txt	LTP106	ltpFR	16	12	0	PANTS	1010	n/a	n/a	0	0.57763671875	0.412841796875	1	lower	zerothre.ttf
1892.73	n/a	WORD	946365	wordpools/wasnorm_wordpool.txt	LTP106	ltpFR	16	12	0	SHIRT	1287	n/a	n/a	0	0.57763671875	0.412841796875	1	lower	zerothre.ttf
1896.94	n/a	WORD	948470	wordpools/wasnorm_wordpool.txt	LTP106	ltpFR	16	12	0	BARTENDER	92	n/a	n/a	1	0.57763671875	0.412841796875	1	lower	zerothre.ttf
1900.924	n/a	WORD	950462	wordpools/wasnorm_wordpool.txt	LTP106	ltpFR	16	12	0	SERVER	1272	n/a	n/a	1	0.57763671875	0.412841796875	1	lower	zerothre.ttf
1905.04	n/a	WORD	952520	wordpools/wasnorm_wordpool.txt	LTP106	ltpFR	16	12	0	MEAL	882	n/a	n/a	0	0.57763671875	0.412841796875	1	lower	zerothre.ttf
1909.248	n/a	WORD	954624	wordpools/wasnorm_wordpool.txt	LTP106	ltpFR	16	12	0	LIPSTICK	829	n/a	n/a	0	0.57763671875	0.412841796875	1	lower	zerothre.ttf
1913.23	n/a	WORD	956615	wordpools/wasnorm_wordpool.txt	LTP106	ltpFR	16	12	0	COCKTAIL	338	n/a	n/a	0	0.57763671875	0.412841796875	1	lower	zerothre.ttf
1917.39	n/a	WORD	958695	wordpools/wasnorm_wordpool.txt	LTP106	ltpFR	16	12	0	BEETLE	116	n/a	n/a	0	0.57763671875	0.412841796875	1	lower	zerothre.ttf
1921.414	n/a	WORD	960707	wordpools/wasnorm_wordpool.txt	LTP106	ltpFR	16	12	0	CLOWN	330	n/a	n/a	1	0.57763671875	0.412841796875	1	lower	zerothre.ttf
1927.364	n/a	REC_START	963682	n/a	LTP106	ltpFR	16	12	n/a	n/a	n/a	n/a	n/a	n/a	n/a	n/a	n/a	n/a	n/a
1927.768	n/a	REC_WORD	963884	wordpools/wasnorm_wordpool.txt	LTP106	ltpFR	16	12	0	CLOWN	330	n/a	n/a	1	n/a	n/a	n/a	n/a	n/a
1928.508	n/a	REC_WORD	964254	wordpools/wasnorm_wordpool.txt	LTP106	ltpFR	16	12	0	BARTENDER	92	n/a	n/a	1	n/a	n/a	n/a	n/a	n/a
1929.21	n/a	REC_WORD	964605	wordpools/wasnorm_wordpool.txt	LTP106	ltpFR	16	12	0	MEAL	882	n/a	n/a	0	n/a	n/a	n/a	n/a	n/a
1929.766	n/a	REC_WORD	964883	wordpools/wasnorm_wordpool.txt	LTP106	ltpFR	16	12	0	PROFESSIONAL	1130	n/a	n/a	1	n/a	n/a	n/a	n/a	n/a
1930.566	n/a	REC_WORD	965283	wordpools/wasnorm_wordpool.txt	LTP106	ltpFR	16	12	0	LIPSTICK	829	n/a	n/a	0	n/a	n/a	n/a	n/a	n/a
1931.164	n/a	REC_WORD	965582	wordpools/wasnorm_wordpool.txt	LTP106	ltpFR	16	12	0	SHIRT	1287	n/a	n/a	0	n/a	n/a	n/a	n/a	n/a
1931.84	n/a	REC_WORD	965920	wordpools/wasnorm_wordpool.txt	LTP106	ltpFR	16	12	0	PANTS	1010	n/a	n/a	0	n/a	n/a	n/a	n/a	n/a
1932.48	n/a	REC_WORD	966240	wordpools/wasnorm_wordpool.txt	LTP106	ltpFR	16	12	0	FRAGRANCE	599	n/a	n/a	0	n/a	n/a	n/a	n/a	n/a
1933.224	n/a	REC_WORD	966612	wordpools/wasnorm_wordpool.txt	LTP106	ltpFR	16	12	0	OCEAN	970	n/a	n/a	1	n/a	n/a	n/a	n/a	n/a
1933.886	n/a	REC_WORD	966943	wordpools/wasnorm_wordpool.txt	LTP106	ltpFR	16	12	0	BRAIN	165	n/a	n/a	0	n/a	n/a	n/a	n/a	n/a
1935.018	n/a	REC_WORD	967509	wordpools/wasnorm_wordpool.txt	LTP106	ltpFR	16	12	0	TRANSPLANT	1496	n/a	n/a	0	n/a	n/a	n/a	n/a	n/a
1937.726	n/a	REC_WORD	968863	wordpools/wasnorm_wordpool.txt	LTP106	ltpFR	16	12	0	BEETLE	116	n/a	n/a	0	n/a	n/a	n/a	n/a	n/a
1942.378	n/a	REC_WORD	971189	wordpools/wasnorm_wordpool.txt	LTP106	ltpFR	16	12	0	COCKTAIL	338	n/a	n/a	0	n/a	n/a	n/a	n/a	n/a
1956.566	n/a	REC_WORD_VV	978283	wordpools/wasnorm_wordpool.txt	LTP106	ltpFR	16	12	n/a	<>	-1	n/a	n/a	n/a	n/a	n/a	n/a	n/a	n/a
1957.566	n/a	REC_WORD_VV	978783	wordpools/wasnorm_wordpool.txt	LTP106	ltpFR	16	12	n/a	<>	-1	n/a	n/a	n/a	n/a	n/a	n/a	n/a	n/a
1958.566	n/a	REC_WORD_VV	979283	wordpools/wasnorm_wordpool.txt	LTP106	ltpFR	16	12	n/a	<>	-1	n/a	n/a	n/a	n/a	n/a	n/a	n/a	n/a
1965.188	n/a	REC_WORD	982594	wordpools/wasnorm_wordpool.txt	LTP106	ltpFR	16	12	1	PURSE	1145	n/a	n/a	0	n/a	n/a	n/a	n/a	n/a
1966.64	n/a	REC_WORD	983320	wordpools/wasnorm_wordpool.txt	LTP106	ltpFR	16	12	1	COMB	351	n/a	n/a	0	n/a	n/a	n/a	n/a	n/a
1985.112	n/a	REC_WORD	992556	wordpools/wasnorm_wordpool.txt	LTP106	ltpFR	16	12	1	CASH	252	n/a	n/a	0	n/a	n/a	n/a	n/a	n/a
2002.996	n/a	REST_REWET	1001498	n/a	LTP106	ltpFR	16	12	n/a	n/a	n/a	n/a	n/a	n/a	n/a	n/a	n/a	n/a	n/a
2467.532	n/a	WORD	1233766	wordpools/wasnorm_wordpool.txt	LTP106	ltpFR	16	13	-1	KNEE	784	n/a	n/a	-1	1.0	1.0	1	upper	Verdana.ttf
2471.732	n/a	WORD	1235866	wordpools/wasnorm_wordpool.txt	LTP106	ltpFR	16	13	-1	MARBLE	867	n/a	n/a	-1	1.0	1.0	1	upper	Verdana.ttf
2475.832	n/a	WORD	1237916	wordpools/wasnorm_wordpool.txt	LTP106	ltpFR	16	13	-1	LAGOON	795	n/a	n/a	-1	1.0	1.0	1	upper	Verdana.ttf
2479.724	n/a	WORD	1239862	wordpools/wasnorm_wordpool.txt	LTP106	ltpFR	16	13	-1	GIFT	635	n/a	n/a	-1	1.0	1.0	1	upper	Verdana.ttf
2483.616	n/a	WORD	1241808	wordpools/wasnorm_wordpool.txt	LTP106	ltpFR	16	13	-1	LEG	809	n/a	n/a	-1	1.0	1.0	1	upper	Verdana.ttf
2487.798	n/a	WORD	1243899	wordpools/wasnorm_wordpool.txt	LTP106	ltpFR	16	13	-1	CELERY	266	n/a	n/a	-1	1.0	1.0	1	upper	Verdana.ttf
2491.856	n/a	WORD	1245928	wordpools/wasnorm_wordpool.txt	LTP106	ltpFR	16	13	-1	CAMEL	223	n/a	n/a	-1	1.0	1.0	1	upper	Verdana.ttf
2496.032	n/a	WORD	1248016	wordpools/wasnorm_wordpool.txt	LTP106	ltpFR	16	13	-1	CHIMNEY	301	n/a	n/a	-1	1.0	1.0	1	upper	Verdana.ttf
2500.016	n/a	WORD	1250008	wordpools/wasnorm_wordpool.txt	LTP106	ltpFR	16	13	-1	POPE	1105	n/a	n/a	-1	1.0	1.0	1	upper	Verdana.ttf
2504.19	n/a	WORD	1252095	wordpools/wasnorm_wordpool.txt	LTP106	ltpFR	16	13	-1	COPIER	377	n/a	n/a	-1	1.0	1.0	1	upper	Verdana.ttf
2508.132	n/a	WORD	1254066	wordpools/wasnorm_wordpool.txt	LTP106	ltpFR	16	13	-1	RIDER	1191	n/a	n/a	-1	1.0	1.0	1	upper	Verdana.ttf
2512.174	n/a	WORD	1256087	wordpools/wasnorm_wordpool.txt	LTP106	ltpFR	16	13	-1	HAY	693	n/a	n/a	-1	1.0	1.0	1	upper	Verdana.ttf
2516.074	n/a	WORD	1258037	wordpools/wasnorm_wordpool.txt	LTP106	ltpFR	16	13	-1	FOLDER	588	n/a	n/a	-1	1.0	1.0	1	upper	Verdana.ttf
2519.998	n/a	WORD	1259999	wordpools/wasnorm_wordpool.txt	LTP106	ltpFR	16	13	-1	POTATO	1115	n/a	n/a	-1	1.0	1.0	1	upper	Verdana.ttf
2524.206	n/a	WORD	1262103	wordpools/wasnorm_wordpool.txt	LTP106	ltpFR	16	13	-1	RADISH	1158	n/a	n/a	-1	1.0	1.0	1	upper	Verdana.ttf
2528.29	n/a	WORD	1264145	wordpools/wasnorm_wordpool.txt	LTP106	ltpFR	16	13	-1	PUMPKIN	1142	n/a	n/a	-1	1.0	1.0	1	upper	Verdana.ttf
2534.24	n/a	REC_START	1267120	n/a	LTP106	ltpFR	16	13	n/a	n/a	n/a	n/a	n/a	n/a	n/a	n/a	n/a	n/a	n/a
2534.604	n/a	REC_WORD	1267302	wordpools/wasnorm_wordpool.txt	LTP106	ltpFR	16	13	-1	RADISH	1158	n/a	n/a	-1	n/a	n/a	n/a	n/a	n/a
2535.244	n/a	REC_WORD	1267622	wordpools/wasnorm_wordpool.txt	LTP106	ltpFR	16	13	-1	PUMPKIN	1142	n/a	n/a	-1	n/a	n/a	n/a	n/a	n/a
2535.782	n/a	REC_WORD	1267891	wordpools/wasnorm_wordpool.txt	LTP106	ltpFR	16	13	-1	CELERY	266	n/a	n/a	-1	n/a	n/a	n/a	n/a	n/a
2536.46	n/a	REC_WORD	1268230	wordpools/wasnorm_wordpool.txt	LTP106	ltpFR	16	13	-1	POTATO	1115	n/a	n/a	-1	n/a	n/a	n/a	n/a	n/a
2537.086	n/a	REC_WORD	1268543	wordpools/wasnorm_wordpool.txt	LTP106	ltpFR	16	13	-1	HAY	693	n/a	n/a	-1	n/a	n/a	n/a	n/a	n/a
2537.766	n/a	REC_WORD	1268883	wordpools/wasnorm_wordpool.txt	LTP106	ltpFR	16	13	-1	RIDER	1191	n/a	n/a	-1	n/a	n/a	n/a	n/a	n/a
2538.35	n/a	REC_WORD	1269175	wordpools/wasnorm_wordpool.txt	LTP106	ltpFR	16	13	-1	FOLDER	588	n/a	n/a	-1	n/a	n/a	n/a	n/a	n/a
2541.086	n/a	REC_WORD	1270543	wordpools/wasnorm_wordpool.txt	LTP106	ltpFR	16	13	-1	GIFT	635	n/a	n/a	-1	n/a	n/a	n/a	n/a	n/a
2541.74	n/a	REC_WORD	1270870	wordpools/wasnorm_wordpool.txt	LTP106	ltpFR	16	13	-1	KNEE	784	n/a	n/a	-1	n/a	n/a	n/a	n/a	n/a
2542.37	n/a	REC_WORD	1271185	wordpools/wasnorm_wordpool.txt	LTP106	ltpFR	16	13	-1	LEG	809	n/a	n/a	-1	n/a	n/a	n/a	n/a	n/a
2543.36	n/a	REC_WORD	1271680	wordpools/wasnorm_wordpool.txt	LTP106	ltpFR	16	13	-1	LAGOON	795	n/a	n/a	-1	n/a	n/a	n/a	n/a	n/a
2544.194	n/a	REC_WORD	1272097	wordpools/wasnorm_wordpool.txt	LTP106	ltpFR	16	13	0	MARSH	874	n/a	n/a	1	n/a	n/a	n/a	n/a	n/a
2563.372	n/a	REC_WORD	1281686	wordpools/wasnorm_wordpool.txt	LTP106	ltpFR	16	13	-1	MARBLE	867	n/a	n/a	-1	n/a	n/a	n/a	n/a	n/a
2565.066	n/a	REC_WORD	1282533	wordpools/wasnorm_wordpool.txt	LTP106	ltpFR	16	13	-1	MARBLE	867	n/a	n/a	-1	n/a	n/a	n/a	n/a	n/a
2566.268	n/a	REC_WORD	1283134	wordpools/wasnorm_wordpool.txt	LTP106	ltpFR	16	13	1	STATUE	1374	n/a	n/a	0	n/a	n/a	n/a	n/a	n/a
2577.708	n/a	REC_WORD	1288854	wordpools/wasnorm_wordpool.txt	LTP106	ltpFR	16	13	-1	PUMPKIN	1142	n/a	n/a	-1	n/a	n/a	n/a	n/a	n/a
2590.346	n/a	REC_WORD	1295173	wordpools/wasnorm_wordpool.txt	LTP106	ltpFR	16	13	n/a	HORSE	719	n/a	n/a	n/a	n/a	n/a	n/a	n/a	n/a
2599.05	n/a	REC_WORD	1299525	wordpools/wasnorm_wordpool.txt	LTP106	ltpFR	16	13	1	MULE	931	n/a	n/a	1	n/a	n/a	n/a	n/a	n/a
2613.23	n/a	WORD	1306615	wordpools/wasnorm_wordpool.txt	LTP106	ltpFR	16	14	0	GRAVE	658	n/a	n/a	1	0.57763671875	0.412841796875	1	lower	zerothre.ttf
2617.228	n/a	WORD	1308614	wordpools/wasnorm_wordpool.txt	LTP106	ltpFR	16	14	0	BLUEPRINT	142	n/a	n/a	0	0.57763671875	0.412841796875	1	lower	zerothre.ttf
2621.096	n/a	WORD	1310548	wordpools/wasnorm_wordpool.txt	LTP106	ltpFR	16	14	0	VENUS	1557	n/a	n/a	1	0.57763671875	0.412841796875	1	lower	zerothre.ttf
2624.93	n/a	WORD	1312465	wordpools/wasnorm_wordpool.txt	LTP106	ltpFR	16	14	0	ROBE	1198	n/a	n/a	0	0.57763671875	0.412841796875	1	lower	zerothre.ttf
2628.92	n/a	WORD	1314460	wordpools/wasnorm_wordpool.txt	LTP106	ltpFR	16	14	0	WASHER	1592	n/a	n/a	1	0.57763671875	0.412841796875	1	lower	zerothre.ttf
2632.752	n/a	WORD	1316376	wordpools/wasnorm_wordpool.txt	LTP106	ltpFR	16	14	0	DOCUMENT	479	n/a	n/a	0	0.57763671875	0.412841796875	1	lower	zerothre.ttf
2636.736	n/a	WORD	1318368	wordpools/wasnorm_wordpool.txt	LTP106	ltpFR	16	14	0	PREDATOR	1120	n/a	n/a	1	0.57763671875	0.412841796875	1	lower	zerothre.ttf
2640.82	n/a	WORD	1320410	wordpools/wasnorm_wordpool.txt	LTP106	ltpFR	16	14	0	ANT	25	n/a	n/a	0	0.57763671875	0.412841796875	1	lower	zerothre.ttf
2644.778	n/a	WORD	1322389	wordpools/wasnorm_wordpool.txt	LTP106	ltpFR	16	14	0	CEMETERY	269	n/a	n/a	1	0.57763671875	0.412841796875	1	lower	zerothre.ttf
2648.962	n/a	WORD	1324481	wordpools/wasnorm_wordpool.txt	LTP106	ltpFR	16	14	0	RAT	1169	n/a	n/a	0	0.57763671875	0.412841796875	1	lower	zerothre.ttf
2652.894	n/a	WORD	1326447	wordpools/wasnorm_wordpool.txt	LTP106	ltpFR	16	14	0	BINDER	127	n/a	n/a	1	0.57763671875	0.412841796875	1	lower	zerothre.ttf
2656.886	n/a	WORD	1328443	wordpools/wasnorm_wordpool.txt	LTP106	ltpFR	16	14	0	BALCONY	72	n/a	n/a	1	0.57763671875	0.412841796875	1	lower	zerothre.ttf
2661.02	n/a	WORD	1330510	wordpools/wasnorm_wordpool.txt	LTP106	ltpFR	16	14	0	CUB	419	n/a	n/a	1	0.57763671875	0.412841796875	1	lower	zerothre.ttf
2665.202	n/a	WORD	1332601	wordpools/wasnorm_wordpool.txt	LTP106	ltpFR	16	14	0	BEAR	106	n/a	n/a	1	0.57763671875	0.412841796875	1	lower	zerothre.ttf
2669.12	n/a	WORD	1334560	wordpools/wasnorm_wordpool.txt	LTP106	ltpFR	16	14	0	LAWYER	806	n/a	n/a	1	0.57763671875	0.412841796875	1	lower	zerothre.ttf
2673.302	n/a	WORD	1336651	wordpools/wasnorm_wordpool.txt	LTP106	ltpFR	16	14	0	DOORBELL	487	n/a	n/a	0	0.57763671875	0.412841796875	1	lower	zerothre.ttf
2679.37	n/a	REC_START	1339685	n/a	LTP106	ltpFR	16	14	n/a	n/a	n/a	n/a	n/a	n/a	n/a	n/a	n/a	n/a	n/a
2679.882	n/a	REC_WORD	1339941	wordpools/wasnorm_wordpool.txt	LTP106	ltpFR	16	14	0	CUB	419	n/a	n/a	1	n/a	n/a	n/a	n/a	n/a
2680.562	n/a	REC_WORD	1340281	wordpools/wasnorm_wordpool.txt	LTP106	ltpFR	16	14	0	BEAR	106	n/a	n/a	1	n/a	n/a	n/a	n/a	n/a
2681.15	n/a	REC_WORD	1340575	wordpools/wasnorm_wordpool.txt	LTP106	ltpFR	16	14	0	LAWYER	806	n/a	n/a	1	n/a	n/a	n/a	n/a	n/a
2682.004	n/a	REC_WORD	1341002	wordpools/wasnorm_wordpool.txt	LTP106	ltpFR	16	14	0	DOORBELL	487	n/a	n/a	0	n/a	n/a	n/a	n/a	n/a
2682.676	n/a	REC_WORD	1341338	wordpools/wasnorm_wordpool.txt	LTP106	ltpFR	16	14	0	BALCONY	72	n/a	n/a	1	n/a	n/a	n/a	n/a	n/a
2683.382	n/a	REC_WORD	1341691	wordpools/wasnorm_wordpool.txt	LTP106	ltpFR	16	14	0	ANT	25	n/a	n/a	0	n/a	n/a	n/a	n/a	n/a
2684.342	n/a	REC_WORD	1342171	wordpools/wasnorm_wordpool.txt	LTP106	ltpFR	16	14	0	BINDER	127	n/a	n/a	1	n/a	n/a	n/a	n/a	n/a
2685.146	n/a	REC_WORD	1342573	wordpools/wasnorm_wordpool.txt	LTP106	ltpFR	16	14	0	CEMETERY	269	n/a	n/a	1	n/a	n/a	n/a	n/a	n/a
2685.934	n/a	REC_WORD	1342967	wordpools/wasnorm_wordpool.txt	LTP106	ltpFR	16	14	0	GRAVE	658	n/a	n/a	1	n/a	n/a	n/a	n/a	n/a
2686.672	n/a	REC_WORD	1343336	wordpools/wasnorm_wordpool.txt	LTP106	ltpFR	16	14	0	VENUS	1557	n/a	n/a	1	n/a	n/a	n/a	n/a	n/a
2687.436	n/a	REC_WORD	1343718	wordpools/wasnorm_wordpool.txt	LTP106	ltpFR	16	14	0	BLUEPRINT	142	n/a	n/a	0	n/a	n/a	n/a	n/a	n/a
2689.36	n/a	REC_WORD	1344680	wordpools/wasnorm_wordpool.txt	LTP106	ltpFR	16	14	0	DRAWING	494	n/a	n/a	0	n/a	n/a	n/a	n/a	n/a
2708.42	n/a	REC_WORD	1354210	wordpools/wasnorm_wordpool.txt	LTP106	ltpFR	16	14	0	BEAR	106	n/a	n/a	1	n/a	n/a	n/a	n/a	n/a
2712.152	n/a	REC_WORD	1356076	wordpools/wasnorm_wordpool.txt	LTP106	ltpFR	16	14	0	PREDATOR	1120	n/a	n/a	1	n/a	n/a	n/a	n/a	n/a
2717.332	n/a	REC_WORD	1358666	wordpools/wasnorm_wordpool.txt	LTP106	ltpFR	16	14	1	PUPPY	1144	n/a	n/a	1	n/a	n/a	n/a	n/a	n/a
2722.492	n/a	REC_WORD	1361246	wordpools/wasnorm_wordpool.txt	LTP106	ltpFR	16	14	0	LAWYER	806	n/a	n/a	1	n/a	n/a	n/a	n/a	n/a
2757.426	n/a	WORD	1378713	wordpools/wasnorm_wordpool.txt	LTP106	ltpFR	16	15	1	COLESLAW	344	n/a	n/a	0	0.422607421875	0.5869140625	0	upper	amplitud.ttf
2761.616	n/a	WORD	1380808	wordpools/wasnorm_wordpool.txt	LTP106	ltpFR	16	15	1	PIER	1063	n/a	n/a	0	0.422607421875	0.5869140625	0	upper	amplitud.ttf
2765.674	n/a	WORD	1382837	wordpools/wasnorm_wordpool.txt	LTP106	ltpFR	16	15	0	BAY	102	n/a	n/a	1	0.57763671875	0.412841796875	1	lower	zerothre.ttf
2769.666	n/a	WORD	1384833	wordpools/wasnorm_wordpool.txt	LTP106	ltpFR	16	15	0	TUB	1514	n/a	n/a	1	0.57763671875	0.412841796875	1	lower	zerothre.ttf
2773.566	n/a	WORD	1386783	wordpools/wasnorm_wordpool.txt	LTP106	ltpFR	16	15	1	FINGER	567	n/a	n/a	0	0.422607421875	0.5869140625	0	upper	amplitud.ttf
2777.64	n/a	WORD	1388820	wordpools/wasnorm_wordpool.txt	LTP106	ltpFR	16	15	1	THIMBLE	1458	n/a	n/a	0	0.422607421875	0.5869140625	0	upper	amplitud.ttf
2781.508	n/a	WORD	1390754	wordpools/wasnorm_wordpool.txt	LTP106	ltpFR	16	15	0	ENEMY	534	n/a	n/a	1	0.57763671875	0.412841796875	1	lower	zerothre.ttf
2785.408	n/a	WORD	1392704	wordpools/wasnorm_wordpool.txt	LTP106	ltpFR	16	15	0	SCARECROW	1245	n/a	n/a	1	0.57763671875	0.412841796875	1	lower	zerothre.ttf
2789.408	n/a	WORD	1394704	wordpools/wasnorm_wordpool.txt	LTP106	ltpFR	16	15	0	STEAM	1375	n/a	n/a	1	0.57763671875	0.412841796875	1	lower	zerothre.ttf
2793.292	n/a	WORD	1396646	wordpools/wasnorm_wordpool.txt	LTP106	ltpFR	16	15	0	GALLON	618	n/a	n/a	1	0.57763671875	0.412841796875	1	lower	zerothre.ttf
2797.408	n/a	WORD	1398704	wordpools/wasnorm_wordpool.txt	LTP106	ltpFR	16	15	0	NEUTRON	947	n/a	n/a	0	0.57763671875	0.412841796875	1	lower	zerothre.ttf
2801.458	n/a	WORD	1400729	wordpools/wasnorm_wordpool.txt	LTP106	ltpFR	16	15	0	MOTHER	921	n/a	n/a	1	0.57763671875	0.412841796875	1	lower	zerothre.ttf
2805.614	n/a	WORD	1402807	wordpools/wasnorm_wordpool.txt	LTP106	ltpFR	16	15	1	LUNCH	849	n/a	n/a	0	0.422607421875	0.5869140625	0	upper	amplitud.ttf
2809.606	n/a	WORD	1404803	wordpools/wasnorm_wordpool.txt	LTP106	ltpFR	16	15	1	REFRIGERATOR	1179	n/a	n/a	1	0.422607421875	0.5869140625	0	upper	amplitud.ttf
2813.532	n/a	WORD	1406766	wordpools/wasnorm_wordpool.txt	LTP106	ltpFR	16	15	1	FRIEND	606	n/a	n/a	1	0.422607421875	0.5869140625	0	upper	amplitud.ttf
2817.606	n/a	WORD	1408803	wordpools/wasnorm_wordpool.txt	LTP106	ltpFR	16	15	1	DOVE	491	n/a	n/a	1	0.422607421875	0.5869140625	0	upper	amplitud.ttf
2823.374	n/a	REC_START	1411687	n/a	LTP106	ltpFR	16	15	n/a	n/a	n/a	n/a	n/a	n/a	n/a	n/a	n/a	n/a	n/a
2824.052	n/a	REC_WORD	1412026	wordpools/wasnorm_wordpool.txt	LTP106	ltpFR	16	15	1	DOVE	491	n/a	n/a	1	n/a	n/a	n/a	n/a	n/a
2824.616	n/a	REC_WORD	1412308	wordpools/wasnorm_wordpool.txt	LTP106	ltpFR	16	15	1	REFRIGERATOR	1179	n/a	n/a	1	n/a	n/a	n/a	n/a	n/a
2825.456	n/a	REC_WORD	1412728	wordpools/wasnorm_wordpool.txt	LTP106	ltpFR	16	15	1	FRIEND	606	n/a	n/a	1	n/a	n/a	n/a	n/a	n/a
2826.088	n/a	REC_WORD	1413044	wordpools/wasnorm_wordpool.txt	LTP106	ltpFR	16	15	0	ENEMY	534	n/a	n/a	1	n/a	n/a	n/a	n/a	n/a
2826.664	n/a	REC_WORD	1413332	wordpools/wasnorm_wordpool.txt	LTP106	ltpFR	16	15	0	TUB	1514	n/a	n/a	1	n/a	n/a	n/a	n/a	n/a
2827.37	n/a	REC_WORD	1413685	wordpools/wasnorm_wordpool.txt	LTP106	ltpFR	16	15	1	COLESLAW	344	n/a	n/a	0	n/a	n/a	n/a	n/a	n/a
2830.91	n/a	REC_WORD	1415455	wordpools/wasnorm_wordpool.txt	LTP106	ltpFR	16	15	0	GALLON	618	n/a	n/a	1	n/a	n/a	n/a	n/a	n/a
2833.29	n/a	REC_WORD	1416645	wordpools/wasnorm_wordpool.txt	LTP106	ltpFR	16	15	0	NEUTRON	947	n/a	n/a	0	n/a	n/a	n/a	n/a	n/a
2834.052	n/a	REC_WORD	1417026	wordpools/wasnorm_wordpool.txt	LTP106	ltpFR	16	15	0	MOTHER	921	n/a	n/a	1	n/a	n/a	n/a	n/a	n/a
2834.686	n/a	REC_WORD	1417343	wordpools/wasnorm_wordpool.txt	LTP106	ltpFR	16	15	1	LUNCH	849	n/a	n/a	0	n/a	n/a	n/a	n/a	n/a
2842.604	n/a	REC_WORD	1421302	wordpools/wasnorm_wordpool.txt	LTP106	ltpFR	16	15	1	FINGER	567	n/a	n/a	0	n/a	n/a	n/a	n/a	n/a
2847.542	n/a	REC_WORD	1423771	wordpools/wasnorm_wordpool.txt	LTP106	ltpFR	16	15	0	SCARECROW	1245	n/a	n/a	1	n/a	n/a	n/a	n/a	n/a
2901.43	n/a	WORD	1450715	wordpools/wasnorm_wordpool.txt	LTP106	ltpFR	16	16	-1	CAFETERIA	217	n/a	n/a	-1	1.0	1.0	1	upper	Verdana.ttf
2905.404	n/a	WORD	1452702	wordpools/wasnorm_wordpool.txt	LTP106	ltpFR	16	16	-1	MARKET	871	n/a	n/a	-1	1.0	1.0	1	upper	Verdana.ttf
2909.312	n/a	WORD	1454656	wordpools/wasnorm_wordpool.txt	LTP106	ltpFR	16	16	-1	BED	110	n/a	n/a	-1	1.0	1.0	1	upper	Verdana.ttf
2913.414	n/a	WORD	1456707	wordpools/wasnorm_wordpool.txt	LTP106	ltpFR	16	16	-1	FRIES	607	n/a	n/a	-1	1.0	1.0	1	upper	Verdana.ttf
2917.578	n/a	WORD	1458789	wordpools/wasnorm_wordpool.txt	LTP106	ltpFR	16	16	-1	DRIVEWAY	500	n/a	n/a	-1	1.0	1.0	1	upper	Verdana.ttf
2921.554	n/a	WORD	1460777	wordpools/wasnorm_wordpool.txt	LTP106	ltpFR	16	16	-1	PATROL	1027	n/a	n/a	-1	1.0	1.0	1	upper	Verdana.ttf
2925.594	n/a	WORD	1462797	wordpools/wasnorm_wordpool.txt	LTP106	ltpFR	16	16	-1	SILK	1307	n/a	n/a	-1	1.0	1.0	1	upper	Verdana.ttf
2929.42	n/a	WORD	1464710	wordpools/wasnorm_wordpool.txt	LTP106	ltpFR	16	16	-1	ANTELOPE	27	n/a	n/a	-1	1.0	1.0	1	upper	Verdana.ttf
2933.636	n/a	WORD	1466818	wordpools/wasnorm_wordpool.txt	LTP106	ltpFR	16	16	-1	TRAITOR	1495	n/a	n/a	-1	1.0	1.0	1	upper	Verdana.ttf
2937.57	n/a	WORD	1468785	wordpools/wasnorm_wordpool.txt	LTP106	ltpFR	16	16	-1	SEED	1266	n/a	n/a	-1	1.0	1.0	1	upper	Verdana.ttf
2941.404	n/a	WORD	1470702	wordpools/wasnorm_wordpool.txt	LTP106	ltpFR	16	16	-1	GAZELLE	628	n/a	n/a	-1	1.0	1.0	1	upper	Verdana.ttf
2945.246	n/a	WORD	1472623	wordpools/wasnorm_wordpool.txt	LTP106	ltpFR	16	16	-1	VILLAIN	1567	n/a	n/a	-1	1.0	1.0	1	upper	Verdana.ttf
2949.23	n/a	WORD	1474615	wordpools/wasnorm_wordpool.txt	LTP106	ltpFR	16	16	-1	AGENT	10	n/a	n/a	-1	1.0	1.0	1	upper	Verdana.ttf
2953.288	n/a	WORD	1476644	wordpools/wasnorm_wordpool.txt	LTP106	ltpFR	16	16	-1	POOL	1103	n/a	n/a	-1	1.0	1.0	1	upper	Verdana.ttf
2957.436	n/a	WORD	1478718	wordpools/wasnorm_wordpool.txt	LTP106	ltpFR	16	16	-1	CONTRACTOR	369	n/a	n/a	-1	1.0	1.0	1	upper	Verdana.ttf
2961.544	n/a	WORD	1480772	wordpools/wasnorm_wordpool.txt	LTP106	ltpFR	16	16	-1	ARCHITECT	36	n/a	n/a	-1	1.0	1.0	1	upper	Verdana.ttf
2967.536	n/a	REC_START	1483768	n/a	LTP106	ltpFR	16	16	n/a	n/a	n/a	n/a	n/a	n/a	n/a	n/a	n/a	n/a	n/a
2968.1	n/a	REC_WORD	1484050	wordpools/wasnorm_wordpool.txt	LTP106	ltpFR	16	16	-1	ARCHITECT	36	n/a	n/a	-1	n/a	n/a	n/a	n/a	n/a
2968.784	n/a	REC_WORD	1484392	wordpools/wasnorm_wordpool.txt	LTP106	ltpFR	16	16	-1	CONTRACTOR	369	n/a	n/a	-1	n/a	n/a	n/a	n/a	n/a
2969.702	n/a	REC_WORD	1484851	wordpools/wasnorm_wordpool.txt	LTP106	ltpFR	16	16	-1	POOL	1103	n/a	n/a	-1	n/a	n/a	n/a	n/a	n/a
2970.238	n/a	REC_WORD	1485119	wordpools/wasnorm_wordpool.txt	LTP106	ltpFR	16	16	-1	SEED	1266	n/a	n/a	-1	n/a	n/a	n/a	n/a	n/a
2971.602	n/a	REC_WORD	1485801	wordpools/wasnorm_wordpool.txt	LTP106	ltpFR	16	16	-1	ANTELOPE	27	n/a	n/a	-1	n/a	n/a	n/a	n/a	n/a
2972.714	n/a	REC_WORD	1486357	wordpools/wasnorm_wordpool.txt	LTP106	ltpFR	16	16	-1	GAZELLE	628	n/a	n/a	-1	n/a	n/a	n/a	n/a	n/a
2973.344	n/a	REC_WORD	1486672	wordpools/wasnorm_wordpool.txt	LTP106	ltpFR	16	16	-1	MARKET	871	n/a	n/a	-1	n/a	n/a	n/a	n/a	n/a
2973.956	n/a	REC_WORD	1486978	wordpools/wasnorm_wordpool.txt	LTP106	ltpFR	16	16	-1	CAFETERIA	217	n/a	n/a	-1	n/a	n/a	n/a	n/a	n/a
2974.814	n/a	REC_WORD	1487407	wordpools/wasnorm_wordpool.txt	LTP106	ltpFR	16	16	-1	BED	110	n/a	n/a	-1	n/a	n/a	n/a	n/a	n/a
2975.218	n/a	REC_WORD	1487609	wordpools/wasnorm_wordpool.txt	LTP106	ltpFR	16	16	-1	SILK	1307	n/a	n/a	-1	n/a	n/a	n/a	n/a	n/a
2976.24	n/a	REC_WORD	1488120	wordpools/wasnorm_wordpool.txt	LTP106	ltpFR	16	16	-1	PATROL	1027	n/a	n/a	-1	n/a	n/a	n/a	n/a	n/a
2976.97	n/a	REC_WORD	1488485	wordpools/wasnorm_wordpool.txt	LTP106	ltpFR	16	16	-1	DRIVEWAY	500	n/a	n/a	-1	n/a	n/a	n/a	n/a	n/a
2977.936	n/a	REC_WORD	1488968	wordpools/wasnorm_wordpool.txt	LTP106	ltpFR	16	16	-1	TRAITOR	1495	n/a	n/a	-1	n/a	n/a	n/a	n/a	n/a
2993.88	n/a	REC_WORD	1496940	wordpools/wasnorm_wordpool.txt	LTP106	ltpFR	16	16	0	DRAWING	494	n/a	n/a	0	n/a	n/a	n/a	n/a	n/a
2994.974	n/a	REC_WORD	1497487	wordpools/wasnorm_wordpool.txt	LTP106	ltpFR	16	16	0	BLUEPRINT	142	n/a	n/a	0	n/a	n/a	n/a	n/a	n/a
2998.036	n/a	REC_WORD	1499018	wordpools/wasnorm_wordpool.txt	LTP106	ltpFR	16	16	1	SCAPEGOAT	1244	n/a	n/a	1	n/a	n/a	n/a	n/a	n/a
3004.256	n/a	REC_WORD	1502128	wordpools/wasnorm_wordpool.txt	LTP106	ltpFR	16	16	0	VENUS	1557	n/a	n/a	1	n/a	n/a	n/a	n/a	n/a
3018.712	n/a	REC_WORD	1509356	wordpools/wasnorm_wordpool.txt	LTP106	ltpFR	16	16	-1	AGENT	10	n/a	n/a	-1	n/a	n/a	n/a	n/a	n/a
3022.362	n/a	REC_WORD	1511181	wordpools/wasnorm_wordpool.txt	LTP106	ltpFR	16	16	1	SPY	1360	n/a	n/a	1	n/a	n/a	n/a	n/a	n/a
3027.87	n/a	REC_WORD_VV	1513935	wordpools/wasnorm_wordpool.txt	LTP106	ltpFR	16	16	n/a	<>	-1	n/a	n/a	n/a	n/a	n/a	n/a	n/a	n/a
3052.776	n/a	REC_START	1526388	n/a	LTP106	ltpFR	16	n/a	n/a	n/a	n/a	n/a	n/a	n/a	n/a	n/a	n/a	n/a	n/a
3053.328	n/a	FFR_REC_WORD	1526664	wordpools/wasnorm_wordpool.txt	LTP106	ltpFR	16	n/a	-1	AGENT	10	n/a	n/a	-1	n/a	n/a	n/a	n/a	n/a
3053.898	n/a	FFR_REC_WORD	1526949	wordpools/wasnorm_wordpool.txt	LTP106	ltpFR	16	n/a	1	SPY	1360	n/a	n/a	1	n/a	n/a	n/a	n/a	n/a
3055.172	n/a	FFR_REC_WORD	1527586	wordpools/wasnorm_wordpool.txt	LTP106	ltpFR	16	n/a	-1	PATROL	1027	n/a	n/a	-1	n/a	n/a	n/a	n/a	n/a
3055.828	n/a	FFR_REC_WORD	1527914	wordpools/wasnorm_wordpool.txt	LTP106	ltpFR	16	n/a	-1	DRIVEWAY	500	n/a	n/a	-1	n/a	n/a	n/a	n/a	n/a
3056.342	n/a	FFR_REC_WORD	1528171	wordpools/wasnorm_wordpool.txt	LTP106	ltpFR	16	n/a	-1	SILK	1307	n/a	n/a	-1	n/a	n/a	n/a	n/a	n/a
3057.288	n/a	FFR_REC_WORD	1528644	wordpools/wasnorm_wordpool.txt	LTP106	ltpFR	16	n/a	-1	CAFETERIA	217	n/a	n/a	-1	n/a	n/a	n/a	n/a	n/a
3057.988	n/a	FFR_REC_WORD	1528994	wordpools/wasnorm_wordpool.txt	LTP106	ltpFR	16	n/a	-1	MARKET	871	n/a	n/a	-1	n/a	n/a	n/a	n/a	n/a
3058.53	n/a	FFR_REC_WORD	1529265	wordpools/wasnorm_wordpool.txt	LTP106	ltpFR	16	n/a	-1	ANTELOPE	27	n/a	n/a	-1	n/a	n/a	n/a	n/a	n/a
3059.102	n/a	FFR_REC_WORD	1529551	wordpools/wasnorm_wordpool.txt	LTP106	ltpFR	16	n/a	-1	GAZELLE	628	n/a	n/a	-1	n/a	n/a	n/a	n/a	n/a
3060.45	n/a	FFR_REC_WORD	1530225	wordpools/wasnorm_wordpool.txt	LTP106	ltpFR	16	n/a	1	PUPPY	1144	n/a	n/a	1	n/a	n/a	n/a	n/a	n/a
3061.01	n/a	FFR_REC_WORD	1530505	wordpools/wasnorm_wordpool.txt	LTP106	ltpFR	16	n/a	1	PAW	1029	n/a	n/a	0	n/a	n/a	n/a	n/a	n/a
3061.708	n/a	FFR_REC_WORD	1530854	wordpools/wasnorm_wordpool.txt	LTP106	ltpFR	16	n/a	1	CLAM	315	n/a	n/a	1	n/a	n/a	n/a	n/a	n/a
3062.298	n/a	FFR_REC_WORD	1531149	wordpools/wasnorm_wordpool.txt	LTP106	ltpFR	16	n/a	0	OYSTER	995	n/a	n/a	1	n/a	n/a	n/a	n/a	n/a
3063.338	n/a	FFR_REC_WORD	1531669	wordpools/wasnorm_wordpool.txt	LTP106	ltpFR	16	n/a	1	PIER	1063	n/a	n/a	0	n/a	n/a	n/a	n/a	n/a
3065.17	n/a	FFR_REC_WORD	1532585	wordpools/wasnorm_wordpool.txt	LTP106	ltpFR	16	n/a	-1	REEF	1177	n/a	n/a	-1	n/a	n/a	n/a	n/a	n/a
3065.866	n/a	FFR_REC_WORD	1532933	wordpools/wasnorm_wordpool.txt	LTP106	ltpFR	16	n/a	-1	FAUCET	555	n/a	n/a	-1	n/a	n/a	n/a	n/a	n/a
3066.782	n/a	FFR_REC_WORD	1533391	wordpools/wasnorm_wordpool.txt	LTP106	ltpFR	16	n/a	-1	ATHLETE	52	n/a	n/a	-1	n/a	n/a	n/a	n/a	n/a
3067.336	n/a	FFR_REC_WORD	1533668	wordpools/wasnorm_wordpool.txt	LTP106	ltpFR	16	n/a	-1	FOOTBALL	591	n/a	n/a	-1	n/a	n/a	n/a	n/a	n/a
3068.368	n/a	FFR_REC_WORD	1534184	wordpools/wasnorm_wordpool.txt	LTP106	ltpFR	16	n/a	1	CABINET	212	n/a	n/a	0	n/a	n/a	n/a	n/a	n/a
3069.168	n/a	FFR_REC_WORD	1534584	wordpools/wasnorm_wordpool.txt	LTP106	ltpFR	16	n/a	1	LUNCH	849	n/a	n/a	0	n/a	n/a	n/a	n/a	n/a
3069.774	n/a	FFR_REC_WORD	1534887	wordpools/wasnorm_wordpool.txt	LTP106	ltpFR	16	n/a	0	MOTHER	921	n/a	n/a	1	n/a	n/a	n/a	n/a	n/a
3070.34	n/a	FFR_REC_WORD	1535170	wordpools/wasnorm_wordpool.txt	LTP106	ltpFR	16	n/a	-1	SNACK	1331	n/a	n/a	-1	n/a	n/a	n/a	n/a	n/a
3070.97	n/a	FFR_REC_WORD	1535485	wordpools/wasnorm_wordpool.txt	LTP106	ltpFR	16	n/a	-1	STUMP	1396	n/a	n/a	-1	n/a	n/a	n/a	n/a	n/a
3072.502	n/a	FFR_REC_WORD	1536251	wordpools/wasnorm_wordpool.txt	LTP106	ltpFR	16	n/a	1	DUST	508	n/a	n/a	0	n/a	n/a	n/a	n/a	n/a
3073.11	n/a	FFR_REC_WORD	1536555	wordpools/wasnorm_wordpool.txt	LTP106	ltpFR	16	n/a	1	DILL	465	n/a	n/a	0	n/a	n/a	n/a	n/a	n/a
3073.732	n/a	FFR_REC_WORD_VV	1536866	wordpools/wasnorm_wordpool.txt	LTP106	ltpFR	16	n/a	n/a	<>	-1	n/a	n/a	n/a	n/a	n/a	n/a	n/a	n/a
3076.732	n/a	FFR_REC_WORD_VV	1538366	wordpools/wasnorm_wordpool.txt	LTP106	ltpFR	16	n/a	n/a	<>	-1	n/a	n/a	n/a	n/a	n/a	n/a	n/a	n/a
3077.274	n/a	FFR_REC_WORD	1538637	wordpools/wasnorm_wordpool.txt	LTP106	ltpFR	16	n/a	-1	CELERY	266	n/a	n/a	-1	n/a	n/a	n/a	n/a	n/a
3078.074	n/a	FFR_REC_WORD	1539037	wordpools/wasnorm_wordpool.txt	LTP106	ltpFR	16	n/a	-1	KNEE	784	n/a	n/a	-1	n/a	n/a	n/a	n/a	n/a
3078.648	n/a	FFR_REC_WORD	1539324	wordpools/wasnorm_wordpool.txt	LTP106	ltpFR	16	n/a	-1	LEG	809	n/a	n/a	-1	n/a	n/a	n/a	n/a	n/a
3079.79	n/a	FFR_REC_WORD	1539895	wordpools/wasnorm_wordpool.txt	LTP106	ltpFR	16	n/a	1	FINGER	567	n/a	n/a	0	n/a	n/a	n/a	n/a	n/a
3082.576	n/a	FFR_REC_WORD	1541288	wordpools/wasnorm_wordpool.txt	LTP106	ltpFR	16	n/a	-1	POTATO	1115	n/a	n/a	-1	n/a	n/a	n/a	n/a	n/a
3083.322	n/a	FFR_REC_WORD	1541661	wordpools/wasnorm_wordpool.txt	LTP106	ltpFR	16	n/a	-1	RADISH	1158	n/a	n/a	-1	n/a	n/a	n/a	n/a	n/a
3085.86	n/a	FFR_REC_WORD	1542930	wordpools/wasnorm_wordpool.txt	LTP106	ltpFR	16	n/a	-1	RASPBERRY	1168	n/a	n/a	-1	n/a	n/a	n/a	n/a	n/a
3087.868	n/a	FFR_REC_WORD	1543934	wordpools/wasnorm_wordpool.txt	LTP106	ltpFR	16	n/a	1	FRIEND	606	n/a	n/a	1	n/a	n/a	n/a	n/a	n/a
3088.548	n/a	FFR_REC_WORD	1544274	wordpools/wasnorm_wordpool.txt	LTP106	ltpFR	16	n/a	0	ENEMY	534	n/a	n/a	1	n/a	n/a	n/a	n/a	n/a
3089.478	n/a	FFR_REC_WORD	1544739	wordpools/wasnorm_wordpool.txt	LTP106	ltpFR	16	n/a	1	SCAPEGOAT	1244	n/a	n/a	1	n/a	n/a	n/a	n/a	n/a
3090.454	n/a	FFR_REC_WORD	1545227	wordpools/wasnorm_wordpool.txt	LTP106	ltpFR	16	n/a	1	ROBBER	1197	n/a	n/a	1	n/a	n/a	n/a	n/a	n/a
3091.268	n/a	FFR_REC_WORD	1545634	wordpools/wasnorm_wordpool.txt	LTP106	ltpFR	16	n/a	-1	VILLAIN	1567	n/a	n/a	-1	n/a	n/a	n/a	n/a	n/a
3097.71	n/a	FFR_REC_WORD	1548855	wordpools/wasnorm_wordpool.txt	LTP106	ltpFR	16	n/a	0	SHIRT	1287	n/a	n/a	0	n/a	n/a	n/a	n/a	n/a
3098.406	n/a	FFR_REC_WORD	1549203	wordpools/wasnorm_wordpool.txt	LTP106	ltpFR	16	n/a	0	PANTS	1010	n/a	n/a	0	n/a	n/a	n/a	n/a	n/a
3100.314	n/a	FFR_REC_WORD	1550157	wordpools/wasnorm_wordpool.txt	LTP106	ltpFR	16	n/a	-1	GIFT	635	n/a	n/a	-1	n/a	n/a	n/a	n/a	n/a
3109.318	n/a	FFR_REC_WORD	1554659	wordpools/wasnorm_wordpool.txt	LTP106	ltpFR	16	n/a	1	LAKE	796	n/a	n/a	1	n/a	n/a	n/a	n/a	n/a
3109.99	n/a	FFR_REC_WORD	1554995	wordpools/wasnorm_wordpool.txt	LTP106	ltpFR	16	n/a	-1	DIVER	476	n/a	n/a	-1	n/a	n/a	n/a	n/a	n/a
3110.69	n/a	FFR_REC_WORD	1555345	wordpools/wasnorm_wordpool.txt	LTP106	ltpFR	16	n/a	-1	BROOK	177	n/a	n/a	-1	n/a	n/a	n/a	n/a	n/a
3113.036	n/a	FFR_REC_WORD	1556518	wordpools/wasnorm_wordpool.txt	LTP106	ltpFR	16	n/a	0	BINDER	127	n/a	n/a	1	n/a	n/a	n/a	n/a	n/a
3113.53	n/a	FFR_REC_WORD	1556765	wordpools/wasnorm_wordpool.txt	LTP106	ltpFR	16	n/a	-1	FOLDER	588	n/a	n/a	-1	n/a	n/a	n/a	n/a	n/a
3114.548	n/a	FFR_REC_WORD	1557274	wordpools/wasnorm_wordpool.txt	LTP106	ltpFR	16	n/a	-1	FOLDER	588	n/a	n/a	-1	n/a	n/a	n/a	n/a	n/a
3115.228	n/a	FFR_REC_WORD	1557614	wordpools/wasnorm_wordpool.txt	LTP106	ltpFR	16	n/a	0	DOCUMENT	479	n/a	n/a	0	n/a	n/a	n/a	n/a	n/a
3115.93	n/a	FFR_REC_WORD	1557965	wordpools/wasnorm_wordpool.txt	LTP106	ltpFR	16	n/a	-1	MARBLE	867	n/a	n/a	-1	n/a	n/a	n/a	n/a	n/a
3116.522	n/a	FFR_REC_WORD	1558261	wordpools/wasnorm_wordpool.txt	LTP106	ltpFR	16	n/a	1	STATUE	1374	n/a	n/a	0	n/a	n/a	n/a	n/a	n/a
3117.724	n/a	FFR_REC_WORD	1558862	wordpools/wasnorm_wordpool.txt	LTP106	ltpFR	16	n/a	1	CLAY	320	n/a	n/a	0	n/a	n/a	n/a	n/a	n/a
3118.352	n/a	FFR_REC_WORD	1559176	wordpools/wasnorm_wordpool.txt	LTP106	ltpFR	16	n/a	1	SALT	1229	n/a	n/a	0	n/a	n/a	n/a	n/a	n/a
3119.36	n/a	FFR_REC_WORD	1559680	wordpools/wasnorm_wordpool.txt	LTP106	ltpFR	16	n/a	1	TOWER	1490	n/a	n/a	0	n/a	n/a	n/a	n/a	n/a
3121.056	n/a	FFR_REC_WORD	1560528	wordpools/wasnorm_wordpool.txt	LTP106	ltpFR	16	n/a	1	CHISEL	305	n/a	n/a	0	n/a	n/a	n/a	n/a	n/a
3121.718	n/a	FFR_REC_WORD	1560859	wordpools/wasnorm_wordpool.txt	LTP106	ltpFR	16	n/a	1	BAKER	71	n/a	n/a	1	n/a	n/a	n/a	n/a	n/a
3122.316	n/a	FFR_REC_WORD	1561158	wordpools/wasnorm_wordpool.txt	LTP106	ltpFR	16	n/a	1	PIE	1062	n/a	n/a	0	n/a	n/a	n/a	n/a	n/a
3123.038	n/a	FFR_REC_WORD	1561519	wordpools/wasnorm_wordpool.txt	LTP106	ltpFR	16	n/a	0	MINT	898	n/a	n/a	0	n/a	n/a	n/a	n/a	n/a
3123.658	n/a	FFR_REC_WORD	1561829	wordpools/wasnorm_wordpool.txt	LTP106	ltpFR	16	n/a	0	PASTRY	1022	n/a	n/a	0	n/a	n/a	n/a	n/a	n/a
3124.414	n/a	FFR_REC_WORD	1562207	wordpools/wasnorm_wordpool.txt	LTP106	ltpFR	16	n/a	1	ELF	525	n/a	n/a	1	n/a	n/a	n/a	n/a	n/a
3125.006	n/a	FFR_REC_WORD	1562503	wordpools/wasnorm_wordpool.txt	LTP106	ltpFR	16	n/a	1	BUFFALO	186	n/a	n/a	1	n/a	n/a	n/a	n/a	n/a
3125.648	n/a	FFR_REC_WORD	1562824	wordpools/wasnorm_wordpool.txt	LTP106	ltpFR	16	n/a	1	BISON	131	n/a	n/a	1	n/a	n/a	n/a	n/a	n/a
3127.642	n/a	FFR_REC_WORD	1563821	wordpools/wasnorm_wordpool.txt	LTP106	ltpFR	16	n/a	1	BARN	89	n/a	n/a	0	n/a	n/a	n/a	n/a	n/a
3128.276	n/a	FFR_REC_WORD	1564138	wordpools/wasnorm_wordpool.txt	LTP106	ltpFR	16	n/a	1	HEAD	695	n/a	n/a	0	n/a	n/a	n/a	n/a	n/a
3128.864	n/a	FFR_REC_WORD	1564432	wordpools/wasnorm_wordpool.txt	LTP106	ltpFR	16	n/a	1	LIVER	833	n/a	n/a	0	n/a	n/a	n/a	n/a	n/a
3129.632	n/a	FFR_REC_WORD	1564816	wordpools/wasnorm_wordpool.txt	LTP106	ltpFR	16	n/a	1	CUBE	420	n/a	n/a	0	n/a	n/a	n/a	n/a	n/a
3138.4	n/a	FFR_REC_WORD	1569200	wordpools/wasnorm_wordpool.txt	LTP106	ltpFR	16	n/a	1	GIRAFFE	636	n/a	n/a	1	n/a	n/a	n/a	n/a	n/a
3140.428	n/a	FFR_REC_WORD	1570214	wordpools/wasnorm_wordpool.txt	LTP106	ltpFR	16	n/a	0	PREDATOR	1120	n/a	n/a	1	n/a	n/a	n/a	n/a	n/a
3145.39	n/a	FFR_REC_WORD	1572695	wordpools/wasnorm_wordpool.txt	LTP106	ltpFR	16	n/a	0	BEETLE	116	n/a	n/a	0	n/a	n/a	n/a	n/a	n/a
3146.124	n/a	FFR_REC_WORD	1573062	wordpools/wasnorm_wordpool.txt	LTP106	ltpFR	16	n/a	0	ANT	25	n/a	n/a	0	n/a	n/a	n/a	n/a	n/a
3146.79	n/a	FFR_REC_WORD	1573395	wordpools/wasnorm_wordpool.txt	LTP106	ltpFR	16	n/a	0	BALCONY	72	n/a	n/a	1	n/a	n/a	n/a	n/a	n/a
3148.978	n/a	FFR_REC_WORD	1574489	wordpools/wasnorm_wordpool.txt	LTP106	ltpFR	16	n/a	0	ROOM	1206	n/a	n/a	1	n/a	n/a	n/a	n/a	n/a
3149.59	n/a	FFR_REC_WORD	1574795	wordpools/wasnorm_wordpool.txt	LTP106	ltpFR	16	n/a	-1	ROOMMATE	1207	n/a	n/a	-1	n/a	n/a	n/a	n/a	n/a
3150.226	n/a	FFR_REC_WORD	1575113	wordpools/wasnorm_wordpool.txt	LTP106	ltpFR	16	n/a	1	PRINCESS	1125	n/a	n/a	1	n/a	n/a	n/a	n/a	n/a
3150.846	n/a	FFR_REC_WORD	1575423	wordpools/wasnorm_wordpool.txt	LTP106	ltpFR	16	n/a	0	KING	777	n/a	n/a	1	n/a	n/a	n/a	n/a	n/a
3151.396	n/a	FFR_REC_WORD	1575698	wordpools/wasnorm_wordpool.txt	LTP106	ltpFR	16	n/a	1	CHILD	299	n/a	n/a	1	n/a	n/a	n/a	n/a	n/a
3154.814	n/a	FFR_REC_WORD	1577407	wordpools/wasnorm_wordpool.txt	LTP106	ltpFR	16	n/a	0	BRIDE	173	n/a	n/a	1	n/a	n/a	n/a	n/a	n/a
3155.35	n/a	FFR_REC_WORD	1577675	wordpools/wasnorm_wordpool.txt	LTP106	ltpFR	16	n/a	0	CONTAINER	366	n/a	n/a	0	n/a	n/a	n/a	n/a	n/a
3156.126	n/a	FFR_REC_WORD	1578063	wordpools/wasnorm_wordpool.txt	LTP106	ltpFR	16	n/a	0	LID	817	n/a	n/a	0	n/a	n/a	n/a	n/a	n/a
3158.484	n/a	FFR_REC_WORD	1579242	wordpools/wasnorm_wordpool.txt	LTP106	ltpFR	16	n/a	0	LOBBY	836	n/a	n/a	1	n/a	n/a	n/a	n/a	n/a
3160.904	n/a	FFR_REC_WORD	1580452	wordpools/wasnorm_wordpool.txt	LTP106	ltpFR	16	n/a	0	TOURIST	1488	n/a	n/a	1	n/a	n/a	n/a	n/a	n/a
3161.662	n/a	FFR_REC_WORD	1580831	wordpools/wasnorm_wordpool.txt	LTP106	ltpFR	16	n/a	0	TERMINAL	1450	n/a	n/a	1	n/a	n/a	n/a	n/a	n/a
3167.122	n/a	FFR_REC_WORD	1583561	wordpools/wasnorm_wordpool.txt	LTP106	ltpFR	16	n/a	-1	COURSE	390	n/a	n/a	-1	n/a	n/a	n/a	n/a	n/a
3167.978	n/a	FFR_REC_WORD	1583989	wordpools/wasnorm_wordpool.txt	LTP106	ltpFR	16	n/a	-1	ACID	2	n/a	n/a	-1	n/a	n/a	n/a	n/a	n/a
3168.664	n/a	FFR_REC_WORD	1584332	wordpools/wasnorm_wordpool.txt	LTP106	ltpFR	16	n/a	-1	GLACIER	638	n/a	n/a	-1	n/a	n/a	n/a	n/a	n/a
3170.454	n/a	FFR_REC_WORD	1585227	wordpools/wasnorm_wordpool.txt	LTP106	ltpFR	16	n/a	-1	VINEGAR	1569	n/a	n/a	-1	n/a	n/a	n/a	n/a	n/a
3174.776	n/a	FFR_REC_WORD	1587388	wordpools/wasnorm_wordpool.txt	LTP106	ltpFR	16	n/a	0	GALLON	618	n/a	n/a	1	n/a	n/a	n/a	n/a	n/a
3177.372	n/a	FFR_REC_WORD	1588686	wordpools/wasnorm_wordpool.txt	LTP106	ltpFR	16	n/a	-1	POOL	1103	n/a	n/a	-1	n/a	n/a	n/a	n/a	n/a
3178.516	n/a	FFR_REC_WORD	1589258	wordpools/wasnorm_wordpool.txt	LTP106	ltpFR	16	n/a	-1	CONTRACTOR	369	n/a	n/a	-1	n/a	n/a	n/a	n/a	n/a
3179.364	n/a	FFR_REC_WORD	1589682	wordpools/wasnorm_wordpool.txt	LTP106	ltpFR	16	n/a	-1	ARCHITECT	36	n/a	n/a	-1	n/a	n/a	n/a	n/a	n/a
3183.264	n/a	FFR_REC_WORD	1591632	wordpools/wasnorm_wordpool.txt	LTP106	ltpFR	16	n/a	1	WORKER	1621	n/a	n/a	1	n/a	n/a	n/a	n/a	n/a
3184.138	n/a	FFR_REC_WORD	1592069	wordpools/wasnorm_wordpool.txt	LTP106	ltpFR	16	n/a	1	CORPORATION	382	n/a	n/a	0	n/a	n/a	n/a	n/a	n/a
3184.952	n/a	FFR_REC_WORD	1592476	wordpools/wasnorm_wordpool.txt	LTP106	ltpFR	16	n/a	0	PROFESSIONAL	1130	n/a	n/a	1	n/a	n/a	n/a	n/a	n/a
3186.308	n/a	FFR_REC_WORD	1593154	wordpools/wasnorm_wordpool.txt	LTP106	ltpFR	16	n/a	0	LAWYER	806	n/a	n/a	1	n/a	n/a	n/a	n/a	n/a
3204.46	n/a	FFR_REC_WORD	1602230	wordpools/wasnorm_wordpool.txt	LTP106	ltpFR	16	n/a	0	OCEAN	970	n/a	n/a	1	n/a	n/a	n/a	n/a	n/a
3205.218	n/a	FFR_REC_WORD	1602609	wordpools/wasnorm_wordpool.txt	LTP106	ltpFR	16	n/a	0	BRAIN	165	n/a	n/a	0	n/a	n/a	n/a	n/a	n/a
3205.926	n/a	FFR_REC_WORD	1602963	wordpools/wasnorm_wordpool.txt	LTP106	ltpFR	16	n/a	0	VENUS	1557	n/a	n/a	1	n/a	n/a	n/a	n/a	n/a
3210.532	n/a	FFR_REC_WORD	1605266	wordpools/wasnorm_wordpool.txt	LTP106	ltpFR	16	n/a	0	TROUT	1511	n/a	n/a	0	n/a	n/a	n/a	n/a	n/a
3211.196	n/a	FFR_REC_WORD	1605598	wordpools/wasnorm_wordpool.txt	LTP106	ltpFR	16	n/a	0	TANK	1432	n/a	n/a	1	n/a	n/a	n/a	n/a	n/a
3212.156	n/a	FFR_REC_WORD	1606078	wordpools/wasnorm_wordpool.txt	LTP106	ltpFR	16	n/a	1	TAPE	1433	n/a	n/a	0	n/a	n/a	n/a	n/a	n/a
3212.646	n/a	FFR_REC_WORD	1606323	wordpools/wasnorm_wordpool.txt	LTP106	ltpFR	16	n/a	0	STRING	1394	n/a	n/a	0	n/a	n/a	n/a	n/a	n/a
3213.38	n/a	FFR_REC_WORD	1606690	wordpools/wasnorm_wordpool.txt	LTP106	ltpFR	16	n/a	0	FLASK	576	n/a	n/a	0	n/a	n/a	n/a	n/a	n/a
3214.086	n/a	FFR_REC_WORD	1607043	wordpools/wasnorm_wordpool.txt	LTP106	ltpFR	16	n/a	0	WAITRESS	1581	n/a	n/a	1	n/a	n/a	n/a	n/a	n/a
3214.672	n/a	FFR_REC_WORD	1607336	wordpools/wasnorm_wordpool.txt	LTP106	ltpFR	16	n/a	1	LIGHTNING	820	n/a	n/a	0	n/a	n/a	n/a	n/a	n/a
3218.956	n/a	FFR_REC_WORD	1609478	wordpools/wasnorm_wordpool.txt	LTP106	ltpFR	16	n/a	1	OUTLAW	989	n/a	n/a	1	n/a	n/a	n/a	n/a	n/a
3219.664	n/a	FFR_REC_WORD	1609832	wordpools/wasnorm_wordpool.txt	LTP106	ltpFR	16	n/a	1	JUVENILE	767	n/a	n/a	1	n/a	n/a	n/a	n/a	n/a
3224.398	n/a	FFR_REC_WORD	1612199	wordpools/wasnorm_wordpool.txt	LTP106	ltpFR	16	n/a	0	NEUTRON	947	n/a	n/a	0	n/a	n/a	n/a	n/a	n/a
3225.418	n/a	FFR_REC_WORD	1612709	wordpools/wasnorm_wordpool.txt	LTP106	ltpFR	16	n/a	1	ELECTRON	522	n/a	n/a	0	n/a	n/a	n/a	n/a	n/a
3226.172	n/a	FFR_REC_WORD	1613086	wordpools/wasnorm_wordpool.txt	LTP106	ltpFR	16	n/a	1	PROTON	1132	n/a	n/a	0	n/a	n/a	n/a	n/a	n/a
3245.164	n/a	FFR_REC_WORD	1622582	wordpools/wasnorm_wordpool.txt	LTP106	ltpFR	16	n/a	0	DANDELION	438	n/a	n/a	0	n/a	n/a	n/a	n/a	n/a
3246.2	n/a	FFR_REC_WORD	1623100	wordpools/wasnorm_wordpool.txt	LTP106	ltpFR	16	n/a	0	VOLCANO	1575	n/a	n/a	1	n/a	n/a	n/a	n/a	n/a
3246.944	n/a	FFR_REC_WORD	1623472	wordpools/wasnorm_wordpool.txt	LTP106	ltpFR	16	n/a	0	RABBIT	1152	n/a	n/a	0	n/a	n/a	n/a	n/a	n/a
3247.792	n/a	FFR_REC_WORD	1623896	wordpools/wasnorm_wordpool.txt	LTP106	ltpFR	16	n/a	0	BEAD	103	n/a	n/a	0	n/a	n/a	n/a	n/a	n/a
3248.402	n/a	FFR_REC_WORD	1624201	wordpools/wasnorm_wordpool.txt	LTP106	ltpFR	16	n/a	1	TOTE	1487	n/a	n/a	0	n/a	n/a	n/a	n/a	n/a
3249.052	n/a	FFR_REC_WORD	1624526	wordpools/wasnorm_wordpool.txt	LTP106	ltpFR	16	n/a	1	KNAPSACK	783	n/a	n/a	0	n/a	n/a	n/a	n/a	n/a
3251.348	n/a	FFR_REC_WORD	1625674	wordpools/wasnorm_wordpool.txt	LTP106	ltpFR	16	n/a	0	FLOWER	584	n/a	n/a	0	n/a	n/a	n/a	n/a	n/a
3252.122	n/a	FFR_REC_WORD	1626061	wordpools/wasnorm_wordpool.txt	LTP106	ltpFR	16	n/a	1	GARDEN	623	n/a	n/a	0	n/a	n/a	n/a	n/a	n/a
3252.734	n/a	FFR_REC_WORD	1626367	wordpools/wasnorm_wordpool.txt	LTP106	ltpFR	16	n/a	1	PALACE	1006	n/a	n/a	0	n/a	n/a	n/a	n/a	n/a
3253.726	n/a	FFR_REC_WORD	1626863	wordpools/wasnorm_wordpool.txt	LTP106	ltpFR	16	n/a	1	CHEF	290	n/a	n/a	1	n/a	n/a	n/a	n/a	n/a
3255.176	n/a	FFR_REC_WORD	1627588	wordpools/wasnorm_wordpool.txt	LTP106	ltpFR	16	n/a	1	DYNAMITE	511	n/a	n/a	0	n/a	n/a	n/a	n/a	n/a
3259.964	n/a	FFR_REC_WORD	1629982	wordpools/wasnorm_wordpool.txt	LTP106	ltpFR	16	n/a	0	TUB	1514	n/a	n/a	1	n/a	n/a	n/a	n/a	n/a
3260.63	n/a	FFR_REC_WORD	1630315	wordpools/wasnorm_wordpool.txt	LTP106	ltpFR	16	n/a	1	COLESLAW	344	n/a	n/a	0	n/a	n/a	n/a	n/a	n/a
3267.774	n/a	FFR_REC_WORD	1633887	wordpools/wasnorm_wordpool.txt	LTP106	ltpFR	16	n/a	-1	BED	110	n/a	n/a	-1	n/a	n/a	n/a	n/a	n/a
3277.766	n/a	FFR_REC_WORD	1638883	wordpools/wasnorm_wordpool.txt	LTP106	ltpFR	16	n/a	0	DIAGRAM	456	n/a	n/a	0	n/a	n/a	n/a	n/a	n/a
3278.716	n/a	FFR_REC_WORD	1639358	wordpools/wasnorm_wordpool.txt	LTP106	ltpFR	16	n/a	0	DRAWING	494	n/a	n/a	0	n/a	n/a	n/a	n/a	n/a
3281.758	n/a	FFR_REC_WORD	1640879	wordpools/wasnorm_wordpool.txt	LTP106	ltpFR	16	n/a	0	GRAVE	658	n/a	n/a	1	n/a	n/a	n/a	n/a	n/a
3282.196	n/a	FFR_REC_WORD	1641098	wordpools/wasnorm_wordpool.txt	LTP106	ltpFR	16	n/a	0	CEMETERY	269	n/a	n/a	1	n/a	n/a	n/a	n/a	n/a
3284.898	n/a	FFR_REC_WORD_VV	1642449	wordpools/wasnorm_wordpool.txt	LTP106	ltpFR	16	n/a	n/a	<>	-1	n/a	n/a	n/a	n/a	n/a	n/a	n/a	n/a
3285.898	n/a	FFR_REC_WORD_VV	1642949	wordpools/wasnorm_wordpool.txt	LTP106	ltpFR	16	n/a	n/a	<>	-1	n/a	n/a	n/a	n/a	n/a	n/a	n/a	n/a
3293.034	n/a	FFR_REC_WORD	1646517	wordpools/wasnorm_wordpool.txt	LTP106	ltpFR	16	n/a	0	PARROT	1015	n/a	n/a	0	n/a	n/a	n/a	n/a	n/a
3294.142	n/a	FFR_REC_WORD	1647071	wordpools/wasnorm_wordpool.txt	LTP106	ltpFR	16	n/a	0	CARDINAL	244	n/a	n/a	n/a	n/a	n/a	n/a	n/a	n/a
3305.018	n/a	FFR_REC_WORD	1652509	wordpools/wasnorm_wordpool.txt	LTP106	ltpFR	16	n/a	0	GOAT	644	n/a	n/a	1	n/a	n/a	n/a	n/a	n/a
3307.882	n/a	FFR_REC_WORD	1653941	wordpools/wasnorm_wordpool.txt	LTP106	ltpFR	16	n/a	1	SHEEP	1278	n/a	n/a	1	n/a	n/a	n/a	n/a	n/a
3376.41	n/a	REC_START	1688205	n/a	LTP106	ltpFR	16	1	n/a	n/a	n/a	n/a	n/a	n/a	n/a	n/a	n/a	n/a	n/a
3376.45	n/a	RECOG_TARGET	1688225	n/a	LTP106	ltpFR	16	1	0	MOTHER	921	1	5	1	n/a	n/a	n/a	n/a	n/a
3377.242	n/a	RECOG_RESP	1688621	n/a	LTP106	ltpFR	16	1	0	MOTHER	921	1	n/a	1	n/a	n/a	n/a	n/a	n/a
3377.842	n/a	RECOG_CONF	1688921	n/a	LTP106	ltpFR	16	1	0	MOTHER	921	n/a	5	1	n/a	n/a	n/a	n/a	n/a
3379.2	n/a	RECOG_TARGET	1689600	n/a	LTP106	ltpFR	16	1	0	KING	777	1	5	1	n/a	n/a	n/a	n/a	n/a
3379.564	n/a	RECOG_RESP	1689782	n/a	LTP106	ltpFR	16	1	0	KING	777	1	n/a	1	n/a	n/a	n/a	n/a	n/a
3380.056	n/a	RECOG_CONF	1690028	n/a	LTP106	ltpFR	16	1	0	KING	777	n/a	5	1	n/a	n/a	n/a	n/a	n/a
3381.318	n/a	RECOG_LURE	1690659	n/a	LTP106	ltpFR	16	1	n/a	SHIP	1286	0	5	n/a	n/a	n/a	n/a	n/a	n/a
3381.548	n/a	RECOG_RESP_VV	1690774	n/a	LTP106	ltpFR	16	1	n/a	SHIP	1286	1	n/a	n/a	n/a	n/a	n/a	n/a	n/a
3381.952	n/a	RECOG_RESP	1690976	n/a	LTP106	ltpFR	16	1	n/a	SHIP	1286	0	n/a	n/a	n/a	n/a	n/a	n/a	n/a
3382.486	n/a	RECOG_CONF	1691243	n/a	LTP106	ltpFR	16	1	n/a	SHIP	1286	n/a	5	n/a	n/a	n/a	n/a	n/a	n/a
3383.766	n/a	RECOG_LURE	1691883	n/a	LTP106	ltpFR	16	1	n/a	CERAMICS	271	0	5	n/a	n/a	n/a	n/a	n/a	n/a
3384.332	n/a	RECOG_RESP	1692166	n/a	LTP106	ltpFR	16	1	n/a	CERAMICS	271	0	n/a	n/a	n/a	n/a	n/a	n/a	n/a
3384.836	n/a	RECOG_CONF	1692418	n/a	LTP106	ltpFR	16	1	n/a	CERAMICS	271	n/a	5	n/a	n/a	n/a	n/a	n/a	n/a
3386.126	n/a	RECOG_TARGET	1693063	n/a	LTP106	ltpFR	16	1	0	PASTRY	1022	1	5	0	n/a	n/a	n/a	n/a	n/a
3386.492	n/a	RECOG_RESP	1693246	n/a	LTP106	ltpFR	16	1	0	PASTRY	1022	1	n/a	0	n/a	n/a	n/a	n/a	n/a
3386.852	n/a	RECOG_CONF	1693426	n/a	LTP106	ltpFR	16	1	0	PASTRY	1022	n/a	5	0	n/a	n/a	n/a	n/a	n/a
3388.208	n/a	RECOG_LURE	1694104	n/a	LTP106	ltpFR	16	1	n/a	HELMET	702	0	5	n/a	n/a	n/a	n/a	n/a	n/a
3388.542	n/a	RECOG_RESP_VV	1694271	n/a	LTP106	ltpFR	16	1	n/a	HELMET	702	1	n/a	n/a	n/a	n/a	n/a	n/a	n/a
3388.936	n/a	RECOG_RESP	1694468	n/a	LTP106	ltpFR	16	1	n/a	HELMET	702	0	n/a	n/a	n/a	n/a	n/a	n/a	n/a
3389.41	n/a	RECOG_CONF	1694705	n/a	LTP106	ltpFR	16	1	n/a	HELMET	702	n/a	5	n/a	n/a	n/a	n/a	n/a	n/a
3391.026	n/a	RECOG_TARGET	1695513	n/a	LTP106	ltpFR	16	1	-1	STOMACH	1384	1	5	-1	n/a	n/a	n/a	n/a	n/a
3391.81	n/a	RECOG_RESP	1695905	n/a	LTP106	ltpFR	16	1	-1	STOMACH	1384	1	n/a	-1	n/a	n/a	n/a	n/a	n/a
3392.308	n/a	RECOG_CONF	1696154	n/a	LTP106	ltpFR	16	1	-1	STOMACH	1384	n/a	5	-1	n/a	n/a	n/a	n/a	n/a
3393.632	n/a	RECOG_TARGET	1696816	n/a	LTP106	ltpFR	16	1	-1	POPE	1105	0	5	-1	n/a	n/a	n/a	n/a	n/a
3394.016	n/a	RECOG_RESP_VV	1697008	n/a	LTP106	ltpFR	16	1	-1	POPE	1105	1	n/a	-1	n/a	n/a	n/a	n/a	n/a
3394.32	n/a	RECOG_RESP	1697160	n/a	LTP106	ltpFR	16	1	-1	POPE	1105	0	n/a	-1	n/a	n/a	n/a	n/a	n/a
3394.774	n/a	RECOG_CONF	1697387	n/a	LTP106	ltpFR	16	1	-1	POPE	1105	n/a	5	-1	n/a	n/a	n/a	n/a	n/a
3396.166	n/a	RECOG_LURE	1698083	n/a	LTP106	ltpFR	16	1	n/a	MILK	895	0	5	n/a	n/a	n/a	n/a	n/a	n/a
3397.164	n/a	RECOG_RESP	1698582	n/a	LTP106	ltpFR	16	1	n/a	MILK	895	0	n/a	n/a	n/a	n/a	n/a	n/a	n/a
3397.654	n/a	RECOG_CONF	1698827	n/a	LTP106	ltpFR	16	1	n/a	MILK	895	n/a	5	n/a	n/a	n/a	n/a	n/a	n/a
3399.034	n/a	RECOG_LURE	1699517	n/a	LTP106	ltpFR	16	1	n/a	BARK	87	0	5	n/a	n/a	n/a	n/a	n/a	n/a
3399.604	n/a	RECOG_RESP	1699802	n/a	LTP106	ltpFR	16	1	n/a	BARK	87	0	n/a	n/a	n/a	n/a	n/a	n/a	n/a
3400.06	n/a	RECOG_CONF	1700030	n/a	LTP106	ltpFR	16	1	n/a	BARK	87	n/a	5	n/a	n/a	n/a	n/a	n/a	n/a
3401.3	n/a	RECOG_LURE	1700650	n/a	LTP106	ltpFR	16	1	n/a	FOREST	593	0	5	n/a	n/a	n/a	n/a	n/a	n/a
3401.714	n/a	RECOG_RESP	1700857	n/a	LTP106	ltpFR	16	1	n/a	FOREST	593	0	n/a	n/a	n/a	n/a	n/a	n/a	n/a
3402.194	n/a	RECOG_CONF	1701097	n/a	LTP106	ltpFR	16	1	n/a	FOREST	593	n/a	5	n/a	n/a	n/a	n/a	n/a	n/a
3403.5	n/a	RECOG_TARGET	1701750	n/a	LTP106	ltpFR	16	1	-1	FOLDER	588	1	5	-1	n/a	n/a	n/a	n/a	n/a
3404.194	n/a	RECOG_RESP	1702097	n/a	LTP106	ltpFR	16	1	-1	FOLDER	588	1	n/a	-1	n/a	n/a	n/a	n/a	n/a
3404.598	n/a	RECOG_CONF	1702299	n/a	LTP106	ltpFR	16	1	-1	FOLDER	588	n/a	5	-1	n/a	n/a	n/a	n/a	n/a
3406.0	n/a	RECOG_TARGET	1703000	n/a	LTP106	ltpFR	16	1	1	LEADER	807	1	5	0	n/a	n/a	n/a	n/a	n/a
3406.374	n/a	RECOG_RESP	1703187	n/a	LTP106	ltpFR	16	1	1	LEADER	807	1	n/a	0	n/a	n/a	n/a	n/a	n/a
3406.768	n/a	RECOG_CONF	1703384	n/a	LTP106	ltpFR	16	1	1	LEADER	807	n/a	5	0	n/a	n/a	n/a	n/a	n/a
3408.074	n/a	RECOG_TARGET	1704037	n/a	LTP106	ltpFR	16	1	1	CRAB	397	1	5	1	n/a	n/a	n/a	n/a	n/a
3408.488	n/a	RECOG_RESP	1704244	n/a	LTP106	ltpFR	16	1	1	CRAB	397	1	n/a	1	n/a	n/a	n/a	n/a	n/a
3408.9	n/a	RECOG_CONF	1704450	n/a	LTP106	ltpFR	16	1	1	CRAB	397	n/a	5	1	n/a	n/a	n/a	n/a	n/a
3410.158	n/a	RECOG_TARGET	1705079	n/a	LTP106	ltpFR	16	1	-1	RIDER	1191	1	5	-1	n/a	n/a	n/a	n/a	n/a
3410.508	n/a	RECOG_RESP	1705254	n/a	LTP106	ltpFR	16	1	-1	RIDER	1191	1	n/a	-1	n/a	n/a	n/a	n/a	n/a
3410.972	n/a	RECOG_CONF	1705486	n/a	LTP106	ltpFR	16	1	-1	RIDER	1191	n/a	5	-1	n/a	n/a	n/a	n/a	n/a
3412.224	n/a	RECOG_TARGET	1706112	n/a	LTP106	ltpFR	16	1	-1	ANTELOPE	27	1	5	-1	n/a	n/a	n/a	n/a	n/a
3412.53	n/a	RECOG_RESP	1706265	n/a	LTP106	ltpFR	16	1	-1	ANTELOPE	27	1	n/a	-1	n/a	n/a	n/a	n/a	n/a
3412.94	n/a	RECOG_CONF	1706470	n/a	LTP106	ltpFR	16	1	-1	ANTELOPE	27	n/a	5	-1	n/a	n/a	n/a	n/a	n/a
3414.232	n/a	RECOG_TARGET	1707116	n/a	LTP106	ltpFR	16	1	0	LOBBY	836	1	5	1	n/a	n/a	n/a	n/a	n/a
3414.52	n/a	RECOG_RESP	1707260	n/a	LTP106	ltpFR	16	1	0	LOBBY	836	1	n/a	1	n/a	n/a	n/a	n/a	n/a
3414.908	n/a	RECOG_CONF	1707454	n/a	LTP106	ltpFR	16	1	0	LOBBY	836	n/a	5	1	n/a	n/a	n/a	n/a	n/a
3416.19	n/a	RECOG_TARGET	1708095	n/a	LTP106	ltpFR	16	1	0	RECEPTIONIST	1174	1	5	1	n/a	n/a	n/a	n/a	n/a
3416.496	n/a	RECOG_RESP	1708248	n/a	LTP106	ltpFR	16	1	0	RECEPTIONIST	1174	1	n/a	1	n/a	n/a	n/a	n/a	n/a
3416.884	n/a	RECOG_CONF	1708442	n/a	LTP106	ltpFR	16	1	0	RECEPTIONIST	1174	n/a	5	1	n/a	n/a	n/a	n/a	n/a
3418.174	n/a	RECOG_TARGET	1709087	n/a	LTP106	ltpFR	16	1	0	DRILL	497	1	5	0	n/a	n/a	n/a	n/a	n/a
3418.452	n/a	RECOG_RESP	1709226	n/a	LTP106	ltpFR	16	1	0	DRILL	497	1	n/a	0	n/a	n/a	n/a	n/a	n/a
3418.84	n/a	RECOG_CONF	1709420	n/a	LTP106	ltpFR	16	1	0	DRILL	497	n/a	5	0	n/a	n/a	n/a	n/a	n/a
3420.166	n/a	RECOG_LURE	1710083	n/a	LTP106	ltpFR	16	1	n/a	AIRCRAFT	11	0	5	n/a	n/a	n/a	n/a	n/a	n/a
3420.478	n/a	RECOG_RESP_VV	1710239	n/a	LTP106	ltpFR	16	1	n/a	AIRCRAFT	11	1	n/a	n/a	n/a	n/a	n/a	n/a	n/a
3420.99	n/a	RECOG_RESP	1710495	n/a	LTP106	ltpFR	16	1	n/a	AIRCRAFT	11	0	n/a	n/a	n/a	n/a	n/a	n/a	n/a
3421.444	n/a	RECOG_CONF	1710722	n/a	LTP106	ltpFR	16	1	n/a	AIRCRAFT	11	n/a	5	n/a	n/a	n/a	n/a	n/a	n/a
3424.51	n/a	REC_START	1712255	n/a	LTP106	ltpFR	16	2	n/a	n/a	n/a	n/a	n/a	n/a	n/a	n/a	n/a	n/a	n/a
3424.542	n/a	RECOG_TARGET	1712271	n/a	LTP106	ltpFR	16	2	0	LAPEL	800	1	5	0	n/a	n/a	n/a	n/a	n/a
3425.024	n/a	RECOG_RESP	1712512	n/a	LTP106	ltpFR	16	2	0	LAPEL	800	1	n/a	0	n/a	n/a	n/a	n/a	n/a
3425.454	n/a	RECOG_CONF	1712727	n/a	LTP106	ltpFR	16	2	0	LAPEL	800	n/a	5	0	n/a	n/a	n/a	n/a	n/a
3426.714	n/a	RECOG_LURE	1713357	n/a	LTP106	ltpFR	16	2	n/a	OX	994	0	5	n/a	n/a	n/a	n/a	n/a	n/a
3426.964	n/a	RECOG_RESP_VV	1713482	n/a	LTP106	ltpFR	16	2	n/a	OX	994	1	n/a	n/a	n/a	n/a	n/a	n/a	n/a
3427.538	n/a	RECOG_RESP	1713769	n/a	LTP106	ltpFR	16	2	n/a	OX	994	0	n/a	n/a	n/a	n/a	n/a	n/a	n/a
3428.018	n/a	RECOG_CONF	1714009	n/a	LTP106	ltpFR	16	2	n/a	OX	994	n/a	5	n/a	n/a	n/a	n/a	n/a	n/a
3429.324	n/a	RECOG_LURE	1714662	n/a	LTP106	ltpFR	16	2	n/a	JUNGLE	764	0	5	n/a	n/a	n/a	n/a	n/a	n/a
3429.592	n/a	RECOG_RESP_VV	1714796	n/a	LTP106	ltpFR	16	2	n/a	JUNGLE	764	1	n/a	n/a	n/a	n/a	n/a	n/a	n/a
3430.012	n/a	RECOG_RESP	1715006	n/a	LTP106	ltpFR	16	2	n/a	JUNGLE	764	0	n/a	n/a	n/a	n/a	n/a	n/a	n/a
3430.388	n/a	RECOG_CONF	1715194	n/a	LTP106	ltpFR	16	2	n/a	JUNGLE	764	n/a	5	n/a	n/a	n/a	n/a	n/a	n/a
3431.714	n/a	RECOG_TARGET	1715857	n/a	LTP106	ltpFR	16	2	1	SALT	1229	1	5	0	n/a	n/a	n/a	n/a	n/a
3432.142	n/a	RECOG_RESP	1716071	n/a	LTP106	ltpFR	16	2	1	SALT	1229	1	n/a	0	n/a	n/a	n/a	n/a	n/a
3432.526	n/a	RECOG_CONF	1716263	n/a	LTP106	ltpFR	16	2	1	SALT	1229	n/a	5	0	n/a	n/a	n/a	n/a	n/a
3433.84	n/a	RECOG_LURE	1716920	n/a	LTP106	ltpFR	16	2	n/a	SALAD	1224	0	5	n/a	n/a	n/a	n/a	n/a	n/a
3434.208	n/a	RECOG_RESP_VV	1717104	n/a	LTP106	ltpFR	16	2	n/a	SALAD	1224	1	n/a	n/a	n/a	n/a	n/a	n/a	n/a
3434.602	n/a	RECOG_RESP	1717301	n/a	LTP106	ltpFR	16	2	n/a	SALAD	1224	0	n/a	n/a	n/a	n/a	n/a	n/a	n/a
3434.99	n/a	RECOG_CONF	1717495	n/a	LTP106	ltpFR	16	2	n/a	SALAD	1224	n/a	5	n/a	n/a	n/a	n/a	n/a	n/a
3436.366	n/a	RECOG_LURE	1718183	n/a	LTP106	ltpFR	16	2	n/a	COBRA	336	1	5	n/a	n/a	n/a	n/a	n/a	n/a
3436.908	n/a	RECOG_RESP	1718454	n/a	LTP106	ltpFR	16	2	n/a	COBRA	336	1	n/a	n/a	n/a	n/a	n/a	n/a	n/a
3437.272	n/a	RECOG_CONF	1718636	n/a	LTP106	ltpFR	16	2	n/a	COBRA	336	n/a	5	n/a	n/a	n/a	n/a	n/a	n/a
3438.598	n/a	RECOG_TARGET	1719299	n/a	LTP106	ltpFR	16	2	1	PIE	1062	1	5	0	n/a	n/a	n/a	n/a	n/a
3439.128	n/a	RECOG_RESP	1719564	n/a	LTP106	ltpFR	16	2	1	PIE	1062	1	n/a	0	n/a	n/a	n/a	n/a	n/a
3439.488	n/a	RECOG_CONF	1719744	n/a	LTP106	ltpFR	16	2	1	PIE	1062	n/a	5	0	n/a	n/a	n/a	n/a	n/a
3440.782	n/a	RECOG_LURE	1720391	n/a	LTP106	ltpFR	16	2	n/a	POLE	1097	0	5	n/a	n/a	n/a	n/a	n/a	n/a
3441.152	n/a	RECOG_RESP_VV	1720576	n/a	LTP106	ltpFR	16	2	n/a	POLE	1097	1	n/a	n/a	n/a	n/a	n/a	n/a	n/a
3441.646	n/a	RECOG_RESP	1720823	n/a	LTP106	ltpFR	16	2	n/a	POLE	1097	0	n/a	n/a	n/a	n/a	n/a	n/a	n/a
3442.08	n/a	RECOG_CONF	1721040	n/a	LTP106	ltpFR	16	2	n/a	POLE	1097	n/a	5	n/a	n/a	n/a	n/a	n/a	n/a
3443.474	n/a	RECOG_TARGET	1721737	n/a	LTP106	ltpFR	16	2	1	CORPORATION	382	1	5	0	n/a	n/a	n/a	n/a	n/a
3444.04	n/a	RECOG_RESP	1722020	n/a	LTP106	ltpFR	16	2	1	CORPORATION	382	1	n/a	0	n/a	n/a	n/a	n/a	n/a
3444.404	n/a	RECOG_CONF	1722202	n/a	LTP106	ltpFR	16	2	1	CORPORATION	382	n/a	5	0	n/a	n/a	n/a	n/a	n/a
3445.772	n/a	RECOG_TARGET	1722886	n/a	LTP106	ltpFR	16	2	0	BOOTH	151	1	5	1	n/a	n/a	n/a	n/a	n/a
3446.162	n/a	RECOG_RESP	1723081	n/a	LTP106	ltpFR	16	2	0	BOOTH	151	1	n/a	1	n/a	n/a	n/a	n/a	n/a
3446.502	n/a	RECOG_CONF	1723251	n/a	LTP106	ltpFR	16	2	0	BOOTH	151	n/a	5	1	n/a	n/a	n/a	n/a	n/a
3447.864	n/a	RECOG_LURE	1723932	n/a	LTP106	ltpFR	16	2	n/a	TOASTER	1472	0	5	n/a	n/a	n/a	n/a	n/a	n/a
3448.292	n/a	RECOG_RESP_VV	1724146	n/a	LTP106	ltpFR	16	2	n/a	TOASTER	1472	1	n/a	n/a	n/a	n/a	n/a	n/a	n/a
3448.67	n/a	RECOG_RESP	1724335	n/a	LTP106	ltpFR	16	2	n/a	TOASTER	1472	0	n/a	n/a	n/a	n/a	n/a	n/a	n/a
3449.184	n/a	RECOG_CONF	1724592	n/a	LTP106	ltpFR	16	2	n/a	TOASTER	1472	n/a	5	n/a	n/a	n/a	n/a	n/a	n/a
3450.516	n/a	RECOG_TARGET	1725258	n/a	LTP106	ltpFR	16	2	0	FEATHER	557	1	5	0	n/a	n/a	n/a	n/a	n/a
3451.144	n/a	RECOG_RESP	1725572	n/a	LTP106	ltpFR	16	2	0	FEATHER	557	1	n/a	0	n/a	n/a	n/a	n/a	n/a
3451.506	n/a	RECOG_CONF	1725753	n/a	LTP106	ltpFR	16	2	0	FEATHER	557	n/a	5	0	n/a	n/a	n/a	n/a	n/a
3453.232	n/a	RECOG_TARGET	1726616	n/a	LTP106	ltpFR	16	2	1	CHIMPANZEE	302	1	5	1	n/a	n/a	n/a	n/a	n/a
3453.67	n/a	RECOG_RESP	1726835	n/a	LTP106	ltpFR	16	2	1	CHIMPANZEE	302	1	n/a	1	n/a	n/a	n/a	n/a	n/a
3454.034	n/a	RECOG_CONF	1727017	n/a	LTP106	ltpFR	16	2	1	CHIMPANZEE	302	n/a	5	1	n/a	n/a	n/a	n/a	n/a
3455.374	n/a	RECOG_LURE	1727687	n/a	LTP106	ltpFR	16	2	n/a	VINE	1568	0	5	n/a	n/a	n/a	n/a	n/a	n/a
3455.714	n/a	RECOG_RESP_VV	1727857	n/a	LTP106	ltpFR	16	2	n/a	VINE	1568	1	n/a	n/a	n/a	n/a	n/a	n/a	n/a
3456.15	n/a	RECOG_RESP	1728075	n/a	LTP106	ltpFR	16	2	n/a	VINE	1568	0	n/a	n/a	n/a	n/a	n/a	n/a	n/a
3456.556	n/a	RECOG_CONF	1728278	n/a	LTP106	ltpFR	16	2	n/a	VINE	1568	n/a	5	n/a	n/a	n/a	n/a	n/a	n/a
3457.89	n/a	RECOG_TARGET	1728945	n/a	LTP106	ltpFR	16	2	-1	LIST	830	1	5	-1	n/a	n/a	n/a	n/a	n/a
3458.314	n/a	RECOG_RESP	1729157	n/a	LTP106	ltpFR	16	2	-1	LIST	830	1	n/a	-1	n/a	n/a	n/a	n/a	n/a
3458.726	n/a	RECOG_CONF	1729363	n/a	LTP106	ltpFR	16	2	-1	LIST	830	n/a	5	-1	n/a	n/a	n/a	n/a	n/a
