mstime	trial_type	stim_file	subject	experiment	session	trial	task	item_name	item_num	recog_resp	recog_conf	resp	color_r	color_g	color_b	case	font
0	SESS_START	n/a	LTP153	ltpFR	6	n/a	n/a	n/a	n/a	0	n/a	n/a	n/a	n/a	n/a	n/a	n/a
37964	WORD	wordpools/wasnorm_wordpool.txt	LTP153	ltpFR	6	1	1	SUBURB	1399	n/a	n/a	0	0.422607421875	0.5869140625	0	lower	amplitud.ttf
41891	WORD	wordpools/wasnorm_wordpool.txt	LTP153	ltpFR	6	1	1	FLORIDA	582	n/a	n/a	0	0.422607421875	0.5869140625	0	lower	amplitud.ttf
46035	WORD	wordpools/wasnorm_wordpool.txt	LTP153	ltpFR	6	1	0	GOVERNOR	651	n/a	n/a	1	0.57763671875	0.412841796875	1	upper	zerothre.ttf
50096	WORD	wordpools/wasnorm_wordpool.txt	LTP153	ltpFR	6	1	0	SIDEWALK	1303	n/a	n/a	1	0.57763671875	0.412841796875	1	upper	zerothre.ttf
54306	WORD	wordpools/wasnorm_wordpool.txt	LTP153	ltpFR	6	1	0	ALLEY	15	n/a	n/a	1	0.57763671875	0.412841796875	1	upper	zerothre.ttf
58267	WORD	wordpools/wasnorm_wordpool.txt	LTP153	ltpFR	6	1	0	RATTLE	1170	n/a	n/a	0	0.57763671875	0.412841796875	1	upper	zerothre.ttf
62461	WORD	wordpools/wasnorm_wordpool.txt	LTP153	ltpFR	6	1	0	CRAB	397	n/a	n/a	0	0.57763671875	0.412841796875	1	upper	zerothre.ttf
66655	WORD	wordpools/wasnorm_wordpool.txt	LTP153	ltpFR	6	1	1	BIRD	129	n/a	n/a	1	0.422607421875	0.5869140625	0	lower	amplitud.ttf
70566	WORD	wordpools/wasnorm_wordpool.txt	LTP153	ltpFR	6	1	1	MOON	914	n/a	n/a	0	0.422607421875	0.5869140625	0	lower	amplitud.ttf
74627	WORD	wordpools/wasnorm_wordpool.txt	LTP153	ltpFR	6	1	1	INFANT	737	n/a	n/a	1	0.422607421875	0.5869140625	0	lower	amplitud.ttf
78770	WORD	wordpools/wasnorm_wordpool.txt	LTP153	ltpFR	6	1	1	TUTU	1524	n/a	n/a	0	0.422607421875	0.5869140625	0	lower	amplitud.ttf
82798	WORD	wordpools/wasnorm_wordpool.txt	LTP153	ltpFR	6	1	1	SUMMIT	1405	n/a	n/a	0	0.422607421875	0.5869140625	0	lower	amplitud.ttf
87007	WORD	wordpools/wasnorm_wordpool.txt	LTP153	ltpFR	6	1	1	NEUTRON	947	n/a	n/a	0	0.422607421875	0.5869140625	0	lower	amplitud.ttf
91068	WORD	wordpools/wasnorm_wordpool.txt	LTP153	ltpFR	6	1	0	BOMB	147	n/a	n/a	0	0.57763671875	0.412841796875	1	upper	zerothre.ttf
94945	WORD	wordpools/wasnorm_wordpool.txt	LTP153	ltpFR	6	1	0	STAR	1373	n/a	n/a	0	0.57763671875	0.412841796875	1	upper	zerothre.ttf
98873	WORD	wordpools/wasnorm_wordpool.txt	LTP153	ltpFR	6	1	0	SWATTER	1418	n/a	n/a	0	0.57763671875	0.412841796875	1	upper	zerothre.ttf
104732	REC_START	n/a	LTP153	ltpFR	6	1	n/a	n/a	n/a	n/a	n/a	n/a	n/a	n/a	n/a	n/a	n/a
105629	REC_WORD	wordpools/wasnorm_wordpool.txt	LTP153	ltpFR	6	1	0	SWATTER	1418	n/a	n/a	0	n/a	n/a	n/a	n/a	n/a
106637	REC_WORD	wordpools/wasnorm_wordpool.txt	LTP153	ltpFR	6	1	0	STAR	1373	n/a	n/a	0	n/a	n/a	n/a	n/a	n/a
107770	REC_WORD	wordpools/wasnorm_wordpool.txt	LTP153	ltpFR	6	1	0	BOMB	147	n/a	n/a	0	n/a	n/a	n/a	n/a	n/a
108867	REC_WORD	wordpools/wasnorm_wordpool.txt	LTP153	ltpFR	6	1	0	CRAB	397	n/a	n/a	0	n/a	n/a	n/a	n/a	n/a
109825	REC_WORD	wordpools/wasnorm_wordpool.txt	LTP153	ltpFR	6	1	0	RATTLE	1170	n/a	n/a	0	n/a	n/a	n/a	n/a	n/a
110698	REC_WORD	wordpools/wasnorm_wordpool.txt	LTP153	ltpFR	6	1	1	SUMMIT	1405	n/a	n/a	0	n/a	n/a	n/a	n/a	n/a
111735	REC_WORD	wordpools/wasnorm_wordpool.txt	LTP153	ltpFR	6	1	1	SUBURB	1399	n/a	n/a	0	n/a	n/a	n/a	n/a	n/a
112718	REC_WORD	wordpools/wasnorm_wordpool.txt	LTP153	ltpFR	6	1	1	FLORIDA	582	n/a	n/a	0	n/a	n/a	n/a	n/a	n/a
116061	REC_WORD	wordpools/wasnorm_wordpool.txt	LTP153	ltpFR	6	1	0	GOVERNOR	651	n/a	n/a	1	n/a	n/a	n/a	n/a	n/a
119238	REC_WORD	wordpools/wasnorm_wordpool.txt	LTP153	ltpFR	6	1	0	SIDEWALK	1303	n/a	n/a	1	n/a	n/a	n/a	n/a	n/a
122117	REC_WORD	wordpools/wasnorm_wordpool.txt	LTP153	ltpFR	6	1	1	INFANT	737	n/a	n/a	1	n/a	n/a	n/a	n/a	n/a
123504	REC_WORD	wordpools/wasnorm_wordpool.txt	LTP153	ltpFR	6	1	1	BIRD	129	n/a	n/a	1	n/a	n/a	n/a	n/a	n/a
126926	REC_WORD	wordpools/wasnorm_wordpool.txt	LTP153	ltpFR	6	1	1	NEUTRON	947	n/a	n/a	0	n/a	n/a	n/a	n/a	n/a
132583	REC_WORD	wordpools/wasnorm_wordpool.txt	LTP153	ltpFR	6	1	1	TUTU	1524	n/a	n/a	0	n/a	n/a	n/a	n/a	n/a
224519	WORD	wordpools/wasnorm_wordpool.txt	LTP153	ltpFR	6	2	0	PAINTER	1004	n/a	n/a	1	0.57763671875	0.412841796875	1	upper	zerothre.ttf
228647	WORD	wordpools/wasnorm_wordpool.txt	LTP153	ltpFR	6	2	0	WORLD	1622	n/a	n/a	1	0.57763671875	0.412841796875	1	upper	zerothre.ttf
232607	WORD	wordpools/wasnorm_wordpool.txt	LTP153	ltpFR	6	2	0	EMPLOYER	532	n/a	n/a	1	0.57763671875	0.412841796875	1	upper	zerothre.ttf
236618	WORD	wordpools/wasnorm_wordpool.txt	LTP153	ltpFR	6	2	1	SCULPTURE	1258	n/a	n/a	0	0.422607421875	0.5869140625	0	lower	amplitud.ttf
240529	WORD	wordpools/wasnorm_wordpool.txt	LTP153	ltpFR	6	2	1	PHOTO	1055	n/a	n/a	0	0.422607421875	0.5869140625	0	lower	amplitud.ttf
244723	WORD	wordpools/wasnorm_wordpool.txt	LTP153	ltpFR	6	2	1	PERSON	1052	n/a	n/a	1	0.422607421875	0.5869140625	0	lower	amplitud.ttf
248584	WORD	wordpools/wasnorm_wordpool.txt	LTP153	ltpFR	6	2	1	BOSS	152	n/a	n/a	1	0.422607421875	0.5869140625	0	lower	amplitud.ttf
252544	WORD	wordpools/wasnorm_wordpool.txt	LTP153	ltpFR	6	2	0	SCENERY	1247	n/a	n/a	1	0.57763671875	0.412841796875	1	upper	zerothre.ttf
256572	WORD	wordpools/wasnorm_wordpool.txt	LTP153	ltpFR	6	2	0	SNORKEL	1336	n/a	n/a	0	0.57763671875	0.412841796875	1	upper	zerothre.ttf
260765	WORD	wordpools/wasnorm_wordpool.txt	LTP153	ltpFR	6	2	0	POOL	1103	n/a	n/a	1	0.57763671875	0.412841796875	1	upper	zerothre.ttf
264892	WORD	wordpools/wasnorm_wordpool.txt	LTP153	ltpFR	6	2	0	CLOTHES	327	n/a	n/a	1	0.57763671875	0.412841796875	1	upper	zerothre.ttf
268852	WORD	wordpools/wasnorm_wordpool.txt	LTP153	ltpFR	6	2	0	RAG	1160	n/a	n/a	1	0.57763671875	0.412841796875	1	upper	zerothre.ttf
272714	WORD	wordpools/wasnorm_wordpool.txt	LTP153	ltpFR	6	2	1	ELBOW	520	n/a	n/a	0	0.422607421875	0.5869140625	0	lower	amplitud.ttf
276758	WORD	wordpools/wasnorm_wordpool.txt	LTP153	ltpFR	6	2	1	MARROW	872	n/a	n/a	1	0.422607421875	0.5869140625	0	lower	amplitud.ttf
280884	WORD	wordpools/wasnorm_wordpool.txt	LTP153	ltpFR	6	2	1	FREEWAY	603	n/a	n/a	0	0.422607421875	0.5869140625	0	lower	amplitud.ttf
285045	WORD	wordpools/wasnorm_wordpool.txt	LTP153	ltpFR	6	2	1	WOMAN	1620	n/a	n/a	1	0.422607421875	0.5869140625	0	lower	amplitud.ttf
290937	REC_START	n/a	LTP153	ltpFR	6	2	n/a	n/a	n/a	n/a	n/a	n/a	n/a	n/a	n/a	n/a	n/a
292413	REC_WORD	wordpools/wasnorm_wordpool.txt	LTP153	ltpFR	6	2	1	WOMAN	1620	n/a	n/a	1	n/a	n/a	n/a	n/a	n/a
293217	REC_WORD	wordpools/wasnorm_wordpool.txt	LTP153	ltpFR	6	2	1	PERSON	1052	n/a	n/a	1	n/a	n/a	n/a	n/a	n/a
295067	REC_WORD	wordpools/wasnorm_wordpool.txt	LTP153	ltpFR	6	2	n/a	DOCTOR	478	n/a	n/a	n/a	n/a	n/a	n/a	n/a	n/a
297042	REC_WORD	wordpools/wasnorm_wordpool.txt	LTP153	ltpFR	6	2	0	CLOTHES	327	n/a	n/a	1	n/a	n/a	n/a	n/a	n/a
298042	REC_WORD_VV	wordpools/wasnorm_wordpool.txt	LTP153	ltpFR	6	2	n/a	<>	-1	n/a	n/a	n/a	n/a	n/a	n/a	n/a	n/a
299133	REC_WORD	wordpools/wasnorm_wordpool.txt	LTP153	ltpFR	6	2	0	RAG	1160	n/a	n/a	1	n/a	n/a	n/a	n/a	n/a
302949	REC_WORD	wordpools/wasnorm_wordpool.txt	LTP153	ltpFR	6	2	0	SCENERY	1247	n/a	n/a	1	n/a	n/a	n/a	n/a	n/a
304137	REC_WORD	wordpools/wasnorm_wordpool.txt	LTP153	ltpFR	6	2	0	WORLD	1622	n/a	n/a	1	n/a	n/a	n/a	n/a	n/a
307075	REC_WORD	wordpools/wasnorm_wordpool.txt	LTP153	ltpFR	6	2	1	PHOTO	1055	n/a	n/a	0	n/a	n/a	n/a	n/a	n/a
308421	REC_WORD	wordpools/wasnorm_wordpool.txt	LTP153	ltpFR	6	2	1	SCULPTURE	1258	n/a	n/a	0	n/a	n/a	n/a	n/a	n/a
309421	REC_WORD_VV	wordpools/wasnorm_wordpool.txt	LTP153	ltpFR	6	2	n/a	<>	-1	n/a	n/a	n/a	n/a	n/a	n/a	n/a	n/a
310856	REC_WORD	wordpools/wasnorm_wordpool.txt	LTP153	ltpFR	6	2	1	MARROW	872	n/a	n/a	1	n/a	n/a	n/a	n/a	n/a
331698	REC_WORD	wordpools/wasnorm_wordpool.txt	LTP153	ltpFR	6	2	0	SNORKEL	1336	n/a	n/a	0	n/a	n/a	n/a	n/a	n/a
332722	REC_WORD	wordpools/wasnorm_wordpool.txt	LTP153	ltpFR	6	2	0	POOL	1103	n/a	n/a	1	n/a	n/a	n/a	n/a	n/a
370101	WORD	wordpools/wasnorm_wordpool.txt	LTP153	ltpFR	6	3	1	CORPORATION	382	n/a	n/a	0	0.422607421875	0.5869140625	0	lower	amplitud.ttf
374228	WORD	wordpools/wasnorm_wordpool.txt	LTP153	ltpFR	6	3	1	RAM	1165	n/a	n/a	1	0.422607421875	0.5869140625	0	lower	amplitud.ttf
378089	WORD	wordpools/wasnorm_wordpool.txt	LTP153	ltpFR	6	3	1	BRUSH	182	n/a	n/a	0	0.422607421875	0.5869140625	0	lower	amplitud.ttf
382000	WORD	wordpools/wasnorm_wordpool.txt	LTP153	ltpFR	6	3	1	SALMON	1227	n/a	n/a	1	0.422607421875	0.5869140625	0	lower	amplitud.ttf
385994	WORD	wordpools/wasnorm_wordpool.txt	LTP153	ltpFR	6	3	1	TANK	1432	n/a	n/a	0	0.422607421875	0.5869140625	0	lower	amplitud.ttf
390071	WORD	wordpools/wasnorm_wordpool.txt	LTP153	ltpFR	6	3	1	QUARTER	1148	n/a	n/a	0	0.422607421875	0.5869140625	0	lower	amplitud.ttf
393932	WORD	wordpools/wasnorm_wordpool.txt	LTP153	ltpFR	6	3	1	LAMB	797	n/a	n/a	1	0.422607421875	0.5869140625	0	lower	amplitud.ttf
397943	WORD	wordpools/wasnorm_wordpool.txt	LTP153	ltpFR	6	3	1	SHEET	1279	n/a	n/a	0	0.422607421875	0.5869140625	0	lower	amplitud.ttf
402120	WORD	wordpools/wasnorm_wordpool.txt	LTP153	ltpFR	6	3	1	SILK	1307	n/a	n/a	0	0.422607421875	0.5869140625	0	lower	amplitud.ttf
406247	WORD	wordpools/wasnorm_wordpool.txt	LTP153	ltpFR	6	3	1	SHEEP	1278	n/a	n/a	1	0.422607421875	0.5869140625	0	lower	amplitud.ttf
410091	WORD	wordpools/wasnorm_wordpool.txt	LTP153	ltpFR	6	3	1	PORCH	1106	n/a	n/a	0	0.422607421875	0.5869140625	0	lower	amplitud.ttf
414002	WORD	wordpools/wasnorm_wordpool.txt	LTP153	ltpFR	6	3	1	DANDRUFF	439	n/a	n/a	0	0.422607421875	0.5869140625	0	lower	amplitud.ttf
417880	WORD	wordpools/wasnorm_wordpool.txt	LTP153	ltpFR	6	3	1	CRITIC	410	n/a	n/a	1	0.422607421875	0.5869140625	0	lower	amplitud.ttf
422023	WORD	wordpools/wasnorm_wordpool.txt	LTP153	ltpFR	6	3	1	FILM	565	n/a	n/a	0	0.422607421875	0.5869140625	0	lower	amplitud.ttf
426134	WORD	wordpools/wasnorm_wordpool.txt	LTP153	ltpFR	6	3	1	FREEZER	604	n/a	n/a	0	0.422607421875	0.5869140625	0	lower	amplitud.ttf
430028	WORD	wordpools/wasnorm_wordpool.txt	LTP153	ltpFR	6	3	1	QUAIL	1147	n/a	n/a	1	0.422607421875	0.5869140625	0	lower	amplitud.ttf
435754	REC_START	n/a	LTP153	ltpFR	6	3	n/a	n/a	n/a	n/a	n/a	n/a	n/a	n/a	n/a	n/a	n/a
436831	REC_WORD	wordpools/wasnorm_wordpool.txt	LTP153	ltpFR	6	3	1	SALMON	1227	n/a	n/a	1	n/a	n/a	n/a	n/a	n/a
437959	REC_WORD	wordpools/wasnorm_wordpool.txt	LTP153	ltpFR	6	3	n/a	BISON	131	n/a	n/a	n/a	n/a	n/a	n/a	n/a	n/a
438966	REC_WORD	wordpools/wasnorm_wordpool.txt	LTP153	ltpFR	6	3	1	QUAIL	1147	n/a	n/a	1	n/a	n/a	n/a	n/a	n/a
441047	REC_WORD	wordpools/wasnorm_wordpool.txt	LTP153	ltpFR	6	3	n/a	MOM	-1	n/a	n/a	n/a	n/a	n/a	n/a	n/a	n/a
448714	REC_WORD	wordpools/wasnorm_wordpool.txt	LTP153	ltpFR	6	3	1	CRITIC	410	n/a	n/a	1	n/a	n/a	n/a	n/a	n/a
464748	REC_WORD	wordpools/wasnorm_wordpool.txt	LTP153	ltpFR	6	3	1	PORCH	1106	n/a	n/a	0	n/a	n/a	n/a	n/a	n/a
466359	REC_WORD	wordpools/wasnorm_wordpool.txt	LTP153	ltpFR	6	3	1	DANDRUFF	439	n/a	n/a	0	n/a	n/a	n/a	n/a	n/a
467951	REC_WORD	wordpools/wasnorm_wordpool.txt	LTP153	ltpFR	6	3	1	SHEET	1279	n/a	n/a	0	n/a	n/a	n/a	n/a	n/a
469377	REC_WORD	wordpools/wasnorm_wordpool.txt	LTP153	ltpFR	6	3	1	LAMB	797	n/a	n/a	1	n/a	n/a	n/a	n/a	n/a
470071	REC_WORD	wordpools/wasnorm_wordpool.txt	LTP153	ltpFR	6	3	1	SHEEP	1278	n/a	n/a	1	n/a	n/a	n/a	n/a	n/a
479733	REC_WORD	wordpools/wasnorm_wordpool.txt	LTP153	ltpFR	6	3	1	SILK	1307	n/a	n/a	0	n/a	n/a	n/a	n/a	n/a
514003	WORD	wordpools/wasnorm_wordpool.txt	LTP153	ltpFR	6	4	1	WIRE	1616	n/a	n/a	0	0.422607421875	0.5869140625	0	lower	amplitud.ttf
518113	WORD	wordpools/wasnorm_wordpool.txt	LTP153	ltpFR	6	4	1	CASHIER	254	n/a	n/a	1	0.422607421875	0.5869140625	0	lower	amplitud.ttf
522290	WORD	wordpools/wasnorm_wordpool.txt	LTP153	ltpFR	6	4	1	BILL	126	n/a	n/a	0	0.422607421875	0.5869140625	0	lower	amplitud.ttf
526251	WORD	wordpools/wasnorm_wordpool.txt	LTP153	ltpFR	6	4	1	DANDELION	438	n/a	n/a	1	0.422607421875	0.5869140625	0	lower	amplitud.ttf
530262	WORD	wordpools/wasnorm_wordpool.txt	LTP153	ltpFR	6	4	1	OPERA	978	n/a	n/a	0	0.422607421875	0.5869140625	0	lower	amplitud.ttf
534206	WORD	wordpools/wasnorm_wordpool.txt	LTP153	ltpFR	6	4	1	ESCALATOR	539	n/a	n/a	0	0.422607421875	0.5869140625	0	lower	amplitud.ttf
538150	WORD	wordpools/wasnorm_wordpool.txt	LTP153	ltpFR	6	4	1	OPERATOR	979	n/a	n/a	0	0.422607421875	0.5869140625	0	lower	amplitud.ttf
542261	WORD	wordpools/wasnorm_wordpool.txt	LTP153	ltpFR	6	4	1	COD	340	n/a	n/a	1	0.422607421875	0.5869140625	0	lower	amplitud.ttf
546355	WORD	wordpools/wasnorm_wordpool.txt	LTP153	ltpFR	6	4	1	FLIPPER	580	n/a	n/a	1	0.422607421875	0.5869140625	0	lower	amplitud.ttf
550315	WORD	wordpools/wasnorm_wordpool.txt	LTP153	ltpFR	6	4	1	ROOM	1206	n/a	n/a	0	0.422607421875	0.5869140625	0	lower	amplitud.ttf
554527	WORD	wordpools/wasnorm_wordpool.txt	LTP153	ltpFR	6	4	1	ATLAS	53	n/a	n/a	0	0.422607421875	0.5869140625	0	lower	amplitud.ttf
558670	WORD	wordpools/wasnorm_wordpool.txt	LTP153	ltpFR	6	4	1	JEEP	753	n/a	n/a	0	0.422607421875	0.5869140625	0	lower	amplitud.ttf
562648	WORD	wordpools/wasnorm_wordpool.txt	LTP153	ltpFR	6	4	1	CHAMBER	277	n/a	n/a	0	0.422607421875	0.5869140625	0	lower	amplitud.ttf
566592	WORD	wordpools/wasnorm_wordpool.txt	LTP153	ltpFR	6	4	1	WORM	1623	n/a	n/a	1	0.422607421875	0.5869140625	0	lower	amplitud.ttf
570586	WORD	wordpools/wasnorm_wordpool.txt	LTP153	ltpFR	6	4	1	SEAFOOD	1260	n/a	n/a	0	0.422607421875	0.5869140625	0	lower	amplitud.ttf
574796	WORD	wordpools/wasnorm_wordpool.txt	LTP153	ltpFR	6	4	1	DIVER	476	n/a	n/a	1	0.422607421875	0.5869140625	0	lower	amplitud.ttf
580672	REC_START	n/a	LTP153	ltpFR	6	4	n/a	n/a	n/a	n/a	n/a	n/a	n/a	n/a	n/a	n/a	n/a
581530	REC_WORD	wordpools/wasnorm_wordpool.txt	LTP153	ltpFR	6	4	1	DIVER	476	n/a	n/a	1	n/a	n/a	n/a	n/a	n/a
582511	REC_WORD	wordpools/wasnorm_wordpool.txt	LTP153	ltpFR	6	4	1	SEAFOOD	1260	n/a	n/a	0	n/a	n/a	n/a	n/a	n/a
591143	REC_WORD	wordpools/wasnorm_wordpool.txt	LTP153	ltpFR	6	4	1	WIRE	1616	n/a	n/a	0	n/a	n/a	n/a	n/a	n/a
592250	REC_WORD	wordpools/wasnorm_wordpool.txt	LTP153	ltpFR	6	4	1	CASHIER	254	n/a	n/a	1	n/a	n/a	n/a	n/a	n/a
594944	REC_WORD	wordpools/wasnorm_wordpool.txt	LTP153	ltpFR	6	4	1	BILL	126	n/a	n/a	0	n/a	n/a	n/a	n/a	n/a
606348	REC_WORD	wordpools/wasnorm_wordpool.txt	LTP153	ltpFR	6	4	1	JEEP	753	n/a	n/a	0	n/a	n/a	n/a	n/a	n/a
607147	REC_WORD	wordpools/wasnorm_wordpool.txt	LTP153	ltpFR	6	4	1	ATLAS	53	n/a	n/a	0	n/a	n/a	n/a	n/a	n/a
609950	REC_WORD	wordpools/wasnorm_wordpool.txt	LTP153	ltpFR	6	4	1	DANDELION	438	n/a	n/a	1	n/a	n/a	n/a	n/a	n/a
623829	REC_WORD	wordpools/wasnorm_wordpool.txt	LTP153	ltpFR	6	4	1	OPERATOR	979	n/a	n/a	0	n/a	n/a	n/a	n/a	n/a
624829	REC_WORD_VV	wordpools/wasnorm_wordpool.txt	LTP153	ltpFR	6	4	n/a	<>	-1	n/a	n/a	n/a	n/a	n/a	n/a	n/a	n/a
625236	REC_WORD	wordpools/wasnorm_wordpool.txt	LTP153	ltpFR	6	4	1	ESCALATOR	539	n/a	n/a	0	n/a	n/a	n/a	n/a	n/a
626236	REC_WORD_VV	wordpools/wasnorm_wordpool.txt	LTP153	ltpFR	6	4	n/a	<>	-1	n/a	n/a	n/a	n/a	n/a	n/a	n/a	n/a
658953	WORD	wordpools/wasnorm_wordpool.txt	LTP153	ltpFR	6	5	0	THORN	1459	n/a	n/a	0	0.57763671875	0.412841796875	1	upper	zerothre.ttf
662914	WORD	wordpools/wasnorm_wordpool.txt	LTP153	ltpFR	6	5	0	CRICKET	408	n/a	n/a	0	0.57763671875	0.412841796875	1	upper	zerothre.ttf
667024	WORD	wordpools/wasnorm_wordpool.txt	LTP153	ltpFR	6	5	0	COMPUTER	359	n/a	n/a	1	0.57763671875	0.412841796875	1	upper	zerothre.ttf
671118	WORD	wordpools/wasnorm_wordpool.txt	LTP153	ltpFR	6	5	0	TECHNICIAN	1443	n/a	n/a	1	0.57763671875	0.412841796875	1	upper	zerothre.ttf
675229	WORD	wordpools/wasnorm_wordpool.txt	LTP153	ltpFR	6	5	0	PIG	1064	n/a	n/a	1	0.57763671875	0.412841796875	1	upper	zerothre.ttf
679140	WORD	wordpools/wasnorm_wordpool.txt	LTP153	ltpFR	6	5	0	DEODORANT	448	n/a	n/a	0	0.57763671875	0.412841796875	1	upper	zerothre.ttf
683134	WORD	wordpools/wasnorm_wordpool.txt	LTP153	ltpFR	6	5	1	BROCCOLI	176	n/a	n/a	0	0.422607421875	0.5869140625	0	lower	amplitud.ttf
687194	WORD	wordpools/wasnorm_wordpool.txt	LTP153	ltpFR	6	5	1	BEET	115	n/a	n/a	0	0.422607421875	0.5869140625	0	lower	amplitud.ttf
691305	WORD	wordpools/wasnorm_wordpool.txt	LTP153	ltpFR	6	5	1	POCKET	1093	n/a	n/a	0	0.422607421875	0.5869140625	0	lower	amplitud.ttf
695215	WORD	wordpools/wasnorm_wordpool.txt	LTP153	ltpFR	6	5	0	ARTERY	41	n/a	n/a	0	0.57763671875	0.412841796875	1	upper	zerothre.ttf
699359	WORD	wordpools/wasnorm_wordpool.txt	LTP153	ltpFR	6	5	0	PORK	1108	n/a	n/a	0	0.57763671875	0.412841796875	1	upper	zerothre.ttf
703353	WORD	wordpools/wasnorm_wordpool.txt	LTP153	ltpFR	6	5	1	DILL	465	n/a	n/a	0	0.422607421875	0.5869140625	0	lower	amplitud.ttf
707397	WORD	wordpools/wasnorm_wordpool.txt	LTP153	ltpFR	6	5	1	LETTUCE	814	n/a	n/a	0	0.422607421875	0.5869140625	0	lower	amplitud.ttf
711225	WORD	wordpools/wasnorm_wordpool.txt	LTP153	ltpFR	6	5	1	BOXER	160	n/a	n/a	1	0.422607421875	0.5869140625	0	lower	amplitud.ttf
715069	WORD	wordpools/wasnorm_wordpool.txt	LTP153	ltpFR	6	5	1	STEWARDESS	1381	n/a	n/a	1	0.422607421875	0.5869140625	0	lower	amplitud.ttf
719080	WORD	wordpools/wasnorm_wordpool.txt	LTP153	ltpFR	6	5	1	SACK	1220	n/a	n/a	0	0.422607421875	0.5869140625	0	lower	amplitud.ttf
724855	REC_START	n/a	LTP153	ltpFR	6	5	n/a	n/a	n/a	n/a	n/a	n/a	n/a	n/a	n/a	n/a	n/a
726281	REC_WORD	wordpools/wasnorm_wordpool.txt	LTP153	ltpFR	6	5	1	SACK	1220	n/a	n/a	0	n/a	n/a	n/a	n/a	n/a
728147	REC_WORD	wordpools/wasnorm_wordpool.txt	LTP153	ltpFR	6	5	1	STEWARDESS	1381	n/a	n/a	1	n/a	n/a	n/a	n/a	n/a
729147	REC_WORD_VV	wordpools/wasnorm_wordpool.txt	LTP153	ltpFR	6	5	n/a	<>	-1	n/a	n/a	n/a	n/a	n/a	n/a	n/a	n/a
730033	REC_WORD	wordpools/wasnorm_wordpool.txt	LTP153	ltpFR	6	5	1	DILL	465	n/a	n/a	0	n/a	n/a	n/a	n/a	n/a
733246	REC_WORD	wordpools/wasnorm_wordpool.txt	LTP153	ltpFR	6	5	1	LETTUCE	814	n/a	n/a	0	n/a	n/a	n/a	n/a	n/a
736658	REC_WORD	wordpools/wasnorm_wordpool.txt	LTP153	ltpFR	6	5	0	ARTERY	41	n/a	n/a	0	n/a	n/a	n/a	n/a	n/a
747862	REC_WORD	wordpools/wasnorm_wordpool.txt	LTP153	ltpFR	6	5	1	BROCCOLI	176	n/a	n/a	0	n/a	n/a	n/a	n/a	n/a
823075	WORD	wordpools/wasnorm_wordpool.txt	LTP153	ltpFR	6	6	0	MARKET	871	n/a	n/a	1	0.57763671875	0.412841796875	1	upper	zerothre.ttf
827085	WORD	wordpools/wasnorm_wordpool.txt	LTP153	ltpFR	6	6	0	SIREN	1310	n/a	n/a	0	0.57763671875	0.412841796875	1	upper	zerothre.ttf
831262	WORD	wordpools/wasnorm_wordpool.txt	LTP153	ltpFR	6	6	0	PATROL	1027	n/a	n/a	1	0.57763671875	0.412841796875	1	upper	zerothre.ttf
835306	WORD	wordpools/wasnorm_wordpool.txt	LTP153	ltpFR	6	6	0	SPY	1360	n/a	n/a	1	0.57763671875	0.412841796875	1	upper	zerothre.ttf
839217	WORD	wordpools/wasnorm_wordpool.txt	LTP153	ltpFR	6	6	0	ORGAN	984	n/a	n/a	0	0.57763671875	0.412841796875	1	upper	zerothre.ttf
843394	WORD	wordpools/wasnorm_wordpool.txt	LTP153	ltpFR	6	6	0	PATRIOT	1026	n/a	n/a	1	0.57763671875	0.412841796875	1	upper	zerothre.ttf
847372	WORD	wordpools/wasnorm_wordpool.txt	LTP153	ltpFR	6	6	0	POLE	1097	n/a	n/a	1	0.57763671875	0.412841796875	1	upper	zerothre.ttf
851583	WORD	wordpools/wasnorm_wordpool.txt	LTP153	ltpFR	6	6	0	SUIT	1402	n/a	n/a	1	0.57763671875	0.412841796875	1	upper	zerothre.ttf
855461	WORD	wordpools/wasnorm_wordpool.txt	LTP153	ltpFR	6	6	0	DOLL	481	n/a	n/a	1	0.57763671875	0.412841796875	1	upper	zerothre.ttf
859420	WORD	wordpools/wasnorm_wordpool.txt	LTP153	ltpFR	6	6	0	MITTEN	902	n/a	n/a	0	0.57763671875	0.412841796875	1	upper	zerothre.ttf
863465	WORD	wordpools/wasnorm_wordpool.txt	LTP153	ltpFR	6	6	0	STEREO	1378	n/a	n/a	1	0.57763671875	0.412841796875	1	upper	zerothre.ttf
867358	WORD	wordpools/wasnorm_wordpool.txt	LTP153	ltpFR	6	6	0	BATTERY	101	n/a	n/a	0	0.57763671875	0.412841796875	1	upper	zerothre.ttf
871369	WORD	wordpools/wasnorm_wordpool.txt	LTP153	ltpFR	6	6	0	POLITICIAN	1099	n/a	n/a	1	0.57763671875	0.412841796875	1	upper	zerothre.ttf
875363	WORD	wordpools/wasnorm_wordpool.txt	LTP153	ltpFR	6	6	0	ORCHID	982	n/a	n/a	0	0.57763671875	0.412841796875	1	upper	zerothre.ttf
879241	WORD	wordpools/wasnorm_wordpool.txt	LTP153	ltpFR	6	6	0	PAWN	1030	n/a	n/a	0	0.57763671875	0.412841796875	1	upper	zerothre.ttf
883368	WORD	wordpools/wasnorm_wordpool.txt	LTP153	ltpFR	6	6	0	VEIN	1554	n/a	n/a	0	0.57763671875	0.412841796875	1	upper	zerothre.ttf
889293	REC_START	n/a	LTP153	ltpFR	6	6	n/a	n/a	n/a	n/a	n/a	n/a	n/a	n/a	n/a	n/a	n/a
890640	REC_WORD	wordpools/wasnorm_wordpool.txt	LTP153	ltpFR	6	6	0	VEIN	1554	n/a	n/a	0	n/a	n/a	n/a	n/a	n/a
891902	REC_WORD	wordpools/wasnorm_wordpool.txt	LTP153	ltpFR	6	6	0	PAWN	1030	n/a	n/a	0	n/a	n/a	n/a	n/a	n/a
894177	REC_WORD	wordpools/wasnorm_wordpool.txt	LTP153	ltpFR	6	6	0	ORGAN	984	n/a	n/a	0	n/a	n/a	n/a	n/a	n/a
902273	REC_WORD	wordpools/wasnorm_wordpool.txt	LTP153	ltpFR	6	6	0	MARKET	871	n/a	n/a	1	n/a	n/a	n/a	n/a	n/a
903280	REC_WORD	wordpools/wasnorm_wordpool.txt	LTP153	ltpFR	6	6	0	SIREN	1310	n/a	n/a	0	n/a	n/a	n/a	n/a	n/a
914835	REC_WORD	wordpools/wasnorm_wordpool.txt	LTP153	ltpFR	6	6	0	DOLL	481	n/a	n/a	1	n/a	n/a	n/a	n/a	n/a
917673	REC_WORD	wordpools/wasnorm_wordpool.txt	LTP153	ltpFR	6	6	0	SUIT	1402	n/a	n/a	1	n/a	n/a	n/a	n/a	n/a
923509	REC_WORD	wordpools/wasnorm_wordpool.txt	LTP153	ltpFR	6	6	0	STEREO	1378	n/a	n/a	1	n/a	n/a	n/a	n/a	n/a
924509	REC_WORD_VV	wordpools/wasnorm_wordpool.txt	LTP153	ltpFR	6	6	n/a	<>	-1	n/a	n/a	n/a	n/a	n/a	n/a	n/a	n/a
969540	WORD	wordpools/wasnorm_wordpool.txt	LTP153	ltpFR	6	7	0	DINER	467	n/a	n/a	1	0.57763671875	0.412841796875	1	upper	zerothre.ttf
973367	WORD	wordpools/wasnorm_wordpool.txt	LTP153	ltpFR	6	7	0	GLOVE	642	n/a	n/a	0	0.57763671875	0.412841796875	1	upper	zerothre.ttf
977328	WORD	wordpools/wasnorm_wordpool.txt	LTP153	ltpFR	6	7	0	KNUCKLE	789	n/a	n/a	0	0.57763671875	0.412841796875	1	upper	zerothre.ttf
981238	WORD	wordpools/wasnorm_wordpool.txt	LTP153	ltpFR	6	7	1	GIRAFFE	636	n/a	n/a	1	0.422607421875	0.5869140625	0	lower	amplitud.ttf
985299	WORD	wordpools/wasnorm_wordpool.txt	LTP153	ltpFR	6	7	1	MINK	897	n/a	n/a	0	0.422607421875	0.5869140625	0	lower	amplitud.ttf
989460	WORD	wordpools/wasnorm_wordpool.txt	LTP153	ltpFR	6	7	0	SOFTBALL	1343	n/a	n/a	0	0.57763671875	0.412841796875	1	upper	zerothre.ttf
993370	WORD	wordpools/wasnorm_wordpool.txt	LTP153	ltpFR	6	7	0	GRIZZLY	662	n/a	n/a	1	0.57763671875	0.412841796875	1	upper	zerothre.ttf
997381	WORD	wordpools/wasnorm_wordpool.txt	LTP153	ltpFR	6	7	0	CAULIFLOWER	262	n/a	n/a	0	0.57763671875	0.412841796875	1	upper	zerothre.ttf
1001292	WORD	wordpools/wasnorm_wordpool.txt	LTP153	ltpFR	6	7	1	CHOCOLATE	306	n/a	n/a	0	0.422607421875	0.5869140625	0	lower	amplitud.ttf
1005419	WORD	wordpools/wasnorm_wordpool.txt	LTP153	ltpFR	6	7	1	ENEMY	534	n/a	n/a	1	0.422607421875	0.5869140625	0	lower	amplitud.ttf
1009297	WORD	wordpools/wasnorm_wordpool.txt	LTP153	ltpFR	6	7	1	GENERAL	630	n/a	n/a	1	0.422607421875	0.5869140625	0	lower	amplitud.ttf
1013491	WORD	wordpools/wasnorm_wordpool.txt	LTP153	ltpFR	6	7	1	FORT	595	n/a	n/a	0	0.422607421875	0.5869140625	0	lower	amplitud.ttf
1017351	WORD	wordpools/wasnorm_wordpool.txt	LTP153	ltpFR	6	7	1	ARENA	37	n/a	n/a	0	0.422607421875	0.5869140625	0	lower	amplitud.ttf
1021345	WORD	wordpools/wasnorm_wordpool.txt	LTP153	ltpFR	6	7	1	TAPIOCA	1434	n/a	n/a	0	0.422607421875	0.5869140625	0	lower	amplitud.ttf
1025306	WORD	wordpools/wasnorm_wordpool.txt	LTP153	ltpFR	6	7	0	FIGHTER	564	n/a	n/a	1	0.57763671875	0.412841796875	1	upper	zerothre.ttf
1029250	WORD	wordpools/wasnorm_wordpool.txt	LTP153	ltpFR	6	7	0	ROSE	1212	n/a	n/a	0	0.57763671875	0.412841796875	1	upper	zerothre.ttf
1034975	REC_START	n/a	LTP153	ltpFR	6	7	n/a	n/a	n/a	n/a	n/a	n/a	n/a	n/a	n/a	n/a	n/a
1037619	REC_WORD	wordpools/wasnorm_wordpool.txt	LTP153	ltpFR	6	7	0	ROSE	1212	n/a	n/a	0	n/a	n/a	n/a	n/a	n/a
1046468	REC_WORD	wordpools/wasnorm_wordpool.txt	LTP153	ltpFR	6	7	0	CAULIFLOWER	262	n/a	n/a	0	n/a	n/a	n/a	n/a	n/a
1047468	REC_WORD_VV	wordpools/wasnorm_wordpool.txt	LTP153	ltpFR	6	7	n/a	<>	-1	n/a	n/a	n/a	n/a	n/a	n/a	n/a	n/a
1049626	REC_WORD	wordpools/wasnorm_wordpool.txt	LTP153	ltpFR	6	7	0	SOFTBALL	1343	n/a	n/a	0	n/a	n/a	n/a	n/a	n/a
1057374	REC_WORD	wordpools/wasnorm_wordpool.txt	LTP153	ltpFR	6	7	1	GENERAL	630	n/a	n/a	1	n/a	n/a	n/a	n/a	n/a
1108737	REC_WORD	wordpools/wasnorm_wordpool.txt	LTP153	ltpFR	6	7	1	MINK	897	n/a	n/a	0	n/a	n/a	n/a	n/a	n/a
1113058	WORD	wordpools/wasnorm_wordpool.txt	LTP153	ltpFR	6	8	0	CROW	414	n/a	n/a	0	0.57763671875	0.412841796875	1	upper	zerothre.ttf
1117002	WORD	wordpools/wasnorm_wordpool.txt	LTP153	ltpFR	6	8	0	BANDANNA	80	n/a	n/a	0	0.57763671875	0.412841796875	1	upper	zerothre.ttf
1120830	WORD	wordpools/wasnorm_wordpool.txt	LTP153	ltpFR	6	8	0	STAPLER	1372	n/a	n/a	0	0.57763671875	0.412841796875	1	upper	zerothre.ttf
1124675	WORD	wordpools/wasnorm_wordpool.txt	LTP153	ltpFR	6	8	0	CARAVAN	242	n/a	n/a	1	0.57763671875	0.412841796875	1	upper	zerothre.ttf
1128703	WORD	wordpools/wasnorm_wordpool.txt	LTP153	ltpFR	6	8	0	HEDGE	699	n/a	n/a	1	0.57763671875	0.412841796875	1	upper	zerothre.ttf
1132845	WORD	wordpools/wasnorm_wordpool.txt	LTP153	ltpFR	6	8	0	CANARY	227	n/a	n/a	0	0.57763671875	0.412841796875	1	upper	zerothre.ttf
1137022	WORD	wordpools/wasnorm_wordpool.txt	LTP153	ltpFR	6	8	0	HEATER	698	n/a	n/a	1	0.57763671875	0.412841796875	1	upper	zerothre.ttf
1141100	WORD	wordpools/wasnorm_wordpool.txt	LTP153	ltpFR	6	8	0	FOX	598	n/a	n/a	0	0.57763671875	0.412841796875	1	upper	zerothre.ttf
1145194	WORD	wordpools/wasnorm_wordpool.txt	LTP153	ltpFR	6	8	0	BEAVER	109	n/a	n/a	1	0.57763671875	0.412841796875	1	upper	zerothre.ttf
1149188	WORD	wordpools/wasnorm_wordpool.txt	LTP153	ltpFR	6	8	0	VASE	1549	n/a	n/a	1	0.57763671875	0.412841796875	1	upper	zerothre.ttf
1153049	WORD	wordpools/wasnorm_wordpool.txt	LTP153	ltpFR	6	8	0	PASSENGER	1020	n/a	n/a	1	0.57763671875	0.412841796875	1	upper	zerothre.ttf
1156893	WORD	wordpools/wasnorm_wordpool.txt	LTP153	ltpFR	6	8	0	SPOOL	1356	n/a	n/a	0	0.57763671875	0.412841796875	1	upper	zerothre.ttf
1160721	WORD	wordpools/wasnorm_wordpool.txt	LTP153	ltpFR	6	8	0	MEAL	882	n/a	n/a	1	0.57763671875	0.412841796875	1	upper	zerothre.ttf
1164782	WORD	wordpools/wasnorm_wordpool.txt	LTP153	ltpFR	6	8	0	RESTAURANT	1187	n/a	n/a	1	0.57763671875	0.412841796875	1	upper	zerothre.ttf
1168892	WORD	wordpools/wasnorm_wordpool.txt	LTP153	ltpFR	6	8	0	WAIST	1579	n/a	n/a	1	0.57763671875	0.412841796875	1	upper	zerothre.ttf
1172753	WORD	wordpools/wasnorm_wordpool.txt	LTP153	ltpFR	6	8	0	SHOULDER	1294	n/a	n/a	0	0.57763671875	0.412841796875	1	upper	zerothre.ttf
1178695	REC_START	n/a	LTP153	ltpFR	6	8	n/a	n/a	n/a	n/a	n/a	n/a	n/a	n/a	n/a	n/a	n/a
1179598	REC_WORD	wordpools/wasnorm_wordpool.txt	LTP153	ltpFR	6	8	0	SHOULDER	1294	n/a	n/a	0	n/a	n/a	n/a	n/a	n/a
1180965	REC_WORD	wordpools/wasnorm_wordpool.txt	LTP153	ltpFR	6	8	0	WAIST	1579	n/a	n/a	1	n/a	n/a	n/a	n/a	n/a
1182122	REC_WORD	wordpools/wasnorm_wordpool.txt	LTP153	ltpFR	6	8	0	CARAVAN	242	n/a	n/a	1	n/a	n/a	n/a	n/a	n/a
1183459	REC_WORD	wordpools/wasnorm_wordpool.txt	LTP153	ltpFR	6	8	0	PASSENGER	1020	n/a	n/a	1	n/a	n/a	n/a	n/a	n/a
1185664	REC_WORD	wordpools/wasnorm_wordpool.txt	LTP153	ltpFR	6	8	0	RESTAURANT	1187	n/a	n/a	1	n/a	n/a	n/a	n/a	n/a
1186971	REC_WORD	wordpools/wasnorm_wordpool.txt	LTP153	ltpFR	6	8	0	HEDGE	699	n/a	n/a	1	n/a	n/a	n/a	n/a	n/a
1188038	REC_WORD	wordpools/wasnorm_wordpool.txt	LTP153	ltpFR	6	8	0	HEATER	698	n/a	n/a	1	n/a	n/a	n/a	n/a	n/a
1190952	REC_WORD	wordpools/wasnorm_wordpool.txt	LTP153	ltpFR	6	8	0	CROW	414	n/a	n/a	0	n/a	n/a	n/a	n/a	n/a
1191930	REC_WORD	wordpools/wasnorm_wordpool.txt	LTP153	ltpFR	6	8	0	BANDANNA	80	n/a	n/a	0	n/a	n/a	n/a	n/a	n/a
1193007	REC_WORD	wordpools/wasnorm_wordpool.txt	LTP153	ltpFR	6	8	0	STAPLER	1372	n/a	n/a	0	n/a	n/a	n/a	n/a	n/a
1196933	REC_WORD	wordpools/wasnorm_wordpool.txt	LTP153	ltpFR	6	8	0	MEAL	882	n/a	n/a	1	n/a	n/a	n/a	n/a	n/a
1199861	REC_WORD	wordpools/wasnorm_wordpool.txt	LTP153	ltpFR	6	8	0	FOX	598	n/a	n/a	0	n/a	n/a	n/a	n/a	n/a
1200914	REC_WORD	wordpools/wasnorm_wordpool.txt	LTP153	ltpFR	6	8	0	BEAVER	109	n/a	n/a	1	n/a	n/a	n/a	n/a	n/a
1260305	WORD	wordpools/wasnorm_wordpool.txt	LTP153	ltpFR	6	9	1	MAILMAN	858	n/a	n/a	1	0.422607421875	0.5869140625	0	lower	amplitud.ttf
1264416	WORD	wordpools/wasnorm_wordpool.txt	LTP153	ltpFR	6	9	1	PACKAGE	997	n/a	n/a	0	0.422607421875	0.5869140625	0	lower	amplitud.ttf
1268343	WORD	wordpools/wasnorm_wordpool.txt	LTP153	ltpFR	6	9	1	CRUMB	416	n/a	n/a	0	0.422607421875	0.5869140625	0	lower	amplitud.ttf
1272471	WORD	wordpools/wasnorm_wordpool.txt	LTP153	ltpFR	6	9	1	FLOUR	583	n/a	n/a	0	0.422607421875	0.5869140625	0	lower	amplitud.ttf
1276431	WORD	wordpools/wasnorm_wordpool.txt	LTP153	ltpFR	6	9	1	CEMETERY	269	n/a	n/a	1	0.422607421875	0.5869140625	0	lower	amplitud.ttf
1280493	WORD	wordpools/wasnorm_wordpool.txt	LTP153	ltpFR	6	9	1	CORD	379	n/a	n/a	0	0.422607421875	0.5869140625	0	lower	amplitud.ttf
1284402	WORD	wordpools/wasnorm_wordpool.txt	LTP153	ltpFR	6	9	1	VALVE	1546	n/a	n/a	0	0.422607421875	0.5869140625	0	lower	amplitud.ttf
1288464	WORD	wordpools/wasnorm_wordpool.txt	LTP153	ltpFR	6	9	1	TORTOISE	1486	n/a	n/a	1	0.422607421875	0.5869140625	0	lower	amplitud.ttf
1292508	WORD	wordpools/wasnorm_wordpool.txt	LTP153	ltpFR	6	9	1	EAGLE	512	n/a	n/a	1	0.422607421875	0.5869140625	0	lower	amplitud.ttf
1296519	WORD	wordpools/wasnorm_wordpool.txt	LTP153	ltpFR	6	9	1	SALESMAN	1225	n/a	n/a	1	0.422607421875	0.5869140625	0	lower	amplitud.ttf
1300446	WORD	wordpools/wasnorm_wordpool.txt	LTP153	ltpFR	6	9	1	RASPBERRY	1168	n/a	n/a	0	0.422607421875	0.5869140625	0	lower	amplitud.ttf
1304623	WORD	wordpools/wasnorm_wordpool.txt	LTP153	ltpFR	6	9	1	HAMBURGER	679	n/a	n/a	0	0.422607421875	0.5869140625	0	lower	amplitud.ttf
1308667	WORD	wordpools/wasnorm_wordpool.txt	LTP153	ltpFR	6	9	1	CORK	380	n/a	n/a	0	0.422607421875	0.5869140625	0	lower	amplitud.ttf
1312611	WORD	wordpools/wasnorm_wordpool.txt	LTP153	ltpFR	6	9	1	INTESTINE	742	n/a	n/a	0	0.422607421875	0.5869140625	0	lower	amplitud.ttf
1316755	WORD	wordpools/wasnorm_wordpool.txt	LTP153	ltpFR	6	9	1	STEW	1380	n/a	n/a	0	0.422607421875	0.5869140625	0	lower	amplitud.ttf
1320831	WORD	wordpools/wasnorm_wordpool.txt	LTP153	ltpFR	6	9	1	PENGUIN	1044	n/a	n/a	1	0.422607421875	0.5869140625	0	lower	amplitud.ttf
1326807	REC_START	n/a	LTP153	ltpFR	6	9	n/a	n/a	n/a	n/a	n/a	n/a	n/a	n/a	n/a	n/a	n/a
1327610	REC_WORD	wordpools/wasnorm_wordpool.txt	LTP153	ltpFR	6	9	1	PENGUIN	1044	n/a	n/a	1	n/a	n/a	n/a	n/a	n/a
1328542	REC_WORD	wordpools/wasnorm_wordpool.txt	LTP153	ltpFR	6	9	1	EAGLE	512	n/a	n/a	1	n/a	n/a	n/a	n/a	n/a
1329881	REC_WORD	wordpools/wasnorm_wordpool.txt	LTP153	ltpFR	6	9	1	TORTOISE	1486	n/a	n/a	1	n/a	n/a	n/a	n/a	n/a
1330832	REC_WORD	wordpools/wasnorm_wordpool.txt	LTP153	ltpFR	6	9	1	SALESMAN	1225	n/a	n/a	1	n/a	n/a	n/a	n/a	n/a
1332065	REC_WORD	wordpools/wasnorm_wordpool.txt	LTP153	ltpFR	6	9	1	MAILMAN	858	n/a	n/a	1	n/a	n/a	n/a	n/a	n/a
1333616	REC_WORD	wordpools/wasnorm_wordpool.txt	LTP153	ltpFR	6	9	1	PACKAGE	997	n/a	n/a	0	n/a	n/a	n/a	n/a	n/a
1336609	REC_WORD	wordpools/wasnorm_wordpool.txt	LTP153	ltpFR	6	9	1	INTESTINE	742	n/a	n/a	0	n/a	n/a	n/a	n/a	n/a
1337609	REC_WORD_VV	wordpools/wasnorm_wordpool.txt	LTP153	ltpFR	6	9	n/a	<>	-1	n/a	n/a	n/a	n/a	n/a	n/a	n/a	n/a
1341044	REC_WORD	wordpools/wasnorm_wordpool.txt	LTP153	ltpFR	6	9	1	RASPBERRY	1168	n/a	n/a	0	n/a	n/a	n/a	n/a	n/a
1344112	REC_WORD	wordpools/wasnorm_wordpool.txt	LTP153	ltpFR	6	9	1	CEMETERY	269	n/a	n/a	1	n/a	n/a	n/a	n/a	n/a
1345112	REC_WORD_VV	wordpools/wasnorm_wordpool.txt	LTP153	ltpFR	6	9	n/a	<>	-1	n/a	n/a	n/a	n/a	n/a	n/a	n/a	n/a
1347694	REC_WORD	wordpools/wasnorm_wordpool.txt	LTP153	ltpFR	6	9	1	PENGUIN	1044	n/a	n/a	1	n/a	n/a	n/a	n/a	n/a
1392347	REC_WORD	wordpools/wasnorm_wordpool.txt	LTP153	ltpFR	6	9	1	HAMBURGER	679	n/a	n/a	0	n/a	n/a	n/a	n/a	n/a
1415257	WORD	wordpools/wasnorm_wordpool.txt	LTP153	ltpFR	6	10	1	VELVET	1555	n/a	n/a	1	0.422607421875	0.5869140625	0	lower	amplitud.ttf
1419384	WORD	wordpools/wasnorm_wordpool.txt	LTP153	ltpFR	6	10	1	POLICE	1098	n/a	n/a	1	0.422607421875	0.5869140625	0	lower	amplitud.ttf
1423512	WORD	wordpools/wasnorm_wordpool.txt	LTP153	ltpFR	6	10	1	SERGEANT	1269	n/a	n/a	1	0.422607421875	0.5869140625	0	lower	amplitud.ttf
1427422	WORD	wordpools/wasnorm_wordpool.txt	LTP153	ltpFR	6	10	0	GUARDIAN	668	n/a	n/a	1	0.57763671875	0.412841796875	1	upper	zerothre.ttf
1431250	WORD	wordpools/wasnorm_wordpool.txt	LTP153	ltpFR	6	10	0	KEEPER	769	n/a	n/a	1	0.57763671875	0.412841796875	1	upper	zerothre.ttf
1435344	WORD	wordpools/wasnorm_wordpool.txt	LTP153	ltpFR	6	10	0	OATS	968	n/a	n/a	0	0.57763671875	0.412841796875	1	upper	zerothre.ttf
1439304	WORD	wordpools/wasnorm_wordpool.txt	LTP153	ltpFR	6	10	0	GEM	629	n/a	n/a	0	0.57763671875	0.412841796875	1	upper	zerothre.ttf
1443165	WORD	wordpools/wasnorm_wordpool.txt	LTP153	ltpFR	6	10	0	BADGE	68	n/a	n/a	0	0.57763671875	0.412841796875	1	upper	zerothre.ttf
1447076	WORD	wordpools/wasnorm_wordpool.txt	LTP153	ltpFR	6	10	0	EMPIRE	530	n/a	n/a	1	0.57763671875	0.412841796875	1	upper	zerothre.ttf
1451070	WORD	wordpools/wasnorm_wordpool.txt	LTP153	ltpFR	6	10	1	HAIL	676	n/a	n/a	0	0.422607421875	0.5869140625	0	lower	amplitud.ttf
1455164	WORD	wordpools/wasnorm_wordpool.txt	LTP153	ltpFR	6	10	1	SHERIFF	1284	n/a	n/a	1	0.422607421875	0.5869140625	0	lower	amplitud.ttf
1458992	WORD	wordpools/wasnorm_wordpool.txt	LTP153	ltpFR	6	10	1	CURTAIN	427	n/a	n/a	0	0.422607421875	0.5869140625	0	lower	amplitud.ttf
1462969	WORD	wordpools/wasnorm_wordpool.txt	LTP153	ltpFR	6	10	1	BISCUIT	130	n/a	n/a	0	0.422607421875	0.5869140625	0	lower	amplitud.ttf
1467146	WORD	wordpools/wasnorm_wordpool.txt	LTP153	ltpFR	6	10	1	LUNCH	849	n/a	n/a	0	0.422607421875	0.5869140625	0	lower	amplitud.ttf
1471107	WORD	wordpools/wasnorm_wordpool.txt	LTP153	ltpFR	6	10	0	PICNIC	1060	n/a	n/a	1	0.57763671875	0.412841796875	1	upper	zerothre.ttf
1474984	WORD	wordpools/wasnorm_wordpool.txt	LTP153	ltpFR	6	10	0	SKIN	1318	n/a	n/a	1	0.57763671875	0.412841796875	1	upper	zerothre.ttf
1480993	REC_START	n/a	LTP153	ltpFR	6	10	n/a	n/a	n/a	n/a	n/a	n/a	n/a	n/a	n/a	n/a	n/a
1482045	REC_WORD	wordpools/wasnorm_wordpool.txt	LTP153	ltpFR	6	10	0	SKIN	1318	n/a	n/a	1	n/a	n/a	n/a	n/a	n/a
1483243	REC_WORD	wordpools/wasnorm_wordpool.txt	LTP153	ltpFR	6	10	1	BISCUIT	130	n/a	n/a	0	n/a	n/a	n/a	n/a	n/a
1484599	REC_WORD	wordpools/wasnorm_wordpool.txt	LTP153	ltpFR	6	10	0	PICNIC	1060	n/a	n/a	1	n/a	n/a	n/a	n/a	n/a
1486550	REC_WORD	wordpools/wasnorm_wordpool.txt	LTP153	ltpFR	6	10	1	SHERIFF	1284	n/a	n/a	1	n/a	n/a	n/a	n/a	n/a
1487971	REC_WORD	wordpools/wasnorm_wordpool.txt	LTP153	ltpFR	6	10	1	SERGEANT	1269	n/a	n/a	1	n/a	n/a	n/a	n/a	n/a
1495619	REC_WORD	wordpools/wasnorm_wordpool.txt	LTP153	ltpFR	6	10	0	SKIN	1318	n/a	n/a	1	n/a	n/a	n/a	n/a	n/a
1561988	WORD	wordpools/wasnorm_wordpool.txt	LTP153	ltpFR	6	11	-1	TICKET	1464	n/a	n/a	-1	1.0	1.0	1	upper	Verdana.ttf
1566098	WORD	wordpools/wasnorm_wordpool.txt	LTP153	ltpFR	6	11	-1	WICK	1607	n/a	n/a	-1	1.0	1.0	1	upper	Verdana.ttf
1570142	WORD	wordpools/wasnorm_wordpool.txt	LTP153	ltpFR	6	11	-1	CAPTAIN	239	n/a	n/a	-1	1.0	1.0	1	upper	Verdana.ttf
1574170	WORD	wordpools/wasnorm_wordpool.txt	LTP153	ltpFR	6	11	-1	PUPIL	1143	n/a	n/a	-1	1.0	1.0	1	upper	Verdana.ttf
1578297	WORD	wordpools/wasnorm_wordpool.txt	LTP153	ltpFR	6	11	-1	GRADUATE	653	n/a	n/a	-1	1.0	1.0	1	upper	Verdana.ttf
1582441	WORD	wordpools/wasnorm_wordpool.txt	LTP153	ltpFR	6	11	-1	TELEVISION	1447	n/a	n/a	-1	1.0	1.0	1	upper	Verdana.ttf
1586602	WORD	wordpools/wasnorm_wordpool.txt	LTP153	ltpFR	6	11	-1	ACTOR	5	n/a	n/a	-1	1.0	1.0	1	upper	Verdana.ttf
1590812	WORD	wordpools/wasnorm_wordpool.txt	LTP153	ltpFR	6	11	-1	HOOP	716	n/a	n/a	-1	1.0	1.0	1	upper	Verdana.ttf
1594839	WORD	wordpools/wasnorm_wordpool.txt	LTP153	ltpFR	6	11	-1	MIRROR	899	n/a	n/a	-1	1.0	1.0	1	upper	Verdana.ttf
1598933	WORD	wordpools/wasnorm_wordpool.txt	LTP153	ltpFR	6	11	-1	SHRIMP	1297	n/a	n/a	-1	1.0	1.0	1	upper	Verdana.ttf
1602993	WORD	wordpools/wasnorm_wordpool.txt	LTP153	ltpFR	6	11	-1	DANCER	437	n/a	n/a	-1	1.0	1.0	1	upper	Verdana.ttf
1607004	WORD	wordpools/wasnorm_wordpool.txt	LTP153	ltpFR	6	11	-1	GREASE	660	n/a	n/a	-1	1.0	1.0	1	upper	Verdana.ttf
1610965	WORD	wordpools/wasnorm_wordpool.txt	LTP153	ltpFR	6	11	-1	BUGGY	188	n/a	n/a	-1	1.0	1.0	1	upper	Verdana.ttf
1614909	WORD	wordpools/wasnorm_wordpool.txt	LTP153	ltpFR	6	11	-1	TAXI	1438	n/a	n/a	-1	1.0	1.0	1	upper	Verdana.ttf
1618886	WORD	wordpools/wasnorm_wordpool.txt	LTP153	ltpFR	6	11	-1	HOOK	715	n/a	n/a	-1	1.0	1.0	1	upper	Verdana.ttf
1623047	WORD	wordpools/wasnorm_wordpool.txt	LTP153	ltpFR	6	11	-1	THIGH	1457	n/a	n/a	-1	1.0	1.0	1	upper	Verdana.ttf
1628707	REC_START	n/a	LTP153	ltpFR	6	11	n/a	n/a	n/a	n/a	n/a	n/a	n/a	n/a	n/a	n/a	n/a
1630114	REC_WORD	wordpools/wasnorm_wordpool.txt	LTP153	ltpFR	6	11	-1	TICKET	1464	n/a	n/a	-1	n/a	n/a	n/a	n/a	n/a
1632319	REC_WORD	wordpools/wasnorm_wordpool.txt	LTP153	ltpFR	6	11	-1	WICK	1607	n/a	n/a	-1	n/a	n/a	n/a	n/a	n/a
1634194	REC_WORD	wordpools/wasnorm_wordpool.txt	LTP153	ltpFR	6	11	-1	THIGH	1457	n/a	n/a	-1	n/a	n/a	n/a	n/a	n/a
1718288	WORD	wordpools/wasnorm_wordpool.txt	LTP153	ltpFR	6	12	-1	WEED	1599	n/a	n/a	-1	1.0	1.0	1	upper	Verdana.ttf
1722182	WORD	wordpools/wasnorm_wordpool.txt	LTP153	ltpFR	6	12	-1	ISLAND	745	n/a	n/a	-1	1.0	1.0	1	upper	Verdana.ttf
1726309	WORD	wordpools/wasnorm_wordpool.txt	LTP153	ltpFR	6	12	-1	BATH	98	n/a	n/a	-1	1.0	1.0	1	upper	Verdana.ttf
1730220	WORD	wordpools/wasnorm_wordpool.txt	LTP153	ltpFR	6	12	-1	YARD	1630	n/a	n/a	-1	1.0	1.0	1	upper	Verdana.ttf
1734147	WORD	wordpools/wasnorm_wordpool.txt	LTP153	ltpFR	6	12	-1	PELT	1040	n/a	n/a	-1	1.0	1.0	1	upper	Verdana.ttf
1738308	WORD	wordpools/wasnorm_wordpool.txt	LTP153	ltpFR	6	12	-1	SPIT	1354	n/a	n/a	-1	1.0	1.0	1	upper	Verdana.ttf
1742453	WORD	wordpools/wasnorm_wordpool.txt	LTP153	ltpFR	6	12	-1	WHIP	1604	n/a	n/a	-1	1.0	1.0	1	upper	Verdana.ttf
1746313	WORD	wordpools/wasnorm_wordpool.txt	LTP153	ltpFR	6	12	-1	APPENDAGE	32	n/a	n/a	-1	1.0	1.0	1	upper	Verdana.ttf
1750507	WORD	wordpools/wasnorm_wordpool.txt	LTP153	ltpFR	6	12	-1	WINGS	1614	n/a	n/a	-1	1.0	1.0	1	upper	Verdana.ttf
1754468	WORD	wordpools/wasnorm_wordpool.txt	LTP153	ltpFR	6	12	-1	KITE	779	n/a	n/a	-1	1.0	1.0	1	upper	Verdana.ttf
1758311	WORD	wordpools/wasnorm_wordpool.txt	LTP153	ltpFR	6	12	-1	BAG	69	n/a	n/a	-1	1.0	1.0	1	upper	Verdana.ttf
1762339	WORD	wordpools/wasnorm_wordpool.txt	LTP153	ltpFR	6	12	-1	SCROLL	1257	n/a	n/a	-1	1.0	1.0	1	upper	Verdana.ttf
1766416	WORD	wordpools/wasnorm_wordpool.txt	LTP153	ltpFR	6	12	-1	FAUCET	555	n/a	n/a	-1	1.0	1.0	1	upper	Verdana.ttf
1770478	WORD	wordpools/wasnorm_wordpool.txt	LTP153	ltpFR	6	12	-1	TRANSPLANT	1496	n/a	n/a	-1	1.0	1.0	1	upper	Verdana.ttf
1774688	WORD	wordpools/wasnorm_wordpool.txt	LTP153	ltpFR	6	12	-1	RAFT	1159	n/a	n/a	-1	1.0	1.0	1	upper	Verdana.ttf
1778649	WORD	wordpools/wasnorm_wordpool.txt	LTP153	ltpFR	6	12	-1	BAY	102	n/a	n/a	-1	1.0	1.0	1	upper	Verdana.ttf
1784423	REC_START	n/a	LTP153	ltpFR	6	12	n/a	n/a	n/a	n/a	n/a	n/a	n/a	n/a	n/a	n/a	n/a
1786249	REC_WORD	wordpools/wasnorm_wordpool.txt	LTP153	ltpFR	6	12	-1	BATH	98	n/a	n/a	-1	n/a	n/a	n/a	n/a	n/a
1787371	REC_WORD	wordpools/wasnorm_wordpool.txt	LTP153	ltpFR	6	12	-1	ISLAND	745	n/a	n/a	-1	n/a	n/a	n/a	n/a	n/a
1788473	REC_WORD	wordpools/wasnorm_wordpool.txt	LTP153	ltpFR	6	12	-1	WEED	1599	n/a	n/a	-1	n/a	n/a	n/a	n/a	n/a
1789536	REC_WORD	wordpools/wasnorm_wordpool.txt	LTP153	ltpFR	6	12	-1	YARD	1630	n/a	n/a	-1	n/a	n/a	n/a	n/a	n/a
1793018	REC_WORD	wordpools/wasnorm_wordpool.txt	LTP153	ltpFR	6	12	-1	FAUCET	555	n/a	n/a	-1	n/a	n/a	n/a	n/a	n/a
1860009	REST_REWET	n/a	LTP153	ltpFR	6	12	n/a	n/a	n/a	n/a	n/a	n/a	n/a	n/a	n/a	n/a	n/a
2268383	WORD	wordpools/wasnorm_wordpool.txt	LTP153	ltpFR	6	13	1	BLANKET	135	n/a	n/a	0	0.422607421875	0.5869140625	0	lower	amplitud.ttf
2272310	WORD	wordpools/wasnorm_wordpool.txt	LTP153	ltpFR	6	13	1	TOMBSTONE	1478	n/a	n/a	0	0.422607421875	0.5869140625	0	lower	amplitud.ttf
2276489	WORD	wordpools/wasnorm_wordpool.txt	LTP153	ltpFR	6	13	1	SHORE	1291	n/a	n/a	0	0.422607421875	0.5869140625	0	lower	amplitud.ttf
2280599	WORD	wordpools/wasnorm_wordpool.txt	LTP153	ltpFR	6	13	0	AUDIENCE	59	n/a	n/a	1	0.57763671875	0.412841796875	1	upper	zerothre.ttf
2284726	WORD	wordpools/wasnorm_wordpool.txt	LTP153	ltpFR	6	13	0	ASSOCIATE	49	n/a	n/a	1	0.57763671875	0.412841796875	1	upper	zerothre.ttf
2288620	WORD	wordpools/wasnorm_wordpool.txt	LTP153	ltpFR	6	13	0	STICKER	1382	n/a	n/a	0	0.57763671875	0.412841796875	1	upper	zerothre.ttf
2292631	WORD	wordpools/wasnorm_wordpool.txt	LTP153	ltpFR	6	13	0	PRIEST	1122	n/a	n/a	1	0.57763671875	0.412841796875	1	upper	zerothre.ttf
2296642	WORD	wordpools/wasnorm_wordpool.txt	LTP153	ltpFR	6	13	1	BAND	78	n/a	n/a	1	0.422607421875	0.5869140625	0	lower	amplitud.ttf
2300719	WORD	wordpools/wasnorm_wordpool.txt	LTP153	ltpFR	6	13	1	TROMBONE	1508	n/a	n/a	0	0.422607421875	0.5869140625	0	lower	amplitud.ttf
2304580	WORD	wordpools/wasnorm_wordpool.txt	LTP153	ltpFR	6	13	0	ELEPHANT	523	n/a	n/a	1	0.57763671875	0.412841796875	1	upper	zerothre.ttf
2308707	WORD	wordpools/wasnorm_wordpool.txt	LTP153	ltpFR	6	13	0	WATER	1594	n/a	n/a	0	0.57763671875	0.412841796875	1	upper	zerothre.ttf
2312651	WORD	wordpools/wasnorm_wordpool.txt	LTP153	ltpFR	6	13	0	BEDROOM	111	n/a	n/a	1	0.57763671875	0.412841796875	1	upper	zerothre.ttf
2316645	WORD	wordpools/wasnorm_wordpool.txt	LTP153	ltpFR	6	13	0	SUNRISE	1407	n/a	n/a	1	0.57763671875	0.412841796875	1	upper	zerothre.ttf
2320821	WORD	wordpools/wasnorm_wordpool.txt	LTP153	ltpFR	6	13	1	BANANA	77	n/a	n/a	0	0.422607421875	0.5869140625	0	lower	amplitud.ttf
2324667	WORD	wordpools/wasnorm_wordpool.txt	LTP153	ltpFR	6	13	1	CHIMPANZEE	302	n/a	n/a	1	0.422607421875	0.5869140625	0	lower	amplitud.ttf
2328611	WORD	wordpools/wasnorm_wordpool.txt	LTP153	ltpFR	6	13	1	PUDDLE	1140	n/a	n/a	0	0.422607421875	0.5869140625	0	lower	amplitud.ttf
2334385	REC_START	n/a	LTP153	ltpFR	6	13	n/a	n/a	n/a	n/a	n/a	n/a	n/a	n/a	n/a	n/a	n/a
2335477	REC_WORD	wordpools/wasnorm_wordpool.txt	LTP153	ltpFR	6	13	1	BLANKET	135	n/a	n/a	0	n/a	n/a	n/a	n/a	n/a
2336415	REC_WORD	wordpools/wasnorm_wordpool.txt	LTP153	ltpFR	6	13	1	TOMBSTONE	1478	n/a	n/a	0	n/a	n/a	n/a	n/a	n/a
2337612	REC_WORD	wordpools/wasnorm_wordpool.txt	LTP153	ltpFR	6	13	1	SHORE	1291	n/a	n/a	0	n/a	n/a	n/a	n/a	n/a
2339134	REC_WORD	wordpools/wasnorm_wordpool.txt	LTP153	ltpFR	6	13	0	WATER	1594	n/a	n/a	0	n/a	n/a	n/a	n/a	n/a
2341049	REC_WORD	wordpools/wasnorm_wordpool.txt	LTP153	ltpFR	6	13	n/a	SUNSET	1408	n/a	n/a	n/a	n/a	n/a	n/a	n/a	n/a
2342049	REC_WORD_VV	wordpools/wasnorm_wordpool.txt	LTP153	ltpFR	6	13	n/a	<>	-1	n/a	n/a	n/a	n/a	n/a	n/a	n/a	n/a
2344332	REC_WORD	wordpools/wasnorm_wordpool.txt	LTP153	ltpFR	6	13	0	ELEPHANT	523	n/a	n/a	1	n/a	n/a	n/a	n/a	n/a
2345594	REC_WORD	wordpools/wasnorm_wordpool.txt	LTP153	ltpFR	6	13	1	BAND	78	n/a	n/a	1	n/a	n/a	n/a	n/a	n/a
2347979	REC_WORD	wordpools/wasnorm_wordpool.txt	LTP153	ltpFR	6	13	0	AUDIENCE	59	n/a	n/a	1	n/a	n/a	n/a	n/a	n/a
2348881	REC_WORD	wordpools/wasnorm_wordpool.txt	LTP153	ltpFR	6	13	0	ASSOCIATE	49	n/a	n/a	1	n/a	n/a	n/a	n/a	n/a
2357143	REC_WORD	wordpools/wasnorm_wordpool.txt	LTP153	ltpFR	6	13	1	BANANA	77	n/a	n/a	0	n/a	n/a	n/a	n/a	n/a
2385324	REC_WORD	wordpools/wasnorm_wordpool.txt	LTP153	ltpFR	6	13	1	CHIMPANZEE	302	n/a	n/a	1	n/a	n/a	n/a	n/a	n/a
2416162	WORD	wordpools/wasnorm_wordpool.txt	LTP153	ltpFR	6	14	-1	COOK	372	n/a	n/a	-1	1.0	1.0	1	upper	Verdana.ttf
2420090	WORD	wordpools/wasnorm_wordpool.txt	LTP153	ltpFR	6	14	-1	TAR	1435	n/a	n/a	-1	1.0	1.0	1	upper	Verdana.ttf
2423984	WORD	wordpools/wasnorm_wordpool.txt	LTP153	ltpFR	6	14	-1	GLUE	643	n/a	n/a	-1	1.0	1.0	1	upper	Verdana.ttf
2428061	WORD	wordpools/wasnorm_wordpool.txt	LTP153	ltpFR	6	14	-1	CARNIVAL	245	n/a	n/a	-1	1.0	1.0	1	upper	Verdana.ttf
2431922	WORD	wordpools/wasnorm_wordpool.txt	LTP153	ltpFR	6	14	-1	ACROBAT	4	n/a	n/a	-1	1.0	1.0	1	upper	Verdana.ttf
2435900	WORD	wordpools/wasnorm_wordpool.txt	LTP153	ltpFR	6	14	-1	EYE	545	n/a	n/a	-1	1.0	1.0	1	upper	Verdana.ttf
2439827	WORD	wordpools/wasnorm_wordpool.txt	LTP153	ltpFR	6	14	-1	UNIVERSITY	1541	n/a	n/a	-1	1.0	1.0	1	upper	Verdana.ttf
2443854	WORD	wordpools/wasnorm_wordpool.txt	LTP153	ltpFR	6	14	-1	ASSISTANT	48	n/a	n/a	-1	1.0	1.0	1	upper	Verdana.ttf
2447700	WORD	wordpools/wasnorm_wordpool.txt	LTP153	ltpFR	6	14	-1	BARRACUDA	90	n/a	n/a	-1	1.0	1.0	1	upper	Verdana.ttf
2451560	WORD	wordpools/wasnorm_wordpool.txt	LTP153	ltpFR	6	14	-1	BUTTON	207	n/a	n/a	-1	1.0	1.0	1	upper	Verdana.ttf
2455571	WORD	wordpools/wasnorm_wordpool.txt	LTP153	ltpFR	6	14	-1	TOASTER	1472	n/a	n/a	-1	1.0	1.0	1	upper	Verdana.ttf
2459465	WORD	wordpools/wasnorm_wordpool.txt	LTP153	ltpFR	6	14	-1	WHALE	1601	n/a	n/a	-1	1.0	1.0	1	upper	Verdana.ttf
2463325	WORD	wordpools/wasnorm_wordpool.txt	LTP153	ltpFR	6	14	-1	SLEIGH	1325	n/a	n/a	-1	1.0	1.0	1	upper	Verdana.ttf
2467402	WORD	wordpools/wasnorm_wordpool.txt	LTP153	ltpFR	6	14	-1	COMMITTEE	355	n/a	n/a	-1	1.0	1.0	1	upper	Verdana.ttf
2471263	WORD	wordpools/wasnorm_wordpool.txt	LTP153	ltpFR	6	14	-1	ERASER	538	n/a	n/a	-1	1.0	1.0	1	upper	Verdana.ttf
2475307	WORD	wordpools/wasnorm_wordpool.txt	LTP153	ltpFR	6	14	-1	CHALK	276	n/a	n/a	-1	1.0	1.0	1	upper	Verdana.ttf
2481166	REC_START	n/a	LTP153	ltpFR	6	14	n/a	n/a	n/a	n/a	n/a	n/a	n/a	n/a	n/a	n/a	n/a
2483026	REC_WORD	wordpools/wasnorm_wordpool.txt	LTP153	ltpFR	6	14	-1	UNIVERSITY	1541	n/a	n/a	-1	n/a	n/a	n/a	n/a	n/a
2484026	REC_WORD_VV	wordpools/wasnorm_wordpool.txt	LTP153	ltpFR	6	14	n/a	<>	-1	n/a	n/a	n/a	n/a	n/a	n/a	n/a	n/a
2484753	REC_WORD	wordpools/wasnorm_wordpool.txt	LTP153	ltpFR	6	14	-1	ERASER	538	n/a	n/a	-1	n/a	n/a	n/a	n/a	n/a
2486444	REC_WORD	wordpools/wasnorm_wordpool.txt	LTP153	ltpFR	6	14	-1	CHALK	276	n/a	n/a	-1	n/a	n/a	n/a	n/a	n/a
2489662	REC_WORD	wordpools/wasnorm_wordpool.txt	LTP153	ltpFR	6	14	-1	COOK	372	n/a	n/a	-1	n/a	n/a	n/a	n/a	n/a
2490694	REC_WORD	wordpools/wasnorm_wordpool.txt	LTP153	ltpFR	6	14	-1	ACROBAT	4	n/a	n/a	-1	n/a	n/a	n/a	n/a	n/a
2503439	REC_WORD	wordpools/wasnorm_wordpool.txt	LTP153	ltpFR	6	14	-1	ASSISTANT	48	n/a	n/a	-1	n/a	n/a	n/a	n/a	n/a
2568901	WORD	wordpools/wasnorm_wordpool.txt	LTP153	ltpFR	6	15	-1	TOURIST	1488	n/a	n/a	-1	1.0	1.0	1	upper	Verdana.ttf
2573078	WORD	wordpools/wasnorm_wordpool.txt	LTP153	ltpFR	6	15	-1	ATTIC	56	n/a	n/a	-1	1.0	1.0	1	upper	Verdana.ttf
2576989	WORD	wordpools/wasnorm_wordpool.txt	LTP153	ltpFR	6	15	-1	VEAL	1551	n/a	n/a	-1	1.0	1.0	1	upper	Verdana.ttf
2581049	WORD	wordpools/wasnorm_wordpool.txt	LTP153	ltpFR	6	15	-1	COMPASS	358	n/a	n/a	-1	1.0	1.0	1	upper	Verdana.ttf
2585210	WORD	wordpools/wasnorm_wordpool.txt	LTP153	ltpFR	6	15	-1	SENATE	1267	n/a	n/a	-1	1.0	1.0	1	upper	Verdana.ttf
2589171	WORD	wordpools/wasnorm_wordpool.txt	LTP153	ltpFR	6	15	-1	VIOLA	1570	n/a	n/a	-1	1.0	1.0	1	upper	Verdana.ttf
2593248	WORD	wordpools/wasnorm_wordpool.txt	LTP153	ltpFR	6	15	-1	DINNER	468	n/a	n/a	-1	1.0	1.0	1	upper	Verdana.ttf
2597392	WORD	wordpools/wasnorm_wordpool.txt	LTP153	ltpFR	6	15	-1	BERRY	122	n/a	n/a	-1	1.0	1.0	1	upper	Verdana.ttf
2601219	WORD	wordpools/wasnorm_wordpool.txt	LTP153	ltpFR	6	15	-1	HARP	689	n/a	n/a	-1	1.0	1.0	1	upper	Verdana.ttf
2605130	WORD	wordpools/wasnorm_wordpool.txt	LTP153	ltpFR	6	15	-1	DETERGENT	455	n/a	n/a	-1	1.0	1.0	1	upper	Verdana.ttf
2609191	WORD	wordpools/wasnorm_wordpool.txt	LTP153	ltpFR	6	15	-1	VACUUM	1543	n/a	n/a	-1	1.0	1.0	1	upper	Verdana.ttf
2613052	WORD	wordpools/wasnorm_wordpool.txt	LTP153	ltpFR	6	15	-1	CABIN	211	n/a	n/a	-1	1.0	1.0	1	upper	Verdana.ttf
2617062	WORD	wordpools/wasnorm_wordpool.txt	LTP153	ltpFR	6	15	-1	MOTEL	919	n/a	n/a	-1	1.0	1.0	1	upper	Verdana.ttf
2621173	WORD	wordpools/wasnorm_wordpool.txt	LTP153	ltpFR	6	15	-1	BULL	193	n/a	n/a	-1	1.0	1.0	1	upper	Verdana.ttf
2625350	WORD	wordpools/wasnorm_wordpool.txt	LTP153	ltpFR	6	15	-1	DRIVER	499	n/a	n/a	-1	1.0	1.0	1	upper	Verdana.ttf
2629394	WORD	wordpools/wasnorm_wordpool.txt	LTP153	ltpFR	6	15	-1	CHAUFFEUR	283	n/a	n/a	-1	1.0	1.0	1	upper	Verdana.ttf
2635186	REC_START	n/a	LTP153	ltpFR	6	15	n/a	n/a	n/a	n/a	n/a	n/a	n/a	n/a	n/a	n/a	n/a
2635769	REC_WORD	wordpools/wasnorm_wordpool.txt	LTP153	ltpFR	6	15	-1	DRIVER	499	n/a	n/a	-1	n/a	n/a	n/a	n/a	n/a
2636917	REC_WORD	wordpools/wasnorm_wordpool.txt	LTP153	ltpFR	6	15	-1	MOTEL	919	n/a	n/a	-1	n/a	n/a	n/a	n/a	n/a
2638458	REC_WORD	wordpools/wasnorm_wordpool.txt	LTP153	ltpFR	6	15	-1	BULL	193	n/a	n/a	-1	n/a	n/a	n/a	n/a	n/a
2639237	REC_WORD	wordpools/wasnorm_wordpool.txt	LTP153	ltpFR	6	15	-1	CHAUFFEUR	283	n/a	n/a	-1	n/a	n/a	n/a	n/a	n/a
2640788	REC_WORD	wordpools/wasnorm_wordpool.txt	LTP153	ltpFR	6	15	-1	ATTIC	56	n/a	n/a	-1	n/a	n/a	n/a	n/a	n/a
2641900	REC_WORD	wordpools/wasnorm_wordpool.txt	LTP153	ltpFR	6	15	-1	TOURIST	1488	n/a	n/a	-1	n/a	n/a	n/a	n/a	n/a
2643277	REC_WORD	wordpools/wasnorm_wordpool.txt	LTP153	ltpFR	6	15	-1	HARP	689	n/a	n/a	-1	n/a	n/a	n/a	n/a	n/a
2644364	REC_WORD	wordpools/wasnorm_wordpool.txt	LTP153	ltpFR	6	15	-1	DETERGENT	455	n/a	n/a	-1	n/a	n/a	n/a	n/a	n/a
2646256	REC_WORD	wordpools/wasnorm_wordpool.txt	LTP153	ltpFR	6	15	-1	DINNER	468	n/a	n/a	-1	n/a	n/a	n/a	n/a	n/a
2647218	REC_WORD	wordpools/wasnorm_wordpool.txt	LTP153	ltpFR	6	15	-1	VEAL	1551	n/a	n/a	-1	n/a	n/a	n/a	n/a	n/a
2648421	REC_WORD	wordpools/wasnorm_wordpool.txt	LTP153	ltpFR	6	15	-1	BERRY	122	n/a	n/a	-1	n/a	n/a	n/a	n/a	n/a
2652511	REC_WORD	wordpools/wasnorm_wordpool.txt	LTP153	ltpFR	6	15	-1	TOURIST	1488	n/a	n/a	-1	n/a	n/a	n/a	n/a	n/a
2713519	WORD	wordpools/wasnorm_wordpool.txt	LTP153	ltpFR	6	16	0	PILLOW	1069	n/a	n/a	1	0.57763671875	0.412841796875	1	upper	zerothre.ttf
2717597	WORD	wordpools/wasnorm_wordpool.txt	LTP153	ltpFR	6	16	0	NICKEL	950	n/a	n/a	0	0.57763671875	0.412841796875	1	upper	zerothre.ttf
2721757	WORD	wordpools/wasnorm_wordpool.txt	LTP153	ltpFR	6	16	0	BRAKE	166	n/a	n/a	1	0.57763671875	0.412841796875	1	upper	zerothre.ttf
2725768	WORD	wordpools/wasnorm_wordpool.txt	LTP153	ltpFR	6	16	0	WHEEL	1603	n/a	n/a	1	0.57763671875	0.412841796875	1	upper	zerothre.ttf
2729877	WORD	wordpools/wasnorm_wordpool.txt	LTP153	ltpFR	6	16	0	QUILT	1151	n/a	n/a	1	0.57763671875	0.412841796875	1	upper	zerothre.ttf
2734004	WORD	wordpools/wasnorm_wordpool.txt	LTP153	ltpFR	6	16	0	OVAL	990	n/a	n/a	0	0.57763671875	0.412841796875	1	upper	zerothre.ttf
2737965	WORD	wordpools/wasnorm_wordpool.txt	LTP153	ltpFR	6	16	0	LAKE	796	n/a	n/a	1	0.57763671875	0.412841796875	1	upper	zerothre.ttf
2741859	WORD	wordpools/wasnorm_wordpool.txt	LTP153	ltpFR	6	16	0	PEN	1041	n/a	n/a	0	0.57763671875	0.412841796875	1	upper	zerothre.ttf
2745755	WORD	wordpools/wasnorm_wordpool.txt	LTP153	ltpFR	6	16	0	STAPLE	1371	n/a	n/a	0	0.57763671875	0.412841796875	1	upper	zerothre.ttf
2749864	WORD	wordpools/wasnorm_wordpool.txt	LTP153	ltpFR	6	16	0	SKILLET	1317	n/a	n/a	1	0.57763671875	0.412841796875	1	upper	zerothre.ttf
2753875	WORD	wordpools/wasnorm_wordpool.txt	LTP153	ltpFR	6	16	0	WHISKERS	1605	n/a	n/a	0	0.57763671875	0.412841796875	1	upper	zerothre.ttf
2758085	WORD	wordpools/wasnorm_wordpool.txt	LTP153	ltpFR	6	16	0	MAPLE	866	n/a	n/a	0	0.57763671875	0.412841796875	1	upper	zerothre.ttf
2762196	WORD	wordpools/wasnorm_wordpool.txt	LTP153	ltpFR	6	16	0	AIRCRAFT	11	n/a	n/a	1	0.57763671875	0.412841796875	1	upper	zerothre.ttf
2766023	WORD	wordpools/wasnorm_wordpool.txt	LTP153	ltpFR	6	16	0	TERMINAL	1450	n/a	n/a	1	0.57763671875	0.412841796875	1	upper	zerothre.ttf
2770134	WORD	wordpools/wasnorm_wordpool.txt	LTP153	ltpFR	6	16	0	DOLLAR	482	n/a	n/a	0	0.57763671875	0.412841796875	1	upper	zerothre.ttf
2774178	WORD	wordpools/wasnorm_wordpool.txt	LTP153	ltpFR	6	16	0	IGLOO	734	n/a	n/a	1	0.57763671875	0.412841796875	1	upper	zerothre.ttf
2780070	REC_START	n/a	LTP153	ltpFR	6	16	n/a	n/a	n/a	n/a	n/a	n/a	n/a	n/a	n/a	n/a	n/a
2782439	REC_WORD	wordpools/wasnorm_wordpool.txt	LTP153	ltpFR	6	16	0	IGLOO	734	n/a	n/a	1	n/a	n/a	n/a	n/a	n/a
2783996	REC_WORD	wordpools/wasnorm_wordpool.txt	LTP153	ltpFR	6	16	0	LAKE	796	n/a	n/a	1	n/a	n/a	n/a	n/a	n/a
2787063	REC_WORD	wordpools/wasnorm_wordpool.txt	LTP153	ltpFR	6	16	0	STAPLE	1371	n/a	n/a	0	n/a	n/a	n/a	n/a	n/a
2788441	REC_WORD	wordpools/wasnorm_wordpool.txt	LTP153	ltpFR	6	16	0	NICKEL	950	n/a	n/a	0	n/a	n/a	n/a	n/a	n/a
2789708	REC_WORD	wordpools/wasnorm_wordpool.txt	LTP153	ltpFR	6	16	0	PILLOW	1069	n/a	n/a	1	n/a	n/a	n/a	n/a	n/a
2792790	REC_WORD	wordpools/wasnorm_wordpool.txt	LTP153	ltpFR	6	16	0	SKILLET	1317	n/a	n/a	1	n/a	n/a	n/a	n/a	n/a
2816372	REC_WORD	wordpools/wasnorm_wordpool.txt	LTP153	ltpFR	6	16	0	AIRCRAFT	11	n/a	n/a	1	n/a	n/a	n/a	n/a	n/a
2817372	REC_WORD_VV	wordpools/wasnorm_wordpool.txt	LTP153	ltpFR	6	16	n/a	<>	-1	n/a	n/a	n/a	n/a	n/a	n/a	n/a	n/a
2851866	REC_WORD	wordpools/wasnorm_wordpool.txt	LTP153	ltpFR	6	16	0	QUILT	1151	n/a	n/a	1	n/a	n/a	n/a	n/a	n/a
2880754	REC_START	n/a	LTP153	ltpFR	6	1	n/a	n/a	n/a	n/a	n/a	n/a	n/a	n/a	n/a	n/a	n/a
2880786	RECOG_TARGET	n/a	LTP153	ltpFR	6	1	0	STICKER	1382	0	2	0	n/a	n/a	n/a	n/a	n/a
2881928	RECOG_RESP	n/a	LTP153	ltpFR	6	1	0	STICKER	1382	0	n/a	0	n/a	n/a	n/a	n/a	n/a
2883677	RECOG_CONF	n/a	LTP153	ltpFR	6	1	0	STICKER	1382	n/a	2	0	n/a	n/a	n/a	n/a	n/a
2885562	RECOG_LURE	n/a	LTP153	ltpFR	6	1	n/a	GOBLIN	645	0	1	n/a	n/a	n/a	n/a	n/a	n/a
2886413	RECOG_RESP	n/a	LTP153	ltpFR	6	1	n/a	GOBLIN	645	0	n/a	n/a	n/a	n/a	n/a	n/a	n/a
2887463	RECOG_CONF	n/a	LTP153	ltpFR	6	1	n/a	GOBLIN	645	n/a	1	n/a	n/a	n/a	n/a	n/a	n/a
2888956	RECOG_TARGET	n/a	LTP153	ltpFR	6	1	1	FILM	565	1	2	0	n/a	n/a	n/a	n/a	n/a
2890075	RECOG_RESP	n/a	LTP153	ltpFR	6	1	1	FILM	565	1	n/a	0	n/a	n/a	n/a	n/a	n/a
2891264	RECOG_CONF	n/a	LTP153	ltpFR	6	1	1	FILM	565	n/a	2	0	n/a	n/a	n/a	n/a	n/a
2892900	RECOG_LURE	n/a	LTP153	ltpFR	6	1	n/a	BELL	118	0	1	n/a	n/a	n/a	n/a	n/a	n/a
2893598	RECOG_RESP	n/a	LTP153	ltpFR	6	1	n/a	BELL	118	0	n/a	n/a	n/a	n/a	n/a	n/a	n/a
2894638	RECOG_CONF	n/a	LTP153	ltpFR	6	1	n/a	BELL	118	n/a	1	n/a	n/a	n/a	n/a	n/a	n/a
2896295	RECOG_TARGET	n/a	LTP153	ltpFR	6	1	1	PUDDLE	1140	1	3	0	n/a	n/a	n/a	n/a	n/a
2896976	RECOG_RESP	n/a	LTP153	ltpFR	6	1	1	PUDDLE	1140	1	n/a	0	n/a	n/a	n/a	n/a	n/a
2898029	RECOG_CONF	n/a	LTP153	ltpFR	6	1	1	PUDDLE	1140	n/a	3	0	n/a	n/a	n/a	n/a	n/a
2899558	RECOG_TARGET	n/a	LTP153	ltpFR	6	1	0	MITTEN	902	1	2	0	n/a	n/a	n/a	n/a	n/a
2900525	RECOG_RESP	n/a	LTP153	ltpFR	6	1	0	MITTEN	902	1	n/a	0	n/a	n/a	n/a	n/a	n/a
2901504	RECOG_CONF	n/a	LTP153	ltpFR	6	1	0	MITTEN	902	n/a	2	0	n/a	n/a	n/a	n/a	n/a
2903168	RECOG_LURE	n/a	LTP153	ltpFR	6	1	n/a	MOTHER	921	1	1	n/a	n/a	n/a	n/a	n/a	n/a
2903971	RECOG_RESP	n/a	LTP153	ltpFR	6	1	n/a	MOTHER	921	1	n/a	n/a	n/a	n/a	n/a	n/a	n/a
2904977	RECOG_CONF	n/a	LTP153	ltpFR	6	1	n/a	MOTHER	921	n/a	1	n/a	n/a	n/a	n/a	n/a	n/a
2906514	RECOG_TARGET	n/a	LTP153	ltpFR	6	1	1	DIVER	476	0	3	1	n/a	n/a	n/a	n/a	n/a
2908377	RECOG_RESP	n/a	LTP153	ltpFR	6	1	1	DIVER	476	0	n/a	1	n/a	n/a	n/a	n/a	n/a
2909373	RECOG_CONF	n/a	LTP153	ltpFR	6	1	1	DIVER	476	n/a	3	1	n/a	n/a	n/a	n/a	n/a
2911090	RECOG_LURE	n/a	LTP153	ltpFR	6	1	n/a	MATCH	878	0	1	n/a	n/a	n/a	n/a	n/a	n/a
2912692	RECOG_RESP	n/a	LTP153	ltpFR	6	1	n/a	MATCH	878	0	n/a	n/a	n/a	n/a	n/a	n/a	n/a
2913563	RECOG_CONF	n/a	LTP153	ltpFR	6	1	n/a	MATCH	878	n/a	1	n/a	n/a	n/a	n/a	n/a	n/a
2915184	RECOG_TARGET	n/a	LTP153	ltpFR	6	1	1	SALESMAN	1225	1	3	1	n/a	n/a	n/a	n/a	n/a
2915894	RECOG_RESP	n/a	LTP153	ltpFR	6	1	1	SALESMAN	1225	1	n/a	1	n/a	n/a	n/a	n/a	n/a
2916734	RECOG_CONF	n/a	LTP153	ltpFR	6	1	1	SALESMAN	1225	n/a	3	1	n/a	n/a	n/a	n/a	n/a
2918296	RECOG_TARGET	n/a	LTP153	ltpFR	6	1	-1	WHIP	1604	0	2	-1	n/a	n/a	n/a	n/a	n/a
2919023	RECOG_RESP	n/a	LTP153	ltpFR	6	1	-1	WHIP	1604	0	n/a	-1	n/a	n/a	n/a	n/a	n/a
2919795	RECOG_CONF	n/a	LTP153	ltpFR	6	1	-1	WHIP	1604	n/a	2	-1	n/a	n/a	n/a	n/a	n/a
2921391	RECOG_TARGET	n/a	LTP153	ltpFR	6	1	-1	DINNER	468	1	4	-1	n/a	n/a	n/a	n/a	n/a
2922369	RECOG_RESP	n/a	LTP153	ltpFR	6	1	-1	DINNER	468	1	n/a	-1	n/a	n/a	n/a	n/a	n/a
2923100	RECOG_CONF	n/a	LTP153	ltpFR	6	1	-1	DINNER	468	n/a	4	-1	n/a	n/a	n/a	n/a	n/a
2924804	RECOG_LURE	n/a	LTP153	ltpFR	6	1	n/a	BUILDING	191	0	2	n/a	n/a	n/a	n/a	n/a	n/a
2925556	RECOG_RESP	n/a	LTP153	ltpFR	6	1	n/a	BUILDING	191	0	n/a	n/a	n/a	n/a	n/a	n/a	n/a
2926319	RECOG_CONF	n/a	LTP153	ltpFR	6	1	n/a	BUILDING	191	n/a	2	n/a	n/a	n/a	n/a	n/a	n/a
2927915	RECOG_TARGET	n/a	LTP153	ltpFR	6	1	1	SHEEP	1278	1	5	1	n/a	n/a	n/a	n/a	n/a
2928483	RECOG_RESP	n/a	LTP153	ltpFR	6	1	1	SHEEP	1278	1	n/a	1	n/a	n/a	n/a	n/a	n/a
2929298	RECOG_CONF	n/a	LTP153	ltpFR	6	1	1	SHEEP	1278	n/a	5	1	n/a	n/a	n/a	n/a	n/a
2930877	RECOG_LURE	n/a	LTP153	ltpFR	6	1	n/a	ALLIGATOR	16	0	2	n/a	n/a	n/a	n/a	n/a	n/a
2931566	RECOG_RESP	n/a	LTP153	ltpFR	6	1	n/a	ALLIGATOR	16	0	n/a	n/a	n/a	n/a	n/a	n/a	n/a
2932321	RECOG_CONF	n/a	LTP153	ltpFR	6	1	n/a	ALLIGATOR	16	n/a	2	n/a	n/a	n/a	n/a	n/a	n/a
2933889	RECOG_LURE	n/a	LTP153	ltpFR	6	1	n/a	COW	393	0	1	n/a	n/a	n/a	n/a	n/a	n/a
2934576	RECOG_RESP	n/a	LTP153	ltpFR	6	1	n/a	COW	393	0	n/a	n/a	n/a	n/a	n/a	n/a	n/a
2935347	RECOG_CONF	n/a	LTP153	ltpFR	6	1	n/a	COW	393	n/a	1	n/a	n/a	n/a	n/a	n/a	n/a
2936786	RECOG_LURE	n/a	LTP153	ltpFR	6	1	n/a	KIWI	781	0	3	n/a	n/a	n/a	n/a	n/a	n/a
2937485	RECOG_RESP	n/a	LTP153	ltpFR	6	1	n/a	KIWI	781	0	n/a	n/a	n/a	n/a	n/a	n/a	n/a
2938346	RECOG_CONF	n/a	LTP153	ltpFR	6	1	n/a	KIWI	781	n/a	3	n/a	n/a	n/a	n/a	n/a	n/a
2939864	RECOG_TARGET	n/a	LTP153	ltpFR	6	1	1	FLORIDA	582	1	5	0	n/a	n/a	n/a	n/a	n/a
2940474	RECOG_RESP	n/a	LTP153	ltpFR	6	1	1	FLORIDA	582	1	n/a	0	n/a	n/a	n/a	n/a	n/a
2941216	RECOG_CONF	n/a	LTP153	ltpFR	6	1	1	FLORIDA	582	n/a	5	0	n/a	n/a	n/a	n/a	n/a
2942760	RECOG_TARGET	n/a	LTP153	ltpFR	6	1	0	BEAVER	109	1	2	1	n/a	n/a	n/a	n/a	n/a
2943340	RECOG_RESP	n/a	LTP153	ltpFR	6	1	0	BEAVER	109	1	n/a	1	n/a	n/a	n/a	n/a	n/a
2944313	RECOG_CONF	n/a	LTP153	ltpFR	6	1	0	BEAVER	109	n/a	2	1	n/a	n/a	n/a	n/a	n/a
2945706	RECOG_TARGET	n/a	LTP153	ltpFR	6	1	1	INTESTINE	742	1	4	0	n/a	n/a	n/a	n/a	n/a
2946381	RECOG_RESP	n/a	LTP153	ltpFR	6	1	1	INTESTINE	742	1	n/a	0	n/a	n/a	n/a	n/a	n/a
2947268	RECOG_CONF	n/a	LTP153	ltpFR	6	1	1	INTESTINE	742	n/a	4	0	n/a	n/a	n/a	n/a	n/a
2951787	REC_START	n/a	LTP153	ltpFR	6	2	n/a	n/a	n/a	n/a	n/a	n/a	n/a	n/a	n/a	n/a	n/a
2951813	RECOG_TARGET	n/a	LTP153	ltpFR	6	2	1	MARROW	872	1	3	1	n/a	n/a	n/a	n/a	n/a
2952514	RECOG_RESP	n/a	LTP153	ltpFR	6	2	1	MARROW	872	1	n/a	1	n/a	n/a	n/a	n/a	n/a
2953398	RECOG_CONF	n/a	LTP153	ltpFR	6	2	1	MARROW	872	n/a	3	1	n/a	n/a	n/a	n/a	n/a
2954941	RECOG_TARGET	n/a	LTP153	ltpFR	6	2	-1	TRANSPLANT	1496	0	2	-1	n/a	n/a	n/a	n/a	n/a
2955671	RECOG_RESP	n/a	LTP153	ltpFR	6	2	-1	TRANSPLANT	1496	0	n/a	-1	n/a	n/a	n/a	n/a	n/a
2956515	RECOG_CONF	n/a	LTP153	ltpFR	6	2	-1	TRANSPLANT	1496	n/a	2	-1	n/a	n/a	n/a	n/a	n/a
2958203	RECOG_TARGET	n/a	LTP153	ltpFR	6	2	-1	HOOP	716	1	2	-1	n/a	n/a	n/a	n/a	n/a
2958847	RECOG_RESP	n/a	LTP153	ltpFR	6	2	-1	HOOP	716	1	n/a	-1	n/a	n/a	n/a	n/a	n/a
2959667	RECOG_CONF	n/a	LTP153	ltpFR	6	2	-1	HOOP	716	n/a	2	-1	n/a	n/a	n/a	n/a	n/a
2961132	RECOG_LURE	n/a	LTP153	ltpFR	6	2	n/a	VINEGAR	1569	1	1	n/a	n/a	n/a	n/a	n/a	n/a
2961811	RECOG_RESP	n/a	LTP153	ltpFR	6	2	n/a	VINEGAR	1569	1	n/a	n/a	n/a	n/a	n/a	n/a	n/a
2962609	RECOG_CONF	n/a	LTP153	ltpFR	6	2	n/a	VINEGAR	1569	n/a	1	n/a	n/a	n/a	n/a	n/a	n/a
2964194	RECOG_TARGET	n/a	LTP153	ltpFR	6	2	1	DILL	465	1	3	0	n/a	n/a	n/a	n/a	n/a
2964888	RECOG_RESP	n/a	LTP153	ltpFR	6	2	1	DILL	465	1	n/a	0	n/a	n/a	n/a	n/a	n/a
2965692	RECOG_CONF	n/a	LTP153	ltpFR	6	2	1	DILL	465	n/a	3	0	n/a	n/a	n/a	n/a	n/a
2967123	RECOG_TARGET	n/a	LTP153	ltpFR	6	2	-1	RAFT	1159	1	2	-1	n/a	n/a	n/a	n/a	n/a
2967810	RECOG_RESP	n/a	LTP153	ltpFR	6	2	-1	RAFT	1159	1	n/a	-1	n/a	n/a	n/a	n/a	n/a
2968592	RECOG_CONF	n/a	LTP153	ltpFR	6	2	-1	RAFT	1159	n/a	2	-1	n/a	n/a	n/a	n/a	n/a
2970052	RECOG_TARGET	n/a	LTP153	ltpFR	6	2	0	PRIEST	1122	1	2	1	n/a	n/a	n/a	n/a	n/a
2970743	RECOG_RESP	n/a	LTP153	ltpFR	6	2	0	PRIEST	1122	1	n/a	1	n/a	n/a	n/a	n/a	n/a
2971535	RECOG_CONF	n/a	LTP153	ltpFR	6	2	0	PRIEST	1122	n/a	2	1	n/a	n/a	n/a	n/a	n/a
2973047	RECOG_TARGET	n/a	LTP153	ltpFR	6	2	-1	TELEVISION	1447	1	3	-1	n/a	n/a	n/a	n/a	n/a
2973793	RECOG_RESP	n/a	LTP153	ltpFR	6	2	-1	TELEVISION	1447	1	n/a	-1	n/a	n/a	n/a	n/a	n/a
2974610	RECOG_CONF	n/a	LTP153	ltpFR	6	2	-1	TELEVISION	1447	n/a	3	-1	n/a	n/a	n/a	n/a	n/a
2976176	RECOG_LURE	n/a	LTP153	ltpFR	6	2	n/a	VICTIM	1562	0	1	n/a	n/a	n/a	n/a	n/a	n/a
2976896	RECOG_RESP	n/a	LTP153	ltpFR	6	2	n/a	VICTIM	1562	0	n/a	n/a	n/a	n/a	n/a	n/a	n/a
2977711	RECOG_CONF	n/a	LTP153	ltpFR	6	2	n/a	VICTIM	1562	n/a	1	n/a	n/a	n/a	n/a	n/a	n/a
2979321	RECOG_LURE	n/a	LTP153	ltpFR	6	2	n/a	EYELASH	546	1	2	n/a	n/a	n/a	n/a	n/a	n/a
2980108	RECOG_RESP	n/a	LTP153	ltpFR	6	2	n/a	EYELASH	546	1	n/a	n/a	n/a	n/a	n/a	n/a	n/a
2980867	RECOG_CONF	n/a	LTP153	ltpFR	6	2	n/a	EYELASH	546	n/a	2	n/a	n/a	n/a	n/a	n/a	n/a
2982451	RECOG_LURE	n/a	LTP153	ltpFR	6	2	n/a	SAUSAGE	1238	0	1	n/a	n/a	n/a	n/a	n/a	n/a
2983223	RECOG_RESP	n/a	LTP153	ltpFR	6	2	n/a	SAUSAGE	1238	0	n/a	n/a	n/a	n/a	n/a	n/a	n/a
2984007	RECOG_CONF	n/a	LTP153	ltpFR	6	2	n/a	SAUSAGE	1238	n/a	1	n/a	n/a	n/a	n/a	n/a	n/a
2985546	RECOG_LURE	n/a	LTP153	ltpFR	6	2	n/a	CALENDAR	221	1	2	n/a	n/a	n/a	n/a	n/a	n/a
2986284	RECOG_RESP	n/a	LTP153	ltpFR	6	2	n/a	CALENDAR	221	1	n/a	n/a	n/a	n/a	n/a	n/a	n/a
2987063	RECOG_CONF	n/a	LTP153	ltpFR	6	2	n/a	CALENDAR	221	n/a	2	n/a	n/a	n/a	n/a	n/a	n/a
2988692	RECOG_TARGET	n/a	LTP153	ltpFR	6	2	-1	CHALK	276	1	4	-1	n/a	n/a	n/a	n/a	n/a
2989445	RECOG_RESP	n/a	LTP153	ltpFR	6	2	-1	CHALK	276	1	n/a	-1	n/a	n/a	n/a	n/a	n/a
2990227	RECOG_CONF	n/a	LTP153	ltpFR	6	2	-1	CHALK	276	n/a	4	-1	n/a	n/a	n/a	n/a	n/a
2991903	RECOG_TARGET	n/a	LTP153	ltpFR	6	2	1	PHOTO	1055	1	3	0	n/a	n/a	n/a	n/a	n/a
2992543	RECOG_RESP	n/a	LTP153	ltpFR	6	2	1	PHOTO	1055	1	n/a	0	n/a	n/a	n/a	n/a	n/a
2993437	RECOG_CONF	n/a	LTP153	ltpFR	6	2	1	PHOTO	1055	n/a	3	0	n/a	n/a	n/a	n/a	n/a
2995015	RECOG_TARGET	n/a	LTP153	ltpFR	6	2	1	BROCCOLI	176	1	4	0	n/a	n/a	n/a	n/a	n/a
2995607	RECOG_RESP	n/a	LTP153	ltpFR	6	2	1	BROCCOLI	176	1	n/a	0	n/a	n/a	n/a	n/a	n/a
2996416	RECOG_CONF	n/a	LTP153	ltpFR	6	2	1	BROCCOLI	176	n/a	4	0	n/a	n/a	n/a	n/a	n/a
2997894	RECOG_LURE	n/a	LTP153	ltpFR	6	2	n/a	CART	250	0	1	n/a	n/a	n/a	n/a	n/a	n/a
2998723	RECOG_RESP	n/a	LTP153	ltpFR	6	2	n/a	CART	250	0	n/a	n/a	n/a	n/a	n/a	n/a	n/a
2999593	RECOG_CONF	n/a	LTP153	ltpFR	6	2	n/a	CART	250	n/a	1	n/a	n/a	n/a	n/a	n/a	n/a
3001239	RECOG_LURE	n/a	LTP153	ltpFR	6	2	n/a	BEAKER	104	0	2	n/a	n/a	n/a	n/a	n/a	n/a
3002110	RECOG_RESP	n/a	LTP153	ltpFR	6	2	n/a	BEAKER	104	0	n/a	n/a	n/a	n/a	n/a	n/a	n/a
3002874	RECOG_CONF	n/a	LTP153	ltpFR	6	2	n/a	BEAKER	104	n/a	2	n/a	n/a	n/a	n/a	n/a	n/a
3004468	RECOG_LURE	n/a	LTP153	ltpFR	6	2	n/a	WHISTLE	1606	0	2	n/a	n/a	n/a	n/a	n/a	n/a
3005374	RECOG_RESP	n/a	LTP153	ltpFR	6	2	n/a	WHISTLE	1606	0	n/a	n/a	n/a	n/a	n/a	n/a	n/a
3006441	RECOG_CONF	n/a	LTP153	ltpFR	6	2	n/a	WHISTLE	1606	n/a	2	n/a	n/a	n/a	n/a	n/a	n/a
3008045	RECOG_TARGET	n/a	LTP153	ltpFR	6	2	0	RAG	1160	1	3	1	n/a	n/a	n/a	n/a	n/a
3008637	RECOG_RESP	n/a	LTP153	ltpFR	6	2	0	RAG	1160	1	n/a	1	n/a	n/a	n/a	n/a	n/a
3009408	RECOG_CONF	n/a	LTP153	ltpFR	6	2	0	RAG	1160	n/a	3	1	n/a	n/a	n/a	n/a	n/a
3011041	RECOG_TARGET	n/a	LTP153	ltpFR	6	2	0	SPY	1360	1	3	1	n/a	n/a	n/a	n/a	n/a
3011625	RECOG_RESP	n/a	LTP153	ltpFR	6	2	0	SPY	1360	1	n/a	1	n/a	n/a	n/a	n/a	n/a
3012373	RECOG_CONF	n/a	LTP153	ltpFR	6	2	0	SPY	1360	n/a	3	1	n/a	n/a	n/a	n/a	n/a
3015729	REC_START	n/a	LTP153	ltpFR	6	3	n/a	n/a	n/a	n/a	n/a	n/a	n/a	n/a	n/a	n/a	n/a
3015768	RECOG_TARGET	n/a	LTP153	ltpFR	6	3	0	PILLOW	1069	1	5	1	n/a	n/a	n/a	n/a	n/a
3016320	RECOG_RESP	n/a	LTP153	ltpFR	6	3	0	PILLOW	1069	1	n/a	1	n/a	n/a	n/a	n/a	n/a
3017028	RECOG_CONF	n/a	LTP153	ltpFR	6	3	0	PILLOW	1069	n/a	5	1	n/a	n/a	n/a	n/a	n/a
3018697	RECOG_TARGET	n/a	LTP153	ltpFR	6	3	1	CORK	380	1	2	0	n/a	n/a	n/a	n/a	n/a
3019278	RECOG_RESP	n/a	LTP153	ltpFR	6	3	1	CORK	380	1	n/a	0	n/a	n/a	n/a	n/a	n/a
3020047	RECOG_CONF	n/a	LTP153	ltpFR	6	3	1	CORK	380	n/a	2	0	n/a	n/a	n/a	n/a	n/a
3021726	RECOG_LURE	n/a	LTP153	ltpFR	6	3	n/a	OREGANO	983	0	1	n/a	n/a	n/a	n/a	n/a	n/a
3022529	RECOG_RESP	n/a	LTP153	ltpFR	6	3	n/a	OREGANO	983	0	n/a	n/a	n/a	n/a	n/a	n/a	n/a
3023292	RECOG_CONF	n/a	LTP153	ltpFR	6	3	n/a	OREGANO	983	n/a	1	n/a	n/a	n/a	n/a	n/a	n/a
3024970	RECOG_TARGET	n/a	LTP153	ltpFR	6	3	0	SUNRISE	1407	1	1	1	n/a	n/a	n/a	n/a	n/a
3025701	RECOG_RESP	n/a	LTP153	ltpFR	6	3	0	SUNRISE	1407	1	n/a	1	n/a	n/a	n/a	n/a	n/a
3026445	RECOG_CONF	n/a	LTP153	ltpFR	6	3	0	SUNRISE	1407	n/a	1	1	n/a	n/a	n/a	n/a	n/a
3027999	RECOG_TARGET	n/a	LTP153	ltpFR	6	3	0	SNORKEL	1336	1	3	0	n/a	n/a	n/a	n/a	n/a
3028806	RECOG_RESP	n/a	LTP153	ltpFR	6	3	0	SNORKEL	1336	1	n/a	0	n/a	n/a	n/a	n/a	n/a
3029642	RECOG_CONF	n/a	LTP153	ltpFR	6	3	0	SNORKEL	1336	n/a	3	0	n/a	n/a	n/a	n/a	n/a
3031260	RECOG_LURE	n/a	LTP153	ltpFR	6	3	n/a	CAN	225	0	1	n/a	n/a	n/a	n/a	n/a	n/a
3032161	RECOG_RESP	n/a	LTP153	ltpFR	6	3	n/a	CAN	225	0	n/a	n/a	n/a	n/a	n/a	n/a	n/a
3033141	RECOG_CONF	n/a	LTP153	ltpFR	6	3	n/a	CAN	225	n/a	1	n/a	n/a	n/a	n/a	n/a	n/a
3034822	RECOG_LURE	n/a	LTP153	ltpFR	6	3	n/a	ASPIRIN	47	0	2	n/a	n/a	n/a	n/a	n/a	n/a
3035774	RECOG_RESP	n/a	LTP153	ltpFR	6	3	n/a	ASPIRIN	47	0	n/a	n/a	n/a	n/a	n/a	n/a	n/a
3036566	RECOG_CONF	n/a	LTP153	ltpFR	6	3	n/a	ASPIRIN	47	n/a	2	n/a	n/a	n/a	n/a	n/a	n/a
3038233	RECOG_TARGET	n/a	LTP153	ltpFR	6	3	1	SCULPTURE	1258	1	2	0	n/a	n/a	n/a	n/a	n/a
3040655	RECOG_RESP	n/a	LTP153	ltpFR	6	3	1	SCULPTURE	1258	1	n/a	0	n/a	n/a	n/a	n/a	n/a
3041557	RECOG_CONF	n/a	LTP153	ltpFR	6	3	1	SCULPTURE	1258	n/a	2	0	n/a	n/a	n/a	n/a	n/a
3043176	RECOG_TARGET	n/a	LTP153	ltpFR	6	3	0	MAPLE	866	1	5	0	n/a	n/a	n/a	n/a	n/a
3043840	RECOG_RESP	n/a	LTP153	ltpFR	6	3	0	MAPLE	866	1	n/a	0	n/a	n/a	n/a	n/a	n/a
3044603	RECOG_CONF	n/a	LTP153	ltpFR	6	3	0	MAPLE	866	n/a	5	0	n/a	n/a	n/a	n/a	n/a
3046155	RECOG_TARGET	n/a	LTP153	ltpFR	6	3	1	STEW	1380	1	4	0	n/a	n/a	n/a	n/a	n/a
3046836	RECOG_RESP	n/a	LTP153	ltpFR	6	3	1	STEW	1380	1	n/a	0	n/a	n/a	n/a	n/a	n/a
3047631	RECOG_CONF	n/a	LTP153	ltpFR	6	3	1	STEW	1380	n/a	4	0	n/a	n/a	n/a	n/a	n/a
3049184	RECOG_LURE	n/a	LTP153	ltpFR	6	3	n/a	PICK	1058	0	2	n/a	n/a	n/a	n/a	n/a	n/a
3050025	RECOG_RESP	n/a	LTP153	ltpFR	6	3	n/a	PICK	1058	0	n/a	n/a	n/a	n/a	n/a	n/a	n/a
3050833	RECOG_CONF	n/a	LTP153	ltpFR	6	3	n/a	PICK	1058	n/a	2	n/a	n/a	n/a	n/a	n/a	n/a
3052496	RECOG_LURE	n/a	LTP153	ltpFR	6	3	n/a	BUFFALO	186	0	1	n/a	n/a	n/a	n/a	n/a	n/a
3053448	RECOG_RESP	n/a	LTP153	ltpFR	6	3	n/a	BUFFALO	186	0	n/a	n/a	n/a	n/a	n/a	n/a	n/a
3054191	RECOG_CONF	n/a	LTP153	ltpFR	6	3	n/a	BUFFALO	186	n/a	1	n/a	n/a	n/a	n/a	n/a	n/a
3055808	RECOG_TARGET	n/a	LTP153	ltpFR	6	3	1	WORM	1623	0	1	1	n/a	n/a	n/a	n/a	n/a
3056530	RECOG_RESP	n/a	LTP153	ltpFR	6	3	1	WORM	1623	0	n/a	1	n/a	n/a	n/a	n/a	n/a
3057277	RECOG_CONF	n/a	LTP153	ltpFR	6	3	1	WORM	1623	n/a	1	1	n/a	n/a	n/a	n/a	n/a
3058853	RECOG_LURE	n/a	LTP153	ltpFR	6	3	n/a	BOARD	143	0	2	n/a	n/a	n/a	n/a	n/a	n/a
3060004	RECOG_RESP	n/a	LTP153	ltpFR	6	3	n/a	BOARD	143	0	n/a	n/a	n/a	n/a	n/a	n/a	n/a
3060728	RECOG_CONF	n/a	LTP153	ltpFR	6	3	n/a	BOARD	143	n/a	2	n/a	n/a	n/a	n/a	n/a	n/a
3062248	RECOG_TARGET	n/a	LTP153	ltpFR	6	3	1	SILK	1307	1	3	0	n/a	n/a	n/a	n/a	n/a
3062866	RECOG_RESP	n/a	LTP153	ltpFR	6	3	1	SILK	1307	1	n/a	0	n/a	n/a	n/a	n/a	n/a
3063655	RECOG_CONF	n/a	LTP153	ltpFR	6	3	1	SILK	1307	n/a	3	0	n/a	n/a	n/a	n/a	n/a
3065226	RECOG_LURE	n/a	LTP153	ltpFR	6	3	n/a	CRIB	407	0	2	n/a	n/a	n/a	n/a	n/a	n/a
3065988	RECOG_RESP	n/a	LTP153	ltpFR	6	3	n/a	CRIB	407	0	n/a	n/a	n/a	n/a	n/a	n/a	n/a
3066724	RECOG_CONF	n/a	LTP153	ltpFR	6	3	n/a	CRIB	407	n/a	2	n/a	n/a	n/a	n/a	n/a	n/a
3068339	RECOG_TARGET	n/a	LTP153	ltpFR	6	3	0	SKIN	1318	1	4	1	n/a	n/a	n/a	n/a	n/a
3069035	RECOG_RESP	n/a	LTP153	ltpFR	6	3	0	SKIN	1318	1	n/a	1	n/a	n/a	n/a	n/a	n/a
3069748	RECOG_CONF	n/a	LTP153	ltpFR	6	3	0	SKIN	1318	n/a	4	1	n/a	n/a	n/a	n/a	n/a
3071451	RECOG_LURE	n/a	LTP153	ltpFR	6	3	n/a	MOTORCYCLE	923	0	2	n/a	n/a	n/a	n/a	n/a	n/a
3072332	RECOG_RESP	n/a	LTP153	ltpFR	6	3	n/a	MOTORCYCLE	923	0	n/a	n/a	n/a	n/a	n/a	n/a	n/a
3073097	RECOG_CONF	n/a	LTP153	ltpFR	6	3	n/a	MOTORCYCLE	923	n/a	2	n/a	n/a	n/a	n/a	n/a	n/a
3074797	RECOG_TARGET	n/a	LTP153	ltpFR	6	3	0	ALLEY	15	1	3	1	n/a	n/a	n/a	n/a	n/a
3075444	RECOG_RESP	n/a	LTP153	ltpFR	6	3	0	ALLEY	15	1	n/a	1	n/a	n/a	n/a	n/a	n/a
3076223	RECOG_CONF	n/a	LTP153	ltpFR	6	3	0	ALLEY	15	n/a	3	1	n/a	n/a	n/a	n/a	n/a
3077941	RECOG_TARGET	n/a	LTP153	ltpFR	6	3	0	BRAKE	166	1	4	1	n/a	n/a	n/a	n/a	n/a
3078646	RECOG_RESP	n/a	LTP153	ltpFR	6	3	0	BRAKE	166	1	n/a	1	n/a	n/a	n/a	n/a	n/a
3079419	RECOG_CONF	n/a	LTP153	ltpFR	6	3	0	BRAKE	166	n/a	4	1	n/a	n/a	n/a	n/a	n/a
3082747	REC_START	n/a	LTP153	ltpFR	6	4	n/a	n/a	n/a	n/a	n/a	n/a	n/a	n/a	n/a	n/a	n/a
3082785	RECOG_LURE	n/a	LTP153	ltpFR	6	4	n/a	PUBLISHER	1137	0	2	n/a	n/a	n/a	n/a	n/a	n/a
3083631	RECOG_RESP	n/a	LTP153	ltpFR	6	4	n/a	PUBLISHER	1137	0	n/a	n/a	n/a	n/a	n/a	n/a	n/a
3084423	RECOG_CONF	n/a	LTP153	ltpFR	6	4	n/a	PUBLISHER	1137	n/a	2	n/a	n/a	n/a	n/a	n/a	n/a
3086095	RECOG_TARGET	n/a	LTP153	ltpFR	6	4	0	OVAL	990	0	1	0	n/a	n/a	n/a	n/a	n/a
3086702	RECOG_RESP	n/a	LTP153	ltpFR	6	4	0	OVAL	990	0	n/a	0	n/a	n/a	n/a	n/a	n/a
3087504	RECOG_CONF	n/a	LTP153	ltpFR	6	4	0	OVAL	990	n/a	1	0	n/a	n/a	n/a	n/a	n/a
3089091	RECOG_LURE	n/a	LTP153	ltpFR	6	4	n/a	VILLAIN	1567	0	2	n/a	n/a	n/a	n/a	n/a	n/a
3089996	RECOG_RESP	n/a	LTP153	ltpFR	6	4	n/a	VILLAIN	1567	0	n/a	n/a	n/a	n/a	n/a	n/a	n/a
3090741	RECOG_CONF	n/a	LTP153	ltpFR	6	4	n/a	VILLAIN	1567	n/a	2	n/a	n/a	n/a	n/a	n/a	n/a
3092386	RECOG_TARGET	n/a	LTP153	ltpFR	6	4	1	TAPIOCA	1434	1	3	0	n/a	n/a	n/a	n/a	n/a
3093253	RECOG_RESP	n/a	LTP153	ltpFR	6	4	1	TAPIOCA	1434	1	n/a	0	n/a	n/a	n/a	n/a	n/a
3093992	RECOG_CONF	n/a	LTP153	ltpFR	6	4	1	TAPIOCA	1434	n/a	3	0	n/a	n/a	n/a	n/a	n/a
3095665	RECOG_TARGET	n/a	LTP153	ltpFR	6	4	1	PENGUIN	1044	1	4	1	n/a	n/a	n/a	n/a	n/a
3096291	RECOG_RESP	n/a	LTP153	ltpFR	6	4	1	PENGUIN	1044	1	n/a	1	n/a	n/a	n/a	n/a	n/a
3096909	RECOG_CONF	n/a	LTP153	ltpFR	6	4	1	PENGUIN	1044	n/a	4	1	n/a	n/a	n/a	n/a	n/a
3098711	RECOG_LURE	n/a	LTP153	ltpFR	6	4	n/a	EDITOR	516	0	2	n/a	n/a	n/a	n/a	n/a	n/a
3099531	RECOG_RESP	n/a	LTP153	ltpFR	6	4	n/a	EDITOR	516	0	n/a	n/a	n/a	n/a	n/a	n/a	n/a
3100252	RECOG_CONF	n/a	LTP153	ltpFR	6	4	n/a	EDITOR	516	n/a	2	n/a	n/a	n/a	n/a	n/a	n/a
3101806	RECOG_TARGET	n/a	LTP153	ltpFR	6	4	1	MINK	897	1	4	0	n/a	n/a	n/a	n/a	n/a
3102572	RECOG_RESP	n/a	LTP153	ltpFR	6	4	1	MINK	897	1	n/a	0	n/a	n/a	n/a	n/a	n/a
3103494	RECOG_CONF	n/a	LTP153	ltpFR	6	4	1	MINK	897	n/a	4	0	n/a	n/a	n/a	n/a	n/a
3105134	RECOG_TARGET	n/a	LTP153	ltpFR	6	4	-1	GREASE	660	0	3	-1	n/a	n/a	n/a	n/a	n/a
3105937	RECOG_RESP	n/a	LTP153	ltpFR	6	4	-1	GREASE	660	0	n/a	-1	n/a	n/a	n/a	n/a	n/a
3106715	RECOG_CONF	n/a	LTP153	ltpFR	6	4	-1	GREASE	660	n/a	3	-1	n/a	n/a	n/a	n/a	n/a
3108379	RECOG_LURE	n/a	LTP153	ltpFR	6	4	n/a	MACHINE	852	0	1	n/a	n/a	n/a	n/a	n/a	n/a
3109313	RECOG_RESP	n/a	LTP153	ltpFR	6	4	n/a	MACHINE	852	0	n/a	n/a	n/a	n/a	n/a	n/a	n/a
3110027	RECOG_CONF	n/a	LTP153	ltpFR	6	4	n/a	MACHINE	852	n/a	1	n/a	n/a	n/a	n/a	n/a	n/a
3111691	RECOG_TARGET	n/a	LTP153	ltpFR	6	4	1	SEAFOOD	1260	1	3	0	n/a	n/a	n/a	n/a	n/a
3112528	RECOG_RESP	n/a	LTP153	ltpFR	6	4	1	SEAFOOD	1260	1	n/a	0	n/a	n/a	n/a	n/a	n/a
3113350	RECOG_CONF	n/a	LTP153	ltpFR	6	4	1	SEAFOOD	1260	n/a	3	0	n/a	n/a	n/a	n/a	n/a
3114852	RECOG_TARGET	n/a	LTP153	ltpFR	6	4	1	DANDRUFF	439	1	4	0	n/a	n/a	n/a	n/a	n/a
3115543	RECOG_RESP	n/a	LTP153	ltpFR	6	4	1	DANDRUFF	439	1	n/a	0	n/a	n/a	n/a	n/a	n/a
3116205	RECOG_CONF	n/a	LTP153	ltpFR	6	4	1	DANDRUFF	439	n/a	4	0	n/a	n/a	n/a	n/a	n/a
3117881	RECOG_TARGET	n/a	LTP153	ltpFR	6	4	0	ORCHID	982	1	2	0	n/a	n/a	n/a	n/a	n/a
3118446	RECOG_RESP	n/a	LTP153	ltpFR	6	4	0	ORCHID	982	1	n/a	0	n/a	n/a	n/a	n/a	n/a
3119311	RECOG_CONF	n/a	LTP153	ltpFR	6	4	0	ORCHID	982	n/a	2	0	n/a	n/a	n/a	n/a	n/a
3120843	RECOG_TARGET	n/a	LTP153	ltpFR	6	4	1	QUARTER	1148	1	3	0	n/a	n/a	n/a	n/a	n/a
3121503	RECOG_RESP	n/a	LTP153	ltpFR	6	4	1	QUARTER	1148	1	n/a	0	n/a	n/a	n/a	n/a	n/a
3122312	RECOG_CONF	n/a	LTP153	ltpFR	6	4	1	QUARTER	1148	n/a	3	0	n/a	n/a	n/a	n/a	n/a
3123906	RECOG_TARGET	n/a	LTP153	ltpFR	6	4	-1	VIOLA	1570	1	2	-1	n/a	n/a	n/a	n/a	n/a
3124580	RECOG_RESP	n/a	LTP153	ltpFR	6	4	-1	VIOLA	1570	1	n/a	-1	n/a	n/a	n/a	n/a	n/a
3125344	RECOG_CONF	n/a	LTP153	ltpFR	6	4	-1	VIOLA	1570	n/a	2	-1	n/a	n/a	n/a	n/a	n/a
3127034	RECOG_LURE	n/a	LTP153	ltpFR	6	4	n/a	KITCHEN	778	0	1	n/a	n/a	n/a	n/a	n/a	n/a
3127826	RECOG_RESP	n/a	LTP153	ltpFR	6	4	n/a	KITCHEN	778	0	n/a	n/a	n/a	n/a	n/a	n/a	n/a
3128593	RECOG_CONF	n/a	LTP153	ltpFR	6	4	n/a	KITCHEN	778	n/a	1	n/a	n/a	n/a	n/a	n/a	n/a
3130130	RECOG_TARGET	n/a	LTP153	ltpFR	6	4	-1	TOURIST	1488	1	5	-1	n/a	n/a	n/a	n/a	n/a
3130772	RECOG_RESP	n/a	LTP153	ltpFR	6	4	-1	TOURIST	1488	1	n/a	-1	n/a	n/a	n/a	n/a	n/a
3131469	RECOG_CONF	n/a	LTP153	ltpFR	6	4	-1	TOURIST	1488	n/a	5	-1	n/a	n/a	n/a	n/a	n/a
3133042	RECOG_TARGET	n/a	LTP153	ltpFR	6	4	1	PERSON	1052	1	3	1	n/a	n/a	n/a	n/a	n/a
3133826	RECOG_RESP	n/a	LTP153	ltpFR	6	4	1	PERSON	1052	1	n/a	1	n/a	n/a	n/a	n/a	n/a
3134579	RECOG_CONF	n/a	LTP153	ltpFR	6	4	1	PERSON	1052	n/a	3	1	n/a	n/a	n/a	n/a	n/a
3136121	RECOG_LURE	n/a	LTP153	ltpFR	6	4	n/a	ESSAY	540	0	2	n/a	n/a	n/a	n/a	n/a	n/a
3136826	RECOG_RESP	n/a	LTP153	ltpFR	6	4	n/a	ESSAY	540	0	n/a	n/a	n/a	n/a	n/a	n/a	n/a
3137547	RECOG_CONF	n/a	LTP153	ltpFR	6	4	n/a	ESSAY	540	n/a	2	n/a	n/a	n/a	n/a	n/a	n/a
3139166	RECOG_TARGET	n/a	LTP153	ltpFR	6	4	0	WATER	1594	1	4	0	n/a	n/a	n/a	n/a	n/a
3139898	RECOG_RESP	n/a	LTP153	ltpFR	6	4	0	WATER	1594	1	n/a	0	n/a	n/a	n/a	n/a	n/a
3140558	RECOG_CONF	n/a	LTP153	ltpFR	6	4	0	WATER	1594	n/a	4	0	n/a	n/a	n/a	n/a	n/a
3142228	RECOG_TARGET	n/a	LTP153	ltpFR	6	4	0	CLOTHES	327	1	3	1	n/a	n/a	n/a	n/a	n/a
3142873	RECOG_RESP	n/a	LTP153	ltpFR	6	4	0	CLOTHES	327	1	n/a	1	n/a	n/a	n/a	n/a	n/a
3143633	RECOG_CONF	n/a	LTP153	ltpFR	6	4	0	CLOTHES	327	n/a	3	1	n/a	n/a	n/a	n/a	n/a
3146894	REC_START	n/a	LTP153	ltpFR	6	5	n/a	n/a	n/a	n/a	n/a	n/a	n/a	n/a	n/a	n/a	n/a
3146921	RECOG_TARGET	n/a	LTP153	ltpFR	6	5	1	SACK	1220	1	5	0	n/a	n/a	n/a	n/a	n/a
3147536	RECOG_RESP	n/a	LTP153	ltpFR	6	5	1	SACK	1220	1	n/a	0	n/a	n/a	n/a	n/a	n/a
3148328	RECOG_CONF	n/a	LTP153	ltpFR	6	5	1	SACK	1220	n/a	5	0	n/a	n/a	n/a	n/a	n/a
3149867	RECOG_TARGET	n/a	LTP153	ltpFR	6	5	-1	BARRACUDA	90	1	4	-1	n/a	n/a	n/a	n/a	n/a
3150496	RECOG_RESP	n/a	LTP153	ltpFR	6	5	-1	BARRACUDA	90	1	n/a	-1	n/a	n/a	n/a	n/a	n/a
3151119	RECOG_CONF	n/a	LTP153	ltpFR	6	5	-1	BARRACUDA	90	n/a	4	-1	n/a	n/a	n/a	n/a	n/a
3152780	RECOG_LURE	n/a	LTP153	ltpFR	6	5	n/a	BEARD	107	1	2	n/a	n/a	n/a	n/a	n/a	n/a
3153432	RECOG_RESP	n/a	LTP153	ltpFR	6	5	n/a	BEARD	107	1	n/a	n/a	n/a	n/a	n/a	n/a	n/a
3154130	RECOG_CONF	n/a	LTP153	ltpFR	6	5	n/a	BEARD	107	n/a	2	n/a	n/a	n/a	n/a	n/a	n/a
3155726	RECOG_TARGET	n/a	LTP153	ltpFR	6	5	-1	UNIVERSITY	1541	1	4	-1	n/a	n/a	n/a	n/a	n/a
3156365	RECOG_RESP	n/a	LTP153	ltpFR	6	5	-1	UNIVERSITY	1541	1	n/a	-1	n/a	n/a	n/a	n/a	n/a
3157018	RECOG_CONF	n/a	LTP153	ltpFR	6	5	-1	UNIVERSITY	1541	n/a	4	-1	n/a	n/a	n/a	n/a	n/a
3158738	RECOG_LURE	n/a	LTP153	ltpFR	6	5	n/a	WEB	1598	0	2	n/a	n/a	n/a	n/a	n/a	n/a
3159515	RECOG_RESP	n/a	LTP153	ltpFR	6	5	n/a	WEB	1598	0	n/a	n/a	n/a	n/a	n/a	n/a	n/a
3160304	RECOG_CONF	n/a	LTP153	ltpFR	6	5	n/a	WEB	1598	n/a	2	n/a	n/a	n/a	n/a	n/a	n/a
3161915	RECOG_TARGET	n/a	LTP153	ltpFR	6	5	1	TANK	1432	1	2	0	n/a	n/a	n/a	n/a	n/a
3162690	RECOG_RESP	n/a	LTP153	ltpFR	6	5	1	TANK	1432	1	n/a	0	n/a	n/a	n/a	n/a	n/a
3163422	RECOG_CONF	n/a	LTP153	ltpFR	6	5	1	TANK	1432	n/a	2	0	n/a	n/a	n/a	n/a	n/a
3165027	RECOG_LURE	n/a	LTP153	ltpFR	6	5	n/a	PIER	1063	0	3	n/a	n/a	n/a	n/a	n/a	n/a
3165909	RECOG_RESP	n/a	LTP153	ltpFR	6	5	n/a	PIER	1063	0	n/a	n/a	n/a	n/a	n/a	n/a	n/a
3166755	RECOG_CONF	n/a	LTP153	ltpFR	6	5	n/a	PIER	1063	n/a	3	n/a	n/a	n/a	n/a	n/a	n/a
3168406	RECOG_LURE	n/a	LTP153	ltpFR	6	5	n/a	CELLO	268	0	2	n/a	n/a	n/a	n/a	n/a	n/a
3169178	RECOG_RESP	n/a	LTP153	ltpFR	6	5	n/a	CELLO	268	0	n/a	n/a	n/a	n/a	n/a	n/a	n/a
3170006	RECOG_CONF	n/a	LTP153	ltpFR	6	5	n/a	CELLO	268	n/a	2	n/a	n/a	n/a	n/a	n/a	n/a
3171602	RECOG_TARGET	n/a	LTP153	ltpFR	6	5	-1	ATTIC	56	1	5	-1	n/a	n/a	n/a	n/a	n/a
3172213	RECOG_RESP	n/a	LTP153	ltpFR	6	5	-1	ATTIC	56	1	n/a	-1	n/a	n/a	n/a	n/a	n/a
3172943	RECOG_CONF	n/a	LTP153	ltpFR	6	5	-1	ATTIC	56	n/a	5	-1	n/a	n/a	n/a	n/a	n/a
3174531	RECOG_LURE	n/a	LTP153	ltpFR	6	5	n/a	CREVICE	405	0	3	n/a	n/a	n/a	n/a	n/a	n/a
3175219	RECOG_RESP	n/a	LTP153	ltpFR	6	5	n/a	CREVICE	405	0	n/a	n/a	n/a	n/a	n/a	n/a	n/a
3176007	RECOG_CONF	n/a	LTP153	ltpFR	6	5	n/a	CREVICE	405	n/a	3	n/a	n/a	n/a	n/a	n/a	n/a
3177493	RECOG_TARGET	n/a	LTP153	ltpFR	6	5	1	SUBURB	1399	1	4	0	n/a	n/a	n/a	n/a	n/a
3178210	RECOG_RESP	n/a	LTP153	ltpFR	6	5	1	SUBURB	1399	1	n/a	0	n/a	n/a	n/a	n/a	n/a
3178972	RECOG_CONF	n/a	LTP153	ltpFR	6	5	1	SUBURB	1399	n/a	4	0	n/a	n/a	n/a	n/a	n/a
3180588	RECOG_TARGET	n/a	LTP153	ltpFR	6	5	1	BEET	115	1	3	0	n/a	n/a	n/a	n/a	n/a
3181238	RECOG_RESP	n/a	LTP153	ltpFR	6	5	1	BEET	115	1	n/a	0	n/a	n/a	n/a	n/a	n/a
3181975	RECOG_CONF	n/a	LTP153	ltpFR	6	5	1	BEET	115	n/a	3	0	n/a	n/a	n/a	n/a	n/a
3183634	RECOG_TARGET	n/a	LTP153	ltpFR	6	5	0	QUILT	1151	1	4	1	n/a	n/a	n/a	n/a	n/a
3184181	RECOG_RESP	n/a	LTP153	ltpFR	6	5	0	QUILT	1151	1	n/a	1	n/a	n/a	n/a	n/a	n/a
3184836	RECOG_CONF	n/a	LTP153	ltpFR	6	5	0	QUILT	1151	n/a	4	1	n/a	n/a	n/a	n/a	n/a
3186446	RECOG_TARGET	n/a	LTP153	ltpFR	6	5	1	TORTOISE	1486	1	5	1	n/a	n/a	n/a	n/a	n/a
3187090	RECOG_RESP	n/a	LTP153	ltpFR	6	5	1	TORTOISE	1486	1	n/a	1	n/a	n/a	n/a	n/a	n/a
3187856	RECOG_CONF	n/a	LTP153	ltpFR	6	5	1	TORTOISE	1486	n/a	5	1	n/a	n/a	n/a	n/a	n/a
3189325	RECOG_TARGET	n/a	LTP153	ltpFR	6	5	1	RAM	1165	0	2	1	n/a	n/a	n/a	n/a	n/a
3190760	RECOG_RESP	n/a	LTP153	ltpFR	6	5	1	RAM	1165	0	n/a	1	n/a	n/a	n/a	n/a	n/a
3191533	RECOG_CONF	n/a	LTP153	ltpFR	6	5	1	RAM	1165	n/a	2	1	n/a	n/a	n/a	n/a	n/a
3193052	RECOG_LURE	n/a	LTP153	ltpFR	6	5	n/a	CATERPILLAR	259	0	1	n/a	n/a	n/a	n/a	n/a	n/a
3193949	RECOG_RESP	n/a	LTP153	ltpFR	6	5	n/a	CATERPILLAR	259	0	n/a	n/a	n/a	n/a	n/a	n/a	n/a
3194687	RECOG_CONF	n/a	LTP153	ltpFR	6	5	n/a	CATERPILLAR	259	n/a	1	n/a	n/a	n/a	n/a	n/a	n/a
3196181	RECOG_TARGET	n/a	LTP153	ltpFR	6	5	0	PAWN	1030	1	4	0	n/a	n/a	n/a	n/a	n/a
3196771	RECOG_RESP	n/a	LTP153	ltpFR	6	5	0	PAWN	1030	1	n/a	0	n/a	n/a	n/a	n/a	n/a
3197470	RECOG_CONF	n/a	LTP153	ltpFR	6	5	0	PAWN	1030	n/a	4	0	n/a	n/a	n/a	n/a	n/a
3199060	RECOG_LURE	n/a	LTP153	ltpFR	6	5	n/a	DEPUTY	450	0	3	n/a	n/a	n/a	n/a	n/a	n/a
3199750	RECOG_RESP	n/a	LTP153	ltpFR	6	5	n/a	DEPUTY	450	0	n/a	n/a	n/a	n/a	n/a	n/a	n/a
3200537	RECOG_CONF	n/a	LTP153	ltpFR	6	5	n/a	DEPUTY	450	n/a	3	n/a	n/a	n/a	n/a	n/a	n/a
3202189	RECOG_LURE	n/a	LTP153	ltpFR	6	5	n/a	CROSS	413	0	2	n/a	n/a	n/a	n/a	n/a	n/a
3202966	RECOG_RESP	n/a	LTP153	ltpFR	6	5	n/a	CROSS	413	0	n/a	n/a	n/a	n/a	n/a	n/a	n/a
3203757	RECOG_CONF	n/a	LTP153	ltpFR	6	5	n/a	CROSS	413	n/a	2	n/a	n/a	n/a	n/a	n/a	n/a
3205301	RECOG_TARGET	n/a	LTP153	ltpFR	6	5	-1	MOTEL	919	1	3	-1	n/a	n/a	n/a	n/a	n/a
3205984	RECOG_RESP	n/a	LTP153	ltpFR	6	5	-1	MOTEL	919	1	n/a	-1	n/a	n/a	n/a	n/a	n/a
3206935	RECOG_CONF	n/a	LTP153	ltpFR	6	5	-1	MOTEL	919	n/a	3	-1	n/a	n/a	n/a	n/a	n/a
3211140	REC_START	n/a	LTP153	ltpFR	6	6	n/a	n/a	n/a	n/a	n/a	n/a	n/a	n/a	n/a	n/a	n/a
3211175	RECOG_LURE	n/a	LTP153	ltpFR	6	6	n/a	GAUZE	626	1	2	n/a	n/a	n/a	n/a	n/a	n/a
3212284	RECOG_RESP	n/a	LTP153	ltpFR	6	6	n/a	GAUZE	626	1	n/a	n/a	n/a	n/a	n/a	n/a	n/a
3213171	RECOG_CONF	n/a	LTP153	ltpFR	6	6	n/a	GAUZE	626	n/a	2	n/a	n/a	n/a	n/a	n/a	n/a
3214836	RECOG_TARGET	n/a	LTP153	ltpFR	6	6	1	ENEMY	534	1	3	1	n/a	n/a	n/a	n/a	n/a
3215604	RECOG_RESP	n/a	LTP153	ltpFR	6	6	1	ENEMY	534	1	n/a	1	n/a	n/a	n/a	n/a	n/a
3216299	RECOG_CONF	n/a	LTP153	ltpFR	6	6	1	ENEMY	534	n/a	3	1	n/a	n/a	n/a	n/a	n/a
3217965	RECOG_LURE	n/a	LTP153	ltpFR	6	6	n/a	DUMP	505	0	1	n/a	n/a	n/a	n/a	n/a	n/a
3218747	RECOG_RESP	n/a	LTP153	ltpFR	6	6	n/a	DUMP	505	0	n/a	n/a	n/a	n/a	n/a	n/a	n/a
3219528	RECOG_CONF	n/a	LTP153	ltpFR	6	6	n/a	DUMP	505	n/a	1	n/a	n/a	n/a	n/a	n/a	n/a
3221094	RECOG_LURE	n/a	LTP153	ltpFR	6	6	n/a	HORNET	718	0	3	n/a	n/a	n/a	n/a	n/a	n/a
3221789	RECOG_RESP	n/a	LTP153	ltpFR	6	6	n/a	HORNET	718	0	n/a	n/a	n/a	n/a	n/a	n/a	n/a
3222676	RECOG_CONF	n/a	LTP153	ltpFR	6	6	n/a	HORNET	718	n/a	3	n/a	n/a	n/a	n/a	n/a	n/a
3224206	RECOG_LURE	n/a	LTP153	ltpFR	6	6	n/a	STATUE	1374	0	2	n/a	n/a	n/a	n/a	n/a	n/a
3225328	RECOG_RESP	n/a	LTP153	ltpFR	6	6	n/a	STATUE	1374	0	n/a	n/a	n/a	n/a	n/a	n/a	n/a
3226060	RECOG_CONF	n/a	LTP153	ltpFR	6	6	n/a	STATUE	1374	n/a	2	n/a	n/a	n/a	n/a	n/a	n/a
3227950	RECOG_TARGET	n/a	LTP153	ltpFR	6	6	1	BILL	126	1	3	0	n/a	n/a	n/a	n/a	n/a
3228700	RECOG_RESP	n/a	LTP153	ltpFR	6	6	1	BILL	126	1	n/a	0	n/a	n/a	n/a	n/a	n/a
3229598	RECOG_CONF	n/a	LTP153	ltpFR	6	6	1	BILL	126	n/a	3	0	n/a	n/a	n/a	n/a	n/a
3231046	RECOG_LURE	n/a	LTP153	ltpFR	6	6	n/a	CAP	236	1	1	n/a	n/a	n/a	n/a	n/a	n/a
3231832	RECOG_RESP	n/a	LTP153	ltpFR	6	6	n/a	CAP	236	1	n/a	n/a	n/a	n/a	n/a	n/a	n/a
3232617	RECOG_CONF	n/a	LTP153	ltpFR	6	6	n/a	CAP	236	n/a	1	n/a	n/a	n/a	n/a	n/a	n/a
3234224	RECOG_TARGET	n/a	LTP153	ltpFR	6	6	1	GENERAL	630	1	4	1	n/a	n/a	n/a	n/a	n/a
3234830	RECOG_RESP	n/a	LTP153	ltpFR	6	6	1	GENERAL	630	1	n/a	1	n/a	n/a	n/a	n/a	n/a
3235649	RECOG_CONF	n/a	LTP153	ltpFR	6	6	1	GENERAL	630	n/a	4	1	n/a	n/a	n/a	n/a	n/a
3237270	RECOG_TARGET	n/a	LTP153	ltpFR	6	6	0	SOFTBALL	1343	1	4	0	n/a	n/a	n/a	n/a	n/a
3237780	RECOG_RESP	n/a	LTP153	ltpFR	6	6	0	SOFTBALL	1343	1	n/a	0	n/a	n/a	n/a	n/a	n/a
3238605	RECOG_CONF	n/a	LTP153	ltpFR	6	6	0	SOFTBALL	1343	n/a	4	0	n/a	n/a	n/a	n/a	n/a
3240182	RECOG_TARGET	n/a	LTP153	ltpFR	6	6	0	SCENERY	1247	1	3	1	n/a	n/a	n/a	n/a	n/a
3240809	RECOG_RESP	n/a	LTP153	ltpFR	6	6	0	SCENERY	1247	1	n/a	1	n/a	n/a	n/a	n/a	n/a
3241554	RECOG_CONF	n/a	LTP153	ltpFR	6	6	0	SCENERY	1247	n/a	3	1	n/a	n/a	n/a	n/a	n/a
3243244	RECOG_TARGET	n/a	LTP153	ltpFR	6	6	0	IGLOO	734	1	3	1	n/a	n/a	n/a	n/a	n/a
3243871	RECOG_RESP	n/a	LTP153	ltpFR	6	6	0	IGLOO	734	1	n/a	1	n/a	n/a	n/a	n/a	n/a
3244629	RECOG_CONF	n/a	LTP153	ltpFR	6	6	0	IGLOO	734	n/a	3	1	n/a	n/a	n/a	n/a	n/a
3246156	RECOG_TARGET	n/a	LTP153	ltpFR	6	6	-1	ISLAND	745	1	4	-1	n/a	n/a	n/a	n/a	n/a
3246896	RECOG_RESP	n/a	LTP153	ltpFR	6	6	-1	ISLAND	745	1	n/a	-1	n/a	n/a	n/a	n/a	n/a
3247654	RECOG_CONF	n/a	LTP153	ltpFR	6	6	-1	ISLAND	745	n/a	4	-1	n/a	n/a	n/a	n/a	n/a
3249285	RECOG_TARGET	n/a	LTP153	ltpFR	6	6	1	HAMBURGER	679	1	4	0	n/a	n/a	n/a	n/a	n/a
3249876	RECOG_RESP	n/a	LTP153	ltpFR	6	6	1	HAMBURGER	679	1	n/a	0	n/a	n/a	n/a	n/a	n/a
3250638	RECOG_CONF	n/a	LTP153	ltpFR	6	6	1	HAMBURGER	679	n/a	4	0	n/a	n/a	n/a	n/a	n/a
3252181	RECOG_LURE	n/a	LTP153	ltpFR	6	6	n/a	KANGAROO	768	0	3	n/a	n/a	n/a	n/a	n/a	n/a
3252917	RECOG_RESP	n/a	LTP153	ltpFR	6	6	n/a	KANGAROO	768	0	n/a	n/a	n/a	n/a	n/a	n/a	n/a
3253668	RECOG_CONF	n/a	LTP153	ltpFR	6	6	n/a	KANGAROO	768	n/a	3	n/a	n/a	n/a	n/a	n/a	n/a
3255276	RECOG_LURE	n/a	LTP153	ltpFR	6	6	n/a	BUTTERFLY	206	0	2	n/a	n/a	n/a	n/a	n/a	n/a
3256088	RECOG_RESP	n/a	LTP153	ltpFR	6	6	n/a	BUTTERFLY	206	0	n/a	n/a	n/a	n/a	n/a	n/a	n/a
3256883	RECOG_CONF	n/a	LTP153	ltpFR	6	6	n/a	BUTTERFLY	206	n/a	2	n/a	n/a	n/a	n/a	n/a	n/a
3258421	RECOG_TARGET	n/a	LTP153	ltpFR	6	6	-1	COMMITTEE	355	0	1	-1	n/a	n/a	n/a	n/a	n/a
3259466	RECOG_RESP	n/a	LTP153	ltpFR	6	6	-1	COMMITTEE	355	0	n/a	-1	n/a	n/a	n/a	n/a	n/a
3260230	RECOG_CONF	n/a	LTP153	ltpFR	6	6	-1	COMMITTEE	355	n/a	1	-1	n/a	n/a	n/a	n/a	n/a
3261850	RECOG_TARGET	n/a	LTP153	ltpFR	6	6	1	ARENA	37	0	1	0	n/a	n/a	n/a	n/a	n/a
3262972	RECOG_RESP	n/a	LTP153	ltpFR	6	6	1	ARENA	37	0	n/a	0	n/a	n/a	n/a	n/a	n/a
3263755	RECOG_CONF	n/a	LTP153	ltpFR	6	6	1	ARENA	37	n/a	1	0	n/a	n/a	n/a	n/a	n/a
3265427	RECOG_TARGET	n/a	LTP153	ltpFR	6	6	1	CHAMBER	277	1	2	0	n/a	n/a	n/a	n/a	n/a
3266710	RECOG_RESP	n/a	LTP153	ltpFR	6	6	1	CHAMBER	277	1	n/a	0	n/a	n/a	n/a	n/a	n/a
3267481	RECOG_CONF	n/a	LTP153	ltpFR	6	6	1	CHAMBER	277	n/a	2	0	n/a	n/a	n/a	n/a	n/a
3269172	RECOG_LURE	n/a	LTP153	ltpFR	6	6	n/a	REPORT	1184	0	2	n/a	n/a	n/a	n/a	n/a	n/a
3269980	RECOG_RESP	n/a	LTP153	ltpFR	6	6	n/a	REPORT	1184	0	n/a	n/a	n/a	n/a	n/a	n/a	n/a
3270777	RECOG_CONF	n/a	LTP153	ltpFR	6	6	n/a	REPORT	1184	n/a	2	n/a	n/a	n/a	n/a	n/a	n/a
3272350	RECOG_TARGET	n/a	LTP153	ltpFR	6	6	1	ELBOW	520	1	1	0	n/a	n/a	n/a	n/a	n/a
3273619	RECOG_RESP	n/a	LTP153	ltpFR	6	6	1	ELBOW	520	1	n/a	0	n/a	n/a	n/a	n/a	n/a
3274400	RECOG_CONF	n/a	LTP153	ltpFR	6	6	1	ELBOW	520	n/a	1	0	n/a	n/a	n/a	n/a	n/a
3278341	REC_START	n/a	LTP153	ltpFR	6	7	n/a	n/a	n/a	n/a	n/a	n/a	n/a	n/a	n/a	n/a	n/a
3278375	RECOG_LURE	n/a	LTP153	ltpFR	6	7	n/a	RABBIT	1152	1	2	n/a	n/a	n/a	n/a	n/a	n/a
3279247	RECOG_RESP	n/a	LTP153	ltpFR	6	7	n/a	RABBIT	1152	1	n/a	n/a	n/a	n/a	n/a	n/a	n/a
3280039	RECOG_CONF	n/a	LTP153	ltpFR	6	7	n/a	RABBIT	1152	n/a	2	n/a	n/a	n/a	n/a	n/a	n/a
3281521	RECOG_LURE	n/a	LTP153	ltpFR	6	7	n/a	NOTE	958	1	1	n/a	n/a	n/a	n/a	n/a	n/a
3282450	RECOG_RESP	n/a	LTP153	ltpFR	6	7	n/a	NOTE	958	1	n/a	n/a	n/a	n/a	n/a	n/a	n/a
3283151	RECOG_CONF	n/a	LTP153	ltpFR	6	7	n/a	NOTE	958	n/a	1	n/a	n/a	n/a	n/a	n/a	n/a
3284683	RECOG_TARGET	n/a	LTP153	ltpFR	6	7	0	ELEPHANT	523	1	4	1	n/a	n/a	n/a	n/a	n/a
3285600	RECOG_RESP	n/a	LTP153	ltpFR	6	7	0	ELEPHANT	523	1	n/a	1	n/a	n/a	n/a	n/a	n/a
3286300	RECOG_CONF	n/a	LTP153	ltpFR	6	7	0	ELEPHANT	523	n/a	4	1	n/a	n/a	n/a	n/a	n/a
3287927	RECOG_LURE	n/a	LTP153	ltpFR	6	7	n/a	LIEUTENANT	818	0	2	n/a	n/a	n/a	n/a	n/a	n/a
3288814	RECOG_RESP	n/a	LTP153	ltpFR	6	7	n/a	LIEUTENANT	818	0	n/a	n/a	n/a	n/a	n/a	n/a	n/a
3289626	RECOG_CONF	n/a	LTP153	ltpFR	6	7	n/a	LIEUTENANT	818	n/a	2	n/a	n/a	n/a	n/a	n/a	n/a
3291322	RECOG_TARGET	n/a	LTP153	ltpFR	6	7	0	POLE	1097	1	3	1	n/a	n/a	n/a	n/a	n/a
3292178	RECOG_RESP	n/a	LTP153	ltpFR	6	7	0	POLE	1097	1	n/a	1	n/a	n/a	n/a	n/a	n/a
3292914	RECOG_CONF	n/a	LTP153	ltpFR	6	7	0	POLE	1097	n/a	3	1	n/a	n/a	n/a	n/a	n/a
3294468	RECOG_LURE	n/a	LTP153	ltpFR	6	7	n/a	WIFE	1609	0	3	n/a	n/a	n/a	n/a	n/a	n/a
3295202	RECOG_RESP	n/a	LTP153	ltpFR	6	7	n/a	WIFE	1609	0	n/a	n/a	n/a	n/a	n/a	n/a	n/a
3296015	RECOG_CONF	n/a	LTP153	ltpFR	6	7	n/a	WIFE	1609	n/a	3	n/a	n/a	n/a	n/a	n/a	n/a
3297647	RECOG_TARGET	n/a	LTP153	ltpFR	6	7	1	BRUSH	182	1	2	0	n/a	n/a	n/a	n/a	n/a
3298288	RECOG_RESP	n/a	LTP153	ltpFR	6	7	1	BRUSH	182	1	n/a	0	n/a	n/a	n/a	n/a	n/a
3299062	RECOG_CONF	n/a	LTP153	ltpFR	6	7	1	BRUSH	182	n/a	2	0	n/a	n/a	n/a	n/a	n/a
3300693	RECOG_TARGET	n/a	LTP153	ltpFR	6	7	-1	YARD	1630	1	3	-1	n/a	n/a	n/a	n/a	n/a
3301301	RECOG_RESP	n/a	LTP153	ltpFR	6	7	-1	YARD	1630	1	n/a	-1	n/a	n/a	n/a	n/a	n/a
3302116	RECOG_CONF	n/a	LTP153	ltpFR	6	7	-1	YARD	1630	n/a	3	-1	n/a	n/a	n/a	n/a	n/a
3303572	RECOG_TARGET	n/a	LTP153	ltpFR	6	7	1	QUAIL	1147	1	4	1	n/a	n/a	n/a	n/a	n/a
3304322	RECOG_RESP	n/a	LTP153	ltpFR	6	7	1	QUAIL	1147	1	n/a	1	n/a	n/a	n/a	n/a	n/a
3304991	RECOG_CONF	n/a	LTP153	ltpFR	6	7	1	QUAIL	1147	n/a	4	1	n/a	n/a	n/a	n/a	n/a
3306600	RECOG_TARGET	n/a	LTP153	ltpFR	6	7	0	RESTAURANT	1187	1	4	1	n/a	n/a	n/a	n/a	n/a
3307205	RECOG_RESP	n/a	LTP153	ltpFR	6	7	0	RESTAURANT	1187	1	n/a	1	n/a	n/a	n/a	n/a	n/a
3307959	RECOG_CONF	n/a	LTP153	ltpFR	6	7	0	RESTAURANT	1187	n/a	4	1	n/a	n/a	n/a	n/a	n/a
3309662	RECOG_TARGET	n/a	LTP153	ltpFR	6	7	-1	TAR	1435	1	2	-1	n/a	n/a	n/a	n/a	n/a
3310314	RECOG_RESP	n/a	LTP153	ltpFR	6	7	-1	TAR	1435	1	n/a	-1	n/a	n/a	n/a	n/a	n/a
3311094	RECOG_CONF	n/a	LTP153	ltpFR	6	7	-1	TAR	1435	n/a	2	-1	n/a	n/a	n/a	n/a	n/a
3312691	RECOG_TARGET	n/a	LTP153	ltpFR	6	7	1	CRUMB	416	1	2	0	n/a	n/a	n/a	n/a	n/a
3313505	RECOG_RESP	n/a	LTP153	ltpFR	6	7	1	CRUMB	416	1	n/a	0	n/a	n/a	n/a	n/a	n/a
3314353	RECOG_CONF	n/a	LTP153	ltpFR	6	7	1	CRUMB	416	n/a	2	0	n/a	n/a	n/a	n/a	n/a
3315919	RECOG_LURE	n/a	LTP153	ltpFR	6	7	n/a	BANDAGE	79	1	1	n/a	n/a	n/a	n/a	n/a	n/a
3316760	RECOG_RESP	n/a	LTP153	ltpFR	6	7	n/a	BANDAGE	79	1	n/a	n/a	n/a	n/a	n/a	n/a	n/a
3317546	RECOG_CONF	n/a	LTP153	ltpFR	6	7	n/a	BANDAGE	79	n/a	1	n/a	n/a	n/a	n/a	n/a	n/a
3319231	RECOG_LURE	n/a	LTP153	ltpFR	6	7	n/a	COUSIN	392	0	1	n/a	n/a	n/a	n/a	n/a	n/a
3320085	RECOG_RESP	n/a	LTP153	ltpFR	6	7	n/a	COUSIN	392	0	n/a	n/a	n/a	n/a	n/a	n/a	n/a
3320882	RECOG_CONF	n/a	LTP153	ltpFR	6	7	n/a	COUSIN	392	n/a	1	n/a	n/a	n/a	n/a	n/a	n/a
3322527	RECOG_TARGET	n/a	LTP153	ltpFR	6	7	0	PORK	1108	1	2	0	n/a	n/a	n/a	n/a	n/a
3323247	RECOG_RESP	n/a	LTP153	ltpFR	6	7	0	PORK	1108	1	n/a	0	n/a	n/a	n/a	n/a	n/a
3324014	RECOG_CONF	n/a	LTP153	ltpFR	6	7	0	PORK	1108	n/a	2	0	n/a	n/a	n/a	n/a	n/a
3325639	RECOG_LURE	n/a	LTP153	ltpFR	6	7	n/a	COUCH	386	0	1	n/a	n/a	n/a	n/a	n/a	n/a
3326496	RECOG_RESP	n/a	LTP153	ltpFR	6	7	n/a	COUCH	386	0	n/a	n/a	n/a	n/a	n/a	n/a	n/a
3327283	RECOG_CONF	n/a	LTP153	ltpFR	6	7	n/a	COUCH	386	n/a	1	n/a	n/a	n/a	n/a	n/a	n/a
3328833	RECOG_TARGET	n/a	LTP153	ltpFR	6	7	-1	GLUE	643	1	1	-1	n/a	n/a	n/a	n/a	n/a
3329646	RECOG_RESP	n/a	LTP153	ltpFR	6	7	-1	GLUE	643	1	n/a	-1	n/a	n/a	n/a	n/a	n/a
3330477	RECOG_CONF	n/a	LTP153	ltpFR	6	7	-1	GLUE	643	n/a	1	-1	n/a	n/a	n/a	n/a	n/a
3331962	RECOG_TARGET	n/a	LTP153	ltpFR	6	7	-1	CHAUFFEUR	283	1	3	-1	n/a	n/a	n/a	n/a	n/a
3332748	RECOG_RESP	n/a	LTP153	ltpFR	6	7	-1	CHAUFFEUR	283	1	n/a	-1	n/a	n/a	n/a	n/a	n/a
3333555	RECOG_CONF	n/a	LTP153	ltpFR	6	7	-1	CHAUFFEUR	283	n/a	3	-1	n/a	n/a	n/a	n/a	n/a
3335140	RECOG_TARGET	n/a	LTP153	ltpFR	6	7	1	PACKAGE	997	1	4	0	n/a	n/a	n/a	n/a	n/a
3335846	RECOG_RESP	n/a	LTP153	ltpFR	6	7	1	PACKAGE	997	1	n/a	0	n/a	n/a	n/a	n/a	n/a
3336737	RECOG_CONF	n/a	LTP153	ltpFR	6	7	1	PACKAGE	997	n/a	4	0	n/a	n/a	n/a	n/a	n/a
3338419	RECOG_TARGET	n/a	LTP153	ltpFR	6	7	0	POLITICIAN	1099	1	2	1	n/a	n/a	n/a	n/a	n/a
3339198	RECOG_RESP	n/a	LTP153	ltpFR	6	7	0	POLITICIAN	1099	1	n/a	1	n/a	n/a	n/a	n/a	n/a
3340046	RECOG_CONF	n/a	LTP153	ltpFR	6	7	0	POLITICIAN	1099	n/a	2	1	n/a	n/a	n/a	n/a	n/a
3347462	REC_START	n/a	LTP153	ltpFR	6	8	n/a	n/a	n/a	n/a	n/a	n/a	n/a	n/a	n/a	n/a	n/a
3347489	RECOG_TARGET	n/a	LTP153	ltpFR	6	8	-1	TOASTER	1472	1	1	-1	n/a	n/a	n/a	n/a	n/a
3348316	RECOG_RESP	n/a	LTP153	ltpFR	6	8	-1	TOASTER	1472	1	n/a	-1	n/a	n/a	n/a	n/a	n/a
3349161	RECOG_CONF	n/a	LTP153	ltpFR	6	8	-1	TOASTER	1472	n/a	1	-1	n/a	n/a	n/a	n/a	n/a
3350751	RECOG_TARGET	n/a	LTP153	ltpFR	6	8	1	TUTU	1524	1	5	0	n/a	n/a	n/a	n/a	n/a
3351437	RECOG_RESP	n/a	LTP153	ltpFR	6	8	1	TUTU	1524	1	n/a	0	n/a	n/a	n/a	n/a	n/a
3352129	RECOG_CONF	n/a	LTP153	ltpFR	6	8	1	TUTU	1524	n/a	5	0	n/a	n/a	n/a	n/a	n/a
3353862	RECOG_TARGET	n/a	LTP153	ltpFR	6	8	-1	ASSISTANT	48	1	4	-1	n/a	n/a	n/a	n/a	n/a
3354522	RECOG_RESP	n/a	LTP153	ltpFR	6	8	-1	ASSISTANT	48	1	n/a	-1	n/a	n/a	n/a	n/a	n/a
3355233	RECOG_CONF	n/a	LTP153	ltpFR	6	8	-1	ASSISTANT	48	n/a	4	-1	n/a	n/a	n/a	n/a	n/a
3356991	RECOG_LURE	n/a	LTP153	ltpFR	6	8	n/a	UNCLE	1536	1	1	n/a	n/a	n/a	n/a	n/a	n/a
3357843	RECOG_RESP	n/a	LTP153	ltpFR	6	8	n/a	UNCLE	1536	1	n/a	n/a	n/a	n/a	n/a	n/a	n/a
3358544	RECOG_CONF	n/a	LTP153	ltpFR	6	8	n/a	UNCLE	1536	n/a	1	n/a	n/a	n/a	n/a	n/a	n/a
3360153	RECOG_LURE	n/a	LTP153	ltpFR	6	8	n/a	HEART	697	0	2	n/a	n/a	n/a	n/a	n/a	n/a
3361631	RECOG_RESP	n/a	LTP153	ltpFR	6	8	n/a	HEART	697	0	n/a	n/a	n/a	n/a	n/a	n/a	n/a
3362809	RECOG_CONF	n/a	LTP153	ltpFR	6	8	n/a	HEART	697	n/a	2	n/a	n/a	n/a	n/a	n/a	n/a
3364396	RECOG_TARGET	n/a	LTP153	ltpFR	6	8	1	VALVE	1546	1	2	0	n/a	n/a	n/a	n/a	n/a
3365445	RECOG_RESP	n/a	LTP153	ltpFR	6	8	1	VALVE	1546	1	n/a	0	n/a	n/a	n/a	n/a	n/a
3366256	RECOG_CONF	n/a	LTP153	ltpFR	6	8	1	VALVE	1546	n/a	2	0	n/a	n/a	n/a	n/a	n/a
3367742	RECOG_TARGET	n/a	LTP153	ltpFR	6	8	1	BANANA	77	1	4	0	n/a	n/a	n/a	n/a	n/a
3368300	RECOG_RESP	n/a	LTP153	ltpFR	6	8	1	BANANA	77	1	n/a	0	n/a	n/a	n/a	n/a	n/a
3368989	RECOG_CONF	n/a	LTP153	ltpFR	6	8	1	BANANA	77	n/a	4	0	n/a	n/a	n/a	n/a	n/a
3370655	RECOG_TARGET	n/a	LTP153	ltpFR	6	8	-1	SENATE	1267	1	3	-1	n/a	n/a	n/a	n/a	n/a
3371261	RECOG_RESP	n/a	LTP153	ltpFR	6	8	-1	SENATE	1267	1	n/a	-1	n/a	n/a	n/a	n/a	n/a
3372014	RECOG_CONF	n/a	LTP153	ltpFR	6	8	-1	SENATE	1267	n/a	3	-1	n/a	n/a	n/a	n/a	n/a
3373600	RECOG_LURE	n/a	LTP153	ltpFR	6	8	n/a	HELICOPTER	701	0	2	n/a	n/a	n/a	n/a	n/a	n/a
3374450	RECOG_RESP	n/a	LTP153	ltpFR	6	8	n/a	HELICOPTER	701	0	n/a	n/a	n/a	n/a	n/a	n/a	n/a
3375232	RECOG_CONF	n/a	LTP153	ltpFR	6	8	n/a	HELICOPTER	701	n/a	2	n/a	n/a	n/a	n/a	n/a	n/a
3376828	RECOG_TARGET	n/a	LTP153	ltpFR	6	8	1	NEUTRON	947	1	3	0	n/a	n/a	n/a	n/a	n/a
3377587	RECOG_RESP	n/a	LTP153	ltpFR	6	8	1	NEUTRON	947	1	n/a	0	n/a	n/a	n/a	n/a	n/a
3378556	RECOG_CONF	n/a	LTP153	ltpFR	6	8	1	NEUTRON	947	n/a	3	0	n/a	n/a	n/a	n/a	n/a
3380156	RECOG_LURE	n/a	LTP153	ltpFR	6	8	n/a	LAWYER	806	0	2	n/a	n/a	n/a	n/a	n/a	n/a
3381024	RECOG_RESP	n/a	LTP153	ltpFR	6	8	n/a	LAWYER	806	0	n/a	n/a	n/a	n/a	n/a	n/a	n/a
3381871	RECOG_CONF	n/a	LTP153	ltpFR	6	8	n/a	LAWYER	806	n/a	2	n/a	n/a	n/a	n/a	n/a	n/a
3383585	RECOG_TARGET	n/a	LTP153	ltpFR	6	8	0	WORLD	1622	1	3	1	n/a	n/a	n/a	n/a	n/a
3384576	RECOG_RESP	n/a	LTP153	ltpFR	6	8	0	WORLD	1622	1	n/a	1	n/a	n/a	n/a	n/a	n/a
3385367	RECOG_CONF	n/a	LTP153	ltpFR	6	8	0	WORLD	1622	n/a	3	1	n/a	n/a	n/a	n/a	n/a
3387196	RECOG_TARGET	n/a	LTP153	ltpFR	6	8	1	ESCALATOR	539	1	3	0	n/a	n/a	n/a	n/a	n/a
3387939	RECOG_RESP	n/a	LTP153	ltpFR	6	8	1	ESCALATOR	539	1	n/a	0	n/a	n/a	n/a	n/a	n/a
3388823	RECOG_CONF	n/a	LTP153	ltpFR	6	8	1	ESCALATOR	539	n/a	3	0	n/a	n/a	n/a	n/a	n/a
3390341	RECOG_LURE	n/a	LTP153	ltpFR	6	8	n/a	SPINACH	1352	0	3	n/a	n/a	n/a	n/a	n/a	n/a
3391049	RECOG_RESP	n/a	LTP153	ltpFR	6	8	n/a	SPINACH	1352	0	n/a	n/a	n/a	n/a	n/a	n/a	n/a
3391755	RECOG_CONF	n/a	LTP153	ltpFR	6	8	n/a	SPINACH	1352	n/a	3	n/a	n/a	n/a	n/a	n/a	n/a
3393487	RECOG_LURE	n/a	LTP153	ltpFR	6	8	n/a	TOOTHBRUSH	1482	1	1	n/a	n/a	n/a	n/a	n/a	n/a
3394373	RECOG_RESP	n/a	LTP153	ltpFR	6	8	n/a	TOOTHBRUSH	1482	1	n/a	n/a	n/a	n/a	n/a	n/a	n/a
3395211	RECOG_CONF	n/a	LTP153	ltpFR	6	8	n/a	TOOTHBRUSH	1482	n/a	1	n/a	n/a	n/a	n/a	n/a	n/a
3396815	RECOG_TARGET	n/a	LTP153	ltpFR	6	8	-1	BAY	102	0	2	-1	n/a	n/a	n/a	n/a	n/a
3397702	RECOG_RESP	n/a	LTP153	ltpFR	6	8	-1	BAY	102	0	n/a	-1	n/a	n/a	n/a	n/a	n/a
3398512	RECOG_CONF	n/a	LTP153	ltpFR	6	8	-1	BAY	102	n/a	2	-1	n/a	n/a	n/a	n/a	n/a
3400193	RECOG_LURE	n/a	LTP153	ltpFR	6	8	n/a	SWAMP	1416	0	1	n/a	n/a	n/a	n/a	n/a	n/a
3401177	RECOG_RESP	n/a	LTP153	ltpFR	6	8	n/a	SWAMP	1416	0	n/a	n/a	n/a	n/a	n/a	n/a	n/a
3401979	RECOG_CONF	n/a	LTP153	ltpFR	6	8	n/a	SWAMP	1416	n/a	1	n/a	n/a	n/a	n/a	n/a	n/a
3403522	RECOG_TARGET	n/a	LTP153	ltpFR	6	8	0	COMPUTER	359	0	1	1	n/a	n/a	n/a	n/a	n/a
3404794	RECOG_RESP	n/a	LTP153	ltpFR	6	8	0	COMPUTER	359	0	n/a	1	n/a	n/a	n/a	n/a	n/a
3405564	RECOG_CONF	n/a	LTP153	ltpFR	6	8	0	COMPUTER	359	n/a	1	1	n/a	n/a	n/a	n/a	n/a
3407183	RECOG_TARGET	n/a	LTP153	ltpFR	6	8	0	BEDROOM	111	1	3	1	n/a	n/a	n/a	n/a	n/a
3407850	RECOG_RESP	n/a	LTP153	ltpFR	6	8	0	BEDROOM	111	1	n/a	1	n/a	n/a	n/a	n/a	n/a
3408645	RECOG_CONF	n/a	LTP153	ltpFR	6	8	0	BEDROOM	111	n/a	3	1	n/a	n/a	n/a	n/a	n/a
3410178	RECOG_LURE	n/a	LTP153	ltpFR	6	8	n/a	CONTRACT	368	0	2	n/a	n/a	n/a	n/a	n/a	n/a
3411133	RECOG_RESP	n/a	LTP153	ltpFR	6	8	n/a	CONTRACT	368	0	n/a	n/a	n/a	n/a	n/a	n/a	n/a
3411943	RECOG_CONF	n/a	LTP153	ltpFR	6	8	n/a	CONTRACT	368	n/a	2	n/a	n/a	n/a	n/a	n/a	n/a
3416096	REC_START	n/a	LTP153	ltpFR	6	9	n/a	n/a	n/a	n/a	n/a	n/a	n/a	n/a	n/a	n/a	n/a
3416136	RECOG_TARGET	n/a	LTP153	ltpFR	6	9	1	PORCH	1106	1	4	0	n/a	n/a	n/a	n/a	n/a
3416762	RECOG_RESP	n/a	LTP153	ltpFR	6	9	1	PORCH	1106	1	n/a	0	n/a	n/a	n/a	n/a	n/a
3417542	RECOG_CONF	n/a	LTP153	ltpFR	6	9	1	PORCH	1106	n/a	4	0	n/a	n/a	n/a	n/a	n/a
3418998	RECOG_TARGET	n/a	LTP153	ltpFR	6	9	0	SIREN	1310	1	4	0	n/a	n/a	n/a	n/a	n/a
3419684	RECOG_RESP	n/a	LTP153	ltpFR	6	9	0	SIREN	1310	1	n/a	0	n/a	n/a	n/a	n/a	n/a
3420445	RECOG_CONF	n/a	LTP153	ltpFR	6	9	0	SIREN	1310	n/a	4	0	n/a	n/a	n/a	n/a	n/a
3422210	RECOG_TARGET	n/a	LTP153	ltpFR	6	9	-1	WHALE	1601	0	2	-1	n/a	n/a	n/a	n/a	n/a
3422996	RECOG_RESP	n/a	LTP153	ltpFR	6	9	-1	WHALE	1601	0	n/a	-1	n/a	n/a	n/a	n/a	n/a
3423787	RECOG_CONF	n/a	LTP153	ltpFR	6	9	-1	WHALE	1601	n/a	2	-1	n/a	n/a	n/a	n/a	n/a
3425490	RECOG_TARGET	n/a	LTP153	ltpFR	6	9	1	CURTAIN	427	0	1	0	n/a	n/a	n/a	n/a	n/a
3426461	RECOG_RESP	n/a	LTP153	ltpFR	6	9	1	CURTAIN	427	0	n/a	0	n/a	n/a	n/a	n/a	n/a
3427240	RECOG_CONF	n/a	LTP153	ltpFR	6	9	1	CURTAIN	427	n/a	1	0	n/a	n/a	n/a	n/a	n/a
3428917	RECOG_TARGET	n/a	LTP153	ltpFR	6	9	0	POOL	1103	1	3	1	n/a	n/a	n/a	n/a	n/a
3429551	RECOG_RESP	n/a	LTP153	ltpFR	6	9	0	POOL	1103	1	n/a	1	n/a	n/a	n/a	n/a	n/a
3430358	RECOG_CONF	n/a	LTP153	ltpFR	6	9	0	POOL	1103	n/a	3	1	n/a	n/a	n/a	n/a	n/a
3431829	RECOG_TARGET	n/a	LTP153	ltpFR	6	9	-1	SHRIMP	1297	0	2	-1	n/a	n/a	n/a	n/a	n/a
3432508	RECOG_RESP	n/a	LTP153	ltpFR	6	9	-1	SHRIMP	1297	0	n/a	-1	n/a	n/a	n/a	n/a	n/a
3433272	RECOG_CONF	n/a	LTP153	ltpFR	6	9	-1	SHRIMP	1297	n/a	2	-1	n/a	n/a	n/a	n/a	n/a
3434858	RECOG_TARGET	n/a	LTP153	ltpFR	6	9	1	BOSS	152	0	1	1	n/a	n/a	n/a	n/a	n/a
3435930	RECOG_RESP	n/a	LTP153	ltpFR	6	9	1	BOSS	152	0	n/a	1	n/a	n/a	n/a	n/a	n/a
3436663	RECOG_CONF	n/a	LTP153	ltpFR	6	9	1	BOSS	152	n/a	1	1	n/a	n/a	n/a	n/a	n/a
3438186	RECOG_LURE	n/a	LTP153	ltpFR	6	9	n/a	PIN	1072	0	2	n/a	n/a	n/a	n/a	n/a	n/a
3439028	RECOG_RESP	n/a	LTP153	ltpFR	6	9	n/a	PIN	1072	0	n/a	n/a	n/a	n/a	n/a	n/a	n/a
3439821	RECOG_CONF	n/a	LTP153	ltpFR	6	9	n/a	PIN	1072	n/a	2	n/a	n/a	n/a	n/a	n/a	n/a
3441415	RECOG_LURE	n/a	LTP153	ltpFR	6	9	n/a	RUST	1219	0	2	n/a	n/a	n/a	n/a	n/a	n/a
3442140	RECOG_RESP	n/a	LTP153	ltpFR	6	9	n/a	RUST	1219	0	n/a	n/a	n/a	n/a	n/a	n/a	n/a
3442897	RECOG_CONF	n/a	LTP153	ltpFR	6	9	n/a	RUST	1219	n/a	2	n/a	n/a	n/a	n/a	n/a	n/a
3444410	RECOG_TARGET	n/a	LTP153	ltpFR	6	9	0	DOLLAR	482	1	4	0	n/a	n/a	n/a	n/a	n/a
3445009	RECOG_RESP	n/a	LTP153	ltpFR	6	9	0	DOLLAR	482	1	n/a	0	n/a	n/a	n/a	n/a	n/a
3445768	RECOG_CONF	n/a	LTP153	ltpFR	6	9	0	DOLLAR	482	n/a	4	0	n/a	n/a	n/a	n/a	n/a
3447289	RECOG_TARGET	n/a	LTP153	ltpFR	6	9	1	LUNCH	849	1	2	0	n/a	n/a	n/a	n/a	n/a
3447951	RECOG_RESP	n/a	LTP153	ltpFR	6	9	1	LUNCH	849	1	n/a	0	n/a	n/a	n/a	n/a	n/a
3448691	RECOG_CONF	n/a	LTP153	ltpFR	6	9	1	LUNCH	849	n/a	2	0	n/a	n/a	n/a	n/a	n/a
3450235	RECOG_TARGET	n/a	LTP153	ltpFR	6	9	0	LAKE	796	1	5	1	n/a	n/a	n/a	n/a	n/a
3450836	RECOG_RESP	n/a	LTP153	ltpFR	6	9	0	LAKE	796	1	n/a	1	n/a	n/a	n/a	n/a	n/a
3451599	RECOG_CONF	n/a	LTP153	ltpFR	6	9	0	LAKE	796	n/a	5	1	n/a	n/a	n/a	n/a	n/a
3453097	RECOG_LURE	n/a	LTP153	ltpFR	6	9	n/a	SEAGULL	1261	0	2	n/a	n/a	n/a	n/a	n/a	n/a
3453920	RECOG_RESP	n/a	LTP153	ltpFR	6	9	n/a	SEAGULL	1261	0	n/a	n/a	n/a	n/a	n/a	n/a	n/a
3454728	RECOG_CONF	n/a	LTP153	ltpFR	6	9	n/a	SEAGULL	1261	n/a	2	n/a	n/a	n/a	n/a	n/a	n/a
3456293	RECOG_TARGET	n/a	LTP153	ltpFR	6	9	0	WHEEL	1603	1	3	1	n/a	n/a	n/a	n/a	n/a
3457083	RECOG_RESP	n/a	LTP153	ltpFR	6	9	0	WHEEL	1603	1	n/a	1	n/a	n/a	n/a	n/a	n/a
3457884	RECOG_CONF	n/a	LTP153	ltpFR	6	9	0	WHEEL	1603	n/a	3	1	n/a	n/a	n/a	n/a	n/a
3459438	RECOG_TARGET	n/a	LTP153	ltpFR	6	9	-1	BULL	193	1	2	-1	n/a	n/a	n/a	n/a	n/a
3460192	RECOG_RESP	n/a	LTP153	ltpFR	6	9	-1	BULL	193	1	n/a	-1	n/a	n/a	n/a	n/a	n/a
3460954	RECOG_CONF	n/a	LTP153	ltpFR	6	9	-1	BULL	193	n/a	2	-1	n/a	n/a	n/a	n/a	n/a
3462433	RECOG_TARGET	n/a	LTP153	ltpFR	6	9	1	HAIL	676	0	2	0	n/a	n/a	n/a	n/a	n/a
3463298	RECOG_RESP	n/a	LTP153	ltpFR	6	9	1	HAIL	676	0	n/a	0	n/a	n/a	n/a	n/a	n/a
3464119	RECOG_CONF	n/a	LTP153	ltpFR	6	9	1	HAIL	676	n/a	2	0	n/a	n/a	n/a	n/a	n/a
3465713	RECOG_LURE	n/a	LTP153	ltpFR	6	9	n/a	ICEBERG	731	0	3	n/a	n/a	n/a	n/a	n/a	n/a
3467070	RECOG_RESP	n/a	LTP153	ltpFR	6	9	n/a	ICEBERG	731	0	n/a	n/a	n/a	n/a	n/a	n/a	n/a
3468018	RECOG_CONF	n/a	LTP153	ltpFR	6	9	n/a	ICEBERG	731	n/a	3	n/a	n/a	n/a	n/a	n/a	n/a
3469474	RECOG_TARGET	n/a	LTP153	ltpFR	6	9	1	WOMAN	1620	1	2	1	n/a	n/a	n/a	n/a	n/a
3470300	RECOG_RESP	n/a	LTP153	ltpFR	6	9	1	WOMAN	1620	1	n/a	1	n/a	n/a	n/a	n/a	n/a
3471072	RECOG_CONF	n/a	LTP153	ltpFR	6	9	1	WOMAN	1620	n/a	2	1	n/a	n/a	n/a	n/a	n/a
3472586	RECOG_LURE	n/a	LTP153	ltpFR	6	9	n/a	BATHTUB	100	1	3	n/a	n/a	n/a	n/a	n/a	n/a
3473312	RECOG_RESP	n/a	LTP153	ltpFR	6	9	n/a	BATHTUB	100	1	n/a	n/a	n/a	n/a	n/a	n/a	n/a
3474121	RECOG_CONF	n/a	LTP153	ltpFR	6	9	n/a	BATHTUB	100	n/a	3	n/a	n/a	n/a	n/a	n/a	n/a
3475715	RECOG_TARGET	n/a	LTP153	ltpFR	6	9	-1	EYE	545	1	3	-1	n/a	n/a	n/a	n/a	n/a
3477809	RECOG_RESP	n/a	LTP153	ltpFR	6	9	-1	EYE	545	1	n/a	-1	n/a	n/a	n/a	n/a	n/a
3478690	RECOG_CONF	n/a	LTP153	ltpFR	6	9	-1	EYE	545	n/a	3	-1	n/a	n/a	n/a	n/a	n/a
3490888	REC_START	n/a	LTP153	ltpFR	6	10	n/a	n/a	n/a	n/a	n/a	n/a	n/a	n/a	n/a	n/a	n/a
3490924	RECOG_TARGET	n/a	LTP153	ltpFR	6	10	0	SKILLET	1317	1	4	1	n/a	n/a	n/a	n/a	n/a
3491829	RECOG_RESP	n/a	LTP153	ltpFR	6	10	0	SKILLET	1317	1	n/a	1	n/a	n/a	n/a	n/a	n/a
3492601	RECOG_CONF	n/a	LTP153	ltpFR	6	10	0	SKILLET	1317	n/a	4	1	n/a	n/a	n/a	n/a	n/a
3494219	RECOG_TARGET	n/a	LTP153	ltpFR	6	10	-1	BAG	69	0	2	-1	n/a	n/a	n/a	n/a	n/a
3495623	RECOG_RESP	n/a	LTP153	ltpFR	6	10	-1	BAG	69	0	n/a	-1	n/a	n/a	n/a	n/a	n/a
3496430	RECOG_CONF	n/a	LTP153	ltpFR	6	10	-1	BAG	69	n/a	2	-1	n/a	n/a	n/a	n/a	n/a
3497930	RECOG_TARGET	n/a	LTP153	ltpFR	6	10	1	BIRD	129	1	4	1	n/a	n/a	n/a	n/a	n/a
3499495	RECOG_RESP	n/a	LTP153	ltpFR	6	10	1	BIRD	129	1	n/a	1	n/a	n/a	n/a	n/a	n/a
3500268	RECOG_CONF	n/a	LTP153	ltpFR	6	10	1	BIRD	129	n/a	4	1	n/a	n/a	n/a	n/a	n/a
3501941	RECOG_LURE	n/a	LTP153	ltpFR	6	10	n/a	KING	777	0	2	n/a	n/a	n/a	n/a	n/a	n/a
3502781	RECOG_RESP	n/a	LTP153	ltpFR	6	10	n/a	KING	777	0	n/a	n/a	n/a	n/a	n/a	n/a	n/a
3503748	RECOG_CONF	n/a	LTP153	ltpFR	6	10	n/a	KING	777	n/a	2	n/a	n/a	n/a	n/a	n/a	n/a
3505470	RECOG_LURE	n/a	LTP153	ltpFR	6	10	n/a	DRILL	497	0	2	n/a	n/a	n/a	n/a	n/a	n/a
3506302	RECOG_RESP	n/a	LTP153	ltpFR	6	10	n/a	DRILL	497	0	n/a	n/a	n/a	n/a	n/a	n/a	n/a
3507114	RECOG_CONF	n/a	LTP153	ltpFR	6	10	n/a	DRILL	497	n/a	2	n/a	n/a	n/a	n/a	n/a	n/a
3508732	RECOG_LURE	n/a	LTP153	ltpFR	6	10	n/a	OLIVE	975	0	3	n/a	n/a	n/a	n/a	n/a	n/a
3509464	RECOG_RESP	n/a	LTP153	ltpFR	6	10	n/a	OLIVE	975	0	n/a	n/a	n/a	n/a	n/a	n/a	n/a
3510329	RECOG_CONF	n/a	LTP153	ltpFR	6	10	n/a	OLIVE	975	n/a	3	n/a	n/a	n/a	n/a	n/a	n/a
3512076	RECOG_LURE	n/a	LTP153	ltpFR	6	10	n/a	BRIDE	173	0	4	n/a	n/a	n/a	n/a	n/a	n/a
3513799	RECOG_RESP	n/a	LTP153	ltpFR	6	10	n/a	BRIDE	173	0	n/a	n/a	n/a	n/a	n/a	n/a	n/a
3514566	RECOG_CONF	n/a	LTP153	ltpFR	6	10	n/a	BRIDE	173	n/a	4	n/a	n/a	n/a	n/a	n/a	n/a
3516170	RECOG_TARGET	n/a	LTP153	ltpFR	6	10	1	BLANKET	135	1	2	0	n/a	n/a	n/a	n/a	n/a
3517244	RECOG_RESP	n/a	LTP153	ltpFR	6	10	1	BLANKET	135	1	n/a	0	n/a	n/a	n/a	n/a	n/a
3518076	RECOG_CONF	n/a	LTP153	ltpFR	6	10	1	BLANKET	135	n/a	2	0	n/a	n/a	n/a	n/a	n/a
3519616	RECOG_TARGET	n/a	LTP153	ltpFR	6	10	-1	HOOK	715	1	3	-1	n/a	n/a	n/a	n/a	n/a
3520546	RECOG_RESP	n/a	LTP153	ltpFR	6	10	-1	HOOK	715	1	n/a	-1	n/a	n/a	n/a	n/a	n/a
3521375	RECOG_CONF	n/a	LTP153	ltpFR	6	10	-1	HOOK	715	n/a	3	-1	n/a	n/a	n/a	n/a	n/a
3522943	RECOG_LURE	n/a	LTP153	ltpFR	6	10	n/a	PASTRY	1022	0	2	n/a	n/a	n/a	n/a	n/a	n/a
3523761	RECOG_RESP	n/a	LTP153	ltpFR	6	10	n/a	PASTRY	1022	0	n/a	n/a	n/a	n/a	n/a	n/a	n/a
3524575	RECOG_CONF	n/a	LTP153	ltpFR	6	10	n/a	PASTRY	1022	n/a	2	n/a	n/a	n/a	n/a	n/a	n/a
3526271	RECOG_TARGET	n/a	LTP153	ltpFR	6	10	-1	VEAL	1551	1	4	-1	n/a	n/a	n/a	n/a	n/a
3527079	RECOG_RESP	n/a	LTP153	ltpFR	6	10	-1	VEAL	1551	1	n/a	-1	n/a	n/a	n/a	n/a	n/a
3527841	RECOG_CONF	n/a	LTP153	ltpFR	6	10	-1	VEAL	1551	n/a	4	-1	n/a	n/a	n/a	n/a	n/a
3529417	RECOG_LURE	n/a	LTP153	ltpFR	6	10	n/a	STOCKING	1383	0	3	n/a	n/a	n/a	n/a	n/a	n/a
3530360	RECOG_RESP	n/a	LTP153	ltpFR	6	10	n/a	STOCKING	1383	0	n/a	n/a	n/a	n/a	n/a	n/a	n/a
3531255	RECOG_CONF	n/a	LTP153	ltpFR	6	10	n/a	STOCKING	1383	n/a	3	n/a	n/a	n/a	n/a	n/a	n/a
3532895	RECOG_LURE	n/a	LTP153	ltpFR	6	10	n/a	VAGRANT	1544	0	2	n/a	n/a	n/a	n/a	n/a	n/a
