mstime	trial_type	stim_file	subject	experiment	session	trial	item_name	item_num	list	answer	test_x	test_y	test_z
0	SESS_START	n/a	LTP336	ltpFR2	10	n/a	n/a	n/a	n/a	n/a	0	0	0
14963	START	n/a	LTP336	ltpFR2	10	n/a	n/a	n/a	-1	n/a	n/a	n/a	n/a
14993	PROB	n/a	LTP336	ltpFR2	10	n/a	n/a	n/a	-1	10	6	2	2
16993	PROB	n/a	LTP336	ltpFR2	10	n/a	n/a	n/a	-1	15	7	4	4
20392	PROB	n/a	LTP336	ltpFR2	10	n/a	n/a	n/a	-1	13	2	7	4
22158	PROB	n/a	LTP336	ltpFR2	10	n/a	n/a	n/a	-1	11	5	1	5
23407	PROB	n/a	LTP336	ltpFR2	10	n/a	n/a	n/a	-1	19	8	2	9
26963	STOP	n/a	LTP336	ltpFR2	10	n/a	n/a	n/a	-1	n/a	n/a	n/a	n/a
63389	DISTRACTOR	n/a	LTP336	ltpFR2	10	1	n/a	n/a	n/a	n/a	0	0	0
63389	START	n/a	LTP336	ltpFR2	10	n/a	n/a	n/a	1	n/a	n/a	n/a	n/a
63406	PROB	n/a	LTP336	ltpFR2	10	n/a	n/a	n/a	1	18	5	6	7
65255	PROB	n/a	LTP336	ltpFR2	10	n/a	n/a	n/a	1	6	1	4	1
67237	PROB	n/a	LTP336	ltpFR2	10	n/a	n/a	n/a	1	19	8	8	3
68886	PROB	n/a	LTP336	ltpFR2	10	n/a	n/a	n/a	1	13	3	9	1
70353	PROB	n/a	LTP336	ltpFR2	10	n/a	n/a	n/a	1	19	9	8	2
72051	PROB	n/a	LTP336	ltpFR2	10	n/a	n/a	n/a	1	15	2	7	6
74368	PROB	n/a	LTP336	ltpFR2	10	n/a	n/a	n/a	1	16	1	7	8
75833	PROB	n/a	LTP336	ltpFR2	10	n/a	n/a	n/a	1	17	3	8	6
77533	PROB	n/a	LTP336	ltpFR2	10	n/a	n/a	n/a	1	8	2	4	2
79499	PROB	n/a	LTP336	ltpFR2	10	n/a	n/a	n/a	1	15	9	4	2
81281	PROB	n/a	LTP336	ltpFR2	10	n/a	n/a	n/a	1	6	1	4	1
82613	PROB	n/a	LTP336	ltpFR2	10	n/a	n/a	n/a	1	16	3	7	6
87389	STOP	n/a	LTP336	ltpFR2	10	n/a	n/a	n/a	1	n/a	n/a	n/a	n/a
88428	WORD	wordpools/wasnorm_wordpool_576.txt	LTP336	ltpFR2	10	1	WAITRESS	1581	n/a	n/a	0	0	0
90959	WORD	wordpools/wasnorm_wordpool_576.txt	LTP336	ltpFR2	10	1	BLOCKADE	137	n/a	n/a	0	0	0
93392	WORD	wordpools/wasnorm_wordpool_576.txt	LTP336	ltpFR2	10	1	YACHT	1629	n/a	n/a	0	0	0
96091	WORD	wordpools/wasnorm_wordpool_576.txt	LTP336	ltpFR2	10	1	STAPLE	1371	n/a	n/a	0	0	0
98922	WORD	wordpools/wasnorm_wordpool_576.txt	LTP336	ltpFR2	10	1	ICEBERG	731	n/a	n/a	0	0	0
101621	WORD	wordpools/wasnorm_wordpool_576.txt	LTP336	ltpFR2	10	1	PECAN	1036	n/a	n/a	0	0	0
104437	WORD	wordpools/wasnorm_wordpool_576.txt	LTP336	ltpFR2	10	1	LACE	792	n/a	n/a	0	0	0
107253	WORD	wordpools/wasnorm_wordpool_576.txt	LTP336	ltpFR2	10	1	AIRPLANE	12	n/a	n/a	0	0	0
110000	WORD	wordpools/wasnorm_wordpool_576.txt	LTP336	ltpFR2	10	1	CONVICT	371	n/a	n/a	0	0	0
112799	WORD	wordpools/wasnorm_wordpool_576.txt	LTP336	ltpFR2	10	1	BURGLAR	200	n/a	n/a	0	0	0
115299	WORD	wordpools/wasnorm_wordpool_576.txt	LTP336	ltpFR2	10	1	ROCKET	1202	n/a	n/a	0	0	0
117847	WORD	wordpools/wasnorm_wordpool_576.txt	LTP336	ltpFR2	10	1	TABLET	1427	n/a	n/a	0	0	0
120347	WORD	wordpools/wasnorm_wordpool_576.txt	LTP336	ltpFR2	10	1	AIRPORT	13	n/a	n/a	0	0	0
122778	WORD	wordpools/wasnorm_wordpool_576.txt	LTP336	ltpFR2	10	1	NAPKIN	937	n/a	n/a	0	0	0
125478	WORD	wordpools/wasnorm_wordpool_576.txt	LTP336	ltpFR2	10	1	COWBOY	395	n/a	n/a	0	0	0
128026	WORD	wordpools/wasnorm_wordpool_576.txt	LTP336	ltpFR2	10	1	BRAKE	166	n/a	n/a	0	0	0
130592	WORD	wordpools/wasnorm_wordpool_576.txt	LTP336	ltpFR2	10	1	ROBBER	1197	n/a	n/a	0	0	0
133374	WORD	wordpools/wasnorm_wordpool_576.txt	LTP336	ltpFR2	10	1	DONKEY	484	n/a	n/a	0	0	0
135805	WORD	wordpools/wasnorm_wordpool_576.txt	LTP336	ltpFR2	10	1	CARRIAGE	248	n/a	n/a	0	0	0
138439	WORD	wordpools/wasnorm_wordpool_576.txt	LTP336	ltpFR2	10	1	BANQUET	86	n/a	n/a	0	0	0
141171	WORD	wordpools/wasnorm_wordpool_576.txt	LTP336	ltpFR2	10	1	OMELET	976	n/a	n/a	0	0	0
143835	WORD	wordpools/wasnorm_wordpool_576.txt	LTP336	ltpFR2	10	1	COOKBOOK	373	n/a	n/a	0	0	0
146601	WORD	wordpools/wasnorm_wordpool_576.txt	LTP336	ltpFR2	10	1	SUPPER	1411	n/a	n/a	0	0	0
149367	WORD	wordpools/wasnorm_wordpool_576.txt	LTP336	ltpFR2	10	1	FRIEND	606	n/a	n/a	0	0	0
150982	START	n/a	LTP336	ltpFR2	10	n/a	n/a	n/a	2	n/a	n/a	n/a	n/a
151904	DISTRACTOR	n/a	LTP336	ltpFR2	10	1	n/a	n/a	n/a	n/a	0	0	0
151915	PROB	n/a	LTP336	ltpFR2	10	n/a	n/a	n/a	2	15	1	6	8
153980	PROB	n/a	LTP336	ltpFR2	10	n/a	n/a	n/a	2	5	3	1	1
155164	PROB	n/a	LTP336	ltpFR2	10	n/a	n/a	n/a	2	11	3	6	2
157097	PROB	n/a	LTP336	ltpFR2	10	n/a	n/a	n/a	2	1	5	8	4
159695	PROB	n/a	LTP336	ltpFR2	10	n/a	n/a	n/a	2	12	2	9	1
161362	PROB	n/a	LTP336	ltpFR2	10	n/a	n/a	n/a	2	20	8	6	6
164510	PROB	n/a	LTP336	ltpFR2	10	n/a	n/a	n/a	2	17	3	6	8
166825	PROB	n/a	LTP336	ltpFR2	10	n/a	n/a	n/a	2	16	8	3	5
168475	PROB	n/a	LTP336	ltpFR2	10	n/a	n/a	n/a	2	20	8	9	3
170374	PROB	n/a	LTP336	ltpFR2	10	n/a	n/a	n/a	2	8	2	1	5
171906	PROB	n/a	LTP336	ltpFR2	10	n/a	n/a	n/a	2	11	7	1	3
173289	PROB	n/a	LTP336	ltpFR2	10	n/a	n/a	n/a	2	10	3	1	6
174699	STOP	n/a	LTP336	ltpFR2	10	n/a	n/a	n/a	2	n/a	n/a	n/a	n/a
176737	REC_START	n/a	LTP336	ltpFR2	10	1	n/a	n/a	n/a	n/a	0	0	0
177433	REC_WORD	wordpools/wasnorm_wordpool_576.txt	LTP336	ltpFR2	10	1	OMELET	976	n/a	n/a	0	0	0
178699	REC_WORD	wordpools/wasnorm_wordpool_576.txt	LTP336	ltpFR2	10	1	BANQUET	86	n/a	n/a	0	0	0
179903	REC_WORD	wordpools/wasnorm_wordpool_576.txt	LTP336	ltpFR2	10	1	COOKBOOK	373	n/a	n/a	0	0	0
181095	REC_WORD	wordpools/wasnorm_wordpool_576.txt	LTP336	ltpFR2	10	1	COWBOY	395	n/a	n/a	0	0	0
182717	REC_WORD	wordpools/wasnorm_wordpool_576.txt	LTP336	ltpFR2	10	1	FRIEND	606	n/a	n/a	0	0	0
184098	REC_WORD	wordpools/wasnorm_wordpool_576.txt	LTP336	ltpFR2	10	1	WAITRESS	1581	n/a	n/a	0	0	0
185354	REC_WORD	wordpools/wasnorm_wordpool_576.txt	LTP336	ltpFR2	10	1	LACE	792	n/a	n/a	0	0	0
186784	REC_WORD	wordpools/wasnorm_wordpool_576.txt	LTP336	ltpFR2	10	1	YACHT	1629	n/a	n/a	0	0	0
187939	REC_WORD	wordpools/wasnorm_wordpool_576.txt	LTP336	ltpFR2	10	1	BLOCKADE	137	n/a	n/a	0	0	0
189447	REC_WORD	wordpools/wasnorm_wordpool_576.txt	LTP336	ltpFR2	10	1	ICEBERG	731	n/a	n/a	0	0	0
191290	REC_WORD	wordpools/wasnorm_wordpool_576.txt	LTP336	ltpFR2	10	1	STAPLE	1371	n/a	n/a	0	0	0
192788	REC_WORD	wordpools/wasnorm_wordpool_576.txt	LTP336	ltpFR2	10	1	CONVICT	371	n/a	n/a	0	0	0
194517	REC_WORD	wordpools/wasnorm_wordpool_576.txt	LTP336	ltpFR2	10	1	ROBBER	1197	n/a	n/a	0	0	0
197026	REC_WORD	wordpools/wasnorm_wordpool_576.txt	LTP336	ltpFR2	10	1	AIRPLANE	12	n/a	n/a	0	0	0
198508	REC_WORD	wordpools/wasnorm_wordpool_576.txt	LTP336	ltpFR2	10	1	AIRPORT	13	n/a	n/a	0	0	0
200094	REC_WORD	wordpools/wasnorm_wordpool_576.txt	LTP336	ltpFR2	10	1	DONKEY	484	n/a	n/a	0	0	0
205736	REC_WORD	wordpools/wasnorm_wordpool_576.txt	LTP336	ltpFR2	10	1	ROCKET	1202	n/a	n/a	0	0	0
211430	REC_WORD	wordpools/wasnorm_wordpool_576.txt	LTP336	ltpFR2	10	1	BURGLAR	200	n/a	n/a	0	0	0
267180	WORD	wordpools/wasnorm_wordpool_576.txt	LTP336	ltpFR2	10	2	HERO	706	n/a	n/a	0	0	0
269928	WORD	wordpools/wasnorm_wordpool_576.txt	LTP336	ltpFR2	10	2	CASKET	255	n/a	n/a	0	0	0
272594	WORD	wordpools/wasnorm_wordpool_576.txt	LTP336	ltpFR2	10	2	ICING	732	n/a	n/a	0	0	0
275042	WORD	wordpools/wasnorm_wordpool_576.txt	LTP336	ltpFR2	10	2	FOOTBALL	591	n/a	n/a	0	0	0
277624	WORD	wordpools/wasnorm_wordpool_576.txt	LTP336	ltpFR2	10	2	SWAMP	1416	n/a	n/a	0	0	0
280108	WORD	wordpools/wasnorm_wordpool_576.txt	LTP336	ltpFR2	10	2	SUITCASE	1403	n/a	n/a	0	0	0
282705	WORD	wordpools/wasnorm_wordpool_576.txt	LTP336	ltpFR2	10	2	TOURIST	1488	n/a	n/a	0	0	0
285172	WORD	wordpools/wasnorm_wordpool_576.txt	LTP336	ltpFR2	10	2	BEAVER	109	n/a	n/a	0	0	0
287820	WORD	wordpools/wasnorm_wordpool_576.txt	LTP336	ltpFR2	10	2	QUEEN	1149	n/a	n/a	0	0	0
290403	WORD	wordpools/wasnorm_wordpool_576.txt	LTP336	ltpFR2	10	2	MISSILE	900	n/a	n/a	0	0	0
292968	WORD	wordpools/wasnorm_wordpool_576.txt	LTP336	ltpFR2	10	2	STOVE	1388	n/a	n/a	0	0	0
295633	WORD	wordpools/wasnorm_wordpool_576.txt	LTP336	ltpFR2	10	2	PICNIC	1060	n/a	n/a	0	0	0
298200	WORD	wordpools/wasnorm_wordpool_576.txt	LTP336	ltpFR2	10	2	PALACE	1006	n/a	n/a	0	0	0
300964	WORD	wordpools/wasnorm_wordpool_576.txt	LTP336	ltpFR2	10	2	WHISKERS	1605	n/a	n/a	0	0	0
303514	WORD	wordpools/wasnorm_wordpool_576.txt	LTP336	ltpFR2	10	2	COUSIN	392	n/a	n/a	0	0	0
305995	WORD	wordpools/wasnorm_wordpool_576.txt	LTP336	ltpFR2	10	2	SHOVEL	1295	n/a	n/a	0	0	0
308660	WORD	wordpools/wasnorm_wordpool_576.txt	LTP336	ltpFR2	10	2	SWIMMER	1420	n/a	n/a	0	0	0
311227	WORD	wordpools/wasnorm_wordpool_576.txt	LTP336	ltpFR2	10	2	TERMITE	1451	n/a	n/a	0	0	0
313958	WORD	wordpools/wasnorm_wordpool_576.txt	LTP336	ltpFR2	10	2	SUSPECT	1415	n/a	n/a	0	0	0
316475	WORD	wordpools/wasnorm_wordpool_576.txt	LTP336	ltpFR2	10	2	MUMMY	932	n/a	n/a	0	0	0
318906	WORD	wordpools/wasnorm_wordpool_576.txt	LTP336	ltpFR2	10	2	PERMIT	1051	n/a	n/a	0	0	0
321589	WORD	wordpools/wasnorm_wordpool_576.txt	LTP336	ltpFR2	10	2	TRANSPLANT	1496	n/a	n/a	0	0	0
324388	WORD	wordpools/wasnorm_wordpool_576.txt	LTP336	ltpFR2	10	2	KIDNEY	776	n/a	n/a	0	0	0
327186	WORD	wordpools/wasnorm_wordpool_576.txt	LTP336	ltpFR2	10	2	MARKER	870	n/a	n/a	0	0	0
328801	START	n/a	LTP336	ltpFR2	10	n/a	n/a	n/a	3	n/a	n/a	n/a	n/a
329732	DISTRACTOR	n/a	LTP336	ltpFR2	10	2	n/a	n/a	n/a	n/a	0	0	0
329734	PROB	n/a	LTP336	ltpFR2	10	n/a	n/a	n/a	3	13	6	4	3
331767	PROB	n/a	LTP336	ltpFR2	10	n/a	n/a	n/a	3	13	3	1	9
333533	PROB	n/a	LTP336	ltpFR2	10	n/a	n/a	n/a	3	13	5	7	1
335499	PROB	n/a	LTP336	ltpFR2	10	n/a	n/a	n/a	3	20	5	7	8
337415	PROB	n/a	LTP336	ltpFR2	10	n/a	n/a	n/a	3	10	3	2	5
339214	PROB	n/a	LTP336	ltpFR2	10	n/a	n/a	n/a	3	6	2	1	3
340796	PROB	n/a	LTP336	ltpFR2	10	n/a	n/a	n/a	3	17	1	8	8
342379	PROB	n/a	LTP336	ltpFR2	10	n/a	n/a	n/a	3	10	2	6	2
343728	PROB	n/a	LTP336	ltpFR2	10	n/a	n/a	n/a	3	12	7	1	4
345495	PROB	n/a	LTP336	ltpFR2	10	n/a	n/a	n/a	3	10	1	2	7
346910	PROB	n/a	LTP336	ltpFR2	10	n/a	n/a	n/a	3	8	2	4	2
348377	PROB	n/a	LTP336	ltpFR2	10	n/a	n/a	n/a	3	21	9	5	7
352801	STOP	n/a	LTP336	ltpFR2	10	n/a	n/a	n/a	3	n/a	n/a	n/a	n/a
354591	REC_START	n/a	LTP336	ltpFR2	10	2	n/a	n/a	n/a	n/a	0	0	0
356145	REC_WORD	wordpools/wasnorm_wordpool_576.txt	LTP336	ltpFR2	10	2	TRANSPLANT	1496	n/a	n/a	0	0	0
357145	REC_WORD_VV	wordpools/wasnorm_wordpool_576.txt	LTP336	ltpFR2	10	2	<>	-1	n/a	n/a	0	0	0
357632	REC_WORD	wordpools/wasnorm_wordpool_576.txt	LTP336	ltpFR2	10	2	KIDNEY	776	n/a	n/a	0	0	0
358803	REC_WORD	wordpools/wasnorm_wordpool_576.txt	LTP336	ltpFR2	10	2	PERMIT	1051	n/a	n/a	0	0	0
360097	REC_WORD	wordpools/wasnorm_wordpool_576.txt	LTP336	ltpFR2	10	2	MARKER	870	n/a	n/a	0	0	0
361854	REC_WORD	wordpools/wasnorm_wordpool_576.txt	LTP336	ltpFR2	10	2	MUMMY	932	n/a	n/a	0	0	0
363389	REC_WORD	wordpools/wasnorm_wordpool_576.txt	LTP336	ltpFR2	10	2	COUSIN	392	n/a	n/a	0	0	0
364745	REC_WORD	wordpools/wasnorm_wordpool_576.txt	LTP336	ltpFR2	10	2	TERMITE	1451	n/a	n/a	0	0	0
365906	REC_WORD	wordpools/wasnorm_wordpool_576.txt	LTP336	ltpFR2	10	2	SWIMMER	1420	n/a	n/a	0	0	0
367612	REC_WORD	wordpools/wasnorm_wordpool_576.txt	LTP336	ltpFR2	10	2	SHOVEL	1295	n/a	n/a	0	0	0
369746	REC_WORD	wordpools/wasnorm_wordpool_576.txt	LTP336	ltpFR2	10	2	QUEEN	1149	n/a	n/a	0	0	0
370993	REC_WORD	wordpools/wasnorm_wordpool_576.txt	LTP336	ltpFR2	10	2	BEAVER	109	n/a	n/a	0	0	0
372679	REC_WORD	wordpools/wasnorm_wordpool_576.txt	LTP336	ltpFR2	10	2	PICNIC	1060	n/a	n/a	0	0	0
373859	REC_WORD	wordpools/wasnorm_wordpool_576.txt	LTP336	ltpFR2	10	2	STOVE	1388	n/a	n/a	0	0	0
376461	REC_WORD	wordpools/wasnorm_wordpool_576.txt	LTP336	ltpFR2	10	2	MISSILE	900	n/a	n/a	0	0	0
378730	REC_WORD	wordpools/wasnorm_wordpool_576.txt	LTP336	ltpFR2	10	2	HERO	706	n/a	n/a	0	0	0
380154	REC_WORD	wordpools/wasnorm_wordpool_576.txt	LTP336	ltpFR2	10	2	ICING	732	n/a	n/a	0	0	0
384977	REC_WORD	wordpools/wasnorm_wordpool_576.txt	LTP336	ltpFR2	10	2	TOURIST	1488	n/a	n/a	0	0	0
445032	DISTRACTOR	n/a	LTP336	ltpFR2	10	3	n/a	n/a	n/a	n/a	0	0	0
445033	START	n/a	LTP336	ltpFR2	10	n/a	n/a	n/a	4	n/a	n/a	n/a	n/a
445049	PROB	n/a	LTP336	ltpFR2	10	n/a	n/a	n/a	4	20	7	9	4
453329	PROB	n/a	LTP336	ltpFR2	10	n/a	n/a	n/a	4	13	6	6	1
454678	PROB	n/a	LTP336	ltpFR2	10	n/a	n/a	n/a	4	10	5	2	3
456060	PROB	n/a	LTP336	ltpFR2	10	n/a	n/a	n/a	4	14	3	6	5
458244	PROB	n/a	LTP336	ltpFR2	10	n/a	n/a	n/a	4	8	3	3	2
459858	PROB	n/a	LTP336	ltpFR2	10	n/a	n/a	n/a	4	16	2	6	8
461758	PROB	n/a	LTP336	ltpFR2	10	n/a	n/a	n/a	4	16	5	2	9
463425	PROB	n/a	LTP336	ltpFR2	10	n/a	n/a	n/a	4	16	4	9	3
465822	PROB	n/a	LTP336	ltpFR2	10	n/a	n/a	n/a	4	16	7	4	5
468044	STOP	n/a	LTP336	ltpFR2	10	n/a	n/a	n/a	4	n/a	n/a	n/a	n/a
470188	WORD	wordpools/wasnorm_wordpool_576.txt	LTP336	ltpFR2	10	3	KNIFE	785	n/a	n/a	0	0	0
472986	WORD	wordpools/wasnorm_wordpool_576.txt	LTP336	ltpFR2	10	3	DRESSER	496	n/a	n/a	0	0	0
475536	WORD	wordpools/wasnorm_wordpool_576.txt	LTP336	ltpFR2	10	3	CHEST	295	n/a	n/a	0	0	0
478101	WORD	wordpools/wasnorm_wordpool_576.txt	LTP336	ltpFR2	10	3	RECEIPT	1173	n/a	n/a	0	0	0
480882	WORD	wordpools/wasnorm_wordpool_576.txt	LTP336	ltpFR2	10	3	FRANCE	601	n/a	n/a	0	0	0
483449	WORD	wordpools/wasnorm_wordpool_576.txt	LTP336	ltpFR2	10	3	ASIA	46	n/a	n/a	0	0	0
486214	WORD	wordpools/wasnorm_wordpool_576.txt	LTP336	ltpFR2	10	3	PEACH	1031	n/a	n/a	0	0	0
488795	WORD	wordpools/wasnorm_wordpool_576.txt	LTP336	ltpFR2	10	3	WASP	1593	n/a	n/a	0	0	0
491312	WORD	wordpools/wasnorm_wordpool_576.txt	LTP336	ltpFR2	10	3	GIFT	635	n/a	n/a	0	0	0
493943	WORD	wordpools/wasnorm_wordpool_576.txt	LTP336	ltpFR2	10	3	COCKTAIL	338	n/a	n/a	0	0	0
496510	WORD	wordpools/wasnorm_wordpool_576.txt	LTP336	ltpFR2	10	3	FLUTE	585	n/a	n/a	0	0	0
499125	WORD	wordpools/wasnorm_wordpool_576.txt	LTP336	ltpFR2	10	3	WARDROBE	1587	n/a	n/a	0	0	0
501889	WORD	wordpools/wasnorm_wordpool_576.txt	LTP336	ltpFR2	10	3	OUTFIT	988	n/a	n/a	0	0	0
504705	WORD	wordpools/wasnorm_wordpool_576.txt	LTP336	ltpFR2	10	3	PACKAGE	997	n/a	n/a	0	0	0
507388	WORD	wordpools/wasnorm_wordpool_576.txt	LTP336	ltpFR2	10	3	PLAYGROUND	1087	n/a	n/a	0	0	0
510153	WORD	wordpools/wasnorm_wordpool_576.txt	LTP336	ltpFR2	10	3	SCISSORS	1250	n/a	n/a	0	0	0
512651	WORD	wordpools/wasnorm_wordpool_576.txt	LTP336	ltpFR2	10	3	REBEL	1172	n/a	n/a	0	0	0
515401	WORD	wordpools/wasnorm_wordpool_576.txt	LTP336	ltpFR2	10	3	EYELASH	546	n/a	n/a	0	0	0
518015	WORD	wordpools/wasnorm_wordpool_576.txt	LTP336	ltpFR2	10	3	FLASK	576	n/a	n/a	0	0	0
520764	WORD	wordpools/wasnorm_wordpool_576.txt	LTP336	ltpFR2	10	3	TOASTER	1472	n/a	n/a	0	0	0
523547	WORD	wordpools/wasnorm_wordpool_576.txt	LTP336	ltpFR2	10	3	VELVET	1555	n/a	n/a	0	0	0
526062	WORD	wordpools/wasnorm_wordpool_576.txt	LTP336	ltpFR2	10	3	PUPIL	1143	n/a	n/a	0	0	0
528512	WORD	wordpools/wasnorm_wordpool_576.txt	LTP336	ltpFR2	10	3	SALT	1229	n/a	n/a	0	0	0
530993	WORD	wordpools/wasnorm_wordpool_576.txt	LTP336	ltpFR2	10	3	PATROL	1027	n/a	n/a	0	0	0
532609	START	n/a	LTP336	ltpFR2	10	n/a	n/a	n/a	5	n/a	n/a	n/a	n/a
533491	DISTRACTOR	n/a	LTP336	ltpFR2	10	3	n/a	n/a	n/a	n/a	0	0	0
533493	PROB	n/a	LTP336	ltpFR2	10	n/a	n/a	n/a	5	11	2	2	7
535559	PROB	n/a	LTP336	ltpFR2	10	n/a	n/a	n/a	5	10	6	2	2
536857	PROB	n/a	LTP336	ltpFR2	10	n/a	n/a	n/a	5	12	4	4	4
538191	PROB	n/a	LTP336	ltpFR2	10	n/a	n/a	n/a	5	9	3	5	1
540622	PROB	n/a	LTP336	ltpFR2	10	n/a	n/a	n/a	5	19	9	2	8
542272	PROB	n/a	LTP336	ltpFR2	10	n/a	n/a	n/a	5	11	7	3	1
543572	PROB	n/a	LTP336	ltpFR2	10	n/a	n/a	n/a	5	12	6	5	1
545053	PROB	n/a	LTP336	ltpFR2	10	n/a	n/a	n/a	5	19	6	8	5
547835	PROB	n/a	LTP336	ltpFR2	10	n/a	n/a	n/a	5	20	8	8	4
549286	PROB	n/a	LTP336	ltpFR2	10	n/a	n/a	n/a	5	20	6	7	7
550867	PROB	n/a	LTP336	ltpFR2	10	n/a	n/a	n/a	5	5	1	3	1
552017	PROB	n/a	LTP336	ltpFR2	10	n/a	n/a	n/a	5	21	9	3	9
553534	PROB	n/a	LTP336	ltpFR2	10	n/a	n/a	n/a	5	19	9	2	8
555066	PROB	n/a	LTP336	ltpFR2	10	n/a	n/a	n/a	5	16	6	6	4
556455	STOP	n/a	LTP336	ltpFR2	10	n/a	n/a	n/a	5	n/a	n/a	n/a	n/a
558549	REC_START	n/a	LTP336	ltpFR2	10	3	n/a	n/a	n/a	n/a	0	0	0
560905	REC_WORD	wordpools/wasnorm_wordpool_576.txt	LTP336	ltpFR2	10	3	CHEST	295	n/a	n/a	0	0	0
561880	REC_WORD	wordpools/wasnorm_wordpool_576.txt	LTP336	ltpFR2	10	3	ASIA	46	n/a	n/a	0	0	0
563203	REC_WORD	wordpools/wasnorm_wordpool_576.txt	LTP336	ltpFR2	10	3	FRANCE	601	n/a	n/a	0	0	0
564421	REC_WORD	wordpools/wasnorm_wordpool_576.txt	LTP336	ltpFR2	10	3	COCKTAIL	338	n/a	n/a	0	0	0
565828	REC_WORD	wordpools/wasnorm_wordpool_576.txt	LTP336	ltpFR2	10	3	PEACH	1031	n/a	n/a	0	0	0
567712	REC_WORD	wordpools/wasnorm_wordpool_576.txt	LTP336	ltpFR2	10	3	RECEIPT	1173	n/a	n/a	0	0	0
569286	REC_WORD	wordpools/wasnorm_wordpool_576.txt	LTP336	ltpFR2	10	3	WASP	1593	n/a	n/a	0	0	0
570946	REC_WORD	wordpools/wasnorm_wordpool_576.txt	LTP336	ltpFR2	10	3	GIFT	635	n/a	n/a	0	0	0
576183	REC_WORD	wordpools/wasnorm_wordpool_576.txt	LTP336	ltpFR2	10	3	PILOT	1070	n/a	n/a	0	0	0
577508	REC_WORD	wordpools/wasnorm_wordpool_576.txt	LTP336	ltpFR2	10	3	TOASTER	1472	n/a	n/a	0	0	0
582017	REC_WORD	wordpools/wasnorm_wordpool_576.txt	LTP336	ltpFR2	10	3	WARDROBE	1587	n/a	n/a	0	0	0
583270	REC_WORD	wordpools/wasnorm_wordpool_576.txt	LTP336	ltpFR2	10	3	FLUTE	585	n/a	n/a	0	0	0
584867	REC_WORD	wordpools/wasnorm_wordpool_576.txt	LTP336	ltpFR2	10	3	OUTFIT	988	n/a	n/a	0	0	0
649006	WORD	wordpools/wasnorm_wordpool_576.txt	LTP336	ltpFR2	10	4	SCARF	1246	n/a	n/a	0	0	0
651556	WORD	wordpools/wasnorm_wordpool_576.txt	LTP336	ltpFR2	10	4	IGLOO	734	n/a	n/a	0	0	0
654188	WORD	wordpools/wasnorm_wordpool_576.txt	LTP336	ltpFR2	10	4	CURTAIN	427	n/a	n/a	0	0	0
656852	WORD	wordpools/wasnorm_wordpool_576.txt	LTP336	ltpFR2	10	4	COCOON	339	n/a	n/a	0	0	0
659569	WORD	wordpools/wasnorm_wordpool_576.txt	LTP336	ltpFR2	10	4	HELMET	702	n/a	n/a	0	0	0
662068	WORD	wordpools/wasnorm_wordpool_576.txt	LTP336	ltpFR2	10	4	HEADBAND	696	n/a	n/a	0	0	0
664616	WORD	wordpools/wasnorm_wordpool_576.txt	LTP336	ltpFR2	10	4	CRUTCH	417	n/a	n/a	0	0	0
667415	WORD	wordpools/wasnorm_wordpool_576.txt	LTP336	ltpFR2	10	4	SLIME	1327	n/a	n/a	0	0	0
670131	WORD	wordpools/wasnorm_wordpool_576.txt	LTP336	ltpFR2	10	4	SPARROW	1347	n/a	n/a	0	0	0
672679	WORD	wordpools/wasnorm_wordpool_576.txt	LTP336	ltpFR2	10	4	SEAGULL	1261	n/a	n/a	0	0	0
675378	WORD	wordpools/wasnorm_wordpool_576.txt	LTP336	ltpFR2	10	4	PARROT	1015	n/a	n/a	0	0	0
678077	WORD	wordpools/wasnorm_wordpool_576.txt	LTP336	ltpFR2	10	4	CHAUFFEUR	283	n/a	n/a	0	0	0
680625	WORD	wordpools/wasnorm_wordpool_576.txt	LTP336	ltpFR2	10	4	WAGON	1578	n/a	n/a	0	0	0
683275	WORD	wordpools/wasnorm_wordpool_576.txt	LTP336	ltpFR2	10	4	ROOSTER	1209	n/a	n/a	0	0	0
686039	WORD	wordpools/wasnorm_wordpool_576.txt	LTP336	ltpFR2	10	4	YOLK	1633	n/a	n/a	0	0	0
688821	WORD	wordpools/wasnorm_wordpool_576.txt	LTP336	ltpFR2	10	4	NOTEBOOK	959	n/a	n/a	0	0	0
691421	WORD	wordpools/wasnorm_wordpool_576.txt	LTP336	ltpFR2	10	4	GAZELLE	628	n/a	n/a	0	0	0
694170	WORD	wordpools/wasnorm_wordpool_576.txt	LTP336	ltpFR2	10	4	NEUTRON	947	n/a	n/a	0	0	0
696884	WORD	wordpools/wasnorm_wordpool_576.txt	LTP336	ltpFR2	10	4	LEG	809	n/a	n/a	0	0	0
699401	WORD	wordpools/wasnorm_wordpool_576.txt	LTP336	ltpFR2	10	4	SPIDER	1351	n/a	n/a	0	0	0
702083	WORD	wordpools/wasnorm_wordpool_576.txt	LTP336	ltpFR2	10	4	SLOPE	1328	n/a	n/a	0	0	0
704565	WORD	wordpools/wasnorm_wordpool_576.txt	LTP336	ltpFR2	10	4	SPACE	1345	n/a	n/a	0	0	0
707013	WORD	wordpools/wasnorm_wordpool_576.txt	LTP336	ltpFR2	10	4	STAMP	1370	n/a	n/a	0	0	0
709828	WORD	wordpools/wasnorm_wordpool_576.txt	LTP336	ltpFR2	10	4	COLONEL	348	n/a	n/a	0	0	0
711446	START	n/a	LTP336	ltpFR2	10	n/a	n/a	n/a	6	n/a	n/a	n/a	n/a
712630	DISTRACTOR	n/a	LTP336	ltpFR2	10	4	n/a	n/a	n/a	n/a	0	0	0
712644	PROB	n/a	LTP336	ltpFR2	10	n/a	n/a	n/a	6	23	9	8	6
715344	PROB	n/a	LTP336	ltpFR2	10	n/a	n/a	n/a	6	7	3	2	2
719058	PROB	n/a	LTP336	ltpFR2	10	n/a	n/a	n/a	6	18	3	9	6
721208	PROB	n/a	LTP336	ltpFR2	10	n/a	n/a	n/a	6	14	2	4	8
722723	PROB	n/a	LTP336	ltpFR2	10	n/a	n/a	n/a	6	12	6	3	3
724805	PROB	n/a	LTP336	ltpFR2	10	n/a	n/a	n/a	6	23	7	9	7
726887	PROB	n/a	LTP336	ltpFR2	10	n/a	n/a	n/a	6	19	4	9	6
728720	PROB	n/a	LTP336	ltpFR2	10	n/a	n/a	n/a	6	5	3	1	1
729853	PROB	n/a	LTP336	ltpFR2	10	n/a	n/a	n/a	6	12	1	2	9
731086	PROB	n/a	LTP336	ltpFR2	10	n/a	n/a	n/a	6	8	5	1	2
733352	PROB	n/a	LTP336	ltpFR2	10	n/a	n/a	n/a	6	13	4	1	8
735004	STOP	n/a	LTP336	ltpFR2	10	n/a	n/a	n/a	6	n/a	n/a	n/a	n/a
737334	REC_START	n/a	LTP336	ltpFR2	10	4	n/a	n/a	n/a	n/a	0	0	0
737985	REC_WORD	wordpools/wasnorm_wordpool_576.txt	LTP336	ltpFR2	10	4	STAMP	1370	n/a	n/a	0	0	0
739456	REC_WORD	wordpools/wasnorm_wordpool_576.txt	LTP336	ltpFR2	10	4	COLONEL	348	n/a	n/a	0	0	0
740913	REC_WORD	wordpools/wasnorm_wordpool_576.txt	LTP336	ltpFR2	10	4	PARROT	1015	n/a	n/a	0	0	0
742128	REC_WORD	wordpools/wasnorm_wordpool_576.txt	LTP336	ltpFR2	10	4	ROOSTER	1209	n/a	n/a	0	0	0
743557	REC_WORD	wordpools/wasnorm_wordpool_576.txt	LTP336	ltpFR2	10	4	WAGON	1578	n/a	n/a	0	0	0
745058	REC_WORD	wordpools/wasnorm_wordpool_576.txt	LTP336	ltpFR2	10	4	NEUTRON	947	n/a	n/a	0	0	0
746781	REC_WORD	wordpools/wasnorm_wordpool_576.txt	LTP336	ltpFR2	10	4	SLATHER	-1	n/a	n/a	0	0	0
748708	REC_WORD	wordpools/wasnorm_wordpool_576.txt	LTP336	ltpFR2	10	4	STALLER	-1	n/a	n/a	0	0	0
752081	REC_WORD	wordpools/wasnorm_wordpool_576.txt	LTP336	ltpFR2	10	4	CHAUFFEUR	283	n/a	n/a	0	0	0
753259	REC_WORD	wordpools/wasnorm_wordpool_576.txt	LTP336	ltpFR2	10	4	SCARF	1246	n/a	n/a	0	0	0
754601	REC_WORD	wordpools/wasnorm_wordpool_576.txt	LTP336	ltpFR2	10	4	PARROT	1015	n/a	n/a	0	0	0
756028	REC_WORD	wordpools/wasnorm_wordpool_576.txt	LTP336	ltpFR2	10	4	WAGON	1578	n/a	n/a	0	0	0
757221	REC_WORD	wordpools/wasnorm_wordpool_576.txt	LTP336	ltpFR2	10	4	NOTEBOOK	959	n/a	n/a	0	0	0
902109	DISTRACTOR	n/a	LTP336	ltpFR2	10	5	n/a	n/a	n/a	n/a	0	0	0
902109	START	n/a	LTP336	ltpFR2	10	n/a	n/a	n/a	7	n/a	n/a	n/a	n/a
902126	PROB	n/a	LTP336	ltpFR2	10	n/a	n/a	n/a	7	17	6	2	9
905158	PROB	n/a	LTP336	ltpFR2	10	n/a	n/a	n/a	7	14	3	4	7
906922	PROB	n/a	LTP336	ltpFR2	10	n/a	n/a	n/a	7	16	7	6	3
908705	PROB	n/a	LTP336	ltpFR2	10	n/a	n/a	n/a	7	19	6	9	5
910654	PROB	n/a	LTP336	ltpFR2	10	n/a	n/a	n/a	7	25	7	9	9
912653	PROB	n/a	LTP336	ltpFR2	10	n/a	n/a	n/a	7	13	6	5	2
914137	PROB	n/a	LTP336	ltpFR2	10	n/a	n/a	n/a	7	12	2	6	4
915470	PROB	n/a	LTP336	ltpFR2	10	n/a	n/a	n/a	7	10	2	7	1
916569	PROB	n/a	LTP336	ltpFR2	10	n/a	n/a	n/a	7	17	6	2	9
919384	PROB	n/a	LTP336	ltpFR2	10	n/a	n/a	n/a	7	14	8	3	3
920833	PROB	n/a	LTP336	ltpFR2	10	n/a	n/a	n/a	7	22	8	5	9
922915	PROB	n/a	LTP336	ltpFR2	10	n/a	n/a	n/a	7	18	2	9	7
926108	STOP	n/a	LTP336	ltpFR2	10	n/a	n/a	n/a	7	n/a	n/a	n/a	n/a
926963	WORD	wordpools/wasnorm_wordpool_576.txt	LTP336	ltpFR2	10	5	UNCLE	1536	n/a	n/a	0	0	0
929530	WORD	wordpools/wasnorm_wordpool_576.txt	LTP336	ltpFR2	10	5	BRACES	164	n/a	n/a	0	0	0
932061	WORD	wordpools/wasnorm_wordpool_576.txt	LTP336	ltpFR2	10	5	TRUCK	1512	n/a	n/a	0	0	0
934610	WORD	wordpools/wasnorm_wordpool_576.txt	LTP336	ltpFR2	10	5	TABLE	1426	n/a	n/a	0	0	0
937310	WORD	wordpools/wasnorm_wordpool_576.txt	LTP336	ltpFR2	10	5	BUREAU	199	n/a	n/a	0	0	0
939741	WORD	wordpools/wasnorm_wordpool_576.txt	LTP336	ltpFR2	10	5	PAPER	1011	n/a	n/a	0	0	0
942507	WORD	wordpools/wasnorm_wordpool_576.txt	LTP336	ltpFR2	10	5	SEAFOOD	1260	n/a	n/a	0	0	0
945106	WORD	wordpools/wasnorm_wordpool_576.txt	LTP336	ltpFR2	10	5	STREAM	1392	n/a	n/a	0	0	0
947771	WORD	wordpools/wasnorm_wordpool_576.txt	LTP336	ltpFR2	10	5	HAMPER	682	n/a	n/a	0	0	0
950404	WORD	wordpools/wasnorm_wordpool_576.txt	LTP336	ltpFR2	10	5	DONOR	485	n/a	n/a	0	0	0
952918	WORD	wordpools/wasnorm_wordpool_576.txt	LTP336	ltpFR2	10	5	TRIBE	1505	n/a	n/a	0	0	0
955535	WORD	wordpools/wasnorm_wordpool_576.txt	LTP336	ltpFR2	10	5	MAMMAL	861	n/a	n/a	0	0	0
958300	WORD	wordpools/wasnorm_wordpool_576.txt	LTP336	ltpFR2	10	5	CLOTHES	327	n/a	n/a	0	0	0
960831	WORD	wordpools/wasnorm_wordpool_576.txt	LTP336	ltpFR2	10	5	MARSH	874	n/a	n/a	0	0	0
963381	WORD	wordpools/wasnorm_wordpool_576.txt	LTP336	ltpFR2	10	5	GLOVE	642	n/a	n/a	0	0	0
966163	WORD	wordpools/wasnorm_wordpool_576.txt	LTP336	ltpFR2	10	5	GRAVE	658	n/a	n/a	0	0	0
968794	WORD	wordpools/wasnorm_wordpool_576.txt	LTP336	ltpFR2	10	5	WIDOW	1608	n/a	n/a	0	0	0
971377	WORD	wordpools/wasnorm_wordpool_576.txt	LTP336	ltpFR2	10	5	CLIMBER	323	n/a	n/a	0	0	0
974126	WORD	wordpools/wasnorm_wordpool_576.txt	LTP336	ltpFR2	10	5	EMPIRE	530	n/a	n/a	0	0	0
976941	WORD	wordpools/wasnorm_wordpool_576.txt	LTP336	ltpFR2	10	5	SHELTER	1282	n/a	n/a	0	0	0
979639	WORD	wordpools/wasnorm_wordpool_576.txt	LTP336	ltpFR2	10	5	DINER	467	n/a	n/a	0	0	0
982123	WORD	wordpools/wasnorm_wordpool_576.txt	LTP336	ltpFR2	10	5	WOMAN	1620	n/a	n/a	0	0	0
984670	WORD	wordpools/wasnorm_wordpool_576.txt	LTP336	ltpFR2	10	5	MISTER	901	n/a	n/a	0	0	0
987154	WORD	wordpools/wasnorm_wordpool_576.txt	LTP336	ltpFR2	10	5	DANDRUFF	439	n/a	n/a	0	0	0
988769	START	n/a	LTP336	ltpFR2	10	n/a	n/a	n/a	8	n/a	n/a	n/a	n/a
989935	DISTRACTOR	n/a	LTP336	ltpFR2	10	5	n/a	n/a	n/a	n/a	0	0	0
989952	PROB	n/a	LTP336	ltpFR2	10	n/a	n/a	n/a	8	20	9	7	4
992535	PROB	n/a	LTP336	ltpFR2	10	n/a	n/a	n/a	8	14	4	9	1
994234	PROB	n/a	LTP336	ltpFR2	10	n/a	n/a	n/a	8	9	2	2	5
996366	PROB	n/a	LTP336	ltpFR2	10	n/a	n/a	n/a	8	17	8	8	1
998499	PROB	n/a	LTP336	ltpFR2	10	n/a	n/a	n/a	8	21	7	6	8
1001431	PROB	n/a	LTP336	ltpFR2	10	n/a	n/a	n/a	8	16	1	9	6
1003213	PROB	n/a	LTP336	ltpFR2	10	n/a	n/a	n/a	8	15	4	6	5
1006495	PROB	n/a	LTP336	ltpFR2	10	n/a	n/a	n/a	8	9	4	4	1
1008010	PROB	n/a	LTP336	ltpFR2	10	n/a	n/a	n/a	8	6	3	1	2
1011042	PROB	n/a	LTP336	ltpFR2	10	n/a	n/a	n/a	8	17	5	5	7
1012573	STOP	n/a	LTP336	ltpFR2	10	n/a	n/a	n/a	8	n/a	n/a	n/a	n/a
1014525	REC_START	n/a	LTP336	ltpFR2	10	5	n/a	n/a	n/a	n/a	0	0	0
1015262	REC_WORD	wordpools/wasnorm_wordpool_576.txt	LTP336	ltpFR2	10	5	CLIMBER	323	n/a	n/a	0	0	0
1016988	REC_WORD	wordpools/wasnorm_wordpool_576.txt	LTP336	ltpFR2	10	5	WIDOW	1608	n/a	n/a	0	0	0
1018490	REC_WORD	wordpools/wasnorm_wordpool_576.txt	LTP336	ltpFR2	10	5	DANDRUFF	439	n/a	n/a	0	0	0
1019895	REC_WORD	wordpools/wasnorm_wordpool_576.txt	LTP336	ltpFR2	10	5	MISTER	901	n/a	n/a	0	0	0
1021324	REC_WORD	wordpools/wasnorm_wordpool_576.txt	LTP336	ltpFR2	10	5	GRAVE	658	n/a	n/a	0	0	0
1022999	REC_WORD	wordpools/wasnorm_wordpool_576.txt	LTP336	ltpFR2	10	5	CLIMBER	323	n/a	n/a	0	0	0
1025746	REC_WORD	wordpools/wasnorm_wordpool_576.txt	LTP336	ltpFR2	10	5	UNCLE	1536	n/a	n/a	0	0	0
1027498	REC_WORD	wordpools/wasnorm_wordpool_576.txt	LTP336	ltpFR2	10	5	HAMPER	682	n/a	n/a	0	0	0
1028649	REC_WORD	wordpools/wasnorm_wordpool_576.txt	LTP336	ltpFR2	10	5	TRIBE	1505	n/a	n/a	0	0	0
1030155	REC_WORD	wordpools/wasnorm_wordpool_576.txt	LTP336	ltpFR2	10	5	MAMMAL	861	n/a	n/a	0	0	0
1031384	REC_WORD	wordpools/wasnorm_wordpool_576.txt	LTP336	ltpFR2	10	5	CLOTHES	327	n/a	n/a	0	0	0
1033224	REC_WORD	wordpools/wasnorm_wordpool_576.txt	LTP336	ltpFR2	10	5	BRACES	164	n/a	n/a	0	0	0
1034826	REC_WORD	wordpools/wasnorm_wordpool_576.txt	LTP336	ltpFR2	10	5	TRUCK	1512	n/a	n/a	0	0	0
1036552	REC_WORD	wordpools/wasnorm_wordpool_576.txt	LTP336	ltpFR2	10	5	TABLE	1426	n/a	n/a	0	0	0
1038111	REC_WORD	wordpools/wasnorm_wordpool_576.txt	LTP336	ltpFR2	10	5	BUREAU	199	n/a	n/a	0	0	0
1039826	REC_WORD	wordpools/wasnorm_wordpool_576.txt	LTP336	ltpFR2	10	5	PAPER	1011	n/a	n/a	0	0	0
1050552	REC_WORD	wordpools/wasnorm_wordpool_576.txt	LTP336	ltpFR2	10	5	SEAFOOD	1260	n/a	n/a	0	0	0
1104983	DISTRACTOR	n/a	LTP336	ltpFR2	10	6	n/a	n/a	n/a	n/a	0	0	0
1104983	START	n/a	LTP336	ltpFR2	10	n/a	n/a	n/a	9	n/a	n/a	n/a	n/a
1104999	PROB	n/a	LTP336	ltpFR2	10	n/a	n/a	n/a	9	9	2	1	6
1108064	PROB	n/a	LTP336	ltpFR2	10	n/a	n/a	n/a	9	19	9	1	9
1110564	PROB	n/a	LTP336	ltpFR2	10	n/a	n/a	n/a	9	9	2	6	1
1112063	PROB	n/a	LTP336	ltpFR2	10	n/a	n/a	n/a	9	15	4	7	4
1114795	PROB	n/a	LTP336	ltpFR2	10	n/a	n/a	n/a	9	21	5	7	9
1117677	PROB	n/a	LTP336	ltpFR2	10	n/a	n/a	n/a	9	13	2	6	5
1119444	PROB	n/a	LTP336	ltpFR2	10	n/a	n/a	n/a	9	9	3	1	5
1120892	PROB	n/a	LTP336	ltpFR2	10	n/a	n/a	n/a	9	13	6	1	6
1122209	PROB	n/a	LTP336	ltpFR2	10	n/a	n/a	n/a	9	18	9	1	8
1123825	PROB	n/a	LTP336	ltpFR2	10	n/a	n/a	n/a	9	24	9	9	6
1125424	PROB	n/a	LTP336	ltpFR2	10	n/a	n/a	n/a	9	19	4	7	8
1128982	STOP	n/a	LTP336	ltpFR2	10	n/a	n/a	n/a	9	n/a	n/a	n/a	n/a
1130089	WORD	wordpools/wasnorm_wordpool_576.txt	LTP336	ltpFR2	10	6	COUCH	386	n/a	n/a	0	0	0
1132753	WORD	wordpools/wasnorm_wordpool_576.txt	LTP336	ltpFR2	10	6	BANKER	84	n/a	n/a	0	0	0
1135270	WORD	wordpools/wasnorm_wordpool_576.txt	LTP336	ltpFR2	10	6	ARMY	39	n/a	n/a	0	0	0
1137901	WORD	wordpools/wasnorm_wordpool_576.txt	LTP336	ltpFR2	10	6	ACTRESS	6	n/a	n/a	0	0	0
1140534	WORD	wordpools/wasnorm_wordpool_576.txt	LTP336	ltpFR2	10	6	BIKE	125	n/a	n/a	0	0	0
1143116	WORD	wordpools/wasnorm_wordpool_576.txt	LTP336	ltpFR2	10	6	PEDAL	1037	n/a	n/a	0	0	0
1145914	WORD	wordpools/wasnorm_wordpool_576.txt	LTP336	ltpFR2	10	6	HORSE	719	n/a	n/a	0	0	0
1148547	WORD	wordpools/wasnorm_wordpool_576.txt	LTP336	ltpFR2	10	6	RUG	1215	n/a	n/a	0	0	0
1151246	WORD	wordpools/wasnorm_wordpool_576.txt	LTP336	ltpFR2	10	6	PADDING	999	n/a	n/a	0	0	0
1154027	WORD	wordpools/wasnorm_wordpool_576.txt	LTP336	ltpFR2	10	6	PAIL	1002	n/a	n/a	0	0	0
1156726	WORD	wordpools/wasnorm_wordpool_576.txt	LTP336	ltpFR2	10	6	MOP	916	n/a	n/a	0	0	0
1159342	WORD	wordpools/wasnorm_wordpool_576.txt	LTP336	ltpFR2	10	6	SCRIBBLE	1256	n/a	n/a	0	0	0
1161990	WORD	wordpools/wasnorm_wordpool_576.txt	LTP336	ltpFR2	10	6	GUITAR	670	n/a	n/a	0	0	0
1164606	WORD	wordpools/wasnorm_wordpool_576.txt	LTP336	ltpFR2	10	6	STALLION	1369	n/a	n/a	0	0	0
1167222	WORD	wordpools/wasnorm_wordpool_576.txt	LTP336	ltpFR2	10	6	PICTURE	1061	n/a	n/a	0	0	0
1169703	WORD	wordpools/wasnorm_wordpool_576.txt	LTP336	ltpFR2	10	6	CANYON	235	n/a	n/a	0	0	0
1172420	WORD	wordpools/wasnorm_wordpool_576.txt	LTP336	ltpFR2	10	6	SUMMIT	1405	n/a	n/a	0	0	0
1175218	WORD	wordpools/wasnorm_wordpool_576.txt	LTP336	ltpFR2	10	6	BLENDER	136	n/a	n/a	0	0	0
1177666	WORD	wordpools/wasnorm_wordpool_576.txt	LTP336	ltpFR2	10	6	GALLON	618	n/a	n/a	0	0	0
1180449	WORD	wordpools/wasnorm_wordpool_576.txt	LTP336	ltpFR2	10	6	LONDON	843	n/a	n/a	0	0	0
1182964	WORD	wordpools/wasnorm_wordpool_576.txt	LTP336	ltpFR2	10	6	CAPTIVE	240	n/a	n/a	0	0	0
1185530	WORD	wordpools/wasnorm_wordpool_576.txt	LTP336	ltpFR2	10	6	GARDEN	623	n/a	n/a	0	0	0
1188163	WORD	wordpools/wasnorm_wordpool_576.txt	LTP336	ltpFR2	10	6	DENIM	446	n/a	n/a	0	0	0
1190860	WORD	wordpools/wasnorm_wordpool_576.txt	LTP336	ltpFR2	10	6	MARINE	869	n/a	n/a	0	0	0
1192477	START	n/a	LTP336	ltpFR2	10	n/a	n/a	n/a	10	n/a	n/a	n/a	n/a
1193363	DISTRACTOR	n/a	LTP336	ltpFR2	10	6	n/a	n/a	n/a	n/a	0	0	0
1193377	PROB	n/a	LTP336	ltpFR2	10	n/a	n/a	n/a	10	13	7	4	2
1196492	PROB	n/a	LTP336	ltpFR2	10	n/a	n/a	n/a	10	7	3	3	1
1197957	PROB	n/a	LTP336	ltpFR2	10	n/a	n/a	n/a	10	16	8	2	6
1199690	PROB	n/a	LTP336	ltpFR2	10	n/a	n/a	n/a	10	16	4	6	6
1201722	PROB	n/a	LTP336	ltpFR2	10	n/a	n/a	n/a	10	18	8	7	3
1203539	PROB	n/a	LTP336	ltpFR2	10	n/a	n/a	n/a	10	10	2	2	6
1205538	PROB	n/a	LTP336	ltpFR2	10	n/a	n/a	n/a	10	9	1	3	5
1207903	PROB	n/a	LTP336	ltpFR2	10	n/a	n/a	n/a	10	19	4	7	8
1209818	PROB	n/a	LTP336	ltpFR2	10	n/a	n/a	n/a	10	11	4	3	3
1212535	PROB	n/a	LTP336	ltpFR2	10	n/a	n/a	n/a	10	18	7	8	3
1214749	PROB	n/a	LTP336	ltpFR2	10	n/a	n/a	n/a	10	10	8	1	1
1216396	STOP	n/a	LTP336	ltpFR2	10	n/a	n/a	n/a	10	n/a	n/a	n/a	n/a
1218366	REC_START	n/a	LTP336	ltpFR2	10	6	n/a	n/a	n/a	n/a	0	0	0
1219198	REC_WORD	wordpools/wasnorm_wordpool_576.txt	LTP336	ltpFR2	10	6	LONDON	843	n/a	n/a	0	0	0
1220550	REC_WORD	wordpools/wasnorm_wordpool_576.txt	LTP336	ltpFR2	10	6	CAPTIVE	240	n/a	n/a	0	0	0
1221992	REC_WORD	wordpools/wasnorm_wordpool_576.txt	LTP336	ltpFR2	10	6	GARDEN	623	n/a	n/a	0	0	0
1223805	REC_WORD	wordpools/wasnorm_wordpool_576.txt	LTP336	ltpFR2	10	6	PAIL	1002	n/a	n/a	0	0	0
1225181	REC_WORD	wordpools/wasnorm_wordpool_576.txt	LTP336	ltpFR2	10	6	MOP	916	n/a	n/a	0	0	0
1226267	REC_WORD	wordpools/wasnorm_wordpool_576.txt	LTP336	ltpFR2	10	6	GUITAR	670	n/a	n/a	0	0	0
1227741	REC_WORD	wordpools/wasnorm_wordpool_576.txt	LTP336	ltpFR2	10	6	SCRIBBLE	1256	n/a	n/a	0	0	0
1229367	REC_WORD	wordpools/wasnorm_wordpool_576.txt	LTP336	ltpFR2	10	6	ARMY	39	n/a	n/a	0	0	0
1232663	REC_WORD	wordpools/wasnorm_wordpool_576.txt	LTP336	ltpFR2	10	6	ACTRESS	6	n/a	n/a	0	0	0
1233880	REC_WORD	wordpools/wasnorm_wordpool_576.txt	LTP336	ltpFR2	10	6	BIKE	125	n/a	n/a	0	0	0
1235072	REC_WORD	wordpools/wasnorm_wordpool_576.txt	LTP336	ltpFR2	10	6	PADDING	999	n/a	n/a	0	0	0
1236219	REC_WORD	wordpools/wasnorm_wordpool_576.txt	LTP336	ltpFR2	10	6	COUCH	386	n/a	n/a	0	0	0
1237629	REC_WORD	wordpools/wasnorm_wordpool_576.txt	LTP336	ltpFR2	10	6	RUG	1215	n/a	n/a	0	0	0
1308790	DISTRACTOR	n/a	LTP336	ltpFR2	10	7	n/a	n/a	n/a	n/a	0	0	0
1308790	START	n/a	LTP336	ltpFR2	10	n/a	n/a	n/a	11	n/a	n/a	n/a	n/a
1308807	PROB	n/a	LTP336	ltpFR2	10	n/a	n/a	n/a	11	17	5	3	9
1311473	PROB	n/a	LTP336	ltpFR2	10	n/a	n/a	n/a	11	15	2	5	8
1313705	PROB	n/a	LTP336	ltpFR2	10	n/a	n/a	n/a	11	9	1	7	1
1315037	PROB	n/a	LTP336	ltpFR2	10	n/a	n/a	n/a	11	16	3	5	8
1316637	PROB	n/a	LTP336	ltpFR2	10	n/a	n/a	n/a	11	9	2	2	5
1317853	PROB	n/a	LTP336	ltpFR2	10	n/a	n/a	n/a	11	11	4	4	3
1319187	PROB	n/a	LTP336	ltpFR2	10	n/a	n/a	n/a	11	18	1	8	9
1320968	PROB	n/a	LTP336	ltpFR2	10	n/a	n/a	n/a	11	14	6	4	4
1322218	PROB	n/a	LTP336	ltpFR2	10	n/a	n/a	n/a	11	17	8	5	4
1323833	PROB	n/a	LTP336	ltpFR2	10	n/a	n/a	n/a	11	21	9	4	8
1326016	PROB	n/a	LTP336	ltpFR2	10	n/a	n/a	n/a	11	12	4	5	3
1327533	PROB	n/a	LTP336	ltpFR2	10	n/a	n/a	n/a	11	9	1	6	2
1329365	PROB	n/a	LTP336	ltpFR2	10	n/a	n/a	n/a	11	7	3	1	3
1331662	STOP	n/a	LTP336	ltpFR2	10	n/a	n/a	n/a	11	n/a	n/a	n/a	n/a
1333979	WORD	wordpools/wasnorm_wordpool_576.txt	LTP336	ltpFR2	10	7	TOMBSTONE	1478	n/a	n/a	0	0	0
1336744	WORD	wordpools/wasnorm_wordpool_576.txt	LTP336	ltpFR2	10	7	DUST	508	n/a	n/a	0	0	0
1339427	WORD	wordpools/wasnorm_wordpool_576.txt	LTP336	ltpFR2	10	7	DAUGHTER	442	n/a	n/a	0	0	0
1342243	WORD	wordpools/wasnorm_wordpool_576.txt	LTP336	ltpFR2	10	7	FOREHEAD	592	n/a	n/a	0	0	0
1344940	WORD	wordpools/wasnorm_wordpool_576.txt	LTP336	ltpFR2	10	7	MASK	876	n/a	n/a	0	0	0
1347723	WORD	wordpools/wasnorm_wordpool_576.txt	LTP336	ltpFR2	10	7	MILK	895	n/a	n/a	0	0	0
1350356	WORD	wordpools/wasnorm_wordpool_576.txt	LTP336	ltpFR2	10	7	BEAKER	104	n/a	n/a	0	0	0
1353003	WORD	wordpools/wasnorm_wordpool_576.txt	LTP336	ltpFR2	10	7	BANK	83	n/a	n/a	0	0	0
1355619	WORD	wordpools/wasnorm_wordpool_576.txt	LTP336	ltpFR2	10	7	TRACTOR	1493	n/a	n/a	0	0	0
1358102	WORD	wordpools/wasnorm_wordpool_576.txt	LTP336	ltpFR2	10	7	FRAGRANCE	599	n/a	n/a	0	0	0
1360667	WORD	wordpools/wasnorm_wordpool_576.txt	LTP336	ltpFR2	10	7	MILDEW	893	n/a	n/a	0	0	0
1363183	WORD	wordpools/wasnorm_wordpool_576.txt	LTP336	ltpFR2	10	7	LODGE	839	n/a	n/a	0	0	0
1365698	WORD	wordpools/wasnorm_wordpool_576.txt	LTP336	ltpFR2	10	7	BACKBONE	66	n/a	n/a	0	0	0
1368414	WORD	wordpools/wasnorm_wordpool_576.txt	LTP336	ltpFR2	10	7	POCKET	1093	n/a	n/a	0	0	0
1371096	WORD	wordpools/wasnorm_wordpool_576.txt	LTP336	ltpFR2	10	7	PANTHER	1009	n/a	n/a	0	0	0
1373711	WORD	wordpools/wasnorm_wordpool_576.txt	LTP336	ltpFR2	10	7	CHURCH	307	n/a	n/a	0	0	0
1376377	WORD	wordpools/wasnorm_wordpool_576.txt	LTP336	ltpFR2	10	7	WAITER	1580	n/a	n/a	0	0	0
1378892	WORD	wordpools/wasnorm_wordpool_576.txt	LTP336	ltpFR2	10	7	COD	340	n/a	n/a	0	0	0
1381624	WORD	wordpools/wasnorm_wordpool_576.txt	LTP336	ltpFR2	10	7	HOOK	715	n/a	n/a	0	0	0
1384357	WORD	wordpools/wasnorm_wordpool_576.txt	LTP336	ltpFR2	10	7	LEOPARD	812	n/a	n/a	0	0	0
1386871	WORD	wordpools/wasnorm_wordpool_576.txt	LTP336	ltpFR2	10	7	NOVEL	960	n/a	n/a	0	0	0
1389620	WORD	wordpools/wasnorm_wordpool_576.txt	LTP336	ltpFR2	10	7	HUMAN	726	n/a	n/a	0	0	0
1392220	WORD	wordpools/wasnorm_wordpool_576.txt	LTP336	ltpFR2	10	7	PIZZA	1079	n/a	n/a	0	0	0
1394768	WORD	wordpools/wasnorm_wordpool_576.txt	LTP336	ltpFR2	10	7	CASHEW	253	n/a	n/a	0	0	0
1396385	START	n/a	LTP336	ltpFR2	10	n/a	n/a	n/a	12	n/a	n/a	n/a	n/a
1397560	DISTRACTOR	n/a	LTP336	ltpFR2	10	7	n/a	n/a	n/a	n/a	0	0	0
1397568	PROB	n/a	LTP336	ltpFR2	10	n/a	n/a	n/a	12	12	6	2	4
1399666	PROB	n/a	LTP336	ltpFR2	10	n/a	n/a	n/a	12	17	6	3	8
1403415	PROB	n/a	LTP336	ltpFR2	10	n/a	n/a	n/a	12	11	1	7	3
1404630	PROB	n/a	LTP336	ltpFR2	10	n/a	n/a	n/a	12	12	6	2	4
1405963	PROB	n/a	LTP336	ltpFR2	10	n/a	n/a	n/a	12	25	8	8	9
1408529	PROB	n/a	LTP336	ltpFR2	10	n/a	n/a	n/a	12	12	1	2	9
1409994	PROB	n/a	LTP336	ltpFR2	10	n/a	n/a	n/a	12	18	8	5	5
1411245	PROB	n/a	LTP336	ltpFR2	10	n/a	n/a	n/a	12	16	2	9	5
1413394	PROB	n/a	LTP336	ltpFR2	10	n/a	n/a	n/a	12	11	3	4	4
1414842	PROB	n/a	LTP336	ltpFR2	10	n/a	n/a	n/a	12	18	4	9	5
1416592	PROB	n/a	LTP336	ltpFR2	10	n/a	n/a	n/a	12	23	9	5	9
1420385	STOP	n/a	LTP336	ltpFR2	10	n/a	n/a	n/a	12	n/a	n/a	n/a	n/a
1422223	REC_START	n/a	LTP336	ltpFR2	10	7	n/a	n/a	n/a	n/a	0	0	0
1422937	REC_WORD	wordpools/wasnorm_wordpool_576.txt	LTP336	ltpFR2	10	7	LEOPARD	812	n/a	n/a	0	0	0
1424147	REC_WORD	wordpools/wasnorm_wordpool_576.txt	LTP336	ltpFR2	10	7	HUMAN	726	n/a	n/a	0	0	0
1425746	REC_WORD	wordpools/wasnorm_wordpool_576.txt	LTP336	ltpFR2	10	7	CASHEW	253	n/a	n/a	0	0	0
1427014	REC_WORD	wordpools/wasnorm_wordpool_576.txt	LTP336	ltpFR2	10	7	PIZZA	1079	n/a	n/a	0	0	0
1428304	REC_WORD	wordpools/wasnorm_wordpool_576.txt	LTP336	ltpFR2	10	7	COD	340	n/a	n/a	0	0	0
1429654	REC_WORD	wordpools/wasnorm_wordpool_576.txt	LTP336	ltpFR2	10	7	HOOK	715	n/a	n/a	0	0	0
1431212	REC_WORD	wordpools/wasnorm_wordpool_576.txt	LTP336	ltpFR2	10	7	PANTHER	1009	n/a	n/a	0	0	0
1432656	REC_WORD	wordpools/wasnorm_wordpool_576.txt	LTP336	ltpFR2	10	7	MILDEW	893	n/a	n/a	0	0	0
1434054	REC_WORD	wordpools/wasnorm_wordpool_576.txt	LTP336	ltpFR2	10	7	TRACTOR	1493	n/a	n/a	0	0	0
1436503	REC_WORD	wordpools/wasnorm_wordpool_576.txt	LTP336	ltpFR2	10	7	TOMBSTONE	1478	n/a	n/a	0	0	0
1438084	REC_WORD	wordpools/wasnorm_wordpool_576.txt	LTP336	ltpFR2	10	7	DUST	508	n/a	n/a	0	0	0
1439316	REC_WORD	wordpools/wasnorm_wordpool_576.txt	LTP336	ltpFR2	10	7	FOREHEAD	592	n/a	n/a	0	0	0
1441121	REC_WORD	wordpools/wasnorm_wordpool_576.txt	LTP336	ltpFR2	10	7	MASK	876	n/a	n/a	0	0	0
1442560	REC_WORD	wordpools/wasnorm_wordpool_576.txt	LTP336	ltpFR2	10	7	BEAKER	104	n/a	n/a	0	0	0
1443682	REC_WORD	wordpools/wasnorm_wordpool_576.txt	LTP336	ltpFR2	10	7	MILK	895	n/a	n/a	0	0	0
1445488	REC_WORD	wordpools/wasnorm_wordpool_576.txt	LTP336	ltpFR2	10	7	GIRL	637	n/a	n/a	0	0	0
1512664	WORD	wordpools/wasnorm_wordpool_576.txt	LTP336	ltpFR2	10	8	RAFT	1159	n/a	n/a	0	0	0
1515164	WORD	wordpools/wasnorm_wordpool_576.txt	LTP336	ltpFR2	10	8	LOVER	846	n/a	n/a	0	0	0
1517762	WORD	wordpools/wasnorm_wordpool_576.txt	LTP336	ltpFR2	10	8	ROD	1203	n/a	n/a	0	0	0
1520195	WORD	wordpools/wasnorm_wordpool_576.txt	LTP336	ltpFR2	10	8	HOOD	714	n/a	n/a	0	0	0
1522860	WORD	wordpools/wasnorm_wordpool_576.txt	LTP336	ltpFR2	10	8	SANDWICH	1232	n/a	n/a	0	0	0
1525625	WORD	wordpools/wasnorm_wordpool_576.txt	LTP336	ltpFR2	10	8	SAUSAGE	1238	n/a	n/a	0	0	0
1528425	WORD	wordpools/wasnorm_wordpool_576.txt	LTP336	ltpFR2	10	8	DENTIST	447	n/a	n/a	0	0	0
1531224	WORD	wordpools/wasnorm_wordpool_576.txt	LTP336	ltpFR2	10	8	POSTAGE	1113	n/a	n/a	0	0	0
1533921	WORD	wordpools/wasnorm_wordpool_576.txt	LTP336	ltpFR2	10	8	PRIMATE	1123	n/a	n/a	0	0	0
1536620	WORD	wordpools/wasnorm_wordpool_576.txt	LTP336	ltpFR2	10	8	JUNGLE	764	n/a	n/a	0	0	0
1539403	WORD	wordpools/wasnorm_wordpool_576.txt	LTP336	ltpFR2	10	8	LAPEL	800	n/a	n/a	0	0	0
1542219	WORD	wordpools/wasnorm_wordpool_576.txt	LTP336	ltpFR2	10	8	SNACK	1331	n/a	n/a	0	0	0
1544916	WORD	wordpools/wasnorm_wordpool_576.txt	LTP336	ltpFR2	10	8	TART	1436	n/a	n/a	0	0	0
1547615	WORD	wordpools/wasnorm_wordpool_576.txt	LTP336	ltpFR2	10	8	DRAGON	492	n/a	n/a	0	0	0
1550365	WORD	wordpools/wasnorm_wordpool_576.txt	LTP336	ltpFR2	10	8	BLUEPRINT	142	n/a	n/a	0	0	0
1552946	WORD	wordpools/wasnorm_wordpool_576.txt	LTP336	ltpFR2	10	8	BUG	187	n/a	n/a	0	0	0
1555712	WORD	wordpools/wasnorm_wordpool_576.txt	LTP336	ltpFR2	10	8	HEART	697	n/a	n/a	0	0	0
1558445	WORD	wordpools/wasnorm_wordpool_576.txt	LTP336	ltpFR2	10	8	SHELF	1280	n/a	n/a	0	0	0
1560926	WORD	wordpools/wasnorm_wordpool_576.txt	LTP336	ltpFR2	10	8	BUBBLE	183	n/a	n/a	0	0	0
1563708	WORD	wordpools/wasnorm_wordpool_576.txt	LTP336	ltpFR2	10	8	CITRUS	313	n/a	n/a	0	0	0
1566391	WORD	wordpools/wasnorm_wordpool_576.txt	LTP336	ltpFR2	10	8	ZEBRA	1635	n/a	n/a	0	0	0
1568989	WORD	wordpools/wasnorm_wordpool_576.txt	LTP336	ltpFR2	10	8	VIRUS	1572	n/a	n/a	0	0	0
1571572	WORD	wordpools/wasnorm_wordpool_576.txt	LTP336	ltpFR2	10	8	PARTNER	1017	n/a	n/a	0	0	0
1574221	WORD	wordpools/wasnorm_wordpool_576.txt	LTP336	ltpFR2	10	8	MOTOR	922	n/a	n/a	0	0	0
1575836	START	n/a	LTP336	ltpFR2	10	n/a	n/a	n/a	13	n/a	n/a	n/a	n/a
1576835	DISTRACTOR	n/a	LTP336	ltpFR2	10	8	n/a	n/a	n/a	n/a	0	0	0
1576852	PROB	n/a	LTP336	ltpFR2	10	n/a	n/a	n/a	13	24	8	9	7
1580235	PROB	n/a	LTP336	ltpFR2	10	n/a	n/a	n/a	13	22	6	8	8
1581916	PROB	n/a	LTP336	ltpFR2	10	n/a	n/a	n/a	13	17	3	7	7
1583533	PROB	n/a	LTP336	ltpFR2	10	n/a	n/a	n/a	13	19	6	7	6
1585232	PROB	n/a	LTP336	ltpFR2	10	n/a	n/a	n/a	13	6	2	3	1
1586864	PROB	n/a	LTP336	ltpFR2	10	n/a	n/a	n/a	13	20	3	8	9
1589963	PROB	n/a	LTP336	ltpFR2	10	n/a	n/a	n/a	13	17	4	6	7
1591563	PROB	n/a	LTP336	ltpFR2	10	n/a	n/a	n/a	13	14	2	6	6
1593844	PROB	n/a	LTP336	ltpFR2	10	n/a	n/a	n/a	13	8	4	3	1
1596377	PROB	n/a	LTP336	ltpFR2	10	n/a	n/a	n/a	13	26	9	8	9
1598950	STOP	n/a	LTP336	ltpFR2	10	n/a	n/a	n/a	13	n/a	n/a	n/a	n/a
1601692	REC_START	n/a	LTP336	ltpFR2	10	8	n/a	n/a	n/a	n/a	0	0	0
1602531	REC_WORD	wordpools/wasnorm_wordpool_576.txt	LTP336	ltpFR2	10	8	CITRUS	313	n/a	n/a	0	0	0
1603742	REC_WORD	wordpools/wasnorm_wordpool_576.txt	LTP336	ltpFR2	10	8	ZEBRA	1635	n/a	n/a	0	0	0
1605538	REC_WORD	wordpools/wasnorm_wordpool_576.txt	LTP336	ltpFR2	10	8	VIRUS	1572	n/a	n/a	0	0	0
1607214	REC_WORD	wordpools/wasnorm_wordpool_576.txt	LTP336	ltpFR2	10	8	SAUSAGE	1238	n/a	n/a	0	0	0
1608597	REC_WORD	wordpools/wasnorm_wordpool_576.txt	LTP336	ltpFR2	10	8	LOVER	846	n/a	n/a	0	0	0
1678240	REST_REWET	n/a	LTP336	ltpFR2	10	8	n/a	n/a	n/a	n/a	0	0	0
1745059	WORD	wordpools/wasnorm_wordpool_576.txt	LTP336	ltpFR2	10	9	MATCH	878	n/a	n/a	0	0	0
1747525	WORD	wordpools/wasnorm_wordpool_576.txt	LTP336	ltpFR2	10	9	DRINK	498	n/a	n/a	0	0	0
1750007	WORD	wordpools/wasnorm_wordpool_576.txt	LTP336	ltpFR2	10	9	TUTU	1524	n/a	n/a	0	0	0
1752605	WORD	wordpools/wasnorm_wordpool_576.txt	LTP336	ltpFR2	10	9	SPHINX	1349	n/a	n/a	0	0	0
1755155	WORD	wordpools/wasnorm_wordpool_576.txt	LTP336	ltpFR2	10	9	LION	827	n/a	n/a	0	0	0
1757736	WORD	wordpools/wasnorm_wordpool_576.txt	LTP336	ltpFR2	10	9	LAVA	804	n/a	n/a	0	0	0
1760553	WORD	wordpools/wasnorm_wordpool_576.txt	LTP336	ltpFR2	10	9	HUSBAND	728	n/a	n/a	0	0	0
1763202	WORD	wordpools/wasnorm_wordpool_576.txt	LTP336	ltpFR2	10	9	COSTUME	383	n/a	n/a	0	0	0
1765949	WORD	wordpools/wasnorm_wordpool_576.txt	LTP336	ltpFR2	10	9	RIFLE	1192	n/a	n/a	0	0	0
1768665	WORD	wordpools/wasnorm_wordpool_576.txt	LTP336	ltpFR2	10	9	BULLET	194	n/a	n/a	0	0	0
1771331	WORD	wordpools/wasnorm_wordpool_576.txt	LTP336	ltpFR2	10	9	CRAB	397	n/a	n/a	0	0	0
1774080	WORD	wordpools/wasnorm_wordpool_576.txt	LTP336	ltpFR2	10	9	PARSLEY	1016	n/a	n/a	0	0	0
1776761	WORD	wordpools/wasnorm_wordpool_576.txt	LTP336	ltpFR2	10	9	CROWN	415	n/a	n/a	0	0	0
1779478	WORD	wordpools/wasnorm_wordpool_576.txt	LTP336	ltpFR2	10	9	FINGER	567	n/a	n/a	0	0	0
1782042	WORD	wordpools/wasnorm_wordpool_576.txt	LTP336	ltpFR2	10	9	DIVER	476	n/a	n/a	0	0	0
1784658	WORD	wordpools/wasnorm_wordpool_576.txt	LTP336	ltpFR2	10	9	SURVEY	1414	n/a	n/a	0	0	0
1787224	WORD	wordpools/wasnorm_wordpool_576.txt	LTP336	ltpFR2	10	9	CRICKET	408	n/a	n/a	0	0	0
1789889	WORD	wordpools/wasnorm_wordpool_576.txt	LTP336	ltpFR2	10	9	PASTA	1021	n/a	n/a	0	0	0
1792438	WORD	wordpools/wasnorm_wordpool_576.txt	LTP336	ltpFR2	10	9	RACKET	1155	n/a	n/a	0	0	0
1794870	WORD	wordpools/wasnorm_wordpool_576.txt	LTP336	ltpFR2	10	9	HOSTESS	723	n/a	n/a	0	0	0
1797353	WORD	wordpools/wasnorm_wordpool_576.txt	LTP336	ltpFR2	10	9	THRONE	1461	n/a	n/a	0	0	0
1799934	WORD	wordpools/wasnorm_wordpool_576.txt	LTP336	ltpFR2	10	9	JELLY	755	n/a	n/a	0	0	0
1802567	WORD	wordpools/wasnorm_wordpool_576.txt	LTP336	ltpFR2	10	9	TURKEY	1520	n/a	n/a	0	0	0
1805382	WORD	wordpools/wasnorm_wordpool_576.txt	LTP336	ltpFR2	10	9	PLATE	1086	n/a	n/a	0	0	0
1806998	START	n/a	LTP336	ltpFR2	10	n/a	n/a	n/a	14	n/a	n/a	n/a	n/a
1807848	DISTRACTOR	n/a	LTP336	ltpFR2	10	9	n/a	n/a	n/a	n/a	0	0	0
1807864	PROB	n/a	LTP336	ltpFR2	10	n/a	n/a	n/a	14	22	7	6	9
1814195	PROB	n/a	LTP336	ltpFR2	10	n/a	n/a	n/a	14	5	3	1	1
1815595	PROB	n/a	LTP336	ltpFR2	10	n/a	n/a	n/a	14	8	6	1	1
1816826	PROB	n/a	LTP336	ltpFR2	10	n/a	n/a	n/a	14	5	2	1	2
1818193	PROB	n/a	LTP336	ltpFR2	10	n/a	n/a	n/a	14	18	9	6	3
1820476	PROB	n/a	LTP336	ltpFR2	10	n/a	n/a	n/a	14	12	1	4	7
1822057	PROB	n/a	LTP336	ltpFR2	10	n/a	n/a	n/a	14	12	3	8	1
1823823	PROB	n/a	LTP336	ltpFR2	10	n/a	n/a	n/a	14	14	2	7	5
1826390	PROB	n/a	LTP336	ltpFR2	10	n/a	n/a	n/a	14	22	8	7	7
1827921	PROB	n/a	LTP336	ltpFR2	10	n/a	n/a	n/a	14	12	7	3	2
1830998	STOP	n/a	LTP336	ltpFR2	10	n/a	n/a	n/a	14	n/a	n/a	n/a	n/a
1832770	REC_START	n/a	LTP336	ltpFR2	10	9	n/a	n/a	n/a	n/a	0	0	0
1833451	REC_WORD	wordpools/wasnorm_wordpool_576.txt	LTP336	ltpFR2	10	9	HOSTESS	723	n/a	n/a	0	0	0
1834694	REC_WORD	wordpools/wasnorm_wordpool_576.txt	LTP336	ltpFR2	10	9	THRONE	1461	n/a	n/a	0	0	0
1836118	REC_WORD	wordpools/wasnorm_wordpool_576.txt	LTP336	ltpFR2	10	9	JELLY	755	n/a	n/a	0	0	0
1838187	REC_WORD	wordpools/wasnorm_wordpool_576.txt	LTP336	ltpFR2	10	9	TURKEY	1520	n/a	n/a	0	0	0
1839568	REC_WORD	wordpools/wasnorm_wordpool_576.txt	LTP336	ltpFR2	10	9	MATCH	878	n/a	n/a	0	0	0
1841077	REC_WORD	wordpools/wasnorm_wordpool_576.txt	LTP336	ltpFR2	10	9	HUSBAND	728	n/a	n/a	0	0	0
1842502	REC_WORD	wordpools/wasnorm_wordpool_576.txt	LTP336	ltpFR2	10	9	CRAB	397	n/a	n/a	0	0	0
1843968	REC_WORD	wordpools/wasnorm_wordpool_576.txt	LTP336	ltpFR2	10	9	PARSLEY	1016	n/a	n/a	0	0	0
1845378	REC_WORD	wordpools/wasnorm_wordpool_576.txt	LTP336	ltpFR2	10	9	CROWN	415	n/a	n/a	0	0	0
1846589	REC_WORD	wordpools/wasnorm_wordpool_576.txt	LTP336	ltpFR2	10	9	FINGER	567	n/a	n/a	0	0	0
1923212	WORD	wordpools/wasnorm_wordpool_576.txt	LTP336	ltpFR2	10	10	VALLEY	1545	n/a	n/a	0	0	0
1925994	WORD	wordpools/wasnorm_wordpool_576.txt	LTP336	ltpFR2	10	10	DANCER	437	n/a	n/a	0	0	0
1928692	WORD	wordpools/wasnorm_wordpool_576.txt	LTP336	ltpFR2	10	10	SPOOL	1356	n/a	n/a	0	0	0
1931242	WORD	wordpools/wasnorm_wordpool_576.txt	LTP336	ltpFR2	10	10	THREAD	1460	n/a	n/a	0	0	0
1933807	WORD	wordpools/wasnorm_wordpool_576.txt	LTP336	ltpFR2	10	10	FLASHLIGHT	575	n/a	n/a	0	0	0
1936356	WORD	wordpools/wasnorm_wordpool_576.txt	LTP336	ltpFR2	10	10	LAMP	798	n/a	n/a	0	0	0
1939054	WORD	wordpools/wasnorm_wordpool_576.txt	LTP336	ltpFR2	10	10	TORTOISE	1486	n/a	n/a	0	0	0
1941803	WORD	wordpools/wasnorm_wordpool_576.txt	LTP336	ltpFR2	10	10	TWEEZERS	1526	n/a	n/a	0	0	0
1944303	WORD	wordpools/wasnorm_wordpool_576.txt	LTP336	ltpFR2	10	10	ORANGE	980	n/a	n/a	0	0	0
1946734	WORD	wordpools/wasnorm_wordpool_576.txt	LTP336	ltpFR2	10	10	BASEMENT	94	n/a	n/a	0	0	0
1949167	WORD	wordpools/wasnorm_wordpool_576.txt	LTP336	ltpFR2	10	10	SEAL	1262	n/a	n/a	0	0	0
1951649	WORD	wordpools/wasnorm_wordpool_576.txt	LTP336	ltpFR2	10	10	BEAST	108	n/a	n/a	0	0	0
1954115	WORD	wordpools/wasnorm_wordpool_576.txt	LTP336	ltpFR2	10	10	BRICK	172	n/a	n/a	0	0	0
1956829	WORD	wordpools/wasnorm_wordpool_576.txt	LTP336	ltpFR2	10	10	KEEPER	769	n/a	n/a	0	0	0
1959628	WORD	wordpools/wasnorm_wordpool_576.txt	LTP336	ltpFR2	10	10	ONION	977	n/a	n/a	0	0	0
1962195	WORD	wordpools/wasnorm_wordpool_576.txt	LTP336	ltpFR2	10	10	XEROX	1628	n/a	n/a	0	0	0
1964793	WORD	wordpools/wasnorm_wordpool_576.txt	LTP336	ltpFR2	10	10	BODY	145	n/a	n/a	0	0	0
1967342	WORD	wordpools/wasnorm_wordpool_576.txt	LTP336	ltpFR2	10	10	SUNRISE	1407	n/a	n/a	0	0	0
1969824	WORD	wordpools/wasnorm_wordpool_576.txt	LTP336	ltpFR2	10	10	CELLAR	267	n/a	n/a	0	0	0
1972523	WORD	wordpools/wasnorm_wordpool_576.txt	LTP336	ltpFR2	10	10	EUROPE	541	n/a	n/a	0	0	0
1975004	WORD	wordpools/wasnorm_wordpool_576.txt	LTP336	ltpFR2	10	10	ULCER	1533	n/a	n/a	0	0	0
1977653	WORD	wordpools/wasnorm_wordpool_576.txt	LTP336	ltpFR2	10	10	STICKER	1382	n/a	n/a	0	0	0
1980370	WORD	wordpools/wasnorm_wordpool_576.txt	LTP336	ltpFR2	10	10	FRAME	600	n/a	n/a	0	0	0
1983119	WORD	wordpools/wasnorm_wordpool_576.txt	LTP336	ltpFR2	10	10	YARN	1631	n/a	n/a	0	0	0
1984734	START	n/a	LTP336	ltpFR2	10	n/a	n/a	n/a	15	n/a	n/a	n/a	n/a
1985569	DISTRACTOR	n/a	LTP336	ltpFR2	10	10	n/a	n/a	n/a	n/a	0	0	0
1985584	PROB	n/a	LTP336	ltpFR2	10	n/a	n/a	n/a	15	23	7	7	9
1988882	PROB	n/a	LTP336	ltpFR2	10	n/a	n/a	n/a	15	18	6	3	9
1990399	PROB	n/a	LTP336	ltpFR2	10	n/a	n/a	n/a	15	13	4	7	2
1991880	PROB	n/a	LTP336	ltpFR2	10	n/a	n/a	n/a	15	19	8	2	9
1993264	PROB	n/a	LTP336	ltpFR2	10	n/a	n/a	n/a	15	5	1	2	2
1994679	PROB	n/a	LTP336	ltpFR2	10	n/a	n/a	n/a	15	19	8	2	9
1996028	PROB	n/a	LTP336	ltpFR2	10	n/a	n/a	n/a	15	12	1	3	8
1997379	PROB	n/a	LTP336	ltpFR2	10	n/a	n/a	n/a	15	22	5	9	8
2000043	PROB	n/a	LTP336	ltpFR2	10	n/a	n/a	n/a	15	15	8	6	1
2001460	PROB	n/a	LTP336	ltpFR2	10	n/a	n/a	n/a	15	7	4	2	1
2003326	PROB	n/a	LTP336	ltpFR2	10	n/a	n/a	n/a	15	18	7	6	5
2005924	PROB	n/a	LTP336	ltpFR2	10	n/a	n/a	n/a	15	6	1	2	3
2007348	STOP	n/a	LTP336	ltpFR2	10	n/a	n/a	n/a	15	n/a	n/a	n/a	n/a
2010573	REC_START	n/a	LTP336	ltpFR2	10	10	n/a	n/a	n/a	n/a	0	0	0
2011069	REC_WORD	wordpools/wasnorm_wordpool_576.txt	LTP336	ltpFR2	10	10	YARN	1631	n/a	n/a	0	0	0
2012120	REC_WORD	wordpools/wasnorm_wordpool_576.txt	LTP336	ltpFR2	10	10	XEROX	1628	n/a	n/a	0	0	0
2100997	DISTRACTOR	n/a	LTP336	ltpFR2	10	11	n/a	n/a	n/a	n/a	0	0	0
2100998	START	n/a	LTP336	ltpFR2	10	n/a	n/a	n/a	16	n/a	n/a	n/a	n/a
2101014	PROB	n/a	LTP336	ltpFR2	10	n/a	n/a	n/a	16	13	5	4	4
2103913	PROB	n/a	LTP336	ltpFR2	10	n/a	n/a	n/a	16	10	4	2	4
2105945	PROB	n/a	LTP336	ltpFR2	10	n/a	n/a	n/a	16	10	3	3	4
2107878	PROB	n/a	LTP336	ltpFR2	10	n/a	n/a	n/a	16	15	8	4	1
2109461	PROB	n/a	LTP336	ltpFR2	10	n/a	n/a	n/a	16	10	4	1	5
2111177	PROB	n/a	LTP336	ltpFR2	10	n/a	n/a	n/a	16	11	6	3	2
2113293	PROB	n/a	LTP336	ltpFR2	10	n/a	n/a	n/a	16	14	7	2	5
2114924	PROB	n/a	LTP336	ltpFR2	10	n/a	n/a	n/a	16	14	2	8	4
2116690	PROB	n/a	LTP336	ltpFR2	10	n/a	n/a	n/a	16	8	1	3	4
2119140	PROB	n/a	LTP336	ltpFR2	10	n/a	n/a	n/a	16	15	1	9	5
2120506	PROB	n/a	LTP336	ltpFR2	10	n/a	n/a	n/a	16	23	7	8	8
2124998	STOP	n/a	LTP336	ltpFR2	10	n/a	n/a	n/a	16	n/a	n/a	n/a	n/a
2126120	WORD	wordpools/wasnorm_wordpool_576.txt	LTP336	ltpFR2	10	11	BUTCHER	203	n/a	n/a	0	0	0
2128718	WORD	wordpools/wasnorm_wordpool_576.txt	LTP336	ltpFR2	10	11	MEAT	883	n/a	n/a	0	0	0
2131518	WORD	wordpools/wasnorm_wordpool_576.txt	LTP336	ltpFR2	10	11	MONEY	908	n/a	n/a	0	0	0
2134183	WORD	wordpools/wasnorm_wordpool_576.txt	LTP336	ltpFR2	10	11	MAILBOX	857	n/a	n/a	0	0	0
2136964	WORD	wordpools/wasnorm_wordpool_576.txt	LTP336	ltpFR2	10	11	CATTLE	261	n/a	n/a	0	0	0
2139414	WORD	wordpools/wasnorm_wordpool_576.txt	LTP336	ltpFR2	10	11	LIVER	833	n/a	n/a	0	0	0
2142230	WORD	wordpools/wasnorm_wordpool_576.txt	LTP336	ltpFR2	10	11	HAWK	692	n/a	n/a	0	0	0
2144694	WORD	wordpools/wasnorm_wordpool_576.txt	LTP336	ltpFR2	10	11	SCALLOP	1242	n/a	n/a	0	0	0
2147494	WORD	wordpools/wasnorm_wordpool_576.txt	LTP336	ltpFR2	10	11	BADGE	68	n/a	n/a	0	0	0
2150025	WORD	wordpools/wasnorm_wordpool_576.txt	LTP336	ltpFR2	10	11	AGENT	10	n/a	n/a	0	0	0
2152757	WORD	wordpools/wasnorm_wordpool_576.txt	LTP336	ltpFR2	10	11	SCOTCH	1251	n/a	n/a	0	0	0
2155257	WORD	wordpools/wasnorm_wordpool_576.txt	LTP336	ltpFR2	10	11	LEADER	807	n/a	n/a	0	0	0
2157955	WORD	wordpools/wasnorm_wordpool_576.txt	LTP336	ltpFR2	10	11	GUARD	667	n/a	n/a	0	0	0
2160505	WORD	wordpools/wasnorm_wordpool_576.txt	LTP336	ltpFR2	10	11	BRANDY	169	n/a	n/a	0	0	0
2163053	WORD	wordpools/wasnorm_wordpool_576.txt	LTP336	ltpFR2	10	11	TWISTER	1530	n/a	n/a	0	0	0
2165801	WORD	wordpools/wasnorm_wordpool_576.txt	LTP336	ltpFR2	10	11	CROSS	413	n/a	n/a	0	0	0
2168617	WORD	wordpools/wasnorm_wordpool_576.txt	LTP336	ltpFR2	10	11	BALLOON	75	n/a	n/a	0	0	0
2171366	WORD	wordpools/wasnorm_wordpool_576.txt	LTP336	ltpFR2	10	11	NIGHTGOWN	953	n/a	n/a	0	0	0
2174031	WORD	wordpools/wasnorm_wordpool_576.txt	LTP336	ltpFR2	10	11	LUMBER	848	n/a	n/a	0	0	0
2176813	WORD	wordpools/wasnorm_wordpool_576.txt	LTP336	ltpFR2	10	11	AWARD	63	n/a	n/a	0	0	0
2179330	WORD	wordpools/wasnorm_wordpool_576.txt	LTP336	ltpFR2	10	11	COTTAGE	384	n/a	n/a	0	0	0
2181927	WORD	wordpools/wasnorm_wordpool_576.txt	LTP336	ltpFR2	10	11	OINTMENT	974	n/a	n/a	0	0	0
2184394	WORD	wordpools/wasnorm_wordpool_576.txt	LTP336	ltpFR2	10	11	GAVEL	627	n/a	n/a	0	0	0
2187093	WORD	wordpools/wasnorm_wordpool_576.txt	LTP336	ltpFR2	10	11	SALMON	1227	n/a	n/a	0	0	0
2188708	START	n/a	LTP336	ltpFR2	10	n/a	n/a	n/a	17	n/a	n/a	n/a	n/a
2189601	DISTRACTOR	n/a	LTP336	ltpFR2	10	11	n/a	n/a	n/a	n/a	0	0	0
2189607	PROB	n/a	LTP336	ltpFR2	10	n/a	n/a	n/a	17	15	9	1	5
2191856	PROB	n/a	LTP336	ltpFR2	10	n/a	n/a	n/a	17	10	5	4	1
2193390	PROB	n/a	LTP336	ltpFR2	10	n/a	n/a	n/a	17	15	1	7	7
2194638	PROB	n/a	LTP336	ltpFR2	10	n/a	n/a	n/a	17	11	5	2	4
2196172	PROB	n/a	LTP336	ltpFR2	10	n/a	n/a	n/a	17	5	2	2	1
2197471	PROB	n/a	LTP336	ltpFR2	10	n/a	n/a	n/a	17	14	4	5	5
2198703	PROB	n/a	LTP336	ltpFR2	10	n/a	n/a	n/a	17	11	2	3	6
2201153	PROB	n/a	LTP336	ltpFR2	10	n/a	n/a	n/a	17	15	2	4	9
2204967	PROB	n/a	LTP336	ltpFR2	10	n/a	n/a	n/a	17	13	4	5	4
2206733	PROB	n/a	LTP336	ltpFR2	10	n/a	n/a	n/a	17	10	1	6	3
2208032	PROB	n/a	LTP336	ltpFR2	10	n/a	n/a	n/a	17	15	4	7	4
2212708	STOP	n/a	LTP336	ltpFR2	10	n/a	n/a	n/a	17	n/a	n/a	n/a	n/a
2214598	REC_START	n/a	LTP336	ltpFR2	10	11	n/a	n/a	n/a	n/a	0	0	0
2215299	REC_WORD	wordpools/wasnorm_wordpool_576.txt	LTP336	ltpFR2	10	11	CATTLE	261	n/a	n/a	0	0	0
2216284	REC_WORD	wordpools/wasnorm_wordpool_576.txt	LTP336	ltpFR2	10	11	SALMON	1227	n/a	n/a	0	0	0
2217481	REC_WORD	wordpools/wasnorm_wordpool_576.txt	LTP336	ltpFR2	10	11	AWARD	63	n/a	n/a	0	0	0
2218946	REC_WORD	wordpools/wasnorm_wordpool_576.txt	LTP336	ltpFR2	10	11	COTTAGE	384	n/a	n/a	0	0	0
2220101	REC_WORD	wordpools/wasnorm_wordpool_576.txt	LTP336	ltpFR2	10	11	OINTMENT	974	n/a	n/a	0	0	0
2221417	REC_WORD	wordpools/wasnorm_wordpool_576.txt	LTP336	ltpFR2	10	11	BALLOON	75	n/a	n/a	0	0	0
2222487	REC_WORD	wordpools/wasnorm_wordpool_576.txt	LTP336	ltpFR2	10	11	NIGHTGOWN	953	n/a	n/a	0	0	0
2223671	REC_WORD	wordpools/wasnorm_wordpool_576.txt	LTP336	ltpFR2	10	11	LUMBER	848	n/a	n/a	0	0	0
2225200	REC_WORD	wordpools/wasnorm_wordpool_576.txt	LTP336	ltpFR2	10	11	AGENT	10	n/a	n/a	0	0	0
2226502	REC_WORD	wordpools/wasnorm_wordpool_576.txt	LTP336	ltpFR2	10	11	BADGE	68	n/a	n/a	0	0	0
2227513	REC_WORD	wordpools/wasnorm_wordpool_576.txt	LTP336	ltpFR2	10	11	SCOTCH	1251	n/a	n/a	0	0	0
2228740	REC_WORD	wordpools/wasnorm_wordpool_576.txt	LTP336	ltpFR2	10	11	WHISKY	-1	n/a	n/a	0	0	0
2230469	REC_WORD	wordpools/wasnorm_wordpool_576.txt	LTP336	ltpFR2	10	11	TWISTER	1530	n/a	n/a	0	0	0
2231862	REC_WORD	wordpools/wasnorm_wordpool_576.txt	LTP336	ltpFR2	10	11	LEADER	807	n/a	n/a	0	0	0
2234131	REC_WORD	wordpools/wasnorm_wordpool_576.txt	LTP336	ltpFR2	10	11	CROSS	413	n/a	n/a	0	0	0
2305038	WORD	wordpools/wasnorm_wordpool_576.txt	LTP336	ltpFR2	10	12	MUFFIN	929	n/a	n/a	0	0	0
2307770	WORD	wordpools/wasnorm_wordpool_576.txt	LTP336	ltpFR2	10	12	HIKER	708	n/a	n/a	0	0	0
2310337	WORD	wordpools/wasnorm_wordpool_576.txt	LTP336	ltpFR2	10	12	TREAT	1501	n/a	n/a	0	0	0
2312951	WORD	wordpools/wasnorm_wordpool_576.txt	LTP336	ltpFR2	10	12	SADDLE	1221	n/a	n/a	0	0	0
2315633	WORD	wordpools/wasnorm_wordpool_576.txt	LTP336	ltpFR2	10	12	POISON	1096	n/a	n/a	0	0	0
2318450	WORD	wordpools/wasnorm_wordpool_576.txt	LTP336	ltpFR2	10	12	STATUE	1374	n/a	n/a	0	0	0
2320998	WORD	wordpools/wasnorm_wordpool_576.txt	LTP336	ltpFR2	10	12	RADISH	1158	n/a	n/a	0	0	0
2323597	WORD	wordpools/wasnorm_wordpool_576.txt	LTP336	ltpFR2	10	12	DRILL	497	n/a	n/a	0	0	0
2326180	WORD	wordpools/wasnorm_wordpool_576.txt	LTP336	ltpFR2	10	12	KETCHUP	771	n/a	n/a	0	0	0
2328761	WORD	wordpools/wasnorm_wordpool_576.txt	LTP336	ltpFR2	10	12	FOOT	590	n/a	n/a	0	0	0
2331227	WORD	wordpools/wasnorm_wordpool_576.txt	LTP336	ltpFR2	10	12	TYPIST	1532	n/a	n/a	0	0	0
2333992	WORD	wordpools/wasnorm_wordpool_576.txt	LTP336	ltpFR2	10	12	WORKER	1621	n/a	n/a	0	0	0
2336475	WORD	wordpools/wasnorm_wordpool_576.txt	LTP336	ltpFR2	10	12	PEANUT	1032	n/a	n/a	0	0	0
2338956	WORD	wordpools/wasnorm_wordpool_576.txt	LTP336	ltpFR2	10	12	CRATER	400	n/a	n/a	0	0	0
2341556	WORD	wordpools/wasnorm_wordpool_576.txt	LTP336	ltpFR2	10	12	WORLD	1622	n/a	n/a	0	0	0
2344071	WORD	wordpools/wasnorm_wordpool_576.txt	LTP336	ltpFR2	10	12	GLOBE	641	n/a	n/a	0	0	0
2346819	WORD	wordpools/wasnorm_wordpool_576.txt	LTP336	ltpFR2	10	12	COBRA	336	n/a	n/a	0	0	0
2349369	WORD	wordpools/wasnorm_wordpool_576.txt	LTP336	ltpFR2	10	12	HIGHWAY	707	n/a	n/a	0	0	0
2351800	WORD	wordpools/wasnorm_wordpool_576.txt	LTP336	ltpFR2	10	12	OZONE	996	n/a	n/a	0	0	0
2354550	WORD	wordpools/wasnorm_wordpool_576.txt	LTP336	ltpFR2	10	12	KNAPSACK	783	n/a	n/a	0	0	0
2357332	WORD	wordpools/wasnorm_wordpool_576.txt	LTP336	ltpFR2	10	12	TEACHER	1440	n/a	n/a	0	0	0
2359946	WORD	wordpools/wasnorm_wordpool_576.txt	LTP336	ltpFR2	10	12	JURY	766	n/a	n/a	0	0	0
2362446	WORD	wordpools/wasnorm_wordpool_576.txt	LTP336	ltpFR2	10	12	BRIEFCASE	175	n/a	n/a	0	0	0
2365095	WORD	wordpools/wasnorm_wordpool_576.txt	LTP336	ltpFR2	10	12	SCARECROW	1245	n/a	n/a	0	0	0
2366727	START	n/a	LTP336	ltpFR2	10	n/a	n/a	n/a	18	n/a	n/a	n/a	n/a
2367771	DISTRACTOR	n/a	LTP336	ltpFR2	10	12	n/a	n/a	n/a	n/a	0	0	0
2367776	PROB	n/a	LTP336	ltpFR2	10	n/a	n/a	n/a	18	12	8	3	1
2370093	PROB	n/a	LTP336	ltpFR2	10	n/a	n/a	n/a	18	14	2	5	7
2372309	PROB	n/a	LTP336	ltpFR2	10	n/a	n/a	n/a	18	12	9	1	2
2373591	PROB	n/a	LTP336	ltpFR2	10	n/a	n/a	n/a	18	11	9	1	1
2374856	PROB	n/a	LTP336	ltpFR2	10	n/a	n/a	n/a	18	21	8	9	4
2378206	PROB	n/a	LTP336	ltpFR2	10	n/a	n/a	n/a	18	17	8	1	8
2380138	PROB	n/a	LTP336	ltpFR2	10	n/a	n/a	n/a	18	10	1	1	8
2381371	PROB	n/a	LTP336	ltpFR2	10	n/a	n/a	n/a	18	18	4	9	5
2383053	PROB	n/a	LTP336	ltpFR2	10	n/a	n/a	n/a	18	6	3	1	2
2386001	PROB	n/a	LTP336	ltpFR2	10	n/a	n/a	n/a	18	10	6	1	3
2387402	PROB	n/a	LTP336	ltpFR2	10	n/a	n/a	n/a	18	23	6	8	9
2390638	STOP	n/a	LTP336	ltpFR2	10	n/a	n/a	n/a	18	n/a	n/a	n/a	n/a
2392665	REC_START	n/a	LTP336	ltpFR2	10	12	n/a	n/a	n/a	n/a	0	0	0
2393474	REC_WORD	wordpools/wasnorm_wordpool_576.txt	LTP336	ltpFR2	10	12	SCARECROW	1245	n/a	n/a	0	0	0
2395286	REC_WORD	wordpools/wasnorm_wordpool_576.txt	LTP336	ltpFR2	10	12	RADISH	1158	n/a	n/a	0	0	0
2396741	REC_WORD	wordpools/wasnorm_wordpool_576.txt	LTP336	ltpFR2	10	12	KNAPSACK	783	n/a	n/a	0	0	0
2398464	REC_WORD	wordpools/wasnorm_wordpool_576.txt	LTP336	ltpFR2	10	12	TEACHER	1440	n/a	n/a	0	0	0
2400136	REC_WORD	wordpools/wasnorm_wordpool_576.txt	LTP336	ltpFR2	10	12	JURY	766	n/a	n/a	0	0	0
2401691	REC_WORD	wordpools/wasnorm_wordpool_576.txt	LTP336	ltpFR2	10	12	BRIEFCASE	175	n/a	n/a	0	0	0
2402691	REC_WORD_VV	wordpools/wasnorm_wordpool_576.txt	LTP336	ltpFR2	10	12	<>	-1	n/a	n/a	0	0	0
2483125	WORD	wordpools/wasnorm_wordpool_576.txt	LTP336	ltpFR2	10	13	ZIPPER	1636	n/a	n/a	0	0	0
2485789	WORD	wordpools/wasnorm_wordpool_576.txt	LTP336	ltpFR2	10	13	BABY	64	n/a	n/a	0	0	0
2488605	WORD	wordpools/wasnorm_wordpool_576.txt	LTP336	ltpFR2	10	13	PARENT	1013	n/a	n/a	0	0	0
2491188	WORD	wordpools/wasnorm_wordpool_576.txt	LTP336	ltpFR2	10	13	FRIAR	605	n/a	n/a	0	0	0
2493619	WORD	wordpools/wasnorm_wordpool_576.txt	LTP336	ltpFR2	10	13	CATCHER	258	n/a	n/a	0	0	0
2496286	WORD	wordpools/wasnorm_wordpool_576.txt	LTP336	ltpFR2	10	13	BLOUSE	139	n/a	n/a	0	0	0
2499101	WORD	wordpools/wasnorm_wordpool_576.txt	LTP336	ltpFR2	10	13	DRESS	495	n/a	n/a	0	0	0
2501815	WORD	wordpools/wasnorm_wordpool_576.txt	LTP336	ltpFR2	10	13	MESSAGE	888	n/a	n/a	0	0	0
2504614	WORD	wordpools/wasnorm_wordpool_576.txt	LTP336	ltpFR2	10	13	SOFTBALL	1343	n/a	n/a	0	0	0
2507231	WORD	wordpools/wasnorm_wordpool_576.txt	LTP336	ltpFR2	10	13	MUSTARD	935	n/a	n/a	0	0	0
2509962	WORD	wordpools/wasnorm_wordpool_576.txt	LTP336	ltpFR2	10	13	RELISH	1183	n/a	n/a	0	0	0
2512528	WORD	wordpools/wasnorm_wordpool_576.txt	LTP336	ltpFR2	10	13	COOK	372	n/a	n/a	0	0	0
2515177	WORD	wordpools/wasnorm_wordpool_576.txt	LTP336	ltpFR2	10	13	FRUIT	610	n/a	n/a	0	0	0
2517725	WORD	wordpools/wasnorm_wordpool_576.txt	LTP336	ltpFR2	10	13	PUDDING	1139	n/a	n/a	0	0	0
2520425	WORD	wordpools/wasnorm_wordpool_576.txt	LTP336	ltpFR2	10	13	SKIRT	1319	n/a	n/a	0	0	0
2523006	WORD	wordpools/wasnorm_wordpool_576.txt	LTP336	ltpFR2	10	13	CAMEL	223	n/a	n/a	0	0	0
2525472	WORD	wordpools/wasnorm_wordpool_576.txt	LTP336	ltpFR2	10	13	ACTOR	5	n/a	n/a	0	0	0
2528154	WORD	wordpools/wasnorm_wordpool_576.txt	LTP336	ltpFR2	10	13	ROBOT	1200	n/a	n/a	0	0	0
2530619	WORD	wordpools/wasnorm_wordpool_576.txt	LTP336	ltpFR2	10	13	OUTDOORS	987	n/a	n/a	0	0	0
2533269	WORD	wordpools/wasnorm_wordpool_576.txt	LTP336	ltpFR2	10	13	JOURNAL	760	n/a	n/a	0	0	0
2535750	WORD	wordpools/wasnorm_wordpool_576.txt	LTP336	ltpFR2	10	13	GRAPE	654	n/a	n/a	0	0	0
2538233	WORD	wordpools/wasnorm_wordpool_576.txt	LTP336	ltpFR2	10	13	BUCKET	184	n/a	n/a	0	0	0
2540714	WORD	wordpools/wasnorm_wordpool_576.txt	LTP336	ltpFR2	10	13	LUNCH	849	n/a	n/a	0	0	0
2543214	WORD	wordpools/wasnorm_wordpool_576.txt	LTP336	ltpFR2	10	13	CIGAR	308	n/a	n/a	0	0	0
2544829	START	n/a	LTP336	ltpFR2	10	n/a	n/a	n/a	19	n/a	n/a	n/a	n/a
2545717	DISTRACTOR	n/a	LTP336	ltpFR2	10	13	n/a	n/a	n/a	n/a	0	0	0
2545729	PROB	n/a	LTP336	ltpFR2	10	n/a	n/a	n/a	19	14	1	9	4
2548395	PROB	n/a	LTP336	ltpFR2	10	n/a	n/a	n/a	19	19	8	9	2
2551094	PROB	n/a	LTP336	ltpFR2	10	n/a	n/a	n/a	19	14	5	1	8
2554209	PROB	n/a	LTP336	ltpFR2	10	n/a	n/a	n/a	19	18	8	6	4
2556175	PROB	n/a	LTP336	ltpFR2	10	n/a	n/a	n/a	19	9	2	6	1
2558557	PROB	n/a	LTP336	ltpFR2	10	n/a	n/a	n/a	19	18	8	9	1
2560407	PROB	n/a	LTP336	ltpFR2	10	n/a	n/a	n/a	19	11	2	7	2
2562621	PROB	n/a	LTP336	ltpFR2	10	n/a	n/a	n/a	19	15	8	2	5
2564305	PROB	n/a	LTP336	ltpFR2	10	n/a	n/a	n/a	19	19	5	6	8
2566254	PROB	n/a	LTP336	ltpFR2	10	n/a	n/a	n/a	19	19	6	8	5
2568788	STOP	n/a	LTP336	ltpFR2	10	n/a	n/a	n/a	19	n/a	n/a	n/a	n/a
2570601	REC_START	n/a	LTP336	ltpFR2	10	13	n/a	n/a	n/a	n/a	0	0	0
2570943	REC_WORD	wordpools/wasnorm_wordpool_576.txt	LTP336	ltpFR2	10	13	CIGAR	308	n/a	n/a	0	0	0
2572777	REC_WORD	wordpools/wasnorm_wordpool_576.txt	LTP336	ltpFR2	10	13	SOFTBALL	1343	n/a	n/a	0	0	0
2573777	REC_WORD_VV	wordpools/wasnorm_wordpool_576.txt	LTP336	ltpFR2	10	13	<>	-1	n/a	n/a	0	0	0
2574911	REC_WORD	wordpools/wasnorm_wordpool_576.txt	LTP336	ltpFR2	10	13	RELISH	1183	n/a	n/a	0	0	0
2576361	REC_WORD	wordpools/wasnorm_wordpool_576.txt	LTP336	ltpFR2	10	13	MUSTARD	935	n/a	n/a	0	0	0
2577846	REC_WORD	wordpools/wasnorm_wordpool_576.txt	LTP336	ltpFR2	10	13	FRUIT	610	n/a	n/a	0	0	0
2579157	REC_WORD	wordpools/wasnorm_wordpool_576.txt	LTP336	ltpFR2	10	13	PUDDING	1139	n/a	n/a	0	0	0
2581601	REC_WORD	wordpools/wasnorm_wordpool_576.txt	LTP336	ltpFR2	10	13	BABY	64	n/a	n/a	0	0	0
2582836	REC_WORD	wordpools/wasnorm_wordpool_576.txt	LTP336	ltpFR2	10	13	PARENT	1013	n/a	n/a	0	0	0
2584243	REC_WORD	wordpools/wasnorm_wordpool_576.txt	LTP336	ltpFR2	10	13	CATCHER	258	n/a	n/a	0	0	0
2586037	REC_WORD	wordpools/wasnorm_wordpool_576.txt	LTP336	ltpFR2	10	13	FRIAR	605	n/a	n/a	0	0	0
2587504	REC_WORD	wordpools/wasnorm_wordpool_576.txt	LTP336	ltpFR2	10	13	BLOUSE	139	n/a	n/a	0	0	0
2588644	REC_WORD	wordpools/wasnorm_wordpool_576.txt	LTP336	ltpFR2	10	13	ZIPPER	1636	n/a	n/a	0	0	0
2661043	DISTRACTOR	n/a	LTP336	ltpFR2	10	14	n/a	n/a	n/a	n/a	0	0	0
2661043	START	n/a	LTP336	ltpFR2	10	n/a	n/a	n/a	20	n/a	n/a	n/a	n/a
2661060	PROB	n/a	LTP336	ltpFR2	10	n/a	n/a	n/a	20	17	8	4	5
2664559	PROB	n/a	LTP336	ltpFR2	10	n/a	n/a	n/a	20	14	6	6	2
2667458	PROB	n/a	LTP336	ltpFR2	10	n/a	n/a	n/a	20	20	2	9	9
2669023	PROB	n/a	LTP336	ltpFR2	10	n/a	n/a	n/a	20	8	4	1	3
2670722	PROB	n/a	LTP336	ltpFR2	10	n/a	n/a	n/a	20	15	7	7	1
2672239	PROB	n/a	LTP336	ltpFR2	10	n/a	n/a	n/a	20	19	5	8	6
2673987	PROB	n/a	LTP336	ltpFR2	10	n/a	n/a	n/a	20	25	9	8	8
2676321	PROB	n/a	LTP336	ltpFR2	10	n/a	n/a	n/a	20	15	9	5	1
2677902	PROB	n/a	LTP336	ltpFR2	10	n/a	n/a	n/a	20	18	7	4	7
2679519	PROB	n/a	LTP336	ltpFR2	10	n/a	n/a	n/a	20	17	7	9	1
2681168	PROB	n/a	LTP336	ltpFR2	10	n/a	n/a	n/a	20	16	5	7	4
2684528	STOP	n/a	LTP336	ltpFR2	10	n/a	n/a	n/a	20	n/a	n/a	n/a	n/a
2686133	WORD	wordpools/wasnorm_wordpool_576.txt	LTP336	ltpFR2	10	14	NECKLACE	940	n/a	n/a	0	0	0
2688582	WORD	wordpools/wasnorm_wordpool_576.txt	LTP336	ltpFR2	10	14	COIN	343	n/a	n/a	0	0	0
2691030	WORD	wordpools/wasnorm_wordpool_576.txt	LTP336	ltpFR2	10	14	ARM	38	n/a	n/a	0	0	0
2693762	WORD	wordpools/wasnorm_wordpool_576.txt	LTP336	ltpFR2	10	14	COUNTY	389	n/a	n/a	0	0	0
2696262	WORD	wordpools/wasnorm_wordpool_576.txt	LTP336	ltpFR2	10	14	NOMAD	955	n/a	n/a	0	0	0
2699026	WORD	wordpools/wasnorm_wordpool_576.txt	LTP336	ltpFR2	10	14	PRINCE	1124	n/a	n/a	0	0	0
2701858	WORD	wordpools/wasnorm_wordpool_576.txt	LTP336	ltpFR2	10	14	CUSTARD	429	n/a	n/a	0	0	0
2704408	WORD	wordpools/wasnorm_wordpool_576.txt	LTP336	ltpFR2	10	14	HOUND	724	n/a	n/a	0	0	0
2707039	WORD	wordpools/wasnorm_wordpool_576.txt	LTP336	ltpFR2	10	14	CABIN	211	n/a	n/a	0	0	0
2709738	WORD	wordpools/wasnorm_wordpool_576.txt	LTP336	ltpFR2	10	14	DORM	488	n/a	n/a	0	0	0
2712354	WORD	wordpools/wasnorm_wordpool_576.txt	LTP336	ltpFR2	10	14	PIMPLE	1071	n/a	n/a	0	0	0
2714885	WORD	wordpools/wasnorm_wordpool_576.txt	LTP336	ltpFR2	10	14	BARREL	91	n/a	n/a	0	0	0
2717485	WORD	wordpools/wasnorm_wordpool_576.txt	LTP336	ltpFR2	10	14	VIKING	1565	n/a	n/a	0	0	0
2720134	WORD	wordpools/wasnorm_wordpool_576.txt	LTP336	ltpFR2	10	14	RATTLE	1170	n/a	n/a	0	0	0
2722932	WORD	wordpools/wasnorm_wordpool_576.txt	LTP336	ltpFR2	10	14	HARP	689	n/a	n/a	0	0	0
2725482	WORD	wordpools/wasnorm_wordpool_576.txt	LTP336	ltpFR2	10	14	POET	1095	n/a	n/a	0	0	0
2727914	WORD	wordpools/wasnorm_wordpool_576.txt	LTP336	ltpFR2	10	14	CHAMPAGNE	278	n/a	n/a	0	0	0
2730379	WORD	wordpools/wasnorm_wordpool_576.txt	LTP336	ltpFR2	10	14	PERCH	1048	n/a	n/a	0	0	0
2732961	WORD	wordpools/wasnorm_wordpool_576.txt	LTP336	ltpFR2	10	14	QUAIL	1147	n/a	n/a	0	0	0
2735460	WORD	wordpools/wasnorm_wordpool_576.txt	LTP336	ltpFR2	10	14	SILK	1307	n/a	n/a	0	0	0
2738092	WORD	wordpools/wasnorm_wordpool_576.txt	LTP336	ltpFR2	10	14	ROBIN	1199	n/a	n/a	0	0	0
2740707	WORD	wordpools/wasnorm_wordpool_576.txt	LTP336	ltpFR2	10	14	LADY	794	n/a	n/a	0	0	0
2743373	WORD	wordpools/wasnorm_wordpool_576.txt	LTP336	ltpFR2	10	14	HORNET	718	n/a	n/a	0	0	0
2746021	WORD	wordpools/wasnorm_wordpool_576.txt	LTP336	ltpFR2	10	14	SNAKE	1333	n/a	n/a	0	0	0
2747637	START	n/a	LTP336	ltpFR2	10	n/a	n/a	n/a	21	n/a	n/a	n/a	n/a
2748562	DISTRACTOR	n/a	LTP336	ltpFR2	10	14	n/a	n/a	n/a	n/a	0	0	0
2748571	PROB	n/a	LTP336	ltpFR2	10	n/a	n/a	n/a	21	17	6	5	6
2751220	PROB	n/a	LTP336	ltpFR2	10	n/a	n/a	n/a	21	8	1	3	4
2752553	PROB	n/a	LTP336	ltpFR2	10	n/a	n/a	n/a	21	15	3	4	8
2754385	PROB	n/a	LTP336	ltpFR2	10	n/a	n/a	n/a	21	7	2	4	1
2757899	PROB	n/a	LTP336	ltpFR2	10	n/a	n/a	n/a	21	12	4	6	2
2759516	PROB	n/a	LTP336	ltpFR2	10	n/a	n/a	n/a	21	22	9	7	6
2762714	PROB	n/a	LTP336	ltpFR2	10	n/a	n/a	n/a	21	19	8	8	3
2764264	PROB	n/a	LTP336	ltpFR2	10	n/a	n/a	n/a	21	5	1	2	2
2765696	PROB	n/a	LTP336	ltpFR2	10	n/a	n/a	n/a	21	18	8	7	3
2767279	PROB	n/a	LTP336	ltpFR2	10	n/a	n/a	n/a	21	16	4	5	7
2769128	PROB	n/a	LTP336	ltpFR2	10	n/a	n/a	n/a	21	5	3	1	1
2770363	STOP	n/a	LTP336	ltpFR2	10	n/a	n/a	n/a	21	n/a	n/a	n/a	n/a
2773477	REC_START	n/a	LTP336	ltpFR2	10	14	n/a	n/a	n/a	n/a	0	0	0
2773929	REC_WORD	wordpools/wasnorm_wordpool_576.txt	LTP336	ltpFR2	10	14	QUAIL	1147	n/a	n/a	0	0	0
2774816	REC_WORD	wordpools/wasnorm_wordpool_576.txt	LTP336	ltpFR2	10	14	SNAKE	1333	n/a	n/a	0	0	0
2776065	REC_WORD	wordpools/wasnorm_wordpool_576.txt	LTP336	ltpFR2	10	14	HORNET	718	n/a	n/a	0	0	0
2777489	REC_WORD	wordpools/wasnorm_wordpool_576.txt	LTP336	ltpFR2	10	14	ROBIN	1199	n/a	n/a	0	0	0
2778730	REC_WORD	wordpools/wasnorm_wordpool_576.txt	LTP336	ltpFR2	10	14	LADY	794	n/a	n/a	0	0	0
2782601	REC_WORD_VV	wordpools/wasnorm_wordpool_576.txt	LTP336	ltpFR2	10	14	<>	-1	n/a	n/a	0	0	0
2783144	REC_WORD	wordpools/wasnorm_wordpool_576.txt	LTP336	ltpFR2	10	14	VIKING	1565	n/a	n/a	0	0	0
2785087	REC_WORD	wordpools/wasnorm_wordpool_576.txt	LTP336	ltpFR2	10	14	CHAMPAGNE	278	n/a	n/a	0	0	0
2786628	REC_WORD	wordpools/wasnorm_wordpool_576.txt	LTP336	ltpFR2	10	14	POET	1095	n/a	n/a	0	0	0
2787853	REC_WORD	wordpools/wasnorm_wordpool_576.txt	LTP336	ltpFR2	10	14	HARP	689	n/a	n/a	0	0	0
2789181	REC_WORD	wordpools/wasnorm_wordpool_576.txt	LTP336	ltpFR2	10	14	HOUND	724	n/a	n/a	0	0	0
2790516	REC_WORD	wordpools/wasnorm_wordpool_576.txt	LTP336	ltpFR2	10	14	DORM	488	n/a	n/a	0	0	0
2791736	REC_WORD	wordpools/wasnorm_wordpool_576.txt	LTP336	ltpFR2	10	14	PIMPLE	1071	n/a	n/a	0	0	0
2804663	REC_WORD	wordpools/wasnorm_wordpool_576.txt	LTP336	ltpFR2	10	14	ARM	38	n/a	n/a	0	0	0
2806166	REC_WORD	wordpools/wasnorm_wordpool_576.txt	LTP336	ltpFR2	10	14	COUNTY	389	n/a	n/a	0	0	0
2807394	REC_WORD	wordpools/wasnorm_wordpool_576.txt	LTP336	ltpFR2	10	14	COIN	343	n/a	n/a	0	0	0
2808757	REC_WORD	wordpools/wasnorm_wordpool_576.txt	LTP336	ltpFR2	10	14	NOMAD	955	n/a	n/a	0	0	0
2814651	REC_WORD	wordpools/wasnorm_wordpool_576.txt	LTP336	ltpFR2	10	14	NECKLACE	940	n/a	n/a	0	0	0
2863934	WORD	wordpools/wasnorm_wordpool_576.txt	LTP336	ltpFR2	10	15	HAND	683	n/a	n/a	0	0	0
2866716	WORD	wordpools/wasnorm_wordpool_576.txt	LTP336	ltpFR2	10	15	MAILMAN	858	n/a	n/a	0	0	0
2869150	WORD	wordpools/wasnorm_wordpool_576.txt	LTP336	ltpFR2	10	15	ATOM	55	n/a	n/a	0	0	0
2871881	WORD	wordpools/wasnorm_wordpool_576.txt	LTP336	ltpFR2	10	15	SHERIFF	1284	n/a	n/a	0	0	0
2874397	WORD	wordpools/wasnorm_wordpool_576.txt	LTP336	ltpFR2	10	15	LADDER	793	n/a	n/a	0	0	0
2876928	WORD	wordpools/wasnorm_wordpool_576.txt	LTP336	ltpFR2	10	15	COFFEE	341	n/a	n/a	0	0	0
2879445	WORD	wordpools/wasnorm_wordpool_576.txt	LTP336	ltpFR2	10	15	GIRL	637	n/a	n/a	0	0	0
2882227	WORD	wordpools/wasnorm_wordpool_576.txt	LTP336	ltpFR2	10	15	CYCLONE	431	n/a	n/a	0	0	0
2885058	WORD	wordpools/wasnorm_wordpool_576.txt	LTP336	ltpFR2	10	15	PROTON	1132	n/a	n/a	0	0	0
2887824	WORD	wordpools/wasnorm_wordpool_576.txt	LTP336	ltpFR2	10	15	PERFUME	1049	n/a	n/a	0	0	0
2890390	WORD	wordpools/wasnorm_wordpool_576.txt	LTP336	ltpFR2	10	15	BOUQUET	157	n/a	n/a	0	0	0
2893072	WORD	wordpools/wasnorm_wordpool_576.txt	LTP336	ltpFR2	10	15	CORAL	378	n/a	n/a	0	0	0
2895620	WORD	wordpools/wasnorm_wordpool_576.txt	LTP336	ltpFR2	10	15	SIDEWALK	1303	n/a	n/a	0	0	0
2898070	WORD	wordpools/wasnorm_wordpool_576.txt	LTP336	ltpFR2	10	15	POSSUM	1112	n/a	n/a	0	0	0
2900751	WORD	wordpools/wasnorm_wordpool_576.txt	LTP336	ltpFR2	10	15	FOX	598	n/a	n/a	0	0	0
2903234	WORD	wordpools/wasnorm_wordpool_576.txt	LTP336	ltpFR2	10	15	FOREST	593	n/a	n/a	0	0	0
2905699	WORD	wordpools/wasnorm_wordpool_576.txt	LTP336	ltpFR2	10	15	VALVE	1546	n/a	n/a	0	0	0
2908399	WORD	wordpools/wasnorm_wordpool_576.txt	LTP336	ltpFR2	10	15	TAXI	1438	n/a	n/a	0	0	0
2911214	WORD	wordpools/wasnorm_wordpool_576.txt	LTP336	ltpFR2	10	15	CASHIER	254	n/a	n/a	0	0	0
2913712	WORD	wordpools/wasnorm_wordpool_576.txt	LTP336	ltpFR2	10	15	OFFICE	972	n/a	n/a	0	0	0
2916395	WORD	wordpools/wasnorm_wordpool_576.txt	LTP336	ltpFR2	10	15	LIGHTNING	820	n/a	n/a	0	0	0
2918893	WORD	wordpools/wasnorm_wordpool_576.txt	LTP336	ltpFR2	10	15	GHETTO	633	n/a	n/a	0	0	0
2921675	WORD	wordpools/wasnorm_wordpool_576.txt	LTP336	ltpFR2	10	15	DRUG	501	n/a	n/a	0	0	0
2924108	WORD	wordpools/wasnorm_wordpool_576.txt	LTP336	ltpFR2	10	15	MAPLE	866	n/a	n/a	0	0	0
2925723	START	n/a	LTP336	ltpFR2	10	n/a	n/a	n/a	22	n/a	n/a	n/a	n/a
2926897	DISTRACTOR	n/a	LTP336	ltpFR2	10	15	n/a	n/a	n/a	n/a	0	0	0
2926906	PROB	n/a	LTP336	ltpFR2	10	n/a	n/a	n/a	22	12	5	3	4
2930787	PROB	n/a	LTP336	ltpFR2	10	n/a	n/a	n/a	22	17	6	3	8
2932588	PROB	n/a	LTP336	ltpFR2	10	n/a	n/a	n/a	22	12	2	5	5
2933769	PROB	n/a	LTP336	ltpFR2	10	n/a	n/a	n/a	22	16	5	5	6
2935353	PROB	n/a	LTP336	ltpFR2	10	n/a	n/a	n/a	22	11	1	1	9
2936586	PROB	n/a	LTP336	ltpFR2	10	n/a	n/a	n/a	22	17	3	7	7
2939318	PROB	n/a	LTP336	ltpFR2	10	n/a	n/a	n/a	22	14	7	5	2
2940800	PROB	n/a	LTP336	ltpFR2	10	n/a	n/a	n/a	22	17	8	1	8
2942333	PROB	n/a	LTP336	ltpFR2	10	n/a	n/a	n/a	22	13	6	6	1
2943931	PROB	n/a	LTP336	ltpFR2	10	n/a	n/a	n/a	22	10	3	5	2
2945515	PROB	n/a	LTP336	ltpFR2	10	n/a	n/a	n/a	22	18	9	6	3
2947464	PROB	n/a	LTP336	ltpFR2	10	n/a	n/a	n/a	22	19	3	7	9
2948727	STOP	n/a	LTP336	ltpFR2	10	n/a	n/a	n/a	22	n/a	n/a	n/a	n/a
2951596	REC_START	n/a	LTP336	ltpFR2	10	15	n/a	n/a	n/a	n/a	0	0	0
2952003	REC_WORD	wordpools/wasnorm_wordpool_576.txt	LTP336	ltpFR2	10	15	MAILMAN	858	n/a	n/a	0	0	0
2953079	REC_WORD	wordpools/wasnorm_wordpool_576.txt	LTP336	ltpFR2	10	15	SHERIFF	1284	n/a	n/a	0	0	0
2954415	REC_WORD	wordpools/wasnorm_wordpool_576.txt	LTP336	ltpFR2	10	15	VALVE	1546	n/a	n/a	0	0	0
2958236	REC_WORD	wordpools/wasnorm_wordpool_576.txt	LTP336	ltpFR2	10	15	CASHIER	254	n/a	n/a	0	0	0
2960447	REC_WORD	wordpools/wasnorm_wordpool_576.txt	LTP336	ltpFR2	10	15	GIRL	637	n/a	n/a	0	0	0
3042037	DISTRACTOR	n/a	LTP336	ltpFR2	10	16	n/a	n/a	n/a	n/a	0	0	0
3042037	START	n/a	LTP336	ltpFR2	10	n/a	n/a	n/a	23	n/a	n/a	n/a	n/a
3042054	PROB	n/a	LTP336	ltpFR2	10	n/a	n/a	n/a	23	17	4	5	8
3045170	PROB	n/a	LTP336	ltpFR2	10	n/a	n/a	n/a	23	17	6	4	7
3046436	PROB	n/a	LTP336	ltpFR2	10	n/a	n/a	n/a	23	16	6	6	4
3048018	PROB	n/a	LTP336	ltpFR2	10	n/a	n/a	n/a	23	19	8	9	2
3049983	PROB	n/a	LTP336	ltpFR2	10	n/a	n/a	n/a	23	8	2	2	4
3051500	PROB	n/a	LTP336	ltpFR2	10	n/a	n/a	n/a	23	13	7	4	2
3055014	PROB	n/a	LTP336	ltpFR2	10	n/a	n/a	n/a	23	15	5	9	1
3056448	PROB	n/a	LTP336	ltpFR2	10	n/a	n/a	n/a	23	21	6	8	7
3061045	PROB	n/a	LTP336	ltpFR2	10	n/a	n/a	n/a	23	14	3	4	7
3062562	PROB	n/a	LTP336	ltpFR2	10	n/a	n/a	n/a	23	20	9	9	2
3066037	STOP	n/a	LTP336	ltpFR2	10	n/a	n/a	n/a	23	n/a	n/a	n/a	n/a
3067127	WORD	wordpools/wasnorm_wordpool_576.txt	LTP336	ltpFR2	10	16	OYSTER	995	n/a	n/a	0	0	0
3069674	WORD	wordpools/wasnorm_wordpool_576.txt	LTP336	ltpFR2	10	16	CLAM	315	n/a	n/a	0	0	0
3072457	WORD	wordpools/wasnorm_wordpool_576.txt	LTP336	ltpFR2	10	16	SCALPEL	1243	n/a	n/a	0	0	0
3075106	WORD	wordpools/wasnorm_wordpool_576.txt	LTP336	ltpFR2	10	16	PENGUIN	1044	n/a	n/a	0	0	0
3077704	WORD	wordpools/wasnorm_wordpool_576.txt	LTP336	ltpFR2	10	16	TILE	1468	n/a	n/a	0	0	0
3080471	WORD	wordpools/wasnorm_wordpool_576.txt	LTP336	ltpFR2	10	16	WITNESS	1618	n/a	n/a	0	0	0
3083035	WORD	wordpools/wasnorm_wordpool_576.txt	LTP336	ltpFR2	10	16	UMPIRE	1535	n/a	n/a	0	0	0
3085568	WORD	wordpools/wasnorm_wordpool_576.txt	LTP336	ltpFR2	10	16	STAKE	1368	n/a	n/a	0	0	0
3088217	WORD	wordpools/wasnorm_wordpool_576.txt	LTP336	ltpFR2	10	16	GARBAGE	622	n/a	n/a	0	0	0
3091015	WORD	wordpools/wasnorm_wordpool_576.txt	LTP336	ltpFR2	10	16	MARS	873	n/a	n/a	0	0	0
3093780	WORD	wordpools/wasnorm_wordpool_576.txt	LTP336	ltpFR2	10	16	TEMPLE	1448	n/a	n/a	0	0	0
3096546	WORD	wordpools/wasnorm_wordpool_576.txt	LTP336	ltpFR2	10	16	POPCORN	1104	n/a	n/a	0	0	0
3099279	WORD	wordpools/wasnorm_wordpool_576.txt	LTP336	ltpFR2	10	16	LIPSTICK	829	n/a	n/a	0	0	0
3101910	WORD	wordpools/wasnorm_wordpool_576.txt	LTP336	ltpFR2	10	16	CRITIC	410	n/a	n/a	0	0	0
3104642	WORD	wordpools/wasnorm_wordpool_576.txt	LTP336	ltpFR2	10	16	BANJO	82	n/a	n/a	0	0	0
3107392	WORD	wordpools/wasnorm_wordpool_576.txt	LTP336	ltpFR2	10	16	RECORD	1176	n/a	n/a	0	0	0
3110140	WORD	wordpools/wasnorm_wordpool_576.txt	LTP336	ltpFR2	10	16	NURSE	963	n/a	n/a	0	0	0
3112722	WORD	wordpools/wasnorm_wordpool_576.txt	LTP336	ltpFR2	10	16	SWORD	1423	n/a	n/a	0	0	0
3115255	WORD	wordpools/wasnorm_wordpool_576.txt	LTP336	ltpFR2	10	16	LIZARD	834	n/a	n/a	0	0	0
3117936	WORD	wordpools/wasnorm_wordpool_576.txt	LTP336	ltpFR2	10	16	SHARK	1275	n/a	n/a	0	0	0
3120618	WORD	wordpools/wasnorm_wordpool_576.txt	LTP336	ltpFR2	10	16	SPOON	1357	n/a	n/a	0	0	0
3123384	WORD	wordpools/wasnorm_wordpool_576.txt	LTP336	ltpFR2	10	16	CHILD	299	n/a	n/a	0	0	0
3125832	WORD	wordpools/wasnorm_wordpool_576.txt	LTP336	ltpFR2	10	16	HATCHET	691	n/a	n/a	0	0	0
3128399	WORD	wordpools/wasnorm_wordpool_576.txt	LTP336	ltpFR2	10	16	SIBLING	1301	n/a	n/a	0	0	0
3130014	START	n/a	LTP336	ltpFR2	10	n/a	n/a	n/a	24	n/a	n/a	n/a	n/a
3130877	DISTRACTOR	n/a	LTP336	ltpFR2	10	16	n/a	n/a	n/a	n/a	0	0	0
3130880	PROB	n/a	LTP336	ltpFR2	10	n/a	n/a	n/a	24	9	4	1	4
3134446	PROB	n/a	LTP336	ltpFR2	10	n/a	n/a	n/a	24	6	3	2	1
3136295	PROB	n/a	LTP336	ltpFR2	10	n/a	n/a	n/a	24	15	4	4	7
3140393	PROB	n/a	LTP336	ltpFR2	10	n/a	n/a	n/a	24	10	1	8	1
3141576	PROB	n/a	LTP336	ltpFR2	10	n/a	n/a	n/a	24	15	5	4	6
3143209	PROB	n/a	LTP336	ltpFR2	10	n/a	n/a	n/a	24	15	6	7	2
3146374	PROB	n/a	LTP336	ltpFR2	10	n/a	n/a	n/a	24	13	5	6	2
3147939	PROB	n/a	LTP336	ltpFR2	10	n/a	n/a	n/a	24	18	5	6	7
3150804	PROB	n/a	LTP336	ltpFR2	10	n/a	n/a	n/a	24	17	5	4	8
3152741	STOP	n/a	LTP336	ltpFR2	10	n/a	n/a	n/a	24	n/a	n/a	n/a	n/a
3155769	REC_START	n/a	LTP336	ltpFR2	10	16	n/a	n/a	n/a	n/a	0	0	0
3156630	REC_WORD	wordpools/wasnorm_wordpool_576.txt	LTP336	ltpFR2	10	16	OYSTER	995	n/a	n/a	0	0	0
3158138	REC_WORD	wordpools/wasnorm_wordpool_576.txt	LTP336	ltpFR2	10	16	CLAM	315	n/a	n/a	0	0	0
3159647	REC_WORD	wordpools/wasnorm_wordpool_576.txt	LTP336	ltpFR2	10	16	TEMPLE	1448	n/a	n/a	0	0	0
3232318	REST_REWET	n/a	LTP336	ltpFR2	10	16	n/a	n/a	n/a	n/a	0	0	0
3364957	DISTRACTOR	n/a	LTP336	ltpFR2	10	17	n/a	n/a	n/a	n/a	0	0	0
3364957	START	n/a	LTP336	ltpFR2	10	n/a	n/a	n/a	25	n/a	n/a	n/a	n/a
3364974	PROB	n/a	LTP336	ltpFR2	10	n/a	n/a	n/a	25	22	9	4	9
3366939	PROB	n/a	LTP336	ltpFR2	10	n/a	n/a	n/a	25	14	6	1	7
3368456	PROB	n/a	LTP336	ltpFR2	10	n/a	n/a	n/a	25	14	4	5	5
3370406	PROB	n/a	LTP336	ltpFR2	10	n/a	n/a	n/a	25	16	9	4	3
3372255	PROB	n/a	LTP336	ltpFR2	10	n/a	n/a	n/a	25	4	1	2	1
3373853	PROB	n/a	LTP336	ltpFR2	10	n/a	n/a	n/a	25	16	6	9	1
3375203	PROB	n/a	LTP336	ltpFR2	10	n/a	n/a	n/a	25	18	3	9	6
3377252	PROB	n/a	LTP336	ltpFR2	10	n/a	n/a	n/a	25	15	6	8	1
3380468	PROB	n/a	LTP336	ltpFR2	10	n/a	n/a	n/a	25	19	9	7	3
3382766	PROB	n/a	LTP336	ltpFR2	10	n/a	n/a	n/a	25	11	4	5	3
3384566	PROB	n/a	LTP336	ltpFR2	10	n/a	n/a	n/a	25	14	5	2	7
3386814	PROB	n/a	LTP336	ltpFR2	10	n/a	n/a	n/a	25	22	9	9	4
3388502	STOP	n/a	LTP336	ltpFR2	10	n/a	n/a	n/a	25	n/a	n/a	n/a	n/a
3389879	WORD	wordpools/wasnorm_wordpool_576.txt	LTP336	ltpFR2	10	17	PUPPY	1144	n/a	n/a	0	0	0
3392429	WORD	wordpools/wasnorm_wordpool_576.txt	LTP336	ltpFR2	10	17	LETTUCE	814	n/a	n/a	0	0	0
3395128	WORD	wordpools/wasnorm_wordpool_576.txt	LTP336	ltpFR2	10	17	GRILL	661	n/a	n/a	0	0	0
3397925	WORD	wordpools/wasnorm_wordpool_576.txt	LTP336	ltpFR2	10	17	IDOL	733	n/a	n/a	0	0	0
3400641	WORD	wordpools/wasnorm_wordpool_576.txt	LTP336	ltpFR2	10	17	CLOUD	328	n/a	n/a	0	0	0
3403357	WORD	wordpools/wasnorm_wordpool_576.txt	LTP336	ltpFR2	10	17	CONTRACT	368	n/a	n/a	0	0	0
3406038	WORD	wordpools/wasnorm_wordpool_576.txt	LTP336	ltpFR2	10	17	VENUS	1557	n/a	n/a	0	0	0
3408555	WORD	wordpools/wasnorm_wordpool_576.txt	LTP336	ltpFR2	10	17	CLOCK	325	n/a	n/a	0	0	0
3411019	WORD	wordpools/wasnorm_wordpool_576.txt	LTP336	ltpFR2	10	17	SLIDE	1326	n/a	n/a	0	0	0
3413702	WORD	wordpools/wasnorm_wordpool_576.txt	LTP336	ltpFR2	10	17	TROMBONE	1508	n/a	n/a	0	0	0
3416268	WORD	wordpools/wasnorm_wordpool_576.txt	LTP336	ltpFR2	10	17	ISLAND	745	n/a	n/a	0	0	0
3418699	WORD	wordpools/wasnorm_wordpool_576.txt	LTP336	ltpFR2	10	17	DOLPHIN	483	n/a	n/a	0	0	0
3421449	WORD	wordpools/wasnorm_wordpool_576.txt	LTP336	ltpFR2	10	17	FLIPPER	580	n/a	n/a	0	0	0
3423914	WORD	wordpools/wasnorm_wordpool_576.txt	LTP336	ltpFR2	10	17	COMPASS	358	n/a	n/a	0	0	0
3426729	WORD	wordpools/wasnorm_wordpool_576.txt	LTP336	ltpFR2	10	17	PEPPER	1047	n/a	n/a	0	0	0
3429295	WORD	wordpools/wasnorm_wordpool_576.txt	LTP336	ltpFR2	10	17	COLLEGE	346	n/a	n/a	0	0	0
3431993	WORD	wordpools/wasnorm_wordpool_576.txt	LTP336	ltpFR2	10	17	SHOULDER	1294	n/a	n/a	0	0	0
3434659	WORD	wordpools/wasnorm_wordpool_576.txt	LTP336	ltpFR2	10	17	SHORTCAKE	1292	n/a	n/a	0	0	0
3437242	WORD	wordpools/wasnorm_wordpool_576.txt	LTP336	ltpFR2	10	17	STOMACH	1384	n/a	n/a	0	0	0
3439723	WORD	wordpools/wasnorm_wordpool_576.txt	LTP336	ltpFR2	10	17	PIGEON	1065	n/a	n/a	0	0	0
3442273	WORD	wordpools/wasnorm_wordpool_576.txt	LTP336	ltpFR2	10	17	LAGOON	795	n/a	n/a	0	0	0
3445021	WORD	wordpools/wasnorm_wordpool_576.txt	LTP336	ltpFR2	10	17	GROUND	666	n/a	n/a	0	0	0
3447836	WORD	wordpools/wasnorm_wordpool_576.txt	LTP336	ltpFR2	10	17	GRAVEL	659	n/a	n/a	0	0	0
3450369	WORD	wordpools/wasnorm_wordpool_576.txt	LTP336	ltpFR2	10	17	EAGLE	512	n/a	n/a	0	0	0
3451984	START	n/a	LTP336	ltpFR2	10	n/a	n/a	n/a	26	n/a	n/a	n/a	n/a
3453126	DISTRACTOR	n/a	LTP336	ltpFR2	10	17	n/a	n/a	n/a	n/a	0	0	0
3453135	PROB	n/a	LTP336	ltpFR2	10	n/a	n/a	n/a	26	17	7	2	8
3455467	PROB	n/a	LTP336	ltpFR2	10	n/a	n/a	n/a	26	17	3	6	8
3457848	PROB	n/a	LTP336	ltpFR2	10	n/a	n/a	n/a	26	22	4	9	9
3459282	PROB	n/a	LTP336	ltpFR2	10	n/a	n/a	n/a	26	5	2	2	1
3460813	PROB	n/a	LTP336	ltpFR2	10	n/a	n/a	n/a	26	20	9	6	5
3463297	PROB	n/a	LTP336	ltpFR2	10	n/a	n/a	n/a	26	19	6	7	6
3465661	PROB	n/a	LTP336	ltpFR2	10	n/a	n/a	n/a	26	9	1	1	7
3466827	PROB	n/a	LTP336	ltpFR2	10	n/a	n/a	n/a	26	17	9	1	7
3468261	PROB	n/a	LTP336	ltpFR2	10	n/a	n/a	n/a	26	18	9	2	7
3469876	PROB	n/a	LTP336	ltpFR2	10	n/a	n/a	n/a	26	14	6	1	7
3471393	PROB	n/a	LTP336	ltpFR2	10	n/a	n/a	n/a	26	18	1	8	9
3473092	PROB	n/a	LTP336	ltpFR2	10	n/a	n/a	n/a	26	15	6	6	3
3474536	STOP	n/a	LTP336	ltpFR2	10	n/a	n/a	n/a	26	n/a	n/a	n/a	n/a
3477790	REC_START	n/a	LTP336	ltpFR2	10	17	n/a	n/a	n/a	n/a	0	0	0
3478523	REC_WORD	wordpools/wasnorm_wordpool_576.txt	LTP336	ltpFR2	10	17	STOMACH	1384	n/a	n/a	0	0	0
3479538	REC_WORD	wordpools/wasnorm_wordpool_576.txt	LTP336	ltpFR2	10	17	LAGOON	795	n/a	n/a	0	0	0
3481066	REC_WORD	wordpools/wasnorm_wordpool_576.txt	LTP336	ltpFR2	10	17	GRAVEL	659	n/a	n/a	0	0	0
3482507	REC_WORD	wordpools/wasnorm_wordpool_576.txt	LTP336	ltpFR2	10	17	EAGLE	512	n/a	n/a	0	0	0
3483851	REC_WORD	wordpools/wasnorm_wordpool_576.txt	LTP336	ltpFR2	10	17	ISLAND	745	n/a	n/a	0	0	0
3485173	REC_WORD	wordpools/wasnorm_wordpool_576.txt	LTP336	ltpFR2	10	17	COLLEGE	346	n/a	n/a	0	0	0
3486636	REC_WORD	wordpools/wasnorm_wordpool_576.txt	LTP336	ltpFR2	10	17	DOLPHIN	483	n/a	n/a	0	0	0
3488219	REC_WORD	wordpools/wasnorm_wordpool_576.txt	LTP336	ltpFR2	10	17	FLIPPER	580	n/a	n/a	0	0	0
3490910	REC_WORD	wordpools/wasnorm_wordpool_576.txt	LTP336	ltpFR2	10	17	LETTUCE	814	n/a	n/a	0	0	0
3492162	REC_WORD	wordpools/wasnorm_wordpool_576.txt	LTP336	ltpFR2	10	17	GIRL	637	n/a	n/a	0	0	0
3493368	REC_WORD	wordpools/wasnorm_wordpool_576.txt	LTP336	ltpFR2	10	17	PUPPY	1144	n/a	n/a	0	0	0
3495136	REC_WORD	wordpools/wasnorm_wordpool_576.txt	LTP336	ltpFR2	10	17	COMPASS	358	n/a	n/a	0	0	0
3498142	REC_WORD	wordpools/wasnorm_wordpool_576.txt	LTP336	ltpFR2	10	17	IDOL	733	n/a	n/a	0	0	0
3499392	REC_WORD	wordpools/wasnorm_wordpool_576.txt	LTP336	ltpFR2	10	17	VENUS	1557	n/a	n/a	0	0	0
3500621	REC_WORD	wordpools/wasnorm_wordpool_576.txt	LTP336	ltpFR2	10	17	CLOUD	328	n/a	n/a	0	0	0
3503619	REC_WORD	wordpools/wasnorm_wordpool_576.txt	LTP336	ltpFR2	10	17	SLIDE	1326	n/a	n/a	0	0	0
3568232	WORD	wordpools/wasnorm_wordpool_576.txt	LTP336	ltpFR2	10	18	BUGGY	188	n/a	n/a	0	0	0
3570964	WORD	wordpools/wasnorm_wordpool_576.txt	LTP336	ltpFR2	10	18	ELBOW	520	n/a	n/a	0	0	0
3573597	WORD	wordpools/wasnorm_wordpool_576.txt	LTP336	ltpFR2	10	18	STONE	1385	n/a	n/a	0	0	0
3576112	WORD	wordpools/wasnorm_wordpool_576.txt	LTP336	ltpFR2	10	18	LOFT	840	n/a	n/a	0	0	0
3578893	WORD	wordpools/wasnorm_wordpool_576.txt	LTP336	ltpFR2	10	18	FIDDLE	561	n/a	n/a	0	0	0
3581560	WORD	wordpools/wasnorm_wordpool_576.txt	LTP336	ltpFR2	10	18	COUNTRY	388	n/a	n/a	0	0	0
3584192	WORD	wordpools/wasnorm_wordpool_576.txt	LTP336	ltpFR2	10	18	PLAZA	1088	n/a	n/a	0	0	0
3586640	WORD	wordpools/wasnorm_wordpool_576.txt	LTP336	ltpFR2	10	18	SCULPTURE	1258	n/a	n/a	0	0	0
3589240	WORD	wordpools/wasnorm_wordpool_576.txt	LTP336	ltpFR2	10	18	OX	994	n/a	n/a	0	0	0
3591771	WORD	wordpools/wasnorm_wordpool_576.txt	LTP336	ltpFR2	10	18	SUBWAY	1400	n/a	n/a	0	0	0
3594304	WORD	wordpools/wasnorm_wordpool_576.txt	LTP336	ltpFR2	10	18	TUNNEL	1519	n/a	n/a	0	0	0
3597069	WORD	wordpools/wasnorm_wordpool_576.txt	LTP336	ltpFR2	10	18	PIGMENT	1066	n/a	n/a	0	0	0
3599884	WORD	wordpools/wasnorm_wordpool_576.txt	LTP336	ltpFR2	10	18	FLESH	579	n/a	n/a	0	0	0
3602334	WORD	wordpools/wasnorm_wordpool_576.txt	LTP336	ltpFR2	10	18	ATLAS	53	n/a	n/a	0	0	0
3605065	WORD	wordpools/wasnorm_wordpool_576.txt	LTP336	ltpFR2	10	18	TRENCH	1503	n/a	n/a	0	0	0
3607613	WORD	wordpools/wasnorm_wordpool_576.txt	LTP336	ltpFR2	10	18	SHIRT	1287	n/a	n/a	0	0	0
3610113	WORD	wordpools/wasnorm_wordpool_576.txt	LTP336	ltpFR2	10	18	PORK	1108	n/a	n/a	0	0	0
3612828	WORD	wordpools/wasnorm_wordpool_576.txt	LTP336	ltpFR2	10	18	MARKET	871	n/a	n/a	0	0	0
3615511	WORD	wordpools/wasnorm_wordpool_576.txt	LTP336	ltpFR2	10	18	BEEF	113	n/a	n/a	0	0	0
3618193	WORD	wordpools/wasnorm_wordpool_576.txt	LTP336	ltpFR2	10	18	PLUTO	1092	n/a	n/a	0	0	0
3620858	WORD	wordpools/wasnorm_wordpool_576.txt	LTP336	ltpFR2	10	18	CARROT	249	n/a	n/a	0	0	0
3623640	WORD	wordpools/wasnorm_wordpool_576.txt	LTP336	ltpFR2	10	18	RABBIT	1152	n/a	n/a	0	0	0
3626223	WORD	wordpools/wasnorm_wordpool_576.txt	LTP336	ltpFR2	10	18	FIREPLACE	570	n/a	n/a	0	0	0
3629004	WORD	wordpools/wasnorm_wordpool_576.txt	LTP336	ltpFR2	10	18	LASER	801	n/a	n/a	0	0	0
3630620	START	n/a	LTP336	ltpFR2	10	n/a	n/a	n/a	27	n/a	n/a	n/a	n/a
3631477	DISTRACTOR	n/a	LTP336	ltpFR2	10	18	n/a	n/a	n/a	n/a	0	0	0
3631487	PROB	n/a	LTP336	ltpFR2	10	n/a	n/a	n/a	27	10	1	8	1
3635402	PROB	n/a	LTP336	ltpFR2	10	n/a	n/a	n/a	27	12	7	2	3
3636950	PROB	n/a	LTP336	ltpFR2	10	n/a	n/a	n/a	27	16	3	7	6
3638500	PROB	n/a	LTP336	ltpFR2	10	n/a	n/a	n/a	27	23	9	9	5
3640049	PROB	n/a	LTP336	ltpFR2	10	n/a	n/a	n/a	27	23	9	7	7
3642731	PROB	n/a	LTP336	ltpFR2	10	n/a	n/a	n/a	27	18	7	5	6
3644663	PROB	n/a	LTP336	ltpFR2	10	n/a	n/a	n/a	27	14	9	1	4
3646080	PROB	n/a	LTP336	ltpFR2	10	n/a	n/a	n/a	27	7	5	1	1
3647580	PROB	n/a	LTP336	ltpFR2	10	n/a	n/a	n/a	27	12	8	1	3
3650578	PROB	n/a	LTP336	ltpFR2	10	n/a	n/a	n/a	27	13	8	3	2
3652361	PROB	n/a	LTP336	ltpFR2	10	n/a	n/a	n/a	27	11	3	2	6
3654437	STOP	n/a	LTP336	ltpFR2	10	n/a	n/a	n/a	27	n/a	n/a	n/a	n/a
3656426	REC_START	n/a	LTP336	ltpFR2	10	18	n/a	n/a	n/a	n/a	0	0	0
3656872	REC_WORD	wordpools/wasnorm_wordpool_576.txt	LTP336	ltpFR2	10	18	FIREPLACE	570	n/a	n/a	0	0	0
3658236	REC_WORD	wordpools/wasnorm_wordpool_576.txt	LTP336	ltpFR2	10	18	CARROT	249	n/a	n/a	0	0	0
3659357	REC_WORD	wordpools/wasnorm_wordpool_576.txt	LTP336	ltpFR2	10	18	FIDDLE	561	n/a	n/a	0	0	0
3660772	REC_WORD	wordpools/wasnorm_wordpool_576.txt	LTP336	ltpFR2	10	18	STONE	1385	n/a	n/a	0	0	0
3662244	REC_WORD	wordpools/wasnorm_wordpool_576.txt	LTP336	ltpFR2	10	18	COUNTRY	388	n/a	n/a	0	0	0
3662809	REC_WORD	wordpools/wasnorm_wordpool_576.txt	LTP336	ltpFR2	10	18	COUNTY	389	n/a	n/a	0	0	0
3664024	REC_WORD	wordpools/wasnorm_wordpool_576.txt	LTP336	ltpFR2	10	18	PLAZA	1088	n/a	n/a	0	0	0
3746867	DISTRACTOR	n/a	LTP336	ltpFR2	10	19	n/a	n/a	n/a	n/a	0	0	0
3746867	START	n/a	LTP336	ltpFR2	10	n/a	n/a	n/a	28	n/a	n/a	n/a	n/a
3746884	PROB	n/a	LTP336	ltpFR2	10	n/a	n/a	n/a	28	10	6	2	2
3749782	PROB	n/a	LTP336	ltpFR2	10	n/a	n/a	n/a	28	18	7	6	5
3753415	PROB	n/a	LTP336	ltpFR2	10	n/a	n/a	n/a	28	21	7	9	5
3755646	PROB	n/a	LTP336	ltpFR2	10	n/a	n/a	n/a	28	18	2	7	9
3757945	PROB	n/a	LTP336	ltpFR2	10	n/a	n/a	n/a	28	17	8	2	7
3760462	PROB	n/a	LTP336	ltpFR2	10	n/a	n/a	n/a	28	11	2	6	3
3763659	PROB	n/a	LTP336	ltpFR2	10	n/a	n/a	n/a	28	9	1	7	1
3765042	PROB	n/a	LTP336	ltpFR2	10	n/a	n/a	n/a	28	14	4	9	1
3766426	PROB	n/a	LTP336	ltpFR2	10	n/a	n/a	n/a	28	23	7	9	7
3769481	STOP	n/a	LTP336	ltpFR2	10	n/a	n/a	n/a	28	n/a	n/a	n/a	n/a
3771939	WORD	wordpools/wasnorm_wordpool_576.txt	LTP336	ltpFR2	10	19	WHISTLE	1606	n/a	n/a	0	0	0
3774654	WORD	wordpools/wasnorm_wordpool_576.txt	LTP336	ltpFR2	10	19	BROOK	177	n/a	n/a	0	0	0
3777471	WORD	wordpools/wasnorm_wordpool_576.txt	LTP336	ltpFR2	10	19	CUPBOARD	425	n/a	n/a	0	0	0
3780186	WORD	wordpools/wasnorm_wordpool_576.txt	LTP336	ltpFR2	10	19	CAFE	216	n/a	n/a	0	0	0
3782917	WORD	wordpools/wasnorm_wordpool_576.txt	LTP336	ltpFR2	10	19	BLACKBOARD	133	n/a	n/a	0	0	0
3785699	WORD	wordpools/wasnorm_wordpool_576.txt	LTP336	ltpFR2	10	19	CHIPMUNK	304	n/a	n/a	0	0	0
3788516	WORD	wordpools/wasnorm_wordpool_576.txt	LTP336	ltpFR2	10	19	ITEM	746	n/a	n/a	0	0	0
3791131	WORD	wordpools/wasnorm_wordpool_576.txt	LTP336	ltpFR2	10	19	BRANCH	168	n/a	n/a	0	0	0
3793779	WORD	wordpools/wasnorm_wordpool_576.txt	LTP336	ltpFR2	10	19	GREASE	660	n/a	n/a	0	0	0
3796329	WORD	wordpools/wasnorm_wordpool_576.txt	LTP336	ltpFR2	10	19	GRIZZLY	662	n/a	n/a	0	0	0
3799027	WORD	wordpools/wasnorm_wordpool_576.txt	LTP336	ltpFR2	10	19	BATHTUB	100	n/a	n/a	0	0	0
3801742	WORD	wordpools/wasnorm_wordpool_576.txt	LTP336	ltpFR2	10	19	LILY	821	n/a	n/a	0	0	0
3804259	WORD	wordpools/wasnorm_wordpool_576.txt	LTP336	ltpFR2	10	19	KITCHEN	778	n/a	n/a	0	0	0
3806806	WORD	wordpools/wasnorm_wordpool_576.txt	LTP336	ltpFR2	10	19	PASTRY	1022	n/a	n/a	0	0	0
3809406	WORD	wordpools/wasnorm_wordpool_576.txt	LTP336	ltpFR2	10	19	FIREMAN	569	n/a	n/a	0	0	0
3812188	WORD	wordpools/wasnorm_wordpool_576.txt	LTP336	ltpFR2	10	19	FLAG	573	n/a	n/a	0	0	0
3814819	WORD	wordpools/wasnorm_wordpool_576.txt	LTP336	ltpFR2	10	19	FILM	565	n/a	n/a	0	0	0
3817586	WORD	wordpools/wasnorm_wordpool_576.txt	LTP336	ltpFR2	10	19	BOARD	143	n/a	n/a	0	0	0
3820268	WORD	wordpools/wasnorm_wordpool_576.txt	LTP336	ltpFR2	10	19	PLIERS	1089	n/a	n/a	0	0	0
3822766	WORD	wordpools/wasnorm_wordpool_576.txt	LTP336	ltpFR2	10	19	CEILING	265	n/a	n/a	0	0	0
3825432	WORD	wordpools/wasnorm_wordpool_576.txt	LTP336	ltpFR2	10	19	FREEZER	604	n/a	n/a	0	0	0
3827997	WORD	wordpools/wasnorm_wordpool_576.txt	LTP336	ltpFR2	10	19	KLEENEX	782	n/a	n/a	0	0	0
3830712	WORD	wordpools/wasnorm_wordpool_576.txt	LTP336	ltpFR2	10	19	MARROW	872	n/a	n/a	0	0	0
3833379	WORD	wordpools/wasnorm_wordpool_576.txt	LTP336	ltpFR2	10	19	BUNNY	198	n/a	n/a	0	0	0
3834994	START	n/a	LTP336	ltpFR2	10	n/a	n/a	n/a	29	n/a	n/a	n/a	n/a
3836068	DISTRACTOR	n/a	LTP336	ltpFR2	10	19	n/a	n/a	n/a	n/a	0	0	0
3836077	PROB	n/a	LTP336	ltpFR2	10	n/a	n/a	n/a	29	12	1	5	6
3839309	PROB	n/a	LTP336	ltpFR2	10	n/a	n/a	n/a	29	15	1	8	6
3843956	PROB	n/a	LTP336	ltpFR2	10	n/a	n/a	n/a	29	3	1	1	1
3845307	PROB	n/a	LTP336	ltpFR2	10	n/a	n/a	n/a	29	19	8	3	8
3847406	PROB	n/a	LTP336	ltpFR2	10	n/a	n/a	n/a	29	13	5	2	6
3849571	PROB	n/a	LTP336	ltpFR2	10	n/a	n/a	n/a	29	17	9	2	6
3851886	PROB	n/a	LTP336	ltpFR2	10	n/a	n/a	n/a	29	19	8	7	4
3855202	PROB	n/a	LTP336	ltpFR2	10	n/a	n/a	n/a	29	8	6	2	8
3858993	STOP	n/a	LTP336	ltpFR2	10	n/a	n/a	n/a	29	n/a	n/a	n/a	n/a
3860882	REC_START	n/a	LTP336	ltpFR2	10	19	n/a	n/a	n/a	n/a	0	0	0
3861485	REC_WORD	wordpools/wasnorm_wordpool_576.txt	LTP336	ltpFR2	10	19	FIREMAN	569	n/a	n/a	0	0	0
3862706	REC_WORD	wordpools/wasnorm_wordpool_576.txt	LTP336	ltpFR2	10	19	FLAG	573	n/a	n/a	0	0	0
3863863	REC_WORD	wordpools/wasnorm_wordpool_576.txt	LTP336	ltpFR2	10	19	FILM	565	n/a	n/a	0	0	0
3864959	REC_WORD	wordpools/wasnorm_wordpool_576.txt	LTP336	ltpFR2	10	19	FREEZER	604	n/a	n/a	0	0	0
3866503	REC_WORD	wordpools/wasnorm_wordpool_576.txt	LTP336	ltpFR2	10	19	KLEENEX	782	n/a	n/a	0	0	0
3867664	REC_WORD	wordpools/wasnorm_wordpool_576.txt	LTP336	ltpFR2	10	19	MARROW	872	n/a	n/a	0	0	0
3868900	REC_WORD	wordpools/wasnorm_wordpool_576.txt	LTP336	ltpFR2	10	19	BUNNY	198	n/a	n/a	0	0	0
3870252	REC_WORD	wordpools/wasnorm_wordpool_576.txt	LTP336	ltpFR2	10	19	CHIPMUNK	304	n/a	n/a	0	0	0
3871503	REC_WORD	wordpools/wasnorm_wordpool_576.txt	LTP336	ltpFR2	10	19	GRIZZLY	662	n/a	n/a	0	0	0
3951325	DISTRACTOR	n/a	LTP336	ltpFR2	10	20	n/a	n/a	n/a	n/a	0	0	0
3951325	START	n/a	LTP336	ltpFR2	10	n/a	n/a	n/a	30	n/a	n/a	n/a	n/a
3951342	PROB	n/a	LTP336	ltpFR2	10	n/a	n/a	n/a	30	13	2	6	5
3953956	PROB	n/a	LTP336	ltpFR2	10	n/a	n/a	n/a	30	12	2	9	1
3955373	PROB	n/a	LTP336	ltpFR2	10	n/a	n/a	n/a	30	16	7	6	3
3958439	PROB	n/a	LTP336	ltpFR2	10	n/a	n/a	n/a	30	12	5	5	2
3959787	PROB	n/a	LTP336	ltpFR2	10	n/a	n/a	n/a	30	13	4	8	1
3961869	PROB	n/a	LTP336	ltpFR2	10	n/a	n/a	n/a	30	16	7	6	3
3964469	PROB	n/a	LTP336	ltpFR2	10	n/a	n/a	n/a	30	13	4	2	7
3968999	PROB	n/a	LTP336	ltpFR2	10	n/a	n/a	n/a	30	18	8	9	1
3971948	PROB	n/a	LTP336	ltpFR2	10	n/a	n/a	n/a	30	17	7	3	7
3973910	STOP	n/a	LTP336	ltpFR2	10	n/a	n/a	n/a	30	n/a	n/a	n/a	n/a
3976264	WORD	wordpools/wasnorm_wordpool_576.txt	LTP336	ltpFR2	10	20	RIVER	1194	n/a	n/a	0	0	0
3978828	WORD	wordpools/wasnorm_wordpool_576.txt	LTP336	ltpFR2	10	20	CANAL	226	n/a	n/a	0	0	0
3981428	WORD	wordpools/wasnorm_wordpool_576.txt	LTP336	ltpFR2	10	20	APPLE	33	n/a	n/a	0	0	0
3983959	WORD	wordpools/wasnorm_wordpool_576.txt	LTP336	ltpFR2	10	20	STUDENT	1395	n/a	n/a	0	0	0
3986641	WORD	wordpools/wasnorm_wordpool_576.txt	LTP336	ltpFR2	10	20	JELLO	754	n/a	n/a	0	0	0
3989408	WORD	wordpools/wasnorm_wordpool_576.txt	LTP336	ltpFR2	10	20	RUST	1219	n/a	n/a	0	0	0
3992006	WORD	wordpools/wasnorm_wordpool_576.txt	LTP336	ltpFR2	10	20	ORCHID	982	n/a	n/a	0	0	0
3994771	WORD	wordpools/wasnorm_wordpool_576.txt	LTP336	ltpFR2	10	20	SMOG	1330	n/a	n/a	0	0	0
3997221	WORD	wordpools/wasnorm_wordpool_576.txt	LTP336	ltpFR2	10	20	LABEL	790	n/a	n/a	0	0	0
3999769	WORD	wordpools/wasnorm_wordpool_576.txt	LTP336	ltpFR2	10	20	WRIST	1626	n/a	n/a	0	0	0
4002452	WORD	wordpools/wasnorm_wordpool_576.txt	LTP336	ltpFR2	10	20	PIANO	1057	n/a	n/a	0	0	0
4005000	WORD	wordpools/wasnorm_wordpool_576.txt	LTP336	ltpFR2	10	20	TURTLE	1522	n/a	n/a	0	0	0
4007483	WORD	wordpools/wasnorm_wordpool_576.txt	LTP336	ltpFR2	10	20	SHORTS	1293	n/a	n/a	0	0	0
4009931	WORD	wordpools/wasnorm_wordpool_576.txt	LTP336	ltpFR2	10	20	JEANS	752	n/a	n/a	0	0	0
4012696	WORD	wordpools/wasnorm_wordpool_576.txt	LTP336	ltpFR2	10	20	INFANT	737	n/a	n/a	0	0	0
4015479	WORD	wordpools/wasnorm_wordpool_576.txt	LTP336	ltpFR2	10	20	CABBAGE	210	n/a	n/a	0	0	0
4017961	WORD	wordpools/wasnorm_wordpool_576.txt	LTP336	ltpFR2	10	20	BROTHER	179	n/a	n/a	0	0	0
4020560	WORD	wordpools/wasnorm_wordpool_576.txt	LTP336	ltpFR2	10	20	BOX	159	n/a	n/a	0	0	0
4023309	WORD	wordpools/wasnorm_wordpool_576.txt	LTP336	ltpFR2	10	20	COURSE	390	n/a	n/a	0	0	0
4025924	WORD	wordpools/wasnorm_wordpool_576.txt	LTP336	ltpFR2	10	20	BINDER	127	n/a	n/a	0	0	0
4028689	WORD	wordpools/wasnorm_wordpool_576.txt	LTP336	ltpFR2	10	20	HANDBAG	684	n/a	n/a	0	0	0
4031505	WORD	wordpools/wasnorm_wordpool_576.txt	LTP336	ltpFR2	10	20	ANKLE	24	n/a	n/a	0	0	0
4034003	WORD	wordpools/wasnorm_wordpool_576.txt	LTP336	ltpFR2	10	20	FLEET	578	n/a	n/a	0	0	0
4036436	WORD	wordpools/wasnorm_wordpool_576.txt	LTP336	ltpFR2	10	20	CRIB	407	n/a	n/a	0	0	0
4038052	START	n/a	LTP336	ltpFR2	10	n/a	n/a	n/a	31	n/a	n/a	n/a	n/a
4039028	DISTRACTOR	n/a	LTP336	ltpFR2	10	20	n/a	n/a	n/a	n/a	0	0	0
4039034	PROB	n/a	LTP336	ltpFR2	10	n/a	n/a	n/a	31	15	8	6	1
4041750	PROB	n/a	LTP336	ltpFR2	10	n/a	n/a	n/a	31	17	7	2	8
4043715	PROB	n/a	LTP336	ltpFR2	10	n/a	n/a	n/a	31	18	8	7	3
4045232	PROB	n/a	LTP336	ltpFR2	10	n/a	n/a	n/a	31	17	5	5	7
4046549	PROB	n/a	LTP336	ltpFR2	10	n/a	n/a	n/a	31	17	3	8	6
4048746	PROB	n/a	LTP336	ltpFR2	10	n/a	n/a	n/a	31	9	2	4	3
4051080	PROB	n/a	LTP336	ltpFR2	10	n/a	n/a	n/a	31	22	7	7	8
4054644	PROB	n/a	LTP336	ltpFR2	10	n/a	n/a	n/a	31	18	4	7	7
4056544	PROB	n/a	LTP336	ltpFR2	10	n/a	n/a	n/a	31	13	5	6	2
4058992	PROB	n/a	LTP336	ltpFR2	10	n/a	n/a	n/a	31	16	4	4	8
4061009	STOP	n/a	LTP336	ltpFR2	10	n/a	n/a	n/a	31	n/a	n/a	n/a	n/a
4063907	REC_START	n/a	LTP336	ltpFR2	10	20	n/a	n/a	n/a	n/a	0	0	0
4064908	REC_WORD	wordpools/wasnorm_wordpool_576.txt	LTP336	ltpFR2	10	20	ANKLE	24	n/a	n/a	0	0	0
4066135	REC_WORD	wordpools/wasnorm_wordpool_576.txt	LTP336	ltpFR2	10	20	FLEET	578	n/a	n/a	0	0	0
4067628	REC_WORD	wordpools/wasnorm_wordpool_576.txt	LTP336	ltpFR2	10	20	CRIB	407	n/a	n/a	0	0	0
4069594	REC_WORD	wordpools/wasnorm_wordpool_576.txt	LTP336	ltpFR2	10	20	BROTHER	179	n/a	n/a	0	0	0
4070684	REC_WORD	wordpools/wasnorm_wordpool_576.txt	LTP336	ltpFR2	10	20	INFANT	737	n/a	n/a	0	0	0
4072005	REC_WORD	wordpools/wasnorm_wordpool_576.txt	LTP336	ltpFR2	10	20	TURTLE	1522	n/a	n/a	0	0	0
4073225	REC_WORD	wordpools/wasnorm_wordpool_576.txt	LTP336	ltpFR2	10	20	JEANS	752	n/a	n/a	0	0	0
4074292	REC_WORD	wordpools/wasnorm_wordpool_576.txt	LTP336	ltpFR2	10	20	SHORTS	1293	n/a	n/a	0	0	0
4077460	REC_WORD	wordpools/wasnorm_wordpool_576.txt	LTP336	ltpFR2	10	20	CANAL	226	n/a	n/a	0	0	0
4078789	REC_WORD	wordpools/wasnorm_wordpool_576.txt	LTP336	ltpFR2	10	20	RIVER	1194	n/a	n/a	0	0	0
4080096	REC_WORD	wordpools/wasnorm_wordpool_576.txt	LTP336	ltpFR2	10	20	STUDENT	1395	n/a	n/a	0	0	0
4081275	REC_WORD	wordpools/wasnorm_wordpool_576.txt	LTP336	ltpFR2	10	20	WRIST	1626	n/a	n/a	0	0	0
4082301	REC_WORD	wordpools/wasnorm_wordpool_576.txt	LTP336	ltpFR2	10	20	PIANO	1057	n/a	n/a	0	0	0
4083542	REC_WORD	wordpools/wasnorm_wordpool_576.txt	LTP336	ltpFR2	10	20	RUST	1219	n/a	n/a	0	0	0
4084710	REC_WORD	wordpools/wasnorm_wordpool_576.txt	LTP336	ltpFR2	10	20	APPLE	33	n/a	n/a	0	0	0
4085771	REC_WORD	wordpools/wasnorm_wordpool_576.txt	LTP336	ltpFR2	10	20	JELLO	754	n/a	n/a	0	0	0
4154350	DISTRACTOR	n/a	LTP336	ltpFR2	10	21	n/a	n/a	n/a	n/a	0	0	0
4154350	START	n/a	LTP336	ltpFR2	10	n/a	n/a	n/a	32	n/a	n/a	n/a	n/a
4154366	PROB	n/a	LTP336	ltpFR2	10	n/a	n/a	n/a	32	10	3	1	6
4156549	PROB	n/a	LTP336	ltpFR2	10	n/a	n/a	n/a	32	13	6	6	1
4158030	PROB	n/a	LTP336	ltpFR2	10	n/a	n/a	n/a	32	21	8	4	9
4162329	PROB	n/a	LTP336	ltpFR2	10	n/a	n/a	n/a	32	11	2	8	1
4163661	PROB	n/a	LTP336	ltpFR2	10	n/a	n/a	n/a	32	17	5	6	6
4166043	PROB	n/a	LTP336	ltpFR2	10	n/a	n/a	n/a	32	7	1	5	1
4167659	PROB	n/a	LTP336	ltpFR2	10	n/a	n/a	n/a	32	15	9	1	5
4169059	PROB	n/a	LTP336	ltpFR2	10	n/a	n/a	n/a	32	18	4	5	9
4170858	PROB	n/a	LTP336	ltpFR2	10	n/a	n/a	n/a	32	23	9	8	8
4174574	PROB	n/a	LTP336	ltpFR2	10	n/a	n/a	n/a	32	6	1	4	1
4177158	STOP	n/a	LTP336	ltpFR2	10	n/a	n/a	n/a	32	n/a	n/a	n/a	n/a
4179272	WORD	wordpools/wasnorm_wordpool_576.txt	LTP336	ltpFR2	10	21	CREATURE	403	n/a	n/a	0	0	0
4182019	WORD	wordpools/wasnorm_wordpool_576.txt	LTP336	ltpFR2	10	21	BISON	131	n/a	n/a	0	0	0
4184519	WORD	wordpools/wasnorm_wordpool_576.txt	LTP336	ltpFR2	10	21	PISTOL	1075	n/a	n/a	0	0	0
4187301	WORD	wordpools/wasnorm_wordpool_576.txt	LTP336	ltpFR2	10	21	GANGSTER	620	n/a	n/a	0	0	0
4190117	WORD	wordpools/wasnorm_wordpool_576.txt	LTP336	ltpFR2	10	21	POWDER	1117	n/a	n/a	0	0	0
4192549	WORD	wordpools/wasnorm_wordpool_576.txt	LTP336	ltpFR2	10	21	TURNIP	1521	n/a	n/a	0	0	0
4195198	WORD	wordpools/wasnorm_wordpool_576.txt	LTP336	ltpFR2	10	21	PRINCESS	1125	n/a	n/a	0	0	0
4197846	WORD	wordpools/wasnorm_wordpool_576.txt	LTP336	ltpFR2	10	21	SPONGE	1355	n/a	n/a	0	0	0
4200295	WORD	wordpools/wasnorm_wordpool_576.txt	LTP336	ltpFR2	10	21	PLAID	1080	n/a	n/a	0	0	0
4203043	WORD	wordpools/wasnorm_wordpool_576.txt	LTP336	ltpFR2	10	21	EGYPT	519	n/a	n/a	0	0	0
4205659	WORD	wordpools/wasnorm_wordpool_576.txt	LTP336	ltpFR2	10	21	SLUG	1329	n/a	n/a	0	0	0
4208342	WORD	wordpools/wasnorm_wordpool_576.txt	LTP336	ltpFR2	10	21	CLAMP	316	n/a	n/a	0	0	0
4210823	WORD	wordpools/wasnorm_wordpool_576.txt	LTP336	ltpFR2	10	21	EXPERT	543	n/a	n/a	0	0	0
4213290	WORD	wordpools/wasnorm_wordpool_576.txt	LTP336	ltpFR2	10	21	BOYFRIEND	162	n/a	n/a	0	0	0
4215821	WORD	wordpools/wasnorm_wordpool_576.txt	LTP336	ltpFR2	10	21	SALAD	1224	n/a	n/a	0	0	0
4218287	WORD	wordpools/wasnorm_wordpool_576.txt	LTP336	ltpFR2	10	21	DRIVER	499	n/a	n/a	0	0	0
4220935	WORD	wordpools/wasnorm_wordpool_576.txt	LTP336	ltpFR2	10	21	THIEF	1456	n/a	n/a	0	0	0
4223734	WORD	wordpools/wasnorm_wordpool_576.txt	LTP336	ltpFR2	10	21	VICTIM	1562	n/a	n/a	0	0	0
4226300	WORD	wordpools/wasnorm_wordpool_576.txt	LTP336	ltpFR2	10	21	FUNGUS	614	n/a	n/a	0	0	0
4228765	WORD	wordpools/wasnorm_wordpool_576.txt	LTP336	ltpFR2	10	21	PUDDLE	1140	n/a	n/a	0	0	0
4231348	WORD	wordpools/wasnorm_wordpool_576.txt	LTP336	ltpFR2	10	21	DASHBOARD	441	n/a	n/a	0	0	0
4234163	WORD	wordpools/wasnorm_wordpool_576.txt	LTP336	ltpFR2	10	21	SUNSET	1408	n/a	n/a	0	0	0
4236878	WORD	wordpools/wasnorm_wordpool_576.txt	LTP336	ltpFR2	10	21	DUSTPAN	509	n/a	n/a	0	0	0
4239394	WORD	wordpools/wasnorm_wordpool_576.txt	LTP336	ltpFR2	10	21	VAGRANT	1544	n/a	n/a	0	0	0
4241010	START	n/a	LTP336	ltpFR2	10	n/a	n/a	n/a	33	n/a	n/a	n/a	n/a
4242011	DISTRACTOR	n/a	LTP336	ltpFR2	10	21	n/a	n/a	n/a	n/a	0	0	0
4242025	PROB	n/a	LTP336	ltpFR2	10	n/a	n/a	n/a	33	14	4	8	2
4245442	PROB	n/a	LTP336	ltpFR2	10	n/a	n/a	n/a	33	15	7	5	3
4247074	PROB	n/a	LTP336	ltpFR2	10	n/a	n/a	n/a	33	19	3	8	8
4249257	PROB	n/a	LTP336	ltpFR2	10	n/a	n/a	n/a	33	14	4	3	7
4250822	PROB	n/a	LTP336	ltpFR2	10	n/a	n/a	n/a	33	15	1	5	9
4252021	PROB	n/a	LTP336	ltpFR2	10	n/a	n/a	n/a	33	14	1	5	8
4254753	PROB	n/a	LTP336	ltpFR2	10	n/a	n/a	n/a	33	20	9	4	7
4257170	PROB	n/a	LTP336	ltpFR2	10	n/a	n/a	n/a	33	18	5	4	9
4260218	PROB	n/a	LTP336	ltpFR2	10	n/a	n/a	n/a	33	8	4	2	2
4261983	PROB	n/a	LTP336	ltpFR2	10	n/a	n/a	n/a	33	14	5	4	5
4263504	STOP	n/a	LTP336	ltpFR2	10	n/a	n/a	n/a	33	n/a	n/a	n/a	n/a
4266948	REC_START	n/a	LTP336	ltpFR2	10	21	n/a	n/a	n/a	n/a	0	0	0
4267832	REC_WORD	wordpools/wasnorm_wordpool_576.txt	LTP336	ltpFR2	10	21	DUSTPAN	509	n/a	n/a	0	0	0
4269263	REC_WORD	wordpools/wasnorm_wordpool_576.txt	LTP336	ltpFR2	10	21	VAGRANT	1544	n/a	n/a	0	0	0
4270767	REC_WORD	wordpools/wasnorm_wordpool_576.txt	LTP336	ltpFR2	10	21	GANGSTER	620	n/a	n/a	0	0	0
4272037	REC_WORD	wordpools/wasnorm_wordpool_576.txt	LTP336	ltpFR2	10	21	CREATURE	403	n/a	n/a	0	0	0
4273842	REC_WORD	wordpools/wasnorm_wordpool_576.txt	LTP336	ltpFR2	10	21	BISON	131	n/a	n/a	0	0	0
4275452	REC_WORD	wordpools/wasnorm_wordpool_576.txt	LTP336	ltpFR2	10	21	PISTOL	1075	n/a	n/a	0	0	0
4276892	REC_WORD	wordpools/wasnorm_wordpool_576.txt	LTP336	ltpFR2	10	21	POWDER	1117	n/a	n/a	0	0	0
4357391	WORD	wordpools/wasnorm_wordpool_576.txt	LTP336	ltpFR2	10	22	CRAYON	401	n/a	n/a	0	0	0
4360190	WORD	wordpools/wasnorm_wordpool_576.txt	LTP336	ltpFR2	10	22	TROUT	1511	n/a	n/a	0	0	0
4363004	WORD	wordpools/wasnorm_wordpool_576.txt	LTP336	ltpFR2	10	22	LAKE	796	n/a	n/a	0	0	0
4365719	WORD	wordpools/wasnorm_wordpool_576.txt	LTP336	ltpFR2	10	22	FARMER	553	n/a	n/a	0	0	0
4368402	WORD	wordpools/wasnorm_wordpool_576.txt	LTP336	ltpFR2	10	22	FEMALE	559	n/a	n/a	0	0	0
4371034	WORD	wordpools/wasnorm_wordpool_576.txt	LTP336	ltpFR2	10	22	PREACHER	1119	n/a	n/a	0	0	0
4373533	WORD	wordpools/wasnorm_wordpool_576.txt	LTP336	ltpFR2	10	22	PISTON	1076	n/a	n/a	0	0	0
4376048	WORD	wordpools/wasnorm_wordpool_576.txt	LTP336	ltpFR2	10	22	SKETCH	1315	n/a	n/a	0	0	0
4378847	WORD	wordpools/wasnorm_wordpool_576.txt	LTP336	ltpFR2	10	22	DOUGHNUT	490	n/a	n/a	0	0	0
4381430	WORD	wordpools/wasnorm_wordpool_576.txt	LTP336	ltpFR2	10	22	CREVICE	405	n/a	n/a	0	0	0
4384129	WORD	wordpools/wasnorm_wordpool_576.txt	LTP336	ltpFR2	10	22	DAISY	435	n/a	n/a	0	0	0
4386561	WORD	wordpools/wasnorm_wordpool_576.txt	LTP336	ltpFR2	10	22	GLASS	639	n/a	n/a	0	0	0
4389059	WORD	wordpools/wasnorm_wordpool_576.txt	LTP336	ltpFR2	10	22	JAPAN	749	n/a	n/a	0	0	0
