mstime	trial_type	stim_file	subject	experiment	session	trial	task	item_name	item_num	recog_resp	recog_conf	resp	answer	test_x	test_y	test_z	color_r	color_g	color_b	case	font
0	SESS_START	n/a	LTP231	ltpFR	9	n/a	n/a	n/a	n/a	0	4	n/a	n/a	0	0	0	n/a	n/a	n/a	n/a	n/a
36559	START	n/a	LTP231	ltpFR	9	n/a	n/a	n/a	n/a	n/a	n/a	n/a	n/a	n/a	n/a	n/a	n/a	n/a	n/a	n/a	n/a
36609	PROB	n/a	LTP231	ltpFR	9	n/a	n/a	n/a	n/a	n/a	n/a	n/a	18	2	7	9	n/a	n/a	n/a	n/a	n/a
39804	PROB	n/a	LTP231	ltpFR	9	n/a	n/a	n/a	n/a	n/a	n/a	n/a	22	8	6	8	n/a	n/a	n/a	n/a	n/a
42080	PROB	n/a	LTP231	ltpFR	9	n/a	n/a	n/a	n/a	n/a	n/a	n/a	12	7	1	4	n/a	n/a	n/a	n/a	n/a
44404	PROB	n/a	LTP231	ltpFR	9	n/a	n/a	n/a	n/a	n/a	n/a	n/a	17	2	8	7	n/a	n/a	n/a	n/a	n/a
46245	PROB	n/a	LTP231	ltpFR	9	n/a	n/a	n/a	n/a	n/a	n/a	n/a	20	9	2	9	n/a	n/a	n/a	n/a	n/a
48922	PROB	n/a	LTP231	ltpFR	9	n/a	n/a	n/a	n/a	n/a	n/a	n/a	19	5	6	8	n/a	n/a	n/a	n/a	n/a
51197	PROB	n/a	LTP231	ltpFR	9	n/a	n/a	n/a	n/a	n/a	n/a	n/a	7	3	1	3	n/a	n/a	n/a	n/a	n/a
52904	PROB	n/a	LTP231	ltpFR	9	n/a	n/a	n/a	n/a	n/a	n/a	n/a	14	9	1	4	n/a	n/a	n/a	n/a	n/a
56559	STOP	n/a	LTP231	ltpFR	9	n/a	n/a	n/a	n/a	n/a	n/a	n/a	n/a	n/a	n/a	n/a	n/a	n/a	n/a	n/a	n/a
103679	START	n/a	LTP231	ltpFR	9	n/a	n/a	n/a	n/a	n/a	n/a	n/a	n/a	n/a	n/a	n/a	n/a	n/a	n/a	n/a	n/a
105184	PROB	n/a	LTP231	ltpFR	9	n/a	n/a	n/a	n/a	n/a	n/a	n/a	20	9	8	3	n/a	n/a	n/a	n/a	n/a
108580	PROB	n/a	LTP231	ltpFR	9	n/a	n/a	n/a	n/a	n/a	n/a	n/a	18	8	4	6	n/a	n/a	n/a	n/a	n/a
110219	STOP	n/a	LTP231	ltpFR	9	n/a	n/a	n/a	n/a	n/a	n/a	n/a	n/a	n/a	n/a	n/a	n/a	n/a	n/a	n/a	n/a
112696	WORD	wordpools/wasnorm_wordpool_less_exclusions.txt	LTP231	ltpFR	9	1	1	TUXEDO	1525	1	n/a	0	n/a	0	0	0	0.422607421875	0.5869140625	0	lower	zerothre.ttf
115708	START	n/a	LTP231	ltpFR	9	n/a	n/a	n/a	n/a	n/a	n/a	n/a	n/a	n/a	n/a	n/a	n/a	n/a	n/a	n/a	n/a
116861	PROB	n/a	LTP231	ltpFR	9	n/a	n/a	n/a	n/a	n/a	n/a	n/a	10	6	1	3	n/a	n/a	n/a	n/a	n/a
119020	PROB	n/a	LTP231	ltpFR	9	n/a	n/a	n/a	n/a	n/a	n/a	n/a	18	1	8	9	n/a	n/a	n/a	n/a	n/a
120860	PROB	n/a	LTP231	ltpFR	9	n/a	n/a	n/a	n/a	n/a	n/a	n/a	13	1	3	9	n/a	n/a	n/a	n/a	n/a
122907	STOP	n/a	LTP231	ltpFR	9	n/a	n/a	n/a	n/a	n/a	n/a	n/a	n/a	n/a	n/a	n/a	n/a	n/a	n/a	n/a	n/a
124825	WORD	wordpools/wasnorm_wordpool_less_exclusions.txt	LTP231	ltpFR	9	1	1	GRAVEL	659	n/a	n/a	0	n/a	0	0	0	0.422607421875	0.5869140625	0	lower	zerothre.ttf
127837	START	n/a	LTP231	ltpFR	9	n/a	n/a	n/a	n/a	n/a	n/a	n/a	n/a	n/a	n/a	n/a	n/a	n/a	n/a	n/a	n/a
128987	PROB	n/a	LTP231	ltpFR	9	n/a	n/a	n/a	n/a	n/a	n/a	n/a	20	8	3	8	n/a	n/a	n/a	n/a	n/a
131667	PROB	n/a	LTP231	ltpFR	9	n/a	n/a	n/a	n/a	n/a	n/a	n/a	12	5	6	1	n/a	n/a	n/a	n/a	n/a
135836	STOP	n/a	LTP231	ltpFR	9	n/a	n/a	n/a	n/a	n/a	n/a	n/a	n/a	n/a	n/a	n/a	n/a	n/a	n/a	n/a	n/a
136904	WORD	wordpools/wasnorm_wordpool_less_exclusions.txt	LTP231	ltpFR	9	1	1	SWAMP	1416	n/a	n/a	0	n/a	0	0	0	0.422607421875	0.5869140625	0	lower	zerothre.ttf
139916	START	n/a	LTP231	ltpFR	9	n/a	n/a	n/a	n/a	n/a	n/a	n/a	n/a	n/a	n/a	n/a	n/a	n/a	n/a	n/a	n/a
140752	PROB	n/a	LTP231	ltpFR	9	n/a	n/a	n/a	n/a	n/a	n/a	n/a	17	4	6	7	n/a	n/a	n/a	n/a	n/a
142843	PROB	n/a	LTP231	ltpFR	9	n/a	n/a	n/a	n/a	n/a	n/a	n/a	17	9	4	4	n/a	n/a	n/a	n/a	n/a
147916	STOP	n/a	LTP231	ltpFR	9	n/a	n/a	n/a	n/a	n/a	n/a	n/a	n/a	n/a	n/a	n/a	n/a	n/a	n/a	n/a	n/a
148912	WORD	wordpools/wasnorm_wordpool_less_exclusions.txt	LTP231	ltpFR	9	1	1	CROCODILE	411	n/a	n/a	1	n/a	0	0	0	0.422607421875	0.5869140625	0	lower	zerothre.ttf
151928	START	n/a	LTP231	ltpFR	9	n/a	n/a	n/a	n/a	n/a	n/a	n/a	n/a	n/a	n/a	n/a	n/a	n/a	n/a	n/a	n/a
153132	PROB	n/a	LTP231	ltpFR	9	n/a	n/a	n/a	n/a	n/a	n/a	n/a	16	6	4	6	n/a	n/a	n/a	n/a	n/a
155976	PROB	n/a	LTP231	ltpFR	9	n/a	n/a	n/a	n/a	n/a	n/a	n/a	15	2	4	9	n/a	n/a	n/a	n/a	n/a
158795	STOP	n/a	LTP231	ltpFR	9	n/a	n/a	n/a	n/a	n/a	n/a	n/a	n/a	n/a	n/a	n/a	n/a	n/a	n/a	n/a	n/a
161028	WORD	wordpools/wasnorm_wordpool_less_exclusions.txt	LTP231	ltpFR	9	1	0	YARN	1631	n/a	n/a	0	n/a	0	0	0	0.57763671875	0.412841796875	1	upper	amplitud.ttf
164040	START	n/a	LTP231	ltpFR	9	n/a	n/a	n/a	n/a	n/a	n/a	n/a	n/a	n/a	n/a	n/a	n/a	n/a	n/a	n/a	n/a
165190	PROB	n/a	LTP231	ltpFR	9	n/a	n/a	n/a	n/a	n/a	n/a	n/a	14	7	1	6	n/a	n/a	n/a	n/a	n/a
167318	PROB	n/a	LTP231	ltpFR	9	n/a	n/a	n/a	n/a	n/a	n/a	n/a	12	2	6	3	n/a	n/a	n/a	n/a	n/a
171972	STOP	n/a	LTP231	ltpFR	9	n/a	n/a	n/a	n/a	n/a	n/a	n/a	n/a	n/a	n/a	n/a	n/a	n/a	n/a	n/a	n/a
173270	WORD	wordpools/wasnorm_wordpool_less_exclusions.txt	LTP231	ltpFR	9	1	0	STRING	1394	n/a	n/a	0	n/a	0	0	0	0.57763671875	0.412841796875	1	upper	amplitud.ttf
176286	START	n/a	LTP231	ltpFR	9	n/a	n/a	n/a	n/a	n/a	n/a	n/a	n/a	n/a	n/a	n/a	n/a	n/a	n/a	n/a	n/a
177222	PROB	n/a	LTP231	ltpFR	9	n/a	n/a	n/a	n/a	n/a	n/a	n/a	18	4	6	8	n/a	n/a	n/a	n/a	n/a
179326	PROB	n/a	LTP231	ltpFR	9	n/a	n/a	n/a	n/a	n/a	n/a	n/a	9	7	1	1	n/a	n/a	n/a	n/a	n/a
181066	PROB	n/a	LTP231	ltpFR	9	n/a	n/a	n/a	n/a	n/a	n/a	n/a	10	6	3	1	n/a	n/a	n/a	n/a	n/a
183252	STOP	n/a	LTP231	ltpFR	9	n/a	n/a	n/a	n/a	n/a	n/a	n/a	n/a	n/a	n/a	n/a	n/a	n/a	n/a	n/a	n/a
185152	WORD	wordpools/wasnorm_wordpool_less_exclusions.txt	LTP231	ltpFR	9	1	0	ELEPHANT	523	n/a	n/a	0	n/a	0	0	0	0.57763671875	0.412841796875	1	upper	amplitud.ttf
188164	START	n/a	LTP231	ltpFR	9	n/a	n/a	n/a	n/a	n/a	n/a	n/a	n/a	n/a	n/a	n/a	n/a	n/a	n/a	n/a	n/a
189097	PROB	n/a	LTP231	ltpFR	9	n/a	n/a	n/a	n/a	n/a	n/a	n/a	12	5	6	1	n/a	n/a	n/a	n/a	n/a
191255	PROB	n/a	LTP231	ltpFR	9	n/a	n/a	n/a	n/a	n/a	n/a	n/a	13	5	1	7	n/a	n/a	n/a	n/a	n/a
194971	STOP	n/a	LTP231	ltpFR	9	n/a	n/a	n/a	n/a	n/a	n/a	n/a	n/a	n/a	n/a	n/a	n/a	n/a	n/a	n/a	n/a
197097	WORD	wordpools/wasnorm_wordpool_less_exclusions.txt	LTP231	ltpFR	9	1	0	BLENDER	136	n/a	n/a	0	n/a	0	0	0	0.57763671875	0.412841796875	1	upper	amplitud.ttf
200109	START	n/a	LTP231	ltpFR	9	n/a	n/a	n/a	n/a	n/a	n/a	n/a	n/a	n/a	n/a	n/a	n/a	n/a	n/a	n/a	n/a
201079	PROB	n/a	LTP231	ltpFR	9	n/a	n/a	n/a	n/a	n/a	n/a	n/a	20	4	5	9	n/a	n/a	n/a	n/a	n/a
208109	STOP	n/a	LTP231	ltpFR	9	n/a	n/a	n/a	n/a	n/a	n/a	n/a	n/a	n/a	n/a	n/a	n/a	n/a	n/a	n/a	n/a
209038	WORD	wordpools/wasnorm_wordpool_less_exclusions.txt	LTP231	ltpFR	9	1	1	VET	1560	n/a	n/a	1	n/a	0	0	0	0.422607421875	0.5869140625	0	lower	zerothre.ttf
212054	START	n/a	LTP231	ltpFR	9	n/a	n/a	n/a	n/a	n/a	n/a	n/a	n/a	n/a	n/a	n/a	n/a	n/a	n/a	n/a	n/a
212990	PROB	n/a	LTP231	ltpFR	9	n/a	n/a	n/a	n/a	n/a	n/a	n/a	12	2	9	1	n/a	n/a	n/a	n/a	n/a
214647	PROB	n/a	LTP231	ltpFR	9	n/a	n/a	n/a	n/a	n/a	n/a	n/a	10	6	3	1	n/a	n/a	n/a	n/a	n/a
220054	STOP	n/a	LTP231	ltpFR	9	n/a	n/a	n/a	n/a	n/a	n/a	n/a	n/a	n/a	n/a	n/a	n/a	n/a	n/a	n/a	n/a
220920	WORD	wordpools/wasnorm_wordpool_less_exclusions.txt	LTP231	ltpFR	9	1	1	SHIRT	1287	n/a	n/a	2	n/a	0	0	0	0.422607421875	0.5869140625	0	lower	zerothre.ttf
222192	KEY_MSG	n/a	LTP231	ltpFR	9	1	n/a	n/a	n/a	n/a	n/a	n/a	n/a	0	0	0	n/a	n/a	n/a	n/a	n/a
223932	START	n/a	LTP231	ltpFR	9	n/a	n/a	n/a	n/a	n/a	n/a	n/a	n/a	n/a	n/a	n/a	n/a	n/a	n/a	n/a	n/a
224785	PROB	n/a	LTP231	ltpFR	9	n/a	n/a	n/a	n/a	n/a	n/a	n/a	11	2	6	3	n/a	n/a	n/a	n/a	n/a
227006	PROB	n/a	LTP231	ltpFR	9	n/a	n/a	n/a	n/a	n/a	n/a	n/a	17	4	7	6	n/a	n/a	n/a	n/a	n/a
229332	PROB	n/a	LTP231	ltpFR	9	n/a	n/a	n/a	n/a	n/a	n/a	n/a	11	6	4	1	n/a	n/a	n/a	n/a	n/a
230868	STOP	n/a	LTP231	ltpFR	9	n/a	n/a	n/a	n/a	n/a	n/a	n/a	n/a	n/a	n/a	n/a	n/a	n/a	n/a	n/a	n/a
233116	WORD	wordpools/wasnorm_wordpool_less_exclusions.txt	LTP231	ltpFR	9	1	1	TUB	1514	n/a	n/a	0	n/a	0	0	0	0.422607421875	0.5869140625	0	lower	zerothre.ttf
236128	START	n/a	LTP231	ltpFR	9	n/a	n/a	n/a	n/a	n/a	n/a	n/a	n/a	n/a	n/a	n/a	n/a	n/a	n/a	n/a	n/a
236947	PROB	n/a	LTP231	ltpFR	9	n/a	n/a	n/a	n/a	n/a	n/a	n/a	14	9	2	3	n/a	n/a	n/a	n/a	n/a
239189	PROB	n/a	LTP231	ltpFR	9	n/a	n/a	n/a	n/a	n/a	n/a	n/a	10	1	3	6	n/a	n/a	n/a	n/a	n/a
244128	STOP	n/a	LTP231	ltpFR	9	n/a	n/a	n/a	n/a	n/a	n/a	n/a	n/a	n/a	n/a	n/a	n/a	n/a	n/a	n/a	n/a
245128	WORD	wordpools/wasnorm_wordpool_less_exclusions.txt	LTP231	ltpFR	9	1	1	SPONGE	1355	n/a	n/a	0	n/a	0	0	0	0.422607421875	0.5869140625	0	lower	zerothre.ttf
248140	START	n/a	LTP231	ltpFR	9	n/a	n/a	n/a	n/a	n/a	n/a	n/a	n/a	n/a	n/a	n/a	n/a	n/a	n/a	n/a	n/a
249110	PROB	n/a	LTP231	ltpFR	9	n/a	n/a	n/a	n/a	n/a	n/a	n/a	13	4	6	3	n/a	n/a	n/a	n/a	n/a
250963	PROB	n/a	LTP231	ltpFR	9	n/a	n/a	n/a	n/a	n/a	n/a	n/a	14	6	7	1	n/a	n/a	n/a	n/a	n/a
256140	STOP	n/a	LTP231	ltpFR	9	n/a	n/a	n/a	n/a	n/a	n/a	n/a	n/a	n/a	n/a	n/a	n/a	n/a	n/a	n/a	n/a
257040	WORD	wordpools/wasnorm_wordpool_less_exclusions.txt	LTP231	ltpFR	9	1	0	SPARROW	1347	n/a	n/a	0	n/a	0	0	0	0.57763671875	0.412841796875	1	upper	amplitud.ttf
260052	START	n/a	LTP231	ltpFR	9	n/a	n/a	n/a	n/a	n/a	n/a	n/a	n/a	n/a	n/a	n/a	n/a	n/a	n/a	n/a	n/a
260871	PROB	n/a	LTP231	ltpFR	9	n/a	n/a	n/a	n/a	n/a	n/a	n/a	15	2	4	9	n/a	n/a	n/a	n/a	n/a
264196	PROB	n/a	LTP231	ltpFR	9	n/a	n/a	n/a	n/a	n/a	n/a	n/a	17	4	9	4	n/a	n/a	n/a	n/a	n/a
266644	STOP	n/a	LTP231	ltpFR	9	n/a	n/a	n/a	n/a	n/a	n/a	n/a	n/a	n/a	n/a	n/a	n/a	n/a	n/a	n/a	n/a
268951	WORD	wordpools/wasnorm_wordpool_less_exclusions.txt	LTP231	ltpFR	9	1	0	MAILMAN	858	n/a	n/a	1	n/a	0	0	0	0.57763671875	0.412841796875	1	upper	amplitud.ttf
271963	START	n/a	LTP231	ltpFR	9	n/a	n/a	n/a	n/a	n/a	n/a	n/a	n/a	n/a	n/a	n/a	n/a	n/a	n/a	n/a	n/a
272966	PROB	n/a	LTP231	ltpFR	9	n/a	n/a	n/a	n/a	n/a	n/a	n/a	13	8	3	1	n/a	n/a	n/a	n/a	n/a
279963	STOP	n/a	LTP231	ltpFR	9	n/a	n/a	n/a	n/a	n/a	n/a	n/a	n/a	n/a	n/a	n/a	n/a	n/a	n/a	n/a	n/a
281181	WORD	wordpools/wasnorm_wordpool_less_exclusions.txt	LTP231	ltpFR	9	1	0	PATRIOT	1026	n/a	n/a	1	n/a	0	0	0	0.57763671875	0.412841796875	1	upper	amplitud.ttf
284193	START	n/a	LTP231	ltpFR	9	n/a	n/a	n/a	n/a	n/a	n/a	n/a	n/a	n/a	n/a	n/a	n/a	n/a	n/a	n/a	n/a
285246	PROB	n/a	LTP231	ltpFR	9	n/a	n/a	n/a	n/a	n/a	n/a	n/a	13	8	3	2	n/a	n/a	n/a	n/a	n/a
287250	PROB	n/a	LTP231	ltpFR	9	n/a	n/a	n/a	n/a	n/a	n/a	n/a	16	7	2	7	n/a	n/a	n/a	n/a	n/a
289810	PROB	n/a	LTP231	ltpFR	9	n/a	n/a	n/a	n/a	n/a	n/a	n/a	17	7	4	6	n/a	n/a	n/a	n/a	n/a
291708	STOP	n/a	LTP231	ltpFR	9	n/a	n/a	n/a	n/a	n/a	n/a	n/a	n/a	n/a	n/a	n/a	n/a	n/a	n/a	n/a	n/a
293340	WORD	wordpools/wasnorm_wordpool_less_exclusions.txt	LTP231	ltpFR	9	1	0	BIRD	129	n/a	n/a	0	n/a	0	0	0	0.57763671875	0.412841796875	1	upper	amplitud.ttf
296355	START	n/a	LTP231	ltpFR	9	n/a	n/a	n/a	n/a	n/a	n/a	n/a	n/a	n/a	n/a	n/a	n/a	n/a	n/a	n/a	n/a
297391	PROB	n/a	LTP231	ltpFR	9	n/a	n/a	n/a	n/a	n/a	n/a	n/a	24	9	8	7	n/a	n/a	n/a	n/a	n/a
301156	PROB	n/a	LTP231	ltpFR	9	n/a	n/a	n/a	n/a	n/a	n/a	n/a	11	1	3	7	n/a	n/a	n/a	n/a	n/a
302922	STOP	n/a	LTP231	ltpFR	9	n/a	n/a	n/a	n/a	n/a	n/a	n/a	n/a	n/a	n/a	n/a	n/a	n/a	n/a	n/a	n/a
306142	REC_START	n/a	LTP231	ltpFR	9	1	n/a	n/a	n/a	n/a	n/a	n/a	n/a	0	0	0	n/a	n/a	n/a	n/a	n/a
307983	REC_WORD	wordpools/wasnorm_wordpool_less_exclusions.txt	LTP231	ltpFR	9	1	1	TUXEDO	1525	n/a	n/a	0	n/a	0	0	0	n/a	n/a	n/a	n/a	n/a
310751	REC_WORD	wordpools/wasnorm_wordpool_less_exclusions.txt	LTP231	ltpFR	9	1	0	BIRD	129	n/a	n/a	0	n/a	0	0	0	n/a	n/a	n/a	n/a	n/a
319076	REC_WORD	wordpools/wasnorm_wordpool_less_exclusions.txt	LTP231	ltpFR	9	1	0	SPARROW	1347	n/a	n/a	0	n/a	0	0	0	n/a	n/a	n/a	n/a	n/a
321207	REC_WORD	wordpools/wasnorm_wordpool_less_exclusions.txt	LTP231	ltpFR	9	1	0	YARN	1631	n/a	n/a	0	n/a	0	0	0	n/a	n/a	n/a	n/a	n/a
323472	REC_WORD	wordpools/wasnorm_wordpool_less_exclusions.txt	LTP231	ltpFR	9	1	0	PATRIOT	1026	n/a	n/a	1	n/a	0	0	0	n/a	n/a	n/a	n/a	n/a
325358	REC_WORD	wordpools/wasnorm_wordpool_less_exclusions.txt	LTP231	ltpFR	9	1	1	VET	1560	n/a	n/a	1	n/a	0	0	0	n/a	n/a	n/a	n/a	n/a
359735	REC_WORD	wordpools/wasnorm_wordpool_less_exclusions.txt	LTP231	ltpFR	9	1	1	CROCODILE	411	n/a	n/a	1	n/a	0	0	0	n/a	n/a	n/a	n/a	n/a
374392	REC_WORD	wordpools/wasnorm_wordpool_less_exclusions.txt	LTP231	ltpFR	9	1	1	SHIRT	1287	n/a	n/a	2	n/a	0	0	0	n/a	n/a	n/a	n/a	n/a
402588	WORD	wordpools/wasnorm_wordpool_less_exclusions.txt	LTP231	ltpFR	9	2	1	BAY	102	n/a	n/a	0	n/a	0	0	0	0.422607421875	0.5869140625	0	lower	zerothre.ttf
406754	WORD	wordpools/wasnorm_wordpool_less_exclusions.txt	LTP231	ltpFR	9	2	1	BEAVER	109	n/a	n/a	1	n/a	0	0	0	0.422607421875	0.5869140625	0	lower	zerothre.ttf
410920	WORD	wordpools/wasnorm_wordpool_less_exclusions.txt	LTP231	ltpFR	9	2	1	SERGEANT	1269	n/a	n/a	1	n/a	0	0	0	0.422607421875	0.5869140625	0	lower	zerothre.ttf
414851	WORD	wordpools/wasnorm_wordpool_less_exclusions.txt	LTP231	ltpFR	9	2	1	TUBA	1515	n/a	n/a	0	n/a	0	0	0	0.422607421875	0.5869140625	0	lower	zerothre.ttf
418983	WORD	wordpools/wasnorm_wordpool_less_exclusions.txt	LTP231	ltpFR	9	2	0	ORCHESTRA	981	n/a	n/a	1	n/a	0	0	0	0.57763671875	0.412841796875	1	upper	amplitud.ttf
422898	WORD	wordpools/wasnorm_wordpool_less_exclusions.txt	LTP231	ltpFR	9	2	0	CELERY	266	n/a	n/a	0	n/a	0	0	0	0.57763671875	0.412841796875	1	upper	amplitud.ttf
427097	WORD	wordpools/wasnorm_wordpool_less_exclusions.txt	LTP231	ltpFR	9	2	0	HARE	688	n/a	n/a	0	n/a	0	0	0	0.57763671875	0.412841796875	1	upper	amplitud.ttf
431246	WORD	wordpools/wasnorm_wordpool_less_exclusions.txt	LTP231	ltpFR	9	2	0	ANIMAL	23	n/a	n/a	0	n/a	0	0	0	0.57763671875	0.412841796875	1	upper	amplitud.ttf
435308	WORD	wordpools/wasnorm_wordpool_less_exclusions.txt	LTP231	ltpFR	9	2	0	STEM	1376	n/a	n/a	0	n/a	0	0	0	0.57763671875	0.412841796875	1	upper	amplitud.ttf
439511	WORD	wordpools/wasnorm_wordpool_less_exclusions.txt	LTP231	ltpFR	9	2	0	DISHWASHER	475	n/a	n/a	1	n/a	0	0	0	0.57763671875	0.412841796875	1	upper	amplitud.ttf
443522	WORD	wordpools/wasnorm_wordpool_less_exclusions.txt	LTP231	ltpFR	9	2	1	FORT	595	n/a	n/a	0	n/a	0	0	0	0.422607421875	0.5869140625	0	lower	zerothre.ttf
447524	WORD	wordpools/wasnorm_wordpool_less_exclusions.txt	LTP231	ltpFR	9	2	1	MARBLE	867	n/a	n/a	0	n/a	0	0	0	0.422607421875	0.5869140625	0	lower	zerothre.ttf
451401	WORD	wordpools/wasnorm_wordpool_less_exclusions.txt	LTP231	ltpFR	9	2	1	REFEREE	1178	n/a	n/a	1	n/a	0	0	0	0.422607421875	0.5869140625	0	lower	zerothre.ttf
455420	WORD	wordpools/wasnorm_wordpool_less_exclusions.txt	LTP231	ltpFR	9	2	1	BARK	87	n/a	n/a	0	n/a	0	0	0	0.422607421875	0.5869140625	0	lower	zerothre.ttf
459603	WORD	wordpools/wasnorm_wordpool_less_exclusions.txt	LTP231	ltpFR	9	2	0	ACTOR	5	n/a	n/a	1	n/a	0	0	0	0.57763671875	0.412841796875	1	upper	amplitud.ttf
463585	WORD	wordpools/wasnorm_wordpool_less_exclusions.txt	LTP231	ltpFR	9	2	0	PADDLE	1000	n/a	n/a	0	n/a	0	0	0	0.57763671875	0.412841796875	1	upper	amplitud.ttf
466597	START	n/a	LTP231	ltpFR	9	n/a	n/a	n/a	n/a	n/a	n/a	n/a	n/a	n/a	n/a	n/a	n/a	n/a	n/a	n/a	n/a
467717	PROB	n/a	LTP231	ltpFR	9	n/a	n/a	n/a	n/a	n/a	n/a	n/a	22	8	6	8	n/a	n/a	n/a	n/a	n/a
470829	PROB	n/a	LTP231	ltpFR	9	n/a	n/a	n/a	n/a	n/a	n/a	n/a	19	9	1	9	n/a	n/a	n/a	n/a	n/a
473700	STOP	n/a	LTP231	ltpFR	9	n/a	n/a	n/a	n/a	n/a	n/a	n/a	n/a	n/a	n/a	n/a	n/a	n/a	n/a	n/a	n/a
476383	REC_START	n/a	LTP231	ltpFR	9	2	n/a	n/a	n/a	n/a	n/a	n/a	n/a	0	0	0	n/a	n/a	n/a	n/a	n/a
478333	REC_WORD	wordpools/wasnorm_wordpool_less_exclusions.txt	LTP231	ltpFR	9	2	1	SERGEANT	1269	n/a	n/a	1	n/a	0	0	0	n/a	n/a	n/a	n/a	n/a
479840	REC_WORD	wordpools/wasnorm_wordpool_less_exclusions.txt	LTP231	ltpFR	9	2	1	TUBA	1515	n/a	n/a	0	n/a	0	0	0	n/a	n/a	n/a	n/a	n/a
481400	REC_WORD	wordpools/wasnorm_wordpool_less_exclusions.txt	LTP231	ltpFR	9	2	0	STEM	1376	n/a	n/a	0	n/a	0	0	0	n/a	n/a	n/a	n/a	n/a
486515	REC_WORD	wordpools/wasnorm_wordpool_less_exclusions.txt	LTP231	ltpFR	9	2	0	ANIMAL	23	n/a	n/a	0	n/a	0	0	0	n/a	n/a	n/a	n/a	n/a
487772	REC_WORD	wordpools/wasnorm_wordpool_less_exclusions.txt	LTP231	ltpFR	9	2	0	DISHWASHER	475	n/a	n/a	1	n/a	0	0	0	n/a	n/a	n/a	n/a	n/a
573064	WORD	wordpools/wasnorm_wordpool_less_exclusions.txt	LTP231	ltpFR	9	3	1	VILLAGE	1566	n/a	n/a	0	n/a	0	0	0	0.422607421875	0.5869140625	0	lower	zerothre.ttf
576929	WORD	wordpools/wasnorm_wordpool_less_exclusions.txt	LTP231	ltpFR	9	3	1	CONTRACTOR	369	n/a	n/a	1	n/a	0	0	0	0.422607421875	0.5869140625	0	lower	zerothre.ttf
580910	WORD	wordpools/wasnorm_wordpool_less_exclusions.txt	LTP231	ltpFR	9	3	1	DIME	466	n/a	n/a	0	n/a	0	0	0	0.422607421875	0.5869140625	0	lower	zerothre.ttf
584758	WORD	wordpools/wasnorm_wordpool_less_exclusions.txt	LTP231	ltpFR	9	3	1	SCALPEL	1243	n/a	n/a	0	n/a	0	0	0	0.422607421875	0.5869140625	0	lower	zerothre.ttf
588757	WORD	wordpools/wasnorm_wordpool_less_exclusions.txt	LTP231	ltpFR	9	3	1	SENATE	1267	n/a	n/a	0	n/a	0	0	0	0.422607421875	0.5869140625	0	lower	zerothre.ttf
592621	WORD	wordpools/wasnorm_wordpool_less_exclusions.txt	LTP231	ltpFR	9	3	1	POLITICIAN	1099	n/a	n/a	1	n/a	0	0	0	0.422607421875	0.5869140625	0	lower	zerothre.ttf
596804	WORD	wordpools/wasnorm_wordpool_less_exclusions.txt	LTP231	ltpFR	9	3	1	NET	946	n/a	n/a	0	n/a	0	0	0	0.422607421875	0.5869140625	0	lower	zerothre.ttf
600765	WORD	wordpools/wasnorm_wordpool_less_exclusions.txt	LTP231	ltpFR	9	3	1	BUILDER	190	n/a	n/a	1	n/a	0	0	0	0.422607421875	0.5869140625	0	lower	zerothre.ttf
604596	WORD	wordpools/wasnorm_wordpool_less_exclusions.txt	LTP231	ltpFR	9	3	1	APARTMENT	30	n/a	n/a	0	n/a	0	0	0	0.422607421875	0.5869140625	0	lower	zerothre.ttf
608565	WORD	wordpools/wasnorm_wordpool_less_exclusions.txt	LTP231	ltpFR	9	3	1	CELLO	268	n/a	n/a	0	n/a	0	0	0	0.422607421875	0.5869140625	0	lower	zerothre.ttf
612546	WORD	wordpools/wasnorm_wordpool_less_exclusions.txt	LTP231	ltpFR	9	3	1	TURKEY	1520	n/a	n/a	1	n/a	0	0	0	0.422607421875	0.5869140625	0	lower	zerothre.ttf
616645	WORD	wordpools/wasnorm_wordpool_less_exclusions.txt	LTP231	ltpFR	9	3	1	DRAWER	493	n/a	n/a	0	n/a	0	0	0	0.422607421875	0.5869140625	0	lower	zerothre.ttf
620643	WORD	wordpools/wasnorm_wordpool_less_exclusions.txt	LTP231	ltpFR	9	3	1	BATTERY	101	n/a	n/a	0	n/a	0	0	0	0.422607421875	0.5869140625	0	lower	zerothre.ttf
624859	WORD	wordpools/wasnorm_wordpool_less_exclusions.txt	LTP231	ltpFR	9	3	1	FORK	594	n/a	n/a	0	n/a	0	0	0	0.422607421875	0.5869140625	0	lower	zerothre.ttf
628704	WORD	wordpools/wasnorm_wordpool_less_exclusions.txt	LTP231	ltpFR	9	3	1	PIANO	1057	n/a	n/a	0	n/a	0	0	0	0.422607421875	0.5869140625	0	lower	zerothre.ttf
632555	WORD	wordpools/wasnorm_wordpool_less_exclusions.txt	LTP231	ltpFR	9	3	1	LAMP	798	n/a	n/a	0	n/a	0	0	0	0.422607421875	0.5869140625	0	lower	zerothre.ttf
638311	REC_START	n/a	LTP231	ltpFR	9	3	n/a	n/a	n/a	n/a	n/a	n/a	n/a	0	0	0	n/a	n/a	n/a	n/a	n/a
639832	REC_WORD	wordpools/wasnorm_wordpool_less_exclusions.txt	LTP231	ltpFR	9	3	1	LAMP	798	n/a	n/a	0	n/a	0	0	0	n/a	n/a	n/a	n/a	n/a
641169	REC_WORD	wordpools/wasnorm_wordpool_less_exclusions.txt	LTP231	ltpFR	9	3	1	BATTERY	101	n/a	n/a	0	n/a	0	0	0	n/a	n/a	n/a	n/a	n/a
645913	REC_WORD	wordpools/wasnorm_wordpool_less_exclusions.txt	LTP231	ltpFR	9	3	1	POLITICIAN	1099	n/a	n/a	1	n/a	0	0	0	n/a	n/a	n/a	n/a	n/a
648118	REC_WORD	wordpools/wasnorm_wordpool_less_exclusions.txt	LTP231	ltpFR	9	3	1	CONTRACTOR	369	n/a	n/a	1	n/a	0	0	0	n/a	n/a	n/a	n/a	n/a
649889	REC_WORD	wordpools/wasnorm_wordpool_less_exclusions.txt	LTP231	ltpFR	9	3	1	SENATE	1267	n/a	n/a	0	n/a	0	0	0	n/a	n/a	n/a	n/a	n/a
722143	START	n/a	LTP231	ltpFR	9	n/a	n/a	n/a	n/a	n/a	n/a	n/a	n/a	n/a	n/a	n/a	n/a	n/a	n/a	n/a	n/a
723648	PROB	n/a	LTP231	ltpFR	9	n/a	n/a	n/a	n/a	n/a	n/a	n/a	17	3	6	8	n/a	n/a	n/a	n/a	n/a
730143	STOP	n/a	LTP231	ltpFR	9	n/a	n/a	n/a	n/a	n/a	n/a	n/a	n/a	n/a	n/a	n/a	n/a	n/a	n/a	n/a	n/a
731194	WORD	wordpools/wasnorm_wordpool_less_exclusions.txt	LTP231	ltpFR	9	4	0	FARM	552	n/a	n/a	1	n/a	0	0	0	0.57763671875	0.412841796875	1	upper	amplitud.ttf
734205	START	n/a	LTP231	ltpFR	9	n/a	n/a	n/a	n/a	n/a	n/a	n/a	n/a	n/a	n/a	n/a	n/a	n/a	n/a	n/a	n/a
735158	PROB	n/a	LTP231	ltpFR	9	n/a	n/a	n/a	n/a	n/a	n/a	n/a	19	8	9	2	n/a	n/a	n/a	n/a	n/a
737246	PROB	n/a	LTP231	ltpFR	9	n/a	n/a	n/a	n/a	n/a	n/a	n/a	7	1	4	2	n/a	n/a	n/a	n/a	n/a
739053	PROB	n/a	LTP231	ltpFR	9	n/a	n/a	n/a	n/a	n/a	n/a	n/a	11	1	5	5	n/a	n/a	n/a	n/a	n/a
742204	STOP	n/a	LTP231	ltpFR	9	n/a	n/a	n/a	n/a	n/a	n/a	n/a	n/a	n/a	n/a	n/a	n/a	n/a	n/a	n/a	n/a
743118	WORD	wordpools/wasnorm_wordpool_less_exclusions.txt	LTP231	ltpFR	9	4	0	BUFFALO	186	n/a	n/a	1	n/a	0	0	0	0.57763671875	0.412841796875	1	upper	amplitud.ttf
746134	START	n/a	LTP231	ltpFR	9	n/a	n/a	n/a	n/a	n/a	n/a	n/a	n/a	n/a	n/a	n/a	n/a	n/a	n/a	n/a	n/a
747070	PROB	n/a	LTP231	ltpFR	9	n/a	n/a	n/a	n/a	n/a	n/a	n/a	14	5	8	1	n/a	n/a	n/a	n/a	n/a
749526	PROB	n/a	LTP231	ltpFR	9	n/a	n/a	n/a	n/a	n/a	n/a	n/a	22	7	9	6	n/a	n/a	n/a	n/a	n/a
752604	STOP	n/a	LTP231	ltpFR	9	n/a	n/a	n/a	n/a	n/a	n/a	n/a	n/a	n/a	n/a	n/a	n/a	n/a	n/a	n/a	n/a
755033	WORD	wordpools/wasnorm_wordpool_less_exclusions.txt	LTP231	ltpFR	9	4	0	IDOL	733	n/a	n/a	1	n/a	0	0	0	0.57763671875	0.412841796875	1	upper	amplitud.ttf
758045	START	n/a	LTP231	ltpFR	9	n/a	n/a	n/a	n/a	n/a	n/a	n/a	n/a	n/a	n/a	n/a	n/a	n/a	n/a	n/a	n/a
759048	PROB	n/a	LTP231	ltpFR	9	n/a	n/a	n/a	n/a	n/a	n/a	n/a	15	9	5	1	n/a	n/a	n/a	n/a	n/a
761490	PROB	n/a	LTP231	ltpFR	9	n/a	n/a	n/a	n/a	n/a	n/a	n/a	18	1	9	8	n/a	n/a	n/a	n/a	n/a
763143	PROB	n/a	LTP231	ltpFR	9	n/a	n/a	n/a	n/a	n/a	n/a	n/a	12	5	3	4	n/a	n/a	n/a	n/a	n/a
765900	STOP	n/a	LTP231	ltpFR	9	n/a	n/a	n/a	n/a	n/a	n/a	n/a	n/a	n/a	n/a	n/a	n/a	n/a	n/a	n/a	n/a
766911	WORD	wordpools/wasnorm_wordpool_less_exclusions.txt	LTP231	ltpFR	9	4	0	GODDESS	646	n/a	n/a	1	n/a	0	0	0	0.57763671875	0.412841796875	1	upper	amplitud.ttf
769923	START	n/a	LTP231	ltpFR	9	n/a	n/a	n/a	n/a	n/a	n/a	n/a	n/a	n/a	n/a	n/a	n/a	n/a	n/a	n/a	n/a
777923	STOP	n/a	LTP231	ltpFR	9	n/a	n/a	n/a	n/a	n/a	n/a	n/a	n/a	n/a	n/a	n/a	n/a	n/a	n/a	n/a	n/a
779040	WORD	wordpools/wasnorm_wordpool_less_exclusions.txt	LTP231	ltpFR	9	4	0	WIRE	1616	n/a	n/a	0	n/a	0	0	0	0.57763671875	0.412841796875	1	upper	amplitud.ttf
782052	START	n/a	LTP231	ltpFR	9	n/a	n/a	n/a	n/a	n/a	n/a	n/a	n/a	n/a	n/a	n/a	n/a	n/a	n/a	n/a	n/a
783223	PROB	n/a	LTP231	ltpFR	9	n/a	n/a	n/a	n/a	n/a	n/a	n/a	20	4	9	7	n/a	n/a	n/a	n/a	n/a
785996	PROB	n/a	LTP231	ltpFR	9	n/a	n/a	n/a	n/a	n/a	n/a	n/a	19	4	6	9	n/a	n/a	n/a	n/a	n/a
788483	STOP	n/a	LTP231	ltpFR	9	n/a	n/a	n/a	n/a	n/a	n/a	n/a	n/a	n/a	n/a	n/a	n/a	n/a	n/a	n/a	n/a
790935	WORD	wordpools/wasnorm_wordpool_less_exclusions.txt	LTP231	ltpFR	9	4	1	SALIVA	1226	n/a	n/a	0	n/a	0	0	0	0.422607421875	0.5869140625	0	lower	zerothre.ttf
793947	START	n/a	LTP231	ltpFR	9	n/a	n/a	n/a	n/a	n/a	n/a	n/a	n/a	n/a	n/a	n/a	n/a	n/a	n/a	n/a	n/a
795051	PROB	n/a	LTP231	ltpFR	9	n/a	n/a	n/a	n/a	n/a	n/a	n/a	13	2	6	5	n/a	n/a	n/a	n/a	n/a
797476	PROB	n/a	LTP231	ltpFR	9	n/a	n/a	n/a	n/a	n/a	n/a	n/a	14	2	3	9	n/a	n/a	n/a	n/a	n/a
801108	STOP	n/a	LTP231	ltpFR	9	n/a	n/a	n/a	n/a	n/a	n/a	n/a	n/a	n/a	n/a	n/a	n/a	n/a	n/a	n/a	n/a
802897	WORD	wordpools/wasnorm_wordpool_less_exclusions.txt	LTP231	ltpFR	9	4	1	APPLE	33	n/a	n/a	1	n/a	0	0	0	0.422607421875	0.5869140625	0	lower	zerothre.ttf
805909	START	n/a	LTP231	ltpFR	9	n/a	n/a	n/a	n/a	n/a	n/a	n/a	n/a	n/a	n/a	n/a	n/a	n/a	n/a	n/a	n/a
806929	PROB	n/a	LTP231	ltpFR	9	n/a	n/a	n/a	n/a	n/a	n/a	n/a	22	9	8	5	n/a	n/a	n/a	n/a	n/a
813909	STOP	n/a	LTP231	ltpFR	9	n/a	n/a	n/a	n/a	n/a	n/a	n/a	n/a	n/a	n/a	n/a	n/a	n/a	n/a	n/a	n/a
814842	WORD	wordpools/wasnorm_wordpool_less_exclusions.txt	LTP231	ltpFR	9	4	1	CAT	257	n/a	n/a	1	n/a	0	0	0	0.422607421875	0.5869140625	0	lower	zerothre.ttf
817854	START	n/a	LTP231	ltpFR	9	n/a	n/a	n/a	n/a	n/a	n/a	n/a	n/a	n/a	n/a	n/a	n/a	n/a	n/a	n/a	n/a
818773	PROB	n/a	LTP231	ltpFR	9	n/a	n/a	n/a	n/a	n/a	n/a	n/a	16	5	8	3	n/a	n/a	n/a	n/a	n/a
825854	STOP	n/a	LTP231	ltpFR	9	n/a	n/a	n/a	n/a	n/a	n/a	n/a	n/a	n/a	n/a	n/a	n/a	n/a	n/a	n/a	n/a
826971	WORD	wordpools/wasnorm_wordpool_less_exclusions.txt	LTP231	ltpFR	9	4	1	CATCHER	258	n/a	n/a	1	n/a	0	0	0	0.422607421875	0.5869140625	0	lower	zerothre.ttf
829983	START	n/a	LTP231	ltpFR	9	n/a	n/a	n/a	n/a	n/a	n/a	n/a	n/a	n/a	n/a	n/a	n/a	n/a	n/a	n/a	n/a
831187	PROB	n/a	LTP231	ltpFR	9	n/a	n/a	n/a	n/a	n/a	n/a	n/a	15	4	9	2	n/a	n/a	n/a	n/a	n/a
833592	PROB	n/a	LTP231	ltpFR	9	n/a	n/a	n/a	n/a	n/a	n/a	n/a	11	3	7	1	n/a	n/a	n/a	n/a	n/a
835435	PROB	n/a	LTP231	ltpFR	9	n/a	n/a	n/a	n/a	n/a	n/a	n/a	20	9	6	5	n/a	n/a	n/a	n/a	n/a
837556	STOP	n/a	LTP231	ltpFR	9	n/a	n/a	n/a	n/a	n/a	n/a	n/a	n/a	n/a	n/a	n/a	n/a	n/a	n/a	n/a	n/a
839013	WORD	wordpools/wasnorm_wordpool_less_exclusions.txt	LTP231	ltpFR	9	4	1	BAKER	71	n/a	n/a	1	n/a	0	0	0	0.422607421875	0.5869140625	0	lower	zerothre.ttf
842028	START	n/a	LTP231	ltpFR	9	n/a	n/a	n/a	n/a	n/a	n/a	n/a	n/a	n/a	n/a	n/a	n/a	n/a	n/a	n/a	n/a
843182	PROB	n/a	LTP231	ltpFR	9	n/a	n/a	n/a	n/a	n/a	n/a	n/a	19	4	9	6	n/a	n/a	n/a	n/a	n/a
845508	PROB	n/a	LTP231	ltpFR	9	n/a	n/a	n/a	n/a	n/a	n/a	n/a	12	3	6	3	n/a	n/a	n/a	n/a	n/a
850028	STOP	n/a	LTP231	ltpFR	9	n/a	n/a	n/a	n/a	n/a	n/a	n/a	n/a	n/a	n/a	n/a	n/a	n/a	n/a	n/a	n/a
850861	WORD	wordpools/wasnorm_wordpool_less_exclusions.txt	LTP231	ltpFR	9	4	1	BUN	197	n/a	n/a	0	n/a	0	0	0	0.422607421875	0.5869140625	0	lower	zerothre.ttf
853873	START	n/a	LTP231	ltpFR	9	n/a	n/a	n/a	n/a	n/a	n/a	n/a	n/a	n/a	n/a	n/a	n/a	n/a	n/a	n/a	n/a
855027	PROB	n/a	LTP231	ltpFR	9	n/a	n/a	n/a	n/a	n/a	n/a	n/a	18	7	9	2	n/a	n/a	n/a	n/a	n/a
858252	PROB	n/a	LTP231	ltpFR	9	n/a	n/a	n/a	n/a	n/a	n/a	n/a	16	5	6	5	n/a	n/a	n/a	n/a	n/a
860316	STOP	n/a	LTP231	ltpFR	9	n/a	n/a	n/a	n/a	n/a	n/a	n/a	n/a	n/a	n/a	n/a	n/a	n/a	n/a	n/a	n/a
862719	WORD	wordpools/wasnorm_wordpool_less_exclusions.txt	LTP231	ltpFR	9	4	0	BUCKET	184	n/a	n/a	0	n/a	0	0	0	0.57763671875	0.412841796875	1	upper	amplitud.ttf
865735	START	n/a	LTP231	ltpFR	9	n/a	n/a	n/a	n/a	n/a	n/a	n/a	n/a	n/a	n/a	n/a	n/a	n/a	n/a	n/a	n/a
866654	PROB	n/a	LTP231	ltpFR	9	n/a	n/a	n/a	n/a	n/a	n/a	n/a	8	2	2	4	n/a	n/a	n/a	n/a	n/a
869511	PROB	n/a	LTP231	ltpFR	9	n/a	n/a	n/a	n/a	n/a	n/a	n/a	15	8	1	6	n/a	n/a	n/a	n/a	n/a
873734	STOP	n/a	LTP231	ltpFR	9	n/a	n/a	n/a	n/a	n/a	n/a	n/a	n/a	n/a	n/a	n/a	n/a	n/a	n/a	n/a	n/a
874580	WORD	wordpools/wasnorm_wordpool_less_exclusions.txt	LTP231	ltpFR	9	4	0	RASPBERRY	1168	n/a	n/a	0	n/a	0	0	0	0.57763671875	0.412841796875	1	upper	amplitud.ttf
877596	START	n/a	LTP231	ltpFR	9	n/a	n/a	n/a	n/a	n/a	n/a	n/a	n/a	n/a	n/a	n/a	n/a	n/a	n/a	n/a	n/a
878515	PROB	n/a	LTP231	ltpFR	9	n/a	n/a	n/a	n/a	n/a	n/a	n/a	21	9	5	7	n/a	n/a	n/a	n/a	n/a
881438	PROB	n/a	LTP231	ltpFR	9	n/a	n/a	n/a	n/a	n/a	n/a	n/a	6	3	1	2	n/a	n/a	n/a	n/a	n/a
885596	STOP	n/a	LTP231	ltpFR	9	n/a	n/a	n/a	n/a	n/a	n/a	n/a	n/a	n/a	n/a	n/a	n/a	n/a	n/a	n/a	n/a
886692	WORD	wordpools/wasnorm_wordpool_less_exclusions.txt	LTP231	ltpFR	9	4	0	COOKIE	374	n/a	n/a	0	n/a	0	0	0	0.57763671875	0.412841796875	1	upper	amplitud.ttf
889708	START	n/a	LTP231	ltpFR	9	n/a	n/a	n/a	n/a	n/a	n/a	n/a	n/a	n/a	n/a	n/a	n/a	n/a	n/a	n/a	n/a
890828	PROB	n/a	LTP231	ltpFR	9	n/a	n/a	n/a	n/a	n/a	n/a	n/a	20	9	8	3	n/a	n/a	n/a	n/a	n/a
893000	PROB	n/a	LTP231	ltpFR	9	n/a	n/a	n/a	n/a	n/a	n/a	n/a	21	8	9	4	n/a	n/a	n/a	n/a	n/a
896403	STOP	n/a	LTP231	ltpFR	9	n/a	n/a	n/a	n/a	n/a	n/a	n/a	n/a	n/a	n/a	n/a	n/a	n/a	n/a	n/a	n/a
898838	WORD	wordpools/wasnorm_wordpool_less_exclusions.txt	LTP231	ltpFR	9	4	1	COUCH	386	n/a	n/a	0	n/a	0	0	0	0.422607421875	0.5869140625	0	lower	zerothre.ttf
901854	START	n/a	LTP231	ltpFR	9	n/a	n/a	n/a	n/a	n/a	n/a	n/a	n/a	n/a	n/a	n/a	n/a	n/a	n/a	n/a	n/a
902803	PROB	n/a	LTP231	ltpFR	9	n/a	n/a	n/a	n/a	n/a	n/a	n/a	24	8	8	8	n/a	n/a	n/a	n/a	n/a
905062	PROB	n/a	LTP231	ltpFR	9	n/a	n/a	n/a	n/a	n/a	n/a	n/a	12	2	6	4	n/a	n/a	n/a	n/a	n/a
909854	STOP	n/a	LTP231	ltpFR	9	n/a	n/a	n/a	n/a	n/a	n/a	n/a	n/a	n/a	n/a	n/a	n/a	n/a	n/a	n/a	n/a
910687	WORD	wordpools/wasnorm_wordpool_less_exclusions.txt	LTP231	ltpFR	9	4	1	GENERAL	630	n/a	n/a	1	n/a	0	0	0	0.422607421875	0.5869140625	0	lower	zerothre.ttf
913698	START	n/a	LTP231	ltpFR	9	n/a	n/a	n/a	n/a	n/a	n/a	n/a	n/a	n/a	n/a	n/a	n/a	n/a	n/a	n/a	n/a
914718	PROB	n/a	LTP231	ltpFR	9	n/a	n/a	n/a	n/a	n/a	n/a	n/a	18	1	8	9	n/a	n/a	n/a	n/a	n/a
916890	PROB	n/a	LTP231	ltpFR	9	n/a	n/a	n/a	n/a	n/a	n/a	n/a	16	5	9	2	n/a	n/a	n/a	n/a	n/a
921697	STOP	n/a	LTP231	ltpFR	9	n/a	n/a	n/a	n/a	n/a	n/a	n/a	n/a	n/a	n/a	n/a	n/a	n/a	n/a	n/a	n/a
923586	REC_START	n/a	LTP231	ltpFR	9	4	n/a	n/a	n/a	n/a	n/a	n/a	n/a	0	0	0	n/a	n/a	n/a	n/a	n/a
949178	REC_WORD	wordpools/wasnorm_wordpool_less_exclusions.txt	LTP231	ltpFR	9	4	1	COUCH	386	n/a	n/a	0	n/a	0	0	0	n/a	n/a	n/a	n/a	n/a
1025838	START	n/a	LTP231	ltpFR	9	n/a	n/a	n/a	n/a	n/a	n/a	n/a	n/a	n/a	n/a	n/a	n/a	n/a	n/a	n/a	n/a
1027343	PROB	n/a	LTP231	ltpFR	9	n/a	n/a	n/a	n/a	n/a	n/a	n/a	18	4	6	8	n/a	n/a	n/a	n/a	n/a
1029317	PROB	n/a	LTP231	ltpFR	9	n/a	n/a	n/a	n/a	n/a	n/a	n/a	13	2	2	9	n/a	n/a	n/a	n/a	n/a
1031923	PROB	n/a	LTP231	ltpFR	9	n/a	n/a	n/a	n/a	n/a	n/a	n/a	17	7	3	7	n/a	n/a	n/a	n/a	n/a
1033680	PROB	n/a	LTP231	ltpFR	9	n/a	n/a	n/a	n/a	n/a	n/a	n/a	14	7	4	3	n/a	n/a	n/a	n/a	n/a
1036055	PROB	n/a	LTP231	ltpFR	9	n/a	n/a	n/a	n/a	n/a	n/a	n/a	11	1	8	2	n/a	n/a	n/a	n/a	n/a
1038029	PROB	n/a	LTP231	ltpFR	9	n/a	n/a	n/a	n/a	n/a	n/a	n/a	16	4	3	9	n/a	n/a	n/a	n/a	n/a
1041620	STOP	n/a	LTP231	ltpFR	9	n/a	n/a	n/a	n/a	n/a	n/a	n/a	n/a	n/a	n/a	n/a	n/a	n/a	n/a	n/a	n/a
1043015	WORD	wordpools/wasnorm_wordpool_less_exclusions.txt	LTP231	ltpFR	9	5	1	PELICAN	1039	n/a	n/a	1	n/a	0	0	0	0.422607421875	0.5869140625	0	lower	zerothre.ttf
1046030	START	n/a	LTP231	ltpFR	9	n/a	n/a	n/a	n/a	n/a	n/a	n/a	n/a	n/a	n/a	n/a	n/a	n/a	n/a	n/a	n/a
1046997	PROB	n/a	LTP231	ltpFR	9	n/a	n/a	n/a	n/a	n/a	n/a	n/a	22	9	7	6	n/a	n/a	n/a	n/a	n/a
1050008	PROB	n/a	LTP231	ltpFR	9	n/a	n/a	n/a	n/a	n/a	n/a	n/a	11	2	3	6	n/a	n/a	n/a	n/a	n/a
1052936	PROB	n/a	LTP231	ltpFR	9	n/a	n/a	n/a	n/a	n/a	n/a	n/a	9	6	2	1	n/a	n/a	n/a	n/a	n/a
1054843	PROB	n/a	LTP231	ltpFR	9	n/a	n/a	n/a	n/a	n/a	n/a	n/a	15	1	4	9	n/a	n/a	n/a	n/a	n/a
1057955	PROB	n/a	LTP231	ltpFR	9	n/a	n/a	n/a	n/a	n/a	n/a	n/a	10	8	1	1	n/a	n/a	n/a	n/a	n/a
1060588	STOP	n/a	LTP231	ltpFR	9	n/a	n/a	n/a	n/a	n/a	n/a	n/a	n/a	n/a	n/a	n/a	n/a	n/a	n/a	n/a	n/a
1062960	WORD	wordpools/wasnorm_wordpool_less_exclusions.txt	LTP231	ltpFR	9	5	1	BUYER	208	n/a	n/a	1	n/a	0	0	0	0.422607421875	0.5869140625	0	lower	zerothre.ttf
1065972	START	n/a	LTP231	ltpFR	9	n/a	n/a	n/a	n/a	n/a	n/a	n/a	n/a	n/a	n/a	n/a	n/a	n/a	n/a	n/a	n/a
1067126	PROB	n/a	LTP231	ltpFR	9	n/a	n/a	n/a	n/a	n/a	n/a	n/a	23	9	7	7	n/a	n/a	n/a	n/a	n/a
1070201	PROB	n/a	LTP231	ltpFR	9	n/a	n/a	n/a	n/a	n/a	n/a	n/a	19	9	2	8	n/a	n/a	n/a	n/a	n/a
1072325	PROB	n/a	LTP231	ltpFR	9	n/a	n/a	n/a	n/a	n/a	n/a	n/a	16	9	6	1	n/a	n/a	n/a	n/a	n/a
1076073	PROB	n/a	LTP231	ltpFR	9	n/a	n/a	n/a	n/a	n/a	n/a	n/a	15	1	8	6	n/a	n/a	n/a	n/a	n/a
1078485	PROB	n/a	LTP231	ltpFR	9	n/a	n/a	n/a	n/a	n/a	n/a	n/a	17	3	9	5	n/a	n/a	n/a	n/a	n/a
1081540	STOP	n/a	LTP231	ltpFR	9	n/a	n/a	n/a	n/a	n/a	n/a	n/a	n/a	n/a	n/a	n/a	n/a	n/a	n/a	n/a	n/a
1082852	WORD	wordpools/wasnorm_wordpool_less_exclusions.txt	LTP231	ltpFR	9	5	1	CANDY	230	n/a	n/a	0	n/a	0	0	0	0.422607421875	0.5869140625	0	lower	zerothre.ttf
1085864	START	n/a	LTP231	ltpFR	9	n/a	n/a	n/a	n/a	n/a	n/a	n/a	n/a	n/a	n/a	n/a	n/a	n/a	n/a	n/a	n/a
1086884	PROB	n/a	LTP231	ltpFR	9	n/a	n/a	n/a	n/a	n/a	n/a	n/a	14	3	6	5	n/a	n/a	n/a	n/a	n/a
1090126	PROB	n/a	LTP231	ltpFR	9	n/a	n/a	n/a	n/a	n/a	n/a	n/a	17	9	5	3	n/a	n/a	n/a	n/a	n/a
1092836	PROB	n/a	LTP231	ltpFR	9	n/a	n/a	n/a	n/a	n/a	n/a	n/a	17	5	9	3	n/a	n/a	n/a	n/a	n/a
1095780	PROB	n/a	LTP231	ltpFR	9	n/a	n/a	n/a	n/a	n/a	n/a	n/a	7	1	4	2	n/a	n/a	n/a	n/a	n/a
1097872	PROB	n/a	LTP231	ltpFR	9	n/a	n/a	n/a	n/a	n/a	n/a	n/a	16	8	4	4	n/a	n/a	n/a	n/a	n/a
1101340	STOP	n/a	LTP231	ltpFR	9	n/a	n/a	n/a	n/a	n/a	n/a	n/a	n/a	n/a	n/a	n/a	n/a	n/a	n/a	n/a	n/a
1102794	WORD	wordpools/wasnorm_wordpool_less_exclusions.txt	LTP231	ltpFR	9	5	1	HAMMOCK	681	n/a	n/a	0	n/a	0	0	0	0.422607421875	0.5869140625	0	lower	zerothre.ttf
1105806	START	n/a	LTP231	ltpFR	9	n/a	n/a	n/a	n/a	n/a	n/a	n/a	n/a	n/a	n/a	n/a	n/a	n/a	n/a	n/a	n/a
1106943	PROB	n/a	LTP231	ltpFR	9	n/a	n/a	n/a	n/a	n/a	n/a	n/a	17	7	6	4	n/a	n/a	n/a	n/a	n/a
1108579	PROB	n/a	LTP231	ltpFR	9	n/a	n/a	n/a	n/a	n/a	n/a	n/a	22	8	5	9	n/a	n/a	n/a	n/a	n/a
1112159	PROB	n/a	LTP231	ltpFR	9	n/a	n/a	n/a	n/a	n/a	n/a	n/a	23	9	6	8	n/a	n/a	n/a	n/a	n/a
1116994	PROB	n/a	LTP231	ltpFR	9	n/a	n/a	n/a	n/a	n/a	n/a	n/a	13	3	3	7	n/a	n/a	n/a	n/a	n/a
1121806	STOP	n/a	LTP231	ltpFR	9	n/a	n/a	n/a	n/a	n/a	n/a	n/a	n/a	n/a	n/a	n/a	n/a	n/a	n/a	n/a	n/a
1122702	WORD	wordpools/wasnorm_wordpool_less_exclusions.txt	LTP231	ltpFR	9	5	1	PLAYGROUND	1087	n/a	n/a	0	n/a	0	0	0	0.422607421875	0.5869140625	0	lower	zerothre.ttf
1125714	START	n/a	LTP231	ltpFR	9	n/a	n/a	n/a	n/a	n/a	n/a	n/a	n/a	n/a	n/a	n/a	n/a	n/a	n/a	n/a	n/a
1126734	PROB	n/a	LTP231	ltpFR	9	n/a	n/a	n/a	n/a	n/a	n/a	n/a	14	7	5	2	n/a	n/a	n/a	n/a	n/a
1128972	PROB	n/a	LTP231	ltpFR	9	n/a	n/a	n/a	n/a	n/a	n/a	n/a	9	3	4	2	n/a	n/a	n/a	n/a	n/a
1131247	PROB	n/a	LTP231	ltpFR	9	n/a	n/a	n/a	n/a	n/a	n/a	n/a	19	7	7	5	n/a	n/a	n/a	n/a	n/a
1133774	PROB	n/a	LTP231	ltpFR	9	n/a	n/a	n/a	n/a	n/a	n/a	n/a	17	5	9	3	n/a	n/a	n/a	n/a	n/a
1137373	PROB	n/a	LTP231	ltpFR	9	n/a	n/a	n/a	n/a	n/a	n/a	n/a	14	2	7	5	n/a	n/a	n/a	n/a	n/a
1141714	STOP	n/a	LTP231	ltpFR	9	n/a	n/a	n/a	n/a	n/a	n/a	n/a	n/a	n/a	n/a	n/a	n/a	n/a	n/a	n/a	n/a
1142594	WORD	wordpools/wasnorm_wordpool_less_exclusions.txt	LTP231	ltpFR	9	5	1	COMMANDER	354	n/a	n/a	1	n/a	0	0	0	0.422607421875	0.5869140625	0	lower	zerothre.ttf
1145606	START	n/a	LTP231	ltpFR	9	n/a	n/a	n/a	n/a	n/a	n/a	n/a	n/a	n/a	n/a	n/a	n/a	n/a	n/a	n/a	n/a
1146542	PROB	n/a	LTP231	ltpFR	9	n/a	n/a	n/a	n/a	n/a	n/a	n/a	13	2	2	9	n/a	n/a	n/a	n/a	n/a
1148630	PROB	n/a	LTP231	ltpFR	9	n/a	n/a	n/a	n/a	n/a	n/a	n/a	10	3	2	5	n/a	n/a	n/a	n/a	n/a
1151160	PROB	n/a	LTP231	ltpFR	9	n/a	n/a	n/a	n/a	n/a	n/a	n/a	8	3	4	1	n/a	n/a	n/a	n/a	n/a
1153264	PROB	n/a	LTP231	ltpFR	9	n/a	n/a	n/a	n/a	n/a	n/a	n/a	13	4	6	3	n/a	n/a	n/a	n/a	n/a
1155961	PROB	n/a	LTP231	ltpFR	9	n/a	n/a	n/a	n/a	n/a	n/a	n/a	10	2	2	4	n/a	n/a	n/a	n/a	n/a
1161605	STOP	n/a	LTP231	ltpFR	9	n/a	n/a	n/a	n/a	n/a	n/a	n/a	n/a	n/a	n/a	n/a	n/a	n/a	n/a	n/a	n/a
1162519	WORD	wordpools/wasnorm_wordpool_less_exclusions.txt	LTP231	ltpFR	9	5	1	COLONEL	348	n/a	n/a	1	n/a	0	0	0	0.422607421875	0.5869140625	0	lower	zerothre.ttf
1165531	START	n/a	LTP231	ltpFR	9	n/a	n/a	n/a	n/a	n/a	n/a	n/a	n/a	n/a	n/a	n/a	n/a	n/a	n/a	n/a	n/a
1166701	PROB	n/a	LTP231	ltpFR	9	n/a	n/a	n/a	n/a	n/a	n/a	n/a	10	3	6	1	n/a	n/a	n/a	n/a	n/a
1169676	PROB	n/a	LTP231	ltpFR	9	n/a	n/a	n/a	n/a	n/a	n/a	n/a	11	7	1	3	n/a	n/a	n/a	n/a	n/a
1171717	PROB	n/a	LTP231	ltpFR	9	n/a	n/a	n/a	n/a	n/a	n/a	n/a	13	8	1	3	n/a	n/a	n/a	n/a	n/a
1178024	PROB	n/a	LTP231	ltpFR	9	n/a	n/a	n/a	n/a	n/a	n/a	n/a	18	9	1	8	n/a	n/a	n/a	n/a	n/a
1180588	STOP	n/a	LTP231	ltpFR	9	n/a	n/a	n/a	n/a	n/a	n/a	n/a	n/a	n/a	n/a	n/a	n/a	n/a	n/a	n/a	n/a
1182662	WORD	wordpools/wasnorm_wordpool_less_exclusions.txt	LTP231	ltpFR	9	5	1	OX	994	n/a	n/a	1	n/a	0	0	0	0.422607421875	0.5869140625	0	lower	zerothre.ttf
1185674	START	n/a	LTP231	ltpFR	9	n/a	n/a	n/a	n/a	n/a	n/a	n/a	n/a	n/a	n/a	n/a	n/a	n/a	n/a	n/a	n/a
1186539	PROB	n/a	LTP231	ltpFR	9	n/a	n/a	n/a	n/a	n/a	n/a	n/a	11	8	2	1	n/a	n/a	n/a	n/a	n/a
1188028	PROB	n/a	LTP231	ltpFR	9	n/a	n/a	n/a	n/a	n/a	n/a	n/a	20	7	4	9	n/a	n/a	n/a	n/a	n/a
1190705	PROB	n/a	LTP231	ltpFR	9	n/a	n/a	n/a	n/a	n/a	n/a	n/a	10	4	3	3	n/a	n/a	n/a	n/a	n/a
1193670	PROB	n/a	LTP231	ltpFR	9	n/a	n/a	n/a	n/a	n/a	n/a	n/a	10	2	1	7	n/a	n/a	n/a	n/a	n/a
1196326	PROB	n/a	LTP231	ltpFR	9	n/a	n/a	n/a	n/a	n/a	n/a	n/a	16	6	3	7	n/a	n/a	n/a	n/a	n/a
1201674	STOP	n/a	LTP231	ltpFR	9	n/a	n/a	n/a	n/a	n/a	n/a	n/a	n/a	n/a	n/a	n/a	n/a	n/a	n/a	n/a	n/a
1202871	WORD	wordpools/wasnorm_wordpool_less_exclusions.txt	LTP231	ltpFR	9	5	1	PIGEON	1065	n/a	n/a	1	n/a	0	0	0	0.422607421875	0.5869140625	0	lower	zerothre.ttf
1205883	START	n/a	LTP231	ltpFR	9	n/a	n/a	n/a	n/a	n/a	n/a	n/a	n/a	n/a	n/a	n/a	n/a	n/a	n/a	n/a	n/a
1207087	PROB	n/a	LTP231	ltpFR	9	n/a	n/a	n/a	n/a	n/a	n/a	n/a	22	5	8	9	n/a	n/a	n/a	n/a	n/a
1211199	PROB	n/a	LTP231	ltpFR	9	n/a	n/a	n/a	n/a	n/a	n/a	n/a	8	5	1	2	n/a	n/a	n/a	n/a	n/a
1213223	PROB	n/a	LTP231	ltpFR	9	n/a	n/a	n/a	n/a	n/a	n/a	n/a	14	4	6	4	n/a	n/a	n/a	n/a	n/a
1215331	PROB	n/a	LTP231	ltpFR	9	n/a	n/a	n/a	n/a	n/a	n/a	n/a	19	7	7	5	n/a	n/a	n/a	n/a	n/a
1218292	PROB	n/a	LTP231	ltpFR	9	n/a	n/a	n/a	n/a	n/a	n/a	n/a	9	1	7	1	n/a	n/a	n/a	n/a	n/a
1221882	STOP	n/a	LTP231	ltpFR	9	n/a	n/a	n/a	n/a	n/a	n/a	n/a	n/a	n/a	n/a	n/a	n/a	n/a	n/a	n/a	n/a
1222796	WORD	wordpools/wasnorm_wordpool_less_exclusions.txt	LTP231	ltpFR	9	5	1	LACE	792	n/a	n/a	0	n/a	0	0	0	0.422607421875	0.5869140625	0	lower	zerothre.ttf
1225808	START	n/a	LTP231	ltpFR	9	n/a	n/a	n/a	n/a	n/a	n/a	n/a	n/a	n/a	n/a	n/a	n/a	n/a	n/a	n/a	n/a
1226694	PROB	n/a	LTP231	ltpFR	9	n/a	n/a	n/a	n/a	n/a	n/a	n/a	23	8	9	6	n/a	n/a	n/a	n/a	n/a
1230470	PROB	n/a	LTP231	ltpFR	9	n/a	n/a	n/a	n/a	n/a	n/a	n/a	15	1	8	6	n/a	n/a	n/a	n/a	n/a
1232981	PROB	n/a	LTP231	ltpFR	9	n/a	n/a	n/a	n/a	n/a	n/a	n/a	10	6	1	3	n/a	n/a	n/a	n/a	n/a
1236013	PROB	n/a	LTP231	ltpFR	9	n/a	n/a	n/a	n/a	n/a	n/a	n/a	8	3	2	3	n/a	n/a	n/a	n/a	n/a
1238552	PROB	n/a	LTP231	ltpFR	9	n/a	n/a	n/a	n/a	n/a	n/a	n/a	16	4	7	5	n/a	n/a	n/a	n/a	n/a
1240764	STOP	n/a	LTP231	ltpFR	9	n/a	n/a	n/a	n/a	n/a	n/a	n/a	n/a	n/a	n/a	n/a	n/a	n/a	n/a	n/a	n/a
1242704	WORD	wordpools/wasnorm_wordpool_less_exclusions.txt	LTP231	ltpFR	9	5	1	SALOON	1228	n/a	n/a	0	n/a	0	0	0	0.422607421875	0.5869140625	0	lower	zerothre.ttf
1245716	START	n/a	LTP231	ltpFR	9	n/a	n/a	n/a	n/a	n/a	n/a	n/a	n/a	n/a	n/a	n/a	n/a	n/a	n/a	n/a	n/a
1246720	PROB	n/a	LTP231	ltpFR	9	n/a	n/a	n/a	n/a	n/a	n/a	n/a	15	3	7	5	n/a	n/a	n/a	n/a	n/a
1248238	PROB	n/a	LTP231	ltpFR	9	n/a	n/a	n/a	n/a	n/a	n/a	n/a	13	1	6	6	n/a	n/a	n/a	n/a	n/a
1250514	PROB	n/a	LTP231	ltpFR	9	n/a	n/a	n/a	n/a	n/a	n/a	n/a	21	4	9	8	n/a	n/a	n/a	n/a	n/a
1254566	PROB	n/a	LTP231	ltpFR	9	n/a	n/a	n/a	n/a	n/a	n/a	n/a	17	4	6	7	n/a	n/a	n/a	n/a	n/a
1256557	PROB	n/a	LTP231	ltpFR	9	n/a	n/a	n/a	n/a	n/a	n/a	n/a	6	1	1	4	n/a	n/a	n/a	n/a	n/a
1258493	PROB	n/a	LTP231	ltpFR	9	n/a	n/a	n/a	n/a	n/a	n/a	n/a	16	7	1	8	n/a	n/a	n/a	n/a	n/a
1261236	STOP	n/a	LTP231	ltpFR	9	n/a	n/a	n/a	n/a	n/a	n/a	n/a	n/a	n/a	n/a	n/a	n/a	n/a	n/a	n/a	n/a
1262914	WORD	wordpools/wasnorm_wordpool_less_exclusions.txt	LTP231	ltpFR	9	5	1	ICING	732	n/a	n/a	0	n/a	0	0	0	0.422607421875	0.5869140625	0	lower	zerothre.ttf
1265926	START	n/a	LTP231	ltpFR	9	n/a	n/a	n/a	n/a	n/a	n/a	n/a	n/a	n/a	n/a	n/a	n/a	n/a	n/a	n/a	n/a
1266946	PROB	n/a	LTP231	ltpFR	9	n/a	n/a	n/a	n/a	n/a	n/a	n/a	21	7	7	7	n/a	n/a	n/a	n/a	n/a
1269471	PROB	n/a	LTP231	ltpFR	9	n/a	n/a	n/a	n/a	n/a	n/a	n/a	16	4	3	9	n/a	n/a	n/a	n/a	n/a
1273718	PROB	n/a	LTP231	ltpFR	9	n/a	n/a	n/a	n/a	n/a	n/a	n/a	17	6	2	9	n/a	n/a	n/a	n/a	n/a
1277649	PROB	n/a	LTP231	ltpFR	9	n/a	n/a	n/a	n/a	n/a	n/a	n/a	12	3	6	3	n/a	n/a	n/a	n/a	n/a
1280403	STOP	n/a	LTP231	ltpFR	9	n/a	n/a	n/a	n/a	n/a	n/a	n/a	n/a	n/a	n/a	n/a	n/a	n/a	n/a	n/a	n/a
1282885	WORD	wordpools/wasnorm_wordpool_less_exclusions.txt	LTP231	ltpFR	9	5	1	GAZELLE	628	n/a	n/a	1	n/a	0	0	0	0.422607421875	0.5869140625	0	lower	zerothre.ttf
1285901	START	n/a	LTP231	ltpFR	9	n/a	n/a	n/a	n/a	n/a	n/a	n/a	n/a	n/a	n/a	n/a	n/a	n/a	n/a	n/a	n/a
1287005	PROB	n/a	LTP231	ltpFR	9	n/a	n/a	n/a	n/a	n/a	n/a	n/a	12	3	2	7	n/a	n/a	n/a	n/a	n/a
1288992	PROB	n/a	LTP231	ltpFR	9	n/a	n/a	n/a	n/a	n/a	n/a	n/a	22	6	7	9	n/a	n/a	n/a	n/a	n/a
1291970	PROB	n/a	LTP231	ltpFR	9	n/a	n/a	n/a	n/a	n/a	n/a	n/a	19	9	2	8	n/a	n/a	n/a	n/a	n/a
1294546	PROB	n/a	LTP231	ltpFR	9	n/a	n/a	n/a	n/a	n/a	n/a	n/a	25	9	9	7	n/a	n/a	n/a	n/a	n/a
1299615	PROB	n/a	LTP231	ltpFR	9	n/a	n/a	n/a	n/a	n/a	n/a	n/a	12	7	3	2	n/a	n/a	n/a	n/a	n/a
1301244	STOP	n/a	LTP231	ltpFR	9	n/a	n/a	n/a	n/a	n/a	n/a	n/a	n/a	n/a	n/a	n/a	n/a	n/a	n/a	n/a	n/a
1302731	WORD	wordpools/wasnorm_wordpool_less_exclusions.txt	LTP231	ltpFR	9	5	1	ARENA	37	n/a	n/a	0	n/a	0	0	0	0.422607421875	0.5869140625	0	lower	zerothre.ttf
1305743	START	n/a	LTP231	ltpFR	9	n/a	n/a	n/a	n/a	n/a	n/a	n/a	n/a	n/a	n/a	n/a	n/a	n/a	n/a	n/a	n/a
1306629	PROB	n/a	LTP231	ltpFR	9	n/a	n/a	n/a	n/a	n/a	n/a	n/a	18	8	3	7	n/a	n/a	n/a	n/a	n/a
1308582	PROB	n/a	LTP231	ltpFR	9	n/a	n/a	n/a	n/a	n/a	n/a	n/a	11	2	3	6	n/a	n/a	n/a	n/a	n/a
1313267	PROB	n/a	LTP231	ltpFR	9	n/a	n/a	n/a	n/a	n/a	n/a	n/a	16	3	9	4	n/a	n/a	n/a	n/a	n/a
1317750	PROB	n/a	LTP231	ltpFR	9	n/a	n/a	n/a	n/a	n/a	n/a	n/a	10	3	3	4	n/a	n/a	n/a	n/a	n/a
1321743	STOP	n/a	LTP231	ltpFR	9	n/a	n/a	n/a	n/a	n/a	n/a	n/a	n/a	n/a	n/a	n/a	n/a	n/a	n/a	n/a	n/a
1322606	WORD	wordpools/wasnorm_wordpool_less_exclusions.txt	LTP231	ltpFR	9	5	1	NOVEL	960	n/a	n/a	0	n/a	0	0	0	0.422607421875	0.5869140625	0	lower	zerothre.ttf
1325618	START	n/a	LTP231	ltpFR	9	n/a	n/a	n/a	n/a	n/a	n/a	n/a	n/a	n/a	n/a	n/a	n/a	n/a	n/a	n/a	n/a
1326436	PROB	n/a	LTP231	ltpFR	9	n/a	n/a	n/a	n/a	n/a	n/a	n/a	17	9	3	5	n/a	n/a	n/a	n/a	n/a
1329231	PROB	n/a	LTP231	ltpFR	9	n/a	n/a	n/a	n/a	n/a	n/a	n/a	12	1	7	4	n/a	n/a	n/a	n/a	n/a
1331171	PROB	n/a	LTP231	ltpFR	9	n/a	n/a	n/a	n/a	n/a	n/a	n/a	15	3	3	9	n/a	n/a	n/a	n/a	n/a
1333681	PROB	n/a	LTP231	ltpFR	9	n/a	n/a	n/a	n/a	n/a	n/a	n/a	12	4	2	6	n/a	n/a	n/a	n/a	n/a
1336525	PROB	n/a	LTP231	ltpFR	9	n/a	n/a	n/a	n/a	n/a	n/a	n/a	9	1	5	3	n/a	n/a	n/a	n/a	n/a
1341618	STOP	n/a	LTP231	ltpFR	9	n/a	n/a	n/a	n/a	n/a	n/a	n/a	n/a	n/a	n/a	n/a	n/a	n/a	n/a	n/a	n/a
1342577	WORD	wordpools/wasnorm_wordpool_less_exclusions.txt	LTP231	ltpFR	9	5	1	JOURNAL	760	n/a	n/a	0	n/a	0	0	0	0.422607421875	0.5869140625	0	lower	zerothre.ttf
1345593	START	n/a	LTP231	ltpFR	9	n/a	n/a	n/a	n/a	n/a	n/a	n/a	n/a	n/a	n/a	n/a	n/a	n/a	n/a	n/a	n/a
1346730	PROB	n/a	LTP231	ltpFR	9	n/a	n/a	n/a	n/a	n/a	n/a	n/a	6	3	1	2	n/a	n/a	n/a	n/a	n/a
1349022	PROB	n/a	LTP231	ltpFR	9	n/a	n/a	n/a	n/a	n/a	n/a	n/a	21	7	7	7	n/a	n/a	n/a	n/a	n/a
1351678	PROB	n/a	LTP231	ltpFR	9	n/a	n/a	n/a	n/a	n/a	n/a	n/a	8	2	5	1	n/a	n/a	n/a	n/a	n/a
1353886	PROB	n/a	LTP231	ltpFR	9	n/a	n/a	n/a	n/a	n/a	n/a	n/a	17	4	6	7	n/a	n/a	n/a	n/a	n/a
1355647	PROB	n/a	LTP231	ltpFR	9	n/a	n/a	n/a	n/a	n/a	n/a	n/a	14	5	5	4	n/a	n/a	n/a	n/a	n/a
1357270	PROB	n/a	LTP231	ltpFR	9	n/a	n/a	n/a	n/a	n/a	n/a	n/a	20	8	7	5	n/a	n/a	n/a	n/a	n/a
1360132	STOP	n/a	LTP231	ltpFR	9	n/a	n/a	n/a	n/a	n/a	n/a	n/a	n/a	n/a	n/a	n/a	n/a	n/a	n/a	n/a	n/a
1363376	REC_START	n/a	LTP231	ltpFR	9	5	n/a	n/a	n/a	n/a	n/a	n/a	n/a	0	0	0	n/a	n/a	n/a	n/a	n/a
1365745	REC_WORD	wordpools/wasnorm_wordpool_less_exclusions.txt	LTP231	ltpFR	9	5	1	HAMMOCK	681	n/a	n/a	0	n/a	0	0	0	n/a	n/a	n/a	n/a	n/a
1367387	REC_WORD	wordpools/wasnorm_wordpool_less_exclusions.txt	LTP231	ltpFR	9	5	1	COLONEL	348	n/a	n/a	1	n/a	0	0	0	n/a	n/a	n/a	n/a	n/a
1456243	WORD	wordpools/wasnorm_wordpool_less_exclusions.txt	LTP231	ltpFR	9	6	1	SHEPHERD	1283	n/a	n/a	1	n/a	0	0	0	0.422607421875	0.5869140625	0	lower	zerothre.ttf
1460274	WORD	wordpools/wasnorm_wordpool_less_exclusions.txt	LTP231	ltpFR	9	6	1	SNACK	1331	n/a	n/a	0	n/a	0	0	0	0.422607421875	0.5869140625	0	lower	zerothre.ttf
1464340	WORD	wordpools/wasnorm_wordpool_less_exclusions.txt	LTP231	ltpFR	9	6	1	TONGUE	1479	n/a	n/a	0	n/a	0	0	0	0.422607421875	0.5869140625	0	lower	zerothre.ttf
1468556	WORD	wordpools/wasnorm_wordpool_less_exclusions.txt	LTP231	ltpFR	9	6	1	MESSAGE	888	n/a	n/a	0	n/a	0	0	0	0.422607421875	0.5869140625	0	lower	zerothre.ttf
1472721	WORD	wordpools/wasnorm_wordpool_less_exclusions.txt	LTP231	ltpFR	9	6	0	WRITER	1627	n/a	n/a	1	n/a	0	0	0	0.57763671875	0.412841796875	1	upper	amplitud.ttf
1476937	WORD	wordpools/wasnorm_wordpool_less_exclusions.txt	LTP231	ltpFR	9	6	0	PASTRY	1022	n/a	n/a	0	n/a	0	0	0	0.57763671875	0.412841796875	1	upper	amplitud.ttf
1480835	WORD	wordpools/wasnorm_wordpool_less_exclusions.txt	LTP231	ltpFR	9	6	0	CATTLE	261	n/a	n/a	1	n/a	0	0	0	0.57763671875	0.412841796875	1	upper	amplitud.ttf
1484700	WORD	wordpools/wasnorm_wordpool_less_exclusions.txt	LTP231	ltpFR	9	6	1	LAKE	796	n/a	n/a	0	n/a	0	0	0	0.422607421875	0.5869140625	0	lower	zerothre.ttf
1488665	WORD	wordpools/wasnorm_wordpool_less_exclusions.txt	LTP231	ltpFR	9	6	1	TOAD	1470	n/a	n/a	1	n/a	0	0	0	0.422607421875	0.5869140625	0	lower	zerothre.ttf
1492860	WORD	wordpools/wasnorm_wordpool_less_exclusions.txt	LTP231	ltpFR	9	6	0	DYNAMITE	511	n/a	n/a	1	n/a	0	0	0	0.57763671875	0.412841796875	1	upper	amplitud.ttf
1496745	WORD	wordpools/wasnorm_wordpool_less_exclusions.txt	LTP231	ltpFR	9	6	0	COP	376	n/a	n/a	1	n/a	0	0	0	0.57763671875	0.412841796875	1	upper	amplitud.ttf
1500677	WORD	wordpools/wasnorm_wordpool_less_exclusions.txt	LTP231	ltpFR	9	6	0	HAMPER	682	n/a	n/a	1	n/a	0	0	0	0.57763671875	0.412841796875	1	upper	amplitud.ttf
1504709	WORD	wordpools/wasnorm_wordpool_less_exclusions.txt	LTP231	ltpFR	9	6	0	COSTUME	383	n/a	n/a	1	n/a	0	0	0	0.57763671875	0.412841796875	1	upper	amplitud.ttf
1508874	WORD	wordpools/wasnorm_wordpool_less_exclusions.txt	LTP231	ltpFR	9	6	0	PATROL	1027	n/a	n/a	1	n/a	0	0	0	0.57763671875	0.412841796875	1	upper	amplitud.ttf
1512936	WORD	wordpools/wasnorm_wordpool_less_exclusions.txt	LTP231	ltpFR	9	6	1	MONEY	908	n/a	n/a	0	n/a	0	0	0	0.422607421875	0.5869140625	0	lower	zerothre.ttf
1517072	WORD	wordpools/wasnorm_wordpool_less_exclusions.txt	LTP231	ltpFR	9	6	1	CASH	252	n/a	n/a	0	n/a	0	0	0	0.422607421875	0.5869140625	0	lower	zerothre.ttf
1520083	START	n/a	LTP231	ltpFR	9	n/a	n/a	n/a	n/a	n/a	n/a	n/a	n/a	n/a	n/a	n/a	n/a	n/a	n/a	n/a	n/a
1520920	PROB	n/a	LTP231	ltpFR	9	n/a	n/a	n/a	n/a	n/a	n/a	n/a	9	3	4	2	n/a	n/a	n/a	n/a	n/a
1528083	STOP	n/a	LTP231	ltpFR	9	n/a	n/a	n/a	n/a	n/a	n/a	n/a	n/a	n/a	n/a	n/a	n/a	n/a	n/a	n/a	n/a
1529837	REC_START	n/a	LTP231	ltpFR	9	6	n/a	n/a	n/a	n/a	n/a	n/a	n/a	0	0	0	n/a	n/a	n/a	n/a	n/a
1531812	REC_WORD	wordpools/wasnorm_wordpool_less_exclusions.txt	LTP231	ltpFR	9	6	0	PATROL	1027	n/a	n/a	1	n/a	0	0	0	n/a	n/a	n/a	n/a	n/a
1534597	REC_WORD	wordpools/wasnorm_wordpool_less_exclusions.txt	LTP231	ltpFR	9	6	1	SNACK	1331	n/a	n/a	0	n/a	0	0	0	n/a	n/a	n/a	n/a	n/a
1539430	REC_WORD	wordpools/wasnorm_wordpool_less_exclusions.txt	LTP231	ltpFR	9	6	0	HAMPER	682	n/a	n/a	1	n/a	0	0	0	n/a	n/a	n/a	n/a	n/a
1543586	REC_WORD	wordpools/wasnorm_wordpool_less_exclusions.txt	LTP231	ltpFR	9	6	0	COSTUME	383	n/a	n/a	1	n/a	0	0	0	n/a	n/a	n/a	n/a	n/a
1559070	REC_WORD	wordpools/wasnorm_wordpool_less_exclusions.txt	LTP231	ltpFR	9	6	0	COP	376	n/a	n/a	1	n/a	0	0	0	n/a	n/a	n/a	n/a	n/a
1577538	REC_WORD	wordpools/wasnorm_wordpool_less_exclusions.txt	LTP231	ltpFR	9	6	1	TONGUE	1479	n/a	n/a	0	n/a	0	0	0	n/a	n/a	n/a	n/a	n/a
1630014	WORD	wordpools/wasnorm_wordpool_less_exclusions.txt	LTP231	ltpFR	9	7	0	BAIT	70	n/a	n/a	2	n/a	0	0	0	0.57763671875	0.412841796875	1	upper	amplitud.ttf
1630968	KEY_MSG	n/a	LTP231	ltpFR	9	7	n/a	n/a	n/a	n/a	n/a	n/a	n/a	0	0	0	n/a	n/a	n/a	n/a	n/a
1633892	WORD	wordpools/wasnorm_wordpool_less_exclusions.txt	LTP231	ltpFR	9	7	0	CART	250	n/a	n/a	1	n/a	0	0	0	0.57763671875	0.412841796875	1	upper	amplitud.ttf
1637977	WORD	wordpools/wasnorm_wordpool_less_exclusions.txt	LTP231	ltpFR	9	7	0	NEUTRON	947	n/a	n/a	0	n/a	0	0	0	0.57763671875	0.412841796875	1	upper	amplitud.ttf
1641942	WORD	wordpools/wasnorm_wordpool_less_exclusions.txt	LTP231	ltpFR	9	7	0	SWIMMER	1420	n/a	n/a	1	n/a	0	0	0	0.57763671875	0.412841796875	1	upper	amplitud.ttf
1645774	WORD	wordpools/wasnorm_wordpool_less_exclusions.txt	LTP231	ltpFR	9	7	0	COYOTE	396	n/a	n/a	1	n/a	0	0	0	0.57763671875	0.412841796875	1	upper	amplitud.ttf
1649768	WORD	wordpools/wasnorm_wordpool_less_exclusions.txt	LTP231	ltpFR	9	7	0	COLLAR	345	n/a	n/a	0	n/a	0	0	0	0.57763671875	0.412841796875	1	upper	amplitud.ttf
1653804	WORD	wordpools/wasnorm_wordpool_less_exclusions.txt	LTP231	ltpFR	9	7	0	VALLEY	1545	n/a	n/a	1	n/a	0	0	0	0.57763671875	0.412841796875	1	upper	amplitud.ttf
1657719	WORD	wordpools/wasnorm_wordpool_less_exclusions.txt	LTP231	ltpFR	9	7	0	CIGARETTE	309	n/a	n/a	0	n/a	0	0	0	0.57763671875	0.412841796875	1	upper	amplitud.ttf
1661918	WORD	wordpools/wasnorm_wordpool_less_exclusions.txt	LTP231	ltpFR	9	7	0	CHEF	290	n/a	n/a	1	n/a	0	0	0	0.57763671875	0.412841796875	1	upper	amplitud.ttf
1665933	WORD	wordpools/wasnorm_wordpool_less_exclusions.txt	LTP231	ltpFR	9	7	0	APRON	35	n/a	n/a	0	n/a	0	0	0	0.57763671875	0.412841796875	1	upper	amplitud.ttf
1670111	WORD	wordpools/wasnorm_wordpool_less_exclusions.txt	LTP231	ltpFR	9	7	0	DILL	465	n/a	n/a	0	n/a	0	0	0	0.57763671875	0.412841796875	1	upper	amplitud.ttf
1674298	WORD	wordpools/wasnorm_wordpool_less_exclusions.txt	LTP231	ltpFR	9	7	0	BALCONY	72	n/a	n/a	1	n/a	0	0	0	0.57763671875	0.412841796875	1	upper	amplitud.ttf
1678346	WORD	wordpools/wasnorm_wordpool_less_exclusions.txt	LTP231	ltpFR	9	7	0	ASHTRAY	45	n/a	n/a	0	n/a	0	0	0	0.57763671875	0.412841796875	1	upper	amplitud.ttf
1682358	WORD	wordpools/wasnorm_wordpool_less_exclusions.txt	LTP231	ltpFR	9	7	0	BATHTUB	100	n/a	n/a	0	n/a	0	0	0	0.57763671875	0.412841796875	1	upper	amplitud.ttf
1686192	WORD	wordpools/wasnorm_wordpool_less_exclusions.txt	LTP231	ltpFR	9	7	0	DICTATOR	462	n/a	n/a	1	n/a	0	0	0	0.57763671875	0.412841796875	1	upper	amplitud.ttf
1690074	WORD	wordpools/wasnorm_wordpool_less_exclusions.txt	LTP231	ltpFR	9	7	0	CHIEF	298	n/a	n/a	1	n/a	0	0	0	0.57763671875	0.412841796875	1	upper	amplitud.ttf
1693085	START	n/a	LTP231	ltpFR	9	n/a	n/a	n/a	n/a	n/a	n/a	n/a	n/a	n/a	n/a	n/a	n/a	n/a	n/a	n/a	n/a
1693955	PROB	n/a	LTP231	ltpFR	9	n/a	n/a	n/a	n/a	n/a	n/a	n/a	11	1	2	8	n/a	n/a	n/a	n/a	n/a
1695758	PROB	n/a	LTP231	ltpFR	9	n/a	n/a	n/a	n/a	n/a	n/a	n/a	19	9	5	5	n/a	n/a	n/a	n/a	n/a
1698221	PROB	n/a	LTP231	ltpFR	9	n/a	n/a	n/a	n/a	n/a	n/a	n/a	15	4	4	7	n/a	n/a	n/a	n/a	n/a
1700944	PROB	n/a	LTP231	ltpFR	9	n/a	n/a	n/a	n/a	n/a	n/a	n/a	18	2	9	7	n/a	n/a	n/a	n/a	n/a
1704307	PROB	n/a	LTP231	ltpFR	9	n/a	n/a	n/a	n/a	n/a	n/a	n/a	10	1	8	1	n/a	n/a	n/a	n/a	n/a
1709084	STOP	n/a	LTP231	ltpFR	9	n/a	n/a	n/a	n/a	n/a	n/a	n/a	n/a	n/a	n/a	n/a	n/a	n/a	n/a	n/a	n/a
1710853	REC_START	n/a	LTP231	ltpFR	9	7	n/a	n/a	n/a	n/a	n/a	n/a	n/a	0	0	0	n/a	n/a	n/a	n/a	n/a
1715921	REC_WORD	wordpools/wasnorm_wordpool_less_exclusions.txt	LTP231	ltpFR	9	7	0	COYOTE	396	n/a	n/a	1	n/a	0	0	0	n/a	n/a	n/a	n/a	n/a
1717258	REC_WORD	wordpools/wasnorm_wordpool_less_exclusions.txt	LTP231	ltpFR	9	7	0	COLLAR	345	n/a	n/a	0	n/a	0	0	0	n/a	n/a	n/a	n/a	n/a
1718904	REC_WORD	wordpools/wasnorm_wordpool_less_exclusions.txt	LTP231	ltpFR	9	7	0	CHIEF	298	n/a	n/a	1	n/a	0	0	0	n/a	n/a	n/a	n/a	n/a
1720311	REC_WORD	wordpools/wasnorm_wordpool_less_exclusions.txt	LTP231	ltpFR	9	7	0	CHEF	290	n/a	n/a	1	n/a	0	0	0	n/a	n/a	n/a	n/a	n/a
1722491	REC_WORD	wordpools/wasnorm_wordpool_less_exclusions.txt	LTP231	ltpFR	9	7	0	APRON	35	n/a	n/a	0	n/a	0	0	0	n/a	n/a	n/a	n/a	n/a
1728163	REC_WORD	wordpools/wasnorm_wordpool_less_exclusions.txt	LTP231	ltpFR	9	7	0	BALCONY	72	n/a	n/a	1	n/a	0	0	0	n/a	n/a	n/a	n/a	n/a
1792992	START	n/a	LTP231	ltpFR	9	n/a	n/a	n/a	n/a	n/a	n/a	n/a	n/a	n/a	n/a	n/a	n/a	n/a	n/a	n/a	n/a
1794500	PROB	n/a	LTP231	ltpFR	9	n/a	n/a	n/a	n/a	n/a	n/a	n/a	9	6	2	1	n/a	n/a	n/a	n/a	n/a
1797090	PROB	n/a	LTP231	ltpFR	9	n/a	n/a	n/a	n/a	n/a	n/a	n/a	16	9	1	6	n/a	n/a	n/a	n/a	n/a
1800475	STOP	n/a	LTP231	ltpFR	9	n/a	n/a	n/a	n/a	n/a	n/a	n/a	n/a	n/a	n/a	n/a	n/a	n/a	n/a	n/a	n/a
1802146	WORD	wordpools/wasnorm_wordpool_less_exclusions.txt	LTP231	ltpFR	9	8	0	DINNER	468	n/a	n/a	0	n/a	0	0	0	0.57763671875	0.412841796875	1	upper	amplitud.ttf
1805158	START	n/a	LTP231	ltpFR	9	n/a	n/a	n/a	n/a	n/a	n/a	n/a	n/a	n/a	n/a	n/a	n/a	n/a	n/a	n/a	n/a
1806245	PROB	n/a	LTP231	ltpFR	9	n/a	n/a	n/a	n/a	n/a	n/a	n/a	22	7	6	9	n/a	n/a	n/a	n/a	n/a
1810273	PROB	n/a	LTP231	ltpFR	9	n/a	n/a	n/a	n/a	n/a	n/a	n/a	24	8	8	8	n/a	n/a	n/a	n/a	n/a
1812340	STOP	n/a	LTP231	ltpFR	9	n/a	n/a	n/a	n/a	n/a	n/a	n/a	n/a	n/a	n/a	n/a	n/a	n/a	n/a	n/a	n/a
1814007	WORD	wordpools/wasnorm_wordpool_less_exclusions.txt	LTP231	ltpFR	9	8	0	CRUMB	416	n/a	n/a	0	n/a	0	0	0	0.57763671875	0.412841796875	1	upper	amplitud.ttf
1817020	START	n/a	LTP231	ltpFR	9	n/a	n/a	n/a	n/a	n/a	n/a	n/a	n/a	n/a	n/a	n/a	n/a	n/a	n/a	n/a	n/a
1817922	PROB	n/a	LTP231	ltpFR	9	n/a	n/a	n/a	n/a	n/a	n/a	n/a	10	2	5	3	n/a	n/a	n/a	n/a	n/a
1820244	PROB	n/a	LTP231	ltpFR	9	n/a	n/a	n/a	n/a	n/a	n/a	n/a	18	8	7	3	n/a	n/a	n/a	n/a	n/a
1821904	PROB	n/a	LTP231	ltpFR	9	n/a	n/a	n/a	n/a	n/a	n/a	n/a	15	9	3	3	n/a	n/a	n/a	n/a	n/a
1824244	STOP	n/a	LTP231	ltpFR	9	n/a	n/a	n/a	n/a	n/a	n/a	n/a	n/a	n/a	n/a	n/a	n/a	n/a	n/a	n/a	n/a
1826153	WORD	wordpools/wasnorm_wordpool_less_exclusions.txt	LTP231	ltpFR	9	8	0	RIB	1188	n/a	n/a	0	n/a	0	0	0	0.57763671875	0.412841796875	1	upper	amplitud.ttf
1829165	START	n/a	LTP231	ltpFR	9	n/a	n/a	n/a	n/a	n/a	n/a	n/a	n/a	n/a	n/a	n/a	n/a	n/a	n/a	n/a	n/a
1830202	PROB	n/a	LTP231	ltpFR	9	n/a	n/a	n/a	n/a	n/a	n/a	n/a	19	3	8	7	n/a	n/a	n/a	n/a	n/a
1832858	PROB	n/a	LTP231	ltpFR	9	n/a	n/a	n/a	n/a	n/a	n/a	n/a	14	4	8	2	n/a	n/a	n/a	n/a	n/a
1836076	STOP	n/a	LTP231	ltpFR	9	n/a	n/a	n/a	n/a	n/a	n/a	n/a	n/a	n/a	n/a	n/a	n/a	n/a	n/a	n/a	n/a
1838182	WORD	wordpools/wasnorm_wordpool_less_exclusions.txt	LTP231	ltpFR	9	8	0	SPIT	1354	n/a	n/a	0	n/a	0	0	0	0.57763671875	0.412841796875	1	upper	amplitud.ttf
1841194	START	n/a	LTP231	ltpFR	9	n/a	n/a	n/a	n/a	n/a	n/a	n/a	n/a	n/a	n/a	n/a	n/a	n/a	n/a	n/a	n/a
1842030	PROB	n/a	LTP231	ltpFR	9	n/a	n/a	n/a	n/a	n/a	n/a	n/a	9	2	1	6	n/a	n/a	n/a	n/a	n/a
1844686	PROB	n/a	LTP231	ltpFR	9	n/a	n/a	n/a	n/a	n/a	n/a	n/a	16	4	8	4	n/a	n/a	n/a	n/a	n/a
1849194	STOP	n/a	LTP231	ltpFR	9	n/a	n/a	n/a	n/a	n/a	n/a	n/a	n/a	n/a	n/a	n/a	n/a	n/a	n/a	n/a	n/a
1850077	WORD	wordpools/wasnorm_wordpool_less_exclusions.txt	LTP231	ltpFR	9	8	0	BRANCH	168	n/a	n/a	0	n/a	0	0	0	0.57763671875	0.412841796875	1	upper	amplitud.ttf
1853089	START	n/a	LTP231	ltpFR	9	n/a	n/a	n/a	n/a	n/a	n/a	n/a	n/a	n/a	n/a	n/a	n/a	n/a	n/a	n/a	n/a
1854142	PROB	n/a	LTP231	ltpFR	9	n/a	n/a	n/a	n/a	n/a	n/a	n/a	13	1	6	6	n/a	n/a	n/a	n/a	n/a
1856096	PROB	n/a	LTP231	ltpFR	9	n/a	n/a	n/a	n/a	n/a	n/a	n/a	13	3	7	3	n/a	n/a	n/a	n/a	n/a
1861089	STOP	n/a	LTP231	ltpFR	9	n/a	n/a	n/a	n/a	n/a	n/a	n/a	n/a	n/a	n/a	n/a	n/a	n/a	n/a	n/a	n/a
1862252	WORD	wordpools/wasnorm_wordpool_less_exclusions.txt	LTP231	ltpFR	9	8	0	BUSH	202	n/a	n/a	0	n/a	0	0	0	0.57763671875	0.412841796875	1	upper	amplitud.ttf
1865268	START	n/a	LTP231	ltpFR	9	n/a	n/a	n/a	n/a	n/a	n/a	n/a	n/a	n/a	n/a	n/a	n/a	n/a	n/a	n/a	n/a
1866271	PROB	n/a	LTP231	ltpFR	9	n/a	n/a	n/a	n/a	n/a	n/a	n/a	23	8	8	7	n/a	n/a	n/a	n/a	n/a
1870333	PROB	n/a	LTP231	ltpFR	9	n/a	n/a	n/a	n/a	n/a	n/a	n/a	10	4	1	5	n/a	n/a	n/a	n/a	n/a
1872348	STOP	n/a	LTP231	ltpFR	9	n/a	n/a	n/a	n/a	n/a	n/a	n/a	n/a	n/a	n/a	n/a	n/a	n/a	n/a	n/a	n/a
1874451	WORD	wordpools/wasnorm_wordpool_less_exclusions.txt	LTP231	ltpFR	9	8	0	HAMBURGER	679	n/a	n/a	0	n/a	0	0	0	0.57763671875	0.412841796875	1	upper	amplitud.ttf
1877463	START	n/a	LTP231	ltpFR	9	n/a	n/a	n/a	n/a	n/a	n/a	n/a	n/a	n/a	n/a	n/a	n/a	n/a	n/a	n/a	n/a
1878651	PROB	n/a	LTP231	ltpFR	9	n/a	n/a	n/a	n/a	n/a	n/a	n/a	9	7	1	1	n/a	n/a	n/a	n/a	n/a
1880826	PROB	n/a	LTP231	ltpFR	9	n/a	n/a	n/a	n/a	n/a	n/a	n/a	11	1	2	8	n/a	n/a	n/a	n/a	n/a
1882830	PROB	n/a	LTP231	ltpFR	9	n/a	n/a	n/a	n/a	n/a	n/a	n/a	5	1	1	3	n/a	n/a	n/a	n/a	n/a
1884348	STOP	n/a	LTP231	ltpFR	9	n/a	n/a	n/a	n/a	n/a	n/a	n/a	n/a	n/a	n/a	n/a	n/a	n/a	n/a	n/a	n/a
1886598	WORD	wordpools/wasnorm_wordpool_less_exclusions.txt	LTP231	ltpFR	9	8	0	PARENT	1013	n/a	n/a	1	n/a	0	0	0	0.57763671875	0.412841796875	1	upper	amplitud.ttf
1889610	START	n/a	LTP231	ltpFR	9	n/a	n/a	n/a	n/a	n/a	n/a	n/a	n/a	n/a	n/a	n/a	n/a	n/a	n/a	n/a	n/a
1890478	PROB	n/a	LTP231	ltpFR	9	n/a	n/a	n/a	n/a	n/a	n/a	n/a	13	7	5	1	n/a	n/a	n/a	n/a	n/a
1892583	PROB	n/a	LTP231	ltpFR	9	n/a	n/a	n/a	n/a	n/a	n/a	n/a	20	2	9	9	n/a	n/a	n/a	n/a	n/a
1895578	PROB	n/a	LTP231	ltpFR	9	n/a	n/a	n/a	n/a	n/a	n/a	n/a	2	3	3	6	n/a	n/a	n/a	n/a	n/a
1897427	STOP	n/a	LTP231	ltpFR	9	n/a	n/a	n/a	n/a	n/a	n/a	n/a	n/a	n/a	n/a	n/a	n/a	n/a	n/a	n/a	n/a
1898441	WORD	wordpools/wasnorm_wordpool_less_exclusions.txt	LTP231	ltpFR	9	8	0	BEAD	103	n/a	n/a	0	n/a	0	0	0	0.57763671875	0.412841796875	1	upper	amplitud.ttf
1901453	START	n/a	LTP231	ltpFR	9	n/a	n/a	n/a	n/a	n/a	n/a	n/a	n/a	n/a	n/a	n/a	n/a	n/a	n/a	n/a	n/a
1902324	PROB	n/a	LTP231	ltpFR	9	n/a	n/a	n/a	n/a	n/a	n/a	n/a	23	5	9	9	n/a	n/a	n/a	n/a	n/a
1909453	STOP	n/a	LTP231	ltpFR	9	n/a	n/a	n/a	n/a	n/a	n/a	n/a	n/a	n/a	n/a	n/a	n/a	n/a	n/a	n/a	n/a
1910399	WORD	wordpools/wasnorm_wordpool_less_exclusions.txt	LTP231	ltpFR	9	8	0	DIAMOND	458	n/a	n/a	0	n/a	0	0	0	0.57763671875	0.412841796875	1	upper	amplitud.ttf
1913415	START	n/a	LTP231	ltpFR	9	n/a	n/a	n/a	n/a	n/a	n/a	n/a	n/a	n/a	n/a	n/a	n/a	n/a	n/a	n/a	n/a
1914352	PROB	n/a	LTP231	ltpFR	9	n/a	n/a	n/a	n/a	n/a	n/a	n/a	21	8	8	5	n/a	n/a	n/a	n/a	n/a
1916992	PROB	n/a	LTP231	ltpFR	9	n/a	n/a	n/a	n/a	n/a	n/a	n/a	13	4	4	5	n/a	n/a	n/a	n/a	n/a
1920788	STOP	n/a	LTP231	ltpFR	9	n/a	n/a	n/a	n/a	n/a	n/a	n/a	n/a	n/a	n/a	n/a	n/a	n/a	n/a	n/a	n/a
1922516	WORD	wordpools/wasnorm_wordpool_less_exclusions.txt	LTP231	ltpFR	9	8	0	APPENDAGE	32	n/a	n/a	0	n/a	0	0	0	0.57763671875	0.412841796875	1	upper	amplitud.ttf
1925529	START	n/a	LTP231	ltpFR	9	n/a	n/a	n/a	n/a	n/a	n/a	n/a	n/a	n/a	n/a	n/a	n/a	n/a	n/a	n/a	n/a
1926380	PROB	n/a	LTP231	ltpFR	9	n/a	n/a	n/a	n/a	n/a	n/a	n/a	18	9	7	2	n/a	n/a	n/a	n/a	n/a
1928786	PROB	n/a	LTP231	ltpFR	9	n/a	n/a	n/a	n/a	n/a	n/a	n/a	13	3	7	3	n/a	n/a	n/a	n/a	n/a
1930412	PROB	n/a	LTP231	ltpFR	9	n/a	n/a	n/a	n/a	n/a	n/a	n/a	9	1	5	3	n/a	n/a	n/a	n/a	n/a
1932068	STOP	n/a	LTP231	ltpFR	9	n/a	n/a	n/a	n/a	n/a	n/a	n/a	n/a	n/a	n/a	n/a	n/a	n/a	n/a	n/a	n/a
1934595	WORD	wordpools/wasnorm_wordpool_less_exclusions.txt	LTP231	ltpFR	9	8	0	BRACES	164	n/a	n/a	0	n/a	0	0	0	0.57763671875	0.412841796875	1	upper	amplitud.ttf
1937607	START	n/a	LTP231	ltpFR	9	n/a	n/a	n/a	n/a	n/a	n/a	n/a	n/a	n/a	n/a	n/a	n/a	n/a	n/a	n/a	n/a
1938694	PROB	n/a	LTP231	ltpFR	9	n/a	n/a	n/a	n/a	n/a	n/a	n/a	16	6	4	6	n/a	n/a	n/a	n/a	n/a
1940819	PROB	n/a	LTP231	ltpFR	9	n/a	n/a	n/a	n/a	n/a	n/a	n/a	17	6	6	5	n/a	n/a	n/a	n/a	n/a
1945607	STOP	n/a	LTP231	ltpFR	9	n/a	n/a	n/a	n/a	n/a	n/a	n/a	n/a	n/a	n/a	n/a	n/a	n/a	n/a	n/a	n/a
1946641	WORD	wordpools/wasnorm_wordpool_less_exclusions.txt	LTP231	ltpFR	9	8	0	PAD	998	n/a	n/a	0	n/a	0	0	0	0.57763671875	0.412841796875	1	upper	amplitud.ttf
1949653	START	n/a	LTP231	ltpFR	9	n/a	n/a	n/a	n/a	n/a	n/a	n/a	n/a	n/a	n/a	n/a	n/a	n/a	n/a	n/a	n/a
1950689	PROB	n/a	LTP231	ltpFR	9	n/a	n/a	n/a	n/a	n/a	n/a	n/a	14	2	6	6	n/a	n/a	n/a	n/a	n/a
1952727	PROB	n/a	LTP231	ltpFR	9	n/a	n/a	n/a	n/a	n/a	n/a	n/a	14	6	5	3	n/a	n/a	n/a	n/a	n/a
1957653	STOP	n/a	LTP231	ltpFR	9	n/a	n/a	n/a	n/a	n/a	n/a	n/a	n/a	n/a	n/a	n/a	n/a	n/a	n/a	n/a	n/a
1958850	WORD	wordpools/wasnorm_wordpool_less_exclusions.txt	LTP231	ltpFR	9	8	0	FEMALE	559	n/a	n/a	1	n/a	0	0	0	0.57763671875	0.412841796875	1	upper	amplitud.ttf
1961865	START	n/a	LTP231	ltpFR	9	n/a	n/a	n/a	n/a	n/a	n/a	n/a	n/a	n/a	n/a	n/a	n/a	n/a	n/a	n/a	n/a
1962735	PROB	n/a	LTP231	ltpFR	9	n/a	n/a	n/a	n/a	n/a	n/a	n/a	13	5	3	4	n/a	n/a	n/a	n/a	n/a
1969865	STOP	n/a	LTP231	ltpFR	9	n/a	n/a	n/a	n/a	n/a	n/a	n/a	n/a	n/a	n/a	n/a	n/a	n/a	n/a	n/a	n/a
1971049	WORD	wordpools/wasnorm_wordpool_less_exclusions.txt	LTP231	ltpFR	9	8	0	GRILL	661	n/a	n/a	1	n/a	0	0	0	0.57763671875	0.412841796875	1	upper	amplitud.ttf
1974061	START	n/a	LTP231	ltpFR	9	n/a	n/a	n/a	n/a	n/a	n/a	n/a	n/a	n/a	n/a	n/a	n/a	n/a	n/a	n/a	n/a
1975077	PROB	n/a	LTP231	ltpFR	9	n/a	n/a	n/a	n/a	n/a	n/a	n/a	10	2	3	5	n/a	n/a	n/a	n/a	n/a
1977406	PROB	n/a	LTP231	ltpFR	9	n/a	n/a	n/a	n/a	n/a	n/a	n/a	18	5	5	8	n/a	n/a	n/a	n/a	n/a
1979745	PROB	n/a	LTP231	ltpFR	9	n/a	n/a	n/a	n/a	n/a	n/a	n/a	10	1	1	8	n/a	n/a	n/a	n/a	n/a
1981403	STOP	n/a	LTP231	ltpFR	9	n/a	n/a	n/a	n/a	n/a	n/a	n/a	n/a	n/a	n/a	n/a	n/a	n/a	n/a	n/a	n/a
1983225	WORD	wordpools/wasnorm_wordpool_less_exclusions.txt	LTP231	ltpFR	9	8	0	CARTON	251	n/a	n/a	0	n/a	0	0	0	0.57763671875	0.412841796875	1	upper	amplitud.ttf
1986240	START	n/a	LTP231	ltpFR	9	n/a	n/a	n/a	n/a	n/a	n/a	n/a	n/a	n/a	n/a	n/a	n/a	n/a	n/a	n/a	n/a
1987076	PROB	n/a	LTP231	ltpFR	9	n/a	n/a	n/a	n/a	n/a	n/a	n/a	17	3	9	5	n/a	n/a	n/a	n/a	n/a
1989933	PROB	n/a	LTP231	ltpFR	9	n/a	n/a	n/a	n/a	n/a	n/a	n/a	16	8	1	7	n/a	n/a	n/a	n/a	n/a
1993124	STOP	n/a	LTP231	ltpFR	9	n/a	n/a	n/a	n/a	n/a	n/a	n/a	n/a	n/a	n/a	n/a	n/a	n/a	n/a	n/a	n/a
1996111	REC_START	n/a	LTP231	ltpFR	9	8	n/a	n/a	n/a	n/a	n/a	n/a	n/a	0	0	0	n/a	n/a	n/a	n/a	n/a
1997847	REC_WORD	wordpools/wasnorm_wordpool_less_exclusions.txt	LTP231	ltpFR	9	8	0	CARTON	251	n/a	n/a	0	n/a	0	0	0	n/a	n/a	n/a	n/a	n/a
2000316	REC_WORD	wordpools/wasnorm_wordpool_less_exclusions.txt	LTP231	ltpFR	9	8	0	HAMBURGER	679	n/a	n/a	0	n/a	0	0	0	n/a	n/a	n/a	n/a	n/a
2087301	START	n/a	LTP231	ltpFR	9	n/a	n/a	n/a	n/a	n/a	n/a	n/a	n/a	n/a	n/a	n/a	n/a	n/a	n/a	n/a	n/a
2088810	PROB	n/a	LTP231	ltpFR	9	n/a	n/a	n/a	n/a	n/a	n/a	n/a	11	1	7	3	n/a	n/a	n/a	n/a	n/a
2090495	PROB	n/a	LTP231	ltpFR	9	n/a	n/a	n/a	n/a	n/a	n/a	n/a	6	1	3	2	n/a	n/a	n/a	n/a	n/a
2092792	PROB	n/a	LTP231	ltpFR	9	n/a	n/a	n/a	n/a	n/a	n/a	n/a	14	8	4	2	n/a	n/a	n/a	n/a	n/a
2094582	PROB	n/a	LTP231	ltpFR	9	n/a	n/a	n/a	n/a	n/a	n/a	n/a	18	5	7	6	n/a	n/a	n/a	n/a	n/a
2097572	PROB	n/a	LTP231	ltpFR	9	n/a	n/a	n/a	n/a	n/a	n/a	n/a	9	2	6	1	n/a	n/a	n/a	n/a	n/a
2099366	PROB	n/a	LTP231	ltpFR	9	n/a	n/a	n/a	n/a	n/a	n/a	n/a	23	9	8	6	n/a	n/a	n/a	n/a	n/a
2103076	STOP	n/a	LTP231	ltpFR	9	n/a	n/a	n/a	n/a	n/a	n/a	n/a	n/a	n/a	n/a	n/a	n/a	n/a	n/a	n/a	n/a
2104151	WORD	wordpools/wasnorm_wordpool_less_exclusions.txt	LTP231	ltpFR	9	9	0	WELL	1600	n/a	n/a	1	n/a	0	0	0	0.57763671875	0.412841796875	1	upper	amplitud.ttf
2107163	START	n/a	LTP231	ltpFR	9	n/a	n/a	n/a	n/a	n/a	n/a	n/a	n/a	n/a	n/a	n/a	n/a	n/a	n/a	n/a	n/a
2108112	PROB	n/a	LTP231	ltpFR	9	n/a	n/a	n/a	n/a	n/a	n/a	n/a	15	4	4	7	n/a	n/a	n/a	n/a	n/a
2110304	PROB	n/a	LTP231	ltpFR	9	n/a	n/a	n/a	n/a	n/a	n/a	n/a	21	8	6	7	n/a	n/a	n/a	n/a	n/a
2115544	PROB	n/a	LTP231	ltpFR	9	n/a	n/a	n/a	n/a	n/a	n/a	n/a	9	2	4	3	n/a	n/a	n/a	n/a	n/a
2118421	PROB	n/a	LTP231	ltpFR	9	n/a	n/a	n/a	n/a	n/a	n/a	n/a	9	1	3	5	n/a	n/a	n/a	n/a	n/a
2120747	PROB	n/a	LTP231	ltpFR	9	n/a	n/a	n/a	n/a	n/a	n/a	n/a	14	1	4	9	n/a	n/a	n/a	n/a	n/a
2123124	STOP	n/a	LTP231	ltpFR	9	n/a	n/a	n/a	n/a	n/a	n/a	n/a	n/a	n/a	n/a	n/a	n/a	n/a	n/a	n/a	n/a
2124126	WORD	wordpools/wasnorm_wordpool_less_exclusions.txt	LTP231	ltpFR	9	9	0	DRESSER	496	n/a	n/a	1	n/a	0	0	0	0.57763671875	0.412841796875	1	upper	amplitud.ttf
2127139	START	n/a	LTP231	ltpFR	9	n/a	n/a	n/a	n/a	n/a	n/a	n/a	n/a	n/a	n/a	n/a	n/a	n/a	n/a	n/a	n/a
2128325	PROB	n/a	LTP231	ltpFR	9	n/a	n/a	n/a	n/a	n/a	n/a	n/a	11	7	2	2	n/a	n/a	n/a	n/a	n/a
2130731	PROB	n/a	LTP231	ltpFR	9	n/a	n/a	n/a	n/a	n/a	n/a	n/a	15	4	9	2	n/a	n/a	n/a	n/a	n/a
2133943	PROB	n/a	LTP231	ltpFR	9	n/a	n/a	n/a	n/a	n/a	n/a	n/a	18	5	6	7	n/a	n/a	n/a	n/a	n/a
2136369	PROB	n/a	LTP231	ltpFR	9	n/a	n/a	n/a	n/a	n/a	n/a	n/a	19	5	5	9	n/a	n/a	n/a	n/a	n/a
2137958	PROB	n/a	LTP231	ltpFR	9	n/a	n/a	n/a	n/a	n/a	n/a	n/a	16	8	4	4	n/a	n/a	n/a	n/a	n/a
2140003	PROB	n/a	LTP231	ltpFR	9	n/a	n/a	n/a	n/a	n/a	n/a	n/a	12	2	9	1	n/a	n/a	n/a	n/a	n/a
2141956	STOP	n/a	LTP231	ltpFR	9	n/a	n/a	n/a	n/a	n/a	n/a	n/a	n/a	n/a	n/a	n/a	n/a	n/a	n/a	n/a	n/a
2144302	WORD	wordpools/wasnorm_wordpool_less_exclusions.txt	LTP231	ltpFR	9	9	0	FIST	572	n/a	n/a	0	n/a	0	0	0	0.57763671875	0.412841796875	1	upper	amplitud.ttf
2147314	START	n/a	LTP231	ltpFR	9	n/a	n/a	n/a	n/a	n/a	n/a	n/a	n/a	n/a	n/a	n/a	n/a	n/a	n/a	n/a	n/a
2148251	PROB	n/a	LTP231	ltpFR	9	n/a	n/a	n/a	n/a	n/a	n/a	n/a	18	5	7	6	n/a	n/a	n/a	n/a	n/a
2152613	PROB	n/a	LTP231	ltpFR	9	n/a	n/a	n/a	n/a	n/a	n/a	n/a	7	2	1	4	n/a	n/a	n/a	n/a	n/a
2155039	PROB	n/a	LTP231	ltpFR	9	n/a	n/a	n/a	n/a	n/a	n/a	n/a	5	2	1	2	n/a	n/a	n/a	n/a	n/a
2156732	PROB	n/a	LTP231	ltpFR	9	n/a	n/a	n/a	n/a	n/a	n/a	n/a	21	9	3	9	n/a	n/a	n/a	n/a	n/a
2160928	PROB	n/a	LTP231	ltpFR	9	n/a	n/a	n/a	n/a	n/a	n/a	n/a	14	3	7	4	n/a	n/a	n/a	n/a	n/a
2163116	STOP	n/a	LTP231	ltpFR	9	n/a	n/a	n/a	n/a	n/a	n/a	n/a	n/a	n/a	n/a	n/a	n/a	n/a	n/a	n/a	n/a
2164457	WORD	wordpools/wasnorm_wordpool_less_exclusions.txt	LTP231	ltpFR	9	9	0	ATMOSPHERE	54	n/a	n/a	1	n/a	0	0	0	0.57763671875	0.412841796875	1	upper	amplitud.ttf
2167473	START	n/a	LTP231	ltpFR	9	n/a	n/a	n/a	n/a	n/a	n/a	n/a	n/a	n/a	n/a	n/a	n/a	n/a	n/a	n/a	n/a
2168409	PROB	n/a	LTP231	ltpFR	9	n/a	n/a	n/a	n/a	n/a	n/a	n/a	14	4	7	3	n/a	n/a	n/a	n/a	n/a
2169828	PROB	n/a	LTP231	ltpFR	9	n/a	n/a	n/a	n/a	n/a	n/a	n/a	14	6	1	7	n/a	n/a	n/a	n/a	n/a
2172390	PROB	n/a	LTP231	ltpFR	9	n/a	n/a	n/a	n/a	n/a	n/a	n/a	19	1	9	9	n/a	n/a	n/a	n/a	n/a
2174696	PROB	n/a	LTP231	ltpFR	9	n/a	n/a	n/a	n/a	n/a	n/a	n/a	21	9	5	7	n/a	n/a	n/a	n/a	n/a
2179686	PROB	n/a	LTP231	ltpFR	9	n/a	n/a	n/a	n/a	n/a	n/a	n/a	19	8	3	8	n/a	n/a	n/a	n/a	n/a
2182499	STOP	n/a	LTP231	ltpFR	9	n/a	n/a	n/a	n/a	n/a	n/a	n/a	n/a	n/a	n/a	n/a	n/a	n/a	n/a	n/a	n/a
2184537	WORD	wordpools/wasnorm_wordpool_less_exclusions.txt	LTP231	ltpFR	9	9	0	TERRITORY	1452	n/a	n/a	1	n/a	0	0	0	0.57763671875	0.412841796875	1	upper	amplitud.ttf
2187549	START	n/a	LTP231	ltpFR	9	n/a	n/a	n/a	n/a	n/a	n/a	n/a	n/a	n/a	n/a	n/a	n/a	n/a	n/a	n/a	n/a
2188401	PROB	n/a	LTP231	ltpFR	9	n/a	n/a	n/a	n/a	n/a	n/a	n/a	16	4	6	6	n/a	n/a	n/a	n/a	n/a
2190272	PROB	n/a	LTP231	ltpFR	9	n/a	n/a	n/a	n/a	n/a	n/a	n/a	16	6	8	2	n/a	n/a	n/a	n/a	n/a
2191777	PROB	n/a	LTP231	ltpFR	9	n/a	n/a	n/a	n/a	n/a	n/a	n/a	18	1	8	9	n/a	n/a	n/a	n/a	n/a
2193601	PROB	n/a	LTP231	ltpFR	9	n/a	n/a	n/a	n/a	n/a	n/a	n/a	9	2	1	6	n/a	n/a	n/a	n/a	n/a
2195440	PROB	n/a	LTP231	ltpFR	9	n/a	n/a	n/a	n/a	n/a	n/a	n/a	19	4	9	6	n/a	n/a	n/a	n/a	n/a
2197750	PROB	n/a	LTP231	ltpFR	9	n/a	n/a	n/a	n/a	n/a	n/a	n/a	13	1	4	8	n/a	n/a	n/a	n/a	n/a
2200326	PROB	n/a	LTP231	ltpFR	9	n/a	n/a	n/a	n/a	n/a	n/a	n/a	15	9	3	3	n/a	n/a	n/a	n/a	n/a
2202876	STOP	n/a	LTP231	ltpFR	9	n/a	n/a	n/a	n/a	n/a	n/a	n/a	n/a	n/a	n/a	n/a	n/a	n/a	n/a	n/a	n/a
2204546	WORD	wordpools/wasnorm_wordpool_less_exclusions.txt	LTP231	ltpFR	9	9	0	DIAL	457	n/a	n/a	1	n/a	0	0	0	0.57763671875	0.412841796875	1	upper	amplitud.ttf
2207558	START	n/a	LTP231	ltpFR	9	n/a	n/a	n/a	n/a	n/a	n/a	n/a	n/a	n/a	n/a	n/a	n/a	n/a	n/a	n/a	n/a
2208528	PROB	n/a	LTP231	ltpFR	9	n/a	n/a	n/a	n/a	n/a	n/a	n/a	19	7	4	8	n/a	n/a	n/a	n/a	n/a
2210480	PROB	n/a	LTP231	ltpFR	9	n/a	n/a	n/a	n/a	n/a	n/a	n/a	6	3	2	1	n/a	n/a	n/a	n/a	n/a
2212020	PROB	n/a	LTP231	ltpFR	9	n/a	n/a	n/a	n/a	n/a	n/a	n/a	14	2	8	4	n/a	n/a	n/a	n/a	n/a
2213894	PROB	n/a	LTP231	ltpFR	9	n/a	n/a	n/a	n/a	n/a	n/a	n/a	13	5	7	1	n/a	n/a	n/a	n/a	n/a
2216588	PROB	n/a	LTP231	ltpFR	9	n/a	n/a	n/a	n/a	n/a	n/a	n/a	18	2	8	8	n/a	n/a	n/a	n/a	n/a
2218194	PROB	n/a	LTP231	ltpFR	9	n/a	n/a	n/a	n/a	n/a	n/a	n/a	13	1	7	5	n/a	n/a	n/a	n/a	n/a
2223558	STOP	n/a	LTP231	ltpFR	9	n/a	n/a	n/a	n/a	n/a	n/a	n/a	n/a	n/a	n/a	n/a	n/a	n/a	n/a	n/a	n/a
2224386	WORD	wordpools/wasnorm_wordpool_less_exclusions.txt	LTP231	ltpFR	9	9	0	TELEPHONE	1445	n/a	n/a	1	n/a	0	0	0	0.57763671875	0.412841796875	1	upper	amplitud.ttf
2227398	START	n/a	LTP231	ltpFR	9	n/a	n/a	n/a	n/a	n/a	n/a	n/a	n/a	n/a	n/a	n/a	n/a	n/a	n/a	n/a	n/a
2228516	PROB	n/a	LTP231	ltpFR	9	n/a	n/a	n/a	n/a	n/a	n/a	n/a	12	7	4	1	n/a	n/a	n/a	n/a	n/a
2230256	PROB	n/a	LTP231	ltpFR	9	n/a	n/a	n/a	n/a	n/a	n/a	n/a	14	9	2	3	n/a	n/a	n/a	n/a	n/a
2233301	PROB	n/a	LTP231	ltpFR	9	n/a	n/a	n/a	n/a	n/a	n/a	n/a	14	3	2	9	n/a	n/a	n/a	n/a	n/a
2235961	PROB	n/a	LTP231	ltpFR	9	n/a	n/a	n/a	n/a	n/a	n/a	n/a	23	9	8	6	n/a	n/a	n/a	n/a	n/a
2241013	PROB	n/a	LTP231	ltpFR	9	n/a	n/a	n/a	n/a	n/a	n/a	n/a	18	2	9	7	n/a	n/a	n/a	n/a	n/a
2243148	STOP	n/a	LTP231	ltpFR	9	n/a	n/a	n/a	n/a	n/a	n/a	n/a	n/a	n/a	n/a	n/a	n/a	n/a	n/a	n/a	n/a
2244462	WORD	wordpools/wasnorm_wordpool_less_exclusions.txt	LTP231	ltpFR	9	9	0	GUARD	667	n/a	n/a	1	n/a	0	0	0	0.57763671875	0.412841796875	1	upper	amplitud.ttf
2247474	START	n/a	LTP231	ltpFR	9	n/a	n/a	n/a	n/a	n/a	n/a	n/a	n/a	n/a	n/a	n/a	n/a	n/a	n/a	n/a	n/a
2248377	PROB	n/a	LTP231	ltpFR	9	n/a	n/a	n/a	n/a	n/a	n/a	n/a	11	8	1	2	n/a	n/a	n/a	n/a	n/a
2249913	PROB	n/a	LTP231	ltpFR	9	n/a	n/a	n/a	n/a	n/a	n/a	n/a	13	6	4	3	n/a	n/a	n/a	n/a	n/a
2251536	PROB	n/a	LTP231	ltpFR	9	n/a	n/a	n/a	n/a	n/a	n/a	n/a	17	7	6	4	n/a	n/a	n/a	n/a	n/a
2253962	PROB	n/a	LTP231	ltpFR	9	n/a	n/a	n/a	n/a	n/a	n/a	n/a	10	5	1	4	n/a	n/a	n/a	n/a	n/a
2256321	PROB	n/a	LTP231	ltpFR	9	n/a	n/a	n/a	n/a	n/a	n/a	n/a	10	3	3	4	n/a	n/a	n/a	n/a	n/a
2263474	STOP	n/a	LTP231	ltpFR	9	n/a	n/a	n/a	n/a	n/a	n/a	n/a	n/a	n/a	n/a	n/a	n/a	n/a	n/a	n/a	n/a
2264383	WORD	wordpools/wasnorm_wordpool_less_exclusions.txt	LTP231	ltpFR	9	9	0	MOLECULE	905	n/a	n/a	0	n/a	0	0	0	0.57763671875	0.412841796875	1	upper	amplitud.ttf
2267399	START	n/a	LTP231	ltpFR	9	n/a	n/a	n/a	n/a	n/a	n/a	n/a	n/a	n/a	n/a	n/a	n/a	n/a	n/a	n/a	n/a
2268370	PROB	n/a	LTP231	ltpFR	9	n/a	n/a	n/a	n/a	n/a	n/a	n/a	14	4	9	1	n/a	n/a	n/a	n/a	n/a
2269889	PROB	n/a	LTP231	ltpFR	9	n/a	n/a	n/a	n/a	n/a	n/a	n/a	16	9	2	5	n/a	n/a	n/a	n/a	n/a
2272013	PROB	n/a	LTP231	ltpFR	9	n/a	n/a	n/a	n/a	n/a	n/a	n/a	7	2	4	1	n/a	n/a	n/a	n/a	n/a
2274392	PROB	n/a	LTP231	ltpFR	9	n/a	n/a	n/a	n/a	n/a	n/a	n/a	10	4	2	4	n/a	n/a	n/a	n/a	n/a
2276969	PROB	n/a	LTP231	ltpFR	9	n/a	n/a	n/a	n/a	n/a	n/a	n/a	4	2	1	1	n/a	n/a	n/a	n/a	n/a
2278521	PROB	n/a	LTP231	ltpFR	9	n/a	n/a	n/a	n/a	n/a	n/a	n/a	13	4	4	5	n/a	n/a	n/a	n/a	n/a
2282284	STOP	n/a	LTP231	ltpFR	9	n/a	n/a	n/a	n/a	n/a	n/a	n/a	n/a	n/a	n/a	n/a	n/a	n/a	n/a	n/a	n/a
2284547	WORD	wordpools/wasnorm_wordpool_less_exclusions.txt	LTP231	ltpFR	9	9	0	KNOT	788	n/a	n/a	0	n/a	0	0	0	0.57763671875	0.412841796875	1	upper	amplitud.ttf
2287559	START	n/a	LTP231	ltpFR	9	n/a	n/a	n/a	n/a	n/a	n/a	n/a	n/a	n/a	n/a	n/a	n/a	n/a	n/a	n/a	n/a
2288428	PROB	n/a	LTP231	ltpFR	9	n/a	n/a	n/a	n/a	n/a	n/a	n/a	8	2	5	1	n/a	n/a	n/a	n/a	n/a
2290817	PROB	n/a	LTP231	ltpFR	9	n/a	n/a	n/a	n/a	n/a	n/a	n/a	13	5	3	5	n/a	n/a	n/a	n/a	n/a
2294080	PROB	n/a	LTP231	ltpFR	9	n/a	n/a	n/a	n/a	n/a	n/a	n/a	18	9	8	1	n/a	n/a	n/a	n/a	n/a
2296421	PROB	n/a	LTP231	ltpFR	9	n/a	n/a	n/a	n/a	n/a	n/a	n/a	15	2	6	7	n/a	n/a	n/a	n/a	n/a
2300436	PROB	n/a	LTP231	ltpFR	9	n/a	n/a	n/a	n/a	n/a	n/a	n/a	14	1	5	8	n/a	n/a	n/a	n/a	n/a
2302780	STOP	n/a	LTP231	ltpFR	9	n/a	n/a	n/a	n/a	n/a	n/a	n/a	n/a	n/a	n/a	n/a	n/a	n/a	n/a	n/a	n/a
2304673	WORD	wordpools/wasnorm_wordpool_less_exclusions.txt	LTP231	ltpFR	9	9	0	BRIDGE	174	n/a	n/a	1	n/a	0	0	0	0.57763671875	0.412841796875	1	upper	amplitud.ttf
2307685	START	n/a	LTP231	ltpFR	9	n/a	n/a	n/a	n/a	n/a	n/a	n/a	n/a	n/a	n/a	n/a	n/a	n/a	n/a	n/a	n/a
2308655	PROB	n/a	LTP231	ltpFR	9	n/a	n/a	n/a	n/a	n/a	n/a	n/a	14	6	4	4	n/a	n/a	n/a	n/a	n/a
2310023	PROB	n/a	LTP231	ltpFR	9	n/a	n/a	n/a	n/a	n/a	n/a	n/a	20	8	8	4	n/a	n/a	n/a	n/a	n/a
2312704	PROB	n/a	LTP231	ltpFR	9	n/a	n/a	n/a	n/a	n/a	n/a	n/a	18	8	9	1	n/a	n/a	n/a	n/a	n/a
2314176	PROB	n/a	LTP231	ltpFR	9	n/a	n/a	n/a	n/a	n/a	n/a	n/a	6	3	2	1	n/a	n/a	n/a	n/a	n/a
2315983	PROB	n/a	LTP231	ltpFR	9	n/a	n/a	n/a	n/a	n/a	n/a	n/a	15	2	4	9	n/a	n/a	n/a	n/a	n/a
2318158	PROB	n/a	LTP231	ltpFR	9	n/a	n/a	n/a	n/a	n/a	n/a	n/a	22	7	6	9	n/a	n/a	n/a	n/a	n/a
2322340	STOP	n/a	LTP231	ltpFR	9	n/a	n/a	n/a	n/a	n/a	n/a	n/a	n/a	n/a	n/a	n/a	n/a	n/a	n/a	n/a	n/a
2324678	WORD	wordpools/wasnorm_wordpool_less_exclusions.txt	LTP231	ltpFR	9	9	0	CLOTHES	327	n/a	n/a	0	n/a	0	0	0	0.57763671875	0.412841796875	1	upper	amplitud.ttf
2327694	START	n/a	LTP231	ltpFR	9	n/a	n/a	n/a	n/a	n/a	n/a	n/a	n/a	n/a	n/a	n/a	n/a	n/a	n/a	n/a	n/a
2328831	PROB	n/a	LTP231	ltpFR	9	n/a	n/a	n/a	n/a	n/a	n/a	n/a	7	5	1	1	n/a	n/a	n/a	n/a	n/a
2330584	PROB	n/a	LTP231	ltpFR	9	n/a	n/a	n/a	n/a	n/a	n/a	n/a	14	7	5	2	n/a	n/a	n/a	n/a	n/a
2333127	PROB	n/a	LTP231	ltpFR	9	n/a	n/a	n/a	n/a	n/a	n/a	n/a	24	9	6	9	n/a	n/a	n/a	n/a	n/a
2337648	PROB	n/a	LTP231	ltpFR	9	n/a	n/a	n/a	n/a	n/a	n/a	n/a	16	6	4	6	n/a	n/a	n/a	n/a	n/a
2339466	PROB	n/a	LTP231	ltpFR	9	n/a	n/a	n/a	n/a	n/a	n/a	n/a	17	9	7	1	n/a	n/a	n/a	n/a	n/a
2343694	STOP	n/a	LTP231	ltpFR	9	n/a	n/a	n/a	n/a	n/a	n/a	n/a	n/a	n/a	n/a	n/a	n/a	n/a	n/a	n/a	n/a
2344841	WORD	wordpools/wasnorm_wordpool_less_exclusions.txt	LTP231	ltpFR	9	9	0	MISTER	901	n/a	n/a	1	n/a	0	0	0	0.57763671875	0.412841796875	1	upper	amplitud.ttf
2347853	START	n/a	LTP231	ltpFR	9	n/a	n/a	n/a	n/a	n/a	n/a	n/a	n/a	n/a	n/a	n/a	n/a	n/a	n/a	n/a	n/a
2348974	PROB	n/a	LTP231	ltpFR	9	n/a	n/a	n/a	n/a	n/a	n/a	n/a	12	8	1	3	n/a	n/a	n/a	n/a	n/a
2351329	PROB	n/a	LTP231	ltpFR	9	n/a	n/a	n/a	n/a	n/a	n/a	n/a	13	6	3	4	n/a	n/a	n/a	n/a	n/a
2354406	PROB	n/a	LTP231	ltpFR	9	n/a	n/a	n/a	n/a	n/a	n/a	n/a	13	3	4	6	n/a	n/a	n/a	n/a	n/a
2356803	PROB	n/a	LTP231	ltpFR	9	n/a	n/a	n/a	n/a	n/a	n/a	n/a	18	4	7	7	n/a	n/a	n/a	n/a	n/a
2359125	PROB	n/a	LTP231	ltpFR	9	n/a	n/a	n/a	n/a	n/a	n/a	n/a	19	6	5	8	n/a	n/a	n/a	n/a	n/a
2363853	STOP	n/a	LTP231	ltpFR	9	n/a	n/a	n/a	n/a	n/a	n/a	n/a	n/a	n/a	n/a	n/a	n/a	n/a	n/a	n/a	n/a
2364884	WORD	wordpools/wasnorm_wordpool_less_exclusions.txt	LTP231	ltpFR	9	9	0	FAMILY	550	n/a	n/a	1	n/a	0	0	0	0.57763671875	0.412841796875	1	upper	amplitud.ttf
2367896	START	n/a	LTP231	ltpFR	9	n/a	n/a	n/a	n/a	n/a	n/a	n/a	n/a	n/a	n/a	n/a	n/a	n/a	n/a	n/a	n/a
2368728	PROB	n/a	LTP231	ltpFR	9	n/a	n/a	n/a	n/a	n/a	n/a	n/a	17	6	7	4	n/a	n/a	n/a	n/a	n/a
2370936	PROB	n/a	LTP231	ltpFR	9	n/a	n/a	n/a	n/a	n/a	n/a	n/a	26	8	9	9	n/a	n/a	n/a	n/a	n/a
2374265	PROB	n/a	LTP231	ltpFR	9	n/a	n/a	n/a	n/a	n/a	n/a	n/a	21	7	7	7	n/a	n/a	n/a	n/a	n/a
2375855	PROB	n/a	LTP231	ltpFR	9	n/a	n/a	n/a	n/a	n/a	n/a	n/a	18	7	2	9	n/a	n/a	n/a	n/a	n/a
2378080	PROB	n/a	LTP231	ltpFR	9	n/a	n/a	n/a	n/a	n/a	n/a	n/a	14	8	3	3	n/a	n/a	n/a	n/a	n/a
2383895	STOP	n/a	LTP231	ltpFR	9	n/a	n/a	n/a	n/a	n/a	n/a	n/a	n/a	n/a	n/a	n/a	n/a	n/a	n/a	n/a	n/a
2385060	WORD	wordpools/wasnorm_wordpool_less_exclusions.txt	LTP231	ltpFR	9	9	0	COUSIN	392	n/a	n/a	1	n/a	0	0	0	0.57763671875	0.412841796875	1	upper	amplitud.ttf
2388072	START	n/a	LTP231	ltpFR	9	n/a	n/a	n/a	n/a	n/a	n/a	n/a	n/a	n/a	n/a	n/a	n/a	n/a	n/a	n/a	n/a
2389276	PROB	n/a	LTP231	ltpFR	9	n/a	n/a	n/a	n/a	n/a	n/a	n/a	15	7	7	1	n/a	n/a	n/a	n/a	n/a
2390882	PROB	n/a	LTP231	ltpFR	9	n/a	n/a	n/a	n/a	n/a	n/a	n/a	13	6	1	6	n/a	n/a	n/a	n/a	n/a
2392806	PROB	n/a	LTP231	ltpFR	9	n/a	n/a	n/a	n/a	n/a	n/a	n/a	15	1	8	6	n/a	n/a	n/a	n/a	n/a
2395796	PROB	n/a	LTP231	ltpFR	9	n/a	n/a	n/a	n/a	n/a	n/a	n/a	10	7	1	2	n/a	n/a	n/a	n/a	n/a
2397808	PROB	n/a	LTP231	ltpFR	9	n/a	n/a	n/a	n/a	n/a	n/a	n/a	10	3	5	2	n/a	n/a	n/a	n/a	n/a
2399912	PROB	n/a	LTP231	ltpFR	9	n/a	n/a	n/a	n/a	n/a	n/a	n/a	13	1	4	8	n/a	n/a	n/a	n/a	n/a
2404072	STOP	n/a	LTP231	ltpFR	9	n/a	n/a	n/a	n/a	n/a	n/a	n/a	n/a	n/a	n/a	n/a	n/a	n/a	n/a	n/a	n/a
2405232	WORD	wordpools/wasnorm_wordpool_less_exclusions.txt	LTP231	ltpFR	9	9	0	EMERALD	528	n/a	n/a	0	n/a	0	0	0	0.57763671875	0.412841796875	1	upper	amplitud.ttf
2408247	START	n/a	LTP231	ltpFR	9	n/a	n/a	n/a	n/a	n/a	n/a	n/a	n/a	n/a	n/a	n/a	n/a	n/a	n/a	n/a	n/a
2409217	PROB	n/a	LTP231	ltpFR	9	n/a	n/a	n/a	n/a	n/a	n/a	n/a	13	7	1	5	n/a	n/a	n/a	n/a	n/a
2411488	PROB	n/a	LTP231	ltpFR	9	n/a	n/a	n/a	n/a	n/a	n/a	n/a	23	6	9	8	n/a	n/a	n/a	n/a	n/a
2415019	PROB	n/a	LTP231	ltpFR	9	n/a	n/a	n/a	n/a	n/a	n/a	n/a	13	8	3	2	n/a	n/a	n/a	n/a	n/a
2417248	PROB	n/a	LTP231	ltpFR	9	n/a	n/a	n/a	n/a	n/a	n/a	n/a	14	8	4	2	n/a	n/a	n/a	n/a	n/a
2419088	PROB	n/a	LTP231	ltpFR	9	n/a	n/a	n/a	n/a	n/a	n/a	n/a	24	9	7	8	n/a	n/a	n/a	n/a	n/a
2424247	STOP	n/a	LTP231	ltpFR	9	n/a	n/a	n/a	n/a	n/a	n/a	n/a	n/a	n/a	n/a	n/a	n/a	n/a	n/a	n/a	n/a
2426015	REC_START	n/a	LTP231	ltpFR	9	9	n/a	n/a	n/a	n/a	n/a	n/a	n/a	0	0	0	n/a	n/a	n/a	n/a	n/a
2427721	REC_WORD	wordpools/wasnorm_wordpool_less_exclusions.txt	LTP231	ltpFR	9	9	0	CLOTHES	327	n/a	n/a	0	n/a	0	0	0	n/a	n/a	n/a	n/a	n/a
2429791	REC_WORD	wordpools/wasnorm_wordpool_less_exclusions.txt	LTP231	ltpFR	9	9	0	EMERALD	528	n/a	n/a	0	n/a	0	0	0	n/a	n/a	n/a	n/a	n/a
2525589	WORD	wordpools/wasnorm_wordpool_less_exclusions.txt	LTP231	ltpFR	9	10	0	TROPHY	1509	n/a	n/a	0	n/a	0	0	0	0.57763671875	0.412841796875	1	upper	amplitud.ttf
2529416	WORD	wordpools/wasnorm_wordpool_less_exclusions.txt	LTP231	ltpFR	9	10	0	HIKER	708	n/a	n/a	1	n/a	0	0	0	0.57763671875	0.412841796875	1	upper	amplitud.ttf
2533468	WORD	wordpools/wasnorm_wordpool_less_exclusions.txt	LTP231	ltpFR	9	10	0	KNAPSACK	783	n/a	n/a	0	n/a	0	0	0	0.57763671875	0.412841796875	1	upper	amplitud.ttf
2537333	WORD	wordpools/wasnorm_wordpool_less_exclusions.txt	LTP231	ltpFR	9	10	0	FACE	547	n/a	n/a	0	n/a	0	0	0	0.57763671875	0.412841796875	1	upper	amplitud.ttf
2541498	WORD	wordpools/wasnorm_wordpool_less_exclusions.txt	LTP231	ltpFR	9	10	0	FRIES	607	n/a	n/a	0	n/a	0	0	0	0.57763671875	0.412841796875	1	upper	amplitud.ttf
2545715	WORD	wordpools/wasnorm_wordpool_less_exclusions.txt	LTP231	ltpFR	9	10	1	CHIPMUNK	304	n/a	n/a	1	n/a	0	0	0	0.422607421875	0.5869140625	0	lower	zerothre.ttf
2549697	WORD	wordpools/wasnorm_wordpool_less_exclusions.txt	LTP231	ltpFR	9	10	1	STEAM	1375	n/a	n/a	0	n/a	0	0	0	0.422607421875	0.5869140625	0	lower	zerothre.ttf
2553795	WORD	wordpools/wasnorm_wordpool_less_exclusions.txt	LTP231	ltpFR	9	10	1	PIPE	1073	n/a	n/a	0	n/a	0	0	0	0.422607421875	0.5869140625	0	lower	zerothre.ttf
2557710	WORD	wordpools/wasnorm_wordpool_less_exclusions.txt	LTP231	ltpFR	9	10	0	AWARD	63	n/a	n/a	0	n/a	0	0	0	0.57763671875	0.412841796875	1	upper	amplitud.ttf
2561776	WORD	wordpools/wasnorm_wordpool_less_exclusions.txt	LTP231	ltpFR	9	10	0	ANTEATER	26	n/a	n/a	1	n/a	0	0	0	0.57763671875	0.412841796875	1	upper	amplitud.ttf
2565757	WORD	wordpools/wasnorm_wordpool_less_exclusions.txt	LTP231	ltpFR	9	10	0	ESCALATOR	539	n/a	n/a	1	n/a	0	0	0	0.57763671875	0.412841796875	1	upper	amplitud.ttf
2569622	WORD	wordpools/wasnorm_wordpool_less_exclusions.txt	LTP231	ltpFR	9	10	1	PERSON	1052	n/a	n/a	1	n/a	0	0	0	0.422607421875	0.5869140625	0	lower	zerothre.ttf
2573821	WORD	wordpools/wasnorm_wordpool_less_exclusions.txt	LTP231	ltpFR	9	10	1	PRIMATE	1123	n/a	n/a	1	n/a	0	0	0	0.422607421875	0.5869140625	0	lower	zerothre.ttf
2577669	WORD	wordpools/wasnorm_wordpool_less_exclusions.txt	LTP231	ltpFR	9	10	1	FAN	551	n/a	n/a	0	n/a	0	0	0	0.422607421875	0.5869140625	0	lower	zerothre.ttf
2581650	WORD	wordpools/wasnorm_wordpool_less_exclusions.txt	LTP231	ltpFR	9	10	1	SHOP	1290	n/a	n/a	0	n/a	0	0	0	0.422607421875	0.5869140625	0	lower	zerothre.ttf
2585515	WORD	wordpools/wasnorm_wordpool_less_exclusions.txt	LTP231	ltpFR	9	10	1	STORE	1387	n/a	n/a	0	n/a	0	0	0	0.422607421875	0.5869140625	0	lower	zerothre.ttf
2591338	REC_START	n/a	LTP231	ltpFR	9	10	n/a	n/a	n/a	n/a	n/a	n/a	n/a	0	0	0	n/a	n/a	n/a	n/a	n/a
2592854	REC_WORD	wordpools/wasnorm_wordpool_less_exclusions.txt	LTP231	ltpFR	9	10	1	STORE	1387	n/a	n/a	0	n/a	0	0	0	n/a	n/a	n/a	n/a	n/a
2593829	REC_WORD	wordpools/wasnorm_wordpool_less_exclusions.txt	LTP231	ltpFR	9	10	1	SHOP	1290	n/a	n/a	0	n/a	0	0	0	n/a	n/a	n/a	n/a	n/a
2595558	REC_WORD	wordpools/wasnorm_wordpool_less_exclusions.txt	LTP231	ltpFR	9	10	1	PRIMATE	1123	n/a	n/a	1	n/a	0	0	0	n/a	n/a	n/a	n/a	n/a
2596760	REC_WORD	wordpools/wasnorm_wordpool_less_exclusions.txt	LTP231	ltpFR	9	10	1	PERSON	1052	n/a	n/a	1	n/a	0	0	0	n/a	n/a	n/a	n/a	n/a
2599205	REC_WORD	wordpools/wasnorm_wordpool_less_exclusions.txt	LTP231	ltpFR	9	10	0	ESCALATOR	539	n/a	n/a	1	n/a	0	0	0	n/a	n/a	n/a	n/a	n/a
2602778	REC_WORD	wordpools/wasnorm_wordpool_less_exclusions.txt	LTP231	ltpFR	9	10	0	FACE	547	n/a	n/a	0	n/a	0	0	0	n/a	n/a	n/a	n/a	n/a
2604353	REC_WORD	wordpools/wasnorm_wordpool_less_exclusions.txt	LTP231	ltpFR	9	10	0	FRIES	607	n/a	n/a	0	n/a	0	0	0	n/a	n/a	n/a	n/a	n/a
2606339	REC_WORD	wordpools/wasnorm_wordpool_less_exclusions.txt	LTP231	ltpFR	9	10	0	KNAPSACK	783	n/a	n/a	0	n/a	0	0	0	n/a	n/a	n/a	n/a	n/a
2608863	REC_WORD	wordpools/wasnorm_wordpool_less_exclusions.txt	LTP231	ltpFR	9	10	0	HIKER	708	n/a	n/a	1	n/a	0	0	0	n/a	n/a	n/a	n/a	n/a
2610993	REC_WORD	wordpools/wasnorm_wordpool_less_exclusions.txt	LTP231	ltpFR	9	10	0	AWARD	63	n/a	n/a	0	n/a	0	0	0	n/a	n/a	n/a	n/a	n/a
2612460	REC_WORD	wordpools/wasnorm_wordpool_less_exclusions.txt	LTP231	ltpFR	9	10	0	TROPHY	1509	n/a	n/a	0	n/a	0	0	0	n/a	n/a	n/a	n/a	n/a
2666989	REST_REWET	n/a	LTP231	ltpFR	9	10	n/a	n/a	n/a	n/a	n/a	n/a	n/a	0	0	0	n/a	n/a	n/a	n/a	n/a
3165166	WORD	wordpools/wasnorm_wordpool_less_exclusions.txt	LTP231	ltpFR	9	11	1	BRUNETTE	181	n/a	n/a	0	n/a	0	0	0	0.422607421875	0.5869140625	0	lower	zerothre.ttf
3169232	WORD	wordpools/wasnorm_wordpool_less_exclusions.txt	LTP231	ltpFR	9	11	1	GIRAFFE	636	n/a	n/a	1	n/a	0	0	0	0.422607421875	0.5869140625	0	lower	zerothre.ttf
3173379	WORD	wordpools/wasnorm_wordpool_less_exclusions.txt	LTP231	ltpFR	9	11	1	WHEEL	1603	n/a	n/a	0	n/a	0	0	0	0.422607421875	0.5869140625	0	lower	zerothre.ttf
3177212	WORD	wordpools/wasnorm_wordpool_less_exclusions.txt	LTP231	ltpFR	9	11	1	CROW	414	n/a	n/a	1	n/a	0	0	0	0.422607421875	0.5869140625	0	lower	zerothre.ttf
3181361	WORD	wordpools/wasnorm_wordpool_less_exclusions.txt	LTP231	ltpFR	9	11	1	SEAGULL	1261	n/a	n/a	1	n/a	0	0	0	0.422607421875	0.5869140625	0	lower	zerothre.ttf
3185325	WORD	wordpools/wasnorm_wordpool_less_exclusions.txt	LTP231	ltpFR	9	11	1	CAP	236	n/a	n/a	0	n/a	0	0	0	0.422607421875	0.5869140625	0	lower	zerothre.ttf
3189538	WORD	wordpools/wasnorm_wordpool_less_exclusions.txt	LTP231	ltpFR	9	11	1	HOSTESS	723	n/a	n/a	1	n/a	0	0	0	0.422607421875	0.5869140625	0	lower	zerothre.ttf
3193372	WORD	wordpools/wasnorm_wordpool_less_exclusions.txt	LTP231	ltpFR	9	11	1	MEAL	882	n/a	n/a	0	n/a	0	0	0	0.422607421875	0.5869140625	0	lower	zerothre.ttf
3197505	WORD	wordpools/wasnorm_wordpool_less_exclusions.txt	LTP231	ltpFR	9	11	1	ZOO	1637	n/a	n/a	0	n/a	0	0	0	0.422607421875	0.5869140625	0	lower	zerothre.ttf
3201520	WORD	wordpools/wasnorm_wordpool_less_exclusions.txt	LTP231	ltpFR	9	11	1	CHAUFFEUR	283	n/a	n/a	1	n/a	0	0	0	0.422607421875	0.5869140625	0	lower	zerothre.ttf
3205368	WORD	wordpools/wasnorm_wordpool_less_exclusions.txt	LTP231	ltpFR	9	11	1	COUNTRY	388	n/a	n/a	0	n/a	0	0	0	0.422607421875	0.5869140625	0	lower	zerothre.ttf
3209395	WORD	wordpools/wasnorm_wordpool_less_exclusions.txt	LTP231	ltpFR	9	11	1	ATHLETE	52	n/a	n/a	1	n/a	0	0	0	0.422607421875	0.5869140625	0	lower	zerothre.ttf
3213264	WORD	wordpools/wasnorm_wordpool_less_exclusions.txt	LTP231	ltpFR	9	11	1	PERCH	1048	n/a	n/a	0	n/a	0	0	0	0.422607421875	0.5869140625	0	lower	zerothre.ttf
3217412	WORD	wordpools/wasnorm_wordpool_less_exclusions.txt	LTP231	ltpFR	9	11	1	ELECTRON	522	n/a	n/a	0	n/a	0	0	0	0.422607421875	0.5869140625	0	lower	zerothre.ttf
3221328	WORD	wordpools/wasnorm_wordpool_less_exclusions.txt	LTP231	ltpFR	9	11	1	TOY	1492	n/a	n/a	0	n/a	0	0	0	0.422607421875	0.5869140625	0	lower	zerothre.ttf
3225259	WORD	wordpools/wasnorm_wordpool_less_exclusions.txt	LTP231	ltpFR	9	11	1	SWING	1421	n/a	n/a	0	n/a	0	0	0	0.422607421875	0.5869140625	0	lower	zerothre.ttf
3228271	START	n/a	LTP231	ltpFR	9	n/a	n/a	n/a	n/a	n/a	n/a	n/a	n/a	n/a	n/a	n/a	n/a	n/a	n/a	n/a	n/a
3229424	PROB	n/a	LTP231	ltpFR	9	n/a	n/a	n/a	n/a	n/a	n/a	n/a	21	8	4	9	n/a	n/a	n/a	n/a	n/a
3232486	PROB	n/a	LTP231	ltpFR	9	n/a	n/a	n/a	n/a	n/a	n/a	n/a	18	5	6	7	n/a	n/a	n/a	n/a	n/a
3236271	STOP	n/a	LTP231	ltpFR	9	n/a	n/a	n/a	n/a	n/a	n/a	n/a	n/a	n/a	n/a	n/a	n/a	n/a	n/a	n/a	n/a
3238226	REC_START	n/a	LTP231	ltpFR	9	11	n/a	n/a	n/a	n/a	n/a	n/a	n/a	0	0	0	n/a	n/a	n/a	n/a	n/a
3240176	REC_WORD	wordpools/wasnorm_wordpool_less_exclusions.txt	LTP231	ltpFR	9	11	1	CAP	236	n/a	n/a	0	n/a	0	0	0	n/a	n/a	n/a	n/a	n/a
3241014	REC_WORD	wordpools/wasnorm_wordpool_less_exclusions.txt	LTP231	ltpFR	9	11	1	HOSTESS	723	n/a	n/a	1	n/a	0	0	0	n/a	n/a	n/a	n/a	n/a
3242282	REC_WORD	wordpools/wasnorm_wordpool_less_exclusions.txt	LTP231	ltpFR	9	11	1	CHAUFFEUR	283	n/a	n/a	1	n/a	0	0	0	n/a	n/a	n/a	n/a	n/a
3244202	REC_WORD	wordpools/wasnorm_wordpool_less_exclusions.txt	LTP231	ltpFR	9	11	1	ATHLETE	52	n/a	n/a	1	n/a	0	0	0	n/a	n/a	n/a	n/a	n/a
3247096	REC_WORD	wordpools/wasnorm_wordpool_less_exclusions.txt	LTP231	ltpFR	9	11	1	ZOO	1637	n/a	n/a	0	n/a	0	0	0	n/a	n/a	n/a	n/a	n/a
3266356	REC_WORD	wordpools/wasnorm_wordpool_less_exclusions.txt	LTP231	ltpFR	9	11	1	CROW	414	n/a	n/a	1	n/a	0	0	0	n/a	n/a	n/a	n/a	n/a
3267229	REC_WORD	wordpools/wasnorm_wordpool_less_exclusions.txt	LTP231	ltpFR	9	11	1	SEAGULL	1261	n/a	n/a	1	n/a	0	0	0	n/a	n/a	n/a	n/a	n/a
3273620	REC_WORD	wordpools/wasnorm_wordpool_less_exclusions.txt	LTP231	ltpFR	9	11	1	MEAL	882	n/a	n/a	0	n/a	0	0	0	n/a	n/a	n/a	n/a	n/a
3319966	WORD	wordpools/wasnorm_wordpool_less_exclusions.txt	LTP231	ltpFR	9	12	0	SNAKE	1333	n/a	n/a	0	n/a	0	0	0	0.57763671875	0.412841796875	1	upper	amplitud.ttf
3323948	WORD	wordpools/wasnorm_wordpool_less_exclusions.txt	LTP231	ltpFR	9	12	0	AUDIENCE	59	n/a	n/a	1	n/a	0	0	0	0.57763671875	0.412841796875	1	upper	amplitud.ttf
3328026	WORD	wordpools/wasnorm_wordpool_less_exclusions.txt	LTP231	ltpFR	9	12	1	PRINCESS	1125	n/a	n/a	1	n/a	0	0	0	0.422607421875	0.5869140625	0	lower	zerothre.ttf
3332095	WORD	wordpools/wasnorm_wordpool_less_exclusions.txt	LTP231	ltpFR	9	12	1	CLAM	315	n/a	n/a	1	n/a	0	0	0	0.422607421875	0.5869140625	0	lower	zerothre.ttf
3336077	WORD	wordpools/wasnorm_wordpool_less_exclusions.txt	LTP231	ltpFR	9	12	1	BAND	78	n/a	n/a	1	n/a	0	0	0	0.422607421875	0.5869140625	0	lower	zerothre.ttf
3339958	WORD	wordpools/wasnorm_wordpool_less_exclusions.txt	LTP231	ltpFR	9	12	0	PIE	1062	n/a	n/a	0	n/a	0	0	0	0.57763671875	0.412841796875	1	upper	amplitud.ttf
3343856	WORD	wordpools/wasnorm_wordpool_less_exclusions.txt	LTP231	ltpFR	9	12	0	BINDER	127	n/a	n/a	1	n/a	0	0	0	0.57763671875	0.412841796875	1	upper	amplitud.ttf
3347838	WORD	wordpools/wasnorm_wordpool_less_exclusions.txt	LTP231	ltpFR	9	12	0	EDITORIAL	517	n/a	n/a	1	n/a	0	0	0	0.57763671875	0.412841796875	1	upper	amplitud.ttf
3352033	WORD	wordpools/wasnorm_wordpool_less_exclusions.txt	LTP231	ltpFR	9	12	0	SLOPE	1328	n/a	n/a	1	n/a	0	0	0	0.57763671875	0.412841796875	1	upper	amplitud.ttf
3355985	WORD	wordpools/wasnorm_wordpool_less_exclusions.txt	LTP231	ltpFR	9	12	1	ANT	25	n/a	n/a	0	n/a	0	0	0	0.422607421875	0.5869140625	0	lower	zerothre.ttf
3360001	WORD	wordpools/wasnorm_wordpool_less_exclusions.txt	LTP231	ltpFR	9	12	1	NEST	945	n/a	n/a	0	n/a	0	0	0	0.422607421875	0.5869140625	0	lower	zerothre.ttf
3364066	WORD	wordpools/wasnorm_wordpool_less_exclusions.txt	LTP231	ltpFR	9	12	1	FIDDLE	561	n/a	n/a	0	n/a	0	0	0	0.422607421875	0.5869140625	0	lower	zerothre.ttf
3367947	WORD	wordpools/wasnorm_wordpool_less_exclusions.txt	LTP231	ltpFR	9	12	1	OZONE	996	n/a	n/a	0	n/a	0	0	0	0.422607421875	0.5869140625	0	lower	zerothre.ttf
3371895	WORD	wordpools/wasnorm_wordpool_less_exclusions.txt	LTP231	ltpFR	9	12	1	ROOST	1208	n/a	n/a	0	n/a	0	0	0	0.422607421875	0.5869140625	0	lower	zerothre.ttf
3375923	WORD	wordpools/wasnorm_wordpool_less_exclusions.txt	LTP231	ltpFR	9	12	0	PLIERS	1089	n/a	n/a	0	n/a	0	0	0	0.57763671875	0.412841796875	1	upper	amplitud.ttf
3379758	WORD	wordpools/wasnorm_wordpool_less_exclusions.txt	LTP231	ltpFR	9	12	0	SCREW	1254	n/a	n/a	0	n/a	0	0	0	0.57763671875	0.412841796875	1	upper	amplitud.ttf
3382770	START	n/a	LTP231	ltpFR	9	n/a	n/a	n/a	n/a	n/a	n/a	n/a	n/a	n/a	n/a	n/a	n/a	n/a	n/a	n/a	n/a
3383723	PROB	n/a	LTP231	ltpFR	9	n/a	n/a	n/a	n/a	n/a	n/a	n/a	7	3	2	2	n/a	n/a	n/a	n/a	n/a
3386445	PROB	n/a	LTP231	ltpFR	9	n/a	n/a	n/a	n/a	n/a	n/a	n/a	11	4	1	6	n/a	n/a	n/a	n/a	n/a
3388170	PROB	n/a	LTP231	ltpFR	9	n/a	n/a	n/a	n/a	n/a	n/a	n/a	20	5	6	9	n/a	n/a	n/a	n/a	n/a
3390427	PROB	n/a	LTP231	ltpFR	9	n/a	n/a	n/a	n/a	n/a	n/a	n/a	22	9	5	8	n/a	n/a	n/a	n/a	n/a
3394882	PROB	n/a	LTP231	ltpFR	9	n/a	n/a	n/a	n/a	n/a	n/a	n/a	16	7	5	4	n/a	n/a	n/a	n/a	n/a
3398620	STOP	n/a	LTP231	ltpFR	9	n/a	n/a	n/a	n/a	n/a	n/a	n/a	n/a	n/a	n/a	n/a	n/a	n/a	n/a	n/a	n/a
3400654	REC_START	n/a	LTP231	ltpFR	9	12	n/a	n/a	n/a	n/a	n/a	n/a	n/a	0	0	0	n/a	n/a	n/a	n/a	n/a
3402505	REC_WORD	wordpools/wasnorm_wordpool_less_exclusions.txt	LTP231	ltpFR	9	12	1	ROOST	1208	n/a	n/a	0	n/a	0	0	0	n/a	n/a	n/a	n/a	n/a
3403797	REC_WORD	wordpools/wasnorm_wordpool_less_exclusions.txt	LTP231	ltpFR	9	12	1	NEST	945	n/a	n/a	0	n/a	0	0	0	n/a	n/a	n/a	n/a	n/a
3405403	REC_WORD	wordpools/wasnorm_wordpool_less_exclusions.txt	LTP231	ltpFR	9	12	1	ANT	25	n/a	n/a	0	n/a	0	0	0	n/a	n/a	n/a	n/a	n/a
3410571	REC_WORD	wordpools/wasnorm_wordpool_less_exclusions.txt	LTP231	ltpFR	9	12	1	PRINCESS	1125	n/a	n/a	1	n/a	0	0	0	n/a	n/a	n/a	n/a	n/a
3413629	REC_WORD	wordpools/wasnorm_wordpool_less_exclusions.txt	LTP231	ltpFR	9	12	0	BINDER	127	n/a	n/a	1	n/a	0	0	0	n/a	n/a	n/a	n/a	n/a
3415350	REC_WORD	wordpools/wasnorm_wordpool_less_exclusions.txt	LTP231	ltpFR	9	12	0	EDITORIAL	517	n/a	n/a	1	n/a	0	0	0	n/a	n/a	n/a	n/a	n/a
3418927	REC_WORD	wordpools/wasnorm_wordpool_less_exclusions.txt	LTP231	ltpFR	9	12	0	PLIERS	1089	n/a	n/a	0	n/a	0	0	0	n/a	n/a	n/a	n/a	n/a
3454606	REC_WORD	wordpools/wasnorm_wordpool_less_exclusions.txt	LTP231	ltpFR	9	12	0	AUDIENCE	59	n/a	n/a	1	n/a	0	0	0	n/a	n/a	n/a	n/a	n/a
3458847	REC_WORD	wordpools/wasnorm_wordpool_less_exclusions.txt	LTP231	ltpFR	9	12	1	BAND	78	n/a	n/a	1	n/a	0	0	0	n/a	n/a	n/a	n/a	n/a
3496281	REC_START	n/a	LTP231	ltpFR	9	n/a	n/a	n/a	n/a	n/a	n/a	n/a	n/a	0	0	0	n/a	n/a	n/a	n/a	n/a
3498476	FFR_REC_WORD	wordpools/wasnorm_wordpool_less_exclusions.txt	LTP231	ltpFR	9	n/a	1	PRINCESS	1125	n/a	n/a	1	n/a	0	0	0	n/a	n/a	n/a	n/a	n/a
3499777	FFR_REC_WORD	wordpools/wasnorm_wordpool_less_exclusions.txt	LTP231	ltpFR	9	n/a	1	SEAGULL	1261	n/a	n/a	1	n/a	0	0	0	n/a	n/a	n/a	n/a	n/a
3501274	FFR_REC_WORD	wordpools/wasnorm_wordpool_less_exclusions.txt	LTP231	ltpFR	9	n/a	1	CROW	414	n/a	n/a	1	n/a	0	0	0	n/a	n/a	n/a	n/a	n/a
3502437	FFR_REC_WORD	wordpools/wasnorm_wordpool_less_exclusions.txt	LTP231	ltpFR	9	n/a	1	NEST	945	n/a	n/a	0	n/a	0	0	0	n/a	n/a	n/a	n/a	n/a
3503864	FFR_REC_WORD	wordpools/wasnorm_wordpool_less_exclusions.txt	LTP231	ltpFR	9	n/a	1	ANT	25	n/a	n/a	0	n/a	0	0	0	n/a	n/a	n/a	n/a	n/a
3504816	FFR_REC_WORD	wordpools/wasnorm_wordpool_less_exclusions.txt	LTP231	ltpFR	9	n/a	0	COYOTE	396	n/a	n/a	1	n/a	0	0	0	n/a	n/a	n/a	n/a	n/a
3506523	FFR_REC_WORD	wordpools/wasnorm_wordpool_less_exclusions.txt	LTP231	ltpFR	9	n/a	0	COLLAR	345	n/a	n/a	0	n/a	0	0	0	n/a	n/a	n/a	n/a	n/a
3507929	FFR_REC_WORD	wordpools/wasnorm_wordpool_less_exclusions.txt	LTP231	ltpFR	9	n/a	0	HIKER	708	n/a	n/a	1	n/a	0	0	0	n/a	n/a	n/a	n/a	n/a
3509226	FFR_REC_WORD	wordpools/wasnorm_wordpool_less_exclusions.txt	LTP231	ltpFR	9	n/a	0	KNAPSACK	783	n/a	n/a	0	n/a	0	0	0	n/a	n/a	n/a	n/a	n/a
3510453	FFR_REC_WORD	wordpools/wasnorm_wordpool_less_exclusions.txt	LTP231	ltpFR	9	n/a	0	TROPHY	1509	n/a	n/a	0	n/a	0	0	0	n/a	n/a	n/a	n/a	n/a
3511486	FFR_REC_WORD	wordpools/wasnorm_wordpool_less_exclusions.txt	LTP231	ltpFR	9	n/a	0	AWARD	63	n/a	n/a	0	n/a	0	0	0	n/a	n/a	n/a	n/a	n/a
3512891	FFR_REC_WORD	wordpools/wasnorm_wordpool_less_exclusions.txt	LTP231	ltpFR	9	n/a	0	FACE	547	n/a	n/a	0	n/a	0	0	0	n/a	n/a	n/a	n/a	n/a
3514424	FFR_REC_WORD	wordpools/wasnorm_wordpool_less_exclusions.txt	LTP231	ltpFR	9	n/a	0	FRIES	607	n/a	n/a	0	n/a	0	0	0	n/a	n/a	n/a	n/a	n/a
3516335	FFR_REC_WORD	wordpools/wasnorm_wordpool_less_exclusions.txt	LTP231	ltpFR	9	n/a	0	ESCALATOR	539	n/a	n/a	1	n/a	0	0	0	n/a	n/a	n/a	n/a	n/a
3521344	FFR_REC_WORD	wordpools/wasnorm_wordpool_less_exclusions.txt	LTP231	ltpFR	9	n/a	0	BINDER	127	n/a	n/a	1	n/a	0	0	0	n/a	n/a	n/a	n/a	n/a
3522241	FFR_REC_WORD	wordpools/wasnorm_wordpool_less_exclusions.txt	LTP231	ltpFR	9	n/a	0	EDITORIAL	517	n/a	n/a	1	n/a	0	0	0	n/a	n/a	n/a	n/a	n/a
3561742	FFR_REC_WORD	wordpools/wasnorm_wordpool_less_exclusions.txt	LTP231	ltpFR	9	n/a	1	HAMMOCK	681	n/a	n/a	0	n/a	0	0	0	n/a	n/a	n/a	n/a	n/a
3564241	FFR_REC_WORD	wordpools/wasnorm_wordpool_less_exclusions.txt	LTP231	ltpFR	9	n/a	1	COLONEL	348	n/a	n/a	1	n/a	0	0	0	n/a	n/a	n/a	n/a	n/a
3566431	FFR_REC_WORD	wordpools/wasnorm_wordpool_less_exclusions.txt	LTP231	ltpFR	9	n/a	1	ZOO	1637	n/a	n/a	0	n/a	0	0	0	n/a	n/a	n/a	n/a	n/a
3568507	FFR_REC_WORD	wordpools/wasnorm_wordpool_less_exclusions.txt	LTP231	ltpFR	9	n/a	1	PRIMATE	1123	n/a	n/a	1	n/a	0	0	0	n/a	n/a	n/a	n/a	n/a
3570861	FFR_REC_WORD	wordpools/wasnorm_wordpool_less_exclusions.txt	LTP231	ltpFR	9	n/a	1	PERSON	1052	n/a	n/a	1	n/a	0	0	0	n/a	n/a	n/a	n/a	n/a
3577950	FFR_REC_WORD	wordpools/wasnorm_wordpool_less_exclusions.txt	LTP231	ltpFR	9	n/a	1	HOSTESS	723	n/a	n/a	1	n/a	0	0	0	n/a	n/a	n/a	n/a	n/a
3581163	FFR_REC_WORD	wordpools/wasnorm_wordpool_less_exclusions.txt	LTP231	ltpFR	9	n/a	1	CAP	236	n/a	n/a	0	n/a	0	0	0	n/a	n/a	n/a	n/a	n/a
3592367	FFR_REC_WORD	wordpools/wasnorm_wordpool_less_exclusions.txt	LTP231	ltpFR	9	n/a	0	PLIERS	1089	n/a	n/a	0	n/a	0	0	0	n/a	n/a	n/a	n/a	n/a
3597037	FFR_REC_WORD	wordpools/wasnorm_wordpool_less_exclusions.txt	LTP231	ltpFR	9	n/a	0	HAMPER	682	n/a	n/a	1	n/a	0	0	0	n/a	n/a	n/a	n/a	n/a
3607049	FFR_REC_WORD	wordpools/wasnorm_wordpool_less_exclusions.txt	LTP231	ltpFR	9	n/a	1	CROCODILE	411	n/a	n/a	1	n/a	0	0	0	n/a	n/a	n/a	n/a	n/a
3613454	FFR_REC_WORD	wordpools/wasnorm_wordpool_less_exclusions.txt	LTP231	ltpFR	9	n/a	0	SNAKE	1333	n/a	n/a	0	n/a	0	0	0	n/a	n/a	n/a	n/a	n/a
3651947	FFR_REC_WORD	wordpools/wasnorm_wordpool_less_exclusions.txt	LTP231	ltpFR	9	n/a	0	CLOTHES	327	n/a	n/a	0	n/a	0	0	0	n/a	n/a	n/a	n/a	n/a
3653139	FFR_REC_WORD	wordpools/wasnorm_wordpool_less_exclusions.txt	LTP231	ltpFR	9	n/a	1	TUXEDO	1525	n/a	n/a	0	n/a	0	0	0	n/a	n/a	n/a	n/a	n/a
3775391	FFR_REC_WORD	wordpools/wasnorm_wordpool_less_exclusions.txt	LTP231	ltpFR	9	n/a	0	CHIEF	298	n/a	n/a	1	n/a	0	0	0	n/a	n/a	n/a	n/a	n/a
3776259	FFR_REC_WORD	wordpools/wasnorm_wordpool_less_exclusions.txt	LTP231	ltpFR	9	n/a	0	CHEF	290	n/a	n/a	1	n/a	0	0	0	n/a	n/a	n/a	n/a	n/a
3778439	FFR_REC_WORD	wordpools/wasnorm_wordpool_less_exclusions.txt	LTP231	ltpFR	9	n/a	0	APRON	35	n/a	n/a	0	n/a	0	0	0	n/a	n/a	n/a	n/a	n/a
3842068	REC_START	n/a	LTP231	ltpFR	9	1	n/a	n/a	n/a	n/a	n/a	n/a	n/a	0	0	0	n/a	n/a	n/a	n/a	n/a
3842117	RECOG_TARGET	n/a	LTP231	ltpFR	9	1	0	VALLEY	1545	1	4	1	n/a	0	0	0	n/a	n/a	n/a	n/a	n/a
3844332	RECOG_RESP	n/a	LTP231	ltpFR	9	1	0	VALLEY	1545	1	n/a	1	n/a	0	0	0	n/a	n/a	n/a	n/a	n/a
3846523	RECOG_CONF	n/a	LTP231	ltpFR	9	1	0	VALLEY	1545	n/a	4	1	n/a	0	0	0	n/a	n/a	n/a	n/a	n/a
3848809	RECOG_TARGET	n/a	LTP231	ltpFR	9	1	1	POLITICIAN	1099	1	4	1	n/a	0	0	0	n/a	n/a	n/a	n/a	n/a
3849701	RECOG_RESP	n/a	LTP231	ltpFR	9	1	1	POLITICIAN	1099	1	n/a	1	n/a	0	0	0	n/a	n/a	n/a	n/a	n/a
3851731	RECOG_CONF	n/a	LTP231	ltpFR	9	1	1	POLITICIAN	1099	n/a	4	1	n/a	0	0	0	n/a	n/a	n/a	n/a	n/a
3853795	RECOG_TARGET	n/a	LTP231	ltpFR	9	1	0	TROPHY	1509	1	4	0	n/a	0	0	0	n/a	n/a	n/a	n/a	n/a
3854689	RECOG_RESP	n/a	LTP231	ltpFR	9	1	0	TROPHY	1509	1	n/a	0	n/a	0	0	0	n/a	n/a	n/a	n/a	n/a
3856466	RECOG_CONF	n/a	LTP231	ltpFR	9	1	0	TROPHY	1509	n/a	4	0	n/a	0	0	0	n/a	n/a	n/a	n/a	n/a
3858579	RECOG_TARGET	n/a	LTP231	ltpFR	9	1	0	ACTOR	5	0	3	1	n/a	0	0	0	n/a	n/a	n/a	n/a	n/a
3861259	RECOG_RESP	n/a	LTP231	ltpFR	9	1	0	ACTOR	5	0	n/a	1	n/a	0	0	0	n/a	n/a	n/a	n/a	n/a
3862694	RECOG_CONF	n/a	LTP231	ltpFR	9	1	0	ACTOR	5	n/a	3	1	n/a	0	0	0	n/a	n/a	n/a	n/a	n/a
3865087	RECOG_TARGET	n/a	LTP231	ltpFR	9	1	0	SPARROW	1347	1	4	0	n/a	0	0	0	n/a	n/a	n/a	n/a	n/a
3865921	RECOG_RESP	n/a	LTP231	ltpFR	9	1	0	SPARROW	1347	1	n/a	0	n/a	0	0	0	n/a	n/a	n/a	n/a	n/a
3867452	RECOG_CONF	n/a	LTP231	ltpFR	9	1	0	SPARROW	1347	n/a	4	0	n/a	0	0	0	n/a	n/a	n/a	n/a	n/a
3869554	RECOG_TARGET	n/a	LTP231	ltpFR	9	1	0	BINDER	127	1	4	1	n/a	0	0	0	n/a	n/a	n/a	n/a	n/a
3870398	RECOG_RESP	n/a	LTP231	ltpFR	9	1	0	BINDER	127	1	n/a	1	n/a	0	0	0	n/a	n/a	n/a	n/a	n/a
3871885	RECOG_CONF	n/a	LTP231	ltpFR	9	1	0	BINDER	127	n/a	4	1	n/a	0	0	0	n/a	n/a	n/a	n/a	n/a
3873917	RECOG_TARGET	n/a	LTP231	ltpFR	9	1	0	WELL	1600	1	4	1	n/a	0	0	0	n/a	n/a	n/a	n/a	n/a
3874785	RECOG_RESP	n/a	LTP231	ltpFR	9	1	0	WELL	1600	1	n/a	1	n/a	0	0	0	n/a	n/a	n/a	n/a	n/a
3876325	RECOG_CONF	n/a	LTP231	ltpFR	9	1	0	WELL	1600	n/a	4	1	n/a	0	0	0	n/a	n/a	n/a	n/a	n/a
3878386	RECOG_TARGET	n/a	LTP231	ltpFR	9	1	1	COLONEL	348	1	4	1	n/a	0	0	0	n/a	n/a	n/a	n/a	n/a
3881159	RECOG_RESP	n/a	LTP231	ltpFR	9	1	1	COLONEL	348	1	n/a	1	n/a	0	0	0	n/a	n/a	n/a	n/a	n/a
3883169	RECOG_CONF	n/a	LTP231	ltpFR	9	1	1	COLONEL	348	n/a	4	1	n/a	0	0	0	n/a	n/a	n/a	n/a	n/a
3885426	RECOG_LURE	n/a	LTP231	ltpFR	9	1	n/a	GATE	625	0	2	n/a	n/a	0	0	0	n/a	n/a	n/a	n/a	n/a
3887221	RECOG_RESP	n/a	LTP231	ltpFR	9	1	n/a	GATE	625	0	n/a	n/a	n/a	0	0	0	n/a	n/a	n/a	n/a	n/a
3888845	RECOG_CONF	n/a	LTP231	ltpFR	9	1	n/a	GATE	625	n/a	2	n/a	n/a	0	0	0	n/a	n/a	n/a	n/a	n/a
3891018	RECOG_LURE	n/a	LTP231	ltpFR	9	1	n/a	DOORBELL	487	0	3	n/a	n/a	0	0	0	n/a	n/a	n/a	n/a	n/a
3892638	RECOG_RESP	n/a	LTP231	ltpFR	9	1	n/a	DOORBELL	487	0	n/a	n/a	n/a	0	0	0	n/a	n/a	n/a	n/a	n/a
3894150	RECOG_CONF	n/a	LTP231	ltpFR	9	1	n/a	DOORBELL	487	n/a	3	n/a	n/a	0	0	0	n/a	n/a	n/a	n/a	n/a
3896154	RECOG_TARGET	n/a	LTP231	ltpFR	9	1	1	VET	1560	1	4	1	n/a	0	0	0	n/a	n/a	n/a	n/a	n/a
3897034	RECOG_RESP	n/a	LTP231	ltpFR	9	1	1	VET	1560	1	n/a	1	n/a	0	0	0	n/a	n/a	n/a	n/a	n/a
3898425	RECOG_CONF	n/a	LTP231	ltpFR	9	1	1	VET	1560	n/a	4	1	n/a	0	0	0	n/a	n/a	n/a	n/a	n/a
3900216	RECOG_LURE	n/a	LTP231	ltpFR	9	1	n/a	BASSINET	97	0	5	n/a	n/a	0	0	0	n/a	n/a	n/a	n/a	n/a
3903332	RECOG_RESP	n/a	LTP231	ltpFR	9	1	n/a	BASSINET	97	0	n/a	n/a	n/a	0	0	0	n/a	n/a	n/a	n/a	n/a
3904690	RECOG_CONF	n/a	LTP231	ltpFR	9	1	n/a	BASSINET	97	n/a	5	n/a	n/a	0	0	0	n/a	n/a	n/a	n/a	n/a
3906811	RECOG_TARGET	n/a	LTP231	ltpFR	9	1	1	GAZELLE	628	1	4	1	n/a	0	0	0	n/a	n/a	n/a	n/a	n/a
3907721	RECOG_RESP	n/a	LTP231	ltpFR	9	1	1	GAZELLE	628	1	n/a	1	n/a	0	0	0	n/a	n/a	n/a	n/a	n/a
3908922	RECOG_CONF	n/a	LTP231	ltpFR	9	1	1	GAZELLE	628	n/a	4	1	n/a	0	0	0	n/a	n/a	n/a	n/a	n/a
3911027	RECOG_TARGET	n/a	LTP231	ltpFR	9	1	0	DYNAMITE	511	1	4	1	n/a	0	0	0	n/a	n/a	n/a	n/a	n/a
3912021	RECOG_RESP	n/a	LTP231	ltpFR	9	1	0	DYNAMITE	511	1	n/a	1	n/a	0	0	0	n/a	n/a	n/a	n/a	n/a
3913431	RECOG_CONF	n/a	LTP231	ltpFR	9	1	0	DYNAMITE	511	n/a	4	1	n/a	0	0	0	n/a	n/a	n/a	n/a	n/a
3915443	RECOG_TARGET	n/a	LTP231	ltpFR	9	1	0	PIE	1062	1	4	0	n/a	0	0	0	n/a	n/a	n/a	n/a	n/a
3916348	RECOG_RESP	n/a	LTP231	ltpFR	9	1	0	PIE	1062	1	n/a	0	n/a	0	0	0	n/a	n/a	n/a	n/a	n/a
3917561	RECOG_CONF	n/a	LTP231	ltpFR	9	1	0	PIE	1062	n/a	4	0	n/a	0	0	0	n/a	n/a	n/a	n/a	n/a
3919626	RECOG_LURE	n/a	LTP231	ltpFR	9	1	n/a	PERFUME	1049	0	4	n/a	n/a	0	0	0	n/a	n/a	n/a	n/a	n/a
3920670	RECOG_RESP	n/a	LTP231	ltpFR	9	1	n/a	PERFUME	1049	0	n/a	n/a	n/a	0	0	0	n/a	n/a	n/a	n/a	n/a
3921891	RECOG_CONF	n/a	LTP231	ltpFR	9	1	n/a	PERFUME	1049	n/a	4	n/a	n/a	0	0	0	n/a	n/a	n/a	n/a	n/a
3923926	RECOG_LURE	n/a	LTP231	ltpFR	9	1	n/a	PEACH	1031	0	3	n/a	n/a	0	0	0	n/a	n/a	n/a	n/a	n/a
3925466	RECOG_RESP	n/a	LTP231	ltpFR	9	1	n/a	PEACH	1031	0	n/a	n/a	n/a	0	0	0	n/a	n/a	n/a	n/a	n/a
3926601	RECOG_CONF	n/a	LTP231	ltpFR	9	1	n/a	PEACH	1031	n/a	3	n/a	n/a	0	0	0	n/a	n/a	n/a	n/a	n/a
3928593	RECOG_TARGET	n/a	LTP231	ltpFR	9	1	1	ARENA	37	1	2	0	n/a	0	0	0	n/a	n/a	n/a	n/a	n/a
3929614	RECOG_RESP	n/a	LTP231	ltpFR	9	1	1	ARENA	37	1	n/a	0	n/a	0	0	0	n/a	n/a	n/a	n/a	n/a
3930756	RECOG_CONF	n/a	LTP231	ltpFR	9	1	1	ARENA	37	n/a	2	0	n/a	0	0	0	n/a	n/a	n/a	n/a	n/a
3932625	RECOG_TARGET	n/a	LTP231	ltpFR	9	1	0	ANTEATER	26	1	2	1	n/a	0	0	0	n/a	n/a	n/a	n/a	n/a
3933663	RECOG_RESP	n/a	LTP231	ltpFR	9	1	0	ANTEATER	26	1	n/a	1	n/a	0	0	0	n/a	n/a	n/a	n/a	n/a
3934967	RECOG_CONF	n/a	LTP231	ltpFR	9	1	0	ANTEATER	26	n/a	2	1	n/a	0	0	0	n/a	n/a	n/a	n/a	n/a
3936941	RECOG_TARGET	n/a	LTP231	ltpFR	9	1	0	MOLECULE	905	1	1	0	n/a	0	0	0	n/a	n/a	n/a	n/a	n/a
3938164	RECOG_RESP	n/a	LTP231	ltpFR	9	1	0	MOLECULE	905	1	n/a	0	n/a	0	0	0	n/a	n/a	n/a	n/a	n/a
3939413	RECOG_CONF	n/a	LTP231	ltpFR	9	1	0	MOLECULE	905	n/a	1	0	n/a	0	0	0	n/a	n/a	n/a	n/a	n/a
3949120	REC_START	n/a	LTP231	ltpFR	9	2	n/a	n/a	n/a	n/a	n/a	n/a	n/a	0	0	0	n/a	n/a	n/a	n/a	n/a
3949171	RECOG_TARGET	n/a	LTP231	ltpFR	9	2	1	HOSTESS	723	1	3	1	n/a	0	0	0	n/a	n/a	n/a	n/a	n/a
3950156	RECOG_RESP	n/a	LTP231	ltpFR	9	2	1	HOSTESS	723	1	n/a	1	n/a	0	0	0	n/a	n/a	n/a	n/a	n/a
3951659	RECOG_CONF	n/a	LTP231	ltpFR	9	2	1	HOSTESS	723	n/a	3	1	n/a	0	0	0	n/a	n/a	n/a	n/a	n/a
3953671	RECOG_TARGET	n/a	LTP231	ltpFR	9	2	1	ANT	25	1	4	0	n/a	0	0	0	n/a	n/a	n/a	n/a	n/a
3954458	RECOG_RESP	n/a	LTP231	ltpFR	9	2	1	ANT	25	1	n/a	0	n/a	0	0	0	n/a	n/a	n/a	n/a	n/a
3955793	RECOG_CONF	n/a	LTP231	ltpFR	9	2	1	ANT	25	n/a	4	0	n/a	0	0	0	n/a	n/a	n/a	n/a	n/a
3957954	RECOG_TARGET	n/a	LTP231	ltpFR	9	2	1	WHEEL	1603	1	2	0	n/a	0	0	0	n/a	n/a	n/a	n/a	n/a
3958877	RECOG_RESP	n/a	LTP231	ltpFR	9	2	1	WHEEL	1603	1	n/a	0	n/a	0	0	0	n/a	n/a	n/a	n/a	n/a
3960298	RECOG_CONF	n/a	LTP231	ltpFR	9	2	1	WHEEL	1603	n/a	2	0	n/a	0	0	0	n/a	n/a	n/a	n/a	n/a
3962420	RECOG_TARGET	n/a	LTP231	ltpFR	9	2	0	PLIERS	1089	1	3	0	n/a	0	0	0	n/a	n/a	n/a	n/a	n/a
3964276	RECOG_RESP	n/a	LTP231	ltpFR	9	2	0	PLIERS	1089	1	n/a	0	n/a	0	0	0	n/a	n/a	n/a	n/a	n/a
3965570	RECOG_CONF	n/a	LTP231	ltpFR	9	2	0	PLIERS	1089	n/a	3	0	n/a	0	0	0	n/a	n/a	n/a	n/a	n/a
3967670	RECOG_LURE	n/a	LTP231	ltpFR	9	2	n/a	BLACKBOARD	133	0	5	n/a	n/a	0	0	0	n/a	n/a	n/a	n/a	n/a
3968578	RECOG_RESP	n/a	LTP231	ltpFR	9	2	n/a	BLACKBOARD	133	0	n/a	n/a	n/a	0	0	0	n/a	n/a	n/a	n/a	n/a
3969750	RECOG_CONF	n/a	LTP231	ltpFR	9	2	n/a	BLACKBOARD	133	n/a	5	n/a	n/a	0	0	0	n/a	n/a	n/a	n/a	n/a
3971685	RECOG_TARGET	n/a	LTP231	ltpFR	9	2	1	TURKEY	1520	1	3	1	n/a	0	0	0	n/a	n/a	n/a	n/a	n/a
3972634	RECOG_RESP	n/a	LTP231	ltpFR	9	2	1	TURKEY	1520	1	n/a	1	n/a	0	0	0	n/a	n/a	n/a	n/a	n/a
3973881	RECOG_CONF	n/a	LTP231	ltpFR	9	2	1	TURKEY	1520	n/a	3	1	n/a	0	0	0	n/a	n/a	n/a	n/a	n/a
3975905	RECOG_TARGET	n/a	LTP231	ltpFR	9	2	1	TUXEDO	1525	1	2	0	n/a	0	0	0	n/a	n/a	n/a	n/a	n/a
3976639	RECOG_RESP	n/a	LTP231	ltpFR	9	2	1	TUXEDO	1525	1	n/a	0	n/a	0	0	0	n/a	n/a	n/a	n/a	n/a
3977947	RECOG_CONF	n/a	LTP231	ltpFR	9	2	1	TUXEDO	1525	n/a	2	0	n/a	0	0	0	n/a	n/a	n/a	n/a	n/a
3979987	RECOG_LURE	n/a	LTP231	ltpFR	9	2	n/a	ESSAY	540	1	1	n/a	n/a	0	0	0	n/a	n/a	n/a	n/a	n/a
3980728	RECOG_RESP	n/a	LTP231	ltpFR	9	2	n/a	ESSAY	540	1	n/a	n/a	n/a	0	0	0	n/a	n/a	n/a	n/a	n/a
3982834	RECOG_CONF	n/a	LTP231	ltpFR	9	2	n/a	ESSAY	540	n/a	1	n/a	n/a	0	0	0	n/a	n/a	n/a	n/a	n/a
3984889	RECOG_LURE	n/a	LTP231	ltpFR	9	2	n/a	ROUGE	1213	0	4	n/a	n/a	0	0	0	n/a	n/a	n/a	n/a	n/a
3986066	RECOG_RESP	n/a	LTP231	ltpFR	9	2	n/a	ROUGE	1213	0	n/a	n/a	n/a	0	0	0	n/a	n/a	n/a	n/a	n/a
3987348	RECOG_CONF	n/a	LTP231	ltpFR	9	2	n/a	ROUGE	1213	n/a	4	n/a	n/a	0	0	0	n/a	n/a	n/a	n/a	n/a
3989138	RECOG_TARGET	n/a	LTP231	ltpFR	9	2	1	OX	994	1	4	1	n/a	0	0	0	n/a	n/a	n/a	n/a	n/a
3989959	RECOG_RESP	n/a	LTP231	ltpFR	9	2	1	OX	994	1	n/a	1	n/a	0	0	0	n/a	n/a	n/a	n/a	n/a
3991049	RECOG_CONF	n/a	LTP231	ltpFR	9	2	1	OX	994	n/a	4	1	n/a	0	0	0	n/a	n/a	n/a	n/a	n/a
3993070	RECOG_TARGET	n/a	LTP231	ltpFR	9	2	1	STORE	1387	1	4	0	n/a	0	0	0	n/a	n/a	n/a	n/a	n/a
3994057	RECOG_RESP	n/a	LTP231	ltpFR	9	2	1	STORE	1387	1	n/a	0	n/a	0	0	0	n/a	n/a	n/a	n/a	n/a
3995147	RECOG_CONF	n/a	LTP231	ltpFR	9	2	1	STORE	1387	n/a	4	0	n/a	0	0	0	n/a	n/a	n/a	n/a	n/a
3997448	RECOG_TARGET	n/a	LTP231	ltpFR	9	2	0	COYOTE	396	1	4	1	n/a	0	0	0	n/a	n/a	n/a	n/a	n/a
3998128	RECOG_RESP	n/a	LTP231	ltpFR	9	2	0	COYOTE	396	1	n/a	1	n/a	0	0	0	n/a	n/a	n/a	n/a	n/a
3999256	RECOG_CONF	n/a	LTP231	ltpFR	9	2	0	COYOTE	396	n/a	4	1	n/a	0	0	0	n/a	n/a	n/a	n/a	n/a
4001463	RECOG_TARGET	n/a	LTP231	ltpFR	9	2	0	ANIMAL	23	1	3	0	n/a	0	0	0	n/a	n/a	n/a	n/a	n/a
4002191	RECOG_RESP	n/a	LTP231	ltpFR	9	2	0	ANIMAL	23	1	n/a	0	n/a	0	0	0	n/a	n/a	n/a	n/a	n/a
4003521	RECOG_CONF	n/a	LTP231	ltpFR	9	2	0	ANIMAL	23	n/a	3	0	n/a	0	0	0	n/a	n/a	n/a	n/a	n/a
4005449	RECOG_TARGET	n/a	LTP231	ltpFR	9	2	1	CROW	414	1	4	1	n/a	0	0	0	n/a	n/a	n/a	n/a	n/a
4006432	RECOG_RESP	n/a	LTP231	ltpFR	9	2	1	CROW	414	1	n/a	1	n/a	0	0	0	n/a	n/a	n/a	n/a	n/a
4007652	RECOG_CONF	n/a	LTP231	ltpFR	9	2	1	CROW	414	n/a	4	1	n/a	0	0	0	n/a	n/a	n/a	n/a	n/a
4009649	RECOG_TARGET	n/a	LTP231	ltpFR	9	2	1	BATTERY	101	1	4	0	n/a	0	0	0	n/a	n/a	n/a	n/a	n/a
4010335	RECOG_RESP	n/a	LTP231	ltpFR	9	2	1	BATTERY	101	1	n/a	0	n/a	0	0	0	n/a	n/a	n/a	n/a	n/a
4012351	RECOG_CONF	n/a	LTP231	ltpFR	9	2	1	BATTERY	101	n/a	4	0	n/a	0	0	0	n/a	n/a	n/a	n/a	n/a
