mstime	trial_type	stim_file	subject	experiment	session	trial	item_name	item_num	list	answer	test_x	test_y	test_z
0	SESS_START	n/a	LTP347	ltpFR2	1	n/a	n/a	n/a	n/a	n/a	0	0	0
49797	START	n/a	LTP347	ltpFR2	1	n/a	n/a	n/a	-1	n/a	n/a	n/a	n/a
49811	PROB	n/a	LTP347	ltpFR2	1	n/a	n/a	n/a	-1	1	4	7	7
52093	PROB	n/a	LTP347	ltpFR2	1	n/a	n/a	n/a	-1	6	2	3	1
53344	PROB	n/a	LTP347	ltpFR2	1	n/a	n/a	n/a	-1	26	8	8	9
55360	PROB	n/a	LTP347	ltpFR2	1	n/a	n/a	n/a	-1	14	5	4	5
56725	PROB	n/a	LTP347	ltpFR2	1	n/a	n/a	n/a	-1	10	8	1	1
57991	PROB	n/a	LTP347	ltpFR2	1	n/a	n/a	n/a	-1	16	6	3	7
59673	PROB	n/a	LTP347	ltpFR2	1	n/a	n/a	n/a	-1	18	5	7	6
61609	STOP	n/a	LTP347	ltpFR2	1	n/a	n/a	n/a	-1	n/a	n/a	n/a	n/a
127942	WORD	wordpools/wasnorm_wordpool_576.txt	LTP347	ltpFR2	1	1	UNCLE	1536	n/a	n/a	0	0	0
130476	WORD	wordpools/wasnorm_wordpool_576.txt	LTP347	ltpFR2	1	1	LABEL	790	n/a	n/a	0	0	0
132923	WORD	wordpools/wasnorm_wordpool_576.txt	LTP347	ltpFR2	1	1	GANGSTER	620	n/a	n/a	0	0	0
135473	WORD	wordpools/wasnorm_wordpool_576.txt	LTP347	ltpFR2	1	1	VALLEY	1545	n/a	n/a	0	0	0
137938	WORD	wordpools/wasnorm_wordpool_576.txt	LTP347	ltpFR2	1	1	PIGEON	1065	n/a	n/a	0	0	0
140653	WORD	wordpools/wasnorm_wordpool_576.txt	LTP347	ltpFR2	1	1	DANDRUFF	439	n/a	n/a	0	0	0
143136	WORD	wordpools/wasnorm_wordpool_576.txt	LTP347	ltpFR2	1	1	LAVA	804	n/a	n/a	0	0	0
145585	WORD	wordpools/wasnorm_wordpool_576.txt	LTP347	ltpFR2	1	1	HAWK	692	n/a	n/a	0	0	0
148067	WORD	wordpools/wasnorm_wordpool_576.txt	LTP347	ltpFR2	1	1	BOARD	143	n/a	n/a	0	0	0
150749	WORD	wordpools/wasnorm_wordpool_576.txt	LTP347	ltpFR2	1	1	WRENCH	1625	n/a	n/a	0	0	0
153249	WORD	wordpools/wasnorm_wordpool_576.txt	LTP347	ltpFR2	1	1	SLOPE	1328	n/a	n/a	0	0	0
156046	WORD	wordpools/wasnorm_wordpool_576.txt	LTP347	ltpFR2	1	1	SUMMIT	1405	n/a	n/a	0	0	0
158579	WORD	wordpools/wasnorm_wordpool_576.txt	LTP347	ltpFR2	1	1	YACHT	1629	n/a	n/a	0	0	0
161177	WORD	wordpools/wasnorm_wordpool_576.txt	LTP347	ltpFR2	1	1	VELVET	1555	n/a	n/a	0	0	0
163859	WORD	wordpools/wasnorm_wordpool_576.txt	LTP347	ltpFR2	1	1	CHILD	299	n/a	n/a	0	0	0
166309	WORD	wordpools/wasnorm_wordpool_576.txt	LTP347	ltpFR2	1	1	GYMNAST	675	n/a	n/a	0	0	0
168941	WORD	wordpools/wasnorm_wordpool_576.txt	LTP347	ltpFR2	1	1	JUGGLER	763	n/a	n/a	0	0	0
171656	WORD	wordpools/wasnorm_wordpool_576.txt	LTP347	ltpFR2	1	1	CARRIAGE	248	n/a	n/a	0	0	0
174088	WORD	wordpools/wasnorm_wordpool_576.txt	LTP347	ltpFR2	1	1	CRATER	400	n/a	n/a	0	0	0
176870	WORD	wordpools/wasnorm_wordpool_576.txt	LTP347	ltpFR2	1	1	FOX	598	n/a	n/a	0	0	0
179387	WORD	wordpools/wasnorm_wordpool_576.txt	LTP347	ltpFR2	1	1	TRIBE	1505	n/a	n/a	0	0	0
182168	WORD	wordpools/wasnorm_wordpool_576.txt	LTP347	ltpFR2	1	1	COUSIN	392	n/a	n/a	0	0	0
184767	WORD	wordpools/wasnorm_wordpool_576.txt	LTP347	ltpFR2	1	1	SISTER	1312	n/a	n/a	0	0	0
187333	WORD	wordpools/wasnorm_wordpool_576.txt	LTP347	ltpFR2	1	1	DONOR	485	n/a	n/a	0	0	0
188948	START	n/a	LTP347	ltpFR2	1	n/a	n/a	n/a	1	n/a	n/a	n/a	n/a
189838	DISTRACTOR	n/a	LTP347	ltpFR2	1	1	n/a	n/a	n/a	n/a	0	0	0
189848	PROB	n/a	LTP347	ltpFR2	1	n/a	n/a	n/a	1	20	6	7	7
191415	PROB	n/a	LTP347	ltpFR2	1	n/a	n/a	n/a	1	5	1	3	1
192414	PROB	n/a	LTP347	ltpFR2	1	n/a	n/a	n/a	1	26	8	8	9
194079	PROB	n/a	LTP347	ltpFR2	1	n/a	n/a	n/a	1	13	2	5	6
195745	PROB	n/a	LTP347	ltpFR2	1	n/a	n/a	n/a	1	14	4	1	9
198295	PROB	n/a	LTP347	ltpFR2	1	n/a	n/a	n/a	1	14	5	4	5
199478	PROB	n/a	LTP347	ltpFR2	1	n/a	n/a	n/a	1	13	1	7	5
201577	PROB	n/a	LTP347	ltpFR2	1	n/a	n/a	n/a	1	16	8	1	7
203343	PROB	n/a	LTP347	ltpFR2	1	n/a	n/a	n/a	1	14	1	7	6
204708	PROB	n/a	LTP347	ltpFR2	1	n/a	n/a	n/a	1	12	6	2	3
206358	PROB	n/a	LTP347	ltpFR2	1	n/a	n/a	n/a	1	15	9	3	3
207973	PROB	n/a	LTP347	ltpFR2	1	n/a	n/a	n/a	1	23	7	7	8
210339	PROB	n/a	LTP347	ltpFR2	1	n/a	n/a	n/a	1	15	5	4	6
212021	STOP	n/a	LTP347	ltpFR2	1	n/a	n/a	n/a	1	n/a	n/a	n/a	n/a
214863	REC_START	n/a	LTP347	ltpFR2	1	1	n/a	n/a	n/a	n/a	0	0	0
217483	REC_WORD	wordpools/wasnorm_wordpool_576.txt	LTP347	ltpFR2	1	1	UNCLE	1536	n/a	n/a	0	0	0
218540	REC_WORD	wordpools/wasnorm_wordpool_576.txt	LTP347	ltpFR2	1	1	LABEL	790	n/a	n/a	0	0	0
220094	REC_WORD	wordpools/wasnorm_wordpool_576.txt	LTP347	ltpFR2	1	1	GANGSTER	620	n/a	n/a	0	0	0
221409	REC_WORD	wordpools/wasnorm_wordpool_576.txt	LTP347	ltpFR2	1	1	VALLEY	1545	n/a	n/a	0	0	0
223527	REC_WORD	wordpools/wasnorm_wordpool_576.txt	LTP347	ltpFR2	1	1	LAVA	804	n/a	n/a	0	0	0
225607	REC_WORD	wordpools/wasnorm_wordpool_576.txt	LTP347	ltpFR2	1	1	WRENCH	1625	n/a	n/a	0	0	0
226982	REC_WORD	wordpools/wasnorm_wordpool_576.txt	LTP347	ltpFR2	1	1	SLOPE	1328	n/a	n/a	0	0	0
233475	REC_WORD	wordpools/wasnorm_wordpool_576.txt	LTP347	ltpFR2	1	1	SUMMIT	1405	n/a	n/a	0	0	0
240360	REC_WORD	wordpools/wasnorm_wordpool_576.txt	LTP347	ltpFR2	1	1	YACHT	1629	n/a	n/a	0	0	0
241833	REC_WORD	wordpools/wasnorm_wordpool_576.txt	LTP347	ltpFR2	1	1	VELVET	1555	n/a	n/a	0	0	0
243393	REC_WORD	wordpools/wasnorm_wordpool_576.txt	LTP347	ltpFR2	1	1	CHILD	299	n/a	n/a	0	0	0
245187	REC_WORD	wordpools/wasnorm_wordpool_576.txt	LTP347	ltpFR2	1	1	GYMNAST	675	n/a	n/a	0	0	0
247809	REC_WORD	wordpools/wasnorm_wordpool_576.txt	LTP347	ltpFR2	1	1	JUGGLER	763	n/a	n/a	0	0	0
249995	REC_WORD	wordpools/wasnorm_wordpool_576.txt	LTP347	ltpFR2	1	1	PIGEON	1065	n/a	n/a	0	0	0
250946	REC_WORD	wordpools/wasnorm_wordpool_576.txt	LTP347	ltpFR2	1	1	EAGLE	512	n/a	n/a	0	0	0
252551	REC_WORD	wordpools/wasnorm_wordpool_576.txt	LTP347	ltpFR2	1	1	DANDRUFF	439	n/a	n/a	0	0	0
254627	REC_WORD	wordpools/wasnorm_wordpool_576.txt	LTP347	ltpFR2	1	1	CRATER	400	n/a	n/a	0	0	0
255164	REC_WORD	wordpools/wasnorm_wordpool_576.txt	LTP347	ltpFR2	1	1	FOX	598	n/a	n/a	0	0	0
256609	REC_WORD	wordpools/wasnorm_wordpool_576.txt	LTP347	ltpFR2	1	1	CARRIAGE	248	n/a	n/a	0	0	0
257723	REC_WORD	wordpools/wasnorm_wordpool_576.txt	LTP347	ltpFR2	1	1	COUSIN	392	n/a	n/a	0	0	0
259135	REC_WORD	wordpools/wasnorm_wordpool_576.txt	LTP347	ltpFR2	1	1	SISTER	1312	n/a	n/a	0	0	0
305280	DISTRACTOR	n/a	LTP347	ltpFR2	1	2	n/a	n/a	n/a	n/a	0	0	0
305280	START	n/a	LTP347	ltpFR2	1	n/a	n/a	n/a	2	n/a	n/a	n/a	n/a
305296	PROB	n/a	LTP347	ltpFR2	1	n/a	n/a	n/a	2	12	4	7	1
306728	PROB	n/a	LTP347	ltpFR2	1	n/a	n/a	n/a	2	14	2	3	9
308328	PROB	n/a	LTP347	ltpFR2	1	n/a	n/a	n/a	2	19	3	9	7
309528	PROB	n/a	LTP347	ltpFR2	1	n/a	n/a	n/a	2	24	4	7	7
311809	PROB	n/a	LTP347	ltpFR2	1	n/a	n/a	n/a	2	6	1	2	3
312859	PROB	n/a	LTP347	ltpFR2	1	n/a	n/a	n/a	2	13	4	2	7
314376	PROB	n/a	LTP347	ltpFR2	1	n/a	n/a	n/a	2	17	6	5	6
316541	PROB	n/a	LTP347	ltpFR2	1	n/a	n/a	n/a	2	8	1	2	5
317773	PROB	n/a	LTP347	ltpFR2	1	n/a	n/a	n/a	2	16	8	2	6
319072	PROB	n/a	LTP347	ltpFR2	1	n/a	n/a	n/a	2	9	2	5	2
320223	PROB	n/a	LTP347	ltpFR2	1	n/a	n/a	n/a	2	17	2	7	8
321921	PROB	n/a	LTP347	ltpFR2	1	n/a	n/a	n/a	2	4	1	2	1
322971	PROB	n/a	LTP347	ltpFR2	1	n/a	n/a	n/a	2	21	7	7	7
324187	PROB	n/a	LTP347	ltpFR2	1	n/a	n/a	n/a	2	11	2	3	6
325719	PROB	n/a	LTP347	ltpFR2	1	n/a	n/a	n/a	2	13	6	5	2
329280	STOP	n/a	LTP347	ltpFR2	1	n/a	n/a	n/a	2	n/a	n/a	n/a	n/a
330335	WORD	wordpools/wasnorm_wordpool_576.txt	LTP347	ltpFR2	1	2	SHRUB	1299	n/a	n/a	0	0	0
332933	WORD	wordpools/wasnorm_wordpool_576.txt	LTP347	ltpFR2	1	2	LIZARD	834	n/a	n/a	0	0	0
335549	WORD	wordpools/wasnorm_wordpool_576.txt	LTP347	ltpFR2	1	2	BROOK	177	n/a	n/a	0	0	0
338348	WORD	wordpools/wasnorm_wordpool_576.txt	LTP347	ltpFR2	1	2	RAFT	1159	n/a	n/a	0	0	0
341046	WORD	wordpools/wasnorm_wordpool_576.txt	LTP347	ltpFR2	1	2	APRON	35	n/a	n/a	0	0	0
343661	WORD	wordpools/wasnorm_wordpool_576.txt	LTP347	ltpFR2	1	2	STOVE	1388	n/a	n/a	0	0	0
346143	WORD	wordpools/wasnorm_wordpool_576.txt	LTP347	ltpFR2	1	2	YOLK	1633	n/a	n/a	0	0	0
348959	WORD	wordpools/wasnorm_wordpool_576.txt	LTP347	ltpFR2	1	2	BLOUSE	139	n/a	n/a	0	0	0
351609	WORD	wordpools/wasnorm_wordpool_576.txt	LTP347	ltpFR2	1	2	BIKE	125	n/a	n/a	0	0	0
354073	WORD	wordpools/wasnorm_wordpool_576.txt	LTP347	ltpFR2	1	2	RUST	1219	n/a	n/a	0	0	0
356556	WORD	wordpools/wasnorm_wordpool_576.txt	LTP347	ltpFR2	1	2	DONKEY	484	n/a	n/a	0	0	0
359004	WORD	wordpools/wasnorm_wordpool_576.txt	LTP347	ltpFR2	1	2	GRAPE	654	n/a	n/a	0	0	0
361488	WORD	wordpools/wasnorm_wordpool_576.txt	LTP347	ltpFR2	1	2	FOREST	593	n/a	n/a	0	0	0
364085	WORD	wordpools/wasnorm_wordpool_576.txt	LTP347	ltpFR2	1	2	MISTER	901	n/a	n/a	0	0	0
366751	WORD	wordpools/wasnorm_wordpool_576.txt	LTP347	ltpFR2	1	2	NOMAD	955	n/a	n/a	0	0	0
369301	WORD	wordpools/wasnorm_wordpool_576.txt	LTP347	ltpFR2	1	2	MILDEW	893	n/a	n/a	0	0	0
371915	WORD	wordpools/wasnorm_wordpool_576.txt	LTP347	ltpFR2	1	2	FLEET	578	n/a	n/a	0	0	0
374548	WORD	wordpools/wasnorm_wordpool_576.txt	LTP347	ltpFR2	1	2	MUFFIN	929	n/a	n/a	0	0	0
377129	WORD	wordpools/wasnorm_wordpool_576.txt	LTP347	ltpFR2	1	2	AIRPORT	13	n/a	n/a	0	0	0
379662	WORD	wordpools/wasnorm_wordpool_576.txt	LTP347	ltpFR2	1	2	JAPAN	749	n/a	n/a	0	0	0
382411	WORD	wordpools/wasnorm_wordpool_576.txt	LTP347	ltpFR2	1	2	CHAMPAGNE	278	n/a	n/a	0	0	0
384893	WORD	wordpools/wasnorm_wordpool_576.txt	LTP347	ltpFR2	1	2	LUNCH	849	n/a	n/a	0	0	0
387342	WORD	wordpools/wasnorm_wordpool_576.txt	LTP347	ltpFR2	1	2	ZEBRA	1635	n/a	n/a	0	0	0
390040	WORD	wordpools/wasnorm_wordpool_576.txt	LTP347	ltpFR2	1	2	LAKE	796	n/a	n/a	0	0	0
391656	START	n/a	LTP347	ltpFR2	1	n/a	n/a	n/a	3	n/a	n/a	n/a	n/a
392629	DISTRACTOR	n/a	LTP347	ltpFR2	1	2	n/a	n/a	n/a	n/a	0	0	0
392640	PROB	n/a	LTP347	ltpFR2	1	n/a	n/a	n/a	3	11	3	2	6
394655	PROB	n/a	LTP347	ltpFR2	1	n/a	n/a	n/a	3	15	3	7	5
395838	PROB	n/a	LTP347	ltpFR2	1	n/a	n/a	n/a	3	7	1	3	3
397054	PROB	n/a	LTP347	ltpFR2	1	n/a	n/a	n/a	3	18	8	1	9
398571	PROB	n/a	LTP347	ltpFR2	1	n/a	n/a	n/a	3	18	8	9	1
399836	PROB	n/a	LTP347	ltpFR2	1	n/a	n/a	n/a	3	12	3	2	7
401085	PROB	n/a	LTP347	ltpFR2	1	n/a	n/a	n/a	3	14	7	6	1
402636	PROB	n/a	LTP347	ltpFR2	1	n/a	n/a	n/a	3	18	9	8	1
404485	PROB	n/a	LTP347	ltpFR2	1	n/a	n/a	n/a	3	12	6	3	2
406016	PROB	n/a	LTP347	ltpFR2	1	n/a	n/a	n/a	3	22	8	5	9
408165	PROB	n/a	LTP347	ltpFR2	1	n/a	n/a	n/a	3	15	1	9	5
409333	PROB	n/a	LTP347	ltpFR2	1	n/a	n/a	n/a	3	15	1	8	6
411181	PROB	n/a	LTP347	ltpFR2	1	n/a	n/a	n/a	3	20	9	7	4
413063	PROB	n/a	LTP347	ltpFR2	1	n/a	n/a	n/a	3	17	1	9	7
414276	STOP	n/a	LTP347	ltpFR2	1	n/a	n/a	n/a	3	n/a	n/a	n/a	n/a
417496	REC_START	n/a	LTP347	ltpFR2	1	2	n/a	n/a	n/a	n/a	0	0	0
420025	REC_WORD	wordpools/wasnorm_wordpool_576.txt	LTP347	ltpFR2	1	2	SHRUB	1299	n/a	n/a	0	0	0
421695	REC_WORD	wordpools/wasnorm_wordpool_576.txt	LTP347	ltpFR2	1	2	LIZARD	834	n/a	n/a	0	0	0
423930	REC_WORD	wordpools/wasnorm_wordpool_576.txt	LTP347	ltpFR2	1	2	APRON	35	n/a	n/a	0	0	0
424955	REC_WORD	wordpools/wasnorm_wordpool_576.txt	LTP347	ltpFR2	1	2	STOVE	1388	n/a	n/a	0	0	0
427721	REC_WORD	wordpools/wasnorm_wordpool_576.txt	LTP347	ltpFR2	1	2	LUNCH	849	n/a	n/a	0	0	0
429337	REC_WORD	wordpools/wasnorm_wordpool_576.txt	LTP347	ltpFR2	1	2	MUFFIN	929	n/a	n/a	0	0	0
430041	REC_WORD	wordpools/wasnorm_wordpool_576.txt	LTP347	ltpFR2	1	2	GRAPE	654	n/a	n/a	0	0	0
431382	REC_WORD	wordpools/wasnorm_wordpool_576.txt	LTP347	ltpFR2	1	2	RIVER	1194	n/a	n/a	0	0	0
432227	REC_WORD	wordpools/wasnorm_wordpool_576.txt	LTP347	ltpFR2	1	2	RAFT	1159	n/a	n/a	0	0	0
436339	REC_WORD	wordpools/wasnorm_wordpool_576.txt	LTP347	ltpFR2	1	2	NOMAD	955	n/a	n/a	0	0	0
437194	REC_WORD	wordpools/wasnorm_wordpool_576.txt	LTP347	ltpFR2	1	2	MISTER	901	n/a	n/a	0	0	0
437951	REC_WORD	wordpools/wasnorm_wordpool_576.txt	LTP347	ltpFR2	1	2	FOREST	593	n/a	n/a	0	0	0
440857	REC_WORD	wordpools/wasnorm_wordpool_576.txt	LTP347	ltpFR2	1	2	BIKE	125	n/a	n/a	0	0	0
441461	REC_WORD	wordpools/wasnorm_wordpool_576.txt	LTP347	ltpFR2	1	2	RUST	1219	n/a	n/a	0	0	0
442434	REC_WORD	wordpools/wasnorm_wordpool_576.txt	LTP347	ltpFR2	1	2	DONKEY	484	n/a	n/a	0	0	0
443699	REC_WORD	wordpools/wasnorm_wordpool_576.txt	LTP347	ltpFR2	1	2	BLOUSE	139	n/a	n/a	0	0	0
445673	REC_WORD	wordpools/wasnorm_wordpool_576.txt	LTP347	ltpFR2	1	2	AIRPORT	13	n/a	n/a	0	0	0
447097	REC_WORD	wordpools/wasnorm_wordpool_576.txt	LTP347	ltpFR2	1	2	JAPAN	749	n/a	n/a	0	0	0
448088	REC_WORD	wordpools/wasnorm_wordpool_576.txt	LTP347	ltpFR2	1	2	CHAMPAGNE	278	n/a	n/a	0	0	0
455782	REC_WORD	wordpools/wasnorm_wordpool_576.txt	LTP347	ltpFR2	1	2	FLEET	578	n/a	n/a	0	0	0
507937	WORD	wordpools/wasnorm_wordpool_576.txt	LTP347	ltpFR2	1	3	CLIMBER	323	n/a	n/a	0	0	0
510719	WORD	wordpools/wasnorm_wordpool_576.txt	LTP347	ltpFR2	1	3	IDOL	733	n/a	n/a	0	0	0
513269	WORD	wordpools/wasnorm_wordpool_576.txt	LTP347	ltpFR2	1	3	GIRL	637	n/a	n/a	0	0	0
515900	WORD	wordpools/wasnorm_wordpool_576.txt	LTP347	ltpFR2	1	3	SPACE	1345	n/a	n/a	0	0	0
518633	WORD	wordpools/wasnorm_wordpool_576.txt	LTP347	ltpFR2	1	3	ANKLE	24	n/a	n/a	0	0	0
521332	WORD	wordpools/wasnorm_wordpool_576.txt	LTP347	ltpFR2	1	3	REPORT	1184	n/a	n/a	0	0	0
523946	WORD	wordpools/wasnorm_wordpool_576.txt	LTP347	ltpFR2	1	3	OX	994	n/a	n/a	0	0	0
526728	WORD	wordpools/wasnorm_wordpool_576.txt	LTP347	ltpFR2	1	3	COMET	353	n/a	n/a	0	0	0
529228	WORD	wordpools/wasnorm_wordpool_576.txt	LTP347	ltpFR2	1	3	JELLO	754	n/a	n/a	0	0	0
531793	WORD	wordpools/wasnorm_wordpool_576.txt	LTP347	ltpFR2	1	3	SWIMMER	1420	n/a	n/a	0	0	0
534459	WORD	wordpools/wasnorm_wordpool_576.txt	LTP347	ltpFR2	1	3	SHARK	1275	n/a	n/a	0	0	0
537208	WORD	wordpools/wasnorm_wordpool_576.txt	LTP347	ltpFR2	1	3	WAGON	1578	n/a	n/a	0	0	0
539689	WORD	wordpools/wasnorm_wordpool_576.txt	LTP347	ltpFR2	1	3	DRAWING	494	n/a	n/a	0	0	0
542138	WORD	wordpools/wasnorm_wordpool_576.txt	LTP347	ltpFR2	1	3	HERO	706	n/a	n/a	0	0	0
544621	WORD	wordpools/wasnorm_wordpool_576.txt	LTP347	ltpFR2	1	3	SLIDE	1326	n/a	n/a	0	0	0
547220	WORD	wordpools/wasnorm_wordpool_576.txt	LTP347	ltpFR2	1	3	TABLE	1426	n/a	n/a	0	0	0
549951	WORD	wordpools/wasnorm_wordpool_576.txt	LTP347	ltpFR2	1	3	POLICE	1098	n/a	n/a	0	0	0
552534	WORD	wordpools/wasnorm_wordpool_576.txt	LTP347	ltpFR2	1	3	STAR	1373	n/a	n/a	0	0	0
555250	WORD	wordpools/wasnorm_wordpool_576.txt	LTP347	ltpFR2	1	3	LODGE	839	n/a	n/a	0	0	0
557781	WORD	wordpools/wasnorm_wordpool_576.txt	LTP347	ltpFR2	1	3	COLONEL	348	n/a	n/a	0	0	0
560264	WORD	wordpools/wasnorm_wordpool_576.txt	LTP347	ltpFR2	1	3	ARMY	39	n/a	n/a	0	0	0
563029	WORD	wordpools/wasnorm_wordpool_576.txt	LTP347	ltpFR2	1	3	FLASHLIGHT	575	n/a	n/a	0	0	0
565462	WORD	wordpools/wasnorm_wordpool_576.txt	LTP347	ltpFR2	1	3	COUCH	386	n/a	n/a	0	0	0
568143	WORD	wordpools/wasnorm_wordpool_576.txt	LTP347	ltpFR2	1	3	PADDING	999	n/a	n/a	0	0	0
569759	START	n/a	LTP347	ltpFR2	1	n/a	n/a	n/a	4	n/a	n/a	n/a	n/a
570881	DISTRACTOR	n/a	LTP347	ltpFR2	1	3	n/a	n/a	n/a	n/a	0	0	0
570891	PROB	n/a	LTP347	ltpFR2	1	n/a	n/a	n/a	4	10	1	1	8
572392	PROB	n/a	LTP347	ltpFR2	1	n/a	n/a	n/a	4	17	6	9	2
573757	PROB	n/a	LTP347	ltpFR2	1	n/a	n/a	n/a	4	10	2	7	1
575073	PROB	n/a	LTP347	ltpFR2	1	n/a	n/a	n/a	4	14	3	3	8
576656	PROB	n/a	LTP347	ltpFR2	1	n/a	n/a	n/a	4	4	2	1	1
577738	PROB	n/a	LTP347	ltpFR2	1	n/a	n/a	n/a	4	14	6	1	7
579171	PROB	n/a	LTP347	ltpFR2	1	n/a	n/a	n/a	4	16	6	9	1
580388	PROB	n/a	LTP347	ltpFR2	1	n/a	n/a	n/a	4	18	9	2	7
581737	PROB	n/a	LTP347	ltpFR2	1	n/a	n/a	n/a	4	19	4	7	8
583686	PROB	n/a	LTP347	ltpFR2	1	n/a	n/a	n/a	4	15	5	3	7
585286	PROB	n/a	LTP347	ltpFR2	1	n/a	n/a	n/a	4	11	8	2	1
586502	PROB	n/a	LTP347	ltpFR2	1	n/a	n/a	n/a	4	8	4	2	2
587701	PROB	n/a	LTP347	ltpFR2	1	n/a	n/a	n/a	4	17	9	3	5
589866	PROB	n/a	LTP347	ltpFR2	1	n/a	n/a	n/a	4	10	1	8	1
591066	PROB	n/a	LTP347	ltpFR2	1	n/a	n/a	n/a	4	11	3	2	6
592482	STOP	n/a	LTP347	ltpFR2	1	n/a	n/a	n/a	4	n/a	n/a	n/a	n/a
595615	REC_START	n/a	LTP347	ltpFR2	1	3	n/a	n/a	n/a	n/a	0	0	0
598996	REC_WORD	wordpools/wasnorm_wordpool_576.txt	LTP347	ltpFR2	1	3	CLIMBER	323	n/a	n/a	0	0	0
601963	REC_WORD	wordpools/wasnorm_wordpool_576.txt	LTP347	ltpFR2	1	3	IDOL	733	n/a	n/a	0	0	0
603431	REC_WORD	wordpools/wasnorm_wordpool_576.txt	LTP347	ltpFR2	1	3	ANKLE	24	n/a	n/a	0	0	0
604915	REC_WORD	wordpools/wasnorm_wordpool_576.txt	LTP347	ltpFR2	1	3	GIRL	637	n/a	n/a	0	0	0
607080	REC_WORD	wordpools/wasnorm_wordpool_576.txt	LTP347	ltpFR2	1	3	OX	994	n/a	n/a	0	0	0
609826	REC_WORD	wordpools/wasnorm_wordpool_576.txt	LTP347	ltpFR2	1	3	SPACE	1345	n/a	n/a	0	0	0
611343	REC_WORD	wordpools/wasnorm_wordpool_576.txt	LTP347	ltpFR2	1	3	COMET	353	n/a	n/a	0	0	0
612630	REC_WORD	wordpools/wasnorm_wordpool_576.txt	LTP347	ltpFR2	1	3	STAR	1373	n/a	n/a	0	0	0
615395	REC_WORD	wordpools/wasnorm_wordpool_576.txt	LTP347	ltpFR2	1	3	SWIMMER	1420	n/a	n/a	0	0	0
616061	REC_WORD	wordpools/wasnorm_wordpool_576.txt	LTP347	ltpFR2	1	3	SHARK	1275	n/a	n/a	0	0	0
619742	REC_WORD	wordpools/wasnorm_wordpool_576.txt	LTP347	ltpFR2	1	3	SLIDE	1326	n/a	n/a	0	0	0
620775	REC_WORD	wordpools/wasnorm_wordpool_576.txt	LTP347	ltpFR2	1	3	TABLE	1426	n/a	n/a	0	0	0
622489	REC_WORD	wordpools/wasnorm_wordpool_576.txt	LTP347	ltpFR2	1	3	POLICE	1098	n/a	n/a	0	0	0
624122	REC_WORD	wordpools/wasnorm_wordpool_576.txt	LTP347	ltpFR2	1	3	COLONEL	348	n/a	n/a	0	0	0
624864	REC_WORD	wordpools/wasnorm_wordpool_576.txt	LTP347	ltpFR2	1	3	ARMY	39	n/a	n/a	0	0	0
625699	REC_WORD	wordpools/wasnorm_wordpool_576.txt	LTP347	ltpFR2	1	3	LODGE	839	n/a	n/a	0	0	0
627297	REC_WORD	wordpools/wasnorm_wordpool_576.txt	LTP347	ltpFR2	1	3	FLASHLIGHT	575	n/a	n/a	0	0	0
629317	REC_WORD	wordpools/wasnorm_wordpool_576.txt	LTP347	ltpFR2	1	3	COUCH	386	n/a	n/a	0	0	0
630070	REC_WORD	wordpools/wasnorm_wordpool_576.txt	LTP347	ltpFR2	1	3	PADDING	999	n/a	n/a	0	0	0
638988	REC_WORD	wordpools/wasnorm_wordpool_576.txt	LTP347	ltpFR2	1	3	CARRIAGE	248	n/a	n/a	0	0	0
643938	REC_WORD	wordpools/wasnorm_wordpool_576.txt	LTP347	ltpFR2	1	3	HERO	706	n/a	n/a	0	0	0
686056	DISTRACTOR	n/a	LTP347	ltpFR2	1	4	n/a	n/a	n/a	n/a	0	0	0
686056	START	n/a	LTP347	ltpFR2	1	n/a	n/a	n/a	5	n/a	n/a	n/a	n/a
686073	PROB	n/a	LTP347	ltpFR2	1	n/a	n/a	n/a	5	9	1	4	4
687273	PROB	n/a	LTP347	ltpFR2	1	n/a	n/a	n/a	5	10	8	1	1
688373	PROB	n/a	LTP347	ltpFR2	1	n/a	n/a	n/a	5	17	4	7	6
689904	PROB	n/a	LTP347	ltpFR2	1	n/a	n/a	n/a	5	15	5	6	4
691288	PROB	n/a	LTP347	ltpFR2	1	n/a	n/a	n/a	5	18	8	9	1
692404	PROB	n/a	LTP347	ltpFR2	1	n/a	n/a	n/a	5	14	4	9	1
693653	PROB	n/a	LTP347	ltpFR2	1	n/a	n/a	n/a	5	26	9	9	8
695702	PROB	n/a	LTP347	ltpFR2	1	n/a	n/a	n/a	5	10	1	7	2
696968	PROB	n/a	LTP347	ltpFR2	1	n/a	n/a	n/a	5	16	5	2	9
700000	PROB	n/a	LTP347	ltpFR2	1	n/a	n/a	n/a	5	14	1	6	7
701666	PROB	n/a	LTP347	ltpFR2	1	n/a	n/a	n/a	5	18	4	5	7
704048	PROB	n/a	LTP347	ltpFR2	1	n/a	n/a	n/a	5	21	5	8	8
706414	PROB	n/a	LTP347	ltpFR2	1	n/a	n/a	n/a	5	17	7	7	3
707631	PROB	n/a	LTP347	ltpFR2	1	n/a	n/a	n/a	5	10	6	2	2
708916	STOP	n/a	LTP347	ltpFR2	1	n/a	n/a	n/a	5	n/a	n/a	n/a	n/a
711028	WORD	wordpools/wasnorm_wordpool_576.txt	LTP347	ltpFR2	1	4	DIVER	476	n/a	n/a	0	0	0
713478	WORD	wordpools/wasnorm_wordpool_576.txt	LTP347	ltpFR2	1	4	ULCER	1533	n/a	n/a	0	0	0
716092	WORD	wordpools/wasnorm_wordpool_576.txt	LTP347	ltpFR2	1	4	BODY	145	n/a	n/a	0	0	0
718924	WORD	wordpools/wasnorm_wordpool_576.txt	LTP347	ltpFR2	1	4	SUSPECT	1415	n/a	n/a	0	0	0
721458	WORD	wordpools/wasnorm_wordpool_576.txt	LTP347	ltpFR2	1	4	ITEM	746	n/a	n/a	0	0	0
723889	WORD	wordpools/wasnorm_wordpool_576.txt	LTP347	ltpFR2	1	4	ROCKET	1202	n/a	n/a	0	0	0
726539	WORD	wordpools/wasnorm_wordpool_576.txt	LTP347	ltpFR2	1	4	LEG	809	n/a	n/a	0	0	0
729271	WORD	wordpools/wasnorm_wordpool_576.txt	LTP347	ltpFR2	1	4	WRIST	1626	n/a	n/a	0	0	0
731769	WORD	wordpools/wasnorm_wordpool_576.txt	LTP347	ltpFR2	1	4	STATUE	1374	n/a	n/a	0	0	0
734268	WORD	wordpools/wasnorm_wordpool_576.txt	LTP347	ltpFR2	1	4	EXPERT	543	n/a	n/a	0	0	0
736999	WORD	wordpools/wasnorm_wordpool_576.txt	LTP347	ltpFR2	1	4	PRINCE	1124	n/a	n/a	0	0	0
739665	WORD	wordpools/wasnorm_wordpool_576.txt	LTP347	ltpFR2	1	4	FOOT	590	n/a	n/a	0	0	0
742365	WORD	wordpools/wasnorm_wordpool_576.txt	LTP347	ltpFR2	1	4	DORM	488	n/a	n/a	0	0	0
744979	WORD	wordpools/wasnorm_wordpool_576.txt	LTP347	ltpFR2	1	4	ZIPPER	1636	n/a	n/a	0	0	0
747711	WORD	wordpools/wasnorm_wordpool_576.txt	LTP347	ltpFR2	1	4	CABBAGE	210	n/a	n/a	0	0	0
750528	WORD	wordpools/wasnorm_wordpool_576.txt	LTP347	ltpFR2	1	4	BUNNY	198	n/a	n/a	0	0	0
753042	WORD	wordpools/wasnorm_wordpool_576.txt	LTP347	ltpFR2	1	4	EGYPT	519	n/a	n/a	0	0	0
755774	WORD	wordpools/wasnorm_wordpool_576.txt	LTP347	ltpFR2	1	4	SHIRT	1287	n/a	n/a	0	0	0
758474	WORD	wordpools/wasnorm_wordpool_576.txt	LTP347	ltpFR2	1	4	HUMAN	726	n/a	n/a	0	0	0
761172	WORD	wordpools/wasnorm_wordpool_576.txt	LTP347	ltpFR2	1	4	PIANO	1057	n/a	n/a	0	0	0
763721	WORD	wordpools/wasnorm_wordpool_576.txt	LTP347	ltpFR2	1	4	PREACHER	1119	n/a	n/a	0	0	0
766487	WORD	wordpools/wasnorm_wordpool_576.txt	LTP347	ltpFR2	1	4	LONDON	843	n/a	n/a	0	0	0
768952	WORD	wordpools/wasnorm_wordpool_576.txt	LTP347	ltpFR2	1	4	VIKING	1565	n/a	n/a	0	0	0
771568	WORD	wordpools/wasnorm_wordpool_576.txt	LTP347	ltpFR2	1	4	PADDLE	1000	n/a	n/a	0	0	0
773183	START	n/a	LTP347	ltpFR2	1	n/a	n/a	n/a	6	n/a	n/a	n/a	n/a
774074	DISTRACTOR	n/a	LTP347	ltpFR2	1	4	n/a	n/a	n/a	n/a	0	0	0
774083	PROB	n/a	LTP347	ltpFR2	1	n/a	n/a	n/a	6	19	8	9	2
776015	PROB	n/a	LTP347	ltpFR2	1	n/a	n/a	n/a	6	10	4	5	1
777366	PROB	n/a	LTP347	ltpFR2	1	n/a	n/a	n/a	6	12	2	5	5
778797	PROB	n/a	LTP347	ltpFR2	1	n/a	n/a	n/a	6	20	7	5	8
781946	PROB	n/a	LTP347	ltpFR2	1	n/a	n/a	n/a	6	17	5	6	6
783662	PROB	n/a	LTP347	ltpFR2	1	n/a	n/a	n/a	6	16	4	7	5
785944	PROB	n/a	LTP347	ltpFR2	1	n/a	n/a	n/a	6	12	2	9	1
787378	PROB	n/a	LTP347	ltpFR2	1	n/a	n/a	n/a	6	23	6	9	8
789510	PROB	n/a	LTP347	ltpFR2	1	n/a	n/a	n/a	6	13	4	6	3
790825	PROB	n/a	LTP347	ltpFR2	1	n/a	n/a	n/a	6	7	3	1	3
792058	PROB	n/a	LTP347	ltpFR2	1	n/a	n/a	n/a	6	17	7	3	7
793525	PROB	n/a	LTP347	ltpFR2	1	n/a	n/a	n/a	6	14	4	5	5
794957	PROB	n/a	LTP347	ltpFR2	1	n/a	n/a	n/a	6	12	4	7	1
796194	STOP	n/a	LTP347	ltpFR2	1	n/a	n/a	n/a	6	n/a	n/a	n/a	n/a
799038	REC_START	n/a	LTP347	ltpFR2	1	4	n/a	n/a	n/a	n/a	0	0	0
800848	REC_WORD	wordpools/wasnorm_wordpool_576.txt	LTP347	ltpFR2	1	4	DIVER	476	n/a	n/a	0	0	0
801852	REC_WORD	wordpools/wasnorm_wordpool_576.txt	LTP347	ltpFR2	1	4	ULCER	1533	n/a	n/a	0	0	0
803882	REC_WORD	wordpools/wasnorm_wordpool_576.txt	LTP347	ltpFR2	1	4	SUSPECT	1415	n/a	n/a	0	0	0
805266	REC_WORD	wordpools/wasnorm_wordpool_576.txt	LTP347	ltpFR2	1	4	EXPERT	543	n/a	n/a	0	0	0
807614	REC_WORD	wordpools/wasnorm_wordpool_576.txt	LTP347	ltpFR2	1	4	BODY	145	n/a	n/a	0	0	0
809380	REC_WORD	wordpools/wasnorm_wordpool_576.txt	LTP347	ltpFR2	1	4	FOOT	590	n/a	n/a	0	0	0
813213	REC_WORD	wordpools/wasnorm_wordpool_576.txt	LTP347	ltpFR2	1	4	LEG	809	n/a	n/a	0	0	0
814594	REC_WORD	wordpools/wasnorm_wordpool_576.txt	LTP347	ltpFR2	1	4	ITEM	746	n/a	n/a	0	0	0
815839	REC_WORD	wordpools/wasnorm_wordpool_576.txt	LTP347	ltpFR2	1	4	ROCKET	1202	n/a	n/a	0	0	0
819244	REC_WORD	wordpools/wasnorm_wordpool_576.txt	LTP347	ltpFR2	1	4	STATUE	1374	n/a	n/a	0	0	0
825135	REC_WORD	wordpools/wasnorm_wordpool_576.txt	LTP347	ltpFR2	1	4	EGYPT	519	n/a	n/a	0	0	0
826859	REC_WORD	wordpools/wasnorm_wordpool_576.txt	LTP347	ltpFR2	1	4	BUNNY	198	n/a	n/a	0	0	0
827882	REC_WORD	wordpools/wasnorm_wordpool_576.txt	LTP347	ltpFR2	1	4	CABBAGE	210	n/a	n/a	0	0	0
831776	REC_WORD	wordpools/wasnorm_wordpool_576.txt	LTP347	ltpFR2	1	4	DORM	488	n/a	n/a	0	0	0
833653	REC_WORD	wordpools/wasnorm_wordpool_576.txt	LTP347	ltpFR2	1	4	SHIRT	1287	n/a	n/a	0	0	0
835823	REC_WORD	wordpools/wasnorm_wordpool_576.txt	LTP347	ltpFR2	1	4	ZIPPER	1636	n/a	n/a	0	0	0
839120	REC_WORD	wordpools/wasnorm_wordpool_576.txt	LTP347	ltpFR2	1	4	VIKING	1565	n/a	n/a	0	0	0
839975	REC_WORD	wordpools/wasnorm_wordpool_576.txt	LTP347	ltpFR2	1	4	PADDLE	1000	n/a	n/a	0	0	0
841206	REC_WORD	wordpools/wasnorm_wordpool_576.txt	LTP347	ltpFR2	1	4	PREACHER	1119	n/a	n/a	0	0	0
850460	REC_WORD	wordpools/wasnorm_wordpool_576.txt	LTP347	ltpFR2	1	4	PRINCE	1124	n/a	n/a	0	0	0
889515	WORD	wordpools/wasnorm_wordpool_576.txt	LTP347	ltpFR2	1	5	CABIN	211	n/a	n/a	0	0	0
892179	WORD	wordpools/wasnorm_wordpool_576.txt	LTP347	ltpFR2	1	5	PLASTER	1085	n/a	n/a	0	0	0
894861	WORD	wordpools/wasnorm_wordpool_576.txt	LTP347	ltpFR2	1	5	COCOON	339	n/a	n/a	0	0	0
897544	WORD	wordpools/wasnorm_wordpool_576.txt	LTP347	ltpFR2	1	5	COOK	372	n/a	n/a	0	0	0
900192	WORD	wordpools/wasnorm_wordpool_576.txt	LTP347	ltpFR2	1	5	POCKET	1093	n/a	n/a	0	0	0
902824	WORD	wordpools/wasnorm_wordpool_576.txt	LTP347	ltpFR2	1	5	FLIPPER	580	n/a	n/a	0	0	0
905624	WORD	wordpools/wasnorm_wordpool_576.txt	LTP347	ltpFR2	1	5	CASHIER	254	n/a	n/a	0	0	0
908306	WORD	wordpools/wasnorm_wordpool_576.txt	LTP347	ltpFR2	1	5	COIN	343	n/a	n/a	0	0	0
910987	WORD	wordpools/wasnorm_wordpool_576.txt	LTP347	ltpFR2	1	5	TURKEY	1520	n/a	n/a	0	0	0
913570	WORD	wordpools/wasnorm_wordpool_576.txt	LTP347	ltpFR2	1	5	CUPBOARD	425	n/a	n/a	0	0	0
916018	WORD	wordpools/wasnorm_wordpool_576.txt	LTP347	ltpFR2	1	5	GAVEL	627	n/a	n/a	0	0	0
918452	WORD	wordpools/wasnorm_wordpool_576.txt	LTP347	ltpFR2	1	5	FRIAR	605	n/a	n/a	0	0	0
921234	WORD	wordpools/wasnorm_wordpool_576.txt	LTP347	ltpFR2	1	5	SHORTS	1293	n/a	n/a	0	0	0
923931	WORD	wordpools/wasnorm_wordpool_576.txt	LTP347	ltpFR2	1	5	CLOUD	328	n/a	n/a	0	0	0
926730	WORD	wordpools/wasnorm_wordpool_576.txt	LTP347	ltpFR2	1	5	COURSE	390	n/a	n/a	0	0	0
929513	WORD	wordpools/wasnorm_wordpool_576.txt	LTP347	ltpFR2	1	5	LUMBER	848	n/a	n/a	0	0	0
932212	WORD	wordpools/wasnorm_wordpool_576.txt	LTP347	ltpFR2	1	5	BASEMENT	94	n/a	n/a	0	0	0
934860	WORD	wordpools/wasnorm_wordpool_576.txt	LTP347	ltpFR2	1	5	CHAUFFEUR	283	n/a	n/a	0	0	0
937343	WORD	wordpools/wasnorm_wordpool_576.txt	LTP347	ltpFR2	1	5	BUGGY	188	n/a	n/a	0	0	0
940024	WORD	wordpools/wasnorm_wordpool_576.txt	LTP347	ltpFR2	1	5	GARDEN	623	n/a	n/a	0	0	0
942823	WORD	wordpools/wasnorm_wordpool_576.txt	LTP347	ltpFR2	1	5	TWIG	1527	n/a	n/a	0	0	0
945439	WORD	wordpools/wasnorm_wordpool_576.txt	LTP347	ltpFR2	1	5	CHAPEL	280	n/a	n/a	0	0	0
948120	WORD	wordpools/wasnorm_wordpool_576.txt	LTP347	ltpFR2	1	5	GRAVE	658	n/a	n/a	0	0	0
950703	WORD	wordpools/wasnorm_wordpool_576.txt	LTP347	ltpFR2	1	5	GREASE	660	n/a	n/a	0	0	0
952320	START	n/a	LTP347	ltpFR2	1	n/a	n/a	n/a	7	n/a	n/a	n/a	n/a
953157	DISTRACTOR	n/a	LTP347	ltpFR2	1	5	n/a	n/a	n/a	n/a	0	0	0
953168	PROB	n/a	LTP347	ltpFR2	1	n/a	n/a	n/a	7	7	2	4	3
955717	PROB	n/a	LTP347	ltpFR2	1	n/a	n/a	n/a	7	11	1	4	6
958267	PROB	n/a	LTP347	ltpFR2	1	n/a	n/a	n/a	7	15	1	7	7
959583	PROB	n/a	LTP347	ltpFR2	1	n/a	n/a	n/a	7	10	6	2	2
960815	PROB	n/a	LTP347	ltpFR2	1	n/a	n/a	n/a	7	11	1	3	7
961897	PROB	n/a	LTP347	ltpFR2	1	n/a	n/a	n/a	7	15	8	3	4
963847	PROB	n/a	LTP347	ltpFR2	1	n/a	n/a	n/a	7	8	2	1	5
965129	PROB	n/a	LTP347	ltpFR2	1	n/a	n/a	n/a	7	9	1	7	1
966263	PROB	n/a	LTP347	ltpFR2	1	n/a	n/a	n/a	7	14	3	5	6
968045	PROB	n/a	LTP347	ltpFR2	1	n/a	n/a	n/a	7	11	3	6	2
969512	PROB	n/a	LTP347	ltpFR2	1	n/a	n/a	n/a	7	18	7	2	9
972410	PROB	n/a	LTP347	ltpFR2	1	n/a	n/a	n/a	7	6	1	2	3
973593	PROB	n/a	LTP347	ltpFR2	1	n/a	n/a	n/a	7	15	8	3	4
975684	STOP	n/a	LTP347	ltpFR2	1	n/a	n/a	n/a	7	n/a	n/a	n/a	n/a
978124	REC_START	n/a	LTP347	ltpFR2	1	5	n/a	n/a	n/a	n/a	0	0	0
980399	REC_WORD	wordpools/wasnorm_wordpool_576.txt	LTP347	ltpFR2	1	5	CABIN	211	n/a	n/a	0	0	0
981679	REC_WORD	wordpools/wasnorm_wordpool_576.txt	LTP347	ltpFR2	1	5	COOK	372	n/a	n/a	0	0	0
986668	REC_WORD	wordpools/wasnorm_wordpool_576.txt	LTP347	ltpFR2	1	5	COCOON	339	n/a	n/a	0	0	0
994278	REC_WORD	wordpools/wasnorm_wordpool_576.txt	LTP347	ltpFR2	1	5	PLASTER	1085	n/a	n/a	0	0	0
1001719	REC_WORD	wordpools/wasnorm_wordpool_576.txt	LTP347	ltpFR2	1	5	POCKET	1093	n/a	n/a	0	0	0
1002357	REC_WORD	wordpools/wasnorm_wordpool_576.txt	LTP347	ltpFR2	1	5	FLIPPER	580	n/a	n/a	0	0	0
1004518	REC_WORD	wordpools/wasnorm_wordpool_576.txt	LTP347	ltpFR2	1	5	COIN	343	n/a	n/a	0	0	0
1005227	REC_WORD	wordpools/wasnorm_wordpool_576.txt	LTP347	ltpFR2	1	5	CASHIER	254	n/a	n/a	0	0	0
1006121	REC_WORD	wordpools/wasnorm_wordpool_576.txt	LTP347	ltpFR2	1	5	TURKEY	1520	n/a	n/a	0	0	0
1006823	REC_WORD	wordpools/wasnorm_wordpool_576.txt	LTP347	ltpFR2	1	5	GAVEL	627	n/a	n/a	0	0	0
1012856	REC_WORD	wordpools/wasnorm_wordpool_576.txt	LTP347	ltpFR2	1	5	FRIAR	605	n/a	n/a	0	0	0
1014285	REC_WORD	wordpools/wasnorm_wordpool_576.txt	LTP347	ltpFR2	1	5	SHORTS	1293	n/a	n/a	0	0	0
1015831	REC_WORD	wordpools/wasnorm_wordpool_576.txt	LTP347	ltpFR2	1	5	CLOUDY	-1	n/a	n/a	0	0	0
1019536	REC_WORD	wordpools/wasnorm_wordpool_576.txt	LTP347	ltpFR2	1	5	CHAUFFEUR	283	n/a	n/a	0	0	0
1020814	REC_WORD	wordpools/wasnorm_wordpool_576.txt	LTP347	ltpFR2	1	5	BUGGY	188	n/a	n/a	0	0	0
1022677	REC_WORD	wordpools/wasnorm_wordpool_576.txt	LTP347	ltpFR2	1	5	LUMBER	848	n/a	n/a	0	0	0
1023891	REC_WORD	wordpools/wasnorm_wordpool_576.txt	LTP347	ltpFR2	1	5	TWIG	1527	n/a	n/a	0	0	0
1027501	REC_WORD	wordpools/wasnorm_wordpool_576.txt	LTP347	ltpFR2	1	5	GRAVE	658	n/a	n/a	0	0	0
1029946	REC_WORD	wordpools/wasnorm_wordpool_576.txt	LTP347	ltpFR2	1	5	CHAPEL	280	n/a	n/a	0	0	0
1031804	REC_WORD	wordpools/wasnorm_wordpool_576.txt	LTP347	ltpFR2	1	5	BASEMENT	94	n/a	n/a	0	0	0
1068550	DISTRACTOR	n/a	LTP347	ltpFR2	1	6	n/a	n/a	n/a	n/a	0	0	0
1068550	START	n/a	LTP347	ltpFR2	1	n/a	n/a	n/a	8	n/a	n/a	n/a	n/a
1068567	PROB	n/a	LTP347	ltpFR2	1	n/a	n/a	n/a	8	8	1	1	6
1069782	PROB	n/a	LTP347	ltpFR2	1	n/a	n/a	n/a	8	18	7	6	5
1071781	PROB	n/a	LTP347	ltpFR2	1	n/a	n/a	n/a	8	18	6	3	9
1074147	PROB	n/a	LTP347	ltpFR2	1	n/a	n/a	n/a	8	19	3	6	9
1076563	PROB	n/a	LTP347	ltpFR2	1	n/a	n/a	n/a	8	15	7	5	3
1078045	PROB	n/a	LTP347	ltpFR2	1	n/a	n/a	n/a	8	19	9	9	1
1079295	PROB	n/a	LTP347	ltpFR2	1	n/a	n/a	n/a	8	15	7	1	7
1080628	PROB	n/a	LTP347	ltpFR2	1	n/a	n/a	n/a	8	1	5	9	1
1081876	PROB	n/a	LTP347	ltpFR2	1	n/a	n/a	n/a	8	18	2	9	7
1083643	PROB	n/a	LTP347	ltpFR2	1	n/a	n/a	n/a	8	8	4	3	2
1085609	PROB	n/a	LTP347	ltpFR2	1	n/a	n/a	n/a	8	13	2	6	5
1087790	PROB	n/a	LTP347	ltpFR2	1	n/a	n/a	n/a	8	10	1	7	2
1089190	PROB	n/a	LTP347	ltpFR2	1	n/a	n/a	n/a	8	19	8	9	2
1090672	PROB	n/a	LTP347	ltpFR2	1	n/a	n/a	n/a	8	15	6	1	8
1092225	STOP	n/a	LTP347	ltpFR2	1	n/a	n/a	n/a	8	n/a	n/a	n/a	n/a
1093606	WORD	wordpools/wasnorm_wordpool_576.txt	LTP347	ltpFR2	1	6	MAMMAL	861	n/a	n/a	0	0	0
1096153	WORD	wordpools/wasnorm_wordpool_576.txt	LTP347	ltpFR2	1	6	GARBAGE	622	n/a	n/a	0	0	0
1098637	WORD	wordpools/wasnorm_wordpool_576.txt	LTP347	ltpFR2	1	6	EUROPE	541	n/a	n/a	0	0	0
1101184	WORD	wordpools/wasnorm_wordpool_576.txt	LTP347	ltpFR2	1	6	BANQUET	86	n/a	n/a	0	0	0
1103617	WORD	wordpools/wasnorm_wordpool_576.txt	LTP347	ltpFR2	1	6	LION	827	n/a	n/a	0	0	0
1106366	WORD	wordpools/wasnorm_wordpool_576.txt	LTP347	ltpFR2	1	6	FRANCE	601	n/a	n/a	0	0	0
1109064	WORD	wordpools/wasnorm_wordpool_576.txt	LTP347	ltpFR2	1	6	FARMER	553	n/a	n/a	0	0	0
1111846	WORD	wordpools/wasnorm_wordpool_576.txt	LTP347	ltpFR2	1	6	CANYON	235	n/a	n/a	0	0	0
1114379	WORD	wordpools/wasnorm_wordpool_576.txt	LTP347	ltpFR2	1	6	CURTAIN	427	n/a	n/a	0	0	0
1117027	WORD	wordpools/wasnorm_wordpool_576.txt	LTP347	ltpFR2	1	6	BEAST	108	n/a	n/a	0	0	0
1119693	WORD	wordpools/wasnorm_wordpool_576.txt	LTP347	ltpFR2	1	6	SCARECROW	1245	n/a	n/a	0	0	0
1122125	WORD	wordpools/wasnorm_wordpool_576.txt	LTP347	ltpFR2	1	6	SNACK	1331	n/a	n/a	0	0	0
1124625	WORD	wordpools/wasnorm_wordpool_576.txt	LTP347	ltpFR2	1	6	SERVER	1272	n/a	n/a	0	0	0
1127323	WORD	wordpools/wasnorm_wordpool_576.txt	LTP347	ltpFR2	1	6	HAMPER	682	n/a	n/a	0	0	0
1129838	WORD	wordpools/wasnorm_wordpool_576.txt	LTP347	ltpFR2	1	6	LOVER	846	n/a	n/a	0	0	0
1132438	WORD	wordpools/wasnorm_wordpool_576.txt	LTP347	ltpFR2	1	6	TILE	1468	n/a	n/a	0	0	0
1135202	WORD	wordpools/wasnorm_wordpool_576.txt	LTP347	ltpFR2	1	6	RUG	1215	n/a	n/a	0	0	0
1137751	WORD	wordpools/wasnorm_wordpool_576.txt	LTP347	ltpFR2	1	6	BLACKBOARD	133	n/a	n/a	0	0	0
1140484	WORD	wordpools/wasnorm_wordpool_576.txt	LTP347	ltpFR2	1	6	FEMALE	559	n/a	n/a	0	0	0
1143132	WORD	wordpools/wasnorm_wordpool_576.txt	LTP347	ltpFR2	1	6	FLOWER	584	n/a	n/a	0	0	0
1145681	WORD	wordpools/wasnorm_wordpool_576.txt	LTP347	ltpFR2	1	6	PEDAL	1037	n/a	n/a	0	0	0
1148113	WORD	wordpools/wasnorm_wordpool_576.txt	LTP347	ltpFR2	1	6	MAPLE	866	n/a	n/a	0	0	0
1150712	WORD	wordpools/wasnorm_wordpool_576.txt	LTP347	ltpFR2	1	6	BARREL	91	n/a	n/a	0	0	0
1153328	WORD	wordpools/wasnorm_wordpool_576.txt	LTP347	ltpFR2	1	6	BUG	187	n/a	n/a	0	0	0
1154943	START	n/a	LTP347	ltpFR2	1	n/a	n/a	n/a	9	n/a	n/a	n/a	n/a
1155855	DISTRACTOR	n/a	LTP347	ltpFR2	1	6	n/a	n/a	n/a	n/a	0	0	0
1155860	PROB	n/a	LTP347	ltpFR2	1	n/a	n/a	n/a	9	11	4	6	1
1158343	PROB	n/a	LTP347	ltpFR2	1	n/a	n/a	n/a	9	6	2	3	1
1159409	PROB	n/a	LTP347	ltpFR2	1	n/a	n/a	n/a	9	5	1	3	1
1160508	PROB	n/a	LTP347	ltpFR2	1	n/a	n/a	n/a	9	16	5	9	2
1161807	PROB	n/a	LTP347	ltpFR2	1	n/a	n/a	n/a	9	14	6	6	2
1163241	PROB	n/a	LTP347	ltpFR2	1	n/a	n/a	n/a	9	14	4	1	9
1164507	PROB	n/a	LTP347	ltpFR2	1	n/a	n/a	n/a	9	20	8	8	4
1165822	PROB	n/a	LTP347	ltpFR2	1	n/a	n/a	n/a	9	11	5	2	4
1167138	PROB	n/a	LTP347	ltpFR2	1	n/a	n/a	n/a	9	9	1	6	2
1169571	PROB	n/a	LTP347	ltpFR2	1	n/a	n/a	n/a	9	15	5	3	7
1170653	PROB	n/a	LTP347	ltpFR2	1	n/a	n/a	n/a	9	14	8	4	2
1172353	PROB	n/a	LTP347	ltpFR2	1	n/a	n/a	n/a	9	16	9	7	1
1174435	PROB	n/a	LTP347	ltpFR2	1	n/a	n/a	n/a	9	13	3	4	5
1178943	STOP	n/a	LTP347	ltpFR2	1	n/a	n/a	n/a	9	n/a	n/a	n/a	n/a
1180715	REC_START	n/a	LTP347	ltpFR2	1	6	n/a	n/a	n/a	n/a	0	0	0
1183245	REC_WORD	wordpools/wasnorm_wordpool_576.txt	LTP347	ltpFR2	1	6	MAMMAL	861	n/a	n/a	0	0	0
1184157	REC_WORD	wordpools/wasnorm_wordpool_576.txt	LTP347	ltpFR2	1	6	GARBAGE	622	n/a	n/a	0	0	0
1185895	REC_WORD	wordpools/wasnorm_wordpool_576.txt	LTP347	ltpFR2	1	6	BANQUET	86	n/a	n/a	0	0	0
1186447	REC_WORD	wordpools/wasnorm_wordpool_576.txt	LTP347	ltpFR2	1	6	EUROPE	541	n/a	n/a	0	0	0
1187060	REC_WORD	wordpools/wasnorm_wordpool_576.txt	LTP347	ltpFR2	1	6	FRANCE	601	n/a	n/a	0	0	0
1201718	REC_WORD	wordpools/wasnorm_wordpool_576.txt	LTP347	ltpFR2	1	6	CURTAIN	427	n/a	n/a	0	0	0
1202714	REC_WORD	wordpools/wasnorm_wordpool_576.txt	LTP347	ltpFR2	1	6	LION	827	n/a	n/a	0	0	0
1205060	REC_WORD	wordpools/wasnorm_wordpool_576.txt	LTP347	ltpFR2	1	6	SCARECROW	1245	n/a	n/a	0	0	0
1207103	REC_WORD	wordpools/wasnorm_wordpool_576.txt	LTP347	ltpFR2	1	6	SNACK	1331	n/a	n/a	0	0	0
1208189	REC_WORD	wordpools/wasnorm_wordpool_576.txt	LTP347	ltpFR2	1	6	SERVER	1272	n/a	n/a	0	0	0
1212937	REC_WORD	wordpools/wasnorm_wordpool_576.txt	LTP347	ltpFR2	1	6	LOVE	-1	n/a	n/a	0	0	0
1213646	REC_WORD	wordpools/wasnorm_wordpool_576.txt	LTP347	ltpFR2	1	6	TILE	1468	n/a	n/a	0	0	0
1214435	REC_WORD	wordpools/wasnorm_wordpool_576.txt	LTP347	ltpFR2	1	6	RUG	1215	n/a	n/a	0	0	0
1217834	REC_WORD	wordpools/wasnorm_wordpool_576.txt	LTP347	ltpFR2	1	6	BLACKBOARD	133	n/a	n/a	0	0	0
1219987	REC_WORD	wordpools/wasnorm_wordpool_576.txt	LTP347	ltpFR2	1	6	FLOWER	584	n/a	n/a	0	0	0
1222676	REC_WORD	wordpools/wasnorm_wordpool_576.txt	LTP347	ltpFR2	1	6	WOMAN	1620	n/a	n/a	0	0	0
1226229	REC_WORD	wordpools/wasnorm_wordpool_576.txt	LTP347	ltpFR2	1	6	MAPLE	866	n/a	n/a	0	0	0
1226958	REC_WORD	wordpools/wasnorm_wordpool_576.txt	LTP347	ltpFR2	1	6	BARREL	91	n/a	n/a	0	0	0
1228179	REC_WORD	wordpools/wasnorm_wordpool_576.txt	LTP347	ltpFR2	1	6	BUG	187	n/a	n/a	0	0	0
1271141	DISTRACTOR	n/a	LTP347	ltpFR2	1	7	n/a	n/a	n/a	n/a	0	0	0
1271141	START	n/a	LTP347	ltpFR2	1	n/a	n/a	n/a	10	n/a	n/a	n/a	n/a
1271157	PROB	n/a	LTP347	ltpFR2	1	n/a	n/a	n/a	10	18	6	6	6
1272807	PROB	n/a	LTP347	ltpFR2	1	n/a	n/a	n/a	10	10	6	2	2
1274357	PROB	n/a	LTP347	ltpFR2	1	n/a	n/a	n/a	10	21	9	6	7
1276671	PROB	n/a	LTP347	ltpFR2	1	n/a	n/a	n/a	10	20	5	8	7
1279355	PROB	n/a	LTP347	ltpFR2	1	n/a	n/a	n/a	10	13	3	9	1
1281069	PROB	n/a	LTP347	ltpFR2	1	n/a	n/a	n/a	10	14	3	7	4
1282520	PROB	n/a	LTP347	ltpFR2	1	n/a	n/a	n/a	10	17	5	8	4
1284818	PROB	n/a	LTP347	ltpFR2	1	n/a	n/a	n/a	10	20	7	6	7
1286717	PROB	n/a	LTP347	ltpFR2	1	n/a	n/a	n/a	10	17	6	5	6
1288350	PROB	n/a	LTP347	ltpFR2	1	n/a	n/a	n/a	10	20	7	8	5
1290132	PROB	n/a	LTP347	ltpFR2	1	n/a	n/a	n/a	10	18	7	7	4
1292114	PROB	n/a	LTP347	ltpFR2	1	n/a	n/a	n/a	10	12	1	9	2
1293332	PROB	n/a	LTP347	ltpFR2	1	n/a	n/a	n/a	10	18	4	8	7
1294854	STOP	n/a	LTP347	ltpFR2	1	n/a	n/a	n/a	10	n/a	n/a	n/a	n/a
1296079	WORD	wordpools/wasnorm_wordpool_576.txt	LTP347	ltpFR2	1	7	SCRIBBLE	1256	n/a	n/a	0	0	0
1298529	WORD	wordpools/wasnorm_wordpool_576.txt	LTP347	ltpFR2	1	7	PUPPY	1144	n/a	n/a	0	0	0
1301345	WORD	wordpools/wasnorm_wordpool_576.txt	LTP347	ltpFR2	1	7	BRAKE	166	n/a	n/a	0	0	0
1303842	WORD	wordpools/wasnorm_wordpool_576.txt	LTP347	ltpFR2	1	7	BUTCHER	203	n/a	n/a	0	0	0
1306559	WORD	wordpools/wasnorm_wordpool_576.txt	LTP347	ltpFR2	1	7	TRENCH	1503	n/a	n/a	0	0	0
1309241	WORD	wordpools/wasnorm_wordpool_576.txt	LTP347	ltpFR2	1	7	MAILMAN	858	n/a	n/a	0	0	0
1311805	WORD	wordpools/wasnorm_wordpool_576.txt	LTP347	ltpFR2	1	7	TOMBSTONE	1478	n/a	n/a	0	0	0
1314439	WORD	wordpools/wasnorm_wordpool_576.txt	LTP347	ltpFR2	1	7	BLENDER	136	n/a	n/a	0	0	0
1317003	WORD	wordpools/wasnorm_wordpool_576.txt	LTP347	ltpFR2	1	7	SKILLET	1317	n/a	n/a	0	0	0
1319553	WORD	wordpools/wasnorm_wordpool_576.txt	LTP347	ltpFR2	1	7	CIGAR	308	n/a	n/a	0	0	0
1322318	WORD	wordpools/wasnorm_wordpool_576.txt	LTP347	ltpFR2	1	7	CAMEL	223	n/a	n/a	0	0	0
1325116	WORD	wordpools/wasnorm_wordpool_576.txt	LTP347	ltpFR2	1	7	GARLIC	624	n/a	n/a	0	0	0
1327616	WORD	wordpools/wasnorm_wordpool_576.txt	LTP347	ltpFR2	1	7	TOASTER	1472	n/a	n/a	0	0	0
1330130	WORD	wordpools/wasnorm_wordpool_576.txt	LTP347	ltpFR2	1	7	MAILBOX	857	n/a	n/a	0	0	0
1332663	WORD	wordpools/wasnorm_wordpool_576.txt	LTP347	ltpFR2	1	7	ASIA	46	n/a	n/a	0	0	0
1335362	WORD	wordpools/wasnorm_wordpool_576.txt	LTP347	ltpFR2	1	7	BARLEY	88	n/a	n/a	0	0	0
1337944	WORD	wordpools/wasnorm_wordpool_576.txt	LTP347	ltpFR2	1	7	WIDOW	1608	n/a	n/a	0	0	0
1340377	WORD	wordpools/wasnorm_wordpool_576.txt	LTP347	ltpFR2	1	7	PIMPLE	1071	n/a	n/a	0	0	0
1342841	WORD	wordpools/wasnorm_wordpool_576.txt	LTP347	ltpFR2	1	7	COUNTRY	388	n/a	n/a	0	0	0
1345275	WORD	wordpools/wasnorm_wordpool_576.txt	LTP347	ltpFR2	1	7	XEROX	1628	n/a	n/a	0	0	0
1347856	WORD	wordpools/wasnorm_wordpool_576.txt	LTP347	ltpFR2	1	7	MACHINE	852	n/a	n/a	0	0	0
1350339	WORD	wordpools/wasnorm_wordpool_576.txt	LTP347	ltpFR2	1	7	PICNIC	1060	n/a	n/a	0	0	0
1353053	WORD	wordpools/wasnorm_wordpool_576.txt	LTP347	ltpFR2	1	7	LEOPARD	812	n/a	n/a	0	0	0
1355869	WORD	wordpools/wasnorm_wordpool_576.txt	LTP347	ltpFR2	1	7	LIGHTNING	820	n/a	n/a	0	0	0
1357486	START	n/a	LTP347	ltpFR2	1	n/a	n/a	n/a	11	n/a	n/a	n/a	n/a
1358448	DISTRACTOR	n/a	LTP347	ltpFR2	1	7	n/a	n/a	n/a	n/a	0	0	0
1358452	PROB	n/a	LTP347	ltpFR2	1	n/a	n/a	n/a	11	15	5	8	2
1359917	PROB	n/a	LTP347	ltpFR2	1	n/a	n/a	n/a	11	13	6	2	5
1362732	PROB	n/a	LTP347	ltpFR2	1	n/a	n/a	n/a	11	25	9	9	7
1365081	PROB	n/a	LTP347	ltpFR2	1	n/a	n/a	n/a	11	9	3	1	5
1366980	PROB	n/a	LTP347	ltpFR2	1	n/a	n/a	n/a	11	16	7	2	7
1368531	PROB	n/a	LTP347	ltpFR2	1	n/a	n/a	n/a	11	12	1	7	4
1370280	PROB	n/a	LTP347	ltpFR2	1	n/a	n/a	n/a	11	12	3	7	2
1371446	PROB	n/a	LTP347	ltpFR2	1	n/a	n/a	n/a	11	14	2	7	5
1373462	PROB	n/a	LTP347	ltpFR2	1	n/a	n/a	n/a	11	12	2	2	8
1374844	PROB	n/a	LTP347	ltpFR2	1	n/a	n/a	n/a	11	16	8	3	5
1376627	PROB	n/a	LTP347	ltpFR2	1	n/a	n/a	n/a	11	21	8	7	6
1378958	PROB	n/a	LTP347	ltpFR2	1	n/a	n/a	n/a	11	15	2	8	5
1380137	STOP	n/a	LTP347	ltpFR2	1	n/a	n/a	n/a	11	n/a	n/a	n/a	n/a
1383391	REC_START	n/a	LTP347	ltpFR2	1	7	n/a	n/a	n/a	n/a	0	0	0
1385455	REC_WORD	wordpools/wasnorm_wordpool_576.txt	LTP347	ltpFR2	1	7	PUPPY	1144	n/a	n/a	0	0	0
1386435	REC_WORD	wordpools/wasnorm_wordpool_576.txt	LTP347	ltpFR2	1	7	SCRIBBLE	1256	n/a	n/a	0	0	0
1389878	REC_WORD	wordpools/wasnorm_wordpool_576.txt	LTP347	ltpFR2	1	7	BUTCHER	203	n/a	n/a	0	0	0
1393760	REC_WORD	wordpools/wasnorm_wordpool_576.txt	LTP347	ltpFR2	1	7	TRENCH	1503	n/a	n/a	0	0	0
1396584	REC_WORD	wordpools/wasnorm_wordpool_576.txt	LTP347	ltpFR2	1	7	MAILMAN	858	n/a	n/a	0	0	0
1398749	REC_WORD	wordpools/wasnorm_wordpool_576.txt	LTP347	ltpFR2	1	7	CAMEL	223	n/a	n/a	0	0	0
1400541	REC_WORD	wordpools/wasnorm_wordpool_576.txt	LTP347	ltpFR2	1	7	ASIA	46	n/a	n/a	0	0	0
1402381	REC_WORD	wordpools/wasnorm_wordpool_576.txt	LTP347	ltpFR2	1	7	COUNTRY	388	n/a	n/a	0	0	0
1403910	REC_WORD	wordpools/wasnorm_wordpool_576.txt	LTP347	ltpFR2	1	7	PIMPLE	1071	n/a	n/a	0	0	0
1405261	REC_WORD	wordpools/wasnorm_wordpool_576.txt	LTP347	ltpFR2	1	7	GARLIC	624	n/a	n/a	0	0	0
1406891	REC_WORD	wordpools/wasnorm_wordpool_576.txt	LTP347	ltpFR2	1	7	MAILBOX	857	n/a	n/a	0	0	0
1414305	REC_WORD	wordpools/wasnorm_wordpool_576.txt	LTP347	ltpFR2	1	7	BARLEY	88	n/a	n/a	0	0	0
1414810	REC_WORD	wordpools/wasnorm_wordpool_576.txt	LTP347	ltpFR2	1	7	XEROX	1628	n/a	n/a	0	0	0
1415495	REC_WORD	wordpools/wasnorm_wordpool_576.txt	LTP347	ltpFR2	1	7	MACHINE	852	n/a	n/a	0	0	0
1420694	REC_WORD	wordpools/wasnorm_wordpool_576.txt	LTP347	ltpFR2	1	7	TOASTER	1472	n/a	n/a	0	0	0
1421214	REC_WORD	wordpools/wasnorm_wordpool_576.txt	LTP347	ltpFR2	1	7	SKILLET	1317	n/a	n/a	0	0	0
1422016	REC_WORD	wordpools/wasnorm_wordpool_576.txt	LTP347	ltpFR2	1	7	BLENDER	136	n/a	n/a	0	0	0
1434504	REC_WORD	wordpools/wasnorm_wordpool_576.txt	LTP347	ltpFR2	1	7	PICNIC	1060	n/a	n/a	0	0	0
1435388	REC_WORD	wordpools/wasnorm_wordpool_576.txt	LTP347	ltpFR2	1	7	LEOPARD	812	n/a	n/a	0	0	0
1435924	REC_WORD	wordpools/wasnorm_wordpool_576.txt	LTP347	ltpFR2	1	7	LIGHTNING	820	n/a	n/a	0	0	0
1473849	WORD	wordpools/wasnorm_wordpool_576.txt	LTP347	ltpFR2	1	8	CRIB	407	n/a	n/a	0	0	0
1476598	WORD	wordpools/wasnorm_wordpool_576.txt	LTP347	ltpFR2	1	8	INFANT	737	n/a	n/a	0	0	0
1479230	WORD	wordpools/wasnorm_wordpool_576.txt	LTP347	ltpFR2	1	8	NEUTRON	947	n/a	n/a	0	0	0
1481795	WORD	wordpools/wasnorm_wordpool_576.txt	LTP347	ltpFR2	1	8	STAMP	1370	n/a	n/a	0	0	0
1484461	WORD	wordpools/wasnorm_wordpool_576.txt	LTP347	ltpFR2	1	8	STUDENT	1395	n/a	n/a	0	0	0
1487076	WORD	wordpools/wasnorm_wordpool_576.txt	LTP347	ltpFR2	1	8	CHEMIST	292	n/a	n/a	0	0	0
1489725	WORD	wordpools/wasnorm_wordpool_576.txt	LTP347	ltpFR2	1	8	BOX	159	n/a	n/a	0	0	0
1492524	WORD	wordpools/wasnorm_wordpool_576.txt	LTP347	ltpFR2	1	8	VENUS	1557	n/a	n/a	0	0	0
1495307	WORD	wordpools/wasnorm_wordpool_576.txt	LTP347	ltpFR2	1	8	MESSAGE	888	n/a	n/a	0	0	0
1497971	WORD	wordpools/wasnorm_wordpool_576.txt	LTP347	ltpFR2	1	8	BOYFRIEND	162	n/a	n/a	0	0	0
1500670	WORD	wordpools/wasnorm_wordpool_576.txt	LTP347	ltpFR2	1	8	BOUQUET	157	n/a	n/a	0	0	0
1503152	WORD	wordpools/wasnorm_wordpool_576.txt	LTP347	ltpFR2	1	8	ICING	732	n/a	n/a	0	0	0
1505668	WORD	wordpools/wasnorm_wordpool_576.txt	LTP347	ltpFR2	1	8	SHORTCAKE	1292	n/a	n/a	0	0	0
1508166	WORD	wordpools/wasnorm_wordpool_576.txt	LTP347	ltpFR2	1	8	SCULPTURE	1258	n/a	n/a	0	0	0
1510965	WORD	wordpools/wasnorm_wordpool_576.txt	LTP347	ltpFR2	1	8	PILOT	1070	n/a	n/a	0	0	0
1513432	WORD	wordpools/wasnorm_wordpool_576.txt	LTP347	ltpFR2	1	8	CONTRACT	368	n/a	n/a	0	0	0
1515896	WORD	wordpools/wasnorm_wordpool_576.txt	LTP347	ltpFR2	1	8	SUNRISE	1407	n/a	n/a	0	0	0
1518546	WORD	wordpools/wasnorm_wordpool_576.txt	LTP347	ltpFR2	1	8	AIRPLANE	12	n/a	n/a	0	0	0
1521094	WORD	wordpools/wasnorm_wordpool_576.txt	LTP347	ltpFR2	1	8	WAITER	1580	n/a	n/a	0	0	0
1523876	WORD	wordpools/wasnorm_wordpool_576.txt	LTP347	ltpFR2	1	8	SUNSET	1408	n/a	n/a	0	0	0
1526359	WORD	wordpools/wasnorm_wordpool_576.txt	LTP347	ltpFR2	1	8	BUCKET	184	n/a	n/a	0	0	0
1529107	WORD	wordpools/wasnorm_wordpool_576.txt	LTP347	ltpFR2	1	8	COBRA	336	n/a	n/a	0	0	0
1531756	WORD	wordpools/wasnorm_wordpool_576.txt	LTP347	ltpFR2	1	8	POSTAGE	1113	n/a	n/a	0	0	0
1534356	WORD	wordpools/wasnorm_wordpool_576.txt	LTP347	ltpFR2	1	8	LEADER	807	n/a	n/a	0	0	0
1535971	START	n/a	LTP347	ltpFR2	1	n/a	n/a	n/a	12	n/a	n/a	n/a	n/a
1536817	DISTRACTOR	n/a	LTP347	ltpFR2	1	8	n/a	n/a	n/a	n/a	0	0	0
1536820	PROB	n/a	LTP347	ltpFR2	1	n/a	n/a	n/a	12	15	1	9	5
1539253	PROB	n/a	LTP347	ltpFR2	1	n/a	n/a	n/a	12	17	6	7	4
1541051	PROB	n/a	LTP347	ltpFR2	1	n/a	n/a	n/a	12	13	6	1	6
1542585	PROB	n/a	LTP347	ltpFR2	1	n/a	n/a	n/a	12	11	6	1	4
1544050	PROB	n/a	LTP347	ltpFR2	1	n/a	n/a	n/a	12	16	4	9	3
1546083	PROB	n/a	LTP347	ltpFR2	1	n/a	n/a	n/a	12	17	7	3	7
1547600	PROB	n/a	LTP347	ltpFR2	1	n/a	n/a	n/a	12	13	3	3	7
1549181	PROB	n/a	LTP347	ltpFR2	1	n/a	n/a	n/a	12	6	3	1	2
1550348	PROB	n/a	LTP347	ltpFR2	1	n/a	n/a	n/a	12	12	4	2	6
1551564	PROB	n/a	LTP347	ltpFR2	1	n/a	n/a	n/a	12	19	4	7	8
1553163	PROB	n/a	LTP347	ltpFR2	1	n/a	n/a	n/a	12	19	7	4	8
1554929	PROB	n/a	LTP347	ltpFR2	1	n/a	n/a	n/a	12	6	2	1	3
1556095	PROB	n/a	LTP347	ltpFR2	1	n/a	n/a	n/a	12	10	1	4	5
1557345	PROB	n/a	LTP347	ltpFR2	1	n/a	n/a	n/a	12	6	2	3	1
1558439	STOP	n/a	LTP347	ltpFR2	1	n/a	n/a	n/a	12	n/a	n/a	n/a	n/a
1561726	REC_START	n/a	LTP347	ltpFR2	1	8	n/a	n/a	n/a	n/a	0	0	0
1564687	REC_WORD	wordpools/wasnorm_wordpool_576.txt	LTP347	ltpFR2	1	8	INFANT	737	n/a	n/a	0	0	0
1565577	REC_WORD	wordpools/wasnorm_wordpool_576.txt	LTP347	ltpFR2	1	8	CRIB	407	n/a	n/a	0	0	0
1566353	REC_WORD	wordpools/wasnorm_wordpool_576.txt	LTP347	ltpFR2	1	8	NEUTRON	947	n/a	n/a	0	0	0
1567353	REC_WORD_VV	wordpools/wasnorm_wordpool_576.txt	LTP347	ltpFR2	1	8	<>	-1	n/a	n/a	0	0	0
1570957	REC_WORD	wordpools/wasnorm_wordpool_576.txt	LTP347	ltpFR2	1	8	STAMP	1370	n/a	n/a	0	0	0
1571578	REC_WORD	wordpools/wasnorm_wordpool_576.txt	LTP347	ltpFR2	1	8	POSTAGE	1113	n/a	n/a	0	0	0
1574267	REC_WORD	wordpools/wasnorm_wordpool_576.txt	LTP347	ltpFR2	1	8	STUDENT	1395	n/a	n/a	0	0	0
1575110	REC_WORD	wordpools/wasnorm_wordpool_576.txt	LTP347	ltpFR2	1	8	CHEMIST	292	n/a	n/a	0	0	0
1578736	REC_WORD	wordpools/wasnorm_wordpool_576.txt	LTP347	ltpFR2	1	8	VENUS	1557	n/a	n/a	0	0	0
1580165	REC_WORD	wordpools/wasnorm_wordpool_576.txt	LTP347	ltpFR2	1	8	BOX	159	n/a	n/a	0	0	0
1582927	REC_WORD	wordpools/wasnorm_wordpool_576.txt	LTP347	ltpFR2	1	8	BOYFRIEND	162	n/a	n/a	0	0	0
1583927	REC_WORD_VV	wordpools/wasnorm_wordpool_576.txt	LTP347	ltpFR2	1	8	<>	-1	n/a	n/a	0	0	0
1589832	REC_WORD	wordpools/wasnorm_wordpool_576.txt	LTP347	ltpFR2	1	8	PILOT	1070	n/a	n/a	0	0	0
1591772	REC_WORD	wordpools/wasnorm_wordpool_576.txt	LTP347	ltpFR2	1	8	WAITER	1580	n/a	n/a	0	0	0
1594247	REC_WORD	wordpools/wasnorm_wordpool_576.txt	LTP347	ltpFR2	1	8	SUNRISE	1407	n/a	n/a	0	0	0
1601509	REC_WORD	wordpools/wasnorm_wordpool_576.txt	LTP347	ltpFR2	1	8	BOUQUET	157	n/a	n/a	0	0	0
1602534	REC_WORD	wordpools/wasnorm_wordpool_576.txt	LTP347	ltpFR2	1	8	SHORTCAKE	1292	n/a	n/a	0	0	0
1603995	REC_WORD	wordpools/wasnorm_wordpool_576.txt	LTP347	ltpFR2	1	8	ICING	732	n/a	n/a	0	0	0
1605849	REC_WORD	wordpools/wasnorm_wordpool_576.txt	LTP347	ltpFR2	1	8	BUCKET	184	n/a	n/a	0	0	0
1606185	REC_WORD	wordpools/wasnorm_wordpool_576.txt	LTP347	ltpFR2	1	8	SCULPTURE	1258	n/a	n/a	0	0	0
1612575	REC_WORD	wordpools/wasnorm_wordpool_576.txt	LTP347	ltpFR2	1	8	AIRPLANE	12	n/a	n/a	0	0	0
1613126	REC_WORD	wordpools/wasnorm_wordpool_576.txt	LTP347	ltpFR2	1	8	SUNSET	1408	n/a	n/a	0	0	0
1614599	REC_WORD	wordpools/wasnorm_wordpool_576.txt	LTP347	ltpFR2	1	8	LEADER	807	n/a	n/a	0	0	0
1638258	REST_REWET	n/a	LTP347	ltpFR2	1	8	n/a	n/a	n/a	n/a	0	0	0
1851661	WORD	wordpools/wasnorm_wordpool_576.txt	LTP347	ltpFR2	1	9	RIVER	1194	n/a	n/a	0	0	0
1854176	WORD	wordpools/wasnorm_wordpool_576.txt	LTP347	ltpFR2	1	9	GLASS	639	n/a	n/a	0	0	0
1856875	WORD	wordpools/wasnorm_wordpool_576.txt	LTP347	ltpFR2	1	9	OMELET	976	n/a	n/a	0	0	0
1859558	WORD	wordpools/wasnorm_wordpool_576.txt	LTP347	ltpFR2	1	9	COLLEGE	346	n/a	n/a	0	0	0
1862139	WORD	wordpools/wasnorm_wordpool_576.txt	LTP347	ltpFR2	1	9	BATHTUB	100	n/a	n/a	0	0	0
1864688	WORD	wordpools/wasnorm_wordpool_576.txt	LTP347	ltpFR2	1	9	SMOG	1330	n/a	n/a	0	0	0
1867354	WORD	wordpools/wasnorm_wordpool_576.txt	LTP347	ltpFR2	1	9	BULLET	194	n/a	n/a	0	0	0
1869952	WORD	wordpools/wasnorm_wordpool_576.txt	LTP347	ltpFR2	1	9	RIFLE	1192	n/a	n/a	0	0	0
1872502	WORD	wordpools/wasnorm_wordpool_576.txt	LTP347	ltpFR2	1	9	DASHBOARD	441	n/a	n/a	0	0	0
1874983	WORD	wordpools/wasnorm_wordpool_576.txt	LTP347	ltpFR2	1	9	CAFE	216	n/a	n/a	0	0	0
1877467	WORD	wordpools/wasnorm_wordpool_576.txt	LTP347	ltpFR2	1	9	DOUGHNUT	490	n/a	n/a	0	0	0
1880064	WORD	wordpools/wasnorm_wordpool_576.txt	LTP347	ltpFR2	1	9	PUPIL	1143	n/a	n/a	0	0	0
1882648	WORD	wordpools/wasnorm_wordpool_576.txt	LTP347	ltpFR2	1	9	CONCERT	360	n/a	n/a	0	0	0
1885296	WORD	wordpools/wasnorm_wordpool_576.txt	LTP347	ltpFR2	1	9	CLOCK	325	n/a	n/a	0	0	0
1887977	WORD	wordpools/wasnorm_wordpool_576.txt	LTP347	ltpFR2	1	9	BUBBLE	183	n/a	n/a	0	0	0
1890676	WORD	wordpools/wasnorm_wordpool_576.txt	LTP347	ltpFR2	1	9	COWBOY	395	n/a	n/a	0	0	0
1893293	WORD	wordpools/wasnorm_wordpool_576.txt	LTP347	ltpFR2	1	9	ROBOT	1200	n/a	n/a	0	0	0
1896024	WORD	wordpools/wasnorm_wordpool_576.txt	LTP347	ltpFR2	1	9	SAUSAGE	1238	n/a	n/a	0	0	0
1898590	WORD	wordpools/wasnorm_wordpool_576.txt	LTP347	ltpFR2	1	9	SALAD	1224	n/a	n/a	0	0	0
1901055	WORD	wordpools/wasnorm_wordpool_576.txt	LTP347	ltpFR2	1	9	KITCHEN	778	n/a	n/a	0	0	0
1903737	WORD	wordpools/wasnorm_wordpool_576.txt	LTP347	ltpFR2	1	9	TYPIST	1532	n/a	n/a	0	0	0
1906303	WORD	wordpools/wasnorm_wordpool_576.txt	LTP347	ltpFR2	1	9	LIVER	833	n/a	n/a	0	0	0
1909051	WORD	wordpools/wasnorm_wordpool_576.txt	LTP347	ltpFR2	1	9	DOLPHIN	483	n/a	n/a	0	0	0
1911484	WORD	wordpools/wasnorm_wordpool_576.txt	LTP347	ltpFR2	1	9	TROMBONE	1508	n/a	n/a	0	0	0
1913100	START	n/a	LTP347	ltpFR2	1	n/a	n/a	n/a	13	n/a	n/a	n/a	n/a
1913980	DISTRACTOR	n/a	LTP347	ltpFR2	1	9	n/a	n/a	n/a	n/a	0	0	0
1913982	PROB	n/a	LTP347	ltpFR2	1	n/a	n/a	n/a	13	16	9	6	1
1915333	PROB	n/a	LTP347	ltpFR2	1	n/a	n/a	n/a	13	17	6	8	3
1917847	PROB	n/a	LTP347	ltpFR2	1	n/a	n/a	n/a	13	19	7	5	7
1919631	PROB	n/a	LTP347	ltpFR2	1	n/a	n/a	n/a	13	12	7	1	4
1921297	PROB	n/a	LTP347	ltpFR2	1	n/a	n/a	n/a	13	17	6	6	5
1922613	PROB	n/a	LTP347	ltpFR2	1	n/a	n/a	n/a	13	22	6	6	9
1924628	PROB	n/a	LTP347	ltpFR2	1	n/a	n/a	n/a	13	16	8	5	3
1926594	PROB	n/a	LTP347	ltpFR2	1	n/a	n/a	n/a	13	13	1	6	6
1928093	PROB	n/a	LTP347	ltpFR2	1	n/a	n/a	n/a	13	19	7	6	6
1930359	PROB	n/a	LTP347	ltpFR2	1	n/a	n/a	n/a	13	14	5	4	5
1931708	PROB	n/a	LTP347	ltpFR2	1	n/a	n/a	n/a	13	14	8	3	3
1933308	PROB	n/a	LTP347	ltpFR2	1	n/a	n/a	n/a	13	14	8	2	4
1934656	PROB	n/a	LTP347	ltpFR2	1	n/a	n/a	n/a	13	19	6	7	6
1936307	STOP	n/a	LTP347	ltpFR2	1	n/a	n/a	n/a	13	n/a	n/a	n/a	n/a
1938955	REC_START	n/a	LTP347	ltpFR2	1	9	n/a	n/a	n/a	n/a	0	0	0
1941450	REC_WORD	wordpools/wasnorm_wordpool_576.txt	LTP347	ltpFR2	1	9	RIVER	1194	n/a	n/a	0	0	0
1942253	REC_WORD	wordpools/wasnorm_wordpool_576.txt	LTP347	ltpFR2	1	9	GLASS	639	n/a	n/a	0	0	0
1943148	REC_WORD	wordpools/wasnorm_wordpool_576.txt	LTP347	ltpFR2	1	9	OMELET	976	n/a	n/a	0	0	0
1943893	REC_WORD	wordpools/wasnorm_wordpool_576.txt	LTP347	ltpFR2	1	9	COLLEGE	346	n/a	n/a	0	0	0
1947205	REC_WORD	wordpools/wasnorm_wordpool_576.txt	LTP347	ltpFR2	1	9	SMOG	1330	n/a	n/a	0	0	0
1948913	REC_WORD	wordpools/wasnorm_wordpool_576.txt	LTP347	ltpFR2	1	9	BULLET	194	n/a	n/a	0	0	0
1949225	REC_WORD	wordpools/wasnorm_wordpool_576.txt	LTP347	ltpFR2	1	9	RIFLE	1192	n/a	n/a	0	0	0
1951144	REC_WORD	wordpools/wasnorm_wordpool_576.txt	LTP347	ltpFR2	1	9	DASHBOARD	441	n/a	n/a	0	0	0
1952072	REC_WORD	wordpools/wasnorm_wordpool_576.txt	LTP347	ltpFR2	1	9	CAFE	216	n/a	n/a	0	0	0
1954159	REC_WORD	wordpools/wasnorm_wordpool_576.txt	LTP347	ltpFR2	1	9	DOUGHNUT	490	n/a	n/a	0	0	0
1957924	REC_WORD	wordpools/wasnorm_wordpool_576.txt	LTP347	ltpFR2	1	9	TYPIST	1532	n/a	n/a	0	0	0
1958424	REC_WORD	wordpools/wasnorm_wordpool_576.txt	LTP347	ltpFR2	1	9	LIVER	833	n/a	n/a	0	0	0
1964761	REC_WORD	wordpools/wasnorm_wordpool_576.txt	LTP347	ltpFR2	1	9	PUPIL	1143	n/a	n/a	0	0	0
1966820	REC_WORD	wordpools/wasnorm_wordpool_576.txt	LTP347	ltpFR2	1	9	BUBBLE	183	n/a	n/a	0	0	0
1970661	REC_WORD	wordpools/wasnorm_wordpool_576.txt	LTP347	ltpFR2	1	9	COWBOY	395	n/a	n/a	0	0	0
1971327	REC_WORD	wordpools/wasnorm_wordpool_576.txt	LTP347	ltpFR2	1	9	ROBOT	1200	n/a	n/a	0	0	0
1972079	REC_WORD	wordpools/wasnorm_wordpool_576.txt	LTP347	ltpFR2	1	9	SAUSAGE	1238	n/a	n/a	0	0	0
1972862	REC_WORD	wordpools/wasnorm_wordpool_576.txt	LTP347	ltpFR2	1	9	SALAD	1224	n/a	n/a	0	0	0
1977304	REC_WORD	wordpools/wasnorm_wordpool_576.txt	LTP347	ltpFR2	1	9	DOLPHIN	483	n/a	n/a	0	0	0
2029398	WORD	wordpools/wasnorm_wordpool_576.txt	LTP347	ltpFR2	1	10	SERVANT	1271	n/a	n/a	0	0	0
2031862	WORD	wordpools/wasnorm_wordpool_576.txt	LTP347	ltpFR2	1	10	BLUEPRINT	142	n/a	n/a	0	0	0
2034495	WORD	wordpools/wasnorm_wordpool_576.txt	LTP347	ltpFR2	1	10	THRONE	1461	n/a	n/a	0	0	0
2037211	WORD	wordpools/wasnorm_wordpool_576.txt	LTP347	ltpFR2	1	10	ANTLER	29	n/a	n/a	0	0	0
2039925	WORD	wordpools/wasnorm_wordpool_576.txt	LTP347	ltpFR2	1	10	SKETCH	1315	n/a	n/a	0	0	0
2042625	WORD	wordpools/wasnorm_wordpool_576.txt	LTP347	ltpFR2	1	10	JOURNAL	760	n/a	n/a	0	0	0
2045290	WORD	wordpools/wasnorm_wordpool_576.txt	LTP347	ltpFR2	1	10	DRUG	501	n/a	n/a	0	0	0
2048055	WORD	wordpools/wasnorm_wordpool_576.txt	LTP347	ltpFR2	1	10	FOREHEAD	592	n/a	n/a	0	0	0
2050870	WORD	wordpools/wasnorm_wordpool_576.txt	LTP347	ltpFR2	1	10	DIME	466	n/a	n/a	0	0	0
2053453	WORD	wordpools/wasnorm_wordpool_576.txt	LTP347	ltpFR2	1	10	SHELTER	1282	n/a	n/a	0	0	0
2056084	WORD	wordpools/wasnorm_wordpool_576.txt	LTP347	ltpFR2	1	10	BADGE	68	n/a	n/a	0	0	0
2058618	WORD	wordpools/wasnorm_wordpool_576.txt	LTP347	ltpFR2	1	10	BRACES	164	n/a	n/a	0	0	0
2061217	WORD	wordpools/wasnorm_wordpool_576.txt	LTP347	ltpFR2	1	10	SHERIFF	1284	n/a	n/a	0	0	0
2063649	WORD	wordpools/wasnorm_wordpool_576.txt	LTP347	ltpFR2	1	10	SODA	1341	n/a	n/a	0	0	0
2066397	WORD	wordpools/wasnorm_wordpool_576.txt	LTP347	ltpFR2	1	10	OUTLAW	989	n/a	n/a	0	0	0
2069229	WORD	wordpools/wasnorm_wordpool_576.txt	LTP347	ltpFR2	1	10	MILK	895	n/a	n/a	0	0	0
2071927	WORD	wordpools/wasnorm_wordpool_576.txt	LTP347	ltpFR2	1	10	NIGHTGOWN	953	n/a	n/a	0	0	0
2074577	WORD	wordpools/wasnorm_wordpool_576.txt	LTP347	ltpFR2	1	10	MARSH	874	n/a	n/a	0	0	0
2077293	WORD	wordpools/wasnorm_wordpool_576.txt	LTP347	ltpFR2	1	10	MARROW	872	n/a	n/a	0	0	0
2079924	WORD	wordpools/wasnorm_wordpool_576.txt	LTP347	ltpFR2	1	10	BACKBONE	66	n/a	n/a	0	0	0
2082672	WORD	wordpools/wasnorm_wordpool_576.txt	LTP347	ltpFR2	1	10	HOUND	724	n/a	n/a	0	0	0
2085372	WORD	wordpools/wasnorm_wordpool_576.txt	LTP347	ltpFR2	1	10	MONEY	908	n/a	n/a	0	0	0
2087970	WORD	wordpools/wasnorm_wordpool_576.txt	LTP347	ltpFR2	1	10	THREAD	1460	n/a	n/a	0	0	0
2090487	WORD	wordpools/wasnorm_wordpool_576.txt	LTP347	ltpFR2	1	10	SPOOL	1356	n/a	n/a	0	0	0
2092102	START	n/a	LTP347	ltpFR2	1	n/a	n/a	n/a	14	n/a	n/a	n/a	n/a
2093255	DISTRACTOR	n/a	LTP347	ltpFR2	1	10	n/a	n/a	n/a	n/a	0	0	0
2093269	PROB	n/a	LTP347	ltpFR2	1	n/a	n/a	n/a	14	12	4	7	1
2094651	PROB	n/a	LTP347	ltpFR2	1	n/a	n/a	n/a	14	10	3	6	1
2096066	PROB	n/a	LTP347	ltpFR2	1	n/a	n/a	n/a	14	11	5	3	3
2097999	PROB	n/a	LTP347	ltpFR2	1	n/a	n/a	n/a	14	15	1	8	6
2100549	PROB	n/a	LTP347	ltpFR2	1	n/a	n/a	n/a	14	10	2	4	4
2102130	PROB	n/a	LTP347	ltpFR2	1	n/a	n/a	n/a	14	13	5	4	4
2105146	PROB	n/a	LTP347	ltpFR2	1	n/a	n/a	n/a	14	17	3	6	9
2106745	PROB	n/a	LTP347	ltpFR2	1	n/a	n/a	n/a	14	16	9	3	4
2109144	PROB	n/a	LTP347	ltpFR2	1	n/a	n/a	n/a	14	16	5	6	5
2110461	PROB	n/a	LTP347	ltpFR2	1	n/a	n/a	n/a	14	15	2	6	7
2112393	PROB	n/a	LTP347	ltpFR2	1	n/a	n/a	n/a	14	5	1	3	1
2113426	PROB	n/a	LTP347	ltpFR2	1	n/a	n/a	n/a	14	14	5	8	1
2114904	STOP	n/a	LTP347	ltpFR2	1	n/a	n/a	n/a	14	n/a	n/a	n/a	n/a
2117940	REC_START	n/a	LTP347	ltpFR2	1	10	n/a	n/a	n/a	n/a	0	0	0
2120791	REC_WORD	wordpools/wasnorm_wordpool_576.txt	LTP347	ltpFR2	1	10	SERVANT	1271	n/a	n/a	0	0	0
2121842	REC_WORD	wordpools/wasnorm_wordpool_576.txt	LTP347	ltpFR2	1	10	BLUEPRINT	142	n/a	n/a	0	0	0
2122886	REC_WORD	wordpools/wasnorm_wordpool_576.txt	LTP347	ltpFR2	1	10	JOURNAL	760	n/a	n/a	0	0	0
2123396	REC_WORD	wordpools/wasnorm_wordpool_576.txt	LTP347	ltpFR2	1	10	THRONE	1461	n/a	n/a	0	0	0
2124339	REC_WORD	wordpools/wasnorm_wordpool_576.txt	LTP347	ltpFR2	1	10	ANTLER	29	n/a	n/a	0	0	0
2132603	REC_WORD	wordpools/wasnorm_wordpool_576.txt	LTP347	ltpFR2	1	10	DRUG	501	n/a	n/a	0	0	0
2134547	REC_WORD	wordpools/wasnorm_wordpool_576.txt	LTP347	ltpFR2	1	10	DIME	466	n/a	n/a	0	0	0
2136115	REC_WORD	wordpools/wasnorm_wordpool_576.txt	LTP347	ltpFR2	1	10	FOREHEAD	592	n/a	n/a	0	0	0
2144249	REC_WORD	wordpools/wasnorm_wordpool_576.txt	LTP347	ltpFR2	1	10	SHELTER	1282	n/a	n/a	0	0	0
2145523	REC_WORD	wordpools/wasnorm_wordpool_576.txt	LTP347	ltpFR2	1	10	BADGE	68	n/a	n/a	0	0	0
2146851	REC_WORD	wordpools/wasnorm_wordpool_576.txt	LTP347	ltpFR2	1	10	SHERIFF	1284	n/a	n/a	0	0	0
2148158	REC_WORD	wordpools/wasnorm_wordpool_576.txt	LTP347	ltpFR2	1	10	BRACES	164	n/a	n/a	0	0	0
2149834	REC_WORD	wordpools/wasnorm_wordpool_576.txt	LTP347	ltpFR2	1	10	SODA	1341	n/a	n/a	0	0	0
2152425	REC_WORD	wordpools/wasnorm_wordpool_576.txt	LTP347	ltpFR2	1	10	BACKBONE	66	n/a	n/a	0	0	0
2159338	REC_WORD	wordpools/wasnorm_wordpool_576.txt	LTP347	ltpFR2	1	10	NIGHTGOWN	953	n/a	n/a	0	0	0
2161164	REC_WORD	wordpools/wasnorm_wordpool_576.txt	LTP347	ltpFR2	1	10	MARROW	872	n/a	n/a	0	0	0
2163808	REC_WORD	wordpools/wasnorm_wordpool_576.txt	LTP347	ltpFR2	1	10	MARSH	874	n/a	n/a	0	0	0
2167616	REC_WORD	wordpools/wasnorm_wordpool_576.txt	LTP347	ltpFR2	1	10	HOUND	724	n/a	n/a	0	0	0
2170433	REC_WORD	wordpools/wasnorm_wordpool_576.txt	LTP347	ltpFR2	1	10	MONEY	908	n/a	n/a	0	0	0
2171967	REC_WORD	wordpools/wasnorm_wordpool_576.txt	LTP347	ltpFR2	1	10	THREAD	1460	n/a	n/a	0	0	0
2172582	REC_WORD	wordpools/wasnorm_wordpool_576.txt	LTP347	ltpFR2	1	10	SPOOL	1356	n/a	n/a	0	0	0
2208383	DISTRACTOR	n/a	LTP347	ltpFR2	1	11	n/a	n/a	n/a	n/a	0	0	0
2208383	START	n/a	LTP347	ltpFR2	1	n/a	n/a	n/a	15	n/a	n/a	n/a	n/a
2208400	PROB	n/a	LTP347	ltpFR2	1	n/a	n/a	n/a	15	18	3	7	8
2209781	PROB	n/a	LTP347	ltpFR2	1	n/a	n/a	n/a	15	13	1	4	8
2211615	PROB	n/a	LTP347	ltpFR2	1	n/a	n/a	n/a	15	19	5	8	6
2214063	PROB	n/a	LTP347	ltpFR2	1	n/a	n/a	n/a	15	17	3	9	5
2216012	PROB	n/a	LTP347	ltpFR2	1	n/a	n/a	n/a	15	9	4	1	4
2217045	PROB	n/a	LTP347	ltpFR2	1	n/a	n/a	n/a	15	19	6	3	6
2219595	PROB	n/a	LTP347	ltpFR2	1	n/a	n/a	n/a	15	17	4	9	4
2222059	PROB	n/a	LTP347	ltpFR2	1	n/a	n/a	n/a	15	15	1	7	7
2223858	PROB	n/a	LTP347	ltpFR2	1	n/a	n/a	n/a	15	20	8	3	9
2225292	PROB	n/a	LTP347	ltpFR2	1	n/a	n/a	n/a	15	24	9	9	6
2228407	PROB	n/a	LTP347	ltpFR2	1	n/a	n/a	n/a	15	19	7	8	4
2229856	PROB	n/a	LTP347	ltpFR2	1	n/a	n/a	n/a	15	15	6	2	7
2231171	STOP	n/a	LTP347	ltpFR2	1	n/a	n/a	n/a	15	n/a	n/a	n/a	n/a
2233405	WORD	wordpools/wasnorm_wordpool_576.txt	LTP347	ltpFR2	1	11	COMPASS	358	n/a	n/a	0	0	0
2235903	WORD	wordpools/wasnorm_wordpool_576.txt	LTP347	ltpFR2	1	11	BRICK	172	n/a	n/a	0	0	0
2238603	WORD	wordpools/wasnorm_wordpool_576.txt	LTP347	ltpFR2	1	11	LADDER	793	n/a	n/a	0	0	0
2241134	WORD	wordpools/wasnorm_wordpool_576.txt	LTP347	ltpFR2	1	11	DRESSER	496	n/a	n/a	0	0	0
2243899	WORD	wordpools/wasnorm_wordpool_576.txt	LTP347	ltpFR2	1	11	CLOTHES	327	n/a	n/a	0	0	0
2246599	WORD	wordpools/wasnorm_wordpool_576.txt	LTP347	ltpFR2	1	11	LAMP	798	n/a	n/a	0	0	0
2249248	WORD	wordpools/wasnorm_wordpool_576.txt	LTP347	ltpFR2	1	11	ICEBERG	731	n/a	n/a	0	0	0
2251779	WORD	wordpools/wasnorm_wordpool_576.txt	LTP347	ltpFR2	1	11	BANJO	82	n/a	n/a	0	0	0
2254262	WORD	wordpools/wasnorm_wordpool_576.txt	LTP347	ltpFR2	1	11	LUGGAGE	847	n/a	n/a	0	0	0
2256993	WORD	wordpools/wasnorm_wordpool_576.txt	LTP347	ltpFR2	1	11	ISLAND	745	n/a	n/a	0	0	0
2259675	WORD	wordpools/wasnorm_wordpool_576.txt	LTP347	ltpFR2	1	11	PARSLEY	1016	n/a	n/a	0	0	0
2262292	WORD	wordpools/wasnorm_wordpool_576.txt	LTP347	ltpFR2	1	11	PEPPER	1047	n/a	n/a	0	0	0
2264756	WORD	wordpools/wasnorm_wordpool_576.txt	LTP347	ltpFR2	1	11	FIREPLACE	570	n/a	n/a	0	0	0
2267406	WORD	wordpools/wasnorm_wordpool_576.txt	LTP347	ltpFR2	1	11	PAIL	1002	n/a	n/a	0	0	0
2270104	WORD	wordpools/wasnorm_wordpool_576.txt	LTP347	ltpFR2	1	11	SCARF	1246	n/a	n/a	0	0	0
2272669	WORD	wordpools/wasnorm_wordpool_576.txt	LTP347	ltpFR2	1	11	FLESH	579	n/a	n/a	0	0	0
2275369	WORD	wordpools/wasnorm_wordpool_576.txt	LTP347	ltpFR2	1	11	ARM	38	n/a	n/a	0	0	0
2277884	WORD	wordpools/wasnorm_wordpool_576.txt	LTP347	ltpFR2	1	11	STICKER	1382	n/a	n/a	0	0	0
2280500	WORD	wordpools/wasnorm_wordpool_576.txt	LTP347	ltpFR2	1	11	TORTOISE	1486	n/a	n/a	0	0	0
2283148	WORD	wordpools/wasnorm_wordpool_576.txt	LTP347	ltpFR2	1	11	TWISTER	1530	n/a	n/a	0	0	0
2285680	WORD	wordpools/wasnorm_wordpool_576.txt	LTP347	ltpFR2	1	11	TERMITE	1451	n/a	n/a	0	0	0
2288112	WORD	wordpools/wasnorm_wordpool_576.txt	LTP347	ltpFR2	1	11	SNAIL	1332	n/a	n/a	0	0	0
2290861	WORD	wordpools/wasnorm_wordpool_576.txt	LTP347	ltpFR2	1	11	COD	340	n/a	n/a	0	0	0
2293644	WORD	wordpools/wasnorm_wordpool_576.txt	LTP347	ltpFR2	1	11	BRANCH	168	n/a	n/a	0	0	0
2295260	START	n/a	LTP347	ltpFR2	1	n/a	n/a	n/a	16	n/a	n/a	n/a	n/a
2296453	DISTRACTOR	n/a	LTP347	ltpFR2	1	11	n/a	n/a	n/a	n/a	0	0	0
2296460	PROB	n/a	LTP347	ltpFR2	1	n/a	n/a	n/a	16	15	7	4	4
2298674	PROB	n/a	LTP347	ltpFR2	1	n/a	n/a	n/a	16	15	3	5	7
2299907	PROB	n/a	LTP347	ltpFR2	1	n/a	n/a	n/a	16	23	5	9	8
2302106	PROB	n/a	LTP347	ltpFR2	1	n/a	n/a	n/a	16	12	7	3	2
2303407	PROB	n/a	LTP347	ltpFR2	1	n/a	n/a	n/a	16	18	4	7	7
2305206	PROB	n/a	LTP347	ltpFR2	1	n/a	n/a	n/a	16	12	2	6	4
2306572	PROB	n/a	LTP347	ltpFR2	1	n/a	n/a	n/a	16	18	7	8	3
2308388	PROB	n/a	LTP347	ltpFR2	1	n/a	n/a	n/a	16	24	6	9	9
2310786	PROB	n/a	LTP347	ltpFR2	1	n/a	n/a	n/a	16	18	8	3	7
2312135	PROB	n/a	LTP347	ltpFR2	1	n/a	n/a	n/a	16	19	8	8	3
2314001	PROB	n/a	LTP347	ltpFR2	1	n/a	n/a	n/a	16	9	1	4	4
2315184	PROB	n/a	LTP347	ltpFR2	1	n/a	n/a	n/a	16	12	4	3	5
2319259	STOP	n/a	LTP347	ltpFR2	1	n/a	n/a	n/a	16	n/a	n/a	n/a	n/a
2321065	REC_START	n/a	LTP347	ltpFR2	1	11	n/a	n/a	n/a	n/a	0	0	0
2323353	REC_WORD	wordpools/wasnorm_wordpool_576.txt	LTP347	ltpFR2	1	11	BRICK	172	n/a	n/a	0	0	0
2324606	REC_WORD	wordpools/wasnorm_wordpool_576.txt	LTP347	ltpFR2	1	11	COMPASS	358	n/a	n/a	0	0	0
2327994	REC_WORD	wordpools/wasnorm_wordpool_576.txt	LTP347	ltpFR2	1	11	DRESSER	496	n/a	n/a	0	0	0
2328576	REC_WORD	wordpools/wasnorm_wordpool_576.txt	LTP347	ltpFR2	1	11	CLOTHES	327	n/a	n/a	0	0	0
2329326	REC_WORD	wordpools/wasnorm_wordpool_576.txt	LTP347	ltpFR2	1	11	LADDER	793	n/a	n/a	0	0	0
2329937	REC_WORD	wordpools/wasnorm_wordpool_576.txt	LTP347	ltpFR2	1	11	BRANCH	168	n/a	n/a	0	0	0
2337458	REC_WORD	wordpools/wasnorm_wordpool_576.txt	LTP347	ltpFR2	1	11	TWISTER	1530	n/a	n/a	0	0	0
2338215	REC_WORD	wordpools/wasnorm_wordpool_576.txt	LTP347	ltpFR2	1	11	TERMITE	1451	n/a	n/a	0	0	0
2338839	REC_WORD	wordpools/wasnorm_wordpool_576.txt	LTP347	ltpFR2	1	11	SNAIL	1332	n/a	n/a	0	0	0
2342172	REC_WORD	wordpools/wasnorm_wordpool_576.txt	LTP347	ltpFR2	1	11	COD	340	n/a	n/a	0	0	0
2343992	REC_WORD	wordpools/wasnorm_wordpool_576.txt	LTP347	ltpFR2	1	11	ICEBERG	731	n/a	n/a	0	0	0
2344771	REC_WORD	wordpools/wasnorm_wordpool_576.txt	LTP347	ltpFR2	1	11	ISLAND	745	n/a	n/a	0	0	0
2349053	REC_WORD	wordpools/wasnorm_wordpool_576.txt	LTP347	ltpFR2	1	11	PAIL	1002	n/a	n/a	0	0	0
2384326	REC_WORD_VV	wordpools/wasnorm_wordpool_576.txt	LTP347	ltpFR2	1	11	<>	-1	n/a	n/a	0	0	0
2384506	REC_WORD	wordpools/wasnorm_wordpool_576.txt	LTP347	ltpFR2	1	11	FIREPLACE	570	n/a	n/a	0	0	0
2385427	REC_WORD	wordpools/wasnorm_wordpool_576.txt	LTP347	ltpFR2	1	11	PARSLEY	1016	n/a	n/a	0	0	0
2386159	REC_WORD	wordpools/wasnorm_wordpool_576.txt	LTP347	ltpFR2	1	11	PEPPER	1047	n/a	n/a	0	0	0
2411507	DISTRACTOR	n/a	LTP347	ltpFR2	1	12	n/a	n/a	n/a	n/a	0	0	0
2411508	START	n/a	LTP347	ltpFR2	1	n/a	n/a	n/a	17	n/a	n/a	n/a	n/a
2411524	PROB	n/a	LTP347	ltpFR2	1	n/a	n/a	n/a	17	13	7	2	4
2413905	PROB	n/a	LTP347	ltpFR2	1	n/a	n/a	n/a	17	1	3	9	7
2415272	PROB	n/a	LTP347	ltpFR2	1	n/a	n/a	n/a	17	12	7	2	3
2416522	PROB	n/a	LTP347	ltpFR2	1	n/a	n/a	n/a	17	8	3	1	4
2417588	PROB	n/a	LTP347	ltpFR2	1	n/a	n/a	n/a	17	16	5	3	8
2420287	PROB	n/a	LTP347	ltpFR2	1	n/a	n/a	n/a	17	11	1	8	2
2421852	PROB	n/a	LTP347	ltpFR2	1	n/a	n/a	n/a	17	19	2	9	8
2423435	PROB	n/a	LTP347	ltpFR2	1	n/a	n/a	n/a	17	7	4	2	1
2424967	PROB	n/a	LTP347	ltpFR2	1	n/a	n/a	n/a	17	15	4	4	7
2426750	PROB	n/a	LTP347	ltpFR2	1	n/a	n/a	n/a	17	18	6	5	7
2428932	PROB	n/a	LTP347	ltpFR2	1	n/a	n/a	n/a	17	20	7	9	4
2430664	PROB	n/a	LTP347	ltpFR2	1	n/a	n/a	n/a	17	11	3	1	7
2431914	PROB	n/a	LTP347	ltpFR2	1	n/a	n/a	n/a	17	18	8	5	5
2433248	PROB	n/a	LTP347	ltpFR2	1	n/a	n/a	n/a	17	156	8	5	2
2434426	STOP	n/a	LTP347	ltpFR2	1	n/a	n/a	n/a	17	n/a	n/a	n/a	n/a
2436546	WORD	wordpools/wasnorm_wordpool_576.txt	LTP347	ltpFR2	1	12	GRIZZLY	662	n/a	n/a	0	0	0
2439228	WORD	wordpools/wasnorm_wordpool_576.txt	LTP347	ltpFR2	1	12	DUST	508	n/a	n/a	0	0	0
2441793	WORD	wordpools/wasnorm_wordpool_576.txt	LTP347	ltpFR2	1	12	JEANS	752	n/a	n/a	0	0	0
2444226	WORD	wordpools/wasnorm_wordpool_576.txt	LTP347	ltpFR2	1	12	FRAME	600	n/a	n/a	0	0	0
2446907	WORD	wordpools/wasnorm_wordpool_576.txt	LTP347	ltpFR2	1	12	EMPIRE	530	n/a	n/a	0	0	0
2449623	WORD	wordpools/wasnorm_wordpool_576.txt	LTP347	ltpFR2	1	12	WITNESS	1618	n/a	n/a	0	0	0
2452155	WORD	wordpools/wasnorm_wordpool_576.txt	LTP347	ltpFR2	1	12	WHISKERS	1605	n/a	n/a	0	0	0
2454837	WORD	wordpools/wasnorm_wordpool_576.txt	LTP347	ltpFR2	1	12	FRECKLE	602	n/a	n/a	0	0	0
2457570	WORD	wordpools/wasnorm_wordpool_576.txt	LTP347	ltpFR2	1	12	SEAFOOD	1260	n/a	n/a	0	0	0
2460369	WORD	wordpools/wasnorm_wordpool_576.txt	LTP347	ltpFR2	1	12	STAPLE	1371	n/a	n/a	0	0	0
2463150	WORD	wordpools/wasnorm_wordpool_576.txt	LTP347	ltpFR2	1	12	AUTHOR	61	n/a	n/a	0	0	0
2465815	WORD	wordpools/wasnorm_wordpool_576.txt	LTP347	ltpFR2	1	12	BISON	131	n/a	n/a	0	0	0
2468248	WORD	wordpools/wasnorm_wordpool_576.txt	LTP347	ltpFR2	1	12	HONEY	713	n/a	n/a	0	0	0
2470979	WORD	wordpools/wasnorm_wordpool_576.txt	LTP347	ltpFR2	1	12	SURVEY	1414	n/a	n/a	0	0	0
2473728	WORD	wordpools/wasnorm_wordpool_576.txt	LTP347	ltpFR2	1	12	GIFT	635	n/a	n/a	0	0	0
2476428	WORD	wordpools/wasnorm_wordpool_576.txt	LTP347	ltpFR2	1	12	PACKAGE	997	n/a	n/a	0	0	0
2479076	WORD	wordpools/wasnorm_wordpool_576.txt	LTP347	ltpFR2	1	12	COCKTAIL	338	n/a	n/a	0	0	0
2481691	WORD	wordpools/wasnorm_wordpool_576.txt	LTP347	ltpFR2	1	12	POET	1095	n/a	n/a	0	0	0
2484374	WORD	wordpools/wasnorm_wordpool_576.txt	LTP347	ltpFR2	1	12	PLAID	1080	n/a	n/a	0	0	0
2487189	WORD	wordpools/wasnorm_wordpool_576.txt	LTP347	ltpFR2	1	12	HOOK	715	n/a	n/a	0	0	0
2489704	WORD	wordpools/wasnorm_wordpool_576.txt	LTP347	ltpFR2	1	12	PLAZA	1088	n/a	n/a	0	0	0
2492487	WORD	wordpools/wasnorm_wordpool_576.txt	LTP347	ltpFR2	1	12	RECEIPT	1173	n/a	n/a	0	0	0
2495269	WORD	wordpools/wasnorm_wordpool_576.txt	LTP347	ltpFR2	1	12	APPLE	33	n/a	n/a	0	0	0
2498017	WORD	wordpools/wasnorm_wordpool_576.txt	LTP347	ltpFR2	1	12	MOP	916	n/a	n/a	0	0	0
2499634	START	n/a	LTP347	ltpFR2	1	n/a	n/a	n/a	18	n/a	n/a	n/a	n/a
2500469	DISTRACTOR	n/a	LTP347	ltpFR2	1	12	n/a	n/a	n/a	n/a	0	0	0
2500484	PROB	n/a	LTP347	ltpFR2	1	n/a	n/a	n/a	18	14	3	3	8
2502616	PROB	n/a	LTP347	ltpFR2	1	n/a	n/a	n/a	18	18	4	8	7
2504831	PROB	n/a	LTP347	ltpFR2	1	n/a	n/a	n/a	18	9	1	2	6
2506264	PROB	n/a	LTP347	ltpFR2	1	n/a	n/a	n/a	18	15	6	4	5
2507530	PROB	n/a	LTP347	ltpFR2	1	n/a	n/a	n/a	18	12	2	6	4
2508862	PROB	n/a	LTP347	ltpFR2	1	n/a	n/a	n/a	18	20	9	5	6
2511412	PROB	n/a	LTP347	ltpFR2	1	n/a	n/a	n/a	18	18	8	2	8
2512694	PROB	n/a	LTP347	ltpFR2	1	n/a	n/a	n/a	18	10	2	2	6
2514726	PROB	n/a	LTP347	ltpFR2	1	n/a	n/a	n/a	18	15	7	6	2
2516176	PROB	n/a	LTP347	ltpFR2	1	n/a	n/a	n/a	18	19	6	6	5
2517875	PROB	n/a	LTP347	ltpFR2	1	n/a	n/a	n/a	18	14	6	3	5
2519991	PROB	n/a	LTP347	ltpFR2	1	n/a	n/a	n/a	18	12	1	4	7
2521374	PROB	n/a	LTP347	ltpFR2	1	n/a	n/a	n/a	18	10	6	1	3
2523213	STOP	n/a	LTP347	ltpFR2	1	n/a	n/a	n/a	18	n/a	n/a	n/a	n/a
2525406	REC_START	n/a	LTP347	ltpFR2	1	12	n/a	n/a	n/a	n/a	0	0	0
2526738	REC_WORD	wordpools/wasnorm_wordpool_576.txt	LTP347	ltpFR2	1	12	GRIZZLY	662	n/a	n/a	0	0	0
2527473	REC_WORD	wordpools/wasnorm_wordpool_576.txt	LTP347	ltpFR2	1	12	DUST	508	n/a	n/a	0	0	0
2528119	REC_WORD	wordpools/wasnorm_wordpool_576.txt	LTP347	ltpFR2	1	12	JEANS	752	n/a	n/a	0	0	0
2528847	REC_WORD	wordpools/wasnorm_wordpool_576.txt	LTP347	ltpFR2	1	12	WHISKERS	1605	n/a	n/a	0	0	0
2529519	REC_WORD	wordpools/wasnorm_wordpool_576.txt	LTP347	ltpFR2	1	12	FRAME	600	n/a	n/a	0	0	0
2530526	REC_WORD	wordpools/wasnorm_wordpool_576.txt	LTP347	ltpFR2	1	12	WITNESS	1618	n/a	n/a	0	0	0
2531118	REC_WORD	wordpools/wasnorm_wordpool_576.txt	LTP347	ltpFR2	1	12	FRECKLE	602	n/a	n/a	0	0	0
2533123	REC_WORD	wordpools/wasnorm_wordpool_576.txt	LTP347	ltpFR2	1	12	PLAID	1080	n/a	n/a	0	0	0
2534059	REC_WORD	wordpools/wasnorm_wordpool_576.txt	LTP347	ltpFR2	1	12	HOOK	715	n/a	n/a	0	0	0
2534454	REC_WORD	wordpools/wasnorm_wordpool_576.txt	LTP347	ltpFR2	1	12	POET	1095	n/a	n/a	0	0	0
2535807	REC_WORD	wordpools/wasnorm_wordpool_576.txt	LTP347	ltpFR2	1	12	AUTHOR	61	n/a	n/a	0	0	0
2541129	REC_WORD	wordpools/wasnorm_wordpool_576.txt	LTP347	ltpFR2	1	12	BISON	131	n/a	n/a	0	0	0
2544380	REC_WORD	wordpools/wasnorm_wordpool_576.txt	LTP347	ltpFR2	1	12	HONEY	713	n/a	n/a	0	0	0
2545137	REC_WORD	wordpools/wasnorm_wordpool_576.txt	LTP347	ltpFR2	1	12	COCKTAIL	338	n/a	n/a	0	0	0
2545948	REC_WORD	wordpools/wasnorm_wordpool_576.txt	LTP347	ltpFR2	1	12	SEAFOOD	1260	n/a	n/a	0	0	0
2549506	REC_WORD	wordpools/wasnorm_wordpool_576.txt	LTP347	ltpFR2	1	12	GIFT	635	n/a	n/a	0	0	0
2550253	REC_WORD	wordpools/wasnorm_wordpool_576.txt	LTP347	ltpFR2	1	12	PACKAGE	997	n/a	n/a	0	0	0
2554030	REC_WORD	wordpools/wasnorm_wordpool_576.txt	LTP347	ltpFR2	1	12	RECEIPT	1173	n/a	n/a	0	0	0
2554694	REC_WORD	wordpools/wasnorm_wordpool_576.txt	LTP347	ltpFR2	1	12	APPLE	33	n/a	n/a	0	0	0
2555284	REC_WORD	wordpools/wasnorm_wordpool_576.txt	LTP347	ltpFR2	1	12	MOP	916	n/a	n/a	0	0	0
2556296	REC_WORD	wordpools/wasnorm_wordpool_576.txt	LTP347	ltpFR2	1	12	EMPIRE	530	n/a	n/a	0	0	0
2556980	REC_WORD	wordpools/wasnorm_wordpool_576.txt	LTP347	ltpFR2	1	12	PLAZA	1088	n/a	n/a	0	0	0
2566708	REC_WORD	wordpools/wasnorm_wordpool_576.txt	LTP347	ltpFR2	1	12	STAPLE	1371	n/a	n/a	0	0	0
2587794	REC_WORD	wordpools/wasnorm_wordpool_576.txt	LTP347	ltpFR2	1	12	EMPIRE	530	n/a	n/a	0	0	0
2615847	DISTRACTOR	n/a	LTP347	ltpFR2	1	13	n/a	n/a	n/a	n/a	0	0	0
2615847	START	n/a	LTP347	ltpFR2	1	n/a	n/a	n/a	19	n/a	n/a	n/a	n/a
2615864	PROB	n/a	LTP347	ltpFR2	1	n/a	n/a	n/a	19	15	3	4	8
2617581	PROB	n/a	LTP347	ltpFR2	1	n/a	n/a	n/a	19	22	8	9	5
2620878	PROB	n/a	LTP347	ltpFR2	1	n/a	n/a	n/a	19	24	9	9	6
2622744	PROB	n/a	LTP347	ltpFR2	1	n/a	n/a	n/a	19	18	3	8	7
2623943	PROB	n/a	LTP347	ltpFR2	1	n/a	n/a	n/a	19	10	5	1	4
2625294	PROB	n/a	LTP347	ltpFR2	1	n/a	n/a	n/a	19	7	4	2	1
2626825	PROB	n/a	LTP347	ltpFR2	1	n/a	n/a	n/a	19	11	2	8	1
2628125	PROB	n/a	LTP347	ltpFR2	1	n/a	n/a	n/a	19	20	6	9	5
2629525	PROB	n/a	LTP347	ltpFR2	1	n/a	n/a	n/a	19	19	9	3	7
2630690	PROB	n/a	LTP347	ltpFR2	1	n/a	n/a	n/a	19	19	8	5	6
2632773	PROB	n/a	LTP347	ltpFR2	1	n/a	n/a	n/a	19	19	9	3	7
2634022	PROB	n/a	LTP347	ltpFR2	1	n/a	n/a	n/a	19	15	6	3	6
2636005	PROB	n/a	LTP347	ltpFR2	1	n/a	n/a	n/a	19	12	6	5	1
2637272	PROB	n/a	LTP347	ltpFR2	1	n/a	n/a	n/a	19	13	2	8	3
2638448	STOP	n/a	LTP347	ltpFR2	1	n/a	n/a	n/a	19	n/a	n/a	n/a	n/a
2640686	WORD	wordpools/wasnorm_wordpool_576.txt	LTP347	ltpFR2	1	13	MASK	876	n/a	n/a	0	0	0
2643269	WORD	wordpools/wasnorm_wordpool_576.txt	LTP347	ltpFR2	1	13	PEACH	1031	n/a	n/a	0	0	0
2645833	WORD	wordpools/wasnorm_wordpool_576.txt	LTP347	ltpFR2	1	13	SALMON	1227	n/a	n/a	0	0	0
2648583	WORD	wordpools/wasnorm_wordpool_576.txt	LTP347	ltpFR2	1	13	INMATE	738	n/a	n/a	0	0	0
2651315	WORD	wordpools/wasnorm_wordpool_576.txt	LTP347	ltpFR2	1	13	CELLAR	267	n/a	n/a	0	0	0
2653846	WORD	wordpools/wasnorm_wordpool_576.txt	LTP347	ltpFR2	1	13	BALLOON	75	n/a	n/a	0	0	0
2656313	WORD	wordpools/wasnorm_wordpool_576.txt	LTP347	ltpFR2	1	13	SILK	1307	n/a	n/a	0	0	0
2658878	WORD	wordpools/wasnorm_wordpool_576.txt	LTP347	ltpFR2	1	13	TWEEZERS	1526	n/a	n/a	0	0	0
2661676	WORD	wordpools/wasnorm_wordpool_576.txt	LTP347	ltpFR2	1	13	WIFE	1609	n/a	n/a	0	0	0
2664243	WORD	wordpools/wasnorm_wordpool_576.txt	LTP347	ltpFR2	1	13	MATTRESS	879	n/a	n/a	0	0	0
2666807	WORD	wordpools/wasnorm_wordpool_576.txt	LTP347	ltpFR2	1	13	TEMPLE	1448	n/a	n/a	0	0	0
2669407	WORD	wordpools/wasnorm_wordpool_576.txt	LTP347	ltpFR2	1	13	SWORD	1423	n/a	n/a	0	0	0
2671988	WORD	wordpools/wasnorm_wordpool_576.txt	LTP347	ltpFR2	1	13	KNIFE	785	n/a	n/a	0	0	0
2674770	WORD	wordpools/wasnorm_wordpool_576.txt	LTP347	ltpFR2	1	13	AWARD	63	n/a	n/a	0	0	0
2677503	WORD	wordpools/wasnorm_wordpool_576.txt	LTP347	ltpFR2	1	13	SPONGE	1355	n/a	n/a	0	0	0
2680252	WORD	wordpools/wasnorm_wordpool_576.txt	LTP347	ltpFR2	1	13	TROUT	1511	n/a	n/a	0	0	0
2682717	WORD	wordpools/wasnorm_wordpool_576.txt	LTP347	ltpFR2	1	13	RACKET	1155	n/a	n/a	0	0	0
2685233	WORD	wordpools/wasnorm_wordpool_576.txt	LTP347	ltpFR2	1	13	VAGRANT	1544	n/a	n/a	0	0	0
2687664	WORD	wordpools/wasnorm_wordpool_576.txt	LTP347	ltpFR2	1	13	PEANUT	1032	n/a	n/a	0	0	0
2690180	WORD	wordpools/wasnorm_wordpool_576.txt	LTP347	ltpFR2	1	13	HATCHET	691	n/a	n/a	0	0	0
2692912	WORD	wordpools/wasnorm_wordpool_576.txt	LTP347	ltpFR2	1	13	BLADE	134	n/a	n/a	0	0	0
2695462	WORD	wordpools/wasnorm_wordpool_576.txt	LTP347	ltpFR2	1	13	TREAT	1501	n/a	n/a	0	0	0
2698043	WORD	wordpools/wasnorm_wordpool_576.txt	LTP347	ltpFR2	1	13	CROSS	413	n/a	n/a	0	0	0
2700526	WORD	wordpools/wasnorm_wordpool_576.txt	LTP347	ltpFR2	1	13	HANDBAG	684	n/a	n/a	0	0	0
2702141	START	n/a	LTP347	ltpFR2	1	n/a	n/a	n/a	20	n/a	n/a	n/a	n/a
2702995	DISTRACTOR	n/a	LTP347	ltpFR2	1	13	n/a	n/a	n/a	n/a	0	0	0
2703007	PROB	n/a	LTP347	ltpFR2	1	n/a	n/a	n/a	20	17	7	6	4
2704773	PROB	n/a	LTP347	ltpFR2	1	n/a	n/a	n/a	20	7	1	2	4
2706073	PROB	n/a	LTP347	ltpFR2	1	n/a	n/a	n/a	20	15	6	5	4
2707640	PROB	n/a	LTP347	ltpFR2	1	n/a	n/a	n/a	20	8	5	1	2
2708938	PROB	n/a	LTP347	ltpFR2	1	n/a	n/a	n/a	20	16	3	8	5
2710605	PROB	n/a	LTP347	ltpFR2	1	n/a	n/a	n/a	20	11	2	1	8
2711903	PROB	n/a	LTP347	ltpFR2	1	n/a	n/a	n/a	20	17	5	3	9
2713719	PROB	n/a	LTP347	ltpFR2	1	n/a	n/a	n/a	20	10	7	2	1
2715119	PROB	n/a	LTP347	ltpFR2	1	n/a	n/a	n/a	20	16	5	8	3
2717285	PROB	n/a	LTP347	ltpFR2	1	n/a	n/a	n/a	20	8	1	1	6
2718352	PROB	n/a	LTP347	ltpFR2	1	n/a	n/a	n/a	20	13	5	5	3
2719584	PROB	n/a	LTP347	ltpFR2	1	n/a	n/a	n/a	20	16	9	4	3
2721467	PROB	n/a	LTP347	ltpFR2	1	n/a	n/a	n/a	20	12	6	3	3
2723148	PROB	n/a	LTP347	ltpFR2	1	n/a	n/a	n/a	20	14	7	1	6
2724874	STOP	n/a	LTP347	ltpFR2	1	n/a	n/a	n/a	20	n/a	n/a	n/a	n/a
2728063	REC_START	n/a	LTP347	ltpFR2	1	13	n/a	n/a	n/a	n/a	0	0	0
2730075	REC_WORD	wordpools/wasnorm_wordpool_576.txt	LTP347	ltpFR2	1	13	PEACH	1031	n/a	n/a	0	0	0
2732738	REC_WORD	wordpools/wasnorm_wordpool_576.txt	LTP347	ltpFR2	1	13	MASK	876	n/a	n/a	0	0	0
2733565	REC_WORD	wordpools/wasnorm_wordpool_576.txt	LTP347	ltpFR2	1	13	SALMON	1227	n/a	n/a	0	0	0
2735588	REC_WORD	wordpools/wasnorm_wordpool_576.txt	LTP347	ltpFR2	1	13	RACKET	1155	n/a	n/a	0	0	0
2737189	REC_WORD	wordpools/wasnorm_wordpool_576.txt	LTP347	ltpFR2	1	13	TROUT	1511	n/a	n/a	0	0	0
2740236	REC_WORD	wordpools/wasnorm_wordpool_576.txt	LTP347	ltpFR2	1	13	INMATE	738	n/a	n/a	0	0	0
2744426	REC_WORD	wordpools/wasnorm_wordpool_576.txt	LTP347	ltpFR2	1	13	VAGRANT	1544	n/a	n/a	0	0	0
2746975	REC_WORD	wordpools/wasnorm_wordpool_576.txt	LTP347	ltpFR2	1	13	BALLOON	75	n/a	n/a	0	0	0
2748223	REC_WORD	wordpools/wasnorm_wordpool_576.txt	LTP347	ltpFR2	1	13	TWEEZERS	1526	n/a	n/a	0	0	0
2749223	REC_WORD_VV	wordpools/wasnorm_wordpool_576.txt	LTP347	ltpFR2	1	13	<>	-1	n/a	n/a	0	0	0
2752405	REC_WORD	wordpools/wasnorm_wordpool_576.txt	LTP347	ltpFR2	1	13	MATTRESS	879	n/a	n/a	0	0	0
2755011	REC_WORD	wordpools/wasnorm_wordpool_576.txt	LTP347	ltpFR2	1	13	WIFE	1609	n/a	n/a	0	0	0
2758496	REC_WORD	wordpools/wasnorm_wordpool_576.txt	LTP347	ltpFR2	1	13	CROSS	413	n/a	n/a	0	0	0
2759196	REC_WORD	wordpools/wasnorm_wordpool_576.txt	LTP347	ltpFR2	1	13	HANDBAG	684	n/a	n/a	0	0	0
2761096	REC_WORD	wordpools/wasnorm_wordpool_576.txt	LTP347	ltpFR2	1	13	TEMPLE	1448	n/a	n/a	0	0	0
2765429	REC_WORD	wordpools/wasnorm_wordpool_576.txt	LTP347	ltpFR2	1	13	SWORD	1423	n/a	n/a	0	0	0
2767138	REC_WORD	wordpools/wasnorm_wordpool_576.txt	LTP347	ltpFR2	1	13	BLADE	134	n/a	n/a	0	0	0
2770151	REC_WORD	wordpools/wasnorm_wordpool_576.txt	LTP347	ltpFR2	1	13	DAGGER	434	n/a	n/a	0	0	0
2770696	REC_WORD	wordpools/wasnorm_wordpool_576.txt	LTP347	ltpFR2	1	13	HATCHET	691	n/a	n/a	0	0	0
2771668	REC_WORD	wordpools/wasnorm_wordpool_576.txt	LTP347	ltpFR2	1	13	AWARD	63	n/a	n/a	0	0	0
2818506	DISTRACTOR	n/a	LTP347	ltpFR2	1	14	n/a	n/a	n/a	n/a	0	0	0
2818506	START	n/a	LTP347	ltpFR2	1	n/a	n/a	n/a	21	n/a	n/a	n/a	n/a
2818523	PROB	n/a	LTP347	ltpFR2	1	n/a	n/a	n/a	21	1	4	6	4
2820954	PROB	n/a	LTP347	ltpFR2	1	n/a	n/a	n/a	21	13	8	1	4
2823587	PROB	n/a	LTP347	ltpFR2	1	n/a	n/a	n/a	21	21	9	9	3
2825270	PROB	n/a	LTP347	ltpFR2	1	n/a	n/a	n/a	21	14	7	1	6
2826968	PROB	n/a	LTP347	ltpFR2	1	n/a	n/a	n/a	21	18	8	7	3
2828184	PROB	n/a	LTP347	ltpFR2	1	n/a	n/a	n/a	21	7	1	3	3
2829318	PROB	n/a	LTP347	ltpFR2	1	n/a	n/a	n/a	21	19	4	7	8
2831083	PROB	n/a	LTP347	ltpFR2	1	n/a	n/a	n/a	21	24	7	8	9
2833316	PROB	n/a	LTP347	ltpFR2	1	n/a	n/a	n/a	21	16	6	5	5
2834649	PROB	n/a	LTP347	ltpFR2	1	n/a	n/a	n/a	21	17	9	7	1
2836197	PROB	n/a	LTP347	ltpFR2	1	n/a	n/a	n/a	21	19	7	5	7
2837581	PROB	n/a	LTP347	ltpFR2	1	n/a	n/a	n/a	21	17	6	2	9
2839397	PROB	n/a	LTP347	ltpFR2	1	n/a	n/a	n/a	21	13	9	2	2
2840895	PROB	n/a	LTP347	ltpFR2	1	n/a	n/a	n/a	21	13	9	3	1
2842158	STOP	n/a	LTP347	ltpFR2	1	n/a	n/a	n/a	21	n/a	n/a	n/a	n/a
2843677	WORD	wordpools/wasnorm_wordpool_576.txt	LTP347	ltpFR2	1	14	NAPKIN	937	n/a	n/a	0	0	0
2846460	WORD	wordpools/wasnorm_wordpool_576.txt	LTP347	ltpFR2	1	14	PROTON	1132	n/a	n/a	0	0	0
2849209	WORD	wordpools/wasnorm_wordpool_576.txt	LTP347	ltpFR2	1	14	CRICKET	408	n/a	n/a	0	0	0
2851757	WORD	wordpools/wasnorm_wordpool_576.txt	LTP347	ltpFR2	1	14	STONE	1385	n/a	n/a	0	0	0
2854340	WORD	wordpools/wasnorm_wordpool_576.txt	LTP347	ltpFR2	1	14	PISTOL	1075	n/a	n/a	0	0	0
2857038	WORD	wordpools/wasnorm_wordpool_576.txt	LTP347	ltpFR2	1	14	MISSILE	900	n/a	n/a	0	0	0
2859686	WORD	wordpools/wasnorm_wordpool_576.txt	LTP347	ltpFR2	1	14	ACTOR	5	n/a	n/a	0	0	0
2862370	WORD	wordpools/wasnorm_wordpool_576.txt	LTP347	ltpFR2	1	14	GUITAR	670	n/a	n/a	0	0	0
2865134	WORD	wordpools/wasnorm_wordpool_576.txt	LTP347	ltpFR2	1	14	CREVICE	405	n/a	n/a	0	0	0
2867933	WORD	wordpools/wasnorm_wordpool_576.txt	LTP347	ltpFR2	1	14	SHOVEL	1295	n/a	n/a	0	0	0
2870616	WORD	wordpools/wasnorm_wordpool_576.txt	LTP347	ltpFR2	1	14	ATOM	55	n/a	n/a	0	0	0
2873114	WORD	wordpools/wasnorm_wordpool_576.txt	LTP347	ltpFR2	1	14	PORK	1108	n/a	n/a	0	0	0
2875862	WORD	wordpools/wasnorm_wordpool_576.txt	LTP347	ltpFR2	1	14	RAZOR	1171	n/a	n/a	0	0	0
2878562	WORD	wordpools/wasnorm_wordpool_576.txt	LTP347	ltpFR2	1	14	SCISSORS	1250	n/a	n/a	0	0	0
2881110	WORD	wordpools/wasnorm_wordpool_576.txt	LTP347	ltpFR2	1	14	HUSBAND	728	n/a	n/a	0	0	0
2883759	WORD	wordpools/wasnorm_wordpool_576.txt	LTP347	ltpFR2	1	14	GOBLIN	645	n/a	n/a	0	0	0
2886459	WORD	wordpools/wasnorm_wordpool_576.txt	LTP347	ltpFR2	1	14	PIZZA	1079	n/a	n/a	0	0	0
2889123	WORD	wordpools/wasnorm_wordpool_576.txt	LTP347	ltpFR2	1	14	POISON	1096	n/a	n/a	0	0	0
2891822	WORD	wordpools/wasnorm_wordpool_576.txt	LTP347	ltpFR2	1	14	PARROT	1015	n/a	n/a	0	0	0
2894388	WORD	wordpools/wasnorm_wordpool_576.txt	LTP347	ltpFR2	1	14	MUSTARD	935	n/a	n/a	0	0	0
2897036	WORD	wordpools/wasnorm_wordpool_576.txt	LTP347	ltpFR2	1	14	RELISH	1183	n/a	n/a	0	0	0
2899653	WORD	wordpools/wasnorm_wordpool_576.txt	LTP347	ltpFR2	1	14	MONSTER	912	n/a	n/a	0	0	0
2902268	WORD	wordpools/wasnorm_wordpool_576.txt	LTP347	ltpFR2	1	14	TABLET	1427	n/a	n/a	0	0	0
2904816	WORD	wordpools/wasnorm_wordpool_576.txt	LTP347	ltpFR2	1	14	CASKET	255	n/a	n/a	0	0	0
2906433	START	n/a	LTP347	ltpFR2	1	n/a	n/a	n/a	22	n/a	n/a	n/a	n/a
2907416	DISTRACTOR	n/a	LTP347	ltpFR2	1	14	n/a	n/a	n/a	n/a	0	0	0
2907432	PROB	n/a	LTP347	ltpFR2	1	n/a	n/a	n/a	22	15	8	1	6
2909381	PROB	n/a	LTP347	ltpFR2	1	n/a	n/a	n/a	22	11	3	3	5
2911030	PROB	n/a	LTP347	ltpFR2	1	n/a	n/a	n/a	22	18	1	9	8
2912179	PROB	n/a	LTP347	ltpFR2	1	n/a	n/a	n/a	22	11	2	4	5
2914162	PROB	n/a	LTP347	ltpFR2	1	n/a	n/a	n/a	22	14	3	5	6
2915861	PROB	n/a	LTP347	ltpFR2	1	n/a	n/a	n/a	22	19	2	9	8
2917693	PROB	n/a	LTP347	ltpFR2	1	n/a	n/a	n/a	22	14	8	5	1
2919959	PROB	n/a	LTP347	ltpFR2	1	n/a	n/a	n/a	22	14	4	1	8
2922141	PROB	n/a	LTP347	ltpFR2	1	n/a	n/a	n/a	22	19	5	8	6
2924375	PROB	n/a	LTP347	ltpFR2	1	n/a	n/a	n/a	22	16	6	2	8
2925823	PROB	n/a	LTP347	ltpFR2	1	n/a	n/a	n/a	22	19	7	9	5
2928984	STOP	n/a	LTP347	ltpFR2	1	n/a	n/a	n/a	22	n/a	n/a	n/a	n/a
2932221	REC_START	n/a	LTP347	ltpFR2	1	14	n/a	n/a	n/a	n/a	0	0	0
2936242	REC_WORD	wordpools/wasnorm_wordpool_576.txt	LTP347	ltpFR2	1	14	NAPKIN	937	n/a	n/a	0	0	0
2937428	REC_WORD	wordpools/wasnorm_wordpool_576.txt	LTP347	ltpFR2	1	14	PROTON	1132	n/a	n/a	0	0	0
2938592	REC_WORD	wordpools/wasnorm_wordpool_576.txt	LTP347	ltpFR2	1	14	ATOM	55	n/a	n/a	0	0	0
2939619	REC_WORD	wordpools/wasnorm_wordpool_576.txt	LTP347	ltpFR2	1	14	CRICKET	408	n/a	n/a	0	0	0
2940637	REC_WORD	wordpools/wasnorm_wordpool_576.txt	LTP347	ltpFR2	1	14	STONE	1385	n/a	n/a	0	0	0
2947101	REC_WORD	wordpools/wasnorm_wordpool_576.txt	LTP347	ltpFR2	1	14	PISTOL	1075	n/a	n/a	0	0	0
2947870	REC_WORD	wordpools/wasnorm_wordpool_576.txt	LTP347	ltpFR2	1	14	MISSILE	900	n/a	n/a	0	0	0
2948868	REC_WORD	wordpools/wasnorm_wordpool_576.txt	LTP347	ltpFR2	1	14	CREVICE	405	n/a	n/a	0	0	0
2950786	REC_WORD	wordpools/wasnorm_wordpool_576.txt	LTP347	ltpFR2	1	14	ACTOR	5	n/a	n/a	0	0	0
2952810	REC_WORD	wordpools/wasnorm_wordpool_576.txt	LTP347	ltpFR2	1	14	SHOVEL	1295	n/a	n/a	0	0	0
2955190	REC_WORD	wordpools/wasnorm_wordpool_576.txt	LTP347	ltpFR2	1	14	ATOM	55	n/a	n/a	0	0	0
2957250	REC_WORD	wordpools/wasnorm_wordpool_576.txt	LTP347	ltpFR2	1	14	PORK	1108	n/a	n/a	0	0	0
2960206	REC_WORD	wordpools/wasnorm_wordpool_576.txt	LTP347	ltpFR2	1	14	SCISSORS	1250	n/a	n/a	0	0	0
2969734	REC_WORD	wordpools/wasnorm_wordpool_576.txt	LTP347	ltpFR2	1	14	POISON	1096	n/a	n/a	0	0	0
2970291	REC_WORD	wordpools/wasnorm_wordpool_576.txt	LTP347	ltpFR2	1	14	PARROT	1015	n/a	n/a	0	0	0
2970779	REC_WORD	wordpools/wasnorm_wordpool_576.txt	LTP347	ltpFR2	1	14	MUSTARD	935	n/a	n/a	0	0	0
2971436	REC_WORD	wordpools/wasnorm_wordpool_576.txt	LTP347	ltpFR2	1	14	RELISH	1183	n/a	n/a	0	0	0
2974729	REC_WORD	wordpools/wasnorm_wordpool_576.txt	LTP347	ltpFR2	1	14	HUSBAND	728	n/a	n/a	0	0	0
2977901	REC_WORD	wordpools/wasnorm_wordpool_576.txt	LTP347	ltpFR2	1	14	CASKET	255	n/a	n/a	0	0	0
2978663	REC_WORD	wordpools/wasnorm_wordpool_576.txt	LTP347	ltpFR2	1	14	TABLET	1427	n/a	n/a	0	0	0
2987183	REC_WORD	wordpools/wasnorm_wordpool_576.txt	LTP347	ltpFR2	1	14	MONSTER	912	n/a	n/a	0	0	0
2988732	REC_WORD	wordpools/wasnorm_wordpool_576.txt	LTP347	ltpFR2	1	14	GOBLIN	645	n/a	n/a	0	0	0
3022662	DISTRACTOR	n/a	LTP347	ltpFR2	1	15	n/a	n/a	n/a	n/a	0	0	0
3022663	START	n/a	LTP347	ltpFR2	1	n/a	n/a	n/a	23	n/a	n/a	n/a	n/a
3022679	PROB	n/a	LTP347	ltpFR2	1	n/a	n/a	n/a	23	18	9	3	6
3025661	PROB	n/a	LTP347	ltpFR2	1	n/a	n/a	n/a	23	21	6	9	6
3028077	PROB	n/a	LTP347	ltpFR2	1	n/a	n/a	n/a	23	11	7	3	1
3029344	PROB	n/a	LTP347	ltpFR2	1	n/a	n/a	n/a	23	17	3	7	7
3030626	PROB	n/a	LTP347	ltpFR2	1	n/a	n/a	n/a	23	16	5	3	8
3032526	PROB	n/a	LTP347	ltpFR2	1	n/a	n/a	n/a	23	12	4	6	2
3033774	PROB	n/a	LTP347	ltpFR2	1	n/a	n/a	n/a	23	16	5	5	6
3034923	PROB	n/a	LTP347	ltpFR2	1	n/a	n/a	n/a	23	9	2	1	6
3036207	PROB	n/a	LTP347	ltpFR2	1	n/a	n/a	n/a	23	13	6	5	2
3037772	PROB	n/a	LTP347	ltpFR2	1	n/a	n/a	n/a	23	16	2	6	8
3038972	PROB	n/a	LTP347	ltpFR2	1	n/a	n/a	n/a	23	1	7	6	5
3040921	PROB	n/a	LTP347	ltpFR2	1	n/a	n/a	n/a	23	10	5	1	4
3042504	PROB	n/a	LTP347	ltpFR2	1	n/a	n/a	n/a	23	9	1	2	6
3043836	PROB	n/a	LTP347	ltpFR2	1	n/a	n/a	n/a	23	14	7	6	1
3045285	STOP	n/a	LTP347	ltpFR2	1	n/a	n/a	n/a	23	n/a	n/a	n/a	n/a
3047718	WORD	wordpools/wasnorm_wordpool_576.txt	LTP347	ltpFR2	1	15	FREEZER	604	n/a	n/a	0	0	0
3050234	WORD	wordpools/wasnorm_wordpool_576.txt	LTP347	ltpFR2	1	15	OUTDOORS	987	n/a	n/a	0	0	0
3053032	WORD	wordpools/wasnorm_wordpool_576.txt	LTP347	ltpFR2	1	15	QUARTER	1148	n/a	n/a	0	0	0
3055565	WORD	wordpools/wasnorm_wordpool_576.txt	LTP347	ltpFR2	1	15	SLUG	1329	n/a	n/a	0	0	0
3058030	WORD	wordpools/wasnorm_wordpool_576.txt	LTP347	ltpFR2	1	15	SUPPER	1411	n/a	n/a	0	0	0
3060463	WORD	wordpools/wasnorm_wordpool_576.txt	LTP347	ltpFR2	1	15	GRILL	661	n/a	n/a	0	0	0
3062977	WORD	wordpools/wasnorm_wordpool_576.txt	LTP347	ltpFR2	1	15	STOMACH	1384	n/a	n/a	0	0	0
3065544	WORD	wordpools/wasnorm_wordpool_576.txt	LTP347	ltpFR2	1	15	ROOSTER	1209	n/a	n/a	0	0	0
3068276	WORD	wordpools/wasnorm_wordpool_576.txt	LTP347	ltpFR2	1	15	HAND	683	n/a	n/a	0	0	0
3071024	WORD	wordpools/wasnorm_wordpool_576.txt	LTP347	ltpFR2	1	15	HIKER	708	n/a	n/a	0	0	0
3073524	WORD	wordpools/wasnorm_wordpool_576.txt	LTP347	ltpFR2	1	15	CORAL	378	n/a	n/a	0	0	0
3075988	WORD	wordpools/wasnorm_wordpool_576.txt	LTP347	ltpFR2	1	15	LAPEL	800	n/a	n/a	0	0	0
3078770	WORD	wordpools/wasnorm_wordpool_576.txt	LTP347	ltpFR2	1	15	WASHER	1592	n/a	n/a	0	0	0
3081204	WORD	wordpools/wasnorm_wordpool_576.txt	LTP347	ltpFR2	1	15	BUREAU	199	n/a	n/a	0	0	0
3083885	WORD	wordpools/wasnorm_wordpool_576.txt	LTP347	ltpFR2	1	15	GRAVEL	659	n/a	n/a	0	0	0
3086518	WORD	wordpools/wasnorm_wordpool_576.txt	LTP347	ltpFR2	1	15	IGLOO	734	n/a	n/a	0	0	0
3089032	WORD	wordpools/wasnorm_wordpool_576.txt	LTP347	ltpFR2	1	15	COTTAGE	384	n/a	n/a	0	0	0
3091848	WORD	wordpools/wasnorm_wordpool_576.txt	LTP347	ltpFR2	1	15	FIREMAN	569	n/a	n/a	0	0	0
3094331	WORD	wordpools/wasnorm_wordpool_576.txt	LTP347	ltpFR2	1	15	ORANGE	980	n/a	n/a	0	0	0
3097062	WORD	wordpools/wasnorm_wordpool_576.txt	LTP347	ltpFR2	1	15	SPIDER	1351	n/a	n/a	0	0	0
3099694	WORD	wordpools/wasnorm_wordpool_576.txt	LTP347	ltpFR2	1	15	HEART	697	n/a	n/a	0	0	0
3102294	WORD	wordpools/wasnorm_wordpool_576.txt	LTP347	ltpFR2	1	15	WAITRESS	1581	n/a	n/a	0	0	0
3104825	WORD	wordpools/wasnorm_wordpool_576.txt	LTP347	ltpFR2	1	15	SCOTCH	1251	n/a	n/a	0	0	0
3107558	WORD	wordpools/wasnorm_wordpool_576.txt	LTP347	ltpFR2	1	15	BRANDY	169	n/a	n/a	0	0	0
3109173	START	n/a	LTP347	ltpFR2	1	n/a	n/a	n/a	24	n/a	n/a	n/a	n/a
3110118	DISTRACTOR	n/a	LTP347	ltpFR2	1	15	n/a	n/a	n/a	n/a	0	0	0
3110123	PROB	n/a	LTP347	ltpFR2	1	n/a	n/a	n/a	24	17	9	5	3
3113472	PROB	n/a	LTP347	ltpFR2	1	n/a	n/a	n/a	24	9	3	2	4
3115137	PROB	n/a	LTP347	ltpFR2	1	n/a	n/a	n/a	24	7	3	2	4
3117086	PROB	n/a	LTP347	ltpFR2	1	n/a	n/a	n/a	24	20	6	5	9
3119519	PROB	n/a	LTP347	ltpFR2	1	n/a	n/a	n/a	24	10	2	6	2
3121068	PROB	n/a	LTP347	ltpFR2	1	n/a	n/a	n/a	24	11	1	5	5
3122150	PROB	n/a	LTP347	ltpFR2	1	n/a	n/a	n/a	24	9	1	6	2
3123384	PROB	n/a	LTP347	ltpFR2	1	n/a	n/a	n/a	24	19	8	8	3
3125283	PROB	n/a	LTP347	ltpFR2	1	n/a	n/a	n/a	24	13	6	1	6
3126650	PROB	n/a	LTP347	ltpFR2	1	n/a	n/a	n/a	24	14	5	7	2
3130331	PROB	n/a	LTP347	ltpFR2	1	n/a	n/a	n/a	24	16	1	9	6
3133173	STOP	n/a	LTP347	ltpFR2	1	n/a	n/a	n/a	24	n/a	n/a	n/a	n/a
3135095	REC_START	n/a	LTP347	ltpFR2	1	15	n/a	n/a	n/a	n/a	0	0	0
3137760	REC_WORD	wordpools/wasnorm_wordpool_576.txt	LTP347	ltpFR2	1	15	FREEZER	604	n/a	n/a	0	0	0
3138676	REC_WORD	wordpools/wasnorm_wordpool_576.txt	LTP347	ltpFR2	1	15	OUTDOORS	987	n/a	n/a	0	0	0
3139410	REC_WORD	wordpools/wasnorm_wordpool_576.txt	LTP347	ltpFR2	1	15	QUARTER	1148	n/a	n/a	0	0	0
3140604	REC_WORD	wordpools/wasnorm_wordpool_576.txt	LTP347	ltpFR2	1	15	IGLOO	734	n/a	n/a	0	0	0
3146113	REC_WORD	wordpools/wasnorm_wordpool_576.txt	LTP347	ltpFR2	1	15	OVEN	991	n/a	n/a	0	0	0
3148359	REC_WORD	wordpools/wasnorm_wordpool_576.txt	LTP347	ltpFR2	1	15	FIREMAN	569	n/a	n/a	0	0	0
3150953	REC_WORD	wordpools/wasnorm_wordpool_576.txt	LTP347	ltpFR2	1	15	SLUG	1329	n/a	n/a	0	0	0
3151859	REC_WORD	wordpools/wasnorm_wordpool_576.txt	LTP347	ltpFR2	1	15	SUPPER	1411	n/a	n/a	0	0	0
3154761	REC_WORD	wordpools/wasnorm_wordpool_576.txt	LTP347	ltpFR2	1	15	ORANGE	980	n/a	n/a	0	0	0
3156266	REC_WORD	wordpools/wasnorm_wordpool_576.txt	LTP347	ltpFR2	1	15	SPIDER	1351	n/a	n/a	0	0	0
3157155	REC_WORD	wordpools/wasnorm_wordpool_576.txt	LTP347	ltpFR2	1	15	HEART	697	n/a	n/a	0	0	0
3157681	REC_WORD	wordpools/wasnorm_wordpool_576.txt	LTP347	ltpFR2	1	15	WAITRESS	1581	n/a	n/a	0	0	0
3160506	REC_WORD	wordpools/wasnorm_wordpool_576.txt	LTP347	ltpFR2	1	15	BUREAU	199	n/a	n/a	0	0	0
3162886	REC_WORD	wordpools/wasnorm_wordpool_576.txt	LTP347	ltpFR2	1	15	HIKER	708	n/a	n/a	0	0	0
3164296	REC_WORD	wordpools/wasnorm_wordpool_576.txt	LTP347	ltpFR2	1	15	CORAL	378	n/a	n/a	0	0	0
3164863	REC_WORD	wordpools/wasnorm_wordpool_576.txt	LTP347	ltpFR2	1	15	LAPEL	800	n/a	n/a	0	0	0
3166691	REC_WORD	wordpools/wasnorm_wordpool_576.txt	LTP347	ltpFR2	1	15	WASHER	1592	n/a	n/a	0	0	0
3167458	REC_WORD	wordpools/wasnorm_wordpool_576.txt	LTP347	ltpFR2	1	15	GAVEL	627	n/a	n/a	0	0	0
3225538	DISTRACTOR	n/a	LTP347	ltpFR2	1	16	n/a	n/a	n/a	n/a	0	0	0
3225538	START	n/a	LTP347	ltpFR2	1	n/a	n/a	n/a	25	n/a	n/a	n/a	n/a
3225555	PROB	n/a	LTP347	ltpFR2	1	n/a	n/a	n/a	25	22	9	5	8
3228353	PROB	n/a	LTP347	ltpFR2	1	n/a	n/a	n/a	25	23	7	7	9
3230652	PROB	n/a	LTP347	ltpFR2	1	n/a	n/a	n/a	25	9	2	3	4
3232418	PROB	n/a	LTP347	ltpFR2	1	n/a	n/a	n/a	25	11	2	7	2
3233651	PROB	n/a	LTP347	ltpFR2	1	n/a	n/a	n/a	25	16	3	7	6
3235033	PROB	n/a	LTP347	ltpFR2	1	n/a	n/a	n/a	25	15	6	4	5
3236266	PROB	n/a	LTP347	ltpFR2	1	n/a	n/a	n/a	25	19	9	8	2
3237316	PROB	n/a	LTP347	ltpFR2	1	n/a	n/a	n/a	25	11	1	9	1
3238482	PROB	n/a	LTP347	ltpFR2	1	n/a	n/a	n/a	25	11	2	2	7
3239680	PROB	n/a	LTP347	ltpFR2	1	n/a	n/a	n/a	25	14	2	9	3
3241663	PROB	n/a	LTP347	ltpFR2	1	n/a	n/a	n/a	25	8	1	5	2
3243213	PROB	n/a	LTP347	ltpFR2	1	n/a	n/a	n/a	25	21	8	7	6
3245562	PROB	n/a	LTP347	ltpFR2	1	n/a	n/a	n/a	25	9	2	2	5
3246578	PROB	n/a	LTP347	ltpFR2	1	n/a	n/a	n/a	25	20	8	8	4
3247810	PROB	n/a	LTP347	ltpFR2	1	n/a	n/a	n/a	25	20	7	5	8
3249459	STOP	n/a	LTP347	ltpFR2	1	n/a	n/a	n/a	25	n/a	n/a	n/a	n/a
3250692	WORD	wordpools/wasnorm_wordpool_576.txt	LTP347	ltpFR2	1	16	MARKER	870	n/a	n/a	0	0	0
3253141	WORD	wordpools/wasnorm_wordpool_576.txt	LTP347	ltpFR2	1	16	ROD	1203	n/a	n/a	0	0	0
3255608	WORD	wordpools/wasnorm_wordpool_576.txt	LTP347	ltpFR2	1	16	SEAL	1262	n/a	n/a	0	0	0
3258039	WORD	wordpools/wasnorm_wordpool_576.txt	LTP347	ltpFR2	1	16	ORCHID	982	n/a	n/a	0	0	0
3260788	WORD	wordpools/wasnorm_wordpool_576.txt	LTP347	ltpFR2	1	16	TUNNEL	1519	n/a	n/a	0	0	0
3263387	WORD	wordpools/wasnorm_wordpool_576.txt	LTP347	ltpFR2	1	16	RECORD	1176	n/a	n/a	0	0	0
3266069	WORD	wordpools/wasnorm_wordpool_576.txt	LTP347	ltpFR2	1	16	SANDWICH	1232	n/a	n/a	0	0	0
3268502	WORD	wordpools/wasnorm_wordpool_576.txt	LTP347	ltpFR2	1	16	CARROT	249	n/a	n/a	0	0	0
3271234	WORD	wordpools/wasnorm_wordpool_576.txt	LTP347	ltpFR2	1	16	RABBIT	1152	n/a	n/a	0	0	0
3273865	WORD	wordpools/wasnorm_wordpool_576.txt	LTP347	ltpFR2	1	16	DRILL	497	n/a	n/a	0	0	0
3276465	WORD	wordpools/wasnorm_wordpool_576.txt	LTP347	ltpFR2	1	16	PLAYGROUND	1087	n/a	n/a	0	0	0
3279063	WORD	wordpools/wasnorm_wordpool_576.txt	LTP347	ltpFR2	1	16	HEDGE	699	n/a	n/a	0	0	0
3281496	WORD	wordpools/wasnorm_wordpool_576.txt	LTP347	ltpFR2	1	16	CYCLONE	431	n/a	n/a	0	0	0
3283927	WORD	wordpools/wasnorm_wordpool_576.txt	LTP347	ltpFR2	1	16	HEADBAND	696	n/a	n/a	0	0	0
3286643	WORD	wordpools/wasnorm_wordpool_576.txt	LTP347	ltpFR2	1	16	CHEST	295	n/a	n/a	0	0	0
3289141	WORD	wordpools/wasnorm_wordpool_576.txt	LTP347	ltpFR2	1	16	BELLY	119	n/a	n/a	0	0	0
3291591	WORD	wordpools/wasnorm_wordpool_576.txt	LTP347	ltpFR2	1	16	UMPIRE	1535	n/a	n/a	0	0	0
3294207	WORD	wordpools/wasnorm_wordpool_576.txt	LTP347	ltpFR2	1	16	BREAST	171	n/a	n/a	0	0	0
3296971	WORD	wordpools/wasnorm_wordpool_576.txt	LTP347	ltpFR2	1	16	BINDER	127	n/a	n/a	0	0	0
3299571	WORD	wordpools/wasnorm_wordpool_576.txt	LTP347	ltpFR2	1	16	HORNET	718	n/a	n/a	0	0	0
3302236	WORD	wordpools/wasnorm_wordpool_576.txt	LTP347	ltpFR2	1	16	CHIPMUNK	304	n/a	n/a	0	0	0
3304984	WORD	wordpools/wasnorm_wordpool_576.txt	LTP347	ltpFR2	1	16	BRIEFCASE	175	n/a	n/a	0	0	0
3307683	WORD	wordpools/wasnorm_wordpool_576.txt	LTP347	ltpFR2	1	16	LACE	792	n/a	n/a	0	0	0
3310233	WORD	wordpools/wasnorm_wordpool_576.txt	LTP347	ltpFR2	1	16	LILY	821	n/a	n/a	0	0	0
3311848	START	n/a	LTP347	ltpFR2	1	n/a	n/a	n/a	26	n/a	n/a	n/a	n/a
3312900	DISTRACTOR	n/a	LTP347	ltpFR2	1	16	n/a	n/a	n/a	n/a	0	0	0
3312914	PROB	n/a	LTP347	ltpFR2	1	n/a	n/a	n/a	26	20	6	7	7
3314298	PROB	n/a	LTP347	ltpFR2	1	n/a	n/a	n/a	26	10	2	5	3
3315829	PROB	n/a	LTP347	ltpFR2	1	n/a	n/a	n/a	26	7	2	4	1
3317380	PROB	n/a	LTP347	ltpFR2	1	n/a	n/a	n/a	26	19	8	1	8
3318646	PROB	n/a	LTP347	ltpFR2	1	n/a	n/a	n/a	26	20	7	4	9
3321311	PROB	n/a	LTP347	ltpFR2	1	n/a	n/a	n/a	26	1	8	7	4
3322926	PROB	n/a	LTP347	ltpFR2	1	n/a	n/a	n/a	26	15	8	1	6
3325559	PROB	n/a	LTP347	ltpFR2	1	n/a	n/a	n/a	26	12	3	7	2
3326858	PROB	n/a	LTP347	ltpFR2	1	n/a	n/a	n/a	26	10	2	1	7
3328190	PROB	n/a	LTP347	ltpFR2	1	n/a	n/a	n/a	26	12	3	3	6
3329923	PROB	n/a	LTP347	ltpFR2	1	n/a	n/a	n/a	26	10	3	3	4
3331722	PROB	n/a	LTP347	ltpFR2	1	n/a	n/a	n/a	26	18	6	8	4
3335848	STOP	n/a	LTP347	ltpFR2	1	n/a	n/a	n/a	26	n/a	n/a	n/a	n/a
3337770	REC_START	n/a	LTP347	ltpFR2	1	16	n/a	n/a	n/a	n/a	0	0	0
3340288	REC_WORD	wordpools/wasnorm_wordpool_576.txt	LTP347	ltpFR2	1	16	SEAL	1262	n/a	n/a	0	0	0
3341086	REC_WORD	wordpools/wasnorm_wordpool_576.txt	LTP347	ltpFR2	1	16	PEN	1041	n/a	n/a	0	0	0
3341609	REC_WORD	wordpools/wasnorm_wordpool_576.txt	LTP347	ltpFR2	1	16	ROD	1203	n/a	n/a	0	0	0
3342109	REC_WORD	wordpools/wasnorm_wordpool_576.txt	LTP347	ltpFR2	1	16	ORCHID	982	n/a	n/a	0	0	0
3344552	REC_WORD	wordpools/wasnorm_wordpool_576.txt	LTP347	ltpFR2	1	16	TUNNEL	1519	n/a	n/a	0	0	0
3349966	REC_WORD	wordpools/wasnorm_wordpool_576.txt	LTP347	ltpFR2	1	16	RECORD	1176	n/a	n/a	0	0	0
3351849	REC_WORD	wordpools/wasnorm_wordpool_576.txt	LTP347	ltpFR2	1	16	SANDWICH	1232	n/a	n/a	0	0	0
3353393	REC_WORD	wordpools/wasnorm_wordpool_576.txt	LTP347	ltpFR2	1	16	CARROT	249	n/a	n/a	0	0	0
3354618	REC_WORD	wordpools/wasnorm_wordpool_576.txt	LTP347	ltpFR2	1	16	RABBIT	1152	n/a	n/a	0	0	0
3355368	REC_WORD	wordpools/wasnorm_wordpool_576.txt	LTP347	ltpFR2	1	16	DRILL	497	n/a	n/a	0	0	0
3356009	REC_WORD	wordpools/wasnorm_wordpool_576.txt	LTP347	ltpFR2	1	16	PLAYGROUND	1087	n/a	n/a	0	0	0
3357773	REC_WORD	wordpools/wasnorm_wordpool_576.txt	LTP347	ltpFR2	1	16	HEDGE	699	n/a	n/a	0	0	0
3358637	REC_WORD	wordpools/wasnorm_wordpool_576.txt	LTP347	ltpFR2	1	16	CYCLONE	431	n/a	n/a	0	0	0
3363547	REC_WORD	wordpools/wasnorm_wordpool_576.txt	LTP347	ltpFR2	1	16	HEADBAND	696	n/a	n/a	0	0	0
3365025	REC_WORD	wordpools/wasnorm_wordpool_576.txt	LTP347	ltpFR2	1	16	CHEST	295	n/a	n/a	0	0	0
3366246	REC_WORD	wordpools/wasnorm_wordpool_576.txt	LTP347	ltpFR2	1	16	BELLY	119	n/a	n/a	0	0	0
3367320	REC_WORD	wordpools/wasnorm_wordpool_576.txt	LTP347	ltpFR2	1	16	UMPIRE	1535	n/a	n/a	0	0	0
3368596	REC_WORD	wordpools/wasnorm_wordpool_576.txt	LTP347	ltpFR2	1	16	BREAST	171	n/a	n/a	0	0	0
3374410	REC_WORD	wordpools/wasnorm_wordpool_576.txt	LTP347	ltpFR2	1	16	BINDER	127	n/a	n/a	0	0	0
3375865	REC_WORD	wordpools/wasnorm_wordpool_576.txt	LTP347	ltpFR2	1	16	CHIPMUNK	304	n/a	n/a	0	0	0
3383237	REC_WORD	wordpools/wasnorm_wordpool_576.txt	LTP347	ltpFR2	1	16	FALCON	-1	n/a	n/a	0	0	0
3385738	REC_WORD_VV	wordpools/wasnorm_wordpool_576.txt	LTP347	ltpFR2	1	16	<>	-1	n/a	n/a	0	0	0
3385978	REC_WORD	wordpools/wasnorm_wordpool_576.txt	LTP347	ltpFR2	1	16	BRIEFCASE	175	n/a	n/a	0	0	0
3386663	REC_WORD	wordpools/wasnorm_wordpool_576.txt	LTP347	ltpFR2	1	16	LACE	792	n/a	n/a	0	0	0
3387655	REC_WORD	wordpools/wasnorm_wordpool_576.txt	LTP347	ltpFR2	1	16	LILY	821	n/a	n/a	0	0	0
3414302	REST_REWET	n/a	LTP347	ltpFR2	1	16	n/a	n/a	n/a	n/a	0	0	0
3551672	WORD	wordpools/wasnorm_wordpool_576.txt	LTP347	ltpFR2	1	17	PICTURE	1061	n/a	n/a	0	0	0
3554239	WORD	wordpools/wasnorm_wordpool_576.txt	LTP347	ltpFR2	1	17	CANDY	230	n/a	n/a	0	0	0
3556787	WORD	wordpools/wasnorm_wordpool_576.txt	LTP347	ltpFR2	1	17	RADISH	1158	n/a	n/a	0	0	0
3559403	WORD	wordpools/wasnorm_wordpool_576.txt	LTP347	ltpFR2	1	17	GHETTO	633	n/a	n/a	0	0	0
3562218	WORD	wordpools/wasnorm_wordpool_576.txt	LTP347	ltpFR2	1	17	PASTRY	1022	n/a	n/a	0	0	0
3564783	WORD	wordpools/wasnorm_wordpool_576.txt	LTP347	ltpFR2	1	17	POPCORN	1104	n/a	n/a	0	0	0
3567300	WORD	wordpools/wasnorm_wordpool_576.txt	LTP347	ltpFR2	1	17	DRIVER	499	n/a	n/a	0	0	0
3569897	WORD	wordpools/wasnorm_wordpool_576.txt	LTP347	ltpFR2	1	17	CLAMP	316	n/a	n/a	0	0	0
3572347	WORD	wordpools/wasnorm_wordpool_576.txt	LTP347	ltpFR2	1	17	CLAM	315	n/a	n/a	0	0	0
3574845	WORD	wordpools/wasnorm_wordpool_576.txt	LTP347	ltpFR2	1	17	PORTRAIT	1111	n/a	n/a	0	0	0
3577462	WORD	wordpools/wasnorm_wordpool_576.txt	LTP347	ltpFR2	1	17	FLAG	573	n/a	n/a	0	0	0
3580159	WORD	wordpools/wasnorm_wordpool_576.txt	LTP347	ltpFR2	1	17	ATLAS	53	n/a	n/a	0	0	0
3582593	WORD	wordpools/wasnorm_wordpool_576.txt	LTP347	ltpFR2	1	17	PERMIT	1051	n/a	n/a	0	0	0
3585408	WORD	wordpools/wasnorm_wordpool_576.txt	LTP347	ltpFR2	1	17	SCALPEL	1243	n/a	n/a	0	0	0
3588172	WORD	wordpools/wasnorm_wordpool_576.txt	LTP347	ltpFR2	1	17	YARN	1631	n/a	n/a	0	0	0
3590606	WORD	wordpools/wasnorm_wordpool_576.txt	LTP347	ltpFR2	1	17	PISTON	1076	n/a	n/a	0	0	0
3593170	WORD	wordpools/wasnorm_wordpool_576.txt	LTP347	ltpFR2	1	17	MOTOR	922	n/a	n/a	0	0	0
3595637	WORD	wordpools/wasnorm_wordpool_576.txt	LTP347	ltpFR2	1	17	MATCH	878	n/a	n/a	0	0	0
3598335	WORD	wordpools/wasnorm_wordpool_576.txt	LTP347	ltpFR2	1	17	CRITIC	410	n/a	n/a	0	0	0
3600767	WORD	wordpools/wasnorm_wordpool_576.txt	LTP347	ltpFR2	1	17	ACTRESS	6	n/a	n/a	0	0	0
3603483	WORD	wordpools/wasnorm_wordpool_576.txt	LTP347	ltpFR2	1	17	DAISY	435	n/a	n/a	0	0	0
3606098	WORD	wordpools/wasnorm_wordpool_576.txt	LTP347	ltpFR2	1	17	GLOBE	641	n/a	n/a	0	0	0
3608896	WORD	wordpools/wasnorm_wordpool_576.txt	LTP347	ltpFR2	1	17	CATTLE	261	n/a	n/a	0	0	0
3611413	WORD	wordpools/wasnorm_wordpool_576.txt	LTP347	ltpFR2	1	17	REBEL	1172	n/a	n/a	0	0	0
3613028	START	n/a	LTP347	ltpFR2	1	n/a	n/a	n/a	27	n/a	n/a	n/a	n/a
3613936	DISTRACTOR	n/a	LTP347	ltpFR2	1	17	n/a	n/a	n/a	n/a	0	0	0
3613944	PROB	n/a	LTP347	ltpFR2	1	n/a	n/a	n/a	27	13	2	9	4
3616026	PROB	n/a	LTP347	ltpFR2	1	n/a	n/a	n/a	27	2	9	1	2
3617610	PROB	n/a	LTP347	ltpFR2	1	n/a	n/a	n/a	27	22	8	6	6
3620475	PROB	n/a	LTP347	ltpFR2	1	n/a	n/a	n/a	27	16	7	6	3
3621957	PROB	n/a	LTP347	ltpFR2	1	n/a	n/a	n/a	27	17	6	5	6
3623956	PROB	n/a	LTP347	ltpFR2	1	n/a	n/a	n/a	27	22	5	8	9
3626206	PROB	n/a	LTP347	ltpFR2	1	n/a	n/a	n/a	27	22	4	9	9
3628239	PROB	n/a	LTP347	ltpFR2	1	n/a	n/a	n/a	27	8	1	4	3
3629371	PROB	n/a	LTP347	ltpFR2	1	n/a	n/a	n/a	27	9	4	2	3
3630637	PROB	n/a	LTP347	ltpFR2	1	n/a	n/a	n/a	27	10	5	4	1
3631886	PROB	n/a	LTP347	ltpFR2	1	n/a	n/a	n/a	27	13	9	1	3
3633152	PROB	n/a	LTP347	ltpFR2	1	n/a	n/a	n/a	27	15	3	6	6
3636102	STOP	n/a	LTP347	ltpFR2	1	n/a	n/a	n/a	27	n/a	n/a	n/a	n/a
3638816	REC_START	n/a	LTP347	ltpFR2	1	17	n/a	n/a	n/a	n/a	0	0	0
3640730	REC_WORD	wordpools/wasnorm_wordpool_576.txt	LTP347	ltpFR2	1	17	PICTURE	1061	n/a	n/a	0	0	0
3641342	REC_WORD	wordpools/wasnorm_wordpool_576.txt	LTP347	ltpFR2	1	17	CANDY	230	n/a	n/a	0	0	0
3642065	REC_WORD	wordpools/wasnorm_wordpool_576.txt	LTP347	ltpFR2	1	17	RADISH	1158	n/a	n/a	0	0	0
3642791	REC_WORD	wordpools/wasnorm_wordpool_576.txt	LTP347	ltpFR2	1	17	POPCORN	1104	n/a	n/a	0	0	0
3645090	REC_WORD	wordpools/wasnorm_wordpool_576.txt	LTP347	ltpFR2	1	17	PASTRY	1022	n/a	n/a	0	0	0
3647928	REC_WORD	wordpools/wasnorm_wordpool_576.txt	LTP347	ltpFR2	1	17	PORTRAIT	1111	n/a	n/a	0	0	0
3648680	REC_WORD	wordpools/wasnorm_wordpool_576.txt	LTP347	ltpFR2	1	17	GHETTO	633	n/a	n/a	0	0	0
3653187	REC_WORD	wordpools/wasnorm_wordpool_576.txt	LTP347	ltpFR2	1	17	FLAG	573	n/a	n/a	0	0	0
3657395	REC_WORD	wordpools/wasnorm_wordpool_576.txt	LTP347	ltpFR2	1	17	THREAD	1460	n/a	n/a	0	0	0
3659326	REC_WORD_VV	wordpools/wasnorm_wordpool_576.txt	LTP347	ltpFR2	1	17	<>	-1	n/a	n/a	0	0	0
3659506	REC_WORD	wordpools/wasnorm_wordpool_576.txt	LTP347	ltpFR2	1	17	MOTOR	922	n/a	n/a	0	0	0
3661683	REC_WORD	wordpools/wasnorm_wordpool_576.txt	LTP347	ltpFR2	1	17	MATCH	878	n/a	n/a	0	0	0
3662779	REC_WORD	wordpools/wasnorm_wordpool_576.txt	LTP347	ltpFR2	1	17	ATLAS	53	n/a	n/a	0	0	0
3663610	REC_WORD	wordpools/wasnorm_wordpool_576.txt	LTP347	ltpFR2	1	17	GLOBE	641	n/a	n/a	0	0	0
3673387	REC_WORD	wordpools/wasnorm_wordpool_576.txt	LTP347	ltpFR2	1	17	REBEL	1172	n/a	n/a	0	0	0
3683853	REC_WORD	wordpools/wasnorm_wordpool_576.txt	LTP347	ltpFR2	1	17	DAISY	435	n/a	n/a	0	0	0
3729243	DISTRACTOR	n/a	LTP347	ltpFR2	1	18	n/a	n/a	n/a	n/a	0	0	0
3729243	START	n/a	LTP347	ltpFR2	1	n/a	n/a	n/a	28	n/a	n/a	n/a	n/a
3729259	PROB	n/a	LTP347	ltpFR2	1	n/a	n/a	n/a	28	10	2	4	4
3730492	PROB	n/a	LTP347	ltpFR2	1	n/a	n/a	n/a	28	17	7	1	9
3733007	PROB	n/a	LTP347	ltpFR2	1	n/a	n/a	n/a	28	21	9	4	8
3735189	PROB	n/a	LTP347	ltpFR2	1	n/a	n/a	n/a	28	19	7	9	3
3736456	PROB	n/a	LTP347	ltpFR2	1	n/a	n/a	n/a	28	20	8	6	6
3738054	PROB	n/a	LTP347	ltpFR2	1	n/a	n/a	n/a	28	19	8	2	9
3739405	PROB	n/a	LTP347	ltpFR2	1	n/a	n/a	n/a	28	14	4	5	5
3740853	PROB	n/a	LTP347	ltpFR2	1	n/a	n/a	n/a	28	15	5	9	1
3741953	PROB	n/a	LTP347	ltpFR2	1	n/a	n/a	n/a	28	17	9	1	7
3743486	PROB	n/a	LTP347	ltpFR2	1	n/a	n/a	n/a	28	11	5	2	4
3744751	PROB	n/a	LTP347	ltpFR2	1	n/a	n/a	n/a	28	5	1	2	2
3746084	PROB	n/a	LTP347	ltpFR2	1	n/a	n/a	n/a	28	4	1	4	9
3747301	PROB	n/a	LTP347	ltpFR2	1	n/a	n/a	n/a	28	19	8	7	4
3749300	PROB	n/a	LTP347	ltpFR2	1	n/a	n/a	n/a	28	15	5	9	1
3750732	PROB	n/a	LTP347	ltpFR2	1	n/a	n/a	n/a	28	1	3	9	3
3752137	STOP	n/a	LTP347	ltpFR2	1	n/a	n/a	n/a	28	n/a	n/a	n/a	n/a
3754097	WORD	wordpools/wasnorm_wordpool_576.txt	LTP347	ltpFR2	1	18	WOMAN	1620	n/a	n/a	0	0	0
3756530	WORD	wordpools/wasnorm_wordpool_576.txt	LTP347	ltpFR2	1	18	WINDOW	1611	n/a	n/a	0	0	0
3759329	WORD	wordpools/wasnorm_wordpool_576.txt	LTP347	ltpFR2	1	18	SWITCH	1422	n/a	n/a	0	0	0
3761860	WORD	wordpools/wasnorm_wordpool_576.txt	LTP347	ltpFR2	1	18	LASER	801	n/a	n/a	0	0	0
3764527	WORD	wordpools/wasnorm_wordpool_576.txt	LTP347	ltpFR2	1	18	GROUND	666	n/a	n/a	0	0	0
3767242	WORD	wordpools/wasnorm_wordpool_576.txt	LTP347	ltpFR2	1	18	SPOON	1357	n/a	n/a	0	0	0
3769890	WORD	wordpools/wasnorm_wordpool_576.txt	LTP347	ltpFR2	1	18	SKIRT	1319	n/a	n/a	0	0	0
3772672	WORD	wordpools/wasnorm_wordpool_576.txt	LTP347	ltpFR2	1	18	TEACHER	1440	n/a	n/a	0	0	0
3775205	WORD	wordpools/wasnorm_wordpool_576.txt	LTP347	ltpFR2	1	18	GAZELLE	628	n/a	n/a	0	0	0
3777836	WORD	wordpools/wasnorm_wordpool_576.txt	LTP347	ltpFR2	1	18	GALLON	618	n/a	n/a	0	0	0
3780486	WORD	wordpools/wasnorm_wordpool_576.txt	LTP347	ltpFR2	1	18	GUARD	667	n/a	n/a	0	0	0
3783218	WORD	wordpools/wasnorm_wordpool_576.txt	LTP347	ltpFR2	1	18	CANAL	226	n/a	n/a	0	0	0
3785866	WORD	wordpools/wasnorm_wordpool_576.txt	LTP347	ltpFR2	1	18	STREAM	1392	n/a	n/a	0	0	0
3788383	WORD	wordpools/wasnorm_wordpool_576.txt	LTP347	ltpFR2	1	18	COSTUME	383	n/a	n/a	0	0	0
3790864	WORD	wordpools/wasnorm_wordpool_576.txt	LTP347	ltpFR2	1	18	DINER	467	n/a	n/a	0	0	0
3793414	WORD	wordpools/wasnorm_wordpool_576.txt	LTP347	ltpFR2	1	18	MEAT	883	n/a	n/a	0	0	0
3796212	WORD	wordpools/wasnorm_wordpool_576.txt	LTP347	ltpFR2	1	18	COOKBOOK	373	n/a	n/a	0	0	0
