onset	duration	trial_type	sample	stim_file	subject	experiment	session	trial	task	item_name	item_num	recog_conf	resp	color_b	color_g	color_r	case	font
239.74	n/a	SESS_START	119870	n/a	LTP195	ltpFR	6	n/a	n/a	n/a	n/a	3	n/a	n/a	n/a	n/a	n/a	n/a
273.414	n/a	WORD	136707	wordpools/wasnorm_wordpool_less_exclusions.txt	LTP195	ltpFR	6	1	0	SEAFOOD	1260	n/a	0	0	0.5869140625	0.422607421875	lower	../fonts/amplitud.ttf
277.242	n/a	WORD	138621	wordpools/wasnorm_wordpool_less_exclusions.txt	LTP195	ltpFR	6	1	0	MERMAID	887	n/a	1	0	0.5869140625	0.422607421875	lower	../fonts/amplitud.ttf
281.218	n/a	WORD	140609	wordpools/wasnorm_wordpool_less_exclusions.txt	LTP195	ltpFR	6	1	0	HOUND	724	n/a	1	0	0.5869140625	0.422607421875	lower	../fonts/amplitud.ttf
285.13	n/a	WORD	142565	wordpools/wasnorm_wordpool_less_exclusions.txt	LTP195	ltpFR	6	1	1	FOX	598	n/a	0	1	0.412841796875	0.57763671875	upper	../fonts/zerothre.ttf
289.206	n/a	WORD	144603	wordpools/wasnorm_wordpool_less_exclusions.txt	LTP195	ltpFR	6	1	1	DESK	452	n/a	0	1	0.412841796875	0.57763671875	upper	../fonts/zerothre.ttf
293.4	n/a	WORD	146700	wordpools/wasnorm_wordpool_less_exclusions.txt	LTP195	ltpFR	6	1	1	RADISH	1158	n/a	0	1	0.412841796875	0.57763671875	upper	../fonts/zerothre.ttf
297.344	n/a	WORD	148672	wordpools/wasnorm_wordpool_less_exclusions.txt	LTP195	ltpFR	6	1	1	SECRETARY	1265	n/a	1	1	0.412841796875	0.57763671875	upper	../fonts/zerothre.ttf
301.172	n/a	WORD	150586	wordpools/wasnorm_wordpool_less_exclusions.txt	LTP195	ltpFR	6	1	0	PRIMATE	1123	n/a	0	0	0.5869140625	0.422607421875	lower	../fonts/amplitud.ttf
305.216	n/a	WORD	152608	wordpools/wasnorm_wordpool_less_exclusions.txt	LTP195	ltpFR	6	1	0	CYCLONE	431	n/a	1	0	0.5869140625	0.422607421875	lower	../fonts/amplitud.ttf
309.31	n/a	WORD	154655	wordpools/wasnorm_wordpool_less_exclusions.txt	LTP195	ltpFR	6	1	1	PERFUME	1049	n/a	0	1	0.412841796875	0.57763671875	upper	../fonts/zerothre.ttf
313.238	n/a	WORD	156619	wordpools/wasnorm_wordpool_less_exclusions.txt	LTP195	ltpFR	6	1	1	RECEPTIONIST	1174	n/a	1	1	0.412841796875	0.57763671875	upper	../fonts/zerothre.ttf
317.132	n/a	WORD	158566	wordpools/wasnorm_wordpool_less_exclusions.txt	LTP195	ltpFR	6	1	1	SNACK	1331	n/a	0	1	0.412841796875	0.57763671875	upper	../fonts/zerothre.ttf
321.126	n/a	WORD	160563	wordpools/wasnorm_wordpool_less_exclusions.txt	LTP195	ltpFR	6	1	1	COLOGNE	347	n/a	0	1	0.412841796875	0.57763671875	upper	../fonts/zerothre.ttf
325.338	n/a	WORD	162669	wordpools/wasnorm_wordpool_less_exclusions.txt	LTP195	ltpFR	6	1	0	CHICKEN	297	n/a	0	0	0.5869140625	0.422607421875	lower	../fonts/amplitud.ttf
329.448	n/a	WORD	164724	wordpools/wasnorm_wordpool_less_exclusions.txt	LTP195	ltpFR	6	1	0	WASHER	1592	n/a	1	0	0.5869140625	0.422607421875	lower	../fonts/amplitud.ttf
333.574	n/a	WORD	166787	wordpools/wasnorm_wordpool_less_exclusions.txt	LTP195	ltpFR	6	1	0	XEROX	1628	n/a	1	0	0.5869140625	0.422607421875	lower	../fonts/amplitud.ttf
339.334	n/a	REC_START	169667	n/a	LTP195	ltpFR	6	1	n/a	n/a	n/a	n/a	n/a	n/a	n/a	n/a	n/a	n/a
340.26	n/a	REC_WORD	170130	wordpools/wasnorm_wordpool_less_exclusions.txt	LTP195	ltpFR	6	1	0	XEROX	1628	n/a	1	n/a	n/a	n/a	n/a	n/a
341.628	n/a	REC_WORD	170814	wordpools/wasnorm_wordpool_less_exclusions.txt	LTP195	ltpFR	6	1	1	RECEPTIONIST	1174	n/a	1	n/a	n/a	n/a	n/a	n/a
344.856	n/a	REC_WORD	172428	wordpools/wasnorm_wordpool_less_exclusions.txt	LTP195	ltpFR	6	1	1	SNACK	1331	n/a	0	n/a	n/a	n/a	n/a	n/a
346.188	n/a	REC_WORD	173094	wordpools/wasnorm_wordpool_less_exclusions.txt	LTP195	ltpFR	6	1	1	COLOGNE	347	n/a	0	n/a	n/a	n/a	n/a	n/a
347.554	n/a	REC_WORD	173777	wordpools/wasnorm_wordpool_less_exclusions.txt	LTP195	ltpFR	6	1	1	PERFUME	1049	n/a	0	n/a	n/a	n/a	n/a	n/a
349.246	n/a	REC_WORD	174623	wordpools/wasnorm_wordpool_less_exclusions.txt	LTP195	ltpFR	6	1	1	FOX	598	n/a	0	n/a	n/a	n/a	n/a	n/a
350.512	n/a	REC_WORD	175256	wordpools/wasnorm_wordpool_less_exclusions.txt	LTP195	ltpFR	6	1	0	HOUND	724	n/a	1	n/a	n/a	n/a	n/a	n/a
351.77	n/a	REC_WORD	175885	wordpools/wasnorm_wordpool_less_exclusions.txt	LTP195	ltpFR	6	1	0	CYCLONE	431	n/a	1	n/a	n/a	n/a	n/a	n/a
353.436	n/a	REC_WORD	176718	wordpools/wasnorm_wordpool_less_exclusions.txt	LTP195	ltpFR	6	1	0	PRIMATE	1123	n/a	0	n/a	n/a	n/a	n/a	n/a
354.908	n/a	REC_WORD	177454	wordpools/wasnorm_wordpool_less_exclusions.txt	LTP195	ltpFR	6	1	0	MERMAID	887	n/a	1	n/a	n/a	n/a	n/a	n/a
356.38	n/a	REC_WORD	178190	wordpools/wasnorm_wordpool_less_exclusions.txt	LTP195	ltpFR	6	1	0	SEAFOOD	1260	n/a	0	n/a	n/a	n/a	n/a	n/a
373.102	n/a	REC_WORD	186551	wordpools/wasnorm_wordpool_less_exclusions.txt	LTP195	ltpFR	6	1	1	RADISH	1158	n/a	0	n/a	n/a	n/a	n/a	n/a
375.282	n/a	REC_WORD	187641	wordpools/wasnorm_wordpool_less_exclusions.txt	LTP195	ltpFR	6	1	0	WASHER	1592	n/a	1	n/a	n/a	n/a	n/a	n/a
425.272	n/a	WORD	212636	wordpools/wasnorm_wordpool_less_exclusions.txt	LTP195	ltpFR	6	2	1	RELATIVE	1182	n/a	1	1	0.412841796875	0.57763671875	upper	../fonts/zerothre.ttf
429.25	n/a	WORD	214625	wordpools/wasnorm_wordpool_less_exclusions.txt	LTP195	ltpFR	6	2	1	CUSTARD	429	n/a	0	1	0.412841796875	0.57763671875	upper	../fonts/zerothre.ttf
433.078	n/a	WORD	216539	wordpools/wasnorm_wordpool_less_exclusions.txt	LTP195	ltpFR	6	2	1	HAYSTACK	694	n/a	0	1	0.412841796875	0.57763671875	upper	../fonts/zerothre.ttf
437.02	n/a	WORD	218510	wordpools/wasnorm_wordpool_less_exclusions.txt	LTP195	ltpFR	6	2	1	FLIPPER	580	n/a	0	1	0.412841796875	0.57763671875	upper	../fonts/zerothre.ttf
440.964	n/a	WORD	220482	wordpools/wasnorm_wordpool_less_exclusions.txt	LTP195	ltpFR	6	2	1	COUSIN	392	n/a	1	1	0.412841796875	0.57763671875	upper	../fonts/zerothre.ttf
444.826	n/a	WORD	222413	wordpools/wasnorm_wordpool_less_exclusions.txt	LTP195	ltpFR	6	2	0	BUNNY	198	n/a	0	0	0.5869140625	0.422607421875	lower	../fonts/amplitud.ttf
448.77	n/a	WORD	224385	wordpools/wasnorm_wordpool_less_exclusions.txt	LTP195	ltpFR	6	2	0	CASHIER	254	n/a	1	0	0.5869140625	0.422607421875	lower	../fonts/amplitud.ttf
452.796	n/a	WORD	226398	wordpools/wasnorm_wordpool_less_exclusions.txt	LTP195	ltpFR	6	2	0	PARCEL	1012	n/a	0	0	0.5869140625	0.422607421875	lower	../fonts/amplitud.ttf
456.908	n/a	WORD	228454	wordpools/wasnorm_wordpool_less_exclusions.txt	LTP195	ltpFR	6	2	0	ASH	44	n/a	0	0	0.5869140625	0.422607421875	lower	../fonts/amplitud.ttf
460.852	n/a	WORD	230426	wordpools/wasnorm_wordpool_less_exclusions.txt	LTP195	ltpFR	6	2	1	CAMEL	223	n/a	1	1	0.412841796875	0.57763671875	upper	../fonts/zerothre.ttf
464.746	n/a	WORD	232373	wordpools/wasnorm_wordpool_less_exclusions.txt	LTP195	ltpFR	6	2	1	WALRUS	1585	n/a	1	1	0.412841796875	0.57763671875	upper	../fonts/zerothre.ttf
468.824	n/a	WORD	234412	wordpools/wasnorm_wordpool_less_exclusions.txt	LTP195	ltpFR	6	2	1	POPE	1105	n/a	1	1	0.412841796875	0.57763671875	upper	../fonts/zerothre.ttf
472.902	n/a	WORD	236451	wordpools/wasnorm_wordpool_less_exclusions.txt	LTP195	ltpFR	6	2	0	BIBLE	124	n/a	1	0	0.5869140625	0.422607421875	lower	../fonts/amplitud.ttf
476.846	n/a	WORD	238423	wordpools/wasnorm_wordpool_less_exclusions.txt	LTP195	ltpFR	6	2	0	BONE	148	n/a	0	0	0.5869140625	0.422607421875	lower	../fonts/amplitud.ttf
480.89	n/a	WORD	240445	wordpools/wasnorm_wordpool_less_exclusions.txt	LTP195	ltpFR	6	2	0	CAT	257	n/a	0	0	0.5869140625	0.422607421875	lower	../fonts/amplitud.ttf
484.8	n/a	WORD	242400	wordpools/wasnorm_wordpool_less_exclusions.txt	LTP195	ltpFR	6	2	0	PUMPKIN	1142	n/a	0	0	0.5869140625	0.422607421875	lower	../fonts/amplitud.ttf
490.708	n/a	REC_START	245354	n/a	LTP195	ltpFR	6	2	n/a	n/a	n/a	n/a	n/a	n/a	n/a	n/a	n/a	n/a
491.332	n/a	REC_WORD	245666	wordpools/wasnorm_wordpool_less_exclusions.txt	LTP195	ltpFR	6	2	0	PUMPKIN	1142	n/a	0	n/a	n/a	n/a	n/a	n/a
492.56	n/a	REC_WORD	246280	wordpools/wasnorm_wordpool_less_exclusions.txt	LTP195	ltpFR	6	2	1	HAYSTACK	694	n/a	0	n/a	n/a	n/a	n/a	n/a
493.706	n/a	REC_WORD	246853	wordpools/wasnorm_wordpool_less_exclusions.txt	LTP195	ltpFR	6	2	1	FLIPPER	580	n/a	0	n/a	n/a	n/a	n/a	n/a
495.214	n/a	REC_WORD	247607	wordpools/wasnorm_wordpool_less_exclusions.txt	LTP195	ltpFR	6	2	1	POPE	1105	n/a	1	n/a	n/a	n/a	n/a	n/a
496.536	n/a	REC_WORD	248268	wordpools/wasnorm_wordpool_less_exclusions.txt	LTP195	ltpFR	6	2	0	BIBLE	124	n/a	1	n/a	n/a	n/a	n/a	n/a
497.808	n/a	REC_WORD	248904	wordpools/wasnorm_wordpool_less_exclusions.txt	LTP195	ltpFR	6	2	0	CAT	257	n/a	0	n/a	n/a	n/a	n/a	n/a
499.298	n/a	REC_WORD	249649	wordpools/wasnorm_wordpool_less_exclusions.txt	LTP195	ltpFR	6	2	0	ASH	44	n/a	0	n/a	n/a	n/a	n/a	n/a
500.57	n/a	REC_WORD	250285	wordpools/wasnorm_wordpool_less_exclusions.txt	LTP195	ltpFR	6	2	0	BONE	148	n/a	0	n/a	n/a	n/a	n/a	n/a
501.892	n/a	REC_WORD	250946	wordpools/wasnorm_wordpool_less_exclusions.txt	LTP195	ltpFR	6	2	1	RELATIVE	1182	n/a	1	n/a	n/a	n/a	n/a	n/a
503.29	n/a	REC_WORD	251645	wordpools/wasnorm_wordpool_less_exclusions.txt	LTP195	ltpFR	6	2	1	COUSIN	392	n/a	1	n/a	n/a	n/a	n/a	n/a
504.672	n/a	REC_WORD	252336	wordpools/wasnorm_wordpool_less_exclusions.txt	LTP195	ltpFR	6	2	1	CUSTARD	429	n/a	0	n/a	n/a	n/a	n/a	n/a
579.194	n/a	WORD	289597	wordpools/wasnorm_wordpool_less_exclusions.txt	LTP195	ltpFR	6	3	0	CATHEDRAL	260	n/a	1	0	0.5869140625	0.422607421875	lower	../fonts/amplitud.ttf
583.222	n/a	WORD	291611	wordpools/wasnorm_wordpool_less_exclusions.txt	LTP195	ltpFR	6	3	0	MONK	910	n/a	1	0	0.5869140625	0.422607421875	lower	../fonts/amplitud.ttf
587.332	n/a	WORD	293666	wordpools/wasnorm_wordpool_less_exclusions.txt	LTP195	ltpFR	6	3	0	FRUIT	610	n/a	0	0	0.5869140625	0.422607421875	lower	../fonts/amplitud.ttf
591.226	n/a	WORD	295613	wordpools/wasnorm_wordpool_less_exclusions.txt	LTP195	ltpFR	6	3	0	PUCK	1138	n/a	0	0	0.5869140625	0.422607421875	lower	../fonts/amplitud.ttf
595.22	n/a	WORD	297610	wordpools/wasnorm_wordpool_less_exclusions.txt	LTP195	ltpFR	6	3	0	GLACIER	638	n/a	1	0	0.5869140625	0.422607421875	lower	../fonts/amplitud.ttf
599.214	n/a	WORD	299607	wordpools/wasnorm_wordpool_less_exclusions.txt	LTP195	ltpFR	6	3	0	SINK	1309	n/a	0	0	0.5869140625	0.422607421875	lower	../fonts/amplitud.ttf
603.192	n/a	WORD	301596	wordpools/wasnorm_wordpool_less_exclusions.txt	LTP195	ltpFR	6	3	0	QUEEN	1149	n/a	0	0	0.5869140625	0.422607421875	lower	../fonts/amplitud.ttf
607.368	n/a	WORD	303684	wordpools/wasnorm_wordpool_less_exclusions.txt	LTP195	ltpFR	6	3	0	RAZOR	1171	n/a	0	0	0.5869140625	0.422607421875	lower	../fonts/amplitud.ttf
611.58	n/a	WORD	305790	wordpools/wasnorm_wordpool_less_exclusions.txt	LTP195	ltpFR	6	3	0	PORT	1110	n/a	1	0	0.5869140625	0.422607421875	lower	../fonts/amplitud.ttf
615.474	n/a	WORD	307737	wordpools/wasnorm_wordpool_less_exclusions.txt	LTP195	ltpFR	6	3	0	GOLD	647	n/a	0	0	0.5869140625	0.422607421875	lower	../fonts/amplitud.ttf
619.336	n/a	WORD	309668	wordpools/wasnorm_wordpool_less_exclusions.txt	LTP195	ltpFR	6	3	0	EMERALD	528	n/a	0	0	0.5869140625	0.422607421875	lower	../fonts/amplitud.ttf
623.48	n/a	WORD	311740	wordpools/wasnorm_wordpool_less_exclusions.txt	LTP195	ltpFR	6	3	0	HAND	683	n/a	0	0	0.5869140625	0.422607421875	lower	../fonts/amplitud.ttf
627.538	n/a	WORD	313769	wordpools/wasnorm_wordpool_less_exclusions.txt	LTP195	ltpFR	6	3	0	LIVER	833	n/a	0	0	0.5869140625	0.422607421875	lower	../fonts/amplitud.ttf
631.368	n/a	WORD	315684	wordpools/wasnorm_wordpool_less_exclusions.txt	LTP195	ltpFR	6	3	0	ALBUM	14	n/a	0	0	0.5869140625	0.422607421875	lower	../fonts/amplitud.ttf
635.462	n/a	WORD	317731	wordpools/wasnorm_wordpool_less_exclusions.txt	LTP195	ltpFR	6	3	0	BLUEBERRY	140	n/a	0	0	0.5869140625	0.422607421875	lower	../fonts/amplitud.ttf
639.356	n/a	WORD	319678	wordpools/wasnorm_wordpool_less_exclusions.txt	LTP195	ltpFR	6	3	0	SILVERWARE	1308	n/a	0	0	0.5869140625	0.422607421875	lower	../fonts/amplitud.ttf
645.214	n/a	REC_START	322607	n/a	LTP195	ltpFR	6	3	n/a	n/a	n/a	n/a	n/a	n/a	n/a	n/a	n/a	n/a
645.542	n/a	REC_WORD	322771	wordpools/wasnorm_wordpool_less_exclusions.txt	LTP195	ltpFR	6	3	0	SILVERWARE	1308	n/a	0	n/a	n/a	n/a	n/a	n/a
647.374	n/a	REC_WORD	323687	wordpools/wasnorm_wordpool_less_exclusions.txt	LTP195	ltpFR	6	3	0	BLUEBERRY	140	n/a	0	n/a	n/a	n/a	n/a	n/a
648.974	n/a	REC_WORD	324487	wordpools/wasnorm_wordpool_less_exclusions.txt	LTP195	ltpFR	6	3	0	FRUIT	610	n/a	0	n/a	n/a	n/a	n/a	n/a
654.094	n/a	REC_WORD	327047	wordpools/wasnorm_wordpool_less_exclusions.txt	LTP195	ltpFR	6	3	0	MONK	910	n/a	1	n/a	n/a	n/a	n/a	n/a
655.894	n/a	REC_WORD	327947	wordpools/wasnorm_wordpool_less_exclusions.txt	LTP195	ltpFR	6	3	0	PUCK	1138	n/a	0	n/a	n/a	n/a	n/a	n/a
657.27	n/a	REC_WORD	328635	wordpools/wasnorm_wordpool_less_exclusions.txt	LTP195	ltpFR	6	3	0	CATHEDRAL	260	n/a	1	n/a	n/a	n/a	n/a	n/a
658.908	n/a	REC_WORD	329454	wordpools/wasnorm_wordpool_less_exclusions.txt	LTP195	ltpFR	6	3	0	QUEEN	1149	n/a	0	n/a	n/a	n/a	n/a	n/a
660.902	n/a	REC_WORD	330451	wordpools/wasnorm_wordpool_less_exclusions.txt	LTP195	ltpFR	6	3	0	GOLD	647	n/a	0	n/a	n/a	n/a	n/a	n/a
662.808	n/a	REC_WORD	331404	wordpools/wasnorm_wordpool_less_exclusions.txt	LTP195	ltpFR	6	3	0	EMERALD	528	n/a	0	n/a	n/a	n/a	n/a	n/a
664.794	n/a	REC_WORD	332397	wordpools/wasnorm_wordpool_less_exclusions.txt	LTP195	ltpFR	6	3	0	GLACIER	638	n/a	1	n/a	n/a	n/a	n/a	n/a
666.644	n/a	REC_WORD	333322	wordpools/wasnorm_wordpool_less_exclusions.txt	LTP195	ltpFR	6	3	0	RAZOR	1171	n/a	0	n/a	n/a	n/a	n/a	n/a
669.722	n/a	REC_WORD	334861	wordpools/wasnorm_wordpool_less_exclusions.txt	LTP195	ltpFR	6	3	0	SINK	1309	n/a	0	n/a	n/a	n/a	n/a	n/a
671.828	n/a	REC_WORD	335914	wordpools/wasnorm_wordpool_less_exclusions.txt	LTP195	ltpFR	6	3	n/a	FORK	594	n/a	n/a	n/a	n/a	n/a	n/a	n/a
701.552	n/a	REC_WORD	350776	wordpools/wasnorm_wordpool_less_exclusions.txt	LTP195	ltpFR	6	3	0	SILVERWARE	1308	n/a	0	n/a	n/a	n/a	n/a	n/a
723.696	n/a	WORD	361848	wordpools/wasnorm_wordpool_less_exclusions.txt	LTP195	ltpFR	6	4	-1	COOKIE	374	n/a	-1	1	1.0	1.0	upper	../fonts/Verdana.ttf
727.824	n/a	WORD	363912	wordpools/wasnorm_wordpool_less_exclusions.txt	LTP195	ltpFR	6	4	-1	PASTRY	1022	n/a	-1	1	1.0	1.0	upper	../fonts/Verdana.ttf
731.684	n/a	WORD	365842	wordpools/wasnorm_wordpool_less_exclusions.txt	LTP195	ltpFR	6	4	-1	TOURIST	1488	n/a	-1	1	1.0	1.0	upper	../fonts/Verdana.ttf
735.812	n/a	WORD	367906	wordpools/wasnorm_wordpool_less_exclusions.txt	LTP195	ltpFR	6	4	-1	EGG	518	n/a	-1	1	1.0	1.0	upper	../fonts/Verdana.ttf
739.756	n/a	WORD	369878	wordpools/wasnorm_wordpool_less_exclusions.txt	LTP195	ltpFR	6	4	-1	OVAL	990	n/a	-1	1	1.0	1.0	upper	../fonts/Verdana.ttf
743.966	n/a	WORD	371983	wordpools/wasnorm_wordpool_less_exclusions.txt	LTP195	ltpFR	6	4	-1	OMELET	976	n/a	-1	1	1.0	1.0	upper	../fonts/Verdana.ttf
748.178	n/a	WORD	374089	wordpools/wasnorm_wordpool_less_exclusions.txt	LTP195	ltpFR	6	4	-1	SHIP	1286	n/a	-1	1	1.0	1.0	upper	../fonts/Verdana.ttf
752.172	n/a	WORD	376086	wordpools/wasnorm_wordpool_less_exclusions.txt	LTP195	ltpFR	6	4	-1	TELESCOPE	1446	n/a	-1	1	1.0	1.0	upper	../fonts/Verdana.ttf
756.082	n/a	WORD	378041	wordpools/wasnorm_wordpool_less_exclusions.txt	LTP195	ltpFR	6	4	-1	ATMOSPHERE	54	n/a	-1	1	1.0	1.0	upper	../fonts/Verdana.ttf
760.276	n/a	WORD	380138	wordpools/wasnorm_wordpool_less_exclusions.txt	LTP195	ltpFR	6	4	-1	JACKET	747	n/a	-1	1	1.0	1.0	upper	../fonts/Verdana.ttf
764.304	n/a	WORD	382152	wordpools/wasnorm_wordpool_less_exclusions.txt	LTP195	ltpFR	6	4	-1	COWBOY	395	n/a	-1	1	1.0	1.0	upper	../fonts/Verdana.ttf
768.496	n/a	WORD	384248	wordpools/wasnorm_wordpool_less_exclusions.txt	LTP195	ltpFR	6	4	-1	BULLETIN	195	n/a	-1	1	1.0	1.0	upper	../fonts/Verdana.ttf
772.558	n/a	WORD	386279	wordpools/wasnorm_wordpool_less_exclusions.txt	LTP195	ltpFR	6	4	-1	SWIMMER	1420	n/a	-1	1	1.0	1.0	upper	../fonts/Verdana.ttf
776.42	n/a	WORD	388210	wordpools/wasnorm_wordpool_less_exclusions.txt	LTP195	ltpFR	6	4	-1	QUARTER	1148	n/a	-1	1	1.0	1.0	upper	../fonts/Verdana.ttf
780.28	n/a	WORD	390140	wordpools/wasnorm_wordpool_less_exclusions.txt	LTP195	ltpFR	6	4	-1	HAY	693	n/a	-1	1	1.0	1.0	upper	../fonts/Verdana.ttf
784.308	n/a	WORD	392154	wordpools/wasnorm_wordpool_less_exclusions.txt	LTP195	ltpFR	6	4	-1	BOAT	144	n/a	-1	1	1.0	1.0	upper	../fonts/Verdana.ttf
790.232	n/a	REC_START	395116	n/a	LTP195	ltpFR	6	4	n/a	n/a	n/a	n/a	n/a	n/a	n/a	n/a	n/a	n/a
791.56	n/a	REC_WORD	395780	wordpools/wasnorm_wordpool_less_exclusions.txt	LTP195	ltpFR	6	4	-1	HAY	693	n/a	-1	n/a	n/a	n/a	n/a	n/a
793.13	n/a	REC_WORD	396565	wordpools/wasnorm_wordpool_less_exclusions.txt	LTP195	ltpFR	6	4	-1	BOAT	144	n/a	-1	n/a	n/a	n/a	n/a	n/a
794.816	n/a	REC_WORD	397408	wordpools/wasnorm_wordpool_less_exclusions.txt	LTP195	ltpFR	6	4	-1	SHIP	1286	n/a	-1	n/a	n/a	n/a	n/a	n/a
796.428	n/a	REC_WORD	398214	wordpools/wasnorm_wordpool_less_exclusions.txt	LTP195	ltpFR	6	4	-1	BULLETIN	195	n/a	-1	n/a	n/a	n/a	n/a	n/a
800.634	n/a	REC_WORD	400317	wordpools/wasnorm_wordpool_less_exclusions.txt	LTP195	ltpFR	6	4	-1	COWBOY	395	n/a	-1	n/a	n/a	n/a	n/a	n/a
802.424	n/a	REC_WORD	401212	wordpools/wasnorm_wordpool_less_exclusions.txt	LTP195	ltpFR	6	4	-1	JACKET	747	n/a	-1	n/a	n/a	n/a	n/a	n/a
805.248	n/a	REC_WORD	402624	wordpools/wasnorm_wordpool_less_exclusions.txt	LTP195	ltpFR	6	4	-1	TELESCOPE	1446	n/a	-1	n/a	n/a	n/a	n/a	n/a
806.754	n/a	REC_WORD	403377	wordpools/wasnorm_wordpool_less_exclusions.txt	LTP195	ltpFR	6	4	-1	ATMOSPHERE	54	n/a	-1	n/a	n/a	n/a	n/a	n/a
808.42	n/a	REC_WORD	404210	wordpools/wasnorm_wordpool_less_exclusions.txt	LTP195	ltpFR	6	4	-1	SWIMMER	1420	n/a	-1	n/a	n/a	n/a	n/a	n/a
810.012	n/a	REC_WORD	405006	wordpools/wasnorm_wordpool_less_exclusions.txt	LTP195	ltpFR	6	4	-1	QUARTER	1148	n/a	-1	n/a	n/a	n/a	n/a	n/a
815.206	n/a	REC_WORD	407603	wordpools/wasnorm_wordpool_less_exclusions.txt	LTP195	ltpFR	6	4	-1	TOURIST	1488	n/a	-1	n/a	n/a	n/a	n/a	n/a
817.39	n/a	REC_WORD	408695	wordpools/wasnorm_wordpool_less_exclusions.txt	LTP195	ltpFR	6	4	-1	COOKIE	374	n/a	-1	n/a	n/a	n/a	n/a	n/a
819.106	n/a	REC_WORD	409553	wordpools/wasnorm_wordpool_less_exclusions.txt	LTP195	ltpFR	6	4	-1	OVAL	990	n/a	-1	n/a	n/a	n/a	n/a	n/a
820.878	n/a	REC_WORD	410439	wordpools/wasnorm_wordpool_less_exclusions.txt	LTP195	ltpFR	6	4	-1	PASTRY	1022	n/a	-1	n/a	n/a	n/a	n/a	n/a
823.846	n/a	REC_WORD	411923	wordpools/wasnorm_wordpool_less_exclusions.txt	LTP195	ltpFR	6	4	-1	OMELET	976	n/a	-1	n/a	n/a	n/a	n/a	n/a
943.62	n/a	WORD	471810	wordpools/wasnorm_wordpool_less_exclusions.txt	LTP195	ltpFR	6	5	0	MONEY	908	n/a	0	0	0.5869140625	0.422607421875	lower	../fonts/amplitud.ttf
947.664	n/a	WORD	473832	wordpools/wasnorm_wordpool_less_exclusions.txt	LTP195	ltpFR	6	5	0	TUBA	1515	n/a	1	0	0.5869140625	0.422607421875	lower	../fonts/amplitud.ttf
951.692	n/a	WORD	475846	wordpools/wasnorm_wordpool_less_exclusions.txt	LTP195	ltpFR	6	5	0	CHEDDAR	286	n/a	0	0	0.5869140625	0.422607421875	lower	../fonts/amplitud.ttf
955.57	n/a	WORD	477785	wordpools/wasnorm_wordpool_less_exclusions.txt	LTP195	ltpFR	6	5	0	BELL	118	n/a	0	0	0.5869140625	0.422607421875	lower	../fonts/amplitud.ttf
959.498	n/a	WORD	479749	wordpools/wasnorm_wordpool_less_exclusions.txt	LTP195	ltpFR	6	5	0	SIRLOIN	1311	n/a	0	0	0.5869140625	0.422607421875	lower	../fonts/amplitud.ttf
963.724	n/a	WORD	481862	wordpools/wasnorm_wordpool_less_exclusions.txt	LTP195	ltpFR	6	5	0	VIOLIN	1571	n/a	0	0	0.5869140625	0.422607421875	lower	../fonts/amplitud.ttf
967.818	n/a	WORD	483909	wordpools/wasnorm_wordpool_less_exclusions.txt	LTP195	ltpFR	6	5	0	FLUTE	585	n/a	0	0	0.5869140625	0.422607421875	lower	../fonts/amplitud.ttf
971.662	n/a	WORD	485831	wordpools/wasnorm_wordpool_less_exclusions.txt	LTP195	ltpFR	6	5	0	ATTORNEY	58	n/a	1	0	0.5869140625	0.422607421875	lower	../fonts/amplitud.ttf
975.856	n/a	WORD	487928	wordpools/wasnorm_wordpool_less_exclusions.txt	LTP195	ltpFR	6	5	0	TUXEDO	1525	n/a	0	0	0.5869140625	0.422607421875	lower	../fonts/amplitud.ttf
979.784	n/a	WORD	489892	wordpools/wasnorm_wordpool_less_exclusions.txt	LTP195	ltpFR	6	5	0	RUBY	1214	n/a	0	0	0.5869140625	0.422607421875	lower	../fonts/amplitud.ttf
983.878	n/a	WORD	491939	wordpools/wasnorm_wordpool_less_exclusions.txt	LTP195	ltpFR	6	5	0	TAPE	1433	n/a	0	0	0.5869140625	0.422607421875	lower	../fonts/amplitud.ttf
987.972	n/a	WORD	493986	wordpools/wasnorm_wordpool_less_exclusions.txt	LTP195	ltpFR	6	5	0	HAMBURGER	679	n/a	0	0	0.5869140625	0.422607421875	lower	../fonts/amplitud.ttf
992.068	n/a	WORD	496034	wordpools/wasnorm_wordpool_less_exclusions.txt	LTP195	ltpFR	6	5	0	STAKE	1368	n/a	1	0	0.5869140625	0.422607421875	lower	../fonts/amplitud.ttf
996.144	n/a	WORD	498072	wordpools/wasnorm_wordpool_less_exclusions.txt	LTP195	ltpFR	6	5	0	UMPIRE	1535	n/a	1	0	0.5869140625	0.422607421875	lower	../fonts/amplitud.ttf
1000.272	n/a	WORD	500136	wordpools/wasnorm_wordpool_less_exclusions.txt	LTP195	ltpFR	6	5	0	KITTEN	780	n/a	0	0	0.5869140625	0.422607421875	lower	../fonts/amplitud.ttf
1004.348	n/a	WORD	502174	wordpools/wasnorm_wordpool_less_exclusions.txt	LTP195	ltpFR	6	5	0	WHISKERS	1605	n/a	0	0	0.5869140625	0.422607421875	lower	../fonts/amplitud.ttf
1010.022	n/a	REC_START	505011	n/a	LTP195	ltpFR	6	5	n/a	n/a	n/a	n/a	n/a	n/a	n/a	n/a	n/a	n/a
1011.294	n/a	REC_WORD	505647	wordpools/wasnorm_wordpool_less_exclusions.txt	LTP195	ltpFR	6	5	0	KITTEN	780	n/a	0	n/a	n/a	n/a	n/a	n/a
1012.726	n/a	REC_WORD	506363	wordpools/wasnorm_wordpool_less_exclusions.txt	LTP195	ltpFR	6	5	0	WHISKERS	1605	n/a	0	n/a	n/a	n/a	n/a	n/a
1015.918	n/a	REC_WORD	507959	wordpools/wasnorm_wordpool_less_exclusions.txt	LTP195	ltpFR	6	5	0	TUBA	1515	n/a	1	n/a	n/a	n/a	n/a	n/a
1017.52	n/a	REC_WORD	508760	wordpools/wasnorm_wordpool_less_exclusions.txt	LTP195	ltpFR	6	5	0	BELL	118	n/a	0	n/a	n/a	n/a	n/a	n/a
1018.972	n/a	REC_WORD	509486	wordpools/wasnorm_wordpool_less_exclusions.txt	LTP195	ltpFR	6	5	0	VIOLIN	1571	n/a	0	n/a	n/a	n/a	n/a	n/a
1020.568	n/a	REC_WORD	510284	wordpools/wasnorm_wordpool_less_exclusions.txt	LTP195	ltpFR	6	5	0	FLUTE	585	n/a	0	n/a	n/a	n/a	n/a	n/a
1022.474	n/a	REC_WORD	511237	wordpools/wasnorm_wordpool_less_exclusions.txt	LTP195	ltpFR	6	5	0	MONEY	908	n/a	0	n/a	n/a	n/a	n/a	n/a
1024.04	n/a	REC_WORD	512020	wordpools/wasnorm_wordpool_less_exclusions.txt	LTP195	ltpFR	6	5	0	CHEDDAR	286	n/a	0	n/a	n/a	n/a	n/a	n/a
1025.656	n/a	REC_WORD	512828	wordpools/wasnorm_wordpool_less_exclusions.txt	LTP195	ltpFR	6	5	0	ATTORNEY	58	n/a	1	n/a	n/a	n/a	n/a	n/a
1027.398	n/a	REC_WORD	513699	wordpools/wasnorm_wordpool_less_exclusions.txt	LTP195	ltpFR	6	5	0	TUXEDO	1525	n/a	0	n/a	n/a	n/a	n/a	n/a
1029.154	n/a	REC_WORD	514577	wordpools/wasnorm_wordpool_less_exclusions.txt	LTP195	ltpFR	6	5	0	RUBY	1214	n/a	0	n/a	n/a	n/a	n/a	n/a
1031.998	n/a	REC_WORD	515999	wordpools/wasnorm_wordpool_less_exclusions.txt	LTP195	ltpFR	6	5	0	SIRLOIN	1311	n/a	0	n/a	n/a	n/a	n/a	n/a
1034.306	n/a	REC_WORD	517153	wordpools/wasnorm_wordpool_less_exclusions.txt	LTP195	ltpFR	6	5	0	STAKE	1368	n/a	1	n/a	n/a	n/a	n/a	n/a
1092.136	n/a	WORD	546068	wordpools/wasnorm_wordpool_less_exclusions.txt	LTP195	ltpFR	6	6	-1	PLAZA	1088	n/a	-1	1	1.0	1.0	upper	../fonts/Verdana.ttf
1096.196	n/a	WORD	548098	wordpools/wasnorm_wordpool_less_exclusions.txt	LTP195	ltpFR	6	6	-1	GUITAR	670	n/a	-1	1	1.0	1.0	upper	../fonts/Verdana.ttf
1100.174	n/a	WORD	550087	wordpools/wasnorm_wordpool_less_exclusions.txt	LTP195	ltpFR	6	6	-1	CHEESE	289	n/a	-1	1	1.0	1.0	upper	../fonts/Verdana.ttf
1104.268	n/a	WORD	552134	wordpools/wasnorm_wordpool_less_exclusions.txt	LTP195	ltpFR	6	6	-1	SHORTCAKE	1292	n/a	-1	1	1.0	1.0	upper	../fonts/Verdana.ttf
1108.244	n/a	WORD	554122	wordpools/wasnorm_wordpool_less_exclusions.txt	LTP195	ltpFR	6	6	-1	PELT	1040	n/a	-1	1	1.0	1.0	upper	../fonts/Verdana.ttf
1112.072	n/a	WORD	556036	wordpools/wasnorm_wordpool_less_exclusions.txt	LTP195	ltpFR	6	6	-1	VIDEO	1564	n/a	-1	1	1.0	1.0	upper	../fonts/Verdana.ttf
1116.266	n/a	WORD	558133	wordpools/wasnorm_wordpool_less_exclusions.txt	LTP195	ltpFR	6	6	-1	PORTRAIT	1111	n/a	-1	1	1.0	1.0	upper	../fonts/Verdana.ttf
1120.094	n/a	WORD	560047	wordpools/wasnorm_wordpool_less_exclusions.txt	LTP195	ltpFR	6	6	-1	SIDEWALK	1303	n/a	-1	1	1.0	1.0	upper	../fonts/Verdana.ttf
1124.154	n/a	WORD	562077	wordpools/wasnorm_wordpool_less_exclusions.txt	LTP195	ltpFR	6	6	-1	ROAD	1196	n/a	-1	1	1.0	1.0	upper	../fonts/Verdana.ttf
1128.198	n/a	WORD	564099	wordpools/wasnorm_wordpool_less_exclusions.txt	LTP195	ltpFR	6	6	-1	DUCK	504	n/a	-1	1	1.0	1.0	upper	../fonts/Verdana.ttf
1132.176	n/a	WORD	566088	wordpools/wasnorm_wordpool_less_exclusions.txt	LTP195	ltpFR	6	6	-1	TROMBONE	1508	n/a	-1	1	1.0	1.0	upper	../fonts/Verdana.ttf
1136.304	n/a	WORD	568152	wordpools/wasnorm_wordpool_less_exclusions.txt	LTP195	ltpFR	6	6	-1	BEAVER	109	n/a	-1	1	1.0	1.0	upper	../fonts/Verdana.ttf
1140.264	n/a	WORD	570132	wordpools/wasnorm_wordpool_less_exclusions.txt	LTP195	ltpFR	6	6	-1	DIARY	460	n/a	-1	1	1.0	1.0	upper	../fonts/Verdana.ttf
1144.108	n/a	WORD	572054	wordpools/wasnorm_wordpool_less_exclusions.txt	LTP195	ltpFR	6	6	-1	NOVEL	960	n/a	-1	1	1.0	1.0	upper	../fonts/Verdana.ttf
1148.302	n/a	WORD	574151	wordpools/wasnorm_wordpool_less_exclusions.txt	LTP195	ltpFR	6	6	-1	CHICK	296	n/a	-1	1	1.0	1.0	upper	../fonts/Verdana.ttf
1152.362	n/a	WORD	576181	wordpools/wasnorm_wordpool_less_exclusions.txt	LTP195	ltpFR	6	6	-1	FUR	615	n/a	-1	1	1.0	1.0	upper	../fonts/Verdana.ttf
1158.138	n/a	REC_START	579069	n/a	LTP195	ltpFR	6	6	n/a	n/a	n/a	n/a	n/a	n/a	n/a	n/a	n/a	n/a
1158.866	n/a	REC_WORD	579433	wordpools/wasnorm_wordpool_less_exclusions.txt	LTP195	ltpFR	6	6	-1	PLAZA	1088	n/a	-1	n/a	n/a	n/a	n/a	n/a
1160.452	n/a	REC_WORD	580226	wordpools/wasnorm_wordpool_less_exclusions.txt	LTP195	ltpFR	6	6	-1	SIDEWALK	1303	n/a	-1	n/a	n/a	n/a	n/a	n/a
1161.9	n/a	REC_WORD	580950	wordpools/wasnorm_wordpool_less_exclusions.txt	LTP195	ltpFR	6	6	-1	ROAD	1196	n/a	-1	n/a	n/a	n/a	n/a	n/a
1163.292	n/a	REC_WORD	581646	wordpools/wasnorm_wordpool_less_exclusions.txt	LTP195	ltpFR	6	6	-1	DUCK	504	n/a	-1	n/a	n/a	n/a	n/a	n/a
1164.39	n/a	REC_WORD	582195	wordpools/wasnorm_wordpool_less_exclusions.txt	LTP195	ltpFR	6	6	-1	CHICK	296	n/a	-1	n/a	n/a	n/a	n/a	n/a
1165.656	n/a	REC_WORD	582828	wordpools/wasnorm_wordpool_less_exclusions.txt	LTP195	ltpFR	6	6	-1	BEAVER	109	n/a	-1	n/a	n/a	n/a	n/a	n/a
1167.502	n/a	REC_WORD	583751	wordpools/wasnorm_wordpool_less_exclusions.txt	LTP195	ltpFR	6	6	-1	GUITAR	670	n/a	-1	n/a	n/a	n/a	n/a	n/a
1168.76	n/a	REC_WORD	584380	wordpools/wasnorm_wordpool_less_exclusions.txt	LTP195	ltpFR	6	6	-1	TROMBONE	1508	n/a	-1	n/a	n/a	n/a	n/a	n/a
1170.31	n/a	REC_WORD	585155	wordpools/wasnorm_wordpool_less_exclusions.txt	LTP195	ltpFR	6	6	-1	CHEESE	289	n/a	-1	n/a	n/a	n/a	n/a	n/a
1171.678	n/a	REC_WORD	585839	wordpools/wasnorm_wordpool_less_exclusions.txt	LTP195	ltpFR	6	6	-1	SHORTCAKE	1292	n/a	-1	n/a	n/a	n/a	n/a	n/a
1173.294	n/a	REC_WORD	586647	wordpools/wasnorm_wordpool_less_exclusions.txt	LTP195	ltpFR	6	6	-1	PORTRAIT	1111	n/a	-1	n/a	n/a	n/a	n/a	n/a
1174.816	n/a	REC_WORD	587408	wordpools/wasnorm_wordpool_less_exclusions.txt	LTP195	ltpFR	6	6	-1	FUR	615	n/a	-1	n/a	n/a	n/a	n/a	n/a
1176.282	n/a	REC_WORD	588141	wordpools/wasnorm_wordpool_less_exclusions.txt	LTP195	ltpFR	6	6	-1	NOVEL	960	n/a	-1	n/a	n/a	n/a	n/a	n/a
1177.994	n/a	REC_WORD	588997	wordpools/wasnorm_wordpool_less_exclusions.txt	LTP195	ltpFR	6	6	-1	DIARY	460	n/a	-1	n/a	n/a	n/a	n/a	n/a
1249.684	n/a	WORD	624842	wordpools/wasnorm_wordpool_less_exclusions.txt	LTP195	ltpFR	6	7	0	PATIO	1025	n/a	1	0	0.5869140625	0.422607421875	lower	../fonts/amplitud.ttf
1253.644	n/a	WORD	626822	wordpools/wasnorm_wordpool_less_exclusions.txt	LTP195	ltpFR	6	7	0	GOOSE	649	n/a	0	0	0.5869140625	0.422607421875	lower	../fonts/amplitud.ttf
1257.772	n/a	WORD	628886	wordpools/wasnorm_wordpool_less_exclusions.txt	LTP195	ltpFR	6	7	0	CHECK	284	n/a	0	0	0.5869140625	0.422607421875	lower	../fonts/amplitud.ttf
1261.9	n/a	WORD	630950	wordpools/wasnorm_wordpool_less_exclusions.txt	LTP195	ltpFR	6	7	1	DOLLAR	482	n/a	0	1	0.412841796875	0.57763671875	upper	../fonts/zerothre.ttf
1265.91	n/a	WORD	632955	wordpools/wasnorm_wordpool_less_exclusions.txt	LTP195	ltpFR	6	7	1	VOLLEYBALL	1576	n/a	0	1	0.412841796875	0.57763671875	upper	../fonts/zerothre.ttf
1270.104	n/a	WORD	635052	wordpools/wasnorm_wordpool_less_exclusions.txt	LTP195	ltpFR	6	7	1	MAT	877	n/a	0	1	0.412841796875	0.57763671875	upper	../fonts/zerothre.ttf
1274.182	n/a	WORD	637091	wordpools/wasnorm_wordpool_less_exclusions.txt	LTP195	ltpFR	6	7	1	EWE	542	n/a	1	1	0.412841796875	0.57763671875	upper	../fonts/zerothre.ttf
1278.06	n/a	WORD	639030	wordpools/wasnorm_wordpool_less_exclusions.txt	LTP195	ltpFR	6	7	1	CORPORATION	382	n/a	0	1	0.412841796875	0.57763671875	upper	../fonts/zerothre.ttf
1281.92	n/a	WORD	640960	wordpools/wasnorm_wordpool_less_exclusions.txt	LTP195	ltpFR	6	7	0	PERSONNEL	1053	n/a	0	0	0.5869140625	0.422607421875	lower	../fonts/amplitud.ttf
1285.832	n/a	WORD	642916	wordpools/wasnorm_wordpool_less_exclusions.txt	LTP195	ltpFR	6	7	0	NOSE	957	n/a	0	0	0.5869140625	0.422607421875	lower	../fonts/amplitud.ttf
1289.892	n/a	WORD	644946	wordpools/wasnorm_wordpool_less_exclusions.txt	LTP195	ltpFR	6	7	0	BADGE	68	n/a	0	0	0.5869140625	0.422607421875	lower	../fonts/amplitud.ttf
1293.72	n/a	WORD	646860	wordpools/wasnorm_wordpool_less_exclusions.txt	LTP195	ltpFR	6	7	0	FENCE	560	n/a	1	0	0.5869140625	0.422607421875	lower	../fonts/amplitud.ttf
1297.93	n/a	WORD	648965	wordpools/wasnorm_wordpool_less_exclusions.txt	LTP195	ltpFR	6	7	0	HELMET	702	n/a	0	0	0.5869140625	0.422607421875	lower	../fonts/amplitud.ttf
1301.774	n/a	WORD	650887	wordpools/wasnorm_wordpool_less_exclusions.txt	LTP195	ltpFR	6	7	1	TORTOISE	1486	n/a	1	1	0.412841796875	0.57763671875	upper	../fonts/zerothre.ttf
1305.752	n/a	WORD	652876	wordpools/wasnorm_wordpool_less_exclusions.txt	LTP195	ltpFR	6	7	1	CHIPMUNK	304	n/a	1	1	0.412841796875	0.57763671875	upper	../fonts/zerothre.ttf
1309.612	n/a	WORD	654806	wordpools/wasnorm_wordpool_less_exclusions.txt	LTP195	ltpFR	6	7	1	SOFA	1342	n/a	0	1	0.412841796875	0.57763671875	upper	../fonts/zerothre.ttf
1315.456	n/a	REC_START	657728	n/a	LTP195	ltpFR	6	7	n/a	n/a	n/a	n/a	n/a	n/a	n/a	n/a	n/a	n/a
1317.546	n/a	REC_WORD	658773	wordpools/wasnorm_wordpool_less_exclusions.txt	LTP195	ltpFR	6	7	1	SOFA	1342	n/a	0	n/a	n/a	n/a	n/a	n/a
1319.242	n/a	REC_WORD	659621	wordpools/wasnorm_wordpool_less_exclusions.txt	LTP195	ltpFR	6	7	0	PATIO	1025	n/a	1	n/a	n/a	n/a	n/a	n/a
1322.654	n/a	REC_WORD	661327	wordpools/wasnorm_wordpool_less_exclusions.txt	LTP195	ltpFR	6	7	0	CHECK	284	n/a	0	n/a	n/a	n/a	n/a	n/a
1324.444	n/a	REC_WORD	662222	wordpools/wasnorm_wordpool_less_exclusions.txt	LTP195	ltpFR	6	7	0	GOOSE	649	n/a	0	n/a	n/a	n/a	n/a	n/a
1326.062	n/a	REC_WORD	663031	wordpools/wasnorm_wordpool_less_exclusions.txt	LTP195	ltpFR	6	7	1	MAT	877	n/a	0	n/a	n/a	n/a	n/a	n/a
1327.752	n/a	REC_WORD	663876	wordpools/wasnorm_wordpool_less_exclusions.txt	LTP195	ltpFR	6	7	1	EWE	542	n/a	1	n/a	n/a	n/a	n/a	n/a
1332.736	n/a	REC_WORD	666368	wordpools/wasnorm_wordpool_less_exclusions.txt	LTP195	ltpFR	6	7	1	TORTOISE	1486	n/a	1	n/a	n/a	n/a	n/a	n/a
1334.85	n/a	REC_WORD	667425	wordpools/wasnorm_wordpool_less_exclusions.txt	LTP195	ltpFR	6	7	0	FENCE	560	n/a	1	n/a	n/a	n/a	n/a	n/a
1337.092	n/a	REC_WORD	668546	wordpools/wasnorm_wordpool_less_exclusions.txt	LTP195	ltpFR	6	7	1	VOLLEYBALL	1576	n/a	0	n/a	n/a	n/a	n/a	n/a
1339.266	n/a	REC_WORD	669633	wordpools/wasnorm_wordpool_less_exclusions.txt	LTP195	ltpFR	6	7	0	NOSE	957	n/a	0	n/a	n/a	n/a	n/a	n/a
1341.89	n/a	REC_WORD	670945	wordpools/wasnorm_wordpool_less_exclusions.txt	LTP195	ltpFR	6	7	0	HELMET	702	n/a	0	n/a	n/a	n/a	n/a	n/a
1343.662	n/a	REC_WORD	671831	wordpools/wasnorm_wordpool_less_exclusions.txt	LTP195	ltpFR	6	7	1	CORPORATION	382	n/a	0	n/a	n/a	n/a	n/a	n/a
1345.706	n/a	REC_WORD	672853	wordpools/wasnorm_wordpool_less_exclusions.txt	LTP195	ltpFR	6	7	0	PERSONNEL	1053	n/a	0	n/a	n/a	n/a	n/a	n/a
1351.898	n/a	REC_WORD	675949	wordpools/wasnorm_wordpool_less_exclusions.txt	LTP195	ltpFR	6	7	1	CHIPMUNK	304	n/a	1	n/a	n/a	n/a	n/a	n/a
1402.458	n/a	WORD	701229	wordpools/wasnorm_wordpool_less_exclusions.txt	LTP195	ltpFR	6	8	-1	SALMON	1227	n/a	-1	1	1.0	1.0	upper	../fonts/Verdana.ttf
1406.686	n/a	WORD	703343	wordpools/wasnorm_wordpool_less_exclusions.txt	LTP195	ltpFR	6	8	-1	REFRIGERATOR	1179	n/a	-1	1	1.0	1.0	upper	../fonts/Verdana.ttf
1410.546	n/a	WORD	705273	wordpools/wasnorm_wordpool_less_exclusions.txt	LTP195	ltpFR	6	8	-1	ACORN	3	n/a	-1	1	1.0	1.0	upper	../fonts/Verdana.ttf
1414.474	n/a	WORD	707237	wordpools/wasnorm_wordpool_less_exclusions.txt	LTP195	ltpFR	6	8	-1	OFFICER	973	n/a	-1	1	1.0	1.0	upper	../fonts/Verdana.ttf
1418.668	n/a	WORD	709334	wordpools/wasnorm_wordpool_less_exclusions.txt	LTP195	ltpFR	6	8	-1	DEPUTY	450	n/a	-1	1	1.0	1.0	upper	../fonts/Verdana.ttf
1422.694	n/a	WORD	711347	wordpools/wasnorm_wordpool_less_exclusions.txt	LTP195	ltpFR	6	8	-1	KITCHEN	778	n/a	-1	1	1.0	1.0	upper	../fonts/Verdana.ttf
1426.606	n/a	WORD	713303	wordpools/wasnorm_wordpool_less_exclusions.txt	LTP195	ltpFR	6	8	-1	ENVELOPE	537	n/a	-1	1	1.0	1.0	upper	../fonts/Verdana.ttf
1430.518	n/a	WORD	715259	wordpools/wasnorm_wordpool_less_exclusions.txt	LTP195	ltpFR	6	8	-1	NOTE	958	n/a	-1	1	1.0	1.0	upper	../fonts/Verdana.ttf
1434.462	n/a	WORD	717231	wordpools/wasnorm_wordpool_less_exclusions.txt	LTP195	ltpFR	6	8	-1	FEAST	556	n/a	-1	1	1.0	1.0	upper	../fonts/Verdana.ttf
1438.374	n/a	WORD	719187	wordpools/wasnorm_wordpool_less_exclusions.txt	LTP195	ltpFR	6	8	-1	VINE	1568	n/a	-1	1	1.0	1.0	upper	../fonts/Verdana.ttf
1442.284	n/a	WORD	721142	wordpools/wasnorm_wordpool_less_exclusions.txt	LTP195	ltpFR	6	8	-1	CUFF	423	n/a	-1	1	1.0	1.0	upper	../fonts/Verdana.ttf
1446.212	n/a	WORD	723106	wordpools/wasnorm_wordpool_less_exclusions.txt	LTP195	ltpFR	6	8	-1	DEPARTMENT	449	n/a	-1	1	1.0	1.0	upper	../fonts/Verdana.ttf
1450.072	n/a	WORD	725036	wordpools/wasnorm_wordpool_less_exclusions.txt	LTP195	ltpFR	6	8	-1	TRAY	1498	n/a	-1	1	1.0	1.0	upper	../fonts/Verdana.ttf
1454.232	n/a	WORD	727116	wordpools/wasnorm_wordpool_less_exclusions.txt	LTP195	ltpFR	6	8	-1	SUPPER	1411	n/a	-1	1	1.0	1.0	upper	../fonts/Verdana.ttf
1458.244	n/a	WORD	729122	wordpools/wasnorm_wordpool_less_exclusions.txt	LTP195	ltpFR	6	8	-1	JOINT	758	n/a	-1	1	1.0	1.0	upper	../fonts/Verdana.ttf
1462.17	n/a	WORD	731085	wordpools/wasnorm_wordpool_less_exclusions.txt	LTP195	ltpFR	6	8	-1	ANKLE	24	n/a	-1	1	1.0	1.0	upper	../fonts/Verdana.ttf
1468.062	n/a	REC_START	734031	n/a	LTP195	ltpFR	6	8	n/a	n/a	n/a	n/a	n/a	n/a	n/a	n/a	n/a	n/a
1469.724	n/a	REC_WORD	734862	wordpools/wasnorm_wordpool_less_exclusions.txt	LTP195	ltpFR	6	8	-1	JOINT	758	n/a	-1	n/a	n/a	n/a	n/a	n/a
1471.17	n/a	REC_WORD	735585	wordpools/wasnorm_wordpool_less_exclusions.txt	LTP195	ltpFR	6	8	-1	ANKLE	24	n/a	-1	n/a	n/a	n/a	n/a	n/a
1472.582	n/a	REC_WORD	736291	wordpools/wasnorm_wordpool_less_exclusions.txt	LTP195	ltpFR	6	8	-1	CUFF	423	n/a	-1	n/a	n/a	n/a	n/a	n/a
1474.074	n/a	REC_WORD	737037	wordpools/wasnorm_wordpool_less_exclusions.txt	LTP195	ltpFR	6	8	-1	OFFICER	973	n/a	-1	n/a	n/a	n/a	n/a	n/a
1475.656	n/a	REC_WORD	737828	wordpools/wasnorm_wordpool_less_exclusions.txt	LTP195	ltpFR	6	8	-1	DEPUTY	450	n/a	-1	n/a	n/a	n/a	n/a	n/a
1477.466	n/a	REC_WORD	738733	wordpools/wasnorm_wordpool_less_exclusions.txt	LTP195	ltpFR	6	8	-1	DEPARTMENT	449	n/a	-1	n/a	n/a	n/a	n/a	n/a
1479.222	n/a	REC_WORD	739611	wordpools/wasnorm_wordpool_less_exclusions.txt	LTP195	ltpFR	6	8	-1	KITCHEN	778	n/a	-1	n/a	n/a	n/a	n/a	n/a
1480.758	n/a	REC_WORD	740379	wordpools/wasnorm_wordpool_less_exclusions.txt	LTP195	ltpFR	6	8	-1	TRAY	1498	n/a	-1	n/a	n/a	n/a	n/a	n/a
1482.384	n/a	REC_WORD	741192	wordpools/wasnorm_wordpool_less_exclusions.txt	LTP195	ltpFR	6	8	-1	ENVELOPE	537	n/a	-1	n/a	n/a	n/a	n/a	n/a
1483.946	n/a	REC_WORD	741973	wordpools/wasnorm_wordpool_less_exclusions.txt	LTP195	ltpFR	6	8	-1	NOTE	958	n/a	-1	n/a	n/a	n/a	n/a	n/a
1485.672	n/a	REC_WORD	742836	wordpools/wasnorm_wordpool_less_exclusions.txt	LTP195	ltpFR	6	8	-1	SUPPER	1411	n/a	-1	n/a	n/a	n/a	n/a	n/a
1489.374	n/a	REC_WORD	744687	wordpools/wasnorm_wordpool_less_exclusions.txt	LTP195	ltpFR	6	8	-1	FEAST	556	n/a	-1	n/a	n/a	n/a	n/a	n/a
1490.73	n/a	REC_WORD	745365	wordpools/wasnorm_wordpool_less_exclusions.txt	LTP195	ltpFR	6	8	-1	SALMON	1227	n/a	-1	n/a	n/a	n/a	n/a	n/a
1492.516	n/a	REC_WORD	746258	wordpools/wasnorm_wordpool_less_exclusions.txt	LTP195	ltpFR	6	8	-1	ACORN	3	n/a	-1	n/a	n/a	n/a	n/a	n/a
1494.094	n/a	REC_WORD	747047	wordpools/wasnorm_wordpool_less_exclusions.txt	LTP195	ltpFR	6	8	-1	VINE	1568	n/a	-1	n/a	n/a	n/a	n/a	n/a
1547.444	n/a	WORD	773722	wordpools/wasnorm_wordpool_less_exclusions.txt	LTP195	ltpFR	6	9	1	ZEBRA	1635	n/a	2	1	0.412841796875	0.57763671875	upper	../fonts/zerothre.ttf
1549.308	n/a	KEY_MSG	774654	n/a	LTP195	ltpFR	6	9	n/a	n/a	n/a	n/a	n/a	n/a	n/a	n/a	n/a	n/a
1551.654	n/a	WORD	775827	wordpools/wasnorm_wordpool_less_exclusions.txt	LTP195	ltpFR	6	9	1	CASTLE	256	n/a	1	1	0.412841796875	0.57763671875	upper	../fonts/zerothre.ttf
1555.5	n/a	WORD	777750	wordpools/wasnorm_wordpool_less_exclusions.txt	LTP195	ltpFR	6	9	1	CLOTHES	327	n/a	0	1	0.412841796875	0.57763671875	upper	../fonts/zerothre.ttf
1559.376	n/a	WORD	779688	wordpools/wasnorm_wordpool_less_exclusions.txt	LTP195	ltpFR	6	9	1	WORM	1623	n/a	1	1	0.412841796875	0.57763671875	upper	../fonts/zerothre.ttf
1563.404	n/a	WORD	781702	wordpools/wasnorm_wordpool_less_exclusions.txt	LTP195	ltpFR	6	9	1	COFFEE	341	n/a	0	1	0.412841796875	0.57763671875	upper	../fonts/zerothre.ttf
1567.464	n/a	WORD	783732	wordpools/wasnorm_wordpool_less_exclusions.txt	LTP195	ltpFR	6	9	1	RODENT	1204	n/a	1	1	0.412841796875	0.57763671875	upper	../fonts/zerothre.ttf
1571.358	n/a	WORD	785679	wordpools/wasnorm_wordpool_less_exclusions.txt	LTP195	ltpFR	6	9	1	PONY	1102	n/a	1	1	0.412841796875	0.57763671875	upper	../fonts/zerothre.ttf
1575.37	n/a	WORD	787685	wordpools/wasnorm_wordpool_less_exclusions.txt	LTP195	ltpFR	6	9	1	ROOMMATE	1207	n/a	1	1	0.412841796875	0.57763671875	upper	../fonts/zerothre.ttf
1579.58	n/a	WORD	789790	wordpools/wasnorm_wordpool_less_exclusions.txt	LTP195	ltpFR	6	9	1	FOE	587	n/a	1	1	0.412841796875	0.57763671875	upper	../fonts/zerothre.ttf
1583.458	n/a	WORD	791729	wordpools/wasnorm_wordpool_less_exclusions.txt	LTP195	ltpFR	6	9	1	DORM	488	n/a	0	1	0.412841796875	0.57763671875	upper	../fonts/zerothre.ttf
1587.302	n/a	WORD	793651	wordpools/wasnorm_wordpool_less_exclusions.txt	LTP195	ltpFR	6	9	1	CHILD	299	n/a	1	1	0.412841796875	0.57763671875	upper	../fonts/zerothre.ttf
1591.296	n/a	WORD	795648	wordpools/wasnorm_wordpool_less_exclusions.txt	LTP195	ltpFR	6	9	1	GOO	648	n/a	0	1	0.412841796875	0.57763671875	upper	../fonts/zerothre.ttf
1595.408	n/a	WORD	797704	wordpools/wasnorm_wordpool_less_exclusions.txt	LTP195	ltpFR	6	9	1	NET	946	n/a	0	1	0.412841796875	0.57763671875	upper	../fonts/zerothre.ttf
1599.484	n/a	WORD	799742	wordpools/wasnorm_wordpool_less_exclusions.txt	LTP195	ltpFR	6	9	1	VITAMIN	1574	n/a	0	1	0.412841796875	0.57763671875	upper	../fonts/zerothre.ttf
1603.51	n/a	WORD	801755	wordpools/wasnorm_wordpool_less_exclusions.txt	LTP195	ltpFR	6	9	1	TART	1436	n/a	0	1	0.412841796875	0.57763671875	upper	../fonts/zerothre.ttf
1607.44	n/a	WORD	803720	wordpools/wasnorm_wordpool_less_exclusions.txt	LTP195	ltpFR	6	9	1	PICKLE	1059	n/a	0	1	0.412841796875	0.57763671875	upper	../fonts/zerothre.ttf
1613.132	n/a	REC_START	806566	n/a	LTP195	ltpFR	6	9	n/a	n/a	n/a	n/a	n/a	n/a	n/a	n/a	n/a	n/a
1614.034	n/a	REC_WORD	807017	wordpools/wasnorm_wordpool_less_exclusions.txt	LTP195	ltpFR	6	9	1	PICKLE	1059	n/a	0	n/a	n/a	n/a	n/a	n/a
1615.412	n/a	REC_WORD	807706	wordpools/wasnorm_wordpool_less_exclusions.txt	LTP195	ltpFR	6	9	1	TART	1436	n/a	0	n/a	n/a	n/a	n/a	n/a
1617.846	n/a	REC_WORD	808923	wordpools/wasnorm_wordpool_less_exclusions.txt	LTP195	ltpFR	6	9	1	CASTLE	256	n/a	1	n/a	n/a	n/a	n/a	n/a
1619.198	n/a	REC_WORD	809599	wordpools/wasnorm_wordpool_less_exclusions.txt	LTP195	ltpFR	6	9	1	ROOMMATE	1207	n/a	1	n/a	n/a	n/a	n/a	n/a
1620.41	n/a	REC_WORD	810205	wordpools/wasnorm_wordpool_less_exclusions.txt	LTP195	ltpFR	6	9	1	FOE	587	n/a	1	n/a	n/a	n/a	n/a	n/a
1622.624	n/a	REC_WORD	811312	wordpools/wasnorm_wordpool_less_exclusions.txt	LTP195	ltpFR	6	9	1	CHILD	299	n/a	1	n/a	n/a	n/a	n/a	n/a
1624.276	n/a	REC_WORD	812138	wordpools/wasnorm_wordpool_less_exclusions.txt	LTP195	ltpFR	6	9	1	GOO	648	n/a	0	n/a	n/a	n/a	n/a	n/a
1625.862	n/a	REC_WORD	812931	wordpools/wasnorm_wordpool_less_exclusions.txt	LTP195	ltpFR	6	9	1	ZEBRA	1635	n/a	2	n/a	n/a	n/a	n/a	n/a
1627.384	n/a	REC_WORD	813692	wordpools/wasnorm_wordpool_less_exclusions.txt	LTP195	ltpFR	6	9	1	WORM	1623	n/a	1	n/a	n/a	n/a	n/a	n/a
1628.646	n/a	REC_WORD	814323	wordpools/wasnorm_wordpool_less_exclusions.txt	LTP195	ltpFR	6	9	1	RODENT	1204	n/a	1	n/a	n/a	n/a	n/a	n/a
1630.622	n/a	REC_WORD	815311	wordpools/wasnorm_wordpool_less_exclusions.txt	LTP195	ltpFR	6	9	1	PONY	1102	n/a	1	n/a	n/a	n/a	n/a	n/a
1654.968	n/a	REC_WORD	827484	wordpools/wasnorm_wordpool_less_exclusions.txt	LTP195	ltpFR	6	9	1	FOE	587	n/a	1	n/a	n/a	n/a	n/a	n/a
1691.398	n/a	WORD	845699	wordpools/wasnorm_wordpool_less_exclusions.txt	LTP195	ltpFR	6	10	1	JELLY	755	n/a	0	1	0.412841796875	0.57763671875	upper	../fonts/zerothre.ttf
1695.59	n/a	WORD	847795	wordpools/wasnorm_wordpool_less_exclusions.txt	LTP195	ltpFR	6	10	1	TOWER	1490	n/a	0	1	0.412841796875	0.57763671875	upper	../fonts/zerothre.ttf
1699.584	n/a	WORD	849792	wordpools/wasnorm_wordpool_less_exclusions.txt	LTP195	ltpFR	6	10	1	TURNIP	1521	n/a	1	1	0.412841796875	0.57763671875	upper	../fonts/zerothre.ttf
1703.578	n/a	WORD	851789	wordpools/wasnorm_wordpool_less_exclusions.txt	LTP195	ltpFR	6	10	1	PLATE	1086	n/a	0	1	0.412841796875	0.57763671875	upper	../fonts/zerothre.ttf
1707.572	n/a	WORD	853786	wordpools/wasnorm_wordpool_less_exclusions.txt	LTP195	ltpFR	6	10	1	TURKEY	1520	n/a	1	1	0.412841796875	0.57763671875	upper	../fonts/zerothre.ttf
1711.734	n/a	WORD	855867	wordpools/wasnorm_wordpool_less_exclusions.txt	LTP195	ltpFR	6	10	0	CABLE	213	n/a	0	0	0.5869140625	0.422607421875	lower	../fonts/amplitud.ttf
1715.728	n/a	WORD	857864	wordpools/wasnorm_wordpool_less_exclusions.txt	LTP195	ltpFR	6	10	0	FIREMAN	569	n/a	1	0	0.5869140625	0.422607421875	lower	../fonts/amplitud.ttf
1719.604	n/a	WORD	859802	wordpools/wasnorm_wordpool_less_exclusions.txt	LTP195	ltpFR	6	10	0	TIMBER	1469	n/a	1	0	0.5869140625	0.422607421875	lower	../fonts/amplitud.ttf
1723.75	n/a	WORD	861875	wordpools/wasnorm_wordpool_less_exclusions.txt	LTP195	ltpFR	6	10	0	CELERY	266	n/a	1	0	0.5869140625	0.422607421875	lower	../fonts/amplitud.ttf
1727.728	n/a	WORD	863864	wordpools/wasnorm_wordpool_less_exclusions.txt	LTP195	ltpFR	6	10	0	ANTENNA	28	n/a	0	0	0.5869140625	0.422607421875	lower	../fonts/amplitud.ttf
1731.688	n/a	WORD	865844	wordpools/wasnorm_wordpool_less_exclusions.txt	LTP195	ltpFR	6	10	1	COLLAR	345	n/a	0	1	0.412841796875	0.57763671875	upper	../fonts/zerothre.ttf
1735.666	n/a	WORD	867833	wordpools/wasnorm_wordpool_less_exclusions.txt	LTP195	ltpFR	6	10	1	CANDY	230	n/a	0	1	0.412841796875	0.57763671875	upper	../fonts/zerothre.ttf
1739.726	n/a	WORD	869863	wordpools/wasnorm_wordpool_less_exclusions.txt	LTP195	ltpFR	6	10	1	PRODUCER	1129	n/a	0	1	0.412841796875	0.57763671875	upper	../fonts/zerothre.ttf
1743.636	n/a	WORD	871818	wordpools/wasnorm_wordpool_less_exclusions.txt	LTP195	ltpFR	6	10	0	SEED	1266	n/a	0	0	0.5869140625	0.422607421875	lower	../fonts/amplitud.ttf
1747.848	n/a	WORD	873924	wordpools/wasnorm_wordpool_less_exclusions.txt	LTP195	ltpFR	6	10	0	VISITOR	1573	n/a	0	0	0.5869140625	0.422607421875	lower	../fonts/amplitud.ttf
1751.908	n/a	WORD	875954	wordpools/wasnorm_wordpool_less_exclusions.txt	LTP195	ltpFR	6	10	0	ENEMY	534	n/a	1	0	0.5869140625	0.422607421875	lower	../fonts/amplitud.ttf
1757.7	n/a	REC_START	878850	n/a	LTP195	ltpFR	6	10	n/a	n/a	n/a	n/a	n/a	n/a	n/a	n/a	n/a	n/a
1758.632	n/a	REC_WORD	879316	wordpools/wasnorm_wordpool_less_exclusions.txt	LTP195	ltpFR	6	10	0	ENEMY	534	n/a	1	n/a	n/a	n/a	n/a	n/a
1760.048	n/a	REC_WORD	880024	wordpools/wasnorm_wordpool_less_exclusions.txt	LTP195	ltpFR	6	10	0	VISITOR	1573	n/a	0	n/a	n/a	n/a	n/a	n/a
1762.654	n/a	REC_WORD	881327	wordpools/wasnorm_wordpool_less_exclusions.txt	LTP195	ltpFR	6	10	1	TURNIP	1521	n/a	1	n/a	n/a	n/a	n/a	n/a
1763.87	n/a	REC_WORD	881935	wordpools/wasnorm_wordpool_less_exclusions.txt	LTP195	ltpFR	6	10	1	TURKEY	1520	n/a	1	n/a	n/a	n/a	n/a	n/a
1765.232	n/a	REC_WORD	882616	wordpools/wasnorm_wordpool_less_exclusions.txt	LTP195	ltpFR	6	10	1	PLATE	1086	n/a	0	n/a	n/a	n/a	n/a	n/a
1767.022	n/a	REC_WORD	883511	wordpools/wasnorm_wordpool_less_exclusions.txt	LTP195	ltpFR	6	10	0	FIREMAN	569	n/a	1	n/a	n/a	n/a	n/a	n/a
1768.524	n/a	REC_WORD	884262	wordpools/wasnorm_wordpool_less_exclusions.txt	LTP195	ltpFR	6	10	0	ANTENNA	28	n/a	0	n/a	n/a	n/a	n/a	n/a
1769.836	n/a	REC_WORD	884918	wordpools/wasnorm_wordpool_less_exclusions.txt	LTP195	ltpFR	6	10	0	CABLE	213	n/a	0	n/a	n/a	n/a	n/a	n/a
1771.338	n/a	REC_WORD	885669	wordpools/wasnorm_wordpool_less_exclusions.txt	LTP195	ltpFR	6	10	1	CANDY	230	n/a	0	n/a	n/a	n/a	n/a	n/a
1814.75	n/a	REC_WORD	907375	wordpools/wasnorm_wordpool_less_exclusions.txt	LTP195	ltpFR	6	10	1	PRODUCER	1129	n/a	0	n/a	n/a	n/a	n/a	n/a
1849.662	n/a	WORD	924831	wordpools/wasnorm_wordpool_less_exclusions.txt	LTP195	ltpFR	6	11	1	SHOP	1290	n/a	0	1	0.412841796875	0.57763671875	upper	../fonts/zerothre.ttf
1853.624	n/a	WORD	926812	wordpools/wasnorm_wordpool_less_exclusions.txt	LTP195	ltpFR	6	11	1	PENCIL	1042	n/a	0	1	0.412841796875	0.57763671875	upper	../fonts/zerothre.ttf
1857.568	n/a	WORD	928784	wordpools/wasnorm_wordpool_less_exclusions.txt	LTP195	ltpFR	6	11	1	WATER	1594	n/a	0	1	0.412841796875	0.57763671875	upper	../fonts/zerothre.ttf
1861.712	n/a	WORD	930856	wordpools/wasnorm_wordpool_less_exclusions.txt	LTP195	ltpFR	6	11	1	POWDER	1117	n/a	0	1	0.412841796875	0.57763671875	upper	../fonts/zerothre.ttf
1865.622	n/a	WORD	932811	wordpools/wasnorm_wordpool_less_exclusions.txt	LTP195	ltpFR	6	11	1	COMEDIAN	352	n/a	1	1	0.412841796875	0.57763671875	upper	../fonts/zerothre.ttf
1869.816	n/a	WORD	934908	wordpools/wasnorm_wordpool_less_exclusions.txt	LTP195	ltpFR	6	11	1	FOLDER	588	n/a	0	1	0.412841796875	0.57763671875	upper	../fonts/zerothre.ttf
1874.028	n/a	WORD	937014	wordpools/wasnorm_wordpool_less_exclusions.txt	LTP195	ltpFR	6	11	1	STAPLE	1371	n/a	0	1	0.412841796875	0.57763671875	upper	../fonts/zerothre.ttf
1878.156	n/a	WORD	939078	wordpools/wasnorm_wordpool_less_exclusions.txt	LTP195	ltpFR	6	11	1	CUSTOMER	430	n/a	1	1	0.412841796875	0.57763671875	upper	../fonts/zerothre.ttf
1882.15	n/a	WORD	941075	wordpools/wasnorm_wordpool_less_exclusions.txt	LTP195	ltpFR	6	11	1	GLOBE	641	n/a	1	1	0.412841796875	0.57763671875	upper	../fonts/zerothre.ttf
1886.344	n/a	WORD	943172	wordpools/wasnorm_wordpool_less_exclusions.txt	LTP195	ltpFR	6	11	1	HARE	688	n/a	1	1	0.412841796875	0.57763671875	upper	../fonts/zerothre.ttf
1890.404	n/a	WORD	945202	wordpools/wasnorm_wordpool_less_exclusions.txt	LTP195	ltpFR	6	11	1	MAGICIAN	854	n/a	1	1	0.412841796875	0.57763671875	upper	../fonts/zerothre.ttf
1894.264	n/a	WORD	947132	wordpools/wasnorm_wordpool_less_exclusions.txt	LTP195	ltpFR	6	11	1	OATMEAL	967	n/a	0	1	0.412841796875	0.57763671875	upper	../fonts/zerothre.ttf
1898.158	n/a	WORD	949079	wordpools/wasnorm_wordpool_less_exclusions.txt	LTP195	ltpFR	6	11	1	PLUTO	1092	n/a	0	1	0.412841796875	0.57763671875	upper	../fonts/zerothre.ttf
1902.336	n/a	WORD	951168	wordpools/wasnorm_wordpool_less_exclusions.txt	LTP195	ltpFR	6	11	1	QUILL	1150	n/a	0	1	0.412841796875	0.57763671875	upper	../fonts/zerothre.ttf
1906.28	n/a	WORD	953140	wordpools/wasnorm_wordpool_less_exclusions.txt	LTP195	ltpFR	6	11	1	HUMAN	726	n/a	1	1	0.412841796875	0.57763671875	upper	../fonts/zerothre.ttf
1910.474	n/a	WORD	955237	wordpools/wasnorm_wordpool_less_exclusions.txt	LTP195	ltpFR	6	11	1	SKIN	1318	n/a	0	1	0.412841796875	0.57763671875	upper	../fonts/zerothre.ttf
1916.416	n/a	REC_START	958208	n/a	LTP195	ltpFR	6	11	n/a	n/a	n/a	n/a	n/a	n/a	n/a	n/a	n/a	n/a
1917.088	n/a	REC_WORD	958544	wordpools/wasnorm_wordpool_less_exclusions.txt	LTP195	ltpFR	6	11	1	HUMAN	726	n/a	1	n/a	n/a	n/a	n/a	n/a
1918.456	n/a	REC_WORD	959228	wordpools/wasnorm_wordpool_less_exclusions.txt	LTP195	ltpFR	6	11	1	SKIN	1318	n/a	0	n/a	n/a	n/a	n/a	n/a
1919.882	n/a	REC_WORD	959941	wordpools/wasnorm_wordpool_less_exclusions.txt	LTP195	ltpFR	6	11	1	MAGICIAN	854	n/a	1	n/a	n/a	n/a	n/a	n/a
1921.534	n/a	REC_WORD	960767	wordpools/wasnorm_wordpool_less_exclusions.txt	LTP195	ltpFR	6	11	1	COMEDIAN	352	n/a	1	n/a	n/a	n/a	n/a	n/a
1923.568	n/a	REC_WORD	961784	wordpools/wasnorm_wordpool_less_exclusions.txt	LTP195	ltpFR	6	11	1	HARE	688	n/a	1	n/a	n/a	n/a	n/a	n/a
1924.956	n/a	REC_WORD	962478	wordpools/wasnorm_wordpool_less_exclusions.txt	LTP195	ltpFR	6	11	1	CUSTOMER	430	n/a	1	n/a	n/a	n/a	n/a	n/a
1926.422	n/a	REC_WORD	963211	wordpools/wasnorm_wordpool_less_exclusions.txt	LTP195	ltpFR	6	11	1	SHOP	1290	n/a	0	n/a	n/a	n/a	n/a	n/a
1928.064	n/a	REC_WORD	964032	wordpools/wasnorm_wordpool_less_exclusions.txt	LTP195	ltpFR	6	11	1	STAPLE	1371	n/a	0	n/a	n/a	n/a	n/a	n/a
1929.984	n/a	REC_WORD	964992	wordpools/wasnorm_wordpool_less_exclusions.txt	LTP195	ltpFR	6	11	1	POWDER	1117	n/a	0	n/a	n/a	n/a	n/a	n/a
1932.174	n/a	REC_WORD	966087	wordpools/wasnorm_wordpool_less_exclusions.txt	LTP195	ltpFR	6	11	1	PENCIL	1042	n/a	0	n/a	n/a	n/a	n/a	n/a
1934.274	n/a	REC_WORD	967137	wordpools/wasnorm_wordpool_less_exclusions.txt	LTP195	ltpFR	6	11	1	FOLDER	588	n/a	0	n/a	n/a	n/a	n/a	n/a
1937.732	n/a	REC_WORD	968866	wordpools/wasnorm_wordpool_less_exclusions.txt	LTP195	ltpFR	6	11	1	OATMEAL	967	n/a	0	n/a	n/a	n/a	n/a	n/a
1994.964	n/a	WORD	997482	wordpools/wasnorm_wordpool_less_exclusions.txt	LTP195	ltpFR	6	12	-1	PUBLISHER	1137	n/a	-1	1	1.0	1.0	upper	../fonts/Verdana.ttf
1999.06	n/a	WORD	999530	wordpools/wasnorm_wordpool_less_exclusions.txt	LTP195	ltpFR	6	12	-1	PORCUPINE	1107	n/a	-1	1	1.0	1.0	upper	../fonts/Verdana.ttf
2002.986	n/a	WORD	1001493	wordpools/wasnorm_wordpool_less_exclusions.txt	LTP195	ltpFR	6	12	-1	CREATURE	403	n/a	-1	1	1.0	1.0	upper	../fonts/Verdana.ttf
2006.83	n/a	WORD	1003415	wordpools/wasnorm_wordpool_less_exclusions.txt	LTP195	ltpFR	6	12	-1	TERMINAL	1450	n/a	-1	1	1.0	1.0	upper	../fonts/Verdana.ttf
2010.774	n/a	WORD	1005387	wordpools/wasnorm_wordpool_less_exclusions.txt	LTP195	ltpFR	6	12	-1	PILOT	1070	n/a	-1	1	1.0	1.0	upper	../fonts/Verdana.ttf
2014.984	n/a	WORD	1007492	wordpools/wasnorm_wordpool_less_exclusions.txt	LTP195	ltpFR	6	12	-1	HELICOPTER	701	n/a	-1	1	1.0	1.0	upper	../fonts/Verdana.ttf
2018.978	n/a	WORD	1009489	wordpools/wasnorm_wordpool_less_exclusions.txt	LTP195	ltpFR	6	12	-1	RAIL	1161	n/a	-1	1	1.0	1.0	upper	../fonts/Verdana.ttf
2022.924	n/a	WORD	1011462	wordpools/wasnorm_wordpool_less_exclusions.txt	LTP195	ltpFR	6	12	-1	AUTHOR	61	n/a	-1	1	1.0	1.0	upper	../fonts/Verdana.ttf
2027.05	n/a	WORD	1013525	wordpools/wasnorm_wordpool_less_exclusions.txt	LTP195	ltpFR	6	12	-1	CEREAL	272	n/a	-1	1	1.0	1.0	upper	../fonts/Verdana.ttf
2031.262	n/a	WORD	1015631	wordpools/wasnorm_wordpool_less_exclusions.txt	LTP195	ltpFR	6	12	-1	BEET	115	n/a	-1	1	1.0	1.0	upper	../fonts/Verdana.ttf
2035.422	n/a	WORD	1017711	wordpools/wasnorm_wordpool_less_exclusions.txt	LTP195	ltpFR	6	12	-1	CITY	314	n/a	-1	1	1.0	1.0	upper	../fonts/Verdana.ttf
2039.582	n/a	WORD	1019791	wordpools/wasnorm_wordpool_less_exclusions.txt	LTP195	ltpFR	6	12	-1	SHACK	1273	n/a	-1	1	1.0	1.0	upper	../fonts/Verdana.ttf
2043.742	n/a	WORD	1021871	wordpools/wasnorm_wordpool_less_exclusions.txt	LTP195	ltpFR	6	12	-1	RACCOON	1153	n/a	-1	1	1.0	1.0	upper	../fonts/Verdana.ttf
2047.736	n/a	WORD	1023868	wordpools/wasnorm_wordpool_less_exclusions.txt	LTP195	ltpFR	6	12	-1	CAN	225	n/a	-1	1	1.0	1.0	upper	../fonts/Verdana.ttf
2051.896	n/a	WORD	1025948	wordpools/wasnorm_wordpool_less_exclusions.txt	LTP195	ltpFR	6	12	-1	SCARECROW	1245	n/a	-1	1	1.0	1.0	upper	../fonts/Verdana.ttf
2055.99	n/a	WORD	1027995	wordpools/wasnorm_wordpool_less_exclusions.txt	LTP195	ltpFR	6	12	-1	BAG	69	n/a	-1	1	1.0	1.0	upper	../fonts/Verdana.ttf
2061.782	n/a	REC_START	1030891	n/a	LTP195	ltpFR	6	12	n/a	n/a	n/a	n/a	n/a	n/a	n/a	n/a	n/a	n/a
2062.8	n/a	REC_WORD	1031400	wordpools/wasnorm_wordpool_less_exclusions.txt	LTP195	ltpFR	6	12	-1	CAN	225	n/a	-1	n/a	n/a	n/a	n/a	n/a
2064.216	n/a	REC_WORD	1032108	wordpools/wasnorm_wordpool_less_exclusions.txt	LTP195	ltpFR	6	12	-1	BAG	69	n/a	-1	n/a	n/a	n/a	n/a	n/a
2065.438	n/a	REC_WORD	1032719	wordpools/wasnorm_wordpool_less_exclusions.txt	LTP195	ltpFR	6	12	-1	SCARECROW	1245	n/a	-1	n/a	n/a	n/a	n/a	n/a
2066.896	n/a	REC_WORD	1033448	wordpools/wasnorm_wordpool_less_exclusions.txt	LTP195	ltpFR	6	12	-1	SHACK	1273	n/a	-1	n/a	n/a	n/a	n/a	n/a
2070.008	n/a	REC_WORD	1035004	wordpools/wasnorm_wordpool_less_exclusions.txt	LTP195	ltpFR	6	12	-1	PILOT	1070	n/a	-1	n/a	n/a	n/a	n/a	n/a
2071.186	n/a	REC_WORD	1035593	wordpools/wasnorm_wordpool_less_exclusions.txt	LTP195	ltpFR	6	12	-1	HELICOPTER	701	n/a	-1	n/a	n/a	n/a	n/a	n/a
2074.318	n/a	REC_WORD	1037159	wordpools/wasnorm_wordpool_less_exclusions.txt	LTP195	ltpFR	6	12	-1	TERMINAL	1450	n/a	-1	n/a	n/a	n/a	n/a	n/a
2078.444	n/a	REC_WORD	1039222	wordpools/wasnorm_wordpool_less_exclusions.txt	LTP195	ltpFR	6	12	-1	RACCOON	1153	n/a	-1	n/a	n/a	n/a	n/a	n/a
2079.472	n/a	REC_WORD	1039736	wordpools/wasnorm_wordpool_less_exclusions.txt	LTP195	ltpFR	6	12	-1	PORCUPINE	1107	n/a	-1	n/a	n/a	n/a	n/a	n/a
2081.772	n/a	REC_WORD	1040886	wordpools/wasnorm_wordpool_less_exclusions.txt	LTP195	ltpFR	6	12	-1	CREATURE	403	n/a	-1	n/a	n/a	n/a	n/a	n/a
2086.222	n/a	REC_WORD	1043111	wordpools/wasnorm_wordpool_less_exclusions.txt	LTP195	ltpFR	6	12	-1	CITY	314	n/a	-1	n/a	n/a	n/a	n/a	n/a
2087.638	n/a	REC_WORD	1043819	wordpools/wasnorm_wordpool_less_exclusions.txt	LTP195	ltpFR	6	12	-1	AUTHOR	61	n/a	-1	n/a	n/a	n/a	n/a	n/a
2089.106	n/a	REC_WORD	1044553	wordpools/wasnorm_wordpool_less_exclusions.txt	LTP195	ltpFR	6	12	-1	PUBLISHER	1137	n/a	-1	n/a	n/a	n/a	n/a	n/a
2137.388	n/a	REST_REWET	1068694	n/a	LTP195	ltpFR	6	12	n/a	n/a	n/a	n/a	n/a	n/a	n/a	n/a	n/a	n/a
2412.464	n/a	WORD	1206232	wordpools/wasnorm_wordpool_less_exclusions.txt	LTP195	ltpFR	6	13	1	BAKER	71	n/a	0	1	0.412841796875	0.57763671875	upper	../fonts/zerothre.ttf
2416.426	n/a	WORD	1208213	wordpools/wasnorm_wordpool_less_exclusions.txt	LTP195	ltpFR	6	13	1	SKIRT	1319	n/a	0	1	0.412841796875	0.57763671875	upper	../fonts/zerothre.ttf
2420.32	n/a	WORD	1210160	wordpools/wasnorm_wordpool_less_exclusions.txt	LTP195	ltpFR	6	13	1	PANTS	1010	n/a	0	1	0.412841796875	0.57763671875	upper	../fonts/zerothre.ttf
2424.33	n/a	WORD	1212165	wordpools/wasnorm_wordpool_less_exclusions.txt	LTP195	ltpFR	6	13	0	COLESLAW	344	n/a	0	0	0.5869140625	0.422607421875	lower	../fonts/amplitud.ttf
2428.39	n/a	WORD	1214195	wordpools/wasnorm_wordpool_less_exclusions.txt	LTP195	ltpFR	6	13	0	COLONEL	348	n/a	1	0	0.5869140625	0.422607421875	lower	../fonts/amplitud.ttf
2432.268	n/a	WORD	1216134	wordpools/wasnorm_wordpool_less_exclusions.txt	LTP195	ltpFR	6	13	0	CACTUS	215	n/a	0	0	0.5869140625	0.422607421875	lower	../fonts/amplitud.ttf
2436.212	n/a	WORD	1218106	wordpools/wasnorm_wordpool_less_exclusions.txt	LTP195	ltpFR	6	13	0	JUNGLE	764	n/a	1	0	0.5869140625	0.422607421875	lower	../fonts/amplitud.ttf
2440.322	n/a	WORD	1220161	wordpools/wasnorm_wordpool_less_exclusions.txt	LTP195	ltpFR	6	13	0	NICOTINE	951	n/a	0	0	0.5869140625	0.422607421875	lower	../fonts/amplitud.ttf
2444.266	n/a	WORD	1222133	wordpools/wasnorm_wordpool_less_exclusions.txt	LTP195	ltpFR	6	13	1	COD	340	n/a	1	1	0.412841796875	0.57763671875	upper	../fonts/zerothre.ttf
2448.228	n/a	WORD	1224114	wordpools/wasnorm_wordpool_less_exclusions.txt	LTP195	ltpFR	6	13	1	HAM	678	n/a	0	1	0.412841796875	0.57763671875	upper	../fonts/zerothre.ttf
2452.354	n/a	WORD	1226177	wordpools/wasnorm_wordpool_less_exclusions.txt	LTP195	ltpFR	6	13	0	SHARK	1275	n/a	1	0	0.5869140625	0.422607421875	lower	../fonts/amplitud.ttf
2456.316	n/a	WORD	1228158	wordpools/wasnorm_wordpool_less_exclusions.txt	LTP195	ltpFR	6	13	0	SATURN	1236	n/a	1	0	0.5869140625	0.422607421875	lower	../fonts/amplitud.ttf
2460.376	n/a	WORD	1230188	wordpools/wasnorm_wordpool_less_exclusions.txt	LTP195	ltpFR	6	13	0	NEPTUNE	943	n/a	1	0	0.5869140625	0.422607421875	lower	../fonts/amplitud.ttf
2464.288	n/a	WORD	1232144	wordpools/wasnorm_wordpool_less_exclusions.txt	LTP195	ltpFR	6	13	1	ROBOT	1200	n/a	1	1	0.412841796875	0.57763671875	upper	../fonts/zerothre.ttf
2468.316	n/a	WORD	1234158	wordpools/wasnorm_wordpool_less_exclusions.txt	LTP195	ltpFR	6	13	1	UNIFORM	1539	n/a	1	1	0.412841796875	0.57763671875	upper	../fonts/zerothre.ttf
2472.492	n/a	WORD	1236246	wordpools/wasnorm_wordpool_less_exclusions.txt	LTP195	ltpFR	6	13	1	PORK	1108	n/a	0	1	0.412841796875	0.57763671875	upper	../fonts/zerothre.ttf
2478.184	n/a	REC_START	1239092	n/a	LTP195	ltpFR	6	13	n/a	n/a	n/a	n/a	n/a	n/a	n/a	n/a	n/a	n/a
2480.184	n/a	REC_WORD	1240092	wordpools/wasnorm_wordpool_less_exclusions.txt	LTP195	ltpFR	6	13	1	PORK	1108	n/a	0	n/a	n/a	n/a	n/a	n/a
2481.422	n/a	REC_WORD	1240711	wordpools/wasnorm_wordpool_less_exclusions.txt	LTP195	ltpFR	6	13	1	HAM	678	n/a	0	n/a	n/a	n/a	n/a	n/a
2482.804	n/a	REC_WORD	1241402	wordpools/wasnorm_wordpool_less_exclusions.txt	LTP195	ltpFR	6	13	1	COD	340	n/a	1	n/a	n/a	n/a	n/a	n/a
2484.1	n/a	REC_WORD	1242050	wordpools/wasnorm_wordpool_less_exclusions.txt	LTP195	ltpFR	6	13	0	SHARK	1275	n/a	1	n/a	n/a	n/a	n/a	n/a
2485.768	n/a	REC_WORD	1242884	wordpools/wasnorm_wordpool_less_exclusions.txt	LTP195	ltpFR	6	13	0	COLONEL	348	n/a	1	n/a	n/a	n/a	n/a	n/a
2487.732	n/a	REC_WORD	1243866	wordpools/wasnorm_wordpool_less_exclusions.txt	LTP195	ltpFR	6	13	1	UNIFORM	1539	n/a	1	n/a	n/a	n/a	n/a	n/a
2489.538	n/a	REC_WORD	1244769	wordpools/wasnorm_wordpool_less_exclusions.txt	LTP195	ltpFR	6	13	0	NEPTUNE	943	n/a	1	n/a	n/a	n/a	n/a	n/a
2491.214	n/a	REC_WORD	1245607	wordpools/wasnorm_wordpool_less_exclusions.txt	LTP195	ltpFR	6	13	1	ROBOT	1200	n/a	1	n/a	n/a	n/a	n/a	n/a
2494.242	n/a	REC_WORD	1247121	wordpools/wasnorm_wordpool_less_exclusions.txt	LTP195	ltpFR	6	13	1	BAKER	71	n/a	0	n/a	n/a	n/a	n/a	n/a
2496.024	n/a	REC_WORD	1248012	wordpools/wasnorm_wordpool_less_exclusions.txt	LTP195	ltpFR	6	13	1	PANTS	1010	n/a	0	n/a	n/a	n/a	n/a	n/a
2497.664	n/a	REC_WORD	1248832	wordpools/wasnorm_wordpool_less_exclusions.txt	LTP195	ltpFR	6	13	1	SKIRT	1319	n/a	0	n/a	n/a	n/a	n/a	n/a
2502.614	n/a	REC_WORD	1251307	wordpools/wasnorm_wordpool_less_exclusions.txt	LTP195	ltpFR	6	13	0	JUNGLE	764	n/a	1	n/a	n/a	n/a	n/a	n/a
2528.08	n/a	REC_WORD	1264040	wordpools/wasnorm_wordpool_less_exclusions.txt	LTP195	ltpFR	6	13	0	COLESLAW	344	n/a	0	n/a	n/a	n/a	n/a	n/a
2529.956	n/a	REC_WORD	1264978	wordpools/wasnorm_wordpool_less_exclusions.txt	LTP195	ltpFR	6	13	0	CACTUS	215	n/a	0	n/a	n/a	n/a	n/a	n/a
2535.1	n/a	REC_WORD	1267550	wordpools/wasnorm_wordpool_less_exclusions.txt	LTP195	ltpFR	6	13	0	SATURN	1236	n/a	1	n/a	n/a	n/a	n/a	n/a
2557.45	n/a	WORD	1278725	wordpools/wasnorm_wordpool_less_exclusions.txt	LTP195	ltpFR	6	14	0	BANDANNA	80	n/a	0	0	0.5869140625	0.422607421875	lower	../fonts/amplitud.ttf
2561.51	n/a	WORD	1280755	wordpools/wasnorm_wordpool_less_exclusions.txt	LTP195	ltpFR	6	14	0	SHEPHERD	1283	n/a	0	0	0.5869140625	0.422607421875	lower	../fonts/amplitud.ttf
2565.372	n/a	WORD	1282686	wordpools/wasnorm_wordpool_less_exclusions.txt	LTP195	ltpFR	6	14	0	NOMAD	955	n/a	1	0	0.5869140625	0.422607421875	lower	../fonts/amplitud.ttf
2569.298	n/a	WORD	1284649	wordpools/wasnorm_wordpool_less_exclusions.txt	LTP195	ltpFR	6	14	0	TENT	1449	n/a	0	0	0.5869140625	0.422607421875	lower	../fonts/amplitud.ttf
2573.376	n/a	WORD	1286688	wordpools/wasnorm_wordpool_less_exclusions.txt	LTP195	ltpFR	6	14	0	COOK	372	n/a	1	0	0.5869140625	0.422607421875	lower	../fonts/amplitud.ttf
2577.552	n/a	WORD	1288776	wordpools/wasnorm_wordpool_less_exclusions.txt	LTP195	ltpFR	6	14	0	DIGGER	464	n/a	0	0	0.5869140625	0.422607421875	lower	../fonts/amplitud.ttf
2581.398	n/a	WORD	1290699	wordpools/wasnorm_wordpool_less_exclusions.txt	LTP195	ltpFR	6	14	0	BUN	197	n/a	0	0	0.5869140625	0.422607421875	lower	../fonts/amplitud.ttf
2585.606	n/a	WORD	1292803	wordpools/wasnorm_wordpool_less_exclusions.txt	LTP195	ltpFR	6	14	0	MICROPHONE	890	n/a	0	0	0.5869140625	0.422607421875	lower	../fonts/amplitud.ttf
2589.668	n/a	WORD	1294834	wordpools/wasnorm_wordpool_less_exclusions.txt	LTP195	ltpFR	6	14	0	APRON	35	n/a	1	0	0.5869140625	0.422607421875	lower	../fonts/amplitud.ttf
2593.578	n/a	WORD	1296789	wordpools/wasnorm_wordpool_less_exclusions.txt	LTP195	ltpFR	6	14	0	OCEAN	970	n/a	1	0	0.5869140625	0.422607421875	lower	../fonts/amplitud.ttf
2597.506	n/a	WORD	1298753	wordpools/wasnorm_wordpool_less_exclusions.txt	LTP195	ltpFR	6	14	0	STEREO	1378	n/a	0	0	0.5869140625	0.422607421875	lower	../fonts/amplitud.ttf
2601.682	n/a	WORD	1300841	wordpools/wasnorm_wordpool_less_exclusions.txt	LTP195	ltpFR	6	14	0	RADIATOR	1156	n/a	1	0	0.5869140625	0.422607421875	lower	../fonts/amplitud.ttf
2605.81	n/a	WORD	1302905	wordpools/wasnorm_wordpool_less_exclusions.txt	LTP195	ltpFR	6	14	0	WHEEL	1603	n/a	0	0	0.5869140625	0.422607421875	lower	../fonts/amplitud.ttf
2609.92	n/a	WORD	1304960	wordpools/wasnorm_wordpool_less_exclusions.txt	LTP195	ltpFR	6	14	0	MOTH	920	n/a	0	0	0.5869140625	0.422607421875	lower	../fonts/amplitud.ttf
2614.048	n/a	WORD	1307024	wordpools/wasnorm_wordpool_less_exclusions.txt	LTP195	ltpFR	6	14	0	SWATTER	1418	n/a	0	0	0.5869140625	0.422607421875	lower	../fonts/amplitud.ttf
2617.926	n/a	WORD	1308963	wordpools/wasnorm_wordpool_less_exclusions.txt	LTP195	ltpFR	6	14	0	MARSH	874	n/a	1	0	0.5869140625	0.422607421875	lower	../fonts/amplitud.ttf
2623.652	n/a	REC_START	1311826	n/a	LTP195	ltpFR	6	14	n/a	n/a	n/a	n/a	n/a	n/a	n/a	n/a	n/a	n/a
2625.138	n/a	REC_WORD	1312569	wordpools/wasnorm_wordpool_less_exclusions.txt	LTP195	ltpFR	6	14	0	OCEAN	970	n/a	1	n/a	n/a	n/a	n/a	n/a
2626.564	n/a	REC_WORD	1313282	wordpools/wasnorm_wordpool_less_exclusions.txt	LTP195	ltpFR	6	14	0	MARSH	874	n/a	1	n/a	n/a	n/a	n/a	n/a
2628.106	n/a	REC_WORD	1314053	wordpools/wasnorm_wordpool_less_exclusions.txt	LTP195	ltpFR	6	14	0	SHEPHERD	1283	n/a	0	n/a	n/a	n/a	n/a	n/a
2629.898	n/a	REC_WORD	1314949	wordpools/wasnorm_wordpool_less_exclusions.txt	LTP195	ltpFR	6	14	0	NOMAD	955	n/a	1	n/a	n/a	n/a	n/a	n/a
2636.716	n/a	REC_WORD	1318358	wordpools/wasnorm_wordpool_less_exclusions.txt	LTP195	ltpFR	6	14	0	TENT	1449	n/a	0	n/a	n/a	n/a	n/a	n/a
2638.224	n/a	REC_WORD	1319112	wordpools/wasnorm_wordpool_less_exclusions.txt	LTP195	ltpFR	6	14	0	MOTH	920	n/a	0	n/a	n/a	n/a	n/a	n/a
2639.556	n/a	REC_WORD	1319778	wordpools/wasnorm_wordpool_less_exclusions.txt	LTP195	ltpFR	6	14	0	SWATTER	1418	n/a	0	n/a	n/a	n/a	n/a	n/a
2646.698	n/a	REC_WORD	1323349	wordpools/wasnorm_wordpool_less_exclusions.txt	LTP195	ltpFR	6	14	0	BUN	197	n/a	0	n/a	n/a	n/a	n/a	n/a
2661.814	n/a	REC_WORD	1330907	wordpools/wasnorm_wordpool_less_exclusions.txt	LTP195	ltpFR	6	14	0	BANDANNA	80	n/a	0	n/a	n/a	n/a	n/a	n/a
2702.634	n/a	WORD	1351317	wordpools/wasnorm_wordpool_less_exclusions.txt	LTP195	ltpFR	6	15	1	CHIEF	298	n/a	1	1	0.412841796875	0.57763671875	upper	../fonts/zerothre.ttf
2706.48	n/a	WORD	1353240	wordpools/wasnorm_wordpool_less_exclusions.txt	LTP195	ltpFR	6	15	1	HERD	705	n/a	0	1	0.412841796875	0.57763671875	upper	../fonts/zerothre.ttf
2710.638	n/a	WORD	1355319	wordpools/wasnorm_wordpool_less_exclusions.txt	LTP195	ltpFR	6	15	1	BEAN	105	n/a	0	1	0.412841796875	0.57763671875	upper	../fonts/zerothre.ttf
2714.65	n/a	WORD	1357325	wordpools/wasnorm_wordpool_less_exclusions.txt	LTP195	ltpFR	6	15	1	COYOTE	396	n/a	1	1	0.412841796875	0.57763671875	upper	../fonts/zerothre.ttf
2718.676	n/a	WORD	1359338	wordpools/wasnorm_wordpool_less_exclusions.txt	LTP195	ltpFR	6	15	1	MAILMAN	858	n/a	1	1	0.412841796875	0.57763671875	upper	../fonts/zerothre.ttf
2722.588	n/a	WORD	1361294	wordpools/wasnorm_wordpool_less_exclusions.txt	LTP195	ltpFR	6	15	1	DISH	474	n/a	0	1	0.412841796875	0.57763671875	upper	../fonts/zerothre.ttf
2726.664	n/a	WORD	1363332	wordpools/wasnorm_wordpool_less_exclusions.txt	LTP195	ltpFR	6	15	1	CELLO	268	n/a	0	1	0.412841796875	0.57763671875	upper	../fonts/zerothre.ttf
2730.726	n/a	WORD	1365363	wordpools/wasnorm_wordpool_less_exclusions.txt	LTP195	ltpFR	6	15	1	OBOE	969	n/a	0	1	0.412841796875	0.57763671875	upper	../fonts/zerothre.ttf
2734.686	n/a	WORD	1367343	wordpools/wasnorm_wordpool_less_exclusions.txt	LTP195	ltpFR	6	15	1	COMMANDER	354	n/a	1	1	0.412841796875	0.57763671875	upper	../fonts/zerothre.ttf
2738.614	n/a	WORD	1369307	wordpools/wasnorm_wordpool_less_exclusions.txt	LTP195	ltpFR	6	15	1	MOWER	928	n/a	0	1	0.412841796875	0.57763671875	upper	../fonts/zerothre.ttf
2742.508	n/a	WORD	1371254	wordpools/wasnorm_wordpool_less_exclusions.txt	LTP195	ltpFR	6	15	1	COLLEGE	346	n/a	0	1	0.412841796875	0.57763671875	upper	../fonts/zerothre.ttf
2746.404	n/a	WORD	1373202	wordpools/wasnorm_wordpool_less_exclusions.txt	LTP195	ltpFR	6	15	1	STUDENT	1395	n/a	1	1	0.412841796875	0.57763671875	upper	../fonts/zerothre.ttf
2750.48	n/a	WORD	1375240	wordpools/wasnorm_wordpool_less_exclusions.txt	LTP195	ltpFR	6	15	1	PITCHFORK	1078	n/a	0	1	0.412841796875	0.57763671875	upper	../fonts/zerothre.ttf
2754.656	n/a	WORD	1377328	wordpools/wasnorm_wordpool_less_exclusions.txt	LTP195	ltpFR	6	15	1	KETTLE	772	n/a	0	1	0.412841796875	0.57763671875	upper	../fonts/zerothre.ttf
2758.784	n/a	WORD	1379392	wordpools/wasnorm_wordpool_less_exclusions.txt	LTP195	ltpFR	6	15	1	LAWN	805	n/a	1	1	0.412841796875	0.57763671875	upper	../fonts/zerothre.ttf
2762.678	n/a	WORD	1381339	wordpools/wasnorm_wordpool_less_exclusions.txt	LTP195	ltpFR	6	15	1	DAD	433	n/a	1	1	0.412841796875	0.57763671875	upper	../fonts/zerothre.ttf
2768.454	n/a	REC_START	1384227	n/a	LTP195	ltpFR	6	15	n/a	n/a	n/a	n/a	n/a	n/a	n/a	n/a	n/a	n/a
2769.576	n/a	REC_WORD	1384788	wordpools/wasnorm_wordpool_less_exclusions.txt	LTP195	ltpFR	6	15	1	DAD	433	n/a	1	n/a	n/a	n/a	n/a	n/a
2770.644	n/a	REC_WORD	1385322	wordpools/wasnorm_wordpool_less_exclusions.txt	LTP195	ltpFR	6	15	1	COMMANDER	354	n/a	1	n/a	n/a	n/a	n/a	n/a
2772.012	n/a	REC_WORD	1386006	wordpools/wasnorm_wordpool_less_exclusions.txt	LTP195	ltpFR	6	15	1	CHIEF	298	n/a	1	n/a	n/a	n/a	n/a	n/a
2773.318	n/a	REC_WORD	1386659	wordpools/wasnorm_wordpool_less_exclusions.txt	LTP195	ltpFR	6	15	1	HERD	705	n/a	0	n/a	n/a	n/a	n/a	n/a
2774.51	n/a	REC_WORD	1387255	wordpools/wasnorm_wordpool_less_exclusions.txt	LTP195	ltpFR	6	15	1	COYOTE	396	n/a	1	n/a	n/a	n/a	n/a	n/a
2776.002	n/a	REC_WORD	1388001	wordpools/wasnorm_wordpool_less_exclusions.txt	LTP195	ltpFR	6	15	1	BEAN	105	n/a	0	n/a	n/a	n/a	n/a	n/a
2777.768	n/a	REC_WORD	1388884	wordpools/wasnorm_wordpool_less_exclusions.txt	LTP195	ltpFR	6	15	1	MAILMAN	858	n/a	1	n/a	n/a	n/a	n/a	n/a
2779.23	n/a	REC_WORD	1389615	wordpools/wasnorm_wordpool_less_exclusions.txt	LTP195	ltpFR	6	15	1	DISH	474	n/a	0	n/a	n/a	n/a	n/a	n/a
2782.124	n/a	REC_WORD	1391062	wordpools/wasnorm_wordpool_less_exclusions.txt	LTP195	ltpFR	6	15	1	OBOE	969	n/a	0	n/a	n/a	n/a	n/a	n/a
2786.574	n/a	REC_WORD	1393287	wordpools/wasnorm_wordpool_less_exclusions.txt	LTP195	ltpFR	6	15	1	CELLO	268	n/a	0	n/a	n/a	n/a	n/a	n/a
2788.204	n/a	REC_WORD	1394102	wordpools/wasnorm_wordpool_less_exclusions.txt	LTP195	ltpFR	6	15	1	LAWN	805	n/a	1	n/a	n/a	n/a	n/a	n/a
2789.432	n/a	REC_WORD	1394716	wordpools/wasnorm_wordpool_less_exclusions.txt	LTP195	ltpFR	6	15	1	MOWER	928	n/a	0	n/a	n/a	n/a	n/a	n/a
2791.032	n/a	REC_WORD	1395516	wordpools/wasnorm_wordpool_less_exclusions.txt	LTP195	ltpFR	6	15	1	PITCHFORK	1078	n/a	0	n/a	n/a	n/a	n/a	n/a
2851.282	n/a	WORD	1425641	wordpools/wasnorm_wordpool_less_exclusions.txt	LTP195	ltpFR	6	16	0	BATHTUB	100	n/a	1	0	0.5869140625	0.422607421875	lower	../fonts/amplitud.ttf
2855.326	n/a	WORD	1427663	wordpools/wasnorm_wordpool_less_exclusions.txt	LTP195	ltpFR	6	16	0	MARINE	869	n/a	1	0	0.5869140625	0.422607421875	lower	../fonts/amplitud.ttf
2859.286	n/a	WORD	1429643	wordpools/wasnorm_wordpool_less_exclusions.txt	LTP195	ltpFR	6	16	1	FISH	571	n/a	1	1	0.412841796875	0.57763671875	upper	../fonts/zerothre.ttf
2863.364	n/a	WORD	1431682	wordpools/wasnorm_wordpool_less_exclusions.txt	LTP195	ltpFR	6	16	1	PARTY	1018	n/a	0	1	0.412841796875	0.57763671875	upper	../fonts/zerothre.ttf
2867.408	n/a	WORD	1433704	wordpools/wasnorm_wordpool_less_exclusions.txt	LTP195	ltpFR	6	16	1	CATCHER	258	n/a	1	1	0.412841796875	0.57763671875	upper	../fonts/zerothre.ttf
2871.6	n/a	WORD	1435800	wordpools/wasnorm_wordpool_less_exclusions.txt	LTP195	ltpFR	6	16	1	CAP	236	n/a	0	1	0.412841796875	0.57763671875	upper	../fonts/zerothre.ttf
2875.478	n/a	WORD	1437739	wordpools/wasnorm_wordpool_less_exclusions.txt	LTP195	ltpFR	6	16	0	ROOST	1208	n/a	0	0	0.5869140625	0.422607421875	lower	../fonts/amplitud.ttf
2879.506	n/a	WORD	1439753	wordpools/wasnorm_wordpool_less_exclusions.txt	LTP195	ltpFR	6	16	0	WORKER	1621	n/a	1	0	0.5869140625	0.422607421875	lower	../fonts/amplitud.ttf
2883.384	n/a	WORD	1441692	wordpools/wasnorm_wordpool_less_exclusions.txt	LTP195	ltpFR	6	16	0	TANGERINE	1431	n/a	0	0	0.5869140625	0.422607421875	lower	../fonts/amplitud.ttf
2887.262	n/a	WORD	1443631	wordpools/wasnorm_wordpool_less_exclusions.txt	LTP195	ltpFR	6	16	0	PIT	1077	n/a	0	0	0.5869140625	0.422607421875	lower	../fonts/amplitud.ttf
2891.406	n/a	WORD	1445703	wordpools/wasnorm_wordpool_less_exclusions.txt	LTP195	ltpFR	6	16	1	CABBAGE	210	n/a	0	1	0.412841796875	0.57763671875	upper	../fonts/zerothre.ttf
2895.516	n/a	WORD	1447758	wordpools/wasnorm_wordpool_less_exclusions.txt	LTP195	ltpFR	6	16	1	SADDLE	1221	n/a	0	1	0.412841796875	0.57763671875	upper	../fonts/zerothre.ttf
2899.726	n/a	WORD	1449863	wordpools/wasnorm_wordpool_less_exclusions.txt	LTP195	ltpFR	6	16	1	UNICORN	1538	n/a	1	1	0.412841796875	0.57763671875	upper	../fonts/zerothre.ttf
2903.718	n/a	WORD	1451859	wordpools/wasnorm_wordpool_less_exclusions.txt	LTP195	ltpFR	6	16	1	BARRACUDA	90	n/a	1	1	0.412841796875	0.57763671875	upper	../fonts/zerothre.ttf
2907.614	n/a	WORD	1453807	wordpools/wasnorm_wordpool_less_exclusions.txt	LTP195	ltpFR	6	16	0	CABOOSE	214	n/a	1	0	0.5869140625	0.422607421875	lower	../fonts/amplitud.ttf
2911.758	n/a	WORD	1455879	wordpools/wasnorm_wordpool_less_exclusions.txt	LTP195	ltpFR	6	16	0	REFEREE	1178	n/a	1	0	0.5869140625	0.422607421875	lower	../fonts/amplitud.ttf
2917.684	n/a	REC_START	1458842	n/a	LTP195	ltpFR	6	16	n/a	n/a	n/a	n/a	n/a	n/a	n/a	n/a	n/a	n/a
2918.9	n/a	REC_WORD	1459450	wordpools/wasnorm_wordpool_less_exclusions.txt	LTP195	ltpFR	6	16	1	CATCHER	258	n/a	1	n/a	n/a	n/a	n/a	n/a
2920.188	n/a	REC_WORD	1460094	wordpools/wasnorm_wordpool_less_exclusions.txt	LTP195	ltpFR	6	16	1	CAP	236	n/a	0	n/a	n/a	n/a	n/a	n/a
2921.48	n/a	REC_WORD	1460740	wordpools/wasnorm_wordpool_less_exclusions.txt	LTP195	ltpFR	6	16	0	REFEREE	1178	n/a	1	n/a	n/a	n/a	n/a	n/a
2923.26	n/a	REC_WORD	1461630	wordpools/wasnorm_wordpool_less_exclusions.txt	LTP195	ltpFR	6	16	0	BATHTUB	100	n/a	1	n/a	n/a	n/a	n/a	n/a
2924.666	n/a	REC_WORD	1462333	wordpools/wasnorm_wordpool_less_exclusions.txt	LTP195	ltpFR	6	16	1	FISH	571	n/a	1	n/a	n/a	n/a	n/a	n/a
2925.994	n/a	REC_WORD	1462997	wordpools/wasnorm_wordpool_less_exclusions.txt	LTP195	ltpFR	6	16	0	MARINE	869	n/a	1	n/a	n/a	n/a	n/a	n/a
2927.566	n/a	REC_WORD	1463783	wordpools/wasnorm_wordpool_less_exclusions.txt	LTP195	ltpFR	6	16	1	PARTY	1018	n/a	0	n/a	n/a	n/a	n/a	n/a
2936.032	n/a	REC_WORD	1468016	wordpools/wasnorm_wordpool_less_exclusions.txt	LTP195	ltpFR	6	16	1	BARRACUDA	90	n/a	1	n/a	n/a	n/a	n/a	n/a
2941.25	n/a	REC_WORD	1470625	wordpools/wasnorm_wordpool_less_exclusions.txt	LTP195	ltpFR	6	16	0	ROOST	1208	n/a	0	n/a	n/a	n/a	n/a	n/a
2943.21	n/a	REC_WORD	1471605	wordpools/wasnorm_wordpool_less_exclusions.txt	LTP195	ltpFR	6	16	0	WORKER	1621	n/a	1	n/a	n/a	n/a	n/a	n/a
2944.666	n/a	REC_WORD	1472333	wordpools/wasnorm_wordpool_less_exclusions.txt	LTP195	ltpFR	6	16	0	TANGERINE	1431	n/a	0	n/a	n/a	n/a	n/a	n/a
2946.562	n/a	REC_WORD	1473281	wordpools/wasnorm_wordpool_less_exclusions.txt	LTP195	ltpFR	6	16	0	PIT	1077	n/a	0	n/a	n/a	n/a	n/a	n/a
2952.07	n/a	REC_WORD	1476035	wordpools/wasnorm_wordpool_less_exclusions.txt	LTP195	ltpFR	6	16	0	CABOOSE	214	n/a	1	n/a	n/a	n/a	n/a	n/a
3005.552	n/a	REC_START	1502776	n/a	LTP195	ltpFR	6	n/a	n/a	n/a	n/a	n/a	n/a	n/a	n/a	n/a	n/a	n/a
3006.14	n/a	FFR_REC_WORD	1503070	wordpools/wasnorm_wordpool_less_exclusions.txt	LTP195	ltpFR	6	n/a	0	LIVER	833	n/a	0	n/a	n/a	n/a	n/a	n/a
3007.702	n/a	FFR_REC_WORD	1503851	wordpools/wasnorm_wordpool_less_exclusions.txt	LTP195	ltpFR	6	n/a	0	BONE	148	n/a	0	n/a	n/a	n/a	n/a	n/a
3009.072	n/a	FFR_REC_WORD	1504536	wordpools/wasnorm_wordpool_less_exclusions.txt	LTP195	ltpFR	6	n/a	0	NOSE	957	n/a	0	n/a	n/a	n/a	n/a	n/a
3010.69	n/a	FFR_REC_WORD	1505345	wordpools/wasnorm_wordpool_less_exclusions.txt	LTP195	ltpFR	6	n/a	0	HELMET	702	n/a	0	n/a	n/a	n/a	n/a	n/a
3012.652	n/a	FFR_REC_WORD	1506326	wordpools/wasnorm_wordpool_less_exclusions.txt	LTP195	ltpFR	6	n/a	1	CATCHER	258	n/a	1	n/a	n/a	n/a	n/a	n/a
3014.198	n/a	FFR_REC_WORD	1507099	wordpools/wasnorm_wordpool_less_exclusions.txt	LTP195	ltpFR	6	n/a	1	CAP	236	n/a	0	n/a	n/a	n/a	n/a	n/a
3015.554	n/a	FFR_REC_WORD	1507777	wordpools/wasnorm_wordpool_less_exclusions.txt	LTP195	ltpFR	6	n/a	0	REFEREE	1178	n/a	1	n/a	n/a	n/a	n/a	n/a
3017.91	n/a	FFR_REC_WORD	1508955	wordpools/wasnorm_wordpool_less_exclusions.txt	LTP195	ltpFR	6	n/a	0	TANGERINE	1431	n/a	0	n/a	n/a	n/a	n/a	n/a
3019.252	n/a	FFR_REC_WORD	1509626	wordpools/wasnorm_wordpool_less_exclusions.txt	LTP195	ltpFR	6	n/a	0	PIT	1077	n/a	0	n/a	n/a	n/a	n/a	n/a
3022.804	n/a	FFR_REC_WORD	1511402	wordpools/wasnorm_wordpool_less_exclusions.txt	LTP195	ltpFR	6	n/a	0	WORKER	1621	n/a	1	n/a	n/a	n/a	n/a	n/a
3024.04	n/a	FFR_REC_WORD	1512020	wordpools/wasnorm_wordpool_less_exclusions.txt	LTP195	ltpFR	6	n/a	0	ROOST	1208	n/a	0	n/a	n/a	n/a	n/a	n/a
3031.164	n/a	FFR_REC_WORD	1515582	wordpools/wasnorm_wordpool_less_exclusions.txt	LTP195	ltpFR	6	n/a	1	DAD	433	n/a	1	n/a	n/a	n/a	n/a	n/a
3032.62	n/a	FFR_REC_WORD	1516310	wordpools/wasnorm_wordpool_less_exclusions.txt	LTP195	ltpFR	6	n/a	1	COUSIN	392	n/a	1	n/a	n/a	n/a	n/a	n/a
3033.958	n/a	FFR_REC_WORD	1516979	wordpools/wasnorm_wordpool_less_exclusions.txt	LTP195	ltpFR	6	n/a	1	RELATIVE	1182	n/a	1	n/a	n/a	n/a	n/a	n/a
3035.434	n/a	FFR_REC_WORD	1517717	wordpools/wasnorm_wordpool_less_exclusions.txt	LTP195	ltpFR	6	n/a	1	COMMANDER	354	n/a	1	n/a	n/a	n/a	n/a	n/a
3036.966	n/a	FFR_REC_WORD	1518483	wordpools/wasnorm_wordpool_less_exclusions.txt	LTP195	ltpFR	6	n/a	1	CHIEF	298	n/a	1	n/a	n/a	n/a	n/a	n/a
3038.598	n/a	FFR_REC_WORD	1519299	wordpools/wasnorm_wordpool_less_exclusions.txt	LTP195	ltpFR	6	n/a	0	SHEPHERD	1283	n/a	0	n/a	n/a	n/a	n/a	n/a
3039.998	n/a	FFR_REC_WORD	1519999	wordpools/wasnorm_wordpool_less_exclusions.txt	LTP195	ltpFR	6	n/a	0	NOMAD	955	n/a	1	n/a	n/a	n/a	n/a	n/a
3044.154	n/a	FFR_REC_WORD	1522077	wordpools/wasnorm_wordpool_less_exclusions.txt	LTP195	ltpFR	6	n/a	0	TENT	1449	n/a	0	n/a	n/a	n/a	n/a	n/a
3045.83	n/a	FFR_REC_WORD	1522915	wordpools/wasnorm_wordpool_less_exclusions.txt	LTP195	ltpFR	6	n/a	0	BUN	197	n/a	0	n/a	n/a	n/a	n/a	n/a
3049.368	n/a	FFR_REC_WORD	1524684	wordpools/wasnorm_wordpool_less_exclusions.txt	LTP195	ltpFR	6	n/a	0	MOTH	920	n/a	0	n/a	n/a	n/a	n/a	n/a
3050.87	n/a	FFR_REC_WORD	1525435	wordpools/wasnorm_wordpool_less_exclusions.txt	LTP195	ltpFR	6	n/a	0	SWATTER	1418	n/a	0	n/a	n/a	n/a	n/a	n/a
3053.024	n/a	FFR_REC_WORD	1526512	wordpools/wasnorm_wordpool_less_exclusions.txt	LTP195	ltpFR	6	n/a	1	COYOTE	396	n/a	1	n/a	n/a	n/a	n/a	n/a
3056.632	n/a	FFR_REC_WORD	1528316	wordpools/wasnorm_wordpool_less_exclusions.txt	LTP195	ltpFR	6	n/a	1	OBOE	969	n/a	0	n/a	n/a	n/a	n/a	n/a
3057.764	n/a	FFR_REC_WORD	1528882	wordpools/wasnorm_wordpool_less_exclusions.txt	LTP195	ltpFR	6	n/a	1	CELLO	268	n/a	0	n/a	n/a	n/a	n/a	n/a
3058.976	n/a	FFR_REC_WORD	1529488	wordpools/wasnorm_wordpool_less_exclusions.txt	LTP195	ltpFR	6	n/a	-1	TROMBONE	1508	n/a	-1	n/a	n/a	n/a	n/a	n/a
3060.23	n/a	FFR_REC_WORD	1530115	wordpools/wasnorm_wordpool_less_exclusions.txt	LTP195	ltpFR	6	n/a	n/a	TRUMPET	1513	n/a	n/a	n/a	n/a	n/a	n/a	n/a
3062.024	n/a	FFR_REC_WORD	1531012	wordpools/wasnorm_wordpool_less_exclusions.txt	LTP195	ltpFR	6	n/a	0	FLUTE	585	n/a	0	n/a	n/a	n/a	n/a	n/a
3063.262	n/a	FFR_REC_WORD	1531631	wordpools/wasnorm_wordpool_less_exclusions.txt	LTP195	ltpFR	6	n/a	0	BELL	118	n/a	0	n/a	n/a	n/a	n/a	n/a
3064.454	n/a	FFR_REC_WORD	1532227	wordpools/wasnorm_wordpool_less_exclusions.txt	LTP195	ltpFR	6	n/a	0	CHEDDAR	286	n/a	0	n/a	n/a	n/a	n/a	n/a
3065.802	n/a	FFR_REC_WORD	1532901	wordpools/wasnorm_wordpool_less_exclusions.txt	LTP195	ltpFR	6	n/a	0	MONEY	908	n/a	0	n/a	n/a	n/a	n/a	n/a
3067.756	n/a	FFR_REC_WORD	1533878	wordpools/wasnorm_wordpool_less_exclusions.txt	LTP195	ltpFR	6	n/a	-1	CHEESE	289	n/a	-1	n/a	n/a	n/a	n/a	n/a
3068.064	n/a	FFR_REC_WORD	1534032	wordpools/wasnorm_wordpool_less_exclusions.txt	LTP195	ltpFR	6	n/a	n/a	BURGER	-1	n/a	n/a	n/a	n/a	n/a	n/a	n/a
3071.728	n/a	FFR_REC_WORD	1535864	wordpools/wasnorm_wordpool_less_exclusions.txt	LTP195	ltpFR	6	n/a	-1	PLAZA	1088	n/a	-1	n/a	n/a	n/a	n/a	n/a
3073.734	n/a	FFR_REC_WORD	1536867	wordpools/wasnorm_wordpool_less_exclusions.txt	LTP195	ltpFR	6	n/a	-1	GUITAR	670	n/a	-1	n/a	n/a	n/a	n/a	n/a
3075.888	n/a	FFR_REC_WORD_VV	1537944	wordpools/wasnorm_wordpool_less_exclusions.txt	LTP195	ltpFR	6	n/a	n/a	<>	-1	n/a	n/a	n/a	n/a	n/a	n/a	n/a
3076.946	n/a	FFR_REC_WORD	1538473	wordpools/wasnorm_wordpool_less_exclusions.txt	LTP195	ltpFR	6	n/a	-1	FUR	615	n/a	-1	n/a	n/a	n/a	n/a	n/a
3077.938	n/a	FFR_REC_WORD	1538969	wordpools/wasnorm_wordpool_less_exclusions.txt	LTP195	ltpFR	6	n/a	-1	CHEESE	289	n/a	-1	n/a	n/a	n/a	n/a	n/a
3079.23	n/a	FFR_REC_WORD	1539615	wordpools/wasnorm_wordpool_less_exclusions.txt	LTP195	ltpFR	6	n/a	-1	SHORTCAKE	1292	n/a	-1	n/a	n/a	n/a	n/a	n/a
3080.582	n/a	FFR_REC_WORD	1540291	wordpools/wasnorm_wordpool_less_exclusions.txt	LTP195	ltpFR	6	n/a	-1	PORTRAIT	1111	n/a	-1	n/a	n/a	n/a	n/a	n/a
3082.104	n/a	FFR_REC_WORD	1541052	wordpools/wasnorm_wordpool_less_exclusions.txt	LTP195	ltpFR	6	n/a	-1	ROAD	1196	n/a	-1	n/a	n/a	n/a	n/a	n/a
3083.216	n/a	FFR_REC_WORD	1541608	wordpools/wasnorm_wordpool_less_exclusions.txt	LTP195	ltpFR	6	n/a	-1	SIDEWALK	1303	n/a	-1	n/a	n/a	n/a	n/a	n/a
3084.614	n/a	FFR_REC_WORD	1542307	wordpools/wasnorm_wordpool_less_exclusions.txt	LTP195	ltpFR	6	n/a	-1	NOVEL	960	n/a	-1	n/a	n/a	n/a	n/a	n/a
3085.936	n/a	FFR_REC_WORD	1542968	wordpools/wasnorm_wordpool_less_exclusions.txt	LTP195	ltpFR	6	n/a	-1	DIARY	460	n/a	-1	n/a	n/a	n/a	n/a	n/a
3088.266	n/a	FFR_REC_WORD	1544133	wordpools/wasnorm_wordpool_less_exclusions.txt	LTP195	ltpFR	6	n/a	-1	PUBLISHER	1137	n/a	-1	n/a	n/a	n/a	n/a	n/a
3089.982	n/a	FFR_REC_WORD	1544991	wordpools/wasnorm_wordpool_less_exclusions.txt	LTP195	ltpFR	6	n/a	-1	AUTHOR	61	n/a	-1	n/a	n/a	n/a	n/a	n/a
3098.536	n/a	FFR_REC_WORD	1549268	wordpools/wasnorm_wordpool_less_exclusions.txt	LTP195	ltpFR	6	n/a	-1	PILOT	1070	n/a	-1	n/a	n/a	n/a	n/a	n/a
3099.63	n/a	FFR_REC_WORD	1549815	wordpools/wasnorm_wordpool_less_exclusions.txt	LTP195	ltpFR	6	n/a	-1	HELICOPTER	701	n/a	-1	n/a	n/a	n/a	n/a	n/a
3101.824	n/a	FFR_REC_WORD	1550912	wordpools/wasnorm_wordpool_less_exclusions.txt	LTP195	ltpFR	6	n/a	-1	RAIL	1161	n/a	-1	n/a	n/a	n/a	n/a	n/a
3102.882	n/a	FFR_REC_WORD	1551441	wordpools/wasnorm_wordpool_less_exclusions.txt	LTP195	ltpFR	6	n/a	-1	CAN	225	n/a	-1	n/a	n/a	n/a	n/a	n/a
3103.964	n/a	FFR_REC_WORD	1551982	wordpools/wasnorm_wordpool_less_exclusions.txt	LTP195	ltpFR	6	n/a	-1	BAG	69	n/a	-1	n/a	n/a	n/a	n/a	n/a
3105.312	n/a	FFR_REC_WORD	1552656	wordpools/wasnorm_wordpool_less_exclusions.txt	LTP195	ltpFR	6	n/a	-1	TERMINAL	1450	n/a	-1	n/a	n/a	n/a	n/a	n/a
3111.254	n/a	FFR_REC_WORD	1555627	wordpools/wasnorm_wordpool_less_exclusions.txt	LTP195	ltpFR	6	n/a	1	COLOGNE	347	n/a	0	n/a	n/a	n/a	n/a	n/a
3116.59	n/a	FFR_REC_WORD	1558295	wordpools/wasnorm_wordpool_less_exclusions.txt	LTP195	ltpFR	6	n/a	0	BLUEBERRY	140	n/a	0	n/a	n/a	n/a	n/a	n/a
3117.708	n/a	FFR_REC_WORD	1558854	wordpools/wasnorm_wordpool_less_exclusions.txt	LTP195	ltpFR	6	n/a	0	FRUIT	610	n/a	0	n/a	n/a	n/a	n/a	n/a
3119.086	n/a	FFR_REC_WORD	1559543	wordpools/wasnorm_wordpool_less_exclusions.txt	LTP195	ltpFR	6	n/a	0	MONK	910	n/a	1	n/a	n/a	n/a	n/a	n/a
3120.272	n/a	FFR_REC_WORD	1560136	wordpools/wasnorm_wordpool_less_exclusions.txt	LTP195	ltpFR	6	n/a	0	PUCK	1138	n/a	0	n/a	n/a	n/a	n/a	n/a
3121.21	n/a	FFR_REC_WORD	1560605	wordpools/wasnorm_wordpool_less_exclusions.txt	LTP195	ltpFR	6	n/a	0	QUEEN	1149	n/a	0	n/a	n/a	n/a	n/a	n/a
3122.298	n/a	FFR_REC_WORD	1561149	wordpools/wasnorm_wordpool_less_exclusions.txt	LTP195	ltpFR	6	n/a	0	RUBY	1214	n/a	0	n/a	n/a	n/a	n/a	n/a
3123.41	n/a	FFR_REC_WORD	1561705	wordpools/wasnorm_wordpool_less_exclusions.txt	LTP195	ltpFR	6	n/a	0	EMERALD	528	n/a	0	n/a	n/a	n/a	n/a	n/a
3126.662	n/a	FFR_REC_WORD	1563331	wordpools/wasnorm_wordpool_less_exclusions.txt	LTP195	ltpFR	6	n/a	-1	SALMON	1227	n/a	-1	n/a	n/a	n/a	n/a	n/a
3130.788	n/a	FFR_REC_WORD	1565394	wordpools/wasnorm_wordpool_less_exclusions.txt	LTP195	ltpFR	6	n/a	1	FISH	571	n/a	1	n/a	n/a	n/a	n/a	n/a
3131.758	n/a	FFR_REC_WORD	1565879	wordpools/wasnorm_wordpool_less_exclusions.txt	LTP195	ltpFR	6	n/a	0	MARINE	869	n/a	1	n/a	n/a	n/a	n/a	n/a
3132.71	n/a	FFR_REC_WORD	1566355	wordpools/wasnorm_wordpool_less_exclusions.txt	LTP195	ltpFR	6	n/a	1	PARTY	1018	n/a	0	n/a	n/a	n/a	n/a	n/a
3134.69	n/a	FFR_REC_WORD	1567345	wordpools/wasnorm_wordpool_less_exclusions.txt	LTP195	ltpFR	6	n/a	1	SHOP	1290	n/a	0	n/a	n/a	n/a	n/a	n/a
3135.774	n/a	FFR_REC_WORD	1567887	wordpools/wasnorm_wordpool_less_exclusions.txt	LTP195	ltpFR	6	n/a	1	PENCIL	1042	n/a	0	n/a	n/a	n/a	n/a	n/a
3136.742	n/a	FFR_REC_WORD	1568371	wordpools/wasnorm_wordpool_less_exclusions.txt	LTP195	ltpFR	6	n/a	1	POWDER	1117	n/a	0	n/a	n/a	n/a	n/a	n/a
3137.874	n/a	FFR_REC_WORD	1568937	wordpools/wasnorm_wordpool_less_exclusions.txt	LTP195	ltpFR	6	n/a	1	STAPLE	1371	n/a	0	n/a	n/a	n/a	n/a	n/a
3140.752	n/a	FFR_REC_WORD	1570376	wordpools/wasnorm_wordpool_less_exclusions.txt	LTP195	ltpFR	6	n/a	1	FOLDER	588	n/a	0	n/a	n/a	n/a	n/a	n/a
3143.7	n/a	FFR_REC_WORD	1571850	wordpools/wasnorm_wordpool_less_exclusions.txt	LTP195	ltpFR	6	n/a	0	CASHIER	254	n/a	1	n/a	n/a	n/a	n/a	n/a
3145.886	n/a	FFR_REC_WORD	1572943	wordpools/wasnorm_wordpool_less_exclusions.txt	LTP195	ltpFR	6	n/a	1	COMEDIAN	352	n/a	1	n/a	n/a	n/a	n/a	n/a
3146.794	n/a	FFR_REC_WORD	1573397	wordpools/wasnorm_wordpool_less_exclusions.txt	LTP195	ltpFR	6	n/a	1	MAGICIAN	854	n/a	1	n/a	n/a	n/a	n/a	n/a
3148.01	n/a	FFR_REC_WORD	1574005	wordpools/wasnorm_wordpool_less_exclusions.txt	LTP195	ltpFR	6	n/a	1	HARE	688	n/a	1	n/a	n/a	n/a	n/a	n/a
3152.55	n/a	FFR_REC_WORD	1576275	wordpools/wasnorm_wordpool_less_exclusions.txt	LTP195	ltpFR	6	n/a	0	BANDANNA	80	n/a	0	n/a	n/a	n/a	n/a	n/a
3155.034	n/a	FFR_REC_WORD	1577517	wordpools/wasnorm_wordpool_less_exclusions.txt	LTP195	ltpFR	6	n/a	-1	SWIMMER	1420	n/a	-1	n/a	n/a	n/a	n/a	n/a
3156.312	n/a	FFR_REC_WORD	1578156	wordpools/wasnorm_wordpool_less_exclusions.txt	LTP195	ltpFR	6	n/a	-1	COWBOY	395	n/a	-1	n/a	n/a	n/a	n/a	n/a
3157.554	n/a	FFR_REC_WORD	1578777	wordpools/wasnorm_wordpool_less_exclusions.txt	LTP195	ltpFR	6	n/a	-1	TELESCOPE	1446	n/a	-1	n/a	n/a	n/a	n/a	n/a
3158.81	n/a	FFR_REC_WORD	1579405	wordpools/wasnorm_wordpool_less_exclusions.txt	LTP195	ltpFR	6	n/a	-1	ATMOSPHERE	54	n/a	-1	n/a	n/a	n/a	n/a	n/a
3160.882	n/a	FFR_REC_WORD	1580441	wordpools/wasnorm_wordpool_less_exclusions.txt	LTP195	ltpFR	6	n/a	-1	SHIP	1286	n/a	-1	n/a	n/a	n/a	n/a	n/a
3161.86	n/a	FFR_REC_WORD	1580930	wordpools/wasnorm_wordpool_less_exclusions.txt	LTP195	ltpFR	6	n/a	-1	BOAT	144	n/a	-1	n/a	n/a	n/a	n/a	n/a
3163.032	n/a	FFR_REC_WORD	1581516	wordpools/wasnorm_wordpool_less_exclusions.txt	LTP195	ltpFR	6	n/a	-1	BULLETIN	195	n/a	-1	n/a	n/a	n/a	n/a	n/a
3172.854	n/a	FFR_REC_WORD	1586427	wordpools/wasnorm_wordpool_less_exclusions.txt	LTP195	ltpFR	6	n/a	0	MARSH	874	n/a	1	n/a	n/a	n/a	n/a	n/a
3174.046	n/a	FFR_REC_WORD	1587023	wordpools/wasnorm_wordpool_less_exclusions.txt	LTP195	ltpFR	6	n/a	0	OCEAN	970	n/a	1	n/a	n/a	n/a	n/a	n/a
3183.52	n/a	FFR_REC_WORD	1591760	wordpools/wasnorm_wordpool_less_exclusions.txt	LTP195	ltpFR	6	n/a	0	MICROPHONE	890	n/a	0	n/a	n/a	n/a	n/a	n/a
3185.45	n/a	FFR_REC_WORD	1592725	wordpools/wasnorm_wordpool_less_exclusions.txt	LTP195	ltpFR	6	n/a	0	NICOTINE	951	n/a	0	n/a	n/a	n/a	n/a	n/a
3187.88	n/a	FFR_REC_WORD	1593940	wordpools/wasnorm_wordpool_less_exclusions.txt	LTP195	ltpFR	6	n/a	0	ASH	44	n/a	0	n/a	n/a	n/a	n/a	n/a
3197.174	n/a	FFR_REC_WORD	1598587	wordpools/wasnorm_wordpool_less_exclusions.txt	LTP195	ltpFR	6	n/a	0	CAT	257	n/a	0	n/a	n/a	n/a	n/a	n/a
3198.192	n/a	FFR_REC_WORD	1599096	wordpools/wasnorm_wordpool_less_exclusions.txt	LTP195	ltpFR	6	n/a	0	KITTEN	780	n/a	0	n/a	n/a	n/a	n/a	n/a
3199.348	n/a	FFR_REC_WORD	1599674	wordpools/wasnorm_wordpool_less_exclusions.txt	LTP195	ltpFR	6	n/a	0	WHISKERS	1605	n/a	0	n/a	n/a	n/a	n/a	n/a
3206.464	n/a	FFR_REC_WORD	1603232	wordpools/wasnorm_wordpool_less_exclusions.txt	LTP195	ltpFR	6	n/a	0	PATIO	1025	n/a	1	n/a	n/a	n/a	n/a	n/a
3207.546	n/a	FFR_REC_WORD	1603773	wordpools/wasnorm_wordpool_less_exclusions.txt	LTP195	ltpFR	6	n/a	0	GOOSE	649	n/a	0	n/a	n/a	n/a	n/a	n/a
3208.724	n/a	FFR_REC_WORD	1604362	wordpools/wasnorm_wordpool_less_exclusions.txt	LTP195	ltpFR	6	n/a	1	MAT	877	n/a	0	n/a	n/a	n/a	n/a	n/a
3210.06	n/a	FFR_REC_WORD	1605030	wordpools/wasnorm_wordpool_less_exclusions.txt	LTP195	ltpFR	6	n/a	0	CHECK	284	n/a	0	n/a	n/a	n/a	n/a	n/a
3211.402	n/a	FFR_REC_WORD	1605701	wordpools/wasnorm_wordpool_less_exclusions.txt	LTP195	ltpFR	6	n/a	0	FENCE	560	n/a	1	n/a	n/a	n/a	n/a	n/a
3212.704	n/a	FFR_REC_WORD	1606352	wordpools/wasnorm_wordpool_less_exclusions.txt	LTP195	ltpFR	6	n/a	1	VOLLEYBALL	1576	n/a	0	n/a	n/a	n/a	n/a	n/a
3214.96	n/a	FFR_REC_WORD	1607480	wordpools/wasnorm_wordpool_less_exclusions.txt	LTP195	ltpFR	6	n/a	1	CHIPMUNK	304	n/a	1	n/a	n/a	n/a	n/a	n/a
3217.044	n/a	FFR_REC_WORD	1608522	wordpools/wasnorm_wordpool_less_exclusions.txt	LTP195	ltpFR	6	n/a	1	TORTOISE	1486	n/a	1	n/a	n/a	n/a	n/a	n/a
3236.804	n/a	FFR_REC_WORD	1618402	wordpools/wasnorm_wordpool_less_exclusions.txt	LTP195	ltpFR	6	n/a	0	SATURN	1236	n/a	1	n/a	n/a	n/a	n/a	n/a
3238.136	n/a	FFR_REC_WORD	1619068	wordpools/wasnorm_wordpool_less_exclusions.txt	LTP195	ltpFR	6	n/a	0	NEPTUNE	943	n/a	1	n/a	n/a	n/a	n/a	n/a
3239.448	n/a	FFR_REC_WORD	1619724	wordpools/wasnorm_wordpool_less_exclusions.txt	LTP195	ltpFR	6	n/a	1	ROBOT	1200	n/a	1	n/a	n/a	n/a	n/a	n/a
3242.262	n/a	FFR_REC_WORD	1621131	wordpools/wasnorm_wordpool_less_exclusions.txt	LTP195	ltpFR	6	n/a	1	GLOBE	641	n/a	1	n/a	n/a	n/a	n/a	n/a
3262.62	n/a	FFR_REC_WORD	1631310	wordpools/wasnorm_wordpool_less_exclusions.txt	LTP195	ltpFR	6	n/a	-1	FEAST	556	n/a	-1	n/a	n/a	n/a	n/a	n/a
3263.734	n/a	FFR_REC_WORD	1631867	wordpools/wasnorm_wordpool_less_exclusions.txt	LTP195	ltpFR	6	n/a	-1	REFRIGERATOR	1179	n/a	-1	n/a	n/a	n/a	n/a	n/a
3266.712	n/a	FFR_REC_WORD	1633356	wordpools/wasnorm_wordpool_less_exclusions.txt	LTP195	ltpFR	6	n/a	-1	ACORN	3	n/a	-1	n/a	n/a	n/a	n/a	n/a
3269.914	n/a	FFR_REC_WORD	1634957	wordpools/wasnorm_wordpool_less_exclusions.txt	LTP195	ltpFR	6	n/a	-1	KITCHEN	778	n/a	-1	n/a	n/a	n/a	n/a	n/a
3270.852	n/a	FFR_REC_WORD	1635426	wordpools/wasnorm_wordpool_less_exclusions.txt	LTP195	ltpFR	6	n/a	-1	TRAY	1498	n/a	-1	n/a	n/a	n/a	n/a	n/a
3272.29	n/a	FFR_REC_WORD	1636145	wordpools/wasnorm_wordpool_less_exclusions.txt	LTP195	ltpFR	6	n/a	-1	NOTE	958	n/a	-1	n/a	n/a	n/a	n/a	n/a
3275.916	n/a	FFR_REC_WORD	1637958	wordpools/wasnorm_wordpool_less_exclusions.txt	LTP195	ltpFR	6	n/a	-1	OFFICER	973	n/a	-1	n/a	n/a	n/a	n/a	n/a
3276.914	n/a	FFR_REC_WORD	1638457	wordpools/wasnorm_wordpool_less_exclusions.txt	LTP195	ltpFR	6	n/a	-1	DEPUTY	450	n/a	-1	n/a	n/a	n/a	n/a	n/a
3278.316	n/a	FFR_REC_WORD	1639158	wordpools/wasnorm_wordpool_less_exclusions.txt	LTP195	ltpFR	6	n/a	-1	CUFF	423	n/a	-1	n/a	n/a	n/a	n/a	n/a
3279.478	n/a	FFR_REC_WORD	1639739	wordpools/wasnorm_wordpool_less_exclusions.txt	LTP195	ltpFR	6	n/a	-1	ANKLE	24	n/a	-1	n/a	n/a	n/a	n/a	n/a
3281.304	n/a	FFR_REC_WORD	1640652	wordpools/wasnorm_wordpool_less_exclusions.txt	LTP195	ltpFR	6	n/a	-1	JOINT	758	n/a	-1	n/a	n/a	n/a	n/a	n/a
3287.606	n/a	FFR_REC_WORD	1643803	wordpools/wasnorm_wordpool_less_exclusions.txt	LTP195	ltpFR	6	n/a	-1	VINE	1568	n/a	-1	n/a	n/a	n/a	n/a	n/a
3330.622	n/a	REC_START	1665311	n/a	LTP195	ltpFR	6	1	n/a	n/a	n/a	n/a	n/a	n/a	n/a	n/a	n/a	n/a
3330.654	n/a	RECOG_TARGET	1665327	n/a	LTP195	ltpFR	6	1	1	RADISH	1158	5	0	n/a	n/a	n/a	n/a	n/a
3332.172	n/a	RECOG_RESP	1666086	n/a	LTP195	ltpFR	6	1	1	RADISH	1158	n/a	0	n/a	n/a	n/a	n/a	n/a
3333.13	n/a	RECOG_CONF	1666565	n/a	LTP195	ltpFR	6	1	1	RADISH	1158	5	0	n/a	n/a	n/a	n/a	n/a
3334.914	n/a	RECOG_LURE	1667457	n/a	LTP195	ltpFR	6	1	n/a	PAWN	1030	1	n/a	n/a	n/a	n/a	n/a	n/a
3336.368	n/a	RECOG_RESP	1668184	n/a	LTP195	ltpFR	6	1	n/a	PAWN	1030	n/a	n/a	n/a	n/a	n/a	n/a	n/a
3337.252	n/a	RECOG_CONF	1668626	n/a	LTP195	ltpFR	6	1	n/a	PAWN	1030	1	n/a	n/a	n/a	n/a	n/a	n/a
3338.942	n/a	RECOG_LURE	1669471	n/a	LTP195	ltpFR	6	1	n/a	CREAM	402	2	n/a	n/a	n/a	n/a	n/a	n/a
3339.946	n/a	RECOG_RESP	1669973	n/a	LTP195	ltpFR	6	1	n/a	CREAM	402	n/a	n/a	n/a	n/a	n/a	n/a	n/a
3340.782	n/a	RECOG_CONF	1670391	n/a	LTP195	ltpFR	6	1	n/a	CREAM	402	2	n/a	n/a	n/a	n/a	n/a	n/a
3342.454	n/a	RECOG_LURE	1671227	n/a	LTP195	ltpFR	6	1	n/a	BRAKE	166	3	n/a	n/a	n/a	n/a	n/a	n/a
3343.438	n/a	RECOG_RESP	1671719	n/a	LTP195	ltpFR	6	1	n/a	BRAKE	166	n/a	n/a	n/a	n/a	n/a	n/a	n/a
3344.252	n/a	RECOG_CONF	1672126	n/a	LTP195	ltpFR	6	1	n/a	BRAKE	166	3	n/a	n/a	n/a	n/a	n/a	n/a
3346.148	n/a	RECOG_TARGET	1673074	n/a	LTP195	ltpFR	6	1	1	BEAN	105	5	0	n/a	n/a	n/a	n/a	n/a
3346.818	n/a	RECOG_RESP	1673409	n/a	LTP195	ltpFR	6	1	1	BEAN	105	n/a	0	n/a	n/a	n/a	n/a	n/a
3347.788	n/a	RECOG_CONF	1673894	n/a	LTP195	ltpFR	6	1	1	BEAN	105	5	0	n/a	n/a	n/a	n/a	n/a
3349.542	n/a	RECOG_LURE	1674771	n/a	LTP195	ltpFR	6	1	n/a	COOLER	375	2	n/a	n/a	n/a	n/a	n/a	n/a
3350.27	n/a	RECOG_RESP	1675135	n/a	LTP195	ltpFR	6	1	n/a	COOLER	375	n/a	n/a	n/a	n/a	n/a	n/a	n/a
3351.226	n/a	RECOG_CONF	1675613	n/a	LTP195	ltpFR	6	1	n/a	COOLER	375	2	n/a	n/a	n/a	n/a	n/a	n/a
3352.838	n/a	RECOG_TARGET	1676419	n/a	LTP195	ltpFR	6	1	-1	CITY	314	5	-1	n/a	n/a	n/a	n/a	n/a
3353.482	n/a	RECOG_RESP	1676741	n/a	LTP195	ltpFR	6	1	-1	CITY	314	n/a	-1	n/a	n/a	n/a	n/a	n/a
3354.262	n/a	RECOG_CONF	1677131	n/a	LTP195	ltpFR	6	1	-1	CITY	314	5	-1	n/a	n/a	n/a	n/a	n/a
3356.084	n/a	RECOG_TARGET	1678042	n/a	LTP195	ltpFR	6	1	1	TART	1436	5	0	n/a	n/a	n/a	n/a	n/a
3356.716	n/a	RECOG_RESP	1678358	n/a	LTP195	ltpFR	6	1	1	TART	1436	n/a	0	n/a	n/a	n/a	n/a	n/a
3357.46	n/a	RECOG_CONF	1678730	n/a	LTP195	ltpFR	6	1	1	TART	1436	5	0	n/a	n/a	n/a	n/a	n/a
3359.396	n/a	RECOG_TARGET	1679698	n/a	LTP195	ltpFR	6	1	0	SILVERWARE	1308	5	0	n/a	n/a	n/a	n/a	n/a
3360.106	n/a	RECOG_RESP	1680053	n/a	LTP195	ltpFR	6	1	0	SILVERWARE	1308	n/a	0	n/a	n/a	n/a	n/a	n/a
3360.836	n/a	RECOG_CONF	1680418	n/a	LTP195	ltpFR	6	1	0	SILVERWARE	1308	5	0	n/a	n/a	n/a	n/a	n/a
3362.64	n/a	RECOG_TARGET	1681320	n/a	LTP195	ltpFR	6	1	0	ASH	44	5	0	n/a	n/a	n/a	n/a	n/a
3363.238	n/a	RECOG_RESP	1681619	n/a	LTP195	ltpFR	6	1	0	ASH	44	n/a	0	n/a	n/a	n/a	n/a	n/a
3363.948	n/a	RECOG_CONF	1681974	n/a	LTP195	ltpFR	6	1	0	ASH	44	5	0	n/a	n/a	n/a	n/a	n/a
3365.652	n/a	RECOG_TARGET	1682826	n/a	LTP195	ltpFR	6	1	1	POWDER	1117	5	0	n/a	n/a	n/a	n/a	n/a
3366.342	n/a	RECOG_RESP	1683171	n/a	LTP195	ltpFR	6	1	1	POWDER	1117	n/a	0	n/a	n/a	n/a	n/a	n/a
3367.042	n/a	RECOG_CONF	1683521	n/a	LTP195	ltpFR	6	1	1	POWDER	1117	5	0	n/a	n/a	n/a	n/a	n/a
3368.864	n/a	RECOG_TARGET	1684432	n/a	LTP195	ltpFR	6	1	1	STAPLE	1371	5	0	n/a	n/a	n/a	n/a	n/a
3369.422	n/a	RECOG_RESP	1684711	n/a	LTP195	ltpFR	6	1	1	STAPLE	1371	n/a	0	n/a	n/a	n/a	n/a	n/a
3370.22	n/a	RECOG_CONF	1685110	n/a	LTP195	ltpFR	6	1	1	STAPLE	1371	5	0	n/a	n/a	n/a	n/a	n/a
3372.094	n/a	RECOG_TARGET	1686047	n/a	LTP195	ltpFR	6	1	0	SINK	1309	5	0	n/a	n/a	n/a	n/a	n/a
3372.766	n/a	RECOG_RESP	1686383	n/a	LTP195	ltpFR	6	1	0	SINK	1309	n/a	0	n/a	n/a	n/a	n/a	n/a
3373.45	n/a	RECOG_CONF	1686725	n/a	LTP195	ltpFR	6	1	0	SINK	1309	5	0	n/a	n/a	n/a	n/a	n/a
3375.29	n/a	RECOG_TARGET	1687645	n/a	LTP195	ltpFR	6	1	-1	CHEESE	289	5	-1	n/a	n/a	n/a	n/a	n/a
3375.884	n/a	RECOG_RESP	1687942	n/a	LTP195	ltpFR	6	1	-1	CHEESE	289	n/a	-1	n/a	n/a	n/a	n/a	n/a
3377.012	n/a	RECOG_CONF	1688506	n/a	LTP195	ltpFR	6	1	-1	CHEESE	289	5	-1	n/a	n/a	n/a	n/a	n/a
3378.434	n/a	RECOG_TARGET	1689217	n/a	LTP195	ltpFR	6	1	-1	ACORN	3	5	-1	n/a	n/a	n/a	n/a	n/a
3378.992	n/a	RECOG_RESP	1689496	n/a	LTP195	ltpFR	6	1	-1	ACORN	3	n/a	-1	n/a	n/a	n/a	n/a	n/a
3379.686	n/a	RECOG_CONF	1689843	n/a	LTP195	ltpFR	6	1	-1	ACORN	3	5	-1	n/a	n/a	n/a	n/a	n/a
3381.414	n/a	RECOG_TARGET	1690707	n/a	LTP195	ltpFR	6	1	1	MAT	877	5	0	n/a	n/a	n/a	n/a	n/a
3382.012	n/a	RECOG_RESP	1691006	n/a	LTP195	ltpFR	6	1	1	MAT	877	n/a	0	n/a	n/a	n/a	n/a	n/a
3382.796	n/a	RECOG_CONF	1691398	n/a	LTP195	ltpFR	6	1	1	MAT	877	5	0	n/a	n/a	n/a	n/a	n/a
3384.608	n/a	RECOG_TARGET	1692304	n/a	LTP195	ltpFR	6	1	-1	SIDEWALK	1303	5	-1	n/a	n/a	n/a	n/a	n/a
3385.768	n/a	RECOG_RESP	1692884	n/a	LTP195	ltpFR	6	1	-1	SIDEWALK	1303	n/a	-1	n/a	n/a	n/a	n/a	n/a
3386.86	n/a	RECOG_CONF	1693430	n/a	LTP195	ltpFR	6	1	-1	SIDEWALK	1303	5	-1	n/a	n/a	n/a	n/a	n/a
3388.636	n/a	RECOG_TARGET	1694318	n/a	LTP195	ltpFR	6	1	0	WASHER	1592	2	1	n/a	n/a	n/a	n/a	n/a
3394.06	n/a	RECOG_RESP	1697030	n/a	LTP195	ltpFR	6	1	0	WASHER	1592	n/a	1	n/a	n/a	n/a	n/a	n/a
3394.912	n/a	RECOG_CONF	1697456	n/a	LTP195	ltpFR	6	1	0	WASHER	1592	2	1	n/a	n/a	n/a	n/a	n/a
3396.54	n/a	RECOG_LURE	1698270	n/a	LTP195	ltpFR	6	1	n/a	FACE	547	3	n/a	n/a	n/a	n/a	n/a	n/a
3397.454	n/a	RECOG_RESP	1698727	n/a	LTP195	ltpFR	6	1	n/a	FACE	547	n/a	n/a	n/a	n/a	n/a	n/a	n/a
3398.668	n/a	RECOG_CONF	1699334	n/a	LTP195	ltpFR	6	1	n/a	FACE	547	3	n/a	n/a	n/a	n/a	n/a	n/a
3400.102	n/a	RECOG_TARGET	1700051	n/a	LTP195	ltpFR	6	1	1	CHIEF	298	5	1	n/a	n/a	n/a	n/a	n/a
3400.72	n/a	RECOG_RESP	1700360	n/a	LTP195	ltpFR	6	1	1	CHIEF	298	n/a	1	n/a	n/a	n/a	n/a	n/a
3401.678	n/a	RECOG_CONF	1700839	n/a	LTP195	ltpFR	6	1	1	CHIEF	298	5	1	n/a	n/a	n/a	n/a	n/a
3404.836	n/a	REC_START	1702418	n/a	LTP195	ltpFR	6	2	n/a	n/a	n/a	n/a	n/a	n/a	n/a	n/a	n/a	n/a
3404.878	n/a	RECOG_TARGET	1702439	n/a	LTP195	ltpFR	6	2	1	PITCHFORK	1078	5	0	n/a	n/a	n/a	n/a	n/a
3405.546	n/a	RECOG_RESP	1702773	n/a	LTP195	ltpFR	6	2	1	PITCHFORK	1078	n/a	0	n/a	n/a	n/a	n/a	n/a
3406.584	n/a	RECOG_CONF	1703292	n/a	LTP195	ltpFR	6	2	1	PITCHFORK	1078	5	0	n/a	n/a	n/a	n/a	n/a
3408.022	n/a	RECOG_TARGET	1704011	n/a	LTP195	ltpFR	6	2	-1	DUCK	504	5	-1	n/a	n/a	n/a	n/a	n/a
3409.226	n/a	RECOG_RESP	1704613	n/a	LTP195	ltpFR	6	2	-1	DUCK	504	n/a	-1	n/a	n/a	n/a	n/a	n/a
3410.3	n/a	RECOG_CONF	1705150	n/a	LTP195	ltpFR	6	2	-1	DUCK	504	5	-1	n/a	n/a	n/a	n/a	n/a
3411.584	n/a	RECOG_LURE	1705792	n/a	LTP195	ltpFR	6	2	n/a	VASE	1549	3	n/a	n/a	n/a	n/a	n/a	n/a
3412.334	n/a	RECOG_RESP	1706167	n/a	LTP195	ltpFR	6	2	n/a	VASE	1549	n/a	n/a	n/a	n/a	n/a	n/a	n/a
3413.128	n/a	RECOG_CONF	1706564	n/a	LTP195	ltpFR	6	2	n/a	VASE	1549	3	n/a	n/a	n/a	n/a	n/a	n/a
3414.93	n/a	RECOG_TARGET	1707465	n/a	LTP195	ltpFR	6	2	-1	EGG	518	5	-1	n/a	n/a	n/a	n/a	n/a
3416.038	n/a	RECOG_RESP	1708019	n/a	LTP195	ltpFR	6	2	-1	EGG	518	n/a	-1	n/a	n/a	n/a	n/a	n/a
3416.698	n/a	RECOG_CONF	1708349	n/a	LTP195	ltpFR	6	2	-1	EGG	518	5	-1	n/a	n/a	n/a	n/a	n/a
3418.442	n/a	RECOG_TARGET	1709221	n/a	LTP195	ltpFR	6	2	0	SHEPHERD	1283	5	0	n/a	n/a	n/a	n/a	n/a
3419.186	n/a	RECOG_RESP	1709593	n/a	LTP195	ltpFR	6	2	0	SHEPHERD	1283	n/a	0	n/a	n/a	n/a	n/a	n/a
3420.046	n/a	RECOG_CONF	1710023	n/a	LTP195	ltpFR	6	2	0	SHEPHERD	1283	5	0	n/a	n/a	n/a	n/a	n/a
3421.72	n/a	RECOG_LURE	1710860	n/a	LTP195	ltpFR	6	2	n/a	THICKET	1455	5	n/a	n/a	n/a	n/a	n/a	n/a
3422.504	n/a	RECOG_RESP	1711252	n/a	LTP195	ltpFR	6	2	n/a	THICKET	1455	n/a	n/a	n/a	n/a	n/a	n/a	n/a
3423.21	n/a	RECOG_CONF	1711605	n/a	LTP195	ltpFR	6	2	n/a	THICKET	1455	5	n/a	n/a	n/a	n/a	n/a	n/a
3424.93	n/a	RECOG_TARGET	1712465	n/a	LTP195	ltpFR	6	2	0	TUBA	1515	3	1	n/a	n/a	n/a	n/a	n/a
3425.664	n/a	RECOG_RESP	1712832	n/a	LTP195	ltpFR	6	2	0	TUBA	1515	n/a	1	n/a	n/a	n/a	n/a	n/a
3426.604	n/a	RECOG_CONF	1713302	n/a	LTP195	ltpFR	6	2	0	TUBA	1515	3	1	n/a	n/a	n/a	n/a	n/a
3428.144	n/a	RECOG_TARGET	1714072	n/a	LTP195	ltpFR	6	2	1	PRODUCER	1129	5	0	n/a	n/a	n/a	n/a	n/a
3428.748	n/a	RECOG_RESP	1714374	n/a	LTP195	ltpFR	6	2	1	PRODUCER	1129	n/a	0	n/a	n/a	n/a	n/a	n/a
3429.5	n/a	RECOG_CONF	1714750	n/a	LTP195	ltpFR	6	2	1	PRODUCER	1129	5	0	n/a	n/a	n/a	n/a	n/a
3431.324	n/a	RECOG_LURE	1715662	n/a	LTP195	ltpFR	6	2	n/a	PILLOW	1069	5	n/a	n/a	n/a	n/a	n/a	n/a
3431.996	n/a	RECOG_RESP	1715998	n/a	LTP195	ltpFR	6	2	n/a	PILLOW	1069	n/a	n/a	n/a	n/a	n/a	n/a	n/a
3432.66	n/a	RECOG_CONF	1716330	n/a	LTP195	ltpFR	6	2	n/a	PILLOW	1069	5	n/a	n/a	n/a	n/a	n/a	n/a
3434.336	n/a	RECOG_TARGET	1717168	n/a	LTP195	ltpFR	6	2	-1	RAIL	1161	5	-1	n/a	n/a	n/a	n/a	n/a
3434.99	n/a	RECOG_RESP	1717495	n/a	LTP195	ltpFR	6	2	-1	RAIL	1161	n/a	-1	n/a	n/a	n/a	n/a	n/a
3435.886	n/a	RECOG_CONF	1717943	n/a	LTP195	ltpFR	6	2	-1	RAIL	1161	5	-1	n/a	n/a	n/a	n/a	n/a
3437.546	n/a	RECOG_TARGET	1718773	n/a	LTP195	ltpFR	6	2	1	CHIPMUNK	304	5	1	n/a	n/a	n/a	n/a	n/a
3438.458	n/a	RECOG_RESP	1719229	n/a	LTP195	ltpFR	6	2	1	CHIPMUNK	304	n/a	1	n/a	n/a	n/a	n/a	n/a
3439.196	n/a	RECOG_CONF	1719598	n/a	LTP195	ltpFR	6	2	1	CHIPMUNK	304	5	1	n/a	n/a	n/a	n/a	n/a
3440.958	n/a	RECOG_TARGET	1720479	n/a	LTP195	ltpFR	6	2	1	RECEPTIONIST	1174	5	1	n/a	n/a	n/a	n/a	n/a
3441.986	n/a	RECOG_RESP	1720993	n/a	LTP195	ltpFR	6	2	1	RECEPTIONIST	1174	n/a	1	n/a	n/a	n/a	n/a	n/a
3442.658	n/a	RECOG_CONF	1721329	n/a	LTP195	ltpFR	6	2	1	RECEPTIONIST	1174	5	1	n/a	n/a	n/a	n/a	n/a
3444.338	n/a	RECOG_TARGET	1722169	n/a	LTP195	ltpFR	6	2	0	BUNNY	198	2	0	n/a	n/a	n/a	n/a	n/a
3445.152	n/a	RECOG_RESP	1722576	n/a	LTP195	ltpFR	6	2	0	BUNNY	198	n/a	0	n/a	n/a	n/a	n/a	n/a
3445.958	n/a	RECOG_CONF	1722979	n/a	LTP195	ltpFR	6	2	0	BUNNY	198	2	0	n/a	n/a	n/a	n/a	n/a
3447.648	n/a	RECOG_TARGET	1723824	n/a	LTP195	ltpFR	6	2	0	BELL	118	5	0	n/a	n/a	n/a	n/a	n/a
3448.362	n/a	RECOG_RESP	1724181	n/a	LTP195	ltpFR	6	2	0	BELL	118	n/a	0	n/a	n/a	n/a	n/a	n/a
3449.104	n/a	RECOG_CONF	1724552	n/a	LTP195	ltpFR	6	2	0	BELL	118	5	0	n/a	n/a	n/a	n/a	n/a
3450.876	n/a	RECOG_TARGET	1725438	n/a	LTP195	ltpFR	6	2	-1	PLAZA	1088	5	-1	n/a	n/a	n/a	n/a	n/a
3451.5	n/a	RECOG_RESP	1725750	n/a	LTP195	ltpFR	6	2	-1	PLAZA	1088	n/a	-1	n/a	n/a	n/a	n/a	n/a
3452.186	n/a	RECOG_CONF	1726093	n/a	LTP195	ltpFR	6	2	-1	PLAZA	1088	5	-1	n/a	n/a	n/a	n/a	n/a
3454.172	n/a	RECOG_TARGET	1727086	n/a	LTP195	ltpFR	6	2	0	CHECK	284	5	0	n/a	n/a	n/a	n/a	n/a
3454.774	n/a	RECOG_RESP	1727387	n/a	LTP195	ltpFR	6	2	0	CHECK	284	n/a	0	n/a	n/a	n/a	n/a	n/a
3455.564	n/a	RECOG_CONF	1727782	n/a	LTP195	ltpFR	6	2	0	CHECK	284	5	0	n/a	n/a	n/a	n/a	n/a
3457.484	n/a	RECOG_TARGET	1728742	n/a	LTP195	ltpFR	6	2	1	CANDY	230	5	0	n/a	n/a	n/a	n/a	n/a
3458.086	n/a	RECOG_RESP	1729043	n/a	LTP195	ltpFR	6	2	1	CANDY	230	n/a	0	n/a	n/a	n/a	n/a	n/a
3458.842	n/a	RECOG_CONF	1729421	n/a	LTP195	ltpFR	6	2	1	CANDY	230	5	0	n/a	n/a	n/a	n/a	n/a
3460.528	n/a	RECOG_LURE	1730264	n/a	LTP195	ltpFR	6	2	n/a	THUMB	1462	3	n/a	n/a	n/a	n/a	n/a	n/a
3461.706	n/a	RECOG_RESP	1730853	n/a	LTP195	ltpFR	6	2	n/a	THUMB	1462	n/a	n/a	n/a	n/a	n/a	n/a	n/a
3462.416	n/a	RECOG_CONF	1731208	n/a	LTP195	ltpFR	6	2	n/a	THUMB	1462	3	n/a	n/a	n/a	n/a	n/a	n/a
3464.274	n/a	RECOG_TARGET	1732137	n/a	LTP195	ltpFR	6	2	1	TOWER	1490	5	0	n/a	n/a	n/a	n/a	n/a
3465.034	n/a	RECOG_RESP	1732517	n/a	LTP195	ltpFR	6	2	1	TOWER	1490	n/a	0	n/a	n/a	n/a	n/a	n/a
3465.796	n/a	RECOG_CONF	1732898	n/a	LTP195	ltpFR	6	2	1	TOWER	1490	5	0	n/a	n/a	n/a	n/a	n/a
3467.568	n/a	RECOG_TARGET	1733784	n/a	LTP195	ltpFR	6	2	0	SWATTER	1418	5	0	n/a	n/a	n/a	n/a	n/a
3468.21	n/a	RECOG_RESP	1734105	n/a	LTP195	ltpFR	6	2	0	SWATTER	1418	n/a	0	n/a	n/a	n/a	n/a	n/a
3468.916	n/a	RECOG_CONF	1734458	n/a	LTP195	ltpFR	6	2	0	SWATTER	1418	5	0	n/a	n/a	n/a	n/a	n/a
3473.146	n/a	REC_START	1736573	n/a	LTP195	ltpFR	6	3	n/a	n/a	n/a	n/a	n/a	n/a	n/a	n/a	n/a	n/a
3473.178	n/a	RECOG_TARGET	1736589	n/a	LTP195	ltpFR	6	3	1	PENCIL	1042	5	0	n/a	n/a	n/a	n/a	n/a
3473.774	n/a	RECOG_RESP	1736887	n/a	LTP195	ltpFR	6	3	1	PENCIL	1042	n/a	0	n/a	n/a	n/a	n/a	n/a
3474.518	n/a	RECOG_CONF	1737259	n/a	LTP195	ltpFR	6	3	1	PENCIL	1042	5	0	n/a	n/a	n/a	n/a	n/a
3476.156	n/a	RECOG_LURE	1738078	n/a	LTP195	ltpFR	6	3	n/a	WITCH	1617	3	n/a	n/a	n/a	n/a	n/a	n/a
3476.788	n/a	RECOG_RESP	1738394	n/a	LTP195	ltpFR	6	3	n/a	WITCH	1617	n/a	n/a	n/a	n/a	n/a	n/a	n/a
3477.508	n/a	RECOG_CONF	1738754	n/a	LTP195	ltpFR	6	3	n/a	WITCH	1617	3	n/a	n/a	n/a	n/a	n/a	n/a
3479.152	n/a	RECOG_TARGET	1739576	n/a	LTP195	ltpFR	6	3	0	PATIO	1025	5	1	n/a	n/a	n/a	n/a	n/a
3479.748	n/a	RECOG_RESP	1739874	n/a	LTP195	ltpFR	6	3	0	PATIO	1025	n/a	1	n/a	n/a	n/a	n/a	n/a
3480.49	n/a	RECOG_CONF	1740245	n/a	LTP195	ltpFR	6	3	0	PATIO	1025	5	1	n/a	n/a	n/a	n/a	n/a
3482.248	n/a	RECOG_TARGET	1741124	n/a	LTP195	ltpFR	6	3	0	MONK	910	5	1	n/a	n/a	n/a	n/a	n/a
3482.75	n/a	RECOG_RESP	1741375	n/a	LTP195	ltpFR	6	3	0	MONK	910	n/a	1	n/a	n/a	n/a	n/a	n/a
3483.458	n/a	RECOG_CONF	1741729	n/a	LTP195	ltpFR	6	3	0	MONK	910	5	1	n/a	n/a	n/a	n/a	n/a
3485.276	n/a	RECOG_LURE	1742638	n/a	LTP195	ltpFR	6	3	n/a	SPACE	1345	2	n/a	n/a	n/a	n/a	n/a	n/a
3486.194	n/a	RECOG_RESP	1743097	n/a	LTP195	ltpFR	6	3	n/a	SPACE	1345	n/a	n/a	n/a	n/a	n/a	n/a	n/a
3486.93	n/a	RECOG_CONF	1743465	n/a	LTP195	ltpFR	6	3	n/a	SPACE	1345	2	n/a	n/a	n/a	n/a	n/a	n/a
3488.902	n/a	RECOG_TARGET	1744451	n/a	LTP195	ltpFR	6	3	0	FENCE	560	5	1	n/a	n/a	n/a	n/a	n/a
3489.54	n/a	RECOG_RESP	1744770	n/a	LTP195	ltpFR	6	3	0	FENCE	560	n/a	1	n/a	n/a	n/a	n/a	n/a
3490.328	n/a	RECOG_CONF	1745164	n/a	LTP195	ltpFR	6	3	0	FENCE	560	5	1	n/a	n/a	n/a	n/a	n/a
3492.116	n/a	RECOG_LURE	1746058	n/a	LTP195	ltpFR	6	3	n/a	TROUT	1511	3	n/a	n/a	n/a	n/a	n/a	n/a
3492.966	n/a	RECOG_RESP	1746483	n/a	LTP195	ltpFR	6	3	n/a	TROUT	1511	n/a	n/a	n/a	n/a	n/a	n/a	n/a
3493.816	n/a	RECOG_CONF	1746908	n/a	LTP195	ltpFR	6	3	n/a	TROUT	1511	3	n/a	n/a	n/a	n/a	n/a	n/a
