onset	duration	trial_type	sample	stim_file	subject	experiment	session	trial	task	item_name	item_num	recog_conf	resp	color_b	color_g	color_r	case	font
242.812	n/a	SESS_START	121406	n/a	LTP206	ltpFR	4	n/a	n/a	n/a	n/a	n/a	n/a	n/a	n/a	n/a	n/a	n/a
304.336	n/a	WORD	152168	wordpools/wasnorm_wordpool_less_exclusions.txt	LTP206	ltpFR	4	1	0	CLAW	319	n/a	0	1	0.412841796875	0.57763671875	upper	../fonts/amplitud.ttf
308.262	n/a	WORD	154131	wordpools/wasnorm_wordpool_less_exclusions.txt	LTP206	ltpFR	4	1	0	WHISKERS	1605	n/a	0	1	0.412841796875	0.57763671875	upper	../fonts/amplitud.ttf
312.234	n/a	WORD	156117	wordpools/wasnorm_wordpool_less_exclusions.txt	LTP206	ltpFR	4	1	1	RELATIVE	1182	n/a	1	0	0.5869140625	0.422607421875	lower	../fonts/zerothre.ttf
316.242	n/a	WORD	158121	wordpools/wasnorm_wordpool_less_exclusions.txt	LTP206	ltpFR	4	1	1	FAMILY	550	n/a	1	0	0.5869140625	0.422607421875	lower	../fonts/zerothre.ttf
320.33	n/a	WORD	160165	wordpools/wasnorm_wordpool_less_exclusions.txt	LTP206	ltpFR	4	1	1	LOOP	844	n/a	0	0	0.5869140625	0.422607421875	lower	../fonts/zerothre.ttf
324.398	n/a	WORD	162199	wordpools/wasnorm_wordpool_less_exclusions.txt	LTP206	ltpFR	4	1	0	ZUCCHINI	1638	n/a	0	1	0.412841796875	0.57763671875	upper	../fonts/amplitud.ttf
328.456	n/a	WORD	164228	wordpools/wasnorm_wordpool_less_exclusions.txt	LTP206	ltpFR	4	1	0	BINDER	127	n/a	0	1	0.412841796875	0.57763671875	upper	../fonts/amplitud.ttf
332.506	n/a	WORD	166253	wordpools/wasnorm_wordpool_less_exclusions.txt	LTP206	ltpFR	4	1	0	HUMAN	726	n/a	0	1	0.412841796875	0.57763671875	upper	../fonts/amplitud.ttf
336.57	n/a	WORD	168285	wordpools/wasnorm_wordpool_less_exclusions.txt	LTP206	ltpFR	4	1	1	HOOP	716	n/a	0	0	0.5869140625	0.422607421875	lower	../fonts/zerothre.ttf
340.686	n/a	WORD	170343	wordpools/wasnorm_wordpool_less_exclusions.txt	LTP206	ltpFR	4	1	1	BUREAU	199	n/a	0	0	0.5869140625	0.422607421875	lower	../fonts/zerothre.ttf
344.668	n/a	WORD	172334	wordpools/wasnorm_wordpool_less_exclusions.txt	LTP206	ltpFR	4	1	1	OCTOPUS	971	n/a	1	0	0.5869140625	0.422607421875	lower	../fonts/zerothre.ttf
348.634	n/a	WORD	174317	wordpools/wasnorm_wordpool_less_exclusions.txt	LTP206	ltpFR	4	1	1	SHORE	1291	n/a	0	0	0.5869140625	0.422607421875	lower	../fonts/zerothre.ttf
352.856	n/a	WORD	176428	wordpools/wasnorm_wordpool_less_exclusions.txt	LTP206	ltpFR	4	1	1	COMMITTEE	355	n/a	0	0	0.5869140625	0.422607421875	lower	../fonts/zerothre.ttf
356.786	n/a	WORD	178393	wordpools/wasnorm_wordpool_less_exclusions.txt	LTP206	ltpFR	4	1	0	SHELF	1280	n/a	0	1	0.412841796875	0.57763671875	upper	../fonts/amplitud.ttf
360.92	n/a	WORD	180460	wordpools/wasnorm_wordpool_less_exclusions.txt	LTP206	ltpFR	4	1	0	FROG	608	n/a	0	1	0.412841796875	0.57763671875	upper	../fonts/amplitud.ttf
364.946	n/a	WORD	182473	wordpools/wasnorm_wordpool_less_exclusions.txt	LTP206	ltpFR	4	1	0	BISCUIT	130	n/a	0	1	0.412841796875	0.57763671875	upper	../fonts/amplitud.ttf
370.858	n/a	REC_START	185429	n/a	LTP206	ltpFR	4	1	n/a	n/a	n/a	n/a	n/a	n/a	n/a	n/a	n/a	n/a
372.156	n/a	REC_WORD_VV	186078	wordpools/wasnorm_wordpool_less_exclusions.txt	LTP206	ltpFR	4	1	n/a	<>	-1	n/a	n/a	n/a	n/a	n/a	n/a	n/a
372.784	n/a	REC_WORD	186392	wordpools/wasnorm_wordpool_less_exclusions.txt	LTP206	ltpFR	4	1	0	BISCUIT	130	n/a	0	n/a	n/a	n/a	n/a	n/a
373.31	n/a	REC_WORD_VV	186655	wordpools/wasnorm_wordpool_less_exclusions.txt	LTP206	ltpFR	4	1	n/a	<>	-1	n/a	n/a	n/a	n/a	n/a	n/a	n/a
373.714	n/a	REC_WORD	186857	wordpools/wasnorm_wordpool_less_exclusions.txt	LTP206	ltpFR	4	1	0	FROG	608	n/a	0	n/a	n/a	n/a	n/a	n/a
375.184	n/a	REC_WORD	187592	wordpools/wasnorm_wordpool_less_exclusions.txt	LTP206	ltpFR	4	1	1	FAMILY	550	n/a	1	n/a	n/a	n/a	n/a	n/a
376.85	n/a	REC_WORD	188425	wordpools/wasnorm_wordpool_less_exclusions.txt	LTP206	ltpFR	4	1	1	COMMITTEE	355	n/a	0	n/a	n/a	n/a	n/a	n/a
379.81	n/a	REC_WORD	189905	wordpools/wasnorm_wordpool_less_exclusions.txt	LTP206	ltpFR	4	1	0	HUMAN	726	n/a	0	n/a	n/a	n/a	n/a	n/a
383.96	n/a	REC_WORD	191980	wordpools/wasnorm_wordpool_less_exclusions.txt	LTP206	ltpFR	4	1	1	SHORE	1291	n/a	0	n/a	n/a	n/a	n/a	n/a
408.838	n/a	REC_WORD	204419	wordpools/wasnorm_wordpool_less_exclusions.txt	LTP206	ltpFR	4	1	0	FROG	608	n/a	0	n/a	n/a	n/a	n/a	n/a
456.646	n/a	WORD	228323	wordpools/wasnorm_wordpool_less_exclusions.txt	LTP206	ltpFR	4	2	1	PORCUPINE	1107	n/a	1	0	0.5869140625	0.422607421875	lower	../fonts/zerothre.ttf
460.5	n/a	WORD	230250	wordpools/wasnorm_wordpool_less_exclusions.txt	LTP206	ltpFR	4	2	1	LOUNGE	845	n/a	0	0	0.5869140625	0.422607421875	lower	../fonts/zerothre.ttf
464.448	n/a	WORD	232224	wordpools/wasnorm_wordpool_less_exclusions.txt	LTP206	ltpFR	4	2	0	BEDROOM	111	n/a	1	1	0.412841796875	0.57763671875	upper	../fonts/amplitud.ttf
468.592	n/a	WORD	234296	wordpools/wasnorm_wordpool_less_exclusions.txt	LTP206	ltpFR	4	2	0	PAWN	1030	n/a	0	1	0.412841796875	0.57763671875	upper	../fonts/amplitud.ttf
472.556	n/a	WORD	236278	wordpools/wasnorm_wordpool_less_exclusions.txt	LTP206	ltpFR	4	2	0	DIAMOND	458	n/a	0	1	0.412841796875	0.57763671875	upper	../fonts/amplitud.ttf
476.394	n/a	WORD	238197	wordpools/wasnorm_wordpool_less_exclusions.txt	LTP206	ltpFR	4	2	0	GEM	629	n/a	0	1	0.412841796875	0.57763671875	upper	../fonts/amplitud.ttf
480.488	n/a	WORD	240244	wordpools/wasnorm_wordpool_less_exclusions.txt	LTP206	ltpFR	4	2	0	BADGE	68	n/a	0	1	0.412841796875	0.57763671875	upper	../fonts/amplitud.ttf
484.61	n/a	WORD	242305	wordpools/wasnorm_wordpool_less_exclusions.txt	LTP206	ltpFR	4	2	0	LEADER	807	n/a	1	1	0.412841796875	0.57763671875	upper	../fonts/amplitud.ttf
488.742	n/a	WORD	244371	wordpools/wasnorm_wordpool_less_exclusions.txt	LTP206	ltpFR	4	2	1	PRESIDENT	1121	n/a	1	0	0.5869140625	0.422607421875	lower	../fonts/zerothre.ttf
492.8	n/a	WORD	246400	wordpools/wasnorm_wordpool_less_exclusions.txt	LTP206	ltpFR	4	2	1	MARKET	871	n/a	0	0	0.5869140625	0.422607421875	lower	../fonts/zerothre.ttf
496.706	n/a	WORD	248353	wordpools/wasnorm_wordpool_less_exclusions.txt	LTP206	ltpFR	4	2	1	OTTER	986	n/a	1	0	0.5869140625	0.422607421875	lower	../fonts/zerothre.ttf
500.732	n/a	WORD	250366	wordpools/wasnorm_wordpool_less_exclusions.txt	LTP206	ltpFR	4	2	1	MICROWAVE	892	n/a	0	0	0.5869140625	0.422607421875	lower	../fonts/zerothre.ttf
504.618	n/a	WORD	252309	wordpools/wasnorm_wordpool_less_exclusions.txt	LTP206	ltpFR	4	2	0	COIN	343	n/a	0	1	0.412841796875	0.57763671875	upper	../fonts/amplitud.ttf
508.728	n/a	WORD	254364	wordpools/wasnorm_wordpool_less_exclusions.txt	LTP206	ltpFR	4	2	0	FEMALE	559	n/a	1	1	0.412841796875	0.57763671875	upper	../fonts/amplitud.ttf
512.744	n/a	WORD	256372	wordpools/wasnorm_wordpool_less_exclusions.txt	LTP206	ltpFR	4	2	1	THREAD	1460	n/a	0	0	0.5869140625	0.422607421875	lower	../fonts/zerothre.ttf
516.816	n/a	WORD	258408	wordpools/wasnorm_wordpool_less_exclusions.txt	LTP206	ltpFR	4	2	1	KITCHEN	778	n/a	0	0	0.5869140625	0.422607421875	lower	../fonts/zerothre.ttf
522.8	n/a	REC_START	261400	n/a	LTP206	ltpFR	4	2	n/a	n/a	n/a	n/a	n/a	n/a	n/a	n/a	n/a	n/a
525.014	n/a	REC_WORD	262507	wordpools/wasnorm_wordpool_less_exclusions.txt	LTP206	ltpFR	4	2	1	KITCHEN	778	n/a	0	n/a	n/a	n/a	n/a	n/a
526.646	n/a	REC_WORD	263323	wordpools/wasnorm_wordpool_less_exclusions.txt	LTP206	ltpFR	4	2	1	THREAD	1460	n/a	0	n/a	n/a	n/a	n/a	n/a
539.494	n/a	REC_WORD	269747	wordpools/wasnorm_wordpool_less_exclusions.txt	LTP206	ltpFR	4	2	0	COIN	343	n/a	0	n/a	n/a	n/a	n/a	n/a
546.012	n/a	REC_WORD	273006	wordpools/wasnorm_wordpool_less_exclusions.txt	LTP206	ltpFR	4	2	1	COMMITTEE	355	n/a	0	n/a	n/a	n/a	n/a	n/a
551.356	n/a	REC_WORD	275678	wordpools/wasnorm_wordpool_less_exclusions.txt	LTP206	ltpFR	4	2	1	PRESIDENT	1121	n/a	1	n/a	n/a	n/a	n/a	n/a
557.302	n/a	REC_WORD	278651	wordpools/wasnorm_wordpool_less_exclusions.txt	LTP206	ltpFR	4	2	1	LOUNGE	845	n/a	0	n/a	n/a	n/a	n/a	n/a
564.906	n/a	REC_WORD	282453	wordpools/wasnorm_wordpool_less_exclusions.txt	LTP206	ltpFR	4	2	1	OTTER	986	n/a	1	n/a	n/a	n/a	n/a	n/a
571.174	n/a	REC_WORD	285587	wordpools/wasnorm_wordpool_less_exclusions.txt	LTP206	ltpFR	4	2	0	FEMALE	559	n/a	1	n/a	n/a	n/a	n/a	n/a
604.094	n/a	WORD	302047	wordpools/wasnorm_wordpool_less_exclusions.txt	LTP206	ltpFR	4	3	1	ROUGE	1213	n/a	0	0	0.5869140625	0.422607421875	lower	../fonts/zerothre.ttf
608.248	n/a	WORD	304124	wordpools/wasnorm_wordpool_less_exclusions.txt	LTP206	ltpFR	4	3	1	BALCONY	72	n/a	0	0	0.5869140625	0.422607421875	lower	../fonts/zerothre.ttf
612.414	n/a	WORD	306207	wordpools/wasnorm_wordpool_less_exclusions.txt	LTP206	ltpFR	4	3	1	BRICK	172	n/a	0	0	0.5869140625	0.422607421875	lower	../fonts/zerothre.ttf
616.524	n/a	WORD	308262	wordpools/wasnorm_wordpool_less_exclusions.txt	LTP206	ltpFR	4	3	1	SIRLOIN	1311	n/a	1	0	0.5869140625	0.422607421875	lower	../fonts/zerothre.ttf
620.544	n/a	WORD	310272	wordpools/wasnorm_wordpool_less_exclusions.txt	LTP206	ltpFR	4	3	1	COW	393	n/a	1	0	0.5869140625	0.422607421875	lower	../fonts/zerothre.ttf
624.76	n/a	WORD	312380	wordpools/wasnorm_wordpool_less_exclusions.txt	LTP206	ltpFR	4	3	1	SNAKE	1333	n/a	1	0	0.5869140625	0.422607421875	lower	../fonts/zerothre.ttf
628.978	n/a	WORD	314489	wordpools/wasnorm_wordpool_less_exclusions.txt	LTP206	ltpFR	4	3	1	FRIES	607	n/a	0	0	0.5869140625	0.422607421875	lower	../fonts/zerothre.ttf
633.026	n/a	WORD	316513	wordpools/wasnorm_wordpool_less_exclusions.txt	LTP206	ltpFR	4	3	1	PICK	1058	n/a	0	0	0.5869140625	0.422607421875	lower	../fonts/zerothre.ttf
637.192	n/a	WORD	318596	wordpools/wasnorm_wordpool_less_exclusions.txt	LTP206	ltpFR	4	3	1	ANGEL	22	n/a	0	0	0.5869140625	0.422607421875	lower	../fonts/zerothre.ttf
641.29	n/a	WORD	320645	wordpools/wasnorm_wordpool_less_exclusions.txt	LTP206	ltpFR	4	3	1	GUARDIAN	668	n/a	1	0	0.5869140625	0.422607421875	lower	../fonts/zerothre.ttf
645.306	n/a	WORD	322653	wordpools/wasnorm_wordpool_less_exclusions.txt	LTP206	ltpFR	4	3	1	FARM	552	n/a	0	0	0.5869140625	0.422607421875	lower	../fonts/zerothre.ttf
649.272	n/a	WORD	324636	wordpools/wasnorm_wordpool_less_exclusions.txt	LTP206	ltpFR	4	3	1	MOSS	918	n/a	1	0	0.5869140625	0.422607421875	lower	../fonts/zerothre.ttf
653.18	n/a	WORD	326590	wordpools/wasnorm_wordpool_less_exclusions.txt	LTP206	ltpFR	4	3	1	WELL	1600	n/a	0	0	0.5869140625	0.422607421875	lower	../fonts/zerothre.ttf
657.096	n/a	WORD	328548	wordpools/wasnorm_wordpool_less_exclusions.txt	LTP206	ltpFR	4	3	1	KEG	770	n/a	0	0	0.5869140625	0.422607421875	lower	../fonts/zerothre.ttf
661.318	n/a	WORD	330659	wordpools/wasnorm_wordpool_less_exclusions.txt	LTP206	ltpFR	4	3	1	SAUCER	1237	n/a	0	0	0.5869140625	0.422607421875	lower	../fonts/zerothre.ttf
665.5	n/a	WORD	332750	wordpools/wasnorm_wordpool_less_exclusions.txt	LTP206	ltpFR	4	3	1	LIZARD	834	n/a	1	0	0.5869140625	0.422607421875	lower	../fonts/zerothre.ttf
671.468	n/a	REC_START	335734	n/a	LTP206	ltpFR	4	3	n/a	n/a	n/a	n/a	n/a	n/a	n/a	n/a	n/a	n/a
673.376	n/a	REC_WORD	336688	wordpools/wasnorm_wordpool_less_exclusions.txt	LTP206	ltpFR	4	3	1	WELL	1600	n/a	0	n/a	n/a	n/a	n/a	n/a
675.664	n/a	REC_WORD	337832	wordpools/wasnorm_wordpool_less_exclusions.txt	LTP206	ltpFR	4	3	1	SAUCER	1237	n/a	0	n/a	n/a	n/a	n/a	n/a
678.138	n/a	REC_WORD	339069	wordpools/wasnorm_wordpool_less_exclusions.txt	LTP206	ltpFR	4	3	1	LIZARD	834	n/a	1	n/a	n/a	n/a	n/a	n/a
680.148	n/a	REC_WORD	340074	wordpools/wasnorm_wordpool_less_exclusions.txt	LTP206	ltpFR	4	3	1	COW	393	n/a	1	n/a	n/a	n/a	n/a	n/a
682.188	n/a	REC_WORD	341094	wordpools/wasnorm_wordpool_less_exclusions.txt	LTP206	ltpFR	4	3	1	FRIES	607	n/a	0	n/a	n/a	n/a	n/a	n/a
697.85	n/a	REC_WORD	348925	wordpools/wasnorm_wordpool_less_exclusions.txt	LTP206	ltpFR	4	3	1	ANGEL	22	n/a	0	n/a	n/a	n/a	n/a	n/a
711.688	n/a	REC_WORD	355844	wordpools/wasnorm_wordpool_less_exclusions.txt	LTP206	ltpFR	4	3	1	MOSS	918	n/a	1	n/a	n/a	n/a	n/a	n/a
733.654	n/a	REC_WORD	366827	wordpools/wasnorm_wordpool_less_exclusions.txt	LTP206	ltpFR	4	3	1	BUREAU	199	n/a	0	n/a	n/a	n/a	n/a	n/a
761.344	n/a	WORD	380672	wordpools/wasnorm_wordpool_less_exclusions.txt	LTP206	ltpFR	4	4	1	FOREHEAD	592	n/a	1	0	0.5869140625	0.422607421875	lower	../fonts/zerothre.ttf
765.232	n/a	WORD	382616	wordpools/wasnorm_wordpool_less_exclusions.txt	LTP206	ltpFR	4	4	1	DRAGON	492	n/a	1	0	0.5869140625	0.422607421875	lower	../fonts/zerothre.ttf
769.358	n/a	WORD	384679	wordpools/wasnorm_wordpool_less_exclusions.txt	LTP206	ltpFR	4	4	1	CASTLE	256	n/a	0	0	0.5869140625	0.422607421875	lower	../fonts/zerothre.ttf
773.222	n/a	WORD	386611	wordpools/wasnorm_wordpool_less_exclusions.txt	LTP206	ltpFR	4	4	1	TOE	1473	n/a	1	0	0.5869140625	0.422607421875	lower	../fonts/zerothre.ttf
777.444	n/a	WORD	388722	wordpools/wasnorm_wordpool_less_exclusions.txt	LTP206	ltpFR	4	4	1	LACE	792	n/a	0	0	0.5869140625	0.422607421875	lower	../fonts/zerothre.ttf
781.522	n/a	WORD	390761	wordpools/wasnorm_wordpool_less_exclusions.txt	LTP206	ltpFR	4	4	1	SHRUB	1299	n/a	1	0	0.5869140625	0.422607421875	lower	../fonts/zerothre.ttf
785.426	n/a	WORD	392713	wordpools/wasnorm_wordpool_less_exclusions.txt	LTP206	ltpFR	4	4	0	NECKLACE	940	n/a	0	1	0.412841796875	0.57763671875	upper	../fonts/amplitud.ttf
789.558	n/a	WORD	394779	wordpools/wasnorm_wordpool_less_exclusions.txt	LTP206	ltpFR	4	4	0	RING	1193	n/a	0	1	0.412841796875	0.57763671875	upper	../fonts/amplitud.ttf
793.768	n/a	WORD	396884	wordpools/wasnorm_wordpool_less_exclusions.txt	LTP206	ltpFR	4	4	0	ANT	25	n/a	0	1	0.412841796875	0.57763671875	upper	../fonts/amplitud.ttf
797.722	n/a	WORD	398861	wordpools/wasnorm_wordpool_less_exclusions.txt	LTP206	ltpFR	4	4	1	SHACK	1273	n/a	0	0	0.5869140625	0.422607421875	lower	../fonts/zerothre.ttf
801.922	n/a	WORD	400961	wordpools/wasnorm_wordpool_less_exclusions.txt	LTP206	ltpFR	4	4	1	PIZZA	1079	n/a	1	0	0.5869140625	0.422607421875	lower	../fonts/zerothre.ttf
805.914	n/a	WORD	402957	wordpools/wasnorm_wordpool_less_exclusions.txt	LTP206	ltpFR	4	4	0	TROUT	1511	n/a	0	1	0.412841796875	0.57763671875	upper	../fonts/amplitud.ttf
810.002	n/a	WORD	405001	wordpools/wasnorm_wordpool_less_exclusions.txt	LTP206	ltpFR	4	4	0	TUNA	1518	n/a	1	1	0.412841796875	0.57763671875	upper	../fonts/amplitud.ttf
814.184	n/a	WORD	407092	wordpools/wasnorm_wordpool_less_exclusions.txt	LTP206	ltpFR	4	4	0	MOTH	920	n/a	0	1	0.412841796875	0.57763671875	upper	../fonts/amplitud.ttf
818.184	n/a	WORD	409092	wordpools/wasnorm_wordpool_less_exclusions.txt	LTP206	ltpFR	4	4	0	SNEAKER	1334	n/a	0	1	0.412841796875	0.57763671875	upper	../fonts/amplitud.ttf
822.176	n/a	WORD	411088	wordpools/wasnorm_wordpool_less_exclusions.txt	LTP206	ltpFR	4	4	0	TREE	1502	n/a	1	1	0.412841796875	0.57763671875	upper	../fonts/amplitud.ttf
828.172	n/a	REC_START	414086	n/a	LTP206	ltpFR	4	4	n/a	n/a	n/a	n/a	n/a	n/a	n/a	n/a	n/a	n/a
830.462	n/a	REC_WORD	415231	wordpools/wasnorm_wordpool_less_exclusions.txt	LTP206	ltpFR	4	4	0	TREE	1502	n/a	1	n/a	n/a	n/a	n/a	n/a
832.572	n/a	REC_WORD	416286	wordpools/wasnorm_wordpool_less_exclusions.txt	LTP206	ltpFR	4	4	1	SHRUB	1299	n/a	1	n/a	n/a	n/a	n/a	n/a
858.446	n/a	REC_WORD	429223	wordpools/wasnorm_wordpool_less_exclusions.txt	LTP206	ltpFR	4	4	0	DIAMOND	458	n/a	0	n/a	n/a	n/a	n/a	n/a
861.438	n/a	REC_WORD	430719	wordpools/wasnorm_wordpool_less_exclusions.txt	LTP206	ltpFR	4	4	0	GEM	629	n/a	0	n/a	n/a	n/a	n/a	n/a
864.5	n/a	REC_WORD	432250	wordpools/wasnorm_wordpool_less_exclusions.txt	LTP206	ltpFR	4	4	0	NECKLACE	940	n/a	0	n/a	n/a	n/a	n/a	n/a
915.774	n/a	WORD	457887	wordpools/wasnorm_wordpool_less_exclusions.txt	LTP206	ltpFR	4	5	0	OVAL	990	n/a	0	1	0.412841796875	0.57763671875	upper	../fonts/amplitud.ttf
919.738	n/a	WORD	459869	wordpools/wasnorm_wordpool_less_exclusions.txt	LTP206	ltpFR	4	5	0	TEAM	1441	n/a	1	1	0.412841796875	0.57763671875	upper	../fonts/amplitud.ttf
923.798	n/a	WORD	461899	wordpools/wasnorm_wordpool_less_exclusions.txt	LTP206	ltpFR	4	5	1	COACH	331	n/a	1	0	0.5869140625	0.422607421875	lower	../fonts/zerothre.ttf
927.818	n/a	WORD	463909	wordpools/wasnorm_wordpool_less_exclusions.txt	LTP206	ltpFR	4	5	1	BONE	148	n/a	1	0	0.5869140625	0.422607421875	lower	../fonts/zerothre.ttf
931.862	n/a	WORD	465931	wordpools/wasnorm_wordpool_less_exclusions.txt	LTP206	ltpFR	4	5	1	HAT	690	n/a	0	0	0.5869140625	0.422607421875	lower	../fonts/zerothre.ttf
935.95	n/a	WORD	467975	wordpools/wasnorm_wordpool_less_exclusions.txt	LTP206	ltpFR	4	5	0	EMPEROR	529	n/a	1	1	0.412841796875	0.57763671875	upper	../fonts/amplitud.ttf
940.044	n/a	WORD	470022	wordpools/wasnorm_wordpool_less_exclusions.txt	LTP206	ltpFR	4	5	0	LAGOON	795	n/a	1	1	0.412841796875	0.57763671875	upper	../fonts/amplitud.ttf
943.874	n/a	WORD	471937	wordpools/wasnorm_wordpool_less_exclusions.txt	LTP206	ltpFR	4	5	0	MARSH	874	n/a	1	1	0.412841796875	0.57763671875	upper	../fonts/amplitud.ttf
947.878	n/a	WORD	473939	wordpools/wasnorm_wordpool_less_exclusions.txt	LTP206	ltpFR	4	5	0	RACCOON	1153	n/a	0	1	0.412841796875	0.57763671875	upper	../fonts/amplitud.ttf
951.856	n/a	WORD	475928	wordpools/wasnorm_wordpool_less_exclusions.txt	LTP206	ltpFR	4	5	1	CYLINDER	432	n/a	0	0	0.5869140625	0.422607421875	lower	../fonts/zerothre.ttf
956.01	n/a	WORD	478005	wordpools/wasnorm_wordpool_less_exclusions.txt	LTP206	ltpFR	4	5	1	LIME	823	n/a	1	0	0.5869140625	0.422607421875	lower	../fonts/zerothre.ttf
960.054	n/a	WORD	480027	wordpools/wasnorm_wordpool_less_exclusions.txt	LTP206	ltpFR	4	5	1	PLUMBER	1091	n/a	1	0	0.5869140625	0.422607421875	lower	../fonts/zerothre.ttf
964.024	n/a	WORD	482012	wordpools/wasnorm_wordpool_less_exclusions.txt	LTP206	ltpFR	4	5	1	TOENAIL	1474	n/a	1	0	0.5869140625	0.422607421875	lower	../fonts/zerothre.ttf
968.24	n/a	WORD	484120	wordpools/wasnorm_wordpool_less_exclusions.txt	LTP206	ltpFR	4	5	1	BOULDER	155	n/a	0	0	0.5869140625	0.422607421875	lower	../fonts/zerothre.ttf
972.222	n/a	WORD	486111	wordpools/wasnorm_wordpool_less_exclusions.txt	LTP206	ltpFR	4	5	0	WALRUS	1585	n/a	1	1	0.412841796875	0.57763671875	upper	../fonts/amplitud.ttf
976.054	n/a	WORD	488027	wordpools/wasnorm_wordpool_less_exclusions.txt	LTP206	ltpFR	4	5	0	POT	1114	n/a	0	1	0.412841796875	0.57763671875	upper	../fonts/amplitud.ttf
982.16	n/a	REC_START	491080	n/a	LTP206	ltpFR	4	5	n/a	n/a	n/a	n/a	n/a	n/a	n/a	n/a	n/a	n/a
983.922	n/a	REC_WORD	491961	wordpools/wasnorm_wordpool_less_exclusions.txt	LTP206	ltpFR	4	5	0	WALRUS	1585	n/a	1	n/a	n/a	n/a	n/a	n/a
986.142	n/a	REC_WORD	493071	wordpools/wasnorm_wordpool_less_exclusions.txt	LTP206	ltpFR	4	5	0	POT	1114	n/a	0	n/a	n/a	n/a	n/a	n/a
988.238	n/a	REC_WORD	494119	wordpools/wasnorm_wordpool_less_exclusions.txt	LTP206	ltpFR	4	5	1	BONE	148	n/a	1	n/a	n/a	n/a	n/a	n/a
990.368	n/a	REC_WORD	495184	wordpools/wasnorm_wordpool_less_exclusions.txt	LTP206	ltpFR	4	5	1	TOENAIL	1474	n/a	1	n/a	n/a	n/a	n/a	n/a
1018.664	n/a	REC_WORD	509332	wordpools/wasnorm_wordpool_less_exclusions.txt	LTP206	ltpFR	4	5	1	BOULDER	155	n/a	0	n/a	n/a	n/a	n/a	n/a
1026.432	n/a	REC_WORD	513216	wordpools/wasnorm_wordpool_less_exclusions.txt	LTP206	ltpFR	4	5	1	HAT	690	n/a	0	n/a	n/a	n/a	n/a	n/a
1067.43	n/a	WORD	533715	wordpools/wasnorm_wordpool_less_exclusions.txt	LTP206	ltpFR	4	6	0	ZIPPER	1636	n/a	0	1	0.412841796875	0.57763671875	upper	../fonts/amplitud.ttf
1071.446	n/a	WORD	535723	wordpools/wasnorm_wordpool_less_exclusions.txt	LTP206	ltpFR	4	6	0	ELF	525	n/a	0	1	0.412841796875	0.57763671875	upper	../fonts/amplitud.ttf
1075.534	n/a	WORD	537767	wordpools/wasnorm_wordpool_less_exclusions.txt	LTP206	ltpFR	4	6	0	SPY	1360	n/a	1	1	0.412841796875	0.57763671875	upper	../fonts/amplitud.ttf
1079.548	n/a	WORD	539774	wordpools/wasnorm_wordpool_less_exclusions.txt	LTP206	ltpFR	4	6	0	STRAW	1390	n/a	0	1	0.412841796875	0.57763671875	upper	../fonts/amplitud.ttf
1083.616	n/a	WORD	541808	wordpools/wasnorm_wordpool_less_exclusions.txt	LTP206	ltpFR	4	6	0	FURNITURE	616	n/a	1	1	0.412841796875	0.57763671875	upper	../fonts/amplitud.ttf
1087.63	n/a	WORD	543815	wordpools/wasnorm_wordpool_less_exclusions.txt	LTP206	ltpFR	4	6	0	LUMBER	848	n/a	1	1	0.412841796875	0.57763671875	upper	../fonts/amplitud.ttf
1091.606	n/a	WORD	545803	wordpools/wasnorm_wordpool_less_exclusions.txt	LTP206	ltpFR	4	6	0	BREAST	171	n/a	0	1	0.412841796875	0.57763671875	upper	../fonts/amplitud.ttf
1095.778	n/a	WORD	547889	wordpools/wasnorm_wordpool_less_exclusions.txt	LTP206	ltpFR	4	6	0	PICNIC	1060	n/a	0	1	0.412841796875	0.57763671875	upper	../fonts/amplitud.ttf
1099.836	n/a	WORD	549918	wordpools/wasnorm_wordpool_less_exclusions.txt	LTP206	ltpFR	4	6	0	DRESS	495	n/a	0	1	0.412841796875	0.57763671875	upper	../fonts/amplitud.ttf
1103.992	n/a	WORD	551996	wordpools/wasnorm_wordpool_less_exclusions.txt	LTP206	ltpFR	4	6	0	SHOELACE	1289	n/a	0	1	0.412841796875	0.57763671875	upper	../fonts/amplitud.ttf
1108.042	n/a	WORD	554021	wordpools/wasnorm_wordpool_less_exclusions.txt	LTP206	ltpFR	4	6	0	MECHANIC	884	n/a	1	1	0.412841796875	0.57763671875	upper	../fonts/amplitud.ttf
1111.872	n/a	WORD	555936	wordpools/wasnorm_wordpool_less_exclusions.txt	LTP206	ltpFR	4	6	0	VALVE	1546	n/a	0	1	0.412841796875	0.57763671875	upper	../fonts/amplitud.ttf
1115.854	n/a	WORD	557927	wordpools/wasnorm_wordpool_less_exclusions.txt	LTP206	ltpFR	4	6	0	OCEAN	970	n/a	1	1	0.412841796875	0.57763671875	upper	../fonts/amplitud.ttf
1119.998	n/a	WORD	559999	wordpools/wasnorm_wordpool_less_exclusions.txt	LTP206	ltpFR	4	6	0	CREEK	404	n/a	1	1	0.412841796875	0.57763671875	upper	../fonts/amplitud.ttf
1124.014	n/a	WORD	562007	wordpools/wasnorm_wordpool_less_exclusions.txt	LTP206	ltpFR	4	6	0	SNACK	1331	n/a	0	1	0.412841796875	0.57763671875	upper	../fonts/amplitud.ttf
1128.136	n/a	WORD	564068	wordpools/wasnorm_wordpool_less_exclusions.txt	LTP206	ltpFR	4	6	0	WINGS	1614	n/a	0	1	0.412841796875	0.57763671875	upper	../fonts/amplitud.ttf
1134.068	n/a	REC_START	567034	n/a	LTP206	ltpFR	4	6	n/a	n/a	n/a	n/a	n/a	n/a	n/a	n/a	n/a	n/a
1136.166	n/a	REC_WORD	568083	wordpools/wasnorm_wordpool_less_exclusions.txt	LTP206	ltpFR	4	6	0	ELF	525	n/a	0	n/a	n/a	n/a	n/a	n/a
1138.884	n/a	REC_WORD	569442	wordpools/wasnorm_wordpool_less_exclusions.txt	LTP206	ltpFR	4	6	0	WINGS	1614	n/a	0	n/a	n/a	n/a	n/a	n/a
1156.992	n/a	REC_WORD	578496	wordpools/wasnorm_wordpool_less_exclusions.txt	LTP206	ltpFR	4	6	0	MECHANIC	884	n/a	1	n/a	n/a	n/a	n/a	n/a
1159.562	n/a	REC_WORD	579781	wordpools/wasnorm_wordpool_less_exclusions.txt	LTP206	ltpFR	4	6	0	VALVE	1546	n/a	0	n/a	n/a	n/a	n/a	n/a
1172.548	n/a	REC_WORD_VV	586274	wordpools/wasnorm_wordpool_less_exclusions.txt	LTP206	ltpFR	4	6	n/a	<>	-1	n/a	n/a	n/a	n/a	n/a	n/a	n/a
1207.504	n/a	REC_WORD	603752	wordpools/wasnorm_wordpool_less_exclusions.txt	LTP206	ltpFR	4	6	0	FURNITURE	616	n/a	1	n/a	n/a	n/a	n/a	n/a
1225.3	n/a	WORD	612650	wordpools/wasnorm_wordpool_less_exclusions.txt	LTP206	ltpFR	4	7	1	MARINE	869	n/a	1	0	0.5869140625	0.422607421875	lower	../fonts/zerothre.ttf
1229.398	n/a	WORD	614699	wordpools/wasnorm_wordpool_less_exclusions.txt	LTP206	ltpFR	4	7	1	CHAMPAGNE	278	n/a	1	0	0.5869140625	0.422607421875	lower	../fonts/zerothre.ttf
1233.538	n/a	WORD	616769	wordpools/wasnorm_wordpool_less_exclusions.txt	LTP206	ltpFR	4	7	1	PREACHER	1119	n/a	1	0	0.5869140625	0.422607421875	lower	../fonts/zerothre.ttf
1237.38	n/a	WORD	618690	wordpools/wasnorm_wordpool_less_exclusions.txt	LTP206	ltpFR	4	7	1	PLATE	1086	n/a	0	0	0.5869140625	0.422607421875	lower	../fonts/zerothre.ttf
1241.228	n/a	WORD	620614	wordpools/wasnorm_wordpool_less_exclusions.txt	LTP206	ltpFR	4	7	1	CONTAINER	366	n/a	0	0	0.5869140625	0.422607421875	lower	../fonts/zerothre.ttf
1245.41	n/a	WORD	622705	wordpools/wasnorm_wordpool_less_exclusions.txt	LTP206	ltpFR	4	7	1	ICING	732	n/a	n/a	0	0.5869140625	0.422607421875	lower	../fonts/zerothre.ttf
1248.46	n/a	SLOW_MSG	624230	n/a	LTP206	ltpFR	4	7	n/a	n/a	n/a	n/a	n/a	n/a	n/a	n/a	n/a	n/a
1250.982	n/a	WORD	625491	wordpools/wasnorm_wordpool_less_exclusions.txt	LTP206	ltpFR	4	7	1	SAILOR	1223	n/a	1	0	0.5869140625	0.422607421875	lower	../fonts/zerothre.ttf
1255.036	n/a	WORD	627518	wordpools/wasnorm_wordpool_less_exclusions.txt	LTP206	ltpFR	4	7	1	DINER	467	n/a	0	0	0.5869140625	0.422607421875	lower	../fonts/zerothre.ttf
1258.934	n/a	WORD	629467	wordpools/wasnorm_wordpool_less_exclusions.txt	LTP206	ltpFR	4	7	1	SCALLOP	1242	n/a	1	0	0.5869140625	0.422607421875	lower	../fonts/zerothre.ttf
1262.95	n/a	WORD	631475	wordpools/wasnorm_wordpool_less_exclusions.txt	LTP206	ltpFR	4	7	1	COD	340	n/a	1	0	0.5869140625	0.422607421875	lower	../fonts/zerothre.ttf
1267.016	n/a	WORD	633508	wordpools/wasnorm_wordpool_less_exclusions.txt	LTP206	ltpFR	4	7	1	CHART	282	n/a	0	0	0.5869140625	0.422607421875	lower	../fonts/zerothre.ttf
1270.924	n/a	WORD	635462	wordpools/wasnorm_wordpool_less_exclusions.txt	LTP206	ltpFR	4	7	1	MAGAZINE	853	n/a	0	0	0.5869140625	0.422607421875	lower	../fonts/zerothre.ttf
1275.024	n/a	WORD	637512	wordpools/wasnorm_wordpool_less_exclusions.txt	LTP206	ltpFR	4	7	1	TELEVISION	1447	n/a	0	0	0.5869140625	0.422607421875	lower	../fonts/zerothre.ttf
1278.988	n/a	WORD	639494	wordpools/wasnorm_wordpool_less_exclusions.txt	LTP206	ltpFR	4	7	1	CABLE	213	n/a	0	0	0.5869140625	0.422607421875	lower	../fonts/zerothre.ttf
1283.004	n/a	WORD	641502	wordpools/wasnorm_wordpool_less_exclusions.txt	LTP206	ltpFR	4	7	1	GLACIER	638	n/a	0	0	0.5869140625	0.422607421875	lower	../fonts/zerothre.ttf
1286.84	n/a	WORD	643420	wordpools/wasnorm_wordpool_less_exclusions.txt	LTP206	ltpFR	4	7	1	MOTHER	921	n/a	1	0	0.5869140625	0.422607421875	lower	../fonts/zerothre.ttf
1292.748	n/a	REC_START	646374	n/a	LTP206	ltpFR	4	7	n/a	n/a	n/a	n/a	n/a	n/a	n/a	n/a	n/a	n/a
1294.23	n/a	REC_WORD	647115	wordpools/wasnorm_wordpool_less_exclusions.txt	LTP206	ltpFR	4	7	1	MOTHER	921	n/a	1	n/a	n/a	n/a	n/a	n/a
1296.41	n/a	REC_WORD	648205	wordpools/wasnorm_wordpool_less_exclusions.txt	LTP206	ltpFR	4	7	1	GLACIER	638	n/a	0	n/a	n/a	n/a	n/a	n/a
1299.488	n/a	REC_WORD	649744	wordpools/wasnorm_wordpool_less_exclusions.txt	LTP206	ltpFR	4	7	1	PREACHER	1119	n/a	1	n/a	n/a	n/a	n/a	n/a
1313.56	n/a	REC_WORD	656780	wordpools/wasnorm_wordpool_less_exclusions.txt	LTP206	ltpFR	4	7	1	CHAMPAGNE	278	n/a	1	n/a	n/a	n/a	n/a	n/a
1381.78	n/a	WORD	690890	wordpools/wasnorm_wordpool_less_exclusions.txt	LTP206	ltpFR	4	8	-1	STRING	1394	n/a	-1	1	1.0	1.0	upper	../fonts/Verdana.ttf
1385.988	n/a	WORD	692994	wordpools/wasnorm_wordpool_less_exclusions.txt	LTP206	ltpFR	4	8	-1	PEN	1041	n/a	-1	1	1.0	1.0	upper	../fonts/Verdana.ttf
1390.07	n/a	WORD	695035	wordpools/wasnorm_wordpool_less_exclusions.txt	LTP206	ltpFR	4	8	-1	LAKE	796	n/a	-1	1	1.0	1.0	upper	../fonts/Verdana.ttf
1394.18	n/a	WORD	697090	wordpools/wasnorm_wordpool_less_exclusions.txt	LTP206	ltpFR	4	8	-1	RIVER	1194	n/a	-1	1	1.0	1.0	upper	../fonts/Verdana.ttf
1398.244	n/a	WORD	699122	wordpools/wasnorm_wordpool_less_exclusions.txt	LTP206	ltpFR	4	8	-1	RESORT	1186	n/a	-1	1	1.0	1.0	upper	../fonts/Verdana.ttf
1402.132	n/a	WORD	701066	wordpools/wasnorm_wordpool_less_exclusions.txt	LTP206	ltpFR	4	8	-1	SCALE	1241	n/a	-1	1	1.0	1.0	upper	../fonts/Verdana.ttf
1406.064	n/a	WORD	703032	wordpools/wasnorm_wordpool_less_exclusions.txt	LTP206	ltpFR	4	8	-1	MERMAID	887	n/a	-1	1	1.0	1.0	upper	../fonts/Verdana.ttf
1409.996	n/a	WORD	704998	wordpools/wasnorm_wordpool_less_exclusions.txt	LTP206	ltpFR	4	8	-1	NOTEBOOK	959	n/a	-1	1	1.0	1.0	upper	../fonts/Verdana.ttf
1413.976	n/a	WORD	706988	wordpools/wasnorm_wordpool_less_exclusions.txt	LTP206	ltpFR	4	8	-1	WITNESS	1618	n/a	-1	1	1.0	1.0	upper	../fonts/Verdana.ttf
1418.026	n/a	WORD	709013	wordpools/wasnorm_wordpool_less_exclusions.txt	LTP206	ltpFR	4	8	-1	TUXEDO	1525	n/a	-1	1	1.0	1.0	upper	../fonts/Verdana.ttf
1421.856	n/a	WORD	710928	wordpools/wasnorm_wordpool_less_exclusions.txt	LTP206	ltpFR	4	8	-1	MOTEL	919	n/a	-1	1	1.0	1.0	upper	../fonts/Verdana.ttf
1426.034	n/a	WORD	713017	wordpools/wasnorm_wordpool_less_exclusions.txt	LTP206	ltpFR	4	8	-1	CROCODILE	411	n/a	-1	1	1.0	1.0	upper	../fonts/Verdana.ttf
1430.266	n/a	WORD	715133	wordpools/wasnorm_wordpool_less_exclusions.txt	LTP206	ltpFR	4	8	-1	GRAPE	654	n/a	-1	1	1.0	1.0	upper	../fonts/Verdana.ttf
1434.266	n/a	WORD	717133	wordpools/wasnorm_wordpool_less_exclusions.txt	LTP206	ltpFR	4	8	-1	PLUM	1090	n/a	-1	1	1.0	1.0	upper	../fonts/Verdana.ttf
1438.42	n/a	WORD	719210	wordpools/wasnorm_wordpool_less_exclusions.txt	LTP206	ltpFR	4	8	-1	SKIN	1318	n/a	-1	1	1.0	1.0	upper	../fonts/Verdana.ttf
1442.47	n/a	WORD	721235	wordpools/wasnorm_wordpool_less_exclusions.txt	LTP206	ltpFR	4	8	-1	LETTUCE	814	n/a	-1	1	1.0	1.0	upper	../fonts/Verdana.ttf
1448.104	n/a	REC_START	724052	n/a	LTP206	ltpFR	4	8	n/a	n/a	n/a	n/a	n/a	n/a	n/a	n/a	n/a	n/a
1449.964	n/a	REC_WORD_VV	724982	wordpools/wasnorm_wordpool_less_exclusions.txt	LTP206	ltpFR	4	8	n/a	<>	-1	n/a	n/a	n/a	n/a	n/a	n/a	n/a
1450.622	n/a	REC_WORD	725311	wordpools/wasnorm_wordpool_less_exclusions.txt	LTP206	ltpFR	4	8	-1	GRAPE	654	n/a	-1	n/a	n/a	n/a	n/a	n/a
1451.78	n/a	REC_WORD	725890	wordpools/wasnorm_wordpool_less_exclusions.txt	LTP206	ltpFR	4	8	-1	PLUM	1090	n/a	-1	n/a	n/a	n/a	n/a	n/a
1453.018	n/a	REC_WORD	726509	wordpools/wasnorm_wordpool_less_exclusions.txt	LTP206	ltpFR	4	8	-1	LETTUCE	814	n/a	-1	n/a	n/a	n/a	n/a	n/a
1454.014	n/a	REC_WORD	727007	wordpools/wasnorm_wordpool_less_exclusions.txt	LTP206	ltpFR	4	8	-1	RESORT	1186	n/a	-1	n/a	n/a	n/a	n/a	n/a
1455.372	n/a	REC_WORD	727686	wordpools/wasnorm_wordpool_less_exclusions.txt	LTP206	ltpFR	4	8	-1	LAKE	796	n/a	-1	n/a	n/a	n/a	n/a	n/a
1458.286	n/a	REC_WORD	729143	wordpools/wasnorm_wordpool_less_exclusions.txt	LTP206	ltpFR	4	8	-1	RIVER	1194	n/a	-1	n/a	n/a	n/a	n/a	n/a
1536.556	n/a	WORD	768278	wordpools/wasnorm_wordpool_less_exclusions.txt	LTP206	ltpFR	4	9	-1	COLOGNE	347	n/a	-1	1	1.0	1.0	upper	../fonts/Verdana.ttf
1540.612	n/a	WORD	770306	wordpools/wasnorm_wordpool_less_exclusions.txt	LTP206	ltpFR	4	9	-1	STAFF	1365	n/a	-1	1	1.0	1.0	upper	../fonts/Verdana.ttf
1544.754	n/a	WORD	772377	wordpools/wasnorm_wordpool_less_exclusions.txt	LTP206	ltpFR	4	9	-1	PERSONNEL	1053	n/a	-1	1	1.0	1.0	upper	../fonts/Verdana.ttf
1548.91	n/a	WORD	774455	wordpools/wasnorm_wordpool_less_exclusions.txt	LTP206	ltpFR	4	9	-1	NOTE	958	n/a	-1	1	1.0	1.0	upper	../fonts/Verdana.ttf
1552.958	n/a	WORD	776479	wordpools/wasnorm_wordpool_less_exclusions.txt	LTP206	ltpFR	4	9	-1	COYOTE	396	n/a	-1	1	1.0	1.0	upper	../fonts/Verdana.ttf
1556.85	n/a	WORD	778425	wordpools/wasnorm_wordpool_less_exclusions.txt	LTP206	ltpFR	4	9	-1	CRAB	397	n/a	-1	1	1.0	1.0	upper	../fonts/Verdana.ttf
1560.906	n/a	WORD	780453	wordpools/wasnorm_wordpool_less_exclusions.txt	LTP206	ltpFR	4	9	-1	BIKE	125	n/a	-1	1	1.0	1.0	upper	../fonts/Verdana.ttf
1565.122	n/a	WORD	782561	wordpools/wasnorm_wordpool_less_exclusions.txt	LTP206	ltpFR	4	9	-1	CLAM	315	n/a	-1	1	1.0	1.0	upper	../fonts/Verdana.ttf
1569.102	n/a	WORD	784551	wordpools/wasnorm_wordpool_less_exclusions.txt	LTP206	ltpFR	4	9	-1	SEAFOOD	1260	n/a	-1	1	1.0	1.0	upper	../fonts/Verdana.ttf
1573.196	n/a	WORD	786598	wordpools/wasnorm_wordpool_less_exclusions.txt	LTP206	ltpFR	4	9	-1	BOARD	143	n/a	-1	1	1.0	1.0	upper	../fonts/Verdana.ttf
1577.262	n/a	WORD	788631	wordpools/wasnorm_wordpool_less_exclusions.txt	LTP206	ltpFR	4	9	-1	COUGAR	387	n/a	-1	1	1.0	1.0	upper	../fonts/Verdana.ttf
1581.134	n/a	WORD	790567	wordpools/wasnorm_wordpool_less_exclusions.txt	LTP206	ltpFR	4	9	-1	SKUNK	1321	n/a	-1	1	1.0	1.0	upper	../fonts/Verdana.ttf
1585.058	n/a	WORD	792529	wordpools/wasnorm_wordpool_less_exclusions.txt	LTP206	ltpFR	4	9	-1	VIOLA	1570	n/a	-1	1	1.0	1.0	upper	../fonts/Verdana.ttf
1589.13	n/a	WORD	794565	wordpools/wasnorm_wordpool_less_exclusions.txt	LTP206	ltpFR	4	9	-1	PLANT	1083	n/a	-1	1	1.0	1.0	upper	../fonts/Verdana.ttf
1593.294	n/a	WORD	796647	wordpools/wasnorm_wordpool_less_exclusions.txt	LTP206	ltpFR	4	9	-1	WILDERNESS	1610	n/a	-1	1	1.0	1.0	upper	../fonts/Verdana.ttf
1597.322	n/a	WORD	798661	wordpools/wasnorm_wordpool_less_exclusions.txt	LTP206	ltpFR	4	9	-1	SHAMPOO	1274	n/a	-1	1	1.0	1.0	upper	../fonts/Verdana.ttf
1603.028	n/a	REC_START	801514	n/a	LTP206	ltpFR	4	9	n/a	n/a	n/a	n/a	n/a	n/a	n/a	n/a	n/a	n/a
1604.79	n/a	REC_WORD_VV	802395	wordpools/wasnorm_wordpool_less_exclusions.txt	LTP206	ltpFR	4	9	n/a	<>	-1	n/a	n/a	n/a	n/a	n/a	n/a	n/a
1605.54	n/a	REC_WORD	802770	wordpools/wasnorm_wordpool_less_exclusions.txt	LTP206	ltpFR	4	9	-1	SHAMPOO	1274	n/a	-1	n/a	n/a	n/a	n/a	n/a
1608.14	n/a	REC_WORD	804070	wordpools/wasnorm_wordpool_less_exclusions.txt	LTP206	ltpFR	4	9	-1	WILDERNESS	1610	n/a	-1	n/a	n/a	n/a	n/a	n/a
1610.086	n/a	REC_WORD	805043	wordpools/wasnorm_wordpool_less_exclusions.txt	LTP206	ltpFR	4	9	-1	COUGAR	387	n/a	-1	n/a	n/a	n/a	n/a	n/a
1612.576	n/a	REC_WORD	806288	wordpools/wasnorm_wordpool_less_exclusions.txt	LTP206	ltpFR	4	9	1	PORCUPINE	1107	n/a	1	n/a	n/a	n/a	n/a	n/a
1622.244	n/a	REC_WORD	811122	wordpools/wasnorm_wordpool_less_exclusions.txt	LTP206	ltpFR	4	9	-1	CLAM	315	n/a	-1	n/a	n/a	n/a	n/a	n/a
1624.294	n/a	REC_WORD	812147	wordpools/wasnorm_wordpool_less_exclusions.txt	LTP206	ltpFR	4	9	-1	SEAFOOD	1260	n/a	-1	n/a	n/a	n/a	n/a	n/a
1626.76	n/a	REC_WORD	813380	wordpools/wasnorm_wordpool_less_exclusions.txt	LTP206	ltpFR	4	9	-1	CRAB	397	n/a	-1	n/a	n/a	n/a	n/a	n/a
1654.424	n/a	REC_WORD_VV	827212	wordpools/wasnorm_wordpool_less_exclusions.txt	LTP206	ltpFR	4	9	n/a	<>	-1	n/a	n/a	n/a	n/a	n/a	n/a	n/a
1655.082	n/a	REC_WORD	827541	wordpools/wasnorm_wordpool_less_exclusions.txt	LTP206	ltpFR	4	9	-1	SHAMPOO	1274	n/a	-1	n/a	n/a	n/a	n/a	n/a
1693.156	n/a	WORD	846578	wordpools/wasnorm_wordpool_less_exclusions.txt	LTP206	ltpFR	4	10	0	LOG	841	n/a	1	1	0.412841796875	0.57763671875	upper	../fonts/amplitud.ttf
1697.226	n/a	WORD	848613	wordpools/wasnorm_wordpool_less_exclusions.txt	LTP206	ltpFR	4	10	0	SERGEANT	1269	n/a	1	1	0.412841796875	0.57763671875	upper	../fonts/amplitud.ttf
1701.176	n/a	WORD	850588	wordpools/wasnorm_wordpool_less_exclusions.txt	LTP206	ltpFR	4	10	0	LOBSTER	837	n/a	0	1	0.412841796875	0.57763671875	upper	../fonts/amplitud.ttf
1705.25	n/a	WORD	852625	wordpools/wasnorm_wordpool_less_exclusions.txt	LTP206	ltpFR	4	10	0	SALMON	1227	n/a	0	1	0.412841796875	0.57763671875	upper	../fonts/amplitud.ttf
1709.4	n/a	WORD	854700	wordpools/wasnorm_wordpool_less_exclusions.txt	LTP206	ltpFR	4	10	1	FORT	595	n/a	0	0	0.5869140625	0.422607421875	lower	../fonts/zerothre.ttf
1713.606	n/a	WORD	856803	wordpools/wasnorm_wordpool_less_exclusions.txt	LTP206	ltpFR	4	10	1	BARLEY	88	n/a	1	0	0.5869140625	0.422607421875	lower	../fonts/zerothre.ttf
1717.604	n/a	WORD	858802	wordpools/wasnorm_wordpool_less_exclusions.txt	LTP206	ltpFR	4	10	0	CLOVE	329	n/a	0	1	0.412841796875	0.57763671875	upper	../fonts/amplitud.ttf
1721.612	n/a	WORD	860806	wordpools/wasnorm_wordpool_less_exclusions.txt	LTP206	ltpFR	4	10	0	WAITRESS	1581	n/a	1	1	0.412841796875	0.57763671875	upper	../fonts/amplitud.ttf
1725.702	n/a	WORD	862851	wordpools/wasnorm_wordpool_less_exclusions.txt	LTP206	ltpFR	4	10	0	EMERALD	528	n/a	0	1	0.412841796875	0.57763671875	upper	../fonts/amplitud.ttf
1729.912	n/a	WORD	864956	wordpools/wasnorm_wordpool_less_exclusions.txt	LTP206	ltpFR	4	10	0	SWING	1421	n/a	0	1	0.412841796875	0.57763671875	upper	../fonts/amplitud.ttf
1733.978	n/a	WORD	866989	wordpools/wasnorm_wordpool_less_exclusions.txt	LTP206	ltpFR	4	10	1	WALNUT	1584	n/a	1	0	0.5869140625	0.422607421875	lower	../fonts/zerothre.ttf
1737.858	n/a	WORD	868929	wordpools/wasnorm_wordpool_less_exclusions.txt	LTP206	ltpFR	4	10	1	APE	31	n/a	1	0	0.5869140625	0.422607421875	lower	../fonts/zerothre.ttf
1742.014	n/a	WORD	871007	wordpools/wasnorm_wordpool_less_exclusions.txt	LTP206	ltpFR	4	10	1	HOSTESS	723	n/a	1	0	0.5869140625	0.422607421875	lower	../fonts/zerothre.ttf
1745.93	n/a	WORD	872965	wordpools/wasnorm_wordpool_less_exclusions.txt	LTP206	ltpFR	4	10	1	MINER	896	n/a	1	0	0.5869140625	0.422607421875	lower	../fonts/zerothre.ttf
1749.794	n/a	WORD	874897	wordpools/wasnorm_wordpool_less_exclusions.txt	LTP206	ltpFR	4	10	1	RUBY	1214	n/a	0	0	0.5869140625	0.422607421875	lower	../fonts/zerothre.ttf
1753.876	n/a	WORD	876938	wordpools/wasnorm_wordpool_less_exclusions.txt	LTP206	ltpFR	4	10	1	CHIME	300	n/a	0	0	0.5869140625	0.422607421875	lower	../fonts/zerothre.ttf
1759.508	n/a	REC_START	879754	n/a	LTP206	ltpFR	4	10	n/a	n/a	n/a	n/a	n/a	n/a	n/a	n/a	n/a	n/a
1760.958	n/a	REC_WORD_VV	880479	wordpools/wasnorm_wordpool_less_exclusions.txt	LTP206	ltpFR	4	10	n/a	<>	-1	n/a	n/a	n/a	n/a	n/a	n/a	n/a
1762.41	n/a	REC_WORD	881205	wordpools/wasnorm_wordpool_less_exclusions.txt	LTP206	ltpFR	4	10	1	RUBY	1214	n/a	0	n/a	n/a	n/a	n/a	n/a
1763.904	n/a	REC_WORD	881952	wordpools/wasnorm_wordpool_less_exclusions.txt	LTP206	ltpFR	4	10	1	CHIME	300	n/a	0	n/a	n/a	n/a	n/a	n/a
1766.08	n/a	REC_WORD	883040	wordpools/wasnorm_wordpool_less_exclusions.txt	LTP206	ltpFR	4	10	0	WAITRESS	1581	n/a	1	n/a	n/a	n/a	n/a	n/a
1844.2	n/a	WORD	922100	wordpools/wasnorm_wordpool_less_exclusions.txt	LTP206	ltpFR	4	11	-1	BROCCOLI	176	n/a	-1	1	1.0	1.0	upper	../fonts/Verdana.ttf
1848.046	n/a	WORD	924023	wordpools/wasnorm_wordpool_less_exclusions.txt	LTP206	ltpFR	4	11	-1	BULL	193	n/a	-1	1	1.0	1.0	upper	../fonts/Verdana.ttf
1852.186	n/a	WORD	926093	wordpools/wasnorm_wordpool_less_exclusions.txt	LTP206	ltpFR	4	11	-1	MOAT	903	n/a	-1	1	1.0	1.0	upper	../fonts/Verdana.ttf
1856.216	n/a	WORD	928108	wordpools/wasnorm_wordpool_less_exclusions.txt	LTP206	ltpFR	4	11	-1	DUNE	506	n/a	-1	1	1.0	1.0	upper	../fonts/Verdana.ttf
1860.216	n/a	WORD	930108	wordpools/wasnorm_wordpool_less_exclusions.txt	LTP206	ltpFR	4	11	-1	STEM	1376	n/a	-1	1	1.0	1.0	upper	../fonts/Verdana.ttf
1864.398	n/a	WORD	932199	wordpools/wasnorm_wordpool_less_exclusions.txt	LTP206	ltpFR	4	11	-1	STOVE	1388	n/a	-1	1	1.0	1.0	upper	../fonts/Verdana.ttf
1868.43	n/a	WORD	934215	wordpools/wasnorm_wordpool_less_exclusions.txt	LTP206	ltpFR	4	11	-1	SKILLET	1317	n/a	-1	1	1.0	1.0	upper	../fonts/Verdana.ttf
1872.546	n/a	WORD	936273	wordpools/wasnorm_wordpool_less_exclusions.txt	LTP206	ltpFR	4	11	-1	WOMAN	1620	n/a	-1	1	1.0	1.0	upper	../fonts/Verdana.ttf
1876.426	n/a	WORD	938213	wordpools/wasnorm_wordpool_less_exclusions.txt	LTP206	ltpFR	4	11	-1	BAY	102	n/a	-1	1	1.0	1.0	upper	../fonts/Verdana.ttf
1880.488	n/a	WORD	940244	wordpools/wasnorm_wordpool_less_exclusions.txt	LTP206	ltpFR	4	11	-1	HEDGE	699	n/a	-1	1	1.0	1.0	upper	../fonts/Verdana.ttf
1884.642	n/a	WORD	942321	wordpools/wasnorm_wordpool_less_exclusions.txt	LTP206	ltpFR	4	11	-1	DANDELION	438	n/a	-1	1	1.0	1.0	upper	../fonts/Verdana.ttf
1888.584	n/a	WORD	944292	wordpools/wasnorm_wordpool_less_exclusions.txt	LTP206	ltpFR	4	11	-1	BIRD	129	n/a	-1	1	1.0	1.0	upper	../fonts/Verdana.ttf
1892.75	n/a	WORD	946375	wordpools/wasnorm_wordpool_less_exclusions.txt	LTP206	ltpFR	4	11	-1	QUAIL	1147	n/a	-1	1	1.0	1.0	upper	../fonts/Verdana.ttf
1896.732	n/a	WORD	948366	wordpools/wasnorm_wordpool_less_exclusions.txt	LTP206	ltpFR	4	11	-1	CANOE	233	n/a	-1	1	1.0	1.0	upper	../fonts/Verdana.ttf
1900.938	n/a	WORD	950469	wordpools/wasnorm_wordpool_less_exclusions.txt	LTP206	ltpFR	4	11	-1	CAB	209	n/a	-1	1	1.0	1.0	upper	../fonts/Verdana.ttf
1904.802	n/a	WORD	952401	wordpools/wasnorm_wordpool_less_exclusions.txt	LTP206	ltpFR	4	11	-1	SQUIRREL	1362	n/a	-1	1	1.0	1.0	upper	../fonts/Verdana.ttf
1910.492	n/a	REC_START	955246	n/a	LTP206	ltpFR	4	11	n/a	n/a	n/a	n/a	n/a	n/a	n/a	n/a	n/a	n/a
1912.79	n/a	REC_WORD	956395	wordpools/wasnorm_wordpool_less_exclusions.txt	LTP206	ltpFR	4	11	-1	WOMAN	1620	n/a	-1	n/a	n/a	n/a	n/a	n/a
1914.726	n/a	REC_WORD	957363	wordpools/wasnorm_wordpool_less_exclusions.txt	LTP206	ltpFR	4	11	-1	CANOE	233	n/a	-1	n/a	n/a	n/a	n/a	n/a
1916.778	n/a	REC_WORD	958389	wordpools/wasnorm_wordpool_less_exclusions.txt	LTP206	ltpFR	4	11	-1	SQUIRREL	1362	n/a	-1	n/a	n/a	n/a	n/a	n/a
1919.322	n/a	REC_WORD	959661	wordpools/wasnorm_wordpool_less_exclusions.txt	LTP206	ltpFR	4	11	-1	CAB	209	n/a	-1	n/a	n/a	n/a	n/a	n/a
1929.386	n/a	REC_WORD	964693	wordpools/wasnorm_wordpool_less_exclusions.txt	LTP206	ltpFR	4	11	-1	QUAIL	1147	n/a	-1	n/a	n/a	n/a	n/a	n/a
1931.62	n/a	REC_WORD	965810	wordpools/wasnorm_wordpool_less_exclusions.txt	LTP206	ltpFR	4	11	-1	BIRD	129	n/a	-1	n/a	n/a	n/a	n/a	n/a
2001.404	n/a	WORD	1000702	wordpools/wasnorm_wordpool_less_exclusions.txt	LTP206	ltpFR	4	12	1	CHAIN	273	n/a	0	0	0.5869140625	0.422607421875	lower	../fonts/zerothre.ttf
2005.514	n/a	WORD	1002757	wordpools/wasnorm_wordpool_less_exclusions.txt	LTP206	ltpFR	4	12	1	LITERATURE	831	n/a	0	0	0.5869140625	0.422607421875	lower	../fonts/zerothre.ttf
2009.446	n/a	WORD	1004723	wordpools/wasnorm_wordpool_less_exclusions.txt	LTP206	ltpFR	4	12	1	TEAPOT	1442	n/a	0	0	0.5869140625	0.422607421875	lower	../fonts/zerothre.ttf
2013.546	n/a	WORD	1006773	wordpools/wasnorm_wordpool_less_exclusions.txt	LTP206	ltpFR	4	12	1	HARE	688	n/a	1	0	0.5869140625	0.422607421875	lower	../fonts/zerothre.ttf
2017.678	n/a	WORD	1008839	wordpools/wasnorm_wordpool_less_exclusions.txt	LTP206	ltpFR	4	12	1	STAPLER	1372	n/a	0	0	0.5869140625	0.422607421875	lower	../fonts/zerothre.ttf
2021.878	n/a	WORD	1010939	wordpools/wasnorm_wordpool_less_exclusions.txt	LTP206	ltpFR	4	12	1	CUPBOARD	425	n/a	0	0	0.5869140625	0.422607421875	lower	../fonts/zerothre.ttf
2025.932	n/a	WORD	1012966	wordpools/wasnorm_wordpool_less_exclusions.txt	LTP206	ltpFR	4	12	1	PAW	1029	n/a	1	0	0.5869140625	0.422607421875	lower	../fonts/zerothre.ttf
2029.858	n/a	WORD	1014929	wordpools/wasnorm_wordpool_less_exclusions.txt	LTP206	ltpFR	4	12	1	HOUND	724	n/a	1	0	0.5869140625	0.422607421875	lower	../fonts/zerothre.ttf
2033.756	n/a	WORD	1016878	wordpools/wasnorm_wordpool_less_exclusions.txt	LTP206	ltpFR	4	12	1	PUBLISHER	1137	n/a	0	0	0.5869140625	0.422607421875	lower	../fonts/zerothre.ttf
2037.66	n/a	WORD	1018830	wordpools/wasnorm_wordpool_less_exclusions.txt	LTP206	ltpFR	4	12	1	TRAY	1498	n/a	0	0	0.5869140625	0.422607421875	lower	../fonts/zerothre.ttf
2041.524	n/a	WORD	1020762	wordpools/wasnorm_wordpool_less_exclusions.txt	LTP206	ltpFR	4	12	1	COTTAGE	384	n/a	0	0	0.5869140625	0.422607421875	lower	../fonts/zerothre.ttf
2045.472	n/a	WORD	1022736	wordpools/wasnorm_wordpool_less_exclusions.txt	LTP206	ltpFR	4	12	1	VILLAGE	1566	n/a	0	0	0.5869140625	0.422607421875	lower	../fonts/zerothre.ttf
2049.438	n/a	WORD	1024719	wordpools/wasnorm_wordpool_less_exclusions.txt	LTP206	ltpFR	4	12	1	CHEST	295	n/a	0	0	0.5869140625	0.422607421875	lower	../fonts/zerothre.ttf
2053.516	n/a	WORD	1026758	wordpools/wasnorm_wordpool_less_exclusions.txt	LTP206	ltpFR	4	12	1	NOSE	957	n/a	1	0	0.5869140625	0.422607421875	lower	../fonts/zerothre.ttf
2057.514	n/a	WORD	1028757	wordpools/wasnorm_wordpool_less_exclusions.txt	LTP206	ltpFR	4	12	1	ORCHESTRA	981	n/a	0	0	0.5869140625	0.422607421875	lower	../fonts/zerothre.ttf
2061.518	n/a	WORD	1030759	wordpools/wasnorm_wordpool_less_exclusions.txt	LTP206	ltpFR	4	12	1	THUMB	1462	n/a	1	0	0.5869140625	0.422607421875	lower	../fonts/zerothre.ttf
2067.268	n/a	REC_START	1033634	n/a	LTP206	ltpFR	4	12	n/a	n/a	n/a	n/a	n/a	n/a	n/a	n/a	n/a	n/a
2069.8	n/a	REC_WORD	1034900	wordpools/wasnorm_wordpool_less_exclusions.txt	LTP206	ltpFR	4	12	1	THUMB	1462	n/a	1	n/a	n/a	n/a	n/a	n/a
2071.99	n/a	REC_WORD	1035995	wordpools/wasnorm_wordpool_less_exclusions.txt	LTP206	ltpFR	4	12	1	ORCHESTRA	981	n/a	0	n/a	n/a	n/a	n/a	n/a
2074.264	n/a	REC_WORD	1037132	wordpools/wasnorm_wordpool_less_exclusions.txt	LTP206	ltpFR	4	12	1	CHEST	295	n/a	0	n/a	n/a	n/a	n/a	n/a
2142.912	n/a	REST_REWET	1071456	n/a	LTP206	ltpFR	4	12	n/a	n/a	n/a	n/a	n/a	n/a	n/a	n/a	n/a	n/a
2366.292	n/a	WORD	1183146	wordpools/wasnorm_wordpool_less_exclusions.txt	LTP206	ltpFR	4	13	0	CHERRY	293	n/a	0	1	0.412841796875	0.57763671875	upper	../fonts/amplitud.ttf
2370.376	n/a	WORD	1185188	wordpools/wasnorm_wordpool_less_exclusions.txt	LTP206	ltpFR	4	13	0	KIWI	781	n/a	0	1	0.412841796875	0.57763671875	upper	../fonts/amplitud.ttf
2374.364	n/a	WORD	1187182	wordpools/wasnorm_wordpool_less_exclusions.txt	LTP206	ltpFR	4	13	0	PEARL	1034	n/a	0	1	0.412841796875	0.57763671875	upper	../fonts/amplitud.ttf
2378.328	n/a	WORD	1189164	wordpools/wasnorm_wordpool_less_exclusions.txt	LTP206	ltpFR	4	13	0	CORD	379	n/a	0	1	0.412841796875	0.57763671875	upper	../fonts/amplitud.ttf
2382.194	n/a	WORD	1191097	wordpools/wasnorm_wordpool_less_exclusions.txt	LTP206	ltpFR	4	13	0	BOY	161	n/a	1	1	0.412841796875	0.57763671875	upper	../fonts/amplitud.ttf
2386.308	n/a	WORD	1193154	wordpools/wasnorm_wordpool_less_exclusions.txt	LTP206	ltpFR	4	13	0	SHRIMP	1297	n/a	0	1	0.412841796875	0.57763671875	upper	../fonts/amplitud.ttf
2390.274	n/a	WORD	1195137	wordpools/wasnorm_wordpool_less_exclusions.txt	LTP206	ltpFR	4	13	0	KNUCKLE	789	n/a	0	1	0.412841796875	0.57763671875	upper	../fonts/amplitud.ttf
2394.106	n/a	WORD	1197053	wordpools/wasnorm_wordpool_less_exclusions.txt	LTP206	ltpFR	4	13	0	PILLOW	1069	n/a	0	1	0.412841796875	0.57763671875	upper	../fonts/amplitud.ttf
2398.148	n/a	WORD	1199074	wordpools/wasnorm_wordpool_less_exclusions.txt	LTP206	ltpFR	4	13	0	BLANKET	135	n/a	0	1	0.412841796875	0.57763671875	upper	../fonts/amplitud.ttf
2402.154	n/a	WORD	1201077	wordpools/wasnorm_wordpool_less_exclusions.txt	LTP206	ltpFR	4	13	0	BILL	126	n/a	0	1	0.412841796875	0.57763671875	upper	../fonts/amplitud.ttf
2406.152	n/a	WORD	1203076	wordpools/wasnorm_wordpool_less_exclusions.txt	LTP206	ltpFR	4	13	0	FIST	572	n/a	0	1	0.412841796875	0.57763671875	upper	../fonts/amplitud.ttf
2410.334	n/a	WORD	1205167	wordpools/wasnorm_wordpool_less_exclusions.txt	LTP206	ltpFR	4	13	0	TOTE	1487	n/a	0	1	0.412841796875	0.57763671875	upper	../fonts/amplitud.ttf
2414.4	n/a	WORD	1207200	wordpools/wasnorm_wordpool_less_exclusions.txt	LTP206	ltpFR	4	13	0	LUGGAGE	847	n/a	1	1	0.412841796875	0.57763671875	upper	../fonts/amplitud.ttf
2418.348	n/a	WORD	1209174	wordpools/wasnorm_wordpool_less_exclusions.txt	LTP206	ltpFR	4	13	0	PASTA	1021	n/a	0	1	0.412841796875	0.57763671875	upper	../fonts/amplitud.ttf
2422.33	n/a	WORD	1211165	wordpools/wasnorm_wordpool_less_exclusions.txt	LTP206	ltpFR	4	13	0	MACHINE	852	n/a	1	1	0.412841796875	0.57763671875	upper	../fonts/amplitud.ttf
2426.162	n/a	WORD	1213081	wordpools/wasnorm_wordpool_less_exclusions.txt	LTP206	ltpFR	4	13	0	FEAST	556	n/a	1	1	0.412841796875	0.57763671875	upper	../fonts/amplitud.ttf
2432.002	n/a	REC_START	1216001	n/a	LTP206	ltpFR	4	13	n/a	n/a	n/a	n/a	n/a	n/a	n/a	n/a	n/a	n/a
2434.102	n/a	REC_WORD	1217051	wordpools/wasnorm_wordpool_less_exclusions.txt	LTP206	ltpFR	4	13	0	LUGGAGE	847	n/a	1	n/a	n/a	n/a	n/a	n/a
2435.932	n/a	REC_WORD	1217966	wordpools/wasnorm_wordpool_less_exclusions.txt	LTP206	ltpFR	4	13	0	FEAST	556	n/a	1	n/a	n/a	n/a	n/a	n/a
2437.384	n/a	REC_WORD	1218692	wordpools/wasnorm_wordpool_less_exclusions.txt	LTP206	ltpFR	4	13	0	BOY	161	n/a	1	n/a	n/a	n/a	n/a	n/a
2439.07	n/a	REC_WORD	1219535	wordpools/wasnorm_wordpool_less_exclusions.txt	LTP206	ltpFR	4	13	0	TOTE	1487	n/a	0	n/a	n/a	n/a	n/a	n/a
2444.024	n/a	REC_WORD	1222012	wordpools/wasnorm_wordpool_less_exclusions.txt	LTP206	ltpFR	4	13	0	MACHINE	852	n/a	1	n/a	n/a	n/a	n/a	n/a
2451.204	n/a	REC_WORD	1225602	wordpools/wasnorm_wordpool_less_exclusions.txt	LTP206	ltpFR	4	13	0	SHRIMP	1297	n/a	0	n/a	n/a	n/a	n/a	n/a
2459.978	n/a	REC_WORD	1229989	wordpools/wasnorm_wordpool_less_exclusions.txt	LTP206	ltpFR	4	13	1	PIZZA	1079	n/a	1	n/a	n/a	n/a	n/a	n/a
2462.358	n/a	REC_WORD	1231179	wordpools/wasnorm_wordpool_less_exclusions.txt	LTP206	ltpFR	4	13	0	PASTA	1021	n/a	0	n/a	n/a	n/a	n/a	n/a
2488.07	n/a	REC_WORD_VV	1244035	wordpools/wasnorm_wordpool_less_exclusions.txt	LTP206	ltpFR	4	13	n/a	<>	-1	n/a	n/a	n/a	n/a	n/a	n/a	n/a
2514.074	n/a	WORD	1257037	wordpools/wasnorm_wordpool_less_exclusions.txt	LTP206	ltpFR	4	14	0	BRACELET	163	n/a	0	1	0.412841796875	0.57763671875	upper	../fonts/amplitud.ttf
2518.096	n/a	WORD	1259048	wordpools/wasnorm_wordpool_less_exclusions.txt	LTP206	ltpFR	4	14	0	BISON	131	n/a	1	1	0.412841796875	0.57763671875	upper	../fonts/amplitud.ttf
2522.18	n/a	WORD	1261090	wordpools/wasnorm_wordpool_less_exclusions.txt	LTP206	ltpFR	4	14	0	SHORTCAKE	1292	n/a	0	1	0.412841796875	0.57763671875	upper	../fonts/amplitud.ttf
2526.294	n/a	WORD	1263147	wordpools/wasnorm_wordpool_less_exclusions.txt	LTP206	ltpFR	4	14	0	SALIVA	1226	n/a	0	1	0.412841796875	0.57763671875	upper	../fonts/amplitud.ttf
2530.204	n/a	WORD	1265102	wordpools/wasnorm_wordpool_less_exclusions.txt	LTP206	ltpFR	4	14	0	QUILT	1151	n/a	0	1	0.412841796875	0.57763671875	upper	../fonts/amplitud.ttf
2534.208	n/a	WORD	1267104	wordpools/wasnorm_wordpool_less_exclusions.txt	LTP206	ltpFR	4	14	0	HAMMOCK	681	n/a	1	1	0.412841796875	0.57763671875	upper	../fonts/amplitud.ttf
2538.184	n/a	WORD	1269092	wordpools/wasnorm_wordpool_less_exclusions.txt	LTP206	ltpFR	4	14	0	HALL	677	n/a	1	1	0.412841796875	0.57763671875	upper	../fonts/amplitud.ttf
2542.266	n/a	WORD	1271133	wordpools/wasnorm_wordpool_less_exclusions.txt	LTP206	ltpFR	4	14	0	CLOSET	326	n/a	0	1	0.412841796875	0.57763671875	upper	../fonts/amplitud.ttf
2546.466	n/a	WORD	1273233	wordpools/wasnorm_wordpool_less_exclusions.txt	LTP206	ltpFR	4	14	0	LOLLIPOP	842	n/a	0	1	0.412841796875	0.57763671875	upper	../fonts/amplitud.ttf
2550.364	n/a	WORD	1275182	wordpools/wasnorm_wordpool_less_exclusions.txt	LTP206	ltpFR	4	14	0	RAISIN	1163	n/a	0	1	0.412841796875	0.57763671875	upper	../fonts/amplitud.ttf
2554.368	n/a	WORD	1277184	wordpools/wasnorm_wordpool_less_exclusions.txt	LTP206	ltpFR	4	14	0	GOLD	647	n/a	0	1	0.412841796875	0.57763671875	upper	../fonts/amplitud.ttf
2558.5	n/a	WORD	1279250	wordpools/wasnorm_wordpool_less_exclusions.txt	LTP206	ltpFR	4	14	0	FENCE	560	n/a	1	1	0.412841796875	0.57763671875	upper	../fonts/amplitud.ttf
2562.694	n/a	WORD	1281347	wordpools/wasnorm_wordpool_less_exclusions.txt	LTP206	ltpFR	4	14	0	RADIATOR	1156	n/a	1	1	0.412841796875	0.57763671875	upper	../fonts/amplitud.ttf
2566.748	n/a	WORD	1283374	wordpools/wasnorm_wordpool_less_exclusions.txt	LTP206	ltpFR	4	14	0	GARAGE	621	n/a	1	1	0.412841796875	0.57763671875	upper	../fonts/amplitud.ttf
2570.748	n/a	WORD	1285374	wordpools/wasnorm_wordpool_less_exclusions.txt	LTP206	ltpFR	4	14	0	EDITORIAL	517	n/a	0	1	0.412841796875	0.57763671875	upper	../fonts/amplitud.ttf
2574.906	n/a	WORD	1287453	wordpools/wasnorm_wordpool_less_exclusions.txt	LTP206	ltpFR	4	14	0	CERAMICS	271	n/a	0	1	0.412841796875	0.57763671875	upper	../fonts/amplitud.ttf
2580.646	n/a	REC_START	1290323	n/a	LTP206	ltpFR	4	14	n/a	n/a	n/a	n/a	n/a	n/a	n/a	n/a	n/a	n/a
2582.726	n/a	REC_WORD	1291363	wordpools/wasnorm_wordpool_less_exclusions.txt	LTP206	ltpFR	4	14	0	CERAMICS	271	n/a	0	n/a	n/a	n/a	n/a	n/a
2585.476	n/a	REC_WORD	1292738	wordpools/wasnorm_wordpool_less_exclusions.txt	LTP206	ltpFR	4	14	0	EDITORIAL	517	n/a	0	n/a	n/a	n/a	n/a	n/a
2587.66	n/a	REC_WORD	1293830	wordpools/wasnorm_wordpool_less_exclusions.txt	LTP206	ltpFR	4	14	0	RADIATOR	1156	n/a	1	n/a	n/a	n/a	n/a	n/a
2595.792	n/a	REC_WORD	1297896	wordpools/wasnorm_wordpool_less_exclusions.txt	LTP206	ltpFR	4	14	0	CLOSET	326	n/a	0	n/a	n/a	n/a	n/a	n/a
2613.358	n/a	REC_WORD	1306679	wordpools/wasnorm_wordpool_less_exclusions.txt	LTP206	ltpFR	4	14	n/a	SNAIL	1332	n/a	n/a	n/a	n/a	n/a	n/a	n/a
2627.676	n/a	REC_WORD	1313838	wordpools/wasnorm_wordpool_less_exclusions.txt	LTP206	ltpFR	4	14	0	RAISIN	1163	n/a	0	n/a	n/a	n/a	n/a	n/a
2640.304	n/a	REC_WORD	1320152	wordpools/wasnorm_wordpool_less_exclusions.txt	LTP206	ltpFR	4	14	1	KITCHEN	778	n/a	0	n/a	n/a	n/a	n/a	n/a
2664.472	n/a	WORD	1332236	wordpools/wasnorm_wordpool_less_exclusions.txt	LTP206	ltpFR	4	15	1	FATHER	554	n/a	3	0	0.5869140625	0.422607421875	lower	../fonts/zerothre.ttf
2665.51	n/a	KEY_MSG	1332755	n/a	LTP206	ltpFR	4	15	n/a	n/a	n/a	n/a	n/a	n/a	n/a	n/a	n/a	n/a
2668.588	n/a	WORD	1334294	wordpools/wasnorm_wordpool_less_exclusions.txt	LTP206	ltpFR	4	15	1	DAUGHTER	442	n/a	1	0	0.5869140625	0.422607421875	lower	../fonts/zerothre.ttf
2672.586	n/a	WORD	1336293	wordpools/wasnorm_wordpool_less_exclusions.txt	LTP206	ltpFR	4	15	0	FUDGE	611	n/a	0	1	0.412841796875	0.57763671875	upper	../fonts/amplitud.ttf
2676.484	n/a	WORD	1338242	wordpools/wasnorm_wordpool_less_exclusions.txt	LTP206	ltpFR	4	15	0	SPIT	1354	n/a	0	1	0.412841796875	0.57763671875	upper	../fonts/amplitud.ttf
2680.41	n/a	WORD	1340205	wordpools/wasnorm_wordpool_less_exclusions.txt	LTP206	ltpFR	4	15	0	WATERFALL	1595	n/a	1	1	0.412841796875	0.57763671875	upper	../fonts/amplitud.ttf
2684.482	n/a	WORD	1342241	wordpools/wasnorm_wordpool_less_exclusions.txt	LTP206	ltpFR	4	15	0	TENT	1449	n/a	1	1	0.412841796875	0.57763671875	upper	../fonts/amplitud.ttf
2688.48	n/a	WORD	1344240	wordpools/wasnorm_wordpool_less_exclusions.txt	LTP206	ltpFR	4	15	0	HOUSE	725	n/a	1	1	0.412841796875	0.57763671875	upper	../fonts/amplitud.ttf
2692.564	n/a	WORD	1346282	wordpools/wasnorm_wordpool_less_exclusions.txt	LTP206	ltpFR	4	15	0	DAM	436	n/a	1	1	0.412841796875	0.57763671875	upper	../fonts/amplitud.ttf
2696.578	n/a	WORD	1348289	wordpools/wasnorm_wordpool_less_exclusions.txt	LTP206	ltpFR	4	15	1	PIE	1062	n/a	1	0	0.5869140625	0.422607421875	lower	../fonts/zerothre.ttf
2700.672	n/a	WORD	1350336	wordpools/wasnorm_wordpool_less_exclusions.txt	LTP206	ltpFR	4	15	1	MONK	910	n/a	1	0	0.5869140625	0.422607421875	lower	../fonts/zerothre.ttf
2704.81	n/a	WORD	1352405	wordpools/wasnorm_wordpool_less_exclusions.txt	LTP206	ltpFR	4	15	1	SCOTCH	1251	n/a	0	0	0.5869140625	0.422607421875	lower	../fonts/zerothre.ttf
2708.852	n/a	WORD	1354426	wordpools/wasnorm_wordpool_less_exclusions.txt	LTP206	ltpFR	4	15	0	STREAM	1392	n/a	1	1	0.412841796875	0.57763671875	upper	../fonts/amplitud.ttf
2713.018	n/a	WORD	1356509	wordpools/wasnorm_wordpool_less_exclusions.txt	LTP206	ltpFR	4	15	0	POPCORN	1104	n/a	0	1	0.412841796875	0.57763671875	upper	../fonts/amplitud.ttf
2717.174	n/a	WORD	1358587	wordpools/wasnorm_wordpool_less_exclusions.txt	LTP206	ltpFR	4	15	1	WINE	1613	n/a	1	0	0.5869140625	0.422607421875	lower	../fonts/zerothre.ttf
2721.138	n/a	WORD	1360569	wordpools/wasnorm_wordpool_less_exclusions.txt	LTP206	ltpFR	4	15	1	POLICE	1098	n/a	1	0	0.5869140625	0.422607421875	lower	../fonts/zerothre.ttf
2725.188	n/a	WORD	1362594	wordpools/wasnorm_wordpool_less_exclusions.txt	LTP206	ltpFR	4	15	1	LENS	811	n/a	0	0	0.5869140625	0.422607421875	lower	../fonts/zerothre.ttf
2731.206	n/a	REC_START	1365603	n/a	LTP206	ltpFR	4	15	n/a	n/a	n/a	n/a	n/a	n/a	n/a	n/a	n/a	n/a
2733.136	n/a	REC_WORD	1366568	wordpools/wasnorm_wordpool_less_exclusions.txt	LTP206	ltpFR	4	15	1	LENS	811	n/a	0	n/a	n/a	n/a	n/a	n/a
2734.834	n/a	REC_WORD	1367417	wordpools/wasnorm_wordpool_less_exclusions.txt	LTP206	ltpFR	4	15	1	POLICE	1098	n/a	1	n/a	n/a	n/a	n/a	n/a
2736.738	n/a	REC_WORD	1368369	wordpools/wasnorm_wordpool_less_exclusions.txt	LTP206	ltpFR	4	15	1	SCOTCH	1251	n/a	0	n/a	n/a	n/a	n/a	n/a
2738.828	n/a	REC_WORD	1369414	wordpools/wasnorm_wordpool_less_exclusions.txt	LTP206	ltpFR	4	15	1	WINE	1613	n/a	1	n/a	n/a	n/a	n/a	n/a
2767.016	n/a	REC_WORD	1383508	wordpools/wasnorm_wordpool_less_exclusions.txt	LTP206	ltpFR	4	15	0	WATERFALL	1595	n/a	1	n/a	n/a	n/a	n/a	n/a
2790.396	n/a	REC_WORD	1395198	wordpools/wasnorm_wordpool_less_exclusions.txt	LTP206	ltpFR	4	15	1	FATHER	554	n/a	3	n/a	n/a	n/a	n/a	n/a
2814.59	n/a	WORD	1407295	wordpools/wasnorm_wordpool_less_exclusions.txt	LTP206	ltpFR	4	16	-1	SIDING	1304	n/a	-1	1	1.0	1.0	upper	../fonts/Verdana.ttf
2818.722	n/a	WORD	1409361	wordpools/wasnorm_wordpool_less_exclusions.txt	LTP206	ltpFR	4	16	-1	PAN	1008	n/a	-1	1	1.0	1.0	upper	../fonts/Verdana.ttf
2822.642	n/a	WORD	1411321	wordpools/wasnorm_wordpool_less_exclusions.txt	LTP206	ltpFR	4	16	-1	SECRETARY	1265	n/a	-1	1	1.0	1.0	upper	../fonts/Verdana.ttf
2826.742	n/a	WORD	1413371	wordpools/wasnorm_wordpool_less_exclusions.txt	LTP206	ltpFR	4	16	-1	FREEZER	604	n/a	-1	1	1.0	1.0	upper	../fonts/Verdana.ttf
2830.958	n/a	WORD	1415479	wordpools/wasnorm_wordpool_less_exclusions.txt	LTP206	ltpFR	4	16	-1	SWEATER	1419	n/a	-1	1	1.0	1.0	upper	../fonts/Verdana.ttf
2835.084	n/a	WORD	1417542	wordpools/wasnorm_wordpool_less_exclusions.txt	LTP206	ltpFR	4	16	-1	MAJOR	859	n/a	-1	1	1.0	1.0	upper	../fonts/Verdana.ttf
2839.106	n/a	WORD	1419553	wordpools/wasnorm_wordpool_less_exclusions.txt	LTP206	ltpFR	4	16	-1	BULLY	196	n/a	-1	1	1.0	1.0	upper	../fonts/Verdana.ttf
2842.986	n/a	WORD	1421493	wordpools/wasnorm_wordpool_less_exclusions.txt	LTP206	ltpFR	4	16	-1	SLACKS	1323	n/a	-1	1	1.0	1.0	upper	../fonts/Verdana.ttf
2846.98	n/a	WORD	1423490	wordpools/wasnorm_wordpool_less_exclusions.txt	LTP206	ltpFR	4	16	-1	PANTS	1010	n/a	-1	1	1.0	1.0	upper	../fonts/Verdana.ttf
2851.204	n/a	WORD	1425602	wordpools/wasnorm_wordpool_less_exclusions.txt	LTP206	ltpFR	4	16	-1	CANYON	235	n/a	-1	1	1.0	1.0	upper	../fonts/Verdana.ttf
2855.078	n/a	WORD	1427539	wordpools/wasnorm_wordpool_less_exclusions.txt	LTP206	ltpFR	4	16	-1	DOUGHNUT	490	n/a	-1	1	1.0	1.0	upper	../fonts/Verdana.ttf
2858.998	n/a	WORD	1429499	wordpools/wasnorm_wordpool_less_exclusions.txt	LTP206	ltpFR	4	16	-1	FOLDER	588	n/a	-1	1	1.0	1.0	upper	../fonts/Verdana.ttf
2862.98	n/a	WORD	1431490	wordpools/wasnorm_wordpool_less_exclusions.txt	LTP206	ltpFR	4	16	-1	ANIMAL	23	n/a	-1	1	1.0	1.0	upper	../fonts/Verdana.ttf
2866.806	n/a	WORD	1433403	wordpools/wasnorm_wordpool_less_exclusions.txt	LTP206	ltpFR	4	16	-1	COOK	372	n/a	-1	1	1.0	1.0	upper	../fonts/Verdana.ttf
2870.77	n/a	WORD	1435385	wordpools/wasnorm_wordpool_less_exclusions.txt	LTP206	ltpFR	4	16	-1	SCULPTURE	1258	n/a	-1	1	1.0	1.0	upper	../fonts/Verdana.ttf
2874.726	n/a	WORD	1437363	wordpools/wasnorm_wordpool_less_exclusions.txt	LTP206	ltpFR	4	16	-1	PANTHER	1009	n/a	-1	1	1.0	1.0	upper	../fonts/Verdana.ttf
2880.592	n/a	REC_START	1440296	n/a	LTP206	ltpFR	4	16	n/a	n/a	n/a	n/a	n/a	n/a	n/a	n/a	n/a	n/a
2884.582	n/a	REC_WORD	1442291	wordpools/wasnorm_wordpool_less_exclusions.txt	LTP206	ltpFR	4	16	-1	SCULPTURE	1258	n/a	-1	n/a	n/a	n/a	n/a	n/a
2885.832	n/a	REC_WORD	1442916	wordpools/wasnorm_wordpool_less_exclusions.txt	LTP206	ltpFR	4	16	-1	PANTHER	1009	n/a	-1	n/a	n/a	n/a	n/a	n/a
2887.208	n/a	REC_WORD	1443604	wordpools/wasnorm_wordpool_less_exclusions.txt	LTP206	ltpFR	4	16	-1	COOK	372	n/a	-1	n/a	n/a	n/a	n/a	n/a
2888.78	n/a	REC_WORD	1444390	wordpools/wasnorm_wordpool_less_exclusions.txt	LTP206	ltpFR	4	16	-1	SIDING	1304	n/a	-1	n/a	n/a	n/a	n/a	n/a
2899.72	n/a	REC_WORD	1449860	wordpools/wasnorm_wordpool_less_exclusions.txt	LTP206	ltpFR	4	16	-1	FREEZER	604	n/a	-1	n/a	n/a	n/a	n/a	n/a
2992.492	n/a	REC_START	1496246	n/a	LTP206	ltpFR	4	n/a	n/a	n/a	n/a	n/a	n/a	n/a	n/a	n/a	n/a	n/a
2993.34	n/a	FFR_REC_WORD	1496670	wordpools/wasnorm_wordpool_less_exclusions.txt	LTP206	ltpFR	4	n/a	-1	WOMAN	1620	n/a	-1	n/a	n/a	n/a	n/a	n/a
2995.336	n/a	FFR_REC_WORD	1497668	wordpools/wasnorm_wordpool_less_exclusions.txt	LTP206	ltpFR	4	n/a	-1	PANTHER	1009	n/a	-1	n/a	n/a	n/a	n/a	n/a
2997.118	n/a	FFR_REC_WORD	1498559	wordpools/wasnorm_wordpool_less_exclusions.txt	LTP206	ltpFR	4	n/a	-1	SIDING	1304	n/a	-1	n/a	n/a	n/a	n/a	n/a
3000.266	n/a	FFR_REC_WORD	1500133	wordpools/wasnorm_wordpool_less_exclusions.txt	LTP206	ltpFR	4	n/a	-1	CANYON	235	n/a	-1	n/a	n/a	n/a	n/a	n/a
3007.116	n/a	FFR_REC_WORD	1503558	wordpools/wasnorm_wordpool_less_exclusions.txt	LTP206	ltpFR	4	n/a	-1	COOK	372	n/a	-1	n/a	n/a	n/a	n/a	n/a
3019.194	n/a	FFR_REC_WORD	1509597	wordpools/wasnorm_wordpool_less_exclusions.txt	LTP206	ltpFR	4	n/a	-1	BIRD	129	n/a	-1	n/a	n/a	n/a	n/a	n/a
3021.752	n/a	FFR_REC_WORD	1510876	wordpools/wasnorm_wordpool_less_exclusions.txt	LTP206	ltpFR	4	n/a	-1	QUAIL	1147	n/a	-1	n/a	n/a	n/a	n/a	n/a
3031.824	n/a	FFR_REC_WORD	1515912	wordpools/wasnorm_wordpool_less_exclusions.txt	LTP206	ltpFR	4	n/a	0	RACCOON	1153	n/a	0	n/a	n/a	n/a	n/a	n/a
3034.968	n/a	FFR_REC_WORD	1517484	wordpools/wasnorm_wordpool_less_exclusions.txt	LTP206	ltpFR	4	n/a	-1	CRAB	397	n/a	-1	n/a	n/a	n/a	n/a	n/a
3036.98	n/a	FFR_REC_WORD	1518490	wordpools/wasnorm_wordpool_less_exclusions.txt	LTP206	ltpFR	4	n/a	-1	CLAM	315	n/a	-1	n/a	n/a	n/a	n/a	n/a
3040.998	n/a	FFR_REC_WORD	1520499	wordpools/wasnorm_wordpool_less_exclusions.txt	LTP206	ltpFR	4	n/a	0	FEAST	556	n/a	1	n/a	n/a	n/a	n/a	n/a
3047.262	n/a	FFR_REC_WORD	1523631	wordpools/wasnorm_wordpool_less_exclusions.txt	LTP206	ltpFR	4	n/a	0	FEMALE	559	n/a	1	n/a	n/a	n/a	n/a	n/a
3054.64	n/a	FFR_REC_WORD	1527320	wordpools/wasnorm_wordpool_less_exclusions.txt	LTP206	ltpFR	4	n/a	-1	SECRETARY	1265	n/a	-1	n/a	n/a	n/a	n/a	n/a
3056.752	n/a	FFR_REC_WORD	1528376	wordpools/wasnorm_wordpool_less_exclusions.txt	LTP206	ltpFR	4	n/a	0	MECHANIC	884	n/a	1	n/a	n/a	n/a	n/a	n/a
3061.336	n/a	FFR_REC_WORD	1530668	wordpools/wasnorm_wordpool_less_exclusions.txt	LTP206	ltpFR	4	n/a	0	EDITORIAL	517	n/a	0	n/a	n/a	n/a	n/a	n/a
3080.178	n/a	FFR_REC_WORD	1540089	wordpools/wasnorm_wordpool_less_exclusions.txt	LTP206	ltpFR	4	n/a	0	WATERFALL	1595	n/a	1	n/a	n/a	n/a	n/a	n/a
3083.346	n/a	FFR_REC_WORD	1541673	wordpools/wasnorm_wordpool_less_exclusions.txt	LTP206	ltpFR	4	n/a	0	GEM	629	n/a	0	n/a	n/a	n/a	n/a	n/a
3085.54	n/a	FFR_REC_WORD	1542770	wordpools/wasnorm_wordpool_less_exclusions.txt	LTP206	ltpFR	4	n/a	1	RUBY	1214	n/a	0	n/a	n/a	n/a	n/a	n/a
3087.018	n/a	FFR_REC_WORD	1543509	wordpools/wasnorm_wordpool_less_exclusions.txt	LTP206	ltpFR	4	n/a	0	DIAMOND	458	n/a	0	n/a	n/a	n/a	n/a	n/a
3089.446	n/a	FFR_REC_WORD	1544723	wordpools/wasnorm_wordpool_less_exclusions.txt	LTP206	ltpFR	4	n/a	0	PEARL	1034	n/a	0	n/a	n/a	n/a	n/a	n/a
3101.536	n/a	FFR_REC_WORD	1550768	wordpools/wasnorm_wordpool_less_exclusions.txt	LTP206	ltpFR	4	n/a	0	HUMAN	726	n/a	0	n/a	n/a	n/a	n/a	n/a
3111.68	n/a	FFR_REC_WORD	1555840	wordpools/wasnorm_wordpool_less_exclusions.txt	LTP206	ltpFR	4	n/a	-1	PLUM	1090	n/a	-1	n/a	n/a	n/a	n/a	n/a
3113.44	n/a	FFR_REC_WORD	1556720	wordpools/wasnorm_wordpool_less_exclusions.txt	LTP206	ltpFR	4	n/a	-1	GRAPE	654	n/a	-1	n/a	n/a	n/a	n/a	n/a
3120.184	n/a	FFR_REC_WORD	1560092	wordpools/wasnorm_wordpool_less_exclusions.txt	LTP206	ltpFR	4	n/a	0	SHORTCAKE	1292	n/a	0	n/a	n/a	n/a	n/a	n/a
3142.764	n/a	FFR_REC_WORD	1571382	wordpools/wasnorm_wordpool_less_exclusions.txt	LTP206	ltpFR	4	n/a	0	OCEAN	970	n/a	1	n/a	n/a	n/a	n/a	n/a
3148.088	n/a	FFR_REC_WORD	1574044	wordpools/wasnorm_wordpool_less_exclusions.txt	LTP206	ltpFR	4	n/a	0	CREEK	404	n/a	1	n/a	n/a	n/a	n/a	n/a
3149.99	n/a	FFR_REC_WORD	1574995	wordpools/wasnorm_wordpool_less_exclusions.txt	LTP206	ltpFR	4	n/a	-1	RIVER	1194	n/a	-1	n/a	n/a	n/a	n/a	n/a
3151.69	n/a	FFR_REC_WORD	1575845	wordpools/wasnorm_wordpool_less_exclusions.txt	LTP206	ltpFR	4	n/a	0	DAM	436	n/a	1	n/a	n/a	n/a	n/a	n/a
3173.78	n/a	FFR_REC_WORD	1586890	wordpools/wasnorm_wordpool_less_exclusions.txt	LTP206	ltpFR	4	n/a	1	RELATIVE	1182	n/a	1	n/a	n/a	n/a	n/a	n/a
3185.04	n/a	FFR_REC_WORD	1592520	wordpools/wasnorm_wordpool_less_exclusions.txt	LTP206	ltpFR	4	n/a	n/a	TEACHER	1440	n/a	n/a	n/a	n/a	n/a	n/a	n/a
3195.202	n/a	FFR_REC_WORD	1597601	wordpools/wasnorm_wordpool_less_exclusions.txt	LTP206	ltpFR	4	n/a	1	TOENAIL	1474	n/a	1	n/a	n/a	n/a	n/a	n/a
3207.032	n/a	FFR_REC_WORD	1603516	wordpools/wasnorm_wordpool_less_exclusions.txt	LTP206	ltpFR	4	n/a	1	APE	31	n/a	1	n/a	n/a	n/a	n/a	n/a
3217.444	n/a	FFR_REC_WORD	1608722	wordpools/wasnorm_wordpool_less_exclusions.txt	LTP206	ltpFR	4	n/a	1	CHART	282	n/a	0	n/a	n/a	n/a	n/a	n/a
3262.014	n/a	FFR_REC_WORD	1631007	wordpools/wasnorm_wordpool_less_exclusions.txt	LTP206	ltpFR	4	n/a	1	THUMB	1462	n/a	1	n/a	n/a	n/a	n/a	n/a
3267.916	n/a	FFR_REC_WORD	1633958	wordpools/wasnorm_wordpool_less_exclusions.txt	LTP206	ltpFR	4	n/a	0	COIN	343	n/a	0	n/a	n/a	n/a	n/a	n/a
3276.522	n/a	FFR_REC_WORD	1638261	wordpools/wasnorm_wordpool_less_exclusions.txt	LTP206	ltpFR	4	n/a	0	BILL	126	n/a	0	n/a	n/a	n/a	n/a	n/a
3287.294	n/a	FFR_REC_WORD	1643647	wordpools/wasnorm_wordpool_less_exclusions.txt	LTP206	ltpFR	4	n/a	1	DRAGON	492	n/a	1	n/a	n/a	n/a	n/a	n/a
3344.99	n/a	REC_START	1672495	n/a	LTP206	ltpFR	4	1	n/a	n/a	n/a	n/a	n/a	n/a	n/a	n/a	n/a	n/a
3345.04	n/a	RECOG_TARGET	1672520	n/a	LTP206	ltpFR	4	1	1	MARINE	869	3	1	n/a	n/a	n/a	n/a	n/a
3348.276	n/a	RECOG_RESP	1674138	n/a	LTP206	ltpFR	4	1	1	MARINE	869	n/a	1	n/a	n/a	n/a	n/a	n/a
3350.272	n/a	RECOG_CONF	1675136	n/a	LTP206	ltpFR	4	1	1	MARINE	869	3	1	n/a	n/a	n/a	n/a	n/a
3352.846	n/a	RECOG_LURE	1676423	n/a	LTP206	ltpFR	4	1	n/a	SCREEN	1253	4	n/a	n/a	n/a	n/a	n/a	n/a
3353.978	n/a	RECOG_RESP	1676989	n/a	LTP206	ltpFR	4	1	n/a	SCREEN	1253	n/a	n/a	n/a	n/a	n/a	n/a	n/a
3355.64	n/a	RECOG_CONF	1677820	n/a	LTP206	ltpFR	4	1	n/a	SCREEN	1253	4	n/a	n/a	n/a	n/a	n/a	n/a
3357.336	n/a	RECOG_TARGET	1678668	n/a	LTP206	ltpFR	4	1	-1	GRAPE	654	5	-1	n/a	n/a	n/a	n/a	n/a
3358.306	n/a	RECOG_RESP	1679153	n/a	LTP206	ltpFR	4	1	-1	GRAPE	654	n/a	-1	n/a	n/a	n/a	n/a	n/a
3359.942	n/a	RECOG_CONF	1679971	n/a	LTP206	ltpFR	4	1	-1	GRAPE	654	5	-1	n/a	n/a	n/a	n/a	n/a
3361.602	n/a	RECOG_TARGET	1680801	n/a	LTP206	ltpFR	4	1	0	BOY	161	5	1	n/a	n/a	n/a	n/a	n/a
3362.814	n/a	RECOG_RESP	1681407	n/a	LTP206	ltpFR	4	1	0	BOY	161	n/a	1	n/a	n/a	n/a	n/a	n/a
3364.132	n/a	RECOG_CONF	1682066	n/a	LTP206	ltpFR	4	1	0	BOY	161	5	1	n/a	n/a	n/a	n/a	n/a
3366.152	n/a	RECOG_TARGET	1683076	n/a	LTP206	ltpFR	4	1	1	TEAPOT	1442	4	0	n/a	n/a	n/a	n/a	n/a
3367.664	n/a	RECOG_RESP	1683832	n/a	LTP206	ltpFR	4	1	1	TEAPOT	1442	n/a	0	n/a	n/a	n/a	n/a	n/a
3369.33	n/a	RECOG_CONF	1684665	n/a	LTP206	ltpFR	4	1	1	TEAPOT	1442	4	0	n/a	n/a	n/a	n/a	n/a
3371.022	n/a	RECOG_LURE	1685511	n/a	LTP206	ltpFR	4	1	n/a	BOUQUET	157	4	n/a	n/a	n/a	n/a	n/a	n/a
3372.348	n/a	RECOG_RESP	1686174	n/a	LTP206	ltpFR	4	1	n/a	BOUQUET	157	n/a	n/a	n/a	n/a	n/a	n/a	n/a
3373.92	n/a	RECOG_CONF	1686960	n/a	LTP206	ltpFR	4	1	n/a	BOUQUET	157	4	n/a	n/a	n/a	n/a	n/a	n/a
3375.656	n/a	RECOG_LURE	1687828	n/a	LTP206	ltpFR	4	1	n/a	HORNET	718	3	n/a	n/a	n/a	n/a	n/a	n/a
3377.184	n/a	RECOG_RESP	1688592	n/a	LTP206	ltpFR	4	1	n/a	HORNET	718	n/a	n/a	n/a	n/a	n/a	n/a	n/a
3379.098	n/a	RECOG_CONF	1689549	n/a	LTP206	ltpFR	4	1	n/a	HORNET	718	3	n/a	n/a	n/a	n/a	n/a	n/a
3380.736	n/a	RECOG_TARGET	1690368	n/a	LTP206	ltpFR	4	1	0	BINDER	127	4	0	n/a	n/a	n/a	n/a	n/a
3381.892	n/a	RECOG_RESP	1690946	n/a	LTP206	ltpFR	4	1	0	BINDER	127	n/a	0	n/a	n/a	n/a	n/a	n/a
3383.578	n/a	RECOG_CONF	1691789	n/a	LTP206	ltpFR	4	1	0	BINDER	127	4	0	n/a	n/a	n/a	n/a	n/a
3385.158	n/a	RECOG_TARGET	1692579	n/a	LTP206	ltpFR	4	1	1	PREACHER	1119	4	1	n/a	n/a	n/a	n/a	n/a
3386.616	n/a	RECOG_RESP	1693308	n/a	LTP206	ltpFR	4	1	1	PREACHER	1119	n/a	1	n/a	n/a	n/a	n/a	n/a
3388.078	n/a	RECOG_CONF	1694039	n/a	LTP206	ltpFR	4	1	1	PREACHER	1119	4	1	n/a	n/a	n/a	n/a	n/a
3389.81	n/a	RECOG_LURE	1694905	n/a	LTP206	ltpFR	4	1	n/a	LUNCH	849	5	n/a	n/a	n/a	n/a	n/a	n/a
3390.702	n/a	RECOG_RESP	1695351	n/a	LTP206	ltpFR	4	1	n/a	LUNCH	849	n/a	n/a	n/a	n/a	n/a	n/a	n/a
3392.228	n/a	RECOG_CONF	1696114	n/a	LTP206	ltpFR	4	1	n/a	LUNCH	849	5	n/a	n/a	n/a	n/a	n/a	n/a
3394.026	n/a	RECOG_TARGET	1697013	n/a	LTP206	ltpFR	4	1	1	COD	340	4	1	n/a	n/a	n/a	n/a	n/a
3395.154	n/a	RECOG_RESP	1697577	n/a	LTP206	ltpFR	4	1	1	COD	340	n/a	1	n/a	n/a	n/a	n/a	n/a
3396.77	n/a	RECOG_CONF	1698385	n/a	LTP206	ltpFR	4	1	1	COD	340	4	1	n/a	n/a	n/a	n/a	n/a
3398.388	n/a	RECOG_TARGET	1699194	n/a	LTP206	ltpFR	4	1	-1	STAFF	1365	4	-1	n/a	n/a	n/a	n/a	n/a
3399.324	n/a	RECOG_RESP	1699662	n/a	LTP206	ltpFR	4	1	-1	STAFF	1365	n/a	-1	n/a	n/a	n/a	n/a	n/a
3400.8	n/a	RECOG_CONF	1700400	n/a	LTP206	ltpFR	4	1	-1	STAFF	1365	4	-1	n/a	n/a	n/a	n/a	n/a
3402.526	n/a	RECOG_LURE	1701263	n/a	LTP206	ltpFR	4	1	n/a	CAT	257	5	n/a	n/a	n/a	n/a	n/a	n/a
3403.638	n/a	RECOG_RESP	1701819	n/a	LTP206	ltpFR	4	1	n/a	CAT	257	n/a	n/a	n/a	n/a	n/a	n/a	n/a
3404.98	n/a	RECOG_CONF	1702490	n/a	LTP206	ltpFR	4	1	n/a	CAT	257	5	n/a	n/a	n/a	n/a	n/a	n/a
3406.892	n/a	RECOG_LURE	1703446	n/a	LTP206	ltpFR	4	1	n/a	CRADLE	399	3	n/a	n/a	n/a	n/a	n/a	n/a
3408.244	n/a	RECOG_RESP	1704122	n/a	LTP206	ltpFR	4	1	n/a	CRADLE	399	n/a	n/a	n/a	n/a	n/a	n/a	n/a
3409.69	n/a	RECOG_CONF	1704845	n/a	LTP206	ltpFR	4	1	n/a	CRADLE	399	3	n/a	n/a	n/a	n/a	n/a	n/a
3411.504	n/a	RECOG_LURE	1705752	n/a	LTP206	ltpFR	4	1	n/a	SCOUT	1252	3	n/a	n/a	n/a	n/a	n/a	n/a
3413.558	n/a	RECOG_RESP	1706779	n/a	LTP206	ltpFR	4	1	n/a	SCOUT	1252	n/a	n/a	n/a	n/a	n/a	n/a	n/a
3415.158	n/a	RECOG_CONF	1707579	n/a	LTP206	ltpFR	4	1	n/a	SCOUT	1252	3	n/a	n/a	n/a	n/a	n/a	n/a
3416.824	n/a	RECOG_LURE	1708412	n/a	LTP206	ltpFR	4	1	n/a	BUN	197	4	n/a	n/a	n/a	n/a	n/a	n/a
3417.802	n/a	RECOG_RESP	1708901	n/a	LTP206	ltpFR	4	1	n/a	BUN	197	n/a	n/a	n/a	n/a	n/a	n/a	n/a
3419.678	n/a	RECOG_CONF	1709839	n/a	LTP206	ltpFR	4	1	n/a	BUN	197	4	n/a	n/a	n/a	n/a	n/a	n/a
3421.258	n/a	RECOG_LURE	1710629	n/a	LTP206	ltpFR	4	1	n/a	GARBAGE	622	4	n/a	n/a	n/a	n/a	n/a	n/a
3422.932	n/a	RECOG_RESP	1711466	n/a	LTP206	ltpFR	4	1	n/a	GARBAGE	622	n/a	n/a	n/a	n/a	n/a	n/a	n/a
3424.428	n/a	RECOG_CONF	1712214	n/a	LTP206	ltpFR	4	1	n/a	GARBAGE	622	4	n/a	n/a	n/a	n/a	n/a	n/a
3426.148	n/a	RECOG_TARGET	1713074	n/a	LTP206	ltpFR	4	1	-1	CAB	209	5	-1	n/a	n/a	n/a	n/a	n/a
3427.056	n/a	RECOG_RESP	1713528	n/a	LTP206	ltpFR	4	1	-1	CAB	209	n/a	-1	n/a	n/a	n/a	n/a	n/a
3428.358	n/a	RECOG_CONF	1714179	n/a	LTP206	ltpFR	4	1	-1	CAB	209	5	-1	n/a	n/a	n/a	n/a	n/a
3430.216	n/a	RECOG_TARGET	1715108	n/a	LTP206	ltpFR	4	1	0	HUMAN	726	5	0	n/a	n/a	n/a	n/a	n/a
3431.128	n/a	RECOG_RESP	1715564	n/a	LTP206	ltpFR	4	1	0	HUMAN	726	n/a	0	n/a	n/a	n/a	n/a	n/a
3432.33	n/a	RECOG_CONF	1716165	n/a	LTP206	ltpFR	4	1	0	HUMAN	726	5	0	n/a	n/a	n/a	n/a	n/a
3434.232	n/a	RECOG_TARGET	1717116	n/a	LTP206	ltpFR	4	1	-1	WITNESS	1618	3	-1	n/a	n/a	n/a	n/a	n/a
3435.328	n/a	RECOG_RESP	1717664	n/a	LTP206	ltpFR	4	1	-1	WITNESS	1618	n/a	-1	n/a	n/a	n/a	n/a	n/a
3437.19	n/a	RECOG_CONF	1718595	n/a	LTP206	ltpFR	4	1	-1	WITNESS	1618	3	-1	n/a	n/a	n/a	n/a	n/a
3447.314	n/a	REC_START	1723657	n/a	LTP206	ltpFR	4	2	n/a	n/a	n/a	n/a	n/a	n/a	n/a	n/a	n/a	n/a
3447.364	n/a	RECOG_LURE	1723682	n/a	LTP206	ltpFR	4	2	n/a	ROCKET	1202	3	n/a	n/a	n/a	n/a	n/a	n/a
3448.35	n/a	RECOG_RESP	1724175	n/a	LTP206	ltpFR	4	2	n/a	ROCKET	1202	n/a	n/a	n/a	n/a	n/a	n/a	n/a
3450.532	n/a	RECOG_CONF	1725266	n/a	LTP206	ltpFR	4	2	n/a	ROCKET	1202	3	n/a	n/a	n/a	n/a	n/a	n/a
3452.31	n/a	RECOG_LURE	1726155	n/a	LTP206	ltpFR	4	2	n/a	HAYSTACK	694	4	n/a	n/a	n/a	n/a	n/a	n/a
3453.764	n/a	RECOG_RESP	1726882	n/a	LTP206	ltpFR	4	2	n/a	HAYSTACK	694	n/a	n/a	n/a	n/a	n/a	n/a	n/a
3455.38	n/a	RECOG_CONF	1727690	n/a	LTP206	ltpFR	4	2	n/a	HAYSTACK	694	4	n/a	n/a	n/a	n/a	n/a	n/a
3457.094	n/a	RECOG_LURE	1728547	n/a	LTP206	ltpFR	4	2	n/a	TROMBONE	1508	4	n/a	n/a	n/a	n/a	n/a	n/a
3458.284	n/a	RECOG_RESP	1729142	n/a	LTP206	ltpFR	4	2	n/a	TROMBONE	1508	n/a	n/a	n/a	n/a	n/a	n/a	n/a
3459.97	n/a	RECOG_CONF	1729985	n/a	LTP206	ltpFR	4	2	n/a	TROMBONE	1508	4	n/a	n/a	n/a	n/a	n/a	n/a
3461.462	n/a	RECOG_TARGET	1730731	n/a	LTP206	ltpFR	4	2	0	STRAW	1390	3	0	n/a	n/a	n/a	n/a	n/a
3462.884	n/a	RECOG_RESP	1731442	n/a	LTP206	ltpFR	4	2	0	STRAW	1390	n/a	0	n/a	n/a	n/a	n/a	n/a
3464.62	n/a	RECOG_CONF	1732310	n/a	LTP206	ltpFR	4	2	0	STRAW	1390	3	0	n/a	n/a	n/a	n/a	n/a
3466.368	n/a	RECOG_TARGET	1733184	n/a	LTP206	ltpFR	4	2	1	SCOTCH	1251	5	0	n/a	n/a	n/a	n/a	n/a
3467.368	n/a	RECOG_RESP	1733684	n/a	LTP206	ltpFR	4	2	1	SCOTCH	1251	n/a	0	n/a	n/a	n/a	n/a	n/a
3468.66	n/a	RECOG_CONF	1734330	n/a	LTP206	ltpFR	4	2	1	SCOTCH	1251	5	0	n/a	n/a	n/a	n/a	n/a
3470.502	n/a	RECOG_LURE	1735251	n/a	LTP206	ltpFR	4	2	n/a	STREET	1393	3	n/a	n/a	n/a	n/a	n/a	n/a
3471.91	n/a	RECOG_RESP	1735955	n/a	LTP206	ltpFR	4	2	n/a	STREET	1393	n/a	n/a	n/a	n/a	n/a	n/a	n/a
3473.58	n/a	RECOG_CONF	1736790	n/a	LTP206	ltpFR	4	2	n/a	STREET	1393	3	n/a	n/a	n/a	n/a	n/a	n/a
3475.37	n/a	RECOG_TARGET	1737685	n/a	LTP206	ltpFR	4	2	1	COTTAGE	384	5	0	n/a	n/a	n/a	n/a	n/a
3476.26	n/a	RECOG_RESP	1738130	n/a	LTP206	ltpFR	4	2	1	COTTAGE	384	n/a	0	n/a	n/a	n/a	n/a	n/a
3477.592	n/a	RECOG_CONF	1738796	n/a	LTP206	ltpFR	4	2	1	COTTAGE	384	5	0	n/a	n/a	n/a	n/a	n/a
3479.414	n/a	RECOG_TARGET	1739707	n/a	LTP206	ltpFR	4	2	-1	STOVE	1388	3	-1	n/a	n/a	n/a	n/a	n/a
3480.898	n/a	RECOG_RESP	1740449	n/a	LTP206	ltpFR	4	2	-1	STOVE	1388	n/a	-1	n/a	n/a	n/a	n/a	n/a
3482.84	n/a	RECOG_CONF	1741420	n/a	LTP206	ltpFR	4	2	-1	STOVE	1388	3	-1	n/a	n/a	n/a	n/a	n/a
3484.616	n/a	RECOG_TARGET	1742308	n/a	LTP206	ltpFR	4	2	1	CUPBOARD	425	3	0	n/a	n/a	n/a	n/a	n/a
3486.058	n/a	RECOG_RESP	1743029	n/a	LTP206	ltpFR	4	2	1	CUPBOARD	425	n/a	0	n/a	n/a	n/a	n/a	n/a
3488.518	n/a	RECOG_CONF	1744259	n/a	LTP206	ltpFR	4	2	1	CUPBOARD	425	3	0	n/a	n/a	n/a	n/a	n/a
3490.24	n/a	RECOG_TARGET	1745120	n/a	LTP206	ltpFR	4	2	-1	WILDERNESS	1610	5	-1	n/a	n/a	n/a	n/a	n/a
3491.252	n/a	RECOG_RESP	1745626	n/a	LTP206	ltpFR	4	2	-1	WILDERNESS	1610	n/a	-1	n/a	n/a	n/a	n/a	n/a
3492.598	n/a	RECOG_CONF	1746299	n/a	LTP206	ltpFR	4	2	-1	WILDERNESS	1610	5	-1	n/a	n/a	n/a	n/a	n/a
3494.376	n/a	RECOG_TARGET	1747188	n/a	LTP206	ltpFR	4	2	1	PLATE	1086	4	0	n/a	n/a	n/a	n/a	n/a
3495.592	n/a	RECOG_RESP	1747796	n/a	LTP206	ltpFR	4	2	1	PLATE	1086	n/a	0	n/a	n/a	n/a	n/a	n/a
3497.078	n/a	RECOG_CONF	1748539	n/a	LTP206	ltpFR	4	2	1	PLATE	1086	4	0	n/a	n/a	n/a	n/a	n/a
3498.81	n/a	RECOG_TARGET	1749405	n/a	LTP206	ltpFR	4	2	1	SAUCER	1237	3	0	n/a	n/a	n/a	n/a	n/a
3500.506	n/a	RECOG_RESP	1750253	n/a	LTP206	ltpFR	4	2	1	SAUCER	1237	n/a	0	n/a	n/a	n/a	n/a	n/a
3501.948	n/a	RECOG_CONF	1750974	n/a	LTP206	ltpFR	4	2	1	SAUCER	1237	3	0	n/a	n/a	n/a	n/a	n/a
3503.644	n/a	RECOG_LURE	1751822	n/a	LTP206	ltpFR	4	2	n/a	PARCEL	1012	4	n/a	n/a	n/a	n/a	n/a	n/a
3504.766	n/a	RECOG_RESP	1752383	n/a	LTP206	ltpFR	4	2	n/a	PARCEL	1012	n/a	n/a	n/a	n/a	n/a	n/a	n/a
3506.348	n/a	RECOG_CONF	1753174	n/a	LTP206	ltpFR	4	2	n/a	PARCEL	1012	4	n/a	n/a	n/a	n/a	n/a	n/a
3507.996	n/a	RECOG_LURE	1753998	n/a	LTP206	ltpFR	4	2	n/a	WASHER	1592	5	n/a	n/a	n/a	n/a	n/a	n/a
3509.262	n/a	RECOG_RESP	1754631	n/a	LTP206	ltpFR	4	2	n/a	WASHER	1592	n/a	n/a	n/a	n/a	n/a	n/a	n/a
3510.928	n/a	RECOG_CONF	1755464	n/a	LTP206	ltpFR	4	2	n/a	WASHER	1592	5	n/a	n/a	n/a	n/a	n/a	n/a
3512.58	n/a	RECOG_LURE	1756290	n/a	LTP206	ltpFR	4	2	n/a	DAGGER	434	4	n/a	n/a	n/a	n/a	n/a	n/a
3514.38	n/a	RECOG_RESP	1757190	n/a	LTP206	ltpFR	4	2	n/a	DAGGER	434	n/a	n/a	n/a	n/a	n/a	n/a	n/a
3516.216	n/a	RECOG_CONF	1758108	n/a	LTP206	ltpFR	4	2	n/a	DAGGER	434	4	n/a	n/a	n/a	n/a	n/a	n/a
3517.766	n/a	RECOG_TARGET	1758883	n/a	LTP206	ltpFR	4	2	0	STREAM	1392	5	1	n/a	n/a	n/a	n/a	n/a
3518.91	n/a	RECOG_RESP	1759455	n/a	LTP206	ltpFR	4	2	0	STREAM	1392	n/a	1	n/a	n/a	n/a	n/a	n/a
3520.346	n/a	RECOG_CONF	1760173	n/a	LTP206	ltpFR	4	2	0	STREAM	1392	5	1	n/a	n/a	n/a	n/a	n/a
3522.182	n/a	RECOG_LURE	1761091	n/a	LTP206	ltpFR	4	2	n/a	BED	110	4	n/a	n/a	n/a	n/a	n/a	n/a
3523.294	n/a	RECOG_RESP	1761647	n/a	LTP206	ltpFR	4	2	n/a	BED	110	n/a	n/a	n/a	n/a	n/a	n/a	n/a
3525.236	n/a	RECOG_CONF	1762618	n/a	LTP206	ltpFR	4	2	n/a	BED	110	4	n/a	n/a	n/a	n/a	n/a	n/a
3526.984	n/a	RECOG_TARGET	1763492	n/a	LTP206	ltpFR	4	2	0	WHISKERS	1605	3	0	n/a	n/a	n/a	n/a	n/a
3528.21	n/a	RECOG_RESP	1764105	n/a	LTP206	ltpFR	4	2	0	WHISKERS	1605	n/a	0	n/a	n/a	n/a	n/a	n/a
3530.116	n/a	RECOG_CONF	1765058	n/a	LTP206	ltpFR	4	2	0	WHISKERS	1605	3	0	n/a	n/a	n/a	n/a	n/a
3531.746	n/a	RECOG_TARGET	1765873	n/a	LTP206	ltpFR	4	2	-1	COOK	372	5	-1	n/a	n/a	n/a	n/a	n/a
3532.674	n/a	RECOG_RESP	1766337	n/a	LTP206	ltpFR	4	2	-1	COOK	372	n/a	-1	n/a	n/a	n/a	n/a	n/a
3534.096	n/a	RECOG_CONF	1767048	n/a	LTP206	ltpFR	4	2	-1	COOK	372	5	-1	n/a	n/a	n/a	n/a	n/a
3536.052	n/a	RECOG_TARGET	1768026	n/a	LTP206	ltpFR	4	2	1	FARM	552	4	0	n/a	n/a	n/a	n/a	n/a
3537.454	n/a	RECOG_RESP	1768727	n/a	LTP206	ltpFR	4	2	1	FARM	552	n/a	0	n/a	n/a	n/a	n/a	n/a
3538.976	n/a	RECOG_CONF	1769488	n/a	LTP206	ltpFR	4	2	1	FARM	552	4	0	n/a	n/a	n/a	n/a	n/a
3556.548	n/a	REC_START	1778274	n/a	LTP206	ltpFR	4	3	n/a	n/a	n/a	n/a	n/a	n/a	n/a	n/a	n/a	n/a
3556.598	n/a	RECOG_TARGET	1778299	n/a	LTP206	ltpFR	4	3	0	ANT	25	5	0	n/a	n/a	n/a	n/a	n/a
3557.624	n/a	RECOG_RESP	1778812	n/a	LTP206	ltpFR	4	3	0	ANT	25	n/a	0	n/a	n/a	n/a	n/a	n/a
3558.728	n/a	RECOG_CONF	1779364	n/a	LTP206	ltpFR	4	3	0	ANT	25	5	0	n/a	n/a	n/a	n/a	n/a
3560.512	n/a	RECOG_TARGET	1780256	n/a	LTP206	ltpFR	4	3	-1	CLAM	315	5	-1	n/a	n/a	n/a	n/a	n/a
3561.426	n/a	RECOG_RESP	1780713	n/a	LTP206	ltpFR	4	3	-1	CLAM	315	n/a	-1	n/a	n/a	n/a	n/a	n/a
3562.778	n/a	RECOG_CONF	1781389	n/a	LTP206	ltpFR	4	3	-1	CLAM	315	5	-1	n/a	n/a	n/a	n/a	n/a
3564.428	n/a	RECOG_LURE	1782214	n/a	LTP206	ltpFR	4	3	n/a	CLARINET	317	5	n/a	n/a	n/a	n/a	n/a	n/a
3565.628	n/a	RECOG_RESP	1782814	n/a	LTP206	ltpFR	4	3	n/a	CLARINET	317	n/a	n/a	n/a	n/a	n/a	n/a	n/a
3567.498	n/a	RECOG_CONF	1783749	n/a	LTP206	ltpFR	4	3	n/a	CLARINET	317	5	n/a	n/a	n/a	n/a	n/a	n/a
3569.128	n/a	RECOG_LURE	1784564	n/a	LTP206	ltpFR	4	3	n/a	TIDE	1465	5	n/a	n/a	n/a	n/a	n/a	n/a
3570.268	n/a	RECOG_RESP	1785134	n/a	LTP206	ltpFR	4	3	n/a	TIDE	1465	n/a	n/a	n/a	n/a	n/a	n/a	n/a
3571.51	n/a	RECOG_CONF	1785755	n/a	LTP206	ltpFR	4	3	n/a	TIDE	1465	5	n/a	n/a	n/a	n/a	n/a	n/a
3573.394	n/a	RECOG_TARGET	1786697	n/a	LTP206	ltpFR	4	3	0	TOTE	1487	5	0	n/a	n/a	n/a	n/a	n/a
3574.378	n/a	RECOG_RESP	1787189	n/a	LTP206	ltpFR	4	3	0	TOTE	1487	n/a	0	n/a	n/a	n/a	n/a	n/a
3575.52	n/a	RECOG_CONF	1787760	n/a	LTP206	ltpFR	4	3	0	TOTE	1487	5	0	n/a	n/a	n/a	n/a	n/a
3577.376	n/a	RECOG_LURE	1788688	n/a	LTP206	ltpFR	4	3	n/a	NEEDLE	941	3	n/a	n/a	n/a	n/a	n/a	n/a
3578.534	n/a	RECOG_RESP	1789267	n/a	LTP206	ltpFR	4	3	n/a	NEEDLE	941	n/a	n/a	n/a	n/a	n/a	n/a	n/a
3580.14	n/a	RECOG_CONF	1790070	n/a	LTP206	ltpFR	4	3	n/a	NEEDLE	941	3	n/a	n/a	n/a	n/a	n/a	n/a
3581.744	n/a	RECOG_TARGET	1790872	n/a	LTP206	ltpFR	4	3	-1	BIKE	125	5	-1	n/a	n/a	n/a	n/a	n/a
3582.754	n/a	RECOG_RESP	1791377	n/a	LTP206	ltpFR	4	3	-1	BIKE	125	n/a	-1	n/a	n/a	n/a	n/a	n/a
3584.122	n/a	RECOG_CONF	1792061	n/a	LTP206	ltpFR	4	3	-1	BIKE	125	5	-1	n/a	n/a	n/a	n/a	n/a
3585.792	n/a	RECOG_LURE	1792896	n/a	LTP206	ltpFR	4	3	n/a	MILDEW	893	4	n/a	n/a	n/a	n/a	n/a	n/a
3587.224	n/a	RECOG_RESP	1793612	n/a	LTP206	ltpFR	4	3	n/a	MILDEW	893	n/a	n/a	n/a	n/a	n/a	n/a	n/a
3588.9	n/a	RECOG_CONF	1794450	n/a	LTP206	ltpFR	4	3	n/a	MILDEW	893	4	n/a	n/a	n/a	n/a	n/a	n/a
3590.662	n/a	RECOG_TARGET	1795331	n/a	LTP206	ltpFR	4	3	-1	SECRETARY	1265	5	-1	n/a	n/a	n/a	n/a	n/a
3591.644	n/a	RECOG_RESP	1795822	n/a	LTP206	ltpFR	4	3	-1	SECRETARY	1265	n/a	-1	n/a	n/a	n/a	n/a	n/a
3592.992	n/a	RECOG_CONF	1796496	n/a	LTP206	ltpFR	4	3	-1	SECRETARY	1265	5	-1	n/a	n/a	n/a	n/a	n/a
3594.754	n/a	RECOG_TARGET	1797377	n/a	LTP206	ltpFR	4	3	1	MARKET	871	3	0	n/a	n/a	n/a	n/a	n/a
3596.274	n/a	RECOG_RESP	1798137	n/a	LTP206	ltpFR	4	3	1	MARKET	871	n/a	0	n/a	n/a	n/a	n/a	n/a
3597.65	n/a	RECOG_CONF	1798825	n/a	LTP206	ltpFR	4	3	1	MARKET	871	3	0	n/a	n/a	n/a	n/a	n/a
3599.478	n/a	RECOG_TARGET	1799739	n/a	LTP206	ltpFR	4	3	-1	FOLDER	588	5	-1	n/a	n/a	n/a	n/a	n/a
3600.444	n/a	RECOG_RESP	1800222	n/a	LTP206	ltpFR	4	3	-1	FOLDER	588	n/a	-1	n/a	n/a	n/a	n/a	n/a
3601.642	n/a	RECOG_CONF	1800821	n/a	LTP206	ltpFR	4	3	-1	FOLDER	588	5	-1	n/a	n/a	n/a	n/a	n/a
3603.594	n/a	RECOG_LURE	1801797	n/a	LTP206	ltpFR	4	3	n/a	LABYRINTH	791	4	n/a	n/a	n/a	n/a	n/a	n/a
3605.056	n/a	RECOG_RESP	1802528	n/a	LTP206	ltpFR	4	3	n/a	LABYRINTH	791	n/a	n/a	n/a	n/a	n/a	n/a	n/a
3607.07	n/a	RECOG_CONF	1803535	n/a	LTP206	ltpFR	4	3	n/a	LABYRINTH	791	4	n/a	n/a	n/a	n/a	n/a	n/a
3608.78	n/a	RECOG_TARGET	1804390	n/a	LTP206	ltpFR	4	3	0	SALMON	1227	5	0	n/a	n/a	n/a	n/a	n/a
3610.198	n/a	RECOG_RESP	1805099	n/a	LTP206	ltpFR	4	3	0	SALMON	1227	n/a	0	n/a	n/a	n/a	n/a	n/a
3611.56	n/a	RECOG_CONF	1805780	n/a	LTP206	ltpFR	4	3	0	SALMON	1227	5	0	n/a	n/a	n/a	n/a	n/a
3613.38	n/a	RECOG_TARGET	1806690	n/a	LTP206	ltpFR	4	3	0	WAITRESS	1581	5	1	n/a	n/a	n/a	n/a	n/a
3614.942	n/a	RECOG_RESP	1807471	n/a	LTP206	ltpFR	4	3	0	WAITRESS	1581	n/a	1	n/a	n/a	n/a	n/a	n/a
3616.15	n/a	RECOG_CONF	1808075	n/a	LTP206	ltpFR	4	3	0	WAITRESS	1581	5	1	n/a	n/a	n/a	n/a	n/a
3617.998	n/a	RECOG_LURE	1808999	n/a	LTP206	ltpFR	4	3	n/a	LETTER	813	4	n/a	n/a	n/a	n/a	n/a	n/a
3618.968	n/a	RECOG_RESP	1809484	n/a	LTP206	ltpFR	4	3	n/a	LETTER	813	n/a	n/a	n/a	n/a	n/a	n/a	n/a
3620.48	n/a	RECOG_CONF	1810240	n/a	LTP206	ltpFR	4	3	n/a	LETTER	813	4	n/a	n/a	n/a	n/a	n/a	n/a
3622.142	n/a	RECOG_TARGET	1811071	n/a	LTP206	ltpFR	4	3	-1	CROCODILE	411	5	-1	n/a	n/a	n/a	n/a	n/a
3623.19	n/a	RECOG_RESP	1811595	n/a	LTP206	ltpFR	4	3	-1	CROCODILE	411	n/a	-1	n/a	n/a	n/a	n/a	n/a
3624.502	n/a	RECOG_CONF	1812251	n/a	LTP206	ltpFR	4	3	-1	CROCODILE	411	5	-1	n/a	n/a	n/a	n/a	n/a
3626.33	n/a	RECOG_TARGET	1813165	n/a	LTP206	ltpFR	4	3	0	BLANKET	135	5	0	n/a	n/a	n/a	n/a	n/a
3627.52	n/a	RECOG_RESP	1813760	n/a	LTP206	ltpFR	4	3	0	BLANKET	135	n/a	0	n/a	n/a	n/a	n/a	n/a
3628.972	n/a	RECOG_CONF	1814486	n/a	LTP206	ltpFR	4	3	0	BLANKET	135	5	0	n/a	n/a	n/a	n/a	n/a
3630.63	n/a	RECOG_LURE	1815315	n/a	LTP206	ltpFR	4	3	n/a	PARENT	1013	3	n/a	n/a	n/a	n/a	n/a	n/a
3632.838	n/a	RECOG_RESP	1816419	n/a	LTP206	ltpFR	4	3	n/a	PARENT	1013	n/a	n/a	n/a	n/a	n/a	n/a	n/a
3634.26	n/a	RECOG_CONF	1817130	n/a	LTP206	ltpFR	4	3	n/a	PARENT	1013	3	n/a	n/a	n/a	n/a	n/a	n/a
3636.0	n/a	RECOG_TARGET	1818000	n/a	LTP206	ltpFR	4	3	0	MECHANIC	884	5	1	n/a	n/a	n/a	n/a	n/a
3636.994	n/a	RECOG_RESP	1818497	n/a	LTP206	ltpFR	4	3	0	MECHANIC	884	n/a	1	n/a	n/a	n/a	n/a	n/a
3638.23	n/a	RECOG_CONF	1819115	n/a	LTP206	ltpFR	4	3	0	MECHANIC	884	5	1	n/a	n/a	n/a	n/a	n/a
3639.91	n/a	RECOG_TARGET	1819955	n/a	LTP206	ltpFR	4	3	1	HOSTESS	723	5	1	n/a	n/a	n/a	n/a	n/a
3641.154	n/a	RECOG_RESP	1820577	n/a	LTP206	ltpFR	4	3	1	HOSTESS	723	n/a	1	n/a	n/a	n/a	n/a	n/a
3642.592	n/a	RECOG_CONF	1821296	n/a	LTP206	ltpFR	4	3	1	HOSTESS	723	5	1	n/a	n/a	n/a	n/a	n/a
3653.872	n/a	REC_START	1826936	n/a	LTP206	ltpFR	4	4	n/a	n/a	n/a	n/a	n/a	n/a	n/a	n/a	n/a	n/a
3653.92	n/a	RECOG_TARGET	1826960	n/a	LTP206	ltpFR	4	4	1	SIRLOIN	1311	5	1	n/a	n/a	n/a	n/a	n/a
3654.806	n/a	RECOG_RESP	1827403	n/a	LTP206	ltpFR	4	4	1	SIRLOIN	1311	n/a	1	n/a	n/a	n/a	n/a	n/a
3655.992	n/a	RECOG_CONF	1827996	n/a	LTP206	ltpFR	4	4	1	SIRLOIN	1311	5	1	n/a	n/a	n/a	n/a	n/a
3657.71	n/a	RECOG_LURE	1828855	n/a	LTP206	ltpFR	4	4	n/a	PATIO	1025	3	n/a	n/a	n/a	n/a	n/a	n/a
3658.942	n/a	RECOG_RESP	1829471	n/a	LTP206	ltpFR	4	4	n/a	PATIO	1025	n/a	n/a	n/a	n/a	n/a	n/a	n/a
3660.622	n/a	RECOG_CONF	1830311	n/a	LTP206	ltpFR	4	4	n/a	PATIO	1025	3	n/a	n/a	n/a	n/a	n/a	n/a
3662.078	n/a	RECOG_TARGET	1831039	n/a	LTP206	ltpFR	4	4	-1	SQUIRREL	1362	5	-1	n/a	n/a	n/a	n/a	n/a
3663.022	n/a	RECOG_RESP	1831511	n/a	LTP206	ltpFR	4	4	-1	SQUIRREL	1362	n/a	-1	n/a	n/a	n/a	n/a	n/a
3664.444	n/a	RECOG_CONF	1832222	n/a	LTP206	ltpFR	4	4	-1	SQUIRREL	1362	5	-1	n/a	n/a	n/a	n/a	n/a
3666.302	n/a	RECOG_LURE	1833151	n/a	LTP206	ltpFR	4	4	n/a	CIGARETTE	309	4	n/a	n/a	n/a	n/a	n/a	n/a
3667.408	n/a	RECOG_RESP	1833704	n/a	LTP206	ltpFR	4	4	n/a	CIGARETTE	309	n/a	n/a	n/a	n/a	n/a	n/a	n/a
3668.664	n/a	RECOG_CONF	1834332	n/a	LTP206	ltpFR	4	4	n/a	CIGARETTE	309	4	n/a	n/a	n/a	n/a	n/a	n/a
3670.416	n/a	RECOG_LURE	1835208	n/a	LTP206	ltpFR	4	4	n/a	GYM	674	3	n/a	n/a	n/a	n/a	n/a	n/a
3671.514	n/a	RECOG_RESP	1835757	n/a	LTP206	ltpFR	4	4	n/a	GYM	674	n/a	n/a	n/a	n/a	n/a	n/a	n/a
3673.294	n/a	RECOG_CONF	1836647	n/a	LTP206	ltpFR	4	4	n/a	GYM	674	3	n/a	n/a	n/a	n/a	n/a	n/a
3674.894	n/a	RECOG_TARGET	1837447	n/a	LTP206	ltpFR	4	4	0	BEDROOM	111	4	1	n/a	n/a	n/a	n/a	n/a
3676.118	n/a	RECOG_RESP	1838059	n/a	LTP206	ltpFR	4	4	0	BEDROOM	111	n/a	1	n/a	n/a	n/a	n/a	n/a
3677.804	n/a	RECOG_CONF	1838902	n/a	LTP206	ltpFR	4	4	0	BEDROOM	111	4	1	n/a	n/a	n/a	n/a	n/a
3679.552	n/a	RECOG_TARGET	1839776	n/a	LTP206	ltpFR	4	4	0	DRESS	495	4	0	n/a	n/a	n/a	n/a	n/a
3681.038	n/a	RECOG_RESP	1840519	n/a	LTP206	ltpFR	4	4	0	DRESS	495	n/a	0	n/a	n/a	n/a	n/a	n/a
3682.484	n/a	RECOG_CONF	1841242	n/a	LTP206	ltpFR	4	4	0	DRESS	495	4	0	n/a	n/a	n/a	n/a	n/a
3684.318	n/a	RECOG_TARGET	1842159	n/a	LTP206	ltpFR	4	4	0	PAWN	1030	4	0	n/a	n/a	n/a	n/a	n/a
3685.682	n/a	RECOG_RESP	1842841	n/a	LTP206	ltpFR	4	4	0	PAWN	1030	n/a	0	n/a	n/a	n/a	n/a	n/a
3687.782	n/a	RECOG_CONF	1843891	n/a	LTP206	ltpFR	4	4	0	PAWN	1030	4	0	n/a	n/a	n/a	n/a	n/a
3689.472	n/a	RECOG_TARGET	1844736	n/a	LTP206	ltpFR	4	4	1	STAPLER	1372	5	0	n/a	n/a	n/a	n/a	n/a
3690.344	n/a	RECOG_RESP	1845172	n/a	LTP206	ltpFR	4	4	1	STAPLER	1372	n/a	0	n/a	n/a	n/a	n/a	n/a
3691.624	n/a	RECOG_CONF	1845812	n/a	LTP206	ltpFR	4	4	1	STAPLER	1372	5	0	n/a	n/a	n/a	n/a	n/a
3693.398	n/a	RECOG_LURE	1846699	n/a	LTP206	ltpFR	4	4	n/a	COAL	332	3	n/a	n/a	n/a	n/a	n/a	n/a
3694.512	n/a	RECOG_RESP	1847256	n/a	LTP206	ltpFR	4	4	n/a	COAL	332	n/a	n/a	n/a	n/a	n/a	n/a	n/a
3696.254	n/a	RECOG_CONF	1848127	n/a	LTP206	ltpFR	4	4	n/a	COAL	332	3	n/a	n/a	n/a	n/a	n/a	n/a
3698.004	n/a	RECOG_TARGET	1849002	n/a	LTP206	ltpFR	4	4	0	LOLLIPOP	842	3	0	n/a	n/a	n/a	n/a	n/a
3699.366	n/a	RECOG_RESP	1849683	n/a	LTP206	ltpFR	4	4	0	LOLLIPOP	842	n/a	0	n/a	n/a	n/a	n/a	n/a
3701.552	n/a	RECOG_CONF	1850776	n/a	LTP206	ltpFR	4	4	0	LOLLIPOP	842	3	0	n/a	n/a	n/a	n/a	n/a
3703.108	n/a	RECOG_LURE	1851554	n/a	LTP206	ltpFR	4	4	n/a	SPACE	1345	5	n/a	n/a	n/a	n/a	n/a	n/a
3704.166	n/a	RECOG_RESP	1852083	n/a	LTP206	ltpFR	4	4	n/a	SPACE	1345	n/a	n/a	n/a	n/a	n/a	n/a	n/a
3705.862	n/a	RECOG_CONF	1852931	n/a	LTP206	ltpFR	4	4	n/a	SPACE	1345	5	n/a	n/a	n/a	n/a	n/a	n/a
3707.574	n/a	RECOG_LURE	1853787	n/a	LTP206	ltpFR	4	4	n/a	BULB	192	5	n/a	n/a	n/a	n/a	n/a	n/a
3708.876	n/a	RECOG_RESP	1854438	n/a	LTP206	ltpFR	4	4	n/a	BULB	192	n/a	n/a	n/a	n/a	n/a	n/a	n/a
3710.442	n/a	RECOG_CONF	1855221	n/a	LTP206	ltpFR	4	4	n/a	BULB	192	5	n/a	n/a	n/a	n/a	n/a	n/a
3712.27	n/a	RECOG_LURE	1856135	n/a	LTP206	ltpFR	4	4	n/a	HAY	693	3	n/a	n/a	n/a	n/a	n/a	n/a
3713.47	n/a	RECOG_RESP	1856735	n/a	LTP206	ltpFR	4	4	n/a	HAY	693	n/a	n/a	n/a	n/a	n/a	n/a	n/a
3715.35	n/a	RECOG_CONF	1857675	n/a	LTP206	ltpFR	4	4	n/a	HAY	693	3	n/a	n/a	n/a	n/a	n/a	n/a
3717.144	n/a	RECOG_LURE	1858572	n/a	LTP206	ltpFR	4	4	n/a	CAR	241	5	n/a	n/a	n/a	n/a	n/a	n/a
3718.08	n/a	RECOG_RESP	1859040	n/a	LTP206	ltpFR	4	4	n/a	CAR	241	n/a	n/a	n/a	n/a	n/a	n/a	n/a
3719.692	n/a	RECOG_CONF	1859846	n/a	LTP206	ltpFR	4	4	n/a	CAR	241	5	n/a	n/a	n/a	n/a	n/a	n/a
3721.394	n/a	RECOG_LURE	1860697	n/a	LTP206	ltpFR	4	4	n/a	STAPLE	1371	4	n/a	n/a	n/a	n/a	n/a	n/a
3724.116	n/a	RECOG_RESP	1862058	n/a	LTP206	ltpFR	4	4	n/a	STAPLE	1371	n/a	n/a	n/a	n/a	n/a	n/a	n/a
3726.316	n/a	RECOG_CONF	1863158	n/a	LTP206	ltpFR	4	4	n/a	STAPLE	1371	4	n/a	n/a	n/a	n/a	n/a	n/a
3728.186	n/a	RECOG_TARGET	1864093	n/a	LTP206	ltpFR	4	4	1	FRIES	607	5	0	n/a	n/a	n/a	n/a	n/a
3729.32	n/a	RECOG_RESP	1864660	n/a	LTP206	ltpFR	4	4	1	FRIES	607	n/a	0	n/a	n/a	n/a	n/a	n/a
3730.656	n/a	RECOG_CONF	1865328	n/a	LTP206	ltpFR	4	4	1	FRIES	607	5	0	n/a	n/a	n/a	n/a	n/a
3732.502	n/a	RECOG_TARGET	1866251	n/a	LTP206	ltpFR	4	4	-1	CRAB	397	5	-1	n/a	n/a	n/a	n/a	n/a
3733.674	n/a	RECOG_RESP	1866837	n/a	LTP206	ltpFR	4	4	-1	CRAB	397	n/a	-1	n/a	n/a	n/a	n/a	n/a
3734.988	n/a	RECOG_CONF	1867494	n/a	LTP206	ltpFR	4	4	-1	CRAB	397	5	-1	n/a	n/a	n/a	n/a	n/a
3736.752	n/a	RECOG_TARGET	1868376	n/a	LTP206	ltpFR	4	4	0	MOTH	920	3	0	n/a	n/a	n/a	n/a	n/a
3738.614	n/a	RECOG_RESP	1869307	n/a	LTP206	ltpFR	4	4	0	MOTH	920	n/a	0	n/a	n/a	n/a	n/a	n/a
3740.406	n/a	RECOG_CONF	1870203	n/a	LTP206	ltpFR	4	4	0	MOTH	920	3	0	n/a	n/a	n/a	n/a	n/a
3742.2	n/a	RECOG_LURE	1871100	n/a	LTP206	ltpFR	4	4	n/a	VEAL	1551	4	n/a	n/a	n/a	n/a	n/a	n/a
3743.464	n/a	RECOG_RESP	1871732	n/a	LTP206	ltpFR	4	4	n/a	VEAL	1551	n/a	n/a	n/a	n/a	n/a	n/a	n/a
3745.046	n/a	RECOG_CONF	1872523	n/a	LTP206	ltpFR	4	4	n/a	VEAL	1551	4	n/a	n/a	n/a	n/a	n/a	n/a
3757.812	n/a	REC_START	1878906	n/a	LTP206	ltpFR	4	5	n/a	n/a	n/a	n/a	n/a	n/a	n/a	n/a	n/a	n/a
3757.866	n/a	RECOG_LURE	1878933	n/a	LTP206	ltpFR	4	5	n/a	TAPIOCA	1434	5	n/a	n/a	n/a	n/a	n/a	n/a
3759.104	n/a	RECOG_RESP	1879552	n/a	LTP206	ltpFR	4	5	n/a	TAPIOCA	1434	n/a	n/a	n/a	n/a	n/a	n/a	n/a
3760.33	n/a	RECOG_CONF	1880165	n/a	LTP206	ltpFR	4	5	n/a	TAPIOCA	1434	5	n/a	n/a	n/a	n/a	n/a	n/a
3762.2	n/a	RECOG_LURE	1881100	n/a	LTP206	ltpFR	4	5	n/a	BOAT	144	3	n/a	n/a	n/a	n/a	n/a	n/a
3763.228	n/a	RECOG_RESP	1881614	n/a	LTP206	ltpFR	4	5	n/a	BOAT	144	n/a	n/a	n/a	n/a	n/a	n/a	n/a
3764.88	n/a	RECOG_CONF	1882440	n/a	LTP206	ltpFR	4	5	n/a	BOAT	144	3	n/a	n/a	n/a	n/a	n/a	n/a
3766.628	n/a	RECOG_TARGET	1883314	n/a	LTP206	ltpFR	4	5	1	CHAIN	273	4	0	n/a	n/a	n/a	n/a	n/a
3767.758	n/a	RECOG_RESP	1883879	n/a	LTP206	ltpFR	4	5	1	CHAIN	273	n/a	0	n/a	n/a	n/a	n/a	n/a
3769.25	n/a	RECOG_CONF	1884625	n/a	LTP206	ltpFR	4	5	1	CHAIN	273	4	0	n/a	n/a	n/a	n/a	n/a
3771.034	n/a	RECOG_TARGET	1885517	n/a	LTP206	ltpFR	4	5	1	COMMITTEE	355	3	0	n/a	n/a	n/a	n/a	n/a
3773.472	n/a	RECOG_RESP	1886736	n/a	LTP206	ltpFR	4	5	1	COMMITTEE	355	n/a	0	n/a	n/a	n/a	n/a	n/a
3775.318	n/a	RECOG_CONF	1887659	n/a	LTP206	ltpFR	4	5	1	COMMITTEE	355	3	0	n/a	n/a	n/a	n/a	n/a
3777.006	n/a	RECOG_TARGET	1888503	n/a	LTP206	ltpFR	4	5	1	THUMB	1462	5	1	n/a	n/a	n/a	n/a	n/a
3777.942	n/a	RECOG_RESP	1888971	n/a	LTP206	ltpFR	4	5	1	THUMB	1462	n/a	1	n/a	n/a	n/a	n/a	n/a
3779.268	n/a	RECOG_CONF	1889634	n/a	LTP206	ltpFR	4	5	1	THUMB	1462	5	1	n/a	n/a	n/a	n/a	n/a
3781.122	n/a	RECOG_TARGET	1890561	n/a	LTP206	ltpFR	4	5	1	FORT	595	5	0	n/a	n/a	n/a	n/a	n/a
3782.128	n/a	RECOG_RESP	1891064	n/a	LTP206	ltpFR	4	5	1	FORT	595	n/a	0	n/a	n/a	n/a	n/a	n/a
3783.35	n/a	RECOG_CONF	1891675	n/a	LTP206	ltpFR	4	5	1	FORT	595	5	0	n/a	n/a	n/a	n/a	n/a
3785.088	n/a	RECOG_LURE	1892544	n/a	LTP206	ltpFR	4	5	n/a	TOOTHPASTE	1483	4	n/a	n/a	n/a	n/a	n/a	n/a
3786.132	n/a	RECOG_RESP	1893066	n/a	LTP206	ltpFR	4	5	n/a	TOOTHPASTE	1483	n/a	n/a	n/a	n/a	n/a	n/a	n/a
3787.55	n/a	RECOG_CONF	1893775	n/a	LTP206	ltpFR	4	5	n/a	TOOTHPASTE	1483	4	n/a	n/a	n/a	n/a	n/a	n/a
3789.304	n/a	RECOG_LURE	1894652	n/a	LTP206	ltpFR	4	5	n/a	ACORN	3	5	n/a	n/a	n/a	n/a	n/a	n/a
3790.338	n/a	RECOG_RESP	1895169	n/a	LTP206	ltpFR	4	5	n/a	ACORN	3	n/a	n/a	n/a	n/a	n/a	n/a	n/a
3791.792	n/a	RECOG_CONF	1895896	n/a	LTP206	ltpFR	4	5	n/a	ACORN	3	5	n/a	n/a	n/a	n/a	n/a	n/a
3793.464	n/a	RECOG_LURE	1896732	n/a	LTP206	ltpFR	4	5	n/a	AGENT	10	5	n/a	n/a	n/a	n/a	n/a	n/a
3794.47	n/a	RECOG_RESP	1897235	n/a	LTP206	ltpFR	4	5	n/a	AGENT	10	n/a	n/a	n/a	n/a	n/a	n/a	n/a
3795.722	n/a	RECOG_CONF	1897861	n/a	LTP206	ltpFR	4	5	n/a	AGENT	10	5	n/a	n/a	n/a	n/a	n/a	n/a
3797.568	n/a	RECOG_TARGET	1898784	n/a	LTP206	ltpFR	4	5	1	SNAKE	1333	5	1	n/a	n/a	n/a	n/a	n/a
3798.55	n/a	RECOG_RESP	1899275	n/a	LTP206	ltpFR	4	5	1	SNAKE	1333	n/a	1	n/a	n/a	n/a	n/a	n/a
3799.802	n/a	RECOG_CONF	1899901	n/a	LTP206	ltpFR	4	5	1	SNAKE	1333	5	1	n/a	n/a	n/a	n/a	n/a
3801.6	n/a	RECOG_TARGET	1900800	n/a	LTP206	ltpFR	4	5	1	MONK	910	5	1	n/a	n/a	n/a	n/a	n/a
3802.452	n/a	RECOG_RESP	1901226	n/a	LTP206	ltpFR	4	5	1	MONK	910	n/a	1	n/a	n/a	n/a	n/a	n/a
3803.574	n/a	RECOG_CONF	1901787	n/a	LTP206	ltpFR	4	5	1	MONK	910	5	1	n/a	n/a	n/a	n/a	n/a
3805.326	n/a	RECOG_TARGET	1902663	n/a	LTP206	ltpFR	4	5	1	GUARDIAN	668	5	1	n/a	n/a	n/a	n/a	n/a
3806.298	n/a	RECOG_RESP	1903149	n/a	LTP206	ltpFR	4	5	1	GUARDIAN	668	n/a	1	n/a	n/a	n/a	n/a	n/a
3807.496	n/a	RECOG_CONF	1903748	n/a	LTP206	ltpFR	4	5	1	GUARDIAN	668	5	1	n/a	n/a	n/a	n/a	n/a
3809.356	n/a	RECOG_LURE	1904678	n/a	LTP206	ltpFR	4	5	n/a	DIPLOMA	470	4	n/a	n/a	n/a	n/a	n/a	n/a
3810.57	n/a	RECOG_RESP	1905285	n/a	LTP206	ltpFR	4	5	n/a	DIPLOMA	470	n/a	n/a	n/a	n/a	n/a	n/a	n/a
3812.206	n/a	RECOG_CONF	1906103	n/a	LTP206	ltpFR	4	5	n/a	DIPLOMA	470	4	n/a	n/a	n/a	n/a	n/a	n/a
3813.88	n/a	RECOG_TARGET	1906940	n/a	LTP206	ltpFR	4	5	-1	LETTUCE	814	5	-1	n/a	n/a	n/a	n/a	n/a
3815.01	n/a	RECOG_RESP	1907505	n/a	LTP206	ltpFR	4	5	-1	LETTUCE	814	n/a	-1	n/a	n/a	n/a	n/a	n/a
3816.146	n/a	RECOG_CONF	1908073	n/a	LTP206	ltpFR	4	5	-1	LETTUCE	814	5	-1	n/a	n/a	n/a	n/a	n/a
3818.064	n/a	RECOG_LURE	1909032	n/a	LTP206	ltpFR	4	5	n/a	CATTLE	261	5	n/a	n/a	n/a	n/a	n/a	n/a
3819.12	n/a	RECOG_RESP	1909560	n/a	LTP206	ltpFR	4	5	n/a	CATTLE	261	n/a	n/a	n/a	n/a	n/a	n/a	n/a
3820.926	n/a	RECOG_CONF	1910463	n/a	LTP206	ltpFR	4	5	n/a	CATTLE	261	5	n/a	n/a	n/a	n/a	n/a	n/a
3822.758	n/a	RECOG_LURE	1911379	n/a	LTP206	ltpFR	4	5	n/a	OBOE	969	5	n/a	n/a	n/a	n/a	n/a	n/a
3824.124	n/a	RECOG_RESP	1912062	n/a	LTP206	ltpFR	4	5	n/a	OBOE	969	n/a	n/a	n/a	n/a	n/a	n/a	n/a
3825.436	n/a	RECOG_CONF	1912718	n/a	LTP206	ltpFR	4	5	n/a	OBOE	969	5	n/a	n/a	n/a	n/a	n/a	n/a
3827.282	n/a	RECOG_TARGET	1913641	n/a	LTP206	ltpFR	4	5	1	HARE	688	5	1	n/a	n/a	n/a	n/a	n/a
3828.194	n/a	RECOG_RESP	1914097	n/a	LTP206	ltpFR	4	5	1	HARE	688	n/a	1	n/a	n/a	n/a	n/a	n/a
3829.558	n/a	RECOG_CONF	1914779	n/a	LTP206	ltpFR	4	5	1	HARE	688	5	1	n/a	n/a	n/a	n/a	n/a
3831.232	n/a	RECOG_LURE	1915616	n/a	LTP206	ltpFR	4	5	n/a	POSSUM	1112	3	n/a	n/a	n/a	n/a	n/a	n/a
3832.974	n/a	RECOG_RESP	1916487	n/a	LTP206	ltpFR	4	5	n/a	POSSUM	1112	n/a	n/a	n/a	n/a	n/a	n/a	n/a
3834.796	n/a	RECOG_CONF	1917398	n/a	LTP206	ltpFR	4	5	n/a	POSSUM	1112	3	n/a	n/a	n/a	n/a	n/a	n/a
3836.65	n/a	RECOG_TARGET	1918325	n/a	LTP206	ltpFR	4	5	0	SALIVA	1226	5	0	n/a	n/a	n/a	n/a	n/a
3837.598	n/a	RECOG_RESP	1918799	n/a	LTP206	ltpFR	4	5	0	SALIVA	1226	n/a	0	n/a	n/a	n/a	n/a	n/a
3838.806	n/a	RECOG_CONF	1919403	n/a	LTP206	ltpFR	4	5	0	SALIVA	1226	5	0	n/a	n/a	n/a	n/a	n/a
3840.6	n/a	RECOG_LURE	1920300	n/a	LTP206	ltpFR	4	5	n/a	POLE	1097	3	n/a	n/a	n/a	n/a	n/a	n/a
3842.058	n/a	RECOG_RESP	1921029	n/a	LTP206	ltpFR	4	5	n/a	POLE	1097	n/a	n/a	n/a	n/a	n/a	n/a	n/a
3843.954	n/a	RECOG_CONF	1921977	n/a	LTP206	ltpFR	4	5	n/a	POLE	1097	3	n/a	n/a	n/a	n/a	n/a	n/a
3862.692	n/a	REC_START	1931346	n/a	LTP206	ltpFR	4	6	n/a	n/a	n/a	n/a	n/a	n/a	n/a	n/a	n/a	n/a
3862.744	n/a	RECOG_LURE	1931372	n/a	LTP206	ltpFR	4	6	n/a	THORN	1459	3	n/a	n/a	n/a	n/a	n/a	n/a
3864.128	n/a	RECOG_RESP	1932064	n/a	LTP206	ltpFR	4	6	n/a	THORN	1459	n/a	n/a	n/a	n/a	n/a	n/a	n/a
3866.2	n/a	RECOG_CONF	1933100	n/a	LTP206	ltpFR	4	6	n/a	THORN	1459	3	n/a	n/a	n/a	n/a	n/a	n/a
3867.904	n/a	RECOG_TARGET	1933952	n/a	LTP206	ltpFR	4	6	0	CLAW	319	3	0	n/a	n/a	n/a	n/a	n/a
3869.562	n/a	RECOG_RESP	1934781	n/a	LTP206	ltpFR	4	6	0	CLAW	319	n/a	0	n/a	n/a	n/a	n/a	n/a
3870.78	n/a	RECOG_CONF	1935390	n/a	LTP206	ltpFR	4	6	0	CLAW	319	3	0	n/a	n/a	n/a	n/a	n/a
3872.7	n/a	RECOG_TARGET	1936350	n/a	LTP206	ltpFR	4	6	0	TREE	1502	5	1	n/a	n/a	n/a	n/a	n/a
3873.728	n/a	RECOG_RESP	1936864	n/a	LTP206	ltpFR	4	6	0	TREE	1502	n/a	1	n/a	n/a	n/a	n/a	n/a
3874.97	n/a	RECOG_CONF	1937485	n/a	LTP206	ltpFR	4	6	0	TREE	1502	5	1	n/a	n/a	n/a	n/a	n/a
3876.904	n/a	RECOG_TARGET	1938452	n/a	LTP206	ltpFR	4	6	-1	SCALE	1241	3	-1	n/a	n/a	n/a	n/a	n/a
3878.044	n/a	RECOG_RESP	1939022	n/a	LTP206	ltpFR	4	6	-1	SCALE	1241	n/a	-1	n/a	n/a	n/a	n/a	n/a
3879.73	n/a	RECOG_CONF	1939865	n/a	LTP206	ltpFR	4	6	-1	SCALE	1241	3	-1	n/a	n/a	n/a	n/a	n/a
3881.372	n/a	RECOG_TARGET	1940686	n/a	LTP206	ltpFR	4	6	0	PEARL	1034	5	0	n/a	n/a	n/a	n/a	n/a
3882.208	n/a	RECOG_RESP	1941104	n/a	LTP206	ltpFR	4	6	0	PEARL	1034	n/a	0	n/a	n/a	n/a	n/a	n/a
3883.462	n/a	RECOG_CONF	1941731	n/a	LTP206	ltpFR	4	6	0	PEARL	1034	5	0	n/a	n/a	n/a	n/a	n/a
3885.298	n/a	RECOG_TARGET	1942649	n/a	LTP206	ltpFR	4	6	-1	PEN	1041	3	-1	n/a	n/a	n/a	n/a	n/a
3886.65	n/a	RECOG_RESP	1943325	n/a	LTP206	ltpFR	4	6	-1	PEN	1041	n/a	-1	n/a	n/a	n/a	n/a	n/a
3888.58	n/a	RECOG_CONF	1944290	n/a	LTP206	ltpFR	4	6	-1	PEN	1041	3	-1	n/a	n/a	n/a	n/a	n/a
3890.34	n/a	RECOG_TARGET	1945170	n/a	LTP206	ltpFR	4	6	0	SHELF	1280	3	0	n/a	n/a	n/a	n/a	n/a
3891.464	n/a	RECOG_RESP	1945732	n/a	LTP206	ltpFR	4	6	0	SHELF	1280	n/a	0	n/a	n/a	n/a	n/a	n/a
3893.16	n/a	RECOG_CONF	1946580	n/a	LTP206	ltpFR	4	6	0	SHELF	1280	3	0	n/a	n/a	n/a	n/a	n/a
3894.958	n/a	RECOG_TARGET	1947479	n/a	LTP206	ltpFR	4	6	0	CHERRY	293	3	0	n/a	n/a	n/a	n/a	n/a
3896.886	n/a	RECOG_RESP	1948443	n/a	LTP206	ltpFR	4	6	0	CHERRY	293	n/a	0	n/a	n/a	n/a	n/a	n/a
3899.016	n/a	RECOG_CONF	1949508	n/a	LTP206	ltpFR	4	6	0	CHERRY	293	3	0	n/a	n/a	n/a	n/a	n/a
3900.796	n/a	RECOG_LURE	1950398	n/a	LTP206	ltpFR	4	6	n/a	CREATURE	403	3	n/a	n/a	n/a	n/a	n/a	n/a
3903.132	n/a	RECOG_RESP	1951566	n/a	LTP206	ltpFR	4	6	n/a	CREATURE	403	n/a	n/a	n/a	n/a	n/a	n/a	n/a
3905.172	n/a	RECOG_CONF	1952586	n/a	LTP206	ltpFR	4	6	n/a	CREATURE	403	3	n/a	n/a	n/a	n/a	n/a	n/a
3906.854	n/a	RECOG_TARGET	1953427	n/a	LTP206	ltpFR	4	6	0	FROG	608	5	0	n/a	n/a	n/a	n/a	n/a
3907.848	n/a	RECOG_RESP	1953924	n/a	LTP206	ltpFR	4	6	0	FROG	608	n/a	0	n/a	n/a	n/a	n/a	n/a
3909.294	n/a	RECOG_CONF	1954647	n/a	LTP206	ltpFR	4	6	0	FROG	608	5	0	n/a	n/a	n/a	n/a	n/a
3911.068	n/a	RECOG_TARGET	1955534	n/a	LTP206	ltpFR	4	6	0	PASTA	1021	5	0	n/a	n/a	n/a	n/a	n/a
3911.878	n/a	RECOG_RESP	1955939	n/a	LTP206	ltpFR	4	6	0	PASTA	1021	n/a	0	n/a	n/a	n/a	n/a	n/a
3913.346	n/a	RECOG_CONF	1956673	n/a	LTP206	ltpFR	4	6	0	PASTA	1021	5	0	n/a	n/a	n/a	n/a	n/a
3915.296	n/a	RECOG_LURE	1957648	n/a	LTP206	ltpFR	4	6	n/a	LIVER	833	5	n/a	n/a	n/a	n/a	n/a	n/a
3916.508	n/a	RECOG_RESP	1958254	n/a	LTP206	ltpFR	4	6	n/a	LIVER	833	n/a	n/a	n/a	n/a	n/a	n/a	n/a
3918.004	n/a	RECOG_CONF	1959002	n/a	LTP206	ltpFR	4	6	n/a	LIVER	833	5	n/a	n/a	n/a	n/a	n/a	n/a
3919.902	n/a	RECOG_TARGET	1959951	n/a	LTP206	ltpFR	4	6	-1	BOARD	143	4	-1	n/a	n/a	n/a	n/a	n/a
3921.122	n/a	RECOG_RESP	1960561	n/a	LTP206	ltpFR	4	6	-1	BOARD	143	n/a	-1	n/a	n/a	n/a	n/a	n/a
3922.534	n/a	RECOG_CONF	1961267	n/a	LTP206	ltpFR	4	6	-1	BOARD	143	4	-1	n/a	n/a	n/a	n/a	n/a
3924.348	n/a	RECOG_LURE	1962174	n/a	LTP206	ltpFR	4	6	n/a	SOLDIER	1344	3	n/a	n/a	n/a	n/a	n/a	n/a
3925.528	n/a	RECOG_RESP	1962764	n/a	LTP206	ltpFR	4	6	n/a	SOLDIER	1344	n/a	n/a	n/a	n/a	n/a	n/a	n/a
3927.484	n/a	RECOG_CONF	1963742	n/a	LTP206	ltpFR	4	6	n/a	SOLDIER	1344	3	n/a	n/a	n/a	n/a	n/a	n/a
3929.29	n/a	RECOG_LURE	1964645	n/a	LTP206	ltpFR	4	6	n/a	SPOOL	1356	3	n/a	n/a	n/a	n/a	n/a	n/a
3930.992	n/a	RECOG_RESP	1965496	n/a	LTP206	ltpFR	4	6	n/a	SPOOL	1356	n/a	n/a	n/a	n/a	n/a	n/a	n/a
3932.912	n/a	RECOG_CONF	1966456	n/a	LTP206	ltpFR	4	6	n/a	SPOOL	1356	3	n/a	n/a	n/a	n/a	n/a	n/a
3934.658	n/a	RECOG_TARGET	1967329	n/a	LTP206	ltpFR	4	6	0	EMPEROR	529	5	1	n/a	n/a	n/a	n/a	n/a
3935.856	n/a	RECOG_RESP	1967928	n/a	LTP206	ltpFR	4	6	0	EMPEROR	529	n/a	1	n/a	n/a	n/a	n/a	n/a
3937.042	n/a	RECOG_CONF	1968521	n/a	LTP206	ltpFR	4	6	0	EMPEROR	529	5	1	n/a	n/a	n/a	n/a	n/a
3938.858	n/a	RECOG_TARGET	1969429	n/a	LTP206	ltpFR	4	6	-1	MOTEL	919	4	-1	n/a	n/a	n/a	n/a	n/a
3940.3	n/a	RECOG_RESP	1970150	n/a	LTP206	ltpFR	4	6	-1	MOTEL	919	n/a	-1	n/a	n/a	n/a	n/a	n/a
3942.14	n/a	RECOG_CONF	1971070	n/a	LTP206	ltpFR	4	6	-1	MOTEL	919	4	-1	n/a	n/a	n/a	n/a	n/a
3943.728	n/a	RECOG_TARGET	1971864	n/a	LTP206	ltpFR	4	6	1	COACH	331	5	1	n/a	n/a	n/a	n/a	n/a
3944.91	n/a	RECOG_RESP	1972455	n/a	LTP206	ltpFR	4	6	1	COACH	331	n/a	1	n/a	n/a	n/a	n/a	n/a
3946.202	n/a	RECOG_CONF	1973101	n/a	LTP206	ltpFR	4	6	1	COACH	331	5	1	n/a	n/a	n/a	n/a	n/a
3948.026	n/a	RECOG_LURE	1974013	n/a	LTP206	ltpFR	4	6	n/a	LASH	802	4	n/a	n/a	n/a	n/a	n/a	n/a
3948.972	n/a	RECOG_RESP	1974486	n/a	LTP206	ltpFR	4	6	n/a	LASH	802	n/a	n/a	n/a	n/a	n/a	n/a	n/a
3950.344	n/a	RECOG_CONF	1975172	n/a	LTP206	ltpFR	4	6	n/a	LASH	802	4	n/a	n/a	n/a	n/a	n/a	n/a
3952.186	n/a	RECOG_LURE	1976093	n/a	LTP206	ltpFR	4	6	n/a	WHEAT	1602	3	n/a	n/a	n/a	n/a	n/a	n/a
3953.576	n/a	RECOG_RESP	1976788	n/a	LTP206	ltpFR	4	6	n/a	WHEAT	1602	n/a	n/a	n/a	n/a	n/a	n/a	n/a
3955.68	n/a	RECOG_CONF	1977840	n/a	LTP206	ltpFR	4	6	n/a	WHEAT	1602	3	n/a	n/a	n/a	n/a	n/a	n/a
3967.79	n/a	REC_START	1983895	n/a	LTP206	ltpFR	4	7	n/a	n/a	n/a	n/a	n/a	n/a	n/a	n/a	n/a	n/a
3967.836	n/a	RECOG_LURE	1983918	n/a	LTP206	ltpFR	4	7	n/a	YOUTH	1634	5	n/a	n/a	n/a	n/a	n/a	n/a
3969.206	n/a	RECOG_RESP	1984603	n/a	LTP206	ltpFR	4	7	n/a	YOUTH	1634	n/a	n/a	n/a	n/a	n/a	n/a	n/a
3970.418	n/a	RECOG_CONF	1985209	n/a	LTP206	ltpFR	4	7	n/a	YOUTH	1634	5	n/a	n/a	n/a	n/a	n/a	n/a
3972.202	n/a	RECOG_TARGET	1986101	n/a	LTP206	ltpFR	4	7	1	WELL	1600	4	0	n/a	n/a	n/a	n/a	n/a
3973.402	n/a	RECOG_RESP	1986701	n/a	LTP206	ltpFR	4	7	1	WELL	1600	n/a	0	n/a	n/a	n/a	n/a	n/a
3974.848	n/a	RECOG_CONF	1987424	n/a	LTP206	ltpFR	4	7	1	WELL	1600	4	0	n/a	n/a	n/a	n/a	n/a
3976.53	n/a	RECOG_LURE	1988265	n/a	LTP206	ltpFR	4	7	n/a	CAPTIVE	240	3	n/a	n/a	n/a	n/a	n/a	n/a
3977.876	n/a	RECOG_RESP	1988938	n/a	LTP206	ltpFR	4	7	n/a	CAPTIVE	240	n/a	n/a	n/a	n/a	n/a	n/a	n/a
3979.738	n/a	RECOG_CONF	1989869	n/a	LTP206	ltpFR	4	7	n/a	CAPTIVE	240	3	n/a	n/a	n/a	n/a	n/a	n/a
3981.17	n/a	RECOG_TARGET	1990585	n/a	LTP206	ltpFR	4	7	-1	ANIMAL	23	5	-1	n/a	n/a	n/a	n/a	n/a
3982.148	n/a	RECOG_RESP	1991074	n/a	LTP206	ltpFR	4	7	-1	ANIMAL	23	n/a	-1	n/a	n/a	n/a	n/a	n/a
3983.77	n/a	RECOG_CONF	1991885	n/a	LTP206	ltpFR	4	7	-1	ANIMAL	23	5	-1	n/a	n/a	n/a	n/a	n/a
3985.554	n/a	RECOG_TARGET	1992777	n/a	LTP206	ltpFR	4	7	1	OTTER	986	5	1	n/a	n/a	n/a	n/a	n/a
3986.532	n/a	RECOG_RESP	1993266	n/a	LTP206	ltpFR	4	7	1	OTTER	986	n/a	1	n/a	n/a	n/a	n/a	n/a
3987.89	n/a	RECOG_CONF	1993945	n/a	LTP206	ltpFR	4	7	1	OTTER	986	5	1	n/a	n/a	n/a	n/a	n/a
3989.736	n/a	RECOG_TARGET	1994868	n/a	LTP206	ltpFR	4	7	1	FOREHEAD	592	5	1	n/a	n/a	n/a	n/a	n/a
3990.574	n/a	RECOG_RESP	1995287	n/a	LTP206	ltpFR	4	7	1	FOREHEAD	592	n/a	1	n/a	n/a	n/a	n/a	n/a
3991.9	n/a	RECOG_CONF	1995950	n/a	LTP206	ltpFR	4	7	1	FOREHEAD	592	5	1	n/a	n/a	n/a	n/a	n/a
3993.6	n/a	RECOG_TARGET	1996800	n/a	LTP206	ltpFR	4	7	0	DAM	436	5	1	n/a	n/a	n/a	n/a	n/a
3994.36	n/a	RECOG_RESP	1997180	n/a	LTP206	ltpFR	4	7	0	DAM	436	n/a	1	n/a	n/a	n/a	n/a	n/a
3995.572	n/a	RECOG_CONF	1997786	n/a	LTP206	ltpFR	4	7	0	DAM	436	5	1	n/a	n/a	n/a	n/a	n/a
3997.442	n/a	RECOG_TARGET	1998721	n/a	LTP206	ltpFR	4	7	1	APE	31	5	1	n/a	n/a	n/a	n/a	n/a
3998.39	n/a	RECOG_RESP	1999195	n/a	LTP206	ltpFR	4	7	1	APE	31	n/a	1	n/a	n/a	n/a	n/a	n/a
4000.202	n/a	RECOG_CONF	2000101	n/a	LTP206	ltpFR	4	7	1	APE	31	5	1	n/a	n/a	n/a	n/a	n/a
4001.994	n/a	RECOG_LURE	2000997	n/a	LTP206	ltpFR	4	7	n/a	PLANET	1082	4	n/a	n/a	n/a	n/a	n/a	n/a
4002.946	n/a	RECOG_RESP	2001473	n/a	LTP206	ltpFR	4	7	n/a	PLANET	1082	n/a	n/a	n/a	n/a	n/a	n/a	n/a
4004.632	n/a	RECOG_CONF	2002316	n/a	LTP206	ltpFR	4	7	n/a	PLANET	1082	4	n/a	n/a	n/a	n/a	n/a	n/a
4006.378	n/a	RECOG_TARGET	2003189	n/a	LTP206	ltpFR	4	7	-1	PANTS	1010	5	-1	n/a	n/a	n/a	n/a	n/a
4007.356	n/a	RECOG_RESP	2003678	n/a	LTP206	ltpFR	4	7	-1	PANTS	1010	n/a	-1	n/a	n/a	n/a	n/a	n/a
4008.872	n/a	RECOG_CONF	2004436	n/a	LTP206	ltpFR	4	7	-1	PANTS	1010	5	-1	n/a	n/a	n/a	n/a	n/a
4010.498	n/a	RECOG_LURE	2005249	n/a	LTP206	ltpFR	4	7	n/a	BAG	69	4	n/a	n/a	n/a	n/a	n/a	n/a
4011.726	n/a	RECOG_RESP	2005863	n/a	LTP206	ltpFR	4	7	n/a	BAG	69	n/a	n/a	n/a	n/a	n/a	n/a	n/a
4013.562	n/a	RECOG_CONF	2006781	n/a	LTP206	ltpFR	4	7	n/a	BAG	69	4	n/a	n/a	n/a	n/a	n/a	n/a
4015.15	n/a	RECOG_TARGET	2007575	n/a	LTP206	ltpFR	4	7	0	SPY	1360	5	1	n/a	n/a	n/a	n/a	n/a
4016.036	n/a	RECOG_RESP	2008018	n/a	LTP206	ltpFR	4	7	0	SPY	1360	n/a	1	n/a	n/a	n/a	n/a	n/a
4017.424	n/a	RECOG_CONF	2008712	n/a	LTP206	ltpFR	4	7	0	SPY	1360	5	1	n/a	n/a	n/a	n/a	n/a
4019.148	n/a	RECOG_TARGET	2009574	n/a	LTP206	ltpFR	4	7	1	CHEST	295	5	0	n/a	n/a	n/a	n/a	n/a
4020.054	n/a	RECOG_RESP	2010027	n/a	LTP206	ltpFR	4	7	1	CHEST	295	n/a	0	n/a	n/a	n/a	n/a	n/a
