onset	duration	trial_type	sample	stim_file	subject	experiment	session	trial	task	item_name	item_num	recog_resp	recog_conf	resp	color_r	color_g	color_b	case	font
241.838	n/a	SESS_START	120919	n/a	LTP064	ltpFR	15	n/a	n/a	n/a	n/a	1	2	n/a	n/a	n/a	n/a	n/a	n/a
345.588	n/a	WORD	172794	wordpools/wasnorm_wordpool.txt	LTP064	ltpFR	15	1	0	ANTEATER	26	0	n/a	1	0.422607421875	0.5869140625	0	upper	zerothre.ttf
349.724	n/a	WORD	174862	wordpools/wasnorm_wordpool.txt	LTP064	ltpFR	15	1	0	SEASHORE	1263	n/a	n/a	1	0.422607421875	0.5869140625	0	upper	zerothre.ttf
353.812	n/a	WORD	176906	wordpools/wasnorm_wordpool.txt	LTP064	ltpFR	15	1	0	PLUMBER	1091	n/a	n/a	1	0.422607421875	0.5869140625	0	upper	zerothre.ttf
357.99	n/a	WORD	178995	wordpools/wasnorm_wordpool.txt	LTP064	ltpFR	15	1	0	SEAGULL	1261	n/a	n/a	1	0.422607421875	0.5869140625	0	upper	zerothre.ttf
362.152	n/a	WORD	181076	wordpools/wasnorm_wordpool.txt	LTP064	ltpFR	15	1	1	CHEESE	289	n/a	n/a	0	0.57763671875	0.412841796875	1	lower	amplitud.ttf
366.298	n/a	WORD	183149	wordpools/wasnorm_wordpool.txt	LTP064	ltpFR	15	1	1	SALAD	1224	n/a	n/a	0	0.57763671875	0.412841796875	1	lower	amplitud.ttf
370.394	n/a	WORD	185197	wordpools/wasnorm_wordpool.txt	LTP064	ltpFR	15	1	1	POTATO	1115	n/a	n/a	0	0.57763671875	0.412841796875	1	lower	amplitud.ttf
374.33	n/a	WORD	187165	wordpools/wasnorm_wordpool.txt	LTP064	ltpFR	15	1	1	TECHNICIAN	1443	n/a	n/a	1	0.57763671875	0.412841796875	1	lower	amplitud.ttf
378.226	n/a	WORD	189113	wordpools/wasnorm_wordpool.txt	LTP064	ltpFR	15	1	0	NEWSPAPER	948	n/a	n/a	0	0.422607421875	0.5869140625	0	upper	zerothre.ttf
382.356	n/a	WORD	191178	wordpools/wasnorm_wordpool.txt	LTP064	ltpFR	15	1	0	EDITORIAL	517	n/a	n/a	0	0.422607421875	0.5869140625	0	upper	zerothre.ttf
386.218	n/a	WORD	193109	wordpools/wasnorm_wordpool.txt	LTP064	ltpFR	15	1	0	ANIMAL	23	n/a	n/a	1	0.422607421875	0.5869140625	0	upper	zerothre.ttf
390.254	n/a	WORD	195127	wordpools/wasnorm_wordpool.txt	LTP064	ltpFR	15	1	0	SWAN	1417	n/a	n/a	1	0.422607421875	0.5869140625	0	upper	zerothre.ttf
394.182	n/a	WORD	197091	wordpools/wasnorm_wordpool.txt	LTP064	ltpFR	15	1	1	STRAWBERRY	1391	n/a	n/a	1	0.57763671875	0.412841796875	1	lower	amplitud.ttf
398.378	n/a	WORD	199189	wordpools/wasnorm_wordpool.txt	LTP064	ltpFR	15	1	1	UMBRELLA	1534	n/a	n/a	0	0.57763671875	0.412841796875	1	lower	amplitud.ttf
402.256	n/a	WORD	201128	wordpools/wasnorm_wordpool.txt	LTP064	ltpFR	15	1	1	TOMBSTONE	1478	n/a	n/a	0	0.57763671875	0.412841796875	1	lower	amplitud.ttf
406.252	n/a	WORD	203126	wordpools/wasnorm_wordpool.txt	LTP064	ltpFR	15	1	1	TERMINAL	1450	n/a	n/a	0	0.57763671875	0.412841796875	1	lower	amplitud.ttf
412.188	n/a	REC_START	206094	n/a	LTP064	ltpFR	15	1	n/a	n/a	n/a	n/a	n/a	n/a	n/a	n/a	n/a	n/a	n/a
412.368	n/a	REC_WORD	206184	wordpools/wasnorm_wordpool.txt	LTP064	ltpFR	15	1	1	STRAWBERRY	1391	n/a	n/a	1	n/a	n/a	n/a	n/a	n/a
413.19	n/a	REC_WORD	206595	wordpools/wasnorm_wordpool.txt	LTP064	ltpFR	15	1	1	UMBRELLA	1534	n/a	n/a	0	n/a	n/a	n/a	n/a	n/a
413.896	n/a	REC_WORD	206948	wordpools/wasnorm_wordpool.txt	LTP064	ltpFR	15	1	1	TERMINAL	1450	n/a	n/a	0	n/a	n/a	n/a	n/a	n/a
414.586	n/a	REC_WORD	207293	wordpools/wasnorm_wordpool.txt	LTP064	ltpFR	15	1	1	TOMBSTONE	1478	n/a	n/a	0	n/a	n/a	n/a	n/a	n/a
415.58	n/a	REC_WORD	207790	wordpools/wasnorm_wordpool.txt	LTP064	ltpFR	15	1	0	ANTEATER	26	n/a	n/a	1	n/a	n/a	n/a	n/a	n/a
416.738	n/a	REC_WORD	208369	wordpools/wasnorm_wordpool.txt	LTP064	ltpFR	15	1	0	SEASHORE	1263	n/a	n/a	1	n/a	n/a	n/a	n/a	n/a
417.656	n/a	REC_WORD	208828	wordpools/wasnorm_wordpool.txt	LTP064	ltpFR	15	1	0	PLUMBER	1091	n/a	n/a	1	n/a	n/a	n/a	n/a	n/a
418.33	n/a	REC_WORD	209165	wordpools/wasnorm_wordpool.txt	LTP064	ltpFR	15	1	0	SEAGULL	1261	n/a	n/a	1	n/a	n/a	n/a	n/a	n/a
420.29	n/a	REC_WORD	210145	wordpools/wasnorm_wordpool.txt	LTP064	ltpFR	15	1	1	CHEESE	289	n/a	n/a	0	n/a	n/a	n/a	n/a	n/a
421.254	n/a	REC_WORD	210627	wordpools/wasnorm_wordpool.txt	LTP064	ltpFR	15	1	1	SALAD	1224	n/a	n/a	0	n/a	n/a	n/a	n/a	n/a
422.066	n/a	REC_WORD	211033	wordpools/wasnorm_wordpool.txt	LTP064	ltpFR	15	1	1	POTATO	1115	n/a	n/a	0	n/a	n/a	n/a	n/a	n/a
422.972	n/a	REC_WORD	211486	wordpools/wasnorm_wordpool.txt	LTP064	ltpFR	15	1	1	TECHNICIAN	1443	n/a	n/a	1	n/a	n/a	n/a	n/a	n/a
431.324	n/a	REC_WORD	215662	wordpools/wasnorm_wordpool.txt	LTP064	ltpFR	15	1	1	UMBRELLA	1534	n/a	n/a	0	n/a	n/a	n/a	n/a	n/a
442.924	n/a	REC_WORD	221462	wordpools/wasnorm_wordpool.txt	LTP064	ltpFR	15	1	0	NEWSPAPER	948	n/a	n/a	0	n/a	n/a	n/a	n/a	n/a
443.584	n/a	REC_WORD	221792	wordpools/wasnorm_wordpool.txt	LTP064	ltpFR	15	1	0	EDITORIAL	517	n/a	n/a	0	n/a	n/a	n/a	n/a	n/a
444.436	n/a	REC_WORD	222218	wordpools/wasnorm_wordpool.txt	LTP064	ltpFR	15	1	0	SWAN	1417	n/a	n/a	1	n/a	n/a	n/a	n/a	n/a
445.028	n/a	REC_WORD	222514	wordpools/wasnorm_wordpool.txt	LTP064	ltpFR	15	1	0	ANIMAL	23	n/a	n/a	1	n/a	n/a	n/a	n/a	n/a
499.044	n/a	WORD	249522	wordpools/wasnorm_wordpool.txt	LTP064	ltpFR	15	2	1	HOSTAGE	722	n/a	n/a	1	0.57763671875	0.412841796875	1	lower	amplitud.ttf
502.89	n/a	WORD	251445	wordpools/wasnorm_wordpool.txt	LTP064	ltpFR	15	2	1	RELISH	1183	n/a	n/a	1	0.57763671875	0.412841796875	1	lower	amplitud.ttf
507.086	n/a	WORD	253543	wordpools/wasnorm_wordpool.txt	LTP064	ltpFR	15	2	1	MALL	860	n/a	n/a	0	0.57763671875	0.412841796875	1	lower	amplitud.ttf
511.238	n/a	WORD	255619	wordpools/wasnorm_wordpool.txt	LTP064	ltpFR	15	2	1	BOUILLON	154	n/a	n/a	0	0.57763671875	0.412841796875	1	lower	amplitud.ttf
515.408	n/a	WORD	257704	wordpools/wasnorm_wordpool.txt	LTP064	ltpFR	15	2	1	FIGHTER	564	n/a	n/a	1	0.57763671875	0.412841796875	1	lower	amplitud.ttf
519.37	n/a	WORD	259685	wordpools/wasnorm_wordpool.txt	LTP064	ltpFR	15	2	1	HELICOPTER	701	n/a	n/a	1	0.57763671875	0.412841796875	1	lower	amplitud.ttf
523.484	n/a	WORD	261742	wordpools/wasnorm_wordpool.txt	LTP064	ltpFR	15	2	0	STEW	1380	n/a	n/a	0	0.422607421875	0.5869140625	0	upper	zerothre.ttf
527.636	n/a	WORD	263818	wordpools/wasnorm_wordpool.txt	LTP064	ltpFR	15	2	0	LUNG	850	n/a	n/a	0	0.422607421875	0.5869140625	0	upper	zerothre.ttf
531.55	n/a	WORD	265775	wordpools/wasnorm_wordpool.txt	LTP064	ltpFR	15	2	0	SHORE	1291	n/a	n/a	0	0.422607421875	0.5869140625	0	upper	zerothre.ttf
535.444	n/a	WORD	267722	wordpools/wasnorm_wordpool.txt	LTP064	ltpFR	15	2	0	RELATIVE	1182	n/a	n/a	1	0.422607421875	0.5869140625	0	upper	zerothre.ttf
539.656	n/a	WORD	269828	wordpools/wasnorm_wordpool.txt	LTP064	ltpFR	15	2	1	ROOMMATE	1207	n/a	n/a	1	0.57763671875	0.412841796875	1	lower	amplitud.ttf
543.842	n/a	WORD	271921	wordpools/wasnorm_wordpool.txt	LTP064	ltpFR	15	2	1	STREAM	1392	n/a	n/a	1	0.57763671875	0.412841796875	1	lower	amplitud.ttf
547.846	n/a	WORD	273923	wordpools/wasnorm_wordpool.txt	LTP064	ltpFR	15	2	0	LIMOUSINE	824	n/a	n/a	1	0.422607421875	0.5869140625	0	upper	zerothre.ttf
551.908	n/a	WORD	275954	wordpools/wasnorm_wordpool.txt	LTP064	ltpFR	15	2	0	SPONGE	1355	n/a	n/a	0	0.422607421875	0.5869140625	0	upper	zerothre.ttf
555.894	n/a	WORD	277947	wordpools/wasnorm_wordpool.txt	LTP064	ltpFR	15	2	0	RAG	1160	n/a	n/a	0	0.422607421875	0.5869140625	0	upper	zerothre.ttf
560.058	n/a	WORD	280029	wordpools/wasnorm_wordpool.txt	LTP064	ltpFR	15	2	0	RUST	1219	n/a	n/a	0	0.422607421875	0.5869140625	0	upper	zerothre.ttf
565.818	n/a	REC_START	282909	n/a	LTP064	ltpFR	15	2	n/a	n/a	n/a	n/a	n/a	n/a	n/a	n/a	n/a	n/a	n/a
566.322	n/a	REC_WORD	283161	wordpools/wasnorm_wordpool.txt	LTP064	ltpFR	15	2	0	LIMOUSINE	824	n/a	n/a	1	n/a	n/a	n/a	n/a	n/a
566.872	n/a	REC_WORD	283436	wordpools/wasnorm_wordpool.txt	LTP064	ltpFR	15	2	0	SPONGE	1355	n/a	n/a	0	n/a	n/a	n/a	n/a	n/a
567.492	n/a	REC_WORD	283746	wordpools/wasnorm_wordpool.txt	LTP064	ltpFR	15	2	0	RAG	1160	n/a	n/a	0	n/a	n/a	n/a	n/a	n/a
567.99	n/a	REC_WORD	283995	wordpools/wasnorm_wordpool.txt	LTP064	ltpFR	15	2	0	RUST	1219	n/a	n/a	0	n/a	n/a	n/a	n/a	n/a
569.748	n/a	REC_WORD	284874	wordpools/wasnorm_wordpool.txt	LTP064	ltpFR	15	2	1	HOSTAGE	722	n/a	n/a	1	n/a	n/a	n/a	n/a	n/a
571.43	n/a	REC_WORD	285715	wordpools/wasnorm_wordpool.txt	LTP064	ltpFR	15	2	1	BOUILLON	154	n/a	n/a	0	n/a	n/a	n/a	n/a	n/a
572.258	n/a	REC_WORD	286129	wordpools/wasnorm_wordpool.txt	LTP064	ltpFR	15	2	1	MALL	860	n/a	n/a	0	n/a	n/a	n/a	n/a	n/a
574.678	n/a	REC_WORD	287339	wordpools/wasnorm_wordpool.txt	LTP064	ltpFR	15	2	1	RELISH	1183	n/a	n/a	1	n/a	n/a	n/a	n/a	n/a
577.092	n/a	REC_WORD	288546	wordpools/wasnorm_wordpool.txt	LTP064	ltpFR	15	2	0	SEASHORE	1263	n/a	n/a	1	n/a	n/a	n/a	n/a	n/a
578.092	n/a	REC_WORD_VV	289046	wordpools/wasnorm_wordpool.txt	LTP064	ltpFR	15	2	n/a	<>	-1	n/a	n/a	n/a	n/a	n/a	n/a	n/a	n/a
580.498	n/a	REC_WORD	290249	wordpools/wasnorm_wordpool.txt	LTP064	ltpFR	15	2	0	SHORE	1291	n/a	n/a	0	n/a	n/a	n/a	n/a	n/a
581.28	n/a	REC_WORD	290640	wordpools/wasnorm_wordpool.txt	LTP064	ltpFR	15	2	0	RELATIVE	1182	n/a	n/a	1	n/a	n/a	n/a	n/a	n/a
581.906	n/a	REC_WORD	290953	wordpools/wasnorm_wordpool.txt	LTP064	ltpFR	15	2	1	STREAM	1392	n/a	n/a	1	n/a	n/a	n/a	n/a	n/a
583.058	n/a	REC_WORD	291529	wordpools/wasnorm_wordpool.txt	LTP064	ltpFR	15	2	1	ROOMMATE	1207	n/a	n/a	1	n/a	n/a	n/a	n/a	n/a
612.826	n/a	REC_WORD	306413	wordpools/wasnorm_wordpool.txt	LTP064	ltpFR	15	2	n/a	SKIRT	1319	n/a	n/a	n/a	n/a	n/a	n/a	n/a	n/a
618.03	n/a	REC_WORD	309015	wordpools/wasnorm_wordpool.txt	LTP064	ltpFR	15	2	0	LUNG	850	n/a	n/a	0	n/a	n/a	n/a	n/a	n/a
618.432	n/a	REC_WORD	309216	wordpools/wasnorm_wordpool.txt	LTP064	ltpFR	15	2	0	STEW	1380	n/a	n/a	0	n/a	n/a	n/a	n/a	n/a
618.842	n/a	REC_WORD	309421	wordpools/wasnorm_wordpool.txt	LTP064	ltpFR	15	2	1	FIGHTER	564	n/a	n/a	1	n/a	n/a	n/a	n/a	n/a
619.302	n/a	REC_WORD	309651	wordpools/wasnorm_wordpool.txt	LTP064	ltpFR	15	2	1	HELICOPTER	701	n/a	n/a	1	n/a	n/a	n/a	n/a	n/a
651.376	n/a	WORD	325688	wordpools/wasnorm_wordpool.txt	LTP064	ltpFR	15	3	-1	BOOTH	151	n/a	n/a	-1	1.0	1.0	1	upper	Verdana.ttf
655.448	n/a	WORD	327724	wordpools/wasnorm_wordpool.txt	LTP064	ltpFR	15	3	-1	ANCHOR	21	n/a	n/a	-1	1.0	1.0	1	upper	Verdana.ttf
659.426	n/a	WORD	329713	wordpools/wasnorm_wordpool.txt	LTP064	ltpFR	15	3	-1	VIKING	1565	n/a	n/a	-1	1.0	1.0	1	upper	Verdana.ttf
663.412	n/a	WORD	331706	wordpools/wasnorm_wordpool.txt	LTP064	ltpFR	15	3	-1	SHED	1277	n/a	n/a	-1	1.0	1.0	1	upper	Verdana.ttf
667.442	n/a	WORD	333721	wordpools/wasnorm_wordpool.txt	LTP064	ltpFR	15	3	-1	RULER	1216	n/a	n/a	-1	1.0	1.0	1	upper	Verdana.ttf
671.454	n/a	WORD	335727	wordpools/wasnorm_wordpool.txt	LTP064	ltpFR	15	3	-1	SENATOR	1268	n/a	n/a	-1	1.0	1.0	1	upper	Verdana.ttf
675.392	n/a	WORD	337696	wordpools/wasnorm_wordpool.txt	LTP064	ltpFR	15	3	-1	GAZELLE	628	n/a	n/a	-1	1.0	1.0	1	upper	Verdana.ttf
679.57	n/a	WORD	339785	wordpools/wasnorm_wordpool.txt	LTP064	ltpFR	15	3	-1	FIDDLE	561	n/a	n/a	-1	1.0	1.0	1	upper	Verdana.ttf
683.398	n/a	WORD	341699	wordpools/wasnorm_wordpool.txt	LTP064	ltpFR	15	3	-1	TOY	1492	n/a	n/a	-1	1.0	1.0	1	upper	Verdana.ttf
687.428	n/a	WORD	343714	wordpools/wasnorm_wordpool.txt	LTP064	ltpFR	15	3	-1	ELEPHANT	523	n/a	n/a	-1	1.0	1.0	1	upper	Verdana.ttf
691.472	n/a	WORD	345736	wordpools/wasnorm_wordpool.txt	LTP064	ltpFR	15	3	-1	COMB	351	n/a	n/a	-1	1.0	1.0	1	upper	Verdana.ttf
695.326	n/a	WORD	347663	wordpools/wasnorm_wordpool.txt	LTP064	ltpFR	15	3	-1	ASHTRAY	45	n/a	n/a	-1	1.0	1.0	1	upper	Verdana.ttf
699.314	n/a	WORD	349657	wordpools/wasnorm_wordpool.txt	LTP064	ltpFR	15	3	-1	RACKET	1155	n/a	n/a	-1	1.0	1.0	1	upper	Verdana.ttf
703.176	n/a	WORD	351588	wordpools/wasnorm_wordpool.txt	LTP064	ltpFR	15	3	-1	CONSOLE	364	n/a	n/a	-1	1.0	1.0	1	upper	Verdana.ttf
707.08	n/a	WORD	353540	wordpools/wasnorm_wordpool.txt	LTP064	ltpFR	15	3	-1	CHAUFFEUR	283	n/a	n/a	-1	1.0	1.0	1	upper	Verdana.ttf
711.0	n/a	WORD	355500	wordpools/wasnorm_wordpool.txt	LTP064	ltpFR	15	3	-1	PIPE	1073	n/a	n/a	-1	1.0	1.0	1	upper	Verdana.ttf
717.01	n/a	REC_START	358505	n/a	LTP064	ltpFR	15	3	n/a	n/a	n/a	n/a	n/a	n/a	n/a	n/a	n/a	n/a	n/a
717.284	n/a	REC_WORD	358642	wordpools/wasnorm_wordpool.txt	LTP064	ltpFR	15	3	-1	CONSOLE	364	n/a	n/a	-1	n/a	n/a	n/a	n/a	n/a
717.85	n/a	REC_WORD	358925	wordpools/wasnorm_wordpool.txt	LTP064	ltpFR	15	3	-1	RACKET	1155	n/a	n/a	-1	n/a	n/a	n/a	n/a	n/a
718.306	n/a	REC_WORD	359153	wordpools/wasnorm_wordpool.txt	LTP064	ltpFR	15	3	-1	CHAUFFEUR	283	n/a	n/a	-1	n/a	n/a	n/a	n/a	n/a
718.944	n/a	REC_WORD	359472	wordpools/wasnorm_wordpool.txt	LTP064	ltpFR	15	3	-1	PIPE	1073	n/a	n/a	-1	n/a	n/a	n/a	n/a	n/a
719.842	n/a	REC_WORD	359921	wordpools/wasnorm_wordpool.txt	LTP064	ltpFR	15	3	-1	TOY	1492	n/a	n/a	-1	n/a	n/a	n/a	n/a	n/a
720.37	n/a	REC_WORD	360185	wordpools/wasnorm_wordpool.txt	LTP064	ltpFR	15	3	-1	ELEPHANT	523	n/a	n/a	-1	n/a	n/a	n/a	n/a	n/a
720.878	n/a	REC_WORD	360439	wordpools/wasnorm_wordpool.txt	LTP064	ltpFR	15	3	-1	ASHTRAY	45	n/a	n/a	-1	n/a	n/a	n/a	n/a	n/a
722.338	n/a	REC_WORD	361169	wordpools/wasnorm_wordpool.txt	LTP064	ltpFR	15	3	-1	COMB	351	n/a	n/a	-1	n/a	n/a	n/a	n/a	n/a
723.724	n/a	REC_WORD	361862	wordpools/wasnorm_wordpool.txt	LTP064	ltpFR	15	3	-1	GAZELLE	628	n/a	n/a	-1	n/a	n/a	n/a	n/a	n/a
724.216	n/a	REC_WORD	362108	wordpools/wasnorm_wordpool.txt	LTP064	ltpFR	15	3	-1	FIDDLE	561	n/a	n/a	-1	n/a	n/a	n/a	n/a	n/a
724.77	n/a	REC_WORD	362385	wordpools/wasnorm_wordpool.txt	LTP064	ltpFR	15	3	-1	RULER	1216	n/a	n/a	-1	n/a	n/a	n/a	n/a	n/a
725.204	n/a	REC_WORD	362602	wordpools/wasnorm_wordpool.txt	LTP064	ltpFR	15	3	-1	SENATOR	1268	n/a	n/a	-1	n/a	n/a	n/a	n/a	n/a
726.716	n/a	REC_WORD	363358	wordpools/wasnorm_wordpool.txt	LTP064	ltpFR	15	3	-1	SHED	1277	n/a	n/a	-1	n/a	n/a	n/a	n/a	n/a
727.35	n/a	REC_WORD	363675	wordpools/wasnorm_wordpool.txt	LTP064	ltpFR	15	3	-1	VIKING	1565	n/a	n/a	-1	n/a	n/a	n/a	n/a	n/a
727.996	n/a	REC_WORD	363998	wordpools/wasnorm_wordpool.txt	LTP064	ltpFR	15	3	-1	BOOTH	151	n/a	n/a	-1	n/a	n/a	n/a	n/a	n/a
728.354	n/a	REC_WORD	364177	wordpools/wasnorm_wordpool.txt	LTP064	ltpFR	15	3	-1	ANCHOR	21	n/a	n/a	-1	n/a	n/a	n/a	n/a	n/a
803.916	n/a	WORD	401958	wordpools/wasnorm_wordpool.txt	LTP064	ltpFR	15	4	0	THIMBLE	1458	n/a	n/a	0	0.422607421875	0.5869140625	0	upper	zerothre.ttf
807.994	n/a	WORD	403997	wordpools/wasnorm_wordpool.txt	LTP064	ltpFR	15	4	0	GOWN	652	n/a	n/a	0	0.422607421875	0.5869140625	0	upper	zerothre.ttf
812.158	n/a	WORD	406079	wordpools/wasnorm_wordpool.txt	LTP064	ltpFR	15	4	0	DEER	444	n/a	n/a	1	0.422607421875	0.5869140625	0	upper	zerothre.ttf
816.212	n/a	WORD	408106	wordpools/wasnorm_wordpool.txt	LTP064	ltpFR	15	4	0	ANTENNA	28	n/a	n/a	1	0.422607421875	0.5869140625	0	upper	zerothre.ttf
820.408	n/a	WORD	410204	wordpools/wasnorm_wordpool.txt	LTP064	ltpFR	15	4	1	KNIFE	785	n/a	n/a	0	0.57763671875	0.412841796875	1	lower	amplitud.ttf
824.302	n/a	WORD	412151	wordpools/wasnorm_wordpool.txt	LTP064	ltpFR	15	4	1	MANAGER	863	n/a	n/a	1	0.57763671875	0.412841796875	1	lower	amplitud.ttf
828.432	n/a	WORD	414216	wordpools/wasnorm_wordpool.txt	LTP064	ltpFR	15	4	0	LOAF	835	n/a	n/a	0	0.422607421875	0.5869140625	0	upper	zerothre.ttf
832.584	n/a	WORD	416292	wordpools/wasnorm_wordpool.txt	LTP064	ltpFR	15	4	0	PARENT	1013	n/a	n/a	1	0.422607421875	0.5869140625	0	upper	zerothre.ttf
836.546	n/a	WORD	418273	wordpools/wasnorm_wordpool.txt	LTP064	ltpFR	15	4	0	LEAF	808	n/a	n/a	0	0.422607421875	0.5869140625	0	upper	zerothre.ttf
840.426	n/a	WORD	420213	wordpools/wasnorm_wordpool.txt	LTP064	ltpFR	15	4	0	SHRUB	1299	n/a	n/a	0	0.422607421875	0.5869140625	0	upper	zerothre.ttf
844.454	n/a	WORD	422227	wordpools/wasnorm_wordpool.txt	LTP064	ltpFR	15	4	1	GUARDIAN	668	n/a	n/a	0	0.57763671875	0.412841796875	1	lower	amplitud.ttf
848.624	n/a	WORD	424312	wordpools/wasnorm_wordpool.txt	LTP064	ltpFR	15	4	1	PATRIOT	1026	n/a	n/a	1	0.57763671875	0.412841796875	1	lower	amplitud.ttf
852.52	n/a	WORD	426260	wordpools/wasnorm_wordpool.txt	LTP064	ltpFR	15	4	1	DESSERT	453	n/a	n/a	0	0.57763671875	0.412841796875	1	lower	amplitud.ttf
856.648	n/a	WORD	428324	wordpools/wasnorm_wordpool.txt	LTP064	ltpFR	15	4	1	SECRETARY	1265	n/a	n/a	0	0.57763671875	0.412841796875	1	lower	amplitud.ttf
860.51	n/a	WORD	430255	wordpools/wasnorm_wordpool.txt	LTP064	ltpFR	15	4	1	PEACH	1031	n/a	n/a	1	0.57763671875	0.412841796875	1	lower	amplitud.ttf
864.614	n/a	WORD	432307	wordpools/wasnorm_wordpool.txt	LTP064	ltpFR	15	4	1	RAISIN	1163	n/a	n/a	1	0.57763671875	0.412841796875	1	lower	amplitud.ttf
870.35	n/a	REC_START	435175	n/a	LTP064	ltpFR	15	4	n/a	n/a	n/a	n/a	n/a	n/a	n/a	n/a	n/a	n/a	n/a
870.782	n/a	REC_WORD	435391	wordpools/wasnorm_wordpool.txt	LTP064	ltpFR	15	4	1	DESSERT	453	n/a	n/a	0	n/a	n/a	n/a	n/a	n/a
871.202	n/a	REC_WORD	435601	wordpools/wasnorm_wordpool.txt	LTP064	ltpFR	15	4	1	SECRETARY	1265	n/a	n/a	0	n/a	n/a	n/a	n/a	n/a
871.98	n/a	REC_WORD	435990	wordpools/wasnorm_wordpool.txt	LTP064	ltpFR	15	4	1	PEACH	1031	n/a	n/a	1	n/a	n/a	n/a	n/a	n/a
872.408	n/a	REC_WORD	436204	wordpools/wasnorm_wordpool.txt	LTP064	ltpFR	15	4	1	RAISIN	1163	n/a	n/a	1	n/a	n/a	n/a	n/a	n/a
873.486	n/a	REC_WORD	436743	wordpools/wasnorm_wordpool.txt	LTP064	ltpFR	15	4	0	LEAF	808	n/a	n/a	0	n/a	n/a	n/a	n/a	n/a
873.8	n/a	REC_WORD	436900	wordpools/wasnorm_wordpool.txt	LTP064	ltpFR	15	4	0	SHRUB	1299	n/a	n/a	0	n/a	n/a	n/a	n/a	n/a
874.582	n/a	REC_WORD	437291	wordpools/wasnorm_wordpool.txt	LTP064	ltpFR	15	4	1	GUARDIAN	668	n/a	n/a	0	n/a	n/a	n/a	n/a	n/a
875.216	n/a	REC_WORD	437608	wordpools/wasnorm_wordpool.txt	LTP064	ltpFR	15	4	1	PATRIOT	1026	n/a	n/a	1	n/a	n/a	n/a	n/a	n/a
876.006	n/a	REC_WORD	438003	wordpools/wasnorm_wordpool.txt	LTP064	ltpFR	15	4	1	KNIFE	785	n/a	n/a	0	n/a	n/a	n/a	n/a	n/a
876.446	n/a	REC_WORD	438223	wordpools/wasnorm_wordpool.txt	LTP064	ltpFR	15	4	1	MANAGER	863	n/a	n/a	1	n/a	n/a	n/a	n/a	n/a
877.04	n/a	REC_WORD	438520	wordpools/wasnorm_wordpool.txt	LTP064	ltpFR	15	4	0	PARENT	1013	n/a	n/a	1	n/a	n/a	n/a	n/a	n/a
877.566	n/a	REC_WORD	438783	wordpools/wasnorm_wordpool.txt	LTP064	ltpFR	15	4	0	LOAF	835	n/a	n/a	0	n/a	n/a	n/a	n/a	n/a
878.472	n/a	REC_WORD	439236	wordpools/wasnorm_wordpool.txt	LTP064	ltpFR	15	4	0	ANTENNA	28	n/a	n/a	1	n/a	n/a	n/a	n/a	n/a
879.322	n/a	REC_WORD	439661	wordpools/wasnorm_wordpool.txt	LTP064	ltpFR	15	4	0	DEER	444	n/a	n/a	1	n/a	n/a	n/a	n/a	n/a
881.26	n/a	REC_WORD	440630	wordpools/wasnorm_wordpool.txt	LTP064	ltpFR	15	4	0	THIMBLE	1458	n/a	n/a	0	n/a	n/a	n/a	n/a	n/a
881.704	n/a	REC_WORD	440852	wordpools/wasnorm_wordpool.txt	LTP064	ltpFR	15	4	0	GOWN	652	n/a	n/a	0	n/a	n/a	n/a	n/a	n/a
952.288	n/a	WORD	476144	wordpools/wasnorm_wordpool.txt	LTP064	ltpFR	15	5	0	OX	994	n/a	n/a	1	0.422607421875	0.5869140625	0	upper	zerothre.ttf
956.334	n/a	WORD	478167	wordpools/wasnorm_wordpool.txt	LTP064	ltpFR	15	5	0	BULL	193	n/a	n/a	1	0.422607421875	0.5869140625	0	upper	zerothre.ttf
960.52	n/a	WORD	480260	wordpools/wasnorm_wordpool.txt	LTP064	ltpFR	15	5	1	SURVEY	1414	n/a	n/a	0	0.57763671875	0.412841796875	1	lower	amplitud.ttf
964.64	n/a	WORD	482320	wordpools/wasnorm_wordpool.txt	LTP064	ltpFR	15	5	1	STRING	1394	n/a	n/a	0	0.57763671875	0.412841796875	1	lower	amplitud.ttf
968.61	n/a	WORD	484305	wordpools/wasnorm_wordpool.txt	LTP064	ltpFR	15	5	1	BLOUSE	139	n/a	n/a	0	0.57763671875	0.412841796875	1	lower	amplitud.ttf
972.622	n/a	WORD	486311	wordpools/wasnorm_wordpool.txt	LTP064	ltpFR	15	5	1	SWEATER	1419	n/a	n/a	0	0.57763671875	0.412841796875	1	lower	amplitud.ttf
976.536	n/a	WORD	488268	wordpools/wasnorm_wordpool.txt	LTP064	ltpFR	15	5	1	FENCE	560	n/a	n/a	0	0.57763671875	0.412841796875	1	lower	amplitud.ttf
980.722	n/a	WORD	490361	wordpools/wasnorm_wordpool.txt	LTP064	ltpFR	15	5	0	SLEEVE	1324	n/a	n/a	0	0.422607421875	0.5869140625	0	upper	zerothre.ttf
984.866	n/a	WORD	492433	wordpools/wasnorm_wordpool.txt	LTP064	ltpFR	15	5	0	BEE	112	n/a	n/a	0	0.422607421875	0.5869140625	0	upper	zerothre.ttf
988.912	n/a	WORD	494456	wordpools/wasnorm_wordpool.txt	LTP064	ltpFR	15	5	0	SERVANT	1271	n/a	n/a	1	0.422607421875	0.5869140625	0	upper	zerothre.ttf
992.79	n/a	WORD	496395	wordpools/wasnorm_wordpool.txt	LTP064	ltpFR	15	5	0	RESTAURANT	1187	n/a	n/a	1	0.422607421875	0.5869140625	0	upper	zerothre.ttf
996.72	n/a	WORD	498360	wordpools/wasnorm_wordpool.txt	LTP064	ltpFR	15	5	1	CATCHER	258	n/a	n/a	1	0.57763671875	0.412841796875	1	lower	amplitud.ttf
1000.822	n/a	WORD	500411	wordpools/wasnorm_wordpool.txt	LTP064	ltpFR	15	5	1	GHOST	634	n/a	n/a	1	0.57763671875	0.412841796875	1	lower	amplitud.ttf
1004.668	n/a	WORD	502334	wordpools/wasnorm_wordpool.txt	LTP064	ltpFR	15	5	1	BUTTON	207	n/a	n/a	0	0.57763671875	0.412841796875	1	lower	amplitud.ttf
1008.656	n/a	WORD	504328	wordpools/wasnorm_wordpool.txt	LTP064	ltpFR	15	5	0	SALESMAN	1225	n/a	n/a	1	0.422607421875	0.5869140625	0	upper	zerothre.ttf
1012.584	n/a	WORD	506292	wordpools/wasnorm_wordpool.txt	LTP064	ltpFR	15	5	0	GARAGE	621	n/a	n/a	1	0.422607421875	0.5869140625	0	upper	zerothre.ttf
1018.338	n/a	REC_START	509169	n/a	LTP064	ltpFR	15	5	n/a	n/a	n/a	n/a	n/a	n/a	n/a	n/a	n/a	n/a	n/a
1019.24	n/a	REC_WORD	509620	wordpools/wasnorm_wordpool.txt	LTP064	ltpFR	15	5	1	GHOST	634	n/a	n/a	1	n/a	n/a	n/a	n/a	n/a
1019.606	n/a	REC_WORD	509803	wordpools/wasnorm_wordpool.txt	LTP064	ltpFR	15	5	1	BUTTON	207	n/a	n/a	0	n/a	n/a	n/a	n/a	n/a
1019.912	n/a	REC_WORD	509956	wordpools/wasnorm_wordpool.txt	LTP064	ltpFR	15	5	0	SALESMAN	1225	n/a	n/a	1	n/a	n/a	n/a	n/a	n/a
1020.482	n/a	REC_WORD	510241	wordpools/wasnorm_wordpool.txt	LTP064	ltpFR	15	5	0	GARAGE	621	n/a	n/a	1	n/a	n/a	n/a	n/a	n/a
1021.32	n/a	REC_WORD	510660	wordpools/wasnorm_wordpool.txt	LTP064	ltpFR	15	5	0	BEE	112	n/a	n/a	0	n/a	n/a	n/a	n/a	n/a
1021.764	n/a	REC_WORD	510882	wordpools/wasnorm_wordpool.txt	LTP064	ltpFR	15	5	0	SERVANT	1271	n/a	n/a	1	n/a	n/a	n/a	n/a	n/a
1023.062	n/a	REC_WORD	511531	wordpools/wasnorm_wordpool.txt	LTP064	ltpFR	15	5	0	RESTAURANT	1187	n/a	n/a	1	n/a	n/a	n/a	n/a	n/a
1023.852	n/a	REC_WORD	511926	wordpools/wasnorm_wordpool.txt	LTP064	ltpFR	15	5	1	CATCHER	258	n/a	n/a	1	n/a	n/a	n/a	n/a	n/a
1024.456	n/a	REC_WORD	512228	wordpools/wasnorm_wordpool.txt	LTP064	ltpFR	15	5	0	OX	994	n/a	n/a	1	n/a	n/a	n/a	n/a	n/a
1024.926	n/a	REC_WORD	512463	wordpools/wasnorm_wordpool.txt	LTP064	ltpFR	15	5	0	BULL	193	n/a	n/a	1	n/a	n/a	n/a	n/a	n/a
1025.174	n/a	REC_WORD	512587	wordpools/wasnorm_wordpool.txt	LTP064	ltpFR	15	5	1	STRING	1394	n/a	n/a	0	n/a	n/a	n/a	n/a	n/a
1025.704	n/a	REC_WORD	512852	wordpools/wasnorm_wordpool.txt	LTP064	ltpFR	15	5	1	SURVEY	1414	n/a	n/a	0	n/a	n/a	n/a	n/a	n/a
1062.428	n/a	REC_WORD	531214	wordpools/wasnorm_wordpool.txt	LTP064	ltpFR	15	5	0	SLEEVE	1324	n/a	n/a	0	n/a	n/a	n/a	n/a	n/a
1062.994	n/a	REC_WORD	531497	wordpools/wasnorm_wordpool.txt	LTP064	ltpFR	15	5	1	FENCE	560	n/a	n/a	0	n/a	n/a	n/a	n/a	n/a
1063.542	n/a	REC_WORD	531771	wordpools/wasnorm_wordpool.txt	LTP064	ltpFR	15	5	1	SWEATER	1419	n/a	n/a	0	n/a	n/a	n/a	n/a	n/a
1064.184	n/a	REC_WORD	532092	wordpools/wasnorm_wordpool.txt	LTP064	ltpFR	15	5	1	BLOUSE	139	n/a	n/a	0	n/a	n/a	n/a	n/a	n/a
1110.072	n/a	WORD	555036	wordpools/wasnorm_wordpool.txt	LTP064	ltpFR	15	6	0	SWITCH	1422	n/a	n/a	1	0.422607421875	0.5869140625	0	upper	zerothre.ttf
1113.892	n/a	WORD	556946	wordpools/wasnorm_wordpool.txt	LTP064	ltpFR	15	6	0	VITAMIN	1574	n/a	n/a	1	0.422607421875	0.5869140625	0	upper	zerothre.ttf
1118.056	n/a	WORD	559028	wordpools/wasnorm_wordpool.txt	LTP064	ltpFR	15	6	0	SYRUP	1425	n/a	n/a	1	0.422607421875	0.5869140625	0	upper	zerothre.ttf
1122.118	n/a	WORD	561059	wordpools/wasnorm_wordpool.txt	LTP064	ltpFR	15	6	0	SEAT	1264	n/a	n/a	1	0.422607421875	0.5869140625	0	upper	zerothre.ttf
1125.97	n/a	WORD	562985	wordpools/wasnorm_wordpool.txt	LTP064	ltpFR	15	6	0	LOFT	840	n/a	n/a	1	0.422607421875	0.5869140625	0	upper	zerothre.ttf
1130.092	n/a	WORD	565046	wordpools/wasnorm_wordpool.txt	LTP064	ltpFR	15	6	0	PORCH	1106	n/a	n/a	1	0.422607421875	0.5869140625	0	upper	zerothre.ttf
1133.994	n/a	WORD	566997	wordpools/wasnorm_wordpool.txt	LTP064	ltpFR	15	6	0	FILM	565	n/a	n/a	1	0.422607421875	0.5869140625	0	upper	zerothre.ttf
1138.056	n/a	WORD	569028	wordpools/wasnorm_wordpool.txt	LTP064	ltpFR	15	6	0	POPCORN	1104	n/a	n/a	1	0.422607421875	0.5869140625	0	upper	zerothre.ttf
1142.068	n/a	WORD	571034	wordpools/wasnorm_wordpool.txt	LTP064	ltpFR	15	6	0	TOASTER	1472	n/a	n/a	1	0.422607421875	0.5869140625	0	upper	zerothre.ttf
1146.03	n/a	WORD	573015	wordpools/wasnorm_wordpool.txt	LTP064	ltpFR	15	6	0	CHEF	290	n/a	n/a	1	0.422607421875	0.5869140625	0	upper	zerothre.ttf
1150.134	n/a	WORD	575067	wordpools/wasnorm_wordpool.txt	LTP064	ltpFR	15	6	0	CANDLE	229	n/a	n/a	1	0.422607421875	0.5869140625	0	upper	zerothre.ttf
1154.088	n/a	WORD	577044	wordpools/wasnorm_wordpool.txt	LTP064	ltpFR	15	6	0	TABLET	1427	n/a	n/a	1	0.422607421875	0.5869140625	0	upper	zerothre.ttf
1158.234	n/a	WORD	579117	wordpools/wasnorm_wordpool.txt	LTP064	ltpFR	15	6	0	STOOL	1386	n/a	n/a	1	0.422607421875	0.5869140625	0	upper	zerothre.ttf
1162.246	n/a	WORD	581123	wordpools/wasnorm_wordpool.txt	LTP064	ltpFR	15	6	0	CREW	406	n/a	n/a	1	0.422607421875	0.5869140625	0	upper	zerothre.ttf
1166.09	n/a	WORD	583045	wordpools/wasnorm_wordpool.txt	LTP064	ltpFR	15	6	0	WHALE	1601	n/a	n/a	1	0.422607421875	0.5869140625	0	upper	zerothre.ttf
1170.07	n/a	WORD	585035	wordpools/wasnorm_wordpool.txt	LTP064	ltpFR	15	6	0	KNIGHT	786	n/a	n/a	1	0.422607421875	0.5869140625	0	upper	zerothre.ttf
1175.964	n/a	REC_START	587982	n/a	LTP064	ltpFR	15	6	n/a	n/a	n/a	n/a	n/a	n/a	n/a	n/a	n/a	n/a	n/a
1176.04	n/a	REC_WORD	588020	wordpools/wasnorm_wordpool.txt	LTP064	ltpFR	15	6	0	STOOL	1386	n/a	n/a	1	n/a	n/a	n/a	n/a	n/a
1176.534	n/a	REC_WORD	588267	wordpools/wasnorm_wordpool.txt	LTP064	ltpFR	15	6	0	CREW	406	n/a	n/a	1	n/a	n/a	n/a	n/a	n/a
1177.316	n/a	REC_WORD	588658	wordpools/wasnorm_wordpool.txt	LTP064	ltpFR	15	6	0	WHALE	1601	n/a	n/a	1	n/a	n/a	n/a	n/a	n/a
1177.928	n/a	REC_WORD	588964	wordpools/wasnorm_wordpool.txt	LTP064	ltpFR	15	6	0	KNIGHT	786	n/a	n/a	1	n/a	n/a	n/a	n/a	n/a
1178.67	n/a	REC_WORD	589335	wordpools/wasnorm_wordpool.txt	LTP064	ltpFR	15	6	0	SYRUP	1425	n/a	n/a	1	n/a	n/a	n/a	n/a	n/a
1179.934	n/a	REC_WORD	589967	wordpools/wasnorm_wordpool.txt	LTP064	ltpFR	15	6	n/a	CHAIR	274	n/a	n/a	n/a	n/a	n/a	n/a	n/a	n/a
1181.006	n/a	REC_WORD	590503	wordpools/wasnorm_wordpool.txt	LTP064	ltpFR	15	6	0	VITAMIN	1574	n/a	n/a	1	n/a	n/a	n/a	n/a	n/a
1181.624	n/a	REC_WORD	590812	wordpools/wasnorm_wordpool.txt	LTP064	ltpFR	15	6	0	SWITCH	1422	n/a	n/a	1	n/a	n/a	n/a	n/a	n/a
1183.082	n/a	REC_WORD	591541	wordpools/wasnorm_wordpool.txt	LTP064	ltpFR	15	6	0	LOFT	840	n/a	n/a	1	n/a	n/a	n/a	n/a	n/a
1185.356	n/a	REC_WORD	592678	wordpools/wasnorm_wordpool.txt	LTP064	ltpFR	15	6	0	PORCH	1106	n/a	n/a	1	n/a	n/a	n/a	n/a	n/a
1186.134	n/a	REC_WORD	593067	wordpools/wasnorm_wordpool.txt	LTP064	ltpFR	15	6	0	FILM	565	n/a	n/a	1	n/a	n/a	n/a	n/a	n/a
1186.928	n/a	REC_WORD	593464	wordpools/wasnorm_wordpool.txt	LTP064	ltpFR	15	6	0	POPCORN	1104	n/a	n/a	1	n/a	n/a	n/a	n/a	n/a
1187.812	n/a	REC_WORD	593906	wordpools/wasnorm_wordpool.txt	LTP064	ltpFR	15	6	0	TOASTER	1472	n/a	n/a	1	n/a	n/a	n/a	n/a	n/a
1188.488	n/a	REC_WORD	594244	wordpools/wasnorm_wordpool.txt	LTP064	ltpFR	15	6	0	CHEF	290	n/a	n/a	1	n/a	n/a	n/a	n/a	n/a
1208.744	n/a	REC_WORD	604372	wordpools/wasnorm_wordpool.txt	LTP064	ltpFR	15	6	0	CANDLE	229	n/a	n/a	1	n/a	n/a	n/a	n/a	n/a
1209.198	n/a	REC_WORD	604599	wordpools/wasnorm_wordpool.txt	LTP064	ltpFR	15	6	0	TABLET	1427	n/a	n/a	1	n/a	n/a	n/a	n/a	n/a
1275.788	n/a	WORD	637894	wordpools/wasnorm_wordpool.txt	LTP064	ltpFR	15	7	1	COSTUME	383	n/a	n/a	0	0.57763671875	0.412841796875	1	lower	amplitud.ttf
1279.784	n/a	WORD	639892	wordpools/wasnorm_wordpool.txt	LTP064	ltpFR	15	7	1	PAW	1029	n/a	n/a	0	0.57763671875	0.412841796875	1	lower	amplitud.ttf
1283.696	n/a	WORD	641848	wordpools/wasnorm_wordpool.txt	LTP064	ltpFR	15	7	1	RAT	1169	n/a	n/a	1	0.57763671875	0.412841796875	1	lower	amplitud.ttf
1287.682	n/a	WORD	643841	wordpools/wasnorm_wordpool.txt	LTP064	ltpFR	15	7	0	CARNIVAL	245	n/a	n/a	2	0.422607421875	0.5869140625	0	upper	zerothre.ttf
1289.224	n/a	KEY_MSG	644612	n/a	LTP064	ltpFR	15	7	n/a	n/a	n/a	n/a	n/a	n/a	n/a	n/a	n/a	n/a	n/a
1291.62	n/a	WORD	645810	wordpools/wasnorm_wordpool.txt	LTP064	ltpFR	15	7	0	SHINGLE	1285	n/a	n/a	0	0.422607421875	0.5869140625	0	upper	zerothre.ttf
1295.724	n/a	WORD	647862	wordpools/wasnorm_wordpool.txt	LTP064	ltpFR	15	7	1	POSTAGE	1113	n/a	n/a	0	0.57763671875	0.412841796875	1	lower	amplitud.ttf
1299.86	n/a	WORD	649930	wordpools/wasnorm_wordpool.txt	LTP064	ltpFR	15	7	1	BILL	126	n/a	n/a	0	0.57763671875	0.412841796875	1	lower	amplitud.ttf
1304.014	n/a	WORD	652007	wordpools/wasnorm_wordpool.txt	LTP064	ltpFR	15	7	0	BUG	187	n/a	n/a	0	0.422607421875	0.5869140625	0	upper	zerothre.ttf
1307.9	n/a	WORD	653950	wordpools/wasnorm_wordpool.txt	LTP064	ltpFR	15	7	0	AMBULANCE	19	n/a	n/a	1	0.422607421875	0.5869140625	0	upper	zerothre.ttf
1311.854	n/a	WORD	655927	wordpools/wasnorm_wordpool.txt	LTP064	ltpFR	15	7	0	SCULPTURE	1258	n/a	n/a	1	0.422607421875	0.5869140625	0	upper	zerothre.ttf
1315.734	n/a	WORD	657867	wordpools/wasnorm_wordpool.txt	LTP064	ltpFR	15	7	0	CLAY	320	n/a	n/a	1	0.422607421875	0.5869140625	0	upper	zerothre.ttf
1319.654	n/a	WORD	659827	wordpools/wasnorm_wordpool.txt	LTP064	ltpFR	15	7	0	BEAVER	109	n/a	n/a	0	0.422607421875	0.5869140625	0	upper	zerothre.ttf
1323.568	n/a	WORD	661784	wordpools/wasnorm_wordpool.txt	LTP064	ltpFR	15	7	0	MOUSE	925	n/a	n/a	0	0.422607421875	0.5869140625	0	upper	zerothre.ttf
1327.738	n/a	WORD	663869	wordpools/wasnorm_wordpool.txt	LTP064	ltpFR	15	7	1	EGYPT	519	n/a	n/a	0	0.57763671875	0.412841796875	1	lower	amplitud.ttf
1331.584	n/a	WORD	665792	wordpools/wasnorm_wordpool.txt	LTP064	ltpFR	15	7	1	SPHINX	1349	n/a	n/a	1	0.57763671875	0.412841796875	1	lower	amplitud.ttf
1335.77	n/a	WORD	667885	wordpools/wasnorm_wordpool.txt	LTP064	ltpFR	15	7	1	PILOT	1070	n/a	n/a	0	0.57763671875	0.412841796875	1	lower	amplitud.ttf
1341.772	n/a	REC_START	670886	n/a	LTP064	ltpFR	15	7	n/a	n/a	n/a	n/a	n/a	n/a	n/a	n/a	n/a	n/a	n/a
1342.108	n/a	REC_WORD	671054	wordpools/wasnorm_wordpool.txt	LTP064	ltpFR	15	7	0	MOUSE	925	n/a	n/a	0	n/a	n/a	n/a	n/a	n/a
1342.554	n/a	REC_WORD	671277	wordpools/wasnorm_wordpool.txt	LTP064	ltpFR	15	7	1	EGYPT	519	n/a	n/a	0	n/a	n/a	n/a	n/a	n/a
1342.866	n/a	REC_WORD	671433	wordpools/wasnorm_wordpool.txt	LTP064	ltpFR	15	7	1	SPHINX	1349	n/a	n/a	1	n/a	n/a	n/a	n/a	n/a
1343.458	n/a	REC_WORD	671729	wordpools/wasnorm_wordpool.txt	LTP064	ltpFR	15	7	1	PILOT	1070	n/a	n/a	0	n/a	n/a	n/a	n/a	n/a
1343.978	n/a	REC_WORD	671989	wordpools/wasnorm_wordpool.txt	LTP064	ltpFR	15	7	0	CLAY	320	n/a	n/a	1	n/a	n/a	n/a	n/a	n/a
1344.398	n/a	REC_WORD	672199	wordpools/wasnorm_wordpool.txt	LTP064	ltpFR	15	7	0	AMBULANCE	19	n/a	n/a	1	n/a	n/a	n/a	n/a	n/a
1345.006	n/a	REC_WORD	672503	wordpools/wasnorm_wordpool.txt	LTP064	ltpFR	15	7	0	SCULPTURE	1258	n/a	n/a	1	n/a	n/a	n/a	n/a	n/a
1345.852	n/a	REC_WORD	672926	wordpools/wasnorm_wordpool.txt	LTP064	ltpFR	15	7	0	BEAVER	109	n/a	n/a	0	n/a	n/a	n/a	n/a	n/a
1346.974	n/a	REC_WORD_VV	673487	wordpools/wasnorm_wordpool.txt	LTP064	ltpFR	15	7	n/a	<>	-1	n/a	n/a	n/a	n/a	n/a	n/a	n/a	n/a
1348.69	n/a	REC_WORD	674345	wordpools/wasnorm_wordpool.txt	LTP064	ltpFR	15	7	1	RAT	1169	n/a	n/a	1	n/a	n/a	n/a	n/a	n/a
1349.188	n/a	REC_WORD	674594	wordpools/wasnorm_wordpool.txt	LTP064	ltpFR	15	7	1	COSTUME	383	n/a	n/a	0	n/a	n/a	n/a	n/a	n/a
1350.702	n/a	REC_WORD	675351	wordpools/wasnorm_wordpool.txt	LTP064	ltpFR	15	7	1	PAW	1029	n/a	n/a	0	n/a	n/a	n/a	n/a	n/a
1351.172	n/a	REC_WORD	675586	wordpools/wasnorm_wordpool.txt	LTP064	ltpFR	15	7	0	CARNIVAL	245	n/a	n/a	2	n/a	n/a	n/a	n/a	n/a
1353.156	n/a	REC_WORD	676578	wordpools/wasnorm_wordpool.txt	LTP064	ltpFR	15	7	0	BUG	187	n/a	n/a	0	n/a	n/a	n/a	n/a	n/a
1353.76	n/a	REC_WORD	676880	wordpools/wasnorm_wordpool.txt	LTP064	ltpFR	15	7	1	POSTAGE	1113	n/a	n/a	0	n/a	n/a	n/a	n/a	n/a
1354.358	n/a	REC_WORD	677179	wordpools/wasnorm_wordpool.txt	LTP064	ltpFR	15	7	0	SHINGLE	1285	n/a	n/a	0	n/a	n/a	n/a	n/a	n/a
1355.002	n/a	REC_WORD	677501	wordpools/wasnorm_wordpool.txt	LTP064	ltpFR	15	7	1	BILL	126	n/a	n/a	0	n/a	n/a	n/a	n/a	n/a
1426.73	n/a	WORD	713365	wordpools/wasnorm_wordpool.txt	LTP064	ltpFR	15	8	1	ARMY	39	n/a	n/a	1	0.57763671875	0.412841796875	1	lower	amplitud.ttf
1430.818	n/a	WORD	715409	wordpools/wasnorm_wordpool.txt	LTP064	ltpFR	15	8	1	TOURIST	1488	n/a	n/a	1	0.57763671875	0.412841796875	1	lower	amplitud.ttf
1434.972	n/a	WORD	717486	wordpools/wasnorm_wordpool.txt	LTP064	ltpFR	15	8	1	LIMB	822	n/a	n/a	0	0.57763671875	0.412841796875	1	lower	amplitud.ttf
1438.934	n/a	WORD	719467	wordpools/wasnorm_wordpool.txt	LTP064	ltpFR	15	8	1	CABINET	212	n/a	n/a	0	0.57763671875	0.412841796875	1	lower	amplitud.ttf
1442.986	n/a	WORD	721493	wordpools/wasnorm_wordpool.txt	LTP064	ltpFR	15	8	1	CAPE	237	n/a	n/a	0	0.57763671875	0.412841796875	1	lower	amplitud.ttf
1447.174	n/a	WORD	723587	wordpools/wasnorm_wordpool.txt	LTP064	ltpFR	15	8	1	VIOLIN	1571	n/a	n/a	0	0.57763671875	0.412841796875	1	lower	amplitud.ttf
1451.194	n/a	WORD	725597	wordpools/wasnorm_wordpool.txt	LTP064	ltpFR	15	8	1	HARP	689	n/a	n/a	0	0.57763671875	0.412841796875	1	lower	amplitud.ttf
1455.182	n/a	WORD	727591	wordpools/wasnorm_wordpool.txt	LTP064	ltpFR	15	8	1	COLONEL	348	n/a	n/a	1	0.57763671875	0.412841796875	1	lower	amplitud.ttf
1459.326	n/a	WORD	729663	wordpools/wasnorm_wordpool.txt	LTP064	ltpFR	15	8	1	DRAGON	492	n/a	n/a	1	0.57763671875	0.412841796875	1	lower	amplitud.ttf
1463.306	n/a	WORD	731653	wordpools/wasnorm_wordpool.txt	LTP064	ltpFR	15	8	1	WILDERNESS	1610	n/a	n/a	0	0.57763671875	0.412841796875	1	lower	amplitud.ttf
1467.31	n/a	WORD	733655	wordpools/wasnorm_wordpool.txt	LTP064	ltpFR	15	8	1	WORKER	1621	n/a	n/a	0	0.57763671875	0.412841796875	1	lower	amplitud.ttf
1471.472	n/a	WORD	735736	wordpools/wasnorm_wordpool.txt	LTP064	ltpFR	15	8	1	OFFICE	972	n/a	n/a	1	0.57763671875	0.412841796875	1	lower	amplitud.ttf
1475.434	n/a	WORD	737717	wordpools/wasnorm_wordpool.txt	LTP064	ltpFR	15	8	1	CELERY	266	n/a	n/a	1	0.57763671875	0.412841796875	1	lower	amplitud.ttf
1479.462	n/a	WORD	739731	wordpools/wasnorm_wordpool.txt	LTP064	ltpFR	15	8	1	MINK	897	n/a	n/a	0	0.57763671875	0.412841796875	1	lower	amplitud.ttf
1483.45	n/a	WORD	741725	wordpools/wasnorm_wordpool.txt	LTP064	ltpFR	15	8	1	TYPIST	1532	n/a	n/a	1	0.57763671875	0.412841796875	1	lower	amplitud.ttf
1487.428	n/a	WORD	743714	wordpools/wasnorm_wordpool.txt	LTP064	ltpFR	15	8	1	DOLLAR	482	n/a	n/a	0	0.57763671875	0.412841796875	1	lower	amplitud.ttf
1493.156	n/a	REC_START	746578	n/a	LTP064	ltpFR	15	8	n/a	n/a	n/a	n/a	n/a	n/a	n/a	n/a	n/a	n/a	n/a
1493.41	n/a	REC_WORD	746705	wordpools/wasnorm_wordpool.txt	LTP064	ltpFR	15	8	1	MINK	897	n/a	n/a	0	n/a	n/a	n/a	n/a	n/a
1493.684	n/a	REC_WORD	746842	wordpools/wasnorm_wordpool.txt	LTP064	ltpFR	15	8	1	CELERY	266	n/a	n/a	1	n/a	n/a	n/a	n/a	n/a
1494.248	n/a	REC_WORD	747124	wordpools/wasnorm_wordpool.txt	LTP064	ltpFR	15	8	1	TYPIST	1532	n/a	n/a	1	n/a	n/a	n/a	n/a	n/a
1494.842	n/a	REC_WORD	747421	wordpools/wasnorm_wordpool.txt	LTP064	ltpFR	15	8	1	DOLLAR	482	n/a	n/a	0	n/a	n/a	n/a	n/a	n/a
1495.834	n/a	REC_WORD	747917	wordpools/wasnorm_wordpool.txt	LTP064	ltpFR	15	8	1	HARP	689	n/a	n/a	0	n/a	n/a	n/a	n/a	n/a
1496.996	n/a	REC_WORD	748498	wordpools/wasnorm_wordpool.txt	LTP064	ltpFR	15	8	1	COLONEL	348	n/a	n/a	1	n/a	n/a	n/a	n/a	n/a
1499.266	n/a	REC_WORD	749633	wordpools/wasnorm_wordpool.txt	LTP064	ltpFR	15	8	1	CAPE	237	n/a	n/a	0	n/a	n/a	n/a	n/a	n/a
1499.92	n/a	REC_WORD	749960	wordpools/wasnorm_wordpool.txt	LTP064	ltpFR	15	8	1	VIOLIN	1571	n/a	n/a	0	n/a	n/a	n/a	n/a	n/a
1501.392	n/a	REC_WORD	750696	wordpools/wasnorm_wordpool.txt	LTP064	ltpFR	15	8	1	TOURIST	1488	n/a	n/a	1	n/a	n/a	n/a	n/a	n/a
1502.144	n/a	REC_WORD	751072	wordpools/wasnorm_wordpool.txt	LTP064	ltpFR	15	8	1	ARMY	39	n/a	n/a	1	n/a	n/a	n/a	n/a	n/a
1502.908	n/a	REC_WORD	751454	wordpools/wasnorm_wordpool.txt	LTP064	ltpFR	15	8	1	LIMB	822	n/a	n/a	0	n/a	n/a	n/a	n/a	n/a
1503.58	n/a	REC_WORD	751790	wordpools/wasnorm_wordpool.txt	LTP064	ltpFR	15	8	1	CABINET	212	n/a	n/a	0	n/a	n/a	n/a	n/a	n/a
1546.016	n/a	REC_WORD	773008	wordpools/wasnorm_wordpool.txt	LTP064	ltpFR	15	8	1	BILL	126	n/a	n/a	0	n/a	n/a	n/a	n/a	n/a
1546.734	n/a	REC_WORD	773367	wordpools/wasnorm_wordpool.txt	LTP064	ltpFR	15	8	1	TOURIST	1488	n/a	n/a	1	n/a	n/a	n/a	n/a	n/a
1578.964	n/a	WORD	789482	wordpools/wasnorm_wordpool.txt	LTP064	ltpFR	15	9	-1	OYSTER	995	n/a	n/a	-1	1.0	1.0	1	upper	Verdana.ttf
1583.1	n/a	WORD	791550	wordpools/wasnorm_wordpool.txt	LTP064	ltpFR	15	9	-1	POWDER	1117	n/a	n/a	-1	1.0	1.0	1	upper	Verdana.ttf
1587.062	n/a	WORD	793531	wordpools/wasnorm_wordpool.txt	LTP064	ltpFR	15	9	-1	POTTERY	1116	n/a	n/a	-1	1.0	1.0	1	upper	Verdana.ttf
1590.99	n/a	WORD	795495	wordpools/wasnorm_wordpool.txt	LTP064	ltpFR	15	9	-1	ITEM	746	n/a	n/a	-1	1.0	1.0	1	upper	Verdana.ttf
1594.894	n/a	WORD	797447	wordpools/wasnorm_wordpool.txt	LTP064	ltpFR	15	9	-1	SHIRT	1287	n/a	n/a	-1	1.0	1.0	1	upper	Verdana.ttf
1599.098	n/a	WORD	799549	wordpools/wasnorm_wordpool.txt	LTP064	ltpFR	15	9	-1	SIRLOIN	1311	n/a	n/a	-1	1.0	1.0	1	upper	Verdana.ttf
1602.984	n/a	WORD	801492	wordpools/wasnorm_wordpool.txt	LTP064	ltpFR	15	9	-1	BREAST	171	n/a	n/a	-1	1.0	1.0	1	upper	Verdana.ttf
1606.898	n/a	WORD	803449	wordpools/wasnorm_wordpool.txt	LTP064	ltpFR	15	9	-1	LEG	809	n/a	n/a	-1	1.0	1.0	1	upper	Verdana.ttf
1610.726	n/a	WORD	805363	wordpools/wasnorm_wordpool.txt	LTP064	ltpFR	15	9	-1	COLOGNE	347	n/a	n/a	-1	1.0	1.0	1	upper	Verdana.ttf
1614.872	n/a	WORD	807436	wordpools/wasnorm_wordpool.txt	LTP064	ltpFR	15	9	-1	DRILL	497	n/a	n/a	-1	1.0	1.0	1	upper	Verdana.ttf
1618.934	n/a	WORD	809467	wordpools/wasnorm_wordpool.txt	LTP064	ltpFR	15	9	-1	WRIST	1626	n/a	n/a	-1	1.0	1.0	1	upper	Verdana.ttf
1622.954	n/a	WORD	811477	wordpools/wasnorm_wordpool.txt	LTP064	ltpFR	15	9	-1	FOLDER	588	n/a	n/a	-1	1.0	1.0	1	upper	Verdana.ttf
1626.934	n/a	WORD	813467	wordpools/wasnorm_wordpool.txt	LTP064	ltpFR	15	9	-1	PAGE	1001	n/a	n/a	-1	1.0	1.0	1	upper	Verdana.ttf
1630.786	n/a	WORD	815393	wordpools/wasnorm_wordpool.txt	LTP064	ltpFR	15	9	-1	FELLOW	558	n/a	n/a	-1	1.0	1.0	1	upper	Verdana.ttf
1634.79	n/a	WORD	817395	wordpools/wasnorm_wordpool.txt	LTP064	ltpFR	15	9	-1	PARTNER	1017	n/a	n/a	-1	1.0	1.0	1	upper	Verdana.ttf
1638.802	n/a	WORD	819401	wordpools/wasnorm_wordpool.txt	LTP064	ltpFR	15	9	-1	COLLAR	345	n/a	n/a	-1	1.0	1.0	1	upper	Verdana.ttf
1644.872	n/a	REC_START	822436	n/a	LTP064	ltpFR	15	9	n/a	n/a	n/a	n/a	n/a	n/a	n/a	n/a	n/a	n/a	n/a
1645.16	n/a	REC_WORD	822580	wordpools/wasnorm_wordpool.txt	LTP064	ltpFR	15	9	-1	PAGE	1001	n/a	n/a	-1	n/a	n/a	n/a	n/a	n/a
1645.54	n/a	REC_WORD	822770	wordpools/wasnorm_wordpool.txt	LTP064	ltpFR	15	9	-1	FELLOW	558	n/a	n/a	-1	n/a	n/a	n/a	n/a	n/a
1645.922	n/a	REC_WORD	822961	wordpools/wasnorm_wordpool.txt	LTP064	ltpFR	15	9	-1	PARTNER	1017	n/a	n/a	-1	n/a	n/a	n/a	n/a	n/a
1646.338	n/a	REC_WORD	823169	wordpools/wasnorm_wordpool.txt	LTP064	ltpFR	15	9	-1	COLLAR	345	n/a	n/a	-1	n/a	n/a	n/a	n/a	n/a
1646.738	n/a	REC_WORD	823369	wordpools/wasnorm_wordpool.txt	LTP064	ltpFR	15	9	-1	WRIST	1626	n/a	n/a	-1	n/a	n/a	n/a	n/a	n/a
1647.082	n/a	REC_WORD	823541	wordpools/wasnorm_wordpool.txt	LTP064	ltpFR	15	9	-1	FOLDER	588	n/a	n/a	-1	n/a	n/a	n/a	n/a	n/a
1647.79	n/a	REC_WORD	823895	wordpools/wasnorm_wordpool.txt	LTP064	ltpFR	15	9	-1	DRILL	497	n/a	n/a	-1	n/a	n/a	n/a	n/a	n/a
1648.244	n/a	REC_WORD	824122	wordpools/wasnorm_wordpool.txt	LTP064	ltpFR	15	9	-1	COLOGNE	347	n/a	n/a	-1	n/a	n/a	n/a	n/a	n/a
1649.42	n/a	REC_WORD	824710	wordpools/wasnorm_wordpool.txt	LTP064	ltpFR	15	9	-1	BREAST	171	n/a	n/a	-1	n/a	n/a	n/a	n/a	n/a
1650.05	n/a	REC_WORD	825025	wordpools/wasnorm_wordpool.txt	LTP064	ltpFR	15	9	-1	LEG	809	n/a	n/a	-1	n/a	n/a	n/a	n/a	n/a
1650.738	n/a	REC_WORD	825369	wordpools/wasnorm_wordpool.txt	LTP064	ltpFR	15	9	-1	SIRLOIN	1311	n/a	n/a	-1	n/a	n/a	n/a	n/a	n/a
1651.476	n/a	REC_WORD	825738	wordpools/wasnorm_wordpool.txt	LTP064	ltpFR	15	9	-1	SHIRT	1287	n/a	n/a	-1	n/a	n/a	n/a	n/a	n/a
1652.008	n/a	REC_WORD	826004	wordpools/wasnorm_wordpool.txt	LTP064	ltpFR	15	9	-1	OYSTER	995	n/a	n/a	-1	n/a	n/a	n/a	n/a	n/a
1652.442	n/a	REC_WORD	826221	wordpools/wasnorm_wordpool.txt	LTP064	ltpFR	15	9	-1	POWDER	1117	n/a	n/a	-1	n/a	n/a	n/a	n/a	n/a
1652.792	n/a	REC_WORD	826396	wordpools/wasnorm_wordpool.txt	LTP064	ltpFR	15	9	-1	POTTERY	1116	n/a	n/a	-1	n/a	n/a	n/a	n/a	n/a
1653.126	n/a	REC_WORD	826563	wordpools/wasnorm_wordpool.txt	LTP064	ltpFR	15	9	-1	ITEM	746	n/a	n/a	-1	n/a	n/a	n/a	n/a	n/a
1740.428	n/a	WORD	870214	wordpools/wasnorm_wordpool.txt	LTP064	ltpFR	15	10	1	GUM	672	n/a	n/a	0	0.57763671875	0.412841796875	1	lower	amplitud.ttf
1744.44	n/a	WORD	872220	wordpools/wasnorm_wordpool.txt	LTP064	ltpFR	15	10	1	TONGUE	1479	n/a	n/a	1	0.57763671875	0.412841796875	1	lower	amplitud.ttf
1748.442	n/a	WORD	874221	wordpools/wasnorm_wordpool.txt	LTP064	ltpFR	15	10	1	ROBBER	1197	n/a	n/a	1	0.57763671875	0.412841796875	1	lower	amplitud.ttf
1752.388	n/a	WORD	876194	wordpools/wasnorm_wordpool.txt	LTP064	ltpFR	15	10	1	CHAIN	273	n/a	n/a	1	0.57763671875	0.412841796875	1	lower	amplitud.ttf
1756.302	n/a	WORD	878151	wordpools/wasnorm_wordpool.txt	LTP064	ltpFR	15	10	1	MOVIE	927	n/a	n/a	0	0.57763671875	0.412841796875	1	lower	amplitud.ttf
1760.48	n/a	WORD	880240	wordpools/wasnorm_wordpool.txt	LTP064	ltpFR	15	10	1	MAMMAL	861	n/a	n/a	1	0.57763671875	0.412841796875	1	lower	amplitud.ttf
1764.4	n/a	WORD	882200	wordpools/wasnorm_wordpool.txt	LTP064	ltpFR	15	10	1	EGG	518	n/a	n/a	0	0.57763671875	0.412841796875	1	lower	amplitud.ttf
1768.396	n/a	WORD	884198	wordpools/wasnorm_wordpool.txt	LTP064	ltpFR	15	10	1	JEANS	752	n/a	n/a	0	0.57763671875	0.412841796875	1	lower	amplitud.ttf
1772.274	n/a	WORD	886137	wordpools/wasnorm_wordpool.txt	LTP064	ltpFR	15	10	1	ZIPPER	1636	n/a	n/a	0	0.57763671875	0.412841796875	1	lower	amplitud.ttf
1776.136	n/a	WORD	888068	wordpools/wasnorm_wordpool.txt	LTP064	ltpFR	15	10	1	ARTIST	43	n/a	n/a	0	0.57763671875	0.412841796875	1	lower	amplitud.ttf
1780.182	n/a	WORD	890091	wordpools/wasnorm_wordpool.txt	LTP064	ltpFR	15	10	1	IDOL	733	n/a	n/a	0	0.57763671875	0.412841796875	1	lower	amplitud.ttf
1784.152	n/a	WORD	892076	wordpools/wasnorm_wordpool.txt	LTP064	ltpFR	15	10	1	BUILDING	191	n/a	n/a	0	0.57763671875	0.412841796875	1	lower	amplitud.ttf
1787.988	n/a	WORD	893994	wordpools/wasnorm_wordpool.txt	LTP064	ltpFR	15	10	1	TELEVISION	1447	n/a	n/a	0	0.57763671875	0.412841796875	1	lower	amplitud.ttf
1791.818	n/a	WORD	895909	wordpools/wasnorm_wordpool.txt	LTP064	ltpFR	15	10	1	OUTLAW	989	n/a	n/a	0	0.57763671875	0.412841796875	1	lower	amplitud.ttf
1795.83	n/a	WORD	897915	wordpools/wasnorm_wordpool.txt	LTP064	ltpFR	15	10	1	LAWYER	806	n/a	n/a	1	0.57763671875	0.412841796875	1	lower	amplitud.ttf
1799.958	n/a	WORD	899979	wordpools/wasnorm_wordpool.txt	LTP064	ltpFR	15	10	1	APARTMENT	30	n/a	n/a	1	0.57763671875	0.412841796875	1	lower	amplitud.ttf
1805.934	n/a	REC_START	902967	n/a	LTP064	ltpFR	15	10	n/a	n/a	n/a	n/a	n/a	n/a	n/a	n/a	n/a	n/a	n/a
1806.284	n/a	REC_WORD	903142	wordpools/wasnorm_wordpool.txt	LTP064	ltpFR	15	10	1	TELEVISION	1447	n/a	n/a	0	n/a	n/a	n/a	n/a	n/a
1806.822	n/a	REC_WORD	903411	wordpools/wasnorm_wordpool.txt	LTP064	ltpFR	15	10	1	OUTLAW	989	n/a	n/a	0	n/a	n/a	n/a	n/a	n/a
1807.66	n/a	REC_WORD	903830	wordpools/wasnorm_wordpool.txt	LTP064	ltpFR	15	10	1	LAWYER	806	n/a	n/a	1	n/a	n/a	n/a	n/a	n/a
1808.128	n/a	REC_WORD	904064	wordpools/wasnorm_wordpool.txt	LTP064	ltpFR	15	10	1	APARTMENT	30	n/a	n/a	1	n/a	n/a	n/a	n/a	n/a
1809.13	n/a	REC_WORD	904565	wordpools/wasnorm_wordpool.txt	LTP064	ltpFR	15	10	1	ZIPPER	1636	n/a	n/a	0	n/a	n/a	n/a	n/a	n/a
1809.772	n/a	REC_WORD	904886	wordpools/wasnorm_wordpool.txt	LTP064	ltpFR	15	10	1	ARTIST	43	n/a	n/a	0	n/a	n/a	n/a	n/a	n/a
1810.724	n/a	REC_WORD	905362	wordpools/wasnorm_wordpool.txt	LTP064	ltpFR	15	10	1	BUILDING	191	n/a	n/a	0	n/a	n/a	n/a	n/a	n/a
1811.306	n/a	REC_WORD	905653	wordpools/wasnorm_wordpool.txt	LTP064	ltpFR	15	10	1	IDOL	733	n/a	n/a	0	n/a	n/a	n/a	n/a	n/a
1812.33	n/a	REC_WORD	906165	wordpools/wasnorm_wordpool.txt	LTP064	ltpFR	15	10	1	MAMMAL	861	n/a	n/a	1	n/a	n/a	n/a	n/a	n/a
1813.012	n/a	REC_WORD	906506	wordpools/wasnorm_wordpool.txt	LTP064	ltpFR	15	10	1	MOVIE	927	n/a	n/a	0	n/a	n/a	n/a	n/a	n/a
1813.986	n/a	REC_WORD	906993	wordpools/wasnorm_wordpool.txt	LTP064	ltpFR	15	10	1	EGG	518	n/a	n/a	0	n/a	n/a	n/a	n/a	n/a
1814.55	n/a	REC_WORD	907275	wordpools/wasnorm_wordpool.txt	LTP064	ltpFR	15	10	1	JEANS	752	n/a	n/a	0	n/a	n/a	n/a	n/a	n/a
1816.022	n/a	REC_WORD	908011	wordpools/wasnorm_wordpool.txt	LTP064	ltpFR	15	10	1	ROBBER	1197	n/a	n/a	1	n/a	n/a	n/a	n/a	n/a
1816.788	n/a	REC_WORD	908394	wordpools/wasnorm_wordpool.txt	LTP064	ltpFR	15	10	1	TONGUE	1479	n/a	n/a	1	n/a	n/a	n/a	n/a	n/a
1817.544	n/a	REC_WORD	908772	wordpools/wasnorm_wordpool.txt	LTP064	ltpFR	15	10	1	GUM	672	n/a	n/a	0	n/a	n/a	n/a	n/a	n/a
1817.982	n/a	REC_WORD	908991	wordpools/wasnorm_wordpool.txt	LTP064	ltpFR	15	10	1	CHAIN	273	n/a	n/a	1	n/a	n/a	n/a	n/a	n/a
1897.562	n/a	WORD	948781	wordpools/wasnorm_wordpool.txt	LTP064	ltpFR	15	11	0	TWINE	1529	n/a	n/a	0	0.422607421875	0.5869140625	0	upper	zerothre.ttf
1901.766	n/a	WORD	950883	wordpools/wasnorm_wordpool.txt	LTP064	ltpFR	15	11	0	SAUCER	1237	n/a	n/a	0	0.422607421875	0.5869140625	0	upper	zerothre.ttf
1905.588	n/a	WORD	952794	wordpools/wasnorm_wordpool.txt	LTP064	ltpFR	15	11	0	CABBAGE	210	n/a	n/a	1	0.422607421875	0.5869140625	0	upper	zerothre.ttf
1909.756	n/a	WORD	954878	wordpools/wasnorm_wordpool.txt	LTP064	ltpFR	15	11	0	GRAVE	658	n/a	n/a	1	0.422607421875	0.5869140625	0	upper	zerothre.ttf
1913.768	n/a	WORD	956884	wordpools/wasnorm_wordpool.txt	LTP064	ltpFR	15	11	0	PEDAL	1037	n/a	n/a	0	0.422607421875	0.5869140625	0	upper	zerothre.ttf
1917.822	n/a	WORD	958911	wordpools/wasnorm_wordpool.txt	LTP064	ltpFR	15	11	0	BEAKER	104	n/a	n/a	0	0.422607421875	0.5869140625	0	upper	zerothre.ttf
1921.634	n/a	WORD	960817	wordpools/wasnorm_wordpool.txt	LTP064	ltpFR	15	11	0	NITROGEN	954	n/a	n/a	0	0.422607421875	0.5869140625	0	upper	zerothre.ttf
1925.654	n/a	WORD	962827	wordpools/wasnorm_wordpool.txt	LTP064	ltpFR	15	11	0	BANKER	84	n/a	n/a	1	0.422607421875	0.5869140625	0	upper	zerothre.ttf
1929.576	n/a	WORD	964788	wordpools/wasnorm_wordpool.txt	LTP064	ltpFR	15	11	0	CASH	252	n/a	n/a	0	0.422607421875	0.5869140625	0	upper	zerothre.ttf
1933.636	n/a	WORD	966818	wordpools/wasnorm_wordpool.txt	LTP064	ltpFR	15	11	0	GEM	629	n/a	n/a	0	0.422607421875	0.5869140625	0	upper	zerothre.ttf
1937.806	n/a	WORD	968903	wordpools/wasnorm_wordpool.txt	LTP064	ltpFR	15	11	0	PASTA	1021	n/a	n/a	0	0.422607421875	0.5869140625	0	upper	zerothre.ttf
1941.952	n/a	WORD	970976	wordpools/wasnorm_wordpool.txt	LTP064	ltpFR	15	11	0	TRICYCLE	1506	n/a	n/a	0	0.422607421875	0.5869140625	0	upper	zerothre.ttf
1946.022	n/a	WORD	973011	wordpools/wasnorm_wordpool.txt	LTP064	ltpFR	15	11	0	PORPOISE	1109	n/a	n/a	1	0.422607421875	0.5869140625	0	upper	zerothre.ttf
1950.126	n/a	WORD	975063	wordpools/wasnorm_wordpool.txt	LTP064	ltpFR	15	11	0	RING	1193	n/a	n/a	0	0.422607421875	0.5869140625	0	upper	zerothre.ttf
1954.188	n/a	WORD	977094	wordpools/wasnorm_wordpool.txt	LTP064	ltpFR	15	11	0	BUBBLE	183	n/a	n/a	0	0.422607421875	0.5869140625	0	upper	zerothre.ttf
1958.068	n/a	WORD	979034	wordpools/wasnorm_wordpool.txt	LTP064	ltpFR	15	11	0	TUB	1514	n/a	n/a	0	0.422607421875	0.5869140625	0	upper	zerothre.ttf
1963.886	n/a	REC_START	981943	n/a	LTP064	ltpFR	15	11	n/a	n/a	n/a	n/a	n/a	n/a	n/a	n/a	n/a	n/a	n/a
1964.29	n/a	REC_WORD	982145	wordpools/wasnorm_wordpool.txt	LTP064	ltpFR	15	11	0	PORPOISE	1109	n/a	n/a	1	n/a	n/a	n/a	n/a	n/a
1964.748	n/a	REC_WORD	982374	wordpools/wasnorm_wordpool.txt	LTP064	ltpFR	15	11	0	RING	1193	n/a	n/a	0	n/a	n/a	n/a	n/a	n/a
1965.152	n/a	REC_WORD	982576	wordpools/wasnorm_wordpool.txt	LTP064	ltpFR	15	11	0	BUBBLE	183	n/a	n/a	0	n/a	n/a	n/a	n/a	n/a
1965.576	n/a	REC_WORD	982788	wordpools/wasnorm_wordpool.txt	LTP064	ltpFR	15	11	0	TUB	1514	n/a	n/a	0	n/a	n/a	n/a	n/a	n/a
1966.1	n/a	REC_WORD	983050	wordpools/wasnorm_wordpool.txt	LTP064	ltpFR	15	11	0	CASH	252	n/a	n/a	0	n/a	n/a	n/a	n/a	n/a
1966.568	n/a	REC_WORD	983284	wordpools/wasnorm_wordpool.txt	LTP064	ltpFR	15	11	0	GEM	629	n/a	n/a	0	n/a	n/a	n/a	n/a	n/a
1967.012	n/a	REC_WORD	983506	wordpools/wasnorm_wordpool.txt	LTP064	ltpFR	15	11	0	PASTA	1021	n/a	n/a	0	n/a	n/a	n/a	n/a	n/a
1967.528	n/a	REC_WORD	983764	wordpools/wasnorm_wordpool.txt	LTP064	ltpFR	15	11	0	TRICYCLE	1506	n/a	n/a	0	n/a	n/a	n/a	n/a	n/a
1968.914	n/a	REC_WORD	984457	wordpools/wasnorm_wordpool.txt	LTP064	ltpFR	15	11	0	TWINE	1529	n/a	n/a	0	n/a	n/a	n/a	n/a	n/a
1969.328	n/a	REC_WORD	984664	wordpools/wasnorm_wordpool.txt	LTP064	ltpFR	15	11	0	SAUCER	1237	n/a	n/a	0	n/a	n/a	n/a	n/a	n/a
1969.906	n/a	REC_WORD	984953	wordpools/wasnorm_wordpool.txt	LTP064	ltpFR	15	11	0	CABBAGE	210	n/a	n/a	1	n/a	n/a	n/a	n/a	n/a
1970.458	n/a	REC_WORD	985229	wordpools/wasnorm_wordpool.txt	LTP064	ltpFR	15	11	0	GRAVE	658	n/a	n/a	1	n/a	n/a	n/a	n/a	n/a
1970.972	n/a	REC_WORD	985486	wordpools/wasnorm_wordpool.txt	LTP064	ltpFR	15	11	0	NITROGEN	954	n/a	n/a	0	n/a	n/a	n/a	n/a	n/a
1971.67	n/a	REC_WORD	985835	wordpools/wasnorm_wordpool.txt	LTP064	ltpFR	15	11	0	BEAKER	104	n/a	n/a	0	n/a	n/a	n/a	n/a	n/a
1972.19	n/a	REC_WORD	986095	wordpools/wasnorm_wordpool.txt	LTP064	ltpFR	15	11	0	BANKER	84	n/a	n/a	1	n/a	n/a	n/a	n/a	n/a
1978.438	n/a	REC_WORD	989219	wordpools/wasnorm_wordpool.txt	LTP064	ltpFR	15	11	0	PEDAL	1037	n/a	n/a	0	n/a	n/a	n/a	n/a	n/a
2069.754	n/a	WORD	1034877	wordpools/wasnorm_wordpool.txt	LTP064	ltpFR	15	12	-1	TELEPHONE	1445	n/a	n/a	-1	1.0	1.0	1	upper	Verdana.ttf
2073.642	n/a	WORD	1036821	wordpools/wasnorm_wordpool.txt	LTP064	ltpFR	15	12	-1	BRIDGE	174	n/a	n/a	-1	1.0	1.0	1	upper	Verdana.ttf
2077.546	n/a	WORD	1038773	wordpools/wasnorm_wordpool.txt	LTP064	ltpFR	15	12	-1	WINDSHIELD	1612	n/a	n/a	-1	1.0	1.0	1	upper	Verdana.ttf
2081.724	n/a	WORD	1040862	wordpools/wasnorm_wordpool.txt	LTP064	ltpFR	15	12	-1	RADIATOR	1156	n/a	n/a	-1	1.0	1.0	1	upper	Verdana.ttf
2085.82	n/a	WORD	1042910	wordpools/wasnorm_wordpool.txt	LTP064	ltpFR	15	12	-1	LAMP	798	n/a	n/a	-1	1.0	1.0	1	upper	Verdana.ttf
2089.948	n/a	WORD	1044974	wordpools/wasnorm_wordpool.txt	LTP064	ltpFR	15	12	-1	TANK	1432	n/a	n/a	-1	1.0	1.0	1	upper	Verdana.ttf
2093.902	n/a	WORD	1046951	wordpools/wasnorm_wordpool.txt	LTP064	ltpFR	15	12	-1	BULB	192	n/a	n/a	-1	1.0	1.0	1	upper	Verdana.ttf
2097.722	n/a	WORD	1048861	wordpools/wasnorm_wordpool.txt	LTP064	ltpFR	15	12	-1	FEAST	556	n/a	n/a	-1	1.0	1.0	1	upper	Verdana.ttf
2101.784	n/a	WORD	1050892	wordpools/wasnorm_wordpool.txt	LTP064	ltpFR	15	12	-1	MINT	898	n/a	n/a	-1	1.0	1.0	1	upper	Verdana.ttf
2105.98	n/a	WORD	1052990	wordpools/wasnorm_wordpool.txt	LTP064	ltpFR	15	12	-1	SENATE	1267	n/a	n/a	-1	1.0	1.0	1	upper	Verdana.ttf
2109.808	n/a	WORD	1054904	wordpools/wasnorm_wordpool.txt	LTP064	ltpFR	15	12	-1	TORCH	1484	n/a	n/a	-1	1.0	1.0	1	upper	Verdana.ttf
2113.794	n/a	WORD	1056897	wordpools/wasnorm_wordpool.txt	LTP064	ltpFR	15	12	-1	TOMATO	1476	n/a	n/a	-1	1.0	1.0	1	upper	Verdana.ttf
2117.758	n/a	WORD	1058879	wordpools/wasnorm_wordpool.txt	LTP064	ltpFR	15	12	-1	CHICKEN	297	n/a	n/a	-1	1.0	1.0	1	upper	Verdana.ttf
2121.836	n/a	WORD	1060918	wordpools/wasnorm_wordpool.txt	LTP064	ltpFR	15	12	-1	REFRIGERATOR	1179	n/a	n/a	-1	1.0	1.0	1	upper	Verdana.ttf
2125.774	n/a	WORD	1062887	wordpools/wasnorm_wordpool.txt	LTP064	ltpFR	15	12	-1	POLE	1097	n/a	n/a	-1	1.0	1.0	1	upper	Verdana.ttf
2129.644	n/a	WORD	1064822	wordpools/wasnorm_wordpool.txt	LTP064	ltpFR	15	12	-1	FLAG	573	n/a	n/a	-1	1.0	1.0	1	upper	Verdana.ttf
2135.38	n/a	REC_START	1067690	n/a	LTP064	ltpFR	15	12	n/a	n/a	n/a	n/a	n/a	n/a	n/a	n/a	n/a	n/a	n/a
2135.58	n/a	REC_WORD	1067790	wordpools/wasnorm_wordpool.txt	LTP064	ltpFR	15	12	-1	CHICKEN	297	n/a	n/a	-1	n/a	n/a	n/a	n/a	n/a
2135.926	n/a	REC_WORD	1067963	wordpools/wasnorm_wordpool.txt	LTP064	ltpFR	15	12	-1	REFRIGERATOR	1179	n/a	n/a	-1	n/a	n/a	n/a	n/a	n/a
2136.662	n/a	REC_WORD	1068331	wordpools/wasnorm_wordpool.txt	LTP064	ltpFR	15	12	-1	POLE	1097	n/a	n/a	-1	n/a	n/a	n/a	n/a	n/a
2137.024	n/a	REC_WORD	1068512	wordpools/wasnorm_wordpool.txt	LTP064	ltpFR	15	12	-1	FLAG	573	n/a	n/a	-1	n/a	n/a	n/a	n/a	n/a
2137.814	n/a	REC_WORD	1068907	wordpools/wasnorm_wordpool.txt	LTP064	ltpFR	15	12	-1	TORCH	1484	n/a	n/a	-1	n/a	n/a	n/a	n/a	n/a
2138.292	n/a	REC_WORD	1069146	wordpools/wasnorm_wordpool.txt	LTP064	ltpFR	15	12	-1	TOMATO	1476	n/a	n/a	-1	n/a	n/a	n/a	n/a	n/a
2138.85	n/a	REC_WORD	1069425	wordpools/wasnorm_wordpool.txt	LTP064	ltpFR	15	12	-1	MINT	898	n/a	n/a	-1	n/a	n/a	n/a	n/a	n/a
2139.328	n/a	REC_WORD	1069664	wordpools/wasnorm_wordpool.txt	LTP064	ltpFR	15	12	-1	SENATE	1267	n/a	n/a	-1	n/a	n/a	n/a	n/a	n/a
2140.474	n/a	REC_WORD	1070237	wordpools/wasnorm_wordpool.txt	LTP064	ltpFR	15	12	-1	LAMP	798	n/a	n/a	-1	n/a	n/a	n/a	n/a	n/a
2141.034	n/a	REC_WORD	1070517	wordpools/wasnorm_wordpool.txt	LTP064	ltpFR	15	12	-1	TANK	1432	n/a	n/a	-1	n/a	n/a	n/a	n/a	n/a
2141.69	n/a	REC_WORD	1070845	wordpools/wasnorm_wordpool.txt	LTP064	ltpFR	15	12	-1	BULB	192	n/a	n/a	-1	n/a	n/a	n/a	n/a	n/a
2142.092	n/a	REC_WORD	1071046	wordpools/wasnorm_wordpool.txt	LTP064	ltpFR	15	12	-1	FEAST	556	n/a	n/a	-1	n/a	n/a	n/a	n/a	n/a
2143.308	n/a	REC_WORD	1071654	wordpools/wasnorm_wordpool.txt	LTP064	ltpFR	15	12	-1	TELEPHONE	1445	n/a	n/a	-1	n/a	n/a	n/a	n/a	n/a
2144.036	n/a	REC_WORD	1072018	wordpools/wasnorm_wordpool.txt	LTP064	ltpFR	15	12	-1	BRIDGE	174	n/a	n/a	-1	n/a	n/a	n/a	n/a	n/a
2144.496	n/a	REC_WORD	1072248	wordpools/wasnorm_wordpool.txt	LTP064	ltpFR	15	12	-1	WINDSHIELD	1612	n/a	n/a	-1	n/a	n/a	n/a	n/a	n/a
2145.144	n/a	REC_WORD	1072572	wordpools/wasnorm_wordpool.txt	LTP064	ltpFR	15	12	-1	RADIATOR	1156	n/a	n/a	-1	n/a	n/a	n/a	n/a	n/a
2210.95	n/a	REST_REWET	1105475	n/a	LTP064	ltpFR	15	12	n/a	n/a	n/a	n/a	n/a	n/a	n/a	n/a	n/a	n/a	n/a
2457.4	n/a	WORD	1228700	wordpools/wasnorm_wordpool.txt	LTP064	ltpFR	15	13	1	BEVERAGE	123	n/a	n/a	0	0.57763671875	0.412841796875	1	lower	amplitud.ttf
2461.42	n/a	WORD	1230710	wordpools/wasnorm_wordpool.txt	LTP064	ltpFR	15	13	1	MEAL	882	n/a	n/a	0	0.57763671875	0.412841796875	1	lower	amplitud.ttf
2465.314	n/a	WORD	1232657	wordpools/wasnorm_wordpool.txt	LTP064	ltpFR	15	13	1	SCAPEGOAT	1244	n/a	n/a	1	0.57763671875	0.412841796875	1	lower	amplitud.ttf
2469.186	n/a	WORD	1234593	wordpools/wasnorm_wordpool.txt	LTP064	ltpFR	15	13	1	ROUGE	1213	n/a	n/a	0	0.57763671875	0.412841796875	1	lower	amplitud.ttf
2473.314	n/a	WORD	1236657	wordpools/wasnorm_wordpool.txt	LTP064	ltpFR	15	13	1	OATS	968	n/a	n/a	0	0.57763671875	0.412841796875	1	lower	amplitud.ttf
2477.142	n/a	WORD	1238571	wordpools/wasnorm_wordpool.txt	LTP064	ltpFR	15	13	0	DETECTIVE	454	n/a	n/a	1	0.422607421875	0.5869140625	0	upper	zerothre.ttf
2481.306	n/a	WORD	1240653	wordpools/wasnorm_wordpool.txt	LTP064	ltpFR	15	13	0	DISHWASHER	475	n/a	n/a	1	0.422607421875	0.5869140625	0	upper	zerothre.ttf
2485.392	n/a	WORD	1242696	wordpools/wasnorm_wordpool.txt	LTP064	ltpFR	15	13	0	WINE	1613	n/a	n/a	1	0.422607421875	0.5869140625	0	upper	zerothre.ttf
2489.238	n/a	WORD	1244619	wordpools/wasnorm_wordpool.txt	LTP064	ltpFR	15	13	0	RASPBERRY	1168	n/a	n/a	0	0.422607421875	0.5869140625	0	upper	zerothre.ttf
2493.284	n/a	WORD	1246642	wordpools/wasnorm_wordpool.txt	LTP064	ltpFR	15	13	1	TANGERINE	1431	n/a	n/a	1	0.57763671875	0.412841796875	1	lower	amplitud.ttf
2497.47	n/a	WORD	1248735	wordpools/wasnorm_wordpool.txt	LTP064	ltpFR	15	13	1	WAX	1597	n/a	n/a	0	0.57763671875	0.412841796875	1	lower	amplitud.ttf
2501.398	n/a	WORD	1250699	wordpools/wasnorm_wordpool.txt	LTP064	ltpFR	15	13	1	GUEST	669	n/a	n/a	1	0.57763671875	0.412841796875	1	lower	amplitud.ttf
2505.486	n/a	WORD	1252743	wordpools/wasnorm_wordpool.txt	LTP064	ltpFR	15	13	0	BOYFRIEND	162	n/a	n/a	1	0.422607421875	0.5869140625	0	upper	zerothre.ttf
2509.598	n/a	WORD	1254799	wordpools/wasnorm_wordpool.txt	LTP064	ltpFR	15	13	0	RIVER	1194	n/a	n/a	0	0.422607421875	0.5869140625	0	upper	zerothre.ttf
2513.602	n/a	WORD	1256801	wordpools/wasnorm_wordpool.txt	LTP064	ltpFR	15	13	0	MERMAID	887	n/a	n/a	1	0.422607421875	0.5869140625	0	upper	zerothre.ttf
2517.456	n/a	WORD	1258728	wordpools/wasnorm_wordpool.txt	LTP064	ltpFR	15	13	0	BADGE	68	n/a	n/a	1	0.422607421875	0.5869140625	0	upper	zerothre.ttf
2523.374	n/a	REC_START	1261687	n/a	LTP064	ltpFR	15	13	n/a	n/a	n/a	n/a	n/a	n/a	n/a	n/a	n/a	n/a	n/a
2523.586	n/a	REC_WORD	1261793	wordpools/wasnorm_wordpool.txt	LTP064	ltpFR	15	13	0	BOYFRIEND	162	n/a	n/a	1	n/a	n/a	n/a	n/a	n/a
2524.086	n/a	REC_WORD	1262043	wordpools/wasnorm_wordpool.txt	LTP064	ltpFR	15	13	0	RIVER	1194	n/a	n/a	0	n/a	n/a	n/a	n/a	n/a
2524.472	n/a	REC_WORD	1262236	wordpools/wasnorm_wordpool.txt	LTP064	ltpFR	15	13	0	MERMAID	887	n/a	n/a	1	n/a	n/a	n/a	n/a	n/a
2525.076	n/a	REC_WORD	1262538	wordpools/wasnorm_wordpool.txt	LTP064	ltpFR	15	13	0	BADGE	68	n/a	n/a	1	n/a	n/a	n/a	n/a	n/a
2525.438	n/a	REC_WORD	1262719	wordpools/wasnorm_wordpool.txt	LTP064	ltpFR	15	13	1	STRAWBERRY	1391	n/a	n/a	1	n/a	n/a	n/a	n/a	n/a
2526.04	n/a	REC_WORD	1263020	wordpools/wasnorm_wordpool.txt	LTP064	ltpFR	15	13	1	TANGERINE	1431	n/a	n/a	1	n/a	n/a	n/a	n/a	n/a
2526.662	n/a	REC_WORD	1263331	wordpools/wasnorm_wordpool.txt	LTP064	ltpFR	15	13	n/a	WET	-1	n/a	n/a	n/a	n/a	n/a	n/a	n/a	n/a
2527.61	n/a	REC_WORD	1263805	wordpools/wasnorm_wordpool.txt	LTP064	ltpFR	15	13	1	GUEST	669	n/a	n/a	1	n/a	n/a	n/a	n/a	n/a
2528.538	n/a	REC_WORD	1264269	wordpools/wasnorm_wordpool.txt	LTP064	ltpFR	15	13	1	WAX	1597	n/a	n/a	0	n/a	n/a	n/a	n/a	n/a
2529.808	n/a	REC_WORD	1264904	wordpools/wasnorm_wordpool.txt	LTP064	ltpFR	15	13	1	ROUGE	1213	n/a	n/a	0	n/a	n/a	n/a	n/a	n/a
2530.196	n/a	REC_WORD	1265098	wordpools/wasnorm_wordpool.txt	LTP064	ltpFR	15	13	1	SCAPEGOAT	1244	n/a	n/a	1	n/a	n/a	n/a	n/a	n/a
2531.12	n/a	REC_WORD	1265560	wordpools/wasnorm_wordpool.txt	LTP064	ltpFR	15	13	1	BEVERAGE	123	n/a	n/a	0	n/a	n/a	n/a	n/a	n/a
2531.716	n/a	REC_WORD	1265858	wordpools/wasnorm_wordpool.txt	LTP064	ltpFR	15	13	1	MEAL	882	n/a	n/a	0	n/a	n/a	n/a	n/a	n/a
2533.906	n/a	REC_WORD	1266953	wordpools/wasnorm_wordpool.txt	LTP064	ltpFR	15	13	0	DETECTIVE	454	n/a	n/a	1	n/a	n/a	n/a	n/a	n/a
2534.794	n/a	REC_WORD	1267397	wordpools/wasnorm_wordpool.txt	LTP064	ltpFR	15	13	1	OATS	968	n/a	n/a	0	n/a	n/a	n/a	n/a	n/a
2536.26	n/a	REC_WORD	1268130	wordpools/wasnorm_wordpool.txt	LTP064	ltpFR	15	13	0	DISHWASHER	475	n/a	n/a	1	n/a	n/a	n/a	n/a	n/a
2536.872	n/a	REC_WORD	1268436	wordpools/wasnorm_wordpool.txt	LTP064	ltpFR	15	13	0	WINE	1613	n/a	n/a	1	n/a	n/a	n/a	n/a	n/a
2627.27	n/a	WORD	1313635	wordpools/wasnorm_wordpool.txt	LTP064	ltpFR	15	14	1	ARCHITECT	36	n/a	n/a	1	0.57763671875	0.412841796875	1	lower	amplitud.ttf
2631.466	n/a	WORD	1315733	wordpools/wasnorm_wordpool.txt	LTP064	ltpFR	15	14	1	BUTTERFLY	206	n/a	n/a	1	0.57763671875	0.412841796875	1	lower	amplitud.ttf
2635.294	n/a	WORD	1317647	wordpools/wasnorm_wordpool.txt	LTP064	ltpFR	15	14	1	NEUTRON	947	n/a	n/a	0	0.57763671875	0.412841796875	1	lower	amplitud.ttf
2639.214	n/a	WORD	1319607	wordpools/wasnorm_wordpool.txt	LTP064	ltpFR	15	14	1	PECAN	1036	n/a	n/a	0	0.57763671875	0.412841796875	1	lower	amplitud.ttf
2643.352	n/a	WORD	1321676	wordpools/wasnorm_wordpool.txt	LTP064	ltpFR	15	14	1	CLOSET	326	n/a	n/a	0	0.57763671875	0.412841796875	1	lower	amplitud.ttf
2647.43	n/a	WORD	1323715	wordpools/wasnorm_wordpool.txt	LTP064	ltpFR	15	14	1	DESIGNER	451	n/a	n/a	1	0.57763671875	0.412841796875	1	lower	amplitud.ttf
2651.576	n/a	WORD	1325788	wordpools/wasnorm_wordpool.txt	LTP064	ltpFR	15	14	1	STY	1397	n/a	n/a	1	0.57763671875	0.412841796875	1	lower	amplitud.ttf
2655.736	n/a	WORD	1327868	wordpools/wasnorm_wordpool.txt	LTP064	ltpFR	15	14	1	GLASSES	640	n/a	n/a	1	0.57763671875	0.412841796875	1	lower	amplitud.ttf
2659.59	n/a	WORD	1329795	wordpools/wasnorm_wordpool.txt	LTP064	ltpFR	15	14	1	VINEGAR	1569	n/a	n/a	0	0.57763671875	0.412841796875	1	lower	amplitud.ttf
2663.736	n/a	WORD	1331868	wordpools/wasnorm_wordpool.txt	LTP064	ltpFR	15	14	1	PROTON	1132	n/a	n/a	0	0.57763671875	0.412841796875	1	lower	amplitud.ttf
2667.906	n/a	WORD	1333953	wordpools/wasnorm_wordpool.txt	LTP064	ltpFR	15	14	1	FACTORY	548	n/a	n/a	1	0.57763671875	0.412841796875	1	lower	amplitud.ttf
2671.842	n/a	WORD	1335921	wordpools/wasnorm_wordpool.txt	LTP064	ltpFR	15	14	1	ROD	1203	n/a	n/a	0	0.57763671875	0.412841796875	1	lower	amplitud.ttf
2675.754	n/a	WORD	1337877	wordpools/wasnorm_wordpool.txt	LTP064	ltpFR	15	14	1	GUARD	667	n/a	n/a	0	0.57763671875	0.412841796875	1	lower	amplitud.ttf
2679.584	n/a	WORD	1339792	wordpools/wasnorm_wordpool.txt	LTP064	ltpFR	15	14	1	DIRECTOR	471	n/a	n/a	1	0.57763671875	0.412841796875	1	lower	amplitud.ttf
2683.438	n/a	WORD	1341719	wordpools/wasnorm_wordpool.txt	LTP064	ltpFR	15	14	1	SEAL	1262	n/a	n/a	1	0.57763671875	0.412841796875	1	lower	amplitud.ttf
2687.25	n/a	WORD	1343625	wordpools/wasnorm_wordpool.txt	LTP064	ltpFR	15	14	1	CIRCUS	311	n/a	n/a	1	0.57763671875	0.412841796875	1	lower	amplitud.ttf
2693.16	n/a	REC_START	1346580	n/a	LTP064	ltpFR	15	14	n/a	n/a	n/a	n/a	n/a	n/a	n/a	n/a	n/a	n/a	n/a
2693.564	n/a	REC_WORD	1346782	wordpools/wasnorm_wordpool.txt	LTP064	ltpFR	15	14	1	GUARD	667	n/a	n/a	0	n/a	n/a	n/a	n/a	n/a
2693.89	n/a	REC_WORD	1346945	wordpools/wasnorm_wordpool.txt	LTP064	ltpFR	15	14	1	DIRECTOR	471	n/a	n/a	1	n/a	n/a	n/a	n/a	n/a
2694.35	n/a	REC_WORD	1347175	wordpools/wasnorm_wordpool.txt	LTP064	ltpFR	15	14	1	SEAL	1262	n/a	n/a	1	n/a	n/a	n/a	n/a	n/a
2694.756	n/a	REC_WORD	1347378	wordpools/wasnorm_wordpool.txt	LTP064	ltpFR	15	14	1	CIRCUS	311	n/a	n/a	1	n/a	n/a	n/a	n/a	n/a
2695.37	n/a	REC_WORD	1347685	wordpools/wasnorm_wordpool.txt	LTP064	ltpFR	15	14	1	PROTON	1132	n/a	n/a	0	n/a	n/a	n/a	n/a	n/a
2695.908	n/a	REC_WORD	1347954	wordpools/wasnorm_wordpool.txt	LTP064	ltpFR	15	14	1	VINEGAR	1569	n/a	n/a	0	n/a	n/a	n/a	n/a	n/a
2697.172	n/a	REC_WORD	1348586	wordpools/wasnorm_wordpool.txt	LTP064	ltpFR	15	14	1	ROD	1203	n/a	n/a	0	n/a	n/a	n/a	n/a	n/a
2697.684	n/a	REC_WORD	1348842	wordpools/wasnorm_wordpool.txt	LTP064	ltpFR	15	14	1	FACTORY	548	n/a	n/a	1	n/a	n/a	n/a	n/a	n/a
2700.99	n/a	REC_WORD	1350495	wordpools/wasnorm_wordpool.txt	LTP064	ltpFR	15	14	1	BUTTERFLY	206	n/a	n/a	1	n/a	n/a	n/a	n/a	n/a
2701.832	n/a	REC_WORD	1350916	wordpools/wasnorm_wordpool.txt	LTP064	ltpFR	15	14	1	ARCHITECT	36	n/a	n/a	1	n/a	n/a	n/a	n/a	n/a
2707.842	n/a	REC_WORD	1353921	wordpools/wasnorm_wordpool.txt	LTP064	ltpFR	15	14	1	NEUTRON	947	n/a	n/a	0	n/a	n/a	n/a	n/a	n/a
2708.784	n/a	REC_WORD	1354392	wordpools/wasnorm_wordpool.txt	LTP064	ltpFR	15	14	1	STY	1397	n/a	n/a	1	n/a	n/a	n/a	n/a	n/a
2709.49	n/a	REC_WORD	1354745	wordpools/wasnorm_wordpool.txt	LTP064	ltpFR	15	14	1	GLASSES	640	n/a	n/a	1	n/a	n/a	n/a	n/a	n/a
2710.716	n/a	REC_WORD	1355358	wordpools/wasnorm_wordpool.txt	LTP064	ltpFR	15	14	1	CLOSET	326	n/a	n/a	0	n/a	n/a	n/a	n/a	n/a
2711.206	n/a	REC_WORD	1355603	wordpools/wasnorm_wordpool.txt	LTP064	ltpFR	15	14	1	DESIGNER	451	n/a	n/a	1	n/a	n/a	n/a	n/a	n/a
2716.384	n/a	REC_WORD	1358192	wordpools/wasnorm_wordpool.txt	LTP064	ltpFR	15	14	n/a	ORANGE	980	n/a	n/a	n/a	n/a	n/a	n/a	n/a	n/a
2796.192	n/a	WORD	1398096	wordpools/wasnorm_wordpool.txt	LTP064	ltpFR	15	15	-1	PRIMATE	1123	n/a	n/a	-1	1.0	1.0	1	upper	Verdana.ttf
2800.136	n/a	WORD	1400068	wordpools/wasnorm_wordpool.txt	LTP064	ltpFR	15	15	-1	MARSH	874	n/a	n/a	-1	1.0	1.0	1	upper	Verdana.ttf
2804.132	n/a	WORD	1402066	wordpools/wasnorm_wordpool.txt	LTP064	ltpFR	15	15	-1	CORPORATION	382	n/a	n/a	-1	1.0	1.0	1	upper	Verdana.ttf
2808.236	n/a	WORD	1404118	wordpools/wasnorm_wordpool.txt	LTP064	ltpFR	15	15	-1	SKYSCRAPER	1322	n/a	n/a	-1	1.0	1.0	1	upper	Verdana.ttf
2812.322	n/a	WORD	1406161	wordpools/wasnorm_wordpool.txt	LTP064	ltpFR	15	15	-1	RASH	1167	n/a	n/a	-1	1.0	1.0	1	upper	Verdana.ttf
2816.434	n/a	WORD	1408217	wordpools/wasnorm_wordpool.txt	LTP064	ltpFR	15	15	-1	HONEY	713	n/a	n/a	-1	1.0	1.0	1	upper	Verdana.ttf
2820.472	n/a	WORD	1410236	wordpools/wasnorm_wordpool.txt	LTP064	ltpFR	15	15	-1	CUB	419	n/a	n/a	-1	1.0	1.0	1	upper	Verdana.ttf
2824.608	n/a	WORD	1412304	wordpools/wasnorm_wordpool.txt	LTP064	ltpFR	15	15	-1	LADDER	793	n/a	n/a	-1	1.0	1.0	1	upper	Verdana.ttf
2828.428	n/a	WORD	1414214	wordpools/wasnorm_wordpool.txt	LTP064	ltpFR	15	15	-1	STEP	1377	n/a	n/a	-1	1.0	1.0	1	upper	Verdana.ttf
2832.632	n/a	WORD	1416316	wordpools/wasnorm_wordpool.txt	LTP064	ltpFR	15	15	-1	BANDANNA	80	n/a	n/a	-1	1.0	1.0	1	upper	Verdana.ttf
2836.57	n/a	WORD	1418285	wordpools/wasnorm_wordpool.txt	LTP064	ltpFR	15	15	-1	WASP	1593	n/a	n/a	-1	1.0	1.0	1	upper	Verdana.ttf
2840.764	n/a	WORD	1420382	wordpools/wasnorm_wordpool.txt	LTP064	ltpFR	15	15	-1	SNORKEL	1336	n/a	n/a	-1	1.0	1.0	1	upper	Verdana.ttf
2844.776	n/a	WORD	1422388	wordpools/wasnorm_wordpool.txt	LTP064	ltpFR	15	15	-1	AGENT	10	n/a	n/a	-1	1.0	1.0	1	upper	Verdana.ttf
2848.598	n/a	WORD	1424299	wordpools/wasnorm_wordpool.txt	LTP064	ltpFR	15	15	-1	POLITICIAN	1099	n/a	n/a	-1	1.0	1.0	1	upper	Verdana.ttf
2852.792	n/a	WORD	1426396	wordpools/wasnorm_wordpool.txt	LTP064	ltpFR	15	15	-1	SCROLL	1257	n/a	n/a	-1	1.0	1.0	1	upper	Verdana.ttf
2856.854	n/a	WORD	1428427	wordpools/wasnorm_wordpool.txt	LTP064	ltpFR	15	15	-1	FAMILY	550	n/a	n/a	-1	1.0	1.0	1	upper	Verdana.ttf
2862.972	n/a	REC_START	1431486	n/a	LTP064	ltpFR	15	15	n/a	n/a	n/a	n/a	n/a	n/a	n/a	n/a	n/a	n/a	n/a
2862.978	n/a	REC_WORD	1431489	wordpools/wasnorm_wordpool.txt	LTP064	ltpFR	15	15	-1	AGENT	10	n/a	n/a	-1	n/a	n/a	n/a	n/a	n/a
2863.41	n/a	REC_WORD	1431705	wordpools/wasnorm_wordpool.txt	LTP064	ltpFR	15	15	-1	POLITICIAN	1099	n/a	n/a	-1	n/a	n/a	n/a	n/a	n/a
2864.254	n/a	REC_WORD	1432127	wordpools/wasnorm_wordpool.txt	LTP064	ltpFR	15	15	-1	SCROLL	1257	n/a	n/a	-1	n/a	n/a	n/a	n/a	n/a
2864.888	n/a	REC_WORD	1432444	wordpools/wasnorm_wordpool.txt	LTP064	ltpFR	15	15	-1	FAMILY	550	n/a	n/a	-1	n/a	n/a	n/a	n/a	n/a
2865.818	n/a	REC_WORD	1432909	wordpools/wasnorm_wordpool.txt	LTP064	ltpFR	15	15	-1	WASP	1593	n/a	n/a	-1	n/a	n/a	n/a	n/a	n/a
2866.316	n/a	REC_WORD	1433158	wordpools/wasnorm_wordpool.txt	LTP064	ltpFR	15	15	-1	BANDANNA	80	n/a	n/a	-1	n/a	n/a	n/a	n/a	n/a
2867.118	n/a	REC_WORD	1433559	wordpools/wasnorm_wordpool.txt	LTP064	ltpFR	15	15	-1	STEP	1377	n/a	n/a	-1	n/a	n/a	n/a	n/a	n/a
2873.16	n/a	REC_WORD	1436580	wordpools/wasnorm_wordpool.txt	LTP064	ltpFR	15	15	-1	LADDER	793	n/a	n/a	-1	n/a	n/a	n/a	n/a	n/a
2873.702	n/a	REC_WORD	1436851	wordpools/wasnorm_wordpool.txt	LTP064	ltpFR	15	15	-1	CUB	419	n/a	n/a	-1	n/a	n/a	n/a	n/a	n/a
2874.328	n/a	REC_WORD	1437164	wordpools/wasnorm_wordpool.txt	LTP064	ltpFR	15	15	-1	HONEY	713	n/a	n/a	-1	n/a	n/a	n/a	n/a	n/a
2874.798	n/a	REC_WORD	1437399	wordpools/wasnorm_wordpool.txt	LTP064	ltpFR	15	15	-1	RASH	1167	n/a	n/a	-1	n/a	n/a	n/a	n/a	n/a
2875.458	n/a	REC_WORD	1437729	wordpools/wasnorm_wordpool.txt	LTP064	ltpFR	15	15	-1	CORPORATION	382	n/a	n/a	-1	n/a	n/a	n/a	n/a	n/a
2876.31	n/a	REC_WORD	1438155	wordpools/wasnorm_wordpool.txt	LTP064	ltpFR	15	15	-1	SKYSCRAPER	1322	n/a	n/a	-1	n/a	n/a	n/a	n/a	n/a
2877.254	n/a	REC_WORD	1438627	wordpools/wasnorm_wordpool.txt	LTP064	ltpFR	15	15	-1	PRIMATE	1123	n/a	n/a	-1	n/a	n/a	n/a	n/a	n/a
2878.264	n/a	REC_WORD	1439132	wordpools/wasnorm_wordpool.txt	LTP064	ltpFR	15	15	-1	MARSH	874	n/a	n/a	-1	n/a	n/a	n/a	n/a	n/a
2905.6	n/a	REC_WORD	1452800	wordpools/wasnorm_wordpool.txt	LTP064	ltpFR	15	15	n/a	MOTORCYCLE	923	n/a	n/a	n/a	n/a	n/a	n/a	n/a	n/a
2957.23	n/a	WORD	1478615	wordpools/wasnorm_wordpool.txt	LTP064	ltpFR	15	16	0	DETERGENT	455	n/a	n/a	0	0.422607421875	0.5869140625	0	upper	zerothre.ttf
2961.326	n/a	WORD	1480663	wordpools/wasnorm_wordpool.txt	LTP064	ltpFR	15	16	0	BATH	98	n/a	n/a	0	0.422607421875	0.5869140625	0	upper	zerothre.ttf
2965.288	n/a	WORD	1482644	wordpools/wasnorm_wordpool.txt	LTP064	ltpFR	15	16	0	COWBOY	395	n/a	n/a	1	0.422607421875	0.5869140625	0	upper	zerothre.ttf
2969.416	n/a	WORD	1484708	wordpools/wasnorm_wordpool.txt	LTP064	ltpFR	15	16	0	CHECKERS	285	n/a	n/a	1	0.422607421875	0.5869140625	0	upper	zerothre.ttf
2973.254	n/a	WORD	1486627	wordpools/wasnorm_wordpool.txt	LTP064	ltpFR	15	16	0	BOX	159	n/a	n/a	0	0.422607421875	0.5869140625	0	upper	zerothre.ttf
2977.29	n/a	WORD	1488645	wordpools/wasnorm_wordpool.txt	LTP064	ltpFR	15	16	0	COOKIE	374	n/a	n/a	0	0.422607421875	0.5869140625	0	upper	zerothre.ttf
2981.344	n/a	WORD	1490672	wordpools/wasnorm_wordpool.txt	LTP064	ltpFR	15	16	0	BRAN	167	n/a	n/a	0	0.422607421875	0.5869140625	0	upper	zerothre.ttf
2985.156	n/a	WORD	1492578	wordpools/wasnorm_wordpool.txt	LTP064	ltpFR	15	16	0	DEPUTY	450	n/a	n/a	1	0.422607421875	0.5869140625	0	upper	zerothre.ttf
2989.218	n/a	WORD	1494609	wordpools/wasnorm_wordpool.txt	LTP064	ltpFR	15	16	0	SWATTER	1418	n/a	n/a	0	0.422607421875	0.5869140625	0	upper	zerothre.ttf
2993.072	n/a	WORD	1496536	wordpools/wasnorm_wordpool.txt	LTP064	ltpFR	15	16	0	JET	756	n/a	n/a	1	0.422607421875	0.5869140625	0	upper	zerothre.ttf
2997.042	n/a	WORD	1498521	wordpools/wasnorm_wordpool.txt	LTP064	ltpFR	15	16	0	CUPBOARD	425	n/a	n/a	1	0.422607421875	0.5869140625	0	upper	zerothre.ttf
3000.87	n/a	WORD	1500435	wordpools/wasnorm_wordpool.txt	LTP064	ltpFR	15	16	0	INDIAN	736	n/a	n/a	1	0.422607421875	0.5869140625	0	upper	zerothre.ttf
3004.742	n/a	WORD	1502371	wordpools/wasnorm_wordpool.txt	LTP064	ltpFR	15	16	0	HEN	703	n/a	n/a	1	0.422607421875	0.5869140625	0	upper	zerothre.ttf
3008.944	n/a	WORD	1504472	wordpools/wasnorm_wordpool.txt	LTP064	ltpFR	15	16	0	FARMER	553	n/a	n/a	1	0.422607421875	0.5869140625	0	upper	zerothre.ttf
3012.84	n/a	WORD	1506420	wordpools/wasnorm_wordpool.txt	LTP064	ltpFR	15	16	0	OWNER	993	n/a	n/a	1	0.422607421875	0.5869140625	0	upper	zerothre.ttf
3016.886	n/a	WORD	1508443	wordpools/wasnorm_wordpool.txt	LTP064	ltpFR	15	16	0	SHERIFF	1284	n/a	n/a	1	0.422607421875	0.5869140625	0	upper	zerothre.ttf
3022.638	n/a	REC_START	1511319	n/a	LTP064	ltpFR	15	16	n/a	n/a	n/a	n/a	n/a	n/a	n/a	n/a	n/a	n/a	n/a
3022.958	n/a	REC_WORD	1511479	wordpools/wasnorm_wordpool.txt	LTP064	ltpFR	15	16	0	HEN	703	n/a	n/a	1	n/a	n/a	n/a	n/a	n/a
3023.212	n/a	REC_WORD	1511606	wordpools/wasnorm_wordpool.txt	LTP064	ltpFR	15	16	0	FARMER	553	n/a	n/a	1	n/a	n/a	n/a	n/a	n/a
3023.646	n/a	REC_WORD	1511823	wordpools/wasnorm_wordpool.txt	LTP064	ltpFR	15	16	0	OWNER	993	n/a	n/a	1	n/a	n/a	n/a	n/a	n/a
3023.964	n/a	REC_WORD	1511982	wordpools/wasnorm_wordpool.txt	LTP064	ltpFR	15	16	0	SHERIFF	1284	n/a	n/a	1	n/a	n/a	n/a	n/a	n/a
3025.342	n/a	REC_WORD	1512671	wordpools/wasnorm_wordpool.txt	LTP064	ltpFR	15	16	0	JET	756	n/a	n/a	1	n/a	n/a	n/a	n/a	n/a
3025.868	n/a	REC_WORD	1512934	wordpools/wasnorm_wordpool.txt	LTP064	ltpFR	15	16	0	INDIAN	736	n/a	n/a	1	n/a	n/a	n/a	n/a	n/a
3026.546	n/a	REC_WORD	1513273	wordpools/wasnorm_wordpool.txt	LTP064	ltpFR	15	16	0	SWATTER	1418	n/a	n/a	0	n/a	n/a	n/a	n/a	n/a
3027.286	n/a	REC_WORD	1513643	wordpools/wasnorm_wordpool.txt	LTP064	ltpFR	15	16	0	CUPBOARD	425	n/a	n/a	1	n/a	n/a	n/a	n/a	n/a
3029.396	n/a	REC_WORD	1514698	wordpools/wasnorm_wordpool.txt	LTP064	ltpFR	15	16	0	DEPUTY	450	n/a	n/a	1	n/a	n/a	n/a	n/a	n/a
3030.078	n/a	REC_WORD	1515039	wordpools/wasnorm_wordpool.txt	LTP064	ltpFR	15	16	0	BRAN	167	n/a	n/a	0	n/a	n/a	n/a	n/a	n/a
3030.776	n/a	REC_WORD	1515388	wordpools/wasnorm_wordpool.txt	LTP064	ltpFR	15	16	0	COOKIE	374	n/a	n/a	0	n/a	n/a	n/a	n/a	n/a
3031.362	n/a	REC_WORD	1515681	wordpools/wasnorm_wordpool.txt	LTP064	ltpFR	15	16	0	BOX	159	n/a	n/a	0	n/a	n/a	n/a	n/a	n/a
3032.55	n/a	REC_WORD	1516275	wordpools/wasnorm_wordpool.txt	LTP064	ltpFR	15	16	0	BATH	98	n/a	n/a	0	n/a	n/a	n/a	n/a	n/a
3033.274	n/a	REC_WORD	1516637	wordpools/wasnorm_wordpool.txt	LTP064	ltpFR	15	16	0	CHECKERS	285	n/a	n/a	1	n/a	n/a	n/a	n/a	n/a
3034.302	n/a	REC_WORD	1517151	wordpools/wasnorm_wordpool.txt	LTP064	ltpFR	15	16	0	DETERGENT	455	n/a	n/a	0	n/a	n/a	n/a	n/a	n/a
3035.052	n/a	REC_WORD	1517526	wordpools/wasnorm_wordpool.txt	LTP064	ltpFR	15	16	0	COWBOY	395	n/a	n/a	1	n/a	n/a	n/a	n/a	n/a
3131.288	n/a	REC_START	1565644	n/a	LTP064	ltpFR	15	1	n/a	n/a	n/a	n/a	n/a	n/a	n/a	n/a	n/a	n/a	n/a
3131.322	n/a	RECOG_TARGET	1565661	n/a	LTP064	ltpFR	15	1	1	ROOMMATE	1207	1	4	1	n/a	n/a	n/a	n/a	n/a
3132.72	n/a	RECOG_RESP	1566360	n/a	LTP064	ltpFR	15	1	1	ROOMMATE	1207	1	n/a	1	n/a	n/a	n/a	n/a	n/a
3134.306	n/a	RECOG_CONF	1567153	n/a	LTP064	ltpFR	15	1	1	ROOMMATE	1207	n/a	4	1	n/a	n/a	n/a	n/a	n/a
3136.2	n/a	RECOG_TARGET	1568100	n/a	LTP064	ltpFR	15	1	1	GUM	672	1	3	0	n/a	n/a	n/a	n/a	n/a
3136.956	n/a	RECOG_RESP	1568478	n/a	LTP064	ltpFR	15	1	1	GUM	672	1	n/a	0	n/a	n/a	n/a	n/a	n/a
3137.958	n/a	RECOG_CONF	1568979	n/a	LTP064	ltpFR	15	1	1	GUM	672	n/a	3	0	n/a	n/a	n/a	n/a	n/a
3139.478	n/a	RECOG_LURE	1569739	n/a	LTP064	ltpFR	15	1	n/a	TOAD	1470	0	4	n/a	n/a	n/a	n/a	n/a	n/a
3139.78	n/a	RECOG_RESP	1569890	n/a	LTP064	ltpFR	15	1	n/a	TOAD	1470	0	n/a	n/a	n/a	n/a	n/a	n/a	n/a
3141.082	n/a	RECOG_CONF	1570541	n/a	LTP064	ltpFR	15	1	n/a	TOAD	1470	n/a	4	n/a	n/a	n/a	n/a	n/a	n/a
3142.74	n/a	RECOG_TARGET	1571370	n/a	LTP064	ltpFR	15	1	1	CAPE	237	1	5	0	n/a	n/a	n/a	n/a	n/a
3143.206	n/a	RECOG_RESP	1571603	n/a	LTP064	ltpFR	15	1	1	CAPE	237	1	n/a	0	n/a	n/a	n/a	n/a	n/a
3144.024	n/a	RECOG_CONF	1572012	n/a	LTP064	ltpFR	15	1	1	CAPE	237	n/a	5	0	n/a	n/a	n/a	n/a	n/a
3145.754	n/a	RECOG_LURE	1572877	n/a	LTP064	ltpFR	15	1	n/a	TICKET	1464	0	4	n/a	n/a	n/a	n/a	n/a	n/a
3146.18	n/a	RECOG_RESP	1573090	n/a	LTP064	ltpFR	15	1	n/a	TICKET	1464	0	n/a	n/a	n/a	n/a	n/a	n/a	n/a
3147.146	n/a	RECOG_CONF	1573573	n/a	LTP064	ltpFR	15	1	n/a	TICKET	1464	n/a	4	n/a	n/a	n/a	n/a	n/a	n/a
3148.892	n/a	RECOG_LURE	1574446	n/a	LTP064	ltpFR	15	1	n/a	SAPPHIRE	1234	0	3	n/a	n/a	n/a	n/a	n/a	n/a
3149.442	n/a	RECOG_RESP	1574721	n/a	LTP064	ltpFR	15	1	n/a	SAPPHIRE	1234	0	n/a	n/a	n/a	n/a	n/a	n/a	n/a
3151.088	n/a	RECOG_CONF	1575544	n/a	LTP064	ltpFR	15	1	n/a	SAPPHIRE	1234	n/a	3	n/a	n/a	n/a	n/a	n/a	n/a
3152.904	n/a	RECOG_TARGET	1576452	n/a	LTP064	ltpFR	15	1	1	NEUTRON	947	1	4	0	n/a	n/a	n/a	n/a	n/a
3153.394	n/a	RECOG_RESP	1576697	n/a	LTP064	ltpFR	15	1	1	NEUTRON	947	1	n/a	0	n/a	n/a	n/a	n/a	n/a
3154.88	n/a	RECOG_CONF	1577440	n/a	LTP064	ltpFR	15	1	1	NEUTRON	947	n/a	4	0	n/a	n/a	n/a	n/a	n/a
3156.634	n/a	RECOG_TARGET	1578317	n/a	LTP064	ltpFR	15	1	0	KNIGHT	786	0	2	1	n/a	n/a	n/a	n/a	n/a
3157.07	n/a	RECOG_RESP	1578535	n/a	LTP064	ltpFR	15	1	0	KNIGHT	786	0	n/a	1	n/a	n/a	n/a	n/a	n/a
3158.622	n/a	RECOG_CONF	1579311	n/a	LTP064	ltpFR	15	1	0	KNIGHT	786	n/a	2	1	n/a	n/a	n/a	n/a	n/a
3160.23	n/a	RECOG_TARGET	1580115	n/a	LTP064	ltpFR	15	1	0	RIVER	1194	1	3	0	n/a	n/a	n/a	n/a	n/a
3160.686	n/a	RECOG_RESP_VV	1580343	n/a	LTP064	ltpFR	15	1	0	RIVER	1194	0	n/a	0	n/a	n/a	n/a	n/a	n/a
3161.854	n/a	RECOG_RESP	1580927	n/a	LTP064	ltpFR	15	1	0	RIVER	1194	1	n/a	0	n/a	n/a	n/a	n/a	n/a
3163.042	n/a	RECOG_CONF	1581521	n/a	LTP064	ltpFR	15	1	0	RIVER	1194	n/a	3	0	n/a	n/a	n/a	n/a	n/a
3164.432	n/a	RECOG_TARGET	1582216	n/a	LTP064	ltpFR	15	1	0	GOWN	652	1	4	0	n/a	n/a	n/a	n/a	n/a
3165.52	n/a	RECOG_RESP	1582760	n/a	LTP064	ltpFR	15	1	0	GOWN	652	1	n/a	0	n/a	n/a	n/a	n/a	n/a
3166.388	n/a	RECOG_CONF	1583194	n/a	LTP064	ltpFR	15	1	0	GOWN	652	n/a	4	0	n/a	n/a	n/a	n/a	n/a
3167.812	n/a	RECOG_TARGET	1583906	n/a	LTP064	ltpFR	15	1	1	TYPIST	1532	0	3	1	n/a	n/a	n/a	n/a	n/a
3168.234	n/a	RECOG_RESP	1584117	n/a	LTP064	ltpFR	15	1	1	TYPIST	1532	0	n/a	1	n/a	n/a	n/a	n/a	n/a
3169.956	n/a	RECOG_CONF	1584978	n/a	LTP064	ltpFR	15	1	1	TYPIST	1532	n/a	3	1	n/a	n/a	n/a	n/a	n/a
3171.656	n/a	RECOG_TARGET	1585828	n/a	LTP064	ltpFR	15	1	-1	LADDER	793	1	3	-1	n/a	n/a	n/a	n/a	n/a
3172.186	n/a	RECOG_RESP	1586093	n/a	LTP064	ltpFR	15	1	-1	LADDER	793	1	n/a	-1	n/a	n/a	n/a	n/a	n/a
3173.388	n/a	RECOG_CONF	1586694	n/a	LTP064	ltpFR	15	1	-1	LADDER	793	n/a	3	-1	n/a	n/a	n/a	n/a	n/a
3174.862	n/a	RECOG_TARGET	1587431	n/a	LTP064	ltpFR	15	1	1	DESIGNER	451	1	4	1	n/a	n/a	n/a	n/a	n/a
3175.274	n/a	RECOG_RESP	1587637	n/a	LTP064	ltpFR	15	1	1	DESIGNER	451	1	n/a	1	n/a	n/a	n/a	n/a	n/a
3176.346	n/a	RECOG_CONF	1588173	n/a	LTP064	ltpFR	15	1	1	DESIGNER	451	n/a	4	1	n/a	n/a	n/a	n/a	n/a
3177.99	n/a	RECOG_TARGET	1588995	n/a	LTP064	ltpFR	15	1	0	VITAMIN	1574	1	5	1	n/a	n/a	n/a	n/a	n/a
3178.222	n/a	RECOG_RESP	1589111	n/a	LTP064	ltpFR	15	1	0	VITAMIN	1574	1	n/a	1	n/a	n/a	n/a	n/a	n/a
3179.17	n/a	RECOG_CONF	1589585	n/a	LTP064	ltpFR	15	1	0	VITAMIN	1574	n/a	5	1	n/a	n/a	n/a	n/a	n/a
3180.762	n/a	RECOG_TARGET	1590381	n/a	LTP064	ltpFR	15	1	-1	PRIMATE	1123	1	4	-1	n/a	n/a	n/a	n/a	n/a
3180.91	n/a	RECOG_RESP	1590455	n/a	LTP064	ltpFR	15	1	-1	PRIMATE	1123	1	n/a	-1	n/a	n/a	n/a	n/a	n/a
3181.898	n/a	RECOG_CONF	1590949	n/a	LTP064	ltpFR	15	1	-1	PRIMATE	1123	n/a	4	-1	n/a	n/a	n/a	n/a	n/a
3183.626	n/a	RECOG_TARGET	1591813	n/a	LTP064	ltpFR	15	1	-1	COLLAR	345	0	2	-1	n/a	n/a	n/a	n/a	n/a
3183.774	n/a	RECOG_RESP	1591887	n/a	LTP064	ltpFR	15	1	-1	COLLAR	345	0	n/a	-1	n/a	n/a	n/a	n/a	n/a
3185.13	n/a	RECOG_CONF	1592565	n/a	LTP064	ltpFR	15	1	-1	COLLAR	345	n/a	2	-1	n/a	n/a	n/a	n/a	n/a
3186.74	n/a	RECOG_LURE	1593370	n/a	LTP064	ltpFR	15	1	n/a	SLIME	1327	1	1	n/a	n/a	n/a	n/a	n/a	n/a
3187.206	n/a	RECOG_RESP	1593603	n/a	LTP064	ltpFR	15	1	n/a	SLIME	1327	1	n/a	n/a	n/a	n/a	n/a	n/a	n/a
3188.414	n/a	RECOG_CONF	1594207	n/a	LTP064	ltpFR	15	1	n/a	SLIME	1327	n/a	1	n/a	n/a	n/a	n/a	n/a	n/a
3190.068	n/a	RECOG_TARGET	1595034	n/a	LTP064	ltpFR	15	1	1	TELEVISION	1447	0	4	0	n/a	n/a	n/a	n/a	n/a
3190.382	n/a	RECOG_RESP	1595191	n/a	LTP064	ltpFR	15	1	1	TELEVISION	1447	0	n/a	0	n/a	n/a	n/a	n/a	n/a
3191.506	n/a	RECOG_CONF	1595753	n/a	LTP064	ltpFR	15	1	1	TELEVISION	1447	n/a	4	0	n/a	n/a	n/a	n/a	n/a
3193.124	n/a	RECOG_LURE	1596562	n/a	LTP064	ltpFR	15	1	n/a	ALLIGATOR	16	0	4	n/a	n/a	n/a	n/a	n/a	n/a
3193.442	n/a	RECOG_RESP	1596721	n/a	LTP064	ltpFR	15	1	n/a	ALLIGATOR	16	0	n/a	n/a	n/a	n/a	n/a	n/a	n/a
3194.61	n/a	RECOG_CONF	1597305	n/a	LTP064	ltpFR	15	1	n/a	ALLIGATOR	16	n/a	4	n/a	n/a	n/a	n/a	n/a	n/a
3196.354	n/a	RECOG_TARGET	1598177	n/a	LTP064	ltpFR	15	1	0	PASTA	1021	1	3	0	n/a	n/a	n/a	n/a	n/a
3196.52	n/a	RECOG_RESP	1598260	n/a	LTP064	ltpFR	15	1	0	PASTA	1021	1	n/a	0	n/a	n/a	n/a	n/a	n/a
3197.662	n/a	RECOG_CONF	1598831	n/a	LTP064	ltpFR	15	1	0	PASTA	1021	n/a	3	0	n/a	n/a	n/a	n/a	n/a
3200.892	n/a	REC_START	1600446	n/a	LTP064	ltpFR	15	2	n/a	n/a	n/a	n/a	n/a	n/a	n/a	n/a	n/a	n/a	n/a
3200.922	n/a	RECOG_TARGET	1600461	n/a	LTP064	ltpFR	15	2	1	APARTMENT	30	1	1	1	n/a	n/a	n/a	n/a	n/a
3201.366	n/a	RECOG_RESP	1600683	n/a	LTP064	ltpFR	15	2	1	APARTMENT	30	1	n/a	1	n/a	n/a	n/a	n/a	n/a
3202.346	n/a	RECOG_CONF	1601173	n/a	LTP064	ltpFR	15	2	1	APARTMENT	30	n/a	1	1	n/a	n/a	n/a	n/a	n/a
3203.894	n/a	RECOG_TARGET	1601947	n/a	LTP064	ltpFR	15	2	0	PORPOISE	1109	1	1	1	n/a	n/a	n/a	n/a	n/a
3204.236	n/a	RECOG_RESP	1602118	n/a	LTP064	ltpFR	15	2	0	PORPOISE	1109	1	n/a	1	n/a	n/a	n/a	n/a	n/a
3205.218	n/a	RECOG_CONF	1602609	n/a	LTP064	ltpFR	15	2	0	PORPOISE	1109	n/a	1	1	n/a	n/a	n/a	n/a	n/a
3206.766	n/a	RECOG_LURE	1603383	n/a	LTP064	ltpFR	15	2	n/a	ERASER	538	0	4	n/a	n/a	n/a	n/a	n/a	n/a
3207.17	n/a	RECOG_RESP	1603585	n/a	LTP064	ltpFR	15	2	n/a	ERASER	538	0	n/a	n/a	n/a	n/a	n/a	n/a	n/a
3208.152	n/a	RECOG_CONF	1604076	n/a	LTP064	ltpFR	15	2	n/a	ERASER	538	n/a	4	n/a	n/a	n/a	n/a	n/a	n/a
3209.738	n/a	RECOG_LURE	1604869	n/a	LTP064	ltpFR	15	2	n/a	BOSS	152	0	4	n/a	n/a	n/a	n/a	n/a	n/a
3210.032	n/a	RECOG_RESP	1605016	n/a	LTP064	ltpFR	15	2	n/a	BOSS	152	0	n/a	n/a	n/a	n/a	n/a	n/a	n/a
3211.294	n/a	RECOG_CONF	1605647	n/a	LTP064	ltpFR	15	2	n/a	BOSS	152	n/a	4	n/a	n/a	n/a	n/a	n/a	n/a
3213.018	n/a	RECOG_TARGET	1606509	n/a	LTP064	ltpFR	15	2	0	CASH	252	1	3	0	n/a	n/a	n/a	n/a	n/a
3213.36	n/a	RECOG_RESP	1606680	n/a	LTP064	ltpFR	15	2	0	CASH	252	1	n/a	0	n/a	n/a	n/a	n/a	n/a
3214.348	n/a	RECOG_CONF	1607174	n/a	LTP064	ltpFR	15	2	0	CASH	252	n/a	3	0	n/a	n/a	n/a	n/a	n/a
3215.832	n/a	RECOG_TARGET	1607916	n/a	LTP064	ltpFR	15	2	0	DEER	444	0	1	1	n/a	n/a	n/a	n/a	n/a
3216.134	n/a	RECOG_RESP	1608067	n/a	LTP064	ltpFR	15	2	0	DEER	444	0	n/a	1	n/a	n/a	n/a	n/a	n/a
3217.4	n/a	RECOG_CONF	1608700	n/a	LTP064	ltpFR	15	2	0	DEER	444	n/a	1	1	n/a	n/a	n/a	n/a	n/a
3219.01	n/a	RECOG_TARGET	1609505	n/a	LTP064	ltpFR	15	2	-1	PIPE	1073	0	2	-1	n/a	n/a	n/a	n/a	n/a
3219.332	n/a	RECOG_RESP	1609666	n/a	LTP064	ltpFR	15	2	-1	PIPE	1073	0	n/a	-1	n/a	n/a	n/a	n/a	n/a
3220.324	n/a	RECOG_CONF	1610162	n/a	LTP064	ltpFR	15	2	-1	PIPE	1073	n/a	2	-1	n/a	n/a	n/a	n/a	n/a
3221.758	n/a	RECOG_TARGET	1610879	n/a	LTP064	ltpFR	15	2	0	GEM	629	1	4	0	n/a	n/a	n/a	n/a	n/a
3222.076	n/a	RECOG_RESP	1611038	n/a	LTP064	ltpFR	15	2	0	GEM	629	1	n/a	0	n/a	n/a	n/a	n/a	n/a
3222.938	n/a	RECOG_CONF	1611469	n/a	LTP064	ltpFR	15	2	0	GEM	629	n/a	4	0	n/a	n/a	n/a	n/a	n/a
3224.522	n/a	RECOG_TARGET	1612261	n/a	LTP064	ltpFR	15	2	0	SERVANT	1271	1	5	1	n/a	n/a	n/a	n/a	n/a
3224.904	n/a	RECOG_RESP	1612452	n/a	LTP064	ltpFR	15	2	0	SERVANT	1271	1	n/a	1	n/a	n/a	n/a	n/a	n/a
3225.632	n/a	RECOG_CONF	1612816	n/a	LTP064	ltpFR	15	2	0	SERVANT	1271	n/a	5	1	n/a	n/a	n/a	n/a	n/a
3227.326	n/a	RECOG_TARGET	1613663	n/a	LTP064	ltpFR	15	2	0	INDIAN	736	1	5	1	n/a	n/a	n/a	n/a	n/a
3227.628	n/a	RECOG_RESP	1613814	n/a	LTP064	ltpFR	15	2	0	INDIAN	736	1	n/a	1	n/a	n/a	n/a	n/a	n/a
3228.924	n/a	RECOG_CONF	1614462	n/a	LTP064	ltpFR	15	2	0	INDIAN	736	n/a	5	1	n/a	n/a	n/a	n/a	n/a
3230.456	n/a	RECOG_TARGET	1615228	n/a	LTP064	ltpFR	15	2	1	OATS	968	1	4	0	n/a	n/a	n/a	n/a	n/a
3230.84	n/a	RECOG_RESP	1615420	n/a	LTP064	ltpFR	15	2	1	OATS	968	1	n/a	0	n/a	n/a	n/a	n/a	n/a
3231.618	n/a	RECOG_CONF	1615809	n/a	LTP064	ltpFR	15	2	1	OATS	968	n/a	4	0	n/a	n/a	n/a	n/a	n/a
3233.162	n/a	RECOG_TARGET	1616581	n/a	LTP064	ltpFR	15	2	1	DESSERT	453	1	3	0	n/a	n/a	n/a	n/a	n/a
3233.344	n/a	RECOG_RESP	1616672	n/a	LTP064	ltpFR	15	2	1	DESSERT	453	1	n/a	0	n/a	n/a	n/a	n/a	n/a
3234.372	n/a	RECOG_CONF	1617186	n/a	LTP064	ltpFR	15	2	1	DESSERT	453	n/a	3	0	n/a	n/a	n/a	n/a	n/a
3235.85	n/a	RECOG_TARGET	1617925	n/a	LTP064	ltpFR	15	2	1	JEANS	752	1	4	0	n/a	n/a	n/a	n/a	n/a
3236.078	n/a	RECOG_RESP	1618039	n/a	LTP064	ltpFR	15	2	1	JEANS	752	1	n/a	0	n/a	n/a	n/a	n/a	n/a
3237.006	n/a	RECOG_CONF	1618503	n/a	LTP064	ltpFR	15	2	1	JEANS	752	n/a	4	0	n/a	n/a	n/a	n/a	n/a
3238.622	n/a	RECOG_LURE	1619311	n/a	LTP064	ltpFR	15	2	n/a	SHOELACE	1289	0	2	n/a	n/a	n/a	n/a	n/a	n/a
3238.772	n/a	RECOG_RESP	1619386	n/a	LTP064	ltpFR	15	2	n/a	SHOELACE	1289	0	n/a	n/a	n/a	n/a	n/a	n/a	n/a
3239.94	n/a	RECOG_CONF	1619970	n/a	LTP064	ltpFR	15	2	n/a	SHOELACE	1289	n/a	2	n/a	n/a	n/a	n/a	n/a	n/a
3241.56	n/a	RECOG_TARGET	1620780	n/a	LTP064	ltpFR	15	2	1	RAISIN	1163	1	4	1	n/a	n/a	n/a	n/a	n/a
3241.85	n/a	RECOG_RESP	1620925	n/a	LTP064	ltpFR	15	2	1	RAISIN	1163	1	n/a	1	n/a	n/a	n/a	n/a	n/a
3242.604	n/a	RECOG_CONF	1621302	n/a	LTP064	ltpFR	15	2	1	RAISIN	1163	n/a	4	1	n/a	n/a	n/a	n/a	n/a
3244.198	n/a	RECOG_TARGET	1622099	n/a	LTP064	ltpFR	15	2	-1	FEAST	556	1	4	-1	n/a	n/a	n/a	n/a	n/a
3244.37	n/a	RECOG_RESP	1622185	n/a	LTP064	ltpFR	15	2	-1	FEAST	556	1	n/a	-1	n/a	n/a	n/a	n/a	n/a
3245.454	n/a	RECOG_CONF	1622727	n/a	LTP064	ltpFR	15	2	-1	FEAST	556	n/a	4	-1	n/a	n/a	n/a	n/a	n/a
3247.336	n/a	RECOG_TARGET	1623668	n/a	LTP064	ltpFR	15	2	-1	REFRIGERATOR	1179	1	5	-1	n/a	n/a	n/a	n/a	n/a
3247.548	n/a	RECOG_RESP	1623774	n/a	LTP064	ltpFR	15	2	-1	REFRIGERATOR	1179	1	n/a	-1	n/a	n/a	n/a	n/a	n/a
3248.512	n/a	RECOG_CONF	1624256	n/a	LTP064	ltpFR	15	2	-1	REFRIGERATOR	1179	n/a	5	-1	n/a	n/a	n/a	n/a	n/a
3250.45	n/a	RECOG_TARGET	1625225	n/a	LTP064	ltpFR	15	2	-1	PARTNER	1017	0	3	-1	n/a	n/a	n/a	n/a	n/a
3250.586	n/a	RECOG_RESP	1625293	n/a	LTP064	ltpFR	15	2	-1	PARTNER	1017	0	n/a	-1	n/a	n/a	n/a	n/a	n/a
3252.242	n/a	RECOG_CONF	1626121	n/a	LTP064	ltpFR	15	2	-1	PARTNER	1017	n/a	3	-1	n/a	n/a	n/a	n/a	n/a
3253.978	n/a	RECOG_LURE	1626989	n/a	LTP064	ltpFR	15	2	n/a	ELF	525	0	4	n/a	n/a	n/a	n/a	n/a	n/a
3254.142	n/a	RECOG_RESP	1627071	n/a	LTP064	ltpFR	15	2	n/a	ELF	525	0	n/a	n/a	n/a	n/a	n/a	n/a	n/a
3255.154	n/a	RECOG_CONF	1627577	n/a	LTP064	ltpFR	15	2	n/a	ELF	525	n/a	4	n/a	n/a	n/a	n/a	n/a	n/a
3256.784	n/a	RECOG_TARGET	1628392	n/a	LTP064	ltpFR	15	2	0	BEAVER	109	1	5	0	n/a	n/a	n/a	n/a	n/a
3256.99	n/a	RECOG_RESP	1628495	n/a	LTP064	ltpFR	15	2	0	BEAVER	109	1	n/a	0	n/a	n/a	n/a	n/a	n/a
3257.946	n/a	RECOG_CONF	1628973	n/a	LTP064	ltpFR	15	2	0	BEAVER	109	n/a	5	0	n/a	n/a	n/a	n/a	n/a
3262.274	n/a	REC_START	1631137	n/a	LTP064	ltpFR	15	3	n/a	n/a	n/a	n/a	n/a	n/a	n/a	n/a	n/a	n/a	n/a
3262.302	n/a	RECOG_TARGET	1631151	n/a	LTP064	ltpFR	15	3	1	PATRIOT	1026	n/a	4	1	n/a	n/a	n/a	n/a	n/a
3263.616	n/a	RECOG_CONF	1631808	n/a	LTP064	ltpFR	15	3	1	PATRIOT	1026	n/a	4	1	n/a	n/a	n/a	n/a	n/a
3265.358	n/a	RECOG_TARGET	1632679	n/a	LTP064	ltpFR	15	3	0	RING	1193	1	1	0	n/a	n/a	n/a	n/a	n/a
3265.502	n/a	RECOG_RESP	1632751	n/a	LTP064	ltpFR	15	3	0	RING	1193	1	n/a	0	n/a	n/a	n/a	n/a	n/a
3266.53	n/a	RECOG_CONF	1633265	n/a	LTP064	ltpFR	15	3	0	RING	1193	n/a	1	0	n/a	n/a	n/a	n/a	n/a
3268.054	n/a	RECOG_TARGET	1634027	n/a	LTP064	ltpFR	15	3	1	PROTON	1132	1	5	0	n/a	n/a	n/a	n/a	n/a
3268.308	n/a	RECOG_RESP	1634154	n/a	LTP064	ltpFR	15	3	1	PROTON	1132	1	n/a	0	n/a	n/a	n/a	n/a	n/a
3269.284	n/a	RECOG_CONF	1634642	n/a	LTP064	ltpFR	15	3	1	PROTON	1132	n/a	5	0	n/a	n/a	n/a	n/a	n/a
3270.934	n/a	RECOG_TARGET	1635467	n/a	LTP064	ltpFR	15	3	0	HEN	703	1	4	1	n/a	n/a	n/a	n/a	n/a
3271.11	n/a	RECOG_RESP	1635555	n/a	LTP064	ltpFR	15	3	0	HEN	703	1	n/a	1	n/a	n/a	n/a	n/a	n/a
3272.006	n/a	RECOG_CONF	1636003	n/a	LTP064	ltpFR	15	3	0	HEN	703	n/a	4	1	n/a	n/a	n/a	n/a	n/a
3273.656	n/a	RECOG_TARGET	1636828	n/a	LTP064	ltpFR	15	3	1	DRAGON	492	1	5	1	n/a	n/a	n/a	n/a	n/a
3273.844	n/a	RECOG_RESP	1636922	n/a	LTP064	ltpFR	15	3	1	DRAGON	492	1	n/a	1	n/a	n/a	n/a	n/a	n/a
3274.762	n/a	RECOG_CONF	1637381	n/a	LTP064	ltpFR	15	3	1	DRAGON	492	n/a	5	1	n/a	n/a	n/a	n/a	n/a
3276.354	n/a	RECOG_TARGET	1638177	n/a	LTP064	ltpFR	15	3	-1	PAGE	1001	1	4	-1	n/a	n/a	n/a	n/a	n/a
3276.538	n/a	RECOG_RESP	1638269	n/a	LTP064	ltpFR	15	3	-1	PAGE	1001	1	n/a	-1	n/a	n/a	n/a	n/a	n/a
3277.466	n/a	RECOG_CONF	1638733	n/a	LTP064	ltpFR	15	3	-1	PAGE	1001	n/a	4	-1	n/a	n/a	n/a	n/a	n/a
3279.126	n/a	RECOG_TARGET	1639563	n/a	LTP064	ltpFR	15	3	1	EGG	518	1	5	0	n/a	n/a	n/a	n/a	n/a
3279.376	n/a	RECOG_RESP	1639688	n/a	LTP064	ltpFR	15	3	1	EGG	518	1	n/a	0	n/a	n/a	n/a	n/a	n/a
3280.2	n/a	RECOG_CONF	1640100	n/a	LTP064	ltpFR	15	3	1	EGG	518	n/a	5	0	n/a	n/a	n/a	n/a	n/a
3281.914	n/a	RECOG_TARGET	1640957	n/a	LTP064	ltpFR	15	3	-1	POTTERY	1116	1	4	-1	n/a	n/a	n/a	n/a	n/a
3281.98	n/a	RECOG_RESP	1640990	n/a	LTP064	ltpFR	15	3	-1	POTTERY	1116	1	n/a	-1	n/a	n/a	n/a	n/a	n/a
3282.976	n/a	RECOG_CONF	1641488	n/a	LTP064	ltpFR	15	3	-1	POTTERY	1116	n/a	4	-1	n/a	n/a	n/a	n/a	n/a
3284.718	n/a	RECOG_LURE	1642359	n/a	LTP064	ltpFR	15	3	n/a	SLIDE	1326	0	3	n/a	n/a	n/a	n/a	n/a	n/a
3284.854	n/a	RECOG_RESP	1642427	n/a	LTP064	ltpFR	15	3	n/a	SLIDE	1326	0	n/a	n/a	n/a	n/a	n/a	n/a	n/a
3285.906	n/a	RECOG_CONF	1642953	n/a	LTP064	ltpFR	15	3	n/a	SLIDE	1326	n/a	3	n/a	n/a	n/a	n/a	n/a	n/a
3287.59	n/a	RECOG_TARGET	1643795	n/a	LTP064	ltpFR	15	3	0	LUNG	850	1	5	0	n/a	n/a	n/a	n/a	n/a
3287.702	n/a	RECOG_RESP	1643851	n/a	LTP064	ltpFR	15	3	0	LUNG	850	1	n/a	0	n/a	n/a	n/a	n/a	n/a
3288.548	n/a	RECOG_CONF	1644274	n/a	LTP064	ltpFR	15	3	0	LUNG	850	n/a	5	0	n/a	n/a	n/a	n/a	n/a
3290.304	n/a	RECOG_TARGET	1645152	n/a	LTP064	ltpFR	15	3	1	MALL	860	1	1	0	n/a	n/a	n/a	n/a	n/a
3290.522	n/a	RECOG_RESP	1645261	n/a	LTP064	ltpFR	15	3	1	MALL	860	1	n/a	0	n/a	n/a	n/a	n/a	n/a
3291.594	n/a	RECOG_CONF	1645797	n/a	LTP064	ltpFR	15	3	1	MALL	860	n/a	1	0	n/a	n/a	n/a	n/a	n/a
3293.184	n/a	RECOG_TARGET	1646592	n/a	LTP064	ltpFR	15	3	1	MANAGER	863	1	1	1	n/a	n/a	n/a	n/a	n/a
3293.41	n/a	RECOG_RESP	1646705	n/a	LTP064	ltpFR	15	3	1	MANAGER	863	1	n/a	1	n/a	n/a	n/a	n/a	n/a
3294.458	n/a	RECOG_CONF	1647229	n/a	LTP064	ltpFR	15	3	1	MANAGER	863	n/a	1	1	n/a	n/a	n/a	n/a	n/a
3296.106	n/a	RECOG_TARGET	1648053	n/a	LTP064	ltpFR	15	3	1	SALAD	1224	1	2	0	n/a	n/a	n/a	n/a	n/a
3296.382	n/a	RECOG_RESP	1648191	n/a	LTP064	ltpFR	15	3	1	SALAD	1224	1	n/a	0	n/a	n/a	n/a	n/a	n/a
3297.7	n/a	RECOG_CONF	1648850	n/a	LTP064	ltpFR	15	3	1	SALAD	1224	n/a	2	0	n/a	n/a	n/a	n/a	n/a
3299.468	n/a	RECOG_LURE	1649734	n/a	LTP064	ltpFR	15	3	n/a	PERFUME	1049	0	3	n/a	n/a	n/a	n/a	n/a	n/a
3299.756	n/a	RECOG_RESP	1649878	n/a	LTP064	ltpFR	15	3	n/a	PERFUME	1049	0	n/a	n/a	n/a	n/a	n/a	n/a	n/a
3300.702	n/a	RECOG_CONF	1650351	n/a	LTP064	ltpFR	15	3	n/a	PERFUME	1049	n/a	3	n/a	n/a	n/a	n/a	n/a	n/a
3302.474	n/a	RECOG_TARGET	1651237	n/a	LTP064	ltpFR	15	3	1	POSTAGE	1113	1	4	0	n/a	n/a	n/a	n/a	n/a
3302.848	n/a	RECOG_RESP	1651424	n/a	LTP064	ltpFR	15	3	1	POSTAGE	1113	1	n/a	0	n/a	n/a	n/a	n/a	n/a
3304.036	n/a	RECOG_CONF	1652018	n/a	LTP064	ltpFR	15	3	1	POSTAGE	1113	n/a	4	0	n/a	n/a	n/a	n/a	n/a
3305.486	n/a	RECOG_TARGET	1652743	n/a	LTP064	ltpFR	15	3	1	FACTORY	548	1	3	1	n/a	n/a	n/a	n/a	n/a
3305.656	n/a	RECOG_RESP	1652828	n/a	LTP064	ltpFR	15	3	1	FACTORY	548	1	n/a	1	n/a	n/a	n/a	n/a	n/a
3306.58	n/a	RECOG_CONF	1653290	n/a	LTP064	ltpFR	15	3	1	FACTORY	548	n/a	3	1	n/a	n/a	n/a	n/a	n/a
3308.04	n/a	RECOG_TARGET	1654020	n/a	LTP064	ltpFR	15	3	0	WINE	1613	1	4	1	n/a	n/a	n/a	n/a	n/a
3308.106	n/a	RECOG_RESP	1654053	n/a	LTP064	ltpFR	15	3	0	WINE	1613	1	n/a	1	n/a	n/a	n/a	n/a	n/a
3309.016	n/a	RECOG_CONF	1654508	n/a	LTP064	ltpFR	15	3	0	WINE	1613	n/a	4	1	n/a	n/a	n/a	n/a	n/a
3310.78	n/a	RECOG_TARGET	1655390	n/a	LTP064	ltpFR	15	3	1	WORKER	1621	0	1	0	n/a	n/a	n/a	n/a	n/a
3310.834	n/a	RECOG_RESP	1655417	n/a	LTP064	ltpFR	15	3	1	WORKER	1621	0	n/a	0	n/a	n/a	n/a	n/a	n/a
3312.766	n/a	RECOG_CONF	1656383	n/a	LTP064	ltpFR	15	3	1	WORKER	1621	n/a	1	0	n/a	n/a	n/a	n/a	n/a
3314.592	n/a	RECOG_TARGET	1657296	n/a	LTP064	ltpFR	15	3	0	OWNER	993	1	1	1	n/a	n/a	n/a	n/a	n/a
3314.772	n/a	RECOG_RESP	1657386	n/a	LTP064	ltpFR	15	3	0	OWNER	993	1	n/a	1	n/a	n/a	n/a	n/a	n/a
3315.878	n/a	RECOG_CONF	1657939	n/a	LTP064	ltpFR	15	3	0	OWNER	993	n/a	1	1	n/a	n/a	n/a	n/a	n/a
3317.54	n/a	RECOG_TARGET	1658770	n/a	LTP064	ltpFR	15	3	1	TERMINAL	1450	1	5	0	n/a	n/a	n/a	n/a	n/a
3317.938	n/a	RECOG_RESP	1658969	n/a	LTP064	ltpFR	15	3	1	TERMINAL	1450	1	n/a	0	n/a	n/a	n/a	n/a	n/a
3318.698	n/a	RECOG_CONF	1659349	n/a	LTP064	ltpFR	15	3	1	TERMINAL	1450	n/a	5	0	n/a	n/a	n/a	n/a	n/a
3323.02	n/a	REC_START	1661510	n/a	LTP064	ltpFR	15	4	n/a	n/a	n/a	n/a	n/a	n/a	n/a	n/a	n/a	n/a	n/a
3323.048	n/a	RECOG_TARGET	1661524	n/a	LTP064	ltpFR	15	4	1	POTATO	1115	1	1	0	n/a	n/a	n/a	n/a	n/a
3323.514	n/a	RECOG_RESP	1661757	n/a	LTP064	ltpFR	15	4	1	POTATO	1115	1	n/a	0	n/a	n/a	n/a	n/a	n/a
3324.372	n/a	RECOG_CONF	1662186	n/a	LTP064	ltpFR	15	4	1	POTATO	1115	n/a	1	0	n/a	n/a	n/a	n/a	n/a
3325.87	n/a	RECOG_TARGET	1662935	n/a	LTP064	ltpFR	15	4	-1	CONSOLE	364	1	3	-1	n/a	n/a	n/a	n/a	n/a
3325.928	n/a	RECOG_RESP	1662964	n/a	LTP064	ltpFR	15	4	-1	CONSOLE	364	1	n/a	-1	n/a	n/a	n/a	n/a	n/a
3326.946	n/a	RECOG_CONF	1663473	n/a	LTP064	ltpFR	15	4	-1	CONSOLE	364	n/a	3	-1	n/a	n/a	n/a	n/a	n/a
3328.492	n/a	RECOG_LURE	1664246	n/a	LTP064	ltpFR	15	4	n/a	HAYSTACK	694	0	2	n/a	n/a	n/a	n/a	n/a	n/a
3328.632	n/a	RECOG_RESP_VV	1664316	n/a	LTP064	ltpFR	15	4	n/a	HAYSTACK	694	1	n/a	n/a	n/a	n/a	n/a	n/a	n/a
3329.96	n/a	RECOG_RESP	1664980	n/a	LTP064	ltpFR	15	4	n/a	HAYSTACK	694	0	n/a	n/a	n/a	n/a	n/a	n/a	n/a
3330.882	n/a	RECOG_CONF	1665441	n/a	LTP064	ltpFR	15	4	n/a	HAYSTACK	694	n/a	2	n/a	n/a	n/a	n/a	n/a	n/a
3332.638	n/a	RECOG_TARGET	1666319	n/a	LTP064	ltpFR	15	4	-1	SHIRT	1287	1	3	-1	n/a	n/a	n/a	n/a	n/a
3332.998	n/a	RECOG_RESP	1666499	n/a	LTP064	ltpFR	15	4	-1	SHIRT	1287	1	n/a	-1	n/a	n/a	n/a	n/a	n/a
3333.86	n/a	RECOG_CONF	1666930	n/a	LTP064	ltpFR	15	4	-1	SHIRT	1287	n/a	3	-1	n/a	n/a	n/a	n/a	n/a
3335.494	n/a	RECOG_TARGET	1667747	n/a	LTP064	ltpFR	15	4	0	BEAKER	104	1	4	0	n/a	n/a	n/a	n/a	n/a
3335.646	n/a	RECOG_RESP	1667823	n/a	LTP064	ltpFR	15	4	0	BEAKER	104	1	n/a	0	n/a	n/a	n/a	n/a	n/a
3336.52	n/a	RECOG_CONF	1668260	n/a	LTP064	ltpFR	15	4	0	BEAKER	104	n/a	4	0	n/a	n/a	n/a	n/a	n/a
3338.198	n/a	RECOG_TARGET	1669099	n/a	LTP064	ltpFR	15	4	-1	GAZELLE	628	1	5	-1	n/a	n/a	n/a	n/a	n/a
3338.42	n/a	RECOG_RESP	1669210	n/a	LTP064	ltpFR	15	4	-1	GAZELLE	628	1	n/a	-1	n/a	n/a	n/a	n/a	n/a
3340.296	n/a	RECOG_CONF	1670148	n/a	LTP064	ltpFR	15	4	-1	GAZELLE	628	n/a	5	-1	n/a	n/a	n/a	n/a	n/a
3342.086	n/a	RECOG_LURE	1671043	n/a	LTP064	ltpFR	15	4	n/a	CLIFF	322	0	2	n/a	n/a	n/a	n/a	n/a	n/a
3342.372	n/a	RECOG_RESP	1671186	n/a	LTP064	ltpFR	15	4	n/a	CLIFF	322	0	n/a	n/a	n/a	n/a	n/a	n/a	n/a
3343.37	n/a	RECOG_CONF	1671685	n/a	LTP064	ltpFR	15	4	n/a	CLIFF	322	n/a	2	n/a	n/a	n/a	n/a	n/a	n/a
3345.106	n/a	RECOG_LURE	1672553	n/a	LTP064	ltpFR	15	4	n/a	SLACKS	1323	1	1	n/a	n/a	n/a	n/a	n/a	n/a
3345.344	n/a	RECOG_RESP	1672672	n/a	LTP064	ltpFR	15	4	n/a	SLACKS	1323	1	n/a	n/a	n/a	n/a	n/a	n/a	n/a
3346.372	n/a	RECOG_CONF	1673186	n/a	LTP064	ltpFR	15	4	n/a	SLACKS	1323	n/a	1	n/a	n/a	n/a	n/a	n/a	n/a
3348.062	n/a	RECOG_TARGET	1674031	n/a	LTP064	ltpFR	15	4	0	PEDAL	1037	1	4	0	n/a	n/a	n/a	n/a	n/a
3348.278	n/a	RECOG_RESP	1674139	n/a	LTP064	ltpFR	15	4	0	PEDAL	1037	1	n/a	0	n/a	n/a	n/a	n/a	n/a
3349.046	n/a	RECOG_CONF	1674523	n/a	LTP064	ltpFR	15	4	0	PEDAL	1037	n/a	4	0	n/a	n/a	n/a	n/a	n/a
3350.908	n/a	RECOG_TARGET	1675454	n/a	LTP064	ltpFR	15	4	0	STOOL	1386	1	3	1	n/a	n/a	n/a	n/a	n/a
3351.052	n/a	RECOG_RESP	1675526	n/a	LTP064	ltpFR	15	4	0	STOOL	1386	1	n/a	1	n/a	n/a	n/a	n/a	n/a
3352.12	n/a	RECOG_CONF	1676060	n/a	LTP064	ltpFR	15	4	0	STOOL	1386	n/a	3	1	n/a	n/a	n/a	n/a	n/a
3353.854	n/a	RECOG_TARGET	1676927	n/a	LTP064	ltpFR	15	4	0	SAUCER	1237	1	5	0	n/a	n/a	n/a	n/a	n/a
3354.026	n/a	RECOG_RESP	1677013	n/a	LTP064	ltpFR	15	4	0	SAUCER	1237	1	n/a	0	n/a	n/a	n/a	n/a	n/a
3354.898	n/a	RECOG_CONF	1677449	n/a	LTP064	ltpFR	15	4	0	SAUCER	1237	n/a	5	0	n/a	n/a	n/a	n/a	n/a
3356.502	n/a	RECOG_TARGET	1678251	n/a	LTP064	ltpFR	15	4	0	MERMAID	887	1	4	1	n/a	n/a	n/a	n/a	n/a
3356.71	n/a	RECOG_RESP	1678355	n/a	LTP064	ltpFR	15	4	0	MERMAID	887	1	n/a	1	n/a	n/a	n/a	n/a	n/a
3357.504	n/a	RECOG_CONF	1678752	n/a	LTP064	ltpFR	15	4	0	MERMAID	887	n/a	4	1	n/a	n/a	n/a	n/a	n/a
3359.15	n/a	RECOG_TARGET	1679575	n/a	LTP064	ltpFR	15	4	0	SEASHORE	1263	1	2	1	n/a	n/a	n/a	n/a	n/a
3359.258	n/a	RECOG_RESP	1679629	n/a	LTP064	ltpFR	15	4	0	SEASHORE	1263	1	n/a	1	n/a	n/a	n/a	n/a	n/a
3360.372	n/a	RECOG_CONF	1680186	n/a	LTP064	ltpFR	15	4	0	SEASHORE	1263	n/a	2	1	n/a	n/a	n/a	n/a	n/a
3361.912	n/a	RECOG_TARGET	1680956	n/a	LTP064	ltpFR	15	4	1	RELISH	1183	1	5	1	n/a	n/a	n/a	n/a	n/a
3362.082	n/a	RECOG_RESP	1681041	n/a	LTP064	ltpFR	15	4	1	RELISH	1183	1	n/a	1	n/a	n/a	n/a	n/a	n/a
3362.856	n/a	RECOG_CONF	1681428	n/a	LTP064	ltpFR	15	4	1	RELISH	1183	n/a	5	1	n/a	n/a	n/a	n/a	n/a
3364.444	n/a	RECOG_TARGET	1682222	n/a	LTP064	ltpFR	15	4	0	WHALE	1601	1	3	1	n/a	n/a	n/a	n/a	n/a
3364.622	n/a	RECOG_RESP	1682311	n/a	LTP064	ltpFR	15	4	0	WHALE	1601	1	n/a	1	n/a	n/a	n/a	n/a	n/a
3365.66	n/a	RECOG_CONF	1682830	n/a	LTP064	ltpFR	15	4	0	WHALE	1601	n/a	3	1	n/a	n/a	n/a	n/a	n/a
3367.356	n/a	RECOG_TARGET	1683678	n/a	LTP064	ltpFR	15	4	0	ANTEATER	26	1	4	1	n/a	n/a	n/a	n/a	n/a
3367.496	n/a	RECOG_RESP	1683748	n/a	LTP064	ltpFR	15	4	0	ANTEATER	26	1	n/a	1	n/a	n/a	n/a	n/a	n/a
3368.318	n/a	RECOG_CONF	1684159	n/a	LTP064	ltpFR	15	4	0	ANTEATER	26	n/a	4	1	n/a	n/a	n/a	n/a	n/a
3370.104	n/a	RECOG_LURE	1685052	n/a	LTP064	ltpFR	15	4	n/a	MARKER	870	1	1	n/a	n/a	n/a	n/a	n/a	n/a
3370.254	n/a	RECOG_RESP	1685127	n/a	LTP064	ltpFR	15	4	n/a	MARKER	870	1	n/a	n/a	n/a	n/a	n/a	n/a	n/a
3371.306	n/a	RECOG_CONF	1685653	n/a	LTP064	ltpFR	15	4	n/a	MARKER	870	n/a	1	n/a	n/a	n/a	n/a	n/a	n/a
3373.116	n/a	RECOG_TARGET	1686558	n/a	LTP064	ltpFR	15	4	0	CUPBOARD	425	1	5	1	n/a	n/a	n/a	n/a	n/a
3373.446	n/a	RECOG_RESP	1686723	n/a	LTP064	ltpFR	15	4	0	CUPBOARD	425	1	n/a	1	n/a	n/a	n/a	n/a	n/a
3374.168	n/a	RECOG_CONF	1687084	n/a	LTP064	ltpFR	15	4	0	CUPBOARD	425	n/a	5	1	n/a	n/a	n/a	n/a	n/a
3375.896	n/a	RECOG_TARGET	1687948	n/a	LTP064	ltpFR	15	4	1	LAWYER	806	1	2	1	n/a	n/a	n/a	n/a	n/a
3376.186	n/a	RECOG_RESP	1688093	n/a	LTP064	ltpFR	15	4	1	LAWYER	806	1	n/a	1	n/a	n/a	n/a	n/a	n/a
3377.876	n/a	RECOG_CONF	1688938	n/a	LTP064	ltpFR	15	4	1	LAWYER	806	n/a	2	1	n/a	n/a	n/a	n/a	n/a
3379.568	n/a	RECOG_TARGET	1689784	n/a	LTP064	ltpFR	15	4	0	BOYFRIEND	162	1	4	1	n/a	n/a	n/a	n/a	n/a
3379.908	n/a	RECOG_RESP	1689954	n/a	LTP064	ltpFR	15	4	0	BOYFRIEND	162	1	n/a	1	n/a	n/a	n/a	n/a	n/a
3380.66	n/a	RECOG_CONF	1690330	n/a	LTP064	ltpFR	15	4	0	BOYFRIEND	162	n/a	4	1	n/a	n/a	n/a	n/a	n/a
3383.986	n/a	REC_START	1691993	n/a	LTP064	ltpFR	15	5	n/a	n/a	n/a	n/a	n/a	n/a	n/a	n/a	n/a	n/a	n/a
3384.012	n/a	RECOG_TARGET	1692006	n/a	LTP064	ltpFR	15	5	0	THIMBLE	1458	1	5	0	n/a	n/a	n/a	n/a	n/a
3384.544	n/a	RECOG_RESP	1692272	n/a	LTP064	ltpFR	15	5	0	THIMBLE	1458	1	n/a	0	n/a	n/a	n/a	n/a	n/a
3385.292	n/a	RECOG_CONF	1692646	n/a	LTP064	ltpFR	15	5	0	THIMBLE	1458	n/a	5	0	n/a	n/a	n/a	n/a	n/a
3386.974	n/a	RECOG_TARGET	1693487	n/a	LTP064	ltpFR	15	5	-1	VIKING	1565	1	3	-1	n/a	n/a	n/a	n/a	n/a
3387.124	n/a	RECOG_RESP	1693562	n/a	LTP064	ltpFR	15	5	-1	VIKING	1565	1	n/a	-1	n/a	n/a	n/a	n/a	n/a
3387.982	n/a	RECOG_CONF	1693991	n/a	LTP064	ltpFR	15	5	-1	VIKING	1565	n/a	3	-1	n/a	n/a	n/a	n/a	n/a
3389.556	n/a	RECOG_TARGET	1694778	n/a	LTP064	ltpFR	15	5	-1	ITEM	746	1	5	-1	n/a	n/a	n/a	n/a	n/a
3389.712	n/a	RECOG_RESP	1694856	n/a	LTP064	ltpFR	15	5	-1	ITEM	746	1	n/a	-1	n/a	n/a	n/a	n/a	n/a
3390.616	n/a	RECOG_CONF	1695308	n/a	LTP064	ltpFR	15	5	-1	ITEM	746	n/a	5	-1	n/a	n/a	n/a	n/a	n/a
3392.386	n/a	RECOG_LURE	1696193	n/a	LTP064	ltpFR	15	5	n/a	DYNAMITE	511	0	2	n/a	n/a	n/a	n/a	n/a	n/a
3392.506	n/a	RECOG_RESP	1696253	n/a	LTP064	ltpFR	15	5	n/a	DYNAMITE	511	0	n/a	n/a	n/a	n/a	n/a	n/a	n/a
3393.51	n/a	RECOG_CONF	1696755	n/a	LTP064	ltpFR	15	5	n/a	DYNAMITE	511	n/a	2	n/a	n/a	n/a	n/a	n/a	n/a
3395.432	n/a	RECOG_TARGET	1697716	n/a	LTP064	ltpFR	15	5	1	ROD	1203	1	4	0	n/a	n/a	n/a	n/a	n/a
3395.688	n/a	RECOG_RESP	1697844	n/a	LTP064	ltpFR	15	5	1	ROD	1203	1	n/a	0	n/a	n/a	n/a	n/a	n/a
3396.57	n/a	RECOG_CONF	1698285	n/a	LTP064	ltpFR	15	5	1	ROD	1203	n/a	4	0	n/a	n/a	n/a	n/a	n/a
3398.354	n/a	RECOG_LURE	1699177	n/a	LTP064	ltpFR	15	5	n/a	TOAST	1471	1	1	n/a	n/a	n/a	n/a	n/a	n/a
3398.558	n/a	RECOG_RESP	1699279	n/a	LTP064	ltpFR	15	5	n/a	TOAST	1471	1	n/a	n/a	n/a	n/a	n/a	n/a	n/a
3399.704	n/a	RECOG_CONF	1699852	n/a	LTP064	ltpFR	15	5	n/a	TOAST	1471	n/a	1	n/a	n/a	n/a	n/a	n/a	n/a
3401.35	n/a	RECOG_TARGET	1700675	n/a	LTP064	ltpFR	15	5	1	CATCHER	258	1	3	1	n/a	n/a	n/a	n/a	n/a
3401.55	n/a	RECOG_RESP	1700775	n/a	LTP064	ltpFR	15	5	1	CATCHER	258	1	n/a	1	n/a	n/a	n/a	n/a	n/a
3402.448	n/a	RECOG_CONF	1701224	n/a	LTP064	ltpFR	15	5	1	CATCHER	258	n/a	3	1	n/a	n/a	n/a	n/a	n/a
3403.98	n/a	RECOG_TARGET	1701990	n/a	LTP064	ltpFR	15	5	0	TRICYCLE	1506	1	5	0	n/a	n/a	n/a	n/a	n/a
3404.304	n/a	RECOG_RESP	1702152	n/a	LTP064	ltpFR	15	5	0	TRICYCLE	1506	1	n/a	0	n/a	n/a	n/a	n/a	n/a
3405.144	n/a	RECOG_CONF	1702572	n/a	LTP064	ltpFR	15	5	0	TRICYCLE	1506	n/a	5	0	n/a	n/a	n/a	n/a	n/a
3406.794	n/a	RECOG_TARGET	1703397	n/a	LTP064	ltpFR	15	5	1	CIRCUS	311	1	2	1	n/a	n/a	n/a	n/a	n/a
3406.914	n/a	RECOG_RESP	1703457	n/a	LTP064	ltpFR	15	5	1	CIRCUS	311	1	n/a	1	n/a	n/a	n/a	n/a	n/a
3408.354	n/a	RECOG_CONF	1704177	n/a	LTP064	ltpFR	15	5	1	CIRCUS	311	n/a	2	1	n/a	n/a	n/a	n/a	n/a
3410.056	n/a	RECOG_TARGET	1705028	n/a	LTP064	ltpFR	15	5	0	BUBBLE	183	1	1	0	n/a	n/a	n/a	n/a	n/a
3410.17	n/a	RECOG_RESP	1705085	n/a	LTP064	ltpFR	15	5	0	BUBBLE	183	1	n/a	0	n/a	n/a	n/a	n/a	n/a
3411.278	n/a	RECOG_CONF	1705639	n/a	LTP064	ltpFR	15	5	0	BUBBLE	183	n/a	1	0	n/a	n/a	n/a	n/a	n/a
3412.828	n/a	RECOG_LURE	1706414	n/a	LTP064	ltpFR	15	5	n/a	LACE	792	1	1	n/a	n/a	n/a	n/a	n/a	n/a
3413.084	n/a	RECOG_RESP	1706542	n/a	LTP064	ltpFR	15	5	n/a	LACE	792	1	n/a	n/a	n/a	n/a	n/a	n/a	n/a
3414.63	n/a	RECOG_CONF	1707315	n/a	LTP064	ltpFR	15	5	n/a	LACE	792	n/a	1	n/a	n/a	n/a	n/a	n/a	n/a
3416.316	n/a	RECOG_TARGET	1708158	n/a	LTP064	ltpFR	15	5	0	FILM	565	1	4	1	n/a	n/a	n/a	n/a	n/a
3416.77	n/a	RECOG_RESP	1708385	n/a	LTP064	ltpFR	15	5	0	FILM	565	1	n/a	1	n/a	n/a	n/a	n/a	n/a
3417.49	n/a	RECOG_CONF	1708745	n/a	LTP064	ltpFR	15	5	0	FILM	565	n/a	4	1	n/a	n/a	n/a	n/a	n/a
3419.096	n/a	RECOG_LURE	1709548	n/a	LTP064	ltpFR	15	5	n/a	ROPE	1211	0	3	n/a	n/a	n/a	n/a	n/a	n/a
3419.35	n/a	RECOG_RESP	1709675	n/a	LTP064	ltpFR	15	5	n/a	ROPE	1211	0	n/a	n/a	n/a	n/a	n/a	n/a	n/a
3420.368	n/a	RECOG_CONF	1710184	n/a	LTP064	ltpFR	15	5	n/a	ROPE	1211	n/a	3	n/a	n/a	n/a	n/a	n/a	n/a
3422.26	n/a	RECOG_TARGET	1711130	n/a	LTP064	ltpFR	15	5	0	SALESMAN	1225	0	4	1	n/a	n/a	n/a	n/a	n/a
3422.424	n/a	RECOG_RESP	1711212	n/a	LTP064	ltpFR	15	5	0	SALESMAN	1225	0	n/a	1	n/a	n/a	n/a	n/a	n/a
3423.454	n/a	RECOG_CONF	1711727	n/a	LTP064	ltpFR	15	5	0	SALESMAN	1225	n/a	4	1	n/a	n/a	n/a	n/a	n/a
3425.19	n/a	RECOG_TARGET	1712595	n/a	LTP064	ltpFR	15	5	0	FARMER	553	0	1	1	n/a	n/a	n/a	n/a	n/a
3425.486	n/a	RECOG_RESP	1712743	n/a	LTP064	ltpFR	15	5	0	FARMER	553	0	n/a	1	n/a	n/a	n/a	n/a	n/a
3426.384	n/a	RECOG_CONF	1713192	n/a	LTP064	ltpFR	15	5	0	FARMER	553	n/a	1	1	n/a	n/a	n/a	n/a	n/a
3428.186	n/a	RECOG_TARGET	1714093	n/a	LTP064	ltpFR	15	5	1	TONGUE	1479	1	5	1	n/a	n/a	n/a	n/a	n/a
3428.38	n/a	RECOG_RESP	1714190	n/a	LTP064	ltpFR	15	5	1	TONGUE	1479	1	n/a	1	n/a	n/a	n/a	n/a	n/a
3429.274	n/a	RECOG_CONF	1714637	n/a	LTP064	ltpFR	15	5	1	TONGUE	1479	n/a	5	1	n/a	n/a	n/a	n/a	n/a
3430.924	n/a	RECOG_TARGET	1715462	n/a	LTP064	ltpFR	15	5	0	SCULPTURE	1258	0	1	1	n/a	n/a	n/a	n/a	n/a
3431.18	n/a	RECOG_RESP	1715590	n/a	LTP064	ltpFR	15	5	0	SCULPTURE	1258	0	n/a	1	n/a	n/a	n/a	n/a	n/a
3432.88	n/a	RECOG_CONF	1716440	n/a	LTP064	ltpFR	15	5	0	SCULPTURE	1258	n/a	1	1	n/a	n/a	n/a	n/a	n/a
3434.778	n/a	RECOG_LURE	1717389	n/a	LTP064	ltpFR	15	5	n/a	HOE	711	0	4	n/a	n/a	n/a	n/a	n/a	n/a
3435.164	n/a	RECOG_RESP	1717582	n/a	LTP064	ltpFR	15	5	n/a	HOE	711	0	n/a	n/a	n/a	n/a	n/a	n/a	n/a
3435.994	n/a	RECOG_CONF	1717997	n/a	LTP064	ltpFR	15	5	n/a	HOE	711	n/a	4	n/a	n/a	n/a	n/a	n/a	n/a
3437.682	n/a	RECOG_TARGET	1718841	n/a	LTP064	ltpFR	15	5	1	RAT	1169	1	5	1	n/a	n/a	n/a	n/a	n/a
3437.948	n/a	RECOG_RESP	1718974	n/a	LTP064	ltpFR	15	5	1	RAT	1169	1	n/a	1	n/a	n/a	n/a	n/a	n/a
3438.842	n/a	RECOG_CONF	1719421	n/a	LTP064	ltpFR	15	5	1	RAT	1169	n/a	5	1	n/a	n/a	n/a	n/a	n/a
3440.348	n/a	RECOG_TARGET	1720174	n/a	LTP064	ltpFR	15	5	1	TECHNICIAN	1443	1	1	1	n/a	n/a	n/a	n/a	n/a
3440.622	n/a	RECOG_RESP	1720311	n/a	LTP064	ltpFR	15	5	1	TECHNICIAN	1443	1	n/a	1	n/a	n/a	n/a	n/a	n/a
3441.59	n/a	RECOG_CONF	1720795	n/a	LTP064	ltpFR	15	5	1	TECHNICIAN	1443	n/a	1	1	n/a	n/a	n/a	n/a	n/a
3444.594	n/a	REC_START	1722297	n/a	LTP064	ltpFR	15	6	n/a	n/a	n/a	n/a	n/a	n/a	n/a	n/a	n/a	n/a	n/a
3444.626	n/a	RECOG_TARGET	1722313	n/a	LTP064	ltpFR	15	6	0	CARNIVAL	245	1	3	2	n/a	n/a	n/a	n/a	n/a
3444.894	n/a	RECOG_RESP	1722447	n/a	LTP064	ltpFR	15	6	0	CARNIVAL	245	1	n/a	2	n/a	n/a	n/a	n/a	n/a
