mstime	trial_type	stim_file	subject	experiment	session	trial	task	item_name	item_num	recog_resp	recog_conf	resp	color_r	color_g	color_b	case	font
0	SESS_START	n/a	LTP135	ltpFR	2	n/a	n/a	n/a	n/a	1	5	n/a	n/a	n/a	n/a	n/a	n/a
83384	WORD	wordpools/wasnorm_wordpool.txt	LTP135	ltpFR	2	1	0	FRUIT	610	1	n/a	0	0.57763671875	0.412841796875	1	lower	zerothre.ttf
87200	WORD	wordpools/wasnorm_wordpool.txt	LTP135	ltpFR	2	1	0	INSTRUCTOR	741	n/a	n/a	1	0.57763671875	0.412841796875	1	lower	zerothre.ttf
91098	WORD	wordpools/wasnorm_wordpool.txt	LTP135	ltpFR	2	1	0	PRUNE	1134	n/a	n/a	0	0.57763671875	0.412841796875	1	lower	zerothre.ttf
94939	WORD	wordpools/wasnorm_wordpool.txt	LTP135	ltpFR	2	1	1	PARCEL	1012	n/a	n/a	0	0.422607421875	0.5869140625	0	upper	amplitud.ttf
98954	WORD	wordpools/wasnorm_wordpool.txt	LTP135	ltpFR	2	1	1	SIRLOIN	1311	n/a	n/a	0	0.422607421875	0.5869140625	0	upper	amplitud.ttf
102953	WORD	wordpools/wasnorm_wordpool.txt	LTP135	ltpFR	2	1	0	FARM	552	n/a	n/a	1	0.57763671875	0.412841796875	1	lower	zerothre.ttf
106817	WORD	wordpools/wasnorm_wordpool.txt	LTP135	ltpFR	2	1	0	WALRUS	1585	n/a	n/a	1	0.57763671875	0.412841796875	1	lower	zerothre.ttf
111025	WORD	wordpools/wasnorm_wordpool.txt	LTP135	ltpFR	2	1	0	LOBSTER	837	n/a	n/a	1	0.57763671875	0.412841796875	1	lower	zerothre.ttf
115032	WORD	wordpools/wasnorm_wordpool.txt	LTP135	ltpFR	2	1	1	SWIMMER	1420	n/a	n/a	1	0.422607421875	0.5869140625	0	upper	amplitud.ttf
119097	WORD	wordpools/wasnorm_wordpool.txt	LTP135	ltpFR	2	1	1	TART	1436	n/a	n/a	0	0.422607421875	0.5869140625	0	upper	amplitud.ttf
123154	WORD	wordpools/wasnorm_wordpool.txt	LTP135	ltpFR	2	1	1	TEA	1439	n/a	n/a	0	0.422607421875	0.5869140625	0	upper	amplitud.ttf
127211	WORD	wordpools/wasnorm_wordpool.txt	LTP135	ltpFR	2	1	1	TANGERINE	1431	n/a	n/a	0	0.422607421875	0.5869140625	0	upper	amplitud.ttf
131334	WORD	wordpools/wasnorm_wordpool.txt	LTP135	ltpFR	2	1	1	SLIDE	1326	n/a	n/a	0	0.422607421875	0.5869140625	0	upper	amplitud.ttf
135258	WORD	wordpools/wasnorm_wordpool.txt	LTP135	ltpFR	2	1	1	TILE	1468	n/a	n/a	0	0.422607421875	0.5869140625	0	upper	amplitud.ttf
139390	WORD	wordpools/wasnorm_wordpool.txt	LTP135	ltpFR	2	1	0	PUPPY	1144	n/a	n/a	1	0.57763671875	0.412841796875	1	lower	zerothre.ttf
143471	WORD	wordpools/wasnorm_wordpool.txt	LTP135	ltpFR	2	1	0	VET	1560	n/a	n/a	1	0.57763671875	0.412841796875	1	lower	zerothre.ttf
149395	REC_START	n/a	LTP135	ltpFR	2	1	n/a	n/a	n/a	n/a	n/a	n/a	n/a	n/a	n/a	n/a	n/a
150502	REC_WORD	wordpools/wasnorm_wordpool.txt	LTP135	ltpFR	2	1	0	VET	1560	n/a	n/a	1	n/a	n/a	n/a	n/a	n/a
151734	REC_WORD	wordpools/wasnorm_wordpool.txt	LTP135	ltpFR	2	1	0	PUPPY	1144	n/a	n/a	1	n/a	n/a	n/a	n/a	n/a
153216	REC_WORD	wordpools/wasnorm_wordpool.txt	LTP135	ltpFR	2	1	0	LOBSTER	837	n/a	n/a	1	n/a	n/a	n/a	n/a	n/a
154927	REC_WORD	wordpools/wasnorm_wordpool.txt	LTP135	ltpFR	2	1	0	PRUNE	1134	n/a	n/a	0	n/a	n/a	n/a	n/a	n/a
156548	REC_WORD	wordpools/wasnorm_wordpool.txt	LTP135	ltpFR	2	1	0	FRUIT	610	n/a	n/a	0	n/a	n/a	n/a	n/a	n/a
158369	REC_WORD	wordpools/wasnorm_wordpool.txt	LTP135	ltpFR	2	1	1	SWIMMER	1420	n/a	n/a	1	n/a	n/a	n/a	n/a	n/a
161168	REC_WORD	wordpools/wasnorm_wordpool.txt	LTP135	ltpFR	2	1	0	WALRUS	1585	n/a	n/a	1	n/a	n/a	n/a	n/a	n/a
166446	REC_WORD	wordpools/wasnorm_wordpool.txt	LTP135	ltpFR	2	1	0	FARM	552	n/a	n/a	1	n/a	n/a	n/a	n/a	n/a
168511	REC_WORD	wordpools/wasnorm_wordpool.txt	LTP135	ltpFR	2	1	1	TANGERINE	1431	n/a	n/a	0	n/a	n/a	n/a	n/a	n/a
174223	REC_WORD	wordpools/wasnorm_wordpool.txt	LTP135	ltpFR	2	1	1	TEA	1439	n/a	n/a	0	n/a	n/a	n/a	n/a	n/a
175820	REC_WORD	wordpools/wasnorm_wordpool.txt	LTP135	ltpFR	2	1	1	TART	1436	n/a	n/a	0	n/a	n/a	n/a	n/a	n/a
217685	REC_WORD	wordpools/wasnorm_wordpool.txt	LTP135	ltpFR	2	1	1	PARCEL	1012	n/a	n/a	0	n/a	n/a	n/a	n/a	n/a
231349	WORD	wordpools/wasnorm_wordpool.txt	LTP135	ltpFR	2	2	1	KING	777	n/a	n/a	1	0.422607421875	0.5869140625	0	upper	amplitud.ttf
235547	WORD	wordpools/wasnorm_wordpool.txt	LTP135	ltpFR	2	2	1	PRINCE	1124	n/a	n/a	1	0.422607421875	0.5869140625	0	upper	amplitud.ttf
239612	WORD	wordpools/wasnorm_wordpool.txt	LTP135	ltpFR	2	2	0	CREATURE	403	n/a	n/a	0	0.57763671875	0.412841796875	1	lower	zerothre.ttf
243785	WORD	wordpools/wasnorm_wordpool.txt	LTP135	ltpFR	2	2	0	PATIENT	1024	n/a	n/a	1	0.57763671875	0.412841796875	1	lower	zerothre.ttf
247743	WORD	wordpools/wasnorm_wordpool.txt	LTP135	ltpFR	2	2	0	GENERAL	630	n/a	n/a	1	0.57763671875	0.412841796875	1	lower	zerothre.ttf
251725	WORD	wordpools/wasnorm_wordpool.txt	LTP135	ltpFR	2	2	0	PICTURE	1061	n/a	n/a	0	0.57763671875	0.412841796875	1	lower	zerothre.ttf
255573	WORD	wordpools/wasnorm_wordpool.txt	LTP135	ltpFR	2	2	1	PHOTO	1055	n/a	n/a	0	0.422607421875	0.5869140625	0	upper	amplitud.ttf
259705	WORD	wordpools/wasnorm_wordpool.txt	LTP135	ltpFR	2	2	1	TICKET	1464	n/a	n/a	0	0.422607421875	0.5869140625	0	upper	amplitud.ttf
263886	WORD	wordpools/wasnorm_wordpool.txt	LTP135	ltpFR	2	2	1	WRENCH	1625	n/a	n/a	0	0.422607421875	0.5869140625	0	upper	amplitud.ttf
267977	WORD	wordpools/wasnorm_wordpool.txt	LTP135	ltpFR	2	2	1	SHRUB	1299	n/a	n/a	1	0.422607421875	0.5869140625	0	upper	amplitud.ttf
271850	WORD	wordpools/wasnorm_wordpool.txt	LTP135	ltpFR	2	2	0	LACE	792	n/a	n/a	0	0.57763671875	0.412841796875	1	lower	zerothre.ttf
275924	WORD	wordpools/wasnorm_wordpool.txt	LTP135	ltpFR	2	2	0	BOOTH	151	n/a	n/a	1	0.57763671875	0.412841796875	1	lower	zerothre.ttf
280015	WORD	wordpools/wasnorm_wordpool.txt	LTP135	ltpFR	2	2	0	BUSH	202	n/a	n/a	1	0.57763671875	0.412841796875	1	lower	zerothre.ttf
284163	WORD	wordpools/wasnorm_wordpool.txt	LTP135	ltpFR	2	2	0	VOLLEYBALL	1576	n/a	n/a	1	0.57763671875	0.412841796875	1	lower	zerothre.ttf
288062	WORD	wordpools/wasnorm_wordpool.txt	LTP135	ltpFR	2	2	1	BRANCH	168	n/a	n/a	1	0.422607421875	0.5869140625	0	upper	amplitud.ttf
291876	WORD	wordpools/wasnorm_wordpool.txt	LTP135	ltpFR	2	2	1	MONSTER	912	n/a	n/a	1	0.422607421875	0.5869140625	0	upper	amplitud.ttf
297816	REC_START	n/a	LTP135	ltpFR	2	2	n/a	n/a	n/a	n/a	n/a	n/a	n/a	n/a	n/a	n/a	n/a
298599	REC_WORD	wordpools/wasnorm_wordpool.txt	LTP135	ltpFR	2	2	1	MONSTER	912	n/a	n/a	1	n/a	n/a	n/a	n/a	n/a
300061	REC_WORD	wordpools/wasnorm_wordpool.txt	LTP135	ltpFR	2	2	1	BRANCH	168	n/a	n/a	1	n/a	n/a	n/a	n/a	n/a
301602	REC_WORD	wordpools/wasnorm_wordpool.txt	LTP135	ltpFR	2	2	0	VOLLEYBALL	1576	n/a	n/a	1	n/a	n/a	n/a	n/a	n/a
303398	REC_WORD	wordpools/wasnorm_wordpool.txt	LTP135	ltpFR	2	2	1	PHOTO	1055	n/a	n/a	0	n/a	n/a	n/a	n/a	n/a
305099	REC_WORD	wordpools/wasnorm_wordpool.txt	LTP135	ltpFR	2	2	0	PICTURE	1061	n/a	n/a	0	n/a	n/a	n/a	n/a	n/a
309065	REC_WORD	wordpools/wasnorm_wordpool.txt	LTP135	ltpFR	2	2	0	CREATURE	403	n/a	n/a	0	n/a	n/a	n/a	n/a	n/a
312408	REC_WORD	wordpools/wasnorm_wordpool.txt	LTP135	ltpFR	2	2	0	GENERAL	630	n/a	n/a	1	n/a	n/a	n/a	n/a	n/a
314528	REC_WORD	wordpools/wasnorm_wordpool.txt	LTP135	ltpFR	2	2	1	KING	777	n/a	n/a	1	n/a	n/a	n/a	n/a	n/a
315930	REC_WORD	wordpools/wasnorm_wordpool.txt	LTP135	ltpFR	2	2	1	PRINCE	1124	n/a	n/a	1	n/a	n/a	n/a	n/a	n/a
356303	REC_WORD	wordpools/wasnorm_wordpool.txt	LTP135	ltpFR	2	2	1	WRENCH	1625	n/a	n/a	0	n/a	n/a	n/a	n/a	n/a
382961	WORD	wordpools/wasnorm_wordpool.txt	LTP135	ltpFR	2	3	-1	FAMILY	550	n/a	n/a	-1	1.0	1.0	1	upper	Verdana.ttf
386834	WORD	wordpools/wasnorm_wordpool.txt	LTP135	ltpFR	2	3	-1	FUNGUS	614	n/a	n/a	-1	1.0	1.0	1	upper	Verdana.ttf
390700	WORD	wordpools/wasnorm_wordpool.txt	LTP135	ltpFR	2	3	-1	PIRATE	1074	n/a	n/a	-1	1.0	1.0	1	upper	Verdana.ttf
394582	WORD	wordpools/wasnorm_wordpool.txt	LTP135	ltpFR	2	3	-1	DECK	443	n/a	n/a	-1	1.0	1.0	1	upper	Verdana.ttf
398506	WORD	wordpools/wasnorm_wordpool.txt	LTP135	ltpFR	2	3	-1	DRESSER	496	n/a	n/a	-1	1.0	1.0	1	upper	Verdana.ttf
402488	WORD	wordpools/wasnorm_wordpool.txt	LTP135	ltpFR	2	3	-1	LAUNDRY	803	n/a	n/a	-1	1.0	1.0	1	upper	Verdana.ttf
406578	WORD	wordpools/wasnorm_wordpool.txt	LTP135	ltpFR	2	3	-1	TRACTOR	1493	n/a	n/a	-1	1.0	1.0	1	upper	Verdana.ttf
410510	WORD	wordpools/wasnorm_wordpool.txt	LTP135	ltpFR	2	3	-1	BOULEVARD	156	n/a	n/a	-1	1.0	1.0	1	upper	Verdana.ttf
414508	WORD	wordpools/wasnorm_wordpool.txt	LTP135	ltpFR	2	3	-1	PAWN	1030	n/a	n/a	-1	1.0	1.0	1	upper	Verdana.ttf
418507	WORD	wordpools/wasnorm_wordpool.txt	LTP135	ltpFR	2	3	-1	ARROW	40	n/a	n/a	-1	1.0	1.0	1	upper	Verdana.ttf
422614	WORD	wordpools/wasnorm_wordpool.txt	LTP135	ltpFR	2	3	-1	WAGON	1578	n/a	n/a	-1	1.0	1.0	1	upper	Verdana.ttf
426429	WORD	wordpools/wasnorm_wordpool.txt	LTP135	ltpFR	2	3	-1	CENT	270	n/a	n/a	-1	1.0	1.0	1	upper	Verdana.ttf
430278	WORD	wordpools/wasnorm_wordpool.txt	LTP135	ltpFR	2	3	-1	PAINTING	1005	n/a	n/a	-1	1.0	1.0	1	upper	Verdana.ttf
434418	WORD	wordpools/wasnorm_wordpool.txt	LTP135	ltpFR	2	3	-1	TAR	1435	n/a	n/a	-1	1.0	1.0	1	upper	Verdana.ttf
438500	WORD	wordpools/wasnorm_wordpool.txt	LTP135	ltpFR	2	3	-1	CHECK	284	n/a	n/a	-1	1.0	1.0	1	upper	Verdana.ttf
442648	WORD	wordpools/wasnorm_wordpool.txt	LTP135	ltpFR	2	3	-1	SHOP	1290	n/a	n/a	-1	1.0	1.0	1	upper	Verdana.ttf
448539	REC_START	n/a	LTP135	ltpFR	2	3	n/a	n/a	n/a	n/a	n/a	n/a	n/a	n/a	n/a	n/a	n/a
449671	REC_WORD	wordpools/wasnorm_wordpool.txt	LTP135	ltpFR	2	3	-1	SHOP	1290	n/a	n/a	-1	n/a	n/a	n/a	n/a	n/a
451293	REC_WORD	wordpools/wasnorm_wordpool.txt	LTP135	ltpFR	2	3	-1	CHECK	284	n/a	n/a	-1	n/a	n/a	n/a	n/a	n/a
454076	REC_WORD	wordpools/wasnorm_wordpool.txt	LTP135	ltpFR	2	3	-1	ARROW	40	n/a	n/a	-1	n/a	n/a	n/a	n/a	n/a
456426	REC_WORD	wordpools/wasnorm_wordpool.txt	LTP135	ltpFR	2	3	-1	TAR	1435	n/a	n/a	-1	n/a	n/a	n/a	n/a	n/a
458805	REC_WORD	wordpools/wasnorm_wordpool.txt	LTP135	ltpFR	2	3	-1	FAMILY	550	n/a	n/a	-1	n/a	n/a	n/a	n/a	n/a
459643	REC_WORD	wordpools/wasnorm_wordpool.txt	LTP135	ltpFR	2	3	-1	FUNGUS	614	n/a	n/a	-1	n/a	n/a	n/a	n/a	n/a
460566	REC_WORD	wordpools/wasnorm_wordpool.txt	LTP135	ltpFR	2	3	-1	PIRATE	1074	n/a	n/a	-1	n/a	n/a	n/a	n/a	n/a
461584	REC_WORD	wordpools/wasnorm_wordpool.txt	LTP135	ltpFR	2	3	-1	DECK	443	n/a	n/a	-1	n/a	n/a	n/a	n/a	n/a
463974	REC_WORD	wordpools/wasnorm_wordpool.txt	LTP135	ltpFR	2	3	-1	DRESSER	496	n/a	n/a	-1	n/a	n/a	n/a	n/a	n/a
536298	WORD	wordpools/wasnorm_wordpool.txt	LTP135	ltpFR	2	4	1	ROOMMATE	1207	n/a	n/a	0	0.422607421875	0.5869140625	0	upper	amplitud.ttf
540189	WORD	wordpools/wasnorm_wordpool.txt	LTP135	ltpFR	2	4	1	PARTNER	1017	n/a	n/a	1	0.422607421875	0.5869140625	0	upper	amplitud.ttf
544187	WORD	wordpools/wasnorm_wordpool.txt	LTP135	ltpFR	2	4	1	LINEN	825	n/a	n/a	0	0.422607421875	0.5869140625	0	upper	amplitud.ttf
548086	WORD	wordpools/wasnorm_wordpool.txt	LTP135	ltpFR	2	4	0	NIGHTGOWN	953	n/a	n/a	0	0.57763671875	0.412841796875	1	lower	zerothre.ttf
552101	WORD	wordpools/wasnorm_wordpool.txt	LTP135	ltpFR	2	4	0	MARKER	870	n/a	n/a	0	0.57763671875	0.412841796875	1	lower	zerothre.ttf
556108	WORD	wordpools/wasnorm_wordpool.txt	LTP135	ltpFR	2	4	0	THERMOMETER	1453	n/a	n/a	0	0.57763671875	0.412841796875	1	lower	zerothre.ttf
560273	WORD	wordpools/wasnorm_wordpool.txt	LTP135	ltpFR	2	4	0	WASHCLOTH	1591	n/a	n/a	0	0.57763671875	0.412841796875	1	lower	zerothre.ttf
564397	WORD	wordpools/wasnorm_wordpool.txt	LTP135	ltpFR	2	4	0	TRICYCLE	1506	n/a	n/a	1	0.57763671875	0.412841796875	1	lower	zerothre.ttf
568587	WORD	wordpools/wasnorm_wordpool.txt	LTP135	ltpFR	2	4	1	WAITER	1580	n/a	n/a	1	0.422607421875	0.5869140625	0	upper	amplitud.ttf
572752	WORD	wordpools/wasnorm_wordpool.txt	LTP135	ltpFR	2	4	1	SHRIMP	1297	n/a	n/a	1	0.422607421875	0.5869140625	0	upper	amplitud.ttf
576692	WORD	wordpools/wasnorm_wordpool.txt	LTP135	ltpFR	2	4	1	BAND	78	n/a	n/a	1	0.422607421875	0.5869140625	0	upper	amplitud.ttf
580649	WORD	wordpools/wasnorm_wordpool.txt	LTP135	ltpFR	2	4	1	LIMB	822	n/a	n/a	0	0.422607421875	0.5869140625	0	upper	amplitud.ttf
584748	WORD	wordpools/wasnorm_wordpool.txt	LTP135	ltpFR	2	4	1	HANDKERCHIEF	686	n/a	n/a	0	0.422607421875	0.5869140625	0	upper	amplitud.ttf
588663	WORD	wordpools/wasnorm_wordpool.txt	LTP135	ltpFR	2	4	0	BANJO	82	n/a	n/a	1	0.57763671875	0.412841796875	1	lower	zerothre.ttf
592720	WORD	wordpools/wasnorm_wordpool.txt	LTP135	ltpFR	2	4	0	MASK	876	n/a	n/a	0	0.57763671875	0.412841796875	1	lower	zerothre.ttf
596669	WORD	wordpools/wasnorm_wordpool.txt	LTP135	ltpFR	2	4	0	ELM	527	n/a	n/a	1	0.57763671875	0.412841796875	1	lower	zerothre.ttf
602492	REC_START	n/a	LTP135	ltpFR	2	4	n/a	n/a	n/a	n/a	n/a	n/a	n/a	n/a	n/a	n/a	n/a
604088	REC_WORD	wordpools/wasnorm_wordpool.txt	LTP135	ltpFR	2	4	0	ELM	527	n/a	n/a	1	n/a	n/a	n/a	n/a	n/a
605350	REC_WORD	wordpools/wasnorm_wordpool.txt	LTP135	ltpFR	2	4	0	MASK	876	n/a	n/a	0	n/a	n/a	n/a	n/a	n/a
606847	REC_WORD	wordpools/wasnorm_wordpool.txt	LTP135	ltpFR	2	4	0	BANJO	82	n/a	n/a	1	n/a	n/a	n/a	n/a	n/a
608353	REC_WORD	wordpools/wasnorm_wordpool.txt	LTP135	ltpFR	2	4	1	HANDKERCHIEF	686	n/a	n/a	0	n/a	n/a	n/a	n/a	n/a
611366	REC_WORD	wordpools/wasnorm_wordpool.txt	LTP135	ltpFR	2	4	1	WAITER	1580	n/a	n/a	1	n/a	n/a	n/a	n/a	n/a
613517	REC_WORD	wordpools/wasnorm_wordpool.txt	LTP135	ltpFR	2	4	1	ROOMMATE	1207	n/a	n/a	0	n/a	n/a	n/a	n/a	n/a
621593	REC_WORD	wordpools/wasnorm_wordpool.txt	LTP135	ltpFR	2	4	0	WASHCLOTH	1591	n/a	n/a	0	n/a	n/a	n/a	n/a	n/a
640790	REC_WORD	wordpools/wasnorm_wordpool.txt	LTP135	ltpFR	2	4	0	TRICYCLE	1506	n/a	n/a	1	n/a	n/a	n/a	n/a	n/a
653740	REC_WORD	wordpools/wasnorm_wordpool.txt	LTP135	ltpFR	2	4	1	LIMB	822	n/a	n/a	0	n/a	n/a	n/a	n/a	n/a
657018	REC_WORD	wordpools/wasnorm_wordpool.txt	LTP135	ltpFR	2	4	1	BAND	78	n/a	n/a	1	n/a	n/a	n/a	n/a	n/a
687237	WORD	wordpools/wasnorm_wordpool.txt	LTP135	ltpFR	2	5	0	BROOK	177	n/a	n/a	1	0.57763671875	0.412841796875	1	lower	zerothre.ttf
691060	WORD	wordpools/wasnorm_wordpool.txt	LTP135	ltpFR	2	5	0	LAGOON	795	n/a	n/a	1	0.57763671875	0.412841796875	1	lower	zerothre.ttf
694891	WORD	wordpools/wasnorm_wordpool.txt	LTP135	ltpFR	2	5	0	RECIPE	1175	n/a	n/a	0	0.57763671875	0.412841796875	1	lower	zerothre.ttf
698790	WORD	wordpools/wasnorm_wordpool.txt	LTP135	ltpFR	2	5	0	LANDSCAPE	799	n/a	n/a	1	0.57763671875	0.412841796875	1	lower	zerothre.ttf
702822	WORD	wordpools/wasnorm_wordpool.txt	LTP135	ltpFR	2	5	0	NEEDLE	941	n/a	n/a	0	0.57763671875	0.412841796875	1	lower	zerothre.ttf
706845	WORD	wordpools/wasnorm_wordpool.txt	LTP135	ltpFR	2	5	0	LIGHTER	819	n/a	n/a	0	0.57763671875	0.412841796875	1	lower	zerothre.ttf
710920	WORD	wordpools/wasnorm_wordpool.txt	LTP135	ltpFR	2	5	0	PALM	1007	n/a	n/a	1	0.57763671875	0.412841796875	1	lower	zerothre.ttf
715093	WORD	wordpools/wasnorm_wordpool.txt	LTP135	ltpFR	2	5	0	TRAY	1498	n/a	n/a	1	0.57763671875	0.412841796875	1	lower	zerothre.ttf
719183	WORD	wordpools/wasnorm_wordpool.txt	LTP135	ltpFR	2	5	0	TOY	1492	n/a	n/a	0	0.57763671875	0.412841796875	1	lower	zerothre.ttf
723182	WORD	wordpools/wasnorm_wordpool.txt	LTP135	ltpFR	2	5	0	SANDWICH	1232	n/a	n/a	0	0.57763671875	0.412841796875	1	lower	zerothre.ttf
727231	WORD	wordpools/wasnorm_wordpool.txt	LTP135	ltpFR	2	5	0	CRATER	400	n/a	n/a	1	0.57763671875	0.412841796875	1	lower	zerothre.ttf
731146	WORD	wordpools/wasnorm_wordpool.txt	LTP135	ltpFR	2	5	0	SUN	1406	n/a	n/a	1	0.57763671875	0.412841796875	1	lower	zerothre.ttf
735194	WORD	wordpools/wasnorm_wordpool.txt	LTP135	ltpFR	2	5	0	CHIME	300	n/a	n/a	0	0.57763671875	0.412841796875	1	lower	zerothre.ttf
739226	WORD	wordpools/wasnorm_wordpool.txt	LTP135	ltpFR	2	5	0	TUBA	1515	n/a	n/a	1	0.57763671875	0.412841796875	1	lower	zerothre.ttf
743225	WORD	wordpools/wasnorm_wordpool.txt	LTP135	ltpFR	2	5	0	FIST	572	n/a	n/a	0	0.57763671875	0.412841796875	1	lower	zerothre.ttf
747340	WORD	wordpools/wasnorm_wordpool.txt	LTP135	ltpFR	2	5	0	SERVER	1272	n/a	n/a	1	0.57763671875	0.412841796875	1	lower	zerothre.ttf
752997	REC_START	n/a	LTP135	ltpFR	2	5	n/a	n/a	n/a	n/a	n/a	n/a	n/a	n/a	n/a	n/a	n/a
754174	REC_WORD	wordpools/wasnorm_wordpool.txt	LTP135	ltpFR	2	5	0	SERVER	1272	n/a	n/a	1	n/a	n/a	n/a	n/a	n/a
755795	REC_WORD	wordpools/wasnorm_wordpool.txt	LTP135	ltpFR	2	5	0	FIST	572	n/a	n/a	0	n/a	n/a	n/a	n/a	n/a
757671	REC_WORD	wordpools/wasnorm_wordpool.txt	LTP135	ltpFR	2	5	0	TOY	1492	n/a	n/a	0	n/a	n/a	n/a	n/a	n/a
759063	REC_WORD	wordpools/wasnorm_wordpool.txt	LTP135	ltpFR	2	5	0	SUN	1406	n/a	n/a	1	n/a	n/a	n/a	n/a	n/a
760639	REC_WORD	wordpools/wasnorm_wordpool.txt	LTP135	ltpFR	2	5	0	LAGOON	795	n/a	n/a	1	n/a	n/a	n/a	n/a	n/a
762445	REC_WORD	wordpools/wasnorm_wordpool.txt	LTP135	ltpFR	2	5	0	BROOK	177	n/a	n/a	1	n/a	n/a	n/a	n/a	n/a
775630	REC_WORD	wordpools/wasnorm_wordpool.txt	LTP135	ltpFR	2	5	0	PALM	1007	n/a	n/a	1	n/a	n/a	n/a	n/a	n/a
790347	REC_WORD	wordpools/wasnorm_wordpool.txt	LTP135	ltpFR	2	5	0	TUBA	1515	n/a	n/a	1	n/a	n/a	n/a	n/a	n/a
794971	REC_WORD	wordpools/wasnorm_wordpool.txt	LTP135	ltpFR	2	5	0	CHIME	300	n/a	n/a	0	n/a	n/a	n/a	n/a	n/a
804091	REC_WORD	wordpools/wasnorm_wordpool.txt	LTP135	ltpFR	2	5	0	CRATER	400	n/a	n/a	1	n/a	n/a	n/a	n/a	n/a
814118	REC_WORD	wordpools/wasnorm_wordpool.txt	LTP135	ltpFR	2	5	0	MARKER	870	n/a	n/a	0	n/a	n/a	n/a	n/a	n/a
836242	WORD	wordpools/wasnorm_wordpool.txt	LTP135	ltpFR	2	6	1	MARINE	869	n/a	n/a	0	0.422607421875	0.5869140625	0	upper	amplitud.ttf
840199	WORD	wordpools/wasnorm_wordpool.txt	LTP135	ltpFR	2	6	1	SEAL	1262	n/a	n/a	1	0.422607421875	0.5869140625	0	upper	amplitud.ttf
844281	WORD	wordpools/wasnorm_wordpool.txt	LTP135	ltpFR	2	6	1	TWEEZERS	1526	n/a	n/a	0	0.422607421875	0.5869140625	0	upper	amplitud.ttf
848362	WORD	wordpools/wasnorm_wordpool.txt	LTP135	ltpFR	2	6	1	CASHIER	254	n/a	n/a	1	0.422607421875	0.5869140625	0	upper	amplitud.ttf
852411	WORD	wordpools/wasnorm_wordpool.txt	LTP135	ltpFR	2	6	1	CRICKET	408	n/a	n/a	1	0.422607421875	0.5869140625	0	upper	amplitud.ttf
856243	WORD	wordpools/wasnorm_wordpool.txt	LTP135	ltpFR	2	6	1	FEAST	556	n/a	n/a	0	0.422607421875	0.5869140625	0	upper	amplitud.ttf
860167	WORD	wordpools/wasnorm_wordpool.txt	LTP135	ltpFR	2	6	1	FACE	547	n/a	n/a	0	0.422607421875	0.5869140625	0	upper	amplitud.ttf
864274	WORD	wordpools/wasnorm_wordpool.txt	LTP135	ltpFR	2	6	1	GROCERIES	663	n/a	n/a	0	0.422607421875	0.5869140625	0	upper	amplitud.ttf
868339	WORD	wordpools/wasnorm_wordpool.txt	LTP135	ltpFR	2	6	1	RESTAURANT	1187	n/a	n/a	0	0.422607421875	0.5869140625	0	upper	amplitud.ttf
872154	WORD	wordpools/wasnorm_wordpool.txt	LTP135	ltpFR	2	6	1	PERFUME	1049	n/a	n/a	0	0.422607421875	0.5869140625	0	upper	amplitud.ttf
875986	WORD	wordpools/wasnorm_wordpool.txt	LTP135	ltpFR	2	6	1	PAW	1029	n/a	n/a	0	0.422607421875	0.5869140625	0	upper	amplitud.ttf
879825	WORD	wordpools/wasnorm_wordpool.txt	LTP135	ltpFR	2	6	1	PIN	1072	n/a	n/a	0	0.422607421875	0.5869140625	0	upper	amplitud.ttf
884033	WORD	wordpools/wasnorm_wordpool.txt	LTP135	ltpFR	2	6	1	ANIMAL	23	n/a	n/a	1	0.422607421875	0.5869140625	0	upper	amplitud.ttf
888107	WORD	wordpools/wasnorm_wordpool.txt	LTP135	ltpFR	2	6	1	CROCODILE	411	n/a	n/a	1	0.422607421875	0.5869140625	0	upper	amplitud.ttf
891930	WORD	wordpools/wasnorm_wordpool.txt	LTP135	ltpFR	2	6	1	PLAQUE	1084	n/a	n/a	0	0.422607421875	0.5869140625	0	upper	amplitud.ttf
896096	WORD	wordpools/wasnorm_wordpool.txt	LTP135	ltpFR	2	6	1	MOUTH	926	n/a	n/a	0	0.422607421875	0.5869140625	0	upper	amplitud.ttf
901851	REC_START	n/a	LTP135	ltpFR	2	6	n/a	n/a	n/a	n/a	n/a	n/a	n/a	n/a	n/a	n/a	n/a
903188	REC_WORD	wordpools/wasnorm_wordpool.txt	LTP135	ltpFR	2	6	1	MOUTH	926	n/a	n/a	0	n/a	n/a	n/a	n/a	n/a
904689	REC_WORD	wordpools/wasnorm_wordpool.txt	LTP135	ltpFR	2	6	1	PLAQUE	1084	n/a	n/a	0	n/a	n/a	n/a	n/a	n/a
906450	REC_WORD	wordpools/wasnorm_wordpool.txt	LTP135	ltpFR	2	6	1	PAW	1029	n/a	n/a	0	n/a	n/a	n/a	n/a	n/a
908022	REC_WORD	wordpools/wasnorm_wordpool.txt	LTP135	ltpFR	2	6	1	ANIMAL	23	n/a	n/a	1	n/a	n/a	n/a	n/a	n/a
909383	REC_WORD	wordpools/wasnorm_wordpool.txt	LTP135	ltpFR	2	6	1	FACE	547	n/a	n/a	0	n/a	n/a	n/a	n/a	n/a
911035	REC_WORD	wordpools/wasnorm_wordpool.txt	LTP135	ltpFR	2	6	1	GROCERIES	663	n/a	n/a	0	n/a	n/a	n/a	n/a	n/a
912362	REC_WORD	wordpools/wasnorm_wordpool.txt	LTP135	ltpFR	2	6	1	MARINE	869	n/a	n/a	0	n/a	n/a	n/a	n/a	n/a
913918	REC_WORD	wordpools/wasnorm_wordpool.txt	LTP135	ltpFR	2	6	1	SEAL	1262	n/a	n/a	1	n/a	n/a	n/a	n/a	n/a
986647	WORD	wordpools/wasnorm_wordpool.txt	LTP135	ltpFR	2	7	0	RACKET	1155	n/a	n/a	1	0.57763671875	0.412841796875	1	lower	zerothre.ttf
990811	WORD	wordpools/wasnorm_wordpool.txt	LTP135	ltpFR	2	7	0	MERMAID	887	n/a	n/a	1	0.57763671875	0.412841796875	1	lower	zerothre.ttf
994851	WORD	wordpools/wasnorm_wordpool.txt	LTP135	ltpFR	2	7	0	BAKER	71	n/a	n/a	1	0.57763671875	0.412841796875	1	lower	zerothre.ttf
998676	WORD	wordpools/wasnorm_wordpool.txt	LTP135	ltpFR	2	7	0	RIDER	1191	n/a	n/a	1	0.57763671875	0.412841796875	1	lower	zerothre.ttf
1002649	WORD	wordpools/wasnorm_wordpool.txt	LTP135	ltpFR	2	7	0	BRIEFCASE	175	n/a	n/a	1	0.57763671875	0.412841796875	1	lower	zerothre.ttf
1006855	WORD	wordpools/wasnorm_wordpool.txt	LTP135	ltpFR	2	7	0	LUGGAGE	847	n/a	n/a	1	0.57763671875	0.412841796875	1	lower	zerothre.ttf
1010705	WORD	wordpools/wasnorm_wordpool.txt	LTP135	ltpFR	2	7	1	COLT	349	n/a	n/a	1	0.422607421875	0.5869140625	0	upper	amplitud.ttf
1014728	WORD	wordpools/wasnorm_wordpool.txt	LTP135	ltpFR	2	7	1	CALENDAR	221	n/a	n/a	0	0.422607421875	0.5869140625	0	upper	amplitud.ttf
1018851	WORD	wordpools/wasnorm_wordpool.txt	LTP135	ltpFR	2	7	1	CITY	314	n/a	n/a	0	0.422607421875	0.5869140625	0	upper	amplitud.ttf
1022816	WORD	wordpools/wasnorm_wordpool.txt	LTP135	ltpFR	2	7	0	CONDUCTOR	362	n/a	n/a	1	0.57763671875	0.412841796875	1	lower	zerothre.ttf
1026815	WORD	wordpools/wasnorm_wordpool.txt	LTP135	ltpFR	2	7	0	PITCHFORK	1078	n/a	n/a	1	0.57763671875	0.412841796875	1	lower	zerothre.ttf
1031014	WORD	wordpools/wasnorm_wordpool.txt	LTP135	ltpFR	2	7	1	CORN	381	n/a	n/a	1	0.422607421875	0.5869140625	0	upper	amplitud.ttf
1034837	WORD	wordpools/wasnorm_wordpool.txt	LTP135	ltpFR	2	7	1	BRACELET	163	n/a	n/a	0	0.422607421875	0.5869140625	0	upper	amplitud.ttf
1038885	WORD	wordpools/wasnorm_wordpool.txt	LTP135	ltpFR	2	7	1	GOLD	647	n/a	n/a	0	0.422607421875	0.5869140625	0	upper	amplitud.ttf
1042792	WORD	wordpools/wasnorm_wordpool.txt	LTP135	ltpFR	2	7	1	PENDULUM	1043	n/a	n/a	0	0.422607421875	0.5869140625	0	upper	amplitud.ttf
1046934	WORD	wordpools/wasnorm_wordpool.txt	LTP135	ltpFR	2	7	1	ORCHESTRA	981	n/a	n/a	0	0.422607421875	0.5869140625	0	upper	amplitud.ttf
1052915	REC_START	n/a	LTP135	ltpFR	2	7	n/a	n/a	n/a	n/a	n/a	n/a	n/a	n/a	n/a	n/a	n/a
1053728	REC_WORD	wordpools/wasnorm_wordpool.txt	LTP135	ltpFR	2	7	1	ORCHESTRA	981	n/a	n/a	0	n/a	n/a	n/a	n/a	n/a
1055584	REC_WORD	wordpools/wasnorm_wordpool.txt	LTP135	ltpFR	2	7	1	PENDULUM	1043	n/a	n/a	0	n/a	n/a	n/a	n/a	n/a
1058048	REC_WORD	wordpools/wasnorm_wordpool.txt	LTP135	ltpFR	2	7	1	CORN	381	n/a	n/a	1	n/a	n/a	n/a	n/a	n/a
1058732	REC_WORD	wordpools/wasnorm_wordpool.txt	LTP135	ltpFR	2	7	1	PERFUME	1049	n/a	n/a	0	n/a	n/a	n/a	n/a	n/a
1060143	REC_WORD	wordpools/wasnorm_wordpool.txt	LTP135	ltpFR	2	7	1	GOLD	647	n/a	n/a	0	n/a	n/a	n/a	n/a	n/a
1061820	REC_WORD	wordpools/wasnorm_wordpool.txt	LTP135	ltpFR	2	7	1	BRACELET	163	n/a	n/a	0	n/a	n/a	n/a	n/a	n/a
1064868	REC_WORD	wordpools/wasnorm_wordpool.txt	LTP135	ltpFR	2	7	0	MERMAID	887	n/a	n/a	1	n/a	n/a	n/a	n/a	n/a
1075693	REC_WORD	wordpools/wasnorm_wordpool.txt	LTP135	ltpFR	2	7	1	CITY	314	n/a	n/a	0	n/a	n/a	n/a	n/a	n/a
1079290	REC_WORD	wordpools/wasnorm_wordpool.txt	LTP135	ltpFR	2	7	0	PITCHFORK	1078	n/a	n/a	1	n/a	n/a	n/a	n/a	n/a
1112928	REC_WORD	wordpools/wasnorm_wordpool.txt	LTP135	ltpFR	2	7	0	BRIEFCASE	175	n/a	n/a	1	n/a	n/a	n/a	n/a	n/a
1135759	WORD	wordpools/wasnorm_wordpool.txt	LTP135	ltpFR	2	8	0	PRIEST	1122	n/a	n/a	1	0.57763671875	0.412841796875	1	lower	zerothre.ttf
1139684	WORD	wordpools/wasnorm_wordpool.txt	LTP135	ltpFR	2	8	0	TYPIST	1532	n/a	n/a	1	0.57763671875	0.412841796875	1	lower	zerothre.ttf
1143865	WORD	wordpools/wasnorm_wordpool.txt	LTP135	ltpFR	2	8	1	POISON	1096	n/a	n/a	0	0.422607421875	0.5869140625	0	upper	amplitud.ttf
1147756	WORD	wordpools/wasnorm_wordpool.txt	LTP135	ltpFR	2	8	1	STY	1397	n/a	n/a	0	0.422607421875	0.5869140625	0	upper	amplitud.ttf
1151621	WORD	wordpools/wasnorm_wordpool.txt	LTP135	ltpFR	2	8	1	LENS	811	n/a	n/a	0	0.422607421875	0.5869140625	0	upper	amplitud.ttf
1155786	WORD	wordpools/wasnorm_wordpool.txt	LTP135	ltpFR	2	8	1	FOLDER	588	n/a	n/a	0	0.422607421875	0.5869140625	0	upper	amplitud.ttf
1159694	WORD	wordpools/wasnorm_wordpool.txt	LTP135	ltpFR	2	8	0	SALMON	1227	n/a	n/a	0	0.57763671875	0.412841796875	1	lower	zerothre.ttf
1163642	WORD	wordpools/wasnorm_wordpool.txt	LTP135	ltpFR	2	8	0	FISH	571	n/a	n/a	0	0.57763671875	0.412841796875	1	lower	zerothre.ttf
1167806	WORD	wordpools/wasnorm_wordpool.txt	LTP135	ltpFR	2	8	0	POLICE	1098	n/a	n/a	1	0.57763671875	0.412841796875	1	lower	zerothre.ttf
1172014	WORD	wordpools/wasnorm_wordpool.txt	LTP135	ltpFR	2	8	1	CHURCH	307	n/a	n/a	0	0.422607421875	0.5869140625	0	upper	amplitud.ttf
1176171	WORD	wordpools/wasnorm_wordpool.txt	LTP135	ltpFR	2	8	1	MANAGER	863	n/a	n/a	1	0.422607421875	0.5869140625	0	upper	amplitud.ttf
1180145	WORD	wordpools/wasnorm_wordpool.txt	LTP135	ltpFR	2	8	1	PRISON	1127	n/a	n/a	0	0.422607421875	0.5869140625	0	upper	amplitud.ttf
1184035	WORD	wordpools/wasnorm_wordpool.txt	LTP135	ltpFR	2	8	1	ELBOW	520	n/a	n/a	0	0.422607421875	0.5869140625	0	upper	amplitud.ttf
1187857	WORD	wordpools/wasnorm_wordpool.txt	LTP135	ltpFR	2	8	0	PIG	1064	n/a	n/a	1	0.57763671875	0.412841796875	1	lower	zerothre.ttf
1191932	WORD	wordpools/wasnorm_wordpool.txt	LTP135	ltpFR	2	8	0	LINT	826	n/a	n/a	0	0.57763671875	0.412841796875	1	lower	zerothre.ttf
1196022	WORD	wordpools/wasnorm_wordpool.txt	LTP135	ltpFR	2	8	0	ARTICLE	42	n/a	n/a	0	0.57763671875	0.412841796875	1	lower	zerothre.ttf
1201903	REC_START	n/a	LTP135	ltpFR	2	8	n/a	n/a	n/a	n/a	n/a	n/a	n/a	n/a	n/a	n/a	n/a
1202546	REC_WORD	wordpools/wasnorm_wordpool.txt	LTP135	ltpFR	2	8	0	ARTICLE	42	n/a	n/a	0	n/a	n/a	n/a	n/a	n/a
1204382	REC_WORD	wordpools/wasnorm_wordpool.txt	LTP135	ltpFR	2	8	0	LINT	826	n/a	n/a	0	n/a	n/a	n/a	n/a	n/a
1206088	REC_WORD	wordpools/wasnorm_wordpool.txt	LTP135	ltpFR	2	8	0	PIG	1064	n/a	n/a	1	n/a	n/a	n/a	n/a	n/a
1207685	REC_WORD	wordpools/wasnorm_wordpool.txt	LTP135	ltpFR	2	8	0	POLICE	1098	n/a	n/a	1	n/a	n/a	n/a	n/a	n/a
1209849	REC_WORD	wordpools/wasnorm_wordpool.txt	LTP135	ltpFR	2	8	1	STY	1397	n/a	n/a	0	n/a	n/a	n/a	n/a	n/a
1211785	REC_WORD	wordpools/wasnorm_wordpool.txt	LTP135	ltpFR	2	8	1	ELBOW	520	n/a	n/a	0	n/a	n/a	n/a	n/a	n/a
1218695	REC_WORD	wordpools/wasnorm_wordpool.txt	LTP135	ltpFR	2	8	0	TYPIST	1532	n/a	n/a	1	n/a	n/a	n/a	n/a	n/a
1235636	REC_WORD	wordpools/wasnorm_wordpool.txt	LTP135	ltpFR	2	8	1	PRISON	1127	n/a	n/a	0	n/a	n/a	n/a	n/a	n/a
1250378	REC_WORD	wordpools/wasnorm_wordpool.txt	LTP135	ltpFR	2	8	0	ARTICLE	42	n/a	n/a	0	n/a	n/a	n/a	n/a	n/a
1286789	WORD	wordpools/wasnorm_wordpool.txt	LTP135	ltpFR	2	9	0	UTENSIL	1542	n/a	n/a	0	0.57763671875	0.412841796875	1	lower	zerothre.ttf
1290697	WORD	wordpools/wasnorm_wordpool.txt	LTP135	ltpFR	2	9	0	MOOSE	915	n/a	n/a	1	0.57763671875	0.412841796875	1	lower	zerothre.ttf
1294612	WORD	wordpools/wasnorm_wordpool.txt	LTP135	ltpFR	2	9	0	VALLEY	1545	n/a	n/a	1	0.57763671875	0.412841796875	1	lower	zerothre.ttf
1298561	WORD	wordpools/wasnorm_wordpool.txt	LTP135	ltpFR	2	9	0	STEWARDESS	1381	n/a	n/a	1	0.57763671875	0.412841796875	1	lower	zerothre.ttf
1302693	WORD	wordpools/wasnorm_wordpool.txt	LTP135	ltpFR	2	9	0	SWATTER	1418	n/a	n/a	0	0.57763671875	0.412841796875	1	lower	zerothre.ttf
1306633	WORD	wordpools/wasnorm_wordpool.txt	LTP135	ltpFR	2	9	0	NEPTUNE	943	n/a	n/a	1	0.57763671875	0.412841796875	1	lower	zerothre.ttf
1310473	WORD	wordpools/wasnorm_wordpool.txt	LTP135	ltpFR	2	9	0	CLIMBER	323	n/a	n/a	1	0.57763671875	0.412841796875	1	lower	zerothre.ttf
1314414	WORD	wordpools/wasnorm_wordpool.txt	LTP135	ltpFR	2	9	0	ACROBAT	4	n/a	n/a	1	0.57763671875	0.412841796875	1	lower	zerothre.ttf
1318237	WORD	wordpools/wasnorm_wordpool.txt	LTP135	ltpFR	2	9	0	GYMNAST	675	n/a	n/a	1	0.57763671875	0.412841796875	1	lower	zerothre.ttf
1322386	WORD	wordpools/wasnorm_wordpool.txt	LTP135	ltpFR	2	9	0	ORANGE	980	n/a	n/a	0	0.57763671875	0.412841796875	1	lower	zerothre.ttf
1326526	WORD	wordpools/wasnorm_wordpool.txt	LTP135	ltpFR	2	9	0	BEET	115	n/a	n/a	0	0.57763671875	0.412841796875	1	lower	zerothre.ttf
1330549	WORD	wordpools/wasnorm_wordpool.txt	LTP135	ltpFR	2	9	0	BULL	193	n/a	n/a	1	0.57763671875	0.412841796875	1	lower	zerothre.ttf
1334565	WORD	wordpools/wasnorm_wordpool.txt	LTP135	ltpFR	2	9	0	MOTORCYCLE	923	n/a	n/a	1	0.57763671875	0.412841796875	1	lower	zerothre.ttf
1338762	WORD	wordpools/wasnorm_wordpool.txt	LTP135	ltpFR	2	9	0	MAILBOX	857	n/a	n/a	1	0.57763671875	0.412841796875	1	lower	zerothre.ttf
1342620	WORD	wordpools/wasnorm_wordpool.txt	LTP135	ltpFR	2	9	0	LUNG	850	n/a	n/a	1	0.57763671875	0.412841796875	1	lower	zerothre.ttf
1346652	WORD	wordpools/wasnorm_wordpool.txt	LTP135	ltpFR	2	9	0	PLIERS	1089	n/a	n/a	0	0.57763671875	0.412841796875	1	lower	zerothre.ttf
1352609	REC_START	n/a	LTP135	ltpFR	2	9	n/a	n/a	n/a	n/a	n/a	n/a	n/a	n/a	n/a	n/a	n/a
1353761	REC_WORD	wordpools/wasnorm_wordpool.txt	LTP135	ltpFR	2	9	0	PLIERS	1089	n/a	n/a	0	n/a	n/a	n/a	n/a	n/a
1355288	REC_WORD	wordpools/wasnorm_wordpool.txt	LTP135	ltpFR	2	9	0	LUNG	850	n/a	n/a	1	n/a	n/a	n/a	n/a	n/a
1356819	REC_WORD	wordpools/wasnorm_wordpool.txt	LTP135	ltpFR	2	9	0	MOTORCYCLE	923	n/a	n/a	1	n/a	n/a	n/a	n/a	n/a
1360231	REC_WORD	wordpools/wasnorm_wordpool.txt	LTP135	ltpFR	2	9	0	ACROBAT	4	n/a	n/a	1	n/a	n/a	n/a	n/a	n/a
1362257	REC_WORD	wordpools/wasnorm_wordpool.txt	LTP135	ltpFR	2	9	0	GYMNAST	675	n/a	n/a	1	n/a	n/a	n/a	n/a	n/a
1369440	REC_WORD	wordpools/wasnorm_wordpool.txt	LTP135	ltpFR	2	9	0	ORANGE	980	n/a	n/a	0	n/a	n/a	n/a	n/a	n/a
1383089	REC_WORD	wordpools/wasnorm_wordpool.txt	LTP135	ltpFR	2	9	0	SWATTER	1418	n/a	n/a	0	n/a	n/a	n/a	n/a	n/a
1384796	REC_WORD	wordpools/wasnorm_wordpool.txt	LTP135	ltpFR	2	9	0	STEWARDESS	1381	n/a	n/a	1	n/a	n/a	n/a	n/a	n/a
1435562	WORD	wordpools/wasnorm_wordpool.txt	LTP135	ltpFR	2	10	-1	DELINQUENT	445	n/a	n/a	-1	1.0	1.0	1	upper	Verdana.ttf
1439402	WORD	wordpools/wasnorm_wordpool.txt	LTP135	ltpFR	2	10	-1	THUMB	1462	n/a	n/a	-1	1.0	1.0	1	upper	Verdana.ttf
1443609	WORD	wordpools/wasnorm_wordpool.txt	LTP135	ltpFR	2	10	-1	FLOUR	583	n/a	n/a	-1	1.0	1.0	1	upper	Verdana.ttf
1447666	WORD	wordpools/wasnorm_wordpool.txt	LTP135	ltpFR	2	10	-1	LOAF	835	n/a	n/a	-1	1.0	1.0	1	upper	Verdana.ttf
1451506	WORD	wordpools/wasnorm_wordpool.txt	LTP135	ltpFR	2	10	-1	ASHTRAY	45	n/a	n/a	-1	1.0	1.0	1	upper	Verdana.ttf
1455705	WORD	wordpools/wasnorm_wordpool.txt	LTP135	ltpFR	2	10	-1	PLUM	1090	n/a	n/a	-1	1.0	1.0	1	upper	Verdana.ttf
1459603	WORD	wordpools/wasnorm_wordpool.txt	LTP135	ltpFR	2	10	-1	SHEET	1279	n/a	n/a	-1	1.0	1.0	1	upper	Verdana.ttf
1463635	WORD	wordpools/wasnorm_wordpool.txt	LTP135	ltpFR	2	10	-1	CARD	243	n/a	n/a	-1	1.0	1.0	1	upper	Verdana.ttf
1467766	WORD	wordpools/wasnorm_wordpool.txt	LTP135	ltpFR	2	10	-1	TACK	1428	n/a	n/a	-1	1.0	1.0	1	upper	Verdana.ttf
1471823	WORD	wordpools/wasnorm_wordpool.txt	LTP135	ltpFR	2	10	-1	SQUIRREL	1362	n/a	n/a	-1	1.0	1.0	1	upper	Verdana.ttf
1475905	WORD	wordpools/wasnorm_wordpool.txt	LTP135	ltpFR	2	10	-1	SENATOR	1268	n/a	n/a	-1	1.0	1.0	1	upper	Verdana.ttf
1480105	WORD	wordpools/wasnorm_wordpool.txt	LTP135	ltpFR	2	10	-1	TOWN	1491	n/a	n/a	-1	1.0	1.0	1	upper	Verdana.ttf
1483953	WORD	wordpools/wasnorm_wordpool.txt	LTP135	ltpFR	2	10	-1	TROPHY	1509	n/a	n/a	-1	1.0	1.0	1	upper	Verdana.ttf
1488110	WORD	wordpools/wasnorm_wordpool.txt	LTP135	ltpFR	2	10	-1	PARENT	1013	n/a	n/a	-1	1.0	1.0	1	upper	Verdana.ttf
1491967	WORD	wordpools/wasnorm_wordpool.txt	LTP135	ltpFR	2	10	-1	PLANT	1083	n/a	n/a	-1	1.0	1.0	1	upper	Verdana.ttf
1495932	WORD	wordpools/wasnorm_wordpool.txt	LTP135	ltpFR	2	10	-1	STEM	1376	n/a	n/a	-1	1.0	1.0	1	upper	Verdana.ttf
1501614	REC_START	n/a	LTP135	ltpFR	2	10	n/a	n/a	n/a	n/a	n/a	n/a	n/a	n/a	n/a	n/a	n/a
1503145	REC_WORD	wordpools/wasnorm_wordpool.txt	LTP135	ltpFR	2	10	-1	PLANT	1083	n/a	n/a	-1	n/a	n/a	n/a	n/a	n/a
1503968	REC_WORD	wordpools/wasnorm_wordpool.txt	LTP135	ltpFR	2	10	-1	STEM	1376	n/a	n/a	-1	n/a	n/a	n/a	n/a	n/a
1505440	REC_WORD	wordpools/wasnorm_wordpool.txt	LTP135	ltpFR	2	10	-1	PARENT	1013	n/a	n/a	-1	n/a	n/a	n/a	n/a	n/a
1506702	REC_WORD	wordpools/wasnorm_wordpool.txt	LTP135	ltpFR	2	10	-1	TROPHY	1509	n/a	n/a	-1	n/a	n/a	n/a	n/a	n/a
1515746	REC_WORD	wordpools/wasnorm_wordpool.txt	LTP135	ltpFR	2	10	-1	FLOUR	583	n/a	n/a	-1	n/a	n/a	n/a	n/a	n/a
1528657	REC_WORD	wordpools/wasnorm_wordpool.txt	LTP135	ltpFR	2	10	-1	DELINQUENT	445	n/a	n/a	-1	n/a	n/a	n/a	n/a	n/a
1536559	REC_WORD	wordpools/wasnorm_wordpool.txt	LTP135	ltpFR	2	10	-1	STEM	1376	n/a	n/a	-1	n/a	n/a	n/a	n/a	n/a
1583385	WORD	wordpools/wasnorm_wordpool.txt	LTP135	ltpFR	2	11	0	GIRL	637	n/a	n/a	1	0.57763671875	0.412841796875	1	lower	zerothre.ttf
1587300	WORD	wordpools/wasnorm_wordpool.txt	LTP135	ltpFR	2	11	0	PAIL	1002	n/a	n/a	1	0.57763671875	0.412841796875	1	lower	zerothre.ttf
1591215	WORD	wordpools/wasnorm_wordpool.txt	LTP135	ltpFR	2	11	0	CINNAMON	310	n/a	n/a	0	0.57763671875	0.412841796875	1	lower	zerothre.ttf
1595330	WORD	wordpools/wasnorm_wordpool.txt	LTP135	ltpFR	2	11	0	TOAST	1471	n/a	n/a	0	0.57763671875	0.412841796875	1	lower	zerothre.ttf
1599362	WORD	wordpools/wasnorm_wordpool.txt	LTP135	ltpFR	2	11	0	RAM	1165	n/a	n/a	1	0.57763671875	0.412841796875	1	lower	zerothre.ttf
1603361	WORD	wordpools/wasnorm_wordpool.txt	LTP135	ltpFR	2	11	0	MONGOOSE	909	n/a	n/a	1	0.57763671875	0.412841796875	1	lower	zerothre.ttf
1607543	WORD	wordpools/wasnorm_wordpool.txt	LTP135	ltpFR	2	11	0	SCREWDRIVER	1255	n/a	n/a	0	0.57763671875	0.412841796875	1	lower	zerothre.ttf
1611558	WORD	wordpools/wasnorm_wordpool.txt	LTP135	ltpFR	2	11	0	NOTEBOOK	959	n/a	n/a	0	0.57763671875	0.412841796875	1	lower	zerothre.ttf
1615640	WORD	wordpools/wasnorm_wordpool.txt	LTP135	ltpFR	2	11	0	CAFETERIA	217	n/a	n/a	1	0.57763671875	0.412841796875	1	lower	zerothre.ttf
1619713	WORD	wordpools/wasnorm_wordpool.txt	LTP135	ltpFR	2	11	0	BRIDGE	174	n/a	n/a	1	0.57763671875	0.412841796875	1	lower	zerothre.ttf
1623728	WORD	wordpools/wasnorm_wordpool.txt	LTP135	ltpFR	2	11	0	CASH	252	n/a	n/a	0	0.57763671875	0.412841796875	1	lower	zerothre.ttf
1627677	WORD	wordpools/wasnorm_wordpool.txt	LTP135	ltpFR	2	11	0	COCKTAIL	338	n/a	n/a	0	0.57763671875	0.412841796875	1	lower	zerothre.ttf
1631726	WORD	wordpools/wasnorm_wordpool.txt	LTP135	ltpFR	2	11	0	FEMALE	559	n/a	n/a	1	0.57763671875	0.412841796875	1	lower	zerothre.ttf
1635823	WORD	wordpools/wasnorm_wordpool.txt	LTP135	ltpFR	2	11	0	WICK	1607	n/a	n/a	0	0.57763671875	0.412841796875	1	lower	zerothre.ttf
1639772	WORD	wordpools/wasnorm_wordpool.txt	LTP135	ltpFR	2	11	0	TERMINAL	1450	n/a	n/a	1	0.57763671875	0.412841796875	1	lower	zerothre.ttf
1643904	WORD	wordpools/wasnorm_wordpool.txt	LTP135	ltpFR	2	11	0	PLANE	1081	n/a	n/a	1	0.57763671875	0.412841796875	1	lower	zerothre.ttf
1649827	REC_START	n/a	LTP135	ltpFR	2	11	n/a	n/a	n/a	n/a	n/a	n/a	n/a	n/a	n/a	n/a	n/a
1650725	REC_WORD	wordpools/wasnorm_wordpool.txt	LTP135	ltpFR	2	11	0	PLANE	1081	n/a	n/a	1	n/a	n/a	n/a	n/a	n/a
1651877	REC_WORD	wordpools/wasnorm_wordpool.txt	LTP135	ltpFR	2	11	0	TERMINAL	1450	n/a	n/a	1	n/a	n/a	n/a	n/a	n/a
1652964	REC_WORD	wordpools/wasnorm_wordpool.txt	LTP135	ltpFR	2	11	0	FEMALE	559	n/a	n/a	1	n/a	n/a	n/a	n/a	n/a
1654466	REC_WORD	wordpools/wasnorm_wordpool.txt	LTP135	ltpFR	2	11	0	GIRL	637	n/a	n/a	1	n/a	n/a	n/a	n/a	n/a
1655644	REC_WORD	wordpools/wasnorm_wordpool.txt	LTP135	ltpFR	2	11	0	MONGOOSE	909	n/a	n/a	1	n/a	n/a	n/a	n/a	n/a
1662593	REC_WORD	wordpools/wasnorm_wordpool.txt	LTP135	ltpFR	2	11	0	NOTEBOOK	959	n/a	n/a	0	n/a	n/a	n/a	n/a	n/a
1665057	REC_WORD	wordpools/wasnorm_wordpool.txt	LTP135	ltpFR	2	11	0	TERMINAL	1450	n/a	n/a	1	n/a	n/a	n/a	n/a	n/a
1674206	REC_WORD	wordpools/wasnorm_wordpool.txt	LTP135	ltpFR	2	11	0	PAIL	1002	n/a	n/a	1	n/a	n/a	n/a	n/a	n/a
1679848	REC_WORD	wordpools/wasnorm_wordpool.txt	LTP135	ltpFR	2	11	0	CINNAMON	310	n/a	n/a	0	n/a	n/a	n/a	n/a	n/a
1681415	REC_WORD	wordpools/wasnorm_wordpool.txt	LTP135	ltpFR	2	11	0	TOAST	1471	n/a	n/a	0	n/a	n/a	n/a	n/a	n/a
1688130	REC_WORD	wordpools/wasnorm_wordpool.txt	LTP135	ltpFR	2	11	0	WICK	1607	n/a	n/a	0	n/a	n/a	n/a	n/a	n/a
1695987	REC_WORD	wordpools/wasnorm_wordpool.txt	LTP135	ltpFR	2	11	0	SCREWDRIVER	1255	n/a	n/a	0	n/a	n/a	n/a	n/a	n/a
1696987	REC_WORD_VV	wordpools/wasnorm_wordpool.txt	LTP135	ltpFR	2	11	n/a	<>	-1	n/a	n/a	n/a	n/a	n/a	n/a	n/a	n/a
1729666	WORD	wordpools/wasnorm_wordpool.txt	LTP135	ltpFR	2	12	-1	TABLE	1426	n/a	n/a	-1	1.0	1.0	1	upper	Verdana.ttf
1733706	WORD	wordpools/wasnorm_wordpool.txt	LTP135	ltpFR	2	12	-1	TANK	1432	n/a	n/a	-1	1.0	1.0	1	upper	Verdana.ttf
1737621	WORD	wordpools/wasnorm_wordpool.txt	LTP135	ltpFR	2	12	-1	GULL	671	n/a	n/a	-1	1.0	1.0	1	upper	Verdana.ttf
1741769	WORD	wordpools/wasnorm_wordpool.txt	LTP135	ltpFR	2	12	-1	CUSHION	428	n/a	n/a	-1	1.0	1.0	1	upper	Verdana.ttf
1745960	WORD	wordpools/wasnorm_wordpool.txt	LTP135	ltpFR	2	12	-1	STOOL	1386	n/a	n/a	-1	1.0	1.0	1	upper	Verdana.ttf
1750034	WORD	wordpools/wasnorm_wordpool.txt	LTP135	ltpFR	2	12	-1	POTATO	1115	n/a	n/a	-1	1.0	1.0	1	upper	Verdana.ttf
1753966	WORD	wordpools/wasnorm_wordpool.txt	LTP135	ltpFR	2	12	-1	BUTTER	205	n/a	n/a	-1	1.0	1.0	1	upper	Verdana.ttf
1758047	WORD	wordpools/wasnorm_wordpool.txt	LTP135	ltpFR	2	12	-1	CRAYON	401	n/a	n/a	-1	1.0	1.0	1	upper	Verdana.ttf
1761878	WORD	wordpools/wasnorm_wordpool.txt	LTP135	ltpFR	2	12	-1	SKIN	1318	n/a	n/a	-1	1.0	1.0	1	upper	Verdana.ttf
1766020	WORD	wordpools/wasnorm_wordpool.txt	LTP135	ltpFR	2	12	-1	GAZELLE	628	n/a	n/a	-1	1.0	1.0	1	upper	Verdana.ttf
1770110	WORD	wordpools/wasnorm_wordpool.txt	LTP135	ltpFR	2	12	-1	PREDATOR	1120	n/a	n/a	-1	1.0	1.0	1	upper	Verdana.ttf
1774092	WORD	wordpools/wasnorm_wordpool.txt	LTP135	ltpFR	2	12	-1	MARGARINE	868	n/a	n/a	-1	1.0	1.0	1	upper	Verdana.ttf
1778090	WORD	wordpools/wasnorm_wordpool.txt	LTP135	ltpFR	2	12	-1	TWINE	1529	n/a	n/a	-1	1.0	1.0	1	upper	Verdana.ttf
1782164	WORD	wordpools/wasnorm_wordpool.txt	LTP135	ltpFR	2	12	-1	COLLEGE	346	n/a	n/a	-1	1.0	1.0	1	upper	Verdana.ttf
1786246	WORD	wordpools/wasnorm_wordpool.txt	LTP135	ltpFR	2	12	-1	FORT	595	n/a	n/a	-1	1.0	1.0	1	upper	Verdana.ttf
1790403	WORD	wordpools/wasnorm_wordpool.txt	LTP135	ltpFR	2	12	-1	PANTHER	1009	n/a	n/a	-1	1.0	1.0	1	upper	Verdana.ttf
1796401	REC_START	n/a	LTP135	ltpFR	2	12	n/a	n/a	n/a	n/a	n/a	n/a	n/a	n/a	n/a	n/a	n/a
1797443	REC_WORD	wordpools/wasnorm_wordpool.txt	LTP135	ltpFR	2	12	-1	COLLEGE	346	n/a	n/a	-1	n/a	n/a	n/a	n/a	n/a
1798615	REC_WORD	wordpools/wasnorm_wordpool.txt	LTP135	ltpFR	2	12	-1	FORT	595	n/a	n/a	-1	n/a	n/a	n/a	n/a	n/a
1800487	REC_WORD	wordpools/wasnorm_wordpool.txt	LTP135	ltpFR	2	12	-1	PREDATOR	1120	n/a	n/a	-1	n/a	n/a	n/a	n/a	n/a
1802163	REC_WORD	wordpools/wasnorm_wordpool.txt	LTP135	ltpFR	2	12	-1	PANTHER	1009	n/a	n/a	-1	n/a	n/a	n/a	n/a	n/a
1804128	REC_WORD	wordpools/wasnorm_wordpool.txt	LTP135	ltpFR	2	12	-1	GAZELLE	628	n/a	n/a	-1	n/a	n/a	n/a	n/a	n/a
1806932	REC_WORD	wordpools/wasnorm_wordpool.txt	LTP135	ltpFR	2	12	-1	CRAYON	401	n/a	n/a	-1	n/a	n/a	n/a	n/a	n/a
1809456	REC_WORD	wordpools/wasnorm_wordpool.txt	LTP135	ltpFR	2	12	-1	MARGARINE	868	n/a	n/a	-1	n/a	n/a	n/a	n/a	n/a
1813556	REC_WORD	wordpools/wasnorm_wordpool.txt	LTP135	ltpFR	2	12	-1	SKIN	1318	n/a	n/a	-1	n/a	n/a	n/a	n/a	n/a
1871982	REST_REWET	n/a	LTP135	ltpFR	2	12	n/a	n/a	n/a	n/a	n/a	n/a	n/a	n/a	n/a	n/a	n/a
2320322	WORD	wordpools/wasnorm_wordpool.txt	LTP135	ltpFR	2	13	1	COMMANDER	354	n/a	n/a	1	0.422607421875	0.5869140625	0	upper	amplitud.ttf
2324479	WORD	wordpools/wasnorm_wordpool.txt	LTP135	ltpFR	2	13	1	MILITARY	894	n/a	n/a	0	0.422607421875	0.5869140625	0	upper	amplitud.ttf
2328295	WORD	wordpools/wasnorm_wordpool.txt	LTP135	ltpFR	2	13	1	BOMB	147	n/a	n/a	0	0.422607421875	0.5869140625	0	upper	amplitud.ttf
2332168	WORD	wordpools/wasnorm_wordpool.txt	LTP135	ltpFR	2	13	1	MOUNTAIN	924	n/a	n/a	0	0.422607421875	0.5869140625	0	upper	amplitud.ttf
2336025	WORD	wordpools/wasnorm_wordpool.txt	LTP135	ltpFR	2	13	1	HIKER	708	n/a	n/a	1	0.422607421875	0.5869140625	0	upper	amplitud.ttf
2340040	WORD	wordpools/wasnorm_wordpool.txt	LTP135	ltpFR	2	13	1	POSSUM	1112	n/a	n/a	1	0.422607421875	0.5869140625	0	upper	amplitud.ttf
2344231	WORD	wordpools/wasnorm_wordpool.txt	LTP135	ltpFR	2	13	1	BARTENDER	92	n/a	n/a	1	0.422607421875	0.5869140625	0	upper	amplitud.ttf
2348113	WORD	wordpools/wasnorm_wordpool.txt	LTP135	ltpFR	2	13	1	BLANKET	135	n/a	n/a	0	0.422607421875	0.5869140625	0	upper	amplitud.ttf
2352194	WORD	wordpools/wasnorm_wordpool.txt	LTP135	ltpFR	2	13	1	MEAL	882	n/a	n/a	0	0.422607421875	0.5869140625	0	upper	amplitud.ttf
2356401	WORD	wordpools/wasnorm_wordpool.txt	LTP135	ltpFR	2	13	1	TRIANGLE	1504	n/a	n/a	0	0.422607421875	0.5869140625	0	upper	amplitud.ttf
2360258	WORD	wordpools/wasnorm_wordpool.txt	LTP135	ltpFR	2	13	1	GOWN	652	n/a	n/a	0	0.422607421875	0.5869140625	0	upper	amplitud.ttf
2364140	WORD	wordpools/wasnorm_wordpool.txt	LTP135	ltpFR	2	13	1	BOYFRIEND	162	n/a	n/a	1	0.422607421875	0.5869140625	0	upper	amplitud.ttf
2368080	WORD	wordpools/wasnorm_wordpool.txt	LTP135	ltpFR	2	13	1	FOE	587	n/a	n/a	1	0.422607421875	0.5869140625	0	upper	amplitud.ttf
2371987	WORD	wordpools/wasnorm_wordpool.txt	LTP135	ltpFR	2	13	1	FAN	551	n/a	n/a	0	0.422607421875	0.5869140625	0	upper	amplitud.ttf
2375868	WORD	wordpools/wasnorm_wordpool.txt	LTP135	ltpFR	2	13	1	ATOM	55	n/a	n/a	0	0.422607421875	0.5869140625	0	upper	amplitud.ttf
2379735	WORD	wordpools/wasnorm_wordpool.txt	LTP135	ltpFR	2	13	1	LOUNGE	845	n/a	n/a	0	0.422607421875	0.5869140625	0	upper	amplitud.ttf
2385525	REC_START	n/a	LTP135	ltpFR	2	13	n/a	n/a	n/a	n/a	n/a	n/a	n/a	n/a	n/a	n/a	n/a
2386947	REC_WORD	wordpools/wasnorm_wordpool.txt	LTP135	ltpFR	2	13	1	LOUNGE	845	n/a	n/a	0	n/a	n/a	n/a	n/a	n/a
2388059	REC_WORD	wordpools/wasnorm_wordpool.txt	LTP135	ltpFR	2	13	1	FAN	551	n/a	n/a	0	n/a	n/a	n/a	n/a	n/a
2389466	REC_WORD	wordpools/wasnorm_wordpool.txt	LTP135	ltpFR	2	13	1	ATOM	55	n/a	n/a	0	n/a	n/a	n/a	n/a	n/a
2391895	REC_WORD	wordpools/wasnorm_wordpool.txt	LTP135	ltpFR	2	13	1	MILITARY	894	n/a	n/a	0	n/a	n/a	n/a	n/a	n/a
2398246	REC_WORD	wordpools/wasnorm_wordpool.txt	LTP135	ltpFR	2	13	1	COMMANDER	354	n/a	n/a	1	n/a	n/a	n/a	n/a	n/a
2401853	REC_WORD	wordpools/wasnorm_wordpool.txt	LTP135	ltpFR	2	13	1	HIKER	708	n/a	n/a	1	n/a	n/a	n/a	n/a	n/a
2403230	REC_WORD	wordpools/wasnorm_wordpool.txt	LTP135	ltpFR	2	13	1	MOUNTAIN	924	n/a	n/a	0	n/a	n/a	n/a	n/a	n/a
2404791	REC_WORD	wordpools/wasnorm_wordpool.txt	LTP135	ltpFR	2	13	1	BARTENDER	92	n/a	n/a	1	n/a	n/a	n/a	n/a	n/a
2406512	REC_WORD	wordpools/wasnorm_wordpool.txt	LTP135	ltpFR	2	13	1	GOWN	652	n/a	n/a	0	n/a	n/a	n/a	n/a	n/a
2407863	REC_WORD	wordpools/wasnorm_wordpool.txt	LTP135	ltpFR	2	13	1	FOE	587	n/a	n/a	1	n/a	n/a	n/a	n/a	n/a
2409296	REC_WORD	wordpools/wasnorm_wordpool.txt	LTP135	ltpFR	2	13	1	BOYFRIEND	162	n/a	n/a	1	n/a	n/a	n/a	n/a	n/a
2473176	WORD	wordpools/wasnorm_wordpool.txt	LTP135	ltpFR	2	14	-1	BEER	114	n/a	n/a	-1	1.0	1.0	1	upper	Verdana.ttf
2477000	WORD	wordpools/wasnorm_wordpool.txt	LTP135	ltpFR	2	14	-1	MUSTARD	935	n/a	n/a	-1	1.0	1.0	1	upper	Verdana.ttf
2480949	WORD	wordpools/wasnorm_wordpool.txt	LTP135	ltpFR	2	14	-1	CATTLE	261	n/a	n/a	-1	1.0	1.0	1	upper	Verdana.ttf
2485072	WORD	wordpools/wasnorm_wordpool.txt	LTP135	ltpFR	2	14	-1	SCREW	1254	n/a	n/a	-1	1.0	1.0	1	upper	Verdana.ttf
2489038	WORD	wordpools/wasnorm_wordpool.txt	LTP135	ltpFR	2	14	-1	TRUCK	1512	n/a	n/a	-1	1.0	1.0	1	upper	Verdana.ttf
2493144	WORD	wordpools/wasnorm_wordpool.txt	LTP135	ltpFR	2	14	-1	DOLL	481	n/a	n/a	-1	1.0	1.0	1	upper	Verdana.ttf
2497110	WORD	wordpools/wasnorm_wordpool.txt	LTP135	ltpFR	2	14	-1	FREEZER	604	n/a	n/a	-1	1.0	1.0	1	upper	Verdana.ttf
2501208	WORD	wordpools/wasnorm_wordpool.txt	LTP135	ltpFR	2	14	-1	TOOL	1480	n/a	n/a	-1	1.0	1.0	1	upper	Verdana.ttf
2505207	WORD	wordpools/wasnorm_wordpool.txt	LTP135	ltpFR	2	14	-1	KETTLE	772	n/a	n/a	-1	1.0	1.0	1	upper	Verdana.ttf
2509330	WORD	wordpools/wasnorm_wordpool.txt	LTP135	ltpFR	2	14	-1	STREAM	1392	n/a	n/a	-1	1.0	1.0	1	upper	Verdana.ttf
2513487	WORD	wordpools/wasnorm_wordpool.txt	LTP135	ltpFR	2	14	-1	SHED	1277	n/a	n/a	-1	1.0	1.0	1	upper	Verdana.ttf
2517586	WORD	wordpools/wasnorm_wordpool.txt	LTP135	ltpFR	2	14	-1	CHEST	295	n/a	n/a	-1	1.0	1.0	1	upper	Verdana.ttf
2521701	WORD	wordpools/wasnorm_wordpool.txt	LTP135	ltpFR	2	14	-1	ENGINE	535	n/a	n/a	-1	1.0	1.0	1	upper	Verdana.ttf
2525583	WORD	wordpools/wasnorm_wordpool.txt	LTP135	ltpFR	2	14	-1	CARAVAN	242	n/a	n/a	-1	1.0	1.0	1	upper	Verdana.ttf
2529398	WORD	wordpools/wasnorm_wordpool.txt	LTP135	ltpFR	2	14	-1	COOLER	375	n/a	n/a	-1	1.0	1.0	1	upper	Verdana.ttf
2533380	WORD	wordpools/wasnorm_wordpool.txt	LTP135	ltpFR	2	14	-1	TOTE	1487	n/a	n/a	-1	1.0	1.0	1	upper	Verdana.ttf
2539095	REC_START	n/a	LTP135	ltpFR	2	14	n/a	n/a	n/a	n/a	n/a	n/a	n/a	n/a	n/a	n/a	n/a
2540946	REC_WORD	wordpools/wasnorm_wordpool.txt	LTP135	ltpFR	2	14	-1	TOTE	1487	n/a	n/a	-1	n/a	n/a	n/a	n/a	n/a
2542123	REC_WORD	wordpools/wasnorm_wordpool.txt	LTP135	ltpFR	2	14	-1	COOLER	375	n/a	n/a	-1	n/a	n/a	n/a	n/a	n/a
2543300	REC_WORD	wordpools/wasnorm_wordpool.txt	LTP135	ltpFR	2	14	-1	FREEZER	604	n/a	n/a	-1	n/a	n/a	n/a	n/a	n/a
2545001	REC_WORD	wordpools/wasnorm_wordpool.txt	LTP135	ltpFR	2	14	-1	CARAVAN	242	n/a	n/a	-1	n/a	n/a	n/a	n/a	n/a
2547715	REC_WORD	wordpools/wasnorm_wordpool.txt	LTP135	ltpFR	2	14	-1	BEER	114	n/a	n/a	-1	n/a	n/a	n/a	n/a	n/a
2549641	REC_WORD	wordpools/wasnorm_wordpool.txt	LTP135	ltpFR	2	14	-1	MUSTARD	935	n/a	n/a	-1	n/a	n/a	n/a	n/a	n/a
2551327	REC_WORD	wordpools/wasnorm_wordpool.txt	LTP135	ltpFR	2	14	-1	CATTLE	261	n/a	n/a	-1	n/a	n/a	n/a	n/a	n/a
2553926	REC_WORD	wordpools/wasnorm_wordpool.txt	LTP135	ltpFR	2	14	-1	DOLL	481	n/a	n/a	-1	n/a	n/a	n/a	n/a	n/a
2555567	REC_WORD	wordpools/wasnorm_wordpool.txt	LTP135	ltpFR	2	14	-1	KETTLE	772	n/a	n/a	-1	n/a	n/a	n/a	n/a	n/a
2574804	REC_WORD	wordpools/wasnorm_wordpool.txt	LTP135	ltpFR	2	14	-1	SCREW	1254	n/a	n/a	-1	n/a	n/a	n/a	n/a	n/a
2587320	REC_WORD	wordpools/wasnorm_wordpool.txt	LTP135	ltpFR	2	14	-1	TRUCK	1512	n/a	n/a	-1	n/a	n/a	n/a	n/a	n/a
2630729	WORD	wordpools/wasnorm_wordpool.txt	LTP135	ltpFR	2	15	1	RODENT	1204	n/a	n/a	1	0.422607421875	0.5869140625	0	upper	amplitud.ttf
2634611	WORD	wordpools/wasnorm_wordpool.txt	LTP135	ltpFR	2	15	1	TEACHER	1440	n/a	n/a	1	0.422607421875	0.5869140625	0	upper	amplitud.ttf
2638526	WORD	wordpools/wasnorm_wordpool.txt	LTP135	ltpFR	2	15	0	TIMBER	1469	n/a	n/a	1	0.57763671875	0.412841796875	1	lower	zerothre.ttf
2642625	WORD	wordpools/wasnorm_wordpool.txt	LTP135	ltpFR	2	15	0	CONTRACTOR	369	n/a	n/a	1	0.57763671875	0.412841796875	1	lower	zerothre.ttf
2646772	WORD	wordpools/wasnorm_wordpool.txt	LTP135	ltpFR	2	15	1	ATHLETE	52	n/a	n/a	1	0.422607421875	0.5869140625	0	upper	amplitud.ttf
2650638	WORD	wordpools/wasnorm_wordpool.txt	LTP135	ltpFR	2	15	1	PHILOSOPHER	1054	n/a	n/a	1	0.422607421875	0.5869140625	0	upper	amplitud.ttf
2654670	WORD	wordpools/wasnorm_wordpool.txt	LTP135	ltpFR	2	15	0	SEED	1266	n/a	n/a	0	0.57763671875	0.412841796875	1	lower	zerothre.ttf
2658561	WORD	wordpools/wasnorm_wordpool.txt	LTP135	ltpFR	2	15	0	LIME	823	n/a	n/a	0	0.57763671875	0.412841796875	1	lower	zerothre.ttf
2662409	WORD	wordpools/wasnorm_wordpool.txt	LTP135	ltpFR	2	15	0	TROMBONE	1508	n/a	n/a	1	0.57763671875	0.412841796875	1	lower	zerothre.ttf
2666283	WORD	wordpools/wasnorm_wordpool.txt	LTP135	ltpFR	2	15	0	VIOLIN	1571	n/a	n/a	1	0.57763671875	0.412841796875	1	lower	zerothre.ttf
2670215	WORD	wordpools/wasnorm_wordpool.txt	LTP135	ltpFR	2	15	0	LUMBER	848	n/a	n/a	1	0.57763671875	0.412841796875	1	lower	zerothre.ttf
2674047	WORD	wordpools/wasnorm_wordpool.txt	LTP135	ltpFR	2	15	0	CHAIR	274	n/a	n/a	1	0.57763671875	0.412841796875	1	lower	zerothre.ttf
2678229	WORD	wordpools/wasnorm_wordpool.txt	LTP135	ltpFR	2	15	1	BASKET	95	n/a	n/a	1	0.422607421875	0.5869140625	0	upper	amplitud.ttf
2682310	WORD	wordpools/wasnorm_wordpool.txt	LTP135	ltpFR	2	15	1	HEDGE	699	n/a	n/a	0	0.422607421875	0.5869140625	0	upper	amplitud.ttf
2686201	WORD	wordpools/wasnorm_wordpool.txt	LTP135	ltpFR	2	15	1	HOSE	720	n/a	n/a	0	0.422607421875	0.5869140625	0	upper	amplitud.ttf
2690124	WORD	wordpools/wasnorm_wordpool.txt	LTP135	ltpFR	2	15	1	VELVET	1555	n/a	n/a	0	0.422607421875	0.5869140625	0	upper	amplitud.ttf
2696065	REC_START	n/a	LTP135	ltpFR	2	15	n/a	n/a	n/a	n/a	n/a	n/a	n/a	n/a	n/a	n/a	n/a
2696609	REC_WORD	wordpools/wasnorm_wordpool.txt	LTP135	ltpFR	2	15	1	VELVET	1555	n/a	n/a	0	n/a	n/a	n/a	n/a	n/a
2697412	REC_WORD	wordpools/wasnorm_wordpool.txt	LTP135	ltpFR	2	15	1	HOSE	720	n/a	n/a	0	n/a	n/a	n/a	n/a	n/a
2698759	REC_WORD	wordpools/wasnorm_wordpool.txt	LTP135	ltpFR	2	15	0	TIMBER	1469	n/a	n/a	1	n/a	n/a	n/a	n/a	n/a
2700061	REC_WORD	wordpools/wasnorm_wordpool.txt	LTP135	ltpFR	2	15	0	LUMBER	848	n/a	n/a	1	n/a	n/a	n/a	n/a	n/a
2701278	REC_WORD	wordpools/wasnorm_wordpool.txt	LTP135	ltpFR	2	15	0	SEED	1266	n/a	n/a	0	n/a	n/a	n/a	n/a	n/a
2702765	REC_WORD	wordpools/wasnorm_wordpool.txt	LTP135	ltpFR	2	15	0	LIME	823	n/a	n/a	0	n/a	n/a	n/a	n/a	n/a
2705119	REC_WORD	wordpools/wasnorm_wordpool.txt	LTP135	ltpFR	2	15	0	CONTRACTOR	369	n/a	n/a	1	n/a	n/a	n/a	n/a	n/a
2712009	REC_WORD	wordpools/wasnorm_wordpool.txt	LTP135	ltpFR	2	15	0	VIOLIN	1571	n/a	n/a	1	n/a	n/a	n/a	n/a	n/a
2714199	REC_WORD	wordpools/wasnorm_wordpool.txt	LTP135	ltpFR	2	15	n/a	TRUMPET	1513	n/a	n/a	n/a	n/a	n/a	n/a	n/a	n/a
2723338	REC_WORD	wordpools/wasnorm_wordpool.txt	LTP135	ltpFR	2	15	1	BASKET	95	n/a	n/a	1	n/a	n/a	n/a	n/a	n/a
2795170	WORD	wordpools/wasnorm_wordpool.txt	LTP135	ltpFR	2	16	1	DUMP	505	n/a	n/a	0	0.422607421875	0.5869140625	0	upper	amplitud.ttf
2799177	WORD	wordpools/wasnorm_wordpool.txt	LTP135	ltpFR	2	16	1	GRASSHOPPER	656	n/a	n/a	1	0.422607421875	0.5869140625	0	upper	amplitud.ttf
2803267	WORD	wordpools/wasnorm_wordpool.txt	LTP135	ltpFR	2	16	1	BASKETBALL	96	n/a	n/a	0	0.422607421875	0.5869140625	0	upper	amplitud.ttf
2807158	WORD	wordpools/wasnorm_wordpool.txt	LTP135	ltpFR	2	16	1	DICE	461	n/a	n/a	0	0.422607421875	0.5869140625	0	upper	amplitud.ttf
2811140	WORD	wordpools/wasnorm_wordpool.txt	LTP135	ltpFR	2	16	1	NUCLEUS	961	n/a	n/a	0	0.422607421875	0.5869140625	0	upper	amplitud.ttf
2814980	WORD	wordpools/wasnorm_wordpool.txt	LTP135	ltpFR	2	16	1	CRIB	407	n/a	n/a	0	0.422607421875	0.5869140625	0	upper	amplitud.ttf
2819170	WORD	wordpools/wasnorm_wordpool.txt	LTP135	ltpFR	2	16	1	NURSERY	964	n/a	n/a	0	0.422607421875	0.5869140625	0	upper	amplitud.ttf
2823294	WORD	wordpools/wasnorm_wordpool.txt	LTP135	ltpFR	2	16	1	CAN	225	n/a	n/a	0	0.422607421875	0.5869140625	0	upper	amplitud.ttf
2827492	WORD	wordpools/wasnorm_wordpool.txt	LTP135	ltpFR	2	16	1	BATH	98	n/a	n/a	0	0.422607421875	0.5869140625	0	upper	amplitud.ttf
2831682	WORD	wordpools/wasnorm_wordpool.txt	LTP135	ltpFR	2	16	1	CARDINAL	244	n/a	n/a	1	0.422607421875	0.5869140625	0	upper	amplitud.ttf
2835614	WORD	wordpools/wasnorm_wordpool.txt	LTP135	ltpFR	2	16	1	CHIPMUNK	304	n/a	n/a	1	0.422607421875	0.5869140625	0	upper	amplitud.ttf
2839521	WORD	wordpools/wasnorm_wordpool.txt	LTP135	ltpFR	2	16	1	HERB	704	n/a	n/a	0	0.422607421875	0.5869140625	0	upper	amplitud.ttf
2843578	WORD	wordpools/wasnorm_wordpool.txt	LTP135	ltpFR	2	16	1	NEUTRON	947	n/a	n/a	0	0.422607421875	0.5869140625	0	upper	amplitud.ttf
2847784	WORD	wordpools/wasnorm_wordpool.txt	LTP135	ltpFR	2	16	1	AMBULANCE	19	n/a	n/a	1	0.422607421875	0.5869140625	0	upper	amplitud.ttf
2851709	WORD	wordpools/wasnorm_wordpool.txt	LTP135	ltpFR	2	16	1	GUARD	667	n/a	n/a	1	0.422607421875	0.5869140625	0	upper	amplitud.ttf
2855839	WORD	wordpools/wasnorm_wordpool.txt	LTP135	ltpFR	2	16	1	SKI	1316	n/a	n/a	0	0.422607421875	0.5869140625	0	upper	amplitud.ttf
2861581	REC_START	n/a	LTP135	ltpFR	2	16	n/a	n/a	n/a	n/a	n/a	n/a	n/a	n/a	n/a	n/a	n/a
2862458	REC_WORD	wordpools/wasnorm_wordpool.txt	LTP135	ltpFR	2	16	1	SKI	1316	n/a	n/a	0	n/a	n/a	n/a	n/a	n/a
2863851	REC_WORD	wordpools/wasnorm_wordpool.txt	LTP135	ltpFR	2	16	1	GUARD	667	n/a	n/a	1	n/a	n/a	n/a	n/a	n/a
2865252	REC_WORD	wordpools/wasnorm_wordpool.txt	LTP135	ltpFR	2	16	1	AMBULANCE	19	n/a	n/a	1	n/a	n/a	n/a	n/a	n/a
2867078	REC_WORD	wordpools/wasnorm_wordpool.txt	LTP135	ltpFR	2	16	1	GRASSHOPPER	656	n/a	n/a	1	n/a	n/a	n/a	n/a	n/a
2868375	REC_WORD	wordpools/wasnorm_wordpool.txt	LTP135	ltpFR	2	16	1	BASKETBALL	96	n/a	n/a	0	n/a	n/a	n/a	n/a	n/a
2877315	REC_WORD	wordpools/wasnorm_wordpool.txt	LTP135	ltpFR	2	16	1	NUCLEUS	961	n/a	n/a	0	n/a	n/a	n/a	n/a	n/a
2878737	REC_WORD	wordpools/wasnorm_wordpool.txt	LTP135	ltpFR	2	16	1	NEUTRON	947	n/a	n/a	0	n/a	n/a	n/a	n/a	n/a
2936206	REC_WORD_VV	wordpools/wasnorm_wordpool.txt	LTP135	ltpFR	2	16	n/a	<>	-1	n/a	n/a	n/a	n/a	n/a	n/a	n/a	n/a
2967135	REC_START	n/a	LTP135	ltpFR	2	1	n/a	n/a	n/a	n/a	n/a	n/a	n/a	n/a	n/a	n/a	n/a
2967168	RECOG_LURE	n/a	LTP135	ltpFR	2	1	n/a	CREEK	404	1	5	n/a	n/a	n/a	n/a	n/a	n/a
2968844	RECOG_RESP	n/a	LTP135	ltpFR	2	1	n/a	CREEK	404	1	n/a	n/a	n/a	n/a	n/a	n/a	n/a
2971649	RECOG_CONF	n/a	LTP135	ltpFR	2	1	n/a	CREEK	404	n/a	5	n/a	n/a	n/a	n/a	n/a	n/a
2973806	RECOG_TARGET	n/a	LTP135	ltpFR	2	1	1	MOUTH	926	1	5	0	n/a	n/a	n/a	n/a	n/a
2974953	RECOG_RESP	n/a	LTP135	ltpFR	2	1	1	MOUTH	926	1	n/a	0	n/a	n/a	n/a	n/a	n/a
2975915	RECOG_CONF	n/a	LTP135	ltpFR	2	1	1	MOUTH	926	n/a	5	0	n/a	n/a	n/a	n/a	n/a
2977456	RECOG_TARGET	n/a	LTP135	ltpFR	2	1	-1	GULL	671	0	1	-1	n/a	n/a	n/a	n/a	n/a
2979986	RECOG_RESP	n/a	LTP135	ltpFR	2	1	-1	GULL	671	0	n/a	-1	n/a	n/a	n/a	n/a	n/a
2980906	RECOG_CONF	n/a	LTP135	ltpFR	2	1	-1	GULL	671	n/a	1	-1	n/a	n/a	n/a	n/a	n/a
2982370	RECOG_TARGET	n/a	LTP135	ltpFR	2	1	-1	CENT	270	1	2	-1	n/a	n/a	n/a	n/a	n/a
2984399	RECOG_RESP	n/a	LTP135	ltpFR	2	1	-1	CENT	270	1	n/a	-1	n/a	n/a	n/a	n/a	n/a
2985471	RECOG_CONF	n/a	LTP135	ltpFR	2	1	-1	CENT	270	n/a	2	-1	n/a	n/a	n/a	n/a	n/a
2987035	RECOG_LURE	n/a	LTP135	ltpFR	2	1	n/a	LOFT	840	0	3	n/a	n/a	n/a	n/a	n/a	n/a
2988410	RECOG_RESP	n/a	LTP135	ltpFR	2	1	n/a	LOFT	840	0	n/a	n/a	n/a	n/a	n/a	n/a	n/a
2989289	RECOG_CONF	n/a	LTP135	ltpFR	2	1	n/a	LOFT	840	n/a	3	n/a	n/a	n/a	n/a	n/a	n/a
2990833	RECOG_LURE	n/a	LTP135	ltpFR	2	1	n/a	MAYONNAISE	880	0	5	n/a	n/a	n/a	n/a	n/a	n/a
2992260	RECOG_RESP	n/a	LTP135	ltpFR	2	1	n/a	MAYONNAISE	880	0	n/a	n/a	n/a	n/a	n/a	n/a	n/a
2993021	RECOG_CONF	n/a	LTP135	ltpFR	2	1	n/a	MAYONNAISE	880	n/a	5	n/a	n/a	n/a	n/a	n/a	n/a
2994524	RECOG_TARGET	n/a	LTP135	ltpFR	2	1	-1	DOLL	481	1	5	-1	n/a	n/a	n/a	n/a	n/a
2995387	RECOG_RESP	n/a	LTP135	ltpFR	2	1	-1	DOLL	481	1	n/a	-1	n/a	n/a	n/a	n/a	n/a
2996094	RECOG_CONF	n/a	LTP135	ltpFR	2	1	-1	DOLL	481	n/a	5	-1	n/a	n/a	n/a	n/a	n/a
2997590	RECOG_TARGET	n/a	LTP135	ltpFR	2	1	0	CHAIR	274	1	5	1	n/a	n/a	n/a	n/a	n/a
2998585	RECOG_RESP	n/a	LTP135	ltpFR	2	1	0	CHAIR	274	1	n/a	1	n/a	n/a	n/a	n/a	n/a
2999187	RECOG_CONF	n/a	LTP135	ltpFR	2	1	0	CHAIR	274	n/a	5	1	n/a	n/a	n/a	n/a	n/a
3000780	RECOG_TARGET	n/a	LTP135	ltpFR	2	1	0	TRICYCLE	1506	1	5	1	n/a	n/a	n/a	n/a	n/a
3001641	RECOG_RESP	n/a	LTP135	ltpFR	2	1	0	TRICYCLE	1506	1	n/a	1	n/a	n/a	n/a	n/a	n/a
3002369	RECOG_CONF	n/a	LTP135	ltpFR	2	1	0	TRICYCLE	1506	n/a	5	1	n/a	n/a	n/a	n/a	n/a
3003845	RECOG_TARGET	n/a	LTP135	ltpFR	2	1	1	ATOM	55	1	5	0	n/a	n/a	n/a	n/a	n/a
3005301	RECOG_RESP	n/a	LTP135	ltpFR	2	1	1	ATOM	55	1	n/a	0	n/a	n/a	n/a	n/a	n/a
3006141	RECOG_CONF	n/a	LTP135	ltpFR	2	1	1	ATOM	55	n/a	5	0	n/a	n/a	n/a	n/a	n/a
3007769	RECOG_TARGET	n/a	LTP135	ltpFR	2	1	0	MERMAID	887	1	5	1	n/a	n/a	n/a	n/a	n/a
3008576	RECOG_RESP	n/a	LTP135	ltpFR	2	1	0	MERMAID	887	1	n/a	1	n/a	n/a	n/a	n/a	n/a
3009463	RECOG_CONF	n/a	LTP135	ltpFR	2	1	0	MERMAID	887	n/a	5	1	n/a	n/a	n/a	n/a	n/a
3011010	RECOG_TARGET	n/a	LTP135	ltpFR	2	1	1	NURSERY	964	1	5	0	n/a	n/a	n/a	n/a	n/a
3011789	RECOG_RESP	n/a	LTP135	ltpFR	2	1	1	NURSERY	964	1	n/a	0	n/a	n/a	n/a	n/a	n/a
3012516	RECOG_CONF	n/a	LTP135	ltpFR	2	1	1	NURSERY	964	n/a	5	0	n/a	n/a	n/a	n/a	n/a
3014084	RECOG_TARGET	n/a	LTP135	ltpFR	2	1	0	MAILBOX	857	1	1	1	n/a	n/a	n/a	n/a	n/a
3017179	RECOG_RESP	n/a	LTP135	ltpFR	2	1	0	MAILBOX	857	1	n/a	1	n/a	n/a	n/a	n/a	n/a
3018367	RECOG_CONF	n/a	LTP135	ltpFR	2	1	0	MAILBOX	857	n/a	1	1	n/a	n/a	n/a	n/a	n/a
3019856	RECOG_LURE	n/a	LTP135	ltpFR	2	1	n/a	TELEPHONE	1445	0	5	n/a	n/a	n/a	n/a	n/a	n/a
3020779	RECOG_RESP	n/a	LTP135	ltpFR	2	1	n/a	TELEPHONE	1445	0	n/a	n/a	n/a	n/a	n/a	n/a	n/a
3021516	RECOG_CONF	n/a	LTP135	ltpFR	2	1	n/a	TELEPHONE	1445	n/a	5	n/a	n/a	n/a	n/a	n/a	n/a
3023073	RECOG_TARGET	n/a	LTP135	ltpFR	2	1	0	BRIEFCASE	175	1	5	1	n/a	n/a	n/a	n/a	n/a
3024077	RECOG_RESP	n/a	LTP135	ltpFR	2	1	0	BRIEFCASE	175	1	n/a	1	n/a	n/a	n/a	n/a	n/a
3025267	RECOG_CONF	n/a	LTP135	ltpFR	2	1	0	BRIEFCASE	175	n/a	5	1	n/a	n/a	n/a	n/a	n/a
3026770	RECOG_TARGET	n/a	LTP135	ltpFR	2	1	1	CORN	381	0	1	1	n/a	n/a	n/a	n/a	n/a
3029589	RECOG_RESP	n/a	LTP135	ltpFR	2	1	1	CORN	381	0	n/a	1	n/a	n/a	n/a	n/a	n/a
3030671	RECOG_CONF	n/a	LTP135	ltpFR	2	1	1	CORN	381	n/a	1	1	n/a	n/a	n/a	n/a	n/a
3032228	RECOG_TARGET	n/a	LTP135	ltpFR	2	1	0	TRAY	1498	1	2	1	n/a	n/a	n/a	n/a	n/a
3034170	RECOG_RESP	n/a	LTP135	ltpFR	2	1	0	TRAY	1498	1	n/a	1	n/a	n/a	n/a	n/a	n/a
3035280	RECOG_CONF	n/a	LTP135	ltpFR	2	1	0	TRAY	1498	n/a	2	1	n/a	n/a	n/a	n/a	n/a
3036751	RECOG_TARGET	n/a	LTP135	ltpFR	2	1	1	FAN	551	1	5	0	n/a	n/a	n/a	n/a	n/a
3037877	RECOG_RESP	n/a	LTP135	ltpFR	2	1	1	FAN	551	1	n/a	0	n/a	n/a	n/a	n/a	n/a
3038637	RECOG_CONF	n/a	LTP135	ltpFR	2	1	1	FAN	551	n/a	5	0	n/a	n/a	n/a	n/a	n/a
3040050	RECOG_LURE	n/a	LTP135	ltpFR	2	1	n/a	PEDESTRIAN	1038	0	4	n/a	n/a	n/a	n/a	n/a	n/a
3041407	RECOG_RESP	n/a	LTP135	ltpFR	2	1	n/a	PEDESTRIAN	1038	0	n/a	n/a	n/a	n/a	n/a	n/a	n/a
3042239	RECOG_CONF	n/a	LTP135	ltpFR	2	1	n/a	PEDESTRIAN	1038	n/a	4	n/a	n/a	n/a	n/a	n/a	n/a
3043749	RECOG_LURE	n/a	LTP135	ltpFR	2	1	n/a	MAMMAL	861	0	1	n/a	n/a	n/a	n/a	n/a	n/a
3046275	RECOG_RESP	n/a	LTP135	ltpFR	2	1	n/a	MAMMAL	861	0	n/a	n/a	n/a	n/a	n/a	n/a	n/a
3047467	RECOG_CONF	n/a	LTP135	ltpFR	2	1	n/a	MAMMAL	861	n/a	1	n/a	n/a	n/a	n/a	n/a	n/a
3055518	REC_START	n/a	LTP135	ltpFR	2	2	n/a	n/a	n/a	n/a	n/a	n/a	n/a	n/a	n/a	n/a	n/a
3055553	RECOG_TARGET	n/a	LTP135	ltpFR	2	2	-1	TRUCK	1512	1	5	-1	n/a	n/a	n/a	n/a	n/a
3056794	RECOG_RESP	n/a	LTP135	ltpFR	2	2	-1	TRUCK	1512	1	n/a	-1	n/a	n/a	n/a	n/a	n/a
3057777	RECOG_CONF	n/a	LTP135	ltpFR	2	2	-1	TRUCK	1512	n/a	5	-1	n/a	n/a	n/a	n/a	n/a
3059251	RECOG_LURE	n/a	LTP135	ltpFR	2	2	n/a	PICNIC	1060	1	2	n/a	n/a	n/a	n/a	n/a	n/a
3060242	RECOG_RESP	n/a	LTP135	ltpFR	2	2	n/a	PICNIC	1060	1	n/a	n/a	n/a	n/a	n/a	n/a	n/a
3061456	RECOG_CONF	n/a	LTP135	ltpFR	2	2	n/a	PICNIC	1060	n/a	2	n/a	n/a	n/a	n/a	n/a	n/a
3062933	RECOG_TARGET	n/a	LTP135	ltpFR	2	2	0	LAGOON	795	1	5	1	n/a	n/a	n/a	n/a	n/a
3063926	RECOG_RESP	n/a	LTP135	ltpFR	2	2	0	LAGOON	795	1	n/a	1	n/a	n/a	n/a	n/a	n/a
3064831	RECOG_CONF	n/a	LTP135	ltpFR	2	2	0	LAGOON	795	n/a	5	1	n/a	n/a	n/a	n/a	n/a
3066432	RECOG_TARGET	n/a	LTP135	ltpFR	2	2	1	TRIANGLE	1504	1	5	0	n/a	n/a	n/a	n/a	n/a
3067223	RECOG_RESP	n/a	LTP135	ltpFR	2	2	1	TRIANGLE	1504	1	n/a	0	n/a	n/a	n/a	n/a	n/a
3067884	RECOG_CONF	n/a	LTP135	ltpFR	2	2	1	TRIANGLE	1504	n/a	5	0	n/a	n/a	n/a	n/a	n/a
3069406	RECOG_TARGET	n/a	LTP135	ltpFR	2	2	1	ORCHESTRA	981	1	5	0	n/a	n/a	n/a	n/a	n/a
3070244	RECOG_RESP	n/a	LTP135	ltpFR	2	2	1	ORCHESTRA	981	1	n/a	0	n/a	n/a	n/a	n/a	n/a
3070947	RECOG_CONF	n/a	LTP135	ltpFR	2	2	1	ORCHESTRA	981	n/a	5	0	n/a	n/a	n/a	n/a	n/a
3072480	RECOG_TARGET	n/a	LTP135	ltpFR	2	2	1	LENS	811	1	3	0	n/a	n/a	n/a	n/a	n/a
3075115	RECOG_RESP_VV	n/a	LTP135	ltpFR	2	2	1	LENS	811	0	n/a	0	n/a	n/a	n/a	n/a	n/a
3077902	RECOG_RESP	n/a	LTP135	ltpFR	2	2	1	LENS	811	1	n/a	0	n/a	n/a	n/a	n/a	n/a
3079341	RECOG_CONF	n/a	LTP135	ltpFR	2	2	1	LENS	811	n/a	3	0	n/a	n/a	n/a	n/a	n/a
3080935	RECOG_TARGET	n/a	LTP135	ltpFR	2	2	-1	PAWN	1030	1	2	-1	n/a	n/a	n/a	n/a	n/a
3082496	RECOG_RESP	n/a	LTP135	ltpFR	2	2	-1	PAWN	1030	1	n/a	-1	n/a	n/a	n/a	n/a	n/a
3083376	RECOG_CONF	n/a	LTP135	ltpFR	2	2	-1	PAWN	1030	n/a	2	-1	n/a	n/a	n/a	n/a	n/a
3084833	RECOG_TARGET	n/a	LTP135	ltpFR	2	2	1	KING	777	1	5	1	n/a	n/a	n/a	n/a	n/a
3085846	RECOG_RESP	n/a	LTP135	ltpFR	2	2	1	KING	777	1	n/a	1	n/a	n/a	n/a	n/a	n/a
3086562	RECOG_CONF	n/a	LTP135	ltpFR	2	2	1	KING	777	n/a	5	1	n/a	n/a	n/a	n/a	n/a
3087941	RECOG_TARGET	n/a	LTP135	ltpFR	2	2	1	TANGERINE	1431	1	5	0	n/a	n/a	n/a	n/a	n/a
3088673	RECOG_RESP	n/a	LTP135	ltpFR	2	2	1	TANGERINE	1431	1	n/a	0	n/a	n/a	n/a	n/a	n/a
3089316	RECOG_CONF	n/a	LTP135	ltpFR	2	2	1	TANGERINE	1431	n/a	5	0	n/a	n/a	n/a	n/a	n/a
3090898	RECOG_TARGET	n/a	LTP135	ltpFR	2	2	1	SIRLOIN	1311	0	1	0	n/a	n/a	n/a	n/a	n/a
3093840	RECOG_RESP	n/a	LTP135	ltpFR	2	2	1	SIRLOIN	1311	0	n/a	0	n/a	n/a	n/a	n/a	n/a
3094635	RECOG_CONF	n/a	LTP135	ltpFR	2	2	1	SIRLOIN	1311	n/a	1	0	n/a	n/a	n/a	n/a	n/a
3096105	RECOG_TARGET	n/a	LTP135	ltpFR	2	2	0	SERVER	1272	1	5	1	n/a	n/a	n/a	n/a	n/a
3096888	RECOG_RESP	n/a	LTP135	ltpFR	2	2	0	SERVER	1272	1	n/a	1	n/a	n/a	n/a	n/a	n/a
3097547	RECOG_CONF	n/a	LTP135	ltpFR	2	2	0	SERVER	1272	n/a	5	1	n/a	n/a	n/a	n/a	n/a
3098921	RECOG_TARGET	n/a	LTP135	ltpFR	2	2	0	WASHCLOTH	1591	1	3	0	n/a	n/a	n/a	n/a	n/a
3100924	RECOG_RESP	n/a	LTP135	ltpFR	2	2	0	WASHCLOTH	1591	1	n/a	0	n/a	n/a	n/a	n/a	n/a
3101713	RECOG_CONF	n/a	LTP135	ltpFR	2	2	0	WASHCLOTH	1591	n/a	3	0	n/a	n/a	n/a	n/a	n/a
3103069	RECOG_TARGET	n/a	LTP135	ltpFR	2	2	0	PATIENT	1024	1	2	1	n/a	n/a	n/a	n/a	n/a
3105550	RECOG_RESP	n/a	LTP135	ltpFR	2	2	0	PATIENT	1024	1	n/a	1	n/a	n/a	n/a	n/a	n/a
3106676	RECOG_CONF	n/a	LTP135	ltpFR	2	2	0	PATIENT	1024	n/a	2	1	n/a	n/a	n/a	n/a	n/a
3108134	RECOG_TARGET	n/a	LTP135	ltpFR	2	2	-1	SHED	1277	1	5	-1	n/a	n/a	n/a	n/a	n/a
3109256	RECOG_RESP	n/a	LTP135	ltpFR	2	2	-1	SHED	1277	1	n/a	-1	n/a	n/a	n/a	n/a	n/a
3109879	RECOG_CONF	n/a	LTP135	ltpFR	2	2	-1	SHED	1277	n/a	5	-1	n/a	n/a	n/a	n/a	n/a
3111375	RECOG_TARGET	n/a	LTP135	ltpFR	2	2	1	BASKETBALL	96	1	5	0	n/a	n/a	n/a	n/a	n/a
3112084	RECOG_RESP	n/a	LTP135	ltpFR	2	2	1	BASKETBALL	96	1	n/a	0	n/a	n/a	n/a	n/a	n/a
3112586	RECOG_CONF	n/a	LTP135	ltpFR	2	2	1	BASKETBALL	96	n/a	5	0	n/a	n/a	n/a	n/a	n/a
3114032	RECOG_TARGET	n/a	LTP135	ltpFR	2	2	0	MOTORCYCLE	923	1	5	1	n/a	n/a	n/a	n/a	n/a
3114691	RECOG_RESP	n/a	LTP135	ltpFR	2	2	0	MOTORCYCLE	923	1	n/a	1	n/a	n/a	n/a	n/a	n/a
3115247	RECOG_CONF	n/a	LTP135	ltpFR	2	2	0	MOTORCYCLE	923	n/a	5	1	n/a	n/a	n/a	n/a	n/a
3116681	RECOG_TARGET	n/a	LTP135	ltpFR	2	2	1	DUMP	505	1	5	0	n/a	n/a	n/a	n/a	n/a
3117479	RECOG_RESP	n/a	LTP135	ltpFR	2	2	1	DUMP	505	1	n/a	0	n/a	n/a	n/a	n/a	n/a
3118040	RECOG_CONF	n/a	LTP135	ltpFR	2	2	1	DUMP	505	n/a	5	0	n/a	n/a	n/a	n/a	n/a
3119372	RECOG_TARGET	n/a	LTP135	ltpFR	2	2	1	FEAST	556	1	2	0	n/a	n/a	n/a	n/a	n/a
3122087	RECOG_RESP	n/a	LTP135	ltpFR	2	2	1	FEAST	556	1	n/a	0	n/a	n/a	n/a	n/a	n/a
3122958	RECOG_CONF	n/a	LTP135	ltpFR	2	2	1	FEAST	556	n/a	2	0	n/a	n/a	n/a	n/a	n/a
3124328	RECOG_TARGET	n/a	LTP135	ltpFR	2	2	-1	TABLE	1426	1	1	-1	n/a	n/a	n/a	n/a	n/a
3127595	RECOG_RESP	n/a	LTP135	ltpFR	2	2	-1	TABLE	1426	1	n/a	-1	n/a	n/a	n/a	n/a	n/a
3128327	RECOG_CONF	n/a	LTP135	ltpFR	2	2	-1	TABLE	1426	n/a	1	-1	n/a	n/a	n/a	n/a	n/a
3129817	RECOG_TARGET	n/a	LTP135	ltpFR	2	2	-1	PIRATE	1074	0	5	-1	n/a	n/a	n/a	n/a	n/a
3131247	RECOG_RESP	n/a	LTP135	ltpFR	2	2	-1	PIRATE	1074	0	n/a	-1	n/a	n/a	n/a	n/a	n/a
3132495	RECOG_CONF	n/a	LTP135	ltpFR	2	2	-1	PIRATE	1074	n/a	5	-1	n/a	n/a	n/a	n/a	n/a
3140717	REC_START	n/a	LTP135	ltpFR	2	3	n/a	n/a	n/a	n/a	n/a	n/a	n/a	n/a	n/a	n/a	n/a
3140756	RECOG_LURE	n/a	LTP135	ltpFR	2	3	n/a	GRASS	655	1	5	n/a	n/a	n/a	n/a	n/a	n/a
3141891	RECOG_RESP	n/a	LTP135	ltpFR	2	3	n/a	GRASS	655	1	n/a	n/a	n/a	n/a	n/a	n/a	n/a
3142477	RECOG_CONF	n/a	LTP135	ltpFR	2	3	n/a	GRASS	655	n/a	5	n/a	n/a	n/a	n/a	n/a	n/a
3144005	RECOG_TARGET	n/a	LTP135	ltpFR	2	3	0	SANDWICH	1232	1	5	0	n/a	n/a	n/a	n/a	n/a
3145027	RECOG_RESP	n/a	LTP135	ltpFR	2	3	0	SANDWICH	1232	1	n/a	0	n/a	n/a	n/a	n/a	n/a
3145780	RECOG_CONF	n/a	LTP135	ltpFR	2	3	0	SANDWICH	1232	n/a	5	0	n/a	n/a	n/a	n/a	n/a
3147179	RECOG_TARGET	n/a	LTP135	ltpFR	2	3	0	TERMINAL	1450	1	5	1	n/a	n/a	n/a	n/a	n/a
3148076	RECOG_RESP	n/a	LTP135	ltpFR	2	3	0	TERMINAL	1450	1	n/a	1	n/a	n/a	n/a	n/a	n/a
3148654	RECOG_CONF	n/a	LTP135	ltpFR	2	3	0	TERMINAL	1450	n/a	5	1	n/a	n/a	n/a	n/a	n/a
3150128	RECOG_TARGET	n/a	LTP135	ltpFR	2	3	-1	FUNGUS	614	1	5	-1	n/a	n/a	n/a	n/a	n/a
3150895	RECOG_RESP	n/a	LTP135	ltpFR	2	3	-1	FUNGUS	614	1	n/a	-1	n/a	n/a	n/a	n/a	n/a
3151497	RECOG_CONF	n/a	LTP135	ltpFR	2	3	-1	FUNGUS	614	n/a	5	-1	n/a	n/a	n/a	n/a	n/a
3152943	RECOG_TARGET	n/a	LTP135	ltpFR	2	3	-1	MUSTARD	935	1	5	-1	n/a	n/a	n/a	n/a	n/a
3153764	RECOG_RESP	n/a	LTP135	ltpFR	2	3	-1	MUSTARD	935	1	n/a	-1	n/a	n/a	n/a	n/a	n/a
3154381	RECOG_CONF	n/a	LTP135	ltpFR	2	3	-1	MUSTARD	935	n/a	5	-1	n/a	n/a	n/a	n/a	n/a
3155742	RECOG_TARGET	n/a	LTP135	ltpFR	2	3	1	PHOTO	1055	1	5	0	n/a	n/a	n/a	n/a	n/a
3156637	RECOG_RESP	n/a	LTP135	ltpFR	2	3	1	PHOTO	1055	1	n/a	0	n/a	n/a	n/a	n/a	n/a
3157214	RECOG_CONF	n/a	LTP135	ltpFR	2	3	1	PHOTO	1055	n/a	5	0	n/a	n/a	n/a	n/a	n/a
3158633	RECOG_TARGET	n/a	LTP135	ltpFR	2	3	-1	STOOL	1386	1	1	-1	n/a	n/a	n/a	n/a	n/a
3160560	RECOG_RESP	n/a	LTP135	ltpFR	2	3	-1	STOOL	1386	1	n/a	-1	n/a	n/a	n/a	n/a	n/a
3161481	RECOG_CONF	n/a	LTP135	ltpFR	2	3	-1	STOOL	1386	n/a	1	-1	n/a	n/a	n/a	n/a	n/a
3162889	RECOG_TARGET	n/a	LTP135	ltpFR	2	3	1	SLIDE	1326	0	2	0	n/a	n/a	n/a	n/a	n/a
3164495	RECOG_RESP	n/a	LTP135	ltpFR	2	3	1	SLIDE	1326	0	n/a	0	n/a	n/a	n/a	n/a	n/a
3165559	RECOG_CONF	n/a	LTP135	ltpFR	2	3	1	SLIDE	1326	n/a	2	0	n/a	n/a	n/a	n/a	n/a
3167013	RECOG_TARGET	n/a	LTP135	ltpFR	2	3	1	MILITARY	894	1	5	0	n/a	n/a	n/a	n/a	n/a
3167942	RECOG_RESP	n/a	LTP135	ltpFR	2	3	1	MILITARY	894	1	n/a	0	n/a	n/a	n/a	n/a	n/a
3168568	RECOG_CONF	n/a	LTP135	ltpFR	2	3	1	MILITARY	894	n/a	5	0	n/a	n/a	n/a	n/a	n/a
3170070	RECOG_TARGET	n/a	LTP135	ltpFR	2	3	1	SKI	1316	1	5	0	n/a	n/a	n/a	n/a	n/a
3170919	RECOG_RESP	n/a	LTP135	ltpFR	2	3	1	SKI	1316	1	n/a	0	n/a	n/a	n/a	n/a	n/a
3171487	RECOG_CONF	n/a	LTP135	ltpFR	2	3	1	SKI	1316	n/a	5	0	n/a	n/a	n/a	n/a	n/a
3172986	RECOG_LURE	n/a	LTP135	ltpFR	2	3	n/a	SIGNATURE	1306	0	5	n/a	n/a	n/a	n/a	n/a	n/a
3173946	RECOG_RESP	n/a	LTP135	ltpFR	2	3	n/a	SIGNATURE	1306	0	n/a	n/a	n/a	n/a	n/a	n/a	n/a
3174453	RECOG_CONF	n/a	LTP135	ltpFR	2	3	n/a	SIGNATURE	1306	n/a	5	n/a	n/a	n/a	n/a	n/a	n/a
3176027	RECOG_TARGET	n/a	LTP135	ltpFR	2	3	1	ROOMMATE	1207	1	5	0	n/a	n/a	n/a	n/a	n/a
3177006	RECOG_RESP	n/a	LTP135	ltpFR	2	3	1	ROOMMATE	1207	1	n/a	0	n/a	n/a	n/a	n/a	n/a
3177503	RECOG_CONF	n/a	LTP135	ltpFR	2	3	1	ROOMMATE	1207	n/a	5	0	n/a	n/a	n/a	n/a	n/a
3178959	RECOG_TARGET	n/a	LTP135	ltpFR	2	3	1	POISON	1096	1	5	0	n/a	n/a	n/a	n/a	n/a
3179849	RECOG_RESP	n/a	LTP135	ltpFR	2	3	1	POISON	1096	1	n/a	0	n/a	n/a	n/a	n/a	n/a
3180461	RECOG_CONF	n/a	LTP135	ltpFR	2	3	1	POISON	1096	n/a	5	0	n/a	n/a	n/a	n/a	n/a
3181983	RECOG_TARGET	n/a	LTP135	ltpFR	2	3	-1	CRAYON	401	1	4	-1	n/a	n/a	n/a	n/a	n/a
3182822	RECOG_RESP	n/a	LTP135	ltpFR	2	3	-1	CRAYON	401	1	n/a	-1	n/a	n/a	n/a	n/a	n/a
3183395	RECOG_CONF	n/a	LTP135	ltpFR	2	3	-1	CRAYON	401	n/a	4	-1	n/a	n/a	n/a	n/a	n/a
3184856	RECOG_LURE	n/a	LTP135	ltpFR	2	3	n/a	GROOM	665	0	1	n/a	n/a	n/a	n/a	n/a	n/a
3188854	RECOG_RESP	n/a	LTP135	ltpFR	2	3	n/a	GROOM	665	0	n/a	n/a	n/a	n/a	n/a	n/a	n/a
3189658	RECOG_CONF	n/a	LTP135	ltpFR	2	3	n/a	GROOM	665	n/a	1	n/a	n/a	n/a	n/a	n/a	n/a
3191163	RECOG_TARGET	n/a	LTP135	ltpFR	2	3	-1	PARENT	1013	1	5	-1	n/a	n/a	n/a	n/a	n/a
3192207	RECOG_RESP	n/a	LTP135	ltpFR	2	3	-1	PARENT	1013	1	n/a	-1	n/a	n/a	n/a	n/a	n/a
3192792	RECOG_CONF	n/a	LTP135	ltpFR	2	3	-1	PARENT	1013	n/a	5	-1	n/a	n/a	n/a	n/a	n/a
3194312	RECOG_TARGET	n/a	LTP135	ltpFR	2	3	0	BULL	193	1	5	1	n/a	n/a	n/a	n/a	n/a
3195220	RECOG_RESP	n/a	LTP135	ltpFR	2	3	0	BULL	193	1	n/a	1	n/a	n/a	n/a	n/a	n/a
3195821	RECOG_CONF	n/a	LTP135	ltpFR	2	3	0	BULL	193	n/a	5	1	n/a	n/a	n/a	n/a	n/a
3197286	RECOG_TARGET	n/a	LTP135	ltpFR	2	3	-1	TAR	1435	1	5	-1	n/a	n/a	n/a	n/a	n/a
3198241	RECOG_RESP	n/a	LTP135	ltpFR	2	3	-1	TAR	1435	1	n/a	-1	n/a	n/a	n/a	n/a	n/a
3198830	RECOG_CONF	n/a	LTP135	ltpFR	2	3	-1	TAR	1435	n/a	5	-1	n/a	n/a	n/a	n/a	n/a
3200268	RECOG_TARGET	n/a	LTP135	ltpFR	2	3	1	PARTNER	1017	1	5	1	n/a	n/a	n/a	n/a	n/a
3200901	RECOG_RESP	n/a	LTP135	ltpFR	2	3	1	PARTNER	1017	1	n/a	1	n/a	n/a	n/a	n/a	n/a
3201523	RECOG_CONF	n/a	LTP135	ltpFR	2	3	1	PARTNER	1017	n/a	5	1	n/a	n/a	n/a	n/a	n/a
3202925	RECOG_TARGET	n/a	LTP135	ltpFR	2	3	0	RECIPE	1175	1	5	0	n/a	n/a	n/a	n/a	n/a
3203764	RECOG_RESP	n/a	LTP135	ltpFR	2	3	0	RECIPE	1175	1	n/a	0	n/a	n/a	n/a	n/a	n/a
3204422	RECOG_CONF	n/a	LTP135	ltpFR	2	3	0	RECIPE	1175	n/a	5	0	n/a	n/a	n/a	n/a	n/a
3220570	REC_START	n/a	LTP135	ltpFR	2	4	n/a	n/a	n/a	n/a	n/a	n/a	n/a	n/a	n/a	n/a	n/a
3220602	RECOG_TARGET	n/a	LTP135	ltpFR	2	4	-1	KETTLE	772	1	5	-1	n/a	n/a	n/a	n/a	n/a
3221622	RECOG_RESP	n/a	LTP135	ltpFR	2	4	-1	KETTLE	772	1	n/a	-1	n/a	n/a	n/a	n/a	n/a
3222261	RECOG_CONF	n/a	LTP135	ltpFR	2	4	-1	KETTLE	772	n/a	5	-1	n/a	n/a	n/a	n/a	n/a
3223710	RECOG_TARGET	n/a	LTP135	ltpFR	2	4	1	WAITER	1580	1	5	1	n/a	n/a	n/a	n/a	n/a
3224559	RECOG_RESP	n/a	LTP135	ltpFR	2	4	1	WAITER	1580	1	n/a	1	n/a	n/a	n/a	n/a	n/a
3225174	RECOG_CONF	n/a	LTP135	ltpFR	2	4	1	WAITER	1580	n/a	5	1	n/a	n/a	n/a	n/a	n/a
3226475	RECOG_TARGET	n/a	LTP135	ltpFR	2	4	1	COLT	349	1	5	1	n/a	n/a	n/a	n/a	n/a
3227324	RECOG_RESP	n/a	LTP135	ltpFR	2	4	1	COLT	349	1	n/a	1	n/a	n/a	n/a	n/a	n/a
3227968	RECOG_CONF	n/a	LTP135	ltpFR	2	4	1	COLT	349	n/a	5	1	n/a	n/a	n/a	n/a	n/a
3229324	RECOG_TARGET	n/a	LTP135	ltpFR	2	4	0	POLICE	1098	1	5	1	n/a	n/a	n/a	n/a	n/a
3229983	RECOG_RESP	n/a	LTP135	ltpFR	2	4	0	POLICE	1098	1	n/a	1	n/a	n/a	n/a	n/a	n/a
3230547	RECOG_CONF	n/a	LTP135	ltpFR	2	4	0	POLICE	1098	n/a	5	1	n/a	n/a	n/a	n/a	n/a
3231932	RECOG_LURE	n/a	LTP135	ltpFR	2	4	n/a	CITRUS	313	0	5	n/a	n/a	n/a	n/a	n/a	n/a
3233030	RECOG_RESP	n/a	LTP135	ltpFR	2	4	n/a	CITRUS	313	0	n/a	n/a	n/a	n/a	n/a	n/a	n/a
3233615	RECOG_CONF	n/a	LTP135	ltpFR	2	4	n/a	CITRUS	313	n/a	5	n/a	n/a	n/a	n/a	n/a	n/a
3235072	RECOG_LURE	n/a	LTP135	ltpFR	2	4	n/a	FLASHLIGHT	575	0	3	n/a	n/a	n/a	n/a	n/a	n/a
3236359	RECOG_RESP	n/a	LTP135	ltpFR	2	4	n/a	FLASHLIGHT	575	0	n/a	n/a	n/a	n/a	n/a	n/a	n/a
3236977	RECOG_CONF	n/a	LTP135	ltpFR	2	4	n/a	FLASHLIGHT	575	n/a	3	n/a	n/a	n/a	n/a	n/a	n/a
3238413	RECOG_TARGET	n/a	LTP135	ltpFR	2	4	1	ELBOW	520	1	5	0	n/a	n/a	n/a	n/a	n/a
3239613	RECOG_RESP	n/a	LTP135	ltpFR	2	4	1	ELBOW	520	1	n/a	0	n/a	n/a	n/a	n/a	n/a
3240205	RECOG_CONF	n/a	LTP135	ltpFR	2	4	1	ELBOW	520	n/a	5	0	n/a	n/a	n/a	n/a	n/a
3241753	RECOG_LURE	n/a	LTP135	ltpFR	2	4	n/a	MARSH	874	0	1	n/a	n/a	n/a	n/a	n/a	n/a
3243559	RECOG_RESP	n/a	LTP135	ltpFR	2	4	n/a	MARSH	874	0	n/a	n/a	n/a	n/a	n/a	n/a	n/a
3244351	RECOG_CONF	n/a	LTP135	ltpFR	2	4	n/a	MARSH	874	n/a	1	n/a	n/a	n/a	n/a	n/a	n/a
3245759	RECOG_TARGET	n/a	LTP135	ltpFR	2	4	1	CROCODILE	411	0	1	1	n/a	n/a	n/a	n/a	n/a
3249276	RECOG_RESP	n/a	LTP135	ltpFR	2	4	1	CROCODILE	411	0	n/a	1	n/a	n/a	n/a	n/a	n/a
3250002	RECOG_CONF	n/a	LTP135	ltpFR	2	4	1	CROCODILE	411	n/a	1	1	n/a	n/a	n/a	n/a	n/a
3251466	RECOG_TARGET	n/a	LTP135	ltpFR	2	4	1	GOLD	647	1	5	0	n/a	n/a	n/a	n/a	n/a
3252348	RECOG_RESP	n/a	LTP135	ltpFR	2	4	1	GOLD	647	1	n/a	0	n/a	n/a	n/a	n/a	n/a
3252841	RECOG_CONF	n/a	LTP135	ltpFR	2	4	1	GOLD	647	n/a	5	0	n/a	n/a	n/a	n/a	n/a
3254224	RECOG_TARGET	n/a	LTP135	ltpFR	2	4	1	NUCLEUS	961	1	5	0	n/a	n/a	n/a	n/a	n/a
3255066	RECOG_RESP	n/a	LTP135	ltpFR	2	4	1	NUCLEUS	961	1	n/a	0	n/a	n/a	n/a	n/a	n/a
3255546	RECOG_CONF	n/a	LTP135	ltpFR	2	4	1	NUCLEUS	961	n/a	5	0	n/a	n/a	n/a	n/a	n/a
3257006	RECOG_TARGET	n/a	LTP135	ltpFR	2	4	1	BOMB	147	1	5	0	n/a	n/a	n/a	n/a	n/a
3257681	RECOG_RESP	n/a	LTP135	ltpFR	2	4	1	BOMB	147	1	n/a	0	n/a	n/a	n/a	n/a	n/a
3258229	RECOG_CONF	n/a	LTP135	ltpFR	2	4	1	BOMB	147	n/a	5	0	n/a	n/a	n/a	n/a	n/a
3259647	RECOG_LURE	n/a	LTP135	ltpFR	2	4	n/a	FINGERNAIL	568	0	1	n/a	n/a	n/a	n/a	n/a	n/a
3261208	RECOG_RESP	n/a	LTP135	ltpFR	2	4	n/a	FINGERNAIL	568	0	n/a	n/a	n/a	n/a	n/a	n/a	n/a
3262008	RECOG_CONF	n/a	LTP135	ltpFR	2	4	n/a	FINGERNAIL	568	n/a	1	n/a	n/a	n/a	n/a	n/a	n/a
3263420	RECOG_TARGET	n/a	LTP135	ltpFR	2	4	0	BUSH	202	1	5	1	n/a	n/a	n/a	n/a	n/a
3264628	RECOG_RESP	n/a	LTP135	ltpFR	2	4	0	BUSH	202	1	n/a	1	n/a	n/a	n/a	n/a	n/a
3265273	RECOG_CONF	n/a	LTP135	ltpFR	2	4	0	BUSH	202	n/a	5	1	n/a	n/a	n/a	n/a	n/a
3266653	RECOG_LURE	n/a	LTP135	ltpFR	2	4	n/a	HOOP	716	0	2	n/a	n/a	n/a	n/a	n/a	n/a
3268584	RECOG_RESP	n/a	LTP135	ltpFR	2	4	n/a	HOOP	716	0	n/a	n/a	n/a	n/a	n/a	n/a	n/a
3269427	RECOG_CONF	n/a	LTP135	ltpFR	2	4	n/a	HOOP	716	n/a	2	n/a	n/a	n/a	n/a	n/a	n/a
3270800	RECOG_TARGET	n/a	LTP135	ltpFR	2	4	0	GIRL	637	1	5	1	n/a	n/a	n/a	n/a	n/a
3271793	RECOG_RESP	n/a	LTP135	ltpFR	2	4	0	GIRL	637	1	n/a	1	n/a	n/a	n/a	n/a	n/a
3272312	RECOG_CONF	n/a	LTP135	ltpFR	2	4	0	GIRL	637	n/a	5	1	n/a	n/a	n/a	n/a	n/a
3273807	RECOG_TARGET	n/a	LTP135	ltpFR	2	4	0	CLIMBER	323	1	5	1	n/a	n/a	n/a	n/a	n/a
3275484	RECOG_RESP	n/a	LTP135	ltpFR	2	4	0	CLIMBER	323	1	n/a	1	n/a	n/a	n/a	n/a	n/a
3276108	RECOG_CONF	n/a	LTP135	ltpFR	2	4	0	CLIMBER	323	n/a	5	1	n/a	n/a	n/a	n/a	n/a
3277466	RECOG_TARGET	n/a	LTP135	ltpFR	2	4	0	PUPPY	1144	1	3	1	n/a	n/a	n/a	n/a	n/a
3281585	RECOG_RESP	n/a	LTP135	ltpFR	2	4	0	PUPPY	1144	1	n/a	1	n/a	n/a	n/a	n/a	n/a
3282336	RECOG_CONF	n/a	LTP135	ltpFR	2	4	0	PUPPY	1144	n/a	3	1	n/a	n/a	n/a	n/a	n/a
3283771	RECOG_TARGET	n/a	LTP135	ltpFR	2	4	0	PLANE	1081	1	5	1	n/a	n/a	n/a	n/a	n/a
3284629	RECOG_RESP	n/a	LTP135	ltpFR	2	4	0	PLANE	1081	1	n/a	1	n/a	n/a	n/a	n/a	n/a
3285163	RECOG_CONF	n/a	LTP135	ltpFR	2	4	0	PLANE	1081	n/a	5	1	n/a	n/a	n/a	n/a	n/a
3286387	RECOG_TARGET	n/a	LTP135	ltpFR	2	4	1	HANDKERCHIEF	686	1	5	0	n/a	n/a	n/a	n/a	n/a
3287736	RECOG_RESP	n/a	LTP135	ltpFR	2	4	1	HANDKERCHIEF	686	1	n/a	0	n/a	n/a	n/a	n/a	n/a
3288356	RECOG_CONF	n/a	LTP135	ltpFR	2	4	1	HANDKERCHIEF	686	n/a	5	0	n/a	n/a	n/a	n/a	n/a
3307940	REC_START	n/a	LTP135	ltpFR	2	5	n/a	n/a	n/a	n/a	n/a	n/a	n/a	n/a	n/a	n/a	n/a
3307971	RECOG_LURE	n/a	LTP135	ltpFR	2	5	n/a	RIFLE	1192	0	5	n/a	n/a	n/a	n/a	n/a	n/a
3309214	RECOG_RESP	n/a	LTP135	ltpFR	2	5	n/a	RIFLE	1192	0	n/a	n/a	n/a	n/a	n/a	n/a	n/a
3309860	RECOG_CONF	n/a	LTP135	ltpFR	2	5	n/a	RIFLE	1192	n/a	5	n/a	n/a	n/a	n/a	n/a	n/a
3311437	RECOG_TARGET	n/a	LTP135	ltpFR	2	5	-1	PLANT	1083	1	5	-1	n/a	n/a	n/a	n/a	n/a
3312306	RECOG_RESP	n/a	LTP135	ltpFR	2	5	-1	PLANT	1083	1	n/a	-1	n/a	n/a	n/a	n/a	n/a
3312848	RECOG_CONF	n/a	LTP135	ltpFR	2	5	-1	PLANT	1083	n/a	5	-1	n/a	n/a	n/a	n/a	n/a
3314236	RECOG_TARGET	n/a	LTP135	ltpFR	2	5	1	WRENCH	1625	1	5	0	n/a	n/a	n/a	n/a	n/a
3315034	RECOG_RESP	n/a	LTP135	ltpFR	2	5	1	WRENCH	1625	1	n/a	0	n/a	n/a	n/a	n/a	n/a
3315597	RECOG_CONF	n/a	LTP135	ltpFR	2	5	1	WRENCH	1625	n/a	5	0	n/a	n/a	n/a	n/a	n/a
3316960	RECOG_LURE	n/a	LTP135	ltpFR	2	5	n/a	CHEERLEADER	288	1	2	n/a	n/a	n/a	n/a	n/a	n/a
3319703	RECOG_RESP	n/a	LTP135	ltpFR	2	5	n/a	CHEERLEADER	288	1	n/a	n/a	n/a	n/a	n/a	n/a	n/a
3320706	RECOG_CONF	n/a	LTP135	ltpFR	2	5	n/a	CHEERLEADER	288	n/a	2	n/a	n/a	n/a	n/a	n/a	n/a
3322158	RECOG_LURE	n/a	LTP135	ltpFR	2	5	n/a	RUST	1219	0	5	n/a	n/a	n/a	n/a	n/a	n/a
3323400	RECOG_RESP	n/a	LTP135	ltpFR	2	5	n/a	RUST	1219	0	n/a	n/a	n/a	n/a	n/a	n/a	n/a
3323966	RECOG_CONF	n/a	LTP135	ltpFR	2	5	n/a	RUST	1219	n/a	5	n/a	n/a	n/a	n/a	n/a	n/a
3325440	RECOG_LURE	n/a	LTP135	ltpFR	2	5	n/a	RASPBERRY	1168	0	5	n/a	n/a	n/a	n/a	n/a	n/a
3326420	RECOG_RESP	n/a	LTP135	ltpFR	2	5	n/a	RASPBERRY	1168	0	n/a	n/a	n/a	n/a	n/a	n/a	n/a
3326901	RECOG_CONF	n/a	LTP135	ltpFR	2	5	n/a	RASPBERRY	1168	n/a	5	n/a	n/a	n/a	n/a	n/a	n/a
3328339	RECOG_TARGET	n/a	LTP135	ltpFR	2	5	1	MANAGER	863	1	5	1	n/a	n/a	n/a	n/a	n/a
3329343	RECOG_RESP	n/a	LTP135	ltpFR	2	5	1	MANAGER	863	1	n/a	1	n/a	n/a	n/a	n/a	n/a
3329955	RECOG_CONF	n/a	LTP135	ltpFR	2	5	1	MANAGER	863	n/a	5	1	n/a	n/a	n/a	n/a	n/a
3331346	RECOG_TARGET	n/a	LTP135	ltpFR	2	5	-1	PLUM	1090	1	5	-1	n/a	n/a	n/a	n/a	n/a
3332204	RECOG_RESP	n/a	LTP135	ltpFR	2	5	-1	PLUM	1090	1	n/a	-1	n/a	n/a	n/a	n/a	n/a
3332718	RECOG_CONF	n/a	LTP135	ltpFR	2	5	-1	PLUM	1090	n/a	5	-1	n/a	n/a	n/a	n/a	n/a
3334120	RECOG_LURE	n/a	LTP135	ltpFR	2	5	n/a	VOLUNTEER	1577	0	5	n/a	n/a	n/a	n/a	n/a	n/a
3335075	RECOG_RESP	n/a	LTP135	ltpFR	2	5	n/a	VOLUNTEER	1577	0	n/a	n/a	n/a	n/a	n/a	n/a	n/a
3335562	RECOG_CONF	n/a	LTP135	ltpFR	2	5	n/a	VOLUNTEER	1577	n/a	5	n/a	n/a	n/a	n/a	n/a	n/a
3336953	RECOG_TARGET	n/a	LTP135	ltpFR	2	5	0	PLIERS	1089	1	5	0	n/a	n/a	n/a	n/a	n/a
3339090	RECOG_RESP	n/a	LTP135	ltpFR	2	5	0	PLIERS	1089	1	n/a	0	n/a	n/a	n/a	n/a	n/a
3339633	RECOG_CONF	n/a	LTP135	ltpFR	2	5	0	PLIERS	1089	n/a	5	0	n/a	n/a	n/a	n/a	n/a
3340993	RECOG_TARGET	n/a	LTP135	ltpFR	2	5	1	CARDINAL	244	1	5	1	n/a	n/a	n/a	n/a	n/a
3341824	RECOG_RESP	n/a	LTP135	ltpFR	2	5	1	CARDINAL	244	1	n/a	1	n/a	n/a	n/a	n/a	n/a
3342222	RECOG_CONF	n/a	LTP135	ltpFR	2	5	1	CARDINAL	244	n/a	5	1	n/a	n/a	n/a	n/a	n/a
3343692	RECOG_TARGET	n/a	LTP135	ltpFR	2	5	0	LACE	792	1	5	0	n/a	n/a	n/a	n/a	n/a
3344604	RECOG_RESP	n/a	LTP135	ltpFR	2	5	0	LACE	792	1	n/a	0	n/a	n/a	n/a	n/a	n/a
3345295	RECOG_CONF	n/a	LTP135	ltpFR	2	5	0	LACE	792	n/a	5	0	n/a	n/a	n/a	n/a	n/a
3346749	RECOG_LURE	n/a	LTP135	ltpFR	2	5	n/a	BEDROOM	111	0	4	n/a	n/a	n/a	n/a	n/a	n/a
3347774	RECOG_RESP	n/a	LTP135	ltpFR	2	5	n/a	BEDROOM	111	0	n/a	n/a	n/a	n/a	n/a	n/a	n/a
3348428	RECOG_CONF	n/a	LTP135	ltpFR	2	5	n/a	BEDROOM	111	n/a	4	n/a	n/a	n/a	n/a	n/a	n/a
3349814	RECOG_LURE	n/a	LTP135	ltpFR	2	5	n/a	CHEEK	287	0	4	n/a	n/a	n/a	n/a	n/a	n/a
3350969	RECOG_RESP	n/a	LTP135	ltpFR	2	5	n/a	CHEEK	287	0	n/a	n/a	n/a	n/a	n/a	n/a	n/a
3351616	RECOG_CONF	n/a	LTP135	ltpFR	2	5	n/a	CHEEK	287	n/a	4	n/a	n/a	n/a	n/a	n/a	n/a
3353005	RECOG_LURE	n/a	LTP135	ltpFR	2	5	n/a	DISHWASHER	475	1	1	n/a	n/a	n/a	n/a	n/a	n/a
3358906	RECOG_RESP	n/a	LTP135	ltpFR	2	5	n/a	DISHWASHER	475	1	n/a	n/a	n/a	n/a	n/a	n/a	n/a
3359642	RECOG_CONF	n/a	LTP135	ltpFR	2	5	n/a	DISHWASHER	475	n/a	1	n/a	n/a	n/a	n/a	n/a	n/a
3361177	RECOG_TARGET	n/a	LTP135	ltpFR	2	5	-1	ARROW	40	1	5	-1	n/a	n/a	n/a	n/a	n/a
3363105	RECOG_RESP	n/a	LTP135	ltpFR	2	5	-1	ARROW	40	1	n/a	-1	n/a	n/a	n/a	n/a	n/a
3363758	RECOG_CONF	n/a	LTP135	ltpFR	2	5	-1	ARROW	40	n/a	5	-1	n/a	n/a	n/a	n/a	n/a
3365309	RECOG_TARGET	n/a	LTP135	ltpFR	2	5	1	HERB	704	1	5	0	n/a	n/a	n/a	n/a	n/a
3366126	RECOG_RESP	n/a	LTP135	ltpFR	2	5	1	HERB	704	1	n/a	0	n/a	n/a	n/a	n/a	n/a
3366686	RECOG_CONF	n/a	LTP135	ltpFR	2	5	1	HERB	704	n/a	5	0	n/a	n/a	n/a	n/a	n/a
3368125	RECOG_LURE	n/a	LTP135	ltpFR	2	5	n/a	INDIAN	736	0	5	n/a	n/a	n/a	n/a	n/a	n/a
3368934	RECOG_RESP	n/a	LTP135	ltpFR	2	5	n/a	INDIAN	736	0	n/a	n/a	n/a	n/a	n/a	n/a	n/a
3369327	RECOG_CONF	n/a	LTP135	ltpFR	2	5	n/a	INDIAN	736	n/a	5	n/a	n/a	n/a	n/a	n/a	n/a
3370890	RECOG_TARGET	n/a	LTP135	ltpFR	2	5	0	TROMBONE	1508	0	4	1	n/a	n/a	n/a	n/a	n/a
3372195	RECOG_RESP	n/a	LTP135	ltpFR	2	5	0	TROMBONE	1508	0	n/a	1	n/a	n/a	n/a	n/a	n/a
3372987	RECOG_CONF	n/a	LTP135	ltpFR	2	5	0	TROMBONE	1508	n/a	4	1	n/a	n/a	n/a	n/a	n/a
3374498	RECOG_LURE	n/a	LTP135	ltpFR	2	5	n/a	TUTU	1524	0	5	n/a	n/a	n/a	n/a	n/a	n/a
3375485	RECOG_RESP	n/a	LTP135	ltpFR	2	5	n/a	TUTU	1524	0	n/a	n/a	n/a	n/a	n/a	n/a	n/a
3375924	RECOG_CONF	n/a	LTP135	ltpFR	2	5	n/a	TUTU	1524	n/a	5	n/a	n/a	n/a	n/a	n/a	n/a
3383386	REC_START	n/a	LTP135	ltpFR	2	6	n/a	n/a	n/a	n/a	n/a	n/a	n/a	n/a	n/a	n/a	n/a
3383420	RECOG_TARGET	n/a	LTP135	ltpFR	2	6	0	PRIEST	1122	1	5	1	n/a	n/a	n/a	n/a	n/a
3384307	RECOG_RESP	n/a	LTP135	ltpFR	2	6	0	PRIEST	1122	1	n/a	1	n/a	n/a	n/a	n/a	n/a
3384827	RECOG_CONF	n/a	LTP135	ltpFR	2	6	0	PRIEST	1122	n/a	5	1	n/a	n/a	n/a	n/a	n/a
3386285	RECOG_TARGET	n/a	LTP135	ltpFR	2	6	-1	FAMILY	550	0	1	-1	n/a	n/a	n/a	n/a	n/a
3388574	RECOG_RESP	n/a	LTP135	ltpFR	2	6	-1	FAMILY	550	0	n/a	-1	n/a	n/a	n/a	n/a	n/a
3389552	RECOG_CONF	n/a	LTP135	ltpFR	2	6	-1	FAMILY	550	n/a	1	-1	n/a	n/a	n/a	n/a	n/a
3391008	RECOG_TARGET	n/a	LTP135	ltpFR	2	6	0	STEWARDESS	1381	1	5	1	n/a	n/a	n/a	n/a	n/a
3391984	RECOG_RESP	n/a	LTP135	ltpFR	2	6	0	STEWARDESS	1381	1	n/a	1	n/a	n/a	n/a	n/a	n/a
3392700	RECOG_CONF	n/a	LTP135	ltpFR	2	6	0	STEWARDESS	1381	n/a	5	1	n/a	n/a	n/a	n/a	n/a
3394082	RECOG_LURE	n/a	LTP135	ltpFR	2	6	n/a	KITTEN	780	0	5	n/a	n/a	n/a	n/a	n/a	n/a
3395074	RECOG_RESP	n/a	LTP135	ltpFR	2	6	n/a	KITTEN	780	0	n/a	n/a	n/a	n/a	n/a	n/a	n/a
3395563	RECOG_CONF	n/a	LTP135	ltpFR	2	6	n/a	KITTEN	780	n/a	5	n/a	n/a	n/a	n/a	n/a	n/a
3396990	RECOG_TARGET	n/a	LTP135	ltpFR	2	6	-1	DELINQUENT	445	1	5	-1	n/a	n/a	n/a	n/a	n/a
3397966	RECOG_RESP	n/a	LTP135	ltpFR	2	6	-1	DELINQUENT	445	1	n/a	-1	n/a	n/a	n/a	n/a	n/a
3398457	RECOG_CONF	n/a	LTP135	ltpFR	2	6	-1	DELINQUENT	445	n/a	5	-1	n/a	n/a	n/a	n/a	n/a
3399939	RECOG_LURE	n/a	LTP135	ltpFR	2	6	n/a	PRIMATE	1123	0	4	n/a	n/a	n/a	n/a	n/a	n/a
3401095	RECOG_RESP	n/a	LTP135	ltpFR	2	6	n/a	PRIMATE	1123	0	n/a	n/a	n/a	n/a	n/a	n/a	n/a
3401649	RECOG_CONF	n/a	LTP135	ltpFR	2	6	n/a	PRIMATE	1123	n/a	4	n/a	n/a	n/a	n/a	n/a	n/a
3403162	RECOG_TARGET	n/a	LTP135	ltpFR	2	6	0	TIMBER	1469	1	5	1	n/a	n/a	n/a	n/a	n/a
3403873	RECOG_RESP	n/a	LTP135	ltpFR	2	6	0	TIMBER	1469	1	n/a	1	n/a	n/a	n/a	n/a	n/a
3404453	RECOG_CONF	n/a	LTP135	ltpFR	2	6	0	TIMBER	1469	n/a	5	1	n/a	n/a	n/a	n/a	n/a
3405835	RECOG_TARGET	n/a	LTP135	ltpFR	2	6	1	POSSUM	1112	1	5	1	n/a	n/a	n/a	n/a	n/a
3407056	RECOG_RESP	n/a	LTP135	ltpFR	2	6	1	POSSUM	1112	1	n/a	1	n/a	n/a	n/a	n/a	n/a
3407626	RECOG_CONF	n/a	LTP135	ltpFR	2	6	1	POSSUM	1112	n/a	5	1	n/a	n/a	n/a	n/a	n/a
3409019	RECOG_TARGET	n/a	LTP135	ltpFR	2	6	-1	COLLEGE	346	1	5	-1	n/a	n/a	n/a	n/a	n/a
3409817	RECOG_RESP	n/a	LTP135	ltpFR	2	6	-1	COLLEGE	346	1	n/a	-1	n/a	n/a	n/a	n/a	n/a
3410379	RECOG_CONF	n/a	LTP135	ltpFR	2	6	-1	COLLEGE	346	n/a	5	-1	n/a	n/a	n/a	n/a	n/a
3411734	RECOG_TARGET	n/a	LTP135	ltpFR	2	6	0	CAFETERIA	217	1	5	1	n/a	n/a	n/a	n/a	n/a
3412486	RECOG_RESP	n/a	LTP135	ltpFR	2	6	0	CAFETERIA	217	1	n/a	1	n/a	n/a	n/a	n/a	n/a
3413073	RECOG_CONF	n/a	LTP135	ltpFR	2	6	0	CAFETERIA	217	n/a	5	1	n/a	n/a	n/a	n/a	n/a
3414492	RECOG_TARGET	n/a	LTP135	ltpFR	2	6	1	SEAL	1262	1	5	1	n/a	n/a	n/a	n/a	n/a
3415265	RECOG_RESP	n/a	LTP135	ltpFR	2	6	1	SEAL	1262	1	n/a	1	n/a	n/a	n/a	n/a	n/a
3415777	RECOG_CONF	n/a	LTP135	ltpFR	2	6	1	SEAL	1262	n/a	5	1	n/a	n/a	n/a	n/a	n/a
3417266	RECOG_TARGET	n/a	LTP135	ltpFR	2	6	-1	TANK	1432	1	5	-1	n/a	n/a	n/a	n/a	n/a
3418013	RECOG_RESP	n/a	LTP135	ltpFR	2	6	-1	TANK	1432	1	n/a	-1	n/a	n/a	n/a	n/a	n/a
3418551	RECOG_CONF	n/a	LTP135	ltpFR	2	6	-1	TANK	1432	n/a	5	-1	n/a	n/a	n/a	n/a	n/a
3420006	RECOG_TARGET	n/a	LTP135	ltpFR	2	6	-1	TACK	1428	0	4	-1	n/a	n/a	n/a	n/a	n/a
3421089	RECOG_RESP	n/a	LTP135	ltpFR	2	6	-1	TACK	1428	0	n/a	-1	n/a	n/a	n/a	n/a	n/a
3421629	RECOG_CONF	n/a	LTP135	ltpFR	2	6	-1	TACK	1428	n/a	4	-1	n/a	n/a	n/a	n/a	n/a
3423122	RECOG_TARGET	n/a	LTP135	ltpFR	2	6	1	PRISON	1127	1	5	0	n/a	n/a	n/a	n/a	n/a
3423914	RECOG_RESP	n/a	LTP135	ltpFR	2	6	1	PRISON	1127	1	n/a	0	n/a	n/a	n/a	n/a	n/a
3424527	RECOG_CONF	n/a	LTP135	ltpFR	2	6	1	PRISON	1127	n/a	5	0	n/a	n/a	n/a	n/a	n/a
3425921	RECOG_TARGET	n/a	LTP135	ltpFR	2	6	-1	SQUIRREL	1362	1	5	-1	n/a	n/a	n/a	n/a	n/a
3426743	RECOG_RESP	n/a	LTP135	ltpFR	2	6	-1	SQUIRREL	1362	1	n/a	-1	n/a	n/a	n/a	n/a	n/a
3427306	RECOG_CONF	n/a	LTP135	ltpFR	2	6	-1	SQUIRREL	1362	n/a	5	-1	n/a	n/a	n/a	n/a	n/a
3428653	RECOG_LURE	n/a	LTP135	ltpFR	2	6	n/a	TUNNEL	1519	0	1	n/a	n/a	n/a	n/a	n/a	n/a
3429976	RECOG_RESP	n/a	LTP135	ltpFR	2	6	n/a	TUNNEL	1519	0	n/a	n/a	n/a	n/a	n/a	n/a	n/a
3430703	RECOG_CONF	n/a	LTP135	ltpFR	2	6	n/a	TUNNEL	1519	n/a	1	n/a	n/a	n/a	n/a	n/a	n/a
3432060	RECOG_TARGET	n/a	LTP135	ltpFR	2	6	1	PERFUME	1049	1	5	0	n/a	n/a	n/a	n/a	n/a
3432886	RECOG_RESP	n/a	LTP135	ltpFR	2	6	1	PERFUME	1049	1	n/a	0	n/a	n/a	n/a	n/a	n/a
3433412	RECOG_CONF	n/a	LTP135	ltpFR	2	6	1	PERFUME	1049	n/a	5	0	n/a	n/a	n/a	n/a	n/a
3434825	RECOG_TARGET	n/a	LTP135	ltpFR	2	6	0	WICK	1607	1	5	0	n/a	n/a	n/a	n/a	n/a
3435635	RECOG_RESP	n/a	LTP135	ltpFR	2	6	0	WICK	1607	1	n/a	0	n/a	n/a	n/a	n/a	n/a
3436290	RECOG_CONF	n/a	LTP135	ltpFR	2	6	0	WICK	1607	n/a	5	0	n/a	n/a	n/a	n/a	n/a
3437559	RECOG_TARGET	n/a	LTP135	ltpFR	2	6	-1	CUSHION	428	1	4	-1	n/a	n/a	n/a	n/a	n/a
3438399	RECOG_RESP	n/a	LTP135	ltpFR	2	6	-1	CUSHION	428	1	n/a	-1	n/a	n/a	n/a	n/a	n/a
3439254	RECOG_CONF	n/a	LTP135	ltpFR	2	6	-1	CUSHION	428	n/a	4	-1	n/a	n/a	n/a	n/a	n/a
3440666	RECOG_TARGET	n/a	LTP135	ltpFR	2	6	0	MOOSE	915	1	1	1	n/a	n/a	n/a	n/a	n/a
3442845	RECOG_RESP	n/a	LTP135	ltpFR	2	6	0	MOOSE	915	1	n/a	1	n/a	n/a	n/a	n/a	n/a
3443581	RECOG_CONF	n/a	LTP135	ltpFR	2	6	0	MOOSE	915	n/a	1	1	n/a	n/a	n/a	n/a	n/a
3456050	REC_START	n/a	LTP135	ltpFR	2	7	n/a	n/a	n/a	n/a	n/a	n/a	n/a	n/a	n/a	n/a	n/a
3456085	RECOG_TARGET	n/a	LTP135	ltpFR	2	7	1	LOUNGE	845	0	1	0	n/a	n/a	n/a	n/a	n/a
3457376	RECOG_RESP	n/a	LTP135	ltpFR	2	7	1	LOUNGE	845	0	n/a	0	n/a	n/a	n/a	n/a	n/a
3458249	RECOG_CONF	n/a	LTP135	ltpFR	2	7	1	LOUNGE	845	n/a	1	0	n/a	n/a	n/a	n/a	n/a
3459651	RECOG_LURE	n/a	LTP135	ltpFR	2	7	n/a	CHART	282	0	4	n/a	n/a	n/a	n/a	n/a	n/a
3460756	RECOG_RESP	n/a	LTP135	ltpFR	2	7	n/a	CHART	282	0	n/a	n/a	n/a	n/a	n/a	n/a	n/a
3461452	RECOG_CONF	n/a	LTP135	ltpFR	2	7	n/a	CHART	282	n/a	4	n/a	n/a	n/a	n/a	n/a	n/a
3463000	RECOG_TARGET	n/a	LTP135	ltpFR	2	7	-1	CARAVAN	242	1	5	-1	n/a	n/a	n/a	n/a	n/a
3463919	RECOG_RESP	n/a	LTP135	ltpFR	2	7	-1	CARAVAN	242	1	n/a	-1	n/a	n/a	n/a	n/a	n/a
3464695	RECOG_CONF	n/a	LTP135	ltpFR	2	7	-1	CARAVAN	242	n/a	5	-1	n/a	n/a	n/a	n/a	n/a
3466073	RECOG_TARGET	n/a	LTP135	ltpFR	2	7	0	LUGGAGE	847	1	5	1	n/a	n/a	n/a	n/a	n/a
3467019	RECOG_RESP	n/a	LTP135	ltpFR	2	7	0	LUGGAGE	847	1	n/a	1	n/a	n/a	n/a	n/a	n/a
3467678	RECOG_CONF	n/a	LTP135	ltpFR	2	7	0	LUGGAGE	847	n/a	5	1	n/a	n/a	n/a	n/a	n/a
3469147	RECOG_TARGET	n/a	LTP135	ltpFR	2	7	0	CINNAMON	310	1	5	0	n/a	n/a	n/a	n/a	n/a
3469931	RECOG_RESP	n/a	LTP135	ltpFR	2	7	0	CINNAMON	310	1	n/a	0	n/a	n/a	n/a	n/a	n/a
3470592	RECOG_CONF	n/a	LTP135	ltpFR	2	7	0	CINNAMON	310	n/a	5	0	n/a	n/a	n/a	n/a	n/a
3471845	RECOG_LURE	n/a	LTP135	ltpFR	2	7	n/a	CARTON	251	0	3	n/a	n/a	n/a	n/a	n/a	n/a
3473286	RECOG_RESP	n/a	LTP135	ltpFR	2	7	n/a	CARTON	251	0	n/a	n/a	n/a	n/a	n/a	n/a	n/a
3474243	RECOG_CONF	n/a	LTP135	ltpFR	2	7	n/a	CARTON	251	n/a	3	n/a	n/a	n/a	n/a	n/a	n/a
3475545	RECOG_TARGET	n/a	LTP135	ltpFR	2	7	1	SHRUB	1299	0	2	1	n/a	n/a	n/a	n/a	n/a
3476880	RECOG_RESP	n/a	LTP135	ltpFR	2	7	1	SHRUB	1299	0	n/a	1	n/a	n/a	n/a	n/a	n/a
3477673	RECOG_CONF	n/a	LTP135	ltpFR	2	7	1	SHRUB	1299	n/a	2	1	n/a	n/a	n/a	n/a	n/a
3479119	RECOG_TARGET	n/a	LTP135	ltpFR	2	7	1	RESTAURANT	1187	1	5	0	n/a	n/a	n/a	n/a	n/a
3479924	RECOG_RESP	n/a	LTP135	ltpFR	2	7	1	RESTAURANT	1187	1	n/a	0	n/a	n/a	n/a	n/a	n/a
3480509	RECOG_CONF	n/a	LTP135	ltpFR	2	7	1	RESTAURANT	1187	n/a	5	0	n/a	n/a	n/a	n/a	n/a
3481858	RECOG_TARGET	n/a	LTP135	ltpFR	2	7	1	HOSE	720	1	5	0	n/a	n/a	n/a	n/a	n/a
3482723	RECOG_RESP	n/a	LTP135	ltpFR	2	7	1	HOSE	720	1	n/a	0	n/a	n/a	n/a	n/a	n/a
3483300	RECOG_CONF	n/a	LTP135	ltpFR	2	7	1	HOSE	720	n/a	5	0	n/a	n/a	n/a	n/a	n/a
3484708	RECOG_TARGET	n/a	LTP135	ltpFR	2	7	1	BARTENDER	92	1	5	1	n/a	n/a	n/a	n/a	n/a
3485335	RECOG_RESP	n/a	LTP135	ltpFR	2	7	1	BARTENDER	92	1	n/a	1	n/a	n/a	n/a	n/a	n/a
3485907	RECOG_CONF	n/a	LTP135	ltpFR	2	7	1	BARTENDER	92	n/a	5	1	n/a	n/a	n/a	n/a	n/a
3487441	RECOG_TARGET	n/a	LTP135	ltpFR	2	7	0	LUMBER	848	1	5	1	n/a	n/a	n/a	n/a	n/a
3488122	RECOG_RESP	n/a	LTP135	ltpFR	2	7	0	LUMBER	848	1	n/a	1	n/a	n/a	n/a	n/a	n/a
3488750	RECOG_CONF	n/a	LTP135	ltpFR	2	7	0	LUMBER	848	n/a	5	1	n/a	n/a	n/a	n/a	n/a
3490281	RECOG_TARGET	n/a	LTP135	ltpFR	2	7	0	LIGHTER	819	1	5	0	n/a	n/a	n/a	n/a	n/a
3491553	RECOG_RESP	n/a	LTP135	ltpFR	2	7	0	LIGHTER	819	1	n/a	0	n/a	n/a	n/a	n/a	n/a
3492153	RECOG_CONF	n/a	LTP135	ltpFR	2	7	0	LIGHTER	819	n/a	5	0	n/a	n/a	n/a	n/a	n/a
3493480	RECOG_TARGET	n/a	LTP135	ltpFR	2	7	-1	SCREW	1254	1	5	-1	n/a	n/a	n/a	n/a	n/a
3494346	RECOG_RESP	n/a	LTP135	ltpFR	2	7	-1	SCREW	1254	1	n/a	-1	n/a	n/a	n/a	n/a	n/a
3494807	RECOG_CONF	n/a	LTP135	ltpFR	2	7	-1	SCREW	1254	n/a	5	-1	n/a	n/a	n/a	n/a	n/a
3496221	RECOG_TARGET	n/a	LTP135	ltpFR	2	7	1	HIKER	708	1	5	1	n/a	n/a	n/a	n/a	n/a
3496985	RECOG_RESP	n/a	LTP135	ltpFR	2	7	1	HIKER	708	1	n/a	1	n/a	n/a	n/a	n/a	n/a
3497510	RECOG_CONF	n/a	LTP135	ltpFR	2	7	1	HIKER	708	n/a	5	1	n/a	n/a	n/a	n/a	n/a
3498836	RECOG_TARGET	n/a	LTP135	ltpFR	2	7	-1	PREDATOR	1120	1	5	-1	n/a	n/a	n/a	n/a	n/a
3499545	RECOG_RESP	n/a	LTP135	ltpFR	2	7	-1	PREDATOR	1120	1	n/a	-1	n/a	n/a	n/a	n/a	n/a
3500074	RECOG_CONF	n/a	LTP135	ltpFR	2	7	-1	PREDATOR	1120	n/a	5	-1	n/a	n/a	n/a	n/a	n/a
3501536	RECOG_TARGET	n/a	LTP135	ltpFR	2	7	-1	TOWN	1491	0	1	-1	n/a	n/a	n/a	n/a	n/a
3504738	RECOG_RESP	n/a	LTP135	ltpFR	2	7	-1	TOWN	1491	0	n/a	-1	n/a	n/a	n/a	n/a	n/a
3505443	RECOG_CONF	n/a	LTP135	ltpFR	2	7	-1	TOWN	1491	n/a	1	-1	n/a	n/a	n/a	n/a	n/a
3506934	RECOG_TARGET	n/a	LTP135	ltpFR	2	7	1	SHRIMP	1297	1	5	1	n/a	n/a	n/a	n/a	n/a
3507826	RECOG_RESP	n/a	LTP135	ltpFR	2	7	1	SHRIMP	1297	1	n/a	1	n/a	n/a	n/a	n/a	n/a
3508376	RECOG_CONF	n/a	LTP135	ltpFR	2	7	1	SHRIMP	1297	n/a	5	1	n/a	n/a	n/a	n/a	n/a
3509807	RECOG_TARGET	n/a	LTP135	ltpFR	2	7	-1	FREEZER	604	1	5	-1	n/a	n/a	n/a	n/a	n/a
3510467	RECOG_RESP	n/a	LTP135	ltpFR	2	7	-1	FREEZER	604	1	n/a	-1	n/a	n/a	n/a	n/a	n/a
3511005	RECOG_CONF	n/a	LTP135	ltpFR	2	7	-1	FREEZER	604	n/a	5	-1	n/a	n/a	n/a	n/a	n/a
3512524	RECOG_LURE	n/a	LTP135	ltpFR	2	7	n/a	WOUND	1624	0	4	n/a	n/a	n/a	n/a	n/a	n/a
3513578	RECOG_RESP	n/a	LTP135	ltpFR	2	7	n/a	WOUND	1624	0	n/a	n/a	n/a	n/a	n/a	n/a	n/a
3514271	RECOG_CONF	n/a	LTP135	ltpFR	2	7	n/a	WOUND	1624	n/a	4	n/a	n/a	n/a	n/a	n/a	n/a
3515656	RECOG_TARGET	n/a	LTP135	ltpFR	2	7	1	ATHLETE	52	1	5	1	n/a	n/a	n/a	n/a	n/a
3516825	RECOG_RESP	n/a	LTP135	ltpFR	2	7	1	ATHLETE	52	1	n/a	1	n/a	n/a	n/a	n/a	n/a
3517724	RECOG_CONF	n/a	LTP135	ltpFR	2	7	1	ATHLETE	52	n/a	5	1	n/a	n/a	n/a	n/a	n/a
3526653	REC_START	n/a	LTP135	ltpFR	2	8	n/a	n/a	n/a	n/a	n/a	n/a	n/a	n/a	n/a	n/a	n/a
3526685	RECOG_TARGET	n/a	LTP135	ltpFR	2	8	1	BATH	98	0	1	0	n/a	n/a	n/a	n/a	n/a
3527942	RECOG_RESP	n/a	LTP135	ltpFR	2	8	1	BATH	98	0	n/a	0	n/a	n/a	n/a	n/a	n/a
3528727	RECOG_CONF	n/a	LTP135	ltpFR	2	8	1	BATH	98	n/a	1	0	n/a	n/a	n/a	n/a	n/a
3530267	RECOG_LURE	n/a	LTP135	ltpFR	2	8	n/a	BOY	161	0	3	n/a	n/a	n/a	n/a	n/a	n/a
3531290	RECOG_RESP	n/a	LTP135	ltpFR	2	8	n/a	BOY	161	0	n/a	n/a	n/a	n/a	n/a	n/a	n/a
3531946	RECOG_CONF	n/a	LTP135	ltpFR	2	8	n/a	BOY	161	n/a	3	n/a	n/a	n/a	n/a	n/a	n/a
3533475	RECOG_TARGET	n/a	LTP135	ltpFR	2	8	1	TILE	1468	1	5	0	n/a	n/a	n/a	n/a	n/a
3534596	RECOG_RESP	n/a	LTP135	ltpFR	2	8	1	TILE	1468	1	n/a	0	n/a	n/a	n/a	n/a	n/a
3535248	RECOG_CONF	n/a	LTP135	ltpFR	2	8	1	TILE	1468	n/a	5	0	n/a	n/a	n/a	n/a	n/a
3536781	RECOG_TARGET	n/a	LTP135	ltpFR	2	8	1	CRICKET	408	1	5	1	n/a	n/a	n/a	n/a	n/a
3537417	RECOG_RESP	n/a	LTP135	ltpFR	2	8	1	CRICKET	408	1	n/a	1	n/a	n/a	n/a	n/a	n/a
3538052	RECOG_CONF	n/a	LTP135	ltpFR	2	8	1	CRICKET	408	n/a	5	1	n/a	n/a	n/a	n/a	n/a
3539506	RECOG_TARGET	n/a	LTP135	ltpFR	2	8	0	PAIL	1002	1	5	1	n/a	n/a	n/a	n/a	n/a
3540226	RECOG_RESP	n/a	LTP135	ltpFR	2	8	0	PAIL	1002	1	n/a	1	n/a	n/a	n/a	n/a	n/a
3540915	RECOG_CONF	n/a	LTP135	ltpFR	2	8	0	PAIL	1002	n/a	5	1	n/a	n/a	n/a	n/a	n/a
3542438	RECOG_TARGET	n/a	LTP135	ltpFR	2	8	-1	CARD	243	1	5	-1	n/a	n/a	n/a	n/a	n/a
3543196	RECOG_RESP	n/a	LTP135	ltpFR	2	8	-1	CARD	243	1	n/a	-1	n/a	n/a	n/a	n/a	n/a
3543808	RECOG_CONF	n/a	LTP135	ltpFR	2	8	-1	CARD	243	n/a	5	-1	n/a	n/a	n/a	n/a	n/a
3545229	RECOG_TARGET	n/a	LTP135	ltpFR	2	8	1	TICKET	1464	1	1	0	n/a	n/a	n/a	n/a	n/a
3549488	RECOG_RESP	n/a	LTP135	ltpFR	2	8	1	TICKET	1464	1	n/a	0	n/a	n/a	n/a	n/a	n/a
3550304	RECOG_CONF	n/a	LTP135	ltpFR	2	8	1	TICKET	1464	n/a	1	0	n/a	n/a	n/a	n/a	n/a
3551800	RECOG_TARGET	n/a	LTP135	ltpFR	2	8	1	CITY	314	1	5	0	n/a	n/a	n/a	n/a	n/a
3552613	RECOG_RESP	n/a	LTP135	ltpFR	2	8	1	CITY	314	1	n/a	0	n/a	n/a	n/a	n/a	n/a
3553237	RECOG_CONF	n/a	LTP135	ltpFR	2	8	1	CITY	314	n/a	5	0	n/a	n/a	n/a	n/a	n/a
3554684	RECOG_TARGET	n/a	LTP135	ltpFR	2	8	0	BRIDGE	174	1	1	1	n/a	n/a	n/a	n/a	n/a
3555743	RECOG_RESP	n/a	LTP135	ltpFR	2	8	0	BRIDGE	174	1	n/a	1	n/a	n/a	n/a	n/a	n/a
3556537	RECOG_CONF	n/a	LTP135	ltpFR	2	8	0	BRIDGE	174	n/a	1	1	n/a	n/a	n/a	n/a	n/a
3557999	RECOG_TARGET	n/a	LTP135	ltpFR	2	8	1	COMMANDER	354	1	5	1	n/a	n/a	n/a	n/a	n/a
3558766	RECOG_RESP	n/a	LTP135	ltpFR	2	8	1	COMMANDER	354	1	n/a	1	n/a	n/a	n/a	n/a	n/a
3559503	RECOG_CONF	n/a	LTP135	ltpFR	2	8	1	COMMANDER	354	n/a	5	1	n/a	n/a	n/a	n/a	n/a
3561048	RECOG_TARGET	n/a	LTP135	ltpFR	2	8	0	PITCHFORK	1078	1	5	1	n/a	n/a	n/a	n/a	n/a
3562373	RECOG_RESP	n/a	LTP135	ltpFR	2	8	0	PITCHFORK	1078	1	n/a	1	n/a	n/a	n/a	n/a	n/a
3563035	RECOG_CONF	n/a	LTP135	ltpFR	2	8	0	PITCHFORK	1078	n/a	5	1	n/a	n/a	n/a	n/a	n/a
3564663	RECOG_LURE	n/a	LTP135	ltpFR	2	8	n/a	FOREST	593	0	5	n/a	n/a	n/a	n/a	n/a	n/a
3565545	RECOG_RESP	n/a	LTP135	ltpFR	2	8	n/a	FOREST	593	0	n/a	n/a	n/a	n/a	n/a	n/a	n/a
3566267	RECOG_CONF	n/a	LTP135	ltpFR	2	8	n/a	FOREST	593	n/a	5	n/a	n/a	n/a	n/a	n/a	n/a
3567828	RECOG_TARGET	n/a	LTP135	ltpFR	2	8	-1	POTATO	1115	1	1	-1	n/a	n/a	n/a	n/a	n/a
3569198	RECOG_RESP	n/a	LTP135	ltpFR	2	8	-1	POTATO	1115	1	n/a	-1	n/a	n/a	n/a	n/a	n/a
3569985	RECOG_CONF	n/a	LTP135	ltpFR	2	8	-1	POTATO	1115	n/a	1	-1	n/a	n/a	n/a	n/a	n/a
3571444	RECOG_LURE	n/a	LTP135	ltpFR	2	8	n/a	DRIVER	499	0	1	n/a	n/a	n/a	n/a	n/a	n/a
3573467	RECOG_RESP	n/a	LTP135	ltpFR	2	8	n/a	DRIVER	499	0	n/a	n/a	n/a	n/a	n/a	n/a	n/a
3574152	RECOG_CONF	n/a	LTP135	ltpFR	2	8	n/a	DRIVER	499	n/a	1	n/a	n/a	n/a	n/a	n/a	n/a
3575610	RECOG_TARGET	n/a	LTP135	ltpFR	2	8	0	NEEDLE	941	1	5	0	n/a	n/a	n/a	n/a	n/a
3576359	RECOG_RESP	n/a	LTP135	ltpFR	2	8	0	NEEDLE	941	1	n/a	0	n/a	n/a	n/a	n/a	n/a
3576983	RECOG_CONF	n/a	LTP135	ltpFR	2	8	0	NEEDLE	941	n/a	5	0	n/a	n/a	n/a	n/a	n/a
3578467	RECOG_TARGET	n/a	LTP135	ltpFR	2	8	0	FISH	571	1	5	0	n/a	n/a	n/a	n/a	n/a
3579317	RECOG_RESP	n/a	LTP135	ltpFR	2	8	0	FISH	571	1	n/a	0	n/a	n/a	n/a	n/a	n/a
3579936	RECOG_CONF	n/a	LTP135	ltpFR	2	8	0	FISH	571	n/a	5	0	n/a	n/a	n/a	n/a	n/a
3581482	RECOG_TARGET	n/a	LTP135	ltpFR	2	8	-1	TROPHY	1509	1	5	-1	n/a	n/a	n/a	n/a	n/a
3582301	RECOG_RESP	n/a	LTP135	ltpFR	2	8	-1	TROPHY	1509	1	n/a	-1	n/a	n/a	n/a	n/a	n/a
3582940	RECOG_CONF	n/a	LTP135	ltpFR	2	8	-1	TROPHY	1509	n/a	5	-1	n/a	n/a	n/a	n/a	n/a
3584465	RECOG_TARGET	n/a	LTP135	ltpFR	2	8	0	FARM	552	1	5	1	n/a	n/a	n/a	n/a	n/a
3585251	RECOG_RESP	n/a	LTP135	ltpFR	2	8	0	FARM	552	1	n/a	1	n/a	n/a	n/a	n/a	n/a
3585863	RECOG_CONF	n/a	LTP135	ltpFR	2	8	0	FARM	552	n/a	5	1	n/a	n/a	n/a	n/a	n/a
3587455	RECOG_TARGET	n/a	LTP135	ltpFR	2	8	0	PALM	1007	1	5	1	n/a	n/a	n/a	n/a	n/a
3588168	RECOG_RESP	n/a	LTP135	ltpFR	2	8	0	PALM	1007	1	n/a	1	n/a	n/a	n/a	n/a	n/a
3588786	RECOG_CONF	n/a	LTP135	ltpFR	2	8	0	PALM	1007	n/a	5	1	n/a	n/a	n/a	n/a	n/a
3590221	RECOG_TARGET	n/a	LTP135	ltpFR	2	8	1	BRANCH	168	1	5	1	n/a	n/a	n/a	n/a	n/a
3591018	RECOG_RESP	n/a	LTP135	ltpFR	2	8	1	BRANCH	168	1	n/a	1	n/a	n/a	n/a	n/a	n/a
3591680	RECOG_CONF	n/a	LTP135	ltpFR	2	8	1	BRANCH	168	n/a	5	1	n/a	n/a	n/a	n/a	n/a
3608461	REC_START	n/a	LTP135	ltpFR	2	9	n/a	n/a	n/a	n/a	n/a	n/a	n/a	n/a	n/a	n/a	n/a
3608498	RECOG_TARGET	n/a	LTP135	ltpFR	2	9	1	BRACELET	163	1	5	0	n/a	n/a	n/a	n/a	n/a
3609479	RECOG_RESP	n/a	LTP135	ltpFR	2	9	1	BRACELET	163	1	n/a	0	n/a	n/a	n/a	n/a	n/a
3610172	RECOG_CONF	n/a	LTP135	ltpFR	2	9	1	BRACELET	163	n/a	5	0	n/a	n/a	n/a	n/a	n/a
3611730	RECOG_TARGET	n/a	LTP135	ltpFR	2	9	0	RAM	1165	1	5	1	n/a	n/a	n/a	n/a	n/a
3612597	RECOG_RESP	n/a	LTP135	ltpFR	2	9	0	RAM	1165	1	n/a	1	n/a	n/a	n/a	n/a	n/a
3613215	RECOG_CONF	n/a	LTP135	ltpFR	2	9	0	RAM	1165	n/a	5	1	n/a	n/a	n/a	n/a	n/a
3614737	RECOG_LURE	n/a	LTP135	ltpFR	2	9	n/a	CAULIFLOWER	262	0	4	n/a	n/a	n/a	n/a	n/a	n/a
3615894	RECOG_RESP	n/a	LTP135	ltpFR	2	9	n/a	CAULIFLOWER	262	0	n/a	n/a	n/a	n/a	n/a	n/a	n/a
3616807	RECOG_CONF	n/a	LTP135	ltpFR	2	9	n/a	CAULIFLOWER	262	n/a	4	n/a	n/a	n/a	n/a	n/a	n/a
3618294	RECOG_TARGET	n/a	LTP135	ltpFR	2	9	-1	STEM	1376	1	5	-1	n/a	n/a	n/a	n/a	n/a
3619052	RECOG_RESP	n/a	LTP135	ltpFR	2	9	-1	STEM	1376	1	n/a	-1	n/a	n/a	n/a	n/a	n/a
3619620	RECOG_CONF	n/a	LTP135	ltpFR	2	9	-1	STEM	1376	n/a	5	-1	n/a	n/a	n/a	n/a	n/a
3620968	RECOG_TARGET	n/a	LTP135	ltpFR	2	9	0	GYMNAST	675	1	5	1	n/a	n/a	n/a	n/a	n/a
3621797	RECOG_RESP	n/a	LTP135	ltpFR	2	9	0	GYMNAST	675	1	n/a	1	n/a	n/a	n/a	n/a	n/a
3622284	RECOG_CONF	n/a	LTP135	ltpFR	2	9	0	GYMNAST	675	n/a	5	1	n/a	n/a	n/a	n/a	n/a
3623642	RECOG_LURE	n/a	LTP135	ltpFR	2	9	n/a	MOWER	928	0	4	n/a	n/a	n/a	n/a	n/a	n/a
3624548	RECOG_RESP	n/a	LTP135	ltpFR	2	9	n/a	MOWER	928	0	n/a	n/a	n/a	n/a	n/a	n/a	n/a
3625153	RECOG_CONF	n/a	LTP135	ltpFR	2	9	n/a	MOWER	928	n/a	4	n/a	n/a	n/a	n/a	n/a	n/a
3626666	RECOG_LURE	n/a	LTP135	ltpFR	2	9	n/a	HIP	710	0	1	n/a	n/a	n/a	n/a	n/a	n/a
3628360	RECOG_RESP	n/a	LTP135	ltpFR	2	9	n/a	HIP	710	0	n/a	n/a	n/a	n/a	n/a	n/a	n/a
3629017	RECOG_CONF	n/a	LTP135	ltpFR	2	9	n/a	HIP	710	n/a	1	n/a	n/a	n/a	n/a	n/a	n/a
3630507	RECOG_TARGET	n/a	LTP135	ltpFR	2	9	-1	ASHTRAY	45	1	5	-1	n/a	n/a	n/a	n/a	n/a
3631343	RECOG_RESP	n/a	LTP135	ltpFR	2	9	-1	ASHTRAY	45	1	n/a	-1	n/a	n/a	n/a	n/a	n/a
3631972	RECOG_CONF	n/a	LTP135	ltpFR	2	9	-1	ASHTRAY	45	n/a	5	-1	n/a	n/a	n/a	n/a	n/a
3633297	RECOG_LURE	n/a	LTP135	ltpFR	2	9	n/a	CHEMICAL	291	0	5	n/a	n/a	n/a	n/a	n/a	n/a
3634320	RECOG_RESP	n/a	LTP135	ltpFR	2	9	n/a	CHEMICAL	291	0	n/a	n/a	n/a	n/a	n/a	n/a	n/a
3634925	RECOG_CONF	n/a	LTP135	ltpFR	2	9	n/a	CHEMICAL	291	n/a	5	n/a	n/a	n/a	n/a	n/a	n/a
3636380	RECOG_TARGET	n/a	LTP135	ltpFR	2	9	1	FOE	587	0	1	1	n/a	n/a	n/a	n/a	n/a
3637410	RECOG_RESP	n/a	LTP135	ltpFR	2	9	1	FOE	587	0	n/a	1	n/a	n/a	n/a	n/a	n/a
3639188	RECOG_CONF	n/a	LTP135	ltpFR	2	9	1	FOE	587	n/a	1	1	n/a	n/a	n/a	n/a	n/a
3640678	RECOG_TARGET	n/a	LTP135	ltpFR	2	9	0	WALRUS	1585	1	5	1	n/a	n/a	n/a	n/a	n/a
3641522	RECOG_RESP	n/a	LTP135	ltpFR	2	9	0	WALRUS	1585	1	n/a	1	n/a	n/a	n/a	n/a	n/a
3642149	RECOG_CONF	n/a	LTP135	ltpFR	2	9	0	WALRUS	1585	n/a	5	1	n/a	n/a	n/a	n/a	n/a
3643535	RECOG_TARGET	n/a	LTP135	ltpFR	2	9	0	INSTRUCTOR	741	0	3	1	n/a	n/a	n/a	n/a	n/a
3644687	RECOG_RESP	n/a	LTP135	ltpFR	2	9	0	INSTRUCTOR	741	0	n/a	1	n/a	n/a	n/a	n/a	n/a
3645581	RECOG_CONF	n/a	LTP135	ltpFR	2	9	0	INSTRUCTOR	741	n/a	3	1	n/a	n/a	n/a	n/a	n/a
3647017	RECOG_TARGET	n/a	LTP135	ltpFR	2	9	0	CRATER	400	1	5	1	n/a	n/a	n/a	n/a	n/a
3647845	RECOG_RESP	n/a	LTP135	ltpFR	2	9	0	CRATER	400	1	n/a	1	n/a	n/a	n/a	n/a	n/a
3648445	RECOG_CONF	n/a	LTP135	ltpFR	2	9	0	CRATER	400	n/a	5	1	n/a	n/a	n/a	n/a	n/a
3649882	RECOG_TARGET	n/a	LTP135	ltpFR	2	9	-1	PAINTING	1005	1	1	-1	n/a	n/a	n/a	n/a	n/a
3652112	RECOG_RESP	n/a	LTP135	ltpFR	2	9	-1	PAINTING	1005	1	n/a	-1	n/a	n/a	n/a	n/a	n/a
3652807	RECOG_CONF	n/a	LTP135	ltpFR	2	9	-1	PAINTING	1005	n/a	1	-1	n/a	n/a	n/a	n/a	n/a
3654206	RECOG_TARGET	n/a	LTP135	ltpFR	2	9	1	PIN	1072	1	5	0	n/a	n/a	n/a	n/a	n/a
3655017	RECOG_RESP	n/a	LTP135	ltpFR	2	9	1	PIN	1072	1	n/a	0	n/a	n/a	n/a	n/a	n/a
3655648	RECOG_CONF	n/a	LTP135	ltpFR	2	9	1	PIN	1072	n/a	5	0	n/a	n/a	n/a	n/a	n/a
3657114	RECOG_TARGET	n/a	LTP135	ltpFR	2	9	-1	SKIN	1318	1	5	-1	n/a	n/a	n/a	n/a	n/a
3657946	RECOG_RESP	n/a	LTP135	ltpFR	2	9	-1	SKIN	1318	1	n/a	-1	n/a	n/a	n/a	n/a	n/a
3658522	RECOG_CONF	n/a	LTP135	ltpFR	2	9	-1	SKIN	1318	n/a	5	-1	n/a	n/a	n/a	n/a	n/a
3659921	RECOG_TARGET	n/a	LTP135	ltpFR	2	9	1	MONSTER	912	1	5	1	n/a	n/a	n/a	n/a	n/a
3660636	RECOG_RESP	n/a	LTP135	ltpFR	2	9	1	MONSTER	912	1	n/a	1	n/a	n/a	n/a	n/a	n/a
3661206	RECOG_CONF	n/a	LTP135	ltpFR	2	9	1	MONSTER	912	n/a	5	1	n/a	n/a	n/a	n/a	n/a
3662654	RECOG_TARGET	n/a	LTP135	ltpFR	2	9	0	SCREWDRIVER	1255	1	3	0	n/a	n/a	n/a	n/a	n/a
3663889	RECOG_RESP	n/a	LTP135	ltpFR	2	9	0	SCREWDRIVER	1255	1	n/a	0	n/a	n/a	n/a	n/a	n/a
3664533	RECOG_CONF	n/a	LTP135	ltpFR	2	9	0	SCREWDRIVER	1255	n/a	3	0	n/a	n/a	n/a	n/a	n/a
3665936	RECOG_LURE	n/a	LTP135	ltpFR	2	9	n/a	JEWEL	757	0	5	n/a	n/a	n/a	n/a	n/a	n/a
3666932	RECOG_RESP	n/a	LTP135	ltpFR	2	9	n/a	JEWEL	757	0	n/a	n/a	n/a	n/a	n/a	n/a	n/a
3667846	RECOG_CONF	n/a	LTP135	ltpFR	2	9	n/a	JEWEL	757	n/a	5	n/a	n/a	n/a	n/a	n/a	n/a
3669268	RECOG_LURE	n/a	LTP135	ltpFR	2	9	n/a	GLOVE	642	0	2	n/a	n/a	n/a	n/a	n/a	n/a
3670358	RECOG_RESP	n/a	LTP135	ltpFR	2	9	n/a	GLOVE	642	0	n/a	n/a	n/a	n/a	n/a	n/a	n/a
3671058	RECOG_CONF	n/a	LTP135	ltpFR	2	9	n/a	GLOVE	642	n/a	2	n/a	n/a	n/a	n/a	n/a	n/a
3679498	REC_START	n/a	LTP135	ltpFR	2	10	n/a	n/a	n/a	n/a	n/a	n/a	n/a	n/a	n/a	n/a	n/a
3679531	RECOG_LURE	n/a	LTP135	ltpFR	2	10	n/a	BAY	102	0	3	n/a	n/a	n/a	n/a	n/a	n/a
3680927	RECOG_RESP	n/a	LTP135	ltpFR	2	10	n/a	BAY	102	0	n/a	n/a	n/a	n/a	n/a	n/a	n/a
3681578	RECOG_CONF	n/a	LTP135	ltpFR	2	10	n/a	BAY	102	n/a	3	n/a	n/a	n/a	n/a	n/a	n/a
3683038	RECOG_TARGET	n/a	LTP135	ltpFR	2	10	-1	ENGINE	535	1	3	-1	n/a	n/a	n/a	n/a	n/a
3684158	RECOG_RESP	n/a	LTP135	ltpFR	2	10	-1	ENGINE	535	1	n/a	-1	n/a	n/a	n/a	n/a	n/a
3684896	RECOG_CONF	n/a	LTP135	ltpFR	2	10	-1	ENGINE	535	n/a	3	-1	n/a	n/a	n/a	n/a	n/a
3686303	RECOG_TARGET	n/a	LTP135	ltpFR	2	10	0	ORANGE	980	1	4	0	n/a	n/a	n/a	n/a	n/a
3688174	RECOG_RESP	n/a	LTP135	ltpFR	2	10	0	ORANGE	980	1	n/a	0	n/a	n/a	n/a	n/a	n/a
3689001	RECOG_CONF	n/a	LTP135	ltpFR	2	10	0	ORANGE	980	n/a	4	0	n/a	n/a	n/a	n/a	n/a
3690627	RECOG_TARGET	n/a	LTP135	ltpFR	2	10	0	PRUNE	1134	1	5	0	n/a	n/a	n/a	n/a	n/a
3691530	RECOG_RESP	n/a	LTP135	ltpFR	2	10	0	PRUNE	1134	1	n/a	0	n/a	n/a	n/a	n/a	n/a
3692074	RECOG_CONF	n/a	LTP135	ltpFR	2	10	0	PRUNE	1134	n/a	5	0	n/a	n/a	n/a	n/a	n/a
3693509	RECOG_LURE	n/a	LTP135	ltpFR	2	10	n/a	MECHANIC	884	1	1	n/a	n/a	n/a	n/a	n/a	n/a
3695602	RECOG_RESP	n/a	LTP135	ltpFR	2	10	n/a	MECHANIC	884	1	n/a	n/a	n/a	n/a	n/a	n/a	n/a
3696342	RECOG_CONF	n/a	LTP135	ltpFR	2	10	n/a	MECHANIC	884	n/a	1	n/a	n/a	n/a	n/a	n/a	n/a
3697798	RECOG_LURE	n/a	LTP135	ltpFR	2	10	n/a	CHEMIST	292	1	1	n/a	n/a	n/a	n/a	n/a	n/a
3699947	RECOG_RESP	n/a	LTP135	ltpFR	2	10	n/a	CHEMIST	292	1	n/a	n/a	n/a	n/a	n/a	n/a	n/a
3700699	RECOG_CONF	n/a	LTP135	ltpFR	2	10	n/a	CHEMIST	292	n/a	1	n/a	n/a	n/a	n/a	n/a	n/a
3702156	RECOG_LURE	n/a	LTP135	ltpFR	2	10	n/a	BRUISE	180	0	5	n/a	n/a	n/a	n/a	n/a	n/a
3703576	RECOG_RESP	n/a	LTP135	ltpFR	2	10	n/a	BRUISE	180	0	n/a	n/a	n/a	n/a	n/a	n/a	n/a
3704186	RECOG_CONF	n/a	LTP135	ltpFR	2	10	n/a	BRUISE	180	n/a	5	n/a	n/a	n/a	n/a	n/a	n/a
3705680	RECOG_TARGET	n/a	LTP135	ltpFR	2	10	0	UTENSIL	1542	1	5	0	n/a	n/a	n/a	n/a	n/a
3707002	RECOG_RESP	n/a	LTP135	ltpFR	2	10	0	UTENSIL	1542	1	n/a	0	n/a	n/a	n/a	n/a	n/a
3707619	RECOG_CONF	n/a	LTP135	ltpFR	2	10	0	UTENSIL	1542	n/a	5	0	n/a	n/a	n/a	n/a	n/a
3709095	RECOG_TARGET	n/a	LTP135	ltpFR	2	10	0	SWATTER	1418	1	5	0	n/a	n/a	n/a	n/a	n/a
3709890	RECOG_RESP	n/a	LTP135	ltpFR	2	10	0	SWATTER	1418	1	n/a	0	n/a	n/a	n/a	n/a	n/a
3710567	RECOG_CONF	n/a	LTP135	ltpFR	2	10	0	SWATTER	1418	n/a	5	0	n/a	n/a	n/a	n/a	n/a
3712028	RECOG_TARGET	n/a	LTP135	ltpFR	2	10	0	NIGHTGOWN	953	0	5	0	n/a	n/a	n/a	n/a	n/a
3713540	RECOG_RESP	n/a	LTP135	ltpFR	2	10	0	NIGHTGOWN	953	0	n/a	0	n/a	n/a	n/a	n/a	n/a
3714503	RECOG_CONF	n/a	LTP135	ltpFR	2	10	0	NIGHTGOWN	953	n/a	5	0	n/a	n/a	n/a	n/a	n/a
3716060	RECOG_TARGET	n/a	LTP135	ltpFR	2	10	1	GOWN	652	1	5	0	n/a	n/a	n/a	n/a	n/a
3717197	RECOG_RESP	n/a	LTP135	ltpFR	2	10	1	GOWN	652	1	n/a	0	n/a	n/a	n/a	n/a	n/a
3717875	RECOG_CONF	n/a	LTP135	ltpFR	2	10	1	GOWN	652	n/a	5	0	n/a	n/a	n/a	n/a	n/a
3719342	RECOG_TARGET	n/a	LTP135	ltpFR	2	10	-1	MARGARINE	868	1	5	-1	n/a	n/a	n/a	n/a	n/a
