mstime	trial_type	stim_file	subject	experiment	session	trial	task	item_name	item_num	recog_conf	resp	answer	test_x	test_y	test_z	color_b	color_g	color_r	case	font
0	SESS_START	n/a	LTP066	ltpFR	11	n/a	n/a	n/a	n/a	4	n/a	n/a	0	0	0	n/a	n/a	n/a	n/a	n/a
36978	START	n/a	LTP066	ltpFR	11	n/a	n/a	n/a	n/a	n/a	n/a	n/a	n/a	n/a	n/a	n/a	n/a	n/a	n/a	n/a
37003	PROB	n/a	LTP066	ltpFR	11	n/a	n/a	n/a	n/a	n/a	n/a	19	7	8	4	n/a	n/a	n/a	n/a	n/a
39769	PROB	n/a	LTP066	ltpFR	11	n/a	n/a	n/a	n/a	n/a	n/a	9	1	1	7	n/a	n/a	n/a	n/a	n/a
40802	PROB	n/a	LTP066	ltpFR	11	n/a	n/a	n/a	n/a	n/a	n/a	8	3	2	3	n/a	n/a	n/a	n/a	n/a
41919	PROB	n/a	LTP066	ltpFR	11	n/a	n/a	n/a	n/a	n/a	n/a	10	3	7	2	n/a	n/a	n/a	n/a	n/a
43152	PROB	n/a	LTP066	ltpFR	11	n/a	n/a	n/a	n/a	n/a	n/a	11	9	1	1	n/a	n/a	n/a	n/a	n/a
44419	PROB	n/a	LTP066	ltpFR	11	n/a	n/a	n/a	n/a	n/a	n/a	15	4	9	2	n/a	n/a	n/a	n/a	n/a
45885	PROB	n/a	LTP066	ltpFR	11	n/a	n/a	n/a	n/a	n/a	n/a	14	1	4	9	n/a	n/a	n/a	n/a	n/a
47035	PROB	n/a	LTP066	ltpFR	11	n/a	n/a	n/a	n/a	n/a	n/a	3	1	1	1	n/a	n/a	n/a	n/a	n/a
47960	PROB	n/a	LTP066	ltpFR	11	n/a	n/a	n/a	n/a	n/a	n/a	24	6	8	8	n/a	n/a	n/a	n/a	n/a
50635	PROB	n/a	LTP066	ltpFR	11	n/a	n/a	n/a	n/a	n/a	n/a	13	5	2	6	n/a	n/a	n/a	n/a	n/a
52168	PROB	n/a	LTP066	ltpFR	11	n/a	n/a	n/a	n/a	n/a	n/a	14	4	8	2	n/a	n/a	n/a	n/a	n/a
53668	PROB	n/a	LTP066	ltpFR	11	n/a	n/a	n/a	n/a	n/a	n/a	21	6	9	6	n/a	n/a	n/a	n/a	n/a
55210	PROB	n/a	LTP066	ltpFR	11	n/a	n/a	n/a	n/a	n/a	n/a	12	4	8	4	n/a	n/a	n/a	n/a	n/a
56595	STOP	n/a	LTP066	ltpFR	11	n/a	n/a	n/a	n/a	n/a	n/a	n/a	n/a	n/a	n/a	n/a	n/a	n/a	n/a	n/a
95273	WORD	wordpools/wasnorm_wordpool.txt	LTP066	ltpFR	11	1	0	FLESH	579	n/a	1	n/a	0	0	0	0	0.5869140625	0.422607421875	lower	../fonts/zerothre.ttf
99265	WORD	wordpools/wasnorm_wordpool.txt	LTP066	ltpFR	11	1	0	VEAL	1551	n/a	1	n/a	0	0	0	0	0.5869140625	0.422607421875	lower	../fonts/zerothre.ttf
103414	WORD	wordpools/wasnorm_wordpool.txt	LTP066	ltpFR	11	1	1	DRIVER	499	n/a	1	n/a	0	0	0	1	0.412841796875	0.57763671875	upper	../fonts/amplitud.ttf
107347	WORD	wordpools/wasnorm_wordpool.txt	LTP066	ltpFR	11	1	1	PISTON	1076	n/a	0	n/a	0	0	0	1	0.412841796875	0.57763671875	upper	../fonts/amplitud.ttf
111305	WORD	wordpools/wasnorm_wordpool.txt	LTP066	ltpFR	11	1	1	ANTELOPE	27	n/a	1	n/a	0	0	0	1	0.412841796875	0.57763671875	upper	../fonts/amplitud.ttf
115147	WORD	wordpools/wasnorm_wordpool.txt	LTP066	ltpFR	11	1	1	ARTERY	41	n/a	1	n/a	0	0	0	1	0.412841796875	0.57763671875	upper	../fonts/amplitud.ttf
119047	WORD	wordpools/wasnorm_wordpool.txt	LTP066	ltpFR	11	1	0	MOTOR	922	n/a	1	n/a	0	0	0	0	0.5869140625	0.422607421875	lower	../fonts/zerothre.ttf
123255	WORD	wordpools/wasnorm_wordpool.txt	LTP066	ltpFR	11	1	0	TACK	1428	n/a	0	n/a	0	0	0	0	0.5869140625	0.422607421875	lower	../fonts/zerothre.ttf
127421	WORD	wordpools/wasnorm_wordpool.txt	LTP066	ltpFR	11	1	0	MONGOOSE	909	n/a	1	n/a	0	0	0	0	0.5869140625	0.422607421875	lower	../fonts/zerothre.ttf
131571	WORD	wordpools/wasnorm_wordpool.txt	LTP066	ltpFR	11	1	1	SNORKEL	1336	n/a	0	n/a	0	0	0	1	0.412841796875	0.57763671875	upper	../fonts/amplitud.ttf
135779	WORD	wordpools/wasnorm_wordpool.txt	LTP066	ltpFR	11	1	1	BUGLE	189	n/a	0	n/a	0	0	0	1	0.412841796875	0.57763671875	upper	../fonts/amplitud.ttf
139912	WORD	wordpools/wasnorm_wordpool.txt	LTP066	ltpFR	11	1	1	CERAMICS	271	n/a	0	n/a	0	0	0	1	0.412841796875	0.57763671875	upper	../fonts/amplitud.ttf
144086	WORD	wordpools/wasnorm_wordpool.txt	LTP066	ltpFR	11	1	1	DONOR	485	n/a	1	n/a	0	0	0	1	0.412841796875	0.57763671875	upper	../fonts/amplitud.ttf
148236	WORD	wordpools/wasnorm_wordpool.txt	LTP066	ltpFR	11	1	0	OUTFIT	988	n/a	1	n/a	0	0	0	0	0.5869140625	0.422607421875	lower	../fonts/zerothre.ttf
152094	WORD	wordpools/wasnorm_wordpool.txt	LTP066	ltpFR	11	1	0	VEST	1559	n/a	0	n/a	0	0	0	0	0.5869140625	0.422607421875	lower	../fonts/zerothre.ttf
155919	WORD	wordpools/wasnorm_wordpool.txt	LTP066	ltpFR	11	1	0	SLIDE	1326	n/a	1	n/a	0	0	0	0	0.5869140625	0.422607421875	lower	../fonts/zerothre.ttf
158927	START	n/a	LTP066	ltpFR	11	n/a	n/a	n/a	n/a	n/a	n/a	n/a	n/a	n/a	n/a	n/a	n/a	n/a	n/a	n/a
159793	PROB	n/a	LTP066	ltpFR	11	n/a	n/a	n/a	n/a	n/a	n/a	6	2	3	1	n/a	n/a	n/a	n/a	n/a
161252	PROB	n/a	LTP066	ltpFR	11	n/a	n/a	n/a	n/a	n/a	n/a	13	2	2	9	n/a	n/a	n/a	n/a	n/a
162627	PROB	n/a	LTP066	ltpFR	11	n/a	n/a	n/a	n/a	n/a	n/a	10	2	3	5	n/a	n/a	n/a	n/a	n/a
163785	PROB	n/a	LTP066	ltpFR	11	n/a	n/a	n/a	n/a	n/a	n/a	15	2	7	6	n/a	n/a	n/a	n/a	n/a
164743	PROB	n/a	LTP066	ltpFR	11	n/a	n/a	n/a	n/a	n/a	n/a	10	6	1	3	n/a	n/a	n/a	n/a	n/a
166163	STOP	n/a	LTP066	ltpFR	11	n/a	n/a	n/a	n/a	n/a	n/a	n/a	n/a	n/a	n/a	n/a	n/a	n/a	n/a	n/a
168735	REC_START	n/a	LTP066	ltpFR	11	1	n/a	n/a	n/a	n/a	n/a	n/a	0	0	0	n/a	n/a	n/a	n/a	n/a
174641	REC_WORD	wordpools/wasnorm_wordpool.txt	LTP066	ltpFR	11	1	n/a	SKIN	1318	n/a	n/a	n/a	0	0	0	n/a	n/a	n/a	n/a	n/a
176397	REC_WORD	wordpools/wasnorm_wordpool.txt	LTP066	ltpFR	11	1	0	FLESH	579	n/a	1	n/a	0	0	0	n/a	n/a	n/a	n/a	n/a
178303	REC_WORD	wordpools/wasnorm_wordpool.txt	LTP066	ltpFR	11	1	0	VEAL	1551	n/a	1	n/a	0	0	0	n/a	n/a	n/a	n/a	n/a
184035	REC_WORD	wordpools/wasnorm_wordpool.txt	LTP066	ltpFR	11	1	1	DRIVER	499	n/a	1	n/a	0	0	0	n/a	n/a	n/a	n/a	n/a
190251	REC_WORD	wordpools/wasnorm_wordpool.txt	LTP066	ltpFR	11	1	1	PISTON	1076	n/a	0	n/a	0	0	0	n/a	n/a	n/a	n/a	n/a
192002	REC_WORD	wordpools/wasnorm_wordpool.txt	LTP066	ltpFR	11	1	1	ANTELOPE	27	n/a	1	n/a	0	0	0	n/a	n/a	n/a	n/a	n/a
201341	REC_WORD	wordpools/wasnorm_wordpool.txt	LTP066	ltpFR	11	1	0	MOTOR	922	n/a	1	n/a	0	0	0	n/a	n/a	n/a	n/a	n/a
203551	REC_WORD	wordpools/wasnorm_wordpool.txt	LTP066	ltpFR	11	1	0	TACK	1428	n/a	0	n/a	0	0	0	n/a	n/a	n/a	n/a	n/a
206195	REC_WORD	wordpools/wasnorm_wordpool.txt	LTP066	ltpFR	11	1	1	ARTERY	41	n/a	1	n/a	0	0	0	n/a	n/a	n/a	n/a	n/a
211552	REC_WORD	wordpools/wasnorm_wordpool.txt	LTP066	ltpFR	11	1	0	MONGOOSE	909	n/a	1	n/a	0	0	0	n/a	n/a	n/a	n/a	n/a
216661	REC_WORD	wordpools/wasnorm_wordpool.txt	LTP066	ltpFR	11	1	0	OUTFIT	988	n/a	1	n/a	0	0	0	n/a	n/a	n/a	n/a	n/a
218097	REC_WORD	wordpools/wasnorm_wordpool.txt	LTP066	ltpFR	11	1	0	VEST	1559	n/a	0	n/a	0	0	0	n/a	n/a	n/a	n/a	n/a
224558	REC_WORD	wordpools/wasnorm_wordpool.txt	LTP066	ltpFR	11	1	1	SNORKEL	1336	n/a	0	n/a	0	0	0	n/a	n/a	n/a	n/a	n/a
226334	REC_WORD	wordpools/wasnorm_wordpool.txt	LTP066	ltpFR	11	1	1	BUGLE	189	n/a	0	n/a	0	0	0	n/a	n/a	n/a	n/a	n/a
233313	REC_WORD	wordpools/wasnorm_wordpool.txt	LTP066	ltpFR	11	1	1	DONOR	485	n/a	1	n/a	0	0	0	n/a	n/a	n/a	n/a	n/a
234620	REC_WORD	wordpools/wasnorm_wordpool.txt	LTP066	ltpFR	11	1	1	CERAMICS	271	n/a	0	n/a	0	0	0	n/a	n/a	n/a	n/a	n/a
235620	REC_WORD_VV	wordpools/wasnorm_wordpool.txt	LTP066	ltpFR	11	1	n/a	<>	-1	n/a	n/a	n/a	0	0	0	n/a	n/a	n/a	n/a	n/a
245879	START	n/a	LTP066	ltpFR	11	n/a	n/a	n/a	n/a	n/a	n/a	n/a	n/a	n/a	n/a	n/a	n/a	n/a	n/a	n/a
247387	PROB	n/a	LTP066	ltpFR	11	n/a	n/a	n/a	n/a	n/a	n/a	12	1	5	6	n/a	n/a	n/a	n/a	n/a
248587	PROB	n/a	LTP066	ltpFR	11	n/a	n/a	n/a	n/a	n/a	n/a	16	1	7	8	n/a	n/a	n/a	n/a	n/a
249579	PROB	n/a	LTP066	ltpFR	11	n/a	n/a	n/a	n/a	n/a	n/a	15	8	5	2	n/a	n/a	n/a	n/a	n/a
250687	PROB	n/a	LTP066	ltpFR	11	n/a	n/a	n/a	n/a	n/a	n/a	5	2	2	1	n/a	n/a	n/a	n/a	n/a
253879	STOP	n/a	LTP066	ltpFR	11	n/a	n/a	n/a	n/a	n/a	n/a	n/a	n/a	n/a	n/a	n/a	n/a	n/a	n/a	n/a
254810	WORD	wordpools/wasnorm_wordpool.txt	LTP066	ltpFR	11	2	1	TERRITORY	1452	n/a	0	n/a	0	0	0	1	0.412841796875	0.57763671875	upper	../fonts/amplitud.ttf
257819	START	n/a	LTP066	ltpFR	11	n/a	n/a	n/a	n/a	n/a	n/a	n/a	n/a	n/a	n/a	n/a	n/a	n/a	n/a	n/a
258770	PROB	n/a	LTP066	ltpFR	11	n/a	n/a	n/a	n/a	n/a	n/a	9	2	1	6	n/a	n/a	n/a	n/a	n/a
260528	PROB	n/a	LTP066	ltpFR	11	n/a	n/a	n/a	n/a	n/a	n/a	15	3	3	9	n/a	n/a	n/a	n/a	n/a
262186	PROB	n/a	LTP066	ltpFR	11	n/a	n/a	n/a	n/a	n/a	n/a	15	6	4	5	n/a	n/a	n/a	n/a	n/a
263219	PROB	n/a	LTP066	ltpFR	11	n/a	n/a	n/a	n/a	n/a	n/a	7	3	2	2	n/a	n/a	n/a	n/a	n/a
264291	STOP	n/a	LTP066	ltpFR	11	n/a	n/a	n/a	n/a	n/a	n/a	n/a	n/a	n/a	n/a	n/a	n/a	n/a	n/a	n/a
266786	WORD	wordpools/wasnorm_wordpool.txt	LTP066	ltpFR	11	2	1	PATIO	1025	n/a	0	n/a	0	0	0	1	0.412841796875	0.57763671875	upper	../fonts/amplitud.ttf
269794	START	n/a	LTP066	ltpFR	11	n/a	n/a	n/a	n/a	n/a	n/a	n/a	n/a	n/a	n/a	n/a	n/a	n/a	n/a	n/a
270669	PROB	n/a	LTP066	ltpFR	11	n/a	n/a	n/a	n/a	n/a	n/a	14	1	4	9	n/a	n/a	n/a	n/a	n/a
271902	PROB	n/a	LTP066	ltpFR	11	n/a	n/a	n/a	n/a	n/a	n/a	21	7	8	6	n/a	n/a	n/a	n/a	n/a
274093	PROB	n/a	LTP066	ltpFR	11	n/a	n/a	n/a	n/a	n/a	n/a	9	1	1	7	n/a	n/a	n/a	n/a	n/a
275018	PROB	n/a	LTP066	ltpFR	11	n/a	n/a	n/a	n/a	n/a	n/a	6	4	1	1	n/a	n/a	n/a	n/a	n/a
275943	PROB	n/a	LTP066	ltpFR	11	n/a	n/a	n/a	n/a	n/a	n/a	10	4	4	2	n/a	n/a	n/a	n/a	n/a
277019	STOP	n/a	LTP066	ltpFR	11	n/a	n/a	n/a	n/a	n/a	n/a	n/a	n/a	n/a	n/a	n/a	n/a	n/a	n/a	n/a
278943	WORD	wordpools/wasnorm_wordpool.txt	LTP066	ltpFR	11	2	1	HIP	710	n/a	0	n/a	0	0	0	1	0.412841796875	0.57763671875	upper	../fonts/amplitud.ttf
281952	START	n/a	LTP066	ltpFR	11	n/a	n/a	n/a	n/a	n/a	n/a	n/a	n/a	n/a	n/a	n/a	n/a	n/a	n/a	n/a
283084	PROB	n/a	LTP066	ltpFR	11	n/a	n/a	n/a	n/a	n/a	n/a	22	7	7	8	n/a	n/a	n/a	n/a	n/a
285784	PROB	n/a	LTP066	ltpFR	11	n/a	n/a	n/a	n/a	n/a	n/a	19	8	9	2	n/a	n/a	n/a	n/a	n/a
287392	PROB	n/a	LTP066	ltpFR	11	n/a	n/a	n/a	n/a	n/a	n/a	18	6	7	5	n/a	n/a	n/a	n/a	n/a
288771	STOP	n/a	LTP066	ltpFR	11	n/a	n/a	n/a	n/a	n/a	n/a	n/a	n/a	n/a	n/a	n/a	n/a	n/a	n/a	n/a
290867	WORD	wordpools/wasnorm_wordpool.txt	LTP066	ltpFR	11	2	1	POTATO	1115	n/a	1	n/a	0	0	0	1	0.412841796875	0.57763671875	upper	../fonts/amplitud.ttf
293876	START	n/a	LTP066	ltpFR	11	n/a	n/a	n/a	n/a	n/a	n/a	n/a	n/a	n/a	n/a	n/a	n/a	n/a	n/a	n/a
294925	PROB	n/a	LTP066	ltpFR	11	n/a	n/a	n/a	n/a	n/a	n/a	9	3	4	2	n/a	n/a	n/a	n/a	n/a
296183	PROB	n/a	LTP066	ltpFR	11	n/a	n/a	n/a	n/a	n/a	n/a	9	2	2	5	n/a	n/a	n/a	n/a	n/a
297067	PROB	n/a	LTP066	ltpFR	11	n/a	n/a	n/a	n/a	n/a	n/a	13	1	9	3	n/a	n/a	n/a	n/a	n/a
298150	PROB	n/a	LTP066	ltpFR	11	n/a	n/a	n/a	n/a	n/a	n/a	9	2	6	1	n/a	n/a	n/a	n/a	n/a
299083	PROB	n/a	LTP066	ltpFR	11	n/a	n/a	n/a	n/a	n/a	n/a	21	5	9	7	n/a	n/a	n/a	n/a	n/a
301187	STOP	n/a	LTP066	ltpFR	11	n/a	n/a	n/a	n/a	n/a	n/a	n/a	n/a	n/a	n/a	n/a	n/a	n/a	n/a	n/a
302733	WORD	wordpools/wasnorm_wordpool.txt	LTP066	ltpFR	11	2	1	TUNA	1518	n/a	1	n/a	0	0	0	1	0.412841796875	0.57763671875	upper	../fonts/amplitud.ttf
305741	START	n/a	LTP066	ltpFR	11	n/a	n/a	n/a	n/a	n/a	n/a	n/a	n/a	n/a	n/a	n/a	n/a	n/a	n/a	n/a
306866	PROB	n/a	LTP066	ltpFR	11	n/a	n/a	n/a	n/a	n/a	n/a	17	7	5	5	n/a	n/a	n/a	n/a	n/a
308249	PROB	n/a	LTP066	ltpFR	11	n/a	n/a	n/a	n/a	n/a	n/a	7	1	4	2	n/a	n/a	n/a	n/a	n/a
309974	PROB	n/a	LTP066	ltpFR	11	n/a	n/a	n/a	n/a	n/a	n/a	14	7	6	1	n/a	n/a	n/a	n/a	n/a
311116	PROB	n/a	LTP066	ltpFR	11	n/a	n/a	n/a	n/a	n/a	n/a	18	4	5	9	n/a	n/a	n/a	n/a	n/a
312587	STOP	n/a	LTP066	ltpFR	11	n/a	n/a	n/a	n/a	n/a	n/a	n/a	n/a	n/a	n/a	n/a	n/a	n/a	n/a	n/a
314682	WORD	wordpools/wasnorm_wordpool.txt	LTP066	ltpFR	11	2	1	FISH	571	n/a	1	n/a	0	0	0	1	0.412841796875	0.57763671875	upper	../fonts/amplitud.ttf
317691	START	n/a	LTP066	ltpFR	11	n/a	n/a	n/a	n/a	n/a	n/a	n/a	n/a	n/a	n/a	n/a	n/a	n/a	n/a	n/a
318822	PROB	n/a	LTP066	ltpFR	11	n/a	n/a	n/a	n/a	n/a	n/a	24	9	6	9	n/a	n/a	n/a	n/a	n/a
320548	PROB	n/a	LTP066	ltpFR	11	n/a	n/a	n/a	n/a	n/a	n/a	10	2	6	2	n/a	n/a	n/a	n/a	n/a
321873	PROB	n/a	LTP066	ltpFR	11	n/a	n/a	n/a	n/a	n/a	n/a	18	6	4	8	n/a	n/a	n/a	n/a	n/a
323748	PROB	n/a	LTP066	ltpFR	11	n/a	n/a	n/a	n/a	n/a	n/a	11	1	8	2	n/a	n/a	n/a	n/a	n/a
324899	STOP	n/a	LTP066	ltpFR	11	n/a	n/a	n/a	n/a	n/a	n/a	n/a	n/a	n/a	n/a	n/a	n/a	n/a	n/a	n/a
326756	WORD	wordpools/wasnorm_wordpool.txt	LTP066	ltpFR	11	2	1	COBRA	336	n/a	1	n/a	0	0	0	1	0.412841796875	0.57763671875	upper	../fonts/amplitud.ttf
329765	START	n/a	LTP066	ltpFR	11	n/a	n/a	n/a	n/a	n/a	n/a	n/a	n/a	n/a	n/a	n/a	n/a	n/a	n/a	n/a
330847	PROB	n/a	LTP066	ltpFR	11	n/a	n/a	n/a	n/a	n/a	n/a	14	6	2	6	n/a	n/a	n/a	n/a	n/a
332156	PROB	n/a	LTP066	ltpFR	11	n/a	n/a	n/a	n/a	n/a	n/a	10	6	1	3	n/a	n/a	n/a	n/a	n/a
333247	PROB	n/a	LTP066	ltpFR	11	n/a	n/a	n/a	n/a	n/a	n/a	19	9	5	5	n/a	n/a	n/a	n/a	n/a
334497	PROB	n/a	LTP066	ltpFR	11	n/a	n/a	n/a	n/a	n/a	n/a	18	6	7	6	n/a	n/a	n/a	n/a	n/a
335838	PROB	n/a	LTP066	ltpFR	11	n/a	n/a	n/a	n/a	n/a	n/a	12	2	8	2	n/a	n/a	n/a	n/a	n/a
337491	STOP	n/a	LTP066	ltpFR	11	n/a	n/a	n/a	n/a	n/a	n/a	n/a	n/a	n/a	n/a	n/a	n/a	n/a	n/a	n/a
338639	WORD	wordpools/wasnorm_wordpool.txt	LTP066	ltpFR	11	2	1	BOY	161	n/a	1	n/a	0	0	0	1	0.412841796875	0.57763671875	upper	../fonts/amplitud.ttf
341647	START	n/a	LTP066	ltpFR	11	n/a	n/a	n/a	n/a	n/a	n/a	n/a	n/a	n/a	n/a	n/a	n/a	n/a	n/a	n/a
342472	PROB	n/a	LTP066	ltpFR	11	n/a	n/a	n/a	n/a	n/a	n/a	23	6	9	8	n/a	n/a	n/a	n/a	n/a
344871	PROB	n/a	LTP066	ltpFR	11	n/a	n/a	n/a	n/a	n/a	n/a	6	2	3	1	n/a	n/a	n/a	n/a	n/a
345871	PROB	n/a	LTP066	ltpFR	11	n/a	n/a	n/a	n/a	n/a	n/a	11	8	1	2	n/a	n/a	n/a	n/a	n/a
346888	PROB	n/a	LTP066	ltpFR	11	n/a	n/a	n/a	n/a	n/a	n/a	19	5	8	6	n/a	n/a	n/a	n/a	n/a
348834	STOP	n/a	LTP066	ltpFR	11	n/a	n/a	n/a	n/a	n/a	n/a	n/a	n/a	n/a	n/a	n/a	n/a	n/a	n/a	n/a
350729	WORD	wordpools/wasnorm_wordpool.txt	LTP066	ltpFR	11	2	1	SPRINKLE	1359	n/a	0	n/a	0	0	0	1	0.412841796875	0.57763671875	upper	../fonts/amplitud.ttf
353730	START	n/a	LTP066	ltpFR	11	n/a	n/a	n/a	n/a	n/a	n/a	n/a	n/a	n/a	n/a	n/a	n/a	n/a	n/a	n/a
354704	PROB	n/a	LTP066	ltpFR	11	n/a	n/a	n/a	n/a	n/a	n/a	10	7	2	1	n/a	n/a	n/a	n/a	n/a
356021	PROB	n/a	LTP066	ltpFR	11	n/a	n/a	n/a	n/a	n/a	n/a	16	2	9	5	n/a	n/a	n/a	n/a	n/a
358037	PROB	n/a	LTP066	ltpFR	11	n/a	n/a	n/a	n/a	n/a	n/a	17	2	7	8	n/a	n/a	n/a	n/a	n/a
359554	PROB	n/a	LTP066	ltpFR	11	n/a	n/a	n/a	n/a	n/a	n/a	10	6	3	1	n/a	n/a	n/a	n/a	n/a
360451	STOP	n/a	LTP066	ltpFR	11	n/a	n/a	n/a	n/a	n/a	n/a	n/a	n/a	n/a	n/a	n/a	n/a	n/a	n/a	n/a
362753	WORD	wordpools/wasnorm_wordpool.txt	LTP066	ltpFR	11	2	1	RIVER	1194	n/a	0	n/a	0	0	0	1	0.412841796875	0.57763671875	upper	../fonts/amplitud.ttf
365754	START	n/a	LTP066	ltpFR	11	n/a	n/a	n/a	n/a	n/a	n/a	n/a	n/a	n/a	n/a	n/a	n/a	n/a	n/a	n/a
366570	PROB	n/a	LTP066	ltpFR	11	n/a	n/a	n/a	n/a	n/a	n/a	20	6	9	5	n/a	n/a	n/a	n/a	n/a
368728	PROB	n/a	LTP066	ltpFR	11	n/a	n/a	n/a	n/a	n/a	n/a	20	9	8	3	n/a	n/a	n/a	n/a	n/a
370136	PROB	n/a	LTP066	ltpFR	11	n/a	n/a	n/a	n/a	n/a	n/a	15	6	8	1	n/a	n/a	n/a	n/a	n/a
371211	PROB	n/a	LTP066	ltpFR	11	n/a	n/a	n/a	n/a	n/a	n/a	12	6	4	2	n/a	n/a	n/a	n/a	n/a
373227	STOP	n/a	LTP066	ltpFR	11	n/a	n/a	n/a	n/a	n/a	n/a	n/a	n/a	n/a	n/a	n/a	n/a	n/a	n/a	n/a
374611	WORD	wordpools/wasnorm_wordpool.txt	LTP066	ltpFR	11	2	1	PIKE	1067	n/a	0	n/a	0	0	0	1	0.412841796875	0.57763671875	upper	../fonts/amplitud.ttf
377619	START	n/a	LTP066	ltpFR	11	n/a	n/a	n/a	n/a	n/a	n/a	n/a	n/a	n/a	n/a	n/a	n/a	n/a	n/a	n/a
378602	PROB	n/a	LTP066	ltpFR	11	n/a	n/a	n/a	n/a	n/a	n/a	18	7	8	3	n/a	n/a	n/a	n/a	n/a
380069	PROB	n/a	LTP066	ltpFR	11	n/a	n/a	n/a	n/a	n/a	n/a	16	6	4	6	n/a	n/a	n/a	n/a	n/a
381235	PROB	n/a	LTP066	ltpFR	11	n/a	n/a	n/a	n/a	n/a	n/a	18	9	5	4	n/a	n/a	n/a	n/a	n/a
382402	PROB	n/a	LTP066	ltpFR	11	n/a	n/a	n/a	n/a	n/a	n/a	7	1	1	5	n/a	n/a	n/a	n/a	n/a
383377	PROB	n/a	LTP066	ltpFR	11	n/a	n/a	n/a	n/a	n/a	n/a	16	3	7	6	n/a	n/a	n/a	n/a	n/a
384563	STOP	n/a	LTP066	ltpFR	11	n/a	n/a	n/a	n/a	n/a	n/a	n/a	n/a	n/a	n/a	n/a	n/a	n/a	n/a	n/a
386693	WORD	wordpools/wasnorm_wordpool.txt	LTP066	ltpFR	11	2	1	ATTIC	56	n/a	0	n/a	0	0	0	1	0.412841796875	0.57763671875	upper	../fonts/amplitud.ttf
389694	START	n/a	LTP066	ltpFR	11	n/a	n/a	n/a	n/a	n/a	n/a	n/a	n/a	n/a	n/a	n/a	n/a	n/a	n/a	n/a
390801	PROB	n/a	LTP066	ltpFR	11	n/a	n/a	n/a	n/a	n/a	n/a	17	1	7	9	n/a	n/a	n/a	n/a	n/a
392026	PROB	n/a	LTP066	ltpFR	11	n/a	n/a	n/a	n/a	n/a	n/a	5	1	1	3	n/a	n/a	n/a	n/a	n/a
392985	PROB	n/a	LTP066	ltpFR	11	n/a	n/a	n/a	n/a	n/a	n/a	20	4	9	7	n/a	n/a	n/a	n/a	n/a
395034	PROB	n/a	LTP066	ltpFR	11	n/a	n/a	n/a	n/a	n/a	n/a	21	8	9	4	n/a	n/a	n/a	n/a	n/a
396339	STOP	n/a	LTP066	ltpFR	11	n/a	n/a	n/a	n/a	n/a	n/a	n/a	n/a	n/a	n/a	n/a	n/a	n/a	n/a	n/a
398867	WORD	wordpools/wasnorm_wordpool.txt	LTP066	ltpFR	11	2	1	PAW	1029	n/a	0	n/a	0	0	0	1	0.412841796875	0.57763671875	upper	../fonts/amplitud.ttf
401868	START	n/a	LTP066	ltpFR	11	n/a	n/a	n/a	n/a	n/a	n/a	n/a	n/a	n/a	n/a	n/a	n/a	n/a	n/a	n/a
402751	PROB	n/a	LTP066	ltpFR	11	n/a	n/a	n/a	n/a	n/a	n/a	16	7	2	7	n/a	n/a	n/a	n/a	n/a
404067	PROB	n/a	LTP066	ltpFR	11	n/a	n/a	n/a	n/a	n/a	n/a	21	8	6	7	n/a	n/a	n/a	n/a	n/a
405450	PROB	n/a	LTP066	ltpFR	11	n/a	n/a	n/a	n/a	n/a	n/a	18	3	9	6	n/a	n/a	n/a	n/a	n/a
406717	PROB	n/a	LTP066	ltpFR	11	n/a	n/a	n/a	n/a	n/a	n/a	11	4	2	5	n/a	n/a	n/a	n/a	n/a
408483	STOP	n/a	LTP066	ltpFR	11	n/a	n/a	n/a	n/a	n/a	n/a	n/a	n/a	n/a	n/a	n/a	n/a	n/a	n/a	n/a
410983	WORD	wordpools/wasnorm_wordpool.txt	LTP066	ltpFR	11	2	1	WAIST	1579	n/a	1	n/a	0	0	0	1	0.412841796875	0.57763671875	upper	../fonts/amplitud.ttf
413992	START	n/a	LTP066	ltpFR	11	n/a	n/a	n/a	n/a	n/a	n/a	n/a	n/a	n/a	n/a	n/a	n/a	n/a	n/a	n/a
415075	PROB	n/a	LTP066	ltpFR	11	n/a	n/a	n/a	n/a	n/a	n/a	13	4	3	6	n/a	n/a	n/a	n/a	n/a
418066	PROB	n/a	LTP066	ltpFR	11	n/a	n/a	n/a	n/a	n/a	n/a	11	1	6	4	n/a	n/a	n/a	n/a	n/a
419091	PROB	n/a	LTP066	ltpFR	11	n/a	n/a	n/a	n/a	n/a	n/a	18	5	9	7	n/a	n/a	n/a	n/a	n/a
420483	STOP	n/a	LTP066	ltpFR	11	n/a	n/a	n/a	n/a	n/a	n/a	n/a	n/a	n/a	n/a	n/a	n/a	n/a	n/a	n/a
422932	WORD	wordpools/wasnorm_wordpool.txt	LTP066	ltpFR	11	2	1	BEAVER	109	n/a	1	n/a	0	0	0	1	0.412841796875	0.57763671875	upper	../fonts/amplitud.ttf
425941	START	n/a	LTP066	ltpFR	11	n/a	n/a	n/a	n/a	n/a	n/a	n/a	n/a	n/a	n/a	n/a	n/a	n/a	n/a	n/a
426974	PROB	n/a	LTP066	ltpFR	11	n/a	n/a	n/a	n/a	n/a	n/a	111	7	3	1	n/a	n/a	n/a	n/a	n/a
428007	PROB	n/a	LTP066	ltpFR	11	n/a	n/a	n/a	n/a	n/a	n/a	14	1	6	7	n/a	n/a	n/a	n/a	n/a
429474	PROB	n/a	LTP066	ltpFR	11	n/a	n/a	n/a	n/a	n/a	n/a	23	8	9	6	n/a	n/a	n/a	n/a	n/a
431323	PROB	n/a	LTP066	ltpFR	11	n/a	n/a	n/a	n/a	n/a	n/a	13	1	8	4	n/a	n/a	n/a	n/a	n/a
433939	STOP	n/a	LTP066	ltpFR	11	n/a	n/a	n/a	n/a	n/a	n/a	n/a	n/a	n/a	n/a	n/a	n/a	n/a	n/a	n/a
434957	WORD	wordpools/wasnorm_wordpool.txt	LTP066	ltpFR	11	2	1	RECIPE	1175	n/a	0	n/a	0	0	0	1	0.412841796875	0.57763671875	upper	../fonts/amplitud.ttf
437965	START	n/a	LTP066	ltpFR	11	n/a	n/a	n/a	n/a	n/a	n/a	n/a	n/a	n/a	n/a	n/a	n/a	n/a	n/a	n/a
438773	PROB	n/a	LTP066	ltpFR	11	n/a	n/a	n/a	n/a	n/a	n/a	25	9	7	9	n/a	n/a	n/a	n/a	n/a
440548	PROB	n/a	LTP066	ltpFR	11	n/a	n/a	n/a	n/a	n/a	n/a	12	1	2	9	n/a	n/a	n/a	n/a	n/a
442006	PROB	n/a	LTP066	ltpFR	11	n/a	n/a	n/a	n/a	n/a	n/a	16	9	2	5	n/a	n/a	n/a	n/a	n/a
443231	PROB	n/a	LTP066	ltpFR	11	n/a	n/a	n/a	n/a	n/a	n/a	17	6	7	4	n/a	n/a	n/a	n/a	n/a
445059	STOP	n/a	LTP066	ltpFR	11	n/a	n/a	n/a	n/a	n/a	n/a	n/a	n/a	n/a	n/a	n/a	n/a	n/a	n/a	n/a
447714	REC_START	n/a	LTP066	ltpFR	11	2	n/a	n/a	n/a	n/a	n/a	n/a	0	0	0	n/a	n/a	n/a	n/a	n/a
451500	REC_WORD	wordpools/wasnorm_wordpool.txt	LTP066	ltpFR	11	2	1	PATIO	1025	n/a	0	n/a	0	0	0	n/a	n/a	n/a	n/a	n/a
454493	REC_WORD	wordpools/wasnorm_wordpool.txt	LTP066	ltpFR	11	2	1	POTATO	1115	n/a	1	n/a	0	0	0	n/a	n/a	n/a	n/a	n/a
455835	REC_WORD	wordpools/wasnorm_wordpool.txt	LTP066	ltpFR	11	2	1	TUNA	1518	n/a	1	n/a	0	0	0	n/a	n/a	n/a	n/a	n/a
457237	REC_WORD	wordpools/wasnorm_wordpool.txt	LTP066	ltpFR	11	2	1	FISH	571	n/a	1	n/a	0	0	0	n/a	n/a	n/a	n/a	n/a
460290	REC_WORD	wordpools/wasnorm_wordpool.txt	LTP066	ltpFR	11	2	1	COBRA	336	n/a	1	n/a	0	0	0	n/a	n/a	n/a	n/a	n/a
462939	REC_WORD	wordpools/wasnorm_wordpool.txt	LTP066	ltpFR	11	2	1	BOY	161	n/a	1	n/a	0	0	0	n/a	n/a	n/a	n/a	n/a
465299	REC_WORD	wordpools/wasnorm_wordpool.txt	LTP066	ltpFR	11	2	1	RIVER	1194	n/a	0	n/a	0	0	0	n/a	n/a	n/a	n/a	n/a
474638	REC_WORD	wordpools/wasnorm_wordpool.txt	LTP066	ltpFR	11	2	1	SPRINKLE	1359	n/a	0	n/a	0	0	0	n/a	n/a	n/a	n/a	n/a
481098	REC_WORD	wordpools/wasnorm_wordpool.txt	LTP066	ltpFR	11	2	1	ATTIC	56	n/a	0	n/a	0	0	0	n/a	n/a	n/a	n/a	n/a
482255	REC_WORD	wordpools/wasnorm_wordpool.txt	LTP066	ltpFR	11	2	1	BEAVER	109	n/a	1	n/a	0	0	0	n/a	n/a	n/a	n/a	n/a
498768	REC_WORD	wordpools/wasnorm_wordpool.txt	LTP066	ltpFR	11	2	1	HIP	710	n/a	0	n/a	0	0	0	n/a	n/a	n/a	n/a	n/a
499331	REC_WORD	wordpools/wasnorm_wordpool.txt	LTP066	ltpFR	11	2	1	WAIST	1579	n/a	1	n/a	0	0	0	n/a	n/a	n/a	n/a	n/a
504210	REC_WORD	wordpools/wasnorm_wordpool.txt	LTP066	ltpFR	11	2	1	PAW	1029	n/a	0	n/a	0	0	0	n/a	n/a	n/a	n/a	n/a
526416	WORD	wordpools/wasnorm_wordpool.txt	LTP066	ltpFR	11	3	0	COOKBOOK	373	n/a	1	n/a	0	0	0	0	0.5869140625	0.422607421875	lower	../fonts/zerothre.ttf
530466	WORD	wordpools/wasnorm_wordpool.txt	LTP066	ltpFR	11	3	0	SUGAR	1401	n/a	0	n/a	0	0	0	0	0.5869140625	0.422607421875	lower	../fonts/zerothre.ttf
534549	WORD	wordpools/wasnorm_wordpool.txt	LTP066	ltpFR	11	3	0	BOWL	158	n/a	0	n/a	0	0	0	0	0.5869140625	0.422607421875	lower	../fonts/zerothre.ttf
538540	WORD	wordpools/wasnorm_wordpool.txt	LTP066	ltpFR	11	3	1	EMPEROR	529	n/a	1	n/a	0	0	0	1	0.412841796875	0.57763671875	upper	../fonts/amplitud.ttf
542582	WORD	wordpools/wasnorm_wordpool.txt	LTP066	ltpFR	11	3	1	LOLLIPOP	842	n/a	0	n/a	0	0	0	1	0.412841796875	0.57763671875	upper	../fonts/amplitud.ttf
546415	WORD	wordpools/wasnorm_wordpool.txt	LTP066	ltpFR	11	3	1	KETTLE	772	n/a	0	n/a	0	0	0	1	0.412841796875	0.57763671875	upper	../fonts/amplitud.ttf
550631	WORD	wordpools/wasnorm_wordpool.txt	LTP066	ltpFR	11	3	1	DISH	474	n/a	0	n/a	0	0	0	1	0.412841796875	0.57763671875	upper	../fonts/amplitud.ttf
554481	WORD	wordpools/wasnorm_wordpool.txt	LTP066	ltpFR	11	3	1	BOXER	160	n/a	0	n/a	0	0	0	1	0.412841796875	0.57763671875	upper	../fonts/amplitud.ttf
558414	WORD	wordpools/wasnorm_wordpool.txt	LTP066	ltpFR	11	3	1	SHORTS	1293	n/a	n/a	n/a	0	0	0	1	0.412841796875	0.57763671875	upper	../fonts/amplitud.ttf
561439	SLOW_MSG	n/a	LTP066	ltpFR	11	3	n/a	n/a	n/a	n/a	n/a	n/a	0	0	0	n/a	n/a	n/a	n/a	n/a
563955	WORD	wordpools/wasnorm_wordpool.txt	LTP066	ltpFR	11	3	0	VET	1560	n/a	1	n/a	0	0	0	0	0.5869140625	0.422607421875	lower	../fonts/zerothre.ttf
567972	WORD	wordpools/wasnorm_wordpool.txt	LTP066	ltpFR	11	3	0	FLEA	577	n/a	0	n/a	0	0	0	0	0.5869140625	0.422607421875	lower	../fonts/zerothre.ttf
572113	WORD	wordpools/wasnorm_wordpool.txt	LTP066	ltpFR	11	3	1	PLUM	1090	n/a	0	n/a	0	0	0	1	0.412841796875	0.57763671875	upper	../fonts/amplitud.ttf
576104	WORD	wordpools/wasnorm_wordpool.txt	LTP066	ltpFR	11	3	1	DAM	436	n/a	0	n/a	0	0	0	1	0.412841796875	0.57763671875	upper	../fonts/amplitud.ttf
579962	WORD	wordpools/wasnorm_wordpool.txt	LTP066	ltpFR	11	3	0	DIVER	476	n/a	1	n/a	0	0	0	0	0.5869140625	0.422607421875	lower	../fonts/zerothre.ttf
583921	WORD	wordpools/wasnorm_wordpool.txt	LTP066	ltpFR	11	3	0	TERMINAL	1450	n/a	1	n/a	0	0	0	0	0.5869140625	0.422607421875	lower	../fonts/zerothre.ttf
587937	WORD	wordpools/wasnorm_wordpool.txt	LTP066	ltpFR	11	3	0	ACTOR	5	n/a	1	n/a	0	0	0	0	0.5869140625	0.422607421875	lower	../fonts/zerothre.ttf
593803	REC_START	n/a	LTP066	ltpFR	11	3	n/a	n/a	n/a	n/a	n/a	n/a	0	0	0	n/a	n/a	n/a	n/a	n/a
600113	REC_WORD	wordpools/wasnorm_wordpool.txt	LTP066	ltpFR	11	3	1	BOXER	160	n/a	0	n/a	0	0	0	n/a	n/a	n/a	n/a	n/a
605197	REC_WORD	wordpools/wasnorm_wordpool.txt	LTP066	ltpFR	11	3	0	COOKBOOK	373	n/a	1	n/a	0	0	0	n/a	n/a	n/a	n/a	n/a
607981	REC_WORD	wordpools/wasnorm_wordpool.txt	LTP066	ltpFR	11	3	0	SUGAR	1401	n/a	0	n/a	0	0	0	n/a	n/a	n/a	n/a	n/a
609173	REC_WORD	wordpools/wasnorm_wordpool.txt	LTP066	ltpFR	11	3	0	BOWL	158	n/a	0	n/a	0	0	0	n/a	n/a	n/a	n/a	n/a
622039	REC_WORD	wordpools/wasnorm_wordpool.txt	LTP066	ltpFR	11	3	1	LOLLIPOP	842	n/a	0	n/a	0	0	0	n/a	n/a	n/a	n/a	n/a
623291	REC_WORD	wordpools/wasnorm_wordpool.txt	LTP066	ltpFR	11	3	1	EMPEROR	529	n/a	1	n/a	0	0	0	n/a	n/a	n/a	n/a	n/a
627855	REC_WORD	wordpools/wasnorm_wordpool.txt	LTP066	ltpFR	11	3	0	DIVER	476	n/a	1	n/a	0	0	0	n/a	n/a	n/a	n/a	n/a
629087	REC_WORD	wordpools/wasnorm_wordpool.txt	LTP066	ltpFR	11	3	1	PLUM	1090	n/a	0	n/a	0	0	0	n/a	n/a	n/a	n/a	n/a
630743	REC_WORD	wordpools/wasnorm_wordpool.txt	LTP066	ltpFR	11	3	0	FLEA	577	n/a	0	n/a	0	0	0	n/a	n/a	n/a	n/a	n/a
671214	START	n/a	LTP066	ltpFR	11	n/a	n/a	n/a	n/a	n/a	n/a	n/a	n/a	n/a	n/a	n/a	n/a	n/a	n/a	n/a
672722	PROB	n/a	LTP066	ltpFR	11	n/a	n/a	n/a	n/a	n/a	n/a	18	8	4	6	n/a	n/a	n/a	n/a	n/a
674514	PROB	n/a	LTP066	ltpFR	11	n/a	n/a	n/a	n/a	n/a	n/a	8	4	2	2	n/a	n/a	n/a	n/a	n/a
675972	PROB	n/a	LTP066	ltpFR	11	n/a	n/a	n/a	n/a	n/a	n/a	15	5	5	5	n/a	n/a	n/a	n/a	n/a
676914	PROB	n/a	LTP066	ltpFR	11	n/a	n/a	n/a	n/a	n/a	n/a	11	6	3	2	n/a	n/a	n/a	n/a	n/a
678395	STOP	n/a	LTP066	ltpFR	11	n/a	n/a	n/a	n/a	n/a	n/a	n/a	n/a	n/a	n/a	n/a	n/a	n/a	n/a	n/a
680272	WORD	wordpools/wasnorm_wordpool.txt	LTP066	ltpFR	11	4	0	MECHANIC	884	n/a	1	n/a	0	0	0	0	0.5869140625	0.422607421875	lower	../fonts/zerothre.ttf
683280	START	n/a	LTP066	ltpFR	11	n/a	n/a	n/a	n/a	n/a	n/a	n/a	n/a	n/a	n/a	n/a	n/a	n/a	n/a	n/a
684371	PROB	n/a	LTP066	ltpFR	11	n/a	n/a	n/a	n/a	n/a	n/a	8	1	2	5	n/a	n/a	n/a	n/a	n/a
685480	PROB	n/a	LTP066	ltpFR	11	n/a	n/a	n/a	n/a	n/a	n/a	15	1	9	5	n/a	n/a	n/a	n/a	n/a
686471	PROB	n/a	LTP066	ltpFR	11	n/a	n/a	n/a	n/a	n/a	n/a	15	9	4	2	n/a	n/a	n/a	n/a	n/a
687638	PROB	n/a	LTP066	ltpFR	11	n/a	n/a	n/a	n/a	n/a	n/a	14	6	6	2	n/a	n/a	n/a	n/a	n/a
688763	PROB	n/a	LTP066	ltpFR	11	n/a	n/a	n/a	n/a	n/a	n/a	14	7	1	6	n/a	n/a	n/a	n/a	n/a
689771	STOP	n/a	LTP066	ltpFR	11	n/a	n/a	n/a	n/a	n/a	n/a	n/a	n/a	n/a	n/a	n/a	n/a	n/a	n/a	n/a
692279	WORD	wordpools/wasnorm_wordpool.txt	LTP066	ltpFR	11	4	0	LAKE	796	n/a	1	n/a	0	0	0	0	0.5869140625	0.422607421875	lower	../fonts/zerothre.ttf
695288	START	n/a	LTP066	ltpFR	11	n/a	n/a	n/a	n/a	n/a	n/a	n/a	n/a	n/a	n/a	n/a	n/a	n/a	n/a	n/a
696304	PROB	n/a	LTP066	ltpFR	11	n/a	n/a	n/a	n/a	n/a	n/a	21	3	9	9	n/a	n/a	n/a	n/a	n/a
697729	PROB	n/a	LTP066	ltpFR	11	n/a	n/a	n/a	n/a	n/a	n/a	18	7	6	5	n/a	n/a	n/a	n/a	n/a
699645	PROB	n/a	LTP066	ltpFR	11	n/a	n/a	n/a	n/a	n/a	n/a	16	6	3	7	n/a	n/a	n/a	n/a	n/a
703288	STOP	n/a	LTP066	ltpFR	11	n/a	n/a	n/a	n/a	n/a	n/a	n/a	n/a	n/a	n/a	n/a	n/a	n/a	n/a	n/a
704437	WORD	wordpools/wasnorm_wordpool.txt	LTP066	ltpFR	11	4	0	BUN	197	n/a	1	n/a	0	0	0	0	0.5869140625	0.422607421875	lower	../fonts/zerothre.ttf
707445	START	n/a	LTP066	ltpFR	11	n/a	n/a	n/a	n/a	n/a	n/a	n/a	n/a	n/a	n/a	n/a	n/a	n/a	n/a	n/a
708295	PROB	n/a	LTP066	ltpFR	11	n/a	n/a	n/a	n/a	n/a	n/a	11	1	8	2	n/a	n/a	n/a	n/a	n/a
709595	PROB	n/a	LTP066	ltpFR	11	n/a	n/a	n/a	n/a	n/a	n/a	26	8	9	9	n/a	n/a	n/a	n/a	n/a
715445	STOP	n/a	LTP066	ltpFR	11	n/a	n/a	n/a	n/a	n/a	n/a	n/a	n/a	n/a	n/a	n/a	n/a	n/a	n/a	n/a
716561	WORD	wordpools/wasnorm_wordpool.txt	LTP066	ltpFR	11	4	0	HUT	729	n/a	1	n/a	0	0	0	0	0.5869140625	0.422607421875	lower	../fonts/zerothre.ttf
719569	START	n/a	LTP066	ltpFR	11	n/a	n/a	n/a	n/a	n/a	n/a	n/a	n/a	n/a	n/a	n/a	n/a	n/a	n/a	n/a
720427	PROB	n/a	LTP066	ltpFR	11	n/a	n/a	n/a	n/a	n/a	n/a	14	7	3	4	n/a	n/a	n/a	n/a	n/a
722085	PROB	n/a	LTP066	ltpFR	11	n/a	n/a	n/a	n/a	n/a	n/a	18	3	9	6	n/a	n/a	n/a	n/a	n/a
724027	PROB	n/a	LTP066	ltpFR	11	n/a	n/a	n/a	n/a	n/a	n/a	1	1	7	4	n/a	n/a	n/a	n/a	n/a
725018	PROB	n/a	LTP066	ltpFR	11	n/a	n/a	n/a	n/a	n/a	n/a	22	7	8	7	n/a	n/a	n/a	n/a	n/a
727299	STOP	n/a	LTP066	ltpFR	11	n/a	n/a	n/a	n/a	n/a	n/a	n/a	n/a	n/a	n/a	n/a	n/a	n/a	n/a	n/a
728718	WORD	wordpools/wasnorm_wordpool.txt	LTP066	ltpFR	11	4	0	BEER	114	n/a	0	n/a	0	0	0	0	0.5869140625	0.422607421875	lower	../fonts/zerothre.ttf
731727	START	n/a	LTP066	ltpFR	11	n/a	n/a	n/a	n/a	n/a	n/a	n/a	n/a	n/a	n/a	n/a	n/a	n/a	n/a	n/a
732718	PROB	n/a	LTP066	ltpFR	11	n/a	n/a	n/a	n/a	n/a	n/a	14	6	3	5	n/a	n/a	n/a	n/a	n/a
734825	PROB	n/a	LTP066	ltpFR	11	n/a	n/a	n/a	n/a	n/a	n/a	13	3	2	8	n/a	n/a	n/a	n/a	n/a
736326	PROB	n/a	LTP066	ltpFR	11	n/a	n/a	n/a	n/a	n/a	n/a	13	1	5	7	n/a	n/a	n/a	n/a	n/a
737276	PROB	n/a	LTP066	ltpFR	11	n/a	n/a	n/a	n/a	n/a	n/a	24	9	8	7	n/a	n/a	n/a	n/a	n/a
738907	STOP	n/a	LTP066	ltpFR	11	n/a	n/a	n/a	n/a	n/a	n/a	n/a	n/a	n/a	n/a	n/a	n/a	n/a	n/a	n/a
740833	WORD	wordpools/wasnorm_wordpool.txt	LTP066	ltpFR	11	4	0	BEVERAGE	123	n/a	0	n/a	0	0	0	0	0.5869140625	0.422607421875	lower	../fonts/zerothre.ttf
743841	START	n/a	LTP066	ltpFR	11	n/a	n/a	n/a	n/a	n/a	n/a	n/a	n/a	n/a	n/a	n/a	n/a	n/a	n/a	n/a
744850	PROB	n/a	LTP066	ltpFR	11	n/a	n/a	n/a	n/a	n/a	n/a	13	2	4	7	n/a	n/a	n/a	n/a	n/a
747233	PROB	n/a	LTP066	ltpFR	11	n/a	n/a	n/a	n/a	n/a	n/a	17	9	2	6	n/a	n/a	n/a	n/a	n/a
748508	PROB	n/a	LTP066	ltpFR	11	n/a	n/a	n/a	n/a	n/a	n/a	13	2	5	6	n/a	n/a	n/a	n/a	n/a
750387	STOP	n/a	LTP066	ltpFR	11	n/a	n/a	n/a	n/a	n/a	n/a	n/a	n/a	n/a	n/a	n/a	n/a	n/a	n/a	n/a
752950	WORD	wordpools/wasnorm_wordpool.txt	LTP066	ltpFR	11	4	0	TABLET	1427	n/a	1	n/a	0	0	0	0	0.5869140625	0.422607421875	lower	../fonts/zerothre.ttf
755958	START	n/a	LTP066	ltpFR	11	n/a	n/a	n/a	n/a	n/a	n/a	n/a	n/a	n/a	n/a	n/a	n/a	n/a	n/a	n/a
757133	PROB	n/a	LTP066	ltpFR	11	n/a	n/a	n/a	n/a	n/a	n/a	17	2	9	6	n/a	n/a	n/a	n/a	n/a
759299	PROB	n/a	LTP066	ltpFR	11	n/a	n/a	n/a	n/a	n/a	n/a	13	2	5	6	n/a	n/a	n/a	n/a	n/a
761624	PROB	n/a	LTP066	ltpFR	11	n/a	n/a	n/a	n/a	n/a	n/a	19	2	9	8	n/a	n/a	n/a	n/a	n/a
763051	STOP	n/a	LTP066	ltpFR	11	n/a	n/a	n/a	n/a	n/a	n/a	n/a	n/a	n/a	n/a	n/a	n/a	n/a	n/a	n/a
764990	WORD	wordpools/wasnorm_wordpool.txt	LTP066	ltpFR	11	4	0	SANDWICH	1232	n/a	0	n/a	0	0	0	0	0.5869140625	0.422607421875	lower	../fonts/zerothre.ttf
767991	START	n/a	LTP066	ltpFR	11	n/a	n/a	n/a	n/a	n/a	n/a	n/a	n/a	n/a	n/a	n/a	n/a	n/a	n/a	n/a
768982	PROB	n/a	LTP066	ltpFR	11	n/a	n/a	n/a	n/a	n/a	n/a	14	3	9	2	n/a	n/a	n/a	n/a	n/a
770548	PROB	n/a	LTP066	ltpFR	11	n/a	n/a	n/a	n/a	n/a	n/a	13	5	2	6	n/a	n/a	n/a	n/a	n/a
772615	PROB	n/a	LTP066	ltpFR	11	n/a	n/a	n/a	n/a	n/a	n/a	14	7	1	4	n/a	n/a	n/a	n/a	n/a
773623	PROB	n/a	LTP066	ltpFR	11	n/a	n/a	n/a	n/a	n/a	n/a	12	1	8	4	n/a	n/a	n/a	n/a	n/a
774915	STOP	n/a	LTP066	ltpFR	11	n/a	n/a	n/a	n/a	n/a	n/a	n/a	n/a	n/a	n/a	n/a	n/a	n/a	n/a	n/a
776873	WORD	wordpools/wasnorm_wordpool.txt	LTP066	ltpFR	11	4	0	HELICOPTER	701	n/a	1	n/a	0	0	0	0	0.5869140625	0.422607421875	lower	../fonts/zerothre.ttf
779881	START	n/a	LTP066	ltpFR	11	n/a	n/a	n/a	n/a	n/a	n/a	n/a	n/a	n/a	n/a	n/a	n/a	n/a	n/a	n/a
780689	PROB	n/a	LTP066	ltpFR	11	n/a	n/a	n/a	n/a	n/a	n/a	21	6	7	8	n/a	n/a	n/a	n/a	n/a
782039	PROB	n/a	LTP066	ltpFR	11	n/a	n/a	n/a	n/a	n/a	n/a	21	9	3	9	n/a	n/a	n/a	n/a	n/a
783447	PROB	n/a	LTP066	ltpFR	11	n/a	n/a	n/a	n/a	n/a	n/a	12	8	3	1	n/a	n/a	n/a	n/a	n/a
784672	PROB	n/a	LTP066	ltpFR	11	n/a	n/a	n/a	n/a	n/a	n/a	19	8	2	9	n/a	n/a	n/a	n/a	n/a
786056	PROB	n/a	LTP066	ltpFR	11	n/a	n/a	n/a	n/a	n/a	n/a	13	6	2	5	n/a	n/a	n/a	n/a	n/a
786955	STOP	n/a	LTP066	ltpFR	11	n/a	n/a	n/a	n/a	n/a	n/a	n/a	n/a	n/a	n/a	n/a	n/a	n/a	n/a	n/a
788955	WORD	wordpools/wasnorm_wordpool.txt	LTP066	ltpFR	11	4	0	LUGGAGE	847	n/a	1	n/a	0	0	0	0	0.5869140625	0.422607421875	lower	../fonts/zerothre.ttf
791964	START	n/a	LTP066	ltpFR	11	n/a	n/a	n/a	n/a	n/a	n/a	n/a	n/a	n/a	n/a	n/a	n/a	n/a	n/a	n/a
793138	PROB	n/a	LTP066	ltpFR	11	n/a	n/a	n/a	n/a	n/a	n/a	17	9	7	1	n/a	n/a	n/a	n/a	n/a
794413	PROB	n/a	LTP066	ltpFR	11	n/a	n/a	n/a	n/a	n/a	n/a	20	3	8	9	n/a	n/a	n/a	n/a	n/a
796188	PROB	n/a	LTP066	ltpFR	11	n/a	n/a	n/a	n/a	n/a	n/a	22	5	8	9	n/a	n/a	n/a	n/a	n/a
797771	PROB	n/a	LTP066	ltpFR	11	n/a	n/a	n/a	n/a	n/a	n/a	15	6	3	6	n/a	n/a	n/a	n/a	n/a
799083	STOP	n/a	LTP066	ltpFR	11	n/a	n/a	n/a	n/a	n/a	n/a	n/a	n/a	n/a	n/a	n/a	n/a	n/a	n/a	n/a
800938	WORD	wordpools/wasnorm_wordpool.txt	LTP066	ltpFR	11	4	0	CITRUS	313	n/a	0	n/a	0	0	0	0	0.5869140625	0.422607421875	lower	../fonts/zerothre.ttf
803946	START	n/a	LTP066	ltpFR	11	n/a	n/a	n/a	n/a	n/a	n/a	n/a	n/a	n/a	n/a	n/a	n/a	n/a	n/a	n/a
805137	PROB	n/a	LTP066	ltpFR	11	n/a	n/a	n/a	n/a	n/a	n/a	22	6	8	8	n/a	n/a	n/a	n/a	n/a
807104	PROB	n/a	LTP066	ltpFR	11	n/a	n/a	n/a	n/a	n/a	n/a	9	2	6	1	n/a	n/a	n/a	n/a	n/a
808112	PROB	n/a	LTP066	ltpFR	11	n/a	n/a	n/a	n/a	n/a	n/a	15	7	1	7	n/a	n/a	n/a	n/a	n/a
809237	PROB	n/a	LTP066	ltpFR	11	n/a	n/a	n/a	n/a	n/a	n/a	25	8	8	9	n/a	n/a	n/a	n/a	n/a
810699	STOP	n/a	LTP066	ltpFR	11	n/a	n/a	n/a	n/a	n/a	n/a	n/a	n/a	n/a	n/a	n/a	n/a	n/a	n/a	n/a
812854	WORD	wordpools/wasnorm_wordpool.txt	LTP066	ltpFR	11	4	0	BERRY	122	n/a	0	n/a	0	0	0	0	0.5869140625	0.422607421875	lower	../fonts/zerothre.ttf
815862	START	n/a	LTP066	ltpFR	11	n/a	n/a	n/a	n/a	n/a	n/a	n/a	n/a	n/a	n/a	n/a	n/a	n/a	n/a	n/a
816753	PROB	n/a	LTP066	ltpFR	11	n/a	n/a	n/a	n/a	n/a	n/a	24	9	6	9	n/a	n/a	n/a	n/a	n/a
818537	PROB	n/a	LTP066	ltpFR	11	n/a	n/a	n/a	n/a	n/a	n/a	15	1	6	8	n/a	n/a	n/a	n/a	n/a
819886	PROB	n/a	LTP066	ltpFR	11	n/a	n/a	n/a	n/a	n/a	n/a	14	7	1	6	n/a	n/a	n/a	n/a	n/a
820986	PROB	n/a	LTP066	ltpFR	11	n/a	n/a	n/a	n/a	n/a	n/a	16	6	5	5	n/a	n/a	n/a	n/a	n/a
822095	PROB	n/a	LTP066	ltpFR	11	n/a	n/a	n/a	n/a	n/a	n/a	12	3	2	7	n/a	n/a	n/a	n/a	n/a
823683	STOP	n/a	LTP066	ltpFR	11	n/a	n/a	n/a	n/a	n/a	n/a	n/a	n/a	n/a	n/a	n/a	n/a	n/a	n/a	n/a
824728	WORD	wordpools/wasnorm_wordpool.txt	LTP066	ltpFR	11	4	0	TEAPOT	1442	n/a	0	n/a	0	0	0	0	0.5869140625	0.422607421875	lower	../fonts/zerothre.ttf
827736	START	n/a	LTP066	ltpFR	11	n/a	n/a	n/a	n/a	n/a	n/a	n/a	n/a	n/a	n/a	n/a	n/a	n/a	n/a	n/a
828727	PROB	n/a	LTP066	ltpFR	11	n/a	n/a	n/a	n/a	n/a	n/a	16	4	8	4	n/a	n/a	n/a	n/a	n/a
830194	PROB	n/a	LTP066	ltpFR	11	n/a	n/a	n/a	n/a	n/a	n/a	17	4	5	8	n/a	n/a	n/a	n/a	n/a
833269	PROB	n/a	LTP066	ltpFR	11	n/a	n/a	n/a	n/a	n/a	n/a	18	7	4	7	n/a	n/a	n/a	n/a	n/a
834419	STOP	n/a	LTP066	ltpFR	11	n/a	n/a	n/a	n/a	n/a	n/a	n/a	n/a	n/a	n/a	n/a	n/a	n/a	n/a	n/a
836817	WORD	wordpools/wasnorm_wordpool.txt	LTP066	ltpFR	11	4	0	TWEEZERS	1526	n/a	2	n/a	0	0	0	0	0.5869140625	0.422607421875	lower	../fonts/zerothre.ttf
837652	KEY_MSG	n/a	LTP066	ltpFR	11	4	n/a	n/a	n/a	n/a	n/a	n/a	0	0	0	n/a	n/a	n/a	n/a	n/a
839818	START	n/a	LTP066	ltpFR	11	n/a	n/a	n/a	n/a	n/a	n/a	n/a	n/a	n/a	n/a	n/a	n/a	n/a	n/a	n/a
840685	PROB	n/a	LTP066	ltpFR	11	n/a	n/a	n/a	n/a	n/a	n/a	13	4	5	4	n/a	n/a	n/a	n/a	n/a
842668	PROB	n/a	LTP066	ltpFR	11	n/a	n/a	n/a	n/a	n/a	n/a	11	1	1	9	n/a	n/a	n/a	n/a	n/a
843701	PROB	n/a	LTP066	ltpFR	11	n/a	n/a	n/a	n/a	n/a	n/a	15	9	5	2	n/a	n/a	n/a	n/a	n/a
844768	PROB	n/a	LTP066	ltpFR	11	n/a	n/a	n/a	n/a	n/a	n/a	12	1	7	4	n/a	n/a	n/a	n/a	n/a
846371	STOP	n/a	LTP066	ltpFR	11	n/a	n/a	n/a	n/a	n/a	n/a	n/a	n/a	n/a	n/a	n/a	n/a	n/a	n/a	n/a
848793	WORD	wordpools/wasnorm_wordpool.txt	LTP066	ltpFR	11	4	0	NOOSE	956	n/a	1	n/a	0	0	0	0	0.5869140625	0.422607421875	lower	../fonts/zerothre.ttf
851801	START	n/a	LTP066	ltpFR	11	n/a	n/a	n/a	n/a	n/a	n/a	n/a	n/a	n/a	n/a	n/a	n/a	n/a	n/a	n/a
852833	PROB	n/a	LTP066	ltpFR	11	n/a	n/a	n/a	n/a	n/a	n/a	14	8	3	3	n/a	n/a	n/a	n/a	n/a
854492	PROB	n/a	LTP066	ltpFR	11	n/a	n/a	n/a	n/a	n/a	n/a	13	6	5	2	n/a	n/a	n/a	n/a	n/a
856542	PROB	n/a	LTP066	ltpFR	11	n/a	n/a	n/a	n/a	n/a	n/a	15	3	6	6	n/a	n/a	n/a	n/a	n/a
858184	PROB	n/a	LTP066	ltpFR	11	n/a	n/a	n/a	n/a	n/a	n/a	17	4	7	6	n/a	n/a	n/a	n/a	n/a
859619	STOP	n/a	LTP066	ltpFR	11	n/a	n/a	n/a	n/a	n/a	n/a	n/a	n/a	n/a	n/a	n/a	n/a	n/a	n/a	n/a
860824	WORD	wordpools/wasnorm_wordpool.txt	LTP066	ltpFR	11	4	0	SHACK	1273	n/a	1	n/a	0	0	0	0	0.5869140625	0.422607421875	lower	../fonts/zerothre.ttf
863832	START	n/a	LTP066	ltpFR	11	n/a	n/a	n/a	n/a	n/a	n/a	n/a	n/a	n/a	n/a	n/a	n/a	n/a	n/a	n/a
864958	PROB	n/a	LTP066	ltpFR	11	n/a	n/a	n/a	n/a	n/a	n/a	16	8	7	1	n/a	n/a	n/a	n/a	n/a
866125	PROB	n/a	LTP066	ltpFR	11	n/a	n/a	n/a	n/a	n/a	n/a	13	6	3	4	n/a	n/a	n/a	n/a	n/a
867916	PROB	n/a	LTP066	ltpFR	11	n/a	n/a	n/a	n/a	n/a	n/a	19	9	1	9	n/a	n/a	n/a	n/a	n/a
869191	PROB	n/a	LTP066	ltpFR	11	n/a	n/a	n/a	n/a	n/a	n/a	14	7	1	6	n/a	n/a	n/a	n/a	n/a
870216	PROB	n/a	LTP066	ltpFR	11	n/a	n/a	n/a	n/a	n/a	n/a	12	3	1	8	n/a	n/a	n/a	n/a	n/a
871219	STOP	n/a	LTP066	ltpFR	11	n/a	n/a	n/a	n/a	n/a	n/a	n/a	n/a	n/a	n/a	n/a	n/a	n/a	n/a	n/a
873625	REC_START	n/a	LTP066	ltpFR	11	4	n/a	n/a	n/a	n/a	n/a	n/a	0	0	0	n/a	n/a	n/a	n/a	n/a
877392	REC_WORD	wordpools/wasnorm_wordpool.txt	LTP066	ltpFR	11	4	0	NOOSE	956	n/a	1	n/a	0	0	0	n/a	n/a	n/a	n/a	n/a
878294	REC_WORD	wordpools/wasnorm_wordpool.txt	LTP066	ltpFR	11	4	0	SHACK	1273	n/a	1	n/a	0	0	0	n/a	n/a	n/a	n/a	n/a
881242	REC_WORD	wordpools/wasnorm_wordpool.txt	LTP066	ltpFR	11	4	0	MECHANIC	884	n/a	1	n/a	0	0	0	n/a	n/a	n/a	n/a	n/a
887977	REC_WORD	wordpools/wasnorm_wordpool.txt	LTP066	ltpFR	11	4	1	RIVER	1194	n/a	0	n/a	0	0	0	n/a	n/a	n/a	n/a	n/a
890761	REC_WORD	wordpools/wasnorm_wordpool.txt	LTP066	ltpFR	11	4	0	BEER	114	n/a	0	n/a	0	0	0	n/a	n/a	n/a	n/a	n/a
891873	REC_WORD	wordpools/wasnorm_wordpool.txt	LTP066	ltpFR	11	4	0	HUT	729	n/a	1	n/a	0	0	0	n/a	n/a	n/a	n/a	n/a
894617	REC_WORD	wordpools/wasnorm_wordpool.txt	LTP066	ltpFR	11	4	0	BEVERAGE	123	n/a	0	n/a	0	0	0	n/a	n/a	n/a	n/a	n/a
896897	REC_WORD	wordpools/wasnorm_wordpool.txt	LTP066	ltpFR	11	4	0	TABLET	1427	n/a	1	n/a	0	0	0	n/a	n/a	n/a	n/a	n/a
897845	REC_WORD	wordpools/wasnorm_wordpool.txt	LTP066	ltpFR	11	4	0	SANDWICH	1232	n/a	0	n/a	0	0	0	n/a	n/a	n/a	n/a	n/a
899042	REC_WORD	wordpools/wasnorm_wordpool.txt	LTP066	ltpFR	11	4	0	HELICOPTER	701	n/a	1	n/a	0	0	0	n/a	n/a	n/a	n/a	n/a
901376	REC_WORD	wordpools/wasnorm_wordpool.txt	LTP066	ltpFR	11	4	n/a	SUITCASE	1403	n/a	n/a	n/a	0	0	0	n/a	n/a	n/a	n/a	n/a
903836	REC_WORD	wordpools/wasnorm_wordpool.txt	LTP066	ltpFR	11	4	0	CITRUS	313	n/a	0	n/a	0	0	0	n/a	n/a	n/a	n/a	n/a
905023	REC_WORD	wordpools/wasnorm_wordpool.txt	LTP066	ltpFR	11	4	0	BERRY	122	n/a	0	n/a	0	0	0	n/a	n/a	n/a	n/a	n/a
950834	START	n/a	LTP066	ltpFR	11	n/a	n/a	n/a	n/a	n/a	n/a	n/a	n/a	n/a	n/a	n/a	n/a	n/a	n/a	n/a
952335	PROB	n/a	LTP066	ltpFR	11	n/a	n/a	n/a	n/a	n/a	n/a	19	8	4	7	n/a	n/a	n/a	n/a	n/a
954601	PROB	n/a	LTP066	ltpFR	11	n/a	n/a	n/a	n/a	n/a	n/a	22	7	9	6	n/a	n/a	n/a	n/a	n/a
956185	PROB	n/a	LTP066	ltpFR	11	n/a	n/a	n/a	n/a	n/a	n/a	14	3	8	2	n/a	n/a	n/a	n/a	n/a
957376	PROB	n/a	LTP066	ltpFR	11	n/a	n/a	n/a	n/a	n/a	n/a	20	9	8	3	n/a	n/a	n/a	n/a	n/a
958876	PROB	n/a	LTP066	ltpFR	11	n/a	n/a	n/a	n/a	n/a	n/a	18	8	2	8	n/a	n/a	n/a	n/a	n/a
960134	PROB	n/a	LTP066	ltpFR	11	n/a	n/a	n/a	n/a	n/a	n/a	10	4	1	5	n/a	n/a	n/a	n/a	n/a
961259	PROB	n/a	LTP066	ltpFR	11	n/a	n/a	n/a	n/a	n/a	n/a	19	6	4	9	n/a	n/a	n/a	n/a	n/a
962459	PROB	n/a	LTP066	ltpFR	11	n/a	n/a	n/a	n/a	n/a	n/a	13	8	2	3	n/a	n/a	n/a	n/a	n/a
963934	PROB	n/a	LTP066	ltpFR	11	n/a	n/a	n/a	n/a	n/a	n/a	12	2	1	9	n/a	n/a	n/a	n/a	n/a
964909	PROB	n/a	LTP066	ltpFR	11	n/a	n/a	n/a	n/a	n/a	n/a	8	3	1	4	n/a	n/a	n/a	n/a	n/a
965859	STOP	n/a	LTP066	ltpFR	11	n/a	n/a	n/a	n/a	n/a	n/a	n/a	n/a	n/a	n/a	n/a	n/a	n/a	n/a	n/a
967909	WORD	wordpools/wasnorm_wordpool.txt	LTP066	ltpFR	11	5	0	MONUMENT	913	n/a	1	n/a	0	0	0	0	0.5869140625	0.422607421875	lower	../fonts/zerothre.ttf
970917	START	n/a	LTP066	ltpFR	11	n/a	n/a	n/a	n/a	n/a	n/a	n/a	n/a	n/a	n/a	n/a	n/a	n/a	n/a	n/a
971975	PROB	n/a	LTP066	ltpFR	11	n/a	n/a	n/a	n/a	n/a	n/a	22	9	5	8	n/a	n/a	n/a	n/a	n/a
973675	PROB	n/a	LTP066	ltpFR	11	n/a	n/a	n/a	n/a	n/a	n/a	9	6	1	2	n/a	n/a	n/a	n/a	n/a
974675	PROB	n/a	LTP066	ltpFR	11	n/a	n/a	n/a	n/a	n/a	n/a	9	2	4	5	n/a	n/a	n/a	n/a	n/a
976083	PROB	n/a	LTP066	ltpFR	11	n/a	n/a	n/a	n/a	n/a	n/a	17	3	8	6	n/a	n/a	n/a	n/a	n/a
977958	PROB	n/a	LTP066	ltpFR	11	n/a	n/a	n/a	n/a	n/a	n/a	25	8	9	8	n/a	n/a	n/a	n/a	n/a
979516	PROB	n/a	LTP066	ltpFR	11	n/a	n/a	n/a	n/a	n/a	n/a	20	6	6	8	n/a	n/a	n/a	n/a	n/a
980840	PROB	n/a	LTP066	ltpFR	11	n/a	n/a	n/a	n/a	n/a	n/a	17	6	8	3	n/a	n/a	n/a	n/a	n/a
982183	PROB	n/a	LTP066	ltpFR	11	n/a	n/a	n/a	n/a	n/a	n/a	10	4	4	2	n/a	n/a	n/a	n/a	n/a
983716	PROB	n/a	LTP066	ltpFR	11	n/a	n/a	n/a	n/a	n/a	n/a	26	8	9	9	n/a	n/a	n/a	n/a	n/a
985387	STOP	n/a	LTP066	ltpFR	11	n/a	n/a	n/a	n/a	n/a	n/a	n/a	n/a	n/a	n/a	n/a	n/a	n/a	n/a	n/a
987966	WORD	wordpools/wasnorm_wordpool.txt	LTP066	ltpFR	11	5	0	ARTIST	43	n/a	1	n/a	0	0	0	0	0.5869140625	0.422607421875	lower	../fonts/zerothre.ttf
990974	START	n/a	LTP066	ltpFR	11	n/a	n/a	n/a	n/a	n/a	n/a	n/a	n/a	n/a	n/a	n/a	n/a	n/a	n/a	n/a
991899	PROB	n/a	LTP066	ltpFR	11	n/a	n/a	n/a	n/a	n/a	n/a	13	5	5	3	n/a	n/a	n/a	n/a	n/a
993007	PROB	n/a	LTP066	ltpFR	11	n/a	n/a	n/a	n/a	n/a	n/a	17	4	9	4	n/a	n/a	n/a	n/a	n/a
995982	PROB	n/a	LTP066	ltpFR	11	n/a	n/a	n/a	n/a	n/a	n/a	23	9	9	5	n/a	n/a	n/a	n/a	n/a
997307	PROB	n/a	LTP066	ltpFR	11	n/a	n/a	n/a	n/a	n/a	n/a	22	9	4	9	n/a	n/a	n/a	n/a	n/a
998805	PROB	n/a	LTP066	ltpFR	11	n/a	n/a	n/a	n/a	n/a	n/a	9	4	2	3	n/a	n/a	n/a	n/a	n/a
999856	PROB	n/a	LTP066	ltpFR	11	n/a	n/a	n/a	n/a	n/a	n/a	21	8	7	6	n/a	n/a	n/a	n/a	n/a
1001556	PROB	n/a	LTP066	ltpFR	11	n/a	n/a	n/a	n/a	n/a	n/a	16	8	7	1	n/a	n/a	n/a	n/a	n/a
1003406	PROB	n/a	LTP066	ltpFR	11	n/a	n/a	n/a	n/a	n/a	n/a	14	2	6	6	n/a	n/a	n/a	n/a	n/a
1004906	PROB	n/a	LTP066	ltpFR	11	n/a	n/a	n/a	n/a	n/a	n/a	11	2	7	2	n/a	n/a	n/a	n/a	n/a
1006443	STOP	n/a	LTP066	ltpFR	11	n/a	n/a	n/a	n/a	n/a	n/a	n/a	n/a	n/a	n/a	n/a	n/a	n/a	n/a	n/a
1007981	WORD	wordpools/wasnorm_wordpool.txt	LTP066	ltpFR	11	5	0	NITROGEN	954	n/a	0	n/a	0	0	0	0	0.5869140625	0.422607421875	lower	../fonts/zerothre.ttf
1010989	START	n/a	LTP066	ltpFR	11	n/a	n/a	n/a	n/a	n/a	n/a	n/a	n/a	n/a	n/a	n/a	n/a	n/a	n/a	n/a
1012064	PROB	n/a	LTP066	ltpFR	11	n/a	n/a	n/a	n/a	n/a	n/a	10	2	5	3	n/a	n/a	n/a	n/a	n/a
1013297	PROB	n/a	LTP066	ltpFR	11	n/a	n/a	n/a	n/a	n/a	n/a	12	7	2	3	n/a	n/a	n/a	n/a	n/a
1014705	PROB	n/a	LTP066	ltpFR	11	n/a	n/a	n/a	n/a	n/a	n/a	10	4	1	5	n/a	n/a	n/a	n/a	n/a
1016564	PROB	n/a	LTP066	ltpFR	11	n/a	n/a	n/a	n/a	n/a	n/a	13	2	8	3	n/a	n/a	n/a	n/a	n/a
1018837	PROB	n/a	LTP066	ltpFR	11	n/a	n/a	n/a	n/a	n/a	n/a	20	6	5	9	n/a	n/a	n/a	n/a	n/a
1020380	PROB	n/a	LTP066	ltpFR	11	n/a	n/a	n/a	n/a	n/a	n/a	24	8	9	7	n/a	n/a	n/a	n/a	n/a
1022430	PROB	n/a	LTP066	ltpFR	11	n/a	n/a	n/a	n/a	n/a	n/a	12	4	2	6	n/a	n/a	n/a	n/a	n/a
1023455	PROB	n/a	LTP066	ltpFR	11	n/a	n/a	n/a	n/a	n/a	n/a	14	7	3	4	n/a	n/a	n/a	n/a	n/a
1024596	PROB	n/a	LTP066	ltpFR	11	n/a	n/a	n/a	n/a	n/a	n/a	14	9	3	3	n/a	n/a	n/a	n/a	n/a
1026011	STOP	n/a	LTP066	ltpFR	11	n/a	n/a	n/a	n/a	n/a	n/a	n/a	n/a	n/a	n/a	n/a	n/a	n/a	n/a	n/a
1028021	WORD	wordpools/wasnorm_wordpool.txt	LTP066	ltpFR	11	5	0	PORK	1108	n/a	1	n/a	0	0	0	0	0.5869140625	0.422607421875	lower	../fonts/zerothre.ttf
1031030	START	n/a	LTP066	ltpFR	11	n/a	n/a	n/a	n/a	n/a	n/a	n/a	n/a	n/a	n/a	n/a	n/a	n/a	n/a	n/a
1031937	PROB	n/a	LTP066	ltpFR	11	n/a	n/a	n/a	n/a	n/a	n/a	12	4	4	4	n/a	n/a	n/a	n/a	n/a
1033462	PROB	n/a	LTP066	ltpFR	11	n/a	n/a	n/a	n/a	n/a	n/a	16	9	1	5	n/a	n/a	n/a	n/a	n/a
1034487	PROB	n/a	LTP066	ltpFR	11	n/a	n/a	n/a	n/a	n/a	n/a	22	5	8	9	n/a	n/a	n/a	n/a	n/a
1036987	PROB	n/a	LTP066	ltpFR	11	n/a	n/a	n/a	n/a	n/a	n/a	17	9	4	4	n/a	n/a	n/a	n/a	n/a
1038629	PROB	n/a	LTP066	ltpFR	11	n/a	n/a	n/a	n/a	n/a	n/a	11	6	3	2	n/a	n/a	n/a	n/a	n/a
1040637	PROB	n/a	LTP066	ltpFR	11	n/a	n/a	n/a	n/a	n/a	n/a	23	9	9	5	n/a	n/a	n/a	n/a	n/a
1041795	PROB	n/a	LTP066	ltpFR	11	n/a	n/a	n/a	n/a	n/a	n/a	5	3	3	1	n/a	n/a	n/a	n/a	n/a
1042811	PROB	n/a	LTP066	ltpFR	11	n/a	n/a	n/a	n/a	n/a	n/a	14	4	5	5	n/a	n/a	n/a	n/a	n/a
1044628	PROB	n/a	LTP066	ltpFR	11	n/a	n/a	n/a	n/a	n/a	n/a	21	9	8	4	n/a	n/a	n/a	n/a	n/a
1046275	STOP	n/a	LTP066	ltpFR	11	n/a	n/a	n/a	n/a	n/a	n/a	n/a	n/a	n/a	n/a	n/a	n/a	n/a	n/a	n/a
1048111	WORD	wordpools/wasnorm_wordpool.txt	LTP066	ltpFR	11	5	0	GUARD	667	n/a	1	n/a	0	0	0	0	0.5869140625	0.422607421875	lower	../fonts/zerothre.ttf
1051120	START	n/a	LTP066	ltpFR	11	n/a	n/a	n/a	n/a	n/a	n/a	n/a	n/a	n/a	n/a	n/a	n/a	n/a	n/a	n/a
1052211	PROB	n/a	LTP066	ltpFR	11	n/a	n/a	n/a	n/a	n/a	n/a	13	6	5	2	n/a	n/a	n/a	n/a	n/a
1053294	PROB	n/a	LTP066	ltpFR	11	n/a	n/a	n/a	n/a	n/a	n/a	23	6	8	7	n/a	n/a	n/a	n/a	n/a
1055677	PROB	n/a	LTP066	ltpFR	11	n/a	n/a	n/a	n/a	n/a	n/a	14	3	2	9	n/a	n/a	n/a	n/a	n/a
1058560	PROB	n/a	LTP066	ltpFR	11	n/a	n/a	n/a	n/a	n/a	n/a	8	5	9	4	n/a	n/a	n/a	n/a	n/a
1060469	PROB	n/a	LTP066	ltpFR	11	n/a	n/a	n/a	n/a	n/a	n/a	20	9	6	5	n/a	n/a	n/a	n/a	n/a
1062518	PROB	n/a	LTP066	ltpFR	11	n/a	n/a	n/a	n/a	n/a	n/a	12	1	3	8	n/a	n/a	n/a	n/a	n/a
1063760	PROB	n/a	LTP066	ltpFR	11	n/a	n/a	n/a	n/a	n/a	n/a	20	7	8	5	n/a	n/a	n/a	n/a	n/a
1066219	STOP	n/a	LTP066	ltpFR	11	n/a	n/a	n/a	n/a	n/a	n/a	n/a	n/a	n/a	n/a	n/a	n/a	n/a	n/a	n/a
1067935	WORD	wordpools/wasnorm_wordpool.txt	LTP066	ltpFR	11	5	0	EGG	518	n/a	0	n/a	0	0	0	0	0.5869140625	0.422607421875	lower	../fonts/zerothre.ttf
1070943	START	n/a	LTP066	ltpFR	11	n/a	n/a	n/a	n/a	n/a	n/a	n/a	n/a	n/a	n/a	n/a	n/a	n/a	n/a	n/a
1071776	PROB	n/a	LTP066	ltpFR	11	n/a	n/a	n/a	n/a	n/a	n/a	17	2	8	7	n/a	n/a	n/a	n/a	n/a
1073359	PROB	n/a	LTP066	ltpFR	11	n/a	n/a	n/a	n/a	n/a	n/a	15	6	5	4	n/a	n/a	n/a	n/a	n/a
1076476	PROB	n/a	LTP066	ltpFR	11	n/a	n/a	n/a	n/a	n/a	n/a	22	8	8	6	n/a	n/a	n/a	n/a	n/a
1077726	PROB	n/a	LTP066	ltpFR	11	n/a	n/a	n/a	n/a	n/a	n/a	15	5	3	7	n/a	n/a	n/a	n/a	n/a
1079117	PROB	n/a	LTP066	ltpFR	11	n/a	n/a	n/a	n/a	n/a	n/a	8	4	1	3	n/a	n/a	n/a	n/a	n/a
1080275	PROB	n/a	LTP066	ltpFR	11	n/a	n/a	n/a	n/a	n/a	n/a	18	3	9	6	n/a	n/a	n/a	n/a	n/a
1081734	PROB	n/a	LTP066	ltpFR	11	n/a	n/a	n/a	n/a	n/a	n/a	16	2	7	7	n/a	n/a	n/a	n/a	n/a
1082984	PROB	n/a	LTP066	ltpFR	11	n/a	n/a	n/a	n/a	n/a	n/a	18	5	6	7	n/a	n/a	n/a	n/a	n/a
1084067	PROB	n/a	LTP066	ltpFR	11	n/a	n/a	n/a	n/a	n/a	n/a	1	6	1	6	n/a	n/a	n/a	n/a	n/a
1086943	STOP	n/a	LTP066	ltpFR	11	n/a	n/a	n/a	n/a	n/a	n/a	n/a	n/a	n/a	n/a	n/a	n/a	n/a	n/a	n/a
1088042	WORD	wordpools/wasnorm_wordpool.txt	LTP066	ltpFR	11	5	0	YOLK	1633	n/a	0	n/a	0	0	0	0	0.5869140625	0.422607421875	lower	../fonts/zerothre.ttf
1091050	START	n/a	LTP066	ltpFR	11	n/a	n/a	n/a	n/a	n/a	n/a	n/a	n/a	n/a	n/a	n/a	n/a	n/a	n/a	n/a
1091975	PROB	n/a	LTP066	ltpFR	11	n/a	n/a	n/a	n/a	n/a	n/a	21	8	6	7	n/a	n/a	n/a	n/a	n/a
1093899	PROB	n/a	LTP066	ltpFR	11	n/a	n/a	n/a	n/a	n/a	n/a	12	8	3	1	n/a	n/a	n/a	n/a	n/a
1095058	PROB	n/a	LTP066	ltpFR	11	n/a	n/a	n/a	n/a	n/a	n/a	11	5	2	4	n/a	n/a	n/a	n/a	n/a
1096408	PROB	n/a	LTP066	ltpFR	11	n/a	n/a	n/a	n/a	n/a	n/a	10	3	4	2	n/a	n/a	n/a	n/a	n/a
1097966	PROB	n/a	LTP066	ltpFR	11	n/a	n/a	n/a	n/a	n/a	n/a	14	3	6	5	n/a	n/a	n/a	n/a	n/a
1100282	PROB	n/a	LTP066	ltpFR	11	n/a	n/a	n/a	n/a	n/a	n/a	14	1	4	9	n/a	n/a	n/a	n/a	n/a
1101541	PROB	n/a	LTP066	ltpFR	11	n/a	n/a	n/a	n/a	n/a	n/a	18	6	7	5	n/a	n/a	n/a	n/a	n/a
1102806	PROB	n/a	LTP066	ltpFR	11	n/a	n/a	n/a	n/a	n/a	n/a	8	3	1	4	n/a	n/a	n/a	n/a	n/a
1103814	PROB	n/a	LTP066	ltpFR	11	n/a	n/a	n/a	n/a	n/a	n/a	18	4	9	5	n/a	n/a	n/a	n/a	n/a
1104990	PROB	n/a	LTP066	ltpFR	11	n/a	n/a	n/a	n/a	n/a	n/a	21	9	4	8	n/a	n/a	n/a	n/a	n/a
1106571	STOP	n/a	LTP066	ltpFR	11	n/a	n/a	n/a	n/a	n/a	n/a	n/a	n/a	n/a	n/a	n/a	n/a	n/a	n/a	n/a
1108015	WORD	wordpools/wasnorm_wordpool.txt	LTP066	ltpFR	11	5	0	ENCYCLOPEDIA	533	n/a	1	n/a	0	0	0	0	0.5869140625	0.422607421875	lower	../fonts/zerothre.ttf
1111024	START	n/a	LTP066	ltpFR	11	n/a	n/a	n/a	n/a	n/a	n/a	n/a	n/a	n/a	n/a	n/a	n/a	n/a	n/a	n/a
1112148	PROB	n/a	LTP066	ltpFR	11	n/a	n/a	n/a	n/a	n/a	n/a	21	8	8	5	n/a	n/a	n/a	n/a	n/a
1113865	PROB	n/a	LTP066	ltpFR	11	n/a	n/a	n/a	n/a	n/a	n/a	16	5	7	4	n/a	n/a	n/a	n/a	n/a
1115415	PROB	n/a	LTP066	ltpFR	11	n/a	n/a	n/a	n/a	n/a	n/a	19	8	2	9	n/a	n/a	n/a	n/a	n/a
1116756	PROB	n/a	LTP066	ltpFR	11	n/a	n/a	n/a	n/a	n/a	n/a	11	2	8	1	n/a	n/a	n/a	n/a	n/a
1117805	PROB	n/a	LTP066	ltpFR	11	n/a	n/a	n/a	n/a	n/a	n/a	14	7	5	2	n/a	n/a	n/a	n/a	n/a
1119014	PROB	n/a	LTP066	ltpFR	11	n/a	n/a	n/a	n/a	n/a	n/a	1	3	6	4	n/a	n/a	n/a	n/a	n/a
1120681	PROB	n/a	LTP066	ltpFR	11	n/a	n/a	n/a	n/a	n/a	n/a	16	4	9	3	n/a	n/a	n/a	n/a	n/a
1122706	PROB	n/a	LTP066	ltpFR	11	n/a	n/a	n/a	n/a	n/a	n/a	15	6	4	5	n/a	n/a	n/a	n/a	n/a
1123989	PROB	n/a	LTP066	ltpFR	11	n/a	n/a	n/a	n/a	n/a	n/a	12	6	2	4	n/a	n/a	n/a	n/a	n/a
1125372	PROB	n/a	LTP066	ltpFR	11	n/a	n/a	n/a	n/a	n/a	n/a	18	7	8	4	n/a	n/a	n/a	n/a	n/a
1126707	STOP	n/a	LTP066	ltpFR	11	n/a	n/a	n/a	n/a	n/a	n/a	n/a	n/a	n/a	n/a	n/a	n/a	n/a	n/a	n/a
1128097	WORD	wordpools/wasnorm_wordpool.txt	LTP066	ltpFR	11	5	0	SCALLOP	1242	n/a	0	n/a	0	0	0	0	0.5869140625	0.422607421875	lower	../fonts/zerothre.ttf
1131105	START	n/a	LTP066	ltpFR	11	n/a	n/a	n/a	n/a	n/a	n/a	n/a	n/a	n/a	n/a	n/a	n/a	n/a	n/a	n/a
1132130	PROB	n/a	LTP066	ltpFR	11	n/a	n/a	n/a	n/a	n/a	n/a	17	6	2	9	n/a	n/a	n/a	n/a	n/a
1135288	PROB	n/a	LTP066	ltpFR	11	n/a	n/a	n/a	n/a	n/a	n/a	21	3	9	9	n/a	n/a	n/a	n/a	n/a
1136513	PROB	n/a	LTP066	ltpFR	11	n/a	n/a	n/a	n/a	n/a	n/a	13	2	9	2	n/a	n/a	n/a	n/a	n/a
1137804	PROB	n/a	LTP066	ltpFR	11	n/a	n/a	n/a	n/a	n/a	n/a	12	7	2	3	n/a	n/a	n/a	n/a	n/a
1138837	PROB	n/a	LTP066	ltpFR	11	n/a	n/a	n/a	n/a	n/a	n/a	25	8	8	7	n/a	n/a	n/a	n/a	n/a
1140438	PROB	n/a	LTP066	ltpFR	11	n/a	n/a	n/a	n/a	n/a	n/a	16	5	4	4	n/a	n/a	n/a	n/a	n/a
1142204	PROB	n/a	LTP066	ltpFR	11	n/a	n/a	n/a	n/a	n/a	n/a	17	6	6	5	n/a	n/a	n/a	n/a	n/a
1144129	PROB	n/a	LTP066	ltpFR	11	n/a	n/a	n/a	n/a	n/a	n/a	11	3	2	6	n/a	n/a	n/a	n/a	n/a
1145312	PROB	n/a	LTP066	ltpFR	11	n/a	n/a	n/a	n/a	n/a	n/a	18	9	8	1	n/a	n/a	n/a	n/a	n/a
1146411	STOP	n/a	LTP066	ltpFR	11	n/a	n/a	n/a	n/a	n/a	n/a	n/a	n/a	n/a	n/a	n/a	n/a	n/a	n/a	n/a
1147962	WORD	wordpools/wasnorm_wordpool.txt	LTP066	ltpFR	11	5	0	MERMAID	887	n/a	1	n/a	0	0	0	0	0.5869140625	0.422607421875	lower	../fonts/zerothre.ttf
1150971	START	n/a	LTP066	ltpFR	11	n/a	n/a	n/a	n/a	n/a	n/a	n/a	n/a	n/a	n/a	n/a	n/a	n/a	n/a	n/a
1151778	PROB	n/a	LTP066	ltpFR	11	n/a	n/a	n/a	n/a	n/a	n/a	14	8	3	2	n/a	n/a	n/a	n/a	n/a
1153203	PROB	n/a	LTP066	ltpFR	11	n/a	n/a	n/a	n/a	n/a	n/a	21	9	5	7	n/a	n/a	n/a	n/a	n/a
1155562	PROB	n/a	LTP066	ltpFR	11	n/a	n/a	n/a	n/a	n/a	n/a	23	9	8	6	n/a	n/a	n/a	n/a	n/a
1157111	PROB	n/a	LTP066	ltpFR	11	n/a	n/a	n/a	n/a	n/a	n/a	19	9	8	2	n/a	n/a	n/a	n/a	n/a
1159070	PROB	n/a	LTP066	ltpFR	11	n/a	n/a	n/a	n/a	n/a	n/a	17	5	4	8	n/a	n/a	n/a	n/a	n/a
1161103	PROB	n/a	LTP066	ltpFR	11	n/a	n/a	n/a	n/a	n/a	n/a	17	5	9	3	n/a	n/a	n/a	n/a	n/a
1162278	PROB	n/a	LTP066	ltpFR	11	n/a	n/a	n/a	n/a	n/a	n/a	17	4	9	4	n/a	n/a	n/a	n/a	n/a
1163736	PROB	n/a	LTP066	ltpFR	11	n/a	n/a	n/a	n/a	n/a	n/a	13	6	4	3	n/a	n/a	n/a	n/a	n/a
1166971	STOP	n/a	LTP066	ltpFR	11	n/a	n/a	n/a	n/a	n/a	n/a	n/a	n/a	n/a	n/a	n/a	n/a	n/a	n/a	n/a
1167886	WORD	wordpools/wasnorm_wordpool.txt	LTP066	ltpFR	11	5	0	COURSE	390	n/a	1	n/a	0	0	0	0	0.5869140625	0.422607421875	lower	../fonts/zerothre.ttf
1170894	START	n/a	LTP066	ltpFR	11	n/a	n/a	n/a	n/a	n/a	n/a	n/a	n/a	n/a	n/a	n/a	n/a	n/a	n/a	n/a
1172060	PROB	n/a	LTP066	ltpFR	11	n/a	n/a	n/a	n/a	n/a	n/a	12	3	3	6	n/a	n/a	n/a	n/a	n/a
1173352	PROB	n/a	LTP066	ltpFR	11	n/a	n/a	n/a	n/a	n/a	n/a	19	7	8	4	n/a	n/a	n/a	n/a	n/a
1175160	PROB	n/a	LTP066	ltpFR	11	n/a	n/a	n/a	n/a	n/a	n/a	14	1	4	9	n/a	n/a	n/a	n/a	n/a
1176468	PROB	n/a	LTP066	ltpFR	11	n/a	n/a	n/a	n/a	n/a	n/a	20	6	8	6	n/a	n/a	n/a	n/a	n/a
1178277	PROB	n/a	LTP066	ltpFR	11	n/a	n/a	n/a	n/a	n/a	n/a	19	5	9	5	n/a	n/a	n/a	n/a	n/a
1179643	PROB	n/a	LTP066	ltpFR	11	n/a	n/a	n/a	n/a	n/a	n/a	11	5	1	5	n/a	n/a	n/a	n/a	n/a
1180743	PROB	n/a	LTP066	ltpFR	11	n/a	n/a	n/a	n/a	n/a	n/a	13	2	8	3	n/a	n/a	n/a	n/a	n/a
1182201	PROB	n/a	LTP066	ltpFR	11	n/a	n/a	n/a	n/a	n/a	n/a	21	8	9	4	n/a	n/a	n/a	n/a	n/a
1183926	PROB	n/a	LTP066	ltpFR	11	n/a	n/a	n/a	n/a	n/a	n/a	15	2	5	8	n/a	n/a	n/a	n/a	n/a
1185491	STOP	n/a	LTP066	ltpFR	11	n/a	n/a	n/a	n/a	n/a	n/a	n/a	n/a	n/a	n/a	n/a	n/a	n/a	n/a	n/a
1187817	WORD	wordpools/wasnorm_wordpool.txt	LTP066	ltpFR	11	5	0	CASH	252	n/a	0	n/a	0	0	0	0	0.5869140625	0.422607421875	lower	../fonts/zerothre.ttf
1190825	START	n/a	LTP066	ltpFR	11	n/a	n/a	n/a	n/a	n/a	n/a	n/a	n/a	n/a	n/a	n/a	n/a	n/a	n/a	n/a
1191934	PROB	n/a	LTP066	ltpFR	11	n/a	n/a	n/a	n/a	n/a	n/a	18	3	7	8	n/a	n/a	n/a	n/a	n/a
1193841	PROB	n/a	LTP066	ltpFR	11	n/a	n/a	n/a	n/a	n/a	n/a	18	8	1	9	n/a	n/a	n/a	n/a	n/a
1194975	PROB	n/a	LTP066	ltpFR	11	n/a	n/a	n/a	n/a	n/a	n/a	13	2	6	6	n/a	n/a	n/a	n/a	n/a
1196659	PROB	n/a	LTP066	ltpFR	11	n/a	n/a	n/a	n/a	n/a	n/a	16	8	1	7	n/a	n/a	n/a	n/a	n/a
1197792	PROB	n/a	LTP066	ltpFR	11	n/a	n/a	n/a	n/a	n/a	n/a	16	4	6	6	n/a	n/a	n/a	n/a	n/a
1199200	PROB	n/a	LTP066	ltpFR	11	n/a	n/a	n/a	n/a	n/a	n/a	1	7	5	5	n/a	n/a	n/a	n/a	n/a
1200750	PROB	n/a	LTP066	ltpFR	11	n/a	n/a	n/a	n/a	n/a	n/a	12	4	6	2	n/a	n/a	n/a	n/a	n/a
1202425	PROB	n/a	LTP066	ltpFR	11	n/a	n/a	n/a	n/a	n/a	n/a	13	7	5	1	n/a	n/a	n/a	n/a	n/a
1203383	PROB	n/a	LTP066	ltpFR	11	n/a	n/a	n/a	n/a	n/a	n/a	9	4	3	2	n/a	n/a	n/a	n/a	n/a
1205108	PROB	n/a	LTP066	ltpFR	11	n/a	n/a	n/a	n/a	n/a	n/a	7	4	2	1	n/a	n/a	n/a	n/a	n/a
1206155	STOP	n/a	LTP066	ltpFR	11	n/a	n/a	n/a	n/a	n/a	n/a	n/a	n/a	n/a	n/a	n/a	n/a	n/a	n/a	n/a
1207741	WORD	wordpools/wasnorm_wordpool.txt	LTP066	ltpFR	11	5	0	BEAR	106	n/a	1	n/a	0	0	0	0	0.5869140625	0.422607421875	lower	../fonts/zerothre.ttf
1210750	START	n/a	LTP066	ltpFR	11	n/a	n/a	n/a	n/a	n/a	n/a	n/a	n/a	n/a	n/a	n/a	n/a	n/a	n/a	n/a
1211616	PROB	n/a	LTP066	ltpFR	11	n/a	n/a	n/a	n/a	n/a	n/a	21	8	4	9	n/a	n/a	n/a	n/a	n/a
1213882	PROB	n/a	LTP066	ltpFR	11	n/a	n/a	n/a	n/a	n/a	n/a	8	3	1	4	n/a	n/a	n/a	n/a	n/a
1214941	PROB	n/a	LTP066	ltpFR	11	n/a	n/a	n/a	n/a	n/a	n/a	13	9	1	2	n/a	n/a	n/a	n/a	n/a
1215940	PROB	n/a	LTP066	ltpFR	11	n/a	n/a	n/a	n/a	n/a	n/a	11	4	1	6	n/a	n/a	n/a	n/a	n/a
1217707	PROB	n/a	LTP066	ltpFR	11	n/a	n/a	n/a	n/a	n/a	n/a	15	1	7	7	n/a	n/a	n/a	n/a	n/a
1218765	PROB	n/a	LTP066	ltpFR	11	n/a	n/a	n/a	n/a	n/a	n/a	20	4	8	8	n/a	n/a	n/a	n/a	n/a
1220923	PROB	n/a	LTP066	ltpFR	11	n/a	n/a	n/a	n/a	n/a	n/a	18	4	6	8	n/a	n/a	n/a	n/a	n/a
1222215	PROB	n/a	LTP066	ltpFR	11	n/a	n/a	n/a	n/a	n/a	n/a	1	1	6	6	n/a	n/a	n/a	n/a	n/a
1223723	PROB	n/a	LTP066	ltpFR	11	n/a	n/a	n/a	n/a	n/a	n/a	9	3	5	1	n/a	n/a	n/a	n/a	n/a
1225106	PROB	n/a	LTP066	ltpFR	11	n/a	n/a	n/a	n/a	n/a	n/a	12	4	2	6	n/a	n/a	n/a	n/a	n/a
1226283	STOP	n/a	LTP066	ltpFR	11	n/a	n/a	n/a	n/a	n/a	n/a	n/a	n/a	n/a	n/a	n/a	n/a	n/a	n/a	n/a
1227923	WORD	wordpools/wasnorm_wordpool.txt	LTP066	ltpFR	11	5	0	FAN	551	n/a	0	n/a	0	0	0	0	0.5869140625	0.422607421875	lower	../fonts/zerothre.ttf
1230931	START	n/a	LTP066	ltpFR	11	n/a	n/a	n/a	n/a	n/a	n/a	n/a	n/a	n/a	n/a	n/a	n/a	n/a	n/a	n/a
1232073	PROB	n/a	LTP066	ltpFR	11	n/a	n/a	n/a	n/a	n/a	n/a	19	7	3	9	n/a	n/a	n/a	n/a	n/a
1233656	PROB	n/a	LTP066	ltpFR	11	n/a	n/a	n/a	n/a	n/a	n/a	16	5	9	2	n/a	n/a	n/a	n/a	n/a
1235247	PROB	n/a	LTP066	ltpFR	11	n/a	n/a	n/a	n/a	n/a	n/a	19	9	5	5	n/a	n/a	n/a	n/a	n/a
1236656	PROB	n/a	LTP066	ltpFR	11	n/a	n/a	n/a	n/a	n/a	n/a	17	9	2	6	n/a	n/a	n/a	n/a	n/a
1238847	PROB	n/a	LTP066	ltpFR	11	n/a	n/a	n/a	n/a	n/a	n/a	16	7	1	8	n/a	n/a	n/a	n/a	n/a
1240264	PROB	n/a	LTP066	ltpFR	11	n/a	n/a	n/a	n/a	n/a	n/a	19	4	8	7	n/a	n/a	n/a	n/a	n/a
1242097	PROB	n/a	LTP066	ltpFR	11	n/a	n/a	n/a	n/a	n/a	n/a	15	7	6	2	n/a	n/a	n/a	n/a	n/a
1243638	PROB	n/a	LTP066	ltpFR	11	n/a	n/a	n/a	n/a	n/a	n/a	21	6	6	9	n/a	n/a	n/a	n/a	n/a
1244797	PROB	n/a	LTP066	ltpFR	11	n/a	n/a	n/a	n/a	n/a	n/a	15	3	8	4	n/a	n/a	n/a	n/a	n/a
1246179	STOP	n/a	LTP066	ltpFR	11	n/a	n/a	n/a	n/a	n/a	n/a	n/a	n/a	n/a	n/a	n/a	n/a	n/a	n/a	n/a
1247837	WORD	wordpools/wasnorm_wordpool.txt	LTP066	ltpFR	11	5	0	NICKEL	950	n/a	0	n/a	0	0	0	0	0.5869140625	0.422607421875	lower	../fonts/zerothre.ttf
1250847	START	n/a	LTP066	ltpFR	11	n/a	n/a	n/a	n/a	n/a	n/a	n/a	n/a	n/a	n/a	n/a	n/a	n/a	n/a	n/a
1251796	PROB	n/a	LTP066	ltpFR	11	n/a	n/a	n/a	n/a	n/a	n/a	18	5	7	6	n/a	n/a	n/a	n/a	n/a
1254246	PROB	n/a	LTP066	ltpFR	11	n/a	n/a	n/a	n/a	n/a	n/a	15	4	9	2	n/a	n/a	n/a	n/a	n/a
1255803	PROB	n/a	LTP066	ltpFR	11	n/a	n/a	n/a	n/a	n/a	n/a	13	9	3	1	n/a	n/a	n/a	n/a	n/a
1256971	PROB	n/a	LTP066	ltpFR	11	n/a	n/a	n/a	n/a	n/a	n/a	18	2	9	7	n/a	n/a	n/a	n/a	n/a
1258421	PROB	n/a	LTP066	ltpFR	11	n/a	n/a	n/a	n/a	n/a	n/a	11	4	2	5	n/a	n/a	n/a	n/a	n/a
1259987	PROB	n/a	LTP066	ltpFR	11	n/a	n/a	n/a	n/a	n/a	n/a	15	8	1	6	n/a	n/a	n/a	n/a	n/a
1261020	PROB	n/a	LTP066	ltpFR	11	n/a	n/a	n/a	n/a	n/a	n/a	10	5	2	3	n/a	n/a	n/a	n/a	n/a
1262629	PROB	n/a	LTP066	ltpFR	11	n/a	n/a	n/a	n/a	n/a	n/a	20	8	8	4	n/a	n/a	n/a	n/a	n/a
1263920	PROB	n/a	LTP066	ltpFR	11	n/a	n/a	n/a	n/a	n/a	n/a	11	5	5	1	n/a	n/a	n/a	n/a	n/a
1266846	STOP	n/a	LTP066	ltpFR	11	n/a	n/a	n/a	n/a	n/a	n/a	n/a	n/a	n/a	n/a	n/a	n/a	n/a	n/a	n/a
1267712	WORD	wordpools/wasnorm_wordpool.txt	LTP066	ltpFR	11	5	0	REPORT	1184	n/a	0	n/a	0	0	0	0	0.5869140625	0.422607421875	lower	../fonts/zerothre.ttf
1270720	START	n/a	LTP066	ltpFR	11	n/a	n/a	n/a	n/a	n/a	n/a	n/a	n/a	n/a	n/a	n/a	n/a	n/a	n/a	n/a
1271720	PROB	n/a	LTP066	ltpFR	11	n/a	n/a	n/a	n/a	n/a	n/a	6	3	7	6	n/a	n/a	n/a	n/a	n/a
1274436	PROB	n/a	LTP066	ltpFR	11	n/a	n/a	n/a	n/a	n/a	n/a	10	2	5	3	n/a	n/a	n/a	n/a	n/a
1275843	PROB	n/a	LTP066	ltpFR	11	n/a	n/a	n/a	n/a	n/a	n/a	18	4	7	7	n/a	n/a	n/a	n/a	n/a
1277336	PROB	n/a	LTP066	ltpFR	11	n/a	n/a	n/a	n/a	n/a	n/a	8	2	2	4	n/a	n/a	n/a	n/a	n/a
1278794	PROB	n/a	LTP066	ltpFR	11	n/a	n/a	n/a	n/a	n/a	n/a	18	5	4	9	n/a	n/a	n/a	n/a	n/a
1280386	PROB	n/a	LTP066	ltpFR	11	n/a	n/a	n/a	n/a	n/a	n/a	12	4	2	6	n/a	n/a	n/a	n/a	n/a
1281552	PROB	n/a	LTP066	ltpFR	11	n/a	n/a	n/a	n/a	n/a	n/a	9	1	5	3	n/a	n/a	n/a	n/a	n/a
1282569	PROB	n/a	LTP066	ltpFR	11	n/a	n/a	n/a	n/a	n/a	n/a	14	7	3	4	n/a	n/a	n/a	n/a	n/a
1283619	PROB	n/a	LTP066	ltpFR	11	n/a	n/a	n/a	n/a	n/a	n/a	12	1	6	5	n/a	n/a	n/a	n/a	n/a
1285002	PROB	n/a	LTP066	ltpFR	11	n/a	n/a	n/a	n/a	n/a	n/a	3	4	1	8	n/a	n/a	n/a	n/a	n/a
1286227	STOP	n/a	LTP066	ltpFR	11	n/a	n/a	n/a	n/a	n/a	n/a	n/a	n/a	n/a	n/a	n/a	n/a	n/a	n/a	n/a
1288519	REC_START	n/a	LTP066	ltpFR	11	5	n/a	n/a	n/a	n/a	n/a	n/a	0	0	0	n/a	n/a	n/a	n/a	n/a
1290529	REC_WORD	wordpools/wasnorm_wordpool.txt	LTP066	ltpFR	11	5	0	EGG	518	n/a	0	n/a	0	0	0	n/a	n/a	n/a	n/a	n/a
1291931	REC_WORD	wordpools/wasnorm_wordpool.txt	LTP066	ltpFR	11	5	0	YOLK	1633	n/a	0	n/a	0	0	0	n/a	n/a	n/a	n/a	n/a
1293822	REC_WORD	wordpools/wasnorm_wordpool.txt	LTP066	ltpFR	11	5	0	REPORT	1184	n/a	0	n/a	0	0	0	n/a	n/a	n/a	n/a	n/a
1333561	REC_WORD	wordpools/wasnorm_wordpool.txt	LTP066	ltpFR	11	5	0	NITROGEN	954	n/a	0	n/a	0	0	0	n/a	n/a	n/a	n/a	n/a
1336719	REC_WORD	wordpools/wasnorm_wordpool.txt	LTP066	ltpFR	11	5	0	ARTIST	43	n/a	1	n/a	0	0	0	n/a	n/a	n/a	n/a	n/a
1337403	REC_WORD	wordpools/wasnorm_wordpool.txt	LTP066	ltpFR	11	5	0	MONUMENT	913	n/a	1	n/a	0	0	0	n/a	n/a	n/a	n/a	n/a
1340491	REC_WORD	wordpools/wasnorm_wordpool.txt	LTP066	ltpFR	11	5	0	PORK	1108	n/a	1	n/a	0	0	0	n/a	n/a	n/a	n/a	n/a
1369321	WORD	wordpools/wasnorm_wordpool.txt	LTP066	ltpFR	11	6	0	ABDOMEN	1	n/a	1	n/a	0	0	0	0	0.5869140625	0.422607421875	lower	../fonts/zerothre.ttf
1373454	WORD	wordpools/wasnorm_wordpool.txt	LTP066	ltpFR	11	6	0	BAG	69	n/a	0	n/a	0	0	0	0	0.5869140625	0.422607421875	lower	../fonts/zerothre.ttf
1377353	WORD	wordpools/wasnorm_wordpool.txt	LTP066	ltpFR	11	6	0	PADDLE	1000	n/a	0	n/a	0	0	0	0	0.5869140625	0.422607421875	lower	../fonts/zerothre.ttf
1381328	WORD	wordpools/wasnorm_wordpool.txt	LTP066	ltpFR	11	6	1	NEST	945	n/a	0	n/a	0	0	0	1	0.412841796875	0.57763671875	upper	../fonts/amplitud.ttf
1385286	WORD	wordpools/wasnorm_wordpool.txt	LTP066	ltpFR	11	6	1	KIWI	781	n/a	1	n/a	0	0	0	1	0.412841796875	0.57763671875	upper	../fonts/amplitud.ttf
1389194	WORD	wordpools/wasnorm_wordpool.txt	LTP066	ltpFR	11	6	1	ANCHOR	21	n/a	0	n/a	0	0	0	1	0.412841796875	0.57763671875	upper	../fonts/amplitud.ttf
1393252	WORD	wordpools/wasnorm_wordpool.txt	LTP066	ltpFR	11	6	1	ALLIGATOR	16	n/a	1	n/a	0	0	0	1	0.412841796875	0.57763671875	upper	../fonts/amplitud.ttf
1397260	WORD	wordpools/wasnorm_wordpool.txt	LTP066	ltpFR	11	6	1	DRILL	497	n/a	0	n/a	0	0	0	1	0.412841796875	0.57763671875	upper	../fonts/amplitud.ttf
1401152	WORD	wordpools/wasnorm_wordpool.txt	LTP066	ltpFR	11	6	1	LEADER	807	n/a	1	n/a	0	0	0	1	0.412841796875	0.57763671875	upper	../fonts/amplitud.ttf
1405268	WORD	wordpools/wasnorm_wordpool.txt	LTP066	ltpFR	11	6	0	WOUND	1624	n/a	0	n/a	0	0	0	0	0.5869140625	0.422607421875	lower	../fonts/zerothre.ttf
1409085	WORD	wordpools/wasnorm_wordpool.txt	LTP066	ltpFR	11	6	0	ANTEATER	26	n/a	1	n/a	0	0	0	0	0.5869140625	0.422607421875	lower	../fonts/zerothre.ttf
1413151	WORD	wordpools/wasnorm_wordpool.txt	LTP066	ltpFR	11	6	0	SODA	1341	n/a	0	n/a	0	0	0	0	0.5869140625	0.422607421875	lower	../fonts/zerothre.ttf
1417092	WORD	wordpools/wasnorm_wordpool.txt	LTP066	ltpFR	11	6	0	RASPBERRY	1168	n/a	0	n/a	0	0	0	0	0.5869140625	0.422607421875	lower	../fonts/zerothre.ttf
1420934	WORD	wordpools/wasnorm_wordpool.txt	LTP066	ltpFR	11	6	0	PEACH	1031	n/a	0	n/a	0	0	0	0	0.5869140625	0.422607421875	lower	../fonts/zerothre.ttf
1424900	WORD	wordpools/wasnorm_wordpool.txt	LTP066	ltpFR	11	6	1	FIGHTER	564	n/a	1	n/a	0	0	0	1	0.412841796875	0.57763671875	upper	../fonts/amplitud.ttf
1429016	WORD	wordpools/wasnorm_wordpool.txt	LTP066	ltpFR	11	6	1	WARRIOR	1589	n/a	1	n/a	0	0	0	1	0.412841796875	0.57763671875	upper	../fonts/amplitud.ttf
1432016	START	n/a	LTP066	ltpFR	11	n/a	n/a	n/a	n/a	n/a	n/a	n/a	n/a	n/a	n/a	n/a	n/a	n/a	n/a	n/a
1432899	PROB	n/a	LTP066	ltpFR	11	n/a	n/a	n/a	n/a	n/a	n/a	14	2	5	9	n/a	n/a	n/a	n/a	n/a
1435249	PROB	n/a	LTP066	ltpFR	11	n/a	n/a	n/a	n/a	n/a	n/a	8	3	3	2	n/a	n/a	n/a	n/a	n/a
1436899	PROB	n/a	LTP066	ltpFR	11	n/a	n/a	n/a	n/a	n/a	n/a	15	9	4	2	n/a	n/a	n/a	n/a	n/a
1439155	STOP	n/a	LTP066	ltpFR	11	n/a	n/a	n/a	n/a	n/a	n/a	n/a	n/a	n/a	n/a	n/a	n/a	n/a	n/a	n/a
1441791	REC_START	n/a	LTP066	ltpFR	11	6	n/a	n/a	n/a	n/a	n/a	n/a	0	0	0	n/a	n/a	n/a	n/a	n/a
1443507	REC_WORD	wordpools/wasnorm_wordpool.txt	LTP066	ltpFR	11	6	0	RASPBERRY	1168	n/a	0	n/a	0	0	0	n/a	n/a	n/a	n/a	n/a
1444460	REC_WORD	wordpools/wasnorm_wordpool.txt	LTP066	ltpFR	11	6	0	PEACH	1031	n/a	0	n/a	0	0	0	n/a	n/a	n/a	n/a	n/a
1455634	REC_WORD	wordpools/wasnorm_wordpool.txt	LTP066	ltpFR	11	6	1	KIWI	781	n/a	1	n/a	0	0	0	n/a	n/a	n/a	n/a	n/a
1457001	REC_WORD	wordpools/wasnorm_wordpool.txt	LTP066	ltpFR	11	6	1	ALLIGATOR	16	n/a	1	n/a	0	0	0	n/a	n/a	n/a	n/a	n/a
1458303	REC_WORD	wordpools/wasnorm_wordpool.txt	LTP066	ltpFR	11	6	1	ANCHOR	21	n/a	0	n/a	0	0	0	n/a	n/a	n/a	n/a	n/a
1503251	REC_WORD	wordpools/wasnorm_wordpool.txt	LTP066	ltpFR	11	6	1	FIGHTER	564	n/a	1	n/a	0	0	0	n/a	n/a	n/a	n/a	n/a
1520051	WORD	wordpools/wasnorm_wordpool.txt	LTP066	ltpFR	11	7	1	GLACIER	638	n/a	0	n/a	0	0	0	1	0.412841796875	0.57763671875	upper	../fonts/amplitud.ttf
1523876	WORD	wordpools/wasnorm_wordpool.txt	LTP066	ltpFR	11	7	1	VOLLEYBALL	1576	n/a	0	n/a	0	0	0	1	0.412841796875	0.57763671875	upper	../fonts/amplitud.ttf
1527792	WORD	wordpools/wasnorm_wordpool.txt	LTP066	ltpFR	11	7	1	DONKEY	484	n/a	1	n/a	0	0	0	1	0.412841796875	0.57763671875	upper	../fonts/amplitud.ttf
1531750	WORD	wordpools/wasnorm_wordpool.txt	LTP066	ltpFR	11	7	1	CANYON	235	n/a	0	n/a	0	0	0	1	0.412841796875	0.57763671875	upper	../fonts/amplitud.ttf
1535634	WORD	wordpools/wasnorm_wordpool.txt	LTP066	ltpFR	11	7	1	SHORE	1291	n/a	0	n/a	0	0	0	1	0.412841796875	0.57763671875	upper	../fonts/amplitud.ttf
1539566	WORD	wordpools/wasnorm_wordpool.txt	LTP066	ltpFR	11	7	1	AUTOMOBILE	62	n/a	0	n/a	0	0	0	1	0.412841796875	0.57763671875	upper	../fonts/amplitud.ttf
1543558	WORD	wordpools/wasnorm_wordpool.txt	LTP066	ltpFR	11	7	1	PHILOSOPHER	1054	n/a	0	n/a	0	0	0	1	0.412841796875	0.57763671875	upper	../fonts/amplitud.ttf
1547633	WORD	wordpools/wasnorm_wordpool.txt	LTP066	ltpFR	11	7	1	DISHWASHER	475	n/a	0	n/a	0	0	0	1	0.412841796875	0.57763671875	upper	../fonts/amplitud.ttf
1551599	WORD	wordpools/wasnorm_wordpool.txt	LTP066	ltpFR	11	7	1	MATTRESS	879	n/a	0	n/a	0	0	0	1	0.412841796875	0.57763671875	upper	../fonts/amplitud.ttf
1555482	WORD	wordpools/wasnorm_wordpool.txt	LTP066	ltpFR	11	7	1	QUILT	1151	n/a	0	n/a	0	0	0	1	0.412841796875	0.57763671875	upper	../fonts/amplitud.ttf
1559657	WORD	wordpools/wasnorm_wordpool.txt	LTP066	ltpFR	11	7	1	PEBBLE	1035	n/a	0	n/a	0	0	0	1	0.412841796875	0.57763671875	upper	../fonts/amplitud.ttf
1563648	WORD	wordpools/wasnorm_wordpool.txt	LTP066	ltpFR	11	7	1	BRACELET	163	n/a	0	n/a	0	0	0	1	0.412841796875	0.57763671875	upper	../fonts/amplitud.ttf
1567473	WORD	wordpools/wasnorm_wordpool.txt	LTP066	ltpFR	11	7	1	CHAIN	273	n/a	0	n/a	0	0	0	1	0.412841796875	0.57763671875	upper	../fonts/amplitud.ttf
1571531	WORD	wordpools/wasnorm_wordpool.txt	LTP066	ltpFR	11	7	1	BEDROOM	111	n/a	0	n/a	0	0	0	1	0.412841796875	0.57763671875	upper	../fonts/amplitud.ttf
1575414	WORD	wordpools/wasnorm_wordpool.txt	LTP066	ltpFR	11	7	1	CAPTIVE	240	n/a	1	n/a	0	0	0	1	0.412841796875	0.57763671875	upper	../fonts/amplitud.ttf
1579297	WORD	wordpools/wasnorm_wordpool.txt	LTP066	ltpFR	11	7	1	SUSPECT	1415	n/a	1	n/a	0	0	0	1	0.412841796875	0.57763671875	upper	../fonts/amplitud.ttf
1582305	START	n/a	LTP066	ltpFR	11	n/a	n/a	n/a	n/a	n/a	n/a	n/a	n/a	n/a	n/a	n/a	n/a	n/a	n/a	n/a
1583472	PROB	n/a	LTP066	ltpFR	11	n/a	n/a	n/a	n/a	n/a	n/a	13	1	9	3	n/a	n/a	n/a	n/a	n/a
1585605	PROB	n/a	LTP066	ltpFR	11	n/a	n/a	n/a	n/a	n/a	n/a	4	1	2	1	n/a	n/a	n/a	n/a	n/a
1586829	PROB	n/a	LTP066	ltpFR	11	n/a	n/a	n/a	n/a	n/a	n/a	7	2	1	4	n/a	n/a	n/a	n/a	n/a
1588013	PROB	n/a	LTP066	ltpFR	11	n/a	n/a	n/a	n/a	n/a	n/a	22	7	7	8	n/a	n/a	n/a	n/a	n/a
1590046	PROB	n/a	LTP066	ltpFR	11	n/a	n/a	n/a	n/a	n/a	n/a	18	6	9	3	n/a	n/a	n/a	n/a	n/a
1591771	PROB	n/a	LTP066	ltpFR	11	n/a	n/a	n/a	n/a	n/a	n/a	4	1	2	1	n/a	n/a	n/a	n/a	n/a
1592713	PROB	n/a	LTP066	ltpFR	11	n/a	n/a	n/a	n/a	n/a	n/a	10	4	3	3	n/a	n/a	n/a	n/a	n/a
1594196	PROB	n/a	LTP066	ltpFR	11	n/a	n/a	n/a	n/a	n/a	n/a	141	3	5	6	n/a	n/a	n/a	n/a	n/a
1595587	PROB	n/a	LTP066	ltpFR	11	n/a	n/a	n/a	n/a	n/a	n/a	15	9	4	2	n/a	n/a	n/a	n/a	n/a
1597139	STOP	n/a	LTP066	ltpFR	11	n/a	n/a	n/a	n/a	n/a	n/a	n/a	n/a	n/a	n/a	n/a	n/a	n/a	n/a	n/a
1600204	REC_START	n/a	LTP066	ltpFR	11	7	n/a	n/a	n/a	n/a	n/a	n/a	0	0	0	n/a	n/a	n/a	n/a	n/a
1601137	REC_WORD	wordpools/wasnorm_wordpool.txt	LTP066	ltpFR	11	7	1	CAPTIVE	240	n/a	1	n/a	0	0	0	n/a	n/a	n/a	n/a	n/a
1602050	REC_WORD	wordpools/wasnorm_wordpool.txt	LTP066	ltpFR	11	7	1	CHAIN	273	n/a	0	n/a	0	0	0	n/a	n/a	n/a	n/a	n/a
1603122	REC_WORD	wordpools/wasnorm_wordpool.txt	LTP066	ltpFR	11	7	1	BEDROOM	111	n/a	0	n/a	0	0	0	n/a	n/a	n/a	n/a	n/a
1604589	REC_WORD	wordpools/wasnorm_wordpool.txt	LTP066	ltpFR	11	7	1	DISHWASHER	475	n/a	0	n/a	0	0	0	n/a	n/a	n/a	n/a	n/a
1679273	WORD	wordpools/wasnorm_wordpool.txt	LTP066	ltpFR	11	8	0	UNIFORM	1539	n/a	1	n/a	0	0	0	0	0.5869140625	0.422607421875	lower	../fonts/zerothre.ttf
1683339	WORD	wordpools/wasnorm_wordpool.txt	LTP066	ltpFR	11	8	0	BUTTER	205	n/a	0	n/a	0	0	0	0	0.5869140625	0.422607421875	lower	../fonts/zerothre.ttf
1687197	WORD	wordpools/wasnorm_wordpool.txt	LTP066	ltpFR	11	8	0	BANJO	82	n/a	1	n/a	0	0	0	0	0.5869140625	0.422607421875	lower	../fonts/zerothre.ttf
1691164	WORD	wordpools/wasnorm_wordpool.txt	LTP066	ltpFR	11	8	0	CHAMPAGNE	278	n/a	1	n/a	0	0	0	0	0.5869140625	0.422607421875	lower	../fonts/zerothre.ttf
1695055	WORD	wordpools/wasnorm_wordpool.txt	LTP066	ltpFR	11	8	0	BUREAU	199	n/a	1	n/a	0	0	0	0	0.5869140625	0.422607421875	lower	../fonts/zerothre.ttf
1699146	WORD	wordpools/wasnorm_wordpool.txt	LTP066	ltpFR	11	8	0	TRICYCLE	1506	n/a	1	n/a	0	0	0	0	0.5869140625	0.422607421875	lower	../fonts/zerothre.ttf
1703204	WORD	wordpools/wasnorm_wordpool.txt	LTP066	ltpFR	11	8	0	LEG	809	n/a	0	n/a	0	0	0	0	0.5869140625	0.422607421875	lower	../fonts/zerothre.ttf
1707204	WORD	wordpools/wasnorm_wordpool.txt	LTP066	ltpFR	11	8	0	JOINT	758	n/a	1	n/a	0	0	0	0	0.5869140625	0.422607421875	lower	../fonts/zerothre.ttf
1711379	WORD	wordpools/wasnorm_wordpool.txt	LTP066	ltpFR	11	8	0	RACKET	1155	n/a	1	n/a	0	0	0	0	0.5869140625	0.422607421875	lower	../fonts/zerothre.ttf
1715512	WORD	wordpools/wasnorm_wordpool.txt	LTP066	ltpFR	11	8	0	TEAM	1441	n/a	1	n/a	0	0	0	0	0.5869140625	0.422607421875	lower	../fonts/zerothre.ttf
1719545	WORD	wordpools/wasnorm_wordpool.txt	LTP066	ltpFR	11	8	0	SCOTCH	1251	n/a	1	n/a	0	0	0	0	0.5869140625	0.422607421875	lower	../fonts/zerothre.ttf
1723503	WORD	wordpools/wasnorm_wordpool.txt	LTP066	ltpFR	11	8	0	BRUSH	182	n/a	0	n/a	0	0	0	0	0.5869140625	0.422607421875	lower	../fonts/zerothre.ttf
1727403	WORD	wordpools/wasnorm_wordpool.txt	LTP066	ltpFR	11	8	0	BRUNETTE	181	n/a	1	n/a	0	0	0	0	0.5869140625	0.422607421875	lower	../fonts/zerothre.ttf
1731402	WORD	wordpools/wasnorm_wordpool.txt	LTP066	ltpFR	11	8	0	STATUE	1374	n/a	1	n/a	0	0	0	0	0.5869140625	0.422607421875	lower	../fonts/zerothre.ttf
1735360	WORD	wordpools/wasnorm_wordpool.txt	LTP066	ltpFR	11	8	0	SPICE	1350	n/a	0	n/a	0	0	0	0	0.5869140625	0.422607421875	lower	../fonts/zerothre.ttf
1739468	WORD	wordpools/wasnorm_wordpool.txt	LTP066	ltpFR	11	8	0	OATMEAL	967	n/a	0	n/a	0	0	0	0	0.5869140625	0.422607421875	lower	../fonts/zerothre.ttf
1742477	START	n/a	LTP066	ltpFR	11	n/a	n/a	n/a	n/a	n/a	n/a	n/a	n/a	n/a	n/a	n/a	n/a	n/a	n/a	n/a
1743668	PROB	n/a	LTP066	ltpFR	11	n/a	n/a	n/a	n/a	n/a	n/a	22	6	9	7	n/a	n/a	n/a	n/a	n/a
1746735	PROB	n/a	LTP066	ltpFR	11	n/a	n/a	n/a	n/a	n/a	n/a	16	9	4	3	n/a	n/a	n/a	n/a	n/a
1748659	PROB	n/a	LTP066	ltpFR	11	n/a	n/a	n/a	n/a	n/a	n/a	16	3	5	8	n/a	n/a	n/a	n/a	n/a
1750011	STOP	n/a	LTP066	ltpFR	11	n/a	n/a	n/a	n/a	n/a	n/a	n/a	n/a	n/a	n/a	n/a	n/a	n/a	n/a	n/a
1752285	REC_START	n/a	LTP066	ltpFR	11	8	n/a	n/a	n/a	n/a	n/a	n/a	0	0	0	n/a	n/a	n/a	n/a	n/a
1754135	REC_WORD	wordpools/wasnorm_wordpool.txt	LTP066	ltpFR	11	8	0	BANJO	82	n/a	1	n/a	0	0	0	n/a	n/a	n/a	n/a	n/a
1755398	REC_WORD	wordpools/wasnorm_wordpool.txt	LTP066	ltpFR	11	8	0	BUTTER	205	n/a	0	n/a	0	0	0	n/a	n/a	n/a	n/a	n/a
1756246	REC_WORD	wordpools/wasnorm_wordpool.txt	LTP066	ltpFR	11	8	0	UNIFORM	1539	n/a	1	n/a	0	0	0	n/a	n/a	n/a	n/a	n/a
1757433	REC_WORD	wordpools/wasnorm_wordpool.txt	LTP066	ltpFR	11	8	0	BUREAU	199	n/a	1	n/a	0	0	0	n/a	n/a	n/a	n/a	n/a
1765121	REC_WORD	wordpools/wasnorm_wordpool.txt	LTP066	ltpFR	11	8	0	LEG	809	n/a	0	n/a	0	0	0	n/a	n/a	n/a	n/a	n/a
1766343	REC_WORD	wordpools/wasnorm_wordpool.txt	LTP066	ltpFR	11	8	0	JOINT	758	n/a	1	n/a	0	0	0	n/a	n/a	n/a	n/a	n/a
1771546	REC_WORD	wordpools/wasnorm_wordpool.txt	LTP066	ltpFR	11	8	0	TEAM	1441	n/a	1	n/a	0	0	0	n/a	n/a	n/a	n/a	n/a
1787924	REC_WORD	wordpools/wasnorm_wordpool.txt	LTP066	ltpFR	11	8	0	CHAMPAGNE	278	n/a	1	n/a	0	0	0	n/a	n/a	n/a	n/a	n/a
1790619	REC_WORD	wordpools/wasnorm_wordpool.txt	LTP066	ltpFR	11	8	0	SPICE	1350	n/a	0	n/a	0	0	0	n/a	n/a	n/a	n/a	n/a
1834228	WORD	wordpools/wasnorm_wordpool.txt	LTP066	ltpFR	11	9	1	NAVIGATOR	938	n/a	1	n/a	0	0	0	1	0.412841796875	0.57763671875	upper	../fonts/amplitud.ttf
1838053	WORD	wordpools/wasnorm_wordpool.txt	LTP066	ltpFR	11	9	1	FINGER	567	n/a	1	n/a	0	0	0	1	0.412841796875	0.57763671875	upper	../fonts/amplitud.ttf
1842252	WORD	wordpools/wasnorm_wordpool.txt	LTP066	ltpFR	11	9	1	WAGON	1578	n/a	0	n/a	0	0	0	1	0.412841796875	0.57763671875	upper	../fonts/amplitud.ttf
1846435	WORD	wordpools/wasnorm_wordpool.txt	LTP066	ltpFR	11	9	1	TULIP	1517	n/a	1	n/a	0	0	0	1	0.412841796875	0.57763671875	upper	../fonts/amplitud.ttf
1850402	WORD	wordpools/wasnorm_wordpool.txt	LTP066	ltpFR	11	9	0	APE	31	n/a	1	n/a	0	0	0	0	0.5869140625	0.422607421875	lower	../fonts/zerothre.ttf
1854335	WORD	wordpools/wasnorm_wordpool.txt	LTP066	ltpFR	11	9	0	ZOO	1637	n/a	1	n/a	0	0	0	0	0.5869140625	0.422607421875	lower	../fonts/zerothre.ttf
1858485	WORD	wordpools/wasnorm_wordpool.txt	LTP066	ltpFR	11	9	0	ENGINE	535	n/a	1	n/a	0	0	0	0	0.5869140625	0.422607421875	lower	../fonts/zerothre.ttf
1862301	WORD	wordpools/wasnorm_wordpool.txt	LTP066	ltpFR	11	9	0	PREDATOR	1120	n/a	1	n/a	0	0	0	0	0.5869140625	0.422607421875	lower	../fonts/zerothre.ttf
1866192	WORD	wordpools/wasnorm_wordpool.txt	LTP066	ltpFR	11	9	1	ISLAND	745	n/a	0	n/a	0	0	0	1	0.412841796875	0.57763671875	upper	../fonts/amplitud.ttf
1870284	WORD	wordpools/wasnorm_wordpool.txt	LTP066	ltpFR	11	9	1	PHOTO	1055	n/a	0	n/a	0	0	0	1	0.412841796875	0.57763671875	upper	../fonts/amplitud.ttf
1874425	WORD	wordpools/wasnorm_wordpool.txt	LTP066	ltpFR	11	9	1	SKETCH	1315	n/a	0	n/a	0	0	0	1	0.412841796875	0.57763671875	upper	../fonts/amplitud.ttf
1878291	WORD	wordpools/wasnorm_wordpool.txt	LTP066	ltpFR	11	9	1	TICKET	1464	n/a	0	n/a	0	0	0	1	0.412841796875	0.57763671875	upper	../fonts/amplitud.ttf
1882358	WORD	wordpools/wasnorm_wordpool.txt	LTP066	ltpFR	11	9	0	CASTLE	256	n/a	1	n/a	0	0	0	0	0.5869140625	0.422607421875	lower	../fonts/zerothre.ttf
1886241	WORD	wordpools/wasnorm_wordpool.txt	LTP066	ltpFR	11	9	0	THRONE	1461	n/a	1	n/a	0	0	0	0	0.5869140625	0.422607421875	lower	../fonts/zerothre.ttf
1890424	WORD	wordpools/wasnorm_wordpool.txt	LTP066	ltpFR	11	9	0	GOVERNOR	651	n/a	1	n/a	0	0	0	0	0.5869140625	0.422607421875	lower	../fonts/zerothre.ttf
1894399	WORD	wordpools/wasnorm_wordpool.txt	LTP066	ltpFR	11	9	0	ORCHID	982	n/a	1	n/a	0	0	0	0	0.5869140625	0.422607421875	lower	../fonts/zerothre.ttf
1897407	START	n/a	LTP066	ltpFR	11	n/a	n/a	n/a	n/a	n/a	n/a	n/a	n/a	n/a	n/a	n/a	n/a	n/a	n/a	n/a
1898573	PROB	n/a	LTP066	ltpFR	11	n/a	n/a	n/a	n/a	n/a	n/a	17	1	8	8	n/a	n/a	n/a	n/a	n/a
1900465	PROB	n/a	LTP066	ltpFR	11	n/a	n/a	n/a	n/a	n/a	n/a	16	6	6	4	n/a	n/a	n/a	n/a	n/a
1901781	PROB	n/a	LTP066	ltpFR	11	n/a	n/a	n/a	n/a	n/a	n/a	20	7	9	4	n/a	n/a	n/a	n/a	n/a
1903656	PROB	n/a	LTP066	ltpFR	11	n/a	n/a	n/a	n/a	n/a	n/a	18	5	5	8	n/a	n/a	n/a	n/a	n/a
1904739	PROB	n/a	LTP066	ltpFR	11	n/a	n/a	n/a	n/a	n/a	n/a	20	6	7	7	n/a	n/a	n/a	n/a	n/a
1906723	PROB	n/a	LTP066	ltpFR	11	n/a	n/a	n/a	n/a	n/a	n/a	12	1	8	3	n/a	n/a	n/a	n/a	n/a
1907822	PROB	n/a	LTP066	ltpFR	11	n/a	n/a	n/a	n/a	n/a	n/a	18	5	8	5	n/a	n/a	n/a	n/a	n/a
1908964	PROB	n/a	LTP066	ltpFR	11	n/a	n/a	n/a	n/a	n/a	n/a	12	1	7	4	n/a	n/a	n/a	n/a	n/a
1910164	PROB	n/a	LTP066	ltpFR	11	n/a	n/a	n/a	n/a	n/a	n/a	11	5	3	3	n/a	n/a	n/a	n/a	n/a
1912235	STOP	n/a	LTP066	ltpFR	11	n/a	n/a	n/a	n/a	n/a	n/a	n/a	n/a	n/a	n/a	n/a	n/a	n/a	n/a	n/a
1915173	REC_START	n/a	LTP066	ltpFR	11	9	n/a	n/a	n/a	n/a	n/a	n/a	0	0	0	n/a	n/a	n/a	n/a	n/a
1917897	REC_WORD	wordpools/wasnorm_wordpool.txt	LTP066	ltpFR	11	9	0	GOVERNOR	651	n/a	1	n/a	0	0	0	n/a	n/a	n/a	n/a	n/a
1921134	REC_WORD	wordpools/wasnorm_wordpool.txt	LTP066	ltpFR	11	9	0	THRONE	1461	n/a	1	n/a	0	0	0	n/a	n/a	n/a	n/a	n/a
1922481	REC_WORD	wordpools/wasnorm_wordpool.txt	LTP066	ltpFR	11	9	0	CASTLE	256	n/a	1	n/a	0	0	0	n/a	n/a	n/a	n/a	n/a
1974473	REC_WORD_VV	wordpools/wasnorm_wordpool.txt	LTP066	ltpFR	11	9	n/a	<>	-1	n/a	n/a	n/a	0	0	0	n/a	n/a	n/a	n/a	n/a
1974997	REC_WORD	wordpools/wasnorm_wordpool.txt	LTP066	ltpFR	11	9	1	NAVIGATOR	938	n/a	1	n/a	0	0	0	n/a	n/a	n/a	n/a	n/a
1979092	REC_WORD	wordpools/wasnorm_wordpool.txt	LTP066	ltpFR	11	9	1	FINGER	567	n/a	1	n/a	0	0	0	n/a	n/a	n/a	n/a	n/a
1983038	REC_WORD	wordpools/wasnorm_wordpool.txt	LTP066	ltpFR	11	9	n/a	SHIP	1286	n/a	n/a	n/a	0	0	0	n/a	n/a	n/a	n/a	n/a
1986231	REC_WORD	wordpools/wasnorm_wordpool.txt	LTP066	ltpFR	11	9	1	ISLAND	745	n/a	0	n/a	0	0	0	n/a	n/a	n/a	n/a	n/a
1987473	REC_WORD	wordpools/wasnorm_wordpool.txt	LTP066	ltpFR	11	9	0	APE	31	n/a	1	n/a	0	0	0	n/a	n/a	n/a	n/a	n/a
1988391	REC_WORD	wordpools/wasnorm_wordpool.txt	LTP066	ltpFR	11	9	0	ZOO	1637	n/a	1	n/a	0	0	0	n/a	n/a	n/a	n/a	n/a
1989489	REC_WORD	wordpools/wasnorm_wordpool.txt	LTP066	ltpFR	11	9	0	ENGINE	535	n/a	1	n/a	0	0	0	n/a	n/a	n/a	n/a	n/a
1993850	WORD	wordpools/wasnorm_wordpool.txt	LTP066	ltpFR	11	10	1	DUCK	504	n/a	1	n/a	0	0	0	1	0.412841796875	0.57763671875	upper	../fonts/amplitud.ttf
1998016	WORD	wordpools/wasnorm_wordpool.txt	LTP066	ltpFR	11	10	1	CARDINAL	244	n/a	1	n/a	0	0	0	1	0.412841796875	0.57763671875	upper	../fonts/amplitud.ttf
2002107	WORD	wordpools/wasnorm_wordpool.txt	LTP066	ltpFR	11	10	1	LITERATURE	831	n/a	0	n/a	0	0	0	1	0.412841796875	0.57763671875	upper	../fonts/amplitud.ttf
2005932	WORD	wordpools/wasnorm_wordpool.txt	LTP066	ltpFR	11	10	1	ROCKET	1202	n/a	0	n/a	0	0	0	1	0.412841796875	0.57763671875	upper	../fonts/amplitud.ttf
2009990	WORD	wordpools/wasnorm_wordpool.txt	LTP066	ltpFR	11	10	1	ASTRONAUT	51	n/a	1	n/a	0	0	0	1	0.412841796875	0.57763671875	upper	../fonts/amplitud.ttf
2013839	WORD	wordpools/wasnorm_wordpool.txt	LTP066	ltpFR	11	10	1	DUMP	505	n/a	0	n/a	0	0	0	1	0.412841796875	0.57763671875	upper	../fonts/amplitud.ttf
2017822	WORD	wordpools/wasnorm_wordpool.txt	LTP066	ltpFR	11	10	1	SQUIRREL	1362	n/a	1	n/a	0	0	0	1	0.412841796875	0.57763671875	upper	../fonts/amplitud.ttf
2021939	WORD	wordpools/wasnorm_wordpool.txt	LTP066	ltpFR	11	10	1	JOURNAL	760	n/a	0	n/a	0	0	0	1	0.412841796875	0.57763671875	upper	../fonts/amplitud.ttf
2026114	WORD	wordpools/wasnorm_wordpool.txt	LTP066	ltpFR	11	10	1	DRUG	501	n/a	0	n/a	0	0	0	1	0.412841796875	0.57763671875	upper	../fonts/amplitud.ttf
2030114	WORD	wordpools/wasnorm_wordpool.txt	LTP066	ltpFR	11	10	1	WILDERNESS	1610	n/a	0	n/a	0	0	0	1	0.412841796875	0.57763671875	upper	../fonts/amplitud.ttf
2034055	WORD	wordpools/wasnorm_wordpool.txt	LTP066	ltpFR	11	10	1	DRESSER	496	n/a	1	n/a	0	0	0	1	0.412841796875	0.57763671875	upper	../fonts/amplitud.ttf
2038138	WORD	wordpools/wasnorm_wordpool.txt	LTP066	ltpFR	11	10	1	CABINET	212	n/a	0	n/a	0	0	0	1	0.412841796875	0.57763671875	upper	../fonts/amplitud.ttf
2041954	WORD	wordpools/wasnorm_wordpool.txt	LTP066	ltpFR	11	10	1	OINTMENT	974	n/a	0	n/a	0	0	0	1	0.412841796875	0.57763671875	upper	../fonts/amplitud.ttf
2045779	WORD	wordpools/wasnorm_wordpool.txt	LTP066	ltpFR	11	10	1	EXPLOSION	544	n/a	0	n/a	0	0	0	1	0.412841796875	0.57763671875	upper	../fonts/amplitud.ttf
2049870	WORD	wordpools/wasnorm_wordpool.txt	LTP066	ltpFR	11	10	1	KNIGHT	786	n/a	0	n/a	0	0	0	1	0.412841796875	0.57763671875	upper	../fonts/amplitud.ttf
2053795	WORD	wordpools/wasnorm_wordpool.txt	LTP066	ltpFR	11	10	1	INCENSE	735	n/a	0	n/a	0	0	0	1	0.412841796875	0.57763671875	upper	../fonts/amplitud.ttf
2059362	REC_START	n/a	LTP066	ltpFR	11	10	n/a	n/a	n/a	n/a	n/a	n/a	0	0	0	n/a	n/a	n/a	n/a	n/a
2060290	REC_WORD	wordpools/wasnorm_wordpool.txt	LTP066	ltpFR	11	10	1	KNIGHT	786	n/a	0	n/a	0	0	0	n/a	n/a	n/a	n/a	n/a
2061203	REC_WORD	wordpools/wasnorm_wordpool.txt	LTP066	ltpFR	11	10	1	INCENSE	735	n/a	0	n/a	0	0	0	n/a	n/a	n/a	n/a	n/a
2062754	REC_WORD	wordpools/wasnorm_wordpool.txt	LTP066	ltpFR	11	10	1	ASTRONAUT	51	n/a	1	n/a	0	0	0	n/a	n/a	n/a	n/a	n/a
2063754	REC_WORD_VV	wordpools/wasnorm_wordpool.txt	LTP066	ltpFR	11	10	n/a	<>	-1	n/a	n/a	n/a	0	0	0	n/a	n/a	n/a	n/a	n/a
2063931	REC_WORD	wordpools/wasnorm_wordpool.txt	LTP066	ltpFR	11	10	1	ROCKET	1202	n/a	0	n/a	0	0	0	n/a	n/a	n/a	n/a	n/a
2066201	REC_WORD	wordpools/wasnorm_wordpool.txt	LTP066	ltpFR	11	10	1	SQUIRREL	1362	n/a	1	n/a	0	0	0	n/a	n/a	n/a	n/a	n/a
2067408	REC_WORD	wordpools/wasnorm_wordpool.txt	LTP066	ltpFR	11	10	1	DUMP	505	n/a	0	n/a	0	0	0	n/a	n/a	n/a	n/a	n/a
2069713	REC_WORD	wordpools/wasnorm_wordpool.txt	LTP066	ltpFR	11	10	1	WILDERNESS	1610	n/a	0	n/a	0	0	0	n/a	n/a	n/a	n/a	n/a
2070713	REC_WORD_VV	wordpools/wasnorm_wordpool.txt	LTP066	ltpFR	11	10	n/a	<>	-1	n/a	n/a	n/a	0	0	0	n/a	n/a	n/a	n/a	n/a
2140356	START	n/a	LTP066	ltpFR	11	n/a	n/a	n/a	n/a	n/a	n/a	n/a	n/a	n/a	n/a	n/a	n/a	n/a	n/a	n/a
2141864	PROB	n/a	LTP066	ltpFR	11	n/a	n/a	n/a	n/a	n/a	n/a	17	3	6	8	n/a	n/a	n/a	n/a	n/a
2144255	PROB	n/a	LTP066	ltpFR	11	n/a	n/a	n/a	n/a	n/a	n/a	12	2	4	5	n/a	n/a	n/a	n/a	n/a
2146222	PROB	n/a	LTP066	ltpFR	11	n/a	n/a	n/a	n/a	n/a	n/a	17	9	6	2	n/a	n/a	n/a	n/a	n/a
2148330	PROB	n/a	LTP066	ltpFR	11	n/a	n/a	n/a	n/a	n/a	n/a	5	3	1	1	n/a	n/a	n/a	n/a	n/a
2149238	PROB	n/a	LTP066	ltpFR	11	n/a	n/a	n/a	n/a	n/a	n/a	13	2	7	4	n/a	n/a	n/a	n/a	n/a
2150630	PROB	n/a	LTP066	ltpFR	11	n/a	n/a	n/a	n/a	n/a	n/a	7	1	1	5	n/a	n/a	n/a	n/a	n/a
2151638	PROB	n/a	LTP066	ltpFR	11	n/a	n/a	n/a	n/a	n/a	n/a	252	7	9	9	n/a	n/a	n/a	n/a	n/a
2153238	PROB	n/a	LTP066	ltpFR	11	n/a	n/a	n/a	n/a	n/a	n/a	17	5	9	6	n/a	n/a	n/a	n/a	n/a
2155851	STOP	n/a	LTP066	ltpFR	11	n/a	n/a	n/a	n/a	n/a	n/a	n/a	n/a	n/a	n/a	n/a	n/a	n/a	n/a	n/a
2157387	WORD	wordpools/wasnorm_wordpool.txt	LTP066	ltpFR	11	11	1	GENERAL	630	n/a	1	n/a	0	0	0	1	0.412841796875	0.57763671875	upper	../fonts/amplitud.ttf
2160388	START	n/a	LTP066	ltpFR	11	n/a	n/a	n/a	n/a	n/a	n/a	n/a	n/a	n/a	n/a	n/a	n/a	n/a	n/a	n/a
2161279	PROB	n/a	LTP066	ltpFR	11	n/a	n/a	n/a	n/a	n/a	n/a	7	2	4	1	n/a	n/a	n/a	n/a	n/a
2163087	PROB	n/a	LTP066	ltpFR	11	n/a	n/a	n/a	n/a	n/a	n/a	6	4	1	1	n/a	n/a	n/a	n/a	n/a
2164437	PROB	n/a	LTP066	ltpFR	11	n/a	n/a	n/a	n/a	n/a	n/a	31	1	7	5	n/a	n/a	n/a	n/a	n/a
2165545	PROB	n/a	LTP066	ltpFR	11	n/a	n/a	n/a	n/a	n/a	n/a	19	7	6	6	n/a	n/a	n/a	n/a	n/a
2168170	PROB	n/a	LTP066	ltpFR	11	n/a	n/a	n/a	n/a	n/a	n/a	20	9	9	2	n/a	n/a	n/a	n/a	n/a
2169428	PROB	n/a	LTP066	ltpFR	11	n/a	n/a	n/a	n/a	n/a	n/a	20	7	7	6	n/a	n/a	n/a	n/a	n/a
2172178	PROB	n/a	LTP066	ltpFR	11	n/a	n/a	n/a	n/a	n/a	n/a	16	5	7	4	n/a	n/a	n/a	n/a	n/a
2173461	PROB	n/a	LTP066	ltpFR	11	n/a	n/a	n/a	n/a	n/a	n/a	11	4	4	3	n/a	n/a	n/a	n/a	n/a
2175443	STOP	n/a	LTP066	ltpFR	11	n/a	n/a	n/a	n/a	n/a	n/a	n/a	n/a	n/a	n/a	n/a	n/a	n/a	n/a	n/a
2177594	WORD	wordpools/wasnorm_wordpool.txt	LTP066	ltpFR	11	11	1	CONDUCTOR	362	n/a	1	n/a	0	0	0	1	0.412841796875	0.57763671875	upper	../fonts/amplitud.ttf
2180595	START	n/a	LTP066	ltpFR	11	n/a	n/a	n/a	n/a	n/a	n/a	n/a	n/a	n/a	n/a	n/a	n/a	n/a	n/a	n/a
2181436	PROB	n/a	LTP066	ltpFR	11	n/a	n/a	n/a	n/a	n/a	n/a	19	8	6	5	n/a	n/a	n/a	n/a	n/a
2183536	PROB	n/a	LTP066	ltpFR	11	n/a	n/a	n/a	n/a	n/a	n/a	25	8	8	9	n/a	n/a	n/a	n/a	n/a
2185177	PROB	n/a	LTP066	ltpFR	11	n/a	n/a	n/a	n/a	n/a	n/a	12	1	5	6	n/a	n/a	n/a	n/a	n/a
2186294	PROB	n/a	LTP066	ltpFR	11	n/a	n/a	n/a	n/a	n/a	n/a	21	6	6	9	n/a	n/a	n/a	n/a	n/a
2188327	PROB	n/a	LTP066	ltpFR	11	n/a	n/a	n/a	n/a	n/a	n/a	8	3	3	2	n/a	n/a	n/a	n/a	n/a
2190018	PROB	n/a	LTP066	ltpFR	11	n/a	n/a	n/a	n/a	n/a	n/a	20	5	8	7	n/a	n/a	n/a	n/a	n/a
2191852	PROB	n/a	LTP066	ltpFR	11	n/a	n/a	n/a	n/a	n/a	n/a	14	5	1	8	n/a	n/a	n/a	n/a	n/a
2193185	PROB	n/a	LTP066	ltpFR	11	n/a	n/a	n/a	n/a	n/a	n/a	18	7	2	9	n/a	n/a	n/a	n/a	n/a
2195547	STOP	n/a	LTP066	ltpFR	11	n/a	n/a	n/a	n/a	n/a	n/a	n/a	n/a	n/a	n/a	n/a	n/a	n/a	n/a	n/a
2197526	WORD	wordpools/wasnorm_wordpool.txt	LTP066	ltpFR	11	11	0	LIPSTICK	829	n/a	0	n/a	0	0	0	0	0.5869140625	0.422607421875	lower	../fonts/zerothre.ttf
2200535	START	n/a	LTP066	ltpFR	11	n/a	n/a	n/a	n/a	n/a	n/a	n/a	n/a	n/a	n/a	n/a	n/a	n/a	n/a	n/a
2201634	PROB	n/a	LTP066	ltpFR	11	n/a	n/a	n/a	n/a	n/a	n/a	17	7	2	8	n/a	n/a	n/a	n/a	n/a
2204251	PROB	n/a	LTP066	ltpFR	11	n/a	n/a	n/a	n/a	n/a	n/a	18	3	7	8	n/a	n/a	n/a	n/a	n/a
2205326	PROB	n/a	LTP066	ltpFR	11	n/a	n/a	n/a	n/a	n/a	n/a	10	5	1	4	n/a	n/a	n/a	n/a	n/a
2207084	PROB	n/a	LTP066	ltpFR	11	n/a	n/a	n/a	n/a	n/a	n/a	14	2	5	7	n/a	n/a	n/a	n/a	n/a
2209084	PROB	n/a	LTP066	ltpFR	11	n/a	n/a	n/a	n/a	n/a	n/a	13	8	2	3	n/a	n/a	n/a	n/a	n/a
2210317	PROB	n/a	LTP066	ltpFR	11	n/a	n/a	n/a	n/a	n/a	n/a	20	8	4	8	n/a	n/a	n/a	n/a	n/a
2211967	PROB	n/a	LTP066	ltpFR	11	n/a	n/a	n/a	n/a	n/a	n/a	14	9	4	1	n/a	n/a	n/a	n/a	n/a
2213158	PROB	n/a	LTP066	ltpFR	11	n/a	n/a	n/a	n/a	n/a	n/a	9	2	5	2	n/a	n/a	n/a	n/a	n/a
2215747	STOP	n/a	LTP066	ltpFR	11	n/a	n/a	n/a	n/a	n/a	n/a	n/a	n/a	n/a	n/a	n/a	n/a	n/a	n/a	n/a
2217541	WORD	wordpools/wasnorm_wordpool.txt	LTP066	ltpFR	11	11	0	MOLECULE	905	n/a	0	n/a	0	0	0	0	0.5869140625	0.422607421875	lower	../fonts/zerothre.ttf
2220550	START	n/a	LTP066	ltpFR	11	n/a	n/a	n/a	n/a	n/a	n/a	n/a	n/a	n/a	n/a	n/a	n/a	n/a	n/a	n/a
2221674	PROB	n/a	LTP066	ltpFR	11	n/a	n/a	n/a	n/a	n/a	n/a	21	7	6	8	n/a	n/a	n/a	n/a	n/a
2223308	PROB	n/a	LTP066	ltpFR	11	n/a	n/a	n/a	n/a	n/a	n/a	13	2	8	3	n/a	n/a	n/a	n/a	n/a
2224766	PROB	n/a	LTP066	ltpFR	11	n/a	n/a	n/a	n/a	n/a	n/a	11	2	6	3	n/a	n/a	n/a	n/a	n/a
2226241	PROB	n/a	LTP066	ltpFR	11	n/a	n/a	n/a	n/a	n/a	n/a	17	8	8	1	n/a	n/a	n/a	n/a	n/a
2227624	PROB	n/a	LTP066	ltpFR	11	n/a	n/a	n/a	n/a	n/a	n/a	16	8	2	6	n/a	n/a	n/a	n/a	n/a
2229340	PROB	n/a	LTP066	ltpFR	11	n/a	n/a	n/a	n/a	n/a	n/a	23	8	8	7	n/a	n/a	n/a	n/a	n/a
2232132	PROB	n/a	LTP066	ltpFR	11	n/a	n/a	n/a	n/a	n/a	n/a	6	1	3	2	n/a	n/a	n/a	n/a	n/a
2233057	PROB	n/a	LTP066	ltpFR	11	n/a	n/a	n/a	n/a	n/a	n/a	17	8	1	8	n/a	n/a	n/a	n/a	n/a
2234165	PROB	n/a	LTP066	ltpFR	11	n/a	n/a	n/a	n/a	n/a	n/a	10	2	2	6	n/a	n/a	n/a	n/a	n/a
2235611	STOP	n/a	LTP066	ltpFR	11	n/a	n/a	n/a	n/a	n/a	n/a	n/a	n/a	n/a	n/a	n/a	n/a	n/a	n/a	n/a
2237615	WORD	wordpools/wasnorm_wordpool.txt	LTP066	ltpFR	11	11	0	FROST	609	n/a	1	n/a	0	0	0	0	0.5869140625	0.422607421875	lower	../fonts/zerothre.ttf
2240623	START	n/a	LTP066	ltpFR	11	n/a	n/a	n/a	n/a	n/a	n/a	n/a	n/a	n/a	n/a	n/a	n/a	n/a	n/a	n/a
2241706	PROB	n/a	LTP066	ltpFR	11	n/a	n/a	n/a	n/a	n/a	n/a	9	5	2	2	n/a	n/a	n/a	n/a	n/a
2243706	PROB	n/a	LTP066	ltpFR	11	n/a	n/a	n/a	n/a	n/a	n/a	18	1	8	9	n/a	n/a	n/a	n/a	n/a
2244906	PROB	n/a	LTP066	ltpFR	11	n/a	n/a	n/a	n/a	n/a	n/a	18	4	5	9	n/a	n/a	n/a	n/a	n/a
2247189	PROB	n/a	LTP066	ltpFR	11	n/a	n/a	n/a	n/a	n/a	n/a	18	4	9	5	n/a	n/a	n/a	n/a	n/a
2249339	PROB	n/a	LTP066	ltpFR	11	n/a	n/a	n/a	n/a	n/a	n/a	16	3	6	7	n/a	n/a	n/a	n/a	n/a
2251197	PROB	n/a	LTP066	ltpFR	11	n/a	n/a	n/a	n/a	n/a	n/a	10	6	3	1	n/a	n/a	n/a	n/a	n/a
2253314	PROB	n/a	LTP066	ltpFR	11	n/a	n/a	n/a	n/a	n/a	n/a	7	1	1	5	n/a	n/a	n/a	n/a	n/a
2254722	PROB	n/a	LTP066	ltpFR	11	n/a	n/a	n/a	n/a	n/a	n/a	13	7	4	2	n/a	n/a	n/a	n/a	n/a
2256315	STOP	n/a	LTP066	ltpFR	11	n/a	n/a	n/a	n/a	n/a	n/a	n/a	n/a	n/a	n/a	n/a	n/a	n/a	n/a	n/a
2257812	WORD	wordpools/wasnorm_wordpool.txt	LTP066	ltpFR	11	11	1	SWEATER	1419	n/a	0	n/a	0	0	0	1	0.412841796875	0.57763671875	upper	../fonts/amplitud.ttf
2260821	START	n/a	LTP066	ltpFR	11	n/a	n/a	n/a	n/a	n/a	n/a	n/a	n/a	n/a	n/a	n/a	n/a	n/a	n/a	n/a
2261812	PROB	n/a	LTP066	ltpFR	11	n/a	n/a	n/a	n/a	n/a	n/a	20	5	9	6	n/a	n/a	n/a	n/a	n/a
2263755	PROB	n/a	LTP066	ltpFR	11	n/a	n/a	n/a	n/a	n/a	n/a	23	5	9	9	n/a	n/a	n/a	n/a	n/a
2265063	PROB	n/a	LTP066	ltpFR	11	n/a	n/a	n/a	n/a	n/a	n/a	26	8	9	9	n/a	n/a	n/a	n/a	n/a
2266863	PROB	n/a	LTP066	ltpFR	11	n/a	n/a	n/a	n/a	n/a	n/a	6	1	3	2	n/a	n/a	n/a	n/a	n/a
2267996	PROB	n/a	LTP066	ltpFR	11	n/a	n/a	n/a	n/a	n/a	n/a	19	9	5	7	n/a	n/a	n/a	n/a	n/a
2269612	PROB	n/a	LTP066	ltpFR	11	n/a	n/a	n/a	n/a	n/a	n/a	11	2	5	4	n/a	n/a	n/a	n/a	n/a
2271828	PROB	n/a	LTP066	ltpFR	11	n/a	n/a	n/a	n/a	n/a	n/a	17	2	8	7	n/a	n/a	n/a	n/a	n/a
2273254	PROB	n/a	LTP066	ltpFR	11	n/a	n/a	n/a	n/a	n/a	n/a	13	2	6	5	n/a	n/a	n/a	n/a	n/a
2274454	PROB	n/a	LTP066	ltpFR	11	n/a	n/a	n/a	n/a	n/a	n/a	21	8	5	8	n/a	n/a	n/a	n/a	n/a
2275842	STOP	n/a	LTP066	ltpFR	11	n/a	n/a	n/a	n/a	n/a	n/a	n/a	n/a	n/a	n/a	n/a	n/a	n/a	n/a	n/a
2278012	WORD	wordpools/wasnorm_wordpool.txt	LTP066	ltpFR	11	11	1	RASH	1167	n/a	n/a	n/a	0	0	0	1	0.412841796875	0.57763671875	upper	../fonts/amplitud.ttf
2281037	SLOW_MSG	n/a	LTP066	ltpFR	11	11	n/a	n/a	n/a	n/a	n/a	n/a	0	0	0	n/a	n/a	n/a	n/a	n/a
2282554	START	n/a	LTP066	ltpFR	11	n/a	n/a	n/a	n/a	n/a	n/a	n/a	n/a	n/a	n/a	n/a	n/a	n/a	n/a	n/a
2283461	PROB	n/a	LTP066	ltpFR	11	n/a	n/a	n/a	n/a	n/a	n/a	16	5	9	2	n/a	n/a	n/a	n/a	n/a
2285203	PROB	n/a	LTP066	ltpFR	11	n/a	n/a	n/a	n/a	n/a	n/a	13	4	1	8	n/a	n/a	n/a	n/a	n/a
2286453	PROB	n/a	LTP066	ltpFR	11	n/a	n/a	n/a	n/a	n/a	n/a	21	7	8	6	n/a	n/a	n/a	n/a	n/a
2288403	PROB	n/a	LTP066	ltpFR	11	n/a	n/a	n/a	n/a	n/a	n/a	18	7	9	2	n/a	n/a	n/a	n/a	n/a
2290053	PROB	n/a	LTP066	ltpFR	11	n/a	n/a	n/a	n/a	n/a	n/a	22	6	7	9	n/a	n/a	n/a	n/a	n/a
2292261	PROB	n/a	LTP066	ltpFR	11	n/a	n/a	n/a	n/a	n/a	n/a	17	1	8	8	n/a	n/a	n/a	n/a	n/a
2293444	PROB	n/a	LTP066	ltpFR	11	n/a	n/a	n/a	n/a	n/a	n/a	9	5	2	2	n/a	n/a	n/a	n/a	n/a
2295402	PROB	n/a	LTP066	ltpFR	11	n/a	n/a	n/a	n/a	n/a	n/a	10	1	5	4	n/a	n/a	n/a	n/a	n/a
2296502	PROB	n/a	LTP066	ltpFR	11	n/a	n/a	n/a	n/a	n/a	n/a	10	1	7	2	n/a	n/a	n/a	n/a	n/a
2297523	STOP	n/a	LTP066	ltpFR	11	n/a	n/a	n/a	n/a	n/a	n/a	n/a	n/a	n/a	n/a	n/a	n/a	n/a	n/a	n/a
2299544	WORD	wordpools/wasnorm_wordpool.txt	LTP066	ltpFR	11	11	1	CHEMIST	292	n/a	1	n/a	0	0	0	1	0.412841796875	0.57763671875	upper	../fonts/amplitud.ttf
2302552	START	n/a	LTP066	ltpFR	11	n/a	n/a	n/a	n/a	n/a	n/a	n/a	n/a	n/a	n/a	n/a	n/a	n/a	n/a	n/a
2303627	PROB	n/a	LTP066	ltpFR	11	n/a	n/a	n/a	n/a	n/a	n/a	10	2	2	6	n/a	n/a	n/a	n/a	n/a
2305460	PROB	n/a	LTP066	ltpFR	11	n/a	n/a	n/a	n/a	n/a	n/a	15	9	5	1	n/a	n/a	n/a	n/a	n/a
2306601	PROB	n/a	LTP066	ltpFR	11	n/a	n/a	n/a	n/a	n/a	n/a	25	9	7	9	n/a	n/a	n/a	n/a	n/a
2310368	PROB	n/a	LTP066	ltpFR	11	n/a	n/a	n/a	n/a	n/a	n/a	22	8	6	8	n/a	n/a	n/a	n/a	n/a
2311709	PROB	n/a	LTP066	ltpFR	11	n/a	n/a	n/a	n/a	n/a	n/a	11	4	4	3	n/a	n/a	n/a	n/a	n/a
2313534	PROB	n/a	LTP066	ltpFR	11	n/a	n/a	n/a	n/a	n/a	n/a	12	3	2	7	n/a	n/a	n/a	n/a	n/a
2314692	PROB	n/a	LTP066	ltpFR	11	n/a	n/a	n/a	n/a	n/a	n/a	8	4	1	3	n/a	n/a	n/a	n/a	n/a
2315709	PROB	n/a	LTP066	ltpFR	11	n/a	n/a	n/a	n/a	n/a	n/a	14	6	2	6	n/a	n/a	n/a	n/a	n/a
2317017	PROB	n/a	LTP066	ltpFR	11	n/a	n/a	n/a	n/a	n/a	n/a	13	3	2	8	n/a	n/a	n/a	n/a	n/a
2318163	STOP	n/a	LTP066	ltpFR	11	n/a	n/a	n/a	n/a	n/a	n/a	n/a	n/a	n/a	n/a	n/a	n/a	n/a	n/a	n/a
2319600	WORD	wordpools/wasnorm_wordpool.txt	LTP066	ltpFR	11	11	0	SERGEANT	1269	n/a	1	n/a	0	0	0	0	0.5869140625	0.422607421875	lower	../fonts/zerothre.ttf
2322609	START	n/a	LTP066	ltpFR	11	n/a	n/a	n/a	n/a	n/a	n/a	n/a	n/a	n/a	n/a	n/a	n/a	n/a	n/a	n/a
2323808	PROB	n/a	LTP066	ltpFR	11	n/a	n/a	n/a	n/a	n/a	n/a	13	6	5	2	n/a	n/a	n/a	n/a	n/a
2325750	PROB	n/a	LTP066	ltpFR	11	n/a	n/a	n/a	n/a	n/a	n/a	19	5	9	5	n/a	n/a	n/a	n/a	n/a
2326892	PROB	n/a	LTP066	ltpFR	11	n/a	n/a	n/a	n/a	n/a	n/a	22	8	6	8	n/a	n/a	n/a	n/a	n/a
2328400	PROB	n/a	LTP066	ltpFR	11	n/a	n/a	n/a	n/a	n/a	n/a	18	3	8	6	n/a	n/a	n/a	n/a	n/a
2330033	PROB	n/a	LTP066	ltpFR	11	n/a	n/a	n/a	n/a	n/a	n/a	14	6	1	7	n/a	n/a	n/a	n/a	n/a
2331158	PROB	n/a	LTP066	ltpFR	11	n/a	n/a	n/a	n/a	n/a	n/a	7	2	2	3	n/a	n/a	n/a	n/a	n/a
2333141	PROB	n/a	LTP066	ltpFR	11	n/a	n/a	n/a	n/a	n/a	n/a	16	2	7	7	n/a	n/a	n/a	n/a	n/a
2334858	PROB	n/a	LTP066	ltpFR	11	n/a	n/a	n/a	n/a	n/a	n/a	7	3	3	1	n/a	n/a	n/a	n/a	n/a
2337091	STOP	n/a	LTP066	ltpFR	11	n/a	n/a	n/a	n/a	n/a	n/a	n/a	n/a	n/a	n/a	n/a	n/a	n/a	n/a	n/a
2339732	WORD	wordpools/wasnorm_wordpool.txt	LTP066	ltpFR	11	11	0	LOUNGE	845	n/a	1	n/a	0	0	0	0	0.5869140625	0.422607421875	lower	../fonts/zerothre.ttf
2342733	START	n/a	LTP066	ltpFR	11	n/a	n/a	n/a	n/a	n/a	n/a	n/a	n/a	n/a	n/a	n/a	n/a	n/a	n/a	n/a
2343665	PROB	n/a	LTP066	ltpFR	11	n/a	n/a	n/a	n/a	n/a	n/a	16	2	6	8	n/a	n/a	n/a	n/a	n/a
2346765	PROB	n/a	LTP066	ltpFR	11	n/a	n/a	n/a	n/a	n/a	n/a	15	1	8	6	n/a	n/a	n/a	n/a	n/a
2347748	PROB	n/a	LTP066	ltpFR	11	n/a	n/a	n/a	n/a	n/a	n/a	18	1	8	9	n/a	n/a	n/a	n/a	n/a
2348882	PROB	n/a	LTP066	ltpFR	11	n/a	n/a	n/a	n/a	n/a	n/a	19	5	4	9	n/a	n/a	n/a	n/a	n/a
2350132	PROB	n/a	LTP066	ltpFR	11	n/a	n/a	n/a	n/a	n/a	n/a	5	2	2	1	n/a	n/a	n/a	n/a	n/a
2351165	PROB	n/a	LTP066	ltpFR	11	n/a	n/a	n/a	n/a	n/a	n/a	19	9	5	5	n/a	n/a	n/a	n/a	n/a
2352290	PROB	n/a	LTP066	ltpFR	11	n/a	n/a	n/a	n/a	n/a	n/a	17	4	7	6	n/a	n/a	n/a	n/a	n/a
2354115	PROB	n/a	LTP066	ltpFR	11	n/a	n/a	n/a	n/a	n/a	n/a	22	7	6	9	n/a	n/a	n/a	n/a	n/a
2355406	PROB	n/a	LTP066	ltpFR	11	n/a	n/a	n/a	n/a	n/a	n/a	11	5	3	3	n/a	n/a	n/a	n/a	n/a
2356914	PROB	n/a	LTP066	ltpFR	11	n/a	n/a	n/a	n/a	n/a	n/a	13	3	1	9	n/a	n/a	n/a	n/a	n/a
2357915	STOP	n/a	LTP066	ltpFR	11	n/a	n/a	n/a	n/a	n/a	n/a	n/a	n/a	n/a	n/a	n/a	n/a	n/a	n/a	n/a
2359689	WORD	wordpools/wasnorm_wordpool.txt	LTP066	ltpFR	11	11	0	CURB	426	n/a	1	n/a	0	0	0	0	0.5869140625	0.422607421875	lower	../fonts/zerothre.ttf
2362698	START	n/a	LTP066	ltpFR	11	n/a	n/a	n/a	n/a	n/a	n/a	n/a	n/a	n/a	n/a	n/a	n/a	n/a	n/a	n/a
2363531	PROB	n/a	LTP066	ltpFR	11	n/a	n/a	n/a	n/a	n/a	n/a	17	9	3	5	n/a	n/a	n/a	n/a	n/a
2365305	PROB	n/a	LTP066	ltpFR	11	n/a	n/a	n/a	n/a	n/a	n/a	13	7	4	2	n/a	n/a	n/a	n/a	n/a
2367080	PROB	n/a	LTP066	ltpFR	11	n/a	n/a	n/a	n/a	n/a	n/a	14	4	7	3	n/a	n/a	n/a	n/a	n/a
2368597	PROB	n/a	LTP066	ltpFR	11	n/a	n/a	n/a	n/a	n/a	n/a	15	5	5	5	n/a	n/a	n/a	n/a	n/a
2369522	PROB	n/a	LTP066	ltpFR	11	n/a	n/a	n/a	n/a	n/a	n/a	13	5	3	5	n/a	n/a	n/a	n/a	n/a
2371272	PROB	n/a	LTP066	ltpFR	11	n/a	n/a	n/a	n/a	n/a	n/a	25	8	8	9	n/a	n/a	n/a	n/a	n/a
2373338	PROB	n/a	LTP066	ltpFR	11	n/a	n/a	n/a	n/a	n/a	n/a	6	2	1	3	n/a	n/a	n/a	n/a	n/a
2374380	PROB	n/a	LTP066	ltpFR	11	n/a	n/a	n/a	n/a	n/a	n/a	4	1	1	2	n/a	n/a	n/a	n/a	n/a
2375705	PROB	n/a	LTP066	ltpFR	11	n/a	n/a	n/a	n/a	n/a	n/a	8	1	1	6	n/a	n/a	n/a	n/a	n/a
2376812	PROB	n/a	LTP066	ltpFR	11	n/a	n/a	n/a	n/a	n/a	n/a	11	3	4	4	n/a	n/a	n/a	n/a	n/a
2378099	STOP	n/a	LTP066	ltpFR	11	n/a	n/a	n/a	n/a	n/a	n/a	n/a	n/a	n/a	n/a	n/a	n/a	n/a	n/a	n/a
2379588	WORD	wordpools/wasnorm_wordpool.txt	LTP066	ltpFR	11	11	0	CABBAGE	210	n/a	1	n/a	0	0	0	0	0.5869140625	0.422607421875	lower	../fonts/zerothre.ttf
2382596	START	n/a	LTP066	ltpFR	11	n/a	n/a	n/a	n/a	n/a	n/a	n/a	n/a	n/a	n/a	n/a	n/a	n/a	n/a	n/a
2383696	PROB	n/a	LTP066	ltpFR	11	n/a	n/a	n/a	n/a	n/a	n/a	22	8	5	9	n/a	n/a	n/a	n/a	n/a
2386462	PROB	n/a	LTP066	ltpFR	11	n/a	n/a	n/a	n/a	n/a	n/a	19	3	9	7	n/a	n/a	n/a	n/a	n/a
2387945	PROB	n/a	LTP066	ltpFR	11	n/a	n/a	n/a	n/a	n/a	n/a	21	8	8	5	n/a	n/a	n/a	n/a	n/a
2389470	PROB	n/a	LTP066	ltpFR	11	n/a	n/a	n/a	n/a	n/a	n/a	17	6	5	6	n/a	n/a	n/a	n/a	n/a
2391728	PROB	n/a	LTP066	ltpFR	11	n/a	n/a	n/a	n/a	n/a	n/a	20	6	7	7	n/a	n/a	n/a	n/a	n/a
2393802	PROB	n/a	LTP066	ltpFR	11	n/a	n/a	n/a	n/a	n/a	n/a	17	8	4	5	n/a	n/a	n/a	n/a	n/a
2395303	PROB	n/a	LTP066	ltpFR	11	n/a	n/a	n/a	n/a	n/a	n/a	8	5	1	2	n/a	n/a	n/a	n/a	n/a
2396353	PROB	n/a	LTP066	ltpFR	11	n/a	n/a	n/a	n/a	n/a	n/a	16	2	9	5	n/a	n/a	n/a	n/a	n/a
2397834	STOP	n/a	LTP066	ltpFR	11	n/a	n/a	n/a	n/a	n/a	n/a	n/a	n/a	n/a	n/a	n/a	n/a	n/a	n/a	n/a
2399411	WORD	wordpools/wasnorm_wordpool.txt	LTP066	ltpFR	11	11	0	PLANT	1083	n/a	1	n/a	0	0	0	0	0.5869140625	0.422607421875	lower	../fonts/zerothre.ttf
2402420	START	n/a	LTP066	ltpFR	11	n/a	n/a	n/a	n/a	n/a	n/a	n/a	n/a	n/a	n/a	n/a	n/a	n/a	n/a	n/a
2403411	PROB	n/a	LTP066	ltpFR	11	n/a	n/a	n/a	n/a	n/a	n/a	14	3	7	4	n/a	n/a	n/a	n/a	n/a
2405786	PROB	n/a	LTP066	ltpFR	11	n/a	n/a	n/a	n/a	n/a	n/a	16	7	7	2	n/a	n/a	n/a	n/a	n/a
2406977	PROB	n/a	LTP066	ltpFR	11	n/a	n/a	n/a	n/a	n/a	n/a	11	6	4	1	n/a	n/a	n/a	n/a	n/a
2408277	PROB	n/a	LTP066	ltpFR	11	n/a	n/a	n/a	n/a	n/a	n/a	11	1	9	1	n/a	n/a	n/a	n/a	n/a
2409752	PROB	n/a	LTP066	ltpFR	11	n/a	n/a	n/a	n/a	n/a	n/a	5	7	7	1	n/a	n/a	n/a	n/a	n/a
2411519	PROB	n/a	LTP066	ltpFR	11	n/a	n/a	n/a	n/a	n/a	n/a	12	8	3	1	n/a	n/a	n/a	n/a	n/a
2412885	PROB	n/a	LTP066	ltpFR	11	n/a	n/a	n/a	n/a	n/a	n/a	10	2	6	2	n/a	n/a	n/a	n/a	n/a
2414702	PROB	n/a	LTP066	ltpFR	11	n/a	n/a	n/a	n/a	n/a	n/a	13	4	4	5	n/a	n/a	n/a	n/a	n/a
2416102	PROB	n/a	LTP066	ltpFR	11	n/a	n/a	n/a	n/a	n/a	n/a	15	9	1	5	n/a	n/a	n/a	n/a	n/a
2417411	STOP	n/a	LTP066	ltpFR	11	n/a	n/a	n/a	n/a	n/a	n/a	n/a	n/a	n/a	n/a	n/a	n/a	n/a	n/a	n/a
2419235	WORD	wordpools/wasnorm_wordpool.txt	LTP066	ltpFR	11	11	1	SALESMAN	1225	n/a	1	n/a	0	0	0	1	0.412841796875	0.57763671875	upper	../fonts/amplitud.ttf
2422243	START	n/a	LTP066	ltpFR	11	n/a	n/a	n/a	n/a	n/a	n/a	n/a	n/a	n/a	n/a	n/a	n/a	n/a	n/a	n/a
2423309	PROB	n/a	LTP066	ltpFR	11	n/a	n/a	n/a	n/a	n/a	n/a	14	9	3	2	n/a	n/a	n/a	n/a	n/a
2424884	PROB	n/a	LTP066	ltpFR	11	n/a	n/a	n/a	n/a	n/a	n/a	17	1	9	7	n/a	n/a	n/a	n/a	n/a
2426009	PROB	n/a	LTP066	ltpFR	11	n/a	n/a	n/a	n/a	n/a	n/a	19	7	5	7	n/a	n/a	n/a	n/a	n/a
2427968	PROB	n/a	LTP066	ltpFR	11	n/a	n/a	n/a	n/a	n/a	n/a	8	3	4	1	n/a	n/a	n/a	n/a	n/a
2428934	PROB	n/a	LTP066	ltpFR	11	n/a	n/a	n/a	n/a	n/a	n/a	31	5	5	3	n/a	n/a	n/a	n/a	n/a
2430092	PROB	n/a	LTP066	ltpFR	11	n/a	n/a	n/a	n/a	n/a	n/a	18	5	8	5	n/a	n/a	n/a	n/a	n/a
2431726	PROB	n/a	LTP066	ltpFR	11	n/a	n/a	n/a	n/a	n/a	n/a	13	2	4	7	n/a	n/a	n/a	n/a	n/a
2433700	PROB	n/a	LTP066	ltpFR	11	n/a	n/a	n/a	n/a	n/a	n/a	23	6	9	8	n/a	n/a	n/a	n/a	n/a
2435367	PROB	n/a	LTP066	ltpFR	11	n/a	n/a	n/a	n/a	n/a	n/a	14	3	6	5	n/a	n/a	n/a	n/a	n/a
2436731	STOP	n/a	LTP066	ltpFR	11	n/a	n/a	n/a	n/a	n/a	n/a	n/a	n/a	n/a	n/a	n/a	n/a	n/a	n/a	n/a
2439275	WORD	wordpools/wasnorm_wordpool.txt	LTP066	ltpFR	11	11	1	BUYER	208	n/a	1	n/a	0	0	0	1	0.412841796875	0.57763671875	upper	../fonts/amplitud.ttf
2442284	START	n/a	LTP066	ltpFR	11	n/a	n/a	n/a	n/a	n/a	n/a	n/a	n/a	n/a	n/a	n/a	n/a	n/a	n/a	n/a
2443250	PROB	n/a	LTP066	ltpFR	11	n/a	n/a	n/a	n/a	n/a	n/a	10	1	5	4	n/a	n/a	n/a	n/a	n/a
2444558	PROB	n/a	LTP066	ltpFR	11	n/a	n/a	n/a	n/a	n/a	n/a	14	9	4	1	n/a	n/a	n/a	n/a	n/a
2445908	PROB	n/a	LTP066	ltpFR	11	n/a	n/a	n/a	n/a	n/a	n/a	13	3	3	7	n/a	n/a	n/a	n/a	n/a
2448791	PROB	n/a	LTP066	ltpFR	11	n/a	n/a	n/a	n/a	n/a	n/a	12	9	1	2	n/a	n/a	n/a	n/a	n/a
2450199	PROB	n/a	LTP066	ltpFR	11	n/a	n/a	n/a	n/a	n/a	n/a	20	9	9	2	n/a	n/a	n/a	n/a	n/a
2451624	PROB	n/a	LTP066	ltpFR	11	n/a	n/a	n/a	n/a	n/a	n/a	15	6	7	2	n/a	n/a	n/a	n/a	n/a
2453049	PROB	n/a	LTP066	ltpFR	11	n/a	n/a	n/a	n/a	n/a	n/a	2	5	2	5	n/a	n/a	n/a	n/a	n/a
2454166	PROB	n/a	LTP066	ltpFR	11	n/a	n/a	n/a	n/a	n/a	n/a	1	8	6	5	n/a	n/a	n/a	n/a	n/a
2456307	PROB	n/a	LTP066	ltpFR	11	n/a	n/a	n/a	n/a	n/a	n/a	19	9	2	8	n/a	n/a	n/a	n/a	n/a
2457818	STOP	n/a	LTP066	ltpFR	11	n/a	n/a	n/a	n/a	n/a	n/a	n/a	n/a	n/a	n/a	n/a	n/a	n/a	n/a	n/a
2459157	WORD	wordpools/wasnorm_wordpool.txt	LTP066	ltpFR	11	11	1	BROOM	178	n/a	0	n/a	0	0	0	1	0.412841796875	0.57763671875	upper	../fonts/amplitud.ttf
2462165	START	n/a	LTP066	ltpFR	11	n/a	n/a	n/a	n/a	n/a	n/a	n/a	n/a	n/a	n/a	n/a	n/a	n/a	n/a	n/a
2463257	PROB	n/a	LTP066	ltpFR	11	n/a	n/a	n/a	n/a	n/a	n/a	19	4	7	8	n/a	n/a	n/a	n/a	n/a
2465306	PROB	n/a	LTP066	ltpFR	11	n/a	n/a	n/a	n/a	n/a	n/a	16	9	1	6	n/a	n/a	n/a	n/a	n/a
2466698	PROB	n/a	LTP066	ltpFR	11	n/a	n/a	n/a	n/a	n/a	n/a	16	4	8	4	n/a	n/a	n/a	n/a	n/a
2468939	PROB	n/a	LTP066	ltpFR	11	n/a	n/a	n/a	n/a	n/a	n/a	14	2	3	9	n/a	n/a	n/a	n/a	n/a
2473956	PROB	n/a	LTP066	ltpFR	11	n/a	n/a	n/a	n/a	n/a	n/a	7	2	1	4	n/a	n/a	n/a	n/a	n/a
2475281	PROB	n/a	LTP066	ltpFR	11	n/a	n/a	n/a	n/a	n/a	n/a	12	7	4	1	n/a	n/a	n/a	n/a	n/a
2477699	STOP	n/a	LTP066	ltpFR	11	n/a	n/a	n/a	n/a	n/a	n/a	n/a	n/a	n/a	n/a	n/a	n/a	n/a	n/a	n/a
2479898	REC_START	n/a	LTP066	ltpFR	11	11	n/a	n/a	n/a	n/a	n/a	n/a	0	0	0	n/a	n/a	n/a	n/a	n/a
2480985	REC_WORD	wordpools/wasnorm_wordpool.txt	LTP066	ltpFR	11	11	1	BROOM	178	n/a	0	n/a	0	0	0	n/a	n/a	n/a	n/a	n/a
2482846	REC_WORD	wordpools/wasnorm_wordpool.txt	LTP066	ltpFR	11	11	1	SALESMAN	1225	n/a	1	n/a	0	0	0	n/a	n/a	n/a	n/a	n/a
2484687	REC_WORD	wordpools/wasnorm_wordpool.txt	LTP066	ltpFR	11	11	1	CHEMIST	292	n/a	1	n/a	0	0	0	n/a	n/a	n/a	n/a	n/a
2487186	REC_WORD	wordpools/wasnorm_wordpool.txt	LTP066	ltpFR	11	11	0	CURB	426	n/a	1	n/a	0	0	0	n/a	n/a	n/a	n/a	n/a
2557550	START	n/a	LTP066	ltpFR	11	n/a	n/a	n/a	n/a	n/a	n/a	n/a	n/a	n/a	n/a	n/a	n/a	n/a	n/a	n/a
2559058	PROB	n/a	LTP066	ltpFR	11	n/a	n/a	n/a	n/a	n/a	n/a	9	2	2	5	n/a	n/a	n/a	n/a	n/a
2561758	PROB	n/a	LTP066	ltpFR	11	n/a	n/a	n/a	n/a	n/a	n/a	20	6	9	5	n/a	n/a	n/a	n/a	n/a
2563757	PROB	n/a	LTP066	ltpFR	11	n/a	n/a	n/a	n/a	n/a	n/a	15	7	7	1	n/a	n/a	n/a	n/a	n/a
2564842	STOP	n/a	LTP066	ltpFR	11	n/a	n/a	n/a	n/a	n/a	n/a	n/a	n/a	n/a	n/a	n/a	n/a	n/a	n/a	n/a
2566374	WORD	wordpools/wasnorm_wordpool.txt	LTP066	ltpFR	11	12	1	CAULIFLOWER	262	n/a	0	n/a	0	0	0	1	0.412841796875	0.57763671875	upper	../fonts/amplitud.ttf
2569383	START	n/a	LTP066	ltpFR	11	n/a	n/a	n/a	n/a	n/a	n/a	n/a	n/a	n/a	n/a	n/a	n/a	n/a	n/a	n/a
2570382	PROB	n/a	LTP066	ltpFR	11	n/a	n/a	n/a	n/a	n/a	n/a	14	4	2	8	n/a	n/a	n/a	n/a	n/a
2572215	PROB	n/a	LTP066	ltpFR	11	n/a	n/a	n/a	n/a	n/a	n/a	15	4	3	8	n/a	n/a	n/a	n/a	n/a
2573814	PROB	n/a	LTP066	ltpFR	11	n/a	n/a	n/a	n/a	n/a	n/a	20	4	9	7	n/a	n/a	n/a	n/a	n/a
2575573	PROB	n/a	LTP066	ltpFR	11	n/a	n/a	n/a	n/a	n/a	n/a	17	6	4	7	n/a	n/a	n/a	n/a	n/a
2576731	STOP	n/a	LTP066	ltpFR	11	n/a	n/a	n/a	n/a	n/a	n/a	n/a	n/a	n/a	n/a	n/a	n/a	n/a	n/a	n/a
2578398	WORD	wordpools/wasnorm_wordpool.txt	LTP066	ltpFR	11	12	1	BUNNY	198	n/a	1	n/a	0	0	0	1	0.412841796875	0.57763671875	upper	../fonts/amplitud.ttf
2581407	START	n/a	LTP066	ltpFR	11	n/a	n/a	n/a	n/a	n/a	n/a	n/a	n/a	n/a	n/a	n/a	n/a	n/a	n/a	n/a
2582456	PROB	n/a	LTP066	ltpFR	11	n/a	n/a	n/a	n/a	n/a	n/a	13	1	4	8	n/a	n/a	n/a	n/a	n/a
2583881	PROB	n/a	LTP066	ltpFR	11	n/a	n/a	n/a	n/a	n/a	n/a	16	3	5	8	n/a	n/a	n/a	n/a	n/a
2585472	PROB	n/a	LTP066	ltpFR	11	n/a	n/a	n/a	n/a	n/a	n/a	19	7	3	9	n/a	n/a	n/a	n/a	n/a
2587656	PROB	n/a	LTP066	ltpFR	11	n/a	n/a	n/a	n/a	n/a	n/a	13	6	5	2	n/a	n/a	n/a	n/a	n/a
2589099	STOP	n/a	LTP066	ltpFR	11	n/a	n/a	n/a	n/a	n/a	n/a	n/a	n/a	n/a	n/a	n/a	n/a	n/a	n/a	n/a
2590339	WORD	wordpools/wasnorm_wordpool.txt	LTP066	ltpFR	11	12	1	CHICK	296	n/a	1	n/a	0	0	0	1	0.412841796875	0.57763671875	upper	../fonts/amplitud.ttf
2593347	START	n/a	LTP066	ltpFR	11	n/a	n/a	n/a	n/a	n/a	n/a	n/a	n/a	n/a	n/a	n/a	n/a	n/a	n/a	n/a
2594180	PROB	n/a	LTP066	ltpFR	11	n/a	n/a	n/a	n/a	n/a	n/a	15	8	5	2	n/a	n/a	n/a	n/a	n/a
2595605	PROB	n/a	LTP066	ltpFR	11	n/a	n/a	n/a	n/a	n/a	n/a	18	4	7	7	n/a	n/a	n/a	n/a	n/a
2597130	PROB	n/a	LTP066	ltpFR	11	n/a	n/a	n/a	n/a	n/a	n/a	19	5	8	6	n/a	n/a	n/a	n/a	n/a
2599147	PROB	n/a	LTP066	ltpFR	11	n/a	n/a	n/a	n/a	n/a	n/a	2	7	5	9	n/a	n/a	n/a	n/a	n/a
2600947	STOP	n/a	LTP066	ltpFR	11	n/a	n/a	n/a	n/a	n/a	n/a	n/a	n/a	n/a	n/a	n/a	n/a	n/a	n/a	n/a
2602238	WORD	wordpools/wasnorm_wordpool.txt	LTP066	ltpFR	11	12	1	SLIME	1327	n/a	0	n/a	0	0	0	1	0.412841796875	0.57763671875	upper	../fonts/amplitud.ttf
2605246	START	n/a	LTP066	ltpFR	11	n/a	n/a	n/a	n/a	n/a	n/a	n/a	n/a	n/a	n/a	n/a	n/a	n/a	n/a	n/a
2606104	PROB	n/a	LTP066	ltpFR	11	n/a	n/a	n/a	n/a	n/a	n/a	19	3	8	8	n/a	n/a	n/a	n/a	n/a
2608079	PROB	n/a	LTP066	ltpFR	11	n/a	n/a	n/a	n/a	n/a	n/a	13	2	6	5	n/a	n/a	n/a	n/a	n/a
2610687	PROB	n/a	LTP066	ltpFR	11	n/a	n/a	n/a	n/a	n/a	n/a	9	2	6	1	n/a	n/a	n/a	n/a	n/a
2612259	STOP	n/a	LTP066	ltpFR	11	n/a	n/a	n/a	n/a	n/a	n/a	n/a	n/a	n/a	n/a	n/a	n/a	n/a	n/a	n/a
2614287	WORD	wordpools/wasnorm_wordpool.txt	LTP066	ltpFR	11	12	1	COUSIN	392	n/a	1	n/a	0	0	0	1	0.412841796875	0.57763671875	upper	../fonts/amplitud.ttf
2617296	START	n/a	LTP066	ltpFR	11	n/a	n/a	n/a	n/a	n/a	n/a	n/a	n/a	n/a	n/a	n/a	n/a	n/a	n/a	n/a
2618170	PROB	n/a	LTP066	ltpFR	11	n/a	n/a	n/a	n/a	n/a	n/a	14	5	4	5	n/a	n/a	n/a	n/a	n/a
2620811	PROB	n/a	LTP066	ltpFR	11	n/a	n/a	n/a	n/a	n/a	n/a	16	8	3	5	n/a	n/a	n/a	n/a	n/a
2622070	PROB	n/a	LTP066	ltpFR	11	n/a	n/a	n/a	n/a	n/a	n/a	8	2	2	4	n/a	n/a	n/a	n/a	n/a
2623445	PROB	n/a	LTP066	ltpFR	11	n/a	n/a	n/a	n/a	n/a	n/a	12	4	1	7	n/a	n/a	n/a	n/a	n/a
2624611	STOP	n/a	LTP066	ltpFR	11	n/a	n/a	n/a	n/a	n/a	n/a	n/a	n/a	n/a	n/a	n/a	n/a	n/a	n/a	n/a
2626294	WORD	wordpools/wasnorm_wordpool.txt	LTP066	ltpFR	11	12	1	JUVENILE	767	n/a	1	n/a	0	0	0	1	0.412841796875	0.57763671875	upper	../fonts/amplitud.ttf
2629295	START	n/a	LTP066	ltpFR	11	n/a	n/a	n/a	n/a	n/a	n/a	n/a	n/a	n/a	n/a	n/a	n/a	n/a	n/a	n/a
2630452	PROB	n/a	LTP066	ltpFR	11	n/a	n/a	n/a	n/a	n/a	n/a	12	3	8	1	n/a	n/a	n/a	n/a	n/a
2632336	PROB	n/a	LTP066	ltpFR	11	n/a	n/a	n/a	n/a	n/a	n/a	8	1	1	6	n/a	n/a	n/a	n/a	n/a
2633294	PROB	n/a	LTP066	ltpFR	11	n/a	n/a	n/a	n/a	n/a	n/a	14	8	4	2	n/a	n/a	n/a	n/a	n/a
2634386	PROB	n/a	LTP066	ltpFR	11	n/a	n/a	n/a	n/a	n/a	n/a	19	4	8	7	n/a	n/a	n/a	n/a	n/a
2635834	STOP	n/a	LTP066	ltpFR	11	n/a	n/a	n/a	n/a	n/a	n/a	n/a	n/a	n/a	n/a	n/a	n/a	n/a	n/a	n/a
2638244	WORD	wordpools/wasnorm_wordpool.txt	LTP066	ltpFR	11	12	0	KID	775	n/a	1	n/a	0	0	0	0	0.5869140625	0.422607421875	lower	../fonts/zerothre.ttf
2641252	START	n/a	LTP066	ltpFR	11	n/a	n/a	n/a	n/a	n/a	n/a	n/a	n/a	n/a	n/a	n/a	n/a	n/a	n/a	n/a
2642193	PROB	n/a	LTP066	ltpFR	11	n/a	n/a	n/a	n/a	n/a	n/a	21	7	7	7	n/a	n/a	n/a	n/a	n/a
2643552	PROB	n/a	LTP066	ltpFR	11	n/a	n/a	n/a	n/a	n/a	n/a	1	8	7	4	n/a	n/a	n/a	n/a	n/a
2645510	PROB	n/a	LTP066	ltpFR	11	n/a	n/a	n/a	n/a	n/a	n/a	15	6	3	6	n/a	n/a	n/a	n/a	n/a
2648443	STOP	n/a	LTP066	ltpFR	11	n/a	n/a	n/a	n/a	n/a	n/a	n/a	n/a	n/a	n/a	n/a	n/a	n/a	n/a	n/a
2650301	WORD	wordpools/wasnorm_wordpool.txt	LTP066	ltpFR	11	12	0	RADISH	1158	n/a	0	n/a	0	0	0	0	0.5869140625	0.422607421875	lower	../fonts/zerothre.ttf
2653310	START	n/a	LTP066	ltpFR	11	n/a	n/a	n/a	n/a	n/a	n/a	n/a	n/a	n/a	n/a	n/a	n/a	n/a	n/a	n/a
2654501	PROB	n/a	LTP066	ltpFR	11	n/a	n/a	n/a	n/a	n/a	n/a	12	4	4	4	n/a	n/a	n/a	n/a	n/a
2655692	PROB	n/a	LTP066	ltpFR	11	n/a	n/a	n/a	n/a	n/a	n/a	15	6	3	6	n/a	n/a	n/a	n/a	n/a
2657209	PROB	n/a	LTP066	ltpFR	11	n/a	n/a	n/a	n/a	n/a	n/a	11	7	1	3	n/a	n/a	n/a	n/a	n/a
2658459	PROB	n/a	LTP066	ltpFR	11	n/a	n/a	n/a	n/a	n/a	n/a	18	9	4	5	n/a	n/a	n/a	n/a	n/a
2660267	STOP	n/a	LTP066	ltpFR	11	n/a	n/a	n/a	n/a	n/a	n/a	n/a	n/a	n/a	n/a	n/a	n/a	n/a	n/a	n/a
