onset	duration	trial_type	sample	stim_file	subject	experiment	session	trial	task	item_name	item_num	recog_resp	recog_conf	resp	answer	test_x	test_y	test_z	color_r	color_g	color_b	case	font
263.172	n/a	SESS_START	131586	n/a	LTP192	ltpFR	11	n/a	n/a	n/a	n/a	1	1	n/a	n/a	0	0	0	n/a	n/a	n/a	n/a	n/a
298.446	n/a	START	149223	n/a	LTP192	ltpFR	11	n/a	n/a	n/a	n/a	n/a	n/a	n/a	n/a	n/a	n/a	n/a	n/a	n/a	n/a	n/a	n/a
298.478	n/a	PROB	149239	n/a	LTP192	ltpFR	11	n/a	n/a	n/a	n/a	n/a	n/a	n/a	19	2	9	8	n/a	n/a	n/a	n/a	n/a
300.792	n/a	PROB	150396	n/a	LTP192	ltpFR	11	n/a	n/a	n/a	n/a	n/a	n/a	n/a	21	8	5	8	n/a	n/a	n/a	n/a	n/a
302.922	n/a	PROB	151461	n/a	LTP192	ltpFR	11	n/a	n/a	n/a	n/a	n/a	n/a	n/a	16	7	1	6	n/a	n/a	n/a	n/a	n/a
305.552	n/a	PROB	152776	n/a	LTP192	ltpFR	11	n/a	n/a	n/a	n/a	n/a	n/a	n/a	7	1	2	4	n/a	n/a	n/a	n/a	n/a
307.448	n/a	PROB	153724	n/a	LTP192	ltpFR	11	n/a	n/a	n/a	n/a	n/a	n/a	n/a	12	6	2	4	n/a	n/a	n/a	n/a	n/a
309.562	n/a	PROB	154781	n/a	LTP192	ltpFR	11	n/a	n/a	n/a	n/a	n/a	n/a	n/a	21	4	9	8	n/a	n/a	n/a	n/a	n/a
311.46	n/a	PROB	155730	n/a	LTP192	ltpFR	11	n/a	n/a	n/a	n/a	n/a	n/a	n/a	14	9	2	3	n/a	n/a	n/a	n/a	n/a
313.174	n/a	PROB	156587	n/a	LTP192	ltpFR	11	n/a	n/a	n/a	n/a	n/a	n/a	n/a	12	3	3	6	n/a	n/a	n/a	n/a	n/a
315.436	n/a	PROB	157718	n/a	LTP192	ltpFR	11	n/a	n/a	n/a	n/a	n/a	n/a	n/a	11	4	5	2	n/a	n/a	n/a	n/a	n/a
317.91	n/a	STOP	158955	n/a	LTP192	ltpFR	11	n/a	n/a	n/a	n/a	n/a	n/a	n/a	n/a	n/a	n/a	n/a	n/a	n/a	n/a	n/a	n/a
349.086	n/a	WORD	174543	wordpools/wasnorm_wordpool_less_exclusions.txt	LTP192	ltpFR	11	1	0	LABEL	790	0	n/a	0	n/a	0	0	0	0.57763671875	0.412841796875	1	lower	zerothre.ttf
353.148	n/a	WORD	176574	wordpools/wasnorm_wordpool_less_exclusions.txt	LTP192	ltpFR	11	1	0	VOLCANO	1575	n/a	n/a	1	n/a	0	0	0	0.57763671875	0.412841796875	1	lower	zerothre.ttf
357.292	n/a	WORD	178646	wordpools/wasnorm_wordpool_less_exclusions.txt	LTP192	ltpFR	11	1	0	SUITCASE	1403	n/a	n/a	1	n/a	0	0	0	0.57763671875	0.412841796875	1	lower	zerothre.ttf
361.136	n/a	WORD	180568	wordpools/wasnorm_wordpool_less_exclusions.txt	LTP192	ltpFR	11	1	0	ARTERY	41	n/a	n/a	0	n/a	0	0	0	0.57763671875	0.412841796875	1	lower	zerothre.ttf
365.264	n/a	WORD	182632	wordpools/wasnorm_wordpool_less_exclusions.txt	LTP192	ltpFR	11	1	0	CARPET	247	n/a	n/a	1	n/a	0	0	0	0.57763671875	0.412841796875	1	lower	zerothre.ttf
369.274	n/a	WORD	184637	wordpools/wasnorm_wordpool_less_exclusions.txt	LTP192	ltpFR	11	1	0	PLASTER	1085	n/a	n/a	1	n/a	0	0	0	0.57763671875	0.412841796875	1	lower	zerothre.ttf
373.152	n/a	WORD	186576	wordpools/wasnorm_wordpool_less_exclusions.txt	LTP192	ltpFR	11	1	0	SIGNATURE	1306	n/a	n/a	0	n/a	0	0	0	0.57763671875	0.412841796875	1	lower	zerothre.ttf
377.162	n/a	WORD	188581	wordpools/wasnorm_wordpool_less_exclusions.txt	LTP192	ltpFR	11	1	0	RAFT	1159	n/a	n/a	1	n/a	0	0	0	0.57763671875	0.412841796875	1	lower	zerothre.ttf
380.99	n/a	WORD	190495	wordpools/wasnorm_wordpool_less_exclusions.txt	LTP192	ltpFR	11	1	0	WATER	1594	n/a	n/a	0	n/a	0	0	0	0.57763671875	0.412841796875	1	lower	zerothre.ttf
385.118	n/a	WORD	192559	wordpools/wasnorm_wordpool_less_exclusions.txt	LTP192	ltpFR	11	1	0	VIKING	1565	n/a	n/a	1	n/a	0	0	0	0.57763671875	0.412841796875	1	lower	zerothre.ttf
388.96	n/a	WORD	194480	wordpools/wasnorm_wordpool_less_exclusions.txt	LTP192	ltpFR	11	1	0	OTTER	986	n/a	n/a	1	n/a	0	0	0	0.57763671875	0.412841796875	1	lower	zerothre.ttf
392.854	n/a	WORD	196427	wordpools/wasnorm_wordpool_less_exclusions.txt	LTP192	ltpFR	11	1	0	CONTRACT	368	n/a	n/a	0	n/a	0	0	0	0.57763671875	0.412841796875	1	lower	zerothre.ttf
396.716	n/a	WORD	198358	wordpools/wasnorm_wordpool_less_exclusions.txt	LTP192	ltpFR	11	1	0	YOLK	1633	n/a	n/a	0	n/a	0	0	0	0.57763671875	0.412841796875	1	lower	zerothre.ttf
400.726	n/a	WORD	200363	wordpools/wasnorm_wordpool_less_exclusions.txt	LTP192	ltpFR	11	1	0	OVAL	990	n/a	n/a	1	n/a	0	0	0	0.57763671875	0.412841796875	1	lower	zerothre.ttf
404.736	n/a	WORD	202368	wordpools/wasnorm_wordpool_less_exclusions.txt	LTP192	ltpFR	11	1	0	TREAD	1499	n/a	n/a	1	n/a	0	0	0	0.57763671875	0.412841796875	1	lower	zerothre.ttf
408.666	n/a	WORD	204333	wordpools/wasnorm_wordpool_less_exclusions.txt	LTP192	ltpFR	11	1	0	THRONE	1461	n/a	n/a	1	n/a	0	0	0	0.57763671875	0.412841796875	1	lower	zerothre.ttf
411.678	n/a	START	205839	n/a	LTP192	ltpFR	11	n/a	n/a	n/a	n/a	n/a	n/a	n/a	n/a	n/a	n/a	n/a	n/a	n/a	n/a	n/a	n/a
412.724	n/a	PROB	206362	n/a	LTP192	ltpFR	11	n/a	n/a	n/a	n/a	n/a	n/a	n/a	16	7	2	5	n/a	n/a	n/a	n/a	n/a
414.822	n/a	PROB	207411	n/a	LTP192	ltpFR	11	n/a	n/a	n/a	n/a	n/a	n/a	n/a	17	4	8	5	n/a	n/a	n/a	n/a	n/a
417.32	n/a	PROB	208660	n/a	LTP192	ltpFR	11	n/a	n/a	n/a	n/a	n/a	n/a	n/a	19	9	3	7	n/a	n/a	n/a	n/a	n/a
418.68	n/a	STOP	209340	n/a	LTP192	ltpFR	11	n/a	n/a	n/a	n/a	n/a	n/a	n/a	n/a	n/a	n/a	n/a	n/a	n/a	n/a	n/a	n/a
421.43	n/a	REC_START	210715	n/a	LTP192	ltpFR	11	1	n/a	n/a	n/a	n/a	n/a	n/a	n/a	0	0	0	n/a	n/a	n/a	n/a	n/a
422.148	n/a	REC_WORD	211074	wordpools/wasnorm_wordpool_less_exclusions.txt	LTP192	ltpFR	11	1	0	OTTER	986	n/a	n/a	1	n/a	0	0	0	n/a	n/a	n/a	n/a	n/a
422.986	n/a	REC_WORD	211493	wordpools/wasnorm_wordpool_less_exclusions.txt	LTP192	ltpFR	11	1	0	RAFT	1159	n/a	n/a	1	n/a	0	0	0	n/a	n/a	n/a	n/a	n/a
423.834	n/a	REC_WORD	211917	wordpools/wasnorm_wordpool_less_exclusions.txt	LTP192	ltpFR	11	1	0	WATER	1594	n/a	n/a	0	n/a	0	0	0	n/a	n/a	n/a	n/a	n/a
424.642	n/a	REC_WORD	212321	wordpools/wasnorm_wordpool_less_exclusions.txt	LTP192	ltpFR	11	1	0	VOLCANO	1575	n/a	n/a	1	n/a	0	0	0	n/a	n/a	n/a	n/a	n/a
426.39	n/a	REC_WORD	213195	wordpools/wasnorm_wordpool_less_exclusions.txt	LTP192	ltpFR	11	1	0	LABEL	790	n/a	n/a	0	n/a	0	0	0	n/a	n/a	n/a	n/a	n/a
427.592	n/a	REC_WORD	213796	wordpools/wasnorm_wordpool_less_exclusions.txt	LTP192	ltpFR	11	1	0	OVAL	990	n/a	n/a	1	n/a	0	0	0	n/a	n/a	n/a	n/a	n/a
432.62	n/a	REC_WORD	216310	wordpools/wasnorm_wordpool_less_exclusions.txt	LTP192	ltpFR	11	1	0	CONTRACT	368	n/a	n/a	0	n/a	0	0	0	n/a	n/a	n/a	n/a	n/a
433.534	n/a	REC_WORD	216767	wordpools/wasnorm_wordpool_less_exclusions.txt	LTP192	ltpFR	11	1	0	SIGNATURE	1306	n/a	n/a	0	n/a	0	0	0	n/a	n/a	n/a	n/a	n/a
436.392	n/a	REC_WORD	218196	wordpools/wasnorm_wordpool_less_exclusions.txt	LTP192	ltpFR	11	1	0	YOLK	1633	n/a	n/a	0	n/a	0	0	0	n/a	n/a	n/a	n/a	n/a
440.404	n/a	REC_WORD	220202	wordpools/wasnorm_wordpool_less_exclusions.txt	LTP192	ltpFR	11	1	0	SUITCASE	1403	n/a	n/a	1	n/a	0	0	0	n/a	n/a	n/a	n/a	n/a
498.048	n/a	START	249024	n/a	LTP192	ltpFR	11	n/a	n/a	n/a	n/a	n/a	n/a	n/a	n/a	n/a	n/a	n/a	n/a	n/a	n/a	n/a	n/a
499.564	n/a	PROB	249782	n/a	LTP192	ltpFR	11	n/a	n/a	n/a	n/a	n/a	n/a	n/a	21	9	8	4	n/a	n/a	n/a	n/a	n/a
502.41	n/a	PROB	251205	n/a	LTP192	ltpFR	11	n/a	n/a	n/a	n/a	n/a	n/a	n/a	17	8	3	6	n/a	n/a	n/a	n/a	n/a
504.29	n/a	PROB	252145	n/a	LTP192	ltpFR	11	n/a	n/a	n/a	n/a	n/a	n/a	n/a	11	6	2	3	n/a	n/a	n/a	n/a	n/a
506.008	n/a	STOP	253004	n/a	LTP192	ltpFR	11	n/a	n/a	n/a	n/a	n/a	n/a	n/a	n/a	n/a	n/a	n/a	n/a	n/a	n/a	n/a	n/a
507.286	n/a	WORD	253643	wordpools/wasnorm_wordpool_less_exclusions.txt	LTP192	ltpFR	11	2	1	CHAIR	274	n/a	n/a	0	n/a	0	0	0	0.422607421875	0.5869140625	0	upper	amplitud.ttf
510.3	n/a	START	255150	n/a	LTP192	ltpFR	11	n/a	n/a	n/a	n/a	n/a	n/a	n/a	n/a	n/a	n/a	n/a	n/a	n/a	n/a	n/a	n/a
511.48	n/a	PROB	255740	n/a	LTP192	ltpFR	11	n/a	n/a	n/a	n/a	n/a	n/a	n/a	21	6	7	8	n/a	n/a	n/a	n/a	n/a
514.292	n/a	PROB	257146	n/a	LTP192	ltpFR	11	n/a	n/a	n/a	n/a	n/a	n/a	n/a	19	9	6	4	n/a	n/a	n/a	n/a	n/a
515.324	n/a	PROB	257662	n/a	LTP192	ltpFR	11	n/a	n/a	n/a	n/a	n/a	n/a	n/a	19	6	9	4	n/a	n/a	n/a	n/a	n/a
516.406	n/a	PROB	258203	n/a	LTP192	ltpFR	11	n/a	n/a	n/a	n/a	n/a	n/a	n/a	11	4	1	6	n/a	n/a	n/a	n/a	n/a
517.554	n/a	STOP	258777	n/a	LTP192	ltpFR	11	n/a	n/a	n/a	n/a	n/a	n/a	n/a	n/a	n/a	n/a	n/a	n/a	n/a	n/a	n/a	n/a
519.236	n/a	WORD	259618	wordpools/wasnorm_wordpool_less_exclusions.txt	LTP192	ltpFR	11	2	1	SKATE	1313	n/a	n/a	0	n/a	0	0	0	0.422607421875	0.5869140625	0	upper	amplitud.ttf
522.248	n/a	START	261124	n/a	LTP192	ltpFR	11	n/a	n/a	n/a	n/a	n/a	n/a	n/a	n/a	n/a	n/a	n/a	n/a	n/a	n/a	n/a	n/a
523.312	n/a	PROB	261656	n/a	LTP192	ltpFR	11	n/a	n/a	n/a	n/a	n/a	n/a	n/a	21	6	9	4	n/a	n/a	n/a	n/a	n/a
525.094	n/a	PROB	262547	n/a	LTP192	ltpFR	11	n/a	n/a	n/a	n/a	n/a	n/a	n/a	14	9	3	2	n/a	n/a	n/a	n/a	n/a
527.206	n/a	PROB	263603	n/a	LTP192	ltpFR	11	n/a	n/a	n/a	n/a	n/a	n/a	n/a	8	1	4	3	n/a	n/a	n/a	n/a	n/a
528.834	n/a	STOP	264417	n/a	LTP192	ltpFR	11	n/a	n/a	n/a	n/a	n/a	n/a	n/a	n/a	n/a	n/a	n/a	n/a	n/a	n/a	n/a	n/a
531.3	n/a	WORD	265650	wordpools/wasnorm_wordpool_less_exclusions.txt	LTP192	ltpFR	11	2	1	SPIDER	1351	n/a	n/a	1	n/a	0	0	0	0.422607421875	0.5869140625	0	upper	amplitud.ttf
534.314	n/a	START	267157	n/a	LTP192	ltpFR	11	n/a	n/a	n/a	n/a	n/a	n/a	n/a	n/a	n/a	n/a	n/a	n/a	n/a	n/a	n/a	n/a
535.178	n/a	PROB	267589	n/a	LTP192	ltpFR	11	n/a	n/a	n/a	n/a	n/a	n/a	n/a	15	3	3	9	n/a	n/a	n/a	n/a	n/a
539.038	n/a	PROB	269519	n/a	LTP192	ltpFR	11	n/a	n/a	n/a	n/a	n/a	n/a	n/a	1	9	4	3	n/a	n/a	n/a	n/a	n/a
541.418	n/a	STOP	270709	n/a	LTP192	ltpFR	11	n/a	n/a	n/a	n/a	n/a	n/a	n/a	n/a	n/a	n/a	n/a	n/a	n/a	n/a	n/a	n/a
543.4	n/a	WORD	271700	wordpools/wasnorm_wordpool_less_exclusions.txt	LTP192	ltpFR	11	2	1	WOMAN	1620	n/a	n/a	1	n/a	0	0	0	0.422607421875	0.5869140625	0	upper	amplitud.ttf
546.412	n/a	START	273206	n/a	LTP192	ltpFR	11	n/a	n/a	n/a	n/a	n/a	n/a	n/a	n/a	n/a	n/a	n/a	n/a	n/a	n/a	n/a	n/a
547.476	n/a	PROB	273738	n/a	LTP192	ltpFR	11	n/a	n/a	n/a	n/a	n/a	n/a	n/a	24	7	8	9	n/a	n/a	n/a	n/a	n/a
554.412	n/a	STOP	277206	n/a	LTP192	ltpFR	11	n/a	n/a	n/a	n/a	n/a	n/a	n/a	n/a	n/a	n/a	n/a	n/a	n/a	n/a	n/a	n/a
555.614	n/a	WORD	277807	wordpools/wasnorm_wordpool_less_exclusions.txt	LTP192	ltpFR	11	2	1	FEMALE	559	n/a	n/a	1	n/a	0	0	0	0.422607421875	0.5869140625	0	upper	amplitud.ttf
558.628	n/a	START	279314	n/a	LTP192	ltpFR	11	n/a	n/a	n/a	n/a	n/a	n/a	n/a	n/a	n/a	n/a	n/a	n/a	n/a	n/a	n/a	n/a
559.626	n/a	PROB	279813	n/a	LTP192	ltpFR	11	n/a	n/a	n/a	n/a	n/a	n/a	n/a	18	4	8	6	n/a	n/a	n/a	n/a	n/a
561.19	n/a	PROB	280595	n/a	LTP192	ltpFR	11	n/a	n/a	n/a	n/a	n/a	n/a	n/a	23	9	6	7	n/a	n/a	n/a	n/a	n/a
563.652	n/a	PROB	281826	n/a	LTP192	ltpFR	11	n/a	n/a	n/a	n/a	n/a	n/a	n/a	11	3	4	4	n/a	n/a	n/a	n/a	n/a
565.762	n/a	STOP	282881	n/a	LTP192	ltpFR	11	n/a	n/a	n/a	n/a	n/a	n/a	n/a	n/a	n/a	n/a	n/a	n/a	n/a	n/a	n/a	n/a
567.828	n/a	WORD	283914	wordpools/wasnorm_wordpool_less_exclusions.txt	LTP192	ltpFR	11	2	1	ARROW	40	n/a	n/a	0	n/a	0	0	0	0.422607421875	0.5869140625	0	upper	amplitud.ttf
570.842	n/a	START	285421	n/a	LTP192	ltpFR	11	n/a	n/a	n/a	n/a	n/a	n/a	n/a	n/a	n/a	n/a	n/a	n/a	n/a	n/a	n/a	n/a
571.79	n/a	PROB	285895	n/a	LTP192	ltpFR	11	n/a	n/a	n/a	n/a	n/a	n/a	n/a	18	4	9	5	n/a	n/a	n/a	n/a	n/a
573.472	n/a	PROB	286736	n/a	LTP192	ltpFR	11	n/a	n/a	n/a	n/a	n/a	n/a	n/a	13	3	8	2	n/a	n/a	n/a	n/a	n/a
574.686	n/a	PROB	287343	n/a	LTP192	ltpFR	11	n/a	n/a	n/a	n/a	n/a	n/a	n/a	7	2	1	4	n/a	n/a	n/a	n/a	n/a
576.948	n/a	PROB	288474	n/a	LTP192	ltpFR	11	n/a	n/a	n/a	n/a	n/a	n/a	n/a	17	4	7	6	n/a	n/a	n/a	n/a	n/a
578.69	n/a	STOP	289345	n/a	LTP192	ltpFR	11	n/a	n/a	n/a	n/a	n/a	n/a	n/a	n/a	n/a	n/a	n/a	n/a	n/a	n/a	n/a	n/a
579.71	n/a	WORD	289855	wordpools/wasnorm_wordpool_less_exclusions.txt	LTP192	ltpFR	11	2	1	COOLER	375	n/a	n/a	0	n/a	0	0	0	0.422607421875	0.5869140625	0	upper	amplitud.ttf
582.724	n/a	START	291362	n/a	LTP192	ltpFR	11	n/a	n/a	n/a	n/a	n/a	n/a	n/a	n/a	n/a	n/a	n/a	n/a	n/a	n/a	n/a	n/a
583.624	n/a	PROB	291812	n/a	LTP192	ltpFR	11	n/a	n/a	n/a	n/a	n/a	n/a	n/a	19	9	8	3	n/a	n/a	n/a	n/a	n/a
585.82	n/a	PROB	292910	n/a	LTP192	ltpFR	11	n/a	n/a	n/a	n/a	n/a	n/a	n/a	19	9	6	4	n/a	n/a	n/a	n/a	n/a
586.852	n/a	PROB	293426	n/a	LTP192	ltpFR	11	n/a	n/a	n/a	n/a	n/a	n/a	n/a	16	7	1	8	n/a	n/a	n/a	n/a	n/a
588.316	n/a	PROB	294158	n/a	LTP192	ltpFR	11	n/a	n/a	n/a	n/a	n/a	n/a	n/a	21	8	8	5	n/a	n/a	n/a	n/a	n/a
589.738	n/a	STOP	294869	n/a	LTP192	ltpFR	11	n/a	n/a	n/a	n/a	n/a	n/a	n/a	n/a	n/a	n/a	n/a	n/a	n/a	n/a	n/a	n/a
591.728	n/a	WORD	295864	wordpools/wasnorm_wordpool_less_exclusions.txt	LTP192	ltpFR	11	2	1	CANAL	226	n/a	n/a	0	n/a	0	0	0	0.422607421875	0.5869140625	0	upper	amplitud.ttf
594.74	n/a	START	297370	n/a	LTP192	ltpFR	11	n/a	n/a	n/a	n/a	n/a	n/a	n/a	n/a	n/a	n/a	n/a	n/a	n/a	n/a	n/a	n/a
595.888	n/a	PROB	297944	n/a	LTP192	ltpFR	11	n/a	n/a	n/a	n/a	n/a	n/a	n/a	19	8	8	3	n/a	n/a	n/a	n/a	n/a
597.104	n/a	PROB	298552	n/a	LTP192	ltpFR	11	n/a	n/a	n/a	n/a	n/a	n/a	n/a	17	1	8	8	n/a	n/a	n/a	n/a	n/a
602.74	n/a	STOP	301370	n/a	LTP192	ltpFR	11	n/a	n/a	n/a	n/a	n/a	n/a	n/a	n/a	n/a	n/a	n/a	n/a	n/a	n/a	n/a	n/a
603.594	n/a	WORD	301797	wordpools/wasnorm_wordpool_less_exclusions.txt	LTP192	ltpFR	11	2	1	ZOO	1637	n/a	n/a	0	n/a	0	0	0	0.422607421875	0.5869140625	0	upper	amplitud.ttf
606.606	n/a	START	303303	n/a	LTP192	ltpFR	11	n/a	n/a	n/a	n/a	n/a	n/a	n/a	n/a	n/a	n/a	n/a	n/a	n/a	n/a	n/a	n/a
607.622	n/a	PROB	303811	n/a	LTP192	ltpFR	11	n/a	n/a	n/a	n/a	n/a	n/a	n/a	7	1	3	3	n/a	n/a	n/a	n/a	n/a
608.886	n/a	PROB	304443	n/a	LTP192	ltpFR	11	n/a	n/a	n/a	n/a	n/a	n/a	n/a	12	3	6	9	n/a	n/a	n/a	n/a	n/a
610.3	n/a	PROB	305150	n/a	LTP192	ltpFR	11	n/a	n/a	n/a	n/a	n/a	n/a	n/a	20	8	9	3	n/a	n/a	n/a	n/a	n/a
613.452	n/a	STOP	306726	n/a	LTP192	ltpFR	11	n/a	n/a	n/a	n/a	n/a	n/a	n/a	n/a	n/a	n/a	n/a	n/a	n/a	n/a	n/a	n/a
615.792	n/a	WORD	307896	wordpools/wasnorm_wordpool_less_exclusions.txt	LTP192	ltpFR	11	2	1	ANTEATER	26	n/a	n/a	1	n/a	0	0	0	0.422607421875	0.5869140625	0	upper	amplitud.ttf
618.804	n/a	START	309402	n/a	LTP192	ltpFR	11	n/a	n/a	n/a	n/a	n/a	n/a	n/a	n/a	n/a	n/a	n/a	n/a	n/a	n/a	n/a	n/a
620.018	n/a	PROB	310009	n/a	LTP192	ltpFR	11	n/a	n/a	n/a	n/a	n/a	n/a	n/a	18	3	9	6	n/a	n/a	n/a	n/a	n/a
621.616	n/a	PROB	310808	n/a	LTP192	ltpFR	11	n/a	n/a	n/a	n/a	n/a	n/a	n/a	21	5	8	8	n/a	n/a	n/a	n/a	n/a
623.014	n/a	PROB	311507	n/a	LTP192	ltpFR	11	n/a	n/a	n/a	n/a	n/a	n/a	n/a	11	7	3	1	n/a	n/a	n/a	n/a	n/a
626.804	n/a	STOP	313402	n/a	LTP192	ltpFR	11	n/a	n/a	n/a	n/a	n/a	n/a	n/a	n/a	n/a	n/a	n/a	n/a	n/a	n/a	n/a	n/a
627.69	n/a	WORD	313845	wordpools/wasnorm_wordpool_less_exclusions.txt	LTP192	ltpFR	11	2	1	ROOT	1210	n/a	n/a	0	n/a	0	0	0	0.422607421875	0.5869140625	0	upper	amplitud.ttf
630.702	n/a	START	315351	n/a	LTP192	ltpFR	11	n/a	n/a	n/a	n/a	n/a	n/a	n/a	n/a	n/a	n/a	n/a	n/a	n/a	n/a	n/a	n/a
631.668	n/a	PROB	315834	n/a	LTP192	ltpFR	11	n/a	n/a	n/a	n/a	n/a	n/a	n/a	14	2	5	7	n/a	n/a	n/a	n/a	n/a
633.516	n/a	PROB	316758	n/a	LTP192	ltpFR	11	n/a	n/a	n/a	n/a	n/a	n/a	n/a	13	3	8	2	n/a	n/a	n/a	n/a	n/a
634.88	n/a	PROB	317440	n/a	LTP192	ltpFR	11	n/a	n/a	n/a	n/a	n/a	n/a	n/a	22	8	5	9	n/a	n/a	n/a	n/a	n/a
638.204	n/a	STOP	319102	n/a	LTP192	ltpFR	11	n/a	n/a	n/a	n/a	n/a	n/a	n/a	n/a	n/a	n/a	n/a	n/a	n/a	n/a	n/a	n/a
639.856	n/a	WORD	319928	wordpools/wasnorm_wordpool_less_exclusions.txt	LTP192	ltpFR	11	2	1	SWING	1421	n/a	n/a	0	n/a	0	0	0	0.422607421875	0.5869140625	0	upper	amplitud.ttf
642.868	n/a	START	321434	n/a	LTP192	ltpFR	11	n/a	n/a	n/a	n/a	n/a	n/a	n/a	n/a	n/a	n/a	n/a	n/a	n/a	n/a	n/a	n/a
643.766	n/a	PROB	321883	n/a	LTP192	ltpFR	11	n/a	n/a	n/a	n/a	n/a	n/a	n/a	20	7	7	6	n/a	n/a	n/a	n/a	n/a
646.23	n/a	PROB	323115	n/a	LTP192	ltpFR	11	n/a	n/a	n/a	n/a	n/a	n/a	n/a	21	7	5	9	n/a	n/a	n/a	n/a	n/a
648.742	n/a	PROB	324371	n/a	LTP192	ltpFR	11	n/a	n/a	n/a	n/a	n/a	n/a	n/a	8	6	1	1	n/a	n/a	n/a	n/a	n/a
649.66	n/a	STOP	324830	n/a	LTP192	ltpFR	11	n/a	n/a	n/a	n/a	n/a	n/a	n/a	n/a	n/a	n/a	n/a	n/a	n/a	n/a	n/a	n/a
651.854	n/a	WORD	325927	wordpools/wasnorm_wordpool_less_exclusions.txt	LTP192	ltpFR	11	2	1	BUG	187	n/a	n/a	0	n/a	0	0	0	0.422607421875	0.5869140625	0	upper	amplitud.ttf
654.866	n/a	START	327433	n/a	LTP192	ltpFR	11	n/a	n/a	n/a	n/a	n/a	n/a	n/a	n/a	n/a	n/a	n/a	n/a	n/a	n/a	n/a	n/a
655.998	n/a	PROB	327999	n/a	LTP192	ltpFR	11	n/a	n/a	n/a	n/a	n/a	n/a	n/a	7	2	2	3	n/a	n/a	n/a	n/a	n/a
657.764	n/a	PROB	328882	n/a	LTP192	ltpFR	11	n/a	n/a	n/a	n/a	n/a	n/a	n/a	10	5	4	1	n/a	n/a	n/a	n/a	n/a
659.312	n/a	PROB	329656	n/a	LTP192	ltpFR	11	n/a	n/a	n/a	n/a	n/a	n/a	n/a	15	8	2	5	n/a	n/a	n/a	n/a	n/a
660.394	n/a	PROB	330197	n/a	LTP192	ltpFR	11	n/a	n/a	n/a	n/a	n/a	n/a	n/a	17	9	3	5	n/a	n/a	n/a	n/a	n/a
662.276	n/a	STOP	331138	n/a	LTP192	ltpFR	11	n/a	n/a	n/a	n/a	n/a	n/a	n/a	n/a	n/a	n/a	n/a	n/a	n/a	n/a	n/a	n/a
664.02	n/a	WORD	332010	wordpools/wasnorm_wordpool_less_exclusions.txt	LTP192	ltpFR	11	2	1	ISLAND	745	n/a	n/a	1	n/a	0	0	0	0.422607421875	0.5869140625	0	upper	amplitud.ttf
667.032	n/a	START	333516	n/a	LTP192	ltpFR	11	n/a	n/a	n/a	n/a	n/a	n/a	n/a	n/a	n/a	n/a	n/a	n/a	n/a	n/a	n/a	n/a
668.182	n/a	PROB	334091	n/a	LTP192	ltpFR	11	n/a	n/a	n/a	n/a	n/a	n/a	n/a	16	7	7	2	n/a	n/a	n/a	n/a	n/a
669.296	n/a	PROB	334648	n/a	LTP192	ltpFR	11	n/a	n/a	n/a	n/a	n/a	n/a	n/a	13	5	3	5	n/a	n/a	n/a	n/a	n/a
670.412	n/a	PROB	335206	n/a	LTP192	ltpFR	11	n/a	n/a	n/a	n/a	n/a	n/a	n/a	17	4	8	5	n/a	n/a	n/a	n/a	n/a
673.024	n/a	PROB	336512	n/a	LTP192	ltpFR	11	n/a	n/a	n/a	n/a	n/a	n/a	n/a	13	1	5	7	n/a	n/a	n/a	n/a	n/a
674.748	n/a	STOP	337374	n/a	LTP192	ltpFR	11	n/a	n/a	n/a	n/a	n/a	n/a	n/a	n/a	n/a	n/a	n/a	n/a	n/a	n/a	n/a	n/a
675.87	n/a	WORD	337935	wordpools/wasnorm_wordpool_less_exclusions.txt	LTP192	ltpFR	11	2	1	PORCH	1106	n/a	n/a	0	n/a	0	0	0	0.422607421875	0.5869140625	0	upper	amplitud.ttf
678.882	n/a	START	339441	n/a	LTP192	ltpFR	11	n/a	n/a	n/a	n/a	n/a	n/a	n/a	n/a	n/a	n/a	n/a	n/a	n/a	n/a	n/a	n/a
679.796	n/a	PROB	339898	n/a	LTP192	ltpFR	11	n/a	n/a	n/a	n/a	n/a	n/a	n/a	6	3	3	1	n/a	n/a	n/a	n/a	n/a
681.18	n/a	PROB	340590	n/a	LTP192	ltpFR	11	n/a	n/a	n/a	n/a	n/a	n/a	n/a	16	6	1	9	n/a	n/a	n/a	n/a	n/a
686.882	n/a	STOP	343441	n/a	LTP192	ltpFR	11	n/a	n/a	n/a	n/a	n/a	n/a	n/a	n/a	n/a	n/a	n/a	n/a	n/a	n/a	n/a	n/a
687.918	n/a	WORD	343959	wordpools/wasnorm_wordpool_less_exclusions.txt	LTP192	ltpFR	11	2	1	VACUUM	1543	n/a	n/a	0	n/a	0	0	0	0.422607421875	0.5869140625	0	upper	amplitud.ttf
690.93	n/a	START	345465	n/a	LTP192	ltpFR	11	n/a	n/a	n/a	n/a	n/a	n/a	n/a	n/a	n/a	n/a	n/a	n/a	n/a	n/a	n/a	n/a
691.928	n/a	PROB	345964	n/a	LTP192	ltpFR	11	n/a	n/a	n/a	n/a	n/a	n/a	n/a	22	9	4	9	n/a	n/a	n/a	n/a	n/a
693.908	n/a	PROB	346954	n/a	LTP192	ltpFR	11	n/a	n/a	n/a	n/a	n/a	n/a	n/a	14	5	5	4	n/a	n/a	n/a	n/a	n/a
694.99	n/a	PROB	347495	n/a	LTP192	ltpFR	11	n/a	n/a	n/a	n/a	n/a	n/a	n/a	18	5	6	7	n/a	n/a	n/a	n/a	n/a
696.622	n/a	PROB	348311	n/a	LTP192	ltpFR	11	n/a	n/a	n/a	n/a	n/a	n/a	n/a	10	3	4	3	n/a	n/a	n/a	n/a	n/a
698.34	n/a	STOP	349170	n/a	LTP192	ltpFR	11	n/a	n/a	n/a	n/a	n/a	n/a	n/a	n/a	n/a	n/a	n/a	n/a	n/a	n/a	n/a	n/a
700.832	n/a	REC_START	350416	n/a	LTP192	ltpFR	11	2	n/a	n/a	n/a	n/a	n/a	n/a	n/a	0	0	0	n/a	n/a	n/a	n/a	n/a
701.65	n/a	REC_WORD	350825	wordpools/wasnorm_wordpool_less_exclusions.txt	LTP192	ltpFR	11	2	1	ANTEATER	26	n/a	n/a	1	n/a	0	0	0	n/a	n/a	n/a	n/a	n/a
702.652	n/a	REC_WORD	351326	wordpools/wasnorm_wordpool_less_exclusions.txt	LTP192	ltpFR	11	2	1	PORCH	1106	n/a	n/a	0	n/a	0	0	0	n/a	n/a	n/a	n/a	n/a
703.422	n/a	REC_WORD	351711	wordpools/wasnorm_wordpool_less_exclusions.txt	LTP192	ltpFR	11	2	1	SWING	1421	n/a	n/a	0	n/a	0	0	0	n/a	n/a	n/a	n/a	n/a
704.304	n/a	REC_WORD	352152	wordpools/wasnorm_wordpool_less_exclusions.txt	LTP192	ltpFR	11	2	1	VACUUM	1543	n/a	n/a	0	n/a	0	0	0	n/a	n/a	n/a	n/a	n/a
705.248	n/a	REC_WORD	352624	wordpools/wasnorm_wordpool_less_exclusions.txt	LTP192	ltpFR	11	2	1	WOMAN	1620	n/a	n/a	1	n/a	0	0	0	n/a	n/a	n/a	n/a	n/a
705.99	n/a	REC_WORD	352995	wordpools/wasnorm_wordpool_less_exclusions.txt	LTP192	ltpFR	11	2	1	FEMALE	559	n/a	n/a	1	n/a	0	0	0	n/a	n/a	n/a	n/a	n/a
706.808	n/a	REC_WORD	353404	wordpools/wasnorm_wordpool_less_exclusions.txt	LTP192	ltpFR	11	2	1	SPIDER	1351	n/a	n/a	1	n/a	0	0	0	n/a	n/a	n/a	n/a	n/a
707.682	n/a	REC_WORD	353841	wordpools/wasnorm_wordpool_less_exclusions.txt	LTP192	ltpFR	11	2	1	BUG	187	n/a	n/a	0	n/a	0	0	0	n/a	n/a	n/a	n/a	n/a
710.944	n/a	REC_WORD	355472	wordpools/wasnorm_wordpool_less_exclusions.txt	LTP192	ltpFR	11	2	1	CHAIR	274	n/a	n/a	0	n/a	0	0	0	n/a	n/a	n/a	n/a	n/a
718.528	n/a	REC_WORD	359264	wordpools/wasnorm_wordpool_less_exclusions.txt	LTP192	ltpFR	11	2	1	CANAL	226	n/a	n/a	0	n/a	0	0	0	n/a	n/a	n/a	n/a	n/a
732.292	n/a	REC_WORD	366146	wordpools/wasnorm_wordpool_less_exclusions.txt	LTP192	ltpFR	11	2	1	ISLAND	745	n/a	n/a	1	n/a	0	0	0	n/a	n/a	n/a	n/a	n/a
786.124	n/a	WORD	393062	wordpools/wasnorm_wordpool_less_exclusions.txt	LTP192	ltpFR	11	3	0	CHESS	294	n/a	n/a	0	n/a	0	0	0	0.57763671875	0.412841796875	1	lower	zerothre.ttf
790.334	n/a	WORD	395167	wordpools/wasnorm_wordpool_less_exclusions.txt	LTP192	ltpFR	11	3	0	DART	440	n/a	n/a	0	n/a	0	0	0	0.57763671875	0.412841796875	1	lower	zerothre.ttf
794.278	n/a	WORD	397139	wordpools/wasnorm_wordpool_less_exclusions.txt	LTP192	ltpFR	11	3	0	GRIZZLY	662	n/a	n/a	1	n/a	0	0	0	0.57763671875	0.412841796875	1	lower	zerothre.ttf
798.472	n/a	WORD	399236	wordpools/wasnorm_wordpool_less_exclusions.txt	LTP192	ltpFR	11	3	0	BEAR	106	n/a	n/a	1	n/a	0	0	0	0.57763671875	0.412841796875	1	lower	zerothre.ttf
802.448	n/a	WORD	401224	wordpools/wasnorm_wordpool_less_exclusions.txt	LTP192	ltpFR	11	3	1	ASTRONAUT	51	n/a	n/a	1	n/a	0	0	0	0.422607421875	0.5869140625	0	upper	amplitud.ttf
806.328	n/a	WORD	403164	wordpools/wasnorm_wordpool_less_exclusions.txt	LTP192	ltpFR	11	3	1	DEPUTY	450	n/a	n/a	1	n/a	0	0	0	0.422607421875	0.5869140625	0	upper	amplitud.ttf
810.354	n/a	WORD	405177	wordpools/wasnorm_wordpool_less_exclusions.txt	LTP192	ltpFR	11	3	1	STAKE	1368	n/a	n/a	0	n/a	0	0	0	0.422607421875	0.5869140625	0	upper	amplitud.ttf
814.416	n/a	WORD	407208	wordpools/wasnorm_wordpool_less_exclusions.txt	LTP192	ltpFR	11	3	0	BANQUET	86	n/a	n/a	1	n/a	0	0	0	0.57763671875	0.412841796875	1	lower	zerothre.ttf
818.576	n/a	WORD	409288	wordpools/wasnorm_wordpool_less_exclusions.txt	LTP192	ltpFR	11	3	0	CONCERT	360	n/a	n/a	1	n/a	0	0	0	0.57763671875	0.412841796875	1	lower	zerothre.ttf
822.752	n/a	WORD	411376	wordpools/wasnorm_wordpool_less_exclusions.txt	LTP192	ltpFR	11	3	0	COOKIE	374	n/a	n/a	0	n/a	0	0	0	0.57763671875	0.412841796875	1	lower	zerothre.ttf
826.928	n/a	WORD	413464	wordpools/wasnorm_wordpool_less_exclusions.txt	LTP192	ltpFR	11	3	0	BOARD	143	n/a	n/a	0	n/a	0	0	0	0.57763671875	0.412841796875	1	lower	zerothre.ttf
831.074	n/a	WORD	415537	wordpools/wasnorm_wordpool_less_exclusions.txt	LTP192	ltpFR	11	3	1	RECORD	1176	n/a	n/a	0	n/a	0	0	0	0.422607421875	0.5869140625	0	upper	amplitud.ttf
835.3	n/a	WORD	417650	wordpools/wasnorm_wordpool_less_exclusions.txt	LTP192	ltpFR	11	3	1	CAKE	219	n/a	n/a	0	n/a	0	0	0	0.422607421875	0.5869140625	0	upper	amplitud.ttf
839.428	n/a	WORD	419714	wordpools/wasnorm_wordpool_less_exclusions.txt	LTP192	ltpFR	11	3	1	DOUGHNUT	490	n/a	n/a	0	n/a	0	0	0	0.422607421875	0.5869140625	0	upper	amplitud.ttf
843.472	n/a	WORD	421736	wordpools/wasnorm_wordpool_less_exclusions.txt	LTP192	ltpFR	11	3	1	BAKER	71	n/a	n/a	1	n/a	0	0	0	0.422607421875	0.5869140625	0	upper	amplitud.ttf
847.3	n/a	WORD	423650	wordpools/wasnorm_wordpool_less_exclusions.txt	LTP192	ltpFR	11	3	1	STRANGER	1389	n/a	n/a	1	n/a	0	0	0	0.422607421875	0.5869140625	0	upper	amplitud.ttf
853.358	n/a	REC_START	426679	n/a	LTP192	ltpFR	11	3	n/a	n/a	n/a	n/a	n/a	n/a	n/a	0	0	0	n/a	n/a	n/a	n/a	n/a
854.21	n/a	REC_WORD	427105	wordpools/wasnorm_wordpool_less_exclusions.txt	LTP192	ltpFR	11	3	1	CAKE	219	n/a	n/a	0	n/a	0	0	0	n/a	n/a	n/a	n/a	n/a
855.014	n/a	REC_WORD	427507	wordpools/wasnorm_wordpool_less_exclusions.txt	LTP192	ltpFR	11	3	1	BAKER	71	n/a	n/a	1	n/a	0	0	0	n/a	n/a	n/a	n/a	n/a
856.3	n/a	REC_WORD	428150	wordpools/wasnorm_wordpool_less_exclusions.txt	LTP192	ltpFR	11	3	1	DOUGHNUT	490	n/a	n/a	0	n/a	0	0	0	n/a	n/a	n/a	n/a	n/a
857.108	n/a	REC_WORD	428554	wordpools/wasnorm_wordpool_less_exclusions.txt	LTP192	ltpFR	11	3	1	STRANGER	1389	n/a	n/a	1	n/a	0	0	0	n/a	n/a	n/a	n/a	n/a
859.658	n/a	REC_WORD	429829	wordpools/wasnorm_wordpool_less_exclusions.txt	LTP192	ltpFR	11	3	1	ASTRONAUT	51	n/a	n/a	1	n/a	0	0	0	n/a	n/a	n/a	n/a	n/a
862.112	n/a	REC_WORD	431056	wordpools/wasnorm_wordpool_less_exclusions.txt	LTP192	ltpFR	11	3	0	GRIZZLY	662	n/a	n/a	1	n/a	0	0	0	n/a	n/a	n/a	n/a	n/a
863.006	n/a	REC_WORD	431503	wordpools/wasnorm_wordpool_less_exclusions.txt	LTP192	ltpFR	11	3	0	BEAR	106	n/a	n/a	1	n/a	0	0	0	n/a	n/a	n/a	n/a	n/a
866.054	n/a	REC_WORD	433027	wordpools/wasnorm_wordpool_less_exclusions.txt	LTP192	ltpFR	11	3	0	DART	440	n/a	n/a	0	n/a	0	0	0	n/a	n/a	n/a	n/a	n/a
866.756	n/a	REC_WORD	433378	wordpools/wasnorm_wordpool_less_exclusions.txt	LTP192	ltpFR	11	3	0	CHESS	294	n/a	n/a	0	n/a	0	0	0	n/a	n/a	n/a	n/a	n/a
868.428	n/a	REC_WORD	434214	wordpools/wasnorm_wordpool_less_exclusions.txt	LTP192	ltpFR	11	3	0	BANQUET	86	n/a	n/a	1	n/a	0	0	0	n/a	n/a	n/a	n/a	n/a
871.93	n/a	REC_WORD	435965	wordpools/wasnorm_wordpool_less_exclusions.txt	LTP192	ltpFR	11	3	0	CONCERT	360	n/a	n/a	1	n/a	0	0	0	n/a	n/a	n/a	n/a	n/a
936.55	n/a	WORD	468275	wordpools/wasnorm_wordpool_less_exclusions.txt	LTP192	ltpFR	11	4	0	MOSS	918	n/a	n/a	0	n/a	0	0	0	0.57763671875	0.412841796875	1	lower	zerothre.ttf
940.612	n/a	WORD	470306	wordpools/wasnorm_wordpool_less_exclusions.txt	LTP192	ltpFR	11	4	0	STUMP	1396	n/a	n/a	1	n/a	0	0	0	0.57763671875	0.412841796875	1	lower	zerothre.ttf
944.72	n/a	WORD	472360	wordpools/wasnorm_wordpool_less_exclusions.txt	LTP192	ltpFR	11	4	0	GROCERIES	663	n/a	n/a	1	n/a	0	0	0	0.57763671875	0.412841796875	1	lower	zerothre.ttf
948.848	n/a	WORD	474424	wordpools/wasnorm_wordpool_less_exclusions.txt	LTP192	ltpFR	11	4	1	ASSOCIATE	49	n/a	n/a	1	n/a	0	0	0	0.422607421875	0.5869140625	0	upper	amplitud.ttf
952.858	n/a	WORD	476429	wordpools/wasnorm_wordpool_less_exclusions.txt	LTP192	ltpFR	11	4	1	CARD	243	n/a	n/a	0	n/a	0	0	0	0.422607421875	0.5869140625	0	upper	amplitud.ttf
957.02	n/a	WORD	478510	wordpools/wasnorm_wordpool_less_exclusions.txt	LTP192	ltpFR	11	4	1	PRUNE	1134	n/a	n/a	0	n/a	0	0	0	0.422607421875	0.5869140625	0	upper	amplitud.ttf
960.998	n/a	WORD	480499	wordpools/wasnorm_wordpool_less_exclusions.txt	LTP192	ltpFR	11	4	1	DAD	433	n/a	n/a	1	n/a	0	0	0	0.422607421875	0.5869140625	0	upper	amplitud.ttf
965.158	n/a	WORD	482579	wordpools/wasnorm_wordpool_less_exclusions.txt	LTP192	ltpFR	11	4	1	NET	946	n/a	n/a	0	n/a	0	0	0	0.422607421875	0.5869140625	0	upper	amplitud.ttf
969.27	n/a	WORD	484635	wordpools/wasnorm_wordpool_less_exclusions.txt	LTP192	ltpFR	11	4	0	WORKER	1621	n/a	n/a	1	n/a	0	0	0	0.57763671875	0.412841796875	1	lower	zerothre.ttf
973.33	n/a	WORD	486665	wordpools/wasnorm_wordpool_less_exclusions.txt	LTP192	ltpFR	11	4	0	BRIDGE	174	n/a	n/a	0	n/a	0	0	0	0.57763671875	0.412841796875	1	lower	zerothre.ttf
977.374	n/a	WORD	488687	wordpools/wasnorm_wordpool_less_exclusions.txt	LTP192	ltpFR	11	4	0	SWAMP	1416	n/a	n/a	1	n/a	0	0	0	0.57763671875	0.412841796875	1	lower	zerothre.ttf
981.384	n/a	WORD	490692	wordpools/wasnorm_wordpool_less_exclusions.txt	LTP192	ltpFR	11	4	0	TOE	1473	n/a	n/a	0	n/a	0	0	0	0.57763671875	0.412841796875	1	lower	zerothre.ttf
985.262	n/a	WORD	492631	wordpools/wasnorm_wordpool_less_exclusions.txt	LTP192	ltpFR	11	4	0	RACK	1154	n/a	n/a	1	n/a	0	0	0	0.57763671875	0.412841796875	1	lower	zerothre.ttf
989.172	n/a	WORD	494586	wordpools/wasnorm_wordpool_less_exclusions.txt	LTP192	ltpFR	11	4	1	CONSOLE	364	n/a	n/a	0	n/a	0	0	0	0.422607421875	0.5869140625	0	upper	amplitud.ttf
993.15	n/a	WORD	496575	wordpools/wasnorm_wordpool_less_exclusions.txt	LTP192	ltpFR	11	4	1	APPLE	33	n/a	n/a	0	n/a	0	0	0	0.422607421875	0.5869140625	0	upper	amplitud.ttf
997.06	n/a	WORD	498530	wordpools/wasnorm_wordpool_less_exclusions.txt	LTP192	ltpFR	11	4	1	REFEREE	1178	n/a	n/a	1	n/a	0	0	0	0.422607421875	0.5869140625	0	upper	amplitud.ttf
1000.074	n/a	START	500037	n/a	LTP192	ltpFR	11	n/a	n/a	n/a	n/a	n/a	n/a	n/a	n/a	n/a	n/a	n/a	n/a	n/a	n/a	n/a	n/a
1000.972	n/a	PROB	500486	n/a	LTP192	ltpFR	11	n/a	n/a	n/a	n/a	n/a	n/a	n/a	20	8	7	5	n/a	n/a	n/a	n/a	n/a
1003.368	n/a	PROB	501684	n/a	LTP192	ltpFR	11	n/a	n/a	n/a	n/a	n/a	n/a	n/a	12	2	5	5	n/a	n/a	n/a	n/a	n/a
1004.384	n/a	PROB	502192	n/a	LTP192	ltpFR	11	n/a	n/a	n/a	n/a	n/a	n/a	n/a	14	8	1	5	n/a	n/a	n/a	n/a	n/a
1005.848	n/a	PROB	502924	n/a	LTP192	ltpFR	11	n/a	n/a	n/a	n/a	n/a	n/a	n/a	18	6	5	7	n/a	n/a	n/a	n/a	n/a
1007.104	n/a	STOP	503552	n/a	LTP192	ltpFR	11	n/a	n/a	n/a	n/a	n/a	n/a	n/a	n/a	n/a	n/a	n/a	n/a	n/a	n/a	n/a	n/a
1009.958	n/a	REC_START	504979	n/a	LTP192	ltpFR	11	4	n/a	n/a	n/a	n/a	n/a	n/a	n/a	0	0	0	n/a	n/a	n/a	n/a	n/a
1010.696	n/a	REC_WORD	505348	wordpools/wasnorm_wordpool_less_exclusions.txt	LTP192	ltpFR	11	4	1	REFEREE	1178	n/a	n/a	1	n/a	0	0	0	n/a	n/a	n/a	n/a	n/a
1011.704	n/a	REC_WORD	505852	wordpools/wasnorm_wordpool_less_exclusions.txt	LTP192	ltpFR	11	4	0	SWAMP	1416	n/a	n/a	1	n/a	0	0	0	n/a	n/a	n/a	n/a	n/a
1012.692	n/a	REC_WORD	506346	wordpools/wasnorm_wordpool_less_exclusions.txt	LTP192	ltpFR	11	4	1	APPLE	33	n/a	n/a	0	n/a	0	0	0	n/a	n/a	n/a	n/a	n/a
1019.278	n/a	REC_WORD	509639	wordpools/wasnorm_wordpool_less_exclusions.txt	LTP192	ltpFR	11	4	1	ASSOCIATE	49	n/a	n/a	1	n/a	0	0	0	n/a	n/a	n/a	n/a	n/a
1020.544	n/a	REC_WORD	510272	wordpools/wasnorm_wordpool_less_exclusions.txt	LTP192	ltpFR	11	4	0	WORKER	1621	n/a	n/a	1	n/a	0	0	0	n/a	n/a	n/a	n/a	n/a
1023.952	n/a	REC_WORD	511976	wordpools/wasnorm_wordpool_less_exclusions.txt	LTP192	ltpFR	11	4	0	STUMP	1396	n/a	n/a	1	n/a	0	0	0	n/a	n/a	n/a	n/a	n/a
1024.814	n/a	REC_WORD	512407	wordpools/wasnorm_wordpool_less_exclusions.txt	LTP192	ltpFR	11	4	0	MOSS	918	n/a	n/a	0	n/a	0	0	0	n/a	n/a	n/a	n/a	n/a
1039.952	n/a	REC_WORD	519976	wordpools/wasnorm_wordpool_less_exclusions.txt	LTP192	ltpFR	11	4	1	APPLE	33	n/a	n/a	0	n/a	0	0	0	n/a	n/a	n/a	n/a	n/a
1087.644	n/a	START	543822	n/a	LTP192	ltpFR	11	n/a	n/a	n/a	n/a	n/a	n/a	n/a	n/a	n/a	n/a	n/a	n/a	n/a	n/a	n/a	n/a
1089.158	n/a	PROB	544579	n/a	LTP192	ltpFR	11	n/a	n/a	n/a	n/a	n/a	n/a	n/a	14	7	3	4	n/a	n/a	n/a	n/a	n/a
1091.054	n/a	PROB	545527	n/a	LTP192	ltpFR	11	n/a	n/a	n/a	n/a	n/a	n/a	n/a	11	6	2	3	n/a	n/a	n/a	n/a	n/a
1092.952	n/a	PROB	546476	n/a	LTP192	ltpFR	11	n/a	n/a	n/a	n/a	n/a	n/a	n/a	15	3	6	6	n/a	n/a	n/a	n/a	n/a
1095.166	n/a	PROB	547583	n/a	LTP192	ltpFR	11	n/a	n/a	n/a	n/a	n/a	n/a	n/a	21	5	9	7	n/a	n/a	n/a	n/a	n/a
1096.878	n/a	PROB	548439	n/a	LTP192	ltpFR	11	n/a	n/a	n/a	n/a	n/a	n/a	n/a	20	9	3	8	n/a	n/a	n/a	n/a	n/a
1098.726	n/a	PROB	549363	n/a	LTP192	ltpFR	11	n/a	n/a	n/a	n/a	n/a	n/a	n/a	21	6	7	8	n/a	n/a	n/a	n/a	n/a
1101.59	n/a	PROB	550795	n/a	LTP192	ltpFR	11	n/a	n/a	n/a	n/a	n/a	n/a	n/a	15	6	8	1	n/a	n/a	n/a	n/a	n/a
1102.922	n/a	STOP	551461	n/a	LTP192	ltpFR	11	n/a	n/a	n/a	n/a	n/a	n/a	n/a	n/a	n/a	n/a	n/a	n/a	n/a	n/a	n/a	n/a
1104.734	n/a	WORD	552367	wordpools/wasnorm_wordpool_less_exclusions.txt	LTP192	ltpFR	11	5	1	MARKET	871	n/a	n/a	0	n/a	0	0	0	0.422607421875	0.5869140625	0	upper	amplitud.ttf
1107.748	n/a	START	553874	n/a	LTP192	ltpFR	11	n/a	n/a	n/a	n/a	n/a	n/a	n/a	n/a	n/a	n/a	n/a	n/a	n/a	n/a	n/a	n/a
1108.564	n/a	PROB	554282	n/a	LTP192	ltpFR	11	n/a	n/a	n/a	n/a	n/a	n/a	n/a	13	4	1	8	n/a	n/a	n/a	n/a	n/a
1109.828	n/a	PROB	554914	n/a	LTP192	ltpFR	11	n/a	n/a	n/a	n/a	n/a	n/a	n/a	14	2	4	8	n/a	n/a	n/a	n/a	n/a
1112.174	n/a	PROB	556087	n/a	LTP192	ltpFR	11	n/a	n/a	n/a	n/a	n/a	n/a	n/a	9	2	5	2	n/a	n/a	n/a	n/a	n/a
1114.088	n/a	PROB	557044	n/a	LTP192	ltpFR	11	n/a	n/a	n/a	n/a	n/a	n/a	n/a	14	6	6	4	n/a	n/a	n/a	n/a	n/a
1116.452	n/a	PROB	558226	n/a	LTP192	ltpFR	11	n/a	n/a	n/a	n/a	n/a	n/a	n/a	15	1	5	7	n/a	n/a	n/a	n/a	n/a
1119.746	n/a	PROB	559873	n/a	LTP192	ltpFR	11	n/a	n/a	n/a	n/a	n/a	n/a	n/a	25	9	8	8	n/a	n/a	n/a	n/a	n/a
1122.042	n/a	PROB	561021	n/a	LTP192	ltpFR	11	n/a	n/a	n/a	n/a	n/a	n/a	n/a	18	2	9	7	n/a	n/a	n/a	n/a	n/a
1123.482	n/a	STOP	561741	n/a	LTP192	ltpFR	11	n/a	n/a	n/a	n/a	n/a	n/a	n/a	n/a	n/a	n/a	n/a	n/a	n/a	n/a	n/a	n/a
1124.788	n/a	WORD	562394	wordpools/wasnorm_wordpool_less_exclusions.txt	LTP192	ltpFR	11	5	1	CHEF	290	n/a	n/a	1	n/a	0	0	0	0.422607421875	0.5869140625	0	upper	amplitud.ttf
1127.8	n/a	START	563900	n/a	LTP192	ltpFR	11	n/a	n/a	n/a	n/a	n/a	n/a	n/a	n/a	n/a	n/a	n/a	n/a	n/a	n/a	n/a	n/a
1128.966	n/a	PROB	564483	n/a	LTP192	ltpFR	11	n/a	n/a	n/a	n/a	n/a	n/a	n/a	11	1	6	4	n/a	n/a	n/a	n/a	n/a
1130.564	n/a	PROB	565282	n/a	LTP192	ltpFR	11	n/a	n/a	n/a	n/a	n/a	n/a	n/a	24	7	7	8	n/a	n/a	n/a	n/a	n/a
1132.444	n/a	PROB	566222	n/a	LTP192	ltpFR	11	n/a	n/a	n/a	n/a	n/a	n/a	n/a	14	4	2	8	n/a	n/a	n/a	n/a	n/a
1134.724	n/a	PROB	567362	n/a	LTP192	ltpFR	11	n/a	n/a	n/a	n/a	n/a	n/a	n/a	15	2	4	7	n/a	n/a	n/a	n/a	n/a
1136.188	n/a	PROB	568094	n/a	LTP192	ltpFR	11	n/a	n/a	n/a	n/a	n/a	n/a	n/a	12	4	6	2	n/a	n/a	n/a	n/a	n/a
1139.666	n/a	PROB	569833	n/a	LTP192	ltpFR	11	n/a	n/a	n/a	n/a	n/a	n/a	n/a	18	8	7	3	n/a	n/a	n/a	n/a	n/a
1141.232	n/a	PROB	570616	n/a	LTP192	ltpFR	11	n/a	n/a	n/a	n/a	n/a	n/a	n/a	13	8	1	4	n/a	n/a	n/a	n/a	n/a
1143.242	n/a	STOP	571621	n/a	LTP192	ltpFR	11	n/a	n/a	n/a	n/a	n/a	n/a	n/a	n/a	n/a	n/a	n/a	n/a	n/a	n/a	n/a	n/a
1144.924	n/a	WORD	572462	wordpools/wasnorm_wordpool_less_exclusions.txt	LTP192	ltpFR	11	5	1	STONE	1385	n/a	n/a	0	n/a	0	0	0	0.422607421875	0.5869140625	0	upper	amplitud.ttf
1147.938	n/a	START	573969	n/a	LTP192	ltpFR	11	n/a	n/a	n/a	n/a	n/a	n/a	n/a	n/a	n/a	n/a	n/a	n/a	n/a	n/a	n/a	n/a
1148.818	n/a	PROB	574409	n/a	LTP192	ltpFR	11	n/a	n/a	n/a	n/a	n/a	n/a	n/a	19	6	5	8	n/a	n/a	n/a	n/a	n/a
1150.168	n/a	PROB	575084	n/a	LTP192	ltpFR	11	n/a	n/a	n/a	n/a	n/a	n/a	n/a	19	9	1	9	n/a	n/a	n/a	n/a	n/a
1151.814	n/a	PROB	575907	n/a	LTP192	ltpFR	11	n/a	n/a	n/a	n/a	n/a	n/a	n/a	19	5	6	8	n/a	n/a	n/a	n/a	n/a
1153.446	n/a	PROB	576723	n/a	LTP192	ltpFR	11	n/a	n/a	n/a	n/a	n/a	n/a	n/a	15	5	4	6	n/a	n/a	n/a	n/a	n/a
1155.974	n/a	PROB	577987	n/a	LTP192	ltpFR	11	n/a	n/a	n/a	n/a	n/a	n/a	n/a	18	7	2	9	n/a	n/a	n/a	n/a	n/a
1158.322	n/a	PROB	579161	n/a	LTP192	ltpFR	11	n/a	n/a	n/a	n/a	n/a	n/a	n/a	21	6	8	7	n/a	n/a	n/a	n/a	n/a
1160.85	n/a	PROB	580425	n/a	LTP192	ltpFR	11	n/a	n/a	n/a	n/a	n/a	n/a	n/a	9	6	1	2	n/a	n/a	n/a	n/a	n/a
1163.938	n/a	STOP	581969	n/a	LTP192	ltpFR	11	n/a	n/a	n/a	n/a	n/a	n/a	n/a	n/a	n/a	n/a	n/a	n/a	n/a	n/a	n/a	n/a
1165.112	n/a	WORD	582556	wordpools/wasnorm_wordpool_less_exclusions.txt	LTP192	ltpFR	11	5	0	MOB	904	n/a	n/a	1	n/a	0	0	0	0.57763671875	0.412841796875	1	lower	zerothre.ttf
1168.124	n/a	START	584062	n/a	LTP192	ltpFR	11	n/a	n/a	n/a	n/a	n/a	n/a	n/a	n/a	n/a	n/a	n/a	n/a	n/a	n/a	n/a	n/a
1169.24	n/a	PROB	584620	n/a	LTP192	ltpFR	11	n/a	n/a	n/a	n/a	n/a	n/a	n/a	16	1	6	9	n/a	n/a	n/a	n/a	n/a
1170.852	n/a	PROB	585426	n/a	LTP192	ltpFR	11	n/a	n/a	n/a	n/a	n/a	n/a	n/a	20	8	6	6	n/a	n/a	n/a	n/a	n/a
1172.816	n/a	PROB	586408	n/a	LTP192	ltpFR	11	n/a	n/a	n/a	n/a	n/a	n/a	n/a	9	4	4	5	n/a	n/a	n/a	n/a	n/a
1174.398	n/a	PROB	587199	n/a	LTP192	ltpFR	11	n/a	n/a	n/a	n/a	n/a	n/a	n/a	11	6	1	4	n/a	n/a	n/a	n/a	n/a
1176.578	n/a	PROB	588289	n/a	LTP192	ltpFR	11	n/a	n/a	n/a	n/a	n/a	n/a	n/a	11	3	5	3	n/a	n/a	n/a	n/a	n/a
1178.51	n/a	PROB	589255	n/a	LTP192	ltpFR	11	n/a	n/a	n/a	n/a	n/a	n/a	n/a	14	2	7	5	n/a	n/a	n/a	n/a	n/a
1180.424	n/a	PROB	590212	n/a	LTP192	ltpFR	11	n/a	n/a	n/a	n/a	n/a	n/a	n/a	11	2	7	2	n/a	n/a	n/a	n/a	n/a
1182.238	n/a	PROB	591119	n/a	LTP192	ltpFR	11	n/a	n/a	n/a	n/a	n/a	n/a	n/a	15	5	8	2	n/a	n/a	n/a	n/a	n/a
1183.898	n/a	STOP	591949	n/a	LTP192	ltpFR	11	n/a	n/a	n/a	n/a	n/a	n/a	n/a	n/a	n/a	n/a	n/a	n/a	n/a	n/a	n/a	n/a
1185.1	n/a	WORD	592550	wordpools/wasnorm_wordpool_less_exclusions.txt	LTP192	ltpFR	11	5	0	SKYSCRAPER	1322	n/a	n/a	1	n/a	0	0	0	0.57763671875	0.412841796875	1	lower	zerothre.ttf
1188.112	n/a	START	594056	n/a	LTP192	ltpFR	11	n/a	n/a	n/a	n/a	n/a	n/a	n/a	n/a	n/a	n/a	n/a	n/a	n/a	n/a	n/a	n/a
1189.21	n/a	PROB	594605	n/a	LTP192	ltpFR	11	n/a	n/a	n/a	n/a	n/a	n/a	n/a	12	4	3	4	n/a	n/a	n/a	n/a	n/a
1192.09	n/a	PROB	596045	n/a	LTP192	ltpFR	11	n/a	n/a	n/a	n/a	n/a	n/a	n/a	14	2	3	9	n/a	n/a	n/a	n/a	n/a
1194.236	n/a	PROB	597118	n/a	LTP192	ltpFR	11	n/a	n/a	n/a	n/a	n/a	n/a	n/a	15	4	3	8	n/a	n/a	n/a	n/a	n/a
1197.914	n/a	PROB	598957	n/a	LTP192	ltpFR	11	n/a	n/a	n/a	n/a	n/a	n/a	n/a	22	8	5	9	n/a	n/a	n/a	n/a	n/a
1201.974	n/a	PROB	600987	n/a	LTP192	ltpFR	11	n/a	n/a	n/a	n/a	n/a	n/a	n/a	18	4	5	9	n/a	n/a	n/a	n/a	n/a
1203.38	n/a	STOP	601690	n/a	LTP192	ltpFR	11	n/a	n/a	n/a	n/a	n/a	n/a	n/a	n/a	n/a	n/a	n/a	n/a	n/a	n/a	n/a	n/a
1205.27	n/a	WORD	602635	wordpools/wasnorm_wordpool_less_exclusions.txt	LTP192	ltpFR	11	5	1	CARDINAL	244	n/a	n/a	1	n/a	0	0	0	0.422607421875	0.5869140625	0	upper	amplitud.ttf
1208.282	n/a	START	604141	n/a	LTP192	ltpFR	11	n/a	n/a	n/a	n/a	n/a	n/a	n/a	n/a	n/a	n/a	n/a	n/a	n/a	n/a	n/a	n/a
1209.198	n/a	PROB	604599	n/a	LTP192	ltpFR	11	n/a	n/a	n/a	n/a	n/a	n/a	n/a	15	3	3	9	n/a	n/a	n/a	n/a	n/a
1213.722	n/a	PROB	606861	n/a	LTP192	ltpFR	11	n/a	n/a	n/a	n/a	n/a	n/a	n/a	13	4	7	2	n/a	n/a	n/a	n/a	n/a
1215.238	n/a	PROB	607619	n/a	LTP192	ltpFR	11	n/a	n/a	n/a	n/a	n/a	n/a	n/a	17	1	9	7	n/a	n/a	n/a	n/a	n/a
1216.504	n/a	PROB	608252	n/a	LTP192	ltpFR	11	n/a	n/a	n/a	n/a	n/a	n/a	n/a	22	9	9	4	n/a	n/a	n/a	n/a	n/a
1217.934	n/a	PROB	608967	n/a	LTP192	ltpFR	11	n/a	n/a	n/a	n/a	n/a	n/a	n/a	14	4	8	2	n/a	n/a	n/a	n/a	n/a
1219.182	n/a	PROB	609591	n/a	LTP192	ltpFR	11	n/a	n/a	n/a	n/a	n/a	n/a	n/a	13	7	1	5	n/a	n/a	n/a	n/a	n/a
1220.63	n/a	PROB	610315	n/a	LTP192	ltpFR	11	n/a	n/a	n/a	n/a	n/a	n/a	n/a	13	3	1	9	n/a	n/a	n/a	n/a	n/a
1223.018	n/a	STOP	611509	n/a	LTP192	ltpFR	11	n/a	n/a	n/a	n/a	n/a	n/a	n/a	n/a	n/a	n/a	n/a	n/a	n/a	n/a	n/a	n/a
1225.14	n/a	WORD	612570	wordpools/wasnorm_wordpool_less_exclusions.txt	LTP192	ltpFR	11	5	1	EAGLE	512	n/a	n/a	0	n/a	0	0	0	0.422607421875	0.5869140625	0	upper	amplitud.ttf
1228.152	n/a	START	614076	n/a	LTP192	ltpFR	11	n/a	n/a	n/a	n/a	n/a	n/a	n/a	n/a	n/a	n/a	n/a	n/a	n/a	n/a	n/a	n/a
1228.966	n/a	PROB	614483	n/a	LTP192	ltpFR	11	n/a	n/a	n/a	n/a	n/a	n/a	n/a	9	3	2	4	n/a	n/a	n/a	n/a	n/a
1230.282	n/a	PROB	615141	n/a	LTP192	ltpFR	11	n/a	n/a	n/a	n/a	n/a	n/a	n/a	15	5	1	7	n/a	n/a	n/a	n/a	n/a
1232.712	n/a	PROB	616356	n/a	LTP192	ltpFR	11	n/a	n/a	n/a	n/a	n/a	n/a	n/a	18	8	8	2	n/a	n/a	n/a	n/a	n/a
1234.758	n/a	PROB	617379	n/a	LTP192	ltpFR	11	n/a	n/a	n/a	n/a	n/a	n/a	n/a	15	1	9	5	n/a	n/a	n/a	n/a	n/a
1235.756	n/a	PROB	617878	n/a	LTP192	ltpFR	11	n/a	n/a	n/a	n/a	n/a	n/a	n/a	15	7	3	5	n/a	n/a	n/a	n/a	n/a
1236.806	n/a	PROB	618403	n/a	LTP192	ltpFR	11	n/a	n/a	n/a	n/a	n/a	n/a	n/a	10	2	2	6	n/a	n/a	n/a	n/a	n/a
1238.536	n/a	PROB	619268	n/a	LTP192	ltpFR	11	n/a	n/a	n/a	n/a	n/a	n/a	n/a	7	2	1	4	n/a	n/a	n/a	n/a	n/a
1240.534	n/a	PROB	620267	n/a	LTP192	ltpFR	11	n/a	n/a	n/a	n/a	n/a	n/a	n/a	15	5	1	9	n/a	n/a	n/a	n/a	n/a
1244.152	n/a	STOP	622076	n/a	LTP192	ltpFR	11	n/a	n/a	n/a	n/a	n/a	n/a	n/a	n/a	n/a	n/a	n/a	n/a	n/a	n/a	n/a	n/a
1245.042	n/a	WORD	622521	wordpools/wasnorm_wordpool_less_exclusions.txt	LTP192	ltpFR	11	5	0	GEM	629	n/a	n/a	0	n/a	0	0	0	0.57763671875	0.412841796875	1	lower	zerothre.ttf
1248.056	n/a	START	624028	n/a	LTP192	ltpFR	11	n/a	n/a	n/a	n/a	n/a	n/a	n/a	n/a	n/a	n/a	n/a	n/a	n/a	n/a	n/a	n/a
1248.986	n/a	PROB	624493	n/a	LTP192	ltpFR	11	n/a	n/a	n/a	n/a	n/a	n/a	n/a	21	6	9	6	n/a	n/a	n/a	n/a	n/a
1250.9	n/a	PROB	625450	n/a	LTP192	ltpFR	11	n/a	n/a	n/a	n/a	n/a	n/a	n/a	20	9	7	4	n/a	n/a	n/a	n/a	n/a
1257.642	n/a	PROB	628821	n/a	LTP192	ltpFR	11	n/a	n/a	n/a	n/a	n/a	n/a	n/a	15	4	5	6	n/a	n/a	n/a	n/a	n/a
1260.904	n/a	PROB	630452	n/a	LTP192	ltpFR	11	n/a	n/a	n/a	n/a	n/a	n/a	n/a	18	8	4	6	n/a	n/a	n/a	n/a	n/a
1264.056	n/a	STOP	632028	n/a	LTP192	ltpFR	11	n/a	n/a	n/a	n/a	n/a	n/a	n/a	n/a	n/a	n/a	n/a	n/a	n/a	n/a	n/a	n/a
1265.214	n/a	WORD	632607	wordpools/wasnorm_wordpool_less_exclusions.txt	LTP192	ltpFR	11	5	0	BAY	102	n/a	n/a	1	n/a	0	0	0	0.57763671875	0.412841796875	1	lower	zerothre.ttf
1268.228	n/a	START	634114	n/a	LTP192	ltpFR	11	n/a	n/a	n/a	n/a	n/a	n/a	n/a	n/a	n/a	n/a	n/a	n/a	n/a	n/a	n/a	n/a
1269.158	n/a	PROB	634579	n/a	LTP192	ltpFR	11	n/a	n/a	n/a	n/a	n/a	n/a	n/a	20	8	6	6	n/a	n/a	n/a	n/a	n/a
1271.788	n/a	PROB	635894	n/a	LTP192	ltpFR	11	n/a	n/a	n/a	n/a	n/a	n/a	n/a	22	9	5	8	n/a	n/a	n/a	n/a	n/a
1274.102	n/a	PROB	637051	n/a	LTP192	ltpFR	11	n/a	n/a	n/a	n/a	n/a	n/a	n/a	25	7	9	9	n/a	n/a	n/a	n/a	n/a
1278.71	n/a	PROB	639355	n/a	LTP192	ltpFR	11	n/a	n/a	n/a	n/a	n/a	n/a	n/a	21	8	4	9	n/a	n/a	n/a	n/a	n/a
1281.324	n/a	PROB	640662	n/a	LTP192	ltpFR	11	n/a	n/a	n/a	n/a	n/a	n/a	n/a	19	8	9	2	n/a	n/a	n/a	n/a	n/a
1282.74	n/a	STOP	641370	n/a	LTP192	ltpFR	11	n/a	n/a	n/a	n/a	n/a	n/a	n/a	n/a	n/a	n/a	n/a	n/a	n/a	n/a	n/a	n/a
1285.184	n/a	WORD	642592	wordpools/wasnorm_wordpool_less_exclusions.txt	LTP192	ltpFR	11	5	0	LANDSCAPE	799	n/a	n/a	1	n/a	0	0	0	0.57763671875	0.412841796875	1	lower	zerothre.ttf
1288.198	n/a	START	644099	n/a	LTP192	ltpFR	11	n/a	n/a	n/a	n/a	n/a	n/a	n/a	n/a	n/a	n/a	n/a	n/a	n/a	n/a	n/a	n/a
1289.096	n/a	PROB	644548	n/a	LTP192	ltpFR	11	n/a	n/a	n/a	n/a	n/a	n/a	n/a	20	8	8	4	n/a	n/a	n/a	n/a	n/a
1290.56	n/a	PROB	645280	n/a	LTP192	ltpFR	11	n/a	n/a	n/a	n/a	n/a	n/a	n/a	14	5	1	8	n/a	n/a	n/a	n/a	n/a
1293.006	n/a	PROB	646503	n/a	LTP192	ltpFR	11	n/a	n/a	n/a	n/a	n/a	n/a	n/a	19	6	9	4	n/a	n/a	n/a	n/a	n/a
1295.386	n/a	PROB	647693	n/a	LTP192	ltpFR	11	n/a	n/a	n/a	n/a	n/a	n/a	n/a	19	8	4	7	n/a	n/a	n/a	n/a	n/a
1297.848	n/a	PROB	648924	n/a	LTP192	ltpFR	11	n/a	n/a	n/a	n/a	n/a	n/a	n/a	9	1	7	1	n/a	n/a	n/a	n/a	n/a
1299.114	n/a	PROB	649557	n/a	LTP192	ltpFR	11	n/a	n/a	n/a	n/a	n/a	n/a	n/a	13	1	8	4	n/a	n/a	n/a	n/a	n/a
1300.86	n/a	PROB	650430	n/a	LTP192	ltpFR	11	n/a	n/a	n/a	n/a	n/a	n/a	n/a	16	4	3	9	n/a	n/a	n/a	n/a	n/a
1304.196	n/a	STOP	652098	n/a	LTP192	ltpFR	11	n/a	n/a	n/a	n/a	n/a	n/a	n/a	n/a	n/a	n/a	n/a	n/a	n/a	n/a	n/a	n/a
1305.122	n/a	WORD	652561	wordpools/wasnorm_wordpool_less_exclusions.txt	LTP192	ltpFR	11	5	0	JUNGLE	764	n/a	n/a	1	n/a	0	0	0	0.57763671875	0.412841796875	1	lower	zerothre.ttf
1308.134	n/a	START	654067	n/a	LTP192	ltpFR	11	n/a	n/a	n/a	n/a	n/a	n/a	n/a	n/a	n/a	n/a	n/a	n/a	n/a	n/a	n/a	n/a
1309.082	n/a	PROB	654541	n/a	LTP192	ltpFR	11	n/a	n/a	n/a	n/a	n/a	n/a	n/a	12	5	1	6	n/a	n/a	n/a	n/a	n/a
1310.13	n/a	PROB	655065	n/a	LTP192	ltpFR	11	n/a	n/a	n/a	n/a	n/a	n/a	n/a	24	8	8	7	n/a	n/a	n/a	n/a	n/a
1314.424	n/a	PROB	657212	n/a	LTP192	ltpFR	11	n/a	n/a	n/a	n/a	n/a	n/a	n/a	20	6	7	7	n/a	n/a	n/a	n/a	n/a
1317.154	n/a	PROB	658577	n/a	LTP192	ltpFR	11	n/a	n/a	n/a	n/a	n/a	n/a	n/a	16	4	5	7	n/a	n/a	n/a	n/a	n/a
1318.302	n/a	PROB	659151	n/a	LTP192	ltpFR	11	n/a	n/a	n/a	n/a	n/a	n/a	n/a	18	8	7	3	n/a	n/a	n/a	n/a	n/a
1319.466	n/a	PROB	659733	n/a	LTP192	ltpFR	11	n/a	n/a	n/a	n/a	n/a	n/a	n/a	20	3	9	8	n/a	n/a	n/a	n/a	n/a
1321.28	n/a	PROB	660640	n/a	LTP192	ltpFR	11	n/a	n/a	n/a	n/a	n/a	n/a	n/a	9	3	3	3	n/a	n/a	n/a	n/a	n/a
1322.33	n/a	PROB	661165	n/a	LTP192	ltpFR	11	n/a	n/a	n/a	n/a	n/a	n/a	n/a	7	2	3	2	n/a	n/a	n/a	n/a	n/a
1324.02	n/a	STOP	662010	n/a	LTP192	ltpFR	11	n/a	n/a	n/a	n/a	n/a	n/a	n/a	n/a	n/a	n/a	n/a	n/a	n/a	n/a	n/a	n/a
1325.108	n/a	WORD	662554	wordpools/wasnorm_wordpool_less_exclusions.txt	LTP192	ltpFR	11	5	0	WRITER	1627	n/a	n/a	1	n/a	0	0	0	0.57763671875	0.412841796875	1	lower	zerothre.ttf
1328.122	n/a	START	664061	n/a	LTP192	ltpFR	11	n/a	n/a	n/a	n/a	n/a	n/a	n/a	n/a	n/a	n/a	n/a	n/a	n/a	n/a	n/a	n/a
1329.104	n/a	PROB	664552	n/a	LTP192	ltpFR	11	n/a	n/a	n/a	n/a	n/a	n/a	n/a	10	4	5	1	n/a	n/a	n/a	n/a	n/a
1331.15	n/a	PROB	665575	n/a	LTP192	ltpFR	11	n/a	n/a	n/a	n/a	n/a	n/a	n/a	22	8	9	5	n/a	n/a	n/a	n/a	n/a
1334.528	n/a	PROB	667264	n/a	LTP192	ltpFR	11	n/a	n/a	n/a	n/a	n/a	n/a	n/a	14	2	8	4	n/a	n/a	n/a	n/a	n/a
1336.11	n/a	PROB	668055	n/a	LTP192	ltpFR	11	n/a	n/a	n/a	n/a	n/a	n/a	n/a	17	4	9	4	n/a	n/a	n/a	n/a	n/a
1338.124	n/a	PROB	669062	n/a	LTP192	ltpFR	11	n/a	n/a	n/a	n/a	n/a	n/a	n/a	14	1	8	5	n/a	n/a	n/a	n/a	n/a
1339.87	n/a	PROB	669935	n/a	LTP192	ltpFR	11	n/a	n/a	n/a	n/a	n/a	n/a	n/a	20	7	6	7	n/a	n/a	n/a	n/a	n/a
1341.75	n/a	PROB	670875	n/a	LTP192	ltpFR	11	n/a	n/a	n/a	n/a	n/a	n/a	n/a	13	2	2	9	n/a	n/a	n/a	n/a	n/a
1343.446	n/a	STOP	671723	n/a	LTP192	ltpFR	11	n/a	n/a	n/a	n/a	n/a	n/a	n/a	n/a	n/a	n/a	n/a	n/a	n/a	n/a	n/a	n/a
1344.962	n/a	WORD	672481	wordpools/wasnorm_wordpool_less_exclusions.txt	LTP192	ltpFR	11	5	0	GRASS	655	n/a	n/a	1	n/a	0	0	0	0.57763671875	0.412841796875	1	lower	zerothre.ttf
1347.974	n/a	START	673987	n/a	LTP192	ltpFR	11	n/a	n/a	n/a	n/a	n/a	n/a	n/a	n/a	n/a	n/a	n/a	n/a	n/a	n/a	n/a	n/a
1348.806	n/a	PROB	674403	n/a	LTP192	ltpFR	11	n/a	n/a	n/a	n/a	n/a	n/a	n/a	18	8	5	5	n/a	n/a	n/a	n/a	n/a
1350.004	n/a	PROB	675002	n/a	LTP192	ltpFR	11	n/a	n/a	n/a	n/a	n/a	n/a	n/a	17	2	7	8	n/a	n/a	n/a	n/a	n/a
1351.968	n/a	PROB	675984	n/a	LTP192	ltpFR	11	n/a	n/a	n/a	n/a	n/a	n/a	n/a	9	1	5	3	n/a	n/a	n/a	n/a	n/a
1354.216	n/a	PROB	677108	n/a	LTP192	ltpFR	11	n/a	n/a	n/a	n/a	n/a	n/a	n/a	11	3	5	3	n/a	n/a	n/a	n/a	n/a
1356.58	n/a	PROB	678290	n/a	LTP192	ltpFR	11	n/a	n/a	n/a	n/a	n/a	n/a	n/a	25	9	8	8	n/a	n/a	n/a	n/a	n/a
1358.908	n/a	PROB	679454	n/a	LTP192	ltpFR	11	n/a	n/a	n/a	n/a	n/a	n/a	n/a	18	3	6	9	n/a	n/a	n/a	n/a	n/a
1360.474	n/a	PROB	680237	n/a	LTP192	ltpFR	11	n/a	n/a	n/a	n/a	n/a	n/a	n/a	15	2	8	5	n/a	n/a	n/a	n/a	n/a
1363.052	n/a	STOP	681526	n/a	LTP192	ltpFR	11	n/a	n/a	n/a	n/a	n/a	n/a	n/a	n/a	n/a	n/a	n/a	n/a	n/a	n/a	n/a	n/a
1365.166	n/a	WORD	682583	wordpools/wasnorm_wordpool_less_exclusions.txt	LTP192	ltpFR	11	5	1	MAMMAL	861	n/a	n/a	1	n/a	0	0	0	0.422607421875	0.5869140625	0	upper	amplitud.ttf
1368.178	n/a	START	684089	n/a	LTP192	ltpFR	11	n/a	n/a	n/a	n/a	n/a	n/a	n/a	n/a	n/a	n/a	n/a	n/a	n/a	n/a	n/a	n/a
1369.276	n/a	PROB	684638	n/a	LTP192	ltpFR	11	n/a	n/a	n/a	n/a	n/a	n/a	n/a	11	5	4	2	n/a	n/a	n/a	n/a	n/a
1370.79	n/a	PROB	685395	n/a	LTP192	ltpFR	11	n/a	n/a	n/a	n/a	n/a	n/a	n/a	17	7	2	8	n/a	n/a	n/a	n/a	n/a
1373.538	n/a	PROB	686769	n/a	LTP192	ltpFR	11	n/a	n/a	n/a	n/a	n/a	n/a	n/a	16	8	2	6	n/a	n/a	n/a	n/a	n/a
1374.784	n/a	PROB	687392	n/a	LTP192	ltpFR	11	n/a	n/a	n/a	n/a	n/a	n/a	n/a	13	1	3	9	n/a	n/a	n/a	n/a	n/a
1376.134	n/a	PROB	688067	n/a	LTP192	ltpFR	11	n/a	n/a	n/a	n/a	n/a	n/a	n/a	19	8	9	2	n/a	n/a	n/a	n/a	n/a
1379.028	n/a	PROB	689514	n/a	LTP192	ltpFR	11	n/a	n/a	n/a	n/a	n/a	n/a	n/a	9	3	2	4	n/a	n/a	n/a	n/a	n/a
1380.21	n/a	PROB	690105	n/a	LTP192	ltpFR	11	n/a	n/a	n/a	n/a	n/a	n/a	n/a	19	4	9	6	n/a	n/a	n/a	n/a	n/a
1381.956	n/a	PROB	690978	n/a	LTP192	ltpFR	11	n/a	n/a	n/a	n/a	n/a	n/a	n/a	16	5	4	7	n/a	n/a	n/a	n/a	n/a
1384.11	n/a	STOP	692055	n/a	LTP192	ltpFR	11	n/a	n/a	n/a	n/a	n/a	n/a	n/a	n/a	n/a	n/a	n/a	n/a	n/a	n/a	n/a	n/a
1385.352	n/a	WORD	692676	wordpools/wasnorm_wordpool_less_exclusions.txt	LTP192	ltpFR	11	5	1	SPIT	1354	n/a	n/a	0	n/a	0	0	0	0.422607421875	0.5869140625	0	upper	amplitud.ttf
1388.366	n/a	START	694183	n/a	LTP192	ltpFR	11	n/a	n/a	n/a	n/a	n/a	n/a	n/a	n/a	n/a	n/a	n/a	n/a	n/a	n/a	n/a	n/a
1389.43	n/a	PROB	694715	n/a	LTP192	ltpFR	11	n/a	n/a	n/a	n/a	n/a	n/a	n/a	23	7	6	9	n/a	n/a	n/a	n/a	n/a
1392.774	n/a	PROB	696387	n/a	LTP192	ltpFR	11	n/a	n/a	n/a	n/a	n/a	n/a	n/a	18	6	9	3	n/a	n/a	n/a	n/a	n/a
1395.97	n/a	PROB	697985	n/a	LTP192	ltpFR	11	n/a	n/a	n/a	n/a	n/a	n/a	n/a	13	3	7	3	n/a	n/a	n/a	n/a	n/a
1398.816	n/a	PROB	699408	n/a	LTP192	ltpFR	11	n/a	n/a	n/a	n/a	n/a	n/a	n/a	7	1	4	2	n/a	n/a	n/a	n/a	n/a
1400.28	n/a	PROB	700140	n/a	LTP192	ltpFR	11	n/a	n/a	n/a	n/a	n/a	n/a	n/a	14	8	3	3	n/a	n/a	n/a	n/a	n/a
1404.366	n/a	STOP	702183	n/a	LTP192	ltpFR	11	n/a	n/a	n/a	n/a	n/a	n/a	n/a	n/a	n/a	n/a	n/a	n/a	n/a	n/a	n/a	n/a
1405.208	n/a	WORD	702604	wordpools/wasnorm_wordpool_less_exclusions.txt	LTP192	ltpFR	11	5	1	BROOK	177	n/a	n/a	0	n/a	0	0	0	0.422607421875	0.5869140625	0	upper	amplitud.ttf
1408.22	n/a	START	704110	n/a	LTP192	ltpFR	11	n/a	n/a	n/a	n/a	n/a	n/a	n/a	n/a	n/a	n/a	n/a	n/a	n/a	n/a	n/a	n/a
1409.168	n/a	PROB	704584	n/a	LTP192	ltpFR	11	n/a	n/a	n/a	n/a	n/a	n/a	n/a	9	5	1	3	n/a	n/a	n/a	n/a	n/a
1410.65	n/a	PROB	705325	n/a	LTP192	ltpFR	11	n/a	n/a	n/a	n/a	n/a	n/a	n/a	7	1	4	2	n/a	n/a	n/a	n/a	n/a
1412.264	n/a	PROB	706132	n/a	LTP192	ltpFR	11	n/a	n/a	n/a	n/a	n/a	n/a	n/a	17	9	5	3	n/a	n/a	n/a	n/a	n/a
1414.11	n/a	PROB	707055	n/a	LTP192	ltpFR	11	n/a	n/a	n/a	n/a	n/a	n/a	n/a	20	9	6	5	n/a	n/a	n/a	n/a	n/a
1416.024	n/a	PROB	708012	n/a	LTP192	ltpFR	11	n/a	n/a	n/a	n/a	n/a	n/a	n/a	18	5	9	4	n/a	n/a	n/a	n/a	n/a
1418.67	n/a	PROB	709335	n/a	LTP192	ltpFR	11	n/a	n/a	n/a	n/a	n/a	n/a	n/a	9	1	1	7	n/a	n/a	n/a	n/a	n/a
1420.05	n/a	PROB	710025	n/a	LTP192	ltpFR	11	n/a	n/a	n/a	n/a	n/a	n/a	n/a	15	8	4	3	n/a	n/a	n/a	n/a	n/a
1422.166	n/a	PROB	711083	n/a	LTP192	ltpFR	11	n/a	n/a	n/a	n/a	n/a	n/a	n/a	18	5	9	4	n/a	n/a	n/a	n/a	n/a
1423.958	n/a	STOP	711979	n/a	LTP192	ltpFR	11	n/a	n/a	n/a	n/a	n/a	n/a	n/a	n/a	n/a	n/a	n/a	n/a	n/a	n/a	n/a	n/a
1426.01	n/a	REC_START	713005	n/a	LTP192	ltpFR	11	5	n/a	n/a	n/a	n/a	n/a	n/a	n/a	0	0	0	n/a	n/a	n/a	n/a	n/a
1427.382	n/a	REC_WORD	713691	wordpools/wasnorm_wordpool_less_exclusions.txt	LTP192	ltpFR	11	5	1	MAMMAL	861	n/a	n/a	1	n/a	0	0	0	n/a	n/a	n/a	n/a	n/a
1428.314	n/a	REC_WORD	714157	wordpools/wasnorm_wordpool_less_exclusions.txt	LTP192	ltpFR	11	5	1	BROOK	177	n/a	n/a	0	n/a	0	0	0	n/a	n/a	n/a	n/a	n/a
1433.902	n/a	REC_WORD	716951	wordpools/wasnorm_wordpool_less_exclusions.txt	LTP192	ltpFR	11	5	0	JUNGLE	764	n/a	n/a	1	n/a	0	0	0	n/a	n/a	n/a	n/a	n/a
1437.852	n/a	REC_WORD	718926	wordpools/wasnorm_wordpool_less_exclusions.txt	LTP192	ltpFR	11	5	0	GRASS	655	n/a	n/a	1	n/a	0	0	0	n/a	n/a	n/a	n/a	n/a
1440.63	n/a	REC_WORD	720315	wordpools/wasnorm_wordpool_less_exclusions.txt	LTP192	ltpFR	11	5	0	BAY	102	n/a	n/a	1	n/a	0	0	0	n/a	n/a	n/a	n/a	n/a
1443.844	n/a	REC_WORD	721922	wordpools/wasnorm_wordpool_less_exclusions.txt	LTP192	ltpFR	11	5	0	LANDSCAPE	799	n/a	n/a	1	n/a	0	0	0	n/a	n/a	n/a	n/a	n/a
1455.876	n/a	REC_WORD	727938	wordpools/wasnorm_wordpool_less_exclusions.txt	LTP192	ltpFR	11	5	1	EAGLE	512	n/a	n/a	0	n/a	0	0	0	n/a	n/a	n/a	n/a	n/a
1466.242	n/a	REC_WORD	733121	wordpools/wasnorm_wordpool_less_exclusions.txt	LTP192	ltpFR	11	5	0	GEM	629	n/a	n/a	0	n/a	0	0	0	n/a	n/a	n/a	n/a	n/a
1508.004	n/a	START	754002	n/a	LTP192	ltpFR	11	n/a	n/a	n/a	n/a	n/a	n/a	n/a	n/a	n/a	n/a	n/a	n/a	n/a	n/a	n/a	n/a
1509.52	n/a	PROB	754760	n/a	LTP192	ltpFR	11	n/a	n/a	n/a	n/a	n/a	n/a	n/a	16	4	5	7	n/a	n/a	n/a	n/a	n/a
1510.85	n/a	PROB	755425	n/a	LTP192	ltpFR	11	n/a	n/a	n/a	n/a	n/a	n/a	n/a	12	2	5	5	n/a	n/a	n/a	n/a	n/a
1511.848	n/a	PROB	755924	n/a	LTP192	ltpFR	11	n/a	n/a	n/a	n/a	n/a	n/a	n/a	17	5	8	4	n/a	n/a	n/a	n/a	n/a
1513.946	n/a	PROB	756973	n/a	LTP192	ltpFR	11	n/a	n/a	n/a	n/a	n/a	n/a	n/a	18	7	8	3	n/a	n/a	n/a	n/a	n/a
1515.296	n/a	STOP	757648	n/a	LTP192	ltpFR	11	n/a	n/a	n/a	n/a	n/a	n/a	n/a	n/a	n/a	n/a	n/a	n/a	n/a	n/a	n/a	n/a
1517.024	n/a	WORD	758512	wordpools/wasnorm_wordpool_less_exclusions.txt	LTP192	ltpFR	11	6	1	GLASS	639	n/a	n/a	0	n/a	0	0	0	0.422607421875	0.5869140625	0	upper	amplitud.ttf
1520.036	n/a	START	760018	n/a	LTP192	ltpFR	11	n/a	n/a	n/a	n/a	n/a	n/a	n/a	n/a	n/a	n/a	n/a	n/a	n/a	n/a	n/a	n/a
1521.102	n/a	PROB	760551	n/a	LTP192	ltpFR	11	n/a	n/a	n/a	n/a	n/a	n/a	n/a	16	8	1	7	n/a	n/a	n/a	n/a	n/a
1522.416	n/a	PROB	761208	n/a	LTP192	ltpFR	11	n/a	n/a	n/a	n/a	n/a	n/a	n/a	13	8	3	2	n/a	n/a	n/a	n/a	n/a
1523.946	n/a	PROB	761973	n/a	LTP192	ltpFR	11	n/a	n/a	n/a	n/a	n/a	n/a	n/a	9	3	4	2	n/a	n/a	n/a	n/a	n/a
1525.246	n/a	PROB	762623	n/a	LTP192	ltpFR	11	n/a	n/a	n/a	n/a	n/a	n/a	n/a	19	6	5	8	n/a	n/a	n/a	n/a	n/a
1526.472	n/a	STOP	763236	n/a	LTP192	ltpFR	11	n/a	n/a	n/a	n/a	n/a	n/a	n/a	n/a	n/a	n/a	n/a	n/a	n/a	n/a	n/a	n/a
1529.04	n/a	WORD	764520	wordpools/wasnorm_wordpool_less_exclusions.txt	LTP192	ltpFR	11	6	1	MACHINE	852	n/a	n/a	0	n/a	0	0	0	0.422607421875	0.5869140625	0	upper	amplitud.ttf
1532.052	n/a	START	766026	n/a	LTP192	ltpFR	11	n/a	n/a	n/a	n/a	n/a	n/a	n/a	n/a	n/a	n/a	n/a	n/a	n/a	n/a	n/a	n/a
1532.866	n/a	PROB	766433	n/a	LTP192	ltpFR	11	n/a	n/a	n/a	n/a	n/a	n/a	n/a	15	6	8	1	n/a	n/a	n/a	n/a	n/a
1535.962	n/a	PROB	767981	n/a	LTP192	ltpFR	11	n/a	n/a	n/a	n/a	n/a	n/a	n/a	16	3	4	9	n/a	n/a	n/a	n/a	n/a
1539.096	n/a	STOP	769548	n/a	LTP192	ltpFR	11	n/a	n/a	n/a	n/a	n/a	n/a	n/a	n/a	n/a	n/a	n/a	n/a	n/a	n/a	n/a	n/a
1541.106	n/a	WORD	770553	wordpools/wasnorm_wordpool_less_exclusions.txt	LTP192	ltpFR	11	6	1	KNEE	784	n/a	n/a	0	n/a	0	0	0	0.422607421875	0.5869140625	0	upper	amplitud.ttf
1544.118	n/a	START	772059	n/a	LTP192	ltpFR	11	n/a	n/a	n/a	n/a	n/a	n/a	n/a	n/a	n/a	n/a	n/a	n/a	n/a	n/a	n/a	n/a
1545.116	n/a	PROB	772558	n/a	LTP192	ltpFR	11	n/a	n/a	n/a	n/a	n/a	n/a	n/a	20	9	6	5	n/a	n/a	n/a	n/a	n/a
1546.548	n/a	PROB	773274	n/a	LTP192	ltpFR	11	n/a	n/a	n/a	n/a	n/a	n/a	n/a	17	8	6	3	n/a	n/a	n/a	n/a	n/a
1551.12	n/a	STOP	775560	n/a	LTP192	ltpFR	11	n/a	n/a	n/a	n/a	n/a	n/a	n/a	n/a	n/a	n/a	n/a	n/a	n/a	n/a	n/a	n/a
1553.004	n/a	WORD	776502	wordpools/wasnorm_wordpool_less_exclusions.txt	LTP192	ltpFR	11	6	1	ELBOW	520	n/a	n/a	0	n/a	0	0	0	0.422607421875	0.5869140625	0	upper	amplitud.ttf
1556.018	n/a	START	778009	n/a	LTP192	ltpFR	11	n/a	n/a	n/a	n/a	n/a	n/a	n/a	n/a	n/a	n/a	n/a	n/a	n/a	n/a	n/a	n/a
1557.2	n/a	PROB	778600	n/a	LTP192	ltpFR	11	n/a	n/a	n/a	n/a	n/a	n/a	n/a	13	1	8	4	n/a	n/a	n/a	n/a	n/a
1558.712	n/a	PROB	779356	n/a	LTP192	ltpFR	11	n/a	n/a	n/a	n/a	n/a	n/a	n/a	16	6	2	8	n/a	n/a	n/a	n/a	n/a
1560.76	n/a	PROB	780380	n/a	LTP192	ltpFR	11	n/a	n/a	n/a	n/a	n/a	n/a	n/a	18	2	9	7	n/a	n/a	n/a	n/a	n/a
1562.496	n/a	STOP	781248	n/a	LTP192	ltpFR	11	n/a	n/a	n/a	n/a	n/a	n/a	n/a	n/a	n/a	n/a	n/a	n/a	n/a	n/a	n/a	n/a
1564.986	n/a	WORD	782493	wordpools/wasnorm_wordpool_less_exclusions.txt	LTP192	ltpFR	11	6	1	STEWARDESS	1381	n/a	n/a	1	n/a	0	0	0	0.422607421875	0.5869140625	0	upper	amplitud.ttf
1568.0	n/a	START	784000	n/a	LTP192	ltpFR	11	n/a	n/a	n/a	n/a	n/a	n/a	n/a	n/a	n/a	n/a	n/a	n/a	n/a	n/a	n/a	n/a
1569.098	n/a	PROB	784549	n/a	LTP192	ltpFR	11	n/a	n/a	n/a	n/a	n/a	n/a	n/a	15	6	8	1	n/a	n/a	n/a	n/a	n/a
1570.48	n/a	PROB	785240	n/a	LTP192	ltpFR	11	n/a	n/a	n/a	n/a	n/a	n/a	n/a	18	8	8	2	n/a	n/a	n/a	n/a	n/a
1572.076	n/a	PROB	786038	n/a	LTP192	ltpFR	11	n/a	n/a	n/a	n/a	n/a	n/a	n/a	24	8	8	6	n/a	n/a	n/a	n/a	n/a
1574.24	n/a	PROB	787120	n/a	LTP192	ltpFR	11	n/a	n/a	n/a	n/a	n/a	n/a	n/a	16	3	5	8	n/a	n/a	n/a	n/a	n/a
1575.784	n/a	STOP	787892	n/a	LTP192	ltpFR	11	n/a	n/a	n/a	n/a	n/a	n/a	n/a	n/a	n/a	n/a	n/a	n/a	n/a	n/a	n/a	n/a
1576.852	n/a	WORD	788426	wordpools/wasnorm_wordpool_less_exclusions.txt	LTP192	ltpFR	11	6	1	SHUTTER	1300	n/a	n/a	0	n/a	0	0	0	0.422607421875	0.5869140625	0	upper	amplitud.ttf
1579.864	n/a	START	789932	n/a	LTP192	ltpFR	11	n/a	n/a	n/a	n/a	n/a	n/a	n/a	n/a	n/a	n/a	n/a	n/a	n/a	n/a	n/a	n/a
1580.762	n/a	PROB	790381	n/a	LTP192	ltpFR	11	n/a	n/a	n/a	n/a	n/a	n/a	n/a	21	7	8	6	n/a	n/a	n/a	n/a	n/a
1583.51	n/a	PROB	791755	n/a	LTP192	ltpFR	11	n/a	n/a	n/a	n/a	n/a	n/a	n/a	16	9	2	5	n/a	n/a	n/a	n/a	n/a
1584.856	n/a	PROB	792428	n/a	LTP192	ltpFR	11	n/a	n/a	n/a	n/a	n/a	n/a	n/a	24	7	8	7	n/a	n/a	n/a	n/a	n/a
1586.92	n/a	STOP	793460	n/a	LTP192	ltpFR	11	n/a	n/a	n/a	n/a	n/a	n/a	n/a	n/a	n/a	n/a	n/a	n/a	n/a	n/a	n/a	n/a
1589.034	n/a	WORD	794517	wordpools/wasnorm_wordpool_less_exclusions.txt	LTP192	ltpFR	11	6	1	SHEET	1279	n/a	n/a	0	n/a	0	0	0	0.422607421875	0.5869140625	0	upper	amplitud.ttf
1592.046	n/a	START	796023	n/a	LTP192	ltpFR	11	n/a	n/a	n/a	n/a	n/a	n/a	n/a	n/a	n/a	n/a	n/a	n/a	n/a	n/a	n/a	n/a
1592.894	n/a	PROB	796447	n/a	LTP192	ltpFR	11	n/a	n/a	n/a	n/a	n/a	n/a	n/a	14	3	3	8	n/a	n/a	n/a	n/a	n/a
1594.858	n/a	PROB	797429	n/a	LTP192	ltpFR	11	n/a	n/a	n/a	n/a	n/a	n/a	n/a	11	1	5	5	n/a	n/a	n/a	n/a	n/a
1595.924	n/a	PROB	797962	n/a	LTP192	ltpFR	11	n/a	n/a	n/a	n/a	n/a	n/a	n/a	17	5	3	9	n/a	n/a	n/a	n/a	n/a
1597.556	n/a	PROB	798778	n/a	LTP192	ltpFR	11	n/a	n/a	n/a	n/a	n/a	n/a	n/a	11	8	1	2	n/a	n/a	n/a	n/a	n/a
1599.552	n/a	STOP	799776	n/a	LTP192	ltpFR	11	n/a	n/a	n/a	n/a	n/a	n/a	n/a	n/a	n/a	n/a	n/a	n/a	n/a	n/a	n/a	n/a
1601.184	n/a	WORD	800592	wordpools/wasnorm_wordpool_less_exclusions.txt	LTP192	ltpFR	11	6	1	BOULDER	155	n/a	n/a	0	n/a	0	0	0	0.422607421875	0.5869140625	0	upper	amplitud.ttf
1604.196	n/a	START	802098	n/a	LTP192	ltpFR	11	n/a	n/a	n/a	n/a	n/a	n/a	n/a	n/a	n/a	n/a	n/a	n/a	n/a	n/a	n/a	n/a
1605.094	n/a	PROB	802547	n/a	LTP192	ltpFR	11	n/a	n/a	n/a	n/a	n/a	n/a	n/a	12	6	1	5	n/a	n/a	n/a	n/a	n/a
1606.958	n/a	PROB	803479	n/a	LTP192	ltpFR	11	n/a	n/a	n/a	n/a	n/a	n/a	n/a	18	2	7	9	n/a	n/a	n/a	n/a	n/a
1608.422	n/a	PROB	804211	n/a	LTP192	ltpFR	11	n/a	n/a	n/a	n/a	n/a	n/a	n/a	5	3	1	1	n/a	n/a	n/a	n/a	n/a
1609.454	n/a	PROB	804727	n/a	LTP192	ltpFR	11	n/a	n/a	n/a	n/a	n/a	n/a	n/a	21	9	5	7	n/a	n/a	n/a	n/a	n/a
1611.64	n/a	STOP	805820	n/a	LTP192	ltpFR	11	n/a	n/a	n/a	n/a	n/a	n/a	n/a	n/a	n/a	n/a	n/a	n/a	n/a	n/a	n/a	n/a
1613.366	n/a	WORD	806683	wordpools/wasnorm_wordpool_less_exclusions.txt	LTP192	ltpFR	11	6	1	FLY	586	n/a	n/a	1	n/a	0	0	0	0.422607421875	0.5869140625	0	upper	amplitud.ttf
1616.378	n/a	START	808189	n/a	LTP192	ltpFR	11	n/a	n/a	n/a	n/a	n/a	n/a	n/a	n/a	n/a	n/a	n/a	n/a	n/a	n/a	n/a	n/a
1617.576	n/a	PROB	808788	n/a	LTP192	ltpFR	11	n/a	n/a	n/a	n/a	n/a	n/a	n/a	19	7	8	4	n/a	n/a	n/a	n/a	n/a
1620.07	n/a	PROB	810035	n/a	LTP192	ltpFR	11	n/a	n/a	n/a	n/a	n/a	n/a	n/a	13	4	5	4	n/a	n/a	n/a	n/a	n/a
1622.468	n/a	PROB	811234	n/a	LTP192	ltpFR	11	n/a	n/a	n/a	n/a	n/a	n/a	n/a	13	7	3	3	n/a	n/a	n/a	n/a	n/a
1623.616	n/a	STOP	811808	n/a	LTP192	ltpFR	11	n/a	n/a	n/a	n/a	n/a	n/a	n/a	n/a	n/a	n/a	n/a	n/a	n/a	n/a	n/a	n/a
1625.248	n/a	WORD	812624	wordpools/wasnorm_wordpool_less_exclusions.txt	LTP192	ltpFR	11	6	1	CONSUMER	365	n/a	n/a	1	n/a	0	0	0	0.422607421875	0.5869140625	0	upper	amplitud.ttf
1628.262	n/a	START	814131	n/a	LTP192	ltpFR	11	n/a	n/a	n/a	n/a	n/a	n/a	n/a	n/a	n/a	n/a	n/a	n/a	n/a	n/a	n/a	n/a
1629.31	n/a	PROB	814655	n/a	LTP192	ltpFR	11	n/a	n/a	n/a	n/a	n/a	n/a	n/a	16	4	6	6	n/a	n/a	n/a	n/a	n/a
1630.822	n/a	PROB	815411	n/a	LTP192	ltpFR	11	n/a	n/a	n/a	n/a	n/a	n/a	n/a	19	3	7	9	n/a	n/a	n/a	n/a	n/a
1631.904	n/a	PROB	815952	n/a	LTP192	ltpFR	11	n/a	n/a	n/a	n/a	n/a	n/a	n/a	18	4	6	8	n/a	n/a	n/a	n/a	n/a
1636.26	n/a	STOP	818130	n/a	LTP192	ltpFR	11	n/a	n/a	n/a	n/a	n/a	n/a	n/a	n/a	n/a	n/a	n/a	n/a	n/a	n/a	n/a	n/a
1637.496	n/a	WORD	818748	wordpools/wasnorm_wordpool_less_exclusions.txt	LTP192	ltpFR	11	6	1	PLAZA	1088	n/a	n/a	0	n/a	0	0	0	0.422607421875	0.5869140625	0	upper	amplitud.ttf
1640.51	n/a	START	820255	n/a	LTP192	ltpFR	11	n/a	n/a	n/a	n/a	n/a	n/a	n/a	n/a	n/a	n/a	n/a	n/a	n/a	n/a	n/a	n/a
1641.324	n/a	PROB	820662	n/a	LTP192	ltpFR	11	n/a	n/a	n/a	n/a	n/a	n/a	n/a	15	1	5	9	n/a	n/a	n/a	n/a	n/a
1642.804	n/a	PROB	821402	n/a	LTP192	ltpFR	11	n/a	n/a	n/a	n/a	n/a	n/a	n/a	21	5	7	7	n/a	n/a	n/a	n/a	n/a
1644.686	n/a	PROB	822343	n/a	LTP192	ltpFR	11	n/a	n/a	n/a	n/a	n/a	n/a	n/a	12	1	8	3	n/a	n/a	n/a	n/a	n/a
1648.51	n/a	STOP	824255	n/a	LTP192	ltpFR	11	n/a	n/a	n/a	n/a	n/a	n/a	n/a	n/a	n/a	n/a	n/a	n/a	n/a	n/a	n/a	n/a
1649.596	n/a	WORD	824798	wordpools/wasnorm_wordpool_less_exclusions.txt	LTP192	ltpFR	11	6	1	TORTOISE	1486	n/a	n/a	1	n/a	0	0	0	0.422607421875	0.5869140625	0	upper	amplitud.ttf
1652.608	n/a	START	826304	n/a	LTP192	ltpFR	11	n/a	n/a	n/a	n/a	n/a	n/a	n/a	n/a	n/a	n/a	n/a	n/a	n/a	n/a	n/a	n/a
1653.606	n/a	PROB	826803	n/a	LTP192	ltpFR	11	n/a	n/a	n/a	n/a	n/a	n/a	n/a	1	3	2	7	n/a	n/a	n/a	n/a	n/a
1656.436	n/a	PROB	828218	n/a	LTP192	ltpFR	11	n/a	n/a	n/a	n/a	n/a	n/a	n/a	18	9	8	1	n/a	n/a	n/a	n/a	n/a
1658.032	n/a	PROB	829016	n/a	LTP192	ltpFR	11	n/a	n/a	n/a	n/a	n/a	n/a	n/a	14	7	4	3	n/a	n/a	n/a	n/a	n/a
1659.266	n/a	STOP	829633	n/a	LTP192	ltpFR	11	n/a	n/a	n/a	n/a	n/a	n/a	n/a	n/a	n/a	n/a	n/a	n/a	n/a	n/a	n/a	n/a
1661.61	n/a	WORD	830805	wordpools/wasnorm_wordpool_less_exclusions.txt	LTP192	ltpFR	11	6	1	MALL	860	n/a	n/a	0	n/a	0	0	0	0.422607421875	0.5869140625	0	upper	amplitud.ttf
1664.624	n/a	START	832312	n/a	LTP192	ltpFR	11	n/a	n/a	n/a	n/a	n/a	n/a	n/a	n/a	n/a	n/a	n/a	n/a	n/a	n/a	n/a	n/a
1665.654	n/a	PROB	832827	n/a	LTP192	ltpFR	11	n/a	n/a	n/a	n/a	n/a	n/a	n/a	17	3	6	8	n/a	n/a	n/a	n/a	n/a
1667.32	n/a	PROB	833660	n/a	LTP192	ltpFR	11	n/a	n/a	n/a	n/a	n/a	n/a	n/a	15	8	2	5	n/a	n/a	n/a	n/a	n/a
1668.584	n/a	PROB	834292	n/a	LTP192	ltpFR	11	n/a	n/a	n/a	n/a	n/a	n/a	n/a	13	3	2	8	n/a	n/a	n/a	n/a	n/a
1670.232	n/a	PROB	835116	n/a	LTP192	ltpFR	11	n/a	n/a	n/a	n/a	n/a	n/a	n/a	17	6	2	9	n/a	n/a	n/a	n/a	n/a
1672.498	n/a	STOP	836249	n/a	LTP192	ltpFR	11	n/a	n/a	n/a	n/a	n/a	n/a	n/a	n/a	n/a	n/a	n/a	n/a	n/a	n/a	n/a	n/a
1673.51	n/a	WORD	836755	wordpools/wasnorm_wordpool_less_exclusions.txt	LTP192	ltpFR	11	6	1	CATCHER	258	n/a	n/a	1	n/a	0	0	0	0.422607421875	0.5869140625	0	upper	amplitud.ttf
1676.522	n/a	START	838261	n/a	LTP192	ltpFR	11	n/a	n/a	n/a	n/a	n/a	n/a	n/a	n/a	n/a	n/a	n/a	n/a	n/a	n/a	n/a	n/a
1677.538	n/a	PROB	838769	n/a	LTP192	ltpFR	11	n/a	n/a	n/a	n/a	n/a	n/a	n/a	18	5	9	4	n/a	n/a	n/a	n/a	n/a
1679.318	n/a	PROB	839659	n/a	LTP192	ltpFR	11	n/a	n/a	n/a	n/a	n/a	n/a	n/a	11	1	2	6	n/a	n/a	n/a	n/a	n/a
1680.782	n/a	PROB	840391	n/a	LTP192	ltpFR	11	n/a	n/a	n/a	n/a	n/a	n/a	n/a	13	4	5	4	n/a	n/a	n/a	n/a	n/a
1683.146	n/a	STOP	841573	n/a	LTP192	ltpFR	11	n/a	n/a	n/a	n/a	n/a	n/a	n/a	n/a	n/a	n/a	n/a	n/a	n/a	n/a	n/a	n/a
1685.608	n/a	WORD	842804	wordpools/wasnorm_wordpool_less_exclusions.txt	LTP192	ltpFR	11	6	1	PUPPY	1144	n/a	n/a	1	n/a	0	0	0	0.422607421875	0.5869140625	0	upper	amplitud.ttf
1688.622	n/a	START	844311	n/a	LTP192	ltpFR	11	n/a	n/a	n/a	n/a	n/a	n/a	n/a	n/a	n/a	n/a	n/a	n/a	n/a	n/a	n/a	n/a
1689.436	n/a	PROB	844718	n/a	LTP192	ltpFR	11	n/a	n/a	n/a	n/a	n/a	n/a	n/a	22	9	9	4	n/a	n/a	n/a	n/a	n/a
1691.184	n/a	PROB	845592	n/a	LTP192	ltpFR	11	n/a	n/a	n/a	n/a	n/a	n/a	n/a	19	6	9	4	n/a	n/a	n/a	n/a	n/a
1693.014	n/a	PROB	846507	n/a	LTP192	ltpFR	11	n/a	n/a	n/a	n/a	n/a	n/a	n/a	11	7	3	1	n/a	n/a	n/a	n/a	n/a
1694.296	n/a	PROB	847148	n/a	LTP192	ltpFR	11	n/a	n/a	n/a	n/a	n/a	n/a	n/a	16	6	8	2	n/a	n/a	n/a	n/a	n/a
1695.346	n/a	STOP	847673	n/a	LTP192	ltpFR	11	n/a	n/a	n/a	n/a	n/a	n/a	n/a	n/a	n/a	n/a	n/a	n/a	n/a	n/a	n/a	n/a
1697.674	n/a	WORD	848837	wordpools/wasnorm_wordpool_less_exclusions.txt	LTP192	ltpFR	11	6	1	SPHINX	1349	n/a	n/a	0	n/a	0	0	0	0.422607421875	0.5869140625	0	upper	amplitud.ttf
1700.688	n/a	START	850344	n/a	LTP192	ltpFR	11	n/a	n/a	n/a	n/a	n/a	n/a	n/a	n/a	n/a	n/a	n/a	n/a	n/a	n/a	n/a	n/a
1701.636	n/a	PROB	850818	n/a	LTP192	ltpFR	11	n/a	n/a	n/a	n/a	n/a	n/a	n/a	22	9	9	4	n/a	n/a	n/a	n/a	n/a
1702.95	n/a	PROB	851475	n/a	LTP192	ltpFR	11	n/a	n/a	n/a	n/a	n/a	n/a	n/a	12	6	5	1	n/a	n/a	n/a	n/a	n/a
1704.912	n/a	PROB	852456	n/a	LTP192	ltpFR	11	n/a	n/a	n/a	n/a	n/a	n/a	n/a	11	3	7	1	n/a	n/a	n/a	n/a	n/a
1706.012	n/a	PROB	853006	n/a	LTP192	ltpFR	11	n/a	n/a	n/a	n/a	n/a	n/a	n/a	13	8	4	1	n/a	n/a	n/a	n/a	n/a
1708.01	n/a	STOP	854005	n/a	LTP192	ltpFR	11	n/a	n/a	n/a	n/a	n/a	n/a	n/a	n/a	n/a	n/a	n/a	n/a	n/a	n/a	n/a	n/a
1710.556	n/a	REC_START	855278	n/a	LTP192	ltpFR	11	6	n/a	n/a	n/a	n/a	n/a	n/a	n/a	0	0	0	n/a	n/a	n/a	n/a	n/a
1711.2	n/a	REC_WORD	855600	wordpools/wasnorm_wordpool_less_exclusions.txt	LTP192	ltpFR	11	6	1	SPHINX	1349	n/a	n/a	0	n/a	0	0	0	n/a	n/a	n/a	n/a	n/a
1712.192	n/a	REC_WORD	856096	wordpools/wasnorm_wordpool_less_exclusions.txt	LTP192	ltpFR	11	6	1	MALL	860	n/a	n/a	0	n/a	0	0	0	n/a	n/a	n/a	n/a	n/a
1713.166	n/a	REC_WORD	856583	wordpools/wasnorm_wordpool_less_exclusions.txt	LTP192	ltpFR	11	6	1	BOULDER	155	n/a	n/a	0	n/a	0	0	0	n/a	n/a	n/a	n/a	n/a
1714.202	n/a	REC_WORD	857101	wordpools/wasnorm_wordpool_less_exclusions.txt	LTP192	ltpFR	11	6	1	STONE	1385	n/a	n/a	0	n/a	0	0	0	n/a	n/a	n/a	n/a	n/a
1720.878	n/a	REC_WORD	860439	wordpools/wasnorm_wordpool_less_exclusions.txt	LTP192	ltpFR	11	6	1	PLAZA	1088	n/a	n/a	0	n/a	0	0	0	n/a	n/a	n/a	n/a	n/a
1725.946	n/a	REC_WORD	862973	wordpools/wasnorm_wordpool_less_exclusions.txt	LTP192	ltpFR	11	6	1	MARKET	871	n/a	n/a	0	n/a	0	0	0	n/a	n/a	n/a	n/a	n/a
1733.948	n/a	REC_WORD	866974	wordpools/wasnorm_wordpool_less_exclusions.txt	LTP192	ltpFR	11	6	1	MACHINE	852	n/a	n/a	0	n/a	0	0	0	n/a	n/a	n/a	n/a	n/a
1769.268	n/a	REC_WORD	884634	wordpools/wasnorm_wordpool_less_exclusions.txt	LTP192	ltpFR	11	6	1	TORTOISE	1486	n/a	n/a	1	n/a	0	0	0	n/a	n/a	n/a	n/a	n/a
1794.648	n/a	WORD	897324	wordpools/wasnorm_wordpool_less_exclusions.txt	LTP192	ltpFR	11	7	1	DEER	444	n/a	n/a	1	n/a	0	0	0	0.422607421875	0.5869140625	0	upper	amplitud.ttf
1798.658	n/a	WORD	899329	wordpools/wasnorm_wordpool_less_exclusions.txt	LTP192	ltpFR	11	7	1	ROOMMATE	1207	n/a	n/a	1	n/a	0	0	0	0.422607421875	0.5869140625	0	upper	amplitud.ttf
1802.57	n/a	WORD	901285	wordpools/wasnorm_wordpool_less_exclusions.txt	LTP192	ltpFR	11	7	1	COTTON	385	n/a	n/a	0	n/a	0	0	0	0.422607421875	0.5869140625	0	upper	amplitud.ttf
1806.464	n/a	WORD	903232	wordpools/wasnorm_wordpool_less_exclusions.txt	LTP192	ltpFR	11	7	0	SHELTER	1282	n/a	n/a	1	n/a	0	0	0	0.57763671875	0.412841796875	1	lower	zerothre.ttf
1810.574	n/a	WORD	905287	wordpools/wasnorm_wordpool_less_exclusions.txt	LTP192	ltpFR	11	7	0	ATTORNEY	58	n/a	n/a	1	n/a	0	0	0	0.57763671875	0.412841796875	1	lower	zerothre.ttf
1814.484	n/a	WORD	907242	wordpools/wasnorm_wordpool_less_exclusions.txt	LTP192	ltpFR	11	7	0	CONDUCTOR	362	n/a	n/a	1	n/a	0	0	0	0.57763671875	0.412841796875	1	lower	zerothre.ttf
1818.446	n/a	WORD	909223	wordpools/wasnorm_wordpool_less_exclusions.txt	LTP192	ltpFR	11	7	1	TRUMPET	1513	n/a	n/a	0	n/a	0	0	0	0.422607421875	0.5869140625	0	upper	amplitud.ttf
1822.572	n/a	WORD	911286	wordpools/wasnorm_wordpool_less_exclusions.txt	LTP192	ltpFR	11	7	1	COOK	372	n/a	n/a	1	n/a	0	0	0	0.422607421875	0.5869140625	0	upper	amplitud.ttf
1826.4	n/a	WORD	913200	wordpools/wasnorm_wordpool_less_exclusions.txt	LTP192	ltpFR	11	7	1	COOKBOOK	373	n/a	n/a	0	n/a	0	0	0	0.422607421875	0.5869140625	0	upper	amplitud.ttf
1830.578	n/a	WORD	915289	wordpools/wasnorm_wordpool_less_exclusions.txt	LTP192	ltpFR	11	7	1	PICKLE	1059	n/a	n/a	0	n/a	0	0	0	0.422607421875	0.5869140625	0	upper	amplitud.ttf
1834.77	n/a	WORD	917385	wordpools/wasnorm_wordpool_less_exclusions.txt	LTP192	ltpFR	11	7	1	PICNIC	1060	n/a	n/a	0	n/a	0	0	0	0.422607421875	0.5869140625	0	upper	amplitud.ttf
1838.914	n/a	WORD	919457	wordpools/wasnorm_wordpool_less_exclusions.txt	LTP192	ltpFR	11	7	0	SHORTCAKE	1292	n/a	n/a	0	n/a	0	0	0	0.57763671875	0.412841796875	1	lower	zerothre.ttf
1842.942	n/a	WORD	921471	wordpools/wasnorm_wordpool_less_exclusions.txt	LTP192	ltpFR	11	7	0	RASPBERRY	1168	n/a	n/a	0	n/a	0	0	0	0.57763671875	0.412841796875	1	lower	zerothre.ttf
1846.918	n/a	WORD	923459	wordpools/wasnorm_wordpool_less_exclusions.txt	LTP192	ltpFR	11	7	0	MOLECULE	905	n/a	n/a	0	n/a	0	0	0	0.57763671875	0.412841796875	1	lower	zerothre.ttf
1851.03	n/a	WORD	925515	wordpools/wasnorm_wordpool_less_exclusions.txt	LTP192	ltpFR	11	7	0	COURT	391	n/a	n/a	1	n/a	0	0	0	0.57763671875	0.412841796875	1	lower	zerothre.ttf
1855.208	n/a	WORD	927604	wordpools/wasnorm_wordpool_less_exclusions.txt	LTP192	ltpFR	11	7	0	SLEIGH	1325	n/a	n/a	1	n/a	0	0	0	0.57763671875	0.412841796875	1	lower	zerothre.ttf
1858.22	n/a	START	929110	n/a	LTP192	ltpFR	11	n/a	n/a	n/a	n/a	n/a	n/a	n/a	n/a	n/a	n/a	n/a	n/a	n/a	n/a	n/a	n/a
1859.436	n/a	PROB	929718	n/a	LTP192	ltpFR	11	n/a	n/a	n/a	n/a	n/a	n/a	n/a	10	6	2	2	n/a	n/a	n/a	n/a	n/a
1861.182	n/a	PROB	930591	n/a	LTP192	ltpFR	11	n/a	n/a	n/a	n/a	n/a	n/a	n/a	13	2	9	2	n/a	n/a	n/a	n/a	n/a
1863.046	n/a	PROB	931523	n/a	LTP192	ltpFR	11	n/a	n/a	n/a	n/a	n/a	n/a	n/a	14	6	2	6	n/a	n/a	n/a	n/a	n/a
1864.992	n/a	PROB	932496	n/a	LTP192	ltpFR	11	n/a	n/a	n/a	n/a	n/a	n/a	n/a	16	7	4	5	n/a	n/a	n/a	n/a	n/a
1866.258	n/a	PROB	933129	n/a	LTP192	ltpFR	11	n/a	n/a	n/a	n/a	n/a	n/a	n/a	16	1	8	7	n/a	n/a	n/a	n/a	n/a
1867.754	n/a	PROB	933877	n/a	LTP192	ltpFR	11	n/a	n/a	n/a	n/a	n/a	n/a	n/a	9	1	3	5	n/a	n/a	n/a	n/a	n/a
1869.104	n/a	PROB	934552	n/a	LTP192	ltpFR	11	n/a	n/a	n/a	n/a	n/a	n/a	n/a	10	2	6	2	n/a	n/a	n/a	n/a	n/a
1870.834	n/a	PROB	935417	n/a	LTP192	ltpFR	11	n/a	n/a	n/a	n/a	n/a	n/a	n/a	15	4	4	7	n/a	n/a	n/a	n/a	n/a
1873.54	n/a	STOP	936770	n/a	LTP192	ltpFR	11	n/a	n/a	n/a	n/a	n/a	n/a	n/a	n/a	n/a	n/a	n/a	n/a	n/a	n/a	n/a	n/a
1875.976	n/a	REC_START	937988	n/a	LTP192	ltpFR	11	7	n/a	n/a	n/a	n/a	n/a	n/a	n/a	0	0	0	n/a	n/a	n/a	n/a	n/a
1876.854	n/a	REC_WORD	938427	wordpools/wasnorm_wordpool_less_exclusions.txt	LTP192	ltpFR	11	7	0	ATTORNEY	58	n/a	n/a	1	n/a	0	0	0	n/a	n/a	n/a	n/a	n/a
1877.772	n/a	REC_WORD	938886	wordpools/wasnorm_wordpool_less_exclusions.txt	LTP192	ltpFR	11	7	0	COURT	391	n/a	n/a	1	n/a	0	0	0	n/a	n/a	n/a	n/a	n/a
1878.6	n/a	REC_WORD	939300	wordpools/wasnorm_wordpool_less_exclusions.txt	LTP192	ltpFR	11	7	0	SHORTCAKE	1292	n/a	n/a	0	n/a	0	0	0	n/a	n/a	n/a	n/a	n/a
1879.642	n/a	REC_WORD	939821	wordpools/wasnorm_wordpool_less_exclusions.txt	LTP192	ltpFR	11	7	0	RASPBERRY	1168	n/a	n/a	0	n/a	0	0	0	n/a	n/a	n/a	n/a	n/a
1880.794	n/a	REC_WORD	940397	wordpools/wasnorm_wordpool_less_exclusions.txt	LTP192	ltpFR	11	7	1	PICKLE	1059	n/a	n/a	0	n/a	0	0	0	n/a	n/a	n/a	n/a	n/a
1894.738	n/a	REC_WORD	947369	wordpools/wasnorm_wordpool_less_exclusions.txt	LTP192	ltpFR	11	7	1	DEER	444	n/a	n/a	1	n/a	0	0	0	n/a	n/a	n/a	n/a	n/a
1926.224	n/a	REC_WORD	963112	wordpools/wasnorm_wordpool_less_exclusions.txt	LTP192	ltpFR	11	7	1	COOK	372	n/a	n/a	1	n/a	0	0	0	n/a	n/a	n/a	n/a	n/a
1926.886	n/a	REC_WORD	963443	wordpools/wasnorm_wordpool_less_exclusions.txt	LTP192	ltpFR	11	7	1	COOKBOOK	373	n/a	n/a	0	n/a	0	0	0	n/a	n/a	n/a	n/a	n/a
1954.312	n/a	START	977156	n/a	LTP192	ltpFR	11	n/a	n/a	n/a	n/a	n/a	n/a	n/a	n/a	n/a	n/a	n/a	n/a	n/a	n/a	n/a	n/a
1955.824	n/a	PROB	977912	n/a	LTP192	ltpFR	11	n/a	n/a	n/a	n/a	n/a	n/a	n/a	12	1	5	6	n/a	n/a	n/a	n/a	n/a
1956.89	n/a	PROB	978445	n/a	LTP192	ltpFR	11	n/a	n/a	n/a	n/a	n/a	n/a	n/a	11	1	4	6	n/a	n/a	n/a	n/a	n/a
1958.338	n/a	PROB	979169	n/a	LTP192	ltpFR	11	n/a	n/a	n/a	n/a	n/a	n/a	n/a	14	6	2	6	n/a	n/a	n/a	n/a	n/a
1960.034	n/a	PROB	980017	n/a	LTP192	ltpFR	11	n/a	n/a	n/a	n/a	n/a	n/a	n/a	17	2	6	9	n/a	n/a	n/a	n/a	n/a
1962.032	n/a	PROB	981016	n/a	LTP192	ltpFR	11	n/a	n/a	n/a	n/a	n/a	n/a	n/a	16	9	6	1	n/a	n/a	n/a	n/a	n/a
1963.53	n/a	PROB	981765	n/a	LTP192	ltpFR	11	n/a	n/a	n/a	n/a	n/a	n/a	n/a	16	2	8	6	n/a	n/a	n/a	n/a	n/a
1964.712	n/a	PROB	982356	n/a	LTP192	ltpFR	11	n/a	n/a	n/a	n/a	n/a	n/a	n/a	24	7	6	7	n/a	n/a	n/a	n/a	n/a
1966.376	n/a	PROB	983188	n/a	LTP192	ltpFR	11	n/a	n/a	n/a	n/a	n/a	n/a	n/a	10	8	1	1	n/a	n/a	n/a	n/a	n/a
1967.642	n/a	PROB	983821	n/a	LTP192	ltpFR	11	n/a	n/a	n/a	n/a	n/a	n/a	n/a	24	7	6	7	n/a	n/a	n/a	n/a	n/a
1969.574	n/a	STOP	984787	n/a	LTP192	ltpFR	11	n/a	n/a	n/a	n/a	n/a	n/a	n/a	n/a	n/a	n/a	n/a	n/a	n/a	n/a	n/a	n/a
1971.17	n/a	WORD	985585	wordpools/wasnorm_wordpool_less_exclusions.txt	LTP192	ltpFR	11	8	0	DRESS	495	n/a	n/a	0	n/a	0	0	0	0.57763671875	0.412841796875	1	lower	zerothre.ttf
1974.182	n/a	START	987091	n/a	LTP192	ltpFR	11	n/a	n/a	n/a	n/a	n/a	n/a	n/a	n/a	n/a	n/a	n/a	n/a	n/a	n/a	n/a	n/a
1975.312	n/a	PROB	987656	n/a	LTP192	ltpFR	11	n/a	n/a	n/a	n/a	n/a	n/a	n/a	20	9	9	2	n/a	n/a	n/a	n/a	n/a
1976.628	n/a	PROB	988314	n/a	LTP192	ltpFR	11	n/a	n/a	n/a	n/a	n/a	n/a	n/a	15	9	3	3	n/a	n/a	n/a	n/a	n/a
1978.674	n/a	PROB	989337	n/a	LTP192	ltpFR	11	n/a	n/a	n/a	n/a	n/a	n/a	n/a	15	5	8	2	n/a	n/a	n/a	n/a	n/a
1980.77	n/a	PROB	990385	n/a	LTP192	ltpFR	11	n/a	n/a	n/a	n/a	n/a	n/a	n/a	13	5	7	1	n/a	n/a	n/a	n/a	n/a
1982.652	n/a	PROB	991326	n/a	LTP192	ltpFR	11	n/a	n/a	n/a	n/a	n/a	n/a	n/a	17	7	1	9	n/a	n/a	n/a	n/a	n/a
1984.0	n/a	PROB	992000	n/a	LTP192	ltpFR	11	n/a	n/a	n/a	n/a	n/a	n/a	n/a	13	4	8	1	n/a	n/a	n/a	n/a	n/a
1985.78	n/a	PROB	992890	n/a	LTP192	ltpFR	11	n/a	n/a	n/a	n/a	n/a	n/a	n/a	14	8	1	5	n/a	n/a	n/a	n/a	n/a
1988.868	n/a	STOP	994434	n/a	LTP192	ltpFR	11	n/a	n/a	n/a	n/a	n/a	n/a	n/a	n/a	n/a	n/a	n/a	n/a	n/a	n/a	n/a	n/a
1991.222	n/a	WORD	995611	wordpools/wasnorm_wordpool_less_exclusions.txt	LTP192	ltpFR	11	8	0	MICROPHONE	890	n/a	n/a	0	n/a	0	0	0	0.57763671875	0.412841796875	1	lower	zerothre.ttf
1994.236	n/a	START	997118	n/a	LTP192	ltpFR	11	n/a	n/a	n/a	n/a	n/a	n/a	n/a	n/a	n/a	n/a	n/a	n/a	n/a	n/a	n/a	n/a
1995.366	n/a	PROB	997683	n/a	LTP192	ltpFR	11	n/a	n/a	n/a	n/a	n/a	n/a	n/a	13	4	7	1	n/a	n/a	n/a	n/a	n/a
1997.63	n/a	PROB	998815	n/a	LTP192	ltpFR	11	n/a	n/a	n/a	n/a	n/a	n/a	n/a	19	8	7	3	n/a	n/a	n/a	n/a	n/a
2000.31	n/a	PROB	1000155	n/a	LTP192	ltpFR	11	n/a	n/a	n/a	n/a	n/a	n/a	n/a	13	6	2	5	n/a	n/a	n/a	n/a	n/a
2002.424	n/a	PROB	1001212	n/a	LTP192	ltpFR	11	n/a	n/a	n/a	n/a	n/a	n/a	n/a	17	6	9	2	n/a	n/a	n/a	n/a	n/a
2004.27	n/a	PROB	1002135	n/a	LTP192	ltpFR	11	n/a	n/a	n/a	n/a	n/a	n/a	n/a	18	1	9	8	n/a	n/a	n/a	n/a	n/a
2005.834	n/a	PROB	1002917	n/a	LTP192	ltpFR	11	n/a	n/a	n/a	n/a	n/a	n/a	n/a	6	3	2	1	n/a	n/a	n/a	n/a	n/a
2010.236	n/a	STOP	1005118	n/a	LTP192	ltpFR	11	n/a	n/a	n/a	n/a	n/a	n/a	n/a	n/a	n/a	n/a	n/a	n/a	n/a	n/a	n/a	n/a
2011.094	n/a	WORD	1005547	wordpools/wasnorm_wordpool_less_exclusions.txt	LTP192	ltpFR	11	8	0	FOX	598	n/a	n/a	1	n/a	0	0	0	0.57763671875	0.412841796875	1	lower	zerothre.ttf
2014.106	n/a	START	1007053	n/a	LTP192	ltpFR	11	n/a	n/a	n/a	n/a	n/a	n/a	n/a	n/a	n/a	n/a	n/a	n/a	n/a	n/a	n/a	n/a
2015.004	n/a	PROB	1007502	n/a	LTP192	ltpFR	11	n/a	n/a	n/a	n/a	n/a	n/a	n/a	9	7	1	1	n/a	n/a	n/a	n/a	n/a
2016.286	n/a	PROB	1008143	n/a	LTP192	ltpFR	11	n/a	n/a	n/a	n/a	n/a	n/a	n/a	21	7	7	5	n/a	n/a	n/a	n/a	n/a
2017.7	n/a	PROB	1008850	n/a	LTP192	ltpFR	11	n/a	n/a	n/a	n/a	n/a	n/a	n/a	12	3	8	1	n/a	n/a	n/a	n/a	n/a
2019.632	n/a	PROB	1009816	n/a	LTP192	ltpFR	11	n/a	n/a	n/a	n/a	n/a	n/a	n/a	13	9	3	1	n/a	n/a	n/a	n/a	n/a
2020.712	n/a	PROB	1010356	n/a	LTP192	ltpFR	11	n/a	n/a	n/a	n/a	n/a	n/a	n/a	11	7	1	3	n/a	n/a	n/a	n/a	n/a
2022.46	n/a	PROB	1011230	n/a	LTP192	ltpFR	11	n/a	n/a	n/a	n/a	n/a	n/a	n/a	17	8	8	1	n/a	n/a	n/a	n/a	n/a
2023.79	n/a	PROB	1011895	n/a	LTP192	ltpFR	11	n/a	n/a	n/a	n/a	n/a	n/a	n/a	18	9	5	4	n/a	n/a	n/a	n/a	n/a
2025.022	n/a	PROB	1012511	n/a	LTP192	ltpFR	11	n/a	n/a	n/a	n/a	n/a	n/a	n/a	5	2	2	1	n/a	n/a	n/a	n/a	n/a
2026.438	n/a	PROB	1013219	n/a	LTP192	ltpFR	11	n/a	n/a	n/a	n/a	n/a	n/a	n/a	24	7	8	9	n/a	n/a	n/a	n/a	n/a
2029.494	n/a	STOP	1014747	n/a	LTP192	ltpFR	11	n/a	n/a	n/a	n/a	n/a	n/a	n/a	n/a	n/a	n/a	n/a	n/a	n/a	n/a	n/a	n/a
2031.298	n/a	WORD	1015649	wordpools/wasnorm_wordpool_less_exclusions.txt	LTP192	ltpFR	11	8	0	COMMITTEE	355	n/a	n/a	1	n/a	0	0	0	0.57763671875	0.412841796875	1	lower	zerothre.ttf
2034.31	n/a	START	1017155	n/a	LTP192	ltpFR	11	n/a	n/a	n/a	n/a	n/a	n/a	n/a	n/a	n/a	n/a	n/a	n/a	n/a	n/a	n/a	n/a
2035.124	n/a	PROB	1017562	n/a	LTP192	ltpFR	11	n/a	n/a	n/a	n/a	n/a	n/a	n/a	14	5	1	8	n/a	n/a	n/a	n/a	n/a
2037.604	n/a	PROB	1018802	n/a	LTP192	ltpFR	11	n/a	n/a	n/a	n/a	n/a	n/a	n/a	19	7	4	8	n/a	n/a	n/a	n/a	n/a
2039.85	n/a	PROB	1019925	n/a	LTP192	ltpFR	11	n/a	n/a	n/a	n/a	n/a	n/a	n/a	16	8	2	6	n/a	n/a	n/a	n/a	n/a
2041.014	n/a	PROB	1020507	n/a	LTP192	ltpFR	11	n/a	n/a	n/a	n/a	n/a	n/a	n/a	18	8	4	6	n/a	n/a	n/a	n/a	n/a
2042.48	n/a	PROB	1021240	n/a	LTP192	ltpFR	11	n/a	n/a	n/a	n/a	n/a	n/a	n/a	14	3	4	7	n/a	n/a	n/a	n/a	n/a
2043.794	n/a	PROB	1021897	n/a	LTP192	ltpFR	11	n/a	n/a	n/a	n/a	n/a	n/a	n/a	11	1	9	1	n/a	n/a	n/a	n/a	n/a
2045.11	n/a	PROB	1022555	n/a	LTP192	ltpFR	11	n/a	n/a	n/a	n/a	n/a	n/a	n/a	19	7	4	6	n/a	n/a	n/a	n/a	n/a
2049.086	n/a	STOP	1024543	n/a	LTP192	ltpFR	11	n/a	n/a	n/a	n/a	n/a	n/a	n/a	n/a	n/a	n/a	n/a	n/a	n/a	n/a	n/a	n/a
2051.234	n/a	WORD	1025617	wordpools/wasnorm_wordpool_less_exclusions.txt	LTP192	ltpFR	11	8	0	STAFF	1365	n/a	n/a	1	n/a	0	0	0	0.57763671875	0.412841796875	1	lower	zerothre.ttf
2054.246	n/a	START	1027123	n/a	LTP192	ltpFR	11	n/a	n/a	n/a	n/a	n/a	n/a	n/a	n/a	n/a	n/a	n/a	n/a	n/a	n/a	n/a	n/a
2055.094	n/a	PROB	1027547	n/a	LTP192	ltpFR	11	n/a	n/a	n/a	n/a	n/a	n/a	n/a	18	8	9	1	n/a	n/a	n/a	n/a	n/a
2056.46	n/a	PROB	1028230	n/a	LTP192	ltpFR	11	n/a	n/a	n/a	n/a	n/a	n/a	n/a	12	8	3	1	n/a	n/a	n/a	n/a	n/a
2057.956	n/a	PROB	1028978	n/a	LTP192	ltpFR	11	n/a	n/a	n/a	n/a	n/a	n/a	n/a	18	8	9	1	n/a	n/a	n/a	n/a	n/a
2059.004	n/a	PROB	1029502	n/a	LTP192	ltpFR	11	n/a	n/a	n/a	n/a	n/a	n/a	n/a	16	6	3	7	n/a	n/a	n/a	n/a	n/a
2060.67	n/a	PROB	1030335	n/a	LTP192	ltpFR	11	n/a	n/a	n/a	n/a	n/a	n/a	n/a	21	7	9	5	n/a	n/a	n/a	n/a	n/a
2063.016	n/a	PROB	1031508	n/a	LTP192	ltpFR	11	n/a	n/a	n/a	n/a	n/a	n/a	n/a	21	3	8	9	n/a	n/a	n/a	n/a	n/a
2066.428	n/a	PROB	1033214	n/a	LTP192	ltpFR	11	n/a	n/a	n/a	n/a	n/a	n/a	n/a	16	1	8	7	n/a	n/a	n/a	n/a	n/a
2068.208	n/a	PROB	1034104	n/a	LTP192	ltpFR	11	n/a	n/a	n/a	n/a	n/a	n/a	n/a	7	2	3	2	n/a	n/a	n/a	n/a	n/a
2069.678	n/a	STOP	1034839	n/a	LTP192	ltpFR	11	n/a	n/a	n/a	n/a	n/a	n/a	n/a	n/a	n/a	n/a	n/a	n/a	n/a	n/a	n/a	n/a
2071.138	n/a	WORD	1035569	wordpools/wasnorm_wordpool_less_exclusions.txt	LTP192	ltpFR	11	8	0	PRODUCER	1129	n/a	n/a	1	n/a	0	0	0	0.57763671875	0.412841796875	1	lower	zerothre.ttf
2074.152	n/a	START	1037076	n/a	LTP192	ltpFR	11	n/a	n/a	n/a	n/a	n/a	n/a	n/a	n/a	n/a	n/a	n/a	n/a	n/a	n/a	n/a	n/a
2075.066	n/a	PROB	1037533	n/a	LTP192	ltpFR	11	n/a	n/a	n/a	n/a	n/a	n/a	n/a	9	4	1	4	n/a	n/a	n/a	n/a	n/a
2076.598	n/a	PROB	1038299	n/a	LTP192	ltpFR	11	n/a	n/a	n/a	n/a	n/a	n/a	n/a	15	6	6	3	n/a	n/a	n/a	n/a	n/a
2077.844	n/a	PROB	1038922	n/a	LTP192	ltpFR	11	n/a	n/a	n/a	n/a	n/a	n/a	n/a	13	7	3	3	n/a	n/a	n/a	n/a	n/a
2079.426	n/a	PROB	1039713	n/a	LTP192	ltpFR	11	n/a	n/a	n/a	n/a	n/a	n/a	n/a	11	4	2	5	n/a	n/a	n/a	n/a	n/a
2084.734	n/a	PROB	1042367	n/a	LTP192	ltpFR	11	n/a	n/a	n/a	n/a	n/a	n/a	n/a	17	4	5	8	n/a	n/a	n/a	n/a	n/a
2090.144	n/a	STOP	1045072	n/a	LTP192	ltpFR	11	n/a	n/a	n/a	n/a	n/a	n/a	n/a	n/a	n/a	n/a	n/a	n/a	n/a	n/a	n/a	n/a
2091.208	n/a	WORD	1045604	wordpools/wasnorm_wordpool_less_exclusions.txt	LTP192	ltpFR	11	8	0	STEAM	1375	n/a	n/a	1	n/a	0	0	0	0.57763671875	0.412841796875	1	lower	zerothre.ttf
2094.222	n/a	START	1047111	n/a	LTP192	ltpFR	11	n/a	n/a	n/a	n/a	n/a	n/a	n/a	n/a	n/a	n/a	n/a	n/a	n/a	n/a	n/a	n/a
2095.22	n/a	PROB	1047610	n/a	LTP192	ltpFR	11	n/a	n/a	n/a	n/a	n/a	n/a	n/a	15	2	8	5	n/a	n/a	n/a	n/a	n/a
2096.7	n/a	PROB	1048350	n/a	LTP192	ltpFR	11	n/a	n/a	n/a	n/a	n/a	n/a	n/a	11	6	2	3	n/a	n/a	n/a	n/a	n/a
2098.548	n/a	PROB	1049274	n/a	LTP192	ltpFR	11	n/a	n/a	n/a	n/a	n/a	n/a	n/a	5	2	2	1	n/a	n/a	n/a	n/a	n/a
2100.212	n/a	PROB	1050106	n/a	LTP192	ltpFR	11	n/a	n/a	n/a	n/a	n/a	n/a	n/a	13	4	5	4	n/a	n/a	n/a	n/a	n/a
2101.776	n/a	PROB	1050888	n/a	LTP192	ltpFR	11	n/a	n/a	n/a	n/a	n/a	n/a	n/a	13	4	2	7	n/a	n/a	n/a	n/a	n/a
2103.606	n/a	PROB	1051803	n/a	LTP192	ltpFR	11	n/a	n/a	n/a	n/a	n/a	n/a	n/a	12	5	3	4	n/a	n/a	n/a	n/a	n/a
2105.154	n/a	PROB	1052577	n/a	LTP192	ltpFR	11	n/a	n/a	n/a	n/a	n/a	n/a	n/a	18	5	8	5	n/a	n/a	n/a	n/a	n/a
2106.236	n/a	PROB	1053118	n/a	LTP192	ltpFR	11	n/a	n/a	n/a	n/a	n/a	n/a	n/a	17	4	9	4	n/a	n/a	n/a	n/a	n/a
2108.806	n/a	STOP	1054403	n/a	LTP192	ltpFR	11	n/a	n/a	n/a	n/a	n/a	n/a	n/a	n/a	n/a	n/a	n/a	n/a	n/a	n/a	n/a	n/a
2111.428	n/a	WORD	1055714	wordpools/wasnorm_wordpool_less_exclusions.txt	LTP192	ltpFR	11	8	0	CAR	241	n/a	n/a	1	n/a	0	0	0	0.57763671875	0.412841796875	1	lower	zerothre.ttf
2114.44	n/a	START	1057220	n/a	LTP192	ltpFR	11	n/a	n/a	n/a	n/a	n/a	n/a	n/a	n/a	n/a	n/a	n/a	n/a	n/a	n/a	n/a	n/a
2115.372	n/a	PROB	1057686	n/a	LTP192	ltpFR	11	n/a	n/a	n/a	n/a	n/a	n/a	n/a	16	3	4	9	n/a	n/a	n/a	n/a	n/a
2116.786	n/a	PROB	1058393	n/a	LTP192	ltpFR	11	n/a	n/a	n/a	n/a	n/a	n/a	n/a	17	1	7	9	n/a	n/a	n/a	n/a	n/a
2118.152	n/a	PROB	1059076	n/a	LTP192	ltpFR	11	n/a	n/a	n/a	n/a	n/a	n/a	n/a	12	2	9	1	n/a	n/a	n/a	n/a	n/a
2120.348	n/a	PROB	1060174	n/a	LTP192	ltpFR	11	n/a	n/a	n/a	n/a	n/a	n/a	n/a	17	8	8	2	n/a	n/a	n/a	n/a	n/a
2121.796	n/a	PROB	1060898	n/a	LTP192	ltpFR	11	n/a	n/a	n/a	n/a	n/a	n/a	n/a	11	4	1	6	n/a	n/a	n/a	n/a	n/a
2123.278	n/a	PROB	1061639	n/a	LTP192	ltpFR	11	n/a	n/a	n/a	n/a	n/a	n/a	n/a	13	4	1	8	n/a	n/a	n/a	n/a	n/a
2125.44	n/a	PROB	1062720	n/a	LTP192	ltpFR	11	n/a	n/a	n/a	n/a	n/a	n/a	n/a	12	4	1	7	n/a	n/a	n/a	n/a	n/a
2127.372	n/a	PROB	1063686	n/a	LTP192	ltpFR	11	n/a	n/a	n/a	n/a	n/a	n/a	n/a	16	2	8	6	n/a	n/a	n/a	n/a	n/a
2128.686	n/a	PROB	1064343	n/a	LTP192	ltpFR	11	n/a	n/a	n/a	n/a	n/a	n/a	n/a	14	7	6	1	n/a	n/a	n/a	n/a	n/a
2130.288	n/a	STOP	1065144	n/a	LTP192	ltpFR	11	n/a	n/a	n/a	n/a	n/a	n/a	n/a	n/a	n/a	n/a	n/a	n/a	n/a	n/a	n/a	n/a
2131.416	n/a	WORD	1065708	wordpools/wasnorm_wordpool_less_exclusions.txt	LTP192	ltpFR	11	8	0	PIANO	1057	n/a	n/a	1	n/a	0	0	0	0.57763671875	0.412841796875	1	lower	zerothre.ttf
2134.428	n/a	START	1067214	n/a	LTP192	ltpFR	11	n/a	n/a	n/a	n/a	n/a	n/a	n/a	n/a	n/a	n/a	n/a	n/a	n/a	n/a	n/a	n/a
2135.526	n/a	PROB	1067763	n/a	LTP192	ltpFR	11	n/a	n/a	n/a	n/a	n/a	n/a	n/a	7	3	3	1	n/a	n/a	n/a	n/a	n/a
2137.356	n/a	PROB	1068678	n/a	LTP192	ltpFR	11	n/a	n/a	n/a	n/a	n/a	n/a	n/a	16	4	9	3	n/a	n/a	n/a	n/a	n/a
2139.454	n/a	PROB	1069727	n/a	LTP192	ltpFR	11	n/a	n/a	n/a	n/a	n/a	n/a	n/a	12	2	7	3	n/a	n/a	n/a	n/a	n/a
2140.9	n/a	PROB	1070450	n/a	LTP192	ltpFR	11	n/a	n/a	n/a	n/a	n/a	n/a	n/a	10	4	1	5	n/a	n/a	n/a	n/a	n/a
2142.748	n/a	PROB	1071374	n/a	LTP192	ltpFR	11	n/a	n/a	n/a	n/a	n/a	n/a	n/a	10	2	4	4	n/a	n/a	n/a	n/a	n/a
2144.462	n/a	PROB	1072231	n/a	LTP192	ltpFR	11	n/a	n/a	n/a	n/a	n/a	n/a	n/a	8	1	6	1	n/a	n/a	n/a	n/a	n/a
2145.628	n/a	PROB	1072814	n/a	LTP192	ltpFR	11	n/a	n/a	n/a	n/a	n/a	n/a	n/a	10	5	3	2	n/a	n/a	n/a	n/a	n/a
2146.976	n/a	PROB	1073488	n/a	LTP192	ltpFR	11	n/a	n/a	n/a	n/a	n/a	n/a	n/a	17	7	8	2	n/a	n/a	n/a	n/a	n/a
2148.856	n/a	PROB	1074428	n/a	LTP192	ltpFR	11	n/a	n/a	n/a	n/a	n/a	n/a	n/a	6	2	2	2	n/a	n/a	n/a	n/a	n/a
2150.0	n/a	STOP	1075000	n/a	LTP192	ltpFR	11	n/a	n/a	n/a	n/a	n/a	n/a	n/a	n/a	n/a	n/a	n/a	n/a	n/a	n/a	n/a	n/a
2151.552	n/a	WORD	1075776	wordpools/wasnorm_wordpool_less_exclusions.txt	LTP192	ltpFR	11	8	0	PAIL	1002	n/a	n/a	0	n/a	0	0	0	0.57763671875	0.412841796875	1	lower	zerothre.ttf
2154.566	n/a	START	1077283	n/a	LTP192	ltpFR	11	n/a	n/a	n/a	n/a	n/a	n/a	n/a	n/a	n/a	n/a	n/a	n/a	n/a	n/a	n/a	n/a
2155.546	n/a	PROB	1077773	n/a	LTP192	ltpFR	11	n/a	n/a	n/a	n/a	n/a	n/a	n/a	20	9	9	2	n/a	n/a	n/a	n/a	n/a
2156.894	n/a	PROB	1078447	n/a	LTP192	ltpFR	11	n/a	n/a	n/a	n/a	n/a	n/a	n/a	14	8	3	3	n/a	n/a	n/a	n/a	n/a
2160.224	n/a	PROB	1080112	n/a	LTP192	ltpFR	11	n/a	n/a	n/a	n/a	n/a	n/a	n/a	19	9	9	1	n/a	n/a	n/a	n/a	n/a
2161.404	n/a	PROB	1080702	n/a	LTP192	ltpFR	11	n/a	n/a	n/a	n/a	n/a	n/a	n/a	17	5	8	4	n/a	n/a	n/a	n/a	n/a
2163.8	n/a	PROB	1081900	n/a	LTP192	ltpFR	11	n/a	n/a	n/a	n/a	n/a	n/a	n/a	13	1	5	9	n/a	n/a	n/a	n/a	n/a
2165.166	n/a	PROB	1082583	n/a	LTP192	ltpFR	11	n/a	n/a	n/a	n/a	n/a	n/a	n/a	14	6	1	7	n/a	n/a	n/a	n/a	n/a
2167.296	n/a	PROB	1083648	n/a	LTP192	ltpFR	11	n/a	n/a	n/a	n/a	n/a	n/a	n/a	18	6	7	5	n/a	n/a	n/a	n/a	n/a
2169.232	n/a	STOP	1084616	n/a	LTP192	ltpFR	11	n/a	n/a	n/a	n/a	n/a	n/a	n/a	n/a	n/a	n/a	n/a	n/a	n/a	n/a	n/a	n/a
2171.772	n/a	WORD	1085886	wordpools/wasnorm_wordpool_less_exclusions.txt	LTP192	ltpFR	11	8	0	SUBMARINE	1398	n/a	n/a	1	n/a	0	0	0	0.57763671875	0.412841796875	1	lower	zerothre.ttf
2174.784	n/a	START	1087392	n/a	LTP192	ltpFR	11	n/a	n/a	n/a	n/a	n/a	n/a	n/a	n/a	n/a	n/a	n/a	n/a	n/a	n/a	n/a	n/a
2175.966	n/a	PROB	1087983	n/a	LTP192	ltpFR	11	n/a	n/a	n/a	n/a	n/a	n/a	n/a	16	7	6	3	n/a	n/a	n/a	n/a	n/a
2177.132	n/a	PROB	1088566	n/a	LTP192	ltpFR	11	n/a	n/a	n/a	n/a	n/a	n/a	n/a	20	6	6	8	n/a	n/a	n/a	n/a	n/a
2179.078	n/a	PROB	1089539	n/a	LTP192	ltpFR	11	n/a	n/a	n/a	n/a	n/a	n/a	n/a	13	4	2	7	n/a	n/a	n/a	n/a	n/a
2180.974	n/a	PROB	1090487	n/a	LTP192	ltpFR	11	n/a	n/a	n/a	n/a	n/a	n/a	n/a	18	7	6	5	n/a	n/a	n/a	n/a	n/a
2183.188	n/a	PROB	1091594	n/a	LTP192	ltpFR	11	n/a	n/a	n/a	n/a	n/a	n/a	n/a	11	3	7	1	n/a	n/a	n/a	n/a	n/a
2184.388	n/a	PROB	1092194	n/a	LTP192	ltpFR	11	n/a	n/a	n/a	n/a	n/a	n/a	n/a	16	7	4	5	n/a	n/a	n/a	n/a	n/a
2185.668	n/a	PROB	1092834	n/a	LTP192	ltpFR	11	n/a	n/a	n/a	n/a	n/a	n/a	n/a	5	1	1	3	n/a	n/a	n/a	n/a	n/a
2186.6	n/a	PROB	1093300	n/a	LTP192	ltpFR	11	n/a	n/a	n/a	n/a	n/a	n/a	n/a	17	5	3	9	n/a	n/a	n/a	n/a	n/a
2187.948	n/a	PROB	1093974	n/a	LTP192	ltpFR	11	n/a	n/a	n/a	n/a	n/a	n/a	n/a	17	9	5	3	n/a	n/a	n/a	n/a	n/a
2189.456	n/a	STOP	1094728	n/a	LTP192	ltpFR	11	n/a	n/a	n/a	n/a	n/a	n/a	n/a	n/a	n/a	n/a	n/a	n/a	n/a	n/a	n/a	n/a
2191.808	n/a	WORD	1095904	wordpools/wasnorm_wordpool_less_exclusions.txt	LTP192	ltpFR	11	8	0	BIOLOGIST	128	n/a	n/a	1	n/a	0	0	0	0.57763671875	0.412841796875	1	lower	zerothre.ttf
2194.82	n/a	START	1097410	n/a	LTP192	ltpFR	11	n/a	n/a	n/a	n/a	n/a	n/a	n/a	n/a	n/a	n/a	n/a	n/a	n/a	n/a	n/a	n/a
2196.002	n/a	PROB	1098001	n/a	LTP192	ltpFR	11	n/a	n/a	n/a	n/a	n/a	n/a	n/a	24	8	8	8	n/a	n/a	n/a	n/a	n/a
2197.384	n/a	PROB	1098692	n/a	LTP192	ltpFR	11	n/a	n/a	n/a	n/a	n/a	n/a	n/a	10	6	1	3	n/a	n/a	n/a	n/a	n/a
2200.146	n/a	PROB	1100073	n/a	LTP192	ltpFR	11	n/a	n/a	n/a	n/a	n/a	n/a	n/a	25	8	7	8	n/a	n/a	n/a	n/a	n/a
2202.924	n/a	PROB	1101462	n/a	LTP192	ltpFR	11	n/a	n/a	n/a	n/a	n/a	n/a	n/a	7	3	3	1	n/a	n/a	n/a	n/a	n/a
2204.14	n/a	PROB	1102070	n/a	LTP192	ltpFR	11	n/a	n/a	n/a	n/a	n/a	n/a	n/a	21	7	6	8	n/a	n/a	n/a	n/a	n/a
2207.868	n/a	PROB	1103934	n/a	LTP192	ltpFR	11	n/a	n/a	n/a	n/a	n/a	n/a	n/a	10	6	2	2	n/a	n/a	n/a	n/a	n/a
2210.82	n/a	STOP	1105410	n/a	LTP192	ltpFR	11	n/a	n/a	n/a	n/a	n/a	n/a	n/a	n/a	n/a	n/a	n/a	n/a	n/a	n/a	n/a	n/a
2211.712	n/a	WORD	1105856	wordpools/wasnorm_wordpool_less_exclusions.txt	LTP192	ltpFR	11	8	0	NUCLEUS	961	n/a	n/a	0	n/a	0	0	0	0.57763671875	0.412841796875	1	lower	zerothre.ttf
2214.724	n/a	START	1107362	n/a	LTP192	ltpFR	11	n/a	n/a	n/a	n/a	n/a	n/a	n/a	n/a	n/a	n/a	n/a	n/a	n/a	n/a	n/a	n/a
2215.608	n/a	PROB	1107804	n/a	LTP192	ltpFR	11	n/a	n/a	n/a	n/a	n/a	n/a	n/a	18	5	8	5	n/a	n/a	n/a	n/a	n/a
2216.804	n/a	PROB	1108402	n/a	LTP192	ltpFR	11	n/a	n/a	n/a	n/a	n/a	n/a	n/a	10	3	3	4	n/a	n/a	n/a	n/a	n/a
2218.254	n/a	PROB	1109127	n/a	LTP192	ltpFR	11	n/a	n/a	n/a	n/a	n/a	n/a	n/a	13	1	4	7	n/a	n/a	n/a	n/a	n/a
2222.648	n/a	PROB	1111324	n/a	LTP192	ltpFR	11	n/a	n/a	n/a	n/a	n/a	n/a	n/a	15	6	3	6	n/a	n/a	n/a	n/a	n/a
2224.028	n/a	PROB	1112014	n/a	LTP192	ltpFR	11	n/a	n/a	n/a	n/a	n/a	n/a	n/a	22	4	9	9	n/a	n/a	n/a	n/a	n/a
2226.358	n/a	PROB	1113179	n/a	LTP192	ltpFR	11	n/a	n/a	n/a	n/a	n/a	n/a	n/a	18	2	8	8	n/a	n/a	n/a	n/a	n/a
2227.772	n/a	PROB	1113886	n/a	LTP192	ltpFR	11	n/a	n/a	n/a	n/a	n/a	n/a	n/a	15	7	1	7	n/a	n/a	n/a	n/a	n/a
2230.724	n/a	STOP	1115362	n/a	LTP192	ltpFR	11	n/a	n/a	n/a	n/a	n/a	n/a	n/a	n/a	n/a	n/a	n/a	n/a	n/a	n/a	n/a	n/a
2231.6	n/a	WORD	1115800	wordpools/wasnorm_wordpool_less_exclusions.txt	LTP192	ltpFR	11	8	0	ZIPPER	1636	n/a	n/a	0	n/a	0	0	0	0.57763671875	0.412841796875	1	lower	zerothre.ttf
2234.614	n/a	START	1117307	n/a	LTP192	ltpFR	11	n/a	n/a	n/a	n/a	n/a	n/a	n/a	n/a	n/a	n/a	n/a	n/a	n/a	n/a	n/a	n/a
2235.662	n/a	PROB	1117831	n/a	LTP192	ltpFR	11	n/a	n/a	n/a	n/a	n/a	n/a	n/a	15	4	8	3	n/a	n/a	n/a	n/a	n/a
2237.492	n/a	PROB	1118746	n/a	LTP192	ltpFR	11	n/a	n/a	n/a	n/a	n/a	n/a	n/a	15	6	4	5	n/a	n/a	n/a	n/a	n/a
2238.756	n/a	PROB	1119378	n/a	LTP192	ltpFR	11	n/a	n/a	n/a	n/a	n/a	n/a	n/a	17	3	5	9	n/a	n/a	n/a	n/a	n/a
2240.304	n/a	PROB	1120152	n/a	LTP192	ltpFR	11	n/a	n/a	n/a	n/a	n/a	n/a	n/a	13	4	8	1	n/a	n/a	n/a	n/a	n/a
2241.768	n/a	PROB	1120884	n/a	LTP192	ltpFR	11	n/a	n/a	n/a	n/a	n/a	n/a	n/a	19	8	4	9	n/a	n/a	n/a	n/a	n/a
2244.466	n/a	PROB	1122233	n/a	LTP192	ltpFR	11	n/a	n/a	n/a	n/a	n/a	n/a	n/a	8	3	3	2	n/a	n/a	n/a	n/a	n/a
2246.994	n/a	PROB	1123497	n/a	LTP192	ltpFR	11	n/a	n/a	n/a	n/a	n/a	n/a	n/a	14	5	3	6	n/a	n/a	n/a	n/a	n/a
2248.758	n/a	PROB	1124379	n/a	LTP192	ltpFR	11	n/a	n/a	n/a	n/a	n/a	n/a	n/a	9	4	1	5	n/a	n/a	n/a	n/a	n/a
2249.808	n/a	STOP	1124904	n/a	LTP192	ltpFR	11	n/a	n/a	n/a	n/a	n/a	n/a	n/a	n/a	n/a	n/a	n/a	n/a	n/a	n/a	n/a	n/a
2251.804	n/a	WORD	1125902	wordpools/wasnorm_wordpool_less_exclusions.txt	LTP192	ltpFR	11	8	0	WINDSHIELD	1612	n/a	n/a	1	n/a	0	0	0	0.57763671875	0.412841796875	1	lower	zerothre.ttf
2254.816	n/a	START	1127408	n/a	LTP192	ltpFR	11	n/a	n/a	n/a	n/a	n/a	n/a	n/a	n/a	n/a	n/a	n/a	n/a	n/a	n/a	n/a	n/a
2255.682	n/a	PROB	1127841	n/a	LTP192	ltpFR	11	n/a	n/a	n/a	n/a	n/a	n/a	n/a	14	2	9	3	n/a	n/a	n/a	n/a	n/a
2257.096	n/a	PROB	1128548	n/a	LTP192	ltpFR	11	n/a	n/a	n/a	n/a	n/a	n/a	n/a	9	2	5	2	n/a	n/a	n/a	n/a	n/a
2258.958	n/a	PROB	1129479	n/a	LTP192	ltpFR	11	n/a	n/a	n/a	n/a	n/a	n/a	n/a	19	5	5	9	n/a	n/a	n/a	n/a	n/a
2260.074	n/a	PROB	1130037	n/a	LTP192	ltpFR	11	n/a	n/a	n/a	n/a	n/a	n/a	n/a	11	2	4	7	n/a	n/a	n/a	n/a	n/a
2261.804	n/a	PROB	1130902	n/a	LTP192	ltpFR	11	n/a	n/a	n/a	n/a	n/a	n/a	n/a	8	3	2	3	n/a	n/a	n/a	n/a	n/a
2263.188	n/a	PROB	1131594	n/a	LTP192	ltpFR	11	n/a	n/a	n/a	n/a	n/a	n/a	n/a	11	3	6	1	n/a	n/a	n/a	n/a	n/a
2264.652	n/a	PROB	1132326	n/a	LTP192	ltpFR	11	n/a	n/a	n/a	n/a	n/a	n/a	n/a	10	2	3	5	n/a	n/a	n/a	n/a	n/a
2267.082	n/a	PROB	1133541	n/a	LTP192	ltpFR	11	n/a	n/a	n/a	n/a	n/a	n/a	n/a	21	9	7	5	n/a	n/a	n/a	n/a	n/a
2269.322	n/a	STOP	1134661	n/a	LTP192	ltpFR	11	n/a	n/a	n/a	n/a	n/a	n/a	n/a	n/a	n/a	n/a	n/a	n/a	n/a	n/a	n/a	n/a
2271.74	n/a	WORD	1135870	wordpools/wasnorm_wordpool_less_exclusions.txt	LTP192	ltpFR	11	8	0	TOWN	1491	n/a	n/a	1	n/a	0	0	0	0.57763671875	0.412841796875	1	lower	zerothre.ttf
2274.752	n/a	START	1137376	n/a	LTP192	ltpFR	11	n/a	n/a	n/a	n/a	n/a	n/a	n/a	n/a	n/a	n/a	n/a	n/a	n/a	n/a	n/a	n/a
2275.834	n/a	PROB	1137917	n/a	LTP192	ltpFR	11	n/a	n/a	n/a	n/a	n/a	n/a	n/a	15	9	2	4	n/a	n/a	n/a	n/a	n/a
2277.182	n/a	PROB	1138591	n/a	LTP192	ltpFR	11	n/a	n/a	n/a	n/a	n/a	n/a	n/a	19	7	6	6	n/a	n/a	n/a	n/a	n/a
2278.648	n/a	PROB	1139324	n/a	LTP192	ltpFR	11	n/a	n/a	n/a	n/a	n/a	n/a	n/a	17	7	6	4	n/a	n/a	n/a	n/a	n/a
2280.194	n/a	PROB	1140097	n/a	LTP192	ltpFR	11	n/a	n/a	n/a	n/a	n/a	n/a	n/a	10	4	4	2	n/a	n/a	n/a	n/a	n/a
2281.724	n/a	PROB	1140862	n/a	LTP192	ltpFR	11	n/a	n/a	n/a	n/a	n/a	n/a	n/a	5	2	1	2	n/a	n/a	n/a	n/a	n/a
2282.756	n/a	PROB	1141378	n/a	LTP192	ltpFR	11	n/a	n/a	n/a	n/a	n/a	n/a	n/a	25	8	8	9	n/a	n/a	n/a	n/a	n/a
2285.188	n/a	PROB	1142594	n/a	LTP192	ltpFR	11	n/a	n/a	n/a	n/a	n/a	n/a	n/a	13	9	3	1	n/a	n/a	n/a	n/a	n/a
2286.436	n/a	PROB	1143218	n/a	LTP192	ltpFR	11	n/a	n/a	n/a	n/a	n/a	n/a	n/a	13	8	1	4	n/a	n/a	n/a	n/a	n/a
2288.382	n/a	PROB	1144191	n/a	LTP192	ltpFR	11	n/a	n/a	n/a	n/a	n/a	n/a	n/a	17	8	2	7	n/a	n/a	n/a	n/a	n/a
2290.09	n/a	STOP	1145045	n/a	LTP192	ltpFR	11	n/a	n/a	n/a	n/a	n/a	n/a	n/a	n/a	n/a	n/a	n/a	n/a	n/a	n/a	n/a	n/a
2292.676	n/a	REC_START	1146338	n/a	LTP192	ltpFR	11	8	n/a	n/a	n/a	n/a	n/a	n/a	n/a	0	0	0	n/a	n/a	n/a	n/a	n/a
2293.754	n/a	REC_WORD	1146877	wordpools/wasnorm_wordpool_less_exclusions.txt	LTP192	ltpFR	11	8	0	TOWN	1491	n/a	n/a	1	n/a	0	0	0	n/a	n/a	n/a	n/a	n/a
2296.808	n/a	REC_WORD	1148404	wordpools/wasnorm_wordpool_less_exclusions.txt	LTP192	ltpFR	11	8	0	CAR	241	n/a	n/a	1	n/a	0	0	0	n/a	n/a	n/a	n/a	n/a
2300.54	n/a	REC_WORD	1150270	wordpools/wasnorm_wordpool_less_exclusions.txt	LTP192	ltpFR	11	8	1	GLASS	639	n/a	n/a	0	n/a	0	0	0	n/a	n/a	n/a	n/a	n/a
2315.186	n/a	REC_WORD	1157593	wordpools/wasnorm_wordpool_less_exclusions.txt	LTP192	ltpFR	11	8	0	BIOLOGIST	128	n/a	n/a	1	n/a	0	0	0	n/a	n/a	n/a	n/a	n/a
2375.106	n/a	WORD	1187553	wordpools/wasnorm_wordpool_less_exclusions.txt	LTP192	ltpFR	11	9	0	BANJO	82	n/a	n/a	1	n/a	0	0	0	0.57763671875	0.412841796875	1	lower	zerothre.ttf
2378.998	n/a	WORD	1189499	wordpools/wasnorm_wordpool_less_exclusions.txt	LTP192	ltpFR	11	9	0	VIOLA	1570	n/a	n/a	1	n/a	0	0	0	0.57763671875	0.412841796875	1	lower	zerothre.ttf
2382.926	n/a	WORD	1191463	wordpools/wasnorm_wordpool_less_exclusions.txt	LTP192	ltpFR	11	9	0	FARM	552	n/a	n/a	1	n/a	0	0	0	0.57763671875	0.412841796875	1	lower	zerothre.ttf
2387.004	n/a	WORD	1193502	wordpools/wasnorm_wordpool_less_exclusions.txt	LTP192	ltpFR	11	9	0	DUST	508	n/a	n/a	0	n/a	0	0	0	0.57763671875	0.412841796875	1	lower	zerothre.ttf
2390.93	n/a	WORD	1195465	wordpools/wasnorm_wordpool_less_exclusions.txt	LTP192	ltpFR	11	9	0	NOTEBOOK	959	n/a	n/a	0	n/a	0	0	0	0.57763671875	0.412841796875	1	lower	zerothre.ttf
2394.858	n/a	WORD	1197429	wordpools/wasnorm_wordpool_less_exclusions.txt	LTP192	ltpFR	11	9	0	ROAD	1196	n/a	n/a	1	n/a	0	0	0	0.57763671875	0.412841796875	1	lower	zerothre.ttf
2399.036	n/a	WORD	1199518	wordpools/wasnorm_wordpool_less_exclusions.txt	LTP192	ltpFR	11	9	0	TURNIP	1521	n/a	n/a	0	n/a	0	0	0	0.57763671875	0.412841796875	1	lower	zerothre.ttf
2403.096	n/a	WORD	1201548	wordpools/wasnorm_wordpool_less_exclusions.txt	LTP192	ltpFR	11	9	0	DILL	465	n/a	n/a	0	n/a	0	0	0	0.57763671875	0.412841796875	1	lower	zerothre.ttf
2406.956	n/a	WORD	1203478	wordpools/wasnorm_wordpool_less_exclusions.txt	LTP192	ltpFR	11	9	0	DOG	480	n/a	n/a	1	n/a	0	0	0	0.57763671875	0.412841796875	1	lower	zerothre.ttf
2411.084	n/a	WORD	1205542	wordpools/wasnorm_wordpool_less_exclusions.txt	LTP192	ltpFR	11	9	0	BUFFALO	186	n/a	n/a	1	n/a	0	0	0	0.57763671875	0.412841796875	1	lower	zerothre.ttf
2414.912	n/a	WORD	1207456	wordpools/wasnorm_wordpool_less_exclusions.txt	LTP192	ltpFR	11	9	0	TUB	1514	n/a	n/a	1	n/a	0	0	0	0.57763671875	0.412841796875	1	lower	zerothre.ttf
2418.988	n/a	WORD	1209494	wordpools/wasnorm_wordpool_less_exclusions.txt	LTP192	ltpFR	11	9	0	TAR	1435	n/a	n/a	1	n/a	0	0	0	0.57763671875	0.412841796875	1	lower	zerothre.ttf
2422.95	n/a	WORD	1211475	wordpools/wasnorm_wordpool_less_exclusions.txt	LTP192	ltpFR	11	9	0	VEGETABLE	1552	n/a	n/a	0	n/a	0	0	0	0.57763671875	0.412841796875	1	lower	zerothre.ttf
2426.876	n/a	WORD	1213438	wordpools/wasnorm_wordpool_less_exclusions.txt	LTP192	ltpFR	11	9	0	PEBBLE	1035	n/a	n/a	0	n/a	0	0	0	0.57763671875	0.412841796875	1	lower	zerothre.ttf
2430.82	n/a	WORD	1215410	wordpools/wasnorm_wordpool_less_exclusions.txt	LTP192	ltpFR	11	9	0	QUILL	1150	n/a	n/a	0	n/a	0	0	0	0.57763671875	0.412841796875	1	lower	zerothre.ttf
2435.048	n/a	WORD	1217524	wordpools/wasnorm_wordpool_less_exclusions.txt	LTP192	ltpFR	11	9	0	HUMAN	726	n/a	n/a	1	n/a	0	0	0	0.57763671875	0.412841796875	1	lower	zerothre.ttf
2440.824	n/a	REC_START	1220412	n/a	LTP192	ltpFR	11	9	n/a	n/a	n/a	n/a	n/a	n/a	n/a	0	0	0	n/a	n/a	n/a	n/a	n/a
2441.366	n/a	REC_WORD	1220683	wordpools/wasnorm_wordpool_less_exclusions.txt	LTP192	ltpFR	11	9	0	QUILL	1150	n/a	n/a	0	n/a	0	0	0	n/a	n/a	n/a	n/a	n/a
2442.246	n/a	REC_WORD	1221123	wordpools/wasnorm_wordpool_less_exclusions.txt	LTP192	ltpFR	11	9	0	PEBBLE	1035	n/a	n/a	0	n/a	0	0	0	n/a	n/a	n/a	n/a	n/a
2443.064	n/a	REC_WORD	1221532	wordpools/wasnorm_wordpool_less_exclusions.txt	LTP192	ltpFR	11	9	0	NOTEBOOK	959	n/a	n/a	0	n/a	0	0	0	n/a	n/a	n/a	n/a	n/a
2443.908	n/a	REC_WORD	1221954	wordpools/wasnorm_wordpool_less_exclusions.txt	LTP192	ltpFR	11	9	0	DUST	508	n/a	n/a	0	n/a	0	0	0	n/a	n/a	n/a	n/a	n/a
2444.62	n/a	REC_WORD	1222310	wordpools/wasnorm_wordpool_less_exclusions.txt	LTP192	ltpFR	11	9	0	HUMAN	726	n/a	n/a	1	n/a	0	0	0	n/a	n/a	n/a	n/a	n/a
2449.076	n/a	REC_WORD	1224538	wordpools/wasnorm_wordpool_less_exclusions.txt	LTP192	ltpFR	11	9	0	FARM	552	n/a	n/a	1	n/a	0	0	0	n/a	n/a	n/a	n/a	n/a
2451.644	n/a	REC_WORD	1225822	wordpools/wasnorm_wordpool_less_exclusions.txt	LTP192	ltpFR	11	9	0	BUFFALO	186	n/a	n/a	1	n/a	0	0	0	n/a	n/a	n/a	n/a	n/a
2453.41	n/a	REC_WORD	1226705	wordpools/wasnorm_wordpool_less_exclusions.txt	LTP192	ltpFR	11	9	0	DOG	480	n/a	n/a	1	n/a	0	0	0	n/a	n/a	n/a	n/a	n/a
2536.55	n/a	WORD	1268275	wordpools/wasnorm_wordpool_less_exclusions.txt	LTP192	ltpFR	11	10	0	LAPEL	800	n/a	n/a	0	n/a	0	0	0	0.57763671875	0.412841796875	1	lower	zerothre.ttf
2540.708	n/a	WORD	1270354	wordpools/wasnorm_wordpool_less_exclusions.txt	LTP192	ltpFR	11	10	0	STEW	1380	n/a	n/a	0	n/a	0	0	0	0.57763671875	0.412841796875	1	lower	zerothre.ttf
2544.688	n/a	WORD	1272344	wordpools/wasnorm_wordpool_less_exclusions.txt	LTP192	ltpFR	11	10	1	BRIDE	173	n/a	n/a	1	n/a	0	0	0	0.422607421875	0.5869140625	0	upper	amplitud.ttf
2548.532	n/a	WORD	1274266	wordpools/wasnorm_wordpool_less_exclusions.txt	LTP192	ltpFR	11	10	1	LAGOON	795	n/a	n/a	0	n/a	0	0	0	0.422607421875	0.5869140625	0	upper	amplitud.ttf
2552.658	n/a	WORD	1276329	wordpools/wasnorm_wordpool_less_exclusions.txt	LTP192	ltpFR	11	10	0	SPRINKLE	1359	n/a	n/a	0	n/a	0	0	0	0.57763671875	0.412841796875	1	lower	zerothre.ttf
2556.586	n/a	WORD	1278293	wordpools/wasnorm_wordpool_less_exclusions.txt	LTP192	ltpFR	11	10	0	SCRIBBLE	1256	n/a	n/a	0	n/a	0	0	0	0.57763671875	0.412841796875	1	lower	zerothre.ttf
2560.464	n/a	WORD	1280232	wordpools/wasnorm_wordpool_less_exclusions.txt	LTP192	ltpFR	11	10	0	BATHTUB	100	n/a	n/a	1	n/a	0	0	0	0.57763671875	0.412841796875	1	lower	zerothre.ttf
2564.342	n/a	WORD	1282171	wordpools/wasnorm_wordpool_less_exclusions.txt	LTP192	ltpFR	11	10	0	BIRD	129	n/a	n/a	0	n/a	0	0	0	0.57763671875	0.412841796875	1	lower	zerothre.ttf
2568.186	n/a	WORD	1284093	wordpools/wasnorm_wordpool_less_exclusions.txt	LTP192	ltpFR	11	10	1	DISC	473	n/a	n/a	0	n/a	0	0	0	0.422607421875	0.5869140625	0	upper	amplitud.ttf
2572.062	n/a	WORD	1286031	wordpools/wasnorm_wordpool_less_exclusions.txt	LTP192	ltpFR	11	10	1	TECHNICIAN	1443	n/a	n/a	1	n/a	0	0	0	0.422607421875	0.5869140625	0	upper	amplitud.ttf
2575.906	n/a	WORD	1287953	wordpools/wasnorm_wordpool_less_exclusions.txt	LTP192	ltpFR	11	10	1	SWIMMER	1420	n/a	n/a	1	n/a	0	0	0	0.422607421875	0.5869140625	0	upper	amplitud.ttf
2579.9	n/a	WORD	1289950	wordpools/wasnorm_wordpool_less_exclusions.txt	LTP192	ltpFR	11	10	1	STREAM	1392	n/a	n/a	0	n/a	0	0	0	0.422607421875	0.5869140625	0	upper	amplitud.ttf
2583.844	n/a	WORD	1291922	wordpools/wasnorm_wordpool_less_exclusions.txt	LTP192	ltpFR	11	10	1	CORAL	378	n/a	n/a	1	n/a	0	0	0	0.422607421875	0.5869140625	0	upper	amplitud.ttf
2587.838	n/a	WORD	1293919	wordpools/wasnorm_wordpool_less_exclusions.txt	LTP192	ltpFR	11	10	1	WAVE	1596	n/a	n/a	0	n/a	0	0	0	0.422607421875	0.5869140625	0	upper	amplitud.ttf
2591.684	n/a	WORD	1295842	wordpools/wasnorm_wordpool_less_exclusions.txt	LTP192	ltpFR	11	10	0	STAPLE	1371	n/a	n/a	0	n/a	0	0	0	0.57763671875	0.412841796875	1	lower	zerothre.ttf
2595.528	n/a	WORD	1297764	wordpools/wasnorm_wordpool_less_exclusions.txt	LTP192	ltpFR	11	10	0	PENGUIN	1044	n/a	n/a	1	n/a	0	0	0	0.57763671875	0.412841796875	1	lower	zerothre.ttf
2598.542	n/a	START	1299271	n/a	LTP192	ltpFR	11	n/a	n/a	n/a	n/a	n/a	n/a	n/a	n/a	n/a	n/a	n/a	n/a	n/a	n/a	n/a	n/a
2599.706	n/a	PROB	1299853	n/a	LTP192	ltpFR	11	n/a	n/a	n/a	n/a	n/a	n/a	n/a	21	7	5	9	n/a	n/a	n/a	n/a	n/a
2603.218	n/a	PROB	1301609	n/a	LTP192	ltpFR	11	n/a	n/a	n/a	n/a	n/a	n/a	n/a	16	7	5	2	n/a	n/a	n/a	n/a	n/a
2606.54	n/a	STOP	1303270	n/a	LTP192	ltpFR	11	n/a	n/a	n/a	n/a	n/a	n/a	n/a	n/a	n/a	n/a	n/a	n/a	n/a	n/a	n/a	n/a
2608.41	n/a	REC_START	1304205	n/a	LTP192	ltpFR	11	10	n/a	n/a	n/a	n/a	n/a	n/a	n/a	0	0	0	n/a	n/a	n/a	n/a	n/a
2609.074	n/a	REC_WORD	1304537	wordpools/wasnorm_wordpool_less_exclusions.txt	LTP192	ltpFR	11	10	0	STAPLE	1371	n/a	n/a	0	n/a	0	0	0	n/a	n/a	n/a	n/a	n/a
2610.64	n/a	REC_WORD	1305320	wordpools/wasnorm_wordpool_less_exclusions.txt	LTP192	ltpFR	11	10	1	WAVE	1596	n/a	n/a	0	n/a	0	0	0	n/a	n/a	n/a	n/a	n/a
2615.116	n/a	REC_WORD	1307558	wordpools/wasnorm_wordpool_less_exclusions.txt	LTP192	ltpFR	11	10	0	PENGUIN	1044	n/a	n/a	1	n/a	0	0	0	n/a	n/a	n/a	n/a	n/a
2616.956	n/a	REC_WORD	1308478	wordpools/wasnorm_wordpool_less_exclusions.txt	LTP192	ltpFR	11	10	1	SWIMMER	1420	n/a	n/a	1	n/a	0	0	0	n/a	n/a	n/a	n/a	n/a
2618.008	n/a	REC_WORD	1309004	wordpools/wasnorm_wordpool_less_exclusions.txt	LTP192	ltpFR	11	10	0	BATHTUB	100	n/a	n/a	1	n/a	0	0	0	n/a	n/a	n/a	n/a	n/a
2638.756	n/a	REC_WORD	1319378	wordpools/wasnorm_wordpool_less_exclusions.txt	LTP192	ltpFR	11	10	1	CORAL	378	n/a	n/a	1	n/a	0	0	0	n/a	n/a	n/a	n/a	n/a
2640.652	n/a	REC_WORD	1320326	wordpools/wasnorm_wordpool_less_exclusions.txt	LTP192	ltpFR	11	10	1	DISC	473	n/a	n/a	0	n/a	0	0	0	n/a	n/a	n/a	n/a	n/a
2649.686	n/a	REC_WORD	1324843	wordpools/wasnorm_wordpool_less_exclusions.txt	LTP192	ltpFR	11	10	1	TECHNICIAN	1443	n/a	n/a	1	n/a	0	0	0	n/a	n/a	n/a	n/a	n/a
2670.25	n/a	REC_WORD	1335125	wordpools/wasnorm_wordpool_less_exclusions.txt	LTP192	ltpFR	11	10	0	SPRINKLE	1359	n/a	n/a	0	n/a	0	0	0	n/a	n/a	n/a	n/a	n/a
2673.948	n/a	REC_WORD	1336974	wordpools/wasnorm_wordpool_less_exclusions.txt	LTP192	ltpFR	11	10	0	SCRIBBLE	1256	n/a	n/a	0	n/a	0	0	0	n/a	n/a	n/a	n/a	n/a
2684.014	n/a	REST_REWET	1342007	n/a	LTP192	ltpFR	11	10	n/a	n/a	n/a	n/a	n/a	n/a	n/a	0	0	0	n/a	n/a	n/a	n/a	n/a
3017.77	n/a	START	1508885	n/a	LTP192	ltpFR	11	n/a	n/a	n/a	n/a	n/a	n/a	n/a	n/a	n/a	n/a	n/a	n/a	n/a	n/a	n/a	n/a
3019.284	n/a	PROB	1509642	n/a	LTP192	ltpFR	11	n/a	n/a	n/a	n/a	n/a	n/a	n/a	18	6	6	6	n/a	n/a	n/a	n/a	n/a
3022.828	n/a	PROB	1511414	n/a	LTP192	ltpFR	11	n/a	n/a	n/a	n/a	n/a	n/a	n/a	12	3	6	3	n/a	n/a	n/a	n/a	n/a
3024.42	n/a	STOP	1512210	n/a	LTP192	ltpFR	11	n/a	n/a	n/a	n/a	n/a	n/a	n/a	n/a	n/a	n/a	n/a	n/a	n/a	n/a	n/a	n/a
3026.69	n/a	WORD	1513345	wordpools/wasnorm_wordpool_less_exclusions.txt	LTP192	ltpFR	11	11	1	MAGICIAN	854	n/a	n/a	1	n/a	0	0	0	0.422607421875	0.5869140625	0	upper	amplitud.ttf
3029.702	n/a	START	1514851	n/a	LTP192	ltpFR	11	n/a	n/a	n/a	n/a	n/a	n/a	n/a	n/a	n/a	n/a	n/a	n/a	n/a	n/a	n/a	n/a
3030.568	n/a	PROB	1515284	n/a	LTP192	ltpFR	11	n/a	n/a	n/a	n/a	n/a	n/a	n/a	21	7	9	5	n/a	n/a	n/a	n/a	n/a
3032.83	n/a	PROB	1516415	n/a	LTP192	ltpFR	11	n/a	n/a	n/a	n/a	n/a	n/a	n/a	17	8	2	7	n/a	n/a	n/a	n/a	n/a
3034.296	n/a	PROB	1517148	n/a	LTP192	ltpFR	11	n/a	n/a	n/a	n/a	n/a	n/a	n/a	21	7	9	5	n/a	n/a	n/a	n/a	n/a
3037.204	n/a	STOP	1518602	n/a	LTP192	ltpFR	11	n/a	n/a	n/a	n/a	n/a	n/a	n/a	n/a	n/a	n/a	n/a	n/a	n/a	n/a	n/a	n/a
3038.722	n/a	WORD	1519361	wordpools/wasnorm_wordpool_less_exclusions.txt	LTP192	ltpFR	11	11	1	HARE	688	n/a	n/a	1	n/a	0	0	0	0.422607421875	0.5869140625	0	upper	amplitud.ttf
3041.734	n/a	START	1520867	n/a	LTP192	ltpFR	11	n/a	n/a	n/a	n/a	n/a	n/a	n/a	n/a	n/a	n/a	n/a	n/a	n/a	n/a	n/a	n/a
3042.65	n/a	PROB	1521325	n/a	LTP192	ltpFR	11	n/a	n/a	n/a	n/a	n/a	n/a	n/a	24	7	8	7	n/a	n/a	n/a	n/a	n/a
3044.598	n/a	PROB	1522299	n/a	LTP192	ltpFR	11	n/a	n/a	n/a	n/a	n/a	n/a	n/a	16	5	2	9	n/a	n/a	n/a	n/a	n/a
3046.96	n/a	PROB	1523480	n/a	LTP192	ltpFR	11	n/a	n/a	n/a	n/a	n/a	n/a	n/a	14	3	4	7	n/a	n/a	n/a	n/a	n/a
3048.572	n/a	STOP	1524286	n/a	LTP192	ltpFR	11	n/a	n/a	n/a	n/a	n/a	n/a	n/a	n/a	n/a	n/a	n/a	n/a	n/a	n/a	n/a	n/a
3050.77	n/a	WORD	1525385	wordpools/wasnorm_wordpool_less_exclusions.txt	LTP192	ltpFR	11	11	1	WHEEL	1603	n/a	n/a	0	n/a	0	0	0	0.422607421875	0.5869140625	0	upper	amplitud.ttf
3053.784	n/a	START	1526892	n/a	LTP192	ltpFR	11	n/a	n/a	n/a	n/a	n/a	n/a	n/a	n/a	n/a	n/a	n/a	n/a	n/a	n/a	n/a	n/a
3054.982	n/a	PROB	1527491	n/a	LTP192	ltpFR	11	n/a	n/a	n/a	n/a	n/a	n/a	n/a	11	3	2	6	n/a	n/a	n/a	n/a	n/a
3056.114	n/a	PROB	1528057	n/a	LTP192	ltpFR	11	n/a	n/a	n/a	n/a	n/a	n/a	n/a	16	9	4	3	n/a	n/a	n/a	n/a	n/a
3058.71	n/a	PROB	1529355	n/a	LTP192	ltpFR	11	n/a	n/a	n/a	n/a	n/a	n/a	n/a	17	5	9	3	n/a	n/a	n/a	n/a	n/a
3060.324	n/a	STOP	1530162	n/a	LTP192	ltpFR	11	n/a	n/a	n/a	n/a	n/a	n/a	n/a	n/a	n/a	n/a	n/a	n/a	n/a	n/a	n/a	n/a
3062.87	n/a	WORD	1531435	wordpools/wasnorm_wordpool_less_exclusions.txt	LTP192	ltpFR	11	11	1	LOOP	844	n/a	n/a	0	n/a	0	0	0	0.422607421875	0.5869140625	0	upper	amplitud.ttf
3065.882	n/a	START	1532941	n/a	LTP192	ltpFR	11	n/a	n/a	n/a	n/a	n/a	n/a	n/a	n/a	n/a	n/a	n/a	n/a	n/a	n/a	n/a	n/a
3066.714	n/a	PROB	1533357	n/a	LTP192	ltpFR	11	n/a	n/a	n/a	n/a	n/a	n/a	n/a	18	5	9	4	n/a	n/a	n/a	n/a	n/a
3068.91	n/a	PROB	1534455	n/a	LTP192	ltpFR	11	n/a	n/a	n/a	n/a	n/a	n/a	n/a	23	9	5	9	n/a	n/a	n/a	n/a	n/a
3072.436	n/a	STOP	1536218	n/a	LTP192	ltpFR	11	n/a	n/a	n/a	n/a	n/a	n/a	n/a	n/a	n/a	n/a	n/a	n/a	n/a	n/a	n/a	n/a
3074.734	n/a	WORD	1537367	wordpools/wasnorm_wordpool_less_exclusions.txt	LTP192	ltpFR	11	11	0	PEDESTRIAN	1038	n/a	n/a	1	n/a	0	0	0	0.57763671875	0.412841796875	1	lower	zerothre.ttf
3077.748	n/a	START	1538874	n/a	LTP192	ltpFR	11	n/a	n/a	n/a	n/a	n/a	n/a	n/a	n/a	n/a	n/a	n/a	n/a	n/a	n/a	n/a	n/a
3078.696	n/a	PROB	1539348	n/a	LTP192	ltpFR	11	n/a	n/a	n/a	n/a	n/a	n/a	n/a	21	8	8	5	n/a	n/a	n/a	n/a	n/a
