onset	duration	trial_type	sample	stim_file	subject	experiment	session	trial	item_name	item_num	list	answer	test_x	test_y	test_z
229.102	n/a	SESS_START	114551	n/a	LTP299	ltpFR2	5	n/a	n/a	n/a	n/a	n/a	0	0	0
243.098	n/a	START	121549	n/a	LTP299	ltpFR2	5	n/a	n/a	n/a	-1	n/a	n/a	n/a	n/a
243.112	n/a	PROB	121556	n/a	LTP299	ltpFR2	5	n/a	n/a	n/a	-1	19	4	9	6
245.832	n/a	PROB	122916	n/a	LTP299	ltpFR2	5	n/a	n/a	n/a	-1	11	3	4	4
248.382	n/a	PROB	124191	n/a	LTP299	ltpFR2	5	n/a	n/a	n/a	-1	15	3	9	3
250.852	n/a	PROB	125426	n/a	LTP299	ltpFR2	5	n/a	n/a	n/a	-1	19	8	3	8
253.056	n/a	PROB	126528	n/a	LTP299	ltpFR2	5	n/a	n/a	n/a	-1	6	1	1	4
254.224	n/a	STOP	127112	n/a	LTP299	ltpFR2	5	n/a	n/a	n/a	-1	n/a	n/a	n/a	n/a
293.452	n/a	WORD	146726	wordpools/wasnorm_wordpool_576.txt	LTP299	ltpFR2	5	1	OUTDOORS	987	n/a	n/a	0	0	0
295.888	n/a	WORD	147944	wordpools/wasnorm_wordpool_576.txt	LTP299	ltpFR2	5	1	COMPASS	358	n/a	n/a	0	0	0
298.39	n/a	WORD	149195	wordpools/wasnorm_wordpool_576.txt	LTP299	ltpFR2	5	1	LOVER	846	n/a	n/a	0	0	0
301.042	n/a	WORD	150521	wordpools/wasnorm_wordpool_576.txt	LTP299	ltpFR2	5	1	PLAYGROUND	1087	n/a	n/a	0	0	0
303.814	n/a	WORD	151907	wordpools/wasnorm_wordpool_576.txt	LTP299	ltpFR2	5	1	SWORD	1423	n/a	n/a	0	0	0
306.484	n/a	WORD	153242	wordpools/wasnorm_wordpool_576.txt	LTP299	ltpFR2	5	1	BURGLAR	200	n/a	n/a	0	0	0
309.182	n/a	WORD	154591	wordpools/wasnorm_wordpool_576.txt	LTP299	ltpFR2	5	1	DONOR	485	n/a	n/a	0	0	0
311.882	n/a	WORD	155941	wordpools/wasnorm_wordpool_576.txt	LTP299	ltpFR2	5	1	SHORTCAKE	1292	n/a	n/a	0	0	0
314.536	n/a	WORD	157268	wordpools/wasnorm_wordpool_576.txt	LTP299	ltpFR2	5	1	PARENT	1013	n/a	n/a	0	0	0
317.076	n/a	WORD	158538	wordpools/wasnorm_wordpool_576.txt	LTP299	ltpFR2	5	1	ROCKET	1202	n/a	n/a	0	0	0
319.606	n/a	WORD	159803	wordpools/wasnorm_wordpool_576.txt	LTP299	ltpFR2	5	1	MATTRESS	879	n/a	n/a	0	0	0
322.208	n/a	WORD	161104	wordpools/wasnorm_wordpool_576.txt	LTP299	ltpFR2	5	1	GRILL	661	n/a	n/a	0	0	0
324.96	n/a	WORD	162480	wordpools/wasnorm_wordpool_576.txt	LTP299	ltpFR2	5	1	PICNIC	1060	n/a	n/a	0	0	0
327.48	n/a	WORD	163740	wordpools/wasnorm_wordpool_576.txt	LTP299	ltpFR2	5	1	SALAD	1224	n/a	n/a	0	0	0
329.914	n/a	WORD	164957	wordpools/wasnorm_wordpool_576.txt	LTP299	ltpFR2	5	1	LEOPARD	812	n/a	n/a	0	0	0
332.482	n/a	WORD	166241	wordpools/wasnorm_wordpool_576.txt	LTP299	ltpFR2	5	1	PANTHER	1009	n/a	n/a	0	0	0
335.274	n/a	WORD	167637	wordpools/wasnorm_wordpool_576.txt	LTP299	ltpFR2	5	1	SLIDE	1326	n/a	n/a	0	0	0
337.97	n/a	WORD	168985	wordpools/wasnorm_wordpool_576.txt	LTP299	ltpFR2	5	1	SUNRISE	1407	n/a	n/a	0	0	0
340.73	n/a	WORD	170365	wordpools/wasnorm_wordpool_576.txt	LTP299	ltpFR2	5	1	CONVICT	371	n/a	n/a	0	0	0
343.36	n/a	WORD	171680	wordpools/wasnorm_wordpool_576.txt	LTP299	ltpFR2	5	1	CAPTIVE	240	n/a	n/a	0	0	0
345.792	n/a	WORD	172896	wordpools/wasnorm_wordpool_576.txt	LTP299	ltpFR2	5	1	MISSILE	900	n/a	n/a	0	0	0
348.346	n/a	WORD	174173	wordpools/wasnorm_wordpool_576.txt	LTP299	ltpFR2	5	1	SISTER	1312	n/a	n/a	0	0	0
351.064	n/a	WORD	175532	wordpools/wasnorm_wordpool_576.txt	LTP299	ltpFR2	5	1	APPLE	33	n/a	n/a	0	0	0
353.706	n/a	WORD	176853	wordpools/wasnorm_wordpool_576.txt	LTP299	ltpFR2	5	1	TILE	1468	n/a	n/a	0	0	0
355.318	n/a	START	177659	n/a	LTP299	ltpFR2	5	n/a	n/a	n/a	1	n/a	n/a	n/a	n/a
356.452	n/a	DISTRACTOR	178226	n/a	LTP299	ltpFR2	5	1	n/a	n/a	n/a	n/a	0	0	0
356.46	n/a	PROB	178230	n/a	LTP299	ltpFR2	5	n/a	n/a	n/a	1	15	5	5	5
357.95	n/a	PROB	178975	n/a	LTP299	ltpFR2	5	n/a	n/a	n/a	1	13	7	2	4
360.57	n/a	PROB	180285	n/a	LTP299	ltpFR2	5	n/a	n/a	n/a	1	15	4	6	5
362.324	n/a	PROB	181162	n/a	LTP299	ltpFR2	5	n/a	n/a	n/a	1	11	2	2	7
363.972	n/a	PROB	181986	n/a	LTP299	ltpFR2	5	n/a	n/a	n/a	1	18	4	8	6
365.974	n/a	PROB	182987	n/a	LTP299	ltpFR2	5	n/a	n/a	n/a	1	8	1	4	3
369.276	n/a	PROB	184638	n/a	LTP299	ltpFR2	5	n/a	n/a	n/a	1	14	6	2	6
371.28	n/a	PROB	185640	n/a	LTP299	ltpFR2	5	n/a	n/a	n/a	1	17	2	6	9
373.464	n/a	PROB	186732	n/a	LTP299	ltpFR2	5	n/a	n/a	n/a	1	21	8	5	8
375.798	n/a	PROB	187899	n/a	LTP299	ltpFR2	5	n/a	n/a	n/a	1	13	4	3	6
378.25	n/a	STOP	189125	n/a	LTP299	ltpFR2	5	n/a	n/a	n/a	1	n/a	n/a	n/a	n/a
381.206	n/a	REC_START	190603	n/a	LTP299	ltpFR2	5	1	n/a	n/a	n/a	n/a	0	0	0
383.304	n/a	REC_WORD	191652	wordpools/wasnorm_wordpool_576.txt	LTP299	ltpFR2	5	1	TILE	1468	n/a	n/a	0	0	0
384.61	n/a	REC_WORD	192305	wordpools/wasnorm_wordpool_576.txt	LTP299	ltpFR2	5	1	APPLE	33	n/a	n/a	0	0	0
385.856	n/a	REC_WORD	192928	wordpools/wasnorm_wordpool_576.txt	LTP299	ltpFR2	5	1	SISTER	1312	n/a	n/a	0	0	0
389.268	n/a	REC_WORD	194634	wordpools/wasnorm_wordpool_576.txt	LTP299	ltpFR2	5	1	OUTDOORS	987	n/a	n/a	0	0	0
393.354	n/a	REC_WORD	196677	wordpools/wasnorm_wordpool_576.txt	LTP299	ltpFR2	5	1	LOVER	846	n/a	n/a	0	0	0
402.45	n/a	REC_WORD	201225	wordpools/wasnorm_wordpool_576.txt	LTP299	ltpFR2	5	1	ROCKET	1202	n/a	n/a	0	0	0
403.744	n/a	REC_WORD	201872	wordpools/wasnorm_wordpool_576.txt	LTP299	ltpFR2	5	1	MISSILE	900	n/a	n/a	0	0	0
405.756	n/a	REC_WORD	202878	wordpools/wasnorm_wordpool_576.txt	LTP299	ltpFR2	5	1	SWORD	1423	n/a	n/a	0	0	0
407.102	n/a	REC_WORD	203551	wordpools/wasnorm_wordpool_576.txt	LTP299	ltpFR2	5	1	PLAYGROUND	1087	n/a	n/a	0	0	0
408.396	n/a	REC_WORD	204198	wordpools/wasnorm_wordpool_576.txt	LTP299	ltpFR2	5	1	BURGLAR	200	n/a	n/a	0	0	0
410.836	n/a	REC_WORD	205418	wordpools/wasnorm_wordpool_576.txt	LTP299	ltpFR2	5	1	SHORTCAKE	1292	n/a	n/a	0	0	0
412.636	n/a	REC_WORD	206318	wordpools/wasnorm_wordpool_576.txt	LTP299	ltpFR2	5	1	DONOR	485	n/a	n/a	0	0	0
414.758	n/a	REC_WORD	207379	wordpools/wasnorm_wordpool_576.txt	LTP299	ltpFR2	5	1	PARENT	1013	n/a	n/a	0	0	0
424.086	n/a	REC_WORD	212043	wordpools/wasnorm_wordpool_576.txt	LTP299	ltpFR2	5	1	COMPASS	358	n/a	n/a	0	0	0
434.35	n/a	REC_WORD	217175	wordpools/wasnorm_wordpool_576.txt	LTP299	ltpFR2	5	1	PANTHER	1009	n/a	n/a	0	0	0
435.204	n/a	REC_WORD	217602	wordpools/wasnorm_wordpool_576.txt	LTP299	ltpFR2	5	1	LEOPARD	812	n/a	n/a	0	0	0
471.658	n/a	DISTRACTOR	235829	n/a	LTP299	ltpFR2	5	2	n/a	n/a	n/a	n/a	0	0	0
471.658	n/a	START	235829	n/a	LTP299	ltpFR2	5	n/a	n/a	n/a	2	n/a	n/a	n/a	n/a
471.674	n/a	PROB	235837	n/a	LTP299	ltpFR2	5	n/a	n/a	n/a	2	15	6	8	1
473.694	n/a	PROB	236847	n/a	LTP299	ltpFR2	5	n/a	n/a	n/a	2	13	2	5	6
475.678	n/a	PROB	237839	n/a	LTP299	ltpFR2	5	n/a	n/a	n/a	2	5	3	1	1
476.776	n/a	PROB	238388	n/a	LTP299	ltpFR2	5	n/a	n/a	n/a	2	20	9	8	3
479.312	n/a	PROB	239656	n/a	LTP299	ltpFR2	5	n/a	n/a	n/a	2	9	2	3	4
481.182	n/a	PROB	240591	n/a	LTP299	ltpFR2	5	n/a	n/a	n/a	2	19	8	2	9
483.2	n/a	PROB	241600	n/a	LTP299	ltpFR2	5	n/a	n/a	n/a	2	14	7	4	3
484.916	n/a	PROB	242458	n/a	LTP299	ltpFR2	5	n/a	n/a	n/a	2	8	3	4	1
486.436	n/a	PROB	243218	n/a	LTP299	ltpFR2	5	n/a	n/a	n/a	2	15	7	4	4
489.022	n/a	PROB	244511	n/a	LTP299	ltpFR2	5	n/a	n/a	n/a	2	14	8	5	1
492.59	n/a	PROB	246295	n/a	LTP299	ltpFR2	5	n/a	n/a	n/a	2	13	9	2	2
494.516	n/a	STOP	247258	n/a	LTP299	ltpFR2	5	n/a	n/a	n/a	2	n/a	n/a	n/a	n/a
496.794	n/a	WORD	248397	wordpools/wasnorm_wordpool_576.txt	LTP299	ltpFR2	5	2	CHIPMUNK	304	n/a	n/a	0	0	0
499.53	n/a	WORD	249765	wordpools/wasnorm_wordpool_576.txt	LTP299	ltpFR2	5	2	RATTLE	1170	n/a	n/a	0	0	0
502.266	n/a	WORD	251133	wordpools/wasnorm_wordpool_576.txt	LTP299	ltpFR2	5	2	EMPIRE	530	n/a	n/a	0	0	0
505.002	n/a	WORD	252501	wordpools/wasnorm_wordpool_576.txt	LTP299	ltpFR2	5	2	PORK	1108	n/a	n/a	0	0	0
507.672	n/a	WORD	253836	wordpools/wasnorm_wordpool_576.txt	LTP299	ltpFR2	5	2	CABIN	211	n/a	n/a	0	0	0
510.172	n/a	WORD	255086	wordpools/wasnorm_wordpool_576.txt	LTP299	ltpFR2	5	2	VELVET	1555	n/a	n/a	0	0	0
512.658	n/a	WORD	256329	wordpools/wasnorm_wordpool_576.txt	LTP299	ltpFR2	5	2	ULCER	1533	n/a	n/a	0	0	0
515.426	n/a	WORD	257713	wordpools/wasnorm_wordpool_576.txt	LTP299	ltpFR2	5	2	FOX	598	n/a	n/a	0	0	0
517.996	n/a	WORD	258998	wordpools/wasnorm_wordpool_576.txt	LTP299	ltpFR2	5	2	OFFICE	972	n/a	n/a	0	0	0
520.532	n/a	WORD	260266	wordpools/wasnorm_wordpool_576.txt	LTP299	ltpFR2	5	2	WORKER	1621	n/a	n/a	0	0	0
523.152	n/a	WORD	261576	wordpools/wasnorm_wordpool_576.txt	LTP299	ltpFR2	5	2	PREACHER	1119	n/a	n/a	0	0	0
525.9	n/a	WORD	262950	wordpools/wasnorm_wordpool_576.txt	LTP299	ltpFR2	5	2	COIN	343	n/a	n/a	0	0	0
528.386	n/a	WORD	264193	wordpools/wasnorm_wordpool_576.txt	LTP299	ltpFR2	5	2	SKIRT	1319	n/a	n/a	0	0	0
531.122	n/a	WORD	265561	wordpools/wasnorm_wordpool_576.txt	LTP299	ltpFR2	5	2	BEAVER	109	n/a	n/a	0	0	0
533.722	n/a	WORD	266861	wordpools/wasnorm_wordpool_576.txt	LTP299	ltpFR2	5	2	CRIB	407	n/a	n/a	0	0	0
536.326	n/a	WORD	268163	wordpools/wasnorm_wordpool_576.txt	LTP299	ltpFR2	5	2	RAFT	1159	n/a	n/a	0	0	0
538.792	n/a	WORD	269396	wordpools/wasnorm_wordpool_576.txt	LTP299	ltpFR2	5	2	SWAMP	1416	n/a	n/a	0	0	0
541.3	n/a	WORD	270650	wordpools/wasnorm_wordpool_576.txt	LTP299	ltpFR2	5	2	BANK	83	n/a	n/a	0	0	0
543.832	n/a	WORD	271916	wordpools/wasnorm_wordpool_576.txt	LTP299	ltpFR2	5	2	SILK	1307	n/a	n/a	0	0	0
546.538	n/a	WORD	273269	wordpools/wasnorm_wordpool_576.txt	LTP299	ltpFR2	5	2	BUGGY	188	n/a	n/a	0	0	0
549.252	n/a	WORD	274626	wordpools/wasnorm_wordpool_576.txt	LTP299	ltpFR2	5	2	CARRIAGE	248	n/a	n/a	0	0	0
551.92	n/a	WORD	275960	wordpools/wasnorm_wordpool_576.txt	LTP299	ltpFR2	5	2	OX	994	n/a	n/a	0	0	0
554.588	n/a	WORD	277294	wordpools/wasnorm_wordpool_576.txt	LTP299	ltpFR2	5	2	SUMMIT	1405	n/a	n/a	0	0	0
557.008	n/a	WORD	278504	wordpools/wasnorm_wordpool_576.txt	LTP299	ltpFR2	5	2	HIKER	708	n/a	n/a	0	0	0
558.616	n/a	START	279308	n/a	LTP299	ltpFR2	5	n/a	n/a	n/a	3	n/a	n/a	n/a	n/a
559.504	n/a	DISTRACTOR	279752	n/a	LTP299	ltpFR2	5	2	n/a	n/a	n/a	n/a	0	0	0
559.51	n/a	PROB	279755	n/a	LTP299	ltpFR2	5	n/a	n/a	n/a	3	11	4	6	1
561.126	n/a	PROB	280563	n/a	LTP299	ltpFR2	5	n/a	n/a	n/a	3	11	1	7	3
562.746	n/a	PROB	281373	n/a	LTP299	ltpFR2	5	n/a	n/a	n/a	3	13	9	2	2
564.362	n/a	PROB	282181	n/a	LTP299	ltpFR2	5	n/a	n/a	n/a	3	16	4	3	9
567.648	n/a	PROB	283824	n/a	LTP299	ltpFR2	5	n/a	n/a	n/a	3	17	7	6	4
570.084	n/a	PROB	285042	n/a	LTP299	ltpFR2	5	n/a	n/a	n/a	3	15	4	2	9
571.684	n/a	PROB	285842	n/a	LTP299	ltpFR2	5	n/a	n/a	n/a	3	19	8	3	8
574.27	n/a	PROB	287135	n/a	LTP299	ltpFR2	5	n/a	n/a	n/a	3	19	9	9	1
575.954	n/a	PROB	287977	n/a	LTP299	ltpFR2	5	n/a	n/a	n/a	3	14	7	5	2
578.024	n/a	PROB	289012	n/a	LTP299	ltpFR2	5	n/a	n/a	n/a	3	11	7	3	1
579.908	n/a	PROB	289954	n/a	LTP299	ltpFR2	5	n/a	n/a	n/a	3	12	7	4	1
582.036	n/a	STOP	291018	n/a	LTP299	ltpFR2	5	n/a	n/a	n/a	3	n/a	n/a	n/a	n/a
584.546	n/a	REC_START	292273	n/a	LTP299	ltpFR2	5	2	n/a	n/a	n/a	n/a	0	0	0
587.598	n/a	REC_WORD	293799	wordpools/wasnorm_wordpool_576.txt	LTP299	ltpFR2	5	2	CHIPMUNK	304	n/a	n/a	0	0	0
590.902	n/a	REC_WORD	295451	wordpools/wasnorm_wordpool_576.txt	LTP299	ltpFR2	5	2	BUGGY	188	n/a	n/a	0	0	0
592.102	n/a	REC_WORD	296051	wordpools/wasnorm_wordpool_576.txt	LTP299	ltpFR2	5	2	CARRIAGE	248	n/a	n/a	0	0	0
593.306	n/a	REC_WORD	296653	wordpools/wasnorm_wordpool_576.txt	LTP299	ltpFR2	5	2	OX	994	n/a	n/a	0	0	0
602.438	n/a	REC_WORD	301219	wordpools/wasnorm_wordpool_576.txt	LTP299	ltpFR2	5	2	CABIN	211	n/a	n/a	0	0	0
603.74	n/a	REC_WORD	301870	wordpools/wasnorm_wordpool_576.txt	LTP299	ltpFR2	5	2	EMPIRE	530	n/a	n/a	0	0	0
605.772	n/a	REC_WORD	302886	wordpools/wasnorm_wordpool_576.txt	LTP299	ltpFR2	5	2	PORK	1108	n/a	n/a	0	0	0
609.634	n/a	REC_WORD	304817	wordpools/wasnorm_wordpool_576.txt	LTP299	ltpFR2	5	2	SUMMIT	1405	n/a	n/a	0	0	0
610.778	n/a	REC_WORD	305389	wordpools/wasnorm_wordpool_576.txt	LTP299	ltpFR2	5	2	HIKER	708	n/a	n/a	0	0	0
617.018	n/a	REC_WORD	308509	wordpools/wasnorm_wordpool_576.txt	LTP299	ltpFR2	5	2	FOX	598	n/a	n/a	0	0	0
618.638	n/a	REC_WORD	309319	wordpools/wasnorm_wordpool_576.txt	LTP299	ltpFR2	5	2	ULCER	1533	n/a	n/a	0	0	0
619.876	n/a	REC_WORD	309938	wordpools/wasnorm_wordpool_576.txt	LTP299	ltpFR2	5	2	VELVET	1555	n/a	n/a	0	0	0
621.05	n/a	REC_WORD	310525	wordpools/wasnorm_wordpool_576.txt	LTP299	ltpFR2	5	2	SILK	1307	n/a	n/a	0	0	0
628.638	n/a	REC_WORD	314319	wordpools/wasnorm_wordpool_576.txt	LTP299	ltpFR2	5	2	RAFT	1159	n/a	n/a	0	0	0
629.64	n/a	REC_WORD	314820	wordpools/wasnorm_wordpool_576.txt	LTP299	ltpFR2	5	2	SWAMP	1416	n/a	n/a	0	0	0
630.736	n/a	REC_WORD	315368	wordpools/wasnorm_wordpool_576.txt	LTP299	ltpFR2	5	2	CRIB	407	n/a	n/a	0	0	0
674.996	n/a	WORD	337498	wordpools/wasnorm_wordpool_576.txt	LTP299	ltpFR2	5	3	PROTON	1132	n/a	n/a	0	0	0
677.748	n/a	WORD	338874	wordpools/wasnorm_wordpool_576.txt	LTP299	ltpFR2	5	3	GLOBE	641	n/a	n/a	0	0	0
680.402	n/a	WORD	340201	wordpools/wasnorm_wordpool_576.txt	LTP299	ltpFR2	5	3	MILK	895	n/a	n/a	0	0	0
683.054	n/a	WORD	341527	wordpools/wasnorm_wordpool_576.txt	LTP299	ltpFR2	5	3	PACKAGE	997	n/a	n/a	0	0	0
685.674	n/a	WORD	342837	wordpools/wasnorm_wordpool_576.txt	LTP299	ltpFR2	5	3	LETTUCE	814	n/a	n/a	0	0	0
688.108	n/a	WORD	344054	wordpools/wasnorm_wordpool_576.txt	LTP299	ltpFR2	5	3	LABEL	790	n/a	n/a	0	0	0
690.744	n/a	WORD	345372	wordpools/wasnorm_wordpool_576.txt	LTP299	ltpFR2	5	3	GALLON	618	n/a	n/a	0	0	0
693.396	n/a	WORD	346698	wordpools/wasnorm_wordpool_576.txt	LTP299	ltpFR2	5	3	PENGUIN	1044	n/a	n/a	0	0	0
696.166	n/a	WORD	348083	wordpools/wasnorm_wordpool_576.txt	LTP299	ltpFR2	5	3	POSSUM	1112	n/a	n/a	0	0	0
698.848	n/a	WORD	349424	wordpools/wasnorm_wordpool_576.txt	LTP299	ltpFR2	5	3	NIGHTGOWN	953	n/a	n/a	0	0	0
701.47	n/a	WORD	350735	wordpools/wasnorm_wordpool_576.txt	LTP299	ltpFR2	5	3	COD	340	n/a	n/a	0	0	0
704.154	n/a	WORD	352077	wordpools/wasnorm_wordpool_576.txt	LTP299	ltpFR2	5	3	SCALLOP	1242	n/a	n/a	0	0	0
706.59	n/a	WORD	353295	wordpools/wasnorm_wordpool_576.txt	LTP299	ltpFR2	5	3	VALVE	1546	n/a	n/a	0	0	0
709.026	n/a	WORD	354513	wordpools/wasnorm_wordpool_576.txt	LTP299	ltpFR2	5	3	MOTOR	922	n/a	n/a	0	0	0
711.744	n/a	WORD	355872	wordpools/wasnorm_wordpool_576.txt	LTP299	ltpFR2	5	3	MOTEL	919	n/a	n/a	0	0	0
714.33	n/a	WORD	357165	wordpools/wasnorm_wordpool_576.txt	LTP299	ltpFR2	5	3	CAFE	216	n/a	n/a	0	0	0
716.982	n/a	WORD	358491	wordpools/wasnorm_wordpool_576.txt	LTP299	ltpFR2	5	3	MAILBOX	857	n/a	n/a	0	0	0
719.568	n/a	WORD	359784	wordpools/wasnorm_wordpool_576.txt	LTP299	ltpFR2	5	3	NOVEL	960	n/a	n/a	0	0	0
722.188	n/a	WORD	361094	wordpools/wasnorm_wordpool_576.txt	LTP299	ltpFR2	5	3	COBRA	336	n/a	n/a	0	0	0
724.772	n/a	WORD	362386	wordpools/wasnorm_wordpool_576.txt	LTP299	ltpFR2	5	3	SHELF	1280	n/a	n/a	0	0	0
727.208	n/a	WORD	363604	wordpools/wasnorm_wordpool_576.txt	LTP299	ltpFR2	5	3	CHILD	299	n/a	n/a	0	0	0
729.842	n/a	WORD	364921	wordpools/wasnorm_wordpool_576.txt	LTP299	ltpFR2	5	3	OINTMENT	974	n/a	n/a	0	0	0
732.28	n/a	WORD	366140	wordpools/wasnorm_wordpool_576.txt	LTP299	ltpFR2	5	3	NURSE	963	n/a	n/a	0	0	0
735.048	n/a	WORD	367524	wordpools/wasnorm_wordpool_576.txt	LTP299	ltpFR2	5	3	DINER	467	n/a	n/a	0	0	0
736.664	n/a	START	368332	n/a	LTP299	ltpFR2	5	n/a	n/a	n/a	4	n/a	n/a	n/a	n/a
737.636	n/a	DISTRACTOR	368818	n/a	LTP299	ltpFR2	5	3	n/a	n/a	n/a	n/a	0	0	0
737.648	n/a	PROB	368824	n/a	LTP299	ltpFR2	5	n/a	n/a	n/a	4	12	3	5	4
739.916	n/a	PROB	369958	n/a	LTP299	ltpFR2	5	n/a	n/a	n/a	4	24	9	6	9
742.47	n/a	PROB	371235	n/a	LTP299	ltpFR2	5	n/a	n/a	n/a	4	19	9	1	9
743.986	n/a	PROB	371993	n/a	LTP299	ltpFR2	5	n/a	n/a	n/a	4	6	2	1	3
745.356	n/a	PROB	372678	n/a	LTP299	ltpFR2	5	n/a	n/a	n/a	4	20	6	8	6
747.638	n/a	PROB	373819	n/a	LTP299	ltpFR2	5	n/a	n/a	n/a	4	15	8	2	5
749.174	n/a	PROB	374587	n/a	LTP299	ltpFR2	5	n/a	n/a	n/a	4	16	4	6	6
751.176	n/a	PROB	375588	n/a	LTP299	ltpFR2	5	n/a	n/a	n/a	4	7	2	3	2
753.512	n/a	PROB	376756	n/a	LTP299	ltpFR2	5	n/a	n/a	n/a	4	21	7	7	7
754.928	n/a	PROB	377464	n/a	LTP299	ltpFR2	5	n/a	n/a	n/a	4	15	3	4	8
760.664	n/a	STOP	380332	n/a	LTP299	ltpFR2	5	n/a	n/a	n/a	4	n/a	n/a	n/a	n/a
762.484	n/a	REC_START	381242	n/a	LTP299	ltpFR2	5	3	n/a	n/a	n/a	n/a	0	0	0
763.544	n/a	REC_WORD	381772	wordpools/wasnorm_wordpool_576.txt	LTP299	ltpFR2	5	3	PROTON	1132	n/a	n/a	0	0	0
765.082	n/a	REC_WORD	382541	wordpools/wasnorm_wordpool_576.txt	LTP299	ltpFR2	5	3	GLOBE	641	n/a	n/a	0	0	0
770.42	n/a	REC_WORD	385210	wordpools/wasnorm_wordpool_576.txt	LTP299	ltpFR2	5	3	OINTMENT	974	n/a	n/a	0	0	0
771.964	n/a	REC_WORD	385982	wordpools/wasnorm_wordpool_576.txt	LTP299	ltpFR2	5	3	MAILBOX	857	n/a	n/a	0	0	0
773.418	n/a	REC_WORD	386709	wordpools/wasnorm_wordpool_576.txt	LTP299	ltpFR2	5	3	PACKAGE	997	n/a	n/a	0	0	0
779.034	n/a	REC_WORD	389517	wordpools/wasnorm_wordpool_576.txt	LTP299	ltpFR2	5	3	COD	340	n/a	n/a	0	0	0
780.286	n/a	REC_WORD	390143	wordpools/wasnorm_wordpool_576.txt	LTP299	ltpFR2	5	3	SCALLOP	1242	n/a	n/a	0	0	0
827.386	n/a	REC_WORD	413693	wordpools/wasnorm_wordpool_576.txt	LTP299	ltpFR2	5	3	COBRA	336	n/a	n/a	0	0	0
852.92	n/a	WORD	426460	wordpools/wasnorm_wordpool_576.txt	LTP299	ltpFR2	5	4	PERFUME	1049	n/a	n/a	0	0	0
855.716	n/a	WORD	427858	wordpools/wasnorm_wordpool_576.txt	LTP299	ltpFR2	5	4	EUROPE	541	n/a	n/a	0	0	0
858.344	n/a	WORD	429172	wordpools/wasnorm_wordpool_576.txt	LTP299	ltpFR2	5	4	CRAYON	401	n/a	n/a	0	0	0
860.878	n/a	WORD	430439	wordpools/wasnorm_wordpool_576.txt	LTP299	ltpFR2	5	4	FLESH	579	n/a	n/a	0	0	0
863.54	n/a	WORD	431770	wordpools/wasnorm_wordpool_576.txt	LTP299	ltpFR2	5	4	CELLAR	267	n/a	n/a	0	0	0
866.076	n/a	WORD	433038	wordpools/wasnorm_wordpool_576.txt	LTP299	ltpFR2	5	4	CATTLE	261	n/a	n/a	0	0	0
868.662	n/a	WORD	434331	wordpools/wasnorm_wordpool_576.txt	LTP299	ltpFR2	5	4	BEAKER	104	n/a	n/a	0	0	0
871.38	n/a	WORD	435690	wordpools/wasnorm_wordpool_576.txt	LTP299	ltpFR2	5	4	BREAST	171	n/a	n/a	0	0	0
873.998	n/a	WORD	436999	wordpools/wasnorm_wordpool_576.txt	LTP299	ltpFR2	5	4	CANYON	235	n/a	n/a	0	0	0
876.534	n/a	WORD	438267	wordpools/wasnorm_wordpool_576.txt	LTP299	ltpFR2	5	4	CLIMBER	323	n/a	n/a	0	0	0
879.026	n/a	WORD	439513	wordpools/wasnorm_wordpool_576.txt	LTP299	ltpFR2	5	4	LIPSTICK	829	n/a	n/a	0	0	0
881.654	n/a	WORD	440827	wordpools/wasnorm_wordpool_576.txt	LTP299	ltpFR2	5	4	COCOON	339	n/a	n/a	0	0	0
884.174	n/a	WORD	442087	wordpools/wasnorm_wordpool_576.txt	LTP299	ltpFR2	5	4	DORM	488	n/a	n/a	0	0	0
886.81	n/a	WORD	443405	wordpools/wasnorm_wordpool_576.txt	LTP299	ltpFR2	5	4	CONTRACT	368	n/a	n/a	0	0	0
889.496	n/a	WORD	444748	wordpools/wasnorm_wordpool_576.txt	LTP299	ltpFR2	5	4	SHIRT	1287	n/a	n/a	0	0	0
892.07	n/a	WORD	446035	wordpools/wasnorm_wordpool_576.txt	LTP299	ltpFR2	5	4	CAMEL	223	n/a	n/a	0	0	0
894.866	n/a	WORD	447433	wordpools/wasnorm_wordpool_576.txt	LTP299	ltpFR2	5	4	CHEMIST	292	n/a	n/a	0	0	0
897.49	n/a	WORD	448745	wordpools/wasnorm_wordpool_576.txt	LTP299	ltpFR2	5	4	WORLD	1622	n/a	n/a	0	0	0
899.938	n/a	WORD	449969	wordpools/wasnorm_wordpool_576.txt	LTP299	ltpFR2	5	4	COOKBOOK	373	n/a	n/a	0	0	0
902.474	n/a	WORD	451237	wordpools/wasnorm_wordpool_576.txt	LTP299	ltpFR2	5	4	WAITRESS	1581	n/a	n/a	0	0	0
905.176	n/a	WORD	452588	wordpools/wasnorm_wordpool_576.txt	LTP299	ltpFR2	5	4	COOK	372	n/a	n/a	0	0	0
907.912	n/a	WORD	453956	wordpools/wasnorm_wordpool_576.txt	LTP299	ltpFR2	5	4	PISTON	1076	n/a	n/a	0	0	0
910.53	n/a	WORD	455265	wordpools/wasnorm_wordpool_576.txt	LTP299	ltpFR2	5	4	PEPPER	1047	n/a	n/a	0	0	0
913.066	n/a	WORD	456533	wordpools/wasnorm_wordpool_576.txt	LTP299	ltpFR2	5	4	CRICKET	408	n/a	n/a	0	0	0
914.684	n/a	START	457342	n/a	LTP299	ltpFR2	5	n/a	n/a	n/a	5	n/a	n/a	n/a	n/a
915.516	n/a	DISTRACTOR	457758	n/a	LTP299	ltpFR2	5	4	n/a	n/a	n/a	n/a	0	0	0
915.522	n/a	PROB	457761	n/a	LTP299	ltpFR2	5	n/a	n/a	n/a	5	16	7	3	6
917.736	n/a	PROB	458868	n/a	LTP299	ltpFR2	5	n/a	n/a	n/a	5	15	3	7	5
919.156	n/a	PROB	459578	n/a	LTP299	ltpFR2	5	n/a	n/a	n/a	5	8	2	3	3
921.156	n/a	PROB	460578	n/a	LTP299	ltpFR2	5	n/a	n/a	n/a	5	16	1	7	8
922.806	n/a	PROB	461403	n/a	LTP299	ltpFR2	5	n/a	n/a	n/a	5	14	1	5	8
925.044	n/a	PROB	462522	n/a	LTP299	ltpFR2	5	n/a	n/a	n/a	5	7	2	1	4
926.824	n/a	PROB	463412	n/a	LTP299	ltpFR2	5	n/a	n/a	n/a	5	8	1	5	2
929.228	n/a	PROB	464614	n/a	LTP299	ltpFR2	5	n/a	n/a	n/a	5	6	2	2	2
930.314	n/a	PROB	465157	n/a	LTP299	ltpFR2	5	n/a	n/a	n/a	5	16	7	4	5
932.464	n/a	PROB	466232	n/a	LTP299	ltpFR2	5	n/a	n/a	n/a	5	14	8	3	3
938.586	n/a	STOP	469293	n/a	LTP299	ltpFR2	5	n/a	n/a	n/a	5	n/a	n/a	n/a	n/a
940.524	n/a	REC_START	470262	n/a	LTP299	ltpFR2	5	4	n/a	n/a	n/a	n/a	0	0	0
941.568	n/a	REC_WORD	470784	wordpools/wasnorm_wordpool_576.txt	LTP299	ltpFR2	5	4	WORLD	1622	n/a	n/a	0	0	0
942.934	n/a	REC_WORD	471467	wordpools/wasnorm_wordpool_576.txt	LTP299	ltpFR2	5	4	COOKBOOK	373	n/a	n/a	0	0	0
944.266	n/a	REC_WORD	472133	wordpools/wasnorm_wordpool_576.txt	LTP299	ltpFR2	5	4	COOK	372	n/a	n/a	0	0	0
945.508	n/a	REC_WORD	472754	wordpools/wasnorm_wordpool_576.txt	LTP299	ltpFR2	5	4	PISTON	1076	n/a	n/a	0	0	0
946.924	n/a	REC_WORD	473462	wordpools/wasnorm_wordpool_576.txt	LTP299	ltpFR2	5	4	PEPPER	1047	n/a	n/a	0	0	0
950.362	n/a	REC_WORD	475181	wordpools/wasnorm_wordpool_576.txt	LTP299	ltpFR2	5	4	FLESH	579	n/a	n/a	0	0	0
951.858	n/a	REC_WORD	475929	wordpools/wasnorm_wordpool_576.txt	LTP299	ltpFR2	5	4	CATTLE	261	n/a	n/a	0	0	0
954.004	n/a	REC_WORD	477002	wordpools/wasnorm_wordpool_576.txt	LTP299	ltpFR2	5	4	EUROPE	541	n/a	n/a	0	0	0
955.322	n/a	REC_WORD	477661	wordpools/wasnorm_wordpool_576.txt	LTP299	ltpFR2	5	4	PERFUME	1049	n/a	n/a	0	0	0
956.836	n/a	REC_WORD	478418	wordpools/wasnorm_wordpool_576.txt	LTP299	ltpFR2	5	4	CELLAR	267	n/a	n/a	0	0	0
985.952	n/a	REC_WORD	492976	wordpools/wasnorm_wordpool_576.txt	LTP299	ltpFR2	5	4	CANYON	235	n/a	n/a	0	0	0
987.156	n/a	REC_WORD	493578	wordpools/wasnorm_wordpool_576.txt	LTP299	ltpFR2	5	4	CRAYON	401	n/a	n/a	0	0	0
988.318	n/a	REC_WORD	494159	wordpools/wasnorm_wordpool_576.txt	LTP299	ltpFR2	5	4	CLIMBER	323	n/a	n/a	0	0	0
991.298	n/a	REC_WORD	495649	wordpools/wasnorm_wordpool_576.txt	LTP299	ltpFR2	5	4	BEAKER	104	n/a	n/a	0	0	0
992.322	n/a	REC_WORD	496161	wordpools/wasnorm_wordpool_576.txt	LTP299	ltpFR2	5	4	CHEMIST	292	n/a	n/a	0	0	0
1030.962	n/a	DISTRACTOR	515481	n/a	LTP299	ltpFR2	5	5	n/a	n/a	n/a	n/a	0	0	0
1030.962	n/a	START	515481	n/a	LTP299	ltpFR2	5	n/a	n/a	n/a	6	n/a	n/a	n/a	n/a
1030.976	n/a	PROB	515488	n/a	LTP299	ltpFR2	5	n/a	n/a	n/a	6	12	3	4	5
1034.678	n/a	PROB	517339	n/a	LTP299	ltpFR2	5	n/a	n/a	n/a	6	14	4	2	8
1036.814	n/a	PROB	518407	n/a	LTP299	ltpFR2	5	n/a	n/a	n/a	6	21	5	9	7
1041.618	n/a	PROB	520809	n/a	LTP299	ltpFR2	5	n/a	n/a	n/a	6	9	3	1	5
1043.286	n/a	PROB	521643	n/a	LTP299	ltpFR2	5	n/a	n/a	n/a	6	14	4	8	2
1045.122	n/a	PROB	522561	n/a	LTP299	ltpFR2	5	n/a	n/a	n/a	6	9	6	1	2
1047.706	n/a	PROB	523853	n/a	LTP299	ltpFR2	5	n/a	n/a	n/a	6	9	1	6	3
1049.592	n/a	PROB	524796	n/a	LTP299	ltpFR2	5	n/a	n/a	n/a	6	19	6	9	4
1052.31	n/a	PROB	526155	n/a	LTP299	ltpFR2	5	n/a	n/a	n/a	6	19	9	4	6
1054.244	n/a	STOP	527122	n/a	LTP299	ltpFR2	5	n/a	n/a	n/a	6	n/a	n/a	n/a	n/a
1055.78	n/a	WORD	527890	wordpools/wasnorm_wordpool_576.txt	LTP299	ltpFR2	5	5	AUTHOR	61	n/a	n/a	0	0	0
1058.588	n/a	WORD	529294	wordpools/wasnorm_wordpool_576.txt	LTP299	ltpFR2	5	5	WIDOW	1608	n/a	n/a	0	0	0
1061.292	n/a	WORD	530646	wordpools/wasnorm_wordpool_576.txt	LTP299	ltpFR2	5	5	ITEM	746	n/a	n/a	0	0	0
1063.97	n/a	WORD	531985	wordpools/wasnorm_wordpool_576.txt	LTP299	ltpFR2	5	5	MUMMY	932	n/a	n/a	0	0	0
1066.606	n/a	WORD	533303	wordpools/wasnorm_wordpool_576.txt	LTP299	ltpFR2	5	5	TEMPLE	1448	n/a	n/a	0	0	0
1069.342	n/a	WORD	534671	wordpools/wasnorm_wordpool_576.txt	LTP299	ltpFR2	5	5	FLEET	578	n/a	n/a	0	0	0
1072.05	n/a	WORD	536025	wordpools/wasnorm_wordpool_576.txt	LTP299	ltpFR2	5	5	ONION	977	n/a	n/a	0	0	0
1074.528	n/a	WORD	537264	wordpools/wasnorm_wordpool_576.txt	LTP299	ltpFR2	5	5	VIRUS	1572	n/a	n/a	0	0	0
1077.014	n/a	WORD	538507	wordpools/wasnorm_wordpool_576.txt	LTP299	ltpFR2	5	5	ANKLE	24	n/a	n/a	0	0	0
1079.706	n/a	WORD	539853	wordpools/wasnorm_wordpool_576.txt	LTP299	ltpFR2	5	5	HEDGE	699	n/a	n/a	0	0	0
1082.452	n/a	WORD	541226	wordpools/wasnorm_wordpool_576.txt	LTP299	ltpFR2	5	5	RACKET	1155	n/a	n/a	0	0	0
1084.902	n/a	WORD	542451	wordpools/wasnorm_wordpool_576.txt	LTP299	ltpFR2	5	5	DIVER	476	n/a	n/a	0	0	0
1087.548	n/a	WORD	543774	wordpools/wasnorm_wordpool_576.txt	LTP299	ltpFR2	5	5	MARS	873	n/a	n/a	0	0	0
1090.216	n/a	WORD	545108	wordpools/wasnorm_wordpool_576.txt	LTP299	ltpFR2	5	5	VENUS	1557	n/a	n/a	0	0	0
1092.892	n/a	WORD	546446	wordpools/wasnorm_wordpool_576.txt	LTP299	ltpFR2	5	5	FLIPPER	580	n/a	n/a	0	0	0
1095.654	n/a	WORD	547827	wordpools/wasnorm_wordpool_576.txt	LTP299	ltpFR2	5	5	ROBOT	1200	n/a	n/a	0	0	0
1098.34	n/a	WORD	549170	wordpools/wasnorm_wordpool_576.txt	LTP299	ltpFR2	5	5	LONDON	843	n/a	n/a	0	0	0
1101.008	n/a	WORD	550504	wordpools/wasnorm_wordpool_576.txt	LTP299	ltpFR2	5	5	SMOG	1330	n/a	n/a	0	0	0
1103.826	n/a	WORD	551913	wordpools/wasnorm_wordpool_576.txt	LTP299	ltpFR2	5	5	COLONEL	348	n/a	n/a	0	0	0
1106.536	n/a	WORD	553268	wordpools/wasnorm_wordpool_576.txt	LTP299	ltpFR2	5	5	POISON	1096	n/a	n/a	0	0	0
1109.114	n/a	WORD	554557	wordpools/wasnorm_wordpool_576.txt	LTP299	ltpFR2	5	5	GREASE	660	n/a	n/a	0	0	0
1111.816	n/a	WORD	555908	wordpools/wasnorm_wordpool_576.txt	LTP299	ltpFR2	5	5	SOFTBALL	1343	n/a	n/a	0	0	0
1114.62	n/a	WORD	557310	wordpools/wasnorm_wordpool_576.txt	LTP299	ltpFR2	5	5	BABY	64	n/a	n/a	0	0	0
1117.312	n/a	WORD	558656	wordpools/wasnorm_wordpool_576.txt	LTP299	ltpFR2	5	5	FOREST	593	n/a	n/a	0	0	0
1118.924	n/a	START	559462	n/a	LTP299	ltpFR2	5	n/a	n/a	n/a	7	n/a	n/a	n/a	n/a
1119.732	n/a	DISTRACTOR	559866	n/a	LTP299	ltpFR2	5	5	n/a	n/a	n/a	n/a	0	0	0
1119.74	n/a	PROB	559870	n/a	LTP299	ltpFR2	5	n/a	n/a	n/a	7	16	5	6	5
1121.564	n/a	PROB	560782	n/a	LTP299	ltpFR2	5	n/a	n/a	n/a	7	20	6	8	6
1123.898	n/a	PROB	561949	n/a	LTP299	ltpFR2	5	n/a	n/a	n/a	7	18	8	1	9
1125.384	n/a	PROB	562692	n/a	LTP299	ltpFR2	5	n/a	n/a	n/a	7	15	4	3	8
1127.886	n/a	PROB	563943	n/a	LTP299	ltpFR2	5	n/a	n/a	n/a	7	21	8	5	8
1129.77	n/a	PROB	564885	n/a	LTP299	ltpFR2	5	n/a	n/a	n/a	7	21	3	9	8
1132.806	n/a	PROB	566403	n/a	LTP299	ltpFR2	5	n/a	n/a	n/a	7	20	7	4	9
1135.376	n/a	PROB	567688	n/a	LTP299	ltpFR2	5	n/a	n/a	n/a	7	17	4	9	4
1137.412	n/a	PROB	568706	n/a	LTP299	ltpFR2	5	n/a	n/a	n/a	7	13	1	5	7
1139.296	n/a	PROB	569648	n/a	LTP299	ltpFR2	5	n/a	n/a	n/a	7	24	9	9	6
1141.606	n/a	STOP	570803	n/a	LTP299	ltpFR2	5	n/a	n/a	n/a	7	n/a	n/a	n/a	n/a
1144.8	n/a	REC_START	572400	n/a	LTP299	ltpFR2	5	5	n/a	n/a	n/a	n/a	0	0	0
1145.83	n/a	REC_WORD	572915	wordpools/wasnorm_wordpool_576.txt	LTP299	ltpFR2	5	5	BABY	64	n/a	n/a	0	0	0
1146.84	n/a	REC_WORD	573420	wordpools/wasnorm_wordpool_576.txt	LTP299	ltpFR2	5	5	FOREST	593	n/a	n/a	0	0	0
1148.254	n/a	REC_WORD	574127	wordpools/wasnorm_wordpool_576.txt	LTP299	ltpFR2	5	5	SMOG	1330	n/a	n/a	0	0	0
1149.632	n/a	REC_WORD	574816	wordpools/wasnorm_wordpool_576.txt	LTP299	ltpFR2	5	5	LONDON	843	n/a	n/a	0	0	0
1155.128	n/a	REC_WORD	577564	wordpools/wasnorm_wordpool_576.txt	LTP299	ltpFR2	5	5	WIDOW	1608	n/a	n/a	0	0	0
1161.466	n/a	REC_WORD	580733	wordpools/wasnorm_wordpool_576.txt	LTP299	ltpFR2	5	5	AUTHOR	61	n/a	n/a	0	0	0
1162.96	n/a	REC_WORD	581480	wordpools/wasnorm_wordpool_576.txt	LTP299	ltpFR2	5	5	ITEM	746	n/a	n/a	0	0	0
1164.452	n/a	REC_WORD	582226	wordpools/wasnorm_wordpool_576.txt	LTP299	ltpFR2	5	5	MUMMY	932	n/a	n/a	0	0	0
1166.012	n/a	REC_WORD	583006	wordpools/wasnorm_wordpool_576.txt	LTP299	ltpFR2	5	5	TEMPLE	1448	n/a	n/a	0	0	0
1167.508	n/a	REC_WORD	583754	wordpools/wasnorm_wordpool_576.txt	LTP299	ltpFR2	5	5	RACKET	1155	n/a	n/a	0	0	0
1173.826	n/a	REC_WORD	586913	wordpools/wasnorm_wordpool_576.txt	LTP299	ltpFR2	5	5	DIVER	476	n/a	n/a	0	0	0
1174.826	n/a	REC_WORD	587413	wordpools/wasnorm_wordpool_576.txt	LTP299	ltpFR2	5	5	FLIPPER	580	n/a	n/a	0	0	0
1175.998	n/a	REC_WORD	587999	wordpools/wasnorm_wordpool_576.txt	LTP299	ltpFR2	5	5	MARS	873	n/a	n/a	0	0	0
1177.028	n/a	REC_WORD	588514	wordpools/wasnorm_wordpool_576.txt	LTP299	ltpFR2	5	5	VENUS	1557	n/a	n/a	0	0	0
1235.254	n/a	DISTRACTOR	617627	n/a	LTP299	ltpFR2	5	6	n/a	n/a	n/a	n/a	0	0	0
1235.254	n/a	START	617627	n/a	LTP299	ltpFR2	5	n/a	n/a	n/a	8	n/a	n/a	n/a	n/a
1235.268	n/a	PROB	617634	n/a	LTP299	ltpFR2	5	n/a	n/a	n/a	8	23	6	8	9
1241.39	n/a	PROB	620695	n/a	LTP299	ltpFR2	5	n/a	n/a	n/a	8	19	7	5	7
1243.042	n/a	PROB	621521	n/a	LTP299	ltpFR2	5	n/a	n/a	n/a	8	19	8	9	2
1244.86	n/a	PROB	622430	n/a	LTP299	ltpFR2	5	n/a	n/a	n/a	8	20	5	6	9
1247.028	n/a	PROB	623514	n/a	LTP299	ltpFR2	5	n/a	n/a	n/a	8	16	2	8	6
1248.664	n/a	PROB	624332	n/a	LTP299	ltpFR2	5	n/a	n/a	n/a	8	11	6	1	4
1250.464	n/a	PROB	625232	n/a	LTP299	ltpFR2	5	n/a	n/a	n/a	8	17	6	4	7
1254.202	n/a	PROB	627101	n/a	LTP299	ltpFR2	5	n/a	n/a	n/a	8	20	9	2	9
1259.254	n/a	STOP	629627	n/a	LTP299	ltpFR2	5	n/a	n/a	n/a	8	n/a	n/a	n/a	n/a
1260.376	n/a	WORD	630188	wordpools/wasnorm_wordpool_576.txt	LTP299	ltpFR2	5	6	RELISH	1183	n/a	n/a	0	0	0
1262.978	n/a	WORD	631489	wordpools/wasnorm_wordpool_576.txt	LTP299	ltpFR2	5	6	FIREMAN	569	n/a	n/a	0	0	0
1265.744	n/a	WORD	632872	wordpools/wasnorm_wordpool_576.txt	LTP299	ltpFR2	5	6	SERVER	1272	n/a	n/a	0	0	0
1268.43	n/a	WORD	634215	wordpools/wasnorm_wordpool_576.txt	LTP299	ltpFR2	5	6	BANQUET	86	n/a	n/a	0	0	0
1271.198	n/a	WORD	635599	wordpools/wasnorm_wordpool_576.txt	LTP299	ltpFR2	5	6	WINDOW	1611	n/a	n/a	0	0	0
1273.888	n/a	WORD	636944	wordpools/wasnorm_wordpool_576.txt	LTP299	ltpFR2	5	6	PECAN	1036	n/a	n/a	0	0	0
1276.474	n/a	WORD	638237	wordpools/wasnorm_wordpool_576.txt	LTP299	ltpFR2	5	6	SKETCH	1315	n/a	n/a	0	0	0
1279.022	n/a	WORD	639511	wordpools/wasnorm_wordpool_576.txt	LTP299	ltpFR2	5	6	SPHINX	1349	n/a	n/a	0	0	0
1281.79	n/a	WORD	640895	wordpools/wasnorm_wordpool_576.txt	LTP299	ltpFR2	5	6	HORSE	719	n/a	n/a	0	0	0
1284.432	n/a	WORD	642216	wordpools/wasnorm_wordpool_576.txt	LTP299	ltpFR2	5	6	SNACK	1331	n/a	n/a	0	0	0
1287.144	n/a	WORD	643572	wordpools/wasnorm_wordpool_576.txt	LTP299	ltpFR2	5	6	RECEIPT	1173	n/a	n/a	0	0	0
1289.578	n/a	WORD	644789	wordpools/wasnorm_wordpool_576.txt	LTP299	ltpFR2	5	6	STUDENT	1395	n/a	n/a	0	0	0
1292.364	n/a	WORD	646182	wordpools/wasnorm_wordpool_576.txt	LTP299	ltpFR2	5	6	HIGHWAY	707	n/a	n/a	0	0	0
1295.074	n/a	WORD	647537	wordpools/wasnorm_wordpool_576.txt	LTP299	ltpFR2	5	6	SIDEWALK	1303	n/a	n/a	0	0	0
1297.668	n/a	WORD	648834	wordpools/wasnorm_wordpool_576.txt	LTP299	ltpFR2	5	6	TABLE	1426	n/a	n/a	0	0	0
1300.194	n/a	WORD	650097	wordpools/wasnorm_wordpool_576.txt	LTP299	ltpFR2	5	6	SHOVEL	1295	n/a	n/a	0	0	0
1302.912	n/a	WORD	651456	wordpools/wasnorm_wordpool_576.txt	LTP299	ltpFR2	5	6	FINGER	567	n/a	n/a	0	0	0
1305.442	n/a	WORD	652721	wordpools/wasnorm_wordpool_576.txt	LTP299	ltpFR2	5	6	STATUE	1374	n/a	n/a	0	0	0
1308.102	n/a	WORD	654051	wordpools/wasnorm_wordpool_576.txt	LTP299	ltpFR2	5	6	STONE	1385	n/a	n/a	0	0	0
1310.652	n/a	WORD	655326	wordpools/wasnorm_wordpool_576.txt	LTP299	ltpFR2	5	6	CORAL	378	n/a	n/a	0	0	0
1313.4	n/a	WORD	656700	wordpools/wasnorm_wordpool_576.txt	LTP299	ltpFR2	5	6	SCULPTURE	1258	n/a	n/a	0	0	0
1316.034	n/a	WORD	658017	wordpools/wasnorm_wordpool_576.txt	LTP299	ltpFR2	5	6	DRAWING	494	n/a	n/a	0	0	0
1318.52	n/a	WORD	659260	wordpools/wasnorm_wordpool_576.txt	LTP299	ltpFR2	5	6	HANDBAG	684	n/a	n/a	0	0	0
1321.162	n/a	WORD	660581	wordpools/wasnorm_wordpool_576.txt	LTP299	ltpFR2	5	6	MUSTARD	935	n/a	n/a	0	0	0
1322.772	n/a	START	661386	n/a	LTP299	ltpFR2	5	n/a	n/a	n/a	9	n/a	n/a	n/a	n/a
1323.708	n/a	DISTRACTOR	661854	n/a	LTP299	ltpFR2	5	6	n/a	n/a	n/a	n/a	0	0	0
1323.714	n/a	PROB	661857	n/a	LTP299	ltpFR2	5	n/a	n/a	n/a	9	17	3	8	6
1327.324	n/a	PROB	663662	n/a	LTP299	ltpFR2	5	n/a	n/a	n/a	9	17	4	4	9
1329.71	n/a	PROB	664855	n/a	LTP299	ltpFR2	5	n/a	n/a	n/a	9	14	3	3	8
1331.826	n/a	PROB	665913	n/a	LTP299	ltpFR2	5	n/a	n/a	n/a	9	10	8	1	1
1333.062	n/a	PROB	666531	n/a	LTP299	ltpFR2	5	n/a	n/a	n/a	9	18	6	5	7
1336.082	n/a	PROB	668041	n/a	LTP299	ltpFR2	5	n/a	n/a	n/a	9	18	5	6	7
1337.698	n/a	PROB	668849	n/a	LTP299	ltpFR2	5	n/a	n/a	n/a	9	15	5	4	6
1340.036	n/a	PROB	670018	n/a	LTP299	ltpFR2	5	n/a	n/a	n/a	9	16	8	5	3
1343.954	n/a	PROB	671977	n/a	LTP299	ltpFR2	5	n/a	n/a	n/a	9	9	6	1	2
1345.314	n/a	STOP	672657	n/a	LTP299	ltpFR2	5	n/a	n/a	n/a	9	n/a	n/a	n/a	n/a
1348.708	n/a	REC_START	674354	n/a	LTP299	ltpFR2	5	6	n/a	n/a	n/a	n/a	0	0	0
1350.248	n/a	REC_WORD	675124	wordpools/wasnorm_wordpool_576.txt	LTP299	ltpFR2	5	6	HANDBAG	684	n/a	n/a	0	0	0
1351.634	n/a	REC_WORD	675817	wordpools/wasnorm_wordpool_576.txt	LTP299	ltpFR2	5	6	CORAL	378	n/a	n/a	0	0	0
1353.064	n/a	REC_WORD	676532	wordpools/wasnorm_wordpool_576.txt	LTP299	ltpFR2	5	6	SCULPTURE	1258	n/a	n/a	0	0	0
1356.138	n/a	REC_WORD	678069	wordpools/wasnorm_wordpool_576.txt	LTP299	ltpFR2	5	6	STONE	1385	n/a	n/a	0	0	0
1357.48	n/a	REC_WORD	678740	wordpools/wasnorm_wordpool_576.txt	LTP299	ltpFR2	5	6	STATUE	1374	n/a	n/a	0	0	0
1358.802	n/a	REC_WORD	679401	wordpools/wasnorm_wordpool_576.txt	LTP299	ltpFR2	5	6	DRAWING	494	n/a	n/a	0	0	0
1362.112	n/a	REC_WORD	681056	wordpools/wasnorm_wordpool_576.txt	LTP299	ltpFR2	5	6	FIREMAN	569	n/a	n/a	0	0	0
1364.39	n/a	REC_WORD	682195	wordpools/wasnorm_wordpool_576.txt	LTP299	ltpFR2	5	6	RELISH	1183	n/a	n/a	0	0	0
1365.958	n/a	REC_WORD	682979	wordpools/wasnorm_wordpool_576.txt	LTP299	ltpFR2	5	6	BANQUET	86	n/a	n/a	0	0	0
1367.322	n/a	REC_WORD	683661	wordpools/wasnorm_wordpool_576.txt	LTP299	ltpFR2	5	6	SERVER	1272	n/a	n/a	0	0	0
1368.896	n/a	REC_WORD	684448	wordpools/wasnorm_wordpool_576.txt	LTP299	ltpFR2	5	6	RECEIPT	1173	n/a	n/a	0	0	0
1374.562	n/a	REC_WORD	687281	wordpools/wasnorm_wordpool_576.txt	LTP299	ltpFR2	5	6	MUSTARD	935	n/a	n/a	0	0	0
1376.858	n/a	REC_WORD	688429	wordpools/wasnorm_wordpool_576.txt	LTP299	ltpFR2	5	6	SHOVEL	1295	n/a	n/a	0	0	0
1378.318	n/a	REC_WORD	689159	wordpools/wasnorm_wordpool_576.txt	LTP299	ltpFR2	5	6	FINGER	567	n/a	n/a	0	0	0
1387.32	n/a	REC_WORD	693660	wordpools/wasnorm_wordpool_576.txt	LTP299	ltpFR2	5	6	WINDOW	1611	n/a	n/a	0	0	0
1388.498	n/a	REC_WORD	694249	wordpools/wasnorm_wordpool_576.txt	LTP299	ltpFR2	5	6	PECAN	1036	n/a	n/a	0	0	0
1390.102	n/a	REC_WORD	695051	wordpools/wasnorm_wordpool_576.txt	LTP299	ltpFR2	5	6	SPHINX	1349	n/a	n/a	0	0	0
1391.888	n/a	REC_WORD	695944	wordpools/wasnorm_wordpool_576.txt	LTP299	ltpFR2	5	6	HORSE	719	n/a	n/a	0	0	0
1412.5	n/a	REC_WORD	706250	wordpools/wasnorm_wordpool_576.txt	LTP299	ltpFR2	5	6	SIDEWALK	1303	n/a	n/a	0	0	0
1415.85	n/a	REC_WORD	707925	wordpools/wasnorm_wordpool_576.txt	LTP299	ltpFR2	5	6	HIGHWAY	707	n/a	n/a	0	0	0
1439.162	n/a	DISTRACTOR	719581	n/a	LTP299	ltpFR2	5	7	n/a	n/a	n/a	n/a	0	0	0
1439.164	n/a	START	719582	n/a	LTP299	ltpFR2	5	n/a	n/a	n/a	10	n/a	n/a	n/a	n/a
1439.18	n/a	PROB	719590	n/a	LTP299	ltpFR2	5	n/a	n/a	n/a	10	11	8	2	1
1440.564	n/a	PROB	720282	n/a	LTP299	ltpFR2	5	n/a	n/a	n/a	10	12	4	5	3
1442.098	n/a	PROB	721049	n/a	LTP299	ltpFR2	5	n/a	n/a	n/a	10	15	5	9	1
1443.532	n/a	PROB	721766	n/a	LTP299	ltpFR2	5	n/a	n/a	n/a	10	14	1	7	6
1445.95	n/a	PROB	722975	n/a	LTP299	ltpFR2	5	n/a	n/a	n/a	10	10	5	4	1
1447.254	n/a	PROB	723627	n/a	LTP299	ltpFR2	5	n/a	n/a	n/a	10	20	9	5	6
1449.852	n/a	PROB	724926	n/a	LTP299	ltpFR2	5	n/a	n/a	n/a	10	20	5	9	6
1451.89	n/a	PROB	725945	n/a	LTP299	ltpFR2	5	n/a	n/a	n/a	10	14	7	4	3
1453.488	n/a	PROB	726744	n/a	LTP299	ltpFR2	5	n/a	n/a	n/a	10	9	3	5	1
1455.622	n/a	PROB	727811	n/a	LTP299	ltpFR2	5	n/a	n/a	n/a	10	19	9	7	3
1457.126	n/a	PROB	728563	n/a	LTP299	ltpFR2	5	n/a	n/a	n/a	10	22	8	9	5
1459.844	n/a	PROB	729922	n/a	LTP299	ltpFR2	5	n/a	n/a	n/a	10	15	8	2	5
1461.428	n/a	PROB	730714	n/a	LTP299	ltpFR2	5	n/a	n/a	n/a	10	11	9	1	1
1462.61	n/a	STOP	731305	n/a	LTP299	ltpFR2	5	n/a	n/a	n/a	10	n/a	n/a	n/a	n/a
1464.082	n/a	WORD	732041	wordpools/wasnorm_wordpool_576.txt	LTP299	ltpFR2	5	7	ASIA	46	n/a	n/a	0	0	0
1466.634	n/a	WORD	733317	wordpools/wasnorm_wordpool_576.txt	LTP299	ltpFR2	5	7	ROBBER	1197	n/a	n/a	0	0	0
1469.17	n/a	WORD	734585	wordpools/wasnorm_wordpool_576.txt	LTP299	ltpFR2	5	7	PLAID	1080	n/a	n/a	0	0	0
1471.888	n/a	WORD	735944	wordpools/wasnorm_wordpool_576.txt	LTP299	ltpFR2	5	7	CREATURE	403	n/a	n/a	0	0	0
1474.69	n/a	WORD	737345	wordpools/wasnorm_wordpool_576.txt	LTP299	ltpFR2	5	7	NOMAD	955	n/a	n/a	0	0	0
1477.162	n/a	WORD	738581	wordpools/wasnorm_wordpool_576.txt	LTP299	ltpFR2	5	7	BLACKBOARD	133	n/a	n/a	0	0	0
1479.794	n/a	WORD	739897	wordpools/wasnorm_wordpool_576.txt	LTP299	ltpFR2	5	7	MARINE	869	n/a	n/a	0	0	0
1482.282	n/a	WORD	741141	wordpools/wasnorm_wordpool_576.txt	LTP299	ltpFR2	5	7	BRACES	164	n/a	n/a	0	0	0
1484.948	n/a	WORD	742474	wordpools/wasnorm_wordpool_576.txt	LTP299	ltpFR2	5	7	PARSLEY	1016	n/a	n/a	0	0	0
1487.4	n/a	WORD	743700	wordpools/wasnorm_wordpool_576.txt	LTP299	ltpFR2	5	7	SADDLE	1221	n/a	n/a	0	0	0
1489.952	n/a	WORD	744976	wordpools/wasnorm_wordpool_576.txt	LTP299	ltpFR2	5	7	COWBOY	395	n/a	n/a	0	0	0
1492.758	n/a	WORD	746379	wordpools/wasnorm_wordpool_576.txt	LTP299	ltpFR2	5	7	RIVER	1194	n/a	n/a	0	0	0
1495.44	n/a	WORD	747720	wordpools/wasnorm_wordpool_576.txt	LTP299	ltpFR2	5	7	SHOULDER	1294	n/a	n/a	0	0	0
1498.158	n/a	WORD	749079	wordpools/wasnorm_wordpool_576.txt	LTP299	ltpFR2	5	7	LEG	809	n/a	n/a	0	0	0
1500.66	n/a	WORD	750330	wordpools/wasnorm_wordpool_576.txt	LTP299	ltpFR2	5	7	TRIBE	1505	n/a	n/a	0	0	0
1503.3	n/a	WORD	751650	wordpools/wasnorm_wordpool_576.txt	LTP299	ltpFR2	5	7	BROOK	177	n/a	n/a	0	0	0
1506.052	n/a	WORD	753026	wordpools/wasnorm_wordpool_576.txt	LTP299	ltpFR2	5	7	SALMON	1227	n/a	n/a	0	0	0
1508.834	n/a	WORD	754417	wordpools/wasnorm_wordpool_576.txt	LTP299	ltpFR2	5	7	FREEZER	604	n/a	n/a	0	0	0
1511.502	n/a	WORD	755751	wordpools/wasnorm_wordpool_576.txt	LTP299	ltpFR2	5	7	SCARF	1246	n/a	n/a	0	0	0
1514.194	n/a	WORD	757097	wordpools/wasnorm_wordpool_576.txt	LTP299	ltpFR2	5	7	MUFFIN	929	n/a	n/a	0	0	0
1516.872	n/a	WORD	758436	wordpools/wasnorm_wordpool_576.txt	LTP299	ltpFR2	5	7	AIRPLANE	12	n/a	n/a	0	0	0
1519.348	n/a	WORD	759674	wordpools/wasnorm_wordpool_576.txt	LTP299	ltpFR2	5	7	GRIZZLY	662	n/a	n/a	0	0	0
1522.162	n/a	WORD	761081	wordpools/wasnorm_wordpool_576.txt	LTP299	ltpFR2	5	7	KETCHUP	771	n/a	n/a	0	0	0
1524.6	n/a	WORD	762300	wordpools/wasnorm_wordpool_576.txt	LTP299	ltpFR2	5	7	WRENCH	1625	n/a	n/a	0	0	0
1526.216	n/a	START	763108	n/a	LTP299	ltpFR2	5	n/a	n/a	n/a	11	n/a	n/a	n/a	n/a
1527.214	n/a	DISTRACTOR	763607	n/a	LTP299	ltpFR2	5	7	n/a	n/a	n/a	n/a	0	0	0
1527.22	n/a	PROB	763610	n/a	LTP299	ltpFR2	5	n/a	n/a	n/a	11	16	7	8	1
1529.398	n/a	PROB	764699	n/a	LTP299	ltpFR2	5	n/a	n/a	n/a	11	16	3	9	4
1531.818	n/a	PROB	765909	n/a	LTP299	ltpFR2	5	n/a	n/a	n/a	11	23	9	5	9
1534.072	n/a	PROB	767036	n/a	LTP299	ltpFR2	5	n/a	n/a	n/a	11	19	9	3	7
1535.754	n/a	PROB	767877	n/a	LTP299	ltpFR2	5	n/a	n/a	n/a	11	17	7	9	1
1537.222	n/a	PROB	768611	n/a	LTP299	ltpFR2	5	n/a	n/a	n/a	11	19	6	5	8
1539.258	n/a	PROB	769629	n/a	LTP299	ltpFR2	5	n/a	n/a	n/a	11	14	6	4	4
1540.956	n/a	PROB	770478	n/a	LTP299	ltpFR2	5	n/a	n/a	n/a	11	13	4	1	8
1543.194	n/a	PROB	771597	n/a	LTP299	ltpFR2	5	n/a	n/a	n/a	11	11	7	1	3
1544.692	n/a	PROB	772346	n/a	LTP299	ltpFR2	5	n/a	n/a	n/a	11	8	1	1	6
1545.976	n/a	PROB	772988	n/a	LTP299	ltpFR2	5	n/a	n/a	n/a	11	20	8	4	8
1550.214	n/a	STOP	775107	n/a	LTP299	ltpFR2	5	n/a	n/a	n/a	11	n/a	n/a	n/a	n/a
1552.034	n/a	REC_START	776017	n/a	LTP299	ltpFR2	5	7	n/a	n/a	n/a	n/a	0	0	0
1554.576	n/a	REC_WORD	777288	wordpools/wasnorm_wordpool_576.txt	LTP299	ltpFR2	5	7	ASIA	46	n/a	n/a	0	0	0
1555.69	n/a	REC_WORD	777845	wordpools/wasnorm_wordpool_576.txt	LTP299	ltpFR2	5	7	ROBBER	1197	n/a	n/a	0	0	0
1558.088	n/a	REC_WORD	779044	wordpools/wasnorm_wordpool_576.txt	LTP299	ltpFR2	5	7	PLAID	1080	n/a	n/a	0	0	0
1559.878	n/a	REC_WORD	779939	wordpools/wasnorm_wordpool_576.txt	LTP299	ltpFR2	5	7	SHOULDER	1294	n/a	n/a	0	0	0
1561.174	n/a	REC_WORD	780587	wordpools/wasnorm_wordpool_576.txt	LTP299	ltpFR2	5	7	LEG	809	n/a	n/a	0	0	0
1563.716	n/a	REC_WORD	781858	wordpools/wasnorm_wordpool_576.txt	LTP299	ltpFR2	5	7	CREATURE	403	n/a	n/a	0	0	0
1569.544	n/a	REC_WORD	784772	wordpools/wasnorm_wordpool_576.txt	LTP299	ltpFR2	5	7	BLACKBOARD	133	n/a	n/a	0	0	0
1572.798	n/a	REC_WORD	786399	wordpools/wasnorm_wordpool_576.txt	LTP299	ltpFR2	5	7	PARSLEY	1016	n/a	n/a	0	0	0
1575.966	n/a	REC_WORD	787983	wordpools/wasnorm_wordpool_576.txt	LTP299	ltpFR2	5	7	COWBOY	395	n/a	n/a	0	0	0
1576.924	n/a	REC_WORD	788462	wordpools/wasnorm_wordpool_576.txt	LTP299	ltpFR2	5	7	SADDLE	1221	n/a	n/a	0	0	0
1579.948	n/a	REC_WORD	789974	wordpools/wasnorm_wordpool_576.txt	LTP299	ltpFR2	5	7	BROOK	177	n/a	n/a	0	0	0
1580.978	n/a	REC_WORD	790489	wordpools/wasnorm_wordpool_576.txt	LTP299	ltpFR2	5	7	SALMON	1227	n/a	n/a	0	0	0
1582.224	n/a	REC_WORD	791112	wordpools/wasnorm_wordpool_576.txt	LTP299	ltpFR2	5	7	FREEZER	604	n/a	n/a	0	0	0
1642.47	n/a	WORD	821235	wordpools/wasnorm_wordpool_576.txt	LTP299	ltpFR2	5	8	FRAME	600	n/a	n/a	0	0	0
1645.004	n/a	WORD	822502	wordpools/wasnorm_wordpool_576.txt	LTP299	ltpFR2	5	8	PADDLE	1000	n/a	n/a	0	0	0
1647.572	n/a	WORD	823786	wordpools/wasnorm_wordpool_576.txt	LTP299	ltpFR2	5	8	BULLET	194	n/a	n/a	0	0	0
1650.292	n/a	WORD	825146	wordpools/wasnorm_wordpool_576.txt	LTP299	ltpFR2	5	8	PISTOL	1075	n/a	n/a	0	0	0
1652.826	n/a	WORD	826413	wordpools/wasnorm_wordpool_576.txt	LTP299	ltpFR2	5	8	WASP	1593	n/a	n/a	0	0	0
1655.614	n/a	WORD	827807	wordpools/wasnorm_wordpool_576.txt	LTP299	ltpFR2	5	8	RAZOR	1171	n/a	n/a	0	0	0
1658.35	n/a	WORD	829175	wordpools/wasnorm_wordpool_576.txt	LTP299	ltpFR2	5	8	CROSS	413	n/a	n/a	0	0	0
1661.102	n/a	WORD	830551	wordpools/wasnorm_wordpool_576.txt	LTP299	ltpFR2	5	8	BUG	187	n/a	n/a	0	0	0
1663.704	n/a	WORD	831852	wordpools/wasnorm_wordpool_576.txt	LTP299	ltpFR2	5	8	FRECKLE	602	n/a	n/a	0	0	0
1666.406	n/a	WORD	833203	wordpools/wasnorm_wordpool_576.txt	LTP299	ltpFR2	5	8	THIEF	1456	n/a	n/a	0	0	0
1669.058	n/a	WORD	834529	wordpools/wasnorm_wordpool_576.txt	LTP299	ltpFR2	5	8	SUSPECT	1415	n/a	n/a	0	0	0
1671.592	n/a	WORD	835796	wordpools/wasnorm_wordpool_576.txt	LTP299	ltpFR2	5	8	SODA	1341	n/a	n/a	0	0	0
1674.078	n/a	WORD	837039	wordpools/wasnorm_wordpool_576.txt	LTP299	ltpFR2	5	8	JUGGLER	763	n/a	n/a	0	0	0
1676.662	n/a	WORD	838331	wordpools/wasnorm_wordpool_576.txt	LTP299	ltpFR2	5	8	PEACH	1031	n/a	n/a	0	0	0
1679.432	n/a	WORD	839716	wordpools/wasnorm_wordpool_576.txt	LTP299	ltpFR2	5	8	SNAIL	1332	n/a	n/a	0	0	0
1682.002	n/a	WORD	841001	wordpools/wasnorm_wordpool_576.txt	LTP299	ltpFR2	5	8	CLAM	315	n/a	n/a	0	0	0
1684.604	n/a	WORD	842302	wordpools/wasnorm_wordpool_576.txt	LTP299	ltpFR2	5	8	CABBAGE	210	n/a	n/a	0	0	0
1687.224	n/a	WORD	843612	wordpools/wasnorm_wordpool_576.txt	LTP299	ltpFR2	5	8	SPIDER	1351	n/a	n/a	0	0	0
1689.992	n/a	WORD	844996	wordpools/wasnorm_wordpool_576.txt	LTP299	ltpFR2	5	8	TRENCH	1503	n/a	n/a	0	0	0
1692.494	n/a	WORD	846247	wordpools/wasnorm_wordpool_576.txt	LTP299	ltpFR2	5	8	LUGGAGE	847	n/a	n/a	0	0	0
1695.314	n/a	WORD	847657	wordpools/wasnorm_wordpool_576.txt	LTP299	ltpFR2	5	8	JUDGE	761	n/a	n/a	0	0	0
1697.896	n/a	WORD	848948	wordpools/wasnorm_wordpool_576.txt	LTP299	ltpFR2	5	8	HOOD	714	n/a	n/a	0	0	0
1700.518	n/a	WORD	850259	wordpools/wasnorm_wordpool_576.txt	LTP299	ltpFR2	5	8	FLASK	576	n/a	n/a	0	0	0
1702.984	n/a	WORD	851492	wordpools/wasnorm_wordpool_576.txt	LTP299	ltpFR2	5	8	MILDEW	893	n/a	n/a	0	0	0
1704.604	n/a	START	852302	n/a	LTP299	ltpFR2	5	n/a	n/a	n/a	12	n/a	n/a	n/a	n/a
1705.714	n/a	DISTRACTOR	852857	n/a	LTP299	ltpFR2	5	8	n/a	n/a	n/a	n/a	0	0	0
1705.72	n/a	PROB	852860	n/a	LTP299	ltpFR2	5	n/a	n/a	n/a	12	13	9	3	1
1708.856	n/a	PROB	854428	n/a	LTP299	ltpFR2	5	n/a	n/a	n/a	12	23	8	9	6
1713.044	n/a	PROB	856522	n/a	LTP299	ltpFR2	5	n/a	n/a	n/a	12	14	7	4	3
1714.642	n/a	PROB	857321	n/a	LTP299	ltpFR2	5	n/a	n/a	n/a	12	19	7	4	8
1716.628	n/a	PROB	858314	n/a	LTP299	ltpFR2	5	n/a	n/a	n/a	12	16	9	1	6
1717.962	n/a	PROB	858981	n/a	LTP299	ltpFR2	5	n/a	n/a	n/a	12	21	7	6	8
1721.682	n/a	PROB	860841	n/a	LTP299	ltpFR2	5	n/a	n/a	n/a	12	15	3	3	9
1723.434	n/a	PROB	861717	n/a	LTP299	ltpFR2	5	n/a	n/a	n/a	12	15	1	7	7
1724.852	n/a	PROB	862426	n/a	LTP299	ltpFR2	5	n/a	n/a	n/a	12	18	5	6	7
1728.602	n/a	STOP	864301	n/a	LTP299	ltpFR2	5	n/a	n/a	n/a	12	n/a	n/a	n/a	n/a
1730.458	n/a	REC_START	865229	n/a	LTP299	ltpFR2	5	8	n/a	n/a	n/a	n/a	0	0	0
1732.136	n/a	REC_WORD	866068	wordpools/wasnorm_wordpool_576.txt	LTP299	ltpFR2	5	8	CABBAGE	210	n/a	n/a	0	0	0
1733.332	n/a	REC_WORD	866666	wordpools/wasnorm_wordpool_576.txt	LTP299	ltpFR2	5	8	JUDGE	761	n/a	n/a	0	0	0
1734.39	n/a	REC_WORD	867195	wordpools/wasnorm_wordpool_576.txt	LTP299	ltpFR2	5	8	HOOD	714	n/a	n/a	0	0	0
1735.462	n/a	REC_WORD	867731	wordpools/wasnorm_wordpool_576.txt	LTP299	ltpFR2	5	8	MILDEW	893	n/a	n/a	0	0	0
1738.044	n/a	REC_WORD	869022	wordpools/wasnorm_wordpool_576.txt	LTP299	ltpFR2	5	8	SPIDER	1351	n/a	n/a	0	0	0
1739.442	n/a	REC_WORD	869721	wordpools/wasnorm_wordpool_576.txt	LTP299	ltpFR2	5	8	BUG	187	n/a	n/a	0	0	0
1749.116	n/a	REC_WORD	874558	wordpools/wasnorm_wordpool_576.txt	LTP299	ltpFR2	5	8	PISTOL	1075	n/a	n/a	0	0	0
1750.316	n/a	REC_WORD	875158	wordpools/wasnorm_wordpool_576.txt	LTP299	ltpFR2	5	8	BULLET	194	n/a	n/a	0	0	0
1751.582	n/a	REC_WORD	875791	wordpools/wasnorm_wordpool_576.txt	LTP299	ltpFR2	5	8	FRAME	600	n/a	n/a	0	0	0
1752.824	n/a	REC_WORD	876412	wordpools/wasnorm_wordpool_576.txt	LTP299	ltpFR2	5	8	PADDLE	1000	n/a	n/a	0	0	0
1754.35	n/a	REC_WORD	877175	wordpools/wasnorm_wordpool_576.txt	LTP299	ltpFR2	5	8	THIEF	1456	n/a	n/a	0	0	0
1757.148	n/a	REC_WORD	878574	wordpools/wasnorm_wordpool_576.txt	LTP299	ltpFR2	5	8	SUSPECT	1415	n/a	n/a	0	0	0
1760.992	n/a	REC_WORD	880496	wordpools/wasnorm_wordpool_576.txt	LTP299	ltpFR2	5	8	RAZOR	1171	n/a	n/a	0	0	0
1765.13	n/a	REC_WORD	882565	wordpools/wasnorm_wordpool_576.txt	LTP299	ltpFR2	5	8	CLAM	315	n/a	n/a	0	0	0
1767.626	n/a	REC_WORD	883813	wordpools/wasnorm_wordpool_576.txt	LTP299	ltpFR2	5	8	WASP	1593	n/a	n/a	0	0	0
1768.692	n/a	REC_WORD	884346	wordpools/wasnorm_wordpool_576.txt	LTP299	ltpFR2	5	8	FRECKLE	602	n/a	n/a	0	0	0
1806.982	n/a	REST_REWET	903491	n/a	LTP299	ltpFR2	5	8	n/a	n/a	n/a	n/a	0	0	0
1903.958	n/a	WORD	951979	wordpools/wasnorm_wordpool_576.txt	LTP299	ltpFR2	5	9	PUPIL	1143	n/a	n/a	0	0	0
1906.508	n/a	WORD	953254	wordpools/wasnorm_wordpool_576.txt	LTP299	ltpFR2	5	9	BOX	159	n/a	n/a	0	0	0
1909.296	n/a	WORD	954648	wordpools/wasnorm_wordpool_576.txt	LTP299	ltpFR2	5	9	NEUTRON	947	n/a	n/a	0	0	0
1911.746	n/a	WORD	955873	wordpools/wasnorm_wordpool_576.txt	LTP299	ltpFR2	5	9	MEAT	883	n/a	n/a	0	0	0
1914.566	n/a	WORD	957283	wordpools/wasnorm_wordpool_576.txt	LTP299	ltpFR2	5	9	BASEMENT	94	n/a	n/a	0	0	0
1917.102	n/a	WORD	958551	wordpools/wasnorm_wordpool_576.txt	LTP299	ltpFR2	5	9	CEILING	265	n/a	n/a	0	0	0
1919.552	n/a	WORD	959776	wordpools/wasnorm_wordpool_576.txt	LTP299	ltpFR2	5	9	BUCKET	184	n/a	n/a	0	0	0
1922.306	n/a	WORD	961153	wordpools/wasnorm_wordpool_576.txt	LTP299	ltpFR2	5	9	ATOM	55	n/a	n/a	0	0	0
1925.092	n/a	WORD	962546	wordpools/wasnorm_wordpool_576.txt	LTP299	ltpFR2	5	9	CRUTCH	417	n/a	n/a	0	0	0
1927.726	n/a	WORD	963863	wordpools/wasnorm_wordpool_576.txt	LTP299	ltpFR2	5	9	ICING	732	n/a	n/a	0	0	0
1930.362	n/a	WORD	965181	wordpools/wasnorm_wordpool_576.txt	LTP299	ltpFR2	5	9	BRICK	172	n/a	n/a	0	0	0
1933.066	n/a	WORD	966533	wordpools/wasnorm_wordpool_576.txt	LTP299	ltpFR2	5	9	GIFT	635	n/a	n/a	0	0	0
1935.684	n/a	WORD	967842	wordpools/wasnorm_wordpool_576.txt	LTP299	ltpFR2	5	9	CLOUD	328	n/a	n/a	0	0	0
1938.32	n/a	WORD	969160	wordpools/wasnorm_wordpool_576.txt	LTP299	ltpFR2	5	9	LIGHTNING	820	n/a	n/a	0	0	0
1940.804	n/a	WORD	970402	wordpools/wasnorm_wordpool_576.txt	LTP299	ltpFR2	5	9	CARROT	249	n/a	n/a	0	0	0
1943.272	n/a	WORD	971636	wordpools/wasnorm_wordpool_576.txt	LTP299	ltpFR2	5	9	AWARD	63	n/a	n/a	0	0	0
1946.026	n/a	WORD	973013	wordpools/wasnorm_wordpool_576.txt	LTP299	ltpFR2	5	9	HUMAN	726	n/a	n/a	0	0	0
1948.644	n/a	WORD	974322	wordpools/wasnorm_wordpool_576.txt	LTP299	ltpFR2	5	9	TERMITE	1451	n/a	n/a	0	0	0
1951.162	n/a	WORD	975581	wordpools/wasnorm_wordpool_576.txt	LTP299	ltpFR2	5	9	SNAKE	1333	n/a	n/a	0	0	0
1953.88	n/a	WORD	976940	wordpools/wasnorm_wordpool_576.txt	LTP299	ltpFR2	5	9	DENTIST	447	n/a	n/a	0	0	0
1956.416	n/a	WORD	978208	wordpools/wasnorm_wordpool_576.txt	LTP299	ltpFR2	5	9	RABBIT	1152	n/a	n/a	0	0	0
1959.236	n/a	WORD	979618	wordpools/wasnorm_wordpool_576.txt	LTP299	ltpFR2	5	9	FIREPLACE	570	n/a	n/a	0	0	0
1961.954	n/a	WORD	980977	wordpools/wasnorm_wordpool_576.txt	LTP299	ltpFR2	5	9	CONCERT	360	n/a	n/a	0	0	0
1964.706	n/a	WORD	982353	wordpools/wasnorm_wordpool_576.txt	LTP299	ltpFR2	5	9	FIDDLE	561	n/a	n/a	0	0	0
1966.312	n/a	START	983156	n/a	LTP299	ltpFR2	5	n/a	n/a	n/a	13	n/a	n/a	n/a	n/a
1967.42	n/a	DISTRACTOR	983710	n/a	LTP299	ltpFR2	5	9	n/a	n/a	n/a	n/a	0	0	0
1967.426	n/a	PROB	983713	n/a	LTP299	ltpFR2	5	n/a	n/a	n/a	13	26	8	9	9
1971.31	n/a	PROB	985655	n/a	LTP299	ltpFR2	5	n/a	n/a	n/a	13	15	2	8	5
1973.396	n/a	PROB	986698	n/a	LTP299	ltpFR2	5	n/a	n/a	n/a	13	17	4	3	9
1975.98	n/a	PROB	987990	n/a	LTP299	ltpFR2	5	n/a	n/a	n/a	13	17	9	1	7
1978.016	n/a	PROB	989008	n/a	LTP299	ltpFR2	5	n/a	n/a	n/a	13	22	7	6	7
1980.8	n/a	PROB	990400	n/a	LTP299	ltpFR2	5	n/a	n/a	n/a	13	17	4	4	9
1982.684	n/a	PROB	991342	n/a	LTP299	ltpFR2	5	n/a	n/a	n/a	13	17	5	8	4
1985.57	n/a	PROB	992785	n/a	LTP299	ltpFR2	5	n/a	n/a	n/a	13	17	2	9	6
1990.31	n/a	STOP	995155	n/a	LTP299	ltpFR2	5	n/a	n/a	n/a	13	n/a	n/a	n/a	n/a
1992.126	n/a	REC_START	996063	n/a	LTP299	ltpFR2	5	9	n/a	n/a	n/a	n/a	0	0	0
1993.624	n/a	REC_WORD	996812	wordpools/wasnorm_wordpool_576.txt	LTP299	ltpFR2	5	9	FIREPLACE	570	n/a	n/a	0	0	0
1995.912	n/a	REC_WORD	997956	wordpools/wasnorm_wordpool_576.txt	LTP299	ltpFR2	5	9	TERMITE	1451	n/a	n/a	0	0	0
2000.564	n/a	REC_WORD	1000282	wordpools/wasnorm_wordpool_576.txt	LTP299	ltpFR2	5	9	CARROT	249	n/a	n/a	0	0	0
2002.736	n/a	REC_WORD	1001368	wordpools/wasnorm_wordpool_576.txt	LTP299	ltpFR2	5	9	AWARD	63	n/a	n/a	0	0	0
2003.958	n/a	REC_WORD	1001979	wordpools/wasnorm_wordpool_576.txt	LTP299	ltpFR2	5	9	HUMAN	726	n/a	n/a	0	0	0
2005.254	n/a	REC_WORD	1002627	wordpools/wasnorm_wordpool_576.txt	LTP299	ltpFR2	5	9	SNAKE	1333	n/a	n/a	0	0	0
2006.724	n/a	REC_WORD	1003362	wordpools/wasnorm_wordpool_576.txt	LTP299	ltpFR2	5	9	RABBIT	1152	n/a	n/a	0	0	0
2008.038	n/a	REC_WORD	1004019	wordpools/wasnorm_wordpool_576.txt	LTP299	ltpFR2	5	9	DENTIST	447	n/a	n/a	0	0	0
2011.034	n/a	REC_WORD	1005517	wordpools/wasnorm_wordpool_576.txt	LTP299	ltpFR2	5	9	LIGHTNING	820	n/a	n/a	0	0	0
2012.152	n/a	REC_WORD	1006076	wordpools/wasnorm_wordpool_576.txt	LTP299	ltpFR2	5	9	CLOUD	328	n/a	n/a	0	0	0
2037.422	n/a	REC_WORD	1018711	wordpools/wasnorm_wordpool_576.txt	LTP299	ltpFR2	5	9	PUPIL	1143	n/a	n/a	0	0	0
2038.5	n/a	REC_WORD	1019250	wordpools/wasnorm_wordpool_576.txt	LTP299	ltpFR2	5	9	NEUTRON	947	n/a	n/a	0	0	0
2039.834	n/a	REC_WORD	1019917	wordpools/wasnorm_wordpool_576.txt	LTP299	ltpFR2	5	9	ATOM	55	n/a	n/a	0	0	0
2042.142	n/a	REC_WORD	1021071	wordpools/wasnorm_wordpool_576.txt	LTP299	ltpFR2	5	9	BASEMENT	94	n/a	n/a	0	0	0
2044.278	n/a	REC_WORD	1022139	wordpools/wasnorm_wordpool_576.txt	LTP299	ltpFR2	5	9	MEAT	883	n/a	n/a	0	0	0
2045.734	n/a	REC_WORD	1022867	wordpools/wasnorm_wordpool_576.txt	LTP299	ltpFR2	5	9	BUCKET	184	n/a	n/a	0	0	0
2050.236	n/a	REC_WORD	1025118	wordpools/wasnorm_wordpool_576.txt	LTP299	ltpFR2	5	9	CRUTCH	417	n/a	n/a	0	0	0
2082.546	n/a	DISTRACTOR	1041273	n/a	LTP299	ltpFR2	5	10	n/a	n/a	n/a	n/a	0	0	0
2082.548	n/a	START	1041274	n/a	LTP299	ltpFR2	5	n/a	n/a	n/a	14	n/a	n/a	n/a	n/a
2082.562	n/a	PROB	1041281	n/a	LTP299	ltpFR2	5	n/a	n/a	n/a	14	22	8	5	9
2085.132	n/a	PROB	1042566	n/a	LTP299	ltpFR2	5	n/a	n/a	n/a	14	14	3	9	2
2087.05	n/a	PROB	1043525	n/a	LTP299	ltpFR2	5	n/a	n/a	n/a	14	22	8	6	8
2089.652	n/a	PROB	1044826	n/a	LTP299	ltpFR2	5	n/a	n/a	n/a	14	13	6	1	6
2091.57	n/a	PROB	1045785	n/a	LTP299	ltpFR2	5	n/a	n/a	n/a	14	22	9	4	9
2094.058	n/a	PROB	1047029	n/a	LTP299	ltpFR2	5	n/a	n/a	n/a	14	14	1	8	5
2098.994	n/a	PROB	1049497	n/a	LTP299	ltpFR2	5	n/a	n/a	n/a	14	12	8	2	2
2100.644	n/a	PROB	1050322	n/a	LTP299	ltpFR2	5	n/a	n/a	n/a	14	14	9	3	2
2102.58	n/a	PROB	1051290	n/a	LTP299	ltpFR2	5	n/a	n/a	n/a	14	16	6	4	6
2105.862	n/a	STOP	1052931	n/a	LTP299	ltpFR2	5	n/a	n/a	n/a	14	n/a	n/a	n/a	n/a
2107.484	n/a	WORD	1053742	wordpools/wasnorm_wordpool_576.txt	LTP299	ltpFR2	5	10	KNAPSACK	783	n/a	n/a	0	0	0
2110.016	n/a	WORD	1055008	wordpools/wasnorm_wordpool_576.txt	LTP299	ltpFR2	5	10	BRIEFCASE	175	n/a	n/a	0	0	0
2112.618	n/a	WORD	1056309	wordpools/wasnorm_wordpool_576.txt	LTP299	ltpFR2	5	10	BLADE	134	n/a	n/a	0	0	0
2115.07	n/a	WORD	1057535	wordpools/wasnorm_wordpool_576.txt	LTP299	ltpFR2	5	10	BLOCKADE	137	n/a	n/a	0	0	0
2117.708	n/a	WORD	1058854	wordpools/wasnorm_wordpool_576.txt	LTP299	ltpFR2	5	10	MISTER	901	n/a	n/a	0	0	0
2120.524	n/a	WORD	1060262	wordpools/wasnorm_wordpool_576.txt	LTP299	ltpFR2	5	10	POWDER	1117	n/a	n/a	0	0	0
2122.958	n/a	WORD	1061479	wordpools/wasnorm_wordpool_576.txt	LTP299	ltpFR2	5	10	TWEEZERS	1526	n/a	n/a	0	0	0
2125.61	n/a	WORD	1062805	wordpools/wasnorm_wordpool_576.txt	LTP299	ltpFR2	5	10	POSTAGE	1113	n/a	n/a	0	0	0
2128.398	n/a	WORD	1064199	wordpools/wasnorm_wordpool_576.txt	LTP299	ltpFR2	5	10	TABLET	1427	n/a	n/a	0	0	0
2130.948	n/a	WORD	1065474	wordpools/wasnorm_wordpool_576.txt	LTP299	ltpFR2	5	10	BRAKE	166	n/a	n/a	0	0	0
2133.486	n/a	WORD	1066743	wordpools/wasnorm_wordpool_576.txt	LTP299	ltpFR2	5	10	CHAUFFEUR	283	n/a	n/a	0	0	0
2136.308	n/a	WORD	1068154	wordpools/wasnorm_wordpool_576.txt	LTP299	ltpFR2	5	10	MARROW	872	n/a	n/a	0	0	0
2139.04	n/a	WORD	1069520	wordpools/wasnorm_wordpool_576.txt	LTP299	ltpFR2	5	10	ORCHID	982	n/a	n/a	0	0	0
2141.842	n/a	WORD	1070921	wordpools/wasnorm_wordpool_576.txt	LTP299	ltpFR2	5	10	JUNGLE	764	n/a	n/a	0	0	0
2144.478	n/a	WORD	1072239	wordpools/wasnorm_wordpool_576.txt	LTP299	ltpFR2	5	10	MAPLE	866	n/a	n/a	0	0	0
2147.164	n/a	WORD	1073582	wordpools/wasnorm_wordpool_576.txt	LTP299	ltpFR2	5	10	CRATER	400	n/a	n/a	0	0	0
2149.784	n/a	WORD	1074892	wordpools/wasnorm_wordpool_576.txt	LTP299	ltpFR2	5	10	DASHBOARD	441	n/a	n/a	0	0	0
2152.502	n/a	WORD	1076251	wordpools/wasnorm_wordpool_576.txt	LTP299	ltpFR2	5	10	VIKING	1565	n/a	n/a	0	0	0
2155.054	n/a	WORD	1077527	wordpools/wasnorm_wordpool_576.txt	LTP299	ltpFR2	5	10	SEAFOOD	1260	n/a	n/a	0	0	0
2157.772	n/a	WORD	1078886	wordpools/wasnorm_wordpool_576.txt	LTP299	ltpFR2	5	10	HOOK	715	n/a	n/a	0	0	0
2160.392	n/a	WORD	1080196	wordpools/wasnorm_wordpool_576.txt	LTP299	ltpFR2	5	10	PEDAL	1037	n/a	n/a	0	0	0
2162.974	n/a	WORD	1081487	wordpools/wasnorm_wordpool_576.txt	LTP299	ltpFR2	5	10	TRANSPLANT	1496	n/a	n/a	0	0	0
2165.66	n/a	WORD	1082830	wordpools/wasnorm_wordpool_576.txt	LTP299	ltpFR2	5	10	PATROL	1027	n/a	n/a	0	0	0
2168.482	n/a	WORD	1084241	wordpools/wasnorm_wordpool_576.txt	LTP299	ltpFR2	5	10	NOTEBOOK	959	n/a	n/a	0	0	0
2170.1	n/a	START	1085050	n/a	LTP299	ltpFR2	5	n/a	n/a	n/a	15	n/a	n/a	n/a	n/a
2171.132	n/a	DISTRACTOR	1085566	n/a	LTP299	ltpFR2	5	10	n/a	n/a	n/a	n/a	0	0	0
2171.15	n/a	PROB	1085575	n/a	LTP299	ltpFR2	5	n/a	n/a	n/a	15	13	7	2	4
2173.684	n/a	PROB	1086842	n/a	LTP299	ltpFR2	5	n/a	n/a	n/a	15	22	7	6	9
2176.204	n/a	PROB	1088102	n/a	LTP299	ltpFR2	5	n/a	n/a	n/a	15	17	4	9	5
2180.856	n/a	PROB	1090428	n/a	LTP299	ltpFR2	5	n/a	n/a	n/a	15	18	8	4	6
2183.574	n/a	PROB	1091787	n/a	LTP299	ltpFR2	5	n/a	n/a	n/a	15	17	7	6	4
2185.91	n/a	PROB	1092955	n/a	LTP299	ltpFR2	5	n/a	n/a	n/a	15	14	5	6	3
2189.314	n/a	PROB	1094657	n/a	LTP299	ltpFR2	5	n/a	n/a	n/a	15	11	6	3	2
2191.866	n/a	PROB	1095933	n/a	LTP299	ltpFR2	5	n/a	n/a	n/a	15	14	9	3	2
2193.936	n/a	STOP	1096968	n/a	LTP299	ltpFR2	5	n/a	n/a	n/a	15	n/a	n/a	n/a	n/a
2196.02	n/a	REC_START	1098010	n/a	LTP299	ltpFR2	5	10	n/a	n/a	n/a	n/a	0	0	0
2196.992	n/a	REC_WORD	1098496	wordpools/wasnorm_wordpool_576.txt	LTP299	ltpFR2	5	10	NOTEBOOK	959	n/a	n/a	0	0	0
2198.84	n/a	REC_WORD	1099420	wordpools/wasnorm_wordpool_576.txt	LTP299	ltpFR2	5	10	BRIEFCASE	175	n/a	n/a	0	0	0
2200.496	n/a	REC_WORD	1100248	wordpools/wasnorm_wordpool_576.txt	LTP299	ltpFR2	5	10	KNAPSACK	783	n/a	n/a	0	0	0
2201.94	n/a	REC_WORD	1100970	wordpools/wasnorm_wordpool_576.txt	LTP299	ltpFR2	5	10	POWDER	1117	n/a	n/a	0	0	0
2203.378	n/a	REC_WORD	1101689	wordpools/wasnorm_wordpool_576.txt	LTP299	ltpFR2	5	10	KNIFE	785	n/a	n/a	0	0	0
2204.684	n/a	REC_WORD	1102342	wordpools/wasnorm_wordpool_576.txt	LTP299	ltpFR2	5	10	TABLET	1427	n/a	n/a	0	0	0
2207.332	n/a	REC_WORD	1103666	wordpools/wasnorm_wordpool_576.txt	LTP299	ltpFR2	5	10	CHAUFFEUR	283	n/a	n/a	0	0	0
2208.818	n/a	REC_WORD	1104409	wordpools/wasnorm_wordpool_576.txt	LTP299	ltpFR2	5	10	PEDAL	1037	n/a	n/a	0	0	0
2210.302	n/a	REC_WORD	1105151	wordpools/wasnorm_wordpool_576.txt	LTP299	ltpFR2	5	10	DASHBOARD	441	n/a	n/a	0	0	0
2211.808	n/a	REC_WORD	1105904	wordpools/wasnorm_wordpool_576.txt	LTP299	ltpFR2	5	10	BLOCKADE	137	n/a	n/a	0	0	0
2213.742	n/a	REC_WORD	1106871	wordpools/wasnorm_wordpool_576.txt	LTP299	ltpFR2	5	10	JUNGLE	764	n/a	n/a	0	0	0
2215.376	n/a	REC_WORD	1107688	wordpools/wasnorm_wordpool_576.txt	LTP299	ltpFR2	5	10	TRANSPLANT	1496	n/a	n/a	0	0	0
2217.878	n/a	REC_WORD	1108939	wordpools/wasnorm_wordpool_576.txt	LTP299	ltpFR2	5	10	PATROL	1027	n/a	n/a	0	0	0
2230.778	n/a	REC_WORD	1115389	wordpools/wasnorm_wordpool_576.txt	LTP299	ltpFR2	5	10	ORCHID	982	n/a	n/a	0	0	0
2286.442	n/a	DISTRACTOR	1143221	n/a	LTP299	ltpFR2	5	11	n/a	n/a	n/a	n/a	0	0	0
2286.442	n/a	START	1143221	n/a	LTP299	ltpFR2	5	n/a	n/a	n/a	16	n/a	n/a	n/a	n/a
2286.456	n/a	PROB	1143228	n/a	LTP299	ltpFR2	5	n/a	n/a	n/a	16	13	3	7	3
2287.956	n/a	PROB	1143978	n/a	LTP299	ltpFR2	5	n/a	n/a	n/a	16	15	6	8	1
2290.208	n/a	PROB	1145104	n/a	LTP299	ltpFR2	5	n/a	n/a	n/a	16	13	2	6	5
2291.826	n/a	PROB	1145913	n/a	LTP299	ltpFR2	5	n/a	n/a	n/a	16	13	3	2	8
2293.862	n/a	PROB	1146931	n/a	LTP299	ltpFR2	5	n/a	n/a	n/a	16	17	9	3	5
2295.862	n/a	PROB	1147931	n/a	LTP299	ltpFR2	5	n/a	n/a	n/a	16	12	1	8	3
2297.432	n/a	PROB	1148716	n/a	LTP299	ltpFR2	5	n/a	n/a	n/a	16	12	3	7	2
2298.88	n/a	PROB	1149440	n/a	LTP299	ltpFR2	5	n/a	n/a	n/a	16	17	6	3	8
2301.284	n/a	PROB	1150642	n/a	LTP299	ltpFR2	5	n/a	n/a	n/a	16	24	8	7	8
2303.602	n/a	PROB	1151801	n/a	LTP299	ltpFR2	5	n/a	n/a	n/a	16	13	2	3	8
2305.686	n/a	PROB	1152843	n/a	LTP299	ltpFR2	5	n/a	n/a	n/a	16	14	5	3	6
2307.772	n/a	PROB	1153886	n/a	LTP299	ltpFR2	5	n/a	n/a	n/a	16	10	1	5	4
2309.378	n/a	STOP	1154689	n/a	LTP299	ltpFR2	5	n/a	n/a	n/a	16	n/a	n/a	n/a	n/a
2311.31	n/a	WORD	1155655	wordpools/wasnorm_wordpool_576.txt	LTP299	ltpFR2	5	11	FRIEND	606	n/a	n/a	0	0	0
2313.92	n/a	WORD	1156960	wordpools/wasnorm_wordpool_576.txt	LTP299	ltpFR2	5	11	PARTNER	1017	n/a	n/a	0	0	0
2316.474	n/a	WORD	1158237	wordpools/wasnorm_wordpool_576.txt	LTP299	ltpFR2	5	11	PIZZA	1079	n/a	n/a	0	0	0
2319.26	n/a	WORD	1159630	wordpools/wasnorm_wordpool_576.txt	LTP299	ltpFR2	5	11	SAUSAGE	1238	n/a	n/a	0	0	0
2321.912	n/a	WORD	1160956	wordpools/wasnorm_wordpool_576.txt	LTP299	ltpFR2	5	11	EXPERT	543	n/a	n/a	0	0	0
2324.53	n/a	WORD	1162265	wordpools/wasnorm_wordpool_576.txt	LTP299	ltpFR2	5	11	GAVEL	627	n/a	n/a	0	0	0
2327.306	n/a	WORD	1163653	wordpools/wasnorm_wordpool_576.txt	LTP299	ltpFR2	5	11	PLIERS	1089	n/a	n/a	0	0	0
2330.008	n/a	WORD	1165004	wordpools/wasnorm_wordpool_576.txt	LTP299	ltpFR2	5	11	ROBIN	1199	n/a	n/a	0	0	0
2332.788	n/a	WORD	1166394	wordpools/wasnorm_wordpool_576.txt	LTP299	ltpFR2	5	11	CITRUS	313	n/a	n/a	0	0	0
2335.224	n/a	WORD	1167612	wordpools/wasnorm_wordpool_576.txt	LTP299	ltpFR2	5	11	SHRUB	1299	n/a	n/a	0	0	0
2337.958	n/a	WORD	1168979	wordpools/wasnorm_wordpool_576.txt	LTP299	ltpFR2	5	11	CHEST	295	n/a	n/a	0	0	0
2340.56	n/a	WORD	1170280	wordpools/wasnorm_wordpool_576.txt	LTP299	ltpFR2	5	11	SCISSORS	1250	n/a	n/a	0	0	0
2343.33	n/a	WORD	1171665	wordpools/wasnorm_wordpool_576.txt	LTP299	ltpFR2	5	11	QUAIL	1147	n/a	n/a	0	0	0
2345.98	n/a	WORD	1172990	wordpools/wasnorm_wordpool_576.txt	LTP299	ltpFR2	5	11	JURY	766	n/a	n/a	0	0	0
2348.734	n/a	WORD	1174367	wordpools/wasnorm_wordpool_576.txt	LTP299	ltpFR2	5	11	COMET	353	n/a	n/a	0	0	0
2351.436	n/a	WORD	1175718	wordpools/wasnorm_wordpool_576.txt	LTP299	ltpFR2	5	11	EAGLE	512	n/a	n/a	0	0	0
2354.11	n/a	WORD	1177055	wordpools/wasnorm_wordpool_576.txt	LTP299	ltpFR2	5	11	SCALPEL	1243	n/a	n/a	0	0	0
2356.79	n/a	WORD	1178395	wordpools/wasnorm_wordpool_576.txt	LTP299	ltpFR2	5	11	COTTAGE	384	n/a	n/a	0	0	0
2359.58	n/a	WORD	1179790	wordpools/wasnorm_wordpool_576.txt	LTP299	ltpFR2	5	11	TURKEY	1520	n/a	n/a	0	0	0
2362.312	n/a	WORD	1181156	wordpools/wasnorm_wordpool_576.txt	LTP299	ltpFR2	5	11	COCKTAIL	338	n/a	n/a	0	0	0
2365.1	n/a	WORD	1182550	wordpools/wasnorm_wordpool_576.txt	LTP299	ltpFR2	5	11	GARDEN	623	n/a	n/a	0	0	0
2367.87	n/a	WORD	1183935	wordpools/wasnorm_wordpool_576.txt	LTP299	ltpFR2	5	11	CHURCH	307	n/a	n/a	0	0	0
2370.374	n/a	WORD	1185187	wordpools/wasnorm_wordpool_576.txt	LTP299	ltpFR2	5	11	HOSTESS	723	n/a	n/a	0	0	0
2373.058	n/a	WORD	1186529	wordpools/wasnorm_wordpool_576.txt	LTP299	ltpFR2	5	11	COFFEE	341	n/a	n/a	0	0	0
2374.674	n/a	START	1187337	n/a	LTP299	ltpFR2	5	n/a	n/a	n/a	17	n/a	n/a	n/a	n/a
2375.7	n/a	DISTRACTOR	1187850	n/a	LTP299	ltpFR2	5	11	n/a	n/a	n/a	n/a	0	0	0
2375.706	n/a	PROB	1187853	n/a	LTP299	ltpFR2	5	n/a	n/a	n/a	17	13	8	3	2
2378.41	n/a	PROB	1189205	n/a	LTP299	ltpFR2	5	n/a	n/a	n/a	17	16	7	2	7
2380.46	n/a	PROB	1190230	n/a	LTP299	ltpFR2	5	n/a	n/a	n/a	17	20	5	9	6
2382.38	n/a	PROB	1191190	n/a	LTP299	ltpFR2	5	n/a	n/a	n/a	17	14	3	3	8
2384.748	n/a	PROB	1192374	n/a	LTP299	ltpFR2	5	n/a	n/a	n/a	17	19	9	2	8
2386.302	n/a	PROB	1193151	n/a	LTP299	ltpFR2	5	n/a	n/a	n/a	17	10	6	2	2
2387.684	n/a	PROB	1193842	n/a	LTP299	ltpFR2	5	n/a	n/a	n/a	17	9	3	4	2
2390.768	n/a	PROB	1195384	n/a	LTP299	ltpFR2	5	n/a	n/a	n/a	17	9	6	1	2
2393.74	n/a	PROB	1196870	n/a	LTP299	ltpFR2	5	n/a	n/a	n/a	17	15	9	2	4
2395.426	n/a	PROB	1197713	n/a	LTP299	ltpFR2	5	n/a	n/a	n/a	17	20	8	3	9
2397.602	n/a	STOP	1198801	n/a	LTP299	ltpFR2	5	n/a	n/a	n/a	17	n/a	n/a	n/a	n/a
2400.514	n/a	REC_START	1200257	n/a	LTP299	ltpFR2	5	11	n/a	n/a	n/a	n/a	0	0	0
2404.424	n/a	REC_WORD	1202212	wordpools/wasnorm_wordpool_576.txt	LTP299	ltpFR2	5	11	ROBIN	1199	n/a	n/a	0	0	0
2406.922	n/a	REC_WORD	1203461	wordpools/wasnorm_wordpool_576.txt	LTP299	ltpFR2	5	11	QUAIL	1147	n/a	n/a	0	0	0
2409.384	n/a	REC_WORD	1204692	wordpools/wasnorm_wordpool_576.txt	LTP299	ltpFR2	5	11	EAGLE	512	n/a	n/a	0	0	0
2414.3	n/a	REC_WORD	1207150	wordpools/wasnorm_wordpool_576.txt	LTP299	ltpFR2	5	11	SHRUB	1299	n/a	n/a	0	0	0
2416.98	n/a	REC_WORD	1208490	wordpools/wasnorm_wordpool_576.txt	LTP299	ltpFR2	5	11	CHURCH	307	n/a	n/a	0	0	0
2418.802	n/a	REC_WORD	1209401	wordpools/wasnorm_wordpool_576.txt	LTP299	ltpFR2	5	11	GARDEN	623	n/a	n/a	0	0	0
2421.05	n/a	REC_WORD	1210525	wordpools/wasnorm_wordpool_576.txt	LTP299	ltpFR2	5	11	CITRUS	313	n/a	n/a	0	0	0
2423.268	n/a	REC_WORD	1211634	wordpools/wasnorm_wordpool_576.txt	LTP299	ltpFR2	5	11	FRIEND	606	n/a	n/a	0	0	0
2424.992	n/a	REC_WORD	1212496	wordpools/wasnorm_wordpool_576.txt	LTP299	ltpFR2	5	11	PARTNER	1017	n/a	n/a	0	0	0
2428.656	n/a	REC_WORD	1214328	wordpools/wasnorm_wordpool_576.txt	LTP299	ltpFR2	5	11	EXPERT	543	n/a	n/a	0	0	0
2430.034	n/a	REC_WORD	1215017	wordpools/wasnorm_wordpool_576.txt	LTP299	ltpFR2	5	11	PIZZA	1079	n/a	n/a	0	0	0
2431.184	n/a	REC_WORD	1215592	wordpools/wasnorm_wordpool_576.txt	LTP299	ltpFR2	5	11	SAUSAGE	1238	n/a	n/a	0	0	0
2432.7	n/a	REC_WORD	1216350	wordpools/wasnorm_wordpool_576.txt	LTP299	ltpFR2	5	11	CHEST	295	n/a	n/a	0	0	0
2435.144	n/a	REC_WORD	1217572	wordpools/wasnorm_wordpool_576.txt	LTP299	ltpFR2	5	11	JURY	766	n/a	n/a	0	0	0
2440.074	n/a	REC_WORD	1220037	wordpools/wasnorm_wordpool_576.txt	LTP299	ltpFR2	5	11	GAVEL	627	n/a	n/a	0	0	0
2443.92	n/a	REC_WORD	1221960	wordpools/wasnorm_wordpool_576.txt	LTP299	ltpFR2	5	11	COMET	353	n/a	n/a	0	0	0
2457.748	n/a	REC_WORD	1228874	wordpools/wasnorm_wordpool_576.txt	LTP299	ltpFR2	5	11	COTTAGE	384	n/a	n/a	0	0	0
2490.932	n/a	DISTRACTOR	1245466	n/a	LTP299	ltpFR2	5	12	n/a	n/a	n/a	n/a	0	0	0
2490.932	n/a	START	1245466	n/a	LTP299	ltpFR2	5	n/a	n/a	n/a	18	n/a	n/a	n/a	n/a
2490.948	n/a	PROB	1245474	n/a	LTP299	ltpFR2	5	n/a	n/a	n/a	18	12	2	4	6
2492.85	n/a	PROB	1246425	n/a	LTP299	ltpFR2	5	n/a	n/a	n/a	18	15	6	2	7
2494.736	n/a	PROB	1247368	n/a	LTP299	ltpFR2	5	n/a	n/a	n/a	18	18	6	4	8
2496.47	n/a	PROB	1248235	n/a	LTP299	ltpFR2	5	n/a	n/a	n/a	18	24	7	9	8
2499.088	n/a	PROB	1249544	n/a	LTP299	ltpFR2	5	n/a	n/a	n/a	18	15	9	5	1
2501.022	n/a	PROB	1250511	n/a	LTP299	ltpFR2	5	n/a	n/a	n/a	18	11	6	2	3
2503.492	n/a	PROB	1251746	n/a	LTP299	ltpFR2	5	n/a	n/a	n/a	18	12	3	4	5
2505.276	n/a	PROB	1252638	n/a	LTP299	ltpFR2	5	n/a	n/a	n/a	18	12	2	7	3
2506.792	n/a	PROB	1253396	n/a	LTP299	ltpFR2	5	n/a	n/a	n/a	18	13	1	6	6
2508.28	n/a	PROB	1254140	n/a	LTP299	ltpFR2	5	n/a	n/a	n/a	18	15	7	5	3
2510.364	n/a	PROB	1255182	n/a	LTP299	ltpFR2	5	n/a	n/a	n/a	18	18	9	5	4
2512.832	n/a	PROB	1256416	n/a	LTP299	ltpFR2	5	n/a	n/a	n/a	18	20	9	4	7
2514.862	n/a	STOP	1257431	n/a	LTP299	ltpFR2	5	n/a	n/a	n/a	18	n/a	n/a	n/a	n/a
2516.06	n/a	WORD	1258030	wordpools/wasnorm_wordpool_576.txt	LTP299	ltpFR2	5	12	BELLY	119	n/a	n/a	0	0	0
2518.844	n/a	WORD	1259422	wordpools/wasnorm_wordpool_576.txt	LTP299	ltpFR2	5	12	BATHTUB	100	n/a	n/a	0	0	0
2521.556	n/a	WORD	1260778	wordpools/wasnorm_wordpool_576.txt	LTP299	ltpFR2	5	12	COUSIN	392	n/a	n/a	0	0	0
2524.292	n/a	WORD	1262146	wordpools/wasnorm_wordpool_576.txt	LTP299	ltpFR2	5	12	BUBBLE	183	n/a	n/a	0	0	0
2527.068	n/a	WORD	1263534	wordpools/wasnorm_wordpool_576.txt	LTP299	ltpFR2	5	12	STICKER	1382	n/a	n/a	0	0	0
2529.57	n/a	WORD	1264785	wordpools/wasnorm_wordpool_576.txt	LTP299	ltpFR2	5	12	NAPKIN	937	n/a	n/a	0	0	0
2532.124	n/a	WORD	1266062	wordpools/wasnorm_wordpool_576.txt	LTP299	ltpFR2	5	12	GOBLIN	645	n/a	n/a	0	0	0
2534.7	n/a	WORD	1267350	wordpools/wasnorm_wordpool_576.txt	LTP299	ltpFR2	5	12	DRAGON	492	n/a	n/a	0	0	0
2537.47	n/a	WORD	1268735	wordpools/wasnorm_wordpool_576.txt	LTP299	ltpFR2	5	12	MATCH	878	n/a	n/a	0	0	0
2539.92	n/a	WORD	1269960	wordpools/wasnorm_wordpool_576.txt	LTP299	ltpFR2	5	12	DUSTPAN	509	n/a	n/a	0	0	0
2542.65	n/a	WORD	1271325	wordpools/wasnorm_wordpool_576.txt	LTP299	ltpFR2	5	12	GRAPE	654	n/a	n/a	0	0	0
2545.21	n/a	WORD	1272605	wordpools/wasnorm_wordpool_576.txt	LTP299	ltpFR2	5	12	ANTLER	29	n/a	n/a	0	0	0
2547.988	n/a	WORD	1273994	wordpools/wasnorm_wordpool_576.txt	LTP299	ltpFR2	5	12	LADY	794	n/a	n/a	0	0	0
2550.612	n/a	WORD	1275306	wordpools/wasnorm_wordpool_576.txt	LTP299	ltpFR2	5	12	WOMAN	1620	n/a	n/a	0	0	0
2553.292	n/a	WORD	1276646	wordpools/wasnorm_wordpool_576.txt	LTP299	ltpFR2	5	12	SPONGE	1355	n/a	n/a	0	0	0
2556.078	n/a	WORD	1278039	wordpools/wasnorm_wordpool_576.txt	LTP299	ltpFR2	5	12	DOUGHNUT	490	n/a	n/a	0	0	0
2558.846	n/a	WORD	1279423	wordpools/wasnorm_wordpool_576.txt	LTP299	ltpFR2	5	12	MOP	916	n/a	n/a	0	0	0
2561.282	n/a	WORD	1280641	wordpools/wasnorm_wordpool_576.txt	LTP299	ltpFR2	5	12	STOMACH	1384	n/a	n/a	0	0	0
2563.882	n/a	WORD	1281941	wordpools/wasnorm_wordpool_576.txt	LTP299	ltpFR2	5	12	FRUIT	610	n/a	n/a	0	0	0
2566.618	n/a	WORD	1283309	wordpools/wasnorm_wordpool_576.txt	LTP299	ltpFR2	5	12	GANGSTER	620	n/a	n/a	0	0	0
2569.378	n/a	WORD	1284689	wordpools/wasnorm_wordpool_576.txt	LTP299	ltpFR2	5	12	SCARECROW	1245	n/a	n/a	0	0	0
2572.14	n/a	WORD	1286070	wordpools/wasnorm_wordpool_576.txt	LTP299	ltpFR2	5	12	HEART	697	n/a	n/a	0	0	0
2574.876	n/a	WORD	1287438	wordpools/wasnorm_wordpool_576.txt	LTP299	ltpFR2	5	12	BARREL	91	n/a	n/a	0	0	0
2577.412	n/a	WORD	1288706	wordpools/wasnorm_wordpool_576.txt	LTP299	ltpFR2	5	12	NECKLACE	940	n/a	n/a	0	0	0
2579.02	n/a	START	1289510	n/a	LTP299	ltpFR2	5	n/a	n/a	n/a	19	n/a	n/a	n/a	n/a
2579.862	n/a	DISTRACTOR	1289931	n/a	LTP299	ltpFR2	5	12	n/a	n/a	n/a	n/a	0	0	0
2579.868	n/a	PROB	1289934	n/a	LTP299	ltpFR2	5	n/a	n/a	n/a	19	15	5	1	9
2582.086	n/a	PROB	1291043	n/a	LTP299	ltpFR2	5	n/a	n/a	n/a	19	18	4	6	8
2583.57	n/a	PROB	1291785	n/a	LTP299	ltpFR2	5	n/a	n/a	n/a	19	19	6	8	5
2586.574	n/a	PROB	1293287	n/a	LTP299	ltpFR2	5	n/a	n/a	n/a	19	15	7	4	4
2588.408	n/a	PROB	1294204	n/a	LTP299	ltpFR2	5	n/a	n/a	n/a	19	18	1	9	8
2589.808	n/a	PROB	1294904	n/a	LTP299	ltpFR2	5	n/a	n/a	n/a	19	10	4	4	2
2591.294	n/a	PROB	1295647	n/a	LTP299	ltpFR2	5	n/a	n/a	n/a	19	17	8	1	8
2592.944	n/a	PROB	1296472	n/a	LTP299	ltpFR2	5	n/a	n/a	n/a	19	19	7	5	7
2595.008	n/a	PROB	1297504	n/a	LTP299	ltpFR2	5	n/a	n/a	n/a	19	17	8	5	4
2596.848	n/a	PROB	1298424	n/a	LTP299	ltpFR2	5	n/a	n/a	n/a	19	8	4	2	2
2598.8	n/a	PROB	1299400	n/a	LTP299	ltpFR2	5	n/a	n/a	n/a	19	10	2	4	4
2600.168	n/a	PROB	1300084	n/a	LTP299	ltpFR2	5	n/a	n/a	n/a	19	18	7	3	8
2602.152	n/a	STOP	1301076	n/a	LTP299	ltpFR2	5	n/a	n/a	n/a	19	n/a	n/a	n/a	n/a
2604.836	n/a	REC_START	1302418	n/a	LTP299	ltpFR2	5	12	n/a	n/a	n/a	n/a	0	0	0
2610.588	n/a	REC_WORD	1305294	wordpools/wasnorm_wordpool_576.txt	LTP299	ltpFR2	5	12	BELLY	119	n/a	n/a	0	0	0
2611.638	n/a	REC_WORD	1305819	wordpools/wasnorm_wordpool_576.txt	LTP299	ltpFR2	5	12	STOMACH	1384	n/a	n/a	0	0	0
2613.968	n/a	REC_WORD	1306984	wordpools/wasnorm_wordpool_576.txt	LTP299	ltpFR2	5	12	BATHTUB	100	n/a	n/a	0	0	0
2615.79	n/a	REC_WORD	1307895	wordpools/wasnorm_wordpool_576.txt	LTP299	ltpFR2	5	12	COUSIN	392	n/a	n/a	0	0	0
2621.034	n/a	REC_WORD	1310517	wordpools/wasnorm_wordpool_576.txt	LTP299	ltpFR2	5	12	STICKER	1382	n/a	n/a	0	0	0
2626.322	n/a	REC_WORD	1313161	wordpools/wasnorm_wordpool_576.txt	LTP299	ltpFR2	5	12	LADY	794	n/a	n/a	0	0	0
2627.462	n/a	REC_WORD	1313731	wordpools/wasnorm_wordpool_576.txt	LTP299	ltpFR2	5	12	WOMAN	1620	n/a	n/a	0	0	0
2630.462	n/a	REC_WORD	1315231	wordpools/wasnorm_wordpool_576.txt	LTP299	ltpFR2	5	12	MATCH	878	n/a	n/a	0	0	0
2631.716	n/a	REC_WORD	1315858	wordpools/wasnorm_wordpool_576.txt	LTP299	ltpFR2	5	12	DUSTPAN	509	n/a	n/a	0	0	0
2633.838	n/a	REC_WORD	1316919	wordpools/wasnorm_wordpool_576.txt	LTP299	ltpFR2	5	12	GRAPE	654	n/a	n/a	0	0	0
2634.92	n/a	REC_WORD	1317460	wordpools/wasnorm_wordpool_576.txt	LTP299	ltpFR2	5	12	FRUIT	610	n/a	n/a	0	0	0
2638.446	n/a	REC_WORD	1319223	wordpools/wasnorm_wordpool_576.txt	LTP299	ltpFR2	5	12	GOBLIN	645	n/a	n/a	0	0	0
2640.048	n/a	REC_WORD	1320024	wordpools/wasnorm_wordpool_576.txt	LTP299	ltpFR2	5	12	DRAGON	492	n/a	n/a	0	0	0
2642.006	n/a	REC_WORD	1321003	wordpools/wasnorm_wordpool_576.txt	LTP299	ltpFR2	5	12	NECKLACE	940	n/a	n/a	0	0	0
2643.276	n/a	REC_WORD	1321638	wordpools/wasnorm_wordpool_576.txt	LTP299	ltpFR2	5	12	ANTLER	29	n/a	n/a	0	0	0
2663.438	n/a	REC_WORD	1331719	wordpools/wasnorm_wordpool_576.txt	LTP299	ltpFR2	5	12	HEART	697	n/a	n/a	0	0	0
2664.666	n/a	REC_WORD	1332333	wordpools/wasnorm_wordpool_576.txt	LTP299	ltpFR2	5	12	BARREL	91	n/a	n/a	0	0	0
2671.232	n/a	REC_WORD	1335616	wordpools/wasnorm_wordpool_576.txt	LTP299	ltpFR2	5	12	SCARECROW	1245	n/a	n/a	0	0	0
2695.274	n/a	WORD	1347637	wordpools/wasnorm_wordpool_576.txt	LTP299	ltpFR2	5	13	RIFLE	1192	n/a	n/a	0	0	0
2697.76	n/a	WORD	1348880	wordpools/wasnorm_wordpool_576.txt	LTP299	ltpFR2	5	13	SUNSET	1408	n/a	n/a	0	0	0
2700.33	n/a	WORD	1350165	wordpools/wasnorm_wordpool_576.txt	LTP299	ltpFR2	5	13	RUG	1215	n/a	n/a	0	0	0
2703.016	n/a	WORD	1351508	wordpools/wasnorm_wordpool_576.txt	LTP299	ltpFR2	5	13	CASKET	255	n/a	n/a	0	0	0
2705.484	n/a	WORD	1352742	wordpools/wasnorm_wordpool_576.txt	LTP299	ltpFR2	5	13	TOMBSTONE	1478	n/a	n/a	0	0	0
2708.02	n/a	WORD	1354010	wordpools/wasnorm_wordpool_576.txt	LTP299	ltpFR2	5	13	GRAVE	658	n/a	n/a	0	0	0
2710.786	n/a	WORD	1355393	wordpools/wasnorm_wordpool_576.txt	LTP299	ltpFR2	5	13	FRANCE	601	n/a	n/a	0	0	0
2713.328	n/a	WORD	1356664	wordpools/wasnorm_wordpool_576.txt	LTP299	ltpFR2	5	13	FEMALE	559	n/a	n/a	0	0	0
2716.008	n/a	WORD	1358004	wordpools/wasnorm_wordpool_576.txt	LTP299	ltpFR2	5	13	LAKE	796	n/a	n/a	0	0	0
2718.66	n/a	WORD	1359330	wordpools/wasnorm_wordpool_576.txt	LTP299	ltpFR2	5	13	DRESS	495	n/a	n/a	0	0	0
2721.452	n/a	WORD	1360726	wordpools/wasnorm_wordpool_576.txt	LTP299	ltpFR2	5	13	MESSAGE	888	n/a	n/a	0	0	0
2723.98	n/a	WORD	1361990	wordpools/wasnorm_wordpool_576.txt	LTP299	ltpFR2	5	13	MAILMAN	858	n/a	n/a	0	0	0
2726.732	n/a	WORD	1363366	wordpools/wasnorm_wordpool_576.txt	LTP299	ltpFR2	5	13	PARROT	1015	n/a	n/a	0	0	0
2729.208	n/a	WORD	1364604	wordpools/wasnorm_wordpool_576.txt	LTP299	ltpFR2	5	13	PAIL	1002	n/a	n/a	0	0	0
2731.67	n/a	WORD	1365835	wordpools/wasnorm_wordpool_576.txt	LTP299	ltpFR2	5	13	LAVA	804	n/a	n/a	0	0	0
2734.406	n/a	WORD	1367203	wordpools/wasnorm_wordpool_576.txt	LTP299	ltpFR2	5	13	ROOSTER	1209	n/a	n/a	0	0	0
2737.01	n/a	WORD	1368505	wordpools/wasnorm_wordpool_576.txt	LTP299	ltpFR2	5	13	PAPER	1011	n/a	n/a	0	0	0
2739.732	n/a	WORD	1369866	wordpools/wasnorm_wordpool_576.txt	LTP299	ltpFR2	5	13	MARKER	870	n/a	n/a	0	0	0
2742.396	n/a	WORD	1371198	wordpools/wasnorm_wordpool_576.txt	LTP299	ltpFR2	5	13	BOARD	143	n/a	n/a	0	0	0
2744.87	n/a	WORD	1372435	wordpools/wasnorm_wordpool_576.txt	LTP299	ltpFR2	5	13	ZEBRA	1635	n/a	n/a	0	0	0
2747.566	n/a	WORD	1373783	wordpools/wasnorm_wordpool_576.txt	LTP299	ltpFR2	5	13	WRIST	1626	n/a	n/a	0	0	0
2750.218	n/a	WORD	1375109	wordpools/wasnorm_wordpool_576.txt	LTP299	ltpFR2	5	13	BLENDER	136	n/a	n/a	0	0	0
2752.876	n/a	WORD	1376438	wordpools/wasnorm_wordpool_576.txt	LTP299	ltpFR2	5	13	STREAM	1392	n/a	n/a	0	0	0
2755.422	n/a	WORD	1377711	wordpools/wasnorm_wordpool_576.txt	LTP299	ltpFR2	5	13	DENIM	446	n/a	n/a	0	0	0
2757.032	n/a	START	1378516	n/a	LTP299	ltpFR2	5	n/a	n/a	n/a	20	n/a	n/a	n/a	n/a
2757.84	n/a	DISTRACTOR	1378920	n/a	LTP299	ltpFR2	5	13	n/a	n/a	n/a	n/a	0	0	0
2757.848	n/a	PROB	1378924	n/a	LTP299	ltpFR2	5	n/a	n/a	n/a	20	17	8	4	5
2760.376	n/a	PROB	1380188	n/a	LTP299	ltpFR2	5	n/a	n/a	n/a	20	15	6	7	2
2762.494	n/a	PROB	1381247	n/a	LTP299	ltpFR2	5	n/a	n/a	n/a	20	15	3	6	6
2765.08	n/a	PROB	1382540	n/a	LTP299	ltpFR2	5	n/a	n/a	n/a	20	17	6	7	4
2766.93	n/a	PROB	1383465	n/a	LTP299	ltpFR2	5	n/a	n/a	n/a	20	21	7	5	9
2769.25	n/a	PROB	1384625	n/a	LTP299	ltpFR2	5	n/a	n/a	n/a	20	12	7	1	4
2771.95	n/a	PROB	1385975	n/a	LTP299	ltpFR2	5	n/a	n/a	n/a	20	16	6	7	3
2774.42	n/a	PROB	1387210	n/a	LTP299	ltpFR2	5	n/a	n/a	n/a	20	14	9	4	1
2776.904	n/a	PROB	1388452	n/a	LTP299	ltpFR2	5	n/a	n/a	n/a	20	4	2	1	1
2781.032	n/a	STOP	1390516	n/a	LTP299	ltpFR2	5	n/a	n/a	n/a	20	n/a	n/a	n/a	n/a
2782.926	n/a	REC_START	1391463	n/a	LTP299	ltpFR2	5	13	n/a	n/a	n/a	n/a	0	0	0
2784.754	n/a	REC_WORD	1392377	wordpools/wasnorm_wordpool_576.txt	LTP299	ltpFR2	5	13	STREAM	1392	n/a	n/a	0	0	0
2786.204	n/a	REC_WORD	1393102	wordpools/wasnorm_wordpool_576.txt	LTP299	ltpFR2	5	13	DENIM	446	n/a	n/a	0	0	0
2790.954	n/a	REC_WORD	1395477	wordpools/wasnorm_wordpool_576.txt	LTP299	ltpFR2	5	13	ROOSTER	1209	n/a	n/a	0	0	0
2792.27	n/a	REC_WORD	1396135	wordpools/wasnorm_wordpool_576.txt	LTP299	ltpFR2	5	13	BOARD	143	n/a	n/a	0	0	0
2794.376	n/a	REC_WORD	1397188	wordpools/wasnorm_wordpool_576.txt	LTP299	ltpFR2	5	13	ZEBRA	1635	n/a	n/a	0	0	0
2798.24	n/a	REC_WORD	1399120	wordpools/wasnorm_wordpool_576.txt	LTP299	ltpFR2	5	13	PARROT	1015	n/a	n/a	0	0	0
2799.402	n/a	REC_WORD	1399701	wordpools/wasnorm_wordpool_576.txt	LTP299	ltpFR2	5	13	PAIL	1002	n/a	n/a	0	0	0
2800.52	n/a	REC_WORD	1400260	wordpools/wasnorm_wordpool_576.txt	LTP299	ltpFR2	5	13	MAILMAN	858	n/a	n/a	0	0	0
2828.778	n/a	REC_WORD	1414389	wordpools/wasnorm_wordpool_576.txt	LTP299	ltpFR2	5	13	LAVA	804	n/a	n/a	0	0	0
2873.398	n/a	WORD	1436699	wordpools/wasnorm_wordpool_576.txt	LTP299	ltpFR2	5	14	CHAPEL	280	n/a	n/a	0	0	0
2875.998	n/a	WORD	1437999	wordpools/wasnorm_wordpool_576.txt	LTP299	ltpFR2	5	14	CATCHER	258	n/a	n/a	0	0	0
2878.75	n/a	WORD	1439375	wordpools/wasnorm_wordpool_576.txt	LTP299	ltpFR2	5	14	SIBLING	1301	n/a	n/a	0	0	0
2881.42	n/a	WORD	1440710	wordpools/wasnorm_wordpool_576.txt	LTP299	ltpFR2	5	14	MARSH	874	n/a	n/a	0	0	0
2884.238	n/a	WORD	1442119	wordpools/wasnorm_wordpool_576.txt	LTP299	ltpFR2	5	14	PUDDLE	1140	n/a	n/a	0	0	0
2887.058	n/a	WORD	1443529	wordpools/wasnorm_wordpool_576.txt	LTP299	ltpFR2	5	14	LASER	801	n/a	n/a	0	0	0
2889.592	n/a	WORD	1444796	wordpools/wasnorm_wordpool_576.txt	LTP299	ltpFR2	5	14	FRIAR	605	n/a	n/a	0	0	0
2892.346	n/a	WORD	1446173	wordpools/wasnorm_wordpool_576.txt	LTP299	ltpFR2	5	14	APRON	35	n/a	n/a	0	0	0
2895.082	n/a	WORD	1447541	wordpools/wasnorm_wordpool_576.txt	LTP299	ltpFR2	5	14	DRILL	497	n/a	n/a	0	0	0
2897.782	n/a	WORD	1448891	wordpools/wasnorm_wordpool_576.txt	LTP299	ltpFR2	5	14	MONSTER	912	n/a	n/a	0	0	0
2900.252	n/a	WORD	1450126	wordpools/wasnorm_wordpool_576.txt	LTP299	ltpFR2	5	14	HOUND	724	n/a	n/a	0	0	0
2902.954	n/a	WORD	1451477	wordpools/wasnorm_wordpool_576.txt	LTP299	ltpFR2	5	14	POPCORN	1104	n/a	n/a	0	0	0
2905.538	n/a	WORD	1452769	wordpools/wasnorm_wordpool_576.txt	LTP299	ltpFR2	5	14	ACTRESS	6	n/a	n/a	0	0	0
2908.126	n/a	WORD	1454063	wordpools/wasnorm_wordpool_576.txt	LTP299	ltpFR2	5	14	PORTRAIT	1111	n/a	n/a	0	0	0
2910.76	n/a	WORD	1455380	wordpools/wasnorm_wordpool_576.txt	LTP299	ltpFR2	5	14	FOOT	590	n/a	n/a	0	0	0
2913.546	n/a	WORD	1456773	wordpools/wasnorm_wordpool_576.txt	LTP299	ltpFR2	5	14	FUNGUS	614	n/a	n/a	0	0	0
2916.248	n/a	WORD	1458124	wordpools/wasnorm_wordpool_576.txt	LTP299	ltpFR2	5	14	BOUQUET	157	n/a	n/a	0	0	0
2918.682	n/a	WORD	1459341	wordpools/wasnorm_wordpool_576.txt	LTP299	ltpFR2	5	14	BISON	131	n/a	n/a	0	0	0
2921.352	n/a	WORD	1460676	wordpools/wasnorm_wordpool_576.txt	LTP299	ltpFR2	5	14	KEEPER	769	n/a	n/a	0	0	0
2923.836	n/a	WORD	1461918	wordpools/wasnorm_wordpool_576.txt	LTP299	ltpFR2	5	14	SHORTS	1293	n/a	n/a	0	0	0
2926.506	n/a	WORD	1463253	wordpools/wasnorm_wordpool_576.txt	LTP299	ltpFR2	5	14	RUST	1219	n/a	n/a	0	0	0
2929.192	n/a	WORD	1464596	wordpools/wasnorm_wordpool_576.txt	LTP299	ltpFR2	5	14	FLAG	573	n/a	n/a	0	0	0
2931.626	n/a	WORD	1465813	wordpools/wasnorm_wordpool_576.txt	LTP299	ltpFR2	5	14	SCRIBBLE	1256	n/a	n/a	0	0	0
2934.396	n/a	WORD	1467198	wordpools/wasnorm_wordpool_576.txt	LTP299	ltpFR2	5	14	SUPPER	1411	n/a	n/a	0	0	0
2936.0	n/a	START	1468000	n/a	LTP299	ltpFR2	5	n/a	n/a	n/a	21	n/a	n/a	n/a	n/a
2936.91	n/a	DISTRACTOR	1468455	n/a	LTP299	ltpFR2	5	14	n/a	n/a	n/a	n/a	0	0	0
2936.916	n/a	PROB	1468458	n/a	LTP299	ltpFR2	5	n/a	n/a	n/a	21	16	6	3	7
2938.83	n/a	PROB	1469415	n/a	LTP299	ltpFR2	5	n/a	n/a	n/a	21	18	4	9	5
2941.282	n/a	PROB	1470641	n/a	LTP299	ltpFR2	5	n/a	n/a	n/a	21	15	5	4	6
2942.884	n/a	PROB	1471442	n/a	LTP299	ltpFR2	5	n/a	n/a	n/a	21	22	9	6	7
2945.252	n/a	PROB	1472626	n/a	LTP299	ltpFR2	5	n/a	n/a	n/a	21	16	7	6	3
2946.77	n/a	PROB	1473385	n/a	LTP299	ltpFR2	5	n/a	n/a	n/a	21	15	9	5	1
2948.922	n/a	PROB	1474461	n/a	LTP299	ltpFR2	5	n/a	n/a	n/a	21	18	5	7	6
2951.258	n/a	PROB	1475629	n/a	LTP299	ltpFR2	5	n/a	n/a	n/a	21	22	8	6	8
2953.892	n/a	PROB	1476946	n/a	LTP299	ltpFR2	5	n/a	n/a	n/a	21	20	8	6	6
2955.844	n/a	PROB	1477922	n/a	LTP299	ltpFR2	5	n/a	n/a	n/a	21	15	2	9	4
2960.0	n/a	STOP	1480000	n/a	LTP299	ltpFR2	5	n/a	n/a	n/a	21	n/a	n/a	n/a	n/a
2961.83	n/a	REC_START	1480915	n/a	LTP299	ltpFR2	5	14	n/a	n/a	n/a	n/a	0	0	0
2965.158	n/a	REC_WORD	1482579	wordpools/wasnorm_wordpool_576.txt	LTP299	ltpFR2	5	14	SHORTS	1293	n/a	n/a	0	0	0
2966.322	n/a	REC_WORD	1483161	wordpools/wasnorm_wordpool_576.txt	LTP299	ltpFR2	5	14	SCRIBBLE	1256	n/a	n/a	0	0	0
2983.512	n/a	REC_WORD	1491756	wordpools/wasnorm_wordpool_576.txt	LTP299	ltpFR2	5	14	FRIAR	605	n/a	n/a	0	0	0
2988.618	n/a	REC_WORD	1494309	wordpools/wasnorm_wordpool_576.txt	LTP299	ltpFR2	5	14	CHAPEL	280	n/a	n/a	0	0	0
2989.76	n/a	REC_WORD	1494880	wordpools/wasnorm_wordpool_576.txt	LTP299	ltpFR2	5	14	MARSH	874	n/a	n/a	0	0	0
2991.338	n/a	REC_WORD	1495669	wordpools/wasnorm_wordpool_576.txt	LTP299	ltpFR2	5	14	MONSTER	912	n/a	n/a	0	0	0
2992.438	n/a	REC_WORD	1496219	wordpools/wasnorm_wordpool_576.txt	LTP299	ltpFR2	5	14	LASER	801	n/a	n/a	0	0	0
2993.55	n/a	REC_WORD	1496775	wordpools/wasnorm_wordpool_576.txt	LTP299	ltpFR2	5	14	DRILL	497	n/a	n/a	0	0	0
2994.78	n/a	REC_WORD	1497390	wordpools/wasnorm_wordpool_576.txt	LTP299	ltpFR2	5	14	BANQUET	86	n/a	n/a	0	0	0
2996.074	n/a	REC_WORD	1498037	wordpools/wasnorm_wordpool_576.txt	LTP299	ltpFR2	5	14	BISON	131	n/a	n/a	0	0	0
2997.672	n/a	REC_WORD	1498836	wordpools/wasnorm_wordpool_576.txt	LTP299	ltpFR2	5	14	SUPPER	1411	n/a	n/a	0	0	0
3012.266	n/a	REC_WORD	1506133	wordpools/wasnorm_wordpool_576.txt	LTP299	ltpFR2	5	14	SIBLING	1301	n/a	n/a	0	0	0
3018.428	n/a	REC_WORD	1509214	wordpools/wasnorm_wordpool_576.txt	LTP299	ltpFR2	5	14	FOOT	590	n/a	n/a	0	0	0
3019.284	n/a	REC_WORD	1509642	wordpools/wasnorm_wordpool_576.txt	LTP299	ltpFR2	5	14	FUNGUS	614	n/a	n/a	0	0	0
3020.32	n/a	REC_WORD	1510160	wordpools/wasnorm_wordpool_576.txt	LTP299	ltpFR2	5	14	PORTRAIT	1111	n/a	n/a	0	0	0
3021.302	n/a	REC_WORD	1510651	wordpools/wasnorm_wordpool_576.txt	LTP299	ltpFR2	5	14	ACTRESS	6	n/a	n/a	0	0	0
3052.27	n/a	WORD	1526135	wordpools/wasnorm_wordpool_576.txt	LTP299	ltpFR2	5	15	JELLY	755	n/a	n/a	0	0	0
3055.034	n/a	WORD	1527517	wordpools/wasnorm_wordpool_576.txt	LTP299	ltpFR2	5	15	HAND	683	n/a	n/a	0	0	0
3057.47	n/a	WORD	1528735	wordpools/wasnorm_wordpool_576.txt	LTP299	ltpFR2	5	15	DRUG	501	n/a	n/a	0	0	0
3060.11	n/a	WORD	1530055	wordpools/wasnorm_wordpool_576.txt	LTP299	ltpFR2	5	15	BADGE	68	n/a	n/a	0	0	0
3062.606	n/a	WORD	1531303	wordpools/wasnorm_wordpool_576.txt	LTP299	ltpFR2	5	15	SPARROW	1347	n/a	n/a	0	0	0
3065.214	n/a	WORD	1532607	wordpools/wasnorm_wordpool_576.txt	LTP299	ltpFR2	5	15	PERMIT	1051	n/a	n/a	0	0	0
3067.694	n/a	WORD	1533847	wordpools/wasnorm_wordpool_576.txt	LTP299	ltpFR2	5	15	SURVEY	1414	n/a	n/a	0	0	0
3070.436	n/a	WORD	1535218	wordpools/wasnorm_wordpool_576.txt	LTP299	ltpFR2	5	15	CYCLONE	431	n/a	n/a	0	0	0
3072.964	n/a	WORD	1536482	wordpools/wasnorm_wordpool_576.txt	LTP299	ltpFR2	5	15	MEDAL	885	n/a	n/a	0	0	0
3075.572	n/a	WORD	1537786	wordpools/wasnorm_wordpool_576.txt	LTP299	ltpFR2	5	15	SHARK	1275	n/a	n/a	0	0	0
3078.304	n/a	WORD	1539152	wordpools/wasnorm_wordpool_576.txt	LTP299	ltpFR2	5	15	OMELET	976	n/a	n/a	0	0	0
3080.942	n/a	WORD	1540471	wordpools/wasnorm_wordpool_576.txt	LTP299	ltpFR2	5	15	YOLK	1633	n/a	n/a	0	0	0
3083.774	n/a	WORD	1541887	wordpools/wasnorm_wordpool_576.txt	LTP299	ltpFR2	5	15	CREVICE	405	n/a	n/a	0	0	0
3086.278	n/a	WORD	1543139	wordpools/wasnorm_wordpool_576.txt	LTP299	ltpFR2	5	15	VALLEY	1545	n/a	n/a	0	0	0
3088.896	n/a	WORD	1544448	wordpools/wasnorm_wordpool_576.txt	LTP299	ltpFR2	5	15	EGYPT	519	n/a	n/a	0	0	0
3091.482	n/a	WORD	1545741	wordpools/wasnorm_wordpool_576.txt	LTP299	ltpFR2	5	15	TWIG	1527	n/a	n/a	0	0	0
3094.0	n/a	WORD	1547000	wordpools/wasnorm_wordpool_576.txt	LTP299	ltpFR2	5	15	SLUG	1329	n/a	n/a	0	0	0
3096.752	n/a	WORD	1548376	wordpools/wasnorm_wordpool_576.txt	LTP299	ltpFR2	5	15	MASK	876	n/a	n/a	0	0	0
3099.354	n/a	WORD	1549677	wordpools/wasnorm_wordpool_576.txt	LTP299	ltpFR2	5	15	OZONE	996	n/a	n/a	0	0	0
3101.906	n/a	WORD	1550953	wordpools/wasnorm_wordpool_576.txt	LTP299	ltpFR2	5	15	KNIFE	785	n/a	n/a	0	0	0
3104.492	n/a	WORD	1552246	wordpools/wasnorm_wordpool_576.txt	LTP299	ltpFR2	5	15	SPOON	1357	n/a	n/a	0	0	0
3107.178	n/a	WORD	1553589	wordpools/wasnorm_wordpool_576.txt	LTP299	ltpFR2	5	15	TROUT	1511	n/a	n/a	0	0	0
3109.896	n/a	WORD	1554948	wordpools/wasnorm_wordpool_576.txt	LTP299	ltpFR2	5	15	SERVANT	1271	n/a	n/a	0	0	0
3112.466	n/a	WORD	1556233	wordpools/wasnorm_wordpool_576.txt	LTP299	ltpFR2	5	15	WAITER	1580	n/a	n/a	0	0	0
3114.084	n/a	START	1557042	n/a	LTP299	ltpFR2	5	n/a	n/a	n/a	22	n/a	n/a	n/a	n/a
3115.152	n/a	DISTRACTOR	1557576	n/a	LTP299	ltpFR2	5	15	n/a	n/a	n/a	n/a	0	0	0
3115.168	n/a	PROB	1557584	n/a	LTP299	ltpFR2	5	n/a	n/a	n/a	22	10	8	1	1
3116.788	n/a	PROB	1558394	n/a	LTP299	ltpFR2	5	n/a	n/a	n/a	22	17	7	2	8
3118.704	n/a	PROB	1559352	n/a	LTP299	ltpFR2	5	n/a	n/a	n/a	22	13	3	1	9
3120.158	n/a	PROB	1560079	n/a	LTP299	ltpFR2	5	n/a	n/a	n/a	22	17	7	8	2
3122.024	n/a	PROB	1561012	n/a	LTP299	ltpFR2	5	n/a	n/a	n/a	22	18	7	2	9
3123.774	n/a	PROB	1561887	n/a	LTP299	ltpFR2	5	n/a	n/a	n/a	22	9	4	2	3
3125.61	n/a	PROB	1562805	n/a	LTP299	ltpFR2	5	n/a	n/a	n/a	22	9	1	4	4
3126.878	n/a	PROB	1563439	n/a	LTP299	ltpFR2	5	n/a	n/a	n/a	22	15	8	3	4
3130.064	n/a	PROB	1565032	n/a	LTP299	ltpFR2	5	n/a	n/a	n/a	22	18	6	9	3
3132.482	n/a	PROB	1566241	n/a	LTP299	ltpFR2	5	n/a	n/a	n/a	22	13	1	8	4
3134.12	n/a	PROB	1567060	n/a	LTP299	ltpFR2	5	n/a	n/a	n/a	22	10	1	3	6
3135.668	n/a	PROB	1567834	n/a	LTP299	ltpFR2	5	n/a	n/a	n/a	22	8	5	1	2
3137.282	n/a	STOP	1568641	n/a	LTP299	ltpFR2	5	n/a	n/a	n/a	22	n/a	n/a	n/a	n/a
3140.006	n/a	REC_START	1570003	n/a	LTP299	ltpFR2	5	15	n/a	n/a	n/a	n/a	0	0	0
3141.504	n/a	REC_WORD	1570752	wordpools/wasnorm_wordpool_576.txt	LTP299	ltpFR2	5	15	JELLY	755	n/a	n/a	0	0	0
3142.698	n/a	REC_WORD	1571349	wordpools/wasnorm_wordpool_576.txt	LTP299	ltpFR2	5	15	HAND	683	n/a	n/a	0	0	0
3147.23	n/a	REC_WORD	1573615	wordpools/wasnorm_wordpool_576.txt	LTP299	ltpFR2	5	15	SPARROW	1347	n/a	n/a	0	0	0
3148.626	n/a	REC_WORD	1574313	wordpools/wasnorm_wordpool_576.txt	LTP299	ltpFR2	5	15	YOLK	1633	n/a	n/a	0	0	0
3151.618	n/a	REC_WORD	1575809	wordpools/wasnorm_wordpool_576.txt	LTP299	ltpFR2	5	15	TROUT	1511	n/a	n/a	0	0	0
3153.948	n/a	REC_WORD	1576974	wordpools/wasnorm_wordpool_576.txt	LTP299	ltpFR2	5	15	EGYPT	519	n/a	n/a	0	0	0
3157.024	n/a	REC_WORD	1578512	wordpools/wasnorm_wordpool_576.txt	LTP299	ltpFR2	5	15	SPOON	1357	n/a	n/a	0	0	0
3158.21	n/a	REC_WORD	1579105	wordpools/wasnorm_wordpool_576.txt	LTP299	ltpFR2	5	15	KNIFE	785	n/a	n/a	0	0	0
3160.108	n/a	REC_WORD	1580054	wordpools/wasnorm_wordpool_576.txt	LTP299	ltpFR2	5	15	TWIG	1527	n/a	n/a	0	0	0
3161.168	n/a	REC_WORD	1580584	wordpools/wasnorm_wordpool_576.txt	LTP299	ltpFR2	5	15	OZONE	996	n/a	n/a	0	0	0
3177.114	n/a	REC_WORD	1588557	wordpools/wasnorm_wordpool_576.txt	LTP299	ltpFR2	5	15	DRUG	501	n/a	n/a	0	0	0
3178.508	n/a	REC_WORD	1589254	wordpools/wasnorm_wordpool_576.txt	LTP299	ltpFR2	5	15	PERMIT	1051	n/a	n/a	0	0	0
3179.492	n/a	REC_WORD	1589746	wordpools/wasnorm_wordpool_576.txt	LTP299	ltpFR2	5	15	BADGE	68	n/a	n/a	0	0	0
3181.32	n/a	REC_WORD	1590660	wordpools/wasnorm_wordpool_576.txt	LTP299	ltpFR2	5	15	MEDAL	885	n/a	n/a	0	0	0
3230.426	n/a	DISTRACTOR	1615213	n/a	LTP299	ltpFR2	5	16	n/a	n/a	n/a	n/a	0	0	0
3230.426	n/a	START	1615213	n/a	LTP299	ltpFR2	5	n/a	n/a	n/a	23	n/a	n/a	n/a	n/a
3230.44	n/a	PROB	1615220	n/a	LTP299	ltpFR2	5	n/a	n/a	n/a	23	16	8	5	3
3233.826	n/a	PROB	1616913	n/a	LTP299	ltpFR2	5	n/a	n/a	n/a	23	12	6	1	5
3236.196	n/a	PROB	1618098	n/a	LTP299	ltpFR2	5	n/a	n/a	n/a	23	17	9	5	3
3239.848	n/a	PROB	1619924	n/a	LTP299	ltpFR2	5	n/a	n/a	n/a	23	13	3	3	7
3241.85	n/a	PROB	1620925	n/a	LTP299	ltpFR2	5	n/a	n/a	n/a	23	5	1	1	3
3242.902	n/a	PROB	1621451	n/a	LTP299	ltpFR2	5	n/a	n/a	n/a	23	19	7	7	5
3244.87	n/a	PROB	1622435	n/a	LTP299	ltpFR2	5	n/a	n/a	n/a	23	15	6	6	3
3246.238	n/a	PROB	1623119	n/a	LTP299	ltpFR2	5	n/a	n/a	n/a	23	16	9	4	3
3248.754	n/a	PROB	1624377	n/a	LTP299	ltpFR2	5	n/a	n/a	n/a	23	14	5	8	1
3251.092	n/a	PROB	1625546	n/a	LTP299	ltpFR2	5	n/a	n/a	n/a	23	16	2	7	7
3254.426	n/a	STOP	1627213	n/a	LTP299	ltpFR2	5	n/a	n/a	n/a	23	n/a	n/a	n/a	n/a
3255.588	n/a	WORD	1627794	wordpools/wasnorm_wordpool_576.txt	LTP299	ltpFR2	5	16	CRAB	397	n/a	n/a	0	0	0
3258.398	n/a	WORD	1629199	wordpools/wasnorm_wordpool_576.txt	LTP299	ltpFR2	5	16	HAMPER	682	n/a	n/a	0	0	0
3261.034	n/a	WORD	1630517	wordpools/wasnorm_wordpool_576.txt	LTP299	ltpFR2	5	16	WASHER	1592	n/a	n/a	0	0	0
3263.61	n/a	WORD	1631805	wordpools/wasnorm_wordpool_576.txt	LTP299	ltpFR2	5	16	PILOT	1070	n/a	n/a	0	0	0
3266.23	n/a	WORD	1633115	wordpools/wasnorm_wordpool_576.txt	LTP299	ltpFR2	5	16	PIMPLE	1071	n/a	n/a	0	0	0
3268.848	n/a	WORD	1634424	wordpools/wasnorm_wordpool_576.txt	LTP299	ltpFR2	5	16	CLAMP	316	n/a	n/a	0	0	0
3271.418	n/a	WORD	1635709	wordpools/wasnorm_wordpool_576.txt	LTP299	ltpFR2	5	16	PASSAGE	1019	n/a	n/a	0	0	0
3274.176	n/a	WORD	1637088	wordpools/wasnorm_wordpool_576.txt	LTP299	ltpFR2	5	16	BINDER	127	n/a	n/a	0	0	0
3276.838	n/a	WORD	1638419	wordpools/wasnorm_wordpool_576.txt	LTP299	ltpFR2	5	16	CANDY	230	n/a	n/a	0	0	0
3279.298	n/a	WORD	1639649	wordpools/wasnorm_wordpool_576.txt	LTP299	ltpFR2	5	16	PASTRY	1022	n/a	n/a	0	0	0
3281.942	n/a	WORD	1640971	wordpools/wasnorm_wordpool_576.txt	LTP299	ltpFR2	5	16	BACKBONE	66	n/a	n/a	0	0	0
3284.502	n/a	WORD	1642251	wordpools/wasnorm_wordpool_576.txt	LTP299	ltpFR2	5	16	PUDDING	1139	n/a	n/a	0	0	0
3287.014	n/a	WORD	1643507	wordpools/wasnorm_wordpool_576.txt	LTP299	ltpFR2	5	16	DIME	466	n/a	n/a	0	0	0
3289.538	n/a	WORD	1644769	wordpools/wasnorm_wordpool_576.txt	LTP299	ltpFR2	5	16	UNCLE	1536	n/a	n/a	0	0	0
3292.224	n/a	WORD	1646112	wordpools/wasnorm_wordpool_576.txt	LTP299	ltpFR2	5	16	GRAVEL	659	n/a	n/a	0	0	0
3294.686	n/a	WORD	1647343	wordpools/wasnorm_wordpool_576.txt	LTP299	ltpFR2	5	16	PEANUT	1032	n/a	n/a	0	0	0
3297.212	n/a	WORD	1648606	wordpools/wasnorm_wordpool_576.txt	LTP299	ltpFR2	5	16	SUBWAY	1400	n/a	n/a	0	0	0
3299.664	n/a	WORD	1649832	wordpools/wasnorm_wordpool_576.txt	LTP299	ltpFR2	5	16	LIVER	833	n/a	n/a	0	0	0
3302.266	n/a	WORD	1651133	wordpools/wasnorm_wordpool_576.txt	LTP299	ltpFR2	5	16	LAMP	798	n/a	n/a	0	0	0
3305.014	n/a	WORD	1652507	wordpools/wasnorm_wordpool_576.txt	LTP299	ltpFR2	5	16	ISLAND	745	n/a	n/a	0	0	0
3307.67	n/a	WORD	1653835	wordpools/wasnorm_wordpool_576.txt	LTP299	ltpFR2	5	16	ROD	1203	n/a	n/a	0	0	0
3310.468	n/a	WORD	1655234	wordpools/wasnorm_wordpool_576.txt	LTP299	ltpFR2	5	16	REPORT	1184	n/a	n/a	0	0	0
3312.936	n/a	WORD	1656468	wordpools/wasnorm_wordpool_576.txt	LTP299	ltpFR2	5	16	BROTHER	179	n/a	n/a	0	0	0
3315.658	n/a	WORD	1657829	wordpools/wasnorm_wordpool_576.txt	LTP299	ltpFR2	5	16	AIRPORT	13	n/a	n/a	0	0	0
3317.274	n/a	START	1658637	n/a	LTP299	ltpFR2	5	n/a	n/a	n/a	24	n/a	n/a	n/a	n/a
3318.442	n/a	DISTRACTOR	1659221	n/a	LTP299	ltpFR2	5	16	n/a	n/a	n/a	n/a	0	0	0
3318.458	n/a	PROB	1659229	n/a	LTP299	ltpFR2	5	n/a	n/a	n/a	24	12	1	4	7
3322.078	n/a	PROB	1661039	n/a	LTP299	ltpFR2	5	n/a	n/a	n/a	24	5	3	1	1
3323.128	n/a	PROB	1661564	n/a	LTP299	ltpFR2	5	n/a	n/a	n/a	24	15	8	3	4
3325.828	n/a	PROB	1662914	n/a	LTP299	ltpFR2	5	n/a	n/a	n/a	24	14	9	1	4
3328.03	n/a	PROB	1664015	n/a	LTP299	ltpFR2	5	n/a	n/a	n/a	24	11	2	7	2
3329.954	n/a	PROB	1664977	n/a	LTP299	ltpFR2	5	n/a	n/a	n/a	24	19	8	6	5
3331.734	n/a	PROB	1665867	n/a	LTP299	ltpFR2	5	n/a	n/a	n/a	24	5	1	3	1
3332.784	n/a	PROB	1666392	n/a	LTP299	ltpFR2	5	n/a	n/a	n/a	24	12	8	2	2
3334.27	n/a	PROB	1667135	n/a	LTP299	ltpFR2	5	n/a	n/a	n/a	24	21	7	9	5
3336.688	n/a	PROB	1668344	n/a	LTP299	ltpFR2	5	n/a	n/a	n/a	24	23	6	8	9
3340.308	n/a	STOP	1670154	n/a	LTP299	ltpFR2	5	n/a	n/a	n/a	24	n/a	n/a	n/a	n/a
3343.148	n/a	REC_START	1671574	n/a	LTP299	ltpFR2	5	16	n/a	n/a	n/a	n/a	0	0	0
3344.374	n/a	REC_WORD	1672187	wordpools/wasnorm_wordpool_576.txt	LTP299	ltpFR2	5	16	AIRPORT	13	n/a	n/a	0	0	0
3346.476	n/a	REC_WORD	1673238	wordpools/wasnorm_wordpool_576.txt	LTP299	ltpFR2	5	16	BROTHER	179	n/a	n/a	0	0	0
3349.506	n/a	REC_WORD	1674753	wordpools/wasnorm_wordpool_576.txt	LTP299	ltpFR2	5	16	CRAB	397	n/a	n/a	0	0	0
3350.492	n/a	REC_WORD	1675246	wordpools/wasnorm_wordpool_576.txt	LTP299	ltpFR2	5	16	HAMPER	682	n/a	n/a	0	0	0
3353.408	n/a	REC_WORD	1676704	wordpools/wasnorm_wordpool_576.txt	LTP299	ltpFR2	5	16	PILOT	1070	n/a	n/a	0	0	0
3354.918	n/a	REC_WORD	1677459	wordpools/wasnorm_wordpool_576.txt	LTP299	ltpFR2	5	16	PIMPLE	1071	n/a	n/a	0	0	0
3360.87	n/a	REC_WORD	1680435	wordpools/wasnorm_wordpool_576.txt	LTP299	ltpFR2	5	16	BINDER	127	n/a	n/a	0	0	0
3362.066	n/a	REC_WORD	1681033	wordpools/wasnorm_wordpool_576.txt	LTP299	ltpFR2	5	16	CLAMP	316	n/a	n/a	0	0	0
3364.36	n/a	REC_WORD	1682180	wordpools/wasnorm_wordpool_576.txt	LTP299	ltpFR2	5	16	PEANUT	1032	n/a	n/a	0	0	0
3370.838	n/a	REC_WORD	1685419	wordpools/wasnorm_wordpool_576.txt	LTP299	ltpFR2	5	16	ISLAND	745	n/a	n/a	0	0	0
3372.358	n/a	REC_WORD	1686179	wordpools/wasnorm_wordpool_576.txt	LTP299	ltpFR2	5	16	ROD	1203	n/a	n/a	0	0	0
3379.346	n/a	REC_WORD	1689673	wordpools/wasnorm_wordpool_576.txt	LTP299	ltpFR2	5	16	REPORT	1184	n/a	n/a	0	0	0
3401.714	n/a	REC_WORD	1700857	wordpools/wasnorm_wordpool_576.txt	LTP299	ltpFR2	5	16	WASHER	1592	n/a	n/a	0	0	0
3419.69	n/a	REST_REWET	1709845	n/a	LTP299	ltpFR2	5	16	n/a	n/a	n/a	n/a	0	0	0
3577.33	n/a	WORD	1788665	wordpools/wasnorm_wordpool_576.txt	LTP299	ltpFR2	5	17	TEACHER	1440	n/a	n/a	0	0	0
3579.796	n/a	WORD	1789898	wordpools/wasnorm_wordpool_576.txt	LTP299	ltpFR2	5	17	COLLEGE	346	n/a	n/a	0	0	0
3582.348	n/a	WORD	1791174	wordpools/wasnorm_wordpool_576.txt	LTP299	ltpFR2	5	17	XEROX	1628	n/a	n/a	0	0	0
3584.8	n/a	WORD	1792400	wordpools/wasnorm_wordpool_576.txt	LTP299	ltpFR2	5	17	GHETTO	633	n/a	n/a	0	0	0
3587.368	n/a	WORD	1793684	wordpools/wasnorm_wordpool_576.txt	LTP299	ltpFR2	5	17	TORTOISE	1486	n/a	n/a	0	0	0
3589.97	n/a	WORD	1794985	wordpools/wasnorm_wordpool_576.txt	LTP299	ltpFR2	5	17	ORANGE	980	n/a	n/a	0	0	0
3592.758	n/a	WORD	1796379	wordpools/wasnorm_wordpool_576.txt	LTP299	ltpFR2	5	17	TROMBONE	1508	n/a	n/a	0	0	0
3595.376	n/a	WORD	1797688	wordpools/wasnorm_wordpool_576.txt	LTP299	ltpFR2	5	17	YACHT	1629	n/a	n/a	0	0	0
3598.062	n/a	WORD	1799031	wordpools/wasnorm_wordpool_576.txt	LTP299	ltpFR2	5	17	MARKET	871	n/a	n/a	0	0	0
3600.88	n/a	WORD	1800440	wordpools/wasnorm_wordpool_576.txt	LTP299	ltpFR2	5	17	TYPIST	1532	n/a	n/a	0	0	0
3603.332	n/a	WORD	1801666	wordpools/wasnorm_wordpool_576.txt	LTP299	ltpFR2	5	17	LILY	821	n/a	n/a	0	0	0
3605.986	n/a	WORD	1802993	wordpools/wasnorm_wordpool_576.txt	LTP299	ltpFR2	5	17	SALT	1229	n/a	n/a	0	0	0
3608.654	n/a	WORD	1804327	wordpools/wasnorm_wordpool_576.txt	LTP299	ltpFR2	5	17	WIFE	1609	n/a	n/a	0	0	0
3611.09	n/a	WORD	1805545	wordpools/wasnorm_wordpool_576.txt	LTP299	ltpFR2	5	17	WHISKERS	1605	n/a	n/a	0	0	0
3613.658	n/a	WORD	1806829	wordpools/wasnorm_wordpool_576.txt	LTP299	ltpFR2	5	17	FLUTE	585	n/a	n/a	0	0	0
3616.31	n/a	WORD	1808155	wordpools/wasnorm_wordpool_576.txt	LTP299	ltpFR2	5	17	SWITCH	1422	n/a	n/a	0	0	0
3618.964	n/a	WORD	1809482	wordpools/wasnorm_wordpool_576.txt	LTP299	ltpFR2	5	17	PRINCESS	1125	n/a	n/a	0	0	0
3621.414	n/a	WORD	1810707	wordpools/wasnorm_wordpool_576.txt	LTP299	ltpFR2	5	17	BARLEY	88	n/a	n/a	0	0	0
3624.066	n/a	WORD	1812033	wordpools/wasnorm_wordpool_576.txt	LTP299	ltpFR2	5	17	CUPBOARD	425	n/a	n/a	0	0	0
3626.75	n/a	WORD	1813375	wordpools/wasnorm_wordpool_576.txt	LTP299	ltpFR2	5	17	SWIMMER	1420	n/a	n/a	0	0	0
3629.37	n/a	WORD	1814685	wordpools/wasnorm_wordpool_576.txt	LTP299	ltpFR2	5	17	CANAL	226	n/a	n/a	0	0	0
3632.172	n/a	WORD	1816086	wordpools/wasnorm_wordpool_576.txt	LTP299	ltpFR2	5	17	CRITIC	410	n/a	n/a	0	0	0
3634.724	n/a	WORD	1817362	wordpools/wasnorm_wordpool_576.txt	LTP299	ltpFR2	5	17	CIGAR	308	n/a	n/a	0	0	0
3637.21	n/a	WORD	1818605	wordpools/wasnorm_wordpool_576.txt	LTP299	ltpFR2	5	17	BUREAU	199	n/a	n/a	0	0	0
3638.828	n/a	START	1819414	n/a	LTP299	ltpFR2	5	n/a	n/a	n/a	25	n/a	n/a	n/a	n/a
3639.906	n/a	DISTRACTOR	1819953	n/a	LTP299	ltpFR2	5	17	n/a	n/a	n/a	n/a	0	0	0
3639.912	n/a	PROB	1819956	n/a	LTP299	ltpFR2	5	n/a	n/a	n/a	25	15	1	5	9
3642.246	n/a	PROB	1821123	n/a	LTP299	ltpFR2	5	n/a	n/a	n/a	25	16	3	5	8
3645.032	n/a	PROB	1822516	n/a	LTP299	ltpFR2	5	n/a	n/a	n/a	25	14	7	2	5
3646.864	n/a	PROB	1823432	n/a	LTP299	ltpFR2	5	n/a	n/a	n/a	25	10	1	7	2
3648.768	n/a	PROB	1824384	n/a	LTP299	ltpFR2	5	n/a	n/a	n/a	25	16	3	8	5
3650.718	n/a	PROB	1825359	n/a	LTP299	ltpFR2	5	n/a	n/a	n/a	25	17	8	7	2
3653.072	n/a	PROB	1826536	n/a	LTP299	ltpFR2	5	n/a	n/a	n/a	25	6	3	2	1
3654.638	n/a	PROB	1827319	n/a	LTP299	ltpFR2	5	n/a	n/a	n/a	25	8	2	3	3
3656.522	n/a	PROB	1828261	n/a	LTP299	ltpFR2	5	n/a	n/a	n/a	25	16	9	5	2
3659.726	n/a	PROB	1829863	n/a	LTP299	ltpFR2	5	n/a	n/a	n/a	25	24	7	7	8
3662.594	n/a	STOP	1831297	n/a	LTP299	ltpFR2	5	n/a	n/a	n/a	25	n/a	n/a	n/a	n/a
3664.648	n/a	REC_START	1832324	n/a	LTP299	ltpFR2	5	17	n/a	n/a	n/a	n/a	0	0	0
3666.48	n/a	REC_WORD	1833240	wordpools/wasnorm_wordpool_576.txt	LTP299	ltpFR2	5	17	CANAL	226	n/a	n/a	0	0	0
3667.976	n/a	REC_WORD	1833988	wordpools/wasnorm_wordpool_576.txt	LTP299	ltpFR2	5	17	CRITIC	410	n/a	n/a	0	0	0
3669.838	n/a	REC_WORD	1834919	wordpools/wasnorm_wordpool_576.txt	LTP299	ltpFR2	5	17	SWIMMING	-1	n/a	n/a	0	0	0
3674.6	n/a	REC_WORD	1837300	wordpools/wasnorm_wordpool_576.txt	LTP299	ltpFR2	5	17	CIGAR	308	n/a	n/a	0	0	0
3677.322	n/a	REC_WORD	1838661	wordpools/wasnorm_wordpool_576.txt	LTP299	ltpFR2	5	17	BUREAU	199	n/a	n/a	0	0	0
3679.89	n/a	REC_WORD	1839945	wordpools/wasnorm_wordpool_576.txt	LTP299	ltpFR2	5	17	FLUTE	585	n/a	n/a	0	0	0
3681.352	n/a	REC_WORD	1840676	wordpools/wasnorm_wordpool_576.txt	LTP299	ltpFR2	5	17	CUPBOARD	425	n/a	n/a	0	0	0
3686.912	n/a	REC_WORD	1843456	wordpools/wasnorm_wordpool_576.txt	LTP299	ltpFR2	5	17	YACHT	1629	n/a	n/a	0	0	0
3688.656	n/a	REC_WORD	1844328	wordpools/wasnorm_wordpool_576.txt	LTP299	ltpFR2	5	17	ORANGE	980	n/a	n/a	0	0	0
3689.834	n/a	REC_WORD	1844917	wordpools/wasnorm_wordpool_576.txt	LTP299	ltpFR2	5	17	TROMBONE	1508	n/a	n/a	0	0	0
3693.214	n/a	REC_WORD	1846607	wordpools/wasnorm_wordpool_576.txt	LTP299	ltpFR2	5	17	MARKET	871	n/a	n/a	0	0	0
3694.588	n/a	REC_WORD	1847294	wordpools/wasnorm_wordpool_576.txt	LTP299	ltpFR2	5	17	WIFE	1609	n/a	n/a	0	0	0
3695.83	n/a	REC_WORD	1847915	wordpools/wasnorm_wordpool_576.txt	LTP299	ltpFR2	5	17	SALT	1229	n/a	n/a	0	0	0
3697.314	n/a	REC_WORD	1848657	wordpools/wasnorm_wordpool_576.txt	LTP299	ltpFR2	5	17	LILY	821	n/a	n/a	0	0	0
3727.9	n/a	REC_WORD	1863950	wordpools/wasnorm_wordpool_576.txt	LTP299	ltpFR2	5	17	TEACHER	1440	n/a	n/a	0	0	0
3729.294	n/a	REC_WORD	1864647	wordpools/wasnorm_wordpool_576.txt	LTP299	ltpFR2	5	17	COLLEGE	346	n/a	n/a	0	0	0
3730.816	n/a	REC_WORD	1865408	wordpools/wasnorm_wordpool_576.txt	LTP299	ltpFR2	5	17	GHETTO	633	n/a	n/a	0	0	0
3731.886	n/a	REC_WORD	1865943	wordpools/wasnorm_wordpool_576.txt	LTP299	ltpFR2	5	17	XEROX	1628	n/a	n/a	0	0	0
3733.19	n/a	REC_WORD	1866595	wordpools/wasnorm_wordpool_576.txt	LTP299	ltpFR2	5	17	TORTOISE	1486	n/a	n/a	0	0	0
3755.084	n/a	WORD	1877542	wordpools/wasnorm_wordpool_576.txt	LTP299	ltpFR2	5	18	TAXI	1438	n/a	n/a	0	0	0
3757.83	n/a	WORD	1878915	wordpools/wasnorm_wordpool_576.txt	LTP299	ltpFR2	5	18	TUNNEL	1519	n/a	n/a	0	0	0
3760.416	n/a	WORD	1880208	wordpools/wasnorm_wordpool_576.txt	LTP299	ltpFR2	5	18	TUBA	1515	n/a	n/a	0	0	0
3763.026	n/a	WORD	1881513	wordpools/wasnorm_wordpool_576.txt	LTP299	ltpFR2	5	18	PIANO	1057	n/a	n/a	0	0	0
3765.57	n/a	WORD	1882785	wordpools/wasnorm_wordpool_576.txt	LTP299	ltpFR2	5	18	GUITAR	670	n/a	n/a	0	0	0
3768.14	n/a	WORD	1884070	wordpools/wasnorm_wordpool_576.txt	LTP299	ltpFR2	5	18	SEAL	1262	n/a	n/a	0	0	0
3770.708	n/a	WORD	1885354	wordpools/wasnorm_wordpool_576.txt	LTP299	ltpFR2	5	18	PATIENT	1024	n/a	n/a	0	0	0
3773.378	n/a	WORD	1886689	wordpools/wasnorm_wordpool_576.txt	LTP299	ltpFR2	5	18	KLEENEX	782	n/a	n/a	0	0	0
3776.002	n/a	WORD	1888001	wordpools/wasnorm_wordpool_576.txt	LTP299	ltpFR2	5	18	GYMNAST	675	n/a	n/a	0	0	0
3778.664	n/a	WORD	1889332	wordpools/wasnorm_wordpool_576.txt	LTP299	ltpFR2	5	18	STAPLE	1371	n/a	n/a	0	0	0
3781.222	n/a	WORD	1890611	wordpools/wasnorm_wordpool_576.txt	LTP299	ltpFR2	5	18	REBEL	1172	n/a	n/a	0	0	0
3783.97	n/a	WORD	1891985	wordpools/wasnorm_wordpool_576.txt	LTP299	ltpFR2	5	18	ATLAS	53	n/a	n/a	0	0	0
3786.522	n/a	WORD	1893261	wordpools/wasnorm_wordpool_576.txt	LTP299	ltpFR2	5	18	BRANCH	168	n/a	n/a	0	0	0
3788.958	n/a	WORD	1894479	wordpools/wasnorm_wordpool_576.txt	LTP299	ltpFR2	5	18	HARP	689	n/a	n/a	0	0	0
3791.392	n/a	WORD	1895696	wordpools/wasnorm_wordpool_576.txt	LTP299	ltpFR2	5	18	ICEBERG	731	n/a	n/a	0	0	0
3794.2	n/a	WORD	1897100	wordpools/wasnorm_wordpool_576.txt	LTP299	ltpFR2	5	18	PLATE	1086	n/a	n/a	0	0	0
3796.618	n/a	WORD	1898309	wordpools/wasnorm_wordpool_576.txt	LTP299	ltpFR2	5	18	LUNCH	849	n/a	n/a	0	0	0
3799.188	n/a	WORD	1899594	wordpools/wasnorm_wordpool_576.txt	LTP299	ltpFR2	5	18	DOLPHIN	483	n/a	n/a	0	0	0
3801.834	n/a	WORD	1900917	wordpools/wasnorm_wordpool_576.txt	LTP299	ltpFR2	5	18	TART	1436	n/a	n/a	0	0	0
3804.286	n/a	WORD	1902143	wordpools/wasnorm_wordpool_576.txt	LTP299	ltpFR2	5	18	FRAGRANCE	599	n/a	n/a	0	0	0
3806.956	n/a	WORD	1903478	wordpools/wasnorm_wordpool_576.txt	LTP299	ltpFR2	5	18	CASHEW	253	n/a	n/a	0	0	0
3809.506	n/a	WORD	1904753	wordpools/wasnorm_wordpool_576.txt	LTP299	ltpFR2	5	18	CROWN	415	n/a	n/a	0	0	0
3811.926	n/a	WORD	1905963	wordpools/wasnorm_wordpool_576.txt	LTP299	ltpFR2	5	18	PICTURE	1061	n/a	n/a	0	0	0
3814.528	n/a	WORD	1907264	wordpools/wasnorm_wordpool_576.txt	LTP299	ltpFR2	5	18	PLASTER	1085	n/a	n/a	0	0	0
3816.148	n/a	START	1908074	n/a	LTP299	ltpFR2	5	n/a	n/a	n/a	26	n/a	n/a	n/a	n/a
3816.966	n/a	DISTRACTOR	1908483	n/a	LTP299	ltpFR2	5	18	n/a	n/a	n/a	n/a	0	0	0
3816.98	n/a	PROB	1908490	n/a	LTP299	ltpFR2	5	n/a	n/a	n/a	26	18	7	6	5
3821.068	n/a	PROB	1910534	n/a	LTP299	ltpFR2	5	n/a	n/a	n/a	26	21	7	6	8
3823.304	n/a	PROB	1911652	n/a	LTP299	ltpFR2	5	n/a	n/a	n/a	26	21	5	7	9
3825.438	n/a	PROB	1912719	n/a	LTP299	ltpFR2	5	n/a	n/a	n/a	26	15	7	5	3
3827.372	n/a	PROB	1913686	n/a	LTP299	ltpFR2	5	n/a	n/a	n/a	26	24	9	8	7
3829.84	n/a	PROB	1914920	n/a	LTP299	ltpFR2	5	n/a	n/a	n/a	26	18	7	5	6
3832.26	n/a	PROB	1916130	n/a	LTP299	ltpFR2	5	n/a	n/a	n/a	26	10	4	1	5
3835.196	n/a	PROB	1917598	n/a	LTP299	ltpFR2	5	n/a	n/a	n/a	26	10	1	5	4
3836.482	n/a	PROB	1918241	n/a	LTP299	ltpFR2	5	n/a	n/a	n/a	26	13	1	7	5
3838.564	n/a	PROB	1919282	n/a	LTP299	ltpFR2	5	n/a	n/a	n/a	26	13	3	5	5
3839.86	n/a	STOP	1919930	n/a	LTP299	ltpFR2	5	n/a	n/a	n/a	26	n/a	n/a	n/a	n/a
3842.02	n/a	REC_START	1921010	n/a	LTP299	ltpFR2	5	18	n/a	n/a	n/a	n/a	0	0	0
3843.174	n/a	REC_WORD	1921587	wordpools/wasnorm_wordpool_576.txt	LTP299	ltpFR2	5	18	PLASTER	1085	n/a	n/a	0	0	0
3844.638	n/a	REC_WORD	1922319	wordpools/wasnorm_wordpool_576.txt	LTP299	ltpFR2	5	18	PICTURE	1061	n/a	n/a	0	0	0
3846.578	n/a	REC_WORD	1923289	wordpools/wasnorm_wordpool_576.txt	LTP299	ltpFR2	5	18	TAXI	1438	n/a	n/a	0	0	0
3847.802	n/a	REC_WORD	1923901	wordpools/wasnorm_wordpool_576.txt	LTP299	ltpFR2	5	18	TUNNEL	1519	n/a	n/a	0	0	0
3849.114	n/a	REC_WORD	1924557	wordpools/wasnorm_wordpool_576.txt	LTP299	ltpFR2	5	18	SEAL	1262	n/a	n/a	0	0	0
3850.652	n/a	REC_WORD	1925326	wordpools/wasnorm_wordpool_576.txt	LTP299	ltpFR2	5	18	DOLPHIN	483	n/a	n/a	0	0	0
3852.178	n/a	REC_WORD	1926089	wordpools/wasnorm_wordpool_576.txt	LTP299	ltpFR2	5	18	ICEBERG	731	n/a	n/a	0	0	0
3854.634	n/a	REC_WORD	1927317	wordpools/wasnorm_wordpool_576.txt	LTP299	ltpFR2	5	18	PLATE	1086	n/a	n/a	0	0	0
3862.854	n/a	REC_WORD	1931427	wordpools/wasnorm_wordpool_576.txt	LTP299	ltpFR2	5	18	GUITAR	670	n/a	n/a	0	0	0
3864.002	n/a	REC_WORD	1932001	wordpools/wasnorm_wordpool_576.txt	LTP299	ltpFR2	5	18	PIANO	1057	n/a	n/a	0	0	0
3865.01	n/a	REC_WORD	1932505	wordpools/wasnorm_wordpool_576.txt	LTP299	ltpFR2	5	18	HARP	689	n/a	n/a	0	0	0
3866.13	n/a	REC_WORD	1933065	wordpools/wasnorm_wordpool_576.txt	LTP299	ltpFR2	5	18	TUBA	1515	n/a	n/a	0	0	0
3902.376	n/a	REC_WORD	1951188	wordpools/wasnorm_wordpool_576.txt	LTP299	ltpFR2	5	18	PATIENT	1024	n/a	n/a	0	0	0
3932.474	n/a	WORD	1966237	wordpools/wasnorm_wordpool_576.txt	LTP299	ltpFR2	5	19	COUNTY	389	n/a	n/a	0	0	0
