mstime	trial_type	stim_file	subject	experiment	session	trial	task	item_name	item_num	recog_conf	resp	answer	test_x	test_y	test_z	color_b	color_g	color_r	case	font
0	SESS_START	n/a	LTP136	ltpFR	11	n/a	n/a	n/a	n/a	3	n/a	n/a	0	0	0	n/a	n/a	n/a	n/a	n/a
34414	START	n/a	LTP136	ltpFR	11	n/a	n/a	n/a	n/a	n/a	n/a	n/a	n/a	n/a	n/a	n/a	n/a	n/a	n/a	n/a
34438	PROB	n/a	LTP136	ltpFR	11	n/a	n/a	n/a	n/a	n/a	n/a	15	7	6	2	n/a	n/a	n/a	n/a	n/a
37330	PROB	n/a	LTP136	ltpFR	11	n/a	n/a	n/a	n/a	n/a	n/a	13	4	7	2	n/a	n/a	n/a	n/a	n/a
38971	PROB	n/a	LTP136	ltpFR	11	n/a	n/a	n/a	n/a	n/a	n/a	16	3	4	9	n/a	n/a	n/a	n/a	n/a
45160	PROB	n/a	LTP136	ltpFR	11	n/a	n/a	n/a	n/a	n/a	n/a	15	9	5	1	n/a	n/a	n/a	n/a	n/a
46750	PROB	n/a	LTP136	ltpFR	11	n/a	n/a	n/a	n/a	n/a	n/a	17	6	4	7	n/a	n/a	n/a	n/a	n/a
48243	PROB	n/a	LTP136	ltpFR	11	n/a	n/a	n/a	n/a	n/a	n/a	13	8	1	4	n/a	n/a	n/a	n/a	n/a
49624	PROB	n/a	LTP136	ltpFR	11	n/a	n/a	n/a	n/a	n/a	n/a	17	2	8	7	n/a	n/a	n/a	n/a	n/a
51050	PROB	n/a	LTP136	ltpFR	11	n/a	n/a	n/a	n/a	n/a	n/a	20	4	7	9	n/a	n/a	n/a	n/a	n/a
54414	STOP	n/a	LTP136	ltpFR	11	n/a	n/a	n/a	n/a	n/a	n/a	n/a	n/a	n/a	n/a	n/a	n/a	n/a	n/a	n/a
81705	START	n/a	LTP136	ltpFR	11	n/a	n/a	n/a	n/a	n/a	n/a	n/a	n/a	n/a	n/a	n/a	n/a	n/a	n/a	n/a
83213	PROB	n/a	LTP136	ltpFR	11	n/a	n/a	n/a	n/a	n/a	n/a	18	1	9	8	n/a	n/a	n/a	n/a	n/a
85937	PROB	n/a	LTP136	ltpFR	11	n/a	n/a	n/a	n/a	n/a	n/a	12	2	1	9	n/a	n/a	n/a	n/a	n/a
87544	PROB	n/a	LTP136	ltpFR	11	n/a	n/a	n/a	n/a	n/a	n/a	15	7	4	4	n/a	n/a	n/a	n/a	n/a
89002	STOP	n/a	LTP136	ltpFR	11	n/a	n/a	n/a	n/a	n/a	n/a	n/a	n/a	n/a	n/a	n/a	n/a	n/a	n/a	n/a
90568	WORD	wordpools/wasnorm_wordpool.txt	LTP136	ltpFR	11	1	0	JOINT	758	n/a	0	n/a	0	0	0	1	0.412841796875	0.57763671875	lower	../fonts/zerothre.ttf
93576	START	n/a	LTP136	ltpFR	11	n/a	n/a	n/a	n/a	n/a	n/a	n/a	n/a	n/a	n/a	n/a	n/a	n/a	n/a	n/a
94575	PROB	n/a	LTP136	ltpFR	11	n/a	n/a	n/a	n/a	n/a	n/a	17	7	6	4	n/a	n/a	n/a	n/a	n/a
96758	PROB	n/a	LTP136	ltpFR	11	n/a	n/a	n/a	n/a	n/a	n/a	17	8	6	3	n/a	n/a	n/a	n/a	n/a
98807	PROB	n/a	LTP136	ltpFR	11	n/a	n/a	n/a	n/a	n/a	n/a	11	2	7	2	n/a	n/a	n/a	n/a	n/a
100290	STOP	n/a	LTP136	ltpFR	11	n/a	n/a	n/a	n/a	n/a	n/a	n/a	n/a	n/a	n/a	n/a	n/a	n/a	n/a	n/a
102739	WORD	wordpools/wasnorm_wordpool.txt	LTP136	ltpFR	11	1	0	SHRUB	1299	n/a	0	n/a	0	0	0	1	0.412841796875	0.57763671875	lower	../fonts/zerothre.ttf
105746	START	n/a	LTP136	ltpFR	11	n/a	n/a	n/a	n/a	n/a	n/a	n/a	n/a	n/a	n/a	n/a	n/a	n/a	n/a	n/a
106863	PROB	n/a	LTP136	ltpFR	11	n/a	n/a	n/a	n/a	n/a	n/a	16	2	8	6	n/a	n/a	n/a	n/a	n/a
108345	PROB	n/a	LTP136	ltpFR	11	n/a	n/a	n/a	n/a	n/a	n/a	9	2	4	3	n/a	n/a	n/a	n/a	n/a
111137	PROB	n/a	LTP136	ltpFR	11	n/a	n/a	n/a	n/a	n/a	n/a	16	3	9	4	n/a	n/a	n/a	n/a	n/a
113513	STOP	n/a	LTP136	ltpFR	11	n/a	n/a	n/a	n/a	n/a	n/a	n/a	n/a	n/a	n/a	n/a	n/a	n/a	n/a	n/a
114944	WORD	wordpools/wasnorm_wordpool.txt	LTP136	ltpFR	11	1	0	AUDIENCE	59	n/a	0	n/a	0	0	0	1	0.412841796875	0.57763671875	lower	../fonts/zerothre.ttf
117952	START	n/a	LTP136	ltpFR	11	n/a	n/a	n/a	n/a	n/a	n/a	n/a	n/a	n/a	n/a	n/a	n/a	n/a	n/a	n/a
118951	PROB	n/a	LTP136	ltpFR	11	n/a	n/a	n/a	n/a	n/a	n/a	18	7	8	3	n/a	n/a	n/a	n/a	n/a
120599	PROB	n/a	LTP136	ltpFR	11	n/a	n/a	n/a	n/a	n/a	n/a	18	2	9	7	n/a	n/a	n/a	n/a	n/a
122657	PROB	n/a	LTP136	ltpFR	11	n/a	n/a	n/a	n/a	n/a	n/a	17	7	5	5	n/a	n/a	n/a	n/a	n/a
124681	STOP	n/a	LTP136	ltpFR	11	n/a	n/a	n/a	n/a	n/a	n/a	n/a	n/a	n/a	n/a	n/a	n/a	n/a	n/a	n/a
127048	WORD	wordpools/wasnorm_wordpool.txt	LTP136	ltpFR	11	1	0	LEG	809	n/a	0	n/a	0	0	0	1	0.412841796875	0.57763671875	lower	../fonts/zerothre.ttf
130056	START	n/a	LTP136	ltpFR	11	n/a	n/a	n/a	n/a	n/a	n/a	n/a	n/a	n/a	n/a	n/a	n/a	n/a	n/a	n/a
131022	PROB	n/a	LTP136	ltpFR	11	n/a	n/a	n/a	n/a	n/a	n/a	10	2	5	3	n/a	n/a	n/a	n/a	n/a
133087	PROB	n/a	LTP136	ltpFR	11	n/a	n/a	n/a	n/a	n/a	n/a	19	2	9	8	n/a	n/a	n/a	n/a	n/a
134987	PROB	n/a	LTP136	ltpFR	11	n/a	n/a	n/a	n/a	n/a	n/a	11	3	3	5	n/a	n/a	n/a	n/a	n/a
138056	STOP	n/a	LTP136	ltpFR	11	n/a	n/a	n/a	n/a	n/a	n/a	n/a	n/a	n/a	n/a	n/a	n/a	n/a	n/a	n/a
139169	WORD	wordpools/wasnorm_wordpool.txt	LTP136	ltpFR	11	1	0	TERMITE	1451	n/a	0	n/a	0	0	0	1	0.412841796875	0.57763671875	lower	../fonts/zerothre.ttf
142176	START	n/a	LTP136	ltpFR	11	n/a	n/a	n/a	n/a	n/a	n/a	n/a	n/a	n/a	n/a	n/a	n/a	n/a	n/a	n/a
143109	PROB	n/a	LTP136	ltpFR	11	n/a	n/a	n/a	n/a	n/a	n/a	15	4	8	3	n/a	n/a	n/a	n/a	n/a
145482	PROB	n/a	LTP136	ltpFR	11	n/a	n/a	n/a	n/a	n/a	n/a	13	5	7	1	n/a	n/a	n/a	n/a	n/a
147149	PROB	n/a	LTP136	ltpFR	11	n/a	n/a	n/a	n/a	n/a	n/a	16	1	7	8	n/a	n/a	n/a	n/a	n/a
148539	PROB	n/a	LTP136	ltpFR	11	n/a	n/a	n/a	n/a	n/a	n/a	19	9	1	9	n/a	n/a	n/a	n/a	n/a
150098	STOP	n/a	LTP136	ltpFR	11	n/a	n/a	n/a	n/a	n/a	n/a	n/a	n/a	n/a	n/a	n/a	n/a	n/a	n/a	n/a
151073	WORD	wordpools/wasnorm_wordpool.txt	LTP136	ltpFR	11	1	1	GEM	629	n/a	0	n/a	0	0	0	0	0.5869140625	0.422607421875	upper	../fonts/amplitud.ttf
154080	START	n/a	LTP136	ltpFR	11	n/a	n/a	n/a	n/a	n/a	n/a	n/a	n/a	n/a	n/a	n/a	n/a	n/a	n/a	n/a
155263	PROB	n/a	LTP136	ltpFR	11	n/a	n/a	n/a	n/a	n/a	n/a	18	7	3	8	n/a	n/a	n/a	n/a	n/a
156786	PROB	n/a	LTP136	ltpFR	11	n/a	n/a	n/a	n/a	n/a	n/a	15	8	5	2	n/a	n/a	n/a	n/a	n/a
158619	PROB	n/a	LTP136	ltpFR	11	n/a	n/a	n/a	n/a	n/a	n/a	13	8	4	1	n/a	n/a	n/a	n/a	n/a
159878	PROB	n/a	LTP136	ltpFR	11	n/a	n/a	n/a	n/a	n/a	n/a	11	9	1	1	n/a	n/a	n/a	n/a	n/a
161026	STOP	n/a	LTP136	ltpFR	11	n/a	n/a	n/a	n/a	n/a	n/a	n/a	n/a	n/a	n/a	n/a	n/a	n/a	n/a	n/a
163227	WORD	wordpools/wasnorm_wordpool.txt	LTP136	ltpFR	11	1	1	DOORBELL	487	n/a	0	n/a	0	0	0	0	0.5869140625	0.422607421875	upper	../fonts/amplitud.ttf
166235	START	n/a	LTP136	ltpFR	11	n/a	n/a	n/a	n/a	n/a	n/a	n/a	n/a	n/a	n/a	n/a	n/a	n/a	n/a	n/a
167092	PROB	n/a	LTP136	ltpFR	11	n/a	n/a	n/a	n/a	n/a	n/a	13	3	9	1	n/a	n/a	n/a	n/a	n/a
168807	PROB	n/a	LTP136	ltpFR	11	n/a	n/a	n/a	n/a	n/a	n/a	7	2	4	3	n/a	n/a	n/a	n/a	n/a
170706	PROB	n/a	LTP136	ltpFR	11	n/a	n/a	n/a	n/a	n/a	n/a	16	6	6	4	n/a	n/a	n/a	n/a	n/a
172397	PROB	n/a	LTP136	ltpFR	11	n/a	n/a	n/a	n/a	n/a	n/a	20	3	9	8	n/a	n/a	n/a	n/a	n/a
174058	STOP	n/a	LTP136	ltpFR	11	n/a	n/a	n/a	n/a	n/a	n/a	n/a	n/a	n/a	n/a	n/a	n/a	n/a	n/a	n/a
175064	WORD	wordpools/wasnorm_wordpool.txt	LTP136	ltpFR	11	1	0	SKI	1316	n/a	0	n/a	0	0	0	1	0.412841796875	0.57763671875	lower	../fonts/zerothre.ttf
178072	START	n/a	LTP136	ltpFR	11	n/a	n/a	n/a	n/a	n/a	n/a	n/a	n/a	n/a	n/a	n/a	n/a	n/a	n/a	n/a
178913	PROB	n/a	LTP136	ltpFR	11	n/a	n/a	n/a	n/a	n/a	n/a	11	1	7	3	n/a	n/a	n/a	n/a	n/a
180495	PROB	n/a	LTP136	ltpFR	11	n/a	n/a	n/a	n/a	n/a	n/a	21	5	8	8	n/a	n/a	n/a	n/a	n/a
186072	STOP	n/a	LTP136	ltpFR	11	n/a	n/a	n/a	n/a	n/a	n/a	n/a	n/a	n/a	n/a	n/a	n/a	n/a	n/a	n/a
186902	WORD	wordpools/wasnorm_wordpool.txt	LTP136	ltpFR	11	1	0	PLANT	1083	n/a	0	n/a	0	0	0	1	0.412841796875	0.57763671875	lower	../fonts/zerothre.ttf
189909	START	n/a	LTP136	ltpFR	11	n/a	n/a	n/a	n/a	n/a	n/a	n/a	n/a	n/a	n/a	n/a	n/a	n/a	n/a	n/a
190783	PROB	n/a	LTP136	ltpFR	11	n/a	n/a	n/a	n/a	n/a	n/a	26	9	9	8	n/a	n/a	n/a	n/a	n/a
194431	PROB	n/a	LTP136	ltpFR	11	n/a	n/a	n/a	n/a	n/a	n/a	15	5	2	8	n/a	n/a	n/a	n/a	n/a
197657	STOP	n/a	LTP136	ltpFR	11	n/a	n/a	n/a	n/a	n/a	n/a	n/a	n/a	n/a	n/a	n/a	n/a	n/a	n/a	n/a
198755	WORD	wordpools/wasnorm_wordpool.txt	LTP136	ltpFR	11	1	0	ATOM	55	n/a	0	n/a	0	0	0	1	0.412841796875	0.57763671875	lower	../fonts/zerothre.ttf
201762	START	n/a	LTP136	ltpFR	11	n/a	n/a	n/a	n/a	n/a	n/a	n/a	n/a	n/a	n/a	n/a	n/a	n/a	n/a	n/a
202595	PROB	n/a	LTP136	ltpFR	11	n/a	n/a	n/a	n/a	n/a	n/a	17	1	8	8	n/a	n/a	n/a	n/a	n/a
204237	PROB	n/a	LTP136	ltpFR	11	n/a	n/a	n/a	n/a	n/a	n/a	13	7	2	4	n/a	n/a	n/a	n/a	n/a
205937	PROB	n/a	LTP136	ltpFR	11	n/a	n/a	n/a	n/a	n/a	n/a	20	4	9	7	n/a	n/a	n/a	n/a	n/a
208545	STOP	n/a	LTP136	ltpFR	11	n/a	n/a	n/a	n/a	n/a	n/a	n/a	n/a	n/a	n/a	n/a	n/a	n/a	n/a	n/a
210784	WORD	wordpools/wasnorm_wordpool.txt	LTP136	ltpFR	11	1	1	MICROSCOPE	891	n/a	0	n/a	0	0	0	0	0.5869140625	0.422607421875	upper	../fonts/amplitud.ttf
213792	START	n/a	LTP136	ltpFR	11	n/a	n/a	n/a	n/a	n/a	n/a	n/a	n/a	n/a	n/a	n/a	n/a	n/a	n/a	n/a
214816	PROB	n/a	LTP136	ltpFR	11	n/a	n/a	n/a	n/a	n/a	n/a	22	6	7	9	n/a	n/a	n/a	n/a	n/a
216690	PROB	n/a	LTP136	ltpFR	11	n/a	n/a	n/a	n/a	n/a	n/a	13	6	1	6	n/a	n/a	n/a	n/a	n/a
217941	PROB	n/a	LTP136	ltpFR	11	n/a	n/a	n/a	n/a	n/a	n/a	10	3	5	2	n/a	n/a	n/a	n/a	n/a
219347	PROB	n/a	LTP136	ltpFR	11	n/a	n/a	n/a	n/a	n/a	n/a	20	9	9	2	n/a	n/a	n/a	n/a	n/a
221018	STOP	n/a	LTP136	ltpFR	11	n/a	n/a	n/a	n/a	n/a	n/a	n/a	n/a	n/a	n/a	n/a	n/a	n/a	n/a	n/a
222613	WORD	wordpools/wasnorm_wordpool.txt	LTP136	ltpFR	11	1	1	PEANUT	1032	n/a	0	n/a	0	0	0	0	0.5869140625	0.422607421875	upper	../fonts/amplitud.ttf
225621	START	n/a	LTP136	ltpFR	11	n/a	n/a	n/a	n/a	n/a	n/a	n/a	n/a	n/a	n/a	n/a	n/a	n/a	n/a	n/a
226445	PROB	n/a	LTP136	ltpFR	11	n/a	n/a	n/a	n/a	n/a	n/a	19	6	7	6	n/a	n/a	n/a	n/a	n/a
228611	PROB	n/a	LTP136	ltpFR	11	n/a	n/a	n/a	n/a	n/a	n/a	12	6	2	4	n/a	n/a	n/a	n/a	n/a
233620	STOP	n/a	LTP136	ltpFR	11	n/a	n/a	n/a	n/a	n/a	n/a	n/a	n/a	n/a	n/a	n/a	n/a	n/a	n/a	n/a
234442	WORD	wordpools/wasnorm_wordpool.txt	LTP136	ltpFR	11	1	1	BISCUIT	130	n/a	0	n/a	0	0	0	0	0.5869140625	0.422607421875	upper	../fonts/amplitud.ttf
237450	START	n/a	LTP136	ltpFR	11	n/a	n/a	n/a	n/a	n/a	n/a	n/a	n/a	n/a	n/a	n/a	n/a	n/a	n/a	n/a
238524	PROB	n/a	LTP136	ltpFR	11	n/a	n/a	n/a	n/a	n/a	n/a	10	3	4	3	n/a	n/a	n/a	n/a	n/a
240141	PROB	n/a	LTP136	ltpFR	11	n/a	n/a	n/a	n/a	n/a	n/a	9	6	1	2	n/a	n/a	n/a	n/a	n/a
241448	PROB	n/a	LTP136	ltpFR	11	n/a	n/a	n/a	n/a	n/a	n/a	13	5	4	4	n/a	n/a	n/a	n/a	n/a
243730	PROB	n/a	LTP136	ltpFR	11	n/a	n/a	n/a	n/a	n/a	n/a	22	8	7	7	n/a	n/a	n/a	n/a	n/a
245377	STOP	n/a	LTP136	ltpFR	11	n/a	n/a	n/a	n/a	n/a	n/a	n/a	n/a	n/a	n/a	n/a	n/a	n/a	n/a	n/a
246281	WORD	wordpools/wasnorm_wordpool.txt	LTP136	ltpFR	11	1	1	CITIZEN	312	n/a	0	n/a	0	0	0	0	0.5869140625	0.422607421875	upper	../fonts/amplitud.ttf
249288	START	n/a	LTP136	ltpFR	11	n/a	n/a	n/a	n/a	n/a	n/a	n/a	n/a	n/a	n/a	n/a	n/a	n/a	n/a	n/a
250137	PROB	n/a	LTP136	ltpFR	11	n/a	n/a	n/a	n/a	n/a	n/a	15	7	4	4	n/a	n/a	n/a	n/a	n/a
251669	PROB	n/a	LTP136	ltpFR	11	n/a	n/a	n/a	n/a	n/a	n/a	16	7	4	5	n/a	n/a	n/a	n/a	n/a
253369	PROB	n/a	LTP136	ltpFR	11	n/a	n/a	n/a	n/a	n/a	n/a	11	1	6	4	n/a	n/a	n/a	n/a	n/a
254635	PROB	n/a	LTP136	ltpFR	11	n/a	n/a	n/a	n/a	n/a	n/a	20	8	9	3	n/a	n/a	n/a	n/a	n/a
256361	STOP	n/a	LTP136	ltpFR	11	n/a	n/a	n/a	n/a	n/a	n/a	n/a	n/a	n/a	n/a	n/a	n/a	n/a	n/a	n/a
258235	WORD	wordpools/wasnorm_wordpool.txt	LTP136	ltpFR	11	1	1	DUMP	505	n/a	0	n/a	0	0	0	0	0.5869140625	0.422607421875	upper	../fonts/amplitud.ttf
261242	START	n/a	LTP136	ltpFR	11	n/a	n/a	n/a	n/a	n/a	n/a	n/a	n/a	n/a	n/a	n/a	n/a	n/a	n/a	n/a
262341	PROB	n/a	LTP136	ltpFR	11	n/a	n/a	n/a	n/a	n/a	n/a	16	6	6	4	n/a	n/a	n/a	n/a	n/a
264823	PROB	n/a	LTP136	ltpFR	11	n/a	n/a	n/a	n/a	n/a	n/a	14	6	4	4	n/a	n/a	n/a	n/a	n/a
267048	PROB	n/a	LTP136	ltpFR	11	n/a	n/a	n/a	n/a	n/a	n/a	8	5	2	1	n/a	n/a	n/a	n/a	n/a
268377	STOP	n/a	LTP136	ltpFR	11	n/a	n/a	n/a	n/a	n/a	n/a	n/a	n/a	n/a	n/a	n/a	n/a	n/a	n/a	n/a
270379	WORD	wordpools/wasnorm_wordpool.txt	LTP136	ltpFR	11	1	1	NURSE	963	n/a	0	n/a	0	0	0	0	0.5869140625	0.422607421875	upper	../fonts/amplitud.ttf
273387	START	n/a	LTP136	ltpFR	11	n/a	n/a	n/a	n/a	n/a	n/a	n/a	n/a	n/a	n/a	n/a	n/a	n/a	n/a	n/a
274353	PROB	n/a	LTP136	ltpFR	11	n/a	n/a	n/a	n/a	n/a	n/a	26	9	8	9	n/a	n/a	n/a	n/a	n/a
276702	PROB	n/a	LTP136	ltpFR	11	n/a	n/a	n/a	n/a	n/a	n/a	14	3	2	9	n/a	n/a	n/a	n/a	n/a
278376	PROB	n/a	LTP136	ltpFR	11	n/a	n/a	n/a	n/a	n/a	n/a	12	4	4	4	n/a	n/a	n/a	n/a	n/a
279834	PROB	n/a	LTP136	ltpFR	11	n/a	n/a	n/a	n/a	n/a	n/a	14	4	5	5	n/a	n/a	n/a	n/a	n/a
281274	STOP	n/a	LTP136	ltpFR	11	n/a	n/a	n/a	n/a	n/a	n/a	n/a	n/a	n/a	n/a	n/a	n/a	n/a	n/a	n/a
283268	REC_START	n/a	LTP136	ltpFR	11	1	n/a	n/a	n/a	n/a	n/a	n/a	0	0	0	n/a	n/a	n/a	n/a	n/a
284395	REC_WORD	wordpools/wasnorm_wordpool.txt	LTP136	ltpFR	11	1	0	JOINT	758	n/a	0	n/a	0	0	0	n/a	n/a	n/a	n/a	n/a
285777	REC_WORD	wordpools/wasnorm_wordpool.txt	LTP136	ltpFR	11	1	0	AUDIENCE	59	n/a	0	n/a	0	0	0	n/a	n/a	n/a	n/a	n/a
287049	REC_WORD	wordpools/wasnorm_wordpool.txt	LTP136	ltpFR	11	1	0	SHRUB	1299	n/a	0	n/a	0	0	0	n/a	n/a	n/a	n/a	n/a
288755	REC_WORD	wordpools/wasnorm_wordpool.txt	LTP136	ltpFR	11	1	1	CITIZEN	312	n/a	0	n/a	0	0	0	n/a	n/a	n/a	n/a	n/a
290706	REC_WORD	wordpools/wasnorm_wordpool.txt	LTP136	ltpFR	11	1	0	ATOM	55	n/a	0	n/a	0	0	0	n/a	n/a	n/a	n/a	n/a
292153	REC_WORD	wordpools/wasnorm_wordpool.txt	LTP136	ltpFR	11	1	0	PLANT	1083	n/a	0	n/a	0	0	0	n/a	n/a	n/a	n/a	n/a
294043	REC_WORD	wordpools/wasnorm_wordpool.txt	LTP136	ltpFR	11	1	1	MICROSCOPE	891	n/a	0	n/a	0	0	0	n/a	n/a	n/a	n/a	n/a
296273	REC_WORD	wordpools/wasnorm_wordpool.txt	LTP136	ltpFR	11	1	1	DOORBELL	487	n/a	0	n/a	0	0	0	n/a	n/a	n/a	n/a	n/a
298134	REC_WORD	wordpools/wasnorm_wordpool.txt	LTP136	ltpFR	11	1	n/a	DOORKNOB	-1	n/a	n/a	n/a	0	0	0	n/a	n/a	n/a	n/a	n/a
302419	REC_WORD	wordpools/wasnorm_wordpool.txt	LTP136	ltpFR	11	1	1	GEM	629	n/a	0	n/a	0	0	0	n/a	n/a	n/a	n/a	n/a
403041	WORD	wordpools/wasnorm_wordpool.txt	LTP136	ltpFR	11	2	1	BRIEFCASE	175	n/a	0	n/a	0	0	0	0	0.5869140625	0.422607421875	upper	../fonts/amplitud.ttf
407065	WORD	wordpools/wasnorm_wordpool.txt	LTP136	ltpFR	11	2	1	TYPEWRITER	1531	n/a	0	n/a	0	0	0	0	0.5869140625	0.422607421875	upper	../fonts/amplitud.ttf
411263	WORD	wordpools/wasnorm_wordpool.txt	LTP136	ltpFR	11	2	1	ELBOW	520	n/a	0	n/a	0	0	0	0	0.5869140625	0.422607421875	upper	../fonts/amplitud.ttf
415096	WORD	wordpools/wasnorm_wordpool.txt	LTP136	ltpFR	11	2	1	COLESLAW	344	n/a	1	n/a	0	0	0	0	0.5869140625	0.422607421875	upper	../fonts/amplitud.ttf
418944	WORD	wordpools/wasnorm_wordpool.txt	LTP136	ltpFR	11	2	1	SHEPHERD	1283	n/a	0	n/a	0	0	0	0	0.5869140625	0.422607421875	upper	../fonts/amplitud.ttf
422893	WORD	wordpools/wasnorm_wordpool.txt	LTP136	ltpFR	11	2	1	KEEPER	769	n/a	0	n/a	0	0	0	0	0.5869140625	0.422607421875	upper	../fonts/amplitud.ttf
427041	WORD	wordpools/wasnorm_wordpool.txt	LTP136	ltpFR	11	2	1	ATTIC	56	n/a	0	n/a	0	0	0	0	0.5869140625	0.422607421875	upper	../fonts/amplitud.ttf
431156	WORD	wordpools/wasnorm_wordpool.txt	LTP136	ltpFR	11	2	1	EGYPT	519	n/a	0	n/a	0	0	0	0	0.5869140625	0.422607421875	upper	../fonts/amplitud.ttf
435147	WORD	wordpools/wasnorm_wordpool.txt	LTP136	ltpFR	11	2	1	LIVER	833	n/a	0	n/a	0	0	0	0	0.5869140625	0.422607421875	upper	../fonts/amplitud.ttf
439320	WORD	wordpools/wasnorm_wordpool.txt	LTP136	ltpFR	11	2	1	QUILT	1151	n/a	0	n/a	0	0	0	0	0.5869140625	0.422607421875	upper	../fonts/amplitud.ttf
443186	WORD	wordpools/wasnorm_wordpool.txt	LTP136	ltpFR	11	2	1	SHOULDER	1294	n/a	0	n/a	0	0	0	0	0.5869140625	0.422607421875	upper	../fonts/amplitud.ttf
447134	WORD	wordpools/wasnorm_wordpool.txt	LTP136	ltpFR	11	2	1	BOTTLE	153	n/a	0	n/a	0	0	0	0	0.5869140625	0.422607421875	upper	../fonts/amplitud.ttf
451233	WORD	wordpools/wasnorm_wordpool.txt	LTP136	ltpFR	11	2	1	ANTLER	29	n/a	0	n/a	0	0	0	0	0.5869140625	0.422607421875	upper	../fonts/amplitud.ttf
455405	WORD	wordpools/wasnorm_wordpool.txt	LTP136	ltpFR	11	2	1	CLOWN	330	n/a	0	n/a	0	0	0	0	0.5869140625	0.422607421875	upper	../fonts/amplitud.ttf
459462	WORD	wordpools/wasnorm_wordpool.txt	LTP136	ltpFR	11	2	1	DESIGNER	451	n/a	1	n/a	0	0	0	0	0.5869140625	0.422607421875	upper	../fonts/amplitud.ttf
463427	WORD	wordpools/wasnorm_wordpool.txt	LTP136	ltpFR	11	2	1	DRESSER	496	n/a	0	n/a	0	0	0	0	0.5869140625	0.422607421875	upper	../fonts/amplitud.ttf
466435	START	n/a	LTP136	ltpFR	11	n/a	n/a	n/a	n/a	n/a	n/a	n/a	n/a	n/a	n/a	n/a	n/a	n/a	n/a	n/a
467451	PROB	n/a	LTP136	ltpFR	11	n/a	n/a	n/a	n/a	n/a	n/a	18	2	8	8	n/a	n/a	n/a	n/a	n/a
469268	PROB	n/a	LTP136	ltpFR	11	n/a	n/a	n/a	n/a	n/a	n/a	19	8	5	6	n/a	n/a	n/a	n/a	n/a
471783	PROB	n/a	LTP136	ltpFR	11	n/a	n/a	n/a	n/a	n/a	n/a	17	6	3	8	n/a	n/a	n/a	n/a	n/a
473665	STOP	n/a	LTP136	ltpFR	11	n/a	n/a	n/a	n/a	n/a	n/a	n/a	n/a	n/a	n/a	n/a	n/a	n/a	n/a	n/a
476158	REC_START	n/a	LTP136	ltpFR	11	2	n/a	n/a	n/a	n/a	n/a	n/a	0	0	0	n/a	n/a	n/a	n/a	n/a
476786	REC_WORD	wordpools/wasnorm_wordpool.txt	LTP136	ltpFR	11	2	1	SHEPHERD	1283	n/a	0	n/a	0	0	0	n/a	n/a	n/a	n/a	n/a
478268	REC_WORD	wordpools/wasnorm_wordpool.txt	LTP136	ltpFR	11	2	1	KEEPER	769	n/a	0	n/a	0	0	0	n/a	n/a	n/a	n/a	n/a
479795	REC_WORD	wordpools/wasnorm_wordpool.txt	LTP136	ltpFR	11	2	1	CLOWN	330	n/a	0	n/a	0	0	0	n/a	n/a	n/a	n/a	n/a
481535	REC_WORD	wordpools/wasnorm_wordpool.txt	LTP136	ltpFR	11	2	1	EGYPT	519	n/a	0	n/a	0	0	0	n/a	n/a	n/a	n/a	n/a
483322	REC_WORD	wordpools/wasnorm_wordpool.txt	LTP136	ltpFR	11	2	1	BRIEFCASE	175	n/a	0	n/a	0	0	0	n/a	n/a	n/a	n/a	n/a
486444	REC_WORD	wordpools/wasnorm_wordpool.txt	LTP136	ltpFR	11	2	1	DRESSER	496	n/a	0	n/a	0	0	0	n/a	n/a	n/a	n/a	n/a
488141	REC_WORD	wordpools/wasnorm_wordpool.txt	LTP136	ltpFR	11	2	1	COLESLAW	344	n/a	1	n/a	0	0	0	n/a	n/a	n/a	n/a	n/a
490560	REC_WORD	wordpools/wasnorm_wordpool.txt	LTP136	ltpFR	11	2	1	ANTLER	29	n/a	0	n/a	0	0	0	n/a	n/a	n/a	n/a	n/a
493289	REC_WORD	wordpools/wasnorm_wordpool.txt	LTP136	ltpFR	11	2	1	LIVER	833	n/a	0	n/a	0	0	0	n/a	n/a	n/a	n/a	n/a
495354	REC_WORD	wordpools/wasnorm_wordpool.txt	LTP136	ltpFR	11	2	1	ELBOW	520	n/a	0	n/a	0	0	0	n/a	n/a	n/a	n/a	n/a
511702	REC_WORD	wordpools/wasnorm_wordpool.txt	LTP136	ltpFR	11	2	1	SHOULDER	1294	n/a	0	n/a	0	0	0	n/a	n/a	n/a	n/a	n/a
557694	WORD	wordpools/wasnorm_wordpool.txt	LTP136	ltpFR	11	3	0	FIN	566	n/a	2	n/a	0	0	0	1	0.412841796875	0.57763671875	lower	../fonts/zerothre.ttf
558793	KEY_MSG	n/a	LTP136	ltpFR	11	3	n/a	n/a	n/a	n/a	n/a	n/a	0	0	0	n/a	n/a	n/a	n/a	n/a
561676	WORD	wordpools/wasnorm_wordpool.txt	LTP136	ltpFR	11	3	0	QUARTER	1148	n/a	2	n/a	0	0	0	1	0.412841796875	0.57763671875	lower	../fonts/zerothre.ttf
562800	KEY_MSG	n/a	LTP136	ltpFR	11	3	n/a	n/a	n/a	n/a	n/a	n/a	0	0	0	n/a	n/a	n/a	n/a	n/a
565749	WORD	wordpools/wasnorm_wordpool.txt	LTP136	ltpFR	11	3	0	FAMILY	550	n/a	0	n/a	0	0	0	1	0.412841796875	0.57763671875	lower	../fonts/zerothre.ttf
569841	WORD	wordpools/wasnorm_wordpool.txt	LTP136	ltpFR	11	3	0	PARENT	1013	n/a	1	n/a	0	0	0	1	0.412841796875	0.57763671875	lower	../fonts/zerothre.ttf
573914	WORD	wordpools/wasnorm_wordpool.txt	LTP136	ltpFR	11	3	0	SUPERMARKET	1409	n/a	1	n/a	0	0	0	1	0.412841796875	0.57763671875	lower	../fonts/zerothre.ttf
578071	WORD	wordpools/wasnorm_wordpool.txt	LTP136	ltpFR	11	3	0	CART	250	n/a	0	n/a	0	0	0	1	0.412841796875	0.57763671875	lower	../fonts/zerothre.ttf
582045	WORD	wordpools/wasnorm_wordpool.txt	LTP136	ltpFR	11	3	0	PLASTER	1085	n/a	0	n/a	0	0	0	1	0.412841796875	0.57763671875	lower	../fonts/zerothre.ttf
586110	WORD	wordpools/wasnorm_wordpool.txt	LTP136	ltpFR	11	3	0	BUS	201	n/a	1	n/a	0	0	0	1	0.412841796875	0.57763671875	lower	../fonts/zerothre.ttf
589992	WORD	wordpools/wasnorm_wordpool.txt	LTP136	ltpFR	11	3	0	HAYSTACK	694	n/a	0	n/a	0	0	0	1	0.412841796875	0.57763671875	lower	../fonts/zerothre.ttf
594082	WORD	wordpools/wasnorm_wordpool.txt	LTP136	ltpFR	11	3	0	YARN	1631	n/a	0	n/a	0	0	0	1	0.412841796875	0.57763671875	lower	../fonts/zerothre.ttf
598255	WORD	wordpools/wasnorm_wordpool.txt	LTP136	ltpFR	11	3	0	COUGAR	387	n/a	1	n/a	0	0	0	1	0.412841796875	0.57763671875	lower	../fonts/zerothre.ttf
602221	WORD	wordpools/wasnorm_wordpool.txt	LTP136	ltpFR	11	3	0	ASH	44	n/a	0	n/a	0	0	0	1	0.412841796875	0.57763671875	lower	../fonts/zerothre.ttf
606302	WORD	wordpools/wasnorm_wordpool.txt	LTP136	ltpFR	11	3	0	JOURNAL	760	n/a	0	n/a	0	0	0	1	0.412841796875	0.57763671875	lower	../fonts/zerothre.ttf
610226	WORD	wordpools/wasnorm_wordpool.txt	LTP136	ltpFR	11	3	0	CEILING	265	n/a	1	n/a	0	0	0	1	0.412841796875	0.57763671875	lower	../fonts/zerothre.ttf
614333	WORD	wordpools/wasnorm_wordpool.txt	LTP136	ltpFR	11	3	0	BUGLE	189	n/a	0	n/a	0	0	0	1	0.412841796875	0.57763671875	lower	../fonts/zerothre.ttf
618456	WORD	wordpools/wasnorm_wordpool.txt	LTP136	ltpFR	11	3	0	BANK	83	n/a	0	n/a	0	0	0	1	0.412841796875	0.57763671875	lower	../fonts/zerothre.ttf
624338	REC_START	n/a	LTP136	ltpFR	11	3	n/a	n/a	n/a	n/a	n/a	n/a	0	0	0	n/a	n/a	n/a	n/a	n/a
624891	REC_WORD	wordpools/wasnorm_wordpool.txt	LTP136	ltpFR	11	3	0	CEILING	265	n/a	1	n/a	0	0	0	n/a	n/a	n/a	n/a	n/a
626138	REC_WORD	wordpools/wasnorm_wordpool.txt	LTP136	ltpFR	11	3	0	BUGLE	189	n/a	0	n/a	0	0	0	n/a	n/a	n/a	n/a	n/a
627385	REC_WORD	wordpools/wasnorm_wordpool.txt	LTP136	ltpFR	11	3	0	BANK	83	n/a	0	n/a	0	0	0	n/a	n/a	n/a	n/a	n/a
628897	REC_WORD	wordpools/wasnorm_wordpool.txt	LTP136	ltpFR	11	3	0	PARENT	1013	n/a	1	n/a	0	0	0	n/a	n/a	n/a	n/a	n/a
630284	REC_WORD	wordpools/wasnorm_wordpool.txt	LTP136	ltpFR	11	3	0	FAMILY	550	n/a	0	n/a	0	0	0	n/a	n/a	n/a	n/a	n/a
631646	REC_WORD	wordpools/wasnorm_wordpool.txt	LTP136	ltpFR	11	3	0	SUPERMARKET	1409	n/a	1	n/a	0	0	0	n/a	n/a	n/a	n/a	n/a
635936	REC_WORD	wordpools/wasnorm_wordpool.txt	LTP136	ltpFR	11	3	0	QUARTER	1148	n/a	2	n/a	0	0	0	n/a	n/a	n/a	n/a	n/a
637273	REC_WORD	wordpools/wasnorm_wordpool.txt	LTP136	ltpFR	11	3	0	FIN	566	n/a	2	n/a	0	0	0	n/a	n/a	n/a	n/a	n/a
641658	REC_WORD	wordpools/wasnorm_wordpool.txt	LTP136	ltpFR	11	3	0	PLASTER	1085	n/a	0	n/a	0	0	0	n/a	n/a	n/a	n/a	n/a
643015	REC_WORD	wordpools/wasnorm_wordpool.txt	LTP136	ltpFR	11	3	0	CEILING	265	n/a	1	n/a	0	0	0	n/a	n/a	n/a	n/a	n/a
649176	REC_WORD	wordpools/wasnorm_wordpool.txt	LTP136	ltpFR	11	3	0	YARN	1631	n/a	0	n/a	0	0	0	n/a	n/a	n/a	n/a	n/a
650538	REC_WORD	wordpools/wasnorm_wordpool.txt	LTP136	ltpFR	11	3	0	HAYSTACK	694	n/a	0	n/a	0	0	0	n/a	n/a	n/a	n/a	n/a
668173	REC_WORD	wordpools/wasnorm_wordpool.txt	LTP136	ltpFR	11	3	0	ASH	44	n/a	0	n/a	0	0	0	n/a	n/a	n/a	n/a	n/a
685065	REC_WORD	wordpools/wasnorm_wordpool.txt	LTP136	ltpFR	11	3	0	PARENT	1013	n/a	1	n/a	0	0	0	n/a	n/a	n/a	n/a	n/a
686067	REC_WORD	wordpools/wasnorm_wordpool.txt	LTP136	ltpFR	11	3	0	FAMILY	550	n/a	0	n/a	0	0	0	n/a	n/a	n/a	n/a	n/a
841676	WORD	wordpools/wasnorm_wordpool.txt	LTP136	ltpFR	11	4	0	DELINQUENT	445	n/a	0	n/a	0	0	0	1	0.412841796875	0.57763671875	lower	../fonts/zerothre.ttf
845842	WORD	wordpools/wasnorm_wordpool.txt	LTP136	ltpFR	11	4	0	LASER	801	n/a	1	n/a	0	0	0	1	0.412841796875	0.57763671875	lower	../fonts/zerothre.ttf
849673	WORD	wordpools/wasnorm_wordpool.txt	LTP136	ltpFR	11	4	0	NAPKIN	937	n/a	0	n/a	0	0	0	1	0.412841796875	0.57763671875	lower	../fonts/zerothre.ttf
853664	WORD	wordpools/wasnorm_wordpool.txt	LTP136	ltpFR	11	4	0	PAGE	1001	n/a	0	n/a	0	0	0	1	0.412841796875	0.57763671875	lower	../fonts/zerothre.ttf
857504	WORD	wordpools/wasnorm_wordpool.txt	LTP136	ltpFR	11	4	0	VIOLA	1570	n/a	0	n/a	0	0	0	1	0.412841796875	0.57763671875	lower	../fonts/zerothre.ttf
861661	WORD	wordpools/wasnorm_wordpool.txt	LTP136	ltpFR	11	4	0	ANTEATER	26	n/a	1	n/a	0	0	0	1	0.412841796875	0.57763671875	lower	../fonts/zerothre.ttf
865793	WORD	wordpools/wasnorm_wordpool.txt	LTP136	ltpFR	11	4	0	SOCKET	1340	n/a	0	n/a	0	0	0	1	0.412841796875	0.57763671875	lower	../fonts/zerothre.ttf
869950	WORD	wordpools/wasnorm_wordpool.txt	LTP136	ltpFR	11	4	0	FOOTBALL	591	n/a	0	n/a	0	0	0	1	0.412841796875	0.57763671875	lower	../fonts/zerothre.ttf
873773	WORD	wordpools/wasnorm_wordpool.txt	LTP136	ltpFR	11	4	0	MOTH	920	n/a	0	n/a	0	0	0	1	0.412841796875	0.57763671875	lower	../fonts/zerothre.ttf
877981	WORD	wordpools/wasnorm_wordpool.txt	LTP136	ltpFR	11	4	0	COCOON	339	n/a	0	n/a	0	0	0	1	0.412841796875	0.57763671875	lower	../fonts/zerothre.ttf
881938	WORD	wordpools/wasnorm_wordpool.txt	LTP136	ltpFR	11	4	0	DRAWING	494	n/a	0	n/a	0	0	0	1	0.412841796875	0.57763671875	lower	../fonts/zerothre.ttf
885870	WORD	wordpools/wasnorm_wordpool.txt	LTP136	ltpFR	11	4	0	VILLAIN	1567	n/a	0	n/a	0	0	0	1	0.412841796875	0.57763671875	lower	../fonts/zerothre.ttf
889684	WORD	wordpools/wasnorm_wordpool.txt	LTP136	ltpFR	11	4	0	FIDDLE	561	n/a	0	n/a	0	0	0	1	0.412841796875	0.57763671875	lower	../fonts/zerothre.ttf
893799	WORD	wordpools/wasnorm_wordpool.txt	LTP136	ltpFR	11	4	0	DOG	480	n/a	0	n/a	0	0	0	1	0.412841796875	0.57763671875	lower	../fonts/zerothre.ttf
897665	WORD	wordpools/wasnorm_wordpool.txt	LTP136	ltpFR	11	4	0	BARK	87	n/a	0	n/a	0	0	0	1	0.412841796875	0.57763671875	lower	../fonts/zerothre.ttf
901738	WORD	wordpools/wasnorm_wordpool.txt	LTP136	ltpFR	11	4	0	CLARINET	317	n/a	0	n/a	0	0	0	1	0.412841796875	0.57763671875	lower	../fonts/zerothre.ttf
904746	START	n/a	LTP136	ltpFR	11	n/a	n/a	n/a	n/a	n/a	n/a	n/a	n/a	n/a	n/a	n/a	n/a	n/a	n/a	n/a
905620	PROB	n/a	LTP136	ltpFR	11	n/a	n/a	n/a	n/a	n/a	n/a	14	8	5	1	n/a	n/a	n/a	n/a	n/a
908087	PROB	n/a	LTP136	ltpFR	11	n/a	n/a	n/a	n/a	n/a	n/a	22	5	8	9	n/a	n/a	n/a	n/a	n/a
910228	PROB	n/a	LTP136	ltpFR	11	n/a	n/a	n/a	n/a	n/a	n/a	15	3	5	7	n/a	n/a	n/a	n/a	n/a
911882	STOP	n/a	LTP136	ltpFR	11	n/a	n/a	n/a	n/a	n/a	n/a	n/a	n/a	n/a	n/a	n/a	n/a	n/a	n/a	n/a
914659	REC_START	n/a	LTP136	ltpFR	11	4	n/a	n/a	n/a	n/a	n/a	n/a	0	0	0	n/a	n/a	n/a	n/a	n/a
915087	REC_WORD	wordpools/wasnorm_wordpool.txt	LTP136	ltpFR	11	4	0	FIDDLE	561	n/a	0	n/a	0	0	0	n/a	n/a	n/a	n/a	n/a
916335	REC_WORD	wordpools/wasnorm_wordpool.txt	LTP136	ltpFR	11	4	0	VIOLA	1570	n/a	0	n/a	0	0	0	n/a	n/a	n/a	n/a	n/a
917612	REC_WORD	wordpools/wasnorm_wordpool.txt	LTP136	ltpFR	11	4	0	CLARINET	317	n/a	0	n/a	0	0	0	n/a	n/a	n/a	n/a	n/a
919034	REC_WORD	wordpools/wasnorm_wordpool.txt	LTP136	ltpFR	11	4	0	DOG	480	n/a	0	n/a	0	0	0	n/a	n/a	n/a	n/a	n/a
920056	REC_WORD	wordpools/wasnorm_wordpool.txt	LTP136	ltpFR	11	4	0	BARK	87	n/a	0	n/a	0	0	0	n/a	n/a	n/a	n/a	n/a
921174	REC_WORD	wordpools/wasnorm_wordpool.txt	LTP136	ltpFR	11	4	0	DELINQUENT	445	n/a	0	n/a	0	0	0	n/a	n/a	n/a	n/a	n/a
922730	REC_WORD	wordpools/wasnorm_wordpool.txt	LTP136	ltpFR	11	4	0	VILLAIN	1567	n/a	0	n/a	0	0	0	n/a	n/a	n/a	n/a	n/a
924212	REC_WORD	wordpools/wasnorm_wordpool.txt	LTP136	ltpFR	11	4	0	ANTEATER	26	n/a	1	n/a	0	0	0	n/a	n/a	n/a	n/a	n/a
936330	REC_WORD	wordpools/wasnorm_wordpool.txt	LTP136	ltpFR	11	4	0	SOCKET	1340	n/a	0	n/a	0	0	0	n/a	n/a	n/a	n/a	n/a
993174	START	n/a	LTP136	ltpFR	11	n/a	n/a	n/a	n/a	n/a	n/a	n/a	n/a	n/a	n/a	n/a	n/a	n/a	n/a	n/a
994680	PROB	n/a	LTP136	ltpFR	11	n/a	n/a	n/a	n/a	n/a	n/a	17	2	8	7	n/a	n/a	n/a	n/a	n/a
996214	PROB	n/a	LTP136	ltpFR	11	n/a	n/a	n/a	n/a	n/a	n/a	16	6	9	1	n/a	n/a	n/a	n/a	n/a
997554	PROB	n/a	LTP136	ltpFR	11	n/a	n/a	n/a	n/a	n/a	n/a	17	5	8	4	n/a	n/a	n/a	n/a	n/a
1001173	STOP	n/a	LTP136	ltpFR	11	n/a	n/a	n/a	n/a	n/a	n/a	n/a	n/a	n/a	n/a	n/a	n/a	n/a	n/a	n/a
1002054	WORD	wordpools/wasnorm_wordpool.txt	LTP136	ltpFR	11	5	1	CLAW	319	n/a	2	n/a	0	0	0	0	0.5869140625	0.422607421875	upper	../fonts/amplitud.ttf
1003469	KEY_MSG	n/a	LTP136	ltpFR	11	5	n/a	n/a	n/a	n/a	n/a	n/a	0	0	0	n/a	n/a	n/a	n/a	n/a
1005061	START	n/a	LTP136	ltpFR	11	n/a	n/a	n/a	n/a	n/a	n/a	n/a	n/a	n/a	n/a	n/a	n/a	n/a	n/a	n/a
1006102	PROB	n/a	LTP136	ltpFR	11	n/a	n/a	n/a	n/a	n/a	n/a	12	8	1	3	n/a	n/a	n/a	n/a	n/a
1008310	PROB	n/a	LTP136	ltpFR	11	n/a	n/a	n/a	n/a	n/a	n/a	14	7	6	1	n/a	n/a	n/a	n/a	n/a
1010833	PROB	n/a	LTP136	ltpFR	11	n/a	n/a	n/a	n/a	n/a	n/a	19	8	8	3	n/a	n/a	n/a	n/a	n/a
1012314	STOP	n/a	LTP136	ltpFR	11	n/a	n/a	n/a	n/a	n/a	n/a	n/a	n/a	n/a	n/a	n/a	n/a	n/a	n/a	n/a
1014224	WORD	wordpools/wasnorm_wordpool.txt	LTP136	ltpFR	11	5	1	UNIVERSE	1540	n/a	0	n/a	0	0	0	0	0.5869140625	0.422607421875	upper	../fonts/amplitud.ttf
1017232	START	n/a	LTP136	ltpFR	11	n/a	n/a	n/a	n/a	n/a	n/a	n/a	n/a	n/a	n/a	n/a	n/a	n/a	n/a	n/a
1018214	PROB	n/a	LTP136	ltpFR	11	n/a	n/a	n/a	n/a	n/a	n/a	13	5	6	2	n/a	n/a	n/a	n/a	n/a
1019605	PROB	n/a	LTP136	ltpFR	11	n/a	n/a	n/a	n/a	n/a	n/a	22	5	9	8	n/a	n/a	n/a	n/a	n/a
1023288	PROB	n/a	LTP136	ltpFR	11	n/a	n/a	n/a	n/a	n/a	n/a	15	4	2	9	n/a	n/a	n/a	n/a	n/a
1024593	STOP	n/a	LTP136	ltpFR	11	n/a	n/a	n/a	n/a	n/a	n/a	n/a	n/a	n/a	n/a	n/a	n/a	n/a	n/a	n/a
1026212	WORD	wordpools/wasnorm_wordpool.txt	LTP136	ltpFR	11	5	0	GAZELLE	628	n/a	0	n/a	0	0	0	1	0.412841796875	0.57763671875	lower	../fonts/zerothre.ttf
1029220	START	n/a	LTP136	ltpFR	11	n/a	n/a	n/a	n/a	n/a	n/a	n/a	n/a	n/a	n/a	n/a	n/a	n/a	n/a	n/a
1030110	PROB	n/a	LTP136	ltpFR	11	n/a	n/a	n/a	n/a	n/a	n/a	13	2	8	3	n/a	n/a	n/a	n/a	n/a
1031384	PROB	n/a	LTP136	ltpFR	11	n/a	n/a	n/a	n/a	n/a	n/a	22	9	5	8	n/a	n/a	n/a	n/a	n/a
1032893	PROB	n/a	LTP136	ltpFR	11	n/a	n/a	n/a	n/a	n/a	n/a	9	2	5	2	n/a	n/a	n/a	n/a	n/a
1037219	STOP	n/a	LTP136	ltpFR	11	n/a	n/a	n/a	n/a	n/a	n/a	n/a	n/a	n/a	n/a	n/a	n/a	n/a	n/a	n/a
1038182	WORD	wordpools/wasnorm_wordpool.txt	LTP136	ltpFR	11	5	0	SANDWICH	1232	n/a	0	n/a	0	0	0	1	0.412841796875	0.57763671875	lower	../fonts/zerothre.ttf
1041190	START	n/a	LTP136	ltpFR	11	n/a	n/a	n/a	n/a	n/a	n/a	n/a	n/a	n/a	n/a	n/a	n/a	n/a	n/a	n/a
1042388	PROB	n/a	LTP136	ltpFR	11	n/a	n/a	n/a	n/a	n/a	n/a	9	3	1	5	n/a	n/a	n/a	n/a	n/a
1044821	PROB	n/a	LTP136	ltpFR	11	n/a	n/a	n/a	n/a	n/a	n/a	23	8	9	6	n/a	n/a	n/a	n/a	n/a
1047689	STOP	n/a	LTP136	ltpFR	11	n/a	n/a	n/a	n/a	n/a	n/a	n/a	n/a	n/a	n/a	n/a	n/a	n/a	n/a	n/a
1050320	WORD	wordpools/wasnorm_wordpool.txt	LTP136	ltpFR	11	5	0	HARE	688	n/a	0	n/a	0	0	0	1	0.412841796875	0.57763671875	lower	../fonts/zerothre.ttf
1053327	START	n/a	LTP136	ltpFR	11	n/a	n/a	n/a	n/a	n/a	n/a	n/a	n/a	n/a	n/a	n/a	n/a	n/a	n/a	n/a
1054476	PROB	n/a	LTP136	ltpFR	11	n/a	n/a	n/a	n/a	n/a	n/a	18	8	2	8	n/a	n/a	n/a	n/a	n/a
1057034	PROB	n/a	LTP136	ltpFR	11	n/a	n/a	n/a	n/a	n/a	n/a	27	9	9	8	n/a	n/a	n/a	n/a	n/a
1059025	PROB	n/a	LTP136	ltpFR	11	n/a	n/a	n/a	n/a	n/a	n/a	15	2	8	5	n/a	n/a	n/a	n/a	n/a
1060970	STOP	n/a	LTP136	ltpFR	11	n/a	n/a	n/a	n/a	n/a	n/a	n/a	n/a	n/a	n/a	n/a	n/a	n/a	n/a	n/a
1062364	WORD	wordpools/wasnorm_wordpool.txt	LTP136	ltpFR	11	5	1	ROBIN	1199	n/a	0	n/a	0	0	0	0	0.5869140625	0.422607421875	upper	../fonts/amplitud.ttf
1065372	START	n/a	LTP136	ltpFR	11	n/a	n/a	n/a	n/a	n/a	n/a	n/a	n/a	n/a	n/a	n/a	n/a	n/a	n/a	n/a
1066222	PROB	n/a	LTP136	ltpFR	11	n/a	n/a	n/a	n/a	n/a	n/a	12	6	1	5	n/a	n/a	n/a	n/a	n/a
1067438	PROB	n/a	LTP136	ltpFR	11	n/a	n/a	n/a	n/a	n/a	n/a	18	5	4	9	n/a	n/a	n/a	n/a	n/a
1069354	PROB	n/a	LTP136	ltpFR	11	n/a	n/a	n/a	n/a	n/a	n/a	16	3	6	7	n/a	n/a	n/a	n/a	n/a
1073106	STOP	n/a	LTP136	ltpFR	11	n/a	n/a	n/a	n/a	n/a	n/a	n/a	n/a	n/a	n/a	n/a	n/a	n/a	n/a	n/a
1074393	WORD	wordpools/wasnorm_wordpool.txt	LTP136	ltpFR	11	5	1	CAGE	218	n/a	0	n/a	0	0	0	0	0.5869140625	0.422607421875	upper	../fonts/amplitud.ttf
1077401	START	n/a	LTP136	ltpFR	11	n/a	n/a	n/a	n/a	n/a	n/a	n/a	n/a	n/a	n/a	n/a	n/a	n/a	n/a	n/a
1078484	PROB	n/a	LTP136	ltpFR	11	n/a	n/a	n/a	n/a	n/a	n/a	8	2	1	5	n/a	n/a	n/a	n/a	n/a
1079800	PROB	n/a	LTP136	ltpFR	11	n/a	n/a	n/a	n/a	n/a	n/a	15	6	5	4	n/a	n/a	n/a	n/a	n/a
1081234	PROB	n/a	LTP136	ltpFR	11	n/a	n/a	n/a	n/a	n/a	n/a	20	9	2	9	n/a	n/a	n/a	n/a	n/a
1083382	PROB	n/a	LTP136	ltpFR	11	n/a	n/a	n/a	n/a	n/a	n/a	11	5	2	4	n/a	n/a	n/a	n/a	n/a
1084817	STOP	n/a	LTP136	ltpFR	11	n/a	n/a	n/a	n/a	n/a	n/a	n/a	n/a	n/a	n/a	n/a	n/a	n/a	n/a	n/a
1086439	WORD	wordpools/wasnorm_wordpool.txt	LTP136	ltpFR	11	5	1	KLEENEX	782	n/a	0	n/a	0	0	0	0	0.5869140625	0.422607421875	upper	../fonts/amplitud.ttf
1089447	START	n/a	LTP136	ltpFR	11	n/a	n/a	n/a	n/a	n/a	n/a	n/a	n/a	n/a	n/a	n/a	n/a	n/a	n/a	n/a
1090330	PROB	n/a	LTP136	ltpFR	11	n/a	n/a	n/a	n/a	n/a	n/a	11	1	9	1	n/a	n/a	n/a	n/a	n/a
1091529	PROB	n/a	LTP136	ltpFR	11	n/a	n/a	n/a	n/a	n/a	n/a	13	2	6	5	n/a	n/a	n/a	n/a	n/a
1093238	PROB	n/a	LTP136	ltpFR	11	n/a	n/a	n/a	n/a	n/a	n/a	21	6	7	8	n/a	n/a	n/a	n/a	n/a
1095087	PROB	n/a	LTP136	ltpFR	11	n/a	n/a	n/a	n/a	n/a	n/a	15	2	7	6	n/a	n/a	n/a	n/a	n/a
1096513	STOP	n/a	LTP136	ltpFR	11	n/a	n/a	n/a	n/a	n/a	n/a	n/a	n/a	n/a	n/a	n/a	n/a	n/a	n/a	n/a
1098585	WORD	wordpools/wasnorm_wordpool.txt	LTP136	ltpFR	11	5	1	TORTOISE	1486	n/a	0	n/a	0	0	0	0	0.5869140625	0.422607421875	upper	../fonts/amplitud.ttf
1101592	START	n/a	LTP136	ltpFR	11	n/a	n/a	n/a	n/a	n/a	n/a	n/a	n/a	n/a	n/a	n/a	n/a	n/a	n/a	n/a
1102650	PROB	n/a	LTP136	ltpFR	11	n/a	n/a	n/a	n/a	n/a	n/a	12	3	8	1	n/a	n/a	n/a	n/a	n/a
1104167	PROB	n/a	LTP136	ltpFR	11	n/a	n/a	n/a	n/a	n/a	n/a	17	3	8	6	n/a	n/a	n/a	n/a	n/a
1105883	PROB	n/a	LTP136	ltpFR	11	n/a	n/a	n/a	n/a	n/a	n/a	26	9	8	8	n/a	n/a	n/a	n/a	n/a
1108345	STOP	n/a	LTP136	ltpFR	11	n/a	n/a	n/a	n/a	n/a	n/a	n/a	n/a	n/a	n/a	n/a	n/a	n/a	n/a	n/a
1110681	WORD	wordpools/wasnorm_wordpool.txt	LTP136	ltpFR	11	5	0	SCAPEGOAT	1244	n/a	2	n/a	0	0	0	1	0.412841796875	0.57763671875	lower	../fonts/zerothre.ttf
1111489	KEY_MSG	n/a	LTP136	ltpFR	11	5	n/a	n/a	n/a	n/a	n/a	n/a	0	0	0	n/a	n/a	n/a	n/a	n/a
1113688	START	n/a	LTP136	ltpFR	11	n/a	n/a	n/a	n/a	n/a	n/a	n/a	n/a	n/a	n/a	n/a	n/a	n/a	n/a	n/a
1114687	PROB	n/a	LTP136	ltpFR	11	n/a	n/a	n/a	n/a	n/a	n/a	10	5	1	4	n/a	n/a	n/a	n/a	n/a
1116155	PROB	n/a	LTP136	ltpFR	11	n/a	n/a	n/a	n/a	n/a	n/a	6	2	2	2	n/a	n/a	n/a	n/a	n/a
1117146	PROB	n/a	LTP136	ltpFR	11	n/a	n/a	n/a	n/a	n/a	n/a	15	5	9	1	n/a	n/a	n/a	n/a	n/a
1118361	PROB	n/a	LTP136	ltpFR	11	n/a	n/a	n/a	n/a	n/a	n/a	17	7	2	8	n/a	n/a	n/a	n/a	n/a
1120385	STOP	n/a	LTP136	ltpFR	11	n/a	n/a	n/a	n/a	n/a	n/a	n/a	n/a	n/a	n/a	n/a	n/a	n/a	n/a	n/a
1122601	WORD	wordpools/wasnorm_wordpool.txt	LTP136	ltpFR	11	5	0	NOSE	957	n/a	0	n/a	0	0	0	1	0.412841796875	0.57763671875	lower	../fonts/zerothre.ttf
1125609	START	n/a	LTP136	ltpFR	11	n/a	n/a	n/a	n/a	n/a	n/a	n/a	n/a	n/a	n/a	n/a	n/a	n/a	n/a	n/a
1126608	PROB	n/a	LTP136	ltpFR	11	n/a	n/a	n/a	n/a	n/a	n/a	7	4	2	1	n/a	n/a	n/a	n/a	n/a
1127850	PROB	n/a	LTP136	ltpFR	11	n/a	n/a	n/a	n/a	n/a	n/a	13	2	9	2	n/a	n/a	n/a	n/a	n/a
1129507	PROB	n/a	LTP136	ltpFR	11	n/a	n/a	n/a	n/a	n/a	n/a	18	8	9	1	n/a	n/a	n/a	n/a	n/a
1131216	PROB	n/a	LTP136	ltpFR	11	n/a	n/a	n/a	n/a	n/a	n/a	12	1	9	2	n/a	n/a	n/a	n/a	n/a
1133274	STOP	n/a	LTP136	ltpFR	11	n/a	n/a	n/a	n/a	n/a	n/a	n/a	n/a	n/a	n/a	n/a	n/a	n/a	n/a	n/a
1134705	WORD	wordpools/wasnorm_wordpool.txt	LTP136	ltpFR	11	5	0	CUB	419	n/a	0	n/a	0	0	0	1	0.412841796875	0.57763671875	lower	../fonts/zerothre.ttf
1137713	START	n/a	LTP136	ltpFR	11	n/a	n/a	n/a	n/a	n/a	n/a	n/a	n/a	n/a	n/a	n/a	n/a	n/a	n/a	n/a
1138654	PROB	n/a	LTP136	ltpFR	11	n/a	n/a	n/a	n/a	n/a	n/a	7	2	1	4	n/a	n/a	n/a	n/a	n/a
1139988	PROB	n/a	LTP136	ltpFR	11	n/a	n/a	n/a	n/a	n/a	n/a	14	3	7	4	n/a	n/a	n/a	n/a	n/a
1141246	PROB	n/a	LTP136	ltpFR	11	n/a	n/a	n/a	n/a	n/a	n/a	5	1	3	1	n/a	n/a	n/a	n/a	n/a
1142561	PROB	n/a	LTP136	ltpFR	11	n/a	n/a	n/a	n/a	n/a	n/a	24	9	9	6	n/a	n/a	n/a	n/a	n/a
1144274	STOP	n/a	LTP136	ltpFR	11	n/a	n/a	n/a	n/a	n/a	n/a	n/a	n/a	n/a	n/a	n/a	n/a	n/a	n/a	n/a
1146834	WORD	wordpools/wasnorm_wordpool.txt	LTP136	ltpFR	11	5	0	VIKING	1565	n/a	0	n/a	0	0	0	1	0.412841796875	0.57763671875	lower	../fonts/zerothre.ttf
1149843	START	n/a	LTP136	ltpFR	11	n/a	n/a	n/a	n/a	n/a	n/a	n/a	n/a	n/a	n/a	n/a	n/a	n/a	n/a	n/a
1151034	PROB	n/a	LTP136	ltpFR	11	n/a	n/a	n/a	n/a	n/a	n/a	18	9	4	5	n/a	n/a	n/a	n/a	n/a
1153574	PROB	n/a	LTP136	ltpFR	11	n/a	n/a	n/a	n/a	n/a	n/a	17	4	2	9	n/a	n/a	n/a	n/a	n/a
1155141	PROB	n/a	LTP136	ltpFR	11	n/a	n/a	n/a	n/a	n/a	n/a	15	5	1	9	n/a	n/a	n/a	n/a	n/a
1156481	STOP	n/a	LTP136	ltpFR	11	n/a	n/a	n/a	n/a	n/a	n/a	n/a	n/a	n/a	n/a	n/a	n/a	n/a	n/a	n/a
1158688	WORD	wordpools/wasnorm_wordpool.txt	LTP136	ltpFR	11	5	0	COACH	331	n/a	0	n/a	0	0	0	1	0.412841796875	0.57763671875	lower	../fonts/zerothre.ttf
1161696	START	n/a	LTP136	ltpFR	11	n/a	n/a	n/a	n/a	n/a	n/a	n/a	n/a	n/a	n/a	n/a	n/a	n/a	n/a	n/a
1162880	PROB	n/a	LTP136	ltpFR	11	n/a	n/a	n/a	n/a	n/a	n/a	21	8	8	5	n/a	n/a	n/a	n/a	n/a
1164420	PROB	n/a	LTP136	ltpFR	11	n/a	n/a	n/a	n/a	n/a	n/a	7	1	1	5	n/a	n/a	n/a	n/a	n/a
1165603	PROB	n/a	LTP136	ltpFR	11	n/a	n/a	n/a	n/a	n/a	n/a	15	9	1	5	n/a	n/a	n/a	n/a	n/a
1166912	PROB	n/a	LTP136	ltpFR	11	n/a	n/a	n/a	n/a	n/a	n/a	16	7	3	6	n/a	n/a	n/a	n/a	n/a
1168161	PROB	n/a	LTP136	ltpFR	11	n/a	n/a	n/a	n/a	n/a	n/a	14	5	1	8	n/a	n/a	n/a	n/a	n/a
1169282	STOP	n/a	LTP136	ltpFR	11	n/a	n/a	n/a	n/a	n/a	n/a	n/a	n/a	n/a	n/a	n/a	n/a	n/a	n/a	n/a
1170801	WORD	wordpools/wasnorm_wordpool.txt	LTP136	ltpFR	11	5	1	MOLECULE	905	n/a	0	n/a	0	0	0	0	0.5869140625	0.422607421875	upper	../fonts/amplitud.ttf
1173809	START	n/a	LTP136	ltpFR	11	n/a	n/a	n/a	n/a	n/a	n/a	n/a	n/a	n/a	n/a	n/a	n/a	n/a	n/a	n/a
1174683	PROB	n/a	LTP136	ltpFR	11	n/a	n/a	n/a	n/a	n/a	n/a	11	6	3	2	n/a	n/a	n/a	n/a	n/a
1176507	PROB	n/a	LTP136	ltpFR	11	n/a	n/a	n/a	n/a	n/a	n/a	19	3	7	9	n/a	n/a	n/a	n/a	n/a
1177773	PROB	n/a	LTP136	ltpFR	11	n/a	n/a	n/a	n/a	n/a	n/a	20	9	5	6	n/a	n/a	n/a	n/a	n/a
1180007	PROB	n/a	LTP136	ltpFR	11	n/a	n/a	n/a	n/a	n/a	n/a	15	2	6	7	n/a	n/a	n/a	n/a	n/a
1181545	STOP	n/a	LTP136	ltpFR	11	n/a	n/a	n/a	n/a	n/a	n/a	n/a	n/a	n/a	n/a	n/a	n/a	n/a	n/a	n/a
1182964	WORD	wordpools/wasnorm_wordpool.txt	LTP136	ltpFR	11	5	1	ELECTRON	522	n/a	0	n/a	0	0	0	0	0.5869140625	0.422607421875	upper	../fonts/amplitud.ttf
1185972	START	n/a	LTP136	ltpFR	11	n/a	n/a	n/a	n/a	n/a	n/a	n/a	n/a	n/a	n/a	n/a	n/a	n/a	n/a	n/a
1186778	PROB	n/a	LTP136	ltpFR	11	n/a	n/a	n/a	n/a	n/a	n/a	15	2	5	8	n/a	n/a	n/a	n/a	n/a
1188262	PROB	n/a	LTP136	ltpFR	11	n/a	n/a	n/a	n/a	n/a	n/a	22	7	8	7	n/a	n/a	n/a	n/a	n/a
1189920	PROB	n/a	LTP136	ltpFR	11	n/a	n/a	n/a	n/a	n/a	n/a	16	2	9	5	n/a	n/a	n/a	n/a	n/a
1191402	PROB	n/a	LTP136	ltpFR	11	n/a	n/a	n/a	n/a	n/a	n/a	16	7	8	1	n/a	n/a	n/a	n/a	n/a
1192513	STOP	n/a	LTP136	ltpFR	11	n/a	n/a	n/a	n/a	n/a	n/a	n/a	n/a	n/a	n/a	n/a	n/a	n/a	n/a	n/a
1195877	REC_START	n/a	LTP136	ltpFR	11	5	n/a	n/a	n/a	n/a	n/a	n/a	0	0	0	n/a	n/a	n/a	n/a	n/a
1196615	REC_WORD	wordpools/wasnorm_wordpool.txt	LTP136	ltpFR	11	5	0	SCAPEGOAT	1244	n/a	2	n/a	0	0	0	n/a	n/a	n/a	n/a	n/a
1198236	REC_WORD	wordpools/wasnorm_wordpool.txt	LTP136	ltpFR	11	5	0	CUB	419	n/a	0	n/a	0	0	0	n/a	n/a	n/a	n/a	n/a
1199688	REC_WORD	wordpools/wasnorm_wordpool.txt	LTP136	ltpFR	11	5	0	HARE	688	n/a	0	n/a	0	0	0	n/a	n/a	n/a	n/a	n/a
1201175	REC_WORD	wordpools/wasnorm_wordpool.txt	LTP136	ltpFR	11	5	1	TORTOISE	1486	n/a	0	n/a	0	0	0	n/a	n/a	n/a	n/a	n/a
1202906	REC_WORD	wordpools/wasnorm_wordpool.txt	LTP136	ltpFR	11	5	1	MOLECULE	905	n/a	0	n/a	0	0	0	n/a	n/a	n/a	n/a	n/a
1204672	REC_WORD	wordpools/wasnorm_wordpool.txt	LTP136	ltpFR	11	5	1	ELECTRON	522	n/a	0	n/a	0	0	0	n/a	n/a	n/a	n/a	n/a
1213716	REC_WORD	wordpools/wasnorm_wordpool.txt	LTP136	ltpFR	11	5	1	ROBIN	1199	n/a	0	n/a	0	0	0	n/a	n/a	n/a	n/a	n/a
1215323	REC_WORD	wordpools/wasnorm_wordpool.txt	LTP136	ltpFR	11	5	1	CAGE	218	n/a	0	n/a	0	0	0	n/a	n/a	n/a	n/a	n/a
1251879	REC_WORD	wordpools/wasnorm_wordpool.txt	LTP136	ltpFR	11	5	0	GAZELLE	628	n/a	0	n/a	0	0	0	n/a	n/a	n/a	n/a	n/a
1258589	REC_WORD	wordpools/wasnorm_wordpool.txt	LTP136	ltpFR	11	5	1	UNIVERSE	1540	n/a	0	n/a	0	0	0	n/a	n/a	n/a	n/a	n/a
1272748	START	n/a	LTP136	ltpFR	11	n/a	n/a	n/a	n/a	n/a	n/a	n/a	n/a	n/a	n/a	n/a	n/a	n/a	n/a	n/a
1274257	PROB	n/a	LTP136	ltpFR	11	n/a	n/a	n/a	n/a	n/a	n/a	15	5	5	5	n/a	n/a	n/a	n/a	n/a
1275747	PROB	n/a	LTP136	ltpFR	11	n/a	n/a	n/a	n/a	n/a	n/a	10	5	1	4	n/a	n/a	n/a	n/a	n/a
1276972	PROB	n/a	LTP136	ltpFR	11	n/a	n/a	n/a	n/a	n/a	n/a	22	7	8	7	n/a	n/a	n/a	n/a	n/a
1278272	PROB	n/a	LTP136	ltpFR	11	n/a	n/a	n/a	n/a	n/a	n/a	19	4	9	6	n/a	n/a	n/a	n/a	n/a
1279946	PROB	n/a	LTP136	ltpFR	11	n/a	n/a	n/a	n/a	n/a	n/a	6	2	1	3	n/a	n/a	n/a	n/a	n/a
1281063	PROB	n/a	LTP136	ltpFR	11	n/a	n/a	n/a	n/a	n/a	n/a	19	2	8	9	n/a	n/a	n/a	n/a	n/a
1282419	PROB	n/a	LTP136	ltpFR	11	n/a	n/a	n/a	n/a	n/a	n/a	17	4	8	5	n/a	n/a	n/a	n/a	n/a
1283912	PROB	n/a	LTP136	ltpFR	11	n/a	n/a	n/a	n/a	n/a	n/a	14	7	3	4	n/a	n/a	n/a	n/a	n/a
1285269	PROB	n/a	LTP136	ltpFR	11	n/a	n/a	n/a	n/a	n/a	n/a	17	8	5	4	n/a	n/a	n/a	n/a	n/a
1286643	PROB	n/a	LTP136	ltpFR	11	n/a	n/a	n/a	n/a	n/a	n/a	18	4	5	9	n/a	n/a	n/a	n/a	n/a
1288529	STOP	n/a	LTP136	ltpFR	11	n/a	n/a	n/a	n/a	n/a	n/a	n/a	n/a	n/a	n/a	n/a	n/a	n/a	n/a	n/a
1289659	WORD	wordpools/wasnorm_wordpool.txt	LTP136	ltpFR	11	6	0	WHISTLE	1606	n/a	0	n/a	0	0	0	1	0.412841796875	0.57763671875	lower	../fonts/zerothre.ttf
1292666	START	n/a	LTP136	ltpFR	11	n/a	n/a	n/a	n/a	n/a	n/a	n/a	n/a	n/a	n/a	n/a	n/a	n/a	n/a	n/a
1293774	PROB	n/a	LTP136	ltpFR	11	n/a	n/a	n/a	n/a	n/a	n/a	18	8	1	9	n/a	n/a	n/a	n/a	n/a
1295091	PROB	n/a	LTP136	ltpFR	11	n/a	n/a	n/a	n/a	n/a	n/a	15	6	2	7	n/a	n/a	n/a	n/a	n/a
1297397	PROB	n/a	LTP136	ltpFR	11	n/a	n/a	n/a	n/a	n/a	n/a	13	3	5	5	n/a	n/a	n/a	n/a	n/a
1299190	PROB	n/a	LTP136	ltpFR	11	n/a	n/a	n/a	n/a	n/a	n/a	17	5	4	8	n/a	n/a	n/a	n/a	n/a
1300738	PROB	n/a	LTP136	ltpFR	11	n/a	n/a	n/a	n/a	n/a	n/a	24	9	9	6	n/a	n/a	n/a	n/a	n/a
1302646	PROB	n/a	LTP136	ltpFR	11	n/a	n/a	n/a	n/a	n/a	n/a	26	9	8	9	n/a	n/a	n/a	n/a	n/a
1304338	PROB	n/a	LTP136	ltpFR	11	n/a	n/a	n/a	n/a	n/a	n/a	26	9	8	9	n/a	n/a	n/a	n/a	n/a
1305694	PROB	n/a	LTP136	ltpFR	11	n/a	n/a	n/a	n/a	n/a	n/a	10	4	3	3	n/a	n/a	n/a	n/a	n/a
1307505	STOP	n/a	LTP136	ltpFR	11	n/a	n/a	n/a	n/a	n/a	n/a	n/a	n/a	n/a	n/a	n/a	n/a	n/a	n/a	n/a
1309768	WORD	wordpools/wasnorm_wordpool.txt	LTP136	ltpFR	11	6	0	KITCHEN	778	n/a	0	n/a	0	0	0	1	0.412841796875	0.57763671875	lower	../fonts/zerothre.ttf
1312776	START	n/a	LTP136	ltpFR	11	n/a	n/a	n/a	n/a	n/a	n/a	n/a	n/a	n/a	n/a	n/a	n/a	n/a	n/a	n/a
1313742	PROB	n/a	LTP136	ltpFR	11	n/a	n/a	n/a	n/a	n/a	n/a	10	3	4	3	n/a	n/a	n/a	n/a	n/a
1315059	PROB	n/a	LTP136	ltpFR	11	n/a	n/a	n/a	n/a	n/a	n/a	14	6	1	7	n/a	n/a	n/a	n/a	n/a
1316482	PROB	n/a	LTP136	ltpFR	11	n/a	n/a	n/a	n/a	n/a	n/a	17	7	4	6	n/a	n/a	n/a	n/a	n/a
1318058	PROB	n/a	LTP136	ltpFR	11	n/a	n/a	n/a	n/a	n/a	n/a	17	5	9	3	n/a	n/a	n/a	n/a	n/a
1319431	PROB	n/a	LTP136	ltpFR	11	n/a	n/a	n/a	n/a	n/a	n/a	18	7	5	6	n/a	n/a	n/a	n/a	n/a
1322472	PROB	n/a	LTP136	ltpFR	11	n/a	n/a	n/a	n/a	n/a	n/a	18	9	1	8	n/a	n/a	n/a	n/a	n/a
1323755	PROB	n/a	LTP136	ltpFR	11	n/a	n/a	n/a	n/a	n/a	n/a	20	6	6	8	n/a	n/a	n/a	n/a	n/a
1325130	PROB	n/a	LTP136	ltpFR	11	n/a	n/a	n/a	n/a	n/a	n/a	14	8	2	4	n/a	n/a	n/a	n/a	n/a
1326955	PROB	n/a	LTP136	ltpFR	11	n/a	n/a	n/a	n/a	n/a	n/a	8	4	2	2	n/a	n/a	n/a	n/a	n/a
1328529	STOP	n/a	LTP136	ltpFR	11	n/a	n/a	n/a	n/a	n/a	n/a	n/a	n/a	n/a	n/a	n/a	n/a	n/a	n/a	n/a
1329753	WORD	wordpools/wasnorm_wordpool.txt	LTP136	ltpFR	11	6	0	BUGGY	188	n/a	0	n/a	0	0	0	1	0.412841796875	0.57763671875	lower	../fonts/zerothre.ttf
1332760	START	n/a	LTP136	ltpFR	11	n/a	n/a	n/a	n/a	n/a	n/a	n/a	n/a	n/a	n/a	n/a	n/a	n/a	n/a	n/a
1333801	PROB	n/a	LTP136	ltpFR	11	n/a	n/a	n/a	n/a	n/a	n/a	19	3	9	7	n/a	n/a	n/a	n/a	n/a
1336717	PROB	n/a	LTP136	ltpFR	11	n/a	n/a	n/a	n/a	n/a	n/a	19	7	8	4	n/a	n/a	n/a	n/a	n/a
1338433	PROB	n/a	LTP136	ltpFR	11	n/a	n/a	n/a	n/a	n/a	n/a	19	4	7	8	n/a	n/a	n/a	n/a	n/a
1339824	PROB	n/a	LTP136	ltpFR	11	n/a	n/a	n/a	n/a	n/a	n/a	15	5	8	2	n/a	n/a	n/a	n/a	n/a
1343698	PROB	n/a	LTP136	ltpFR	11	n/a	n/a	n/a	n/a	n/a	n/a	17	1	7	9	n/a	n/a	n/a	n/a	n/a
1345430	PROB	n/a	LTP136	ltpFR	11	n/a	n/a	n/a	n/a	n/a	n/a	13	1	4	8	n/a	n/a	n/a	n/a	n/a
1346972	PROB	n/a	LTP136	ltpFR	11	n/a	n/a	n/a	n/a	n/a	n/a	21	5	9	7	n/a	n/a	n/a	n/a	n/a
1348697	STOP	n/a	LTP136	ltpFR	11	n/a	n/a	n/a	n/a	n/a	n/a	n/a	n/a	n/a	n/a	n/a	n/a	n/a	n/a	n/a
1349787	WORD	wordpools/wasnorm_wordpool.txt	LTP136	ltpFR	11	6	0	PLATE	1086	n/a	0	n/a	0	0	0	1	0.412841796875	0.57763671875	lower	../fonts/zerothre.ttf
1352795	START	n/a	LTP136	ltpFR	11	n/a	n/a	n/a	n/a	n/a	n/a	n/a	n/a	n/a	n/a	n/a	n/a	n/a	n/a	n/a
1353987	PROB	n/a	LTP136	ltpFR	11	n/a	n/a	n/a	n/a	n/a	n/a	12	3	4	5	n/a	n/a	n/a	n/a	n/a
1355602	PROB	n/a	LTP136	ltpFR	11	n/a	n/a	n/a	n/a	n/a	n/a	13	8	2	3	n/a	n/a	n/a	n/a	n/a
1356869	PROB	n/a	LTP136	ltpFR	11	n/a	n/a	n/a	n/a	n/a	n/a	18	7	9	2	n/a	n/a	n/a	n/a	n/a
1358676	PROB	n/a	LTP136	ltpFR	11	n/a	n/a	n/a	n/a	n/a	n/a	12	1	6	5	n/a	n/a	n/a	n/a	n/a
1359901	PROB	n/a	LTP136	ltpFR	11	n/a	n/a	n/a	n/a	n/a	n/a	11	1	3	7	n/a	n/a	n/a	n/a	n/a
1361375	PROB	n/a	LTP136	ltpFR	11	n/a	n/a	n/a	n/a	n/a	n/a	7	4	2	1	n/a	n/a	n/a	n/a	n/a
1362591	PROB	n/a	LTP136	ltpFR	11	n/a	n/a	n/a	n/a	n/a	n/a	13	9	1	3	n/a	n/a	n/a	n/a	n/a
1363917	PROB	n/a	LTP136	ltpFR	11	n/a	n/a	n/a	n/a	n/a	n/a	6	4	1	1	n/a	n/a	n/a	n/a	n/a
1365049	PROB	n/a	LTP136	ltpFR	11	n/a	n/a	n/a	n/a	n/a	n/a	23	5	9	9	n/a	n/a	n/a	n/a	n/a
1367481	STOP	n/a	LTP136	ltpFR	11	n/a	n/a	n/a	n/a	n/a	n/a	n/a	n/a	n/a	n/a	n/a	n/a	n/a	n/a	n/a
1369864	WORD	wordpools/wasnorm_wordpool.txt	LTP136	ltpFR	11	6	0	COOK	372	n/a	0	n/a	0	0	0	1	0.412841796875	0.57763671875	lower	../fonts/zerothre.ttf
1372872	START	n/a	LTP136	ltpFR	11	n/a	n/a	n/a	n/a	n/a	n/a	n/a	n/a	n/a	n/a	n/a	n/a	n/a	n/a	n/a
1373737	PROB	n/a	LTP136	ltpFR	11	n/a	n/a	n/a	n/a	n/a	n/a	18	7	8	3	n/a	n/a	n/a	n/a	n/a
1375586	PROB	n/a	LTP136	ltpFR	11	n/a	n/a	n/a	n/a	n/a	n/a	16	7	1	8	n/a	n/a	n/a	n/a	n/a
1376962	PROB	n/a	LTP136	ltpFR	11	n/a	n/a	n/a	n/a	n/a	n/a	14	2	4	8	n/a	n/a	n/a	n/a	n/a
1379410	PROB	n/a	LTP136	ltpFR	11	n/a	n/a	n/a	n/a	n/a	n/a	14	3	5	6	n/a	n/a	n/a	n/a	n/a
1380977	PROB	n/a	LTP136	ltpFR	11	n/a	n/a	n/a	n/a	n/a	n/a	13	1	3	9	n/a	n/a	n/a	n/a	n/a
1382268	PROB	n/a	LTP136	ltpFR	11	n/a	n/a	n/a	n/a	n/a	n/a	10	4	1	5	n/a	n/a	n/a	n/a	n/a
1383584	PROB	n/a	LTP136	ltpFR	11	n/a	n/a	n/a	n/a	n/a	n/a	12	4	1	7	n/a	n/a	n/a	n/a	n/a
1384859	PROB	n/a	LTP136	ltpFR	11	n/a	n/a	n/a	n/a	n/a	n/a	14	4	2	8	n/a	n/a	n/a	n/a	n/a
1386799	PROB	n/a	LTP136	ltpFR	11	n/a	n/a	n/a	n/a	n/a	n/a	24	9	7	8	n/a	n/a	n/a	n/a	n/a
1388442	STOP	n/a	LTP136	ltpFR	11	n/a	n/a	n/a	n/a	n/a	n/a	n/a	n/a	n/a	n/a	n/a	n/a	n/a	n/a	n/a
1389748	WORD	wordpools/wasnorm_wordpool.txt	LTP136	ltpFR	11	6	0	PERMIT	1051	n/a	0	n/a	0	0	0	1	0.412841796875	0.57763671875	lower	../fonts/zerothre.ttf
1392756	START	n/a	LTP136	ltpFR	11	n/a	n/a	n/a	n/a	n/a	n/a	n/a	n/a	n/a	n/a	n/a	n/a	n/a	n/a	n/a
1393939	PROB	n/a	LTP136	ltpFR	11	n/a	n/a	n/a	n/a	n/a	n/a	23	9	6	8	n/a	n/a	n/a	n/a	n/a
1396130	PROB	n/a	LTP136	ltpFR	11	n/a	n/a	n/a	n/a	n/a	n/a	8	1	1	6	n/a	n/a	n/a	n/a	n/a
1397288	PROB	n/a	LTP136	ltpFR	11	n/a	n/a	n/a	n/a	n/a	n/a	11	7	1	3	n/a	n/a	n/a	n/a	n/a
1399995	PROB	n/a	LTP136	ltpFR	11	n/a	n/a	n/a	n/a	n/a	n/a	18	2	9	7	n/a	n/a	n/a	n/a	n/a
1401644	PROB	n/a	LTP136	ltpFR	11	n/a	n/a	n/a	n/a	n/a	n/a	8	3	2	3	n/a	n/a	n/a	n/a	n/a
1404294	PROB	n/a	LTP136	ltpFR	11	n/a	n/a	n/a	n/a	n/a	n/a	17	2	6	9	n/a	n/a	n/a	n/a	n/a
1406193	PROB	n/a	LTP136	ltpFR	11	n/a	n/a	n/a	n/a	n/a	n/a	18	1	9	8	n/a	n/a	n/a	n/a	n/a
1408251	STOP	n/a	LTP136	ltpFR	11	n/a	n/a	n/a	n/a	n/a	n/a	n/a	n/a	n/a	n/a	n/a	n/a	n/a	n/a	n/a
1409757	WORD	wordpools/wasnorm_wordpool.txt	LTP136	ltpFR	11	6	0	RIBBON	1189	n/a	0	n/a	0	0	0	1	0.412841796875	0.57763671875	lower	../fonts/zerothre.ttf
1412765	START	n/a	LTP136	ltpFR	11	n/a	n/a	n/a	n/a	n/a	n/a	n/a	n/a	n/a	n/a	n/a	n/a	n/a	n/a	n/a
1413874	PROB	n/a	LTP136	ltpFR	11	n/a	n/a	n/a	n/a	n/a	n/a	20	7	6	7	n/a	n/a	n/a	n/a	n/a
1416447	PROB	n/a	LTP136	ltpFR	11	n/a	n/a	n/a	n/a	n/a	n/a	20	7	9	4	n/a	n/a	n/a	n/a	n/a
1418363	PROB	n/a	LTP136	ltpFR	11	n/a	n/a	n/a	n/a	n/a	n/a	7	1	3	3	n/a	n/a	n/a	n/a	n/a
1419679	PROB	n/a	LTP136	ltpFR	11	n/a	n/a	n/a	n/a	n/a	n/a	13	9	4	1	n/a	n/a	n/a	n/a	n/a
1421196	PROB	n/a	LTP136	ltpFR	11	n/a	n/a	n/a	n/a	n/a	n/a	21	9	5	7	n/a	n/a	n/a	n/a	n/a
1423503	PROB	n/a	LTP136	ltpFR	11	n/a	n/a	n/a	n/a	n/a	n/a	24	8	8	8	n/a	n/a	n/a	n/a	n/a
1425028	PROB	n/a	LTP136	ltpFR	11	n/a	n/a	n/a	n/a	n/a	n/a	23	6	9	8	n/a	n/a	n/a	n/a	n/a
1426861	PROB	n/a	LTP136	ltpFR	11	n/a	n/a	n/a	n/a	n/a	n/a	9	2	6	1	n/a	n/a	n/a	n/a	n/a
1428107	STOP	n/a	LTP136	ltpFR	11	n/a	n/a	n/a	n/a	n/a	n/a	n/a	n/a	n/a	n/a	n/a	n/a	n/a	n/a	n/a
1429784	WORD	wordpools/wasnorm_wordpool.txt	LTP136	ltpFR	11	6	0	POOL	1103	n/a	0	n/a	0	0	0	1	0.412841796875	0.57763671875	lower	../fonts/zerothre.ttf
1432791	START	n/a	LTP136	ltpFR	11	n/a	n/a	n/a	n/a	n/a	n/a	n/a	n/a	n/a	n/a	n/a	n/a	n/a	n/a	n/a
1433674	PROB	n/a	LTP136	ltpFR	11	n/a	n/a	n/a	n/a	n/a	n/a	17	9	6	2	n/a	n/a	n/a	n/a	n/a
1436673	PROB	n/a	LTP136	ltpFR	11	n/a	n/a	n/a	n/a	n/a	n/a	15	1	9	5	n/a	n/a	n/a	n/a	n/a
1438198	PROB	n/a	LTP136	ltpFR	11	n/a	n/a	n/a	n/a	n/a	n/a	15	4	8	3	n/a	n/a	n/a	n/a	n/a
1440106	PROB	n/a	LTP136	ltpFR	11	n/a	n/a	n/a	n/a	n/a	n/a	11	2	6	3	n/a	n/a	n/a	n/a	n/a
1441746	PROB	n/a	LTP136	ltpFR	11	n/a	n/a	n/a	n/a	n/a	n/a	18	8	6	4	n/a	n/a	n/a	n/a	n/a
1443371	PROB	n/a	LTP136	ltpFR	11	n/a	n/a	n/a	n/a	n/a	n/a	12	1	9	1	n/a	n/a	n/a	n/a	n/a
1444595	PROB	n/a	LTP136	ltpFR	11	n/a	n/a	n/a	n/a	n/a	n/a	9	2	3	4	n/a	n/a	n/a	n/a	n/a
1446628	PROB	n/a	LTP136	ltpFR	11	n/a	n/a	n/a	n/a	n/a	n/a	13	2	3	8	n/a	n/a	n/a	n/a	n/a
1448306	STOP	n/a	LTP136	ltpFR	11	n/a	n/a	n/a	n/a	n/a	n/a	n/a	n/a	n/a	n/a	n/a	n/a	n/a	n/a	n/a
1449760	WORD	wordpools/wasnorm_wordpool.txt	LTP136	ltpFR	11	6	0	ALBUM	14	n/a	0	n/a	0	0	0	1	0.412841796875	0.57763671875	lower	../fonts/zerothre.ttf
1452768	START	n/a	LTP136	ltpFR	11	n/a	n/a	n/a	n/a	n/a	n/a	n/a	n/a	n/a	n/a	n/a	n/a	n/a	n/a	n/a
1453775	PROB	n/a	LTP136	ltpFR	11	n/a	n/a	n/a	n/a	n/a	n/a	17	7	3	7	n/a	n/a	n/a	n/a	n/a
1455017	PROB	n/a	LTP136	ltpFR	11	n/a	n/a	n/a	n/a	n/a	n/a	8	4	2	2	n/a	n/a	n/a	n/a	n/a
1456309	PROB	n/a	LTP136	ltpFR	11	n/a	n/a	n/a	n/a	n/a	n/a	24	6	6	6	n/a	n/a	n/a	n/a	n/a
1457875	PROB	n/a	LTP136	ltpFR	11	n/a	n/a	n/a	n/a	n/a	n/a	8	6	1	1	n/a	n/a	n/a	n/a	n/a
1459506	PROB	n/a	LTP136	ltpFR	11	n/a	n/a	n/a	n/a	n/a	n/a	14	6	5	3	n/a	n/a	n/a	n/a	n/a
1460840	PROB	n/a	LTP136	ltpFR	11	n/a	n/a	n/a	n/a	n/a	n/a	19	7	9	3	n/a	n/a	n/a	n/a	n/a
1462597	PROB	n/a	LTP136	ltpFR	11	n/a	n/a	n/a	n/a	n/a	n/a	5	2	1	2	n/a	n/a	n/a	n/a	n/a
1463638	PROB	n/a	LTP136	ltpFR	11	n/a	n/a	n/a	n/a	n/a	n/a	18	7	7	4	n/a	n/a	n/a	n/a	n/a
1466487	PROB	n/a	LTP136	ltpFR	11	n/a	n/a	n/a	n/a	n/a	n/a	7	1	4	2	n/a	n/a	n/a	n/a	n/a
1467714	STOP	n/a	LTP136	ltpFR	11	n/a	n/a	n/a	n/a	n/a	n/a	n/a	n/a	n/a	n/a	n/a	n/a	n/a	n/a	n/a
1469854	WORD	wordpools/wasnorm_wordpool.txt	LTP136	ltpFR	11	6	0	SCREW	1254	n/a	0	n/a	0	0	0	1	0.412841796875	0.57763671875	lower	../fonts/zerothre.ttf
1472862	START	n/a	LTP136	ltpFR	11	n/a	n/a	n/a	n/a	n/a	n/a	n/a	n/a	n/a	n/a	n/a	n/a	n/a	n/a	n/a
1473743	PROB	n/a	LTP136	ltpFR	11	n/a	n/a	n/a	n/a	n/a	n/a	15	6	8	1	n/a	n/a	n/a	n/a	n/a
1475035	PROB	n/a	LTP136	ltpFR	11	n/a	n/a	n/a	n/a	n/a	n/a	16	7	9	1	n/a	n/a	n/a	n/a	n/a
1476417	PROB	n/a	LTP136	ltpFR	11	n/a	n/a	n/a	n/a	n/a	n/a	12	2	4	6	n/a	n/a	n/a	n/a	n/a
1478043	PROB	n/a	LTP136	ltpFR	11	n/a	n/a	n/a	n/a	n/a	n/a	18	8	5	5	n/a	n/a	n/a	n/a	n/a
1479633	PROB	n/a	LTP136	ltpFR	11	n/a	n/a	n/a	n/a	n/a	n/a	17	7	8	2	n/a	n/a	n/a	n/a	n/a
1481208	PROB	n/a	LTP136	ltpFR	11	n/a	n/a	n/a	n/a	n/a	n/a	16	7	5	4	n/a	n/a	n/a	n/a	n/a
1482657	PROB	n/a	LTP136	ltpFR	11	n/a	n/a	n/a	n/a	n/a	n/a	21	3	9	9	n/a	n/a	n/a	n/a	n/a
1484299	PROB	n/a	LTP136	ltpFR	11	n/a	n/a	n/a	n/a	n/a	n/a	12	3	2	7	n/a	n/a	n/a	n/a	n/a
1485948	PROB	n/a	LTP136	ltpFR	11	n/a	n/a	n/a	n/a	n/a	n/a	18	9	1	8	n/a	n/a	n/a	n/a	n/a
1487256	PROB	n/a	LTP136	ltpFR	11	n/a	n/a	n/a	n/a	n/a	n/a	12	1	6	5	n/a	n/a	n/a	n/a	n/a
1488338	STOP	n/a	LTP136	ltpFR	11	n/a	n/a	n/a	n/a	n/a	n/a	n/a	n/a	n/a	n/a	n/a	n/a	n/a	n/a	n/a
1489838	WORD	wordpools/wasnorm_wordpool.txt	LTP136	ltpFR	11	6	0	BOX	159	n/a	0	n/a	0	0	0	1	0.412841796875	0.57763671875	lower	../fonts/zerothre.ttf
1492846	START	n/a	LTP136	ltpFR	11	n/a	n/a	n/a	n/a	n/a	n/a	n/a	n/a	n/a	n/a	n/a	n/a	n/a	n/a	n/a
1493970	PROB	n/a	LTP136	ltpFR	11	n/a	n/a	n/a	n/a	n/a	n/a	15	4	5	6	n/a	n/a	n/a	n/a	n/a
1495878	PROB	n/a	LTP136	ltpFR	11	n/a	n/a	n/a	n/a	n/a	n/a	18	5	4	9	n/a	n/a	n/a	n/a	n/a
1498910	PROB	n/a	LTP136	ltpFR	11	n/a	n/a	n/a	n/a	n/a	n/a	15	9	2	4	n/a	n/a	n/a	n/a	n/a
1500417	PROB	n/a	LTP136	ltpFR	11	n/a	n/a	n/a	n/a	n/a	n/a	15	6	5	4	n/a	n/a	n/a	n/a	n/a
1501967	PROB	n/a	LTP136	ltpFR	11	n/a	n/a	n/a	n/a	n/a	n/a	14	8	1	5	n/a	n/a	n/a	n/a	n/a
1503374	PROB	n/a	LTP136	ltpFR	11	n/a	n/a	n/a	n/a	n/a	n/a	14	4	1	9	n/a	n/a	n/a	n/a	n/a
1505025	PROB	n/a	LTP136	ltpFR	11	n/a	n/a	n/a	n/a	n/a	n/a	14	2	4	8	n/a	n/a	n/a	n/a	n/a
1506440	PROB	n/a	LTP136	ltpFR	11	n/a	n/a	n/a	n/a	n/a	n/a	14	5	2	7	n/a	n/a	n/a	n/a	n/a
1508706	STOP	n/a	LTP136	ltpFR	11	n/a	n/a	n/a	n/a	n/a	n/a	n/a	n/a	n/a	n/a	n/a	n/a	n/a	n/a	n/a
1509981	WORD	wordpools/wasnorm_wordpool.txt	LTP136	ltpFR	11	6	0	CITY	314	n/a	0	n/a	0	0	0	1	0.412841796875	0.57763671875	lower	../fonts/zerothre.ttf
1512989	START	n/a	LTP136	ltpFR	11	n/a	n/a	n/a	n/a	n/a	n/a	n/a	n/a	n/a	n/a	n/a	n/a	n/a	n/a	n/a
1513804	PROB	n/a	LTP136	ltpFR	11	n/a	n/a	n/a	n/a	n/a	n/a	23	9	9	5	n/a	n/a	n/a	n/a	n/a
1516337	PROB	n/a	LTP136	ltpFR	11	n/a	n/a	n/a	n/a	n/a	n/a	23	5	9	9	n/a	n/a	n/a	n/a	n/a
1519853	PROB	n/a	LTP136	ltpFR	11	n/a	n/a	n/a	n/a	n/a	n/a	9	4	4	1	n/a	n/a	n/a	n/a	n/a
1521919	PROB	n/a	LTP136	ltpFR	11	n/a	n/a	n/a	n/a	n/a	n/a	9	4	1	4	n/a	n/a	n/a	n/a	n/a
1522977	PROB	n/a	LTP136	ltpFR	11	n/a	n/a	n/a	n/a	n/a	n/a	17	1	7	9	n/a	n/a	n/a	n/a	n/a
1524475	PROB	n/a	LTP136	ltpFR	11	n/a	n/a	n/a	n/a	n/a	n/a	13	4	1	8	n/a	n/a	n/a	n/a	n/a
1525666	PROB	n/a	LTP136	ltpFR	11	n/a	n/a	n/a	n/a	n/a	n/a	24	9	9	6	n/a	n/a	n/a	n/a	n/a
1527561	STOP	n/a	LTP136	ltpFR	11	n/a	n/a	n/a	n/a	n/a	n/a	n/a	n/a	n/a	n/a	n/a	n/a	n/a	n/a	n/a
1529974	WORD	wordpools/wasnorm_wordpool.txt	LTP136	ltpFR	11	6	0	TRAY	1498	n/a	0	n/a	0	0	0	1	0.412841796875	0.57763671875	lower	../fonts/zerothre.ttf
1532982	START	n/a	LTP136	ltpFR	11	n/a	n/a	n/a	n/a	n/a	n/a	n/a	n/a	n/a	n/a	n/a	n/a	n/a	n/a	n/a
1534006	PROB	n/a	LTP136	ltpFR	11	n/a	n/a	n/a	n/a	n/a	n/a	17	1	7	9	n/a	n/a	n/a	n/a	n/a
1535281	PROB	n/a	LTP136	ltpFR	11	n/a	n/a	n/a	n/a	n/a	n/a	4	2	1	1	n/a	n/a	n/a	n/a	n/a
1536679	PROB	n/a	LTP136	ltpFR	11	n/a	n/a	n/a	n/a	n/a	n/a	17	4	4	9	n/a	n/a	n/a	n/a	n/a
1539021	PROB	n/a	LTP136	ltpFR	11	n/a	n/a	n/a	n/a	n/a	n/a	21	7	9	5	n/a	n/a	n/a	n/a	n/a
1540569	PROB	n/a	LTP136	ltpFR	11	n/a	n/a	n/a	n/a	n/a	n/a	24	7	8	9	n/a	n/a	n/a	n/a	n/a
1542594	PROB	n/a	LTP136	ltpFR	11	n/a	n/a	n/a	n/a	n/a	n/a	7	2	3	2	n/a	n/a	n/a	n/a	n/a
1543869	PROB	n/a	LTP136	ltpFR	11	n/a	n/a	n/a	n/a	n/a	n/a	16	4	8	4	n/a	n/a	n/a	n/a	n/a
1545418	PROB	n/a	LTP136	ltpFR	11	n/a	n/a	n/a	n/a	n/a	n/a	15	6	5	4	n/a	n/a	n/a	n/a	n/a
1546834	PROB	n/a	LTP136	ltpFR	11	n/a	n/a	n/a	n/a	n/a	n/a	8	6	2	1	n/a	n/a	n/a	n/a	n/a
1547963	STOP	n/a	LTP136	ltpFR	11	n/a	n/a	n/a	n/a	n/a	n/a	n/a	n/a	n/a	n/a	n/a	n/a	n/a	n/a	n/a
1549892	WORD	wordpools/wasnorm_wordpool.txt	LTP136	ltpFR	11	6	0	CREW	406	n/a	0	n/a	0	0	0	1	0.412841796875	0.57763671875	lower	../fonts/zerothre.ttf
1552900	START	n/a	LTP136	ltpFR	11	n/a	n/a	n/a	n/a	n/a	n/a	n/a	n/a	n/a	n/a	n/a	n/a	n/a	n/a	n/a
1553765	PROB	n/a	LTP136	ltpFR	11	n/a	n/a	n/a	n/a	n/a	n/a	11	1	7	3	n/a	n/a	n/a	n/a	n/a
1554915	PROB	n/a	LTP136	ltpFR	11	n/a	n/a	n/a	n/a	n/a	n/a	9	3	5	1	n/a	n/a	n/a	n/a	n/a
1556323	PROB	n/a	LTP136	ltpFR	11	n/a	n/a	n/a	n/a	n/a	n/a	14	6	3	5	n/a	n/a	n/a	n/a	n/a
1558346	PROB	n/a	LTP136	ltpFR	11	n/a	n/a	n/a	n/a	n/a	n/a	25	3	6	6	n/a	n/a	n/a	n/a	n/a
1560804	PROB	n/a	LTP136	ltpFR	11	n/a	n/a	n/a	n/a	n/a	n/a	19	8	5	6	n/a	n/a	n/a	n/a	n/a
1562437	PROB	n/a	LTP136	ltpFR	11	n/a	n/a	n/a	n/a	n/a	n/a	11	2	4	5	n/a	n/a	n/a	n/a	n/a
1564045	PROB	n/a	LTP136	ltpFR	11	n/a	n/a	n/a	n/a	n/a	n/a	20	8	9	6	n/a	n/a	n/a	n/a	n/a
1565845	PROB	n/a	LTP136	ltpFR	11	n/a	n/a	n/a	n/a	n/a	n/a	11	3	2	6	n/a	n/a	n/a	n/a	n/a
1567569	STOP	n/a	LTP136	ltpFR	11	n/a	n/a	n/a	n/a	n/a	n/a	n/a	n/a	n/a	n/a	n/a	n/a	n/a	n/a	n/a
1569784	WORD	wordpools/wasnorm_wordpool.txt	LTP136	ltpFR	11	6	0	CAPTAIN	239	n/a	0	n/a	0	0	0	1	0.412841796875	0.57763671875	lower	../fonts/zerothre.ttf
1572792	START	n/a	LTP136	ltpFR	11	n/a	n/a	n/a	n/a	n/a	n/a	n/a	n/a	n/a	n/a	n/a	n/a	n/a	n/a	n/a
1573933	PROB	n/a	LTP136	ltpFR	11	n/a	n/a	n/a	n/a	n/a	n/a	17	4	9	4	n/a	n/a	n/a	n/a	n/a
1576083	PROB	n/a	LTP136	ltpFR	11	n/a	n/a	n/a	n/a	n/a	n/a	19	7	8	4	n/a	n/a	n/a	n/a	n/a
1577406	PROB	n/a	LTP136	ltpFR	11	n/a	n/a	n/a	n/a	n/a	n/a	18	5	7	6	n/a	n/a	n/a	n/a	n/a
1579356	PROB	n/a	LTP136	ltpFR	11	n/a	n/a	n/a	n/a	n/a	n/a	19	9	6	4	n/a	n/a	n/a	n/a	n/a
1581023	PROB	n/a	LTP136	ltpFR	11	n/a	n/a	n/a	n/a	n/a	n/a	14	8	3	3	n/a	n/a	n/a	n/a	n/a
1582488	PROB	n/a	LTP136	ltpFR	11	n/a	n/a	n/a	n/a	n/a	n/a	14	8	4	3	n/a	n/a	n/a	n/a	n/a
1586653	PROB	n/a	LTP136	ltpFR	11	n/a	n/a	n/a	n/a	n/a	n/a	11	1	7	2	n/a	n/a	n/a	n/a	n/a
1588769	STOP	n/a	LTP136	ltpFR	11	n/a	n/a	n/a	n/a	n/a	n/a	n/a	n/a	n/a	n/a	n/a	n/a	n/a	n/a	n/a
1589694	WORD	wordpools/wasnorm_wordpool.txt	LTP136	ltpFR	11	6	0	COUNTY	389	n/a	0	n/a	0	0	0	1	0.412841796875	0.57763671875	lower	../fonts/zerothre.ttf
1592701	START	n/a	LTP136	ltpFR	11	n/a	n/a	n/a	n/a	n/a	n/a	n/a	n/a	n/a	n/a	n/a	n/a	n/a	n/a	n/a
1593885	PROB	n/a	LTP136	ltpFR	11	n/a	n/a	n/a	n/a	n/a	n/a	16	1	9	6	n/a	n/a	n/a	n/a	n/a
1595151	PROB	n/a	LTP136	ltpFR	11	n/a	n/a	n/a	n/a	n/a	n/a	19	5	5	9	n/a	n/a	n/a	n/a	n/a
1596449	PROB	n/a	LTP136	ltpFR	11	n/a	n/a	n/a	n/a	n/a	n/a	10	4	4	2	n/a	n/a	n/a	n/a	n/a
1598374	PROB	n/a	LTP136	ltpFR	11	n/a	n/a	n/a	n/a	n/a	n/a	12	4	1	7	n/a	n/a	n/a	n/a	n/a
1599598	PROB	n/a	LTP136	ltpFR	11	n/a	n/a	n/a	n/a	n/a	n/a	19	4	8	7	n/a	n/a	n/a	n/a	n/a
1601149	PROB	n/a	LTP136	ltpFR	11	n/a	n/a	n/a	n/a	n/a	n/a	18	5	6	7	n/a	n/a	n/a	n/a	n/a
1602506	PROB	n/a	LTP136	ltpFR	11	n/a	n/a	n/a	n/a	n/a	n/a	20	7	9	4	n/a	n/a	n/a	n/a	n/a
1605147	PROB	n/a	LTP136	ltpFR	11	n/a	n/a	n/a	n/a	n/a	n/a	27	9	9	9	n/a	n/a	n/a	n/a	n/a
1606521	PROB	n/a	LTP136	ltpFR	11	n/a	n/a	n/a	n/a	n/a	n/a	21	9	6	6	n/a	n/a	n/a	n/a	n/a
1608275	STOP	n/a	LTP136	ltpFR	11	n/a	n/a	n/a	n/a	n/a	n/a	n/a	n/a	n/a	n/a	n/a	n/a	n/a	n/a	n/a
1610453	REC_START	n/a	LTP136	ltpFR	11	6	n/a	n/a	n/a	n/a	n/a	n/a	0	0	0	n/a	n/a	n/a	n/a	n/a
1610977	REC_WORD	wordpools/wasnorm_wordpool.txt	LTP136	ltpFR	11	6	0	CREW	406	n/a	0	n/a	0	0	0	n/a	n/a	n/a	n/a	n/a
1612134	REC_WORD	wordpools/wasnorm_wordpool.txt	LTP136	ltpFR	11	6	0	SCREW	1254	n/a	0	n/a	0	0	0	n/a	n/a	n/a	n/a	n/a
1613915	REC_WORD	wordpools/wasnorm_wordpool.txt	LTP136	ltpFR	11	6	0	COUNTY	389	n/a	0	n/a	0	0	0	n/a	n/a	n/a	n/a	n/a
1615426	REC_WORD	wordpools/wasnorm_wordpool.txt	LTP136	ltpFR	11	6	0	BUGGY	188	n/a	0	n/a	0	0	0	n/a	n/a	n/a	n/a	n/a
1651854	REC_WORD	wordpools/wasnorm_wordpool.txt	LTP136	ltpFR	11	6	0	BOX	159	n/a	0	n/a	0	0	0	n/a	n/a	n/a	n/a	n/a
1689292	WORD	wordpools/wasnorm_wordpool.txt	LTP136	ltpFR	11	7	1	SWAN	1417	n/a	0	n/a	0	0	0	0	0.5869140625	0.422607421875	upper	../fonts/amplitud.ttf
1693490	WORD	wordpools/wasnorm_wordpool.txt	LTP136	ltpFR	11	7	1	GOOSE	649	n/a	1	n/a	0	0	0	0	0.5869140625	0.422607421875	upper	../fonts/amplitud.ttf
1697355	WORD	wordpools/wasnorm_wordpool.txt	LTP136	ltpFR	11	7	1	BOSS	152	n/a	0	n/a	0	0	0	0	0.5869140625	0.422607421875	upper	../fonts/amplitud.ttf
1701188	WORD	wordpools/wasnorm_wordpool.txt	LTP136	ltpFR	11	7	1	SUIT	1402	n/a	0	n/a	0	0	0	0	0.5869140625	0.422607421875	upper	../fonts/amplitud.ttf
1705337	WORD	wordpools/wasnorm_wordpool.txt	LTP136	ltpFR	11	7	1	FLANNEL	574	n/a	0	n/a	0	0	0	0	0.5869140625	0.422607421875	upper	../fonts/amplitud.ttf
1709319	WORD	wordpools/wasnorm_wordpool.txt	LTP136	ltpFR	11	7	1	SADDLE	1221	n/a	0	n/a	0	0	0	0	0.5869140625	0.422607421875	upper	../fonts/amplitud.ttf
1713425	WORD	wordpools/wasnorm_wordpool.txt	LTP136	ltpFR	11	7	1	KETCHUP	771	n/a	0	n/a	0	0	0	0	0.5869140625	0.422607421875	upper	../fonts/amplitud.ttf
1717423	WORD	wordpools/wasnorm_wordpool.txt	LTP136	ltpFR	11	7	1	FLORIDA	582	n/a	0	n/a	0	0	0	0	0.5869140625	0.422607421875	upper	../fonts/amplitud.ttf
1721463	WORD	wordpools/wasnorm_wordpool.txt	LTP136	ltpFR	11	7	1	BLUEJAY	141	n/a	0	n/a	0	0	0	0	0.5869140625	0.422607421875	upper	../fonts/amplitud.ttf
1725404	WORD	wordpools/wasnorm_wordpool.txt	LTP136	ltpFR	11	7	1	PICNIC	1060	n/a	0	n/a	0	0	0	0	0.5869140625	0.422607421875	upper	../fonts/amplitud.ttf
1729303	WORD	wordpools/wasnorm_wordpool.txt	LTP136	ltpFR	11	7	1	CORD	379	n/a	0	n/a	0	0	0	0	0.5869140625	0.422607421875	upper	../fonts/amplitud.ttf
1733327	WORD	wordpools/wasnorm_wordpool.txt	LTP136	ltpFR	11	7	1	POLITICIAN	1099	n/a	0	n/a	0	0	0	0	0.5869140625	0.422607421875	upper	../fonts/amplitud.ttf
1737300	WORD	wordpools/wasnorm_wordpool.txt	LTP136	ltpFR	11	7	1	FRIES	607	n/a	0	n/a	0	0	0	0	0.5869140625	0.422607421875	upper	../fonts/amplitud.ttf
1741423	WORD	wordpools/wasnorm_wordpool.txt	LTP136	ltpFR	11	7	1	CLERK	321	n/a	0	n/a	0	0	0	0	0.5869140625	0.422607421875	upper	../fonts/amplitud.ttf
1745538	WORD	wordpools/wasnorm_wordpool.txt	LTP136	ltpFR	11	7	1	FAN	551	n/a	0	n/a	0	0	0	0	0.5869140625	0.422607421875	upper	../fonts/amplitud.ttf
1749628	WORD	wordpools/wasnorm_wordpool.txt	LTP136	ltpFR	11	7	1	OVEN	991	n/a	0	n/a	0	0	0	0	0.5869140625	0.422607421875	upper	../fonts/amplitud.ttf
1752636	START	n/a	LTP136	ltpFR	11	n/a	n/a	n/a	n/a	n/a	n/a	n/a	n/a	n/a	n/a	n/a	n/a	n/a	n/a	n/a
1753835	PROB	n/a	LTP136	ltpFR	11	n/a	n/a	n/a	n/a	n/a	n/a	15	2	9	4	n/a	n/a	n/a	n/a	n/a
1756277	PROB	n/a	LTP136	ltpFR	11	n/a	n/a	n/a	n/a	n/a	n/a	6	1	2	3	n/a	n/a	n/a	n/a	n/a
1757401	PROB	n/a	LTP136	ltpFR	11	n/a	n/a	n/a	n/a	n/a	n/a	10	5	2	3	n/a	n/a	n/a	n/a	n/a
1759625	PROB	n/a	LTP136	ltpFR	11	n/a	n/a	n/a	n/a	n/a	n/a	6	2	1	3	n/a	n/a	n/a	n/a	n/a
1760733	PROB	n/a	LTP136	ltpFR	11	n/a	n/a	n/a	n/a	n/a	n/a	19	7	5	7	n/a	n/a	n/a	n/a	n/a
1762225	PROB	n/a	LTP136	ltpFR	11	n/a	n/a	n/a	n/a	n/a	n/a	17	3	7	7	n/a	n/a	n/a	n/a	n/a
1763632	PROB	n/a	LTP136	ltpFR	11	n/a	n/a	n/a	n/a	n/a	n/a	13	1	7	5	n/a	n/a	n/a	n/a	n/a
1764932	PROB	n/a	LTP136	ltpFR	11	n/a	n/a	n/a	n/a	n/a	n/a	12	1	5	6	n/a	n/a	n/a	n/a	n/a
1766190	PROB	n/a	LTP136	ltpFR	11	n/a	n/a	n/a	n/a	n/a	n/a	17	7	5	5	n/a	n/a	n/a	n/a	n/a
1767979	STOP	n/a	LTP136	ltpFR	11	n/a	n/a	n/a	n/a	n/a	n/a	n/a	n/a	n/a	n/a	n/a	n/a	n/a	n/a	n/a
1770513	REC_START	n/a	LTP136	ltpFR	11	7	n/a	n/a	n/a	n/a	n/a	n/a	0	0	0	n/a	n/a	n/a	n/a	n/a
1771246	REC_WORD	wordpools/wasnorm_wordpool.txt	LTP136	ltpFR	11	7	1	CLERK	321	n/a	0	n/a	0	0	0	n/a	n/a	n/a	n/a	n/a
1772294	REC_WORD	wordpools/wasnorm_wordpool.txt	LTP136	ltpFR	11	7	1	FAN	551	n/a	0	n/a	0	0	0	n/a	n/a	n/a	n/a	n/a
1773661	REC_WORD	wordpools/wasnorm_wordpool.txt	LTP136	ltpFR	11	7	1	OVEN	991	n/a	0	n/a	0	0	0	n/a	n/a	n/a	n/a	n/a
1775272	REC_WORD	wordpools/wasnorm_wordpool.txt	LTP136	ltpFR	11	7	1	SUIT	1402	n/a	0	n/a	0	0	0	n/a	n/a	n/a	n/a	n/a
1776713	REC_WORD	wordpools/wasnorm_wordpool.txt	LTP136	ltpFR	11	7	1	FLANNEL	574	n/a	0	n/a	0	0	0	n/a	n/a	n/a	n/a	n/a
1778295	REC_WORD	wordpools/wasnorm_wordpool.txt	LTP136	ltpFR	11	7	1	BOSS	152	n/a	0	n/a	0	0	0	n/a	n/a	n/a	n/a	n/a
1780520	REC_WORD	wordpools/wasnorm_wordpool.txt	LTP136	ltpFR	11	7	1	GOOSE	649	n/a	1	n/a	0	0	0	n/a	n/a	n/a	n/a	n/a
1781982	REC_WORD	wordpools/wasnorm_wordpool.txt	LTP136	ltpFR	11	7	1	BLUEJAY	141	n/a	0	n/a	0	0	0	n/a	n/a	n/a	n/a	n/a
1784147	REC_WORD	wordpools/wasnorm_wordpool.txt	LTP136	ltpFR	11	7	1	FRIES	607	n/a	0	n/a	0	0	0	n/a	n/a	n/a	n/a	n/a
1785853	REC_WORD	wordpools/wasnorm_wordpool.txt	LTP136	ltpFR	11	7	1	KETCHUP	771	n/a	0	n/a	0	0	0	n/a	n/a	n/a	n/a	n/a
1882606	WORD	wordpools/wasnorm_wordpool.txt	LTP136	ltpFR	11	8	1	WHIP	1604	n/a	2	n/a	0	0	0	0	0.5869140625	0.422607421875	upper	../fonts/amplitud.ttf
1883431	KEY_MSG	n/a	LTP136	ltpFR	11	8	n/a	n/a	n/a	n/a	n/a	n/a	0	0	0	n/a	n/a	n/a	n/a	n/a
1886663	WORD	wordpools/wasnorm_wordpool.txt	LTP136	ltpFR	11	8	1	VOLUNTEER	1577	n/a	0	n/a	0	0	0	0	0.5869140625	0.422607421875	upper	../fonts/amplitud.ttf
1890595	WORD	wordpools/wasnorm_wordpool.txt	LTP136	ltpFR	11	8	0	DENIM	446	n/a	0	n/a	0	0	0	1	0.412841796875	0.57763671875	lower	../fonts/zerothre.ttf
1894743	WORD	wordpools/wasnorm_wordpool.txt	LTP136	ltpFR	11	8	0	SHORTS	1293	n/a	0	n/a	0	0	0	1	0.412841796875	0.57763671875	lower	../fonts/zerothre.ttf
1898625	WORD	wordpools/wasnorm_wordpool.txt	LTP136	ltpFR	11	8	0	COMMITTEE	355	n/a	1	n/a	0	0	0	1	0.412841796875	0.57763671875	lower	../fonts/zerothre.ttf
1902766	WORD	wordpools/wasnorm_wordpool.txt	LTP136	ltpFR	11	8	0	FATHER	554	n/a	1	n/a	0	0	0	1	0.412841796875	0.57763671875	lower	../fonts/zerothre.ttf
1906848	WORD	wordpools/wasnorm_wordpool.txt	LTP136	ltpFR	11	8	0	SEAFOOD	1260	n/a	1	n/a	0	0	0	1	0.412841796875	0.57763671875	lower	../fonts/zerothre.ttf
1910997	WORD	wordpools/wasnorm_wordpool.txt	LTP136	ltpFR	11	8	0	OWL	992	n/a	1	n/a	0	0	0	1	0.412841796875	0.57763671875	lower	../fonts/zerothre.ttf
1915170	WORD	wordpools/wasnorm_wordpool.txt	LTP136	ltpFR	11	8	1	SISTER	1312	n/a	1	n/a	0	0	0	0	0.5869140625	0.422607421875	upper	../fonts/amplitud.ttf
1919011	WORD	wordpools/wasnorm_wordpool.txt	LTP136	ltpFR	11	8	1	CHAIRPERSON	275	n/a	1	n/a	0	0	0	0	0.5869140625	0.422607421875	upper	../fonts/amplitud.ttf
1922926	WORD	wordpools/wasnorm_wordpool.txt	LTP136	ltpFR	11	8	1	TANK	1432	n/a	0	n/a	0	0	0	0	0.5869140625	0.422607421875	upper	../fonts/amplitud.ttf
1926916	WORD	wordpools/wasnorm_wordpool.txt	LTP136	ltpFR	11	8	0	SUBMARINE	1398	n/a	0	n/a	0	0	0	1	0.412841796875	0.57763671875	lower	../fonts/zerothre.ttf
1931123	WORD	wordpools/wasnorm_wordpool.txt	LTP136	ltpFR	11	8	0	CRAB	397	n/a	1	n/a	0	0	0	1	0.412841796875	0.57763671875	lower	../fonts/zerothre.ttf
1935030	WORD	wordpools/wasnorm_wordpool.txt	LTP136	ltpFR	11	8	1	SALMON	1227	n/a	0	n/a	0	0	0	0	0.5869140625	0.422607421875	upper	../fonts/amplitud.ttf
1938995	WORD	wordpools/wasnorm_wordpool.txt	LTP136	ltpFR	11	8	1	SQUID	1361	n/a	0	n/a	0	0	0	0	0.5869140625	0.422607421875	upper	../fonts/amplitud.ttf
1943202	WORD	wordpools/wasnorm_wordpool.txt	LTP136	ltpFR	11	8	1	VEHICLE	1553	n/a	1	n/a	0	0	0	0	0.5869140625	0.422607421875	upper	../fonts/amplitud.ttf
1946210	START	n/a	LTP136	ltpFR	11	n/a	n/a	n/a	n/a	n/a	n/a	n/a	n/a	n/a	n/a	n/a	n/a	n/a	n/a	n/a
1947350	PROB	n/a	LTP136	ltpFR	11	n/a	n/a	n/a	n/a	n/a	n/a	7	2	4	1	n/a	n/a	n/a	n/a	n/a
1949025	PROB	n/a	LTP136	ltpFR	11	n/a	n/a	n/a	n/a	n/a	n/a	24	8	9	7	n/a	n/a	n/a	n/a	n/a
1951556	PROB	n/a	LTP136	ltpFR	11	n/a	n/a	n/a	n/a	n/a	n/a	9	1	7	1	n/a	n/a	n/a	n/a	n/a
1952623	PROB	n/a	LTP136	ltpFR	11	n/a	n/a	n/a	n/a	n/a	n/a	13	5	1	7	n/a	n/a	n/a	n/a	n/a
1953831	PROB	n/a	LTP136	ltpFR	11	n/a	n/a	n/a	n/a	n/a	n/a	9	2	5	5	n/a	n/a	n/a	n/a	n/a
1955131	PROB	n/a	LTP136	ltpFR	11	n/a	n/a	n/a	n/a	n/a	n/a	18	8	1	9	n/a	n/a	n/a	n/a	n/a
1956596	PROB	n/a	LTP136	ltpFR	11	n/a	n/a	n/a	n/a	n/a	n/a	17	5	5	7	n/a	n/a	n/a	n/a	n/a
1957763	PROB	n/a	LTP136	ltpFR	11	n/a	n/a	n/a	n/a	n/a	n/a	17	4	8	5	n/a	n/a	n/a	n/a	n/a
1959171	PROB	n/a	LTP136	ltpFR	11	n/a	n/a	n/a	n/a	n/a	n/a	14	6	5	3	n/a	n/a	n/a	n/a	n/a
1960445	PROB	n/a	LTP136	ltpFR	11	n/a	n/a	n/a	n/a	n/a	n/a	3	1	1	1	n/a	n/a	n/a	n/a	n/a
1961538	STOP	n/a	LTP136	ltpFR	11	n/a	n/a	n/a	n/a	n/a	n/a	n/a	n/a	n/a	n/a	n/a	n/a	n/a	n/a	n/a
1963954	REC_START	n/a	LTP136	ltpFR	11	8	n/a	n/a	n/a	n/a	n/a	n/a	0	0	0	n/a	n/a	n/a	n/a	n/a
1964672	REC_WORD	wordpools/wasnorm_wordpool.txt	LTP136	ltpFR	11	8	0	SEAFOOD	1260	n/a	1	n/a	0	0	0	n/a	n/a	n/a	n/a	n/a
1965909	REC_WORD	wordpools/wasnorm_wordpool.txt	LTP136	ltpFR	11	8	1	SQUID	1361	n/a	0	n/a	0	0	0	n/a	n/a	n/a	n/a	n/a
1967526	REC_WORD	wordpools/wasnorm_wordpool.txt	LTP136	ltpFR	11	8	0	CRAB	397	n/a	1	n/a	0	0	0	n/a	n/a	n/a	n/a	n/a
1969261	REC_WORD	wordpools/wasnorm_wordpool.txt	LTP136	ltpFR	11	8	1	SALMON	1227	n/a	0	n/a	0	0	0	n/a	n/a	n/a	n/a	n/a
1971252	REC_WORD	wordpools/wasnorm_wordpool.txt	LTP136	ltpFR	11	8	1	VEHICLE	1553	n/a	1	n/a	0	0	0	n/a	n/a	n/a	n/a	n/a
1973313	REC_WORD	wordpools/wasnorm_wordpool.txt	LTP136	ltpFR	11	8	1	CHAIRPERSON	275	n/a	1	n/a	0	0	0	n/a	n/a	n/a	n/a	n/a
1975263	REC_WORD	wordpools/wasnorm_wordpool.txt	LTP136	ltpFR	11	8	0	COMMITTEE	355	n/a	1	n/a	0	0	0	n/a	n/a	n/a	n/a	n/a
1977143	REC_WORD	wordpools/wasnorm_wordpool.txt	LTP136	ltpFR	11	8	1	SISTER	1312	n/a	1	n/a	0	0	0	n/a	n/a	n/a	n/a	n/a
1979139	REC_WORD	wordpools/wasnorm_wordpool.txt	LTP136	ltpFR	11	8	0	SUBMARINE	1398	n/a	0	n/a	0	0	0	n/a	n/a	n/a	n/a	n/a
1986058	REC_WORD	wordpools/wasnorm_wordpool.txt	LTP136	ltpFR	11	8	0	DENIM	446	n/a	0	n/a	0	0	0	n/a	n/a	n/a	n/a	n/a
1987665	REC_WORD	wordpools/wasnorm_wordpool.txt	LTP136	ltpFR	11	8	0	SHORTS	1293	n/a	0	n/a	0	0	0	n/a	n/a	n/a	n/a	n/a
2048256	WORD	wordpools/wasnorm_wordpool.txt	LTP136	ltpFR	11	9	1	BUTTERFLY	206	n/a	2	n/a	0	0	0	0	0.5869140625	0.422607421875	upper	../fonts/amplitud.ttf
2049139	KEY_MSG	n/a	LTP136	ltpFR	11	9	n/a	n/a	n/a	n/a	n/a	n/a	0	0	0	n/a	n/a	n/a	n/a	n/a
2052462	WORD	wordpools/wasnorm_wordpool.txt	LTP136	ltpFR	11	9	1	SCENERY	1247	n/a	1	n/a	0	0	0	0	0.5869140625	0.422607421875	upper	../fonts/amplitud.ttf
2056511	WORD	wordpools/wasnorm_wordpool.txt	LTP136	ltpFR	11	9	1	CONDUCTOR	362	n/a	1	n/a	0	0	0	0	0.5869140625	0.422607421875	upper	../fonts/amplitud.ttf
2060526	WORD	wordpools/wasnorm_wordpool.txt	LTP136	ltpFR	11	9	1	SIREN	1310	n/a	1	n/a	0	0	0	0	0.5869140625	0.422607421875	upper	../fonts/amplitud.ttf
2064450	WORD	wordpools/wasnorm_wordpool.txt	LTP136	ltpFR	11	9	1	COLT	349	n/a	0	n/a	0	0	0	0	0.5869140625	0.422607421875	upper	../fonts/amplitud.ttf
2068283	WORD	wordpools/wasnorm_wordpool.txt	LTP136	ltpFR	11	9	1	TURNIP	1521	n/a	1	n/a	0	0	0	0	0.5869140625	0.422607421875	upper	../fonts/amplitud.ttf
2072298	WORD	wordpools/wasnorm_wordpool.txt	LTP136	ltpFR	11	9	1	CLIFF	322	n/a	1	n/a	0	0	0	0	0.5869140625	0.422607421875	upper	../fonts/amplitud.ttf
2076288	WORD	wordpools/wasnorm_wordpool.txt	LTP136	ltpFR	11	9	1	FRUIT	610	n/a	0	n/a	0	0	0	0	0.5869140625	0.422607421875	upper	../fonts/amplitud.ttf
2080112	WORD	wordpools/wasnorm_wordpool.txt	LTP136	ltpFR	11	9	1	CITRUS	313	n/a	0	n/a	0	0	0	0	0.5869140625	0.422607421875	upper	../fonts/amplitud.ttf
2084252	WORD	wordpools/wasnorm_wordpool.txt	LTP136	ltpFR	11	9	1	GRASSHOPPER	656	n/a	1	n/a	0	0	0	0	0.5869140625	0.422607421875	upper	../fonts/amplitud.ttf
2088192	WORD	wordpools/wasnorm_wordpool.txt	LTP136	ltpFR	11	9	1	FUNGUS	614	n/a	1	n/a	0	0	0	0	0.5869140625	0.422607421875	upper	../fonts/amplitud.ttf
2092341	WORD	wordpools/wasnorm_wordpool.txt	LTP136	ltpFR	11	9	1	ZEBRA	1635	n/a	0	n/a	0	0	0	0	0.5869140625	0.422607421875	upper	../fonts/amplitud.ttf
2096497	WORD	wordpools/wasnorm_wordpool.txt	LTP136	ltpFR	11	9	1	HIKER	708	n/a	1	n/a	0	0	0	0	0.5869140625	0.422607421875	upper	../fonts/amplitud.ttf
2100470	WORD	wordpools/wasnorm_wordpool.txt	LTP136	ltpFR	11	9	1	OUTLAW	989	n/a	1	n/a	0	0	0	0	0.5869140625	0.422607421875	upper	../fonts/amplitud.ttf
2104677	WORD	wordpools/wasnorm_wordpool.txt	LTP136	ltpFR	11	9	1	TRUMPET	1513	n/a	0	n/a	0	0	0	0	0.5869140625	0.422607421875	upper	../fonts/amplitud.ttf
2108885	WORD	wordpools/wasnorm_wordpool.txt	LTP136	ltpFR	11	9	1	FOUNTAIN	597	n/a	0	n/a	0	0	0	0	0.5869140625	0.422607421875	upper	../fonts/amplitud.ttf
2111892	START	n/a	LTP136	ltpFR	11	n/a	n/a	n/a	n/a	n/a	n/a	n/a	n/a	n/a	n/a	n/a	n/a	n/a	n/a	n/a
2112875	PROB	n/a	LTP136	ltpFR	11	n/a	n/a	n/a	n/a	n/a	n/a	8	1	4	3	n/a	n/a	n/a	n/a	n/a
2115874	PROB	n/a	LTP136	ltpFR	11	n/a	n/a	n/a	n/a	n/a	n/a	15	5	6	4	n/a	n/a	n/a	n/a	n/a
2117722	PROB	n/a	LTP136	ltpFR	11	n/a	n/a	n/a	n/a	n/a	n/a	7	1	4	2	n/a	n/a	n/a	n/a	n/a
2118931	STOP	n/a	LTP136	ltpFR	11	n/a	n/a	n/a	n/a	n/a	n/a	n/a	n/a	n/a	n/a	n/a	n/a	n/a	n/a	n/a
2121663	REC_START	n/a	LTP136	ltpFR	11	9	n/a	n/a	n/a	n/a	n/a	n/a	0	0	0	n/a	n/a	n/a	n/a	n/a
2122131	REC_WORD	wordpools/wasnorm_wordpool.txt	LTP136	ltpFR	11	9	1	ZEBRA	1635	n/a	0	n/a	0	0	0	n/a	n/a	n/a	n/a	n/a
2123249	REC_WORD	wordpools/wasnorm_wordpool.txt	LTP136	ltpFR	11	9	1	HIKER	708	n/a	1	n/a	0	0	0	n/a	n/a	n/a	n/a	n/a
2124831	REC_WORD	wordpools/wasnorm_wordpool.txt	LTP136	ltpFR	11	9	1	OUTLAW	989	n/a	1	n/a	0	0	0	n/a	n/a	n/a	n/a	n/a
2126093	REC_WORD	wordpools/wasnorm_wordpool.txt	LTP136	ltpFR	11	9	1	TRUMPET	1513	n/a	0	n/a	0	0	0	n/a	n/a	n/a	n/a	n/a
2129445	REC_WORD	wordpools/wasnorm_wordpool.txt	LTP136	ltpFR	11	9	1	FRUIT	610	n/a	0	n/a	0	0	0	n/a	n/a	n/a	n/a	n/a
2130647	REC_WORD	wordpools/wasnorm_wordpool.txt	LTP136	ltpFR	11	9	1	CITRUS	313	n/a	0	n/a	0	0	0	n/a	n/a	n/a	n/a	n/a
2136305	REC_WORD	wordpools/wasnorm_wordpool.txt	LTP136	ltpFR	11	9	1	TURNIP	1521	n/a	1	n/a	0	0	0	n/a	n/a	n/a	n/a	n/a
2141742	REC_WORD	wordpools/wasnorm_wordpool.txt	LTP136	ltpFR	11	9	1	GRASSHOPPER	656	n/a	1	n/a	0	0	0	n/a	n/a	n/a	n/a	n/a
2182016	REC_WORD	wordpools/wasnorm_wordpool.txt	LTP136	ltpFR	11	9	1	CONDUCTOR	362	n/a	1	n/a	0	0	0	n/a	n/a	n/a	n/a	n/a
2198727	START	n/a	LTP136	ltpFR	11	n/a	n/a	n/a	n/a	n/a	n/a	n/a	n/a	n/a	n/a	n/a	n/a	n/a	n/a	n/a
2200236	PROB	n/a	LTP136	ltpFR	11	n/a	n/a	n/a	n/a	n/a	n/a	19	8	8	3	n/a	n/a	n/a	n/a	n/a
2202968	PROB	n/a	LTP136	ltpFR	11	n/a	n/a	n/a	n/a	n/a	n/a	9	3	3	3	n/a	n/a	n/a	n/a	n/a
2204758	PROB	n/a	LTP136	ltpFR	11	n/a	n/a	n/a	n/a	n/a	n/a	9	2	1	6	n/a	n/a	n/a	n/a	n/a
2206009	PROB	n/a	LTP136	ltpFR	11	n/a	n/a	n/a	n/a	n/a	n/a	16	6	3	7	n/a	n/a	n/a	n/a	n/a
2208482	PROB	n/a	LTP136	ltpFR	11	n/a	n/a	n/a	n/a	n/a	n/a	12	8	3	1	n/a	n/a	n/a	n/a	n/a
2210240	PROB	n/a	LTP136	ltpFR	11	n/a	n/a	n/a	n/a	n/a	n/a	13	1	3	9	n/a	n/a	n/a	n/a	n/a
2211514	PROB	n/a	LTP136	ltpFR	11	n/a	n/a	n/a	n/a	n/a	n/a	10	5	1	4	n/a	n/a	n/a	n/a	n/a
2214051	STOP	n/a	LTP136	ltpFR	11	n/a	n/a	n/a	n/a	n/a	n/a	n/a	n/a	n/a	n/a	n/a	n/a	n/a	n/a	n/a
2215737	WORD	wordpools/wasnorm_wordpool.txt	LTP136	ltpFR	11	10	0	MAILBOX	857	n/a	0	n/a	0	0	0	1	0.412841796875	0.57763671875	lower	../fonts/zerothre.ttf
2218745	START	n/a	LTP136	ltpFR	11	n/a	n/a	n/a	n/a	n/a	n/a	n/a	n/a	n/a	n/a	n/a	n/a	n/a	n/a	n/a
2219811	PROB	n/a	LTP136	ltpFR	11	n/a	n/a	n/a	n/a	n/a	n/a	10	2	1	7	n/a	n/a	n/a	n/a	n/a
2221120	PROB	n/a	LTP136	ltpFR	11	n/a	n/a	n/a	n/a	n/a	n/a	8	5	1	2	n/a	n/a	n/a	n/a	n/a
2222303	PROB	n/a	LTP136	ltpFR	11	n/a	n/a	n/a	n/a	n/a	n/a	14	3	6	5	n/a	n/a	n/a	n/a	n/a
2223919	PROB	n/a	LTP136	ltpFR	11	n/a	n/a	n/a	n/a	n/a	n/a	18	8	3	7	n/a	n/a	n/a	n/a	n/a
2225542	PROB	n/a	LTP136	ltpFR	11	n/a	n/a	n/a	n/a	n/a	n/a	25	8	9	6	n/a	n/a	n/a	n/a	n/a
2228326	PROB	n/a	LTP136	ltpFR	11	n/a	n/a	n/a	n/a	n/a	n/a	19	6	7	4	n/a	n/a	n/a	n/a	n/a
2230724	PROB	n/a	LTP136	ltpFR	11	n/a	n/a	n/a	n/a	n/a	n/a	10	5	4	1	n/a	n/a	n/a	n/a	n/a
2232158	PROB	n/a	LTP136	ltpFR	11	n/a	n/a	n/a	n/a	n/a	n/a	15	4	4	7	n/a	n/a	n/a	n/a	n/a
2233778	STOP	n/a	LTP136	ltpFR	11	n/a	n/a	n/a	n/a	n/a	n/a	n/a	n/a	n/a	n/a	n/a	n/a	n/a	n/a	n/a
2235931	WORD	wordpools/wasnorm_wordpool.txt	LTP136	ltpFR	11	10	0	FREEWAY	603	n/a	0	n/a	0	0	0	1	0.412841796875	0.57763671875	lower	../fonts/zerothre.ttf
2238939	START	n/a	LTP136	ltpFR	11	n/a	n/a	n/a	n/a	n/a	n/a	n/a	n/a	n/a	n/a	n/a	n/a	n/a	n/a	n/a
2239847	PROB	n/a	LTP136	ltpFR	11	n/a	n/a	n/a	n/a	n/a	n/a	22	9	9	4	n/a	n/a	n/a	n/a	n/a
2241420	PROB	n/a	LTP136	ltpFR	11	n/a	n/a	n/a	n/a	n/a	n/a	19	6	6	7	n/a	n/a	n/a	n/a	n/a
2243020	PROB	n/a	LTP136	ltpFR	11	n/a	n/a	n/a	n/a	n/a	n/a	14	4	4	6	n/a	n/a	n/a	n/a	n/a
2244486	PROB	n/a	LTP136	ltpFR	11	n/a	n/a	n/a	n/a	n/a	n/a	14	8	5	1	n/a	n/a	n/a	n/a	n/a
2245710	PROB	n/a	LTP136	ltpFR	11	n/a	n/a	n/a	n/a	n/a	n/a	8	2	4	2	n/a	n/a	n/a	n/a	n/a
2246969	PROB	n/a	LTP136	ltpFR	11	n/a	n/a	n/a	n/a	n/a	n/a	9	2	3	4	n/a	n/a	n/a	n/a	n/a
2248443	PROB	n/a	LTP136	ltpFR	11	n/a	n/a	n/a	n/a	n/a	n/a	15	5	2	8	n/a	n/a	n/a	n/a	n/a
2250483	PROB	n/a	LTP136	ltpFR	11	n/a	n/a	n/a	n/a	n/a	n/a	13	6	5	2	n/a	n/a	n/a	n/a	n/a
2251808	PROB	n/a	LTP136	ltpFR	11	n/a	n/a	n/a	n/a	n/a	n/a	14	2	5	7	n/a	n/a	n/a	n/a	n/a
2253883	STOP	n/a	LTP136	ltpFR	11	n/a	n/a	n/a	n/a	n/a	n/a	n/a	n/a	n/a	n/a	n/a	n/a	n/a	n/a	n/a
2256108	WORD	wordpools/wasnorm_wordpool.txt	LTP136	ltpFR	11	10	1	WORM	1623	n/a	0	n/a	0	0	0	0	0.5869140625	0.422607421875	upper	../fonts/amplitud.ttf
2259115	START	n/a	LTP136	ltpFR	11	n/a	n/a	n/a	n/a	n/a	n/a	n/a	n/a	n/a	n/a	n/a	n/a	n/a	n/a	n/a
2260081	PROB	n/a	LTP136	ltpFR	11	n/a	n/a	n/a	n/a	n/a	n/a	16	2	9	5	n/a	n/a	n/a	n/a	n/a
2262030	PROB	n/a	LTP136	ltpFR	11	n/a	n/a	n/a	n/a	n/a	n/a	9	2	6	1	n/a	n/a	n/a	n/a	n/a
2263297	PROB	n/a	LTP136	ltpFR	11	n/a	n/a	n/a	n/a	n/a	n/a	17	9	3	5	n/a	n/a	n/a	n/a	n/a
2265645	PROB	n/a	LTP136	ltpFR	11	n/a	n/a	n/a	n/a	n/a	n/a	17	2	8	7	n/a	n/a	n/a	n/a	n/a
2267278	PROB	n/a	LTP136	ltpFR	11	n/a	n/a	n/a	n/a	n/a	n/a	7	1	4	2	n/a	n/a	n/a	n/a	n/a
2268527	PROB	n/a	LTP136	ltpFR	11	n/a	n/a	n/a	n/a	n/a	n/a	16	2	6	8	n/a	n/a	n/a	n/a	n/a
2270086	PROB	n/a	LTP136	ltpFR	11	n/a	n/a	n/a	n/a	n/a	n/a	15	3	5	7	n/a	n/a	n/a	n/a	n/a
2271501	PROB	n/a	LTP136	ltpFR	11	n/a	n/a	n/a	n/a	n/a	n/a	18	9	6	3	n/a	n/a	n/a	n/a	n/a
2274634	STOP	n/a	LTP136	ltpFR	11	n/a	n/a	n/a	n/a	n/a	n/a	n/a	n/a	n/a	n/a	n/a	n/a	n/a	n/a	n/a
2276075	WORD	wordpools/wasnorm_wordpool.txt	LTP136	ltpFR	11	10	1	DOLLAR	482	n/a	0	n/a	0	0	0	0	0.5869140625	0.422607421875	upper	../fonts/amplitud.ttf
2279083	START	n/a	LTP136	ltpFR	11	n/a	n/a	n/a	n/a	n/a	n/a	n/a	n/a	n/a	n/a	n/a	n/a	n/a	n/a	n/a
2280282	PROB	n/a	LTP136	ltpFR	11	n/a	n/a	n/a	n/a	n/a	n/a	14	3	5	6	n/a	n/a	n/a	n/a	n/a
2281789	PROB	n/a	LTP136	ltpFR	11	n/a	n/a	n/a	n/a	n/a	n/a	11	3	2	6	n/a	n/a	n/a	n/a	n/a
2283339	PROB	n/a	LTP136	ltpFR	11	n/a	n/a	n/a	n/a	n/a	n/a	18	7	7	4	n/a	n/a	n/a	n/a	n/a
2284796	PROB	n/a	LTP136	ltpFR	11	n/a	n/a	n/a	n/a	n/a	n/a	15	3	3	9	n/a	n/a	n/a	n/a	n/a
2286205	PROB	n/a	LTP136	ltpFR	11	n/a	n/a	n/a	n/a	n/a	n/a	14	5	4	5	n/a	n/a	n/a	n/a	n/a
2288096	PROB	n/a	LTP136	ltpFR	11	n/a	n/a	n/a	n/a	n/a	n/a	21	9	3	9	n/a	n/a	n/a	n/a	n/a
2289520	PROB	n/a	LTP136	ltpFR	11	n/a	n/a	n/a	n/a	n/a	n/a	17	1	8	8	n/a	n/a	n/a	n/a	n/a
2290912	PROB	n/a	LTP136	ltpFR	11	n/a	n/a	n/a	n/a	n/a	n/a	15	9	5	1	n/a	n/a	n/a	n/a	n/a
2292078	PROB	n/a	LTP136	ltpFR	11	n/a	n/a	n/a	n/a	n/a	n/a	5	1	2	2	n/a	n/a	n/a	n/a	n/a
2293086	PROB	n/a	LTP136	ltpFR	11	n/a	n/a	n/a	n/a	n/a	n/a	16	5	4	7	n/a	n/a	n/a	n/a	n/a
2294746	STOP	n/a	LTP136	ltpFR	11	n/a	n/a	n/a	n/a	n/a	n/a	n/a	n/a	n/a	n/a	n/a	n/a	n/a	n/a	n/a
2296185	WORD	wordpools/wasnorm_wordpool.txt	LTP136	ltpFR	11	10	0	INTESTINE	742	n/a	2	n/a	0	0	0	1	0.412841796875	0.57763671875	lower	../fonts/zerothre.ttf
2297168	KEY_MSG	n/a	LTP136	ltpFR	11	10	n/a	n/a	n/a	n/a	n/a	n/a	0	0	0	n/a	n/a	n/a	n/a	n/a
2299193	START	n/a	LTP136	ltpFR	11	n/a	n/a	n/a	n/a	n/a	n/a	n/a	n/a	n/a	n/a	n/a	n/a	n/a	n/a	n/a
2300067	PROB	n/a	LTP136	ltpFR	11	n/a	n/a	n/a	n/a	n/a	n/a	13	3	8	2	n/a	n/a	n/a	n/a	n/a
2302291	PROB	n/a	LTP136	ltpFR	11	n/a	n/a	n/a	n/a	n/a	n/a	17	8	3	6	n/a	n/a	n/a	n/a	n/a
2305157	PROB	n/a	LTP136	ltpFR	11	n/a	n/a	n/a	n/a	n/a	n/a	14	7	2	5	n/a	n/a	n/a	n/a	n/a
2307106	PROB	n/a	LTP136	ltpFR	11	n/a	n/a	n/a	n/a	n/a	n/a	17	3	5	9	n/a	n/a	n/a	n/a	n/a
2308872	PROB	n/a	LTP136	ltpFR	11	n/a	n/a	n/a	n/a	n/a	n/a	17	3	6	8	n/a	n/a	n/a	n/a	n/a
2310479	PROB	n/a	LTP136	ltpFR	11	n/a	n/a	n/a	n/a	n/a	n/a	8	1	5	2	n/a	n/a	n/a	n/a	n/a
2311879	PROB	n/a	LTP136	ltpFR	11	n/a	n/a	n/a	n/a	n/a	n/a	15	8	1	6	n/a	n/a	n/a	n/a	n/a
2313154	PROB	n/a	LTP136	ltpFR	11	n/a	n/a	n/a	n/a	n/a	n/a	10	8	1	1	n/a	n/a	n/a	n/a	n/a
2314450	STOP	n/a	LTP136	ltpFR	11	n/a	n/a	n/a	n/a	n/a	n/a	n/a	n/a	n/a	n/a	n/a	n/a	n/a	n/a	n/a
2316286	WORD	wordpools/wasnorm_wordpool.txt	LTP136	ltpFR	11	10	0	RIB	1188	n/a	0	n/a	0	0	0	1	0.412841796875	0.57763671875	lower	../fonts/zerothre.ttf
2319294	START	n/a	LTP136	ltpFR	11	n/a	n/a	n/a	n/a	n/a	n/a	n/a	n/a	n/a	n/a	n/a	n/a	n/a	n/a	n/a
2320260	PROB	n/a	LTP136	ltpFR	11	n/a	n/a	n/a	n/a	n/a	n/a	16	3	9	4	n/a	n/a	n/a	n/a	n/a
2322026	PROB	n/a	LTP136	ltpFR	11	n/a	n/a	n/a	n/a	n/a	n/a	17	5	9	3	n/a	n/a	n/a	n/a	n/a
2323799	PROB	n/a	LTP136	ltpFR	11	n/a	n/a	n/a	n/a	n/a	n/a	8	3	4	1	n/a	n/a	n/a	n/a	n/a
2325058	PROB	n/a	LTP136	ltpFR	11	n/a	n/a	n/a	n/a	n/a	n/a	23	8	9	6	n/a	n/a	n/a	n/a	n/a
2327232	PROB	n/a	LTP136	ltpFR	11	n/a	n/a	n/a	n/a	n/a	n/a	11	3	2	6	n/a	n/a	n/a	n/a	n/a
2328857	PROB	n/a	LTP136	ltpFR	11	n/a	n/a	n/a	n/a	n/a	n/a	11	4	6	1	n/a	n/a	n/a	n/a	n/a
2330039	PROB	n/a	LTP136	ltpFR	11	n/a	n/a	n/a	n/a	n/a	n/a	15	8	6	1	n/a	n/a	n/a	n/a	n/a
2331281	PROB	n/a	LTP136	ltpFR	11	n/a	n/a	n/a	n/a	n/a	n/a	16	2	5	9	n/a	n/a	n/a	n/a	n/a
2332596	PROB	n/a	LTP136	ltpFR	11	n/a	n/a	n/a	n/a	n/a	n/a	17	8	7	2	n/a	n/a	n/a	n/a	n/a
2334019	STOP	n/a	LTP136	ltpFR	11	n/a	n/a	n/a	n/a	n/a	n/a	n/a	n/a	n/a	n/a	n/a	n/a	n/a	n/a	n/a
2336279	WORD	wordpools/wasnorm_wordpool.txt	LTP136	ltpFR	11	10	0	SLOPE	1328	n/a	0	n/a	0	0	0	1	0.412841796875	0.57763671875	lower	../fonts/zerothre.ttf
2339287	START	n/a	LTP136	ltpFR	11	n/a	n/a	n/a	n/a	n/a	n/a	n/a	n/a	n/a	n/a	n/a	n/a	n/a	n/a	n/a
2340426	PROB	n/a	LTP136	ltpFR	11	n/a	n/a	n/a	n/a	n/a	n/a	19	4	8	7	n/a	n/a	n/a	n/a	n/a
2342002	PROB	n/a	LTP136	ltpFR	11	n/a	n/a	n/a	n/a	n/a	n/a	17	8	3	6	n/a	n/a	n/a	n/a	n/a
2343500	PROB	n/a	LTP136	ltpFR	11	n/a	n/a	n/a	n/a	n/a	n/a	11	2	8	1	n/a	n/a	n/a	n/a	n/a
2344800	PROB	n/a	LTP136	ltpFR	11	n/a	n/a	n/a	n/a	n/a	n/a	15	4	6	5	n/a	n/a	n/a	n/a	n/a
2346200	PROB	n/a	LTP136	ltpFR	11	n/a	n/a	n/a	n/a	n/a	n/a	14	7	5	2	n/a	n/a	n/a	n/a	n/a
2347657	PROB	n/a	LTP136	ltpFR	11	n/a	n/a	n/a	n/a	n/a	n/a	17	8	8	1	n/a	n/a	n/a	n/a	n/a
2348941	PROB	n/a	LTP136	ltpFR	11	n/a	n/a	n/a	n/a	n/a	n/a	22	6	7	9	n/a	n/a	n/a	n/a	n/a
2351448	PROB	n/a	LTP136	ltpFR	11	n/a	n/a	n/a	n/a	n/a	n/a	15	9	1	5	n/a	n/a	n/a	n/a	n/a
2352605	PROB	n/a	LTP136	ltpFR	11	n/a	n/a	n/a	n/a	n/a	n/a	17	9	5	3	n/a	n/a	n/a	n/a	n/a
2354211	STOP	n/a	LTP136	ltpFR	11	n/a	n/a	n/a	n/a	n/a	n/a	n/a	n/a	n/a	n/a	n/a	n/a	n/a	n/a	n/a
2356097	WORD	wordpools/wasnorm_wordpool.txt	LTP136	ltpFR	11	10	0	CATTLE	261	n/a	0	n/a	0	0	0	1	0.412841796875	0.57763671875	lower	../fonts/zerothre.ttf
2359105	START	n/a	LTP136	ltpFR	11	n/a	n/a	n/a	n/a	n/a	n/a	n/a	n/a	n/a	n/a	n/a	n/a	n/a	n/a	n/a
2360220	PROB	n/a	LTP136	ltpFR	11	n/a	n/a	n/a	n/a	n/a	n/a	17	9	1	7	n/a	n/a	n/a	n/a	n/a
2361527	PROB	n/a	LTP136	ltpFR	11	n/a	n/a	n/a	n/a	n/a	n/a	21	7	9	5	n/a	n/a	n/a	n/a	n/a
2363019	PROB	n/a	LTP136	ltpFR	11	n/a	n/a	n/a	n/a	n/a	n/a	8	1	5	2	n/a	n/a	n/a	n/a	n/a
2364261	PROB	n/a	LTP136	ltpFR	11	n/a	n/a	n/a	n/a	n/a	n/a	14	5	6	3	n/a	n/a	n/a	n/a	n/a
2365784	PROB	n/a	LTP136	ltpFR	11	n/a	n/a	n/a	n/a	n/a	n/a	9	7	1	1	n/a	n/a	n/a	n/a	n/a
2366926	PROB	n/a	LTP136	ltpFR	11	n/a	n/a	n/a	n/a	n/a	n/a	14	9	1	4	n/a	n/a	n/a	n/a	n/a
2369326	PROB	n/a	LTP136	ltpFR	11	n/a	n/a	n/a	n/a	n/a	n/a	24	7	8	9	n/a	n/a	n/a	n/a	n/a
2370942	PROB	n/a	LTP136	ltpFR	11	n/a	n/a	n/a	n/a	n/a	n/a	9	4	4	1	n/a	n/a	n/a	n/a	n/a
2372016	PROB	n/a	LTP136	ltpFR	11	n/a	n/a	n/a	n/a	n/a	n/a	17	5	3	9	n/a	n/a	n/a	n/a	n/a
2373963	STOP	n/a	LTP136	ltpFR	11	n/a	n/a	n/a	n/a	n/a	n/a	n/a	n/a	n/a	n/a	n/a	n/a	n/a	n/a	n/a
2375957	WORD	wordpools/wasnorm_wordpool.txt	LTP136	ltpFR	11	10	1	SPINACH	1352	n/a	0	n/a	0	0	0	0	0.5869140625	0.422607421875	upper	../fonts/amplitud.ttf
2378964	START	n/a	LTP136	ltpFR	11	n/a	n/a	n/a	n/a	n/a	n/a	n/a	n/a	n/a	n/a	n/a	n/a	n/a	n/a	n/a
2380155	PROB	n/a	LTP136	ltpFR	11	n/a	n/a	n/a	n/a	n/a	n/a	13	4	3	6	n/a	n/a	n/a	n/a	n/a
2381812	PROB	n/a	LTP136	ltpFR	11	n/a	n/a	n/a	n/a	n/a	n/a	14	7	6	1	n/a	n/a	n/a	n/a	n/a
2383071	PROB	n/a	LTP136	ltpFR	11	n/a	n/a	n/a	n/a	n/a	n/a	20	7	9	4	n/a	n/a	n/a	n/a	n/a
2386286	PROB	n/a	LTP136	ltpFR	11	n/a	n/a	n/a	n/a	n/a	n/a	16	1	6	9	n/a	n/a	n/a	n/a	n/a
2387468	PROB	n/a	LTP136	ltpFR	11	n/a	n/a	n/a	n/a	n/a	n/a	13	6	5	2	n/a	n/a	n/a	n/a	n/a
2388718	PROB	n/a	LTP136	ltpFR	11	n/a	n/a	n/a	n/a	n/a	n/a	14	4	6	4	n/a	n/a	n/a	n/a	n/a
2389843	PROB	n/a	LTP136	ltpFR	11	n/a	n/a	n/a	n/a	n/a	n/a	12	4	1	7	n/a	n/a	n/a	n/a	n/a
2390926	PROB	n/a	LTP136	ltpFR	11	n/a	n/a	n/a	n/a	n/a	n/a	17	2	8	7	n/a	n/a	n/a	n/a	n/a
2392192	PROB	n/a	LTP136	ltpFR	11	n/a	n/a	n/a	n/a	n/a	n/a	14	9	4	1	n/a	n/a	n/a	n/a	n/a
2394964	STOP	n/a	LTP136	ltpFR	11	n/a	n/a	n/a	n/a	n/a	n/a	n/a	n/a	n/a	n/a	n/a	n/a	n/a	n/a	n/a
2395874	WORD	wordpools/wasnorm_wordpool.txt	LTP136	ltpFR	11	10	1	COBRA	336	n/a	0	n/a	0	0	0	0	0.5869140625	0.422607421875	upper	../fonts/amplitud.ttf
2398906	START	n/a	LTP136	ltpFR	11	n/a	n/a	n/a	n/a	n/a	n/a	n/a	n/a	n/a	n/a	n/a	n/a	n/a	n/a	n/a
2399973	PROB	n/a	LTP136	ltpFR	11	n/a	n/a	n/a	n/a	n/a	n/a	19	2	8	9	n/a	n/a	n/a	n/a	n/a
2401231	PROB	n/a	LTP136	ltpFR	11	n/a	n/a	n/a	n/a	n/a	n/a	16	4	6	6	n/a	n/a	n/a	n/a	n/a
2402388	PROB	n/a	LTP136	ltpFR	11	n/a	n/a	n/a	n/a	n/a	n/a	22	8	7	7	n/a	n/a	n/a	n/a	n/a
2404005	PROB	n/a	LTP136	ltpFR	11	n/a	n/a	n/a	n/a	n/a	n/a	17	6	3	8	n/a	n/a	n/a	n/a	n/a
2405745	PROB	n/a	LTP136	ltpFR	11	n/a	n/a	n/a	n/a	n/a	n/a	20	7	8	5	n/a	n/a	n/a	n/a	n/a
2408003	PROB	n/a	LTP136	ltpFR	11	n/a	n/a	n/a	n/a	n/a	n/a	15	5	1	9	n/a	n/a	n/a	n/a	n/a
2409186	PROB	n/a	LTP136	ltpFR	11	n/a	n/a	n/a	n/a	n/a	n/a	18	7	8	3	n/a	n/a	n/a	n/a	n/a
2410777	PROB	n/a	LTP136	ltpFR	11	n/a	n/a	n/a	n/a	n/a	n/a	22	5	8	9	n/a	n/a	n/a	n/a	n/a
2412551	PROB	n/a	LTP136	ltpFR	11	n/a	n/a	n/a	n/a	n/a	n/a	14	4	2	8	n/a	n/a	n/a	n/a	n/a
2414410	STOP	n/a	LTP136	ltpFR	11	n/a	n/a	n/a	n/a	n/a	n/a	n/a	n/a	n/a	n/a	n/a	n/a	n/a	n/a	n/a
2415976	WORD	wordpools/wasnorm_wordpool.txt	LTP136	ltpFR	11	10	1	BEGGAR	117	n/a	0	n/a	0	0	0	0	0.5869140625	0.422607421875	upper	../fonts/amplitud.ttf
2418983	START	n/a	LTP136	ltpFR	11	n/a	n/a	n/a	n/a	n/a	n/a	n/a	n/a	n/a	n/a	n/a	n/a	n/a	n/a	n/a
2420082	PROB	n/a	LTP136	ltpFR	11	n/a	n/a	n/a	n/a	n/a	n/a	17	6	9	2	n/a	n/a	n/a	n/a	n/a
2422915	PROB	n/a	LTP136	ltpFR	11	n/a	n/a	n/a	n/a	n/a	n/a	11	3	4	4	n/a	n/a	n/a	n/a	n/a
2425247	PROB	n/a	LTP136	ltpFR	11	n/a	n/a	n/a	n/a	n/a	n/a	15	6	8	1	n/a	n/a	n/a	n/a	n/a
2426454	PROB	n/a	LTP136	ltpFR	11	n/a	n/a	n/a	n/a	n/a	n/a	19	5	7	7	n/a	n/a	n/a	n/a	n/a
2428370	PROB	n/a	LTP136	ltpFR	11	n/a	n/a	n/a	n/a	n/a	n/a	20	6	8	6	n/a	n/a	n/a	n/a	n/a
2429954	PROB	n/a	LTP136	ltpFR	11	n/a	n/a	n/a	n/a	n/a	n/a	8	5	1	2	n/a	n/a	n/a	n/a	n/a
2431195	PROB	n/a	LTP136	ltpFR	11	n/a	n/a	n/a	n/a	n/a	n/a	13	3	4	6	n/a	n/a	n/a	n/a	n/a
2434810	STOP	n/a	LTP136	ltpFR	11	n/a	n/a	n/a	n/a	n/a	n/a	n/a	n/a	n/a	n/a	n/a	n/a	n/a	n/a	n/a
2436168	WORD	wordpools/wasnorm_wordpool.txt	LTP136	ltpFR	11	10	1	SOAP	1337	n/a	0	n/a	0	0	0	0	0.5869140625	0.422607421875	upper	../fonts/amplitud.ttf
2439176	START	n/a	LTP136	ltpFR	11	n/a	n/a	n/a	n/a	n/a	n/a	n/a	n/a	n/a	n/a	n/a	n/a	n/a	n/a	n/a
2440334	PROB	n/a	LTP136	ltpFR	11	n/a	n/a	n/a	n/a	n/a	n/a	16	4	9	3	n/a	n/a	n/a	n/a	n/a
2442041	PROB	n/a	LTP136	ltpFR	11	n/a	n/a	n/a	n/a	n/a	n/a	12	6	2	4	n/a	n/a	n/a	n/a	n/a
2443815	PROB	n/a	LTP136	ltpFR	11	n/a	n/a	n/a	n/a	n/a	n/a	18	9	8	1	n/a	n/a	n/a	n/a	n/a
2445199	PROB	n/a	LTP136	ltpFR	11	n/a	n/a	n/a	n/a	n/a	n/a	12	7	4	1	n/a	n/a	n/a	n/a	n/a
2446422	PROB	n/a	LTP136	ltpFR	11	n/a	n/a	n/a	n/a	n/a	n/a	11	5	1	5	n/a	n/a	n/a	n/a	n/a
2447563	PROB	n/a	LTP136	ltpFR	11	n/a	n/a	n/a	n/a	n/a	n/a	12	2	7	3	n/a	n/a	n/a	n/a	n/a
2448997	PROB	n/a	LTP136	ltpFR	11	n/a	n/a	n/a	n/a	n/a	n/a	20	5	6	9	n/a	n/a	n/a	n/a	n/a
2450779	PROB	n/a	LTP136	ltpFR	11	n/a	n/a	n/a	n/a	n/a	n/a	18	9	5	4	n/a	n/a	n/a	n/a	n/a
2452271	PROB	n/a	LTP136	ltpFR	11	n/a	n/a	n/a	n/a	n/a	n/a	8	2	2	4	n/a	n/a	n/a	n/a	n/a
2453794	STOP	n/a	LTP136	ltpFR	11	n/a	n/a	n/a	n/a	n/a	n/a	n/a	n/a	n/a	n/a	n/a	n/a	n/a	n/a	n/a
2456036	WORD	wordpools/wasnorm_wordpool.txt	LTP136	ltpFR	11	10	1	SHOWER	1296	n/a	0	n/a	0	0	0	0	0.5869140625	0.422607421875	upper	../fonts/amplitud.ttf
2459044	START	n/a	LTP136	ltpFR	11	n/a	n/a	n/a	n/a	n/a	n/a	n/a	n/a	n/a	n/a	n/a	n/a	n/a	n/a	n/a
2460202	PROB	n/a	LTP136	ltpFR	11	n/a	n/a	n/a	n/a	n/a	n/a	19	9	2	8	n/a	n/a	n/a	n/a	n/a
2462209	PROB	n/a	LTP136	ltpFR	11	n/a	n/a	n/a	n/a	n/a	n/a	15	1	8	6	n/a	n/a	n/a	n/a	n/a
2463499	PROB	n/a	LTP136	ltpFR	11	n/a	n/a	n/a	n/a	n/a	n/a	13	9	3	1	n/a	n/a	n/a	n/a	n/a
2464724	PROB	n/a	LTP136	ltpFR	11	n/a	n/a	n/a	n/a	n/a	n/a	9	4	1	4	n/a	n/a	n/a	n/a	n/a
2465891	PROB	n/a	LTP136	ltpFR	11	n/a	n/a	n/a	n/a	n/a	n/a	19	3	7	9	n/a	n/a	n/a	n/a	n/a
2467132	PROB	n/a	LTP136	ltpFR	11	n/a	n/a	n/a	n/a	n/a	n/a	21	9	6	5	n/a	n/a	n/a	n/a	n/a
2470455	PROB	n/a	LTP136	ltpFR	11	n/a	n/a	n/a	n/a	n/a	n/a	13	6	1	6	n/a	n/a	n/a	n/a	n/a
2472771	PROB	n/a	LTP136	ltpFR	11	n/a	n/a	n/a	n/a	n/a	n/a	9	7	1	1	n/a	n/a	n/a	n/a	n/a
2473979	STOP	n/a	LTP136	ltpFR	11	n/a	n/a	n/a	n/a	n/a	n/a	n/a	n/a	n/a	n/a	n/a	n/a	n/a	n/a	n/a
2475996	WORD	wordpools/wasnorm_wordpool.txt	LTP136	ltpFR	11	10	1	STAMP	1370	n/a	0	n/a	0	0	0	0	0.5869140625	0.422607421875	upper	../fonts/amplitud.ttf
2479004	START	n/a	LTP136	ltpFR	11	n/a	n/a	n/a	n/a	n/a	n/a	n/a	n/a	n/a	n/a	n/a	n/a	n/a	n/a	n/a
2479870	PROB	n/a	LTP136	ltpFR	11	n/a	n/a	n/a	n/a	n/a	n/a	14	3	5	6	n/a	n/a	n/a	n/a	n/a
2481360	PROB	n/a	LTP136	ltpFR	11	n/a	n/a	n/a	n/a	n/a	n/a	16	7	4	5	n/a	n/a	n/a	n/a	n/a
2482844	PROB	n/a	LTP136	ltpFR	11	n/a	n/a	n/a	n/a	n/a	n/a	16	5	9	2	n/a	n/a	n/a	n/a	n/a
2485251	PROB	n/a	LTP136	ltpFR	11	n/a	n/a	n/a	n/a	n/a	n/a	16	4	4	8	n/a	n/a	n/a	n/a	n/a
2487067	PROB	n/a	LTP136	ltpFR	11	n/a	n/a	n/a	n/a	n/a	n/a	18	4	8	6	n/a	n/a	n/a	n/a	n/a
2488925	PROB	n/a	LTP136	ltpFR	11	n/a	n/a	n/a	n/a	n/a	n/a	12	9	2	1	n/a	n/a	n/a	n/a	n/a
2491207	PROB	n/a	LTP136	ltpFR	11	n/a	n/a	n/a	n/a	n/a	n/a	18	8	8	2	n/a	n/a	n/a	n/a	n/a
2495004	STOP	n/a	LTP136	ltpFR	11	n/a	n/a	n/a	n/a	n/a	n/a	n/a	n/a	n/a	n/a	n/a	n/a	n/a	n/a	n/a
2496205	WORD	wordpools/wasnorm_wordpool.txt	LTP136	ltpFR	11	10	0	QUAIL	1147	n/a	2	n/a	0	0	0	1	0.412841796875	0.57763671875	lower	../fonts/zerothre.ttf
2496972	KEY_MSG	n/a	LTP136	ltpFR	11	10	n/a	n/a	n/a	n/a	n/a	n/a	0	0	0	n/a	n/a	n/a	n/a	n/a
2499213	START	n/a	LTP136	ltpFR	11	n/a	n/a	n/a	n/a	n/a	n/a	n/a	n/a	n/a	n/a	n/a	n/a	n/a	n/a	n/a
2500254	PROB	n/a	LTP136	ltpFR	11	n/a	n/a	n/a	n/a	n/a	n/a	17	5	8	4	n/a	n/a	n/a	n/a	n/a
2501836	PROB	n/a	LTP136	ltpFR	11	n/a	n/a	n/a	n/a	n/a	n/a	20	8	9	3	n/a	n/a	n/a	n/a	n/a
2503944	PROB	n/a	LTP136	ltpFR	11	n/a	n/a	n/a	n/a	n/a	n/a	12	4	5	3	n/a	n/a	n/a	n/a	n/a
2505385	PROB	n/a	LTP136	ltpFR	11	n/a	n/a	n/a	n/a	n/a	n/a	19	5	8	6	n/a	n/a	n/a	n/a	n/a
2507467	PROB	n/a	LTP136	ltpFR	11	n/a	n/a	n/a	n/a	n/a	n/a	20	3	8	9	n/a	n/a	n/a	n/a	n/a
2510034	PROB	n/a	LTP136	ltpFR	11	n/a	n/a	n/a	n/a	n/a	n/a	20	8	7	5	n/a	n/a	n/a	n/a	n/a
2512166	PROB	n/a	LTP136	ltpFR	11	n/a	n/a	n/a	n/a	n/a	n/a	18	9	8	1	n/a	n/a	n/a	n/a	n/a
2513573	PROB	n/a	LTP136	ltpFR	11	n/a	n/a	n/a	n/a	n/a	n/a	19	8	7	4	n/a	n/a	n/a	n/a	n/a
2515083	STOP	n/a	LTP136	ltpFR	11	n/a	n/a	n/a	n/a	n/a	n/a	n/a	n/a	n/a	n/a	n/a	n/a	n/a	n/a	n/a
2516190	WORD	wordpools/wasnorm_wordpool.txt	LTP136	ltpFR	11	10	0	BIRD	129	n/a	0	n/a	0	0	0	1	0.412841796875	0.57763671875	lower	../fonts/zerothre.ttf
2519197	START	n/a	LTP136	ltpFR	11	n/a	n/a	n/a	n/a	n/a	n/a	n/a	n/a	n/a	n/a	n/a	n/a	n/a	n/a	n/a
2520155	PROB	n/a	LTP136	ltpFR	11	n/a	n/a	n/a	n/a	n/a	n/a	13	5	1	7	n/a	n/a	n/a	n/a	n/a
2521313	PROB	n/a	LTP136	ltpFR	11	n/a	n/a	n/a	n/a	n/a	n/a	16	2	7	7	n/a	n/a	n/a	n/a	n/a
2525427	PROB	n/a	LTP136	ltpFR	11	n/a	n/a	n/a	n/a	n/a	n/a	16	8	6	2	n/a	n/a	n/a	n/a	n/a
2526677	PROB	n/a	LTP136	ltpFR	11	n/a	n/a	n/a	n/a	n/a	n/a	15	7	3	5	n/a	n/a	n/a	n/a	n/a
2527902	PROB	n/a	LTP136	ltpFR	11	n/a	n/a	n/a	n/a	n/a	n/a	17	8	7	2	n/a	n/a	n/a	n/a	n/a
2529302	PROB	n/a	LTP136	ltpFR	11	n/a	n/a	n/a	n/a	n/a	n/a	22	9	7	6	n/a	n/a	n/a	n/a	n/a
2532851	PROB	n/a	LTP136	ltpFR	11	n/a	n/a	n/a	n/a	n/a	n/a	3	1	1	1	n/a	n/a	n/a	n/a	n/a
2533867	STOP	n/a	LTP136	ltpFR	11	n/a	n/a	n/a	n/a	n/a	n/a	n/a	n/a	n/a	n/a	n/a	n/a	n/a	n/a	n/a
2537050	REC_START	n/a	LTP136	ltpFR	11	10	n/a	n/a	n/a	n/a	n/a	n/a	0	0	0	n/a	n/a	n/a	n/a	n/a
2537663	REC_WORD	wordpools/wasnorm_wordpool.txt	LTP136	ltpFR	11	10	0	QUAIL	1147	n/a	2	n/a	0	0	0	n/a	n/a	n/a	n/a	n/a
2540861	REC_WORD	wordpools/wasnorm_wordpool.txt	LTP136	ltpFR	11	10	0	BIRD	129	n/a	0	n/a	0	0	0	n/a	n/a	n/a	n/a	n/a
2542268	REC_WORD	wordpools/wasnorm_wordpool.txt	LTP136	ltpFR	11	10	0	INTESTINE	742	n/a	2	n/a	0	0	0	n/a	n/a	n/a	n/a	n/a
2544079	REC_WORD	wordpools/wasnorm_wordpool.txt	LTP136	ltpFR	11	10	0	RIB	1188	n/a	0	n/a	0	0	0	n/a	n/a	n/a	n/a	n/a
2545430	REC_WORD	wordpools/wasnorm_wordpool.txt	LTP136	ltpFR	11	10	1	SPINACH	1352	n/a	0	n/a	0	0	0	n/a	n/a	n/a	n/a	n/a
2547331	REC_WORD	wordpools/wasnorm_wordpool.txt	LTP136	ltpFR	11	10	1	COBRA	336	n/a	0	n/a	0	0	0	n/a	n/a	n/a	n/a	n/a
2612630	REST_REWET	n/a	LTP136	ltpFR	11	10	n/a	n/a	n/a	n/a	n/a	n/a	0	0	0	n/a	n/a	n/a	n/a	n/a
2926802	START	n/a	LTP136	ltpFR	11	n/a	n/a	n/a	n/a	n/a	n/a	n/a	n/a	n/a	n/a	n/a	n/a	n/a	n/a	n/a
2928302	PROB	n/a	LTP136	ltpFR	11	n/a	n/a	n/a	n/a	n/a	n/a	11	7	2	2	n/a	n/a	n/a	n/a	n/a
2931142	PROB	n/a	LTP136	ltpFR	11	n/a	n/a	n/a	n/a	n/a	n/a	3	1	1	1	n/a	n/a	n/a	n/a	n/a
2932117	PROB	n/a	LTP136	ltpFR	11	n/a	n/a	n/a	n/a	n/a	n/a	11	1	5	5	n/a	n/a	n/a	n/a	n/a
2933250	PROB	n/a	LTP136	ltpFR	11	n/a	n/a	n/a	n/a	n/a	n/a	11	2	7	2	n/a	n/a	n/a	n/a	n/a
2934610	STOP	n/a	LTP136	ltpFR	11	n/a	n/a	n/a	n/a	n/a	n/a	n/a	n/a	n/a	n/a	n/a	n/a	n/a	n/a	n/a
2935924	WORD	wordpools/wasnorm_wordpool.txt	LTP136	ltpFR	11	11	1	ENGINE	535	n/a	0	n/a	0	0	0	0	0.5869140625	0.422607421875	upper	../fonts/amplitud.ttf
2938932	START	n/a	LTP136	ltpFR	11	n/a	n/a	n/a	n/a	n/a	n/a	n/a	n/a	n/a	n/a	n/a	n/a	n/a	n/a	n/a
2939973	PROB	n/a	LTP136	ltpFR	11	n/a	n/a	n/a	n/a	n/a	n/a	7	1	2	4	n/a	n/a	n/a	n/a	n/a
2941554	PROB	n/a	LTP136	ltpFR	11	n/a	n/a	n/a	n/a	n/a	n/a	25	6	9	6	n/a	n/a	n/a	n/a	n/a
2943504	PROB	n/a	LTP136	ltpFR	11	n/a	n/a	n/a	n/a	n/a	n/a	10	5	3	2	n/a	n/a	n/a	n/a	n/a
2946932	STOP	n/a	LTP136	ltpFR	11	n/a	n/a	n/a	n/a	n/a	n/a	n/a	n/a	n/a	n/a	n/a	n/a	n/a	n/a	n/a
2947911	WORD	wordpools/wasnorm_wordpool.txt	LTP136	ltpFR	11	11	1	KITTEN	780	n/a	0	n/a	0	0	0	0	0.5869140625	0.422607421875	upper	../fonts/amplitud.ttf
2950919	START	n/a	LTP136	ltpFR	11	n/a	n/a	n/a	n/a	n/a	n/a	n/a	n/a	n/a	n/a	n/a	n/a	n/a	n/a	n/a
2952027	PROB	n/a	LTP136	ltpFR	11	n/a	n/a	n/a	n/a	n/a	n/a	14	4	9	1	n/a	n/a	n/a	n/a	n/a
2953284	PROB	n/a	LTP136	ltpFR	11	n/a	n/a	n/a	n/a	n/a	n/a	13	4	7	2	n/a	n/a	n/a	n/a	n/a
2954884	PROB	n/a	LTP136	ltpFR	11	n/a	n/a	n/a	n/a	n/a	n/a	20	9	5	6	n/a	n/a	n/a	n/a	n/a
2957283	PROB	n/a	LTP136	ltpFR	11	n/a	n/a	n/a	n/a	n/a	n/a	14	2	4	8	n/a	n/a	n/a	n/a	n/a
2958883	STOP	n/a	LTP136	ltpFR	11	n/a	n/a	n/a	n/a	n/a	n/a	n/a	n/a	n/a	n/a	n/a	n/a	n/a	n/a	n/a
2959891	WORD	wordpools/wasnorm_wordpool.txt	LTP136	ltpFR	11	11	0	HEDGE	699	n/a	0	n/a	0	0	0	1	0.412841796875	0.57763671875	lower	../fonts/zerothre.ttf
2962898	START	n/a	LTP136	ltpFR	11	n/a	n/a	n/a	n/a	n/a	n/a	n/a	n/a	n/a	n/a	n/a	n/a	n/a	n/a	n/a
2963796	PROB	n/a	LTP136	ltpFR	11	n/a	n/a	n/a	n/a	n/a	n/a	24	8	8	6	n/a	n/a	n/a	n/a	n/a
2965388	PROB	n/a	LTP136	ltpFR	11	n/a	n/a	n/a	n/a	n/a	n/a	7	1	1	5	n/a	n/a	n/a	n/a	n/a
2966670	PROB	n/a	LTP136	ltpFR	11	n/a	n/a	n/a	n/a	n/a	n/a	15	5	9	1	n/a	n/a	n/a	n/a	n/a
2967896	PROB	n/a	LTP136	ltpFR	11	n/a	n/a	n/a	n/a	n/a	n/a	18	5	7	6	n/a	n/a	n/a	n/a	n/a
2969562	STOP	n/a	LTP136	ltpFR	11	n/a	n/a	n/a	n/a	n/a	n/a	n/a	n/a	n/a	n/a	n/a	n/a	n/a	n/a	n/a
2971870	WORD	wordpools/wasnorm_wordpool.txt	LTP136	ltpFR	11	11	0	PANTHER	1009	n/a	1	n/a	0	0	0	1	0.412841796875	0.57763671875	lower	../fonts/zerothre.ttf
2974877	START	n/a	LTP136	ltpFR	11	n/a	n/a	n/a	n/a	n/a	n/a	n/a	n/a	n/a	n/a	n/a	n/a	n/a	n/a	n/a
2975775	PROB	n/a	LTP136	ltpFR	11	n/a	n/a	n/a	n/a	n/a	n/a	19	3	7	9	n/a	n/a	n/a	n/a	n/a
2977151	PROB	n/a	LTP136	ltpFR	11	n/a	n/a	n/a	n/a	n/a	n/a	21	8	7	6	n/a	n/a	n/a	n/a	n/a
2979050	PROB	n/a	LTP136	ltpFR	11	n/a	n/a	n/a	n/a	n/a	n/a	12	5	1	6	n/a	n/a	n/a	n/a	n/a
2980875	PROB	n/a	LTP136	ltpFR	11	n/a	n/a	n/a	n/a	n/a	n/a	12	3	6	3	n/a	n/a	n/a	n/a	n/a
2982179	STOP	n/a	LTP136	ltpFR	11	n/a	n/a	n/a	n/a	n/a	n/a	n/a	n/a	n/a	n/a	n/a	n/a	n/a	n/a	n/a
2983806	WORD	wordpools/wasnorm_wordpool.txt	LTP136	ltpFR	11	11	0	OX	994	n/a	1	n/a	0	0	0	1	0.412841796875	0.57763671875	lower	../fonts/zerothre.ttf
2986814	START	n/a	LTP136	ltpFR	11	n/a	n/a	n/a	n/a	n/a	n/a	n/a	n/a	n/a	n/a	n/a	n/a	n/a	n/a	n/a
2987813	PROB	n/a	LTP136	ltpFR	11	n/a	n/a	n/a	n/a	n/a	n/a	15	5	8	2	n/a	n/a	n/a	n/a	n/a
2989562	PROB	n/a	LTP136	ltpFR	11	n/a	n/a	n/a	n/a	n/a	n/a	14	1	8	5	n/a	n/a	n/a	n/a	n/a
2990988	PROB	n/a	LTP136	ltpFR	11	n/a	n/a	n/a	n/a	n/a	n/a	7	1	1	5	n/a	n/a	n/a	n/a	n/a
2992129	PROB	n/a	LTP136	ltpFR	11	n/a	n/a	n/a	n/a	n/a	n/a	5	3	1	1	n/a	n/a	n/a	n/a	n/a
2994814	STOP	n/a	LTP136	ltpFR	11	n/a	n/a	n/a	n/a	n/a	n/a	n/a	n/a	n/a	n/a	n/a	n/a	n/a	n/a	n/a
2995668	WORD	wordpools/wasnorm_wordpool.txt	LTP136	ltpFR	11	11	1	SEED	1266	n/a	0	n/a	0	0	0	0	0.5869140625	0.422607421875	upper	../fonts/amplitud.ttf
2998676	START	n/a	LTP136	ltpFR	11	n/a	n/a	n/a	n/a	n/a	n/a	n/a	n/a	n/a	n/a	n/a	n/a	n/a	n/a	n/a
2999517	PROB	n/a	LTP136	ltpFR	11	n/a	n/a	n/a	n/a	n/a	n/a	13	3	6	4	n/a	n/a	n/a	n/a	n/a
3001068	PROB	n/a	LTP136	ltpFR	11	n/a	n/a	n/a	n/a	n/a	n/a	17	8	8	1	n/a	n/a	n/a	n/a	n/a
3002292	PROB	n/a	LTP136	ltpFR	11	n/a	n/a	n/a	n/a	n/a	n/a	16	1	7	8	n/a	n/a	n/a	n/a	n/a
3003491	PROB	n/a	LTP136	ltpFR	11	n/a	n/a	n/a	n/a	n/a	n/a	15	6	2	7	n/a	n/a	n/a	n/a	n/a
3005979	STOP	n/a	LTP136	ltpFR	11	n/a	n/a	n/a	n/a	n/a	n/a	n/a	n/a	n/a	n/a	n/a	n/a	n/a	n/a	n/a
3007673	WORD	wordpools/wasnorm_wordpool.txt	LTP136	ltpFR	11	11	1	FIST	572	n/a	0	n/a	0	0	0	0	0.5869140625	0.422607421875	upper	../fonts/amplitud.ttf
3010680	START	n/a	LTP136	ltpFR	11	n/a	n/a	n/a	n/a	n/a	n/a	n/a	n/a	n/a	n/a	n/a	n/a	n/a	n/a	n/a
3011613	PROB	n/a	LTP136	ltpFR	11	n/a	n/a	n/a	n/a	n/a	n/a	12	3	8	1	n/a	n/a	n/a	n/a	n/a
3013047	PROB	n/a	LTP136	ltpFR	11	n/a	n/a	n/a	n/a	n/a	n/a	16	6	6	4	n/a	n/a	n/a	n/a	n/a
3016220	PROB	n/a	LTP136	ltpFR	11	n/a	n/a	n/a	n/a	n/a	n/a	15	2	9	4	n/a	n/a	n/a	n/a	n/a
3017703	STOP	n/a	LTP136	ltpFR	11	n/a	n/a	n/a	n/a	n/a	n/a	n/a	n/a	n/a	n/a	n/a	n/a	n/a	n/a	n/a
3019760	WORD	wordpools/wasnorm_wordpool.txt	LTP136	ltpFR	11	11	1	ICE	730	n/a	0	n/a	0	0	0	0	0.5869140625	0.422607421875	upper	../fonts/amplitud.ttf
3022768	START	n/a	LTP136	ltpFR	11	n/a	n/a	n/a	n/a	n/a	n/a	n/a	n/a	n/a	n/a	n/a	n/a	n/a	n/a	n/a
3023733	PROB	n/a	LTP136	ltpFR	11	n/a	n/a	n/a	n/a	n/a	n/a	11	3	6	2	n/a	n/a	n/a	n/a	n/a
3025591	PROB	n/a	LTP136	ltpFR	11	n/a	n/a	n/a	n/a	n/a	n/a	18	7	8	3	n/a	n/a	n/a	n/a	n/a
3026933	PROB	n/a	LTP136	ltpFR	11	n/a	n/a	n/a	n/a	n/a	n/a	15	7	1	7	n/a	n/a	n/a	n/a	n/a
3028133	PROB	n/a	LTP136	ltpFR	11	n/a	n/a	n/a	n/a	n/a	n/a	22	9	5	8	n/a	n/a	n/a	n/a	n/a
3029578	STOP	n/a	LTP136	ltpFR	11	n/a	n/a	n/a	n/a	n/a	n/a	n/a	n/a	n/a	n/a	n/a	n/a	n/a	n/a	n/a
3031656	WORD	wordpools/wasnorm_wordpool.txt	LTP136	ltpFR	11	11	1	CHART	282	n/a	0	n/a	0	0	0	0	0.5869140625	0.422607421875	upper	../fonts/amplitud.ttf
3034664	START	n/a	LTP136	ltpFR	11	n/a	n/a	n/a	n/a	n/a	n/a	n/a	n/a	n/a	n/a	n/a	n/a	n/a	n/a	n/a
3035588	PROB	n/a	LTP136	ltpFR	11	n/a	n/a	n/a	n/a	n/a	n/a	5	1	2	2	n/a	n/a	n/a	n/a	n/a
3036671	PROB	n/a	LTP136	ltpFR	11	n/a	n/a	n/a	n/a	n/a	n/a	16	3	8	5	n/a	n/a	n/a	n/a	n/a
3038879	PROB	n/a	LTP136	ltpFR	11	n/a	n/a	n/a	n/a	n/a	n/a	18	5	8	5	n/a	n/a	n/a	n/a	n/a
3040912	PROB	n/a	LTP136	ltpFR	11	n/a	n/a	n/a	n/a	n/a	n/a	12	2	5	5	n/a	n/a	n/a	n/a	n/a
3042474	STOP	n/a	LTP136	ltpFR	11	n/a	n/a	n/a	n/a	n/a	n/a	n/a	n/a	n/a	n/a	n/a	n/a	n/a	n/a	n/a
3043718	WORD	wordpools/wasnorm_wordpool.txt	LTP136	ltpFR	11	11	1	PICTURE	1061	n/a	0	n/a	0	0	0	0	0.5869140625	0.422607421875	upper	../fonts/amplitud.ttf
3046726	START	n/a	LTP136	ltpFR	11	n/a	n/a	n/a	n/a	n/a	n/a	n/a	n/a	n/a	n/a	n/a	n/a	n/a	n/a	n/a
3047608	PROB	n/a	LTP136	ltpFR	11	n/a	n/a	n/a	n/a	n/a	n/a	14	3	7	4	n/a	n/a	n/a	n/a	n/a
3049591	PROB	n/a	LTP136	ltpFR	11	n/a	n/a	n/a	n/a	n/a	n/a	18	3	7	8	n/a	n/a	n/a	n/a	n/a
3051582	PROB	n/a	LTP136	ltpFR	11	n/a	n/a	n/a	n/a	n/a	n/a	18	3	9	6	n/a	n/a	n/a	n/a	n/a
3053251	STOP	n/a	LTP136	ltpFR	11	n/a	n/a	n/a	n/a	n/a	n/a	n/a	n/a	n/a	n/a	n/a	n/a	n/a	n/a	n/a
3055805	WORD	wordpools/wasnorm_wordpool.txt	LTP136	ltpFR	11	11	1	MACHINE	852	n/a	0	n/a	0	0	0	0	0.5869140625	0.422607421875	upper	../fonts/amplitud.ttf
3058813	START	n/a	LTP136	ltpFR	11	n/a	n/a	n/a	n/a	n/a	n/a	n/a	n/a	n/a	n/a	n/a	n/a	n/a	n/a	n/a
3059888	PROB	n/a	LTP136	ltpFR	11	n/a	n/a	n/a	n/a	n/a	n/a	6	1	3	2	n/a	n/a	n/a	n/a	n/a
3061005	PROB	n/a	LTP136	ltpFR	11	n/a	n/a	n/a	n/a	n/a	n/a	26	5	8	8	n/a	n/a	n/a	n/a	n/a
3064079	PROB	n/a	LTP136	ltpFR	11	n/a	n/a	n/a	n/a	n/a	n/a	8	1	3	4	n/a	n/a	n/a	n/a	n/a
3066813	STOP	n/a	LTP136	ltpFR	11	n/a	n/a	n/a	n/a	n/a	n/a	n/a	n/a	n/a	n/a	n/a	n/a	n/a	n/a	n/a
3067852	WORD	wordpools/wasnorm_wordpool.txt	LTP136	ltpFR	11	11	0	NEWSSTAND	949	n/a	0	n/a	0	0	0	1	0.412841796875	0.57763671875	lower	../fonts/zerothre.ttf
3070860	START	n/a	LTP136	ltpFR	11	n/a	n/a	n/a	n/a	n/a	n/a	n/a	n/a	n/a	n/a	n/a	n/a	n/a	n/a	n/a
3071992	PROB	n/a	LTP136	ltpFR	11	n/a	n/a	n/a	n/a	n/a	n/a	17	4	8	5	n/a	n/a	n/a	n/a	n/a
3073741	PROB	n/a	LTP136	ltpFR	11	n/a	n/a	n/a	n/a	n/a	n/a	11	1	5	5	n/a	n/a	n/a	n/a	n/a
3075316	PROB	n/a	LTP136	ltpFR	11	n/a	n/a	n/a	n/a	n/a	n/a	10	6	2	2	n/a	n/a	n/a	n/a	n/a
3077149	PROB	n/a	LTP136	ltpFR	11	n/a	n/a	n/a	n/a	n/a	n/a	13	9	1	3	n/a	n/a	n/a	n/a	n/a
3078498	STOP	n/a	LTP136	ltpFR	11	n/a	n/a	n/a	n/a	n/a	n/a	n/a	n/a	n/a	n/a	n/a	n/a	n/a	n/a	n/a
3079848	WORD	wordpools/wasnorm_wordpool.txt	LTP136	ltpFR	11	11	0	CLAMP	316	n/a	0	n/a	0	0	0	1	0.412841796875	0.57763671875	lower	../fonts/zerothre.ttf
3082856	START	n/a	LTP136	ltpFR	11	n/a	n/a	n/a	n/a	n/a	n/a	n/a	n/a	n/a	n/a	n/a	n/a	n/a	n/a	n/a
3083921	PROB	n/a	LTP136	ltpFR	11	n/a	n/a	n/a	n/a	n/a	n/a	8	1	6	1	n/a	n/a	n/a	n/a	n/a
3085163	PROB	n/a	LTP136	ltpFR	11	n/a	n/a	n/a	n/a	n/a	n/a	22	9	6	8	n/a	n/a	n/a	n/a	n/a
3086995	PROB	n/a	LTP136	ltpFR	11	n/a	n/a	n/a	n/a	n/a	n/a	14	4	3	7	n/a	n/a	n/a	n/a	n/a
3088635	PROB	n/a	LTP136	ltpFR	11	n/a	n/a	n/a	n/a	n/a	n/a	13	3	4	6	n/a	n/a	n/a	n/a	n/a
3090131	STOP	n/a	LTP136	ltpFR	11	n/a	n/a	n/a	n/a	n/a	n/a	n/a	n/a	n/a	n/a	n/a	n/a	n/a	n/a	n/a
3091726	WORD	wordpools/wasnorm_wordpool.txt	LTP136	ltpFR	11	11	0	HEEL	700	n/a	0	n/a	0	0	0	1	0.412841796875	0.57763671875	lower	../fonts/zerothre.ttf
3094734	START	n/a	LTP136	ltpFR	11	n/a	n/a	n/a	n/a	n/a	n/a	n/a	n/a	n/a	n/a	n/a	n/a	n/a	n/a	n/a
3095550	PROB	n/a	LTP136	ltpFR	11	n/a	n/a	n/a	n/a	n/a	n/a	19	6	9	4	n/a	n/a	n/a	n/a	n/a
3097233	PROB	n/a	LTP136	ltpFR	11	n/a	n/a	n/a	n/a	n/a	n/a	5	1	3	1	n/a	n/a	n/a	n/a	n/a
3098341	PROB	n/a	LTP136	ltpFR	11	n/a	n/a	n/a	n/a	n/a	n/a	15	8	2	5	n/a	n/a	n/a	n/a	n/a
3099590	PROB	n/a	LTP136	ltpFR	11	n/a	n/a	n/a	n/a	n/a	n/a	13	1	7	5	n/a	n/a	n/a	n/a	n/a
3100806	PROB	n/a	LTP136	ltpFR	11	n/a	n/a	n/a	n/a	n/a	n/a	19	7	4	8	n/a	n/a	n/a	n/a	n/a
3102243	STOP	n/a	LTP136	ltpFR	11	n/a	n/a	n/a	n/a	n/a	n/a	n/a	n/a	n/a	n/a	n/a	n/a	n/a	n/a	n/a
3103655	WORD	wordpools/wasnorm_wordpool.txt	LTP136	ltpFR	11	11	0	SNEAKER	1334	n/a	0	n/a	0	0	0	1	0.412841796875	0.57763671875	lower	../fonts/zerothre.ttf
3106663	START	n/a	LTP136	ltpFR	11	n/a	n/a	n/a	n/a	n/a	n/a	n/a	n/a	n/a	n/a	n/a	n/a	n/a	n/a	n/a
3107787	PROB	n/a	LTP136	ltpFR	11	n/a	n/a	n/a	n/a	n/a	n/a	22	9	4	9	n/a	n/a	n/a	n/a	n/a
3109436	PROB	n/a	LTP136	ltpFR	11	n/a	n/a	n/a	n/a	n/a	n/a	16	4	3	9	n/a	n/a	n/a	n/a	n/a
3110728	PROB	n/a	LTP136	ltpFR	11	n/a	n/a	n/a	n/a	n/a	n/a	18	9	4	5	n/a	n/a	n/a	n/a	n/a
3112519	PROB	n/a	LTP136	ltpFR	11	n/a	n/a	n/a	n/a	n/a	n/a	14	2	5	7	n/a	n/a	n/a	n/a	n/a
3113891	STOP	n/a	LTP136	ltpFR	11	n/a	n/a	n/a	n/a	n/a	n/a	n/a	n/a	n/a	n/a	n/a	n/a	n/a	n/a	n/a
3115651	WORD	wordpools/wasnorm_wordpool.txt	LTP136	ltpFR	11	11	0	HERD	705	n/a	0	n/a	0	0	0	1	0.412841796875	0.57763671875	lower	../fonts/zerothre.ttf
3118658	START	n/a	LTP136	ltpFR	11	n/a	n/a	n/a	n/a	n/a	n/a	n/a	n/a	n/a	n/a	n/a	n/a	n/a	n/a	n/a
3119583	PROB	n/a	LTP136	ltpFR	11	n/a	n/a	n/a	n/a	n/a	n/a	11	2	5	4	n/a	n/a	n/a	n/a	n/a
3121440	PROB	n/a	LTP136	ltpFR	11	n/a	n/a	n/a	n/a	n/a	n/a	22	6	8	8	n/a	n/a	n/a	n/a	n/a
3124948	PROB	n/a	LTP136	ltpFR	11	n/a	n/a	n/a	n/a	n/a	n/a	16	8	5	3	n/a	n/a	n/a	n/a	n/a
3126195	STOP	n/a	LTP136	ltpFR	11	n/a	n/a	n/a	n/a	n/a	n/a	n/a	n/a	n/a	n/a	n/a	n/a	n/a	n/a	n/a
3128463	REC_START	n/a	LTP136	ltpFR	11	11	n/a	n/a	n/a	n/a	n/a	n/a	0	0	0	n/a	n/a	n/a	n/a	n/a
3128952	REC_WORD	wordpools/wasnorm_wordpool.txt	LTP136	ltpFR	11	11	0	HERD	705	n/a	0	n/a	0	0	0	n/a	n/a	n/a	n/a	n/a
3130219	REC_WORD	wordpools/wasnorm_wordpool.txt	LTP136	ltpFR	11	11	0	OX	994	n/a	1	n/a	0	0	0	n/a	n/a	n/a	n/a	n/a
3131396	REC_WORD	wordpools/wasnorm_wordpool.txt	LTP136	ltpFR	11	11	0	NEWSSTAND	949	n/a	0	n/a	0	0	0	n/a	n/a	n/a	n/a	n/a
3160186	REC_WORD	wordpools/wasnorm_wordpool.txt	LTP136	ltpFR	11	11	1	KITTEN	780	n/a	0	n/a	0	0	0	n/a	n/a	n/a	n/a	n/a
3162181	REC_WORD	wordpools/wasnorm_wordpool.txt	LTP136	ltpFR	11	11	1	ENGINE	535	n/a	0	n/a	0	0	0	n/a	n/a	n/a	n/a	n/a
3207028	WORD	wordpools/wasnorm_wordpool.txt	LTP136	ltpFR	11	12	0	CRATER	400	n/a	0	n/a	0	0	0	1	0.412841796875	0.57763671875	lower	../fonts/zerothre.ttf
3211126	WORD	wordpools/wasnorm_wordpool.txt	LTP136	ltpFR	11	12	0	SNACK	1331	n/a	1	n/a	0	0	0	1	0.412841796875	0.57763671875	lower	../fonts/zerothre.ttf
3214975	WORD	wordpools/wasnorm_wordpool.txt	LTP136	ltpFR	11	12	0	CAPITAL	238	n/a	1	n/a	0	0	0	1	0.412841796875	0.57763671875	lower	../fonts/zerothre.ttf
