onset	duration	trial_type	sample	stim_file	subject	experiment	session	trial	task	item_name	item_num	recog_resp	recog_conf	resp	color_r	color_g	color_b	case	font
235.662	n/a	SESS_START	117831	n/a	LTP088	ltpFR	4	n/a	n/a	n/a	n/a	1	2	n/a	n/a	n/a	n/a	n/a	n/a
274.18	n/a	WORD	137090	wordpools/wasnorm_wordpool.txt	LTP088	ltpFR	4	1	0	DIVER	476	0	n/a	1	0.57763671875	0.412841796875	1	upper	amplitud.ttf
278.0	n/a	WORD	139000	wordpools/wasnorm_wordpool.txt	LTP088	ltpFR	4	1	0	DAM	436	n/a	n/a	1	0.57763671875	0.412841796875	1	upper	amplitud.ttf
282.136	n/a	WORD	141068	wordpools/wasnorm_wordpool.txt	LTP088	ltpFR	4	1	0	PRODUCER	1129	n/a	n/a	1	0.57763671875	0.412841796875	1	upper	amplitud.ttf
286.232	n/a	WORD	143116	wordpools/wasnorm_wordpool.txt	LTP088	ltpFR	4	1	1	VEIN	1554	n/a	n/a	1	0.422607421875	0.5869140625	0	lower	zerothre.ttf
290.252	n/a	WORD	145126	wordpools/wasnorm_wordpool.txt	LTP088	ltpFR	4	1	1	RECEPTIONIST	1174	n/a	n/a	1	0.422607421875	0.5869140625	0	lower	zerothre.ttf
294.406	n/a	WORD	147203	wordpools/wasnorm_wordpool.txt	LTP088	ltpFR	4	1	1	CARROT	249	n/a	n/a	1	0.422607421875	0.5869140625	0	lower	zerothre.ttf
298.342	n/a	WORD	149171	wordpools/wasnorm_wordpool.txt	LTP088	ltpFR	4	1	1	CITRUS	313	n/a	n/a	1	0.422607421875	0.5869140625	0	lower	zerothre.ttf
302.372	n/a	WORD	151186	wordpools/wasnorm_wordpool.txt	LTP088	ltpFR	4	1	0	SCREEN	1253	n/a	n/a	0	0.57763671875	0.412841796875	1	upper	amplitud.ttf
306.416	n/a	WORD	153208	wordpools/wasnorm_wordpool.txt	LTP088	ltpFR	4	1	0	BOXER	160	n/a	n/a	1	0.57763671875	0.412841796875	1	upper	amplitud.ttf
310.478	n/a	WORD	155239	wordpools/wasnorm_wordpool.txt	LTP088	ltpFR	4	1	0	EMPLOYER	532	n/a	n/a	1	0.57763671875	0.412841796875	1	upper	amplitud.ttf
314.648	n/a	WORD	157324	wordpools/wasnorm_wordpool.txt	LTP088	ltpFR	4	1	1	FLEA	577	n/a	n/a	1	0.422607421875	0.5869140625	0	lower	zerothre.ttf
318.512	n/a	WORD	159256	wordpools/wasnorm_wordpool.txt	LTP088	ltpFR	4	1	1	PLANT	1083	n/a	n/a	1	0.422607421875	0.5869140625	0	lower	zerothre.ttf
322.39	n/a	WORD	161195	wordpools/wasnorm_wordpool.txt	LTP088	ltpFR	4	1	1	COMPUTER	359	n/a	n/a	0	0.422607421875	0.5869140625	0	lower	zerothre.ttf
326.236	n/a	WORD	163118	wordpools/wasnorm_wordpool.txt	LTP088	ltpFR	4	1	1	CURB	426	n/a	n/a	0	0.422607421875	0.5869140625	0	lower	zerothre.ttf
330.266	n/a	WORD	165133	wordpools/wasnorm_wordpool.txt	LTP088	ltpFR	4	1	0	ATLAS	53	n/a	n/a	0	0.57763671875	0.412841796875	1	upper	amplitud.ttf
334.352	n/a	WORD	167176	wordpools/wasnorm_wordpool.txt	LTP088	ltpFR	4	1	0	WASHER	1592	n/a	n/a	1	0.57763671875	0.412841796875	1	upper	amplitud.ttf
340.212	n/a	REC_START	170106	n/a	LTP088	ltpFR	4	1	n/a	n/a	n/a	n/a	n/a	n/a	n/a	n/a	n/a	n/a	n/a
341.764	n/a	REC_WORD	170882	wordpools/wasnorm_wordpool.txt	LTP088	ltpFR	4	1	0	WASHER	1592	n/a	n/a	1	n/a	n/a	n/a	n/a	n/a
343.24	n/a	REC_WORD	171620	wordpools/wasnorm_wordpool.txt	LTP088	ltpFR	4	1	0	ATLAS	53	n/a	n/a	0	n/a	n/a	n/a	n/a	n/a
346.234	n/a	REC_WORD	173117	wordpools/wasnorm_wordpool.txt	LTP088	ltpFR	4	1	1	CITRUS	313	n/a	n/a	1	n/a	n/a	n/a	n/a	n/a
349.226	n/a	REC_WORD	174613	wordpools/wasnorm_wordpool.txt	LTP088	ltpFR	4	1	1	CARROT	249	n/a	n/a	1	n/a	n/a	n/a	n/a	n/a
350.204	n/a	REC_WORD	175102	wordpools/wasnorm_wordpool.txt	LTP088	ltpFR	4	1	1	RECEPTIONIST	1174	n/a	n/a	1	n/a	n/a	n/a	n/a	n/a
351.562	n/a	REC_WORD	175781	wordpools/wasnorm_wordpool.txt	LTP088	ltpFR	4	1	0	EMPLOYER	532	n/a	n/a	1	n/a	n/a	n/a	n/a	n/a
353.004	n/a	REC_WORD	176502	wordpools/wasnorm_wordpool.txt	LTP088	ltpFR	4	1	0	PRODUCER	1129	n/a	n/a	1	n/a	n/a	n/a	n/a	n/a
355.33	n/a	REC_WORD	177665	wordpools/wasnorm_wordpool.txt	LTP088	ltpFR	4	1	0	BOXER	160	n/a	n/a	1	n/a	n/a	n/a	n/a	n/a
356.258	n/a	REC_WORD	178129	wordpools/wasnorm_wordpool.txt	LTP088	ltpFR	4	1	1	FLEA	577	n/a	n/a	1	n/a	n/a	n/a	n/a	n/a
357.888	n/a	REC_WORD	178944	wordpools/wasnorm_wordpool.txt	LTP088	ltpFR	4	1	0	DIVER	476	n/a	n/a	1	n/a	n/a	n/a	n/a	n/a
359.414	n/a	REC_WORD	179707	wordpools/wasnorm_wordpool.txt	LTP088	ltpFR	4	1	0	DAM	436	n/a	n/a	1	n/a	n/a	n/a	n/a	n/a
360.562	n/a	REC_WORD	180281	wordpools/wasnorm_wordpool.txt	LTP088	ltpFR	4	1	0	SCREEN	1253	n/a	n/a	0	n/a	n/a	n/a	n/a	n/a
368.712	n/a	REC_WORD	184356	wordpools/wasnorm_wordpool.txt	LTP088	ltpFR	4	1	1	PLANT	1083	n/a	n/a	1	n/a	n/a	n/a	n/a	n/a
383.02	n/a	REC_WORD	191510	wordpools/wasnorm_wordpool.txt	LTP088	ltpFR	4	1	1	VEIN	1554	n/a	n/a	1	n/a	n/a	n/a	n/a	n/a
391.556	n/a	REC_WORD	195778	wordpools/wasnorm_wordpool.txt	LTP088	ltpFR	4	1	1	COMPUTER	359	n/a	n/a	0	n/a	n/a	n/a	n/a	n/a
424.456	n/a	WORD	212228	wordpools/wasnorm_wordpool.txt	LTP088	ltpFR	4	2	1	PORCH	1106	n/a	n/a	0	0.422607421875	0.5869140625	0	lower	zerothre.ttf
428.286	n/a	WORD	214143	wordpools/wasnorm_wordpool.txt	LTP088	ltpFR	4	2	1	ASTEROID	50	n/a	n/a	1	0.422607421875	0.5869140625	0	lower	zerothre.ttf
432.464	n/a	WORD	216232	wordpools/wasnorm_wordpool.txt	LTP088	ltpFR	4	2	1	COUCH	386	n/a	n/a	0	0.422607421875	0.5869140625	0	lower	zerothre.ttf
436.384	n/a	WORD	218192	wordpools/wasnorm_wordpool.txt	LTP088	ltpFR	4	2	1	APARTMENT	30	n/a	n/a	0	0.422607421875	0.5869140625	0	lower	zerothre.ttf
440.38	n/a	WORD	220190	wordpools/wasnorm_wordpool.txt	LTP088	ltpFR	4	2	0	BUFFALO	186	n/a	n/a	1	0.57763671875	0.412841796875	1	upper	amplitud.ttf
444.4	n/a	WORD	222200	wordpools/wasnorm_wordpool.txt	LTP088	ltpFR	4	2	0	MOOSE	915	n/a	n/a	1	0.57763671875	0.412841796875	1	upper	amplitud.ttf
448.57	n/a	WORD	224285	wordpools/wasnorm_wordpool.txt	LTP088	ltpFR	4	2	0	PASTRY	1022	n/a	n/a	0	0.57763671875	0.412841796875	1	upper	amplitud.ttf
452.558	n/a	WORD	226279	wordpools/wasnorm_wordpool.txt	LTP088	ltpFR	4	2	0	HEDGE	699	n/a	n/a	1	0.57763671875	0.412841796875	1	upper	amplitud.ttf
456.652	n/a	WORD	228326	wordpools/wasnorm_wordpool.txt	LTP088	ltpFR	4	2	1	PACKAGE	997	n/a	n/a	1	0.422607421875	0.5869140625	0	lower	zerothre.ttf
460.806	n/a	WORD	230403	wordpools/wasnorm_wordpool.txt	LTP088	ltpFR	4	2	1	PORPOISE	1109	n/a	n/a	1	0.422607421875	0.5869140625	0	lower	zerothre.ttf
464.944	n/a	WORD	232472	wordpools/wasnorm_wordpool.txt	LTP088	ltpFR	4	2	1	LEMON	810	n/a	n/a	1	0.422607421875	0.5869140625	0	lower	zerothre.ttf
468.93	n/a	WORD	234465	wordpools/wasnorm_wordpool.txt	LTP088	ltpFR	4	2	1	INFANT	737	n/a	n/a	1	0.422607421875	0.5869140625	0	lower	zerothre.ttf
472.85	n/a	WORD	236425	wordpools/wasnorm_wordpool.txt	LTP088	ltpFR	4	2	0	GOO	648	n/a	n/a	0	0.57763671875	0.412841796875	1	upper	amplitud.ttf
476.838	n/a	WORD	238419	wordpools/wasnorm_wordpool.txt	LTP088	ltpFR	4	2	0	TABLE	1426	n/a	n/a	1	0.57763671875	0.412841796875	1	upper	amplitud.ttf
480.724	n/a	WORD	240362	wordpools/wasnorm_wordpool.txt	LTP088	ltpFR	4	2	0	BEAN	105	n/a	n/a	0	0.57763671875	0.412841796875	1	upper	amplitud.ttf
484.904	n/a	WORD	242452	wordpools/wasnorm_wordpool.txt	LTP088	ltpFR	4	2	0	SHRUB	1299	n/a	n/a	1	0.57763671875	0.412841796875	1	upper	amplitud.ttf
490.648	n/a	REC_START	245324	n/a	LTP088	ltpFR	4	2	n/a	n/a	n/a	n/a	n/a	n/a	n/a	n/a	n/a	n/a	n/a
491.662	n/a	REC_WORD	245831	wordpools/wasnorm_wordpool.txt	LTP088	ltpFR	4	2	0	SHRUB	1299	n/a	n/a	1	n/a	n/a	n/a	n/a	n/a
492.758	n/a	REC_WORD	246379	wordpools/wasnorm_wordpool.txt	LTP088	ltpFR	4	2	0	HEDGE	699	n/a	n/a	1	n/a	n/a	n/a	n/a	n/a
494.036	n/a	REC_WORD_VV	247018	wordpools/wasnorm_wordpool.txt	LTP088	ltpFR	4	2	n/a	<>	-1	n/a	n/a	n/a	n/a	n/a	n/a	n/a	n/a
494.914	n/a	REC_WORD	247457	wordpools/wasnorm_wordpool.txt	LTP088	ltpFR	4	2	1	PORCH	1106	n/a	n/a	0	n/a	n/a	n/a	n/a	n/a
495.942	n/a	REC_WORD	247971	wordpools/wasnorm_wordpool.txt	LTP088	ltpFR	4	2	1	APARTMENT	30	n/a	n/a	0	n/a	n/a	n/a	n/a	n/a
497.638	n/a	REC_WORD	248819	wordpools/wasnorm_wordpool.txt	LTP088	ltpFR	4	2	1	COUCH	386	n/a	n/a	0	n/a	n/a	n/a	n/a	n/a
498.994	n/a	REC_WORD	249497	wordpools/wasnorm_wordpool.txt	LTP088	ltpFR	4	2	1	LEMON	810	n/a	n/a	1	n/a	n/a	n/a	n/a	n/a
500.64	n/a	REC_WORD	250320	wordpools/wasnorm_wordpool.txt	LTP088	ltpFR	4	2	0	BEAN	105	n/a	n/a	0	n/a	n/a	n/a	n/a	n/a
502.058	n/a	REC_WORD	251029	wordpools/wasnorm_wordpool.txt	LTP088	ltpFR	4	2	0	GOO	648	n/a	n/a	0	n/a	n/a	n/a	n/a	n/a
503.43	n/a	REC_WORD	251715	wordpools/wasnorm_wordpool.txt	LTP088	ltpFR	4	2	1	INFANT	737	n/a	n/a	1	n/a	n/a	n/a	n/a	n/a
504.726	n/a	REC_WORD	252363	wordpools/wasnorm_wordpool.txt	LTP088	ltpFR	4	2	1	PACKAGE	997	n/a	n/a	1	n/a	n/a	n/a	n/a	n/a
506.588	n/a	REC_WORD	253294	wordpools/wasnorm_wordpool.txt	LTP088	ltpFR	4	2	1	PORPOISE	1109	n/a	n/a	1	n/a	n/a	n/a	n/a	n/a
508.418	n/a	REC_WORD	254209	wordpools/wasnorm_wordpool.txt	LTP088	ltpFR	4	2	1	ASTEROID	50	n/a	n/a	1	n/a	n/a	n/a	n/a	n/a
510.838	n/a	REC_WORD	255419	wordpools/wasnorm_wordpool.txt	LTP088	ltpFR	4	2	0	BUFFALO	186	n/a	n/a	1	n/a	n/a	n/a	n/a	n/a
512.942	n/a	REC_WORD	256471	wordpools/wasnorm_wordpool.txt	LTP088	ltpFR	4	2	0	MOOSE	915	n/a	n/a	1	n/a	n/a	n/a	n/a	n/a
527.434	n/a	REC_WORD	263717	wordpools/wasnorm_wordpool.txt	LTP088	ltpFR	4	2	0	PASTRY	1022	n/a	n/a	0	n/a	n/a	n/a	n/a	n/a
575.326	n/a	WORD	287663	wordpools/wasnorm_wordpool.txt	LTP088	ltpFR	4	3	1	BEET	115	n/a	n/a	1	0.422607421875	0.5869140625	0	lower	zerothre.ttf
579.196	n/a	WORD	289598	wordpools/wasnorm_wordpool.txt	LTP088	ltpFR	4	3	1	DECK	443	n/a	n/a	0	0.422607421875	0.5869140625	0	lower	zerothre.ttf
583.358	n/a	WORD	291679	wordpools/wasnorm_wordpool.txt	LTP088	ltpFR	4	3	1	CIGAR	308	n/a	n/a	0	0.422607421875	0.5869140625	0	lower	zerothre.ttf
587.186	n/a	WORD	293593	wordpools/wasnorm_wordpool.txt	LTP088	ltpFR	4	3	1	SKULL	1320	n/a	n/a	0	0.422607421875	0.5869140625	0	lower	zerothre.ttf
591.298	n/a	WORD	295649	wordpools/wasnorm_wordpool.txt	LTP088	ltpFR	4	3	0	LINT	826	n/a	n/a	0	0.57763671875	0.412841796875	1	upper	amplitud.ttf
595.452	n/a	WORD	297726	wordpools/wasnorm_wordpool.txt	LTP088	ltpFR	4	3	0	SWAMP	1416	n/a	n/a	1	0.57763671875	0.412841796875	1	upper	amplitud.ttf
599.356	n/a	WORD	299678	wordpools/wasnorm_wordpool.txt	LTP088	ltpFR	4	3	0	FUNGUS	614	n/a	n/a	0	0.57763671875	0.412841796875	1	upper	amplitud.ttf
603.51	n/a	WORD	301755	wordpools/wasnorm_wordpool.txt	LTP088	ltpFR	4	3	0	HEADBAND	696	n/a	n/a	0	0.57763671875	0.412841796875	1	upper	amplitud.ttf
607.462	n/a	WORD	303731	wordpools/wasnorm_wordpool.txt	LTP088	ltpFR	4	3	0	SWEATER	1419	n/a	n/a	0	0.57763671875	0.412841796875	1	upper	amplitud.ttf
611.384	n/a	WORD	305692	wordpools/wasnorm_wordpool.txt	LTP088	ltpFR	4	3	0	BUTTON	207	n/a	n/a	0	0.57763671875	0.412841796875	1	upper	amplitud.ttf
615.27	n/a	WORD	307635	wordpools/wasnorm_wordpool.txt	LTP088	ltpFR	4	3	1	STRING	1394	n/a	n/a	0	0.422607421875	0.5869140625	0	lower	zerothre.ttf
619.466	n/a	WORD	309733	wordpools/wasnorm_wordpool.txt	LTP088	ltpFR	4	3	1	PELICAN	1039	n/a	n/a	1	0.422607421875	0.5869140625	0	lower	zerothre.ttf
623.436	n/a	WORD	311718	wordpools/wasnorm_wordpool.txt	LTP088	ltpFR	4	3	1	GULL	671	n/a	n/a	1	0.422607421875	0.5869140625	0	lower	zerothre.ttf
627.564	n/a	WORD	313782	wordpools/wasnorm_wordpool.txt	LTP088	ltpFR	4	3	1	LOOP	844	n/a	n/a	0	0.422607421875	0.5869140625	0	lower	zerothre.ttf
631.518	n/a	WORD	315759	wordpools/wasnorm_wordpool.txt	LTP088	ltpFR	4	3	0	PIRATE	1074	n/a	n/a	1	0.57763671875	0.412841796875	1	upper	amplitud.ttf
635.614	n/a	WORD	317807	wordpools/wasnorm_wordpool.txt	LTP088	ltpFR	4	3	0	CRITIC	410	n/a	n/a	1	0.57763671875	0.412841796875	1	upper	amplitud.ttf
641.174	n/a	REC_START	320587	n/a	LTP088	ltpFR	4	3	n/a	n/a	n/a	n/a	n/a	n/a	n/a	n/a	n/a	n/a	n/a
642.042	n/a	REC_WORD	321021	wordpools/wasnorm_wordpool.txt	LTP088	ltpFR	4	3	0	PIRATE	1074	n/a	n/a	1	n/a	n/a	n/a	n/a	n/a
642.996	n/a	REC_WORD	321498	wordpools/wasnorm_wordpool.txt	LTP088	ltpFR	4	3	0	CRITIC	410	n/a	n/a	1	n/a	n/a	n/a	n/a	n/a
644.212	n/a	REC_WORD	322106	wordpools/wasnorm_wordpool.txt	LTP088	ltpFR	4	3	1	SKULL	1320	n/a	n/a	0	n/a	n/a	n/a	n/a	n/a
646.0	n/a	REC_WORD	323000	wordpools/wasnorm_wordpool.txt	LTP088	ltpFR	4	3	1	BEET	115	n/a	n/a	1	n/a	n/a	n/a	n/a	n/a
647.934	n/a	REC_WORD	323967	wordpools/wasnorm_wordpool.txt	LTP088	ltpFR	4	3	0	SWAMP	1416	n/a	n/a	1	n/a	n/a	n/a	n/a	n/a
651.866	n/a	REC_WORD	325933	wordpools/wasnorm_wordpool.txt	LTP088	ltpFR	4	3	1	PELICAN	1039	n/a	n/a	1	n/a	n/a	n/a	n/a	n/a
653.468	n/a	REC_WORD	326734	wordpools/wasnorm_wordpool.txt	LTP088	ltpFR	4	3	1	GULL	671	n/a	n/a	1	n/a	n/a	n/a	n/a	n/a
654.53	n/a	REC_WORD	327265	wordpools/wasnorm_wordpool.txt	LTP088	ltpFR	4	3	0	HEADBAND	696	n/a	n/a	0	n/a	n/a	n/a	n/a	n/a
655.956	n/a	REC_WORD	327978	wordpools/wasnorm_wordpool.txt	LTP088	ltpFR	4	3	0	SWEATER	1419	n/a	n/a	0	n/a	n/a	n/a	n/a	n/a
657.722	n/a	REC_WORD	328861	wordpools/wasnorm_wordpool.txt	LTP088	ltpFR	4	3	0	BUTTON	207	n/a	n/a	0	n/a	n/a	n/a	n/a	n/a
659.0	n/a	REC_WORD	329500	wordpools/wasnorm_wordpool.txt	LTP088	ltpFR	4	3	0	FUNGUS	614	n/a	n/a	0	n/a	n/a	n/a	n/a	n/a
660.92	n/a	REC_WORD	330460	wordpools/wasnorm_wordpool.txt	LTP088	ltpFR	4	3	0	LINT	826	n/a	n/a	0	n/a	n/a	n/a	n/a	n/a
685.948	n/a	REC_WORD	342974	wordpools/wasnorm_wordpool.txt	LTP088	ltpFR	4	3	1	STRING	1394	n/a	n/a	0	n/a	n/a	n/a	n/a	n/a
688.184	n/a	REC_WORD	344092	wordpools/wasnorm_wordpool.txt	LTP088	ltpFR	4	3	1	LOOP	844	n/a	n/a	0	n/a	n/a	n/a	n/a	n/a
725.428	n/a	WORD	362714	wordpools/wasnorm_wordpool.txt	LTP088	ltpFR	4	4	-1	BERRY	122	n/a	n/a	-1	1.0	1.0	1	upper	Verdana.ttf
729.298	n/a	WORD	364649	wordpools/wasnorm_wordpool.txt	LTP088	ltpFR	4	4	-1	REPORT	1184	n/a	n/a	-1	1.0	1.0	1	upper	Verdana.ttf
733.278	n/a	WORD	366639	wordpools/wasnorm_wordpool.txt	LTP088	ltpFR	4	4	-1	TAR	1435	n/a	n/a	-1	1.0	1.0	1	upper	Verdana.ttf
737.256	n/a	WORD	368628	wordpools/wasnorm_wordpool.txt	LTP088	ltpFR	4	4	-1	DILL	465	n/a	n/a	-1	1.0	1.0	1	upper	Verdana.ttf
741.068	n/a	WORD	370534	wordpools/wasnorm_wordpool.txt	LTP088	ltpFR	4	4	-1	SINK	1309	n/a	n/a	-1	1.0	1.0	1	upper	Verdana.ttf
744.948	n/a	WORD	372474	wordpools/wasnorm_wordpool.txt	LTP088	ltpFR	4	4	-1	CREVICE	405	n/a	n/a	-1	1.0	1.0	1	upper	Verdana.ttf
748.994	n/a	WORD	374497	wordpools/wasnorm_wordpool.txt	LTP088	ltpFR	4	4	-1	YARD	1630	n/a	n/a	-1	1.0	1.0	1	upper	Verdana.ttf
752.872	n/a	WORD	376436	wordpools/wasnorm_wordpool.txt	LTP088	ltpFR	4	4	-1	WALLET	1583	n/a	n/a	-1	1.0	1.0	1	upper	Verdana.ttf
756.866	n/a	WORD	378433	wordpools/wasnorm_wordpool.txt	LTP088	ltpFR	4	4	-1	ALLEY	15	n/a	n/a	-1	1.0	1.0	1	upper	Verdana.ttf
760.896	n/a	WORD	380448	wordpools/wasnorm_wordpool.txt	LTP088	ltpFR	4	4	-1	NOTE	958	n/a	n/a	-1	1.0	1.0	1	upper	Verdana.ttf
764.808	n/a	WORD	382404	wordpools/wasnorm_wordpool.txt	LTP088	ltpFR	4	4	-1	MOSS	918	n/a	n/a	-1	1.0	1.0	1	upper	Verdana.ttf
768.67	n/a	WORD	384335	wordpools/wasnorm_wordpool.txt	LTP088	ltpFR	4	4	-1	FUGITIVE	612	n/a	n/a	-1	1.0	1.0	1	upper	Verdana.ttf
772.574	n/a	WORD	386287	wordpools/wasnorm_wordpool.txt	LTP088	ltpFR	4	4	-1	BANDIT	81	n/a	n/a	-1	1.0	1.0	1	upper	Verdana.ttf
776.586	n/a	WORD	388293	wordpools/wasnorm_wordpool.txt	LTP088	ltpFR	4	4	-1	VIOLIN	1571	n/a	n/a	-1	1.0	1.0	1	upper	Verdana.ttf
780.606	n/a	WORD	390303	wordpools/wasnorm_wordpool.txt	LTP088	ltpFR	4	4	-1	BEAR	106	n/a	n/a	-1	1.0	1.0	1	upper	Verdana.ttf
784.476	n/a	WORD	392238	wordpools/wasnorm_wordpool.txt	LTP088	ltpFR	4	4	-1	CUB	419	n/a	n/a	-1	1.0	1.0	1	upper	Verdana.ttf
790.336	n/a	REC_START	395168	n/a	LTP088	ltpFR	4	4	n/a	n/a	n/a	n/a	n/a	n/a	n/a	n/a	n/a	n/a	n/a
791.588	n/a	REC_WORD	395794	wordpools/wasnorm_wordpool.txt	LTP088	ltpFR	4	4	-1	BEAR	106	n/a	n/a	-1	n/a	n/a	n/a	n/a	n/a
792.522	n/a	REC_WORD	396261	wordpools/wasnorm_wordpool.txt	LTP088	ltpFR	4	4	-1	CUB	419	n/a	n/a	-1	n/a	n/a	n/a	n/a	n/a
793.514	n/a	REC_WORD	396757	wordpools/wasnorm_wordpool.txt	LTP088	ltpFR	4	4	-1	FUGITIVE	612	n/a	n/a	-1	n/a	n/a	n/a	n/a	n/a
794.852	n/a	REC_WORD	397426	wordpools/wasnorm_wordpool.txt	LTP088	ltpFR	4	4	-1	BANDIT	81	n/a	n/a	-1	n/a	n/a	n/a	n/a	n/a
796.378	n/a	REC_WORD	398189	wordpools/wasnorm_wordpool.txt	LTP088	ltpFR	4	4	-1	VIOLIN	1571	n/a	n/a	-1	n/a	n/a	n/a	n/a	n/a
800.308	n/a	REC_WORD	400154	wordpools/wasnorm_wordpool.txt	LTP088	ltpFR	4	4	-1	MOSS	918	n/a	n/a	-1	n/a	n/a	n/a	n/a	n/a
802.134	n/a	REC_WORD	401067	wordpools/wasnorm_wordpool.txt	LTP088	ltpFR	4	4	-1	DILL	465	n/a	n/a	-1	n/a	n/a	n/a	n/a	n/a
804.16	n/a	REC_WORD	402080	wordpools/wasnorm_wordpool.txt	LTP088	ltpFR	4	4	-1	WALLET	1583	n/a	n/a	-1	n/a	n/a	n/a	n/a	n/a
810.366	n/a	REC_WORD	405183	wordpools/wasnorm_wordpool.txt	LTP088	ltpFR	4	4	-1	BERRY	122	n/a	n/a	-1	n/a	n/a	n/a	n/a	n/a
816.144	n/a	REC_WORD	408072	wordpools/wasnorm_wordpool.txt	LTP088	ltpFR	4	4	-1	ALLEY	15	n/a	n/a	-1	n/a	n/a	n/a	n/a	n/a
817.242	n/a	REC_WORD	408621	wordpools/wasnorm_wordpool.txt	LTP088	ltpFR	4	4	-1	YARD	1630	n/a	n/a	-1	n/a	n/a	n/a	n/a	n/a
822.788	n/a	REC_WORD	411394	wordpools/wasnorm_wordpool.txt	LTP088	ltpFR	4	4	-1	SINK	1309	n/a	n/a	-1	n/a	n/a	n/a	n/a	n/a
823.886	n/a	REC_WORD	411943	wordpools/wasnorm_wordpool.txt	LTP088	ltpFR	4	4	-1	CREVICE	405	n/a	n/a	-1	n/a	n/a	n/a	n/a	n/a
875.146	n/a	WORD	437573	wordpools/wasnorm_wordpool.txt	LTP088	ltpFR	4	5	1	SLACKS	1323	n/a	n/a	1	0.422607421875	0.5869140625	0	lower	zerothre.ttf
879.158	n/a	WORD	439579	wordpools/wasnorm_wordpool.txt	LTP088	ltpFR	4	5	1	SKIRT	1319	n/a	n/a	0	0.422607421875	0.5869140625	0	lower	zerothre.ttf
882.982	n/a	WORD	441491	wordpools/wasnorm_wordpool.txt	LTP088	ltpFR	4	5	1	WINGS	1614	n/a	n/a	0	0.422607421875	0.5869140625	0	lower	zerothre.ttf
887.126	n/a	WORD	443563	wordpools/wasnorm_wordpool.txt	LTP088	ltpFR	4	5	1	PENGUIN	1044	n/a	n/a	1	0.422607421875	0.5869140625	0	lower	zerothre.ttf
890.956	n/a	WORD	445478	wordpools/wasnorm_wordpool.txt	LTP088	ltpFR	4	5	1	SCAPEGOAT	1244	n/a	n/a	1	0.422607421875	0.5869140625	0	lower	zerothre.ttf
895.124	n/a	WORD	447562	wordpools/wasnorm_wordpool.txt	LTP088	ltpFR	4	5	1	SUBMARINE	1398	n/a	n/a	0	0.422607421875	0.5869140625	0	lower	zerothre.ttf
899.236	n/a	WORD	449618	wordpools/wasnorm_wordpool.txt	LTP088	ltpFR	4	5	1	SPRINKLE	1359	n/a	n/a	1	0.422607421875	0.5869140625	0	lower	zerothre.ttf
903.074	n/a	WORD	451537	wordpools/wasnorm_wordpool.txt	LTP088	ltpFR	4	5	1	KETCHUP	771	n/a	n/a	0	0.422607421875	0.5869140625	0	lower	zerothre.ttf
907.06	n/a	WORD	453530	wordpools/wasnorm_wordpool.txt	LTP088	ltpFR	4	5	1	CROCODILE	411	n/a	n/a	1	0.422607421875	0.5869140625	0	lower	zerothre.ttf
911.098	n/a	WORD	455549	wordpools/wasnorm_wordpool.txt	LTP088	ltpFR	4	5	1	CHICK	296	n/a	n/a	1	0.422607421875	0.5869140625	0	lower	zerothre.ttf
915.152	n/a	WORD	457576	wordpools/wasnorm_wordpool.txt	LTP088	ltpFR	4	5	1	SPARROW	1347	n/a	n/a	1	0.422607421875	0.5869140625	0	lower	zerothre.ttf
919.022	n/a	WORD	459511	wordpools/wasnorm_wordpool.txt	LTP088	ltpFR	4	5	1	SHOULDER	1294	n/a	n/a	1	0.422607421875	0.5869140625	0	lower	zerothre.ttf
922.976	n/a	WORD	461488	wordpools/wasnorm_wordpool.txt	LTP088	ltpFR	4	5	1	BAY	102	n/a	n/a	0	0.422607421875	0.5869140625	0	lower	zerothre.ttf
926.822	n/a	WORD	463411	wordpools/wasnorm_wordpool.txt	LTP088	ltpFR	4	5	1	CABOOSE	214	n/a	n/a	1	0.422607421875	0.5869140625	0	lower	zerothre.ttf
930.774	n/a	WORD	465387	wordpools/wasnorm_wordpool.txt	LTP088	ltpFR	4	5	1	COW	393	n/a	n/a	1	0.422607421875	0.5869140625	0	lower	zerothre.ttf
934.67	n/a	WORD	467335	wordpools/wasnorm_wordpool.txt	LTP088	ltpFR	4	5	1	JOINT	758	n/a	n/a	0	0.422607421875	0.5869140625	0	lower	zerothre.ttf
940.59	n/a	REC_START	470295	n/a	LTP088	ltpFR	4	5	n/a	n/a	n/a	n/a	n/a	n/a	n/a	n/a	n/a	n/a	n/a
941.672	n/a	REC_WORD	470836	wordpools/wasnorm_wordpool.txt	LTP088	ltpFR	4	5	1	SCAPEGOAT	1244	n/a	n/a	1	n/a	n/a	n/a	n/a	n/a
944.246	n/a	REC_WORD	472123	wordpools/wasnorm_wordpool.txt	LTP088	ltpFR	4	5	1	SPARROW	1347	n/a	n/a	1	n/a	n/a	n/a	n/a	n/a
947.808	n/a	REC_WORD	473904	wordpools/wasnorm_wordpool.txt	LTP088	ltpFR	4	5	1	JOINT	758	n/a	n/a	0	n/a	n/a	n/a	n/a	n/a
948.986	n/a	REC_WORD	474493	wordpools/wasnorm_wordpool.txt	LTP088	ltpFR	4	5	1	SLACKS	1323	n/a	n/a	1	n/a	n/a	n/a	n/a	n/a
950.556	n/a	REC_WORD	475278	wordpools/wasnorm_wordpool.txt	LTP088	ltpFR	4	5	1	SKIRT	1319	n/a	n/a	0	n/a	n/a	n/a	n/a	n/a
952.298	n/a	REC_WORD	476149	wordpools/wasnorm_wordpool.txt	LTP088	ltpFR	4	5	1	SHOULDER	1294	n/a	n/a	1	n/a	n/a	n/a	n/a	n/a
953.934	n/a	REC_WORD	476967	wordpools/wasnorm_wordpool.txt	LTP088	ltpFR	4	5	1	SUBMARINE	1398	n/a	n/a	0	n/a	n/a	n/a	n/a	n/a
955.88	n/a	REC_WORD	477940	wordpools/wasnorm_wordpool.txt	LTP088	ltpFR	4	5	1	BAY	102	n/a	n/a	0	n/a	n/a	n/a	n/a	n/a
957.226	n/a	REC_WORD	478613	wordpools/wasnorm_wordpool.txt	LTP088	ltpFR	4	5	1	SPRINKLE	1359	n/a	n/a	1	n/a	n/a	n/a	n/a	n/a
959.466	n/a	REC_WORD	479733	wordpools/wasnorm_wordpool.txt	LTP088	ltpFR	4	5	1	COW	393	n/a	n/a	1	n/a	n/a	n/a	n/a	n/a
964.266	n/a	REC_WORD	482133	wordpools/wasnorm_wordpool.txt	LTP088	ltpFR	4	5	1	CHICK	296	n/a	n/a	1	n/a	n/a	n/a	n/a	n/a
978.14	n/a	REC_WORD	489070	wordpools/wasnorm_wordpool.txt	LTP088	ltpFR	4	5	1	CABOOSE	214	n/a	n/a	1	n/a	n/a	n/a	n/a	n/a
994.932	n/a	REC_WORD	497466	wordpools/wasnorm_wordpool.txt	LTP088	ltpFR	4	5	1	CROCODILE	411	n/a	n/a	1	n/a	n/a	n/a	n/a	n/a
1025.5	n/a	WORD	512750	wordpools/wasnorm_wordpool.txt	LTP088	ltpFR	4	6	1	DOUGHNUT	490	n/a	n/a	0	0.422607421875	0.5869140625	0	lower	zerothre.ttf
1029.644	n/a	WORD	514822	wordpools/wasnorm_wordpool.txt	LTP088	ltpFR	4	6	1	STRAWBERRY	1391	n/a	n/a	1	0.422607421875	0.5869140625	0	lower	zerothre.ttf
1033.764	n/a	WORD	516882	wordpools/wasnorm_wordpool.txt	LTP088	ltpFR	4	6	1	MAGICIAN	854	n/a	n/a	1	0.422607421875	0.5869140625	0	lower	zerothre.ttf
1037.894	n/a	WORD	518947	wordpools/wasnorm_wordpool.txt	LTP088	ltpFR	4	6	1	CELLAR	267	n/a	n/a	0	0.422607421875	0.5869140625	0	lower	zerothre.ttf
1041.832	n/a	WORD	520916	wordpools/wasnorm_wordpool.txt	LTP088	ltpFR	4	6	1	GYMNAST	675	n/a	n/a	1	0.422607421875	0.5869140625	0	lower	zerothre.ttf
1045.994	n/a	WORD	522997	wordpools/wasnorm_wordpool.txt	LTP088	ltpFR	4	6	1	TRAY	1498	n/a	n/a	0	0.422607421875	0.5869140625	0	lower	zerothre.ttf
1049.948	n/a	WORD	524974	wordpools/wasnorm_wordpool.txt	LTP088	ltpFR	4	6	1	MEADOW	881	n/a	n/a	1	0.422607421875	0.5869140625	0	lower	zerothre.ttf
1054.1	n/a	WORD	527050	wordpools/wasnorm_wordpool.txt	LTP088	ltpFR	4	6	1	ROSE	1212	n/a	n/a	1	0.422607421875	0.5869140625	0	lower	zerothre.ttf
1058.054	n/a	WORD	529027	wordpools/wasnorm_wordpool.txt	LTP088	ltpFR	4	6	1	WRITER	1627	n/a	n/a	0	0.422607421875	0.5869140625	0	lower	zerothre.ttf
1062.25	n/a	WORD	531125	wordpools/wasnorm_wordpool.txt	LTP088	ltpFR	4	6	1	SHELF	1280	n/a	n/a	0	0.422607421875	0.5869140625	0	lower	zerothre.ttf
1066.378	n/a	WORD	533189	wordpools/wasnorm_wordpool.txt	LTP088	ltpFR	4	6	1	BUNNY	198	n/a	n/a	1	0.422607421875	0.5869140625	0	lower	zerothre.ttf
1070.324	n/a	WORD	535162	wordpools/wasnorm_wordpool.txt	LTP088	ltpFR	4	6	1	LUNCH	849	n/a	n/a	0	0.422607421875	0.5869140625	0	lower	zerothre.ttf
1074.202	n/a	WORD	537101	wordpools/wasnorm_wordpool.txt	LTP088	ltpFR	4	6	1	FOX	598	n/a	n/a	1	0.422607421875	0.5869140625	0	lower	zerothre.ttf
1078.156	n/a	WORD	539078	wordpools/wasnorm_wordpool.txt	LTP088	ltpFR	4	6	1	EYELASH	546	n/a	n/a	0	0.422607421875	0.5869140625	0	lower	zerothre.ttf
1082.226	n/a	WORD	541113	wordpools/wasnorm_wordpool.txt	LTP088	ltpFR	4	6	1	GALLON	618	n/a	n/a	1	0.422607421875	0.5869140625	0	lower	zerothre.ttf
1086.172	n/a	WORD	543086	wordpools/wasnorm_wordpool.txt	LTP088	ltpFR	4	6	1	GATE	625	n/a	n/a	0	0.422607421875	0.5869140625	0	lower	zerothre.ttf
1092.04	n/a	REC_START	546020	n/a	LTP088	ltpFR	4	6	n/a	n/a	n/a	n/a	n/a	n/a	n/a	n/a	n/a	n/a	n/a
1094.156	n/a	REC_WORD	547078	wordpools/wasnorm_wordpool.txt	LTP088	ltpFR	4	6	1	GATE	625	n/a	n/a	0	n/a	n/a	n/a	n/a	n/a
1095.332	n/a	REC_WORD	547666	wordpools/wasnorm_wordpool.txt	LTP088	ltpFR	4	6	1	GALLON	618	n/a	n/a	1	n/a	n/a	n/a	n/a	n/a
1096.794	n/a	REC_WORD	548397	wordpools/wasnorm_wordpool.txt	LTP088	ltpFR	4	6	1	MEADOW	881	n/a	n/a	1	n/a	n/a	n/a	n/a	n/a
1098.39	n/a	REC_WORD	549195	wordpools/wasnorm_wordpool.txt	LTP088	ltpFR	4	6	1	CELLAR	267	n/a	n/a	0	n/a	n/a	n/a	n/a	n/a
1099.628	n/a	REC_WORD	549814	wordpools/wasnorm_wordpool.txt	LTP088	ltpFR	4	6	1	MAGICIAN	854	n/a	n/a	1	n/a	n/a	n/a	n/a	n/a
1101.504	n/a	REC_WORD	550752	wordpools/wasnorm_wordpool.txt	LTP088	ltpFR	4	6	1	WRITER	1627	n/a	n/a	0	n/a	n/a	n/a	n/a	n/a
1103.44	n/a	REC_WORD	551720	wordpools/wasnorm_wordpool.txt	LTP088	ltpFR	4	6	1	FOX	598	n/a	n/a	1	n/a	n/a	n/a	n/a	n/a
1105.156	n/a	REC_WORD	552578	wordpools/wasnorm_wordpool.txt	LTP088	ltpFR	4	6	1	BUNNY	198	n/a	n/a	1	n/a	n/a	n/a	n/a	n/a
1106.602	n/a	REC_WORD	553301	wordpools/wasnorm_wordpool.txt	LTP088	ltpFR	4	6	1	LUNCH	849	n/a	n/a	0	n/a	n/a	n/a	n/a	n/a
1108.728	n/a	REC_WORD	554364	wordpools/wasnorm_wordpool.txt	LTP088	ltpFR	4	6	1	GYMNAST	675	n/a	n/a	1	n/a	n/a	n/a	n/a	n/a
1111.7	n/a	REC_WORD	555850	wordpools/wasnorm_wordpool.txt	LTP088	ltpFR	4	6	1	DOUGHNUT	490	n/a	n/a	0	n/a	n/a	n/a	n/a	n/a
1112.738	n/a	REC_WORD	556369	wordpools/wasnorm_wordpool.txt	LTP088	ltpFR	4	6	1	STRAWBERRY	1391	n/a	n/a	1	n/a	n/a	n/a	n/a	n/a
1114.878	n/a	REC_WORD	557439	wordpools/wasnorm_wordpool.txt	LTP088	ltpFR	4	6	1	TRAY	1498	n/a	n/a	0	n/a	n/a	n/a	n/a	n/a
1146.284	n/a	REC_WORD	573142	wordpools/wasnorm_wordpool.txt	LTP088	ltpFR	4	6	1	ROSE	1212	n/a	n/a	1	n/a	n/a	n/a	n/a	n/a
1148.078	n/a	REC_WORD	574039	wordpools/wasnorm_wordpool.txt	LTP088	ltpFR	4	6	1	EYELASH	546	n/a	n/a	0	n/a	n/a	n/a	n/a	n/a
1186.34	n/a	WORD	593170	wordpools/wasnorm_wordpool.txt	LTP088	ltpFR	4	7	1	MONSTER	912	n/a	n/a	1	0.422607421875	0.5869140625	0	lower	zerothre.ttf
1190.31	n/a	WORD	595155	wordpools/wasnorm_wordpool.txt	LTP088	ltpFR	4	7	1	MAP	865	n/a	n/a	0	0.422607421875	0.5869140625	0	lower	zerothre.ttf
1194.43	n/a	WORD	597215	wordpools/wasnorm_wordpool.txt	LTP088	ltpFR	4	7	0	INSECT	740	n/a	n/a	0	0.57763671875	0.412841796875	1	upper	amplitud.ttf
1198.344	n/a	WORD	599172	wordpools/wasnorm_wordpool.txt	LTP088	ltpFR	4	7	0	MOTH	920	n/a	n/a	0	0.57763671875	0.412841796875	1	upper	amplitud.ttf
1202.538	n/a	WORD	601269	wordpools/wasnorm_wordpool.txt	LTP088	ltpFR	4	7	0	DRUG	501	n/a	n/a	0	0.57763671875	0.412841796875	1	upper	amplitud.ttf
1206.65	n/a	WORD	603325	wordpools/wasnorm_wordpool.txt	LTP088	ltpFR	4	7	0	SENATOR	1268	n/a	n/a	0	0.57763671875	0.412841796875	1	upper	amplitud.ttf
1210.538	n/a	WORD	605269	wordpools/wasnorm_wordpool.txt	LTP088	ltpFR	4	7	0	STRAW	1390	n/a	n/a	0	0.57763671875	0.412841796875	1	upper	amplitud.ttf
1214.74	n/a	WORD	607370	wordpools/wasnorm_wordpool.txt	LTP088	ltpFR	4	7	1	RICE	1190	n/a	n/a	1	0.422607421875	0.5869140625	0	lower	zerothre.ttf
1218.886	n/a	WORD	609443	wordpools/wasnorm_wordpool.txt	LTP088	ltpFR	4	7	1	DUCK	504	n/a	n/a	1	0.422607421875	0.5869140625	0	lower	zerothre.ttf
1222.958	n/a	WORD	611479	wordpools/wasnorm_wordpool.txt	LTP088	ltpFR	4	7	1	LAKE	796	n/a	n/a	0	0.422607421875	0.5869140625	0	lower	zerothre.ttf
1227.16	n/a	WORD	613580	wordpools/wasnorm_wordpool.txt	LTP088	ltpFR	4	7	1	POLITICIAN	1099	n/a	n/a	1	0.422607421875	0.5869140625	0	lower	zerothre.ttf
1231.204	n/a	WORD	615602	wordpools/wasnorm_wordpool.txt	LTP088	ltpFR	4	7	0	OINTMENT	974	n/a	n/a	0	0.57763671875	0.412841796875	1	upper	amplitud.ttf
1235.192	n/a	WORD	617596	wordpools/wasnorm_wordpool.txt	LTP088	ltpFR	4	7	0	SLUG	1329	n/a	n/a	0	0.57763671875	0.412841796875	1	upper	amplitud.ttf
1239.112	n/a	WORD	619556	wordpools/wasnorm_wordpool.txt	LTP088	ltpFR	4	7	0	PAW	1029	n/a	n/a	0	0.57763671875	0.412841796875	1	upper	amplitud.ttf
1243.24	n/a	WORD	621620	wordpools/wasnorm_wordpool.txt	LTP088	ltpFR	4	7	1	DOG	480	n/a	n/a	1	0.422607421875	0.5869140625	0	lower	zerothre.ttf
1247.128	n/a	WORD	623564	wordpools/wasnorm_wordpool.txt	LTP088	ltpFR	4	7	1	SADDLE	1221	n/a	n/a	0	0.422607421875	0.5869140625	0	lower	zerothre.ttf
1252.93	n/a	REC_START	626465	n/a	LTP088	ltpFR	4	7	n/a	n/a	n/a	n/a	n/a	n/a	n/a	n/a	n/a	n/a	n/a
1254.232	n/a	REC_WORD	627116	wordpools/wasnorm_wordpool.txt	LTP088	ltpFR	4	7	1	DOG	480	n/a	n/a	1	n/a	n/a	n/a	n/a	n/a
1255.176	n/a	REC_WORD	627588	wordpools/wasnorm_wordpool.txt	LTP088	ltpFR	4	7	0	PAW	1029	n/a	n/a	0	n/a	n/a	n/a	n/a	n/a
1256.308	n/a	REC_WORD	628154	wordpools/wasnorm_wordpool.txt	LTP088	ltpFR	4	7	1	SADDLE	1221	n/a	n/a	0	n/a	n/a	n/a	n/a	n/a
1257.544	n/a	REC_WORD	628772	wordpools/wasnorm_wordpool.txt	LTP088	ltpFR	4	7	1	POLITICIAN	1099	n/a	n/a	1	n/a	n/a	n/a	n/a	n/a
1259.092	n/a	REC_WORD	629546	wordpools/wasnorm_wordpool.txt	LTP088	ltpFR	4	7	0	SENATOR	1268	n/a	n/a	0	n/a	n/a	n/a	n/a	n/a
1260.838	n/a	REC_WORD	630419	wordpools/wasnorm_wordpool.txt	LTP088	ltpFR	4	7	0	OINTMENT	974	n/a	n/a	0	n/a	n/a	n/a	n/a	n/a
1262.3	n/a	REC_WORD	631150	wordpools/wasnorm_wordpool.txt	LTP088	ltpFR	4	7	1	MONSTER	912	n/a	n/a	1	n/a	n/a	n/a	n/a	n/a
1263.94	n/a	REC_WORD	631970	wordpools/wasnorm_wordpool.txt	LTP088	ltpFR	4	7	1	MAP	865	n/a	n/a	0	n/a	n/a	n/a	n/a	n/a
1265.368	n/a	REC_WORD	632684	wordpools/wasnorm_wordpool.txt	LTP088	ltpFR	4	7	0	INSECT	740	n/a	n/a	0	n/a	n/a	n/a	n/a	n/a
1266.824	n/a	REC_WORD	633412	wordpools/wasnorm_wordpool.txt	LTP088	ltpFR	4	7	0	MOTH	920	n/a	n/a	0	n/a	n/a	n/a	n/a	n/a
1268.316	n/a	REC_WORD	634158	wordpools/wasnorm_wordpool.txt	LTP088	ltpFR	4	7	1	DUCK	504	n/a	n/a	1	n/a	n/a	n/a	n/a	n/a
1269.708	n/a	REC_WORD	634854	wordpools/wasnorm_wordpool.txt	LTP088	ltpFR	4	7	1	LAKE	796	n/a	n/a	0	n/a	n/a	n/a	n/a	n/a
1305.456	n/a	REC_WORD	652728	wordpools/wasnorm_wordpool.txt	LTP088	ltpFR	4	7	1	SADDLE	1221	n/a	n/a	0	n/a	n/a	n/a	n/a	n/a
1337.974	n/a	WORD	668987	wordpools/wasnorm_wordpool.txt	LTP088	ltpFR	4	8	0	HAM	678	n/a	n/a	1	0.57763671875	0.412841796875	1	upper	amplitud.ttf
1342.078	n/a	WORD	671039	wordpools/wasnorm_wordpool.txt	LTP088	ltpFR	4	8	0	DUST	508	n/a	n/a	0	0.57763671875	0.412841796875	1	upper	amplitud.ttf
1346.172	n/a	WORD	673086	wordpools/wasnorm_wordpool.txt	LTP088	ltpFR	4	8	0	FIREPLACE	570	n/a	n/a	1	0.57763671875	0.412841796875	1	upper	amplitud.ttf
1350.276	n/a	WORD	675138	wordpools/wasnorm_wordpool.txt	LTP088	ltpFR	4	8	0	PEN	1041	n/a	n/a	1	0.57763671875	0.412841796875	1	upper	amplitud.ttf
1354.188	n/a	WORD	677094	wordpools/wasnorm_wordpool.txt	LTP088	ltpFR	4	8	0	BASKET	95	n/a	n/a	0	0.57763671875	0.412841796875	1	upper	amplitud.ttf
1358.002	n/a	WORD	679001	wordpools/wasnorm_wordpool.txt	LTP088	ltpFR	4	8	0	TRUMPET	1513	n/a	n/a	1	0.57763671875	0.412841796875	1	upper	amplitud.ttf
1361.956	n/a	WORD	680978	wordpools/wasnorm_wordpool.txt	LTP088	ltpFR	4	8	0	TOY	1492	n/a	n/a	0	0.57763671875	0.412841796875	1	upper	amplitud.ttf
1365.826	n/a	WORD	682913	wordpools/wasnorm_wordpool.txt	LTP088	ltpFR	4	8	0	CHILD	299	n/a	n/a	1	0.57763671875	0.412841796875	1	upper	amplitud.ttf
1369.92	n/a	WORD	684960	wordpools/wasnorm_wordpool.txt	LTP088	ltpFR	4	8	0	BASEMENT	94	n/a	n/a	1	0.57763671875	0.412841796875	1	upper	amplitud.ttf
1373.858	n/a	WORD	686929	wordpools/wasnorm_wordpool.txt	LTP088	ltpFR	4	8	0	GHETTO	633	n/a	n/a	1	0.57763671875	0.412841796875	1	upper	amplitud.ttf
1377.962	n/a	WORD	688981	wordpools/wasnorm_wordpool.txt	LTP088	ltpFR	4	8	0	TILE	1468	n/a	n/a	0	0.57763671875	0.412841796875	1	upper	amplitud.ttf
1382.074	n/a	WORD	691037	wordpools/wasnorm_wordpool.txt	LTP088	ltpFR	4	8	0	RUG	1215	n/a	n/a	1	0.57763671875	0.412841796875	1	upper	amplitud.ttf
1386.044	n/a	WORD	693022	wordpools/wasnorm_wordpool.txt	LTP088	ltpFR	4	8	0	COIN	343	n/a	n/a	0	0.57763671875	0.412841796875	1	upper	amplitud.ttf
1390.006	n/a	WORD	695003	wordpools/wasnorm_wordpool.txt	LTP088	ltpFR	4	8	0	BAND	78	n/a	n/a	1	0.57763671875	0.412841796875	1	upper	amplitud.ttf
1394.176	n/a	WORD	697088	wordpools/wasnorm_wordpool.txt	LTP088	ltpFR	4	8	0	SOFTBALL	1343	n/a	n/a	0	0.57763671875	0.412841796875	1	upper	amplitud.ttf
1398.322	n/a	WORD	699161	wordpools/wasnorm_wordpool.txt	LTP088	ltpFR	4	8	0	SCROLL	1257	n/a	n/a	1	0.57763671875	0.412841796875	1	upper	amplitud.ttf
1404.132	n/a	REC_START	702066	n/a	LTP088	ltpFR	4	8	n/a	n/a	n/a	n/a	n/a	n/a	n/a	n/a	n/a	n/a	n/a
1405.544	n/a	REC_WORD	702772	wordpools/wasnorm_wordpool.txt	LTP088	ltpFR	4	8	0	SCROLL	1257	n/a	n/a	1	n/a	n/a	n/a	n/a	n/a
1407.1	n/a	REC_WORD	703550	wordpools/wasnorm_wordpool.txt	LTP088	ltpFR	4	8	0	SOFTBALL	1343	n/a	n/a	0	n/a	n/a	n/a	n/a	n/a
1408.516	n/a	REC_WORD	704258	wordpools/wasnorm_wordpool.txt	LTP088	ltpFR	4	8	0	FIREPLACE	570	n/a	n/a	1	n/a	n/a	n/a	n/a	n/a
1410.298	n/a	REC_WORD	705149	wordpools/wasnorm_wordpool.txt	LTP088	ltpFR	4	8	0	DUST	508	n/a	n/a	0	n/a	n/a	n/a	n/a	n/a
1411.73	n/a	REC_WORD	705865	wordpools/wasnorm_wordpool.txt	LTP088	ltpFR	4	8	0	HAM	678	n/a	n/a	1	n/a	n/a	n/a	n/a	n/a
1412.976	n/a	REC_WORD	706488	wordpools/wasnorm_wordpool.txt	LTP088	ltpFR	4	8	0	TRUMPET	1513	n/a	n/a	1	n/a	n/a	n/a	n/a	n/a
1414.802	n/a	REC_WORD	707401	wordpools/wasnorm_wordpool.txt	LTP088	ltpFR	4	8	0	BAND	78	n/a	n/a	1	n/a	n/a	n/a	n/a	n/a
1416.648	n/a	REC_WORD	708324	wordpools/wasnorm_wordpool.txt	LTP088	ltpFR	4	8	0	CHILD	299	n/a	n/a	1	n/a	n/a	n/a	n/a	n/a
1419.168	n/a	REC_WORD	709584	wordpools/wasnorm_wordpool.txt	LTP088	ltpFR	4	8	0	TOY	1492	n/a	n/a	0	n/a	n/a	n/a	n/a	n/a
1422.236	n/a	REC_WORD	711118	wordpools/wasnorm_wordpool.txt	LTP088	ltpFR	4	8	0	BASEMENT	94	n/a	n/a	1	n/a	n/a	n/a	n/a	n/a
1423.508	n/a	REC_WORD	711754	wordpools/wasnorm_wordpool.txt	LTP088	ltpFR	4	8	0	TILE	1468	n/a	n/a	0	n/a	n/a	n/a	n/a	n/a
1425.128	n/a	REC_WORD	712564	wordpools/wasnorm_wordpool.txt	LTP088	ltpFR	4	8	0	RUG	1215	n/a	n/a	1	n/a	n/a	n/a	n/a	n/a
1428.316	n/a	REC_WORD	714158	wordpools/wasnorm_wordpool.txt	LTP088	ltpFR	4	8	0	GHETTO	633	n/a	n/a	1	n/a	n/a	n/a	n/a	n/a
1433.116	n/a	REC_WORD	716558	wordpools/wasnorm_wordpool.txt	LTP088	ltpFR	4	8	0	PEN	1041	n/a	n/a	1	n/a	n/a	n/a	n/a	n/a
1434.474	n/a	REC_WORD	717237	wordpools/wasnorm_wordpool.txt	LTP088	ltpFR	4	8	0	BASKET	95	n/a	n/a	0	n/a	n/a	n/a	n/a	n/a
1463.322	n/a	REC_WORD	731661	wordpools/wasnorm_wordpool.txt	LTP088	ltpFR	4	8	0	SOFTBALL	1343	n/a	n/a	0	n/a	n/a	n/a	n/a	n/a
1465.668	n/a	REC_WORD	732834	wordpools/wasnorm_wordpool.txt	LTP088	ltpFR	4	8	0	SCROLL	1257	n/a	n/a	1	n/a	n/a	n/a	n/a	n/a
1489.582	n/a	WORD	744791	wordpools/wasnorm_wordpool.txt	LTP088	ltpFR	4	9	-1	TROMBONE	1508	n/a	n/a	-1	1.0	1.0	1	upper	Verdana.ttf
1493.528	n/a	WORD	746764	wordpools/wasnorm_wordpool.txt	LTP088	ltpFR	4	9	-1	CELLO	268	n/a	n/a	-1	1.0	1.0	1	upper	Verdana.ttf
1497.516	n/a	WORD	748758	wordpools/wasnorm_wordpool.txt	LTP088	ltpFR	4	9	-1	FLUTE	585	n/a	n/a	-1	1.0	1.0	1	upper	Verdana.ttf
1501.694	n/a	WORD	750847	wordpools/wasnorm_wordpool.txt	LTP088	ltpFR	4	9	-1	AFRICA	9	n/a	n/a	-1	1.0	1.0	1	upper	Verdana.ttf
1505.606	n/a	WORD	752803	wordpools/wasnorm_wordpool.txt	LTP088	ltpFR	4	9	-1	ASH	44	n/a	n/a	-1	1.0	1.0	1	upper	Verdana.ttf
1509.552	n/a	WORD	754776	wordpools/wasnorm_wordpool.txt	LTP088	ltpFR	4	9	-1	DISC	473	n/a	n/a	-1	1.0	1.0	1	upper	Verdana.ttf
1513.498	n/a	WORD	756749	wordpools/wasnorm_wordpool.txt	LTP088	ltpFR	4	9	-1	BUG	187	n/a	n/a	-1	1.0	1.0	1	upper	Verdana.ttf
1517.526	n/a	WORD	758763	wordpools/wasnorm_wordpool.txt	LTP088	ltpFR	4	9	-1	NICOTINE	951	n/a	n/a	-1	1.0	1.0	1	upper	Verdana.ttf
1521.522	n/a	WORD	760761	wordpools/wasnorm_wordpool.txt	LTP088	ltpFR	4	9	-1	ROPE	1211	n/a	n/a	-1	1.0	1.0	1	upper	Verdana.ttf
1525.55	n/a	WORD	762775	wordpools/wasnorm_wordpool.txt	LTP088	ltpFR	4	9	-1	CANDIDATE	228	n/a	n/a	-1	1.0	1.0	1	upper	Verdana.ttf
1529.372	n/a	WORD	764686	wordpools/wasnorm_wordpool.txt	LTP088	ltpFR	4	9	-1	GOVERNOR	651	n/a	n/a	-1	1.0	1.0	1	upper	Verdana.ttf
1533.192	n/a	WORD	766596	wordpools/wasnorm_wordpool.txt	LTP088	ltpFR	4	9	-1	PICNIC	1060	n/a	n/a	-1	1.0	1.0	1	upper	Verdana.ttf
1537.262	n/a	WORD	768631	wordpools/wasnorm_wordpool.txt	LTP088	ltpFR	4	9	-1	SUN	1406	n/a	n/a	-1	1.0	1.0	1	upper	Verdana.ttf
1541.374	n/a	WORD	770687	wordpools/wasnorm_wordpool.txt	LTP088	ltpFR	4	9	-1	EARTH	515	n/a	n/a	-1	1.0	1.0	1	upper	Verdana.ttf
1545.378	n/a	WORD	772689	wordpools/wasnorm_wordpool.txt	LTP088	ltpFR	4	9	-1	INTESTINE	742	n/a	n/a	-1	1.0	1.0	1	upper	Verdana.ttf
1549.472	n/a	WORD	774736	wordpools/wasnorm_wordpool.txt	LTP088	ltpFR	4	9	-1	DRYER	503	n/a	n/a	-1	1.0	1.0	1	upper	Verdana.ttf
1555.2	n/a	REC_START	777600	n/a	LTP088	ltpFR	4	9	n/a	n/a	n/a	n/a	n/a	n/a	n/a	n/a	n/a	n/a	n/a
1556.236	n/a	REC_WORD	778118	wordpools/wasnorm_wordpool.txt	LTP088	ltpFR	4	9	-1	DRYER	503	n/a	n/a	-1	n/a	n/a	n/a	n/a	n/a
1557.304	n/a	REC_WORD	778652	wordpools/wasnorm_wordpool.txt	LTP088	ltpFR	4	9	-1	DISC	473	n/a	n/a	-1	n/a	n/a	n/a	n/a	n/a
1558.526	n/a	REC_WORD	779263	wordpools/wasnorm_wordpool.txt	LTP088	ltpFR	4	9	n/a	BULB	192	n/a	n/a	n/a	n/a	n/a	n/a	n/a	n/a
1559.534	n/a	REC_WORD	779767	wordpools/wasnorm_wordpool.txt	LTP088	ltpFR	4	9	-1	TROMBONE	1508	n/a	n/a	-1	n/a	n/a	n/a	n/a	n/a
1560.936	n/a	REC_WORD	780468	wordpools/wasnorm_wordpool.txt	LTP088	ltpFR	4	9	-1	CELLO	268	n/a	n/a	-1	n/a	n/a	n/a	n/a	n/a
1562.298	n/a	REC_WORD	781149	wordpools/wasnorm_wordpool.txt	LTP088	ltpFR	4	9	-1	FLUTE	585	n/a	n/a	-1	n/a	n/a	n/a	n/a	n/a
1565.372	n/a	REC_WORD	782686	wordpools/wasnorm_wordpool.txt	LTP088	ltpFR	4	9	-1	ROPE	1211	n/a	n/a	-1	n/a	n/a	n/a	n/a	n/a
1572.246	n/a	REC_WORD	786123	wordpools/wasnorm_wordpool.txt	LTP088	ltpFR	4	9	n/a	SMOKE	-1	n/a	n/a	n/a	n/a	n/a	n/a	n/a	n/a
1575.678	n/a	REC_WORD	787839	wordpools/wasnorm_wordpool.txt	LTP088	ltpFR	4	9	-1	SUN	1406	n/a	n/a	-1	n/a	n/a	n/a	n/a	n/a
1576.55	n/a	REC_WORD	788275	wordpools/wasnorm_wordpool.txt	LTP088	ltpFR	4	9	-1	EARTH	515	n/a	n/a	-1	n/a	n/a	n/a	n/a	n/a
1580.198	n/a	REC_WORD	790099	wordpools/wasnorm_wordpool.txt	LTP088	ltpFR	4	9	-1	CANDIDATE	228	n/a	n/a	-1	n/a	n/a	n/a	n/a	n/a
1581.4	n/a	REC_WORD	790700	wordpools/wasnorm_wordpool.txt	LTP088	ltpFR	4	9	-1	GOVERNOR	651	n/a	n/a	-1	n/a	n/a	n/a	n/a	n/a
1614.476	n/a	REC_WORD	807238	wordpools/wasnorm_wordpool.txt	LTP088	ltpFR	4	9	-1	PICNIC	1060	n/a	n/a	-1	n/a	n/a	n/a	n/a	n/a
1616.52	n/a	REC_WORD	808260	wordpools/wasnorm_wordpool.txt	LTP088	ltpFR	4	9	-1	INTESTINE	742	n/a	n/a	-1	n/a	n/a	n/a	n/a	n/a
1639.402	n/a	WORD	819701	wordpools/wasnorm_wordpool.txt	LTP088	ltpFR	4	10	0	STOCKING	1383	n/a	n/a	1	0.57763671875	0.412841796875	1	upper	amplitud.ttf
1643.232	n/a	WORD	821616	wordpools/wasnorm_wordpool.txt	LTP088	ltpFR	4	10	0	SLEIGH	1325	n/a	n/a	1	0.57763671875	0.412841796875	1	upper	amplitud.ttf
1647.434	n/a	WORD	823717	wordpools/wasnorm_wordpool.txt	LTP088	ltpFR	4	10	0	BUGGY	188	n/a	n/a	1	0.57763671875	0.412841796875	1	upper	amplitud.ttf
1651.422	n/a	WORD	825711	wordpools/wasnorm_wordpool.txt	LTP088	ltpFR	4	10	0	NURSERY	964	n/a	n/a	1	0.57763671875	0.412841796875	1	upper	amplitud.ttf
1655.234	n/a	WORD	827617	wordpools/wasnorm_wordpool.txt	LTP088	ltpFR	4	10	0	OBOE	969	n/a	n/a	1	0.57763671875	0.412841796875	1	upper	amplitud.ttf
1659.346	n/a	WORD	829673	wordpools/wasnorm_wordpool.txt	LTP088	ltpFR	4	10	0	JUVENILE	767	n/a	n/a	1	0.57763671875	0.412841796875	1	upper	amplitud.ttf
1663.224	n/a	WORD	831612	wordpools/wasnorm_wordpool.txt	LTP088	ltpFR	4	10	0	COURSE	390	n/a	n/a	0	0.57763671875	0.412841796875	1	upper	amplitud.ttf
1667.162	n/a	WORD	833581	wordpools/wasnorm_wordpool.txt	LTP088	ltpFR	4	10	0	BUS	201	n/a	n/a	1	0.57763671875	0.412841796875	1	upper	amplitud.ttf
1671.0	n/a	WORD	835500	wordpools/wasnorm_wordpool.txt	LTP088	ltpFR	4	10	0	RUST	1219	n/a	n/a	0	0.57763671875	0.412841796875	1	upper	amplitud.ttf
1674.92	n/a	WORD	837460	wordpools/wasnorm_wordpool.txt	LTP088	ltpFR	4	10	0	BOOK	149	n/a	n/a	1	0.57763671875	0.412841796875	1	upper	amplitud.ttf
1678.94	n/a	WORD	839470	wordpools/wasnorm_wordpool.txt	LTP088	ltpFR	4	10	0	BASSINET	97	n/a	n/a	1	0.57763671875	0.412841796875	1	upper	amplitud.ttf
1683.086	n/a	WORD	841543	wordpools/wasnorm_wordpool.txt	LTP088	ltpFR	4	10	0	BANJO	82	n/a	n/a	1	0.57763671875	0.412841796875	1	upper	amplitud.ttf
1687.156	n/a	WORD	843578	wordpools/wasnorm_wordpool.txt	LTP088	ltpFR	4	10	0	CROW	414	n/a	n/a	0	0.57763671875	0.412841796875	1	upper	amplitud.ttf
1691.302	n/a	WORD	845651	wordpools/wasnorm_wordpool.txt	LTP088	ltpFR	4	10	0	MICROSCOPE	891	n/a	n/a	1	0.57763671875	0.412841796875	1	upper	amplitud.ttf
1695.172	n/a	WORD	847586	wordpools/wasnorm_wordpool.txt	LTP088	ltpFR	4	10	0	MAJOR	859	n/a	n/a	1	0.57763671875	0.412841796875	1	upper	amplitud.ttf
1699.01	n/a	WORD	849505	wordpools/wasnorm_wordpool.txt	LTP088	ltpFR	4	10	0	CARPET	247	n/a	n/a	1	0.57763671875	0.412841796875	1	upper	amplitud.ttf
1705.086	n/a	REC_START	852543	n/a	LTP088	ltpFR	4	10	n/a	n/a	n/a	n/a	n/a	n/a	n/a	n/a	n/a	n/a	n/a
1705.84	n/a	REC_WORD	852920	wordpools/wasnorm_wordpool.txt	LTP088	ltpFR	4	10	0	NURSERY	964	n/a	n/a	1	n/a	n/a	n/a	n/a	n/a
1707.096	n/a	REC_WORD	853548	wordpools/wasnorm_wordpool.txt	LTP088	ltpFR	4	10	0	CARPET	247	n/a	n/a	1	n/a	n/a	n/a	n/a	n/a
1708.684	n/a	REC_WORD	854342	wordpools/wasnorm_wordpool.txt	LTP088	ltpFR	4	10	0	JUVENILE	767	n/a	n/a	1	n/a	n/a	n/a	n/a	n/a
1712.864	n/a	REC_WORD	856432	wordpools/wasnorm_wordpool.txt	LTP088	ltpFR	4	10	0	OBOE	969	n/a	n/a	1	n/a	n/a	n/a	n/a	n/a
1714.51	n/a	REC_WORD	857255	wordpools/wasnorm_wordpool.txt	LTP088	ltpFR	4	10	0	BASSINET	97	n/a	n/a	1	n/a	n/a	n/a	n/a	n/a
1717.154	n/a	REC_WORD	858577	wordpools/wasnorm_wordpool.txt	LTP088	ltpFR	4	10	0	MAJOR	859	n/a	n/a	1	n/a	n/a	n/a	n/a	n/a
1719.03	n/a	REC_WORD	859515	wordpools/wasnorm_wordpool.txt	LTP088	ltpFR	4	10	0	COURSE	390	n/a	n/a	0	n/a	n/a	n/a	n/a	n/a
1723.14	n/a	REC_WORD	861570	wordpools/wasnorm_wordpool.txt	LTP088	ltpFR	4	10	0	BOOK	149	n/a	n/a	1	n/a	n/a	n/a	n/a	n/a
1725.126	n/a	REC_WORD	862563	wordpools/wasnorm_wordpool.txt	LTP088	ltpFR	4	10	0	SLEIGH	1325	n/a	n/a	1	n/a	n/a	n/a	n/a	n/a
1726.472	n/a	REC_WORD	863236	wordpools/wasnorm_wordpool.txt	LTP088	ltpFR	4	10	0	STOCKING	1383	n/a	n/a	1	n/a	n/a	n/a	n/a	n/a
1728.134	n/a	REC_WORD	864067	wordpools/wasnorm_wordpool.txt	LTP088	ltpFR	4	10	0	BUS	201	n/a	n/a	1	n/a	n/a	n/a	n/a	n/a
1729.372	n/a	REC_WORD	864686	wordpools/wasnorm_wordpool.txt	LTP088	ltpFR	4	10	0	RUST	1219	n/a	n/a	0	n/a	n/a	n/a	n/a	n/a
1731.178	n/a	REC_WORD	865589	wordpools/wasnorm_wordpool.txt	LTP088	ltpFR	4	10	0	BUGGY	188	n/a	n/a	1	n/a	n/a	n/a	n/a	n/a
1735.522	n/a	REC_WORD	867761	wordpools/wasnorm_wordpool.txt	LTP088	ltpFR	4	10	0	CARPET	247	n/a	n/a	1	n/a	n/a	n/a	n/a	n/a
1748.174	n/a	REC_WORD	874087	wordpools/wasnorm_wordpool.txt	LTP088	ltpFR	4	10	0	MICROSCOPE	891	n/a	n/a	1	n/a	n/a	n/a	n/a	n/a
1765.14	n/a	REC_WORD	882570	wordpools/wasnorm_wordpool.txt	LTP088	ltpFR	4	10	0	BANJO	82	n/a	n/a	1	n/a	n/a	n/a	n/a	n/a
1789.964	n/a	WORD	894982	wordpools/wasnorm_wordpool.txt	LTP088	ltpFR	4	11	1	NOVEL	960	n/a	n/a	0	0.422607421875	0.5869140625	0	lower	zerothre.ttf
1794.05	n/a	WORD	897025	wordpools/wasnorm_wordpool.txt	LTP088	ltpFR	4	11	1	BINDER	127	n/a	n/a	0	0.422607421875	0.5869140625	0	lower	zerothre.ttf
1797.878	n/a	WORD	898939	wordpools/wasnorm_wordpool.txt	LTP088	ltpFR	4	11	1	COOK	372	n/a	n/a	1	0.422607421875	0.5869140625	0	lower	zerothre.ttf
1801.716	n/a	WORD	900858	wordpools/wasnorm_wordpool.txt	LTP088	ltpFR	4	11	1	CORN	381	n/a	n/a	1	0.422607421875	0.5869140625	0	lower	zerothre.ttf
1805.812	n/a	WORD	902906	wordpools/wasnorm_wordpool.txt	LTP088	ltpFR	4	11	1	POND	1101	n/a	n/a	1	0.422607421875	0.5869140625	0	lower	zerothre.ttf
1809.774	n/a	WORD	904887	wordpools/wasnorm_wordpool.txt	LTP088	ltpFR	4	11	1	RIDER	1191	n/a	n/a	1	0.422607421875	0.5869140625	0	lower	zerothre.ttf
1813.876	n/a	WORD	906938	wordpools/wasnorm_wordpool.txt	LTP088	ltpFR	4	11	1	COCKTAIL	338	n/a	n/a	0	0.422607421875	0.5869140625	0	lower	zerothre.ttf
1817.73	n/a	WORD	908865	wordpools/wasnorm_wordpool.txt	LTP088	ltpFR	4	11	1	TELEVISION	1447	n/a	n/a	0	0.422607421875	0.5869140625	0	lower	zerothre.ttf
1821.818	n/a	WORD	910909	wordpools/wasnorm_wordpool.txt	LTP088	ltpFR	4	11	1	STALLION	1369	n/a	n/a	1	0.422607421875	0.5869140625	0	lower	zerothre.ttf
1825.704	n/a	WORD	912852	wordpools/wasnorm_wordpool.txt	LTP088	ltpFR	4	11	1	SCREWDRIVER	1255	n/a	n/a	0	0.422607421875	0.5869140625	0	lower	zerothre.ttf
1829.752	n/a	WORD	914876	wordpools/wasnorm_wordpool.txt	LTP088	ltpFR	4	11	1	JET	756	n/a	n/a	1	0.422607421875	0.5869140625	0	lower	zerothre.ttf
1833.73	n/a	WORD	916865	wordpools/wasnorm_wordpool.txt	LTP088	ltpFR	4	11	1	STEWARDESS	1381	n/a	n/a	1	0.422607421875	0.5869140625	0	lower	zerothre.ttf
1837.826	n/a	WORD	918913	wordpools/wasnorm_wordpool.txt	LTP088	ltpFR	4	11	1	SALMON	1227	n/a	n/a	1	0.422607421875	0.5869140625	0	lower	zerothre.ttf
1841.92	n/a	WORD	920960	wordpools/wasnorm_wordpool.txt	LTP088	ltpFR	4	11	1	BALLOT	76	n/a	n/a	0	0.422607421875	0.5869140625	0	lower	zerothre.ttf
1845.958	n/a	WORD	922979	wordpools/wasnorm_wordpool.txt	LTP088	ltpFR	4	11	1	WOMAN	1620	n/a	n/a	1	0.422607421875	0.5869140625	0	lower	zerothre.ttf
1849.844	n/a	WORD	924922	wordpools/wasnorm_wordpool.txt	LTP088	ltpFR	4	11	1	ATOM	55	n/a	n/a	0	0.422607421875	0.5869140625	0	lower	zerothre.ttf
1855.68	n/a	REC_START	927840	n/a	LTP088	ltpFR	4	11	n/a	n/a	n/a	n/a	n/a	n/a	n/a	n/a	n/a	n/a	n/a
1856.648	n/a	REC_WORD	928324	wordpools/wasnorm_wordpool.txt	LTP088	ltpFR	4	11	1	ATOM	55	n/a	n/a	0	n/a	n/a	n/a	n/a	n/a
1857.496	n/a	REC_WORD	928748	wordpools/wasnorm_wordpool.txt	LTP088	ltpFR	4	11	1	BALLOT	76	n/a	n/a	0	n/a	n/a	n/a	n/a	n/a
1858.328	n/a	REC_WORD	929164	wordpools/wasnorm_wordpool.txt	LTP088	ltpFR	4	11	1	WOMAN	1620	n/a	n/a	1	n/a	n/a	n/a	n/a	n/a
1859.346	n/a	REC_WORD	929673	wordpools/wasnorm_wordpool.txt	LTP088	ltpFR	4	11	1	NOVEL	960	n/a	n/a	0	n/a	n/a	n/a	n/a	n/a
1860.554	n/a	REC_WORD	930277	wordpools/wasnorm_wordpool.txt	LTP088	ltpFR	4	11	1	JET	756	n/a	n/a	1	n/a	n/a	n/a	n/a	n/a
1861.61	n/a	REC_WORD	930805	wordpools/wasnorm_wordpool.txt	LTP088	ltpFR	4	11	1	STEWARDESS	1381	n/a	n/a	1	n/a	n/a	n/a	n/a	n/a
1862.892	n/a	REC_WORD	931446	wordpools/wasnorm_wordpool.txt	LTP088	ltpFR	4	11	1	POND	1101	n/a	n/a	1	n/a	n/a	n/a	n/a	n/a
1863.776	n/a	REC_WORD	931888	wordpools/wasnorm_wordpool.txt	LTP088	ltpFR	4	11	1	STALLION	1369	n/a	n/a	1	n/a	n/a	n/a	n/a	n/a
1865.272	n/a	REC_WORD	932636	wordpools/wasnorm_wordpool.txt	LTP088	ltpFR	4	11	1	RIDER	1191	n/a	n/a	1	n/a	n/a	n/a	n/a	n/a
1866.43	n/a	REC_WORD	933215	wordpools/wasnorm_wordpool.txt	LTP088	ltpFR	4	11	1	COCKTAIL	338	n/a	n/a	0	n/a	n/a	n/a	n/a	n/a
1867.806	n/a	REC_WORD	933903	wordpools/wasnorm_wordpool.txt	LTP088	ltpFR	4	11	1	SCREWDRIVER	1255	n/a	n/a	0	n/a	n/a	n/a	n/a	n/a
1871.534	n/a	REC_WORD	935767	wordpools/wasnorm_wordpool.txt	LTP088	ltpFR	4	11	1	COOK	372	n/a	n/a	1	n/a	n/a	n/a	n/a	n/a
1872.566	n/a	REC_WORD	936283	wordpools/wasnorm_wordpool.txt	LTP088	ltpFR	4	11	1	CORN	381	n/a	n/a	1	n/a	n/a	n/a	n/a	n/a
1873.872	n/a	REC_WORD	936936	wordpools/wasnorm_wordpool.txt	LTP088	ltpFR	4	11	1	SALMON	1227	n/a	n/a	1	n/a	n/a	n/a	n/a	n/a
1875.31	n/a	REC_WORD	937655	wordpools/wasnorm_wordpool.txt	LTP088	ltpFR	4	11	1	TELEVISION	1447	n/a	n/a	0	n/a	n/a	n/a	n/a	n/a
1877.046	n/a	REC_WORD	938523	wordpools/wasnorm_wordpool.txt	LTP088	ltpFR	4	11	1	WOMAN	1620	n/a	n/a	1	n/a	n/a	n/a	n/a	n/a
1941.33	n/a	WORD	970665	wordpools/wasnorm_wordpool.txt	LTP088	ltpFR	4	12	0	DWARF	510	n/a	n/a	1	0.57763671875	0.412841796875	1	upper	amplitud.ttf
1945.16	n/a	WORD	972580	wordpools/wasnorm_wordpool.txt	LTP088	ltpFR	4	12	0	ELBOW	520	n/a	n/a	1	0.57763671875	0.412841796875	1	upper	amplitud.ttf
1949.072	n/a	WORD	974536	wordpools/wasnorm_wordpool.txt	LTP088	ltpFR	4	12	0	LAMB	797	n/a	n/a	1	0.57763671875	0.412841796875	1	upper	amplitud.ttf
1953.2	n/a	WORD	976600	wordpools/wasnorm_wordpool.txt	LTP088	ltpFR	4	12	1	CREATURE	403	n/a	n/a	1	0.422607421875	0.5869140625	0	lower	zerothre.ttf
1957.304	n/a	WORD	978652	wordpools/wasnorm_wordpool.txt	LTP088	ltpFR	4	12	1	SALOON	1228	n/a	n/a	0	0.422607421875	0.5869140625	0	lower	zerothre.ttf
1961.358	n/a	WORD	980679	wordpools/wasnorm_wordpool.txt	LTP088	ltpFR	4	12	0	BRANDY	169	n/a	n/a	0	0.57763671875	0.412841796875	1	upper	amplitud.ttf
1965.47	n/a	WORD	982735	wordpools/wasnorm_wordpool.txt	LTP088	ltpFR	4	12	0	TOMBSTONE	1478	n/a	n/a	1	0.57763671875	0.412841796875	1	upper	amplitud.ttf
1969.656	n/a	WORD	984828	wordpools/wasnorm_wordpool.txt	LTP088	ltpFR	4	12	0	MINK	897	n/a	n/a	1	0.57763671875	0.412841796875	1	upper	amplitud.ttf
1973.568	n/a	WORD	986784	wordpools/wasnorm_wordpool.txt	LTP088	ltpFR	4	12	0	GIRAFFE	636	n/a	n/a	1	0.57763671875	0.412841796875	1	upper	amplitud.ttf
1977.48	n/a	WORD	988740	wordpools/wasnorm_wordpool.txt	LTP088	ltpFR	4	12	0	ARM	38	n/a	n/a	1	0.57763671875	0.412841796875	1	upper	amplitud.ttf
1981.592	n/a	WORD	990796	wordpools/wasnorm_wordpool.txt	LTP088	ltpFR	4	12	1	ROBE	1198	n/a	n/a	0	0.422607421875	0.5869140625	0	lower	zerothre.ttf
1985.688	n/a	WORD	992844	wordpools/wasnorm_wordpool.txt	LTP088	ltpFR	4	12	1	DONOR	485	n/a	n/a	1	0.422607421875	0.5869140625	0	lower	zerothre.ttf
1989.56	n/a	WORD	994780	wordpools/wasnorm_wordpool.txt	LTP088	ltpFR	4	12	1	BULLY	196	n/a	n/a	1	0.422607421875	0.5869140625	0	lower	zerothre.ttf
1993.38	n/a	WORD	996690	wordpools/wasnorm_wordpool.txt	LTP088	ltpFR	4	12	1	CLIPPERS	324	n/a	n/a	0	0.422607421875	0.5869140625	0	lower	zerothre.ttf
1997.358	n/a	WORD	998679	wordpools/wasnorm_wordpool.txt	LTP088	ltpFR	4	12	1	SHEARS	1276	n/a	n/a	0	0.422607421875	0.5869140625	0	lower	zerothre.ttf
2001.246	n/a	WORD	1000623	wordpools/wasnorm_wordpool.txt	LTP088	ltpFR	4	12	1	POT	1114	n/a	n/a	0	0.422607421875	0.5869140625	0	lower	zerothre.ttf
2007.214	n/a	REC_START	1003607	n/a	LTP088	ltpFR	4	12	n/a	n/a	n/a	n/a	n/a	n/a	n/a	n/a	n/a	n/a	n/a
2008.098	n/a	REC_WORD	1004049	wordpools/wasnorm_wordpool.txt	LTP088	ltpFR	4	12	1	POT	1114	n/a	n/a	0	n/a	n/a	n/a	n/a	n/a
2009.174	n/a	REC_WORD	1004587	wordpools/wasnorm_wordpool.txt	LTP088	ltpFR	4	12	1	DONOR	485	n/a	n/a	1	n/a	n/a	n/a	n/a	n/a
2010.162	n/a	REC_WORD	1005081	wordpools/wasnorm_wordpool.txt	LTP088	ltpFR	4	12	1	CLIPPERS	324	n/a	n/a	0	n/a	n/a	n/a	n/a	n/a
2011.26	n/a	REC_WORD	1005630	wordpools/wasnorm_wordpool.txt	LTP088	ltpFR	4	12	1	SHEARS	1276	n/a	n/a	0	n/a	n/a	n/a	n/a	n/a
2012.792	n/a	REC_WORD	1006396	wordpools/wasnorm_wordpool.txt	LTP088	ltpFR	4	12	0	DWARF	510	n/a	n/a	1	n/a	n/a	n/a	n/a	n/a
2014.214	n/a	REC_WORD	1007107	wordpools/wasnorm_wordpool.txt	LTP088	ltpFR	4	12	0	BRANDY	169	n/a	n/a	0	n/a	n/a	n/a	n/a	n/a
2015.74	n/a	REC_WORD	1007870	wordpools/wasnorm_wordpool.txt	LTP088	ltpFR	4	12	0	TOMBSTONE	1478	n/a	n/a	1	n/a	n/a	n/a	n/a	n/a
2024.59	n/a	REC_WORD	1012295	wordpools/wasnorm_wordpool.txt	LTP088	ltpFR	4	12	0	LAMB	797	n/a	n/a	1	n/a	n/a	n/a	n/a	n/a
2028.402	n/a	REC_WORD	1014201	wordpools/wasnorm_wordpool.txt	LTP088	ltpFR	4	12	0	ELBOW	520	n/a	n/a	1	n/a	n/a	n/a	n/a	n/a
2029.578	n/a	REC_WORD	1014789	wordpools/wasnorm_wordpool.txt	LTP088	ltpFR	4	12	0	ARM	38	n/a	n/a	1	n/a	n/a	n/a	n/a	n/a
2032.806	n/a	REC_WORD	1016403	wordpools/wasnorm_wordpool.txt	LTP088	ltpFR	4	12	n/a	CAPE	237	n/a	n/a	n/a	n/a	n/a	n/a	n/a	n/a
2034.726	n/a	REC_WORD	1017363	wordpools/wasnorm_wordpool.txt	LTP088	ltpFR	4	12	0	GIRAFFE	636	n/a	n/a	1	n/a	n/a	n/a	n/a	n/a
2036.522	n/a	REC_WORD	1018261	wordpools/wasnorm_wordpool.txt	LTP088	ltpFR	4	12	0	MINK	897	n/a	n/a	1	n/a	n/a	n/a	n/a	n/a
2043.732	n/a	REC_WORD	1021866	wordpools/wasnorm_wordpool.txt	LTP088	ltpFR	4	12	1	BULLY	196	n/a	n/a	1	n/a	n/a	n/a	n/a	n/a
2051.05	n/a	REC_WORD	1025525	wordpools/wasnorm_wordpool.txt	LTP088	ltpFR	4	12	1	SALOON	1228	n/a	n/a	0	n/a	n/a	n/a	n/a	n/a
2082.81	n/a	REST_REWET	1041405	n/a	LTP088	ltpFR	4	12	n/a	n/a	n/a	n/a	n/a	n/a	n/a	n/a	n/a	n/a	n/a
2494.646	n/a	WORD	1247323	wordpools/wasnorm_wordpool.txt	LTP088	ltpFR	4	13	0	SUPERMARKET	1409	n/a	n/a	1	0.57763671875	0.412841796875	1	upper	amplitud.ttf
2498.532	n/a	WORD	1249266	wordpools/wasnorm_wordpool.txt	LTP088	ltpFR	4	13	0	CANARY	227	n/a	n/a	0	0.57763671875	0.412841796875	1	upper	amplitud.ttf
2502.628	n/a	WORD	1251314	wordpools/wasnorm_wordpool.txt	LTP088	ltpFR	4	13	1	REGISTER	1180	n/a	n/a	0	0.422607421875	0.5869140625	0	lower	zerothre.ttf
2506.532	n/a	WORD	1253266	wordpools/wasnorm_wordpool.txt	LTP088	ltpFR	4	13	1	TREASURE	1500	n/a	n/a	0	0.422607421875	0.5869140625	0	lower	zerothre.ttf
2510.544	n/a	WORD	1255272	wordpools/wasnorm_wordpool.txt	LTP088	ltpFR	4	13	1	NECKLACE	940	n/a	n/a	0	0.422607421875	0.5869140625	0	lower	zerothre.ttf
2514.698	n/a	WORD	1257349	wordpools/wasnorm_wordpool.txt	LTP088	ltpFR	4	13	1	SUPERVISOR	1410	n/a	n/a	1	0.422607421875	0.5869140625	0	lower	zerothre.ttf
2518.6	n/a	WORD	1259300	wordpools/wasnorm_wordpool.txt	LTP088	ltpFR	4	13	0	FLOUR	583	n/a	n/a	0	0.57763671875	0.412841796875	1	upper	amplitud.ttf
2522.722	n/a	WORD	1261361	wordpools/wasnorm_wordpool.txt	LTP088	ltpFR	4	13	0	BREAD	170	n/a	n/a	0	0.57763671875	0.412841796875	1	upper	amplitud.ttf
2526.916	n/a	WORD	1263458	wordpools/wasnorm_wordpool.txt	LTP088	ltpFR	4	13	0	PIGEON	1065	n/a	n/a	0	0.57763671875	0.412841796875	1	upper	amplitud.ttf
2531.02	n/a	WORD	1265510	wordpools/wasnorm_wordpool.txt	LTP088	ltpFR	4	13	1	VEGETABLE	1552	n/a	n/a	1	0.422607421875	0.5869140625	0	lower	zerothre.ttf
2535.074	n/a	WORD	1267537	wordpools/wasnorm_wordpool.txt	LTP088	ltpFR	4	13	1	WATER	1594	n/a	n/a	0	0.422607421875	0.5869140625	0	lower	zerothre.ttf
2539.11	n/a	WORD	1269555	wordpools/wasnorm_wordpool.txt	LTP088	ltpFR	4	13	1	CASHIER	254	n/a	n/a	1	0.422607421875	0.5869140625	0	lower	zerothre.ttf
2542.94	n/a	WORD	1271470	wordpools/wasnorm_wordpool.txt	LTP088	ltpFR	4	13	1	INSTRUCTOR	741	n/a	n/a	1	0.422607421875	0.5869140625	0	lower	zerothre.ttf
2547.11	n/a	WORD	1273555	wordpools/wasnorm_wordpool.txt	LTP088	ltpFR	4	13	0	STY	1397	n/a	n/a	0	0.57763671875	0.412841796875	1	upper	amplitud.ttf
2551.164	n/a	WORD	1275582	wordpools/wasnorm_wordpool.txt	LTP088	ltpFR	4	13	0	GIRL	637	n/a	n/a	1	0.57763671875	0.412841796875	1	upper	amplitud.ttf
2555.25	n/a	WORD	1277625	wordpools/wasnorm_wordpool.txt	LTP088	ltpFR	4	13	0	VENT	1556	n/a	n/a	0	0.57763671875	0.412841796875	1	upper	amplitud.ttf
2561.17	n/a	REC_START	1280585	n/a	LTP088	ltpFR	4	13	n/a	n/a	n/a	n/a	n/a	n/a	n/a	n/a	n/a	n/a	n/a
2561.832	n/a	REC_WORD	1280916	wordpools/wasnorm_wordpool.txt	LTP088	ltpFR	4	13	0	SUPERMARKET	1409	n/a	n/a	1	n/a	n/a	n/a	n/a	n/a
2563.42	n/a	REC_WORD	1281710	wordpools/wasnorm_wordpool.txt	LTP088	ltpFR	4	13	1	REGISTER	1180	n/a	n/a	0	n/a	n/a	n/a	n/a	n/a
2564.526	n/a	REC_WORD	1282263	wordpools/wasnorm_wordpool.txt	LTP088	ltpFR	4	13	1	CASHIER	254	n/a	n/a	1	n/a	n/a	n/a	n/a	n/a
2565.734	n/a	REC_WORD	1282867	wordpools/wasnorm_wordpool.txt	LTP088	ltpFR	4	13	n/a	MANAGER	863	n/a	n/a	n/a	n/a	n/a	n/a	n/a	n/a
2566.946	n/a	REC_WORD	1283473	wordpools/wasnorm_wordpool.txt	LTP088	ltpFR	4	13	1	SUPERVISOR	1410	n/a	n/a	1	n/a	n/a	n/a	n/a	n/a
2568.518	n/a	REC_WORD	1284259	wordpools/wasnorm_wordpool.txt	LTP088	ltpFR	4	13	0	CANARY	227	n/a	n/a	0	n/a	n/a	n/a	n/a	n/a
2569.784	n/a	REC_WORD	1284892	wordpools/wasnorm_wordpool.txt	LTP088	ltpFR	4	13	0	PIGEON	1065	n/a	n/a	0	n/a	n/a	n/a	n/a	n/a
2571.262	n/a	REC_WORD	1285631	wordpools/wasnorm_wordpool.txt	LTP088	ltpFR	4	13	0	VENT	1556	n/a	n/a	0	n/a	n/a	n/a	n/a	n/a
2572.988	n/a	REC_WORD	1286494	wordpools/wasnorm_wordpool.txt	LTP088	ltpFR	4	13	1	VEGETABLE	1552	n/a	n/a	1	n/a	n/a	n/a	n/a	n/a
2574.204	n/a	REC_WORD	1287102	wordpools/wasnorm_wordpool.txt	LTP088	ltpFR	4	13	0	FLOUR	583	n/a	n/a	0	n/a	n/a	n/a	n/a	n/a
2575.762	n/a	REC_WORD	1287881	wordpools/wasnorm_wordpool.txt	LTP088	ltpFR	4	13	0	BREAD	170	n/a	n/a	0	n/a	n/a	n/a	n/a	n/a
2577.228	n/a	REC_WORD	1288614	wordpools/wasnorm_wordpool.txt	LTP088	ltpFR	4	13	1	WATER	1594	n/a	n/a	0	n/a	n/a	n/a	n/a	n/a
2582.306	n/a	REC_WORD	1291153	wordpools/wasnorm_wordpool.txt	LTP088	ltpFR	4	13	0	STY	1397	n/a	n/a	0	n/a	n/a	n/a	n/a	n/a
2583.802	n/a	REC_WORD	1291901	wordpools/wasnorm_wordpool.txt	LTP088	ltpFR	4	13	0	GIRL	637	n/a	n/a	1	n/a	n/a	n/a	n/a	n/a
2589.524	n/a	REC_WORD	1294762	wordpools/wasnorm_wordpool.txt	LTP088	ltpFR	4	13	n/a	JEWEL	757	n/a	n/a	n/a	n/a	n/a	n/a	n/a	n/a
2590.698	n/a	REC_WORD	1295349	wordpools/wasnorm_wordpool.txt	LTP088	ltpFR	4	13	1	TREASURE	1500	n/a	n/a	0	n/a	n/a	n/a	n/a	n/a
2645.964	n/a	WORD	1322982	wordpools/wasnorm_wordpool.txt	LTP088	ltpFR	4	14	-1	MARGARINE	868	n/a	n/a	-1	1.0	1.0	1	upper	Verdana.ttf
2649.884	n/a	WORD	1324942	wordpools/wasnorm_wordpool.txt	LTP088	ltpFR	4	14	-1	WINDSHIELD	1612	n/a	n/a	-1	1.0	1.0	1	upper	Verdana.ttf
2653.88	n/a	WORD	1326940	wordpools/wasnorm_wordpool.txt	LTP088	ltpFR	4	14	-1	HANDCUFFS	685	n/a	n/a	-1	1.0	1.0	1	upper	Verdana.ttf
2657.882	n/a	WORD	1328941	wordpools/wasnorm_wordpool.txt	LTP088	ltpFR	4	14	-1	HOE	711	n/a	n/a	-1	1.0	1.0	1	upper	Verdana.ttf
2662.062	n/a	WORD	1331031	wordpools/wasnorm_wordpool.txt	LTP088	ltpFR	4	14	-1	TOASTER	1472	n/a	n/a	-1	1.0	1.0	1	upper	Verdana.ttf
2665.956	n/a	WORD	1332978	wordpools/wasnorm_wordpool.txt	LTP088	ltpFR	4	14	-1	LOAF	835	n/a	n/a	-1	1.0	1.0	1	upper	Verdana.ttf
2669.81	n/a	WORD	1334905	wordpools/wasnorm_wordpool.txt	LTP088	ltpFR	4	14	-1	QUILT	1151	n/a	n/a	-1	1.0	1.0	1	upper	Verdana.ttf
2673.622	n/a	WORD	1336811	wordpools/wasnorm_wordpool.txt	LTP088	ltpFR	4	14	-1	HANGER	687	n/a	n/a	-1	1.0	1.0	1	upper	Verdana.ttf
2677.544	n/a	WORD	1338772	wordpools/wasnorm_wordpool.txt	LTP088	ltpFR	4	14	-1	PLAID	1080	n/a	n/a	-1	1.0	1.0	1	upper	Verdana.ttf
2681.738	n/a	WORD	1340869	wordpools/wasnorm_wordpool.txt	LTP088	ltpFR	4	14	-1	PELT	1040	n/a	n/a	-1	1.0	1.0	1	upper	Verdana.ttf
2685.892	n/a	WORD	1342946	wordpools/wasnorm_wordpool.txt	LTP088	ltpFR	4	14	-1	DETECTIVE	454	n/a	n/a	-1	1.0	1.0	1	upper	Verdana.ttf
2689.804	n/a	WORD	1344902	wordpools/wasnorm_wordpool.txt	LTP088	ltpFR	4	14	-1	BANDANNA	80	n/a	n/a	-1	1.0	1.0	1	upper	Verdana.ttf
2693.682	n/a	WORD	1346841	wordpools/wasnorm_wordpool.txt	LTP088	ltpFR	4	14	-1	FOREHEAD	592	n/a	n/a	-1	1.0	1.0	1	upper	Verdana.ttf
2697.744	n/a	WORD	1348872	wordpools/wasnorm_wordpool.txt	LTP088	ltpFR	4	14	-1	SAW	1239	n/a	n/a	-1	1.0	1.0	1	upper	Verdana.ttf
2701.716	n/a	WORD	1350858	wordpools/wasnorm_wordpool.txt	LTP088	ltpFR	4	14	-1	CHISEL	305	n/a	n/a	-1	1.0	1.0	1	upper	Verdana.ttf
2705.82	n/a	WORD	1352910	wordpools/wasnorm_wordpool.txt	LTP088	ltpFR	4	14	-1	FLANNEL	574	n/a	n/a	-1	1.0	1.0	1	upper	Verdana.ttf
2711.638	n/a	REC_START	1355819	n/a	LTP088	ltpFR	4	14	n/a	n/a	n/a	n/a	n/a	n/a	n/a	n/a	n/a	n/a	n/a
2713.18	n/a	REC_WORD	1356590	wordpools/wasnorm_wordpool.txt	LTP088	ltpFR	4	14	-1	WINDSHIELD	1612	n/a	n/a	-1	n/a	n/a	n/a	n/a	n/a
2714.33	n/a	REC_WORD	1357165	wordpools/wasnorm_wordpool.txt	LTP088	ltpFR	4	14	-1	HANDCUFFS	685	n/a	n/a	-1	n/a	n/a	n/a	n/a	n/a
2715.196	n/a	REC_WORD	1357598	wordpools/wasnorm_wordpool.txt	LTP088	ltpFR	4	14	-1	DETECTIVE	454	n/a	n/a	-1	n/a	n/a	n/a	n/a	n/a
2716.408	n/a	REC_WORD	1358204	wordpools/wasnorm_wordpool.txt	LTP088	ltpFR	4	14	-1	MARGARINE	868	n/a	n/a	-1	n/a	n/a	n/a	n/a	n/a
2717.63	n/a	REC_WORD	1358815	wordpools/wasnorm_wordpool.txt	LTP088	ltpFR	4	14	-1	LOAF	835	n/a	n/a	-1	n/a	n/a	n/a	n/a	n/a
2718.852	n/a	REC_WORD	1359426	wordpools/wasnorm_wordpool.txt	LTP088	ltpFR	4	14	-1	TOASTER	1472	n/a	n/a	-1	n/a	n/a	n/a	n/a	n/a
2720.374	n/a	REC_WORD	1360187	wordpools/wasnorm_wordpool.txt	LTP088	ltpFR	4	14	-1	HANGER	687	n/a	n/a	-1	n/a	n/a	n/a	n/a	n/a
2721.67	n/a	REC_WORD	1360835	wordpools/wasnorm_wordpool.txt	LTP088	ltpFR	4	14	-1	CHISEL	305	n/a	n/a	-1	n/a	n/a	n/a	n/a	n/a
2722.968	n/a	REC_WORD	1361484	wordpools/wasnorm_wordpool.txt	LTP088	ltpFR	4	14	-1	SAW	1239	n/a	n/a	-1	n/a	n/a	n/a	n/a	n/a
2725.082	n/a	REC_WORD	1362541	wordpools/wasnorm_wordpool.txt	LTP088	ltpFR	4	14	-1	QUILT	1151	n/a	n/a	-1	n/a	n/a	n/a	n/a	n/a
2726.24	n/a	REC_WORD	1363120	wordpools/wasnorm_wordpool.txt	LTP088	ltpFR	4	14	-1	FLANNEL	574	n/a	n/a	-1	n/a	n/a	n/a	n/a	n/a
2727.952	n/a	REC_WORD	1363976	wordpools/wasnorm_wordpool.txt	LTP088	ltpFR	4	14	-1	PLAID	1080	n/a	n/a	-1	n/a	n/a	n/a	n/a	n/a
2731.708	n/a	REC_WORD	1365854	wordpools/wasnorm_wordpool.txt	LTP088	ltpFR	4	14	-1	HOE	711	n/a	n/a	-1	n/a	n/a	n/a	n/a	n/a
2736.022	n/a	REC_WORD	1368011	wordpools/wasnorm_wordpool.txt	LTP088	ltpFR	4	14	-1	BANDANNA	80	n/a	n/a	-1	n/a	n/a	n/a	n/a	n/a
2737.184	n/a	REC_WORD	1368592	wordpools/wasnorm_wordpool.txt	LTP088	ltpFR	4	14	-1	FOREHEAD	592	n/a	n/a	-1	n/a	n/a	n/a	n/a	n/a
2796.608	n/a	WORD	1398304	wordpools/wasnorm_wordpool.txt	LTP088	ltpFR	4	15	-1	ANTELOPE	27	n/a	n/a	-1	1.0	1.0	1	upper	Verdana.ttf
2800.668	n/a	WORD	1400334	wordpools/wasnorm_wordpool.txt	LTP088	ltpFR	4	15	-1	SEASHORE	1263	n/a	n/a	-1	1.0	1.0	1	upper	Verdana.ttf
2804.548	n/a	WORD	1402274	wordpools/wasnorm_wordpool.txt	LTP088	ltpFR	4	15	-1	HORIZON	717	n/a	n/a	-1	1.0	1.0	1	upper	Verdana.ttf
2808.41	n/a	WORD	1404205	wordpools/wasnorm_wordpool.txt	LTP088	ltpFR	4	15	-1	FOLDER	588	n/a	n/a	-1	1.0	1.0	1	upper	Verdana.ttf
2812.338	n/a	WORD	1406169	wordpools/wasnorm_wordpool.txt	LTP088	ltpFR	4	15	-1	PEARL	1034	n/a	n/a	-1	1.0	1.0	1	upper	Verdana.ttf
2816.16	n/a	WORD	1408080	wordpools/wasnorm_wordpool.txt	LTP088	ltpFR	4	15	-1	BOUILLON	154	n/a	n/a	-1	1.0	1.0	1	upper	Verdana.ttf
2820.362	n/a	WORD	1410181	wordpools/wasnorm_wordpool.txt	LTP088	ltpFR	4	15	-1	DESK	452	n/a	n/a	-1	1.0	1.0	1	upper	Verdana.ttf
2824.566	n/a	WORD	1412283	wordpools/wasnorm_wordpool.txt	LTP088	ltpFR	4	15	-1	VAMPIRE	1547	n/a	n/a	-1	1.0	1.0	1	upper	Verdana.ttf
2828.404	n/a	WORD	1414202	wordpools/wasnorm_wordpool.txt	LTP088	ltpFR	4	15	-1	ESSAY	540	n/a	n/a	-1	1.0	1.0	1	upper	Verdana.ttf
2832.424	n/a	WORD	1416212	wordpools/wasnorm_wordpool.txt	LTP088	ltpFR	4	15	-1	ANIMAL	23	n/a	n/a	-1	1.0	1.0	1	upper	Verdana.ttf
2836.352	n/a	WORD	1418176	wordpools/wasnorm_wordpool.txt	LTP088	ltpFR	4	15	-1	SURF	1412	n/a	n/a	-1	1.0	1.0	1	upper	Verdana.ttf
2840.564	n/a	WORD	1420282	wordpools/wasnorm_wordpool.txt	LTP088	ltpFR	4	15	-1	WORKER	1621	n/a	n/a	-1	1.0	1.0	1	upper	Verdana.ttf
2844.652	n/a	WORD	1422326	wordpools/wasnorm_wordpool.txt	LTP088	ltpFR	4	15	-1	EMPLOYEE	531	n/a	n/a	-1	1.0	1.0	1	upper	Verdana.ttf
2848.646	n/a	WORD	1424323	wordpools/wasnorm_wordpool.txt	LTP088	ltpFR	4	15	-1	BRICK	172	n/a	n/a	-1	1.0	1.0	1	upper	Verdana.ttf
2852.508	n/a	WORD	1426254	wordpools/wasnorm_wordpool.txt	LTP088	ltpFR	4	15	-1	ATTIC	56	n/a	n/a	-1	1.0	1.0	1	upper	Verdana.ttf
2856.646	n/a	WORD	1428323	wordpools/wasnorm_wordpool.txt	LTP088	ltpFR	4	15	-1	BUTLER	204	n/a	n/a	-1	1.0	1.0	1	upper	Verdana.ttf
2862.29	n/a	REC_START	1431145	n/a	LTP088	ltpFR	4	15	n/a	n/a	n/a	n/a	n/a	n/a	n/a	n/a	n/a	n/a	n/a
2864.09	n/a	REC_WORD	1432045	wordpools/wasnorm_wordpool.txt	LTP088	ltpFR	4	15	-1	SEASHORE	1263	n/a	n/a	-1	n/a	n/a	n/a	n/a	n/a
2865.618	n/a	REC_WORD	1432809	wordpools/wasnorm_wordpool.txt	LTP088	ltpFR	4	15	-1	PEARL	1034	n/a	n/a	-1	n/a	n/a	n/a	n/a	n/a
2866.284	n/a	REC_WORD	1433142	wordpools/wasnorm_wordpool.txt	LTP088	ltpFR	4	15	-1	HORIZON	717	n/a	n/a	-1	n/a	n/a	n/a	n/a	n/a
2867.594	n/a	REC_WORD	1433797	wordpools/wasnorm_wordpool.txt	LTP088	ltpFR	4	15	-1	ANTELOPE	27	n/a	n/a	-1	n/a	n/a	n/a	n/a	n/a
2868.87	n/a	REC_WORD	1434435	wordpools/wasnorm_wordpool.txt	LTP088	ltpFR	4	15	-1	ANIMAL	23	n/a	n/a	-1	n/a	n/a	n/a	n/a	n/a
2869.878	n/a	REC_WORD	1434939	wordpools/wasnorm_wordpool.txt	LTP088	ltpFR	4	15	-1	VAMPIRE	1547	n/a	n/a	-1	n/a	n/a	n/a	n/a	n/a
2871.206	n/a	REC_WORD	1435603	wordpools/wasnorm_wordpool.txt	LTP088	ltpFR	4	15	0	EMPLOYER	532	n/a	n/a	1	n/a	n/a	n/a	n/a	n/a
2872.342	n/a	REC_WORD	1436171	wordpools/wasnorm_wordpool.txt	LTP088	ltpFR	4	15	-1	EMPLOYEE	531	n/a	n/a	-1	n/a	n/a	n/a	n/a	n/a
2873.804	n/a	REC_WORD	1436902	wordpools/wasnorm_wordpool.txt	LTP088	ltpFR	4	15	-1	BUTLER	204	n/a	n/a	-1	n/a	n/a	n/a	n/a	n/a
2875.066	n/a	REC_WORD	1437533	wordpools/wasnorm_wordpool.txt	LTP088	ltpFR	4	15	-1	BRICK	172	n/a	n/a	-1	n/a	n/a	n/a	n/a	n/a
2876.288	n/a	REC_WORD	1438144	wordpools/wasnorm_wordpool.txt	LTP088	ltpFR	4	15	-1	ATTIC	56	n/a	n/a	-1	n/a	n/a	n/a	n/a	n/a
2877.776	n/a	REC_WORD	1438888	wordpools/wasnorm_wordpool.txt	LTP088	ltpFR	4	15	-1	DESK	452	n/a	n/a	-1	n/a	n/a	n/a	n/a	n/a
2878.878	n/a	REC_WORD	1439439	wordpools/wasnorm_wordpool.txt	LTP088	ltpFR	4	15	-1	FOLDER	588	n/a	n/a	-1	n/a	n/a	n/a	n/a	n/a
2880.728	n/a	REC_WORD	1440364	wordpools/wasnorm_wordpool.txt	LTP088	ltpFR	4	15	-1	ESSAY	540	n/a	n/a	-1	n/a	n/a	n/a	n/a	n/a
2886.132	n/a	REC_WORD	1443066	wordpools/wasnorm_wordpool.txt	LTP088	ltpFR	4	15	-1	SURF	1412	n/a	n/a	-1	n/a	n/a	n/a	n/a	n/a
2940.984	n/a	WORD	1470492	wordpools/wasnorm_wordpool.txt	LTP088	ltpFR	4	16	0	EUROPE	541	n/a	n/a	1	0.57763671875	0.412841796875	1	upper	amplitud.ttf
2944.928	n/a	WORD	1472464	wordpools/wasnorm_wordpool.txt	LTP088	ltpFR	4	16	0	PUZZLE	1146	n/a	n/a	0	0.57763671875	0.412841796875	1	upper	amplitud.ttf
2948.816	n/a	WORD	1474408	wordpools/wasnorm_wordpool.txt	LTP088	ltpFR	4	16	0	DISH	474	n/a	n/a	0	0.57763671875	0.412841796875	1	upper	amplitud.ttf
2952.736	n/a	WORD	1476368	wordpools/wasnorm_wordpool.txt	LTP088	ltpFR	4	16	0	MONUMENT	913	n/a	n/a	1	0.57763671875	0.412841796875	1	upper	amplitud.ttf
2956.664	n/a	WORD	1478332	wordpools/wasnorm_wordpool.txt	LTP088	ltpFR	4	16	0	CARPENTER	246	n/a	n/a	1	0.57763671875	0.412841796875	1	upper	amplitud.ttf
2960.676	n/a	WORD	1480338	wordpools/wasnorm_wordpool.txt	LTP088	ltpFR	4	16	0	LOFT	840	n/a	n/a	1	0.57763671875	0.412841796875	1	upper	amplitud.ttf
2964.698	n/a	WORD	1482349	wordpools/wasnorm_wordpool.txt	LTP088	ltpFR	4	16	0	FACTORY	548	n/a	n/a	1	0.57763671875	0.412841796875	1	upper	amplitud.ttf
2968.842	n/a	WORD	1484421	wordpools/wasnorm_wordpool.txt	LTP088	ltpFR	4	16	0	SAPPHIRE	1234	n/a	n/a	0	0.57763671875	0.412841796875	1	upper	amplitud.ttf
2973.046	n/a	WORD	1486523	wordpools/wasnorm_wordpool.txt	LTP088	ltpFR	4	16	0	GEM	629	n/a	n/a	0	0.57763671875	0.412841796875	1	upper	amplitud.ttf
2977.25	n/a	WORD	1488625	wordpools/wasnorm_wordpool.txt	LTP088	ltpFR	4	16	0	FIGHTER	564	n/a	n/a	1	0.57763671875	0.412841796875	1	upper	amplitud.ttf
2981.128	n/a	WORD	1490564	wordpools/wasnorm_wordpool.txt	LTP088	ltpFR	4	16	0	PASSENGER	1020	n/a	n/a	1	0.57763671875	0.412841796875	1	upper	amplitud.ttf
2985.206	n/a	WORD	1492603	wordpools/wasnorm_wordpool.txt	LTP088	ltpFR	4	16	0	CHAPEL	280	n/a	n/a	1	0.57763671875	0.412841796875	1	upper	amplitud.ttf
2989.202	n/a	WORD	1494601	wordpools/wasnorm_wordpool.txt	LTP088	ltpFR	4	16	0	BUILDER	190	n/a	n/a	1	0.57763671875	0.412841796875	1	upper	amplitud.ttf
2993.056	n/a	WORD	1496528	wordpools/wasnorm_wordpool.txt	LTP088	ltpFR	4	16	0	TEAPOT	1442	n/a	n/a	0	0.57763671875	0.412841796875	1	upper	amplitud.ttf
2997.192	n/a	WORD	1498596	wordpools/wasnorm_wordpool.txt	LTP088	ltpFR	4	16	0	LONDON	843	n/a	n/a	1	0.57763671875	0.412841796875	1	upper	amplitud.ttf
3001.006	n/a	WORD	1500503	wordpools/wasnorm_wordpool.txt	LTP088	ltpFR	4	16	0	MESSAGE	888	n/a	n/a	0	0.57763671875	0.412841796875	1	upper	amplitud.ttf
3006.916	n/a	REC_START	1503458	n/a	LTP088	ltpFR	4	16	n/a	n/a	n/a	n/a	n/a	n/a	n/a	n/a	n/a	n/a	n/a
3008.218	n/a	REC_WORD	1504109	wordpools/wasnorm_wordpool.txt	LTP088	ltpFR	4	16	0	PASSENGER	1020	n/a	n/a	1	n/a	n/a	n/a	n/a	n/a
3009.664	n/a	REC_WORD	1504832	wordpools/wasnorm_wordpool.txt	LTP088	ltpFR	4	16	0	FIGHTER	564	n/a	n/a	1	n/a	n/a	n/a	n/a	n/a
3011.16	n/a	REC_WORD	1505580	wordpools/wasnorm_wordpool.txt	LTP088	ltpFR	4	16	0	BUILDER	190	n/a	n/a	1	n/a	n/a	n/a	n/a	n/a
3012.418	n/a	REC_WORD	1506209	wordpools/wasnorm_wordpool.txt	LTP088	ltpFR	4	16	0	LOFT	840	n/a	n/a	1	n/a	n/a	n/a	n/a	n/a
3013.556	n/a	REC_WORD	1506778	wordpools/wasnorm_wordpool.txt	LTP088	ltpFR	4	16	0	EUROPE	541	n/a	n/a	1	n/a	n/a	n/a	n/a	n/a
3014.704	n/a	REC_WORD	1507352	wordpools/wasnorm_wordpool.txt	LTP088	ltpFR	4	16	0	LONDON	843	n/a	n/a	1	n/a	n/a	n/a	n/a	n/a
3015.95	n/a	REC_WORD	1507975	wordpools/wasnorm_wordpool.txt	LTP088	ltpFR	4	16	0	PUZZLE	1146	n/a	n/a	0	n/a	n/a	n/a	n/a	n/a
3017.218	n/a	REC_WORD	1508609	wordpools/wasnorm_wordpool.txt	LTP088	ltpFR	4	16	0	DISH	474	n/a	n/a	0	n/a	n/a	n/a	n/a	n/a
3018.524	n/a	REC_WORD	1509262	wordpools/wasnorm_wordpool.txt	LTP088	ltpFR	4	16	0	GEM	629	n/a	n/a	0	n/a	n/a	n/a	n/a	n/a
3019.742	n/a	REC_WORD	1509871	wordpools/wasnorm_wordpool.txt	LTP088	ltpFR	4	16	0	SAPPHIRE	1234	n/a	n/a	0	n/a	n/a	n/a	n/a	n/a
3021.572	n/a	REC_WORD	1510786	wordpools/wasnorm_wordpool.txt	LTP088	ltpFR	4	16	0	MONUMENT	913	n/a	n/a	1	n/a	n/a	n/a	n/a	n/a
3026.612	n/a	REC_WORD	1513306	wordpools/wasnorm_wordpool.txt	LTP088	ltpFR	4	16	0	CHAPEL	280	n/a	n/a	1	n/a	n/a	n/a	n/a	n/a
3092.026	n/a	REC_START	1546013	n/a	LTP088	ltpFR	4	n/a	n/a	n/a	n/a	n/a	n/a	n/a	n/a	n/a	n/a	n/a	n/a
3093.638	n/a	FFR_REC_WORD	1546819	wordpools/wasnorm_wordpool.txt	LTP088	ltpFR	4	n/a	0	CHAPEL	280	n/a	n/a	1	n/a	n/a	n/a	n/a	n/a
3094.71	n/a	FFR_REC_WORD	1547355	wordpools/wasnorm_wordpool.txt	LTP088	ltpFR	4	n/a	0	FACTORY	548	n/a	n/a	1	n/a	n/a	n/a	n/a	n/a
3096.104	n/a	FFR_REC_WORD	1548052	wordpools/wasnorm_wordpool.txt	LTP088	ltpFR	4	n/a	0	LOFT	840	n/a	n/a	1	n/a	n/a	n/a	n/a	n/a
3097.416	n/a	FFR_REC_WORD	1548708	wordpools/wasnorm_wordpool.txt	LTP088	ltpFR	4	n/a	0	PUZZLE	1146	n/a	n/a	0	n/a	n/a	n/a	n/a	n/a
3098.298	n/a	FFR_REC_WORD	1549149	wordpools/wasnorm_wordpool.txt	LTP088	ltpFR	4	n/a	0	LONDON	843	n/a	n/a	1	n/a	n/a	n/a	n/a	n/a
3099.556	n/a	FFR_REC_WORD	1549778	wordpools/wasnorm_wordpool.txt	LTP088	ltpFR	4	n/a	0	EUROPE	541	n/a	n/a	1	n/a	n/a	n/a	n/a	n/a
3101.336	n/a	FFR_REC_WORD	1550668	wordpools/wasnorm_wordpool.txt	LTP088	ltpFR	4	n/a	0	BUILDER	190	n/a	n/a	1	n/a	n/a	n/a	n/a	n/a
3102.788	n/a	FFR_REC_WORD	1551394	wordpools/wasnorm_wordpool.txt	LTP088	ltpFR	4	n/a	0	FIGHTER	564	n/a	n/a	1	n/a	n/a	n/a	n/a	n/a
3104.046	n/a	FFR_REC_WORD	1552023	wordpools/wasnorm_wordpool.txt	LTP088	ltpFR	4	n/a	0	PASSENGER	1020	n/a	n/a	1	n/a	n/a	n/a	n/a	n/a
3106.06	n/a	FFR_REC_WORD	1553030	wordpools/wasnorm_wordpool.txt	LTP088	ltpFR	4	n/a	0	SAPPHIRE	1234	n/a	n/a	0	n/a	n/a	n/a	n/a	n/a
3107.422	n/a	FFR_REC_WORD	1553711	wordpools/wasnorm_wordpool.txt	LTP088	ltpFR	4	n/a	0	GEM	629	n/a	n/a	0	n/a	n/a	n/a	n/a	n/a
3108.504	n/a	FFR_REC_WORD	1554252	wordpools/wasnorm_wordpool.txt	LTP088	ltpFR	4	n/a	n/a	BOWL	158	n/a	n/a	n/a	n/a	n/a	n/a	n/a	n/a
3109.642	n/a	FFR_REC_WORD	1554821	wordpools/wasnorm_wordpool.txt	LTP088	ltpFR	4	n/a	0	MONUMENT	913	n/a	n/a	1	n/a	n/a	n/a	n/a	n/a
3112.476	n/a	FFR_REC_WORD	1556238	wordpools/wasnorm_wordpool.txt	LTP088	ltpFR	4	n/a	-1	SEASHORE	1263	n/a	n/a	-1	n/a	n/a	n/a	n/a	n/a
3113.544	n/a	FFR_REC_WORD	1556772	wordpools/wasnorm_wordpool.txt	LTP088	ltpFR	4	n/a	-1	SURF	1412	n/a	n/a	-1	n/a	n/a	n/a	n/a	n/a
3114.346	n/a	FFR_REC_WORD	1557173	wordpools/wasnorm_wordpool.txt	LTP088	ltpFR	4	n/a	-1	HORIZON	717	n/a	n/a	-1	n/a	n/a	n/a	n/a	n/a
3115.35	n/a	FFR_REC_WORD	1557675	wordpools/wasnorm_wordpool.txt	LTP088	ltpFR	4	n/a	-1	ANTELOPE	27	n/a	n/a	-1	n/a	n/a	n/a	n/a	n/a
3116.496	n/a	FFR_REC_WORD	1558248	wordpools/wasnorm_wordpool.txt	LTP088	ltpFR	4	n/a	-1	ANIMAL	23	n/a	n/a	-1	n/a	n/a	n/a	n/a	n/a
3117.354	n/a	FFR_REC_WORD	1558677	wordpools/wasnorm_wordpool.txt	LTP088	ltpFR	4	n/a	-1	VAMPIRE	1547	n/a	n/a	-1	n/a	n/a	n/a	n/a	n/a
3118.922	n/a	FFR_REC_WORD	1559461	wordpools/wasnorm_wordpool.txt	LTP088	ltpFR	4	n/a	-1	PEARL	1034	n/a	n/a	-1	n/a	n/a	n/a	n/a	n/a
3119.978	n/a	FFR_REC_WORD	1559989	wordpools/wasnorm_wordpool.txt	LTP088	ltpFR	4	n/a	-1	EMPLOYEE	531	n/a	n/a	-1	n/a	n/a	n/a	n/a	n/a
3120.956	n/a	FFR_REC_WORD	1560478	wordpools/wasnorm_wordpool.txt	LTP088	ltpFR	4	n/a	0	EMPLOYER	532	n/a	n/a	1	n/a	n/a	n/a	n/a	n/a
3122.518	n/a	FFR_REC_WORD	1561259	wordpools/wasnorm_wordpool.txt	LTP088	ltpFR	4	n/a	-1	BUTLER	204	n/a	n/a	-1	n/a	n/a	n/a	n/a	n/a
3123.726	n/a	FFR_REC_WORD	1561863	wordpools/wasnorm_wordpool.txt	LTP088	ltpFR	4	n/a	-1	ATTIC	56	n/a	n/a	-1	n/a	n/a	n/a	n/a	n/a
3124.838	n/a	FFR_REC_WORD	1562419	wordpools/wasnorm_wordpool.txt	LTP088	ltpFR	4	n/a	-1	BRICK	172	n/a	n/a	-1	n/a	n/a	n/a	n/a	n/a
3126.074	n/a	FFR_REC_WORD	1563037	wordpools/wasnorm_wordpool.txt	LTP088	ltpFR	4	n/a	-1	DESK	452	n/a	n/a	-1	n/a	n/a	n/a	n/a	n/a
3127.592	n/a	FFR_REC_WORD	1563796	wordpools/wasnorm_wordpool.txt	LTP088	ltpFR	4	n/a	-1	ESSAY	540	n/a	n/a	-1	n/a	n/a	n/a	n/a	n/a
3129.058	n/a	FFR_REC_WORD	1564529	wordpools/wasnorm_wordpool.txt	LTP088	ltpFR	4	n/a	-1	FOLDER	588	n/a	n/a	-1	n/a	n/a	n/a	n/a	n/a
3136.89	n/a	FFR_REC_WORD	1568445	wordpools/wasnorm_wordpool.txt	LTP088	ltpFR	4	n/a	0	SUPERMARKET	1409	n/a	n/a	1	n/a	n/a	n/a	n/a	n/a
3138.436	n/a	FFR_REC_WORD	1569218	wordpools/wasnorm_wordpool.txt	LTP088	ltpFR	4	n/a	1	CASHIER	254	n/a	n/a	1	n/a	n/a	n/a	n/a	n/a
3140.802	n/a	FFR_REC_WORD	1570401	wordpools/wasnorm_wordpool.txt	LTP088	ltpFR	4	n/a	1	INSTRUCTOR	741	n/a	n/a	1	n/a	n/a	n/a	n/a	n/a
3142.148	n/a	FFR_REC_WORD	1571074	wordpools/wasnorm_wordpool.txt	LTP088	ltpFR	4	n/a	1	SUPERVISOR	1410	n/a	n/a	1	n/a	n/a	n/a	n/a	n/a
3144.478	n/a	FFR_REC_WORD	1572239	wordpools/wasnorm_wordpool.txt	LTP088	ltpFR	4	n/a	0	CANARY	227	n/a	n/a	0	n/a	n/a	n/a	n/a	n/a
3145.78	n/a	FFR_REC_WORD	1572890	wordpools/wasnorm_wordpool.txt	LTP088	ltpFR	4	n/a	0	PIGEON	1065	n/a	n/a	0	n/a	n/a	n/a	n/a	n/a
3147.306	n/a	FFR_REC_WORD	1573653	wordpools/wasnorm_wordpool.txt	LTP088	ltpFR	4	n/a	0	FLOUR	583	n/a	n/a	0	n/a	n/a	n/a	n/a	n/a
3148.598	n/a	FFR_REC_WORD	1574299	wordpools/wasnorm_wordpool.txt	LTP088	ltpFR	4	n/a	0	BREAD	170	n/a	n/a	0	n/a	n/a	n/a	n/a	n/a
3150.04	n/a	FFR_REC_WORD	1575020	wordpools/wasnorm_wordpool.txt	LTP088	ltpFR	4	n/a	1	WATER	1594	n/a	n/a	0	n/a	n/a	n/a	n/a	n/a
3152.74	n/a	FFR_REC_WORD	1576370	wordpools/wasnorm_wordpool.txt	LTP088	ltpFR	4	n/a	1	VEGETABLE	1552	n/a	n/a	1	n/a	n/a	n/a	n/a	n/a
3156.556	n/a	FFR_REC_WORD	1578278	wordpools/wasnorm_wordpool.txt	LTP088	ltpFR	4	n/a	1	TREASURE	1500	n/a	n/a	0	n/a	n/a	n/a	n/a	n/a
3158.072	n/a	FFR_REC_WORD	1579036	wordpools/wasnorm_wordpool.txt	LTP088	ltpFR	4	n/a	1	NECKLACE	940	n/a	n/a	0	n/a	n/a	n/a	n/a	n/a
3164.826	n/a	FFR_REC_WORD	1582413	wordpools/wasnorm_wordpool.txt	LTP088	ltpFR	4	n/a	0	DAM	436	n/a	n/a	1	n/a	n/a	n/a	n/a	n/a
3167.51	n/a	FFR_REC_WORD	1583755	wordpools/wasnorm_wordpool.txt	LTP088	ltpFR	4	n/a	n/a	SCUBADIVER	-1	n/a	n/a	n/a	n/a	n/a	n/a	n/a	n/a
3169.028	n/a	FFR_REC_WORD	1584514	wordpools/wasnorm_wordpool.txt	LTP088	ltpFR	4	n/a	0	PRODUCER	1129	n/a	n/a	1	n/a	n/a	n/a	n/a	n/a
3193.194	n/a	FFR_REC_WORD	1596597	wordpools/wasnorm_wordpool.txt	LTP088	ltpFR	4	n/a	1	NOVEL	960	n/a	n/a	0	n/a	n/a	n/a	n/a	n/a
3194.546	n/a	FFR_REC_WORD	1597273	wordpools/wasnorm_wordpool.txt	LTP088	ltpFR	4	n/a	1	BINDER	127	n/a	n/a	0	n/a	n/a	n/a	n/a	n/a
3197.748	n/a	FFR_REC_WORD	1598874	wordpools/wasnorm_wordpool.txt	LTP088	ltpFR	4	n/a	1	JET	756	n/a	n/a	1	n/a	n/a	n/a	n/a	n/a
3198.88	n/a	FFR_REC_WORD	1599440	wordpools/wasnorm_wordpool.txt	LTP088	ltpFR	4	n/a	1	STEWARDESS	1381	n/a	n/a	1	n/a	n/a	n/a	n/a	n/a
3200.816	n/a	FFR_REC_WORD	1600408	wordpools/wasnorm_wordpool.txt	LTP088	ltpFR	4	n/a	1	COOK	372	n/a	n/a	1	n/a	n/a	n/a	n/a	n/a
3201.924	n/a	FFR_REC_WORD	1600962	wordpools/wasnorm_wordpool.txt	LTP088	ltpFR	4	n/a	1	CORN	381	n/a	n/a	1	n/a	n/a	n/a	n/a	n/a
3204.204	n/a	FFR_REC_WORD	1602102	wordpools/wasnorm_wordpool.txt	LTP088	ltpFR	4	n/a	0	PASTRY	1022	n/a	n/a	0	n/a	n/a	n/a	n/a	n/a
3208.328	n/a	FFR_REC_WORD	1604164	wordpools/wasnorm_wordpool.txt	LTP088	ltpFR	4	n/a	0	GIRL	637	n/a	n/a	1	n/a	n/a	n/a	n/a	n/a
3209.606	n/a	FFR_REC_WORD	1604803	wordpools/wasnorm_wordpool.txt	LTP088	ltpFR	4	n/a	1	WOMAN	1620	n/a	n/a	1	n/a	n/a	n/a	n/a	n/a
3215.354	n/a	FFR_REC_WORD	1607677	wordpools/wasnorm_wordpool.txt	LTP088	ltpFR	4	n/a	1	STALLION	1369	n/a	n/a	1	n/a	n/a	n/a	n/a	n/a
3216.51	n/a	FFR_REC_WORD	1608255	wordpools/wasnorm_wordpool.txt	LTP088	ltpFR	4	n/a	1	POND	1101	n/a	n/a	1	n/a	n/a	n/a	n/a	n/a
3219.504	n/a	FFR_REC_WORD	1609752	wordpools/wasnorm_wordpool.txt	LTP088	ltpFR	4	n/a	1	WRITER	1627	n/a	n/a	0	n/a	n/a	n/a	n/a	n/a
3224.772	n/a	FFR_REC_WORD	1612386	wordpools/wasnorm_wordpool.txt	LTP088	ltpFR	4	n/a	1	PORCH	1106	n/a	n/a	0	n/a	n/a	n/a	n/a	n/a
3225.74	n/a	FFR_REC_WORD	1612870	wordpools/wasnorm_wordpool.txt	LTP088	ltpFR	4	n/a	n/a	SOFA	1342	n/a	n/a	n/a	n/a	n/a	n/a	n/a	n/a
3226.758	n/a	FFR_REC_WORD	1613379	wordpools/wasnorm_wordpool.txt	LTP088	ltpFR	4	n/a	1	APARTMENT	30	n/a	n/a	0	n/a	n/a	n/a	n/a	n/a
3228.224	n/a	FFR_REC_WORD	1614112	wordpools/wasnorm_wordpool.txt	LTP088	ltpFR	4	n/a	1	ASTEROID	50	n/a	n/a	1	n/a	n/a	n/a	n/a	n/a
3232.5	n/a	FFR_REC_WORD	1616250	wordpools/wasnorm_wordpool.txt	LTP088	ltpFR	4	n/a	-1	BUG	187	n/a	n/a	-1	n/a	n/a	n/a	n/a	n/a
3238.132	n/a	FFR_REC_WORD	1619066	wordpools/wasnorm_wordpool.txt	LTP088	ltpFR	4	n/a	n/a	PLATE	1086	n/a	n/a	n/a	n/a	n/a	n/a	n/a	n/a
3239.564	n/a	FFR_REC_WORD	1619782	wordpools/wasnorm_wordpool.txt	LTP088	ltpFR	4	n/a	n/a	PLATTER	-1	n/a	n/a	n/a	n/a	n/a	n/a	n/a	n/a
3245.65	n/a	FFR_REC_WORD	1622825	wordpools/wasnorm_wordpool.txt	LTP088	ltpFR	4	n/a	0	SWAMP	1416	n/a	n/a	1	n/a	n/a	n/a	n/a	n/a
3247.654	n/a	FFR_REC_WORD	1623827	wordpools/wasnorm_wordpool.txt	LTP088	ltpFR	4	n/a	1	BEET	115	n/a	n/a	1	n/a	n/a	n/a	n/a	n/a
3252.076	n/a	FFR_REC_WORD	1626038	wordpools/wasnorm_wordpool.txt	LTP088	ltpFR	4	n/a	1	CROCODILE	411	n/a	n/a	1	n/a	n/a	n/a	n/a	n/a
3254.436	n/a	FFR_REC_WORD	1627218	wordpools/wasnorm_wordpool.txt	LTP088	ltpFR	4	n/a	1	SKIRT	1319	n/a	n/a	0	n/a	n/a	n/a	n/a	n/a
3255.582	n/a	FFR_REC_WORD	1627791	wordpools/wasnorm_wordpool.txt	LTP088	ltpFR	4	n/a	1	SLACKS	1323	n/a	n/a	1	n/a	n/a	n/a	n/a	n/a
3257.338	n/a	FFR_REC_WORD	1628669	wordpools/wasnorm_wordpool.txt	LTP088	ltpFR	4	n/a	1	CHICK	296	n/a	n/a	1	n/a	n/a	n/a	n/a	n/a
3259.634	n/a	FFR_REC_WORD	1629817	wordpools/wasnorm_wordpool.txt	LTP088	ltpFR	4	n/a	1	SPARROW	1347	n/a	n/a	1	n/a	n/a	n/a	n/a	n/a
3262.95	n/a	FFR_REC_WORD	1631475	wordpools/wasnorm_wordpool.txt	LTP088	ltpFR	4	n/a	1	CROCODILE	411	n/a	n/a	1	n/a	n/a	n/a	n/a	n/a
3265.21	n/a	FFR_REC_WORD	1632605	wordpools/wasnorm_wordpool.txt	LTP088	ltpFR	4	n/a	0	GIRAFFE	636	n/a	n/a	1	n/a	n/a	n/a	n/a	n/a
3270.508	n/a	FFR_REC_WORD	1635254	wordpools/wasnorm_wordpool.txt	LTP088	ltpFR	4	n/a	n/a	CHIN	-1	n/a	n/a	n/a	n/a	n/a	n/a	n/a	n/a
3271.326	n/a	FFR_REC_WORD	1635663	wordpools/wasnorm_wordpool.txt	LTP088	ltpFR	4	n/a	1	SHOULDER	1294	n/a	n/a	1	n/a	n/a	n/a	n/a	n/a
3273.822	n/a	FFR_REC_WORD	1636911	wordpools/wasnorm_wordpool.txt	LTP088	ltpFR	4	n/a	0	ELBOW	520	n/a	n/a	1	n/a	n/a	n/a	n/a	n/a
3275.188	n/a	FFR_REC_WORD	1637594	wordpools/wasnorm_wordpool.txt	LTP088	ltpFR	4	n/a	0	ARM	38	n/a	n/a	1	n/a	n/a	n/a	n/a	n/a
3276.534	n/a	FFR_REC_WORD	1638267	wordpools/wasnorm_wordpool.txt	LTP088	ltpFR	4	n/a	0	BRANDY	169	n/a	n/a	0	n/a	n/a	n/a	n/a	n/a
3278.042	n/a	FFR_REC_WORD	1639021	wordpools/wasnorm_wordpool.txt	LTP088	ltpFR	4	n/a	0	DWARF	510	n/a	n/a	1	n/a	n/a	n/a	n/a	n/a
3279.388	n/a	FFR_REC_WORD	1639694	wordpools/wasnorm_wordpool.txt	LTP088	ltpFR	4	n/a	1	BULLY	196	n/a	n/a	1	n/a	n/a	n/a	n/a	n/a
3280.526	n/a	FFR_REC_WORD	1640263	wordpools/wasnorm_wordpool.txt	LTP088	ltpFR	4	n/a	1	SHEARS	1276	n/a	n/a	0	n/a	n/a	n/a	n/a	n/a
3286.052	n/a	FFR_REC_WORD	1643026	wordpools/wasnorm_wordpool.txt	LTP088	ltpFR	4	n/a	1	FOX	598	n/a	n/a	1	n/a	n/a	n/a	n/a	n/a
3287.49	n/a	FFR_REC_WORD	1643745	wordpools/wasnorm_wordpool.txt	LTP088	ltpFR	4	n/a	1	BUNNY	198	n/a	n/a	1	n/a	n/a	n/a	n/a	n/a
3292.908	n/a	FFR_REC_WORD	1646454	wordpools/wasnorm_wordpool.txt	LTP088	ltpFR	4	n/a	1	MEADOW	881	n/a	n/a	1	n/a	n/a	n/a	n/a	n/a
3301.13	n/a	FFR_REC_WORD	1650565	wordpools/wasnorm_wordpool.txt	LTP088	ltpFR	4	n/a	1	ROSE	1212	n/a	n/a	1	n/a	n/a	n/a	n/a	n/a
3304.412	n/a	FFR_REC_WORD	1652206	wordpools/wasnorm_wordpool.txt	LTP088	ltpFR	4	n/a	1	MAGICIAN	854	n/a	n/a	1	n/a	n/a	n/a	n/a	n/a
3305.57	n/a	FFR_REC_WORD	1652785	wordpools/wasnorm_wordpool.txt	LTP088	ltpFR	4	n/a	1	GYMNAST	675	n/a	n/a	1	n/a	n/a	n/a	n/a	n/a
3309.29	n/a	FFR_REC_WORD	1654645	wordpools/wasnorm_wordpool.txt	LTP088	ltpFR	4	n/a	1	WRITER	1627	n/a	n/a	0	n/a	n/a	n/a	n/a	n/a
3312.084	n/a	FFR_REC_WORD	1656042	wordpools/wasnorm_wordpool.txt	LTP088	ltpFR	4	n/a	1	LUNCH	849	n/a	n/a	0	n/a	n/a	n/a	n/a	n/a
3318.26	n/a	FFR_REC_WORD	1659130	wordpools/wasnorm_wordpool.txt	LTP088	ltpFR	4	n/a	-1	TROMBONE	1508	n/a	n/a	-1	n/a	n/a	n/a	n/a	n/a
3319.816	n/a	FFR_REC_WORD	1659908	wordpools/wasnorm_wordpool.txt	LTP088	ltpFR	4	n/a	0	OBOE	969	n/a	n/a	1	n/a	n/a	n/a	n/a	n/a
3321.194	n/a	FFR_REC_WORD	1660597	wordpools/wasnorm_wordpool.txt	LTP088	ltpFR	4	n/a	-1	FLUTE	585	n/a	n/a	-1	n/a	n/a	n/a	n/a	n/a
3322.43	n/a	FFR_REC_WORD	1661215	wordpools/wasnorm_wordpool.txt	LTP088	ltpFR	4	n/a	-1	CELLO	268	n/a	n/a	-1	n/a	n/a	n/a	n/a	n/a
3324.696	n/a	FFR_REC_WORD	1662348	wordpools/wasnorm_wordpool.txt	LTP088	ltpFR	4	n/a	-1	DRYER	503	n/a	n/a	-1	n/a	n/a	n/a	n/a	n/a
3326.306	n/a	FFR_REC_WORD	1663153	wordpools/wasnorm_wordpool.txt	LTP088	ltpFR	4	n/a	-1	PICNIC	1060	n/a	n/a	-1	n/a	n/a	n/a	n/a	n/a
3327.37	n/a	FFR_REC_WORD	1663685	wordpools/wasnorm_wordpool.txt	LTP088	ltpFR	4	n/a	n/a	SMOKE	-1	n/a	n/a	n/a	n/a	n/a	n/a	n/a	n/a
3328.96	n/a	FFR_REC_WORD	1664480	wordpools/wasnorm_wordpool.txt	LTP088	ltpFR	4	n/a	-1	INTESTINE	742	n/a	n/a	-1	n/a	n/a	n/a	n/a	n/a
3335.606	n/a	FFR_REC_WORD	1667803	wordpools/wasnorm_wordpool.txt	LTP088	ltpFR	4	n/a	0	BUGGY	188	n/a	n/a	1	n/a	n/a	n/a	n/a	n/a
3336.36	n/a	FFR_REC_WORD	1668180	wordpools/wasnorm_wordpool.txt	LTP088	ltpFR	4	n/a	0	SLEIGH	1325	n/a	n/a	1	n/a	n/a	n/a	n/a	n/a
3337.418	n/a	FFR_REC_WORD	1668709	wordpools/wasnorm_wordpool.txt	LTP088	ltpFR	4	n/a	0	STOCKING	1383	n/a	n/a	1	n/a	n/a	n/a	n/a	n/a
3338.714	n/a	FFR_REC_WORD	1669357	wordpools/wasnorm_wordpool.txt	LTP088	ltpFR	4	n/a	0	BUS	201	n/a	n/a	1	n/a	n/a	n/a	n/a	n/a
3339.732	n/a	FFR_REC_WORD	1669866	wordpools/wasnorm_wordpool.txt	LTP088	ltpFR	4	n/a	0	RUST	1219	n/a	n/a	0	n/a	n/a	n/a	n/a	n/a
3344.452	n/a	FFR_REC_WORD	1672226	wordpools/wasnorm_wordpool.txt	LTP088	ltpFR	4	n/a	0	COURSE	390	n/a	n/a	0	n/a	n/a	n/a	n/a	n/a
3345.688	n/a	FFR_REC_WORD	1672844	wordpools/wasnorm_wordpool.txt	LTP088	ltpFR	4	n/a	0	NURSERY	964	n/a	n/a	1	n/a	n/a	n/a	n/a	n/a
3347.036	n/a	FFR_REC_WORD	1673518	wordpools/wasnorm_wordpool.txt	LTP088	ltpFR	4	n/a	0	JUVENILE	767	n/a	n/a	1	n/a	n/a	n/a	n/a	n/a
3348.902	n/a	FFR_REC_WORD	1674451	wordpools/wasnorm_wordpool.txt	LTP088	ltpFR	4	n/a	0	OBOE	969	n/a	n/a	1	n/a	n/a	n/a	n/a	n/a
3357.502	n/a	FFR_REC_WORD	1678751	wordpools/wasnorm_wordpool.txt	LTP088	ltpFR	4	n/a	0	RUG	1215	n/a	n/a	1	n/a	n/a	n/a	n/a	n/a
3358.36	n/a	FFR_REC_WORD	1679180	wordpools/wasnorm_wordpool.txt	LTP088	ltpFR	4	n/a	0	TILE	1468	n/a	n/a	0	n/a	n/a	n/a	n/a	n/a
3359.308	n/a	FFR_REC_WORD	1679654	wordpools/wasnorm_wordpool.txt	LTP088	ltpFR	4	n/a	0	GHETTO	633	n/a	n/a	1	n/a	n/a	n/a	n/a	n/a
3362.576	n/a	FFR_REC_WORD	1681288	wordpools/wasnorm_wordpool.txt	LTP088	ltpFR	4	n/a	n/a	TURKEY	1520	n/a	n/a	n/a	n/a	n/a	n/a	n/a	n/a
3365.664	n/a	FFR_REC_WORD	1682832	wordpools/wasnorm_wordpool.txt	LTP088	ltpFR	4	n/a	0	DUST	508	n/a	n/a	0	n/a	n/a	n/a	n/a	n/a
3366.472	n/a	FFR_REC_WORD	1683236	wordpools/wasnorm_wordpool.txt	LTP088	ltpFR	4	n/a	0	FIREPLACE	570	n/a	n/a	1	n/a	n/a	n/a	n/a	n/a
3368.158	n/a	FFR_REC_WORD	1684079	wordpools/wasnorm_wordpool.txt	LTP088	ltpFR	4	n/a	0	BASEMENT	94	n/a	n/a	1	n/a	n/a	n/a	n/a	n/a
3370.622	n/a	FFR_REC_WORD	1685311	wordpools/wasnorm_wordpool.txt	LTP088	ltpFR	4	n/a	1	INFANT	737	n/a	n/a	1	n/a	n/a	n/a	n/a	n/a
3384.89	n/a	FFR_REC_WORD	1692445	wordpools/wasnorm_wordpool.txt	LTP088	ltpFR	4	n/a	-1	WINDSHIELD	1612	n/a	n/a	-1	n/a	n/a	n/a	n/a	n/a
3385.758	n/a	FFR_REC_WORD	1692879	wordpools/wasnorm_wordpool.txt	LTP088	ltpFR	4	n/a	-1	MARGARINE	868	n/a	n/a	-1	n/a	n/a	n/a	n/a	n/a
3386.876	n/a	FFR_REC_WORD	1693438	wordpools/wasnorm_wordpool.txt	LTP088	ltpFR	4	n/a	-1	LOAF	835	n/a	n/a	-1	n/a	n/a	n/a	n/a	n/a
3387.788	n/a	FFR_REC_WORD	1693894	wordpools/wasnorm_wordpool.txt	LTP088	ltpFR	4	n/a	-1	TOASTER	1472	n/a	n/a	-1	n/a	n/a	n/a	n/a	n/a
3389.184	n/a	FFR_REC_WORD	1694592	wordpools/wasnorm_wordpool.txt	LTP088	ltpFR	4	n/a	-1	CHISEL	305	n/a	n/a	-1	n/a	n/a	n/a	n/a	n/a
3390.218	n/a	FFR_REC_WORD_VV	1695109	wordpools/wasnorm_wordpool.txt	LTP088	ltpFR	4	n/a	n/a	<>	-1	n/a	n/a	n/a	n/a	n/a	n/a	n/a	n/a
3408.68	n/a	REC_START	1704340	n/a	LTP088	ltpFR	4	1	n/a	n/a	n/a	n/a	n/a	n/a	n/a	n/a	n/a	n/a	n/a
3408.712	n/a	RECOG_TARGET	1704356	n/a	LTP088	ltpFR	4	1	1	ATOM	55	1	5	0	n/a	n/a	n/a	n/a	n/a
3410.944	n/a	RECOG_RESP	1705472	n/a	LTP088	ltpFR	4	1	1	ATOM	55	1	n/a	0	n/a	n/a	n/a	n/a	n/a
3412.106	n/a	RECOG_CONF	1706053	n/a	LTP088	ltpFR	4	1	1	ATOM	55	n/a	5	0	n/a	n/a	n/a	n/a	n/a
3413.724	n/a	RECOG_TARGET	1706862	n/a	LTP088	ltpFR	4	1	-1	ROPE	1211	1	5	-1	n/a	n/a	n/a	n/a	n/a
3414.342	n/a	RECOG_RESP	1707171	n/a	LTP088	ltpFR	4	1	-1	ROPE	1211	1	n/a	-1	n/a	n/a	n/a	n/a	n/a
3415.13	n/a	RECOG_CONF	1707565	n/a	LTP088	ltpFR	4	1	-1	ROPE	1211	n/a	5	-1	n/a	n/a	n/a	n/a	n/a
3416.778	n/a	RECOG_TARGET	1708389	n/a	LTP088	ltpFR	4	1	1	TRAY	1498	1	5	0	n/a	n/a	n/a	n/a	n/a
3417.344	n/a	RECOG_RESP	1708672	n/a	LTP088	ltpFR	4	1	1	TRAY	1498	1	n/a	0	n/a	n/a	n/a	n/a	n/a
3418.162	n/a	RECOG_CONF	1709081	n/a	LTP088	ltpFR	4	1	1	TRAY	1498	n/a	5	0	n/a	n/a	n/a	n/a	n/a
3419.766	n/a	RECOG_TARGET	1709883	n/a	LTP088	ltpFR	4	1	-1	BUG	187	1	5	-1	n/a	n/a	n/a	n/a	n/a
3420.352	n/a	RECOG_RESP	1710176	n/a	LTP088	ltpFR	4	1	-1	BUG	187	1	n/a	-1	n/a	n/a	n/a	n/a	n/a
3421.206	n/a	RECOG_CONF	1710603	n/a	LTP088	ltpFR	4	1	-1	BUG	187	n/a	5	-1	n/a	n/a	n/a	n/a	n/a
3422.804	n/a	RECOG_TARGET	1711402	n/a	LTP088	ltpFR	4	1	-1	PELT	1040	1	5	-1	n/a	n/a	n/a	n/a	n/a
3424.194	n/a	RECOG_RESP	1712097	n/a	LTP088	ltpFR	4	1	-1	PELT	1040	1	n/a	-1	n/a	n/a	n/a	n/a	n/a
3425.068	n/a	RECOG_CONF	1712534	n/a	LTP088	ltpFR	4	1	-1	PELT	1040	n/a	5	-1	n/a	n/a	n/a	n/a	n/a
3426.808	n/a	RECOG_TARGET	1713404	n/a	LTP088	ltpFR	4	1	-1	REPORT	1184	1	4	-1	n/a	n/a	n/a	n/a	n/a
3427.472	n/a	RECOG_RESP	1713736	n/a	LTP088	ltpFR	4	1	-1	REPORT	1184	1	n/a	-1	n/a	n/a	n/a	n/a	n/a
3428.36	n/a	RECOG_CONF	1714180	n/a	LTP088	ltpFR	4	1	-1	REPORT	1184	n/a	4	-1	n/a	n/a	n/a	n/a	n/a
3430.014	n/a	RECOG_TARGET	1715007	n/a	LTP088	ltpFR	4	1	1	NOVEL	960	1	5	0	n/a	n/a	n/a	n/a	n/a
3430.574	n/a	RECOG_RESP	1715287	n/a	LTP088	ltpFR	4	1	1	NOVEL	960	1	n/a	0	n/a	n/a	n/a	n/a	n/a
3431.412	n/a	RECOG_CONF	1715706	n/a	LTP088	ltpFR	4	1	1	NOVEL	960	n/a	5	0	n/a	n/a	n/a	n/a	n/a
3433.036	n/a	RECOG_LURE	1716518	n/a	LTP088	ltpFR	4	1	n/a	GOWN	652	0	4	n/a	n/a	n/a	n/a	n/a	n/a
3433.798	n/a	RECOG_RESP	1716899	n/a	LTP088	ltpFR	4	1	n/a	GOWN	652	0	n/a	n/a	n/a	n/a	n/a	n/a	n/a
3434.736	n/a	RECOG_CONF	1717368	n/a	LTP088	ltpFR	4	1	n/a	GOWN	652	n/a	4	n/a	n/a	n/a	n/a	n/a	n/a
3436.264	n/a	RECOG_TARGET	1718132	n/a	LTP088	ltpFR	4	1	1	BEET	115	1	5	1	n/a	n/a	n/a	n/a	n/a
3436.87	n/a	RECOG_RESP	1718435	n/a	LTP088	ltpFR	4	1	1	BEET	115	1	n/a	1	n/a	n/a	n/a	n/a	n/a
3437.718	n/a	RECOG_CONF	1718859	n/a	LTP088	ltpFR	4	1	1	BEET	115	n/a	5	1	n/a	n/a	n/a	n/a	n/a
3439.402	n/a	RECOG_LURE	1719701	n/a	LTP088	ltpFR	4	1	n/a	BALCONY	72	0	2	n/a	n/a	n/a	n/a	n/a	n/a
3441.05	n/a	RECOG_RESP	1720525	n/a	LTP088	ltpFR	4	1	n/a	BALCONY	72	0	n/a	n/a	n/a	n/a	n/a	n/a	n/a
3442.188	n/a	RECOG_CONF	1721094	n/a	LTP088	ltpFR	4	1	n/a	BALCONY	72	n/a	2	n/a	n/a	n/a	n/a	n/a	n/a
3443.672	n/a	RECOG_LURE	1721836	n/a	LTP088	ltpFR	4	1	n/a	OX	994	0	5	n/a	n/a	n/a	n/a	n/a	n/a
3444.508	n/a	RECOG_RESP	1722254	n/a	LTP088	ltpFR	4	1	n/a	OX	994	0	n/a	n/a	n/a	n/a	n/a	n/a	n/a
3445.49	n/a	RECOG_CONF	1722745	n/a	LTP088	ltpFR	4	1	n/a	OX	994	n/a	5	n/a	n/a	n/a	n/a	n/a	n/a
3447.184	n/a	RECOG_TARGET	1723592	n/a	LTP088	ltpFR	4	1	0	LONDON	843	1	5	1	n/a	n/a	n/a	n/a	n/a
3447.816	n/a	RECOG_RESP	1723908	n/a	LTP088	ltpFR	4	1	0	LONDON	843	1	n/a	1	n/a	n/a	n/a	n/a	n/a
3448.854	n/a	RECOG_CONF	1724427	n/a	LTP088	ltpFR	4	1	0	LONDON	843	n/a	5	1	n/a	n/a	n/a	n/a	n/a
3450.34	n/a	RECOG_TARGET	1725170	n/a	LTP088	ltpFR	4	1	1	STALLION	1369	1	5	1	n/a	n/a	n/a	n/a	n/a
3450.978	n/a	RECOG_RESP	1725489	n/a	LTP088	ltpFR	4	1	1	STALLION	1369	1	n/a	1	n/a	n/a	n/a	n/a	n/a
3452.056	n/a	RECOG_CONF	1726028	n/a	LTP088	ltpFR	4	1	1	STALLION	1369	n/a	5	1	n/a	n/a	n/a	n/a	n/a
3453.41	n/a	RECOG_LURE	1726705	n/a	LTP088	ltpFR	4	1	n/a	STAKE	1368	0	3	n/a	n/a	n/a	n/a	n/a	n/a
3454.346	n/a	RECOG_RESP	1727173	n/a	LTP088	ltpFR	4	1	n/a	STAKE	1368	0	n/a	n/a	n/a	n/a	n/a	n/a	n/a
3455.358	n/a	RECOG_CONF	1727679	n/a	LTP088	ltpFR	4	1	n/a	STAKE	1368	n/a	3	n/a	n/a	n/a	n/a	n/a	n/a
3456.932	n/a	RECOG_LURE	1728466	n/a	LTP088	ltpFR	4	1	n/a	PRIEST	1122	0	2	n/a	n/a	n/a	n/a	n/a	n/a
3458.75	n/a	RECOG_RESP	1729375	n/a	LTP088	ltpFR	4	1	n/a	PRIEST	1122	0	n/a	n/a	n/a	n/a	n/a	n/a	n/a
3459.828	n/a	RECOG_CONF	1729914	n/a	LTP088	ltpFR	4	1	n/a	PRIEST	1122	n/a	2	n/a	n/a	n/a	n/a	n/a	n/a
3462.1	n/a	RECOG_TARGET	1731050	n/a	LTP088	ltpFR	4	1	0	PUZZLE	1146	1	5	0	n/a	n/a	n/a	n/a	n/a
3462.772	n/a	RECOG_RESP	1731386	n/a	LTP088	ltpFR	4	1	0	PUZZLE	1146	1	n/a	0	n/a	n/a	n/a	n/a	n/a
3464.088	n/a	RECOG_CONF	1732044	n/a	LTP088	ltpFR	4	1	0	PUZZLE	1146	n/a	5	0	n/a	n/a	n/a	n/a	n/a
3465.722	n/a	RECOG_TARGET	1732861	n/a	LTP088	ltpFR	4	1	1	MONSTER	912	1	5	1	n/a	n/a	n/a	n/a	n/a
3466.274	n/a	RECOG_RESP	1733137	n/a	LTP088	ltpFR	4	1	1	MONSTER	912	1	n/a	1	n/a	n/a	n/a	n/a	n/a
3467.152	n/a	RECOG_CONF	1733576	n/a	LTP088	ltpFR	4	1	1	MONSTER	912	n/a	5	1	n/a	n/a	n/a	n/a	n/a
3468.818	n/a	RECOG_LURE	1734409	n/a	LTP088	ltpFR	4	1	n/a	WRIST	1626	0	4	n/a	n/a	n/a	n/a	n/a	n/a
3470.344	n/a	RECOG_RESP	1735172	n/a	LTP088	ltpFR	4	1	n/a	WRIST	1626	0	n/a	n/a	n/a	n/a	n/a	n/a	n/a
3471.452	n/a	RECOG_CONF	1735726	n/a	LTP088	ltpFR	4	1	n/a	WRIST	1626	n/a	4	n/a	n/a	n/a	n/a	n/a	n/a
3473.662	n/a	RECOG_LURE	1736831	n/a	LTP088	ltpFR	4	1	n/a	PLANET	1082	0	2	n/a	n/a	n/a	n/a	n/a	n/a
3475.976	n/a	RECOG_RESP	1737988	n/a	LTP088	ltpFR	4	1	n/a	PLANET	1082	0	n/a	n/a	n/a	n/a	n/a	n/a	n/a
3476.99	n/a	RECOG_CONF	1738495	n/a	LTP088	ltpFR	4	1	n/a	PLANET	1082	n/a	2	n/a	n/a	n/a	n/a	n/a	n/a
3478.506	n/a	RECOG_TARGET	1739253	n/a	LTP088	ltpFR	4	1	0	BOOK	149	1	5	1	n/a	n/a	n/a	n/a	n/a
3479.428	n/a	RECOG_RESP	1739714	n/a	LTP088	ltpFR	4	1	0	BOOK	149	1	n/a	1	n/a	n/a	n/a	n/a	n/a
3481.638	n/a	RECOG_CONF	1740819	n/a	LTP088	ltpFR	4	1	0	BOOK	149	n/a	5	1	n/a	n/a	n/a	n/a	n/a
3486.034	n/a	REC_START	1743017	n/a	LTP088	ltpFR	4	2	n/a	n/a	n/a	n/a	n/a	n/a	n/a	n/a	n/a	n/a	n/a
3486.064	n/a	RECOG_TARGET	1743032	n/a	LTP088	ltpFR	4	2	1	STRAWBERRY	1391	1	5	1	n/a	n/a	n/a	n/a	n/a
3486.736	n/a	RECOG_RESP	1743368	n/a	LTP088	ltpFR	4	2	1	STRAWBERRY	1391	1	n/a	1	n/a	n/a	n/a	n/a	n/a
3487.666	n/a	RECOG_CONF	1743833	n/a	LTP088	ltpFR	4	2	1	STRAWBERRY	1391	n/a	5	1	n/a	n/a	n/a	n/a	n/a
3489.278	n/a	RECOG_LURE	1744639	n/a	LTP088	ltpFR	4	2	n/a	PLUTO	1092	0	4	n/a	n/a	n/a	n/a	n/a	n/a
3490.16	n/a	RECOG_RESP	1745080	n/a	LTP088	ltpFR	4	2	n/a	PLUTO	1092	0	n/a	n/a	n/a	n/a	n/a	n/a	n/a
3490.968	n/a	RECOG_CONF	1745484	n/a	LTP088	ltpFR	4	2	n/a	PLUTO	1092	n/a	4	n/a	n/a	n/a	n/a	n/a	n/a
3492.508	n/a	RECOG_TARGET	1746254	n/a	LTP088	ltpFR	4	2	-1	ANTELOPE	27	1	5	-1	n/a	n/a	n/a	n/a	n/a
3493.168	n/a	RECOG_RESP	1746584	n/a	LTP088	ltpFR	4	2	-1	ANTELOPE	27	1	n/a	-1	n/a	n/a	n/a	n/a	n/a
3494.14	n/a	RECOG_CONF	1747070	n/a	LTP088	ltpFR	4	2	-1	ANTELOPE	27	n/a	5	-1	n/a	n/a	n/a	n/a	n/a
3495.554	n/a	RECOG_TARGET	1747777	n/a	LTP088	ltpFR	4	2	1	SUBMARINE	1398	1	5	0	n/a	n/a	n/a	n/a	n/a
3496.282	n/a	RECOG_RESP	1748141	n/a	LTP088	ltpFR	4	2	1	SUBMARINE	1398	1	n/a	0	n/a	n/a	n/a	n/a	n/a
3497.484	n/a	RECOG_CONF	1748742	n/a	LTP088	ltpFR	4	2	1	SUBMARINE	1398	n/a	5	0	n/a	n/a	n/a	n/a	n/a
3499.134	n/a	RECOG_TARGET	1749567	n/a	LTP088	ltpFR	4	2	0	TOY	1492	1	5	0	n/a	n/a	n/a	n/a	n/a
3499.938	n/a	RECOG_RESP	1749969	n/a	LTP088	ltpFR	4	2	0	TOY	1492	1	n/a	0	n/a	n/a	n/a	n/a	n/a
3500.836	n/a	RECOG_CONF	1750418	n/a	LTP088	ltpFR	4	2	0	TOY	1492	n/a	5	0	n/a	n/a	n/a	n/a	n/a
3502.196	n/a	RECOG_TARGET	1751098	n/a	LTP088	ltpFR	4	2	1	SALMON	1227	1	5	1	n/a	n/a	n/a	n/a	n/a
3502.822	n/a	RECOG_RESP	1751411	n/a	LTP088	ltpFR	4	2	1	SALMON	1227	1	n/a	1	n/a	n/a	n/a	n/a	n/a
3503.74	n/a	RECOG_CONF	1751870	n/a	LTP088	ltpFR	4	2	1	SALMON	1227	n/a	5	1	n/a	n/a	n/a	n/a	n/a
3505.442	n/a	RECOG_TARGET	1752721	n/a	LTP088	ltpFR	4	2	1	DONOR	485	1	5	1	n/a	n/a	n/a	n/a	n/a
3506.642	n/a	RECOG_RESP	1753321	n/a	LTP088	ltpFR	4	2	1	DONOR	485	1	n/a	1	n/a	n/a	n/a	n/a	n/a
3507.86	n/a	RECOG_CONF	1753930	n/a	LTP088	ltpFR	4	2	1	DONOR	485	n/a	5	1	n/a	n/a	n/a	n/a	n/a
3509.422	n/a	RECOG_LURE	1754711	n/a	LTP088	ltpFR	4	2	n/a	HAND	683	0	3	n/a	n/a	n/a	n/a	n/a	n/a
3510.346	n/a	RECOG_RESP	1755173	n/a	LTP088	ltpFR	4	2	n/a	HAND	683	0	n/a	n/a	n/a	n/a	n/a	n/a	n/a
3511.126	n/a	RECOG_CONF	1755563	n/a	LTP088	ltpFR	4	2	n/a	HAND	683	n/a	3	n/a	n/a	n/a	n/a	n/a	n/a
3512.9	n/a	RECOG_TARGET	1756450	n/a	LTP088	ltpFR	4	2	1	LEMON	810	1	5	1	n/a	n/a	n/a	n/a	n/a
3515.762	n/a	RECOG_RESP	1757881	n/a	LTP088	ltpFR	4	2	1	LEMON	810	1	n/a	1	n/a	n/a	n/a	n/a	n/a
3516.59	n/a	RECOG_CONF	1758295	n/a	LTP088	ltpFR	4	2	1	LEMON	810	n/a	5	1	n/a	n/a	n/a	n/a	n/a
3518.294	n/a	RECOG_TARGET	1759147	n/a	LTP088	ltpFR	4	2	1	WRITER	1627	1	2	0	n/a	n/a	n/a	n/a	n/a
3519.01	n/a	RECOG_RESP	1759505	n/a	LTP088	ltpFR	4	2	1	WRITER	1627	1	n/a	0	n/a	n/a	n/a	n/a	n/a
3520.66	n/a	RECOG_CONF	1760330	n/a	LTP088	ltpFR	4	2	1	WRITER	1627	n/a	2	0	n/a	n/a	n/a	n/a	n/a
3522.14	n/a	RECOG_LURE	1761070	n/a	LTP088	ltpFR	4	2	n/a	COWARD	394	0	4	n/a	n/a	n/a	n/a	n/a	n/a
3523.026	n/a	RECOG_RESP	1761513	n/a	LTP088	ltpFR	4	2	n/a	COWARD	394	0	n/a	n/a	n/a	n/a	n/a	n/a	n/a
3524.542	n/a	RECOG_CONF	1762271	n/a	LTP088	ltpFR	4	2	n/a	COWARD	394	n/a	4	n/a	n/a	n/a	n/a	n/a	n/a
3525.92	n/a	RECOG_TARGET	1762960	n/a	LTP088	ltpFR	4	2	-1	PEARL	1034	1	5	-1	n/a	n/a	n/a	n/a	n/a
3526.568	n/a	RECOG_RESP	1763284	n/a	LTP088	ltpFR	4	2	-1	PEARL	1034	1	n/a	-1	n/a	n/a	n/a	n/a	n/a
3527.534	n/a	RECOG_CONF	1763767	n/a	LTP088	ltpFR	4	2	-1	PEARL	1034	n/a	5	-1	n/a	n/a	n/a	n/a	n/a
3529.066	n/a	RECOG_TARGET	1764533	n/a	LTP088	ltpFR	4	2	0	BUTTON	207	1	5	0	n/a	n/a	n/a	n/a	n/a
3530.05	n/a	RECOG_RESP	1765025	n/a	LTP088	ltpFR	4	2	0	BUTTON	207	1	n/a	0	n/a	n/a	n/a	n/a	n/a
3531.326	n/a	RECOG_CONF	1765663	n/a	LTP088	ltpFR	4	2	0	BUTTON	207	n/a	5	0	n/a	n/a	n/a	n/a	n/a
3532.852	n/a	RECOG_TARGET	1766426	n/a	LTP088	ltpFR	4	2	-1	DILL	465	1	5	-1	n/a	n/a	n/a	n/a	n/a
3533.516	n/a	RECOG_RESP	1766758	n/a	LTP088	ltpFR	4	2	-1	DILL	465	1	n/a	-1	n/a	n/a	n/a	n/a	n/a
3534.53	n/a	RECOG_CONF	1767265	n/a	LTP088	ltpFR	4	2	-1	DILL	465	n/a	5	-1	n/a	n/a	n/a	n/a	n/a
3535.882	n/a	RECOG_LURE	1767941	n/a	LTP088	ltpFR	4	2	n/a	TEENAGER	1444	0	3	n/a	n/a	n/a	n/a	n/a	n/a
3536.674	n/a	RECOG_RESP	1768337	n/a	LTP088	ltpFR	4	2	n/a	TEENAGER	1444	0	n/a	n/a	n/a	n/a	n/a	n/a	n/a
3538.14	n/a	RECOG_CONF	1769070	n/a	LTP088	ltpFR	4	2	n/a	TEENAGER	1444	n/a	3	n/a	n/a	n/a	n/a	n/a	n/a
3539.52	n/a	RECOG_TARGET	1769760	n/a	LTP088	ltpFR	4	2	0	SWEATER	1419	1	5	0	n/a	n/a	n/a	n/a	n/a
3540.246	n/a	RECOG_RESP	1770123	n/a	LTP088	ltpFR	4	2	0	SWEATER	1419	1	n/a	0	n/a	n/a	n/a	n/a	n/a
3541.174	n/a	RECOG_CONF	1770587	n/a	LTP088	ltpFR	4	2	0	SWEATER	1419	n/a	5	0	n/a	n/a	n/a	n/a	n/a
3542.766	n/a	RECOG_TARGET	1771383	n/a	LTP088	ltpFR	4	2	-1	BOUILLON	154	1	5	-1	n/a	n/a	n/a	n/a	n/a
3543.568	n/a	RECOG_RESP	1771784	n/a	LTP088	ltpFR	4	2	-1	BOUILLON	154	1	n/a	-1	n/a	n/a	n/a	n/a	n/a
3544.546	n/a	RECOG_CONF	1772273	n/a	LTP088	ltpFR	4	2	-1	BOUILLON	154	n/a	5	-1	n/a	n/a	n/a	n/a	n/a
3545.97	n/a	RECOG_LURE	1772985	n/a	LTP088	ltpFR	4	2	n/a	GUM	672	0	4	n/a	n/a	n/a	n/a	n/a	n/a
3547.09	n/a	RECOG_RESP	1773545	n/a	LTP088	ltpFR	4	2	n/a	GUM	672	0	n/a	n/a	n/a	n/a	n/a	n/a	n/a
3548.438	n/a	RECOG_CONF	1774219	n/a	LTP088	ltpFR	4	2	n/a	GUM	672	n/a	4	n/a	n/a	n/a	n/a	n/a	n/a
3549.842	n/a	RECOG_TARGET	1774921	n/a	LTP088	ltpFR	4	2	-1	BEAR	106	1	5	-1	n/a	n/a	n/a	n/a	n/a
3551.102	n/a	RECOG_RESP	1775551	n/a	LTP088	ltpFR	4	2	-1	BEAR	106	1	n/a	-1	n/a	n/a	n/a	n/a	n/a
3552.1	n/a	RECOG_CONF	1776050	n/a	LTP088	ltpFR	4	2	-1	BEAR	106	n/a	5	-1	n/a	n/a	n/a	n/a	n/a
3553.554	n/a	RECOG_TARGET	1776777	n/a	LTP088	ltpFR	4	2	1	SKIRT	1319	1	5	0	n/a	n/a	n/a	n/a	n/a
3554.494	n/a	RECOG_RESP	1777247	n/a	LTP088	ltpFR	4	2	1	SKIRT	1319	1	n/a	0	n/a	n/a	n/a	n/a	n/a
3555.312	n/a	RECOG_CONF	1777656	n/a	LTP088	ltpFR	4	2	1	SKIRT	1319	n/a	5	0	n/a	n/a	n/a	n/a	n/a
3559.538	n/a	REC_START	1779769	n/a	LTP088	ltpFR	4	3	n/a	n/a	n/a	n/a	n/a	n/a	n/a	n/a	n/a	n/a	n/a
3559.564	n/a	RECOG_TARGET	1779782	n/a	LTP088	ltpFR	4	3	1	POND	1101	1	5	1	n/a	n/a	n/a	n/a	n/a
3560.312	n/a	RECOG_RESP	1780156	n/a	LTP088	ltpFR	4	3	1	POND	1101	1	n/a	1	n/a	n/a	n/a	n/a	n/a
3561.448	n/a	RECOG_CONF	1780724	n/a	LTP088	ltpFR	4	3	1	POND	1101	n/a	5	1	n/a	n/a	n/a	n/a	n/a
3563.05	n/a	RECOG_TARGET	1781525	n/a	LTP088	ltpFR	4	3	1	PENGUIN	1044	1	5	1	n/a	n/a	n/a	n/a	n/a
3563.744	n/a	RECOG_RESP	1781872	n/a	LTP088	ltpFR	4	3	1	PENGUIN	1044	1	n/a	1	n/a	n/a	n/a	n/a	n/a
3564.682	n/a	RECOG_CONF	1782341	n/a	LTP088	ltpFR	4	3	1	PENGUIN	1044	n/a	5	1	n/a	n/a	n/a	n/a	n/a
3566.222	n/a	RECOG_TARGET	1783111	n/a	LTP088	ltpFR	4	3	-1	DETECTIVE	454	1	5	-1	n/a	n/a	n/a	n/a	n/a
3566.878	n/a	RECOG_RESP	1783439	n/a	LTP088	ltpFR	4	3	-1	DETECTIVE	454	1	n/a	-1	n/a	n/a	n/a	n/a	n/a
3567.746	n/a	RECOG_CONF	1783873	n/a	LTP088	ltpFR	4	3	-1	DETECTIVE	454	n/a	5	-1	n/a	n/a	n/a	n/a	n/a
3569.352	n/a	RECOG_TARGET	1784676	n/a	LTP088	ltpFR	4	3	0	DIVER	476	1	5	1	n/a	n/a	n/a	n/a	n/a
3570.07	n/a	RECOG_RESP	1785035	n/a	LTP088	ltpFR	4	3	0	DIVER	476	1	n/a	1	n/a	n/a	n/a	n/a	n/a
3571.018	n/a	RECOG_CONF	1785509	n/a	LTP088	ltpFR	4	3	0	DIVER	476	n/a	5	1	n/a	n/a	n/a	n/a	n/a
3573.406	n/a	RECOG_TARGET	1786703	n/a	LTP088	ltpFR	4	3	0	CROW	414	1	5	0	n/a	n/a	n/a	n/a	n/a
3574.156	n/a	RECOG_RESP	1787078	n/a	LTP088	ltpFR	4	3	0	CROW	414	1	n/a	0	n/a	n/a	n/a	n/a	n/a
3575.03	n/a	RECOG_CONF	1787515	n/a	LTP088	ltpFR	4	3	0	CROW	414	n/a	5	0	n/a	n/a	n/a	n/a	n/a
3576.686	n/a	RECOG_TARGET	1788343	n/a	LTP088	ltpFR	4	3	0	VENT	1556	1	5	0	n/a	n/a	n/a	n/a	n/a
3577.388	n/a	RECOG_RESP	1788694	n/a	LTP088	ltpFR	4	3	0	VENT	1556	1	n/a	0	n/a	n/a	n/a	n/a	n/a
3578.312	n/a	RECOG_CONF	1789156	n/a	LTP088	ltpFR	4	3	0	VENT	1556	n/a	5	0	n/a	n/a	n/a	n/a	n/a
3579.974	n/a	RECOG_TARGET	1789987	n/a	LTP088	ltpFR	4	3	-1	ALLEY	15	1	5	-1	n/a	n/a	n/a	n/a	n/a
3580.566	n/a	RECOG_RESP	1790283	n/a	LTP088	ltpFR	4	3	-1	ALLEY	15	1	n/a	-1	n/a	n/a	n/a	n/a	n/a
3581.734	n/a	RECOG_CONF	1790867	n/a	LTP088	ltpFR	4	3	-1	ALLEY	15	n/a	5	-1	n/a	n/a	n/a	n/a	n/a
3583.228	n/a	RECOG_TARGET	1791614	n/a	LTP088	ltpFR	4	3	0	PIRATE	1074	1	5	1	n/a	n/a	n/a	n/a	n/a
3583.84	n/a	RECOG_RESP	1791920	n/a	LTP088	ltpFR	4	3	0	PIRATE	1074	1	n/a	1	n/a	n/a	n/a	n/a	n/a
3584.678	n/a	RECOG_CONF	1792339	n/a	LTP088	ltpFR	4	3	0	PIRATE	1074	n/a	5	1	n/a	n/a	n/a	n/a	n/a
3586.166	n/a	RECOG_LURE	1793083	n/a	LTP088	ltpFR	4	3	n/a	DOCUMENT	479	0	1	n/a	n/a	n/a	n/a	n/a	n/a
3588.504	n/a	RECOG_RESP	1794252	n/a	LTP088	ltpFR	4	3	n/a	DOCUMENT	479	0	n/a	n/a	n/a	n/a	n/a	n/a	n/a
3589.576	n/a	RECOG_CONF	1794788	n/a	LTP088	ltpFR	4	3	n/a	DOCUMENT	479	n/a	1	n/a	n/a	n/a	n/a	n/a	n/a
3591.07	n/a	RECOG_TARGET	1795535	n/a	LTP088	ltpFR	4	3	0	SOFTBALL	1343	1	5	0	n/a	n/a	n/a	n/a	n/a
3591.772	n/a	RECOG_RESP	1795886	n/a	LTP088	ltpFR	4	3	0	SOFTBALL	1343	1	n/a	0	n/a	n/a	n/a	n/a	n/a
3592.63	n/a	RECOG_CONF	1796315	n/a	LTP088	ltpFR	4	3	0	SOFTBALL	1343	n/a	5	0	n/a	n/a	n/a	n/a	n/a
3594.124	n/a	RECOG_TARGET	1797062	n/a	LTP088	ltpFR	4	3	0	TRUMPET	1513	1	2	1	n/a	n/a	n/a	n/a	n/a
3595.064	n/a	RECOG_RESP	1797532	n/a	LTP088	ltpFR	4	3	0	TRUMPET	1513	1	n/a	1	n/a	n/a	n/a	n/a	n/a
3596.25	n/a	RECOG_CONF	1798125	n/a	LTP088	ltpFR	4	3	0	TRUMPET	1513	n/a	2	1	n/a	n/a	n/a	n/a	n/a
3597.686	n/a	RECOG_TARGET	1798843	n/a	LTP088	ltpFR	4	3	1	LAKE	796	0	2	0	n/a	n/a	n/a	n/a	n/a
3601.22	n/a	RECOG_RESP	1800610	n/a	LTP088	ltpFR	4	3	1	LAKE	796	0	n/a	0	n/a	n/a	n/a	n/a	n/a
3602.328	n/a	RECOG_CONF	1801164	n/a	LTP088	ltpFR	4	3	1	LAKE	796	n/a	2	0	n/a	n/a	n/a	n/a	n/a
3603.83	n/a	RECOG_TARGET	1801915	n/a	LTP088	ltpFR	4	3	1	CASHIER	254	1	5	1	n/a	n/a	n/a	n/a	n/a
3604.866	n/a	RECOG_RESP	1802433	n/a	LTP088	ltpFR	4	3	1	CASHIER	254	1	n/a	1	n/a	n/a	n/a	n/a	n/a
3606.128	n/a	RECOG_CONF	1803064	n/a	LTP088	ltpFR	4	3	1	CASHIER	254	n/a	5	1	n/a	n/a	n/a	n/a	n/a
3607.892	n/a	RECOG_LURE	1803946	n/a	LTP088	ltpFR	4	3	n/a	SHACK	1273	1	2	n/a	n/a	n/a	n/a	n/a	n/a
3608.688	n/a	RECOG_RESP	1804344	n/a	LTP088	ltpFR	4	3	n/a	SHACK	1273	1	n/a	n/a	n/a	n/a	n/a	n/a	n/a
3609.69	n/a	RECOG_CONF	1804845	n/a	LTP088	ltpFR	4	3	n/a	SHACK	1273	n/a	2	n/a	n/a	n/a	n/a	n/a	n/a
3611.014	n/a	RECOG_TARGET	1805507	n/a	LTP088	ltpFR	4	3	1	BALLOT	76	1	5	0	n/a	n/a	n/a	n/a	n/a
3612.074	n/a	RECOG_RESP	1806037	n/a	LTP088	ltpFR	4	3	1	BALLOT	76	1	n/a	0	n/a	n/a	n/a	n/a	n/a
3613.022	n/a	RECOG_CONF	1806511	n/a	LTP088	ltpFR	4	3	1	BALLOT	76	n/a	5	0	n/a	n/a	n/a	n/a	n/a
3614.458	n/a	RECOG_TARGET	1807229	n/a	LTP088	ltpFR	4	3	1	SUPERVISOR	1410	1	5	1	n/a	n/a	n/a	n/a	n/a
3615.048	n/a	RECOG_RESP	1807524	n/a	LTP088	ltpFR	4	3	1	SUPERVISOR	1410	1	n/a	1	n/a	n/a	n/a	n/a	n/a
3615.846	n/a	RECOG_CONF	1807923	n/a	LTP088	ltpFR	4	3	1	SUPERVISOR	1410	n/a	5	1	n/a	n/a	n/a	n/a	n/a
3617.564	n/a	RECOG_LURE	1808782	n/a	LTP088	ltpFR	4	3	n/a	STAPLE	1371	0	3	n/a	n/a	n/a	n/a	n/a	n/a
3618.79	n/a	RECOG_RESP	1809395	n/a	LTP088	ltpFR	4	3	n/a	STAPLE	1371	0	n/a	n/a	n/a	n/a	n/a	n/a	n/a
3620.296	n/a	RECOG_CONF	1810148	n/a	LTP088	ltpFR	4	3	n/a	STAPLE	1371	n/a	3	n/a	n/a	n/a	n/a	n/a	n/a
3621.916	n/a	RECOG_TARGET	1810958	n/a	LTP088	ltpFR	4	3	0	SAPPHIRE	1234	1	5	0	n/a	n/a	n/a	n/a	n/a
3622.576	n/a	RECOG_RESP	1811288	n/a	LTP088	ltpFR	4	3	0	SAPPHIRE	1234	1	n/a	0	n/a	n/a	n/a	n/a	n/a
3623.638	n/a	RECOG_CONF	1811819	n/a	LTP088	ltpFR	4	3	0	SAPPHIRE	1234	n/a	5	0	n/a	n/a	n/a	n/a	n/a
3625.454	n/a	RECOG_TARGET	1812727	n/a	LTP088	ltpFR	4	3	0	BAND	78	1	2	1	n/a	n/a	n/a	n/a	n/a
3626.912	n/a	RECOG_RESP	1813456	n/a	LTP088	ltpFR	4	3	0	BAND	78	1	n/a	1	n/a	n/a	n/a	n/a	n/a
3628.518	n/a	RECOG_CONF	1814259	n/a	LTP088	ltpFR	4	3	0	BAND	78	n/a	2	1	n/a	n/a	n/a	n/a	n/a
3629.992	n/a	RECOG_LURE	1814996	n/a	LTP088	ltpFR	4	3	n/a	PHOTO	1055	0	4	n/a	n/a	n/a	n/a	n/a	n/a
3631.176	n/a	RECOG_RESP	1815588	n/a	LTP088	ltpFR	4	3	n/a	PHOTO	1055	0	n/a	n/a	n/a	n/a	n/a	n/a	n/a
3632.408	n/a	RECOG_CONF	1816204	n/a	LTP088	ltpFR	4	3	n/a	PHOTO	1055	n/a	4	n/a	n/a	n/a	n/a	n/a	n/a
3636.35	n/a	REC_START	1818175	n/a	LTP088	ltpFR	4	4	n/a	n/a	n/a	n/a	n/a	n/a	n/a	n/a	n/a	n/a	n/a
3636.384	n/a	RECOG_TARGET	1818192	n/a	LTP088	ltpFR	4	4	1	SCREWDRIVER	1255	1	5	0	n/a	n/a	n/a	n/a	n/a
3637.122	n/a	RECOG_RESP	1818561	n/a	LTP088	ltpFR	4	4	1	SCREWDRIVER	1255	1	n/a	0	n/a	n/a	n/a	n/a	n/a
3638.03	n/a	RECOG_CONF	1819015	n/a	LTP088	ltpFR	4	4	1	SCREWDRIVER	1255	n/a	5	0	n/a	n/a	n/a	n/a	n/a
3639.554	n/a	RECOG_TARGET	1819777	n/a	LTP088	ltpFR	4	4	0	LAMB	797	1	5	1	n/a	n/a	n/a	n/a	n/a
3640.136	n/a	RECOG_RESP	1820068	n/a	LTP088	ltpFR	4	4	0	LAMB	797	1	n/a	1	n/a	n/a	n/a	n/a	n/a
3641.144	n/a	RECOG_CONF	1820572	n/a	LTP088	ltpFR	4	4	0	LAMB	797	n/a	5	1	n/a	n/a	n/a	n/a	n/a
3642.576	n/a	RECOG_TARGET	1821288	n/a	LTP088	ltpFR	4	4	0	FIGHTER	564	1	5	1	n/a	n/a	n/a	n/a	n/a
3643.324	n/a	RECOG_RESP	1821662	n/a	LTP088	ltpFR	4	4	0	FIGHTER	564	1	n/a	1	n/a	n/a	n/a	n/a	n/a
3644.676	n/a	RECOG_CONF	1822338	n/a	LTP088	ltpFR	4	4	0	FIGHTER	564	n/a	5	1	n/a	n/a	n/a	n/a	n/a
