onset	duration	trial_type	sample	stim_file	subject	experiment	session	trial	task	item_name	item_num	recog_conf	resp	answer	test_x	test_y	test_z	color_b	color_g	color_r	case	font
275.552	n/a	SESS_START	137776	n/a	LTP243	ltpFR	11	n/a	n/a	n/a	n/a	2	n/a	n/a	0	0	0	n/a	n/a	n/a	n/a	n/a
357.406	n/a	START	178703	n/a	LTP243	ltpFR	11	n/a	n/a	n/a	n/a	n/a	n/a	n/a	n/a	n/a	n/a	n/a	n/a	n/a	n/a	n/a
357.44	n/a	PROB	178720	n/a	LTP243	ltpFR	11	n/a	n/a	n/a	n/a	n/a	n/a	19	3	7	9	n/a	n/a	n/a	n/a	n/a
359.204	n/a	PROB	179602	n/a	LTP243	ltpFR	11	n/a	n/a	n/a	n/a	n/a	n/a	6	2	2	2	n/a	n/a	n/a	n/a	n/a
360.436	n/a	PROB	180218	n/a	LTP243	ltpFR	11	n/a	n/a	n/a	n/a	n/a	n/a	8	4	1	3	n/a	n/a	n/a	n/a	n/a
362.082	n/a	PROB	181041	n/a	LTP243	ltpFR	11	n/a	n/a	n/a	n/a	n/a	n/a	13	5	3	6	n/a	n/a	n/a	n/a	n/a
365.71	n/a	PROB	182855	n/a	LTP243	ltpFR	11	n/a	n/a	n/a	n/a	n/a	n/a	8	2	4	2	n/a	n/a	n/a	n/a	n/a
367.142	n/a	PROB	183571	n/a	LTP243	ltpFR	11	n/a	n/a	n/a	n/a	n/a	n/a	18	2	7	9	n/a	n/a	n/a	n/a	n/a
369.138	n/a	PROB	184569	n/a	LTP243	ltpFR	11	n/a	n/a	n/a	n/a	n/a	n/a	18	5	6	3	n/a	n/a	n/a	n/a	n/a
371.202	n/a	PROB	185601	n/a	LTP243	ltpFR	11	n/a	n/a	n/a	n/a	n/a	n/a	22	8	9	5	n/a	n/a	n/a	n/a	n/a
374.048	n/a	PROB	187024	n/a	LTP243	ltpFR	11	n/a	n/a	n/a	n/a	n/a	n/a	11	1	6	4	n/a	n/a	n/a	n/a	n/a
375.396	n/a	PROB	187698	n/a	LTP243	ltpFR	11	n/a	n/a	n/a	n/a	n/a	n/a	16	6	1	9	n/a	n/a	n/a	n/a	n/a
377.106	n/a	STOP	188553	n/a	LTP243	ltpFR	11	n/a	n/a	n/a	n/a	n/a	n/a	n/a	n/a	n/a	n/a	n/a	n/a	n/a	n/a	n/a
464.166	n/a	WORD	232083	wordpools/wasnorm_wordpool_less_exclusions.txt	LTP243	ltpFR	11	1	1	UNDERWEAR	1537	n/a	0	n/a	0	0	0	0	0.5869140625	0.422607421875	lower	../fonts/amplitud.ttf
468.044	n/a	WORD	234022	wordpools/wasnorm_wordpool_less_exclusions.txt	LTP243	ltpFR	11	1	1	ATMOSPHERE	54	n/a	0	n/a	0	0	0	0	0.5869140625	0.422607421875	lower	../fonts/amplitud.ttf
472.036	n/a	WORD	236018	wordpools/wasnorm_wordpool_less_exclusions.txt	LTP243	ltpFR	11	1	1	BALLOON	75	n/a	0	n/a	0	0	0	0	0.5869140625	0.422607421875	lower	../fonts/amplitud.ttf
476.132	n/a	WORD	238066	wordpools/wasnorm_wordpool_less_exclusions.txt	LTP243	ltpFR	11	1	1	SENATE	1267	n/a	0	n/a	0	0	0	0	0.5869140625	0.422607421875	lower	../fonts/amplitud.ttf
480.242	n/a	WORD	240121	wordpools/wasnorm_wordpool_less_exclusions.txt	LTP243	ltpFR	11	1	0	GIRAFFE	636	n/a	1	n/a	0	0	0	1	0.412841796875	0.57763671875	upper	../fonts/zerothre.ttf
484.386	n/a	WORD	242193	wordpools/wasnorm_wordpool_less_exclusions.txt	LTP243	ltpFR	11	1	0	LEG	809	n/a	1	n/a	0	0	0	1	0.412841796875	0.57763671875	upper	../fonts/zerothre.ttf
488.264	n/a	WORD	244132	wordpools/wasnorm_wordpool_less_exclusions.txt	LTP243	ltpFR	11	1	0	POPE	1105	n/a	1	n/a	0	0	0	1	0.412841796875	0.57763671875	upper	../fonts/zerothre.ttf
492.34	n/a	WORD	246170	wordpools/wasnorm_wordpool_less_exclusions.txt	LTP243	ltpFR	11	1	0	POCKET	1093	n/a	0	n/a	0	0	0	1	0.412841796875	0.57763671875	upper	../fonts/zerothre.ttf
496.334	n/a	WORD	248167	wordpools/wasnorm_wordpool_less_exclusions.txt	LTP243	ltpFR	11	1	1	KEEPER	769	n/a	1	n/a	0	0	0	0	0.5869140625	0.422607421875	lower	../fonts/amplitud.ttf
500.396	n/a	WORD	250198	wordpools/wasnorm_wordpool_less_exclusions.txt	LTP243	ltpFR	11	1	1	ORNAMENT	985	n/a	0	n/a	0	0	0	0	0.5869140625	0.422607421875	lower	../fonts/amplitud.ttf
504.538	n/a	WORD	252269	wordpools/wasnorm_wordpool_less_exclusions.txt	LTP243	ltpFR	11	1	1	REINDEER	1181	n/a	1	n/a	0	0	0	0	0.5869140625	0.422607421875	lower	../fonts/amplitud.ttf
508.434	n/a	WORD	254217	wordpools/wasnorm_wordpool_less_exclusions.txt	LTP243	ltpFR	11	1	1	BARREL	91	n/a	0	n/a	0	0	0	0	0.5869140625	0.422607421875	lower	../fonts/amplitud.ttf
512.494	n/a	WORD	256247	wordpools/wasnorm_wordpool_less_exclusions.txt	LTP243	ltpFR	11	1	0	PURSE	1145	n/a	1	n/a	0	0	0	1	0.412841796875	0.57763671875	upper	../fonts/zerothre.ttf
516.52	n/a	WORD	258260	wordpools/wasnorm_wordpool_less_exclusions.txt	LTP243	ltpFR	11	1	0	ATTIRE	57	n/a	1	n/a	0	0	0	1	0.412841796875	0.57763671875	upper	../fonts/zerothre.ttf
520.348	n/a	WORD	260174	wordpools/wasnorm_wordpool_less_exclusions.txt	LTP243	ltpFR	11	1	0	ROBE	1198	n/a	1	n/a	0	0	0	1	0.412841796875	0.57763671875	upper	../fonts/zerothre.ttf
524.392	n/a	WORD	262196	wordpools/wasnorm_wordpool_less_exclusions.txt	LTP243	ltpFR	11	1	0	SUITCASE	1403	n/a	1	n/a	0	0	0	1	0.412841796875	0.57763671875	upper	../fonts/zerothre.ttf
527.404	n/a	START	263702	n/a	LTP243	ltpFR	11	n/a	n/a	n/a	n/a	n/a	n/a	n/a	n/a	n/a	n/a	n/a	n/a	n/a	n/a	n/a
528.304	n/a	PROB	264152	n/a	LTP243	ltpFR	11	n/a	n/a	n/a	n/a	n/a	n/a	9	6	1	2	n/a	n/a	n/a	n/a	n/a
530.734	n/a	PROB	265367	n/a	LTP243	ltpFR	11	n/a	n/a	n/a	n/a	n/a	n/a	17	9	5	3	n/a	n/a	n/a	n/a	n/a
532.714	n/a	PROB	266357	n/a	LTP243	ltpFR	11	n/a	n/a	n/a	n/a	n/a	n/a	18	7	5	6	n/a	n/a	n/a	n/a	n/a
534.606	n/a	STOP	267303	n/a	LTP243	ltpFR	11	n/a	n/a	n/a	n/a	n/a	n/a	n/a	n/a	n/a	n/a	n/a	n/a	n/a	n/a	n/a
537.226	n/a	REC_START	268613	n/a	LTP243	ltpFR	11	1	n/a	n/a	n/a	n/a	n/a	n/a	0	0	0	n/a	n/a	n/a	n/a	n/a
538.368	n/a	REC_WORD	269184	wordpools/wasnorm_wordpool_less_exclusions.txt	LTP243	ltpFR	11	1	0	POPE	1105	n/a	1	n/a	0	0	0	n/a	n/a	n/a	n/a	n/a
539.236	n/a	REC_WORD	269618	wordpools/wasnorm_wordpool_less_exclusions.txt	LTP243	ltpFR	11	1	0	ROBE	1198	n/a	1	n/a	0	0	0	n/a	n/a	n/a	n/a	n/a
540.208	n/a	REC_WORD	270104	wordpools/wasnorm_wordpool_less_exclusions.txt	LTP243	ltpFR	11	1	0	ATTIRE	57	n/a	1	n/a	0	0	0	n/a	n/a	n/a	n/a	n/a
541.486	n/a	REC_WORD	270743	wordpools/wasnorm_wordpool_less_exclusions.txt	LTP243	ltpFR	11	1	0	POCKET	1093	n/a	0	n/a	0	0	0	n/a	n/a	n/a	n/a	n/a
542.722	n/a	REC_WORD	271361	wordpools/wasnorm_wordpool_less_exclusions.txt	LTP243	ltpFR	11	1	1	ATMOSPHERE	54	n/a	0	n/a	0	0	0	n/a	n/a	n/a	n/a	n/a
543.91	n/a	REC_WORD	271955	wordpools/wasnorm_wordpool_less_exclusions.txt	LTP243	ltpFR	11	1	0	GIRAFFE	636	n/a	1	n/a	0	0	0	n/a	n/a	n/a	n/a	n/a
546.136	n/a	REC_WORD	273068	wordpools/wasnorm_wordpool_less_exclusions.txt	LTP243	ltpFR	11	1	0	PURSE	1145	n/a	1	n/a	0	0	0	n/a	n/a	n/a	n/a	n/a
548.774	n/a	REC_WORD	274387	wordpools/wasnorm_wordpool_less_exclusions.txt	LTP243	ltpFR	11	1	1	SENATE	1267	n/a	0	n/a	0	0	0	n/a	n/a	n/a	n/a	n/a
550.166	n/a	REC_WORD	275083	wordpools/wasnorm_wordpool_less_exclusions.txt	LTP243	ltpFR	11	1	1	ATMOSPHERE	54	n/a	0	n/a	0	0	0	n/a	n/a	n/a	n/a	n/a
552.102	n/a	REC_WORD	276051	wordpools/wasnorm_wordpool_less_exclusions.txt	LTP243	ltpFR	11	1	1	BALLOON	75	n/a	0	n/a	0	0	0	n/a	n/a	n/a	n/a	n/a
555.22	n/a	REC_WORD	277610	wordpools/wasnorm_wordpool_less_exclusions.txt	LTP243	ltpFR	11	1	1	UNDERWEAR	1537	n/a	0	n/a	0	0	0	n/a	n/a	n/a	n/a	n/a
558.802	n/a	REC_WORD	279401	wordpools/wasnorm_wordpool_less_exclusions.txt	LTP243	ltpFR	11	1	0	ROBE	1198	n/a	1	n/a	0	0	0	n/a	n/a	n/a	n/a	n/a
560.332	n/a	REC_WORD	280166	wordpools/wasnorm_wordpool_less_exclusions.txt	LTP243	ltpFR	11	1	0	POPE	1105	n/a	1	n/a	0	0	0	n/a	n/a	n/a	n/a	n/a
570.056	n/a	REC_WORD	285028	wordpools/wasnorm_wordpool_less_exclusions.txt	LTP243	ltpFR	11	1	0	POCKET	1093	n/a	0	n/a	0	0	0	n/a	n/a	n/a	n/a	n/a
578.636	n/a	REC_WORD	289318	wordpools/wasnorm_wordpool_less_exclusions.txt	LTP243	ltpFR	11	1	0	LEG	809	n/a	1	n/a	0	0	0	n/a	n/a	n/a	n/a	n/a
643.384	n/a	START	321692	n/a	LTP243	ltpFR	11	n/a	n/a	n/a	n/a	n/a	n/a	n/a	n/a	n/a	n/a	n/a	n/a	n/a	n/a	n/a
644.898	n/a	PROB	322449	n/a	LTP243	ltpFR	11	n/a	n/a	n/a	n/a	n/a	n/a	10	5	3	2	n/a	n/a	n/a	n/a	n/a
647.91	n/a	PROB	323955	n/a	LTP243	ltpFR	11	n/a	n/a	n/a	n/a	n/a	n/a	13	7	1	5	n/a	n/a	n/a	n/a	n/a
650.166	n/a	STOP	325083	n/a	LTP243	ltpFR	11	n/a	n/a	n/a	n/a	n/a	n/a	n/a	n/a	n/a	n/a	n/a	n/a	n/a	n/a	n/a
652.586	n/a	WORD	326293	wordpools/wasnorm_wordpool_less_exclusions.txt	LTP243	ltpFR	11	2	0	CREATURE	403	n/a	1	n/a	0	0	0	1	0.412841796875	0.57763671875	upper	../fonts/zerothre.ttf
655.6	n/a	START	327800	n/a	LTP243	ltpFR	11	n/a	n/a	n/a	n/a	n/a	n/a	n/a	n/a	n/a	n/a	n/a	n/a	n/a	n/a	n/a
656.598	n/a	PROB	328299	n/a	LTP243	ltpFR	11	n/a	n/a	n/a	n/a	n/a	n/a	17	6	3	8	n/a	n/a	n/a	n/a	n/a
659.144	n/a	PROB	329572	n/a	LTP243	ltpFR	11	n/a	n/a	n/a	n/a	n/a	n/a	6	1	4	1	n/a	n/a	n/a	n/a	n/a
660.242	n/a	PROB	330121	n/a	LTP243	ltpFR	11	n/a	n/a	n/a	n/a	n/a	n/a	21	6	8	7	n/a	n/a	n/a	n/a	n/a
662.374	n/a	STOP	331187	n/a	LTP243	ltpFR	11	n/a	n/a	n/a	n/a	n/a	n/a	n/a	n/a	n/a	n/a	n/a	n/a	n/a	n/a	n/a
664.552	n/a	WORD	332276	wordpools/wasnorm_wordpool_less_exclusions.txt	LTP243	ltpFR	11	2	0	DOOR	486	n/a	1	n/a	0	0	0	1	0.412841796875	0.57763671875	upper	../fonts/zerothre.ttf
667.564	n/a	START	333782	n/a	LTP243	ltpFR	11	n/a	n/a	n/a	n/a	n/a	n/a	n/a	n/a	n/a	n/a	n/a	n/a	n/a	n/a	n/a
668.696	n/a	PROB	334348	n/a	LTP243	ltpFR	11	n/a	n/a	n/a	n/a	n/a	n/a	19	3	7	9	n/a	n/a	n/a	n/a	n/a
670.126	n/a	PROB	335063	n/a	LTP243	ltpFR	11	n/a	n/a	n/a	n/a	n/a	n/a	18	9	1	8	n/a	n/a	n/a	n/a	n/a
671.524	n/a	PROB	335762	n/a	LTP243	ltpFR	11	n/a	n/a	n/a	n/a	n/a	n/a	8	1	3	4	n/a	n/a	n/a	n/a	n/a
673.388	n/a	PROB	336694	n/a	LTP243	ltpFR	11	n/a	n/a	n/a	n/a	n/a	n/a	18	6	5	7	n/a	n/a	n/a	n/a	n/a
675.158	n/a	STOP	337579	n/a	LTP243	ltpFR	11	n/a	n/a	n/a	n/a	n/a	n/a	n/a	n/a	n/a	n/a	n/a	n/a	n/a	n/a	n/a
676.584	n/a	WORD	338292	wordpools/wasnorm_wordpool_less_exclusions.txt	LTP243	ltpFR	11	2	0	HALL	677	n/a	1	n/a	0	0	0	1	0.412841796875	0.57763671875	upper	../fonts/zerothre.ttf
679.596	n/a	START	339798	n/a	LTP243	ltpFR	11	n/a	n/a	n/a	n/a	n/a	n/a	n/a	n/a	n/a	n/a	n/a	n/a	n/a	n/a	n/a
680.546	n/a	PROB	340273	n/a	LTP243	ltpFR	11	n/a	n/a	n/a	n/a	n/a	n/a	14	7	5	2	n/a	n/a	n/a	n/a	n/a
681.944	n/a	PROB	340972	n/a	LTP243	ltpFR	11	n/a	n/a	n/a	n/a	n/a	n/a	7	3	3	1	n/a	n/a	n/a	n/a	n/a
683.474	n/a	PROB	341737	n/a	LTP243	ltpFR	11	n/a	n/a	n/a	n/a	n/a	n/a	14	2	7	6	n/a	n/a	n/a	n/a	n/a
686.408	n/a	STOP	343204	n/a	LTP243	ltpFR	11	n/a	n/a	n/a	n/a	n/a	n/a	n/a	n/a	n/a	n/a	n/a	n/a	n/a	n/a	n/a
688.418	n/a	WORD	344209	wordpools/wasnorm_wordpool_less_exclusions.txt	LTP243	ltpFR	11	2	0	SWAMP	1416	n/a	1	n/a	0	0	0	1	0.412841796875	0.57763671875	upper	../fonts/zerothre.ttf
691.43	n/a	START	345715	n/a	LTP243	ltpFR	11	n/a	n/a	n/a	n/a	n/a	n/a	n/a	n/a	n/a	n/a	n/a	n/a	n/a	n/a	n/a
692.344	n/a	PROB	346172	n/a	LTP243	ltpFR	11	n/a	n/a	n/a	n/a	n/a	n/a	9	4	3	2	n/a	n/a	n/a	n/a	n/a
694.208	n/a	PROB	347104	n/a	LTP243	ltpFR	11	n/a	n/a	n/a	n/a	n/a	n/a	17	3	7	7	n/a	n/a	n/a	n/a	n/a
695.624	n/a	PROB	347812	n/a	LTP243	ltpFR	11	n/a	n/a	n/a	n/a	n/a	n/a	16	4	8	4	n/a	n/a	n/a	n/a	n/a
699.43	n/a	STOP	349715	n/a	LTP243	ltpFR	11	n/a	n/a	n/a	n/a	n/a	n/a	n/a	n/a	n/a	n/a	n/a	n/a	n/a	n/a	n/a
700.466	n/a	WORD	350233	wordpools/wasnorm_wordpool_less_exclusions.txt	LTP243	ltpFR	11	2	0	POPCORN	1104	n/a	0	n/a	0	0	0	1	0.412841796875	0.57763671875	upper	../fonts/zerothre.ttf
703.478	n/a	START	351739	n/a	LTP243	ltpFR	11	n/a	n/a	n/a	n/a	n/a	n/a	n/a	n/a	n/a	n/a	n/a	n/a	n/a	n/a	n/a
704.46	n/a	PROB	352230	n/a	LTP243	ltpFR	11	n/a	n/a	n/a	n/a	n/a	n/a	10	9	8	3	n/a	n/a	n/a	n/a	n/a
707.472	n/a	PROB	353736	n/a	LTP243	ltpFR	11	n/a	n/a	n/a	n/a	n/a	n/a	19	6	6	7	n/a	n/a	n/a	n/a	n/a
709.502	n/a	PROB	354751	n/a	LTP243	ltpFR	11	n/a	n/a	n/a	n/a	n/a	n/a	16	6	8	2	n/a	n/a	n/a	n/a	n/a
710.888	n/a	STOP	355444	n/a	LTP243	ltpFR	11	n/a	n/a	n/a	n/a	n/a	n/a	n/a	n/a	n/a	n/a	n/a	n/a	n/a	n/a	n/a
712.314	n/a	WORD	356157	wordpools/wasnorm_wordpool_less_exclusions.txt	LTP243	ltpFR	11	2	1	OREGANO	983	n/a	0	n/a	0	0	0	0	0.5869140625	0.422607421875	lower	../fonts/amplitud.ttf
715.328	n/a	START	357664	n/a	LTP243	ltpFR	11	n/a	n/a	n/a	n/a	n/a	n/a	n/a	n/a	n/a	n/a	n/a	n/a	n/a	n/a	n/a
716.192	n/a	PROB	358096	n/a	LTP243	ltpFR	11	n/a	n/a	n/a	n/a	n/a	n/a	24	8	8	6	n/a	n/a	n/a	n/a	n/a
718.456	n/a	PROB	359228	n/a	LTP243	ltpFR	11	n/a	n/a	n/a	n/a	n/a	n/a	21	7	5	9	n/a	n/a	n/a	n/a	n/a
720.602	n/a	PROB	360301	n/a	LTP243	ltpFR	11	n/a	n/a	n/a	n/a	n/a	n/a	16	8	7	1	n/a	n/a	n/a	n/a	n/a
722.016	n/a	STOP	361008	n/a	LTP243	ltpFR	11	n/a	n/a	n/a	n/a	n/a	n/a	n/a	n/a	n/a	n/a	n/a	n/a	n/a	n/a	n/a
724.364	n/a	WORD	362182	wordpools/wasnorm_wordpool_less_exclusions.txt	LTP243	ltpFR	11	2	1	SHARK	1275	n/a	1	n/a	0	0	0	0	0.5869140625	0.422607421875	lower	../fonts/amplitud.ttf
727.376	n/a	START	363688	n/a	LTP243	ltpFR	11	n/a	n/a	n/a	n/a	n/a	n/a	n/a	n/a	n/a	n/a	n/a	n/a	n/a	n/a	n/a
728.274	n/a	PROB	364137	n/a	LTP243	ltpFR	11	n/a	n/a	n/a	n/a	n/a	n/a	20	8	9	3	n/a	n/a	n/a	n/a	n/a
730.92	n/a	PROB	365460	n/a	LTP243	ltpFR	11	n/a	n/a	n/a	n/a	n/a	n/a	13	3	5	5	n/a	n/a	n/a	n/a	n/a
732.368	n/a	PROB	366184	n/a	LTP243	ltpFR	11	n/a	n/a	n/a	n/a	n/a	n/a	16	5	7	4	n/a	n/a	n/a	n/a	n/a
733.928	n/a	STOP	366964	n/a	LTP243	ltpFR	11	n/a	n/a	n/a	n/a	n/a	n/a	n/a	n/a	n/a	n/a	n/a	n/a	n/a	n/a	n/a
736.512	n/a	WORD	368256	wordpools/wasnorm_wordpool_less_exclusions.txt	LTP243	ltpFR	11	2	1	COD	340	n/a	1	n/a	0	0	0	0	0.5869140625	0.422607421875	lower	../fonts/amplitud.ttf
739.524	n/a	START	369762	n/a	LTP243	ltpFR	11	n/a	n/a	n/a	n/a	n/a	n/a	n/a	n/a	n/a	n/a	n/a	n/a	n/a	n/a	n/a
740.422	n/a	PROB	370211	n/a	LTP243	ltpFR	11	n/a	n/a	n/a	n/a	n/a	n/a	24	6	8	8	n/a	n/a	n/a	n/a	n/a
742.188	n/a	PROB	371094	n/a	LTP243	ltpFR	11	n/a	n/a	n/a	n/a	n/a	n/a	7	2	4	1	n/a	n/a	n/a	n/a	n/a
744.068	n/a	PROB	372034	n/a	LTP243	ltpFR	11	n/a	n/a	n/a	n/a	n/a	n/a	14	3	2	9	n/a	n/a	n/a	n/a	n/a
746.264	n/a	STOP	373132	n/a	LTP243	ltpFR	11	n/a	n/a	n/a	n/a	n/a	n/a	n/a	n/a	n/a	n/a	n/a	n/a	n/a	n/a	n/a
748.678	n/a	WORD	374339	wordpools/wasnorm_wordpool_less_exclusions.txt	LTP243	ltpFR	11	2	1	TUNNEL	1519	n/a	0	n/a	0	0	0	0	0.5869140625	0.422607421875	lower	../fonts/amplitud.ttf
751.69	n/a	START	375845	n/a	LTP243	ltpFR	11	n/a	n/a	n/a	n/a	n/a	n/a	n/a	n/a	n/a	n/a	n/a	n/a	n/a	n/a	n/a
752.788	n/a	PROB	376394	n/a	LTP243	ltpFR	11	n/a	n/a	n/a	n/a	n/a	n/a	21	8	9	4	n/a	n/a	n/a	n/a	n/a
754.936	n/a	PROB	377468	n/a	LTP243	ltpFR	11	n/a	n/a	n/a	n/a	n/a	n/a	12	5	6	1	n/a	n/a	n/a	n/a	n/a
756.584	n/a	PROB	378292	n/a	LTP243	ltpFR	11	n/a	n/a	n/a	n/a	n/a	n/a	16	3	4	9	n/a	n/a	n/a	n/a	n/a
758.192	n/a	STOP	379096	n/a	LTP243	ltpFR	11	n/a	n/a	n/a	n/a	n/a	n/a	n/a	n/a	n/a	n/a	n/a	n/a	n/a	n/a	n/a
760.826	n/a	WORD	380413	wordpools/wasnorm_wordpool_less_exclusions.txt	LTP243	ltpFR	11	2	0	DIVER	476	n/a	1	n/a	0	0	0	1	0.412841796875	0.57763671875	upper	../fonts/zerothre.ttf
763.84	n/a	START	381920	n/a	LTP243	ltpFR	11	n/a	n/a	n/a	n/a	n/a	n/a	n/a	n/a	n/a	n/a	n/a	n/a	n/a	n/a	n/a
764.888	n/a	PROB	382444	n/a	LTP243	ltpFR	11	n/a	n/a	n/a	n/a	n/a	n/a	16	6	5	5	n/a	n/a	n/a	n/a	n/a
766.268	n/a	PROB	383134	n/a	LTP243	ltpFR	11	n/a	n/a	n/a	n/a	n/a	n/a	7	3	5	1	n/a	n/a	n/a	n/a	n/a
768.616	n/a	PROB	384308	n/a	LTP243	ltpFR	11	n/a	n/a	n/a	n/a	n/a	n/a	20	6	8	6	n/a	n/a	n/a	n/a	n/a
770.88	n/a	STOP	385440	n/a	LTP243	ltpFR	11	n/a	n/a	n/a	n/a	n/a	n/a	n/a	n/a	n/a	n/a	n/a	n/a	n/a	n/a	n/a
772.942	n/a	WORD	386471	wordpools/wasnorm_wordpool_less_exclusions.txt	LTP243	ltpFR	11	2	0	SCREW	1254	n/a	0	n/a	0	0	0	1	0.412841796875	0.57763671875	upper	../fonts/zerothre.ttf
775.954	n/a	START	387977	n/a	LTP243	ltpFR	11	n/a	n/a	n/a	n/a	n/a	n/a	n/a	n/a	n/a	n/a	n/a	n/a	n/a	n/a	n/a
776.802	n/a	PROB	388401	n/a	LTP243	ltpFR	11	n/a	n/a	n/a	n/a	n/a	n/a	16	3	9	4	n/a	n/a	n/a	n/a	n/a
778.534	n/a	PROB	389267	n/a	LTP243	ltpFR	11	n/a	n/a	n/a	n/a	n/a	n/a	17	5	8	4	n/a	n/a	n/a	n/a	n/a
781.028	n/a	PROB	390514	n/a	LTP243	ltpFR	11	n/a	n/a	n/a	n/a	n/a	n/a	13	4	1	8	n/a	n/a	n/a	n/a	n/a
783.144	n/a	STOP	391572	n/a	LTP243	ltpFR	11	n/a	n/a	n/a	n/a	n/a	n/a	n/a	n/a	n/a	n/a	n/a	n/a	n/a	n/a	n/a
785.09	n/a	WORD	392545	wordpools/wasnorm_wordpool_less_exclusions.txt	LTP243	ltpFR	11	2	0	AUTOMOBILE	62	n/a	1	n/a	0	0	0	1	0.412841796875	0.57763671875	upper	../fonts/zerothre.ttf
788.104	n/a	START	394052	n/a	LTP243	ltpFR	11	n/a	n/a	n/a	n/a	n/a	n/a	n/a	n/a	n/a	n/a	n/a	n/a	n/a	n/a	n/a
789.084	n/a	PROB	394542	n/a	LTP243	ltpFR	11	n/a	n/a	n/a	n/a	n/a	n/a	16	4	9	3	n/a	n/a	n/a	n/a	n/a
790.632	n/a	PROB	395316	n/a	LTP243	ltpFR	11	n/a	n/a	n/a	n/a	n/a	n/a	16	4	5	3	n/a	n/a	n/a	n/a	n/a
792.78	n/a	PROB	396390	n/a	LTP243	ltpFR	11	n/a	n/a	n/a	n/a	n/a	n/a	23	9	4	8	n/a	n/a	n/a	n/a	n/a
795.736	n/a	STOP	397868	n/a	LTP243	ltpFR	11	n/a	n/a	n/a	n/a	n/a	n/a	n/a	n/a	n/a	n/a	n/a	n/a	n/a	n/a	n/a
797.272	n/a	WORD	398636	wordpools/wasnorm_wordpool_less_exclusions.txt	LTP243	ltpFR	11	2	1	SPICE	1350	n/a	0	n/a	0	0	0	0	0.5869140625	0.422607421875	lower	../fonts/amplitud.ttf
800.284	n/a	START	400142	n/a	LTP243	ltpFR	11	n/a	n/a	n/a	n/a	n/a	n/a	n/a	n/a	n/a	n/a	n/a	n/a	n/a	n/a	n/a
801.382	n/a	PROB	400691	n/a	LTP243	ltpFR	11	n/a	n/a	n/a	n/a	n/a	n/a	16	3	7	6	n/a	n/a	n/a	n/a	n/a
802.648	n/a	PROB	401324	n/a	LTP243	ltpFR	11	n/a	n/a	n/a	n/a	n/a	n/a	19	9	7	3	n/a	n/a	n/a	n/a	n/a
804.694	n/a	PROB	402347	n/a	LTP243	ltpFR	11	n/a	n/a	n/a	n/a	n/a	n/a	16	2	6	8	n/a	n/a	n/a	n/a	n/a
808.284	n/a	STOP	404142	n/a	LTP243	ltpFR	11	n/a	n/a	n/a	n/a	n/a	n/a	n/a	n/a	n/a	n/a	n/a	n/a	n/a	n/a	n/a
809.388	n/a	WORD	404694	wordpools/wasnorm_wordpool_less_exclusions.txt	LTP243	ltpFR	11	2	1	BOSS	152	n/a	1	n/a	0	0	0	0	0.5869140625	0.422607421875	lower	../fonts/amplitud.ttf
812.4	n/a	START	406200	n/a	LTP243	ltpFR	11	n/a	n/a	n/a	n/a	n/a	n/a	n/a	n/a	n/a	n/a	n/a	n/a	n/a	n/a	n/a
813.514	n/a	PROB	406757	n/a	LTP243	ltpFR	11	n/a	n/a	n/a	n/a	n/a	n/a	22	7	9	6	n/a	n/a	n/a	n/a	n/a
816.394	n/a	PROB	408197	n/a	LTP243	ltpFR	11	n/a	n/a	n/a	n/a	n/a	n/a	23	9	7	7	n/a	n/a	n/a	n/a	n/a
819.336	n/a	STOP	409668	n/a	LTP243	ltpFR	11	n/a	n/a	n/a	n/a	n/a	n/a	n/a	n/a	n/a	n/a	n/a	n/a	n/a	n/a	n/a
821.386	n/a	WORD	410693	wordpools/wasnorm_wordpool_less_exclusions.txt	LTP243	ltpFR	11	2	1	COOK	372	n/a	1	n/a	0	0	0	0	0.5869140625	0.422607421875	lower	../fonts/amplitud.ttf
824.398	n/a	START	412199	n/a	LTP243	ltpFR	11	n/a	n/a	n/a	n/a	n/a	n/a	n/a	n/a	n/a	n/a	n/a	n/a	n/a	n/a	n/a
825.414	n/a	PROB	412707	n/a	LTP243	ltpFR	11	n/a	n/a	n/a	n/a	n/a	n/a	15	2	4	9	n/a	n/a	n/a	n/a	n/a
827.412	n/a	PROB	413706	n/a	LTP243	ltpFR	11	n/a	n/a	n/a	n/a	n/a	n/a	17	6	5	6	n/a	n/a	n/a	n/a	n/a
830.09	n/a	PROB	415045	n/a	LTP243	ltpFR	11	n/a	n/a	n/a	n/a	n/a	n/a	10	4	2	3	n/a	n/a	n/a	n/a	n/a
831.874	n/a	STOP	415937	n/a	LTP243	ltpFR	11	n/a	n/a	n/a	n/a	n/a	n/a	n/a	n/a	n/a	n/a	n/a	n/a	n/a	n/a	n/a
833.302	n/a	WORD	416651	wordpools/wasnorm_wordpool_less_exclusions.txt	LTP243	ltpFR	11	2	1	HUMAN	726	n/a	1	n/a	0	0	0	0	0.5869140625	0.422607421875	lower	../fonts/amplitud.ttf
836.316	n/a	START	418158	n/a	LTP243	ltpFR	11	n/a	n/a	n/a	n/a	n/a	n/a	n/a	n/a	n/a	n/a	n/a	n/a	n/a	n/a	n/a
837.148	n/a	PROB	418574	n/a	LTP243	ltpFR	11	n/a	n/a	n/a	n/a	n/a	n/a	12	1	2	9	n/a	n/a	n/a	n/a	n/a
838.478	n/a	PROB	419239	n/a	LTP243	ltpFR	11	n/a	n/a	n/a	n/a	n/a	n/a	13	6	3	4	n/a	n/a	n/a	n/a	n/a
840.742	n/a	PROB	420371	n/a	LTP243	ltpFR	11	n/a	n/a	n/a	n/a	n/a	n/a	17	6	6	5	n/a	n/a	n/a	n/a	n/a
842.572	n/a	PROB	421286	n/a	LTP243	ltpFR	11	n/a	n/a	n/a	n/a	n/a	n/a	12	7	2	3	n/a	n/a	n/a	n/a	n/a
844.002	n/a	STOP	422001	n/a	LTP243	ltpFR	11	n/a	n/a	n/a	n/a	n/a	n/a	n/a	n/a	n/a	n/a	n/a	n/a	n/a	n/a	n/a
846.068	n/a	REC_START	423034	n/a	LTP243	ltpFR	11	2	n/a	n/a	n/a	n/a	n/a	n/a	0	0	0	n/a	n/a	n/a	n/a	n/a
847.364	n/a	REC_WORD	423682	wordpools/wasnorm_wordpool_less_exclusions.txt	LTP243	ltpFR	11	2	1	COD	340	n/a	1	n/a	0	0	0	n/a	n/a	n/a	n/a	n/a
848.776	n/a	REC_WORD	424388	wordpools/wasnorm_wordpool_less_exclusions.txt	LTP243	ltpFR	11	2	1	SHARK	1275	n/a	1	n/a	0	0	0	n/a	n/a	n/a	n/a	n/a
849.898	n/a	REC_WORD	424949	wordpools/wasnorm_wordpool_less_exclusions.txt	LTP243	ltpFR	11	2	1	HUMAN	726	n/a	1	n/a	0	0	0	n/a	n/a	n/a	n/a	n/a
852.354	n/a	REC_WORD	426177	wordpools/wasnorm_wordpool_less_exclusions.txt	LTP243	ltpFR	11	2	1	COOK	372	n/a	1	n/a	0	0	0	n/a	n/a	n/a	n/a	n/a
857.168	n/a	REC_WORD	428584	wordpools/wasnorm_wordpool_less_exclusions.txt	LTP243	ltpFR	11	2	0	SWAMP	1416	n/a	1	n/a	0	0	0	n/a	n/a	n/a	n/a	n/a
858.17	n/a	REC_WORD	429085	wordpools/wasnorm_wordpool_less_exclusions.txt	LTP243	ltpFR	11	2	n/a	MARSH	874	n/a	n/a	n/a	0	0	0	n/a	n/a	n/a	n/a	n/a
859.328	n/a	REC_WORD	429664	wordpools/wasnorm_wordpool_less_exclusions.txt	LTP243	ltpFR	11	2	0	DIVER	476	n/a	1	n/a	0	0	0	n/a	n/a	n/a	n/a	n/a
860.744	n/a	REC_WORD	430372	wordpools/wasnorm_wordpool_less_exclusions.txt	LTP243	ltpFR	11	2	0	CREATURE	403	n/a	1	n/a	0	0	0	n/a	n/a	n/a	n/a	n/a
862.086	n/a	REC_WORD	431043	wordpools/wasnorm_wordpool_less_exclusions.txt	LTP243	ltpFR	11	2	0	DOOR	486	n/a	1	n/a	0	0	0	n/a	n/a	n/a	n/a	n/a
863.198	n/a	REC_WORD	431599	wordpools/wasnorm_wordpool_less_exclusions.txt	LTP243	ltpFR	11	2	0	HALL	677	n/a	1	n/a	0	0	0	n/a	n/a	n/a	n/a	n/a
864.52	n/a	REC_WORD	432260	wordpools/wasnorm_wordpool_less_exclusions.txt	LTP243	ltpFR	11	2	0	POPCORN	1104	n/a	0	n/a	0	0	0	n/a	n/a	n/a	n/a	n/a
866.984	n/a	REC_WORD	433492	wordpools/wasnorm_wordpool_less_exclusions.txt	LTP243	ltpFR	11	2	0	POPCORN	1104	n/a	0	n/a	0	0	0	n/a	n/a	n/a	n/a	n/a
872.368	n/a	REC_WORD	436184	wordpools/wasnorm_wordpool_less_exclusions.txt	LTP243	ltpFR	11	2	0	AUTOMOBILE	62	n/a	1	n/a	0	0	0	n/a	n/a	n/a	n/a	n/a
874.244	n/a	REC_WORD	437122	wordpools/wasnorm_wordpool_less_exclusions.txt	LTP243	ltpFR	11	2	n/a	BRIEFCASE	175	n/a	n/a	n/a	0	0	0	n/a	n/a	n/a	n/a	n/a
900.828	n/a	REC_WORD	450414	wordpools/wasnorm_wordpool_less_exclusions.txt	LTP243	ltpFR	11	2	1	OREGANO	983	n/a	0	n/a	0	0	0	n/a	n/a	n/a	n/a	n/a
902.17	n/a	REC_WORD	451085	wordpools/wasnorm_wordpool_less_exclusions.txt	LTP243	ltpFR	11	2	1	SPICE	1350	n/a	0	n/a	0	0	0	n/a	n/a	n/a	n/a	n/a
939.096	n/a	START	469548	n/a	LTP243	ltpFR	11	n/a	n/a	n/a	n/a	n/a	n/a	n/a	n/a	n/a	n/a	n/a	n/a	n/a	n/a	n/a
940.61	n/a	PROB	470305	n/a	LTP243	ltpFR	11	n/a	n/a	n/a	n/a	n/a	n/a	11	1	5	5	n/a	n/a	n/a	n/a	n/a
941.842	n/a	PROB	470921	n/a	LTP243	ltpFR	11	n/a	n/a	n/a	n/a	n/a	n/a	16	7	5	4	n/a	n/a	n/a	n/a	n/a
943.956	n/a	PROB	471978	n/a	LTP243	ltpFR	11	n/a	n/a	n/a	n/a	n/a	n/a	17	7	5	5	n/a	n/a	n/a	n/a	n/a
945.77	n/a	PROB	472885	n/a	LTP243	ltpFR	11	n/a	n/a	n/a	n/a	n/a	n/a	12	5	5	2	n/a	n/a	n/a	n/a	n/a
946.968	n/a	PROB	473484	n/a	LTP243	ltpFR	11	n/a	n/a	n/a	n/a	n/a	n/a	16	8	9	2	n/a	n/a	n/a	n/a	n/a
948.682	n/a	PROB	474341	n/a	LTP243	ltpFR	11	n/a	n/a	n/a	n/a	n/a	n/a	12	4	2	7	n/a	n/a	n/a	n/a	n/a
950.762	n/a	PROB	475381	n/a	LTP243	ltpFR	11	n/a	n/a	n/a	n/a	n/a	n/a	9	6	1	2	n/a	n/a	n/a	n/a	n/a
952.442	n/a	PROB	476221	n/a	LTP243	ltpFR	11	n/a	n/a	n/a	n/a	n/a	n/a	24	6	9	7	n/a	n/a	n/a	n/a	n/a
954.602	n/a	STOP	477301	n/a	LTP243	ltpFR	11	n/a	n/a	n/a	n/a	n/a	n/a	n/a	n/a	n/a	n/a	n/a	n/a	n/a	n/a	n/a
956.02	n/a	WORD	478010	wordpools/wasnorm_wordpool_less_exclusions.txt	LTP243	ltpFR	11	3	1	ROCK	1201	n/a	0	n/a	0	0	0	0	0.5869140625	0.422607421875	lower	../fonts/amplitud.ttf
959.032	n/a	START	479516	n/a	LTP243	ltpFR	11	n/a	n/a	n/a	n/a	n/a	n/a	n/a	n/a	n/a	n/a	n/a	n/a	n/a	n/a	n/a
960.198	n/a	PROB	480099	n/a	LTP243	ltpFR	11	n/a	n/a	n/a	n/a	n/a	n/a	17	5	9	3	n/a	n/a	n/a	n/a	n/a
962.86	n/a	PROB	481430	n/a	LTP243	ltpFR	11	n/a	n/a	n/a	n/a	n/a	n/a	13	4	5	4	n/a	n/a	n/a	n/a	n/a
965.39	n/a	PROB	482695	n/a	LTP243	ltpFR	11	n/a	n/a	n/a	n/a	n/a	n/a	10	2	4	4	n/a	n/a	n/a	n/a	n/a
967.62	n/a	PROB	483810	n/a	LTP243	ltpFR	11	n/a	n/a	n/a	n/a	n/a	n/a	17	3	5	9	n/a	n/a	n/a	n/a	n/a
970.948	n/a	PROB	485474	n/a	LTP243	ltpFR	11	n/a	n/a	n/a	n/a	n/a	n/a	23	9	8	6	n/a	n/a	n/a	n/a	n/a
974.724	n/a	STOP	487362	n/a	LTP243	ltpFR	11	n/a	n/a	n/a	n/a	n/a	n/a	n/a	n/a	n/a	n/a	n/a	n/a	n/a	n/a	n/a
975.876	n/a	WORD	487938	wordpools/wasnorm_wordpool_less_exclusions.txt	LTP243	ltpFR	11	3	1	PILLOW	1069	n/a	0	n/a	0	0	0	0	0.5869140625	0.422607421875	lower	../fonts/amplitud.ttf
978.888	n/a	START	489444	n/a	LTP243	ltpFR	11	n/a	n/a	n/a	n/a	n/a	n/a	n/a	n/a	n/a	n/a	n/a	n/a	n/a	n/a	n/a
979.77	n/a	PROB	489885	n/a	LTP243	ltpFR	11	n/a	n/a	n/a	n/a	n/a	n/a	12	2	4	6	n/a	n/a	n/a	n/a	n/a
981.0	n/a	PROB	490500	n/a	LTP243	ltpFR	11	n/a	n/a	n/a	n/a	n/a	n/a	13	7	2	4	n/a	n/a	n/a	n/a	n/a
983.214	n/a	PROB	491607	n/a	LTP243	ltpFR	11	n/a	n/a	n/a	n/a	n/a	n/a	15	3	4	8	n/a	n/a	n/a	n/a	n/a
985.378	n/a	PROB	492689	n/a	LTP243	ltpFR	11	n/a	n/a	n/a	n/a	n/a	n/a	12	4	4	4	n/a	n/a	n/a	n/a	n/a
987.108	n/a	PROB	493554	n/a	LTP243	ltpFR	11	n/a	n/a	n/a	n/a	n/a	n/a	24	7	6	7	n/a	n/a	n/a	n/a	n/a
989.406	n/a	PROB	494703	n/a	LTP243	ltpFR	11	n/a	n/a	n/a	n/a	n/a	n/a	9	5	2	2	n/a	n/a	n/a	n/a	n/a
990.886	n/a	PROB	495443	n/a	LTP243	ltpFR	11	n/a	n/a	n/a	n/a	n/a	n/a	16	4	5	7	n/a	n/a	n/a	n/a	n/a
993.756	n/a	STOP	496878	n/a	LTP243	ltpFR	11	n/a	n/a	n/a	n/a	n/a	n/a	n/a	n/a	n/a	n/a	n/a	n/a	n/a	n/a	n/a
995.912	n/a	WORD	497956	wordpools/wasnorm_wordpool_less_exclusions.txt	LTP243	ltpFR	11	3	0	VITAMIN	1574	n/a	0	n/a	0	0	0	1	0.412841796875	0.57763671875	upper	../fonts/zerothre.ttf
998.924	n/a	START	499462	n/a	LTP243	ltpFR	11	n/a	n/a	n/a	n/a	n/a	n/a	n/a	n/a	n/a	n/a	n/a	n/a	n/a	n/a	n/a
1000.09	n/a	PROB	500045	n/a	LTP243	ltpFR	11	n/a	n/a	n/a	n/a	n/a	n/a	14	7	5	2	n/a	n/a	n/a	n/a	n/a
1001.62	n/a	PROB	500810	n/a	LTP243	ltpFR	11	n/a	n/a	n/a	n/a	n/a	n/a	12	3	8	3	n/a	n/a	n/a	n/a	n/a
1004.2	n/a	PROB	502100	n/a	LTP243	ltpFR	11	n/a	n/a	n/a	n/a	n/a	n/a	10	3	1	6	n/a	n/a	n/a	n/a	n/a
1007.278	n/a	PROB	503639	n/a	LTP243	ltpFR	11	n/a	n/a	n/a	n/a	n/a	n/a	10	2	4	4	n/a	n/a	n/a	n/a	n/a
1008.91	n/a	PROB	504455	n/a	LTP243	ltpFR	11	n/a	n/a	n/a	n/a	n/a	n/a	21	4	9	8	n/a	n/a	n/a	n/a	n/a
1011.256	n/a	PROB	505628	n/a	LTP243	ltpFR	11	n/a	n/a	n/a	n/a	n/a	n/a	15	1	8	6	n/a	n/a	n/a	n/a	n/a
1014.924	n/a	STOP	507462	n/a	LTP243	ltpFR	11	n/a	n/a	n/a	n/a	n/a	n/a	n/a	n/a	n/a	n/a	n/a	n/a	n/a	n/a	n/a
1015.916	n/a	WORD	507958	wordpools/wasnorm_wordpool_less_exclusions.txt	LTP243	ltpFR	11	3	0	TOTE	1487	n/a	1	n/a	0	0	0	1	0.412841796875	0.57763671875	upper	../fonts/zerothre.ttf
1018.928	n/a	START	509464	n/a	LTP243	ltpFR	11	n/a	n/a	n/a	n/a	n/a	n/a	n/a	n/a	n/a	n/a	n/a	n/a	n/a	n/a	n/a
1019.842	n/a	PROB	509921	n/a	LTP243	ltpFR	11	n/a	n/a	n/a	n/a	n/a	n/a	14	2	4	8	n/a	n/a	n/a	n/a	n/a
1021.524	n/a	PROB	510762	n/a	LTP243	ltpFR	11	n/a	n/a	n/a	n/a	n/a	n/a	14	5	4	5	n/a	n/a	n/a	n/a	n/a
1022.972	n/a	PROB	511486	n/a	LTP243	ltpFR	11	n/a	n/a	n/a	n/a	n/a	n/a	11	1	5	5	n/a	n/a	n/a	n/a	n/a
1024.12	n/a	PROB	512060	n/a	LTP243	ltpFR	11	n/a	n/a	n/a	n/a	n/a	n/a	14	8	5	1	n/a	n/a	n/a	n/a	n/a
1026.866	n/a	PROB	513433	n/a	LTP243	ltpFR	11	n/a	n/a	n/a	n/a	n/a	n/a	13	2	9	2	n/a	n/a	n/a	n/a	n/a
1028.696	n/a	PROB	514348	n/a	LTP243	ltpFR	11	n/a	n/a	n/a	n/a	n/a	n/a	11	8	1	1	n/a	n/a	n/a	n/a	n/a
1029.912	n/a	PROB	514956	n/a	LTP243	ltpFR	11	n/a	n/a	n/a	n/a	n/a	n/a	21	7	7	7	n/a	n/a	n/a	n/a	n/a
1031.458	n/a	PROB	515729	n/a	LTP243	ltpFR	11	n/a	n/a	n/a	n/a	n/a	n/a	10	2	7	1	n/a	n/a	n/a	n/a	n/a
1033.272	n/a	PROB	516636	n/a	LTP243	ltpFR	11	n/a	n/a	n/a	n/a	n/a	n/a	12	3	2	2	n/a	n/a	n/a	n/a	n/a
1034.764	n/a	STOP	517382	n/a	LTP243	ltpFR	11	n/a	n/a	n/a	n/a	n/a	n/a	n/a	n/a	n/a	n/a	n/a	n/a	n/a	n/a	n/a
1035.918	n/a	WORD	517959	wordpools/wasnorm_wordpool_less_exclusions.txt	LTP243	ltpFR	11	3	1	BRIEFCASE	175	n/a	0	n/a	0	0	0	0	0.5869140625	0.422607421875	lower	../fonts/amplitud.ttf
1038.932	n/a	START	519466	n/a	LTP243	ltpFR	11	n/a	n/a	n/a	n/a	n/a	n/a	n/a	n/a	n/a	n/a	n/a	n/a	n/a	n/a	n/a
1039.946	n/a	PROB	519973	n/a	LTP243	ltpFR	11	n/a	n/a	n/a	n/a	n/a	n/a	16	6	2	8	n/a	n/a	n/a	n/a	n/a
1041.344	n/a	PROB	520672	n/a	LTP243	ltpFR	11	n/a	n/a	n/a	n/a	n/a	n/a	15	7	4	4	n/a	n/a	n/a	n/a	n/a
1043.092	n/a	PROB	521546	n/a	LTP243	ltpFR	11	n/a	n/a	n/a	n/a	n/a	n/a	9	5	1	3	n/a	n/a	n/a	n/a	n/a
1044.84	n/a	PROB	522420	n/a	LTP243	ltpFR	11	n/a	n/a	n/a	n/a	n/a	n/a	18	4	8	6	n/a	n/a	n/a	n/a	n/a
1047.652	n/a	PROB	523826	n/a	LTP243	ltpFR	11	n/a	n/a	n/a	n/a	n/a	n/a	120	8	3	9	n/a	n/a	n/a	n/a	n/a
1050.398	n/a	PROB	525199	n/a	LTP243	ltpFR	11	n/a	n/a	n/a	n/a	n/a	n/a	11	4	6	1	n/a	n/a	n/a	n/a	n/a
1051.812	n/a	PROB	525906	n/a	LTP243	ltpFR	11	n/a	n/a	n/a	n/a	n/a	n/a	18	9	6	3	n/a	n/a	n/a	n/a	n/a
1053.788	n/a	STOP	526894	n/a	LTP243	ltpFR	11	n/a	n/a	n/a	n/a	n/a	n/a	n/a	n/a	n/a	n/a	n/a	n/a	n/a	n/a	n/a
1056.074	n/a	WORD	528037	wordpools/wasnorm_wordpool_less_exclusions.txt	LTP243	ltpFR	11	3	1	UNICORN	1538	n/a	1	n/a	0	0	0	0	0.5869140625	0.422607421875	lower	../fonts/amplitud.ttf
1059.086	n/a	START	529543	n/a	LTP243	ltpFR	11	n/a	n/a	n/a	n/a	n/a	n/a	n/a	n/a	n/a	n/a	n/a	n/a	n/a	n/a	n/a
1060.032	n/a	PROB	530016	n/a	LTP243	ltpFR	11	n/a	n/a	n/a	n/a	n/a	n/a	17	7	7	3	n/a	n/a	n/a	n/a	n/a
1062.564	n/a	PROB	531282	n/a	LTP243	ltpFR	11	n/a	n/a	n/a	n/a	n/a	n/a	14	5	8	1	n/a	n/a	n/a	n/a	n/a
1064.678	n/a	PROB	532339	n/a	LTP243	ltpFR	11	n/a	n/a	n/a	n/a	n/a	n/a	20	3	9	8	n/a	n/a	n/a	n/a	n/a
1066.774	n/a	PROB	533387	n/a	LTP243	ltpFR	11	n/a	n/a	n/a	n/a	n/a	n/a	8	1	5	2	n/a	n/a	n/a	n/a	n/a
1068.404	n/a	PROB	534202	n/a	LTP243	ltpFR	11	n/a	n/a	n/a	n/a	n/a	n/a	24	7	6	9	n/a	n/a	n/a	n/a	n/a
1071.866	n/a	PROB	535933	n/a	LTP243	ltpFR	11	n/a	n/a	n/a	n/a	n/a	n/a	17	3	6	8	n/a	n/a	n/a	n/a	n/a
1074.476	n/a	STOP	537238	n/a	LTP243	ltpFR	11	n/a	n/a	n/a	n/a	n/a	n/a	n/a	n/a	n/a	n/a	n/a	n/a	n/a	n/a	n/a
1076.026	n/a	WORD	538013	wordpools/wasnorm_wordpool_less_exclusions.txt	LTP243	ltpFR	11	3	0	TAVERN	1437	n/a	1	n/a	0	0	0	1	0.412841796875	0.57763671875	upper	../fonts/zerothre.ttf
1079.038	n/a	START	539519	n/a	LTP243	ltpFR	11	n/a	n/a	n/a	n/a	n/a	n/a	n/a	n/a	n/a	n/a	n/a	n/a	n/a	n/a	n/a
1080.17	n/a	PROB	540085	n/a	LTP243	ltpFR	11	n/a	n/a	n/a	n/a	n/a	n/a	10	3	1	6	n/a	n/a	n/a	n/a	n/a
1081.968	n/a	PROB	540984	n/a	LTP243	ltpFR	11	n/a	n/a	n/a	n/a	n/a	n/a	10	2	7	1	n/a	n/a	n/a	n/a	n/a
1083.4	n/a	PROB	541700	n/a	LTP243	ltpFR	11	n/a	n/a	n/a	n/a	n/a	n/a	10	7	2	1	n/a	n/a	n/a	n/a	n/a
1084.498	n/a	PROB	542249	n/a	LTP243	ltpFR	11	n/a	n/a	n/a	n/a	n/a	n/a	23	8	5	9	n/a	n/a	n/a	n/a	n/a
1087.06	n/a	PROB	543530	n/a	LTP243	ltpFR	11	n/a	n/a	n/a	n/a	n/a	n/a	13	7	4	2	n/a	n/a	n/a	n/a	n/a
1088.924	n/a	PROB	544462	n/a	LTP243	ltpFR	11	n/a	n/a	n/a	n/a	n/a	n/a	13	9	1	3	n/a	n/a	n/a	n/a	n/a
1090.538	n/a	PROB	545269	n/a	LTP243	ltpFR	11	n/a	n/a	n/a	n/a	n/a	n/a	7	5	2	4	n/a	n/a	n/a	n/a	n/a
1092.784	n/a	PROB	546392	n/a	LTP243	ltpFR	11	n/a	n/a	n/a	n/a	n/a	n/a	10	3	2	5	n/a	n/a	n/a	n/a	n/a
1094.524	n/a	STOP	547262	n/a	LTP243	ltpFR	11	n/a	n/a	n/a	n/a	n/a	n/a	n/a	n/a	n/a	n/a	n/a	n/a	n/a	n/a	n/a
1095.98	n/a	WORD	547990	wordpools/wasnorm_wordpool_less_exclusions.txt	LTP243	ltpFR	11	3	0	COOLER	375	n/a	1	n/a	0	0	0	1	0.412841796875	0.57763671875	upper	../fonts/zerothre.ttf
1098.992	n/a	START	549496	n/a	LTP243	ltpFR	11	n/a	n/a	n/a	n/a	n/a	n/a	n/a	n/a	n/a	n/a	n/a	n/a	n/a	n/a	n/a
1099.842	n/a	PROB	549921	n/a	LTP243	ltpFR	11	n/a	n/a	n/a	n/a	n/a	n/a	18	5	8	5	n/a	n/a	n/a	n/a	n/a
1101.222	n/a	PROB	550611	n/a	LTP243	ltpFR	11	n/a	n/a	n/a	n/a	n/a	n/a	11	6	4	1	n/a	n/a	n/a	n/a	n/a
1102.62	n/a	PROB	551310	n/a	LTP243	ltpFR	11	n/a	n/a	n/a	n/a	n/a	n/a	14	3	7	4	n/a	n/a	n/a	n/a	n/a
1103.936	n/a	PROB	551968	n/a	LTP243	ltpFR	11	n/a	n/a	n/a	n/a	n/a	n/a	12	1	7	4	n/a	n/a	n/a	n/a	n/a
1105.632	n/a	PROB	552816	n/a	LTP243	ltpFR	11	n/a	n/a	n/a	n/a	n/a	n/a	11	3	4	4	n/a	n/a	n/a	n/a	n/a
1108.396	n/a	PROB	554198	n/a	LTP243	ltpFR	11	n/a	n/a	n/a	n/a	n/a	n/a	14	1	5	8	n/a	n/a	n/a	n/a	n/a
1110.676	n/a	PROB	555338	n/a	LTP243	ltpFR	11	n/a	n/a	n/a	n/a	n/a	n/a	18	8	3	7	n/a	n/a	n/a	n/a	n/a
1112.19	n/a	PROB	556095	n/a	LTP243	ltpFR	11	n/a	n/a	n/a	n/a	n/a	n/a	12	8	1	3	n/a	n/a	n/a	n/a	n/a
1113.62	n/a	STOP	556810	n/a	LTP243	ltpFR	11	n/a	n/a	n/a	n/a	n/a	n/a	n/a	n/a	n/a	n/a	n/a	n/a	n/a	n/a	n/a
1116.0	n/a	WORD	558000	wordpools/wasnorm_wordpool_less_exclusions.txt	LTP243	ltpFR	11	3	0	KITE	779	n/a	1	n/a	0	0	0	1	0.412841796875	0.57763671875	upper	../fonts/zerothre.ttf
1119.014	n/a	START	559507	n/a	LTP243	ltpFR	11	n/a	n/a	n/a	n/a	n/a	n/a	n/a	n/a	n/a	n/a	n/a	n/a	n/a	n/a	n/a
1120.212	n/a	PROB	560106	n/a	LTP243	ltpFR	11	n/a	n/a	n/a	n/a	n/a	n/a	16	6	1	9	n/a	n/a	n/a	n/a	n/a
1121.626	n/a	PROB	560813	n/a	LTP243	ltpFR	11	n/a	n/a	n/a	n/a	n/a	n/a	14	9	4	1	n/a	n/a	n/a	n/a	n/a
1123.64	n/a	PROB	561820	n/a	LTP243	ltpFR	11	n/a	n/a	n/a	n/a	n/a	n/a	17	9	5	3	n/a	n/a	n/a	n/a	n/a
1125.238	n/a	PROB	562619	n/a	LTP243	ltpFR	11	n/a	n/a	n/a	n/a	n/a	n/a	10	4	4	2	n/a	n/a	n/a	n/a	n/a
1128.632	n/a	PROB	564316	n/a	LTP243	ltpFR	11	n/a	n/a	n/a	n/a	n/a	n/a	166	6	8	2	n/a	n/a	n/a	n/a	n/a
1130.23	n/a	PROB	565115	n/a	LTP243	ltpFR	11	n/a	n/a	n/a	n/a	n/a	n/a	18	8	1	9	n/a	n/a	n/a	n/a	n/a
1131.794	n/a	PROB	565897	n/a	LTP243	ltpFR	11	n/a	n/a	n/a	n/a	n/a	n/a	14	9	4	1	n/a	n/a	n/a	n/a	n/a
1135.014	n/a	STOP	567507	n/a	LTP243	ltpFR	11	n/a	n/a	n/a	n/a	n/a	n/a	n/a	n/a	n/a	n/a	n/a	n/a	n/a	n/a	n/a
1135.988	n/a	WORD	567994	wordpools/wasnorm_wordpool_less_exclusions.txt	LTP243	ltpFR	11	3	0	TIGER	1467	n/a	1	n/a	0	0	0	1	0.412841796875	0.57763671875	upper	../fonts/zerothre.ttf
1139.0	n/a	START	569500	n/a	LTP243	ltpFR	11	n/a	n/a	n/a	n/a	n/a	n/a	n/a	n/a	n/a	n/a	n/a	n/a	n/a	n/a	n/a
1139.966	n/a	PROB	569983	n/a	LTP243	ltpFR	11	n/a	n/a	n/a	n/a	n/a	n/a	21	6	7	8	n/a	n/a	n/a	n/a	n/a
1141.746	n/a	PROB	570873	n/a	LTP243	ltpFR	11	n/a	n/a	n/a	n/a	n/a	n/a	10	3	6	1	n/a	n/a	n/a	n/a	n/a
1143.61	n/a	PROB	571805	n/a	LTP243	ltpFR	11	n/a	n/a	n/a	n/a	n/a	n/a	11	1	8	2	n/a	n/a	n/a	n/a	n/a
1144.858	n/a	PROB	572429	n/a	LTP243	ltpFR	11	n/a	n/a	n/a	n/a	n/a	n/a	18	3	7	7	n/a	n/a	n/a	n/a	n/a
1146.422	n/a	PROB	573211	n/a	LTP243	ltpFR	11	n/a	n/a	n/a	n/a	n/a	n/a	25	9	7	9	n/a	n/a	n/a	n/a	n/a
1149.236	n/a	PROB	574618	n/a	LTP243	ltpFR	11	n/a	n/a	n/a	n/a	n/a	n/a	19	9	3	7	n/a	n/a	n/a	n/a	n/a
1150.584	n/a	PROB	575292	n/a	LTP243	ltpFR	11	n/a	n/a	n/a	n/a	n/a	n/a	15	1	8	6	n/a	n/a	n/a	n/a	n/a
1153.246	n/a	PROB	576623	n/a	LTP243	ltpFR	11	n/a	n/a	n/a	n/a	n/a	n/a	16	6	4	6	n/a	n/a	n/a	n/a	n/a
1154.822	n/a	STOP	577411	n/a	LTP243	ltpFR	11	n/a	n/a	n/a	n/a	n/a	n/a	n/a	n/a	n/a	n/a	n/a	n/a	n/a	n/a	n/a
1156.008	n/a	WORD	578004	wordpools/wasnorm_wordpool_less_exclusions.txt	LTP243	ltpFR	11	3	0	STALLION	1369	n/a	1	n/a	0	0	0	1	0.412841796875	0.57763671875	upper	../fonts/zerothre.ttf
1159.02	n/a	START	579510	n/a	LTP243	ltpFR	11	n/a	n/a	n/a	n/a	n/a	n/a	n/a	n/a	n/a	n/a	n/a	n/a	n/a	n/a	n/a
1159.836	n/a	PROB	579918	n/a	LTP243	ltpFR	11	n/a	n/a	n/a	n/a	n/a	n/a	15	7	3	5	n/a	n/a	n/a	n/a	n/a
1162.1	n/a	PROB	581050	n/a	LTP243	ltpFR	11	n/a	n/a	n/a	n/a	n/a	n/a	14	4	2	8	n/a	n/a	n/a	n/a	n/a
1164.296	n/a	PROB	582148	n/a	LTP243	ltpFR	11	n/a	n/a	n/a	n/a	n/a	n/a	17	9	6	2	n/a	n/a	n/a	n/a	n/a
1166.16	n/a	PROB	583080	n/a	LTP243	ltpFR	11	n/a	n/a	n/a	n/a	n/a	n/a	10	4	4	2	n/a	n/a	n/a	n/a	n/a
1167.874	n/a	PROB	583937	n/a	LTP243	ltpFR	11	n/a	n/a	n/a	n/a	n/a	n/a	3	1	1	1	n/a	n/a	n/a	n/a	n/a
1169.022	n/a	PROB	584511	n/a	LTP243	ltpFR	11	n/a	n/a	n/a	n/a	n/a	n/a	10	1	3	6	n/a	n/a	n/a	n/a	n/a
1170.636	n/a	PROB	585318	n/a	LTP243	ltpFR	11	n/a	n/a	n/a	n/a	n/a	n/a	17	7	8	2	n/a	n/a	n/a	n/a	n/a
1172.234	n/a	PROB	586117	n/a	LTP243	ltpFR	11	n/a	n/a	n/a	n/a	n/a	n/a	12	6	3	3	n/a	n/a	n/a	n/a	n/a
1174.838	n/a	STOP	587419	n/a	LTP243	ltpFR	11	n/a	n/a	n/a	n/a	n/a	n/a	n/a	n/a	n/a	n/a	n/a	n/a	n/a	n/a	n/a
1176.094	n/a	WORD	588047	wordpools/wasnorm_wordpool_less_exclusions.txt	LTP243	ltpFR	11	3	0	LEOPARD	812	n/a	1	n/a	0	0	0	1	0.412841796875	0.57763671875	upper	../fonts/zerothre.ttf
1179.108	n/a	START	589554	n/a	LTP243	ltpFR	11	n/a	n/a	n/a	n/a	n/a	n/a	n/a	n/a	n/a	n/a	n/a	n/a	n/a	n/a	n/a
1180.022	n/a	PROB	590011	n/a	LTP243	ltpFR	11	n/a	n/a	n/a	n/a	n/a	n/a	10	2	1	6	n/a	n/a	n/a	n/a	n/a
1181.47	n/a	PROB	590735	n/a	LTP243	ltpFR	11	n/a	n/a	n/a	n/a	n/a	n/a	10	4	5	1	n/a	n/a	n/a	n/a	n/a
1183.318	n/a	PROB	591659	n/a	LTP243	ltpFR	11	n/a	n/a	n/a	n/a	n/a	n/a	22	8	8	6	n/a	n/a	n/a	n/a	n/a
1185.332	n/a	PROB	592666	n/a	LTP243	ltpFR	11	n/a	n/a	n/a	n/a	n/a	n/a	6	1	2	3	n/a	n/a	n/a	n/a	n/a
1187.178	n/a	PROB	593589	n/a	LTP243	ltpFR	11	n/a	n/a	n/a	n/a	n/a	n/a	15	3	7	5	n/a	n/a	n/a	n/a	n/a
1189.724	n/a	PROB	594862	n/a	LTP243	ltpFR	11	n/a	n/a	n/a	n/a	n/a	n/a	24	7	8	9	n/a	n/a	n/a	n/a	n/a
1191.59	n/a	PROB	595795	n/a	LTP243	ltpFR	11	n/a	n/a	n/a	n/a	n/a	n/a	19	5	6	8	n/a	n/a	n/a	n/a	n/a
1194.47	n/a	STOP	597235	n/a	LTP243	ltpFR	11	n/a	n/a	n/a	n/a	n/a	n/a	n/a	n/a	n/a	n/a	n/a	n/a	n/a	n/a	n/a
1196.082	n/a	WORD	598041	wordpools/wasnorm_wordpool_less_exclusions.txt	LTP243	ltpFR	11	3	1	JUNGLE	764	n/a	0	n/a	0	0	0	0	0.5869140625	0.422607421875	lower	../fonts/amplitud.ttf
1199.096	n/a	START	599548	n/a	LTP243	ltpFR	11	n/a	n/a	n/a	n/a	n/a	n/a	n/a	n/a	n/a	n/a	n/a	n/a	n/a	n/a	n/a
1200.294	n/a	PROB	600147	n/a	LTP243	ltpFR	11	n/a	n/a	n/a	n/a	n/a	n/a	16	8	3	5	n/a	n/a	n/a	n/a	n/a
1202.656	n/a	PROB	601328	n/a	LTP243	ltpFR	11	n/a	n/a	n/a	n/a	n/a	n/a	13	2	2	9	n/a	n/a	n/a	n/a	n/a
1204.936	n/a	PROB	602468	n/a	LTP243	ltpFR	11	n/a	n/a	n/a	n/a	n/a	n/a	6	2	2	2	n/a	n/a	n/a	n/a	n/a
1206.168	n/a	PROB	603084	n/a	LTP243	ltpFR	11	n/a	n/a	n/a	n/a	n/a	n/a	19	7	3	9	n/a	n/a	n/a	n/a	n/a
1207.45	n/a	PROB	603725	n/a	LTP243	ltpFR	11	n/a	n/a	n/a	n/a	n/a	n/a	24	9	6	9	n/a	n/a	n/a	n/a	n/a
1209.662	n/a	PROB	604831	n/a	LTP243	ltpFR	11	n/a	n/a	n/a	n/a	n/a	n/a	18	8	8	2	n/a	n/a	n/a	n/a	n/a
1211.144	n/a	PROB	605572	n/a	LTP243	ltpFR	11	n/a	n/a	n/a	n/a	n/a	n/a	9	2	2	5	n/a	n/a	n/a	n/a	n/a
1213.158	n/a	PROB	606579	n/a	LTP243	ltpFR	11	n/a	n/a	n/a	n/a	n/a	n/a	18	7	3	8	n/a	n/a	n/a	n/a	n/a
1214.238	n/a	STOP	607119	n/a	LTP243	ltpFR	11	n/a	n/a	n/a	n/a	n/a	n/a	n/a	n/a	n/a	n/a	n/a	n/a	n/a	n/a	n/a
1216.136	n/a	WORD	608068	wordpools/wasnorm_wordpool_less_exclusions.txt	LTP243	ltpFR	11	3	1	CHEDDAR	286	n/a	0	n/a	0	0	0	0	0.5869140625	0.422607421875	lower	../fonts/amplitud.ttf
1219.148	n/a	START	609574	n/a	LTP243	ltpFR	11	n/a	n/a	n/a	n/a	n/a	n/a	n/a	n/a	n/a	n/a	n/a	n/a	n/a	n/a	n/a
1220.346	n/a	PROB	610173	n/a	LTP243	ltpFR	11	n/a	n/a	n/a	n/a	n/a	n/a	21	6	8	7	n/a	n/a	n/a	n/a	n/a
1222.178	n/a	PROB	611089	n/a	LTP243	ltpFR	11	n/a	n/a	n/a	n/a	n/a	n/a	10	1	5	4	n/a	n/a	n/a	n/a	n/a
1224.24	n/a	PROB	612120	n/a	LTP243	ltpFR	11	n/a	n/a	n/a	n/a	n/a	n/a	17	8	8	1	n/a	n/a	n/a	n/a	n/a
1226.304	n/a	PROB	613152	n/a	LTP243	ltpFR	11	n/a	n/a	n/a	n/a	n/a	n/a	14	1	7	6	n/a	n/a	n/a	n/a	n/a
1228.352	n/a	PROB	614176	n/a	LTP243	ltpFR	11	n/a	n/a	n/a	n/a	n/a	n/a	17	9	6	2	n/a	n/a	n/a	n/a	n/a
1230.198	n/a	PROB	615099	n/a	LTP243	ltpFR	11	n/a	n/a	n/a	n/a	n/a	n/a	20	9	8	3	n/a	n/a	n/a	n/a	n/a
1235.148	n/a	STOP	617574	n/a	LTP243	ltpFR	11	n/a	n/a	n/a	n/a	n/a	n/a	n/a	n/a	n/a	n/a	n/a	n/a	n/a	n/a	n/a
1236.372	n/a	WORD	618186	wordpools/wasnorm_wordpool_less_exclusions.txt	LTP243	ltpFR	11	3	1	STEW	1380	n/a	0	n/a	0	0	0	0	0.5869140625	0.422607421875	lower	../fonts/amplitud.ttf
1239.386	n/a	START	619693	n/a	LTP243	ltpFR	11	n/a	n/a	n/a	n/a	n/a	n/a	n/a	n/a	n/a	n/a	n/a	n/a	n/a	n/a	n/a
1240.366	n/a	PROB	620183	n/a	LTP243	ltpFR	11	n/a	n/a	n/a	n/a	n/a	n/a	7	3	3	1	n/a	n/a	n/a	n/a	n/a
1242.564	n/a	PROB	621282	n/a	LTP243	ltpFR	11	n/a	n/a	n/a	n/a	n/a	n/a	19	9	7	3	n/a	n/a	n/a	n/a	n/a
1244.094	n/a	PROB	622047	n/a	LTP243	ltpFR	11	n/a	n/a	n/a	n/a	n/a	n/a	20	5	9	6	n/a	n/a	n/a	n/a	n/a
1246.458	n/a	PROB	623229	n/a	LTP243	ltpFR	11	n/a	n/a	n/a	n/a	n/a	n/a	15	6	1	8	n/a	n/a	n/a	n/a	n/a
1248.204	n/a	PROB	624102	n/a	LTP243	ltpFR	11	n/a	n/a	n/a	n/a	n/a	n/a	18	6	8	4	n/a	n/a	n/a	n/a	n/a
1250.818	n/a	PROB	625409	n/a	LTP243	ltpFR	11	n/a	n/a	n/a	n/a	n/a	n/a	24	8	7	9	n/a	n/a	n/a	n/a	n/a
1255.384	n/a	STOP	627692	n/a	LTP243	ltpFR	11	n/a	n/a	n/a	n/a	n/a	n/a	n/a	n/a	n/a	n/a	n/a	n/a	n/a	n/a	n/a
1256.542	n/a	WORD	628271	wordpools/wasnorm_wordpool_less_exclusions.txt	LTP243	ltpFR	11	3	1	PANTHER	1009	n/a	1	n/a	0	0	0	0	0.5869140625	0.422607421875	lower	../fonts/amplitud.ttf
1259.554	n/a	START	629777	n/a	LTP243	ltpFR	11	n/a	n/a	n/a	n/a	n/a	n/a	n/a	n/a	n/a	n/a	n/a	n/a	n/a	n/a	n/a
1260.586	n/a	PROB	630293	n/a	LTP243	ltpFR	11	n/a	n/a	n/a	n/a	n/a	n/a	18	9	4	5	n/a	n/a	n/a	n/a	n/a
1262.534	n/a	PROB	631267	n/a	LTP243	ltpFR	11	n/a	n/a	n/a	n/a	n/a	n/a	12	1	5	6	n/a	n/a	n/a	n/a	n/a
1265.064	n/a	PROB	632532	n/a	LTP243	ltpFR	11	n/a	n/a	n/a	n/a	n/a	n/a	188	6	3	9	n/a	n/a	n/a	n/a	n/a
1267.81	n/a	PROB	633905	n/a	LTP243	ltpFR	11	n/a	n/a	n/a	n/a	n/a	n/a	16	4	9	3	n/a	n/a	n/a	n/a	n/a
1269.724	n/a	PROB	634862	n/a	LTP243	ltpFR	11	n/a	n/a	n/a	n/a	n/a	n/a	14	1	6	7	n/a	n/a	n/a	n/a	n/a
1271.804	n/a	PROB	635902	n/a	LTP243	ltpFR	11	n/a	n/a	n/a	n/a	n/a	n/a	9	3	5	1	n/a	n/a	n/a	n/a	n/a
1273.834	n/a	PROB	636917	n/a	LTP243	ltpFR	11	n/a	n/a	n/a	n/a	n/a	n/a	9	1	7	1	n/a	n/a	n/a	n/a	n/a
1275.12	n/a	STOP	637560	n/a	LTP243	ltpFR	11	n/a	n/a	n/a	n/a	n/a	n/a	n/a	n/a	n/a	n/a	n/a	n/a	n/a	n/a	n/a
1277.43	n/a	REC_START	638715	n/a	LTP243	ltpFR	11	3	n/a	n/a	n/a	n/a	n/a	n/a	0	0	0	n/a	n/a	n/a	n/a	n/a
1278.736	n/a	REC_WORD	639368	wordpools/wasnorm_wordpool_less_exclusions.txt	LTP243	ltpFR	11	3	1	PANTHER	1009	n/a	1	n/a	0	0	0	n/a	n/a	n/a	n/a	n/a
1279.61	n/a	REC_WORD	639805	wordpools/wasnorm_wordpool_less_exclusions.txt	LTP243	ltpFR	11	3	0	LEOPARD	812	n/a	1	n/a	0	0	0	n/a	n/a	n/a	n/a	n/a
1280.402	n/a	REC_WORD	640201	wordpools/wasnorm_wordpool_less_exclusions.txt	LTP243	ltpFR	11	3	0	TIGER	1467	n/a	1	n/a	0	0	0	n/a	n/a	n/a	n/a	n/a
1281.32	n/a	REC_WORD	640660	wordpools/wasnorm_wordpool_less_exclusions.txt	LTP243	ltpFR	11	3	0	STALLION	1369	n/a	1	n/a	0	0	0	n/a	n/a	n/a	n/a	n/a
1282.612	n/a	REC_WORD	641306	wordpools/wasnorm_wordpool_less_exclusions.txt	LTP243	ltpFR	11	3	1	JUNGLE	764	n/a	0	n/a	0	0	0	n/a	n/a	n/a	n/a	n/a
1287.072	n/a	REC_WORD	643536	wordpools/wasnorm_wordpool_less_exclusions.txt	LTP243	ltpFR	11	3	1	STEW	1380	n/a	0	n/a	0	0	0	n/a	n/a	n/a	n/a	n/a
1288.22	n/a	REC_WORD	644110	wordpools/wasnorm_wordpool_less_exclusions.txt	LTP243	ltpFR	11	3	1	CHEDDAR	286	n/a	0	n/a	0	0	0	n/a	n/a	n/a	n/a	n/a
1294.012	n/a	REC_WORD	647006	wordpools/wasnorm_wordpool_less_exclusions.txt	LTP243	ltpFR	11	3	1	BRIEFCASE	175	n/a	0	n/a	0	0	0	n/a	n/a	n/a	n/a	n/a
1299.344	n/a	REC_WORD	649672	wordpools/wasnorm_wordpool_less_exclusions.txt	LTP243	ltpFR	11	3	0	AUTOMOBILE	62	n/a	1	n/a	0	0	0	n/a	n/a	n/a	n/a	n/a
1339.294	n/a	REC_WORD	669647	wordpools/wasnorm_wordpool_less_exclusions.txt	LTP243	ltpFR	11	3	0	TOTE	1487	n/a	1	n/a	0	0	0	n/a	n/a	n/a	n/a	n/a
1385.652	n/a	WORD	692826	wordpools/wasnorm_wordpool_less_exclusions.txt	LTP243	ltpFR	11	4	0	TOMATO	1476	n/a	0	n/a	0	0	0	1	0.412841796875	0.57763671875	upper	../fonts/zerothre.ttf
1389.562	n/a	WORD	694781	wordpools/wasnorm_wordpool_less_exclusions.txt	LTP243	ltpFR	11	4	0	MAYONNAISE	880	n/a	0	n/a	0	0	0	1	0.412841796875	0.57763671875	upper	../fonts/zerothre.ttf
1393.622	n/a	WORD	696811	wordpools/wasnorm_wordpool_less_exclusions.txt	LTP243	ltpFR	11	4	0	BRAKE	166	n/a	1	n/a	0	0	0	1	0.412841796875	0.57763671875	upper	../fonts/zerothre.ttf
1397.716	n/a	WORD	698858	wordpools/wasnorm_wordpool_less_exclusions.txt	LTP243	ltpFR	11	4	0	BASKETBALL	96	n/a	1	n/a	0	0	0	1	0.412841796875	0.57763671875	upper	../fonts/zerothre.ttf
1401.928	n/a	WORD	700964	wordpools/wasnorm_wordpool_less_exclusions.txt	LTP243	ltpFR	11	4	0	BACKBONE	66	n/a	1	n/a	0	0	0	1	0.412841796875	0.57763671875	upper	../fonts/zerothre.ttf
1406.072	n/a	WORD	703036	wordpools/wasnorm_wordpool_less_exclusions.txt	LTP243	ltpFR	11	4	0	STAPLER	1372	n/a	0	n/a	0	0	0	1	0.412841796875	0.57763671875	upper	../fonts/zerothre.ttf
1409.9	n/a	WORD	704950	wordpools/wasnorm_wordpool_less_exclusions.txt	LTP243	ltpFR	11	4	0	FOLDER	588	n/a	0	n/a	0	0	0	1	0.412841796875	0.57763671875	upper	../fonts/zerothre.ttf
1413.778	n/a	WORD	706889	wordpools/wasnorm_wordpool_less_exclusions.txt	LTP243	ltpFR	11	4	0	SWORD	1423	n/a	1	n/a	0	0	0	1	0.412841796875	0.57763671875	upper	../fonts/zerothre.ttf
1417.722	n/a	WORD	708861	wordpools/wasnorm_wordpool_less_exclusions.txt	LTP243	ltpFR	11	4	0	FOE	587	n/a	1	n/a	0	0	0	1	0.412841796875	0.57763671875	upper	../fonts/zerothre.ttf
1421.848	n/a	WORD	710924	wordpools/wasnorm_wordpool_less_exclusions.txt	LTP243	ltpFR	11	4	0	MUSHROOM	934	n/a	0	n/a	0	0	0	1	0.412841796875	0.57763671875	upper	../fonts/zerothre.ttf
1425.742	n/a	WORD	712871	wordpools/wasnorm_wordpool_less_exclusions.txt	LTP243	ltpFR	11	4	0	BANQUET	86	n/a	1	n/a	0	0	0	1	0.412841796875	0.57763671875	upper	../fonts/zerothre.ttf
1429.686	n/a	WORD	714843	wordpools/wasnorm_wordpool_less_exclusions.txt	LTP243	ltpFR	11	4	0	REFEREE	1178	n/a	1	n/a	0	0	0	1	0.412841796875	0.57763671875	upper	../fonts/zerothre.ttf
1433.88	n/a	WORD	716940	wordpools/wasnorm_wordpool_less_exclusions.txt	LTP243	ltpFR	11	4	0	DOCUMENT	479	n/a	0	n/a	0	0	0	1	0.412841796875	0.57763671875	upper	../fonts/zerothre.ttf
1437.958	n/a	WORD	718979	wordpools/wasnorm_wordpool_less_exclusions.txt	LTP243	ltpFR	11	4	0	BATTERY	101	n/a	0	n/a	0	0	0	1	0.412841796875	0.57763671875	upper	../fonts/zerothre.ttf
1441.918	n/a	WORD	720959	wordpools/wasnorm_wordpool_less_exclusions.txt	LTP243	ltpFR	11	4	0	WALL	1582	n/a	0	n/a	0	0	0	1	0.412841796875	0.57763671875	upper	../fonts/zerothre.ttf
1445.796	n/a	WORD	722898	wordpools/wasnorm_wordpool_less_exclusions.txt	LTP243	ltpFR	11	4	0	TAR	1435	n/a	0	n/a	0	0	0	1	0.412841796875	0.57763671875	upper	../fonts/zerothre.ttf
1451.838	n/a	REC_START	725919	n/a	LTP243	ltpFR	11	4	n/a	n/a	n/a	n/a	n/a	n/a	0	0	0	n/a	n/a	n/a	n/a	n/a
1453.22	n/a	REC_WORD	726610	wordpools/wasnorm_wordpool_less_exclusions.txt	LTP243	ltpFR	11	4	0	WALL	1582	n/a	0	n/a	0	0	0	n/a	n/a	n/a	n/a	n/a
1454.206	n/a	REC_WORD	727103	wordpools/wasnorm_wordpool_less_exclusions.txt	LTP243	ltpFR	11	4	0	TAR	1435	n/a	0	n/a	0	0	0	n/a	n/a	n/a	n/a	n/a
1455.294	n/a	REC_WORD	727647	wordpools/wasnorm_wordpool_less_exclusions.txt	LTP243	ltpFR	11	4	0	BASKETBALL	96	n/a	1	n/a	0	0	0	n/a	n/a	n/a	n/a	n/a
1456.332	n/a	REC_WORD	728166	wordpools/wasnorm_wordpool_less_exclusions.txt	LTP243	ltpFR	11	4	0	FOE	587	n/a	1	n/a	0	0	0	n/a	n/a	n/a	n/a	n/a
1457.504	n/a	REC_WORD	728752	wordpools/wasnorm_wordpool_less_exclusions.txt	LTP243	ltpFR	11	4	0	REFEREE	1178	n/a	1	n/a	0	0	0	n/a	n/a	n/a	n/a	n/a
1458.602	n/a	REC_WORD	729301	wordpools/wasnorm_wordpool_less_exclusions.txt	LTP243	ltpFR	11	4	0	DOCUMENT	479	n/a	0	n/a	0	0	0	n/a	n/a	n/a	n/a	n/a
1459.57	n/a	REC_WORD	729785	wordpools/wasnorm_wordpool_less_exclusions.txt	LTP243	ltpFR	11	4	0	FOLDER	588	n/a	0	n/a	0	0	0	n/a	n/a	n/a	n/a	n/a
1466.538	n/a	REC_WORD	733269	wordpools/wasnorm_wordpool_less_exclusions.txt	LTP243	ltpFR	11	4	n/a	BREAK	-1	n/a	n/a	n/a	0	0	0	n/a	n/a	n/a	n/a	n/a
1469.458	n/a	REC_WORD	734729	wordpools/wasnorm_wordpool_less_exclusions.txt	LTP243	ltpFR	11	4	0	BACKBONE	66	n/a	1	n/a	0	0	0	n/a	n/a	n/a	n/a	n/a
1472.72	n/a	REC_WORD	736360	wordpools/wasnorm_wordpool_less_exclusions.txt	LTP243	ltpFR	11	4	0	MUSHROOM	934	n/a	0	n/a	0	0	0	n/a	n/a	n/a	n/a	n/a
1483.236	n/a	REC_WORD	741618	wordpools/wasnorm_wordpool_less_exclusions.txt	LTP243	ltpFR	11	4	0	SWORD	1423	n/a	1	n/a	0	0	0	n/a	n/a	n/a	n/a	n/a
1603.114	n/a	WORD	801557	wordpools/wasnorm_wordpool_less_exclusions.txt	LTP243	ltpFR	11	5	1	POLICE	1098	n/a	1	n/a	0	0	0	0	0.5869140625	0.422607421875	lower	../fonts/amplitud.ttf
1607.024	n/a	WORD	803512	wordpools/wasnorm_wordpool_less_exclusions.txt	LTP243	ltpFR	11	5	1	SALMON	1227	n/a	1	n/a	0	0	0	0	0.5869140625	0.422607421875	lower	../fonts/amplitud.ttf
1610.984	n/a	WORD	805492	wordpools/wasnorm_wordpool_less_exclusions.txt	LTP243	ltpFR	11	5	1	FARM	552	n/a	0	n/a	0	0	0	0	0.5869140625	0.422607421875	lower	../fonts/amplitud.ttf
1615.044	n/a	WORD	807522	wordpools/wasnorm_wordpool_less_exclusions.txt	LTP243	ltpFR	11	5	1	DOG	480	n/a	1	n/a	0	0	0	0	0.5869140625	0.422607421875	lower	../fonts/amplitud.ttf
1619.206	n/a	WORD	809603	wordpools/wasnorm_wordpool_less_exclusions.txt	LTP243	ltpFR	11	5	1	WILDERNESS	1610	n/a	0	n/a	0	0	0	0	0.5869140625	0.422607421875	lower	../fonts/amplitud.ttf
1623.332	n/a	WORD	811666	wordpools/wasnorm_wordpool_less_exclusions.txt	LTP243	ltpFR	11	5	1	ARROW	40	n/a	0	n/a	0	0	0	0	0.5869140625	0.422607421875	lower	../fonts/amplitud.ttf
1627.56	n/a	WORD	813780	wordpools/wasnorm_wordpool_less_exclusions.txt	LTP243	ltpFR	11	5	1	RIB	1188	n/a	0	n/a	0	0	0	0	0.5869140625	0.422607421875	lower	../fonts/amplitud.ttf
1631.538	n/a	WORD	815769	wordpools/wasnorm_wordpool_less_exclusions.txt	LTP243	ltpFR	11	5	1	DAM	436	n/a	0	n/a	0	0	0	0	0.5869140625	0.422607421875	lower	../fonts/amplitud.ttf
1635.482	n/a	WORD	817741	wordpools/wasnorm_wordpool_less_exclusions.txt	LTP243	ltpFR	11	5	1	MOAT	903	n/a	0	n/a	0	0	0	0	0.5869140625	0.422607421875	lower	../fonts/amplitud.ttf
1639.426	n/a	WORD	819713	wordpools/wasnorm_wordpool_less_exclusions.txt	LTP243	ltpFR	11	5	1	PORK	1108	n/a	0	n/a	0	0	0	0	0.5869140625	0.422607421875	lower	../fonts/amplitud.ttf
1643.338	n/a	WORD	821669	wordpools/wasnorm_wordpool_less_exclusions.txt	LTP243	ltpFR	11	5	1	PASSAGE	1019	n/a	0	n/a	0	0	0	0	0.5869140625	0.422607421875	lower	../fonts/amplitud.ttf
1647.548	n/a	WORD	823774	wordpools/wasnorm_wordpool_less_exclusions.txt	LTP243	ltpFR	11	5	1	NOVEL	960	n/a	0	n/a	0	0	0	0	0.5869140625	0.422607421875	lower	../fonts/amplitud.ttf
1651.624	n/a	WORD	825812	wordpools/wasnorm_wordpool_less_exclusions.txt	LTP243	ltpFR	11	5	1	CONTAINER	366	n/a	0	n/a	0	0	0	0	0.5869140625	0.422607421875	lower	../fonts/amplitud.ttf
1655.502	n/a	WORD	827751	wordpools/wasnorm_wordpool_less_exclusions.txt	LTP243	ltpFR	11	5	1	HIGHWAY	707	n/a	0	n/a	0	0	0	0	0.5869140625	0.422607421875	lower	../fonts/amplitud.ttf
1659.496	n/a	WORD	829748	wordpools/wasnorm_wordpool_less_exclusions.txt	LTP243	ltpFR	11	5	1	HAM	678	n/a	0	n/a	0	0	0	0	0.5869140625	0.422607421875	lower	../fonts/amplitud.ttf
1663.44	n/a	WORD	831720	wordpools/wasnorm_wordpool_less_exclusions.txt	LTP243	ltpFR	11	5	1	CRAB	397	n/a	1	n/a	0	0	0	0	0.5869140625	0.422607421875	lower	../fonts/amplitud.ttf
1666.454	n/a	START	833227	n/a	LTP243	ltpFR	11	n/a	n/a	n/a	n/a	n/a	n/a	n/a	n/a	n/a	n/a	n/a	n/a	n/a	n/a	n/a
1667.502	n/a	PROB	833751	n/a	LTP243	ltpFR	11	n/a	n/a	n/a	n/a	n/a	n/a	7	5	1	1	n/a	n/a	n/a	n/a	n/a
1669.448	n/a	PROB	834724	n/a	LTP243	ltpFR	11	n/a	n/a	n/a	n/a	n/a	n/a	21	5	8	6	n/a	n/a	n/a	n/a	n/a
1671.662	n/a	PROB	835831	n/a	LTP243	ltpFR	11	n/a	n/a	n/a	n/a	n/a	n/a	21	3	9	9	n/a	n/a	n/a	n/a	n/a
1673.38	n/a	STOP	836690	n/a	LTP243	ltpFR	11	n/a	n/a	n/a	n/a	n/a	n/a	n/a	n/a	n/a	n/a	n/a	n/a	n/a	n/a	n/a
1676.272	n/a	REC_START	838136	n/a	LTP243	ltpFR	11	5	n/a	n/a	n/a	n/a	n/a	n/a	0	0	0	n/a	n/a	n/a	n/a	n/a
1677.364	n/a	REC_WORD	838682	wordpools/wasnorm_wordpool_less_exclusions.txt	LTP243	ltpFR	11	5	1	POLICE	1098	n/a	1	n/a	0	0	0	n/a	n/a	n/a	n/a	n/a
1678.402	n/a	REC_WORD	839201	wordpools/wasnorm_wordpool_less_exclusions.txt	LTP243	ltpFR	11	5	1	SALMON	1227	n/a	1	n/a	0	0	0	n/a	n/a	n/a	n/a	n/a
1679.594	n/a	REC_WORD	839797	wordpools/wasnorm_wordpool_less_exclusions.txt	LTP243	ltpFR	11	5	1	FARM	552	n/a	0	n/a	0	0	0	n/a	n/a	n/a	n/a	n/a
1680.996	n/a	REC_WORD	840498	wordpools/wasnorm_wordpool_less_exclusions.txt	LTP243	ltpFR	11	5	1	DOG	480	n/a	1	n/a	0	0	0	n/a	n/a	n/a	n/a	n/a
1682.238	n/a	REC_WORD	841119	wordpools/wasnorm_wordpool_less_exclusions.txt	LTP243	ltpFR	11	5	1	WILDERNESS	1610	n/a	0	n/a	0	0	0	n/a	n/a	n/a	n/a	n/a
1683.86	n/a	REC_WORD	841930	wordpools/wasnorm_wordpool_less_exclusions.txt	LTP243	ltpFR	11	5	1	ARROW	40	n/a	0	n/a	0	0	0	n/a	n/a	n/a	n/a	n/a
1685.102	n/a	REC_WORD	842551	wordpools/wasnorm_wordpool_less_exclusions.txt	LTP243	ltpFR	11	5	1	RIB	1188	n/a	0	n/a	0	0	0	n/a	n/a	n/a	n/a	n/a
1686.588	n/a	REC_WORD	843294	wordpools/wasnorm_wordpool_less_exclusions.txt	LTP243	ltpFR	11	5	1	DAM	436	n/a	0	n/a	0	0	0	n/a	n/a	n/a	n/a	n/a
1687.792	n/a	REC_WORD	843896	wordpools/wasnorm_wordpool_less_exclusions.txt	LTP243	ltpFR	11	5	1	MOAT	903	n/a	0	n/a	0	0	0	n/a	n/a	n/a	n/a	n/a
1690.276	n/a	REC_WORD	845138	wordpools/wasnorm_wordpool_less_exclusions.txt	LTP243	ltpFR	11	5	1	PASSAGE	1019	n/a	0	n/a	0	0	0	n/a	n/a	n/a	n/a	n/a
1691.472	n/a	REC_WORD	845736	wordpools/wasnorm_wordpool_less_exclusions.txt	LTP243	ltpFR	11	5	1	HIGHWAY	707	n/a	0	n/a	0	0	0	n/a	n/a	n/a	n/a	n/a
1694.386	n/a	REC_WORD	847193	wordpools/wasnorm_wordpool_less_exclusions.txt	LTP243	ltpFR	11	5	1	CRAB	397	n/a	1	n/a	0	0	0	n/a	n/a	n/a	n/a	n/a
1697.494	n/a	REC_WORD	848747	wordpools/wasnorm_wordpool_less_exclusions.txt	LTP243	ltpFR	11	5	1	NOVEL	960	n/a	0	n/a	0	0	0	n/a	n/a	n/a	n/a	n/a
1698.696	n/a	REC_WORD	849348	wordpools/wasnorm_wordpool_less_exclusions.txt	LTP243	ltpFR	11	5	1	CONTAINER	366	n/a	0	n/a	0	0	0	n/a	n/a	n/a	n/a	n/a
1760.08	n/a	WORD	880040	wordpools/wasnorm_wordpool_less_exclusions.txt	LTP243	ltpFR	11	6	1	ATLAS	53	n/a	0	n/a	0	0	0	0	0.5869140625	0.422607421875	lower	../fonts/amplitud.ttf
1763.992	n/a	WORD	881996	wordpools/wasnorm_wordpool_less_exclusions.txt	LTP243	ltpFR	11	6	1	DRINK	498	n/a	0	n/a	0	0	0	0	0.5869140625	0.422607421875	lower	../fonts/amplitud.ttf
1767.968	n/a	WORD	883984	wordpools/wasnorm_wordpool_less_exclusions.txt	LTP243	ltpFR	11	6	1	GROUND	666	n/a	0	n/a	0	0	0	0	0.5869140625	0.422607421875	lower	../fonts/amplitud.ttf
1771.88	n/a	WORD	885940	wordpools/wasnorm_wordpool_less_exclusions.txt	LTP243	ltpFR	11	6	1	ANTELOPE	27	n/a	1	n/a	0	0	0	0	0.5869140625	0.422607421875	lower	../fonts/amplitud.ttf
1776.024	n/a	WORD	888012	wordpools/wasnorm_wordpool_less_exclusions.txt	LTP243	ltpFR	11	6	1	BOY	161	n/a	1	n/a	0	0	0	0	0.5869140625	0.422607421875	lower	../fonts/amplitud.ttf
1779.852	n/a	WORD	889926	wordpools/wasnorm_wordpool_less_exclusions.txt	LTP243	ltpFR	11	6	1	FEMALE	559	n/a	1	n/a	0	0	0	0	0.5869140625	0.422607421875	lower	../fonts/amplitud.ttf
1783.762	n/a	WORD	891881	wordpools/wasnorm_wordpool_less_exclusions.txt	LTP243	ltpFR	11	6	1	UNIVERSE	1540	n/a	1	n/a	0	0	0	0	0.5869140625	0.422607421875	lower	../fonts/amplitud.ttf
1787.806	n/a	WORD	893903	wordpools/wasnorm_wordpool_less_exclusions.txt	LTP243	ltpFR	11	6	1	BRANDY	169	n/a	0	n/a	0	0	0	0	0.5869140625	0.422607421875	lower	../fonts/amplitud.ttf
1791.85	n/a	WORD	895925	wordpools/wasnorm_wordpool_less_exclusions.txt	LTP243	ltpFR	11	6	1	LONDON	843	n/a	0	n/a	0	0	0	0	0.5869140625	0.422607421875	lower	../fonts/amplitud.ttf
1795.944	n/a	WORD	897972	wordpools/wasnorm_wordpool_less_exclusions.txt	LTP243	ltpFR	11	6	1	THUMB	1462	n/a	0	n/a	0	0	0	0	0.5869140625	0.422607421875	lower	../fonts/amplitud.ttf
1800.122	n/a	WORD	900061	wordpools/wasnorm_wordpool_less_exclusions.txt	LTP243	ltpFR	11	6	1	HAND	683	n/a	0	n/a	0	0	0	0	0.5869140625	0.422607421875	lower	../fonts/amplitud.ttf
1804.316	n/a	WORD	902158	wordpools/wasnorm_wordpool_less_exclusions.txt	LTP243	ltpFR	11	6	1	ASIA	46	n/a	0	n/a	0	0	0	0	0.5869140625	0.422607421875	lower	../fonts/amplitud.ttf
1808.342	n/a	WORD	904171	wordpools/wasnorm_wordpool_less_exclusions.txt	LTP243	ltpFR	11	6	1	COCOON	339	n/a	0	n/a	0	0	0	0	0.5869140625	0.422607421875	lower	../fonts/amplitud.ttf
1812.52	n/a	WORD	906260	wordpools/wasnorm_wordpool_less_exclusions.txt	LTP243	ltpFR	11	6	1	INSECT	740	n/a	1	n/a	0	0	0	0	0.5869140625	0.422607421875	lower	../fonts/amplitud.ttf
1816.664	n/a	WORD	908332	wordpools/wasnorm_wordpool_less_exclusions.txt	LTP243	ltpFR	11	6	1	FOLLOWER	589	n/a	1	n/a	0	0	0	0	0.5869140625	0.422607421875	lower	../fonts/amplitud.ttf
1820.592	n/a	WORD	910296	wordpools/wasnorm_wordpool_less_exclusions.txt	LTP243	ltpFR	11	6	1	TREAT	1501	n/a	0	n/a	0	0	0	0	0.5869140625	0.422607421875	lower	../fonts/amplitud.ttf
1823.604	n/a	START	911802	n/a	LTP243	ltpFR	11	n/a	n/a	n/a	n/a	n/a	n/a	n/a	n/a	n/a	n/a	n/a	n/a	n/a	n/a	n/a
1824.602	n/a	PROB	912301	n/a	LTP243	ltpFR	11	n/a	n/a	n/a	n/a	n/a	n/a	17	7	5	5	n/a	n/a	n/a	n/a	n/a
1826.232	n/a	PROB	913116	n/a	LTP243	ltpFR	11	n/a	n/a	n/a	n/a	n/a	n/a	11	3	1	7	n/a	n/a	n/a	n/a	n/a
1827.83	n/a	PROB	913915	n/a	LTP243	ltpFR	11	n/a	n/a	n/a	n/a	n/a	n/a	15	3	5	7	n/a	n/a	n/a	n/a	n/a
1829.478	n/a	PROB	914739	n/a	LTP243	ltpFR	11	n/a	n/a	n/a	n/a	n/a	n/a	8	1	6	1	n/a	n/a	n/a	n/a	n/a
1830.676	n/a	PROB	915338	n/a	LTP243	ltpFR	11	n/a	n/a	n/a	n/a	n/a	n/a	7	4	1	2	n/a	n/a	n/a	n/a	n/a
1832.606	n/a	PROB	916303	n/a	LTP243	ltpFR	11	n/a	n/a	n/a	n/a	n/a	n/a	8	1	5	2	n/a	n/a	n/a	n/a	n/a
1834.088	n/a	PROB	917044	n/a	LTP243	ltpFR	11	n/a	n/a	n/a	n/a	n/a	n/a	14	9	3	2	n/a	n/a	n/a	n/a	n/a
1835.702	n/a	PROB	917851	n/a	LTP243	ltpFR	11	n/a	n/a	n/a	n/a	n/a	n/a	10	4	5	1	n/a	n/a	n/a	n/a	n/a
1837.05	n/a	PROB	918525	n/a	LTP243	ltpFR	11	n/a	n/a	n/a	n/a	n/a	n/a	16	7	1	8	n/a	n/a	n/a	n/a	n/a
1838.702	n/a	STOP	919351	n/a	LTP243	ltpFR	11	n/a	n/a	n/a	n/a	n/a	n/a	n/a	n/a	n/a	n/a	n/a	n/a	n/a	n/a	n/a
1841.494	n/a	REC_START	920747	n/a	LTP243	ltpFR	11	6	n/a	n/a	n/a	n/a	n/a	n/a	0	0	0	n/a	n/a	n/a	n/a	n/a
1842.196	n/a	REC_WORD	921098	wordpools/wasnorm_wordpool_less_exclusions.txt	LTP243	ltpFR	11	6	1	PORK	1108	n/a	0	n/a	0	0	0	n/a	n/a	n/a	n/a	n/a
1843.534	n/a	REC_WORD	921767	wordpools/wasnorm_wordpool_less_exclusions.txt	LTP243	ltpFR	11	6	1	HAM	678	n/a	0	n/a	0	0	0	n/a	n/a	n/a	n/a	n/a
1844.756	n/a	REC_WORD	922378	wordpools/wasnorm_wordpool_less_exclusions.txt	LTP243	ltpFR	11	6	1	INSECT	740	n/a	1	n/a	0	0	0	n/a	n/a	n/a	n/a	n/a
1856.366	n/a	REC_WORD_VV	928183	wordpools/wasnorm_wordpool_less_exclusions.txt	LTP243	ltpFR	11	6	n/a	<>	-1	n/a	n/a	n/a	0	0	0	n/a	n/a	n/a	n/a	n/a
1857.366	n/a	REC_WORD_VV	928683	wordpools/wasnorm_wordpool_less_exclusions.txt	LTP243	ltpFR	11	6	n/a	<>	-1	n/a	n/a	n/a	0	0	0	n/a	n/a	n/a	n/a	n/a
1858.366	n/a	REC_WORD_VV	929183	wordpools/wasnorm_wordpool_less_exclusions.txt	LTP243	ltpFR	11	6	n/a	<>	-1	n/a	n/a	n/a	0	0	0	n/a	n/a	n/a	n/a	n/a
1870.478	n/a	REC_WORD	935239	wordpools/wasnorm_wordpool_less_exclusions.txt	LTP243	ltpFR	11	6	1	BOY	161	n/a	1	n/a	0	0	0	n/a	n/a	n/a	n/a	n/a
1871.55	n/a	REC_WORD	935775	wordpools/wasnorm_wordpool_less_exclusions.txt	LTP243	ltpFR	11	6	1	FEMALE	559	n/a	1	n/a	0	0	0	n/a	n/a	n/a	n/a	n/a
1884.576	n/a	REC_WORD	942288	wordpools/wasnorm_wordpool_less_exclusions.txt	LTP243	ltpFR	11	6	1	UNIVERSE	1540	n/a	1	n/a	0	0	0	n/a	n/a	n/a	n/a	n/a
1885.598	n/a	REC_WORD	942799	wordpools/wasnorm_wordpool_less_exclusions.txt	LTP243	ltpFR	11	6	1	THUMB	1462	n/a	0	n/a	0	0	0	n/a	n/a	n/a	n/a	n/a
1889.406	n/a	REC_WORD	944703	wordpools/wasnorm_wordpool_less_exclusions.txt	LTP243	ltpFR	11	6	1	HAND	683	n/a	0	n/a	0	0	0	n/a	n/a	n/a	n/a	n/a
1990.856	n/a	START	995428	n/a	LTP243	ltpFR	11	n/a	n/a	n/a	n/a	n/a	n/a	n/a	n/a	n/a	n/a	n/a	n/a	n/a	n/a	n/a
1992.37	n/a	PROB	996185	n/a	LTP243	ltpFR	11	n/a	n/a	n/a	n/a	n/a	n/a	18	3	6	7	n/a	n/a	n/a	n/a	n/a
1994.602	n/a	PROB	997301	n/a	LTP243	ltpFR	11	n/a	n/a	n/a	n/a	n/a	n/a	6	1	7	4	n/a	n/a	n/a	n/a	n/a
1997.634	n/a	STOP	998817	n/a	LTP243	ltpFR	11	n/a	n/a	n/a	n/a	n/a	n/a	n/a	n/a	n/a	n/a	n/a	n/a	n/a	n/a	n/a
1999.826	n/a	WORD	999913	wordpools/wasnorm_wordpool_less_exclusions.txt	LTP243	ltpFR	11	7	1	GAZELLE	628	n/a	1	n/a	0	0	0	0	0.5869140625	0.422607421875	lower	../fonts/amplitud.ttf
2002.84	n/a	START	1001420	n/a	LTP243	ltpFR	11	n/a	n/a	n/a	n/a	n/a	n/a	n/a	n/a	n/a	n/a	n/a	n/a	n/a	n/a	n/a
2004.02	n/a	PROB	1002010	n/a	LTP243	ltpFR	11	n/a	n/a	n/a	n/a	n/a	n/a	16	8	5	3	n/a	n/a	n/a	n/a	n/a
2006.15	n/a	PROB	1003075	n/a	LTP243	ltpFR	11	n/a	n/a	n/a	n/a	n/a	n/a	19	7	9	3	n/a	n/a	n/a	n/a	n/a
2010.84	n/a	STOP	1005420	n/a	LTP243	ltpFR	11	n/a	n/a	n/a	n/a	n/a	n/a	n/a	n/a	n/a	n/a	n/a	n/a	n/a	n/a	n/a
2011.792	n/a	WORD	1005896	wordpools/wasnorm_wordpool_less_exclusions.txt	LTP243	ltpFR	11	7	1	CAT	257	n/a	1	n/a	0	0	0	0	0.5869140625	0.422607421875	lower	../fonts/amplitud.ttf
2014.804	n/a	START	1007402	n/a	LTP243	ltpFR	11	n/a	n/a	n/a	n/a	n/a	n/a	n/a	n/a	n/a	n/a	n/a	n/a	n/a	n/a	n/a
2015.736	n/a	PROB	1007868	n/a	LTP243	ltpFR	11	n/a	n/a	n/a	n/a	n/a	n/a	24	8	6	8	n/a	n/a	n/a	n/a	n/a
2017.4	n/a	PROB	1008700	n/a	LTP243	ltpFR	11	n/a	n/a	n/a	n/a	n/a	n/a	12	2	6	4	n/a	n/a	n/a	n/a	n/a
2019.98	n/a	PROB	1009990	n/a	LTP243	ltpFR	11	n/a	n/a	n/a	n/a	n/a	n/a	13	3	3	7	n/a	n/a	n/a	n/a	n/a
2021.33	n/a	STOP	1010665	n/a	LTP243	ltpFR	11	n/a	n/a	n/a	n/a	n/a	n/a	n/a	n/a	n/a	n/a	n/a	n/a	n/a	n/a	n/a
2023.84	n/a	WORD	1011920	wordpools/wasnorm_wordpool_less_exclusions.txt	LTP243	ltpFR	11	7	0	ANIMAL	23	n/a	1	n/a	0	0	0	1	0.412841796875	0.57763671875	upper	../fonts/zerothre.ttf
2026.854	n/a	START	1013427	n/a	LTP243	ltpFR	11	n/a	n/a	n/a	n/a	n/a	n/a	n/a	n/a	n/a	n/a	n/a	n/a	n/a	n/a	n/a
2027.834	n/a	PROB	1013917	n/a	LTP243	ltpFR	11	n/a	n/a	n/a	n/a	n/a	n/a	17	9	5	3	n/a	n/a	n/a	n/a	n/a
2029.866	n/a	PROB	1014933	n/a	LTP243	ltpFR	11	n/a	n/a	n/a	n/a	n/a	n/a	14	2	5	7	n/a	n/a	n/a	n/a	n/a
2031.396	n/a	PROB	1015698	n/a	LTP243	ltpFR	11	n/a	n/a	n/a	n/a	n/a	n/a	15	7	5	3	n/a	n/a	n/a	n/a	n/a
2032.91	n/a	PROB	1016455	n/a	LTP243	ltpFR	11	n/a	n/a	n/a	n/a	n/a	n/a	16	6	3	7	n/a	n/a	n/a	n/a	n/a
2034.146	n/a	STOP	1017073	n/a	LTP243	ltpFR	11	n/a	n/a	n/a	n/a	n/a	n/a	n/a	n/a	n/a	n/a	n/a	n/a	n/a	n/a	n/a
2035.972	n/a	WORD	1017986	wordpools/wasnorm_wordpool_less_exclusions.txt	LTP243	ltpFR	11	7	0	FOX	598	n/a	1	n/a	0	0	0	1	0.412841796875	0.57763671875	upper	../fonts/zerothre.ttf
2038.986	n/a	START	1019493	n/a	LTP243	ltpFR	11	n/a	n/a	n/a	n/a	n/a	n/a	n/a	n/a	n/a	n/a	n/a	n/a	n/a	n/a	n/a
2039.816	n/a	PROB	1019908	n/a	LTP243	ltpFR	11	n/a	n/a	n/a	n/a	n/a	n/a	10	2	6	2	n/a	n/a	n/a	n/a	n/a
2041.432	n/a	PROB	1020716	n/a	LTP243	ltpFR	11	n/a	n/a	n/a	n/a	n/a	n/a	18	2	9	7	n/a	n/a	n/a	n/a	n/a
2046.986	n/a	STOP	1023493	n/a	LTP243	ltpFR	11	n/a	n/a	n/a	n/a	n/a	n/a	n/a	n/a	n/a	n/a	n/a	n/a	n/a	n/a	n/a
2048.122	n/a	WORD	1024061	wordpools/wasnorm_wordpool_less_exclusions.txt	LTP243	ltpFR	11	7	1	HEN	703	n/a	1	n/a	0	0	0	0	0.5869140625	0.422607421875	lower	../fonts/amplitud.ttf
2051.134	n/a	START	1025567	n/a	LTP243	ltpFR	11	n/a	n/a	n/a	n/a	n/a	n/a	n/a	n/a	n/a	n/a	n/a	n/a	n/a	n/a	n/a
2052.282	n/a	PROB	1026141	n/a	LTP243	ltpFR	11	n/a	n/a	n/a	n/a	n/a	n/a	12	4	6	2	n/a	n/a	n/a	n/a	n/a
2053.662	n/a	PROB	1026831	n/a	LTP243	ltpFR	11	n/a	n/a	n/a	n/a	n/a	n/a	16	4	6	6	n/a	n/a	n/a	n/a	n/a
2055.694	n/a	PROB	1027847	n/a	LTP243	ltpFR	11	n/a	n/a	n/a	n/a	n/a	n/a	14	4	4	6	n/a	n/a	n/a	n/a	n/a
2057.008	n/a	PROB	1028504	n/a	LTP243	ltpFR	11	n/a	n/a	n/a	n/a	n/a	n/a	15	3	5	7	n/a	n/a	n/a	n/a	n/a
2058.29	n/a	STOP	1029145	n/a	LTP243	ltpFR	11	n/a	n/a	n/a	n/a	n/a	n/a	n/a	n/a	n/a	n/a	n/a	n/a	n/a	n/a	n/a
2060.32	n/a	WORD	1030160	wordpools/wasnorm_wordpool_less_exclusions.txt	LTP243	ltpFR	11	7	1	JEWEL	757	n/a	0	n/a	0	0	0	0	0.5869140625	0.422607421875	lower	../fonts/amplitud.ttf
2063.332	n/a	START	1031666	n/a	LTP243	ltpFR	11	n/a	n/a	n/a	n/a	n/a	n/a	n/a	n/a	n/a	n/a	n/a	n/a	n/a	n/a	n/a
2064.23	n/a	PROB	1032115	n/a	LTP243	ltpFR	11	n/a	n/a	n/a	n/a	n/a	n/a	14	2	4	8	n/a	n/a	n/a	n/a	n/a
2065.762	n/a	PROB	1032881	n/a	LTP243	ltpFR	11	n/a	n/a	n/a	n/a	n/a	n/a	10	1	7	2	n/a	n/a	n/a	n/a	n/a
2067.176	n/a	PROB	1033588	n/a	LTP243	ltpFR	11	n/a	n/a	n/a	n/a	n/a	n/a	120	7	4	9	n/a	n/a	n/a	n/a	n/a
2069.842	n/a	STOP	1034921	n/a	LTP243	ltpFR	11	n/a	n/a	n/a	n/a	n/a	n/a	n/a	n/a	n/a	n/a	n/a	n/a	n/a	n/a	n/a
2072.236	n/a	WORD	1036118	wordpools/wasnorm_wordpool_less_exclusions.txt	LTP243	ltpFR	11	7	1	DOORBELL	487	n/a	0	n/a	0	0	0	0	0.5869140625	0.422607421875	lower	../fonts/amplitud.ttf
2075.248	n/a	START	1037624	n/a	LTP243	ltpFR	11	n/a	n/a	n/a	n/a	n/a	n/a	n/a	n/a	n/a	n/a	n/a	n/a	n/a	n/a	n/a
2076.18	n/a	PROB	1038090	n/a	LTP243	ltpFR	11	n/a	n/a	n/a	n/a	n/a	n/a	17	5	4	8	n/a	n/a	n/a	n/a	n/a
2078.494	n/a	PROB	1039247	n/a	LTP243	ltpFR	11	n/a	n/a	n/a	n/a	n/a	n/a	20	9	2	9	n/a	n/a	n/a	n/a	n/a
2080.408	n/a	PROB	1040204	n/a	LTP243	ltpFR	11	n/a	n/a	n/a	n/a	n/a	n/a	10	1	9	1	n/a	n/a	n/a	n/a	n/a
2081.73	n/a	STOP	1040865	n/a	LTP243	ltpFR	11	n/a	n/a	n/a	n/a	n/a	n/a	n/a	n/a	n/a	n/a	n/a	n/a	n/a	n/a	n/a
2084.434	n/a	WORD	1042217	wordpools/wasnorm_wordpool_less_exclusions.txt	LTP243	ltpFR	11	7	0	PARTY	1018	n/a	1	n/a	0	0	0	1	0.412841796875	0.57763671875	upper	../fonts/zerothre.ttf
2087.448	n/a	START	1043724	n/a	LTP243	ltpFR	11	n/a	n/a	n/a	n/a	n/a	n/a	n/a	n/a	n/a	n/a	n/a	n/a	n/a	n/a	n/a
2088.428	n/a	PROB	1044214	n/a	LTP243	ltpFR	11	n/a	n/a	n/a	n/a	n/a	n/a	19	8	5	6	n/a	n/a	n/a	n/a	n/a
2090.776	n/a	PROB	1045388	n/a	LTP243	ltpFR	11	n/a	n/a	n/a	n/a	n/a	n/a	11	3	7	1	n/a	n/a	n/a	n/a	n/a
2092.472	n/a	PROB	1046236	n/a	LTP243	ltpFR	11	n/a	n/a	n/a	n/a	n/a	n/a	19	2	9	8	n/a	n/a	n/a	n/a	n/a
2095.202	n/a	STOP	1047601	n/a	LTP243	ltpFR	11	n/a	n/a	n/a	n/a	n/a	n/a	n/a	n/a	n/a	n/a	n/a	n/a	n/a	n/a	n/a
2096.5	n/a	WORD	1048250	wordpools/wasnorm_wordpool_less_exclusions.txt	LTP243	ltpFR	11	7	0	LOUNGE	845	n/a	1	n/a	0	0	0	1	0.412841796875	0.57763671875	upper	../fonts/zerothre.ttf
2099.512	n/a	START	1049756	n/a	LTP243	ltpFR	11	n/a	n/a	n/a	n/a	n/a	n/a	n/a	n/a	n/a	n/a	n/a	n/a	n/a	n/a	n/a
2100.56	n/a	PROB	1050280	n/a	LTP243	ltpFR	11	n/a	n/a	n/a	n/a	n/a	n/a	16	2	5	9	n/a	n/a	n/a	n/a	n/a
2102.608	n/a	PROB	1051304	n/a	LTP243	ltpFR	11	n/a	n/a	n/a	n/a	n/a	n/a	20	8	3	9	n/a	n/a	n/a	n/a	n/a
2107.512	n/a	STOP	1053756	n/a	LTP243	ltpFR	11	n/a	n/a	n/a	n/a	n/a	n/a	n/a	n/a	n/a	n/a	n/a	n/a	n/a	n/a	n/a
2108.398	n/a	WORD	1054199	wordpools/wasnorm_wordpool_less_exclusions.txt	LTP243	ltpFR	11	7	0	CELLO	268	n/a	1	n/a	0	0	0	1	0.412841796875	0.57763671875	upper	../fonts/zerothre.ttf
2111.412	n/a	START	1055706	n/a	LTP243	ltpFR	11	n/a	n/a	n/a	n/a	n/a	n/a	n/a	n/a	n/a	n/a	n/a	n/a	n/a	n/a	n/a
2112.36	n/a	PROB	1056180	n/a	LTP243	ltpFR	11	n/a	n/a	n/a	n/a	n/a	n/a	14	1	6	7	n/a	n/a	n/a	n/a	n/a
2114.156	n/a	PROB	1057078	n/a	LTP243	ltpFR	11	n/a	n/a	n/a	n/a	n/a	n/a	10	3	6	1	n/a	n/a	n/a	n/a	n/a
2115.688	n/a	PROB	1057844	n/a	LTP243	ltpFR	11	n/a	n/a	n/a	n/a	n/a	n/a	12	4	2	5	n/a	n/a	n/a	n/a	n/a
2117.536	n/a	PROB	1058768	n/a	LTP243	ltpFR	11	n/a	n/a	n/a	n/a	n/a	n/a	11	5	5	1	n/a	n/a	n/a	n/a	n/a
2118.858	n/a	STOP	1059429	n/a	LTP243	ltpFR	11	n/a	n/a	n/a	n/a	n/a	n/a	n/a	n/a	n/a	n/a	n/a	n/a	n/a	n/a	n/a
2120.314	n/a	WORD	1060157	wordpools/wasnorm_wordpool_less_exclusions.txt	LTP243	ltpFR	11	7	0	IRON	744	n/a	1	n/a	0	0	0	1	0.412841796875	0.57763671875	upper	../fonts/zerothre.ttf
2123.326	n/a	START	1061663	n/a	LTP243	ltpFR	11	n/a	n/a	n/a	n/a	n/a	n/a	n/a	n/a	n/a	n/a	n/a	n/a	n/a	n/a	n/a
2124.142	n/a	PROB	1062071	n/a	LTP243	ltpFR	11	n/a	n/a	n/a	n/a	n/a	n/a	17	7	5	5	n/a	n/a	n/a	n/a	n/a
2125.606	n/a	PROB	1062803	n/a	LTP243	ltpFR	11	n/a	n/a	n/a	n/a	n/a	n/a	10	3	6	1	n/a	n/a	n/a	n/a	n/a
2127.304	n/a	PROB	1063652	n/a	LTP243	ltpFR	11	n/a	n/a	n/a	n/a	n/a	n/a	24	8	8	5	n/a	n/a	n/a	n/a	n/a
2131.326	n/a	STOP	1065663	n/a	LTP243	ltpFR	11	n/a	n/a	n/a	n/a	n/a	n/a	n/a	n/a	n/a	n/a	n/a	n/a	n/a	n/a	n/a
2132.43	n/a	WORD	1066215	wordpools/wasnorm_wordpool_less_exclusions.txt	LTP243	ltpFR	11	7	0	ACROBAT	4	n/a	1	n/a	0	0	0	1	0.412841796875	0.57763671875	upper	../fonts/zerothre.ttf
2135.442	n/a	START	1067721	n/a	LTP243	ltpFR	11	n/a	n/a	n/a	n/a	n/a	n/a	n/a	n/a	n/a	n/a	n/a	n/a	n/a	n/a	n/a
2136.574	n/a	PROB	1068287	n/a	LTP243	ltpFR	11	n/a	n/a	n/a	n/a	n/a	n/a	4	1	2	1	n/a	n/a	n/a	n/a	n/a
2137.788	n/a	PROB	1068894	n/a	LTP243	ltpFR	11	n/a	n/a	n/a	n/a	n/a	n/a	19	2	8	9	n/a	n/a	n/a	n/a	n/a
2139.886	n/a	PROB	1069943	n/a	LTP243	ltpFR	11	n/a	n/a	n/a	n/a	n/a	n/a	15	8	6	1	n/a	n/a	n/a	n/a	n/a
2141.584	n/a	PROB	1070792	n/a	LTP243	ltpFR	11	n/a	n/a	n/a	n/a	n/a	n/a	4	2	1	1	n/a	n/a	n/a	n/a	n/a
2142.588	n/a	STOP	1071294	n/a	LTP243	ltpFR	11	n/a	n/a	n/a	n/a	n/a	n/a	n/a	n/a	n/a	n/a	n/a	n/a	n/a	n/a	n/a
2144.396	n/a	WORD	1072198	wordpools/wasnorm_wordpool_less_exclusions.txt	LTP243	ltpFR	11	7	0	BANJO	82	n/a	1	n/a	0	0	0	1	0.412841796875	0.57763671875	upper	../fonts/zerothre.ttf
2147.408	n/a	START	1073704	n/a	LTP243	ltpFR	11	n/a	n/a	n/a	n/a	n/a	n/a	n/a	n/a	n/a	n/a	n/a	n/a	n/a	n/a	n/a
2148.624	n/a	PROB	1074312	n/a	LTP243	ltpFR	11	n/a	n/a	n/a	n/a	n/a	n/a	13	3	8	2	n/a	n/a	n/a	n/a	n/a
2150.52	n/a	PROB	1075260	n/a	LTP243	ltpFR	11	n/a	n/a	n/a	n/a	n/a	n/a	12	3	6	2	n/a	n/a	n/a	n/a	n/a
2152.85	n/a	PROB	1076425	n/a	LTP243	ltpFR	11	n/a	n/a	n/a	n/a	n/a	n/a	18	8	7	3	n/a	n/a	n/a	n/a	n/a
2154.532	n/a	STOP	1077266	n/a	LTP243	ltpFR	11	n/a	n/a	n/a	n/a	n/a	n/a	n/a	n/a	n/a	n/a	n/a	n/a	n/a	n/a	n/a
2156.294	n/a	WORD	1078147	wordpools/wasnorm_wordpool_less_exclusions.txt	LTP243	ltpFR	11	7	1	ZUCCHINI	1638	n/a	1	n/a	0	0	0	0	0.5869140625	0.422607421875	lower	../fonts/amplitud.ttf
2159.308	n/a	START	1079654	n/a	LTP243	ltpFR	11	n/a	n/a	n/a	n/a	n/a	n/a	n/a	n/a	n/a	n/a	n/a	n/a	n/a	n/a	n/a
2160.19	n/a	PROB	1080095	n/a	LTP243	ltpFR	11	n/a	n/a	n/a	n/a	n/a	n/a	18	7	3	8	n/a	n/a	n/a	n/a	n/a
2161.986	n/a	PROB	1080993	n/a	LTP243	ltpFR	11	n/a	n/a	n/a	n/a	n/a	n/a	17	4	4	9	n/a	n/a	n/a	n/a	n/a
2163.8	n/a	PROB	1081900	n/a	LTP243	ltpFR	11	n/a	n/a	n/a	n/a	n/a	n/a	12	7	2	3	n/a	n/a	n/a	n/a	n/a
2167.308	n/a	STOP	1083654	n/a	LTP243	ltpFR	11	n/a	n/a	n/a	n/a	n/a	n/a	n/a	n/a	n/a	n/a	n/a	n/a	n/a	n/a	n/a
2168.128	n/a	WORD	1084064	wordpools/wasnorm_wordpool_less_exclusions.txt	LTP243	ltpFR	11	7	1	POSSUM	1112	n/a	1	n/a	0	0	0	0	0.5869140625	0.422607421875	lower	../fonts/amplitud.ttf
2171.14	n/a	START	1085570	n/a	LTP243	ltpFR	11	n/a	n/a	n/a	n/a	n/a	n/a	n/a	n/a	n/a	n/a	n/a	n/a	n/a	n/a	n/a
2172.122	n/a	PROB	1086061	n/a	LTP243	ltpFR	11	n/a	n/a	n/a	n/a	n/a	n/a	15	7	4	4	n/a	n/a	n/a	n/a	n/a
2173.686	n/a	PROB	1086843	n/a	LTP243	ltpFR	11	n/a	n/a	n/a	n/a	n/a	n/a	14	8	1	5	n/a	n/a	n/a	n/a	n/a
2175.532	n/a	PROB	1087766	n/a	LTP243	ltpFR	11	n/a	n/a	n/a	n/a	n/a	n/a	9	3	3	3	n/a	n/a	n/a	n/a	n/a
2177.046	n/a	PROB	1088523	n/a	LTP243	ltpFR	11	n/a	n/a	n/a	n/a	n/a	n/a	15	1	9	5	n/a	n/a	n/a	n/a	n/a
2178.244	n/a	STOP	1089122	n/a	LTP243	ltpFR	11	n/a	n/a	n/a	n/a	n/a	n/a	n/a	n/a	n/a	n/a	n/a	n/a	n/a	n/a	n/a
2180.31	n/a	WORD	1090155	wordpools/wasnorm_wordpool_less_exclusions.txt	LTP243	ltpFR	11	7	1	CHAMPAGNE	278	n/a	0	n/a	0	0	0	0	0.5869140625	0.422607421875	lower	../fonts/amplitud.ttf
2183.322	n/a	START	1091661	n/a	LTP243	ltpFR	11	n/a	n/a	n/a	n/a	n/a	n/a	n/a	n/a	n/a	n/a	n/a	n/a	n/a	n/a	n/a
2184.254	n/a	PROB	1092127	n/a	LTP243	ltpFR	11	n/a	n/a	n/a	n/a	n/a	n/a	12	8	1	3	n/a	n/a	n/a	n/a	n/a
2186.316	n/a	PROB	1093158	n/a	LTP243	ltpFR	11	n/a	n/a	n/a	n/a	n/a	n/a	12	1	2	9	n/a	n/a	n/a	n/a	n/a
2187.948	n/a	PROB	1093974	n/a	LTP243	ltpFR	11	n/a	n/a	n/a	n/a	n/a	n/a	17	5	4	8	n/a	n/a	n/a	n/a	n/a
2190.004	n/a	STOP	1095002	n/a	LTP243	ltpFR	11	n/a	n/a	n/a	n/a	n/a	n/a	n/a	n/a	n/a	n/a	n/a	n/a	n/a	n/a	n/a
2193.208	n/a	REC_START	1096604	n/a	LTP243	ltpFR	11	7	n/a	n/a	n/a	n/a	n/a	n/a	0	0	0	n/a	n/a	n/a	n/a	n/a
2194.524	n/a	REC_WORD	1097262	wordpools/wasnorm_wordpool_less_exclusions.txt	LTP243	ltpFR	11	7	1	POSSUM	1112	n/a	1	n/a	0	0	0	n/a	n/a	n/a	n/a	n/a
2195.362	n/a	REC_WORD	1097681	wordpools/wasnorm_wordpool_less_exclusions.txt	LTP243	ltpFR	11	7	1	CHAMPAGNE	278	n/a	0	n/a	0	0	0	n/a	n/a	n/a	n/a	n/a
2198.1	n/a	REC_WORD	1099050	wordpools/wasnorm_wordpool_less_exclusions.txt	LTP243	ltpFR	11	7	0	FOX	598	n/a	1	n/a	0	0	0	n/a	n/a	n/a	n/a	n/a
2199.328	n/a	REC_WORD	1099664	wordpools/wasnorm_wordpool_less_exclusions.txt	LTP243	ltpFR	11	7	0	ANIMAL	23	n/a	1	n/a	0	0	0	n/a	n/a	n/a	n/a	n/a
2201.528	n/a	REC_WORD	1100764	wordpools/wasnorm_wordpool_less_exclusions.txt	LTP243	ltpFR	11	7	1	CAT	257	n/a	1	n/a	0	0	0	n/a	n/a	n/a	n/a	n/a
2203.644	n/a	REC_WORD_VV	1101822	wordpools/wasnorm_wordpool_less_exclusions.txt	LTP243	ltpFR	11	7	n/a	<>	-1	n/a	n/a	n/a	0	0	0	n/a	n/a	n/a	n/a	n/a
2207.444	n/a	REC_WORD	1103722	wordpools/wasnorm_wordpool_less_exclusions.txt	LTP243	ltpFR	11	7	0	CELLO	268	n/a	1	n/a	0	0	0	n/a	n/a	n/a	n/a	n/a
2210.238	n/a	REC_WORD	1105119	wordpools/wasnorm_wordpool_less_exclusions.txt	LTP243	ltpFR	11	7	1	ZUCCHINI	1638	n/a	1	n/a	0	0	0	n/a	n/a	n/a	n/a	n/a
2227.94	n/a	REC_WORD	1113970	wordpools/wasnorm_wordpool_less_exclusions.txt	LTP243	ltpFR	11	7	0	SCREW	1254	n/a	0	n/a	0	0	0	n/a	n/a	n/a	n/a	n/a
2234.684	n/a	REC_WORD	1117342	wordpools/wasnorm_wordpool_less_exclusions.txt	LTP243	ltpFR	11	7	0	PARTY	1018	n/a	1	n/a	0	0	0	n/a	n/a	n/a	n/a	n/a
2253.182	n/a	REC_WORD	1126591	wordpools/wasnorm_wordpool_less_exclusions.txt	LTP243	ltpFR	11	7	1	GAZELLE	628	n/a	1	n/a	0	0	0	n/a	n/a	n/a	n/a	n/a
2254.508	n/a	REC_WORD	1127254	wordpools/wasnorm_wordpool_less_exclusions.txt	LTP243	ltpFR	11	7	1	ANTELOPE	27	n/a	1	n/a	0	0	0	n/a	n/a	n/a	n/a	n/a
2289.382	n/a	START	1144691	n/a	LTP243	ltpFR	11	n/a	n/a	n/a	n/a	n/a	n/a	n/a	n/a	n/a	n/a	n/a	n/a	n/a	n/a	n/a
2290.896	n/a	PROB	1145448	n/a	LTP243	ltpFR	11	n/a	n/a	n/a	n/a	n/a	n/a	20	2	9	9	n/a	n/a	n/a	n/a	n/a
2293.142	n/a	PROB	1146571	n/a	LTP243	ltpFR	11	n/a	n/a	n/a	n/a	n/a	n/a	20	9	9	2	n/a	n/a	n/a	n/a	n/a
2294.474	n/a	PROB	1147237	n/a	LTP243	ltpFR	11	n/a	n/a	n/a	n/a	n/a	n/a	16	1	6	8	n/a	n/a	n/a	n/a	n/a
2296.138	n/a	PROB	1148069	n/a	LTP243	ltpFR	11	n/a	n/a	n/a	n/a	n/a	n/a	13	3	5	6	n/a	n/a	n/a	n/a	n/a
2298.934	n/a	PROB	1149467	n/a	LTP243	ltpFR	11	n/a	n/a	n/a	n/a	n/a	n/a	18	3	7	7	n/a	n/a	n/a	n/a	n/a
2300.432	n/a	PROB	1150216	n/a	LTP243	ltpFR	11	n/a	n/a	n/a	n/a	n/a	n/a	24	6	8	8	n/a	n/a	n/a	n/a	n/a
2302.062	n/a	PROB	1151031	n/a	LTP243	ltpFR	11	n/a	n/a	n/a	n/a	n/a	n/a	18	3	8	6	n/a	n/a	n/a	n/a	n/a
2304.158	n/a	STOP	1152079	n/a	LTP243	ltpFR	11	n/a	n/a	n/a	n/a	n/a	n/a	n/a	n/a	n/a	n/a	n/a	n/a	n/a	n/a	n/a
2306.506	n/a	WORD	1153253	wordpools/wasnorm_wordpool_less_exclusions.txt	LTP243	ltpFR	11	8	0	PIKE	1067	n/a	1	n/a	0	0	0	1	0.412841796875	0.57763671875	upper	../fonts/zerothre.ttf
2309.518	n/a	START	1154759	n/a	LTP243	ltpFR	11	n/a	n/a	n/a	n/a	n/a	n/a	n/a	n/a	n/a	n/a	n/a	n/a	n/a	n/a	n/a
2310.4	n/a	PROB	1155200	n/a	LTP243	ltpFR	11	n/a	n/a	n/a	n/a	n/a	n/a	17	4	4	9	n/a	n/a	n/a	n/a	n/a
2312.048	n/a	PROB	1156024	n/a	LTP243	ltpFR	11	n/a	n/a	n/a	n/a	n/a	n/a	12	2	2	5	n/a	n/a	n/a	n/a	n/a
2314.012	n/a	PROB	1157006	n/a	LTP243	ltpFR	11	n/a	n/a	n/a	n/a	n/a	n/a	9	4	2	3	n/a	n/a	n/a	n/a	n/a
2316.508	n/a	PROB	1158254	n/a	LTP243	ltpFR	11	n/a	n/a	n/a	n/a	n/a	n/a	8	4	3	1	n/a	n/a	n/a	n/a	n/a
2318.304	n/a	PROB	1159152	n/a	LTP243	ltpFR	11	n/a	n/a	n/a	n/a	n/a	n/a	15	4	3	8	n/a	n/a	n/a	n/a	n/a
2319.986	n/a	PROB	1159993	n/a	LTP243	ltpFR	11	n/a	n/a	n/a	n/a	n/a	n/a	14	8	2	4	n/a	n/a	n/a	n/a	n/a
2321.634	n/a	PROB	1160817	n/a	LTP243	ltpFR	11	n/a	n/a	n/a	n/a	n/a	n/a	17	7	9	1	n/a	n/a	n/a	n/a	n/a
2322.982	n/a	PROB	1161491	n/a	LTP243	ltpFR	11	n/a	n/a	n/a	n/a	n/a	n/a	10	6	1	3	n/a	n/a	n/a	n/a	n/a
2324.702	n/a	STOP	1162351	n/a	LTP243	ltpFR	11	n/a	n/a	n/a	n/a	n/a	n/a	n/a	n/a	n/a	n/a	n/a	n/a	n/a	n/a	n/a
2326.526	n/a	WORD	1163263	wordpools/wasnorm_wordpool_less_exclusions.txt	LTP243	ltpFR	11	8	0	LIPSTICK	829	n/a	0	n/a	0	0	0	1	0.412841796875	0.57763671875	upper	../fonts/zerothre.ttf
2329.538	n/a	START	1164769	n/a	LTP243	ltpFR	11	n/a	n/a	n/a	n/a	n/a	n/a	n/a	n/a	n/a	n/a	n/a	n/a	n/a	n/a	n/a
2330.486	n/a	PROB	1165243	n/a	LTP243	ltpFR	11	n/a	n/a	n/a	n/a	n/a	n/a	16	5	6	5	n/a	n/a	n/a	n/a	n/a
2332.118	n/a	PROB	1166059	n/a	LTP243	ltpFR	11	n/a	n/a	n/a	n/a	n/a	n/a	24	4	9	9	n/a	n/a	n/a	n/a	n/a
2333.914	n/a	PROB	1166957	n/a	LTP243	ltpFR	11	n/a	n/a	n/a	n/a	n/a	n/a	16	5	3	8	n/a	n/a	n/a	n/a	n/a
2336.144	n/a	PROB	1168072	n/a	LTP243	ltpFR	11	n/a	n/a	n/a	n/a	n/a	n/a	6	2	1	3	n/a	n/a	n/a	n/a	n/a
2338.092	n/a	PROB	1169046	n/a	LTP243	ltpFR	11	n/a	n/a	n/a	n/a	n/a	n/a	7	1	2	4	n/a	n/a	n/a	n/a	n/a
2339.956	n/a	PROB	1169978	n/a	LTP243	ltpFR	11	n/a	n/a	n/a	n/a	n/a	n/a	16	1	7	8	n/a	n/a	n/a	n/a	n/a
2341.304	n/a	PROB	1170652	n/a	LTP243	ltpFR	11	n/a	n/a	n/a	n/a	n/a	n/a	16	8	8	1	n/a	n/a	n/a	n/a	n/a
2345.538	n/a	STOP	1172769	n/a	LTP243	ltpFR	11	n/a	n/a	n/a	n/a	n/a	n/a	n/a	n/a	n/a	n/a	n/a	n/a	n/a	n/a	n/a
2346.38	n/a	WORD	1173190	wordpools/wasnorm_wordpool_less_exclusions.txt	LTP243	ltpFR	11	8	0	TROUT	1511	n/a	1	n/a	0	0	0	1	0.412841796875	0.57763671875	upper	../fonts/zerothre.ttf
2349.392	n/a	START	1174696	n/a	LTP243	ltpFR	11	n/a	n/a	n/a	n/a	n/a	n/a	n/a	n/a	n/a	n/a	n/a	n/a	n/a	n/a	n/a
2350.44	n/a	PROB	1175220	n/a	LTP243	ltpFR	11	n/a	n/a	n/a	n/a	n/a	n/a	15	3	7	5	n/a	n/a	n/a	n/a	n/a
2352.304	n/a	PROB	1176152	n/a	LTP243	ltpFR	11	n/a	n/a	n/a	n/a	n/a	n/a	20	7	4	9	n/a	n/a	n/a	n/a	n/a
2354.584	n/a	PROB	1177292	n/a	LTP243	ltpFR	11	n/a	n/a	n/a	n/a	n/a	n/a	13	1	9	3	n/a	n/a	n/a	n/a	n/a
2356.498	n/a	PROB	1178249	n/a	LTP243	ltpFR	11	n/a	n/a	n/a	n/a	n/a	n/a	15	5	1	9	n/a	n/a	n/a	n/a	n/a
2358.446	n/a	PROB	1179223	n/a	LTP243	ltpFR	11	n/a	n/a	n/a	n/a	n/a	n/a	14	6	3	5	n/a	n/a	n/a	n/a	n/a
2360.876	n/a	PROB	1180438	n/a	LTP243	ltpFR	11	n/a	n/a	n/a	n/a	n/a	n/a	14	1	8	3	n/a	n/a	n/a	n/a	n/a
2362.674	n/a	PROB	1181337	n/a	LTP243	ltpFR	11	n/a	n/a	n/a	n/a	n/a	n/a	17	9	4	4	n/a	n/a	n/a	n/a	n/a
2364.158	n/a	STOP	1182079	n/a	LTP243	ltpFR	11	n/a	n/a	n/a	n/a	n/a	n/a	n/a	n/a	n/a	n/a	n/a	n/a	n/a	n/a	n/a
2366.6	n/a	WORD	1183300	wordpools/wasnorm_wordpool_less_exclusions.txt	LTP243	ltpFR	11	8	1	PEDESTRIAN	1038	n/a	1	n/a	0	0	0	0	0.5869140625	0.422607421875	lower	../fonts/amplitud.ttf
2369.614	n/a	START	1184807	n/a	LTP243	ltpFR	11	n/a	n/a	n/a	n/a	n/a	n/a	n/a	n/a	n/a	n/a	n/a	n/a	n/a	n/a	n/a
2370.478	n/a	PROB	1185239	n/a	LTP243	ltpFR	11	n/a	n/a	n/a	n/a	n/a	n/a	16	2	9	5	n/a	n/a	n/a	n/a	n/a
2372.642	n/a	PROB	1186321	n/a	LTP243	ltpFR	11	n/a	n/a	n/a	n/a	n/a	n/a	16	9	3	4	n/a	n/a	n/a	n/a	n/a
2374.322	n/a	PROB	1187161	n/a	LTP243	ltpFR	11	n/a	n/a	n/a	n/a	n/a	n/a	14	4	5	5	n/a	n/a	n/a	n/a	n/a
2375.588	n/a	PROB	1187794	n/a	LTP243	ltpFR	11	n/a	n/a	n/a	n/a	n/a	n/a	17	8	4	5	n/a	n/a	n/a	n/a	n/a
2378.016	n/a	PROB	1189008	n/a	LTP243	ltpFR	11	n/a	n/a	n/a	n/a	n/a	n/a	18	7	5	6	n/a	n/a	n/a	n/a	n/a
2379.78	n/a	PROB	1189890	n/a	LTP243	ltpFR	11	n/a	n/a	n/a	n/a	n/a	n/a	16	5	4	7	n/a	n/a	n/a	n/a	n/a
2382.178	n/a	PROB	1191089	n/a	LTP243	ltpFR	11	n/a	n/a	n/a	n/a	n/a	n/a	17	4	7	6	n/a	n/a	n/a	n/a	n/a
2383.742	n/a	PROB	1191871	n/a	LTP243	ltpFR	11	n/a	n/a	n/a	n/a	n/a	n/a	19	6	9	4	n/a	n/a	n/a	n/a	n/a
2385.542	n/a	STOP	1192771	n/a	LTP243	ltpFR	11	n/a	n/a	n/a	n/a	n/a	n/a	n/a	n/a	n/a	n/a	n/a	n/a	n/a	n/a	n/a
2386.77	n/a	WORD	1193385	wordpools/wasnorm_wordpool_less_exclusions.txt	LTP243	ltpFR	11	8	1	MAN	862	n/a	1	n/a	0	0	0	0	0.5869140625	0.422607421875	lower	../fonts/amplitud.ttf
2389.782	n/a	START	1194891	n/a	LTP243	ltpFR	11	n/a	n/a	n/a	n/a	n/a	n/a	n/a	n/a	n/a	n/a	n/a	n/a	n/a	n/a	n/a
2390.748	n/a	PROB	1195374	n/a	LTP243	ltpFR	11	n/a	n/a	n/a	n/a	n/a	n/a	16	4	5	7	n/a	n/a	n/a	n/a	n/a
2393.228	n/a	PROB	1196614	n/a	LTP243	ltpFR	11	n/a	n/a	n/a	n/a	n/a	n/a	14	3	4	7	n/a	n/a	n/a	n/a	n/a
2394.742	n/a	PROB	1197371	n/a	LTP243	ltpFR	11	n/a	n/a	n/a	n/a	n/a	n/a	17	2	7	8	n/a	n/a	n/a	n/a	n/a
2396.506	n/a	PROB	1198253	n/a	LTP243	ltpFR	11	n/a	n/a	n/a	n/a	n/a	n/a	9	1	2	6	n/a	n/a	n/a	n/a	n/a
2398.304	n/a	PROB	1199152	n/a	LTP243	ltpFR	11	n/a	n/a	n/a	n/a	n/a	n/a	13	1	8	5	n/a	n/a	n/a	n/a	n/a
2400.566	n/a	PROB	1200283	n/a	LTP243	ltpFR	11	n/a	n/a	n/a	n/a	n/a	n/a	13	3	1	9	n/a	n/a	n/a	n/a	n/a
2402.098	n/a	PROB	1201049	n/a	LTP243	ltpFR	11	n/a	n/a	n/a	n/a	n/a	n/a	18	8	6	4	n/a	n/a	n/a	n/a	n/a
2405.782	n/a	STOP	1202891	n/a	LTP243	ltpFR	11	n/a	n/a	n/a	n/a	n/a	n/a	n/a	n/a	n/a	n/a	n/a	n/a	n/a	n/a	n/a
2406.808	n/a	WORD	1203404	wordpools/wasnorm_wordpool_less_exclusions.txt	LTP243	ltpFR	11	8	1	WOMAN	1620	n/a	1	n/a	0	0	0	0	0.5869140625	0.422607421875	lower	../fonts/amplitud.ttf
2409.82	n/a	START	1204910	n/a	LTP243	ltpFR	11	n/a	n/a	n/a	n/a	n/a	n/a	n/a	n/a	n/a	n/a	n/a	n/a	n/a	n/a	n/a
2410.984	n/a	PROB	1205492	n/a	LTP243	ltpFR	11	n/a	n/a	n/a	n/a	n/a	n/a	13	8	3	2	n/a	n/a	n/a	n/a	n/a
2413.314	n/a	PROB	1206657	n/a	LTP243	ltpFR	11	n/a	n/a	n/a	n/a	n/a	n/a	24	8	4	2	n/a	n/a	n/a	n/a	n/a
2415.826	n/a	PROB	1207913	n/a	LTP243	ltpFR	11	n/a	n/a	n/a	n/a	n/a	n/a	13	6	4	3	n/a	n/a	n/a	n/a	n/a
2417.242	n/a	PROB	1208621	n/a	LTP243	ltpFR	11	n/a	n/a	n/a	n/a	n/a	n/a	18	7	6	5	n/a	n/a	n/a	n/a	n/a
2419.754	n/a	PROB	1209877	n/a	LTP243	ltpFR	11	n/a	n/a	n/a	n/a	n/a	n/a	9	2	6	1	n/a	n/a	n/a	n/a	n/a
2422.284	n/a	PROB	1211142	n/a	LTP243	ltpFR	11	n/a	n/a	n/a	n/a	n/a	n/a	16	9	7	9	n/a	n/a	n/a	n/a	n/a
2425.82	n/a	STOP	1212910	n/a	LTP243	ltpFR	11	n/a	n/a	n/a	n/a	n/a	n/a	n/a	n/a	n/a	n/a	n/a	n/a	n/a	n/a	n/a
2426.976	n/a	WORD	1213488	wordpools/wasnorm_wordpool_less_exclusions.txt	LTP243	ltpFR	11	8	1	SALESMAN	1225	n/a	1	n/a	0	0	0	0	0.5869140625	0.422607421875	lower	../fonts/amplitud.ttf
2429.99	n/a	START	1214995	n/a	LTP243	ltpFR	11	n/a	n/a	n/a	n/a	n/a	n/a	n/a	n/a	n/a	n/a	n/a	n/a	n/a	n/a	n/a
2430.888	n/a	PROB	1215444	n/a	LTP243	ltpFR	11	n/a	n/a	n/a	n/a	n/a	n/a	19	8	9	2	n/a	n/a	n/a	n/a	n/a
2432.536	n/a	PROB	1216268	n/a	LTP243	ltpFR	11	n/a	n/a	n/a	n/a	n/a	n/a	17	8	5	4	n/a	n/a	n/a	n/a	n/a
2434.45	n/a	PROB	1217225	n/a	LTP243	ltpFR	11	n/a	n/a	n/a	n/a	n/a	n/a	20	9	8	3	n/a	n/a	n/a	n/a	n/a
2436.398	n/a	PROB	1218199	n/a	LTP243	ltpFR	11	n/a	n/a	n/a	n/a	n/a	n/a	15	5	2	8	n/a	n/a	n/a	n/a	n/a
2438.194	n/a	PROB	1219097	n/a	LTP243	ltpFR	11	n/a	n/a	n/a	n/a	n/a	n/a	12	3	6	3	n/a	n/a	n/a	n/a	n/a
2440.408	n/a	PROB	1220204	n/a	LTP243	ltpFR	11	n/a	n/a	n/a	n/a	n/a	n/a	15	9	1	5	n/a	n/a	n/a	n/a	n/a
2442.054	n/a	PROB	1221027	n/a	LTP243	ltpFR	11	n/a	n/a	n/a	n/a	n/a	n/a	13	2	3	8	n/a	n/a	n/a	n/a	n/a
2443.586	n/a	PROB	1221793	n/a	LTP243	ltpFR	11	n/a	n/a	n/a	n/a	n/a	n/a	14	3	5	9	n/a	n/a	n/a	n/a	n/a
2445.648	n/a	STOP	1222824	n/a	LTP243	ltpFR	11	n/a	n/a	n/a	n/a	n/a	n/a	n/a	n/a	n/a	n/a	n/a	n/a	n/a	n/a	n/a
2447.014	n/a	WORD	1223507	wordpools/wasnorm_wordpool_less_exclusions.txt	LTP243	ltpFR	11	8	0	STICKER	1382	n/a	0	n/a	0	0	0	1	0.412841796875	0.57763671875	upper	../fonts/zerothre.ttf
2450.028	n/a	START	1225014	n/a	LTP243	ltpFR	11	n/a	n/a	n/a	n/a	n/a	n/a	n/a	n/a	n/a	n/a	n/a	n/a	n/a	n/a	n/a
2451.026	n/a	PROB	1225513	n/a	LTP243	ltpFR	11	n/a	n/a	n/a	n/a	n/a	n/a	18	6	7	5	n/a	n/a	n/a	n/a	n/a
2452.872	n/a	PROB	1226436	n/a	LTP243	ltpFR	11	n/a	n/a	n/a	n/a	n/a	n/a	17	4	4	9	n/a	n/a	n/a	n/a	n/a
2454.786	n/a	PROB	1227393	n/a	LTP243	ltpFR	11	n/a	n/a	n/a	n/a	n/a	n/a	13	4	1	8	n/a	n/a	n/a	n/a	n/a
2456.834	n/a	PROB	1228417	n/a	LTP243	ltpFR	11	n/a	n/a	n/a	n/a	n/a	n/a	14	4	7	3	n/a	n/a	n/a	n/a	n/a
2458.332	n/a	PROB	1229166	n/a	LTP243	ltpFR	11	n/a	n/a	n/a	n/a	n/a	n/a	22	9	8	5	n/a	n/a	n/a	n/a	n/a
2462.326	n/a	PROB	1231163	n/a	LTP243	ltpFR	11	n/a	n/a	n/a	n/a	n/a	n/a	24	8	9	7	n/a	n/a	n/a	n/a	n/a
2466.028	n/a	STOP	1233014	n/a	LTP243	ltpFR	11	n/a	n/a	n/a	n/a	n/a	n/a	n/a	n/a	n/a	n/a	n/a	n/a	n/a	n/a	n/a
2467.218	n/a	WORD	1233609	wordpools/wasnorm_wordpool_less_exclusions.txt	LTP243	ltpFR	11	8	0	VEHICLE	1553	n/a	1	n/a	0	0	0	1	0.412841796875	0.57763671875	upper	../fonts/zerothre.ttf
2470.23	n/a	START	1235115	n/a	LTP243	ltpFR	11	n/a	n/a	n/a	n/a	n/a	n/a	n/a	n/a	n/a	n/a	n/a	n/a	n/a	n/a	n/a
2471.196	n/a	PROB	1235598	n/a	LTP243	ltpFR	11	n/a	n/a	n/a	n/a	n/a	n/a	14	7	4	3	n/a	n/a	n/a	n/a	n/a
2472.61	n/a	PROB	1236305	n/a	LTP243	ltpFR	11	n/a	n/a	n/a	n/a	n/a	n/a	23	9	5	8	n/a	n/a	n/a	n/a	n/a
2475.638	n/a	PROB	1237819	n/a	LTP243	ltpFR	11	n/a	n/a	n/a	n/a	n/a	n/a	11	4	4	3	n/a	n/a	n/a	n/a	n/a
2478.268	n/a	PROB	1239134	n/a	LTP243	ltpFR	11	n/a	n/a	n/a	n/a	n/a	n/a	12	8	2	2	n/a	n/a	n/a	n/a	n/a
2479.766	n/a	PROB	1239883	n/a	LTP243	ltpFR	11	n/a	n/a	n/a	n/a	n/a	n/a	16	6	9	7	n/a	n/a	n/a	n/a	n/a
2482.962	n/a	PROB	1241481	n/a	LTP243	ltpFR	11	n/a	n/a	n/a	n/a	n/a	n/a	12	5	5	2	n/a	n/a	n/a	n/a	n/a
2486.23	n/a	STOP	1243115	n/a	LTP243	ltpFR	11	n/a	n/a	n/a	n/a	n/a	n/a	n/a	n/a	n/a	n/a	n/a	n/a	n/a	n/a	n/a
2487.438	n/a	WORD	1243719	wordpools/wasnorm_wordpool_less_exclusions.txt	LTP243	ltpFR	11	8	1	RUST	1219	n/a	0	n/a	0	0	0	0	0.5869140625	0.422607421875	lower	../fonts/amplitud.ttf
2490.45	n/a	START	1245225	n/a	LTP243	ltpFR	11	n/a	n/a	n/a	n/a	n/a	n/a	n/a	n/a	n/a	n/a	n/a	n/a	n/a	n/a	n/a
2491.532	n/a	PROB	1245766	n/a	LTP243	ltpFR	11	n/a	n/a	n/a	n/a	n/a	n/a	23	9	8	6	n/a	n/a	n/a	n/a	n/a
2494.994	n/a	PROB	1247497	n/a	LTP243	ltpFR	11	n/a	n/a	n/a	n/a	n/a	n/a	16	9	3	4	n/a	n/a	n/a	n/a	n/a
2496.474	n/a	PROB	1248237	n/a	LTP243	ltpFR	11	n/a	n/a	n/a	n/a	n/a	n/a	23	9	7	7	n/a	n/a	n/a	n/a	n/a
2498.804	n/a	PROB	1249402	n/a	LTP243	ltpFR	11	n/a	n/a	n/a	n/a	n/a	n/a	23	9	9	5	n/a	n/a	n/a	n/a	n/a
2501.2	n/a	PROB	1250600	n/a	LTP243	ltpFR	11	n/a	n/a	n/a	n/a	n/a	n/a	12	2	3	7	n/a	n/a	n/a	n/a	n/a
2502.632	n/a	PROB	1251316	n/a	LTP243	ltpFR	11	n/a	n/a	n/a	n/a	n/a	n/a	15	6	3	2	n/a	n/a	n/a	n/a	n/a
2503.948	n/a	PROB	1251974	n/a	LTP243	ltpFR	11	n/a	n/a	n/a	n/a	n/a	n/a	16	9	3	3	n/a	n/a	n/a	n/a	n/a
2505.328	n/a	STOP	1252664	n/a	LTP243	ltpFR	11	n/a	n/a	n/a	n/a	n/a	n/a	n/a	n/a	n/a	n/a	n/a	n/a	n/a	n/a	n/a
2507.342	n/a	WORD	1253671	wordpools/wasnorm_wordpool_less_exclusions.txt	LTP243	ltpFR	11	8	1	SLEEVE	1324	n/a	0	n/a	0	0	0	0	0.5869140625	0.422607421875	lower	../fonts/amplitud.ttf
2510.354	n/a	START	1255177	n/a	LTP243	ltpFR	11	n/a	n/a	n/a	n/a	n/a	n/a	n/a	n/a	n/a	n/a	n/a	n/a	n/a	n/a	n/a
2511.552	n/a	PROB	1255776	n/a	LTP243	ltpFR	11	n/a	n/a	n/a	n/a	n/a	n/a	15	6	1	8	n/a	n/a	n/a	n/a	n/a
2513.084	n/a	PROB	1256542	n/a	LTP243	ltpFR	11	n/a	n/a	n/a	n/a	n/a	n/a	14	6	6	2	n/a	n/a	n/a	n/a	n/a
2515.064	n/a	PROB	1257532	n/a	LTP243	ltpFR	11	n/a	n/a	n/a	n/a	n/a	n/a	8	3	2	3	n/a	n/a	n/a	n/a	n/a
2517.228	n/a	PROB	1258614	n/a	LTP243	ltpFR	11	n/a	n/a	n/a	n/a	n/a	n/a	10	2	7	1	n/a	n/a	n/a	n/a	n/a
2518.608	n/a	PROB	1259304	n/a	LTP243	ltpFR	11	n/a	n/a	n/a	n/a	n/a	n/a	24	8	7	9	n/a	n/a	n/a	n/a	n/a
2520.24	n/a	PROB	1260120	n/a	LTP243	ltpFR	11	n/a	n/a	n/a	n/a	n/a	n/a	21	4	8	7	n/a	n/a	n/a	n/a	n/a
2522.354	n/a	PROB	1261177	n/a	LTP243	ltpFR	11	n/a	n/a	n/a	n/a	n/a	n/a	20	5	9	6	n/a	n/a	n/a	n/a	n/a
2524.766	n/a	PROB	1262383	n/a	LTP243	ltpFR	11	n/a	n/a	n/a	n/a	n/a	n/a	5	1	2	2	n/a	n/a	n/a	n/a	n/a
2525.88	n/a	STOP	1262940	n/a	LTP243	ltpFR	11	n/a	n/a	n/a	n/a	n/a	n/a	n/a	n/a	n/a	n/a	n/a	n/a	n/a	n/a	n/a
2527.23	n/a	WORD	1263615	wordpools/wasnorm_wordpool_less_exclusions.txt	LTP243	ltpFR	11	8	1	SHELF	1280	n/a	0	n/a	0	0	0	0	0.5869140625	0.422607421875	lower	../fonts/amplitud.ttf
2530.242	n/a	START	1265121	n/a	LTP243	ltpFR	11	n/a	n/a	n/a	n/a	n/a	n/a	n/a	n/a	n/a	n/a	n/a	n/a	n/a	n/a	n/a
2531.09	n/a	PROB	1265545	n/a	LTP243	ltpFR	11	n/a	n/a	n/a	n/a	n/a	n/a	16	6	4	6	n/a	n/a	n/a	n/a	n/a
2532.288	n/a	PROB	1266144	n/a	LTP243	ltpFR	11	n/a	n/a	n/a	n/a	n/a	n/a	27	9	9	9	n/a	n/a	n/a	n/a	n/a
2534.368	n/a	PROB	1267184	n/a	LTP243	ltpFR	11	n/a	n/a	n/a	n/a	n/a	n/a	15	4	7	4	n/a	n/a	n/a	n/a	n/a
2536.232	n/a	PROB	1268116	n/a	LTP243	ltpFR	11	n/a	n/a	n/a	n/a	n/a	n/a	9	4	2	3	n/a	n/a	n/a	n/a	n/a
2538.396	n/a	PROB	1269198	n/a	LTP243	ltpFR	11	n/a	n/a	n/a	n/a	n/a	n/a	14	1	9	3	n/a	n/a	n/a	n/a	n/a
2539.91	n/a	PROB	1269955	n/a	LTP243	ltpFR	11	n/a	n/a	n/a	n/a	n/a	n/a	15	6	8	1	n/a	n/a	n/a	n/a	n/a
2542.14	n/a	PROB	1271070	n/a	LTP243	ltpFR	11	n/a	n/a	n/a	n/a	n/a	n/a	17	5	5	7	n/a	n/a	n/a	n/a	n/a
2544.138	n/a	PROB	1272069	n/a	LTP243	ltpFR	11	n/a	n/a	n/a	n/a	n/a	n/a	18	4	5	8	n/a	n/a	n/a	n/a	n/a
2546.2	n/a	STOP	1273100	n/a	LTP243	ltpFR	11	n/a	n/a	n/a	n/a	n/a	n/a	n/a	n/a	n/a	n/a	n/a	n/a	n/a	n/a	n/a
2547.482	n/a	WORD	1273741	wordpools/wasnorm_wordpool_less_exclusions.txt	LTP243	ltpFR	11	8	1	BRAN	167	n/a	0	n/a	0	0	0	0	0.5869140625	0.422607421875	lower	../fonts/amplitud.ttf
2550.494	n/a	START	1275247	n/a	LTP243	ltpFR	11	n/a	n/a	n/a	n/a	n/a	n/a	n/a	n/a	n/a	n/a	n/a	n/a	n/a	n/a	n/a
2551.444	n/a	PROB	1275722	n/a	LTP243	ltpFR	11	n/a	n/a	n/a	n/a	n/a	n/a	15	6	8	1	n/a	n/a	n/a	n/a	n/a
2552.974	n/a	PROB	1276487	n/a	LTP243	ltpFR	11	n/a	n/a	n/a	n/a	n/a	n/a	11	3	5	3	n/a	n/a	n/a	n/a	n/a
2555.636	n/a	PROB	1277818	n/a	LTP243	ltpFR	11	n/a	n/a	n/a	n/a	n/a	n/a	11	6	5	5	n/a	n/a	n/a	n/a	n/a
2557.066	n/a	PROB	1278533	n/a	LTP243	ltpFR	11	n/a	n/a	n/a	n/a	n/a	n/a	16	4	4	8	n/a	n/a	n/a	n/a	n/a
2559.164	n/a	PROB	1279582	n/a	LTP243	ltpFR	11	n/a	n/a	n/a	n/a	n/a	n/a	9	2	1	6	n/a	n/a	n/a	n/a	n/a
2560.912	n/a	PROB	1280456	n/a	LTP243	ltpFR	11	n/a	n/a	n/a	n/a	n/a	n/a	20	6	9	5	n/a	n/a	n/a	n/a	n/a
2562.976	n/a	PROB	1281488	n/a	LTP243	ltpFR	11	n/a	n/a	n/a	n/a	n/a	n/a	20	4	5	1	n/a	n/a	n/a	n/a	n/a
2564.39	n/a	PROB	1282195	n/a	LTP243	ltpFR	11	n/a	n/a	n/a	n/a	n/a	n/a	11	7	1	3	n/a	n/a	n/a	n/a	n/a
2566.288	n/a	STOP	1283144	n/a	LTP243	ltpFR	11	n/a	n/a	n/a	n/a	n/a	n/a	n/a	n/a	n/a	n/a	n/a	n/a	n/a	n/a	n/a
2567.636	n/a	WORD	1283818	wordpools/wasnorm_wordpool_less_exclusions.txt	LTP243	ltpFR	11	8	0	LOBSTER	837	n/a	0	n/a	0	0	0	1	0.412841796875	0.57763671875	upper	../fonts/zerothre.ttf
2570.648	n/a	START	1285324	n/a	LTP243	ltpFR	11	n/a	n/a	n/a	n/a	n/a	n/a	n/a	n/a	n/a	n/a	n/a	n/a	n/a	n/a	n/a
2571.612	n/a	PROB	1285806	n/a	LTP243	ltpFR	11	n/a	n/a	n/a	n/a	n/a	n/a	20	9	8	3	n/a	n/a	n/a	n/a	n/a
2573.078	n/a	PROB	1286539	n/a	LTP243	ltpFR	11	n/a	n/a	n/a	n/a	n/a	n/a	18	7	8	3	n/a	n/a	n/a	n/a	n/a
2574.958	n/a	PROB	1287479	n/a	LTP243	ltpFR	11	n/a	n/a	n/a	n/a	n/a	n/a	13	4	2	7	n/a	n/a	n/a	n/a	n/a
2577.272	n/a	PROB	1288636	n/a	LTP243	ltpFR	11	n/a	n/a	n/a	n/a	n/a	n/a	12	4	1	7	n/a	n/a	n/a	n/a	n/a
2579.502	n/a	PROB	1289751	n/a	LTP243	ltpFR	11	n/a	n/a	n/a	n/a	n/a	n/a	14	1	8	5	n/a	n/a	n/a	n/a	n/a
2581.3	n/a	PROB	1290650	n/a	LTP243	ltpFR	11	n/a	n/a	n/a	n/a	n/a	n/a	1	7	5	1	n/a	n/a	n/a	n/a	n/a
2582.93	n/a	PROB	1291465	n/a	LTP243	ltpFR	11	n/a	n/a	n/a	n/a	n/a	n/a	123	4	2	7	n/a	n/a	n/a	n/a	n/a
2586.098	n/a	STOP	1293049	n/a	LTP243	ltpFR	11	n/a	n/a	n/a	n/a	n/a	n/a	n/a	n/a	n/a	n/a	n/a	n/a	n/a	n/a	n/a
2587.556	n/a	WORD	1293778	wordpools/wasnorm_wordpool_less_exclusions.txt	LTP243	ltpFR	11	8	0	SQUID	1361	n/a	1	n/a	0	0	0	1	0.412841796875	0.57763671875	upper	../fonts/zerothre.ttf
2590.57	n/a	START	1295285	n/a	LTP243	ltpFR	11	n/a	n/a	n/a	n/a	n/a	n/a	n/a	n/a	n/a	n/a	n/a	n/a	n/a	n/a	n/a
2591.434	n/a	PROB	1295717	n/a	LTP243	ltpFR	11	n/a	n/a	n/a	n/a	n/a	n/a	13	3	2	8	n/a	n/a	n/a	n/a	n/a
2593.116	n/a	PROB	1296558	n/a	LTP243	ltpFR	11	n/a	n/a	n/a	n/a	n/a	n/a	14	8	2	2	n/a	n/a	n/a	n/a	n/a
2594.912	n/a	PROB	1297456	n/a	LTP243	ltpFR	11	n/a	n/a	n/a	n/a	n/a	n/a	15	6	1	8	n/a	n/a	n/a	n/a	n/a
2597.958	n/a	PROB	1298979	n/a	LTP243	ltpFR	11	n/a	n/a	n/a	n/a	n/a	n/a	14	1	9	4	n/a	n/a	n/a	n/a	n/a
2599.656	n/a	PROB	1299828	n/a	LTP243	ltpFR	11	n/a	n/a	n/a	n/a	n/a	n/a	23	8	9	6	n/a	n/a	n/a	n/a	n/a
2603.184	n/a	PROB	1301592	n/a	LTP243	ltpFR	11	n/a	n/a	n/a	n/a	n/a	n/a	11	2	6	3	n/a	n/a	n/a	n/a	n/a
2605.346	n/a	STOP	1302673	n/a	LTP243	ltpFR	11	n/a	n/a	n/a	n/a	n/a	n/a	n/a	n/a	n/a	n/a	n/a	n/a	n/a	n/a	n/a
2607.694	n/a	WORD	1303847	wordpools/wasnorm_wordpool_less_exclusions.txt	LTP243	ltpFR	11	8	0	PEOPLE	1046	n/a	1	n/a	0	0	0	1	0.412841796875	0.57763671875	upper	../fonts/zerothre.ttf
2610.706	n/a	START	1305353	n/a	LTP243	ltpFR	11	n/a	n/a	n/a	n/a	n/a	n/a	n/a	n/a	n/a	n/a	n/a	n/a	n/a	n/a	n/a
2611.638	n/a	PROB	1305819	n/a	LTP243	ltpFR	11	n/a	n/a	n/a	n/a	n/a	n/a	16	7	3	6	n/a	n/a	n/a	n/a	n/a
2612.936	n/a	PROB	1306468	n/a	LTP243	ltpFR	11	n/a	n/a	n/a	n/a	n/a	n/a	15	8	4	3	n/a	n/a	n/a	n/a	n/a
2615.216	n/a	PROB	1307608	n/a	LTP243	ltpFR	11	n/a	n/a	n/a	n/a	n/a	n/a	24	8	7	9	n/a	n/a	n/a	n/a	n/a
2616.896	n/a	PROB	1308448	n/a	LTP243	ltpFR	11	n/a	n/a	n/a	n/a	n/a	n/a	14	2	4	8	n/a	n/a	n/a	n/a	n/a
2619.326	n/a	PROB	1309663	n/a	LTP243	ltpFR	11	n/a	n/a	n/a	n/a	n/a	n/a	13	5	4	4	n/a	n/a	n/a	n/a	n/a
2622.022	n/a	PROB	1311011	n/a	LTP243	ltpFR	11	n/a	n/a	n/a	n/a	n/a	n/a	21	6	7	8	n/a	n/a	n/a	n/a	n/a
2623.702	n/a	PROB	1311851	n/a	LTP243	ltpFR	11	n/a	n/a	n/a	n/a	n/a	n/a	14	4	7	3	n/a	n/a	n/a	n/a	n/a
2625.226	n/a	STOP	1312613	n/a	LTP243	ltpFR	11	n/a	n/a	n/a	n/a	n/a	n/a	n/a	n/a	n/a	n/a	n/a	n/a	n/a	n/a	n/a
2628.496	n/a	REC_START	1314248	n/a	LTP243	ltpFR	11	8	n/a	n/a	n/a	n/a	n/a	n/a	0	0	0	n/a	n/a	n/a	n/a	n/a
2629.618	n/a	REC_WORD	1314809	wordpools/wasnorm_wordpool_less_exclusions.txt	LTP243	ltpFR	11	8	1	BRAN	167	n/a	0	n/a	0	0	0	n/a	n/a	n/a	n/a	n/a
2635.754	n/a	REC_WORD	1317877	wordpools/wasnorm_wordpool_less_exclusions.txt	LTP243	ltpFR	11	8	0	PEOPLE	1046	n/a	1	n/a	0	0	0	n/a	n/a	n/a	n/a	n/a
2638.414	n/a	REC_WORD	1319207	wordpools/wasnorm_wordpool_less_exclusions.txt	LTP243	ltpFR	11	8	n/a	MALE	-1	n/a	n/a	n/a	0	0	0	n/a	n/a	n/a	n/a	n/a
2639.926	n/a	REC_WORD	1319963	wordpools/wasnorm_wordpool_less_exclusions.txt	LTP243	ltpFR	11	8	1	FEMALE	559	n/a	1	n/a	0	0	0	n/a	n/a	n/a	n/a	n/a
2641.178	n/a	REC_WORD	1320589	wordpools/wasnorm_wordpool_less_exclusions.txt	LTP243	ltpFR	11	8	1	MAN	862	n/a	1	n/a	0	0	0	n/a	n/a	n/a	n/a	n/a
2641.568	n/a	REC_WORD	1320784	wordpools/wasnorm_wordpool_less_exclusions.txt	LTP243	ltpFR	11	8	1	WOMAN	1620	n/a	1	n/a	0	0	0	n/a	n/a	n/a	n/a	n/a
2642.814	n/a	REC_WORD	1321407	wordpools/wasnorm_wordpool_less_exclusions.txt	LTP243	ltpFR	11	8	1	PEDESTRIAN	1038	n/a	1	n/a	0	0	0	n/a	n/a	n/a	n/a	n/a
2667.134	n/a	REC_WORD	1333567	wordpools/wasnorm_wordpool_less_exclusions.txt	LTP243	ltpFR	11	8	1	ROCK	1201	n/a	0	n/a	0	0	0	n/a	n/a	n/a	n/a	n/a
2693.55	n/a	REC_WORD	1346775	wordpools/wasnorm_wordpool_less_exclusions.txt	LTP243	ltpFR	11	8	n/a	BOTTLE	153	n/a	n/a	n/a	0	0	0	n/a	n/a	n/a	n/a	n/a
2721.992	n/a	WORD	1360996	wordpools/wasnorm_wordpool_less_exclusions.txt	LTP243	ltpFR	11	9	0	STUMP	1396	n/a	1	n/a	0	0	0	1	0.412841796875	0.57763671875	upper	../fonts/zerothre.ttf
2725.886	n/a	WORD	1362943	wordpools/wasnorm_wordpool_less_exclusions.txt	LTP243	ltpFR	11	9	0	TROUSERS	1510	n/a	1	n/a	0	0	0	1	0.412841796875	0.57763671875	upper	../fonts/zerothre.ttf
2729.862	n/a	WORD	1364931	wordpools/wasnorm_wordpool_less_exclusions.txt	LTP243	ltpFR	11	9	0	SHIRT	1287	n/a	1	n/a	0	0	0	1	0.412841796875	0.57763671875	upper	../fonts/zerothre.ttf
2733.758	n/a	WORD	1366879	wordpools/wasnorm_wordpool_less_exclusions.txt	LTP243	ltpFR	11	9	0	TUB	1514	n/a	1	n/a	0	0	0	1	0.412841796875	0.57763671875	upper	../fonts/zerothre.ttf
2737.852	n/a	WORD	1368926	wordpools/wasnorm_wordpool_less_exclusions.txt	LTP243	ltpFR	11	9	0	BEAN	105	n/a	0	n/a	0	0	0	1	0.412841796875	0.57763671875	upper	../fonts/zerothre.ttf
2742.044	n/a	WORD	1371022	wordpools/wasnorm_wordpool_less_exclusions.txt	LTP243	ltpFR	11	9	0	JOKER	759	n/a	1	n/a	0	0	0	1	0.412841796875	0.57763671875	upper	../fonts/zerothre.ttf
2746.006	n/a	WORD	1373003	wordpools/wasnorm_wordpool_less_exclusions.txt	LTP243	ltpFR	11	9	0	RAFT	1159	n/a	1	n/a	0	0	0	1	0.412841796875	0.57763671875	upper	../fonts/zerothre.ttf
2749.9	n/a	WORD	1374950	wordpools/wasnorm_wordpool_less_exclusions.txt	LTP243	ltpFR	11	9	0	FOREST	593	n/a	1	n/a	0	0	0	1	0.412841796875	0.57763671875	upper	../fonts/zerothre.ttf
2754.01	n/a	WORD	1377005	wordpools/wasnorm_wordpool_less_exclusions.txt	LTP243	ltpFR	11	9	0	BRANCH	168	n/a	0	n/a	0	0	0	1	0.412841796875	0.57763671875	upper	../fonts/zerothre.ttf
2758.138	n/a	WORD	1379069	wordpools/wasnorm_wordpool_less_exclusions.txt	LTP243	ltpFR	11	9	0	WAX	1597	n/a	0	n/a	0	0	0	1	0.412841796875	0.57763671875	upper	../fonts/zerothre.ttf
2762.114	n/a	WORD	1381057	wordpools/wasnorm_wordpool_less_exclusions.txt	LTP243	ltpFR	11	9	0	PASSENGER	1020	n/a	1	n/a	0	0	0	1	0.412841796875	0.57763671875	upper	../fonts/zerothre.ttf
2766.058	n/a	WORD	1383029	wordpools/wasnorm_wordpool_less_exclusions.txt	LTP243	ltpFR	11	9	0	PLANT	1083	n/a	1	n/a	0	0	0	1	0.412841796875	0.57763671875	upper	../fonts/zerothre.ttf
2770.236	n/a	WORD	1385118	wordpools/wasnorm_wordpool_less_exclusions.txt	LTP243	ltpFR	11	9	0	TWIG	1527	n/a	0	n/a	0	0	0	1	0.412841796875	0.57763671875	upper	../fonts/zerothre.ttf
2774.38	n/a	WORD	1387190	wordpools/wasnorm_wordpool_less_exclusions.txt	LTP243	ltpFR	11	9	0	PORT	1110	n/a	1	n/a	0	0	0	1	0.412841796875	0.57763671875	upper	../fonts/zerothre.ttf
2778.458	n/a	WORD	1389229	wordpools/wasnorm_wordpool_less_exclusions.txt	LTP243	ltpFR	11	9	0	TANGERINE	1431	n/a	0	n/a	0	0	0	1	0.412841796875	0.57763671875	upper	../fonts/zerothre.ttf
2782.418	n/a	WORD	1391209	wordpools/wasnorm_wordpool_less_exclusions.txt	LTP243	ltpFR	11	9	0	STOMACH	1384	n/a	1	n/a	0	0	0	1	0.412841796875	0.57763671875	upper	../fonts/zerothre.ttf
2788.36	n/a	REC_START	1394180	n/a	LTP243	ltpFR	11	9	n/a	n/a	n/a	n/a	n/a	n/a	0	0	0	n/a	n/a	n/a	n/a	n/a
2789.372	n/a	REC_WORD	1394686	wordpools/wasnorm_wordpool_less_exclusions.txt	LTP243	ltpFR	11	9	0	STOMACH	1384	n/a	1	n/a	0	0	0	n/a	n/a	n/a	n/a	n/a
2790.524	n/a	REC_WORD	1395262	wordpools/wasnorm_wordpool_less_exclusions.txt	LTP243	ltpFR	11	9	0	TUB	1514	n/a	1	n/a	0	0	0	n/a	n/a	n/a	n/a	n/a
2791.342	n/a	REC_WORD	1395671	wordpools/wasnorm_wordpool_less_exclusions.txt	LTP243	ltpFR	11	9	0	SHIRT	1287	n/a	1	n/a	0	0	0	n/a	n/a	n/a	n/a	n/a
2792.356	n/a	REC_WORD	1396178	wordpools/wasnorm_wordpool_less_exclusions.txt	LTP243	ltpFR	11	9	0	TROUSERS	1510	n/a	1	n/a	0	0	0	n/a	n/a	n/a	n/a	n/a
2808.53	n/a	REC_WORD_VV	1404265	wordpools/wasnorm_wordpool_less_exclusions.txt	LTP243	ltpFR	11	9	n/a	<>	-1	n/a	n/a	n/a	0	0	0	n/a	n/a	n/a	n/a	n/a
2820.592	n/a	REC_WORD	1410296	wordpools/wasnorm_wordpool_less_exclusions.txt	LTP243	ltpFR	11	9	0	PEOPLE	1046	n/a	1	n/a	0	0	0	n/a	n/a	n/a	n/a	n/a
2830.758	n/a	REC_WORD	1415379	wordpools/wasnorm_wordpool_less_exclusions.txt	LTP243	ltpFR	11	9	0	BRANCH	168	n/a	0	n/a	0	0	0	n/a	n/a	n/a	n/a	n/a
2831.562	n/a	REC_WORD	1415781	wordpools/wasnorm_wordpool_less_exclusions.txt	LTP243	ltpFR	11	9	0	TWIG	1527	n/a	0	n/a	0	0	0	n/a	n/a	n/a	n/a	n/a
2832.42	n/a	REC_WORD	1416210	wordpools/wasnorm_wordpool_less_exclusions.txt	LTP243	ltpFR	11	9	0	FOREST	593	n/a	1	n/a	0	0	0	n/a	n/a	n/a	n/a	n/a
2833.846	n/a	REC_WORD	1416923	wordpools/wasnorm_wordpool_less_exclusions.txt	LTP243	ltpFR	11	9	0	PLANT	1083	n/a	1	n/a	0	0	0	n/a	n/a	n/a	n/a	n/a
2883.984	n/a	WORD	1441992	wordpools/wasnorm_wordpool_less_exclusions.txt	LTP243	ltpFR	11	10	0	CREVICE	405	n/a	1	n/a	0	0	0	1	0.412841796875	0.57763671875	upper	../fonts/zerothre.ttf
2888.112	n/a	WORD	1444056	wordpools/wasnorm_wordpool_less_exclusions.txt	LTP243	ltpFR	11	10	0	DOUGHNUT	490	n/a	0	n/a	0	0	0	1	0.412841796875	0.57763671875	upper	../fonts/zerothre.ttf
2892.022	n/a	WORD	1446011	wordpools/wasnorm_wordpool_less_exclusions.txt	LTP243	ltpFR	11	10	0	STAKE	1368	n/a	0	n/a	0	0	0	1	0.412841796875	0.57763671875	upper	../fonts/zerothre.ttf
2896.216	n/a	WORD	1448108	wordpools/wasnorm_wordpool_less_exclusions.txt	LTP243	ltpFR	11	10	0	RESTAURANT	1187	n/a	1	n/a	0	0	0	1	0.412841796875	0.57763671875	upper	../fonts/zerothre.ttf
2900.36	n/a	WORD	1450180	wordpools/wasnorm_wordpool_less_exclusions.txt	LTP243	ltpFR	11	10	0	GAVEL	627	n/a	0	n/a	0	0	0	1	0.412841796875	0.57763671875	upper	../fonts/zerothre.ttf
2904.204	n/a	WORD	1452102	wordpools/wasnorm_wordpool_less_exclusions.txt	LTP243	ltpFR	11	10	0	SKI	1316	n/a	1	n/a	0	0	0	1	0.412841796875	0.57763671875	upper	../fonts/zerothre.ttf
2908.316	n/a	WORD	1454158	wordpools/wasnorm_wordpool_less_exclusions.txt	LTP243	ltpFR	11	10	0	APARTMENT	30	n/a	1	n/a	0	0	0	1	0.412841796875	0.57763671875	upper	../fonts/zerothre.ttf
2912.176	n/a	WORD	1456088	wordpools/wasnorm_wordpool_less_exclusions.txt	LTP243	ltpFR	11	10	0	HOUSE	725	n/a	1	n/a	0	0	0	1	0.412841796875	0.57763671875	upper	../fonts/zerothre.ttf
2916.404	n/a	WORD	1458202	wordpools/wasnorm_wordpool_less_exclusions.txt	LTP243	ltpFR	11	10	0	FEAST	556	n/a	1	n/a	0	0	0	1	0.412841796875	0.57763671875	upper	../fonts/zerothre.ttf
2920.448	n/a	WORD	1460224	wordpools/wasnorm_wordpool_less_exclusions.txt	LTP243	ltpFR	11	10	0	PLASTER	1085	n/a	0	n/a	0	0	0	1	0.412841796875	0.57763671875	upper	../fonts/zerothre.ttf
2924.374	n/a	WORD	1462187	wordpools/wasnorm_wordpool_less_exclusions.txt	LTP243	ltpFR	11	10	0	CROOK	412	n/a	1	n/a	0	0	0	1	0.412841796875	0.57763671875	upper	../fonts/zerothre.ttf
2928.418	n/a	WORD	1464209	wordpools/wasnorm_wordpool_less_exclusions.txt	LTP243	ltpFR	11	10	0	CINNAMON	310	n/a	0	n/a	0	0	0	1	0.412841796875	0.57763671875	upper	../fonts/zerothre.ttf
2932.446	n/a	WORD	1466223	wordpools/wasnorm_wordpool_less_exclusions.txt	LTP243	ltpFR	11	10	0	DOUGH	489	n/a	1	n/a	0	0	0	1	0.412841796875	0.57763671875	upper	../fonts/zerothre.ttf
2936.374	n/a	WORD	1468187	wordpools/wasnorm_wordpool_less_exclusions.txt	LTP243	ltpFR	11	10	0	VALLEY	1545	n/a	1	n/a	0	0	0	1	0.412841796875	0.57763671875	upper	../fonts/zerothre.ttf
2940.384	n/a	WORD	1470192	wordpools/wasnorm_wordpool_less_exclusions.txt	LTP243	ltpFR	11	10	0	TRENCH	1503	n/a	1	n/a	0	0	0	1	0.412841796875	0.57763671875	upper	../fonts/zerothre.ttf
2944.246	n/a	WORD	1472123	wordpools/wasnorm_wordpool_less_exclusions.txt	LTP243	ltpFR	11	10	0	SICKLE	1302	n/a	0	n/a	0	0	0	1	0.412841796875	0.57763671875	upper	../fonts/zerothre.ttf
2947.258	n/a	START	1473629	n/a	LTP243	ltpFR	11	n/a	n/a	n/a	n/a	n/a	n/a	n/a	n/a	n/a	n/a	n/a	n/a	n/a	n/a	n/a
2948.256	n/a	PROB	1474128	n/a	LTP243	ltpFR	11	n/a	n/a	n/a	n/a	n/a	n/a	13	4	3	6	n/a	n/a	n/a	n/a	n/a
2950.404	n/a	PROB	1475202	n/a	LTP243	ltpFR	11	n/a	n/a	n/a	n/a	n/a	n/a	13	6	6	1	n/a	n/a	n/a	n/a	n/a
2952.268	n/a	PROB	1476134	n/a	LTP243	ltpFR	11	n/a	n/a	n/a	n/a	n/a	n/a	22	9	6	7	n/a	n/a	n/a	n/a	n/a
2955.812	n/a	PROB	1477906	n/a	LTP243	ltpFR	11	n/a	n/a	n/a	n/a	n/a	n/a	17	5	8	4	n/a	n/a	n/a	n/a	n/a
2958.524	n/a	PROB	1479262	n/a	LTP243	ltpFR	11	n/a	n/a	n/a	n/a	n/a	n/a	16	9	5	2	n/a	n/a	n/a	n/a	n/a
2960.022	n/a	PROB	1480011	n/a	LTP243	ltpFR	11	n/a	n/a	n/a	n/a	n/a	n/a	20	4	7	9	n/a	n/a	n/a	n/a	n/a
2962.67	n/a	STOP	1481335	n/a	LTP243	ltpFR	11	n/a	n/a	n/a	n/a	n/a	n/a	n/a	n/a	n/a	n/a	n/a	n/a	n/a	n/a	n/a
2965.032	n/a	REC_START	1482516	n/a	LTP243	ltpFR	11	10	n/a	n/a	n/a	n/a	n/a	n/a	0	0	0	n/a	n/a	n/a	n/a	n/a
2965.84	n/a	REC_WORD	1482920	wordpools/wasnorm_wordpool_less_exclusions.txt	LTP243	ltpFR	11	10	0	SICKLE	1302	n/a	0	n/a	0	0	0	n/a	n/a	n/a	n/a	n/a
2967.994	n/a	REC_WORD	1483997	wordpools/wasnorm_wordpool_less_exclusions.txt	LTP243	ltpFR	11	10	0	DOUGHNUT	490	n/a	0	n/a	0	0	0	n/a	n/a	n/a	n/a	n/a
2968.932	n/a	REC_WORD	1484466	wordpools/wasnorm_wordpool_less_exclusions.txt	LTP243	ltpFR	11	10	0	DOUGH	489	n/a	1	n/a	0	0	0	n/a	n/a	n/a	n/a	n/a
2970.26	n/a	REC_WORD	1485130	wordpools/wasnorm_wordpool_less_exclusions.txt	LTP243	ltpFR	11	10	0	STAKE	1368	n/a	0	n/a	0	0	0	n/a	n/a	n/a	n/a	n/a
2971.786	n/a	REC_WORD	1485893	wordpools/wasnorm_wordpool_less_exclusions.txt	LTP243	ltpFR	11	10	0	CREVICE	405	n/a	1	n/a	0	0	0	n/a	n/a	n/a	n/a	n/a
2972.924	n/a	REC_WORD	1486462	wordpools/wasnorm_wordpool_less_exclusions.txt	LTP243	ltpFR	11	10	0	VALLEY	1545	n/a	1	n/a	0	0	0	n/a	n/a	n/a	n/a	n/a
3022.272	n/a	REC_WORD	1511136	wordpools/wasnorm_wordpool_less_exclusions.txt	LTP243	ltpFR	11	10	0	RESTAURANT	1187	n/a	1	n/a	0	0	0	n/a	n/a	n/a	n/a	n/a
3023.888	n/a	REC_WORD	1511944	wordpools/wasnorm_wordpool_less_exclusions.txt	LTP243	ltpFR	11	10	0	APARTMENT	30	n/a	1	n/a	0	0	0	n/a	n/a	n/a	n/a	n/a
3024.882	n/a	REC_WORD	1512441	wordpools/wasnorm_wordpool_less_exclusions.txt	LTP243	ltpFR	11	10	0	HOUSE	725	n/a	1	n/a	0	0	0	n/a	n/a	n/a	n/a	n/a
3027.824	n/a	REC_WORD	1513912	wordpools/wasnorm_wordpool_less_exclusions.txt	LTP243	ltpFR	11	10	1	SHELF	1280	n/a	0	n/a	0	0	0	n/a	n/a	n/a	n/a	n/a
3029.42	n/a	REC_WORD	1514710	wordpools/wasnorm_wordpool_less_exclusions.txt	LTP243	ltpFR	11	10	1	SLEEVE	1324	n/a	0	n/a	0	0	0	n/a	n/a	n/a	n/a	n/a
3040.636	n/a	REST_REWET	1520318	n/a	LTP243	ltpFR	11	10	n/a	n/a	n/a	n/a	n/a	n/a	0	0	0	n/a	n/a	n/a	n/a	n/a
3445.97	n/a	WORD	1722985	wordpools/wasnorm_wordpool_less_exclusions.txt	LTP243	ltpFR	11	11	0	LEAF	808	n/a	0	n/a	0	0	0	1	0.412841796875	0.57763671875	upper	../fonts/zerothre.ttf
3450.014	n/a	WORD	1725007	wordpools/wasnorm_wordpool_less_exclusions.txt	LTP243	ltpFR	11	11	0	DRAWING	494	n/a	0	n/a	0	0	0	1	0.412841796875	0.57763671875	upper	../fonts/zerothre.ttf
3454.124	n/a	WORD	1727062	wordpools/wasnorm_wordpool_less_exclusions.txt	LTP243	ltpFR	11	11	0	GLASS	639	n/a	0	n/a	0	0	0	1	0.412841796875	0.57763671875	upper	../fonts/zerothre.ttf
3457.952	n/a	WORD	1728976	wordpools/wasnorm_wordpool_less_exclusions.txt	LTP243	ltpFR	11	11	1	BUTTERFLY	206	n/a	1	n/a	0	0	0	0	0.5869140625	0.422607421875	lower	../fonts/amplitud.ttf
