mstime	trial_type	stim_file	subject	experiment	session	trial	item_name	item_num	list	answer	test_x	test_y	test_z
0	SESS_START	n/a	LTP355	ltpFR2	4	n/a	n/a	n/a	n/a	n/a	0	0	0
18444	START	n/a	LTP355	ltpFR2	4	n/a	n/a	n/a	-1	n/a	n/a	n/a	n/a
18474	PROB	n/a	LTP355	ltpFR2	4	n/a	n/a	n/a	-1	17	7	8	2
20206	PROB	n/a	LTP355	ltpFR2	4	n/a	n/a	n/a	-1	13	6	5	2
22022	PROB	n/a	LTP355	ltpFR2	4	n/a	n/a	n/a	-1	15	6	8	1
23722	PROB	n/a	LTP355	ltpFR2	4	n/a	n/a	n/a	-1	19	4	7	8
25354	PROB	n/a	LTP355	ltpFR2	4	n/a	n/a	n/a	-1	14	7	3	4
28352	PROB	n/a	LTP355	ltpFR2	4	n/a	n/a	n/a	-1	11	7	1	3
30282	STOP	n/a	LTP355	ltpFR2	4	n/a	n/a	n/a	-1	n/a	n/a	n/a	n/a
62586	DISTRACTOR	n/a	LTP355	ltpFR2	4	1	n/a	n/a	n/a	n/a	0	0	0
62586	START	n/a	LTP355	ltpFR2	4	n/a	n/a	n/a	1	n/a	n/a	n/a	n/a
62603	PROB	n/a	LTP355	ltpFR2	4	n/a	n/a	n/a	1	15	9	4	2
64434	PROB	n/a	LTP355	ltpFR2	4	n/a	n/a	n/a	1	13	4	3	6
66067	PROB	n/a	LTP355	ltpFR2	4	n/a	n/a	n/a	1	16	4	5	7
67634	PROB	n/a	LTP355	ltpFR2	4	n/a	n/a	n/a	1	9	3	2	4
69015	PROB	n/a	LTP355	ltpFR2	4	n/a	n/a	n/a	1	12	2	8	2
70198	PROB	n/a	LTP355	ltpFR2	4	n/a	n/a	n/a	1	17	5	5	7
71431	PROB	n/a	LTP355	ltpFR2	4	n/a	n/a	n/a	1	15	9	4	2
74296	PROB	n/a	LTP355	ltpFR2	4	n/a	n/a	n/a	1	18	9	8	1
76679	PROB	n/a	LTP355	ltpFR2	4	n/a	n/a	n/a	1	17	7	2	8
79143	PROB	n/a	LTP355	ltpFR2	4	n/a	n/a	n/a	1	9	2	1	6
80660	PROB	n/a	LTP355	ltpFR2	4	n/a	n/a	n/a	1	21	9	7	5
83425	PROB	n/a	LTP355	ltpFR2	4	n/a	n/a	n/a	1	12	5	6	1
86586	STOP	n/a	LTP355	ltpFR2	4	n/a	n/a	n/a	1	n/a	n/a	n/a	n/a
87774	WORD	wordpools/wasnorm_wordpool_576.txt	LTP355	ltpFR2	4	1	SCARECROW	1245	n/a	n/a	0	0	0
90221	WORD	wordpools/wasnorm_wordpool_576.txt	LTP355	ltpFR2	4	1	PLAID	1080	n/a	n/a	0	0	0
92704	WORD	wordpools/wasnorm_wordpool_576.txt	LTP355	ltpFR2	4	1	IDOL	733	n/a	n/a	0	0	0
95452	WORD	wordpools/wasnorm_wordpool_576.txt	LTP355	ltpFR2	4	1	CROSS	413	n/a	n/a	0	0	0
97884	WORD	wordpools/wasnorm_wordpool_576.txt	LTP355	ltpFR2	4	1	JAPAN	749	n/a	n/a	0	0	0
100700	WORD	wordpools/wasnorm_wordpool_576.txt	LTP355	ltpFR2	4	1	WAITRESS	1581	n/a	n/a	0	0	0
103232	WORD	wordpools/wasnorm_wordpool_576.txt	LTP355	ltpFR2	4	1	CYCLONE	431	n/a	n/a	0	0	0
106047	WORD	wordpools/wasnorm_wordpool_576.txt	LTP355	ltpFR2	4	1	TWISTER	1530	n/a	n/a	0	0	0
108862	WORD	wordpools/wasnorm_wordpool_576.txt	LTP355	ltpFR2	4	1	ASIA	46	n/a	n/a	0	0	0
111461	WORD	wordpools/wasnorm_wordpool_576.txt	LTP355	ltpFR2	4	1	CASHIER	254	n/a	n/a	0	0	0
113976	WORD	wordpools/wasnorm_wordpool_576.txt	LTP355	ltpFR2	4	1	SCALPEL	1243	n/a	n/a	0	0	0
116759	WORD	wordpools/wasnorm_wordpool_576.txt	LTP355	ltpFR2	4	1	FLEET	578	n/a	n/a	0	0	0
119290	WORD	wordpools/wasnorm_wordpool_576.txt	LTP355	ltpFR2	4	1	PASSAGE	1019	n/a	n/a	0	0	0
121789	WORD	wordpools/wasnorm_wordpool_576.txt	LTP355	ltpFR2	4	1	BLENDER	136	n/a	n/a	0	0	0
124371	WORD	wordpools/wasnorm_wordpool_576.txt	LTP355	ltpFR2	4	1	CATCHER	258	n/a	n/a	0	0	0
126986	WORD	wordpools/wasnorm_wordpool_576.txt	LTP355	ltpFR2	4	1	FOX	598	n/a	n/a	0	0	0
129736	WORD	wordpools/wasnorm_wordpool_576.txt	LTP355	ltpFR2	4	1	RECEIPT	1173	n/a	n/a	0	0	0
132467	WORD	wordpools/wasnorm_wordpool_576.txt	LTP355	ltpFR2	4	1	EGYPT	519	n/a	n/a	0	0	0
135249	WORD	wordpools/wasnorm_wordpool_576.txt	LTP355	ltpFR2	4	1	TOASTER	1472	n/a	n/a	0	0	0
137948	WORD	wordpools/wasnorm_wordpool_576.txt	LTP355	ltpFR2	4	1	LAPEL	800	n/a	n/a	0	0	0
140764	WORD	wordpools/wasnorm_wordpool_576.txt	LTP355	ltpFR2	4	1	AIRPORT	13	n/a	n/a	0	0	0
143395	WORD	wordpools/wasnorm_wordpool_576.txt	LTP355	ltpFR2	4	1	TUTU	1524	n/a	n/a	0	0	0
145877	WORD	wordpools/wasnorm_wordpool_576.txt	LTP355	ltpFR2	4	1	SHORTCAKE	1292	n/a	n/a	0	0	0
148643	WORD	wordpools/wasnorm_wordpool_576.txt	LTP355	ltpFR2	4	1	STAPLE	1371	n/a	n/a	0	0	0
150258	START	n/a	LTP355	ltpFR2	4	n/a	n/a	n/a	2	n/a	n/a	n/a	n/a
151362	DISTRACTOR	n/a	LTP355	ltpFR2	4	1	n/a	n/a	n/a	n/a	0	0	0
151374	PROB	n/a	LTP355	ltpFR2	4	n/a	n/a	n/a	2	15	7	5	3
153357	PROB	n/a	LTP355	ltpFR2	4	n/a	n/a	n/a	2	19	5	8	6
154956	PROB	n/a	LTP355	ltpFR2	4	n/a	n/a	n/a	2	8	2	1	5
156455	PROB	n/a	LTP355	ltpFR2	4	n/a	n/a	n/a	2	16	7	3	6
157606	PROB	n/a	LTP355	ltpFR2	4	n/a	n/a	n/a	2	22	8	8	6
159705	PROB	n/a	LTP355	ltpFR2	4	n/a	n/a	n/a	2	12	9	2	1
161554	PROB	n/a	LTP355	ltpFR2	4	n/a	n/a	n/a	2	16	5	6	5
162770	PROB	n/a	LTP355	ltpFR2	4	n/a	n/a	n/a	2	22	9	6	7
165384	PROB	n/a	LTP355	ltpFR2	4	n/a	n/a	n/a	2	19	6	7	6
167684	PROB	n/a	LTP355	ltpFR2	4	n/a	n/a	n/a	2	17	8	6	3
169199	PROB	n/a	LTP355	ltpFR2	4	n/a	n/a	n/a	2	7	4	1	2
172097	PROB	n/a	LTP355	ltpFR2	4	n/a	n/a	n/a	2	11	7	1	3
173314	STOP	n/a	LTP355	ltpFR2	4	n/a	n/a	n/a	2	n/a	n/a	n/a	n/a
176196	REC_START	n/a	LTP355	ltpFR2	4	1	n/a	n/a	n/a	n/a	0	0	0
176506	REC_WORD	wordpools/wasnorm_wordpool_576.txt	LTP355	ltpFR2	4	1	STAPLE	1371	n/a	n/a	0	0	0
178224	REC_WORD	wordpools/wasnorm_wordpool_576.txt	LTP355	ltpFR2	4	1	FOX	598	n/a	n/a	0	0	0
178755	REC_WORD	wordpools/wasnorm_wordpool_576.txt	LTP355	ltpFR2	4	1	SCARECROW	1245	n/a	n/a	0	0	0
180057	REC_WORD	wordpools/wasnorm_wordpool_576.txt	LTP355	ltpFR2	4	1	PLAID	1080	n/a	n/a	0	0	0
181591	REC_WORD	wordpools/wasnorm_wordpool_576.txt	LTP355	ltpFR2	4	1	WAITRESS	1581	n/a	n/a	0	0	0
182576	REC_WORD	wordpools/wasnorm_wordpool_576.txt	LTP355	ltpFR2	4	1	CASHIER	254	n/a	n/a	0	0	0
183463	REC_WORD	wordpools/wasnorm_wordpool_576.txt	LTP355	ltpFR2	4	1	SCALPEL	1243	n/a	n/a	0	0	0
184541	REC_WORD	wordpools/wasnorm_wordpool_576.txt	LTP355	ltpFR2	4	1	FLEET	578	n/a	n/a	0	0	0
198015	REC_WORD	wordpools/wasnorm_wordpool_576.txt	LTP355	ltpFR2	4	1	ASIA	46	n/a	n/a	0	0	0
198618	REC_WORD	wordpools/wasnorm_wordpool_576.txt	LTP355	ltpFR2	4	1	JAPAN	749	n/a	n/a	0	0	0
199586	REC_WORD	wordpools/wasnorm_wordpool_576.txt	LTP355	ltpFR2	4	1	CROSS	413	n/a	n/a	0	0	0
221969	REC_WORD	wordpools/wasnorm_wordpool_576.txt	LTP355	ltpFR2	4	1	FOX	598	n/a	n/a	0	0	0
222839	REC_WORD	wordpools/wasnorm_wordpool_576.txt	LTP355	ltpFR2	4	1	TUTU	1524	n/a	n/a	0	0	0
223634	REC_WORD	wordpools/wasnorm_wordpool_576.txt	LTP355	ltpFR2	4	1	SHORTCAKE	1292	n/a	n/a	0	0	0
230093	REC_WORD	wordpools/wasnorm_wordpool_576.txt	LTP355	ltpFR2	4	1	PASSAGE	1019	n/a	n/a	0	0	0
234116	REC_WORD	wordpools/wasnorm_wordpool_576.txt	LTP355	ltpFR2	4	1	EGYPT	519	n/a	n/a	0	0	0
236096	REC_WORD	wordpools/wasnorm_wordpool_576.txt	LTP355	ltpFR2	4	1	AIRPORT	13	n/a	n/a	0	0	0
266651	WORD	wordpools/wasnorm_wordpool_576.txt	LTP355	ltpFR2	4	2	PORTRAIT	1111	n/a	n/a	0	0	0
269332	WORD	wordpools/wasnorm_wordpool_576.txt	LTP355	ltpFR2	4	2	REPORT	1184	n/a	n/a	0	0	0
271914	WORD	wordpools/wasnorm_wordpool_576.txt	LTP355	ltpFR2	4	2	LONDON	843	n/a	n/a	0	0	0
274581	WORD	wordpools/wasnorm_wordpool_576.txt	LTP355	ltpFR2	4	2	HORNET	718	n/a	n/a	0	0	0
277395	WORD	wordpools/wasnorm_wordpool_576.txt	LTP355	ltpFR2	4	2	MILDEW	893	n/a	n/a	0	0	0
279827	WORD	wordpools/wasnorm_wordpool_576.txt	LTP355	ltpFR2	4	2	LABEL	790	n/a	n/a	0	0	0
282610	WORD	wordpools/wasnorm_wordpool_576.txt	LTP355	ltpFR2	4	2	BINDER	127	n/a	n/a	0	0	0
285424	WORD	wordpools/wasnorm_wordpool_576.txt	LTP355	ltpFR2	4	2	PLASTER	1085	n/a	n/a	0	0	0
288090	WORD	wordpools/wasnorm_wordpool_576.txt	LTP355	ltpFR2	4	2	AWARD	63	n/a	n/a	0	0	0
290888	WORD	wordpools/wasnorm_wordpool_576.txt	LTP355	ltpFR2	4	2	HORSE	719	n/a	n/a	0	0	0
293605	WORD	wordpools/wasnorm_wordpool_576.txt	LTP355	ltpFR2	4	2	BANQUET	86	n/a	n/a	0	0	0
296252	WORD	wordpools/wasnorm_wordpool_576.txt	LTP355	ltpFR2	4	2	KNAPSACK	783	n/a	n/a	0	0	0
298785	WORD	wordpools/wasnorm_wordpool_576.txt	LTP355	ltpFR2	4	2	SALMON	1227	n/a	n/a	0	0	0
301300	WORD	wordpools/wasnorm_wordpool_576.txt	LTP355	ltpFR2	4	2	SIDEWALK	1303	n/a	n/a	0	0	0
304115	WORD	wordpools/wasnorm_wordpool_576.txt	LTP355	ltpFR2	4	2	LIVER	833	n/a	n/a	0	0	0
306847	WORD	wordpools/wasnorm_wordpool_576.txt	LTP355	ltpFR2	4	2	KIDNEY	776	n/a	n/a	0	0	0
309529	WORD	wordpools/wasnorm_wordpool_576.txt	LTP355	ltpFR2	4	2	WASP	1593	n/a	n/a	0	0	0
311978	WORD	wordpools/wasnorm_wordpool_576.txt	LTP355	ltpFR2	4	2	LETTUCE	814	n/a	n/a	0	0	0
314694	WORD	wordpools/wasnorm_wordpool_576.txt	LTP355	ltpFR2	4	2	GLASS	639	n/a	n/a	0	0	0
317309	WORD	wordpools/wasnorm_wordpool_576.txt	LTP355	ltpFR2	4	2	CURTAIN	427	n/a	n/a	0	0	0
319924	WORD	wordpools/wasnorm_wordpool_576.txt	LTP355	ltpFR2	4	2	PRINCE	1124	n/a	n/a	0	0	0
322640	WORD	wordpools/wasnorm_wordpool_576.txt	LTP355	ltpFR2	4	2	WASHER	1592	n/a	n/a	0	0	0
325338	WORD	wordpools/wasnorm_wordpool_576.txt	LTP355	ltpFR2	4	2	CHEMIST	292	n/a	n/a	0	0	0
327937	WORD	wordpools/wasnorm_wordpool_576.txt	LTP355	ltpFR2	4	2	PLATE	1086	n/a	n/a	0	0	0
329554	START	n/a	LTP355	ltpFR2	4	n/a	n/a	n/a	3	n/a	n/a	n/a	n/a
330647	DISTRACTOR	n/a	LTP355	ltpFR2	4	2	n/a	n/a	n/a	n/a	0	0	0
330653	PROB	n/a	LTP355	ltpFR2	4	n/a	n/a	n/a	3	14	9	3	2
332552	PROB	n/a	LTP355	ltpFR2	4	n/a	n/a	n/a	3	17	8	6	3
336532	PROB	n/a	LTP355	ltpFR2	4	n/a	n/a	n/a	3	16	9	6	1
338465	PROB	n/a	LTP355	ltpFR2	4	n/a	n/a	n/a	3	14	1	6	7
340665	PROB	n/a	LTP355	ltpFR2	4	n/a	n/a	n/a	3	9	2	5	2
342279	PROB	n/a	LTP355	ltpFR2	4	n/a	n/a	n/a	3	13	6	2	5
344112	PROB	n/a	LTP355	ltpFR2	4	n/a	n/a	n/a	3	15	6	4	5
345361	PROB	n/a	LTP355	ltpFR2	4	n/a	n/a	n/a	3	5	2	1	2
346562	PROB	n/a	LTP355	ltpFR2	4	n/a	n/a	n/a	3	6	1	1	4
347578	PROB	n/a	LTP355	ltpFR2	4	n/a	n/a	n/a	3	17	8	5	4
349309	PROB	n/a	LTP355	ltpFR2	4	n/a	n/a	n/a	3	13	6	6	1
350442	PROB	n/a	LTP355	ltpFR2	4	n/a	n/a	n/a	3	17	7	7	3
351858	PROB	n/a	LTP355	ltpFR2	4	n/a	n/a	n/a	3	14	7	2	5
353394	STOP	n/a	LTP355	ltpFR2	4	n/a	n/a	n/a	3	n/a	n/a	n/a	n/a
355374	REC_START	n/a	LTP355	ltpFR2	4	2	n/a	n/a	n/a	n/a	0	0	0
356121	REC_WORD	wordpools/wasnorm_wordpool_576.txt	LTP355	ltpFR2	4	2	PRINCE	1124	n/a	n/a	0	0	0
357057	REC_WORD	wordpools/wasnorm_wordpool_576.txt	LTP355	ltpFR2	4	2	BANQUET	86	n/a	n/a	0	0	0
358215	REC_WORD	wordpools/wasnorm_wordpool_576.txt	LTP355	ltpFR2	4	2	PLATE	1086	n/a	n/a	0	0	0
359206	REC_WORD	wordpools/wasnorm_wordpool_576.txt	LTP355	ltpFR2	4	2	GLASS	639	n/a	n/a	0	0	0
360220	REC_WORD	wordpools/wasnorm_wordpool_576.txt	LTP355	ltpFR2	4	2	LIVER	833	n/a	n/a	0	0	0
361189	REC_WORD	wordpools/wasnorm_wordpool_576.txt	LTP355	ltpFR2	4	2	KIDNEY	776	n/a	n/a	0	0	0
367162	REC_WORD	wordpools/wasnorm_wordpool_576.txt	LTP355	ltpFR2	4	2	HORNET	718	n/a	n/a	0	0	0
368012	REC_WORD	wordpools/wasnorm_wordpool_576.txt	LTP355	ltpFR2	4	2	WASP	1593	n/a	n/a	0	0	0
368923	REC_WORD	wordpools/wasnorm_wordpool_576.txt	LTP355	ltpFR2	4	2	LETTUCE	814	n/a	n/a	0	0	0
372184	REC_WORD	wordpools/wasnorm_wordpool_576.txt	LTP355	ltpFR2	4	2	PORTRAIT	1111	n/a	n/a	0	0	0
373084	REC_WORD	wordpools/wasnorm_wordpool_576.txt	LTP355	ltpFR2	4	2	AWARD	63	n/a	n/a	0	0	0
373937	REC_WORD	wordpools/wasnorm_wordpool_576.txt	LTP355	ltpFR2	4	2	REPORT	1184	n/a	n/a	0	0	0
375885	REC_WORD	wordpools/wasnorm_wordpool_576.txt	LTP355	ltpFR2	4	2	MILDEW	893	n/a	n/a	0	0	0
377750	REC_WORD	wordpools/wasnorm_wordpool_576.txt	LTP355	ltpFR2	4	2	KNAPSACK	783	n/a	n/a	0	0	0
379480	REC_WORD	wordpools/wasnorm_wordpool_576.txt	LTP355	ltpFR2	4	2	LABEL	790	n/a	n/a	0	0	0
384286	REC_WORD	wordpools/wasnorm_wordpool_576.txt	LTP355	ltpFR2	4	2	WASHER	1592	n/a	n/a	0	0	0
445828	WORD	wordpools/wasnorm_wordpool_576.txt	LTP355	ltpFR2	4	3	CRITIC	410	n/a	n/a	0	0	0
448611	WORD	wordpools/wasnorm_wordpool_576.txt	LTP355	ltpFR2	4	3	ACTRESS	6	n/a	n/a	0	0	0
451192	WORD	wordpools/wasnorm_wordpool_576.txt	LTP355	ltpFR2	4	3	GLOVE	642	n/a	n/a	0	0	0
453675	WORD	wordpools/wasnorm_wordpool_576.txt	LTP355	ltpFR2	4	3	GIRL	637	n/a	n/a	0	0	0
456340	WORD	wordpools/wasnorm_wordpool_576.txt	LTP355	ltpFR2	4	3	FINGER	567	n/a	n/a	0	0	0
458905	WORD	wordpools/wasnorm_wordpool_576.txt	LTP355	ltpFR2	4	3	COCKTAIL	338	n/a	n/a	0	0	0
461538	WORD	wordpools/wasnorm_wordpool_576.txt	LTP355	ltpFR2	4	3	BOUQUET	157	n/a	n/a	0	0	0
464302	WORD	wordpools/wasnorm_wordpool_576.txt	LTP355	ltpFR2	4	3	SILK	1307	n/a	n/a	0	0	0
466851	WORD	wordpools/wasnorm_wordpool_576.txt	LTP355	ltpFR2	4	3	HAND	683	n/a	n/a	0	0	0
469450	WORD	wordpools/wasnorm_wordpool_576.txt	LTP355	ltpFR2	4	3	PEDAL	1037	n/a	n/a	0	0	0
471882	WORD	wordpools/wasnorm_wordpool_576.txt	LTP355	ltpFR2	4	3	THIEF	1456	n/a	n/a	0	0	0
474347	WORD	wordpools/wasnorm_wordpool_576.txt	LTP355	ltpFR2	4	3	ROBIN	1199	n/a	n/a	0	0	0
477046	WORD	wordpools/wasnorm_wordpool_576.txt	LTP355	ltpFR2	4	3	SUNSET	1408	n/a	n/a	0	0	0
479528	WORD	wordpools/wasnorm_wordpool_576.txt	LTP355	ltpFR2	4	3	SUNRISE	1407	n/a	n/a	0	0	0
482127	WORD	wordpools/wasnorm_wordpool_576.txt	LTP355	ltpFR2	4	3	PARTNER	1017	n/a	n/a	0	0	0
484643	WORD	wordpools/wasnorm_wordpool_576.txt	LTP355	ltpFR2	4	3	GRAPE	654	n/a	n/a	0	0	0
487307	WORD	wordpools/wasnorm_wordpool_576.txt	LTP355	ltpFR2	4	3	ORANGE	980	n/a	n/a	0	0	0
490006	WORD	wordpools/wasnorm_wordpool_576.txt	LTP355	ltpFR2	4	3	CAMEL	223	n/a	n/a	0	0	0
492706	WORD	wordpools/wasnorm_wordpool_576.txt	LTP355	ltpFR2	4	3	LACE	792	n/a	n/a	0	0	0
495254	WORD	wordpools/wasnorm_wordpool_576.txt	LTP355	ltpFR2	4	3	FOOT	590	n/a	n/a	0	0	0
497902	WORD	wordpools/wasnorm_wordpool_576.txt	LTP355	ltpFR2	4	3	GYMNAST	675	n/a	n/a	0	0	0
500652	WORD	wordpools/wasnorm_wordpool_576.txt	LTP355	ltpFR2	4	3	FOOTBALL	591	n/a	n/a	0	0	0
503166	WORD	wordpools/wasnorm_wordpool_576.txt	LTP355	ltpFR2	4	3	UNCLE	1536	n/a	n/a	0	0	0
505699	WORD	wordpools/wasnorm_wordpool_576.txt	LTP355	ltpFR2	4	3	BUCKET	184	n/a	n/a	0	0	0
507314	START	n/a	LTP355	ltpFR2	4	n/a	n/a	n/a	4	n/a	n/a	n/a	n/a
508429	DISTRACTOR	n/a	LTP355	ltpFR2	4	3	n/a	n/a	n/a	n/a	0	0	0
508447	PROB	n/a	LTP355	ltpFR2	4	n/a	n/a	n/a	4	11	2	7	2
510580	PROB	n/a	LTP355	ltpFR2	4	n/a	n/a	n/a	4	22	8	8	6
512563	PROB	n/a	LTP355	ltpFR2	4	n/a	n/a	n/a	4	18	2	7	9
515544	PROB	n/a	LTP355	ltpFR2	4	n/a	n/a	n/a	4	17	5	4	8
517443	PROB	n/a	LTP355	ltpFR2	4	n/a	n/a	n/a	4	16	4	7	5
519492	PROB	n/a	LTP355	ltpFR2	4	n/a	n/a	n/a	4	12	2	4	6
521007	PROB	n/a	LTP355	ltpFR2	4	n/a	n/a	n/a	4	13	2	8	3
522523	PROB	n/a	LTP355	ltpFR2	4	n/a	n/a	n/a	4	7	2	1	4
524239	PROB	n/a	LTP355	ltpFR2	4	n/a	n/a	n/a	4	13	5	2	6
526005	PROB	n/a	LTP355	ltpFR2	4	n/a	n/a	n/a	4	12	1	9	2
527538	PROB	n/a	LTP355	ltpFR2	4	n/a	n/a	n/a	4	13	5	3	5
529070	PROB	n/a	LTP355	ltpFR2	4	n/a	n/a	n/a	4	11	5	4	2
530522	STOP	n/a	LTP355	ltpFR2	4	n/a	n/a	n/a	4	n/a	n/a	n/a	n/a
533169	REC_START	n/a	LTP355	ltpFR2	4	3	n/a	n/a	n/a	n/a	0	0	0
537891	REC_WORD	wordpools/wasnorm_wordpool_576.txt	LTP355	ltpFR2	4	3	CRITIC	410	n/a	n/a	0	0	0
539699	REC_WORD	wordpools/wasnorm_wordpool_576.txt	LTP355	ltpFR2	4	3	ACTRESS	6	n/a	n/a	0	0	0
540932	REC_WORD	wordpools/wasnorm_wordpool_576.txt	LTP355	ltpFR2	4	3	WOMAN	1620	n/a	n/a	0	0	0
542916	REC_WORD	wordpools/wasnorm_wordpool_576.txt	LTP355	ltpFR2	4	3	GIRL	637	n/a	n/a	0	0	0
544800	REC_WORD	wordpools/wasnorm_wordpool_576.txt	LTP355	ltpFR2	4	3	GLOVE	642	n/a	n/a	0	0	0
545543	REC_WORD	wordpools/wasnorm_wordpool_576.txt	LTP355	ltpFR2	4	3	HAND	683	n/a	n/a	0	0	0
546584	REC_WORD	wordpools/wasnorm_wordpool_576.txt	LTP355	ltpFR2	4	3	FINGER	567	n/a	n/a	0	0	0
548807	REC_WORD	wordpools/wasnorm_wordpool_576.txt	LTP355	ltpFR2	4	3	PEDAL	1037	n/a	n/a	0	0	0
549753	REC_WORD	wordpools/wasnorm_wordpool_576.txt	LTP355	ltpFR2	4	3	SUNSET	1408	n/a	n/a	0	0	0
550759	REC_WORD	wordpools/wasnorm_wordpool_576.txt	LTP355	ltpFR2	4	3	SUNRISE	1407	n/a	n/a	0	0	0
553700	REC_WORD	wordpools/wasnorm_wordpool_576.txt	LTP355	ltpFR2	4	3	GYMNAST	675	n/a	n/a	0	0	0
555213	REC_WORD	wordpools/wasnorm_wordpool_576.txt	LTP355	ltpFR2	4	3	GRAPE	654	n/a	n/a	0	0	0
555894	REC_WORD	wordpools/wasnorm_wordpool_576.txt	LTP355	ltpFR2	4	3	ORANGE	980	n/a	n/a	0	0	0
561352	REC_WORD	wordpools/wasnorm_wordpool_576.txt	LTP355	ltpFR2	4	3	BUCKET	184	n/a	n/a	0	0	0
562209	REC_WORD	wordpools/wasnorm_wordpool_576.txt	LTP355	ltpFR2	4	3	UNCLE	1536	n/a	n/a	0	0	0
623641	WORD	wordpools/wasnorm_wordpool_576.txt	LTP355	ltpFR2	4	4	PRINCESS	1125	n/a	n/a	0	0	0
626272	WORD	wordpools/wasnorm_wordpool_576.txt	LTP355	ltpFR2	4	4	LION	827	n/a	n/a	0	0	0
628887	WORD	wordpools/wasnorm_wordpool_576.txt	LTP355	ltpFR2	4	4	THREAD	1460	n/a	n/a	0	0	0
631587	WORD	wordpools/wasnorm_wordpool_576.txt	LTP355	ltpFR2	4	4	SANDWICH	1232	n/a	n/a	0	0	0
634068	WORD	wordpools/wasnorm_wordpool_576.txt	LTP355	ltpFR2	4	4	DRIVER	499	n/a	n/a	0	0	0
636668	WORD	wordpools/wasnorm_wordpool_576.txt	LTP355	ltpFR2	4	4	MEDAL	885	n/a	n/a	0	0	0
639232	WORD	wordpools/wasnorm_wordpool_576.txt	LTP355	ltpFR2	4	4	SERVANT	1271	n/a	n/a	0	0	0
641897	WORD	wordpools/wasnorm_wordpool_576.txt	LTP355	ltpFR2	4	4	COMPASS	358	n/a	n/a	0	0	0
644363	WORD	wordpools/wasnorm_wordpool_576.txt	LTP355	ltpFR2	4	4	RADISH	1158	n/a	n/a	0	0	0
647095	WORD	wordpools/wasnorm_wordpool_576.txt	LTP355	ltpFR2	4	4	CHAUFFEUR	283	n/a	n/a	0	0	0
649860	WORD	wordpools/wasnorm_wordpool_576.txt	LTP355	ltpFR2	4	4	MONEY	908	n/a	n/a	0	0	0
652660	WORD	wordpools/wasnorm_wordpool_576.txt	LTP355	ltpFR2	4	4	LUGGAGE	847	n/a	n/a	0	0	0
655091	WORD	wordpools/wasnorm_wordpool_576.txt	LTP355	ltpFR2	4	4	TUNNEL	1519	n/a	n/a	0	0	0
657856	WORD	wordpools/wasnorm_wordpool_576.txt	LTP355	ltpFR2	4	4	STREAM	1392	n/a	n/a	0	0	0
660421	WORD	wordpools/wasnorm_wordpool_576.txt	LTP355	ltpFR2	4	4	TROUT	1511	n/a	n/a	0	0	0
663203	WORD	wordpools/wasnorm_wordpool_576.txt	LTP355	ltpFR2	4	4	BIKE	125	n/a	n/a	0	0	0
665737	WORD	wordpools/wasnorm_wordpool_576.txt	LTP355	ltpFR2	4	4	PREACHER	1119	n/a	n/a	0	0	0
668318	WORD	wordpools/wasnorm_wordpool_576.txt	LTP355	ltpFR2	4	4	CHAPEL	280	n/a	n/a	0	0	0
670866	WORD	wordpools/wasnorm_wordpool_576.txt	LTP355	ltpFR2	4	4	CRAYON	401	n/a	n/a	0	0	0
673599	WORD	wordpools/wasnorm_wordpool_576.txt	LTP355	ltpFR2	4	4	FLESH	579	n/a	n/a	0	0	0
676347	WORD	wordpools/wasnorm_wordpool_576.txt	LTP355	ltpFR2	4	4	BISON	131	n/a	n/a	0	0	0
679029	WORD	wordpools/wasnorm_wordpool_576.txt	LTP355	ltpFR2	4	4	VALLEY	1545	n/a	n/a	0	0	0
681695	WORD	wordpools/wasnorm_wordpool_576.txt	LTP355	ltpFR2	4	4	THRONE	1461	n/a	n/a	0	0	0
684460	WORD	wordpools/wasnorm_wordpool_576.txt	LTP355	ltpFR2	4	4	FRIAR	605	n/a	n/a	0	0	0
686076	START	n/a	LTP355	ltpFR2	4	n/a	n/a	n/a	5	n/a	n/a	n/a	n/a
687186	DISTRACTOR	n/a	LTP355	ltpFR2	4	4	n/a	n/a	n/a	n/a	0	0	0
687192	PROB	n/a	LTP355	ltpFR2	4	n/a	n/a	n/a	5	21	9	3	9
689424	PROB	n/a	LTP355	ltpFR2	4	n/a	n/a	n/a	5	18	1	8	9
691123	PROB	n/a	LTP355	ltpFR2	4	n/a	n/a	n/a	5	20	4	7	9
693556	PROB	n/a	LTP355	ltpFR2	4	n/a	n/a	n/a	5	17	8	1	8
695088	PROB	n/a	LTP355	ltpFR2	4	n/a	n/a	n/a	5	14	1	4	9
696454	PROB	n/a	LTP355	ltpFR2	4	n/a	n/a	n/a	5	10	2	4	4
698453	PROB	n/a	LTP355	ltpFR2	4	n/a	n/a	n/a	5	13	1	7	5
700636	PROB	n/a	LTP355	ltpFR2	4	n/a	n/a	n/a	5	11	3	1	7
701769	PROB	n/a	LTP355	ltpFR2	4	n/a	n/a	n/a	5	22	9	7	6
705366	PROB	n/a	LTP355	ltpFR2	4	n/a	n/a	n/a	5	12	2	7	3
708165	PROB	n/a	LTP355	ltpFR2	4	n/a	n/a	n/a	5	15	2	5	8
709571	STOP	n/a	LTP355	ltpFR2	4	n/a	n/a	n/a	5	n/a	n/a	n/a	n/a
711963	REC_START	n/a	LTP355	ltpFR2	4	4	n/a	n/a	n/a	n/a	0	0	0
712558	REC_WORD	wordpools/wasnorm_wordpool_576.txt	LTP355	ltpFR2	4	4	PRINCESS	1125	n/a	n/a	0	0	0
713658	REC_WORD	wordpools/wasnorm_wordpool_576.txt	LTP355	ltpFR2	4	4	LION	827	n/a	n/a	0	0	0
714562	REC_WORD	wordpools/wasnorm_wordpool_576.txt	LTP355	ltpFR2	4	4	THREAD	1460	n/a	n/a	0	0	0
715890	REC_WORD	wordpools/wasnorm_wordpool_576.txt	LTP355	ltpFR2	4	4	SANDWICH	1232	n/a	n/a	0	0	0
721397	REC_WORD	wordpools/wasnorm_wordpool_576.txt	LTP355	ltpFR2	4	4	CHAUFFEUR	283	n/a	n/a	0	0	0
724113	REC_WORD	wordpools/wasnorm_wordpool_576.txt	LTP355	ltpFR2	4	4	DRIVER	499	n/a	n/a	0	0	0
727086	REC_WORD	wordpools/wasnorm_wordpool_576.txt	LTP355	ltpFR2	4	4	SERVANT	1271	n/a	n/a	0	0	0
728659	REC_WORD	wordpools/wasnorm_wordpool_576.txt	LTP355	ltpFR2	4	4	AWARD	63	n/a	n/a	0	0	0
731300	REC_WORD	wordpools/wasnorm_wordpool_576.txt	LTP355	ltpFR2	4	4	MEDAL	885	n/a	n/a	0	0	0
736442	REC_WORD	wordpools/wasnorm_wordpool_576.txt	LTP355	ltpFR2	4	4	LUGGAGE	847	n/a	n/a	0	0	0
737414	REC_WORD	wordpools/wasnorm_wordpool_576.txt	LTP355	ltpFR2	4	4	STREAM	1392	n/a	n/a	0	0	0
738265	REC_WORD	wordpools/wasnorm_wordpool_576.txt	LTP355	ltpFR2	4	4	VALLEY	1545	n/a	n/a	0	0	0
739457	REC_WORD	wordpools/wasnorm_wordpool_576.txt	LTP355	ltpFR2	4	4	FLESH	579	n/a	n/a	0	0	0
740561	REC_WORD	wordpools/wasnorm_wordpool_576.txt	LTP355	ltpFR2	4	4	BISON	131	n/a	n/a	0	0	0
742371	REC_WORD	wordpools/wasnorm_wordpool_576.txt	LTP355	ltpFR2	4	4	RADISH	1158	n/a	n/a	0	0	0
802401	DISTRACTOR	n/a	LTP355	ltpFR2	4	5	n/a	n/a	n/a	n/a	0	0	0
802401	START	n/a	LTP355	ltpFR2	4	n/a	n/a	n/a	6	n/a	n/a	n/a	n/a
802418	PROB	n/a	LTP355	ltpFR2	4	n/a	n/a	n/a	6	8	2	2	4
804568	PROB	n/a	LTP355	ltpFR2	4	n/a	n/a	n/a	6	7	2	3	2
806633	PROB	n/a	LTP355	ltpFR2	4	n/a	n/a	n/a	6	14	6	3	5
808348	PROB	n/a	LTP355	ltpFR2	4	n/a	n/a	n/a	6	19	7	3	9
809897	PROB	n/a	LTP355	ltpFR2	4	n/a	n/a	n/a	6	19	3	9	7
811180	PROB	n/a	LTP355	ltpFR2	4	n/a	n/a	n/a	6	22	8	8	6
813395	PROB	n/a	LTP355	ltpFR2	4	n/a	n/a	n/a	6	7	3	1	3
814729	PROB	n/a	LTP355	ltpFR2	4	n/a	n/a	n/a	6	6	3	1	2
816394	PROB	n/a	LTP355	ltpFR2	4	n/a	n/a	n/a	6	20	3	8	9
817993	PROB	n/a	LTP355	ltpFR2	4	n/a	n/a	n/a	6	13	5	3	5
819343	PROB	n/a	LTP355	ltpFR2	4	n/a	n/a	n/a	6	9	1	1	7
820459	PROB	n/a	LTP355	ltpFR2	4	n/a	n/a	n/a	6	16	3	7	6
822291	PROB	n/a	LTP355	ltpFR2	4	n/a	n/a	n/a	6	18	7	8	3
824900	STOP	n/a	LTP355	ltpFR2	4	n/a	n/a	n/a	6	n/a	n/a	n/a	n/a
827322	WORD	wordpools/wasnorm_wordpool_576.txt	LTP355	ltpFR2	4	5	HOSTESS	723	n/a	n/a	0	0	0
829954	WORD	wordpools/wasnorm_wordpool_576.txt	LTP355	ltpFR2	4	5	SERVER	1272	n/a	n/a	0	0	0
832637	WORD	wordpools/wasnorm_wordpool_576.txt	LTP355	ltpFR2	4	5	COSTUME	383	n/a	n/a	0	0	0
835218	WORD	wordpools/wasnorm_wordpool_576.txt	LTP355	ltpFR2	4	5	BASEMENT	94	n/a	n/a	0	0	0
837933	WORD	wordpools/wasnorm_wordpool_576.txt	LTP355	ltpFR2	4	5	CELLAR	267	n/a	n/a	0	0	0
840532	WORD	wordpools/wasnorm_wordpool_576.txt	LTP355	ltpFR2	4	5	SOFTBALL	1343	n/a	n/a	0	0	0
843164	WORD	wordpools/wasnorm_wordpool_576.txt	LTP355	ltpFR2	4	5	LEG	809	n/a	n/a	0	0	0
845730	WORD	wordpools/wasnorm_wordpool_576.txt	LTP355	ltpFR2	4	5	BURGLAR	200	n/a	n/a	0	0	0
848511	WORD	wordpools/wasnorm_wordpool_576.txt	LTP355	ltpFR2	4	5	PUDDLE	1140	n/a	n/a	0	0	0
851110	WORD	wordpools/wasnorm_wordpool_576.txt	LTP355	ltpFR2	4	5	CASKET	255	n/a	n/a	0	0	0
853676	WORD	wordpools/wasnorm_wordpool_576.txt	LTP355	ltpFR2	4	5	CABIN	211	n/a	n/a	0	0	0
856158	WORD	wordpools/wasnorm_wordpool_576.txt	LTP355	ltpFR2	4	5	COMET	353	n/a	n/a	0	0	0
858823	WORD	wordpools/wasnorm_wordpool_576.txt	LTP355	ltpFR2	4	5	HEDGE	699	n/a	n/a	0	0	0
861573	WORD	wordpools/wasnorm_wordpool_576.txt	LTP355	ltpFR2	4	5	WIDOW	1608	n/a	n/a	0	0	0
864004	WORD	wordpools/wasnorm_wordpool_576.txt	LTP355	ltpFR2	4	5	BADGE	68	n/a	n/a	0	0	0
866537	WORD	wordpools/wasnorm_wordpool_576.txt	LTP355	ltpFR2	4	5	SNAKE	1333	n/a	n/a	0	0	0
869284	WORD	wordpools/wasnorm_wordpool_576.txt	LTP355	ltpFR2	4	5	BUG	187	n/a	n/a	0	0	0
871966	WORD	wordpools/wasnorm_wordpool_576.txt	LTP355	ltpFR2	4	5	POISON	1096	n/a	n/a	0	0	0
874482	WORD	wordpools/wasnorm_wordpool_576.txt	LTP355	ltpFR2	4	5	FOREST	593	n/a	n/a	0	0	0
877147	WORD	wordpools/wasnorm_wordpool_576.txt	LTP355	ltpFR2	4	5	TABLE	1426	n/a	n/a	0	0	0
879813	WORD	wordpools/wasnorm_wordpool_576.txt	LTP355	ltpFR2	4	5	RUST	1219	n/a	n/a	0	0	0
882311	WORD	wordpools/wasnorm_wordpool_576.txt	LTP355	ltpFR2	4	5	CLAMP	316	n/a	n/a	0	0	0
884761	WORD	wordpools/wasnorm_wordpool_576.txt	LTP355	ltpFR2	4	5	BLOUSE	139	n/a	n/a	0	0	0
887560	WORD	wordpools/wasnorm_wordpool_576.txt	LTP355	ltpFR2	4	5	VICTIM	1562	n/a	n/a	0	0	0
889175	START	n/a	LTP355	ltpFR2	4	n/a	n/a	n/a	7	n/a	n/a	n/a	n/a
890250	DISTRACTOR	n/a	LTP355	ltpFR2	4	5	n/a	n/a	n/a	n/a	0	0	0
890257	PROB	n/a	LTP355	ltpFR2	4	n/a	n/a	n/a	7	10	2	5	3
892506	PROB	n/a	LTP355	ltpFR2	4	n/a	n/a	n/a	7	15	8	3	4
894522	PROB	n/a	LTP355	ltpFR2	4	n/a	n/a	n/a	7	15	6	7	2
895921	PROB	n/a	LTP355	ltpFR2	4	n/a	n/a	n/a	7	11	2	4	5
898070	PROB	n/a	LTP355	ltpFR2	4	n/a	n/a	n/a	7	10	3	3	4
900069	PROB	n/a	LTP355	ltpFR2	4	n/a	n/a	n/a	7	19	6	8	5
902101	PROB	n/a	LTP355	ltpFR2	4	n/a	n/a	n/a	7	22	6	7	9
904051	PROB	n/a	LTP355	ltpFR2	4	n/a	n/a	n/a	7	13	3	5	5
905217	PROB	n/a	LTP355	ltpFR2	4	n/a	n/a	n/a	7	7	1	5	1
906650	PROB	n/a	LTP355	ltpFR2	4	n/a	n/a	n/a	7	14	4	3	7
908666	PROB	n/a	LTP355	ltpFR2	4	n/a	n/a	n/a	7	11	3	3	5
910281	PROB	n/a	LTP355	ltpFR2	4	n/a	n/a	n/a	7	13	1	4	8
912338	STOP	n/a	LTP355	ltpFR2	4	n/a	n/a	n/a	7	n/a	n/a	n/a	n/a
914996	REC_START	n/a	LTP355	ltpFR2	4	5	n/a	n/a	n/a	n/a	0	0	0
915857	REC_WORD	wordpools/wasnorm_wordpool_576.txt	LTP355	ltpFR2	4	5	HOSTESS	723	n/a	n/a	0	0	0
917048	REC_WORD_VV	wordpools/wasnorm_wordpool_576.txt	LTP355	ltpFR2	4	5	<>	-1	n/a	n/a	0	0	0
917896	REC_WORD	wordpools/wasnorm_wordpool_576.txt	LTP355	ltpFR2	4	5	SERVER	1272	n/a	n/a	0	0	0
920099	REC_WORD	wordpools/wasnorm_wordpool_576.txt	LTP355	ltpFR2	4	5	COSTUME	383	n/a	n/a	0	0	0
921569	REC_WORD	wordpools/wasnorm_wordpool_576.txt	LTP355	ltpFR2	4	5	BASEMENT	94	n/a	n/a	0	0	0
922336	REC_WORD	wordpools/wasnorm_wordpool_576.txt	LTP355	ltpFR2	4	5	CELLAR	267	n/a	n/a	0	0	0
923289	REC_WORD	wordpools/wasnorm_wordpool_576.txt	LTP355	ltpFR2	4	5	SOFTBALL	1343	n/a	n/a	0	0	0
927892	REC_WORD	wordpools/wasnorm_wordpool_576.txt	LTP355	ltpFR2	4	5	LEG	809	n/a	n/a	0	0	0
932042	REC_WORD	wordpools/wasnorm_wordpool_576.txt	LTP355	ltpFR2	4	5	RUST	1219	n/a	n/a	0	0	0
934919	REC_WORD	wordpools/wasnorm_wordpool_576.txt	LTP355	ltpFR2	4	5	HEDGE	699	n/a	n/a	0	0	0
936042	REC_WORD	wordpools/wasnorm_wordpool_576.txt	LTP355	ltpFR2	4	5	WIDOW	1608	n/a	n/a	0	0	0
937289	REC_WORD	wordpools/wasnorm_wordpool_576.txt	LTP355	ltpFR2	4	5	BADGE	68	n/a	n/a	0	0	0
938660	REC_WORD	wordpools/wasnorm_wordpool_576.txt	LTP355	ltpFR2	4	5	SNAKE	1333	n/a	n/a	0	0	0
939760	REC_WORD	wordpools/wasnorm_wordpool_576.txt	LTP355	ltpFR2	4	5	BUG	187	n/a	n/a	0	0	0
940566	REC_WORD	wordpools/wasnorm_wordpool_576.txt	LTP355	ltpFR2	4	5	POISON	1096	n/a	n/a	0	0	0
947249	REC_WORD	wordpools/wasnorm_wordpool_576.txt	LTP355	ltpFR2	4	5	BURGLAR	200	n/a	n/a	0	0	0
953578	REC_WORD	wordpools/wasnorm_wordpool_576.txt	LTP355	ltpFR2	4	5	CABIN	211	n/a	n/a	0	0	0
954802	REC_WORD	wordpools/wasnorm_wordpool_576.txt	LTP355	ltpFR2	4	5	FOREST	593	n/a	n/a	0	0	0
958534	REC_WORD	wordpools/wasnorm_wordpool_576.txt	LTP355	ltpFR2	4	5	BLOUSE	139	n/a	n/a	0	0	0
1005450	DISTRACTOR	n/a	LTP355	ltpFR2	4	6	n/a	n/a	n/a	n/a	0	0	0
1005450	START	n/a	LTP355	ltpFR2	4	n/a	n/a	n/a	8	n/a	n/a	n/a	n/a
1005467	PROB	n/a	LTP355	ltpFR2	4	n/a	n/a	n/a	8	13	1	7	5
1008099	PROB	n/a	LTP355	ltpFR2	4	n/a	n/a	n/a	8	10	7	2	1
1009766	PROB	n/a	LTP355	ltpFR2	4	n/a	n/a	n/a	8	20	8	8	4
1011347	PROB	n/a	LTP355	ltpFR2	4	n/a	n/a	n/a	8	23	8	9	6
1013913	PROB	n/a	LTP355	ltpFR2	4	n/a	n/a	n/a	8	15	2	7	6
1016411	PROB	n/a	LTP355	ltpFR2	4	n/a	n/a	n/a	8	12	5	1	6
1019193	PROB	n/a	LTP355	ltpFR2	4	n/a	n/a	n/a	8	8	1	2	5
1020942	PROB	n/a	LTP355	ltpFR2	4	n/a	n/a	n/a	8	16	8	5	3
1023341	PROB	n/a	LTP355	ltpFR2	4	n/a	n/a	n/a	8	16	3	6	7
1024824	PROB	n/a	LTP355	ltpFR2	4	n/a	n/a	n/a	8	9	3	5	1
1027306	PROB	n/a	LTP355	ltpFR2	4	n/a	n/a	n/a	8	11	1	1	9
1028539	STOP	n/a	LTP355	ltpFR2	4	n/a	n/a	n/a	8	n/a	n/a	n/a	n/a
1030404	WORD	wordpools/wasnorm_wordpool_576.txt	LTP355	ltpFR2	4	6	NIGHTGOWN	953	n/a	n/a	0	0	0
1033186	WORD	wordpools/wasnorm_wordpool_576.txt	LTP355	ltpFR2	4	6	HANDBAG	684	n/a	n/a	0	0	0
1035703	WORD	wordpools/wasnorm_wordpool_576.txt	LTP355	ltpFR2	4	6	PLUTO	1092	n/a	n/a	0	0	0
1038517	WORD	wordpools/wasnorm_wordpool_576.txt	LTP355	ltpFR2	4	6	POET	1095	n/a	n/a	0	0	0
1041182	WORD	wordpools/wasnorm_wordpool_576.txt	LTP355	ltpFR2	4	6	CORAL	378	n/a	n/a	0	0	0
1043765	WORD	wordpools/wasnorm_wordpool_576.txt	LTP355	ltpFR2	4	6	JEANS	752	n/a	n/a	0	0	0
1046230	WORD	wordpools/wasnorm_wordpool_576.txt	LTP355	ltpFR2	4	6	GREASE	660	n/a	n/a	0	0	0
1048713	WORD	wordpools/wasnorm_wordpool_576.txt	LTP355	ltpFR2	4	6	ROBOT	1200	n/a	n/a	0	0	0
1051244	WORD	wordpools/wasnorm_wordpool_576.txt	LTP355	ltpFR2	4	6	FRANCE	601	n/a	n/a	0	0	0
1053943	WORD	wordpools/wasnorm_wordpool_576.txt	LTP355	ltpFR2	4	6	NOTEBOOK	959	n/a	n/a	0	0	0
1056508	WORD	wordpools/wasnorm_wordpool_576.txt	LTP355	ltpFR2	4	6	SHELF	1280	n/a	n/a	0	0	0
1059090	WORD	wordpools/wasnorm_wordpool_576.txt	LTP355	ltpFR2	4	6	ATLAS	53	n/a	n/a	0	0	0
1061855	WORD	wordpools/wasnorm_wordpool_576.txt	LTP355	ltpFR2	4	6	EUROPE	541	n/a	n/a	0	0	0
1064538	WORD	wordpools/wasnorm_wordpool_576.txt	LTP355	ltpFR2	4	6	OX	994	n/a	n/a	0	0	0
1067319	WORD	wordpools/wasnorm_wordpool_576.txt	LTP355	ltpFR2	4	6	SWITCH	1422	n/a	n/a	0	0	0
1069935	WORD	wordpools/wasnorm_wordpool_576.txt	LTP355	ltpFR2	4	6	FLASHLIGHT	575	n/a	n/a	0	0	0
1072450	WORD	wordpools/wasnorm_wordpool_576.txt	LTP355	ltpFR2	4	6	DUST	508	n/a	n/a	0	0	0
1074966	WORD	wordpools/wasnorm_wordpool_576.txt	LTP355	ltpFR2	4	6	AUTHOR	61	n/a	n/a	0	0	0
1077398	WORD	wordpools/wasnorm_wordpool_576.txt	LTP355	ltpFR2	4	6	MARS	873	n/a	n/a	0	0	0
1080180	WORD	wordpools/wasnorm_wordpool_576.txt	LTP355	ltpFR2	4	6	VENUS	1557	n/a	n/a	0	0	0
1082763	WORD	wordpools/wasnorm_wordpool_576.txt	LTP355	ltpFR2	4	6	WITNESS	1618	n/a	n/a	0	0	0
1085294	WORD	wordpools/wasnorm_wordpool_576.txt	LTP355	ltpFR2	4	6	PUPIL	1143	n/a	n/a	0	0	0
1088076	WORD	wordpools/wasnorm_wordpool_576.txt	LTP355	ltpFR2	4	6	VIKING	1565	n/a	n/a	0	0	0
1090775	WORD	wordpools/wasnorm_wordpool_576.txt	LTP355	ltpFR2	4	6	CATTLE	261	n/a	n/a	0	0	0
1092391	START	n/a	LTP355	ltpFR2	4	n/a	n/a	n/a	9	n/a	n/a	n/a	n/a
1093459	DISTRACTOR	n/a	LTP355	ltpFR2	4	6	n/a	n/a	n/a	n/a	0	0	0
1093473	PROB	n/a	LTP355	ltpFR2	4	n/a	n/a	n/a	9	21	8	5	8
1095740	PROB	n/a	LTP355	ltpFR2	4	n/a	n/a	n/a	9	17	8	7	2
1099004	PROB	n/a	LTP355	ltpFR2	4	n/a	n/a	n/a	9	10	4	2	4
1100587	PROB	n/a	LTP355	ltpFR2	4	n/a	n/a	n/a	9	20	5	8	7
1102352	PROB	n/a	LTP355	ltpFR2	4	n/a	n/a	n/a	9	10	4	5	1
1103719	PROB	n/a	LTP355	ltpFR2	4	n/a	n/a	n/a	9	11	2	5	4
1105334	PROB	n/a	LTP355	ltpFR2	4	n/a	n/a	n/a	9	16	4	4	8
1106817	PROB	n/a	LTP355	ltpFR2	4	n/a	n/a	n/a	9	11	2	4	5
1109699	PROB	n/a	LTP355	ltpFR2	4	n/a	n/a	n/a	9	10	4	2	4
1111314	PROB	n/a	LTP355	ltpFR2	4	n/a	n/a	n/a	9	9	7	1	1
1112548	PROB	n/a	LTP355	ltpFR2	4	n/a	n/a	n/a	9	10	3	5	2
1114346	PROB	n/a	LTP355	ltpFR2	4	n/a	n/a	n/a	9	17	7	6	4
1115683	STOP	n/a	LTP355	ltpFR2	4	n/a	n/a	n/a	9	n/a	n/a	n/a	n/a
1118145	REC_START	n/a	LTP355	ltpFR2	4	6	n/a	n/a	n/a	n/a	0	0	0
1118803	REC_WORD	wordpools/wasnorm_wordpool_576.txt	LTP355	ltpFR2	4	6	AUTHOR	61	n/a	n/a	0	0	0
1119662	REC_WORD	wordpools/wasnorm_wordpool_576.txt	LTP355	ltpFR2	4	6	POET	1095	n/a	n/a	0	0	0
1120569	REC_WORD	wordpools/wasnorm_wordpool_576.txt	LTP355	ltpFR2	4	6	ROBOT	1200	n/a	n/a	0	0	0
1121549	REC_WORD	wordpools/wasnorm_wordpool_576.txt	LTP355	ltpFR2	4	6	GREASE	660	n/a	n/a	0	0	0
1122464	REC_WORD	wordpools/wasnorm_wordpool_576.txt	LTP355	ltpFR2	4	6	JEANS	752	n/a	n/a	0	0	0
1124822	REC_WORD	wordpools/wasnorm_wordpool_576.txt	LTP355	ltpFR2	4	6	PLUTO	1092	n/a	n/a	0	0	0
1126195	REC_WORD	wordpools/wasnorm_wordpool_576.txt	LTP355	ltpFR2	4	6	HANDBAG	684	n/a	n/a	0	0	0
1127251	REC_WORD	wordpools/wasnorm_wordpool_576.txt	LTP355	ltpFR2	4	6	NIGHTGOWN	953	n/a	n/a	0	0	0
1129507	REC_WORD	wordpools/wasnorm_wordpool_576.txt	LTP355	ltpFR2	4	6	CORAL	378	n/a	n/a	0	0	0
1135603	REC_WORD	wordpools/wasnorm_wordpool_576.txt	LTP355	ltpFR2	4	6	NOTEBOOK	959	n/a	n/a	0	0	0
1136543	REC_WORD	wordpools/wasnorm_wordpool_576.txt	LTP355	ltpFR2	4	6	SHELF	1280	n/a	n/a	0	0	0
1140245	REC_WORD	wordpools/wasnorm_wordpool_576.txt	LTP355	ltpFR2	4	6	PARIS	1014	n/a	n/a	0	0	0
1141227	REC_WORD	wordpools/wasnorm_wordpool_576.txt	LTP355	ltpFR2	4	6	EUROPE	541	n/a	n/a	0	0	0
1149063	REC_WORD	wordpools/wasnorm_wordpool_576.txt	LTP355	ltpFR2	4	6	LONDON	843	n/a	n/a	0	0	0
1167600	REC_WORD	wordpools/wasnorm_wordpool_576.txt	LTP355	ltpFR2	4	6	ATLAS	53	n/a	n/a	0	0	0
1181645	REC_WORD	wordpools/wasnorm_wordpool_576.txt	LTP355	ltpFR2	4	6	ROBOT	1200	n/a	n/a	0	0	0
1187693	REC_WORD	wordpools/wasnorm_wordpool_576.txt	LTP355	ltpFR2	4	6	MARS	873	n/a	n/a	0	0	0
1188574	REC_WORD	wordpools/wasnorm_wordpool_576.txt	LTP355	ltpFR2	4	6	VENUS	1557	n/a	n/a	0	0	0
1208600	DISTRACTOR	n/a	LTP355	ltpFR2	4	7	n/a	n/a	n/a	n/a	0	0	0
1208600	START	n/a	LTP355	ltpFR2	4	n/a	n/a	n/a	10	n/a	n/a	n/a	n/a
1208617	PROB	n/a	LTP355	ltpFR2	4	n/a	n/a	n/a	10	17	9	7	1
1210515	PROB	n/a	LTP355	ltpFR2	4	n/a	n/a	n/a	10	17	7	6	4
1213230	PROB	n/a	LTP355	ltpFR2	4	n/a	n/a	n/a	10	27	9	9	9
1215030	PROB	n/a	LTP355	ltpFR2	4	n/a	n/a	n/a	10	21	6	8	7
1217362	PROB	n/a	LTP355	ltpFR2	4	n/a	n/a	n/a	10	13	2	4	7
1219477	PROB	n/a	LTP355	ltpFR2	4	n/a	n/a	n/a	10	10	5	3	2
1220843	PROB	n/a	LTP355	ltpFR2	4	n/a	n/a	n/a	10	9	6	2	1
1223042	PROB	n/a	LTP355	ltpFR2	4	n/a	n/a	n/a	10	9	1	2	6
1224858	PROB	n/a	LTP355	ltpFR2	4	n/a	n/a	n/a	10	14	6	1	7
1227107	PROB	n/a	LTP355	ltpFR2	4	n/a	n/a	n/a	10	17	6	9	2
1230455	PROB	n/a	LTP355	ltpFR2	4	n/a	n/a	n/a	10	20	7	6	7
1232194	STOP	n/a	LTP355	ltpFR2	4	n/a	n/a	n/a	10	n/a	n/a	n/a	n/a
1233704	WORD	wordpools/wasnorm_wordpool_576.txt	LTP355	ltpFR2	4	7	ROD	1203	n/a	n/a	0	0	0
1236502	WORD	wordpools/wasnorm_wordpool_576.txt	LTP355	ltpFR2	4	7	CHIPMUNK	304	n/a	n/a	0	0	0
1239184	WORD	wordpools/wasnorm_wordpool_576.txt	LTP355	ltpFR2	4	7	HOOK	715	n/a	n/a	0	0	0
1241966	WORD	wordpools/wasnorm_wordpool_576.txt	LTP355	ltpFR2	4	7	BUBBLE	183	n/a	n/a	0	0	0
1244666	WORD	wordpools/wasnorm_wordpool_576.txt	LTP355	ltpFR2	4	7	BUTCHER	203	n/a	n/a	0	0	0
1247447	WORD	wordpools/wasnorm_wordpool_576.txt	LTP355	ltpFR2	4	7	SIBLING	1301	n/a	n/a	0	0	0
1250112	WORD	wordpools/wasnorm_wordpool_576.txt	LTP355	ltpFR2	4	7	CAPTIVE	240	n/a	n/a	0	0	0
1252811	WORD	wordpools/wasnorm_wordpool_576.txt	LTP355	ltpFR2	4	7	LAGOON	795	n/a	n/a	0	0	0
1255376	WORD	wordpools/wasnorm_wordpool_576.txt	LTP355	ltpFR2	4	7	MAMMAL	861	n/a	n/a	0	0	0
1258141	WORD	wordpools/wasnorm_wordpool_576.txt	LTP355	ltpFR2	4	7	INFANT	737	n/a	n/a	0	0	0
1260873	WORD	wordpools/wasnorm_wordpool_576.txt	LTP355	ltpFR2	4	7	ULCER	1533	n/a	n/a	0	0	0
1263355	WORD	wordpools/wasnorm_wordpool_576.txt	LTP355	ltpFR2	4	7	BULLET	194	n/a	n/a	0	0	0
1265788	WORD	wordpools/wasnorm_wordpool_576.txt	LTP355	ltpFR2	4	7	BRACES	164	n/a	n/a	0	0	0
1268336	WORD	wordpools/wasnorm_wordpool_576.txt	LTP355	ltpFR2	4	7	APRON	35	n/a	n/a	0	0	0
1270769	WORD	wordpools/wasnorm_wordpool_576.txt	LTP355	ltpFR2	4	7	STOMACH	1384	n/a	n/a	0	0	0
1273350	WORD	wordpools/wasnorm_wordpool_576.txt	LTP355	ltpFR2	4	7	OINTMENT	974	n/a	n/a	0	0	0
1276082	WORD	wordpools/wasnorm_wordpool_576.txt	LTP355	ltpFR2	4	7	TABLET	1427	n/a	n/a	0	0	0
1278599	WORD	wordpools/wasnorm_wordpool_576.txt	LTP355	ltpFR2	4	7	TURTLE	1522	n/a	n/a	0	0	0
1281080	WORD	wordpools/wasnorm_wordpool_576.txt	LTP355	ltpFR2	4	7	COD	340	n/a	n/a	0	0	0
1283646	WORD	wordpools/wasnorm_wordpool_576.txt	LTP355	ltpFR2	4	7	SCALLOP	1242	n/a	n/a	0	0	0
1286244	WORD	wordpools/wasnorm_wordpool_576.txt	LTP355	ltpFR2	4	7	CRAB	397	n/a	n/a	0	0	0
1288793	WORD	wordpools/wasnorm_wordpool_576.txt	LTP355	ltpFR2	4	7	MARKER	870	n/a	n/a	0	0	0
1291425	WORD	wordpools/wasnorm_wordpool_576.txt	LTP355	ltpFR2	4	7	JOURNAL	760	n/a	n/a	0	0	0
1294057	WORD	wordpools/wasnorm_wordpool_576.txt	LTP355	ltpFR2	4	7	MEAT	883	n/a	n/a	0	0	0
1295674	START	n/a	LTP355	ltpFR2	4	n/a	n/a	n/a	11	n/a	n/a	n/a	n/a
1296498	DISTRACTOR	n/a	LTP355	ltpFR2	4	7	n/a	n/a	n/a	n/a	0	0	0
1296506	PROB	n/a	LTP355	ltpFR2	4	n/a	n/a	n/a	11	14	6	2	6
1298371	PROB	n/a	LTP355	ltpFR2	4	n/a	n/a	n/a	11	21	9	4	8
1300337	PROB	n/a	LTP355	ltpFR2	4	n/a	n/a	n/a	11	14	4	8	2
1301786	PROB	n/a	LTP355	ltpFR2	4	n/a	n/a	n/a	11	8	1	6	1
1302803	PROB	n/a	LTP355	ltpFR2	4	n/a	n/a	n/a	11	13	2	9	2
1304619	PROB	n/a	LTP355	ltpFR2	4	n/a	n/a	n/a	11	18	5	8	5
1306034	PROB	n/a	LTP355	ltpFR2	4	n/a	n/a	n/a	11	10	3	1	6
1307234	PROB	n/a	LTP355	ltpFR2	4	n/a	n/a	n/a	11	22	9	8	5
1309683	PROB	n/a	LTP355	ltpFR2	4	n/a	n/a	n/a	11	15	3	8	4
1312198	PROB	n/a	LTP355	ltpFR2	4	n/a	n/a	n/a	11	24	9	9	6
1316396	PROB	n/a	LTP355	ltpFR2	4	n/a	n/a	n/a	11	13	8	1	4
1319674	STOP	n/a	LTP355	ltpFR2	4	n/a	n/a	n/a	11	n/a	n/a	n/a	n/a
1321477	REC_START	n/a	LTP355	ltpFR2	4	7	n/a	n/a	n/a	n/a	0	0	0
1323867	REC_WORD	wordpools/wasnorm_wordpool_576.txt	LTP355	ltpFR2	4	7	BULLET	194	n/a	n/a	0	0	0
1354803	REC_WORD	wordpools/wasnorm_wordpool_576.txt	LTP355	ltpFR2	4	7	LAGOON	795	n/a	n/a	0	0	0
1355536	REC_WORD	wordpools/wasnorm_wordpool_576.txt	LTP355	ltpFR2	4	7	CHIPMUNK	304	n/a	n/a	0	0	0
1356695	REC_WORD	wordpools/wasnorm_wordpool_576.txt	LTP355	ltpFR2	4	7	ROD	1203	n/a	n/a	0	0	0
1357839	REC_WORD	wordpools/wasnorm_wordpool_576.txt	LTP355	ltpFR2	4	7	COD	340	n/a	n/a	0	0	0
1361793	REC_WORD	wordpools/wasnorm_wordpool_576.txt	LTP355	ltpFR2	4	7	MEAT	883	n/a	n/a	0	0	0
1362738	REC_WORD	wordpools/wasnorm_wordpool_576.txt	LTP355	ltpFR2	4	7	CRAB	397	n/a	n/a	0	0	0
1363541	REC_WORD	wordpools/wasnorm_wordpool_576.txt	LTP355	ltpFR2	4	7	SCALLOP	1242	n/a	n/a	0	0	0
1367082	REC_WORD	wordpools/wasnorm_wordpool_576.txt	LTP355	ltpFR2	4	7	MARKER	870	n/a	n/a	0	0	0
1369097	REC_WORD	wordpools/wasnorm_wordpool_576.txt	LTP355	ltpFR2	4	7	INFANT	737	n/a	n/a	0	0	0
1382587	REC_WORD	wordpools/wasnorm_wordpool_576.txt	LTP355	ltpFR2	4	7	CAPTIVE	240	n/a	n/a	0	0	0
1391633	REC_WORD	wordpools/wasnorm_wordpool_576.txt	LTP355	ltpFR2	4	7	SIBLING	1301	n/a	n/a	0	0	0
1395102	REC_WORD	wordpools/wasnorm_wordpool_576.txt	LTP355	ltpFR2	4	7	BRACES	164	n/a	n/a	0	0	0
1411915	DISTRACTOR	n/a	LTP355	ltpFR2	4	8	n/a	n/a	n/a	n/a	0	0	0
1411915	START	n/a	LTP355	ltpFR2	4	n/a	n/a	n/a	12	n/a	n/a	n/a	n/a
1411932	PROB	n/a	LTP355	ltpFR2	4	n/a	n/a	n/a	12	11	1	9	1
1413847	PROB	n/a	LTP355	ltpFR2	4	n/a	n/a	n/a	12	16	6	9	1
1415330	PROB	n/a	LTP355	ltpFR2	4	n/a	n/a	n/a	12	13	3	4	6
1416829	PROB	n/a	LTP355	ltpFR2	4	n/a	n/a	n/a	12	14	1	5	8
1418679	PROB	n/a	LTP355	ltpFR2	4	n/a	n/a	n/a	12	20	3	9	8
1420477	PROB	n/a	LTP355	ltpFR2	4	n/a	n/a	n/a	12	21	3	9	9
1422193	PROB	n/a	LTP355	ltpFR2	4	n/a	n/a	n/a	12	13	9	1	3
1423526	PROB	n/a	LTP355	ltpFR2	4	n/a	n/a	n/a	12	24	9	9	6
1426208	PROB	n/a	LTP355	ltpFR2	4	n/a	n/a	n/a	12	16	6	2	8
1427857	PROB	n/a	LTP355	ltpFR2	4	n/a	n/a	n/a	12	14	4	4	6
1429256	PROB	n/a	LTP355	ltpFR2	4	n/a	n/a	n/a	12	6	1	4	1
1430372	PROB	n/a	LTP355	ltpFR2	4	n/a	n/a	n/a	12	12	2	5	5
1431689	PROB	n/a	LTP355	ltpFR2	4	n/a	n/a	n/a	12	19	2	9	8
1434071	PROB	n/a	LTP355	ltpFR2	4	n/a	n/a	n/a	12	10	1	7	2
1435322	STOP	n/a	LTP355	ltpFR2	4	n/a	n/a	n/a	12	n/a	n/a	n/a	n/a
1436953	WORD	wordpools/wasnorm_wordpool_576.txt	LTP355	ltpFR2	4	8	DASHBOARD	441	n/a	n/a	0	0	0
1439769	WORD	wordpools/wasnorm_wordpool_576.txt	LTP355	ltpFR2	4	8	BARREL	91	n/a	n/a	0	0	0
1442267	WORD	wordpools/wasnorm_wordpool_576.txt	LTP355	ltpFR2	4	8	PISTON	1076	n/a	n/a	0	0	0
1444799	WORD	wordpools/wasnorm_wordpool_576.txt	LTP355	ltpFR2	4	8	WAGON	1578	n/a	n/a	0	0	0
1447247	WORD	wordpools/wasnorm_wordpool_576.txt	LTP355	ltpFR2	4	8	PATROL	1027	n/a	n/a	0	0	0
1449780	WORD	wordpools/wasnorm_wordpool_576.txt	LTP355	ltpFR2	4	8	MUMMY	932	n/a	n/a	0	0	0
1452462	WORD	wordpools/wasnorm_wordpool_576.txt	LTP355	ltpFR2	4	8	SWORD	1423	n/a	n/a	0	0	0
1455260	WORD	wordpools/wasnorm_wordpool_576.txt	LTP355	ltpFR2	4	8	KNIFE	785	n/a	n/a	0	0	0
1457842	WORD	wordpools/wasnorm_wordpool_576.txt	LTP355	ltpFR2	4	8	BELLY	119	n/a	n/a	0	0	0
1460474	WORD	wordpools/wasnorm_wordpool_576.txt	LTP355	ltpFR2	4	8	COOKBOOK	373	n/a	n/a	0	0	0
1463256	WORD	wordpools/wasnorm_wordpool_576.txt	LTP355	ltpFR2	4	8	PASTRY	1022	n/a	n/a	0	0	0
1465855	WORD	wordpools/wasnorm_wordpool_576.txt	LTP355	ltpFR2	4	8	MARROW	872	n/a	n/a	0	0	0
1468671	WORD	wordpools/wasnorm_wordpool_576.txt	LTP355	ltpFR2	4	8	SHERIFF	1284	n/a	n/a	0	0	0
1471152	WORD	wordpools/wasnorm_wordpool_576.txt	LTP355	ltpFR2	4	8	GHETTO	633	n/a	n/a	0	0	0
1473702	WORD	wordpools/wasnorm_wordpool_576.txt	LTP355	ltpFR2	4	8	PIMPLE	1071	n/a	n/a	0	0	0
1476383	WORD	wordpools/wasnorm_wordpool_576.txt	LTP355	ltpFR2	4	8	OZONE	996	n/a	n/a	0	0	0
1479098	WORD	wordpools/wasnorm_wordpool_576.txt	LTP355	ltpFR2	4	8	STAR	1373	n/a	n/a	0	0	0
1481648	WORD	wordpools/wasnorm_wordpool_576.txt	LTP355	ltpFR2	4	8	CITRUS	313	n/a	n/a	0	0	0
1484229	WORD	wordpools/wasnorm_wordpool_576.txt	LTP355	ltpFR2	4	8	FIREPLACE	570	n/a	n/a	0	0	0
1486779	WORD	wordpools/wasnorm_wordpool_576.txt	LTP355	ltpFR2	4	8	MILK	895	n/a	n/a	0	0	0
1489327	WORD	wordpools/wasnorm_wordpool_576.txt	LTP355	ltpFR2	4	8	GALLON	618	n/a	n/a	0	0	0
1491892	WORD	wordpools/wasnorm_wordpool_576.txt	LTP355	ltpFR2	4	8	JUDGE	761	n/a	n/a	0	0	0
1494625	WORD	wordpools/wasnorm_wordpool_576.txt	LTP355	ltpFR2	4	8	DANDRUFF	439	n/a	n/a	0	0	0
1497306	WORD	wordpools/wasnorm_wordpool_576.txt	LTP355	ltpFR2	4	8	TART	1436	n/a	n/a	0	0	0
1498922	START	n/a	LTP355	ltpFR2	4	n/a	n/a	n/a	13	n/a	n/a	n/a	n/a
1500034	DISTRACTOR	n/a	LTP355	ltpFR2	4	8	n/a	n/a	n/a	n/a	0	0	0
1500038	PROB	n/a	LTP355	ltpFR2	4	n/a	n/a	n/a	13	20	5	9	6
1501854	PROB	n/a	LTP355	ltpFR2	4	n/a	n/a	n/a	13	8	5	1	2
1503503	PROB	n/a	LTP355	ltpFR2	4	n/a	n/a	n/a	13	9	1	6	2
1505402	PROB	n/a	LTP355	ltpFR2	4	n/a	n/a	n/a	13	19	7	3	9
1506835	PROB	n/a	LTP355	ltpFR2	4	n/a	n/a	n/a	13	13	3	7	3
1508117	PROB	n/a	LTP355	ltpFR2	4	n/a	n/a	n/a	13	10	2	3	5
1509850	PROB	n/a	LTP355	ltpFR2	4	n/a	n/a	n/a	13	20	9	4	7
1512049	PROB	n/a	LTP355	ltpFR2	4	n/a	n/a	n/a	13	14	5	2	7
1513632	PROB	n/a	LTP355	ltpFR2	4	n/a	n/a	n/a	13	16	8	5	3
1514997	PROB	n/a	LTP355	ltpFR2	4	n/a	n/a	n/a	13	5	1	1	3
1516263	PROB	n/a	LTP355	ltpFR2	4	n/a	n/a	n/a	13	21	8	9	4
1518379	PROB	n/a	LTP355	ltpFR2	4	n/a	n/a	n/a	13	13	4	7	2
1520011	PROB	n/a	LTP355	ltpFR2	4	n/a	n/a	n/a	13	20	8	9	3
1522627	STOP	n/a	LTP355	ltpFR2	4	n/a	n/a	n/a	13	n/a	n/a	n/a	n/a
1524677	REC_START	n/a	LTP355	ltpFR2	4	8	n/a	n/a	n/a	n/a	0	0	0
1526579	REC_WORD	wordpools/wasnorm_wordpool_576.txt	LTP355	ltpFR2	4	8	DASHBOARD	441	n/a	n/a	0	0	0
1529314	REC_WORD	wordpools/wasnorm_wordpool_576.txt	LTP355	ltpFR2	4	8	KNIFE	785	n/a	n/a	0	0	0
1530824	REC_WORD	wordpools/wasnorm_wordpool_576.txt	LTP355	ltpFR2	4	8	SWORD	1423	n/a	n/a	0	0	0
1534332	REC_WORD	wordpools/wasnorm_wordpool_576.txt	LTP355	ltpFR2	4	8	GALLON	618	n/a	n/a	0	0	0
1535171	REC_WORD	wordpools/wasnorm_wordpool_576.txt	LTP355	ltpFR2	4	8	MILK	895	n/a	n/a	0	0	0
1536564	REC_WORD	wordpools/wasnorm_wordpool_576.txt	LTP355	ltpFR2	4	8	JUDGE	761	n/a	n/a	0	0	0
1537721	REC_WORD	wordpools/wasnorm_wordpool_576.txt	LTP355	ltpFR2	4	8	DANDRUFF	439	n/a	n/a	0	0	0
1548037	REC_WORD	wordpools/wasnorm_wordpool_576.txt	LTP355	ltpFR2	4	8	COOKBOOK	373	n/a	n/a	0	0	0
1548937	REC_WORD	wordpools/wasnorm_wordpool_576.txt	LTP355	ltpFR2	4	8	PASTRY	1022	n/a	n/a	0	0	0
1549944	REC_WORD	wordpools/wasnorm_wordpool_576.txt	LTP355	ltpFR2	4	8	TART	1436	n/a	n/a	0	0	0
1562457	REC_WORD	wordpools/wasnorm_wordpool_576.txt	LTP355	ltpFR2	4	8	PIMPLE	1071	n/a	n/a	0	0	0
1575384	REC_WORD	wordpools/wasnorm_wordpool_576.txt	LTP355	ltpFR2	4	8	FIREPLACE	570	n/a	n/a	0	0	0
1578852	REC_WORD	wordpools/wasnorm_wordpool_576.txt	LTP355	ltpFR2	4	8	MARROW	872	n/a	n/a	0	0	0
1601221	REST_REWET	n/a	LTP355	ltpFR2	4	8	n/a	n/a	n/a	n/a	0	0	0
1701722	DISTRACTOR	n/a	LTP355	ltpFR2	4	9	n/a	n/a	n/a	n/a	0	0	0
1701722	START	n/a	LTP355	ltpFR2	4	n/a	n/a	n/a	14	n/a	n/a	n/a	n/a
1701739	PROB	n/a	LTP355	ltpFR2	4	n/a	n/a	n/a	14	17	7	6	4
1703704	PROB	n/a	LTP355	ltpFR2	4	n/a	n/a	n/a	14	7	2	1	4
1705486	PROB	n/a	LTP355	ltpFR2	4	n/a	n/a	n/a	14	13	2	3	8
1707835	PROB	n/a	LTP355	ltpFR2	4	n/a	n/a	n/a	14	10	2	1	7
1709534	PROB	n/a	LTP355	ltpFR2	4	n/a	n/a	n/a	14	17	7	9	1
1710966	PROB	n/a	LTP355	ltpFR2	4	n/a	n/a	n/a	14	16	2	7	7
1712466	PROB	n/a	LTP355	ltpFR2	4	n/a	n/a	n/a	14	17	9	3	5
1716047	PROB	n/a	LTP355	ltpFR2	4	n/a	n/a	n/a	14	6	1	1	4
1717147	PROB	n/a	LTP355	ltpFR2	4	n/a	n/a	n/a	14	11	1	2	8
1719229	PROB	n/a	LTP355	ltpFR2	4	n/a	n/a	n/a	14	11	3	3	5
1721378	PROB	n/a	LTP355	ltpFR2	4	n/a	n/a	n/a	14	7	1	5	1
1722612	PROB	n/a	LTP355	ltpFR2	4	n/a	n/a	n/a	14	15	4	3	8
1725721	STOP	n/a	LTP355	ltpFR2	4	n/a	n/a	n/a	14	n/a	n/a	n/a	n/a
1726825	WORD	wordpools/wasnorm_wordpool_576.txt	LTP355	ltpFR2	4	9	COBRA	336	n/a	n/a	0	0	0
1729357	WORD	wordpools/wasnorm_wordpool_576.txt	LTP355	ltpFR2	4	9	CONTRACT	368	n/a	n/a	0	0	0
1732139	WORD	wordpools/wasnorm_wordpool_576.txt	LTP355	ltpFR2	4	9	TRACTOR	1493	n/a	n/a	0	0	0
1734706	WORD	wordpools/wasnorm_wordpool_576.txt	LTP355	ltpFR2	4	9	FIREMAN	569	n/a	n/a	0	0	0
1737520	WORD	wordpools/wasnorm_wordpool_576.txt	LTP355	ltpFR2	4	9	DENIM	446	n/a	n/a	0	0	0
1740219	WORD	wordpools/wasnorm_wordpool_576.txt	LTP355	ltpFR2	4	9	LAKE	796	n/a	n/a	0	0	0
1742884	WORD	wordpools/wasnorm_wordpool_576.txt	LTP355	ltpFR2	4	9	YOLK	1633	n/a	n/a	0	0	0
1745600	WORD	wordpools/wasnorm_wordpool_576.txt	LTP355	ltpFR2	4	9	MISTER	901	n/a	n/a	0	0	0
1748098	WORD	wordpools/wasnorm_wordpool_576.txt	LTP355	ltpFR2	4	9	WOMAN	1620	n/a	n/a	0	0	0
1750681	WORD	wordpools/wasnorm_wordpool_576.txt	LTP355	ltpFR2	4	9	CHILD	299	n/a	n/a	0	0	0
1753179	WORD	wordpools/wasnorm_wordpool_576.txt	LTP355	ltpFR2	4	9	PARENT	1013	n/a	n/a	0	0	0
1755712	WORD	wordpools/wasnorm_wordpool_576.txt	LTP355	ltpFR2	4	9	SLOPE	1328	n/a	n/a	0	0	0
1758210	WORD	wordpools/wasnorm_wordpool_576.txt	LTP355	ltpFR2	4	9	FARMER	553	n/a	n/a	0	0	0
1760925	WORD	wordpools/wasnorm_wordpool_576.txt	LTP355	ltpFR2	4	9	HUSBAND	728	n/a	n/a	0	0	0
1763691	WORD	wordpools/wasnorm_wordpool_576.txt	LTP355	ltpFR2	4	9	NEUTRON	947	n/a	n/a	0	0	0
1766139	WORD	wordpools/wasnorm_wordpool_576.txt	LTP355	ltpFR2	4	9	SALAD	1224	n/a	n/a	0	0	0
1768838	WORD	wordpools/wasnorm_wordpool_576.txt	LTP355	ltpFR2	4	9	HERO	706	n/a	n/a	0	0	0
1771503	WORD	wordpools/wasnorm_wordpool_576.txt	LTP355	ltpFR2	4	9	HAMPER	682	n/a	n/a	0	0	0
1773985	WORD	wordpools/wasnorm_wordpool_576.txt	LTP355	ltpFR2	4	9	PILOT	1070	n/a	n/a	0	0	0
1776785	WORD	wordpools/wasnorm_wordpool_576.txt	LTP355	ltpFR2	4	9	ROCKET	1202	n/a	n/a	0	0	0
1779316	WORD	wordpools/wasnorm_wordpool_576.txt	LTP355	ltpFR2	4	9	LOVER	846	n/a	n/a	0	0	0
1782131	WORD	wordpools/wasnorm_wordpool_576.txt	LTP355	ltpFR2	4	9	HIKER	708	n/a	n/a	0	0	0
1784648	WORD	wordpools/wasnorm_wordpool_576.txt	LTP355	ltpFR2	4	9	DRAGON	492	n/a	n/a	0	0	0
1787145	WORD	wordpools/wasnorm_wordpool_576.txt	LTP355	ltpFR2	4	9	POWDER	1117	n/a	n/a	0	0	0
1788762	START	n/a	LTP355	ltpFR2	4	n/a	n/a	n/a	15	n/a	n/a	n/a	n/a
1789796	DISTRACTOR	n/a	LTP355	ltpFR2	4	9	n/a	n/a	n/a	n/a	0	0	0
1789811	PROB	n/a	LTP355	ltpFR2	4	n/a	n/a	n/a	15	9	2	3	4
1792426	PROB	n/a	LTP355	ltpFR2	4	n/a	n/a	n/a	15	4	1	1	2
1793842	PROB	n/a	LTP355	ltpFR2	4	n/a	n/a	n/a	15	18	4	7	7
1796324	PROB	n/a	LTP355	ltpFR2	4	n/a	n/a	n/a	15	11	1	9	1
1797457	PROB	n/a	LTP355	ltpFR2	4	n/a	n/a	n/a	15	20	4	7	9
1799640	PROB	n/a	LTP355	ltpFR2	4	n/a	n/a	n/a	15	15	4	2	9
1802438	PROB	n/a	LTP355	ltpFR2	4	n/a	n/a	n/a	15	9	3	4	2
1804403	PROB	n/a	LTP355	ltpFR2	4	n/a	n/a	n/a	15	20	7	4	9
1805986	PROB	n/a	LTP355	ltpFR2	4	n/a	n/a	n/a	15	16	8	7	1
1807885	PROB	n/a	LTP355	ltpFR2	4	n/a	n/a	n/a	15	7	1	3	3
1809051	PROB	n/a	LTP355	ltpFR2	4	n/a	n/a	n/a	15	21	5	8	8
1810917	PROB	n/a	LTP355	ltpFR2	4	n/a	n/a	n/a	15	20	5	6	9
1812699	STOP	n/a	LTP355	ltpFR2	4	n/a	n/a	n/a	15	n/a	n/a	n/a	n/a
1814683	REC_START	n/a	LTP355	ltpFR2	4	9	n/a	n/a	n/a	n/a	0	0	0
1815713	REC_WORD	wordpools/wasnorm_wordpool_576.txt	LTP355	ltpFR2	4	9	TRACTOR	1493	n/a	n/a	0	0	0
1816524	REC_WORD	wordpools/wasnorm_wordpool_576.txt	LTP355	ltpFR2	4	9	FARMER	553	n/a	n/a	0	0	0
1818410	REC_WORD	wordpools/wasnorm_wordpool_576.txt	LTP355	ltpFR2	4	9	HUSBAND	728	n/a	n/a	0	0	0
1821354	REC_WORD	wordpools/wasnorm_wordpool_576.txt	LTP355	ltpFR2	4	9	PARENT	1013	n/a	n/a	0	0	0
1822637	REC_WORD	wordpools/wasnorm_wordpool_576.txt	LTP355	ltpFR2	4	9	MOTHER	921	n/a	n/a	0	0	0
1825289	REC_WORD	wordpools/wasnorm_wordpool_576.txt	LTP355	ltpFR2	4	9	CHILD	299	n/a	n/a	0	0	0
1832386	REC_WORD	wordpools/wasnorm_wordpool_576.txt	LTP355	ltpFR2	4	9	MISTER	901	n/a	n/a	0	0	0
1838645	REC_WORD	wordpools/wasnorm_wordpool_576.txt	LTP355	ltpFR2	4	9	WOMAN	1620	n/a	n/a	0	0	0
1842533	REC_WORD	wordpools/wasnorm_wordpool_576.txt	LTP355	ltpFR2	4	9	TRACTOR	1493	n/a	n/a	0	0	0
1843645	REC_WORD	wordpools/wasnorm_wordpool_576.txt	LTP355	ltpFR2	4	9	COBRA	336	n/a	n/a	0	0	0
1844920	REC_WORD	wordpools/wasnorm_wordpool_576.txt	LTP355	ltpFR2	4	9	CONTRACT	368	n/a	n/a	0	0	0
1846445	REC_WORD	wordpools/wasnorm_wordpool_576.txt	LTP355	ltpFR2	4	9	FIREMAN	569	n/a	n/a	0	0	0
1852822	REC_WORD	wordpools/wasnorm_wordpool_576.txt	LTP355	ltpFR2	4	9	DRAGON	492	n/a	n/a	0	0	0
1853649	REC_WORD	wordpools/wasnorm_wordpool_576.txt	LTP355	ltpFR2	4	9	HIKER	708	n/a	n/a	0	0	0
1854783	REC_WORD	wordpools/wasnorm_wordpool_576.txt	LTP355	ltpFR2	4	9	LOVER	846	n/a	n/a	0	0	0
1862372	REC_WORD	wordpools/wasnorm_wordpool_576.txt	LTP355	ltpFR2	4	9	HERO	706	n/a	n/a	0	0	0
1863476	REC_WORD	wordpools/wasnorm_wordpool_576.txt	LTP355	ltpFR2	4	9	SALAD	1224	n/a	n/a	0	0	0
1865376	REC_WORD	wordpools/wasnorm_wordpool_576.txt	LTP355	ltpFR2	4	9	SLOPE	1328	n/a	n/a	0	0	0
1868792	REC_WORD	wordpools/wasnorm_wordpool_576.txt	LTP355	ltpFR2	4	9	LAKE	796	n/a	n/a	0	0	0
1871938	REC_WORD	wordpools/wasnorm_wordpool_576.txt	LTP355	ltpFR2	4	9	PILOT	1070	n/a	n/a	0	0	0
1905137	WORD	wordpools/wasnorm_wordpool_576.txt	LTP355	ltpFR2	4	10	CONCERT	360	n/a	n/a	0	0	0
1907620	WORD	wordpools/wasnorm_wordpool_576.txt	LTP355	ltpFR2	4	10	SHORTS	1293	n/a	n/a	0	0	0
1910251	WORD	wordpools/wasnorm_wordpool_576.txt	LTP355	ltpFR2	4	10	DRESS	495	n/a	n/a	0	0	0
1913066	WORD	wordpools/wasnorm_wordpool_576.txt	LTP355	ltpFR2	4	10	PENGUIN	1044	n/a	n/a	0	0	0
1915782	WORD	wordpools/wasnorm_wordpool_576.txt	LTP355	ltpFR2	4	10	EAGLE	512	n/a	n/a	0	0	0
1918564	WORD	wordpools/wasnorm_wordpool_576.txt	LTP355	ltpFR2	4	10	FILM	565	n/a	n/a	0	0	0
1921045	WORD	wordpools/wasnorm_wordpool_576.txt	LTP355	ltpFR2	4	10	CANYON	235	n/a	n/a	0	0	0
1923629	WORD	wordpools/wasnorm_wordpool_576.txt	LTP355	ltpFR2	4	10	PAPER	1011	n/a	n/a	0	0	0
1926393	WORD	wordpools/wasnorm_wordpool_576.txt	LTP355	ltpFR2	4	10	RIVER	1194	n/a	n/a	0	0	0
1928858	WORD	wordpools/wasnorm_wordpool_576.txt	LTP355	ltpFR2	4	10	COUSIN	392	n/a	n/a	0	0	0
1931541	WORD	wordpools/wasnorm_wordpool_576.txt	LTP355	ltpFR2	4	10	PERCH	1048	n/a	n/a	0	0	0
1933989	WORD	wordpools/wasnorm_wordpool_576.txt	LTP355	ltpFR2	4	10	FRIEND	606	n/a	n/a	0	0	0
1936521	WORD	wordpools/wasnorm_wordpool_576.txt	LTP355	ltpFR2	4	10	SNACK	1331	n/a	n/a	0	0	0
1939037	WORD	wordpools/wasnorm_wordpool_576.txt	LTP355	ltpFR2	4	10	CANDY	230	n/a	n/a	0	0	0
1941802	WORD	wordpools/wasnorm_wordpool_576.txt	LTP355	ltpFR2	4	10	PERMIT	1051	n/a	n/a	0	0	0
1944618	WORD	wordpools/wasnorm_wordpool_576.txt	LTP355	ltpFR2	4	10	CANAL	226	n/a	n/a	0	0	0
1947083	WORD	wordpools/wasnorm_wordpool_576.txt	LTP355	ltpFR2	4	10	BALLOON	75	n/a	n/a	0	0	0
1949699	WORD	wordpools/wasnorm_wordpool_576.txt	LTP355	ltpFR2	4	10	PLAYGROUND	1087	n/a	n/a	0	0	0
1952313	WORD	wordpools/wasnorm_wordpool_576.txt	LTP355	ltpFR2	4	10	TEMPLE	1448	n/a	n/a	0	0	0
1954929	WORD	wordpools/wasnorm_wordpool_576.txt	LTP355	ltpFR2	4	10	ROBBER	1197	n/a	n/a	0	0	0
1957411	WORD	wordpools/wasnorm_wordpool_576.txt	LTP355	ltpFR2	4	10	MESSAGE	888	n/a	n/a	0	0	0
1959876	WORD	wordpools/wasnorm_wordpool_576.txt	LTP355	ltpFR2	4	10	NAPKIN	937	n/a	n/a	0	0	0
1962676	WORD	wordpools/wasnorm_wordpool_576.txt	LTP355	ltpFR2	4	10	SISTER	1312	n/a	n/a	0	0	0
1965490	WORD	wordpools/wasnorm_wordpool_576.txt	LTP355	ltpFR2	4	10	SODA	1341	n/a	n/a	0	0	0
1967106	START	n/a	LTP355	ltpFR2	4	n/a	n/a	n/a	16	n/a	n/a	n/a	n/a
1968191	DISTRACTOR	n/a	LTP355	ltpFR2	4	10	n/a	n/a	n/a	n/a	0	0	0
1968205	PROB	n/a	LTP355	ltpFR2	4	n/a	n/a	n/a	16	18	5	8	5
1970121	PROB	n/a	LTP355	ltpFR2	4	n/a	n/a	n/a	16	16	7	6	3
1972604	PROB	n/a	LTP355	ltpFR2	4	n/a	n/a	n/a	16	13	8	2	3
1976868	PROB	n/a	LTP355	ltpFR2	4	n/a	n/a	n/a	16	16	1	8	7
1979067	PROB	n/a	LTP355	ltpFR2	4	n/a	n/a	n/a	16	11	1	2	8
1980249	PROB	n/a	LTP355	ltpFR2	4	n/a	n/a	n/a	16	10	4	4	2
1982098	PROB	n/a	LTP355	ltpFR2	4	n/a	n/a	n/a	16	6	1	1	4
1983632	PROB	n/a	LTP355	ltpFR2	4	n/a	n/a	n/a	16	18	5	6	7
1985447	PROB	n/a	LTP355	ltpFR2	4	n/a	n/a	n/a	16	17	6	4	7
1986730	PROB	n/a	LTP355	ltpFR2	4	n/a	n/a	n/a	16	5	1	2	2
1987663	PROB	n/a	LTP355	ltpFR2	4	n/a	n/a	n/a	16	14	7	1	6
1989028	PROB	n/a	LTP355	ltpFR2	4	n/a	n/a	n/a	16	15	2	5	8
1990482	STOP	n/a	LTP355	ltpFR2	4	n/a	n/a	n/a	16	n/a	n/a	n/a	n/a
1992927	REC_START	n/a	LTP355	ltpFR2	4	10	n/a	n/a	n/a	n/a	0	0	0
1993538	REC_WORD	wordpools/wasnorm_wordpool_576.txt	LTP355	ltpFR2	4	10	TEMPLE	1448	n/a	n/a	0	0	0
1994253	REC_WORD	wordpools/wasnorm_wordpool_576.txt	LTP355	ltpFR2	4	10	SISTER	1312	n/a	n/a	0	0	0
1996077	REC_WORD	wordpools/wasnorm_wordpool_576.txt	LTP355	ltpFR2	4	10	MESSAGE	888	n/a	n/a	0	0	0
1997034	REC_WORD	wordpools/wasnorm_wordpool_576.txt	LTP355	ltpFR2	4	10	NAPKIN	937	n/a	n/a	0	0	0
2000337	REC_WORD	wordpools/wasnorm_wordpool_576.txt	LTP355	ltpFR2	4	10	CONCERT	360	n/a	n/a	0	0	0
2002070	REC_WORD	wordpools/wasnorm_wordpool_576.txt	LTP355	ltpFR2	4	10	FRIEND	606	n/a	n/a	0	0	0
2002977	REC_WORD	wordpools/wasnorm_wordpool_576.txt	LTP355	ltpFR2	4	10	COUSIN	392	n/a	n/a	0	0	0
2003858	REC_WORD	wordpools/wasnorm_wordpool_576.txt	LTP355	ltpFR2	4	10	DRESS	495	n/a	n/a	0	0	0
2004674	REC_WORD	wordpools/wasnorm_wordpool_576.txt	LTP355	ltpFR2	4	10	SHORTS	1293	n/a	n/a	0	0	0
2007851	REC_WORD	wordpools/wasnorm_wordpool_576.txt	LTP355	ltpFR2	4	10	PERCH	1048	n/a	n/a	0	0	0
2008650	REC_WORD	wordpools/wasnorm_wordpool_576.txt	LTP355	ltpFR2	4	10	SNACK	1331	n/a	n/a	0	0	0
2009756	REC_WORD	wordpools/wasnorm_wordpool_576.txt	LTP355	ltpFR2	4	10	CANDY	230	n/a	n/a	0	0	0
2012174	REC_WORD	wordpools/wasnorm_wordpool_576.txt	LTP355	ltpFR2	4	10	RIVER	1194	n/a	n/a	0	0	0
2013015	REC_WORD	wordpools/wasnorm_wordpool_576.txt	LTP355	ltpFR2	4	10	PAPER	1011	n/a	n/a	0	0	0
2013958	REC_WORD	wordpools/wasnorm_wordpool_576.txt	LTP355	ltpFR2	4	10	CANAL	226	n/a	n/a	0	0	0
2015075	REC_WORD	wordpools/wasnorm_wordpool_576.txt	LTP355	ltpFR2	4	10	CANYON	235	n/a	n/a	0	0	0
2029909	REC_WORD	wordpools/wasnorm_wordpool_576.txt	LTP355	ltpFR2	4	10	ROBBER	1197	n/a	n/a	0	0	0
2041424	REC_WORD	wordpools/wasnorm_wordpool_576.txt	LTP355	ltpFR2	4	10	SODA	1341	n/a	n/a	0	0	0
2057266	REC_WORD	wordpools/wasnorm_wordpool_576.txt	LTP355	ltpFR2	4	10	BALLOON	75	n/a	n/a	0	0	0
2058134	REC_WORD	wordpools/wasnorm_wordpool_576.txt	LTP355	ltpFR2	4	10	PLAYGROUND	1087	n/a	n/a	0	0	0
2083382	WORD	wordpools/wasnorm_wordpool_576.txt	LTP355	ltpFR2	4	11	OUTFIT	988	n/a	n/a	0	0	0
2085964	WORD	wordpools/wasnorm_wordpool_576.txt	LTP355	ltpFR2	4	11	NURSE	963	n/a	n/a	0	0	0
2088580	WORD	wordpools/wasnorm_wordpool_576.txt	LTP355	ltpFR2	4	11	WHISKERS	1605	n/a	n/a	0	0	0
2091128	WORD	wordpools/wasnorm_wordpool_576.txt	LTP355	ltpFR2	4	11	COUNTRY	388	n/a	n/a	0	0	0
2093893	WORD	wordpools/wasnorm_wordpool_576.txt	LTP355	ltpFR2	4	11	HAWK	692	n/a	n/a	0	0	0
2096609	WORD	wordpools/wasnorm_wordpool_576.txt	LTP355	ltpFR2	4	11	PEANUT	1032	n/a	n/a	0	0	0
2099090	WORD	wordpools/wasnorm_wordpool_576.txt	LTP355	ltpFR2	4	11	PERFUME	1049	n/a	n/a	0	0	0
2101673	WORD	wordpools/wasnorm_wordpool_576.txt	LTP355	ltpFR2	4	11	FRAGRANCE	599	n/a	n/a	0	0	0
2104354	WORD	wordpools/wasnorm_wordpool_576.txt	LTP355	ltpFR2	4	11	BUNNY	198	n/a	n/a	0	0	0
2107053	WORD	wordpools/wasnorm_wordpool_576.txt	LTP355	ltpFR2	4	11	BOYFRIEND	162	n/a	n/a	0	0	0
2109818	WORD	wordpools/wasnorm_wordpool_576.txt	LTP355	ltpFR2	4	11	OUTLAW	989	n/a	n/a	0	0	0
2112284	WORD	wordpools/wasnorm_wordpool_576.txt	LTP355	ltpFR2	4	11	LIGHTNING	820	n/a	n/a	0	0	0
2114983	WORD	wordpools/wasnorm_wordpool_576.txt	LTP355	ltpFR2	4	11	GLOBE	641	n/a	n/a	0	0	0
2117665	WORD	wordpools/wasnorm_wordpool_576.txt	LTP355	ltpFR2	4	11	DONKEY	484	n/a	n/a	0	0	0
2120413	WORD	wordpools/wasnorm_wordpool_576.txt	LTP355	ltpFR2	4	11	STALLION	1369	n/a	n/a	0	0	0
2123128	WORD	wordpools/wasnorm_wordpool_576.txt	LTP355	ltpFR2	4	11	GRIZZLY	662	n/a	n/a	0	0	0
2125628	WORD	wordpools/wasnorm_wordpool_576.txt	LTP355	ltpFR2	4	11	INMATE	738	n/a	n/a	0	0	0
2128326	WORD	wordpools/wasnorm_wordpool_576.txt	LTP355	ltpFR2	4	11	CLOUD	328	n/a	n/a	0	0	0
2131074	WORD	wordpools/wasnorm_wordpool_576.txt	LTP355	ltpFR2	4	11	PATIENT	1024	n/a	n/a	0	0	0
2133724	WORD	wordpools/wasnorm_wordpool_576.txt	LTP355	ltpFR2	4	11	VELVET	1555	n/a	n/a	0	0	0
2136522	WORD	wordpools/wasnorm_wordpool_576.txt	LTP355	ltpFR2	4	11	BEAKER	104	n/a	n/a	0	0	0
2139121	WORD	wordpools/wasnorm_wordpool_576.txt	LTP355	ltpFR2	4	11	FIDDLE	561	n/a	n/a	0	0	0
2141869	WORD	wordpools/wasnorm_wordpool_576.txt	LTP355	ltpFR2	4	11	GRAVEL	659	n/a	n/a	0	0	0
2144385	WORD	wordpools/wasnorm_wordpool_576.txt	LTP355	ltpFR2	4	11	TRENCH	1503	n/a	n/a	0	0	0
2146001	START	n/a	LTP355	ltpFR2	4	n/a	n/a	n/a	17	n/a	n/a	n/a	n/a
2147153	DISTRACTOR	n/a	LTP355	ltpFR2	4	11	n/a	n/a	n/a	n/a	0	0	0
2147167	PROB	n/a	LTP355	ltpFR2	4	n/a	n/a	n/a	17	17	4	7	6
2149016	PROB	n/a	LTP355	ltpFR2	4	n/a	n/a	n/a	17	16	3	8	5
2151699	PROB	n/a	LTP355	ltpFR2	4	n/a	n/a	n/a	17	19	9	1	9
2153197	PROB	n/a	LTP355	ltpFR2	4	n/a	n/a	n/a	17	9	4	4	1
2154530	PROB	n/a	LTP355	ltpFR2	4	n/a	n/a	n/a	17	17	6	7	4
2156828	PROB	n/a	LTP355	ltpFR2	4	n/a	n/a	n/a	17	15	7	2	6
2159094	PROB	n/a	LTP355	ltpFR2	4	n/a	n/a	n/a	17	9	3	4	2
2162076	PROB	n/a	LTP355	ltpFR2	4	n/a	n/a	n/a	17	14	7	1	6
2163925	PROB	n/a	LTP355	ltpFR2	4	n/a	n/a	n/a	17	16	7	3	6
2165274	PROB	n/a	LTP355	ltpFR2	4	n/a	n/a	n/a	17	17	5	9	3
2167541	PROB	n/a	LTP355	ltpFR2	4	n/a	n/a	n/a	17	16	5	2	9
2168866	STOP	n/a	LTP355	ltpFR2	4	n/a	n/a	n/a	17	n/a	n/a	n/a	n/a
2171922	REC_START	n/a	LTP355	ltpFR2	4	11	n/a	n/a	n/a	n/a	0	0	0
2174537	REC_WORD	wordpools/wasnorm_wordpool_576.txt	LTP355	ltpFR2	4	11	BUNNY	198	n/a	n/a	0	0	0
2182224	REC_WORD	wordpools/wasnorm_wordpool_576.txt	LTP355	ltpFR2	4	11	GLOBE	641	n/a	n/a	0	0	0
2183109	REC_WORD	wordpools/wasnorm_wordpool_576.txt	LTP355	ltpFR2	4	11	CLOUD	328	n/a	n/a	0	0	0
2184277	REC_WORD	wordpools/wasnorm_wordpool_576.txt	LTP355	ltpFR2	4	11	PATIENT	1024	n/a	n/a	0	0	0
2185318	REC_WORD	wordpools/wasnorm_wordpool_576.txt	LTP355	ltpFR2	4	11	BEAKER	104	n/a	n/a	0	0	0
2204380	REC_WORD	wordpools/wasnorm_wordpool_576.txt	LTP355	ltpFR2	4	11	VELVET	1555	n/a	n/a	0	0	0
2262376	DISTRACTOR	n/a	LTP355	ltpFR2	4	12	n/a	n/a	n/a	n/a	0	0	0
2262376	START	n/a	LTP355	ltpFR2	4	n/a	n/a	n/a	18	n/a	n/a	n/a	n/a
2262393	PROB	n/a	LTP355	ltpFR2	4	n/a	n/a	n/a	18	6	2	2	2
2264142	PROB	n/a	LTP355	ltpFR2	4	n/a	n/a	n/a	18	18	3	8	7
2266024	PROB	n/a	LTP355	ltpFR2	4	n/a	n/a	n/a	18	16	8	2	6
2268240	PROB	n/a	LTP355	ltpFR2	4	n/a	n/a	n/a	18	17	4	9	4
2273137	PROB	n/a	LTP355	ltpFR2	4	n/a	n/a	n/a	18	21	7	7	7
2275637	PROB	n/a	LTP355	ltpFR2	4	n/a	n/a	n/a	18	12	1	5	6
2277019	PROB	n/a	LTP355	ltpFR2	4	n/a	n/a	n/a	18	19	5	5	9
2278451	PROB	n/a	LTP355	ltpFR2	4	n/a	n/a	n/a	18	10	5	2	3
2280234	PROB	n/a	LTP355	ltpFR2	4	n/a	n/a	n/a	18	8	3	1	4
2281584	PROB	n/a	LTP355	ltpFR2	4	n/a	n/a	n/a	18	15	6	7	2
2283316	PROB	n/a	LTP355	ltpFR2	4	n/a	n/a	n/a	18	7	2	4	1
2285530	STOP	n/a	LTP355	ltpFR2	4	n/a	n/a	n/a	18	n/a	n/a	n/a	n/a
2287197	WORD	wordpools/wasnorm_wordpool_576.txt	LTP355	ltpFR2	4	12	OFFICE	972	n/a	n/a	0	0	0
2289879	WORD	wordpools/wasnorm_wordpool_576.txt	LTP355	ltpFR2	4	12	ITEM	746	n/a	n/a	0	0	0
2292679	WORD	wordpools/wasnorm_wordpool_576.txt	LTP355	ltpFR2	4	12	DRILL	497	n/a	n/a	0	0	0
2295210	WORD	wordpools/wasnorm_wordpool_576.txt	LTP355	ltpFR2	4	12	TWIG	1527	n/a	n/a	0	0	0
2297925	WORD	wordpools/wasnorm_wordpool_576.txt	LTP355	ltpFR2	4	12	LADDER	793	n/a	n/a	0	0	0
2300558	WORD	wordpools/wasnorm_wordpool_576.txt	LTP355	ltpFR2	4	12	PLAZA	1088	n/a	n/a	0	0	0
2303272	WORD	wordpools/wasnorm_wordpool_576.txt	LTP355	ltpFR2	4	12	CIGAR	308	n/a	n/a	0	0	0
2306004	WORD	wordpools/wasnorm_wordpool_576.txt	LTP355	ltpFR2	4	12	ATOM	55	n/a	n/a	0	0	0
2308621	WORD	wordpools/wasnorm_wordpool_576.txt	LTP355	ltpFR2	4	12	SHELTER	1282	n/a	n/a	0	0	0
2311385	WORD	wordpools/wasnorm_wordpool_576.txt	LTP355	ltpFR2	4	12	BLUEPRINT	142	n/a	n/a	0	0	0
2314000	WORD	wordpools/wasnorm_wordpool_576.txt	LTP355	ltpFR2	4	12	SMOG	1330	n/a	n/a	0	0	0
2316700	WORD	wordpools/wasnorm_wordpool_576.txt	LTP355	ltpFR2	4	12	CARROT	249	n/a	n/a	0	0	0
2319281	WORD	wordpools/wasnorm_wordpool_576.txt	LTP355	ltpFR2	4	12	MARKET	871	n/a	n/a	0	0	0
2321731	WORD	wordpools/wasnorm_wordpool_576.txt	LTP355	ltpFR2	4	12	KEEPER	769	n/a	n/a	0	0	0
2324528	WORD	wordpools/wasnorm_wordpool_576.txt	LTP355	ltpFR2	4	12	GUARD	667	n/a	n/a	0	0	0
2326994	WORD	wordpools/wasnorm_wordpool_576.txt	LTP355	ltpFR2	4	12	LILY	821	n/a	n/a	0	0	0
2329826	WORD	wordpools/wasnorm_wordpool_576.txt	LTP355	ltpFR2	4	12	MAILBOX	857	n/a	n/a	0	0	0
2332408	WORD	wordpools/wasnorm_wordpool_576.txt	LTP355	ltpFR2	4	12	QUARTER	1148	n/a	n/a	0	0	0
2335140	WORD	wordpools/wasnorm_wordpool_576.txt	LTP355	ltpFR2	4	12	GROUND	666	n/a	n/a	0	0	0
2337822	WORD	wordpools/wasnorm_wordpool_576.txt	LTP355	ltpFR2	4	12	STOVE	1388	n/a	n/a	0	0	0
2340538	WORD	wordpools/wasnorm_wordpool_576.txt	LTP355	ltpFR2	4	12	KITCHEN	778	n/a	n/a	0	0	0
2343103	WORD	wordpools/wasnorm_wordpool_576.txt	LTP355	ltpFR2	4	12	REBEL	1172	n/a	n/a	0	0	0
2345652	WORD	wordpools/wasnorm_wordpool_576.txt	LTP355	ltpFR2	4	12	BROOK	177	n/a	n/a	0	0	0
2348400	WORD	wordpools/wasnorm_wordpool_576.txt	LTP355	ltpFR2	4	12	BRIEFCASE	175	n/a	n/a	0	0	0
2350016	START	n/a	LTP355	ltpFR2	4	n/a	n/a	n/a	19	n/a	n/a	n/a	n/a
2351053	DISTRACTOR	n/a	LTP355	ltpFR2	4	12	n/a	n/a	n/a	n/a	0	0	0
2351065	PROB	n/a	LTP355	ltpFR2	4	n/a	n/a	n/a	19	10	2	6	2
2353514	PROB	n/a	LTP355	ltpFR2	4	n/a	n/a	n/a	19	16	7	5	4
2355664	PROB	n/a	LTP355	ltpFR2	4	n/a	n/a	n/a	19	16	3	4	9
2358095	PROB	n/a	LTP355	ltpFR2	4	n/a	n/a	n/a	19	12	3	8	1
2360061	PROB	n/a	LTP355	ltpFR2	4	n/a	n/a	n/a	19	17	2	9	6
2362627	PROB	n/a	LTP355	ltpFR2	4	n/a	n/a	n/a	19	17	1	8	8
2364159	PROB	n/a	LTP355	ltpFR2	4	n/a	n/a	n/a	19	22	5	8	9
2366791	PROB	n/a	LTP355	ltpFR2	4	n/a	n/a	n/a	19	15	6	2	7
2368541	PROB	n/a	LTP355	ltpFR2	4	n/a	n/a	n/a	19	19	8	9	2
2370472	PROB	n/a	LTP355	ltpFR2	4	n/a	n/a	n/a	19	14	2	7	5
2374016	STOP	n/a	LTP355	ltpFR2	4	n/a	n/a	n/a	19	n/a	n/a	n/a	n/a
2375870	REC_START	n/a	LTP355	ltpFR2	4	12	n/a	n/a	n/a	n/a	0	0	0
2377010	REC_WORD	wordpools/wasnorm_wordpool_576.txt	LTP355	ltpFR2	4	12	OFFICE	972	n/a	n/a	0	0	0
2379716	REC_WORD	wordpools/wasnorm_wordpool_576.txt	LTP355	ltpFR2	4	12	LADDER	793	n/a	n/a	0	0	0
2380808	REC_WORD	wordpools/wasnorm_wordpool_576.txt	LTP355	ltpFR2	4	12	DRILL	497	n/a	n/a	0	0	0
2382503	REC_WORD	wordpools/wasnorm_wordpool_576.txt	LTP355	ltpFR2	4	12	ITEM	746	n/a	n/a	0	0	0
2385444	REC_WORD	wordpools/wasnorm_wordpool_576.txt	LTP355	ltpFR2	4	12	ATOM	55	n/a	n/a	0	0	0
2386815	REC_WORD	wordpools/wasnorm_wordpool_576.txt	LTP355	ltpFR2	4	12	BLUEPRINT	142	n/a	n/a	0	0	0
2387754	REC_WORD	wordpools/wasnorm_wordpool_576.txt	LTP355	ltpFR2	4	12	SMOG	1330	n/a	n/a	0	0	0
2388869	REC_WORD	wordpools/wasnorm_wordpool_576.txt	LTP355	ltpFR2	4	12	CARROT	249	n/a	n/a	0	0	0
2392327	REC_WORD	wordpools/wasnorm_wordpool_576.txt	LTP355	ltpFR2	4	12	GUARD	667	n/a	n/a	0	0	0
2393215	REC_WORD	wordpools/wasnorm_wordpool_576.txt	LTP355	ltpFR2	4	12	LILY	821	n/a	n/a	0	0	0
2394264	REC_WORD	wordpools/wasnorm_wordpool_576.txt	LTP355	ltpFR2	4	12	BROOK	177	n/a	n/a	0	0	0
2399565	REC_WORD	wordpools/wasnorm_wordpool_576.txt	LTP355	ltpFR2	4	12	MAILBOX	857	n/a	n/a	0	0	0
2466325	WORD	wordpools/wasnorm_wordpool_576.txt	LTP355	ltpFR2	4	13	BUREAU	199	n/a	n/a	0	0	0
2468774	WORD	wordpools/wasnorm_wordpool_576.txt	LTP355	ltpFR2	4	13	WARDROBE	1587	n/a	n/a	0	0	0
2471406	WORD	wordpools/wasnorm_wordpool_576.txt	LTP355	ltpFR2	4	13	BANKER	84	n/a	n/a	0	0	0
2474154	WORD	wordpools/wasnorm_wordpool_576.txt	LTP355	ltpFR2	4	13	GIFT	635	n/a	n/a	0	0	0
2476770	WORD	wordpools/wasnorm_wordpool_576.txt	LTP355	ltpFR2	4	13	BABY	64	n/a	n/a	0	0	0
2479586	WORD	wordpools/wasnorm_wordpool_576.txt	LTP355	ltpFR2	4	13	HONEY	713	n/a	n/a	0	0	0
2482367	WORD	wordpools/wasnorm_wordpool_576.txt	LTP355	ltpFR2	4	13	COUNTY	389	n/a	n/a	0	0	0
2484999	WORD	wordpools/wasnorm_wordpool_576.txt	LTP355	ltpFR2	4	13	BUGGY	188	n/a	n/a	0	0	0
2487497	WORD	wordpools/wasnorm_wordpool_576.txt	LTP355	ltpFR2	4	13	CARRIAGE	248	n/a	n/a	0	0	0
2490263	WORD	wordpools/wasnorm_wordpool_576.txt	LTP355	ltpFR2	4	13	CREVICE	405	n/a	n/a	0	0	0
2493011	WORD	wordpools/wasnorm_wordpool_576.txt	LTP355	ltpFR2	4	13	ICING	732	n/a	n/a	0	0	0
2495728	WORD	wordpools/wasnorm_wordpool_576.txt	LTP355	ltpFR2	4	13	MARSH	874	n/a	n/a	0	0	0
2498192	WORD	wordpools/wasnorm_wordpool_576.txt	LTP355	ltpFR2	4	13	MAPLE	866	n/a	n/a	0	0	0
2500791	WORD	wordpools/wasnorm_wordpool_576.txt	LTP355	ltpFR2	4	13	CRATER	400	n/a	n/a	0	0	0
2503323	WORD	wordpools/wasnorm_wordpool_576.txt	LTP355	ltpFR2	4	13	TURNIP	1521	n/a	n/a	0	0	0
2506105	WORD	wordpools/wasnorm_wordpool_576.txt	LTP355	ltpFR2	4	13	TUBA	1515	n/a	n/a	0	0	0
2508820	WORD	wordpools/wasnorm_wordpool_576.txt	LTP355	ltpFR2	4	13	BANK	83	n/a	n/a	0	0	0
2511402	WORD	wordpools/wasnorm_wordpool_576.txt	LTP355	ltpFR2	4	13	FREEZER	604	n/a	n/a	0	0	0
2513884	WORD	wordpools/wasnorm_wordpool_576.txt	LTP355	ltpFR2	4	13	VIRUS	1572	n/a	n/a	0	0	0
2516383	WORD	wordpools/wasnorm_wordpool_576.txt	LTP355	ltpFR2	4	13	LIZARD	834	n/a	n/a	0	0	0
2519048	WORD	wordpools/wasnorm_wordpool_576.txt	LTP355	ltpFR2	4	13	ONION	977	n/a	n/a	0	0	0
2521864	WORD	wordpools/wasnorm_wordpool_576.txt	LTP355	ltpFR2	4	13	SUBWAY	1400	n/a	n/a	0	0	0
2524313	WORD	wordpools/wasnorm_wordpool_576.txt	LTP355	ltpFR2	4	13	DANCER	437	n/a	n/a	0	0	0
2526895	WORD	wordpools/wasnorm_wordpool_576.txt	LTP355	ltpFR2	4	13	POSTAGE	1113	n/a	n/a	0	0	0
2528511	START	n/a	LTP355	ltpFR2	4	n/a	n/a	n/a	20	n/a	n/a	n/a	n/a
2529426	DISTRACTOR	n/a	LTP355	ltpFR2	4	13	n/a	n/a	n/a	n/a	0	0	0
2529443	PROB	n/a	LTP355	ltpFR2	4	n/a	n/a	n/a	20	20	2	9	9
2531309	PROB	n/a	LTP355	ltpFR2	4	n/a	n/a	n/a	20	17	1	7	9
2533241	PROB	n/a	LTP355	ltpFR2	4	n/a	n/a	n/a	20	11	8	1	2
2534974	PROB	n/a	LTP355	ltpFR2	4	n/a	n/a	n/a	20	12	2	4	6
2536257	PROB	n/a	LTP355	ltpFR2	4	n/a	n/a	n/a	20	9	1	2	4
2537789	PROB	n/a	LTP355	ltpFR2	4	n/a	n/a	n/a	20	14	3	6	5
2540238	PROB	n/a	LTP355	ltpFR2	4	n/a	n/a	n/a	20	23	8	7	8
2542803	PROB	n/a	LTP355	ltpFR2	4	n/a	n/a	n/a	20	18	8	3	7
2544203	PROB	n/a	LTP355	ltpFR2	4	n/a	n/a	n/a	20	22	9	6	7
2547118	PROB	n/a	LTP355	ltpFR2	4	n/a	n/a	n/a	20	11	2	4	5
2551034	STOP	n/a	LTP355	ltpFR2	4	n/a	n/a	n/a	20	n/a	n/a	n/a	n/a
2554348	REC_START	n/a	LTP355	ltpFR2	4	13	n/a	n/a	n/a	n/a	0	0	0
2555802	REC_WORD	wordpools/wasnorm_wordpool_576.txt	LTP355	ltpFR2	4	13	BANKER	84	n/a	n/a	0	0	0
2556679	REC_WORD	wordpools/wasnorm_wordpool_576.txt	LTP355	ltpFR2	4	13	BANK	83	n/a	n/a	0	0	0
2557767	REC_WORD	wordpools/wasnorm_wordpool_576.txt	LTP355	ltpFR2	4	13	WARDROBE	1587	n/a	n/a	0	0	0
2562842	REC_WORD	wordpools/wasnorm_wordpool_576.txt	LTP355	ltpFR2	4	13	BUREAU	199	n/a	n/a	0	0	0
2564974	REC_WORD	wordpools/wasnorm_wordpool_576.txt	LTP355	ltpFR2	4	13	BABY	64	n/a	n/a	0	0	0
2567176	REC_WORD	wordpools/wasnorm_wordpool_576.txt	LTP355	ltpFR2	4	13	HONEY	713	n/a	n/a	0	0	0
2568407	REC_WORD	wordpools/wasnorm_wordpool_576.txt	LTP355	ltpFR2	4	13	BUGGY	188	n/a	n/a	0	0	0
2569332	REC_WORD	wordpools/wasnorm_wordpool_576.txt	LTP355	ltpFR2	4	13	COUNTY	389	n/a	n/a	0	0	0
2572272	REC_WORD	wordpools/wasnorm_wordpool_576.txt	LTP355	ltpFR2	4	13	LIZARD	834	n/a	n/a	0	0	0
2576614	REC_WORD	wordpools/wasnorm_wordpool_576.txt	LTP355	ltpFR2	4	13	MARSH	874	n/a	n/a	0	0	0
2644786	DISTRACTOR	n/a	LTP355	ltpFR2	4	14	n/a	n/a	n/a	n/a	0	0	0
2644786	START	n/a	LTP355	ltpFR2	4	n/a	n/a	n/a	21	n/a	n/a	n/a	n/a
2644803	PROB	n/a	LTP355	ltpFR2	4	n/a	n/a	n/a	21	18	7	3	8
2647235	PROB	n/a	LTP355	ltpFR2	4	n/a	n/a	n/a	21	13	8	2	3
2649117	PROB	n/a	LTP355	ltpFR2	4	n/a	n/a	n/a	21	14	6	4	4
2650734	PROB	n/a	LTP355	ltpFR2	4	n/a	n/a	n/a	21	12	2	2	8
2651949	PROB	n/a	LTP355	ltpFR2	4	n/a	n/a	n/a	21	16	2	6	8
2653498	PROB	n/a	LTP355	ltpFR2	4	n/a	n/a	n/a	21	11	7	2	2
2655214	PROB	n/a	LTP355	ltpFR2	4	n/a	n/a	n/a	21	18	3	9	6
2657230	PROB	n/a	LTP355	ltpFR2	4	n/a	n/a	n/a	21	15	6	5	4
2659445	PROB	n/a	LTP355	ltpFR2	4	n/a	n/a	n/a	21	20	6	8	6
2662411	PROB	n/a	LTP355	ltpFR2	4	n/a	n/a	n/a	21	10	2	2	6
2664976	PROB	n/a	LTP355	ltpFR2	4	n/a	n/a	n/a	21	9	5	2	2
2668786	STOP	n/a	LTP355	ltpFR2	4	n/a	n/a	n/a	21	n/a	n/a	n/a	n/a
2669658	WORD	wordpools/wasnorm_wordpool_576.txt	LTP355	ltpFR2	4	14	ARMY	39	n/a	n/a	0	0	0
2672389	WORD	wordpools/wasnorm_wordpool_576.txt	LTP355	ltpFR2	4	14	SHARK	1275	n/a	n/a	0	0	0
2674904	WORD	wordpools/wasnorm_wordpool_576.txt	LTP355	ltpFR2	4	14	SCRIBBLE	1256	n/a	n/a	0	0	0
2677571	WORD	wordpools/wasnorm_wordpool_576.txt	LTP355	ltpFR2	4	14	ZEBRA	1635	n/a	n/a	0	0	0
2680385	WORD	wordpools/wasnorm_wordpool_576.txt	LTP355	ltpFR2	4	14	BARLEY	88	n/a	n/a	0	0	0
2682817	WORD	wordpools/wasnorm_wordpool_576.txt	LTP355	ltpFR2	4	14	COIN	343	n/a	n/a	0	0	0
2685583	WORD	wordpools/wasnorm_wordpool_576.txt	LTP355	ltpFR2	4	14	DIME	466	n/a	n/a	0	0	0
2688264	WORD	wordpools/wasnorm_wordpool_576.txt	LTP355	ltpFR2	4	14	SHIRT	1287	n/a	n/a	0	0	0
2690930	WORD	wordpools/wasnorm_wordpool_576.txt	LTP355	ltpFR2	4	14	SPOUSE	1358	n/a	n/a	0	0	0
2693596	WORD	wordpools/wasnorm_wordpool_576.txt	LTP355	ltpFR2	4	14	FRUIT	610	n/a	n/a	0	0	0
2696327	WORD	wordpools/wasnorm_wordpool_576.txt	LTP355	ltpFR2	4	14	POSSUM	1112	n/a	n/a	0	0	0
2699092	WORD	wordpools/wasnorm_wordpool_576.txt	LTP355	ltpFR2	4	14	LUMBER	848	n/a	n/a	0	0	0
2701874	WORD	wordpools/wasnorm_wordpool_576.txt	LTP355	ltpFR2	4	14	RABBIT	1152	n/a	n/a	0	0	0
2704306	WORD	wordpools/wasnorm_wordpool_576.txt	LTP355	ltpFR2	4	14	PIGMENT	1066	n/a	n/a	0	0	0
2707105	WORD	wordpools/wasnorm_wordpool_576.txt	LTP355	ltpFR2	4	14	PEACH	1031	n/a	n/a	0	0	0
2709672	WORD	wordpools/wasnorm_wordpool_576.txt	LTP355	ltpFR2	4	14	BRANCH	168	n/a	n/a	0	0	0
2712386	WORD	wordpools/wasnorm_wordpool_576.txt	LTP355	ltpFR2	4	14	STAMP	1370	n/a	n/a	0	0	0
2714818	WORD	wordpools/wasnorm_wordpool_576.txt	LTP355	ltpFR2	4	14	GOBLIN	645	n/a	n/a	0	0	0
2717533	WORD	wordpools/wasnorm_wordpool_576.txt	LTP355	ltpFR2	4	14	BRANDY	169	n/a	n/a	0	0	0
2720265	WORD	wordpools/wasnorm_wordpool_576.txt	LTP355	ltpFR2	4	14	FLASK	576	n/a	n/a	0	0	0
2722997	WORD	wordpools/wasnorm_wordpool_576.txt	LTP355	ltpFR2	4	14	EXPERT	543	n/a	n/a	0	0	0
2725664	WORD	wordpools/wasnorm_wordpool_576.txt	LTP355	ltpFR2	4	14	SHRUB	1299	n/a	n/a	0	0	0
2728228	WORD	wordpools/wasnorm_wordpool_576.txt	LTP355	ltpFR2	4	14	NOMAD	955	n/a	n/a	0	0	0
2731010	WORD	wordpools/wasnorm_wordpool_576.txt	LTP355	ltpFR2	4	14	TYPIST	1532	n/a	n/a	0	0	0
2732627	START	n/a	LTP355	ltpFR2	4	n/a	n/a	n/a	22	n/a	n/a	n/a	n/a
2733434	DISTRACTOR	n/a	LTP355	ltpFR2	4	14	n/a	n/a	n/a	n/a	0	0	0
2733442	PROB	n/a	LTP355	ltpFR2	4	n/a	n/a	n/a	22	8	2	1	5
2735075	PROB	n/a	LTP355	ltpFR2	4	n/a	n/a	n/a	22	12	7	2	3
2736324	PROB	n/a	LTP355	ltpFR2	4	n/a	n/a	n/a	22	16	4	4	8
2738439	PROB	n/a	LTP355	ltpFR2	4	n/a	n/a	n/a	22	21	8	6	7
2740573	PROB	n/a	LTP355	ltpFR2	4	n/a	n/a	n/a	22	16	5	9	2
2742421	PROB	n/a	LTP355	ltpFR2	4	n/a	n/a	n/a	22	9	5	1	3
2743853	PROB	n/a	LTP355	ltpFR2	4	n/a	n/a	n/a	22	9	1	3	5
2745186	PROB	n/a	LTP355	ltpFR2	4	n/a	n/a	n/a	22	15	5	2	8
2746536	PROB	n/a	LTP355	ltpFR2	4	n/a	n/a	n/a	22	16	7	3	6
2747868	PROB	n/a	LTP355	ltpFR2	4	n/a	n/a	n/a	22	16	5	4	7
2749417	PROB	n/a	LTP355	ltpFR2	4	n/a	n/a	n/a	22	18	5	8	5
2751483	PROB	n/a	LTP355	ltpFR2	4	n/a	n/a	n/a	22	14	1	7	6
2753365	PROB	n/a	LTP355	ltpFR2	4	n/a	n/a	n/a	22	15	3	6	6
2756627	STOP	n/a	LTP355	ltpFR2	4	n/a	n/a	n/a	22	n/a	n/a	n/a	n/a
2758565	REC_START	n/a	LTP355	ltpFR2	4	14	n/a	n/a	n/a	n/a	0	0	0
2759026	REC_WORD	wordpools/wasnorm_wordpool_576.txt	LTP355	ltpFR2	4	14	TYPIST	1532	n/a	n/a	0	0	0
2760092	REC_WORD	wordpools/wasnorm_wordpool_576.txt	LTP355	ltpFR2	4	14	ARMY	39	n/a	n/a	0	0	0
2762654	REC_WORD	wordpools/wasnorm_wordpool_576.txt	LTP355	ltpFR2	4	14	STAMP	1370	n/a	n/a	0	0	0
2763910	REC_WORD	wordpools/wasnorm_wordpool_576.txt	LTP355	ltpFR2	4	14	BRANCH	168	n/a	n/a	0	0	0
2769995	REC_WORD	wordpools/wasnorm_wordpool_576.txt	LTP355	ltpFR2	4	14	ZEBRA	1635	n/a	n/a	0	0	0
2777472	REC_WORD	wordpools/wasnorm_wordpool_576.txt	LTP355	ltpFR2	4	14	SHIRT	1287	n/a	n/a	0	0	0
2778326	REC_WORD	wordpools/wasnorm_wordpool_576.txt	LTP355	ltpFR2	4	14	FRUIT	610	n/a	n/a	0	0	0
2779311	REC_WORD	wordpools/wasnorm_wordpool_576.txt	LTP355	ltpFR2	4	14	POSSUM	1112	n/a	n/a	0	0	0
2781420	REC_WORD	wordpools/wasnorm_wordpool_576.txt	LTP355	ltpFR2	4	14	PEACH	1031	n/a	n/a	0	0	0
2783103	REC_WORD	wordpools/wasnorm_wordpool_576.txt	LTP355	ltpFR2	4	14	FLASK	576	n/a	n/a	0	0	0
2784059	REC_WORD	wordpools/wasnorm_wordpool_576.txt	LTP355	ltpFR2	4	14	BRANDY	169	n/a	n/a	0	0	0
2785770	REC_WORD	wordpools/wasnorm_wordpool_576.txt	LTP355	ltpFR2	4	14	RABBIT	1152	n/a	n/a	0	0	0
2802210	REC_WORD	wordpools/wasnorm_wordpool_576.txt	LTP355	ltpFR2	4	14	COIN	343	n/a	n/a	0	0	0
2808474	REC_WORD	wordpools/wasnorm_wordpool_576.txt	LTP355	ltpFR2	4	14	DIME	466	n/a	n/a	0	0	0
2849051	WORD	wordpools/wasnorm_wordpool_576.txt	LTP355	ltpFR2	4	15	MARINE	869	n/a	n/a	0	0	0
2851483	WORD	wordpools/wasnorm_wordpool_576.txt	LTP355	ltpFR2	4	15	SALT	1229	n/a	n/a	0	0	0
2853999	WORD	wordpools/wasnorm_wordpool_576.txt	LTP355	ltpFR2	4	15	ELBOW	520	n/a	n/a	0	0	0
2856665	WORD	wordpools/wasnorm_wordpool_576.txt	LTP355	ltpFR2	4	15	BEAVER	109	n/a	n/a	0	0	0
2859096	WORD	wordpools/wasnorm_wordpool_576.txt	LTP355	ltpFR2	4	15	PROTON	1132	n/a	n/a	0	0	0
2861546	WORD	wordpools/wasnorm_wordpool_576.txt	LTP355	ltpFR2	4	15	GARDEN	623	n/a	n/a	0	0	0
2864060	WORD	wordpools/wasnorm_wordpool_576.txt	LTP355	ltpFR2	4	15	EYELASH	546	n/a	n/a	0	0	0
2866544	WORD	wordpools/wasnorm_wordpool_576.txt	LTP355	ltpFR2	4	15	SWAMP	1416	n/a	n/a	0	0	0
2868991	WORD	wordpools/wasnorm_wordpool_576.txt	LTP355	ltpFR2	4	15	MUSTARD	935	n/a	n/a	0	0	0
2871608	WORD	wordpools/wasnorm_wordpool_576.txt	LTP355	ltpFR2	4	15	KETCHUP	771	n/a	n/a	0	0	0
2874106	WORD	wordpools/wasnorm_wordpool_576.txt	LTP355	ltpFR2	4	15	SWIMMER	1420	n/a	n/a	0	0	0
2876539	WORD	wordpools/wasnorm_wordpool_576.txt	LTP355	ltpFR2	4	15	FLIPPER	580	n/a	n/a	0	0	0
2879020	WORD	wordpools/wasnorm_wordpool_576.txt	LTP355	ltpFR2	4	15	HARP	689	n/a	n/a	0	0	0
2881485	WORD	wordpools/wasnorm_wordpool_576.txt	LTP355	ltpFR2	4	15	MONSTER	912	n/a	n/a	0	0	0
2884300	WORD	wordpools/wasnorm_wordpool_576.txt	LTP355	ltpFR2	4	15	SADDLE	1221	n/a	n/a	0	0	0
2886899	WORD	wordpools/wasnorm_wordpool_576.txt	LTP355	ltpFR2	4	15	COWBOY	395	n/a	n/a	0	0	0
2889599	WORD	wordpools/wasnorm_wordpool_576.txt	LTP355	ltpFR2	4	15	WINDOW	1611	n/a	n/a	0	0	0
2892097	WORD	wordpools/wasnorm_wordpool_576.txt	LTP355	ltpFR2	4	15	CLOCK	325	n/a	n/a	0	0	0
2894763	WORD	wordpools/wasnorm_wordpool_576.txt	LTP355	ltpFR2	4	15	DRUG	501	n/a	n/a	0	0	0
2897411	WORD	wordpools/wasnorm_wordpool_576.txt	LTP355	ltpFR2	4	15	ANKLE	24	n/a	n/a	0	0	0
2899876	WORD	wordpools/wasnorm_wordpool_576.txt	LTP355	ltpFR2	4	15	SUSPECT	1415	n/a	n/a	0	0	0
2902642	WORD	wordpools/wasnorm_wordpool_576.txt	LTP355	ltpFR2	4	15	MOTOR	922	n/a	n/a	0	0	0
2905457	WORD	wordpools/wasnorm_wordpool_576.txt	LTP355	ltpFR2	4	15	STICKER	1382	n/a	n/a	0	0	0
2907955	WORD	wordpools/wasnorm_wordpool_576.txt	LTP355	ltpFR2	4	15	CREATURE	403	n/a	n/a	0	0	0
2909573	START	n/a	LTP355	ltpFR2	4	n/a	n/a	n/a	23	n/a	n/a	n/a	n/a
2910503	DISTRACTOR	n/a	LTP355	ltpFR2	4	15	n/a	n/a	n/a	n/a	0	0	0
2910521	PROB	n/a	LTP355	ltpFR2	4	n/a	n/a	n/a	23	14	6	7	1
2912604	PROB	n/a	LTP355	ltpFR2	4	n/a	n/a	n/a	23	16	2	5	9
2914586	PROB	n/a	LTP355	ltpFR2	4	n/a	n/a	n/a	23	21	5	7	9
2917585	PROB	n/a	LTP355	ltpFR2	4	n/a	n/a	n/a	23	15	1	9	5
2918718	PROB	n/a	LTP355	ltpFR2	4	n/a	n/a	n/a	23	19	4	7	8
2923448	PROB	n/a	LTP355	ltpFR2	4	n/a	n/a	n/a	23	13	3	6	4
2924864	PROB	n/a	LTP355	ltpFR2	4	n/a	n/a	n/a	23	9	6	2	1
2927396	PROB	n/a	LTP355	ltpFR2	4	n/a	n/a	n/a	23	14	1	6	7
2928945	PROB	n/a	LTP355	ltpFR2	4	n/a	n/a	n/a	23	12	2	1	9
2930178	PROB	n/a	LTP355	ltpFR2	4	n/a	n/a	n/a	23	11	2	3	6
2933573	STOP	n/a	LTP355	ltpFR2	4	n/a	n/a	n/a	23	n/a	n/a	n/a	n/a
2935326	REC_START	n/a	LTP355	ltpFR2	4	15	n/a	n/a	n/a	n/a	0	0	0
2935807	REC_WORD	wordpools/wasnorm_wordpool_576.txt	LTP355	ltpFR2	4	15	CLOCK	325	n/a	n/a	0	0	0
3025781	DISTRACTOR	n/a	LTP355	ltpFR2	4	16	n/a	n/a	n/a	n/a	0	0	0
3025781	START	n/a	LTP355	ltpFR2	4	n/a	n/a	n/a	24	n/a	n/a	n/a	n/a
3025797	PROB	n/a	LTP355	ltpFR2	4	n/a	n/a	n/a	24	14	4	3	7
3027564	PROB	n/a	LTP355	ltpFR2	4	n/a	n/a	n/a	24	19	2	8	9
3028879	PROB	n/a	LTP355	ltpFR2	4	n/a	n/a	n/a	24	11	9	1	1
3029995	PROB	n/a	LTP355	ltpFR2	4	n/a	n/a	n/a	24	10	1	8	1
3031444	PROB	n/a	LTP355	ltpFR2	4	n/a	n/a	n/a	24	19	5	9	5
3033060	PROB	n/a	LTP355	ltpFR2	4	n/a	n/a	n/a	24	10	6	1	3
3034594	PROB	n/a	LTP355	ltpFR2	4	n/a	n/a	n/a	24	17	2	8	7
3035809	PROB	n/a	LTP355	ltpFR2	4	n/a	n/a	n/a	24	19	8	3	8
3037675	PROB	n/a	LTP355	ltpFR2	4	n/a	n/a	n/a	24	19	8	5	6
3039390	PROB	n/a	LTP355	ltpFR2	4	n/a	n/a	n/a	24	14	5	2	7
3041872	PROB	n/a	LTP355	ltpFR2	4	n/a	n/a	n/a	24	8	1	1	6
3042872	PROB	n/a	LTP355	ltpFR2	4	n/a	n/a	n/a	24	20	5	8	7
3045538	PROB	n/a	LTP355	ltpFR2	4	n/a	n/a	n/a	24	16	3	6	7
3047020	PROB	n/a	LTP355	ltpFR2	4	n/a	n/a	n/a	24	13	2	4	7
3048930	STOP	n/a	LTP355	ltpFR2	4	n/a	n/a	n/a	24	n/a	n/a	n/a	n/a
3050619	WORD	wordpools/wasnorm_wordpool_576.txt	LTP355	ltpFR2	4	16	COLLEGE	346	n/a	n/a	0	0	0
3053050	WORD	wordpools/wasnorm_wordpool_576.txt	LTP355	ltpFR2	4	16	ORCHID	982	n/a	n/a	0	0	0
3055783	WORD	wordpools/wasnorm_wordpool_576.txt	LTP355	ltpFR2	4	16	SCULPTURE	1258	n/a	n/a	0	0	0
3058514	WORD	wordpools/wasnorm_wordpool_576.txt	LTP355	ltpFR2	4	16	SKETCH	1315	n/a	n/a	0	0	0
3060996	WORD	wordpools/wasnorm_wordpool_576.txt	LTP355	ltpFR2	4	16	ANTLER	29	n/a	n/a	0	0	0
3063729	WORD	wordpools/wasnorm_wordpool_576.txt	LTP355	ltpFR2	4	16	MISSILE	900	n/a	n/a	0	0	0
3066477	WORD	wordpools/wasnorm_wordpool_576.txt	LTP355	ltpFR2	4	16	TILE	1468	n/a	n/a	0	0	0
3069292	WORD	wordpools/wasnorm_wordpool_576.txt	LTP355	ltpFR2	4	16	DIVER	476	n/a	n/a	0	0	0
3072107	WORD	wordpools/wasnorm_wordpool_576.txt	LTP355	ltpFR2	4	16	PICNIC	1060	n/a	n/a	0	0	0
3074789	WORD	wordpools/wasnorm_wordpool_576.txt	LTP355	ltpFR2	4	16	JUGGLER	763	n/a	n/a	0	0	0
3077338	WORD	wordpools/wasnorm_wordpool_576.txt	LTP355	ltpFR2	4	16	JUNGLE	764	n/a	n/a	0	0	0
3079920	WORD	wordpools/wasnorm_wordpool_576.txt	LTP355	ltpFR2	4	16	RIFLE	1192	n/a	n/a	0	0	0
3082419	WORD	wordpools/wasnorm_wordpool_576.txt	LTP355	ltpFR2	4	16	DINER	467	n/a	n/a	0	0	0
3085134	WORD	wordpools/wasnorm_wordpool_576.txt	LTP355	ltpFR2	4	16	CAFE	216	n/a	n/a	0	0	0
3087634	WORD	wordpools/wasnorm_wordpool_576.txt	LTP355	ltpFR2	4	16	BRAKE	166	n/a	n/a	0	0	0
3090348	WORD	wordpools/wasnorm_wordpool_576.txt	LTP355	ltpFR2	4	16	HIGHWAY	707	n/a	n/a	0	0	0
3092914	WORD	wordpools/wasnorm_wordpool_576.txt	LTP355	ltpFR2	4	16	BEEF	113	n/a	n/a	0	0	0
3095529	WORD	wordpools/wasnorm_wordpool_576.txt	LTP355	ltpFR2	4	16	CEILING	265	n/a	n/a	0	0	0
3098178	WORD	wordpools/wasnorm_wordpool_576.txt	LTP355	ltpFR2	4	16	WORLD	1622	n/a	n/a	0	0	0
3100761	WORD	wordpools/wasnorm_wordpool_576.txt	LTP355	ltpFR2	4	16	RATTLE	1170	n/a	n/a	0	0	0
3103475	WORD	wordpools/wasnorm_wordpool_576.txt	LTP355	ltpFR2	4	16	DRESSER	496	n/a	n/a	0	0	0
3106140	WORD	wordpools/wasnorm_wordpool_576.txt	LTP355	ltpFR2	4	16	OMELET	976	n/a	n/a	0	0	0
3108640	WORD	wordpools/wasnorm_wordpool_576.txt	LTP355	ltpFR2	4	16	STATUE	1374	n/a	n/a	0	0	0
3111321	WORD	wordpools/wasnorm_wordpool_576.txt	LTP355	ltpFR2	4	16	GRILL	661	n/a	n/a	0	0	0
3112937	START	n/a	LTP355	ltpFR2	4	n/a	n/a	n/a	25	n/a	n/a	n/a	n/a
3113949	DISTRACTOR	n/a	LTP355	ltpFR2	4	16	n/a	n/a	n/a	n/a	0	0	0
3113953	PROB	n/a	LTP355	ltpFR2	4	n/a	n/a	n/a	25	19	9	7	3
3115852	PROB	n/a	LTP355	ltpFR2	4	n/a	n/a	n/a	25	16	6	3	7
3117702	PROB	n/a	LTP355	ltpFR2	4	n/a	n/a	n/a	25	15	8	6	1
3120800	PROB	n/a	LTP355	ltpFR2	4	n/a	n/a	n/a	25	17	7	3	7
3123265	PROB	n/a	LTP355	ltpFR2	4	n/a	n/a	n/a	25	15	7	3	5
3124665	PROB	n/a	LTP355	ltpFR2	4	n/a	n/a	n/a	25	18	9	4	5
3128529	PROB	n/a	LTP355	ltpFR2	4	n/a	n/a	n/a	25	16	7	8	1
3130462	PROB	n/a	LTP355	ltpFR2	4	n/a	n/a	n/a	25	21	6	7	8
3133127	PROB	n/a	LTP355	ltpFR2	4	n/a	n/a	n/a	25	12	9	1	2
3134493	PROB	n/a	LTP355	ltpFR2	4	n/a	n/a	n/a	25	15	1	8	6
3136707	STOP	n/a	LTP355	ltpFR2	4	n/a	n/a	n/a	25	n/a	n/a	n/a	n/a
3138875	REC_START	n/a	LTP355	ltpFR2	4	16	n/a	n/a	n/a	n/a	0	0	0
3140082	REC_WORD	wordpools/wasnorm_wordpool_576.txt	LTP355	ltpFR2	4	16	GRILL	661	n/a	n/a	0	0	0
3140789	REC_WORD	wordpools/wasnorm_wordpool_576.txt	LTP355	ltpFR2	4	16	PICNIC	1060	n/a	n/a	0	0	0
3141689	REC_WORD	wordpools/wasnorm_wordpool_576.txt	LTP355	ltpFR2	4	16	JUGGLER	763	n/a	n/a	0	0	0
3142601	REC_WORD	wordpools/wasnorm_wordpool_576.txt	LTP355	ltpFR2	4	16	JUNGLE	764	n/a	n/a	0	0	0
3143744	REC_WORD	wordpools/wasnorm_wordpool_576.txt	LTP355	ltpFR2	4	16	CEILING	265	n/a	n/a	0	0	0
3145925	REC_WORD	wordpools/wasnorm_wordpool_576.txt	LTP355	ltpFR2	4	16	WORLD	1622	n/a	n/a	0	0	0
3150136	REC_WORD	wordpools/wasnorm_wordpool_576.txt	LTP355	ltpFR2	4	16	HIGHWAY	707	n/a	n/a	0	0	0
3152080	REC_WORD	wordpools/wasnorm_wordpool_576.txt	LTP355	ltpFR2	4	16	COLLEGE	346	n/a	n/a	0	0	0
3153865	REC_WORD	wordpools/wasnorm_wordpool_576.txt	LTP355	ltpFR2	4	16	SCULPTURE	1258	n/a	n/a	0	0	0
3155336	REC_WORD	wordpools/wasnorm_wordpool_576.txt	LTP355	ltpFR2	4	16	GARDEN	623	n/a	n/a	0	0	0
3174781	REC_WORD	wordpools/wasnorm_wordpool_576.txt	LTP355	ltpFR2	4	16	OMELET	976	n/a	n/a	0	0	0
3209947	REC_WORD	wordpools/wasnorm_wordpool_576.txt	LTP355	ltpFR2	4	16	RIFLE	1192	n/a	n/a	0	0	0
3215419	REST_REWET	n/a	LTP355	ltpFR2	4	16	n/a	n/a	n/a	n/a	0	0	0
3321651	WORD	wordpools/wasnorm_wordpool_576.txt	LTP355	ltpFR2	4	17	APPLE	33	n/a	n/a	0	0	0
3324215	WORD	wordpools/wasnorm_wordpool_576.txt	LTP355	ltpFR2	4	17	HOOD	714	n/a	n/a	0	0	0
3327014	WORD	wordpools/wasnorm_wordpool_576.txt	LTP355	ltpFR2	4	17	BLACKBOARD	133	n/a	n/a	0	0	0
3329547	WORD	wordpools/wasnorm_wordpool_576.txt	LTP355	ltpFR2	4	17	GAVEL	627	n/a	n/a	0	0	0
3332078	WORD	wordpools/wasnorm_wordpool_576.txt	LTP355	ltpFR2	4	17	LIPSTICK	829	n/a	n/a	0	0	0
3334893	WORD	wordpools/wasnorm_wordpool_576.txt	LTP355	ltpFR2	4	17	MUFFIN	929	n/a	n/a	0	0	0
3337710	WORD	wordpools/wasnorm_wordpool_576.txt	LTP355	ltpFR2	4	17	MACHINE	852	n/a	n/a	0	0	0
3340174	WORD	wordpools/wasnorm_wordpool_576.txt	LTP355	ltpFR2	4	17	BOARD	143	n/a	n/a	0	0	0
3342789	WORD	wordpools/wasnorm_wordpool_576.txt	LTP355	ltpFR2	4	17	HOUND	724	n/a	n/a	0	0	0
3345238	WORD	wordpools/wasnorm_wordpool_576.txt	LTP355	ltpFR2	4	17	PUPPY	1144	n/a	n/a	0	0	0
3348053	WORD	wordpools/wasnorm_wordpool_576.txt	LTP355	ltpFR2	4	17	SUITCASE	1403	n/a	n/a	0	0	0
3350502	WORD	wordpools/wasnorm_wordpool_576.txt	LTP355	ltpFR2	4	17	BEAST	108	n/a	n/a	0	0	0
3352934	WORD	wordpools/wasnorm_wordpool_576.txt	LTP355	ltpFR2	4	17	SEAL	1262	n/a	n/a	0	0	0
3355567	WORD	wordpools/wasnorm_wordpool_576.txt	LTP355	ltpFR2	4	17	PASTA	1021	n/a	n/a	0	0	0
3358265	WORD	wordpools/wasnorm_wordpool_576.txt	LTP355	ltpFR2	4	17	FLAG	573	n/a	n/a	0	0	0
3361047	WORD	wordpools/wasnorm_wordpool_576.txt	LTP355	ltpFR2	4	17	PIGEON	1065	n/a	n/a	0	0	0
3363812	WORD	wordpools/wasnorm_wordpool_576.txt	LTP355	ltpFR2	4	17	ROOSTER	1209	n/a	n/a	0	0	0
3366444	WORD	wordpools/wasnorm_wordpool_576.txt	LTP355	ltpFR2	4	17	VALVE	1546	n/a	n/a	0	0	0
3369260	WORD	wordpools/wasnorm_wordpool_576.txt	LTP355	ltpFR2	4	17	PARSLEY	1016	n/a	n/a	0	0	0
3371992	WORD	wordpools/wasnorm_wordpool_576.txt	LTP355	ltpFR2	4	17	TORTOISE	1486	n/a	n/a	0	0	0
3374507	WORD	wordpools/wasnorm_wordpool_576.txt	LTP355	ltpFR2	4	17	SPACE	1345	n/a	n/a	0	0	0
3377172	WORD	wordpools/wasnorm_wordpool_576.txt	LTP355	ltpFR2	4	17	COUCH	386	n/a	n/a	0	0	0
3379871	WORD	wordpools/wasnorm_wordpool_576.txt	LTP355	ltpFR2	4	17	RUG	1215	n/a	n/a	0	0	0
3382420	WORD	wordpools/wasnorm_wordpool_576.txt	LTP355	ltpFR2	4	17	GARBAGE	622	n/a	n/a	0	0	0
3384036	START	n/a	LTP355	ltpFR2	4	n/a	n/a	n/a	26	n/a	n/a	n/a	n/a
3384872	DISTRACTOR	n/a	LTP355	ltpFR2	4	17	n/a	n/a	n/a	n/a	0	0	0
3384885	PROB	n/a	LTP355	ltpFR2	4	n/a	n/a	n/a	26	10	2	4	4
3387701	PROB	n/a	LTP355	ltpFR2	4	n/a	n/a	n/a	26	16	8	4	4
3389450	PROB	n/a	LTP355	ltpFR2	4	n/a	n/a	n/a	26	19	9	4	6
3391199	PROB	n/a	LTP355	ltpFR2	4	n/a	n/a	n/a	26	17	6	7	4
3392566	PROB	n/a	LTP355	ltpFR2	4	n/a	n/a	n/a	26	13	3	9	1
3393947	PROB	n/a	LTP355	ltpFR2	4	n/a	n/a	n/a	26	16	4	3	9
3395598	PROB	n/a	LTP355	ltpFR2	4	n/a	n/a	n/a	26	20	6	6	8
3398596	PROB	n/a	LTP355	ltpFR2	4	n/a	n/a	n/a	26	16	4	4	8
3400294	PROB	n/a	LTP355	ltpFR2	4	n/a	n/a	n/a	26	13	6	1	6
3402110	PROB	n/a	LTP355	ltpFR2	4	n/a	n/a	n/a	26	18	9	1	8
3403842	PROB	n/a	LTP355	ltpFR2	4	n/a	n/a	n/a	26	12	2	7	3
3405392	PROB	n/a	LTP355	ltpFR2	4	n/a	n/a	n/a	26	19	9	7	3
3406707	STOP	n/a	LTP355	ltpFR2	4	n/a	n/a	n/a	26	n/a	n/a	n/a	n/a
3409790	REC_START	n/a	LTP355	ltpFR2	4	17	n/a	n/a	n/a	n/a	0	0	0
3410906	REC_WORD	wordpools/wasnorm_wordpool_576.txt	LTP355	ltpFR2	4	17	TORTOISE	1486	n/a	n/a	0	0	0
3413292	REC_WORD	wordpools/wasnorm_wordpool_576.txt	LTP355	ltpFR2	4	17	VALVE	1546	n/a	n/a	0	0	0
3419157	REC_WORD	wordpools/wasnorm_wordpool_576.txt	LTP355	ltpFR2	4	17	PASTA	1021	n/a	n/a	0	0	0
3420100	REC_WORD	wordpools/wasnorm_wordpool_576.txt	LTP355	ltpFR2	4	17	FLAG	573	n/a	n/a	0	0	0
3421350	REC_WORD	wordpools/wasnorm_wordpool_576.txt	LTP355	ltpFR2	4	17	ROOSTER	1209	n/a	n/a	0	0	0
3423331	REC_WORD	wordpools/wasnorm_wordpool_576.txt	LTP355	ltpFR2	4	17	PIGEON	1065	n/a	n/a	0	0	0
3500228	DISTRACTOR	n/a	LTP355	ltpFR2	4	18	n/a	n/a	n/a	n/a	0	0	0
3500228	START	n/a	LTP355	ltpFR2	4	n/a	n/a	n/a	27	n/a	n/a	n/a	n/a
3500245	PROB	n/a	LTP355	ltpFR2	4	n/a	n/a	n/a	27	16	7	4	5
3502244	PROB	n/a	LTP355	ltpFR2	4	n/a	n/a	n/a	27	13	1	6	6
3503926	PROB	n/a	LTP355	ltpFR2	4	n/a	n/a	n/a	27	23	5	9	9
3506525	PROB	n/a	LTP355	ltpFR2	4	n/a	n/a	n/a	27	12	3	7	2
3507974	PROB	n/a	LTP355	ltpFR2	4	n/a	n/a	n/a	27	16	8	5	3
3509440	PROB	n/a	LTP355	ltpFR2	4	n/a	n/a	n/a	27	18	2	8	8
3510923	PROB	n/a	LTP355	ltpFR2	4	n/a	n/a	n/a	27	16	5	3	8
3512539	PROB	n/a	LTP355	ltpFR2	4	n/a	n/a	n/a	27	17	7	7	3
3514054	PROB	n/a	LTP355	ltpFR2	4	n/a	n/a	n/a	27	22	4	9	9
3515887	PROB	n/a	LTP355	ltpFR2	4	n/a	n/a	n/a	27	14	1	9	4
3517236	PROB	n/a	LTP355	ltpFR2	4	n/a	n/a	n/a	27	18	7	2	9
3519769	PROB	n/a	LTP355	ltpFR2	4	n/a	n/a	n/a	27	16	2	7	7
3524218	STOP	n/a	LTP355	ltpFR2	4	n/a	n/a	n/a	27	n/a	n/a	n/a	n/a
3525116	WORD	wordpools/wasnorm_wordpool_576.txt	LTP355	ltpFR2	4	18	ICEBERG	731	n/a	n/a	0	0	0
3527814	WORD	wordpools/wasnorm_wordpool_576.txt	LTP355	ltpFR2	4	18	JURY	766	n/a	n/a	0	0	0
3530480	WORD	wordpools/wasnorm_wordpool_576.txt	LTP355	ltpFR2	4	18	BLADE	134	n/a	n/a	0	0	0
3533178	WORD	wordpools/wasnorm_wordpool_576.txt	LTP355	ltpFR2	4	18	JELLO	754	n/a	n/a	0	0	0
3535960	WORD	wordpools/wasnorm_wordpool_576.txt	LTP355	ltpFR2	4	18	CUSTARD	429	n/a	n/a	0	0	0
3538610	WORD	wordpools/wasnorm_wordpool_576.txt	LTP355	ltpFR2	4	18	PIANO	1057	n/a	n/a	0	0	0
3541058	WORD	wordpools/wasnorm_wordpool_576.txt	LTP355	ltpFR2	4	18	WIFE	1609	n/a	n/a	0	0	0
3543840	WORD	wordpools/wasnorm_wordpool_576.txt	LTP355	ltpFR2	4	18	FUNGUS	614	n/a	n/a	0	0	0
3546405	WORD	wordpools/wasnorm_wordpool_576.txt	LTP355	ltpFR2	4	18	AGENT	10	n/a	n/a	0	0	0
3548837	WORD	wordpools/wasnorm_wordpool_576.txt	LTP355	ltpFR2	4	18	CONVICT	371	n/a	n/a	0	0	0
3551502	WORD	wordpools/wasnorm_wordpool_576.txt	LTP355	ltpFR2	4	18	CABBAGE	210	n/a	n/a	0	0	0
3554318	WORD	wordpools/wasnorm_wordpool_576.txt	LTP355	ltpFR2	4	18	SPARROW	1347	n/a	n/a	0	0	0
3557150	WORD	wordpools/wasnorm_wordpool_576.txt	LTP355	ltpFR2	4	18	FLUTE	585	n/a	n/a	0	0	0
3559882	WORD	wordpools/wasnorm_wordpool_576.txt	LTP355	ltpFR2	4	18	ACTOR	5	n/a	n/a	0	0	0
3562480	WORD	wordpools/wasnorm_wordpool_576.txt	LTP355	ltpFR2	4	18	GANGSTER	620	n/a	n/a	0	0	0
3565079	WORD	wordpools/wasnorm_wordpool_576.txt	LTP355	ltpFR2	4	18	FRAME	600	n/a	n/a	0	0	0
3567595	WORD	wordpools/wasnorm_wordpool_576.txt	LTP355	ltpFR2	4	18	DRAWING	494	n/a	n/a	0	0	0
3570210	WORD	wordpools/wasnorm_wordpool_576.txt	LTP355	ltpFR2	4	18	BRICK	172	n/a	n/a	0	0	0
3572942	WORD	wordpools/wasnorm_wordpool_576.txt	LTP355	ltpFR2	4	18	POLICE	1098	n/a	n/a	0	0	0
3575608	WORD	wordpools/wasnorm_wordpool_576.txt	LTP355	ltpFR2	4	18	HATCHET	691	n/a	n/a	0	0	0
3578056	WORD	wordpools/wasnorm_wordpool_576.txt	LTP355	ltpFR2	4	18	PORK	1108	n/a	n/a	0	0	0
3580521	WORD	wordpools/wasnorm_wordpool_576.txt	LTP355	ltpFR2	4	18	RELISH	1183	n/a	n/a	0	0	0
3582970	WORD	wordpools/wasnorm_wordpool_576.txt	LTP355	ltpFR2	4	18	BANJO	82	n/a	n/a	0	0	0
3585419	WORD	wordpools/wasnorm_wordpool_576.txt	LTP355	ltpFR2	4	18	WHISTLE	1606	n/a	n/a	0	0	0
3587035	START	n/a	LTP355	ltpFR2	4	n/a	n/a	n/a	28	n/a	n/a	n/a	n/a
3588157	DISTRACTOR	n/a	LTP355	ltpFR2	4	18	n/a	n/a	n/a	n/a	0	0	0
3588168	PROB	n/a	LTP355	ltpFR2	4	n/a	n/a	n/a	28	22	9	4	9
3590300	PROB	n/a	LTP355	ltpFR2	4	n/a	n/a	n/a	28	14	1	4	9
3591700	PROB	n/a	LTP355	ltpFR2	4	n/a	n/a	n/a	28	10	2	1	7
3593398	PROB	n/a	LTP355	ltpFR2	4	n/a	n/a	n/a	28	16	8	2	6
3595615	PROB	n/a	LTP355	ltpFR2	4	n/a	n/a	n/a	28	8	2	5	1
3597263	PROB	n/a	LTP355	ltpFR2	4	n/a	n/a	n/a	28	10	6	2	2
3598996	PROB	n/a	LTP355	ltpFR2	4	n/a	n/a	n/a	28	22	9	8	5
3601194	PROB	n/a	LTP355	ltpFR2	4	n/a	n/a	n/a	28	13	3	3	7
3602794	PROB	n/a	LTP355	ltpFR2	4	n/a	n/a	n/a	28	21	4	9	8
3605076	PROB	n/a	LTP355	ltpFR2	4	n/a	n/a	n/a	28	16	6	4	6
3606359	PROB	n/a	LTP355	ltpFR2	4	n/a	n/a	n/a	28	19	3	9	7
3607642	PROB	n/a	LTP355	ltpFR2	4	n/a	n/a	n/a	28	13	2	9	2
3609490	PROB	n/a	LTP355	ltpFR2	4	n/a	n/a	n/a	28	6	3	2	1
3610723	STOP	n/a	LTP355	ltpFR2	4	n/a	n/a	n/a	28	n/a	n/a	n/a	n/a
3612789	REC_START	n/a	LTP355	ltpFR2	4	18	n/a	n/a	n/a	n/a	0	0	0
3614155	REC_WORD	wordpools/wasnorm_wordpool_576.txt	LTP355	ltpFR2	4	18	CONVICT	371	n/a	n/a	0	0	0
3615960	REC_WORD	wordpools/wasnorm_wordpool_576.txt	LTP355	ltpFR2	4	18	JUDGE	761	n/a	n/a	0	0	0
3618203	REC_WORD	wordpools/wasnorm_wordpool_576.txt	LTP355	ltpFR2	4	18	AGENT	10	n/a	n/a	0	0	0
3620178	REC_WORD	wordpools/wasnorm_wordpool_576.txt	LTP355	ltpFR2	4	18	PIANO	1057	n/a	n/a	0	0	0
3620942	REC_WORD	wordpools/wasnorm_wordpool_576.txt	LTP355	ltpFR2	4	18	FLUTE	585	n/a	n/a	0	0	0
3622158	REC_WORD	wordpools/wasnorm_wordpool_576.txt	LTP355	ltpFR2	4	18	CABBAGE	210	n/a	n/a	0	0	0
3623199	REC_WORD	wordpools/wasnorm_wordpool_576.txt	LTP355	ltpFR2	4	18	JELLO	754	n/a	n/a	0	0	0
3624226	REC_WORD	wordpools/wasnorm_wordpool_576.txt	LTP355	ltpFR2	4	18	CUSTARD	429	n/a	n/a	0	0	0
3627660	REC_WORD	wordpools/wasnorm_wordpool_576.txt	LTP355	ltpFR2	4	18	KNIFE	785	n/a	n/a	0	0	0
3628632	REC_WORD	wordpools/wasnorm_wordpool_576.txt	LTP355	ltpFR2	4	18	ICEBERG	731	n/a	n/a	0	0	0
3640995	REC_WORD	wordpools/wasnorm_wordpool_576.txt	LTP355	ltpFR2	4	18	ACTOR	5	n/a	n/a	0	0	0
3643746	REC_WORD	wordpools/wasnorm_wordpool_576.txt	LTP355	ltpFR2	4	18	GANGSTER	620	n/a	n/a	0	0	0
3655497	REC_WORD	wordpools/wasnorm_wordpool_576.txt	LTP355	ltpFR2	4	18	WIFE	1609	n/a	n/a	0	0	0
3703244	WORD	wordpools/wasnorm_wordpool_576.txt	LTP355	ltpFR2	4	19	UMPIRE	1535	n/a	n/a	0	0	0
3706042	WORD	wordpools/wasnorm_wordpool_576.txt	LTP355	ltpFR2	4	19	POPCORN	1104	n/a	n/a	0	0	0
3708742	WORD	wordpools/wasnorm_wordpool_576.txt	LTP355	ltpFR2	4	19	LUNCH	849	n/a	n/a	0	0	0
3711373	WORD	wordpools/wasnorm_wordpool_576.txt	LTP355	ltpFR2	4	19	DRINK	498	n/a	n/a	0	0	0
3713972	WORD	wordpools/wasnorm_wordpool_576.txt	LTP355	ltpFR2	4	19	QUAIL	1147	n/a	n/a	0	0	0
3716621	WORD	wordpools/wasnorm_wordpool_576.txt	LTP355	ltpFR2	4	19	TEACHER	1440	n/a	n/a	0	0	0
3719136	WORD	wordpools/wasnorm_wordpool_576.txt	LTP355	ltpFR2	4	19	BACKBONE	66	n/a	n/a	0	0	0
3721934	WORD	wordpools/wasnorm_wordpool_576.txt	LTP355	ltpFR2	4	19	COFFEE	341	n/a	n/a	0	0	0
3724567	WORD	wordpools/wasnorm_wordpool_576.txt	LTP355	ltpFR2	4	19	DONOR	485	n/a	n/a	0	0	0
3727182	WORD	wordpools/wasnorm_wordpool_576.txt	LTP355	ltpFR2	4	19	HEART	697	n/a	n/a	0	0	0
3729980	WORD	wordpools/wasnorm_wordpool_576.txt	LTP355	ltpFR2	4	19	RAFT	1159	n/a	n/a	0	0	0
3732763	WORD	wordpools/wasnorm_wordpool_576.txt	LTP355	ltpFR2	4	19	LAVA	804	n/a	n/a	0	0	0
3735328	WORD	wordpools/wasnorm_wordpool_576.txt	LTP355	ltpFR2	4	19	COCOON	339	n/a	n/a	0	0	0
3737943	WORD	wordpools/wasnorm_wordpool_576.txt	LTP355	ltpFR2	4	19	TREAT	1501	n/a	n/a	0	0	0
3740576	WORD	wordpools/wasnorm_wordpool_576.txt	LTP355	ltpFR2	4	19	LAMP	798	n/a	n/a	0	0	0
3743074	WORD	wordpools/wasnorm_wordpool_576.txt	LTP355	ltpFR2	4	19	XEROX	1628	n/a	n/a	0	0	0
3745607	WORD	wordpools/wasnorm_wordpool_576.txt	LTP355	ltpFR2	4	19	SEAFOOD	1260	n/a	n/a	0	0	0
3748355	WORD	wordpools/wasnorm_wordpool_576.txt	LTP355	ltpFR2	4	19	PANTHER	1009	n/a	n/a	0	0	0
3751070	WORD	wordpools/wasnorm_wordpool_576.txt	LTP355	ltpFR2	4	19	MOTEL	919	n/a	n/a	0	0	0
3753519	WORD	wordpools/wasnorm_wordpool_576.txt	LTP355	ltpFR2	4	19	TWEEZERS	1526	n/a	n/a	0	0	0
3756184	WORD	wordpools/wasnorm_wordpool_576.txt	LTP355	ltpFR2	4	19	CHEST	295	n/a	n/a	0	0	0
3758684	WORD	wordpools/wasnorm_wordpool_576.txt	LTP355	ltpFR2	4	19	PARROT	1015	n/a	n/a	0	0	0
3761248	WORD	wordpools/wasnorm_wordpool_576.txt	LTP355	ltpFR2	4	19	TERMITE	1451	n/a	n/a	0	0	0
3763997	WORD	wordpools/wasnorm_wordpool_576.txt	LTP355	ltpFR2	4	19	BATHTUB	100	n/a	n/a	0	0	0
3765614	START	n/a	LTP355	ltpFR2	4	n/a	n/a	n/a	29	n/a	n/a	n/a	n/a
3766718	DISTRACTOR	n/a	LTP355	ltpFR2	4	19	n/a	n/a	n/a	n/a	0	0	0
3766730	PROB	n/a	LTP355	ltpFR2	4	n/a	n/a	n/a	29	11	5	1	5
3768378	PROB	n/a	LTP355	ltpFR2	4	n/a	n/a	n/a	29	15	4	9	2
3770394	PROB	n/a	LTP355	ltpFR2	4	n/a	n/a	n/a	29	10	2	6	2
3775408	PROB	n/a	LTP355	ltpFR2	4	n/a	n/a	n/a	29	14	6	1	7
3777457	PROB	n/a	LTP355	ltpFR2	4	n/a	n/a	n/a	29	15	5	9	1
3778674	PROB	n/a	LTP355	ltpFR2	4	n/a	n/a	n/a	29	13	1	4	8
3780006	PROB	n/a	LTP355	ltpFR2	4	n/a	n/a	n/a	29	20	3	9	8
3782138	PROB	n/a	LTP355	ltpFR2	4	n/a	n/a	n/a	29	12	6	4	2
3783605	PROB	n/a	LTP355	ltpFR2	4	n/a	n/a	n/a	29	7	2	4	1
3785486	PROB	n/a	LTP355	ltpFR2	4	n/a	n/a	n/a	29	19	7	4	8
3787435	PROB	n/a	LTP355	ltpFR2	4	n/a	n/a	n/a	29	6	1	1	4
3788314	STOP	n/a	LTP355	ltpFR2	4	n/a	n/a	n/a	29	n/a	n/a	n/a	n/a
3791385	REC_START	n/a	LTP355	ltpFR2	4	19	n/a	n/a	n/a	n/a	0	0	0
3792160	REC_WORD	wordpools/wasnorm_wordpool_576.txt	LTP355	ltpFR2	4	19	TEACHER	1440	n/a	n/a	0	0	0
3793098	REC_WORD	wordpools/wasnorm_wordpool_576.txt	LTP355	ltpFR2	4	19	TREAT	1501	n/a	n/a	0	0	0
3794335	REC_WORD	wordpools/wasnorm_wordpool_576.txt	LTP355	ltpFR2	4	19	UMPIRE	1535	n/a	n/a	0	0	0
3796204	REC_WORD	wordpools/wasnorm_wordpool_576.txt	LTP355	ltpFR2	4	19	POPCORN	1104	n/a	n/a	0	0	0
3797148	REC_WORD	wordpools/wasnorm_wordpool_576.txt	LTP355	ltpFR2	4	19	LUNCH	849	n/a	n/a	0	0	0
3800052	REC_WORD	wordpools/wasnorm_wordpool_576.txt	LTP355	ltpFR2	4	19	DRINK	498	n/a	n/a	0	0	0
3803013	REC_WORD	wordpools/wasnorm_wordpool_576.txt	LTP355	ltpFR2	4	19	RAFT	1159	n/a	n/a	0	0	0
3803752	REC_WORD	wordpools/wasnorm_wordpool_576.txt	LTP355	ltpFR2	4	19	LAVA	804	n/a	n/a	0	0	0
3804519	REC_WORD	wordpools/wasnorm_wordpool_576.txt	LTP355	ltpFR2	4	19	COCOON	339	n/a	n/a	0	0	0
3809918	REC_WORD	wordpools/wasnorm_wordpool_576.txt	LTP355	ltpFR2	4	19	XEROX	1628	n/a	n/a	0	0	0
3811205	REC_WORD	wordpools/wasnorm_wordpool_576.txt	LTP355	ltpFR2	4	19	COFFEE	341	n/a	n/a	0	0	0
3812929	REC_WORD	wordpools/wasnorm_wordpool_576.txt	LTP355	ltpFR2	4	19	LAMP	798	n/a	n/a	0	0	0
3820062	REC_WORD	wordpools/wasnorm_wordpool_576.txt	LTP355	ltpFR2	4	19	UMPIRE	1535	n/a	n/a	0	0	0
3825148	REC_WORD	wordpools/wasnorm_wordpool_576.txt	LTP355	ltpFR2	4	19	SEAFOOD	1260	n/a	n/a	0	0	0
3826280	REC_WORD	wordpools/wasnorm_wordpool_576.txt	LTP355	ltpFR2	4	19	PANTHER	1009	n/a	n/a	0	0	0
3881822	DISTRACTOR	n/a	LTP355	ltpFR2	4	20	n/a	n/a	n/a	n/a	0	0	0
3881822	START	n/a	LTP355	ltpFR2	4	n/a	n/a	n/a	30	n/a	n/a	n/a	n/a
3881838	PROB	n/a	LTP355	ltpFR2	4	n/a	n/a	n/a	30	19	6	4	9
3884254	PROB	n/a	LTP355	ltpFR2	4	n/a	n/a	n/a	30	8	2	4	2
3885786	PROB	n/a	LTP355	ltpFR2	4	n/a	n/a	n/a	30	20	7	5	8
3887703	PROB	n/a	LTP355	ltpFR2	4	n/a	n/a	n/a	30	14	4	3	7
3889318	PROB	n/a	LTP355	ltpFR2	4	n/a	n/a	n/a	30	9	2	4	3
3891450	PROB	n/a	LTP355	ltpFR2	4	n/a	n/a	n/a	30	21	9	6	6
3893049	PROB	n/a	LTP355	ltpFR2	4	n/a	n/a	n/a	30	15	4	3	8
3894366	PROB	n/a	LTP355	ltpFR2	4	n/a	n/a	n/a	30	10	5	3	2
3896081	PROB	n/a	LTP355	ltpFR2	4	n/a	n/a	n/a	30	5	1	1	3
3897097	PROB	n/a	LTP355	ltpFR2	4	n/a	n/a	n/a	30	18	9	1	8
3898614	PROB	n/a	LTP355	ltpFR2	4	n/a	n/a	n/a	30	18	4	5	9
3900363	PROB	n/a	LTP355	ltpFR2	4	n/a	n/a	n/a	30	12	4	6	2
3902662	PROB	n/a	LTP355	ltpFR2	4	n/a	n/a	n/a	30	15	3	7	5
3903877	PROB	n/a	LTP355	ltpFR2	4	n/a	n/a	n/a	30	16	6	4	6
3905090	STOP	n/a	LTP355	ltpFR2	4	n/a	n/a	n/a	30	n/a	n/a	n/a	n/a
3906959	WORD	wordpools/wasnorm_wordpool_576.txt	LTP355	ltpFR2	4	20	SCISSORS	1250	n/a	n/a	0	0	0
3909776	WORD	wordpools/wasnorm_wordpool_576.txt	LTP355	ltpFR2	4	20	WAITER	1580	n/a	n/a	0	0	0
3912440	WORD	wordpools/wasnorm_wordpool_576.txt	LTP355	ltpFR2	4	20	PEPPER	1047	n/a	n/a	0	0	0
3915039	WORD	wordpools/wasnorm_wordpool_576.txt	LTP355	ltpFR2	4	20	GARLIC	624	n/a	n/a	0	0	0
3917471	WORD	wordpools/wasnorm_wordpool_576.txt	LTP355	ltpFR2	4	20	SPONGE	1355	n/a	n/a	0	0	0
3919953	WORD	wordpools/wasnorm_wordpool_576.txt	LTP355	ltpFR2	4	20	SURVEY	1414	n/a	n/a	0	0	0
3922452	WORD	wordpools/wasnorm_wordpool_576.txt	LTP355	ltpFR2	4	20	TRANSPLANT	1496	n/a	n/a	0	0	0
3925100	WORD	wordpools/wasnorm_wordpool_576.txt	LTP355	ltpFR2	4	20	ISLAND	745	n/a	n/a	0	0	0
3927550	WORD	wordpools/wasnorm_wordpool_576.txt	LTP355	ltpFR2	4	20	TAXI	1438	n/a	n/a	0	0	0
3930298	WORD	wordpools/wasnorm_wordpool_576.txt	LTP355	ltpFR2	4	20	STUDENT	1395	n/a	n/a	0	0	0
3932980	WORD	wordpools/wasnorm_wordpool_576.txt	LTP355	ltpFR2	4	20	CROWN	415	n/a	n/a	0	0	0
3935495	WORD	wordpools/wasnorm_wordpool_576.txt	LTP355	ltpFR2	4	20	SPOON	1357	n/a	n/a	0	0	0
3937977	WORD	wordpools/wasnorm_wordpool_576.txt	LTP355	ltpFR2	4	20	MASK	876	n/a	n/a	0	0	0
3940476	WORD	wordpools/wasnorm_wordpool_576.txt	LTP355	ltpFR2	4	20	SLIDE	1326	n/a	n/a	0	0	0
3943141	WORD	wordpools/wasnorm_wordpool_576.txt	LTP355	ltpFR2	4	20	CRICKET	408	n/a	n/a	0	0	0
3945823	WORD	wordpools/wasnorm_wordpool_576.txt	LTP355	ltpFR2	4	20	TROMBONE	1508	n/a	n/a	0	0	0
3948556	WORD	wordpools/wasnorm_wordpool_576.txt	LTP355	ltpFR2	4	20	GUITAR	670	n/a	n/a	0	0	0
3951087	WORD	wordpools/wasnorm_wordpool_576.txt	LTP355	ltpFR2	4	20	CLOTHES	327	n/a	n/a	0	0	0
3953903	WORD	wordpools/wasnorm_wordpool_576.txt	LTP355	ltpFR2	4	20	POCKET	1093	n/a	n/a	0	0	0
3956569	WORD	wordpools/wasnorm_wordpool_576.txt	LTP355	ltpFR2	4	20	PAIL	1002	n/a	n/a	0	0	0
3959317	WORD	wordpools/wasnorm_wordpool_576.txt	LTP355	ltpFR2	4	20	CLAM	315	n/a	n/a	0	0	0
3961899	WORD	wordpools/wasnorm_wordpool_576.txt	LTP355	ltpFR2	4	20	SPIDER	1351	n/a	n/a	0	0	0
3964648	WORD	wordpools/wasnorm_wordpool_576.txt	LTP355	ltpFR2	4	20	CUPBOARD	425	n/a	n/a	0	0	0
3967429	WORD	wordpools/wasnorm_wordpool_576.txt	LTP355	ltpFR2	4	20	RECORD	1176	n/a	n/a	0	0	0
3969045	START	n/a	LTP355	ltpFR2	4	n/a	n/a	n/a	31	n/a	n/a	n/a	n/a
3969888	DISTRACTOR	n/a	LTP355	ltpFR2	4	20	n/a	n/a	n/a	n/a	0	0	0
3969895	PROB	n/a	LTP355	ltpFR2	4	n/a	n/a	n/a	31	18	4	5	9
3971761	PROB	n/a	LTP355	ltpFR2	4	n/a	n/a	n/a	31	20	9	6	5
3974509	PROB	n/a	LTP355	ltpFR2	4	n/a	n/a	n/a	31	15	1	6	8
3976075	PROB	n/a	LTP355	ltpFR2	4	n/a	n/a	n/a	31	10	3	3	4
3977791	PROB	n/a	LTP355	ltpFR2	4	n/a	n/a	n/a	31	21	5	8	8
3980473	PROB	n/a	LTP355	ltpFR2	4	n/a	n/a	n/a	31	17	1	7	9
3981872	PROB	n/a	LTP355	ltpFR2	4	n/a	n/a	n/a	31	20	9	2	9
3983338	PROB	n/a	LTP355	ltpFR2	4	n/a	n/a	n/a	31	22	8	5	9
3986103	PROB	n/a	LTP355	ltpFR2	4	n/a	n/a	n/a	31	12	2	3	7
3987519	PROB	n/a	LTP355	ltpFR2	4	n/a	n/a	n/a	31	9	1	3	5
3989485	PROB	n/a	LTP355	ltpFR2	4	n/a	n/a	n/a	31	20	8	7	5
3992490	STOP	n/a	LTP355	ltpFR2	4	n/a	n/a	n/a	31	n/a	n/a	n/a	n/a
3994883	REC_START	n/a	LTP355	ltpFR2	4	20	n/a	n/a	n/a	n/a	0	0	0
3995531	REC_WORD	wordpools/wasnorm_wordpool_576.txt	LTP355	ltpFR2	4	20	ISLAND	745	n/a	n/a	0	0	0
3996356	REC_WORD	wordpools/wasnorm_wordpool_576.txt	LTP355	ltpFR2	4	20	PEPPER	1047	n/a	n/a	0	0	0
3997382	REC_WORD	wordpools/wasnorm_wordpool_576.txt	LTP355	ltpFR2	4	20	GARLIC	624	n/a	n/a	0	0	0
3998356	REC_WORD	wordpools/wasnorm_wordpool_576.txt	LTP355	ltpFR2	4	20	SPONGE	1355	n/a	n/a	0	0	0
4000848	REC_WORD	wordpools/wasnorm_wordpool_576.txt	LTP355	ltpFR2	4	20	SCISSORS	1250	n/a	n/a	0	0	0
4001887	REC_WORD	wordpools/wasnorm_wordpool_576.txt	LTP355	ltpFR2	4	20	WAITRESS	1581	n/a	n/a	0	0	0
4007247	REC_WORD	wordpools/wasnorm_wordpool_576.txt	LTP355	ltpFR2	4	20	TROMBONE	1508	n/a	n/a	0	0	0
4009763	REC_WORD	wordpools/wasnorm_wordpool_576.txt	LTP355	ltpFR2	4	20	GUITAR	670	n/a	n/a	0	0	0
4021071	REC_WORD	wordpools/wasnorm_wordpool_576.txt	LTP355	ltpFR2	4	20	SURVEY	1414	n/a	n/a	0	0	0
4030021	REC_WORD	wordpools/wasnorm_wordpool_576.txt	LTP355	ltpFR2	4	20	CLOTHES	327	n/a	n/a	0	0	0
4031005	REC_WORD	wordpools/wasnorm_wordpool_576.txt	LTP355	ltpFR2	4	20	POCKET	1093	n/a	n/a	0	0	0
4034412	REC_WORD	wordpools/wasnorm_wordpool_576.txt	LTP355	ltpFR2	4	20	SPIDER	1351	n/a	n/a	0	0	0
4085337	WORD	wordpools/wasnorm_wordpool_576.txt	LTP355	ltpFR2	4	21	DOUGHNUT	490	n/a	n/a	0	0	0
4087919	WORD	wordpools/wasnorm_wordpool_576.txt	LTP355	ltpFR2	4	21	TURKEY	1520	n/a	n/a	0	0	0
4090435	WORD	wordpools/wasnorm_wordpool_576.txt	LTP355	ltpFR2	4	21	SUPPER	1411	n/a	n/a	0	0	0
4092900	WORD	wordpools/wasnorm_wordpool_576.txt	LTP355	ltpFR2	4	21	SCOTCH	1251	n/a	n/a	0	0	0
4095667	WORD	wordpools/wasnorm_wordpool_576.txt	LTP355	ltpFR2	4	21	WORKER	1621	n/a	n/a	0	0	0
4098414	WORD	wordpools/wasnorm_wordpool_576.txt	LTP355	ltpFR2	4	21	LEADER	807	n/a	n/a	0	0	0
4101196	WORD	wordpools/wasnorm_wordpool_576.txt	LTP355	ltpFR2	4	21	AIRPLANE	12	n/a	n/a	0	0	0
4103861	WORD	wordpools/wasnorm_wordpool_576.txt	LTP355	ltpFR2	4	21	HUMAN	726	n/a	n/a	0	0	0
4106527	WORD	wordpools/wasnorm_wordpool_576.txt	LTP355	ltpFR2	4	21	SEAGULL	1261	n/a	n/a	0	0	0
4109059	WORD	wordpools/wasnorm_wordpool_576.txt	LTP355	ltpFR2	4	21	QUEEN	1149	n/a	n/a	0	0	0
4111725	WORD	wordpools/wasnorm_wordpool_576.txt	LTP355	ltpFR2	4	21	PALACE	1006	n/a	n/a	0	0	0
4114506	WORD	wordpools/wasnorm_wordpool_576.txt	LTP355	ltpFR2	4	21	PADDLE	1000	n/a	n/a	0	0	0
4117205	WORD	wordpools/wasnorm_wordpool_576.txt	LTP355	ltpFR2	4	21	DAISY	435	n/a	n/a	0	0	0
4119771	WORD	wordpools/wasnorm_wordpool_576.txt	LTP355	ltpFR2	4	21	CHURCH	307	n/a	n/a	0	0	0
4122553	WORD	wordpools/wasnorm_wordpool_576.txt	LTP355	ltpFR2	4	21	TRUCK	1512	n/a	n/a	0	0	0
4125168	WORD	wordpools/wasnorm_wordpool_576.txt	LTP355	ltpFR2	4	21	PACKAGE	997	n/a	n/a	0	0	0
4127634	WORD	wordpools/wasnorm_wordpool_576.txt	LTP355	ltpFR2	4	21	COURSE	390	n/a	n/a	0	0	0
4130132	WORD	wordpools/wasnorm_wordpool_576.txt	LTP355	ltpFR2	4	21	CHAMPAGNE	278	n/a	n/a	0	0	0
4132748	WORD	wordpools/wasnorm_wordpool_576.txt	LTP355	ltpFR2	4	21	BREAST	171	n/a	n/a	0	0	0
4135479	WORD	wordpools/wasnorm_wordpool_576.txt	LTP355	ltpFR2	4	21	COTTAGE	384	n/a	n/a	0	0	0
4138194	WORD	wordpools/wasnorm_wordpool_576.txt	LTP355	ltpFR2	4	21	BOX	159	n/a	n/a	0	0	0
4140711	WORD	wordpools/wasnorm_wordpool_576.txt	LTP355	ltpFR2	4	21	ZIPPER	1636	n/a	n/a	0	0	0
4143442	WORD	wordpools/wasnorm_wordpool_576.txt	LTP355	ltpFR2	4	21	MAILMAN	858	n/a	n/a	0	0	0
