onset	duration	trial_type	sample	stim_file	subject	experiment	session	trial	task	item_name	item_num	recog_resp	recog_conf	resp	color_r	color_g	color_b	case	font
325.752	n/a	SESS_START	162876	n/a	LTP223	ltpFR	3	n/a	n/a	n/a	n/a	0	5	n/a	n/a	n/a	n/a	n/a	n/a
553.04	n/a	WORD	276520	wordpools/wasnorm_wordpool_less_exclusions.txt	LTP223	ltpFR	3	1	0	LILY	821	1	n/a	n/a	0.422607421875	0.5869140625	0	lower	amplitud.ttf
556.084	n/a	SLOW_MSG	278042	n/a	LTP223	ltpFR	3	1	n/a	n/a	n/a	n/a	n/a	n/a	n/a	n/a	n/a	n/a	n/a
558.794	n/a	WORD	279397	wordpools/wasnorm_wordpool_less_exclusions.txt	LTP223	ltpFR	3	1	0	BLOSSOM	138	n/a	n/a	0	0.422607421875	0.5869140625	0	lower	amplitud.ttf
562.792	n/a	WORD	281396	wordpools/wasnorm_wordpool_less_exclusions.txt	LTP223	ltpFR	3	1	0	CHAMPAGNE	278	n/a	n/a	1	0.422607421875	0.5869140625	0	lower	amplitud.ttf
566.884	n/a	WORD	283442	wordpools/wasnorm_wordpool_less_exclusions.txt	LTP223	ltpFR	3	1	0	DRINK	498	n/a	n/a	0	0.422607421875	0.5869140625	0	lower	amplitud.ttf
571.074	n/a	WORD	285537	wordpools/wasnorm_wordpool_less_exclusions.txt	LTP223	ltpFR	3	1	1	DIVER	476	n/a	n/a	1	0.57763671875	0.412841796875	1	upper	zerothre.ttf
575.096	n/a	WORD	287548	wordpools/wasnorm_wordpool_less_exclusions.txt	LTP223	ltpFR	3	1	1	SHORE	1291	n/a	n/a	0	0.57763671875	0.412841796875	1	upper	zerothre.ttf
579.08	n/a	WORD	289540	wordpools/wasnorm_wordpool_less_exclusions.txt	LTP223	ltpFR	3	1	1	SCOUT	1252	n/a	n/a	1	0.57763671875	0.412841796875	1	upper	zerothre.ttf
583.12	n/a	WORD	291560	wordpools/wasnorm_wordpool_less_exclusions.txt	LTP223	ltpFR	3	1	1	DAUGHTER	442	n/a	n/a	1	0.57763671875	0.412841796875	1	upper	zerothre.ttf
587.036	n/a	WORD	293518	wordpools/wasnorm_wordpool_less_exclusions.txt	LTP223	ltpFR	3	1	0	REFRIGERATOR	1179	n/a	n/a	1	0.422607421875	0.5869140625	0	lower	amplitud.ttf
591.084	n/a	WORD	295542	wordpools/wasnorm_wordpool_less_exclusions.txt	LTP223	ltpFR	3	1	0	CUB	419	n/a	n/a	1	0.422607421875	0.5869140625	0	lower	amplitud.ttf
595.134	n/a	WORD	297567	wordpools/wasnorm_wordpool_less_exclusions.txt	LTP223	ltpFR	3	1	0	FRECKLE	602	n/a	n/a	0	0.422607421875	0.5869140625	0	lower	amplitud.ttf
599.032	n/a	WORD	299516	wordpools/wasnorm_wordpool_less_exclusions.txt	LTP223	ltpFR	3	1	0	CARNIVAL	245	n/a	n/a	1	0.422607421875	0.5869140625	0	lower	amplitud.ttf
602.954	n/a	WORD	301477	wordpools/wasnorm_wordpool_less_exclusions.txt	LTP223	ltpFR	3	1	1	ATOM	55	n/a	n/a	1	0.57763671875	0.412841796875	1	upper	zerothre.ttf
607.012	n/a	WORD	303506	wordpools/wasnorm_wordpool_less_exclusions.txt	LTP223	ltpFR	3	1	1	STRAW	1390	n/a	n/a	0	0.57763671875	0.412841796875	1	upper	zerothre.ttf
611.136	n/a	WORD	305568	wordpools/wasnorm_wordpool_less_exclusions.txt	LTP223	ltpFR	3	1	1	WHISKERS	1605	n/a	n/a	0	0.57763671875	0.412841796875	1	upper	zerothre.ttf
615.084	n/a	WORD	307542	wordpools/wasnorm_wordpool_less_exclusions.txt	LTP223	ltpFR	3	1	1	TRICYCLE	1506	n/a	n/a	0	0.57763671875	0.412841796875	1	upper	zerothre.ttf
621.042	n/a	REC_START	310521	n/a	LTP223	ltpFR	3	1	n/a	n/a	n/a	n/a	n/a	n/a	n/a	n/a	n/a	n/a	n/a
622.652	n/a	REC_WORD	311326	wordpools/wasnorm_wordpool_less_exclusions.txt	LTP223	ltpFR	3	1	1	TRICYCLE	1506	n/a	n/a	0	n/a	n/a	n/a	n/a	n/a
624.06	n/a	REC_WORD	312030	wordpools/wasnorm_wordpool_less_exclusions.txt	LTP223	ltpFR	3	1	1	STRAW	1390	n/a	n/a	0	n/a	n/a	n/a	n/a	n/a
625.85	n/a	REC_WORD	312925	wordpools/wasnorm_wordpool_less_exclusions.txt	LTP223	ltpFR	3	1	1	WHISKERS	1605	n/a	n/a	0	n/a	n/a	n/a	n/a	n/a
628.12	n/a	REC_WORD	314060	wordpools/wasnorm_wordpool_less_exclusions.txt	LTP223	ltpFR	3	1	0	CHAMPAGNE	278	n/a	n/a	1	n/a	n/a	n/a	n/a	n/a
631.642	n/a	REC_WORD	315821	wordpools/wasnorm_wordpool_less_exclusions.txt	LTP223	ltpFR	3	1	0	DRINK	498	n/a	n/a	0	n/a	n/a	n/a	n/a	n/a
638.352	n/a	REC_WORD	319176	wordpools/wasnorm_wordpool_less_exclusions.txt	LTP223	ltpFR	3	1	1	DAUGHTER	442	n/a	n/a	1	n/a	n/a	n/a	n/a	n/a
640.458	n/a	REC_WORD	320229	wordpools/wasnorm_wordpool_less_exclusions.txt	LTP223	ltpFR	3	1	1	SCOUT	1252	n/a	n/a	1	n/a	n/a	n/a	n/a	n/a
642.948	n/a	REC_WORD	321474	wordpools/wasnorm_wordpool_less_exclusions.txt	LTP223	ltpFR	3	1	n/a	OCEAN	970	n/a	n/a	n/a	n/a	n/a	n/a	n/a	n/a
652.536	n/a	REC_WORD	326268	wordpools/wasnorm_wordpool_less_exclusions.txt	LTP223	ltpFR	3	1	0	CUB	419	n/a	n/a	1	n/a	n/a	n/a	n/a	n/a
659.196	n/a	REC_WORD	329598	wordpools/wasnorm_wordpool_less_exclusions.txt	LTP223	ltpFR	3	1	n/a	MEADOW	881	n/a	n/a	n/a	n/a	n/a	n/a	n/a	n/a
708.022	n/a	WORD	354011	wordpools/wasnorm_wordpool_less_exclusions.txt	LTP223	ltpFR	3	2	1	VAN	1548	n/a	n/a	0	0.57763671875	0.412841796875	1	upper	zerothre.ttf
711.912	n/a	WORD	355956	wordpools/wasnorm_wordpool_less_exclusions.txt	LTP223	ltpFR	3	2	1	DANDELION	438	n/a	n/a	1	0.57763671875	0.412841796875	1	upper	zerothre.ttf
715.996	n/a	WORD	357998	wordpools/wasnorm_wordpool_less_exclusions.txt	LTP223	ltpFR	3	2	0	STEM	1376	n/a	n/a	n/a	0.422607421875	0.5869140625	0	lower	amplitud.ttf
719.04	n/a	SLOW_MSG	359520	n/a	LTP223	ltpFR	3	2	n/a	n/a	n/a	n/a	n/a	n/a	n/a	n/a	n/a	n/a	n/a
721.784	n/a	WORD	360892	wordpools/wasnorm_wordpool_less_exclusions.txt	LTP223	ltpFR	3	2	0	OFFICER	973	n/a	n/a	1	0.422607421875	0.5869140625	0	lower	amplitud.ttf
725.816	n/a	WORD	362908	wordpools/wasnorm_wordpool_less_exclusions.txt	LTP223	ltpFR	3	2	1	DOG	480	n/a	n/a	1	0.57763671875	0.412841796875	1	upper	zerothre.ttf
729.68	n/a	WORD	364840	wordpools/wasnorm_wordpool_less_exclusions.txt	LTP223	ltpFR	3	2	1	DRIVER	499	n/a	n/a	1	0.57763671875	0.412841796875	1	upper	zerothre.ttf
733.596	n/a	WORD	366798	wordpools/wasnorm_wordpool_less_exclusions.txt	LTP223	ltpFR	3	2	1	MAJOR	859	n/a	n/a	1	0.57763671875	0.412841796875	1	upper	zerothre.ttf
737.452	n/a	WORD	368726	wordpools/wasnorm_wordpool_less_exclusions.txt	LTP223	ltpFR	3	2	1	LEOPARD	812	n/a	n/a	1	0.57763671875	0.412841796875	1	upper	zerothre.ttf
741.376	n/a	WORD	370688	wordpools/wasnorm_wordpool_less_exclusions.txt	LTP223	ltpFR	3	2	0	CARD	243	n/a	n/a	n/a	0.422607421875	0.5869140625	0	lower	amplitud.ttf
744.42	n/a	SLOW_MSG	372210	n/a	LTP223	ltpFR	3	2	n/a	n/a	n/a	n/a	n/a	n/a	n/a	n/a	n/a	n/a	n/a
747.138	n/a	WORD	373569	wordpools/wasnorm_wordpool_less_exclusions.txt	LTP223	ltpFR	3	2	0	ROUGE	1213	n/a	n/a	1	0.422607421875	0.5869140625	0	lower	amplitud.ttf
751.22	n/a	WORD	375610	wordpools/wasnorm_wordpool_less_exclusions.txt	LTP223	ltpFR	3	2	0	SHORTCAKE	1292	n/a	n/a	n/a	0.422607421875	0.5869140625	0	lower	amplitud.ttf
754.266	n/a	SLOW_MSG	377133	n/a	LTP223	ltpFR	3	2	n/a	n/a	n/a	n/a	n/a	n/a	n/a	n/a	n/a	n/a	n/a
756.886	n/a	WORD	378443	wordpools/wasnorm_wordpool_less_exclusions.txt	LTP223	ltpFR	3	2	0	HELMET	702	n/a	n/a	1	0.422607421875	0.5869140625	0	lower	amplitud.ttf
761.092	n/a	WORD	380546	wordpools/wasnorm_wordpool_less_exclusions.txt	LTP223	ltpFR	3	2	0	FRANCE	601	n/a	n/a	1	0.422607421875	0.5869140625	0	lower	amplitud.ttf
765.2	n/a	WORD	382600	wordpools/wasnorm_wordpool_less_exclusions.txt	LTP223	ltpFR	3	2	0	MICROWAVE	892	n/a	n/a	1	0.422607421875	0.5869140625	0	lower	amplitud.ttf
769.332	n/a	WORD	384666	wordpools/wasnorm_wordpool_less_exclusions.txt	LTP223	ltpFR	3	2	1	CREAM	402	n/a	n/a	2	0.57763671875	0.412841796875	1	upper	zerothre.ttf
770.796	n/a	KEY_MSG	385398	n/a	LTP223	ltpFR	3	2	n/a	n/a	n/a	n/a	n/a	n/a	n/a	n/a	n/a	n/a	n/a
773.214	n/a	WORD	386607	wordpools/wasnorm_wordpool_less_exclusions.txt	LTP223	ltpFR	3	2	1	TEA	1439	n/a	n/a	0	0.57763671875	0.412841796875	1	upper	zerothre.ttf
779.228	n/a	REC_START	389614	n/a	LTP223	ltpFR	3	2	n/a	n/a	n/a	n/a	n/a	n/a	n/a	n/a	n/a	n/a	n/a
781.218	n/a	REC_WORD	390609	wordpools/wasnorm_wordpool_less_exclusions.txt	LTP223	ltpFR	3	2	1	TEA	1439	n/a	n/a	0	n/a	n/a	n/a	n/a	n/a
782.372	n/a	REC_WORD	391186	wordpools/wasnorm_wordpool_less_exclusions.txt	LTP223	ltpFR	3	2	0	MICROWAVE	892	n/a	n/a	1	n/a	n/a	n/a	n/a	n/a
783.372	n/a	REC_WORD_VV	391686	wordpools/wasnorm_wordpool_less_exclusions.txt	LTP223	ltpFR	3	2	n/a	<>	-1	n/a	n/a	n/a	n/a	n/a	n/a	n/a	n/a
784.472	n/a	REC_WORD	392236	wordpools/wasnorm_wordpool_less_exclusions.txt	LTP223	ltpFR	3	2	0	HELMET	702	n/a	n/a	1	n/a	n/a	n/a	n/a	n/a
811.028	n/a	REC_WORD	405514	wordpools/wasnorm_wordpool_less_exclusions.txt	LTP223	ltpFR	3	2	0	FRANCE	601	n/a	n/a	1	n/a	n/a	n/a	n/a	n/a
872.618	n/a	WORD	436309	wordpools/wasnorm_wordpool_less_exclusions.txt	LTP223	ltpFR	3	3	1	SUIT	1402	n/a	n/a	1	0.57763671875	0.412841796875	1	upper	zerothre.ttf
876.592	n/a	WORD	438296	wordpools/wasnorm_wordpool_less_exclusions.txt	LTP223	ltpFR	3	3	1	PONY	1102	n/a	n/a	1	0.57763671875	0.412841796875	1	upper	zerothre.ttf
880.456	n/a	WORD	440228	wordpools/wasnorm_wordpool_less_exclusions.txt	LTP223	ltpFR	3	3	1	SUPPER	1411	n/a	n/a	0	0.57763671875	0.412841796875	1	upper	zerothre.ttf
884.514	n/a	WORD	442257	wordpools/wasnorm_wordpool_less_exclusions.txt	LTP223	ltpFR	3	3	1	MINK	897	n/a	n/a	1	0.57763671875	0.412841796875	1	upper	zerothre.ttf
888.73	n/a	WORD	444365	wordpools/wasnorm_wordpool_less_exclusions.txt	LTP223	ltpFR	3	3	1	BEARD	107	n/a	n/a	0	0.57763671875	0.412841796875	1	upper	zerothre.ttf
892.67	n/a	WORD	446335	wordpools/wasnorm_wordpool_less_exclusions.txt	LTP223	ltpFR	3	3	1	OX	994	n/a	n/a	1	0.57763671875	0.412841796875	1	upper	zerothre.ttf
896.802	n/a	WORD	448401	wordpools/wasnorm_wordpool_less_exclusions.txt	LTP223	ltpFR	3	3	1	ANTEATER	26	n/a	n/a	1	0.57763671875	0.412841796875	1	upper	zerothre.ttf
900.884	n/a	WORD	450442	wordpools/wasnorm_wordpool_less_exclusions.txt	LTP223	ltpFR	3	3	1	ORANGE	980	n/a	n/a	0	0.57763671875	0.412841796875	1	upper	zerothre.ttf
904.868	n/a	WORD	452434	wordpools/wasnorm_wordpool_less_exclusions.txt	LTP223	ltpFR	3	3	1	ZUCCHINI	1638	n/a	n/a	0	0.57763671875	0.412841796875	1	upper	zerothre.ttf
909.084	n/a	WORD	454542	wordpools/wasnorm_wordpool_less_exclusions.txt	LTP223	ltpFR	3	3	1	SIREN	1310	n/a	n/a	0	0.57763671875	0.412841796875	1	upper	zerothre.ttf
913.3	n/a	WORD	456650	wordpools/wasnorm_wordpool_less_exclusions.txt	LTP223	ltpFR	3	3	1	COD	340	n/a	n/a	1	0.57763671875	0.412841796875	1	upper	zerothre.ttf
917.298	n/a	WORD	458649	wordpools/wasnorm_wordpool_less_exclusions.txt	LTP223	ltpFR	3	3	1	SHARK	1275	n/a	n/a	1	0.57763671875	0.412841796875	1	upper	zerothre.ttf
921.322	n/a	WORD	460661	wordpools/wasnorm_wordpool_less_exclusions.txt	LTP223	ltpFR	3	3	1	DINNER	468	n/a	n/a	0	0.57763671875	0.412841796875	1	upper	zerothre.ttf
925.496	n/a	WORD	462748	wordpools/wasnorm_wordpool_less_exclusions.txt	LTP223	ltpFR	3	3	1	BARLEY	88	n/a	n/a	0	0.57763671875	0.412841796875	1	upper	zerothre.ttf
929.67	n/a	WORD	464835	wordpools/wasnorm_wordpool_less_exclusions.txt	LTP223	ltpFR	3	3	1	UNCLE	1536	n/a	n/a	1	0.57763671875	0.412841796875	1	upper	zerothre.ttf
933.784	n/a	WORD	466892	wordpools/wasnorm_wordpool_less_exclusions.txt	LTP223	ltpFR	3	3	1	DOLPHIN	483	n/a	n/a	1	0.57763671875	0.412841796875	1	upper	zerothre.ttf
939.568	n/a	REC_START	469784	n/a	LTP223	ltpFR	3	3	n/a	n/a	n/a	n/a	n/a	n/a	n/a	n/a	n/a	n/a	n/a
940.86	n/a	REC_WORD	470430	wordpools/wasnorm_wordpool_less_exclusions.txt	LTP223	ltpFR	3	3	1	DOLPHIN	483	n/a	n/a	1	n/a	n/a	n/a	n/a	n/a
941.632	n/a	REC_WORD	470816	wordpools/wasnorm_wordpool_less_exclusions.txt	LTP223	ltpFR	3	3	1	SHARK	1275	n/a	n/a	1	n/a	n/a	n/a	n/a	n/a
943.06	n/a	REC_WORD	471530	wordpools/wasnorm_wordpool_less_exclusions.txt	LTP223	ltpFR	3	3	1	COD	340	n/a	n/a	1	n/a	n/a	n/a	n/a	n/a
944.456	n/a	REC_WORD	472228	wordpools/wasnorm_wordpool_less_exclusions.txt	LTP223	ltpFR	3	3	1	UNCLE	1536	n/a	n/a	1	n/a	n/a	n/a	n/a	n/a
947.126	n/a	REC_WORD	473563	wordpools/wasnorm_wordpool_less_exclusions.txt	LTP223	ltpFR	3	3	1	BARLEY	88	n/a	n/a	0	n/a	n/a	n/a	n/a	n/a
954.788	n/a	REC_WORD	477394	wordpools/wasnorm_wordpool_less_exclusions.txt	LTP223	ltpFR	3	3	1	COD	340	n/a	n/a	1	n/a	n/a	n/a	n/a	n/a
977.338	n/a	REC_WORD	488669	wordpools/wasnorm_wordpool_less_exclusions.txt	LTP223	ltpFR	3	3	1	SUIT	1402	n/a	n/a	1	n/a	n/a	n/a	n/a	n/a
982.028	n/a	REC_WORD	491014	wordpools/wasnorm_wordpool_less_exclusions.txt	LTP223	ltpFR	3	3	1	ZUCCHINI	1638	n/a	n/a	0	n/a	n/a	n/a	n/a	n/a
989.55	n/a	REC_WORD	494775	wordpools/wasnorm_wordpool_less_exclusions.txt	LTP223	ltpFR	3	3	1	DINNER	468	n/a	n/a	0	n/a	n/a	n/a	n/a	n/a
1028.674	n/a	WORD	514337	wordpools/wasnorm_wordpool_less_exclusions.txt	LTP223	ltpFR	3	4	0	CANDIDATE	228	n/a	n/a	n/a	0.422607421875	0.5869140625	0	lower	amplitud.ttf
1031.718	n/a	SLOW_MSG	515859	n/a	LTP223	ltpFR	3	4	n/a	n/a	n/a	n/a	n/a	n/a	n/a	n/a	n/a	n/a	n/a
1034.312	n/a	WORD	517156	wordpools/wasnorm_wordpool_less_exclusions.txt	LTP223	ltpFR	3	4	0	STOVE	1388	n/a	n/a	1	0.422607421875	0.5869140625	0	lower	amplitud.ttf
1038.394	n/a	WORD	519197	wordpools/wasnorm_wordpool_less_exclusions.txt	LTP223	ltpFR	3	4	0	WRITER	1627	n/a	n/a	1	0.422607421875	0.5869140625	0	lower	amplitud.ttf
1042.5	n/a	WORD	521250	wordpools/wasnorm_wordpool_less_exclusions.txt	LTP223	ltpFR	3	4	1	BEE	112	n/a	n/a	1	0.57763671875	0.412841796875	1	upper	zerothre.ttf
1046.726	n/a	WORD	523363	wordpools/wasnorm_wordpool_less_exclusions.txt	LTP223	ltpFR	3	4	1	CIGARETTE	309	n/a	n/a	0	0.57763671875	0.412841796875	1	upper	zerothre.ttf
1050.866	n/a	WORD	525433	wordpools/wasnorm_wordpool_less_exclusions.txt	LTP223	ltpFR	3	4	1	LIGHTER	819	n/a	n/a	0	0.57763671875	0.412841796875	1	upper	zerothre.ttf
1054.764	n/a	WORD	527382	wordpools/wasnorm_wordpool_less_exclusions.txt	LTP223	ltpFR	3	4	1	NUCLEUS	961	n/a	n/a	1	0.57763671875	0.412841796875	1	upper	zerothre.ttf
1058.688	n/a	WORD	529344	wordpools/wasnorm_wordpool_less_exclusions.txt	LTP223	ltpFR	3	4	0	SWAMP	1416	n/a	n/a	1	0.422607421875	0.5869140625	0	lower	amplitud.ttf
1062.62	n/a	WORD	531310	wordpools/wasnorm_wordpool_less_exclusions.txt	LTP223	ltpFR	3	4	0	SNAKE	1333	n/a	n/a	1	0.422607421875	0.5869140625	0	lower	amplitud.ttf
1066.718	n/a	WORD	533359	wordpools/wasnorm_wordpool_less_exclusions.txt	LTP223	ltpFR	3	4	0	LIMB	822	n/a	n/a	n/a	0.422607421875	0.5869140625	0	lower	amplitud.ttf
1069.764	n/a	SLOW_MSG	534882	n/a	LTP223	ltpFR	3	4	n/a	n/a	n/a	n/a	n/a	n/a	n/a	n/a	n/a	n/a	n/a
1072.492	n/a	WORD	536246	wordpools/wasnorm_wordpool_less_exclusions.txt	LTP223	ltpFR	3	4	1	DETERGENT	455	n/a	n/a	0	0.57763671875	0.412841796875	1	upper	zerothre.ttf
1076.356	n/a	WORD	538178	wordpools/wasnorm_wordpool_less_exclusions.txt	LTP223	ltpFR	3	4	1	DIAL	457	n/a	n/a	0	0.57763671875	0.412841796875	1	upper	zerothre.ttf
1080.412	n/a	WORD	540206	wordpools/wasnorm_wordpool_less_exclusions.txt	LTP223	ltpFR	3	4	1	ASHTRAY	45	n/a	n/a	0	0.57763671875	0.412841796875	1	upper	zerothre.ttf
1084.486	n/a	WORD	542243	wordpools/wasnorm_wordpool_less_exclusions.txt	LTP223	ltpFR	3	4	1	ELECTRON	522	n/a	n/a	0	0.57763671875	0.412841796875	1	upper	zerothre.ttf
1088.71	n/a	WORD	544355	wordpools/wasnorm_wordpool_less_exclusions.txt	LTP223	ltpFR	3	4	0	SAP	1233	n/a	n/a	0	0.422607421875	0.5869140625	0	lower	amplitud.ttf
1092.602	n/a	WORD	546301	wordpools/wasnorm_wordpool_less_exclusions.txt	LTP223	ltpFR	3	4	0	MESSAGE	888	n/a	n/a	0	0.422607421875	0.5869140625	0	lower	amplitud.ttf
1098.416	n/a	REC_START	549208	n/a	LTP223	ltpFR	3	4	n/a	n/a	n/a	n/a	n/a	n/a	n/a	n/a	n/a	n/a	n/a
1100.066	n/a	REC_WORD	550033	wordpools/wasnorm_wordpool_less_exclusions.txt	LTP223	ltpFR	3	4	0	SAP	1233	n/a	n/a	0	n/a	n/a	n/a	n/a	n/a
1101.598	n/a	REC_WORD	550799	wordpools/wasnorm_wordpool_less_exclusions.txt	LTP223	ltpFR	3	4	0	MESSAGE	888	n/a	n/a	0	n/a	n/a	n/a	n/a	n/a
1103.264	n/a	REC_WORD	551632	wordpools/wasnorm_wordpool_less_exclusions.txt	LTP223	ltpFR	3	4	1	ELECTRON	522	n/a	n/a	0	n/a	n/a	n/a	n/a	n/a
1107.38	n/a	REC_WORD	553690	wordpools/wasnorm_wordpool_less_exclusions.txt	LTP223	ltpFR	3	4	0	LIMB	822	n/a	n/a	n/a	n/a	n/a	n/a	n/a	n/a
1110.692	n/a	REC_WORD	555346	wordpools/wasnorm_wordpool_less_exclusions.txt	LTP223	ltpFR	3	4	0	STOVE	1388	n/a	n/a	1	n/a	n/a	n/a	n/a	n/a
1128.558	n/a	REC_WORD	564279	wordpools/wasnorm_wordpool_less_exclusions.txt	LTP223	ltpFR	3	4	0	SAP	1233	n/a	n/a	0	n/a	n/a	n/a	n/a	n/a
1154.53	n/a	REC_WORD	577265	wordpools/wasnorm_wordpool_less_exclusions.txt	LTP223	ltpFR	3	4	1	ASHTRAY	45	n/a	n/a	0	n/a	n/a	n/a	n/a	n/a
1161.22	n/a	REC_WORD	580610	wordpools/wasnorm_wordpool_less_exclusions.txt	LTP223	ltpFR	3	4	1	CIGARETTE	309	n/a	n/a	0	n/a	n/a	n/a	n/a	n/a
1172.526	n/a	REC_WORD	586263	wordpools/wasnorm_wordpool_less_exclusions.txt	LTP223	ltpFR	3	4	0	STOVE	1388	n/a	n/a	1	n/a	n/a	n/a	n/a	n/a
1194.574	n/a	WORD	597287	wordpools/wasnorm_wordpool_less_exclusions.txt	LTP223	ltpFR	3	5	1	MOUNTAIN	924	n/a	n/a	0	0.57763671875	0.412841796875	1	upper	zerothre.ttf
1198.68	n/a	WORD	599340	wordpools/wasnorm_wordpool_less_exclusions.txt	LTP223	ltpFR	3	5	1	CANYON	235	n/a	n/a	n/a	0.57763671875	0.412841796875	1	upper	zerothre.ttf
1201.726	n/a	SLOW_MSG	600863	n/a	LTP223	ltpFR	3	5	n/a	n/a	n/a	n/a	n/a	n/a	n/a	n/a	n/a	n/a	n/a
1204.218	n/a	WORD	602109	wordpools/wasnorm_wordpool_less_exclusions.txt	LTP223	ltpFR	3	5	1	CORD	379	n/a	n/a	0	0.57763671875	0.412841796875	1	upper	zerothre.ttf
1208.244	n/a	WORD	604122	wordpools/wasnorm_wordpool_less_exclusions.txt	LTP223	ltpFR	3	5	1	TYPIST	1532	n/a	n/a	1	0.57763671875	0.412841796875	1	upper	zerothre.ttf
1212.326	n/a	WORD	606163	wordpools/wasnorm_wordpool_less_exclusions.txt	LTP223	ltpFR	3	5	0	MULE	931	n/a	n/a	1	0.422607421875	0.5869140625	0	lower	amplitud.ttf
1216.374	n/a	WORD	608187	wordpools/wasnorm_wordpool_less_exclusions.txt	LTP223	ltpFR	3	5	0	PEARL	1034	n/a	n/a	0	0.422607421875	0.5869140625	0	lower	amplitud.ttf
1220.422	n/a	WORD	610211	wordpools/wasnorm_wordpool_less_exclusions.txt	LTP223	ltpFR	3	5	0	VALVE	1546	n/a	n/a	0	0.422607421875	0.5869140625	0	lower	amplitud.ttf
1224.614	n/a	WORD	612307	wordpools/wasnorm_wordpool_less_exclusions.txt	LTP223	ltpFR	3	5	0	RUST	1219	n/a	n/a	0	0.422607421875	0.5869140625	0	lower	amplitud.ttf
1228.454	n/a	WORD	614227	wordpools/wasnorm_wordpool_less_exclusions.txt	LTP223	ltpFR	3	5	1	LIVER	833	n/a	n/a	0	0.57763671875	0.412841796875	1	upper	zerothre.ttf
1232.576	n/a	WORD	616288	wordpools/wasnorm_wordpool_less_exclusions.txt	LTP223	ltpFR	3	5	1	RADISH	1158	n/a	n/a	0	0.57763671875	0.412841796875	1	upper	zerothre.ttf
1236.76	n/a	WORD	618380	wordpools/wasnorm_wordpool_less_exclusions.txt	LTP223	ltpFR	3	5	1	COLT	349	n/a	n/a	1	0.57763671875	0.412841796875	1	upper	zerothre.ttf
1240.65	n/a	WORD	620325	wordpools/wasnorm_wordpool_less_exclusions.txt	LTP223	ltpFR	3	5	1	POTATO	1115	n/a	n/a	0	0.57763671875	0.412841796875	1	upper	zerothre.ttf
1244.774	n/a	WORD	622387	wordpools/wasnorm_wordpool_less_exclusions.txt	LTP223	ltpFR	3	5	0	COMEDIAN	352	n/a	n/a	1	0.422607421875	0.5869140625	0	lower	amplitud.ttf
1248.682	n/a	WORD	624341	wordpools/wasnorm_wordpool_less_exclusions.txt	LTP223	ltpFR	3	5	0	BOARD	143	n/a	n/a	1	0.422607421875	0.5869140625	0	lower	amplitud.ttf
1252.686	n/a	WORD	626343	wordpools/wasnorm_wordpool_less_exclusions.txt	LTP223	ltpFR	3	5	0	COIN	343	n/a	n/a	0	0.422607421875	0.5869140625	0	lower	amplitud.ttf
1256.652	n/a	WORD	628326	wordpools/wasnorm_wordpool_less_exclusions.txt	LTP223	ltpFR	3	5	0	TOMATO	1476	n/a	n/a	0	0.422607421875	0.5869140625	0	lower	amplitud.ttf
1262.536	n/a	REC_START	631268	n/a	LTP223	ltpFR	3	5	n/a	n/a	n/a	n/a	n/a	n/a	n/a	n/a	n/a	n/a	n/a
1263.948	n/a	REC_WORD	631974	wordpools/wasnorm_wordpool_less_exclusions.txt	LTP223	ltpFR	3	5	0	TOMATO	1476	n/a	n/a	0	n/a	n/a	n/a	n/a	n/a
1267.884	n/a	REC_WORD	633942	wordpools/wasnorm_wordpool_less_exclusions.txt	LTP223	ltpFR	3	5	0	PEARL	1034	n/a	n/a	0	n/a	n/a	n/a	n/a	n/a
1274.514	n/a	REC_WORD	637257	wordpools/wasnorm_wordpool_less_exclusions.txt	LTP223	ltpFR	3	5	0	BOARD	143	n/a	n/a	1	n/a	n/a	n/a	n/a	n/a
1318.79	n/a	REC_WORD	659395	wordpools/wasnorm_wordpool_less_exclusions.txt	LTP223	ltpFR	3	5	1	CORD	379	n/a	n/a	0	n/a	n/a	n/a	n/a	n/a
1335.648	n/a	REC_WORD	667824	wordpools/wasnorm_wordpool_less_exclusions.txt	LTP223	ltpFR	3	5	n/a	ARTIST	43	n/a	n/a	n/a	n/a	n/a	n/a	n/a	n/a
1353.84	n/a	WORD	676920	wordpools/wasnorm_wordpool_less_exclusions.txt	LTP223	ltpFR	3	6	1	BEET	115	n/a	n/a	0	0.57763671875	0.412841796875	1	upper	zerothre.ttf
1357.916	n/a	WORD	678958	wordpools/wasnorm_wordpool_less_exclusions.txt	LTP223	ltpFR	3	6	1	ANTELOPE	27	n/a	n/a	1	0.57763671875	0.412841796875	1	upper	zerothre.ttf
1361.922	n/a	WORD	680961	wordpools/wasnorm_wordpool_less_exclusions.txt	LTP223	ltpFR	3	6	0	CAR	241	n/a	n/a	n/a	0.422607421875	0.5869140625	0	lower	amplitud.ttf
1364.966	n/a	SLOW_MSG	682483	n/a	LTP223	ltpFR	3	6	n/a	n/a	n/a	n/a	n/a	n/a	n/a	n/a	n/a	n/a	n/a
1367.484	n/a	WORD	683742	wordpools/wasnorm_wordpool_less_exclusions.txt	LTP223	ltpFR	3	6	0	SUPERMARKET	1409	n/a	n/a	1	0.422607421875	0.5869140625	0	lower	amplitud.ttf
1371.684	n/a	WORD	685842	wordpools/wasnorm_wordpool_less_exclusions.txt	LTP223	ltpFR	3	6	0	TICK	1463	n/a	n/a	0	0.422607421875	0.5869140625	0	lower	amplitud.ttf
1375.824	n/a	WORD	687912	wordpools/wasnorm_wordpool_less_exclusions.txt	LTP223	ltpFR	3	6	0	CUSTOMER	430	n/a	n/a	1	0.422607421875	0.5869140625	0	lower	amplitud.ttf
1379.866	n/a	WORD	689933	wordpools/wasnorm_wordpool_less_exclusions.txt	LTP223	ltpFR	3	6	0	PORTRAIT	1111	n/a	n/a	1	0.422607421875	0.5869140625	0	lower	amplitud.ttf
1383.888	n/a	WORD	691944	wordpools/wasnorm_wordpool_less_exclusions.txt	LTP223	ltpFR	3	6	0	ARTIST	43	n/a	n/a	1	0.422607421875	0.5869140625	0	lower	amplitud.ttf
1388.02	n/a	WORD	694010	wordpools/wasnorm_wordpool_less_exclusions.txt	LTP223	ltpFR	3	6	1	SUITE	1404	n/a	n/a	1	0.57763671875	0.412841796875	1	upper	zerothre.ttf
1392.004	n/a	WORD	696002	wordpools/wasnorm_wordpool_less_exclusions.txt	LTP223	ltpFR	3	6	1	OWNER	993	n/a	n/a	1	0.57763671875	0.412841796875	1	upper	zerothre.ttf
1396.128	n/a	WORD	698064	wordpools/wasnorm_wordpool_less_exclusions.txt	LTP223	ltpFR	3	6	1	TAIL	1430	n/a	n/a	0	0.57763671875	0.412841796875	1	upper	zerothre.ttf
1399.966	n/a	WORD	699983	wordpools/wasnorm_wordpool_less_exclusions.txt	LTP223	ltpFR	3	6	0	BURGLAR	200	n/a	n/a	1	0.422607421875	0.5869140625	0	lower	amplitud.ttf
1403.858	n/a	WORD	701929	wordpools/wasnorm_wordpool_less_exclusions.txt	LTP223	ltpFR	3	6	0	TROUT	1511	n/a	n/a	1	0.422607421875	0.5869140625	0	lower	amplitud.ttf
1407.706	n/a	WORD	703853	wordpools/wasnorm_wordpool_less_exclusions.txt	LTP223	ltpFR	3	6	1	FIN	566	n/a	n/a	0	0.57763671875	0.412841796875	1	upper	zerothre.ttf
1411.738	n/a	WORD	705869	wordpools/wasnorm_wordpool_less_exclusions.txt	LTP223	ltpFR	3	6	1	PLASTER	1085	n/a	n/a	0	0.57763671875	0.412841796875	1	upper	zerothre.ttf
1415.962	n/a	WORD	707981	wordpools/wasnorm_wordpool_less_exclusions.txt	LTP223	ltpFR	3	6	1	APARTMENT	30	n/a	n/a	0	0.57763671875	0.412841796875	1	upper	zerothre.ttf
1421.634	n/a	REC_START	710817	n/a	LTP223	ltpFR	3	6	n/a	n/a	n/a	n/a	n/a	n/a	n/a	n/a	n/a	n/a	n/a
1423.504	n/a	REC_WORD	711752	wordpools/wasnorm_wordpool_less_exclusions.txt	LTP223	ltpFR	3	6	1	FIN	566	n/a	n/a	0	n/a	n/a	n/a	n/a	n/a
1424.632	n/a	REC_WORD	712316	wordpools/wasnorm_wordpool_less_exclusions.txt	LTP223	ltpFR	3	6	1	PLASTER	1085	n/a	n/a	0	n/a	n/a	n/a	n/a	n/a
1426.222	n/a	REC_WORD	713111	wordpools/wasnorm_wordpool_less_exclusions.txt	LTP223	ltpFR	3	6	1	APARTMENT	30	n/a	n/a	0	n/a	n/a	n/a	n/a	n/a
1462.208	n/a	REC_WORD	731104	wordpools/wasnorm_wordpool_less_exclusions.txt	LTP223	ltpFR	3	6	1	SUIT	1402	n/a	n/a	1	n/a	n/a	n/a	n/a	n/a
1477.734	n/a	REC_WORD	738867	wordpools/wasnorm_wordpool_less_exclusions.txt	LTP223	ltpFR	3	6	1	TAIL	1430	n/a	n/a	0	n/a	n/a	n/a	n/a	n/a
1483.814	n/a	REC_WORD	741907	wordpools/wasnorm_wordpool_less_exclusions.txt	LTP223	ltpFR	3	6	1	ANTELOPE	27	n/a	n/a	1	n/a	n/a	n/a	n/a	n/a
1492.472	n/a	REC_WORD	746236	wordpools/wasnorm_wordpool_less_exclusions.txt	LTP223	ltpFR	3	6	0	ARTIST	43	n/a	n/a	1	n/a	n/a	n/a	n/a	n/a
1496.064	n/a	REC_WORD	748032	wordpools/wasnorm_wordpool_less_exclusions.txt	LTP223	ltpFR	3	6	0	PORTRAIT	1111	n/a	n/a	1	n/a	n/a	n/a	n/a	n/a
1514.698	n/a	WORD	757349	wordpools/wasnorm_wordpool_less_exclusions.txt	LTP223	ltpFR	3	7	0	VENT	1556	n/a	n/a	1	0.422607421875	0.5869140625	0	lower	amplitud.ttf
1518.636	n/a	WORD	759318	wordpools/wasnorm_wordpool_less_exclusions.txt	LTP223	ltpFR	3	7	0	TONGUE	1479	n/a	n/a	0	0.422607421875	0.5869140625	0	lower	amplitud.ttf
1522.804	n/a	WORD	761402	wordpools/wasnorm_wordpool_less_exclusions.txt	LTP223	ltpFR	3	7	0	DECK	443	n/a	n/a	1	0.422607421875	0.5869140625	0	lower	amplitud.ttf
1526.852	n/a	WORD	763426	wordpools/wasnorm_wordpool_less_exclusions.txt	LTP223	ltpFR	3	7	0	KING	777	n/a	n/a	1	0.422607421875	0.5869140625	0	lower	amplitud.ttf
1530.816	n/a	WORD	765408	wordpools/wasnorm_wordpool_less_exclusions.txt	LTP223	ltpFR	3	7	0	PEPPER	1047	n/a	n/a	0	0.422607421875	0.5869140625	0	lower	amplitud.ttf
1535.016	n/a	WORD	767508	wordpools/wasnorm_wordpool_less_exclusions.txt	LTP223	ltpFR	3	7	0	GALLON	618	n/a	n/a	1	0.422607421875	0.5869140625	0	lower	amplitud.ttf
1539.064	n/a	WORD	769532	wordpools/wasnorm_wordpool_less_exclusions.txt	LTP223	ltpFR	3	7	0	ANIMAL	23	n/a	n/a	1	0.422607421875	0.5869140625	0	lower	amplitud.ttf
1542.94	n/a	WORD	771470	wordpools/wasnorm_wordpool_less_exclusions.txt	LTP223	ltpFR	3	7	0	MOOSE	915	n/a	n/a	1	0.422607421875	0.5869140625	0	lower	amplitud.ttf
1547.138	n/a	WORD	773569	wordpools/wasnorm_wordpool_less_exclusions.txt	LTP223	ltpFR	3	7	0	HERB	704	n/a	n/a	0	0.422607421875	0.5869140625	0	lower	amplitud.ttf
1551.294	n/a	WORD	775647	wordpools/wasnorm_wordpool_less_exclusions.txt	LTP223	ltpFR	3	7	0	BASSINET	97	n/a	n/a	1	0.422607421875	0.5869140625	0	lower	amplitud.ttf
1555.52	n/a	WORD	777760	wordpools/wasnorm_wordpool_less_exclusions.txt	LTP223	ltpFR	3	7	0	BABY	64	n/a	n/a	1	0.422607421875	0.5869140625	0	lower	amplitud.ttf
1559.578	n/a	WORD	779789	wordpools/wasnorm_wordpool_less_exclusions.txt	LTP223	ltpFR	3	7	0	BEAR	106	n/a	n/a	1	0.422607421875	0.5869140625	0	lower	amplitud.ttf
1563.776	n/a	WORD	781888	wordpools/wasnorm_wordpool_less_exclusions.txt	LTP223	ltpFR	3	7	0	JURY	766	n/a	n/a	1	0.422607421875	0.5869140625	0	lower	amplitud.ttf
1567.908	n/a	WORD	783954	wordpools/wasnorm_wordpool_less_exclusions.txt	LTP223	ltpFR	3	7	0	BASKETBALL	96	n/a	n/a	1	0.422607421875	0.5869140625	0	lower	amplitud.ttf
1572.066	n/a	WORD	786033	wordpools/wasnorm_wordpool_less_exclusions.txt	LTP223	ltpFR	3	7	0	RIVER	1194	n/a	n/a	1	0.422607421875	0.5869140625	0	lower	amplitud.ttf
1576.24	n/a	WORD	788120	wordpools/wasnorm_wordpool_less_exclusions.txt	LTP223	ltpFR	3	7	0	DICTATOR	462	n/a	n/a	1	0.422607421875	0.5869140625	0	lower	amplitud.ttf
1582.14	n/a	REC_START	791070	n/a	LTP223	ltpFR	3	7	n/a	n/a	n/a	n/a	n/a	n/a	n/a	n/a	n/a	n/a	n/a
1584.23	n/a	REC_WORD	792115	wordpools/wasnorm_wordpool_less_exclusions.txt	LTP223	ltpFR	3	7	0	BABY	64	n/a	n/a	1	n/a	n/a	n/a	n/a	n/a
1585.362	n/a	REC_WORD	792681	wordpools/wasnorm_wordpool_less_exclusions.txt	LTP223	ltpFR	3	7	0	BASSINET	97	n/a	n/a	1	n/a	n/a	n/a	n/a	n/a
1587.058	n/a	REC_WORD	793529	wordpools/wasnorm_wordpool_less_exclusions.txt	LTP223	ltpFR	3	7	0	DICTATOR	462	n/a	n/a	1	n/a	n/a	n/a	n/a	n/a
1600.23	n/a	REC_WORD	800115	wordpools/wasnorm_wordpool_less_exclusions.txt	LTP223	ltpFR	3	7	0	BASKETBALL	96	n/a	n/a	1	n/a	n/a	n/a	n/a	n/a
1629.414	n/a	REC_WORD	814707	wordpools/wasnorm_wordpool_less_exclusions.txt	LTP223	ltpFR	3	7	0	TONGUE	1479	n/a	n/a	0	n/a	n/a	n/a	n/a	n/a
1668.15	n/a	WORD	834075	wordpools/wasnorm_wordpool_less_exclusions.txt	LTP223	ltpFR	3	8	-1	BANQUET	86	n/a	n/a	-1	1.0	1.0	1	upper	Verdana.ttf
1672.108	n/a	WORD	836054	wordpools/wasnorm_wordpool_less_exclusions.txt	LTP223	ltpFR	3	8	-1	OATMEAL	967	n/a	n/a	-1	1.0	1.0	1	upper	Verdana.ttf
1676.148	n/a	WORD	838074	wordpools/wasnorm_wordpool_less_exclusions.txt	LTP223	ltpFR	3	8	-1	CYCLONE	431	n/a	n/a	-1	1.0	1.0	1	upper	Verdana.ttf
1680.104	n/a	WORD	840052	wordpools/wasnorm_wordpool_less_exclusions.txt	LTP223	ltpFR	3	8	-1	MACHINE	852	n/a	n/a	-1	1.0	1.0	1	upper	Verdana.ttf
1684.312	n/a	WORD	842156	wordpools/wasnorm_wordpool_less_exclusions.txt	LTP223	ltpFR	3	8	-1	ROCK	1201	n/a	n/a	-1	1.0	1.0	1	upper	Verdana.ttf
1688.418	n/a	WORD	844209	wordpools/wasnorm_wordpool_less_exclusions.txt	LTP223	ltpFR	3	8	-1	TORTOISE	1486	n/a	n/a	-1	1.0	1.0	1	upper	Verdana.ttf
1692.502	n/a	WORD	846251	wordpools/wasnorm_wordpool_less_exclusions.txt	LTP223	ltpFR	3	8	-1	RANCH	1166	n/a	n/a	-1	1.0	1.0	1	upper	Verdana.ttf
1696.7	n/a	WORD	848350	wordpools/wasnorm_wordpool_less_exclusions.txt	LTP223	ltpFR	3	8	-1	ARTICLE	42	n/a	n/a	-1	1.0	1.0	1	upper	Verdana.ttf
1700.632	n/a	WORD	850316	wordpools/wasnorm_wordpool_less_exclusions.txt	LTP223	ltpFR	3	8	-1	PRINTER	1126	n/a	n/a	-1	1.0	1.0	1	upper	Verdana.ttf
1704.624	n/a	WORD	852312	wordpools/wasnorm_wordpool_less_exclusions.txt	LTP223	ltpFR	3	8	-1	BRAN	167	n/a	n/a	-1	1.0	1.0	1	upper	Verdana.ttf
1708.84	n/a	WORD	854420	wordpools/wasnorm_wordpool_less_exclusions.txt	LTP223	ltpFR	3	8	-1	SHAMPOO	1274	n/a	n/a	-1	1.0	1.0	1	upper	Verdana.ttf
1713.014	n/a	WORD	856507	wordpools/wasnorm_wordpool_less_exclusions.txt	LTP223	ltpFR	3	8	-1	HAMMER	680	n/a	n/a	-1	1.0	1.0	1	upper	Verdana.ttf
1716.97	n/a	WORD	858485	wordpools/wasnorm_wordpool_less_exclusions.txt	LTP223	ltpFR	3	8	-1	HANGER	687	n/a	n/a	-1	1.0	1.0	1	upper	Verdana.ttf
1721.194	n/a	WORD	860597	wordpools/wasnorm_wordpool_less_exclusions.txt	LTP223	ltpFR	3	8	-1	WASHER	1592	n/a	n/a	-1	1.0	1.0	1	upper	Verdana.ttf
1725.268	n/a	WORD	862634	wordpools/wasnorm_wordpool_less_exclusions.txt	LTP223	ltpFR	3	8	-1	HAIL	676	n/a	n/a	-1	1.0	1.0	1	upper	Verdana.ttf
1729.318	n/a	WORD	864659	wordpools/wasnorm_wordpool_less_exclusions.txt	LTP223	ltpFR	3	8	-1	LAUNDRY	803	n/a	n/a	-1	1.0	1.0	1	upper	Verdana.ttf
1735.024	n/a	REC_START	867512	n/a	LTP223	ltpFR	3	8	n/a	n/a	n/a	n/a	n/a	n/a	n/a	n/a	n/a	n/a	n/a
1736.804	n/a	REC_WORD	868402	wordpools/wasnorm_wordpool_less_exclusions.txt	LTP223	ltpFR	3	8	-1	BANQUET	86	n/a	n/a	-1	n/a	n/a	n/a	n/a	n/a
1738.48	n/a	REC_WORD	869240	wordpools/wasnorm_wordpool_less_exclusions.txt	LTP223	ltpFR	3	8	-1	OATMEAL	967	n/a	n/a	-1	n/a	n/a	n/a	n/a	n/a
1740.636	n/a	REC_WORD	870318	wordpools/wasnorm_wordpool_less_exclusions.txt	LTP223	ltpFR	3	8	-1	LAUNDRY	803	n/a	n/a	-1	n/a	n/a	n/a	n/a	n/a
1743.08	n/a	REC_WORD	871540	wordpools/wasnorm_wordpool_less_exclusions.txt	LTP223	ltpFR	3	8	-1	HANGER	687	n/a	n/a	-1	n/a	n/a	n/a	n/a	n/a
1830.144	n/a	WORD	915072	wordpools/wasnorm_wordpool_less_exclusions.txt	LTP223	ltpFR	3	9	1	CHEEK	287	n/a	n/a	0	0.57763671875	0.412841796875	1	upper	zerothre.ttf
1834.108	n/a	WORD	917054	wordpools/wasnorm_wordpool_less_exclusions.txt	LTP223	ltpFR	3	9	1	BARRACUDA	90	n/a	n/a	1	0.57763671875	0.412841796875	1	upper	zerothre.ttf
1838.124	n/a	WORD	919062	wordpools/wasnorm_wordpool_less_exclusions.txt	LTP223	ltpFR	3	9	1	MECHANIC	884	n/a	n/a	1	0.57763671875	0.412841796875	1	upper	zerothre.ttf
1842.2	n/a	WORD	921100	wordpools/wasnorm_wordpool_less_exclusions.txt	LTP223	ltpFR	3	9	1	BUFFALO	186	n/a	n/a	1	0.57763671875	0.412841796875	1	upper	zerothre.ttf
1846.232	n/a	WORD	923116	wordpools/wasnorm_wordpool_less_exclusions.txt	LTP223	ltpFR	3	9	1	VET	1560	n/a	n/a	1	0.57763671875	0.412841796875	1	upper	zerothre.ttf
1850.22	n/a	WORD	925110	wordpools/wasnorm_wordpool_less_exclusions.txt	LTP223	ltpFR	3	9	1	FREEWAY	603	n/a	n/a	0	0.57763671875	0.412841796875	1	upper	zerothre.ttf
1854.246	n/a	WORD	927123	wordpools/wasnorm_wordpool_less_exclusions.txt	LTP223	ltpFR	3	9	1	WALRUS	1585	n/a	n/a	0	0.57763671875	0.412841796875	1	upper	zerothre.ttf
1858.352	n/a	WORD	929176	wordpools/wasnorm_wordpool_less_exclusions.txt	LTP223	ltpFR	3	9	1	TRACTOR	1493	n/a	n/a	0	0.57763671875	0.412841796875	1	upper	zerothre.ttf
1862.216	n/a	WORD	931108	wordpools/wasnorm_wordpool_less_exclusions.txt	LTP223	ltpFR	3	9	1	BUN	197	n/a	n/a	0	0.57763671875	0.412841796875	1	upper	zerothre.ttf
1866.098	n/a	WORD	933049	wordpools/wasnorm_wordpool_less_exclusions.txt	LTP223	ltpFR	3	9	1	BUTTER	205	n/a	n/a	0	0.57763671875	0.412841796875	1	upper	zerothre.ttf
1870.064	n/a	WORD	935032	wordpools/wasnorm_wordpool_less_exclusions.txt	LTP223	ltpFR	3	9	1	GRASSHOPPER	656	n/a	n/a	1	0.57763671875	0.412841796875	1	upper	zerothre.ttf
1874.186	n/a	WORD	937093	wordpools/wasnorm_wordpool_less_exclusions.txt	LTP223	ltpFR	3	9	1	SIGN	1305	n/a	n/a	0	0.57763671875	0.412841796875	1	upper	zerothre.ttf
1878.06	n/a	WORD	939030	wordpools/wasnorm_wordpool_less_exclusions.txt	LTP223	ltpFR	3	9	1	BUS	201	n/a	n/a	0	0.57763671875	0.412841796875	1	upper	zerothre.ttf
1882.26	n/a	WORD	941130	wordpools/wasnorm_wordpool_less_exclusions.txt	LTP223	ltpFR	3	9	1	BIKE	125	n/a	n/a	0	0.57763671875	0.412841796875	1	upper	zerothre.ttf
1886.218	n/a	WORD	943109	wordpools/wasnorm_wordpool_less_exclusions.txt	LTP223	ltpFR	3	9	1	COYOTE	396	n/a	n/a	1	0.57763671875	0.412841796875	1	upper	zerothre.ttf
1890.098	n/a	WORD	945049	wordpools/wasnorm_wordpool_less_exclusions.txt	LTP223	ltpFR	3	9	1	PAW	1029	n/a	n/a	0	0.57763671875	0.412841796875	1	upper	zerothre.ttf
1895.996	n/a	REC_START	947998	n/a	LTP223	ltpFR	3	9	n/a	n/a	n/a	n/a	n/a	n/a	n/a	n/a	n/a	n/a	n/a
1897.758	n/a	REC_WORD	948879	wordpools/wasnorm_wordpool_less_exclusions.txt	LTP223	ltpFR	3	9	n/a	HALL	677	n/a	n/a	n/a	n/a	n/a	n/a	n/a	n/a
1899.278	n/a	REC_WORD	949639	wordpools/wasnorm_wordpool_less_exclusions.txt	LTP223	ltpFR	3	9	1	BUS	201	n/a	n/a	0	n/a	n/a	n/a	n/a	n/a
1900.87	n/a	REC_WORD	950435	wordpools/wasnorm_wordpool_less_exclusions.txt	LTP223	ltpFR	3	9	1	SIGN	1305	n/a	n/a	0	n/a	n/a	n/a	n/a	n/a
1902.786	n/a	REC_WORD	951393	wordpools/wasnorm_wordpool_less_exclusions.txt	LTP223	ltpFR	3	9	1	BARRACUDA	90	n/a	n/a	1	n/a	n/a	n/a	n/a	n/a
1906.238	n/a	REC_WORD	953119	wordpools/wasnorm_wordpool_less_exclusions.txt	LTP223	ltpFR	3	9	1	VET	1560	n/a	n/a	1	n/a	n/a	n/a	n/a	n/a
1981.414	n/a	WORD	990707	wordpools/wasnorm_wordpool_less_exclusions.txt	LTP223	ltpFR	3	10	0	UTENSIL	1542	n/a	n/a	n/a	0.422607421875	0.5869140625	0	lower	amplitud.ttf
1984.46	n/a	SLOW_MSG	992230	n/a	LTP223	ltpFR	3	10	n/a	n/a	n/a	n/a	n/a	n/a	n/a	n/a	n/a	n/a	n/a
1986.986	n/a	WORD	993493	wordpools/wasnorm_wordpool_less_exclusions.txt	LTP223	ltpFR	3	10	0	MEAL	882	n/a	n/a	0	0.422607421875	0.5869140625	0	lower	amplitud.ttf
1990.84	n/a	WORD	995420	wordpools/wasnorm_wordpool_less_exclusions.txt	LTP223	ltpFR	3	10	0	MOVIE	927	n/a	n/a	1	0.422607421875	0.5869140625	0	lower	amplitud.ttf
1994.866	n/a	WORD	997433	wordpools/wasnorm_wordpool_less_exclusions.txt	LTP223	ltpFR	3	10	0	DUCK	504	n/a	n/a	1	0.422607421875	0.5869140625	0	lower	amplitud.ttf
1999.016	n/a	WORD	999508	wordpools/wasnorm_wordpool_less_exclusions.txt	LTP223	ltpFR	3	10	0	WRENCH	1625	n/a	n/a	0	0.422607421875	0.5869140625	0	lower	amplitud.ttf
2002.87	n/a	WORD	1001435	wordpools/wasnorm_wordpool_less_exclusions.txt	LTP223	ltpFR	3	10	0	HEDGE	699	n/a	n/a	1	0.422607421875	0.5869140625	0	lower	amplitud.ttf
2007.054	n/a	WORD	1003527	wordpools/wasnorm_wordpool_less_exclusions.txt	LTP223	ltpFR	3	10	0	FOREST	593	n/a	n/a	1	0.422607421875	0.5869140625	0	lower	amplitud.ttf
2010.918	n/a	WORD	1005459	wordpools/wasnorm_wordpool_less_exclusions.txt	LTP223	ltpFR	3	10	0	TEAPOT	1442	n/a	n/a	1	0.422607421875	0.5869140625	0	lower	amplitud.ttf
2014.892	n/a	WORD	1007446	wordpools/wasnorm_wordpool_less_exclusions.txt	LTP223	ltpFR	3	10	0	KNUCKLE	789	n/a	n/a	0	0.422607421875	0.5869140625	0	lower	amplitud.ttf
2018.848	n/a	WORD	1009424	wordpools/wasnorm_wordpool_less_exclusions.txt	LTP223	ltpFR	3	10	0	JAR	750	n/a	n/a	0	0.422607421875	0.5869140625	0	lower	amplitud.ttf
2023.064	n/a	WORD	1011532	wordpools/wasnorm_wordpool_less_exclusions.txt	LTP223	ltpFR	3	10	0	DRIVEWAY	500	n/a	n/a	1	0.422607421875	0.5869140625	0	lower	amplitud.ttf
2027.08	n/a	WORD	1013540	wordpools/wasnorm_wordpool_less_exclusions.txt	LTP223	ltpFR	3	10	0	THUMB	1462	n/a	n/a	0	0.422607421875	0.5869140625	0	lower	amplitud.ttf
2031.072	n/a	WORD	1015536	wordpools/wasnorm_wordpool_less_exclusions.txt	LTP223	ltpFR	3	10	0	MUG	930	n/a	n/a	1	0.422607421875	0.5869140625	0	lower	amplitud.ttf
2035.27	n/a	WORD	1017635	wordpools/wasnorm_wordpool_less_exclusions.txt	LTP223	ltpFR	3	10	0	PEDESTRIAN	1038	n/a	n/a	1	0.422607421875	0.5869140625	0	lower	amplitud.ttf
2039.286	n/a	WORD	1019643	wordpools/wasnorm_wordpool_less_exclusions.txt	LTP223	ltpFR	3	10	0	CHESS	294	n/a	n/a	1	0.422607421875	0.5869140625	0	lower	amplitud.ttf
2043.326	n/a	WORD	1021663	wordpools/wasnorm_wordpool_less_exclusions.txt	LTP223	ltpFR	3	10	0	DART	440	n/a	n/a	0	0.422607421875	0.5869140625	0	lower	amplitud.ttf
2049.316	n/a	REC_START	1024658	n/a	LTP223	ltpFR	3	10	n/a	n/a	n/a	n/a	n/a	n/a	n/a	n/a	n/a	n/a	n/a
2051.236	n/a	REC_WORD	1025618	wordpools/wasnorm_wordpool_less_exclusions.txt	LTP223	ltpFR	3	10	0	CHESS	294	n/a	n/a	1	n/a	n/a	n/a	n/a	n/a
2052.854	n/a	REC_WORD	1026427	wordpools/wasnorm_wordpool_less_exclusions.txt	LTP223	ltpFR	3	10	0	DART	440	n/a	n/a	0	n/a	n/a	n/a	n/a	n/a
2054.854	n/a	REC_WORD	1027427	wordpools/wasnorm_wordpool_less_exclusions.txt	LTP223	ltpFR	3	10	0	THUMB	1462	n/a	n/a	0	n/a	n/a	n/a	n/a	n/a
2064.362	n/a	REC_WORD	1032181	wordpools/wasnorm_wordpool_less_exclusions.txt	LTP223	ltpFR	3	10	n/a	ENGINE	535	n/a	n/a	n/a	n/a	n/a	n/a	n/a	n/a
2076.202	n/a	REC_WORD	1038101	wordpools/wasnorm_wordpool_less_exclusions.txt	LTP223	ltpFR	3	10	n/a	ENGINEER	536	n/a	n/a	n/a	n/a	n/a	n/a	n/a	n/a
2112.794	n/a	REC_WORD	1056397	wordpools/wasnorm_wordpool_less_exclusions.txt	LTP223	ltpFR	3	10	0	THUMB	1462	n/a	n/a	0	n/a	n/a	n/a	n/a	n/a
2135.168	n/a	WORD	1067584	wordpools/wasnorm_wordpool_less_exclusions.txt	LTP223	ltpFR	3	11	-1	ITEM	746	n/a	n/a	-1	1.0	1.0	1	upper	Verdana.ttf
2139.1	n/a	WORD	1069550	wordpools/wasnorm_wordpool_less_exclusions.txt	LTP223	ltpFR	3	11	-1	CUE	422	n/a	n/a	-1	1.0	1.0	1	upper	Verdana.ttf
2142.94	n/a	WORD	1071470	wordpools/wasnorm_wordpool_less_exclusions.txt	LTP223	ltpFR	3	11	-1	PEOPLE	1046	n/a	n/a	-1	1.0	1.0	1	upper	Verdana.ttf
2147.088	n/a	WORD	1073544	wordpools/wasnorm_wordpool_less_exclusions.txt	LTP223	ltpFR	3	11	-1	CLAMP	316	n/a	n/a	-1	1.0	1.0	1	upper	Verdana.ttf
2151.214	n/a	WORD	1075607	wordpools/wasnorm_wordpool_less_exclusions.txt	LTP223	ltpFR	3	11	-1	CANOE	233	n/a	n/a	-1	1.0	1.0	1	upper	Verdana.ttf
2155.146	n/a	WORD	1077573	wordpools/wasnorm_wordpool_less_exclusions.txt	LTP223	ltpFR	3	11	-1	BROCCOLI	176	n/a	n/a	-1	1.0	1.0	1	upper	Verdana.ttf
2159.218	n/a	WORD	1079609	wordpools/wasnorm_wordpool_less_exclusions.txt	LTP223	ltpFR	3	11	-1	JUG	762	n/a	n/a	-1	1.0	1.0	1	upper	Verdana.ttf
2163.234	n/a	WORD	1081617	wordpools/wasnorm_wordpool_less_exclusions.txt	LTP223	ltpFR	3	11	-1	ENEMY	534	n/a	n/a	-1	1.0	1.0	1	upper	Verdana.ttf
2167.182	n/a	WORD	1083591	wordpools/wasnorm_wordpool_less_exclusions.txt	LTP223	ltpFR	3	11	-1	COMPANION	357	n/a	n/a	-1	1.0	1.0	1	upper	Verdana.ttf
2171.196	n/a	WORD	1085598	wordpools/wasnorm_wordpool_less_exclusions.txt	LTP223	ltpFR	3	11	-1	VILLAGE	1566	n/a	n/a	-1	1.0	1.0	1	upper	Verdana.ttf
2175.396	n/a	WORD	1087698	wordpools/wasnorm_wordpool_less_exclusions.txt	LTP223	ltpFR	3	11	-1	RAFT	1159	n/a	n/a	-1	1.0	1.0	1	upper	Verdana.ttf
2179.262	n/a	WORD	1089631	wordpools/wasnorm_wordpool_less_exclusions.txt	LTP223	ltpFR	3	11	-1	VESSEL	1558	n/a	n/a	-1	1.0	1.0	1	upper	Verdana.ttf
2183.47	n/a	WORD	1091735	wordpools/wasnorm_wordpool_less_exclusions.txt	LTP223	ltpFR	3	11	-1	MONKEY	911	n/a	n/a	-1	1.0	1.0	1	upper	Verdana.ttf
2187.66	n/a	WORD	1093830	wordpools/wasnorm_wordpool_less_exclusions.txt	LTP223	ltpFR	3	11	-1	WINE	1613	n/a	n/a	-1	1.0	1.0	1	upper	Verdana.ttf
2191.836	n/a	WORD	1095918	wordpools/wasnorm_wordpool_less_exclusions.txt	LTP223	ltpFR	3	11	-1	COSTUME	383	n/a	n/a	-1	1.0	1.0	1	upper	Verdana.ttf
2195.724	n/a	WORD	1097862	wordpools/wasnorm_wordpool_less_exclusions.txt	LTP223	ltpFR	3	11	-1	CHIMPANZEE	302	n/a	n/a	-1	1.0	1.0	1	upper	Verdana.ttf
2201.732	n/a	REC_START	1100866	n/a	LTP223	ltpFR	3	11	n/a	n/a	n/a	n/a	n/a	n/a	n/a	n/a	n/a	n/a	n/a
2203.328	n/a	REC_WORD	1101664	wordpools/wasnorm_wordpool_less_exclusions.txt	LTP223	ltpFR	3	11	-1	VILLAGE	1566	n/a	n/a	-1	n/a	n/a	n/a	n/a	n/a
2205.068	n/a	REC_WORD	1102534	wordpools/wasnorm_wordpool_less_exclusions.txt	LTP223	ltpFR	3	11	-1	RAFT	1159	n/a	n/a	-1	n/a	n/a	n/a	n/a	n/a
2207.892	n/a	REC_WORD	1103946	wordpools/wasnorm_wordpool_less_exclusions.txt	LTP223	ltpFR	3	11	-1	CHIMPANZEE	302	n/a	n/a	-1	n/a	n/a	n/a	n/a	n/a
2211.294	n/a	REC_WORD	1105647	wordpools/wasnorm_wordpool_less_exclusions.txt	LTP223	ltpFR	3	11	-1	PEOPLE	1046	n/a	n/a	-1	n/a	n/a	n/a	n/a	n/a
2213.26	n/a	REC_WORD	1106630	wordpools/wasnorm_wordpool_less_exclusions.txt	LTP223	ltpFR	3	11	-1	ENEMY	534	n/a	n/a	-1	n/a	n/a	n/a	n/a	n/a
2216.678	n/a	REC_WORD	1108339	wordpools/wasnorm_wordpool_less_exclusions.txt	LTP223	ltpFR	3	11	-1	CUE	422	n/a	n/a	-1	n/a	n/a	n/a	n/a	n/a
2254.788	n/a	REC_WORD	1127394	wordpools/wasnorm_wordpool_less_exclusions.txt	LTP223	ltpFR	3	11	-1	MONKEY	911	n/a	n/a	-1	n/a	n/a	n/a	n/a	n/a
2312.246	n/a	WORD	1156123	wordpools/wasnorm_wordpool_less_exclusions.txt	LTP223	ltpFR	3	12	0	CHEST	295	n/a	n/a	1	0.422607421875	0.5869140625	0	lower	amplitud.ttf
2316.428	n/a	WORD	1158214	wordpools/wasnorm_wordpool_less_exclusions.txt	LTP223	ltpFR	3	12	0	DASHBOARD	441	n/a	n/a	1	0.422607421875	0.5869140625	0	lower	amplitud.ttf
2320.568	n/a	WORD	1160284	wordpools/wasnorm_wordpool_less_exclusions.txt	LTP223	ltpFR	3	12	0	JOURNAL	760	n/a	n/a	n/a	0.422607421875	0.5869140625	0	lower	amplitud.ttf
2323.614	n/a	SLOW_MSG	1161807	n/a	LTP223	ltpFR	3	12	n/a	n/a	n/a	n/a	n/a	n/a	n/a	n/a	n/a	n/a	n/a
2325.972	n/a	WORD	1162986	wordpools/wasnorm_wordpool_less_exclusions.txt	LTP223	ltpFR	3	12	0	ICEBERG	731	n/a	n/a	1	0.422607421875	0.5869140625	0	lower	amplitud.ttf
2329.972	n/a	WORD	1164986	wordpools/wasnorm_wordpool_less_exclusions.txt	LTP223	ltpFR	3	12	0	ROBE	1198	n/a	n/a	1	0.422607421875	0.5869140625	0	lower	amplitud.ttf
2334.03	n/a	WORD	1167015	wordpools/wasnorm_wordpool_less_exclusions.txt	LTP223	ltpFR	3	12	0	SPINACH	1352	n/a	n/a	1	0.422607421875	0.5869140625	0	lower	amplitud.ttf
2338.102	n/a	WORD	1169051	wordpools/wasnorm_wordpool_less_exclusions.txt	LTP223	ltpFR	3	12	0	CABBAGE	210	n/a	n/a	1	0.422607421875	0.5869140625	0	lower	amplitud.ttf
2341.942	n/a	WORD	1170971	wordpools/wasnorm_wordpool_less_exclusions.txt	LTP223	ltpFR	3	12	0	NOTE	958	n/a	n/a	0	0.422607421875	0.5869140625	0	lower	amplitud.ttf
2346.082	n/a	WORD	1173041	wordpools/wasnorm_wordpool_less_exclusions.txt	LTP223	ltpFR	3	12	0	RECORD	1176	n/a	n/a	1	0.422607421875	0.5869140625	0	lower	amplitud.ttf
2349.94	n/a	WORD	1174970	wordpools/wasnorm_wordpool_less_exclusions.txt	LTP223	ltpFR	3	12	0	SCENERY	1247	n/a	n/a	1	0.422607421875	0.5869140625	0	lower	amplitud.ttf
2354.012	n/a	WORD	1177006	wordpools/wasnorm_wordpool_less_exclusions.txt	LTP223	ltpFR	3	12	0	SPY	1360	n/a	n/a	1	0.422607421875	0.5869140625	0	lower	amplitud.ttf
2358.078	n/a	WORD	1179039	wordpools/wasnorm_wordpool_less_exclusions.txt	LTP223	ltpFR	3	12	0	PAPER	1011	n/a	n/a	0	0.422607421875	0.5869140625	0	lower	amplitud.ttf
2362.076	n/a	WORD	1181038	wordpools/wasnorm_wordpool_less_exclusions.txt	LTP223	ltpFR	3	12	0	AUTOMOBILE	62	n/a	n/a	1	0.422607421875	0.5869140625	0	lower	amplitud.ttf
2365.934	n/a	WORD	1182967	wordpools/wasnorm_wordpool_less_exclusions.txt	LTP223	ltpFR	3	12	0	GARBAGE	622	n/a	n/a	0	0.422607421875	0.5869140625	0	lower	amplitud.ttf
2369.856	n/a	WORD	1184928	wordpools/wasnorm_wordpool_less_exclusions.txt	LTP223	ltpFR	3	12	0	CANDY	230	n/a	n/a	0	0.422607421875	0.5869140625	0	lower	amplitud.ttf
2373.698	n/a	WORD	1186849	wordpools/wasnorm_wordpool_less_exclusions.txt	LTP223	ltpFR	3	12	0	COUCH	386	n/a	n/a	1	0.422607421875	0.5869140625	0	lower	amplitud.ttf
2379.36	n/a	REC_START	1189680	n/a	LTP223	ltpFR	3	12	n/a	n/a	n/a	n/a	n/a	n/a	n/a	n/a	n/a	n/a	n/a
2381.56	n/a	REC_WORD	1190780	wordpools/wasnorm_wordpool_less_exclusions.txt	LTP223	ltpFR	3	12	0	COUCH	386	n/a	n/a	1	n/a	n/a	n/a	n/a	n/a
2382.888	n/a	REC_WORD	1191444	wordpools/wasnorm_wordpool_less_exclusions.txt	LTP223	ltpFR	3	12	0	AUTOMOBILE	62	n/a	n/a	1	n/a	n/a	n/a	n/a	n/a
2385.746	n/a	REC_WORD	1192873	wordpools/wasnorm_wordpool_less_exclusions.txt	LTP223	ltpFR	3	12	0	GARBAGE	622	n/a	n/a	0	n/a	n/a	n/a	n/a	n/a
2398.258	n/a	REC_WORD	1199129	wordpools/wasnorm_wordpool_less_exclusions.txt	LTP223	ltpFR	3	12	0	PAPER	1011	n/a	n/a	0	n/a	n/a	n/a	n/a	n/a
2404.82	n/a	REC_WORD	1202410	wordpools/wasnorm_wordpool_less_exclusions.txt	LTP223	ltpFR	3	12	0	CABBAGE	210	n/a	n/a	1	n/a	n/a	n/a	n/a	n/a
2407.558	n/a	REC_WORD	1203779	wordpools/wasnorm_wordpool_less_exclusions.txt	LTP223	ltpFR	3	12	-1	BROCCOLI	176	n/a	n/a	-1	n/a	n/a	n/a	n/a	n/a
2455.016	n/a	REST_REWET	1227508	n/a	LTP223	ltpFR	3	12	n/a	n/a	n/a	n/a	n/a	n/a	n/a	n/a	n/a	n/a	n/a
2740.59	n/a	WORD	1370295	wordpools/wasnorm_wordpool_less_exclusions.txt	LTP223	ltpFR	3	13	-1	CABOOSE	214	n/a	n/a	-1	1.0	1.0	1	upper	Verdana.ttf
2744.716	n/a	WORD	1372358	wordpools/wasnorm_wordpool_less_exclusions.txt	LTP223	ltpFR	3	13	-1	HARE	688	n/a	n/a	-1	1.0	1.0	1	upper	Verdana.ttf
2748.898	n/a	WORD	1374449	wordpools/wasnorm_wordpool_less_exclusions.txt	LTP223	ltpFR	3	13	-1	XEROX	1628	n/a	n/a	-1	1.0	1.0	1	upper	Verdana.ttf
2753.104	n/a	WORD	1376552	wordpools/wasnorm_wordpool_less_exclusions.txt	LTP223	ltpFR	3	13	-1	TYPEWRITER	1531	n/a	n/a	-1	1.0	1.0	1	upper	Verdana.ttf
2757.102	n/a	WORD	1378551	wordpools/wasnorm_wordpool_less_exclusions.txt	LTP223	ltpFR	3	13	-1	RECEIPT	1173	n/a	n/a	-1	1.0	1.0	1	upper	Verdana.ttf
2761.018	n/a	WORD	1380509	wordpools/wasnorm_wordpool_less_exclusions.txt	LTP223	ltpFR	3	13	-1	PIER	1063	n/a	n/a	-1	1.0	1.0	1	upper	Verdana.ttf
2765.234	n/a	WORD	1382617	wordpools/wasnorm_wordpool_less_exclusions.txt	LTP223	ltpFR	3	13	-1	ROOT	1210	n/a	n/a	-1	1.0	1.0	1	upper	Verdana.ttf
2769.31	n/a	WORD	1384655	wordpools/wasnorm_wordpool_less_exclusions.txt	LTP223	ltpFR	3	13	-1	LOUNGE	845	n/a	n/a	-1	1.0	1.0	1	upper	Verdana.ttf
2773.214	n/a	WORD	1386607	wordpools/wasnorm_wordpool_less_exclusions.txt	LTP223	ltpFR	3	13	-1	DOUGH	489	n/a	n/a	-1	1.0	1.0	1	upper	Verdana.ttf
2777.256	n/a	WORD	1388628	wordpools/wasnorm_wordpool_less_exclusions.txt	LTP223	ltpFR	3	13	-1	QUARTER	1148	n/a	n/a	-1	1.0	1.0	1	upper	Verdana.ttf
2781.228	n/a	WORD	1390614	wordpools/wasnorm_wordpool_less_exclusions.txt	LTP223	ltpFR	3	13	-1	PEAR	1033	n/a	n/a	-1	1.0	1.0	1	upper	Verdana.ttf
2785.26	n/a	WORD	1392630	wordpools/wasnorm_wordpool_less_exclusions.txt	LTP223	ltpFR	3	13	-1	SALOON	1228	n/a	n/a	-1	1.0	1.0	1	upper	Verdana.ttf
2789.092	n/a	WORD	1394546	wordpools/wasnorm_wordpool_less_exclusions.txt	LTP223	ltpFR	3	13	-1	STREET	1393	n/a	n/a	-1	1.0	1.0	1	upper	Verdana.ttf
2792.982	n/a	WORD	1396491	wordpools/wasnorm_wordpool_less_exclusions.txt	LTP223	ltpFR	3	13	-1	CURB	426	n/a	n/a	-1	1.0	1.0	1	upper	Verdana.ttf
2796.972	n/a	WORD	1398486	wordpools/wasnorm_wordpool_less_exclusions.txt	LTP223	ltpFR	3	13	-1	OBOE	969	n/a	n/a	-1	1.0	1.0	1	upper	Verdana.ttf
2800.988	n/a	WORD	1400494	wordpools/wasnorm_wordpool_less_exclusions.txt	LTP223	ltpFR	3	13	-1	KEYBOARD	774	n/a	n/a	-1	1.0	1.0	1	upper	Verdana.ttf
2807.02	n/a	REC_START	1403510	n/a	LTP223	ltpFR	3	13	n/a	n/a	n/a	n/a	n/a	n/a	n/a	n/a	n/a	n/a	n/a
2808.158	n/a	REC_WORD	1404079	wordpools/wasnorm_wordpool_less_exclusions.txt	LTP223	ltpFR	3	13	-1	OBOE	969	n/a	n/a	-1	n/a	n/a	n/a	n/a	n/a
2809.54	n/a	REC_WORD	1404770	wordpools/wasnorm_wordpool_less_exclusions.txt	LTP223	ltpFR	3	13	-1	KEYBOARD	774	n/a	n/a	-1	n/a	n/a	n/a	n/a	n/a
2811.31	n/a	REC_WORD	1405655	wordpools/wasnorm_wordpool_less_exclusions.txt	LTP223	ltpFR	3	13	-1	SALOON	1228	n/a	n/a	-1	n/a	n/a	n/a	n/a	n/a
2813.162	n/a	REC_WORD	1406581	wordpools/wasnorm_wordpool_less_exclusions.txt	LTP223	ltpFR	3	13	-1	STREET	1393	n/a	n/a	-1	n/a	n/a	n/a	n/a	n/a
2819.538	n/a	REC_WORD	1409769	wordpools/wasnorm_wordpool_less_exclusions.txt	LTP223	ltpFR	3	13	-1	TYPEWRITER	1531	n/a	n/a	-1	n/a	n/a	n/a	n/a	n/a
2826.388	n/a	REC_WORD	1413194	wordpools/wasnorm_wordpool_less_exclusions.txt	LTP223	ltpFR	3	13	-1	DOUGH	489	n/a	n/a	-1	n/a	n/a	n/a	n/a	n/a
2839.732	n/a	REC_WORD	1419866	wordpools/wasnorm_wordpool_less_exclusions.txt	LTP223	ltpFR	3	13	n/a	NOTEPAD	-1	n/a	n/a	n/a	n/a	n/a	n/a	n/a	n/a
2845.874	n/a	REC_WORD	1422937	wordpools/wasnorm_wordpool_less_exclusions.txt	LTP223	ltpFR	3	13	-1	XEROX	1628	n/a	n/a	-1	n/a	n/a	n/a	n/a	n/a
2856.954	n/a	REC_WORD	1428477	wordpools/wasnorm_wordpool_less_exclusions.txt	LTP223	ltpFR	3	13	-1	CURB	426	n/a	n/a	-1	n/a	n/a	n/a	n/a	n/a
2900.126	n/a	WORD	1450063	wordpools/wasnorm_wordpool_less_exclusions.txt	LTP223	ltpFR	3	14	1	NIGHTGOWN	953	n/a	n/a	0	0.57763671875	0.412841796875	1	upper	zerothre.ttf
2904.324	n/a	WORD	1452162	wordpools/wasnorm_wordpool_less_exclusions.txt	LTP223	ltpFR	3	14	1	COLLEGE	346	n/a	n/a	0	0.57763671875	0.412841796875	1	upper	zerothre.ttf
2908.524	n/a	WORD	1454262	wordpools/wasnorm_wordpool_less_exclusions.txt	LTP223	ltpFR	3	14	1	RODENT	1204	n/a	n/a	1	0.57763671875	0.412841796875	1	upper	zerothre.ttf
2912.396	n/a	WORD	1456198	wordpools/wasnorm_wordpool_less_exclusions.txt	LTP223	ltpFR	3	14	1	LUMBER	848	n/a	n/a	0	0.57763671875	0.412841796875	1	upper	zerothre.ttf
2916.562	n/a	WORD	1458281	wordpools/wasnorm_wordpool_less_exclusions.txt	LTP223	ltpFR	3	14	1	LACE	792	n/a	n/a	0	0.57763671875	0.412841796875	1	upper	zerothre.ttf
2920.528	n/a	WORD	1460264	wordpools/wasnorm_wordpool_less_exclusions.txt	LTP223	ltpFR	3	14	1	FRAGRANCE	599	n/a	n/a	0	0.57763671875	0.412841796875	1	upper	zerothre.ttf
2924.434	n/a	WORD	1462217	wordpools/wasnorm_wordpool_less_exclusions.txt	LTP223	ltpFR	3	14	1	CELLO	268	n/a	n/a	0	0.57763671875	0.412841796875	1	upper	zerothre.ttf
2928.574	n/a	WORD	1464287	wordpools/wasnorm_wordpool_less_exclusions.txt	LTP223	ltpFR	3	14	1	FIDDLE	561	n/a	n/a	0	0.57763671875	0.412841796875	1	upper	zerothre.ttf
2932.584	n/a	WORD	1466292	wordpools/wasnorm_wordpool_less_exclusions.txt	LTP223	ltpFR	3	14	1	BRUNETTE	181	n/a	n/a	0	0.57763671875	0.412841796875	1	upper	zerothre.ttf
2936.616	n/a	WORD	1468308	wordpools/wasnorm_wordpool_less_exclusions.txt	LTP223	ltpFR	3	14	1	PARIS	1014	n/a	n/a	0	0.57763671875	0.412841796875	1	upper	zerothre.ttf
2940.622	n/a	WORD	1470311	wordpools/wasnorm_wordpool_less_exclusions.txt	LTP223	ltpFR	3	14	1	PERCH	1048	n/a	n/a	0	0.57763671875	0.412841796875	1	upper	zerothre.ttf
2944.796	n/a	WORD	1472398	wordpools/wasnorm_wordpool_less_exclusions.txt	LTP223	ltpFR	3	14	1	SWAN	1417	n/a	n/a	1	0.57763671875	0.412841796875	1	upper	zerothre.ttf
2948.97	n/a	WORD	1474485	wordpools/wasnorm_wordpool_less_exclusions.txt	LTP223	ltpFR	3	14	1	GRADUATE	653	n/a	n/a	1	0.57763671875	0.412841796875	1	upper	zerothre.ttf
2952.86	n/a	WORD	1476430	wordpools/wasnorm_wordpool_less_exclusions.txt	LTP223	ltpFR	3	14	1	DRAWING	494	n/a	n/a	0	0.57763671875	0.412841796875	1	upper	zerothre.ttf
2956.992	n/a	WORD	1478496	wordpools/wasnorm_wordpool_less_exclusions.txt	LTP223	ltpFR	3	14	1	POTTERY	1116	n/a	n/a	0	0.57763671875	0.412841796875	1	upper	zerothre.ttf
2961.176	n/a	WORD	1480588	wordpools/wasnorm_wordpool_less_exclusions.txt	LTP223	ltpFR	3	14	1	CARPENTER	246	n/a	n/a	1	0.57763671875	0.412841796875	1	upper	zerothre.ttf
2967.032	n/a	REC_START	1483516	n/a	LTP223	ltpFR	3	14	n/a	n/a	n/a	n/a	n/a	n/a	n/a	n/a	n/a	n/a	n/a
2968.244	n/a	REC_WORD	1484122	wordpools/wasnorm_wordpool_less_exclusions.txt	LTP223	ltpFR	3	14	1	SWAN	1417	n/a	n/a	1	n/a	n/a	n/a	n/a	n/a
2969.766	n/a	REC_WORD	1484883	wordpools/wasnorm_wordpool_less_exclusions.txt	LTP223	ltpFR	3	14	1	CARPENTER	246	n/a	n/a	1	n/a	n/a	n/a	n/a	n/a
2971.392	n/a	REC_WORD	1485696	wordpools/wasnorm_wordpool_less_exclusions.txt	LTP223	ltpFR	3	14	1	DRAWING	494	n/a	n/a	0	n/a	n/a	n/a	n/a	n/a
2973.004	n/a	REC_WORD	1486502	wordpools/wasnorm_wordpool_less_exclusions.txt	LTP223	ltpFR	3	14	1	GRADUATE	653	n/a	n/a	1	n/a	n/a	n/a	n/a	n/a
2986.344	n/a	REC_WORD	1493172	wordpools/wasnorm_wordpool_less_exclusions.txt	LTP223	ltpFR	3	14	-1	OBOE	969	n/a	n/a	-1	n/a	n/a	n/a	n/a	n/a
3010.396	n/a	REC_WORD	1505198	wordpools/wasnorm_wordpool_less_exclusions.txt	LTP223	ltpFR	3	14	1	SWAN	1417	n/a	n/a	1	n/a	n/a	n/a	n/a	n/a
3017.5	n/a	REC_WORD	1508750	wordpools/wasnorm_wordpool_less_exclusions.txt	LTP223	ltpFR	3	14	1	RODENT	1204	n/a	n/a	1	n/a	n/a	n/a	n/a	n/a
3070.5	n/a	WORD	1535250	wordpools/wasnorm_wordpool_less_exclusions.txt	LTP223	ltpFR	3	15	0	DOLLAR	482	n/a	n/a	0	0.422607421875	0.5869140625	0	lower	amplitud.ttf
3074.684	n/a	WORD	1537342	wordpools/wasnorm_wordpool_less_exclusions.txt	LTP223	ltpFR	3	15	0	ACROBAT	4	n/a	n/a	1	0.422607421875	0.5869140625	0	lower	amplitud.ttf
3078.632	n/a	WORD	1539316	wordpools/wasnorm_wordpool_less_exclusions.txt	LTP223	ltpFR	3	15	0	GUARD	667	n/a	n/a	1	0.422607421875	0.5869140625	0	lower	amplitud.ttf
3082.614	n/a	WORD	1541307	wordpools/wasnorm_wordpool_less_exclusions.txt	LTP223	ltpFR	3	15	0	ROOMMATE	1207	n/a	n/a	1	0.422607421875	0.5869140625	0	lower	amplitud.ttf
3086.462	n/a	WORD	1543231	wordpools/wasnorm_wordpool_less_exclusions.txt	LTP223	ltpFR	3	15	1	FELLOW	558	n/a	n/a	1	0.57763671875	0.412841796875	1	upper	zerothre.ttf
3090.586	n/a	WORD	1545293	wordpools/wasnorm_wordpool_less_exclusions.txt	LTP223	ltpFR	3	15	1	ENGINE	535	n/a	n/a	0	0.57763671875	0.412841796875	1	upper	zerothre.ttf
3094.626	n/a	WORD	1547313	wordpools/wasnorm_wordpool_less_exclusions.txt	LTP223	ltpFR	3	15	1	PEDAL	1037	n/a	n/a	0	0.57763671875	0.412841796875	1	upper	zerothre.ttf
3098.692	n/a	WORD	1549346	wordpools/wasnorm_wordpool_less_exclusions.txt	LTP223	ltpFR	3	15	1	GENERAL	630	n/a	n/a	1	0.57763671875	0.412841796875	1	upper	zerothre.ttf
3102.6	n/a	WORD	1551300	wordpools/wasnorm_wordpool_less_exclusions.txt	LTP223	ltpFR	3	15	0	BALLOON	75	n/a	n/a	1	0.422607421875	0.5869140625	0	lower	amplitud.ttf
3106.43	n/a	WORD	1553215	wordpools/wasnorm_wordpool_less_exclusions.txt	LTP223	ltpFR	3	15	0	UMBRELLA	1534	n/a	n/a	1	0.422607421875	0.5869140625	0	lower	amplitud.ttf
3110.47	n/a	WORD	1555235	wordpools/wasnorm_wordpool_less_exclusions.txt	LTP223	ltpFR	3	15	0	COFFEE	341	n/a	n/a	0	0.422607421875	0.5869140625	0	lower	amplitud.ttf
3114.662	n/a	WORD	1557331	wordpools/wasnorm_wordpool_less_exclusions.txt	LTP223	ltpFR	3	15	0	DISH	474	n/a	n/a	0	0.422607421875	0.5869140625	0	lower	amplitud.ttf
3118.578	n/a	WORD	1559289	wordpools/wasnorm_wordpool_less_exclusions.txt	LTP223	ltpFR	3	15	1	STAPLE	1371	n/a	n/a	0	0.57763671875	0.412841796875	1	upper	zerothre.ttf
3122.5	n/a	WORD	1561250	wordpools/wasnorm_wordpool_less_exclusions.txt	LTP223	ltpFR	3	15	1	ATLAS	53	n/a	n/a	0	0.57763671875	0.412841796875	1	upper	zerothre.ttf
3126.458	n/a	WORD	1563229	wordpools/wasnorm_wordpool_less_exclusions.txt	LTP223	ltpFR	3	15	1	SODA	1341	n/a	n/a	0	0.57763671875	0.412841796875	1	upper	zerothre.ttf
3130.312	n/a	WORD	1565156	wordpools/wasnorm_wordpool_less_exclusions.txt	LTP223	ltpFR	3	15	1	BANK	83	n/a	n/a	0	0.57763671875	0.412841796875	1	upper	zerothre.ttf
3136.278	n/a	REC_START	1568139	n/a	LTP223	ltpFR	3	15	n/a	n/a	n/a	n/a	n/a	n/a	n/a	n/a	n/a	n/a	n/a
3138.12	n/a	REC_WORD	1569060	wordpools/wasnorm_wordpool_less_exclusions.txt	LTP223	ltpFR	3	15	1	BANK	83	n/a	n/a	0	n/a	n/a	n/a	n/a	n/a
3139.642	n/a	REC_WORD	1569821	wordpools/wasnorm_wordpool_less_exclusions.txt	LTP223	ltpFR	3	15	1	SODA	1341	n/a	n/a	0	n/a	n/a	n/a	n/a	n/a
3142.694	n/a	REC_WORD	1571347	wordpools/wasnorm_wordpool_less_exclusions.txt	LTP223	ltpFR	3	15	0	COFFEE	341	n/a	n/a	0	n/a	n/a	n/a	n/a	n/a
3149.57	n/a	REC_WORD	1574785	wordpools/wasnorm_wordpool_less_exclusions.txt	LTP223	ltpFR	3	15	0	ACROBAT	4	n/a	n/a	1	n/a	n/a	n/a	n/a	n/a
3154.932	n/a	REC_WORD	1577466	wordpools/wasnorm_wordpool_less_exclusions.txt	LTP223	ltpFR	3	15	1	ENGINE	535	n/a	n/a	0	n/a	n/a	n/a	n/a	n/a
3163.972	n/a	REC_WORD	1581986	wordpools/wasnorm_wordpool_less_exclusions.txt	LTP223	ltpFR	3	15	1	ATLAS	53	n/a	n/a	0	n/a	n/a	n/a	n/a	n/a
3201.908	n/a	REC_WORD	1600954	wordpools/wasnorm_wordpool_less_exclusions.txt	LTP223	ltpFR	3	15	0	ROOMMATE	1207	n/a	n/a	1	n/a	n/a	n/a	n/a	n/a
3231.316	n/a	WORD	1615658	wordpools/wasnorm_wordpool_less_exclusions.txt	LTP223	ltpFR	3	16	-1	DUSTPAN	509	n/a	n/a	-1	1.0	1.0	1	upper	Verdana.ttf
3235.364	n/a	WORD	1617682	wordpools/wasnorm_wordpool_less_exclusions.txt	LTP223	ltpFR	3	16	-1	MAT	877	n/a	n/a	-1	1.0	1.0	1	upper	Verdana.ttf
3239.506	n/a	WORD	1619753	wordpools/wasnorm_wordpool_less_exclusions.txt	LTP223	ltpFR	3	16	-1	CAFETERIA	217	n/a	n/a	-1	1.0	1.0	1	upper	Verdana.ttf
3243.73	n/a	WORD	1621865	wordpools/wasnorm_wordpool_less_exclusions.txt	LTP223	ltpFR	3	16	-1	COOK	372	n/a	n/a	-1	1.0	1.0	1	upper	Verdana.ttf
3247.946	n/a	WORD	1623973	wordpools/wasnorm_wordpool_less_exclusions.txt	LTP223	ltpFR	3	16	-1	PLUTO	1092	n/a	n/a	-1	1.0	1.0	1	upper	Verdana.ttf
3251.82	n/a	WORD	1625910	wordpools/wasnorm_wordpool_less_exclusions.txt	LTP223	ltpFR	3	16	-1	NEPTUNE	943	n/a	n/a	-1	1.0	1.0	1	upper	Verdana.ttf
3255.836	n/a	WORD	1627918	wordpools/wasnorm_wordpool_less_exclusions.txt	LTP223	ltpFR	3	16	-1	TRUMPET	1513	n/a	n/a	-1	1.0	1.0	1	upper	Verdana.ttf
3260.05	n/a	WORD	1630025	wordpools/wasnorm_wordpool_less_exclusions.txt	LTP223	ltpFR	3	16	-1	SIDING	1304	n/a	n/a	-1	1.0	1.0	1	upper	Verdana.ttf
3264.224	n/a	WORD	1632112	wordpools/wasnorm_wordpool_less_exclusions.txt	LTP223	ltpFR	3	16	-1	JUPITER	765	n/a	n/a	-1	1.0	1.0	1	upper	Verdana.ttf
3268.356	n/a	WORD	1634178	wordpools/wasnorm_wordpool_less_exclusions.txt	LTP223	ltpFR	3	16	-1	CRAB	397	n/a	n/a	-1	1.0	1.0	1	upper	Verdana.ttf
3272.532	n/a	WORD	1636266	wordpools/wasnorm_wordpool_less_exclusions.txt	LTP223	ltpFR	3	16	-1	SHACK	1273	n/a	n/a	-1	1.0	1.0	1	upper	Verdana.ttf
3276.422	n/a	WORD	1638211	wordpools/wasnorm_wordpool_less_exclusions.txt	LTP223	ltpFR	3	16	-1	VIOLA	1570	n/a	n/a	-1	1.0	1.0	1	upper	Verdana.ttf
3280.486	n/a	WORD	1640243	wordpools/wasnorm_wordpool_less_exclusions.txt	LTP223	ltpFR	3	16	-1	LOAF	835	n/a	n/a	-1	1.0	1.0	1	upper	Verdana.ttf
3284.602	n/a	WORD	1642301	wordpools/wasnorm_wordpool_less_exclusions.txt	LTP223	ltpFR	3	16	-1	ENGINEER	536	n/a	n/a	-1	1.0	1.0	1	upper	Verdana.ttf
3288.444	n/a	WORD	1644222	wordpools/wasnorm_wordpool_less_exclusions.txt	LTP223	ltpFR	3	16	-1	COUSIN	392	n/a	n/a	-1	1.0	1.0	1	upper	Verdana.ttf
3292.592	n/a	WORD	1646296	wordpools/wasnorm_wordpool_less_exclusions.txt	LTP223	ltpFR	3	16	-1	WAVE	1596	n/a	n/a	-1	1.0	1.0	1	upper	Verdana.ttf
3298.448	n/a	REC_START	1649224	n/a	LTP223	ltpFR	3	16	n/a	n/a	n/a	n/a	n/a	n/a	n/a	n/a	n/a	n/a	n/a
3299.776	n/a	REC_WORD	1649888	wordpools/wasnorm_wordpool_less_exclusions.txt	LTP223	ltpFR	3	16	-1	DUSTPAN	509	n/a	n/a	-1	n/a	n/a	n/a	n/a	n/a
3301.656	n/a	REC_WORD	1650828	wordpools/wasnorm_wordpool_less_exclusions.txt	LTP223	ltpFR	3	16	-1	COUSIN	392	n/a	n/a	-1	n/a	n/a	n/a	n/a	n/a
3307.024	n/a	REC_WORD	1653512	wordpools/wasnorm_wordpool_less_exclusions.txt	LTP223	ltpFR	3	16	-1	JUPITER	765	n/a	n/a	-1	n/a	n/a	n/a	n/a	n/a
3316.938	n/a	REC_WORD	1658469	wordpools/wasnorm_wordpool_less_exclusions.txt	LTP223	ltpFR	3	16	n/a	PLANET	1082	n/a	n/a	n/a	n/a	n/a	n/a	n/a	n/a
3325.942	n/a	REC_WORD	1662971	wordpools/wasnorm_wordpool_less_exclusions.txt	LTP223	ltpFR	3	16	-1	ENGINEER	536	n/a	n/a	-1	n/a	n/a	n/a	n/a	n/a
3418.28	n/a	REC_START	1709140	n/a	LTP223	ltpFR	3	n/a	n/a	n/a	n/a	n/a	n/a	n/a	n/a	n/a	n/a	n/a	n/a
3424.786	n/a	FFR_REC_WORD	1712393	wordpools/wasnorm_wordpool_less_exclusions.txt	LTP223	ltpFR	3	n/a	-1	ENGINEER	536	n/a	n/a	-1	n/a	n/a	n/a	n/a	n/a
3432.778	n/a	FFR_REC_WORD	1716389	wordpools/wasnorm_wordpool_less_exclusions.txt	LTP223	ltpFR	3	n/a	n/a	ELBOW	520	n/a	n/a	n/a	n/a	n/a	n/a	n/a	n/a
3435.612	n/a	FFR_REC_WORD	1717806	wordpools/wasnorm_wordpool_less_exclusions.txt	LTP223	ltpFR	3	n/a	n/a	ARM	38	n/a	n/a	n/a	n/a	n/a	n/a	n/a	n/a
3438.642	n/a	FFR_REC_WORD	1719321	wordpools/wasnorm_wordpool_less_exclusions.txt	LTP223	ltpFR	3	n/a	0	LIMB	822	n/a	n/a	n/a	n/a	n/a	n/a	n/a	n/a
3443.4	n/a	FFR_REC_WORD	1721700	wordpools/wasnorm_wordpool_less_exclusions.txt	LTP223	ltpFR	3	n/a	n/a	RECIPE	1175	n/a	n/a	n/a	n/a	n/a	n/a	n/a	n/a
3445.854	n/a	FFR_REC_WORD	1722927	wordpools/wasnorm_wordpool_less_exclusions.txt	LTP223	ltpFR	3	n/a	0	REFRIGERATOR	1179	n/a	n/a	1	n/a	n/a	n/a	n/a	n/a
3446.854	n/a	FFR_REC_WORD_VV	1723427	wordpools/wasnorm_wordpool_less_exclusions.txt	LTP223	ltpFR	3	n/a	n/a	<>	-1	n/a	n/a	n/a	n/a	n/a	n/a	n/a	n/a
3448.838	n/a	FFR_REC_WORD	1724419	wordpools/wasnorm_wordpool_less_exclusions.txt	LTP223	ltpFR	3	n/a	n/a	OCEAN	970	n/a	n/a	n/a	n/a	n/a	n/a	n/a	n/a
3452.814	n/a	FFR_REC_WORD	1726407	wordpools/wasnorm_wordpool_less_exclusions.txt	LTP223	ltpFR	3	n/a	n/a	MEADOW	881	n/a	n/a	n/a	n/a	n/a	n/a	n/a	n/a
3460.498	n/a	FFR_REC_WORD	1730249	wordpools/wasnorm_wordpool_less_exclusions.txt	LTP223	ltpFR	3	n/a	0	DRIVEWAY	500	n/a	n/a	1	n/a	n/a	n/a	n/a	n/a
3474.63	n/a	FFR_REC_WORD	1737315	wordpools/wasnorm_wordpool_less_exclusions.txt	LTP223	ltpFR	3	n/a	1	CELLO	268	n/a	n/a	0	n/a	n/a	n/a	n/a	n/a
3478.462	n/a	FFR_REC_WORD	1739231	wordpools/wasnorm_wordpool_less_exclusions.txt	LTP223	ltpFR	3	n/a	-1	TRUMPET	1513	n/a	n/a	-1	n/a	n/a	n/a	n/a	n/a
3487.552	n/a	FFR_REC_WORD	1743776	wordpools/wasnorm_wordpool_less_exclusions.txt	LTP223	ltpFR	3	n/a	n/a	STADIUM	1364	n/a	n/a	n/a	n/a	n/a	n/a	n/a	n/a
3494.192	n/a	FFR_REC_WORD	1747096	wordpools/wasnorm_wordpool_less_exclusions.txt	LTP223	ltpFR	3	n/a	n/a	MEADOW	881	n/a	n/a	n/a	n/a	n/a	n/a	n/a	n/a
3495.82	n/a	FFR_REC_WORD	1747910	wordpools/wasnorm_wordpool_less_exclusions.txt	LTP223	ltpFR	3	n/a	n/a	POLICEMAN	-1	n/a	n/a	n/a	n/a	n/a	n/a	n/a	n/a
3498.502	n/a	FFR_REC_WORD	1749251	wordpools/wasnorm_wordpool_less_exclusions.txt	LTP223	ltpFR	3	n/a	0	BASSINET	97	n/a	n/a	1	n/a	n/a	n/a	n/a	n/a
3500.758	n/a	FFR_REC_WORD	1750379	wordpools/wasnorm_wordpool_less_exclusions.txt	LTP223	ltpFR	3	n/a	0	BABY	64	n/a	n/a	1	n/a	n/a	n/a	n/a	n/a
3503.102	n/a	FFR_REC_WORD	1751551	wordpools/wasnorm_wordpool_less_exclusions.txt	LTP223	ltpFR	3	n/a	0	ARTIST	43	n/a	n/a	1	n/a	n/a	n/a	n/a	n/a
3505.428	n/a	FFR_REC_WORD	1752714	wordpools/wasnorm_wordpool_less_exclusions.txt	LTP223	ltpFR	3	n/a	0	PORTRAIT	1111	n/a	n/a	1	n/a	n/a	n/a	n/a	n/a
3508.076	n/a	FFR_REC_WORD	1754038	wordpools/wasnorm_wordpool_less_exclusions.txt	LTP223	ltpFR	3	n/a	-1	BROCCOLI	176	n/a	n/a	-1	n/a	n/a	n/a	n/a	n/a
3516.858	n/a	FFR_REC_WORD	1758429	wordpools/wasnorm_wordpool_less_exclusions.txt	LTP223	ltpFR	3	n/a	0	BASKETBALL	96	n/a	n/a	1	n/a	n/a	n/a	n/a	n/a
3520.344	n/a	FFR_REC_WORD	1760172	wordpools/wasnorm_wordpool_less_exclusions.txt	LTP223	ltpFR	3	n/a	0	PAPER	1011	n/a	n/a	0	n/a	n/a	n/a	n/a	n/a
3523.074	n/a	FFR_REC_WORD	1761537	wordpools/wasnorm_wordpool_less_exclusions.txt	LTP223	ltpFR	3	n/a	1	ATLAS	53	n/a	n/a	0	n/a	n/a	n/a	n/a	n/a
3525.758	n/a	FFR_REC_WORD	1762879	wordpools/wasnorm_wordpool_less_exclusions.txt	LTP223	ltpFR	3	n/a	n/a	DOCUMENT	479	n/a	n/a	n/a	n/a	n/a	n/a	n/a	n/a
3535.88	n/a	FFR_REC_WORD	1767940	wordpools/wasnorm_wordpool_less_exclusions.txt	LTP223	ltpFR	3	n/a	1	WALRUS	1585	n/a	n/a	0	n/a	n/a	n/a	n/a	n/a
3550.324	n/a	FFR_REC_WORD	1775162	wordpools/wasnorm_wordpool_less_exclusions.txt	LTP223	ltpFR	3	n/a	0	HEDGE	699	n/a	n/a	1	n/a	n/a	n/a	n/a	n/a
3560.426	n/a	FFR_REC_WORD	1780213	wordpools/wasnorm_wordpool_less_exclusions.txt	LTP223	ltpFR	3	n/a	0	COFFEE	341	n/a	n/a	0	n/a	n/a	n/a	n/a	n/a
3565.224	n/a	FFR_REC_WORD	1782612	wordpools/wasnorm_wordpool_less_exclusions.txt	LTP223	ltpFR	3	n/a	0	TEAPOT	1442	n/a	n/a	1	n/a	n/a	n/a	n/a	n/a
3574.104	n/a	FFR_REC_WORD	1787052	wordpools/wasnorm_wordpool_less_exclusions.txt	LTP223	ltpFR	3	n/a	-1	CYCLONE	431	n/a	n/a	-1	n/a	n/a	n/a	n/a	n/a
3584.78	n/a	FFR_REC_WORD	1792390	wordpools/wasnorm_wordpool_less_exclusions.txt	LTP223	ltpFR	3	n/a	n/a	LAKE	796	n/a	n/a	n/a	n/a	n/a	n/a	n/a	n/a
3594.45	n/a	FFR_REC_WORD	1797225	wordpools/wasnorm_wordpool_less_exclusions.txt	LTP223	ltpFR	3	n/a	0	ARTIST	43	n/a	n/a	1	n/a	n/a	n/a	n/a	n/a
3596.116	n/a	FFR_REC_WORD	1798058	wordpools/wasnorm_wordpool_less_exclusions.txt	LTP223	ltpFR	3	n/a	0	PORTRAIT	1111	n/a	n/a	1	n/a	n/a	n/a	n/a	n/a
3607.346	n/a	FFR_REC_WORD	1803673	wordpools/wasnorm_wordpool_less_exclusions.txt	LTP223	ltpFR	3	n/a	-1	XEROX	1628	n/a	n/a	-1	n/a	n/a	n/a	n/a	n/a
3608.346	n/a	FFR_REC_WORD_VV	1804173	wordpools/wasnorm_wordpool_less_exclusions.txt	LTP223	ltpFR	3	n/a	n/a	<>	-1	n/a	n/a	n/a	n/a	n/a	n/a	n/a	n/a
3609.82	n/a	FFR_REC_WORD	1804910	wordpools/wasnorm_wordpool_less_exclusions.txt	LTP223	ltpFR	3	n/a	0	MICROWAVE	892	n/a	n/a	1	n/a	n/a	n/a	n/a	n/a
3617.772	n/a	FFR_REC_WORD	1808886	wordpools/wasnorm_wordpool_less_exclusions.txt	LTP223	ltpFR	3	n/a	n/a	LETTUCE	814	n/a	n/a	n/a	n/a	n/a	n/a	n/a	n/a
3624.258	n/a	FFR_REC_WORD	1812129	wordpools/wasnorm_wordpool_less_exclusions.txt	LTP223	ltpFR	3	n/a	n/a	SECRETARY	1265	n/a	n/a	n/a	n/a	n/a	n/a	n/a	n/a
3632.012	n/a	FFR_REC_WORD	1816006	wordpools/wasnorm_wordpool_less_exclusions.txt	LTP223	ltpFR	3	n/a	n/a	ROBOT	1200	n/a	n/a	n/a	n/a	n/a	n/a	n/a	n/a
3648.376	n/a	FFR_REC_WORD	1824188	wordpools/wasnorm_wordpool_less_exclusions.txt	LTP223	ltpFR	3	n/a	n/a	ROBOT	1200	n/a	n/a	n/a	n/a	n/a	n/a	n/a	n/a
3656.956	n/a	FFR_REC_WORD	1828478	wordpools/wasnorm_wordpool_less_exclusions.txt	LTP223	ltpFR	3	n/a	0	THUMB	1462	n/a	n/a	0	n/a	n/a	n/a	n/a	n/a
3660.334	n/a	FFR_REC_WORD	1830167	wordpools/wasnorm_wordpool_less_exclusions.txt	LTP223	ltpFR	3	n/a	n/a	ELBOW	520	n/a	n/a	n/a	n/a	n/a	n/a	n/a	n/a
3662.004	n/a	FFR_REC_WORD	1831002	wordpools/wasnorm_wordpool_less_exclusions.txt	LTP223	ltpFR	3	n/a	0	LIMB	822	n/a	n/a	n/a	n/a	n/a	n/a	n/a	n/a
3670.536	n/a	FFR_REC_WORD	1835268	wordpools/wasnorm_wordpool_less_exclusions.txt	LTP223	ltpFR	3	n/a	n/a	STADIUM	1364	n/a	n/a	n/a	n/a	n/a	n/a	n/a	n/a
3677.31	n/a	FFR_REC_WORD	1838655	wordpools/wasnorm_wordpool_less_exclusions.txt	LTP223	ltpFR	3	n/a	0	AUTOMOBILE	62	n/a	n/a	1	n/a	n/a	n/a	n/a	n/a
3686.286	n/a	FFR_REC_WORD	1843143	wordpools/wasnorm_wordpool_less_exclusions.txt	LTP223	ltpFR	3	n/a	0	WRENCH	1625	n/a	n/a	0	n/a	n/a	n/a	n/a	n/a
3697.68	n/a	FFR_REC_WORD	1848840	wordpools/wasnorm_wordpool_less_exclusions.txt	LTP223	ltpFR	3	n/a	n/a	SQUIRREL	1362	n/a	n/a	n/a	n/a	n/a	n/a	n/a	n/a
3705.274	n/a	FFR_REC_WORD	1852637	wordpools/wasnorm_wordpool_less_exclusions.txt	LTP223	ltpFR	3	n/a	-1	CHIMPANZEE	302	n/a	n/a	-1	n/a	n/a	n/a	n/a	n/a
3824.208	n/a	REC_START	1912104	n/a	LTP223	ltpFR	3	1	n/a	n/a	n/a	n/a	n/a	n/a	n/a	n/a	n/a	n/a	n/a
3824.264	n/a	RECOG_TARGET	1912132	n/a	LTP223	ltpFR	3	1	-1	STREET	1393	1	3	-1	n/a	n/a	n/a	n/a	n/a
3826.502	n/a	RECOG_RESP	1913251	n/a	LTP223	ltpFR	3	1	-1	STREET	1393	1	n/a	-1	n/a	n/a	n/a	n/a	n/a
3829.64	n/a	RECOG_RESP_VV	1914820	n/a	LTP223	ltpFR	3	1	-1	STREET	1393	n/a	3	-1	n/a	n/a	n/a	n/a	n/a
3832.81	n/a	RECOG_CONF	1916405	n/a	LTP223	ltpFR	3	1	-1	STREET	1393	n/a	3	-1	n/a	n/a	n/a	n/a	n/a
3835.826	n/a	RECOG_LURE	1917913	n/a	LTP223	ltpFR	3	1	n/a	TRUCK	1512	1	2	n/a	n/a	n/a	n/a	n/a	n/a
3837.926	n/a	RECOG_RESP	1918963	n/a	LTP223	ltpFR	3	1	n/a	TRUCK	1512	1	n/a	n/a	n/a	n/a	n/a	n/a	n/a
3840.208	n/a	RECOG_CONF	1920104	n/a	LTP223	ltpFR	3	1	n/a	TRUCK	1512	n/a	2	n/a	n/a	n/a	n/a	n/a	n/a
3842.812	n/a	RECOG_LURE	1921406	n/a	LTP223	ltpFR	3	1	n/a	CELLAR	267	0	1	n/a	n/a	n/a	n/a	n/a	n/a
3845.712	n/a	RECOG_RESP	1922856	n/a	LTP223	ltpFR	3	1	n/a	CELLAR	267	0	n/a	n/a	n/a	n/a	n/a	n/a	n/a
3847.758	n/a	RECOG_CONF	1923879	n/a	LTP223	ltpFR	3	1	n/a	CELLAR	267	n/a	1	n/a	n/a	n/a	n/a	n/a	n/a
3850.324	n/a	RECOG_TARGET	1925162	n/a	LTP223	ltpFR	3	1	1	PERCH	1048	0	2	0	n/a	n/a	n/a	n/a	n/a
3853.528	n/a	RECOG_RESP	1926764	n/a	LTP223	ltpFR	3	1	1	PERCH	1048	0	n/a	0	n/a	n/a	n/a	n/a	n/a
3855.42	n/a	RECOG_CONF	1927710	n/a	LTP223	ltpFR	3	1	1	PERCH	1048	n/a	2	0	n/a	n/a	n/a	n/a	n/a
3858.07	n/a	RECOG_TARGET	1929035	n/a	LTP223	ltpFR	3	1	1	BEET	115	0	3	0	n/a	n/a	n/a	n/a	n/a
3860.036	n/a	RECOG_RESP	1930018	n/a	LTP223	ltpFR	3	1	1	BEET	115	0	n/a	0	n/a	n/a	n/a	n/a	n/a
3862.2	n/a	RECOG_CONF	1931100	n/a	LTP223	ltpFR	3	1	1	BEET	115	n/a	3	0	n/a	n/a	n/a	n/a	n/a
3864.72	n/a	RECOG_TARGET	1932360	n/a	LTP223	ltpFR	3	1	0	CANDY	230	1	5	0	n/a	n/a	n/a	n/a	n/a
3865.84	n/a	RECOG_RESP	1932920	n/a	LTP223	ltpFR	3	1	0	CANDY	230	1	n/a	0	n/a	n/a	n/a	n/a	n/a
3868.07	n/a	RECOG_CONF	1934035	n/a	LTP223	ltpFR	3	1	0	CANDY	230	n/a	5	0	n/a	n/a	n/a	n/a	n/a
3870.518	n/a	RECOG_TARGET	1935259	n/a	LTP223	ltpFR	3	1	1	BARRACUDA	90	1	5	1	n/a	n/a	n/a	n/a	n/a
3872.16	n/a	RECOG_RESP	1936080	n/a	LTP223	ltpFR	3	1	1	BARRACUDA	90	1	n/a	1	n/a	n/a	n/a	n/a	n/a
3874.612	n/a	RECOG_CONF	1937306	n/a	LTP223	ltpFR	3	1	1	BARRACUDA	90	n/a	5	1	n/a	n/a	n/a	n/a	n/a
3876.824	n/a	RECOG_TARGET	1938412	n/a	LTP223	ltpFR	3	1	1	CARPENTER	246	1	3	1	n/a	n/a	n/a	n/a	n/a
3878.022	n/a	RECOG_RESP	1939011	n/a	LTP223	ltpFR	3	1	1	CARPENTER	246	1	n/a	1	n/a	n/a	n/a	n/a	n/a
3880.438	n/a	RECOG_CONF	1940219	n/a	LTP223	ltpFR	3	1	1	CARPENTER	246	n/a	3	1	n/a	n/a	n/a	n/a	n/a
3882.848	n/a	RECOG_TARGET	1941424	n/a	LTP223	ltpFR	3	1	-1	TORTOISE	1486	1	4	-1	n/a	n/a	n/a	n/a	n/a
3884.074	n/a	RECOG_RESP	1942037	n/a	LTP223	ltpFR	3	1	-1	TORTOISE	1486	1	n/a	-1	n/a	n/a	n/a	n/a	n/a
3886.134	n/a	RECOG_CONF	1943067	n/a	LTP223	ltpFR	3	1	-1	TORTOISE	1486	n/a	4	-1	n/a	n/a	n/a	n/a	n/a
3888.41	n/a	RECOG_TARGET	1944205	n/a	LTP223	ltpFR	3	1	-1	HANGER	687	1	5	-1	n/a	n/a	n/a	n/a	n/a
3889.274	n/a	RECOG_RESP	1944637	n/a	LTP223	ltpFR	3	1	-1	HANGER	687	1	n/a	-1	n/a	n/a	n/a	n/a	n/a
3891.426	n/a	RECOG_CONF	1945713	n/a	LTP223	ltpFR	3	1	-1	HANGER	687	n/a	5	-1	n/a	n/a	n/a	n/a	n/a
3893.696	n/a	RECOG_LURE	1946848	n/a	LTP223	ltpFR	3	1	n/a	CAPITAL	238	0	2	n/a	n/a	n/a	n/a	n/a	n/a
3895.348	n/a	RECOG_RESP	1947674	n/a	LTP223	ltpFR	3	1	n/a	CAPITAL	238	0	n/a	n/a	n/a	n/a	n/a	n/a	n/a
3897.346	n/a	RECOG_CONF	1948673	n/a	LTP223	ltpFR	3	1	n/a	CAPITAL	238	n/a	2	n/a	n/a	n/a	n/a	n/a	n/a
3899.854	n/a	RECOG_TARGET	1949927	n/a	LTP223	ltpFR	3	1	0	BASSINET	97	1	5	1	n/a	n/a	n/a	n/a	n/a
3901.058	n/a	RECOG_RESP	1950529	n/a	LTP223	ltpFR	3	1	0	BASSINET	97	1	n/a	1	n/a	n/a	n/a	n/a	n/a
3903.056	n/a	RECOG_CONF	1951528	n/a	LTP223	ltpFR	3	1	0	BASSINET	97	n/a	5	1	n/a	n/a	n/a	n/a	n/a
3905.802	n/a	RECOG_TARGET	1952901	n/a	LTP223	ltpFR	3	1	0	CAR	241	1	3	n/a	n/a	n/a	n/a	n/a	n/a
3906.894	n/a	RECOG_RESP	1953447	n/a	LTP223	ltpFR	3	1	0	CAR	241	1	n/a	n/a	n/a	n/a	n/a	n/a	n/a
3909.308	n/a	RECOG_CONF	1954654	n/a	LTP223	ltpFR	3	1	0	CAR	241	n/a	3	n/a	n/a	n/a	n/a	n/a	n/a
3911.75	n/a	RECOG_LURE	1955875	n/a	LTP223	ltpFR	3	1	n/a	SHEARS	1276	0	2	n/a	n/a	n/a	n/a	n/a	n/a
3913.358	n/a	RECOG_RESP	1956679	n/a	LTP223	ltpFR	3	1	n/a	SHEARS	1276	0	n/a	n/a	n/a	n/a	n/a	n/a	n/a
3915.438	n/a	RECOG_CONF	1957719	n/a	LTP223	ltpFR	3	1	n/a	SHEARS	1276	n/a	2	n/a	n/a	n/a	n/a	n/a	n/a
3917.864	n/a	RECOG_TARGET	1958932	n/a	LTP223	ltpFR	3	1	1	ENGINE	535	1	5	0	n/a	n/a	n/a	n/a	n/a
3918.788	n/a	RECOG_RESP	1959394	n/a	LTP223	ltpFR	3	1	1	ENGINE	535	1	n/a	0	n/a	n/a	n/a	n/a	n/a
3920.896	n/a	RECOG_CONF	1960448	n/a	LTP223	ltpFR	3	1	1	ENGINE	535	n/a	5	0	n/a	n/a	n/a	n/a	n/a
3923.242	n/a	RECOG_LURE	1961621	n/a	LTP223	ltpFR	3	1	n/a	DELINQUENT	445	0	2	n/a	n/a	n/a	n/a	n/a	n/a
3924.588	n/a	RECOG_RESP	1962294	n/a	LTP223	ltpFR	3	1	n/a	DELINQUENT	445	0	n/a	n/a	n/a	n/a	n/a	n/a	n/a
3927.074	n/a	RECOG_CONF	1963537	n/a	LTP223	ltpFR	3	1	n/a	DELINQUENT	445	n/a	2	n/a	n/a	n/a	n/a	n/a	n/a
3929.416	n/a	RECOG_LURE	1964708	n/a	LTP223	ltpFR	3	1	n/a	TOOL	1480	1	4	n/a	n/a	n/a	n/a	n/a	n/a
3930.41	n/a	RECOG_RESP	1965205	n/a	LTP223	ltpFR	3	1	n/a	TOOL	1480	1	n/a	n/a	n/a	n/a	n/a	n/a	n/a
3932.458	n/a	RECOG_CONF	1966229	n/a	LTP223	ltpFR	3	1	n/a	TOOL	1480	n/a	4	n/a	n/a	n/a	n/a	n/a	n/a
3934.954	n/a	RECOG_TARGET	1967477	n/a	LTP223	ltpFR	3	1	-1	MAT	877	0	3	-1	n/a	n/a	n/a	n/a	n/a
3936.77	n/a	RECOG_RESP	1968385	n/a	LTP223	ltpFR	3	1	-1	MAT	877	0	n/a	-1	n/a	n/a	n/a	n/a	n/a
3939.766	n/a	RECOG_CONF	1969883	n/a	LTP223	ltpFR	3	1	-1	MAT	877	n/a	3	-1	n/a	n/a	n/a	n/a	n/a
3942.09	n/a	RECOG_LURE	1971045	n/a	LTP223	ltpFR	3	1	n/a	MAYONNAISE	880	0	2	n/a	n/a	n/a	n/a	n/a	n/a
3943.72	n/a	RECOG_RESP	1971860	n/a	LTP223	ltpFR	3	1	n/a	MAYONNAISE	880	0	n/a	n/a	n/a	n/a	n/a	n/a	n/a
3946.356	n/a	RECOG_CONF	1973178	n/a	LTP223	ltpFR	3	1	n/a	MAYONNAISE	880	n/a	2	n/a	n/a	n/a	n/a	n/a	n/a
3948.6	n/a	RECOG_TARGET	1974300	n/a	LTP223	ltpFR	3	1	0	HELMET	702	1	3	1	n/a	n/a	n/a	n/a	n/a
3949.762	n/a	RECOG_RESP	1974881	n/a	LTP223	ltpFR	3	1	0	HELMET	702	1	n/a	1	n/a	n/a	n/a	n/a	n/a
3952.024	n/a	RECOG_CONF	1976012	n/a	LTP223	ltpFR	3	1	0	HELMET	702	n/a	3	1	n/a	n/a	n/a	n/a	n/a
3962.944	n/a	REC_START	1981472	n/a	LTP223	ltpFR	3	2	n/a	n/a	n/a	n/a	n/a	n/a	n/a	n/a	n/a	n/a	n/a
3962.994	n/a	RECOG_LURE	1981497	n/a	LTP223	ltpFR	3	2	n/a	TEMPLE	1448	0	4	n/a	n/a	n/a	n/a	n/a	n/a
3964.872	n/a	RECOG_RESP	1982436	n/a	LTP223	ltpFR	3	2	n/a	TEMPLE	1448	0	n/a	n/a	n/a	n/a	n/a	n/a	n/a
3967.21	n/a	RECOG_CONF	1983605	n/a	LTP223	ltpFR	3	2	n/a	TEMPLE	1448	n/a	4	n/a	n/a	n/a	n/a	n/a	n/a
3969.72	n/a	RECOG_TARGET	1984860	n/a	LTP223	ltpFR	3	2	0	STOVE	1388	1	2	1	n/a	n/a	n/a	n/a	n/a
3971.7	n/a	RECOG_RESP	1985850	n/a	LTP223	ltpFR	3	2	0	STOVE	1388	1	n/a	1	n/a	n/a	n/a	n/a	n/a
3974.022	n/a	RECOG_CONF	1987011	n/a	LTP223	ltpFR	3	2	0	STOVE	1388	n/a	2	1	n/a	n/a	n/a	n/a	n/a
3976.874	n/a	RECOG_TARGET	1988437	n/a	LTP223	ltpFR	3	2	1	WALRUS	1585	1	5	0	n/a	n/a	n/a	n/a	n/a
3978.358	n/a	RECOG_RESP_VV	1989179	n/a	LTP223	ltpFR	3	2	1	WALRUS	1585	0	n/a	0	n/a	n/a	n/a	n/a	n/a
3980.754	n/a	RECOG_RESP	1990377	n/a	LTP223	ltpFR	3	2	1	WALRUS	1585	1	n/a	0	n/a	n/a	n/a	n/a	n/a
3983.584	n/a	RECOG_CONF	1991792	n/a	LTP223	ltpFR	3	2	1	WALRUS	1585	n/a	5	0	n/a	n/a	n/a	n/a	n/a
3985.782	n/a	RECOG_TARGET	1992891	n/a	LTP223	ltpFR	3	2	-1	LOAF	835	1	4	-1	n/a	n/a	n/a	n/a	n/a
3987.026	n/a	RECOG_RESP	1993513	n/a	LTP223	ltpFR	3	2	-1	LOAF	835	1	n/a	-1	n/a	n/a	n/a	n/a	n/a
3989.29	n/a	RECOG_CONF	1994645	n/a	LTP223	ltpFR	3	2	-1	LOAF	835	n/a	4	-1	n/a	n/a	n/a	n/a	n/a
3992.032	n/a	RECOG_TARGET	1996016	n/a	LTP223	ltpFR	3	2	1	FIDDLE	561	1	3	0	n/a	n/a	n/a	n/a	n/a
3993.17	n/a	RECOG_RESP	1996585	n/a	LTP223	ltpFR	3	2	1	FIDDLE	561	1	n/a	0	n/a	n/a	n/a	n/a	n/a
3995.572	n/a	RECOG_CONF	1997786	n/a	LTP223	ltpFR	3	2	1	FIDDLE	561	n/a	3	0	n/a	n/a	n/a	n/a	n/a
3998.172	n/a	RECOG_LURE	1999086	n/a	LTP223	ltpFR	3	2	n/a	MARBLE	867	0	2	n/a	n/a	n/a	n/a	n/a	n/a
3999.778	n/a	RECOG_RESP	1999889	n/a	LTP223	ltpFR	3	2	n/a	MARBLE	867	0	n/a	n/a	n/a	n/a	n/a	n/a	n/a
4002.376	n/a	RECOG_CONF	2001188	n/a	LTP223	ltpFR	3	2	n/a	MARBLE	867	n/a	2	n/a	n/a	n/a	n/a	n/a	n/a
4004.754	n/a	RECOG_TARGET	2002377	n/a	LTP223	ltpFR	3	2	-1	COSTUME	383	1	3	-1	n/a	n/a	n/a	n/a	n/a
4007.37	n/a	RECOG_RESP	2003685	n/a	LTP223	ltpFR	3	2	-1	COSTUME	383	1	n/a	-1	n/a	n/a	n/a	n/a	n/a
4009.392	n/a	RECOG_CONF	2004696	n/a	LTP223	ltpFR	3	2	-1	COSTUME	383	n/a	3	-1	n/a	n/a	n/a	n/a	n/a
4011.942	n/a	RECOG_TARGET	2005971	n/a	LTP223	ltpFR	3	2	0	JOURNAL	760	1	4	n/a	n/a	n/a	n/a	n/a	n/a
4013.332	n/a	RECOG_RESP	2006666	n/a	LTP223	ltpFR	3	2	0	JOURNAL	760	1	n/a	n/a	n/a	n/a	n/a	n/a	n/a
4015.602	n/a	RECOG_CONF	2007801	n/a	LTP223	ltpFR	3	2	0	JOURNAL	760	n/a	4	n/a	n/a	n/a	n/a	n/a	n/a
4018.122	n/a	RECOG_TARGET	2009061	n/a	LTP223	ltpFR	3	2	0	SHORTCAKE	1292	0	3	n/a	n/a	n/a	n/a	n/a	n/a
4019.352	n/a	RECOG_RESP	2009676	n/a	LTP223	ltpFR	3	2	0	SHORTCAKE	1292	0	n/a	n/a	n/a	n/a	n/a	n/a	n/a
4021.476	n/a	RECOG_CONF	2010738	n/a	LTP223	ltpFR	3	2	0	SHORTCAKE	1292	n/a	3	n/a	n/a	n/a	n/a	n/a	n/a
4024.262	n/a	RECOG_TARGET	2012131	n/a	LTP223	ltpFR	3	2	1	COD	340	1	5	1	n/a	n/a	n/a	n/a	n/a
4025.496	n/a	RECOG_RESP	2012748	n/a	LTP223	ltpFR	3	2	1	COD	340	1	n/a	1	n/a	n/a	n/a	n/a	n/a
4027.656	n/a	RECOG_CONF	2013828	n/a	LTP223	ltpFR	3	2	1	COD	340	n/a	5	1	n/a	n/a	n/a	n/a	n/a
4029.894	n/a	RECOG_TARGET	2014947	n/a	LTP223	ltpFR	3	2	0	DISH	474	1	5	0	n/a	n/a	n/a	n/a	n/a
4031.234	n/a	RECOG_RESP	2015617	n/a	LTP223	ltpFR	3	2	0	DISH	474	1	n/a	0	n/a	n/a	n/a	n/a	n/a
4033.334	n/a	RECOG_CONF	2016667	n/a	LTP223	ltpFR	3	2	0	DISH	474	n/a	5	0	n/a	n/a	n/a	n/a	n/a
4035.598	n/a	RECOG_TARGET	2017799	n/a	LTP223	ltpFR	3	2	1	NIGHTGOWN	953	1	4	0	n/a	n/a	n/a	n/a	n/a
4036.606	n/a	RECOG_RESP	2018303	n/a	LTP223	ltpFR	3	2	1	NIGHTGOWN	953	1	n/a	0	n/a	n/a	n/a	n/a	n/a
4038.822	n/a	RECOG_CONF	2019411	n/a	LTP223	ltpFR	3	2	1	NIGHTGOWN	953	n/a	4	0	n/a	n/a	n/a	n/a	n/a
4041.044	n/a	RECOG_LURE	2020522	n/a	LTP223	ltpFR	3	2	n/a	HIP	710	0	3	n/a	n/a	n/a	n/a	n/a	n/a
4043.188	n/a	RECOG_RESP	2021594	n/a	LTP223	ltpFR	3	2	n/a	HIP	710	0	n/a	n/a	n/a	n/a	n/a	n/a	n/a
4045.806	n/a	RECOG_CONF	2022903	n/a	LTP223	ltpFR	3	2	n/a	HIP	710	n/a	3	n/a	n/a	n/a	n/a	n/a	n/a
4048.096	n/a	RECOG_LURE	2024048	n/a	LTP223	ltpFR	3	2	n/a	BISON	131	1	4	n/a	n/a	n/a	n/a	n/a	n/a
4050.102	n/a	RECOG_RESP	2025051	n/a	LTP223	ltpFR	3	2	n/a	BISON	131	1	n/a	n/a	n/a	n/a	n/a	n/a	n/a
4052.512	n/a	RECOG_CONF	2026256	n/a	LTP223	ltpFR	3	2	n/a	BISON	131	n/a	4	n/a	n/a	n/a	n/a	n/a	n/a
4054.98	n/a	RECOG_LURE	2027490	n/a	LTP223	ltpFR	3	2	n/a	SEAT	1264	0	2	n/a	n/a	n/a	n/a	n/a	n/a
4056.926	n/a	RECOG_RESP	2028463	n/a	LTP223	ltpFR	3	2	n/a	SEAT	1264	0	n/a	n/a	n/a	n/a	n/a	n/a	n/a
4059.03	n/a	RECOG_CONF	2029515	n/a	LTP223	ltpFR	3	2	n/a	SEAT	1264	n/a	2	n/a	n/a	n/a	n/a	n/a	n/a
4061.304	n/a	RECOG_TARGET	2030652	n/a	LTP223	ltpFR	3	2	1	DOG	480	0	1	1	n/a	n/a	n/a	n/a	n/a
4063.422	n/a	RECOG_RESP	2031711	n/a	LTP223	ltpFR	3	2	1	DOG	480	0	n/a	1	n/a	n/a	n/a	n/a	n/a
4065.796	n/a	RECOG_CONF	2032898	n/a	LTP223	ltpFR	3	2	1	DOG	480	n/a	1	1	n/a	n/a	n/a	n/a	n/a
4068.598	n/a	RECOG_TARGET	2034299	n/a	LTP223	ltpFR	3	2	1	GRASSHOPPER	656	0	3	1	n/a	n/a	n/a	n/a	n/a
4070.356	n/a	RECOG_RESP	2035178	n/a	LTP223	ltpFR	3	2	1	GRASSHOPPER	656	0	n/a	1	n/a	n/a	n/a	n/a	n/a
4072.974	n/a	RECOG_CONF	2036487	n/a	LTP223	ltpFR	3	2	1	GRASSHOPPER	656	n/a	3	1	n/a	n/a	n/a	n/a	n/a
4075.574	n/a	RECOG_TARGET	2037787	n/a	LTP223	ltpFR	3	2	0	CUSTOMER	430	1	4	1	n/a	n/a	n/a	n/a	n/a
4076.966	n/a	RECOG_RESP	2038483	n/a	LTP223	ltpFR	3	2	0	CUSTOMER	430	1	n/a	1	n/a	n/a	n/a	n/a	n/a
4079.272	n/a	RECOG_CONF	2039636	n/a	LTP223	ltpFR	3	2	0	CUSTOMER	430	n/a	4	1	n/a	n/a	n/a	n/a	n/a
4081.682	n/a	RECOG_TARGET	2040841	n/a	LTP223	ltpFR	3	2	1	CIGARETTE	309	0	2	0	n/a	n/a	n/a	n/a	n/a
4084.458	n/a	RECOG_RESP	2042229	n/a	LTP223	ltpFR	3	2	1	CIGARETTE	309	0	n/a	0	n/a	n/a	n/a	n/a	n/a
4086.628	n/a	RECOG_CONF	2043314	n/a	LTP223	ltpFR	3	2	1	CIGARETTE	309	n/a	2	0	n/a	n/a	n/a	n/a	n/a
4089.07	n/a	RECOG_TARGET	2044535	n/a	LTP223	ltpFR	3	2	-1	OATMEAL	967	1	5	-1	n/a	n/a	n/a	n/a	n/a
4090.504	n/a	RECOG_RESP	2045252	n/a	LTP223	ltpFR	3	2	-1	OATMEAL	967	1	n/a	-1	n/a	n/a	n/a	n/a	n/a
4092.64	n/a	RECOG_CONF	2046320	n/a	LTP223	ltpFR	3	2	-1	OATMEAL	967	n/a	5	-1	n/a	n/a	n/a	n/a	n/a
4103.502	n/a	REC_START	2051751	n/a	LTP223	ltpFR	3	3	n/a	n/a	n/a	n/a	n/a	n/a	n/a	n/a	n/a	n/a	n/a
4103.558	n/a	RECOG_TARGET	2051779	n/a	LTP223	ltpFR	3	3	1	FELLOW	558	0	1	1	n/a	n/a	n/a	n/a	n/a
4106.53	n/a	RECOG_RESP	2053265	n/a	LTP223	ltpFR	3	3	1	FELLOW	558	0	n/a	1	n/a	n/a	n/a	n/a	n/a
4108.856	n/a	RECOG_CONF	2054428	n/a	LTP223	ltpFR	3	3	1	FELLOW	558	n/a	1	1	n/a	n/a	n/a	n/a	n/a
4111.646	n/a	RECOG_TARGET	2055823	n/a	LTP223	ltpFR	3	3	1	DANDELION	438	1	2	1	n/a	n/a	n/a	n/a	n/a
4114.652	n/a	RECOG_RESP	2057326	n/a	LTP223	ltpFR	3	3	1	DANDELION	438	1	n/a	1	n/a	n/a	n/a	n/a	n/a
4116.88	n/a	RECOG_CONF	2058440	n/a	LTP223	ltpFR	3	3	1	DANDELION	438	n/a	2	1	n/a	n/a	n/a	n/a	n/a
4119.502	n/a	RECOG_LURE	2059751	n/a	LTP223	ltpFR	3	3	n/a	ELF	525	0	2	n/a	n/a	n/a	n/a	n/a	n/a
4121.734	n/a	RECOG_RESP	2060867	n/a	LTP223	ltpFR	3	3	n/a	ELF	525	0	n/a	n/a	n/a	n/a	n/a	n/a	n/a
4124.864	n/a	RECOG_CONF	2062432	n/a	LTP223	ltpFR	3	3	n/a	ELF	525	n/a	2	n/a	n/a	n/a	n/a	n/a	n/a
4127.138	n/a	RECOG_TARGET	2063569	n/a	LTP223	ltpFR	3	3	1	STRAW	1390	0	3	0	n/a	n/a	n/a	n/a	n/a
4128.994	n/a	RECOG_RESP	2064497	n/a	LTP223	ltpFR	3	3	1	STRAW	1390	0	n/a	0	n/a	n/a	n/a	n/a	n/a
4131.76	n/a	RECOG_CONF	2065880	n/a	LTP223	ltpFR	3	3	1	STRAW	1390	n/a	3	0	n/a	n/a	n/a	n/a	n/a
4134.5	n/a	RECOG_TARGET	2067250	n/a	LTP223	ltpFR	3	3	1	SUIT	1402	1	4	1	n/a	n/a	n/a	n/a	n/a
4137.71	n/a	RECOG_RESP	2068855	n/a	LTP223	ltpFR	3	3	1	SUIT	1402	1	n/a	1	n/a	n/a	n/a	n/a	n/a
4139.966	n/a	RECOG_CONF	2069983	n/a	LTP223	ltpFR	3	3	1	SUIT	1402	n/a	4	1	n/a	n/a	n/a	n/a	n/a
4142.346	n/a	RECOG_TARGET	2071173	n/a	LTP223	ltpFR	3	3	0	BALLOON	75	1	5	1	n/a	n/a	n/a	n/a	n/a
4143.712	n/a	RECOG_RESP	2071856	n/a	LTP223	ltpFR	3	3	0	BALLOON	75	1	n/a	1	n/a	n/a	n/a	n/a	n/a
4146.098	n/a	RECOG_CONF	2073049	n/a	LTP223	ltpFR	3	3	0	BALLOON	75	n/a	5	1	n/a	n/a	n/a	n/a	n/a
4148.396	n/a	RECOG_TARGET	2074198	n/a	LTP223	ltpFR	3	3	0	WRENCH	1625	1	3	0	n/a	n/a	n/a	n/a	n/a
4150.048	n/a	RECOG_RESP	2075024	n/a	LTP223	ltpFR	3	3	0	WRENCH	1625	1	n/a	0	n/a	n/a	n/a	n/a	n/a
4152.468	n/a	RECOG_CONF	2076234	n/a	LTP223	ltpFR	3	3	0	WRENCH	1625	n/a	3	0	n/a	n/a	n/a	n/a	n/a
4155.046	n/a	RECOG_LURE	2077523	n/a	LTP223	ltpFR	3	3	n/a	LASER	801	0	2	n/a	n/a	n/a	n/a	n/a	n/a
4157.014	n/a	RECOG_RESP	2078507	n/a	LTP223	ltpFR	3	3	n/a	LASER	801	0	n/a	n/a	n/a	n/a	n/a	n/a	n/a
4159.29	n/a	RECOG_CONF	2079645	n/a	LTP223	ltpFR	3	3	n/a	LASER	801	n/a	2	n/a	n/a	n/a	n/a	n/a	n/a
4162.19	n/a	RECOG_TARGET	2081095	n/a	LTP223	ltpFR	3	3	1	MECHANIC	884	1	5	1	n/a	n/a	n/a	n/a	n/a
4164.012	n/a	RECOG_RESP	2082006	n/a	LTP223	ltpFR	3	3	1	MECHANIC	884	1	n/a	1	n/a	n/a	n/a	n/a	n/a
4166.254	n/a	RECOG_CONF	2083127	n/a	LTP223	ltpFR	3	3	1	MECHANIC	884	n/a	5	1	n/a	n/a	n/a	n/a	n/a
4168.596	n/a	RECOG_LURE	2084298	n/a	LTP223	ltpFR	3	3	n/a	TOASTER	1472	0	4	n/a	n/a	n/a	n/a	n/a	n/a
4170.178	n/a	RECOG_RESP	2085089	n/a	LTP223	ltpFR	3	3	n/a	TOASTER	1472	0	n/a	n/a	n/a	n/a	n/a	n/a	n/a
4172.442	n/a	RECOG_CONF	2086221	n/a	LTP223	ltpFR	3	3	n/a	TOASTER	1472	n/a	4	n/a	n/a	n/a	n/a	n/a	n/a
4174.864	n/a	RECOG_TARGET	2087432	n/a	LTP223	ltpFR	3	3	0	COUCH	386	1	5	1	n/a	n/a	n/a	n/a	n/a
4176.67	n/a	RECOG_RESP	2088335	n/a	LTP223	ltpFR	3	3	0	COUCH	386	1	n/a	1	n/a	n/a	n/a	n/a	n/a
4178.754	n/a	RECOG_CONF	2089377	n/a	LTP223	ltpFR	3	3	0	COUCH	386	n/a	5	1	n/a	n/a	n/a	n/a	n/a
4180.994	n/a	RECOG_TARGET	2090497	n/a	LTP223	ltpFR	3	3	-1	WINE	1613	1	5	-1	n/a	n/a	n/a	n/a	n/a
4181.998	n/a	RECOG_RESP	2090999	n/a	LTP223	ltpFR	3	3	-1	WINE	1613	1	n/a	-1	n/a	n/a	n/a	n/a	n/a
4184.32	n/a	RECOG_CONF	2092160	n/a	LTP223	ltpFR	3	3	-1	WINE	1613	n/a	5	-1	n/a	n/a	n/a	n/a	n/a
4186.784	n/a	RECOG_LURE	2093392	n/a	LTP223	ltpFR	3	3	n/a	CORN	381	0	3	n/a	n/a	n/a	n/a	n/a	n/a
4188.812	n/a	RECOG_RESP	2094406	n/a	LTP223	ltpFR	3	3	n/a	CORN	381	0	n/a	n/a	n/a	n/a	n/a	n/a	n/a
4191.222	n/a	RECOG_CONF	2095611	n/a	LTP223	ltpFR	3	3	n/a	CORN	381	n/a	3	n/a	n/a	n/a	n/a	n/a	n/a
4193.844	n/a	RECOG_LURE	2096922	n/a	LTP223	ltpFR	3	3	n/a	EYE	545	0	2	n/a	n/a	n/a	n/a	n/a	n/a
4195.558	n/a	RECOG_RESP	2097779	n/a	LTP223	ltpFR	3	3	n/a	EYE	545	0	n/a	n/a	n/a	n/a	n/a	n/a	n/a
4197.906	n/a	RECOG_CONF	2098953	n/a	LTP223	ltpFR	3	3	n/a	EYE	545	n/a	2	n/a	n/a	n/a	n/a	n/a	n/a
4200.336	n/a	RECOG_TARGET	2100168	n/a	LTP223	ltpFR	3	3	1	VAN	1548	1	3	0	n/a	n/a	n/a	n/a	n/a
4201.54	n/a	RECOG_RESP	2100770	n/a	LTP223	ltpFR	3	3	1	VAN	1548	1	n/a	0	n/a	n/a	n/a	n/a	n/a
4203.544	n/a	RECOG_CONF	2101772	n/a	LTP223	ltpFR	3	3	1	VAN	1548	n/a	3	0	n/a	n/a	n/a	n/a	n/a
4206.082	n/a	RECOG_TARGET	2103041	n/a	LTP223	ltpFR	3	3	1	BIKE	125	0	2	0	n/a	n/a	n/a	n/a	n/a
4209.32	n/a	RECOG_RESP	2104660	n/a	LTP223	ltpFR	3	3	1	BIKE	125	0	n/a	0	n/a	n/a	n/a	n/a	n/a
4211.704	n/a	RECOG_CONF	2105852	n/a	LTP223	ltpFR	3	3	1	BIKE	125	n/a	2	0	n/a	n/a	n/a	n/a	n/a
4214.148	n/a	RECOG_LURE	2107074	n/a	LTP223	ltpFR	3	3	n/a	MUSTARD	935	0	1	n/a	n/a	n/a	n/a	n/a	n/a
4215.782	n/a	RECOG_RESP	2107891	n/a	LTP223	ltpFR	3	3	n/a	MUSTARD	935	0	n/a	n/a	n/a	n/a	n/a	n/a	n/a
4218.448	n/a	RECOG_CONF	2109224	n/a	LTP223	ltpFR	3	3	n/a	MUSTARD	935	n/a	1	n/a	n/a	n/a	n/a	n/a	n/a
4220.964	n/a	RECOG_TARGET	2110482	n/a	LTP223	ltpFR	3	3	1	FREEWAY	603	1	5	0	n/a	n/a	n/a	n/a	n/a
4222.244	n/a	RECOG_RESP	2111122	n/a	LTP223	ltpFR	3	3	1	FREEWAY	603	1	n/a	0	n/a	n/a	n/a	n/a	n/a
4224.416	n/a	RECOG_CONF	2112208	n/a	LTP223	ltpFR	3	3	1	FREEWAY	603	n/a	5	0	n/a	n/a	n/a	n/a	n/a
4226.712	n/a	RECOG_TARGET	2113356	n/a	LTP223	ltpFR	3	3	1	POTTERY	1116	1	3	0	n/a	n/a	n/a	n/a	n/a
4228.822	n/a	RECOG_RESP	2114411	n/a	LTP223	ltpFR	3	3	1	POTTERY	1116	1	n/a	0	n/a	n/a	n/a	n/a	n/a
4230.994	n/a	RECOG_CONF	2115497	n/a	LTP223	ltpFR	3	3	1	POTTERY	1116	n/a	3	0	n/a	n/a	n/a	n/a	n/a
4233.528	n/a	RECOG_TARGET	2116764	n/a	LTP223	ltpFR	3	3	-1	NEPTUNE	943	1	4	-1	n/a	n/a	n/a	n/a	n/a
4235.368	n/a	RECOG_RESP	2117684	n/a	LTP223	ltpFR	3	3	-1	NEPTUNE	943	1	n/a	-1	n/a	n/a	n/a	n/a	n/a
4237.468	n/a	RECOG_CONF	2118734	n/a	LTP223	ltpFR	3	3	-1	NEPTUNE	943	n/a	4	-1	n/a	n/a	n/a	n/a	n/a
4245.322	n/a	REC_START	2122661	n/a	LTP223	ltpFR	3	4	n/a	n/a	n/a	n/a	n/a	n/a	n/a	n/a	n/a	n/a	n/a
4245.374	n/a	RECOG_LURE	2122687	n/a	LTP223	ltpFR	3	4	n/a	SUMMIT	1405	0	2	n/a	n/a	n/a	n/a	n/a	n/a
4248.484	n/a	RECOG_RESP	2124242	n/a	LTP223	ltpFR	3	4	n/a	SUMMIT	1405	0	n/a	n/a	n/a	n/a	n/a	n/a	n/a
4250.49	n/a	RECOG_CONF	2125245	n/a	LTP223	ltpFR	3	4	n/a	SUMMIT	1405	n/a	2	n/a	n/a	n/a	n/a	n/a	n/a
4253.246	n/a	RECOG_TARGET	2126623	n/a	LTP223	ltpFR	3	4	0	TEAPOT	1442	1	5	1	n/a	n/a	n/a	n/a	n/a
4254.438	n/a	RECOG_RESP	2127219	n/a	LTP223	ltpFR	3	4	0	TEAPOT	1442	1	n/a	1	n/a	n/a	n/a	n/a	n/a
4257.328	n/a	RECOG_CONF	2128664	n/a	LTP223	ltpFR	3	4	0	TEAPOT	1442	n/a	5	1	n/a	n/a	n/a	n/a	n/a
4259.722	n/a	RECOG_LURE	2129861	n/a	LTP223	ltpFR	3	4	n/a	CLOCK	325	0	4	n/a	n/a	n/a	n/a	n/a	n/a
4261.41	n/a	RECOG_RESP	2130705	n/a	LTP223	ltpFR	3	4	n/a	CLOCK	325	0	n/a	n/a	n/a	n/a	n/a	n/a	n/a
4263.614	n/a	RECOG_CONF	2131807	n/a	LTP223	ltpFR	3	4	n/a	CLOCK	325	n/a	4	n/a	n/a	n/a	n/a	n/a	n/a
4266.338	n/a	RECOG_TARGET	2133169	n/a	LTP223	ltpFR	3	4	-1	XEROX	1628	1	5	-1	n/a	n/a	n/a	n/a	n/a
4267.542	n/a	RECOG_RESP	2133771	n/a	LTP223	ltpFR	3	4	-1	XEROX	1628	1	n/a	-1	n/a	n/a	n/a	n/a	n/a
4269.814	n/a	RECOG_CONF	2134907	n/a	LTP223	ltpFR	3	4	-1	XEROX	1628	n/a	5	-1	n/a	n/a	n/a	n/a	n/a
4272.236	n/a	RECOG_TARGET	2136118	n/a	LTP223	ltpFR	3	4	0	PORTRAIT	1111	1	5	1	n/a	n/a	n/a	n/a	n/a
4273.244	n/a	RECOG_RESP	2136622	n/a	LTP223	ltpFR	3	4	0	PORTRAIT	1111	1	n/a	1	n/a	n/a	n/a	n/a	n/a
4275.614	n/a	RECOG_CONF	2137807	n/a	LTP223	ltpFR	3	4	0	PORTRAIT	1111	n/a	5	1	n/a	n/a	n/a	n/a	n/a
4278.032	n/a	RECOG_TARGET	2139016	n/a	LTP223	ltpFR	3	4	-1	MONKEY	911	1	3	-1	n/a	n/a	n/a	n/a	n/a
4279.692	n/a	RECOG_RESP	2139846	n/a	LTP223	ltpFR	3	4	-1	MONKEY	911	1	n/a	-1	n/a	n/a	n/a	n/a	n/a
4281.698	n/a	RECOG_CONF	2140849	n/a	LTP223	ltpFR	3	4	-1	MONKEY	911	n/a	3	-1	n/a	n/a	n/a	n/a	n/a
4284.474	n/a	RECOG_LURE	2142237	n/a	LTP223	ltpFR	3	4	n/a	TULIP	1517	0	3	n/a	n/a	n/a	n/a	n/a	n/a
4286.526	n/a	RECOG_RESP	2143263	n/a	LTP223	ltpFR	3	4	n/a	TULIP	1517	0	n/a	n/a	n/a	n/a	n/a	n/a	n/a
4289.18	n/a	RECOG_CONF	2144590	n/a	LTP223	ltpFR	3	4	n/a	TULIP	1517	n/a	3	n/a	n/a	n/a	n/a	n/a	n/a
4291.752	n/a	RECOG_TARGET	2145876	n/a	LTP223	ltpFR	3	4	0	WRITER	1627	1	2	1	n/a	n/a	n/a	n/a	n/a
4294.92	n/a	RECOG_RESP	2147460	n/a	LTP223	ltpFR	3	4	0	WRITER	1627	1	n/a	1	n/a	n/a	n/a	n/a	n/a
4296.992	n/a	RECOG_CONF	2148496	n/a	LTP223	ltpFR	3	4	0	WRITER	1627	n/a	2	1	n/a	n/a	n/a	n/a	n/a
4299.246	n/a	RECOG_LURE	2149623	n/a	LTP223	ltpFR	3	4	n/a	SHIRT	1287	1	1	n/a	n/a	n/a	n/a	n/a	n/a
4300.756	n/a	RECOG_RESP	2150378	n/a	LTP223	ltpFR	3	4	n/a	SHIRT	1287	1	n/a	n/a	n/a	n/a	n/a	n/a	n/a
4303.072	n/a	RECOG_CONF	2151536	n/a	LTP223	ltpFR	3	4	n/a	SHIRT	1287	n/a	1	n/a	n/a	n/a	n/a	n/a	n/a
4305.454	n/a	RECOG_LURE	2152727	n/a	LTP223	ltpFR	3	4	n/a	PENDULUM	1043	0	2	n/a	n/a	n/a	n/a	n/a	n/a
4307.468	n/a	RECOG_RESP	2153734	n/a	LTP223	ltpFR	3	4	n/a	PENDULUM	1043	0	n/a	n/a	n/a	n/a	n/a	n/a	n/a
4310.386	n/a	RECOG_CONF	2155193	n/a	LTP223	ltpFR	3	4	n/a	PENDULUM	1043	n/a	2	n/a	n/a	n/a	n/a	n/a	n/a
4312.682	n/a	RECOG_TARGET	2156341	n/a	LTP223	ltpFR	3	4	0	TOMATO	1476	1	3	0	n/a	n/a	n/a	n/a	n/a
4315.43	n/a	RECOG_RESP	2157715	n/a	LTP223	ltpFR	3	4	0	TOMATO	1476	1	n/a	0	n/a	n/a	n/a	n/a	n/a
4317.662	n/a	RECOG_CONF	2158831	n/a	LTP223	ltpFR	3	4	0	TOMATO	1476	n/a	3	0	n/a	n/a	n/a	n/a	n/a
4320.504	n/a	RECOG_TARGET	2160252	n/a	LTP223	ltpFR	3	4	-1	CRAB	397	1	4	-1	n/a	n/a	n/a	n/a	n/a
4321.95	n/a	RECOG_RESP	2160975	n/a	LTP223	ltpFR	3	4	-1	CRAB	397	1	n/a	-1	n/a	n/a	n/a	n/a	n/a
4324.054	n/a	RECOG_CONF	2162027	n/a	LTP223	ltpFR	3	4	-1	CRAB	397	n/a	4	-1	n/a	n/a	n/a	n/a	n/a
4326.4	n/a	RECOG_TARGET	2163200	n/a	LTP223	ltpFR	3	4	-1	SALOON	1228	1	3	-1	n/a	n/a	n/a	n/a	n/a
4327.608	n/a	RECOG_RESP	2163804	n/a	LTP223	ltpFR	3	4	-1	SALOON	1228	1	n/a	-1	n/a	n/a	n/a	n/a	n/a
4330.118	n/a	RECOG_CONF	2165059	n/a	LTP223	ltpFR	3	4	-1	SALOON	1228	n/a	3	-1	n/a	n/a	n/a	n/a	n/a
4332.6	n/a	RECOG_TARGET	2166300	n/a	LTP223	ltpFR	3	4	1	DINNER	468	1	4	0	n/a	n/a	n/a	n/a	n/a
4333.968	n/a	RECOG_RESP	2166984	n/a	LTP223	ltpFR	3	4	1	DINNER	468	1	n/a	0	n/a	n/a	n/a	n/a	n/a
4336.698	n/a	RECOG_CONF	2168349	n/a	LTP223	ltpFR	3	4	1	DINNER	468	n/a	4	0	n/a	n/a	n/a	n/a	n/a
4339.064	n/a	RECOG_TARGET	2169532	n/a	LTP223	ltpFR	3	4	0	KING	777	0	2	1	n/a	n/a	n/a	n/a	n/a
4340.866	n/a	RECOG_RESP	2170433	n/a	LTP223	ltpFR	3	4	0	KING	777	0	n/a	1	n/a	n/a	n/a	n/a	n/a
4343.116	n/a	RECOG_CONF	2171558	n/a	LTP223	ltpFR	3	4	0	KING	777	n/a	2	1	n/a	n/a	n/a	n/a	n/a
4345.734	n/a	RECOG_TARGET	2172867	n/a	LTP223	ltpFR	3	4	-1	LAUNDRY	803	1	3	-1	n/a	n/a	n/a	n/a	n/a
4347.834	n/a	RECOG_RESP	2173917	n/a	LTP223	ltpFR	3	4	-1	LAUNDRY	803	1	n/a	-1	n/a	n/a	n/a	n/a	n/a
4349.886	n/a	RECOG_CONF	2174943	n/a	LTP223	ltpFR	3	4	-1	LAUNDRY	803	n/a	3	-1	n/a	n/a	n/a	n/a	n/a
4352.6	n/a	RECOG_LURE	2176300	n/a	LTP223	ltpFR	3	4	n/a	BULLY	196	0	5	n/a	n/a	n/a	n/a	n/a	n/a
4354.07	n/a	RECOG_RESP	2177035	n/a	LTP223	ltpFR	3	4	n/a	BULLY	196	0	n/a	n/a	n/a	n/a	n/a	n/a	n/a
4356.562	n/a	RECOG_CONF	2178281	n/a	LTP223	ltpFR	3	4	n/a	BULLY	196	n/a	5	n/a	n/a	n/a	n/a	n/a	n/a
4358.952	n/a	RECOG_TARGET	2179476	n/a	LTP223	ltpFR	3	4	0	SCENERY	1247	1	4	1	n/a	n/a	n/a	n/a	n/a
4360.282	n/a	RECOG_RESP	2180141	n/a	LTP223	ltpFR	3	4	0	SCENERY	1247	1	n/a	1	n/a	n/a	n/a	n/a	n/a
4362.326	n/a	RECOG_CONF	2181163	n/a	LTP223	ltpFR	3	4	0	SCENERY	1247	n/a	4	1	n/a	n/a	n/a	n/a	n/a
4364.94	n/a	RECOG_TARGET	2182470	n/a	LTP223	ltpFR	3	4	1	TYPIST	1532	1	2	1	n/a	n/a	n/a	n/a	n/a
4366.082	n/a	RECOG_RESP	2183041	n/a	LTP223	ltpFR	3	4	1	TYPIST	1532	1	n/a	1	n/a	n/a	n/a	n/a	n/a
4368.386	n/a	RECOG_CONF	2184193	n/a	LTP223	ltpFR	3	4	1	TYPIST	1532	n/a	2	1	n/a	n/a	n/a	n/a	n/a
4370.854	n/a	RECOG_TARGET	2185427	n/a	LTP223	ltpFR	3	4	1	CELLO	268	1	5	0	n/a	n/a	n/a	n/a	n/a
4372.07	n/a	RECOG_RESP	2186035	n/a	LTP223	ltpFR	3	4	1	CELLO	268	1	n/a	0	n/a	n/a	n/a	n/a	n/a
4374.448	n/a	RECOG_CONF	2187224	n/a	LTP223	ltpFR	3	4	1	CELLO	268	n/a	5	0	n/a	n/a	n/a	n/a	n/a
4382.406	n/a	REC_START	2191203	n/a	LTP223	ltpFR	3	5	n/a	n/a	n/a	n/a	n/a	n/a	n/a	n/a	n/a	n/a	n/a
4382.458	n/a	RECOG_LURE	2191229	n/a	LTP223	ltpFR	3	5	n/a	FUNGUS	614	0	3	n/a	n/a	n/a	n/a	n/a	n/a
4384.312	n/a	RECOG_RESP	2192156	n/a	LTP223	ltpFR	3	5	n/a	FUNGUS	614	0	n/a	n/a	n/a	n/a	n/a	n/a	n/a
4386.838	n/a	RECOG_CONF	2193419	n/a	LTP223	ltpFR	3	5	n/a	FUNGUS	614	n/a	3	n/a	n/a	n/a	n/a	n/a	n/a
4389.86	n/a	RECOG_LURE	2194930	n/a	LTP223	ltpFR	3	5	n/a	PECAN	1036	0	2	n/a	n/a	n/a	n/a	n/a	n/a
4391.136	n/a	RECOG_RESP	2195568	n/a	LTP223	ltpFR	3	5	n/a	PECAN	1036	0	n/a	n/a	n/a	n/a	n/a	n/a	n/a
4393.624	n/a	RECOG_CONF	2196812	n/a	LTP223	ltpFR	3	5	n/a	PECAN	1036	n/a	2	n/a	n/a	n/a	n/a	n/a	n/a
4396.016	n/a	RECOG_LURE	2198008	n/a	LTP223	ltpFR	3	5	n/a	GROCERIES	663	0	1	n/a	n/a	n/a	n/a	n/a	n/a
4397.47	n/a	RECOG_RESP	2198735	n/a	LTP223	ltpFR	3	5	n/a	GROCERIES	663	0	n/a	n/a	n/a	n/a	n/a	n/a	n/a
4399.838	n/a	RECOG_CONF	2199919	n/a	LTP223	ltpFR	3	5	n/a	GROCERIES	663	n/a	1	n/a	n/a	n/a	n/a	n/a	n/a
4402.274	n/a	RECOG_TARGET	2201137	n/a	LTP223	ltpFR	3	5	0	UMBRELLA	1534	0	2	1	n/a	n/a	n/a	n/a	n/a
4403.798	n/a	RECOG_RESP	2201899	n/a	LTP223	ltpFR	3	5	0	UMBRELLA	1534	0	n/a	1	n/a	n/a	n/a	n/a	n/a
4406.224	n/a	RECOG_CONF	2203112	n/a	LTP223	ltpFR	3	5	0	UMBRELLA	1534	n/a	2	1	n/a	n/a	n/a	n/a	n/a
4408.564	n/a	RECOG_LURE	2204282	n/a	LTP223	ltpFR	3	5	n/a	NICKEL	950	1	3	n/a	n/a	n/a	n/a	n/a	n/a
4410.888	n/a	RECOG_RESP	2205444	n/a	LTP223	ltpFR	3	5	n/a	NICKEL	950	1	n/a	n/a	n/a	n/a	n/a	n/a	n/a
4413.292	n/a	RECOG_CONF	2206646	n/a	LTP223	ltpFR	3	5	n/a	NICKEL	950	n/a	3	n/a	n/a	n/a	n/a	n/a	n/a
4415.802	n/a	RECOG_TARGET	2207901	n/a	LTP223	ltpFR	3	5	1	COYOTE	396	1	4	1	n/a	n/a	n/a	n/a	n/a
4418.06	n/a	RECOG_RESP	2209030	n/a	LTP223	ltpFR	3	5	1	COYOTE	396	1	n/a	1	n/a	n/a	n/a	n/a	n/a
4420.488	n/a	RECOG_CONF	2210244	n/a	LTP223	ltpFR	3	5	1	COYOTE	396	n/a	4	1	n/a	n/a	n/a	n/a	n/a
4423.254	n/a	RECOG_LURE	2211627	n/a	LTP223	ltpFR	3	5	n/a	POLYESTER	1100	0	2	n/a	n/a	n/a	n/a	n/a	n/a
4424.962	n/a	RECOG_RESP	2212481	n/a	LTP223	ltpFR	3	5	n/a	POLYESTER	1100	0	n/a	n/a	n/a	n/a	n/a	n/a	n/a
4427.404	n/a	RECOG_CONF	2213702	n/a	LTP223	ltpFR	3	5	n/a	POLYESTER	1100	n/a	2	n/a	n/a	n/a	n/a	n/a	n/a
4429.638	n/a	RECOG_LURE	2214819	n/a	LTP223	ltpFR	3	5	n/a	SCREWDRIVER	1255	0	1	n/a	n/a	n/a	n/a	n/a	n/a
4432.26	n/a	RECOG_RESP	2216130	n/a	LTP223	ltpFR	3	5	n/a	SCREWDRIVER	1255	0	n/a	n/a	n/a	n/a	n/a	n/a	n/a
4435.048	n/a	RECOG_CONF	2217524	n/a	LTP223	ltpFR	3	5	n/a	SCREWDRIVER	1255	n/a	1	n/a	n/a	n/a	n/a	n/a	n/a
4437.602	n/a	RECOG_LURE	2218801	n/a	LTP223	ltpFR	3	5	n/a	FOUNTAIN	597	0	2	n/a	n/a	n/a	n/a	n/a	n/a
4439.062	n/a	RECOG_RESP	2219531	n/a	LTP223	ltpFR	3	5	n/a	FOUNTAIN	597	0	n/a	n/a	n/a	n/a	n/a	n/a	n/a
4441.67	n/a	RECOG_CONF	2220835	n/a	LTP223	ltpFR	3	5	n/a	FOUNTAIN	597	n/a	2	n/a	n/a	n/a	n/a	n/a	n/a
4444.192	n/a	RECOG_TARGET	2222096	n/a	LTP223	ltpFR	3	5	0	TROUT	1511	0	2	1	n/a	n/a	n/a	n/a	n/a
4445.826	n/a	RECOG_RESP	2222913	n/a	LTP223	ltpFR	3	5	0	TROUT	1511	0	n/a	1	n/a	n/a	n/a	n/a	n/a
4448.714	n/a	RECOG_CONF	2224357	n/a	LTP223	ltpFR	3	5	0	TROUT	1511	n/a	2	1	n/a	n/a	n/a	n/a	n/a
4451.12	n/a	RECOG_LURE	2225560	n/a	LTP223	ltpFR	3	5	n/a	PREDATOR	1120	0	1	n/a	n/a	n/a	n/a	n/a	n/a
4453.216	n/a	RECOG_RESP	2226608	n/a	LTP223	ltpFR	3	5	n/a	PREDATOR	1120	0	n/a	n/a	n/a	n/a	n/a	n/a	n/a
4455.384	n/a	RECOG_CONF	2227692	n/a	LTP223	ltpFR	3	5	n/a	PREDATOR	1120	n/a	1	n/a	n/a	n/a	n/a	n/a	n/a
4457.912	n/a	RECOG_TARGET	2228956	n/a	LTP223	ltpFR	3	5	1	PLASTER	1085	1	3	0	n/a	n/a	n/a	n/a	n/a
4459.728	n/a	RECOG_RESP	2229864	n/a	LTP223	ltpFR	3	5	1	PLASTER	1085	1	n/a	0	n/a	n/a	n/a	n/a	n/a
4461.998	n/a	RECOG_CONF	2230999	n/a	LTP223	ltpFR	3	5	1	PLASTER	1085	n/a	3	0	n/a	n/a	n/a	n/a	n/a
4464.462	n/a	RECOG_LURE	2232231	n/a	LTP223	ltpFR	3	5	n/a	CONTINENT	367	1	3	n/a	n/a	n/a	n/a	n/a	n/a
4466.346	n/a	RECOG_RESP	2233173	n/a	LTP223	ltpFR	3	5	n/a	CONTINENT	367	1	n/a	n/a	n/a	n/a	n/a	n/a	n/a
4468.698	n/a	RECOG_CONF	2234349	n/a	LTP223	ltpFR	3	5	n/a	CONTINENT	367	n/a	3	n/a	n/a	n/a	n/a	n/a	n/a
4471.196	n/a	RECOG_TARGET	2235598	n/a	LTP223	ltpFR	3	5	1	GRADUATE	653	1	5	1	n/a	n/a	n/a	n/a	n/a
4473.162	n/a	RECOG_RESP	2236581	n/a	LTP223	ltpFR	3	5	1	GRADUATE	653	1	n/a	1	n/a	n/a	n/a	n/a	n/a
4475.13	n/a	RECOG_CONF	2237565	n/a	LTP223	ltpFR	3	5	1	GRADUATE	653	n/a	5	1	n/a	n/a	n/a	n/a	n/a
4477.62	n/a	RECOG_TARGET	2238810	n/a	LTP223	ltpFR	3	5	1	TEA	1439	1	3	0	n/a	n/a	n/a	n/a	n/a
4478.874	n/a	RECOG_RESP	2239437	n/a	LTP223	ltpFR	3	5	1	TEA	1439	1	n/a	0	n/a	n/a	n/a	n/a	n/a
4481.004	n/a	RECOG_CONF	2240502	n/a	LTP223	ltpFR	3	5	1	TEA	1439	n/a	3	0	n/a	n/a	n/a	n/a	n/a
4483.316	n/a	RECOG_TARGET	2241658	n/a	LTP223	ltpFR	3	5	-1	SHAMPOO	1274	0	2	-1	n/a	n/a	n/a	n/a	n/a
4484.796	n/a	RECOG_RESP	2242398	n/a	LTP223	ltpFR	3	5	-1	SHAMPOO	1274	0	n/a	-1	n/a	n/a	n/a	n/a	n/a
4487.384	n/a	RECOG_CONF	2243692	n/a	LTP223	ltpFR	3	5	-1	SHAMPOO	1274	n/a	2	-1	n/a	n/a	n/a	n/a	n/a
4489.592	n/a	RECOG_LURE	2244796	n/a	LTP223	ltpFR	3	5	n/a	SKATE	1313	0	1	n/a	n/a	n/a	n/a	n/a	n/a
4490.954	n/a	RECOG_RESP	2245477	n/a	LTP223	ltpFR	3	5	n/a	SKATE	1313	0	n/a	n/a	n/a	n/a	n/a	n/a	n/a
4493.28	n/a	RECOG_CONF	2246640	n/a	LTP223	ltpFR	3	5	n/a	SKATE	1313	n/a	1	n/a	n/a	n/a	n/a	n/a	n/a
4495.882	n/a	RECOG_TARGET	2247941	n/a	LTP223	ltpFR	3	5	1	PONY	1102	1	2	1	n/a	n/a	n/a	n/a	n/a
4498.97	n/a	RECOG_RESP	2249485	n/a	LTP223	ltpFR	3	5	1	PONY	1102	1	n/a	1	n/a	n/a	n/a	n/a	n/a
4501.066	n/a	RECOG_CONF	2250533	n/a	LTP223	ltpFR	3	5	1	PONY	1102	n/a	2	1	n/a	n/a	n/a	n/a	n/a
4503.67	n/a	RECOG_LURE	2251835	n/a	LTP223	ltpFR	3	5	n/a	JEEP	753	0	3	n/a	n/a	n/a	n/a	n/a	n/a
4505.708	n/a	RECOG_RESP	2252854	n/a	LTP223	ltpFR	3	5	n/a	JEEP	753	0	n/a	n/a	n/a	n/a	n/a	n/a	n/a
4508.552	n/a	RECOG_CONF	2254276	n/a	LTP223	ltpFR	3	5	n/a	JEEP	753	n/a	3	n/a	n/a	n/a	n/a	n/a	n/a
4510.882	n/a	RECOG_TARGET	2255441	n/a	LTP223	ltpFR	3	5	1	RADISH	1158	0	2	0	n/a	n/a	n/a	n/a	n/a
4512.912	n/a	RECOG_RESP	2256456	n/a	LTP223	ltpFR	3	5	1	RADISH	1158	0	n/a	0	n/a	n/a	n/a	n/a	n/a
4516.204	n/a	RECOG_CONF	2258102	n/a	LTP223	ltpFR	3	5	1	RADISH	1158	n/a	2	0	n/a	n/a	n/a	n/a	n/a
4524.714	n/a	REC_START	2262357	n/a	LTP223	ltpFR	3	6	n/a	n/a	n/a	n/a	n/a	n/a	n/a	n/a	n/a	n/a	n/a
4524.768	n/a	RECOG_TARGET	2262384	n/a	LTP223	ltpFR	3	6	1	DAUGHTER	442	1	3	1	n/a	n/a	n/a	n/a	n/a
4527.764	n/a	RECOG_RESP	2263882	n/a	LTP223	ltpFR	3	6	1	DAUGHTER	442	1	n/a	1	n/a	n/a	n/a	n/a	n/a
4529.968	n/a	RECOG_CONF	2264984	n/a	LTP223	ltpFR	3	6	1	DAUGHTER	442	n/a	3	1	n/a	n/a	n/a	n/a	n/a
4532.522	n/a	RECOG_TARGET	2266261	n/a	LTP223	ltpFR	3	6	0	LILY	821	0	2	n/a	n/a	n/a	n/a	n/a	n/a
4533.898	n/a	RECOG_RESP	2266949	n/a	LTP223	ltpFR	3	6	0	LILY	821	0	n/a	n/a	n/a	n/a	n/a	n/a	n/a
4536.642	n/a	RECOG_CONF	2268321	n/a	LTP223	ltpFR	3	6	0	LILY	821	n/a	2	n/a	n/a	n/a	n/a	n/a	n/a
4539.072	n/a	RECOG_LURE	2269536	n/a	LTP223	ltpFR	3	6	n/a	FORT	595	1	3	n/a	n/a	n/a	n/a	n/a	n/a
4540.43	n/a	RECOG_RESP	2270215	n/a	LTP223	ltpFR	3	6	n/a	FORT	595	1	n/a	n/a	n/a	n/a	n/a	n/a	n/a
4542.606	n/a	RECOG_CONF	2271303	n/a	LTP223	ltpFR	3	6	n/a	FORT	595	n/a	3	n/a	n/a	n/a	n/a	n/a	n/a
4544.962	n/a	RECOG_TARGET	2272481	n/a	LTP223	ltpFR	3	6	0	CABBAGE	210	1	5	1	n/a	n/a	n/a	n/a	n/a
4546.596	n/a	RECOG_RESP	2273298	n/a	LTP223	ltpFR	3	6	0	CABBAGE	210	1	n/a	1	n/a	n/a	n/a	n/a	n/a
4548.674	n/a	RECOG_CONF	2274337	n/a	LTP223	ltpFR	3	6	0	CABBAGE	210	n/a	5	1	n/a	n/a	n/a	n/a	n/a
4550.892	n/a	RECOG_TARGET	2275446	n/a	LTP223	ltpFR	3	6	-1	CURB	426	1	5	-1	n/a	n/a	n/a	n/a	n/a
4552.038	n/a	RECOG_RESP	2276019	n/a	LTP223	ltpFR	3	6	-1	CURB	426	1	n/a	-1	n/a	n/a	n/a	n/a	n/a
4554.23	n/a	RECOG_CONF	2277115	n/a	LTP223	ltpFR	3	6	-1	CURB	426	n/a	5	-1	n/a	n/a	n/a	n/a	n/a
4556.564	n/a	RECOG_LURE	2278282	n/a	LTP223	ltpFR	3	6	n/a	VALLEY	1545	1	3	n/a	n/a	n/a	n/a	n/a	n/a
4557.642	n/a	RECOG_RESP	2278821	n/a	LTP223	ltpFR	3	6	n/a	VALLEY	1545	1	n/a	n/a	n/a	n/a	n/a	n/a	n/a
4559.862	n/a	RECOG_CONF	2279931	n/a	LTP223	ltpFR	3	6	n/a	VALLEY	1545	n/a	3	n/a	n/a	n/a	n/a	n/a	n/a
4562.21	n/a	RECOG_TARGET	2281105	n/a	LTP223	ltpFR	3	6	1	SODA	1341	0	2	0	n/a	n/a	n/a	n/a	n/a
4563.674	n/a	RECOG_RESP	2281837	n/a	LTP223	ltpFR	3	6	1	SODA	1341	0	n/a	0	n/a	n/a	n/a	n/a	n/a
4565.944	n/a	RECOG_CONF	2282972	n/a	LTP223	ltpFR	3	6	1	SODA	1341	n/a	2	0	n/a	n/a	n/a	n/a	n/a
4568.192	n/a	RECOG_LURE	2284096	n/a	LTP223	ltpFR	3	6	n/a	SIBLING	1301	1	3	n/a	n/a	n/a	n/a	n/a	n/a
4569.86	n/a	RECOG_RESP	2284930	n/a	LTP223	ltpFR	3	6	n/a	SIBLING	1301	1	n/a	n/a	n/a	n/a	n/a	n/a	n/a
4572.156	n/a	RECOG_CONF	2286078	n/a	LTP223	ltpFR	3	6	n/a	SIBLING	1301	n/a	3	n/a	n/a	n/a	n/a	n/a	n/a
4574.9	n/a	RECOG_TARGET	2287450	n/a	LTP223	ltpFR	3	6	0	SUPERMARKET	1409	1	4	1	n/a	n/a	n/a	n/a	n/a
4576.49	n/a	RECOG_RESP	2288245	n/a	LTP223	ltpFR	3	6	0	SUPERMARKET	1409	1	n/a	1	n/a	n/a	n/a	n/a	n/a
4578.572	n/a	RECOG_CONF	2289286	n/a	LTP223	ltpFR	3	6	0	SUPERMARKET	1409	n/a	4	1	n/a	n/a	n/a	n/a	n/a
4581.132	n/a	RECOG_LURE	2290566	n/a	LTP223	ltpFR	3	6	n/a	ZIPPER	1636	0	2	n/a	n/a	n/a	n/a	n/a	n/a
4582.436	n/a	RECOG_RESP	2291218	n/a	LTP223	ltpFR	3	6	n/a	ZIPPER	1636	0	n/a	n/a	n/a	n/a	n/a	n/a	n/a
4584.562	n/a	RECOG_CONF	2292281	n/a	LTP223	ltpFR	3	6	n/a	ZIPPER	1636	n/a	2	n/a	n/a	n/a	n/a	n/a	n/a
4587.174	n/a	RECOG_TARGET	2293587	n/a	LTP223	ltpFR	3	6	-1	RANCH	1166	0	1	-1	n/a	n/a	n/a	n/a	n/a
4589.514	n/a	RECOG_RESP	2294757	n/a	LTP223	ltpFR	3	6	-1	RANCH	1166	0	n/a	-1	n/a	n/a	n/a	n/a	n/a
4591.972	n/a	RECOG_CONF	2295986	n/a	LTP223	ltpFR	3	6	-1	RANCH	1166	n/a	1	-1	n/a	n/a	n/a	n/a	n/a
4594.658	n/a	RECOG_TARGET	2297329	n/a	LTP223	ltpFR	3	6	0	SPY	1360	1	3	1	n/a	n/a	n/a	n/a	n/a
4596.236	n/a	RECOG_RESP	2298118	n/a	LTP223	ltpFR	3	6	0	SPY	1360	1	n/a	1	n/a	n/a	n/a	n/a	n/a
4598.318	n/a	RECOG_CONF	2299159	n/a	LTP223	ltpFR	3	6	0	SPY	1360	n/a	3	1	n/a	n/a	n/a	n/a	n/a
4601.008	n/a	RECOG_TARGET	2300504	n/a	LTP223	ltpFR	3	6	1	ATOM	55	1	5	1	n/a	n/a	n/a	n/a	n/a
4602.234	n/a	RECOG_RESP	2301117	n/a	LTP223	ltpFR	3	6	1	ATOM	55	1	n/a	1	n/a	n/a	n/a	n/a	n/a
4604.454	n/a	RECOG_CONF	2302227	n/a	LTP223	ltpFR	3	6	1	ATOM	55	n/a	5	1	n/a	n/a	n/a	n/a	n/a
4606.814	n/a	RECOG_TARGET	2303407	n/a	LTP223	ltpFR	3	6	-1	ENGINEER	536	1	4	-1	n/a	n/a	n/a	n/a	n/a
4607.826	n/a	RECOG_RESP	2303913	n/a	LTP223	ltpFR	3	6	-1	ENGINEER	536	1	n/a	-1	n/a	n/a	n/a	n/a	n/a
4609.966	n/a	RECOG_CONF	2304983	n/a	LTP223	ltpFR	3	6	-1	ENGINEER	536	n/a	4	-1	n/a	n/a	n/a	n/a	n/a
4612.426	n/a	RECOG_TARGET	2306213	n/a	LTP223	ltpFR	3	6	1	OWNER	993	0	2	1	n/a	n/a	n/a	n/a	n/a
4614.018	n/a	RECOG_RESP	2307009	n/a	LTP223	ltpFR	3	6	1	OWNER	993	0	n/a	1	n/a	n/a	n/a	n/a	n/a
4616.288	n/a	RECOG_CONF	2308144	n/a	LTP223	ltpFR	3	6	1	OWNER	993	n/a	2	1	n/a	n/a	n/a	n/a	n/a
4618.584	n/a	RECOG_LURE	2309292	n/a	LTP223	ltpFR	3	6	n/a	SLIME	1327	1	3	n/a	n/a	n/a	n/a	n/a	n/a
4620.302	n/a	RECOG_RESP	2310151	n/a	LTP223	ltpFR	3	6	n/a	SLIME	1327	1	n/a	n/a	n/a	n/a	n/a	n/a	n/a
4622.476	n/a	RECOG_CONF	2311238	n/a	LTP223	ltpFR	3	6	n/a	SLIME	1327	n/a	3	n/a	n/a	n/a	n/a	n/a	n/a
4625.084	n/a	RECOG_TARGET	2312542	n/a	LTP223	ltpFR	3	6	0	COFFEE	341	1	4	0	n/a	n/a	n/a	n/a	n/a
4626.932	n/a	RECOG_RESP	2313466	n/a	LTP223	ltpFR	3	6	0	COFFEE	341	1	n/a	0	n/a	n/a	n/a	n/a	n/a
4629.158	n/a	RECOG_CONF	2314579	n/a	LTP223	ltpFR	3	6	0	COFFEE	341	n/a	4	0	n/a	n/a	n/a	n/a	n/a
4631.66	n/a	RECOG_TARGET	2315830	n/a	LTP223	ltpFR	3	6	-1	CLAMP	316	0	3	-1	n/a	n/a	n/a	n/a	n/a
4634.346	n/a	RECOG_RESP	2317173	n/a	LTP223	ltpFR	3	6	-1	CLAMP	316	0	n/a	-1	n/a	n/a	n/a	n/a	n/a
4636.892	n/a	RECOG_CONF	2318446	n/a	LTP223	ltpFR	3	6	-1	CLAMP	316	n/a	3	-1	n/a	n/a	n/a	n/a	n/a
4639.278	n/a	RECOG_TARGET	2319639	n/a	LTP223	ltpFR	3	6	-1	CABOOSE	214	1	5	-1	n/a	n/a	n/a	n/a	n/a
4641.064	n/a	RECOG_RESP	2320532	n/a	LTP223	ltpFR	3	6	-1	CABOOSE	214	1	n/a	-1	n/a	n/a	n/a	n/a	n/a
4642.864	n/a	RECOG_CONF	2321432	n/a	LTP223	ltpFR	3	6	-1	CABOOSE	214	n/a	5	-1	n/a	n/a	n/a	n/a	n/a
4645.278	n/a	RECOG_LURE	2322639	n/a	LTP223	ltpFR	3	6	n/a	DUNE	506	0	2	n/a	n/a	n/a	n/a	n/a	n/a
4646.83	n/a	RECOG_RESP	2323415	n/a	LTP223	ltpFR	3	6	n/a	DUNE	506	0	n/a	n/a	n/a	n/a	n/a	n/a	n/a
