onset	duration	trial_type	sample	stim_file	subject	experiment	session	trial	item_name	item_num	list	answer	test_x	test_y	test_z
206.45	n/a	SESS_START	103225	n/a	LTP236	ltpFR2	18	n/a	n/a	n/a	n/a	n/a	0	0	0
219.314	n/a	START	109657	n/a	LTP236	ltpFR2	18	n/a	n/a	n/a	-1	n/a	n/a	n/a	n/a
219.328	n/a	PROB	109664	n/a	LTP236	ltpFR2	18	n/a	n/a	n/a	-1	20	9	9	2
220.762	n/a	PROB	110381	n/a	LTP236	ltpFR2	18	n/a	n/a	n/a	-1	18	4	9	5
221.964	n/a	PROB	110982	n/a	LTP236	ltpFR2	18	n/a	n/a	n/a	-1	16	8	7	1
222.898	n/a	PROB	111449	n/a	LTP236	ltpFR2	18	n/a	n/a	n/a	-1	17	6	8	3
223.982	n/a	PROB	111991	n/a	LTP236	ltpFR2	18	n/a	n/a	n/a	-1	9	6	1	2
225.984	n/a	PROB	112992	n/a	LTP236	ltpFR2	18	n/a	n/a	n/a	-1	9	3	3	3
226.852	n/a	PROB	113426	n/a	LTP236	ltpFR2	18	n/a	n/a	n/a	-1	13	1	4	8
227.886	n/a	PROB	113943	n/a	LTP236	ltpFR2	18	n/a	n/a	n/a	-1	16	6	6	4
229.32	n/a	PROB	114660	n/a	LTP236	ltpFR2	18	n/a	n/a	n/a	-1	15	6	4	5
230.142	n/a	STOP	115071	n/a	LTP236	ltpFR2	18	n/a	n/a	n/a	-1	n/a	n/a	n/a	n/a
260.896	n/a	DISTRACTOR	130448	n/a	LTP236	ltpFR2	18	1	n/a	n/a	n/a	n/a	0	0	0
260.898	n/a	START	130449	n/a	LTP236	ltpFR2	18	n/a	n/a	n/a	1	n/a	n/a	n/a	n/a
260.914	n/a	PROB	130457	n/a	LTP236	ltpFR2	18	n/a	n/a	n/a	1	21	3	9	9
262.832	n/a	PROB	131416	n/a	LTP236	ltpFR2	18	n/a	n/a	n/a	1	10	3	5	2
263.95	n/a	PROB	131975	n/a	LTP236	ltpFR2	18	n/a	n/a	n/a	1	11	5	3	3
265.602	n/a	PROB	132801	n/a	LTP236	ltpFR2	18	n/a	n/a	n/a	1	13	3	8	2
267.134	n/a	PROB	133567	n/a	LTP236	ltpFR2	18	n/a	n/a	n/a	1	12	3	1	8
268.086	n/a	PROB	134043	n/a	LTP236	ltpFR2	18	n/a	n/a	n/a	1	16	8	4	4
269.12	n/a	PROB	134560	n/a	LTP236	ltpFR2	18	n/a	n/a	n/a	1	11	6	3	2
270.104	n/a	PROB	135052	n/a	LTP236	ltpFR2	18	n/a	n/a	n/a	1	13	2	4	7
271.072	n/a	PROB	135536	n/a	LTP236	ltpFR2	18	n/a	n/a	n/a	1	16	5	3	8
272.106	n/a	PROB	136053	n/a	LTP236	ltpFR2	18	n/a	n/a	n/a	1	19	5	5	9
273.056	n/a	PROB	136528	n/a	LTP236	ltpFR2	18	n/a	n/a	n/a	1	19	6	5	8
274.292	n/a	PROB	137146	n/a	LTP236	ltpFR2	18	n/a	n/a	n/a	1	17	4	4	9
275.444	n/a	PROB	137722	n/a	LTP236	ltpFR2	18	n/a	n/a	n/a	1	16	4	8	4
276.394	n/a	PROB	138197	n/a	LTP236	ltpFR2	18	n/a	n/a	n/a	1	17	6	6	5
277.644	n/a	PROB	138822	n/a	LTP236	ltpFR2	18	n/a	n/a	n/a	1	16	7	1	8
278.93	n/a	PROB	139465	n/a	LTP236	ltpFR2	18	n/a	n/a	n/a	1	18	9	3	6
279.964	n/a	PROB	139982	n/a	LTP236	ltpFR2	18	n/a	n/a	n/a	1	16	3	7	6
280.898	n/a	PROB	140449	n/a	LTP236	ltpFR2	18	n/a	n/a	n/a	1	17	2	8	7
281.798	n/a	PROB	140899	n/a	LTP236	ltpFR2	18	n/a	n/a	n/a	1	18	7	4	7
282.7	n/a	PROB	141350	n/a	LTP236	ltpFR2	18	n/a	n/a	n/a	1	13	8	3	2
283.552	n/a	STOP	141776	n/a	LTP236	ltpFR2	18	n/a	n/a	n/a	1	n/a	n/a	n/a	n/a
286.018	n/a	WORD	143009	wordpools/wasnorm_wordpool_576.txt	LTP236	ltpFR2	18	1	OYSTER	995	n/a	n/a	0	0	0
288.838	n/a	WORD	144419	wordpools/wasnorm_wordpool_576.txt	LTP236	ltpFR2	18	1	DIVER	476	n/a	n/a	0	0	0
291.508	n/a	WORD	145754	wordpools/wasnorm_wordpool_576.txt	LTP236	ltpFR2	18	1	CRICKET	408	n/a	n/a	0	0	0
294.174	n/a	WORD	147087	wordpools/wasnorm_wordpool_576.txt	LTP236	ltpFR2	18	1	FIDDLE	561	n/a	n/a	0	0	0
296.828	n/a	WORD	148414	wordpools/wasnorm_wordpool_576.txt	LTP236	ltpFR2	18	1	WIFE	1609	n/a	n/a	0	0	0
299.296	n/a	WORD	149648	wordpools/wasnorm_wordpool_576.txt	LTP236	ltpFR2	18	1	PATROL	1027	n/a	n/a	0	0	0
302.014	n/a	WORD	151007	wordpools/wasnorm_wordpool_576.txt	LTP236	ltpFR2	18	1	PLASTER	1085	n/a	n/a	0	0	0
304.5	n/a	WORD	152250	wordpools/wasnorm_wordpool_576.txt	LTP236	ltpFR2	18	1	BULLET	194	n/a	n/a	0	0	0
307.336	n/a	WORD	153668	wordpools/wasnorm_wordpool_576.txt	LTP236	ltpFR2	18	1	GARDEN	623	n/a	n/a	0	0	0
310.072	n/a	WORD	155036	wordpools/wasnorm_wordpool_576.txt	LTP236	ltpFR2	18	1	PEDAL	1037	n/a	n/a	0	0	0
312.724	n/a	WORD	156362	wordpools/wasnorm_wordpool_576.txt	LTP236	ltpFR2	18	1	STATUE	1374	n/a	n/a	0	0	0
315.41	n/a	WORD	157705	wordpools/wasnorm_wordpool_576.txt	LTP236	ltpFR2	18	1	COURSE	390	n/a	n/a	0	0	0
317.946	n/a	WORD	158973	wordpools/wasnorm_wordpool_576.txt	LTP236	ltpFR2	18	1	SHIRT	1287	n/a	n/a	0	0	0
320.582	n/a	WORD	160291	wordpools/wasnorm_wordpool_576.txt	LTP236	ltpFR2	18	1	DRESS	495	n/a	n/a	0	0	0
323.384	n/a	WORD	161692	wordpools/wasnorm_wordpool_576.txt	LTP236	ltpFR2	18	1	CAPTIVE	240	n/a	n/a	0	0	0
325.936	n/a	WORD	162968	wordpools/wasnorm_wordpool_576.txt	LTP236	ltpFR2	18	1	STREAM	1392	n/a	n/a	0	0	0
328.438	n/a	WORD	164219	wordpools/wasnorm_wordpool_576.txt	LTP236	ltpFR2	18	1	SLIDE	1326	n/a	n/a	0	0	0
331.224	n/a	WORD	165612	wordpools/wasnorm_wordpool_576.txt	LTP236	ltpFR2	18	1	DORM	488	n/a	n/a	0	0	0
333.91	n/a	WORD	166955	wordpools/wasnorm_wordpool_576.txt	LTP236	ltpFR2	18	1	BUCKET	184	n/a	n/a	0	0	0
336.412	n/a	WORD	168206	wordpools/wasnorm_wordpool_576.txt	LTP236	ltpFR2	18	1	SPONGE	1355	n/a	n/a	0	0	0
338.914	n/a	WORD	169457	wordpools/wasnorm_wordpool_576.txt	LTP236	ltpFR2	18	1	SHERIFF	1284	n/a	n/a	0	0	0
341.382	n/a	WORD	170691	wordpools/wasnorm_wordpool_576.txt	LTP236	ltpFR2	18	1	CROSS	413	n/a	n/a	0	0	0
343.852	n/a	WORD	171926	wordpools/wasnorm_wordpool_576.txt	LTP236	ltpFR2	18	1	REPORT	1184	n/a	n/a	0	0	0
346.52	n/a	WORD	173260	wordpools/wasnorm_wordpool_576.txt	LTP236	ltpFR2	18	1	FREEZER	604	n/a	n/a	0	0	0
348.136	n/a	START	174068	n/a	LTP236	ltpFR2	18	n/a	n/a	n/a	2	n/a	n/a	n/a	n/a
349.274	n/a	DISTRACTOR	174637	n/a	LTP236	ltpFR2	18	1	n/a	n/a	n/a	n/a	0	0	0
349.288	n/a	PROB	174644	n/a	LTP236	ltpFR2	18	n/a	n/a	n/a	2	13	2	6	5
350.806	n/a	PROB	175403	n/a	LTP236	ltpFR2	18	n/a	n/a	n/a	2	17	7	9	1
351.89	n/a	PROB	175945	n/a	LTP236	ltpFR2	18	n/a	n/a	n/a	2	21	7	8	6
352.958	n/a	PROB	176479	n/a	LTP236	ltpFR2	18	n/a	n/a	n/a	2	17	4	9	4
353.976	n/a	PROB	176988	n/a	LTP236	ltpFR2	18	n/a	n/a	n/a	2	13	6	2	5
354.894	n/a	PROB	177447	n/a	LTP236	ltpFR2	18	n/a	n/a	n/a	2	24	8	7	9
356.044	n/a	PROB	178022	n/a	LTP236	ltpFR2	18	n/a	n/a	n/a	2	13	4	2	7
356.962	n/a	PROB	178481	n/a	LTP236	ltpFR2	18	n/a	n/a	n/a	2	12	4	1	7
357.862	n/a	PROB	178931	n/a	LTP236	ltpFR2	18	n/a	n/a	n/a	2	11	1	3	7
359.33	n/a	PROB	179665	n/a	LTP236	ltpFR2	18	n/a	n/a	n/a	2	4	1	2	1
360.248	n/a	PROB	180124	n/a	LTP236	ltpFR2	18	n/a	n/a	n/a	2	16	9	7	3
361.732	n/a	PROB	180866	n/a	LTP236	ltpFR2	18	n/a	n/a	n/a	2	24	8	8	8
362.85	n/a	PROB	181425	n/a	LTP236	ltpFR2	18	n/a	n/a	n/a	2	11	2	8	1
363.752	n/a	PROB	181876	n/a	LTP236	ltpFR2	18	n/a	n/a	n/a	2	19	6	6	7
365.018	n/a	PROB	182509	n/a	LTP236	ltpFR2	18	n/a	n/a	n/a	2	12	4	8	2
365.87	n/a	PROB	182935	n/a	LTP236	ltpFR2	18	n/a	n/a	n/a	2	15	8	1	6
367.078	n/a	PROB	183539	n/a	LTP236	ltpFR2	18	n/a	n/a	n/a	2	21	8	7	6
368.11	n/a	PROB	184055	n/a	LTP236	ltpFR2	18	n/a	n/a	n/a	2	13	5	6	2
368.994	n/a	PROB	184497	n/a	LTP236	ltpFR2	18	n/a	n/a	n/a	2	11	1	3	7
369.88	n/a	PROB	184940	n/a	LTP236	ltpFR2	18	n/a	n/a	n/a	2	16	9	5	2
371.04	n/a	STOP	185520	n/a	LTP236	ltpFR2	18	n/a	n/a	n/a	2	n/a	n/a	n/a	n/a
374.052	n/a	REC_START	187026	n/a	LTP236	ltpFR2	18	1	n/a	n/a	n/a	n/a	0	0	0
374.43	n/a	REC_WORD	187215	wordpools/wasnorm_wordpool_576.txt	LTP236	ltpFR2	18	1	SHERIFF	1284	n/a	n/a	0	0	0
375.322	n/a	REC_WORD	187661	wordpools/wasnorm_wordpool_576.txt	LTP236	ltpFR2	18	1	CROSS	413	n/a	n/a	0	0	0
375.946	n/a	REC_WORD	187973	wordpools/wasnorm_wordpool_576.txt	LTP236	ltpFR2	18	1	REPORT	1184	n/a	n/a	0	0	0
376.708	n/a	REC_WORD	188354	wordpools/wasnorm_wordpool_576.txt	LTP236	ltpFR2	18	1	FREEZER	604	n/a	n/a	0	0	0
377.554	n/a	REC_WORD	188777	wordpools/wasnorm_wordpool_576.txt	LTP236	ltpFR2	18	1	PATROL	1027	n/a	n/a	0	0	0
378.49	n/a	REC_WORD	189245	wordpools/wasnorm_wordpool_576.txt	LTP236	ltpFR2	18	1	DORM	488	n/a	n/a	0	0	0
379.204	n/a	REC_WORD	189602	wordpools/wasnorm_wordpool_576.txt	LTP236	ltpFR2	18	1	BUCKET	184	n/a	n/a	0	0	0
379.718	n/a	REC_WORD	189859	wordpools/wasnorm_wordpool_576.txt	LTP236	ltpFR2	18	1	SPONGE	1355	n/a	n/a	0	0	0
380.514	n/a	REC_WORD	190257	wordpools/wasnorm_wordpool_576.txt	LTP236	ltpFR2	18	1	SHIRT	1287	n/a	n/a	0	0	0
381.54	n/a	REC_WORD	190770	wordpools/wasnorm_wordpool_576.txt	LTP236	ltpFR2	18	1	DRESS	495	n/a	n/a	0	0	0
382.648	n/a	REC_WORD	191324	wordpools/wasnorm_wordpool_576.txt	LTP236	ltpFR2	18	1	CAPTIVE	240	n/a	n/a	0	0	0
383.45	n/a	REC_WORD	191725	wordpools/wasnorm_wordpool_576.txt	LTP236	ltpFR2	18	1	WIFE	1609	n/a	n/a	0	0	0
385.228	n/a	REC_WORD	192614	wordpools/wasnorm_wordpool_576.txt	LTP236	ltpFR2	18	1	STATUE	1374	n/a	n/a	0	0	0
386.222	n/a	REC_WORD	193111	wordpools/wasnorm_wordpool_576.txt	LTP236	ltpFR2	18	1	GARDEN	623	n/a	n/a	0	0	0
386.936	n/a	REC_WORD	193468	wordpools/wasnorm_wordpool_576.txt	LTP236	ltpFR2	18	1	PLASTER	1085	n/a	n/a	0	0	0
389.076	n/a	REC_WORD	194538	wordpools/wasnorm_wordpool_576.txt	LTP236	ltpFR2	18	1	CRICKET	408	n/a	n/a	0	0	0
389.632	n/a	REC_WORD	194816	wordpools/wasnorm_wordpool_576.txt	LTP236	ltpFR2	18	1	FIDDLE	561	n/a	n/a	0	0	0
390.442	n/a	REC_WORD	195221	wordpools/wasnorm_wordpool_576.txt	LTP236	ltpFR2	18	1	STREAM	1392	n/a	n/a	0	0	0
393.454	n/a	REC_WORD	196727	wordpools/wasnorm_wordpool_576.txt	LTP236	ltpFR2	18	1	SLIDE	1326	n/a	n/a	0	0	0
395.564	n/a	REC_WORD	197782	wordpools/wasnorm_wordpool_576.txt	LTP236	ltpFR2	18	1	DIVER	476	n/a	n/a	0	0	0
396.396	n/a	REC_WORD	198198	wordpools/wasnorm_wordpool_576.txt	LTP236	ltpFR2	18	1	OYSTER	995	n/a	n/a	0	0	0
464.504	n/a	WORD	232252	wordpools/wasnorm_wordpool_576.txt	LTP236	ltpFR2	18	2	SHRUB	1299	n/a	n/a	0	0	0
467.038	n/a	WORD	233519	wordpools/wasnorm_wordpool_576.txt	LTP236	ltpFR2	18	2	PARSLEY	1016	n/a	n/a	0	0	0
469.576	n/a	WORD	234788	wordpools/wasnorm_wordpool_576.txt	LTP236	ltpFR2	18	2	KETCHUP	771	n/a	n/a	0	0	0
472.294	n/a	WORD	236147	wordpools/wasnorm_wordpool_576.txt	LTP236	ltpFR2	18	2	MARSH	874	n/a	n/a	0	0	0
474.932	n/a	WORD	237466	wordpools/wasnorm_wordpool_576.txt	LTP236	ltpFR2	18	2	WASHER	1592	n/a	n/a	0	0	0
477.482	n/a	WORD	238741	wordpools/wasnorm_wordpool_576.txt	LTP236	ltpFR2	18	2	CHIPMUNK	304	n/a	n/a	0	0	0
480.014	n/a	WORD	240007	wordpools/wasnorm_wordpool_576.txt	LTP236	ltpFR2	18	2	DRAGON	492	n/a	n/a	0	0	0
482.438	n/a	WORD	241219	wordpools/wasnorm_wordpool_576.txt	LTP236	ltpFR2	18	2	SWORD	1423	n/a	n/a	0	0	0
485.204	n/a	WORD	242602	wordpools/wasnorm_wordpool_576.txt	LTP236	ltpFR2	18	2	LABEL	790	n/a	n/a	0	0	0
487.806	n/a	WORD	243903	wordpools/wasnorm_wordpool_576.txt	LTP236	ltpFR2	18	2	HOOD	714	n/a	n/a	0	0	0
490.274	n/a	WORD	245137	wordpools/wasnorm_wordpool_576.txt	LTP236	ltpFR2	18	2	BUG	187	n/a	n/a	0	0	0
493.026	n/a	WORD	246513	wordpools/wasnorm_wordpool_576.txt	LTP236	ltpFR2	18	2	WHISKERS	1605	n/a	n/a	0	0	0
495.682	n/a	WORD	247841	wordpools/wasnorm_wordpool_576.txt	LTP236	ltpFR2	18	2	DRESSER	496	n/a	n/a	0	0	0
498.448	n/a	WORD	249224	wordpools/wasnorm_wordpool_576.txt	LTP236	ltpFR2	18	2	BUREAU	199	n/a	n/a	0	0	0
501.132	n/a	WORD	250566	wordpools/wasnorm_wordpool_576.txt	LTP236	ltpFR2	18	2	TOMBSTONE	1478	n/a	n/a	0	0	0
503.806	n/a	WORD	251903	wordpools/wasnorm_wordpool_576.txt	LTP236	ltpFR2	18	2	WIDOW	1608	n/a	n/a	0	0	0
506.454	n/a	WORD	253227	wordpools/wasnorm_wordpool_576.txt	LTP236	ltpFR2	18	2	PISTON	1076	n/a	n/a	0	0	0
509.044	n/a	WORD	254522	wordpools/wasnorm_wordpool_576.txt	LTP236	ltpFR2	18	2	RUST	1219	n/a	n/a	0	0	0
511.742	n/a	WORD	255871	wordpools/wasnorm_wordpool_576.txt	LTP236	ltpFR2	18	2	POWDER	1117	n/a	n/a	0	0	0
514.244	n/a	WORD	257122	wordpools/wasnorm_wordpool_576.txt	LTP236	ltpFR2	18	2	FILM	565	n/a	n/a	0	0	0
517.05	n/a	WORD	258525	wordpools/wasnorm_wordpool_576.txt	LTP236	ltpFR2	18	2	WARDROBE	1587	n/a	n/a	0	0	0
519.496	n/a	WORD	259748	wordpools/wasnorm_wordpool_576.txt	LTP236	ltpFR2	18	2	SNACK	1331	n/a	n/a	0	0	0
522.08	n/a	WORD	261040	wordpools/wasnorm_wordpool_576.txt	LTP236	ltpFR2	18	2	ICEBERG	731	n/a	n/a	0	0	0
524.702	n/a	WORD	262351	wordpools/wasnorm_wordpool_576.txt	LTP236	ltpFR2	18	2	LADY	794	n/a	n/a	0	0	0
526.31	n/a	START	263155	n/a	LTP236	ltpFR2	18	n/a	n/a	n/a	3	n/a	n/a	n/a	n/a
527.318	n/a	DISTRACTOR	263659	n/a	LTP236	ltpFR2	18	2	n/a	n/a	n/a	n/a	0	0	0
527.328	n/a	PROB	263664	n/a	LTP236	ltpFR2	18	n/a	n/a	n/a	3	22	6	7	9
529.922	n/a	PROB	264961	n/a	LTP236	ltpFR2	18	n/a	n/a	n/a	3	12	6	5	1
531.19	n/a	PROB	265595	n/a	LTP236	ltpFR2	18	n/a	n/a	n/a	3	6	2	3	1
532.14	n/a	PROB	266070	n/a	LTP236	ltpFR2	18	n/a	n/a	n/a	3	13	6	5	2
533.124	n/a	PROB	266562	n/a	LTP236	ltpFR2	18	n/a	n/a	n/a	3	10	6	1	2
534.292	n/a	PROB	267146	n/a	LTP236	ltpFR2	18	n/a	n/a	n/a	3	16	1	8	7
535.474	n/a	PROB	267737	n/a	LTP236	ltpFR2	18	n/a	n/a	n/a	3	14	7	5	2
536.46	n/a	PROB	268230	n/a	LTP236	ltpFR2	18	n/a	n/a	n/a	3	16	1	7	8
537.376	n/a	PROB	268688	n/a	LTP236	ltpFR2	18	n/a	n/a	n/a	3	17	6	7	4
538.61	n/a	PROB	269305	n/a	LTP236	ltpFR2	18	n/a	n/a	n/a	3	15	2	7	6
539.694	n/a	PROB	269847	n/a	LTP236	ltpFR2	18	n/a	n/a	n/a	3	10	6	1	3
541.06	n/a	PROB	270530	n/a	LTP236	ltpFR2	18	n/a	n/a	n/a	3	24	9	9	6
542.178	n/a	PROB	271089	n/a	LTP236	ltpFR2	18	n/a	n/a	n/a	3	13	6	6	1
543.296	n/a	PROB	271648	n/a	LTP236	ltpFR2	18	n/a	n/a	n/a	3	14	5	7	2
544.248	n/a	PROB	272124	n/a	LTP236	ltpFR2	18	n/a	n/a	n/a	3	13	6	6	1
545.098	n/a	PROB	272549	n/a	LTP236	ltpFR2	18	n/a	n/a	n/a	3	10	6	2	2
546.182	n/a	PROB	273091	n/a	LTP236	ltpFR2	18	n/a	n/a	n/a	3	7	1	5	1
547.098	n/a	PROB	273549	n/a	LTP236	ltpFR2	18	n/a	n/a	n/a	3	13	9	2	2
548.602	n/a	PROB	274301	n/a	LTP236	ltpFR2	18	n/a	n/a	n/a	3	5	1	2	3
549.62	n/a	STOP	274810	n/a	LTP236	ltpFR2	18	n/a	n/a	n/a	3	n/a	n/a	n/a	n/a
552.186	n/a	REC_START	276093	n/a	LTP236	ltpFR2	18	2	n/a	n/a	n/a	n/a	0	0	0
552.996	n/a	REC_WORD	276498	wordpools/wasnorm_wordpool_576.txt	LTP236	ltpFR2	18	2	LADY	794	n/a	n/a	0	0	0
553.74	n/a	REC_WORD	276870	wordpools/wasnorm_wordpool_576.txt	LTP236	ltpFR2	18	2	WIDOW	1608	n/a	n/a	0	0	0
554.248	n/a	REC_WORD	277124	wordpools/wasnorm_wordpool_576.txt	LTP236	ltpFR2	18	2	SNACK	1331	n/a	n/a	0	0	0
555.332	n/a	REC_WORD	277666	wordpools/wasnorm_wordpool_576.txt	LTP236	ltpFR2	18	2	TOMBSTONE	1478	n/a	n/a	0	0	0
557.886	n/a	REC_WORD	278943	wordpools/wasnorm_wordpool_576.txt	LTP236	ltpFR2	18	2	ICEBERG	731	n/a	n/a	0	0	0
559.168	n/a	REC_WORD	279584	wordpools/wasnorm_wordpool_576.txt	LTP236	ltpFR2	18	2	PARSLEY	1016	n/a	n/a	0	0	0
559.838	n/a	REC_WORD	279919	wordpools/wasnorm_wordpool_576.txt	LTP236	ltpFR2	18	2	KETCHUP	771	n/a	n/a	0	0	0
562.258	n/a	REC_WORD	281129	wordpools/wasnorm_wordpool_576.txt	LTP236	ltpFR2	18	2	POWDER	1117	n/a	n/a	0	0	0
563.782	n/a	REC_WORD	281891	wordpools/wasnorm_wordpool_576.txt	LTP236	ltpFR2	18	2	DRESSER	496	n/a	n/a	0	0	0
564.39	n/a	REC_WORD	282195	wordpools/wasnorm_wordpool_576.txt	LTP236	ltpFR2	18	2	WARDROBE	1587	n/a	n/a	0	0	0
566.506	n/a	REC_WORD	283253	wordpools/wasnorm_wordpool_576.txt	LTP236	ltpFR2	18	2	BUG	187	n/a	n/a	0	0	0
567.066	n/a	REC_WORD	283533	wordpools/wasnorm_wordpool_576.txt	LTP236	ltpFR2	18	2	WHISKERS	1605	n/a	n/a	0	0	0
569.07	n/a	REC_WORD	284535	wordpools/wasnorm_wordpool_576.txt	LTP236	ltpFR2	18	2	DRAGON	492	n/a	n/a	0	0	0
569.798	n/a	REC_WORD	284899	wordpools/wasnorm_wordpool_576.txt	LTP236	ltpFR2	18	2	SWORD	1423	n/a	n/a	0	0	0
571.25	n/a	REC_WORD	285625	wordpools/wasnorm_wordpool_576.txt	LTP236	ltpFR2	18	2	HOOD	714	n/a	n/a	0	0	0
571.89	n/a	REC_WORD	285945	wordpools/wasnorm_wordpool_576.txt	LTP236	ltpFR2	18	2	CHIPMUNK	304	n/a	n/a	0	0	0
572.816	n/a	REC_WORD	286408	wordpools/wasnorm_wordpool_576.txt	LTP236	ltpFR2	18	2	MARSH	874	n/a	n/a	0	0	0
581.144	n/a	REC_WORD	290572	wordpools/wasnorm_wordpool_576.txt	LTP236	ltpFR2	18	2	BUREAU	199	n/a	n/a	0	0	0
584.656	n/a	REC_WORD	292328	wordpools/wasnorm_wordpool_576.txt	LTP236	ltpFR2	18	2	LABEL	790	n/a	n/a	0	0	0
642.626	n/a	DISTRACTOR	321313	n/a	LTP236	ltpFR2	18	3	n/a	n/a	n/a	n/a	0	0	0
642.626	n/a	START	321313	n/a	LTP236	ltpFR2	18	n/a	n/a	n/a	4	n/a	n/a	n/a	n/a
642.644	n/a	PROB	321322	n/a	LTP236	ltpFR2	18	n/a	n/a	n/a	4	15	6	5	4
644.04	n/a	PROB	322020	n/a	LTP236	ltpFR2	18	n/a	n/a	n/a	4	16	7	5	4
645.262	n/a	PROB	322631	n/a	LTP236	ltpFR2	18	n/a	n/a	n/a	4	12	8	2	2
646.226	n/a	PROB	323113	n/a	LTP236	ltpFR2	18	n/a	n/a	n/a	4	22	5	9	8
647.48	n/a	PROB	323740	n/a	LTP236	ltpFR2	18	n/a	n/a	n/a	4	25	9	8	8
649.03	n/a	PROB	324515	n/a	LTP236	ltpFR2	18	n/a	n/a	n/a	4	11	4	2	5
650.03	n/a	PROB	325015	n/a	LTP236	ltpFR2	18	n/a	n/a	n/a	4	19	9	2	8
651.082	n/a	PROB	325541	n/a	LTP236	ltpFR2	18	n/a	n/a	n/a	4	19	2	9	8
652.114	n/a	PROB	326057	n/a	LTP236	ltpFR2	18	n/a	n/a	n/a	4	16	6	4	6
653.066	n/a	PROB	326533	n/a	LTP236	ltpFR2	18	n/a	n/a	n/a	4	13	1	8	4
654.102	n/a	PROB	327051	n/a	LTP236	ltpFR2	18	n/a	n/a	n/a	4	20	9	8	3
655.37	n/a	PROB	327685	n/a	LTP236	ltpFR2	18	n/a	n/a	n/a	4	17	4	6	7
656.402	n/a	PROB	328201	n/a	LTP236	ltpFR2	18	n/a	n/a	n/a	4	13	3	7	3
658.22	n/a	PROB	329110	n/a	LTP236	ltpFR2	18	n/a	n/a	n/a	4	17	5	9	3
659.324	n/a	PROB	329662	n/a	LTP236	ltpFR2	18	n/a	n/a	n/a	4	15	3	3	9
660.324	n/a	PROB	330162	n/a	LTP236	ltpFR2	18	n/a	n/a	n/a	4	19	5	7	7
661.908	n/a	PROB	330954	n/a	LTP236	ltpFR2	18	n/a	n/a	n/a	4	24	6	9	9
663.274	n/a	PROB	331637	n/a	LTP236	ltpFR2	18	n/a	n/a	n/a	4	24	6	9	9
664.276	n/a	PROB	332138	n/a	LTP236	ltpFR2	18	n/a	n/a	n/a	4	12	4	7	1
665.198	n/a	STOP	332599	n/a	LTP236	ltpFR2	18	n/a	n/a	n/a	4	n/a	n/a	n/a	n/a
667.514	n/a	WORD	333757	wordpools/wasnorm_wordpool_576.txt	LTP236	ltpFR2	18	3	ASIA	46	n/a	n/a	0	0	0
670.282	n/a	WORD	335141	wordpools/wasnorm_wordpool_576.txt	LTP236	ltpFR2	18	3	MILDEW	893	n/a	n/a	0	0	0
672.884	n/a	WORD	336442	wordpools/wasnorm_wordpool_576.txt	LTP236	ltpFR2	18	3	PEBBLE	1035	n/a	n/a	0	0	0
675.47	n/a	WORD	337735	wordpools/wasnorm_wordpool_576.txt	LTP236	ltpFR2	18	3	CEILING	265	n/a	n/a	0	0	0
678.136	n/a	WORD	339068	wordpools/wasnorm_wordpool_576.txt	LTP236	ltpFR2	18	3	APRON	35	n/a	n/a	0	0	0
680.588	n/a	WORD	340294	wordpools/wasnorm_wordpool_576.txt	LTP236	ltpFR2	18	3	TOASTER	1472	n/a	n/a	0	0	0
683.224	n/a	WORD	341612	wordpools/wasnorm_wordpool_576.txt	LTP236	ltpFR2	18	3	SHOVEL	1295	n/a	n/a	0	0	0
685.794	n/a	WORD	342897	wordpools/wasnorm_wordpool_576.txt	LTP236	ltpFR2	18	3	COUNTRY	388	n/a	n/a	0	0	0
688.328	n/a	WORD	344164	wordpools/wasnorm_wordpool_576.txt	LTP236	ltpFR2	18	3	PERCH	1048	n/a	n/a	0	0	0
690.914	n/a	WORD	345457	wordpools/wasnorm_wordpool_576.txt	LTP236	ltpFR2	18	3	GRIZZLY	662	n/a	n/a	0	0	0
693.716	n/a	WORD	346858	wordpools/wasnorm_wordpool_576.txt	LTP236	ltpFR2	18	3	MAILMAN	858	n/a	n/a	0	0	0
696.218	n/a	WORD	348109	wordpools/wasnorm_wordpool_576.txt	LTP236	ltpFR2	18	3	HANDBAG	684	n/a	n/a	0	0	0
698.754	n/a	WORD	349377	wordpools/wasnorm_wordpool_576.txt	LTP236	ltpFR2	18	3	BRIEFCASE	175	n/a	n/a	0	0	0
701.224	n/a	WORD	350612	wordpools/wasnorm_wordpool_576.txt	LTP236	ltpFR2	18	3	DASHBOARD	441	n/a	n/a	0	0	0
703.778	n/a	WORD	351889	wordpools/wasnorm_wordpool_576.txt	LTP236	ltpFR2	18	3	SHARK	1275	n/a	n/a	0	0	0
706.494	n/a	WORD	353247	wordpools/wasnorm_wordpool_576.txt	LTP236	ltpFR2	18	3	FLUTE	585	n/a	n/a	0	0	0
709.196	n/a	WORD	354598	wordpools/wasnorm_wordpool_576.txt	LTP236	ltpFR2	18	3	MOP	916	n/a	n/a	0	0	0
711.664	n/a	WORD	355832	wordpools/wasnorm_wordpool_576.txt	LTP236	ltpFR2	18	3	HOOK	715	n/a	n/a	0	0	0
714.382	n/a	WORD	357191	wordpools/wasnorm_wordpool_576.txt	LTP236	ltpFR2	18	3	TAXI	1438	n/a	n/a	0	0	0
717.084	n/a	WORD	358542	wordpools/wasnorm_wordpool_576.txt	LTP236	ltpFR2	18	3	DAISY	435	n/a	n/a	0	0	0
719.82	n/a	WORD	359910	wordpools/wasnorm_wordpool_576.txt	LTP236	ltpFR2	18	3	LILY	821	n/a	n/a	0	0	0
722.388	n/a	WORD	361194	wordpools/wasnorm_wordpool_576.txt	LTP236	ltpFR2	18	3	FLIPPER	580	n/a	n/a	0	0	0
724.81	n/a	WORD	362405	wordpools/wasnorm_wordpool_576.txt	LTP236	ltpFR2	18	3	SCULPTURE	1258	n/a	n/a	0	0	0
727.53	n/a	WORD	363765	wordpools/wasnorm_wordpool_576.txt	LTP236	ltpFR2	18	3	DRUG	501	n/a	n/a	0	0	0
729.144	n/a	START	364572	n/a	LTP236	ltpFR2	18	n/a	n/a	n/a	5	n/a	n/a	n/a	n/a
730.146	n/a	DISTRACTOR	365073	n/a	LTP236	ltpFR2	18	3	n/a	n/a	n/a	n/a	0	0	0
730.16	n/a	PROB	365080	n/a	LTP236	ltpFR2	18	n/a	n/a	n/a	5	20	4	7	9
733.612	n/a	PROB	366806	n/a	LTP236	ltpFR2	18	n/a	n/a	n/a	5	12	4	6	2
734.614	n/a	PROB	367307	n/a	LTP236	ltpFR2	18	n/a	n/a	n/a	5	24	9	9	6
735.714	n/a	PROB	367857	n/a	LTP236	ltpFR2	18	n/a	n/a	n/a	5	13	1	4	8
737.716	n/a	PROB	368858	n/a	LTP236	ltpFR2	18	n/a	n/a	n/a	5	18	4	8	6
739.2	n/a	PROB	369600	n/a	LTP236	ltpFR2	18	n/a	n/a	n/a	5	12	3	2	7
740.118	n/a	PROB	370059	n/a	LTP236	ltpFR2	18	n/a	n/a	n/a	5	21	4	9	8
741.152	n/a	PROB	370576	n/a	LTP236	ltpFR2	18	n/a	n/a	n/a	5	14	9	2	3
742.102	n/a	PROB	371051	n/a	LTP236	ltpFR2	18	n/a	n/a	n/a	5	17	4	4	9
743.488	n/a	PROB	371744	n/a	LTP236	ltpFR2	18	n/a	n/a	n/a	5	15	2	4	9
744.404	n/a	PROB	372202	n/a	LTP236	ltpFR2	18	n/a	n/a	n/a	5	5	2	2	1
745.204	n/a	PROB	372602	n/a	LTP236	ltpFR2	18	n/a	n/a	n/a	5	3	1	1	1
745.972	n/a	PROB	372986	n/a	LTP236	ltpFR2	18	n/a	n/a	n/a	5	19	8	2	9
746.808	n/a	PROB	373404	n/a	LTP236	ltpFR2	18	n/a	n/a	n/a	5	19	9	1	9
747.676	n/a	PROB	373838	n/a	LTP236	ltpFR2	18	n/a	n/a	n/a	5	178	6	7	4
748.758	n/a	PROB	374379	n/a	LTP236	ltpFR2	18	n/a	n/a	n/a	5	2	5	6	9
750.376	n/a	PROB	375188	n/a	LTP236	ltpFR2	18	n/a	n/a	n/a	5	15	6	1	8
753.144	n/a	STOP	376572	n/a	LTP236	ltpFR2	18	n/a	n/a	n/a	5	n/a	n/a	n/a	n/a
754.996	n/a	REC_START	377498	n/a	LTP236	ltpFR2	18	3	n/a	n/a	n/a	n/a	0	0	0
755.556	n/a	REC_WORD	377778	wordpools/wasnorm_wordpool_576.txt	LTP236	ltpFR2	18	3	FLIPPER	580	n/a	n/a	0	0	0
756.216	n/a	REC_WORD	378108	wordpools/wasnorm_wordpool_576.txt	LTP236	ltpFR2	18	3	SCULPTURE	1258	n/a	n/a	0	0	0
757.18	n/a	REC_WORD	378590	wordpools/wasnorm_wordpool_576.txt	LTP236	ltpFR2	18	3	DRUG	501	n/a	n/a	0	0	0
759.138	n/a	REC_WORD	379569	wordpools/wasnorm_wordpool_576.txt	LTP236	ltpFR2	18	3	DAISY	435	n/a	n/a	0	0	0
759.742	n/a	REC_WORD	379871	wordpools/wasnorm_wordpool_576.txt	LTP236	ltpFR2	18	3	LILY	821	n/a	n/a	0	0	0
760.426	n/a	REC_WORD	380213	wordpools/wasnorm_wordpool_576.txt	LTP236	ltpFR2	18	3	TAXI	1438	n/a	n/a	0	0	0
761.168	n/a	REC_WORD	380584	wordpools/wasnorm_wordpool_576.txt	LTP236	ltpFR2	18	3	MAILMAN	858	n/a	n/a	0	0	0
761.764	n/a	REC_WORD	380882	wordpools/wasnorm_wordpool_576.txt	LTP236	ltpFR2	18	3	SHOVEL	1295	n/a	n/a	0	0	0
762.456	n/a	REC_WORD	381228	wordpools/wasnorm_wordpool_576.txt	LTP236	ltpFR2	18	3	MOP	916	n/a	n/a	0	0	0
763.268	n/a	REC_WORD	381634	wordpools/wasnorm_wordpool_576.txt	LTP236	ltpFR2	18	3	MILDEW	893	n/a	n/a	0	0	0
763.932	n/a	REC_WORD	381966	wordpools/wasnorm_wordpool_576.txt	LTP236	ltpFR2	18	3	CEILING	265	n/a	n/a	0	0	0
764.834	n/a	REC_WORD	382417	wordpools/wasnorm_wordpool_576.txt	LTP236	ltpFR2	18	3	PERCH	1048	n/a	n/a	0	0	0
766.448	n/a	REC_WORD	383224	wordpools/wasnorm_wordpool_576.txt	LTP236	ltpFR2	18	3	APRON	35	n/a	n/a	0	0	0
774.194	n/a	REC_WORD	387097	wordpools/wasnorm_wordpool_576.txt	LTP236	ltpFR2	18	3	BRIEFCASE	175	n/a	n/a	0	0	0
775.062	n/a	REC_WORD	387531	wordpools/wasnorm_wordpool_576.txt	LTP236	ltpFR2	18	3	HANDBAG	684	n/a	n/a	0	0	0
778.496	n/a	REC_WORD	389248	wordpools/wasnorm_wordpool_576.txt	LTP236	ltpFR2	18	3	GRIZZLY	662	n/a	n/a	0	0	0
784.984	n/a	REC_WORD	392492	wordpools/wasnorm_wordpool_576.txt	LTP236	ltpFR2	18	3	FLUTE	585	n/a	n/a	0	0	0
787.14	n/a	REC_WORD	393570	wordpools/wasnorm_wordpool_576.txt	LTP236	ltpFR2	18	3	DASHBOARD	441	n/a	n/a	0	0	0
789.808	n/a	REC_WORD	394904	wordpools/wasnorm_wordpool_576.txt	LTP236	ltpFR2	18	3	FLIPPER	580	n/a	n/a	0	0	0
800.392	n/a	REC_WORD	400196	wordpools/wasnorm_wordpool_576.txt	LTP236	ltpFR2	18	3	SHARK	1275	n/a	n/a	0	0	0
806.128	n/a	REC_WORD	403064	wordpools/wasnorm_wordpool_576.txt	LTP236	ltpFR2	18	3	PEBBLE	1035	n/a	n/a	0	0	0
845.418	n/a	DISTRACTOR	422709	n/a	LTP236	ltpFR2	18	4	n/a	n/a	n/a	n/a	0	0	0
845.42	n/a	START	422710	n/a	LTP236	ltpFR2	18	n/a	n/a	n/a	6	n/a	n/a	n/a	n/a
845.434	n/a	PROB	422717	n/a	LTP236	ltpFR2	18	n/a	n/a	n/a	6	16	4	8	4
848.05	n/a	PROB	424025	n/a	LTP236	ltpFR2	18	n/a	n/a	n/a	6	8	1	3	4
849.086	n/a	PROB	424543	n/a	LTP236	ltpFR2	18	n/a	n/a	n/a	6	18	7	2	9
850.354	n/a	PROB	425177	n/a	LTP236	ltpFR2	18	n/a	n/a	n/a	6	16	2	9	5
851.674	n/a	PROB	425837	n/a	LTP236	ltpFR2	18	n/a	n/a	n/a	6	12	1	4	7
852.552	n/a	PROB	426276	n/a	LTP236	ltpFR2	18	n/a	n/a	n/a	6	23	6	9	8
853.644	n/a	PROB	426822	n/a	LTP236	ltpFR2	18	n/a	n/a	n/a	6	13	3	1	9
854.558	n/a	PROB	427279	n/a	LTP236	ltpFR2	18	n/a	n/a	n/a	6	11	6	3	2
855.622	n/a	PROB	427811	n/a	LTP236	ltpFR2	18	n/a	n/a	n/a	6	19	6	8	5
856.992	n/a	PROB	428496	n/a	LTP236	ltpFR2	18	n/a	n/a	n/a	6	10	6	2	2
858.078	n/a	PROB	429039	n/a	LTP236	ltpFR2	18	n/a	n/a	n/a	6	12	3	1	8
858.958	n/a	PROB	429479	n/a	LTP236	ltpFR2	18	n/a	n/a	n/a	6	15	5	7	3
859.842	n/a	PROB	429921	n/a	LTP236	ltpFR2	18	n/a	n/a	n/a	6	20	7	5	8
861.932	n/a	PROB	430966	n/a	LTP236	ltpFR2	18	n/a	n/a	n/a	6	18	5	4	9
862.882	n/a	PROB	431441	n/a	LTP236	ltpFR2	18	n/a	n/a	n/a	6	15	7	6	2
865.852	n/a	PROB	432926	n/a	LTP236	ltpFR2	18	n/a	n/a	n/a	6	16	5	7	4
866.884	n/a	PROB	433442	n/a	LTP236	ltpFR2	18	n/a	n/a	n/a	6	11	1	4	6
869.418	n/a	STOP	434709	n/a	LTP236	ltpFR2	18	n/a	n/a	n/a	6	n/a	n/a	n/a	n/a
870.552	n/a	WORD	435276	wordpools/wasnorm_wordpool_576.txt	LTP236	ltpFR2	18	4	SCALPEL	1243	n/a	n/a	0	0	0
873.354	n/a	WORD	436677	wordpools/wasnorm_wordpool_576.txt	LTP236	ltpFR2	18	4	SPACE	1345	n/a	n/a	0	0	0
875.872	n/a	WORD	437936	wordpools/wasnorm_wordpool_576.txt	LTP236	ltpFR2	18	4	MARKER	870	n/a	n/a	0	0	0
878.574	n/a	WORD	439287	wordpools/wasnorm_wordpool_576.txt	LTP236	ltpFR2	18	4	TURTLE	1522	n/a	n/a	0	0	0
881.026	n/a	WORD	440513	wordpools/wasnorm_wordpool_576.txt	LTP236	ltpFR2	18	4	KEEPER	769	n/a	n/a	0	0	0
883.73	n/a	WORD	441865	wordpools/wasnorm_wordpool_576.txt	LTP236	ltpFR2	18	4	CRIB	407	n/a	n/a	0	0	0
886.282	n/a	WORD	443141	wordpools/wasnorm_wordpool_576.txt	LTP236	ltpFR2	18	4	ITEM	746	n/a	n/a	0	0	0
889.05	n/a	WORD	444525	wordpools/wasnorm_wordpool_576.txt	LTP236	ltpFR2	18	4	FUNGUS	614	n/a	n/a	0	0	0
891.854	n/a	WORD	445927	wordpools/wasnorm_wordpool_576.txt	LTP236	ltpFR2	18	4	TERMITE	1451	n/a	n/a	0	0	0
894.372	n/a	WORD	447186	wordpools/wasnorm_wordpool_576.txt	LTP236	ltpFR2	18	4	PICTURE	1061	n/a	n/a	0	0	0
897.106	n/a	WORD	448553	wordpools/wasnorm_wordpool_576.txt	LTP236	ltpFR2	18	4	PORTRAIT	1111	n/a	n/a	0	0	0
899.726	n/a	WORD	449863	wordpools/wasnorm_wordpool_576.txt	LTP236	ltpFR2	18	4	SKETCH	1315	n/a	n/a	0	0	0
902.446	n/a	WORD	451223	wordpools/wasnorm_wordpool_576.txt	LTP236	ltpFR2	18	4	LETTUCE	814	n/a	n/a	0	0	0
905.148	n/a	WORD	452574	wordpools/wasnorm_wordpool_576.txt	LTP236	ltpFR2	18	4	SCISSORS	1250	n/a	n/a	0	0	0
907.6	n/a	WORD	453800	wordpools/wasnorm_wordpool_576.txt	LTP236	ltpFR2	18	4	BATHTUB	100	n/a	n/a	0	0	0
910.22	n/a	WORD	455110	wordpools/wasnorm_wordpool_576.txt	LTP236	ltpFR2	18	4	KIDNEY	776	n/a	n/a	0	0	0
912.888	n/a	WORD	456444	wordpools/wasnorm_wordpool_576.txt	LTP236	ltpFR2	18	4	BEAST	108	n/a	n/a	0	0	0
915.322	n/a	WORD	457661	wordpools/wasnorm_wordpool_576.txt	LTP236	ltpFR2	18	4	FRIAR	605	n/a	n/a	0	0	0
917.892	n/a	WORD	458946	wordpools/wasnorm_wordpool_576.txt	LTP236	ltpFR2	18	4	PRINCESS	1125	n/a	n/a	0	0	0
920.66	n/a	WORD	460330	wordpools/wasnorm_wordpool_576.txt	LTP236	ltpFR2	18	4	GLASS	639	n/a	n/a	0	0	0
923.278	n/a	WORD	461639	wordpools/wasnorm_wordpool_576.txt	LTP236	ltpFR2	18	4	WINDOW	1611	n/a	n/a	0	0	0
925.78	n/a	WORD	462890	wordpools/wasnorm_wordpool_576.txt	LTP236	ltpFR2	18	4	MONEY	908	n/a	n/a	0	0	0
928.45	n/a	WORD	464225	wordpools/wasnorm_wordpool_576.txt	LTP236	ltpFR2	18	4	LUGGAGE	847	n/a	n/a	0	0	0
931.184	n/a	WORD	465592	wordpools/wasnorm_wordpool_576.txt	LTP236	ltpFR2	18	4	SNAIL	1332	n/a	n/a	0	0	0
932.804	n/a	START	466402	n/a	LTP236	ltpFR2	18	n/a	n/a	n/a	7	n/a	n/a	n/a	n/a
933.656	n/a	DISTRACTOR	466828	n/a	LTP236	ltpFR2	18	4	n/a	n/a	n/a	n/a	0	0	0
933.67	n/a	PROB	466835	n/a	LTP236	ltpFR2	18	n/a	n/a	n/a	7	10	1	2	7
935.422	n/a	PROB	467711	n/a	LTP236	ltpFR2	18	n/a	n/a	n/a	7	20	9	6	5
936.59	n/a	PROB	468295	n/a	LTP236	ltpFR2	18	n/a	n/a	n/a	7	8	5	1	2
937.74	n/a	PROB	468870	n/a	LTP236	ltpFR2	18	n/a	n/a	n/a	7	14	1	9	4
938.706	n/a	PROB	469353	n/a	LTP236	ltpFR2	18	n/a	n/a	n/a	7	21	9	9	3
939.758	n/a	PROB	469879	n/a	LTP236	ltpFR2	18	n/a	n/a	n/a	7	13	1	4	8
940.726	n/a	PROB	470363	n/a	LTP236	ltpFR2	18	n/a	n/a	n/a	7	14	7	5	2
941.642	n/a	PROB	470821	n/a	LTP236	ltpFR2	18	n/a	n/a	n/a	7	15	6	5	4
942.628	n/a	PROB	471314	n/a	LTP236	ltpFR2	18	n/a	n/a	n/a	7	24	8	8	8
943.694	n/a	PROB	471847	n/a	LTP236	ltpFR2	18	n/a	n/a	n/a	7	11	2	6	3
944.662	n/a	PROB	472331	n/a	LTP236	ltpFR2	18	n/a	n/a	n/a	7	12	3	6	3
945.746	n/a	PROB	472873	n/a	LTP236	ltpFR2	18	n/a	n/a	n/a	7	23	7	7	9
946.93	n/a	PROB	473465	n/a	LTP236	ltpFR2	18	n/a	n/a	n/a	7	7	5	1	1
948.096	n/a	PROB	474048	n/a	LTP236	ltpFR2	18	n/a	n/a	n/a	7	10	3	1	6
949.114	n/a	PROB	474557	n/a	LTP236	ltpFR2	18	n/a	n/a	n/a	7	9	2	1	6
950.366	n/a	PROB	475183	n/a	LTP236	ltpFR2	18	n/a	n/a	n/a	7	9	1	7	1
951.382	n/a	PROB	475691	n/a	LTP236	ltpFR2	18	n/a	n/a	n/a	7	15	8	5	2
952.384	n/a	PROB	476192	n/a	LTP236	ltpFR2	18	n/a	n/a	n/a	7	14	6	4	4
953.3	n/a	PROB	476650	n/a	LTP236	ltpFR2	18	n/a	n/a	n/a	7	17	8	4	5
954.552	n/a	PROB	477276	n/a	LTP236	ltpFR2	18	n/a	n/a	n/a	7	12	7	2	3
956.276	n/a	STOP	478138	n/a	LTP236	ltpFR2	18	n/a	n/a	n/a	7	n/a	n/a	n/a	n/a
958.54	n/a	REC_START	479270	n/a	LTP236	ltpFR2	18	4	n/a	n/a	n/a	n/a	0	0	0
959.162	n/a	REC_WORD	479581	wordpools/wasnorm_wordpool_576.txt	LTP236	ltpFR2	18	4	SNAIL	1332	n/a	n/a	0	0	0
960.08	n/a	REC_WORD	480040	wordpools/wasnorm_wordpool_576.txt	LTP236	ltpFR2	18	4	TURTLE	1522	n/a	n/a	0	0	0
960.886	n/a	REC_WORD	480443	wordpools/wasnorm_wordpool_576.txt	LTP236	ltpFR2	18	4	LUGGAGE	847	n/a	n/a	0	0	0
961.978	n/a	REC_WORD	480989	wordpools/wasnorm_wordpool_576.txt	LTP236	ltpFR2	18	4	BEAST	108	n/a	n/a	0	0	0
962.672	n/a	REC_WORD	481336	wordpools/wasnorm_wordpool_576.txt	LTP236	ltpFR2	18	4	PRINCESS	1125	n/a	n/a	0	0	0
963.482	n/a	REC_WORD	481741	wordpools/wasnorm_wordpool_576.txt	LTP236	ltpFR2	18	4	FRIAR	605	n/a	n/a	0	0	0
966.048	n/a	REC_WORD	483024	wordpools/wasnorm_wordpool_576.txt	LTP236	ltpFR2	18	4	MOLD	-1	n/a	n/a	0	0	0
967.416	n/a	REC_WORD	483708	wordpools/wasnorm_wordpool_576.txt	LTP236	ltpFR2	18	4	TERMITE	1451	n/a	n/a	0	0	0
969.838	n/a	REC_WORD	484919	wordpools/wasnorm_wordpool_576.txt	LTP236	ltpFR2	18	4	FUNGUS	614	n/a	n/a	0	0	0
971.116	n/a	REC_WORD	485558	wordpools/wasnorm_wordpool_576.txt	LTP236	ltpFR2	18	4	CRIB	407	n/a	n/a	0	0	0
971.862	n/a	REC_WORD	485931	wordpools/wasnorm_wordpool_576.txt	LTP236	ltpFR2	18	4	BATHTUB	100	n/a	n/a	0	0	0
972.674	n/a	REC_WORD	486337	wordpools/wasnorm_wordpool_576.txt	LTP236	ltpFR2	18	4	GLASS	639	n/a	n/a	0	0	0
973.246	n/a	REC_WORD	486623	wordpools/wasnorm_wordpool_576.txt	LTP236	ltpFR2	18	4	WINDOW	1611	n/a	n/a	0	0	0
978.868	n/a	REC_WORD	489434	wordpools/wasnorm_wordpool_576.txt	LTP236	ltpFR2	18	4	MONEY	908	n/a	n/a	0	0	0
987.84	n/a	REC_WORD	493920	wordpools/wasnorm_wordpool_576.txt	LTP236	ltpFR2	18	4	SCALPEL	1243	n/a	n/a	0	0	0
988.992	n/a	REC_WORD	494496	wordpools/wasnorm_wordpool_576.txt	LTP236	ltpFR2	18	4	MARKER	870	n/a	n/a	0	0	0
989.922	n/a	REC_WORD	494961	wordpools/wasnorm_wordpool_576.txt	LTP236	ltpFR2	18	4	ITEM	746	n/a	n/a	0	0	0
990.754	n/a	REC_WORD	495377	wordpools/wasnorm_wordpool_576.txt	LTP236	ltpFR2	18	4	SPACE	1345	n/a	n/a	0	0	0
992.3	n/a	REC_WORD	496150	wordpools/wasnorm_wordpool_576.txt	LTP236	ltpFR2	18	4	KEEPER	769	n/a	n/a	0	0	0
993.142	n/a	REC_WORD	496571	wordpools/wasnorm_wordpool_576.txt	LTP236	ltpFR2	18	4	TURTLE	1522	n/a	n/a	0	0	0
993.806	n/a	REC_WORD	496903	wordpools/wasnorm_wordpool_576.txt	LTP236	ltpFR2	18	4	SNAIL	1332	n/a	n/a	0	0	0
1006.592	n/a	REC_WORD	503296	wordpools/wasnorm_wordpool_576.txt	LTP236	ltpFR2	18	4	PICTURE	1061	n/a	n/a	0	0	0
1007.302	n/a	REC_WORD	503651	wordpools/wasnorm_wordpool_576.txt	LTP236	ltpFR2	18	4	PORTRAIT	1111	n/a	n/a	0	0	0
1007.964	n/a	REC_WORD	503982	wordpools/wasnorm_wordpool_576.txt	LTP236	ltpFR2	18	4	SKETCH	1315	n/a	n/a	0	0	0
1048.974	n/a	WORD	524487	wordpools/wasnorm_wordpool_576.txt	LTP236	ltpFR2	18	5	SPOUSE	1358	n/a	n/a	0	0	0
1051.714	n/a	WORD	525857	wordpools/wasnorm_wordpool_576.txt	LTP236	ltpFR2	18	5	BRANDY	169	n/a	n/a	0	0	0
1054.342	n/a	WORD	527171	wordpools/wasnorm_wordpool_576.txt	LTP236	ltpFR2	18	5	RUG	1215	n/a	n/a	0	0	0
1056.942	n/a	WORD	528471	wordpools/wasnorm_wordpool_576.txt	LTP236	ltpFR2	18	5	VELVET	1555	n/a	n/a	0	0	0
1059.728	n/a	WORD	529864	wordpools/wasnorm_wordpool_576.txt	LTP236	ltpFR2	18	5	STAMP	1370	n/a	n/a	0	0	0
1062.42	n/a	WORD	531210	wordpools/wasnorm_wordpool_576.txt	LTP236	ltpFR2	18	5	SWAMP	1416	n/a	n/a	0	0	0
1065.048	n/a	WORD	532524	wordpools/wasnorm_wordpool_576.txt	LTP236	ltpFR2	18	5	SANDWICH	1232	n/a	n/a	0	0	0
1067.718	n/a	WORD	533859	wordpools/wasnorm_wordpool_576.txt	LTP236	ltpFR2	18	5	RAZOR	1171	n/a	n/a	0	0	0
1070.16	n/a	WORD	535080	wordpools/wasnorm_wordpool_576.txt	LTP236	ltpFR2	18	5	HUSBAND	728	n/a	n/a	0	0	0
1072.808	n/a	WORD	536404	wordpools/wasnorm_wordpool_576.txt	LTP236	ltpFR2	18	5	CANAL	226	n/a	n/a	0	0	0
1075.31	n/a	WORD	537655	wordpools/wasnorm_wordpool_576.txt	LTP236	ltpFR2	18	5	DANCER	437	n/a	n/a	0	0	0
1077.962	n/a	WORD	538981	wordpools/wasnorm_wordpool_576.txt	LTP236	ltpFR2	18	5	TART	1436	n/a	n/a	0	0	0
1080.668	n/a	WORD	540334	wordpools/wasnorm_wordpool_576.txt	LTP236	ltpFR2	18	5	SUITCASE	1403	n/a	n/a	0	0	0
1083.282	n/a	WORD	541641	wordpools/wasnorm_wordpool_576.txt	LTP236	ltpFR2	18	5	KNAPSACK	783	n/a	n/a	0	0	0
1085.956	n/a	WORD	542978	wordpools/wasnorm_wordpool_576.txt	LTP236	ltpFR2	18	5	SKIRT	1319	n/a	n/a	0	0	0
1088.458	n/a	WORD	544229	wordpools/wasnorm_wordpool_576.txt	LTP236	ltpFR2	18	5	BLOUSE	139	n/a	n/a	0	0	0
1090.976	n/a	WORD	545488	wordpools/wasnorm_wordpool_576.txt	LTP236	ltpFR2	18	5	PIMPLE	1071	n/a	n/a	0	0	0
1093.724	n/a	WORD	546862	wordpools/wasnorm_wordpool_576.txt	LTP236	ltpFR2	18	5	LONDON	843	n/a	n/a	0	0	0
1096.158	n/a	WORD	548079	wordpools/wasnorm_wordpool_576.txt	LTP236	ltpFR2	18	5	DUST	508	n/a	n/a	0	0	0
1098.878	n/a	WORD	549439	wordpools/wasnorm_wordpool_576.txt	LTP236	ltpFR2	18	5	BODY	145	n/a	n/a	0	0	0
1101.682	n/a	WORD	550841	wordpools/wasnorm_wordpool_576.txt	LTP236	ltpFR2	18	5	NIGHTGOWN	953	n/a	n/a	0	0	0
1104.216	n/a	WORD	552108	wordpools/wasnorm_wordpool_576.txt	LTP236	ltpFR2	18	5	SUNRISE	1407	n/a	n/a	0	0	0
1106.918	n/a	WORD	553459	wordpools/wasnorm_wordpool_576.txt	LTP236	ltpFR2	18	5	PRINCE	1124	n/a	n/a	0	0	0
1109.372	n/a	WORD	554686	wordpools/wasnorm_wordpool_576.txt	LTP236	ltpFR2	18	5	TOURIST	1488	n/a	n/a	0	0	0
1110.99	n/a	START	555495	n/a	LTP236	ltpFR2	18	n/a	n/a	n/a	8	n/a	n/a	n/a	n/a
1112.17	n/a	DISTRACTOR	556085	n/a	LTP236	ltpFR2	18	5	n/a	n/a	n/a	n/a	0	0	0
1112.176	n/a	PROB	556088	n/a	LTP236	ltpFR2	18	n/a	n/a	n/a	8	7	3	2	2
1113.712	n/a	PROB	556856	n/a	LTP236	ltpFR2	18	n/a	n/a	n/a	8	18	1	9	8
1114.708	n/a	PROB	557354	n/a	LTP236	ltpFR2	18	n/a	n/a	n/a	8	19	1	9	9
1116.06	n/a	PROB	558030	n/a	LTP236	ltpFR2	18	n/a	n/a	n/a	8	17	6	3	8
1117.112	n/a	PROB	558556	n/a	LTP236	ltpFR2	18	n/a	n/a	n/a	8	14	2	4	8
1118.728	n/a	PROB	559364	n/a	LTP236	ltpFR2	18	n/a	n/a	n/a	8	22	6	4	9
1121.58	n/a	PROB	560790	n/a	LTP236	ltpFR2	18	n/a	n/a	n/a	8	19	7	7	5
1123.098	n/a	PROB	561549	n/a	LTP236	ltpFR2	18	n/a	n/a	n/a	8	12	1	9	2
1124.102	n/a	PROB	562051	n/a	LTP236	ltpFR2	18	n/a	n/a	n/a	8	21	5	9	7
1125.62	n/a	PROB	562810	n/a	LTP236	ltpFR2	18	n/a	n/a	n/a	8	15	9	4	3
1126.568	n/a	PROB	563284	n/a	LTP236	ltpFR2	18	n/a	n/a	n/a	8	17	9	2	6
1127.868	n/a	PROB	563934	n/a	LTP236	ltpFR2	18	n/a	n/a	n/a	8	10	5	4	1
1129.288	n/a	PROB	564644	n/a	LTP236	ltpFR2	18	n/a	n/a	n/a	8	24	9	9	6
1130.458	n/a	PROB	565229	n/a	LTP236	ltpFR2	18	n/a	n/a	n/a	8	12	2	1	9
1131.408	n/a	PROB	565704	n/a	LTP236	ltpFR2	18	n/a	n/a	n/a	8	11	2	7	2
1132.724	n/a	PROB	566362	n/a	LTP236	ltpFR2	18	n/a	n/a	n/a	8	18	9	1	8
1133.606	n/a	STOP	566803	n/a	LTP236	ltpFR2	18	n/a	n/a	n/a	8	n/a	n/a	n/a	n/a
1136.764	n/a	REC_START	568382	n/a	LTP236	ltpFR2	18	5	n/a	n/a	n/a	n/a	0	0	0
1137.176	n/a	REC_WORD	568588	wordpools/wasnorm_wordpool_576.txt	LTP236	ltpFR2	18	5	SUNRISE	1407	n/a	n/a	0	0	0
1138.134	n/a	REC_WORD	569067	wordpools/wasnorm_wordpool_576.txt	LTP236	ltpFR2	18	5	PRINCE	1124	n/a	n/a	0	0	0
1138.882	n/a	REC_WORD	569441	wordpools/wasnorm_wordpool_576.txt	LTP236	ltpFR2	18	5	TOURIST	1488	n/a	n/a	0	0	0
1139.836	n/a	REC_WORD	569918	wordpools/wasnorm_wordpool_576.txt	LTP236	ltpFR2	18	5	BODY	145	n/a	n/a	0	0	0
1140.538	n/a	REC_WORD	570269	wordpools/wasnorm_wordpool_576.txt	LTP236	ltpFR2	18	5	NIGHTGOWN	953	n/a	n/a	0	0	0
1143.056	n/a	REC_WORD	571528	wordpools/wasnorm_wordpool_576.txt	LTP236	ltpFR2	18	5	HUSBAND	728	n/a	n/a	0	0	0
1143.782	n/a	REC_WORD	571891	wordpools/wasnorm_wordpool_576.txt	LTP236	ltpFR2	18	5	SPOUSE	1358	n/a	n/a	0	0	0
1145.446	n/a	REC_WORD	572723	wordpools/wasnorm_wordpool_576.txt	LTP236	ltpFR2	18	5	BLOUSE	139	n/a	n/a	0	0	0
1146.558	n/a	REC_WORD	573279	wordpools/wasnorm_wordpool_576.txt	LTP236	ltpFR2	18	5	SKIRT	1319	n/a	n/a	0	0	0
1148.496	n/a	REC_WORD	574248	wordpools/wasnorm_wordpool_576.txt	LTP236	ltpFR2	18	5	DANCER	437	n/a	n/a	0	0	0
1151.276	n/a	REC_WORD	575638	wordpools/wasnorm_wordpool_576.txt	LTP236	ltpFR2	18	5	DUST	508	n/a	n/a	0	0	0
1152.132	n/a	REC_WORD	576066	wordpools/wasnorm_wordpool_576.txt	LTP236	ltpFR2	18	5	LONDON	843	n/a	n/a	0	0	0
1159.702	n/a	REC_WORD	579851	wordpools/wasnorm_wordpool_576.txt	LTP236	ltpFR2	18	5	TART	1436	n/a	n/a	0	0	0
1164.826	n/a	REC_WORD	582413	wordpools/wasnorm_wordpool_576.txt	LTP236	ltpFR2	18	5	SUITCASE	1403	n/a	n/a	0	0	0
1166.684	n/a	REC_WORD	583342	wordpools/wasnorm_wordpool_576.txt	LTP236	ltpFR2	18	5	KNAPSACK	783	n/a	n/a	0	0	0
1169.378	n/a	REC_WORD	584689	wordpools/wasnorm_wordpool_576.txt	LTP236	ltpFR2	18	5	PIMPLE	1071	n/a	n/a	0	0	0
1207.486	n/a	REC_WORD	603743	wordpools/wasnorm_wordpool_576.txt	LTP236	ltpFR2	18	5	VELVET	1555	n/a	n/a	0	0	0
1209.75	n/a	REC_WORD	604875	wordpools/wasnorm_wordpool_576.txt	LTP236	ltpFR2	18	5	RUG	1215	n/a	n/a	0	0	0
1227.198	n/a	WORD	613599	wordpools/wasnorm_wordpool_576.txt	LTP236	ltpFR2	18	6	GALLON	618	n/a	n/a	0	0	0
1229.64	n/a	WORD	614820	wordpools/wasnorm_wordpool_576.txt	LTP236	ltpFR2	18	6	SEAFOOD	1260	n/a	n/a	0	0	0
1232.404	n/a	WORD	616202	wordpools/wasnorm_wordpool_576.txt	LTP236	ltpFR2	18	6	GRAPE	654	n/a	n/a	0	0	0
1235.172	n/a	WORD	617586	wordpools/wasnorm_wordpool_576.txt	LTP236	ltpFR2	18	6	SPARROW	1347	n/a	n/a	0	0	0
1237.814	n/a	WORD	618907	wordpools/wasnorm_wordpool_576.txt	LTP236	ltpFR2	18	6	PARENT	1013	n/a	n/a	0	0	0
1240.476	n/a	WORD	620238	wordpools/wasnorm_wordpool_576.txt	LTP236	ltpFR2	18	6	COUSIN	392	n/a	n/a	0	0	0
1242.944	n/a	WORD	621472	wordpools/wasnorm_wordpool_576.txt	LTP236	ltpFR2	18	6	GREASE	660	n/a	n/a	0	0	0
1245.396	n/a	WORD	622698	wordpools/wasnorm_wordpool_576.txt	LTP236	ltpFR2	18	6	ISLAND	745	n/a	n/a	0	0	0
1247.948	n/a	WORD	623974	wordpools/wasnorm_wordpool_576.txt	LTP236	ltpFR2	18	6	CANDY	230	n/a	n/a	0	0	0
1250.702	n/a	WORD	625351	wordpools/wasnorm_wordpool_576.txt	LTP236	ltpFR2	18	6	SCARF	1246	n/a	n/a	0	0	0
1253.404	n/a	WORD	626702	wordpools/wasnorm_wordpool_576.txt	LTP236	ltpFR2	18	6	CABIN	211	n/a	n/a	0	0	0
1255.872	n/a	WORD	627936	wordpools/wasnorm_wordpool_576.txt	LTP236	ltpFR2	18	6	BUNNY	198	n/a	n/a	0	0	0
1258.54	n/a	WORD	629270	wordpools/wasnorm_wordpool_576.txt	LTP236	ltpFR2	18	6	DAUGHTER	442	n/a	n/a	0	0	0
1261.166	n/a	WORD	630583	wordpools/wasnorm_wordpool_576.txt	LTP236	ltpFR2	18	6	LASER	801	n/a	n/a	0	0	0
1263.886	n/a	WORD	631943	wordpools/wasnorm_wordpool_576.txt	LTP236	ltpFR2	18	6	MATCH	878	n/a	n/a	0	0	0
1266.588	n/a	WORD	633294	wordpools/wasnorm_wordpool_576.txt	LTP236	ltpFR2	18	6	JUDGE	761	n/a	n/a	0	0	0
1269.064	n/a	WORD	634532	wordpools/wasnorm_wordpool_576.txt	LTP236	ltpFR2	18	6	GAVEL	627	n/a	n/a	0	0	0
1271.802	n/a	WORD	635901	wordpools/wasnorm_wordpool_576.txt	LTP236	ltpFR2	18	6	NEUTRON	947	n/a	n/a	0	0	0
1274.228	n/a	WORD	637114	wordpools/wasnorm_wordpool_576.txt	LTP236	ltpFR2	18	6	PADDLE	1000	n/a	n/a	0	0	0
1276.798	n/a	WORD	638399	wordpools/wasnorm_wordpool_576.txt	LTP236	ltpFR2	18	6	LAVA	804	n/a	n/a	0	0	0
1279.6	n/a	WORD	639800	wordpools/wasnorm_wordpool_576.txt	LTP236	ltpFR2	18	6	SLOPE	1328	n/a	n/a	0	0	0
1282.402	n/a	WORD	641201	wordpools/wasnorm_wordpool_576.txt	LTP236	ltpFR2	18	6	RAFT	1159	n/a	n/a	0	0	0
1285.104	n/a	WORD	642552	wordpools/wasnorm_wordpool_576.txt	LTP236	ltpFR2	18	6	MARKET	871	n/a	n/a	0	0	0
1287.622	n/a	WORD	643811	wordpools/wasnorm_wordpool_576.txt	LTP236	ltpFR2	18	6	BANKER	84	n/a	n/a	0	0	0
1289.232	n/a	START	644616	n/a	LTP236	ltpFR2	18	n/a	n/a	n/a	9	n/a	n/a	n/a	n/a
1290.068	n/a	DISTRACTOR	645034	n/a	LTP236	ltpFR2	18	6	n/a	n/a	n/a	n/a	0	0	0
1290.074	n/a	PROB	645037	n/a	LTP236	ltpFR2	18	n/a	n/a	n/a	9	15	4	2	9
1292.832	n/a	PROB	646416	n/a	LTP236	ltpFR2	18	n/a	n/a	n/a	9	19	3	8	8
1294.184	n/a	PROB	647092	n/a	LTP236	ltpFR2	18	n/a	n/a	n/a	9	14	4	7	3
1295.784	n/a	PROB	647892	n/a	LTP236	ltpFR2	18	n/a	n/a	n/a	9	13	7	4	2
1297.252	n/a	PROB	648626	n/a	LTP236	ltpFR2	18	n/a	n/a	n/a	9	16	7	1	8
1298.42	n/a	PROB	649210	n/a	LTP236	ltpFR2	18	n/a	n/a	n/a	9	14	1	5	8
1299.454	n/a	PROB	649727	n/a	LTP236	ltpFR2	18	n/a	n/a	n/a	9	5	1	3	1
1300.304	n/a	PROB	650152	n/a	LTP236	ltpFR2	18	n/a	n/a	n/a	9	16	2	5	9
1301.306	n/a	PROB	650653	n/a	LTP236	ltpFR2	18	n/a	n/a	n/a	9	13	1	4	8
1302.258	n/a	PROB	651129	n/a	LTP236	ltpFR2	18	n/a	n/a	n/a	9	10	1	8	1
1303.192	n/a	PROB	651596	n/a	LTP236	ltpFR2	18	n/a	n/a	n/a	9	20	8	6	6
1304.276	n/a	PROB	652138	n/a	LTP236	ltpFR2	18	n/a	n/a	n/a	9	20	9	9	2
1306.528	n/a	PROB	653264	n/a	LTP236	ltpFR2	18	n/a	n/a	n/a	9	11	6	3	2
1307.58	n/a	PROB	653790	n/a	LTP236	ltpFR2	18	n/a	n/a	n/a	9	14	4	4	6
1308.794	n/a	PROB	654397	n/a	LTP236	ltpFR2	18	n/a	n/a	n/a	9	19	2	8	9
1309.762	n/a	PROB	654881	n/a	LTP236	ltpFR2	18	n/a	n/a	n/a	9	18	4	9	5
1311.046	n/a	PROB	655523	n/a	LTP236	ltpFR2	18	n/a	n/a	n/a	9	17	7	9	1
1312.338	n/a	STOP	656169	n/a	LTP236	ltpFR2	18	n/a	n/a	n/a	9	n/a	n/a	n/a	n/a
1315.0	n/a	REC_START	657500	n/a	LTP236	ltpFR2	18	6	n/a	n/a	n/a	n/a	0	0	0
1316.356	n/a	REC_WORD	658178	wordpools/wasnorm_wordpool_576.txt	LTP236	ltpFR2	18	6	BANKER	84	n/a	n/a	0	0	0
1317.154	n/a	REC_WORD	658577	wordpools/wasnorm_wordpool_576.txt	LTP236	ltpFR2	18	6	JUDGE	761	n/a	n/a	0	0	0
1318.058	n/a	REC_WORD	659029	wordpools/wasnorm_wordpool_576.txt	LTP236	ltpFR2	18	6	MARKET	871	n/a	n/a	0	0	0
1318.928	n/a	REC_WORD	659464	wordpools/wasnorm_wordpool_576.txt	LTP236	ltpFR2	18	6	LOFT	840	n/a	n/a	0	0	0
1319.89	n/a	REC_WORD	659945	wordpools/wasnorm_wordpool_576.txt	LTP236	ltpFR2	18	6	PADDLE	1000	n/a	n/a	0	0	0
1322.436	n/a	REC_WORD	661218	wordpools/wasnorm_wordpool_576.txt	LTP236	ltpFR2	18	6	RAFT	1159	n/a	n/a	0	0	0
1325.114	n/a	REC_WORD	662557	wordpools/wasnorm_wordpool_576.txt	LTP236	ltpFR2	18	6	ISLAND	745	n/a	n/a	0	0	0
1325.938	n/a	REC_WORD	662969	wordpools/wasnorm_wordpool_576.txt	LTP236	ltpFR2	18	6	BUNNY	198	n/a	n/a	0	0	0
1326.874	n/a	REC_WORD	663437	wordpools/wasnorm_wordpool_576.txt	LTP236	ltpFR2	18	6	COUSIN	392	n/a	n/a	0	0	0
1327.84	n/a	REC_WORD	663920	wordpools/wasnorm_wordpool_576.txt	LTP236	ltpFR2	18	6	PARENT	1013	n/a	n/a	0	0	0
1328.978	n/a	REC_WORD	664489	wordpools/wasnorm_wordpool_576.txt	LTP236	ltpFR2	18	6	DAUGHTER	442	n/a	n/a	0	0	0
1330.848	n/a	REC_WORD	665424	wordpools/wasnorm_wordpool_576.txt	LTP236	ltpFR2	18	6	LAVA	804	n/a	n/a	0	0	0
1331.876	n/a	REC_WORD	665938	wordpools/wasnorm_wordpool_576.txt	LTP236	ltpFR2	18	6	GAVEL	627	n/a	n/a	0	0	0
1351.788	n/a	REC_WORD	675894	wordpools/wasnorm_wordpool_576.txt	LTP236	ltpFR2	18	6	SPARROW	1347	n/a	n/a	0	0	0
1353.044	n/a	REC_WORD	676522	wordpools/wasnorm_wordpool_576.txt	LTP236	ltpFR2	18	6	SEAFOOD	1260	n/a	n/a	0	0	0
1354.926	n/a	REC_WORD	677463	wordpools/wasnorm_wordpool_576.txt	LTP236	ltpFR2	18	6	GREASE	660	n/a	n/a	0	0	0
1355.684	n/a	REC_WORD	677842	wordpools/wasnorm_wordpool_576.txt	LTP236	ltpFR2	18	6	CANDY	230	n/a	n/a	0	0	0
1361.826	n/a	REC_WORD	680913	wordpools/wasnorm_wordpool_576.txt	LTP236	ltpFR2	18	6	GRAPE	654	n/a	n/a	0	0	0
1363.456	n/a	REC_WORD	681728	wordpools/wasnorm_wordpool_576.txt	LTP236	ltpFR2	18	6	GALLON	618	n/a	n/a	0	0	0
1405.456	n/a	DISTRACTOR	702728	n/a	LTP236	ltpFR2	18	7	n/a	n/a	n/a	n/a	0	0	0
1405.456	n/a	START	702728	n/a	LTP236	ltpFR2	18	n/a	n/a	n/a	10	n/a	n/a	n/a	n/a
1405.47	n/a	PROB	702735	n/a	LTP236	ltpFR2	18	n/a	n/a	n/a	10	12	1	4	7
1407.472	n/a	PROB	703736	n/a	LTP236	ltpFR2	18	n/a	n/a	n/a	10	13	5	7	1
1408.44	n/a	PROB	704220	n/a	LTP236	ltpFR2	18	n/a	n/a	n/a	10	16	6	1	9
1409.542	n/a	PROB	704771	n/a	LTP236	ltpFR2	18	n/a	n/a	n/a	10	20	7	5	8
1410.676	n/a	PROB	705338	n/a	LTP236	ltpFR2	18	n/a	n/a	n/a	10	14	1	7	6
1412.594	n/a	PROB	706297	n/a	LTP236	ltpFR2	18	n/a	n/a	n/a	10	21	9	4	8
1413.812	n/a	PROB	706906	n/a	LTP236	ltpFR2	18	n/a	n/a	n/a	10	16	8	5	3
1414.862	n/a	PROB	707431	n/a	LTP236	ltpFR2	18	n/a	n/a	n/a	10	12	4	7	1
1416.462	n/a	PROB	708231	n/a	LTP236	ltpFR2	18	n/a	n/a	n/a	10	12	4	6	2
1417.53	n/a	PROB	708765	n/a	LTP236	ltpFR2	18	n/a	n/a	n/a	10	12	5	3	4
1418.55	n/a	PROB	709275	n/a	LTP236	ltpFR2	18	n/a	n/a	n/a	10	12	4	3	5
1419.634	n/a	PROB	709817	n/a	LTP236	ltpFR2	18	n/a	n/a	n/a	10	23	8	9	6
1421.584	n/a	PROB	710792	n/a	LTP236	ltpFR2	18	n/a	n/a	n/a	10	12	4	5	3
1422.568	n/a	PROB	711284	n/a	LTP236	ltpFR2	18	n/a	n/a	n/a	10	15	6	4	5
1423.618	n/a	PROB	711809	n/a	LTP236	ltpFR2	18	n/a	n/a	n/a	10	10	2	5	3
1425.236	n/a	PROB	712618	n/a	LTP236	ltpFR2	18	n/a	n/a	n/a	10	14	5	7	2
1426.322	n/a	PROB	713161	n/a	LTP236	ltpFR2	18	n/a	n/a	n/a	10	16	5	4	7
1427.456	n/a	PROB	713728	n/a	LTP236	ltpFR2	18	n/a	n/a	n/a	10	16	4	8	4
1428.412	n/a	STOP	714206	n/a	LTP236	ltpFR2	18	n/a	n/a	n/a	10	n/a	n/a	n/a	n/a
1430.474	n/a	WORD	715237	wordpools/wasnorm_wordpool_576.txt	LTP236	ltpFR2	18	7	CATTLE	261	n/a	n/a	0	0	0
1433.178	n/a	WORD	716589	wordpools/wasnorm_wordpool_576.txt	LTP236	ltpFR2	18	7	LOFT	840	n/a	n/a	0	0	0
1435.946	n/a	WORD	717973	wordpools/wasnorm_wordpool_576.txt	LTP236	ltpFR2	18	7	BINDER	127	n/a	n/a	0	0	0
1438.464	n/a	WORD	719232	wordpools/wasnorm_wordpool_576.txt	LTP236	ltpFR2	18	7	JURY	766	n/a	n/a	0	0	0
1441.282	n/a	WORD	720641	wordpools/wasnorm_wordpool_576.txt	LTP236	ltpFR2	18	7	SUPPER	1411	n/a	n/a	0	0	0
1443.836	n/a	WORD	721918	wordpools/wasnorm_wordpool_576.txt	LTP236	ltpFR2	18	7	CELLAR	267	n/a	n/a	0	0	0
1446.42	n/a	WORD	723210	wordpools/wasnorm_wordpool_576.txt	LTP236	ltpFR2	18	7	SILK	1307	n/a	n/a	0	0	0
1449.124	n/a	WORD	724562	wordpools/wasnorm_wordpool_576.txt	LTP236	ltpFR2	18	7	CROWN	415	n/a	n/a	0	0	0
1451.708	n/a	WORD	725854	wordpools/wasnorm_wordpool_576.txt	LTP236	ltpFR2	18	7	EUROPE	541	n/a	n/a	0	0	0
1454.316	n/a	WORD	727158	wordpools/wasnorm_wordpool_576.txt	LTP236	ltpFR2	18	7	CREVICE	405	n/a	n/a	0	0	0
1456.88	n/a	WORD	728440	wordpools/wasnorm_wordpool_576.txt	LTP236	ltpFR2	18	7	WRIST	1626	n/a	n/a	0	0	0
1459.37	n/a	WORD	729685	wordpools/wasnorm_wordpool_576.txt	LTP236	ltpFR2	18	7	GLOVE	642	n/a	n/a	0	0	0
1461.866	n/a	WORD	730933	wordpools/wasnorm_wordpool_576.txt	LTP236	ltpFR2	18	7	DONOR	485	n/a	n/a	0	0	0
1464.49	n/a	WORD	732245	wordpools/wasnorm_wordpool_576.txt	LTP236	ltpFR2	18	7	QUEEN	1149	n/a	n/a	0	0	0
1467.242	n/a	WORD	733621	wordpools/wasnorm_wordpool_576.txt	LTP236	ltpFR2	18	7	POSSUM	1112	n/a	n/a	0	0	0
1469.856	n/a	WORD	734928	wordpools/wasnorm_wordpool_576.txt	LTP236	ltpFR2	18	7	SEAGULL	1261	n/a	n/a	0	0	0
1472.414	n/a	WORD	736207	wordpools/wasnorm_wordpool_576.txt	LTP236	ltpFR2	18	7	GUITAR	670	n/a	n/a	0	0	0
1474.91	n/a	WORD	737455	wordpools/wasnorm_wordpool_576.txt	LTP236	ltpFR2	18	7	WAITER	1580	n/a	n/a	0	0	0
1477.48	n/a	WORD	738740	wordpools/wasnorm_wordpool_576.txt	LTP236	ltpFR2	18	7	HUMAN	726	n/a	n/a	0	0	0
1479.904	n/a	WORD	739952	wordpools/wasnorm_wordpool_576.txt	LTP236	ltpFR2	18	7	JUNGLE	764	n/a	n/a	0	0	0
1482.704	n/a	WORD	741352	wordpools/wasnorm_wordpool_576.txt	LTP236	ltpFR2	18	7	SLUG	1329	n/a	n/a	0	0	0
1485.34	n/a	WORD	742670	wordpools/wasnorm_wordpool_576.txt	LTP236	ltpFR2	18	7	SPIDER	1351	n/a	n/a	0	0	0
1487.82	n/a	WORD	743910	wordpools/wasnorm_wordpool_576.txt	LTP236	ltpFR2	18	7	TABLE	1426	n/a	n/a	0	0	0
1490.538	n/a	WORD	745269	wordpools/wasnorm_wordpool_576.txt	LTP236	ltpFR2	18	7	COUCH	386	n/a	n/a	0	0	0
1492.146	n/a	START	746073	n/a	LTP236	ltpFR2	18	n/a	n/a	n/a	11	n/a	n/a	n/a	n/a
1493.344	n/a	DISTRACTOR	746672	n/a	LTP236	ltpFR2	18	7	n/a	n/a	n/a	n/a	0	0	0
1493.356	n/a	PROB	746678	n/a	LTP236	ltpFR2	18	n/a	n/a	n/a	11	15	5	8	2
1495.608	n/a	PROB	747804	n/a	LTP236	ltpFR2	18	n/a	n/a	n/a	11	16	8	7	1
1496.926	n/a	PROB	748463	n/a	LTP236	ltpFR2	18	n/a	n/a	n/a	11	16	8	1	7
1498.094	n/a	PROB	749047	n/a	LTP236	ltpFR2	18	n/a	n/a	n/a	11	18	6	3	9
1499.178	n/a	PROB	749589	n/a	LTP236	ltpFR2	18	n/a	n/a	n/a	11	15	3	3	9
1500.362	n/a	PROB	750181	n/a	LTP236	ltpFR2	18	n/a	n/a	n/a	11	17	3	7	7
1501.428	n/a	PROB	750714	n/a	LTP236	ltpFR2	18	n/a	n/a	n/a	11	17	2	7	8
1502.682	n/a	PROB	751341	n/a	LTP236	ltpFR2	18	n/a	n/a	n/a	11	10	5	3	2
1505.734	n/a	PROB	752867	n/a	LTP236	ltpFR2	18	n/a	n/a	n/a	11	19	4	6	9
1506.718	n/a	PROB	753359	n/a	LTP236	ltpFR2	18	n/a	n/a	n/a	11	11	5	5	1
1507.634	n/a	PROB	753817	n/a	LTP236	ltpFR2	18	n/a	n/a	n/a	11	12	4	6	2
1508.686	n/a	PROB	754343	n/a	LTP236	ltpFR2	18	n/a	n/a	n/a	11	20	5	6	9
1510.336	n/a	PROB	755168	n/a	LTP236	ltpFR2	18	n/a	n/a	n/a	11	12	3	5	4
1511.57	n/a	PROB	755785	n/a	LTP236	ltpFR2	18	n/a	n/a	n/a	11	11	2	5	4
1512.838	n/a	PROB	756419	n/a	LTP236	ltpFR2	18	n/a	n/a	n/a	11	18	5	5	8
1513.808	n/a	PROB	756904	n/a	LTP236	ltpFR2	18	n/a	n/a	n/a	11	1	2	3	8
1515.59	n/a	STOP	757795	n/a	LTP236	ltpFR2	18	n/a	n/a	n/a	11	n/a	n/a	n/a	n/a
1518.042	n/a	REC_START	759021	n/a	LTP236	ltpFR2	18	7	n/a	n/a	n/a	n/a	0	0	0
1518.652	n/a	REC_WORD	759326	wordpools/wasnorm_wordpool_576.txt	LTP236	ltpFR2	18	7	WAITER	1580	n/a	n/a	0	0	0
1519.386	n/a	REC_WORD	759693	wordpools/wasnorm_wordpool_576.txt	LTP236	ltpFR2	18	7	QUEEN	1149	n/a	n/a	0	0	0
1520.246	n/a	REC_WORD	760123	wordpools/wasnorm_wordpool_576.txt	LTP236	ltpFR2	18	7	TABLE	1426	n/a	n/a	0	0	0
1520.964	n/a	REC_WORD	760482	wordpools/wasnorm_wordpool_576.txt	LTP236	ltpFR2	18	7	SLUG	1329	n/a	n/a	0	0	0
1524.48	n/a	REC_WORD	762240	wordpools/wasnorm_wordpool_576.txt	LTP236	ltpFR2	18	7	JUNGLE	764	n/a	n/a	0	0	0
1527.112	n/a	REC_WORD	763556	wordpools/wasnorm_wordpool_576.txt	LTP236	ltpFR2	18	7	COUCH	386	n/a	n/a	0	0	0
1528.882	n/a	REC_WORD	764441	wordpools/wasnorm_wordpool_576.txt	LTP236	ltpFR2	18	7	HUMAN	726	n/a	n/a	0	0	0
1530.284	n/a	REC_WORD	765142	wordpools/wasnorm_wordpool_576.txt	LTP236	ltpFR2	18	7	CREVICE	405	n/a	n/a	0	0	0
1608.496	n/a	WORD	804248	wordpools/wasnorm_wordpool_576.txt	LTP236	ltpFR2	18	8	PENGUIN	1044	n/a	n/a	0	0	0
1611.266	n/a	WORD	805633	wordpools/wasnorm_wordpool_576.txt	LTP236	ltpFR2	18	8	CANYON	235	n/a	n/a	0	0	0
1614.084	n/a	WORD	807042	wordpools/wasnorm_wordpool_576.txt	LTP236	ltpFR2	18	8	CLAM	315	n/a	n/a	0	0	0
1616.886	n/a	WORD	808443	wordpools/wasnorm_wordpool_576.txt	LTP236	ltpFR2	18	8	CRAB	397	n/a	n/a	0	0	0
1619.572	n/a	WORD	809786	wordpools/wasnorm_wordpool_576.txt	LTP236	ltpFR2	18	8	QUAIL	1147	n/a	n/a	0	0	0
1622.324	n/a	WORD	811162	wordpools/wasnorm_wordpool_576.txt	LTP236	ltpFR2	18	8	CATCHER	258	n/a	n/a	0	0	0
1624.842	n/a	WORD	812421	wordpools/wasnorm_wordpool_576.txt	LTP236	ltpFR2	18	8	TREAT	1501	n/a	n/a	0	0	0
1627.344	n/a	WORD	813672	wordpools/wasnorm_wordpool_576.txt	LTP236	ltpFR2	18	8	FRANCE	601	n/a	n/a	0	0	0
1629.896	n/a	WORD	814948	wordpools/wasnorm_wordpool_576.txt	LTP236	ltpFR2	18	8	DONKEY	484	n/a	n/a	0	0	0
1632.466	n/a	WORD	816233	wordpools/wasnorm_wordpool_576.txt	LTP236	ltpFR2	18	8	BABY	64	n/a	n/a	0	0	0
1635.018	n/a	WORD	817509	wordpools/wasnorm_wordpool_576.txt	LTP236	ltpFR2	18	8	TROMBONE	1508	n/a	n/a	0	0	0
1637.586	n/a	WORD	818793	wordpools/wasnorm_wordpool_576.txt	LTP236	ltpFR2	18	8	MACHINE	852	n/a	n/a	0	0	0
1640.406	n/a	WORD	820203	wordpools/wasnorm_wordpool_576.txt	LTP236	ltpFR2	18	8	ROBOT	1200	n/a	n/a	0	0	0
1642.924	n/a	WORD	821462	wordpools/wasnorm_wordpool_576.txt	LTP236	ltpFR2	18	8	PUDDING	1139	n/a	n/a	0	0	0
1645.41	n/a	WORD	822705	wordpools/wasnorm_wordpool_576.txt	LTP236	ltpFR2	18	8	INFANT	737	n/a	n/a	0	0	0
1647.944	n/a	WORD	823972	wordpools/wasnorm_wordpool_576.txt	LTP236	ltpFR2	18	8	SUMMIT	1405	n/a	n/a	0	0	0
1650.698	n/a	WORD	825349	wordpools/wasnorm_wordpool_576.txt	LTP236	ltpFR2	18	8	TYPIST	1532	n/a	n/a	0	0	0
1653.132	n/a	WORD	826566	wordpools/wasnorm_wordpool_576.txt	LTP236	ltpFR2	18	8	BEEF	113	n/a	n/a	0	0	0
1655.684	n/a	WORD	827842	wordpools/wasnorm_wordpool_576.txt	LTP236	ltpFR2	18	8	COIN	343	n/a	n/a	0	0	0
1658.304	n/a	WORD	829152	wordpools/wasnorm_wordpool_576.txt	LTP236	ltpFR2	18	8	DRILL	497	n/a	n/a	0	0	0
1661.004	n/a	WORD	830502	wordpools/wasnorm_wordpool_576.txt	LTP236	ltpFR2	18	8	TURKEY	1520	n/a	n/a	0	0	0
1663.808	n/a	WORD	831904	wordpools/wasnorm_wordpool_576.txt	LTP236	ltpFR2	18	8	LION	827	n/a	n/a	0	0	0
1666.56	n/a	WORD	833280	wordpools/wasnorm_wordpool_576.txt	LTP236	ltpFR2	18	8	BOX	159	n/a	n/a	0	0	0
1669.312	n/a	WORD	834656	wordpools/wasnorm_wordpool_576.txt	LTP236	ltpFR2	18	8	MAILBOX	857	n/a	n/a	0	0	0
1670.918	n/a	START	835459	n/a	LTP236	ltpFR2	18	n/a	n/a	n/a	12	n/a	n/a	n/a	n/a
1671.824	n/a	DISTRACTOR	835912	n/a	LTP236	ltpFR2	18	8	n/a	n/a	n/a	n/a	0	0	0
1671.83	n/a	PROB	835915	n/a	LTP236	ltpFR2	18	n/a	n/a	n/a	12	13	6	4	3
1673.614	n/a	PROB	836807	n/a	LTP236	ltpFR2	18	n/a	n/a	n/a	12	7	5	1	1
1674.614	n/a	PROB	837307	n/a	LTP236	ltpFR2	18	n/a	n/a	n/a	12	12	4	2	6
1675.698	n/a	PROB	837849	n/a	LTP236	ltpFR2	18	n/a	n/a	n/a	12	7	4	2	2
1676.964	n/a	PROB	838482	n/a	LTP236	ltpFR2	18	n/a	n/a	n/a	12	17	6	9	2
1678.9	n/a	PROB	839450	n/a	LTP236	ltpFR2	18	n/a	n/a	n/a	12	10	6	2	2
1680.068	n/a	PROB	840034	n/a	LTP236	ltpFR2	18	n/a	n/a	n/a	12	12	3	4	5
1680.952	n/a	PROB	840476	n/a	LTP236	ltpFR2	18	n/a	n/a	n/a	12	16	7	6	3
1682.086	n/a	PROB	841043	n/a	LTP236	ltpFR2	18	n/a	n/a	n/a	12	10	2	5	3
1683.406	n/a	PROB	841703	n/a	LTP236	ltpFR2	18	n/a	n/a	n/a	12	11	1	4	6
1684.422	n/a	PROB	842211	n/a	LTP236	ltpFR2	18	n/a	n/a	n/a	12	24	9	8	7
1685.69	n/a	PROB	842845	n/a	LTP236	ltpFR2	18	n/a	n/a	n/a	12	14	2	8	4
1686.692	n/a	PROB	843346	n/a	LTP236	ltpFR2	18	n/a	n/a	n/a	12	17	3	6	8
1687.758	n/a	PROB	843879	n/a	LTP236	ltpFR2	18	n/a	n/a	n/a	12	11	3	2	6
1689.642	n/a	PROB	844821	n/a	LTP236	ltpFR2	18	n/a	n/a	n/a	12	15	3	5	7
1691.178	n/a	PROB	845589	n/a	LTP236	ltpFR2	18	n/a	n/a	n/a	12	18	6	6	6
1693.41	n/a	STOP	846705	n/a	LTP236	ltpFR2	18	n/a	n/a	n/a	12	n/a	n/a	n/a	n/a
1696.848	n/a	REC_START	848424	n/a	LTP236	ltpFR2	18	8	n/a	n/a	n/a	n/a	0	0	0
1697.454	n/a	REC_WORD	848727	wordpools/wasnorm_wordpool_576.txt	LTP236	ltpFR2	18	8	LION	827	n/a	n/a	0	0	0
1698.45	n/a	REC_WORD	849225	wordpools/wasnorm_wordpool_576.txt	LTP236	ltpFR2	18	8	BOX	159	n/a	n/a	0	0	0
1699.458	n/a	REC_WORD	849729	wordpools/wasnorm_wordpool_576.txt	LTP236	ltpFR2	18	8	MAILBOX	857	n/a	n/a	0	0	0
1700.62	n/a	REC_WORD	850310	wordpools/wasnorm_wordpool_576.txt	LTP236	ltpFR2	18	8	TROMBONE	1508	n/a	n/a	0	0	0
1705.24	n/a	REC_WORD	852620	wordpools/wasnorm_wordpool_576.txt	LTP236	ltpFR2	18	8	BABY	64	n/a	n/a	0	0	0
1706.05	n/a	REC_WORD	853025	wordpools/wasnorm_wordpool_576.txt	LTP236	ltpFR2	18	8	INFANT	737	n/a	n/a	0	0	0
1706.792	n/a	REC_WORD	853396	wordpools/wasnorm_wordpool_576.txt	LTP236	ltpFR2	18	8	FRANCE	601	n/a	n/a	0	0	0
1715.184	n/a	REC_WORD	857592	wordpools/wasnorm_wordpool_576.txt	LTP236	ltpFR2	18	8	TURKEY	1520	n/a	n/a	0	0	0
1716.276	n/a	REC_WORD	858138	wordpools/wasnorm_wordpool_576.txt	LTP236	ltpFR2	18	8	BEEF	113	n/a	n/a	0	0	0
1717.18	n/a	REC_WORD	858590	wordpools/wasnorm_wordpool_576.txt	LTP236	ltpFR2	18	8	PUDDING	1139	n/a	n/a	0	0	0
1767.108	n/a	REC_WORD	883554	wordpools/wasnorm_wordpool_576.txt	LTP236	ltpFR2	18	8	PENGUIN	1044	n/a	n/a	0	0	0
1773.386	n/a	REST_REWET	886693	n/a	LTP236	ltpFR2	18	8	n/a	n/a	n/a	n/a	0	0	0
2068.74	n/a	DISTRACTOR	1034370	n/a	LTP236	ltpFR2	18	9	n/a	n/a	n/a	n/a	0	0	0
2068.74	n/a	START	1034370	n/a	LTP236	ltpFR2	18	n/a	n/a	n/a	13	n/a	n/a	n/a	n/a
2068.756	n/a	PROB	1034378	n/a	LTP236	ltpFR2	18	n/a	n/a	n/a	13	15	7	7	1
2070.154	n/a	PROB	1035077	n/a	LTP236	ltpFR2	18	n/a	n/a	n/a	13	13	5	6	2
2071.208	n/a	PROB	1035604	n/a	LTP236	ltpFR2	18	n/a	n/a	n/a	13	6	1	3	2
2072.406	n/a	PROB	1036203	n/a	LTP236	ltpFR2	18	n/a	n/a	n/a	13	11	6	2	3
2073.356	n/a	PROB	1036678	n/a	LTP236	ltpFR2	18	n/a	n/a	n/a	13	15	8	1	6
2074.524	n/a	PROB	1037262	n/a	LTP236	ltpFR2	18	n/a	n/a	n/a	13	13	3	6	4
2075.674	n/a	PROB	1037837	n/a	LTP236	ltpFR2	18	n/a	n/a	n/a	13	17	7	9	1
2077.33	n/a	PROB	1038665	n/a	LTP236	ltpFR2	18	n/a	n/a	n/a	13	20	9	9	2
2078.46	n/a	PROB	1039230	n/a	LTP236	ltpFR2	18	n/a	n/a	n/a	13	21	9	7	5
2079.544	n/a	PROB	1039772	n/a	LTP236	ltpFR2	18	n/a	n/a	n/a	13	18	9	2	7
2080.978	n/a	PROB	1040489	n/a	LTP236	ltpFR2	18	n/a	n/a	n/a	13	19	7	6	6
2082.096	n/a	PROB	1041048	n/a	LTP236	ltpFR2	18	n/a	n/a	n/a	13	17	9	6	2
2083.216	n/a	PROB	1041608	n/a	LTP236	ltpFR2	18	n/a	n/a	n/a	13	20	8	7	5
2084.298	n/a	PROB	1042149	n/a	LTP236	ltpFR2	18	n/a	n/a	n/a	13	19	8	8	3
2085.304	n/a	PROB	1042652	n/a	LTP236	ltpFR2	18	n/a	n/a	n/a	13	18	8	1	9
2086.4	n/a	PROB	1043200	n/a	LTP236	ltpFR2	18	n/a	n/a	n/a	13	14	3	8	3
2087.372	n/a	PROB	1043686	n/a	LTP236	ltpFR2	18	n/a	n/a	n/a	13	23	7	8	8
2088.57	n/a	PROB	1044285	n/a	LTP236	ltpFR2	18	n/a	n/a	n/a	13	19	9	2	8
2089.536	n/a	PROB	1044768	n/a	LTP236	ltpFR2	18	n/a	n/a	n/a	13	21	8	9	4
2091.664	n/a	STOP	1045832	n/a	LTP236	ltpFR2	18	n/a	n/a	n/a	13	n/a	n/a	n/a	n/a
2093.826	n/a	WORD	1046913	wordpools/wasnorm_wordpool_576.txt	LTP236	ltpFR2	18	9	COOK	372	n/a	n/a	0	0	0
2096.278	n/a	WORD	1048139	wordpools/wasnorm_wordpool_576.txt	LTP236	ltpFR2	18	9	CAFE	216	n/a	n/a	0	0	0
2098.712	n/a	WORD	1049356	wordpools/wasnorm_wordpool_576.txt	LTP236	ltpFR2	18	9	BEAKER	104	n/a	n/a	0	0	0
2101.314	n/a	WORD	1050657	wordpools/wasnorm_wordpool_576.txt	LTP236	ltpFR2	18	9	POPCORN	1104	n/a	n/a	0	0	0
2103.932	n/a	WORD	1051966	wordpools/wasnorm_wordpool_576.txt	LTP236	ltpFR2	18	9	BUGGY	188	n/a	n/a	0	0	0
2106.552	n/a	WORD	1053276	wordpools/wasnorm_wordpool_576.txt	LTP236	ltpFR2	18	9	BARLEY	88	n/a	n/a	0	0	0
2109.204	n/a	WORD	1054602	wordpools/wasnorm_wordpool_576.txt	LTP236	ltpFR2	18	9	BREAST	171	n/a	n/a	0	0	0
2111.94	n/a	WORD	1055970	wordpools/wasnorm_wordpool_576.txt	LTP236	ltpFR2	18	9	ROOSTER	1209	n/a	n/a	0	0	0
2114.376	n/a	WORD	1057188	wordpools/wasnorm_wordpool_576.txt	LTP236	ltpFR2	18	9	DRAWING	494	n/a	n/a	0	0	0
2117.076	n/a	WORD	1058538	wordpools/wasnorm_wordpool_576.txt	LTP236	ltpFR2	18	9	RECORD	1176	n/a	n/a	0	0	0
2119.546	n/a	WORD	1059773	wordpools/wasnorm_wordpool_576.txt	LTP236	ltpFR2	18	9	GRILL	661	n/a	n/a	0	0	0
2122.248	n/a	WORD	1061124	wordpools/wasnorm_wordpool_576.txt	LTP236	ltpFR2	18	9	TWIG	1527	n/a	n/a	0	0	0
2124.966	n/a	WORD	1062483	wordpools/wasnorm_wordpool_576.txt	LTP236	ltpFR2	18	9	FRECKLE	602	n/a	n/a	0	0	0
2127.62	n/a	WORD	1063810	wordpools/wasnorm_wordpool_576.txt	LTP236	ltpFR2	18	9	FIREMAN	569	n/a	n/a	0	0	0
2130.422	n/a	WORD	1065211	wordpools/wasnorm_wordpool_576.txt	LTP236	ltpFR2	18	9	BANQUET	86	n/a	n/a	0	0	0
2133.24	n/a	WORD	1066620	wordpools/wasnorm_wordpool_576.txt	LTP236	ltpFR2	18	9	OZONE	996	n/a	n/a	0	0	0
2136.026	n/a	WORD	1068013	wordpools/wasnorm_wordpool_576.txt	LTP236	ltpFR2	18	9	MISTER	901	n/a	n/a	0	0	0
2138.828	n/a	WORD	1069414	wordpools/wasnorm_wordpool_576.txt	LTP236	ltpFR2	18	9	BACKBONE	66	n/a	n/a	0	0	0
2141.58	n/a	WORD	1070790	wordpools/wasnorm_wordpool_576.txt	LTP236	ltpFR2	18	9	FLEET	578	n/a	n/a	0	0	0
2144.35	n/a	WORD	1072175	wordpools/wasnorm_wordpool_576.txt	LTP236	ltpFR2	18	9	FIREPLACE	570	n/a	n/a	0	0	0
2146.918	n/a	WORD	1073459	wordpools/wasnorm_wordpool_576.txt	LTP236	ltpFR2	18	9	BOARD	143	n/a	n/a	0	0	0
2149.452	n/a	WORD	1074726	wordpools/wasnorm_wordpool_576.txt	LTP236	ltpFR2	18	9	FRAME	600	n/a	n/a	0	0	0
2152.138	n/a	WORD	1076069	wordpools/wasnorm_wordpool_576.txt	LTP236	ltpFR2	18	9	FLESH	579	n/a	n/a	0	0	0
2154.724	n/a	WORD	1077362	wordpools/wasnorm_wordpool_576.txt	LTP236	ltpFR2	18	9	BEAVER	109	n/a	n/a	0	0	0
2156.328	n/a	START	1078164	n/a	LTP236	ltpFR2	18	n/a	n/a	n/a	14	n/a	n/a	n/a	n/a
2157.514	n/a	DISTRACTOR	1078757	n/a	LTP236	ltpFR2	18	9	n/a	n/a	n/a	n/a	0	0	0
2157.526	n/a	PROB	1078763	n/a	LTP236	ltpFR2	18	n/a	n/a	n/a	14	14	8	3	3
2159.376	n/a	PROB	1079688	n/a	LTP236	ltpFR2	18	n/a	n/a	n/a	14	22	7	9	6
2161.428	n/a	PROB	1080714	n/a	LTP236	ltpFR2	18	n/a	n/a	n/a	14	14	5	3	6
2162.496	n/a	PROB	1081248	n/a	LTP236	ltpFR2	18	n/a	n/a	n/a	14	19	4	7	8
2163.564	n/a	PROB	1081782	n/a	LTP236	ltpFR2	18	n/a	n/a	n/a	14	11	7	3	1
2165.062	n/a	PROB	1082531	n/a	LTP236	ltpFR2	18	n/a	n/a	n/a	14	11	5	4	2
2166.932	n/a	PROB	1083466	n/a	LTP236	ltpFR2	18	n/a	n/a	n/a	14	13	9	2	2
2168.65	n/a	PROB	1084325	n/a	LTP236	ltpFR2	18	n/a	n/a	n/a	14	18	6	3	9
2169.834	n/a	PROB	1084917	n/a	LTP236	ltpFR2	18	n/a	n/a	n/a	14	11	2	5	4
2172.086	n/a	PROB	1086043	n/a	LTP236	ltpFR2	18	n/a	n/a	n/a	14	12	3	8	1
2173.722	n/a	PROB	1086861	n/a	LTP236	ltpFR2	18	n/a	n/a	n/a	14	9	3	1	5
2174.854	n/a	PROB	1087427	n/a	LTP236	ltpFR2	18	n/a	n/a	n/a	14	12	5	1	6
2176.274	n/a	PROB	1088137	n/a	LTP236	ltpFR2	18	n/a	n/a	n/a	14	12	2	7	3
2178.674	n/a	PROB	1089337	n/a	LTP236	ltpFR2	18	n/a	n/a	n/a	14	14	3	9	2
2179.738	n/a	STOP	1089869	n/a	LTP236	ltpFR2	18	n/a	n/a	n/a	14	n/a	n/a	n/a	n/a
2182.128	n/a	REC_START	1091064	n/a	LTP236	ltpFR2	18	9	n/a	n/a	n/a	n/a	0	0	0
2182.928	n/a	REC_WORD	1091464	wordpools/wasnorm_wordpool_576.txt	LTP236	ltpFR2	18	9	BOARD	143	n/a	n/a	0	0	0
2183.454	n/a	REC_WORD	1091727	wordpools/wasnorm_wordpool_576.txt	LTP236	ltpFR2	18	9	FRAME	600	n/a	n/a	0	0	0
2184.244	n/a	REC_WORD	1092122	wordpools/wasnorm_wordpool_576.txt	LTP236	ltpFR2	18	9	FLESH	579	n/a	n/a	0	0	0
2185.45	n/a	REC_WORD	1092725	wordpools/wasnorm_wordpool_576.txt	LTP236	ltpFR2	18	9	BEAVER	109	n/a	n/a	0	0	0
2186.506	n/a	REC_WORD	1093253	wordpools/wasnorm_wordpool_576.txt	LTP236	ltpFR2	18	9	BEAKER	104	n/a	n/a	0	0	0
2187.224	n/a	REC_WORD	1093612	wordpools/wasnorm_wordpool_576.txt	LTP236	ltpFR2	18	9	FIREMAN	569	n/a	n/a	0	0	0
2188.096	n/a	REC_WORD	1094048	wordpools/wasnorm_wordpool_576.txt	LTP236	ltpFR2	18	9	FIREPLACE	570	n/a	n/a	0	0	0
2190.682	n/a	REC_WORD	1095341	wordpools/wasnorm_wordpool_576.txt	LTP236	ltpFR2	18	9	BANQUET	86	n/a	n/a	0	0	0
2193.02	n/a	REC_WORD	1096510	wordpools/wasnorm_wordpool_576.txt	LTP236	ltpFR2	18	9	FLEET	578	n/a	n/a	0	0	0
2272.564	n/a	WORD	1136282	wordpools/wasnorm_wordpool_576.txt	LTP236	ltpFR2	18	10	GHETTO	633	n/a	n/a	0	0	0
2275.028	n/a	WORD	1137514	wordpools/wasnorm_wordpool_576.txt	LTP236	ltpFR2	18	10	CASHIER	254	n/a	n/a	0	0	0
2277.698	n/a	WORD	1138849	wordpools/wasnorm_wordpool_576.txt	LTP236	ltpFR2	18	10	BROOK	177	n/a	n/a	0	0	0
2280.3	n/a	WORD	1140150	wordpools/wasnorm_wordpool_576.txt	LTP236	ltpFR2	18	10	UMPIRE	1535	n/a	n/a	0	0	0
2282.94	n/a	WORD	1141470	wordpools/wasnorm_wordpool_576.txt	LTP236	ltpFR2	18	10	COLONEL	348	n/a	n/a	0	0	0
2285.372	n/a	WORD	1142686	wordpools/wasnorm_wordpool_576.txt	LTP236	ltpFR2	18	10	RIVER	1194	n/a	n/a	0	0	0
2287.992	n/a	WORD	1143996	wordpools/wasnorm_wordpool_576.txt	LTP236	ltpFR2	18	10	YACHT	1629	n/a	n/a	0	0	0
2290.78	n/a	WORD	1145390	wordpools/wasnorm_wordpool_576.txt	LTP236	ltpFR2	18	10	COCKTAIL	338	n/a	n/a	0	0	0
2293.578	n/a	WORD	1146789	wordpools/wasnorm_wordpool_576.txt	LTP236	ltpFR2	18	10	GROUND	666	n/a	n/a	0	0	0
2296.33	n/a	WORD	1148165	wordpools/wasnorm_wordpool_576.txt	LTP236	ltpFR2	18	10	WORKER	1621	n/a	n/a	0	0	0
2299.048	n/a	WORD	1149524	wordpools/wasnorm_wordpool_576.txt	LTP236	ltpFR2	18	10	SERVER	1272	n/a	n/a	0	0	0
2301.768	n/a	WORD	1150884	wordpools/wasnorm_wordpool_576.txt	LTP236	ltpFR2	18	10	HOSTESS	723	n/a	n/a	0	0	0
2304.404	n/a	WORD	1152202	wordpools/wasnorm_wordpool_576.txt	LTP236	ltpFR2	18	10	HAMPER	682	n/a	n/a	0	0	0
2307.022	n/a	WORD	1153511	wordpools/wasnorm_wordpool_576.txt	LTP236	ltpFR2	18	10	COSTUME	383	n/a	n/a	0	0	0
2309.774	n/a	WORD	1154887	wordpools/wasnorm_wordpool_576.txt	LTP236	ltpFR2	18	10	MATTRESS	879	n/a	n/a	0	0	0
2312.36	n/a	WORD	1156180	wordpools/wasnorm_wordpool_576.txt	LTP236	ltpFR2	18	10	JELLO	754	n/a	n/a	0	0	0
2314.978	n/a	WORD	1157489	wordpools/wasnorm_wordpool_576.txt	LTP236	ltpFR2	18	10	LIPSTICK	829	n/a	n/a	0	0	0
2317.532	n/a	WORD	1158766	wordpools/wasnorm_wordpool_576.txt	LTP236	ltpFR2	18	10	MAPLE	866	n/a	n/a	0	0	0
2320.184	n/a	WORD	1160092	wordpools/wasnorm_wordpool_576.txt	LTP236	ltpFR2	18	10	RACKET	1155	n/a	n/a	0	0	0
2322.968	n/a	WORD	1161484	wordpools/wasnorm_wordpool_576.txt	LTP236	ltpFR2	18	10	HOUND	724	n/a	n/a	0	0	0
2325.638	n/a	WORD	1162819	wordpools/wasnorm_wordpool_576.txt	LTP236	ltpFR2	18	10	MARINE	869	n/a	n/a	0	0	0
2328.292	n/a	WORD	1164146	wordpools/wasnorm_wordpool_576.txt	LTP236	ltpFR2	18	10	EXPERT	543	n/a	n/a	0	0	0
2330.926	n/a	WORD	1165463	wordpools/wasnorm_wordpool_576.txt	LTP236	ltpFR2	18	10	NURSE	963	n/a	n/a	0	0	0
2333.496	n/a	WORD	1166748	wordpools/wasnorm_wordpool_576.txt	LTP236	ltpFR2	18	10	PUPPY	1144	n/a	n/a	0	0	0
2335.112	n/a	START	1167556	n/a	LTP236	ltpFR2	18	n/a	n/a	n/a	15	n/a	n/a	n/a	n/a
2335.958	n/a	DISTRACTOR	1167979	n/a	LTP236	ltpFR2	18	10	n/a	n/a	n/a	n/a	0	0	0
2335.962	n/a	PROB	1167981	n/a	LTP236	ltpFR2	18	n/a	n/a	n/a	15	14	9	1	4
2337.632	n/a	PROB	1168816	n/a	LTP236	ltpFR2	18	n/a	n/a	n/a	15	17	8	8	1
2338.716	n/a	PROB	1169358	n/a	LTP236	ltpFR2	18	n/a	n/a	n/a	15	10	1	4	5
2339.682	n/a	PROB	1169841	n/a	LTP236	ltpFR2	18	n/a	n/a	n/a	15	17	8	8	1
2340.72	n/a	PROB	1170360	n/a	LTP236	ltpFR2	18	n/a	n/a	n/a	15	17	1	9	7
2342.07	n/a	PROB	1171035	n/a	LTP236	ltpFR2	18	n/a	n/a	n/a	15	18	9	4	5
2343.952	n/a	PROB	1171976	n/a	LTP236	ltpFR2	18	n/a	n/a	n/a	15	16	4	6	6
2345.188	n/a	PROB	1172594	n/a	LTP236	ltpFR2	18	n/a	n/a	n/a	15	24	8	7	9
2346.706	n/a	PROB	1173353	n/a	LTP236	ltpFR2	18	n/a	n/a	n/a	15	14	2	9	3
2347.742	n/a	PROB	1173871	n/a	LTP236	ltpFR2	18	n/a	n/a	n/a	15	16	7	4	5
2349.292	n/a	PROB	1174646	n/a	LTP236	ltpFR2	18	n/a	n/a	n/a	15	25	8	8	9
2351.328	n/a	PROB	1175664	n/a	LTP236	ltpFR2	18	n/a	n/a	n/a	15	18	8	2	8
2352.328	n/a	PROB	1176164	n/a	LTP236	ltpFR2	18	n/a	n/a	n/a	15	16	4	5	7
2353.748	n/a	PROB	1176874	n/a	LTP236	ltpFR2	18	n/a	n/a	n/a	15	12	4	7	1
2354.762	n/a	PROB	1177381	n/a	LTP236	ltpFR2	18	n/a	n/a	n/a	15	8	5	1	2
2355.782	n/a	PROB	1177891	n/a	LTP236	ltpFR2	18	n/a	n/a	n/a	15	14	2	7	5
2357.94	n/a	STOP	1178970	n/a	LTP236	ltpFR2	18	n/a	n/a	n/a	15	n/a	n/a	n/a	n/a
2360.92	n/a	REC_START	1180460	n/a	LTP236	ltpFR2	18	10	n/a	n/a	n/a	n/a	0	0	0
2361.678	n/a	REC_WORD	1180839	wordpools/wasnorm_wordpool_576.txt	LTP236	ltpFR2	18	10	HOUND	724	n/a	n/a	0	0	0
2362.478	n/a	REC_WORD	1181239	wordpools/wasnorm_wordpool_576.txt	LTP236	ltpFR2	18	10	GROUND	666	n/a	n/a	0	0	0
2363.18	n/a	REC_WORD	1181590	wordpools/wasnorm_wordpool_576.txt	LTP236	ltpFR2	18	10	PUPPY	1144	n/a	n/a	0	0	0
2364.008	n/a	REC_WORD	1182004	wordpools/wasnorm_wordpool_576.txt	LTP236	ltpFR2	18	10	EXPERT	543	n/a	n/a	0	0	0
2365.598	n/a	REC_WORD	1182799	wordpools/wasnorm_wordpool_576.txt	LTP236	ltpFR2	18	10	WORKER	1621	n/a	n/a	0	0	0
2367.006	n/a	REC_WORD	1183503	wordpools/wasnorm_wordpool_576.txt	LTP236	ltpFR2	18	10	NURSE	963	n/a	n/a	0	0	0
2367.886	n/a	REC_WORD	1183943	wordpools/wasnorm_wordpool_576.txt	LTP236	ltpFR2	18	10	CASHIER	254	n/a	n/a	0	0	0
2368.754	n/a	REC_WORD	1184377	wordpools/wasnorm_wordpool_576.txt	LTP236	ltpFR2	18	10	SERVER	1272	n/a	n/a	0	0	0
2369.608	n/a	REC_WORD	1184804	wordpools/wasnorm_wordpool_576.txt	LTP236	ltpFR2	18	10	HOSTESS	723	n/a	n/a	0	0	0
2370.51	n/a	REC_WORD	1185255	wordpools/wasnorm_wordpool_576.txt	LTP236	ltpFR2	18	10	COLONEL	348	n/a	n/a	0	0	0
2372.44	n/a	REC_WORD	1186220	wordpools/wasnorm_wordpool_576.txt	LTP236	ltpFR2	18	10	GHETTO	633	n/a	n/a	0	0	0
2376.068	n/a	REC_WORD	1188034	wordpools/wasnorm_wordpool_576.txt	LTP236	ltpFR2	18	10	RIVER	1194	n/a	n/a	0	0	0
2376.872	n/a	REC_WORD	1188436	wordpools/wasnorm_wordpool_576.txt	LTP236	ltpFR2	18	10	YACHT	1629	n/a	n/a	0	0	0
2379.804	n/a	REC_WORD	1189902	wordpools/wasnorm_wordpool_576.txt	LTP236	ltpFR2	18	10	LIPSTICK	829	n/a	n/a	0	0	0
2380.61	n/a	REC_WORD	1190305	wordpools/wasnorm_wordpool_576.txt	LTP236	ltpFR2	18	10	MATTRESS	879	n/a	n/a	0	0	0
2381.43	n/a	REC_WORD	1190715	wordpools/wasnorm_wordpool_576.txt	LTP236	ltpFR2	18	10	MAPLE	866	n/a	n/a	0	0	0
2390.024	n/a	REC_WORD	1195012	wordpools/wasnorm_wordpool_576.txt	LTP236	ltpFR2	18	10	UMPIRE	1535	n/a	n/a	0	0	0
2451.338	n/a	DISTRACTOR	1225669	n/a	LTP236	ltpFR2	18	11	n/a	n/a	n/a	n/a	0	0	0
2451.338	n/a	START	1225669	n/a	LTP236	ltpFR2	18	n/a	n/a	n/a	16	n/a	n/a	n/a	n/a
2451.354	n/a	PROB	1225677	n/a	LTP236	ltpFR2	18	n/a	n/a	n/a	16	10	3	2	5
2452.938	n/a	PROB	1226469	n/a	LTP236	ltpFR2	18	n/a	n/a	n/a	16	9	3	3	3
2453.972	n/a	PROB	1226986	n/a	LTP236	ltpFR2	18	n/a	n/a	n/a	16	11	6	1	4
2455.842	n/a	PROB	1227921	n/a	LTP236	ltpFR2	18	n/a	n/a	n/a	16	20	9	8	3
2457.91	n/a	PROB	1228955	n/a	LTP236	ltpFR2	18	n/a	n/a	n/a	16	16	7	2	7
2461.06	n/a	PROB	1230530	n/a	LTP236	ltpFR2	18	n/a	n/a	n/a	16	20	6	6	8
2463.63	n/a	PROB	1231815	n/a	LTP236	ltpFR2	18	n/a	n/a	n/a	16	19	4	7	8
2466.416	n/a	PROB	1233208	n/a	LTP236	ltpFR2	18	n/a	n/a	n/a	16	12	7	3	2
2467.55	n/a	PROB	1233775	n/a	LTP236	ltpFR2	18	n/a	n/a	n/a	16	18	3	8	7
2468.984	n/a	PROB	1234492	n/a	LTP236	ltpFR2	18	n/a	n/a	n/a	16	16	5	6	5
2470.086	n/a	PROB	1235043	n/a	LTP236	ltpFR2	18	n/a	n/a	n/a	16	19	8	2	9
2471.122	n/a	PROB	1235561	n/a	LTP236	ltpFR2	18	n/a	n/a	n/a	16	20	5	6	9
2472.254	n/a	PROB	1236127	n/a	LTP236	ltpFR2	18	n/a	n/a	n/a	16	10	2	2	6
2473.188	n/a	PROB	1236594	n/a	LTP236	ltpFR2	18	n/a	n/a	n/a	16	12	3	5	4
2474.28	n/a	STOP	1237140	n/a	LTP236	ltpFR2	18	n/a	n/a	n/a	16	n/a	n/a	n/a	n/a
2476.508	n/a	WORD	1238254	wordpools/wasnorm_wordpool_576.txt	LTP236	ltpFR2	18	11	CITRUS	313	n/a	n/a	0	0	0
2479.102	n/a	WORD	1239551	wordpools/wasnorm_wordpool_576.txt	LTP236	ltpFR2	18	11	DRINK	498	n/a	n/a	0	0	0
2481.67	n/a	WORD	1240835	wordpools/wasnorm_wordpool_576.txt	LTP236	ltpFR2	18	11	MILK	895	n/a	n/a	0	0	0
2484.282	n/a	WORD	1242141	wordpools/wasnorm_wordpool_576.txt	LTP236	ltpFR2	18	11	ATLAS	53	n/a	n/a	0	0	0
2487.032	n/a	WORD	1243516	wordpools/wasnorm_wordpool_576.txt	LTP236	ltpFR2	18	11	BARREL	91	n/a	n/a	0	0	0
2489.478	n/a	WORD	1244739	wordpools/wasnorm_wordpool_576.txt	LTP236	ltpFR2	18	11	JEANS	752	n/a	n/a	0	0	0
2492.136	n/a	WORD	1246068	wordpools/wasnorm_wordpool_576.txt	LTP236	ltpFR2	18	11	RIFLE	1192	n/a	n/a	0	0	0
2494.582	n/a	WORD	1247291	wordpools/wasnorm_wordpool_576.txt	LTP236	ltpFR2	18	11	RELISH	1183	n/a	n/a	0	0	0
2497.308	n/a	WORD	1248654	wordpools/wasnorm_wordpool_576.txt	LTP236	ltpFR2	18	11	LIZARD	834	n/a	n/a	0	0	0
2499.86	n/a	WORD	1249930	wordpools/wasnorm_wordpool_576.txt	LTP236	ltpFR2	18	11	CHAMPAGNE	278	n/a	n/a	0	0	0
2502.312	n/a	WORD	1251156	wordpools/wasnorm_wordpool_576.txt	LTP236	ltpFR2	18	11	SCOTCH	1251	n/a	n/a	0	0	0
2504.932	n/a	WORD	1252466	wordpools/wasnorm_wordpool_576.txt	LTP236	ltpFR2	18	11	HAWK	692	n/a	n/a	0	0	0
2507.484	n/a	WORD	1253742	wordpools/wasnorm_wordpool_576.txt	LTP236	ltpFR2	18	11	EYELASH	546	n/a	n/a	0	0	0
2510.244	n/a	WORD	1255122	wordpools/wasnorm_wordpool_576.txt	LTP236	ltpFR2	18	11	FLOWER	584	n/a	n/a	0	0	0
2512.682	n/a	WORD	1256341	wordpools/wasnorm_wordpool_576.txt	LTP236	ltpFR2	18	11	PLAYGROUND	1087	n/a	n/a	0	0	0
2515.25	n/a	WORD	1257625	wordpools/wasnorm_wordpool_576.txt	LTP236	ltpFR2	18	11	PADDING	999	n/a	n/a	0	0	0
2517.718	n/a	WORD	1258859	wordpools/wasnorm_wordpool_576.txt	LTP236	ltpFR2	18	11	STAR	1373	n/a	n/a	0	0	0
2520.47	n/a	WORD	1260235	wordpools/wasnorm_wordpool_576.txt	LTP236	ltpFR2	18	11	TABLET	1427	n/a	n/a	0	0	0
2522.896	n/a	WORD	1261448	wordpools/wasnorm_wordpool_576.txt	LTP236	ltpFR2	18	11	ROBIN	1199	n/a	n/a	0	0	0
2525.558	n/a	WORD	1262779	wordpools/wasnorm_wordpool_576.txt	LTP236	ltpFR2	18	11	SHORTS	1293	n/a	n/a	0	0	0
2527.998	n/a	WORD	1263999	wordpools/wasnorm_wordpool_576.txt	LTP236	ltpFR2	18	11	ORCHID	982	n/a	n/a	0	0	0
2530.812	n/a	WORD	1265406	wordpools/wasnorm_wordpool_576.txt	LTP236	ltpFR2	18	11	THIEF	1456	n/a	n/a	0	0	0
2533.352	n/a	WORD	1266676	wordpools/wasnorm_wordpool_576.txt	LTP236	ltpFR2	18	11	SUSPECT	1415	n/a	n/a	0	0	0
2535.966	n/a	WORD	1267983	wordpools/wasnorm_wordpool_576.txt	LTP236	ltpFR2	18	11	MOTEL	919	n/a	n/a	0	0	0
2537.572	n/a	START	1268786	n/a	LTP236	ltpFR2	18	n/a	n/a	n/a	17	n/a	n/a	n/a	n/a
2538.416	n/a	DISTRACTOR	1269208	n/a	LTP236	ltpFR2	18	11	n/a	n/a	n/a	n/a	0	0	0
2538.424	n/a	PROB	1269212	n/a	LTP236	ltpFR2	18	n/a	n/a	n/a	17	20	8	8	4
2540.642	n/a	PROB	1270321	n/a	LTP236	ltpFR2	18	n/a	n/a	n/a	17	13	1	9	3
2541.56	n/a	PROB	1270780	n/a	LTP236	ltpFR2	18	n/a	n/a	n/a	17	12	5	5	2
2542.576	n/a	PROB	1271288	n/a	LTP236	ltpFR2	18	n/a	n/a	n/a	17	16	7	3	6
2543.494	n/a	PROB	1271747	n/a	LTP236	ltpFR2	18	n/a	n/a	n/a	17	15	2	8	5
2544.428	n/a	PROB	1272214	n/a	LTP236	ltpFR2	18	n/a	n/a	n/a	17	10	1	4	5
2545.478	n/a	PROB	1272739	n/a	LTP236	ltpFR2	18	n/a	n/a	n/a	17	15	5	6	4
2546.598	n/a	PROB	1273299	n/a	LTP236	ltpFR2	18	n/a	n/a	n/a	17	16	3	8	5
2547.946	n/a	PROB	1273973	n/a	LTP236	ltpFR2	18	n/a	n/a	n/a	17	15	5	2	8
2549.548	n/a	PROB	1274774	n/a	LTP236	ltpFR2	18	n/a	n/a	n/a	17	13	8	3	2
2551.446	n/a	PROB	1275723	n/a	LTP236	ltpFR2	18	n/a	n/a	n/a	17	22	6	7	9
2552.548	n/a	PROB	1276274	n/a	LTP236	ltpFR2	18	n/a	n/a	n/a	17	6	1	4	1
2553.852	n/a	PROB	1276926	n/a	LTP236	ltpFR2	18	n/a	n/a	n/a	17	6	4	1	1
2554.748	n/a	PROB	1277374	n/a	LTP236	ltpFR2	18	n/a	n/a	n/a	17	18	3	8	7
2555.788	n/a	PROB	1277894	n/a	LTP236	ltpFR2	18	n/a	n/a	n/a	17	18	3	9	6
2557.334	n/a	PROB	1278667	n/a	LTP236	ltpFR2	18	n/a	n/a	n/a	17	9	1	7	1
2558.154	n/a	PROB	1279077	n/a	LTP236	ltpFR2	18	n/a	n/a	n/a	17	11	5	4	2
2559.068	n/a	PROB	1279534	n/a	LTP236	ltpFR2	18	n/a	n/a	n/a	17	10	2	1	7
2560.02	n/a	PROB	1280010	n/a	LTP236	ltpFR2	18	n/a	n/a	n/a	17	13	3	4	6
2560.968	n/a	STOP	1280484	n/a	LTP236	ltpFR2	18	n/a	n/a	n/a	17	n/a	n/a	n/a	n/a
2563.408	n/a	REC_START	1281704	n/a	LTP236	ltpFR2	18	11	n/a	n/a	n/a	n/a	0	0	0
2563.928	n/a	REC_WORD	1281964	wordpools/wasnorm_wordpool_576.txt	LTP236	ltpFR2	18	11	THIEF	1456	n/a	n/a	0	0	0
2564.656	n/a	REC_WORD	1282328	wordpools/wasnorm_wordpool_576.txt	LTP236	ltpFR2	18	11	SUSPECT	1415	n/a	n/a	0	0	0
2565.726	n/a	REC_WORD	1282863	wordpools/wasnorm_wordpool_576.txt	LTP236	ltpFR2	18	11	TABLET	1427	n/a	n/a	0	0	0
2566.424	n/a	REC_WORD	1283212	wordpools/wasnorm_wordpool_576.txt	LTP236	ltpFR2	18	11	MOTEL	919	n/a	n/a	0	0	0
2569.954	n/a	REC_WORD	1284977	wordpools/wasnorm_wordpool_576.txt	LTP236	ltpFR2	18	11	HAWK	692	n/a	n/a	0	0	0
2572.898	n/a	REC_WORD	1286449	wordpools/wasnorm_wordpool_576.txt	LTP236	ltpFR2	18	11	ROBIN	1199	n/a	n/a	0	0	0
2573.992	n/a	REC_WORD	1286996	wordpools/wasnorm_wordpool_576.txt	LTP236	ltpFR2	18	11	EYELASH	546	n/a	n/a	0	0	0
2594.104	n/a	REC_WORD	1297052	wordpools/wasnorm_wordpool_576.txt	LTP236	ltpFR2	18	11	ORCHID	982	n/a	n/a	0	0	0
2594.712	n/a	REC_WORD	1297356	wordpools/wasnorm_wordpool_576.txt	LTP236	ltpFR2	18	11	FLOWER	584	n/a	n/a	0	0	0
2604.374	n/a	REC_WORD	1302187	wordpools/wasnorm_wordpool_576.txt	LTP236	ltpFR2	18	11	JEANS	752	n/a	n/a	0	0	0
2605.422	n/a	REC_WORD	1302711	wordpools/wasnorm_wordpool_576.txt	LTP236	ltpFR2	18	11	SHORTS	1293	n/a	n/a	0	0	0
2653.846	n/a	WORD	1326923	wordpools/wasnorm_wordpool_576.txt	LTP236	ltpFR2	18	12	FLAG	573	n/a	n/a	0	0	0
2656.632	n/a	WORD	1328316	wordpools/wasnorm_wordpool_576.txt	LTP236	ltpFR2	18	12	CIGAR	308	n/a	n/a	0	0	0
2659.368	n/a	WORD	1329684	wordpools/wasnorm_wordpool_576.txt	LTP236	ltpFR2	18	12	LAPEL	800	n/a	n/a	0	0	0
2662.174	n/a	WORD	1331087	wordpools/wasnorm_wordpool_576.txt	LTP236	ltpFR2	18	12	NAPKIN	937	n/a	n/a	0	0	0
2664.606	n/a	WORD	1332303	wordpools/wasnorm_wordpool_576.txt	LTP236	ltpFR2	18	12	IDOL	733	n/a	n/a	0	0	0
2667.328	n/a	WORD	1333664	wordpools/wasnorm_wordpool_576.txt	LTP236	ltpFR2	18	12	SOFTBALL	1343	n/a	n/a	0	0	0
2670.08	n/a	WORD	1335040	wordpools/wasnorm_wordpool_576.txt	LTP236	ltpFR2	18	12	WOMAN	1620	n/a	n/a	0	0	0
2672.76	n/a	WORD	1336380	wordpools/wasnorm_wordpool_576.txt	LTP236	ltpFR2	18	12	LODGE	839	n/a	n/a	0	0	0
2675.464	n/a	WORD	1337732	wordpools/wasnorm_wordpool_576.txt	LTP236	ltpFR2	18	12	VIRUS	1572	n/a	n/a	0	0	0
2678.2	n/a	WORD	1339100	wordpools/wasnorm_wordpool_576.txt	LTP236	ltpFR2	18	12	ARMY	39	n/a	n/a	0	0	0
2680.884	n/a	WORD	1340442	wordpools/wasnorm_wordpool_576.txt	LTP236	ltpFR2	18	12	VENUS	1557	n/a	n/a	0	0	0
2683.542	n/a	WORD	1341771	wordpools/wasnorm_wordpool_576.txt	LTP236	ltpFR2	18	12	STAKE	1368	n/a	n/a	0	0	0
2686.078	n/a	WORD	1343039	wordpools/wasnorm_wordpool_576.txt	LTP236	ltpFR2	18	12	LUMBER	848	n/a	n/a	0	0	0
2688.656	n/a	WORD	1344328	wordpools/wasnorm_wordpool_576.txt	LTP236	ltpFR2	18	12	TUTU	1524	n/a	n/a	0	0	0
2691.092	n/a	WORD	1345546	wordpools/wasnorm_wordpool_576.txt	LTP236	ltpFR2	18	12	UNCLE	1536	n/a	n/a	0	0	0
2693.734	n/a	WORD	1346867	wordpools/wasnorm_wordpool_576.txt	LTP236	ltpFR2	18	12	COMET	353	n/a	n/a	0	0	0
2696.152	n/a	WORD	1348076	wordpools/wasnorm_wordpool_576.txt	LTP236	ltpFR2	18	12	TWISTER	1530	n/a	n/a	0	0	0
2698.79	n/a	WORD	1349395	wordpools/wasnorm_wordpool_576.txt	LTP236	ltpFR2	18	12	CAMEL	223	n/a	n/a	0	0	0
2701.25	n/a	WORD	1350625	wordpools/wasnorm_wordpool_576.txt	LTP236	ltpFR2	18	12	CONCERT	360	n/a	n/a	0	0	0
2703.936	n/a	WORD	1351968	wordpools/wasnorm_wordpool_576.txt	LTP236	ltpFR2	18	12	POET	1095	n/a	n/a	0	0	0
2706.73	n/a	WORD	1353365	wordpools/wasnorm_wordpool_576.txt	LTP236	ltpFR2	18	12	GIFT	635	n/a	n/a	0	0	0
2709.458	n/a	WORD	1354729	wordpools/wasnorm_wordpool_576.txt	LTP236	ltpFR2	18	12	PACKAGE	997	n/a	n/a	0	0	0
2712.184	n/a	WORD	1356092	wordpools/wasnorm_wordpool_576.txt	LTP236	ltpFR2	18	12	REBEL	1172	n/a	n/a	0	0	0
2714.728	n/a	WORD	1357364	wordpools/wasnorm_wordpool_576.txt	LTP236	ltpFR2	18	12	VALLEY	1545	n/a	n/a	0	0	0
2716.338	n/a	START	1358169	n/a	LTP236	ltpFR2	18	n/a	n/a	n/a	18	n/a	n/a	n/a	n/a
2717.29	n/a	DISTRACTOR	1358645	n/a	LTP236	ltpFR2	18	12	n/a	n/a	n/a	n/a	0	0	0
2717.296	n/a	PROB	1358648	n/a	LTP236	ltpFR2	18	n/a	n/a	n/a	18	14	6	2	6
2720.33	n/a	PROB	1360165	n/a	LTP236	ltpFR2	18	n/a	n/a	n/a	18	15	1	5	9
2721.834	n/a	PROB	1360917	n/a	LTP236	ltpFR2	18	n/a	n/a	n/a	18	10	2	4	4
2723.468	n/a	PROB	1361734	n/a	LTP236	ltpFR2	18	n/a	n/a	n/a	18	8	6	1	1
2724.368	n/a	PROB	1362184	n/a	LTP236	ltpFR2	18	n/a	n/a	n/a	18	15	8	3	4
2725.318	n/a	PROB	1362659	n/a	LTP236	ltpFR2	18	n/a	n/a	n/a	18	17	4	6	7
2726.67	n/a	PROB	1363335	n/a	LTP236	ltpFR2	18	n/a	n/a	n/a	18	20	8	3	9
2727.852	n/a	PROB	1363926	n/a	LTP236	ltpFR2	18	n/a	n/a	n/a	18	8	4	3	1
2728.888	n/a	PROB	1364444	n/a	LTP236	ltpFR2	18	n/a	n/a	n/a	18	11	1	3	7
2729.97	n/a	PROB	1364985	n/a	LTP236	ltpFR2	18	n/a	n/a	n/a	18	4	1	1	2
2730.888	n/a	PROB	1365444	n/a	LTP236	ltpFR2	18	n/a	n/a	n/a	18	12	7	4	1
2732.09	n/a	PROB	1366045	n/a	LTP236	ltpFR2	18	n/a	n/a	n/a	18	13	9	2	2
2733.324	n/a	PROB	1366662	n/a	LTP236	ltpFR2	18	n/a	n/a	n/a	18	11	1	4	6
2734.326	n/a	PROB	1367163	n/a	LTP236	ltpFR2	18	n/a	n/a	n/a	18	9	5	2	2
2735.226	n/a	PROB	1367613	n/a	LTP236	ltpFR2	18	n/a	n/a	n/a	18	6	2	2	2
2736.108	n/a	PROB	1368054	n/a	LTP236	ltpFR2	18	n/a	n/a	n/a	18	20	7	6	7
2737.244	n/a	PROB	1368622	n/a	LTP236	ltpFR2	18	n/a	n/a	n/a	18	16	7	4	2
2738.228	n/a	PROB	1369114	n/a	LTP236	ltpFR2	18	n/a	n/a	n/a	18	17	3	5	9
2739.644	n/a	STOP	1369822	n/a	LTP236	ltpFR2	18	n/a	n/a	n/a	18	n/a	n/a	n/a	n/a
2742.182	n/a	REC_START	1371091	n/a	LTP236	ltpFR2	18	12	n/a	n/a	n/a	n/a	0	0	0
2742.734	n/a	REC_WORD	1371367	wordpools/wasnorm_wordpool_576.txt	LTP236	ltpFR2	18	12	ARMY	39	n/a	n/a	0	0	0
2743.408	n/a	REC_WORD	1371704	wordpools/wasnorm_wordpool_576.txt	LTP236	ltpFR2	18	12	VALLEY	1545	n/a	n/a	0	0	0
2744.048	n/a	REC_WORD	1372024	wordpools/wasnorm_wordpool_576.txt	LTP236	ltpFR2	18	12	VIRUS	1572	n/a	n/a	0	0	0
2744.848	n/a	REC_WORD	1372424	wordpools/wasnorm_wordpool_576.txt	LTP236	ltpFR2	18	12	COMET	353	n/a	n/a	0	0	0
2745.552	n/a	REC_WORD	1372776	wordpools/wasnorm_wordpool_576.txt	LTP236	ltpFR2	18	12	VENUS	1557	n/a	n/a	0	0	0
2746.236	n/a	REC_WORD	1373118	wordpools/wasnorm_wordpool_576.txt	LTP236	ltpFR2	18	12	TWISTER	1530	n/a	n/a	0	0	0
2749.304	n/a	REC_WORD	1374652	wordpools/wasnorm_wordpool_576.txt	LTP236	ltpFR2	18	12	GIFT	635	n/a	n/a	0	0	0
2750.01	n/a	REC_WORD	1375005	wordpools/wasnorm_wordpool_576.txt	LTP236	ltpFR2	18	12	UNCLE	1536	n/a	n/a	0	0	0
2751.226	n/a	REC_WORD	1375613	wordpools/wasnorm_wordpool_576.txt	LTP236	ltpFR2	18	12	PACKAGE	997	n/a	n/a	0	0	0
2756.124	n/a	REC_WORD	1378062	wordpools/wasnorm_wordpool_576.txt	LTP236	ltpFR2	18	12	CONCERT	360	n/a	n/a	0	0	0
2757.078	n/a	REC_WORD	1378539	wordpools/wasnorm_wordpool_576.txt	LTP236	ltpFR2	18	12	IDOL	733	n/a	n/a	0	0	0
2757.806	n/a	REC_WORD	1378903	wordpools/wasnorm_wordpool_576.txt	LTP236	ltpFR2	18	12	TUTU	1524	n/a	n/a	0	0	0
2759.422	n/a	REC_WORD	1379711	wordpools/wasnorm_wordpool_576.txt	LTP236	ltpFR2	18	12	LODGE	839	n/a	n/a	0	0	0
2760.244	n/a	REC_WORD	1380122	wordpools/wasnorm_wordpool_576.txt	LTP236	ltpFR2	18	12	LUMBER	848	n/a	n/a	0	0	0
2761.052	n/a	REC_WORD	1380526	wordpools/wasnorm_wordpool_576.txt	LTP236	ltpFR2	18	12	FLAG	573	n/a	n/a	0	0	0
2762.566	n/a	REC_WORD	1381283	wordpools/wasnorm_wordpool_576.txt	LTP236	ltpFR2	18	12	SOFTBALL	1343	n/a	n/a	0	0	0
2763.814	n/a	REC_WORD	1381907	wordpools/wasnorm_wordpool_576.txt	LTP236	ltpFR2	18	12	CIGAR	308	n/a	n/a	0	0	0
2764.83	n/a	REC_WORD	1382415	wordpools/wasnorm_wordpool_576.txt	LTP236	ltpFR2	18	12	NAPKIN	937	n/a	n/a	0	0	0
2777.854	n/a	REC_WORD	1388927	wordpools/wasnorm_wordpool_576.txt	LTP236	ltpFR2	18	12	ARMY	39	n/a	n/a	0	0	0
2813.446	n/a	REC_WORD	1406723	wordpools/wasnorm_wordpool_576.txt	LTP236	ltpFR2	18	12	POET	1095	n/a	n/a	0	0	0
2832.636	n/a	DISTRACTOR	1416318	n/a	LTP236	ltpFR2	18	13	n/a	n/a	n/a	n/a	0	0	0
2832.638	n/a	START	1416319	n/a	LTP236	ltpFR2	18	n/a	n/a	n/a	19	n/a	n/a	n/a	n/a
2832.652	n/a	PROB	1416326	n/a	LTP236	ltpFR2	18	n/a	n/a	n/a	19	23	8	7	8
2835.922	n/a	PROB	1417961	n/a	LTP236	ltpFR2	18	n/a	n/a	n/a	19	16	4	9	3
2836.99	n/a	PROB	1418495	n/a	LTP236	ltpFR2	18	n/a	n/a	n/a	19	12	4	2	6
2838.056	n/a	PROB	1419028	n/a	LTP236	ltpFR2	18	n/a	n/a	n/a	19	12	2	4	6
2838.958	n/a	PROB	1419479	n/a	LTP236	ltpFR2	18	n/a	n/a	n/a	19	26	9	9	8
2840.358	n/a	PROB	1420179	n/a	LTP236	ltpFR2	18	n/a	n/a	n/a	19	15	3	3	9
2841.878	n/a	PROB	1420939	n/a	LTP236	ltpFR2	18	n/a	n/a	n/a	19	15	2	9	4
2843.594	n/a	PROB	1421797	n/a	LTP236	ltpFR2	18	n/a	n/a	n/a	19	20	2	9	9
2844.944	n/a	PROB	1422472	n/a	LTP236	ltpFR2	18	n/a	n/a	n/a	19	14	5	4	8
2845.978	n/a	PROB	1422989	n/a	LTP236	ltpFR2	18	n/a	n/a	n/a	19	10	3	3	4
2847.23	n/a	PROB	1423615	n/a	LTP236	ltpFR2	18	n/a	n/a	n/a	19	27	9	2	9
2848.798	n/a	PROB	1424399	n/a	LTP236	ltpFR2	18	n/a	n/a	n/a	19	19	2	9	8
2850.766	n/a	PROB	1425383	n/a	LTP236	ltpFR2	18	n/a	n/a	n/a	19	15	7	3	5
2851.918	n/a	PROB	1425959	n/a	LTP236	ltpFR2	18	n/a	n/a	n/a	19	18	8	9	1
2853.52	n/a	PROB	1426760	n/a	LTP236	ltpFR2	18	n/a	n/a	n/a	19	9	5	1	3
2854.986	n/a	PROB	1427493	n/a	LTP236	ltpFR2	18	n/a	n/a	n/a	19	14	7	6	1
2855.902	n/a	STOP	1427951	n/a	LTP236	ltpFR2	18	n/a	n/a	n/a	19	n/a	n/a	n/a	n/a
2857.488	n/a	WORD	1428744	wordpools/wasnorm_wordpool_576.txt	LTP236	ltpFR2	18	13	RATTLE	1170	n/a	n/a	0	0	0
2859.99	n/a	WORD	1429995	wordpools/wasnorm_wordpool_576.txt	LTP236	ltpFR2	18	13	CARRIAGE	248	n/a	n/a	0	0	0
2862.526	n/a	WORD	1431263	wordpools/wasnorm_wordpool_576.txt	LTP236	ltpFR2	18	13	BANJO	82	n/a	n/a	0	0	0
2865.262	n/a	WORD	1432631	wordpools/wasnorm_wordpool_576.txt	LTP236	ltpFR2	18	13	COCOON	339	n/a	n/a	0	0	0
2867.996	n/a	WORD	1433998	wordpools/wasnorm_wordpool_576.txt	LTP236	ltpFR2	18	13	SLIME	1327	n/a	n/a	0	0	0
2870.516	n/a	WORD	1435258	wordpools/wasnorm_wordpool_576.txt	LTP236	ltpFR2	18	13	SALT	1229	n/a	n/a	0	0	0
2873.168	n/a	WORD	1436584	wordpools/wasnorm_wordpool_576.txt	LTP236	ltpFR2	18	13	TURNIP	1521	n/a	n/a	0	0	0
2875.97	n/a	WORD	1437985	wordpools/wasnorm_wordpool_576.txt	LTP236	ltpFR2	18	13	LUNCH	849	n/a	n/a	0	0	0
2878.406	n/a	WORD	1439203	wordpools/wasnorm_wordpool_576.txt	LTP236	ltpFR2	18	13	PLATE	1086	n/a	n/a	0	0	0
2880.84	n/a	WORD	1440420	wordpools/wasnorm_wordpool_576.txt	LTP236	ltpFR2	18	13	PLIERS	1089	n/a	n/a	0	0	0
2883.46	n/a	WORD	1441730	wordpools/wasnorm_wordpool_576.txt	LTP236	ltpFR2	18	13	TROUT	1511	n/a	n/a	0	0	0
2885.916	n/a	WORD	1442958	wordpools/wasnorm_wordpool_576.txt	LTP236	ltpFR2	18	13	GLOBE	641	n/a	n/a	0	0	0
2888.518	n/a	WORD	1444259	wordpools/wasnorm_wordpool_576.txt	LTP236	ltpFR2	18	13	FARMER	553	n/a	n/a	0	0	0
2891.218	n/a	WORD	1445609	wordpools/wasnorm_wordpool_576.txt	LTP236	ltpFR2	18	13	PALACE	1006	n/a	n/a	0	0	0
2893.734	n/a	WORD	1446867	wordpools/wasnorm_wordpool_576.txt	LTP236	ltpFR2	18	13	THRONE	1461	n/a	n/a	0	0	0
2896.286	n/a	WORD	1448143	wordpools/wasnorm_wordpool_576.txt	LTP236	ltpFR2	18	13	WRENCH	1625	n/a	n/a	0	0	0
2899.072	n/a	WORD	1449536	wordpools/wasnorm_wordpool_576.txt	LTP236	ltpFR2	18	13	RADISH	1158	n/a	n/a	0	0	0
2901.542	n/a	WORD	1450771	wordpools/wasnorm_wordpool_576.txt	LTP236	ltpFR2	18	13	HEDGE	699	n/a	n/a	0	0	0
2904.314	n/a	WORD	1452157	wordpools/wasnorm_wordpool_576.txt	LTP236	ltpFR2	18	13	CARROT	249	n/a	n/a	0	0	0
2907.126	n/a	WORD	1453563	wordpools/wasnorm_wordpool_576.txt	LTP236	ltpFR2	18	13	FOREST	593	n/a	n/a	0	0	0
2909.78	n/a	WORD	1454890	wordpools/wasnorm_wordpool_576.txt	LTP236	ltpFR2	18	13	HIKER	708	n/a	n/a	0	0	0
2912.516	n/a	WORD	1456258	wordpools/wasnorm_wordpool_576.txt	LTP236	ltpFR2	18	13	COWBOY	395	n/a	n/a	0	0	0
2915.056	n/a	WORD	1457528	wordpools/wasnorm_wordpool_576.txt	LTP236	ltpFR2	18	13	PLUTO	1092	n/a	n/a	0	0	0
2917.776	n/a	WORD	1458888	wordpools/wasnorm_wordpool_576.txt	LTP236	ltpFR2	18	13	RECEIPT	1173	n/a	n/a	0	0	0
2919.388	n/a	START	1459694	n/a	LTP236	ltpFR2	18	n/a	n/a	n/a	20	n/a	n/a	n/a	n/a
2920.424	n/a	DISTRACTOR	1460212	n/a	LTP236	ltpFR2	18	13	n/a	n/a	n/a	n/a	0	0	0
2920.438	n/a	PROB	1460219	n/a	LTP236	ltpFR2	18	n/a	n/a	n/a	20	20	6	6	8
2923.406	n/a	PROB	1461703	n/a	LTP236	ltpFR2	18	n/a	n/a	n/a	20	13	1	9	2
2927.026	n/a	PROB	1463513	n/a	LTP236	ltpFR2	18	n/a	n/a	n/a	20	13	6	5	2
2928.21	n/a	PROB	1464105	n/a	LTP236	ltpFR2	18	n/a	n/a	n/a	20	21	7	5	9
2932.03	n/a	PROB	1466015	n/a	LTP236	ltpFR2	18	n/a	n/a	n/a	20	8	3	3	2
2934.082	n/a	PROB	1467041	n/a	LTP236	ltpFR2	18	n/a	n/a	n/a	20	26	8	9	9
2936.75	n/a	PROB	1468375	n/a	LTP236	ltpFR2	18	n/a	n/a	n/a	20	10	2	5	3
2939.92	n/a	PROB	1469960	n/a	LTP236	ltpFR2	18	n/a	n/a	n/a	20	15	4	6	5
2940.986	n/a	PROB	1470493	n/a	LTP236	ltpFR2	18	n/a	n/a	n/a	20	18	8	7	3
2942.248	n/a	STOP	1471124	n/a	LTP236	ltpFR2	18	n/a	n/a	n/a	20	n/a	n/a	n/a	n/a
2945.208	n/a	REC_START	1472604	n/a	LTP236	ltpFR2	18	13	n/a	n/a	n/a	n/a	0	0	0
2946.254	n/a	REC_WORD	1473127	wordpools/wasnorm_wordpool_576.txt	LTP236	ltpFR2	18	13	GLOBE	641	n/a	n/a	0	0	0
2947.094	n/a	REC_WORD	1473547	wordpools/wasnorm_wordpool_576.txt	LTP236	ltpFR2	18	13	PLUTO	1092	n/a	n/a	0	0	0
2947.9	n/a	REC_WORD	1473950	wordpools/wasnorm_wordpool_576.txt	LTP236	ltpFR2	18	13	FARMER	553	n/a	n/a	0	0	0
2948.952	n/a	REC_WORD	1474476	wordpools/wasnorm_wordpool_576.txt	LTP236	ltpFR2	18	13	COWBOY	395	n/a	n/a	0	0	0
2949.842	n/a	REC_WORD	1474921	wordpools/wasnorm_wordpool_576.txt	LTP236	ltpFR2	18	13	RECEIPT	1173	n/a	n/a	0	0	0
2951.2	n/a	REC_WORD	1475600	wordpools/wasnorm_wordpool_576.txt	LTP236	ltpFR2	18	13	PALACE	1006	n/a	n/a	0	0	0
2952.492	n/a	REC_WORD	1476246	wordpools/wasnorm_wordpool_576.txt	LTP236	ltpFR2	18	13	THRONE	1461	n/a	n/a	0	0	0
2954.016	n/a	REC_WORD	1477008	wordpools/wasnorm_wordpool_576.txt	LTP236	ltpFR2	18	13	RADISH	1158	n/a	n/a	0	0	0
2954.766	n/a	REC_WORD	1477383	wordpools/wasnorm_wordpool_576.txt	LTP236	ltpFR2	18	13	TURNIP	1521	n/a	n/a	0	0	0
2955.646	n/a	REC_WORD	1477823	wordpools/wasnorm_wordpool_576.txt	LTP236	ltpFR2	18	13	CARROT	249	n/a	n/a	0	0	0
2956.442	n/a	REC_WORD	1478221	wordpools/wasnorm_wordpool_576.txt	LTP236	ltpFR2	18	13	SLIME	1327	n/a	n/a	0	0	0
2957.536	n/a	REC_WORD	1478768	wordpools/wasnorm_wordpool_576.txt	LTP236	ltpFR2	18	13	PLATE	1086	n/a	n/a	0	0	0
2958.59	n/a	REC_WORD	1479295	wordpools/wasnorm_wordpool_576.txt	LTP236	ltpFR2	18	13	TROUT	1511	n/a	n/a	0	0	0
2959.616	n/a	REC_WORD	1479808	wordpools/wasnorm_wordpool_576.txt	LTP236	ltpFR2	18	13	LUNCH	849	n/a	n/a	0	0	0
2967.33	n/a	REC_WORD	1483665	wordpools/wasnorm_wordpool_576.txt	LTP236	ltpFR2	18	13	WRENCH	1625	n/a	n/a	0	0	0
2968.06	n/a	REC_WORD	1484030	wordpools/wasnorm_wordpool_576.txt	LTP236	ltpFR2	18	13	PLIERS	1089	n/a	n/a	0	0	0
2971.352	n/a	REC_WORD	1485676	wordpools/wasnorm_wordpool_576.txt	LTP236	ltpFR2	18	13	HEDGE	699	n/a	n/a	0	0	0
2972.226	n/a	REC_WORD	1486113	wordpools/wasnorm_wordpool_576.txt	LTP236	ltpFR2	18	13	FOREST	593	n/a	n/a	0	0	0
3035.66	n/a	WORD	1517830	wordpools/wasnorm_wordpool_576.txt	LTP236	ltpFR2	18	14	ELBOW	520	n/a	n/a	0	0	0
3038.16	n/a	WORD	1519080	wordpools/wasnorm_wordpool_576.txt	LTP236	ltpFR2	18	14	PORK	1108	n/a	n/a	0	0	0
3040.73	n/a	WORD	1520365	wordpools/wasnorm_wordpool_576.txt	LTP236	ltpFR2	18	14	SAUSAGE	1238	n/a	n/a	0	0	0
3043.448	n/a	WORD	1521724	wordpools/wasnorm_wordpool_576.txt	LTP236	ltpFR2	18	14	ANKLE	24	n/a	n/a	0	0	0
3046.15	n/a	WORD	1523075	wordpools/wasnorm_wordpool_576.txt	LTP236	ltpFR2	18	14	STOMACH	1384	n/a	n/a	0	0	0
3048.968	n/a	WORD	1524484	wordpools/wasnorm_wordpool_576.txt	LTP236	ltpFR2	18	14	TWEEZERS	1526	n/a	n/a	0	0	0
3051.772	n/a	WORD	1525886	wordpools/wasnorm_wordpool_576.txt	LTP236	ltpFR2	18	14	MEAT	883	n/a	n/a	0	0	0
3054.408	n/a	WORD	1527204	wordpools/wasnorm_wordpool_576.txt	LTP236	ltpFR2	18	14	PEANUT	1032	n/a	n/a	0	0	0
3057.094	n/a	WORD	1528547	wordpools/wasnorm_wordpool_576.txt	LTP236	ltpFR2	18	14	CASHEW	253	n/a	n/a	0	0	0
3059.846	n/a	WORD	1529923	wordpools/wasnorm_wordpool_576.txt	LTP236	ltpFR2	18	14	PLAZA	1088	n/a	n/a	0	0	0
3062.648	n/a	WORD	1531324	wordpools/wasnorm_wordpool_576.txt	LTP236	ltpFR2	18	14	HORNET	718	n/a	n/a	0	0	0
3065.216	n/a	WORD	1532608	wordpools/wasnorm_wordpool_576.txt	LTP236	ltpFR2	18	14	QUARTER	1148	n/a	n/a	0	0	0
3067.72	n/a	WORD	1533860	wordpools/wasnorm_wordpool_576.txt	LTP236	ltpFR2	18	14	LEOPARD	812	n/a	n/a	0	0	0
3070.356	n/a	WORD	1535178	wordpools/wasnorm_wordpool_576.txt	LTP236	ltpFR2	18	14	BRAKE	166	n/a	n/a	0	0	0
3072.856	n/a	WORD	1536428	wordpools/wasnorm_wordpool_576.txt	LTP236	ltpFR2	18	14	OUTLAW	989	n/a	n/a	0	0	0
3075.292	n/a	WORD	1537646	wordpools/wasnorm_wordpool_576.txt	LTP236	ltpFR2	18	14	COFFEE	341	n/a	n/a	0	0	0
3077.828	n/a	WORD	1538914	wordpools/wasnorm_wordpool_576.txt	LTP236	ltpFR2	18	14	DUSTPAN	509	n/a	n/a	0	0	0
3080.43	n/a	WORD	1540215	wordpools/wasnorm_wordpool_576.txt	LTP236	ltpFR2	18	14	CLOTHES	327	n/a	n/a	0	0	0
3083.048	n/a	WORD	1541524	wordpools/wasnorm_wordpool_576.txt	LTP236	ltpFR2	18	14	BUTCHER	203	n/a	n/a	0	0	0
3085.768	n/a	WORD	1542884	wordpools/wasnorm_wordpool_576.txt	LTP236	ltpFR2	18	14	AWARD	63	n/a	n/a	0	0	0
3088.386	n/a	WORD	1544193	wordpools/wasnorm_wordpool_576.txt	LTP236	ltpFR2	18	14	BRICK	172	n/a	n/a	0	0	0
3090.97	n/a	WORD	1545485	wordpools/wasnorm_wordpool_576.txt	LTP236	ltpFR2	18	14	TILE	1468	n/a	n/a	0	0	0
3093.722	n/a	WORD	1546861	wordpools/wasnorm_wordpool_576.txt	LTP236	ltpFR2	18	14	SCARECROW	1245	n/a	n/a	0	0	0
3096.542	n/a	WORD	1548271	wordpools/wasnorm_wordpool_576.txt	LTP236	ltpFR2	18	14	CYCLONE	431	n/a	n/a	0	0	0
3098.16	n/a	START	1549080	n/a	LTP236	ltpFR2	18	n/a	n/a	n/a	21	n/a	n/a	n/a	n/a
3099.216	n/a	DISTRACTOR	1549608	n/a	LTP236	ltpFR2	18	14	n/a	n/a	n/a	n/a	0	0	0
3099.228	n/a	PROB	1549614	n/a	LTP236	ltpFR2	18	n/a	n/a	n/a	21	13	7	5	1
3101.378	n/a	PROB	1550689	n/a	LTP236	ltpFR2	18	n/a	n/a	n/a	21	12	5	1	6
3102.63	n/a	PROB	1551315	n/a	LTP236	ltpFR2	18	n/a	n/a	n/a	21	13	7	3	3
3103.582	n/a	PROB	1551791	n/a	LTP236	ltpFR2	18	n/a	n/a	n/a	21	18	7	5	6
3104.682	n/a	PROB	1552341	n/a	LTP236	ltpFR2	18	n/a	n/a	n/a	21	13	3	3	7
3105.848	n/a	PROB	1552924	n/a	LTP236	ltpFR2	18	n/a	n/a	n/a	21	16	7	6	3
3107.05	n/a	PROB	1553525	n/a	LTP236	ltpFR2	18	n/a	n/a	n/a	21	16	9	3	4
3108.734	n/a	PROB	1554367	n/a	LTP236	ltpFR2	18	n/a	n/a	n/a	21	21	6	7	8
3109.802	n/a	PROB	1554901	n/a	LTP236	ltpFR2	18	n/a	n/a	n/a	21	16	6	1	9
3110.87	n/a	PROB	1555435	n/a	LTP236	ltpFR2	18	n/a	n/a	n/a	21	13	7	4	2
3112.338	n/a	PROB	1556169	n/a	LTP236	ltpFR2	18	n/a	n/a	n/a	21	15	9	5	1
3113.488	n/a	PROB	1556744	n/a	LTP236	ltpFR2	18	n/a	n/a	n/a	21	22	6	7	9
3114.706	n/a	PROB	1557353	n/a	LTP236	ltpFR2	18	n/a	n/a	n/a	21	18	5	9	4
3115.79	n/a	PROB	1557895	n/a	LTP236	ltpFR2	18	n/a	n/a	n/a	21	8	4	1	3
3116.958	n/a	PROB	1558479	n/a	LTP236	ltpFR2	18	n/a	n/a	n/a	21	16	2	6	8
3118.09	n/a	PROB	1559045	n/a	LTP236	ltpFR2	18	n/a	n/a	n/a	21	13	4	7	2
3119.126	n/a	PROB	1559563	n/a	LTP236	ltpFR2	18	n/a	n/a	n/a	21	13	3	5	5
3120.092	n/a	PROB	1560046	n/a	LTP236	ltpFR2	18	n/a	n/a	n/a	21	20	7	8	5
3121.058	n/a	STOP	1560529	n/a	LTP236	ltpFR2	18	n/a	n/a	n/a	21	n/a	n/a	n/a	n/a
3123.964	n/a	REC_START	1561982	n/a	LTP236	ltpFR2	18	14	n/a	n/a	n/a	n/a	0	0	0
3124.384	n/a	REC_WORD	1562192	wordpools/wasnorm_wordpool_576.txt	LTP236	ltpFR2	18	14	CYCLONE	431	n/a	n/a	0	0	0
3125.566	n/a	REC_WORD	1562783	wordpools/wasnorm_wordpool_576.txt	LTP236	ltpFR2	18	14	BRAKE	166	n/a	n/a	0	0	0
3126.476	n/a	REC_WORD	1563238	wordpools/wasnorm_wordpool_576.txt	LTP236	ltpFR2	18	14	TILE	1468	n/a	n/a	0	0	0
3131.55	n/a	REC_WORD	1565775	wordpools/wasnorm_wordpool_576.txt	LTP236	ltpFR2	18	14	DUSTPAN	509	n/a	n/a	0	0	0
3132.552	n/a	REC_WORD	1566276	wordpools/wasnorm_wordpool_576.txt	LTP236	ltpFR2	18	14	COFFEE	341	n/a	n/a	0	0	0
3133.428	n/a	REC_WORD	1566714	wordpools/wasnorm_wordpool_576.txt	LTP236	ltpFR2	18	14	CLOTHES	327	n/a	n/a	0	0	0
3134.11	n/a	REC_WORD	1567055	wordpools/wasnorm_wordpool_576.txt	LTP236	ltpFR2	18	14	SCARECROW	1245	n/a	n/a	0	0	0
3135.12	n/a	REC_WORD	1567560	wordpools/wasnorm_wordpool_576.txt	LTP236	ltpFR2	18	14	BUTCHER	203	n/a	n/a	0	0	0
3135.828	n/a	REC_WORD	1567914	wordpools/wasnorm_wordpool_576.txt	LTP236	ltpFR2	18	14	MEAT	883	n/a	n/a	0	0	0
3136.522	n/a	REC_WORD	1568261	wordpools/wasnorm_wordpool_576.txt	LTP236	ltpFR2	18	14	PORK	1108	n/a	n/a	0	0	0
3137.14	n/a	REC_WORD	1568570	wordpools/wasnorm_wordpool_576.txt	LTP236	ltpFR2	18	14	SAUSAGE	1238	n/a	n/a	0	0	0
3152.404	n/a	REC_WORD	1576202	wordpools/wasnorm_wordpool_576.txt	LTP236	ltpFR2	18	14	ANKLE	24	n/a	n/a	0	0	0
3153.556	n/a	REC_WORD	1576778	wordpools/wasnorm_wordpool_576.txt	LTP236	ltpFR2	18	14	WRIST	1626	n/a	n/a	0	0	0
3157.818	n/a	REC_WORD	1578909	wordpools/wasnorm_wordpool_576.txt	LTP236	ltpFR2	18	14	STOMACH	1384	n/a	n/a	0	0	0
3158.972	n/a	REC_WORD	1579486	wordpools/wasnorm_wordpool_576.txt	LTP236	ltpFR2	18	14	TWEEZERS	1526	n/a	n/a	0	0	0
3162.912	n/a	REC_WORD	1581456	wordpools/wasnorm_wordpool_576.txt	LTP236	ltpFR2	18	14	PEANUT	1032	n/a	n/a	0	0	0
3163.764	n/a	REC_WORD	1581882	wordpools/wasnorm_wordpool_576.txt	LTP236	ltpFR2	18	14	CASHEW	253	n/a	n/a	0	0	0
3214.4	n/a	WORD	1607200	wordpools/wasnorm_wordpool_576.txt	LTP236	ltpFR2	18	15	OINTMENT	974	n/a	n/a	0	0	0
3216.986	n/a	WORD	1608493	wordpools/wasnorm_wordpool_576.txt	LTP236	ltpFR2	18	15	PEPPER	1047	n/a	n/a	0	0	0
3219.632	n/a	WORD	1609816	wordpools/wasnorm_wordpool_576.txt	LTP236	ltpFR2	18	15	COOKBOOK	373	n/a	n/a	0	0	0
3222.216	n/a	WORD	1611108	wordpools/wasnorm_wordpool_576.txt	LTP236	ltpFR2	18	15	PEACH	1031	n/a	n/a	0	0	0
3224.97	n/a	WORD	1612485	wordpools/wasnorm_wordpool_576.txt	LTP236	ltpFR2	18	15	APPLE	33	n/a	n/a	0	0	0
3227.712	n/a	WORD	1613856	wordpools/wasnorm_wordpool_576.txt	LTP236	ltpFR2	18	15	NECKLACE	940	n/a	n/a	0	0	0
3230.274	n/a	WORD	1615137	wordpools/wasnorm_wordpool_576.txt	LTP236	ltpFR2	18	15	MEDAL	885	n/a	n/a	0	0	0
3233.016	n/a	WORD	1616508	wordpools/wasnorm_wordpool_576.txt	LTP236	ltpFR2	18	15	FOOTBALL	591	n/a	n/a	0	0	0
3235.65	n/a	WORD	1617825	wordpools/wasnorm_wordpool_576.txt	LTP236	ltpFR2	18	15	TRUCK	1512	n/a	n/a	0	0	0
3238.346	n/a	WORD	1619173	wordpools/wasnorm_wordpool_576.txt	LTP236	ltpFR2	18	15	BELLY	119	n/a	n/a	0	0	0
3241.066	n/a	WORD	1620533	wordpools/wasnorm_wordpool_576.txt	LTP236	ltpFR2	18	15	LOVER	846	n/a	n/a	0	0	0
3243.518	n/a	WORD	1621759	wordpools/wasnorm_wordpool_576.txt	LTP236	ltpFR2	18	15	GUARD	667	n/a	n/a	0	0	0
3245.952	n/a	WORD	1622976	wordpools/wasnorm_wordpool_576.txt	LTP236	ltpFR2	18	15	GARBAGE	622	n/a	n/a	0	0	0
3248.74	n/a	WORD	1624370	wordpools/wasnorm_wordpool_576.txt	LTP236	ltpFR2	18	15	PASTA	1021	n/a	n/a	0	0	0
3251.51	n/a	WORD	1625755	wordpools/wasnorm_wordpool_576.txt	LTP236	ltpFR2	18	15	FEMALE	559	n/a	n/a	0	0	0
3254.126	n/a	WORD	1627063	wordpools/wasnorm_wordpool_576.txt	LTP236	ltpFR2	18	15	FRIEND	606	n/a	n/a	0	0	0
3256.596	n/a	WORD	1628298	wordpools/wasnorm_wordpool_576.txt	LTP236	ltpFR2	18	15	SHELTER	1282	n/a	n/a	0	0	0
3259.298	n/a	WORD	1629649	wordpools/wasnorm_wordpool_576.txt	LTP236	ltpFR2	18	15	PARTNER	1017	n/a	n/a	0	0	0
3261.818	n/a	WORD	1630909	wordpools/wasnorm_wordpool_576.txt	LTP236	ltpFR2	18	15	YOLK	1633	n/a	n/a	0	0	0
3264.47	n/a	WORD	1632235	wordpools/wasnorm_wordpool_576.txt	LTP236	ltpFR2	18	15	CREATURE	403	n/a	n/a	0	0	0
3267.256	n/a	WORD	1633628	wordpools/wasnorm_wordpool_576.txt	LTP236	ltpFR2	18	15	TORTOISE	1486	n/a	n/a	0	0	0
3269.708	n/a	WORD	1634854	wordpools/wasnorm_wordpool_576.txt	LTP236	ltpFR2	18	15	PIGEON	1065	n/a	n/a	0	0	0
3272.428	n/a	WORD	1636214	wordpools/wasnorm_wordpool_576.txt	LTP236	ltpFR2	18	15	ULCER	1533	n/a	n/a	0	0	0
3275.182	n/a	WORD	1637591	wordpools/wasnorm_wordpool_576.txt	LTP236	ltpFR2	18	15	COUNTY	389	n/a	n/a	0	0	0
3276.798	n/a	START	1638399	n/a	LTP236	ltpFR2	18	n/a	n/a	n/a	22	n/a	n/a	n/a	n/a
3277.652	n/a	DISTRACTOR	1638826	n/a	LTP236	ltpFR2	18	15	n/a	n/a	n/a	n/a	0	0	0
3277.664	n/a	PROB	1638832	n/a	LTP236	ltpFR2	18	n/a	n/a	n/a	22	12	3	7	1
3280.966	n/a	PROB	1640483	n/a	LTP236	ltpFR2	18	n/a	n/a	n/a	22	18	7	3	8
3283.234	n/a	PROB	1641617	n/a	LTP236	ltpFR2	18	n/a	n/a	n/a	22	23	8	9	6
3284.936	n/a	PROB	1642468	n/a	LTP236	ltpFR2	18	n/a	n/a	n/a	22	8	6	1	1
3285.836	n/a	PROB	1642918	n/a	LTP236	ltpFR2	18	n/a	n/a	n/a	22	10	2	1	7
3286.92	n/a	PROB	1643460	n/a	LTP236	ltpFR2	18	n/a	n/a	n/a	22	18	5	5	8
3288.156	n/a	PROB	1644078	n/a	LTP236	ltpFR2	18	n/a	n/a	n/a	22	16	1	8	7
3291.308	n/a	PROB	1645654	n/a	LTP236	ltpFR2	18	n/a	n/a	n/a	22	18	8	4	6
3292.426	n/a	PROB	1646213	n/a	LTP236	ltpFR2	18	n/a	n/a	n/a	22	14	4	6	4
3293.33	n/a	PROB	1646665	n/a	LTP236	ltpFR2	18	n/a	n/a	n/a	22	16	6	3	7
3295.162	n/a	PROB	1647581	n/a	LTP236	ltpFR2	18	n/a	n/a	n/a	22	23	7	9	7
3296.898	n/a	PROB	1648449	n/a	LTP236	ltpFR2	18	n/a	n/a	n/a	22	18	8	9	1
3298.198	n/a	PROB	1649099	n/a	LTP236	ltpFR2	18	n/a	n/a	n/a	22	8	2	3	3
3299.422	n/a	STOP	1649711	n/a	LTP236	ltpFR2	18	n/a	n/a	n/a	22	n/a	n/a	n/a	n/a
3302.67	n/a	REC_START	1651335	n/a	LTP236	ltpFR2	18	15	n/a	n/a	n/a	n/a	0	0	0
3303.378	n/a	REC_WORD	1651689	wordpools/wasnorm_wordpool_576.txt	LTP236	ltpFR2	18	15	TORTOISE	1486	n/a	n/a	0	0	0
3304.162	n/a	REC_WORD	1652081	wordpools/wasnorm_wordpool_576.txt	LTP236	ltpFR2	18	15	PIGEON	1065	n/a	n/a	0	0	0
3304.926	n/a	REC_WORD	1652463	wordpools/wasnorm_wordpool_576.txt	LTP236	ltpFR2	18	15	COUNTY	389	n/a	n/a	0	0	0
3305.774	n/a	REC_WORD	1652887	wordpools/wasnorm_wordpool_576.txt	LTP236	ltpFR2	18	15	ULCER	1533	n/a	n/a	0	0	0
3307.476	n/a	REC_WORD	1653738	wordpools/wasnorm_wordpool_576.txt	LTP236	ltpFR2	18	15	CREATURE	403	n/a	n/a	0	0	0
3310.628	n/a	REC_WORD	1655314	wordpools/wasnorm_wordpool_576.txt	LTP236	ltpFR2	18	15	FEMALE	559	n/a	n/a	0	0	0
3311.146	n/a	REC_WORD	1655573	wordpools/wasnorm_wordpool_576.txt	LTP236	ltpFR2	18	15	FRIEND	606	n/a	n/a	0	0	0
3311.778	n/a	REC_WORD	1655889	wordpools/wasnorm_wordpool_576.txt	LTP236	ltpFR2	18	15	LOVER	846	n/a	n/a	0	0	0
3312.436	n/a	REC_WORD	1656218	wordpools/wasnorm_wordpool_576.txt	LTP236	ltpFR2	18	15	PARTNER	1017	n/a	n/a	0	0	0
3317.858	n/a	REC_WORD	1658929	wordpools/wasnorm_wordpool_576.txt	LTP236	ltpFR2	18	15	COOKBOOK	373	n/a	n/a	0	0	0
3318.774	n/a	REC_WORD	1659387	wordpools/wasnorm_wordpool_576.txt	LTP236	ltpFR2	18	15	PASTA	1021	n/a	n/a	0	0	0
3319.606	n/a	REC_WORD	1659803	wordpools/wasnorm_wordpool_576.txt	LTP236	ltpFR2	18	15	GARBAGE	622	n/a	n/a	0	0	0
3320.322	n/a	REC_WORD	1660161	wordpools/wasnorm_wordpool_576.txt	LTP236	ltpFR2	18	15	YOLK	1633	n/a	n/a	0	0	0
3322.318	n/a	REC_WORD	1661159	wordpools/wasnorm_wordpool_576.txt	LTP236	ltpFR2	18	15	SHELTER	1282	n/a	n/a	0	0	0
3324.744	n/a	REC_WORD	1662372	wordpools/wasnorm_wordpool_576.txt	LTP236	ltpFR2	18	15	PEPPER	1047	n/a	n/a	0	0	0
3328.836	n/a	REC_WORD	1664418	wordpools/wasnorm_wordpool_576.txt	LTP236	ltpFR2	18	15	PEACH	1031	n/a	n/a	0	0	0
3329.632	n/a	REC_WORD	1664816	wordpools/wasnorm_wordpool_576.txt	LTP236	ltpFR2	18	15	APPLE	33	n/a	n/a	0	0	0
3330.48	n/a	REC_WORD	1665240	wordpools/wasnorm_wordpool_576.txt	LTP236	ltpFR2	18	15	OINTMENT	974	n/a	n/a	0	0	0
3334.786	n/a	REC_WORD	1667393	wordpools/wasnorm_wordpool_576.txt	LTP236	ltpFR2	18	15	FOOTBALL	591	n/a	n/a	0	0	0
3393.09	n/a	DISTRACTOR	1696545	n/a	LTP236	ltpFR2	18	16	n/a	n/a	n/a	n/a	0	0	0
3393.09	n/a	START	1696545	n/a	LTP236	ltpFR2	18	n/a	n/a	n/a	23	n/a	n/a	n/a	n/a
3393.106	n/a	PROB	1696553	n/a	LTP236	ltpFR2	18	n/a	n/a	n/a	23	12	7	4	1
3395.176	n/a	PROB	1697588	n/a	LTP236	ltpFR2	18	n/a	n/a	n/a	23	9	4	4	1
3396.142	n/a	PROB	1698071	n/a	LTP236	ltpFR2	18	n/a	n/a	n/a	23	21	9	5	7
3398.544	n/a	PROB	1699272	n/a	LTP236	ltpFR2	18	n/a	n/a	n/a	23	18	2	7	9
3399.812	n/a	PROB	1699906	n/a	LTP236	ltpFR2	18	n/a	n/a	n/a	23	17	5	9	3
3400.964	n/a	PROB	1700482	n/a	LTP236	ltpFR2	18	n/a	n/a	n/a	23	15	1	8	6
3402.028	n/a	PROB	1701014	n/a	LTP236	ltpFR2	18	n/a	n/a	n/a	23	21	9	5	7
3404.046	n/a	PROB	1702023	n/a	LTP236	ltpFR2	18	n/a	n/a	n/a	23	13	1	4	8
3405.8	n/a	PROB	1702900	n/a	LTP236	ltpFR2	18	n/a	n/a	n/a	23	17	4	9	4
3407.6	n/a	PROB	1703800	n/a	LTP236	ltpFR2	18	n/a	n/a	n/a	23	17	8	1	8
3409.252	n/a	PROB	1704626	n/a	LTP236	ltpFR2	18	n/a	n/a	n/a	23	6	4	1	1
3410.236	n/a	PROB	1705118	n/a	LTP236	ltpFR2	18	n/a	n/a	n/a	23	13	5	6	2
3411.24	n/a	PROB	1705620	n/a	LTP236	ltpFR2	18	n/a	n/a	n/a	23	16	4	4	8
3413.938	n/a	PROB	1706969	n/a	LTP236	ltpFR2	18	n/a	n/a	n/a	23	11	6	1	4
3417.09	n/a	STOP	1708545	n/a	LTP236	ltpFR2	18	n/a	n/a	n/a	23	n/a	n/a	n/a	n/a
3418.268	n/a	WORD	1709134	wordpools/wasnorm_wordpool_576.txt	LTP236	ltpFR2	18	16	CHEMIST	292	n/a	n/a	0	0	0
3420.77	n/a	WORD	1710385	wordpools/wasnorm_wordpool_576.txt	LTP236	ltpFR2	18	16	LAKE	796	n/a	n/a	0	0	0
3423.366	n/a	WORD	1711683	wordpools/wasnorm_wordpool_576.txt	LTP236	ltpFR2	18	16	VALVE	1546	n/a	n/a	0	0	0
3425.932	n/a	WORD	1712966	wordpools/wasnorm_wordpool_576.txt	LTP236	ltpFR2	18	16	GAZELLE	628	n/a	n/a	0	0	0
3428.684	n/a	WORD	1714342	wordpools/wasnorm_wordpool_576.txt	LTP236	ltpFR2	18	16	SUBWAY	1400	n/a	n/a	0	0	0
3431.428	n/a	WORD	1715714	wordpools/wasnorm_wordpool_576.txt	LTP236	ltpFR2	18	16	CHAPEL	280	n/a	n/a	0	0	0
3433.906	n/a	WORD	1716953	wordpools/wasnorm_wordpool_576.txt	LTP236	ltpFR2	18	16	PRIMATE	1123	n/a	n/a	0	0	0
