onset	duration	trial_type	sample	stim_file	subject	experiment	session	trial	item_name	item_num	list	answer	test_x	test_y	test_z
334.51318359375	n/a	SESS_START	685083	n/a	LTP363	ltpFR2	0	n/a	n/a	n/a	n/a	n/a	0	0	0
512.0634765625	n/a	START	1048706	n/a	LTP363	ltpFR2	0	n/a	n/a	n/a	-1	n/a	n/a	n/a	n/a
512.09375	n/a	PROB	1048768	n/a	LTP363	ltpFR2	0	n/a	n/a	n/a	-1	18	3	8	7
516.32470703125	n/a	PROB	1057433	n/a	LTP363	ltpFR2	0	n/a	n/a	n/a	-1	19	4	9	6
519.990234375	n/a	PROB	1064940	n/a	LTP363	ltpFR2	0	n/a	n/a	n/a	-1	16	6	3	5
523.09033203125	n/a	STOP	1071289	n/a	LTP363	ltpFR2	0	n/a	n/a	n/a	-1	n/a	n/a	n/a	n/a
625.0234375	n/a	DISTRACTOR	1280048	n/a	LTP363	ltpFR2	0	1	n/a	n/a	n/a	n/a	0	0	0
625.0234375	n/a	START	1280048	n/a	LTP363	ltpFR2	0	n/a	n/a	n/a	1	n/a	n/a	n/a	n/a
625.0400390625	n/a	PROB	1280082	n/a	LTP363	ltpFR2	0	n/a	n/a	n/a	1	17	5	4	8
628.77099609375	n/a	PROB	1287723	n/a	LTP363	ltpFR2	0	n/a	n/a	n/a	1	16	5	8	3
632.2021484375	n/a	PROB	1294750	n/a	LTP363	ltpFR2	0	n/a	n/a	n/a	1	16	6	4	6
634.41796875	n/a	PROB	1299288	n/a	LTP363	ltpFR2	0	n/a	n/a	n/a	1	6	1	4	1
636.76806640625	n/a	PROB	1304101	n/a	LTP363	ltpFR2	0	n/a	n/a	n/a	1	13	6	2	5
639.7158203125	n/a	PROB	1310138	n/a	LTP363	ltpFR2	0	n/a	n/a	n/a	1	9	5	3	1
642.96484375	n/a	PROB	1316792	n/a	LTP363	ltpFR2	0	n/a	n/a	n/a	1	16	6	3	7
645.79638671875	n/a	PROB	1322591	n/a	LTP363	ltpFR2	0	n/a	n/a	n/a	1	10	2	2	6
647.890625	n/a	STOP	1326880	n/a	LTP363	ltpFR2	0	n/a	n/a	n/a	1	n/a	n/a	n/a	n/a
650.21044921875	n/a	WORD	1331631	wordpools/wasnorm_wordpool_576.txt	LTP363	ltpFR2	0	1	CRUTCH	417	n/a	n/a	0	0	0
653.04345703125	n/a	WORD	1337433	wordpools/wasnorm_wordpool_576.txt	LTP363	ltpFR2	0	1	MOTEL	919	n/a	n/a	0	0	0
655.67529296875	n/a	WORD	1342823	wordpools/wasnorm_wordpool_576.txt	LTP363	ltpFR2	0	1	PORK	1108	n/a	n/a	0	0	0
658.38916015625	n/a	WORD	1348381	wordpools/wasnorm_wordpool_576.txt	LTP363	ltpFR2	0	1	PERFUME	1049	n/a	n/a	0	0	0
661.205078125	n/a	WORD	1354148	wordpools/wasnorm_wordpool_576.txt	LTP363	ltpFR2	0	1	CIGAR	308	n/a	n/a	0	0	0
663.75390625	n/a	WORD	1359368	wordpools/wasnorm_wordpool_576.txt	LTP363	ltpFR2	0	1	CUPBOARD	425	n/a	n/a	0	0	0
666.48583984375	n/a	WORD	1364963	wordpools/wasnorm_wordpool_576.txt	LTP363	ltpFR2	0	1	WAITER	1580	n/a	n/a	0	0	0
668.9189453125	n/a	WORD	1369946	wordpools/wasnorm_wordpool_576.txt	LTP363	ltpFR2	0	1	CRICKET	408	n/a	n/a	0	0	0
671.3828125	n/a	WORD	1374992	wordpools/wasnorm_wordpool_576.txt	LTP363	ltpFR2	0	1	FOOT	590	n/a	n/a	0	0	0
673.94970703125	n/a	WORD	1380249	wordpools/wasnorm_wordpool_576.txt	LTP363	ltpFR2	0	1	ANKLE	24	n/a	n/a	0	0	0
676.3974609375	n/a	WORD	1385262	wordpools/wasnorm_wordpool_576.txt	LTP363	ltpFR2	0	1	SUITCASE	1403	n/a	n/a	0	0	0
679.013671875	n/a	WORD	1390620	wordpools/wasnorm_wordpool_576.txt	LTP363	ltpFR2	0	1	BRIEFCASE	175	n/a	n/a	0	0	0
681.51171875	n/a	WORD	1395736	wordpools/wasnorm_wordpool_576.txt	LTP363	ltpFR2	0	1	FLASHLIGHT	575	n/a	n/a	0	0	0
684.21044921875	n/a	WORD	1401263	wordpools/wasnorm_wordpool_576.txt	LTP363	ltpFR2	0	1	TUNNEL	1519	n/a	n/a	0	0	0
686.87646484375	n/a	WORD	1406723	wordpools/wasnorm_wordpool_576.txt	LTP363	ltpFR2	0	1	POSTAGE	1113	n/a	n/a	0	0	0
689.44140625	n/a	WORD	1411976	wordpools/wasnorm_wordpool_576.txt	LTP363	ltpFR2	0	1	PICTURE	1061	n/a	n/a	0	0	0
692.041015625	n/a	WORD	1417300	wordpools/wasnorm_wordpool_576.txt	LTP363	ltpFR2	0	1	PIGMENT	1066	n/a	n/a	0	0	0
694.47216796875	n/a	WORD	1422279	wordpools/wasnorm_wordpool_576.txt	LTP363	ltpFR2	0	1	BANQUET	86	n/a	n/a	0	0	0
696.955078125	n/a	WORD	1427364	wordpools/wasnorm_wordpool_576.txt	LTP363	ltpFR2	0	1	POWDER	1117	n/a	n/a	0	0	0
699.40283203125	n/a	WORD	1432377	wordpools/wasnorm_wordpool_576.txt	LTP363	ltpFR2	0	1	PATROL	1027	n/a	n/a	0	0	0
702.16796875	n/a	WORD	1438040	wordpools/wasnorm_wordpool_576.txt	LTP363	ltpFR2	0	1	VENUS	1557	n/a	n/a	0	0	0
704.8505859375	n/a	WORD	1443534	wordpools/wasnorm_wordpool_576.txt	LTP363	ltpFR2	0	1	CUSTARD	429	n/a	n/a	0	0	0
707.48291015625	n/a	WORD	1448925	wordpools/wasnorm_wordpool_576.txt	LTP363	ltpFR2	0	1	SKETCH	1315	n/a	n/a	0	0	0
710.28076171875	n/a	WORD	1454655	wordpools/wasnorm_wordpool_576.txt	LTP363	ltpFR2	0	1	RATTLE	1170	n/a	n/a	0	0	0
711.8974609375	n/a	START	1457966	n/a	LTP363	ltpFR2	0	n/a	n/a	n/a	2	n/a	n/a	n/a	n/a
713.04833984375	n/a	DISTRACTOR	1460323	n/a	LTP363	ltpFR2	0	1	n/a	n/a	n/a	n/a	0	0	0
713.0634765625	n/a	PROB	1460354	n/a	LTP363	ltpFR2	0	n/a	n/a	n/a	2	15	6	5	4
716.54443359375	n/a	PROB	1467483	n/a	LTP363	ltpFR2	0	n/a	n/a	n/a	2	14	2	4	8
719.9775390625	n/a	PROB	1474514	n/a	LTP363	ltpFR2	0	n/a	n/a	n/a	2	11	3	2	6
722.50830078125	n/a	PROB	1479697	n/a	LTP363	ltpFR2	0	n/a	n/a	n/a	2	14	8	3	3
725.34033203125	n/a	PROB	1485497	n/a	LTP363	ltpFR2	0	n/a	n/a	n/a	2	13	4	3	6
727.740234375	n/a	PROB	1490412	n/a	LTP363	ltpFR2	0	n/a	n/a	n/a	2	14	1	4	9
730.63916015625	n/a	PROB	1496349	n/a	LTP363	ltpFR2	0	n/a	n/a	n/a	2	13	1	4	8
732.65478515625	n/a	PROB	1500477	n/a	LTP363	ltpFR2	0	n/a	n/a	n/a	2	12	1	4	7
735.05908203125	n/a	STOP	1505401	n/a	LTP363	ltpFR2	0	n/a	n/a	n/a	2	n/a	n/a	n/a	n/a
737.78564453125	n/a	REC_START	1510985	n/a	LTP363	ltpFR2	0	1	n/a	n/a	n/a	n/a	0	0	0
738.66796875	n/a	REC_WORD	1512792	wordpools/wasnorm_wordpool_576.txt	LTP363	ltpFR2	0	1	SKETCH	1315	n/a	n/a	0	0	0
739.806640625	n/a	REC_WORD	1515124	wordpools/wasnorm_wordpool_576.txt	LTP363	ltpFR2	0	1	RATTLE	1170	n/a	n/a	0	0	0
741.07958984375	n/a	REC_WORD	1517731	wordpools/wasnorm_wordpool_576.txt	LTP363	ltpFR2	0	1	POWDER	1117	n/a	n/a	0	0	0
742.48486328125	n/a	REC_WORD	1520609	wordpools/wasnorm_wordpool_576.txt	LTP363	ltpFR2	0	1	PATROL	1027	n/a	n/a	0	0	0
746.57666015625	n/a	REC_WORD	1528989	wordpools/wasnorm_wordpool_576.txt	LTP363	ltpFR2	0	1	PORK	1108	n/a	n/a	0	0	0
749.3876953125	n/a	REC_WORD	1534746	wordpools/wasnorm_wordpool_576.txt	LTP363	ltpFR2	0	1	ANKLE	24	n/a	n/a	0	0	0
752.265625	n/a	REC_WORD	1540640	wordpools/wasnorm_wordpool_576.txt	LTP363	ltpFR2	0	1	CUSTARD	429	n/a	n/a	0	0	0
770.53759765625	n/a	REC_WORD	1578061	wordpools/wasnorm_wordpool_576.txt	LTP363	ltpFR2	0	1	PERFUME	1049	n/a	n/a	0	0	0
771.52197265625	n/a	REC_WORD	1580077	wordpools/wasnorm_wordpool_576.txt	LTP363	ltpFR2	0	1	CIGAR	308	n/a	n/a	0	0	0
787.84521484375	n/a	REC_WORD	1613507	wordpools/wasnorm_wordpool_576.txt	LTP363	ltpFR2	0	1	WAITER	1580	n/a	n/a	0	0	0
788.79931640625	n/a	REC_WORD	1615461	wordpools/wasnorm_wordpool_576.txt	LTP363	ltpFR2	0	1	CUPBOARD	425	n/a	n/a	0	0	0
796.1279296875	n/a	REC_WORD	1630470	wordpools/wasnorm_wordpool_576.txt	LTP363	ltpFR2	0	1	POSTAGE	1113	n/a	n/a	0	0	0
798.03076171875	n/a	REC_WORD	1634367	wordpools/wasnorm_wordpool_576.txt	LTP363	ltpFR2	0	1	PICTURE	1061	n/a	n/a	0	0	0
858.1259765625	n/a	WORD	1757442	wordpools/wasnorm_wordpool_576.txt	LTP363	ltpFR2	0	2	JOURNAL	760	n/a	n/a	0	0	0
860.7431640625	n/a	WORD	1762802	wordpools/wasnorm_wordpool_576.txt	LTP363	ltpFR2	0	2	EMPIRE	530	n/a	n/a	0	0	0
863.2900390625	n/a	WORD	1768018	wordpools/wasnorm_wordpool_576.txt	LTP363	ltpFR2	0	2	DUST	508	n/a	n/a	0	0	0
865.83984375	n/a	WORD	1773240	wordpools/wasnorm_wordpool_576.txt	LTP363	ltpFR2	0	2	MARKER	870	n/a	n/a	0	0	0
868.62109375	n/a	WORD	1778936	wordpools/wasnorm_wordpool_576.txt	LTP363	ltpFR2	0	2	BLACKBOARD	133	n/a	n/a	0	0	0
871.10400390625	n/a	WORD	1784021	wordpools/wasnorm_wordpool_576.txt	LTP363	ltpFR2	0	2	DORM	488	n/a	n/a	0	0	0
873.90283203125	n/a	WORD	1789753	wordpools/wasnorm_wordpool_576.txt	LTP363	ltpFR2	0	2	BLENDER	136	n/a	n/a	0	0	0
876.45068359375	n/a	WORD	1794971	wordpools/wasnorm_wordpool_576.txt	LTP363	ltpFR2	0	2	SUSPECT	1415	n/a	n/a	0	0	0
879.1826171875	n/a	WORD	1800566	wordpools/wasnorm_wordpool_576.txt	LTP363	ltpFR2	0	2	PARSLEY	1016	n/a	n/a	0	0	0
881.6826171875	n/a	WORD	1805686	wordpools/wasnorm_wordpool_576.txt	LTP363	ltpFR2	0	2	BOARD	143	n/a	n/a	0	0	0
884.2802734375	n/a	WORD	1811006	wordpools/wasnorm_wordpool_576.txt	LTP363	ltpFR2	0	2	BRACES	164	n/a	n/a	0	0	0
887.09521484375	n/a	WORD	1816771	wordpools/wasnorm_wordpool_576.txt	LTP363	ltpFR2	0	2	JUNGLE	764	n/a	n/a	0	0	0
889.6953125	n/a	WORD	1822096	wordpools/wasnorm_wordpool_576.txt	LTP363	ltpFR2	0	2	SHELTER	1282	n/a	n/a	0	0	0
892.2431640625	n/a	WORD	1827314	wordpools/wasnorm_wordpool_576.txt	LTP363	ltpFR2	0	2	BUGGY	188	n/a	n/a	0	0	0
894.85888671875	n/a	WORD	1832671	wordpools/wasnorm_wordpool_576.txt	LTP363	ltpFR2	0	2	KNIFE	785	n/a	n/a	0	0	0
897.64111328125	n/a	WORD	1838369	wordpools/wasnorm_wordpool_576.txt	LTP363	ltpFR2	0	2	OUTLAW	989	n/a	n/a	0	0	0
900.388671875	n/a	WORD	1843996	wordpools/wasnorm_wordpool_576.txt	LTP363	ltpFR2	0	2	SCALPEL	1243	n/a	n/a	0	0	0
902.87158203125	n/a	WORD	1849081	wordpools/wasnorm_wordpool_576.txt	LTP363	ltpFR2	0	2	LAMP	798	n/a	n/a	0	0	0
905.40380859375	n/a	WORD	1854267	wordpools/wasnorm_wordpool_576.txt	LTP363	ltpFR2	0	2	MATCH	878	n/a	n/a	0	0	0
908.01953125	n/a	WORD	1859624	wordpools/wasnorm_wordpool_576.txt	LTP363	ltpFR2	0	2	PARENT	1013	n/a	n/a	0	0	0
910.50048828125	n/a	WORD	1864705	wordpools/wasnorm_wordpool_576.txt	LTP363	ltpFR2	0	2	LILY	821	n/a	n/a	0	0	0
913.08251953125	n/a	WORD	1869993	wordpools/wasnorm_wordpool_576.txt	LTP363	ltpFR2	0	2	MILK	895	n/a	n/a	0	0	0
915.88232421875	n/a	WORD	1875727	wordpools/wasnorm_wordpool_576.txt	LTP363	ltpFR2	0	2	SPIDER	1351	n/a	n/a	0	0	0
918.54736328125	n/a	WORD	1881185	wordpools/wasnorm_wordpool_576.txt	LTP363	ltpFR2	0	2	BUG	187	n/a	n/a	0	0	0
920.1630859375	n/a	START	1884494	n/a	LTP363	ltpFR2	0	n/a	n/a	n/a	3	n/a	n/a	n/a	n/a
921.09619140625	n/a	DISTRACTOR	1886405	n/a	LTP363	ltpFR2	0	2	n/a	n/a	n/a	n/a	0	0	0
921.1123046875	n/a	PROB	1886438	n/a	LTP363	ltpFR2	0	n/a	n/a	n/a	3	15	8	6	1
923.87939453125	n/a	PROB	1892105	n/a	LTP363	ltpFR2	0	n/a	n/a	n/a	3	23	8	8	7
926.994140625	n/a	PROB	1898484	n/a	LTP363	ltpFR2	0	n/a	n/a	n/a	3	23	9	7	7
930.0087890625	n/a	PROB	1904658	n/a	LTP363	ltpFR2	0	n/a	n/a	n/a	3	6	1	2	3
932.2568359375	n/a	PROB	1909262	n/a	LTP363	ltpFR2	0	n/a	n/a	n/a	3	16	9	2	5
934.40576171875	n/a	PROB	1913663	n/a	LTP363	ltpFR2	0	n/a	n/a	n/a	3	9	6	1	2
937.171875	n/a	PROB	1919328	n/a	LTP363	ltpFR2	0	n/a	n/a	n/a	3	20	6	5	9
939.28662109375	n/a	PROB	1923659	n/a	LTP363	ltpFR2	0	n/a	n/a	n/a	3	14	1	9	4
944.16259765625	n/a	STOP	1933645	n/a	LTP363	ltpFR2	0	n/a	n/a	n/a	3	n/a	n/a	n/a	n/a
945.9697265625	n/a	REC_START	1937346	n/a	LTP363	ltpFR2	0	2	n/a	n/a	n/a	n/a	0	0	0
947.41552734375	n/a	REC_WORD	1940307	wordpools/wasnorm_wordpool_576.txt	LTP363	ltpFR2	0	2	JUNGLE	764	n/a	n/a	0	0	0
948.50830078125	n/a	REC_WORD	1942545	wordpools/wasnorm_wordpool_576.txt	LTP363	ltpFR2	0	2	SPIDER	1351	n/a	n/a	0	0	0
950.51025390625	n/a	REC_WORD	1946645	wordpools/wasnorm_wordpool_576.txt	LTP363	ltpFR2	0	2	SCALPEL	1243	n/a	n/a	0	0	0
953.42041015625	n/a	REC_WORD	1952605	wordpools/wasnorm_wordpool_576.txt	LTP363	ltpFR2	0	2	KNIFE	785	n/a	n/a	0	0	0
955.3662109375	n/a	REC_WORD	1956590	wordpools/wasnorm_wordpool_576.txt	LTP363	ltpFR2	0	2	MATCH	878	n/a	n/a	0	0	0
958.1220703125	n/a	REC_WORD	1962234	wordpools/wasnorm_wordpool_576.txt	LTP363	ltpFR2	0	2	OUTLAW	989	n/a	n/a	0	0	0
962.837890625	n/a	REC_WORD	1971892	wordpools/wasnorm_wordpool_576.txt	LTP363	ltpFR2	0	2	MILK	895	n/a	n/a	0	0	0
964.2568359375	n/a	REC_WORD	1974798	wordpools/wasnorm_wordpool_576.txt	LTP363	ltpFR2	0	2	LILY	821	n/a	n/a	0	0	0
966.544921875	n/a	REC_WORD	1979484	wordpools/wasnorm_wordpool_576.txt	LTP363	ltpFR2	0	2	PARENT	1013	n/a	n/a	0	0	0
993.05126953125	n/a	REC_WORD	2033769	wordpools/wasnorm_wordpool_576.txt	LTP363	ltpFR2	0	2	BUG	187	n/a	n/a	0	0	0
1003.24755859375	n/a	REC_WORD	2054651	wordpools/wasnorm_wordpool_576.txt	LTP363	ltpFR2	0	2	CAMP	-1	n/a	n/a	0	0	0
1006.57763671875	n/a	REC_WORD	2061471	wordpools/wasnorm_wordpool_576.txt	LTP363	ltpFR2	0	2	LANTERN	-1	n/a	n/a	0	0	0
1010.24853515625	n/a	REC_WORD	2068989	wordpools/wasnorm_wordpool_576.txt	LTP363	ltpFR2	0	2	LAMP	798	n/a	n/a	0	0	0
1045.302734375	n/a	DISTRACTOR	2140780	n/a	LTP363	ltpFR2	0	3	n/a	n/a	n/a	n/a	0	0	0
1045.302734375	n/a	START	2140780	n/a	LTP363	ltpFR2	0	n/a	n/a	n/a	4	n/a	n/a	n/a	n/a
1045.318359375	n/a	PROB	2140812	n/a	LTP363	ltpFR2	0	n/a	n/a	n/a	4	18	8	6	4
1047.95263671875	n/a	PROB	2146207	n/a	LTP363	ltpFR2	0	n/a	n/a	n/a	4	16	9	6	1
1049.8515625	n/a	PROB	2150096	n/a	LTP363	ltpFR2	0	n/a	n/a	n/a	4	19	9	3	7
1053.09814453125	n/a	PROB	2156745	n/a	LTP363	ltpFR2	0	n/a	n/a	n/a	4	14	9	2	3
1055.197265625	n/a	PROB	2161044	n/a	LTP363	ltpFR2	0	n/a	n/a	n/a	4	16	6	7	3
1057.22998046875	n/a	PROB	2165207	n/a	LTP363	ltpFR2	0	n/a	n/a	n/a	4	14	4	2	8
1059.3623046875	n/a	PROB	2169574	n/a	LTP363	ltpFR2	0	n/a	n/a	n/a	4	18	7	2	9
1061.44482421875	n/a	PROB	2173839	n/a	LTP363	ltpFR2	0	n/a	n/a	n/a	4	13	2	9	2
1063.41015625	n/a	PROB	2177864	n/a	LTP363	ltpFR2	0	n/a	n/a	n/a	4	15	4	5	6
1065.35888671875	n/a	PROB	2181855	n/a	LTP363	ltpFR2	0	n/a	n/a	n/a	4	21	9	7	5
1068.89892578125	n/a	STOP	2189105	n/a	LTP363	ltpFR2	0	n/a	n/a	n/a	4	n/a	n/a	n/a	n/a
1070.15673828125	n/a	WORD	2191681	wordpools/wasnorm_wordpool_576.txt	LTP363	ltpFR2	0	3	PLIERS	1089	n/a	n/a	0	0	0
1072.7734375	n/a	WORD	2197040	wordpools/wasnorm_wordpool_576.txt	LTP363	ltpFR2	0	3	LABEL	790	n/a	n/a	0	0	0
1075.4375	n/a	WORD	2202496	wordpools/wasnorm_wordpool_576.txt	LTP363	ltpFR2	0	3	FRANCE	601	n/a	n/a	0	0	0
1078.20361328125	n/a	WORD	2208161	wordpools/wasnorm_wordpool_576.txt	LTP363	ltpFR2	0	3	GHETTO	633	n/a	n/a	0	0	0
1081.00244140625	n/a	WORD	2213893	wordpools/wasnorm_wordpool_576.txt	LTP363	ltpFR2	0	3	ZEBRA	1635	n/a	n/a	0	0	0
1083.63427734375	n/a	WORD	2219283	wordpools/wasnorm_wordpool_576.txt	LTP363	ltpFR2	0	3	TREAT	1501	n/a	n/a	0	0	0
1086.1494140625	n/a	WORD	2224434	wordpools/wasnorm_wordpool_576.txt	LTP363	ltpFR2	0	3	VICTIM	1562	n/a	n/a	0	0	0
1088.9150390625	n/a	WORD	2230098	wordpools/wasnorm_wordpool_576.txt	LTP363	ltpFR2	0	3	STAPLE	1371	n/a	n/a	0	0	0
1091.47998046875	n/a	WORD	2235351	wordpools/wasnorm_wordpool_576.txt	LTP363	ltpFR2	0	3	VIKING	1565	n/a	n/a	0	0	0
1094.12890625	n/a	WORD	2240776	wordpools/wasnorm_wordpool_576.txt	LTP363	ltpFR2	0	3	SEAL	1262	n/a	n/a	0	0	0
1096.62890625	n/a	WORD	2245896	wordpools/wasnorm_wordpool_576.txt	LTP363	ltpFR2	0	3	BEAVER	109	n/a	n/a	0	0	0
1099.1259765625	n/a	WORD	2251010	wordpools/wasnorm_wordpool_576.txt	LTP363	ltpFR2	0	3	BROTHER	179	n/a	n/a	0	0	0
1101.65966796875	n/a	WORD	2256199	wordpools/wasnorm_wordpool_576.txt	LTP363	ltpFR2	0	3	EUROPE	541	n/a	n/a	0	0	0
1104.44091796875	n/a	WORD	2261895	wordpools/wasnorm_wordpool_576.txt	LTP363	ltpFR2	0	3	TOURIST	1488	n/a	n/a	0	0	0
1107.04052734375	n/a	WORD	2267219	wordpools/wasnorm_wordpool_576.txt	LTP363	ltpFR2	0	3	HATCHET	691	n/a	n/a	0	0	0
1109.75537109375	n/a	WORD	2272779	wordpools/wasnorm_wordpool_576.txt	LTP363	ltpFR2	0	3	BANK	83	n/a	n/a	0	0	0
1112.55322265625	n/a	WORD	2278509	wordpools/wasnorm_wordpool_576.txt	LTP363	ltpFR2	0	3	BANKER	84	n/a	n/a	0	0	0
1115.08544921875	n/a	WORD	2283695	wordpools/wasnorm_wordpool_576.txt	LTP363	ltpFR2	0	3	SLOPE	1328	n/a	n/a	0	0	0
1117.6513671875	n/a	WORD	2288950	wordpools/wasnorm_wordpool_576.txt	LTP363	ltpFR2	0	3	LODGE	839	n/a	n/a	0	0	0
1120.46630859375	n/a	WORD	2294715	wordpools/wasnorm_wordpool_576.txt	LTP363	ltpFR2	0	3	DIME	466	n/a	n/a	0	0	0
1123.1982421875	n/a	WORD	2300310	wordpools/wasnorm_wordpool_576.txt	LTP363	ltpFR2	0	3	THREAD	1460	n/a	n/a	0	0	0
1125.84814453125	n/a	WORD	2305737	wordpools/wasnorm_wordpool_576.txt	LTP363	ltpFR2	0	3	JUDGE	761	n/a	n/a	0	0	0
1128.51220703125	n/a	WORD	2311193	wordpools/wasnorm_wordpool_576.txt	LTP363	ltpFR2	0	3	TEACHER	1440	n/a	n/a	0	0	0
1131.31103515625	n/a	WORD	2316925	wordpools/wasnorm_wordpool_576.txt	LTP363	ltpFR2	0	3	GRIZZLY	662	n/a	n/a	0	0	0
1132.927734375	n/a	START	2320236	n/a	LTP363	ltpFR2	0	n/a	n/a	n/a	5	n/a	n/a	n/a	n/a
1134.10888671875	n/a	DISTRACTOR	2322655	n/a	LTP363	ltpFR2	0	3	n/a	n/a	n/a	n/a	0	0	0
1134.1259765625	n/a	PROB	2322690	n/a	LTP363	ltpFR2	0	n/a	n/a	n/a	5	10	6	3	1
1136.30859375	n/a	PROB	2327160	n/a	LTP363	ltpFR2	0	n/a	n/a	n/a	5	25	8	9	8
1140.6904296875	n/a	PROB	2336134	n/a	LTP363	ltpFR2	0	n/a	n/a	n/a	5	7	3	1	3
1142.32177734375	n/a	PROB	2339475	n/a	LTP363	ltpFR2	0	n/a	n/a	n/a	5	8	1	4	3
1144.33740234375	n/a	PROB	2343603	n/a	LTP363	ltpFR2	0	n/a	n/a	n/a	5	12	3	5	4
1146.62060546875	n/a	PROB	2348279	n/a	LTP363	ltpFR2	0	n/a	n/a	n/a	5	19	3	9	7
1148.83642578125	n/a	PROB	2352817	n/a	LTP363	ltpFR2	0	n/a	n/a	n/a	5	13	2	2	9
1150.63525390625	n/a	PROB	2356501	n/a	LTP363	ltpFR2	0	n/a	n/a	n/a	5	17	9	1	7
1152.38427734375	n/a	PROB	2360083	n/a	LTP363	ltpFR2	0	n/a	n/a	n/a	5	16	9	4	3
1154.3330078125	n/a	PROB	2364074	n/a	LTP363	ltpFR2	0	n/a	n/a	n/a	5	15	9	3	3
1156.787109375	n/a	STOP	2369100	n/a	LTP363	ltpFR2	0	n/a	n/a	n/a	5	n/a	n/a	n/a	n/a
1158.68212890625	n/a	REC_START	2372981	n/a	LTP363	ltpFR2	0	3	n/a	n/a	n/a	n/a	0	0	0
1159.423828125	n/a	REC_WORD	2374500	wordpools/wasnorm_wordpool_576.txt	LTP363	ltpFR2	0	3	JUDGE	761	n/a	n/a	0	0	0
1160.44287109375	n/a	REC_WORD	2376587	wordpools/wasnorm_wordpool_576.txt	LTP363	ltpFR2	0	3	GRIZZLY	662	n/a	n/a	0	0	0
1161.7099609375	n/a	REC_WORD	2379182	wordpools/wasnorm_wordpool_576.txt	LTP363	ltpFR2	0	3	BROTHER	179	n/a	n/a	0	0	0
1163.0048828125	n/a	REC_WORD	2381834	wordpools/wasnorm_wordpool_576.txt	LTP363	ltpFR2	0	3	BROTHER	179	n/a	n/a	0	0	0
1167.78173828125	n/a	REC_WORD	2391617	wordpools/wasnorm_wordpool_576.txt	LTP363	ltpFR2	0	3	SEAL	1262	n/a	n/a	0	0	0
1171.337890625	n/a	REC_WORD	2398900	wordpools/wasnorm_wordpool_576.txt	LTP363	ltpFR2	0	3	HATCHET	691	n/a	n/a	0	0	0
1173.2724609375	n/a	REC_WORD	2402862	wordpools/wasnorm_wordpool_576.txt	LTP363	ltpFR2	0	3	PATIENT	1024	n/a	n/a	0	0	0
1178.59228515625	n/a	REC_WORD	2413757	wordpools/wasnorm_wordpool_576.txt	LTP363	ltpFR2	0	3	SATCHEL	-1	n/a	n/a	0	0	0
1181.79345703125	n/a	REC_WORD	2420313	wordpools/wasnorm_wordpool_576.txt	LTP363	ltpFR2	0	3	SCALPEL	1243	n/a	n/a	0	0	0
1184.228515625	n/a	REC_WORD	2425300	wordpools/wasnorm_wordpool_576.txt	LTP363	ltpFR2	0	3	FRANCE	601	n/a	n/a	0	0	0
1185.18505859375	n/a	REC_WORD	2427259	wordpools/wasnorm_wordpool_576.txt	LTP363	ltpFR2	0	3	EUROPE	541	n/a	n/a	0	0	0
1186.21923828125	n/a	REC_WORD	2429377	wordpools/wasnorm_wordpool_576.txt	LTP363	ltpFR2	0	3	TOURIST	1488	n/a	n/a	0	0	0
1209.78955078125	n/a	REC_WORD	2477649	wordpools/wasnorm_wordpool_576.txt	LTP363	ltpFR2	0	3	POSTCARD	-1	n/a	n/a	0	0	0
1224.06103515625	n/a	REC_WORD	2506877	wordpools/wasnorm_wordpool_576.txt	LTP363	ltpFR2	0	3	THREAD	1460	n/a	n/a	0	0	0
1262.296875	n/a	DISTRACTOR	2585184	n/a	LTP363	ltpFR2	0	4	n/a	n/a	n/a	n/a	0	0	0
1262.2978515625	n/a	START	2585186	n/a	LTP363	ltpFR2	0	n/a	n/a	n/a	6	n/a	n/a	n/a	n/a
1262.31396484375	n/a	PROB	2585219	n/a	LTP363	ltpFR2	0	n/a	n/a	n/a	6	18	5	9	4
1265.5126953125	n/a	PROB	2591770	n/a	LTP363	ltpFR2	0	n/a	n/a	n/a	6	21	3	9	9
1268.3447265625	n/a	PROB	2597570	n/a	LTP363	ltpFR2	0	n/a	n/a	n/a	6	16	6	6	4
1271.57666015625	n/a	PROB	2604189	n/a	LTP363	ltpFR2	0	n/a	n/a	n/a	6	27	9	9	9
1275.79150390625	n/a	PROB	2612821	n/a	LTP363	ltpFR2	0	n/a	n/a	n/a	6	21	7	7	7
1278.2734375	n/a	PROB	2617904	n/a	LTP363	ltpFR2	0	n/a	n/a	n/a	6	13	6	4	3
1279.97314453125	n/a	PROB	2621385	n/a	LTP363	ltpFR2	0	n/a	n/a	n/a	6	16	5	9	2
1282.25439453125	n/a	PROB	2626057	n/a	LTP363	ltpFR2	0	n/a	n/a	n/a	6	9	1	7	1
1283.654296875	n/a	PROB	2628924	n/a	LTP363	ltpFR2	0	n/a	n/a	n/a	6	17	8	2	7
1285.4033203125	n/a	STOP	2632506	n/a	LTP363	ltpFR2	0	n/a	n/a	n/a	6	n/a	n/a	n/a	n/a
1287.501953125	n/a	WORD	2636804	wordpools/wasnorm_wordpool_576.txt	LTP363	ltpFR2	0	4	BUNNY	198	n/a	n/a	0	0	0
1290.21728515625	n/a	WORD	2642365	wordpools/wasnorm_wordpool_576.txt	LTP363	ltpFR2	0	4	SPHINX	1349	n/a	n/a	0	0	0
1292.966796875	n/a	WORD	2647996	wordpools/wasnorm_wordpool_576.txt	LTP363	ltpFR2	0	4	MARKET	871	n/a	n/a	0	0	0
1295.4150390625	n/a	WORD	2653010	wordpools/wasnorm_wordpool_576.txt	LTP363	ltpFR2	0	4	DENTIST	447	n/a	n/a	0	0	0
1298.19677734375	n/a	WORD	2658707	wordpools/wasnorm_wordpool_576.txt	LTP363	ltpFR2	0	4	NURSE	963	n/a	n/a	0	0	0
1300.86279296875	n/a	WORD	2664167	wordpools/wasnorm_wordpool_576.txt	LTP363	ltpFR2	0	4	TOASTER	1472	n/a	n/a	0	0	0
1303.54345703125	n/a	WORD	2669657	wordpools/wasnorm_wordpool_576.txt	LTP363	ltpFR2	0	4	UNCLE	1536	n/a	n/a	0	0	0
1306.109375	n/a	WORD	2674912	wordpools/wasnorm_wordpool_576.txt	LTP363	ltpFR2	0	4	SUNSET	1408	n/a	n/a	0	0	0
1308.59130859375	n/a	WORD	2679995	wordpools/wasnorm_wordpool_576.txt	LTP363	ltpFR2	0	4	INMATE	738	n/a	n/a	0	0	0
1311.12353515625	n/a	WORD	2685181	wordpools/wasnorm_wordpool_576.txt	LTP363	ltpFR2	0	4	BISON	131	n/a	n/a	0	0	0
1313.62353515625	n/a	WORD	2690301	wordpools/wasnorm_wordpool_576.txt	LTP363	ltpFR2	0	4	SPOUSE	1358	n/a	n/a	0	0	0
1316.4375	n/a	WORD	2696064	wordpools/wasnorm_wordpool_576.txt	LTP363	ltpFR2	0	4	PEACH	1031	n/a	n/a	0	0	0
1318.97119140625	n/a	WORD	2701253	wordpools/wasnorm_wordpool_576.txt	LTP363	ltpFR2	0	4	CITRUS	313	n/a	n/a	0	0	0
1321.7861328125	n/a	WORD	2707018	wordpools/wasnorm_wordpool_576.txt	LTP363	ltpFR2	0	4	PIANO	1057	n/a	n/a	0	0	0
1324.2841796875	n/a	WORD	2712134	wordpools/wasnorm_wordpool_576.txt	LTP363	ltpFR2	0	4	PLAZA	1088	n/a	n/a	0	0	0
1326.966796875	n/a	WORD	2717628	wordpools/wasnorm_wordpool_576.txt	LTP363	ltpFR2	0	4	ISLAND	745	n/a	n/a	0	0	0
1329.56494140625	n/a	WORD	2722949	wordpools/wasnorm_wordpool_576.txt	LTP363	ltpFR2	0	4	HAMPER	682	n/a	n/a	0	0	0
1332.16357421875	n/a	WORD	2728271	wordpools/wasnorm_wordpool_576.txt	LTP363	ltpFR2	0	4	DRILL	497	n/a	n/a	0	0	0
1334.8466796875	n/a	WORD	2733766	wordpools/wasnorm_wordpool_576.txt	LTP363	ltpFR2	0	4	SWORD	1423	n/a	n/a	0	0	0
1337.29443359375	n/a	WORD	2738779	wordpools/wasnorm_wordpool_576.txt	LTP363	ltpFR2	0	4	EYELASH	546	n/a	n/a	0	0	0
1339.810546875	n/a	WORD	2743932	wordpools/wasnorm_wordpool_576.txt	LTP363	ltpFR2	0	4	NOMAD	955	n/a	n/a	0	0	0
1342.3916015625	n/a	WORD	2749218	wordpools/wasnorm_wordpool_576.txt	LTP363	ltpFR2	0	4	TRIBE	1505	n/a	n/a	0	0	0
1345.1572265625	n/a	WORD	2754882	wordpools/wasnorm_wordpool_576.txt	LTP363	ltpFR2	0	4	DRAGON	492	n/a	n/a	0	0	0
1347.6572265625	n/a	WORD	2760002	wordpools/wasnorm_wordpool_576.txt	LTP363	ltpFR2	0	4	EGYPT	519	n/a	n/a	0	0	0
1349.2724609375	n/a	START	2763310	n/a	LTP363	ltpFR2	0	n/a	n/a	n/a	7	n/a	n/a	n/a	n/a
1350.232421875	n/a	DISTRACTOR	2765276	n/a	LTP363	ltpFR2	0	4	n/a	n/a	n/a	n/a	0	0	0
1350.23828125	n/a	PROB	2765288	n/a	LTP363	ltpFR2	0	n/a	n/a	n/a	7	15	3	9	3
1352.60302734375	n/a	PROB	2770131	n/a	LTP363	ltpFR2	0	n/a	n/a	n/a	7	16	7	2	7
1354.953125	n/a	PROB	2774944	n/a	LTP363	ltpFR2	0	n/a	n/a	n/a	7	17	1	7	9
1356.98583984375	n/a	PROB	2779107	n/a	LTP363	ltpFR2	0	n/a	n/a	n/a	7	5	3	1	1
1359.2998046875	n/a	PROB	2783846	n/a	LTP363	ltpFR2	0	n/a	n/a	n/a	7	12	4	1	7
1361.0830078125	n/a	PROB	2787498	n/a	LTP363	ltpFR2	0	n/a	n/a	n/a	7	17	6	2	9
1363.1650390625	n/a	PROB	2791762	n/a	LTP363	ltpFR2	0	n/a	n/a	n/a	7	15	7	3	5
1364.81591796875	n/a	PROB	2795143	n/a	LTP363	ltpFR2	0	n/a	n/a	n/a	7	12	2	4	6
1367.4794921875	n/a	PROB	2800598	n/a	LTP363	ltpFR2	0	n/a	n/a	n/a	7	9	2	6	1
1369.11279296875	n/a	PROB	2803943	n/a	LTP363	ltpFR2	0	n/a	n/a	n/a	7	9	3	3	3
1370.4287109375	n/a	PROB	2806638	n/a	LTP363	ltpFR2	0	n/a	n/a	n/a	7	7	1	5	1
1372.3583984375	n/a	STOP	2810590	n/a	LTP363	ltpFR2	0	n/a	n/a	n/a	7	n/a	n/a	n/a	n/a
1375.02734375	n/a	REC_START	2816056	n/a	LTP363	ltpFR2	0	4	n/a	n/a	n/a	n/a	0	0	0
1375.92333984375	n/a	REC_WORD	2817891	wordpools/wasnorm_wordpool_576.txt	LTP363	ltpFR2	0	4	SPHINX	1349	n/a	n/a	0	0	0
1377.1845703125	n/a	REC_WORD	2820474	wordpools/wasnorm_wordpool_576.txt	LTP363	ltpFR2	0	4	EGYPT	519	n/a	n/a	0	0	0
1378.4873046875	n/a	REC_WORD	2823142	wordpools/wasnorm_wordpool_576.txt	LTP363	ltpFR2	0	4	HAMPER	682	n/a	n/a	0	0	0
1379.8701171875	n/a	REC_WORD	2825974	wordpools/wasnorm_wordpool_576.txt	LTP363	ltpFR2	0	4	DRILL	497	n/a	n/a	0	0	0
1382.41650390625	n/a	REC_WORD	2831189	wordpools/wasnorm_wordpool_576.txt	LTP363	ltpFR2	0	4	SWORD	1423	n/a	n/a	0	0	0
1390.2021484375	n/a	REC_WORD	2847134	wordpools/wasnorm_wordpool_576.txt	LTP363	ltpFR2	0	4	ISLAND	745	n/a	n/a	0	0	0
1394.0947265625	n/a	REC_WORD	2855106	wordpools/wasnorm_wordpool_576.txt	LTP363	ltpFR2	0	4	PEACH	1031	n/a	n/a	0	0	0
1394.73193359375	n/a	REC_WORD	2856411	wordpools/wasnorm_wordpool_576.txt	LTP363	ltpFR2	0	4	CITRUS	313	n/a	n/a	0	0	0
1397.7626953125	n/a	REC_WORD	2862618	wordpools/wasnorm_wordpool_576.txt	LTP363	ltpFR2	0	4	TOASTER	1472	n/a	n/a	0	0	0
1399.478515625	n/a	REC_WORD	2866132	wordpools/wasnorm_wordpool_576.txt	LTP363	ltpFR2	0	4	BISON	131	n/a	n/a	0	0	0
1410.62646484375	n/a	REC_WORD	2888963	wordpools/wasnorm_wordpool_576.txt	LTP363	ltpFR2	0	4	DRAGON	492	n/a	n/a	0	0	0
1411.9482421875	n/a	REC_WORD	2891670	wordpools/wasnorm_wordpool_576.txt	LTP363	ltpFR2	0	4	NOMAD	955	n/a	n/a	0	0	0
1483.17431640625	n/a	WORD	3037541	wordpools/wasnorm_wordpool_576.txt	LTP363	ltpFR2	0	5	CHEST	295	n/a	n/a	0	0	0
1485.8232421875	n/a	WORD	3042966	wordpools/wasnorm_wordpool_576.txt	LTP363	ltpFR2	0	5	APPLE	33	n/a	n/a	0	0	0
1488.455078125	n/a	WORD	3048356	wordpools/wasnorm_wordpool_576.txt	LTP363	ltpFR2	0	5	PILOT	1070	n/a	n/a	0	0	0
1491.23681640625	n/a	WORD	3054053	wordpools/wasnorm_wordpool_576.txt	LTP363	ltpFR2	0	5	SPOOL	1356	n/a	n/a	0	0	0
1493.81982421875	n/a	WORD	3059343	wordpools/wasnorm_wordpool_576.txt	LTP363	ltpFR2	0	5	PASSAGE	1019	n/a	n/a	0	0	0
1496.517578125	n/a	WORD	3064868	wordpools/wasnorm_wordpool_576.txt	LTP363	ltpFR2	0	5	TURKEY	1520	n/a	n/a	0	0	0
1498.966796875	n/a	WORD	3069884	wordpools/wasnorm_wordpool_576.txt	LTP363	ltpFR2	0	5	STAR	1373	n/a	n/a	0	0	0
1501.6494140625	n/a	WORD	3075378	wordpools/wasnorm_wordpool_576.txt	LTP363	ltpFR2	0	5	HORNET	718	n/a	n/a	0	0	0
1504.38037109375	n/a	WORD	3080971	wordpools/wasnorm_wordpool_576.txt	LTP363	ltpFR2	0	5	MARS	873	n/a	n/a	0	0	0
1507.013671875	n/a	WORD	3086364	wordpools/wasnorm_wordpool_576.txt	LTP363	ltpFR2	0	5	PLUTO	1092	n/a	n/a	0	0	0
1509.46142578125	n/a	WORD	3091377	wordpools/wasnorm_wordpool_576.txt	LTP363	ltpFR2	0	5	BREAST	171	n/a	n/a	0	0	0
1512.2431640625	n/a	WORD	3097074	wordpools/wasnorm_wordpool_576.txt	LTP363	ltpFR2	0	5	TURNIP	1521	n/a	n/a	0	0	0
1514.92626953125	n/a	WORD	3102569	wordpools/wasnorm_wordpool_576.txt	LTP363	ltpFR2	0	5	AUTHOR	61	n/a	n/a	0	0	0
1517.7412109375	n/a	WORD	3108334	wordpools/wasnorm_wordpool_576.txt	LTP363	ltpFR2	0	5	MAPLE	866	n/a	n/a	0	0	0
1520.30615234375	n/a	WORD	3113587	wordpools/wasnorm_wordpool_576.txt	LTP363	ltpFR2	0	5	TURTLE	1522	n/a	n/a	0	0	0
1523.0390625	n/a	WORD	3119184	wordpools/wasnorm_wordpool_576.txt	LTP363	ltpFR2	0	5	CLAM	315	n/a	n/a	0	0	0
1525.48681640625	n/a	WORD	3124197	wordpools/wasnorm_wordpool_576.txt	LTP363	ltpFR2	0	5	PLATE	1086	n/a	n/a	0	0	0
1527.919921875	n/a	WORD	3129180	wordpools/wasnorm_wordpool_576.txt	LTP363	ltpFR2	0	5	COMET	353	n/a	n/a	0	0	0
1530.73486328125	n/a	WORD	3134945	wordpools/wasnorm_wordpool_576.txt	LTP363	ltpFR2	0	5	ICING	732	n/a	n/a	0	0	0
1533.49951171875	n/a	WORD	3140607	wordpools/wasnorm_wordpool_576.txt	LTP363	ltpFR2	0	5	FARMER	553	n/a	n/a	0	0	0
1536.015625	n/a	WORD	3145760	wordpools/wasnorm_wordpool_576.txt	LTP363	ltpFR2	0	5	TRUCK	1512	n/a	n/a	0	0	0
1538.74755859375	n/a	WORD	3151355	wordpools/wasnorm_wordpool_576.txt	LTP363	ltpFR2	0	5	GUARD	667	n/a	n/a	0	0	0
1541.41259765625	n/a	WORD	3156813	wordpools/wasnorm_wordpool_576.txt	LTP363	ltpFR2	0	5	COLONEL	348	n/a	n/a	0	0	0
1544.2275390625	n/a	WORD	3162578	wordpools/wasnorm_wordpool_576.txt	LTP363	ltpFR2	0	5	FRAGRANCE	599	n/a	n/a	0	0	0
1545.84423828125	n/a	START	3165889	n/a	LTP363	ltpFR2	0	n/a	n/a	n/a	8	n/a	n/a	n/a	n/a
1546.85009765625	n/a	DISTRACTOR	3167949	n/a	LTP363	ltpFR2	0	5	n/a	n/a	n/a	n/a	0	0	0
1546.8603515625	n/a	PROB	3167970	n/a	LTP363	ltpFR2	0	n/a	n/a	n/a	8	21	5	9	7
1549.4580078125	n/a	PROB	3173290	n/a	LTP363	ltpFR2	0	n/a	n/a	n/a	8	8	2	4	2
1552.3740234375	n/a	PROB	3179262	n/a	LTP363	ltpFR2	0	n/a	n/a	n/a	8	21	9	5	7
1555.322265625	n/a	PROB	3185300	n/a	LTP363	ltpFR2	0	n/a	n/a	n/a	8	14	1	8	5
1557.337890625	n/a	PROB	3189428	n/a	LTP363	ltpFR2	0	n/a	n/a	n/a	8	19	7	5	7
1560.53662109375	n/a	PROB	3195979	n/a	LTP363	ltpFR2	0	n/a	n/a	n/a	8	21	7	8	6
1562.7197265625	n/a	PROB	3200450	n/a	LTP363	ltpFR2	0	n/a	n/a	n/a	8	18	1	8	9
1564.48486328125	n/a	PROB	3204065	n/a	LTP363	ltpFR2	0	n/a	n/a	n/a	8	16	5	2	9
1566.83447265625	n/a	PROB	3208877	n/a	LTP363	ltpFR2	0	n/a	n/a	n/a	8	13	4	1	8
1569.37744140625	n/a	STOP	3214085	n/a	LTP363	ltpFR2	0	n/a	n/a	n/a	8	n/a	n/a	n/a	n/a
1571.74951171875	n/a	REC_START	3218943	n/a	LTP363	ltpFR2	0	5	n/a	n/a	n/a	n/a	0	0	0
1572.6845703125	n/a	REC_WORD	3220858	wordpools/wasnorm_wordpool_576.txt	LTP363	ltpFR2	0	5	COLONEL	348	n/a	n/a	0	0	0
1574.064453125	n/a	REC_WORD	3223684	wordpools/wasnorm_wordpool_576.txt	LTP363	ltpFR2	0	5	PILOT	1070	n/a	n/a	0	0	0
1575.400390625	n/a	REC_WORD	3226420	wordpools/wasnorm_wordpool_576.txt	LTP363	ltpFR2	0	5	GUARD	667	n/a	n/a	0	0	0
1577.10546875	n/a	REC_WORD	3229912	wordpools/wasnorm_wordpool_576.txt	LTP363	ltpFR2	0	5	PLATE	1086	n/a	n/a	0	0	0
1578.53515625	n/a	REC_WORD	3232840	wordpools/wasnorm_wordpool_576.txt	LTP363	ltpFR2	0	5	TRUCK	1512	n/a	n/a	0	0	0
1580.10546875	n/a	REC_WORD	3236056	wordpools/wasnorm_wordpool_576.txt	LTP363	ltpFR2	0	5	FARMER	553	n/a	n/a	0	0	0
1581.50244140625	n/a	REC_WORD	3238917	wordpools/wasnorm_wordpool_576.txt	LTP363	ltpFR2	0	5	TURKEY	1520	n/a	n/a	0	0	0
1583.01513671875	n/a	REC_WORD	3242015	wordpools/wasnorm_wordpool_576.txt	LTP363	ltpFR2	0	5	PARSNIP	-1	n/a	n/a	0	0	0
1586.86083984375	n/a	REC_WORD	3249891	wordpools/wasnorm_wordpool_576.txt	LTP363	ltpFR2	0	5	TURTLE	1522	n/a	n/a	0	0	0
1588.083984375	n/a	REC_WORD	3252396	wordpools/wasnorm_wordpool_576.txt	LTP363	ltpFR2	0	5	CLAM	315	n/a	n/a	0	0	0
1590.73388671875	n/a	REC_WORD	3257823	wordpools/wasnorm_wordpool_576.txt	LTP363	ltpFR2	0	5	MAPLE	866	n/a	n/a	0	0	0
1597.98388671875	n/a	REC_WORD	3272671	wordpools/wasnorm_wordpool_576.txt	LTP363	ltpFR2	0	5	PILOT	1070	n/a	n/a	0	0	0
1602.19873046875	n/a	REC_WORD	3281303	wordpools/wasnorm_wordpool_576.txt	LTP363	ltpFR2	0	5	COMET	353	n/a	n/a	0	0	0
1603.63671875	n/a	REC_WORD	3284248	wordpools/wasnorm_wordpool_576.txt	LTP363	ltpFR2	0	5	MARS	873	n/a	n/a	0	0	0
1604.92138671875	n/a	REC_WORD	3286879	wordpools/wasnorm_wordpool_576.txt	LTP363	ltpFR2	0	5	PLUTO	1092	n/a	n/a	0	0	0
1685.91015625	n/a	WORD	3452744	wordpools/wasnorm_wordpool_576.txt	LTP363	ltpFR2	0	6	RIVER	1194	n/a	n/a	0	0	0
1688.57421875	n/a	WORD	3458200	wordpools/wasnorm_wordpool_576.txt	LTP363	ltpFR2	0	6	XEROX	1628	n/a	n/a	0	0	0
1691.35693359375	n/a	WORD	3463899	wordpools/wasnorm_wordpool_576.txt	LTP363	ltpFR2	0	6	ICEBERG	731	n/a	n/a	0	0	0
1693.85595703125	n/a	WORD	3469017	wordpools/wasnorm_wordpool_576.txt	LTP363	ltpFR2	0	6	PUPIL	1143	n/a	n/a	0	0	0
1696.4375	n/a	WORD	3474304	wordpools/wasnorm_wordpool_576.txt	LTP363	ltpFR2	0	6	CANAL	226	n/a	n/a	0	0	0
1699.11962890625	n/a	WORD	3479797	wordpools/wasnorm_wordpool_576.txt	LTP363	ltpFR2	0	6	BEEF	113	n/a	n/a	0	0	0
1701.71875	n/a	WORD	3485120	wordpools/wasnorm_wordpool_576.txt	LTP363	ltpFR2	0	6	BUTCHER	203	n/a	n/a	0	0	0
1704.20068359375	n/a	WORD	3490203	wordpools/wasnorm_wordpool_576.txt	LTP363	ltpFR2	0	6	NIGHTGOWN	953	n/a	n/a	0	0	0
1706.93359375	n/a	WORD	3495800	wordpools/wasnorm_wordpool_576.txt	LTP363	ltpFR2	0	6	CHILD	299	n/a	n/a	0	0	0
1709.54736328125	n/a	WORD	3501153	wordpools/wasnorm_wordpool_576.txt	LTP363	ltpFR2	0	6	ITEM	746	n/a	n/a	0	0	0
1712.0634765625	n/a	WORD	3506306	wordpools/wasnorm_wordpool_576.txt	LTP363	ltpFR2	0	6	STREAM	1392	n/a	n/a	0	0	0
1714.5283203125	n/a	WORD	3511354	wordpools/wasnorm_wordpool_576.txt	LTP363	ltpFR2	0	6	CANDY	230	n/a	n/a	0	0	0
1717.3271484375	n/a	WORD	3517086	wordpools/wasnorm_wordpool_576.txt	LTP363	ltpFR2	0	6	WOMAN	1620	n/a	n/a	0	0	0
1720.09326171875	n/a	WORD	3522751	wordpools/wasnorm_wordpool_576.txt	LTP363	ltpFR2	0	6	WRIST	1626	n/a	n/a	0	0	0
1722.7587890625	n/a	WORD	3528210	wordpools/wasnorm_wordpool_576.txt	LTP363	ltpFR2	0	6	HORSE	719	n/a	n/a	0	0	0
1725.5400390625	n/a	WORD	3533906	wordpools/wasnorm_wordpool_576.txt	LTP363	ltpFR2	0	6	OX	994	n/a	n/a	0	0	0
1728.18896484375	n/a	WORD	3539331	wordpools/wasnorm_wordpool_576.txt	LTP363	ltpFR2	0	6	COBRA	336	n/a	n/a	0	0	0
1730.888671875	n/a	WORD	3544860	wordpools/wasnorm_wordpool_576.txt	LTP363	ltpFR2	0	6	LEG	809	n/a	n/a	0	0	0
1733.3525390625	n/a	WORD	3549906	wordpools/wasnorm_wordpool_576.txt	LTP363	ltpFR2	0	6	LASER	801	n/a	n/a	0	0	0
1736.052734375	n/a	WORD	3555436	wordpools/wasnorm_wordpool_576.txt	LTP363	ltpFR2	0	6	STUDENT	1395	n/a	n/a	0	0	0
1738.83447265625	n/a	WORD	3561133	wordpools/wasnorm_wordpool_576.txt	LTP363	ltpFR2	0	6	CRAYON	401	n/a	n/a	0	0	0
1741.3154296875	n/a	WORD	3566214	wordpools/wasnorm_wordpool_576.txt	LTP363	ltpFR2	0	6	FLESH	579	n/a	n/a	0	0	0
1743.7822265625	n/a	WORD	3571266	wordpools/wasnorm_wordpool_576.txt	LTP363	ltpFR2	0	6	MISTER	901	n/a	n/a	0	0	0
1746.330078125	n/a	WORD	3576484	wordpools/wasnorm_wordpool_576.txt	LTP363	ltpFR2	0	6	SHIRT	1287	n/a	n/a	0	0	0
1747.947265625	n/a	START	3579796	n/a	LTP363	ltpFR2	0	n/a	n/a	n/a	9	n/a	n/a	n/a	n/a
1748.92529296875	n/a	DISTRACTOR	3581799	n/a	LTP363	ltpFR2	0	6	n/a	n/a	n/a	n/a	0	0	0
1748.9462890625	n/a	PROB	3581842	n/a	LTP363	ltpFR2	0	n/a	n/a	n/a	9	11	6	3	2
1751.76123046875	n/a	PROB	3587607	n/a	LTP363	ltpFR2	0	n/a	n/a	n/a	9	11	1	6	4
1753.85986328125	n/a	PROB	3591905	n/a	LTP363	ltpFR2	0	n/a	n/a	n/a	9	10	2	6	2
1755.79296875	n/a	PROB	3595864	n/a	LTP363	ltpFR2	0	n/a	n/a	n/a	9	13	7	4	2
1759.0419921875	n/a	PROB	3602518	n/a	LTP363	ltpFR2	0	n/a	n/a	n/a	9	15	6	8	1
1761.3388671875	n/a	PROB	3607222	n/a	LTP363	ltpFR2	0	n/a	n/a	n/a	9	13	4	6	3
1763.005859375	n/a	PROB	3610636	n/a	LTP363	ltpFR2	0	n/a	n/a	n/a	9	10	5	3	2
1765.021484375	n/a	PROB	3614764	n/a	LTP363	ltpFR2	0	n/a	n/a	n/a	9	15	3	3	9
1768.26953125	n/a	PROB	3621416	n/a	LTP363	ltpFR2	0	n/a	n/a	n/a	9	16	5	8	3
1771.9462890625	n/a	STOP	3628946	n/a	LTP363	ltpFR2	0	n/a	n/a	n/a	9	n/a	n/a	n/a	n/a
1773.818359375	n/a	REC_START	3632780	n/a	LTP363	ltpFR2	0	6	n/a	n/a	n/a	n/a	0	0	0
1774.59814453125	n/a	REC_WORD	3634377	wordpools/wasnorm_wordpool_576.txt	LTP363	ltpFR2	0	6	STUDENT	1395	n/a	n/a	0	0	0
1775.77734375	n/a	REC_WORD	3636792	wordpools/wasnorm_wordpool_576.txt	LTP363	ltpFR2	0	6	PUPIL	1143	n/a	n/a	0	0	0
1776.92724609375	n/a	REC_WORD	3639147	wordpools/wasnorm_wordpool_576.txt	LTP363	ltpFR2	0	6	CRAYON	401	n/a	n/a	0	0	0
1779.71435546875	n/a	REC_WORD	3644855	wordpools/wasnorm_wordpool_576.txt	LTP363	ltpFR2	0	6	SHIRT	1287	n/a	n/a	0	0	0
1783.93798828125	n/a	REC_WORD	3653505	wordpools/wasnorm_wordpool_576.txt	LTP363	ltpFR2	0	6	COBRA	336	n/a	n/a	0	0	0
1787.212890625	n/a	REC_WORD	3660212	wordpools/wasnorm_wordpool_576.txt	LTP363	ltpFR2	0	6	HORSE	719	n/a	n/a	0	0	0
1788.09619140625	n/a	REC_WORD	3662021	wordpools/wasnorm_wordpool_576.txt	LTP363	ltpFR2	0	6	OX	994	n/a	n/a	0	0	0
1790.20166015625	n/a	REC_WORD	3666333	wordpools/wasnorm_wordpool_576.txt	LTP363	ltpFR2	0	6	WOMAN	1620	n/a	n/a	0	0	0
1792.77978515625	n/a	REC_WORD	3671613	wordpools/wasnorm_wordpool_576.txt	LTP363	ltpFR2	0	6	CHILD	299	n/a	n/a	0	0	0
1794.70654296875	n/a	REC_WORD	3675559	wordpools/wasnorm_wordpool_576.txt	LTP363	ltpFR2	0	6	NIGHTGOWN	953	n/a	n/a	0	0	0
1796.4228515625	n/a	REC_WORD	3679074	wordpools/wasnorm_wordpool_576.txt	LTP363	ltpFR2	0	6	WRIST	1626	n/a	n/a	0	0	0
1799.78173828125	n/a	REC_WORD	3685953	wordpools/wasnorm_wordpool_576.txt	LTP363	ltpFR2	0	6	LEG	809	n/a	n/a	0	0	0
1804.03759765625	n/a	REC_WORD	3694669	wordpools/wasnorm_wordpool_576.txt	LTP363	ltpFR2	0	6	CANAL	226	n/a	n/a	0	0	0
1805.03955078125	n/a	REC_WORD	3696721	wordpools/wasnorm_wordpool_576.txt	LTP363	ltpFR2	0	6	STREAM	1392	n/a	n/a	0	0	0
1806.28955078125	n/a	REC_WORD	3699281	wordpools/wasnorm_wordpool_576.txt	LTP363	ltpFR2	0	6	RIVER	1194	n/a	n/a	0	0	0
1809.1083984375	n/a	REC_WORD	3705054	wordpools/wasnorm_wordpool_576.txt	LTP363	ltpFR2	0	6	FLESH	579	n/a	n/a	0	0	0
1810.6123046875	n/a	REC_WORD	3708134	wordpools/wasnorm_wordpool_576.txt	LTP363	ltpFR2	0	6	ICEBERG	731	n/a	n/a	0	0	0
1875.26708984375	n/a	DISTRACTOR	3840547	n/a	LTP363	ltpFR2	0	7	n/a	n/a	n/a	n/a	0	0	0
1875.26708984375	n/a	START	3840547	n/a	LTP363	ltpFR2	0	n/a	n/a	n/a	10	n/a	n/a	n/a	n/a
1875.2841796875	n/a	PROB	3840582	n/a	LTP363	ltpFR2	0	n/a	n/a	n/a	10	18	6	7	5
1879.365234375	n/a	PROB	3848940	n/a	LTP363	ltpFR2	0	n/a	n/a	n/a	10	15	6	3	6
1880.93212890625	n/a	PROB	3852149	n/a	LTP363	ltpFR2	0	n/a	n/a	n/a	10	17	1	7	9
1882.6650390625	n/a	PROB	3855698	n/a	LTP363	ltpFR2	0	n/a	n/a	n/a	10	14	8	1	5
1884.22998046875	n/a	PROB	3858903	n/a	LTP363	ltpFR2	0	n/a	n/a	n/a	10	18	6	7	5
1886.69580078125	n/a	PROB	3863953	n/a	LTP363	ltpFR2	0	n/a	n/a	n/a	10	16	8	7	1
1888.4111328125	n/a	PROB	3867466	n/a	LTP363	ltpFR2	0	n/a	n/a	n/a	10	19	4	9	6
1891.0927734375	n/a	PROB	3872958	n/a	LTP363	ltpFR2	0	n/a	n/a	n/a	10	15	8	3	4
1893.375	n/a	PROB	3877632	n/a	LTP363	ltpFR2	0	n/a	n/a	n/a	10	9	1	1	7
1894.70849609375	n/a	PROB	3880363	n/a	LTP363	ltpFR2	0	n/a	n/a	n/a	10	16	5	5	6
1896.2578125	n/a	PROB	3883536	n/a	LTP363	ltpFR2	0	n/a	n/a	n/a	10	13	4	3	6
1898.08984375	n/a	STOP	3887288	n/a	LTP363	ltpFR2	0	n/a	n/a	n/a	10	n/a	n/a	n/a	n/a
1900.2216796875	n/a	WORD	3891654	wordpools/wasnorm_wordpool_576.txt	LTP363	ltpFR2	0	7	MASK	876	n/a	n/a	0	0	0
1902.75537109375	n/a	WORD	3896843	wordpools/wasnorm_wordpool_576.txt	LTP363	ltpFR2	0	7	HEADBAND	696	n/a	n/a	0	0	0
1905.50244140625	n/a	WORD	3902469	wordpools/wasnorm_wordpool_576.txt	LTP363	ltpFR2	0	7	PASTRY	1022	n/a	n/a	0	0	0
1908.25146484375	n/a	WORD	3908099	wordpools/wasnorm_wordpool_576.txt	LTP363	ltpFR2	0	7	GRAPE	654	n/a	n/a	0	0	0
1910.701171875	n/a	WORD	3913116	wordpools/wasnorm_wordpool_576.txt	LTP363	ltpFR2	0	7	BROOK	177	n/a	n/a	0	0	0
1913.26611328125	n/a	WORD	3918369	wordpools/wasnorm_wordpool_576.txt	LTP363	ltpFR2	0	7	SEAFOOD	1260	n/a	n/a	0	0	0
1915.71484375	n/a	WORD	3923384	wordpools/wasnorm_wordpool_576.txt	LTP363	ltpFR2	0	7	CORAL	378	n/a	n/a	0	0	0
1918.3798828125	n/a	WORD	3928842	wordpools/wasnorm_wordpool_576.txt	LTP363	ltpFR2	0	7	PORTRAIT	1111	n/a	n/a	0	0	0
1920.962890625	n/a	WORD	3934132	wordpools/wasnorm_wordpool_576.txt	LTP363	ltpFR2	0	7	KETCHUP	771	n/a	n/a	0	0	0
1923.64501953125	n/a	WORD	3939625	wordpools/wasnorm_wordpool_576.txt	LTP363	ltpFR2	0	7	PICNIC	1060	n/a	n/a	0	0	0
1926.44287109375	n/a	WORD	3945355	wordpools/wasnorm_wordpool_576.txt	LTP363	ltpFR2	0	7	SUBWAY	1400	n/a	n/a	0	0	0
1929.0087890625	n/a	WORD	3950610	wordpools/wasnorm_wordpool_576.txt	LTP363	ltpFR2	0	7	TROUT	1511	n/a	n/a	0	0	0
1931.54052734375	n/a	WORD	3955795	wordpools/wasnorm_wordpool_576.txt	LTP363	ltpFR2	0	7	CLOTHES	327	n/a	n/a	0	0	0
1933.9736328125	n/a	WORD	3960778	wordpools/wasnorm_wordpool_576.txt	LTP363	ltpFR2	0	7	OUTFIT	988	n/a	n/a	0	0	0
1936.72265625	n/a	WORD	3966408	wordpools/wasnorm_wordpool_576.txt	LTP363	ltpFR2	0	7	SCALLOP	1242	n/a	n/a	0	0	0
1939.46923828125	n/a	WORD	3972033	wordpools/wasnorm_wordpool_576.txt	LTP363	ltpFR2	0	7	WIDOW	1608	n/a	n/a	0	0	0
1942.13525390625	n/a	WORD	3977493	wordpools/wasnorm_wordpool_576.txt	LTP363	ltpFR2	0	7	RUG	1215	n/a	n/a	0	0	0
1944.71826171875	n/a	WORD	3982783	wordpools/wasnorm_wordpool_576.txt	LTP363	ltpFR2	0	7	MOP	916	n/a	n/a	0	0	0
1947.44921875	n/a	WORD	3988376	wordpools/wasnorm_wordpool_576.txt	LTP363	ltpFR2	0	7	NOTEBOOK	959	n/a	n/a	0	0	0
1950.26416015625	n/a	WORD	3994141	wordpools/wasnorm_wordpool_576.txt	LTP363	ltpFR2	0	7	TRENCH	1503	n/a	n/a	0	0	0
1952.89794921875	n/a	WORD	3999535	wordpools/wasnorm_wordpool_576.txt	LTP363	ltpFR2	0	7	LAGOON	795	n/a	n/a	0	0	0
1955.3447265625	n/a	WORD	4004546	wordpools/wasnorm_wordpool_576.txt	LTP363	ltpFR2	0	7	LADY	794	n/a	n/a	0	0	0
1958.01171875	n/a	WORD	4010008	wordpools/wasnorm_wordpool_576.txt	LTP363	ltpFR2	0	7	YARN	1631	n/a	n/a	0	0	0
1960.59375	n/a	WORD	4015296	wordpools/wasnorm_wordpool_576.txt	LTP363	ltpFR2	0	7	HUMAN	726	n/a	n/a	0	0	0
1962.20849609375	n/a	START	4018603	n/a	LTP363	ltpFR2	0	n/a	n/a	n/a	11	n/a	n/a	n/a	n/a
1963.3125	n/a	DISTRACTOR	4020864	n/a	LTP363	ltpFR2	0	7	n/a	n/a	n/a	n/a	0	0	0
1963.32470703125	n/a	PROB	4020889	n/a	LTP363	ltpFR2	0	n/a	n/a	n/a	11	11	2	7	2
1965.6416015625	n/a	PROB	4025634	n/a	LTP363	ltpFR2	0	n/a	n/a	n/a	11	20	4	8	8
1969.17138671875	n/a	PROB	4032863	n/a	LTP363	ltpFR2	0	n/a	n/a	n/a	11	20	6	8	6
1971.8212890625	n/a	PROB	4038290	n/a	LTP363	ltpFR2	0	n/a	n/a	n/a	11	15	3	7	5
1973.6201171875	n/a	PROB	4041974	n/a	LTP363	ltpFR2	0	n/a	n/a	n/a	11	13	5	1	7
1975.68603515625	n/a	PROB	4046205	n/a	LTP363	ltpFR2	0	n/a	n/a	n/a	11	11	1	7	3
1977.65234375	n/a	PROB	4050232	n/a	LTP363	ltpFR2	0	n/a	n/a	n/a	11	16	5	2	9
1980.23291015625	n/a	PROB	4055517	n/a	LTP363	ltpFR2	0	n/a	n/a	n/a	11	12	5	6	1
1982.01708984375	n/a	PROB	4059171	n/a	LTP363	ltpFR2	0	n/a	n/a	n/a	11	20	5	6	9
1986.2080078125	n/a	STOP	4067754	n/a	LTP363	ltpFR2	0	n/a	n/a	n/a	11	n/a	n/a	n/a	n/a
1988.0966796875	n/a	REC_START	4071622	n/a	LTP363	ltpFR2	0	7	n/a	n/a	n/a	n/a	0	0	0
1989.216796875	n/a	REC_WORD	4073916	wordpools/wasnorm_wordpool_576.txt	LTP363	ltpFR2	0	7	LAGOON	795	n/a	n/a	0	0	0
1990.61865234375	n/a	REC_WORD	4076787	wordpools/wasnorm_wordpool_576.txt	LTP363	ltpFR2	0	7	TRENCH	1503	n/a	n/a	0	0	0
1994.2265625	n/a	REC_WORD	4084176	wordpools/wasnorm_wordpool_576.txt	LTP363	ltpFR2	0	7	WOMAN	1620	n/a	n/a	0	0	0
1995.37451171875	n/a	REC_WORD	4086527	wordpools/wasnorm_wordpool_576.txt	LTP363	ltpFR2	0	7	LADY	794	n/a	n/a	0	0	0
1996.9384765625	n/a	REC_WORD	4089730	wordpools/wasnorm_wordpool_576.txt	LTP363	ltpFR2	0	7	YARN	1631	n/a	n/a	0	0	0
1998.2216796875	n/a	REC_WORD	4092358	wordpools/wasnorm_wordpool_576.txt	LTP363	ltpFR2	0	7	NOTEBOOK	959	n/a	n/a	0	0	0
2002.11962890625	n/a	REC_WORD	4100341	wordpools/wasnorm_wordpool_576.txt	LTP363	ltpFR2	0	7	KETCHUP	771	n/a	n/a	0	0	0
2003.390625	n/a	REC_WORD	4102944	wordpools/wasnorm_wordpool_576.txt	LTP363	ltpFR2	0	7	PICNIC	1060	n/a	n/a	0	0	0
2005.00537109375	n/a	REC_WORD	4106251	wordpools/wasnorm_wordpool_576.txt	LTP363	ltpFR2	0	7	SEAFOOD	1260	n/a	n/a	0	0	0
2006.3603515625	n/a	REC_WORD	4109026	wordpools/wasnorm_wordpool_576.txt	LTP363	ltpFR2	0	7	SCALLOP	1242	n/a	n/a	0	0	0
2007.97314453125	n/a	REC_WORD	4112329	wordpools/wasnorm_wordpool_576.txt	LTP363	ltpFR2	0	7	TROUT	1511	n/a	n/a	0	0	0
2009.59326171875	n/a	REC_WORD	4115647	wordpools/wasnorm_wordpool_576.txt	LTP363	ltpFR2	0	7	BROOK	177	n/a	n/a	0	0	0
2011.041015625	n/a	REC_WORD	4118612	wordpools/wasnorm_wordpool_576.txt	LTP363	ltpFR2	0	7	STREAM	1392	n/a	n/a	0	0	0
2098.24267578125	n/a	DISTRACTOR	4297201	n/a	LTP363	ltpFR2	0	8	n/a	n/a	n/a	n/a	0	0	0
2098.24267578125	n/a	START	4297201	n/a	LTP363	ltpFR2	0	n/a	n/a	n/a	12	n/a	n/a	n/a	n/a
2098.259765625	n/a	PROB	4297236	n/a	LTP363	ltpFR2	0	n/a	n/a	n/a	12	14	7	1	6
2100.55859375	n/a	PROB	4301944	n/a	LTP363	ltpFR2	0	n/a	n/a	n/a	12	16	6	9	1
2102.357421875	n/a	PROB	4305628	n/a	LTP363	ltpFR2	0	n/a	n/a	n/a	12	16	5	2	9
2105.2724609375	n/a	PROB	4311598	n/a	LTP363	ltpFR2	0	n/a	n/a	n/a	12	21	8	4	9
2108.17138671875	n/a	PROB	4317535	n/a	LTP363	ltpFR2	0	n/a	n/a	n/a	12	21	8	9	4
2110.43701171875	n/a	PROB	4322175	n/a	LTP363	ltpFR2	0	n/a	n/a	n/a	12	11	4	4	3
2112.6533203125	n/a	PROB	4326714	n/a	LTP363	ltpFR2	0	n/a	n/a	n/a	12	11	2	8	1
2114.1181640625	n/a	PROB	4329714	n/a	LTP363	ltpFR2	0	n/a	n/a	n/a	12	19	8	4	7
2116.03515625	n/a	PROB	4333640	n/a	LTP363	ltpFR2	0	n/a	n/a	n/a	12	24	9	6	9
2122.23388671875	n/a	STOP	4346335	n/a	LTP363	ltpFR2	0	n/a	n/a	n/a	12	n/a	n/a	n/a	n/a
2123.1806640625	n/a	WORD	4348274	wordpools/wasnorm_wordpool_576.txt	LTP363	ltpFR2	0	8	APRON	35	n/a	n/a	0	0	0
2125.64794921875	n/a	WORD	4353327	wordpools/wasnorm_wordpool_576.txt	LTP363	ltpFR2	0	8	CRAB	397	n/a	n/a	0	0	0
2128.19482421875	n/a	WORD	4358543	wordpools/wasnorm_wordpool_576.txt	LTP363	ltpFR2	0	8	RIFLE	1192	n/a	n/a	0	0	0
2130.89453125	n/a	WORD	4364072	wordpools/wasnorm_wordpool_576.txt	LTP363	ltpFR2	0	8	SUNRISE	1407	n/a	n/a	0	0	0
2133.54248046875	n/a	WORD	4369495	wordpools/wasnorm_wordpool_576.txt	LTP363	ltpFR2	0	8	STICKER	1382	n/a	n/a	0	0	0
2136.29150390625	n/a	WORD	4375125	wordpools/wasnorm_wordpool_576.txt	LTP363	ltpFR2	0	8	HOSTESS	723	n/a	n/a	0	0	0
2139.08935546875	n/a	WORD	4380855	wordpools/wasnorm_wordpool_576.txt	LTP363	ltpFR2	0	8	TUBA	1515	n/a	n/a	0	0	0
2141.7060546875	n/a	WORD	4386214	wordpools/wasnorm_wordpool_576.txt	LTP363	ltpFR2	0	8	NECKLACE	940	n/a	n/a	0	0	0
2144.3369140625	n/a	WORD	4391602	wordpools/wasnorm_wordpool_576.txt	LTP363	ltpFR2	0	8	STALLION	1369	n/a	n/a	0	0	0
2146.787109375	n/a	WORD	4396620	wordpools/wasnorm_wordpool_576.txt	LTP363	ltpFR2	0	8	COCOON	339	n/a	n/a	0	0	0
2149.26806640625	n/a	WORD	4401701	wordpools/wasnorm_wordpool_576.txt	LTP363	ltpFR2	0	8	RAZOR	1171	n/a	n/a	0	0	0
2152.03369140625	n/a	WORD	4407365	wordpools/wasnorm_wordpool_576.txt	LTP363	ltpFR2	0	8	BLADE	134	n/a	n/a	0	0	0
2154.6328125	n/a	WORD	4412688	wordpools/wasnorm_wordpool_576.txt	LTP363	ltpFR2	0	8	COUSIN	392	n/a	n/a	0	0	0
2157.130859375	n/a	WORD	4417804	wordpools/wasnorm_wordpool_576.txt	LTP363	ltpFR2	0	8	TERMITE	1451	n/a	n/a	0	0	0
2159.74755859375	n/a	WORD	4423163	wordpools/wasnorm_wordpool_576.txt	LTP363	ltpFR2	0	8	PUDDING	1139	n/a	n/a	0	0	0
2162.27880859375	n/a	WORD	4428347	wordpools/wasnorm_wordpool_576.txt	LTP363	ltpFR2	0	8	SLIDE	1326	n/a	n/a	0	0	0
2165.0283203125	n/a	WORD	4433978	wordpools/wasnorm_wordpool_576.txt	LTP363	ltpFR2	0	8	TROMBONE	1508	n/a	n/a	0	0	0
2167.7763671875	n/a	WORD	4439606	wordpools/wasnorm_wordpool_576.txt	LTP363	ltpFR2	0	8	GYMNAST	675	n/a	n/a	0	0	0
2170.59228515625	n/a	WORD	4445373	wordpools/wasnorm_wordpool_576.txt	LTP363	ltpFR2	0	8	CLAMP	316	n/a	n/a	0	0	0
2173.3564453125	n/a	WORD	4451034	wordpools/wasnorm_wordpool_576.txt	LTP363	ltpFR2	0	8	FRIEND	606	n/a	n/a	0	0	0
2176.13818359375	n/a	WORD	4456731	wordpools/wasnorm_wordpool_576.txt	LTP363	ltpFR2	0	8	PLAID	1080	n/a	n/a	0	0	0
2178.9052734375	n/a	WORD	4462398	wordpools/wasnorm_wordpool_576.txt	LTP363	ltpFR2	0	8	DENIM	446	n/a	n/a	0	0	0
2181.43603515625	n/a	WORD	4467581	wordpools/wasnorm_wordpool_576.txt	LTP363	ltpFR2	0	8	BALLOON	75	n/a	n/a	0	0	0
2183.9521484375	n/a	WORD	4472734	wordpools/wasnorm_wordpool_576.txt	LTP363	ltpFR2	0	8	CABBAGE	210	n/a	n/a	0	0	0
2185.56787109375	n/a	START	4476043	n/a	LTP363	ltpFR2	0	n/a	n/a	n/a	13	n/a	n/a	n/a	n/a
2186.5029296875	n/a	DISTRACTOR	4477958	n/a	LTP363	ltpFR2	0	8	n/a	n/a	n/a	n/a	0	0	0
2186.51708984375	n/a	PROB	4477987	n/a	LTP363	ltpFR2	0	n/a	n/a	n/a	13	20	7	9	4
2189.75	n/a	PROB	4484608	n/a	LTP363	ltpFR2	0	n/a	n/a	n/a	13	25	9	9	7
2192.3974609375	n/a	PROB	4490030	n/a	LTP363	ltpFR2	0	n/a	n/a	n/a	13	12	4	6	2
2193.91455078125	n/a	PROB	4493137	n/a	LTP363	ltpFR2	0	n/a	n/a	n/a	13	15	6	2	7
2197.66259765625	n/a	PROB	4500813	n/a	LTP363	ltpFR2	0	n/a	n/a	n/a	13	12	3	5	4
2199.62841796875	n/a	PROB	4504839	n/a	LTP363	ltpFR2	0	n/a	n/a	n/a	13	11	9	1	1
2202.3095703125	n/a	PROB	4510330	n/a	LTP363	ltpFR2	0	n/a	n/a	n/a	13	11	8	1	2
2205.05712890625	n/a	PROB	4515957	n/a	LTP363	ltpFR2	0	n/a	n/a	n/a	13	11	7	2	2
2207.40625	n/a	PROB	4520768	n/a	LTP363	ltpFR2	0	n/a	n/a	n/a	13	16	4	9	3
2209.2021484375	n/a	STOP	4524446	n/a	LTP363	ltpFR2	0	n/a	n/a	n/a	13	n/a	n/a	n/a	n/a
2211.421875	n/a	REC_START	4528992	n/a	LTP363	ltpFR2	0	8	n/a	n/a	n/a	n/a	0	0	0
2212.5029296875	n/a	REC_WORD	4531206	wordpools/wasnorm_wordpool_576.txt	LTP363	ltpFR2	0	8	APRON	35	n/a	n/a	0	0	0
2213.6318359375	n/a	REC_WORD	4533518	wordpools/wasnorm_wordpool_576.txt	LTP363	ltpFR2	0	8	CRAB	397	n/a	n/a	0	0	0
2214.97216796875	n/a	REC_WORD	4536263	wordpools/wasnorm_wordpool_576.txt	LTP363	ltpFR2	0	8	HOSTESS	723	n/a	n/a	0	0	0
2216.375	n/a	REC_WORD	4539136	wordpools/wasnorm_wordpool_576.txt	LTP363	ltpFR2	0	8	PLAID	1080	n/a	n/a	0	0	0
2218.00390625	n/a	REC_WORD	4542472	wordpools/wasnorm_wordpool_576.txt	LTP363	ltpFR2	0	8	DENIM	446	n/a	n/a	0	0	0
2223.712890625	n/a	REC_WORD	4554164	wordpools/wasnorm_wordpool_576.txt	LTP363	ltpFR2	0	8	RIFLE	1192	n/a	n/a	0	0	0
2225.0517578125	n/a	REC_WORD	4556906	wordpools/wasnorm_wordpool_576.txt	LTP363	ltpFR2	0	8	SUNRISE	1407	n/a	n/a	0	0	0
2243.2880859375	n/a	REC_WORD	4594254	wordpools/wasnorm_wordpool_576.txt	LTP363	ltpFR2	0	8	COCOON	339	n/a	n/a	0	0	0
2247.68798828125	n/a	REC_WORD	4603265	wordpools/wasnorm_wordpool_576.txt	LTP363	ltpFR2	0	8	PORTRAIT	1111	n/a	n/a	0	0	0
2266.16064453125	n/a	REC_WORD	4641097	wordpools/wasnorm_wordpool_576.txt	LTP363	ltpFR2	0	8	PICTURE	1061	n/a	n/a	0	0	0
2287.95166015625	n/a	REST_REWET	4685725	n/a	LTP363	ltpFR2	0	8	n/a	n/a	n/a	n/a	0	0	0
2448.7080078125	n/a	DISTRACTOR	5014954	n/a	LTP363	ltpFR2	0	9	n/a	n/a	n/a	n/a	0	0	0
2448.7080078125	n/a	START	5014954	n/a	LTP363	ltpFR2	0	n/a	n/a	n/a	14	n/a	n/a	n/a	n/a
2448.72412109375	n/a	PROB	5014987	n/a	LTP363	ltpFR2	0	n/a	n/a	n/a	14	10	1	3	6
2450.60693359375	n/a	PROB	5018843	n/a	LTP363	ltpFR2	0	n/a	n/a	n/a	14	21	3	5	8
2452.90576171875	n/a	PROB	5023551	n/a	LTP363	ltpFR2	0	n/a	n/a	n/a	14	18	8	7	3
2455.6875	n/a	PROB	5029248	n/a	LTP363	ltpFR2	0	n/a	n/a	n/a	14	22	7	9	6
2460.150390625	n/a	PROB	5038388	n/a	LTP363	ltpFR2	0	n/a	n/a	n/a	14	10	5	3	2
2461.86767578125	n/a	PROB	5041905	n/a	LTP363	ltpFR2	0	n/a	n/a	n/a	14	19	7	5	7
2464.099609375	n/a	PROB	5046476	n/a	LTP363	ltpFR2	0	n/a	n/a	n/a	14	11	2	4	5
2466.21435546875	n/a	PROB	5050807	n/a	LTP363	ltpFR2	0	n/a	n/a	n/a	14	22	9	8	5
2468.4130859375	n/a	PROB	5055310	n/a	LTP363	ltpFR2	0	n/a	n/a	n/a	14	10	1	4	5
2470.3623046875	n/a	PROB	5059302	n/a	LTP363	ltpFR2	0	n/a	n/a	n/a	14	12	2	8	2
2472.369140625	n/a	STOP	5063412	n/a	LTP363	ltpFR2	0	n/a	n/a	n/a	14	n/a	n/a	n/a	n/a
2473.76220703125	n/a	WORD	5066265	wordpools/wasnorm_wordpool_576.txt	LTP363	ltpFR2	0	9	AIRPORT	13	n/a	n/a	0	0	0
2476.41015625	n/a	WORD	5071688	wordpools/wasnorm_wordpool_576.txt	LTP363	ltpFR2	0	9	BARLEY	88	n/a	n/a	0	0	0
2479.05810546875	n/a	WORD	5077111	wordpools/wasnorm_wordpool_576.txt	LTP363	ltpFR2	0	9	MACHINE	852	n/a	n/a	0	0	0
2481.65771484375	n/a	WORD	5082435	wordpools/wasnorm_wordpool_576.txt	LTP363	ltpFR2	0	9	WASHER	1592	n/a	n/a	0	0	0
2484.3056640625	n/a	WORD	5087858	wordpools/wasnorm_wordpool_576.txt	LTP363	ltpFR2	0	9	ORANGE	980	n/a	n/a	0	0	0
2486.97265625	n/a	WORD	5093320	wordpools/wasnorm_wordpool_576.txt	LTP363	ltpFR2	0	9	COUNTRY	388	n/a	n/a	0	0	0
2489.40380859375	n/a	WORD	5098299	wordpools/wasnorm_wordpool_576.txt	LTP363	ltpFR2	0	9	GRILL	661	n/a	n/a	0	0	0
2492.21875	n/a	WORD	5104064	wordpools/wasnorm_wordpool_576.txt	LTP363	ltpFR2	0	9	HAWK	692	n/a	n/a	0	0	0
2494.6513671875	n/a	WORD	5109046	wordpools/wasnorm_wordpool_576.txt	LTP363	ltpFR2	0	9	TRACTOR	1493	n/a	n/a	0	0	0
2497.2666015625	n/a	WORD	5114402	wordpools/wasnorm_wordpool_576.txt	LTP363	ltpFR2	0	9	COUNTY	389	n/a	n/a	0	0	0
2500.0322265625	n/a	WORD	5120066	wordpools/wasnorm_wordpool_576.txt	LTP363	ltpFR2	0	9	FINGER	567	n/a	n/a	0	0	0
2502.5810546875	n/a	WORD	5125286	wordpools/wasnorm_wordpool_576.txt	LTP363	ltpFR2	0	9	SHRUB	1299	n/a	n/a	0	0	0
2505.37939453125	n/a	WORD	5131017	wordpools/wasnorm_wordpool_576.txt	LTP363	ltpFR2	0	9	COSTUME	383	n/a	n/a	0	0	0
2507.9453125	n/a	WORD	5136272	wordpools/wasnorm_wordpool_576.txt	LTP363	ltpFR2	0	9	ROOSTER	1209	n/a	n/a	0	0	0
2510.4931640625	n/a	WORD	5141490	wordpools/wasnorm_wordpool_576.txt	LTP363	ltpFR2	0	9	ASIA	46	n/a	n/a	0	0	0
2513.2919921875	n/a	WORD	5147222	wordpools/wasnorm_wordpool_576.txt	LTP363	ltpFR2	0	9	PLAYGROUND	1087	n/a	n/a	0	0	0
2515.9248046875	n/a	WORD	5152614	wordpools/wasnorm_wordpool_576.txt	LTP363	ltpFR2	0	9	LIPSTICK	829	n/a	n/a	0	0	0
2518.65673828125	n/a	WORD	5158209	wordpools/wasnorm_wordpool_576.txt	LTP363	ltpFR2	0	9	GIRL	637	n/a	n/a	0	0	0
2521.421875	n/a	WORD	5163872	wordpools/wasnorm_wordpool_576.txt	LTP363	ltpFR2	0	9	TRANSPLANT	1496	n/a	n/a	0	0	0
2524.23681640625	n/a	WORD	5169637	wordpools/wasnorm_wordpool_576.txt	LTP363	ltpFR2	0	9	SLIME	1327	n/a	n/a	0	0	0
2526.8525390625	n/a	WORD	5174994	wordpools/wasnorm_wordpool_576.txt	LTP363	ltpFR2	0	9	RECORD	1176	n/a	n/a	0	0	0
2529.58544921875	n/a	WORD	5180591	wordpools/wasnorm_wordpool_576.txt	LTP363	ltpFR2	0	9	CONCERT	360	n/a	n/a	0	0	0
2532.08349609375	n/a	WORD	5185707	wordpools/wasnorm_wordpool_576.txt	LTP363	ltpFR2	0	9	MEDAL	885	n/a	n/a	0	0	0
2534.54833984375	n/a	WORD	5190755	wordpools/wasnorm_wordpool_576.txt	LTP363	ltpFR2	0	9	JUGGLER	763	n/a	n/a	0	0	0
2536.1650390625	n/a	START	5194066	n/a	LTP363	ltpFR2	0	n/a	n/a	n/a	15	n/a	n/a	n/a	n/a
2537.18798828125	n/a	DISTRACTOR	5196161	n/a	LTP363	ltpFR2	0	9	n/a	n/a	n/a	n/a	0	0	0
2537.197265625	n/a	PROB	5196180	n/a	LTP363	ltpFR2	0	n/a	n/a	n/a	15	15	5	6	4
2540.39501953125	n/a	PROB	5202729	n/a	LTP363	ltpFR2	0	n/a	n/a	n/a	15	21	8	4	9
2542.36083984375	n/a	PROB	5206755	n/a	LTP363	ltpFR2	0	n/a	n/a	n/a	15	21	7	9	5
2544.76123046875	n/a	PROB	5211671	n/a	LTP363	ltpFR2	0	n/a	n/a	n/a	15	15	4	3	8
2546.9599609375	n/a	PROB	5216174	n/a	LTP363	ltpFR2	0	n/a	n/a	n/a	15	6	4	1	1
2548.97607421875	n/a	PROB	5220303	n/a	LTP363	ltpFR2	0	n/a	n/a	n/a	15	18	2	6	9
2551.640625	n/a	PROB	5225760	n/a	LTP363	ltpFR2	0	n/a	n/a	n/a	15	16	9	6	1
2555.53857421875	n/a	PROB	5233743	n/a	LTP363	ltpFR2	0	n/a	n/a	n/a	15	17	5	9	3
2560.16455078125	n/a	STOP	5243217	n/a	LTP363	ltpFR2	0	n/a	n/a	n/a	15	n/a	n/a	n/a	n/a
2561.986328125	n/a	REC_START	5246948	n/a	LTP363	ltpFR2	0	9	n/a	n/a	n/a	n/a	0	0	0
2563.263671875	n/a	REC_WORD	5249564	wordpools/wasnorm_wordpool_576.txt	LTP363	ltpFR2	0	9	RECORD	1176	n/a	n/a	0	0	0
2564.30859375	n/a	REC_WORD	5251704	wordpools/wasnorm_wordpool_576.txt	LTP363	ltpFR2	0	9	SLIME	1327	n/a	n/a	0	0	0
2565.701171875	n/a	REC_WORD	5254556	wordpools/wasnorm_wordpool_576.txt	LTP363	ltpFR2	0	9	TRANSPLANT	1496	n/a	n/a	0	0	0
2569.107421875	n/a	REC_WORD	5261532	wordpools/wasnorm_wordpool_576.txt	LTP363	ltpFR2	0	9	GYMNAST	675	n/a	n/a	0	0	0
2572.64208984375	n/a	REC_WORD	5268771	wordpools/wasnorm_wordpool_576.txt	LTP363	ltpFR2	0	9	ROOSTER	1209	n/a	n/a	0	0	0
2573.283203125	n/a	REC_WORD	5270084	wordpools/wasnorm_wordpool_576.txt	LTP363	ltpFR2	0	9	COSTUME	383	n/a	n/a	0	0	0
2574.287109375	n/a	REC_WORD	5272140	wordpools/wasnorm_wordpool_576.txt	LTP363	ltpFR2	0	9	ASIA	46	n/a	n/a	0	0	0
2579.78076171875	n/a	REC_WORD	5283391	wordpools/wasnorm_wordpool_576.txt	LTP363	ltpFR2	0	9	GIRL	637	n/a	n/a	0	0	0
2580.5068359375	n/a	REC_WORD	5284878	wordpools/wasnorm_wordpool_576.txt	LTP363	ltpFR2	0	9	LIPSTICK	829	n/a	n/a	0	0	0
2581.31689453125	n/a	REC_WORD	5286537	wordpools/wasnorm_wordpool_576.txt	LTP363	ltpFR2	0	9	PLAYGROUND	1087	n/a	n/a	0	0	0
2585.94970703125	n/a	REC_WORD	5296025	wordpools/wasnorm_wordpool_576.txt	LTP363	ltpFR2	0	9	MACHINE	852	n/a	n/a	0	0	0
2586.8466796875	n/a	REC_WORD	5297862	wordpools/wasnorm_wordpool_576.txt	LTP363	ltpFR2	0	9	WASHER	1592	n/a	n/a	0	0	0
2588.7705078125	n/a	REC_WORD	5301802	wordpools/wasnorm_wordpool_576.txt	LTP363	ltpFR2	0	9	AIRPORT	13	n/a	n/a	0	0	0
2591.11376953125	n/a	REC_WORD	5306601	wordpools/wasnorm_wordpool_576.txt	LTP363	ltpFR2	0	9	BARLEY	88	n/a	n/a	0	0	0
2592.392578125	n/a	REC_WORD	5309220	wordpools/wasnorm_wordpool_576.txt	LTP363	ltpFR2	0	9	ORANGE	980	n/a	n/a	0	0	0
2599.29150390625	n/a	REC_WORD	5323349	wordpools/wasnorm_wordpool_576.txt	LTP363	ltpFR2	0	9	PLOW	-1	n/a	n/a	0	0	0
2606.50732421875	n/a	REC_WORD	5338127	wordpools/wasnorm_wordpool_576.txt	LTP363	ltpFR2	0	9	TRACTOR	1493	n/a	n/a	0	0	0
2672.46533203125	n/a	WORD	5473209	wordpools/wasnorm_wordpool_576.txt	LTP363	ltpFR2	0	10	SKILLET	1317	n/a	n/a	0	0	0
2675.197265625	n/a	WORD	5478804	wordpools/wasnorm_wordpool_576.txt	LTP363	ltpFR2	0	10	LONDON	843	n/a	n/a	0	0	0
2678.01318359375	n/a	WORD	5484571	wordpools/wasnorm_wordpool_576.txt	LTP363	ltpFR2	0	10	GRAVEL	659	n/a	n/a	0	0	0
2680.76171875	n/a	WORD	5490200	wordpools/wasnorm_wordpool_576.txt	LTP363	ltpFR2	0	10	ARMY	39	n/a	n/a	0	0	0
2683.54296875	n/a	WORD	5495896	wordpools/wasnorm_wordpool_576.txt	LTP363	ltpFR2	0	10	LAVA	804	n/a	n/a	0	0	0
2686.12451171875	n/a	WORD	5501183	wordpools/wasnorm_wordpool_576.txt	LTP363	ltpFR2	0	10	BADGE	68	n/a	n/a	0	0	0
2688.7578125	n/a	WORD	5506576	wordpools/wasnorm_wordpool_576.txt	LTP363	ltpFR2	0	10	CASHIER	254	n/a	n/a	0	0	0
2691.57373046875	n/a	WORD	5512343	wordpools/wasnorm_wordpool_576.txt	LTP363	ltpFR2	0	10	CLOCK	325	n/a	n/a	0	0	0
2694.0546875	n/a	WORD	5517424	wordpools/wasnorm_wordpool_576.txt	LTP363	ltpFR2	0	10	SUPPER	1411	n/a	n/a	0	0	0
2696.87060546875	n/a	WORD	5523191	wordpools/wasnorm_wordpool_576.txt	LTP363	ltpFR2	0	10	STAKE	1368	n/a	n/a	0	0	0
2699.6865234375	n/a	WORD	5528958	wordpools/wasnorm_wordpool_576.txt	LTP363	ltpFR2	0	10	NEUTRON	947	n/a	n/a	0	0	0
2702.18408203125	n/a	WORD	5534073	wordpools/wasnorm_wordpool_576.txt	LTP363	ltpFR2	0	10	AGENT	10	n/a	n/a	0	0	0
2704.7001953125	n/a	WORD	5539226	wordpools/wasnorm_wordpool_576.txt	LTP363	ltpFR2	0	10	PEANUT	1032	n/a	n/a	0	0	0
2707.365234375	n/a	WORD	5544684	wordpools/wasnorm_wordpool_576.txt	LTP363	ltpFR2	0	10	PECAN	1036	n/a	n/a	0	0	0
2709.98095703125	n/a	WORD	5550041	wordpools/wasnorm_wordpool_576.txt	LTP363	ltpFR2	0	10	CANYON	235	n/a	n/a	0	0	0
2712.712890625	n/a	WORD	5555636	wordpools/wasnorm_wordpool_576.txt	LTP363	ltpFR2	0	10	ATOM	55	n/a	n/a	0	0	0
2715.427734375	n/a	WORD	5561196	wordpools/wasnorm_wordpool_576.txt	LTP363	ltpFR2	0	10	POET	1095	n/a	n/a	0	0	0
2718.19287109375	n/a	WORD	5566859	wordpools/wasnorm_wordpool_576.txt	LTP363	ltpFR2	0	10	BOX	159	n/a	n/a	0	0	0
2720.80859375	n/a	WORD	5572216	wordpools/wasnorm_wordpool_576.txt	LTP363	ltpFR2	0	10	POLICE	1098	n/a	n/a	0	0	0
2723.59033203125	n/a	WORD	5577913	wordpools/wasnorm_wordpool_576.txt	LTP363	ltpFR2	0	10	CONVICT	371	n/a	n/a	0	0	0
2726.1552734375	n/a	WORD	5583166	wordpools/wasnorm_wordpool_576.txt	LTP363	ltpFR2	0	10	STOMACH	1384	n/a	n/a	0	0	0
2728.8212890625	n/a	WORD	5588626	wordpools/wasnorm_wordpool_576.txt	LTP363	ltpFR2	0	10	GROUND	666	n/a	n/a	0	0	0
2731.353515625	n/a	WORD	5593812	wordpools/wasnorm_wordpool_576.txt	LTP363	ltpFR2	0	10	LIZARD	834	n/a	n/a	0	0	0
2733.986328125	n/a	WORD	5599204	wordpools/wasnorm_wordpool_576.txt	LTP363	ltpFR2	0	10	POISON	1096	n/a	n/a	0	0	0
2735.60205078125	n/a	START	5602513	n/a	LTP363	ltpFR2	0	n/a	n/a	n/a	16	n/a	n/a	n/a	n/a
2736.65625	n/a	DISTRACTOR	5604672	n/a	LTP363	ltpFR2	0	10	n/a	n/a	n/a	n/a	0	0	0
2736.66796875	n/a	PROB	5604696	n/a	LTP363	ltpFR2	0	n/a	n/a	n/a	16	16	6	7	3
2738.7841796875	n/a	PROB	5609030	n/a	LTP363	ltpFR2	0	n/a	n/a	n/a	16	25	7	9	9
2742.48095703125	n/a	PROB	5616601	n/a	LTP363	ltpFR2	0	n/a	n/a	n/a	16	8	4	1	3
2744.14697265625	n/a	PROB	5620013	n/a	LTP363	ltpFR2	0	n/a	n/a	n/a	16	20	9	5	6
2746.02880859375	n/a	PROB	5623867	n/a	LTP363	ltpFR2	0	n/a	n/a	n/a	16	16	8	7	1
2747.69580078125	n/a	PROB	5627281	n/a	LTP363	ltpFR2	0	n/a	n/a	n/a	16	15	5	6	4
2749.294921875	n/a	PROB	5630556	n/a	LTP363	ltpFR2	0	n/a	n/a	n/a	16	12	2	4	6
2751.19384765625	n/a	PROB	5634445	n/a	LTP363	ltpFR2	0	n/a	n/a	n/a	16	12	4	7	1
2753.30859375	n/a	PROB	5638776	n/a	LTP363	ltpFR2	0	n/a	n/a	n/a	16	13	3	5	5
2755.57568359375	n/a	PROB	5643419	n/a	LTP363	ltpFR2	0	n/a	n/a	n/a	16	14	4	4	6
2759.4892578125	n/a	STOP	5651434	n/a	LTP363	ltpFR2	0	n/a	n/a	n/a	16	n/a	n/a	n/a	n/a
2761.4384765625	n/a	REC_START	5655426	n/a	LTP363	ltpFR2	0	10	n/a	n/a	n/a	n/a	0	0	0
2762.79150390625	n/a	REC_WORD	5658197	wordpools/wasnorm_wordpool_576.txt	LTP363	ltpFR2	0	10	POET	1095	n/a	n/a	0	0	0
2764.12744140625	n/a	REC_WORD	5660933	wordpools/wasnorm_wordpool_576.txt	LTP363	ltpFR2	0	10	LIZARD	834	n/a	n/a	0	0	0
2765.48046875	n/a	REC_WORD	5663704	wordpools/wasnorm_wordpool_576.txt	LTP363	ltpFR2	0	10	GROUND	666	n/a	n/a	0	0	0
2767.04443359375	n/a	REC_WORD	5666907	wordpools/wasnorm_wordpool_576.txt	LTP363	ltpFR2	0	10	STAKE	1368	n/a	n/a	0	0	0
2768.41845703125	n/a	REC_WORD	5669721	wordpools/wasnorm_wordpool_576.txt	LTP363	ltpFR2	0	10	SKILLET	1317	n/a	n/a	0	0	0
2769.89697265625	n/a	REC_WORD	5672749	wordpools/wasnorm_wordpool_576.txt	LTP363	ltpFR2	0	10	SUPPER	1411	n/a	n/a	0	0	0
2772.046875	n/a	REC_WORD	5677152	wordpools/wasnorm_wordpool_576.txt	LTP363	ltpFR2	0	10	CLOCK	325	n/a	n/a	0	0	0
2773.40087890625	n/a	REC_WORD	5679925	wordpools/wasnorm_wordpool_576.txt	LTP363	ltpFR2	0	10	CASHIER	254	n/a	n/a	0	0	0
2782.9619140625	n/a	REC_WORD	5699506	wordpools/wasnorm_wordpool_576.txt	LTP363	ltpFR2	0	10	CONCERT	360	n/a	n/a	0	0	0
2806.76123046875	n/a	REC_WORD	5748247	wordpools/wasnorm_wordpool_576.txt	LTP363	ltpFR2	0	10	ARMOR	-1	n/a	n/a	0	0	0
2817.103515625	n/a	REC_WORD	5769428	wordpools/wasnorm_wordpool_576.txt	LTP363	ltpFR2	0	10	BADGE	68	n/a	n/a	0	0	0
2824.86669921875	n/a	REC_WORD	5785327	wordpools/wasnorm_wordpool_576.txt	LTP363	ltpFR2	0	10	LONDON	843	n/a	n/a	0	0	0
2834.9072265625	n/a	REC_WORD	5805890	wordpools/wasnorm_wordpool_576.txt	LTP363	ltpFR2	0	10	COP	376	n/a	n/a	0	0	0
2871.46826171875	n/a	WORD	5880767	wordpools/wasnorm_wordpool_576.txt	LTP363	ltpFR2	0	11	VELVET	1555	n/a	n/a	0	0	0
2874.001953125	n/a	WORD	5885956	wordpools/wasnorm_wordpool_576.txt	LTP363	ltpFR2	0	11	SCARF	1246	n/a	n/a	0	0	0
2876.75	n/a	WORD	5891584	wordpools/wasnorm_wordpool_576.txt	LTP363	ltpFR2	0	11	SNACK	1331	n/a	n/a	0	0	0
2879.3310546875	n/a	WORD	5896870	wordpools/wasnorm_wordpool_576.txt	LTP363	ltpFR2	0	11	LAKE	796	n/a	n/a	0	0	0
2882.046875	n/a	WORD	5902432	wordpools/wasnorm_wordpool_576.txt	LTP363	ltpFR2	0	11	BOUQUET	157	n/a	n/a	0	0	0
2884.86279296875	n/a	WORD	5908199	wordpools/wasnorm_wordpool_576.txt	LTP363	ltpFR2	0	11	CHAPEL	280	n/a	n/a	0	0	0
2887.49365234375	n/a	WORD	5913587	wordpools/wasnorm_wordpool_576.txt	LTP363	ltpFR2	0	11	COURSE	390	n/a	n/a	0	0	0
2890.04248046875	n/a	WORD	5918807	wordpools/wasnorm_wordpool_576.txt	LTP363	ltpFR2	0	11	RUST	1219	n/a	n/a	0	0	0
2892.67529296875	n/a	WORD	5924199	wordpools/wasnorm_wordpool_576.txt	LTP363	ltpFR2	0	11	CYCLONE	431	n/a	n/a	0	0	0
2895.50634765625	n/a	WORD	5929997	wordpools/wasnorm_wordpool_576.txt	LTP363	ltpFR2	0	11	JEANS	752	n/a	n/a	0	0	0
2898.2880859375	n/a	WORD	5935694	wordpools/wasnorm_wordpool_576.txt	LTP363	ltpFR2	0	11	SHORTCAKE	1292	n/a	n/a	0	0	0
2900.80517578125	n/a	WORD	5940849	wordpools/wasnorm_wordpool_576.txt	LTP363	ltpFR2	0	11	OUTDOORS	987	n/a	n/a	0	0	0
2903.38623046875	n/a	WORD	5946135	wordpools/wasnorm_wordpool_576.txt	LTP363	ltpFR2	0	11	LIVER	833	n/a	n/a	0	0	0
2905.85302734375	n/a	WORD	5951187	wordpools/wasnorm_wordpool_576.txt	LTP363	ltpFR2	0	11	TEMPLE	1448	n/a	n/a	0	0	0
2908.51708984375	n/a	WORD	5956643	wordpools/wasnorm_wordpool_576.txt	LTP363	ltpFR2	0	11	FILM	565	n/a	n/a	0	0	0
2911.3330078125	n/a	WORD	5962410	wordpools/wasnorm_wordpool_576.txt	LTP363	ltpFR2	0	11	POPCORN	1104	n/a	n/a	0	0	0
2914.08056640625	n/a	WORD	5968037	wordpools/wasnorm_wordpool_576.txt	LTP363	ltpFR2	0	11	FIDDLE	561	n/a	n/a	0	0	0
2916.7138671875	n/a	WORD	5973430	wordpools/wasnorm_wordpool_576.txt	LTP363	ltpFR2	0	11	DRAWING	494	n/a	n/a	0	0	0
2919.37841796875	n/a	WORD	5978887	wordpools/wasnorm_wordpool_576.txt	LTP363	ltpFR2	0	11	FRAME	600	n/a	n/a	0	0	0
2922.193359375	n/a	WORD	5984652	wordpools/wasnorm_wordpool_576.txt	LTP363	ltpFR2	0	11	LEADER	807	n/a	n/a	0	0	0
2924.99365234375	n/a	WORD	5990387	wordpools/wasnorm_wordpool_576.txt	LTP363	ltpFR2	0	11	POCKET	1093	n/a	n/a	0	0	0
2927.658203125	n/a	WORD	5995844	wordpools/wasnorm_wordpool_576.txt	LTP363	ltpFR2	0	11	PEBBLE	1035	n/a	n/a	0	0	0
2930.22314453125	n/a	WORD	6001097	wordpools/wasnorm_wordpool_576.txt	LTP363	ltpFR2	0	11	STONE	1385	n/a	n/a	0	0	0
2932.939453125	n/a	WORD	6006660	wordpools/wasnorm_wordpool_576.txt	LTP363	ltpFR2	0	11	BOYFRIEND	162	n/a	n/a	0	0	0
2934.55517578125	n/a	START	6009969	n/a	LTP363	ltpFR2	0	n/a	n/a	n/a	17	n/a	n/a	n/a	n/a
2935.4130859375	n/a	DISTRACTOR	6011726	n/a	LTP363	ltpFR2	0	11	n/a	n/a	n/a	n/a	0	0	0
2935.42138671875	n/a	PROB	6011743	n/a	LTP363	ltpFR2	0	n/a	n/a	n/a	17	13	4	4	5
2937.9208984375	n/a	PROB	6016862	n/a	LTP363	ltpFR2	0	n/a	n/a	n/a	17	15	7	2	6
2940.0849609375	n/a	PROB	6021294	n/a	LTP363	ltpFR2	0	n/a	n/a	n/a	17	10	3	3	4
2941.869140625	n/a	PROB	6024948	n/a	LTP363	ltpFR2	0	n/a	n/a	n/a	17	24	9	7	8
2945.0498046875	n/a	PROB	6031462	n/a	LTP363	ltpFR2	0	n/a	n/a	n/a	17	11	6	3	2
2946.64990234375	n/a	PROB	6034739	n/a	LTP363	ltpFR2	0	n/a	n/a	n/a	17	21	9	3	9
2948.931640625	n/a	PROB	6039412	n/a	LTP363	ltpFR2	0	n/a	n/a	n/a	17	14	2	4	8
2950.96484375	n/a	PROB	6043576	n/a	LTP363	ltpFR2	0	n/a	n/a	n/a	17	9	1	6	2
2952.94677734375	n/a	PROB	6047635	n/a	LTP363	ltpFR2	0	n/a	n/a	n/a	17	14	5	7	2
2954.66259765625	n/a	PROB	6051149	n/a	LTP363	ltpFR2	0	n/a	n/a	n/a	17	21	8	9	4
2957.28125	n/a	STOP	6056512	n/a	LTP363	ltpFR2	0	n/a	n/a	n/a	17	n/a	n/a	n/a	n/a
2960.3251953125	n/a	REC_START	6062746	n/a	LTP363	ltpFR2	0	11	n/a	n/a	n/a	n/a	0	0	0
2961.62158203125	n/a	REC_WORD	6065401	wordpools/wasnorm_wordpool_576.txt	LTP363	ltpFR2	0	11	PEBBLE	1035	n/a	n/a	0	0	0
2965.80908203125	n/a	REC_WORD	6073977	wordpools/wasnorm_wordpool_576.txt	LTP363	ltpFR2	0	11	STONE	1385	n/a	n/a	0	0	0
2968.1611328125	n/a	REC_WORD	6078794	wordpools/wasnorm_wordpool_576.txt	LTP363	ltpFR2	0	11	POCKET	1093	n/a	n/a	0	0	0
2970.48828125	n/a	REC_WORD	6083560	wordpools/wasnorm_wordpool_576.txt	LTP363	ltpFR2	0	11	BOYFRIEND	162	n/a	n/a	0	0	0
2974.02685546875	n/a	REC_WORD	6090807	wordpools/wasnorm_wordpool_576.txt	LTP363	ltpFR2	0	11	TEMPLE	1448	n/a	n/a	0	0	0
2974.8388671875	n/a	REC_WORD	6092470	wordpools/wasnorm_wordpool_576.txt	LTP363	ltpFR2	0	11	LIVER	833	n/a	n/a	0	0	0
2982.58056640625	n/a	REC_WORD	6108325	wordpools/wasnorm_wordpool_576.txt	LTP363	ltpFR2	0	11	LAKE	796	n/a	n/a	0	0	0
2983.75146484375	n/a	REC_WORD	6110723	wordpools/wasnorm_wordpool_576.txt	LTP363	ltpFR2	0	11	OUTDOORS	987	n/a	n/a	0	0	0
2984.75146484375	n/a	REC_WORD_VV	6112771	wordpools/wasnorm_wordpool_576.txt	LTP363	ltpFR2	0	11	<>	-1	n/a	n/a	0	0	0
2985.3505859375	n/a	REC_WORD	6113998	wordpools/wasnorm_wordpool_576.txt	LTP363	ltpFR2	0	11	SNACK	1331	n/a	n/a	0	0	0
2986.5615234375	n/a	REC_WORD	6116478	wordpools/wasnorm_wordpool_576.txt	LTP363	ltpFR2	0	11	VELVET	1555	n/a	n/a	0	0	0
2987.48046875	n/a	REC_WORD	6118360	wordpools/wasnorm_wordpool_576.txt	LTP363	ltpFR2	0	11	SCARF	1246	n/a	n/a	0	0	0
2994.3623046875	n/a	REC_WORD	6132454	wordpools/wasnorm_wordpool_576.txt	LTP363	ltpFR2	0	11	BOUQUET	157	n/a	n/a	0	0	0
3001.8759765625	n/a	REC_WORD	6147842	wordpools/wasnorm_wordpool_576.txt	LTP363	ltpFR2	0	11	WEDDING	-1	n/a	n/a	0	0	0
3004.10400390625	n/a	REC_WORD	6152405	wordpools/wasnorm_wordpool_576.txt	LTP363	ltpFR2	0	11	COURSE	390	n/a	n/a	0	0	0
3016.02587890625	n/a	REC_WORD	6176821	wordpools/wasnorm_wordpool_576.txt	LTP363	ltpFR2	0	11	TORNADO	1485	n/a	n/a	0	0	0
3071.7060546875	n/a	DISTRACTOR	6290854	n/a	LTP363	ltpFR2	0	12	n/a	n/a	n/a	n/a	0	0	0
3071.7060546875	n/a	START	6290854	n/a	LTP363	ltpFR2	0	n/a	n/a	n/a	18	n/a	n/a	n/a	n/a
3071.72216796875	n/a	PROB	6290887	n/a	LTP363	ltpFR2	0	n/a	n/a	n/a	18	14	2	3	9
3074.037109375	n/a	PROB	6295628	n/a	LTP363	ltpFR2	0	n/a	n/a	n/a	18	20	5	7	8
3076.3359375	n/a	PROB	6300336	n/a	LTP363	ltpFR2	0	n/a	n/a	n/a	18	17	9	2	6
3078.23486328125	n/a	PROB	6304225	n/a	LTP363	ltpFR2	0	n/a	n/a	n/a	18	11	8	2	1
3079.90185546875	n/a	PROB	6307639	n/a	LTP363	ltpFR2	0	n/a	n/a	n/a	18	16	4	7	5
3082.28271484375	n/a	PROB	6312515	n/a	LTP363	ltpFR2	0	n/a	n/a	n/a	18	15	8	6	1
3084.83251953125	n/a	PROB	6317737	n/a	LTP363	ltpFR2	0	n/a	n/a	n/a	18	6	4	1	1
3086.71533203125	n/a	PROB	6321593	n/a	LTP363	ltpFR2	0	n/a	n/a	n/a	18	16	5	8	3
3089.4794921875	n/a	PROB	6327254	n/a	LTP363	ltpFR2	0	n/a	n/a	n/a	18	15	6	6	3
3092.478515625	n/a	PROB	6333396	n/a	LTP363	ltpFR2	0	n/a	n/a	n/a	18	14	4	9	1
3094.59423828125	n/a	STOP	6337729	n/a	LTP363	ltpFR2	0	n/a	n/a	n/a	18	n/a	n/a	n/a	n/a
3096.71044921875	n/a	WORD	6342063	wordpools/wasnorm_wordpool_576.txt	LTP363	ltpFR2	0	12	LOVER	846	n/a	n/a	0	0	0
3099.17529296875	n/a	WORD	6347111	wordpools/wasnorm_wordpool_576.txt	LTP363	ltpFR2	0	12	OFFICE	972	n/a	n/a	0	0	0
3101.80810546875	n/a	WORD	6352503	wordpools/wasnorm_wordpool_576.txt	LTP363	ltpFR2	0	12	TART	1436	n/a	n/a	0	0	0
3104.35595703125	n/a	WORD	6357721	wordpools/wasnorm_wordpool_576.txt	LTP363	ltpFR2	0	12	ATLAS	53	n/a	n/a	0	0	0
3106.93896484375	n/a	WORD	6363011	wordpools/wasnorm_wordpool_576.txt	LTP363	ltpFR2	0	12	BACKBONE	66	n/a	n/a	0	0	0
3109.52001953125	n/a	WORD	6368297	wordpools/wasnorm_wordpool_576.txt	LTP363	ltpFR2	0	12	MARROW	872	n/a	n/a	0	0	0
3112.15185546875	n/a	WORD	6373687	wordpools/wasnorm_wordpool_576.txt	LTP363	ltpFR2	0	12	COWBOY	395	n/a	n/a	0	0	0
3114.6015625	n/a	WORD	6378704	wordpools/wasnorm_wordpool_576.txt	LTP363	ltpFR2	0	12	BURGLAR	200	n/a	n/a	0	0	0
3117.1328125	n/a	WORD	6383888	wordpools/wasnorm_wordpool_576.txt	LTP363	ltpFR2	0	12	ROBBER	1197	n/a	n/a	0	0	0
3119.58251953125	n/a	WORD	6388905	wordpools/wasnorm_wordpool_576.txt	LTP363	ltpFR2	0	12	MAILMAN	858	n/a	n/a	0	0	0
3122.013671875	n/a	WORD	6393884	wordpools/wasnorm_wordpool_576.txt	LTP363	ltpFR2	0	12	SPARROW	1347	n/a	n/a	0	0	0
3124.49560546875	n/a	WORD	6398967	wordpools/wasnorm_wordpool_576.txt	LTP363	ltpFR2	0	12	CAFE	216	n/a	n/a	0	0	0
3127.04443359375	n/a	WORD	6404187	wordpools/wasnorm_wordpool_576.txt	LTP363	ltpFR2	0	12	WAITRESS	1581	n/a	n/a	0	0	0
3129.51025390625	n/a	WORD	6409237	wordpools/wasnorm_wordpool_576.txt	LTP363	ltpFR2	0	12	LUNCH	849	n/a	n/a	0	0	0
3132.14208984375	n/a	WORD	6414627	wordpools/wasnorm_wordpool_576.txt	LTP363	ltpFR2	0	12	LACE	792	n/a	n/a	0	0	0
3134.85888671875	n/a	WORD	6420191	wordpools/wasnorm_wordpool_576.txt	LTP363	ltpFR2	0	12	GLOVE	642	n/a	n/a	0	0	0
3137.52294921875	n/a	WORD	6425647	wordpools/wasnorm_wordpool_576.txt	LTP363	ltpFR2	0	12	TOMBSTONE	1478	n/a	n/a	0	0	0
3140.2548828125	n/a	WORD	6431242	wordpools/wasnorm_wordpool_576.txt	LTP363	ltpFR2	0	12	SCOTCH	1251	n/a	n/a	0	0	0
3143.02001953125	n/a	WORD	6436905	wordpools/wasnorm_wordpool_576.txt	LTP363	ltpFR2	0	12	LUGGAGE	847	n/a	n/a	0	0	0
3145.7197265625	n/a	WORD	6442434	wordpools/wasnorm_wordpool_576.txt	LTP363	ltpFR2	0	12	BRANCH	168	n/a	n/a	0	0	0
3148.517578125	n/a	WORD	6448164	wordpools/wasnorm_wordpool_576.txt	LTP363	ltpFR2	0	12	FIREPLACE	570	n/a	n/a	0	0	0
3151.28271484375	n/a	WORD	6453827	wordpools/wasnorm_wordpool_576.txt	LTP363	ltpFR2	0	12	DRESS	495	n/a	n/a	0	0	0
3153.9326171875	n/a	WORD	6459254	wordpools/wasnorm_wordpool_576.txt	LTP363	ltpFR2	0	12	KITCHEN	778	n/a	n/a	0	0	0
3156.447265625	n/a	WORD	6464404	wordpools/wasnorm_wordpool_576.txt	LTP363	ltpFR2	0	12	CONTRACT	368	n/a	n/a	0	0	0
3158.0634765625	n/a	START	6467714	n/a	LTP363	ltpFR2	0	n/a	n/a	n/a	19	n/a	n/a	n/a	n/a
3159.1494140625	n/a	DISTRACTOR	6469938	n/a	LTP363	ltpFR2	0	12	n/a	n/a	n/a	n/a	0	0	0
3159.16259765625	n/a	PROB	6469965	n/a	LTP363	ltpFR2	0	n/a	n/a	n/a	19	10	4	1	5
3161.01220703125	n/a	PROB	6473753	n/a	LTP363	ltpFR2	0	n/a	n/a	n/a	19	23	7	7	9
3163.47705078125	n/a	PROB	6478801	n/a	LTP363	ltpFR2	0	n/a	n/a	n/a	19	17	9	2	6
3166.576171875	n/a	PROB	6485148	n/a	LTP363	ltpFR2	0	n/a	n/a	n/a	19	20	5	6	9
3168.9091796875	n/a	PROB	6489926	n/a	LTP363	ltpFR2	0	n/a	n/a	n/a	19	26	9	8	9
3171.57421875	n/a	PROB	6495384	n/a	LTP363	ltpFR2	0	n/a	n/a	n/a	19	14	6	6	2
3173.22216796875	n/a	PROB	6498759	n/a	LTP363	ltpFR2	0	n/a	n/a	n/a	19	12	4	6	2
3175.6220703125	n/a	PROB	6503674	n/a	LTP363	ltpFR2	0	n/a	n/a	n/a	19	15	8	1	6
3177.32080078125	n/a	PROB	6507153	n/a	LTP363	ltpFR2	0	n/a	n/a	n/a	19	9	1	4	4
3179.31982421875	n/a	PROB	6511247	n/a	LTP363	ltpFR2	0	n/a	n/a	n/a	19	16	5	7	4
3181.02587890625	n/a	STOP	6514741	n/a	LTP363	ltpFR2	0	n/a	n/a	n/a	19	n/a	n/a	n/a	n/a
3183.8515625	n/a	REC_START	6520528	n/a	LTP363	ltpFR2	0	12	n/a	n/a	n/a	n/a	0	0	0
3185.08056640625	n/a	REC_WORD	6523045	wordpools/wasnorm_wordpool_576.txt	LTP363	ltpFR2	0	12	LACE	792	n/a	n/a	0	0	0
3186.00439453125	n/a	REC_WORD	6524937	wordpools/wasnorm_wordpool_576.txt	LTP363	ltpFR2	0	12	GLOVE	642	n/a	n/a	0	0	0
3187.15966796875	n/a	REC_WORD	6527303	wordpools/wasnorm_wordpool_576.txt	LTP363	ltpFR2	0	12	DRESS	495	n/a	n/a	0	0	0
3192.568359375	n/a	REC_WORD	6538380	wordpools/wasnorm_wordpool_576.txt	LTP363	ltpFR2	0	12	FUNERAL	613	n/a	n/a	0	0	0
3195.26904296875	n/a	REC_WORD	6543911	wordpools/wasnorm_wordpool_576.txt	LTP363	ltpFR2	0	12	SCOTCH	1251	n/a	n/a	0	0	0
3197.5263671875	n/a	REC_WORD	6548534	wordpools/wasnorm_wordpool_576.txt	LTP363	ltpFR2	0	12	CONTRACT	368	n/a	n/a	0	0	0
3200.126953125	n/a	REC_WORD	6553860	wordpools/wasnorm_wordpool_576.txt	LTP363	ltpFR2	0	12	WAITRESS	1581	n/a	n/a	0	0	0
3200.904296875	n/a	REC_WORD	6555452	wordpools/wasnorm_wordpool_576.txt	LTP363	ltpFR2	0	12	CAFE	216	n/a	n/a	0	0	0
3203.15625	n/a	REC_WORD	6560064	wordpools/wasnorm_wordpool_576.txt	LTP363	ltpFR2	0	12	LUNCH	849	n/a	n/a	0	0	0
3207.84912109375	n/a	REC_WORD	6569675	wordpools/wasnorm_wordpool_576.txt	LTP363	ltpFR2	0	12	OFFICE	972	n/a	n/a	0	0	0
3214.2724609375	n/a	REC_WORD	6582830	wordpools/wasnorm_wordpool_576.txt	LTP363	ltpFR2	0	12	ROMANCE	-1	n/a	n/a	0	0	0
3282.603515625	n/a	WORD	6722772	wordpools/wasnorm_wordpool_576.txt	LTP363	ltpFR2	0	13	BRICK	172	n/a	n/a	0	0	0
3285.28466796875	n/a	WORD	6728263	wordpools/wasnorm_wordpool_576.txt	LTP363	ltpFR2	0	13	CRIB	407	n/a	n/a	0	0	0
3287.8515625	n/a	WORD	6733520	wordpools/wasnorm_wordpool_576.txt	LTP363	ltpFR2	0	13	GOBLIN	645	n/a	n/a	0	0	0
3290.49951171875	n/a	WORD	6738943	wordpools/wasnorm_wordpool_576.txt	LTP363	ltpFR2	0	13	WIFE	1609	n/a	n/a	0	0	0
3292.982421875	n/a	WORD	6744028	wordpools/wasnorm_wordpool_576.txt	LTP363	ltpFR2	0	13	YOLK	1633	n/a	n/a	0	0	0
3295.68115234375	n/a	WORD	6749555	wordpools/wasnorm_wordpool_576.txt	LTP363	ltpFR2	0	13	MUFFIN	929	n/a	n/a	0	0	0
3298.4453125	n/a	WORD	6755216	wordpools/wasnorm_wordpool_576.txt	LTP363	ltpFR2	0	13	CHEMIST	292	n/a	n/a	0	0	0
3301.17724609375	n/a	WORD	6760811	wordpools/wasnorm_wordpool_576.txt	LTP363	ltpFR2	0	13	FLASK	576	n/a	n/a	0	0	0
3303.9931640625	n/a	WORD	6766578	wordpools/wasnorm_wordpool_576.txt	LTP363	ltpFR2	0	13	PUPPY	1144	n/a	n/a	0	0	0
3306.6259765625	n/a	WORD	6771970	wordpools/wasnorm_wordpool_576.txt	LTP363	ltpFR2	0	13	RABBIT	1152	n/a	n/a	0	0	0
3309.2568359375	n/a	WORD	6777358	wordpools/wasnorm_wordpool_576.txt	LTP363	ltpFR2	0	13	INFANT	737	n/a	n/a	0	0	0
3311.97265625	n/a	WORD	6782920	wordpools/wasnorm_wordpool_576.txt	LTP363	ltpFR2	0	13	SHELF	1280	n/a	n/a	0	0	0
3314.6044921875	n/a	WORD	6788310	wordpools/wasnorm_wordpool_576.txt	LTP363	ltpFR2	0	13	PEDAL	1037	n/a	n/a	0	0	0
3317.185546875	n/a	WORD	6793596	wordpools/wasnorm_wordpool_576.txt	LTP363	ltpFR2	0	13	SPACE	1345	n/a	n/a	0	0	0
3319.9853515625	n/a	WORD	6799330	wordpools/wasnorm_wordpool_576.txt	LTP363	ltpFR2	0	13	ROCKET	1202	n/a	n/a	0	0	0
3322.4501953125	n/a	WORD	6804378	wordpools/wasnorm_wordpool_576.txt	LTP363	ltpFR2	0	13	HUSBAND	728	n/a	n/a	0	0	0
3325.0654296875	n/a	WORD	6809734	wordpools/wasnorm_wordpool_576.txt	LTP363	ltpFR2	0	13	EXPERT	543	n/a	n/a	0	0	0
3327.6982421875	n/a	WORD	6815126	wordpools/wasnorm_wordpool_576.txt	LTP363	ltpFR2	0	13	BATHTUB	100	n/a	n/a	0	0	0
3330.18017578125	n/a	WORD	6820209	wordpools/wasnorm_wordpool_576.txt	LTP363	ltpFR2	0	13	HEART	697	n/a	n/a	0	0	0
3332.72900390625	n/a	WORD	6825429	wordpools/wasnorm_wordpool_576.txt	LTP363	ltpFR2	0	13	QUAIL	1147	n/a	n/a	0	0	0
3335.34423828125	n/a	WORD	6830785	wordpools/wasnorm_wordpool_576.txt	LTP363	ltpFR2	0	13	COUCH	386	n/a	n/a	0	0	0
3337.7939453125	n/a	WORD	6835802	wordpools/wasnorm_wordpool_576.txt	LTP363	ltpFR2	0	13	KEEPER	769	n/a	n/a	0	0	0
3340.47509765625	n/a	WORD	6841293	wordpools/wasnorm_wordpool_576.txt	LTP363	ltpFR2	0	13	PLASTER	1085	n/a	n/a	0	0	0
3342.9580078125	n/a	WORD	6846378	wordpools/wasnorm_wordpool_576.txt	LTP363	ltpFR2	0	13	DOLPHIN	483	n/a	n/a	0	0	0
3344.57373046875	n/a	START	6849687	n/a	LTP363	ltpFR2	0	n/a	n/a	n/a	20	n/a	n/a	n/a	n/a
3345.58349609375	n/a	DISTRACTOR	6851755	n/a	LTP363	ltpFR2	0	13	n/a	n/a	n/a	n/a	0	0	0
3345.58984375	n/a	PROB	6851768	n/a	LTP363	ltpFR2	0	n/a	n/a	n/a	20	13	5	1	7
3347.9716796875	n/a	PROB	6856646	n/a	LTP363	ltpFR2	0	n/a	n/a	n/a	20	14	8	1	5
3349.83740234375	n/a	PROB	6860467	n/a	LTP363	ltpFR2	0	n/a	n/a	n/a	20	17	5	4	8
3351.9033203125	n/a	PROB	6864698	n/a	LTP363	ltpFR2	0	n/a	n/a	n/a	20	17	9	4	4
3354.318359375	n/a	PROB	6869644	n/a	LTP363	ltpFR2	0	n/a	n/a	n/a	20	5	1	3	1
3355.55126953125	n/a	PROB	6872169	n/a	LTP363	ltpFR2	0	n/a	n/a	n/a	20	9	2	4	3
3357.2333984375	n/a	PROB	6875614	n/a	LTP363	ltpFR2	0	n/a	n/a	n/a	20	15	3	3	9
3359.80029296875	n/a	PROB	6880871	n/a	LTP363	ltpFR2	0	n/a	n/a	n/a	20	18	3	9	6
3363.26416015625	n/a	PROB	6887965	n/a	LTP363	ltpFR2	0	n/a	n/a	n/a	20	18	5	7	6
3365.580078125	n/a	PROB	6892708	n/a	LTP363	ltpFR2	0	n/a	n/a	n/a	20	12	2	6	4
3368.22509765625	n/a	STOP	6898125	n/a	LTP363	ltpFR2	0	n/a	n/a	n/a	20	n/a	n/a	n/a	n/a
3370.47705078125	n/a	REC_START	6902737	n/a	LTP363	ltpFR2	0	13	n/a	n/a	n/a	n/a	0	0	0
3371.5	n/a	REC_WORD	6904832	wordpools/wasnorm_wordpool_576.txt	LTP363	ltpFR2	0	13	PLASTER	1085	n/a	n/a	0	0	0
3374.23291015625	n/a	REC_WORD	6910429	wordpools/wasnorm_wordpool_576.txt	LTP363	ltpFR2	0	13	GOBLIN	645	n/a	n/a	0	0	0
3375.82763671875	n/a	REC_WORD	6913695	wordpools/wasnorm_wordpool_576.txt	LTP363	ltpFR2	0	13	BABY	64	n/a	n/a	0	0	0
3379.37646484375	n/a	REC_WORD	6920963	wordpools/wasnorm_wordpool_576.txt	LTP363	ltpFR2	0	13	SHELF	1280	n/a	n/a	0	0	0
3383.91455078125	n/a	REC_WORD	6930257	wordpools/wasnorm_wordpool_576.txt	LTP363	ltpFR2	0	13	BUNNY	198	n/a	n/a	0	0	0
3390.0654296875	n/a	REC_WORD	6942854	wordpools/wasnorm_wordpool_576.txt	LTP363	ltpFR2	0	13	PUPPY	1144	n/a	n/a	0	0	0
3393.42626953125	n/a	REC_WORD	6949737	wordpools/wasnorm_wordpool_576.txt	LTP363	ltpFR2	0	13	RABBIT	1152	n/a	n/a	0	0	0
3396.80322265625	n/a	REC_WORD	6956653	wordpools/wasnorm_wordpool_576.txt	LTP363	ltpFR2	0	13	DOLPHIN	483	n/a	n/a	0	0	0
3414.20458984375	n/a	REC_WORD	6992291	wordpools/wasnorm_wordpool_576.txt	LTP363	ltpFR2	0	13	MUFFIN	929	n/a	n/a	0	0	0
3416.09765625	n/a	REC_WORD	6996168	wordpools/wasnorm_wordpool_576.txt	LTP363	ltpFR2	0	13	HUSBAND	728	n/a	n/a	0	0	0
3418.36962890625	n/a	REC_WORD	7000821	wordpools/wasnorm_wordpool_576.txt	LTP363	ltpFR2	0	13	INFANT	737	n/a	n/a	0	0	0
3419.8623046875	n/a	REC_WORD	7003878	wordpools/wasnorm_wordpool_576.txt	LTP363	ltpFR2	0	13	YOLK	1633	n/a	n/a	0	0	0
3421.5234375	n/a	REC_WORD	7007280	wordpools/wasnorm_wordpool_576.txt	LTP363	ltpFR2	0	13	MUFFIN	929	n/a	n/a	0	0	0
3425.10009765625	n/a	REC_WORD	7014605	wordpools/wasnorm_wordpool_576.txt	LTP363	ltpFR2	0	13	BATHTUB	100	n/a	n/a	0	0	0
3428.607421875	n/a	REC_WORD	7021788	wordpools/wasnorm_wordpool_576.txt	LTP363	ltpFR2	0	13	COUCH	386	n/a	n/a	0	0	0
3432.4091796875	n/a	REC_WORD	7029574	wordpools/wasnorm_wordpool_576.txt	LTP363	ltpFR2	0	13	WIFE	1609	n/a	n/a	0	0	0
3475.142578125	n/a	DISTRACTOR	7117092	n/a	LTP363	ltpFR2	0	14	n/a	n/a	n/a	n/a	0	0	0
3475.142578125	n/a	START	7117092	n/a	LTP363	ltpFR2	0	n/a	n/a	n/a	21	n/a	n/a	n/a	n/a
3475.15966796875	n/a	PROB	7117127	n/a	LTP363	ltpFR2	0	n/a	n/a	n/a	21	21	7	5	9
3477.45849609375	n/a	PROB	7121835	n/a	LTP363	ltpFR2	0	n/a	n/a	n/a	21	17	9	5	3
3479.5078125	n/a	PROB	7126032	n/a	LTP363	ltpFR2	0	n/a	n/a	n/a	21	13	3	4	6
3481.37353515625	n/a	PROB	7129853	n/a	LTP363	ltpFR2	0	n/a	n/a	n/a	21	18	7	5	6
3483.50537109375	n/a	PROB	7134219	n/a	LTP363	ltpFR2	0	n/a	n/a	n/a	21	16	9	1	6
3485.4375	n/a	PROB	7138176	n/a	LTP363	ltpFR2	0	n/a	n/a	n/a	21	21	5	9	7
3487.80419921875	n/a	PROB	7143023	n/a	LTP363	ltpFR2	0	n/a	n/a	n/a	21	13	7	5	1
3489.853515625	n/a	PROB	7147220	n/a	LTP363	ltpFR2	0	n/a	n/a	n/a	21	10	7	1	2
3491.619140625	n/a	PROB	7150836	n/a	LTP363	ltpFR2	0	n/a	n/a	n/a	21	22	7	6	9
3495.033203125	n/a	PROB	7157828	n/a	LTP363	ltpFR2	0	n/a	n/a	n/a	21	14	6	6	2
3497.19921875	n/a	PROB	7162264	n/a	LTP363	ltpFR2	0	n/a	n/a	n/a	21	13	9	1	3
3498.77783203125	n/a	STOP	7165497	n/a	LTP363	ltpFR2	0	n/a	n/a	n/a	21	n/a	n/a	n/a	n/a
3500.046875	n/a	WORD	7168096	wordpools/wasnorm_wordpool_576.txt	LTP363	ltpFR2	0	14	DAISY	435	n/a	n/a	0	0	0
3502.49609375	n/a	WORD	7173112	wordpools/wasnorm_wordpool_576.txt	LTP363	ltpFR2	0	14	AWARD	63	n/a	n/a	0	0	0
3505.0947265625	n/a	WORD	7178434	wordpools/wasnorm_wordpool_576.txt	LTP363	ltpFR2	0	14	UMPIRE	1535	n/a	n/a	0	0	0
3507.69482421875	n/a	WORD	7183759	wordpools/wasnorm_wordpool_576.txt	LTP363	ltpFR2	0	14	DRINK	498	n/a	n/a	0	0	0
3510.45849609375	n/a	WORD	7189419	wordpools/wasnorm_wordpool_576.txt	LTP363	ltpFR2	0	14	CAMEL	223	n/a	n/a	0	0	0
3513.19140625	n/a	WORD	7195016	wordpools/wasnorm_wordpool_576.txt	LTP363	ltpFR2	0	14	SOFTBALL	1343	n/a	n/a	0	0	0
3515.724609375	n/a	WORD	7200204	wordpools/wasnorm_wordpool_576.txt	LTP363	ltpFR2	0	14	SISTER	1312	n/a	n/a	0	0	0
3518.53857421875	n/a	WORD	7205967	wordpools/wasnorm_wordpool_576.txt	LTP363	ltpFR2	0	14	TORTOISE	1486	n/a	n/a	0	0	0
3521.28759765625	n/a	WORD	7211597	wordpools/wasnorm_wordpool_576.txt	LTP363	ltpFR2	0	14	PERMIT	1051	n/a	n/a	0	0	0
3523.75341796875	n/a	WORD	7216647	wordpools/wasnorm_wordpool_576.txt	LTP363	ltpFR2	0	14	DRUG	501	n/a	n/a	0	0	0
3526.5341796875	n/a	WORD	7222342	wordpools/wasnorm_wordpool_576.txt	LTP363	ltpFR2	0	14	JELLO	754	n/a	n/a	0	0	0
3529.033203125	n/a	WORD	7227460	wordpools/wasnorm_wordpool_576.txt	LTP363	ltpFR2	0	14	FEMALE	559	n/a	n/a	0	0	0
3531.75	n/a	WORD	7233024	wordpools/wasnorm_wordpool_576.txt	LTP363	ltpFR2	0	14	TWISTER	1530	n/a	n/a	0	0	0
3534.4140625	n/a	WORD	7238480	wordpools/wasnorm_wordpool_576.txt	LTP363	ltpFR2	0	14	CURTAIN	427	n/a	n/a	0	0	0
3537.095703125	n/a	WORD	7243972	wordpools/wasnorm_wordpool_576.txt	LTP363	ltpFR2	0	14	SWIMMER	1420	n/a	n/a	0	0	0
3539.7626953125	n/a	WORD	7249434	wordpools/wasnorm_wordpool_576.txt	LTP363	ltpFR2	0	14	FIREMAN	569	n/a	n/a	0	0	0
3542.34375	n/a	WORD	7254720	wordpools/wasnorm_wordpool_576.txt	LTP363	ltpFR2	0	14	GLASS	639	n/a	n/a	0	0	0
3545.04248046875	n/a	WORD	7260247	wordpools/wasnorm_wordpool_576.txt	LTP363	ltpFR2	0	14	MATTRESS	879	n/a	n/a	0	0	0
3547.62548828125	n/a	WORD	7265537	wordpools/wasnorm_wordpool_576.txt	LTP363	ltpFR2	0	14	PIGEON	1065	n/a	n/a	0	0	0
3550.1396484375	n/a	WORD	7270686	wordpools/wasnorm_wordpool_576.txt	LTP363	ltpFR2	0	14	SEAGULL	1261	n/a	n/a	0	0	0
3552.92236328125	n/a	WORD	7276385	wordpools/wasnorm_wordpool_576.txt	LTP363	ltpFR2	0	14	OYSTER	995	n/a	n/a	0	0	0
3555.67138671875	n/a	WORD	7282015	wordpools/wasnorm_wordpool_576.txt	LTP363	ltpFR2	0	14	LOFT	840	n/a	n/a	0	0	0
3558.4521484375	n/a	WORD	7287710	wordpools/wasnorm_wordpool_576.txt	LTP363	ltpFR2	0	14	BEAST	108	n/a	n/a	0	0	0
3561.1181640625	n/a	WORD	7293170	wordpools/wasnorm_wordpool_576.txt	LTP363	ltpFR2	0	14	GAZELLE	628	n/a	n/a	0	0	0
3562.7353515625	n/a	START	7296482	n/a	LTP363	ltpFR2	0	n/a	n/a	n/a	22	n/a	n/a	n/a	n/a
3563.6630859375	n/a	DISTRACTOR	7298382	n/a	LTP363	ltpFR2	0	14	n/a	n/a	n/a	n/a	0	0	0
3563.66796875	n/a	PROB	7298392	n/a	LTP363	ltpFR2	0	n/a	n/a	n/a	22	17	4	8	5
3566.31494140625	n/a	PROB	7303813	n/a	LTP363	ltpFR2	0	n/a	n/a	n/a	22	12	6	3	3
3569.14697265625	n/a	PROB	7309613	n/a	LTP363	ltpFR2	0	n/a	n/a	n/a	22	14	9	4	1
3571.24609375	n/a	PROB	7313912	n/a	LTP363	ltpFR2	0	n/a	n/a	n/a	22	22	6	7	9
3574.62890625	n/a	PROB	7320840	n/a	LTP363	ltpFR2	0	n/a	n/a	n/a	22	20	9	2	9
3576.61181640625	n/a	PROB	7324901	n/a	LTP363	ltpFR2	0	n/a	n/a	n/a	22	16	5	7	4
3578.61083984375	n/a	PROB	7328995	n/a	LTP363	ltpFR2	0	n/a	n/a	n/a	22	19	8	2	9
3580.62646484375	n/a	PROB	7333123	n/a	LTP363	ltpFR2	0	n/a	n/a	n/a	22	19	9	8	2
3582.6083984375	n/a	PROB	7337182	n/a	LTP363	ltpFR2	0	n/a	n/a	n/a	22	11	4	2	5
3584.28955078125	n/a	PROB	7340625	n/a	LTP363	ltpFR2	0	n/a	n/a	n/a	22	22	5	9	8
3586.529296875	n/a	STOP	7345212	n/a	LTP363	ltpFR2	0	n/a	n/a	n/a	22	n/a	n/a	n/a	n/a
3588.62255859375	n/a	REC_START	7349499	n/a	LTP363	ltpFR2	0	14	n/a	n/a	n/a	n/a	0	0	0
3589.84716796875	n/a	REC_WORD	7352007	wordpools/wasnorm_wordpool_576.txt	LTP363	ltpFR2	0	14	GAZELLE	628	n/a	n/a	0	0	0
3591.2392578125	n/a	REC_WORD	7354858	wordpools/wasnorm_wordpool_576.txt	LTP363	ltpFR2	0	14	BEAST	108	n/a	n/a	0	0	0
3593.27099609375	n/a	REC_WORD	7359019	wordpools/wasnorm_wordpool_576.txt	LTP363	ltpFR2	0	14	DAISY	435	n/a	n/a	0	0	0
3594.26025390625	n/a	REC_WORD	7361045	wordpools/wasnorm_wordpool_576.txt	LTP363	ltpFR2	0	14	TORTOISE	1486	n/a	n/a	0	0	0
3599.705078125	n/a	REC_WORD	7372196	wordpools/wasnorm_wordpool_576.txt	LTP363	ltpFR2	0	14	UMPIRE	1535	n/a	n/a	0	0	0
3600.462890625	n/a	REC_WORD	7373748	wordpools/wasnorm_wordpool_576.txt	LTP363	ltpFR2	0	14	SOFTBALL	1343	n/a	n/a	0	0	0
3601.75	n/a	REC_WORD	7376384	wordpools/wasnorm_wordpool_576.txt	LTP363	ltpFR2	0	14	SWIMMER	1420	n/a	n/a	0	0	0
3602.68212890625	n/a	REC_WORD	7378293	wordpools/wasnorm_wordpool_576.txt	LTP363	ltpFR2	0	14	TWISTER	1530	n/a	n/a	0	0	0
3603.82568359375	n/a	REC_WORD	7380635	wordpools/wasnorm_wordpool_576.txt	LTP363	ltpFR2	0	14	SISTER	1312	n/a	n/a	0	0	0
3607.8388671875	n/a	REC_WORD	7388854	wordpools/wasnorm_wordpool_576.txt	LTP363	ltpFR2	0	14	FEMALE	559	n/a	n/a	0	0	0
3612.232421875	n/a	REC_WORD	7397852	wordpools/wasnorm_wordpool_576.txt	LTP363	ltpFR2	0	14	AWARD	63	n/a	n/a	0	0	0
3645.57275390625	n/a	REC_WORD	7466133	wordpools/wasnorm_wordpool_576.txt	LTP363	ltpFR2	0	14	REWIND	-1	n/a	n/a	0	0	0
3691.47119140625	n/a	DISTRACTOR	7560133	n/a	LTP363	ltpFR2	0	15	n/a	n/a	n/a	n/a	0	0	0
3691.47119140625	n/a	START	7560133	n/a	LTP363	ltpFR2	0	n/a	n/a	n/a	23	n/a	n/a	n/a	n/a
3691.48828125	n/a	PROB	7560168	n/a	LTP363	ltpFR2	0	n/a	n/a	n/a	23	13	4	7	2
3694.4033203125	n/a	PROB	7566138	n/a	LTP363	ltpFR2	0	n/a	n/a	n/a	23	13	6	3	4
3696.81982421875	n/a	PROB	7571087	n/a	LTP363	ltpFR2	0	n/a	n/a	n/a	23	26	9	8	9
3700.15087890625	n/a	PROB	7577909	n/a	LTP363	ltpFR2	0	n/a	n/a	n/a	23	19	5	7	7
3702.14990234375	n/a	PROB	7582003	n/a	LTP363	ltpFR2	0	n/a	n/a	n/a	23	14	2	6	6
3704.048828125	n/a	PROB	7585892	n/a	LTP363	ltpFR2	0	n/a	n/a	n/a	23	17	7	2	8
3705.86572265625	n/a	PROB	7589613	n/a	LTP363	ltpFR2	0	n/a	n/a	n/a	23	15	5	5	5
3707.33056640625	n/a	PROB	7592613	n/a	LTP363	ltpFR2	0	n/a	n/a	n/a	23	13	8	2	3
3709.4794921875	n/a	PROB	7597014	n/a	LTP363	ltpFR2	0	n/a	n/a	n/a	23	18	6	5	7
3711.3115234375	n/a	PROB	7600766	n/a	LTP363	ltpFR2	0	n/a	n/a	n/a	23	14	4	9	1
3713.177734375	n/a	PROB	7604588	n/a	LTP363	ltpFR2	0	n/a	n/a	n/a	23	19	5	6	8
3714.8505859375	n/a	STOP	7608014	n/a	LTP363	ltpFR2	0	n/a	n/a	n/a	23	n/a	n/a	n/a	n/a
3716.359375	n/a	WORD	7611104	wordpools/wasnorm_wordpool_576.txt	LTP363	ltpFR2	0	15	CLIMBER	323	n/a	n/a	0	0	0
3718.9921875	n/a	WORD	7616496	wordpools/wasnorm_wordpool_576.txt	LTP363	ltpFR2	0	15	DRIVER	499	n/a	n/a	0	0	0
3721.64111328125	n/a	WORD	7621921	wordpools/wasnorm_wordpool_576.txt	LTP363	ltpFR2	0	15	CROSS	413	n/a	n/a	0	0	0
3724.3720703125	n/a	WORD	7627514	wordpools/wasnorm_wordpool_576.txt	LTP363	ltpFR2	0	15	SUMMIT	1405	n/a	n/a	0	0	0
3727.037109375	n/a	WORD	7632972	wordpools/wasnorm_wordpool_576.txt	LTP363	ltpFR2	0	15	SNAIL	1332	n/a	n/a	0	0	0
3729.47021484375	n/a	WORD	7637955	wordpools/wasnorm_wordpool_576.txt	LTP363	ltpFR2	0	15	BEAKER	104	n/a	n/a	0	0	0
3732.23486328125	n/a	WORD	7643617	wordpools/wasnorm_wordpool_576.txt	LTP363	ltpFR2	0	15	DONOR	485	n/a	n/a	0	0	0
3734.66796875	n/a	WORD	7648600	wordpools/wasnorm_wordpool_576.txt	LTP363	ltpFR2	0	15	PALACE	1006	n/a	n/a	0	0	0
3737.44873046875	n/a	WORD	7654295	wordpools/wasnorm_wordpool_576.txt	LTP363	ltpFR2	0	15	PRINCE	1124	n/a	n/a	0	0	0
3739.91552734375	n/a	WORD	7659347	wordpools/wasnorm_wordpool_576.txt	LTP363	ltpFR2	0	15	SLUG	1329	n/a	n/a	0	0	0
3742.380859375	n/a	WORD	7664396	wordpools/wasnorm_wordpool_576.txt	LTP363	ltpFR2	0	15	RELISH	1183	n/a	n/a	0	0	0
3744.9794921875	n/a	WORD	7669718	wordpools/wasnorm_wordpool_576.txt	LTP363	ltpFR2	0	15	COOKBOOK	373	n/a	n/a	0	0	0
3747.51171875	n/a	WORD	7674904	wordpools/wasnorm_wordpool_576.txt	LTP363	ltpFR2	0	15	TAXI	1438	n/a	n/a	0	0	0
3750.193359375	n/a	WORD	7680396	wordpools/wasnorm_wordpool_576.txt	LTP363	ltpFR2	0	15	BINDER	127	n/a	n/a	0	0	0
3752.70947265625	n/a	WORD	7685549	wordpools/wasnorm_wordpool_576.txt	LTP363	ltpFR2	0	15	CASHEW	253	n/a	n/a	0	0	0
3755.5234375	n/a	WORD	7691312	wordpools/wasnorm_wordpool_576.txt	LTP363	ltpFR2	0	15	CHIPMUNK	304	n/a	n/a	0	0	0
3758.30615234375	n/a	WORD	7697011	wordpools/wasnorm_wordpool_576.txt	LTP363	ltpFR2	0	15	PADDLE	1000	n/a	n/a	0	0	0
3760.7392578125	n/a	WORD	7701994	wordpools/wasnorm_wordpool_576.txt	LTP363	ltpFR2	0	15	YACHT	1629	n/a	n/a	0	0	0
3763.48583984375	n/a	WORD	7707619	wordpools/wasnorm_wordpool_576.txt	LTP363	ltpFR2	0	15	EAGLE	512	n/a	n/a	0	0	0
3766.03515625	n/a	WORD	7712840	wordpools/wasnorm_wordpool_576.txt	LTP363	ltpFR2	0	15	SHORTS	1293	n/a	n/a	0	0	0
3768.71875	n/a	WORD	7718336	wordpools/wasnorm_wordpool_576.txt	LTP363	ltpFR2	0	15	PISTON	1076	n/a	n/a	0	0	0
3771.265625	n/a	WORD	7723552	wordpools/wasnorm_wordpool_576.txt	LTP363	ltpFR2	0	15	SWAMP	1416	n/a	n/a	0	0	0
3773.78271484375	n/a	WORD	7728707	wordpools/wasnorm_wordpool_576.txt	LTP363	ltpFR2	0	15	SPOON	1357	n/a	n/a	0	0	0
3776.3466796875	n/a	WORD	7733958	wordpools/wasnorm_wordpool_576.txt	LTP363	ltpFR2	0	15	COFFEE	341	n/a	n/a	0	0	0
3777.96337890625	n/a	START	7737269	n/a	LTP363	ltpFR2	0	n/a	n/a	n/a	24	n/a	n/a	n/a	n/a
3778.857421875	n/a	DISTRACTOR	7739100	n/a	LTP363	ltpFR2	0	15	n/a	n/a	n/a	n/a	0	0	0
3778.86376953125	n/a	PROB	7739113	n/a	LTP363	ltpFR2	0	n/a	n/a	n/a	24	11	2	3	6
3780.5283203125	n/a	PROB	7742522	n/a	LTP363	ltpFR2	0	n/a	n/a	n/a	24	18	2	8	8
3782.24462890625	n/a	PROB	7746037	n/a	LTP363	ltpFR2	0	n/a	n/a	n/a	24	12	3	8	1
3784.89453125	n/a	PROB	7751464	n/a	LTP363	ltpFR2	0	n/a	n/a	n/a	24	13	9	1	3
3787.17529296875	n/a	PROB	7756135	n/a	LTP363	ltpFR2	0	n/a	n/a	n/a	24	15	2	7	6
3788.9423828125	n/a	PROB	7759754	n/a	LTP363	ltpFR2	0	n/a	n/a	n/a	24	15	6	3	6
3791.40625	n/a	PROB	7764800	n/a	LTP363	ltpFR2	0	n/a	n/a	n/a	24	17	6	8	3
3794.921875	n/a	PROB	7772000	n/a	LTP363	ltpFR2	0	n/a	n/a	n/a	24	13	4	1	8
3796.98779296875	n/a	PROB	7776231	n/a	LTP363	ltpFR2	0	n/a	n/a	n/a	24	19	4	3	7
3801.962890625	n/a	STOP	7786420	n/a	LTP363	ltpFR2	0	n/a	n/a	n/a	24	n/a	n/a	n/a	n/a
3803.8857421875	n/a	REC_START	7790358	n/a	LTP363	ltpFR2	0	15	n/a	n/a	n/a	n/a	0	0	0
3805.474609375	n/a	REC_WORD	7793612	wordpools/wasnorm_wordpool_576.txt	LTP363	ltpFR2	0	15	EAGLE	512	n/a	n/a	0	0	0
3806.4638671875	n/a	REC_WORD	7795638	wordpools/wasnorm_wordpool_576.txt	LTP363	ltpFR2	0	15	SHORTS	1293	n/a	n/a	0	0	0
3807.99853515625	n/a	REC_WORD	7798781	wordpools/wasnorm_wordpool_576.txt	LTP363	ltpFR2	0	15	PISTON	1076	n/a	n/a	0	0	0
3809.97265625	n/a	REC_WORD	7802824	wordpools/wasnorm_wordpool_576.txt	LTP363	ltpFR2	0	15	SWAMP	1416	n/a	n/a	0	0	0
3814.67236328125	n/a	REC_WORD	7812449	wordpools/wasnorm_wordpool_576.txt	LTP363	ltpFR2	0	15	SNAIL	1332	n/a	n/a	0	0	0
3815.318359375	n/a	REC_WORD	7813772	wordpools/wasnorm_wordpool_576.txt	LTP363	ltpFR2	0	15	SLUG	1329	n/a	n/a	0	0	0
3819.85107421875	n/a	REC_WORD	7823055	wordpools/wasnorm_wordpool_576.txt	LTP363	ltpFR2	0	15	PALACE	1006	n/a	n/a	0	0	0
3820.47607421875	n/a	REC_WORD	7824335	wordpools/wasnorm_wordpool_576.txt	LTP363	ltpFR2	0	15	PRINCE	1124	n/a	n/a	0	0	0
3826.36328125	n/a	REC_WORD	7836392	wordpools/wasnorm_wordpool_576.txt	LTP363	ltpFR2	0	15	SUMMIT	1405	n/a	n/a	0	0	0
3833.662109375	n/a	REC_WORD	7851340	wordpools/wasnorm_wordpool_576.txt	LTP363	ltpFR2	0	15	CROSS	413	n/a	n/a	0	0	0
3835.087890625	n/a	REC_WORD	7854260	wordpools/wasnorm_wordpool_576.txt	LTP363	ltpFR2	0	15	TAXI	1438	n/a	n/a	0	0	0
3835.884765625	n/a	REC_WORD	7855892	wordpools/wasnorm_wordpool_576.txt	LTP363	ltpFR2	0	15	DRIVER	499	n/a	n/a	0	0	0
3837.02294921875	n/a	REC_WORD	7858223	wordpools/wasnorm_wordpool_576.txt	LTP363	ltpFR2	0	15	CLIMBER	323	n/a	n/a	0	0	0
3840.45263671875	n/a	REC_WORD	7865247	wordpools/wasnorm_wordpool_576.txt	LTP363	ltpFR2	0	15	CASHEW	253	n/a	n/a	0	0	0
3849.08056640625	n/a	REC_WORD	7882917	wordpools/wasnorm_wordpool_576.txt	LTP363	ltpFR2	0	15	MOUNTAIN	924	n/a	n/a	0	0	0
3862.197265625	n/a	REC_WORD	7909780	wordpools/wasnorm_wordpool_576.txt	LTP363	ltpFR2	0	15	DONOR	485	n/a	n/a	0	0	0
3919.12841796875	n/a	WORD	8026375	wordpools/wasnorm_wordpool_576.txt	LTP363	ltpFR2	0	16	SHOVEL	1295	n/a	n/a	0	0	0
3921.6943359375	n/a	WORD	8031630	wordpools/wasnorm_wordpool_576.txt	LTP363	ltpFR2	0	16	THIEF	1456	n/a	n/a	0	0	0
3924.4091796875	n/a	WORD	8037190	wordpools/wasnorm_wordpool_576.txt	LTP363	ltpFR2	0	16	HIKER	708	n/a	n/a	0	0	0
3926.9580078125	n/a	WORD	8042410	wordpools/wasnorm_wordpool_576.txt	LTP363	ltpFR2	0	16	BIKE	125	n/a	n/a	0	0	0
3929.5400390625	n/a	WORD	8047698	wordpools/wasnorm_wordpool_576.txt	LTP363	ltpFR2	0	16	CASKET	255	n/a	n/a	0	0	0
3932.07177734375	n/a	WORD	8052883	wordpools/wasnorm_wordpool_576.txt	LTP363	ltpFR2	0	16	JAPAN	749	n/a	n/a	0	0	0
3934.50390625	n/a	WORD	8057864	wordpools/wasnorm_wordpool_576.txt	LTP363	ltpFR2	0	16	VIRUS	1572	n/a	n/a	0	0	0
3936.98681640625	n/a	WORD	8062949	wordpools/wasnorm_wordpool_576.txt	LTP363	ltpFR2	0	16	IGLOO	734	n/a	n/a	0	0	0
3939.41748046875	n/a	WORD	8067927	wordpools/wasnorm_wordpool_576.txt	LTP363	ltpFR2	0	16	KLEENEX	782	n/a	n/a	0	0	0
3942.08349609375	n/a	WORD	8073387	wordpools/wasnorm_wordpool_576.txt	LTP363	ltpFR2	0	16	MARSH	874	n/a	n/a	0	0	0
3944.58349609375	n/a	WORD	8078507	wordpools/wasnorm_wordpool_576.txt	LTP363	ltpFR2	0	16	OINTMENT	974	n/a	n/a	0	0	0
3947.08154296875	n/a	WORD	8083623	wordpools/wasnorm_wordpool_576.txt	LTP363	ltpFR2	0	16	WRENCH	1625	n/a	n/a	0	0	0
3949.58056640625	n/a	WORD	8088741	wordpools/wasnorm_wordpool_576.txt	LTP363	ltpFR2	0	16	HERO	706	n/a	n/a	0	0	0
3952.1455078125	n/a	WORD	8093994	wordpools/wasnorm_wordpool_576.txt	LTP363	ltpFR2	0	16	QUARTER	1148	n/a	n/a	0	0	0
3954.578125	n/a	WORD	8098976	wordpools/wasnorm_wordpool_576.txt	LTP363	ltpFR2	0	16	PERCH	1048	n/a	n/a	0	0	0
3957.05908203125	n/a	WORD	8104057	wordpools/wasnorm_wordpool_576.txt	LTP363	ltpFR2	0	16	ROBIN	1199	n/a	n/a	0	0	0
3959.4921875	n/a	WORD	8109040	wordpools/wasnorm_wordpool_576.txt	LTP363	ltpFR2	0	16	BLOCKADE	137	n/a	n/a	0	0	0
3961.97509765625	n/a	WORD	8114125	wordpools/wasnorm_wordpool_576.txt	LTP363	ltpFR2	0	16	HAND	683	n/a	n/a	0	0	0
3964.5400390625	n/a	WORD	8119378	wordpools/wasnorm_wordpool_576.txt	LTP363	ltpFR2	0	16	ARM	38	n/a	n/a	0	0	0
3967.32080078125	n/a	WORD	8125073	wordpools/wasnorm_wordpool_576.txt	LTP363	ltpFR2	0	16	DRESSER	496	n/a	n/a	0	0	0
3970.06982421875	n/a	WORD	8130703	wordpools/wasnorm_wordpool_576.txt	LTP363	ltpFR2	0	16	DAUGHTER	442	n/a	n/a	0	0	0
3972.83544921875	n/a	WORD	8136367	wordpools/wasnorm_wordpool_576.txt	LTP363	ltpFR2	0	16	HELMET	702	n/a	n/a	0	0	0
3975.28369140625	n/a	WORD	8141381	wordpools/wasnorm_wordpool_576.txt	LTP363	ltpFR2	0	16	TYPIST	1532	n/a	n/a	0	0	0
3977.93359375	n/a	WORD	8146808	wordpools/wasnorm_wordpool_576.txt	LTP363	ltpFR2	0	16	PARTNER	1017	n/a	n/a	0	0	0
3979.54931640625	n/a	START	8150117	n/a	LTP363	ltpFR2	0	n/a	n/a	n/a	25	n/a	n/a	n/a	n/a
3980.45556640625	n/a	DISTRACTOR	8151973	n/a	LTP363	ltpFR2	0	16	n/a	n/a	n/a	n/a	0	0	0
3980.46435546875	n/a	PROB	8151991	n/a	LTP363	ltpFR2	0	n/a	n/a	n/a	25	11	1	8	2
3982.564453125	n/a	PROB	8156292	n/a	LTP363	ltpFR2	0	n/a	n/a	n/a	25	14	3	3	8
3984.564453125	n/a	PROB	8160388	n/a	LTP363	ltpFR2	0	n/a	n/a	n/a	25	20	4	8	8
3987.8291015625	n/a	PROB	8167074	n/a	LTP363	ltpFR2	0	n/a	n/a	n/a	25	13	4	5	4
3989.828125	n/a	PROB	8171168	n/a	LTP363	ltpFR2	0	n/a	n/a	n/a	25	11	3	7	1
3991.29296875	n/a	PROB	8174168	n/a	LTP363	ltpFR2	0	n/a	n/a	n/a	25	13	3	4	6
3993.30908203125	n/a	PROB	8178297	n/a	LTP363	ltpFR2	0	n/a	n/a	n/a	25	11	1	2	8
3995.22412109375	n/a	PROB	8182219	n/a	LTP363	ltpFR2	0	n/a	n/a	n/a	25	16	7	1	8
3997.30712890625	n/a	PROB	8186485	n/a	LTP363	ltpFR2	0	n/a	n/a	n/a	25	6	1	1	4
3998.806640625	n/a	PROB	8189556	n/a	LTP363	ltpFR2	0	n/a	n/a	n/a	25	21	8	8	5
4003.548828125	n/a	STOP	8199268	n/a	LTP363	ltpFR2	0	n/a	n/a	n/a	25	n/a	n/a	n/a	n/a
4005.37060546875	n/a	REC_START	8202999	n/a	LTP363	ltpFR2	0	16	n/a	n/a	n/a	n/a	0	0	0
4006.9814453125	n/a	REC_WORD	8206298	wordpools/wasnorm_wordpool_576.txt	LTP363	ltpFR2	0	16	HELMET	702	n/a	n/a	0	0	0
4008.2763671875	n/a	REC_WORD	8208950	wordpools/wasnorm_wordpool_576.txt	LTP363	ltpFR2	0	16	BIKER	-1	n/a	n/a	0	0	0
4009.37158203125	n/a	REC_WORD	8211193	wordpools/wasnorm_wordpool_576.txt	LTP363	ltpFR2	0	16	HIKER	708	n/a	n/a	0	0	0
4013.9921875	n/a	REC_WORD	8220656	wordpools/wasnorm_wordpool_576.txt	LTP363	ltpFR2	0	16	ARM	38	n/a	n/a	0	0	0
4015.12451171875	n/a	REC_WORD	8222975	wordpools/wasnorm_wordpool_576.txt	LTP363	ltpFR2	0	16	HAND	683	n/a	n/a	0	0	0
4020.80712890625	n/a	REC_WORD	8234613	wordpools/wasnorm_wordpool_576.txt	LTP363	ltpFR2	0	16	THIEF	1456	n/a	n/a	0	0	0
4021.93310546875	n/a	REC_WORD	8236919	wordpools/wasnorm_wordpool_576.txt	LTP363	ltpFR2	0	16	SHOVEL	1295	n/a	n/a	0	0	0
4023.30810546875	n/a	REC_WORD	8239735	wordpools/wasnorm_wordpool_576.txt	LTP363	ltpFR2	0	16	CASKET	255	n/a	n/a	0	0	0
4042.24365234375	n/a	REC_WORD	8278515	wordpools/wasnorm_wordpool_576.txt	LTP363	ltpFR2	0	16	PERCH	1048	n/a	n/a	0	0	0
4043.279296875	n/a	REC_WORD	8280636	wordpools/wasnorm_wordpool_576.txt	LTP363	ltpFR2	0	16	ROBIN	1199	n/a	n/a	0	0	0
4044.50830078125	n/a	REC_WORD	8283153	wordpools/wasnorm_wordpool_576.txt	LTP363	ltpFR2	0	16	HERO	706	n/a	n/a	0	0	0
4075.8525390625	n/a	REC_WORD	8347346	wordpools/wasnorm_wordpool_576.txt	LTP363	ltpFR2	0	16	WRENCH	1625	n/a	n/a	0	0	0
4081.900390625	n/a	REST_REWET	8359732	n/a	LTP363	ltpFR2	0	16	n/a	n/a	n/a	n/a	0	0	0
4177.72021484375	n/a	WORD	8555971	wordpools/wasnorm_wordpool_576.txt	LTP363	ltpFR2	0	17	ROD	1203	n/a	n/a	0	0	0
4180.234375	n/a	WORD	8561120	wordpools/wasnorm_wordpool_576.txt	LTP363	ltpFR2	0	17	MAILBOX	857	n/a	n/a	0	0	0
4183.06640625	n/a	WORD	8566920	wordpools/wasnorm_wordpool_576.txt	LTP363	ltpFR2	0	17	PIZZA	1079	n/a	n/a	0	0	0
4185.55029296875	n/a	WORD	8572007	wordpools/wasnorm_wordpool_576.txt	LTP363	ltpFR2	0	17	IDOL	733	n/a	n/a	0	0	0
4188.1142578125	n/a	WORD	8577258	wordpools/wasnorm_wordpool_576.txt	LTP363	ltpFR2	0	17	BELLY	119	n/a	n/a	0	0	0
4190.630859375	n/a	WORD	8582412	wordpools/wasnorm_wordpool_576.txt	LTP363	ltpFR2	0	17	SAUSAGE	1238	n/a	n/a	0	0	0
4193.2119140625	n/a	WORD	8587698	wordpools/wasnorm_wordpool_576.txt	LTP363	ltpFR2	0	17	HOOK	715	n/a	n/a	0	0	0
4195.927734375	n/a	WORD	8593260	wordpools/wasnorm_wordpool_576.txt	LTP363	ltpFR2	0	17	SADDLE	1221	n/a	n/a	0	0	0
4198.52685546875	n/a	WORD	8598583	wordpools/wasnorm_wordpool_576.txt	LTP363	ltpFR2	0	17	FOREST	593	n/a	n/a	0	0	0
4201.12451171875	n/a	WORD	8603903	wordpools/wasnorm_wordpool_576.txt	LTP363	ltpFR2	0	17	MARINE	869	n/a	n/a	0	0	0
4203.5576171875	n/a	WORD	8608886	wordpools/wasnorm_wordpool_576.txt	LTP363	ltpFR2	0	17	DIVER	476	n/a	n/a	0	0	0
4205.98876953125	n/a	WORD	8613865	wordpools/wasnorm_wordpool_576.txt	LTP363	ltpFR2	0	17	GALLON	618	n/a	n/a	0	0	0
4208.78857421875	n/a	WORD	8619599	wordpools/wasnorm_wordpool_576.txt	LTP363	ltpFR2	0	17	LUMBER	848	n/a	n/a	0	0	0
4211.53759765625	n/a	WORD	8625229	wordpools/wasnorm_wordpool_576.txt	LTP363	ltpFR2	0	17	CEILING	265	n/a	n/a	0	0	0
4214.1181640625	n/a	WORD	8630514	wordpools/wasnorm_wordpool_576.txt	LTP363	ltpFR2	0	17	SHERIFF	1284	n/a	n/a	0	0	0
4216.60107421875	n/a	WORD	8635599	wordpools/wasnorm_wordpool_576.txt	LTP363	ltpFR2	0	17	CARRIAGE	248	n/a	n/a	0	0	0
4219.13232421875	n/a	WORD	8640783	wordpools/wasnorm_wordpool_576.txt	LTP363	ltpFR2	0	17	WAGON	1578	n/a	n/a	0	0	0
4221.56591796875	n/a	WORD	8645767	wordpools/wasnorm_wordpool_576.txt	LTP363	ltpFR2	0	17	CHAMPAGNE	278	n/a	n/a	0	0	0
4224.2470703125	n/a	WORD	8651258	wordpools/wasnorm_wordpool_576.txt	LTP363	ltpFR2	0	17	SCISSORS	1250	n/a	n/a	0	0	0
4227.02880859375	n/a	WORD	8656955	wordpools/wasnorm_wordpool_576.txt	LTP363	ltpFR2	0	17	HOUND	724	n/a	n/a	0	0	0
4229.74462890625	n/a	WORD	8662517	wordpools/wasnorm_wordpool_576.txt	LTP363	ltpFR2	0	17	BUBBLE	183	n/a	n/a	0	0	0
4232.3095703125	n/a	WORD	8667770	wordpools/wasnorm_wordpool_576.txt	LTP363	ltpFR2	0	17	MUSTARD	935	n/a	n/a	0	0	0
4234.8095703125	n/a	WORD	8672890	wordpools/wasnorm_wordpool_576.txt	LTP363	ltpFR2	0	17	VALVE	1546	n/a	n/a	0	0	0
4237.4736328125	n/a	WORD	8678346	wordpools/wasnorm_wordpool_576.txt	LTP363	ltpFR2	0	17	BRANDY	169	n/a	n/a	0	0	0
4239.08935546875	n/a	START	8681655	n/a	LTP363	ltpFR2	0	n/a	n/a	n/a	26	n/a	n/a	n/a	n/a
4239.9736328125	n/a	DISTRACTOR	8683466	n/a	LTP363	ltpFR2	0	17	n/a	n/a	n/a	n/a	0	0	0
4239.98974609375	n/a	PROB	8683499	n/a	LTP363	ltpFR2	0	n/a	n/a	n/a	26	13	9	3	1
4242.271484375	n/a	PROB	8688172	n/a	LTP363	ltpFR2	0	n/a	n/a	n/a	26	11	3	4	4
4244.67138671875	n/a	PROB	8693087	n/a	LTP363	ltpFR2	0	n/a	n/a	n/a	26	17	2	9	6
4247.5185546875	n/a	PROB	8698918	n/a	LTP363	ltpFR2	0	n/a	n/a	n/a	26	13	2	8	3
4249.10107421875	n/a	PROB	8702159	n/a	LTP363	ltpFR2	0	n/a	n/a	n/a	26	21	3	9	9
4252.0	n/a	PROB	8708096	n/a	LTP363	ltpFR2	0	n/a	n/a	n/a	26	16	9	4	3
4254.34912109375	n/a	PROB	8712907	n/a	LTP363	ltpFR2	0	n/a	n/a	n/a	26	18	8	5	5
4257.296875	n/a	PROB	8718944	n/a	LTP363	ltpFR2	0	n/a	n/a	n/a	26	7	2	3	2
4258.880859375	n/a	PROB	8722188	n/a	LTP363	ltpFR2	0	n/a	n/a	n/a	26	18	3	6	9
4261.412109375	n/a	PROB	8727372	n/a	LTP363	ltpFR2	0	n/a	n/a	n/a	26	12	1	4	7
4262.9541015625	n/a	STOP	8730530	n/a	LTP363	ltpFR2	0	n/a	n/a	n/a	26	n/a	n/a	n/a	n/a
4264.9619140625	n/a	REC_START	8734642	n/a	LTP363	ltpFR2	0	17	n/a	n/a	n/a	n/a	0	0	0
4266.130859375	n/a	REC_WORD	8737036	wordpools/wasnorm_wordpool_576.txt	LTP363	ltpFR2	0	17	BRANDY	169	n/a	n/a	0	0	0
4267.16455078125	n/a	REC_WORD	8739153	wordpools/wasnorm_wordpool_576.txt	LTP363	ltpFR2	0	17	PIZZA	1079	n/a	n/a	0	0	0
4268.8095703125	n/a	REC_WORD	8742522	wordpools/wasnorm_wordpool_576.txt	LTP363	ltpFR2	0	17	MAILBOX	857	n/a	n/a	0	0	0
4269.8095703125	n/a	REC_WORD_VV	8744570	wordpools/wasnorm_wordpool_576.txt	LTP363	ltpFR2	0	17	<>	-1	n/a	n/a	0	0	0
4272.314453125	n/a	REC_WORD	8749700	wordpools/wasnorm_wordpool_576.txt	LTP363	ltpFR2	0	17	SAUSAGE	1238	n/a	n/a	0	0	0
4273.345703125	n/a	REC_WORD	8751812	wordpools/wasnorm_wordpool_576.txt	LTP363	ltpFR2	0	17	MUSTARD	935	n/a	n/a	0	0	0
4276.54638671875	n/a	REC_WORD	8758367	wordpools/wasnorm_wordpool_576.txt	LTP363	ltpFR2	0	17	FOREST	593	n/a	n/a	0	0	0
4278.3955078125	n/a	REC_WORD	8762154	wordpools/wasnorm_wordpool_576.txt	LTP363	ltpFR2	0	17	HOUND	724	n/a	n/a	0	0	0
4283.18310546875	n/a	REC_WORD	8771959	wordpools/wasnorm_wordpool_576.txt	LTP363	ltpFR2	0	17	DIVER	476	n/a	n/a	0	0	0
4284.50439453125	n/a	REC_WORD	8774665	wordpools/wasnorm_wordpool_576.txt	LTP363	ltpFR2	0	17	HOOK	715	n/a	n/a	0	0	0
4285.826171875	n/a	REC_WORD	8777372	wordpools/wasnorm_wordpool_576.txt	LTP363	ltpFR2	0	17	MARINE	869	n/a	n/a	0	0	0
4287.4130859375	n/a	REC_WORD	8780622	wordpools/wasnorm_wordpool_576.txt	LTP363	ltpFR2	0	17	BUBBLE	183	n/a	n/a	0	0	0
