onset	duration	trial_type	sample	stim_file	subject	experiment	session	trial	item_name	item_num	list	answer	test_x	test_y	test_z
204.9658203125	n/a	SESS_START	419770	n/a	LTP367	ltpFR2	6	n/a	n/a	n/a	n/a	n/a	0	0	0
218.42724609375	n/a	START	447339	n/a	LTP367	ltpFR2	6	n/a	n/a	n/a	-1	n/a	n/a	n/a	n/a
218.45849609375	n/a	PROB	447403	n/a	LTP367	ltpFR2	6	n/a	n/a	n/a	-1	14	3	4	7
220.357421875	n/a	PROB	451292	n/a	LTP367	ltpFR2	6	n/a	n/a	n/a	-1	9	1	2	6
221.6240234375	n/a	PROB	453886	n/a	LTP367	ltpFR2	6	n/a	n/a	n/a	-1	22	9	4	9
223.84033203125	n/a	PROB	458425	n/a	LTP367	ltpFR2	6	n/a	n/a	n/a	-1	13	1	7	5
225.455078125	n/a	PROB	461732	n/a	LTP367	ltpFR2	6	n/a	n/a	n/a	-1	24	6	9	9
227.25390625	n/a	PROB	465416	n/a	LTP367	ltpFR2	6	n/a	n/a	n/a	-1	12	4	2	6
228.953125	n/a	STOP	468896	n/a	LTP367	ltpFR2	6	n/a	n/a	n/a	-1	n/a	n/a	n/a	n/a
259.7060546875	n/a	DISTRACTOR	531878	n/a	LTP367	ltpFR2	6	1	n/a	n/a	n/a	n/a	0	0	0
259.7060546875	n/a	START	531878	n/a	LTP367	ltpFR2	6	n/a	n/a	n/a	1	n/a	n/a	n/a	n/a
259.72314453125	n/a	PROB	531913	n/a	LTP367	ltpFR2	6	n/a	n/a	n/a	1	17	7	7	3
261.6220703125	n/a	PROB	535802	n/a	LTP367	ltpFR2	6	n/a	n/a	n/a	1	15	6	6	3
263.22119140625	n/a	PROB	539077	n/a	LTP367	ltpFR2	6	n/a	n/a	n/a	1	9	2	5	2
264.9541015625	n/a	PROB	542626	n/a	LTP367	ltpFR2	6	n/a	n/a	n/a	1	12	1	9	2
266.3349609375	n/a	PROB	545454	n/a	LTP367	ltpFR2	6	n/a	n/a	n/a	1	8	1	3	4
267.65185546875	n/a	PROB	548151	n/a	LTP367	ltpFR2	6	n/a	n/a	n/a	1	18	7	6	5
269.5849609375	n/a	PROB	552110	n/a	LTP367	ltpFR2	6	n/a	n/a	n/a	1	18	7	7	4
271.4326171875	n/a	PROB	555894	n/a	LTP367	ltpFR2	6	n/a	n/a	n/a	1	14	6	7	1
273.1328125	n/a	PROB	559376	n/a	LTP367	ltpFR2	6	n/a	n/a	n/a	1	11	6	4	1
274.46484375	n/a	PROB	562104	n/a	LTP367	ltpFR2	6	n/a	n/a	n/a	1	11	6	3	2
275.83154296875	n/a	PROB	564903	n/a	LTP367	ltpFR2	6	n/a	n/a	n/a	1	9	6	1	2
277.09765625	n/a	PROB	567496	n/a	LTP367	ltpFR2	6	n/a	n/a	n/a	1	15	2	6	7
278.79638671875	n/a	PROB	570975	n/a	LTP367	ltpFR2	6	n/a	n/a	n/a	1	9	4	1	4
279.9794921875	n/a	PROB	573398	n/a	LTP367	ltpFR2	6	n/a	n/a	n/a	1	25	9	9	7
283.70556640625	n/a	STOP	581029	n/a	LTP367	ltpFR2	6	n/a	n/a	n/a	1	n/a	n/a	n/a	n/a
284.7275390625	n/a	WORD	583122	wordpools/wasnorm_wordpool_576.txt	LTP367	ltpFR2	6	1	LABEL	790	n/a	n/a	0	0	0
287.29150390625	n/a	WORD	588373	wordpools/wasnorm_wordpool_576.txt	LTP367	ltpFR2	6	1	WORKER	1621	n/a	n/a	0	0	0
289.72509765625	n/a	WORD	593357	wordpools/wasnorm_wordpool_576.txt	LTP367	ltpFR2	6	1	AGENT	10	n/a	n/a	0	0	0
292.42236328125	n/a	WORD	598881	wordpools/wasnorm_wordpool_576.txt	LTP367	ltpFR2	6	1	CAPTIVE	240	n/a	n/a	0	0	0
295.0888671875	n/a	WORD	604342	wordpools/wasnorm_wordpool_576.txt	LTP367	ltpFR2	6	1	INMATE	738	n/a	n/a	0	0	0
297.62109375	n/a	WORD	609528	wordpools/wasnorm_wordpool_576.txt	LTP367	ltpFR2	6	1	BLUEPRINT	142	n/a	n/a	0	0	0
300.31884765625	n/a	WORD	615053	wordpools/wasnorm_wordpool_576.txt	LTP367	ltpFR2	6	1	WAGON	1578	n/a	n/a	0	0	0
302.96875	n/a	WORD	620480	wordpools/wasnorm_wordpool_576.txt	LTP367	ltpFR2	6	1	SHOULDER	1294	n/a	n/a	0	0	0
305.68359375	n/a	WORD	626040	wordpools/wasnorm_wordpool_576.txt	LTP367	ltpFR2	6	1	CHURCH	307	n/a	n/a	0	0	0
308.16552734375	n/a	WORD	631123	wordpools/wasnorm_wordpool_576.txt	LTP367	ltpFR2	6	1	BOYFRIEND	162	n/a	n/a	0	0	0
310.86474609375	n/a	WORD	636651	wordpools/wasnorm_wordpool_576.txt	LTP367	ltpFR2	6	1	TUNNEL	1519	n/a	n/a	0	0	0
313.5126953125	n/a	WORD	642074	wordpools/wasnorm_wordpool_576.txt	LTP367	ltpFR2	6	1	SHORTCAKE	1292	n/a	n/a	0	0	0
316.29443359375	n/a	WORD	647771	wordpools/wasnorm_wordpool_576.txt	LTP367	ltpFR2	6	1	SANDWICH	1232	n/a	n/a	0	0	0
318.7275390625	n/a	WORD	652754	wordpools/wasnorm_wordpool_576.txt	LTP367	ltpFR2	6	1	TERMITE	1451	n/a	n/a	0	0	0
321.45849609375	n/a	WORD	658347	wordpools/wasnorm_wordpool_576.txt	LTP367	ltpFR2	6	1	PATROL	1027	n/a	n/a	0	0	0
324.0419921875	n/a	WORD	663638	wordpools/wasnorm_wordpool_576.txt	LTP367	ltpFR2	6	1	GARLIC	624	n/a	n/a	0	0	0
326.70703125	n/a	WORD	669096	wordpools/wasnorm_wordpool_576.txt	LTP367	ltpFR2	6	1	STICKER	1382	n/a	n/a	0	0	0
329.2060546875	n/a	WORD	674214	wordpools/wasnorm_wordpool_576.txt	LTP367	ltpFR2	6	1	ASIA	46	n/a	n/a	0	0	0
331.705078125	n/a	WORD	679332	wordpools/wasnorm_wordpool_576.txt	LTP367	ltpFR2	6	1	HATCHET	691	n/a	n/a	0	0	0
334.40283203125	n/a	WORD	684857	wordpools/wasnorm_wordpool_576.txt	LTP367	ltpFR2	6	1	WITNESS	1618	n/a	n/a	0	0	0
336.95166015625	n/a	WORD	690077	wordpools/wasnorm_wordpool_576.txt	LTP367	ltpFR2	6	1	CANDY	230	n/a	n/a	0	0	0
339.73388671875	n/a	WORD	695775	wordpools/wasnorm_wordpool_576.txt	LTP367	ltpFR2	6	1	PEBBLE	1035	n/a	n/a	0	0	0
342.216796875	n/a	WORD	700860	wordpools/wasnorm_wordpool_576.txt	LTP367	ltpFR2	6	1	SWAMP	1416	n/a	n/a	0	0	0
344.9658203125	n/a	WORD	706490	wordpools/wasnorm_wordpool_576.txt	LTP367	ltpFR2	6	1	LEG	809	n/a	n/a	0	0	0
346.58154296875	n/a	START	709799	n/a	LTP367	ltpFR2	6	n/a	n/a	n/a	2	n/a	n/a	n/a	n/a
347.4755859375	n/a	DISTRACTOR	711630	n/a	LTP367	ltpFR2	6	1	n/a	n/a	n/a	n/a	0	0	0
347.4794921875	n/a	PROB	711638	n/a	LTP367	ltpFR2	6	n/a	n/a	n/a	2	16	6	7	3
349.29541015625	n/a	PROB	715357	n/a	LTP367	ltpFR2	6	n/a	n/a	n/a	2	20	9	6	5
351.1953125	n/a	PROB	719248	n/a	LTP367	ltpFR2	6	n/a	n/a	n/a	2	8	1	3	4
352.443359375	n/a	PROB	721804	n/a	LTP367	ltpFR2	6	n/a	n/a	n/a	2	23	7	9	7
355.04345703125	n/a	PROB	727129	n/a	LTP367	ltpFR2	6	n/a	n/a	n/a	2	13	3	9	1
356.42529296875	n/a	PROB	729959	n/a	LTP367	ltpFR2	6	n/a	n/a	n/a	2	12	1	6	5
357.775390625	n/a	PROB	732724	n/a	LTP367	ltpFR2	6	n/a	n/a	n/a	2	11	2	6	3
361.373046875	n/a	PROB	740092	n/a	LTP367	ltpFR2	6	n/a	n/a	n/a	2	13	1	4	8
364.13916015625	n/a	PROB	745757	n/a	LTP367	ltpFR2	6	n/a	n/a	n/a	2	7	1	3	3
365.2880859375	n/a	PROB	748110	n/a	LTP367	ltpFR2	6	n/a	n/a	n/a	2	20	7	8	5
368.3857421875	n/a	PROB	754454	n/a	LTP367	ltpFR2	6	n/a	n/a	n/a	2	15	1	6	8
369.89697265625	n/a	STOP	757549	n/a	LTP367	ltpFR2	6	n/a	n/a	n/a	2	n/a	n/a	n/a	n/a
372.36767578125	n/a	REC_START	762609	n/a	LTP367	ltpFR2	6	1	n/a	n/a	n/a	n/a	0	0	0
375.54052734375	n/a	REC_WORD	769107	wordpools/wasnorm_wordpool_576.txt	LTP367	ltpFR2	6	1	WORKER	1621	n/a	n/a	0	0	0
377.63671875	n/a	REC_WORD	773400	wordpools/wasnorm_wordpool_576.txt	LTP367	ltpFR2	6	1	LABEL	790	n/a	n/a	0	0	0
378.86083984375	n/a	REC_WORD	775907	wordpools/wasnorm_wordpool_576.txt	LTP367	ltpFR2	6	1	AGENT	10	n/a	n/a	0	0	0
381.41552734375	n/a	REC_WORD	781139	wordpools/wasnorm_wordpool_576.txt	LTP367	ltpFR2	6	1	CAPTIVE	240	n/a	n/a	0	0	0
383.91748046875	n/a	REC_WORD	786263	wordpools/wasnorm_wordpool_576.txt	LTP367	ltpFR2	6	1	INMATE	738	n/a	n/a	0	0	0
388.5732421875	n/a	REC_WORD	795798	wordpools/wasnorm_wordpool_576.txt	LTP367	ltpFR2	6	1	WAGON	1578	n/a	n/a	0	0	0
390.63037109375	n/a	REC_WORD	800011	wordpools/wasnorm_wordpool_576.txt	LTP367	ltpFR2	6	1	SHOULDER	1294	n/a	n/a	0	0	0
393.16748046875	n/a	REC_WORD	805207	wordpools/wasnorm_wordpool_576.txt	LTP367	ltpFR2	6	1	CHURCH	307	n/a	n/a	0	0	0
395.4443359375	n/a	REC_WORD	809870	wordpools/wasnorm_wordpool_576.txt	LTP367	ltpFR2	6	1	TUNNEL	1519	n/a	n/a	0	0	0
397.17724609375	n/a	REC_WORD	813419	wordpools/wasnorm_wordpool_576.txt	LTP367	ltpFR2	6	1	SHORTCAKE	1292	n/a	n/a	0	0	0
398.56103515625	n/a	REC_WORD	816253	wordpools/wasnorm_wordpool_576.txt	LTP367	ltpFR2	6	1	SANDWICH	1232	n/a	n/a	0	0	0
400.1279296875	n/a	REC_WORD	819462	wordpools/wasnorm_wordpool_576.txt	LTP367	ltpFR2	6	1	TERMITE	1451	n/a	n/a	0	0	0
402.2958984375	n/a	REC_WORD	823902	wordpools/wasnorm_wordpool_576.txt	LTP367	ltpFR2	6	1	PATROL	1027	n/a	n/a	0	0	0
403.52099609375	n/a	REC_WORD	826411	wordpools/wasnorm_wordpool_576.txt	LTP367	ltpFR2	6	1	STICKER	1382	n/a	n/a	0	0	0
405.466796875	n/a	REC_WORD	830396	wordpools/wasnorm_wordpool_576.txt	LTP367	ltpFR2	6	1	ASIA	46	n/a	n/a	0	0	0
406.76904296875	n/a	REC_WORD	833063	wordpools/wasnorm_wordpool_576.txt	LTP367	ltpFR2	6	1	HATCHET	691	n/a	n/a	0	0	0
408.1826171875	n/a	REC_WORD	835958	wordpools/wasnorm_wordpool_576.txt	LTP367	ltpFR2	6	1	WITNESS	1618	n/a	n/a	0	0	0
409.583984375	n/a	REC_WORD	838828	wordpools/wasnorm_wordpool_576.txt	LTP367	ltpFR2	6	1	CANDY	230	n/a	n/a	0	0	0
411.0986328125	n/a	REC_WORD	841930	wordpools/wasnorm_wordpool_576.txt	LTP367	ltpFR2	6	1	LAGOON	795	n/a	n/a	0	0	0
411.7197265625	n/a	REC_WORD	843202	wordpools/wasnorm_wordpool_576.txt	LTP367	ltpFR2	6	1	SWAMP	1416	n/a	n/a	0	0	0
413.41064453125	n/a	REC_WORD	846665	wordpools/wasnorm_wordpool_576.txt	LTP367	ltpFR2	6	1	CANDY	230	n/a	n/a	0	0	0
414.85546875	n/a	REC_WORD	849624	wordpools/wasnorm_wordpool_576.txt	LTP367	ltpFR2	6	1	PEBBLE	1035	n/a	n/a	0	0	0
416.08544921875	n/a	REC_WORD	852143	wordpools/wasnorm_wordpool_576.txt	LTP367	ltpFR2	6	1	LEG	809	n/a	n/a	0	0	0
421.859375	n/a	REC_WORD	863968	wordpools/wasnorm_wordpool_576.txt	LTP367	ltpFR2	6	1	BOYFRIEND	162	n/a	n/a	0	0	0
462.8251953125	n/a	WORD	947866	wordpools/wasnorm_wordpool_576.txt	LTP367	ltpFR2	6	2	QUEEN	1149	n/a	n/a	0	0	0
465.50634765625	n/a	WORD	953357	wordpools/wasnorm_wordpool_576.txt	LTP367	ltpFR2	6	2	POCKET	1093	n/a	n/a	0	0	0
467.97314453125	n/a	WORD	958409	wordpools/wasnorm_wordpool_576.txt	LTP367	ltpFR2	6	2	SHORTS	1293	n/a	n/a	0	0	0
470.6708984375	n/a	WORD	963934	wordpools/wasnorm_wordpool_576.txt	LTP367	ltpFR2	6	2	PATIENT	1024	n/a	n/a	0	0	0
473.26904296875	n/a	WORD	969255	wordpools/wasnorm_wordpool_576.txt	LTP367	ltpFR2	6	2	DENTIST	447	n/a	n/a	0	0	0
475.95166015625	n/a	WORD	974749	wordpools/wasnorm_wordpool_576.txt	LTP367	ltpFR2	6	2	COMPASS	358	n/a	n/a	0	0	0
478.5498046875	n/a	WORD	980070	wordpools/wasnorm_wordpool_576.txt	LTP367	ltpFR2	6	2	COOK	372	n/a	n/a	0	0	0
481.298828125	n/a	WORD	985700	wordpools/wasnorm_wordpool_576.txt	LTP367	ltpFR2	6	2	BACKBONE	66	n/a	n/a	0	0	0
483.86474609375	n/a	WORD	990955	wordpools/wasnorm_wordpool_576.txt	LTP367	ltpFR2	6	2	FEMALE	559	n/a	n/a	0	0	0
486.3466796875	n/a	WORD	996038	wordpools/wasnorm_wordpool_576.txt	LTP367	ltpFR2	6	2	ORANGE	980	n/a	n/a	0	0	0
488.96240234375	n/a	WORD	1001395	wordpools/wasnorm_wordpool_576.txt	LTP367	ltpFR2	6	2	CLIMBER	323	n/a	n/a	0	0	0
491.4775390625	n/a	WORD	1006546	wordpools/wasnorm_wordpool_576.txt	LTP367	ltpFR2	6	2	GARBAGE	622	n/a	n/a	0	0	0
494.12646484375	n/a	WORD	1011971	wordpools/wasnorm_wordpool_576.txt	LTP367	ltpFR2	6	2	LAKE	796	n/a	n/a	0	0	0
496.75927734375	n/a	WORD	1017363	wordpools/wasnorm_wordpool_576.txt	LTP367	ltpFR2	6	2	STREAM	1392	n/a	n/a	0	0	0
499.22412109375	n/a	WORD	1022411	wordpools/wasnorm_wordpool_576.txt	LTP367	ltpFR2	6	2	RELISH	1183	n/a	n/a	0	0	0
501.92333984375	n/a	WORD	1027939	wordpools/wasnorm_wordpool_576.txt	LTP367	ltpFR2	6	2	CHILD	299	n/a	n/a	0	0	0
504.587890625	n/a	WORD	1033396	wordpools/wasnorm_wordpool_576.txt	LTP367	ltpFR2	6	2	HIKER	708	n/a	n/a	0	0	0
507.302734375	n/a	WORD	1038956	wordpools/wasnorm_wordpool_576.txt	LTP367	ltpFR2	6	2	SUPPER	1411	n/a	n/a	0	0	0
509.90283203125	n/a	WORD	1044281	wordpools/wasnorm_wordpool_576.txt	LTP367	ltpFR2	6	2	TRUCK	1512	n/a	n/a	0	0	0
512.3837890625	n/a	WORD	1049362	wordpools/wasnorm_wordpool_576.txt	LTP367	ltpFR2	6	2	SCALLOP	1242	n/a	n/a	0	0	0
515.0498046875	n/a	WORD	1054822	wordpools/wasnorm_wordpool_576.txt	LTP367	ltpFR2	6	2	RAFT	1159	n/a	n/a	0	0	0
517.56591796875	n/a	WORD	1059975	wordpools/wasnorm_wordpool_576.txt	LTP367	ltpFR2	6	2	FLESH	579	n/a	n/a	0	0	0
520.263671875	n/a	WORD	1065500	wordpools/wasnorm_wordpool_576.txt	LTP367	ltpFR2	6	2	DONOR	485	n/a	n/a	0	0	0
522.8466796875	n/a	WORD	1070790	wordpools/wasnorm_wordpool_576.txt	LTP367	ltpFR2	6	2	TOASTER	1472	n/a	n/a	0	0	0
524.46142578125	n/a	START	1074097	n/a	LTP367	ltpFR2	6	n/a	n/a	n/a	3	n/a	n/a	n/a	n/a
525.34326171875	n/a	DISTRACTOR	1075903	n/a	LTP367	ltpFR2	6	2	n/a	n/a	n/a	n/a	0	0	0
525.3603515625	n/a	PROB	1075938	n/a	LTP367	ltpFR2	6	n/a	n/a	n/a	3	13	3	9	1
526.92724609375	n/a	PROB	1079147	n/a	LTP367	ltpFR2	6	n/a	n/a	n/a	3	10	5	3	2
529.34228515625	n/a	PROB	1084093	n/a	LTP367	ltpFR2	6	n/a	n/a	n/a	3	19	9	1	9
530.80908203125	n/a	PROB	1087097	n/a	LTP367	ltpFR2	6	n/a	n/a	n/a	3	19	3	9	7
532.158203125	n/a	PROB	1089860	n/a	LTP367	ltpFR2	6	n/a	n/a	n/a	3	21	9	3	8
534.07421875	n/a	PROB	1093784	n/a	LTP367	ltpFR2	6	n/a	n/a	n/a	3	22	5	8	9
536.3720703125	n/a	PROB	1098490	n/a	LTP367	ltpFR2	6	n/a	n/a	n/a	3	17	5	6	6
538.4208984375	n/a	PROB	1102686	n/a	LTP367	ltpFR2	6	n/a	n/a	n/a	3	19	9	5	5
539.9052734375	n/a	PROB	1105726	n/a	LTP367	ltpFR2	6	n/a	n/a	n/a	3	11	4	4	3
541.87109375	n/a	PROB	1109752	n/a	LTP367	ltpFR2	6	n/a	n/a	n/a	3	14	5	2	7
544.1689453125	n/a	PROB	1114458	n/a	LTP367	ltpFR2	6	n/a	n/a	n/a	3	25	7	8	7
546.18505859375	n/a	PROB	1118587	n/a	LTP367	ltpFR2	6	n/a	n/a	n/a	3	13	3	7	3
547.53662109375	n/a	STOP	1121355	n/a	LTP367	ltpFR2	6	n/a	n/a	n/a	3	n/a	n/a	n/a	n/a
550.349609375	n/a	REC_START	1127116	n/a	LTP367	ltpFR2	6	2	n/a	n/a	n/a	n/a	0	0	0
552.0625	n/a	REC_WORD	1130624	wordpools/wasnorm_wordpool_576.txt	LTP367	ltpFR2	6	2	QUEEN	1149	n/a	n/a	0	0	0
553.4365234375	n/a	REC_WORD	1133438	wordpools/wasnorm_wordpool_576.txt	LTP367	ltpFR2	6	2	POCKET	1093	n/a	n/a	0	0	0
554.52783203125	n/a	REC_WORD	1135673	wordpools/wasnorm_wordpool_576.txt	LTP367	ltpFR2	6	2	PATIENT	1024	n/a	n/a	0	0	0
555.681640625	n/a	REC_WORD	1138036	wordpools/wasnorm_wordpool_576.txt	LTP367	ltpFR2	6	2	DOCTOR	478	n/a	n/a	0	0	0
556.84375	n/a	REC_WORD	1140416	wordpools/wasnorm_wordpool_576.txt	LTP367	ltpFR2	6	2	COMPASS	358	n/a	n/a	0	0	0
558.01171875	n/a	REC_WORD	1142808	wordpools/wasnorm_wordpool_576.txt	LTP367	ltpFR2	6	2	COOK	372	n/a	n/a	0	0	0
559.0732421875	n/a	REC_WORD	1144982	wordpools/wasnorm_wordpool_576.txt	LTP367	ltpFR2	6	2	BACKBONE	66	n/a	n/a	0	0	0
560.029296875	n/a	REC_WORD	1146940	wordpools/wasnorm_wordpool_576.txt	LTP367	ltpFR2	6	2	FEMALE	559	n/a	n/a	0	0	0
563.32421875	n/a	REC_WORD	1153688	wordpools/wasnorm_wordpool_576.txt	LTP367	ltpFR2	6	2	CLIMBER	323	n/a	n/a	0	0	0
565.09130859375	n/a	REC_WORD	1157307	wordpools/wasnorm_wordpool_576.txt	LTP367	ltpFR2	6	2	GARBAGE	622	n/a	n/a	0	0	0
566.29150390625	n/a	REC_WORD	1159765	wordpools/wasnorm_wordpool_576.txt	LTP367	ltpFR2	6	2	LAKE	796	n/a	n/a	0	0	0
567.2763671875	n/a	REC_WORD	1161782	wordpools/wasnorm_wordpool_576.txt	LTP367	ltpFR2	6	2	STREAM	1392	n/a	n/a	0	0	0
569.87109375	n/a	REC_WORD	1167096	wordpools/wasnorm_wordpool_576.txt	LTP367	ltpFR2	6	2	ORANGE	980	n/a	n/a	0	0	0
571.126953125	n/a	REC_WORD	1169668	wordpools/wasnorm_wordpool_576.txt	LTP367	ltpFR2	6	2	SUPPER	1411	n/a	n/a	0	0	0
572.404296875	n/a	REC_WORD	1172284	wordpools/wasnorm_wordpool_576.txt	LTP367	ltpFR2	6	2	RELISH	1183	n/a	n/a	0	0	0
573.615234375	n/a	REC_WORD	1174764	wordpools/wasnorm_wordpool_576.txt	LTP367	ltpFR2	6	2	TRUCK	1512	n/a	n/a	0	0	0
574.89111328125	n/a	REC_WORD	1177377	wordpools/wasnorm_wordpool_576.txt	LTP367	ltpFR2	6	2	SCALLOP	1242	n/a	n/a	0	0	0
576.24609375	n/a	REC_WORD	1180152	wordpools/wasnorm_wordpool_576.txt	LTP367	ltpFR2	6	2	RAFT	1159	n/a	n/a	0	0	0
577.4228515625	n/a	REC_WORD	1182562	wordpools/wasnorm_wordpool_576.txt	LTP367	ltpFR2	6	2	FLESH	579	n/a	n/a	0	0	0
578.85107421875	n/a	REC_WORD	1185487	wordpools/wasnorm_wordpool_576.txt	LTP367	ltpFR2	6	2	DONOR	485	n/a	n/a	0	0	0
585.294921875	n/a	REC_WORD	1198684	wordpools/wasnorm_wordpool_576.txt	LTP367	ltpFR2	6	2	CHILD	299	n/a	n/a	0	0	0
586.462890625	n/a	REC_WORD	1201076	wordpools/wasnorm_wordpool_576.txt	LTP367	ltpFR2	6	2	HIKER	708	n/a	n/a	0	0	0
597.236328125	n/a	REC_WORD	1223140	wordpools/wasnorm_wordpool_576.txt	LTP367	ltpFR2	6	2	GRILL	661	n/a	n/a	0	0	0
597.6142578125	n/a	REC_WORD	1223914	wordpools/wasnorm_wordpool_576.txt	LTP367	ltpFR2	6	2	STOVE	1388	n/a	n/a	0	0	0
640.80615234375	n/a	WORD	1312371	wordpools/wasnorm_wordpool_576.txt	LTP367	ltpFR2	6	3	APRON	35	n/a	n/a	0	0	0
643.37109375	n/a	WORD	1317624	wordpools/wasnorm_wordpool_576.txt	LTP367	ltpFR2	6	3	CROSS	413	n/a	n/a	0	0	0
645.88720703125	n/a	WORD	1322777	wordpools/wasnorm_wordpool_576.txt	LTP367	ltpFR2	6	3	HIGHWAY	707	n/a	n/a	0	0	0
648.68603515625	n/a	WORD	1328509	wordpools/wasnorm_wordpool_576.txt	LTP367	ltpFR2	6	3	HORSE	719	n/a	n/a	0	0	0
651.48388671875	n/a	WORD	1334239	wordpools/wasnorm_wordpool_576.txt	LTP367	ltpFR2	6	3	TWIG	1527	n/a	n/a	0	0	0
654.11669921875	n/a	WORD	1339631	wordpools/wasnorm_wordpool_576.txt	LTP367	ltpFR2	6	3	WHISTLE	1606	n/a	n/a	0	0	0
656.8818359375	n/a	WORD	1345294	wordpools/wasnorm_wordpool_576.txt	LTP367	ltpFR2	6	3	REPORT	1184	n/a	n/a	0	0	0
659.49658203125	n/a	WORD	1350649	wordpools/wasnorm_wordpool_576.txt	LTP367	ltpFR2	6	3	SADDLE	1221	n/a	n/a	0	0	0
662.3115234375	n/a	WORD	1356414	wordpools/wasnorm_wordpool_576.txt	LTP367	ltpFR2	6	3	SKILLET	1317	n/a	n/a	0	0	0
665.09423828125	n/a	WORD	1362113	wordpools/wasnorm_wordpool_576.txt	LTP367	ltpFR2	6	3	PICNIC	1060	n/a	n/a	0	0	0
667.67626953125	n/a	WORD	1367401	wordpools/wasnorm_wordpool_576.txt	LTP367	ltpFR2	6	3	SUBWAY	1400	n/a	n/a	0	0	0
670.17529296875	n/a	WORD	1372519	wordpools/wasnorm_wordpool_576.txt	LTP367	ltpFR2	6	3	BRIEFCASE	175	n/a	n/a	0	0	0
672.75732421875	n/a	WORD	1377807	wordpools/wasnorm_wordpool_576.txt	LTP367	ltpFR2	6	3	SNAIL	1332	n/a	n/a	0	0	0
675.2392578125	n/a	WORD	1382890	wordpools/wasnorm_wordpool_576.txt	LTP367	ltpFR2	6	3	SLUG	1329	n/a	n/a	0	0	0
677.705078125	n/a	WORD	1387940	wordpools/wasnorm_wordpool_576.txt	LTP367	ltpFR2	6	3	NAPKIN	937	n/a	n/a	0	0	0
680.453125	n/a	WORD	1393568	wordpools/wasnorm_wordpool_576.txt	LTP367	ltpFR2	6	3	PUDDLE	1140	n/a	n/a	0	0	0
683.251953125	n/a	WORD	1399300	wordpools/wasnorm_wordpool_576.txt	LTP367	ltpFR2	6	3	SILK	1307	n/a	n/a	0	0	0
685.884765625	n/a	WORD	1404692	wordpools/wasnorm_wordpool_576.txt	LTP367	ltpFR2	6	3	BIKE	125	n/a	n/a	0	0	0
688.48291015625	n/a	WORD	1410013	wordpools/wasnorm_wordpool_576.txt	LTP367	ltpFR2	6	3	SUITCASE	1403	n/a	n/a	0	0	0
690.99853515625	n/a	WORD	1415165	wordpools/wasnorm_wordpool_576.txt	LTP367	ltpFR2	6	3	GROUND	666	n/a	n/a	0	0	0
693.4638671875	n/a	WORD	1420214	wordpools/wasnorm_wordpool_576.txt	LTP367	ltpFR2	6	3	TILE	1468	n/a	n/a	0	0	0
696.146484375	n/a	WORD	1425708	wordpools/wasnorm_wordpool_576.txt	LTP367	ltpFR2	6	3	GIFT	635	n/a	n/a	0	0	0
698.76171875	n/a	WORD	1431064	wordpools/wasnorm_wordpool_576.txt	LTP367	ltpFR2	6	3	PREACHER	1119	n/a	n/a	0	0	0
701.326171875	n/a	WORD	1436316	wordpools/wasnorm_wordpool_576.txt	LTP367	ltpFR2	6	3	HONEY	713	n/a	n/a	0	0	0
702.943359375	n/a	START	1439628	n/a	LTP367	ltpFR2	6	n/a	n/a	n/a	4	n/a	n/a	n/a	n/a
703.9482421875	n/a	DISTRACTOR	1441686	n/a	LTP367	ltpFR2	6	3	n/a	n/a	n/a	n/a	0	0	0
703.95947265625	n/a	PROB	1441709	n/a	LTP367	ltpFR2	6	n/a	n/a	n/a	4	17	7	4	6
705.775390625	n/a	PROB	1445428	n/a	LTP367	ltpFR2	6	n/a	n/a	n/a	4	16	1	8	7
707.5400390625	n/a	PROB	1449042	n/a	LTP367	ltpFR2	6	n/a	n/a	n/a	4	27	9	9	9
709.33935546875	n/a	PROB	1452727	n/a	LTP367	ltpFR2	6	n/a	n/a	n/a	4	6	2	3	1
711.15625	n/a	PROB	1456448	n/a	LTP367	ltpFR2	6	n/a	n/a	n/a	4	10	4	5	1
712.572265625	n/a	PROB	1459348	n/a	LTP367	ltpFR2	6	n/a	n/a	n/a	4	24	8	7	9
715.6201171875	n/a	PROB	1465590	n/a	LTP367	ltpFR2	6	n/a	n/a	n/a	4	17	7	8	2
717.15283203125	n/a	PROB	1468729	n/a	LTP367	ltpFR2	6	n/a	n/a	n/a	4	11	2	3	6
718.8359375	n/a	PROB	1472176	n/a	LTP367	ltpFR2	6	n/a	n/a	n/a	4	18	7	7	4
720.40087890625	n/a	PROB	1475381	n/a	LTP367	ltpFR2	6	n/a	n/a	n/a	4	23	7	6	8
723.03369140625	n/a	PROB	1480773	n/a	LTP367	ltpFR2	6	n/a	n/a	n/a	4	15	5	5	5
724.03271484375	n/a	PROB	1482819	n/a	LTP367	ltpFR2	6	n/a	n/a	n/a	4	17	6	4	7
726.71484375	n/a	STOP	1488312	n/a	LTP367	ltpFR2	6	n/a	n/a	n/a	4	n/a	n/a	n/a	n/a
728.71484375	n/a	REC_START	1492408	n/a	LTP367	ltpFR2	6	3	n/a	n/a	n/a	n/a	0	0	0
729.65283203125	n/a	REC_WORD	1494329	wordpools/wasnorm_wordpool_576.txt	LTP367	ltpFR2	6	3	APRON	35	n/a	n/a	0	0	0
730.62939453125	n/a	REC_WORD	1496329	wordpools/wasnorm_wordpool_576.txt	LTP367	ltpFR2	6	3	CROSS	413	n/a	n/a	0	0	0
731.74267578125	n/a	REC_WORD	1498609	wordpools/wasnorm_wordpool_576.txt	LTP367	ltpFR2	6	3	HIGHWAY	707	n/a	n/a	0	0	0
732.78759765625	n/a	REC_WORD	1500749	wordpools/wasnorm_wordpool_576.txt	LTP367	ltpFR2	6	3	HORSE	719	n/a	n/a	0	0	0
734.15625	n/a	REC_WORD	1503552	wordpools/wasnorm_wordpool_576.txt	LTP367	ltpFR2	6	3	TWIG	1527	n/a	n/a	0	0	0
735.365234375	n/a	REC_WORD	1506028	wordpools/wasnorm_wordpool_576.txt	LTP367	ltpFR2	6	3	WHISTLE	1606	n/a	n/a	0	0	0
736.279296875	n/a	REC_WORD	1507900	wordpools/wasnorm_wordpool_576.txt	LTP367	ltpFR2	6	3	REPORT	1184	n/a	n/a	0	0	0
737.3955078125	n/a	REC_WORD	1510186	wordpools/wasnorm_wordpool_576.txt	LTP367	ltpFR2	6	3	SADDLE	1221	n/a	n/a	0	0	0
738.33642578125	n/a	REC_WORD	1512113	wordpools/wasnorm_wordpool_576.txt	LTP367	ltpFR2	6	3	SKILLET	1317	n/a	n/a	0	0	0
739.58544921875	n/a	REC_WORD	1514671	wordpools/wasnorm_wordpool_576.txt	LTP367	ltpFR2	6	3	PICNIC	1060	n/a	n/a	0	0	0
740.63720703125	n/a	REC_WORD	1516825	wordpools/wasnorm_wordpool_576.txt	LTP367	ltpFR2	6	3	SUBWAY	1400	n/a	n/a	0	0	0
741.75146484375	n/a	REC_WORD	1519107	wordpools/wasnorm_wordpool_576.txt	LTP367	ltpFR2	6	3	SUITCASE	1403	n/a	n/a	0	0	0
742.9853515625	n/a	REC_WORD	1521634	wordpools/wasnorm_wordpool_576.txt	LTP367	ltpFR2	6	3	BRIEFCASE	175	n/a	n/a	0	0	0
744.0712890625	n/a	REC_WORD	1523858	wordpools/wasnorm_wordpool_576.txt	LTP367	ltpFR2	6	3	SNAIL	1332	n/a	n/a	0	0	0
745.10791015625	n/a	REC_WORD	1525981	wordpools/wasnorm_wordpool_576.txt	LTP367	ltpFR2	6	3	SLUG	1329	n/a	n/a	0	0	0
747.12890625	n/a	REC_WORD	1530120	wordpools/wasnorm_wordpool_576.txt	LTP367	ltpFR2	6	3	NAPKIN	937	n/a	n/a	0	0	0
748.84521484375	n/a	REC_WORD	1533635	wordpools/wasnorm_wordpool_576.txt	LTP367	ltpFR2	6	3	PUDDLE	1140	n/a	n/a	0	0	0
751.28076171875	n/a	REC_WORD	1538623	wordpools/wasnorm_wordpool_576.txt	LTP367	ltpFR2	6	3	SILK	1307	n/a	n/a	0	0	0
756.60498046875	n/a	REC_WORD	1549527	wordpools/wasnorm_wordpool_576.txt	LTP367	ltpFR2	6	3	BIKE	125	n/a	n/a	0	0	0
763.60546875	n/a	REC_WORD	1563864	wordpools/wasnorm_wordpool_576.txt	LTP367	ltpFR2	6	3	GIFT	635	n/a	n/a	0	0	0
764.5205078125	n/a	REC_WORD	1565738	wordpools/wasnorm_wordpool_576.txt	LTP367	ltpFR2	6	3	HONEY	713	n/a	n/a	0	0	0
765.517578125	n/a	REC_WORD	1567780	wordpools/wasnorm_wordpool_576.txt	LTP367	ltpFR2	6	3	PREACHER	1119	n/a	n/a	0	0	0
772.1474609375	n/a	REC_WORD	1581358	wordpools/wasnorm_wordpool_576.txt	LTP367	ltpFR2	6	3	GROUND	666	n/a	n/a	0	0	0
773.12939453125	n/a	REC_WORD	1583369	wordpools/wasnorm_wordpool_576.txt	LTP367	ltpFR2	6	3	TILE	1468	n/a	n/a	0	0	0
819.15380859375	n/a	WORD	1677627	wordpools/wasnorm_wordpool_576.txt	LTP367	ltpFR2	6	4	DUST	508	n/a	n/a	0	0	0
821.802734375	n/a	WORD	1683052	wordpools/wasnorm_wordpool_576.txt	LTP367	ltpFR2	6	4	SMOG	1330	n/a	n/a	0	0	0
824.40087890625	n/a	WORD	1688373	wordpools/wasnorm_wordpool_576.txt	LTP367	ltpFR2	6	4	BLOCKADE	137	n/a	n/a	0	0	0
826.849609375	n/a	WORD	1693388	wordpools/wasnorm_wordpool_576.txt	LTP367	ltpFR2	6	4	CROWN	415	n/a	n/a	0	0	0
829.56591796875	n/a	WORD	1698951	wordpools/wasnorm_wordpool_576.txt	LTP367	ltpFR2	6	4	BANJO	82	n/a	n/a	0	0	0
832.03076171875	n/a	WORD	1703999	wordpools/wasnorm_wordpool_576.txt	LTP367	ltpFR2	6	4	FILM	565	n/a	n/a	0	0	0
834.46240234375	n/a	WORD	1708979	wordpools/wasnorm_wordpool_576.txt	LTP367	ltpFR2	6	4	MACHINE	852	n/a	n/a	0	0	0
836.978515625	n/a	WORD	1714132	wordpools/wasnorm_wordpool_576.txt	LTP367	ltpFR2	6	4	FRANCE	601	n/a	n/a	0	0	0
839.50927734375	n/a	WORD	1719315	wordpools/wasnorm_wordpool_576.txt	LTP367	ltpFR2	6	4	CANYON	235	n/a	n/a	0	0	0
842.076171875	n/a	WORD	1724572	wordpools/wasnorm_wordpool_576.txt	LTP367	ltpFR2	6	4	SUMMIT	1405	n/a	n/a	0	0	0
844.775390625	n/a	WORD	1730100	wordpools/wasnorm_wordpool_576.txt	LTP367	ltpFR2	6	4	CUSTARD	429	n/a	n/a	0	0	0
847.33935546875	n/a	WORD	1735351	wordpools/wasnorm_wordpool_576.txt	LTP367	ltpFR2	6	4	SPHINX	1349	n/a	n/a	0	0	0
850.15625	n/a	WORD	1741120	wordpools/wasnorm_wordpool_576.txt	LTP367	ltpFR2	6	4	MUMMY	932	n/a	n/a	0	0	0
852.9208984375	n/a	WORD	1746782	wordpools/wasnorm_wordpool_576.txt	LTP367	ltpFR2	6	4	ROOSTER	1209	n/a	n/a	0	0	0
855.4189453125	n/a	WORD	1751898	wordpools/wasnorm_wordpool_576.txt	LTP367	ltpFR2	6	4	CHEST	295	n/a	n/a	0	0	0
857.884765625	n/a	WORD	1756948	wordpools/wasnorm_wordpool_576.txt	LTP367	ltpFR2	6	4	CEILING	265	n/a	n/a	0	0	0
860.68359375	n/a	WORD	1762680	wordpools/wasnorm_wordpool_576.txt	LTP367	ltpFR2	6	4	HAWK	692	n/a	n/a	0	0	0
863.3486328125	n/a	WORD	1768138	wordpools/wasnorm_wordpool_576.txt	LTP367	ltpFR2	6	4	XEROX	1628	n/a	n/a	0	0	0
865.8818359375	n/a	WORD	1773326	wordpools/wasnorm_wordpool_576.txt	LTP367	ltpFR2	6	4	LONDON	843	n/a	n/a	0	0	0
868.49560546875	n/a	WORD	1778679	wordpools/wasnorm_wordpool_576.txt	LTP367	ltpFR2	6	4	POPCORN	1104	n/a	n/a	0	0	0
871.2275390625	n/a	WORD	1784274	wordpools/wasnorm_wordpool_576.txt	LTP367	ltpFR2	6	4	SISTER	1312	n/a	n/a	0	0	0
873.79443359375	n/a	WORD	1789531	wordpools/wasnorm_wordpool_576.txt	LTP367	ltpFR2	6	4	STAR	1373	n/a	n/a	0	0	0
876.37548828125	n/a	WORD	1794817	wordpools/wasnorm_wordpool_576.txt	LTP367	ltpFR2	6	4	CLAM	315	n/a	n/a	0	0	0
879.14208984375	n/a	WORD	1800483	wordpools/wasnorm_wordpool_576.txt	LTP367	ltpFR2	6	4	PAIL	1002	n/a	n/a	0	0	0
880.75830078125	n/a	START	1803793	n/a	LTP367	ltpFR2	6	n/a	n/a	n/a	5	n/a	n/a	n/a	n/a
881.58544921875	n/a	DISTRACTOR	1805487	n/a	LTP367	ltpFR2	6	4	n/a	n/a	n/a	n/a	0	0	0
881.59033203125	n/a	PROB	1805497	n/a	LTP367	ltpFR2	6	n/a	n/a	n/a	5	23	9	5	9
886.05517578125	n/a	PROB	1814641	n/a	LTP367	ltpFR2	6	n/a	n/a	n/a	5	19	5	6	8
887.63818359375	n/a	PROB	1817883	n/a	LTP367	ltpFR2	6	n/a	n/a	n/a	5	10	1	1	8
889.10400390625	n/a	PROB	1820885	n/a	LTP367	ltpFR2	6	n/a	n/a	n/a	5	9	7	1	1
890.35205078125	n/a	PROB	1823441	n/a	LTP367	ltpFR2	6	n/a	n/a	n/a	5	16	7	2	7
892.15185546875	n/a	PROB	1827127	n/a	LTP367	ltpFR2	6	n/a	n/a	n/a	5	19	6	7	6
894.833984375	n/a	PROB	1832620	n/a	LTP367	ltpFR2	6	n/a	n/a	n/a	5	13	2	4	7
897.06689453125	n/a	PROB	1837193	n/a	LTP367	ltpFR2	6	n/a	n/a	n/a	5	15	5	5	5
898.0	n/a	PROB	1839104	n/a	LTP367	ltpFR2	6	n/a	n/a	n/a	5	26	7	9	9
902.41259765625	n/a	PROB	1848141	n/a	LTP367	ltpFR2	6	n/a	n/a	n/a	5	15	6	4	5
904.5546875	n/a	STOP	1852528	n/a	LTP367	ltpFR2	6	n/a	n/a	n/a	5	n/a	n/a	n/a	n/a
906.6123046875	n/a	REC_START	1856742	n/a	LTP367	ltpFR2	6	4	n/a	n/a	n/a	n/a	0	0	0
908.53564453125	n/a	REC_WORD	1860681	wordpools/wasnorm_wordpool_576.txt	LTP367	ltpFR2	6	4	DUST	508	n/a	n/a	0	0	0
909.11865234375	n/a	REC_WORD	1861875	wordpools/wasnorm_wordpool_576.txt	LTP367	ltpFR2	6	4	SMOG	1330	n/a	n/a	0	0	0
910.76025390625	n/a	REC_WORD	1865237	wordpools/wasnorm_wordpool_576.txt	LTP367	ltpFR2	6	4	BLOCKADE	137	n/a	n/a	0	0	0
912.16357421875	n/a	REC_WORD	1868111	wordpools/wasnorm_wordpool_576.txt	LTP367	ltpFR2	6	4	CROWN	415	n/a	n/a	0	0	0
914.0732421875	n/a	REC_WORD	1872022	wordpools/wasnorm_wordpool_576.txt	LTP367	ltpFR2	6	4	FILM	565	n/a	n/a	0	0	0
915.12451171875	n/a	REC_WORD	1874175	wordpools/wasnorm_wordpool_576.txt	LTP367	ltpFR2	6	4	SUMMIT	1405	n/a	n/a	0	0	0
916.97900390625	n/a	REC_WORD	1877973	wordpools/wasnorm_wordpool_576.txt	LTP367	ltpFR2	6	4	CANYON	235	n/a	n/a	0	0	0
918.7802734375	n/a	REC_WORD	1881662	wordpools/wasnorm_wordpool_576.txt	LTP367	ltpFR2	6	4	BANJO	82	n/a	n/a	0	0	0
920.47412109375	n/a	REC_WORD_VV	1885131	wordpools/wasnorm_wordpool_576.txt	LTP367	ltpFR2	6	4	<>	-1	n/a	n/a	0	0	0
920.9599609375	n/a	REC_WORD	1886126	wordpools/wasnorm_wordpool_576.txt	LTP367	ltpFR2	6	4	MACHINE	852	n/a	n/a	0	0	0
922.0751953125	n/a	REC_WORD	1888410	wordpools/wasnorm_wordpool_576.txt	LTP367	ltpFR2	6	4	SPHINX	1349	n/a	n/a	0	0	0
924.1318359375	n/a	REC_WORD	1892622	wordpools/wasnorm_wordpool_576.txt	LTP367	ltpFR2	6	4	MUMMY	932	n/a	n/a	0	0	0
925.25	n/a	REC_WORD	1894912	wordpools/wasnorm_wordpool_576.txt	LTP367	ltpFR2	6	4	FRANCE	601	n/a	n/a	0	0	0
928.9609375	n/a	REC_WORD	1902512	wordpools/wasnorm_wordpool_576.txt	LTP367	ltpFR2	6	4	ROOSTER	1209	n/a	n/a	0	0	0
930.1279296875	n/a	REC_WORD	1904902	wordpools/wasnorm_wordpool_576.txt	LTP367	ltpFR2	6	4	LONDON	843	n/a	n/a	0	0	0
931.52880859375	n/a	REC_WORD	1907771	wordpools/wasnorm_wordpool_576.txt	LTP367	ltpFR2	6	4	CHEST	295	n/a	n/a	0	0	0
932.5146484375	n/a	REC_WORD	1909790	wordpools/wasnorm_wordpool_576.txt	LTP367	ltpFR2	6	4	CEILING	265	n/a	n/a	0	0	0
933.77880859375	n/a	REC_WORD	1912379	wordpools/wasnorm_wordpool_576.txt	LTP367	ltpFR2	6	4	HAWK	692	n/a	n/a	0	0	0
934.8837890625	n/a	REC_WORD	1914642	wordpools/wasnorm_wordpool_576.txt	LTP367	ltpFR2	6	4	SISTER	1312	n/a	n/a	0	0	0
935.87744140625	n/a	REC_WORD	1916677	wordpools/wasnorm_wordpool_576.txt	LTP367	ltpFR2	6	4	STAR	1373	n/a	n/a	0	0	0
937.1376953125	n/a	REC_WORD	1919258	wordpools/wasnorm_wordpool_576.txt	LTP367	ltpFR2	6	4	CLAM	315	n/a	n/a	0	0	0
938.3837890625	n/a	REC_WORD	1921810	wordpools/wasnorm_wordpool_576.txt	LTP367	ltpFR2	6	4	PAIL	1002	n/a	n/a	0	0	0
975.935546875	n/a	REC_WORD	1998716	wordpools/wasnorm_wordpool_576.txt	LTP367	ltpFR2	6	4	XEROX	1628	n/a	n/a	0	0	0
978.02734375	n/a	REC_WORD	2003000	wordpools/wasnorm_wordpool_576.txt	LTP367	ltpFR2	6	4	POPCORN	1104	n/a	n/a	0	0	0
997.0517578125	n/a	WORD	2041962	wordpools/wasnorm_wordpool_576.txt	LTP367	ltpFR2	6	5	SLIME	1327	n/a	n/a	0	0	0
999.78369140625	n/a	WORD	2047557	wordpools/wasnorm_wordpool_576.txt	LTP367	ltpFR2	6	5	NOVEL	960	n/a	n/a	0	0	0
1002.28173828125	n/a	WORD	2052673	wordpools/wasnorm_wordpool_576.txt	LTP367	ltpFR2	6	5	PASSAGE	1019	n/a	n/a	0	0	0
1005.0146484375	n/a	WORD	2058270	wordpools/wasnorm_wordpool_576.txt	LTP367	ltpFR2	6	5	OYSTER	995	n/a	n/a	0	0	0
1007.5634765625	n/a	WORD	2063490	wordpools/wasnorm_wordpool_576.txt	LTP367	ltpFR2	6	5	PADDLE	1000	n/a	n/a	0	0	0
1010.0625	n/a	WORD	2068608	wordpools/wasnorm_wordpool_576.txt	LTP367	ltpFR2	6	5	HOSTESS	723	n/a	n/a	0	0	0
1012.74462890625	n/a	WORD	2074101	wordpools/wasnorm_wordpool_576.txt	LTP367	ltpFR2	6	5	SERVER	1272	n/a	n/a	0	0	0
1015.4423828125	n/a	WORD	2079626	wordpools/wasnorm_wordpool_576.txt	LTP367	ltpFR2	6	5	RACKET	1155	n/a	n/a	0	0	0
1017.95849609375	n/a	WORD	2084779	wordpools/wasnorm_wordpool_576.txt	LTP367	ltpFR2	6	5	STAKE	1368	n/a	n/a	0	0	0
1020.6904296875	n/a	WORD	2090374	wordpools/wasnorm_wordpool_576.txt	LTP367	ltpFR2	6	5	SCRIBBLE	1256	n/a	n/a	0	0	0
1023.38818359375	n/a	WORD	2095899	wordpools/wasnorm_wordpool_576.txt	LTP367	ltpFR2	6	5	AUTHOR	61	n/a	n/a	0	0	0
1026.18798828125	n/a	WORD	2101633	wordpools/wasnorm_wordpool_576.txt	LTP367	ltpFR2	6	5	PAPER	1011	n/a	n/a	0	0	0
1028.81982421875	n/a	WORD	2107023	wordpools/wasnorm_wordpool_576.txt	LTP367	ltpFR2	6	5	GUITAR	670	n/a	n/a	0	0	0
1031.619140625	n/a	WORD	2112756	wordpools/wasnorm_wordpool_576.txt	LTP367	ltpFR2	6	5	JEANS	752	n/a	n/a	0	0	0
1034.083984375	n/a	WORD	2117804	wordpools/wasnorm_wordpool_576.txt	LTP367	ltpFR2	6	5	MARINE	869	n/a	n/a	0	0	0
1036.8828125	n/a	WORD	2123536	wordpools/wasnorm_wordpool_576.txt	LTP367	ltpFR2	6	5	COD	340	n/a	n/a	0	0	0
1039.39794921875	n/a	WORD	2128687	wordpools/wasnorm_wordpool_576.txt	LTP367	ltpFR2	6	5	STATUE	1374	n/a	n/a	0	0	0
1041.94677734375	n/a	WORD	2133907	wordpools/wasnorm_wordpool_576.txt	LTP367	ltpFR2	6	5	PERMIT	1051	n/a	n/a	0	0	0
1044.54541015625	n/a	WORD	2139229	wordpools/wasnorm_wordpool_576.txt	LTP367	ltpFR2	6	5	APPLE	33	n/a	n/a	0	0	0
1047.0947265625	n/a	WORD	2144450	wordpools/wasnorm_wordpool_576.txt	LTP367	ltpFR2	6	5	LUGGAGE	847	n/a	n/a	0	0	0
1049.8935546875	n/a	WORD	2150182	wordpools/wasnorm_wordpool_576.txt	LTP367	ltpFR2	6	5	TRANSPLANT	1496	n/a	n/a	0	0	0
1052.658203125	n/a	WORD	2155844	wordpools/wasnorm_wordpool_576.txt	LTP367	ltpFR2	6	5	TROUT	1511	n/a	n/a	0	0	0
1055.1572265625	n/a	WORD	2160962	wordpools/wasnorm_wordpool_576.txt	LTP367	ltpFR2	6	5	EAGLE	512	n/a	n/a	0	0	0
1057.63916015625	n/a	WORD	2166045	wordpools/wasnorm_wordpool_576.txt	LTP367	ltpFR2	6	5	WASP	1593	n/a	n/a	0	0	0
1059.25390625	n/a	START	2169352	n/a	LTP367	ltpFR2	6	n/a	n/a	n/a	6	n/a	n/a	n/a	n/a
1060.4072265625	n/a	DISTRACTOR	2171714	n/a	LTP367	ltpFR2	6	5	n/a	n/a	n/a	n/a	0	0	0
1060.419921875	n/a	PROB	2171740	n/a	LTP367	ltpFR2	6	n/a	n/a	n/a	6	18	7	4	7
1063.88623046875	n/a	PROB	2178839	n/a	LTP367	ltpFR2	6	n/a	n/a	n/a	6	14	6	6	2
1065.60205078125	n/a	PROB	2182353	n/a	LTP367	ltpFR2	6	n/a	n/a	n/a	6	18	6	7	5
1068.216796875	n/a	PROB	2187708	n/a	LTP367	ltpFR2	6	n/a	n/a	n/a	6	13	4	7	2
1071.0830078125	n/a	PROB	2193578	n/a	LTP367	ltpFR2	6	n/a	n/a	n/a	6	9	3	5	1
1072.69873046875	n/a	PROB	2196887	n/a	LTP367	ltpFR2	6	n/a	n/a	n/a	6	13	5	2	6
1074.83056640625	n/a	PROB	2201253	n/a	LTP367	ltpFR2	6	n/a	n/a	n/a	6	15	1	5	9
1076.61376953125	n/a	PROB	2204905	n/a	LTP367	ltpFR2	6	n/a	n/a	n/a	6	21	7	9	5
1080.29443359375	n/a	PROB	2212443	n/a	LTP367	ltpFR2	6	n/a	n/a	n/a	6	22	9	6	7
1082.5556640625	n/a	STOP	2217074	n/a	LTP367	ltpFR2	6	n/a	n/a	n/a	6	n/a	n/a	n/a	n/a
1085.09423828125	n/a	REC_START	2222273	n/a	LTP367	ltpFR2	6	5	n/a	n/a	n/a	n/a	0	0	0
1088.01123046875	n/a	REC_WORD	2228247	wordpools/wasnorm_wordpool_576.txt	LTP367	ltpFR2	6	5	SLIME	1327	n/a	n/a	0	0	0
1089.4482421875	n/a	REC_WORD	2231190	wordpools/wasnorm_wordpool_576.txt	LTP367	ltpFR2	6	5	NOVEL	960	n/a	n/a	0	0	0
1090.63525390625	n/a	REC_WORD	2233621	wordpools/wasnorm_wordpool_576.txt	LTP367	ltpFR2	6	5	OYSTER	995	n/a	n/a	0	0	0
1091.9501953125	n/a	REC_WORD	2236314	wordpools/wasnorm_wordpool_576.txt	LTP367	ltpFR2	6	5	PASSAGE	1019	n/a	n/a	0	0	0
1095.63818359375	n/a	REC_WORD	2243867	wordpools/wasnorm_wordpool_576.txt	LTP367	ltpFR2	6	5	SERVER	1272	n/a	n/a	0	0	0
1096.63818359375	n/a	REC_WORD_VV	2245915	wordpools/wasnorm_wordpool_576.txt	LTP367	ltpFR2	6	5	<>	-1	n/a	n/a	0	0	0
1097.13525390625	n/a	REC_WORD	2246933	wordpools/wasnorm_wordpool_576.txt	LTP367	ltpFR2	6	5	HOSTESS	723	n/a	n/a	0	0	0
1098.39501953125	n/a	REC_WORD	2249513	wordpools/wasnorm_wordpool_576.txt	LTP367	ltpFR2	6	5	JEANS	752	n/a	n/a	0	0	0
1099.43017578125	n/a	REC_WORD	2251633	wordpools/wasnorm_wordpool_576.txt	LTP367	ltpFR2	6	5	GUITAR	670	n/a	n/a	0	0	0
1100.52197265625	n/a	REC_WORD	2253869	wordpools/wasnorm_wordpool_576.txt	LTP367	ltpFR2	6	5	STAKE	1368	n/a	n/a	0	0	0
1101.85498046875	n/a	REC_WORD	2256599	wordpools/wasnorm_wordpool_576.txt	LTP367	ltpFR2	6	5	SCRIBBLE	1256	n/a	n/a	0	0	0
1103.2919921875	n/a	REC_WORD	2259542	wordpools/wasnorm_wordpool_576.txt	LTP367	ltpFR2	6	5	AUTHOR	61	n/a	n/a	0	0	0
1104.53564453125	n/a	REC_WORD	2262089	wordpools/wasnorm_wordpool_576.txt	LTP367	ltpFR2	6	5	PAPER	1011	n/a	n/a	0	0	0
1105.9677734375	n/a	REC_WORD	2265022	wordpools/wasnorm_wordpool_576.txt	LTP367	ltpFR2	6	5	COD	340	n/a	n/a	0	0	0
1106.87890625	n/a	REC_WORD	2266888	wordpools/wasnorm_wordpool_576.txt	LTP367	ltpFR2	6	5	STATUE	1374	n/a	n/a	0	0	0
1108.24951171875	n/a	REC_WORD	2269695	wordpools/wasnorm_wordpool_576.txt	LTP367	ltpFR2	6	5	PERMIT	1051	n/a	n/a	0	0	0
1109.4365234375	n/a	REC_WORD	2272126	wordpools/wasnorm_wordpool_576.txt	LTP367	ltpFR2	6	5	TRANSPLANT	1496	n/a	n/a	0	0	0
1111.2265625	n/a	REC_WORD	2275792	wordpools/wasnorm_wordpool_576.txt	LTP367	ltpFR2	6	5	TROUT	1511	n/a	n/a	0	0	0
1112.70458984375	n/a	REC_WORD	2278819	wordpools/wasnorm_wordpool_576.txt	LTP367	ltpFR2	6	5	EAGLE	512	n/a	n/a	0	0	0
1114.00048828125	n/a	REC_WORD	2281473	wordpools/wasnorm_wordpool_576.txt	LTP367	ltpFR2	6	5	WASP	1593	n/a	n/a	0	0	0
1122.6103515625	n/a	REC_WORD	2299106	wordpools/wasnorm_wordpool_576.txt	LTP367	ltpFR2	6	5	APPLE	33	n/a	n/a	0	0	0
1137.048828125	n/a	REC_WORD	2328676	wordpools/wasnorm_wordpool_576.txt	LTP367	ltpFR2	6	5	RACKET	1155	n/a	n/a	0	0	0
1175.53173828125	n/a	DISTRACTOR	2407489	n/a	LTP367	ltpFR2	6	6	n/a	n/a	n/a	n/a	0	0	0
1175.53173828125	n/a	START	2407489	n/a	LTP367	ltpFR2	6	n/a	n/a	n/a	7	n/a	n/a	n/a	n/a
1175.5498046875	n/a	PROB	2407526	n/a	LTP367	ltpFR2	6	n/a	n/a	n/a	7	18	1	8	9
1177.28076171875	n/a	PROB	2411071	n/a	LTP367	ltpFR2	6	n/a	n/a	n/a	7	16	7	8	1
1179.1474609375	n/a	PROB	2414894	n/a	LTP367	ltpFR2	6	n/a	n/a	n/a	7	9	3	1	5
1180.74658203125	n/a	PROB	2418169	n/a	LTP367	ltpFR2	6	n/a	n/a	n/a	7	11	4	4	3
1182.86279296875	n/a	PROB	2422503	n/a	LTP367	ltpFR2	6	n/a	n/a	n/a	7	22	7	6	9
1184.9443359375	n/a	PROB	2426766	n/a	LTP367	ltpFR2	6	n/a	n/a	n/a	7	17	2	7	8
1186.810546875	n/a	PROB	2430588	n/a	LTP367	ltpFR2	6	n/a	n/a	n/a	7	16	7	6	3
1188.37548828125	n/a	PROB	2433793	n/a	LTP367	ltpFR2	6	n/a	n/a	n/a	7	20	7	7	6
1190.7255859375	n/a	PROB	2438606	n/a	LTP367	ltpFR2	6	n/a	n/a	n/a	7	14	3	4	7
1192.42333984375	n/a	PROB	2442083	n/a	LTP367	ltpFR2	6	n/a	n/a	n/a	7	18	2	7	9
1194.47216796875	n/a	PROB	2446279	n/a	LTP367	ltpFR2	6	n/a	n/a	n/a	7	14	5	7	2
1196.15625	n/a	PROB	2449728	n/a	LTP367	ltpFR2	6	n/a	n/a	n/a	7	22	8	5	9
1199.15625	n/a	STOP	2455872	n/a	LTP367	ltpFR2	6	n/a	n/a	n/a	7	n/a	n/a	n/a	n/a
1200.60400390625	n/a	WORD	2458837	wordpools/wasnorm_wordpool_576.txt	LTP367	ltpFR2	6	6	LEADER	807	n/a	n/a	0	0	0
1203.28515625	n/a	WORD	2464328	wordpools/wasnorm_wordpool_576.txt	LTP367	ltpFR2	6	6	JOURNAL	760	n/a	n/a	0	0	0
1205.8681640625	n/a	WORD	2469618	wordpools/wasnorm_wordpool_576.txt	LTP367	ltpFR2	6	6	BUGGY	188	n/a	n/a	0	0	0
1208.515625	n/a	WORD	2475040	wordpools/wasnorm_wordpool_576.txt	LTP367	ltpFR2	6	6	OUTLAW	989	n/a	n/a	0	0	0
1211.21484375	n/a	WORD	2480568	wordpools/wasnorm_wordpool_576.txt	LTP367	ltpFR2	6	6	SHARK	1275	n/a	n/a	0	0	0
1213.84765625	n/a	WORD	2485960	wordpools/wasnorm_wordpool_576.txt	LTP367	ltpFR2	6	6	GUARD	667	n/a	n/a	0	0	0
1216.478515625	n/a	WORD	2491348	wordpools/wasnorm_wordpool_576.txt	LTP367	ltpFR2	6	6	LAVA	804	n/a	n/a	0	0	0
1219.01171875	n/a	WORD	2496536	wordpools/wasnorm_wordpool_576.txt	LTP367	ltpFR2	6	6	TORTOISE	1486	n/a	n/a	0	0	0
1221.67724609375	n/a	WORD	2501995	wordpools/wasnorm_wordpool_576.txt	LTP367	ltpFR2	6	6	TROMBONE	1508	n/a	n/a	0	0	0
1224.30859375	n/a	WORD	2507384	wordpools/wasnorm_wordpool_576.txt	LTP367	ltpFR2	6	6	STALLION	1369	n/a	n/a	0	0	0
1226.908203125	n/a	WORD	2512708	wordpools/wasnorm_wordpool_576.txt	LTP367	ltpFR2	6	6	GAVEL	627	n/a	n/a	0	0	0
1229.47216796875	n/a	WORD	2517959	wordpools/wasnorm_wordpool_576.txt	LTP367	ltpFR2	6	6	DRAGON	492	n/a	n/a	0	0	0
1232.13916015625	n/a	WORD	2523421	wordpools/wasnorm_wordpool_576.txt	LTP367	ltpFR2	6	6	YOLK	1633	n/a	n/a	0	0	0
1234.88818359375	n/a	WORD	2529051	wordpools/wasnorm_wordpool_576.txt	LTP367	ltpFR2	6	6	CLAMP	316	n/a	n/a	0	0	0
1237.68603515625	n/a	WORD	2534781	wordpools/wasnorm_wordpool_576.txt	LTP367	ltpFR2	6	6	COCKTAIL	338	n/a	n/a	0	0	0
1240.466796875	n/a	WORD	2540476	wordpools/wasnorm_wordpool_576.txt	LTP367	ltpFR2	6	6	SODA	1341	n/a	n/a	0	0	0
1243.06689453125	n/a	WORD	2545801	wordpools/wasnorm_wordpool_576.txt	LTP367	ltpFR2	6	6	BRANDY	169	n/a	n/a	0	0	0
1245.64892578125	n/a	WORD	2551089	wordpools/wasnorm_wordpool_576.txt	LTP367	ltpFR2	6	6	WRIST	1626	n/a	n/a	0	0	0
1248.08154296875	n/a	WORD	2556071	wordpools/wasnorm_wordpool_576.txt	LTP367	ltpFR2	6	6	PEPPER	1047	n/a	n/a	0	0	0
1250.6796875	n/a	WORD	2561392	wordpools/wasnorm_wordpool_576.txt	LTP367	ltpFR2	6	6	PARSLEY	1016	n/a	n/a	0	0	0
1253.26171875	n/a	WORD	2566680	wordpools/wasnorm_wordpool_576.txt	LTP367	ltpFR2	6	6	ROBBER	1197	n/a	n/a	0	0	0
1255.810546875	n/a	WORD	2571900	wordpools/wasnorm_wordpool_576.txt	LTP367	ltpFR2	6	6	AWARD	63	n/a	n/a	0	0	0
1258.62646484375	n/a	WORD	2577667	wordpools/wasnorm_wordpool_576.txt	LTP367	ltpFR2	6	6	MEDAL	885	n/a	n/a	0	0	0
1261.37451171875	n/a	WORD	2583295	wordpools/wasnorm_wordpool_576.txt	LTP367	ltpFR2	6	6	RABBIT	1152	n/a	n/a	0	0	0
1262.9912109375	n/a	START	2586606	n/a	LTP367	ltpFR2	6	n/a	n/a	n/a	8	n/a	n/a	n/a	n/a
1263.9140625	n/a	DISTRACTOR	2588496	n/a	LTP367	ltpFR2	6	6	n/a	n/a	n/a	n/a	0	0	0
1263.92333984375	n/a	PROB	2588515	n/a	LTP367	ltpFR2	6	n/a	n/a	n/a	8	13	5	4	4
1266.1220703125	n/a	PROB	2593018	n/a	LTP367	ltpFR2	6	n/a	n/a	n/a	8	12	2	8	2
1267.25439453125	n/a	PROB	2595337	n/a	LTP367	ltpFR2	6	n/a	n/a	n/a	8	22	5	8	9
1269.7373046875	n/a	PROB	2600422	n/a	LTP367	ltpFR2	6	n/a	n/a	n/a	8	7	2	1	4
1271.31884765625	n/a	PROB	2603661	n/a	LTP367	ltpFR2	6	n/a	n/a	n/a	8	11	1	3	7
1272.55322265625	n/a	PROB	2606189	n/a	LTP367	ltpFR2	6	n/a	n/a	n/a	8	16	1	9	6
1274.26806640625	n/a	PROB	2609701	n/a	LTP367	ltpFR2	6	n/a	n/a	n/a	8	11	7	3	1
1275.36669921875	n/a	PROB	2611951	n/a	LTP367	ltpFR2	6	n/a	n/a	n/a	8	20	9	5	6
1277.01806640625	n/a	PROB	2615333	n/a	LTP367	ltpFR2	6	n/a	n/a	n/a	8	10	1	4	5
1278.298828125	n/a	PROB	2617956	n/a	LTP367	ltpFR2	6	n/a	n/a	n/a	8	15	6	8	1
1282.263671875	n/a	PROB	2626076	n/a	LTP367	ltpFR2	6	n/a	n/a	n/a	8	13	2	7	4
1283.99755859375	n/a	PROB	2629627	n/a	LTP367	ltpFR2	6	n/a	n/a	n/a	8	19	3	7	9
1285.2294921875	n/a	PROB	2632150	n/a	LTP367	ltpFR2	6	n/a	n/a	n/a	8	12	3	3	6
1286.6357421875	n/a	STOP	2635030	n/a	LTP367	ltpFR2	6	n/a	n/a	n/a	8	n/a	n/a	n/a	n/a
1288.7783203125	n/a	REC_START	2639418	n/a	LTP367	ltpFR2	6	6	n/a	n/a	n/a	n/a	0	0	0
1299.2001953125	n/a	REC_WORD	2660762	wordpools/wasnorm_wordpool_576.txt	LTP367	ltpFR2	6	6	OUTLAW	989	n/a	n/a	0	0	0
1300.21142578125	n/a	REC_WORD	2662833	wordpools/wasnorm_wordpool_576.txt	LTP367	ltpFR2	6	6	BUGGY	188	n/a	n/a	0	0	0
1301.16796875	n/a	REC_WORD	2664792	wordpools/wasnorm_wordpool_576.txt	LTP367	ltpFR2	6	6	PRINCE	1124	n/a	n/a	0	0	0
1302.13818359375	n/a	REC_WORD	2666779	wordpools/wasnorm_wordpool_576.txt	LTP367	ltpFR2	6	6	GUARD	667	n/a	n/a	0	0	0
1303.21435546875	n/a	REC_WORD	2668983	wordpools/wasnorm_wordpool_576.txt	LTP367	ltpFR2	6	6	TROMBONE	1508	n/a	n/a	0	0	0
1304.34814453125	n/a	REC_WORD	2671305	wordpools/wasnorm_wordpool_576.txt	LTP367	ltpFR2	6	6	LAVA	804	n/a	n/a	0	0	0
1305.28125	n/a	REC_WORD	2673216	wordpools/wasnorm_wordpool_576.txt	LTP367	ltpFR2	6	6	TORTOISE	1486	n/a	n/a	0	0	0
1307.94921875	n/a	REC_WORD	2678680	wordpools/wasnorm_wordpool_576.txt	LTP367	ltpFR2	6	6	STALLION	1369	n/a	n/a	0	0	0
1309.02099609375	n/a	REC_WORD	2680875	wordpools/wasnorm_wordpool_576.txt	LTP367	ltpFR2	6	6	GAVEL	627	n/a	n/a	0	0	0
1309.86181640625	n/a	REC_WORD	2682597	wordpools/wasnorm_wordpool_576.txt	LTP367	ltpFR2	6	6	DRAGON	492	n/a	n/a	0	0	0
1310.81103515625	n/a	REC_WORD	2684541	wordpools/wasnorm_wordpool_576.txt	LTP367	ltpFR2	6	6	WRIST	1626	n/a	n/a	0	0	0
1311.8388671875	n/a	REC_WORD	2686646	wordpools/wasnorm_wordpool_576.txt	LTP367	ltpFR2	6	6	COCKTAIL	338	n/a	n/a	0	0	0
1315.20458984375	n/a	REC_WORD	2693539	wordpools/wasnorm_wordpool_576.txt	LTP367	ltpFR2	6	6	BRANDY	169	n/a	n/a	0	0	0
1316.08984375	n/a	REC_WORD	2695352	wordpools/wasnorm_wordpool_576.txt	LTP367	ltpFR2	6	6	SODA	1341	n/a	n/a	0	0	0
1317.11962890625	n/a	REC_WORD	2697461	wordpools/wasnorm_wordpool_576.txt	LTP367	ltpFR2	6	6	PARSLEY	1016	n/a	n/a	0	0	0
1318.11962890625	n/a	REC_WORD	2699509	wordpools/wasnorm_wordpool_576.txt	LTP367	ltpFR2	6	6	PEPPER	1047	n/a	n/a	0	0	0
1319.06982421875	n/a	REC_WORD	2701455	wordpools/wasnorm_wordpool_576.txt	LTP367	ltpFR2	6	6	ROBBER	1197	n/a	n/a	0	0	0
1319.74072265625	n/a	REC_WORD	2702829	wordpools/wasnorm_wordpool_576.txt	LTP367	ltpFR2	6	6	AWARD	63	n/a	n/a	0	0	0
1320.767578125	n/a	REC_WORD	2704932	wordpools/wasnorm_wordpool_576.txt	LTP367	ltpFR2	6	6	MEDAL	885	n/a	n/a	0	0	0
1321.58056640625	n/a	REC_WORD	2706597	wordpools/wasnorm_wordpool_576.txt	LTP367	ltpFR2	6	6	RABBIT	1152	n/a	n/a	0	0	0
1326.8232421875	n/a	REC_WORD	2717334	wordpools/wasnorm_wordpool_576.txt	LTP367	ltpFR2	6	6	JOURNAL	760	n/a	n/a	0	0	0
1379.23388671875	n/a	DISTRACTOR	2824671	n/a	LTP367	ltpFR2	6	7	n/a	n/a	n/a	n/a	0	0	0
1379.23388671875	n/a	START	2824671	n/a	LTP367	ltpFR2	6	n/a	n/a	n/a	9	n/a	n/a	n/a	n/a
1379.2509765625	n/a	PROB	2824706	n/a	LTP367	ltpFR2	6	n/a	n/a	n/a	9	15	4	2	9
1381.8837890625	n/a	PROB	2830098	n/a	LTP367	ltpFR2	6	n/a	n/a	n/a	9	12	1	7	4
1383.39892578125	n/a	PROB	2833201	n/a	LTP367	ltpFR2	6	n/a	n/a	n/a	9	11	2	4	5
1385.380859375	n/a	PROB	2837260	n/a	LTP367	ltpFR2	6	n/a	n/a	n/a	9	11	2	3	6
1387.130859375	n/a	PROB	2840844	n/a	LTP367	ltpFR2	6	n/a	n/a	n/a	9	16	7	1	8
1389.41259765625	n/a	PROB	2845517	n/a	LTP367	ltpFR2	6	n/a	n/a	n/a	9	12	1	2	9
1390.61279296875	n/a	PROB	2847975	n/a	LTP367	ltpFR2	6	n/a	n/a	n/a	9	14	4	6	4
1391.845703125	n/a	PROB	2850500	n/a	LTP367	ltpFR2	6	n/a	n/a	n/a	9	14	7	2	5
1393.7275390625	n/a	PROB	2854354	n/a	LTP367	ltpFR2	6	n/a	n/a	n/a	9	19	6	6	7
1395.2265625	n/a	PROB	2857424	n/a	LTP367	ltpFR2	6	n/a	n/a	n/a	9	5	1	1	3
1396.3095703125	n/a	PROB	2859642	n/a	LTP367	ltpFR2	6	n/a	n/a	n/a	9	15	8	5	2
1397.4912109375	n/a	PROB	2862062	n/a	LTP367	ltpFR2	6	n/a	n/a	n/a	9	17	3	5	9
1399.5751953125	n/a	PROB	2866330	n/a	LTP367	ltpFR2	6	n/a	n/a	n/a	9	11	1	8	2
1400.70849609375	n/a	PROB	2868651	n/a	LTP367	ltpFR2	6	n/a	n/a	n/a	9	14	9	3	2
1402.15625	n/a	STOP	2871616	n/a	LTP367	ltpFR2	6	n/a	n/a	n/a	9	n/a	n/a	n/a	n/a
1404.17333984375	n/a	WORD	2875747	wordpools/wasnorm_wordpool_576.txt	LTP367	ltpFR2	6	7	JURY	766	n/a	n/a	0	0	0
1406.60498046875	n/a	WORD	2880727	wordpools/wasnorm_wordpool_576.txt	LTP367	ltpFR2	6	7	BARLEY	88	n/a	n/a	0	0	0
1409.2529296875	n/a	WORD	2886150	wordpools/wasnorm_wordpool_576.txt	LTP367	ltpFR2	6	7	SWITCH	1422	n/a	n/a	0	0	0
1411.98583984375	n/a	WORD	2891747	wordpools/wasnorm_wordpool_576.txt	LTP367	ltpFR2	6	7	VENUS	1557	n/a	n/a	0	0	0
1414.76806640625	n/a	WORD	2897445	wordpools/wasnorm_wordpool_576.txt	LTP367	ltpFR2	6	7	KNAPSACK	783	n/a	n/a	0	0	0
1417.2158203125	n/a	WORD	2902458	wordpools/wasnorm_wordpool_576.txt	LTP367	ltpFR2	6	7	SCULPTURE	1258	n/a	n/a	0	0	0
1419.7158203125	n/a	WORD	2907578	wordpools/wasnorm_wordpool_576.txt	LTP367	ltpFR2	6	7	DRAWING	494	n/a	n/a	0	0	0
1422.2138671875	n/a	WORD	2912694	wordpools/wasnorm_wordpool_576.txt	LTP367	ltpFR2	6	7	CHIPMUNK	304	n/a	n/a	0	0	0
1424.66357421875	n/a	WORD	2917711	wordpools/wasnorm_wordpool_576.txt	LTP367	ltpFR2	6	7	FRAME	600	n/a	n/a	0	0	0
1427.32763671875	n/a	WORD	2923167	wordpools/wasnorm_wordpool_576.txt	LTP367	ltpFR2	6	7	MARS	873	n/a	n/a	0	0	0
1429.82763671875	n/a	WORD	2928287	wordpools/wasnorm_wordpool_576.txt	LTP367	ltpFR2	6	7	SPONGE	1355	n/a	n/a	0	0	0
1432.5595703125	n/a	WORD	2933882	wordpools/wasnorm_wordpool_576.txt	LTP367	ltpFR2	6	7	POET	1095	n/a	n/a	0	0	0
1435.2734375	n/a	WORD	2939440	wordpools/wasnorm_wordpool_576.txt	LTP367	ltpFR2	6	7	DRESSER	496	n/a	n/a	0	0	0
1437.72314453125	n/a	WORD	2944457	wordpools/wasnorm_wordpool_576.txt	LTP367	ltpFR2	6	7	COCOON	339	n/a	n/a	0	0	0
1440.27099609375	n/a	WORD	2949675	wordpools/wasnorm_wordpool_576.txt	LTP367	ltpFR2	6	7	SPIDER	1351	n/a	n/a	0	0	0
1442.7041015625	n/a	WORD	2954658	wordpools/wasnorm_wordpool_576.txt	LTP367	ltpFR2	6	7	SALT	1229	n/a	n/a	0	0	0
1445.15283203125	n/a	WORD	2959673	wordpools/wasnorm_wordpool_576.txt	LTP367	ltpFR2	6	7	SIDEWALK	1303	n/a	n/a	0	0	0
1447.8017578125	n/a	WORD	2965098	wordpools/wasnorm_wordpool_576.txt	LTP367	ltpFR2	6	7	DUSTPAN	509	n/a	n/a	0	0	0
1450.4169921875	n/a	WORD	2970454	wordpools/wasnorm_wordpool_576.txt	LTP367	ltpFR2	6	7	CIGAR	308	n/a	n/a	0	0	0
1453.11572265625	n/a	WORD	2975981	wordpools/wasnorm_wordpool_576.txt	LTP367	ltpFR2	6	7	FRAGRANCE	599	n/a	n/a	0	0	0
1455.56494140625	n/a	WORD	2980997	wordpools/wasnorm_wordpool_576.txt	LTP367	ltpFR2	6	7	COUNTRY	388	n/a	n/a	0	0	0
1458.3798828125	n/a	WORD	2986762	wordpools/wasnorm_wordpool_576.txt	LTP367	ltpFR2	6	7	CLOTHES	327	n/a	n/a	0	0	0
1460.99560546875	n/a	WORD	2992119	wordpools/wasnorm_wordpool_576.txt	LTP367	ltpFR2	6	7	OUTFIT	988	n/a	n/a	0	0	0
1463.4765625	n/a	WORD	2997200	wordpools/wasnorm_wordpool_576.txt	LTP367	ltpFR2	6	7	PLAYGROUND	1087	n/a	n/a	0	0	0
1465.09326171875	n/a	START	3000511	n/a	LTP367	ltpFR2	6	n/a	n/a	n/a	10	n/a	n/a	n/a	n/a
1466.2255859375	n/a	DISTRACTOR	3002830	n/a	LTP367	ltpFR2	6	7	n/a	n/a	n/a	n/a	0	0	0
1466.24267578125	n/a	PROB	3002865	n/a	LTP367	ltpFR2	6	n/a	n/a	n/a	10	17	6	3	8
1468.658203125	n/a	PROB	3007812	n/a	LTP367	ltpFR2	6	n/a	n/a	n/a	10	24	9	8	7
1471.12451171875	n/a	PROB	3012863	n/a	LTP367	ltpFR2	6	n/a	n/a	n/a	10	20	4	7	9
1472.84033203125	n/a	PROB	3016377	n/a	LTP367	ltpFR2	6	n/a	n/a	n/a	10	15	1	5	9
1474.15625	n/a	PROB	3019072	n/a	LTP367	ltpFR2	6	n/a	n/a	n/a	10	18	9	6	3
1475.80517578125	n/a	PROB	3022449	n/a	LTP367	ltpFR2	6	n/a	n/a	n/a	10	20	8	4	8
1478.27001953125	n/a	PROB	3027497	n/a	LTP367	ltpFR2	6	n/a	n/a	n/a	10	18	3	7	8
1479.68701171875	n/a	PROB	3030399	n/a	LTP367	ltpFR2	6	n/a	n/a	n/a	10	16	5	2	9
1481.71923828125	n/a	PROB	3034561	n/a	LTP367	ltpFR2	6	n/a	n/a	n/a	10	6	2	3	1
1483.35107421875	n/a	PROB	3037903	n/a	LTP367	ltpFR2	6	n/a	n/a	n/a	10	12	4	7	1
1484.701171875	n/a	PROB	3040668	n/a	LTP367	ltpFR2	6	n/a	n/a	n/a	10	17	9	4	4
1487.298828125	n/a	PROB	3045988	n/a	LTP367	ltpFR2	6	n/a	n/a	n/a	10	15	5	3	7
1488.52392578125	n/a	STOP	3048497	n/a	LTP367	ltpFR2	6	n/a	n/a	n/a	10	n/a	n/a	n/a	n/a
1490.86572265625	n/a	REC_START	3053293	n/a	LTP367	ltpFR2	6	7	n/a	n/a	n/a	n/a	0	0	0
1493.0068359375	n/a	REC_WORD	3057678	wordpools/wasnorm_wordpool_576.txt	LTP367	ltpFR2	6	7	JURY	766	n/a	n/a	0	0	0
1493.98046875	n/a	REC_WORD	3059672	wordpools/wasnorm_wordpool_576.txt	LTP367	ltpFR2	6	7	BARLEY	88	n/a	n/a	0	0	0
1494.810546875	n/a	REC_WORD	3061372	wordpools/wasnorm_wordpool_576.txt	LTP367	ltpFR2	6	7	SWITCH	1422	n/a	n/a	0	0	0
1495.8046875	n/a	REC_WORD	3063408	wordpools/wasnorm_wordpool_576.txt	LTP367	ltpFR2	6	7	VENUS	1557	n/a	n/a	0	0	0
1497.009765625	n/a	REC_WORD	3065876	wordpools/wasnorm_wordpool_576.txt	LTP367	ltpFR2	6	7	CHIPMUNK	304	n/a	n/a	0	0	0
1500.08837890625	n/a	REC_WORD	3072181	wordpools/wasnorm_wordpool_576.txt	LTP367	ltpFR2	6	7	FRAME	600	n/a	n/a	0	0	0
1501.68359375	n/a	REC_WORD	3075448	wordpools/wasnorm_wordpool_576.txt	LTP367	ltpFR2	6	7	KNAPSACK	783	n/a	n/a	0	0	0
1502.79052734375	n/a	REC_WORD	3077715	wordpools/wasnorm_wordpool_576.txt	LTP367	ltpFR2	6	7	SCULPTURE	1258	n/a	n/a	0	0	0
1507.17138671875	n/a	REC_WORD	3086687	wordpools/wasnorm_wordpool_576.txt	LTP367	ltpFR2	6	7	POET	1095	n/a	n/a	0	0	0
1508.09619140625	n/a	REC_WORD	3088581	wordpools/wasnorm_wordpool_576.txt	LTP367	ltpFR2	6	7	DRESSER	496	n/a	n/a	0	0	0
1510.4521484375	n/a	REC_WORD	3093406	wordpools/wasnorm_wordpool_576.txt	LTP367	ltpFR2	6	7	MARS	873	n/a	n/a	0	0	0
1511.68701171875	n/a	REC_WORD	3095935	wordpools/wasnorm_wordpool_576.txt	LTP367	ltpFR2	6	7	SPONGE	1355	n/a	n/a	0	0	0
1515.72705078125	n/a	REC_WORD	3104209	wordpools/wasnorm_wordpool_576.txt	LTP367	ltpFR2	6	7	SPIDER	1351	n/a	n/a	0	0	0
1516.41015625	n/a	REC_WORD	3105608	wordpools/wasnorm_wordpool_576.txt	LTP367	ltpFR2	6	7	SALT	1229	n/a	n/a	0	0	0
1516.962890625	n/a	REC_WORD	3106740	wordpools/wasnorm_wordpool_576.txt	LTP367	ltpFR2	6	7	SIDEWALK	1303	n/a	n/a	0	0	0
1519.0380859375	n/a	REC_WORD	3110990	wordpools/wasnorm_wordpool_576.txt	LTP367	ltpFR2	6	7	CLOTHES	327	n/a	n/a	0	0	0
1519.5859375	n/a	REC_WORD	3112112	wordpools/wasnorm_wordpool_576.txt	LTP367	ltpFR2	6	7	CIGAR	308	n/a	n/a	0	0	0
1520.1337890625	n/a	REC_WORD	3113234	wordpools/wasnorm_wordpool_576.txt	LTP367	ltpFR2	6	7	FRAGRANCE	599	n/a	n/a	0	0	0
1521.1337890625	n/a	REC_WORD_VV	3115282	wordpools/wasnorm_wordpool_576.txt	LTP367	ltpFR2	6	7	<>	-1	n/a	n/a	0	0	0
1525.9296875	n/a	REC_WORD	3125104	wordpools/wasnorm_wordpool_576.txt	LTP367	ltpFR2	6	7	OUTFIT	988	n/a	n/a	0	0	0
1529.44482421875	n/a	REC_WORD	3132303	wordpools/wasnorm_wordpool_576.txt	LTP367	ltpFR2	6	7	PLAYGROUND	1087	n/a	n/a	0	0	0
1535.58837890625	n/a	REC_WORD	3144885	wordpools/wasnorm_wordpool_576.txt	LTP367	ltpFR2	6	7	DRAWING	494	n/a	n/a	0	0	0
1581.3203125	n/a	WORD	3238544	wordpools/wasnorm_wordpool_576.txt	LTP367	ltpFR2	6	8	FOOT	590	n/a	n/a	0	0	0
1583.88720703125	n/a	WORD	3243801	wordpools/wasnorm_wordpool_576.txt	LTP367	ltpFR2	6	8	PADDING	999	n/a	n/a	0	0	0
1586.451171875	n/a	WORD	3249052	wordpools/wasnorm_wordpool_576.txt	LTP367	ltpFR2	6	8	BOUQUET	157	n/a	n/a	0	0	0
1589.05078125	n/a	WORD	3254376	wordpools/wasnorm_wordpool_576.txt	LTP367	ltpFR2	6	8	BLENDER	136	n/a	n/a	0	0	0
1591.60009765625	n/a	WORD	3259597	wordpools/wasnorm_wordpool_576.txt	LTP367	ltpFR2	6	8	PARTNER	1017	n/a	n/a	0	0	0
1594.06494140625	n/a	WORD	3264645	wordpools/wasnorm_wordpool_576.txt	LTP367	ltpFR2	6	8	ZEBRA	1635	n/a	n/a	0	0	0
1596.86376953125	n/a	WORD	3270377	wordpools/wasnorm_wordpool_576.txt	LTP367	ltpFR2	6	8	CARROT	249	n/a	n/a	0	0	0
1599.6787109375	n/a	WORD	3276142	wordpools/wasnorm_wordpool_576.txt	LTP367	ltpFR2	6	8	BARREL	91	n/a	n/a	0	0	0
1602.12744140625	n/a	WORD	3281157	wordpools/wasnorm_wordpool_576.txt	LTP367	ltpFR2	6	8	FLASK	576	n/a	n/a	0	0	0
1604.71044921875	n/a	WORD	3286447	wordpools/wasnorm_wordpool_576.txt	LTP367	ltpFR2	6	8	CITRUS	313	n/a	n/a	0	0	0
1607.5244140625	n/a	WORD	3292210	wordpools/wasnorm_wordpool_576.txt	LTP367	ltpFR2	6	8	KETCHUP	771	n/a	n/a	0	0	0
1610.22314453125	n/a	WORD	3297737	wordpools/wasnorm_wordpool_576.txt	LTP367	ltpFR2	6	8	NOTEBOOK	959	n/a	n/a	0	0	0
1612.7060546875	n/a	WORD	3302822	wordpools/wasnorm_wordpool_576.txt	LTP367	ltpFR2	6	8	PRINCE	1124	n/a	n/a	0	0	0
1615.17236328125	n/a	WORD	3307873	wordpools/wasnorm_wordpool_576.txt	LTP367	ltpFR2	6	8	BULLET	194	n/a	n/a	0	0	0
1617.6201171875	n/a	WORD	3312886	wordpools/wasnorm_wordpool_576.txt	LTP367	ltpFR2	6	8	RIFLE	1192	n/a	n/a	0	0	0
1620.05322265625	n/a	WORD	3317869	wordpools/wasnorm_wordpool_576.txt	LTP367	ltpFR2	6	8	BASEMENT	94	n/a	n/a	0	0	0
1622.78515625	n/a	WORD	3323464	wordpools/wasnorm_wordpool_576.txt	LTP367	ltpFR2	6	8	BANQUET	86	n/a	n/a	0	0	0
1625.4658203125	n/a	WORD	3328954	wordpools/wasnorm_wordpool_576.txt	LTP367	ltpFR2	6	8	MARROW	872	n/a	n/a	0	0	0
1628.21484375	n/a	WORD	3334584	wordpools/wasnorm_wordpool_576.txt	LTP367	ltpFR2	6	8	TEACHER	1440	n/a	n/a	0	0	0
1631.0478515625	n/a	WORD	3340386	wordpools/wasnorm_wordpool_576.txt	LTP367	ltpFR2	6	8	EYELASH	546	n/a	n/a	0	0	0
1633.51171875	n/a	WORD	3345432	wordpools/wasnorm_wordpool_576.txt	LTP367	ltpFR2	6	8	DRUG	501	n/a	n/a	0	0	0
1636.14453125	n/a	WORD	3350824	wordpools/wasnorm_wordpool_576.txt	LTP367	ltpFR2	6	8	TABLET	1427	n/a	n/a	0	0	0
1638.810546875	n/a	WORD	3356284	wordpools/wasnorm_wordpool_576.txt	LTP367	ltpFR2	6	8	ANKLE	24	n/a	n/a	0	0	0
1641.474609375	n/a	WORD	3361740	wordpools/wasnorm_wordpool_576.txt	LTP367	ltpFR2	6	8	COFFEE	341	n/a	n/a	0	0	0
1643.09130859375	n/a	START	3365051	n/a	LTP367	ltpFR2	6	n/a	n/a	n/a	11	n/a	n/a	n/a	n/a
1644.23046875	n/a	DISTRACTOR	3367384	n/a	LTP367	ltpFR2	6	8	n/a	n/a	n/a	n/a	0	0	0
1644.240234375	n/a	PROB	3367404	n/a	LTP367	ltpFR2	6	n/a	n/a	n/a	11	13	7	5	1
1646.35546875	n/a	PROB	3371736	n/a	LTP367	ltpFR2	6	n/a	n/a	n/a	11	20	6	7	7
1648.271484375	n/a	PROB	3375660	n/a	LTP367	ltpFR2	6	n/a	n/a	n/a	11	18	3	6	9
1650.00537109375	n/a	PROB	3379211	n/a	LTP367	ltpFR2	6	n/a	n/a	n/a	11	18	1	9	8
1651.7373046875	n/a	PROB	3382758	n/a	LTP367	ltpFR2	6	n/a	n/a	n/a	11	13	1	8	5
1653.8701171875	n/a	PROB	3387126	n/a	LTP367	ltpFR2	6	n/a	n/a	n/a	11	24	9	8	7
1656.98486328125	n/a	PROB	3393505	n/a	LTP367	ltpFR2	6	n/a	n/a	n/a	11	13	2	4	7
1659.75	n/a	PROB	3399168	n/a	LTP367	ltpFR2	6	n/a	n/a	n/a	11	13	1	5	7
1661.56591796875	n/a	PROB	3402887	n/a	LTP367	ltpFR2	6	n/a	n/a	n/a	11	11	1	4	6
1662.798828125	n/a	PROB	3405412	n/a	LTP367	ltpFR2	6	n/a	n/a	n/a	11	8	1	4	3
1664.23095703125	n/a	PROB	3408345	n/a	LTP367	ltpFR2	6	n/a	n/a	n/a	11	14	2	9	3
1665.677734375	n/a	STOP	3411308	n/a	LTP367	ltpFR2	6	n/a	n/a	n/a	11	n/a	n/a	n/a	n/a
1668.8798828125	n/a	REC_START	3417866	n/a	LTP367	ltpFR2	6	8	n/a	n/a	n/a	n/a	0	0	0
1672.33544921875	n/a	REC_WORD	3424943	wordpools/wasnorm_wordpool_576.txt	LTP367	ltpFR2	6	8	FOOT	590	n/a	n/a	0	0	0
1674.1943359375	n/a	REC_WORD	3428750	wordpools/wasnorm_wordpool_576.txt	LTP367	ltpFR2	6	8	BOUQUET	157	n/a	n/a	0	0	0
1675.91650390625	n/a	REC_WORD	3432277	wordpools/wasnorm_wordpool_576.txt	LTP367	ltpFR2	6	8	BLENDER	136	n/a	n/a	0	0	0
1677.24462890625	n/a	REC_WORD	3434997	wordpools/wasnorm_wordpool_576.txt	LTP367	ltpFR2	6	8	PARTNER	1017	n/a	n/a	0	0	0
1678.46435546875	n/a	REC_WORD	3437495	wordpools/wasnorm_wordpool_576.txt	LTP367	ltpFR2	6	8	ZEBRA	1635	n/a	n/a	0	0	0
1679.90625	n/a	REC_WORD	3440448	wordpools/wasnorm_wordpool_576.txt	LTP367	ltpFR2	6	8	CARROT	249	n/a	n/a	0	0	0
1681.42041015625	n/a	REC_WORD	3443549	wordpools/wasnorm_wordpool_576.txt	LTP367	ltpFR2	6	8	BARREL	91	n/a	n/a	0	0	0
1684.4140625	n/a	REC_WORD	3449680	wordpools/wasnorm_wordpool_576.txt	LTP367	ltpFR2	6	8	PRINCE	1124	n/a	n/a	0	0	0
1688.10009765625	n/a	REC_WORD	3457229	wordpools/wasnorm_wordpool_576.txt	LTP367	ltpFR2	6	8	NOTEBOOK	959	n/a	n/a	0	0	0
1689.44482421875	n/a	REC_WORD	3459983	wordpools/wasnorm_wordpool_576.txt	LTP367	ltpFR2	6	8	BULLET	194	n/a	n/a	0	0	0
1690.701171875	n/a	REC_WORD	3462556	wordpools/wasnorm_wordpool_576.txt	LTP367	ltpFR2	6	8	BASEMENT	94	n/a	n/a	0	0	0
1691.9267578125	n/a	REC_WORD	3465066	wordpools/wasnorm_wordpool_576.txt	LTP367	ltpFR2	6	8	RIFLE	1192	n/a	n/a	0	0	0
1693.1708984375	n/a	REC_WORD	3467614	wordpools/wasnorm_wordpool_576.txt	LTP367	ltpFR2	6	8	BANQUET	86	n/a	n/a	0	0	0
1694.40576171875	n/a	REC_WORD	3470143	wordpools/wasnorm_wordpool_576.txt	LTP367	ltpFR2	6	8	TEACHER	1440	n/a	n/a	0	0	0
1695.70068359375	n/a	REC_WORD	3472795	wordpools/wasnorm_wordpool_576.txt	LTP367	ltpFR2	6	8	MARROW	872	n/a	n/a	0	0	0
1698.1337890625	n/a	REC_WORD	3477778	wordpools/wasnorm_wordpool_576.txt	LTP367	ltpFR2	6	8	KETCHUP	771	n/a	n/a	0	0	0
1701.1337890625	n/a	REC_WORD	3483922	wordpools/wasnorm_wordpool_576.txt	LTP367	ltpFR2	6	8	ANKLE	24	n/a	n/a	0	0	0
1702.4677734375	n/a	REC_WORD	3486654	wordpools/wasnorm_wordpool_576.txt	LTP367	ltpFR2	6	8	COFFEE	341	n/a	n/a	0	0	0
1719.3310546875	n/a	REC_WORD	3521190	wordpools/wasnorm_wordpool_576.txt	LTP367	ltpFR2	6	8	TABLET	1427	n/a	n/a	0	0	0
1721.369140625	n/a	REC_WORD	3525364	wordpools/wasnorm_wordpool_576.txt	LTP367	ltpFR2	6	8	EYELASH	546	n/a	n/a	0	0	0
1723.14208984375	n/a	REC_WORD	3528995	wordpools/wasnorm_wordpool_576.txt	LTP367	ltpFR2	6	8	DRUG	501	n/a	n/a	0	0	0
1745.42431640625	n/a	REST_REWET	3574629	n/a	LTP367	ltpFR2	6	8	n/a	n/a	n/a	n/a	0	0	0
1882.92626953125	n/a	DISTRACTOR	3856233	n/a	LTP367	ltpFR2	6	9	n/a	n/a	n/a	n/a	0	0	0
1882.92626953125	n/a	START	3856233	n/a	LTP367	ltpFR2	6	n/a	n/a	n/a	12	n/a	n/a	n/a	n/a
1882.943359375	n/a	PROB	3856268	n/a	LTP367	ltpFR2	6	n/a	n/a	n/a	12	8	6	1	1
1884.2744140625	n/a	PROB	3858994	n/a	LTP367	ltpFR2	6	n/a	n/a	n/a	12	16	7	2	7
1885.80859375	n/a	PROB	3862136	n/a	LTP367	ltpFR2	6	n/a	n/a	n/a	12	16	8	2	6
1887.07421875	n/a	PROB	3864728	n/a	LTP367	ltpFR2	6	n/a	n/a	n/a	12	15	5	4	6
1889.2724609375	n/a	PROB	3869230	n/a	LTP367	ltpFR2	6	n/a	n/a	n/a	12	13	2	3	8
1890.58935546875	n/a	PROB	3871927	n/a	LTP367	ltpFR2	6	n/a	n/a	n/a	12	7	3	2	2
1892.97119140625	n/a	PROB	3876805	n/a	LTP367	ltpFR2	6	n/a	n/a	n/a	12	19	2	9	8
1894.68701171875	n/a	PROB	3880319	n/a	LTP367	ltpFR2	6	n/a	n/a	n/a	12	20	8	5	8
1896.6533203125	n/a	PROB	3884346	n/a	LTP367	ltpFR2	6	n/a	n/a	n/a	12	10	1	6	3
1898.06884765625	n/a	PROB	3887245	n/a	LTP367	ltpFR2	6	n/a	n/a	n/a	12	21	9	3	9
1899.90185546875	n/a	PROB	3890999	n/a	LTP367	ltpFR2	6	n/a	n/a	n/a	12	13	1	4	8
1903.69970703125	n/a	PROB	3898777	n/a	LTP367	ltpFR2	6	n/a	n/a	n/a	12	21	9	6	6
1905.669921875	n/a	STOP	3902812	n/a	LTP367	ltpFR2	6	n/a	n/a	n/a	12	n/a	n/a	n/a	n/a
1908.09765625	n/a	WORD	3907784	wordpools/wasnorm_wordpool_576.txt	LTP367	ltpFR2	6	9	HOOD	714	n/a	n/a	0	0	0
1910.52978515625	n/a	WORD	3912765	wordpools/wasnorm_wordpool_576.txt	LTP367	ltpFR2	6	9	UNCLE	1536	n/a	n/a	0	0	0
1913.0615234375	n/a	WORD	3917950	wordpools/wasnorm_wordpool_576.txt	LTP367	ltpFR2	6	9	LAMP	798	n/a	n/a	0	0	0
1915.52734375	n/a	WORD	3923000	wordpools/wasnorm_wordpool_576.txt	LTP367	ltpFR2	6	9	MATCH	878	n/a	n/a	0	0	0
1918.32568359375	n/a	WORD	3928731	wordpools/wasnorm_wordpool_576.txt	LTP367	ltpFR2	6	9	COUSIN	392	n/a	n/a	0	0	0
1920.8916015625	n/a	WORD	3933986	wordpools/wasnorm_wordpool_576.txt	LTP367	ltpFR2	6	9	PASTRY	1022	n/a	n/a	0	0	0
1923.55712890625	n/a	WORD	3939445	wordpools/wasnorm_wordpool_576.txt	LTP367	ltpFR2	6	9	BANKER	84	n/a	n/a	0	0	0
1926.38818359375	n/a	WORD	3945243	wordpools/wasnorm_wordpool_576.txt	LTP367	ltpFR2	6	9	SCARECROW	1245	n/a	n/a	0	0	0
1929.05419921875	n/a	WORD	3950703	wordpools/wasnorm_wordpool_576.txt	LTP367	ltpFR2	6	9	SEAL	1262	n/a	n/a	0	0	0
1931.72021484375	n/a	WORD	3956163	wordpools/wasnorm_wordpool_576.txt	LTP367	ltpFR2	6	9	COLLEGE	346	n/a	n/a	0	0	0
1934.451171875	n/a	WORD	3961756	wordpools/wasnorm_wordpool_576.txt	LTP367	ltpFR2	6	9	BLOUSE	139	n/a	n/a	0	0	0
1937.14990234375	n/a	WORD	3967283	wordpools/wasnorm_wordpool_576.txt	LTP367	ltpFR2	6	9	PUPPY	1144	n/a	n/a	0	0	0
1939.61572265625	n/a	WORD	3972333	wordpools/wasnorm_wordpool_576.txt	LTP367	ltpFR2	6	9	WRENCH	1625	n/a	n/a	0	0	0
1942.22998046875	n/a	WORD	3977687	wordpools/wasnorm_wordpool_576.txt	LTP367	ltpFR2	6	9	PLIERS	1089	n/a	n/a	0	0	0
1945.046875	n/a	WORD	3983456	wordpools/wasnorm_wordpool_576.txt	LTP367	ltpFR2	6	9	PIMPLE	1071	n/a	n/a	0	0	0
1947.86181640625	n/a	WORD	3989221	wordpools/wasnorm_wordpool_576.txt	LTP367	ltpFR2	6	9	OX	994	n/a	n/a	0	0	0
1950.66064453125	n/a	WORD	3994953	wordpools/wasnorm_wordpool_576.txt	LTP367	ltpFR2	6	9	NIGHTGOWN	953	n/a	n/a	0	0	0
1953.2744140625	n/a	WORD	4000306	wordpools/wasnorm_wordpool_576.txt	LTP367	ltpFR2	6	9	LIPSTICK	829	n/a	n/a	0	0	0
1955.82421875	n/a	WORD	4005528	wordpools/wasnorm_wordpool_576.txt	LTP367	ltpFR2	6	9	AIRPORT	13	n/a	n/a	0	0	0
1958.37255859375	n/a	WORD	4010747	wordpools/wasnorm_wordpool_576.txt	LTP367	ltpFR2	6	9	SEAGULL	1261	n/a	n/a	0	0	0
1961.1552734375	n/a	WORD	4016446	wordpools/wasnorm_wordpool_576.txt	LTP367	ltpFR2	6	9	ISLAND	745	n/a	n/a	0	0	0
1963.787109375	n/a	WORD	4021836	wordpools/wasnorm_wordpool_576.txt	LTP367	ltpFR2	6	9	DRINK	498	n/a	n/a	0	0	0
1966.28515625	n/a	WORD	4026952	wordpools/wasnorm_wordpool_576.txt	LTP367	ltpFR2	6	9	COUCH	386	n/a	n/a	0	0	0
1968.73486328125	n/a	WORD	4031969	wordpools/wasnorm_wordpool_576.txt	LTP367	ltpFR2	6	9	FLAG	573	n/a	n/a	0	0	0
1970.35009765625	n/a	START	4035277	n/a	LTP367	ltpFR2	6	n/a	n/a	n/a	13	n/a	n/a	n/a	n/a
1971.451171875	n/a	DISTRACTOR	4037532	n/a	LTP367	ltpFR2	6	9	n/a	n/a	n/a	n/a	0	0	0
1971.4658203125	n/a	PROB	4037562	n/a	LTP367	ltpFR2	6	n/a	n/a	n/a	13	12	5	3	4
1975.4638671875	n/a	PROB	4045750	n/a	LTP367	ltpFR2	6	n/a	n/a	n/a	13	15	3	9	3
1978.2626953125	n/a	PROB	4051482	n/a	LTP367	ltpFR2	6	n/a	n/a	n/a	13	14	2	3	9
1980.02978515625	n/a	PROB	4055101	n/a	LTP367	ltpFR2	6	n/a	n/a	n/a	13	15	9	3	3
1981.7626953125	n/a	PROB	4058650	n/a	LTP367	ltpFR2	6	n/a	n/a	n/a	13	12	1	6	5
1983.14453125	n/a	PROB	4061480	n/a	LTP367	ltpFR2	6	n/a	n/a	n/a	13	10	2	6	2
1984.96044921875	n/a	PROB	4065199	n/a	LTP367	ltpFR2	6	n/a	n/a	n/a	13	10	5	3	2
1986.42578125	n/a	PROB	4068200	n/a	LTP367	ltpFR2	6	n/a	n/a	n/a	13	5	1	2	2
1988.09228515625	n/a	PROB	4071613	n/a	LTP367	ltpFR2	6	n/a	n/a	n/a	13	18	6	7	5
1990.04150390625	n/a	PROB	4075605	n/a	LTP367	ltpFR2	6	n/a	n/a	n/a	13	21	9	9	3
1991.70751953125	n/a	PROB	4079017	n/a	LTP367	ltpFR2	6	n/a	n/a	n/a	13	16	4	6	6
1993.01416015625	n/a	STOP	4081693	n/a	LTP367	ltpFR2	6	n/a	n/a	n/a	13	n/a	n/a	n/a	n/a
1996.271484375	n/a	REC_START	4088364	n/a	LTP367	ltpFR2	6	9	n/a	n/a	n/a	n/a	0	0	0
1997.04638671875	n/a	REC_WORD	4089951	wordpools/wasnorm_wordpool_576.txt	LTP367	ltpFR2	6	9	UNCLE	1536	n/a	n/a	0	0	0
1997.9970703125	n/a	REC_WORD	4091898	wordpools/wasnorm_wordpool_576.txt	LTP367	ltpFR2	6	9	HOOD	714	n/a	n/a	0	0	0
1998.9599609375	n/a	REC_WORD	4093870	wordpools/wasnorm_wordpool_576.txt	LTP367	ltpFR2	6	9	LAMP	798	n/a	n/a	0	0	0
2000.02197265625	n/a	REC_WORD	4096045	wordpools/wasnorm_wordpool_576.txt	LTP367	ltpFR2	6	9	MATCH	878	n/a	n/a	0	0	0
2001.09521484375	n/a	REC_WORD	4098243	wordpools/wasnorm_wordpool_576.txt	LTP367	ltpFR2	6	9	COUSIN	392	n/a	n/a	0	0	0
2002.09326171875	n/a	REC_WORD	4100287	wordpools/wasnorm_wordpool_576.txt	LTP367	ltpFR2	6	9	PASTRY	1022	n/a	n/a	0	0	0
2003.34423828125	n/a	REC_WORD	4102849	wordpools/wasnorm_wordpool_576.txt	LTP367	ltpFR2	6	9	BANKER	84	n/a	n/a	0	0	0
2004.31396484375	n/a	REC_WORD	4104835	wordpools/wasnorm_wordpool_576.txt	LTP367	ltpFR2	6	9	SEAL	1262	n/a	n/a	0	0	0
2005.5361328125	n/a	REC_WORD	4107338	wordpools/wasnorm_wordpool_576.txt	LTP367	ltpFR2	6	9	COLLEGE	346	n/a	n/a	0	0	0
2006.51220703125	n/a	REC_WORD	4109337	wordpools/wasnorm_wordpool_576.txt	LTP367	ltpFR2	6	9	SCARECROW	1245	n/a	n/a	0	0	0
2007.7939453125	n/a	REC_WORD	4111962	wordpools/wasnorm_wordpool_576.txt	LTP367	ltpFR2	6	9	BLOUSE	139	n/a	n/a	0	0	0
2009.00390625	n/a	REC_WORD	4114440	wordpools/wasnorm_wordpool_576.txt	LTP367	ltpFR2	6	9	OX	994	n/a	n/a	0	0	0
2009.8876953125	n/a	REC_WORD	4116250	wordpools/wasnorm_wordpool_576.txt	LTP367	ltpFR2	6	9	NIGHTGOWN	953	n/a	n/a	0	0	0
2010.89501953125	n/a	REC_WORD	4118313	wordpools/wasnorm_wordpool_576.txt	LTP367	ltpFR2	6	9	LIPSTICK	829	n/a	n/a	0	0	0
2012.5546875	n/a	REC_WORD	4121712	wordpools/wasnorm_wordpool_576.txt	LTP367	ltpFR2	6	9	PLIERS	1089	n/a	n/a	0	0	0
2013.5458984375	n/a	REC_WORD	4123742	wordpools/wasnorm_wordpool_576.txt	LTP367	ltpFR2	6	9	WRENCH	1625	n/a	n/a	0	0	0
2014.5546875	n/a	REC_WORD	4125808	wordpools/wasnorm_wordpool_576.txt	LTP367	ltpFR2	6	9	PIMPLE	1071	n/a	n/a	0	0	0
2015.5576171875	n/a	REC_WORD	4127862	wordpools/wasnorm_wordpool_576.txt	LTP367	ltpFR2	6	9	AIRPORT	13	n/a	n/a	0	0	0
2016.58056640625	n/a	REC_WORD	4129957	wordpools/wasnorm_wordpool_576.txt	LTP367	ltpFR2	6	9	SEAGULL	1261	n/a	n/a	0	0	0
2017.73681640625	n/a	REC_WORD	4132325	wordpools/wasnorm_wordpool_576.txt	LTP367	ltpFR2	6	9	ISLAND	745	n/a	n/a	0	0	0
2019.302734375	n/a	REC_WORD	4135532	wordpools/wasnorm_wordpool_576.txt	LTP367	ltpFR2	6	9	COUCH	386	n/a	n/a	0	0	0
2020.353515625	n/a	REC_WORD	4137684	wordpools/wasnorm_wordpool_576.txt	LTP367	ltpFR2	6	9	DRINK	498	n/a	n/a	0	0	0
2022.28271484375	n/a	REC_WORD	4141635	wordpools/wasnorm_wordpool_576.txt	LTP367	ltpFR2	6	9	PUPPY	1144	n/a	n/a	0	0	0
2024.08544921875	n/a	REC_WORD	4145327	wordpools/wasnorm_wordpool_576.txt	LTP367	ltpFR2	6	9	FLAG	573	n/a	n/a	0	0	0
2086.69580078125	n/a	DISTRACTOR	4273553	n/a	LTP367	ltpFR2	6	10	n/a	n/a	n/a	n/a	0	0	0
2086.69580078125	n/a	START	4273553	n/a	LTP367	ltpFR2	6	n/a	n/a	n/a	14	n/a	n/a	n/a	n/a
2086.71142578125	n/a	PROB	4273585	n/a	LTP367	ltpFR2	6	n/a	n/a	n/a	14	20	8	6	6
2088.61083984375	n/a	PROB	4277475	n/a	LTP367	ltpFR2	6	n/a	n/a	n/a	14	15	3	9	3
2090.1435546875	n/a	PROB	4280614	n/a	LTP367	ltpFR2	6	n/a	n/a	n/a	14	19	7	9	3
2091.54248046875	n/a	PROB	4283479	n/a	LTP367	ltpFR2	6	n/a	n/a	n/a	14	8	1	3	4
2093.357421875	n/a	PROB	4287196	n/a	LTP367	ltpFR2	6	n/a	n/a	n/a	14	19	9	4	6
2094.974609375	n/a	PROB	4290508	n/a	LTP367	ltpFR2	6	n/a	n/a	n/a	14	16	4	6	6
2096.189453125	n/a	PROB	4292996	n/a	LTP367	ltpFR2	6	n/a	n/a	n/a	14	12	8	3	1
2098.0732421875	n/a	PROB	4296854	n/a	LTP367	ltpFR2	6	n/a	n/a	n/a	14	17	5	3	9
2100.67236328125	n/a	PROB	4302177	n/a	LTP367	ltpFR2	6	n/a	n/a	n/a	14	23	8	9	6
2102.80419921875	n/a	PROB	4306543	n/a	LTP367	ltpFR2	6	n/a	n/a	n/a	14	17	8	1	8
2104.68603515625	n/a	PROB	4310397	n/a	LTP367	ltpFR2	6	n/a	n/a	n/a	14	3	1	1	1
2105.68603515625	n/a	PROB	4312445	n/a	LTP367	ltpFR2	6	n/a	n/a	n/a	14	9	1	4	4
2108.25	n/a	PROB	4317696	n/a	LTP367	ltpFR2	6	n/a	n/a	n/a	14	9	5	1	3
2109.76708984375	n/a	STOP	4320803	n/a	LTP367	ltpFR2	6	n/a	n/a	n/a	14	n/a	n/a	n/a	n/a
2111.85009765625	n/a	WORD	4325069	wordpools/wasnorm_wordpool_576.txt	LTP367	ltpFR2	6	10	BRACES	164	n/a	n/a	0	0	0
2114.56494140625	n/a	WORD	4330629	wordpools/wasnorm_wordpool_576.txt	LTP367	ltpFR2	6	10	LODGE	839	n/a	n/a	0	0	0
2117.06396484375	n/a	WORD	4335747	wordpools/wasnorm_wordpool_576.txt	LTP367	ltpFR2	6	10	MAPLE	866	n/a	n/a	0	0	0
2119.51171875	n/a	WORD	4340760	wordpools/wasnorm_wordpool_576.txt	LTP367	ltpFR2	6	10	SHRUB	1299	n/a	n/a	0	0	0
2122.21044921875	n/a	WORD	4346287	wordpools/wasnorm_wordpool_576.txt	LTP367	ltpFR2	6	10	ARM	38	n/a	n/a	0	0	0
2125.0263671875	n/a	WORD	4352054	wordpools/wasnorm_wordpool_576.txt	LTP367	ltpFR2	6	10	FINGER	567	n/a	n/a	0	0	0
2127.45751953125	n/a	WORD	4357033	wordpools/wasnorm_wordpool_576.txt	LTP367	ltpFR2	6	10	MUSTARD	935	n/a	n/a	0	0	0
2130.17431640625	n/a	WORD	4362597	wordpools/wasnorm_wordpool_576.txt	LTP367	ltpFR2	6	10	NOMAD	955	n/a	n/a	0	0	0
2132.62353515625	n/a	WORD	4367613	wordpools/wasnorm_wordpool_576.txt	LTP367	ltpFR2	6	10	FOOTBALL	591	n/a	n/a	0	0	0
2135.42138671875	n/a	WORD	4373343	wordpools/wasnorm_wordpool_576.txt	LTP367	ltpFR2	6	10	DANDRUFF	439	n/a	n/a	0	0	0
2137.9873046875	n/a	WORD	4378598	wordpools/wasnorm_wordpool_576.txt	LTP367	ltpFR2	6	10	CLOCK	325	n/a	n/a	0	0	0
2140.619140625	n/a	WORD	4383988	wordpools/wasnorm_wordpool_576.txt	LTP367	ltpFR2	6	10	IDOL	733	n/a	n/a	0	0	0
2143.0849609375	n/a	WORD	4389038	wordpools/wasnorm_wordpool_576.txt	LTP367	ltpFR2	6	10	LIVER	833	n/a	n/a	0	0	0
2145.5498046875	n/a	WORD	4394086	wordpools/wasnorm_wordpool_576.txt	LTP367	ltpFR2	6	10	MEAT	883	n/a	n/a	0	0	0
2148.2978515625	n/a	WORD	4399714	wordpools/wasnorm_wordpool_576.txt	LTP367	ltpFR2	6	10	THIEF	1456	n/a	n/a	0	0	0
2150.880859375	n/a	WORD	4405004	wordpools/wasnorm_wordpool_576.txt	LTP367	ltpFR2	6	10	JUDGE	761	n/a	n/a	0	0	0
2153.56298828125	n/a	WORD	4410497	wordpools/wasnorm_wordpool_576.txt	LTP367	ltpFR2	6	10	RIVER	1194	n/a	n/a	0	0	0
2156.07861328125	n/a	WORD	4415649	wordpools/wasnorm_wordpool_576.txt	LTP367	ltpFR2	6	10	GRIZZLY	662	n/a	n/a	0	0	0
2158.52783203125	n/a	WORD	4420665	wordpools/wasnorm_wordpool_576.txt	LTP367	ltpFR2	6	10	KIDNEY	776	n/a	n/a	0	0	0
2161.20849609375	n/a	WORD	4426155	wordpools/wasnorm_wordpool_576.txt	LTP367	ltpFR2	6	10	CABIN	211	n/a	n/a	0	0	0
2164.0244140625	n/a	WORD	4431922	wordpools/wasnorm_wordpool_576.txt	LTP367	ltpFR2	6	10	PORK	1108	n/a	n/a	0	0	0
2166.84033203125	n/a	WORD	4437689	wordpools/wasnorm_wordpool_576.txt	LTP367	ltpFR2	6	10	PLAID	1080	n/a	n/a	0	0	0
2169.55517578125	n/a	WORD	4443249	wordpools/wasnorm_wordpool_576.txt	LTP367	ltpFR2	6	10	SHIRT	1287	n/a	n/a	0	0	0
2172.00439453125	n/a	WORD	4448265	wordpools/wasnorm_wordpool_576.txt	LTP367	ltpFR2	6	10	GYMNAST	675	n/a	n/a	0	0	0
2173.6201171875	n/a	START	4451574	n/a	LTP367	ltpFR2	6	n/a	n/a	n/a	15	n/a	n/a	n/a	n/a
2174.541015625	n/a	DISTRACTOR	4453460	n/a	LTP367	ltpFR2	6	10	n/a	n/a	n/a	n/a	0	0	0
2174.55322265625	n/a	PROB	4453485	n/a	LTP367	ltpFR2	6	n/a	n/a	n/a	15	21	8	7	6
2178.8837890625	n/a	PROB	4462354	n/a	LTP367	ltpFR2	6	n/a	n/a	n/a	15	22	9	8	5
2181.93310546875	n/a	PROB	4468599	n/a	LTP367	ltpFR2	6	n/a	n/a	n/a	15	20	8	9	3
2184.1806640625	n/a	PROB	4473202	n/a	LTP367	ltpFR2	6	n/a	n/a	n/a	15	15	7	3	5
2185.3466796875	n/a	PROB	4475590	n/a	LTP367	ltpFR2	6	n/a	n/a	n/a	15	10	2	7	1
2186.53076171875	n/a	PROB	4478015	n/a	LTP367	ltpFR2	6	n/a	n/a	n/a	15	24	8	8	8
2188.14697265625	n/a	PROB	4481325	n/a	LTP367	ltpFR2	6	n/a	n/a	n/a	15	14	6	3	5
2189.962890625	n/a	PROB	4485044	n/a	LTP367	ltpFR2	6	n/a	n/a	n/a	15	14	1	6	7
2191.7275390625	n/a	PROB	4488658	n/a	LTP367	ltpFR2	6	n/a	n/a	n/a	15	8	1	6	1
2192.9775390625	n/a	PROB	4491218	n/a	LTP367	ltpFR2	6	n/a	n/a	n/a	15	13	7	2	4
2194.59375	n/a	PROB	4494528	n/a	LTP367	ltpFR2	6	n/a	n/a	n/a	15	11	7	1	3
2195.7763671875	n/a	PROB	4496950	n/a	LTP367	ltpFR2	6	n/a	n/a	n/a	15	15	3	5	7
2197.16650390625	n/a	STOP	4499797	n/a	LTP367	ltpFR2	6	n/a	n/a	n/a	15	n/a	n/a	n/a	n/a
2199.4072265625	n/a	REC_START	4504386	n/a	LTP367	ltpFR2	6	10	n/a	n/a	n/a	n/a	0	0	0
2203.9775390625	n/a	REC_WORD	4513746	wordpools/wasnorm_wordpool_576.txt	LTP367	ltpFR2	6	10	BRACES	164	n/a	n/a	0	0	0
2204.80322265625	n/a	REC_WORD	4515437	wordpools/wasnorm_wordpool_576.txt	LTP367	ltpFR2	6	10	LODGE	839	n/a	n/a	0	0	0
2205.72119140625	n/a	REC_WORD	4517317	wordpools/wasnorm_wordpool_576.txt	LTP367	ltpFR2	6	10	MAPLE	866	n/a	n/a	0	0	0
2206.54345703125	n/a	REC_WORD	4519001	wordpools/wasnorm_wordpool_576.txt	LTP367	ltpFR2	6	10	SHRUB	1299	n/a	n/a	0	0	0
2207.72509765625	n/a	REC_WORD	4521421	wordpools/wasnorm_wordpool_576.txt	LTP367	ltpFR2	6	10	ARM	38	n/a	n/a	0	0	0
2208.6083984375	n/a	REC_WORD	4523230	wordpools/wasnorm_wordpool_576.txt	LTP367	ltpFR2	6	10	FINGER	567	n/a	n/a	0	0	0
2209.43994140625	n/a	REC_WORD	4524933	wordpools/wasnorm_wordpool_576.txt	LTP367	ltpFR2	6	10	NOMAD	955	n/a	n/a	0	0	0
2210.31005859375	n/a	REC_WORD	4526715	wordpools/wasnorm_wordpool_576.txt	LTP367	ltpFR2	6	10	PLAID	1080	n/a	n/a	0	0	0
2212.001953125	n/a	REC_WORD	4530180	wordpools/wasnorm_wordpool_576.txt	LTP367	ltpFR2	6	10	MUSTARD	935	n/a	n/a	0	0	0
2212.71484375	n/a	REC_WORD	4531640	wordpools/wasnorm_wordpool_576.txt	LTP367	ltpFR2	6	10	FOOTBALL	591	n/a	n/a	0	0	0
2215.580078125	n/a	REC_WORD	4537508	wordpools/wasnorm_wordpool_576.txt	LTP367	ltpFR2	6	10	CLOCK	325	n/a	n/a	0	0	0
2217.18505859375	n/a	REC_WORD	4540795	wordpools/wasnorm_wordpool_576.txt	LTP367	ltpFR2	6	10	IDOL	733	n/a	n/a	0	0	0
2218.2978515625	n/a	REC_WORD	4543074	wordpools/wasnorm_wordpool_576.txt	LTP367	ltpFR2	6	10	MEAT	883	n/a	n/a	0	0	0
2219.17578125	n/a	REC_WORD	4544872	wordpools/wasnorm_wordpool_576.txt	LTP367	ltpFR2	6	10	LIVER	833	n/a	n/a	0	0	0
2220.802734375	n/a	REC_WORD	4548204	wordpools/wasnorm_wordpool_576.txt	LTP367	ltpFR2	6	10	THIEF	1456	n/a	n/a	0	0	0
2225.8466796875	n/a	REC_WORD	4558534	wordpools/wasnorm_wordpool_576.txt	LTP367	ltpFR2	6	10	JUDGE	761	n/a	n/a	0	0	0
2226.86181640625	n/a	REC_WORD	4560613	wordpools/wasnorm_wordpool_576.txt	LTP367	ltpFR2	6	10	RIVER	1194	n/a	n/a	0	0	0
2229.41357421875	n/a	REC_WORD	4565839	wordpools/wasnorm_wordpool_576.txt	LTP367	ltpFR2	6	10	KIDNEY	776	n/a	n/a	0	0	0
2229.98974609375	n/a	REC_WORD	4567019	wordpools/wasnorm_wordpool_576.txt	LTP367	ltpFR2	6	10	SHIRT	1287	n/a	n/a	0	0	0
2230.74755859375	n/a	REC_WORD	4568571	wordpools/wasnorm_wordpool_576.txt	LTP367	ltpFR2	6	10	PLAID	1080	n/a	n/a	0	0	0
2231.96142578125	n/a	REC_WORD	4571057	wordpools/wasnorm_wordpool_576.txt	LTP367	ltpFR2	6	10	GYMNAST	675	n/a	n/a	0	0	0
2249.9521484375	n/a	REC_WORD	4607902	wordpools/wasnorm_wordpool_576.txt	LTP367	ltpFR2	6	10	CABIN	211	n/a	n/a	0	0	0
2250.94091796875	n/a	REC_WORD	4609927	wordpools/wasnorm_wordpool_576.txt	LTP367	ltpFR2	6	10	PORK	1108	n/a	n/a	0	0	0
2289.84765625	n/a	WORD	4689608	wordpools/wasnorm_wordpool_576.txt	LTP367	ltpFR2	6	11	PLATE	1086	n/a	n/a	0	0	0
2292.57958984375	n/a	WORD	4695203	wordpools/wasnorm_wordpool_576.txt	LTP367	ltpFR2	6	11	VELVET	1555	n/a	n/a	0	0	0
2295.044921875	n/a	WORD	4700252	wordpools/wasnorm_wordpool_576.txt	LTP367	ltpFR2	6	11	BROOK	177	n/a	n/a	0	0	0
2297.54345703125	n/a	WORD	4705369	wordpools/wasnorm_wordpool_576.txt	LTP367	ltpFR2	6	11	PISTOL	1075	n/a	n/a	0	0	0
2300.142578125	n/a	WORD	4710692	wordpools/wasnorm_wordpool_576.txt	LTP367	ltpFR2	6	11	NURSE	963	n/a	n/a	0	0	0
2302.59130859375	n/a	WORD	4715707	wordpools/wasnorm_wordpool_576.txt	LTP367	ltpFR2	6	11	OINTMENT	974	n/a	n/a	0	0	0
2305.30517578125	n/a	WORD	4721265	wordpools/wasnorm_wordpool_576.txt	LTP367	ltpFR2	6	11	TWISTER	1530	n/a	n/a	0	0	0
2307.75537109375	n/a	WORD	4726283	wordpools/wasnorm_wordpool_576.txt	LTP367	ltpFR2	6	11	BROTHER	179	n/a	n/a	0	0	0
2310.287109375	n/a	WORD	4731468	wordpools/wasnorm_wordpool_576.txt	LTP367	ltpFR2	6	11	BOX	159	n/a	n/a	0	0	0
2312.80322265625	n/a	WORD	4736621	wordpools/wasnorm_wordpool_576.txt	LTP367	ltpFR2	6	11	PARENT	1013	n/a	n/a	0	0	0
2315.53515625	n/a	WORD	4742216	wordpools/wasnorm_wordpool_576.txt	LTP367	ltpFR2	6	11	MISSILE	900	n/a	n/a	0	0	0
2318.2001953125	n/a	WORD	4747674	wordpools/wasnorm_wordpool_576.txt	LTP367	ltpFR2	6	11	HEART	697	n/a	n/a	0	0	0
2320.916015625	n/a	WORD	4753236	wordpools/wasnorm_wordpool_576.txt	LTP367	ltpFR2	6	11	FOREST	593	n/a	n/a	0	0	0
2323.5478515625	n/a	WORD	4758626	wordpools/wasnorm_wordpool_576.txt	LTP367	ltpFR2	6	11	FUNGUS	614	n/a	n/a	0	0	0
2326.07958984375	n/a	WORD	4763811	wordpools/wasnorm_wordpool_576.txt	LTP367	ltpFR2	6	11	SIBLING	1301	n/a	n/a	0	0	0
2328.5458984375	n/a	WORD	4768862	wordpools/wasnorm_wordpool_576.txt	LTP367	ltpFR2	6	11	SALMON	1227	n/a	n/a	0	0	0
2331.27685546875	n/a	WORD	4774455	wordpools/wasnorm_wordpool_576.txt	LTP367	ltpFR2	6	11	SEAFOOD	1260	n/a	n/a	0	0	0
2334.0927734375	n/a	WORD	4780222	wordpools/wasnorm_wordpool_576.txt	LTP367	ltpFR2	6	11	GREASE	660	n/a	n/a	0	0	0
2336.6416015625	n/a	WORD	4785442	wordpools/wasnorm_wordpool_576.txt	LTP367	ltpFR2	6	11	ARMY	39	n/a	n/a	0	0	0
2339.189453125	n/a	WORD	4790660	wordpools/wasnorm_wordpool_576.txt	LTP367	ltpFR2	6	11	BLADE	134	n/a	n/a	0	0	0
2341.689453125	n/a	WORD	4795780	wordpools/wasnorm_wordpool_576.txt	LTP367	ltpFR2	6	11	SCALPEL	1243	n/a	n/a	0	0	0
2344.1552734375	n/a	WORD	4800830	wordpools/wasnorm_wordpool_576.txt	LTP367	ltpFR2	6	11	LILY	821	n/a	n/a	0	0	0
2346.953125	n/a	WORD	4806560	wordpools/wasnorm_wordpool_576.txt	LTP367	ltpFR2	6	11	DAUGHTER	442	n/a	n/a	0	0	0
2349.5693359375	n/a	WORD	4811918	wordpools/wasnorm_wordpool_576.txt	LTP367	ltpFR2	6	11	DRESS	495	n/a	n/a	0	0	0
2351.18408203125	n/a	START	4815225	n/a	LTP367	ltpFR2	6	n/a	n/a	n/a	16	n/a	n/a	n/a	n/a
2352.10888671875	n/a	DISTRACTOR	4817119	n/a	LTP367	ltpFR2	6	11	n/a	n/a	n/a	n/a	0	0	0
2352.1181640625	n/a	PROB	4817138	n/a	LTP367	ltpFR2	6	n/a	n/a	n/a	16	18	9	5	4
2354.0830078125	n/a	PROB	4821162	n/a	LTP367	ltpFR2	6	n/a	n/a	n/a	16	9	2	2	5
2356.2978515625	n/a	PROB	4825698	n/a	LTP367	ltpFR2	6	n/a	n/a	n/a	16	13	9	1	3
2357.64794921875	n/a	PROB	4828463	n/a	LTP367	ltpFR2	6	n/a	n/a	n/a	16	12	2	3	7
2359.09765625	n/a	PROB	4831432	n/a	LTP367	ltpFR2	6	n/a	n/a	n/a	16	22	9	9	4
2360.64697265625	n/a	PROB	4834605	n/a	LTP367	ltpFR2	6	n/a	n/a	n/a	16	22	5	8	9
2364.2275390625	n/a	PROB	4841938	n/a	LTP367	ltpFR2	6	n/a	n/a	n/a	16	18	1	9	8
2365.87744140625	n/a	PROB	4845317	n/a	LTP367	ltpFR2	6	n/a	n/a	n/a	16	14	8	4	2
2367.54345703125	n/a	PROB	4848729	n/a	LTP367	ltpFR2	6	n/a	n/a	n/a	16	13	2	5	6
2370.04248046875	n/a	PROB	4853847	n/a	LTP367	ltpFR2	6	n/a	n/a	n/a	16	17	8	6	3
2372.62451171875	n/a	PROB	4859135	n/a	LTP367	ltpFR2	6	n/a	n/a	n/a	16	12	1	6	5
2373.96728515625	n/a	STOP	4861885	n/a	LTP367	ltpFR2	6	n/a	n/a	n/a	16	n/a	n/a	n/a	n/a
2377.05615234375	n/a	REC_START	4868211	n/a	LTP367	ltpFR2	6	11	n/a	n/a	n/a	n/a	0	0	0
2378.5732421875	n/a	REC_WORD	4871318	wordpools/wasnorm_wordpool_576.txt	LTP367	ltpFR2	6	11	PLATE	1086	n/a	n/a	0	0	0
2381.67431640625	n/a	REC_WORD	4877669	wordpools/wasnorm_wordpool_576.txt	LTP367	ltpFR2	6	11	VELVET	1555	n/a	n/a	0	0	0
2382.75830078125	n/a	REC_WORD	4879889	wordpools/wasnorm_wordpool_576.txt	LTP367	ltpFR2	6	11	BROOK	177	n/a	n/a	0	0	0
2388.119140625	n/a	REC_WORD	4890868	wordpools/wasnorm_wordpool_576.txt	LTP367	ltpFR2	6	11	BROTHER	179	n/a	n/a	0	0	0
2388.76611328125	n/a	REC_WORD	4892193	wordpools/wasnorm_wordpool_576.txt	LTP367	ltpFR2	6	11	NURSE	963	n/a	n/a	0	0	0
2389.55908203125	n/a	REC_WORD	4893817	wordpools/wasnorm_wordpool_576.txt	LTP367	ltpFR2	6	11	OINTMENT	974	n/a	n/a	0	0	0
2390.208984375	n/a	REC_WORD	4895148	wordpools/wasnorm_wordpool_576.txt	LTP367	ltpFR2	6	11	BOX	159	n/a	n/a	0	0	0
2390.98779296875	n/a	REC_WORD	4896743	wordpools/wasnorm_wordpool_576.txt	LTP367	ltpFR2	6	11	PARENT	1013	n/a	n/a	0	0	0
2391.57275390625	n/a	REC_WORD	4897941	wordpools/wasnorm_wordpool_576.txt	LTP367	ltpFR2	6	11	TWISTER	1530	n/a	n/a	0	0	0
2392.35107421875	n/a	REC_WORD	4899535	wordpools/wasnorm_wordpool_576.txt	LTP367	ltpFR2	6	11	MISSILE	900	n/a	n/a	0	0	0
2392.94482421875	n/a	REC_WORD	4900751	wordpools/wasnorm_wordpool_576.txt	LTP367	ltpFR2	6	11	HEART	697	n/a	n/a	0	0	0
2394.90673828125	n/a	REC_WORD	4904769	wordpools/wasnorm_wordpool_576.txt	LTP367	ltpFR2	6	11	FOREST	593	n/a	n/a	0	0	0
2395.931640625	n/a	REC_WORD	4906868	wordpools/wasnorm_wordpool_576.txt	LTP367	ltpFR2	6	11	FUNGUS	614	n/a	n/a	0	0	0
2397.09765625	n/a	REC_WORD	4909256	wordpools/wasnorm_wordpool_576.txt	LTP367	ltpFR2	6	11	SIBLING	1301	n/a	n/a	0	0	0
2400.58349609375	n/a	REC_WORD	4916395	wordpools/wasnorm_wordpool_576.txt	LTP367	ltpFR2	6	11	ARMY	39	n/a	n/a	0	0	0
2402.23974609375	n/a	REC_WORD	4919787	wordpools/wasnorm_wordpool_576.txt	LTP367	ltpFR2	6	11	BLADE	134	n/a	n/a	0	0	0
2403.390625	n/a	REC_WORD	4922144	wordpools/wasnorm_wordpool_576.txt	LTP367	ltpFR2	6	11	SCALPEL	1243	n/a	n/a	0	0	0
2406.57861328125	n/a	REC_WORD	4928673	wordpools/wasnorm_wordpool_576.txt	LTP367	ltpFR2	6	11	SISTER	1312	n/a	n/a	0	0	0
2409.29931640625	n/a	REC_WORD	4934245	wordpools/wasnorm_wordpool_576.txt	LTP367	ltpFR2	6	11	DRESS	495	n/a	n/a	0	0	0
2411.7734375	n/a	REC_WORD	4939312	wordpools/wasnorm_wordpool_576.txt	LTP367	ltpFR2	6	11	SALMON	1227	n/a	n/a	0	0	0
2413.67919921875	n/a	REC_WORD	4943215	wordpools/wasnorm_wordpool_576.txt	LTP367	ltpFR2	6	11	GREASE	660	n/a	n/a	0	0	0
2433.640625	n/a	REC_WORD	4984096	wordpools/wasnorm_wordpool_576.txt	LTP367	ltpFR2	6	11	DAUGHTER	442	n/a	n/a	0	0	0
2467.49462890625	n/a	WORD	5053429	wordpools/wasnorm_wordpool_576.txt	LTP367	ltpFR2	6	12	MESSAGE	888	n/a	n/a	0	0	0
2470.11083984375	n/a	WORD	5058787	wordpools/wasnorm_wordpool_576.txt	LTP367	ltpFR2	6	12	CABBAGE	210	n/a	n/a	0	0	0
2472.79248046875	n/a	WORD	5064279	wordpools/wasnorm_wordpool_576.txt	LTP367	ltpFR2	6	12	HERO	706	n/a	n/a	0	0	0
2475.32470703125	n/a	WORD	5069465	wordpools/wasnorm_wordpool_576.txt	LTP367	ltpFR2	6	12	PEANUT	1032	n/a	n/a	0	0	0
2478.0234375	n/a	WORD	5074992	wordpools/wasnorm_wordpool_576.txt	LTP367	ltpFR2	6	12	BURGLAR	200	n/a	n/a	0	0	0
2480.75537109375	n/a	WORD	5080587	wordpools/wasnorm_wordpool_576.txt	LTP367	ltpFR2	6	12	PRIMATE	1123	n/a	n/a	0	0	0
2483.33740234375	n/a	WORD	5085875	wordpools/wasnorm_wordpool_576.txt	LTP367	ltpFR2	6	12	CATTLE	261	n/a	n/a	0	0	0
2486.00341796875	n/a	WORD	5091335	wordpools/wasnorm_wordpool_576.txt	LTP367	ltpFR2	6	12	BUTCHER	203	n/a	n/a	0	0	0
2488.53515625	n/a	WORD	5096520	wordpools/wasnorm_wordpool_576.txt	LTP367	ltpFR2	6	12	QUAIL	1147	n/a	n/a	0	0	0
2491.2158203125	n/a	WORD	5102010	wordpools/wasnorm_wordpool_576.txt	LTP367	ltpFR2	6	12	JUNGLE	764	n/a	n/a	0	0	0
2493.93310546875	n/a	WORD	5107575	wordpools/wasnorm_wordpool_576.txt	LTP367	ltpFR2	6	12	MASK	876	n/a	n/a	0	0	0
2496.748046875	n/a	WORD	5113340	wordpools/wasnorm_wordpool_576.txt	LTP367	ltpFR2	6	12	WAITER	1580	n/a	n/a	0	0	0
2499.22998046875	n/a	WORD	5118423	wordpools/wasnorm_wordpool_576.txt	LTP367	ltpFR2	6	12	WIDOW	1608	n/a	n/a	0	0	0
2501.6787109375	n/a	WORD	5123438	wordpools/wasnorm_wordpool_576.txt	LTP367	ltpFR2	6	12	HANDBAG	684	n/a	n/a	0	0	0
2504.1767578125	n/a	WORD	5128554	wordpools/wasnorm_wordpool_576.txt	LTP367	ltpFR2	6	12	JUGGLER	763	n/a	n/a	0	0	0
2506.6767578125	n/a	WORD	5133674	wordpools/wasnorm_wordpool_576.txt	LTP367	ltpFR2	6	12	RECORD	1176	n/a	n/a	0	0	0
2509.15869140625	n/a	WORD	5138757	wordpools/wasnorm_wordpool_576.txt	LTP367	ltpFR2	6	12	FLUTE	585	n/a	n/a	0	0	0
2511.890625	n/a	WORD	5144352	wordpools/wasnorm_wordpool_576.txt	LTP367	ltpFR2	6	12	BANK	83	n/a	n/a	0	0	0
2514.322265625	n/a	WORD	5149332	wordpools/wasnorm_wordpool_576.txt	LTP367	ltpFR2	6	12	STAMP	1370	n/a	n/a	0	0	0
2517.12109375	n/a	WORD	5155064	wordpools/wasnorm_wordpool_576.txt	LTP367	ltpFR2	6	12	PACKAGE	997	n/a	n/a	0	0	0
2519.55419921875	n/a	WORD	5160047	wordpools/wasnorm_wordpool_576.txt	LTP367	ltpFR2	6	12	CASHIER	254	n/a	n/a	0	0	0
2522.2509765625	n/a	WORD	5165570	wordpools/wasnorm_wordpool_576.txt	LTP367	ltpFR2	6	12	ROD	1203	n/a	n/a	0	0	0
2524.93505859375	n/a	WORD	5171067	wordpools/wasnorm_wordpool_576.txt	LTP367	ltpFR2	6	12	OMELET	976	n/a	n/a	0	0	0
2527.75	n/a	WORD	5176832	wordpools/wasnorm_wordpool_576.txt	LTP367	ltpFR2	6	12	COSTUME	383	n/a	n/a	0	0	0
2529.36474609375	n/a	START	5180139	n/a	LTP367	ltpFR2	6	n/a	n/a	n/a	17	n/a	n/a	n/a	n/a
2530.48095703125	n/a	DISTRACTOR	5182425	n/a	LTP367	ltpFR2	6	12	n/a	n/a	n/a	n/a	0	0	0
2530.498046875	n/a	PROB	5182460	n/a	LTP367	ltpFR2	6	n/a	n/a	n/a	17	16	5	5	6
2532.4970703125	n/a	PROB	5186554	n/a	LTP367	ltpFR2	6	n/a	n/a	n/a	17	16	4	9	3
2534.6796875	n/a	PROB	5191024	n/a	LTP367	ltpFR2	6	n/a	n/a	n/a	17	14	1	5	8
2538.34375	n/a	PROB	5198528	n/a	LTP367	ltpFR2	6	n/a	n/a	n/a	17	24	7	8	9
2540.3427734375	n/a	PROB	5202622	n/a	LTP367	ltpFR2	6	n/a	n/a	n/a	17	19	9	3	7
2541.84375	n/a	PROB	5205696	n/a	LTP367	ltpFR2	6	n/a	n/a	n/a	17	23	7	7	9
2543.87548828125	n/a	PROB	5209857	n/a	LTP367	ltpFR2	6	n/a	n/a	n/a	17	15	5	6	4
2545.45751953125	n/a	PROB	5213097	n/a	LTP367	ltpFR2	6	n/a	n/a	n/a	17	22	7	6	8
2548.04052734375	n/a	PROB	5218387	n/a	LTP367	ltpFR2	6	n/a	n/a	n/a	17	10	4	4	2
2552.30322265625	n/a	STOP	5227117	n/a	LTP367	ltpFR2	6	n/a	n/a	n/a	17	n/a	n/a	n/a	n/a
2555.236328125	n/a	REC_START	5233124	n/a	LTP367	ltpFR2	6	12	n/a	n/a	n/a	n/a	0	0	0
2556.15234375	n/a	REC_WORD	5235000	wordpools/wasnorm_wordpool_576.txt	LTP367	ltpFR2	6	12	MESSAGE	888	n/a	n/a	0	0	0
2557.572265625	n/a	REC_WORD	5237908	wordpools/wasnorm_wordpool_576.txt	LTP367	ltpFR2	6	12	CABBAGE	210	n/a	n/a	0	0	0
2559.09814453125	n/a	REC_WORD	5241033	wordpools/wasnorm_wordpool_576.txt	LTP367	ltpFR2	6	12	HERO	706	n/a	n/a	0	0	0
2561.333984375	n/a	REC_WORD	5245612	wordpools/wasnorm_wordpool_576.txt	LTP367	ltpFR2	6	12	PEANUT	1032	n/a	n/a	0	0	0
2563.63623046875	n/a	REC_WORD	5250327	wordpools/wasnorm_wordpool_576.txt	LTP367	ltpFR2	6	12	BURGLAR	200	n/a	n/a	0	0	0
2564.97802734375	n/a	REC_WORD	5253075	wordpools/wasnorm_wordpool_576.txt	LTP367	ltpFR2	6	12	PRIMATE	1123	n/a	n/a	0	0	0
2566.27490234375	n/a	REC_WORD	5255731	wordpools/wasnorm_wordpool_576.txt	LTP367	ltpFR2	6	12	CATTLE	261	n/a	n/a	0	0	0
2567.82470703125	n/a	REC_WORD	5258905	wordpools/wasnorm_wordpool_576.txt	LTP367	ltpFR2	6	12	BUTCHER	203	n/a	n/a	0	0	0
2569.48779296875	n/a	REC_WORD	5262311	wordpools/wasnorm_wordpool_576.txt	LTP367	ltpFR2	6	12	QUAIL	1147	n/a	n/a	0	0	0
2574.53369140625	n/a	REC_WORD	5272645	wordpools/wasnorm_wordpool_576.txt	LTP367	ltpFR2	6	12	FOREST	593	n/a	n/a	0	0	0
2576.3896484375	n/a	REC_WORD	5276446	wordpools/wasnorm_wordpool_576.txt	LTP367	ltpFR2	6	12	MASK	876	n/a	n/a	0	0	0
2580.78271484375	n/a	REC_WORD	5285443	wordpools/wasnorm_wordpool_576.txt	LTP367	ltpFR2	6	12	WIDOW	1608	n/a	n/a	0	0	0
2582.240234375	n/a	REC_WORD	5288428	wordpools/wasnorm_wordpool_576.txt	LTP367	ltpFR2	6	12	JUGGLER	763	n/a	n/a	0	0	0
2584.185546875	n/a	REC_WORD	5292412	wordpools/wasnorm_wordpool_576.txt	LTP367	ltpFR2	6	12	FILM	565	n/a	n/a	0	0	0
2585.4521484375	n/a	REC_WORD	5295006	wordpools/wasnorm_wordpool_576.txt	LTP367	ltpFR2	6	12	FLUTE	585	n/a	n/a	0	0	0
2589.68505859375	n/a	REC_WORD	5303675	wordpools/wasnorm_wordpool_576.txt	LTP367	ltpFR2	6	12	BANK	83	n/a	n/a	0	0	0
2591.279296875	n/a	REC_WORD	5306940	wordpools/wasnorm_wordpool_576.txt	LTP367	ltpFR2	6	12	CASHIER	254	n/a	n/a	0	0	0
2592.39599609375	n/a	REC_WORD	5309227	wordpools/wasnorm_wordpool_576.txt	LTP367	ltpFR2	6	12	STAMP	1370	n/a	n/a	0	0	0
2594.361328125	n/a	REC_WORD	5313252	wordpools/wasnorm_wordpool_576.txt	LTP367	ltpFR2	6	12	PACKAGE	997	n/a	n/a	0	0	0
2595.7958984375	n/a	REC_WORD	5316190	wordpools/wasnorm_wordpool_576.txt	LTP367	ltpFR2	6	12	ROD	1203	n/a	n/a	0	0	0
2601.0029296875	n/a	REC_WORD	5326854	wordpools/wasnorm_wordpool_576.txt	LTP367	ltpFR2	6	12	COSTUME	383	n/a	n/a	0	0	0
2606.2099609375	n/a	REC_WORD	5337518	wordpools/wasnorm_wordpool_576.txt	LTP367	ltpFR2	6	12	CAFE	216	n/a	n/a	0	0	0
2645.6767578125	n/a	WORD	5418346	wordpools/wasnorm_wordpool_576.txt	LTP367	ltpFR2	6	13	CYCLONE	431	n/a	n/a	0	0	0
2648.142578125	n/a	WORD	5423396	wordpools/wasnorm_wordpool_576.txt	LTP367	ltpFR2	6	13	FLEET	578	n/a	n/a	0	0	0
2650.87451171875	n/a	WORD	5428991	wordpools/wasnorm_wordpool_576.txt	LTP367	ltpFR2	6	13	BISON	131	n/a	n/a	0	0	0
2653.50634765625	n/a	WORD	5434381	wordpools/wasnorm_wordpool_576.txt	LTP367	ltpFR2	6	13	POLICE	1098	n/a	n/a	0	0	0
2656.0712890625	n/a	WORD	5439634	wordpools/wasnorm_wordpool_576.txt	LTP367	ltpFR2	6	13	SHERIFF	1284	n/a	n/a	0	0	0
2658.77001953125	n/a	WORD	5445161	wordpools/wasnorm_wordpool_576.txt	LTP367	ltpFR2	6	13	THRONE	1461	n/a	n/a	0	0	0
2661.2353515625	n/a	WORD	5450210	wordpools/wasnorm_wordpool_576.txt	LTP367	ltpFR2	6	13	STONE	1385	n/a	n/a	0	0	0
2663.85107421875	n/a	WORD	5455567	wordpools/wasnorm_wordpool_576.txt	LTP367	ltpFR2	6	13	GRAVEL	659	n/a	n/a	0	0	0
2666.3662109375	n/a	WORD	5460718	wordpools/wasnorm_wordpool_576.txt	LTP367	ltpFR2	6	13	NEUTRON	947	n/a	n/a	0	0	0
2668.94873046875	n/a	WORD	5466007	wordpools/wasnorm_wordpool_576.txt	LTP367	ltpFR2	6	13	COLONEL	348	n/a	n/a	0	0	0
2671.56396484375	n/a	WORD	5471363	wordpools/wasnorm_wordpool_576.txt	LTP367	ltpFR2	6	13	MUFFIN	929	n/a	n/a	0	0	0
2674.31201171875	n/a	WORD	5476991	wordpools/wasnorm_wordpool_576.txt	LTP367	ltpFR2	6	13	PERFUME	1049	n/a	n/a	0	0	0
2677.11181640625	n/a	WORD	5482725	wordpools/wasnorm_wordpool_576.txt	LTP367	ltpFR2	6	13	SUSPECT	1415	n/a	n/a	0	0	0
2679.86083984375	n/a	WORD	5488355	wordpools/wasnorm_wordpool_576.txt	LTP367	ltpFR2	6	13	VICTIM	1562	n/a	n/a	0	0	0
2682.65869140625	n/a	WORD	5494085	wordpools/wasnorm_wordpool_576.txt	LTP367	ltpFR2	6	13	PROTON	1132	n/a	n/a	0	0	0
2685.29052734375	n/a	WORD	5499475	wordpools/wasnorm_wordpool_576.txt	LTP367	ltpFR2	6	13	YARN	1631	n/a	n/a	0	0	0
2687.8232421875	n/a	WORD	5504662	wordpools/wasnorm_wordpool_576.txt	LTP367	ltpFR2	6	13	SKIRT	1319	n/a	n/a	0	0	0
2690.5712890625	n/a	WORD	5510290	wordpools/wasnorm_wordpool_576.txt	LTP367	ltpFR2	6	13	SHELTER	1282	n/a	n/a	0	0	0
2693.25341796875	n/a	WORD	5515783	wordpools/wasnorm_wordpool_576.txt	LTP367	ltpFR2	6	13	MAMMAL	861	n/a	n/a	0	0	0
2695.90234375	n/a	WORD	5521208	wordpools/wasnorm_wordpool_576.txt	LTP367	ltpFR2	6	13	CUPBOARD	425	n/a	n/a	0	0	0
2698.68408203125	n/a	WORD	5526905	wordpools/wasnorm_wordpool_576.txt	LTP367	ltpFR2	6	13	PISTON	1076	n/a	n/a	0	0	0
2701.2158203125	n/a	WORD	5532090	wordpools/wasnorm_wordpool_576.txt	LTP367	ltpFR2	6	13	CONVICT	371	n/a	n/a	0	0	0
2703.93212890625	n/a	WORD	5537653	wordpools/wasnorm_wordpool_576.txt	LTP367	ltpFR2	6	13	BODY	145	n/a	n/a	0	0	0
2706.39697265625	n/a	WORD	5542701	wordpools/wasnorm_wordpool_576.txt	LTP367	ltpFR2	6	13	FLOWER	584	n/a	n/a	0	0	0
2708.013671875	n/a	START	5546012	n/a	LTP367	ltpFR2	6	n/a	n/a	n/a	18	n/a	n/a	n/a	n/a
2708.958984375	n/a	DISTRACTOR	5547948	n/a	LTP367	ltpFR2	6	13	n/a	n/a	n/a	n/a	0	0	0
2708.962890625	n/a	PROB	5547956	n/a	LTP367	ltpFR2	6	n/a	n/a	n/a	18	21	4	8	9
2711.16162109375	n/a	PROB	5552459	n/a	LTP367	ltpFR2	6	n/a	n/a	n/a	18	15	5	3	7
2712.544921875	n/a	PROB	5555292	n/a	LTP367	ltpFR2	6	n/a	n/a	n/a	18	16	6	9	1
2714.1435546875	n/a	PROB	5558566	n/a	LTP367	ltpFR2	6	n/a	n/a	n/a	18	15	4	4	7
2716.0927734375	n/a	PROB	5562558	n/a	LTP367	ltpFR2	6	n/a	n/a	n/a	18	21	7	7	7
2717.67578125	n/a	PROB	5565800	n/a	LTP367	ltpFR2	6	n/a	n/a	n/a	18	15	5	7	3
2718.84130859375	n/a	PROB	5568187	n/a	LTP367	ltpFR2	6	n/a	n/a	n/a	18	20	3	8	9
2722.25537109375	n/a	PROB	5575179	n/a	LTP367	ltpFR2	6	n/a	n/a	n/a	18	16	6	5	5
2723.53955078125	n/a	PROB	5577809	n/a	LTP367	ltpFR2	6	n/a	n/a	n/a	18	18	8	9	1
2725.0712890625	n/a	PROB	5580946	n/a	LTP367	ltpFR2	6	n/a	n/a	n/a	18	19	4	7	8
2727.13720703125	n/a	PROB	5585177	n/a	LTP367	ltpFR2	6	n/a	n/a	n/a	18	21	9	3	9
2728.703125	n/a	PROB	5588384	n/a	LTP367	ltpFR2	6	n/a	n/a	n/a	18	20	8	7	5
2730.583984375	n/a	STOP	5592236	n/a	LTP367	ltpFR2	6	n/a	n/a	n/a	18	n/a	n/a	n/a	n/a
2733.9189453125	n/a	REC_START	5599066	n/a	LTP367	ltpFR2	6	13	n/a	n/a	n/a	n/a	0	0	0
2735.56103515625	n/a	REC_WORD	5602429	wordpools/wasnorm_wordpool_576.txt	LTP367	ltpFR2	6	13	CYCLONE	431	n/a	n/a	0	0	0
2736.7587890625	n/a	REC_WORD	5604882	wordpools/wasnorm_wordpool_576.txt	LTP367	ltpFR2	6	13	FLEET	578	n/a	n/a	0	0	0
2738.7939453125	n/a	REC_WORD	5609050	wordpools/wasnorm_wordpool_576.txt	LTP367	ltpFR2	6	13	BISON	131	n/a	n/a	0	0	0
2739.94775390625	n/a	REC_WORD	5611413	wordpools/wasnorm_wordpool_576.txt	LTP367	ltpFR2	6	13	POLICE	1098	n/a	n/a	0	0	0
2741.60888671875	n/a	REC_WORD	5614815	wordpools/wasnorm_wordpool_576.txt	LTP367	ltpFR2	6	13	SHERIFF	1284	n/a	n/a	0	0	0
2745.39697265625	n/a	REC_WORD	5622573	wordpools/wasnorm_wordpool_576.txt	LTP367	ltpFR2	6	13	THRONE	1461	n/a	n/a	0	0	0
2747.74267578125	n/a	REC_WORD	5627377	wordpools/wasnorm_wordpool_576.txt	LTP367	ltpFR2	6	13	STONE	1385	n/a	n/a	0	0	0
2748.66552734375	n/a	REC_WORD	5629267	wordpools/wasnorm_wordpool_576.txt	LTP367	ltpFR2	6	13	GRAVEL	659	n/a	n/a	0	0	0
2749.80078125	n/a	REC_WORD	5631592	wordpools/wasnorm_wordpool_576.txt	LTP367	ltpFR2	6	13	NEUTRON	947	n/a	n/a	0	0	0
2752.19580078125	n/a	REC_WORD	5636497	wordpools/wasnorm_wordpool_576.txt	LTP367	ltpFR2	6	13	COLONEL	348	n/a	n/a	0	0	0
2753.5537109375	n/a	REC_WORD	5639278	wordpools/wasnorm_wordpool_576.txt	LTP367	ltpFR2	6	13	MUFFIN	929	n/a	n/a	0	0	0
2756.15966796875	n/a	REC_WORD	5644615	wordpools/wasnorm_wordpool_576.txt	LTP367	ltpFR2	6	13	PROTON	1132	n/a	n/a	0	0	0
2759.46630859375	n/a	REC_WORD	5651387	wordpools/wasnorm_wordpool_576.txt	LTP367	ltpFR2	6	13	VICTIM	1562	n/a	n/a	0	0	0
2764.70703125	n/a	REC_WORD	5662120	wordpools/wasnorm_wordpool_576.txt	LTP367	ltpFR2	6	13	SHELTER	1282	n/a	n/a	0	0	0
2767.0400390625	n/a	REC_WORD	5666898	wordpools/wasnorm_wordpool_576.txt	LTP367	ltpFR2	6	13	MAMMAL	861	n/a	n/a	0	0	0
2768.19189453125	n/a	REC_WORD	5669257	wordpools/wasnorm_wordpool_576.txt	LTP367	ltpFR2	6	13	CUPBOARD	425	n/a	n/a	0	0	0
2769.39111328125	n/a	REC_WORD	5671713	wordpools/wasnorm_wordpool_576.txt	LTP367	ltpFR2	6	13	CONVICT	371	n/a	n/a	0	0	0
2771.22998046875	n/a	REC_WORD	5675479	wordpools/wasnorm_wordpool_576.txt	LTP367	ltpFR2	6	13	PISTON	1076	n/a	n/a	0	0	0
2772.26611328125	n/a	REC_WORD	5677601	wordpools/wasnorm_wordpool_576.txt	LTP367	ltpFR2	6	13	SKIRT	1319	n/a	n/a	0	0	0
2773.580078125	n/a	REC_WORD	5680292	wordpools/wasnorm_wordpool_576.txt	LTP367	ltpFR2	6	13	YARN	1631	n/a	n/a	0	0	0
2776.138671875	n/a	REC_WORD	5685532	wordpools/wasnorm_wordpool_576.txt	LTP367	ltpFR2	6	13	BODY	145	n/a	n/a	0	0	0
2776.9990234375	n/a	REC_WORD	5687294	wordpools/wasnorm_wordpool_576.txt	LTP367	ltpFR2	6	13	FLOWER	584	n/a	n/a	0	0	0
2792.13134765625	n/a	REC_WORD	5718285	wordpools/wasnorm_wordpool_576.txt	LTP367	ltpFR2	6	13	SUSPECT	1415	n/a	n/a	0	0	0
2824.3564453125	n/a	DISTRACTOR	5784282	n/a	LTP367	ltpFR2	6	14	n/a	n/a	n/a	n/a	0	0	0
2824.3564453125	n/a	START	5784282	n/a	LTP367	ltpFR2	6	n/a	n/a	n/a	19	n/a	n/a	n/a	n/a
2824.37353515625	n/a	PROB	5784317	n/a	LTP367	ltpFR2	6	n/a	n/a	n/a	19	13	2	9	2
2826.35546875	n/a	PROB	5788376	n/a	LTP367	ltpFR2	6	n/a	n/a	n/a	19	14	1	7	6
2827.85546875	n/a	PROB	5791448	n/a	LTP367	ltpFR2	6	n/a	n/a	n/a	19	20	3	8	9
2829.97119140625	n/a	PROB	5795781	n/a	LTP367	ltpFR2	6	n/a	n/a	n/a	19	13	5	7	1
2831.5205078125	n/a	PROB	5798954	n/a	LTP367	ltpFR2	6	n/a	n/a	n/a	19	22	9	7	6
2833.83642578125	n/a	PROB	5803697	n/a	LTP367	ltpFR2	6	n/a	n/a	n/a	19	8	1	3	4
2835.60205078125	n/a	PROB	5807313	n/a	LTP367	ltpFR2	6	n/a	n/a	n/a	19	19	5	6	8
2837.43408203125	n/a	PROB	5811065	n/a	LTP367	ltpFR2	6	n/a	n/a	n/a	19	18	9	5	4
2839.76708984375	n/a	PROB	5815843	n/a	LTP367	ltpFR2	6	n/a	n/a	n/a	19	14	6	6	2
2841.798828125	n/a	PROB	5820004	n/a	LTP367	ltpFR2	6	n/a	n/a	n/a	19	11	1	6	4
2843.09912109375	n/a	PROB	5822667	n/a	LTP367	ltpFR2	6	n/a	n/a	n/a	19	15	7	4	4
2844.44677734375	n/a	PROB	5825427	n/a	LTP367	ltpFR2	6	n/a	n/a	n/a	19	19	2	9	8
2848.35595703125	n/a	STOP	5833433	n/a	LTP367	ltpFR2	6	n/a	n/a	n/a	19	n/a	n/a	n/a	n/a
2849.24462890625	n/a	WORD	5835253	wordpools/wasnorm_wordpool_576.txt	LTP367	ltpFR2	6	14	SCARF	1246	n/a	n/a	0	0	0
2851.927734375	n/a	WORD	5840748	wordpools/wasnorm_wordpool_576.txt	LTP367	ltpFR2	6	14	CASHEW	253	n/a	n/a	0	0	0
2854.5927734375	n/a	WORD	5846206	wordpools/wasnorm_wordpool_576.txt	LTP367	ltpFR2	6	14	FARMER	553	n/a	n/a	0	0	0
2857.37353515625	n/a	WORD	5851901	wordpools/wasnorm_wordpool_576.txt	LTP367	ltpFR2	6	14	ATLAS	53	n/a	n/a	0	0	0
2860.0576171875	n/a	WORD	5857398	wordpools/wasnorm_wordpool_576.txt	LTP367	ltpFR2	6	14	FOREHEAD	592	n/a	n/a	0	0	0
2862.60546875	n/a	WORD	5862616	wordpools/wasnorm_wordpool_576.txt	LTP367	ltpFR2	6	14	SLOPE	1328	n/a	n/a	0	0	0
2865.2373046875	n/a	WORD	5868006	wordpools/wasnorm_wordpool_576.txt	LTP367	ltpFR2	6	14	GLOBE	641	n/a	n/a	0	0	0
2867.92041015625	n/a	WORD	5873501	wordpools/wasnorm_wordpool_576.txt	LTP367	ltpFR2	6	14	TWEEZERS	1526	n/a	n/a	0	0	0
2870.451171875	n/a	WORD	5878684	wordpools/wasnorm_wordpool_576.txt	LTP367	ltpFR2	6	14	FIREMAN	569	n/a	n/a	0	0	0
2872.951171875	n/a	WORD	5883804	wordpools/wasnorm_wordpool_576.txt	LTP367	ltpFR2	6	14	DRILL	497	n/a	n/a	0	0	0
2875.43212890625	n/a	WORD	5888885	wordpools/wasnorm_wordpool_576.txt	LTP367	ltpFR2	6	14	PERCH	1048	n/a	n/a	0	0	0
2877.998046875	n/a	WORD	5894140	wordpools/wasnorm_wordpool_576.txt	LTP367	ltpFR2	6	14	SHELF	1280	n/a	n/a	0	0	0
2880.6640625	n/a	WORD	5899600	wordpools/wasnorm_wordpool_576.txt	LTP367	ltpFR2	6	14	BINDER	127	n/a	n/a	0	0	0
2883.39501953125	n/a	WORD	5905193	wordpools/wasnorm_wordpool_576.txt	LTP367	ltpFR2	6	14	CHAPEL	280	n/a	n/a	0	0	0
2885.91162109375	n/a	WORD	5910347	wordpools/wasnorm_wordpool_576.txt	LTP367	ltpFR2	6	14	SPOON	1357	n/a	n/a	0	0	0
2888.65966796875	n/a	WORD	5915975	wordpools/wasnorm_wordpool_576.txt	LTP367	ltpFR2	6	14	MILK	895	n/a	n/a	0	0	0
2891.0927734375	n/a	WORD	5920958	wordpools/wasnorm_wordpool_576.txt	LTP367	ltpFR2	6	14	WORLD	1622	n/a	n/a	0	0	0
2893.54052734375	n/a	WORD	5925971	wordpools/wasnorm_wordpool_576.txt	LTP367	ltpFR2	6	14	CREVICE	405	n/a	n/a	0	0	0
2896.1396484375	n/a	WORD	5931294	wordpools/wasnorm_wordpool_576.txt	LTP367	ltpFR2	6	14	CATCHER	258	n/a	n/a	0	0	0
2898.67138671875	n/a	WORD	5936479	wordpools/wasnorm_wordpool_576.txt	LTP367	ltpFR2	6	14	VALLEY	1545	n/a	n/a	0	0	0
2901.369140625	n/a	WORD	5942004	wordpools/wasnorm_wordpool_576.txt	LTP367	ltpFR2	6	14	HOUND	724	n/a	n/a	0	0	0
2903.869140625	n/a	WORD	5947124	wordpools/wasnorm_wordpool_576.txt	LTP367	ltpFR2	6	14	VIKING	1565	n/a	n/a	0	0	0
2906.568359375	n/a	WORD	5952652	wordpools/wasnorm_wordpool_576.txt	LTP367	ltpFR2	6	14	DIVER	476	n/a	n/a	0	0	0
2909.14990234375	n/a	WORD	5957939	wordpools/wasnorm_wordpool_576.txt	LTP367	ltpFR2	6	14	VALVE	1546	n/a	n/a	0	0	0
2910.76611328125	n/a	START	5961249	n/a	LTP367	ltpFR2	6	n/a	n/a	n/a	20	n/a	n/a	n/a	n/a
2911.65478515625	n/a	DISTRACTOR	5963069	n/a	LTP367	ltpFR2	6	14	n/a	n/a	n/a	n/a	0	0	0
2911.666015625	n/a	PROB	5963092	n/a	LTP367	ltpFR2	6	n/a	n/a	n/a	20	11	4	6	1
2913.0478515625	n/a	PROB	5965922	n/a	LTP367	ltpFR2	6	n/a	n/a	n/a	20	22	8	7	7
2916.796875	n/a	PROB	5973600	n/a	LTP367	ltpFR2	6	n/a	n/a	n/a	20	10	3	4	4
2918.64599609375	n/a	PROB	5977387	n/a	LTP367	ltpFR2	6	n/a	n/a	n/a	20	21	6	8	7
2921.32666015625	n/a	PROB	5982877	n/a	LTP367	ltpFR2	6	n/a	n/a	n/a	20	18	6	8	4
2923.0595703125	n/a	PROB	5986426	n/a	LTP367	ltpFR2	6	n/a	n/a	n/a	20	12	5	5	2
2924.29150390625	n/a	PROB	5988949	n/a	LTP367	ltpFR2	6	n/a	n/a	n/a	20	10	2	3	5
2925.57568359375	n/a	PROB	5991579	n/a	LTP367	ltpFR2	6	n/a	n/a	n/a	20	16	4	7	5
2927.0087890625	n/a	PROB	5994514	n/a	LTP367	ltpFR2	6	n/a	n/a	n/a	20	19	4	9	6
2928.5244140625	n/a	PROB	5997618	n/a	LTP367	ltpFR2	6	n/a	n/a	n/a	20	13	2	5	6
2930.689453125	n/a	PROB	6002052	n/a	LTP367	ltpFR2	6	n/a	n/a	n/a	20	19	8	7	4
2933.1552734375	n/a	PROB	6007102	n/a	LTP367	ltpFR2	6	n/a	n/a	n/a	20	10	5	1	4
2934.521484375	n/a	STOP	6009900	n/a	LTP367	ltpFR2	6	n/a	n/a	n/a	20	n/a	n/a	n/a	n/a
2936.6044921875	n/a	REC_START	6014166	n/a	LTP367	ltpFR2	6	14	n/a	n/a	n/a	n/a	0	0	0
2937.89111328125	n/a	REC_WORD	6016801	wordpools/wasnorm_wordpool_576.txt	LTP367	ltpFR2	6	14	SCARF	1246	n/a	n/a	0	0	0
2939.0	n/a	REC_WORD	6019072	wordpools/wasnorm_wordpool_576.txt	LTP367	ltpFR2	6	14	FARMER	553	n/a	n/a	0	0	0
2940.02294921875	n/a	REC_WORD	6021167	wordpools/wasnorm_wordpool_576.txt	LTP367	ltpFR2	6	14	CASHEW	253	n/a	n/a	0	0	0
2942.22119140625	n/a	REC_WORD	6025669	wordpools/wasnorm_wordpool_576.txt	LTP367	ltpFR2	6	14	ATLAS	53	n/a	n/a	0	0	0
2943.21728515625	n/a	REC_WORD	6027709	wordpools/wasnorm_wordpool_576.txt	LTP367	ltpFR2	6	14	SLOPE	1328	n/a	n/a	0	0	0
2944.255859375	n/a	REC_WORD	6029836	wordpools/wasnorm_wordpool_576.txt	LTP367	ltpFR2	6	14	FOREHEAD	592	n/a	n/a	0	0	0
2945.62109375	n/a	REC_WORD	6032632	wordpools/wasnorm_wordpool_576.txt	LTP367	ltpFR2	6	14	GLOBE	641	n/a	n/a	0	0	0
2946.60986328125	n/a	REC_WORD	6034657	wordpools/wasnorm_wordpool_576.txt	LTP367	ltpFR2	6	14	TWEEZERS	1526	n/a	n/a	0	0	0
2953.29296875	n/a	REC_WORD	6048344	wordpools/wasnorm_wordpool_576.txt	LTP367	ltpFR2	6	14	FIREMAN	569	n/a	n/a	0	0	0
2954.78662109375	n/a	REC_WORD	6051403	wordpools/wasnorm_wordpool_576.txt	LTP367	ltpFR2	6	14	DRILL	497	n/a	n/a	0	0	0
2956.00390625	n/a	REC_WORD	6053896	wordpools/wasnorm_wordpool_576.txt	LTP367	ltpFR2	6	14	PERCH	1048	n/a	n/a	0	0	0
2958.6015625	n/a	REC_WORD	6059216	wordpools/wasnorm_wordpool_576.txt	LTP367	ltpFR2	6	14	CUP	424	n/a	n/a	0	0	0
2959.1337890625	n/a	REC_WORD	6060306	wordpools/wasnorm_wordpool_576.txt	LTP367	ltpFR2	6	14	SHELF	1280	n/a	n/a	0	0	0
2959.79052734375	n/a	REC_WORD	6061651	wordpools/wasnorm_wordpool_576.txt	LTP367	ltpFR2	6	14	CUPBOARD	425	n/a	n/a	0	0	0
2961.1337890625	n/a	REC_WORD_VV	6064402	wordpools/wasnorm_wordpool_576.txt	LTP367	ltpFR2	6	14	<>	-1	n/a	n/a	0	0	0
2964.4326171875	n/a	REC_WORD	6071158	wordpools/wasnorm_wordpool_576.txt	LTP367	ltpFR2	6	14	CHAPEL	280	n/a	n/a	0	0	0
2967.4853515625	n/a	REC_WORD	6077410	wordpools/wasnorm_wordpool_576.txt	LTP367	ltpFR2	6	14	SPOON	1357	n/a	n/a	0	0	0
2968.9931640625	n/a	REC_WORD	6080498	wordpools/wasnorm_wordpool_576.txt	LTP367	ltpFR2	6	14	MILK	895	n/a	n/a	0	0	0
2970.2373046875	n/a	REC_WORD	6083046	wordpools/wasnorm_wordpool_576.txt	LTP367	ltpFR2	6	14	WORLD	1622	n/a	n/a	0	0	0
2973.17529296875	n/a	REC_WORD	6089063	wordpools/wasnorm_wordpool_576.txt	LTP367	ltpFR2	6	14	CATCHER	258	n/a	n/a	0	0	0
2975.54638671875	n/a	REC_WORD	6093919	wordpools/wasnorm_wordpool_576.txt	LTP367	ltpFR2	6	14	VIKING	1565	n/a	n/a	0	0	0
2978.35986328125	n/a	REC_WORD	6099681	wordpools/wasnorm_wordpool_576.txt	LTP367	ltpFR2	6	14	DIVER	476	n/a	n/a	0	0	0
2989.74658203125	n/a	REC_WORD	6123001	wordpools/wasnorm_wordpool_576.txt	LTP367	ltpFR2	6	14	VALLEY	1545	n/a	n/a	0	0	0
3003.0712890625	n/a	REC_WORD	6150290	wordpools/wasnorm_wordpool_576.txt	LTP367	ltpFR2	6	14	BINDER	127	n/a	n/a	0	0	0
3004.154296875	n/a	REC_WORD	6152508	wordpools/wasnorm_wordpool_576.txt	LTP367	ltpFR2	6	14	CREVICE	405	n/a	n/a	0	0	0
3011.16796875	n/a	REC_WORD_VV	6166872	wordpools/wasnorm_wordpool_576.txt	LTP367	ltpFR2	6	14	<>	-1	n/a	n/a	0	0	0
3027.04345703125	n/a	DISTRACTOR	6199385	n/a	LTP367	ltpFR2	6	15	n/a	n/a	n/a	n/a	0	0	0
3027.04345703125	n/a	START	6199385	n/a	LTP367	ltpFR2	6	n/a	n/a	n/a	21	n/a	n/a	n/a	n/a
3027.0595703125	n/a	PROB	6199418	n/a	LTP367	ltpFR2	6	n/a	n/a	n/a	21	14	6	3	5
3030.62548828125	n/a	PROB	6206721	n/a	LTP367	ltpFR2	6	n/a	n/a	n/a	21	6	1	1	4
3032.54052734375	n/a	PROB	6210643	n/a	LTP367	ltpFR2	6	n/a	n/a	n/a	21	16	7	3	6
3033.8564453125	n/a	PROB	6213338	n/a	LTP367	ltpFR2	6	n/a	n/a	n/a	21	20	7	8	5
3037.22119140625	n/a	PROB	6220229	n/a	LTP367	ltpFR2	6	n/a	n/a	n/a	21	16	8	2	6
3038.70458984375	n/a	PROB	6223267	n/a	LTP367	ltpFR2	6	n/a	n/a	n/a	21	20	2	9	9
3040.0205078125	n/a	PROB	6225962	n/a	LTP367	ltpFR2	6	n/a	n/a	n/a	21	21	8	5	8
