onset	duration	trial_type	sample	stim_file	subject	experiment	session	trial	task	item_name	item_num	recog_conf	resp	color_b	color_g	color_r	case	font
246.19	n/a	SESS_START	123095	n/a	LTP066	ltpFR	6	n/a	n/a	n/a	n/a	3	n/a	n/a	n/a	n/a	n/a	n/a
333.854	n/a	WORD	166927	wordpools/wasnorm_wordpool.txt	LTP066	ltpFR	6	1	1	CREAM	402	n/a	0	1	0.412841796875	0.57763671875	upper	../fonts/amplitud.ttf
337.782	n/a	WORD	168891	wordpools/wasnorm_wordpool.txt	LTP066	ltpFR	6	1	1	SPACE	1345	n/a	0	1	0.412841796875	0.57763671875	upper	../fonts/amplitud.ttf
341.712	n/a	WORD	170856	wordpools/wasnorm_wordpool.txt	LTP066	ltpFR	6	1	1	LEADER	807	n/a	1	1	0.412841796875	0.57763671875	upper	../fonts/amplitud.ttf
345.874	n/a	WORD	172937	wordpools/wasnorm_wordpool.txt	LTP066	ltpFR	6	1	1	COLESLAW	344	n/a	0	1	0.412841796875	0.57763671875	upper	../fonts/amplitud.ttf
349.844	n/a	WORD	174922	wordpools/wasnorm_wordpool.txt	LTP066	ltpFR	6	1	1	STOMACH	1384	n/a	0	1	0.412841796875	0.57763671875	upper	../fonts/amplitud.ttf
353.814	n/a	WORD	176907	wordpools/wasnorm_wordpool.txt	LTP066	ltpFR	6	1	0	GOLD	647	n/a	1	0	0.5869140625	0.422607421875	lower	../fonts/zerothre.ttf
358.0	n/a	WORD	179000	wordpools/wasnorm_wordpool.txt	LTP066	ltpFR	6	1	0	MEDAL	885	n/a	0	0	0.5869140625	0.422607421875	lower	../fonts/zerothre.ttf
361.83	n/a	WORD	180915	wordpools/wasnorm_wordpool.txt	LTP066	ltpFR	6	1	0	CHIMPANZEE	302	n/a	1	0	0.5869140625	0.422607421875	lower	../fonts/zerothre.ttf
365.742	n/a	WORD	182871	wordpools/wasnorm_wordpool.txt	LTP066	ltpFR	6	1	0	RELISH	1183	n/a	0	0	0.5869140625	0.422607421875	lower	../fonts/zerothre.ttf
369.938	n/a	WORD	184969	wordpools/wasnorm_wordpool.txt	LTP066	ltpFR	6	1	0	BANQUET	86	n/a	1	0	0.5869140625	0.422607421875	lower	../fonts/zerothre.ttf
374.056	n/a	WORD	187028	wordpools/wasnorm_wordpool.txt	LTP066	ltpFR	6	1	0	GROCERY	664	n/a	1	0	0.5869140625	0.422607421875	lower	../fonts/zerothre.ttf
378.186	n/a	WORD	189093	wordpools/wasnorm_wordpool.txt	LTP066	ltpFR	6	1	1	CHILD	299	n/a	1	1	0.412841796875	0.57763671875	upper	../fonts/amplitud.ttf
382.04	n/a	WORD	191020	wordpools/wasnorm_wordpool.txt	LTP066	ltpFR	6	1	1	MONKEY	911	n/a	1	1	0.412841796875	0.57763671875	upper	../fonts/amplitud.ttf
386.142	n/a	WORD	193071	wordpools/wasnorm_wordpool.txt	LTP066	ltpFR	6	1	1	BEVERAGE	123	n/a	0	1	0.412841796875	0.57763671875	upper	../fonts/amplitud.ttf
390.172	n/a	WORD	195086	wordpools/wasnorm_wordpool.txt	LTP066	ltpFR	6	1	0	WHALE	1601	n/a	1	0	0.5869140625	0.422607421875	lower	../fonts/zerothre.ttf
394.35	n/a	WORD	197175	wordpools/wasnorm_wordpool.txt	LTP066	ltpFR	6	1	0	DILL	465	n/a	0	0	0.5869140625	0.422607421875	lower	../fonts/zerothre.ttf
400.302	n/a	REC_START	200151	n/a	LTP066	ltpFR	6	1	n/a	n/a	n/a	n/a	n/a	n/a	n/a	n/a	n/a	n/a
403.952	n/a	REC_WORD	201976	wordpools/wasnorm_wordpool.txt	LTP066	ltpFR	6	1	1	SPACE	1345	n/a	0	n/a	n/a	n/a	n/a	n/a
406.542	n/a	REC_WORD	203271	wordpools/wasnorm_wordpool.txt	LTP066	ltpFR	6	1	0	CHIMPANZEE	302	n/a	1	n/a	n/a	n/a	n/a	n/a
407.42	n/a	REC_WORD	203710	wordpools/wasnorm_wordpool.txt	LTP066	ltpFR	6	1	1	MONKEY	911	n/a	1	n/a	n/a	n/a	n/a	n/a
409.036	n/a	REC_WORD	204518	wordpools/wasnorm_wordpool.txt	LTP066	ltpFR	6	1	1	CHILD	299	n/a	1	n/a	n/a	n/a	n/a	n/a
409.874	n/a	REC_WORD	204937	wordpools/wasnorm_wordpool.txt	LTP066	ltpFR	6	1	1	COLESLAW	344	n/a	0	n/a	n/a	n/a	n/a	n/a
410.78	n/a	REC_WORD	205390	wordpools/wasnorm_wordpool.txt	LTP066	ltpFR	6	1	1	CREAM	402	n/a	0	n/a	n/a	n/a	n/a	n/a
413.626	n/a	REC_WORD	206813	wordpools/wasnorm_wordpool.txt	LTP066	ltpFR	6	1	1	LEADER	807	n/a	1	n/a	n/a	n/a	n/a	n/a
417.158	n/a	REC_WORD	208579	wordpools/wasnorm_wordpool.txt	LTP066	ltpFR	6	1	0	DILL	465	n/a	0	n/a	n/a	n/a	n/a	n/a
420.222	n/a	REC_WORD	210111	wordpools/wasnorm_wordpool.txt	LTP066	ltpFR	6	1	0	MEDAL	885	n/a	0	n/a	n/a	n/a	n/a	n/a
421.508	n/a	REC_WORD	210754	wordpools/wasnorm_wordpool.txt	LTP066	ltpFR	6	1	0	GOLD	647	n/a	1	n/a	n/a	n/a	n/a	n/a
423.694	n/a	REC_WORD	211847	wordpools/wasnorm_wordpool.txt	LTP066	ltpFR	6	1	0	GROCERY	664	n/a	1	n/a	n/a	n/a	n/a	n/a
438.97	n/a	REC_WORD	219485	wordpools/wasnorm_wordpool.txt	LTP066	ltpFR	6	1	0	WHALE	1601	n/a	1	n/a	n/a	n/a	n/a	n/a
453.326	n/a	REC_WORD	226663	wordpools/wasnorm_wordpool.txt	LTP066	ltpFR	6	1	1	STOMACH	1384	n/a	0	n/a	n/a	n/a	n/a	n/a
478.936	n/a	WORD	239468	wordpools/wasnorm_wordpool.txt	LTP066	ltpFR	6	2	0	MISTER	901	n/a	1	0	0.5869140625	0.422607421875	lower	../fonts/zerothre.ttf
482.774	n/a	WORD	241387	wordpools/wasnorm_wordpool.txt	LTP066	ltpFR	6	2	0	BANK	83	n/a	1	0	0.5869140625	0.422607421875	lower	../fonts/zerothre.ttf
486.718	n/a	WORD	243359	wordpools/wasnorm_wordpool.txt	LTP066	ltpFR	6	2	1	SAW	1239	n/a	0	1	0.412841796875	0.57763671875	upper	../fonts/amplitud.ttf
490.69	n/a	WORD	245345	wordpools/wasnorm_wordpool.txt	LTP066	ltpFR	6	2	1	VEIN	1554	n/a	0	1	0.412841796875	0.57763671875	upper	../fonts/amplitud.ttf
494.802	n/a	WORD	247401	wordpools/wasnorm_wordpool.txt	LTP066	ltpFR	6	2	1	BUTTON	207	n/a	0	1	0.412841796875	0.57763671875	upper	../fonts/amplitud.ttf
498.772	n/a	WORD	249386	wordpools/wasnorm_wordpool.txt	LTP066	ltpFR	6	2	1	BROCCOLI	176	n/a	1	1	0.412841796875	0.57763671875	upper	../fonts/amplitud.ttf
502.658	n/a	WORD	251329	wordpools/wasnorm_wordpool.txt	LTP066	ltpFR	6	2	0	SCOUT	1252	n/a	1	0	0.5869140625	0.422607421875	lower	../fonts/zerothre.ttf
506.67	n/a	WORD	253335	wordpools/wasnorm_wordpool.txt	LTP066	ltpFR	6	2	0	LAPEL	800	n/a	0	0	0.5869140625	0.422607421875	lower	../fonts/zerothre.ttf
510.5	n/a	WORD	255250	wordpools/wasnorm_wordpool.txt	LTP066	ltpFR	6	2	0	DRAWING	494	n/a	1	0	0.5869140625	0.422607421875	lower	../fonts/zerothre.ttf
514.438	n/a	WORD	257219	wordpools/wasnorm_wordpool.txt	LTP066	ltpFR	6	2	0	RADISH	1158	n/a	0	0	0.5869140625	0.422607421875	lower	../fonts/zerothre.ttf
518.49	n/a	WORD	259245	wordpools/wasnorm_wordpool.txt	LTP066	ltpFR	6	2	0	GRASS	655	n/a	1	0	0.5869140625	0.422607421875	lower	../fonts/zerothre.ttf
522.52	n/a	WORD	261260	wordpools/wasnorm_wordpool.txt	LTP066	ltpFR	6	2	0	FIELD	562	n/a	1	0	0.5869140625	0.422607421875	lower	../fonts/zerothre.ttf
526.364	n/a	WORD	263182	wordpools/wasnorm_wordpool.txt	LTP066	ltpFR	6	2	1	BALL	73	n/a	0	1	0.412841796875	0.57763671875	upper	../fonts/amplitud.ttf
530.392	n/a	WORD	265196	wordpools/wasnorm_wordpool.txt	LTP066	ltpFR	6	2	1	CHECKERS	285	n/a	0	1	0.412841796875	0.57763671875	upper	../fonts/amplitud.ttf
534.322	n/a	WORD	267161	wordpools/wasnorm_wordpool.txt	LTP066	ltpFR	6	2	1	PARROT	1015	n/a	1	1	0.412841796875	0.57763671875	upper	../fonts/amplitud.ttf
538.51	n/a	WORD	269255	wordpools/wasnorm_wordpool.txt	LTP066	ltpFR	6	2	1	CARDINAL	244	n/a	1	1	0.412841796875	0.57763671875	upper	../fonts/amplitud.ttf
544.278	n/a	REC_START	272139	n/a	LTP066	ltpFR	6	2	n/a	n/a	n/a	n/a	n/a	n/a	n/a	n/a	n/a	n/a
547.644	n/a	REC_WORD	273822	wordpools/wasnorm_wordpool.txt	LTP066	ltpFR	6	2	0	LAPEL	800	n/a	0	n/a	n/a	n/a	n/a	n/a
549.61	n/a	REC_WORD	274805	wordpools/wasnorm_wordpool.txt	LTP066	ltpFR	6	2	1	SAW	1239	n/a	0	n/a	n/a	n/a	n/a	n/a
558.64	n/a	REC_WORD	279320	wordpools/wasnorm_wordpool.txt	LTP066	ltpFR	6	2	0	BANK	83	n/a	1	n/a	n/a	n/a	n/a	n/a
562.382	n/a	REC_WORD	281191	wordpools/wasnorm_wordpool.txt	LTP066	ltpFR	6	2	1	CHECKERS	285	n/a	0	n/a	n/a	n/a	n/a	n/a
580.864	n/a	REC_WORD	290432	wordpools/wasnorm_wordpool.txt	LTP066	ltpFR	6	2	0	FIELD	562	n/a	1	n/a	n/a	n/a	n/a	n/a
583.274	n/a	REC_WORD	291637	wordpools/wasnorm_wordpool.txt	LTP066	ltpFR	6	2	0	GRASS	655	n/a	1	n/a	n/a	n/a	n/a	n/a
586.278	n/a	REC_WORD	293139	wordpools/wasnorm_wordpool.txt	LTP066	ltpFR	6	2	0	DRAWING	494	n/a	1	n/a	n/a	n/a	n/a	n/a
622.836	n/a	WORD	311418	wordpools/wasnorm_wordpool.txt	LTP066	ltpFR	6	3	-1	EAR	513	n/a	-1	1	1.0	1.0	upper	../fonts/Verdana.ttf
626.89	n/a	WORD	313445	wordpools/wasnorm_wordpool.txt	LTP066	ltpFR	6	3	-1	SNACK	1331	n/a	-1	1	1.0	1.0	upper	../fonts/Verdana.ttf
631.084	n/a	WORD	315542	wordpools/wasnorm_wordpool.txt	LTP066	ltpFR	6	3	-1	GLOVE	642	n/a	-1	1	1.0	1.0	upper	../fonts/Verdana.ttf
634.99	n/a	WORD	317495	wordpools/wasnorm_wordpool.txt	LTP066	ltpFR	6	3	-1	THUMB	1462	n/a	-1	1	1.0	1.0	upper	../fonts/Verdana.ttf
638.96	n/a	WORD	319480	wordpools/wasnorm_wordpool.txt	LTP066	ltpFR	6	3	-1	ANTLER	29	n/a	-1	1	1.0	1.0	upper	../fonts/Verdana.ttf
642.83	n/a	WORD	321415	wordpools/wasnorm_wordpool.txt	LTP066	ltpFR	6	3	-1	CABIN	211	n/a	-1	1	1.0	1.0	upper	../fonts/Verdana.ttf
646.842	n/a	WORD	323421	wordpools/wasnorm_wordpool.txt	LTP066	ltpFR	6	3	-1	GAZELLE	628	n/a	-1	1	1.0	1.0	upper	../fonts/Verdana.ttf
650.804	n/a	WORD	325402	wordpools/wasnorm_wordpool.txt	LTP066	ltpFR	6	3	-1	CANDY	230	n/a	-1	1	1.0	1.0	upper	../fonts/Verdana.ttf
654.642	n/a	WORD	327321	wordpools/wasnorm_wordpool.txt	LTP066	ltpFR	6	3	-1	SKI	1316	n/a	-1	1	1.0	1.0	upper	../fonts/Verdana.ttf
658.77	n/a	WORD	329385	wordpools/wasnorm_wordpool.txt	LTP066	ltpFR	6	3	-1	MAMMAL	861	n/a	-1	1	1.0	1.0	upper	../fonts/Verdana.ttf
662.94	n/a	WORD	331470	wordpools/wasnorm_wordpool.txt	LTP066	ltpFR	6	3	-1	PUDDLE	1140	n/a	-1	1	1.0	1.0	upper	../fonts/Verdana.ttf
666.886	n/a	WORD	333443	wordpools/wasnorm_wordpool.txt	LTP066	ltpFR	6	3	-1	ISLAND	745	n/a	-1	1	1.0	1.0	upper	../fonts/Verdana.ttf
670.732	n/a	WORD	335366	wordpools/wasnorm_wordpool.txt	LTP066	ltpFR	6	3	-1	DEER	444	n/a	-1	1	1.0	1.0	upper	../fonts/Verdana.ttf
674.802	n/a	WORD	337401	wordpools/wasnorm_wordpool.txt	LTP066	ltpFR	6	3	-1	RIB	1188	n/a	-1	1	1.0	1.0	upper	../fonts/Verdana.ttf
678.798	n/a	WORD	339399	wordpools/wasnorm_wordpool.txt	LTP066	ltpFR	6	3	-1	VITAMIN	1574	n/a	-1	1	1.0	1.0	upper	../fonts/Verdana.ttf
682.892	n/a	WORD	341446	wordpools/wasnorm_wordpool.txt	LTP066	ltpFR	6	3	-1	LUMBER	848	n/a	-1	1	1.0	1.0	upper	../fonts/Verdana.ttf
688.604	n/a	REC_START	344302	n/a	LTP066	ltpFR	6	3	n/a	n/a	n/a	n/a	n/a	n/a	n/a	n/a	n/a	n/a
690.554	n/a	REC_WORD	345277	wordpools/wasnorm_wordpool.txt	LTP066	ltpFR	6	3	-1	EAR	513	n/a	-1	n/a	n/a	n/a	n/a	n/a
691.746	n/a	REC_WORD	345873	wordpools/wasnorm_wordpool.txt	LTP066	ltpFR	6	3	-1	SNACK	1331	n/a	-1	n/a	n/a	n/a	n/a	n/a
693.028	n/a	REC_WORD	346514	wordpools/wasnorm_wordpool.txt	LTP066	ltpFR	6	3	-1	GLOVE	642	n/a	-1	n/a	n/a	n/a	n/a	n/a
695.472	n/a	REC_WORD	347736	wordpools/wasnorm_wordpool.txt	LTP066	ltpFR	6	3	-1	ANTLER	29	n/a	-1	n/a	n/a	n/a	n/a	n/a
696.61	n/a	REC_WORD	348305	wordpools/wasnorm_wordpool.txt	LTP066	ltpFR	6	3	-1	CABIN	211	n/a	-1	n/a	n/a	n/a	n/a	n/a
706.084	n/a	REC_WORD	353042	wordpools/wasnorm_wordpool.txt	LTP066	ltpFR	6	3	-1	SKI	1316	n/a	-1	n/a	n/a	n/a	n/a	n/a
712.094	n/a	REC_WORD	356047	wordpools/wasnorm_wordpool.txt	LTP066	ltpFR	6	3	-1	GAZELLE	628	n/a	-1	n/a	n/a	n/a	n/a	n/a
713.88	n/a	REC_WORD	356940	wordpools/wasnorm_wordpool.txt	LTP066	ltpFR	6	3	-1	MAMMAL	861	n/a	-1	n/a	n/a	n/a	n/a	n/a
717.362	n/a	REC_WORD	358681	wordpools/wasnorm_wordpool.txt	LTP066	ltpFR	6	3	-1	PUDDLE	1140	n/a	-1	n/a	n/a	n/a	n/a	n/a
722.212	n/a	REC_WORD	361106	wordpools/wasnorm_wordpool.txt	LTP066	ltpFR	6	3	-1	ISLAND	745	n/a	-1	n/a	n/a	n/a	n/a	n/a
731.9	n/a	REC_WORD	365950	wordpools/wasnorm_wordpool.txt	LTP066	ltpFR	6	3	-1	DEER	444	n/a	-1	n/a	n/a	n/a	n/a	n/a
735.542	n/a	REC_WORD	367771	wordpools/wasnorm_wordpool.txt	LTP066	ltpFR	6	3	-1	RIB	1188	n/a	-1	n/a	n/a	n/a	n/a	n/a
746.198	n/a	REC_WORD	373099	wordpools/wasnorm_wordpool.txt	LTP066	ltpFR	6	3	-1	LUMBER	848	n/a	-1	n/a	n/a	n/a	n/a	n/a
767.036	n/a	WORD	383518	wordpools/wasnorm_wordpool.txt	LTP066	ltpFR	6	4	-1	DAM	436	n/a	-1	1	1.0	1.0	upper	../fonts/Verdana.ttf
771.106	n/a	WORD	385553	wordpools/wasnorm_wordpool.txt	LTP066	ltpFR	6	4	-1	NURSERY	964	n/a	-1	1	1.0	1.0	upper	../fonts/Verdana.ttf
774.91	n/a	WORD	387455	wordpools/wasnorm_wordpool.txt	LTP066	ltpFR	6	4	-1	DART	440	n/a	-1	1	1.0	1.0	upper	../fonts/Verdana.ttf
778.922	n/a	WORD	389461	wordpools/wasnorm_wordpool.txt	LTP066	ltpFR	6	4	-1	COMMANDER	354	n/a	-1	1	1.0	1.0	upper	../fonts/Verdana.ttf
782.976	n/a	WORD	391488	wordpools/wasnorm_wordpool.txt	LTP066	ltpFR	6	4	-1	VEHICLE	1553	n/a	-1	1	1.0	1.0	upper	../fonts/Verdana.ttf
786.972	n/a	WORD	393486	wordpools/wasnorm_wordpool.txt	LTP066	ltpFR	6	4	-1	CARD	243	n/a	-1	1	1.0	1.0	upper	../fonts/Verdana.ttf
790.976	n/a	WORD	395488	wordpools/wasnorm_wordpool.txt	LTP066	ltpFR	6	4	-1	FENCE	560	n/a	-1	1	1.0	1.0	upper	../fonts/Verdana.ttf
794.796	n/a	WORD	397398	wordpools/wasnorm_wordpool.txt	LTP066	ltpFR	6	4	-1	SKIN	1318	n/a	-1	1	1.0	1.0	upper	../fonts/Verdana.ttf
798.8	n/a	WORD	399400	wordpools/wasnorm_wordpool.txt	LTP066	ltpFR	6	4	-1	CRAYON	401	n/a	-1	1	1.0	1.0	upper	../fonts/Verdana.ttf
802.794	n/a	WORD	401397	wordpools/wasnorm_wordpool.txt	LTP066	ltpFR	6	4	-1	TAXI	1438	n/a	-1	1	1.0	1.0	upper	../fonts/Verdana.ttf
806.608	n/a	WORD	403304	wordpools/wasnorm_wordpool.txt	LTP066	ltpFR	6	4	-1	WALL	1582	n/a	-1	1	1.0	1.0	upper	../fonts/Verdana.ttf
810.52	n/a	WORD	405260	wordpools/wasnorm_wordpool.txt	LTP066	ltpFR	6	4	-1	CASH	252	n/a	-1	1	1.0	1.0	upper	../fonts/Verdana.ttf
814.482	n/a	WORD	407241	wordpools/wasnorm_wordpool.txt	LTP066	ltpFR	6	4	-1	QUARTER	1148	n/a	-1	1	1.0	1.0	upper	../fonts/Verdana.ttf
818.61	n/a	WORD	409305	wordpools/wasnorm_wordpool.txt	LTP066	ltpFR	6	4	-1	CARPET	247	n/a	-1	1	1.0	1.0	upper	../fonts/Verdana.ttf
822.514	n/a	WORD	411257	wordpools/wasnorm_wordpool.txt	LTP066	ltpFR	6	4	-1	TAPIOCA	1434	n/a	-1	1	1.0	1.0	upper	../fonts/Verdana.ttf
826.334	n/a	WORD	413167	wordpools/wasnorm_wordpool.txt	LTP066	ltpFR	6	4	-1	FUDGE	611	n/a	-1	1	1.0	1.0	upper	../fonts/Verdana.ttf
832.152	n/a	REC_START	416076	n/a	LTP066	ltpFR	6	4	n/a	n/a	n/a	n/a	n/a	n/a	n/a	n/a	n/a	n/a
838.618	n/a	REC_WORD	419309	wordpools/wasnorm_wordpool.txt	LTP066	ltpFR	6	4	-1	NURSERY	964	n/a	-1	n/a	n/a	n/a	n/a	n/a
845.596	n/a	REC_WORD	422798	wordpools/wasnorm_wordpool.txt	LTP066	ltpFR	6	4	-1	DART	440	n/a	-1	n/a	n/a	n/a	n/a	n/a
846.704	n/a	REC_WORD	423352	wordpools/wasnorm_wordpool.txt	LTP066	ltpFR	6	4	-1	COMMANDER	354	n/a	-1	n/a	n/a	n/a	n/a	n/a
848.754	n/a	REC_WORD	424377	wordpools/wasnorm_wordpool.txt	LTP066	ltpFR	6	4	-1	VEHICLE	1553	n/a	-1	n/a	n/a	n/a	n/a	n/a
851.044	n/a	REC_WORD	425522	wordpools/wasnorm_wordpool.txt	LTP066	ltpFR	6	4	-1	CARD	243	n/a	-1	n/a	n/a	n/a	n/a	n/a
856.336	n/a	REC_WORD	428168	wordpools/wasnorm_wordpool.txt	LTP066	ltpFR	6	4	-1	FENCE	560	n/a	-1	n/a	n/a	n/a	n/a	n/a
857.336	n/a	REC_WORD_VV	428668	wordpools/wasnorm_wordpool.txt	LTP066	ltpFR	6	4	n/a	<>	-1	n/a	n/a	n/a	n/a	n/a	n/a	n/a
858.712	n/a	REC_WORD	429356	wordpools/wasnorm_wordpool.txt	LTP066	ltpFR	6	4	-1	SKIN	1318	n/a	-1	n/a	n/a	n/a	n/a	n/a
862.968	n/a	REC_WORD	431484	wordpools/wasnorm_wordpool.txt	LTP066	ltpFR	6	4	-1	WALL	1582	n/a	-1	n/a	n/a	n/a	n/a	n/a
864.548	n/a	REC_WORD	432274	wordpools/wasnorm_wordpool.txt	LTP066	ltpFR	6	4	-1	CRAYON	401	n/a	-1	n/a	n/a	n/a	n/a	n/a
865.88	n/a	REC_WORD	432940	wordpools/wasnorm_wordpool.txt	LTP066	ltpFR	6	4	-1	TAXI	1438	n/a	-1	n/a	n/a	n/a	n/a	n/a
889.188	n/a	REC_WORD	444594	wordpools/wasnorm_wordpool.txt	LTP066	ltpFR	6	4	-1	FUDGE	611	n/a	-1	n/a	n/a	n/a	n/a	n/a
889.94	n/a	REC_WORD	444970	wordpools/wasnorm_wordpool.txt	LTP066	ltpFR	6	4	-1	TAPIOCA	1434	n/a	-1	n/a	n/a	n/a	n/a	n/a
892.66	n/a	REC_WORD	446330	wordpools/wasnorm_wordpool.txt	LTP066	ltpFR	6	4	-1	QUARTER	1148	n/a	-1	n/a	n/a	n/a	n/a	n/a
897.81	n/a	REC_WORD	448905	wordpools/wasnorm_wordpool.txt	LTP066	ltpFR	6	4	-1	CARPET	247	n/a	-1	n/a	n/a	n/a	n/a	n/a
901.262	n/a	REC_WORD	450631	wordpools/wasnorm_wordpool.txt	LTP066	ltpFR	6	4	-1	CASH	252	n/a	-1	n/a	n/a	n/a	n/a	n/a
910.962	n/a	WORD	455481	wordpools/wasnorm_wordpool.txt	LTP066	ltpFR	6	5	1	PAIL	1002	n/a	0	1	0.412841796875	0.57763671875	upper	../fonts/amplitud.ttf
914.824	n/a	WORD	457412	wordpools/wasnorm_wordpool.txt	LTP066	ltpFR	6	5	1	BROOK	177	n/a	0	1	0.412841796875	0.57763671875	upper	../fonts/amplitud.ttf
918.978	n/a	WORD	459489	wordpools/wasnorm_wordpool.txt	LTP066	ltpFR	6	5	0	HAMPER	682	n/a	1	0	0.5869140625	0.422607421875	lower	../fonts/zerothre.ttf
922.948	n/a	WORD	461474	wordpools/wasnorm_wordpool.txt	LTP066	ltpFR	6	5	0	SUSPECT	1415	n/a	0	0	0.5869140625	0.422607421875	lower	../fonts/zerothre.ttf
926.91	n/a	WORD	463455	wordpools/wasnorm_wordpool.txt	LTP066	ltpFR	6	5	0	COLONEL	348	n/a	1	0	0.5869140625	0.422607421875	lower	../fonts/zerothre.ttf
930.822	n/a	WORD	465411	wordpools/wasnorm_wordpool.txt	LTP066	ltpFR	6	5	0	COSTUME	383	n/a	1	0	0.5869140625	0.422607421875	lower	../fonts/zerothre.ttf
934.992	n/a	WORD	467496	wordpools/wasnorm_wordpool.txt	LTP066	ltpFR	6	5	0	MONK	910	n/a	1	0	0.5869140625	0.422607421875	lower	../fonts/zerothre.ttf
938.946	n/a	WORD	469473	wordpools/wasnorm_wordpool.txt	LTP066	ltpFR	6	5	1	SAGE	1222	n/a	0	1	0.412841796875	0.57763671875	upper	../fonts/amplitud.ttf
942.874	n/a	WORD	471437	wordpools/wasnorm_wordpool.txt	LTP066	ltpFR	6	5	1	ONION	977	n/a	0	1	0.412841796875	0.57763671875	upper	../fonts/amplitud.ttf
946.986	n/a	WORD	473493	wordpools/wasnorm_wordpool.txt	LTP066	ltpFR	6	5	0	JUDGE	761	n/a	1	0	0.5869140625	0.422607421875	lower	../fonts/zerothre.ttf
950.998	n/a	WORD	475499	wordpools/wasnorm_wordpool.txt	LTP066	ltpFR	6	5	0	PIN	1072	n/a	0	0	0.5869140625	0.422607421875	lower	../fonts/zerothre.ttf
955.134	n/a	WORD	477567	wordpools/wasnorm_wordpool.txt	LTP066	ltpFR	6	5	0	CARRIAGE	248	n/a	1	0	0.5869140625	0.422607421875	lower	../fonts/zerothre.ttf
959.064	n/a	WORD	479532	wordpools/wasnorm_wordpool.txt	LTP066	ltpFR	6	5	1	BASSINET	97	n/a	0	1	0.412841796875	0.57763671875	upper	../fonts/amplitud.ttf
962.994	n/a	WORD	481497	wordpools/wasnorm_wordpool.txt	LTP066	ltpFR	6	5	1	PAW	1029	n/a	0	1	0.412841796875	0.57763671875	upper	../fonts/amplitud.ttf
967.172	n/a	WORD	483586	wordpools/wasnorm_wordpool.txt	LTP066	ltpFR	6	5	1	GRATE	657	n/a	0	1	0.412841796875	0.57763671875	upper	../fonts/amplitud.ttf
971.176	n/a	WORD	485588	wordpools/wasnorm_wordpool.txt	LTP066	ltpFR	6	5	1	LIEUTENANT	818	n/a	1	1	0.412841796875	0.57763671875	upper	../fonts/amplitud.ttf
977.16	n/a	REC_START	488580	n/a	LTP066	ltpFR	6	5	n/a	n/a	n/a	n/a	n/a	n/a	n/a	n/a	n/a	n/a
980.368	n/a	REC_WORD	490184	wordpools/wasnorm_wordpool.txt	LTP066	ltpFR	6	5	0	COLONEL	348	n/a	1	n/a	n/a	n/a	n/a	n/a
983.336	n/a	REC_WORD	491668	wordpools/wasnorm_wordpool.txt	LTP066	ltpFR	6	5	0	HAMPER	682	n/a	1	n/a	n/a	n/a	n/a	n/a
985.118	n/a	REC_WORD	492559	wordpools/wasnorm_wordpool.txt	LTP066	ltpFR	6	5	1	PAIL	1002	n/a	0	n/a	n/a	n/a	n/a	n/a
986.634	n/a	REC_WORD	493317	wordpools/wasnorm_wordpool.txt	LTP066	ltpFR	6	5	1	BROOK	177	n/a	0	n/a	n/a	n/a	n/a	n/a
991.318	n/a	REC_WORD	495659	wordpools/wasnorm_wordpool.txt	LTP066	ltpFR	6	5	0	SUSPECT	1415	n/a	0	n/a	n/a	n/a	n/a	n/a
992.318	n/a	REC_WORD_VV	496159	wordpools/wasnorm_wordpool.txt	LTP066	ltpFR	6	5	n/a	<>	-1	n/a	n/a	n/a	n/a	n/a	n/a	n/a
998.806	n/a	REC_WORD	499403	wordpools/wasnorm_wordpool.txt	LTP066	ltpFR	6	5	1	LIEUTENANT	818	n/a	1	n/a	n/a	n/a	n/a	n/a
1001.22	n/a	REC_WORD	500610	wordpools/wasnorm_wordpool.txt	LTP066	ltpFR	6	5	0	MONK	910	n/a	1	n/a	n/a	n/a	n/a	n/a
1007.806	n/a	REC_WORD	503903	wordpools/wasnorm_wordpool.txt	LTP066	ltpFR	6	5	1	SAGE	1222	n/a	0	n/a	n/a	n/a	n/a	n/a
1010.31	n/a	REC_WORD	505155	wordpools/wasnorm_wordpool.txt	LTP066	ltpFR	6	5	1	ONION	977	n/a	0	n/a	n/a	n/a	n/a	n/a
1055.546	n/a	WORD	527773	wordpools/wasnorm_wordpool.txt	LTP066	ltpFR	6	6	1	SEASHORE	1263	n/a	0	1	0.412841796875	0.57763671875	upper	../fonts/amplitud.ttf
1059.598	n/a	WORD	529799	wordpools/wasnorm_wordpool.txt	LTP066	ltpFR	6	6	1	CLAM	315	n/a	1	1	0.412841796875	0.57763671875	upper	../fonts/amplitud.ttf
1063.586	n/a	WORD	531793	wordpools/wasnorm_wordpool.txt	LTP066	ltpFR	6	6	1	PRIEST	1122	n/a	1	1	0.412841796875	0.57763671875	upper	../fonts/amplitud.ttf
1067.598	n/a	WORD	533799	wordpools/wasnorm_wordpool.txt	LTP066	ltpFR	6	6	1	FRECKLE	602	n/a	0	1	0.412841796875	0.57763671875	upper	../fonts/amplitud.ttf
1071.61	n/a	WORD	535805	wordpools/wasnorm_wordpool.txt	LTP066	ltpFR	6	6	1	ROACH	1195	n/a	1	1	0.412841796875	0.57763671875	upper	../fonts/amplitud.ttf
1075.596	n/a	WORD	537798	wordpools/wasnorm_wordpool.txt	LTP066	ltpFR	6	6	1	MALL	860	n/a	0	1	0.412841796875	0.57763671875	upper	../fonts/amplitud.ttf
1079.716	n/a	WORD	539858	wordpools/wasnorm_wordpool.txt	LTP066	ltpFR	6	6	1	STORE	1387	n/a	0	1	0.412841796875	0.57763671875	upper	../fonts/amplitud.ttf
1083.696	n/a	WORD	541848	wordpools/wasnorm_wordpool.txt	LTP066	ltpFR	6	6	1	BARN	89	n/a	0	1	0.412841796875	0.57763671875	upper	../fonts/amplitud.ttf
1087.85	n/a	WORD	543925	wordpools/wasnorm_wordpool.txt	LTP066	ltpFR	6	6	1	ATTIC	56	n/a	0	1	0.412841796875	0.57763671875	upper	../fonts/amplitud.ttf
1091.694	n/a	WORD	545847	wordpools/wasnorm_wordpool.txt	LTP066	ltpFR	6	6	1	SCIENTIST	1249	n/a	1	1	0.412841796875	0.57763671875	upper	../fonts/amplitud.ttf
1095.674	n/a	WORD	547837	wordpools/wasnorm_wordpool.txt	LTP066	ltpFR	6	6	1	TECHNICIAN	1443	n/a	1	1	0.412841796875	0.57763671875	upper	../fonts/amplitud.ttf
1099.744	n/a	WORD	549872	wordpools/wasnorm_wordpool.txt	LTP066	ltpFR	6	6	1	MULE	931	n/a	0	1	0.412841796875	0.57763671875	upper	../fonts/amplitud.ttf
1103.946	n/a	WORD	551973	wordpools/wasnorm_wordpool.txt	LTP066	ltpFR	6	6	1	GATE	625	n/a	0	1	0.412841796875	0.57763671875	upper	../fonts/amplitud.ttf
1107.976	n/a	WORD	553988	wordpools/wasnorm_wordpool.txt	LTP066	ltpFR	6	6	1	MOTH	920	n/a	1	1	0.412841796875	0.57763671875	upper	../fonts/amplitud.ttf
1112.12	n/a	WORD	556060	wordpools/wasnorm_wordpool.txt	LTP066	ltpFR	6	6	1	GUEST	669	n/a	1	1	0.412841796875	0.57763671875	upper	../fonts/amplitud.ttf
1116.008	n/a	WORD	558004	wordpools/wasnorm_wordpool.txt	LTP066	ltpFR	6	6	1	COAL	332	n/a	0	1	0.412841796875	0.57763671875	upper	../fonts/amplitud.ttf
1121.628	n/a	REC_START	560814	n/a	LTP066	ltpFR	6	6	n/a	n/a	n/a	n/a	n/a	n/a	n/a	n/a	n/a	n/a
1128.496	n/a	REC_WORD	564248	wordpools/wasnorm_wordpool.txt	LTP066	ltpFR	6	6	1	MULE	931	n/a	0	n/a	n/a	n/a	n/a	n/a
1129.834	n/a	REC_WORD	564917	wordpools/wasnorm_wordpool.txt	LTP066	ltpFR	6	6	1	GATE	625	n/a	0	n/a	n/a	n/a	n/a	n/a
1130.962	n/a	REC_WORD	565481	wordpools/wasnorm_wordpool.txt	LTP066	ltpFR	6	6	1	MOTH	920	n/a	1	n/a	n/a	n/a	n/a	n/a
1138.628	n/a	REC_WORD	569314	wordpools/wasnorm_wordpool.txt	LTP066	ltpFR	6	6	1	SEASHORE	1263	n/a	0	n/a	n/a	n/a	n/a	n/a
1139.98	n/a	REC_WORD	569990	wordpools/wasnorm_wordpool.txt	LTP066	ltpFR	6	6	1	CLAM	315	n/a	1	n/a	n/a	n/a	n/a	n/a
1142.984	n/a	REC_WORD	571492	wordpools/wasnorm_wordpool.txt	LTP066	ltpFR	6	6	1	PRIEST	1122	n/a	1	n/a	n/a	n/a	n/a	n/a
1147.694	n/a	REC_WORD	573847	wordpools/wasnorm_wordpool.txt	LTP066	ltpFR	6	6	1	ROACH	1195	n/a	1	n/a	n/a	n/a	n/a	n/a
1149.01	n/a	REC_WORD	574505	wordpools/wasnorm_wordpool.txt	LTP066	ltpFR	6	6	1	MALL	860	n/a	0	n/a	n/a	n/a	n/a	n/a
1150.082	n/a	REC_WORD	575041	wordpools/wasnorm_wordpool.txt	LTP066	ltpFR	6	6	1	STORE	1387	n/a	0	n/a	n/a	n/a	n/a	n/a
1151.724	n/a	REC_WORD	575862	wordpools/wasnorm_wordpool.txt	LTP066	ltpFR	6	6	1	BARN	89	n/a	0	n/a	n/a	n/a	n/a	n/a
1153.04	n/a	REC_WORD	576520	wordpools/wasnorm_wordpool.txt	LTP066	ltpFR	6	6	1	ATTIC	56	n/a	0	n/a	n/a	n/a	n/a	n/a
1200.218	n/a	WORD	600109	wordpools/wasnorm_wordpool.txt	LTP066	ltpFR	6	7	0	GALAXY	617	n/a	1	0	0.5869140625	0.422607421875	lower	../fonts/zerothre.ttf
1204.406	n/a	WORD	602203	wordpools/wasnorm_wordpool.txt	LTP066	ltpFR	6	7	0	ARMY	39	n/a	1	0	0.5869140625	0.422607421875	lower	../fonts/zerothre.ttf
1208.226	n/a	WORD	604113	wordpools/wasnorm_wordpool.txt	LTP066	ltpFR	6	7	0	VETERAN	1561	n/a	1	0	0.5869140625	0.422607421875	lower	../fonts/zerothre.ttf
1212.414	n/a	WORD	606207	wordpools/wasnorm_wordpool.txt	LTP066	ltpFR	6	7	0	LEVER	815	n/a	0	0	0.5869140625	0.422607421875	lower	../fonts/zerothre.ttf
1216.418	n/a	WORD	608209	wordpools/wasnorm_wordpool.txt	LTP066	ltpFR	6	7	0	ICING	732	n/a	0	0	0.5869140625	0.422607421875	lower	../fonts/zerothre.ttf
1220.454	n/a	WORD	610227	wordpools/wasnorm_wordpool.txt	LTP066	ltpFR	6	7	0	ZUCCHINI	1638	n/a	0	0	0.5869140625	0.422607421875	lower	../fonts/zerothre.ttf
1224.516	n/a	WORD	612258	wordpools/wasnorm_wordpool.txt	LTP066	ltpFR	6	7	0	COOK	372	n/a	1	0	0.5869140625	0.422607421875	lower	../fonts/zerothre.ttf
1228.386	n/a	WORD	614193	wordpools/wasnorm_wordpool.txt	LTP066	ltpFR	6	7	0	UNIVERSE	1540	n/a	1	0	0.5869140625	0.422607421875	lower	../fonts/zerothre.ttf
1232.566	n/a	WORD	616283	wordpools/wasnorm_wordpool.txt	LTP066	ltpFR	6	7	0	CASHEW	253	n/a	0	0	0.5869140625	0.422607421875	lower	../fonts/zerothre.ttf
1236.702	n/a	WORD	618351	wordpools/wasnorm_wordpool.txt	LTP066	ltpFR	6	7	0	PUMPKIN	1142	n/a	1	0	0.5869140625	0.422607421875	lower	../fonts/zerothre.ttf
1240.714	n/a	WORD	620357	wordpools/wasnorm_wordpool.txt	LTP066	ltpFR	6	7	0	TWEEZERS	1526	n/a	0	0	0.5869140625	0.422607421875	lower	../fonts/zerothre.ttf
1244.81	n/a	WORD	622405	wordpools/wasnorm_wordpool.txt	LTP066	ltpFR	6	7	0	CEMETERY	269	n/a	1	0	0.5869140625	0.422607421875	lower	../fonts/zerothre.ttf
1248.804	n/a	WORD	624402	wordpools/wasnorm_wordpool.txt	LTP066	ltpFR	6	7	0	LEOPARD	812	n/a	1	0	0.5869140625	0.422607421875	lower	../fonts/zerothre.ttf
1252.634	n/a	WORD	626317	wordpools/wasnorm_wordpool.txt	LTP066	ltpFR	6	7	0	PANTHER	1009	n/a	1	0	0.5869140625	0.422607421875	lower	../fonts/zerothre.ttf
1256.538	n/a	WORD	628269	wordpools/wasnorm_wordpool.txt	LTP066	ltpFR	6	7	0	ACORN	3	n/a	0	0	0.5869140625	0.422607421875	lower	../fonts/zerothre.ttf
1260.356	n/a	WORD	630178	wordpools/wasnorm_wordpool.txt	LTP066	ltpFR	6	7	0	FIN	566	n/a	1	0	0.5869140625	0.422607421875	lower	../fonts/zerothre.ttf
1266.152	n/a	REC_START	633076	n/a	LTP066	ltpFR	6	7	n/a	n/a	n/a	n/a	n/a	n/a	n/a	n/a	n/a	n/a
1268.322	n/a	REC_WORD	634161	wordpools/wasnorm_wordpool.txt	LTP066	ltpFR	6	7	0	GALAXY	617	n/a	1	n/a	n/a	n/a	n/a	n/a
1270.088	n/a	REC_WORD	635044	wordpools/wasnorm_wordpool.txt	LTP066	ltpFR	6	7	0	ARMY	39	n/a	1	n/a	n/a	n/a	n/a	n/a
1271.134	n/a	REC_WORD	635567	wordpools/wasnorm_wordpool.txt	LTP066	ltpFR	6	7	0	VETERAN	1561	n/a	1	n/a	n/a	n/a	n/a	n/a
1274.138	n/a	REC_WORD	637069	wordpools/wasnorm_wordpool.txt	LTP066	ltpFR	6	7	0	LEOPARD	812	n/a	1	n/a	n/a	n/a	n/a	n/a
1276.024	n/a	REC_WORD	638012	wordpools/wasnorm_wordpool.txt	LTP066	ltpFR	6	7	0	PANTHER	1009	n/a	1	n/a	n/a	n/a	n/a	n/a
1279.056	n/a	REC_WORD	639528	wordpools/wasnorm_wordpool.txt	LTP066	ltpFR	6	7	0	PUMPKIN	1142	n/a	1	n/a	n/a	n/a	n/a	n/a
1279.916	n/a	REC_WORD	639958	wordpools/wasnorm_wordpool.txt	LTP066	ltpFR	6	7	0	CASHEW	253	n/a	0	n/a	n/a	n/a	n/a	n/a
1280.832	n/a	REC_WORD	640416	wordpools/wasnorm_wordpool.txt	LTP066	ltpFR	6	7	0	ICING	732	n/a	0	n/a	n/a	n/a	n/a	n/a
1281.596	n/a	REC_WORD	640798	wordpools/wasnorm_wordpool.txt	LTP066	ltpFR	6	7	0	ZUCCHINI	1638	n/a	0	n/a	n/a	n/a	n/a	n/a
1285.622	n/a	REC_WORD	642811	wordpools/wasnorm_wordpool.txt	LTP066	ltpFR	6	7	0	COOK	372	n/a	1	n/a	n/a	n/a	n/a	n/a
1299.172	n/a	REC_WORD	649586	wordpools/wasnorm_wordpool.txt	LTP066	ltpFR	6	7	0	TWEEZERS	1526	n/a	0	n/a	n/a	n/a	n/a	n/a
1300.172	n/a	REC_WORD_VV	650086	wordpools/wasnorm_wordpool.txt	LTP066	ltpFR	6	7	n/a	<>	-1	n/a	n/a	n/a	n/a	n/a	n/a	n/a
1313.23	n/a	REC_WORD	656615	wordpools/wasnorm_wordpool.txt	LTP066	ltpFR	6	7	0	CEMETERY	269	n/a	1	n/a	n/a	n/a	n/a	n/a
1344.978	n/a	WORD	672489	wordpools/wasnorm_wordpool.txt	LTP066	ltpFR	6	8	0	OWL	992	n/a	1	0	0.5869140625	0.422607421875	lower	../fonts/zerothre.ttf
1348.906	n/a	WORD	674453	wordpools/wasnorm_wordpool.txt	LTP066	ltpFR	6	8	0	CORPORATION	382	n/a	1	0	0.5869140625	0.422607421875	lower	../fonts/zerothre.ttf
1352.894	n/a	WORD	676447	wordpools/wasnorm_wordpool.txt	LTP066	ltpFR	6	8	0	VEST	1559	n/a	1	0	0.5869140625	0.422607421875	lower	../fonts/zerothre.ttf
1356.788	n/a	WORD	678394	wordpools/wasnorm_wordpool.txt	LTP066	ltpFR	6	8	0	CUFF	423	n/a	0	0	0.5869140625	0.422607421875	lower	../fonts/zerothre.ttf
1360.668	n/a	WORD	680334	wordpools/wasnorm_wordpool.txt	LTP066	ltpFR	6	8	0	GUM	672	n/a	0	0	0.5869140625	0.422607421875	lower	../fonts/zerothre.ttf
1364.772	n/a	WORD	682386	wordpools/wasnorm_wordpool.txt	LTP066	ltpFR	6	8	0	TROUSERS	1510	n/a	1	0	0.5869140625	0.422607421875	lower	../fonts/zerothre.ttf
1368.658	n/a	WORD	684329	wordpools/wasnorm_wordpool.txt	LTP066	ltpFR	6	8	0	DRAWER	493	n/a	1	0	0.5869140625	0.422607421875	lower	../fonts/zerothre.ttf
1372.812	n/a	WORD	686406	wordpools/wasnorm_wordpool.txt	LTP066	ltpFR	6	8	0	TOOTH	1481	n/a	0	0	0.5869140625	0.422607421875	lower	../fonts/zerothre.ttf
1376.898	n/a	WORD	688449	wordpools/wasnorm_wordpool.txt	LTP066	ltpFR	6	8	0	PASSENGER	1020	n/a	1	0	0.5869140625	0.422607421875	lower	../fonts/zerothre.ttf
1381.084	n/a	WORD	690542	wordpools/wasnorm_wordpool.txt	LTP066	ltpFR	6	8	0	PANTS	1010	n/a	1	0	0.5869140625	0.422607421875	lower	../fonts/zerothre.ttf
1385.246	n/a	WORD	692623	wordpools/wasnorm_wordpool.txt	LTP066	ltpFR	6	8	0	RECEIPT	1173	n/a	0	0	0.5869140625	0.422607421875	lower	../fonts/zerothre.ttf
1389.142	n/a	WORD	694571	wordpools/wasnorm_wordpool.txt	LTP066	ltpFR	6	8	0	VEAL	1551	n/a	1	0	0.5869140625	0.422607421875	lower	../fonts/zerothre.ttf
1393.236	n/a	WORD	696618	wordpools/wasnorm_wordpool.txt	LTP066	ltpFR	6	8	0	LIVER	833	n/a	0	0	0.5869140625	0.422607421875	lower	../fonts/zerothre.ttf
1397.182	n/a	WORD	698591	wordpools/wasnorm_wordpool.txt	LTP066	ltpFR	6	8	0	CUPBOARD	425	n/a	1	0	0.5869140625	0.422607421875	lower	../fonts/zerothre.ttf
1401.004	n/a	WORD	700502	wordpools/wasnorm_wordpool.txt	LTP066	ltpFR	6	8	0	CONSUMER	365	n/a	1	0	0.5869140625	0.422607421875	lower	../fonts/zerothre.ttf
1405.072	n/a	WORD	702536	wordpools/wasnorm_wordpool.txt	LTP066	ltpFR	6	8	0	MARKET	871	n/a	1	0	0.5869140625	0.422607421875	lower	../fonts/zerothre.ttf
1411.05	n/a	REC_START	705525	n/a	LTP066	ltpFR	6	8	n/a	n/a	n/a	n/a	n/a	n/a	n/a	n/a	n/a	n/a
1414.856	n/a	REC_WORD	707428	wordpools/wasnorm_wordpool.txt	LTP066	ltpFR	6	8	0	TROUSERS	1510	n/a	1	n/a	n/a	n/a	n/a	n/a
1415.79	n/a	REC_WORD	707895	wordpools/wasnorm_wordpool.txt	LTP066	ltpFR	6	8	0	PANTS	1010	n/a	1	n/a	n/a	n/a	n/a	n/a
1417.052	n/a	REC_WORD	708526	wordpools/wasnorm_wordpool.txt	LTP066	ltpFR	6	8	0	VEAL	1551	n/a	1	n/a	n/a	n/a	n/a	n/a
1419.018	n/a	REC_WORD	709509	wordpools/wasnorm_wordpool.txt	LTP066	ltpFR	6	8	0	CUPBOARD	425	n/a	1	n/a	n/a	n/a	n/a	n/a
1420.434	n/a	REC_WORD	710217	wordpools/wasnorm_wordpool.txt	LTP066	ltpFR	6	8	0	MARKET	871	n/a	1	n/a	n/a	n/a	n/a	n/a
1443.332	n/a	REC_WORD	721666	wordpools/wasnorm_wordpool.txt	LTP066	ltpFR	6	8	0	TOOTH	1481	n/a	0	n/a	n/a	n/a	n/a	n/a
1445.208	n/a	REC_WORD	722604	wordpools/wasnorm_wordpool.txt	LTP066	ltpFR	6	8	0	PASSENGER	1020	n/a	1	n/a	n/a	n/a	n/a	n/a
1446.594	n/a	REC_WORD	723297	wordpools/wasnorm_wordpool.txt	LTP066	ltpFR	6	8	0	OWL	992	n/a	1	n/a	n/a	n/a	n/a	n/a
1448.026	n/a	REC_WORD	724013	wordpools/wasnorm_wordpool.txt	LTP066	ltpFR	6	8	0	VEST	1559	n/a	1	n/a	n/a	n/a	n/a	n/a
1449.128	n/a	REC_WORD	724564	wordpools/wasnorm_wordpool.txt	LTP066	ltpFR	6	8	0	CORPORATION	382	n/a	1	n/a	n/a	n/a	n/a	n/a
1452.92	n/a	REC_WORD	726460	wordpools/wasnorm_wordpool.txt	LTP066	ltpFR	6	8	0	GUM	672	n/a	0	n/a	n/a	n/a	n/a	n/a
1466.49	n/a	REC_WORD	733245	wordpools/wasnorm_wordpool.txt	LTP066	ltpFR	6	8	0	LIVER	833	n/a	0	n/a	n/a	n/a	n/a	n/a
1489.95	n/a	WORD	744975	wordpools/wasnorm_wordpool.txt	LTP066	ltpFR	6	9	1	HEATER	698	n/a	0	1	0.412841796875	0.57763671875	upper	../fonts/amplitud.ttf
1493.788	n/a	WORD	746894	wordpools/wasnorm_wordpool.txt	LTP066	ltpFR	6	9	1	DINER	467	n/a	0	1	0.412841796875	0.57763671875	upper	../fonts/amplitud.ttf
1497.61	n/a	WORD	748805	wordpools/wasnorm_wordpool.txt	LTP066	ltpFR	6	9	1	COMMUNITY	356	n/a	0	1	0.412841796875	0.57763671875	upper	../fonts/amplitud.ttf
1501.772	n/a	WORD	750886	wordpools/wasnorm_wordpool.txt	LTP066	ltpFR	6	9	1	CAMEL	223	n/a	1	1	0.412841796875	0.57763671875	upper	../fonts/amplitud.ttf
1505.584	n/a	WORD	752792	wordpools/wasnorm_wordpool.txt	LTP066	ltpFR	6	9	1	REFRIGERATOR	1179	n/a	0	1	0.412841796875	0.57763671875	upper	../fonts/amplitud.ttf
1509.47	n/a	WORD	754735	wordpools/wasnorm_wordpool.txt	LTP066	ltpFR	6	9	1	TOWN	1491	n/a	0	1	0.412841796875	0.57763671875	upper	../fonts/amplitud.ttf
1513.45	n/a	WORD	756725	wordpools/wasnorm_wordpool.txt	LTP066	ltpFR	6	9	1	COMMITTEE	355	n/a	1	1	0.412841796875	0.57763671875	upper	../fonts/amplitud.ttf
1517.652	n/a	WORD	758826	wordpools/wasnorm_wordpool.txt	LTP066	ltpFR	6	9	1	AUDIENCE	59	n/a	1	1	0.412841796875	0.57763671875	upper	../fonts/amplitud.ttf
1521.798	n/a	WORD	760899	wordpools/wasnorm_wordpool.txt	LTP066	ltpFR	6	9	1	WHEAT	1602	n/a	0	1	0.412841796875	0.57763671875	upper	../fonts/amplitud.ttf
1525.644	n/a	WORD	762822	wordpools/wasnorm_wordpool.txt	LTP066	ltpFR	6	9	1	CONTAINER	366	n/a	0	1	0.412841796875	0.57763671875	upper	../fonts/amplitud.ttf
1529.638	n/a	WORD	764819	wordpools/wasnorm_wordpool.txt	LTP066	ltpFR	6	9	1	INDIAN	736	n/a	1	1	0.412841796875	0.57763671875	upper	../fonts/amplitud.ttf
1533.476	n/a	WORD	766738	wordpools/wasnorm_wordpool.txt	LTP066	ltpFR	6	9	1	ALLIGATOR	16	n/a	1	1	0.412841796875	0.57763671875	upper	../fonts/amplitud.ttf
1537.412	n/a	WORD	768706	wordpools/wasnorm_wordpool.txt	LTP066	ltpFR	6	9	1	TAVERN	1437	n/a	0	1	0.412841796875	0.57763671875	upper	../fonts/amplitud.ttf
1541.308	n/a	WORD	770654	wordpools/wasnorm_wordpool.txt	LTP066	ltpFR	6	9	1	BOTTLE	153	n/a	0	1	0.412841796875	0.57763671875	upper	../fonts/amplitud.ttf
1545.454	n/a	WORD	772727	wordpools/wasnorm_wordpool.txt	LTP066	ltpFR	6	9	1	KIWI	781	n/a	1	1	0.412841796875	0.57763671875	upper	../fonts/amplitud.ttf
1549.322	n/a	WORD	774661	wordpools/wasnorm_wordpool.txt	LTP066	ltpFR	6	9	1	CELERY	266	n/a	1	1	0.412841796875	0.57763671875	upper	../fonts/amplitud.ttf
1555.25	n/a	REC_START	777625	n/a	LTP066	ltpFR	6	9	n/a	n/a	n/a	n/a	n/a	n/a	n/a	n/a	n/a	n/a
1557.998	n/a	REC_WORD	778999	wordpools/wasnorm_wordpool.txt	LTP066	ltpFR	6	9	1	TAVERN	1437	n/a	0	n/a	n/a	n/a	n/a	n/a
1559.684	n/a	REC_WORD	779842	wordpools/wasnorm_wordpool.txt	LTP066	ltpFR	6	9	1	CELERY	266	n/a	1	n/a	n/a	n/a	n/a	n/a
1563.266	n/a	REC_WORD	781633	wordpools/wasnorm_wordpool.txt	LTP066	ltpFR	6	9	1	DINER	467	n/a	0	n/a	n/a	n/a	n/a	n/a
1567.108	n/a	REC_WORD	783554	wordpools/wasnorm_wordpool.txt	LTP066	ltpFR	6	9	1	CAMEL	223	n/a	1	n/a	n/a	n/a	n/a	n/a
1569.184	n/a	REC_WORD	784592	wordpools/wasnorm_wordpool.txt	LTP066	ltpFR	6	9	1	TOWN	1491	n/a	0	n/a	n/a	n/a	n/a	n/a
1571.16	n/a	REC_WORD	785580	wordpools/wasnorm_wordpool.txt	LTP066	ltpFR	6	9	1	COMMUNITY	356	n/a	0	n/a	n/a	n/a	n/a	n/a
1572.422	n/a	REC_WORD	786211	wordpools/wasnorm_wordpool.txt	LTP066	ltpFR	6	9	1	COMMITTEE	355	n/a	1	n/a	n/a	n/a	n/a	n/a
1574.916	n/a	REC_WORD	787458	wordpools/wasnorm_wordpool.txt	LTP066	ltpFR	6	9	1	AUDIENCE	59	n/a	1	n/a	n/a	n/a	n/a	n/a
1575.916	n/a	REC_WORD_VV	787958	wordpools/wasnorm_wordpool.txt	LTP066	ltpFR	6	9	n/a	<>	-1	n/a	n/a	n/a	n/a	n/a	n/a	n/a
1580.976	n/a	REC_WORD	790488	wordpools/wasnorm_wordpool.txt	LTP066	ltpFR	6	9	1	CAMEL	223	n/a	1	n/a	n/a	n/a	n/a	n/a
1581.514	n/a	REC_WORD	790757	wordpools/wasnorm_wordpool.txt	LTP066	ltpFR	6	9	1	REFRIGERATOR	1179	n/a	0	n/a	n/a	n/a	n/a	n/a
1633.992	n/a	WORD	816996	wordpools/wasnorm_wordpool.txt	LTP066	ltpFR	6	10	1	DISHWASHER	475	n/a	0	1	0.412841796875	0.57763671875	upper	../fonts/amplitud.ttf
1638.162	n/a	WORD	819081	wordpools/wasnorm_wordpool.txt	LTP066	ltpFR	6	10	1	SOAP	1337	n/a	0	1	0.412841796875	0.57763671875	upper	../fonts/amplitud.ttf
1642.224	n/a	WORD	821112	wordpools/wasnorm_wordpool.txt	LTP066	ltpFR	6	10	0	SCARF	1246	n/a	0	0	0.5869140625	0.422607421875	lower	../fonts/zerothre.ttf
1646.37	n/a	WORD	823185	wordpools/wasnorm_wordpool.txt	LTP066	ltpFR	6	10	0	ARTIST	43	n/a	1	0	0.5869140625	0.422607421875	lower	../fonts/zerothre.ttf
1650.316	n/a	WORD	825158	wordpools/wasnorm_wordpool.txt	LTP066	ltpFR	6	10	0	FOLLOWER	589	n/a	1	0	0.5869140625	0.422607421875	lower	../fonts/zerothre.ttf
1654.336	n/a	WORD	827168	wordpools/wasnorm_wordpool.txt	LTP066	ltpFR	6	10	1	MOON	914	n/a	0	1	0.412841796875	0.57763671875	upper	../fonts/amplitud.ttf
1658.34	n/a	WORD	829170	wordpools/wasnorm_wordpool.txt	LTP066	ltpFR	6	10	1	FUNERAL	613	n/a	0	1	0.412841796875	0.57763671875	upper	../fonts/amplitud.ttf
1662.51	n/a	WORD	831255	wordpools/wasnorm_wordpool.txt	LTP066	ltpFR	6	10	1	NOOSE	956	n/a	0	1	0.412841796875	0.57763671875	upper	../fonts/amplitud.ttf
1666.464	n/a	WORD	833232	wordpools/wasnorm_wordpool.txt	LTP066	ltpFR	6	10	1	CUP	424	n/a	0	1	0.412841796875	0.57763671875	upper	../fonts/amplitud.ttf
1670.492	n/a	WORD	835246	wordpools/wasnorm_wordpool.txt	LTP066	ltpFR	6	10	1	MARINE	869	n/a	3	1	0.412841796875	0.57763671875	upper	../fonts/amplitud.ttf
1671.416	n/a	KEY_MSG	835708	n/a	LTP066	ltpFR	6	10	n/a	n/a	n/a	n/a	n/a	n/a	n/a	n/a	n/a	n/a
1674.362	n/a	WORD	837181	wordpools/wasnorm_wordpool.txt	LTP066	ltpFR	6	10	1	COD	340	n/a	1	1	0.412841796875	0.57763671875	upper	../fonts/amplitud.ttf
1678.5	n/a	WORD	839250	wordpools/wasnorm_wordpool.txt	LTP066	ltpFR	6	10	0	CASHIER	254	n/a	1	0	0.5869140625	0.422607421875	lower	../fonts/zerothre.ttf
1682.562	n/a	WORD	841281	wordpools/wasnorm_wordpool.txt	LTP066	ltpFR	6	10	0	HOME	712	n/a	1	0	0.5869140625	0.422607421875	lower	../fonts/zerothre.ttf
1686.64	n/a	WORD	843320	wordpools/wasnorm_wordpool.txt	LTP066	ltpFR	6	10	0	IDOL	733	n/a	1	0	0.5869140625	0.422607421875	lower	../fonts/zerothre.ttf
1690.768	n/a	WORD	845384	wordpools/wasnorm_wordpool.txt	LTP066	ltpFR	6	10	0	CENT	270	n/a	0	0	0.5869140625	0.422607421875	lower	../fonts/zerothre.ttf
1694.798	n/a	WORD	847399	wordpools/wasnorm_wordpool.txt	LTP066	ltpFR	6	10	0	PORCH	1106	n/a	1	0	0.5869140625	0.422607421875	lower	../fonts/zerothre.ttf
1700.758	n/a	REC_START	850379	n/a	LTP066	ltpFR	6	10	n/a	n/a	n/a	n/a	n/a	n/a	n/a	n/a	n/a	n/a
1702.268	n/a	REC_WORD	851134	wordpools/wasnorm_wordpool.txt	LTP066	ltpFR	6	10	1	DISHWASHER	475	n/a	0	n/a	n/a	n/a	n/a	n/a
1703.232	n/a	REC_WORD	851616	wordpools/wasnorm_wordpool.txt	LTP066	ltpFR	6	10	1	SOAP	1337	n/a	0	n/a	n/a	n/a	n/a	n/a
1704.414	n/a	REC_WORD	852207	wordpools/wasnorm_wordpool.txt	LTP066	ltpFR	6	10	0	SCARF	1246	n/a	0	n/a	n/a	n/a	n/a	n/a
1714.162	n/a	REC_WORD	857081	wordpools/wasnorm_wordpool.txt	LTP066	ltpFR	6	10	0	IDOL	733	n/a	1	n/a	n/a	n/a	n/a	n/a
1716.376	n/a	REC_WORD	858188	wordpools/wasnorm_wordpool.txt	LTP066	ltpFR	6	10	0	PORCH	1106	n/a	1	n/a	n/a	n/a	n/a	n/a
1717.894	n/a	REC_WORD	858947	wordpools/wasnorm_wordpool.txt	LTP066	ltpFR	6	10	1	COD	340	n/a	1	n/a	n/a	n/a	n/a	n/a
1719.51	n/a	REC_WORD	859755	wordpools/wasnorm_wordpool.txt	LTP066	ltpFR	6	10	0	CASHIER	254	n/a	1	n/a	n/a	n/a	n/a	n/a
1721.8	n/a	REC_WORD	860900	wordpools/wasnorm_wordpool.txt	LTP066	ltpFR	6	10	0	HOME	712	n/a	1	n/a	n/a	n/a	n/a	n/a
1730.98	n/a	REC_WORD	865490	wordpools/wasnorm_wordpool.txt	LTP066	ltpFR	6	10	n/a	SENT	-1	n/a	n/a	n/a	n/a	n/a	n/a	n/a
1779.658	n/a	WORD	889829	wordpools/wasnorm_wordpool.txt	LTP066	ltpFR	6	11	0	PHILOSOPHER	1054	n/a	1	0	0.5869140625	0.422607421875	lower	../fonts/zerothre.ttf
1783.62	n/a	WORD	891810	wordpools/wasnorm_wordpool.txt	LTP066	ltpFR	6	11	0	BIOLOGIST	128	n/a	1	0	0.5869140625	0.422607421875	lower	../fonts/zerothre.ttf
1787.598	n/a	WORD	893799	wordpools/wasnorm_wordpool.txt	LTP066	ltpFR	6	11	0	PAGE	1001	n/a	0	0	0.5869140625	0.422607421875	lower	../fonts/zerothre.ttf
1791.478	n/a	WORD	895739	wordpools/wasnorm_wordpool.txt	LTP066	ltpFR	6	11	1	TULIP	1517	n/a	1	1	0.412841796875	0.57763671875	upper	../fonts/amplitud.ttf
1795.566	n/a	WORD	897783	wordpools/wasnorm_wordpool.txt	LTP066	ltpFR	6	11	1	LOOP	844	n/a	0	1	0.412841796875	0.57763671875	upper	../fonts/amplitud.ttf
1799.71	n/a	WORD	899855	wordpools/wasnorm_wordpool.txt	LTP066	ltpFR	6	11	1	PUBLISHER	1137	n/a	1	1	0.412841796875	0.57763671875	upper	../fonts/amplitud.ttf
1803.856	n/a	WORD	901928	wordpools/wasnorm_wordpool.txt	LTP066	ltpFR	6	11	0	RAM	1165	n/a	1	0	0.5869140625	0.422607421875	lower	../fonts/zerothre.ttf
1807.884	n/a	WORD	903942	wordpools/wasnorm_wordpool.txt	LTP066	ltpFR	6	11	0	PREACHER	1119	n/a	1	0	0.5869140625	0.422607421875	lower	../fonts/zerothre.ttf
1811.988	n/a	WORD	905994	wordpools/wasnorm_wordpool.txt	LTP066	ltpFR	6	11	0	TOE	1473	n/a	0	0	0.5869140625	0.422607421875	lower	../fonts/zerothre.ttf
1816.008	n/a	WORD	908004	wordpools/wasnorm_wordpool.txt	LTP066	ltpFR	6	11	0	OVAL	990	n/a	0	0	0.5869140625	0.422607421875	lower	../fonts/zerothre.ttf
1819.994	n/a	WORD	909997	wordpools/wasnorm_wordpool.txt	LTP066	ltpFR	6	11	0	ALBUM	14	n/a	1	0	0.5869140625	0.422607421875	lower	../fonts/zerothre.ttf
1824.198	n/a	WORD	912099	wordpools/wasnorm_wordpool.txt	LTP066	ltpFR	6	11	1	FRAME	600	n/a	0	1	0.412841796875	0.57763671875	upper	../fonts/amplitud.ttf
1828.018	n/a	WORD	914009	wordpools/wasnorm_wordpool.txt	LTP066	ltpFR	6	11	1	SCREEN	1253	n/a	0	1	0.412841796875	0.57763671875	upper	../fonts/amplitud.ttf
1832.138	n/a	WORD	916069	wordpools/wasnorm_wordpool.txt	LTP066	ltpFR	6	11	1	TICKET	1464	n/a	0	1	0.412841796875	0.57763671875	upper	../fonts/amplitud.ttf
1836.2	n/a	WORD	918100	wordpools/wasnorm_wordpool.txt	LTP066	ltpFR	6	11	1	GRIZZLY	662	n/a	0	1	0.412841796875	0.57763671875	upper	../fonts/amplitud.ttf
1840.128	n/a	WORD	920064	wordpools/wasnorm_wordpool.txt	LTP066	ltpFR	6	11	1	PEDAL	1037	n/a	2	1	0.412841796875	0.57763671875	upper	../fonts/amplitud.ttf
1842.41	n/a	KEY_MSG	921205	n/a	LTP066	ltpFR	6	11	n/a	n/a	n/a	n/a	n/a	n/a	n/a	n/a	n/a	n/a
1846.73	n/a	REC_START	923365	n/a	LTP066	ltpFR	6	11	n/a	n/a	n/a	n/a	n/a	n/a	n/a	n/a	n/a	n/a
1849.598	n/a	REC_WORD	924799	wordpools/wasnorm_wordpool.txt	LTP066	ltpFR	6	11	0	PHILOSOPHER	1054	n/a	1	n/a	n/a	n/a	n/a	n/a
1850.826	n/a	REC_WORD	925413	wordpools/wasnorm_wordpool.txt	LTP066	ltpFR	6	11	0	BIOLOGIST	128	n/a	1	n/a	n/a	n/a	n/a	n/a
1851.826	n/a	REC_WORD_VV	925913	wordpools/wasnorm_wordpool.txt	LTP066	ltpFR	6	11	n/a	<>	-1	n/a	n/a	n/a	n/a	n/a	n/a	n/a
1855.934	n/a	REC_WORD	927967	wordpools/wasnorm_wordpool.txt	LTP066	ltpFR	6	11	0	PAGE	1001	n/a	0	n/a	n/a	n/a	n/a	n/a
1858.638	n/a	REC_WORD	929319	wordpools/wasnorm_wordpool.txt	LTP066	ltpFR	6	11	1	TULIP	1517	n/a	1	n/a	n/a	n/a	n/a	n/a
1859.726	n/a	REC_WORD	929863	wordpools/wasnorm_wordpool.txt	LTP066	ltpFR	6	11	1	LOOP	844	n/a	0	n/a	n/a	n/a	n/a	n/a
1861.682	n/a	REC_WORD	930841	wordpools/wasnorm_wordpool.txt	LTP066	ltpFR	6	11	1	PUBLISHER	1137	n/a	1	n/a	n/a	n/a	n/a	n/a
1882.486	n/a	REC_WORD	941243	wordpools/wasnorm_wordpool.txt	LTP066	ltpFR	6	11	0	TOE	1473	n/a	0	n/a	n/a	n/a	n/a	n/a
1895.596	n/a	REC_WORD	947798	wordpools/wasnorm_wordpool.txt	LTP066	ltpFR	6	11	0	OVAL	990	n/a	0	n/a	n/a	n/a	n/a	n/a
1896.922	n/a	REC_WORD	948461	wordpools/wasnorm_wordpool.txt	LTP066	ltpFR	6	11	1	FRAME	600	n/a	0	n/a	n/a	n/a	n/a	n/a
1926.396	n/a	WORD	963198	wordpools/wasnorm_wordpool.txt	LTP066	ltpFR	6	12	0	JUG	762	n/a	1	0	0.5869140625	0.422607421875	lower	../fonts/zerothre.ttf
1930.534	n/a	WORD	965267	wordpools/wasnorm_wordpool.txt	LTP066	ltpFR	6	12	0	BUTTER	205	n/a	0	0	0.5869140625	0.422607421875	lower	../fonts/zerothre.ttf
1934.512	n/a	WORD	967256	wordpools/wasnorm_wordpool.txt	LTP066	ltpFR	6	12	0	SHORTCAKE	1292	n/a	0	0	0.5869140625	0.422607421875	lower	../fonts/zerothre.ttf
1938.608	n/a	WORD	969304	wordpools/wasnorm_wordpool.txt	LTP066	ltpFR	6	12	1	PUB	1135	n/a	0	1	0.412841796875	0.57763671875	upper	../fonts/amplitud.ttf
1942.652	n/a	WORD	971326	wordpools/wasnorm_wordpool.txt	LTP066	ltpFR	6	12	1	CYLINDER	432	n/a	0	1	0.412841796875	0.57763671875	upper	../fonts/amplitud.ttf
1946.774	n/a	WORD	973387	wordpools/wasnorm_wordpool.txt	LTP066	ltpFR	6	12	1	CHIP	303	n/a	0	1	0.412841796875	0.57763671875	upper	../fonts/amplitud.ttf
1950.828	n/a	WORD	975414	wordpools/wasnorm_wordpool.txt	LTP066	ltpFR	6	12	1	VILLAGE	1566	n/a	0	1	0.412841796875	0.57763671875	upper	../fonts/amplitud.ttf
1954.914	n/a	WORD	977457	wordpools/wasnorm_wordpool.txt	LTP066	ltpFR	6	12	1	COTTAGE	384	n/a	0	1	0.412841796875	0.57763671875	upper	../fonts/amplitud.ttf
1958.742	n/a	WORD	979371	wordpools/wasnorm_wordpool.txt	LTP066	ltpFR	6	12	1	RIFLE	1192	n/a	0	1	0.412841796875	0.57763671875	upper	../fonts/amplitud.ttf
1962.754	n/a	WORD	981377	wordpools/wasnorm_wordpool.txt	LTP066	ltpFR	6	12	0	CRITIC	410	n/a	1	0	0.5869140625	0.422607421875	lower	../fonts/zerothre.ttf
1966.766	n/a	WORD	983383	wordpools/wasnorm_wordpool.txt	LTP066	ltpFR	6	12	0	PRODUCER	1129	n/a	1	0	0.5869140625	0.422607421875	lower	../fonts/zerothre.ttf
1970.654	n/a	WORD	985327	wordpools/wasnorm_wordpool.txt	LTP066	ltpFR	6	12	1	PISTON	1076	n/a	0	1	0.412841796875	0.57763671875	upper	../fonts/amplitud.ttf
1974.474	n/a	WORD	987237	wordpools/wasnorm_wordpool.txt	LTP066	ltpFR	6	12	1	TRIGGER	1507	n/a	0	1	0.412841796875	0.57763671875	upper	../fonts/amplitud.ttf
1978.302	n/a	WORD	989151	wordpools/wasnorm_wordpool.txt	LTP066	ltpFR	6	12	0	ORCHID	982	n/a	2	0	0.5869140625	0.422607421875	lower	../fonts/zerothre.ttf
1978.82	n/a	KEY_MSG	989410	n/a	LTP066	ltpFR	6	12	n/a	n/a	n/a	n/a	n/a	n/a	n/a	n/a	n/a	n/a
1982.414	n/a	WORD	991207	wordpools/wasnorm_wordpool.txt	LTP066	ltpFR	6	12	0	WRITER	1627	n/a	1	0	0.5869140625	0.422607421875	lower	../fonts/zerothre.ttf
1986.518	n/a	WORD	993259	wordpools/wasnorm_wordpool.txt	LTP066	ltpFR	6	12	0	FLEA	577	n/a	0	0	0.5869140625	0.422607421875	lower	../fonts/zerothre.ttf
1992.212	n/a	REC_START	996106	n/a	LTP066	ltpFR	6	12	n/a	n/a	n/a	n/a	n/a	n/a	n/a	n/a	n/a	n/a
1996.732	n/a	REC_WORD	998366	wordpools/wasnorm_wordpool.txt	LTP066	ltpFR	6	12	0	SHORTCAKE	1292	n/a	0	n/a	n/a	n/a	n/a	n/a
1997.732	n/a	REC_WORD_VV	998866	wordpools/wasnorm_wordpool.txt	LTP066	ltpFR	6	12	n/a	<>	-1	n/a	n/a	n/a	n/a	n/a	n/a	n/a
2001.276	n/a	REC_WORD	1000638	wordpools/wasnorm_wordpool.txt	LTP066	ltpFR	6	12	0	JUG	762	n/a	1	n/a	n/a	n/a	n/a	n/a
2002.624	n/a	REC_WORD	1001312	wordpools/wasnorm_wordpool.txt	LTP066	ltpFR	6	12	0	BUTTER	205	n/a	0	n/a	n/a	n/a	n/a	n/a
2004.15	n/a	REC_WORD	1002075	wordpools/wasnorm_wordpool.txt	LTP066	ltpFR	6	12	1	CYLINDER	432	n/a	0	n/a	n/a	n/a	n/a	n/a
2006.016	n/a	REC_WORD	1003008	wordpools/wasnorm_wordpool.txt	LTP066	ltpFR	6	12	1	PUB	1135	n/a	0	n/a	n/a	n/a	n/a	n/a
2010.196	n/a	REC_WORD	1005098	wordpools/wasnorm_wordpool.txt	LTP066	ltpFR	6	12	1	CHIP	303	n/a	0	n/a	n/a	n/a	n/a	n/a
2012.552	n/a	REC_WORD	1006276	wordpools/wasnorm_wordpool.txt	LTP066	ltpFR	6	12	1	COTTAGE	384	n/a	0	n/a	n/a	n/a	n/a	n/a
2017.76	n/a	REC_WORD	1008880	wordpools/wasnorm_wordpool.txt	LTP066	ltpFR	6	12	1	RIFLE	1192	n/a	0	n/a	n/a	n/a	n/a	n/a
2021.522	n/a	REC_WORD	1010761	wordpools/wasnorm_wordpool.txt	LTP066	ltpFR	6	12	0	CRITIC	410	n/a	1	n/a	n/a	n/a	n/a	n/a
2035.66	n/a	REC_WORD	1017830	wordpools/wasnorm_wordpool.txt	LTP066	ltpFR	6	12	0	ORCHID	982	n/a	2	n/a	n/a	n/a	n/a	n/a
2042.674	n/a	REC_WORD	1021337	wordpools/wasnorm_wordpool.txt	LTP066	ltpFR	6	12	1	PUBLISHER	1137	n/a	1	n/a	n/a	n/a	n/a	n/a
2456.124	n/a	WORD	1228062	wordpools/wasnorm_wordpool.txt	LTP066	ltpFR	6	13	1	POPCORN	1104	n/a	0	1	0.412841796875	0.57763671875	upper	../fonts/amplitud.ttf
2459.954	n/a	WORD	1229977	wordpools/wasnorm_wordpool.txt	LTP066	ltpFR	6	13	1	BRAKE	166	n/a	0	1	0.412841796875	0.57763671875	upper	../fonts/amplitud.ttf
2464.09	n/a	WORD	1232045	wordpools/wasnorm_wordpool.txt	LTP066	ltpFR	6	13	1	ROOST	1208	n/a	0	1	0.412841796875	0.57763671875	upper	../fonts/amplitud.ttf
2468.16	n/a	WORD	1234080	wordpools/wasnorm_wordpool.txt	LTP066	ltpFR	6	13	1	INSTRUCTOR	741	n/a	1	1	0.412841796875	0.57763671875	upper	../fonts/amplitud.ttf
2472.248	n/a	WORD	1236124	wordpools/wasnorm_wordpool.txt	LTP066	ltpFR	6	13	1	LIZARD	834	n/a	1	1	0.412841796875	0.57763671875	upper	../fonts/amplitud.ttf
2476.268	n/a	WORD	1238134	wordpools/wasnorm_wordpool.txt	LTP066	ltpFR	6	13	1	MOAT	903	n/a	0	1	0.412841796875	0.57763671875	upper	../fonts/amplitud.ttf
2480.248	n/a	WORD	1240124	wordpools/wasnorm_wordpool.txt	LTP066	ltpFR	6	13	1	WATERFALL	1595	n/a	0	1	0.412841796875	0.57763671875	upper	../fonts/amplitud.ttf
2484.268	n/a	WORD	1242134	wordpools/wasnorm_wordpool.txt	LTP066	ltpFR	6	13	1	HELICOPTER	701	n/a	0	1	0.412841796875	0.57763671875	upper	../fonts/amplitud.ttf
2488.464	n/a	WORD	1244232	wordpools/wasnorm_wordpool.txt	LTP066	ltpFR	6	13	1	PUMP	1141	n/a	0	1	0.412841796875	0.57763671875	upper	../fonts/amplitud.ttf
2492.576	n/a	WORD	1246288	wordpools/wasnorm_wordpool.txt	LTP066	ltpFR	6	13	1	VIDEO	1564	n/a	0	1	0.412841796875	0.57763671875	upper	../fonts/amplitud.ttf
2496.386	n/a	WORD	1248193	wordpools/wasnorm_wordpool.txt	LTP066	ltpFR	6	13	1	PATROL	1027	n/a	0	1	0.412841796875	0.57763671875	upper	../fonts/amplitud.ttf
2500.232	n/a	WORD	1250116	wordpools/wasnorm_wordpool.txt	LTP066	ltpFR	6	13	1	QUAIL	1147	n/a	1	1	0.412841796875	0.57763671875	upper	../fonts/amplitud.ttf
2504.186	n/a	WORD	1252093	wordpools/wasnorm_wordpool.txt	LTP066	ltpFR	6	13	1	PENGUIN	1044	n/a	1	1	0.412841796875	0.57763671875	upper	../fonts/amplitud.ttf
2508.372	n/a	WORD	1254186	wordpools/wasnorm_wordpool.txt	LTP066	ltpFR	6	13	1	AIRPLANE	12	n/a	0	1	0.412841796875	0.57763671875	upper	../fonts/amplitud.ttf
2512.402	n/a	WORD	1256201	wordpools/wasnorm_wordpool.txt	LTP066	ltpFR	6	13	1	MAGICIAN	854	n/a	1	1	0.412841796875	0.57763671875	upper	../fonts/amplitud.ttf
2516.564	n/a	WORD	1258282	wordpools/wasnorm_wordpool.txt	LTP066	ltpFR	6	13	1	HAT	690	n/a	0	1	0.412841796875	0.57763671875	upper	../fonts/amplitud.ttf
2522.508	n/a	REC_START	1261254	n/a	LTP066	ltpFR	6	13	n/a	n/a	n/a	n/a	n/a	n/a	n/a	n/a	n/a	n/a
2529.36	n/a	REC_WORD_VV	1264680	wordpools/wasnorm_wordpool.txt	LTP066	ltpFR	6	13	n/a	<>	-1	n/a	n/a	n/a	n/a	n/a	n/a	n/a
2530.824	n/a	REC_WORD	1265412	wordpools/wasnorm_wordpool.txt	LTP066	ltpFR	6	13	1	QUAIL	1147	n/a	1	n/a	n/a	n/a	n/a	n/a
2533.168	n/a	REC_WORD	1266584	wordpools/wasnorm_wordpool.txt	LTP066	ltpFR	6	13	1	PENGUIN	1044	n/a	1	n/a	n/a	n/a	n/a	n/a
2534.774	n/a	REC_WORD	1267387	wordpools/wasnorm_wordpool.txt	LTP066	ltpFR	6	13	1	LIZARD	834	n/a	1	n/a	n/a	n/a	n/a	n/a
2536.436	n/a	REC_WORD	1268218	wordpools/wasnorm_wordpool.txt	LTP066	ltpFR	6	13	1	INSTRUCTOR	741	n/a	1	n/a	n/a	n/a	n/a	n/a
2538.596	n/a	REC_WORD	1269298	wordpools/wasnorm_wordpool.txt	LTP066	ltpFR	6	13	1	MOAT	903	n/a	0	n/a	n/a	n/a	n/a	n/a
2541.41	n/a	REC_WORD	1270705	wordpools/wasnorm_wordpool.txt	LTP066	ltpFR	6	13	1	WATERFALL	1595	n/a	0	n/a	n/a	n/a	n/a	n/a
2545.23	n/a	REC_WORD	1272615	wordpools/wasnorm_wordpool.txt	LTP066	ltpFR	6	13	1	PUMP	1141	n/a	0	n/a	n/a	n/a	n/a	n/a
2547.046	n/a	REC_WORD	1273523	wordpools/wasnorm_wordpool.txt	LTP066	ltpFR	6	13	1	AIRPLANE	12	n/a	0	n/a	n/a	n/a	n/a	n/a
2548.852	n/a	REC_WORD	1274426	wordpools/wasnorm_wordpool.txt	LTP066	ltpFR	6	13	1	HELICOPTER	701	n/a	0	n/a	n/a	n/a	n/a	n/a
2584.666	n/a	REC_WORD	1292333	wordpools/wasnorm_wordpool.txt	LTP066	ltpFR	6	13	1	MAGICIAN	854	n/a	1	n/a	n/a	n/a	n/a	n/a
2588.014	n/a	REC_WORD	1294007	wordpools/wasnorm_wordpool.txt	LTP066	ltpFR	6	13	1	HAT	690	n/a	0	n/a	n/a	n/a	n/a	n/a
2596.296	n/a	REC_WORD	1298148	wordpools/wasnorm_wordpool.txt	LTP066	ltpFR	6	13	1	POPCORN	1104	n/a	0	n/a	n/a	n/a	n/a	n/a
2597.374	n/a	REC_WORD_VV	1298687	wordpools/wasnorm_wordpool.txt	LTP066	ltpFR	6	13	n/a	<>	-1	n/a	n/a	n/a	n/a	n/a	n/a	n/a
2601.758	n/a	WORD	1300879	wordpools/wasnorm_wordpool.txt	LTP066	ltpFR	6	14	-1	SHOELACE	1289	n/a	-1	1	1.0	1.0	upper	../fonts/Verdana.ttf
2605.712	n/a	WORD	1302856	wordpools/wasnorm_wordpool.txt	LTP066	ltpFR	6	14	-1	BALLOT	76	n/a	-1	1	1.0	1.0	upper	../fonts/Verdana.ttf
2609.706	n/a	WORD	1304853	wordpools/wasnorm_wordpool.txt	LTP066	ltpFR	6	14	-1	TOWER	1490	n/a	-1	1	1.0	1.0	upper	../fonts/Verdana.ttf
2613.536	n/a	WORD	1306768	wordpools/wasnorm_wordpool.txt	LTP066	ltpFR	6	14	-1	CONDUCTOR	362	n/a	-1	1	1.0	1.0	upper	../fonts/Verdana.ttf
2617.548	n/a	WORD	1308774	wordpools/wasnorm_wordpool.txt	LTP066	ltpFR	6	14	-1	PRINCESS	1125	n/a	-1	1	1.0	1.0	upper	../fonts/Verdana.ttf
2621.568	n/a	WORD	1310784	wordpools/wasnorm_wordpool.txt	LTP066	ltpFR	6	14	-1	COBBLER	335	n/a	-1	1	1.0	1.0	upper	../fonts/Verdana.ttf
2625.664	n/a	WORD	1312832	wordpools/wasnorm_wordpool.txt	LTP066	ltpFR	6	14	-1	PROFESSIONAL	1130	n/a	-1	1	1.0	1.0	upper	../fonts/Verdana.ttf
2629.868	n/a	WORD	1314934	wordpools/wasnorm_wordpool.txt	LTP066	ltpFR	6	14	-1	APARTMENT	30	n/a	-1	1	1.0	1.0	upper	../fonts/Verdana.ttf
2633.92	n/a	WORD	1316960	wordpools/wasnorm_wordpool.txt	LTP066	ltpFR	6	14	-1	CANDIDATE	228	n/a	-1	1	1.0	1.0	upper	../fonts/Verdana.ttf
2637.75	n/a	WORD	1318875	wordpools/wasnorm_wordpool.txt	LTP066	ltpFR	6	14	-1	LION	827	n/a	-1	1	1.0	1.0	upper	../fonts/Verdana.ttf
2641.694	n/a	WORD	1320847	wordpools/wasnorm_wordpool.txt	LTP066	ltpFR	6	14	-1	PREDATOR	1120	n/a	-1	1	1.0	1.0	upper	../fonts/Verdana.ttf
2645.524	n/a	WORD	1322762	wordpools/wasnorm_wordpool.txt	LTP066	ltpFR	6	14	-1	TUNA	1518	n/a	-1	1	1.0	1.0	upper	../fonts/Verdana.ttf
2649.402	n/a	WORD	1324701	wordpools/wasnorm_wordpool.txt	LTP066	ltpFR	6	14	-1	GRAVEL	659	n/a	-1	1	1.0	1.0	upper	../fonts/Verdana.ttf
2653.214	n/a	WORD	1326607	wordpools/wasnorm_wordpool.txt	LTP066	ltpFR	6	14	-1	ALLEY	15	n/a	-1	1	1.0	1.0	upper	../fonts/Verdana.ttf
2657.142	n/a	WORD	1328571	wordpools/wasnorm_wordpool.txt	LTP066	ltpFR	6	14	-1	CLERK	321	n/a	-1	1	1.0	1.0	upper	../fonts/Verdana.ttf
2661.18	n/a	WORD	1330590	wordpools/wasnorm_wordpool.txt	LTP066	ltpFR	6	14	-1	FACTORY	548	n/a	-1	1	1.0	1.0	upper	../fonts/Verdana.ttf
2666.874	n/a	REC_START	1333437	n/a	LTP066	ltpFR	6	14	n/a	n/a	n/a	n/a	n/a	n/a	n/a	n/a	n/a	n/a
2669.114	n/a	REC_WORD	1334557	wordpools/wasnorm_wordpool.txt	LTP066	ltpFR	6	14	-1	TOWER	1490	n/a	-1	n/a	n/a	n/a	n/a	n/a
2670.96	n/a	REC_WORD	1335480	wordpools/wasnorm_wordpool.txt	LTP066	ltpFR	6	14	-1	SHOELACE	1289	n/a	-1	n/a	n/a	n/a	n/a	n/a
2671.96	n/a	REC_WORD_VV	1335980	wordpools/wasnorm_wordpool.txt	LTP066	ltpFR	6	14	n/a	<>	-1	n/a	n/a	n/a	n/a	n/a	n/a	n/a
2674.632	n/a	REC_WORD	1337316	wordpools/wasnorm_wordpool.txt	LTP066	ltpFR	6	14	-1	BALLOT	76	n/a	-1	n/a	n/a	n/a	n/a	n/a
2677.674	n/a	REC_WORD	1338837	wordpools/wasnorm_wordpool.txt	LTP066	ltpFR	6	14	-1	CANDIDATE	228	n/a	-1	n/a	n/a	n/a	n/a	n/a
2680.214	n/a	REC_WORD	1340107	wordpools/wasnorm_wordpool.txt	LTP066	ltpFR	6	14	-1	PRINCESS	1125	n/a	-1	n/a	n/a	n/a	n/a	n/a
2682.074	n/a	REC_WORD	1341037	wordpools/wasnorm_wordpool.txt	LTP066	ltpFR	6	14	-1	CONDUCTOR	362	n/a	-1	n/a	n/a	n/a	n/a	n/a
2685.428	n/a	REC_WORD	1342714	wordpools/wasnorm_wordpool.txt	LTP066	ltpFR	6	14	-1	COBBLER	335	n/a	-1	n/a	n/a	n/a	n/a	n/a
2708.92	n/a	REC_WORD	1354460	wordpools/wasnorm_wordpool.txt	LTP066	ltpFR	6	14	-1	FACTORY	548	n/a	-1	n/a	n/a	n/a	n/a	n/a
2710.452	n/a	REC_WORD	1355226	wordpools/wasnorm_wordpool.txt	LTP066	ltpFR	6	14	-1	TOWER	1490	n/a	-1	n/a	n/a	n/a	n/a	n/a
2715.878	n/a	REC_WORD	1357939	wordpools/wasnorm_wordpool.txt	LTP066	ltpFR	6	14	-1	LION	827	n/a	-1	n/a	n/a	n/a	n/a	n/a
2716.766	n/a	REC_WORD	1358383	wordpools/wasnorm_wordpool.txt	LTP066	ltpFR	6	14	-1	PREDATOR	1120	n/a	-1	n/a	n/a	n/a	n/a	n/a
2718.632	n/a	REC_WORD	1359316	wordpools/wasnorm_wordpool.txt	LTP066	ltpFR	6	14	-1	TUNA	1518	n/a	-1	n/a	n/a	n/a	n/a	n/a
2719.372	n/a	REC_WORD	1359686	wordpools/wasnorm_wordpool.txt	LTP066	ltpFR	6	14	-1	ALLEY	15	n/a	-1	n/a	n/a	n/a	n/a	n/a
2720.17	n/a	REC_WORD	1360085	wordpools/wasnorm_wordpool.txt	LTP066	ltpFR	6	14	-1	GRAVEL	659	n/a	-1	n/a	n/a	n/a	n/a	n/a
2745.248	n/a	WORD	1372624	wordpools/wasnorm_wordpool.txt	LTP066	ltpFR	6	15	0	PENCIL	1042	n/a	0	0	0.5869140625	0.422607421875	lower	../fonts/zerothre.ttf
2749.12	n/a	WORD	1374560	wordpools/wasnorm_wordpool.txt	LTP066	ltpFR	6	15	0	CHIPMUNK	304	n/a	1	0	0.5869140625	0.422607421875	lower	../fonts/zerothre.ttf
2753.008	n/a	WORD	1376504	wordpools/wasnorm_wordpool.txt	LTP066	ltpFR	6	15	0	GIRAFFE	636	n/a	1	0	0.5869140625	0.422607421875	lower	../fonts/zerothre.ttf
2757.002	n/a	WORD	1378501	wordpools/wasnorm_wordpool.txt	LTP066	ltpFR	6	15	0	APRON	35	n/a	0	0	0.5869140625	0.422607421875	lower	../fonts/zerothre.ttf
2761.032	n/a	WORD	1380516	wordpools/wasnorm_wordpool.txt	LTP066	ltpFR	6	15	0	GARAGE	621	n/a	1	0	0.5869140625	0.422607421875	lower	../fonts/zerothre.ttf
2764.976	n/a	WORD	1382488	wordpools/wasnorm_wordpool.txt	LTP066	ltpFR	6	15	0	DAUGHTER	442	n/a	1	0	0.5869140625	0.422607421875	lower	../fonts/zerothre.ttf
2768.864	n/a	WORD	1384432	wordpools/wasnorm_wordpool.txt	LTP066	ltpFR	6	15	0	ELBOW	520	n/a	1	0	0.5869140625	0.422607421875	lower	../fonts/zerothre.ttf
2772.95	n/a	WORD	1386475	wordpools/wasnorm_wordpool.txt	LTP066	ltpFR	6	15	0	WRIST	1626	n/a	0	0	0.5869140625	0.422607421875	lower	../fonts/zerothre.ttf
2776.772	n/a	WORD	1388386	wordpools/wasnorm_wordpool.txt	LTP066	ltpFR	6	15	0	LUNCH	849	n/a	0	0	0.5869140625	0.422607421875	lower	../fonts/zerothre.ttf
2780.968	n/a	WORD	1390484	wordpools/wasnorm_wordpool.txt	LTP066	ltpFR	6	15	0	PARCEL	1012	n/a	1	0	0.5869140625	0.422607421875	lower	../fonts/zerothre.ttf
2784.83	n/a	WORD	1392415	wordpools/wasnorm_wordpool.txt	LTP066	ltpFR	6	15	0	SHOWER	1296	n/a	1	0	0.5869140625	0.422607421875	lower	../fonts/zerothre.ttf
2788.742	n/a	WORD	1394371	wordpools/wasnorm_wordpool.txt	LTP066	ltpFR	6	15	0	HOSE	720	n/a	1	0	0.5869140625	0.422607421875	lower	../fonts/zerothre.ttf
2792.728	n/a	WORD	1396364	wordpools/wasnorm_wordpool.txt	LTP066	ltpFR	6	15	0	KEYBOARD	774	n/a	1	0	0.5869140625	0.422607421875	lower	../fonts/zerothre.ttf
2796.758	n/a	WORD	1398379	wordpools/wasnorm_wordpool.txt	LTP066	ltpFR	6	15	0	PEN	1041	n/a	0	0	0.5869140625	0.422607421875	lower	../fonts/zerothre.ttf
2800.786	n/a	WORD	1400393	wordpools/wasnorm_wordpool.txt	LTP066	ltpFR	6	15	0	COMET	353	n/a	0	0	0.5869140625	0.422607421875	lower	../fonts/zerothre.ttf
2804.848	n/a	WORD	1402424	wordpools/wasnorm_wordpool.txt	LTP066	ltpFR	6	15	0	SALESMAN	1225	n/a	1	0	0.5869140625	0.422607421875	lower	../fonts/zerothre.ttf
2810.742	n/a	REC_START	1405371	n/a	LTP066	ltpFR	6	15	n/a	n/a	n/a	n/a	n/a	n/a	n/a	n/a	n/a	n/a
2813.032	n/a	REC_WORD	1406516	wordpools/wasnorm_wordpool.txt	LTP066	ltpFR	6	15	0	PENCIL	1042	n/a	0	n/a	n/a	n/a	n/a	n/a
2814.048	n/a	REC_WORD	1407024	wordpools/wasnorm_wordpool.txt	LTP066	ltpFR	6	15	0	CHIPMUNK	304	n/a	1	n/a	n/a	n/a	n/a	n/a
2815.676	n/a	REC_WORD	1407838	wordpools/wasnorm_wordpool.txt	LTP066	ltpFR	6	15	0	CHIMPANZEE	302	n/a	1	n/a	n/a	n/a	n/a	n/a
2815.954	n/a	REC_WORD	1407977	wordpools/wasnorm_wordpool.txt	LTP066	ltpFR	6	15	n/a	[???]	-1	n/a	n/a	n/a	n/a	n/a	n/a	n/a
2818.898	n/a	REC_WORD	1409449	wordpools/wasnorm_wordpool.txt	LTP066	ltpFR	6	15	0	GIRAFFE	636	n/a	1	n/a	n/a	n/a	n/a	n/a
2819.956	n/a	REC_WORD	1409978	wordpools/wasnorm_wordpool.txt	LTP066	ltpFR	6	15	0	APRON	35	n/a	0	n/a	n/a	n/a	n/a	n/a
2822.65	n/a	REC_WORD	1411325	wordpools/wasnorm_wordpool.txt	LTP066	ltpFR	6	15	0	DAUGHTER	442	n/a	1	n/a	n/a	n/a	n/a	n/a
2825.314	n/a	REC_WORD	1412657	wordpools/wasnorm_wordpool.txt	LTP066	ltpFR	6	15	0	ELBOW	520	n/a	1	n/a	n/a	n/a	n/a	n/a
2827.278	n/a	REC_WORD	1413639	wordpools/wasnorm_wordpool.txt	LTP066	ltpFR	6	15	0	SHOWER	1296	n/a	1	n/a	n/a	n/a	n/a	n/a
2829.488	n/a	REC_WORD	1414744	wordpools/wasnorm_wordpool.txt	LTP066	ltpFR	6	15	0	HOSE	720	n/a	1	n/a	n/a	n/a	n/a	n/a
2830.99	n/a	REC_WORD	1415495	wordpools/wasnorm_wordpool.txt	LTP066	ltpFR	6	15	0	PARCEL	1012	n/a	1	n/a	n/a	n/a	n/a	n/a
2839.51	n/a	REC_WORD	1419755	wordpools/wasnorm_wordpool.txt	LTP066	ltpFR	6	15	0	COMET	353	n/a	0	n/a	n/a	n/a	n/a	n/a
2846.216	n/a	REC_WORD	1423108	wordpools/wasnorm_wordpool.txt	LTP066	ltpFR	6	15	0	KEYBOARD	774	n/a	1	n/a	n/a	n/a	n/a	n/a
2851.724	n/a	REC_WORD	1425862	wordpools/wasnorm_wordpool.txt	LTP066	ltpFR	6	15	0	PEN	1041	n/a	0	n/a	n/a	n/a	n/a	n/a
2888.518	n/a	WORD	1444259	wordpools/wasnorm_wordpool.txt	LTP066	ltpFR	6	16	-1	PAPER	1011	n/a	-1	1	1.0	1.0	upper	../fonts/Verdana.ttf
2892.522	n/a	WORD	1446261	wordpools/wasnorm_wordpool.txt	LTP066	ltpFR	6	16	-1	PAVEMENT	1028	n/a	-1	1	1.0	1.0	upper	../fonts/Verdana.ttf
2896.55	n/a	WORD	1448275	wordpools/wasnorm_wordpool.txt	LTP066	ltpFR	6	16	-1	SIDEWALK	1303	n/a	-1	1	1.0	1.0	upper	../fonts/Verdana.ttf
2900.728	n/a	WORD	1450364	wordpools/wasnorm_wordpool.txt	LTP066	ltpFR	6	16	-1	VALVE	1546	n/a	-1	1	1.0	1.0	upper	../fonts/Verdana.ttf
2904.574	n/a	WORD	1452287	wordpools/wasnorm_wordpool.txt	LTP066	ltpFR	6	16	-1	DOCUMENT	479	n/a	-1	1	1.0	1.0	upper	../fonts/Verdana.ttf
2908.702	n/a	WORD	1454351	wordpools/wasnorm_wordpool.txt	LTP066	ltpFR	6	16	-1	GENERAL	630	n/a	-1	1	1.0	1.0	upper	../fonts/Verdana.ttf
2912.856	n/a	WORD	1456428	wordpools/wasnorm_wordpool.txt	LTP066	ltpFR	6	16	-1	DINNER	468	n/a	-1	1	1.0	1.0	upper	../fonts/Verdana.ttf
2916.784	n/a	WORD	1458392	wordpools/wasnorm_wordpool.txt	LTP066	ltpFR	6	16	-1	UTENSIL	1542	n/a	-1	1	1.0	1.0	upper	../fonts/Verdana.ttf
2920.814	n/a	WORD	1460407	wordpools/wasnorm_wordpool.txt	LTP066	ltpFR	6	16	-1	BIRD	129	n/a	-1	1	1.0	1.0	upper	../fonts/Verdana.ttf
2924.866	n/a	WORD	1462433	wordpools/wasnorm_wordpool.txt	LTP066	ltpFR	6	16	-1	COLLEGE	346	n/a	-1	1	1.0	1.0	upper	../fonts/Verdana.ttf
2929.014	n/a	WORD	1464507	wordpools/wasnorm_wordpool.txt	LTP066	ltpFR	6	16	-1	BAKER	71	n/a	-1	1	1.0	1.0	upper	../fonts/Verdana.ttf
2933.208	n/a	WORD	1466604	wordpools/wasnorm_wordpool.txt	LTP066	ltpFR	6	16	-1	FLUTE	585	n/a	-1	1	1.0	1.0	upper	../fonts/Verdana.ttf
2937.136	n/a	WORD	1468568	wordpools/wasnorm_wordpool.txt	LTP066	ltpFR	6	16	-1	ORGAN	984	n/a	-1	1	1.0	1.0	upper	../fonts/Verdana.ttf
2941.172	n/a	WORD	1470586	wordpools/wasnorm_wordpool.txt	LTP066	ltpFR	6	16	-1	HOOD	714	n/a	-1	1	1.0	1.0	upper	../fonts/Verdana.ttf
2945.118	n/a	WORD	1472559	wordpools/wasnorm_wordpool.txt	LTP066	ltpFR	6	16	-1	CHALK	276	n/a	-1	1	1.0	1.0	upper	../fonts/Verdana.ttf
2948.932	n/a	WORD	1474466	wordpools/wasnorm_wordpool.txt	LTP066	ltpFR	6	16	-1	CATERPILLAR	259	n/a	-1	1	1.0	1.0	upper	../fonts/Verdana.ttf
2954.834	n/a	REC_START	1477417	n/a	LTP066	ltpFR	6	16	n/a	n/a	n/a	n/a	n/a	n/a	n/a	n/a	n/a	n/a
2955.816	n/a	REC_WORD	1477908	wordpools/wasnorm_wordpool.txt	LTP066	ltpFR	6	16	-1	PAPER	1011	n/a	-1	n/a	n/a	n/a	n/a	n/a
2957.472	n/a	REC_WORD	1478736	wordpools/wasnorm_wordpool.txt	LTP066	ltpFR	6	16	-1	PAVEMENT	1028	n/a	-1	n/a	n/a	n/a	n/a	n/a
2958.36	n/a	REC_WORD	1479180	wordpools/wasnorm_wordpool.txt	LTP066	ltpFR	6	16	-1	SIDEWALK	1303	n/a	-1	n/a	n/a	n/a	n/a	n/a
2959.36	n/a	REC_WORD_VV	1479680	wordpools/wasnorm_wordpool.txt	LTP066	ltpFR	6	16	n/a	<>	-1	n/a	n/a	n/a	n/a	n/a	n/a	n/a
2962.222	n/a	REC_WORD	1481111	wordpools/wasnorm_wordpool.txt	LTP066	ltpFR	6	16	-1	DOCUMENT	479	n/a	-1	n/a	n/a	n/a	n/a	n/a
2965.294	n/a	REC_WORD	1482647	wordpools/wasnorm_wordpool.txt	LTP066	ltpFR	6	16	-1	DINNER	468	n/a	-1	n/a	n/a	n/a	n/a	n/a
2969.674	n/a	REC_WORD	1484837	wordpools/wasnorm_wordpool.txt	LTP066	ltpFR	6	16	-1	FLUTE	585	n/a	-1	n/a	n/a	n/a	n/a	n/a
2971.162	n/a	REC_WORD	1485581	wordpools/wasnorm_wordpool.txt	LTP066	ltpFR	6	16	-1	ORGAN	984	n/a	-1	n/a	n/a	n/a	n/a	n/a
2974.594	n/a	REC_WORD	1487297	wordpools/wasnorm_wordpool.txt	LTP066	ltpFR	6	16	-1	CHALK	276	n/a	-1	n/a	n/a	n/a	n/a	n/a
2976.798	n/a	REC_WORD	1488399	wordpools/wasnorm_wordpool.txt	LTP066	ltpFR	6	16	-1	CATERPILLAR	259	n/a	-1	n/a	n/a	n/a	n/a	n/a
2978.788	n/a	REC_WORD	1489394	wordpools/wasnorm_wordpool.txt	LTP066	ltpFR	6	16	-1	HOOD	714	n/a	-1	n/a	n/a	n/a	n/a	n/a
2991.226	n/a	REC_WORD	1495613	wordpools/wasnorm_wordpool.txt	LTP066	ltpFR	6	16	-1	GENERAL	630	n/a	-1	n/a	n/a	n/a	n/a	n/a
3049.624	n/a	REC_START	1524812	n/a	LTP066	ltpFR	6	n/a	n/a	n/a	n/a	n/a	n/a	n/a	n/a	n/a	n/a	n/a
3052.702	n/a	FFR_REC_WORD	1526351	wordpools/wasnorm_wordpool.txt	LTP066	ltpFR	6	n/a	-1	LION	827	n/a	-1	n/a	n/a	n/a	n/a	n/a
3053.66	n/a	FFR_REC_WORD	1526830	wordpools/wasnorm_wordpool.txt	LTP066	ltpFR	6	n/a	-1	PREDATOR	1120	n/a	-1	n/a	n/a	n/a	n/a	n/a
3057.25	n/a	FFR_REC_WORD	1528625	wordpools/wasnorm_wordpool.txt	LTP066	ltpFR	6	n/a	-1	PRINCESS	1125	n/a	-1	n/a	n/a	n/a	n/a	n/a
3058.09	n/a	FFR_REC_WORD	1529045	wordpools/wasnorm_wordpool.txt	LTP066	ltpFR	6	n/a	-1	CONDUCTOR	362	n/a	-1	n/a	n/a	n/a	n/a	n/a
3059.436	n/a	FFR_REC_WORD	1529718	wordpools/wasnorm_wordpool.txt	LTP066	ltpFR	6	n/a	-1	COBBLER	335	n/a	-1	n/a	n/a	n/a	n/a	n/a
3060.574	n/a	FFR_REC_WORD	1530287	wordpools/wasnorm_wordpool.txt	LTP066	ltpFR	6	n/a	-1	TOWER	1490	n/a	-1	n/a	n/a	n/a	n/a	n/a
3062.384	n/a	FFR_REC_WORD	1531192	wordpools/wasnorm_wordpool.txt	LTP066	ltpFR	6	n/a	-1	VALVE	1546	n/a	-1	n/a	n/a	n/a	n/a	n/a
3063.446	n/a	FFR_REC_WORD	1531723	wordpools/wasnorm_wordpool.txt	LTP066	ltpFR	6	n/a	0	LEVER	815	n/a	0	n/a	n/a	n/a	n/a	n/a
3065.452	n/a	FFR_REC_WORD	1532726	wordpools/wasnorm_wordpool.txt	LTP066	ltpFR	6	n/a	0	COMET	353	n/a	0	n/a	n/a	n/a	n/a	n/a
3067.478	n/a	FFR_REC_WORD	1533739	wordpools/wasnorm_wordpool.txt	LTP066	ltpFR	6	n/a	-1	FACTORY	548	n/a	-1	n/a	n/a	n/a	n/a	n/a
3075.67	n/a	FFR_REC_WORD	1537835	wordpools/wasnorm_wordpool.txt	LTP066	ltpFR	6	n/a	-1	TUNA	1518	n/a	-1	n/a	n/a	n/a	n/a	n/a
3076.816	n/a	FFR_REC_WORD	1538408	wordpools/wasnorm_wordpool.txt	LTP066	ltpFR	6	n/a	-1	ALLEY	15	n/a	-1	n/a	n/a	n/a	n/a	n/a
3079.232	n/a	FFR_REC_WORD	1539616	wordpools/wasnorm_wordpool.txt	LTP066	ltpFR	6	n/a	-1	GRAVEL	659	n/a	-1	n/a	n/a	n/a	n/a	n/a
3080.02	n/a	FFR_REC_WORD	1540010	wordpools/wasnorm_wordpool.txt	LTP066	ltpFR	6	n/a	-1	PAVEMENT	1028	n/a	-1	n/a	n/a	n/a	n/a	n/a
3080.718	n/a	FFR_REC_WORD	1540359	wordpools/wasnorm_wordpool.txt	LTP066	ltpFR	6	n/a	-1	SIDEWALK	1303	n/a	-1	n/a	n/a	n/a	n/a	n/a
3082.674	n/a	FFR_REC_WORD	1541337	wordpools/wasnorm_wordpool.txt	LTP066	ltpFR	6	n/a	-1	PAPER	1011	n/a	-1	n/a	n/a	n/a	n/a	n/a
3083.392	n/a	FFR_REC_WORD	1541696	wordpools/wasnorm_wordpool.txt	LTP066	ltpFR	6	n/a	-1	DOCUMENT	479	n/a	-1	n/a	n/a	n/a	n/a	n/a
3088.092	n/a	FFR_REC_WORD	1544046	wordpools/wasnorm_wordpool.txt	LTP066	ltpFR	6	n/a	-1	GENERAL	630	n/a	-1	n/a	n/a	n/a	n/a	n/a
3088.822	n/a	FFR_REC_WORD	1544411	wordpools/wasnorm_wordpool.txt	LTP066	ltpFR	6	n/a	-1	DINNER	468	n/a	-1	n/a	n/a	n/a	n/a	n/a
3089.478	n/a	FFR_REC_WORD	1544739	wordpools/wasnorm_wordpool.txt	LTP066	ltpFR	6	n/a	0	DAUGHTER	442	n/a	1	n/a	n/a	n/a	n/a	n/a
3090.616	n/a	FFR_REC_WORD	1545308	wordpools/wasnorm_wordpool.txt	LTP066	ltpFR	6	n/a	0	ELBOW	520	n/a	1	n/a	n/a	n/a	n/a	n/a
3100.074	n/a	FFR_REC_WORD	1550037	wordpools/wasnorm_wordpool.txt	LTP066	ltpFR	6	n/a	-1	FLUTE	585	n/a	-1	n/a	n/a	n/a	n/a	n/a
3101.022	n/a	FFR_REC_WORD	1550511	wordpools/wasnorm_wordpool.txt	LTP066	ltpFR	6	n/a	-1	ORGAN	984	n/a	-1	n/a	n/a	n/a	n/a	n/a
3103.886	n/a	FFR_REC_WORD	1551943	wordpools/wasnorm_wordpool.txt	LTP066	ltpFR	6	n/a	0	PENCIL	1042	n/a	0	n/a	n/a	n/a	n/a	n/a
3104.924	n/a	FFR_REC_WORD	1552462	wordpools/wasnorm_wordpool.txt	LTP066	ltpFR	6	n/a	0	PEN	1041	n/a	0	n/a	n/a	n/a	n/a	n/a
3108.526	n/a	FFR_REC_WORD	1554263	wordpools/wasnorm_wordpool.txt	LTP066	ltpFR	6	n/a	1	POPCORN	1104	n/a	0	n/a	n/a	n/a	n/a	n/a
3109.404	n/a	FFR_REC_WORD	1554702	wordpools/wasnorm_wordpool.txt	LTP066	ltpFR	6	n/a	1	BRAKE	166	n/a	0	n/a	n/a	n/a	n/a	n/a
3111.238	n/a	FFR_REC_WORD	1555619	wordpools/wasnorm_wordpool.txt	LTP066	ltpFR	6	n/a	-1	VEHICLE	1553	n/a	-1	n/a	n/a	n/a	n/a	n/a
3112.246	n/a	FFR_REC_WORD	1556123	wordpools/wasnorm_wordpool.txt	LTP066	ltpFR	6	n/a	-1	TAXI	1438	n/a	-1	n/a	n/a	n/a	n/a	n/a
3115.12	n/a	FFR_REC_WORD	1557560	wordpools/wasnorm_wordpool.txt	LTP066	ltpFR	6	n/a	1	PENGUIN	1044	n/a	1	n/a	n/a	n/a	n/a	n/a
3118.532	n/a	FFR_REC_WORD	1559266	wordpools/wasnorm_wordpool.txt	LTP066	ltpFR	6	n/a	1	QUAIL	1147	n/a	1	n/a	n/a	n/a	n/a	n/a
3119.7	n/a	FFR_REC_WORD	1559850	wordpools/wasnorm_wordpool.txt	LTP066	ltpFR	6	n/a	-1	CATERPILLAR	259	n/a	-1	n/a	n/a	n/a	n/a	n/a
3121.994	n/a	FFR_REC_WORD	1560997	wordpools/wasnorm_wordpool.txt	LTP066	ltpFR	6	n/a	1	AIRPLANE	12	n/a	0	n/a	n/a	n/a	n/a	n/a
3122.574	n/a	FFR_REC_WORD	1561287	wordpools/wasnorm_wordpool.txt	LTP066	ltpFR	6	n/a	1	HELICOPTER	701	n/a	0	n/a	n/a	n/a	n/a	n/a
3125.616	n/a	FFR_REC_WORD	1562808	wordpools/wasnorm_wordpool.txt	LTP066	ltpFR	6	n/a	1	PUMP	1141	n/a	0	n/a	n/a	n/a	n/a	n/a
3127.982	n/a	FFR_REC_WORD	1563991	wordpools/wasnorm_wordpool.txt	LTP066	ltpFR	6	n/a	1	LIZARD	834	n/a	1	n/a	n/a	n/a	n/a	n/a
3130.686	n/a	FFR_REC_WORD	1565343	wordpools/wasnorm_wordpool.txt	LTP066	ltpFR	6	n/a	n/a	RAFT	1159	n/a	n/a	n/a	n/a	n/a	n/a	n/a
3132.262	n/a	FFR_REC_WORD	1566131	wordpools/wasnorm_wordpool.txt	LTP066	ltpFR	6	n/a	1	INSTRUCTOR	741	n/a	1	n/a	n/a	n/a	n/a	n/a
3147.148	n/a	FFR_REC_WORD	1573574	wordpools/wasnorm_wordpool.txt	LTP066	ltpFR	6	n/a	0	TOE	1473	n/a	0	n/a	n/a	n/a	n/a	n/a
3147.756	n/a	FFR_REC_WORD	1573878	wordpools/wasnorm_wordpool.txt	LTP066	ltpFR	6	n/a	1	STOMACH	1384	n/a	0	n/a	n/a	n/a	n/a	n/a
3148.854	n/a	FFR_REC_WORD	1574427	wordpools/wasnorm_wordpool.txt	LTP066	ltpFR	6	n/a	0	LIVER	833	n/a	0	n/a	n/a	n/a	n/a	n/a
3151.198	n/a	FFR_REC_WORD	1575599	wordpools/wasnorm_wordpool.txt	LTP066	ltpFR	6	n/a	0	GIRAFFE	636	n/a	1	n/a	n/a	n/a	n/a	n/a
3152.156	n/a	FFR_REC_WORD	1576078	wordpools/wasnorm_wordpool.txt	LTP066	ltpFR	6	n/a	0	APRON	35	n/a	0	n/a	n/a	n/a	n/a	n/a
3155.38	n/a	FFR_REC_WORD	1577690	wordpools/wasnorm_wordpool.txt	LTP066	ltpFR	6	n/a	0	PENCIL	1042	n/a	0	n/a	n/a	n/a	n/a	n/a
3155.954	n/a	FFR_REC_WORD	1577977	wordpools/wasnorm_wordpool.txt	LTP066	ltpFR	6	n/a	0	CHIMPANZEE	302	n/a	1	n/a	n/a	n/a	n/a	n/a
3156.886	n/a	FFR_REC_WORD	1578443	wordpools/wasnorm_wordpool.txt	LTP066	ltpFR	6	n/a	1	ATTIC	56	n/a	0	n/a	n/a	n/a	n/a	n/a
3166.494	n/a	FFR_REC_WORD	1583247	wordpools/wasnorm_wordpool.txt	LTP066	ltpFR	6	n/a	1	SEASHORE	1263	n/a	0	n/a	n/a	n/a	n/a	n/a
3167.702	n/a	FFR_REC_WORD	1583851	wordpools/wasnorm_wordpool.txt	LTP066	ltpFR	6	n/a	1	CLAM	315	n/a	1	n/a	n/a	n/a	n/a	n/a
3173.992	n/a	FFR_REC_WORD	1586996	wordpools/wasnorm_wordpool.txt	LTP066	ltpFR	6	n/a	1	ONION	977	n/a	0	n/a	n/a	n/a	n/a	n/a
3175.534	n/a	FFR_REC_WORD	1587767	wordpools/wasnorm_wordpool.txt	LTP066	ltpFR	6	n/a	1	TULIP	1517	n/a	1	n/a	n/a	n/a	n/a	n/a
3176.502	n/a	FFR_REC_WORD	1588251	wordpools/wasnorm_wordpool.txt	LTP066	ltpFR	6	n/a	0	ORCHID	982	n/a	2	n/a	n/a	n/a	n/a	n/a
3182.418	n/a	FFR_REC_WORD	1591209	wordpools/wasnorm_wordpool.txt	LTP066	ltpFR	6	n/a	0	DILL	465	n/a	0	n/a	n/a	n/a	n/a	n/a
3187.168	n/a	FFR_REC_WORD	1593584	wordpools/wasnorm_wordpool.txt	LTP066	ltpFR	6	n/a	0	MEDAL	885	n/a	0	n/a	n/a	n/a	n/a	n/a
3188.176	n/a	FFR_REC_WORD	1594088	wordpools/wasnorm_wordpool.txt	LTP066	ltpFR	6	n/a	0	GOLD	647	n/a	1	n/a	n/a	n/a	n/a	n/a
3203.74	n/a	FFR_REC_WORD	1601870	wordpools/wasnorm_wordpool.txt	LTP066	ltpFR	6	n/a	1	COMMUNITY	356	n/a	0	n/a	n/a	n/a	n/a	n/a
3205.166	n/a	FFR_REC_WORD	1602583	wordpools/wasnorm_wordpool.txt	LTP066	ltpFR	6	n/a	1	COMMITTEE	355	n/a	1	n/a	n/a	n/a	n/a	n/a
3205.966	n/a	FFR_REC_WORD	1602983	wordpools/wasnorm_wordpool.txt	LTP066	ltpFR	6	n/a	1	AUDIENCE	59	n/a	1	n/a	n/a	n/a	n/a	n/a
3210.076	n/a	FFR_REC_WORD	1605038	wordpools/wasnorm_wordpool.txt	LTP066	ltpFR	6	n/a	1	LEADER	807	n/a	1	n/a	n/a	n/a	n/a	n/a
3230.68	n/a	FFR_REC_WORD	1615340	wordpools/wasnorm_wordpool.txt	LTP066	ltpFR	6	n/a	0	PARCEL	1012	n/a	1	n/a	n/a	n/a	n/a	n/a
3234.542	n/a	FFR_REC_WORD	1617271	wordpools/wasnorm_wordpool.txt	LTP066	ltpFR	6	n/a	0	OVAL	990	n/a	0	n/a	n/a	n/a	n/a	n/a
3235.15	n/a	FFR_REC_WORD	1617575	wordpools/wasnorm_wordpool.txt	LTP066	ltpFR	6	n/a	1	FRAME	600	n/a	0	n/a	n/a	n/a	n/a	n/a
3239.57	n/a	FFR_REC_WORD	1619785	wordpools/wasnorm_wordpool.txt	LTP066	ltpFR	6	n/a	0	UNIVERSE	1540	n/a	1	n/a	n/a	n/a	n/a	n/a
3240.408	n/a	FFR_REC_WORD	1620204	wordpools/wasnorm_wordpool.txt	LTP066	ltpFR	6	n/a	0	GALAXY	617	n/a	1	n/a	n/a	n/a	n/a	n/a
3248.56	n/a	FFR_REC_WORD	1624280	wordpools/wasnorm_wordpool.txt	LTP066	ltpFR	6	n/a	0	PIN	1072	n/a	0	n/a	n/a	n/a	n/a	n/a
3276.296	n/a	FFR_REC_WORD	1638148	wordpools/wasnorm_wordpool.txt	LTP066	ltpFR	6	n/a	0	WHALE	1601	n/a	1	n/a	n/a	n/a	n/a	n/a
3288.938	n/a	FFR_REC_WORD	1644469	wordpools/wasnorm_wordpool.txt	LTP066	ltpFR	6	n/a	0	CUPBOARD	425	n/a	1	n/a	n/a	n/a	n/a	n/a
3307.406	n/a	FFR_REC_WORD	1653703	wordpools/wasnorm_wordpool.txt	LTP066	ltpFR	6	n/a	-1	CABIN	211	n/a	-1	n/a	n/a	n/a	n/a	n/a
3308.754	n/a	FFR_REC_WORD	1654377	wordpools/wasnorm_wordpool.txt	LTP066	ltpFR	6	n/a	n/a	REINDEER	1181	n/a	n/a	n/a	n/a	n/a	n/a	n/a
3310.1	n/a	FFR_REC_WORD	1655050	wordpools/wasnorm_wordpool.txt	LTP066	ltpFR	6	n/a	-1	GAZELLE	628	n/a	-1	n/a	n/a	n/a	n/a	n/a
3311.736	n/a	FFR_REC_WORD	1655868	wordpools/wasnorm_wordpool.txt	LTP066	ltpFR	6	n/a	n/a	ANTLERS	-1	n/a	n/a	n/a	n/a	n/a	n/a	n/a
3338.716	n/a	FFR_REC_WORD	1669358	wordpools/wasnorm_wordpool.txt	LTP066	ltpFR	6	n/a	1	MAGICIAN	854	n/a	1	n/a	n/a	n/a	n/a	n/a
3339.504	n/a	FFR_REC_WORD	1669752	wordpools/wasnorm_wordpool.txt	LTP066	ltpFR	6	n/a	1	HAT	690	n/a	0	n/a	n/a	n/a	n/a	n/a
3348.902	n/a	FFR_REC_WORD	1674451	wordpools/wasnorm_wordpool.txt	LTP066	ltpFR	6	n/a	-1	SHOELACE	1289	n/a	-1	n/a	n/a	n/a	n/a	n/a
3368.796	n/a	REC_START	1684398	n/a	LTP066	ltpFR	6	1	n/a	n/a	n/a	n/a	n/a	n/a	n/a	n/a	n/a	n/a
3368.828	n/a	RECOG_TARGET	1684414	n/a	LTP066	ltpFR	6	1	0	PREACHER	1119	5	1	n/a	n/a	n/a	n/a	n/a
3371.704	n/a	RECOG_RESP	1685852	n/a	LTP066	ltpFR	6	1	0	PREACHER	1119	n/a	1	n/a	n/a	n/a	n/a	n/a
3373.082	n/a	RECOG_CONF	1686541	n/a	LTP066	ltpFR	6	1	0	PREACHER	1119	5	1	n/a	n/a	n/a	n/a	n/a
3374.78	n/a	RECOG_TARGET	1687390	n/a	LTP066	ltpFR	6	1	1	MONKEY	911	4	1	n/a	n/a	n/a	n/a	n/a
3375.446	n/a	RECOG_RESP	1687723	n/a	LTP066	ltpFR	6	1	1	MONKEY	911	n/a	1	n/a	n/a	n/a	n/a	n/a
3376.384	n/a	RECOG_CONF	1688192	n/a	LTP066	ltpFR	6	1	1	MONKEY	911	4	1	n/a	n/a	n/a	n/a	n/a
3377.868	n/a	RECOG_TARGET	1688934	n/a	LTP066	ltpFR	6	1	-1	CLERK	321	4	-1	n/a	n/a	n/a	n/a	n/a
3378.798	n/a	RECOG_RESP	1689399	n/a	LTP066	ltpFR	6	1	-1	CLERK	321	n/a	-1	n/a	n/a	n/a	n/a	n/a
3379.478	n/a	RECOG_CONF	1689739	n/a	LTP066	ltpFR	6	1	-1	CLERK	321	4	-1	n/a	n/a	n/a	n/a	n/a
3381.056	n/a	RECOG_TARGET	1690528	n/a	LTP066	ltpFR	6	1	0	COSTUME	383	5	1	n/a	n/a	n/a	n/a	n/a
3382.042	n/a	RECOG_RESP	1691021	n/a	LTP066	ltpFR	6	1	0	COSTUME	383	n/a	1	n/a	n/a	n/a	n/a	n/a
3382.576	n/a	RECOG_CONF	1691288	n/a	LTP066	ltpFR	6	1	0	COSTUME	383	5	1	n/a	n/a	n/a	n/a	n/a
3384.454	n/a	RECOG_LURE	1692227	n/a	LTP066	ltpFR	6	1	n/a	PARSLEY	1016	4	n/a	n/a	n/a	n/a	n/a	n/a
3385.474	n/a	RECOG_RESP	1692737	n/a	LTP066	ltpFR	6	1	n/a	PARSLEY	1016	n/a	n/a	n/a	n/a	n/a	n/a	n/a
3386.322	n/a	RECOG_CONF	1693161	n/a	LTP066	ltpFR	6	1	n/a	PARSLEY	1016	4	n/a	n/a	n/a	n/a	n/a	n/a
3387.908	n/a	RECOG_TARGET	1693954	n/a	LTP066	ltpFR	6	1	1	GRATE	657	4	0	n/a	n/a	n/a	n/a	n/a
3389.002	n/a	RECOG_RESP	1694501	n/a	LTP066	ltpFR	6	1	1	GRATE	657	n/a	0	n/a	n/a	n/a	n/a	n/a
3389.804	n/a	RECOG_CONF	1694902	n/a	LTP066	ltpFR	6	1	1	GRATE	657	4	0	n/a	n/a	n/a	n/a	n/a
3391.12	n/a	RECOG_TARGET	1695560	n/a	LTP066	ltpFR	6	1	-1	THUMB	1462	4	-1	n/a	n/a	n/a	n/a	n/a
3392.558	n/a	RECOG_RESP	1696279	n/a	LTP066	ltpFR	6	1	-1	THUMB	1462	n/a	-1	n/a	n/a	n/a	n/a	n/a
3393.416	n/a	RECOG_CONF	1696708	n/a	LTP066	ltpFR	6	1	-1	THUMB	1462	4	-1	n/a	n/a	n/a	n/a	n/a
3394.882	n/a	RECOG_TARGET	1697441	n/a	LTP066	ltpFR	6	1	0	VEST	1559	5	1	n/a	n/a	n/a	n/a	n/a
3395.77	n/a	RECOG_RESP	1697885	n/a	LTP066	ltpFR	6	1	0	VEST	1559	n/a	1	n/a	n/a	n/a	n/a	n/a
3396.45	n/a	RECOG_CONF	1698225	n/a	LTP066	ltpFR	6	1	0	VEST	1559	5	1	n/a	n/a	n/a	n/a	n/a
3398.144	n/a	RECOG_TARGET	1699072	n/a	LTP066	ltpFR	6	1	1	GUEST	669	4	1	n/a	n/a	n/a	n/a	n/a
3399.004	n/a	RECOG_RESP	1699502	n/a	LTP066	ltpFR	6	1	1	GUEST	669	n/a	1	n/a	n/a	n/a	n/a	n/a
3399.742	n/a	RECOG_CONF	1699871	n/a	LTP066	ltpFR	6	1	1	GUEST	669	4	1	n/a	n/a	n/a	n/a	n/a
3401.042	n/a	RECOG_TARGET	1700521	n/a	LTP066	ltpFR	6	1	0	PEN	1041	5	0	n/a	n/a	n/a	n/a	n/a
3401.772	n/a	RECOG_RESP	1700886	n/a	LTP066	ltpFR	6	1	0	PEN	1041	n/a	0	n/a	n/a	n/a	n/a	n/a
3402.242	n/a	RECOG_CONF	1701121	n/a	LTP066	ltpFR	6	1	0	PEN	1041	5	0	n/a	n/a	n/a	n/a	n/a
3403.764	n/a	RECOG_LURE	1701882	n/a	LTP066	ltpFR	6	1	n/a	WASP	1593	5	n/a	n/a	n/a	n/a	n/a	n/a
3404.886	n/a	RECOG_RESP	1702443	n/a	LTP066	ltpFR	6	1	n/a	WASP	1593	n/a	n/a	n/a	n/a	n/a	n/a	n/a
3405.35	n/a	RECOG_CONF	1702675	n/a	LTP066	ltpFR	6	1	n/a	WASP	1593	5	n/a	n/a	n/a	n/a	n/a	n/a
3406.794	n/a	RECOG_TARGET	1703397	n/a	LTP066	ltpFR	6	1	1	SCIENTIST	1249	5	1	n/a	n/a	n/a	n/a	n/a
3407.684	n/a	RECOG_RESP	1703842	n/a	LTP066	ltpFR	6	1	1	SCIENTIST	1249	n/a	1	n/a	n/a	n/a	n/a	n/a
3408.452	n/a	RECOG_CONF	1704226	n/a	LTP066	ltpFR	6	1	1	SCIENTIST	1249	5	1	n/a	n/a	n/a	n/a	n/a
3409.882	n/a	RECOG_TARGET	1704941	n/a	LTP066	ltpFR	6	1	1	REFRIGERATOR	1179	5	0	n/a	n/a	n/a	n/a	n/a
3410.678	n/a	RECOG_RESP	1705339	n/a	LTP066	ltpFR	6	1	1	REFRIGERATOR	1179	n/a	0	n/a	n/a	n/a	n/a	n/a
3411.296	n/a	RECOG_CONF	1705648	n/a	LTP066	ltpFR	6	1	1	REFRIGERATOR	1179	5	0	n/a	n/a	n/a	n/a	n/a
3412.762	n/a	RECOG_LURE	1706381	n/a	LTP066	ltpFR	6	1	n/a	DOOR	486	5	n/a	n/a	n/a	n/a	n/a	n/a
3413.67	n/a	RECOG_RESP	1706835	n/a	LTP066	ltpFR	6	1	n/a	DOOR	486	n/a	n/a	n/a	n/a	n/a	n/a	n/a
3414.488	n/a	RECOG_CONF	1707244	n/a	LTP066	ltpFR	6	1	n/a	DOOR	486	5	n/a	n/a	n/a	n/a	n/a	n/a
3415.992	n/a	RECOG_TARGET	1707996	n/a	LTP066	ltpFR	6	1	0	GOLD	647	5	1	n/a	n/a	n/a	n/a	n/a
3416.624	n/a	RECOG_RESP	1708312	n/a	LTP066	ltpFR	6	1	0	GOLD	647	n/a	1	n/a	n/a	n/a	n/a	n/a
3417.402	n/a	RECOG_CONF	1708701	n/a	LTP066	ltpFR	6	1	0	GOLD	647	5	1	n/a	n/a	n/a	n/a	n/a
3418.922	n/a	RECOG_TARGET	1709461	n/a	LTP066	ltpFR	6	1	1	MARINE	869	5	3	n/a	n/a	n/a	n/a	n/a
3419.726	n/a	RECOG_RESP	1709863	n/a	LTP066	ltpFR	6	1	1	MARINE	869	n/a	3	n/a	n/a	n/a	n/a	n/a
3420.454	n/a	RECOG_CONF	1710227	n/a	LTP066	ltpFR	6	1	1	MARINE	869	5	3	n/a	n/a	n/a	n/a	n/a
3422.042	n/a	RECOG_TARGET	1711021	n/a	LTP066	ltpFR	6	1	0	WRIST	1626	5	0	n/a	n/a	n/a	n/a	n/a
3422.784	n/a	RECOG_RESP	1711392	n/a	LTP066	ltpFR	6	1	0	WRIST	1626	n/a	0	n/a	n/a	n/a	n/a	n/a
3423.588	n/a	RECOG_CONF	1711794	n/a	LTP066	ltpFR	6	1	0	WRIST	1626	5	0	n/a	n/a	n/a	n/a	n/a
3425.18	n/a	RECOG_LURE	1712590	n/a	LTP066	ltpFR	6	1	n/a	BACON	67	4	n/a	n/a	n/a	n/a	n/a	n/a
3426.042	n/a	RECOG_RESP	1713021	n/a	LTP066	ltpFR	6	1	n/a	BACON	67	n/a	n/a	n/a	n/a	n/a	n/a	n/a
3426.84	n/a	RECOG_CONF	1713420	n/a	LTP066	ltpFR	6	1	n/a	BACON	67	4	n/a	n/a	n/a	n/a	n/a	n/a
3428.292	n/a	RECOG_LURE	1714146	n/a	LTP066	ltpFR	6	1	n/a	KNAPSACK	783	5	n/a	n/a	n/a	n/a	n/a	n/a
3429.046	n/a	RECOG_RESP	1714523	n/a	LTP066	ltpFR	6	1	n/a	KNAPSACK	783	n/a	n/a	n/a	n/a	n/a	n/a	n/a
3429.844	n/a	RECOG_CONF	1714922	n/a	LTP066	ltpFR	6	1	n/a	KNAPSACK	783	5	n/a	n/a	n/a	n/a	n/a	n/a
3431.29	n/a	RECOG_TARGET	1715645	n/a	LTP066	ltpFR	6	1	0	PRODUCER	1129	3	1	n/a	n/a	n/a	n/a	n/a
3433.606	n/a	RECOG_RESP	1716803	n/a	LTP066	ltpFR	6	1	0	PRODUCER	1129	n/a	1	n/a	n/a	n/a	n/a	n/a
3434.464	n/a	RECOG_CONF	1717232	n/a	LTP066	ltpFR	6	1	0	PRODUCER	1129	3	1	n/a	n/a	n/a	n/a	n/a
3438.782	n/a	REC_START	1719391	n/a	LTP066	ltpFR	6	2	n/a	n/a	n/a	n/a	n/a	n/a	n/a	n/a	n/a	n/a
3438.814	n/a	RECOG_TARGET	1719407	n/a	LTP066	ltpFR	6	2	1	BASSINET	97	5	0	n/a	n/a	n/a	n/a	n/a
3439.756	n/a	RECOG_RESP	1719878	n/a	LTP066	ltpFR	6	2	1	BASSINET	97	n/a	0	n/a	n/a	n/a	n/a	n/a
3440.486	n/a	RECOG_CONF	1720243	n/a	LTP066	ltpFR	6	2	1	BASSINET	97	5	0	n/a	n/a	n/a	n/a	n/a
3441.978	n/a	RECOG_TARGET	1720989	n/a	LTP066	ltpFR	6	2	1	CLAM	315	5	1	n/a	n/a	n/a	n/a	n/a
3442.618	n/a	RECOG_RESP	1721309	n/a	LTP066	ltpFR	6	2	1	CLAM	315	n/a	1	n/a	n/a	n/a	n/a	n/a
3443.228	n/a	RECOG_CONF	1721614	n/a	LTP066	ltpFR	6	2	1	CLAM	315	5	1	n/a	n/a	n/a	n/a	n/a
3444.45	n/a	RECOG_TARGET	1722225	n/a	LTP066	ltpFR	6	2	1	SCREEN	1253	5	0	n/a	n/a	n/a	n/a	n/a
3445.262	n/a	RECOG_RESP	1722631	n/a	LTP066	ltpFR	6	2	1	SCREEN	1253	n/a	0	n/a	n/a	n/a	n/a	n/a
3446.01	n/a	RECOG_CONF	1723005	n/a	LTP066	ltpFR	6	2	1	SCREEN	1253	5	0	n/a	n/a	n/a	n/a	n/a
3447.538	n/a	RECOG_TARGET	1723769	n/a	LTP066	ltpFR	6	2	1	ROOST	1208	5	0	n/a	n/a	n/a	n/a	n/a
3448.196	n/a	RECOG_RESP	1724098	n/a	LTP066	ltpFR	6	2	1	ROOST	1208	n/a	0	n/a	n/a	n/a	n/a	n/a
3448.834	n/a	RECOG_CONF	1724417	n/a	LTP066	ltpFR	6	2	1	ROOST	1208	5	0	n/a	n/a	n/a	n/a	n/a
3450.366	n/a	RECOG_TARGET	1725183	n/a	LTP066	ltpFR	6	2	0	TWEEZERS	1526	5	0	n/a	n/a	n/a	n/a	n/a
3451.748	n/a	RECOG_RESP	1725874	n/a	LTP066	ltpFR	6	2	0	TWEEZERS	1526	n/a	0	n/a	n/a	n/a	n/a	n/a
3452.546	n/a	RECOG_CONF	1726273	n/a	LTP066	ltpFR	6	2	0	TWEEZERS	1526	5	0	n/a	n/a	n/a	n/a	n/a
3453.948	n/a	RECOG_TARGET	1726974	n/a	LTP066	ltpFR	6	2	1	NOOSE	956	5	0	n/a	n/a	n/a	n/a	n/a
3454.97	n/a	RECOG_RESP	1727485	n/a	LTP066	ltpFR	6	2	1	NOOSE	956	n/a	0	n/a	n/a	n/a	n/a	n/a
3455.81	n/a	RECOG_CONF	1727905	n/a	LTP066	ltpFR	6	2	1	NOOSE	956	5	0	n/a	n/a	n/a	n/a	n/a
3457.392	n/a	RECOG_TARGET	1728696	n/a	LTP066	ltpFR	6	2	1	POPCORN	1104	5	0	n/a	n/a	n/a	n/a	n/a
3458.154	n/a	RECOG_RESP	1729077	n/a	LTP066	ltpFR	6	2	1	POPCORN	1104	n/a	0	n/a	n/a	n/a	n/a	n/a
3458.792	n/a	RECOG_CONF	1729396	n/a	LTP066	ltpFR	6	2	1	POPCORN	1104	5	0	n/a	n/a	n/a	n/a	n/a
3460.164	n/a	RECOG_TARGET	1730082	n/a	LTP066	ltpFR	6	2	0	TOOTH	1481	5	0	n/a	n/a	n/a	n/a	n/a
3461.258	n/a	RECOG_RESP	1730629	n/a	LTP066	ltpFR	6	2	0	TOOTH	1481	n/a	0	n/a	n/a	n/a	n/a	n/a
3462.076	n/a	RECOG_CONF	1731038	n/a	LTP066	ltpFR	6	2	0	TOOTH	1481	5	0	n/a	n/a	n/a	n/a	n/a
3463.402	n/a	RECOG_TARGET	1731701	n/a	LTP066	ltpFR	6	2	1	CYLINDER	432	5	0	n/a	n/a	n/a	n/a	n/a
3464.16	n/a	RECOG_RESP	1732080	n/a	LTP066	ltpFR	6	2	1	CYLINDER	432	n/a	0	n/a	n/a	n/a	n/a	n/a
3464.948	n/a	RECOG_CONF	1732474	n/a	LTP066	ltpFR	6	2	1	CYLINDER	432	5	0	n/a	n/a	n/a	n/a	n/a
3466.382	n/a	RECOG_TARGET	1733191	n/a	LTP066	ltpFR	6	2	0	GRASS	655	5	1	n/a	n/a	n/a	n/a	n/a
3467.004	n/a	RECOG_RESP	1733502	n/a	LTP066	ltpFR	6	2	0	GRASS	655	n/a	1	n/a	n/a	n/a	n/a	n/a
3467.702	n/a	RECOG_CONF	1733851	n/a	LTP066	ltpFR	6	2	0	GRASS	655	5	1	n/a	n/a	n/a	n/a	n/a
3468.848	n/a	RECOG_LURE	1734424	n/a	LTP066	ltpFR	6	2	n/a	STADIUM	1364	5	n/a	n/a	n/a	n/a	n/a	n/a
3469.718	n/a	RECOG_RESP	1734859	n/a	LTP066	ltpFR	6	2	n/a	STADIUM	1364	n/a	n/a	n/a	n/a	n/a	n/a	n/a
3470.436	n/a	RECOG_CONF	1735218	n/a	LTP066	ltpFR	6	2	n/a	STADIUM	1364	5	n/a	n/a	n/a	n/a	n/a	n/a
3471.902	n/a	RECOG_TARGET	1735951	n/a	LTP066	ltpFR	6	2	0	PIN	1072	5	0	n/a	n/a	n/a	n/a	n/a
3472.602	n/a	RECOG_RESP	1736301	n/a	LTP066	ltpFR	6	2	0	PIN	1072	n/a	0	n/a	n/a	n/a	n/a	n/a
3473.37	n/a	RECOG_CONF	1736685	n/a	LTP066	ltpFR	6	2	0	PIN	1072	5	0	n/a	n/a	n/a	n/a	n/a
3474.906	n/a	RECOG_LURE	1737453	n/a	LTP066	ltpFR	6	2	n/a	VISITOR	1573	3	n/a	n/a	n/a	n/a	n/a	n/a
3477.52	n/a	RECOG_RESP_VV	1738760	n/a	LTP066	ltpFR	6	2	n/a	VISITOR	1573	n/a	n/a	n/a	n/a	n/a	n/a	n/a
3478.468	n/a	RECOG_RESP	1739234	n/a	LTP066	ltpFR	6	2	n/a	VISITOR	1573	n/a	n/a	n/a	n/a	n/a	n/a	n/a
3479.386	n/a	RECOG_CONF	1739693	n/a	LTP066	ltpFR	6	2	n/a	VISITOR	1573	3	n/a	n/a	n/a	n/a	n/a	n/a
3480.966	n/a	RECOG_TARGET	1740483	n/a	LTP066	ltpFR	6	2	-1	DEER	444	5	-1	n/a	n/a	n/a	n/a	n/a
3481.64	n/a	RECOG_RESP	1740820	n/a	LTP066	ltpFR	6	2	-1	DEER	444	n/a	-1	n/a	n/a	n/a	n/a	n/a
3482.42	n/a	RECOG_CONF	1741210	n/a	LTP066	ltpFR	6	2	-1	DEER	444	5	-1	n/a	n/a	n/a	n/a	n/a
3483.904	n/a	RECOG_LURE	1741952	n/a	LTP066	ltpFR	6	2	n/a	LOBBY	836	5	n/a	n/a	n/a	n/a	n/a	n/a
3484.724	n/a	RECOG_RESP	1742362	n/a	LTP066	ltpFR	6	2	n/a	LOBBY	836	n/a	n/a	n/a	n/a	n/a	n/a	n/a
3485.502	n/a	RECOG_CONF	1742751	n/a	LTP066	ltpFR	6	2	n/a	LOBBY	836	5	n/a	n/a	n/a	n/a	n/a	n/a
3486.892	n/a	RECOG_TARGET	1743446	n/a	LTP066	ltpFR	6	2	-1	TUNA	1518	5	-1	n/a	n/a	n/a	n/a	n/a
3487.528	n/a	RECOG_RESP	1743764	n/a	LTP066	ltpFR	6	2	-1	TUNA	1518	n/a	-1	n/a	n/a	n/a	n/a	n/a
3488.206	n/a	RECOG_CONF	1744103	n/a	LTP066	ltpFR	6	2	-1	TUNA	1518	5	-1	n/a	n/a	n/a	n/a	n/a
3489.664	n/a	RECOG_TARGET	1744832	n/a	LTP066	ltpFR	6	2	-1	TOWER	1490	5	-1	n/a	n/a	n/a	n/a	n/a
3490.322	n/a	RECOG_RESP	1745161	n/a	LTP066	ltpFR	6	2	-1	TOWER	1490	n/a	-1	n/a	n/a	n/a	n/a	n/a
3491.05	n/a	RECOG_CONF	1745525	n/a	LTP066	ltpFR	6	2	-1	TOWER	1490	5	-1	n/a	n/a	n/a	n/a	n/a
3492.47	n/a	RECOG_TARGET	1746235	n/a	LTP066	ltpFR	6	2	0	CEMETERY	269	5	1	n/a	n/a	n/a	n/a	n/a
3493.104	n/a	RECOG_RESP	1746552	n/a	LTP066	ltpFR	6	2	0	CEMETERY	269	n/a	1	n/a	n/a	n/a	n/a	n/a
3493.814	n/a	RECOG_CONF	1746907	n/a	LTP066	ltpFR	6	2	0	CEMETERY	269	5	1	n/a	n/a	n/a	n/a	n/a
3495.316	n/a	RECOG_TARGET	1747658	n/a	LTP066	ltpFR	6	2	1	MALL	860	4	0	n/a	n/a	n/a	n/a	n/a
3495.988	n/a	RECOG_RESP	1747994	n/a	LTP066	ltpFR	6	2	1	MALL	860	n/a	0	n/a	n/a	n/a	n/a	n/a
3496.796	n/a	RECOG_CONF	1748398	n/a	LTP066	ltpFR	6	2	1	MALL	860	4	0	n/a	n/a	n/a	n/a	n/a
3498.196	n/a	RECOG_LURE	1749098	n/a	LTP066	ltpFR	6	2	n/a	CHAMBER	277	3	n/a	n/a	n/a	n/a	n/a	n/a
3500.308	n/a	RECOG_RESP	1750154	n/a	LTP066	ltpFR	6	2	n/a	CHAMBER	277	n/a	n/a	n/a	n/a	n/a	n/a	n/a
3501.006	n/a	RECOG_CONF	1750503	n/a	LTP066	ltpFR	6	2	n/a	CHAMBER	277	3	n/a	n/a	n/a	n/a	n/a	n/a
3505.092	n/a	REC_START	1752546	n/a	LTP066	ltpFR	6	3	n/a	n/a	n/a	n/a	n/a	n/a	n/a	n/a	n/a	n/a
3505.12	n/a	RECOG_TARGET	1752560	n/a	LTP066	ltpFR	6	3	-1	UTENSIL	1542	5	-1	n/a	n/a	n/a	n/a	n/a
3505.924	n/a	RECOG_RESP	1752962	n/a	LTP066	ltpFR	6	3	-1	UTENSIL	1542	n/a	-1	n/a	n/a	n/a	n/a	n/a
3506.492	n/a	RECOG_CONF	1753246	n/a	LTP066	ltpFR	6	3	-1	UTENSIL	1542	5	-1	n/a	n/a	n/a	n/a	n/a
3507.984	n/a	RECOG_TARGET	1753992	n/a	LTP066	ltpFR	6	3	1	STORE	1387	4	0	n/a	n/a	n/a	n/a	n/a
3509.316	n/a	RECOG_RESP	1754658	n/a	LTP066	ltpFR	6	3	1	STORE	1387	n/a	0	n/a	n/a	n/a	n/a	n/a
3510.174	n/a	RECOG_CONF	1755087	n/a	LTP066	ltpFR	6	3	1	STORE	1387	4	0	n/a	n/a	n/a	n/a	n/a
3511.656	n/a	RECOG_LURE	1755828	n/a	LTP066	ltpFR	6	3	n/a	LASER	801	4	n/a	n/a	n/a	n/a	n/a	n/a
3512.56	n/a	RECOG_RESP	1756280	n/a	LTP066	ltpFR	6	3	n/a	LASER	801	n/a	n/a	n/a	n/a	n/a	n/a	n/a
3513.328	n/a	RECOG_CONF	1756664	n/a	LTP066	ltpFR	6	3	n/a	LASER	801	4	n/a	n/a	n/a	n/a	n/a	n/a
3514.694	n/a	RECOG_TARGET	1757347	n/a	LTP066	ltpFR	6	3	-1	RIB	1188	5	-1	n/a	n/a	n/a	n/a	n/a
3515.342	n/a	RECOG_RESP	1757671	n/a	LTP066	ltpFR	6	3	-1	RIB	1188	n/a	-1	n/a	n/a	n/a	n/a	n/a
3516.052	n/a	RECOG_CONF	1758026	n/a	LTP066	ltpFR	6	3	-1	RIB	1188	5	-1	n/a	n/a	n/a	n/a	n/a
3517.524	n/a	RECOG_TARGET	1758762	n/a	LTP066	ltpFR	6	3	-1	SIDEWALK	1303	5	-1	n/a	n/a	n/a	n/a	n/a
3518.066	n/a	RECOG_RESP	1759033	n/a	LTP066	ltpFR	6	3	-1	SIDEWALK	1303	n/a	-1	n/a	n/a	n/a	n/a	n/a
3518.766	n/a	RECOG_CONF	1759383	n/a	LTP066	ltpFR	6	3	-1	SIDEWALK	1303	5	-1	n/a	n/a	n/a	n/a	n/a
3520.086	n/a	RECOG_TARGET	1760043	n/a	LTP066	ltpFR	6	3	1	CHILD	299	3	1	n/a	n/a	n/a	n/a	n/a
3521.49	n/a	RECOG_RESP	1760745	n/a	LTP066	ltpFR	6	3	1	CHILD	299	n/a	1	n/a	n/a	n/a	n/a	n/a
3522.298	n/a	RECOG_CONF	1761149	n/a	LTP066	ltpFR	6	3	1	CHILD	299	3	1	n/a	n/a	n/a	n/a	n/a
3523.832	n/a	RECOG_LURE	1761916	n/a	LTP066	ltpFR	6	3	n/a	MUG	930	3	n/a	n/a	n/a	n/a	n/a	n/a
3524.552	n/a	RECOG_RESP	1762276	n/a	LTP066	ltpFR	6	3	n/a	MUG	930	n/a	n/a	n/a	n/a	n/a	n/a	n/a
3525.37	n/a	RECOG_CONF	1762685	n/a	LTP066	ltpFR	6	3	n/a	MUG	930	3	n/a	n/a	n/a	n/a	n/a	n/a
3526.804	n/a	RECOG_TARGET	1763402	n/a	LTP066	ltpFR	6	3	0	DILL	465	5	0	n/a	n/a	n/a	n/a	n/a
3527.446	n/a	RECOG_RESP	1763723	n/a	LTP066	ltpFR	6	3	0	DILL	465	n/a	0	n/a	n/a	n/a	n/a	n/a
3528.012	n/a	RECOG_CONF	1764006	n/a	LTP066	ltpFR	6	3	0	DILL	465	5	0	n/a	n/a	n/a	n/a	n/a
3529.592	n/a	RECOG_LURE	1764796	n/a	LTP066	ltpFR	6	3	n/a	EMPIRE	530	4	n/a	n/a	n/a	n/a	n/a	n/a
3532.386	n/a	RECOG_RESP	1766193	n/a	LTP066	ltpFR	6	3	n/a	EMPIRE	530	n/a	n/a	n/a	n/a	n/a	n/a	n/a
3533.144	n/a	RECOG_CONF	1766572	n/a	LTP066	ltpFR	6	3	n/a	EMPIRE	530	4	n/a	n/a	n/a	n/a	n/a	n/a
3534.596	n/a	RECOG_LURE	1767298	n/a	LTP066	ltpFR	6	3	n/a	COUCH	386	3	n/a	n/a	n/a	n/a	n/a	n/a
3536.426	n/a	RECOG_RESP	1768213	n/a	LTP066	ltpFR	6	3	n/a	COUCH	386	n/a	n/a	n/a	n/a	n/a	n/a	n/a
3537.164	n/a	RECOG_CONF	1768582	n/a	LTP066	ltpFR	6	3	n/a	COUCH	386	3	n/a	n/a	n/a	n/a	n/a	n/a
3538.634	n/a	RECOG_TARGET	1769317	n/a	LTP066	ltpFR	6	3	0	SHOWER	1296	5	1	n/a	n/a	n/a	n/a	n/a
3539.49	n/a	RECOG_RESP	1769745	n/a	LTP066	ltpFR	6	3	0	SHOWER	1296	n/a	1	n/a	n/a	n/a	n/a	n/a
3540.138	n/a	RECOG_CONF	1770069	n/a	LTP066	ltpFR	6	3	0	SHOWER	1296	5	1	n/a	n/a	n/a	n/a	n/a
3541.472	n/a	RECOG_LURE	1770736	n/a	LTP066	ltpFR	6	3	n/a	ARM	38	5	n/a	n/a	n/a	n/a	n/a	n/a
3542.342	n/a	RECOG_RESP	1771171	n/a	LTP066	ltpFR	6	3	n/a	ARM	38	n/a	n/a	n/a	n/a	n/a	n/a	n/a
3543.08	n/a	RECOG_CONF	1771540	n/a	LTP066	ltpFR	6	3	n/a	ARM	38	5	n/a	n/a	n/a	n/a	n/a	n/a
3544.384	n/a	RECOG_LURE	1772192	n/a	LTP066	ltpFR	6	3	n/a	DUMP	505	5	n/a	n/a	n/a	n/a	n/a	n/a
3545.136	n/a	RECOG_RESP	1772568	n/a	LTP066	ltpFR	6	3	n/a	DUMP	505	n/a	n/a	n/a	n/a	n/a	n/a	n/a
3545.864	n/a	RECOG_CONF	1772932	n/a	LTP066	ltpFR	6	3	n/a	DUMP	505	5	n/a	n/a	n/a	n/a	n/a	n/a
3547.164	n/a	RECOG_LURE	1773582	n/a	LTP066	ltpFR	6	3	n/a	FLAG	573	5	n/a	n/a	n/a	n/a	n/a	n/a
3547.86	n/a	RECOG_RESP	1773930	n/a	LTP066	ltpFR	6	3	n/a	FLAG	573	n/a	n/a	n/a	n/a	n/a	n/a	n/a
3548.678	n/a	RECOG_CONF	1774339	n/a	LTP066	ltpFR	6	3	n/a	FLAG	573	5	n/a	n/a	n/a	n/a	n/a	n/a
3550.02	n/a	RECOG_TARGET	1775010	n/a	LTP066	ltpFR	6	3	0	HOME	712	5	1	n/a	n/a	n/a	n/a	n/a
3550.744	n/a	RECOG_RESP	1775372	n/a	LTP066	ltpFR	6	3	0	HOME	712	n/a	1	n/a	n/a	n/a	n/a	n/a
3551.432	n/a	RECOG_CONF	1775716	n/a	LTP066	ltpFR	6	3	0	HOME	712	5	1	n/a	n/a	n/a	n/a	n/a
3552.834	n/a	RECOG_LURE	1776417	n/a	LTP066	ltpFR	6	3	n/a	DECK	443	4	n/a	n/a	n/a	n/a	n/a	n/a
3553.816	n/a	RECOG_RESP	1776908	n/a	LTP066	ltpFR	6	3	n/a	DECK	443	n/a	n/a	n/a	n/a	n/a	n/a	n/a
3554.514	n/a	RECOG_CONF	1777257	n/a	LTP066	ltpFR	6	3	n/a	DECK	443	4	n/a	n/a	n/a	n/a	n/a	n/a
3555.904	n/a	RECOG_TARGET	1777952	n/a	LTP066	ltpFR	6	3	0	PAGE	1001	5	0	n/a	n/a	n/a	n/a	n/a
3557.09	n/a	RECOG_RESP	1778545	n/a	LTP066	ltpFR	6	3	0	PAGE	1001	n/a	0	n/a	n/a	n/a	n/a	n/a
3557.828	n/a	RECOG_CONF	1778914	n/a	LTP066	ltpFR	6	3	0	PAGE	1001	5	0	n/a	n/a	n/a	n/a	n/a
3559.3	n/a	RECOG_TARGET	1779650	n/a	LTP066	ltpFR	6	3	-1	PROFESSIONAL	1130	3	-1	n/a	n/a	n/a	n/a	n/a
3560.232	n/a	RECOG_RESP	1780116	n/a	LTP066	ltpFR	6	3	-1	PROFESSIONAL	1130	n/a	-1	n/a	n/a	n/a	n/a	n/a
3560.98	n/a	RECOG_CONF	1780490	n/a	LTP066	ltpFR	6	3	-1	PROFESSIONAL	1130	3	-1	n/a	n/a	n/a	n/a	n/a
3562.372	n/a	RECOG_TARGET	1781186	n/a	LTP066	ltpFR	6	3	-1	GAZELLE	628	5	-1	n/a	n/a	n/a	n/a	n/a
3563.216	n/a	RECOG_RESP	1781608	n/a	LTP066	ltpFR	6	3	-1	GAZELLE	628	n/a	-1	n/a	n/a	n/a	n/a	n/a
3563.834	n/a	RECOG_CONF	1781917	n/a	LTP066	ltpFR	6	3	-1	GAZELLE	628	5	-1	n/a	n/a	n/a	n/a	n/a
3564.886	n/a	RECOG_TARGET	1782443	n/a	LTP066	ltpFR	6	3	0	CONSUMER	365	4	1	n/a	n/a	n/a	n/a	n/a
3566.628	n/a	RECOG_RESP	1783314	n/a	LTP066	ltpFR	6	3	0	CONSUMER	365	n/a	1	n/a	n/a	n/a	n/a	n/a
3567.556	n/a	RECOG_CONF	1783778	n/a	LTP066	ltpFR	6	3	0	CONSUMER	365	4	1	n/a	n/a	n/a	n/a	n/a
3572.624	n/a	REC_START	1786312	n/a	LTP066	ltpFR	6	4	n/a	n/a	n/a	n/a	n/a	n/a	n/a	n/a	n/a	n/a
3572.652	n/a	RECOG_TARGET	1786326	n/a	LTP066	ltpFR	6	4	0	ARTIST	43	4	1	n/a	n/a	n/a	n/a	n/a
3573.512	n/a	RECOG_RESP	1786756	n/a	LTP066	ltpFR	6	4	0	ARTIST	43	n/a	1	n/a	n/a	n/a	n/a	n/a
3574.276	n/a	RECOG_CONF	1787138	n/a	LTP066	ltpFR	6	4	0	ARTIST	43	4	1	n/a	n/a	n/a	n/a	n/a
3575.664	n/a	RECOG_TARGET	1787832	n/a	LTP066	ltpFR	6	4	-1	DINNER	468	5	-1	n/a	n/a	n/a	n/a	n/a
3576.316	n/a	RECOG_RESP	1788158	n/a	LTP066	ltpFR	6	4	-1	DINNER	468	n/a	-1	n/a	n/a	n/a	n/a	n/a
3577.16	n/a	RECOG_CONF	1788580	n/a	LTP066	ltpFR	6	4	-1	DINNER	468	5	-1	n/a	n/a	n/a	n/a	n/a
3578.546	n/a	RECOG_TARGET	1789273	n/a	LTP066	ltpFR	6	4	1	CELERY	266	5	1	n/a	n/a	n/a	n/a	n/a
3579.164	n/a	RECOG_RESP	1789582	n/a	LTP066	ltpFR	6	4	1	CELERY	266	n/a	1	n/a	n/a	n/a	n/a	n/a
3579.862	n/a	RECOG_CONF	1789931	n/a	LTP066	ltpFR	6	4	1	CELERY	266	5	1	n/a	n/a	n/a	n/a	n/a
3581.2	n/a	RECOG_TARGET	1790600	n/a	LTP066	ltpFR	6	4	1	CUP	424	4	0	n/a	n/a	n/a	n/a	n/a
3582.028	n/a	RECOG_RESP	1791014	n/a	LTP066	ltpFR	6	4	1	CUP	424	n/a	0	n/a	n/a	n/a	n/a	n/a
3582.604	n/a	RECOG_CONF	1791302	n/a	LTP066	ltpFR	6	4	1	CUP	424	4	0	n/a	n/a	n/a	n/a	n/a
3584.17	n/a	RECOG_TARGET	1792085	n/a	LTP066	ltpFR	6	4	-1	ANTLER	29	5	-1	n/a	n/a	n/a	n/a	n/a
3584.892	n/a	RECOG_RESP	1792446	n/a	LTP066	ltpFR	6	4	-1	ANTLER	29	n/a	-1	n/a	n/a	n/a	n/a	n/a
3585.53	n/a	RECOG_CONF	1792765	n/a	LTP066	ltpFR	6	4	-1	ANTLER	29	5	-1	n/a	n/a	n/a	n/a	n/a
3587.026	n/a	RECOG_TARGET	1793513	n/a	LTP066	ltpFR	6	4	-1	ORGAN	984	5	-1	n/a	n/a	n/a	n/a	n/a
3587.636	n/a	RECOG_RESP	1793818	n/a	LTP066	ltpFR	6	4	-1	ORGAN	984	n/a	-1	n/a	n/a	n/a	n/a	n/a
3588.25	n/a	RECOG_CONF	1794125	n/a	LTP066	ltpFR	6	4	-1	ORGAN	984	5	-1	n/a	n/a	n/a	n/a	n/a
3589.732	n/a	RECOG_TARGET	1794866	n/a	LTP066	ltpFR	6	4	-1	PREDATOR	1120	5	-1	n/a	n/a	n/a	n/a	n/a
3590.358	n/a	RECOG_RESP	1795179	n/a	LTP066	ltpFR	6	4	-1	PREDATOR	1120	n/a	-1	n/a	n/a	n/a	n/a	n/a
3591.028	n/a	RECOG_CONF	1795514	n/a	LTP066	ltpFR	6	4	-1	PREDATOR	1120	5	-1	n/a	n/a	n/a	n/a	n/a
3592.612	n/a	RECOG_TARGET	1796306	n/a	LTP066	ltpFR	6	4	-1	TAXI	1438	5	-1	n/a	n/a	n/a	n/a	n/a
3593.118	n/a	RECOG_RESP	1796559	n/a	LTP066	ltpFR	6	4	-1	TAXI	1438	n/a	-1	n/a	n/a	n/a	n/a	n/a
3593.872	n/a	RECOG_CONF	1796936	n/a	LTP066	ltpFR	6	4	-1	TAXI	1438	5	-1	n/a	n/a	n/a	n/a	n/a
3595.4	n/a	RECOG_TARGET	1797700	n/a	LTP066	ltpFR	6	4	0	WRITER	1627	4	1	n/a	n/a	n/a	n/a	n/a
3595.856	n/a	RECOG_RESP	1797928	n/a	LTP066	ltpFR	6	4	0	WRITER	1627	n/a	1	n/a	n/a	n/a	n/a	n/a
3596.604	n/a	RECOG_CONF	1798302	n/a	LTP066	ltpFR	6	4	0	WRITER	1627	4	1	n/a	n/a	n/a	n/a	n/a
3598.062	n/a	RECOG_TARGET	1799031	n/a	LTP066	ltpFR	6	4	-1	PAVEMENT	1028	5	-1	n/a	n/a	n/a	n/a	n/a
3598.55	n/a	RECOG_RESP	1799275	n/a	LTP066	ltpFR	6	4	-1	PAVEMENT	1028	n/a	-1	n/a	n/a	n/a	n/a	n/a
3599.238	n/a	RECOG_CONF	1799619	n/a	LTP066	ltpFR	6	4	-1	PAVEMENT	1028	5	-1	n/a	n/a	n/a	n/a	n/a
3600.67	n/a	RECOG_TARGET	1800335	n/a	LTP066	ltpFR	6	4	0	DRAWING	494	4	1	n/a	n/a	n/a	n/a	n/a
3601.912	n/a	RECOG_RESP	1800956	n/a	LTP066	ltpFR	6	4	0	DRAWING	494	n/a	1	n/a	n/a	n/a	n/a	n/a
3602.7	n/a	RECOG_CONF	1801350	n/a	LTP066	ltpFR	6	4	0	DRAWING	494	4	1	n/a	n/a	n/a	n/a	n/a
3604.072	n/a	RECOG_TARGET	1802036	n/a	LTP066	ltpFR	6	4	1	PAW	1029	5	0	n/a	n/a	n/a	n/a	n/a
3604.646	n/a	RECOG_RESP	1802323	n/a	LTP066	ltpFR	6	4	1	PAW	1029	n/a	0	n/a	n/a	n/a	n/a	n/a
3605.464	n/a	RECOG_CONF	1802732	n/a	LTP066	ltpFR	6	4	1	PAW	1029	5	0	n/a	n/a	n/a	n/a	n/a
3606.822	n/a	RECOG_TARGET	1803411	n/a	LTP066	ltpFR	6	4	1	ONION	977	5	0	n/a	n/a	n/a	n/a	n/a
3607.346	n/a	RECOG_RESP	1803673	n/a	LTP066	ltpFR	6	4	1	ONION	977	n/a	0	n/a	n/a	n/a	n/a	n/a
3608.06	n/a	RECOG_CONF	1804030	n/a	LTP066	ltpFR	6	4	1	ONION	977	5	0	n/a	n/a	n/a	n/a	n/a
3609.618	n/a	RECOG_TARGET	1804809	n/a	LTP066	ltpFR	6	4	0	BIOLOGIST	128	5	1	n/a	n/a	n/a	n/a	n/a
3610.174	n/a	RECOG_RESP	1805087	n/a	LTP066	ltpFR	6	4	0	BIOLOGIST	128	n/a	1	n/a	n/a	n/a	n/a	n/a
3610.994	n/a	RECOG_CONF	1805497	n/a	LTP066	ltpFR	6	4	0	BIOLOGIST	128	5	1	n/a	n/a	n/a	n/a	n/a
3612.456	n/a	RECOG_TARGET	1806228	n/a	LTP066	ltpFR	6	4	0	LEVER	815	5	0	n/a	n/a	n/a	n/a	n/a
3613.004	n/a	RECOG_RESP	1806502	n/a	LTP066	ltpFR	6	4	0	LEVER	815	n/a	0	n/a	n/a	n/a	n/a	n/a
3613.806	n/a	RECOG_CONF	1806903	n/a	LTP066	ltpFR	6	4	0	LEVER	815	5	0	n/a	n/a	n/a	n/a	n/a
3615.386	n/a	RECOG_LURE	1807693	n/a	LTP066	ltpFR	6	4	n/a	MOSQUITO	917	4	n/a	n/a	n/a	n/a	n/a	n/a
3616.74	n/a	RECOG_RESP	1808370	n/a	LTP066	ltpFR	6	4	n/a	MOSQUITO	917	n/a	n/a	n/a	n/a	n/a	n/a	n/a
3617.578	n/a	RECOG_CONF	1808789	n/a	LTP066	ltpFR	6	4	n/a	MOSQUITO	917	4	n/a	n/a	n/a	n/a	n/a	n/a
3619.016	n/a	RECOG_TARGET	1809508	n/a	LTP066	ltpFR	6	4	0	PANTHER	1009	5	1	n/a	n/a	n/a	n/a	n/a
3619.644	n/a	RECOG_RESP	1809822	n/a	LTP066	ltpFR	6	4	0	PANTHER	1009	n/a	1	n/a	n/a	n/a	n/a	n/a
3620.402	n/a	RECOG_CONF	1810201	n/a	LTP066	ltpFR	6	4	0	PANTHER	1009	5	1	n/a	n/a	n/a	n/a	n/a
3621.886	n/a	RECOG_TARGET	1810943	n/a	LTP066	ltpFR	6	4	1	FRAME	600	5	0	n/a	n/a	n/a	n/a	n/a
3622.418	n/a	RECOG_RESP	1811209	n/a	LTP066	ltpFR	6	4	1	FRAME	600	n/a	0	n/a	n/a	n/a	n/a	n/a
3623.176	n/a	RECOG_CONF	1811588	n/a	LTP066	ltpFR	6	4	1	FRAME	600	5	0	n/a	n/a	n/a	n/a	n/a
3624.642	n/a	RECOG_TARGET	1812321	n/a	LTP066	ltpFR	6	4	0	RADISH	1158	4	0	n/a	n/a	n/a	n/a	n/a
3625.36	n/a	RECOG_RESP	1812680	n/a	LTP066	ltpFR	6	4	0	RADISH	1158	n/a	0	n/a	n/a	n/a	n/a	n/a
3626.098	n/a	RECOG_CONF	1813049	n/a	LTP066	ltpFR	6	4	0	RADISH	1158	4	0	n/a	n/a	n/a	n/a	n/a
3627.548	n/a	RECOG_TARGET	1813774	n/a	LTP066	ltpFR	6	4	1	CREAM	402	4	0	n/a	n/a	n/a	n/a	n/a
3628.594	n/a	RECOG_RESP	1814297	n/a	LTP066	ltpFR	6	4	1	CREAM	402	n/a	0	n/a	n/a	n/a	n/a	n/a
3629.492	n/a	RECOG_CONF	1814746	n/a	LTP066	ltpFR	6	4	1	CREAM	402	4	0	n/a	n/a	n/a	n/a	n/a
3633.338	n/a	REC_START	1816669	n/a	LTP066	ltpFR	6	5	n/a	n/a	n/a	n/a	n/a	n/a	n/a	n/a	n/a	n/a
3633.364	n/a	RECOG_TARGET	1816682	n/a	LTP066	ltpFR	6	5	0	VETERAN	1561	4	1	n/a	n/a	n/a	n/a	n/a
3634.46	n/a	RECOG_RESP	1817230	n/a	LTP066	ltpFR	6	5	0	VETERAN	1561	n/a	1	n/a	n/a	n/a	n/a	n/a
3635.528	n/a	RECOG_CONF	1817764	n/a	LTP066	ltpFR	6	5	0	VETERAN	1561	4	1	n/a	n/a	n/a	n/a	n/a
3636.944	n/a	RECOG_TARGET	1818472	n/a	LTP066	ltpFR	6	5	-1	CABIN	211	5	-1	n/a	n/a	n/a	n/a	n/a
3637.522	n/a	RECOG_RESP	1818761	n/a	LTP066	ltpFR	6	5	-1	CABIN	211	n/a	-1	n/a	n/a	n/a	n/a	n/a
3638.182	n/a	RECOG_CONF	1819091	n/a	LTP066	ltpFR	6	5	-1	CABIN	211	5	-1	n/a	n/a	n/a	n/a	n/a
3639.792	n/a	RECOG_TARGET	1819896	n/a	LTP066	ltpFR	6	5	0	ZUCCHINI	1638	5	0	n/a	n/a	n/a	n/a	n/a
3640.426	n/a	RECOG_RESP	1820213	n/a	LTP066	ltpFR	6	5	0	ZUCCHINI	1638	n/a	0	n/a	n/a	n/a	n/a	n/a
3641.114	n/a	RECOG_CONF	1820557	n/a	LTP066	ltpFR	6	5	0	ZUCCHINI	1638	5	0	n/a	n/a	n/a	n/a	n/a
3642.588	n/a	RECOG_TARGET	1821294	n/a	LTP066	ltpFR	6	5	-1	LION	827	5	-1	n/a	n/a	n/a	n/a	n/a
3643.22	n/a	RECOG_RESP	1821610	n/a	LTP066	ltpFR	6	5	-1	LION	827	n/a	-1	n/a	n/a	n/a	n/a	n/a
3643.958	n/a	RECOG_CONF	1821979	n/a	LTP066	ltpFR	6	5	-1	LION	827	5	-1	n/a	n/a	n/a	n/a	n/a
3645.534	n/a	RECOG_TARGET	1822767	n/a	LTP066	ltpFR	6	5	-1	BIRD	129	5	-1	n/a	n/a	n/a	n/a	n/a
3646.174	n/a	RECOG_RESP	1823087	n/a	LTP066	ltpFR	6	5	-1	BIRD	129	n/a	-1	n/a	n/a	n/a	n/a	n/a
3646.904	n/a	RECOG_CONF	1823452	n/a	LTP066	ltpFR	6	5	-1	BIRD	129	5	-1	n/a	n/a	n/a	n/a	n/a
3648.43	n/a	RECOG_TARGET	1824215	n/a	LTP066	ltpFR	6	5	0	CASHEW	253	5	0	n/a	n/a	n/a	n/a	n/a
3648.956	n/a	RECOG_RESP	1824478	n/a	LTP066	ltpFR	6	5	0	CASHEW	253	n/a	0	n/a	n/a	n/a	n/a	n/a
3649.706	n/a	RECOG_CONF	1824853	n/a	LTP066	ltpFR	6	5	0	CASHEW	253	5	0	n/a	n/a	n/a	n/a	n/a
3651.194	n/a	RECOG_LURE	1825597	n/a	LTP066	ltpFR	6	5	n/a	WOMAN	1620	5	n/a	n/a	n/a	n/a	n/a	n/a
3652.094	n/a	RECOG_RESP	1826047	n/a	LTP066	ltpFR	6	5	n/a	WOMAN	1620	n/a	n/a	n/a	n/a	n/a	n/a	n/a
3652.818	n/a	RECOG_CONF	1826409	n/a	LTP066	ltpFR	6	5	n/a	WOMAN	1620	5	n/a	n/a	n/a	n/a	n/a	n/a
3654.314	n/a	RECOG_TARGET	1827157	n/a	LTP066	ltpFR	6	5	-1	VALVE	1546	5	-1	n/a	n/a	n/a	n/a	n/a
3654.944	n/a	RECOG_RESP	1827472	n/a	LTP066	ltpFR	6	5	-1	VALVE	1546	n/a	-1	n/a	n/a	n/a	n/a	n/a
3655.672	n/a	RECOG_CONF	1827836	n/a	LTP066	ltpFR	6	5	-1	VALVE	1546	5	-1	n/a	n/a	n/a	n/a	n/a
3657.054	n/a	RECOG_LURE	1828527	n/a	LTP066	ltpFR	6	5	n/a	BATHROOM	99	4	n/a	n/a	n/a	n/a	n/a	n/a
3657.886	n/a	RECOG_RESP	1828943	n/a	LTP066	ltpFR	6	5	n/a	BATHROOM	99	n/a	n/a	n/a	n/a	n/a	n/a	n/a
3658.704	n/a	RECOG_CONF	1829352	n/a	LTP066	ltpFR	6	5	n/a	BATHROOM	99	4	n/a	n/a	n/a	n/a	n/a	n/a
3660.066	n/a	RECOG_LURE	1830033	n/a	LTP066	ltpFR	6	5	n/a	PURSE	1145	4	n/a	n/a	n/a	n/a	n/a	n/a
3660.894	n/a	RECOG_RESP	1830447	n/a	LTP066	ltpFR	6	5	n/a	PURSE	1145	n/a	n/a	n/a	n/a	n/a	n/a	n/a
3661.668	n/a	RECOG_CONF	1830834	n/a	LTP066	ltpFR	6	5	n/a	PURSE	1145	4	n/a	n/a	n/a	n/a	n/a	n/a
3663.08	n/a	RECOG_TARGET	1831540	n/a	LTP066	ltpFR	6	5	1	CARDINAL	244	5	1	n/a	n/a	n/a	n/a	n/a
3663.714	n/a	RECOG_RESP	1831857	n/a	LTP066	ltpFR	6	5	1	CARDINAL	244	n/a	1	n/a	n/a	n/a	n/a	n/a
3664.482	n/a	RECOG_CONF	1832241	n/a	LTP066	ltpFR	6	5	1	CARDINAL	244	5	1	n/a	n/a	n/a	n/a	n/a
3665.836	n/a	RECOG_TARGET	1832918	n/a	LTP066	ltpFR	6	5	1	BUTTON	207	4	0	n/a	n/a	n/a	n/a	n/a
3667.186	n/a	RECOG_RESP	1833593	n/a	LTP066	ltpFR	6	5	1	BUTTON	207	n/a	0	n/a	n/a	n/a	n/a	n/a
3668.104	n/a	RECOG_CONF	1834052	n/a	LTP066	ltpFR	6	5	1	BUTTON	207	4	0	n/a	n/a	n/a	n/a	n/a
3669.522	n/a	RECOG_TARGET	1834761	n/a	LTP066	ltpFR	6	5	1	COMMITTEE	355	5	1	n/a	n/a	n/a	n/a	n/a
3670.168	n/a	RECOG_RESP	1835084	n/a	LTP066	ltpFR	6	5	1	COMMITTEE	355	n/a	1	n/a	n/a	n/a	n/a	n/a
3670.878	n/a	RECOG_CONF	1835439	n/a	LTP066	ltpFR	6	5	1	COMMITTEE	355	5	1	n/a	n/a	n/a	n/a	n/a
3672.344	n/a	RECOG_LURE	1836172	n/a	LTP066	ltpFR	6	5	n/a	TICK	1463	4	n/a	n/a	n/a	n/a	n/a	n/a
3673.936	n/a	RECOG_RESP	1836968	n/a	LTP066	ltpFR	6	5	n/a	TICK	1463	n/a	n/a	n/a	n/a	n/a	n/a	n/a
3674.508	n/a	RECOG_CONF	1837254	n/a	LTP066	ltpFR	6	5	n/a	TICK	1463	4	n/a	n/a	n/a	n/a	n/a	n/a
3676.14	n/a	RECOG_TARGET	1838070	n/a	LTP066	ltpFR	6	5	0	PASSENGER	1020	5	1	n/a	n/a	n/a	n/a	n/a
3676.804	n/a	RECOG_RESP	1838402	n/a	LTP066	ltpFR	6	5	0	PASSENGER	1020	n/a	1	n/a	n/a	n/a	n/a	n/a
3677.552	n/a	RECOG_CONF	1838776	n/a	LTP066	ltpFR	6	5	0	PASSENGER	1020	5	1	n/a	n/a	n/a	n/a	n/a
3678.962	n/a	RECOG_LURE	1839481	n/a	LTP066	ltpFR	6	5	n/a	EXPLOSION	544	5	n/a	n/a	n/a	n/a	n/a	n/a
3679.846	n/a	RECOG_RESP	1839923	n/a	LTP066	ltpFR	6	5	n/a	EXPLOSION	544	n/a	n/a	n/a	n/a	n/a	n/a	n/a
3680.546	n/a	RECOG_CONF	1840273	n/a	LTP066	ltpFR	6	5	n/a	EXPLOSION	544	5	n/a	n/a	n/a	n/a	n/a	n/a
3682.1	n/a	RECOG_TARGET	1841050	n/a	LTP066	ltpFR	6	5	1	COLESLAW	344	5	0	n/a	n/a	n/a	n/a	n/a
3682.666	n/a	RECOG_RESP	1841333	n/a	LTP066	ltpFR	6	5	1	COLESLAW	344	n/a	0	n/a	n/a	n/a	n/a	n/a
3683.46	n/a	RECOG_CONF	1841730	n/a	LTP066	ltpFR	6	5	1	COLESLAW	344	5	0	n/a	n/a	n/a	n/a	n/a
3684.948	n/a	RECOG_TARGET	1842474	n/a	LTP066	ltpFR	6	5	0	LIVER	833	5	0	n/a	n/a	n/a	n/a	n/a
3685.534	n/a	RECOG_RESP	1842767	n/a	LTP066	ltpFR	6	5	0	LIVER	833	n/a	0	n/a	n/a	n/a	n/a	n/a
3686.412	n/a	RECOG_CONF	1843206	n/a	LTP066	ltpFR	6	5	0	LIVER	833	5	0	n/a	n/a	n/a	n/a	n/a
3687.786	n/a	RECOG_TARGET	1843893	n/a	LTP066	ltpFR	6	5	1	PUMP	1141	5	0	n/a	n/a	n/a	n/a	n/a
3688.348	n/a	RECOG_RESP	1844174	n/a	LTP066	ltpFR	6	5	1	PUMP	1141	n/a	0	n/a	n/a	n/a	n/a	n/a
3689.166	n/a	RECOG_CONF	1844583	n/a	LTP066	ltpFR	6	5	1	PUMP	1141	5	0	n/a	n/a	n/a	n/a	n/a
3690.65	n/a	RECOG_LURE	1845325	n/a	LTP066	ltpFR	6	5	n/a	COFFIN	342	4	n/a	n/a	n/a	n/a	n/a	n/a
3691.122	n/a	RECOG_RESP	1845561	n/a	LTP066	ltpFR	6	5	n/a	COFFIN	342	n/a	n/a	n/a	n/a	n/a	n/a	n/a
3692.03	n/a	RECOG_CONF	1846015	n/a	LTP066	ltpFR	6	5	n/a	COFFIN	342	4	n/a	n/a	n/a	n/a	n/a	n/a
3698.222	n/a	REC_START	1849111	n/a	LTP066	ltpFR	6	6	n/a	n/a	n/a	n/a	n/a	n/a	n/a	n/a	n/a	n/a
3698.248	n/a	RECOG_TARGET	1849124	n/a	LTP066	ltpFR	6	6	0	JUDGE	761	4	1	n/a	n/a	n/a	n/a	n/a
3699.314	n/a	RECOG_RESP	1849657	n/a	LTP066	ltpFR	6	6	0	JUDGE	761	n/a	1	n/a	n/a	n/a	n/a	n/a
3700.002	n/a	RECOG_CONF	1850001	n/a	LTP066	ltpFR	6	6	0	JUDGE	761	4	1	n/a	n/a	n/a	n/a	n/a
3701.302	n/a	RECOG_TARGET	1850651	n/a	LTP066	ltpFR	6	6	0	CUFF	423	5	0	n/a	n/a	n/a	n/a	n/a
3701.898	n/a	RECOG_RESP	1850949	n/a	LTP066	ltpFR	6	6	0	CUFF	423	n/a	0	n/a	n/a	n/a	n/a	n/a
3702.576	n/a	RECOG_CONF	1851288	n/a	LTP066	ltpFR	6	6	0	CUFF	423	5	0	n/a	n/a	n/a	n/a	n/a
