mstime	trial_type	stim_file	subject	experiment	session	trial	task	item_name	item_num	recog_conf	resp	color_b	color_g	color_r	case	font
0	SESS_START	n/a	LTP228	ltpFR	17	n/a	n/a	n/a	n/a	3	n/a	n/a	n/a	n/a	n/a	n/a
85861	WORD	wordpools/wasnorm_wordpool_less_exclusions.txt	LTP228	ltpFR	17	1	0	WASP	1593	5	1	1	0.412841796875	0.57763671875	upper	../fonts/amplitud.ttf
89793	WORD	wordpools/wasnorm_wordpool_less_exclusions.txt	LTP228	ltpFR	17	1	0	PATRIOT	1026	n/a	1	1	0.412841796875	0.57763671875	upper	../fonts/amplitud.ttf
93657	WORD	wordpools/wasnorm_wordpool_less_exclusions.txt	LTP228	ltpFR	17	1	0	PALACE	1006	n/a	1	1	0.412841796875	0.57763671875	upper	../fonts/amplitud.ttf
97655	WORD	wordpools/wasnorm_wordpool_less_exclusions.txt	LTP228	ltpFR	17	1	1	CASTLE	256	n/a	0	0	0.5869140625	0.422607421875	lower	../fonts/zerothre.ttf
101704	WORD	wordpools/wasnorm_wordpool_less_exclusions.txt	LTP228	ltpFR	17	1	1	COOKIE	374	n/a	0	0	0.5869140625	0.422607421875	lower	../fonts/zerothre.ttf
105636	WORD	wordpools/wasnorm_wordpool_less_exclusions.txt	LTP228	ltpFR	17	1	1	TUNNEL	1519	n/a	0	0	0.5869140625	0.422607421875	lower	../fonts/zerothre.ttf
109785	WORD	wordpools/wasnorm_wordpool_less_exclusions.txt	LTP228	ltpFR	17	1	1	FIREPLACE	570	n/a	0	0	0.5869140625	0.422607421875	lower	../fonts/zerothre.ttf
113863	WORD	wordpools/wasnorm_wordpool_less_exclusions.txt	LTP228	ltpFR	17	1	1	CONE	363	n/a	0	0	0.5869140625	0.422607421875	lower	../fonts/zerothre.ttf
117983	WORD	wordpools/wasnorm_wordpool_less_exclusions.txt	LTP228	ltpFR	17	1	1	POTATO	1115	n/a	1	0	0.5869140625	0.422607421875	lower	../fonts/zerothre.ttf
122099	WORD	wordpools/wasnorm_wordpool_less_exclusions.txt	LTP228	ltpFR	17	1	0	CAVE	263	n/a	1	1	0.412841796875	0.57763671875	upper	../fonts/amplitud.ttf
125930	WORD	wordpools/wasnorm_wordpool_less_exclusions.txt	LTP228	ltpFR	17	1	0	NICOTINE	951	n/a	0	1	0.412841796875	0.57763671875	upper	../fonts/amplitud.ttf
129978	WORD	wordpools/wasnorm_wordpool_less_exclusions.txt	LTP228	ltpFR	17	1	0	GRASS	655	n/a	0	1	0.412841796875	0.57763671875	upper	../fonts/amplitud.ttf
133888	WORD	wordpools/wasnorm_wordpool_less_exclusions.txt	LTP228	ltpFR	17	1	0	GRASSHOPPER	656	n/a	0	1	0.412841796875	0.57763671875	upper	../fonts/amplitud.ttf
138042	WORD	wordpools/wasnorm_wordpool_less_exclusions.txt	LTP228	ltpFR	17	1	0	TROMBONE	1508	n/a	1	1	0.412841796875	0.57763671875	upper	../fonts/amplitud.ttf
142037	WORD	wordpools/wasnorm_wordpool_less_exclusions.txt	LTP228	ltpFR	17	1	1	NEPHEW	942	n/a	1	0	0.5869140625	0.422607421875	lower	../fonts/zerothre.ttf
146106	WORD	wordpools/wasnorm_wordpool_less_exclusions.txt	LTP228	ltpFR	17	1	1	HONEY	713	n/a	0	0	0.5869140625	0.422607421875	lower	../fonts/zerothre.ttf
151693	REC_START	n/a	LTP228	ltpFR	17	1	n/a	n/a	n/a	n/a	n/a	n/a	n/a	n/a	n/a	n/a
154402	REC_WORD	wordpools/wasnorm_wordpool_less_exclusions.txt	LTP228	ltpFR	17	1	0	WASP	1593	n/a	1	n/a	n/a	n/a	n/a	n/a
155245	REC_WORD	wordpools/wasnorm_wordpool_less_exclusions.txt	LTP228	ltpFR	17	1	0	PALACE	1006	n/a	1	n/a	n/a	n/a	n/a	n/a
156148	REC_WORD	wordpools/wasnorm_wordpool_less_exclusions.txt	LTP228	ltpFR	17	1	1	CASTLE	256	n/a	0	n/a	n/a	n/a	n/a	n/a
156811	REC_WORD	wordpools/wasnorm_wordpool_less_exclusions.txt	LTP228	ltpFR	17	1	1	FIREPLACE	570	n/a	0	n/a	n/a	n/a	n/a	n/a
158228	REC_WORD	wordpools/wasnorm_wordpool_less_exclusions.txt	LTP228	ltpFR	17	1	1	COOKIE	374	n/a	0	n/a	n/a	n/a	n/a	n/a
158916	REC_WORD	wordpools/wasnorm_wordpool_less_exclusions.txt	LTP228	ltpFR	17	1	1	HONEY	713	n/a	0	n/a	n/a	n/a	n/a	n/a
160947	REC_WORD	wordpools/wasnorm_wordpool_less_exclusions.txt	LTP228	ltpFR	17	1	1	NEPHEW	942	n/a	1	n/a	n/a	n/a	n/a	n/a
161560	REC_WORD	wordpools/wasnorm_wordpool_less_exclusions.txt	LTP228	ltpFR	17	1	0	GRASS	655	n/a	0	n/a	n/a	n/a	n/a	n/a
162294	REC_WORD	wordpools/wasnorm_wordpool_less_exclusions.txt	LTP228	ltpFR	17	1	0	GRASSHOPPER	656	n/a	0	n/a	n/a	n/a	n/a	n/a
166564	REC_WORD	wordpools/wasnorm_wordpool_less_exclusions.txt	LTP228	ltpFR	17	1	0	CAVE	263	n/a	1	n/a	n/a	n/a	n/a	n/a
243991	WORD	wordpools/wasnorm_wordpool_less_exclusions.txt	LTP228	ltpFR	17	2	1	TOAST	1471	n/a	1	0	0.5869140625	0.422607421875	lower	../fonts/zerothre.ttf
248073	WORD	wordpools/wasnorm_wordpool_less_exclusions.txt	LTP228	ltpFR	17	2	1	FARM	552	n/a	0	0	0.5869140625	0.422607421875	lower	../fonts/zerothre.ttf
251971	WORD	wordpools/wasnorm_wordpool_less_exclusions.txt	LTP228	ltpFR	17	2	0	PARROT	1015	n/a	0	1	0.412841796875	0.57763671875	upper	../fonts/amplitud.ttf
256037	WORD	wordpools/wasnorm_wordpool_less_exclusions.txt	LTP228	ltpFR	17	2	0	CAGE	218	n/a	1	1	0.412841796875	0.57763671875	upper	../fonts/amplitud.ttf
259880	WORD	wordpools/wasnorm_wordpool_less_exclusions.txt	LTP228	ltpFR	17	2	0	DOLLAR	482	n/a	0	1	0.412841796875	0.57763671875	upper	../fonts/amplitud.ttf
263933	WORD	wordpools/wasnorm_wordpool_less_exclusions.txt	LTP228	ltpFR	17	2	0	BILL	126	n/a	0	1	0.412841796875	0.57763671875	upper	../fonts/amplitud.ttf
267830	WORD	wordpools/wasnorm_wordpool_less_exclusions.txt	LTP228	ltpFR	17	2	1	FLOOR	581	n/a	0	0	0.5869140625	0.422607421875	lower	../fonts/zerothre.ttf
271909	WORD	wordpools/wasnorm_wordpool_less_exclusions.txt	LTP228	ltpFR	17	2	1	PADDING	999	n/a	1	0	0.5869140625	0.422607421875	lower	../fonts/zerothre.ttf
276062	WORD	wordpools/wasnorm_wordpool_less_exclusions.txt	LTP228	ltpFR	17	2	0	BOY	161	n/a	1	1	0.412841796875	0.57763671875	upper	../fonts/amplitud.ttf
280010	WORD	wordpools/wasnorm_wordpool_less_exclusions.txt	LTP228	ltpFR	17	2	0	FARMER	553	n/a	1	1	0.412841796875	0.57763671875	upper	../fonts/amplitud.ttf
283992	WORD	wordpools/wasnorm_wordpool_less_exclusions.txt	LTP228	ltpFR	17	2	0	MONK	910	n/a	1	1	0.412841796875	0.57763671875	upper	../fonts/amplitud.ttf
288108	WORD	wordpools/wasnorm_wordpool_less_exclusions.txt	LTP228	ltpFR	17	2	0	POSTAGE	1113	n/a	0	1	0.412841796875	0.57763671875	upper	../fonts/amplitud.ttf
292273	WORD	wordpools/wasnorm_wordpool_less_exclusions.txt	LTP228	ltpFR	17	2	1	STAR	1373	n/a	0	0	0.5869140625	0.422607421875	lower	../fonts/zerothre.ttf
296389	WORD	wordpools/wasnorm_wordpool_less_exclusions.txt	LTP228	ltpFR	17	2	1	RASPBERRY	1168	n/a	1	0	0.5869140625	0.422607421875	lower	../fonts/zerothre.ttf
300370	WORD	wordpools/wasnorm_wordpool_less_exclusions.txt	LTP228	ltpFR	17	2	1	MISTER	901	n/a	0	0	0.5869140625	0.422607421875	lower	../fonts/zerothre.ttf
304348	WORD	wordpools/wasnorm_wordpool_less_exclusions.txt	LTP228	ltpFR	17	2	1	GARLIC	624	n/a	1	0	0.5869140625	0.422607421875	lower	../fonts/zerothre.ttf
310192	REC_START	n/a	LTP228	ltpFR	17	2	n/a	n/a	n/a	n/a	n/a	n/a	n/a	n/a	n/a	n/a
314861	REC_WORD	wordpools/wasnorm_wordpool_less_exclusions.txt	LTP228	ltpFR	17	2	1	TOAST	1471	n/a	1	n/a	n/a	n/a	n/a	n/a
315694	REC_WORD	wordpools/wasnorm_wordpool_less_exclusions.txt	LTP228	ltpFR	17	2	1	FARM	552	n/a	0	n/a	n/a	n/a	n/a	n/a
316557	REC_WORD	wordpools/wasnorm_wordpool_less_exclusions.txt	LTP228	ltpFR	17	2	1	STAR	1373	n/a	0	n/a	n/a	n/a	n/a	n/a
317620	REC_WORD	wordpools/wasnorm_wordpool_less_exclusions.txt	LTP228	ltpFR	17	2	1	GARLIC	624	n/a	1	n/a	n/a	n/a	n/a	n/a
318263	REC_WORD	wordpools/wasnorm_wordpool_less_exclusions.txt	LTP228	ltpFR	17	2	1	MISTER	901	n/a	0	n/a	n/a	n/a	n/a	n/a
326545	REC_WORD	wordpools/wasnorm_wordpool_less_exclusions.txt	LTP228	ltpFR	17	2	1	RASPBERRY	1168	n/a	1	n/a	n/a	n/a	n/a	n/a
410067	WORD	wordpools/wasnorm_wordpool_less_exclusions.txt	LTP228	ltpFR	17	3	0	DAUGHTER	442	n/a	1	1	0.412841796875	0.57763671875	upper	../fonts/amplitud.ttf
414049	WORD	wordpools/wasnorm_wordpool_less_exclusions.txt	LTP228	ltpFR	17	3	0	SCOUT	1252	n/a	1	1	0.412841796875	0.57763671875	upper	../fonts/amplitud.ttf
418114	WORD	wordpools/wasnorm_wordpool_less_exclusions.txt	LTP228	ltpFR	17	3	0	DRILL	497	n/a	0	1	0.412841796875	0.57763671875	upper	../fonts/amplitud.ttf
422246	WORD	wordpools/wasnorm_wordpool_less_exclusions.txt	LTP228	ltpFR	17	3	0	UNCLE	1536	n/a	1	1	0.412841796875	0.57763671875	upper	../fonts/amplitud.ttf
426124	WORD	wordpools/wasnorm_wordpool_less_exclusions.txt	LTP228	ltpFR	17	3	1	FURNITURE	616	n/a	0	0	0.5869140625	0.422607421875	lower	../fonts/zerothre.ttf
430139	WORD	wordpools/wasnorm_wordpool_less_exclusions.txt	LTP228	ltpFR	17	3	1	DEPUTY	450	n/a	1	0	0.5869140625	0.422607421875	lower	../fonts/zerothre.ttf
433974	WORD	wordpools/wasnorm_wordpool_less_exclusions.txt	LTP228	ltpFR	17	3	1	COMMITTEE	355	n/a	1	0	0.5869140625	0.422607421875	lower	../fonts/zerothre.ttf
438006	WORD	wordpools/wasnorm_wordpool_less_exclusions.txt	LTP228	ltpFR	17	3	1	POOL	1103	n/a	0	0	0.5869140625	0.422607421875	lower	../fonts/zerothre.ttf
441971	WORD	wordpools/wasnorm_wordpool_less_exclusions.txt	LTP228	ltpFR	17	3	0	LOG	841	n/a	1	1	0.412841796875	0.57763671875	upper	../fonts/amplitud.ttf
445868	WORD	wordpools/wasnorm_wordpool_less_exclusions.txt	LTP228	ltpFR	17	3	0	STRAWBERRY	1391	n/a	1	1	0.412841796875	0.57763671875	upper	../fonts/amplitud.ttf
449833	WORD	wordpools/wasnorm_wordpool_less_exclusions.txt	LTP228	ltpFR	17	3	1	FAMILY	550	n/a	1	0	0.5869140625	0.422607421875	lower	../fonts/zerothre.ttf
453933	WORD	wordpools/wasnorm_wordpool_less_exclusions.txt	LTP228	ltpFR	17	3	1	WATER	1594	n/a	0	0	0.5869140625	0.422607421875	lower	../fonts/zerothre.ttf
458111	WORD	wordpools/wasnorm_wordpool_less_exclusions.txt	LTP228	ltpFR	17	3	1	STUMP	1396	n/a	0	0	0.5869140625	0.422607421875	lower	../fonts/zerothre.ttf
462197	WORD	wordpools/wasnorm_wordpool_less_exclusions.txt	LTP228	ltpFR	17	3	1	ROOT	1210	n/a	0	0	0.5869140625	0.422607421875	lower	../fonts/zerothre.ttf
466179	WORD	wordpools/wasnorm_wordpool_less_exclusions.txt	LTP228	ltpFR	17	3	0	PICKLE	1059	n/a	0	1	0.412841796875	0.57763671875	upper	../fonts/amplitud.ttf
470378	WORD	wordpools/wasnorm_wordpool_less_exclusions.txt	LTP228	ltpFR	17	3	0	CABBAGE	210	n/a	0	1	0.412841796875	0.57763671875	upper	../fonts/amplitud.ttf
476301	REC_START	n/a	LTP228	ltpFR	17	3	n/a	n/a	n/a	n/a	n/a	n/a	n/a	n/a	n/a	n/a
479174	REC_WORD	wordpools/wasnorm_wordpool_less_exclusions.txt	LTP228	ltpFR	17	3	0	DAUGHTER	442	n/a	1	n/a	n/a	n/a	n/a	n/a
479703	REC_WORD	wordpools/wasnorm_wordpool_less_exclusions.txt	LTP228	ltpFR	17	3	0	STRAWBERRY	1391	n/a	1	n/a	n/a	n/a	n/a	n/a
480621	REC_WORD	wordpools/wasnorm_wordpool_less_exclusions.txt	LTP228	ltpFR	17	3	1	ROOT	1210	n/a	0	n/a	n/a	n/a	n/a	n/a
481539	REC_WORD	wordpools/wasnorm_wordpool_less_exclusions.txt	LTP228	ltpFR	17	3	0	CABBAGE	210	n/a	0	n/a	n/a	n/a	n/a	n/a
488912	REC_WORD	wordpools/wasnorm_wordpool_less_exclusions.txt	LTP228	ltpFR	17	3	1	FAMILY	550	n/a	1	n/a	n/a	n/a	n/a	n/a
490229	REC_WORD	wordpools/wasnorm_wordpool_less_exclusions.txt	LTP228	ltpFR	17	3	0	UNCLE	1536	n/a	1	n/a	n/a	n/a	n/a	n/a
508682	REC_WORD	wordpools/wasnorm_wordpool_less_exclusions.txt	LTP228	ltpFR	17	3	0	MONK	910	n/a	1	n/a	n/a	n/a	n/a	n/a
509726	REC_WORD	wordpools/wasnorm_wordpool_less_exclusions.txt	LTP228	ltpFR	17	3	1	FURNITURE	616	n/a	0	n/a	n/a	n/a	n/a	n/a
588556	WORD	wordpools/wasnorm_wordpool_less_exclusions.txt	LTP228	ltpFR	17	4	-1	VIOLA	1570	n/a	-1	1	1.0	1.0	upper	../fonts/Verdana.ttf
592755	WORD	wordpools/wasnorm_wordpool_less_exclusions.txt	LTP228	ltpFR	17	4	-1	INN	739	n/a	-1	1	1.0	1.0	upper	../fonts/Verdana.ttf
596803	WORD	wordpools/wasnorm_wordpool_less_exclusions.txt	LTP228	ltpFR	17	4	-1	TAVERN	1437	n/a	-1	1	1.0	1.0	upper	../fonts/Verdana.ttf
601004	WORD	wordpools/wasnorm_wordpool_less_exclusions.txt	LTP228	ltpFR	17	4	-1	GRAPE	654	n/a	-1	1	1.0	1.0	upper	../fonts/Verdana.ttf
604884	WORD	wordpools/wasnorm_wordpool_less_exclusions.txt	LTP228	ltpFR	17	4	-1	BOULEVARD	156	n/a	-1	1	1.0	1.0	upper	../fonts/Verdana.ttf
608895	WORD	wordpools/wasnorm_wordpool_less_exclusions.txt	LTP228	ltpFR	17	4	-1	FREEWAY	603	n/a	-1	1	1.0	1.0	upper	../fonts/Verdana.ttf
612965	WORD	wordpools/wasnorm_wordpool_less_exclusions.txt	LTP228	ltpFR	17	4	-1	SHRINE	1298	n/a	-1	1	1.0	1.0	upper	../fonts/Verdana.ttf
617131	WORD	wordpools/wasnorm_wordpool_less_exclusions.txt	LTP228	ltpFR	17	4	-1	CHIMNEY	301	n/a	-1	1	1.0	1.0	upper	../fonts/Verdana.ttf
621029	WORD	wordpools/wasnorm_wordpool_less_exclusions.txt	LTP228	ltpFR	17	4	-1	RIBBON	1189	n/a	-1	1	1.0	1.0	upper	../fonts/Verdana.ttf
625228	WORD	wordpools/wasnorm_wordpool_less_exclusions.txt	LTP228	ltpFR	17	4	-1	CAFETERIA	217	n/a	-1	1	1.0	1.0	upper	../fonts/Verdana.ttf
629059	WORD	wordpools/wasnorm_wordpool_less_exclusions.txt	LTP228	ltpFR	17	4	-1	CHEF	290	n/a	-1	1	1.0	1.0	upper	../fonts/Verdana.ttf
633008	WORD	wordpools/wasnorm_wordpool_less_exclusions.txt	LTP228	ltpFR	17	4	-1	FRIAR	605	n/a	-1	1	1.0	1.0	upper	../fonts/Verdana.ttf
637056	WORD	wordpools/wasnorm_wordpool_less_exclusions.txt	LTP228	ltpFR	17	4	-1	ORCHESTRA	981	n/a	-1	1	1.0	1.0	upper	../fonts/Verdana.ttf
640954	WORD	wordpools/wasnorm_wordpool_less_exclusions.txt	LTP228	ltpFR	17	4	-1	SALOON	1228	n/a	-1	1	1.0	1.0	upper	../fonts/Verdana.ttf
645120	WORD	wordpools/wasnorm_wordpool_less_exclusions.txt	LTP228	ltpFR	17	4	-1	GAZELLE	628	n/a	-1	1	1.0	1.0	upper	../fonts/Verdana.ttf
648951	WORD	wordpools/wasnorm_wordpool_less_exclusions.txt	LTP228	ltpFR	17	4	-1	CLIPPERS	324	n/a	-1	1	1.0	1.0	upper	../fonts/Verdana.ttf
654806	REC_START	n/a	LTP228	ltpFR	17	4	n/a	n/a	n/a	n/a	n/a	n/a	n/a	n/a	n/a	n/a
657016	REC_WORD	wordpools/wasnorm_wordpool_less_exclusions.txt	LTP228	ltpFR	17	4	-1	VIOLA	1570	n/a	-1	n/a	n/a	n/a	n/a	n/a
657734	REC_WORD	wordpools/wasnorm_wordpool_less_exclusions.txt	LTP228	ltpFR	17	4	-1	TAVERN	1437	n/a	-1	n/a	n/a	n/a	n/a	n/a
658797	REC_WORD	wordpools/wasnorm_wordpool_less_exclusions.txt	LTP228	ltpFR	17	4	-1	INN	739	n/a	-1	n/a	n/a	n/a	n/a	n/a
659834	REC_WORD	wordpools/wasnorm_wordpool_less_exclusions.txt	LTP228	ltpFR	17	4	-1	GRAPE	654	n/a	-1	n/a	n/a	n/a	n/a	n/a
662244	REC_WORD	wordpools/wasnorm_wordpool_less_exclusions.txt	LTP228	ltpFR	17	4	-1	BOULEVARD	156	n/a	-1	n/a	n/a	n/a	n/a	n/a
662912	REC_WORD	wordpools/wasnorm_wordpool_less_exclusions.txt	LTP228	ltpFR	17	4	-1	FREEWAY	603	n/a	-1	n/a	n/a	n/a	n/a	n/a
673713	REC_WORD	wordpools/wasnorm_wordpool_less_exclusions.txt	LTP228	ltpFR	17	4	-1	CLIPPERS	324	n/a	-1	n/a	n/a	n/a	n/a	n/a
699225	REC_WORD	wordpools/wasnorm_wordpool_less_exclusions.txt	LTP228	ltpFR	17	4	-1	FRIAR	605	n/a	-1	n/a	n/a	n/a	n/a	n/a
701599	REC_WORD	wordpools/wasnorm_wordpool_less_exclusions.txt	LTP228	ltpFR	17	4	-1	CAFETERIA	217	n/a	-1	n/a	n/a	n/a	n/a	n/a
702477	REC_WORD	wordpools/wasnorm_wordpool_less_exclusions.txt	LTP228	ltpFR	17	4	-1	CHEF	290	n/a	-1	n/a	n/a	n/a	n/a	n/a
770525	WORD	wordpools/wasnorm_wordpool_less_exclusions.txt	LTP228	ltpFR	17	5	0	FOX	598	n/a	1	1	0.412841796875	0.57763671875	upper	../fonts/amplitud.ttf
774687	WORD	wordpools/wasnorm_wordpool_less_exclusions.txt	LTP228	ltpFR	17	5	0	ANTENNA	28	n/a	0	1	0.412841796875	0.57763671875	upper	../fonts/amplitud.ttf
778605	WORD	wordpools/wasnorm_wordpool_less_exclusions.txt	LTP228	ltpFR	17	5	0	COWBOY	395	n/a	1	1	0.412841796875	0.57763671875	upper	../fonts/amplitud.ttf
782817	WORD	wordpools/wasnorm_wordpool_less_exclusions.txt	LTP228	ltpFR	17	5	0	CAT	257	n/a	1	1	0.412841796875	0.57763671875	upper	../fonts/amplitud.ttf
786836	WORD	wordpools/wasnorm_wordpool_less_exclusions.txt	LTP228	ltpFR	17	5	0	CANDLE	229	n/a	0	1	0.412841796875	0.57763671875	upper	../fonts/amplitud.ttf
791016	WORD	wordpools/wasnorm_wordpool_less_exclusions.txt	LTP228	ltpFR	17	5	0	PLANET	1082	n/a	1	1	0.412841796875	0.57763671875	upper	../fonts/amplitud.ttf
795169	WORD	wordpools/wasnorm_wordpool_less_exclusions.txt	LTP228	ltpFR	17	5	0	NEPTUNE	943	n/a	1	1	0.412841796875	0.57763671875	upper	../fonts/amplitud.ttf
799033	WORD	wordpools/wasnorm_wordpool_less_exclusions.txt	LTP228	ltpFR	17	5	0	POCKET	1093	n/a	0	1	0.412841796875	0.57763671875	upper	../fonts/amplitud.ttf
803199	WORD	wordpools/wasnorm_wordpool_less_exclusions.txt	LTP228	ltpFR	17	5	0	SWORD	1423	n/a	1	1	0.412841796875	0.57763671875	upper	../fonts/amplitud.ttf
807314	WORD	wordpools/wasnorm_wordpool_less_exclusions.txt	LTP228	ltpFR	17	5	0	DIAMOND	458	n/a	0	1	0.412841796875	0.57763671875	upper	../fonts/amplitud.ttf
811363	WORD	wordpools/wasnorm_wordpool_less_exclusions.txt	LTP228	ltpFR	17	5	0	ARENA	37	n/a	1	1	0.412841796875	0.57763671875	upper	../fonts/amplitud.ttf
815328	WORD	wordpools/wasnorm_wordpool_less_exclusions.txt	LTP228	ltpFR	17	5	0	RANCH	1166	n/a	1	1	0.412841796875	0.57763671875	upper	../fonts/amplitud.ttf
819509	WORD	wordpools/wasnorm_wordpool_less_exclusions.txt	LTP228	ltpFR	17	5	0	KETTLE	772	n/a	0	1	0.412841796875	0.57763671875	upper	../fonts/amplitud.ttf
823591	WORD	wordpools/wasnorm_wordpool_less_exclusions.txt	LTP228	ltpFR	17	5	0	STEAM	1375	n/a	0	1	0.412841796875	0.57763671875	upper	../fonts/amplitud.ttf
827757	WORD	wordpools/wasnorm_wordpool_less_exclusions.txt	LTP228	ltpFR	17	5	0	VEHICLE	1553	n/a	1	1	0.412841796875	0.57763671875	upper	../fonts/amplitud.ttf
831772	WORD	wordpools/wasnorm_wordpool_less_exclusions.txt	LTP228	ltpFR	17	5	0	COYOTE	396	n/a	1	1	0.412841796875	0.57763671875	upper	../fonts/amplitud.ttf
837662	REC_START	n/a	LTP228	ltpFR	17	5	n/a	n/a	n/a	n/a	n/a	n/a	n/a	n/a	n/a	n/a
839447	REC_WORD	wordpools/wasnorm_wordpool_less_exclusions.txt	LTP228	ltpFR	17	5	0	FOX	598	n/a	1	n/a	n/a	n/a	n/a	n/a
840260	REC_WORD	wordpools/wasnorm_wordpool_less_exclusions.txt	LTP228	ltpFR	17	5	0	ANTENNA	28	n/a	0	n/a	n/a	n/a	n/a	n/a
841044	REC_WORD	wordpools/wasnorm_wordpool_less_exclusions.txt	LTP228	ltpFR	17	5	0	COWBOY	395	n/a	1	n/a	n/a	n/a	n/a	n/a
841937	REC_WORD	wordpools/wasnorm_wordpool_less_exclusions.txt	LTP228	ltpFR	17	5	0	CAT	257	n/a	1	n/a	n/a	n/a	n/a	n/a
842920	REC_WORD	wordpools/wasnorm_wordpool_less_exclusions.txt	LTP228	ltpFR	17	5	0	KETTLE	772	n/a	0	n/a	n/a	n/a	n/a	n/a
843603	REC_WORD	wordpools/wasnorm_wordpool_less_exclusions.txt	LTP228	ltpFR	17	5	0	PLANET	1082	n/a	1	n/a	n/a	n/a	n/a	n/a
844433	REC_WORD	wordpools/wasnorm_wordpool_less_exclusions.txt	LTP228	ltpFR	17	5	0	NEPTUNE	943	n/a	1	n/a	n/a	n/a	n/a	n/a
845389	REC_WORD	wordpools/wasnorm_wordpool_less_exclusions.txt	LTP228	ltpFR	17	5	0	POCKET	1093	n/a	0	n/a	n/a	n/a	n/a	n/a
947292	WORD	wordpools/wasnorm_wordpool_less_exclusions.txt	LTP228	ltpFR	17	6	1	STAKE	1368	n/a	0	0	0.5869140625	0.422607421875	lower	../fonts/zerothre.ttf
951440	WORD	wordpools/wasnorm_wordpool_less_exclusions.txt	LTP228	ltpFR	17	6	1	FLEA	577	n/a	0	0	0.5869140625	0.422607421875	lower	../fonts/zerothre.ttf
955322	WORD	wordpools/wasnorm_wordpool_less_exclusions.txt	LTP228	ltpFR	17	6	1	BUSH	202	n/a	0	0	0.5869140625	0.422607421875	lower	../fonts/zerothre.ttf
959220	WORD	wordpools/wasnorm_wordpool_less_exclusions.txt	LTP228	ltpFR	17	6	1	SUIT	1402	n/a	0	0	0.5869140625	0.422607421875	lower	../fonts/zerothre.ttf
963169	WORD	wordpools/wasnorm_wordpool_less_exclusions.txt	LTP228	ltpFR	17	6	1	DYNAMITE	511	n/a	0	0	0.5869140625	0.422607421875	lower	../fonts/zerothre.ttf
967066	WORD	wordpools/wasnorm_wordpool_less_exclusions.txt	LTP228	ltpFR	17	6	1	FISH	571	n/a	1	0	0.5869140625	0.422607421875	lower	../fonts/zerothre.ttf
971078	WORD	wordpools/wasnorm_wordpool_less_exclusions.txt	LTP228	ltpFR	17	6	1	SERVER	1272	n/a	1	0	0.5869140625	0.422607421875	lower	../fonts/zerothre.ttf
975130	WORD	wordpools/wasnorm_wordpool_less_exclusions.txt	LTP228	ltpFR	17	6	1	HOSTESS	723	n/a	1	0	0.5869140625	0.422607421875	lower	../fonts/zerothre.ttf
979313	WORD	wordpools/wasnorm_wordpool_less_exclusions.txt	LTP228	ltpFR	17	6	1	FOREST	593	n/a	1	0	0.5869140625	0.422607421875	lower	../fonts/zerothre.ttf
983274	WORD	wordpools/wasnorm_wordpool_less_exclusions.txt	LTP228	ltpFR	17	6	1	FLIPPER	580	n/a	1	0	0.5869140625	0.422607421875	lower	../fonts/zerothre.ttf
987472	WORD	wordpools/wasnorm_wordpool_less_exclusions.txt	LTP228	ltpFR	17	6	1	TRIANGLE	1504	n/a	0	0	0.5869140625	0.422607421875	lower	../fonts/zerothre.ttf
991408	WORD	wordpools/wasnorm_wordpool_less_exclusions.txt	LTP228	ltpFR	17	6	1	SHACK	1273	n/a	0	0	0.5869140625	0.422607421875	lower	../fonts/zerothre.ttf
995306	WORD	wordpools/wasnorm_wordpool_less_exclusions.txt	LTP228	ltpFR	17	6	1	SUBURB	1399	n/a	0	0	0.5869140625	0.422607421875	lower	../fonts/zerothre.ttf
999454	WORD	wordpools/wasnorm_wordpool_less_exclusions.txt	LTP228	ltpFR	17	6	1	HAM	678	n/a	1	0	0.5869140625	0.422607421875	lower	../fonts/zerothre.ttf
1003387	WORD	wordpools/wasnorm_wordpool_less_exclusions.txt	LTP228	ltpFR	17	6	1	BANQUET	86	n/a	0	0	0.5869140625	0.422607421875	lower	../fonts/zerothre.ttf
1007581	WORD	wordpools/wasnorm_wordpool_less_exclusions.txt	LTP228	ltpFR	17	6	1	LAUNDRY	803	n/a	0	0	0.5869140625	0.422607421875	lower	../fonts/zerothre.ttf
1013409	REC_START	n/a	LTP228	ltpFR	17	6	n/a	n/a	n/a	n/a	n/a	n/a	n/a	n/a	n/a	n/a
1014606	REC_WORD	wordpools/wasnorm_wordpool_less_exclusions.txt	LTP228	ltpFR	17	6	1	STAKE	1368	n/a	0	n/a	n/a	n/a	n/a	n/a
1015409	REC_WORD	wordpools/wasnorm_wordpool_less_exclusions.txt	LTP228	ltpFR	17	6	1	FLEA	577	n/a	0	n/a	n/a	n/a	n/a	n/a
1016277	REC_WORD	wordpools/wasnorm_wordpool_less_exclusions.txt	LTP228	ltpFR	17	6	1	BUSH	202	n/a	0	n/a	n/a	n/a	n/a	n/a
1016761	REC_WORD	wordpools/wasnorm_wordpool_less_exclusions.txt	LTP228	ltpFR	17	6	1	SUIT	1402	n/a	0	n/a	n/a	n/a	n/a	n/a
1017759	REC_WORD	wordpools/wasnorm_wordpool_less_exclusions.txt	LTP228	ltpFR	17	6	1	DYNAMITE	511	n/a	0	n/a	n/a	n/a	n/a	n/a
1018257	REC_WORD	wordpools/wasnorm_wordpool_less_exclusions.txt	LTP228	ltpFR	17	6	1	FLIPPER	580	n/a	1	n/a	n/a	n/a	n/a	n/a
1019919	REC_WORD	wordpools/wasnorm_wordpool_less_exclusions.txt	LTP228	ltpFR	17	6	1	LAUNDRY	803	n/a	0	n/a	n/a	n/a	n/a	n/a
1126300	WORD	wordpools/wasnorm_wordpool_less_exclusions.txt	LTP228	ltpFR	17	7	1	SODA	1341	n/a	0	0	0.5869140625	0.422607421875	lower	../fonts/zerothre.ttf
1130349	WORD	wordpools/wasnorm_wordpool_less_exclusions.txt	LTP228	ltpFR	17	7	1	FIN	566	n/a	0	0	0.5869140625	0.422607421875	lower	../fonts/zerothre.ttf
1134280	WORD	wordpools/wasnorm_wordpool_less_exclusions.txt	LTP228	ltpFR	17	7	1	RUST	1219	n/a	0	0	0.5869140625	0.422607421875	lower	../fonts/zerothre.ttf
1138128	WORD	wordpools/wasnorm_wordpool_less_exclusions.txt	LTP228	ltpFR	17	7	1	HARE	688	n/a	1	0	0.5869140625	0.422607421875	lower	../fonts/zerothre.ttf
1142076	WORD	wordpools/wasnorm_wordpool_less_exclusions.txt	LTP228	ltpFR	17	7	1	TEMPLE	1448	n/a	0	0	0.5869140625	0.422607421875	lower	../fonts/zerothre.ttf
1145924	WORD	wordpools/wasnorm_wordpool_less_exclusions.txt	LTP228	ltpFR	17	7	1	STOVE	1388	n/a	0	0	0.5869140625	0.422607421875	lower	../fonts/zerothre.ttf
1149771	WORD	wordpools/wasnorm_wordpool_less_exclusions.txt	LTP228	ltpFR	17	7	1	TUB	1514	n/a	0	0	0.5869140625	0.422607421875	lower	../fonts/zerothre.ttf
1153886	WORD	wordpools/wasnorm_wordpool_less_exclusions.txt	LTP228	ltpFR	17	7	1	SATURN	1236	n/a	0	0	0.5869140625	0.422607421875	lower	../fonts/zerothre.ttf
1157953	WORD	wordpools/wasnorm_wordpool_less_exclusions.txt	LTP228	ltpFR	17	7	1	PERSON	1052	n/a	1	0	0.5869140625	0.422607421875	lower	../fonts/zerothre.ttf
1161783	WORD	wordpools/wasnorm_wordpool_less_exclusions.txt	LTP228	ltpFR	17	7	1	PEOPLE	1046	n/a	1	0	0.5869140625	0.422607421875	lower	../fonts/zerothre.ttf
1165631	WORD	wordpools/wasnorm_wordpool_less_exclusions.txt	LTP228	ltpFR	17	7	1	ACTRESS	6	n/a	1	0	0.5869140625	0.422607421875	lower	../fonts/zerothre.ttf
1169562	WORD	wordpools/wasnorm_wordpool_less_exclusions.txt	LTP228	ltpFR	17	7	1	BIRD	129	n/a	1	0	0.5869140625	0.422607421875	lower	../fonts/zerothre.ttf
1173411	WORD	wordpools/wasnorm_wordpool_less_exclusions.txt	LTP228	ltpFR	17	7	1	CARDINAL	244	n/a	1	0	0.5869140625	0.422607421875	lower	../fonts/zerothre.ttf
1177242	WORD	wordpools/wasnorm_wordpool_less_exclusions.txt	LTP228	ltpFR	17	7	1	ENGINE	535	n/a	0	0	0.5869140625	0.422607421875	lower	../fonts/zerothre.ttf
1181324	WORD	wordpools/wasnorm_wordpool_less_exclusions.txt	LTP228	ltpFR	17	7	1	SHRIMP	1297	n/a	1	0	0.5869140625	0.422607421875	lower	../fonts/zerothre.ttf
1185339	WORD	wordpools/wasnorm_wordpool_less_exclusions.txt	LTP228	ltpFR	17	7	1	THICKET	1455	n/a	1	0	0.5869140625	0.422607421875	lower	../fonts/zerothre.ttf
1191128	REC_START	n/a	LTP228	ltpFR	17	7	n/a	n/a	n/a	n/a	n/a	n/a	n/a	n/a	n/a	n/a
1196620	REC_WORD	wordpools/wasnorm_wordpool_less_exclusions.txt	LTP228	ltpFR	17	7	1	SODA	1341	n/a	0	n/a	n/a	n/a	n/a	n/a
1197398	REC_WORD	wordpools/wasnorm_wordpool_less_exclusions.txt	LTP228	ltpFR	17	7	1	FIN	566	n/a	0	n/a	n/a	n/a	n/a	n/a
1201883	REC_WORD	wordpools/wasnorm_wordpool_less_exclusions.txt	LTP228	ltpFR	17	7	1	THICKET	1455	n/a	1	n/a	n/a	n/a	n/a	n/a
1202906	REC_WORD	wordpools/wasnorm_wordpool_less_exclusions.txt	LTP228	ltpFR	17	7	1	PEOPLE	1046	n/a	1	n/a	n/a	n/a	n/a	n/a
1203769	REC_WORD	wordpools/wasnorm_wordpool_less_exclusions.txt	LTP228	ltpFR	17	7	1	PERSON	1052	n/a	1	n/a	n/a	n/a	n/a	n/a
1206742	REC_WORD	wordpools/wasnorm_wordpool_less_exclusions.txt	LTP228	ltpFR	17	7	1	ACTRESS	6	n/a	1	n/a	n/a	n/a	n/a	n/a
1334764	WORD	wordpools/wasnorm_wordpool_less_exclusions.txt	LTP228	ltpFR	17	8	0	ICE	730	n/a	0	1	0.412841796875	0.57763671875	upper	../fonts/amplitud.ttf
1338968	WORD	wordpools/wasnorm_wordpool_less_exclusions.txt	LTP228	ltpFR	17	8	0	MANSION	864	n/a	1	1	0.412841796875	0.57763671875	upper	../fonts/amplitud.ttf
1342899	WORD	wordpools/wasnorm_wordpool_less_exclusions.txt	LTP228	ltpFR	17	8	0	CHAMBER	277	n/a	1	1	0.412841796875	0.57763671875	upper	../fonts/amplitud.ttf
1346948	WORD	wordpools/wasnorm_wordpool_less_exclusions.txt	LTP228	ltpFR	17	8	0	CHIEF	298	n/a	1	1	0.412841796875	0.57763671875	upper	../fonts/amplitud.ttf
1350913	WORD	wordpools/wasnorm_wordpool_less_exclusions.txt	LTP228	ltpFR	17	8	0	WAGON	1578	n/a	1	1	0.412841796875	0.57763671875	upper	../fonts/amplitud.ttf
1354806	WORD	wordpools/wasnorm_wordpool_less_exclusions.txt	LTP228	ltpFR	17	8	1	WHEEL	1603	n/a	0	0	0.5869140625	0.422607421875	lower	../fonts/zerothre.ttf
1358927	WORD	wordpools/wasnorm_wordpool_less_exclusions.txt	LTP228	ltpFR	17	8	1	CHICK	296	n/a	0	0	0.5869140625	0.422607421875	lower	../fonts/zerothre.ttf
1362942	WORD	wordpools/wasnorm_wordpool_less_exclusions.txt	LTP228	ltpFR	17	8	1	CARROT	249	n/a	1	0	0.5869140625	0.422607421875	lower	../fonts/zerothre.ttf
1366923	WORD	wordpools/wasnorm_wordpool_less_exclusions.txt	LTP228	ltpFR	17	8	1	WHALE	1601	n/a	1	0	0.5869140625	0.422607421875	lower	../fonts/zerothre.ttf
1370905	WORD	wordpools/wasnorm_wordpool_less_exclusions.txt	LTP228	ltpFR	17	8	0	MOWER	928	n/a	1	1	0.412841796875	0.57763671875	upper	../fonts/amplitud.ttf
1374819	WORD	wordpools/wasnorm_wordpool_less_exclusions.txt	LTP228	ltpFR	17	8	0	IGLOO	734	n/a	1	1	0.412841796875	0.57763671875	upper	../fonts/amplitud.ttf
1378750	WORD	wordpools/wasnorm_wordpool_less_exclusions.txt	LTP228	ltpFR	17	8	0	SEAFOOD	1260	n/a	1	1	0.412841796875	0.57763671875	upper	../fonts/amplitud.ttf
1382632	WORD	wordpools/wasnorm_wordpool_less_exclusions.txt	LTP228	ltpFR	17	8	1	SEAGULL	1261	n/a	1	0	0.5869140625	0.422607421875	lower	../fonts/zerothre.ttf
1386496	WORD	wordpools/wasnorm_wordpool_less_exclusions.txt	LTP228	ltpFR	17	8	1	BOOTH	151	n/a	0	0	0.5869140625	0.422607421875	lower	../fonts/zerothre.ttf
1390528	WORD	wordpools/wasnorm_wordpool_less_exclusions.txt	LTP228	ltpFR	17	8	1	TELEPHONE	1445	n/a	0	0	0.5869140625	0.422607421875	lower	../fonts/zerothre.ttf
1394460	WORD	wordpools/wasnorm_wordpool_less_exclusions.txt	LTP228	ltpFR	17	8	1	OFFICER	973	n/a	1	0	0.5869140625	0.422607421875	lower	../fonts/zerothre.ttf
1400517	REC_START	n/a	LTP228	ltpFR	17	8	n/a	n/a	n/a	n/a	n/a	n/a	n/a	n/a	n/a	n/a
1405585	REC_WORD	wordpools/wasnorm_wordpool_less_exclusions.txt	LTP228	ltpFR	17	8	0	ICE	730	n/a	0	n/a	n/a	n/a	n/a	n/a
1406229	REC_WORD	wordpools/wasnorm_wordpool_less_exclusions.txt	LTP228	ltpFR	17	8	0	MANSION	864	n/a	1	n/a	n/a	n/a	n/a	n/a
1406972	REC_WORD	wordpools/wasnorm_wordpool_less_exclusions.txt	LTP228	ltpFR	17	8	0	CHAMBER	277	n/a	1	n/a	n/a	n/a	n/a	n/a
1407795	REC_WORD	wordpools/wasnorm_wordpool_less_exclusions.txt	LTP228	ltpFR	17	8	0	CHIEF	298	n/a	1	n/a	n/a	n/a	n/a	n/a
1408374	REC_WORD	wordpools/wasnorm_wordpool_less_exclusions.txt	LTP228	ltpFR	17	8	0	WAGON	1578	n/a	1	n/a	n/a	n/a	n/a	n/a
1409297	REC_WORD	wordpools/wasnorm_wordpool_less_exclusions.txt	LTP228	ltpFR	17	8	1	WHEEL	1603	n/a	0	n/a	n/a	n/a	n/a	n/a
1410374	REC_WORD	wordpools/wasnorm_wordpool_less_exclusions.txt	LTP228	ltpFR	17	8	1	CHICK	296	n/a	0	n/a	n/a	n/a	n/a	n/a
1411173	REC_WORD	wordpools/wasnorm_wordpool_less_exclusions.txt	LTP228	ltpFR	17	8	1	CARROT	249	n/a	1	n/a	n/a	n/a	n/a	n/a
1562343	WORD	wordpools/wasnorm_wordpool_less_exclusions.txt	LTP228	ltpFR	17	9	0	RAG	1160	n/a	0	1	0.412841796875	0.57763671875	upper	../fonts/amplitud.ttf
1566541	WORD	wordpools/wasnorm_wordpool_less_exclusions.txt	LTP228	ltpFR	17	9	0	CLOSET	326	n/a	1	1	0.412841796875	0.57763671875	upper	../fonts/amplitud.ttf
1570620	WORD	wordpools/wasnorm_wordpool_less_exclusions.txt	LTP228	ltpFR	17	9	0	RUBY	1214	n/a	0	1	0.412841796875	0.57763671875	upper	../fonts/amplitud.ttf
1574789	WORD	wordpools/wasnorm_wordpool_less_exclusions.txt	LTP228	ltpFR	17	9	0	BOUQUET	157	n/a	0	1	0.412841796875	0.57763671875	upper	../fonts/amplitud.ttf
1578851	WORD	wordpools/wasnorm_wordpool_less_exclusions.txt	LTP228	ltpFR	17	9	0	WINNER	1615	n/a	1	1	0.412841796875	0.57763671875	upper	../fonts/amplitud.ttf
1582934	WORD	wordpools/wasnorm_wordpool_less_exclusions.txt	LTP228	ltpFR	17	9	0	SAPPHIRE	1234	n/a	0	1	0.412841796875	0.57763671875	upper	../fonts/amplitud.ttf
1587153	WORD	wordpools/wasnorm_wordpool_less_exclusions.txt	LTP228	ltpFR	17	9	0	BLANKET	135	n/a	1	1	0.412841796875	0.57763671875	upper	../fonts/amplitud.ttf
1591001	WORD	wordpools/wasnorm_wordpool_less_exclusions.txt	LTP228	ltpFR	17	9	0	QUILT	1151	n/a	1	1	0.412841796875	0.57763671875	upper	../fonts/amplitud.ttf
1595200	WORD	wordpools/wasnorm_wordpool_less_exclusions.txt	LTP228	ltpFR	17	9	0	CREAM	402	n/a	0	1	0.412841796875	0.57763671875	upper	../fonts/amplitud.ttf
1599165	WORD	wordpools/wasnorm_wordpool_less_exclusions.txt	LTP228	ltpFR	17	9	0	CUPBOARD	425	n/a	1	1	0.412841796875	0.57763671875	upper	../fonts/amplitud.ttf
1603147	WORD	wordpools/wasnorm_wordpool_less_exclusions.txt	LTP228	ltpFR	17	9	0	BUTTERFLY	206	n/a	0	1	0.412841796875	0.57763671875	upper	../fonts/amplitud.ttf
1607296	WORD	wordpools/wasnorm_wordpool_less_exclusions.txt	LTP228	ltpFR	17	9	0	FIDDLE	561	n/a	1	1	0.412841796875	0.57763671875	upper	../fonts/amplitud.ttf
1611477	WORD	wordpools/wasnorm_wordpool_less_exclusions.txt	LTP228	ltpFR	17	9	0	DOLL	481	n/a	0	1	0.412841796875	0.57763671875	upper	../fonts/amplitud.ttf
1615442	WORD	wordpools/wasnorm_wordpool_less_exclusions.txt	LTP228	ltpFR	17	9	0	DRAGON	492	n/a	1	1	0.412841796875	0.57763671875	upper	../fonts/amplitud.ttf
1619274	WORD	wordpools/wasnorm_wordpool_less_exclusions.txt	LTP228	ltpFR	17	9	0	ELECTRICIAN	521	n/a	1	1	0.412841796875	0.57763671875	upper	../fonts/amplitud.ttf
1623269	WORD	wordpools/wasnorm_wordpool_less_exclusions.txt	LTP228	ltpFR	17	9	0	BRICK	172	n/a	0	1	0.412841796875	0.57763671875	upper	../fonts/amplitud.ttf
1629192	REC_START	n/a	LTP228	ltpFR	17	9	n/a	n/a	n/a	n/a	n/a	n/a	n/a	n/a	n/a	n/a
1633846	REC_WORD	wordpools/wasnorm_wordpool_less_exclusions.txt	LTP228	ltpFR	17	9	0	RAG	1160	n/a	0	n/a	n/a	n/a	n/a	n/a
1634669	REC_WORD	wordpools/wasnorm_wordpool_less_exclusions.txt	LTP228	ltpFR	17	9	0	RUBY	1214	n/a	0	n/a	n/a	n/a	n/a	n/a
1635617	REC_WORD	wordpools/wasnorm_wordpool_less_exclusions.txt	LTP228	ltpFR	17	9	0	CLOSET	326	n/a	1	n/a	n/a	n/a	n/a	n/a
1638985	REC_WORD	wordpools/wasnorm_wordpool_less_exclusions.txt	LTP228	ltpFR	17	9	0	DOLL	481	n/a	0	n/a	n/a	n/a	n/a	n/a
1640979	REC_WORD	wordpools/wasnorm_wordpool_less_exclusions.txt	LTP228	ltpFR	17	9	0	FIDDLE	561	n/a	1	n/a	n/a	n/a	n/a	n/a
1641778	REC_WORD	wordpools/wasnorm_wordpool_less_exclusions.txt	LTP228	ltpFR	17	9	0	SAPPHIRE	1234	n/a	0	n/a	n/a	n/a	n/a	n/a
1647989	REC_WORD	wordpools/wasnorm_wordpool_less_exclusions.txt	LTP228	ltpFR	17	9	0	DRAGON	492	n/a	1	n/a	n/a	n/a	n/a	n/a
1754952	WORD	wordpools/wasnorm_wordpool_less_exclusions.txt	LTP228	ltpFR	17	10	1	LITTER	832	n/a	0	0	0.5869140625	0.422607421875	lower	../fonts/zerothre.ttf
1758934	WORD	wordpools/wasnorm_wordpool_less_exclusions.txt	LTP228	ltpFR	17	10	1	ANTEATER	26	n/a	1	0	0.5869140625	0.422607421875	lower	../fonts/zerothre.ttf
1762881	WORD	wordpools/wasnorm_wordpool_less_exclusions.txt	LTP228	ltpFR	17	10	1	SNAIL	1332	n/a	1	0	0.5869140625	0.422607421875	lower	../fonts/zerothre.ttf
1766846	WORD	wordpools/wasnorm_wordpool_less_exclusions.txt	LTP228	ltpFR	17	10	1	SALAD	1224	n/a	0	0	0.5869140625	0.422607421875	lower	../fonts/zerothre.ttf
1770677	WORD	wordpools/wasnorm_wordpool_less_exclusions.txt	LTP228	ltpFR	17	10	0	PADDLE	1000	n/a	1	1	0.412841796875	0.57763671875	upper	../fonts/amplitud.ttf
1774588	WORD	wordpools/wasnorm_wordpool_less_exclusions.txt	LTP228	ltpFR	17	10	0	DECK	443	n/a	0	1	0.412841796875	0.57763671875	upper	../fonts/amplitud.ttf
1778674	WORD	wordpools/wasnorm_wordpool_less_exclusions.txt	LTP228	ltpFR	17	10	0	CHECKERS	285	n/a	0	1	0.412841796875	0.57763671875	upper	../fonts/amplitud.ttf
1782606	WORD	wordpools/wasnorm_wordpool_less_exclusions.txt	LTP228	ltpFR	17	10	0	BASKETBALL	96	n/a	1	1	0.412841796875	0.57763671875	upper	../fonts/amplitud.ttf
1786604	WORD	wordpools/wasnorm_wordpool_less_exclusions.txt	LTP228	ltpFR	17	10	0	BUYER	208	n/a	1	1	0.412841796875	0.57763671875	upper	../fonts/amplitud.ttf
1790532	WORD	wordpools/wasnorm_wordpool_less_exclusions.txt	LTP228	ltpFR	17	10	0	RAKE	1164	n/a	0	1	0.412841796875	0.57763671875	upper	../fonts/amplitud.ttf
1794697	WORD	wordpools/wasnorm_wordpool_less_exclusions.txt	LTP228	ltpFR	17	10	1	GARBAGE	622	n/a	0	0	0.5869140625	0.422607421875	lower	../fonts/zerothre.ttf
1798545	WORD	wordpools/wasnorm_wordpool_less_exclusions.txt	LTP228	ltpFR	17	10	1	PAWN	1030	n/a	1	0	0.5869140625	0.422607421875	lower	../fonts/zerothre.ttf
1802715	WORD	wordpools/wasnorm_wordpool_less_exclusions.txt	LTP228	ltpFR	17	10	1	MOTH	920	n/a	1	0	0.5869140625	0.422607421875	lower	../fonts/zerothre.ttf
1806747	WORD	wordpools/wasnorm_wordpool_less_exclusions.txt	LTP228	ltpFR	17	10	1	BRUNETTE	181	n/a	1	0	0.5869140625	0.422607421875	lower	../fonts/zerothre.ttf
1810728	WORD	wordpools/wasnorm_wordpool_less_exclusions.txt	LTP228	ltpFR	17	10	0	ZEBRA	1635	n/a	1	1	0.412841796875	0.57763671875	upper	../fonts/amplitud.ttf
1814810	WORD	wordpools/wasnorm_wordpool_less_exclusions.txt	LTP228	ltpFR	17	10	0	BUFFALO	186	n/a	1	1	0.412841796875	0.57763671875	upper	../fonts/amplitud.ttf
1820767	REC_START	n/a	LTP228	ltpFR	17	10	n/a	n/a	n/a	n/a	n/a	n/a	n/a	n/a	n/a	n/a
1825217	REC_WORD	wordpools/wasnorm_wordpool_less_exclusions.txt	LTP228	ltpFR	17	10	1	LITTER	832	n/a	0	n/a	n/a	n/a	n/a	n/a
1825855	REC_WORD	wordpools/wasnorm_wordpool_less_exclusions.txt	LTP228	ltpFR	17	10	0	CHECKERS	285	n/a	0	n/a	n/a	n/a	n/a	n/a
1826698	REC_WORD	wordpools/wasnorm_wordpool_less_exclusions.txt	LTP228	ltpFR	17	10	0	ZEBRA	1635	n/a	1	n/a	n/a	n/a	n/a	n/a
1827496	REC_WORD	wordpools/wasnorm_wordpool_less_exclusions.txt	LTP228	ltpFR	17	10	1	PAWN	1030	n/a	1	n/a	n/a	n/a	n/a	n/a
1828350	REC_WORD	wordpools/wasnorm_wordpool_less_exclusions.txt	LTP228	ltpFR	17	10	1	MOTH	920	n/a	1	n/a	n/a	n/a	n/a	n/a
1847970	REC_WORD	wordpools/wasnorm_wordpool_less_exclusions.txt	LTP228	ltpFR	17	10	1	GARBAGE	622	n/a	0	n/a	n/a	n/a	n/a	n/a
1849407	REC_WORD	wordpools/wasnorm_wordpool_less_exclusions.txt	LTP228	ltpFR	17	10	1	SALAD	1224	n/a	0	n/a	n/a	n/a	n/a	n/a
1927319	WORD	wordpools/wasnorm_wordpool_less_exclusions.txt	LTP228	ltpFR	17	11	1	PELICAN	1039	n/a	1	0	0.5869140625	0.422607421875	lower	../fonts/zerothre.ttf
1931483	WORD	wordpools/wasnorm_wordpool_less_exclusions.txt	LTP228	ltpFR	17	11	1	FEATHER	557	n/a	0	0	0.5869140625	0.422607421875	lower	../fonts/zerothre.ttf
1935645	WORD	wordpools/wasnorm_wordpool_less_exclusions.txt	LTP228	ltpFR	17	11	1	SPINE	1353	n/a	1	0	0.5869140625	0.422607421875	lower	../fonts/zerothre.ttf
1939744	WORD	wordpools/wasnorm_wordpool_less_exclusions.txt	LTP228	ltpFR	17	11	0	MAMMAL	861	n/a	1	1	0.412841796875	0.57763671875	upper	../fonts/amplitud.ttf
1943746	WORD	wordpools/wasnorm_wordpool_less_exclusions.txt	LTP228	ltpFR	17	11	0	COMB	351	n/a	0	1	0.412841796875	0.57763671875	upper	../fonts/amplitud.ttf
1947878	WORD	wordpools/wasnorm_wordpool_less_exclusions.txt	LTP228	ltpFR	17	11	0	BUTTON	207	n/a	0	1	0.412841796875	0.57763671875	upper	../fonts/amplitud.ttf
1951793	WORD	wordpools/wasnorm_wordpool_less_exclusions.txt	LTP228	ltpFR	17	11	1	YARN	1631	n/a	0	0	0.5869140625	0.422607421875	lower	../fonts/zerothre.ttf
1955859	WORD	wordpools/wasnorm_wordpool_less_exclusions.txt	LTP228	ltpFR	17	11	1	WOLF	1619	n/a	1	0	0.5869140625	0.422607421875	lower	../fonts/zerothre.ttf
1960055	WORD	wordpools/wasnorm_wordpool_less_exclusions.txt	LTP228	ltpFR	17	11	0	BEAST	108	n/a	3	1	0.412841796875	0.57763671875	upper	../fonts/amplitud.ttf
1960929	KEY_MSG	n/a	LTP228	ltpFR	17	11	n/a	n/a	n/a	n/a	n/a	n/a	n/a	n/a	n/a	n/a
1964107	WORD	wordpools/wasnorm_wordpool_less_exclusions.txt	LTP228	ltpFR	17	11	0	CEILING	265	n/a	1	1	0.412841796875	0.57763671875	upper	../fonts/amplitud.ttf
1968022	WORD	wordpools/wasnorm_wordpool_less_exclusions.txt	LTP228	ltpFR	17	11	0	VEST	1559	n/a	0	1	0.412841796875	0.57763671875	upper	../fonts/amplitud.ttf
1972238	WORD	wordpools/wasnorm_wordpool_less_exclusions.txt	LTP228	ltpFR	17	11	0	SECRETARY	1265	n/a	1	1	0.412841796875	0.57763671875	upper	../fonts/amplitud.ttf
1976453	WORD	wordpools/wasnorm_wordpool_less_exclusions.txt	LTP228	ltpFR	17	11	0	PARENT	1013	n/a	1	1	0.412841796875	0.57763671875	upper	../fonts/amplitud.ttf
1980568	WORD	wordpools/wasnorm_wordpool_less_exclusions.txt	LTP228	ltpFR	17	11	1	APRON	35	n/a	1	0	0.5869140625	0.422607421875	lower	../fonts/zerothre.ttf
1984784	WORD	wordpools/wasnorm_wordpool_less_exclusions.txt	LTP228	ltpFR	17	11	1	PORCUPINE	1107	n/a	1	0	0.5869140625	0.422607421875	lower	../fonts/zerothre.ttf
1988649	WORD	wordpools/wasnorm_wordpool_less_exclusions.txt	LTP228	ltpFR	17	11	1	CERAMICS	271	n/a	0	0	0.5869140625	0.422607421875	lower	../fonts/zerothre.ttf
1994438	REC_START	n/a	LTP228	ltpFR	17	11	n/a	n/a	n/a	n/a	n/a	n/a	n/a	n/a	n/a	n/a
1997266	REC_WORD	wordpools/wasnorm_wordpool_less_exclusions.txt	LTP228	ltpFR	17	11	1	PELICAN	1039	n/a	1	n/a	n/a	n/a	n/a	n/a
1997765	REC_WORD	wordpools/wasnorm_wordpool_less_exclusions.txt	LTP228	ltpFR	17	11	1	FEATHER	557	n/a	0	n/a	n/a	n/a	n/a	n/a
1998593	REC_WORD	wordpools/wasnorm_wordpool_less_exclusions.txt	LTP228	ltpFR	17	11	0	BEAST	108	n/a	3	n/a	n/a	n/a	n/a	n/a
1999227	REC_WORD	wordpools/wasnorm_wordpool_less_exclusions.txt	LTP228	ltpFR	17	11	1	APRON	35	n/a	1	n/a	n/a	n/a	n/a	n/a
2000714	REC_WORD	wordpools/wasnorm_wordpool_less_exclusions.txt	LTP228	ltpFR	17	11	1	PORCUPINE	1107	n/a	1	n/a	n/a	n/a	n/a	n/a
2008391	REC_WORD	wordpools/wasnorm_wordpool_less_exclusions.txt	LTP228	ltpFR	17	11	0	MAMMAL	861	n/a	1	n/a	n/a	n/a	n/a	n/a
2098079	WORD	wordpools/wasnorm_wordpool_less_exclusions.txt	LTP228	ltpFR	17	12	1	ATMOSPHERE	54	n/a	0	0	0.5869140625	0.422607421875	lower	../fonts/zerothre.ttf
2101994	WORD	wordpools/wasnorm_wordpool_less_exclusions.txt	LTP228	ltpFR	17	12	1	TART	1436	n/a	0	0	0.5869140625	0.422607421875	lower	../fonts/zerothre.ttf
2106209	WORD	wordpools/wasnorm_wordpool_less_exclusions.txt	LTP228	ltpFR	17	12	1	HAMBURGER	679	n/a	0	0	0.5869140625	0.422607421875	lower	../fonts/zerothre.ttf
2110375	WORD	wordpools/wasnorm_wordpool_less_exclusions.txt	LTP228	ltpFR	17	12	1	HOUSE	725	n/a	1	0	0.5869140625	0.422607421875	lower	../fonts/zerothre.ttf
2114323	WORD	wordpools/wasnorm_wordpool_less_exclusions.txt	LTP228	ltpFR	17	12	1	EWE	542	n/a	1	0	0.5869140625	0.422607421875	lower	../fonts/zerothre.ttf
2118455	WORD	wordpools/wasnorm_wordpool_less_exclusions.txt	LTP228	ltpFR	17	12	1	PLUTO	1092	n/a	0	0	0.5869140625	0.422607421875	lower	../fonts/zerothre.ttf
2122287	WORD	wordpools/wasnorm_wordpool_less_exclusions.txt	LTP228	ltpFR	17	12	1	DUCK	504	n/a	1	0	0.5869140625	0.422607421875	lower	../fonts/zerothre.ttf
2126451	WORD	wordpools/wasnorm_wordpool_less_exclusions.txt	LTP228	ltpFR	17	12	1	ROBIN	1199	n/a	1	0	0.5869140625	0.422607421875	lower	../fonts/zerothre.ttf
2130380	WORD	wordpools/wasnorm_wordpool_less_exclusions.txt	LTP228	ltpFR	17	12	1	CROW	414	n/a	1	0	0.5869140625	0.422607421875	lower	../fonts/zerothre.ttf
2134282	WORD	wordpools/wasnorm_wordpool_less_exclusions.txt	LTP228	ltpFR	17	12	1	LEOPARD	812	n/a	1	0	0.5869140625	0.422607421875	lower	../fonts/zerothre.ttf
2138430	WORD	wordpools/wasnorm_wordpool_less_exclusions.txt	LTP228	ltpFR	17	12	1	COLLAR	345	n/a	0	0	0.5869140625	0.422607421875	lower	../fonts/zerothre.ttf
2142525	WORD	wordpools/wasnorm_wordpool_less_exclusions.txt	LTP228	ltpFR	17	12	1	CORD	379	n/a	0	0	0.5869140625	0.422607421875	lower	../fonts/zerothre.ttf
2146745	WORD	wordpools/wasnorm_wordpool_less_exclusions.txt	LTP228	ltpFR	17	12	1	SNORKEL	1336	n/a	0	0	0.5869140625	0.422607421875	lower	../fonts/zerothre.ttf
2150894	WORD	wordpools/wasnorm_wordpool_less_exclusions.txt	LTP228	ltpFR	17	12	1	CORAL	378	n/a	0	0	0.5869140625	0.422607421875	lower	../fonts/zerothre.ttf
2154825	WORD	wordpools/wasnorm_wordpool_less_exclusions.txt	LTP228	ltpFR	17	12	1	GOOSE	649	n/a	1	0	0.5869140625	0.422607421875	lower	../fonts/zerothre.ttf
2158753	WORD	wordpools/wasnorm_wordpool_less_exclusions.txt	LTP228	ltpFR	17	12	1	UNIVERSE	1540	n/a	1	0	0.5869140625	0.422607421875	lower	../fonts/zerothre.ttf
2164413	REC_START	n/a	LTP228	ltpFR	17	12	n/a	n/a	n/a	n/a	n/a	n/a	n/a	n/a	n/a	n/a
2166308	REC_WORD	wordpools/wasnorm_wordpool_less_exclusions.txt	LTP228	ltpFR	17	12	1	ATMOSPHERE	54	n/a	0	n/a	n/a	n/a	n/a	n/a
2167456	REC_WORD	wordpools/wasnorm_wordpool_less_exclusions.txt	LTP228	ltpFR	17	12	1	TART	1436	n/a	0	n/a	n/a	n/a	n/a	n/a
2168324	REC_WORD	wordpools/wasnorm_wordpool_less_exclusions.txt	LTP228	ltpFR	17	12	1	EWE	542	n/a	1	n/a	n/a	n/a	n/a	n/a
2169162	REC_WORD	wordpools/wasnorm_wordpool_less_exclusions.txt	LTP228	ltpFR	17	12	1	ROBIN	1199	n/a	1	n/a	n/a	n/a	n/a	n/a
2170000	REC_WORD	wordpools/wasnorm_wordpool_less_exclusions.txt	LTP228	ltpFR	17	12	1	CROW	414	n/a	1	n/a	n/a	n/a	n/a	n/a
2170858	REC_WORD	wordpools/wasnorm_wordpool_less_exclusions.txt	LTP228	ltpFR	17	12	1	SNORKEL	1336	n/a	0	n/a	n/a	n/a	n/a	n/a
2172130	REC_WORD	wordpools/wasnorm_wordpool_less_exclusions.txt	LTP228	ltpFR	17	12	1	UNIVERSE	1540	n/a	1	n/a	n/a	n/a	n/a	n/a
2175059	REC_WORD_VV	wordpools/wasnorm_wordpool_less_exclusions.txt	LTP228	ltpFR	17	12	n/a	<>	-1	n/a	n/a	n/a	n/a	n/a	n/a	n/a
2182851	REC_WORD	wordpools/wasnorm_wordpool_less_exclusions.txt	LTP228	ltpFR	17	12	1	LEOPARD	812	n/a	1	n/a	n/a	n/a	n/a	n/a
2240060	REST_REWET	n/a	LTP228	ltpFR	17	12	n/a	n/a	n/a	n/a	n/a	n/a	n/a	n/a	n/a	n/a
2757113	WORD	wordpools/wasnorm_wordpool_less_exclusions.txt	LTP228	ltpFR	17	13	-1	WILDERNESS	1610	n/a	-1	1	1.0	1.0	upper	../fonts/Verdana.ttf
2761262	WORD	wordpools/wasnorm_wordpool_less_exclusions.txt	LTP228	ltpFR	17	13	-1	MERMAID	887	n/a	-1	1	1.0	1.0	upper	../fonts/Verdana.ttf
2765176	WORD	wordpools/wasnorm_wordpool_less_exclusions.txt	LTP228	ltpFR	17	13	-1	MAILBOX	857	n/a	-1	1	1.0	1.0	upper	../fonts/Verdana.ttf
2769359	WORD	wordpools/wasnorm_wordpool_less_exclusions.txt	LTP228	ltpFR	17	13	-1	MAILMAN	858	n/a	-1	1	1.0	1.0	upper	../fonts/Verdana.ttf
2773470	WORD	wordpools/wasnorm_wordpool_less_exclusions.txt	LTP228	ltpFR	17	13	-1	NECKLACE	940	n/a	-1	1	1.0	1.0	upper	../fonts/Verdana.ttf
2777501	WORD	wordpools/wasnorm_wordpool_less_exclusions.txt	LTP228	ltpFR	17	13	-1	PORCH	1106	n/a	-1	1	1.0	1.0	upper	../fonts/Verdana.ttf
2781404	WORD	wordpools/wasnorm_wordpool_less_exclusions.txt	LTP228	ltpFR	17	13	-1	CIGAR	308	n/a	-1	1	1.0	1.0	upper	../fonts/Verdana.ttf
2785369	WORD	wordpools/wasnorm_wordpool_less_exclusions.txt	LTP228	ltpFR	17	13	-1	DRESSER	496	n/a	-1	1	1.0	1.0	upper	../fonts/Verdana.ttf
2789297	WORD	wordpools/wasnorm_wordpool_less_exclusions.txt	LTP228	ltpFR	17	13	-1	TUNA	1518	n/a	-1	1	1.0	1.0	upper	../fonts/Verdana.ttf
2793515	WORD	wordpools/wasnorm_wordpool_less_exclusions.txt	LTP228	ltpFR	17	13	-1	BARN	89	n/a	-1	1	1.0	1.0	upper	../fonts/Verdana.ttf
2797477	WORD	wordpools/wasnorm_wordpool_less_exclusions.txt	LTP228	ltpFR	17	13	-1	TRACTOR	1493	n/a	-1	1	1.0	1.0	upper	../fonts/Verdana.ttf
2801613	WORD	wordpools/wasnorm_wordpool_less_exclusions.txt	LTP228	ltpFR	17	13	-1	COTTAGE	384	n/a	-1	1	1.0	1.0	upper	../fonts/Verdana.ttf
2805762	WORD	wordpools/wasnorm_wordpool_less_exclusions.txt	LTP228	ltpFR	17	13	-1	PATIO	1025	n/a	-1	1	1.0	1.0	upper	../fonts/Verdana.ttf
2809860	WORD	wordpools/wasnorm_wordpool_less_exclusions.txt	LTP228	ltpFR	17	13	-1	TRASH	1497	n/a	-1	1	1.0	1.0	upper	../fonts/Verdana.ttf
2814007	WORD	wordpools/wasnorm_wordpool_less_exclusions.txt	LTP228	ltpFR	17	13	-1	TENT	1449	n/a	-1	1	1.0	1.0	upper	../fonts/Verdana.ttf
2818109	WORD	wordpools/wasnorm_wordpool_less_exclusions.txt	LTP228	ltpFR	17	13	-1	BENCH	121	n/a	-1	1	1.0	1.0	upper	../fonts/Verdana.ttf
2823961	REC_START	n/a	LTP228	ltpFR	17	13	n/a	n/a	n/a	n/a	n/a	n/a	n/a	n/a	n/a	n/a
2827667	REC_WORD	wordpools/wasnorm_wordpool_less_exclusions.txt	LTP228	ltpFR	17	13	-1	WILDERNESS	1610	n/a	-1	n/a	n/a	n/a	n/a	n/a
2829144	REC_WORD	wordpools/wasnorm_wordpool_less_exclusions.txt	LTP228	ltpFR	17	13	-1	MERMAID	887	n/a	-1	n/a	n/a	n/a	n/a	n/a
2829747	REC_WORD	wordpools/wasnorm_wordpool_less_exclusions.txt	LTP228	ltpFR	17	13	-1	MAILBOX	857	n/a	-1	n/a	n/a	n/a	n/a	n/a
2830601	REC_WORD	wordpools/wasnorm_wordpool_less_exclusions.txt	LTP228	ltpFR	17	13	-1	MAILMAN	858	n/a	-1	n/a	n/a	n/a	n/a	n/a
2831693	REC_WORD	wordpools/wasnorm_wordpool_less_exclusions.txt	LTP228	ltpFR	17	13	-1	TRASH	1497	n/a	-1	n/a	n/a	n/a	n/a	n/a
2832501	REC_WORD	wordpools/wasnorm_wordpool_less_exclusions.txt	LTP228	ltpFR	17	13	-1	TENT	1449	n/a	-1	n/a	n/a	n/a	n/a	n/a
2841426	REC_WORD	wordpools/wasnorm_wordpool_less_exclusions.txt	LTP228	ltpFR	17	13	-1	TUNA	1518	n/a	-1	n/a	n/a	n/a	n/a	n/a
2966714	WORD	wordpools/wasnorm_wordpool_less_exclusions.txt	LTP228	ltpFR	17	14	-1	VILLAGE	1566	n/a	-1	1	1.0	1.0	upper	../fonts/Verdana.ttf
2970666	WORD	wordpools/wasnorm_wordpool_less_exclusions.txt	LTP228	ltpFR	17	14	-1	COUNTY	389	n/a	-1	1	1.0	1.0	upper	../fonts/Verdana.ttf
2974598	WORD	wordpools/wasnorm_wordpool_less_exclusions.txt	LTP228	ltpFR	17	14	-1	DIAL	457	n/a	-1	1	1.0	1.0	upper	../fonts/Verdana.ttf
2978479	WORD	wordpools/wasnorm_wordpool_less_exclusions.txt	LTP228	ltpFR	17	14	-1	DOORBELL	487	n/a	-1	1	1.0	1.0	upper	../fonts/Verdana.ttf
2982395	WORD	wordpools/wasnorm_wordpool_less_exclusions.txt	LTP228	ltpFR	17	14	-1	SUGAR	1401	n/a	-1	1	1.0	1.0	upper	../fonts/Verdana.ttf
2986360	WORD	wordpools/wasnorm_wordpool_less_exclusions.txt	LTP228	ltpFR	17	14	-1	DIVER	476	n/a	-1	1	1.0	1.0	upper	../fonts/Verdana.ttf
2990291	WORD	wordpools/wasnorm_wordpool_less_exclusions.txt	LTP228	ltpFR	17	14	-1	RAZOR	1171	n/a	-1	1	1.0	1.0	upper	../fonts/Verdana.ttf
2994456	WORD	wordpools/wasnorm_wordpool_less_exclusions.txt	LTP228	ltpFR	17	14	-1	HAND	683	n/a	-1	1	1.0	1.0	upper	../fonts/Verdana.ttf
2998538	WORD	wordpools/wasnorm_wordpool_less_exclusions.txt	LTP228	ltpFR	17	14	-1	DIAGRAM	456	n/a	-1	1	1.0	1.0	upper	../fonts/Verdana.ttf
3002449	WORD	wordpools/wasnorm_wordpool_less_exclusions.txt	LTP228	ltpFR	17	14	-1	SPHINX	1349	n/a	-1	1	1.0	1.0	upper	../fonts/Verdana.ttf
3006552	WORD	wordpools/wasnorm_wordpool_less_exclusions.txt	LTP228	ltpFR	17	14	-1	SCALE	1241	n/a	-1	1	1.0	1.0	upper	../fonts/Verdana.ttf
3010416	WORD	wordpools/wasnorm_wordpool_less_exclusions.txt	LTP228	ltpFR	17	14	-1	GOO	648	n/a	-1	1	1.0	1.0	upper	../fonts/Verdana.ttf
3014498	WORD	wordpools/wasnorm_wordpool_less_exclusions.txt	LTP228	ltpFR	17	14	-1	BASSINET	97	n/a	-1	1	1.0	1.0	upper	../fonts/Verdana.ttf
3018677	WORD	wordpools/wasnorm_wordpool_less_exclusions.txt	LTP228	ltpFR	17	14	-1	FORK	594	n/a	-1	1	1.0	1.0	upper	../fonts/Verdana.ttf
3022579	WORD	wordpools/wasnorm_wordpool_less_exclusions.txt	LTP228	ltpFR	17	14	-1	WHEAT	1602	n/a	-1	1	1.0	1.0	upper	../fonts/Verdana.ttf
3026707	WORD	wordpools/wasnorm_wordpool_less_exclusions.txt	LTP228	ltpFR	17	14	-1	FINGERNAIL	568	n/a	-1	1	1.0	1.0	upper	../fonts/Verdana.ttf
3032801	REC_START	n/a	LTP228	ltpFR	17	14	n/a	n/a	n/a	n/a	n/a	n/a	n/a	n/a	n/a	n/a
3034332	REC_WORD	wordpools/wasnorm_wordpool_less_exclusions.txt	LTP228	ltpFR	17	14	-1	VILLAGE	1566	n/a	-1	n/a	n/a	n/a	n/a	n/a
3034976	REC_WORD	wordpools/wasnorm_wordpool_less_exclusions.txt	LTP228	ltpFR	17	14	-1	COUNTY	389	n/a	-1	n/a	n/a	n/a	n/a	n/a
3035644	REC_WORD	wordpools/wasnorm_wordpool_less_exclusions.txt	LTP228	ltpFR	17	14	-1	DIAL	457	n/a	-1	n/a	n/a	n/a	n/a	n/a
3036208	REC_WORD	wordpools/wasnorm_wordpool_less_exclusions.txt	LTP228	ltpFR	17	14	-1	DOORBELL	487	n/a	-1	n/a	n/a	n/a	n/a	n/a
3036946	REC_WORD	wordpools/wasnorm_wordpool_less_exclusions.txt	LTP228	ltpFR	17	14	-1	BASSINET	97	n/a	-1	n/a	n/a	n/a	n/a	n/a
3037744	REC_WORD	wordpools/wasnorm_wordpool_less_exclusions.txt	LTP228	ltpFR	17	14	-1	FORK	594	n/a	-1	n/a	n/a	n/a	n/a	n/a
3047981	REC_WORD	wordpools/wasnorm_wordpool_less_exclusions.txt	LTP228	ltpFR	17	14	-1	FINGERNAIL	568	n/a	-1	n/a	n/a	n/a	n/a	n/a
3173013	WORD	wordpools/wasnorm_wordpool_less_exclusions.txt	LTP228	ltpFR	17	15	-1	COCKTAIL	338	n/a	-1	1	1.0	1.0	upper	../fonts/Verdana.ttf
3177079	WORD	wordpools/wasnorm_wordpool_less_exclusions.txt	LTP228	ltpFR	17	15	-1	VAN	1548	n/a	-1	1	1.0	1.0	upper	../fonts/Verdana.ttf
3180910	WORD	wordpools/wasnorm_wordpool_less_exclusions.txt	LTP228	ltpFR	17	15	-1	CONTAINER	366	n/a	-1	1	1.0	1.0	upper	../fonts/Verdana.ttf
3184942	WORD	wordpools/wasnorm_wordpool_less_exclusions.txt	LTP228	ltpFR	17	15	-1	STICKER	1382	n/a	-1	1	1.0	1.0	upper	../fonts/Verdana.ttf
3189074	WORD	wordpools/wasnorm_wordpool_less_exclusions.txt	LTP228	ltpFR	17	15	-1	PUMP	1141	n/a	-1	1	1.0	1.0	upper	../fonts/Verdana.ttf
3193189	WORD	wordpools/wasnorm_wordpool_less_exclusions.txt	LTP228	ltpFR	17	15	-1	LAKE	796	n/a	-1	1	1.0	1.0	upper	../fonts/Verdana.ttf
3197171	WORD	wordpools/wasnorm_wordpool_less_exclusions.txt	LTP228	ltpFR	17	15	-1	CONTRACTOR	369	n/a	-1	1	1.0	1.0	upper	../fonts/Verdana.ttf
3201019	WORD	wordpools/wasnorm_wordpool_less_exclusions.txt	LTP228	ltpFR	17	15	-1	SKYSCRAPER	1322	n/a	-1	1	1.0	1.0	upper	../fonts/Verdana.ttf
3205017	WORD	wordpools/wasnorm_wordpool_less_exclusions.txt	LTP228	ltpFR	17	15	-1	BURGLAR	200	n/a	-1	1	1.0	1.0	upper	../fonts/Verdana.ttf
3208999	WORD	wordpools/wasnorm_wordpool_less_exclusions.txt	LTP228	ltpFR	17	15	-1	CARPENTER	246	n/a	-1	1	1.0	1.0	upper	../fonts/Verdana.ttf
3212859	WORD	wordpools/wasnorm_wordpool_less_exclusions.txt	LTP228	ltpFR	17	15	-1	ATTIC	56	n/a	-1	1	1.0	1.0	upper	../fonts/Verdana.ttf
3216727	WORD	wordpools/wasnorm_wordpool_less_exclusions.txt	LTP228	ltpFR	17	15	-1	BARREL	91	n/a	-1	1	1.0	1.0	upper	../fonts/Verdana.ttf
3220625	WORD	wordpools/wasnorm_wordpool_less_exclusions.txt	LTP228	ltpFR	17	15	-1	LEVER	815	n/a	-1	1	1.0	1.0	upper	../fonts/Verdana.ttf
3224523	WORD	wordpools/wasnorm_wordpool_less_exclusions.txt	LTP228	ltpFR	17	15	-1	BUGGY	188	n/a	-1	1	1.0	1.0	upper	../fonts/Verdana.ttf
3228455	WORD	wordpools/wasnorm_wordpool_less_exclusions.txt	LTP228	ltpFR	17	15	-1	CROOK	412	n/a	-1	1	1.0	1.0	upper	../fonts/Verdana.ttf
3232367	WORD	wordpools/wasnorm_wordpool_less_exclusions.txt	LTP228	ltpFR	17	15	-1	LIEUTENANT	818	n/a	-1	1	1.0	1.0	upper	../fonts/Verdana.ttf
3238059	REC_START	n/a	LTP228	ltpFR	17	15	n/a	n/a	n/a	n/a	n/a	n/a	n/a	n/a	n/a	n/a
3242254	REC_WORD	wordpools/wasnorm_wordpool_less_exclusions.txt	LTP228	ltpFR	17	15	-1	COCKTAIL	338	n/a	-1	n/a	n/a	n/a	n/a	n/a
3242963	REC_WORD	wordpools/wasnorm_wordpool_less_exclusions.txt	LTP228	ltpFR	17	15	-1	VAN	1548	n/a	-1	n/a	n/a	n/a	n/a	n/a
3243606	REC_WORD	wordpools/wasnorm_wordpool_less_exclusions.txt	LTP228	ltpFR	17	15	-1	PUMP	1141	n/a	-1	n/a	n/a	n/a	n/a	n/a
3244125	REC_WORD	wordpools/wasnorm_wordpool_less_exclusions.txt	LTP228	ltpFR	17	15	-1	LAKE	796	n/a	-1	n/a	n/a	n/a	n/a	n/a
3248016	REC_WORD	wordpools/wasnorm_wordpool_less_exclusions.txt	LTP228	ltpFR	17	15	-1	CONTRACTOR	369	n/a	-1	n/a	n/a	n/a	n/a	n/a
3248607	REC_WORD	wordpools/wasnorm_wordpool_less_exclusions.txt	LTP228	ltpFR	17	15	-1	SKYSCRAPER	1322	n/a	-1	n/a	n/a	n/a	n/a	n/a
3249618	REC_WORD	wordpools/wasnorm_wordpool_less_exclusions.txt	LTP228	ltpFR	17	15	-1	CARPENTER	246	n/a	-1	n/a	n/a	n/a	n/a	n/a
3250535	REC_WORD	wordpools/wasnorm_wordpool_less_exclusions.txt	LTP228	ltpFR	17	15	-1	BURGLAR	200	n/a	-1	n/a	n/a	n/a	n/a	n/a
3252306	REC_WORD	wordpools/wasnorm_wordpool_less_exclusions.txt	LTP228	ltpFR	17	15	-1	LIEUTENANT	818	n/a	-1	n/a	n/a	n/a	n/a	n/a
3329269	WORD	wordpools/wasnorm_wordpool_less_exclusions.txt	LTP228	ltpFR	17	16	0	RESORT	1186	n/a	1	1	0.412841796875	0.57763671875	upper	../fonts/amplitud.ttf
3333267	WORD	wordpools/wasnorm_wordpool_less_exclusions.txt	LTP228	ltpFR	17	16	0	VIOLIN	1571	n/a	1	1	0.412841796875	0.57763671875	upper	../fonts/amplitud.ttf
3337428	WORD	wordpools/wasnorm_wordpool_less_exclusions.txt	LTP228	ltpFR	17	16	0	RADISH	1158	n/a	0	1	0.412841796875	0.57763671875	upper	../fonts/amplitud.ttf
3341581	WORD	wordpools/wasnorm_wordpool_less_exclusions.txt	LTP228	ltpFR	17	16	0	CAULIFLOWER	262	n/a	0	1	0.412841796875	0.57763671875	upper	../fonts/amplitud.ttf
3345479	WORD	wordpools/wasnorm_wordpool_less_exclusions.txt	LTP228	ltpFR	17	16	0	AIRPORT	13	n/a	1	1	0.412841796875	0.57763671875	upper	../fonts/amplitud.ttf
3349490	WORD	wordpools/wasnorm_wordpool_less_exclusions.txt	LTP228	ltpFR	17	16	0	CELERY	266	n/a	0	1	0.412841796875	0.57763671875	upper	../fonts/amplitud.ttf
3353343	WORD	wordpools/wasnorm_wordpool_less_exclusions.txt	LTP228	ltpFR	17	16	0	CANYON	235	n/a	1	1	0.412841796875	0.57763671875	upper	../fonts/amplitud.ttf
3357491	WORD	wordpools/wasnorm_wordpool_less_exclusions.txt	LTP228	ltpFR	17	16	0	BOULDER	155	n/a	1	1	0.412841796875	0.57763671875	upper	../fonts/amplitud.ttf
3361552	WORD	wordpools/wasnorm_wordpool_less_exclusions.txt	LTP228	ltpFR	17	16	0	DISC	473	n/a	0	1	0.412841796875	0.57763671875	upper	../fonts/amplitud.ttf
3365722	WORD	wordpools/wasnorm_wordpool_less_exclusions.txt	LTP228	ltpFR	17	16	0	WARRIOR	1589	n/a	1	1	0.412841796875	0.57763671875	upper	../fonts/amplitud.ttf
3369599	WORD	wordpools/wasnorm_wordpool_less_exclusions.txt	LTP228	ltpFR	17	16	0	TERMINAL	1450	n/a	1	1	0.412841796875	0.57763671875	upper	../fonts/amplitud.ttf
3373564	WORD	wordpools/wasnorm_wordpool_less_exclusions.txt	LTP228	ltpFR	17	16	0	COLESLAW	344	n/a	1	1	0.412841796875	0.57763671875	upper	../fonts/amplitud.ttf
3377533	WORD	wordpools/wasnorm_wordpool_less_exclusions.txt	LTP228	ltpFR	17	16	0	COPIER	377	n/a	0	1	0.412841796875	0.57763671875	upper	../fonts/amplitud.ttf
3381365	WORD	wordpools/wasnorm_wordpool_less_exclusions.txt	LTP228	ltpFR	17	16	0	SNEAKER	1334	n/a	0	1	0.412841796875	0.57763671875	upper	../fonts/amplitud.ttf
3385297	WORD	wordpools/wasnorm_wordpool_less_exclusions.txt	LTP228	ltpFR	17	16	0	BUCKLE	185	n/a	1	1	0.412841796875	0.57763671875	upper	../fonts/amplitud.ttf
3389128	WORD	wordpools/wasnorm_wordpool_less_exclusions.txt	LTP228	ltpFR	17	16	0	MEAL	882	n/a	1	1	0.412841796875	0.57763671875	upper	../fonts/amplitud.ttf
3394917	REC_START	n/a	LTP228	ltpFR	17	16	n/a	n/a	n/a	n/a	n/a	n/a	n/a	n/a	n/a	n/a
3396089	REC_WORD	wordpools/wasnorm_wordpool_less_exclusions.txt	LTP228	ltpFR	17	16	0	RESORT	1186	n/a	1	n/a	n/a	n/a	n/a	n/a
3396967	REC_WORD	wordpools/wasnorm_wordpool_less_exclusions.txt	LTP228	ltpFR	17	16	0	CANYON	235	n/a	1	n/a	n/a	n/a	n/a	n/a
3397626	REC_WORD	wordpools/wasnorm_wordpool_less_exclusions.txt	LTP228	ltpFR	17	16	0	CAULIFLOWER	262	n/a	0	n/a	n/a	n/a	n/a	n/a
3398698	REC_WORD	wordpools/wasnorm_wordpool_less_exclusions.txt	LTP228	ltpFR	17	16	0	BUCKLE	185	n/a	1	n/a	n/a	n/a	n/a	n/a
3400689	REC_WORD	wordpools/wasnorm_wordpool_less_exclusions.txt	LTP228	ltpFR	17	16	0	AIRPORT	13	n/a	1	n/a	n/a	n/a	n/a	n/a
3401542	REC_WORD	wordpools/wasnorm_wordpool_less_exclusions.txt	LTP228	ltpFR	17	16	0	TERMINAL	1450	n/a	1	n/a	n/a	n/a	n/a	n/a
3574005	REC_START	n/a	LTP228	ltpFR	17	n/a	n/a	n/a	n/a	n/a	n/a	n/a	n/a	n/a	n/a	n/a
3579083	FFR_REC_WORD	wordpools/wasnorm_wordpool_less_exclusions.txt	LTP228	ltpFR	17	n/a	1	UNIVERSE	1540	n/a	1	n/a	n/a	n/a	n/a	n/a
3580290	FFR_REC_WORD	wordpools/wasnorm_wordpool_less_exclusions.txt	LTP228	ltpFR	17	n/a	1	ATMOSPHERE	54	n/a	0	n/a	n/a	n/a	n/a	n/a
3581388	FFR_REC_WORD	wordpools/wasnorm_wordpool_less_exclusions.txt	LTP228	ltpFR	17	n/a	1	PLUTO	1092	n/a	0	n/a	n/a	n/a	n/a	n/a
3582006	FFR_REC_WORD	wordpools/wasnorm_wordpool_less_exclusions.txt	LTP228	ltpFR	17	n/a	0	NEPTUNE	943	n/a	1	n/a	n/a	n/a	n/a	n/a
3583019	FFR_REC_WORD	wordpools/wasnorm_wordpool_less_exclusions.txt	LTP228	ltpFR	17	n/a	0	PLANET	1082	n/a	1	n/a	n/a	n/a	n/a	n/a
3589564	FFR_REC_WORD	wordpools/wasnorm_wordpool_less_exclusions.txt	LTP228	ltpFR	17	n/a	1	LEOPARD	812	n/a	1	n/a	n/a	n/a	n/a	n/a
3590138	FFR_REC_WORD	wordpools/wasnorm_wordpool_less_exclusions.txt	LTP228	ltpFR	17	n/a	1	RASPBERRY	1168	n/a	1	n/a	n/a	n/a	n/a	n/a
3590712	FFR_REC_WORD	wordpools/wasnorm_wordpool_less_exclusions.txt	LTP228	ltpFR	17	n/a	0	STRAWBERRY	1391	n/a	1	n/a	n/a	n/a	n/a	n/a
3591580	FFR_REC_WORD	wordpools/wasnorm_wordpool_less_exclusions.txt	LTP228	ltpFR	17	n/a	0	SAPPHIRE	1234	n/a	0	n/a	n/a	n/a	n/a	n/a
3592580	FFR_REC_WORD_VV	wordpools/wasnorm_wordpool_less_exclusions.txt	LTP228	ltpFR	17	n/a	n/a	<>	-1	n/a	n/a	n/a	n/a	n/a	n/a	n/a
3592977	FFR_REC_WORD	wordpools/wasnorm_wordpool_less_exclusions.txt	LTP228	ltpFR	17	n/a	0	RUBY	1214	n/a	0	n/a	n/a	n/a	n/a	n/a
3593660	FFR_REC_WORD	wordpools/wasnorm_wordpool_less_exclusions.txt	LTP228	ltpFR	17	n/a	0	DIAMOND	458	n/a	0	n/a	n/a	n/a	n/a	n/a
3597980	FFR_REC_WORD	wordpools/wasnorm_wordpool_less_exclusions.txt	LTP228	ltpFR	17	n/a	0	CAULIFLOWER	262	n/a	0	n/a	n/a	n/a	n/a	n/a
3599302	FFR_REC_WORD	wordpools/wasnorm_wordpool_less_exclusions.txt	LTP228	ltpFR	17	n/a	0	CABBAGE	210	n/a	0	n/a	n/a	n/a	n/a	n/a
3602570	FFR_REC_WORD	wordpools/wasnorm_wordpool_less_exclusions.txt	LTP228	ltpFR	17	n/a	1	SALAD	1224	n/a	0	n/a	n/a	n/a	n/a	n/a
3608751	FFR_REC_WORD	wordpools/wasnorm_wordpool_less_exclusions.txt	LTP228	ltpFR	17	n/a	0	GRASS	655	n/a	0	n/a	n/a	n/a	n/a	n/a
3609339	FFR_REC_WORD	wordpools/wasnorm_wordpool_less_exclusions.txt	LTP228	ltpFR	17	n/a	0	GRASSHOPPER	656	n/a	0	n/a	n/a	n/a	n/a	n/a
3611669	FFR_REC_WORD	wordpools/wasnorm_wordpool_less_exclusions.txt	LTP228	ltpFR	17	n/a	-1	MERMAID	887	n/a	-1	n/a	n/a	n/a	n/a	n/a
3612263	FFR_REC_WORD	wordpools/wasnorm_wordpool_less_exclusions.txt	LTP228	ltpFR	17	n/a	-1	MAILMAN	858	n/a	-1	n/a	n/a	n/a	n/a	n/a
3612837	FFR_REC_WORD	wordpools/wasnorm_wordpool_less_exclusions.txt	LTP228	ltpFR	17	n/a	-1	MAILBOX	857	n/a	-1	n/a	n/a	n/a	n/a	n/a
3784341	FFR_REC_WORD	wordpools/wasnorm_wordpool_less_exclusions.txt	LTP228	ltpFR	17	n/a	1	FARM	552	n/a	0	n/a	n/a	n/a	n/a	n/a
3785219	FFR_REC_WORD	wordpools/wasnorm_wordpool_less_exclusions.txt	LTP228	ltpFR	17	n/a	1	FOREST	593	n/a	1	n/a	n/a	n/a	n/a	n/a
3787594	FFR_REC_WORD	wordpools/wasnorm_wordpool_less_exclusions.txt	LTP228	ltpFR	17	n/a	0	FOX	598	n/a	1	n/a	n/a	n/a	n/a	n/a
3976441	REC_START	n/a	LTP228	ltpFR	17	1	n/a	n/a	n/a	n/a	n/a	n/a	n/a	n/a	n/a	n/a
3976490	RECOG_LURE	n/a	LTP228	ltpFR	17	1	n/a	DRUM	502	3	n/a	n/a	n/a	n/a	n/a	n/a
3978353	RECOG_RESP	n/a	LTP228	ltpFR	17	1	n/a	DRUM	502	n/a	n/a	n/a	n/a	n/a	n/a	n/a
3979519	RECOG_CONF	n/a	LTP228	ltpFR	17	1	n/a	DRUM	502	3	n/a	n/a	n/a	n/a	n/a	n/a
3981442	RECOG_TARGET	n/a	LTP228	ltpFR	17	1	0	PADDLE	1000	4	1	n/a	n/a	n/a	n/a	n/a
3982312	RECOG_RESP	n/a	LTP228	ltpFR	17	1	0	PADDLE	1000	n/a	1	n/a	n/a	n/a	n/a	n/a
3983936	RECOG_CONF	n/a	LTP228	ltpFR	17	1	0	PADDLE	1000	4	1	n/a	n/a	n/a	n/a	n/a
3985809	RECOG_TARGET	n/a	LTP228	ltpFR	17	1	0	BOY	161	3	1	n/a	n/a	n/a	n/a	n/a
3986621	RECOG_RESP	n/a	LTP228	ltpFR	17	1	0	BOY	161	n/a	1	n/a	n/a	n/a	n/a	n/a
3987590	RECOG_CONF	n/a	LTP228	ltpFR	17	1	0	BOY	161	3	1	n/a	n/a	n/a	n/a	n/a
3989303	RECOG_TARGET	n/a	LTP228	ltpFR	17	1	0	DOLLAR	482	4	0	n/a	n/a	n/a	n/a	n/a
3990556	RECOG_RESP	n/a	LTP228	ltpFR	17	1	0	DOLLAR	482	n/a	0	n/a	n/a	n/a	n/a	n/a
3991506	RECOG_CONF	n/a	LTP228	ltpFR	17	1	0	DOLLAR	482	4	0	n/a	n/a	n/a	n/a	n/a
3993254	RECOG_TARGET	n/a	LTP228	ltpFR	17	1	-1	GAZELLE	628	2	-1	n/a	n/a	n/a	n/a	n/a
3993957	RECOG_RESP	n/a	LTP228	ltpFR	17	1	-1	GAZELLE	628	n/a	-1	n/a	n/a	n/a	n/a	n/a
3994788	RECOG_CONF	n/a	LTP228	ltpFR	17	1	-1	GAZELLE	628	2	-1	n/a	n/a	n/a	n/a	n/a
3996449	RECOG_TARGET	n/a	LTP228	ltpFR	17	1	0	VEHICLE	1553	3	1	n/a	n/a	n/a	n/a	n/a
3997216	RECOG_RESP	n/a	LTP228	ltpFR	17	1	0	VEHICLE	1553	n/a	1	n/a	n/a	n/a	n/a	n/a
3998087	RECOG_CONF	n/a	LTP228	ltpFR	17	1	0	VEHICLE	1553	3	1	n/a	n/a	n/a	n/a	n/a
3999661	RECOG_TARGET	n/a	LTP228	ltpFR	17	1	1	FIREPLACE	570	3	0	n/a	n/a	n/a	n/a	n/a
4000462	RECOG_RESP	n/a	LTP228	ltpFR	17	1	1	FIREPLACE	570	n/a	0	n/a	n/a	n/a	n/a	n/a
4001389	RECOG_CONF	n/a	LTP228	ltpFR	17	1	1	FIREPLACE	570	3	0	n/a	n/a	n/a	n/a	n/a
4002958	RECOG_LURE	n/a	LTP228	ltpFR	17	1	n/a	CLIFF	322	2	n/a	n/a	n/a	n/a	n/a	n/a
4003950	RECOG_RESP	n/a	LTP228	ltpFR	17	1	n/a	CLIFF	322	n/a	n/a	n/a	n/a	n/a	n/a	n/a
4004717	RECOG_CONF	n/a	LTP228	ltpFR	17	1	n/a	CLIFF	322	2	n/a	n/a	n/a	n/a	n/a	n/a
4006487	RECOG_TARGET	n/a	LTP228	ltpFR	17	1	-1	CONTAINER	366	2	-1	n/a	n/a	n/a	n/a	n/a
4007282	RECOG_RESP	n/a	LTP228	ltpFR	17	1	-1	CONTAINER	366	n/a	-1	n/a	n/a	n/a	n/a	n/a
4008044	RECOG_CONF	n/a	LTP228	ltpFR	17	1	-1	CONTAINER	366	2	-1	n/a	n/a	n/a	n/a	n/a
4009833	RECOG_LURE	n/a	LTP228	ltpFR	17	1	n/a	TURNIP	1521	2	n/a	n/a	n/a	n/a	n/a	n/a
4010569	RECOG_RESP	n/a	LTP228	ltpFR	17	1	n/a	TURNIP	1521	n/a	n/a	n/a	n/a	n/a	n/a	n/a
4011499	RECOG_CONF	n/a	LTP228	ltpFR	17	1	n/a	TURNIP	1521	2	n/a	n/a	n/a	n/a	n/a	n/a
4013297	RECOG_LURE	n/a	LTP228	ltpFR	17	1	n/a	PICNIC	1060	2	n/a	n/a	n/a	n/a	n/a	n/a
4014597	RECOG_RESP	n/a	LTP228	ltpFR	17	1	n/a	PICNIC	1060	n/a	n/a	n/a	n/a	n/a	n/a	n/a
4015610	RECOG_CONF	n/a	LTP228	ltpFR	17	1	n/a	PICNIC	1060	2	n/a	n/a	n/a	n/a	n/a	n/a
4017262	RECOG_TARGET	n/a	LTP228	ltpFR	17	1	0	WINNER	1615	1	1	n/a	n/a	n/a	n/a	n/a
4019049	RECOG_RESP	n/a	LTP228	ltpFR	17	1	0	WINNER	1615	n/a	1	n/a	n/a	n/a	n/a	n/a
4019673	RECOG_CONF	n/a	LTP228	ltpFR	17	1	0	WINNER	1615	1	1	n/a	n/a	n/a	n/a	n/a
4021543	RECOG_TARGET	n/a	LTP228	ltpFR	17	1	1	FEATHER	557	3	0	n/a	n/a	n/a	n/a	n/a
4022411	RECOG_RESP	n/a	LTP228	ltpFR	17	1	1	FEATHER	557	n/a	0	n/a	n/a	n/a	n/a	n/a
4023112	RECOG_CONF	n/a	LTP228	ltpFR	17	1	1	FEATHER	557	3	0	n/a	n/a	n/a	n/a	n/a
4024822	RECOG_TARGET	n/a	LTP228	ltpFR	17	1	0	FARMER	553	4	1	n/a	n/a	n/a	n/a	n/a
4025541	RECOG_RESP	n/a	LTP228	ltpFR	17	1	0	FARMER	553	n/a	1	n/a	n/a	n/a	n/a	n/a
4026252	RECOG_CONF	n/a	LTP228	ltpFR	17	1	0	FARMER	553	4	1	n/a	n/a	n/a	n/a	n/a
4028253	RECOG_TARGET	n/a	LTP228	ltpFR	17	1	0	CANYON	235	3	1	n/a	n/a	n/a	n/a	n/a
4029008	RECOG_RESP	n/a	LTP228	ltpFR	17	1	0	CANYON	235	n/a	1	n/a	n/a	n/a	n/a	n/a
4029755	RECOG_CONF	n/a	LTP228	ltpFR	17	1	0	CANYON	235	3	1	n/a	n/a	n/a	n/a	n/a
4031447	RECOG_TARGET	n/a	LTP228	ltpFR	17	1	-1	GOO	648	4	-1	n/a	n/a	n/a	n/a	n/a
4032194	RECOG_RESP	n/a	LTP228	ltpFR	17	1	-1	GOO	648	n/a	-1	n/a	n/a	n/a	n/a	n/a
4032907	RECOG_CONF	n/a	LTP228	ltpFR	17	1	-1	GOO	648	4	-1	n/a	n/a	n/a	n/a	n/a
4034643	RECOG_LURE	n/a	LTP228	ltpFR	17	1	n/a	COMPANION	357	2	n/a	n/a	n/a	n/a	n/a	n/a
4035942	RECOG_RESP	n/a	LTP228	ltpFR	17	1	n/a	COMPANION	357	n/a	n/a	n/a	n/a	n/a	n/a	n/a
4036734	RECOG_CONF	n/a	LTP228	ltpFR	17	1	n/a	COMPANION	357	2	n/a	n/a	n/a	n/a	n/a	n/a
4038520	RECOG_TARGET	n/a	LTP228	ltpFR	17	1	0	WAGON	1578	3	1	n/a	n/a	n/a	n/a	n/a
4039221	RECOG_RESP	n/a	LTP228	ltpFR	17	1	0	WAGON	1578	n/a	1	n/a	n/a	n/a	n/a	n/a
4039948	RECOG_CONF	n/a	LTP228	ltpFR	17	1	0	WAGON	1578	3	1	n/a	n/a	n/a	n/a	n/a
4041636	RECOG_TARGET	n/a	LTP228	ltpFR	17	1	0	RAG	1160	3	0	n/a	n/a	n/a	n/a	n/a
4042356	RECOG_RESP	n/a	LTP228	ltpFR	17	1	0	RAG	1160	n/a	0	n/a	n/a	n/a	n/a	n/a
4043016	RECOG_CONF	n/a	LTP228	ltpFR	17	1	0	RAG	1160	3	0	n/a	n/a	n/a	n/a	n/a
4044547	RECOG_LURE	n/a	LTP228	ltpFR	17	1	n/a	LAGOON	795	4	n/a	n/a	n/a	n/a	n/a	n/a
4045562	RECOG_RESP	n/a	LTP228	ltpFR	17	1	n/a	LAGOON	795	n/a	n/a	n/a	n/a	n/a	n/a	n/a
4046086	RECOG_CONF	n/a	LTP228	ltpFR	17	1	n/a	LAGOON	795	4	n/a	n/a	n/a	n/a	n/a	n/a
4063914	REC_START	n/a	LTP228	ltpFR	17	2	n/a	n/a	n/a	n/a	n/a	n/a	n/a	n/a	n/a	n/a
4063967	RECOG_TARGET	n/a	LTP228	ltpFR	17	2	1	HARE	688	4	1	n/a	n/a	n/a	n/a	n/a
4065163	RECOG_RESP	n/a	LTP228	ltpFR	17	2	1	HARE	688	n/a	1	n/a	n/a	n/a	n/a	n/a
4065927	RECOG_CONF	n/a	LTP228	ltpFR	17	2	1	HARE	688	4	1	n/a	n/a	n/a	n/a	n/a
4067898	RECOG_TARGET	n/a	LTP228	ltpFR	17	2	-1	PUMP	1141	4	-1	n/a	n/a	n/a	n/a	n/a
4068686	RECOG_RESP	n/a	LTP228	ltpFR	17	2	-1	PUMP	1141	n/a	-1	n/a	n/a	n/a	n/a	n/a
4069307	RECOG_CONF	n/a	LTP228	ltpFR	17	2	-1	PUMP	1141	4	-1	n/a	n/a	n/a	n/a	n/a
4071198	RECOG_TARGET	n/a	LTP228	ltpFR	17	2	1	GARLIC	624	3	1	n/a	n/a	n/a	n/a	n/a
4071942	RECOG_RESP	n/a	LTP228	ltpFR	17	2	1	GARLIC	624	n/a	1	n/a	n/a	n/a	n/a	n/a
4072676	RECOG_CONF	n/a	LTP228	ltpFR	17	2	1	GARLIC	624	3	1	n/a	n/a	n/a	n/a	n/a
4074306	RECOG_TARGET	n/a	LTP228	ltpFR	17	2	1	SALAD	1224	3	0	n/a	n/a	n/a	n/a	n/a
4075172	RECOG_RESP	n/a	LTP228	ltpFR	17	2	1	SALAD	1224	n/a	0	n/a	n/a	n/a	n/a	n/a
4075926	RECOG_CONF	n/a	LTP228	ltpFR	17	2	1	SALAD	1224	3	0	n/a	n/a	n/a	n/a	n/a
4077621	RECOG_LURE	n/a	LTP228	ltpFR	17	2	n/a	TURTLE	1522	2	n/a	n/a	n/a	n/a	n/a	n/a
4078522	RECOG_RESP	n/a	LTP228	ltpFR	17	2	n/a	TURTLE	1522	n/a	n/a	n/a	n/a	n/a	n/a	n/a
4079225	RECOG_CONF	n/a	LTP228	ltpFR	17	2	n/a	TURTLE	1522	2	n/a	n/a	n/a	n/a	n/a	n/a
4080817	RECOG_TARGET	n/a	LTP228	ltpFR	17	2	-1	BUGGY	188	2	-1	n/a	n/a	n/a	n/a	n/a
4081843	RECOG_RESP	n/a	LTP228	ltpFR	17	2	-1	BUGGY	188	n/a	-1	n/a	n/a	n/a	n/a	n/a
4082526	RECOG_CONF	n/a	LTP228	ltpFR	17	2	-1	BUGGY	188	2	-1	n/a	n/a	n/a	n/a	n/a
4084264	RECOG_LURE	n/a	LTP228	ltpFR	17	2	n/a	WIRE	1616	2	n/a	n/a	n/a	n/a	n/a	n/a
4085300	RECOG_RESP	n/a	LTP228	ltpFR	17	2	n/a	WIRE	1616	n/a	n/a	n/a	n/a	n/a	n/a	n/a
4085921	RECOG_CONF	n/a	LTP228	ltpFR	17	2	n/a	WIRE	1616	2	n/a	n/a	n/a	n/a	n/a	n/a
4087492	RECOG_LURE	n/a	LTP228	ltpFR	17	2	n/a	AUDIENCE	59	4	n/a	n/a	n/a	n/a	n/a	n/a
4088612	RECOG_RESP	n/a	LTP228	ltpFR	17	2	n/a	AUDIENCE	59	n/a	n/a	n/a	n/a	n/a	n/a	n/a
4089201	RECOG_CONF	n/a	LTP228	ltpFR	17	2	n/a	AUDIENCE	59	4	n/a	n/a	n/a	n/a	n/a	n/a
4091040	RECOG_LURE	n/a	LTP228	ltpFR	17	2	n/a	DOOR	486	2	n/a	n/a	n/a	n/a	n/a	n/a
4093046	RECOG_RESP	n/a	LTP228	ltpFR	17	2	n/a	DOOR	486	n/a	n/a	n/a	n/a	n/a	n/a	n/a
4093624	RECOG_CONF	n/a	LTP228	ltpFR	17	2	n/a	DOOR	486	2	n/a	n/a	n/a	n/a	n/a	n/a
4095455	RECOG_TARGET	n/a	LTP228	ltpFR	17	2	0	STRAWBERRY	1391	4	1	n/a	n/a	n/a	n/a	n/a
4096307	RECOG_RESP	n/a	LTP228	ltpFR	17	2	0	STRAWBERRY	1391	n/a	1	n/a	n/a	n/a	n/a	n/a
4096980	RECOG_CONF	n/a	LTP228	ltpFR	17	2	0	STRAWBERRY	1391	4	1	n/a	n/a	n/a	n/a	n/a
4098768	RECOG_TARGET	n/a	LTP228	ltpFR	17	2	-1	LEVER	815	4	-1	n/a	n/a	n/a	n/a	n/a
4099622	RECOG_RESP	n/a	LTP228	ltpFR	17	2	-1	LEVER	815	n/a	-1	n/a	n/a	n/a	n/a	n/a
4100262	RECOG_CONF	n/a	LTP228	ltpFR	17	2	-1	LEVER	815	4	-1	n/a	n/a	n/a	n/a	n/a
4101948	RECOG_TARGET	n/a	LTP228	ltpFR	17	2	0	TERMINAL	1450	5	1	n/a	n/a	n/a	n/a	n/a
4102761	RECOG_RESP	n/a	LTP228	ltpFR	17	2	0	TERMINAL	1450	n/a	1	n/a	n/a	n/a	n/a	n/a
4103362	RECOG_CONF	n/a	LTP228	ltpFR	17	2	0	TERMINAL	1450	5	1	n/a	n/a	n/a	n/a	n/a
4105327	RECOG_LURE	n/a	LTP228	ltpFR	17	2	n/a	SPIT	1354	3	n/a	n/a	n/a	n/a	n/a	n/a
4106671	RECOG_RESP	n/a	LTP228	ltpFR	17	2	n/a	SPIT	1354	n/a	n/a	n/a	n/a	n/a	n/a	n/a
4107370	RECOG_CONF	n/a	LTP228	ltpFR	17	2	n/a	SPIT	1354	3	n/a	n/a	n/a	n/a	n/a	n/a
4109074	RECOG_LURE	n/a	LTP228	ltpFR	17	2	n/a	KEEPER	769	4	n/a	n/a	n/a	n/a	n/a	n/a
4110014	RECOG_RESP	n/a	LTP228	ltpFR	17	2	n/a	KEEPER	769	n/a	n/a	n/a	n/a	n/a	n/a	n/a
4110585	RECOG_CONF	n/a	LTP228	ltpFR	17	2	n/a	KEEPER	769	4	n/a	n/a	n/a	n/a	n/a	n/a
4112266	RECOG_LURE	n/a	LTP228	ltpFR	17	2	n/a	BULLET	194	3	n/a	n/a	n/a	n/a	n/a	n/a
4115247	RECOG_RESP	n/a	LTP228	ltpFR	17	2	n/a	BULLET	194	n/a	n/a	n/a	n/a	n/a	n/a	n/a
4115775	RECOG_CONF	n/a	LTP228	ltpFR	17	2	n/a	BULLET	194	3	n/a	n/a	n/a	n/a	n/a	n/a
4117803	RECOG_TARGET	n/a	LTP228	ltpFR	17	2	0	CANDLE	229	2	0	n/a	n/a	n/a	n/a	n/a
4118888	RECOG_RESP	n/a	LTP228	ltpFR	17	2	0	CANDLE	229	n/a	0	n/a	n/a	n/a	n/a	n/a
4119481	RECOG_CONF	n/a	LTP228	ltpFR	17	2	0	CANDLE	229	2	0	n/a	n/a	n/a	n/a	n/a
4121133	RECOG_TARGET	n/a	LTP228	ltpFR	17	2	1	CONE	363	2	0	n/a	n/a	n/a	n/a	n/a
4121974	RECOG_RESP	n/a	LTP228	ltpFR	17	2	1	CONE	363	n/a	0	n/a	n/a	n/a	n/a	n/a
4122577	RECOG_CONF	n/a	LTP228	ltpFR	17	2	1	CONE	363	2	0	n/a	n/a	n/a	n/a	n/a
4124144	RECOG_TARGET	n/a	LTP228	ltpFR	17	2	1	CHICK	296	3	0	n/a	n/a	n/a	n/a	n/a
4125229	RECOG_RESP	n/a	LTP228	ltpFR	17	2	1	CHICK	296	n/a	0	n/a	n/a	n/a	n/a	n/a
4126347	RECOG_CONF	n/a	LTP228	ltpFR	17	2	1	CHICK	296	3	0	n/a	n/a	n/a	n/a	n/a
4127878	RECOG_LURE	n/a	LTP228	ltpFR	17	2	n/a	STAPLE	1371	3	n/a	n/a	n/a	n/a	n/a	n/a
4128818	RECOG_RESP	n/a	LTP228	ltpFR	17	2	n/a	STAPLE	1371	n/a	n/a	n/a	n/a	n/a	n/a	n/a
4129490	RECOG_CONF	n/a	LTP228	ltpFR	17	2	n/a	STAPLE	1371	3	n/a	n/a	n/a	n/a	n/a	n/a
4130655	RECOG_LURE	n/a	LTP228	ltpFR	17	2	n/a	COLLEGE	346	3	n/a	n/a	n/a	n/a	n/a	n/a
4131687	RECOG_RESP	n/a	LTP228	ltpFR	17	2	n/a	COLLEGE	346	n/a	n/a	n/a	n/a	n/a	n/a	n/a
4132343	RECOG_CONF	n/a	LTP228	ltpFR	17	2	n/a	COLLEGE	346	3	n/a	n/a	n/a	n/a	n/a	n/a
4143007	REC_START	n/a	LTP228	ltpFR	17	3	n/a	n/a	n/a	n/a	n/a	n/a	n/a	n/a	n/a	n/a
4143069	RECOG_TARGET	n/a	LTP228	ltpFR	17	3	-1	ORCHESTRA	981	5	-1	n/a	n/a	n/a	n/a	n/a
4143966	RECOG_RESP	n/a	LTP228	ltpFR	17	3	-1	ORCHESTRA	981	n/a	-1	n/a	n/a	n/a	n/a	n/a
4144624	RECOG_CONF	n/a	LTP228	ltpFR	17	3	-1	ORCHESTRA	981	5	-1	n/a	n/a	n/a	n/a	n/a
4146431	RECOG_LURE	n/a	LTP228	ltpFR	17	3	n/a	CREATURE	403	2	n/a	n/a	n/a	n/a	n/a	n/a
4148729	RECOG_RESP	n/a	LTP228	ltpFR	17	3	n/a	CREATURE	403	n/a	n/a	n/a	n/a	n/a	n/a	n/a
4149399	RECOG_CONF	n/a	LTP228	ltpFR	17	3	n/a	CREATURE	403	2	n/a	n/a	n/a	n/a	n/a	n/a
4151133	RECOG_LURE	n/a	LTP228	ltpFR	17	3	n/a	TREE	1502	3	n/a	n/a	n/a	n/a	n/a	n/a
4152194	RECOG_RESP	n/a	LTP228	ltpFR	17	3	n/a	TREE	1502	n/a	n/a	n/a	n/a	n/a	n/a	n/a
4152780	RECOG_CONF	n/a	LTP228	ltpFR	17	3	n/a	TREE	1502	3	n/a	n/a	n/a	n/a	n/a	n/a
4154378	RECOG_LURE	n/a	LTP228	ltpFR	17	3	n/a	HURRICANE	727	5	n/a	n/a	n/a	n/a	n/a	n/a
4155188	RECOG_RESP	n/a	LTP228	ltpFR	17	3	n/a	HURRICANE	727	n/a	n/a	n/a	n/a	n/a	n/a	n/a
4155694	RECOG_CONF	n/a	LTP228	ltpFR	17	3	n/a	HURRICANE	727	5	n/a	n/a	n/a	n/a	n/a	n/a
4157824	RECOG_TARGET	n/a	LTP228	ltpFR	17	3	0	PICKLE	1059	3	0	n/a	n/a	n/a	n/a	n/a
4158654	RECOG_RESP	n/a	LTP228	ltpFR	17	3	0	PICKLE	1059	n/a	0	n/a	n/a	n/a	n/a	n/a
4159326	RECOG_CONF	n/a	LTP228	ltpFR	17	3	0	PICKLE	1059	3	0	n/a	n/a	n/a	n/a	n/a
4161104	RECOG_TARGET	n/a	LTP228	ltpFR	17	3	1	ROBIN	1199	4	1	n/a	n/a	n/a	n/a	n/a
4161919	RECOG_RESP	n/a	LTP228	ltpFR	17	3	1	ROBIN	1199	n/a	1	n/a	n/a	n/a	n/a	n/a
4162568	RECOG_CONF	n/a	LTP228	ltpFR	17	3	1	ROBIN	1199	4	1	n/a	n/a	n/a	n/a	n/a
4164215	RECOG_TARGET	n/a	LTP228	ltpFR	17	3	0	FOX	598	4	1	n/a	n/a	n/a	n/a	n/a
4164937	RECOG_RESP	n/a	LTP228	ltpFR	17	3	0	FOX	598	n/a	1	n/a	n/a	n/a	n/a	n/a
4165477	RECOG_CONF	n/a	LTP228	ltpFR	17	3	0	FOX	598	4	1	n/a	n/a	n/a	n/a	n/a
4167210	RECOG_LURE	n/a	LTP228	ltpFR	17	3	n/a	PROTRACTOR	1133	4	n/a	n/a	n/a	n/a	n/a	n/a
4168094	RECOG_RESP	n/a	LTP228	ltpFR	17	3	n/a	PROTRACTOR	1133	n/a	n/a	n/a	n/a	n/a	n/a	n/a
4168591	RECOG_CONF	n/a	LTP228	ltpFR	17	3	n/a	PROTRACTOR	1133	4	n/a	n/a	n/a	n/a	n/a	n/a
4170272	RECOG_LURE	n/a	LTP228	ltpFR	17	3	n/a	GLASS	639	3	n/a	n/a	n/a	n/a	n/a	n/a
4171380	RECOG_RESP	n/a	LTP228	ltpFR	17	3	n/a	GLASS	639	n/a	n/a	n/a	n/a	n/a	n/a	n/a
4172026	RECOG_CONF	n/a	LTP228	ltpFR	17	3	n/a	GLASS	639	3	n/a	n/a	n/a	n/a	n/a	n/a
4173814	RECOG_TARGET	n/a	LTP228	ltpFR	17	3	-1	MERMAID	887	4	-1	n/a	n/a	n/a	n/a	n/a
4174788	RECOG_RESP	n/a	LTP228	ltpFR	17	3	-1	MERMAID	887	n/a	-1	n/a	n/a	n/a	n/a	n/a
4175428	RECOG_CONF	n/a	LTP228	ltpFR	17	3	-1	MERMAID	887	4	-1	n/a	n/a	n/a	n/a	n/a
4177081	RECOG_TARGET	n/a	LTP228	ltpFR	17	3	-1	SALOON	1228	2	-1	n/a	n/a	n/a	n/a	n/a
4178146	RECOG_RESP	n/a	LTP228	ltpFR	17	3	-1	SALOON	1228	n/a	-1	n/a	n/a	n/a	n/a	n/a
4178833	RECOG_CONF	n/a	LTP228	ltpFR	17	3	-1	SALOON	1228	2	-1	n/a	n/a	n/a	n/a	n/a
4180472	RECOG_TARGET	n/a	LTP228	ltpFR	17	3	1	FLOOR	581	3	0	n/a	n/a	n/a	n/a	n/a
4181824	RECOG_RESP	n/a	LTP228	ltpFR	17	3	1	FLOOR	581	n/a	0	n/a	n/a	n/a	n/a	n/a
4182412	RECOG_CONF	n/a	LTP228	ltpFR	17	3	1	FLOOR	581	3	0	n/a	n/a	n/a	n/a	n/a
4184040	RECOG_TARGET	n/a	LTP228	ltpFR	17	3	1	DYNAMITE	511	3	0	n/a	n/a	n/a	n/a	n/a
4185183	RECOG_RESP	n/a	LTP228	ltpFR	17	3	1	DYNAMITE	511	n/a	0	n/a	n/a	n/a	n/a	n/a
4185805	RECOG_CONF	n/a	LTP228	ltpFR	17	3	1	DYNAMITE	511	3	0	n/a	n/a	n/a	n/a	n/a
4187403	RECOG_TARGET	n/a	LTP228	ltpFR	17	3	-1	STICKER	1382	2	-1	n/a	n/a	n/a	n/a	n/a
4189557	RECOG_RESP	n/a	LTP228	ltpFR	17	3	-1	STICKER	1382	n/a	-1	n/a	n/a	n/a	n/a	n/a
4190026	RECOG_CONF	n/a	LTP228	ltpFR	17	3	-1	STICKER	1382	2	-1	n/a	n/a	n/a	n/a	n/a
4191735	RECOG_LURE	n/a	LTP228	ltpFR	17	3	n/a	PEAR	1033	3	n/a	n/a	n/a	n/a	n/a	n/a
4192568	RECOG_RESP	n/a	LTP228	ltpFR	17	3	n/a	PEAR	1033	n/a	n/a	n/a	n/a	n/a	n/a	n/a
4193118	RECOG_CONF	n/a	LTP228	ltpFR	17	3	n/a	PEAR	1033	3	n/a	n/a	n/a	n/a	n/a	n/a
4194545	RECOG_TARGET	n/a	LTP228	ltpFR	17	3	1	CERAMICS	271	3	0	n/a	n/a	n/a	n/a	n/a
4195885	RECOG_RESP	n/a	LTP228	ltpFR	17	3	1	CERAMICS	271	n/a	0	n/a	n/a	n/a	n/a	n/a
4196430	RECOG_CONF	n/a	LTP228	ltpFR	17	3	1	CERAMICS	271	3	0	n/a	n/a	n/a	n/a	n/a
4198173	RECOG_TARGET	n/a	LTP228	ltpFR	17	3	0	CAULIFLOWER	262	4	0	n/a	n/a	n/a	n/a	n/a
4199000	RECOG_RESP	n/a	LTP228	ltpFR	17	3	0	CAULIFLOWER	262	n/a	0	n/a	n/a	n/a	n/a	n/a
4199583	RECOG_CONF	n/a	LTP228	ltpFR	17	3	0	CAULIFLOWER	262	4	0	n/a	n/a	n/a	n/a	n/a
4201356	RECOG_TARGET	n/a	LTP228	ltpFR	17	3	0	COPIER	377	3	0	n/a	n/a	n/a	n/a	n/a
4202236	RECOG_RESP	n/a	LTP228	ltpFR	17	3	0	COPIER	377	n/a	0	n/a	n/a	n/a	n/a	n/a
4202792	RECOG_CONF	n/a	LTP228	ltpFR	17	3	0	COPIER	377	3	0	n/a	n/a	n/a	n/a	n/a
4204533	RECOG_LURE	n/a	LTP228	ltpFR	17	3	n/a	ROAD	1196	2	n/a	n/a	n/a	n/a	n/a	n/a
4206584	RECOG_RESP	n/a	LTP228	ltpFR	17	3	n/a	ROAD	1196	n/a	n/a	n/a	n/a	n/a	n/a	n/a
4207122	RECOG_CONF	n/a	LTP228	ltpFR	17	3	n/a	ROAD	1196	2	n/a	n/a	n/a	n/a	n/a	n/a
4208745	RECOG_LURE	n/a	LTP228	ltpFR	17	3	n/a	DILL	465	3	n/a	n/a	n/a	n/a	n/a	n/a
4210110	RECOG_RESP	n/a	LTP228	ltpFR	17	3	n/a	DILL	465	n/a	n/a	n/a	n/a	n/a	n/a	n/a
4210667	RECOG_CONF	n/a	LTP228	ltpFR	17	3	n/a	DILL	465	3	n/a	n/a	n/a	n/a	n/a	n/a
4239182	REC_START	n/a	LTP228	ltpFR	17	4	n/a	n/a	n/a	n/a	n/a	n/a	n/a	n/a	n/a	n/a
4239232	RECOG_TARGET	n/a	LTP228	ltpFR	17	4	1	PERSON	1052	3	1	n/a	n/a	n/a	n/a	n/a
4240144	RECOG_RESP	n/a	LTP228	ltpFR	17	4	1	PERSON	1052	n/a	1	n/a	n/a	n/a	n/a	n/a
4241063	RECOG_CONF	n/a	LTP228	ltpFR	17	4	1	PERSON	1052	3	1	n/a	n/a	n/a	n/a	n/a
4242840	RECOG_TARGET	n/a	LTP228	ltpFR	17	4	0	TROMBONE	1508	4	1	n/a	n/a	n/a	n/a	n/a
4243563	RECOG_RESP	n/a	LTP228	ltpFR	17	4	0	TROMBONE	1508	n/a	1	n/a	n/a	n/a	n/a	n/a
4244162	RECOG_CONF	n/a	LTP228	ltpFR	17	4	0	TROMBONE	1508	4	1	n/a	n/a	n/a	n/a	n/a
4245638	RECOG_TARGET	n/a	LTP228	ltpFR	17	4	-1	CROOK	412	4	-1	n/a	n/a	n/a	n/a	n/a
4246485	RECOG_RESP	n/a	LTP228	ltpFR	17	4	-1	CROOK	412	n/a	-1	n/a	n/a	n/a	n/a	n/a
4247069	RECOG_CONF	n/a	LTP228	ltpFR	17	4	-1	CROOK	412	4	-1	n/a	n/a	n/a	n/a	n/a
4248633	RECOG_TARGET	n/a	LTP228	ltpFR	17	4	1	GOOSE	649	2	1	n/a	n/a	n/a	n/a	n/a
4249760	RECOG_RESP	n/a	LTP228	ltpFR	17	4	1	GOOSE	649	n/a	1	n/a	n/a	n/a	n/a	n/a
4250401	RECOG_CONF	n/a	LTP228	ltpFR	17	4	1	GOOSE	649	2	1	n/a	n/a	n/a	n/a	n/a
4252063	RECOG_TARGET	n/a	LTP228	ltpFR	17	4	1	FISH	571	2	1	n/a	n/a	n/a	n/a	n/a
4252926	RECOG_RESP	n/a	LTP228	ltpFR	17	4	1	FISH	571	n/a	1	n/a	n/a	n/a	n/a	n/a
4253475	RECOG_CONF	n/a	LTP228	ltpFR	17	4	1	FISH	571	2	1	n/a	n/a	n/a	n/a	n/a
4255121	RECOG_TARGET	n/a	LTP228	ltpFR	17	4	0	KETTLE	772	3	0	n/a	n/a	n/a	n/a	n/a
4255858	RECOG_RESP	n/a	LTP228	ltpFR	17	4	0	KETTLE	772	n/a	0	n/a	n/a	n/a	n/a	n/a
4256373	RECOG_CONF	n/a	LTP228	ltpFR	17	4	0	KETTLE	772	3	0	n/a	n/a	n/a	n/a	n/a
4258032	RECOG_LURE	n/a	LTP228	ltpFR	17	4	n/a	OAR	966	4	n/a	n/a	n/a	n/a	n/a	n/a
4259050	RECOG_RESP	n/a	LTP228	ltpFR	17	4	n/a	OAR	966	n/a	n/a	n/a	n/a	n/a	n/a	n/a
4259561	RECOG_CONF	n/a	LTP228	ltpFR	17	4	n/a	OAR	966	4	n/a	n/a	n/a	n/a	n/a	n/a
4261081	RECOG_LURE	n/a	LTP228	ltpFR	17	4	n/a	WITNESS	1618	4	n/a	n/a	n/a	n/a	n/a	n/a
4262195	RECOG_RESP	n/a	LTP228	ltpFR	17	4	n/a	WITNESS	1618	n/a	n/a	n/a	n/a	n/a	n/a	n/a
4262703	RECOG_CONF	n/a	LTP228	ltpFR	17	4	n/a	WITNESS	1618	4	n/a	n/a	n/a	n/a	n/a	n/a
4264326	RECOG_TARGET	n/a	LTP228	ltpFR	17	4	0	PLANET	1082	5	1	n/a	n/a	n/a	n/a	n/a
4266460	RECOG_RESP	n/a	LTP228	ltpFR	17	4	0	PLANET	1082	n/a	1	n/a	n/a	n/a	n/a	n/a
4267093	RECOG_CONF	n/a	LTP228	ltpFR	17	4	0	PLANET	1082	5	1	n/a	n/a	n/a	n/a	n/a
4268855	RECOG_TARGET	n/a	LTP228	ltpFR	17	4	1	ATMOSPHERE	54	5	0	n/a	n/a	n/a	n/a	n/a
4269583	RECOG_RESP	n/a	LTP228	ltpFR	17	4	1	ATMOSPHERE	54	n/a	0	n/a	n/a	n/a	n/a	n/a
4270376	RECOG_CONF	n/a	LTP228	ltpFR	17	4	1	ATMOSPHERE	54	5	0	n/a	n/a	n/a	n/a	n/a
4272189	RECOG_LURE	n/a	LTP228	ltpFR	17	4	n/a	PLUM	1090	4	n/a	n/a	n/a	n/a	n/a	n/a
4272941	RECOG_RESP	n/a	LTP228	ltpFR	17	4	n/a	PLUM	1090	n/a	n/a	n/a	n/a	n/a	n/a	n/a
4273529	RECOG_CONF	n/a	LTP228	ltpFR	17	4	n/a	PLUM	1090	4	n/a	n/a	n/a	n/a	n/a	n/a
4275184	RECOG_TARGET	n/a	LTP228	ltpFR	17	4	1	POTATO	1115	3	1	n/a	n/a	n/a	n/a	n/a
4276026	RECOG_RESP	n/a	LTP228	ltpFR	17	4	1	POTATO	1115	n/a	1	n/a	n/a	n/a	n/a	n/a
4276592	RECOG_CONF	n/a	LTP228	ltpFR	17	4	1	POTATO	1115	3	1	n/a	n/a	n/a	n/a	n/a
4278312	RECOG_TARGET	n/a	LTP228	ltpFR	17	4	0	NICOTINE	951	3	0	n/a	n/a	n/a	n/a	n/a
4280185	RECOG_RESP	n/a	LTP228	ltpFR	17	4	0	NICOTINE	951	n/a	0	n/a	n/a	n/a	n/a	n/a
4280805	RECOG_CONF	n/a	LTP228	ltpFR	17	4	0	NICOTINE	951	3	0	n/a	n/a	n/a	n/a	n/a
4282628	RECOG_TARGET	n/a	LTP228	ltpFR	17	4	-1	DIAGRAM	456	2	-1	n/a	n/a	n/a	n/a	n/a
4284725	RECOG_RESP	n/a	LTP228	ltpFR	17	4	-1	DIAGRAM	456	n/a	-1	n/a	n/a	n/a	n/a	n/a
4285301	RECOG_CONF	n/a	LTP228	ltpFR	17	4	-1	DIAGRAM	456	2	-1	n/a	n/a	n/a	n/a	n/a
4287159	RECOG_LURE	n/a	LTP228	ltpFR	17	4	n/a	BUBBLE	183	3	n/a	n/a	n/a	n/a	n/a	n/a
4289544	RECOG_RESP	n/a	LTP228	ltpFR	17	4	n/a	BUBBLE	183	n/a	n/a	n/a	n/a	n/a	n/a	n/a
4290111	RECOG_CONF	n/a	LTP228	ltpFR	17	4	n/a	BUBBLE	183	3	n/a	n/a	n/a	n/a	n/a	n/a
4291859	RECOG_LURE	n/a	LTP228	ltpFR	17	4	n/a	BEE	112	3	n/a	n/a	n/a	n/a	n/a	n/a
4294418	RECOG_RESP	n/a	LTP228	ltpFR	17	4	n/a	BEE	112	n/a	n/a	n/a	n/a	n/a	n/a	n/a
4295000	RECOG_CONF	n/a	LTP228	ltpFR	17	4	n/a	BEE	112	3	n/a	n/a	n/a	n/a	n/a	n/a
4296647	RECOG_LURE	n/a	LTP228	ltpFR	17	4	n/a	TOILET	1475	3	n/a	n/a	n/a	n/a	n/a	n/a
4297759	RECOG_RESP	n/a	LTP228	ltpFR	17	4	n/a	TOILET	1475	n/a	n/a	n/a	n/a	n/a	n/a	n/a
4298243	RECOG_CONF	n/a	LTP228	ltpFR	17	4	n/a	TOILET	1475	3	n/a	n/a	n/a	n/a	n/a	n/a
4299822	RECOG_LURE	n/a	LTP228	ltpFR	17	4	n/a	PREDATOR	1120	4	n/a	n/a	n/a	n/a	n/a	n/a
4301165	RECOG_RESP	n/a	LTP228	ltpFR	17	4	n/a	PREDATOR	1120	n/a	n/a	n/a	n/a	n/a	n/a	n/a
4301665	RECOG_CONF	n/a	LTP228	ltpFR	17	4	n/a	PREDATOR	1120	4	n/a	n/a	n/a	n/a	n/a	n/a
4303456	RECOG_TARGET	n/a	LTP228	ltpFR	17	4	1	SODA	1341	2	0	n/a	n/a	n/a	n/a	n/a
4305876	RECOG_RESP	n/a	LTP228	ltpFR	17	4	1	SODA	1341	n/a	0	n/a	n/a	n/a	n/a	n/a
4306414	RECOG_CONF	n/a	LTP228	ltpFR	17	4	1	SODA	1341	2	0	n/a	n/a	n/a	n/a	n/a
4307970	RECOG_LURE	n/a	LTP228	ltpFR	17	4	n/a	HANDKERCHIEF	686	3	n/a	n/a	n/a	n/a	n/a	n/a
4309016	RECOG_RESP	n/a	LTP228	ltpFR	17	4	n/a	HANDKERCHIEF	686	n/a	n/a	n/a	n/a	n/a	n/a	n/a
4309477	RECOG_CONF	n/a	LTP228	ltpFR	17	4	n/a	HANDKERCHIEF	686	3	n/a	n/a	n/a	n/a	n/a	n/a
4324730	REC_START	n/a	LTP228	ltpFR	17	5	n/a	n/a	n/a	n/a	n/a	n/a	n/a	n/a	n/a	n/a
4324783	RECOG_LURE	n/a	LTP228	ltpFR	17	5	n/a	REBEL	1172	4	n/a	n/a	n/a	n/a	n/a	n/a
4325942	RECOG_RESP	n/a	LTP228	ltpFR	17	5	n/a	REBEL	1172	n/a	n/a	n/a	n/a	n/a	n/a	n/a
4326411	RECOG_CONF	n/a	LTP228	ltpFR	17	5	n/a	REBEL	1172	4	n/a	n/a	n/a	n/a	n/a	n/a
4328050	RECOG_LURE	n/a	LTP228	ltpFR	17	5	n/a	PUDDING	1139	3	n/a	n/a	n/a	n/a	n/a	n/a
4329098	RECOG_RESP	n/a	LTP228	ltpFR	17	5	n/a	PUDDING	1139	n/a	n/a	n/a	n/a	n/a	n/a	n/a
4329624	RECOG_CONF	n/a	LTP228	ltpFR	17	5	n/a	PUDDING	1139	3	n/a	n/a	n/a	n/a	n/a	n/a
4331329	RECOG_TARGET	n/a	LTP228	ltpFR	17	5	1	TUNNEL	1519	2	0	n/a	n/a	n/a	n/a	n/a
4332510	RECOG_RESP	n/a	LTP228	ltpFR	17	5	1	TUNNEL	1519	n/a	0	n/a	n/a	n/a	n/a	n/a
4333153	RECOG_CONF	n/a	LTP228	ltpFR	17	5	1	TUNNEL	1519	2	0	n/a	n/a	n/a	n/a	n/a
4334874	RECOG_LURE	n/a	LTP228	ltpFR	17	5	n/a	JEANS	752	4	n/a	n/a	n/a	n/a	n/a	n/a
4335570	RECOG_RESP	n/a	LTP228	ltpFR	17	5	n/a	JEANS	752	n/a	n/a	n/a	n/a	n/a	n/a	n/a
4336139	RECOG_CONF	n/a	LTP228	ltpFR	17	5	n/a	JEANS	752	4	n/a	n/a	n/a	n/a	n/a	n/a
4337916	RECOG_LURE	n/a	LTP228	ltpFR	17	5	n/a	MAGNET	855	4	n/a	n/a	n/a	n/a	n/a	n/a
4338577	RECOG_RESP	n/a	LTP228	ltpFR	17	5	n/a	MAGNET	855	n/a	n/a	n/a	n/a	n/a	n/a	n/a
4339136	RECOG_CONF	n/a	LTP228	ltpFR	17	5	n/a	MAGNET	855	4	n/a	n/a	n/a	n/a	n/a	n/a
4341065	RECOG_TARGET	n/a	LTP228	ltpFR	17	5	0	WASP	1593	5	1	n/a	n/a	n/a	n/a	n/a
4342079	RECOG_RESP	n/a	LTP228	ltpFR	17	5	0	WASP	1593	n/a	1	n/a	n/a	n/a	n/a	n/a
4342784	RECOG_CONF	n/a	LTP228	ltpFR	17	5	0	WASP	1593	5	1	n/a	n/a	n/a	n/a	n/a
4344527	RECOG_LURE	n/a	LTP228	ltpFR	17	5	n/a	BRAN	167	3	n/a	n/a	n/a	n/a	n/a	n/a
4345680	RECOG_RESP	n/a	LTP228	ltpFR	17	5	n/a	BRAN	167	n/a	n/a	n/a	n/a	n/a	n/a	n/a
4346086	RECOG_CONF	n/a	LTP228	ltpFR	17	5	n/a	BRAN	167	3	n/a	n/a	n/a	n/a	n/a	n/a
4348092	RECOG_TARGET	n/a	LTP228	ltpFR	17	5	-1	LAKE	796	2	-1	n/a	n/a	n/a	n/a	n/a
4350192	RECOG_RESP	n/a	LTP228	ltpFR	17	5	-1	LAKE	796	n/a	-1	n/a	n/a	n/a	n/a	n/a
4350769	RECOG_CONF	n/a	LTP228	ltpFR	17	5	-1	LAKE	796	2	-1	n/a	n/a	n/a	n/a	n/a
4352688	RECOG_TARGET	n/a	LTP228	ltpFR	17	5	0	CHIEF	298	3	1	n/a	n/a	n/a	n/a	n/a
4353675	RECOG_RESP	n/a	LTP228	ltpFR	17	5	0	CHIEF	298	n/a	1	n/a	n/a	n/a	n/a	n/a
4354268	RECOG_CONF	n/a	LTP228	ltpFR	17	5	0	CHIEF	298	3	1	n/a	n/a	n/a	n/a	n/a
4355800	RECOG_LURE	n/a	LTP228	ltpFR	17	5	n/a	SUMMIT	1405	3	n/a	n/a	n/a	n/a	n/a	n/a
4358596	RECOG_RESP_VV	n/a	LTP228	ltpFR	17	5	n/a	SUMMIT	1405	n/a	n/a	n/a	n/a	n/a	n/a	n/a
4359714	RECOG_RESP	n/a	LTP228	ltpFR	17	5	n/a	SUMMIT	1405	n/a	n/a	n/a	n/a	n/a	n/a	n/a
4360334	RECOG_CONF	n/a	LTP228	ltpFR	17	5	n/a	SUMMIT	1405	3	n/a	n/a	n/a	n/a	n/a	n/a
4362162	RECOG_TARGET	n/a	LTP228	ltpFR	17	5	-1	SPHINX	1349	3	-1	n/a	n/a	n/a	n/a	n/a
4362964	RECOG_RESP	n/a	LTP228	ltpFR	17	5	-1	SPHINX	1349	n/a	-1	n/a	n/a	n/a	n/a	n/a
4363606	RECOG_CONF	n/a	LTP228	ltpFR	17	5	-1	SPHINX	1349	3	-1	n/a	n/a	n/a	n/a	n/a
4365156	RECOG_TARGET	n/a	LTP228	ltpFR	17	5	0	AIRPORT	13	4	1	n/a	n/a	n/a	n/a	n/a
4366003	RECOG_RESP	n/a	LTP228	ltpFR	17	5	0	AIRPORT	13	n/a	1	n/a	n/a	n/a	n/a	n/a
4366570	RECOG_CONF	n/a	LTP228	ltpFR	17	5	0	AIRPORT	13	4	1	n/a	n/a	n/a	n/a	n/a
4368134	RECOG_TARGET	n/a	LTP228	ltpFR	17	5	-1	COCKTAIL	338	4	-1	n/a	n/a	n/a	n/a	n/a
4369539	RECOG_RESP	n/a	LTP228	ltpFR	17	5	-1	COCKTAIL	338	n/a	-1	n/a	n/a	n/a	n/a	n/a
4370072	RECOG_CONF	n/a	LTP228	ltpFR	17	5	-1	COCKTAIL	338	4	-1	n/a	n/a	n/a	n/a	n/a
4371643	RECOG_LURE	n/a	LTP228	ltpFR	17	5	n/a	SNOB	1335	4	n/a	n/a	n/a	n/a	n/a	n/a
4372765	RECOG_RESP	n/a	LTP228	ltpFR	17	5	n/a	SNOB	1335	n/a	n/a	n/a	n/a	n/a	n/a	n/a
4373313	RECOG_CONF	n/a	LTP228	ltpFR	17	5	n/a	SNOB	1335	4	n/a	n/a	n/a	n/a	n/a	n/a
4375107	RECOG_TARGET	n/a	LTP228	ltpFR	17	5	0	MEAL	882	1	1	n/a	n/a	n/a	n/a	n/a
4376645	RECOG_RESP	n/a	LTP228	ltpFR	17	5	0	MEAL	882	n/a	1	n/a	n/a	n/a	n/a	n/a
4379814	RECOG_CONF	n/a	LTP228	ltpFR	17	5	0	MEAL	882	1	1	n/a	n/a	n/a	n/a	n/a
4381567	RECOG_LURE	n/a	LTP228	ltpFR	17	5	n/a	NOTE	958	3	n/a	n/a	n/a	n/a	n/a	n/a
4382737	RECOG_RESP	n/a	LTP228	ltpFR	17	5	n/a	NOTE	958	n/a	n/a	n/a	n/a	n/a	n/a	n/a
4383302	RECOG_CONF	n/a	LTP228	ltpFR	17	5	n/a	NOTE	958	3	n/a	n/a	n/a	n/a	n/a	n/a
4384977	RECOG_TARGET	n/a	LTP228	ltpFR	17	5	-1	SUGAR	1401	4	-1	n/a	n/a	n/a	n/a	n/a
4385743	RECOG_RESP	n/a	LTP228	ltpFR	17	5	-1	SUGAR	1401	n/a	-1	n/a	n/a	n/a	n/a	n/a
4386314	RECOG_CONF	n/a	LTP228	ltpFR	17	5	-1	SUGAR	1401	4	-1	n/a	n/a	n/a	n/a	n/a
4387887	RECOG_TARGET	n/a	LTP228	ltpFR	17	5	1	LAUNDRY	803	5	0	n/a	n/a	n/a	n/a	n/a
4389239	RECOG_RESP	n/a	LTP228	ltpFR	17	5	1	LAUNDRY	803	n/a	0	n/a	n/a	n/a	n/a	n/a
4389913	RECOG_CONF	n/a	LTP228	ltpFR	17	5	1	LAUNDRY	803	5	0	n/a	n/a	n/a	n/a	n/a
4391689	RECOG_TARGET	n/a	LTP228	ltpFR	17	5	-1	PORCH	1106	3	-1	n/a	n/a	n/a	n/a	n/a
4394220	RECOG_RESP	n/a	LTP228	ltpFR	17	5	-1	PORCH	1106	n/a	-1	n/a	n/a	n/a	n/a	n/a
4394925	RECOG_CONF	n/a	LTP228	ltpFR	17	5	-1	PORCH	1106	3	-1	n/a	n/a	n/a	n/a	n/a
4396590	RECOG_LURE	n/a	LTP228	ltpFR	17	5	n/a	RODENT	1204	3	n/a	n/a	n/a	n/a	n/a	n/a
4397405	RECOG_RESP	n/a	LTP228	ltpFR	17	5	n/a	RODENT	1204	n/a	n/a	n/a	n/a	n/a	n/a	n/a
4398048	RECOG_CONF	n/a	LTP228	ltpFR	17	5	n/a	RODENT	1204	3	n/a	n/a	n/a	n/a	n/a	n/a
4417264	REC_START	n/a	LTP228	ltpFR	17	6	n/a	n/a	n/a	n/a	n/a	n/a	n/a	n/a	n/a	n/a
4417319	RECOG_TARGET	n/a	LTP228	ltpFR	17	6	-1	RIBBON	1189	3	-1	n/a	n/a	n/a	n/a	n/a
4418516	RECOG_RESP	n/a	LTP228	ltpFR	17	6	-1	RIBBON	1189	n/a	-1	n/a	n/a	n/a	n/a	n/a
4419270	RECOG_CONF	n/a	LTP228	ltpFR	17	6	-1	RIBBON	1189	3	-1	n/a	n/a	n/a	n/a	n/a
4421518	RECOG_LURE	n/a	LTP228	ltpFR	17	6	n/a	DUST	508	1	n/a	n/a	n/a	n/a	n/a	n/a
4427077	RECOG_CONF	n/a	LTP228	ltpFR	17	6	n/a	DUST	508	1	n/a	n/a	n/a	n/a	n/a	n/a
4428661	RECOG_TARGET	n/a	LTP228	ltpFR	17	6	1	CORD	379	3	0	n/a	n/a	n/a	n/a	n/a
4429402	RECOG_RESP	n/a	LTP228	ltpFR	17	6	1	CORD	379	n/a	0	n/a	n/a	n/a	n/a	n/a
4430177	RECOG_CONF	n/a	LTP228	ltpFR	17	6	1	CORD	379	3	0	n/a	n/a	n/a	n/a	n/a
4431790	RECOG_TARGET	n/a	LTP228	ltpFR	17	6	0	BOUQUET	157	4	0	n/a	n/a	n/a	n/a	n/a
4432710	RECOG_RESP	n/a	LTP228	ltpFR	17	6	0	BOUQUET	157	n/a	0	n/a	n/a	n/a	n/a	n/a
4433282	RECOG_CONF	n/a	LTP228	ltpFR	17	6	0	BOUQUET	157	4	0	n/a	n/a	n/a	n/a	n/a
4434915	RECOG_LURE	n/a	LTP228	ltpFR	17	6	n/a	LIGHTER	819	3	n/a	n/a	n/a	n/a	n/a	n/a
4435627	RECOG_RESP	n/a	LTP228	ltpFR	17	6	n/a	LIGHTER	819	n/a	n/a	n/a	n/a	n/a	n/a	n/a
4436196	RECOG_CONF	n/a	LTP228	ltpFR	17	6	n/a	LIGHTER	819	3	n/a	n/a	n/a	n/a	n/a	n/a
4437846	RECOG_TARGET	n/a	LTP228	ltpFR	17	6	1	PEOPLE	1046	5	1	n/a	n/a	n/a	n/a	n/a
4438626	RECOG_RESP	n/a	LTP228	ltpFR	17	6	1	PEOPLE	1046	n/a	1	n/a	n/a	n/a	n/a	n/a
4439269	RECOG_CONF	n/a	LTP228	ltpFR	17	6	1	PEOPLE	1046	5	1	n/a	n/a	n/a	n/a	n/a
4441176	RECOG_LURE	n/a	LTP228	ltpFR	17	6	n/a	CANAL	226	4	n/a	n/a	n/a	n/a	n/a	n/a
4441903	RECOG_RESP	n/a	LTP228	ltpFR	17	6	n/a	CANAL	226	n/a	n/a	n/a	n/a	n/a	n/a	n/a
4442367	RECOG_CONF	n/a	LTP228	ltpFR	17	6	n/a	CANAL	226	4	n/a	n/a	n/a	n/a	n/a	n/a
4444133	RECOG_LURE	n/a	LTP228	ltpFR	17	6	n/a	COCOON	339	4	n/a	n/a	n/a	n/a	n/a	n/a
4444868	RECOG_RESP	n/a	LTP228	ltpFR	17	6	n/a	COCOON	339	n/a	n/a	n/a	n/a	n/a	n/a	n/a
4445315	RECOG_CONF	n/a	LTP228	ltpFR	17	6	n/a	COCOON	339	4	n/a	n/a	n/a	n/a	n/a	n/a
4447149	RECOG_TARGET	n/a	LTP228	ltpFR	17	6	1	FARM	552	4	0	n/a	n/a	n/a	n/a	n/a
4447840	RECOG_RESP	n/a	LTP228	ltpFR	17	6	1	FARM	552	n/a	0	n/a	n/a	n/a	n/a	n/a
4448363	RECOG_CONF	n/a	LTP228	ltpFR	17	6	1	FARM	552	4	0	n/a	n/a	n/a	n/a	n/a
4450110	RECOG_TARGET	n/a	LTP228	ltpFR	17	6	1	UNIVERSE	1540	5	1	n/a	n/a	n/a	n/a	n/a
4450855	RECOG_RESP	n/a	LTP228	ltpFR	17	6	1	UNIVERSE	1540	n/a	1	n/a	n/a	n/a	n/a	n/a
4451471	RECOG_CONF	n/a	LTP228	ltpFR	17	6	1	UNIVERSE	1540	5	1	n/a	n/a	n/a	n/a	n/a
4453255	RECOG_TARGET	n/a	LTP228	ltpFR	17	6	-1	COTTAGE	384	4	-1	n/a	n/a	n/a	n/a	n/a
4453988	RECOG_RESP	n/a	LTP228	ltpFR	17	6	-1	COTTAGE	384	n/a	-1	n/a	n/a	n/a	n/a	n/a
4454694	RECOG_CONF	n/a	LTP228	ltpFR	17	6	-1	COTTAGE	384	4	-1	n/a	n/a	n/a	n/a	n/a
4456166	RECOG_TARGET	n/a	LTP228	ltpFR	17	6	-1	FORK	594	3	-1	n/a	n/a	n/a	n/a	n/a
4457780	RECOG_RESP	n/a	LTP228	ltpFR	17	6	-1	FORK	594	n/a	-1	n/a	n/a	n/a	n/a	n/a
4458445	RECOG_CONF	n/a	LTP228	ltpFR	17	6	-1	FORK	594	3	-1	n/a	n/a	n/a	n/a	n/a
4460177	RECOG_TARGET	n/a	LTP228	ltpFR	17	6	1	WOLF	1619	3	1	n/a	n/a	n/a	n/a	n/a
4461213	RECOG_RESP	n/a	LTP228	ltpFR	17	6	1	WOLF	1619	n/a	1	n/a	n/a	n/a	n/a	n/a
4462097	RECOG_CONF	n/a	LTP228	ltpFR	17	6	1	WOLF	1619	3	1	n/a	n/a	n/a	n/a	n/a
4463777	RECOG_TARGET	n/a	LTP228	ltpFR	17	6	0	WARRIOR	1589	4	1	n/a	n/a	n/a	n/a	n/a
4464777	RECOG_RESP	n/a	LTP228	ltpFR	17	6	0	WARRIOR	1589	n/a	1	n/a	n/a	n/a	n/a	n/a
4465279	RECOG_CONF	n/a	LTP228	ltpFR	17	6	0	WARRIOR	1589	4	1	n/a	n/a	n/a	n/a	n/a
4466772	RECOG_TARGET	n/a	LTP228	ltpFR	17	6	1	COOKIE	374	4	0	n/a	n/a	n/a	n/a	n/a
4467898	RECOG_RESP	n/a	LTP228	ltpFR	17	6	1	COOKIE	374	n/a	0	n/a	n/a	n/a	n/a	n/a
4468426	RECOG_CONF	n/a	LTP228	ltpFR	17	6	1	COOKIE	374	4	0	n/a	n/a	n/a	n/a	n/a
4470152	RECOG_TARGET	n/a	LTP228	ltpFR	17	6	0	CUPBOARD	425	5	1	n/a	n/a	n/a	n/a	n/a
4471477	RECOG_RESP	n/a	LTP228	ltpFR	17	6	0	CUPBOARD	425	n/a	1	n/a	n/a	n/a	n/a	n/a
4472174	RECOG_CONF	n/a	LTP228	ltpFR	17	6	0	CUPBOARD	425	5	1	n/a	n/a	n/a	n/a	n/a
4473963	RECOG_TARGET	n/a	LTP228	ltpFR	17	6	-1	DIVER	476	3	-1	n/a	n/a	n/a	n/a	n/a
4474685	RECOG_RESP	n/a	LTP228	ltpFR	17	6	-1	DIVER	476	n/a	-1	n/a	n/a	n/a	n/a	n/a
4475197	RECOG_CONF	n/a	LTP228	ltpFR	17	6	-1	DIVER	476	3	-1	n/a	n/a	n/a	n/a	n/a
4476793	RECOG_LURE	n/a	LTP228	ltpFR	17	6	n/a	APPLE	33	3	n/a	n/a	n/a	n/a	n/a	n/a
4477604	RECOG_RESP	n/a	LTP228	ltpFR	17	6	n/a	APPLE	33	n/a	n/a	n/a	n/a	n/a	n/a	n/a
4478270	RECOG_CONF	n/a	LTP228	ltpFR	17	6	n/a	APPLE	33	3	n/a	n/a	n/a	n/a	n/a	n/a
4479683	RECOG_TARGET	n/a	LTP228	ltpFR	17	6	1	LEOPARD	812	1	1	n/a	n/a	n/a	n/a	n/a
4480661	RECOG_RESP	n/a	LTP228	ltpFR	17	6	1	LEOPARD	812	n/a	1	n/a	n/a	n/a	n/a	n/a
4482287	RECOG_CONF	n/a	LTP228	ltpFR	17	6	1	LEOPARD	812	1	1	n/a	n/a	n/a	n/a	n/a
4483967	RECOG_LURE	n/a	LTP228	ltpFR	17	6	n/a	YOKE	1632	4	n/a	n/a	n/a	n/a	n/a	n/a
4487149	RECOG_RESP	n/a	LTP228	ltpFR	17	6	n/a	YOKE	1632	n/a	n/a	n/a	n/a	n/a	n/a	n/a
4487968	RECOG_CONF	n/a	LTP228	ltpFR	17	6	n/a	YOKE	1632	4	n/a	n/a	n/a	n/a	n/a	n/a
4504766	REC_START	n/a	LTP228	ltpFR	17	7	n/a	n/a	n/a	n/a	n/a	n/a	n/a	n/a	n/a	n/a
4504815	RECOG_TARGET	n/a	LTP228	ltpFR	17	7	0	BEAST	108	3	3	n/a	n/a	n/a	n/a	n/a
4505607	RECOG_RESP	n/a	LTP228	ltpFR	17	7	0	BEAST	108	n/a	3	n/a	n/a	n/a	n/a	n/a
4507445	RECOG_CONF	n/a	LTP228	ltpFR	17	7	0	BEAST	108	3	3	n/a	n/a	n/a	n/a	n/a
4509182	RECOG_TARGET	n/a	LTP228	ltpFR	17	7	1	SEAGULL	1261	3	1	n/a	n/a	n/a	n/a	n/a
4510113	RECOG_RESP	n/a	LTP228	ltpFR	17	7	1	SEAGULL	1261	n/a	1	n/a	n/a	n/a	n/a	n/a
4510866	RECOG_CONF	n/a	LTP228	ltpFR	17	7	1	SEAGULL	1261	3	1	n/a	n/a	n/a	n/a	n/a
4512440	RECOG_TARGET	n/a	LTP228	ltpFR	17	7	-1	FRIAR	605	4	-1	n/a	n/a	n/a	n/a	n/a
4513122	RECOG_RESP	n/a	LTP228	ltpFR	17	7	-1	FRIAR	605	n/a	-1	n/a	n/a	n/a	n/a	n/a
4513916	RECOG_CONF	n/a	LTP228	ltpFR	17	7	-1	FRIAR	605	4	-1	n/a	n/a	n/a	n/a	n/a
4515535	RECOG_LURE	n/a	LTP228	ltpFR	17	7	n/a	SUBWAY	1400	3	n/a	n/a	n/a	n/a	n/a	n/a
4516248	RECOG_RESP	n/a	LTP228	ltpFR	17	7	n/a	SUBWAY	1400	n/a	n/a	n/a	n/a	n/a	n/a	n/a
4516774	RECOG_CONF	n/a	LTP228	ltpFR	17	7	n/a	SUBWAY	1400	3	n/a	n/a	n/a	n/a	n/a	n/a
4518416	RECOG_TARGET	n/a	LTP228	ltpFR	17	7	1	TART	1436	4	0	n/a	n/a	n/a	n/a	n/a
4519430	RECOG_RESP	n/a	LTP228	ltpFR	17	7	1	TART	1436	n/a	0	n/a	n/a	n/a	n/a	n/a
4520751	RECOG_CONF	n/a	LTP228	ltpFR	17	7	1	TART	1436	4	0	n/a	n/a	n/a	n/a	n/a
4522716	RECOG_LURE	n/a	LTP228	ltpFR	17	7	n/a	TULIP	1517	3	n/a	n/a	n/a	n/a	n/a	n/a
4523471	RECOG_RESP	n/a	LTP228	ltpFR	17	7	n/a	TULIP	1517	n/a	n/a	n/a	n/a	n/a	n/a	n/a
4524051	RECOG_CONF	n/a	LTP228	ltpFR	17	7	n/a	TULIP	1517	3	n/a	n/a	n/a	n/a	n/a	n/a
4525945	RECOG_TARGET	n/a	LTP228	ltpFR	17	7	1	SATURN	1236	5	0	n/a	n/a	n/a	n/a	n/a
4526646	RECOG_RESP	n/a	LTP228	ltpFR	17	7	1	SATURN	1236	n/a	0	n/a	n/a	n/a	n/a	n/a
4527261	RECOG_CONF	n/a	LTP228	ltpFR	17	7	1	SATURN	1236	5	0	n/a	n/a	n/a	n/a	n/a
4528705	RECOG_TARGET	n/a	LTP228	ltpFR	17	7	1	SNORKEL	1336	5	0	n/a	n/a	n/a	n/a	n/a
4529629	RECOG_RESP	n/a	LTP228	ltpFR	17	7	1	SNORKEL	1336	n/a	0	n/a	n/a	n/a	n/a	n/a
4530383	RECOG_CONF	n/a	LTP228	ltpFR	17	7	1	SNORKEL	1336	5	0	n/a	n/a	n/a	n/a	n/a
4532303	RECOG_LURE	n/a	LTP228	ltpFR	17	7	n/a	BRACELET	163	3	n/a	n/a	n/a	n/a	n/a	n/a
4534210	RECOG_RESP	n/a	LTP228	ltpFR	17	7	n/a	BRACELET	163	n/a	n/a	n/a	n/a	n/a	n/a	n/a
4534842	RECOG_CONF	n/a	LTP228	ltpFR	17	7	n/a	BRACELET	163	3	n/a	n/a	n/a	n/a	n/a	n/a
4536581	RECOG_LURE	n/a	LTP228	ltpFR	17	7	n/a	MONARCH	906	4	n/a	n/a	n/a	n/a	n/a	n/a
4537301	RECOG_RESP	n/a	LTP228	ltpFR	17	7	n/a	MONARCH	906	n/a	n/a	n/a	n/a	n/a	n/a	n/a
4537886	RECOG_CONF	n/a	LTP228	ltpFR	17	7	n/a	MONARCH	906	4	n/a	n/a	n/a	n/a	n/a	n/a
4539312	RECOG_TARGET	n/a	LTP228	ltpFR	17	7	-1	TRASH	1497	3	-1	n/a	n/a	n/a	n/a	n/a
4541252	RECOG_RESP	n/a	LTP228	ltpFR	17	7	-1	TRASH	1497	n/a	-1	n/a	n/a	n/a	n/a	n/a
4541956	RECOG_CONF	n/a	LTP228	ltpFR	17	7	-1	TRASH	1497	3	-1	n/a	n/a	n/a	n/a	n/a
4543477	RECOG_LURE	n/a	LTP228	ltpFR	17	7	n/a	MACARONI	851	5	n/a	n/a	n/a	n/a	n/a	n/a
4544928	RECOG_RESP	n/a	LTP228	ltpFR	17	7	n/a	MACARONI	851	n/a	n/a	n/a	n/a	n/a	n/a	n/a
4545444	RECOG_CONF	n/a	LTP228	ltpFR	17	7	n/a	MACARONI	851	5	n/a	n/a	n/a	n/a	n/a	n/a
4547476	RECOG_TARGET	n/a	LTP228	ltpFR	17	7	-1	CHEF	290	5	-1	n/a	n/a	n/a	n/a	n/a
4548553	RECOG_RESP	n/a	LTP228	ltpFR	17	7	-1	CHEF	290	n/a	-1	n/a	n/a	n/a	n/a	n/a
4549217	RECOG_CONF	n/a	LTP228	ltpFR	17	7	-1	CHEF	290	5	-1	n/a	n/a	n/a	n/a	n/a
4551174	RECOG_LURE	n/a	LTP228	ltpFR	17	7	n/a	SUITCASE	1403	3	n/a	n/a	n/a	n/a	n/a	n/a
4551852	RECOG_RESP_VV	n/a	LTP228	ltpFR	17	7	n/a	SUITCASE	1403	n/a	n/a	n/a	n/a	n/a	n/a	n/a
4552791	RECOG_RESP	n/a	LTP228	ltpFR	17	7	n/a	SUITCASE	1403	n/a	n/a	n/a	n/a	n/a	n/a	n/a
4553538	RECOG_CONF	n/a	LTP228	ltpFR	17	7	n/a	SUITCASE	1403	3	n/a	n/a	n/a	n/a	n/a	n/a
4555289	RECOG_TARGET	n/a	LTP228	ltpFR	17	7	0	CHAMBER	277	4	1	n/a	n/a	n/a	n/a	n/a
4556375	RECOG_RESP	n/a	LTP228	ltpFR	17	7	0	CHAMBER	277	n/a	1	n/a	n/a	n/a	n/a	n/a
4557321	RECOG_CONF	n/a	LTP228	ltpFR	17	7	0	CHAMBER	277	4	1	n/a	n/a	n/a	n/a	n/a
4559234	RECOG_TARGET	n/a	LTP228	ltpFR	17	7	1	YARN	1631	3	0	n/a	n/a	n/a	n/a	n/a
4559923	RECOG_RESP	n/a	LTP228	ltpFR	17	7	1	YARN	1631	n/a	0	n/a	n/a	n/a	n/a	n/a
4560724	RECOG_CONF	n/a	LTP228	ltpFR	17	7	1	YARN	1631	3	0	n/a	n/a	n/a	n/a	n/a
4562349	RECOG_TARGET	n/a	LTP228	ltpFR	17	7	0	DRILL	497	3	0	n/a	n/a	n/a	n/a	n/a
4563984	RECOG_RESP	n/a	LTP228	ltpFR	17	7	0	DRILL	497	n/a	0	n/a	n/a	n/a	n/a	n/a
4564674	RECOG_CONF	n/a	LTP228	ltpFR	17	7	0	DRILL	497	3	0	n/a	n/a	n/a	n/a	n/a
4566331	RECOG_LURE	n/a	LTP228	ltpFR	17	7	n/a	SANDWICH	1232	4	n/a	n/a	n/a	n/a	n/a	n/a
4571200	RECOG_RESP	n/a	LTP228	ltpFR	17	7	n/a	SANDWICH	1232	n/a	n/a	n/a	n/a	n/a	n/a	n/a
4572344	RECOG_CONF	n/a	LTP228	ltpFR	17	7	n/a	SANDWICH	1232	4	n/a	n/a	n/a	n/a	n/a	n/a
4574578	RECOG_TARGET	n/a	LTP228	ltpFR	17	7	-1	NECKLACE	940	3	-1	n/a	n/a	n/a	n/a	n/a
4575701	RECOG_RESP	n/a	LTP228	ltpFR	17	7	-1	NECKLACE	940	n/a	-1	n/a	n/a	n/a	n/a	n/a
4576558	RECOG_CONF	n/a	LTP228	ltpFR	17	7	-1	NECKLACE	940	3	-1	n/a	n/a	n/a	n/a	n/a
4578126	RECOG_TARGET	n/a	LTP228	ltpFR	17	7	1	LITTER	832	3	0	n/a	n/a	n/a	n/a	n/a
4579172	RECOG_RESP	n/a	LTP228	ltpFR	17	7	1	LITTER	832	n/a	0	n/a	n/a	n/a	n/a	n/a
4579852	RECOG_CONF	n/a	LTP228	ltpFR	17	7	1	LITTER	832	3	0	n/a	n/a	n/a	n/a	n/a
4588823	REC_START	n/a	LTP228	ltpFR	17	8	n/a	n/a	n/a	n/a	n/a	n/a	n/a	n/a	n/a	n/a
4588878	RECOG_LURE	n/a	LTP228	ltpFR	17	8	n/a	PASSAGE	1019	3	n/a	n/a	n/a	n/a	n/a	n/a
4589791	RECOG_RESP	n/a	LTP228	ltpFR	17	8	n/a	PASSAGE	1019	n/a	n/a	n/a	n/a	n/a	n/a	n/a
4590367	RECOG_CONF	n/a	LTP228	ltpFR	17	8	n/a	PASSAGE	1019	3	n/a	n/a	n/a	n/a	n/a	n/a
4592061	RECOG_TARGET	n/a	LTP228	ltpFR	17	8	0	BOULDER	155	4	1	n/a	n/a	n/a	n/a	n/a
4592828	RECOG_RESP	n/a	LTP228	ltpFR	17	8	0	BOULDER	155	n/a	1	n/a	n/a	n/a	n/a	n/a
4593374	RECOG_CONF	n/a	LTP228	ltpFR	17	8	0	BOULDER	155	4	1	n/a	n/a	n/a	n/a	n/a
4595136	RECOG_LURE	n/a	LTP228	ltpFR	17	8	n/a	BRUSH	182	4	n/a	n/a	n/a	n/a	n/a	n/a
4595901	RECOG_RESP	n/a	LTP228	ltpFR	17	8	n/a	BRUSH	182	n/a	n/a	n/a	n/a	n/a	n/a	n/a
4596597	RECOG_CONF	n/a	LTP228	ltpFR	17	8	n/a	BRUSH	182	4	n/a	n/a	n/a	n/a	n/a	n/a
4598268	RECOG_LURE	n/a	LTP228	ltpFR	17	8	n/a	PANTS	1010	5	n/a	n/a	n/a	n/a	n/a	n/a
4599327	RECOG_RESP	n/a	LTP228	ltpFR	17	8	n/a	PANTS	1010	n/a	n/a	n/a	n/a	n/a	n/a	n/a
4600365	RECOG_CONF	n/a	LTP228	ltpFR	17	8	n/a	PANTS	1010	5	n/a	n/a	n/a	n/a	n/a	n/a
4602166	RECOG_TARGET	n/a	LTP228	ltpFR	17	8	1	SHRIMP	1297	3	1	n/a	n/a	n/a	n/a	n/a
4602865	RECOG_RESP	n/a	LTP228	ltpFR	17	8	1	SHRIMP	1297	n/a	1	n/a	n/a	n/a	n/a	n/a
4603664	RECOG_CONF	n/a	LTP228	ltpFR	17	8	1	SHRIMP	1297	3	1	n/a	n/a	n/a	n/a	n/a
4605375	RECOG_TARGET	n/a	LTP228	ltpFR	17	8	0	SCOUT	1252	4	1	n/a	n/a	n/a	n/a	n/a
4606181	RECOG_RESP	n/a	LTP228	ltpFR	17	8	0	SCOUT	1252	n/a	1	n/a	n/a	n/a	n/a	n/a
4606723	RECOG_CONF	n/a	LTP228	ltpFR	17	8	0	SCOUT	1252	4	1	n/a	n/a	n/a	n/a	n/a
4608406	RECOG_TARGET	n/a	LTP228	ltpFR	17	8	0	BRICK	172	2	0	n/a	n/a	n/a	n/a	n/a
4609750	RECOG_RESP	n/a	LTP228	ltpFR	17	8	0	BRICK	172	n/a	0	n/a	n/a	n/a	n/a	n/a
4610566	RECOG_CONF	n/a	LTP228	ltpFR	17	8	0	BRICK	172	2	0	n/a	n/a	n/a	n/a	n/a
4612137	RECOG_LURE	n/a	LTP228	ltpFR	17	8	n/a	NERVE	944	3	n/a	n/a	n/a	n/a	n/a	n/a
4614053	RECOG_RESP	n/a	LTP228	ltpFR	17	8	n/a	NERVE	944	n/a	n/a	n/a	n/a	n/a	n/a	n/a
4614659	RECOG_CONF	n/a	LTP228	ltpFR	17	8	n/a	NERVE	944	3	n/a	n/a	n/a	n/a	n/a	n/a
4616366	RECOG_LURE	n/a	LTP228	ltpFR	17	8	n/a	SHELL	1281	3	n/a	n/a	n/a	n/a	n/a	n/a
4619708	RECOG_RESP	n/a	LTP228	ltpFR	17	8	n/a	SHELL	1281	n/a	n/a	n/a	n/a	n/a	n/a	n/a
4620281	RECOG_CONF	n/a	LTP228	ltpFR	17	8	n/a	SHELL	1281	3	n/a	n/a	n/a	n/a	n/a	n/a
4622125	RECOG_TARGET	n/a	LTP228	ltpFR	17	8	-1	CLIPPERS	324	3	-1	n/a	n/a	n/a	n/a	n/a
4623114	RECOG_RESP	n/a	LTP228	ltpFR	17	8	-1	CLIPPERS	324	n/a	-1	n/a	n/a	n/a	n/a	n/a
4623847	RECOG_CONF	n/a	LTP228	ltpFR	17	8	-1	CLIPPERS	324	3	-1	n/a	n/a	n/a	n/a	n/a
4625419	RECOG_TARGET	n/a	LTP228	ltpFR	17	8	0	POCKET	1093	4	0	n/a	n/a	n/a	n/a	n/a
4626404	RECOG_RESP	n/a	LTP228	ltpFR	17	8	0	POCKET	1093	n/a	0	n/a	n/a	n/a	n/a	n/a
4626970	RECOG_CONF	n/a	LTP228	ltpFR	17	8	0	POCKET	1093	4	0	n/a	n/a	n/a	n/a	n/a
4628565	RECOG_TARGET	n/a	LTP228	ltpFR	17	8	0	CAVE	263	4	1	n/a	n/a	n/a	n/a	n/a
4629277	RECOG_RESP	n/a	LTP228	ltpFR	17	8	0	CAVE	263	n/a	1	n/a	n/a	n/a	n/a	n/a
4629844	RECOG_CONF	n/a	LTP228	ltpFR	17	8	0	CAVE	263	4	1	n/a	n/a	n/a	n/a	n/a
4631542	RECOG_TARGET	n/a	LTP228	ltpFR	17	8	-1	SKYSCRAPER	1322	5	-1	n/a	n/a	n/a	n/a	n/a
4632386	RECOG_RESP	n/a	LTP228	ltpFR	17	8	-1	SKYSCRAPER	1322	n/a	-1	n/a	n/a	n/a	n/a	n/a
4633017	RECOG_CONF	n/a	LTP228	ltpFR	17	8	-1	SKYSCRAPER	1322	5	-1	n/a	n/a	n/a	n/a	n/a
4634888	RECOG_TARGET	n/a	LTP228	ltpFR	17	8	0	FIDDLE	561	3	1	n/a	n/a	n/a	n/a	n/a
4635685	RECOG_RESP	n/a	LTP228	ltpFR	17	8	0	FIDDLE	561	n/a	1	n/a	n/a	n/a	n/a	n/a
4636412	RECOG_CONF	n/a	LTP228	ltpFR	17	8	0	FIDDLE	561	3	1	n/a	n/a	n/a	n/a	n/a
4638035	RECOG_LURE	n/a	LTP228	ltpFR	17	8	n/a	BRIDGE	174	2	n/a	n/a	n/a	n/a	n/a	n/a
4639166	RECOG_RESP	n/a	LTP228	ltpFR	17	8	n/a	BRIDGE	174	n/a	n/a	n/a	n/a	n/a	n/a	n/a
4639867	RECOG_CONF	n/a	LTP228	ltpFR	17	8	n/a	BRIDGE	174	2	n/a	n/a	n/a	n/a	n/a	n/a
4641547	RECOG_TARGET	n/a	LTP228	ltpFR	17	8	1	OFFICER	973	3	1	n/a	n/a	n/a	n/a	n/a
4642375	RECOG_RESP	n/a	LTP228	ltpFR	17	8	1	OFFICER	973	n/a	1	n/a	n/a	n/a	n/a	n/a
4643048	RECOG_CONF	n/a	LTP228	ltpFR	17	8	1	OFFICER	973	3	1	n/a	n/a	n/a	n/a	n/a
4644675	RECOG_TARGET	n/a	LTP228	ltpFR	17	8	-1	MAILMAN	858	4	-1	n/a	n/a	n/a	n/a	n/a
4645671	RECOG_RESP	n/a	LTP228	ltpFR	17	8	-1	MAILMAN	858	n/a	-1	n/a	n/a	n/a	n/a	n/a
4646222	RECOG_CONF	n/a	LTP228	ltpFR	17	8	-1	MAILMAN	858	4	-1	n/a	n/a	n/a	n/a	n/a
4648123	RECOG_TARGET	n/a	LTP228	ltpFR	17	8	0	VIOLIN	1571	4	1	n/a	n/a	n/a	n/a	n/a
4648807	RECOG_RESP	n/a	LTP228	ltpFR	17	8	0	VIOLIN	1571	n/a	1	n/a	n/a	n/a	n/a	n/a
4649356	RECOG_CONF	n/a	LTP228	ltpFR	17	8	0	VIOLIN	1571	4	1	n/a	n/a	n/a	n/a	n/a
4651147	RECOG_LURE	n/a	LTP228	ltpFR	17	8	n/a	FLY	586	3	n/a	n/a	n/a	n/a	n/a	n/a
4651873	RECOG_RESP	n/a	LTP228	ltpFR	17	8	n/a	FLY	586	n/a	n/a	n/a	n/a	n/a	n/a	n/a
4652482	RECOG_CONF	n/a	LTP228	ltpFR	17	8	n/a	FLY	586	3	n/a	n/a	n/a	n/a	n/a	n/a
4654145	RECOG_TARGET	n/a	LTP228	ltpFR	17	8	1	SNAIL	1332	3	1	n/a	n/a	n/a	n/a	n/a
4656469	RECOG_RESP	n/a	LTP228	ltpFR	17	8	1	SNAIL	1332	n/a	1	n/a	n/a	n/a	n/a	n/a
4657628	RECOG_CONF	n/a	LTP228	ltpFR	17	8	1	SNAIL	1332	3	1	n/a	n/a	n/a	n/a	n/a
4692199	REC_START	n/a	LTP228	ltpFR	17	9	n/a	n/a	n/a	n/a	n/a	n/a	n/a	n/a	n/a	n/a
4692252	RECOG_LURE	n/a	LTP228	ltpFR	17	9	n/a	CAVITY	264	3	n/a	n/a	n/a	n/a	n/a	n/a
4693274	RECOG_RESP	n/a	LTP228	ltpFR	17	9	n/a	CAVITY	264	n/a	n/a	n/a	n/a	n/a	n/a	n/a
4693805	RECOG_CONF	n/a	LTP228	ltpFR	17	9	n/a	CAVITY	264	3	n/a	n/a	n/a	n/a	n/a	n/a
4695467	RECOG_TARGET	n/a	LTP228	ltpFR	17	9	1	HAM	678	3	1	n/a	n/a	n/a	n/a	n/a
4696210	RECOG_RESP	n/a	LTP228	ltpFR	17	9	1	HAM	678	n/a	1	n/a	n/a	n/a	n/a	n/a
4696717	RECOG_CONF	n/a	LTP228	ltpFR	17	9	1	HAM	678	3	1	n/a	n/a	n/a	n/a	n/a
4698445	RECOG_TARGET	n/a	LTP228	ltpFR	17	9	0	CAT	257	2	1	n/a	n/a	n/a	n/a	n/a
4699333	RECOG_RESP	n/a	LTP228	ltpFR	17	9	0	CAT	257	n/a	1	n/a	n/a	n/a	n/a	n/a
4699910	RECOG_CONF	n/a	LTP228	ltpFR	17	9	0	CAT	257	2	1	n/a	n/a	n/a	n/a	n/a
4701573	RECOG_LURE	n/a	LTP228	ltpFR	17	9	n/a	APARTMENT	30	4	n/a	n/a	n/a	n/a	n/a	n/a
4702842	RECOG_RESP	n/a	LTP228	ltpFR	17	9	n/a	APARTMENT	30	n/a	n/a	n/a	n/a	n/a	n/a	n/a
4703458	RECOG_CONF	n/a	LTP228	ltpFR	17	9	n/a	APARTMENT	30	4	n/a	n/a	n/a	n/a	n/a	n/a
4705288	RECOG_LURE	n/a	LTP228	ltpFR	17	9	n/a	ATHLETE	52	3	n/a	n/a	n/a	n/a	n/a	n/a
4706329	RECOG_RESP	n/a	LTP228	ltpFR	17	9	n/a	ATHLETE	52	n/a	n/a	n/a	n/a	n/a	n/a	n/a
4706845	RECOG_CONF	n/a	LTP228	ltpFR	17	9	n/a	ATHLETE	52	3	n/a	n/a	n/a	n/a	n/a	n/a
4708529	RECOG_LURE	n/a	LTP228	ltpFR	17	9	n/a	HIP	710	2	n/a	n/a	n/a	n/a	n/a	n/a
4710745	RECOG_RESP	n/a	LTP228	ltpFR	17	9	n/a	HIP	710	n/a	n/a	n/a	n/a	n/a	n/a	n/a
4711483	RECOG_CONF	n/a	LTP228	ltpFR	17	9	n/a	HIP	710	2	n/a	n/a	n/a	n/a	n/a	n/a
4713181	RECOG_TARGET	n/a	LTP228	ltpFR	17	9	1	NEPHEW	942	4	1	n/a	n/a	n/a	n/a	n/a
4713833	RECOG_RESP	n/a	LTP228	ltpFR	17	9	1	NEPHEW	942	n/a	1	n/a	n/a	n/a	n/a	n/a
4714453	RECOG_CONF	n/a	LTP228	ltpFR	17	9	1	NEPHEW	942	4	1	n/a	n/a	n/a	n/a	n/a
4716045	RECOG_LURE	n/a	LTP228	ltpFR	17	9	n/a	SCULPTURE	1258	3	n/a	n/a	n/a	n/a	n/a	n/a
4719552	RECOG_RESP	n/a	LTP228	ltpFR	17	9	n/a	SCULPTURE	1258	n/a	n/a	n/a	n/a	n/a	n/a	n/a
4720190	RECOG_CONF	n/a	LTP228	ltpFR	17	9	n/a	SCULPTURE	1258	3	n/a	n/a	n/a	n/a	n/a	n/a
4721896	RECOG_LURE	n/a	LTP228	ltpFR	17	9	n/a	MACHINE	852	4	n/a	n/a	n/a	n/a	n/a	n/a
