mstime	trial_type	stim_file	subject	experiment	session	trial	item_name	item_num	list	answer	test_x	test_y	test_z
0	SESS_START	n/a	LTP327	ltpFR2	14	n/a	n/a	n/a	n/a	n/a	0	0	0
11522	START	n/a	LTP327	ltpFR2	14	n/a	n/a	n/a	-1	n/a	n/a	n/a	n/a
11544	PROB	n/a	LTP327	ltpFR2	14	n/a	n/a	n/a	-1	11	7	1	3
12994	PROB	n/a	LTP327	ltpFR2	14	n/a	n/a	n/a	-1	12	7	1	4
14459	PROB	n/a	LTP327	ltpFR2	14	n/a	n/a	n/a	-1	15	8	6	1
15741	PROB	n/a	LTP327	ltpFR2	14	n/a	n/a	n/a	-1	15	5	5	5
17025	PROB	n/a	LTP327	ltpFR2	14	n/a	n/a	n/a	-1	14	6	3	5
18490	PROB	n/a	LTP327	ltpFR2	14	n/a	n/a	n/a	-1	13	2	2	9
19706	PROB	n/a	LTP327	ltpFR2	14	n/a	n/a	n/a	-1	9	1	7	2
21455	PROB	n/a	LTP327	ltpFR2	14	n/a	n/a	n/a	-1	15	8	1	6
23131	STOP	n/a	LTP327	ltpFR2	14	n/a	n/a	n/a	-1	n/a	n/a	n/a	n/a
54789	WORD	wordpools/wasnorm_wordpool_576.txt	LTP327	ltpFR2	14	1	HORSE	719	n/a	n/a	0	0	0
57421	WORD	wordpools/wasnorm_wordpool_576.txt	LTP327	ltpFR2	14	1	PADDING	999	n/a	n/a	0	0	0
60153	WORD	wordpools/wasnorm_wordpool_576.txt	LTP327	ltpFR2	14	1	HANDBAG	684	n/a	n/a	0	0	0
62818	WORD	wordpools/wasnorm_wordpool_576.txt	LTP327	ltpFR2	14	1	POSSUM	1112	n/a	n/a	0	0	0
65550	WORD	wordpools/wasnorm_wordpool_576.txt	LTP327	ltpFR2	14	1	FARMER	553	n/a	n/a	0	0	0
68165	WORD	wordpools/wasnorm_wordpool_576.txt	LTP327	ltpFR2	14	1	YARN	1631	n/a	n/a	0	0	0
70631	WORD	wordpools/wasnorm_wordpool_576.txt	LTP327	ltpFR2	14	1	SPOOL	1356	n/a	n/a	0	0	0
73396	WORD	wordpools/wasnorm_wordpool_576.txt	LTP327	ltpFR2	14	1	STAPLE	1371	n/a	n/a	0	0	0
75895	WORD	wordpools/wasnorm_wordpool_576.txt	LTP327	ltpFR2	14	1	CARRIAGE	248	n/a	n/a	0	0	0
78410	WORD	wordpools/wasnorm_wordpool_576.txt	LTP327	ltpFR2	14	1	TOURIST	1488	n/a	n/a	0	0	0
80876	WORD	wordpools/wasnorm_wordpool_576.txt	LTP327	ltpFR2	14	1	DOLPHIN	483	n/a	n/a	0	0	0
83691	WORD	wordpools/wasnorm_wordpool_576.txt	LTP327	ltpFR2	14	1	GUITAR	670	n/a	n/a	0	0	0
86156	WORD	wordpools/wasnorm_wordpool_576.txt	LTP327	ltpFR2	14	1	BUGGY	188	n/a	n/a	0	0	0
88772	WORD	wordpools/wasnorm_wordpool_576.txt	LTP327	ltpFR2	14	1	COSTUME	383	n/a	n/a	0	0	0
91520	WORD	wordpools/wasnorm_wordpool_576.txt	LTP327	ltpFR2	14	1	COIN	343	n/a	n/a	0	0	0
94186	WORD	wordpools/wasnorm_wordpool_576.txt	LTP327	ltpFR2	14	1	SERVANT	1271	n/a	n/a	0	0	0
96651	WORD	wordpools/wasnorm_wordpool_576.txt	LTP327	ltpFR2	14	1	WAITER	1580	n/a	n/a	0	0	0
99101	WORD	wordpools/wasnorm_wordpool_576.txt	LTP327	ltpFR2	14	1	WHISTLE	1606	n/a	n/a	0	0	0
101632	WORD	wordpools/wasnorm_wordpool_576.txt	LTP327	ltpFR2	14	1	WARDROBE	1587	n/a	n/a	0	0	0
104098	WORD	wordpools/wasnorm_wordpool_576.txt	LTP327	ltpFR2	14	1	BRIEFCASE	175	n/a	n/a	0	0	0
106846	WORD	wordpools/wasnorm_wordpool_576.txt	LTP327	ltpFR2	14	1	OMELET	976	n/a	n/a	0	0	0
109328	WORD	wordpools/wasnorm_wordpool_576.txt	LTP327	ltpFR2	14	1	LOVER	846	n/a	n/a	0	0	0
111794	WORD	wordpools/wasnorm_wordpool_576.txt	LTP327	ltpFR2	14	1	SCARECROW	1245	n/a	n/a	0	0	0
114242	WORD	wordpools/wasnorm_wordpool_576.txt	LTP327	ltpFR2	14	1	PEBBLE	1035	n/a	n/a	0	0	0
115859	START	n/a	LTP327	ltpFR2	14	n/a	n/a	n/a	1	n/a	n/a	n/a	n/a
117000	DISTRACTOR	n/a	LTP327	ltpFR2	14	1	n/a	n/a	n/a	n/a	0	0	0
117025	PROB	n/a	LTP327	ltpFR2	14	n/a	n/a	n/a	1	8	5	1	2
118240	PROB	n/a	LTP327	ltpFR2	14	n/a	n/a	n/a	1	23	6	9	8
119840	PROB	n/a	LTP327	ltpFR2	14	n/a	n/a	n/a	1	16	7	3	6
121090	PROB	n/a	LTP327	ltpFR2	14	n/a	n/a	n/a	1	6	2	2	2
122138	PROB	n/a	LTP327	ltpFR2	14	n/a	n/a	n/a	1	24	8	6	9
123638	PROB	n/a	LTP327	ltpFR2	14	n/a	n/a	n/a	1	12	5	3	4
125670	PROB	n/a	LTP327	ltpFR2	14	n/a	n/a	n/a	1	15	5	2	8
127104	PROB	n/a	LTP327	ltpFR2	14	n/a	n/a	n/a	1	21	4	8	9
128585	PROB	n/a	LTP327	ltpFR2	14	n/a	n/a	n/a	1	20	6	5	9
129935	PROB	n/a	LTP327	ltpFR2	14	n/a	n/a	n/a	1	19	9	7	3
131351	PROB	n/a	LTP327	ltpFR2	14	n/a	n/a	n/a	1	18	8	2	8
132816	PROB	n/a	LTP327	ltpFR2	14	n/a	n/a	n/a	1	8	4	3	1
134149	PROB	n/a	LTP327	ltpFR2	14	n/a	n/a	n/a	1	18	9	1	8
135665	PROB	n/a	LTP327	ltpFR2	14	n/a	n/a	n/a	1	15	6	8	1
136965	PROB	n/a	LTP327	ltpFR2	14	n/a	n/a	n/a	1	9	2	1	6
138635	STOP	n/a	LTP327	ltpFR2	14	n/a	n/a	n/a	1	n/a	n/a	n/a	n/a
141813	REC_START	n/a	LTP327	ltpFR2	14	1	n/a	n/a	n/a	n/a	0	0	0
142135	REC_WORD	wordpools/wasnorm_wordpool_576.txt	LTP327	ltpFR2	14	1	SCARECROW	1245	n/a	n/a	0	0	0
143352	REC_WORD	wordpools/wasnorm_wordpool_576.txt	LTP327	ltpFR2	14	1	PEBBLE	1035	n/a	n/a	0	0	0
144298	REC_WORD	wordpools/wasnorm_wordpool_576.txt	LTP327	ltpFR2	14	1	WARDROBE	1587	n/a	n/a	0	0	0
145267	REC_WORD	wordpools/wasnorm_wordpool_576.txt	LTP327	ltpFR2	14	1	LOVER	846	n/a	n/a	0	0	0
146429	REC_WORD	wordpools/wasnorm_wordpool_576.txt	LTP327	ltpFR2	14	1	OMELET	976	n/a	n/a	0	0	0
147412	REC_WORD	wordpools/wasnorm_wordpool_576.txt	LTP327	ltpFR2	14	1	BRIEFCASE	175	n/a	n/a	0	0	0
149234	REC_WORD	wordpools/wasnorm_wordpool_576.txt	LTP327	ltpFR2	14	1	HORSE	719	n/a	n/a	0	0	0
150232	REC_WORD	wordpools/wasnorm_wordpool_576.txt	LTP327	ltpFR2	14	1	PADDING	999	n/a	n/a	0	0	0
152264	REC_WORD	wordpools/wasnorm_wordpool_576.txt	LTP327	ltpFR2	14	1	TOURIST	1488	n/a	n/a	0	0	0
153405	REC_WORD	wordpools/wasnorm_wordpool_576.txt	LTP327	ltpFR2	14	1	COIN	343	n/a	n/a	0	0	0
157952	REC_WORD	wordpools/wasnorm_wordpool_576.txt	LTP327	ltpFR2	14	1	STAPLE	1371	n/a	n/a	0	0	0
159144	REC_WORD	wordpools/wasnorm_wordpool_576.txt	LTP327	ltpFR2	14	1	CARRIAGE	248	n/a	n/a	0	0	0
160089	REC_WORD	wordpools/wasnorm_wordpool_576.txt	LTP327	ltpFR2	14	1	FARMER	553	n/a	n/a	0	0	0
161736	REC_WORD	wordpools/wasnorm_wordpool_576.txt	LTP327	ltpFR2	14	1	HANDBAG	684	n/a	n/a	0	0	0
162852	REC_WORD	wordpools/wasnorm_wordpool_576.txt	LTP327	ltpFR2	14	1	POSSUM	1112	n/a	n/a	0	0	0
164232	REC_WORD	wordpools/wasnorm_wordpool_576.txt	LTP327	ltpFR2	14	1	SPOOL	1356	n/a	n/a	0	0	0
165215	REC_WORD	wordpools/wasnorm_wordpool_576.txt	LTP327	ltpFR2	14	1	YARN	1631	n/a	n/a	0	0	0
167069	REC_WORD	wordpools/wasnorm_wordpool_576.txt	LTP327	ltpFR2	14	1	COSTUME	383	n/a	n/a	0	0	0
168445	REC_WORD	wordpools/wasnorm_wordpool_576.txt	LTP327	ltpFR2	14	1	FARMER	553	n/a	n/a	0	0	0
171677	REC_WORD	wordpools/wasnorm_wordpool_576.txt	LTP327	ltpFR2	14	1	SERVANT	1271	n/a	n/a	0	0	0
172696	REC_WORD	wordpools/wasnorm_wordpool_576.txt	LTP327	ltpFR2	14	1	WAITER	1580	n/a	n/a	0	0	0
183680	REC_WORD	wordpools/wasnorm_wordpool_576.txt	LTP327	ltpFR2	14	1	GUITAR	670	n/a	n/a	0	0	0
184775	REC_WORD	wordpools/wasnorm_wordpool_576.txt	LTP327	ltpFR2	14	1	BUGGY	188	n/a	n/a	0	0	0
196704	REC_WORD	wordpools/wasnorm_wordpool_576.txt	LTP327	ltpFR2	14	1	WHISTLE	1606	n/a	n/a	0	0	0
232484	WORD	wordpools/wasnorm_wordpool_576.txt	LTP327	ltpFR2	14	2	KNIFE	785	n/a	n/a	0	0	0
235132	WORD	wordpools/wasnorm_wordpool_576.txt	LTP327	ltpFR2	14	2	CROSS	413	n/a	n/a	0	0	0
237748	WORD	wordpools/wasnorm_wordpool_576.txt	LTP327	ltpFR2	14	2	UNCLE	1536	n/a	n/a	0	0	0
240546	WORD	wordpools/wasnorm_wordpool_576.txt	LTP327	ltpFR2	14	2	ULCER	1533	n/a	n/a	0	0	0
243395	WORD	wordpools/wasnorm_wordpool_576.txt	LTP327	ltpFR2	14	2	SPARROW	1347	n/a	n/a	0	0	0
246143	WORD	wordpools/wasnorm_wordpool_576.txt	LTP327	ltpFR2	14	2	SLUG	1329	n/a	n/a	0	0	0
248659	WORD	wordpools/wasnorm_wordpool_576.txt	LTP327	ltpFR2	14	2	BATHTUB	100	n/a	n/a	0	0	0
251224	WORD	wordpools/wasnorm_wordpool_576.txt	LTP327	ltpFR2	14	2	PICNIC	1060	n/a	n/a	0	0	0
253974	WORD	wordpools/wasnorm_wordpool_576.txt	LTP327	ltpFR2	14	2	JELLY	755	n/a	n/a	0	0	0
256788	WORD	wordpools/wasnorm_wordpool_576.txt	LTP327	ltpFR2	14	2	TOMBSTONE	1478	n/a	n/a	0	0	0
259570	WORD	wordpools/wasnorm_wordpool_576.txt	LTP327	ltpFR2	14	2	SCRIBBLE	1256	n/a	n/a	0	0	0
262269	WORD	wordpools/wasnorm_wordpool_576.txt	LTP327	ltpFR2	14	2	VELVET	1555	n/a	n/a	0	0	0
265002	WORD	wordpools/wasnorm_wordpool_576.txt	LTP327	ltpFR2	14	2	BOX	159	n/a	n/a	0	0	0
267749	WORD	wordpools/wasnorm_wordpool_576.txt	LTP327	ltpFR2	14	2	PACKAGE	997	n/a	n/a	0	0	0
270481	WORD	wordpools/wasnorm_wordpool_576.txt	LTP327	ltpFR2	14	2	SNAIL	1332	n/a	n/a	0	0	0
273113	WORD	wordpools/wasnorm_wordpool_576.txt	LTP327	ltpFR2	14	2	TWISTER	1530	n/a	n/a	0	0	0
275862	WORD	wordpools/wasnorm_wordpool_576.txt	LTP327	ltpFR2	14	2	COUSIN	392	n/a	n/a	0	0	0
278361	WORD	wordpools/wasnorm_wordpool_576.txt	LTP327	ltpFR2	14	2	ATOM	55	n/a	n/a	0	0	0
281143	WORD	wordpools/wasnorm_wordpool_576.txt	LTP327	ltpFR2	14	2	BEAKER	104	n/a	n/a	0	0	0
283725	WORD	wordpools/wasnorm_wordpool_576.txt	LTP327	ltpFR2	14	2	GREASE	660	n/a	n/a	0	0	0
286557	WORD	wordpools/wasnorm_wordpool_576.txt	LTP327	ltpFR2	14	2	SKETCH	1315	n/a	n/a	0	0	0
289205	WORD	wordpools/wasnorm_wordpool_576.txt	LTP327	ltpFR2	14	2	PUPPY	1144	n/a	n/a	0	0	0
291904	WORD	wordpools/wasnorm_wordpool_576.txt	LTP327	ltpFR2	14	2	CATCHER	258	n/a	n/a	0	0	0
294736	WORD	wordpools/wasnorm_wordpool_576.txt	LTP327	ltpFR2	14	2	GALLON	618	n/a	n/a	0	0	0
296352	START	n/a	LTP327	ltpFR2	14	n/a	n/a	n/a	2	n/a	n/a	n/a	n/a
297498	DISTRACTOR	n/a	LTP327	ltpFR2	14	2	n/a	n/a	n/a	n/a	0	0	0
297518	PROB	n/a	LTP327	ltpFR2	14	n/a	n/a	n/a	2	22	7	8	7
299134	PROB	n/a	LTP327	ltpFR2	14	n/a	n/a	n/a	2	13	7	5	1
301866	PROB	n/a	LTP327	ltpFR2	14	n/a	n/a	n/a	2	17	5	5	7
303115	PROB	n/a	LTP327	ltpFR2	14	n/a	n/a	n/a	2	10	4	1	5
304331	PROB	n/a	LTP327	ltpFR2	14	n/a	n/a	n/a	2	14	2	6	6
305965	PROB	n/a	LTP327	ltpFR2	14	n/a	n/a	n/a	2	19	5	7	7
307430	PROB	n/a	LTP327	ltpFR2	14	n/a	n/a	n/a	2	16	3	7	6
308679	PROB	n/a	LTP327	ltpFR2	14	n/a	n/a	n/a	2	23	8	9	6
310945	PROB	n/a	LTP327	ltpFR2	14	n/a	n/a	n/a	2	20	5	6	9
312544	PROB	n/a	LTP327	ltpFR2	14	n/a	n/a	n/a	2	19	6	9	4
313926	PROB	n/a	LTP327	ltpFR2	14	n/a	n/a	n/a	2	14	8	5	1
315242	PROB	n/a	LTP327	ltpFR2	14	n/a	n/a	n/a	2	13	5	7	1
316508	PROB	n/a	LTP327	ltpFR2	14	n/a	n/a	n/a	2	13	1	4	8
317691	PROB	n/a	LTP327	ltpFR2	14	n/a	n/a	n/a	2	18	8	9	1
319076	STOP	n/a	LTP327	ltpFR2	14	n/a	n/a	n/a	2	n/a	n/a	n/a	n/a
322206	REC_START	n/a	LTP327	ltpFR2	14	2	n/a	n/a	n/a	n/a	0	0	0
324283	REC_WORD	wordpools/wasnorm_wordpool_576.txt	LTP327	ltpFR2	14	2	PICNIC	1060	n/a	n/a	0	0	0
325243	REC_WORD	wordpools/wasnorm_wordpool_576.txt	LTP327	ltpFR2	14	2	BATHTUB	100	n/a	n/a	0	0	0
326381	REC_WORD	wordpools/wasnorm_wordpool_576.txt	LTP327	ltpFR2	14	2	JELLY	755	n/a	n/a	0	0	0
327227	REC_WORD	wordpools/wasnorm_wordpool_576.txt	LTP327	ltpFR2	14	2	UNCLE	1536	n/a	n/a	0	0	0
327918	REC_WORD	wordpools/wasnorm_wordpool_576.txt	LTP327	ltpFR2	14	2	ULCER	1533	n/a	n/a	0	0	0
328644	REC_WORD	wordpools/wasnorm_wordpool_576.txt	LTP327	ltpFR2	14	2	CROSS	413	n/a	n/a	0	0	0
329597	REC_WORD	wordpools/wasnorm_wordpool_576.txt	LTP327	ltpFR2	14	2	SNAIL	1332	n/a	n/a	0	0	0
330446	REC_WORD	wordpools/wasnorm_wordpool_576.txt	LTP327	ltpFR2	14	2	SLUG	1329	n/a	n/a	0	0	0
333018	REC_WORD	wordpools/wasnorm_wordpool_576.txt	LTP327	ltpFR2	14	2	KNIFE	785	n/a	n/a	0	0	0
339393	REC_WORD	wordpools/wasnorm_wordpool_576.txt	LTP327	ltpFR2	14	2	JELLY	755	n/a	n/a	0	0	0
341290	REC_WORD	wordpools/wasnorm_wordpool_576.txt	LTP327	ltpFR2	14	2	TOMBSTONE	1478	n/a	n/a	0	0	0
342362	REC_WORD	wordpools/wasnorm_wordpool_576.txt	LTP327	ltpFR2	14	2	VELVET	1555	n/a	n/a	0	0	0
343201	REC_WORD	wordpools/wasnorm_wordpool_576.txt	LTP327	ltpFR2	14	2	SKETCH	1315	n/a	n/a	0	0	0
345519	REC_WORD	wordpools/wasnorm_wordpool_576.txt	LTP327	ltpFR2	14	2	PUPPY	1144	n/a	n/a	0	0	0
346328	REC_WORD	wordpools/wasnorm_wordpool_576.txt	LTP327	ltpFR2	14	2	CATCHER	258	n/a	n/a	0	0	0
347046	REC_WORD	wordpools/wasnorm_wordpool_576.txt	LTP327	ltpFR2	14	2	SCRIBBLE	1256	n/a	n/a	0	0	0
354449	REC_WORD	wordpools/wasnorm_wordpool_576.txt	LTP327	ltpFR2	14	2	COUSIN	392	n/a	n/a	0	0	0
355874	REC_WORD	wordpools/wasnorm_wordpool_576.txt	LTP327	ltpFR2	14	2	BEAKER	104	n/a	n/a	0	0	0
358179	REC_WORD	wordpools/wasnorm_wordpool_576.txt	LTP327	ltpFR2	14	2	ATOM	55	n/a	n/a	0	0	0
370964	REC_WORD	wordpools/wasnorm_wordpool_576.txt	LTP327	ltpFR2	14	2	SPARROW	1347	n/a	n/a	0	0	0
412844	DISTRACTOR	n/a	LTP327	ltpFR2	14	3	n/a	n/a	n/a	n/a	0	0	0
412844	START	n/a	LTP327	ltpFR2	14	n/a	n/a	n/a	3	n/a	n/a	n/a	n/a
412877	PROB	n/a	LTP327	ltpFR2	14	n/a	n/a	n/a	3	16	4	9	3
414510	PROB	n/a	LTP327	ltpFR2	14	n/a	n/a	n/a	3	12	3	7	2
415659	PROB	n/a	LTP327	ltpFR2	14	n/a	n/a	n/a	3	9	2	1	6
416892	PROB	n/a	LTP327	ltpFR2	14	n/a	n/a	n/a	3	13	6	5	2
418225	PROB	n/a	LTP327	ltpFR2	14	n/a	n/a	n/a	3	8	2	3	2
419541	PROB	n/a	LTP327	ltpFR2	14	n/a	n/a	n/a	3	15	5	1	9
421423	PROB	n/a	LTP327	ltpFR2	14	n/a	n/a	n/a	3	9	2	5	2
422672	PROB	n/a	LTP327	ltpFR2	14	n/a	n/a	n/a	3	25	9	7	9
424188	PROB	n/a	LTP327	ltpFR2	14	n/a	n/a	n/a	3	17	1	8	8
425771	PROB	n/a	LTP327	ltpFR2	14	n/a	n/a	n/a	3	22	4	9	9
427287	PROB	n/a	LTP327	ltpFR2	14	n/a	n/a	n/a	3	15	7	7	1
428453	PROB	n/a	LTP327	ltpFR2	14	n/a	n/a	n/a	3	14	8	5	1
429769	PROB	n/a	LTP327	ltpFR2	14	n/a	n/a	n/a	3	22	5	8	9
431235	PROB	n/a	LTP327	ltpFR2	14	n/a	n/a	n/a	3	18	9	2	7
432634	PROB	n/a	LTP327	ltpFR2	14	n/a	n/a	n/a	3	20	6	6	8
434951	PROB	n/a	LTP327	ltpFR2	14	n/a	n/a	n/a	3	20	7	7	6
436211	STOP	n/a	LTP327	ltpFR2	14	n/a	n/a	n/a	3	n/a	n/a	n/a	n/a
437832	WORD	wordpools/wasnorm_wordpool_576.txt	LTP327	ltpFR2	14	3	ANTLER	29	n/a	n/a	0	0	0
440397	WORD	wordpools/wasnorm_wordpool_576.txt	LTP327	ltpFR2	14	3	BISON	131	n/a	n/a	0	0	0
443030	WORD	wordpools/wasnorm_wordpool_576.txt	LTP327	ltpFR2	14	3	ANKLE	24	n/a	n/a	0	0	0
445794	WORD	wordpools/wasnorm_wordpool_576.txt	LTP327	ltpFR2	14	3	TILE	1468	n/a	n/a	0	0	0
448626	WORD	wordpools/wasnorm_wordpool_576.txt	LTP327	ltpFR2	14	3	WHISKERS	1605	n/a	n/a	0	0	0
451341	WORD	wordpools/wasnorm_wordpool_576.txt	LTP327	ltpFR2	14	3	BULLET	194	n/a	n/a	0	0	0
453958	WORD	wordpools/wasnorm_wordpool_576.txt	LTP327	ltpFR2	14	3	FIDDLE	561	n/a	n/a	0	0	0
456522	WORD	wordpools/wasnorm_wordpool_576.txt	LTP327	ltpFR2	14	3	MISTER	901	n/a	n/a	0	0	0
459022	WORD	wordpools/wasnorm_wordpool_576.txt	LTP327	ltpFR2	14	3	ELBOW	520	n/a	n/a	0	0	0
461753	WORD	wordpools/wasnorm_wordpool_576.txt	LTP327	ltpFR2	14	3	CRUTCH	417	n/a	n/a	0	0	0
464402	WORD	wordpools/wasnorm_wordpool_576.txt	LTP327	ltpFR2	14	3	SHORTCAKE	1292	n/a	n/a	0	0	0
466985	WORD	wordpools/wasnorm_wordpool_576.txt	LTP327	ltpFR2	14	3	HUMAN	726	n/a	n/a	0	0	0
469766	WORD	wordpools/wasnorm_wordpool_576.txt	LTP327	ltpFR2	14	3	WINDOW	1611	n/a	n/a	0	0	0
472364	WORD	wordpools/wasnorm_wordpool_576.txt	LTP327	ltpFR2	14	3	TUBA	1515	n/a	n/a	0	0	0
475081	WORD	wordpools/wasnorm_wordpool_576.txt	LTP327	ltpFR2	14	3	PIANO	1057	n/a	n/a	0	0	0
477912	WORD	wordpools/wasnorm_wordpool_576.txt	LTP327	ltpFR2	14	3	RUG	1215	n/a	n/a	0	0	0
480644	WORD	wordpools/wasnorm_wordpool_576.txt	LTP327	ltpFR2	14	3	SHOULDER	1294	n/a	n/a	0	0	0
483242	WORD	wordpools/wasnorm_wordpool_576.txt	LTP327	ltpFR2	14	3	PEANUT	1032	n/a	n/a	0	0	0
486058	WORD	wordpools/wasnorm_wordpool_576.txt	LTP327	ltpFR2	14	3	MARS	873	n/a	n/a	0	0	0
488573	WORD	wordpools/wasnorm_wordpool_576.txt	LTP327	ltpFR2	14	3	CITRUS	313	n/a	n/a	0	0	0
491238	WORD	wordpools/wasnorm_wordpool_576.txt	LTP327	ltpFR2	14	3	XEROX	1628	n/a	n/a	0	0	0
493955	WORD	wordpools/wasnorm_wordpool_576.txt	LTP327	ltpFR2	14	3	CHEMIST	292	n/a	n/a	0	0	0
496586	WORD	wordpools/wasnorm_wordpool_576.txt	LTP327	ltpFR2	14	3	FUNGUS	614	n/a	n/a	0	0	0
499184	WORD	wordpools/wasnorm_wordpool_576.txt	LTP327	ltpFR2	14	3	RECEIPT	1173	n/a	n/a	0	0	0
500800	START	n/a	LTP327	ltpFR2	14	n/a	n/a	n/a	4	n/a	n/a	n/a	n/a
501870	DISTRACTOR	n/a	LTP327	ltpFR2	14	3	n/a	n/a	n/a	n/a	0	0	0
501883	PROB	n/a	LTP327	ltpFR2	14	n/a	n/a	n/a	4	15	2	5	8
503715	PROB	n/a	LTP327	ltpFR2	14	n/a	n/a	n/a	4	9	4	1	4
504966	PROB	n/a	LTP327	ltpFR2	14	n/a	n/a	n/a	4	18	3	7	8
506247	PROB	n/a	LTP327	ltpFR2	14	n/a	n/a	n/a	4	11	1	6	4
507613	PROB	n/a	LTP327	ltpFR2	14	n/a	n/a	n/a	4	18	6	9	3
509097	PROB	n/a	LTP327	ltpFR2	14	n/a	n/a	n/a	4	17	8	4	5
511245	PROB	n/a	LTP327	ltpFR2	14	n/a	n/a	n/a	4	18	5	5	8
512361	PROB	n/a	LTP327	ltpFR2	14	n/a	n/a	n/a	4	12	3	7	2
513477	PROB	n/a	LTP327	ltpFR2	14	n/a	n/a	n/a	4	19	3	7	9
514743	PROB	n/a	LTP327	ltpFR2	14	n/a	n/a	n/a	4	15	7	7	1
515876	PROB	n/a	LTP327	ltpFR2	14	n/a	n/a	n/a	4	10	5	2	3
517309	PROB	n/a	LTP327	ltpFR2	14	n/a	n/a	n/a	4	22	8	5	9
518558	PROB	n/a	LTP327	ltpFR2	14	n/a	n/a	n/a	4	7	1	3	3
519707	PROB	n/a	LTP327	ltpFR2	14	n/a	n/a	n/a	4	20	6	7	7
521157	PROB	n/a	LTP327	ltpFR2	14	n/a	n/a	n/a	4	21	7	7	7
522389	PROB	n/a	LTP327	ltpFR2	14	n/a	n/a	n/a	4	12	9	1	2
523451	STOP	n/a	LTP327	ltpFR2	14	n/a	n/a	n/a	4	n/a	n/a	n/a	n/a
526788	REC_START	n/a	LTP327	ltpFR2	14	3	n/a	n/a	n/a	n/a	0	0	0
527044	REC_WORD	wordpools/wasnorm_wordpool_576.txt	LTP327	ltpFR2	14	3	RECEIPT	1173	n/a	n/a	0	0	0
529641	REC_WORD	wordpools/wasnorm_wordpool_576.txt	LTP327	ltpFR2	14	3	MARS	873	n/a	n/a	0	0	0
530882	REC_WORD	wordpools/wasnorm_wordpool_576.txt	LTP327	ltpFR2	14	3	CITRUS	313	n/a	n/a	0	0	0
531762	REC_WORD	wordpools/wasnorm_wordpool_576.txt	LTP327	ltpFR2	14	3	PEANUT	1032	n/a	n/a	0	0	0
533651	REC_WORD	wordpools/wasnorm_wordpool_576.txt	LTP327	ltpFR2	14	3	CHEMIST	292	n/a	n/a	0	0	0
534495	REC_WORD	wordpools/wasnorm_wordpool_576.txt	LTP327	ltpFR2	14	3	FUNGUS	614	n/a	n/a	0	0	0
536461	REC_WORD	wordpools/wasnorm_wordpool_576.txt	LTP327	ltpFR2	14	3	BISON	131	n/a	n/a	0	0	0
538035	REC_WORD	wordpools/wasnorm_wordpool_576.txt	LTP327	ltpFR2	14	3	ANKLE	24	n/a	n/a	0	0	0
539393	REC_WORD	wordpools/wasnorm_wordpool_576.txt	LTP327	ltpFR2	14	3	WHISKERS	1605	n/a	n/a	0	0	0
540440	REC_WORD	wordpools/wasnorm_wordpool_576.txt	LTP327	ltpFR2	14	3	ANTLER	29	n/a	n/a	0	0	0
545017	REC_WORD	wordpools/wasnorm_wordpool_576.txt	LTP327	ltpFR2	14	3	TILE	1468	n/a	n/a	0	0	0
546164	REC_WORD	wordpools/wasnorm_wordpool_576.txt	LTP327	ltpFR2	14	3	BULLET	194	n/a	n/a	0	0	0
550419	REC_WORD	wordpools/wasnorm_wordpool_576.txt	LTP327	ltpFR2	14	3	CRUTCH	417	n/a	n/a	0	0	0
558570	REC_WORD	wordpools/wasnorm_wordpool_576.txt	LTP327	ltpFR2	14	3	HUMAN	726	n/a	n/a	0	0	0
559412	REC_WORD	wordpools/wasnorm_wordpool_576.txt	LTP327	ltpFR2	14	3	SHORTCAKE	1292	n/a	n/a	0	0	0
560443	REC_WORD	wordpools/wasnorm_wordpool_576.txt	LTP327	ltpFR2	14	3	CORNER	-1	n/a	n/a	0	0	0
561275	REC_WORD	wordpools/wasnorm_wordpool_576.txt	LTP327	ltpFR2	14	3	RUG	1215	n/a	n/a	0	0	0
572923	REC_WORD	wordpools/wasnorm_wordpool_576.txt	LTP327	ltpFR2	14	3	XEROX	1628	n/a	n/a	0	0	0
581303	REC_WORD	wordpools/wasnorm_wordpool_576.txt	LTP327	ltpFR2	14	3	FIDDLE	561	n/a	n/a	0	0	0
582043	REC_WORD	wordpools/wasnorm_wordpool_576.txt	LTP327	ltpFR2	14	3	MISTER	901	n/a	n/a	0	0	0
583872	REC_WORD	wordpools/wasnorm_wordpool_576.txt	LTP327	ltpFR2	14	3	PIANO	1057	n/a	n/a	0	0	0
584839	REC_WORD	wordpools/wasnorm_wordpool_576.txt	LTP327	ltpFR2	14	3	TUBA	1515	n/a	n/a	0	0	0
617426	WORD	wordpools/wasnorm_wordpool_576.txt	LTP327	ltpFR2	14	4	DRESS	495	n/a	n/a	0	0	0
620141	WORD	wordpools/wasnorm_wordpool_576.txt	LTP327	ltpFR2	14	4	PEACH	1031	n/a	n/a	0	0	0
622640	WORD	wordpools/wasnorm_wordpool_576.txt	LTP327	ltpFR2	14	4	MILDEW	893	n/a	n/a	0	0	0
625288	WORD	wordpools/wasnorm_wordpool_576.txt	LTP327	ltpFR2	14	4	INMATE	738	n/a	n/a	0	0	0
627937	WORD	wordpools/wasnorm_wordpool_576.txt	LTP327	ltpFR2	14	4	VENUS	1557	n/a	n/a	0	0	0
630469	WORD	wordpools/wasnorm_wordpool_576.txt	LTP327	ltpFR2	14	4	DRUG	501	n/a	n/a	0	0	0
633251	WORD	wordpools/wasnorm_wordpool_576.txt	LTP327	ltpFR2	14	4	APRON	35	n/a	n/a	0	0	0
636034	WORD	wordpools/wasnorm_wordpool_576.txt	LTP327	ltpFR2	14	4	KITCHEN	778	n/a	n/a	0	0	0
638782	WORD	wordpools/wasnorm_wordpool_576.txt	LTP327	ltpFR2	14	4	COUCH	386	n/a	n/a	0	0	0
641430	WORD	wordpools/wasnorm_wordpool_576.txt	LTP327	ltpFR2	14	4	FLAG	573	n/a	n/a	0	0	0
644245	WORD	wordpools/wasnorm_wordpool_576.txt	LTP327	ltpFR2	14	4	POCKET	1093	n/a	n/a	0	0	0
647062	WORD	wordpools/wasnorm_wordpool_576.txt	LTP327	ltpFR2	14	4	BLACKBOARD	133	n/a	n/a	0	0	0
649610	WORD	wordpools/wasnorm_wordpool_576.txt	LTP327	ltpFR2	14	4	HOUND	724	n/a	n/a	0	0	0
652308	WORD	wordpools/wasnorm_wordpool_576.txt	LTP327	ltpFR2	14	4	GLASS	639	n/a	n/a	0	0	0
654991	WORD	wordpools/wasnorm_wordpool_576.txt	LTP327	ltpFR2	14	4	OYSTER	995	n/a	n/a	0	0	0
657822	WORD	wordpools/wasnorm_wordpool_576.txt	LTP327	ltpFR2	14	4	SLIME	1327	n/a	n/a	0	0	0
660421	WORD	wordpools/wasnorm_wordpool_576.txt	LTP327	ltpFR2	14	4	CURTAIN	427	n/a	n/a	0	0	0
662920	WORD	wordpools/wasnorm_wordpool_576.txt	LTP327	ltpFR2	14	4	JOURNAL	760	n/a	n/a	0	0	0
665452	WORD	wordpools/wasnorm_wordpool_576.txt	LTP327	ltpFR2	14	4	FLASK	576	n/a	n/a	0	0	0
667951	WORD	wordpools/wasnorm_wordpool_576.txt	LTP327	ltpFR2	14	4	PAIL	1002	n/a	n/a	0	0	0
670716	WORD	wordpools/wasnorm_wordpool_576.txt	LTP327	ltpFR2	14	4	SPONGE	1355	n/a	n/a	0	0	0
673398	WORD	wordpools/wasnorm_wordpool_576.txt	LTP327	ltpFR2	14	4	PLATE	1086	n/a	n/a	0	0	0
675896	WORD	wordpools/wasnorm_wordpool_576.txt	LTP327	ltpFR2	14	4	SPOON	1357	n/a	n/a	0	0	0
678412	WORD	wordpools/wasnorm_wordpool_576.txt	LTP327	ltpFR2	14	4	PASTA	1021	n/a	n/a	0	0	0
680029	START	n/a	LTP327	ltpFR2	14	n/a	n/a	n/a	5	n/a	n/a	n/a	n/a
681096	DISTRACTOR	n/a	LTP327	ltpFR2	14	4	n/a	n/a	n/a	n/a	0	0	0
681111	PROB	n/a	LTP327	ltpFR2	14	n/a	n/a	n/a	5	15	4	2	9
682826	PROB	n/a	LTP327	ltpFR2	14	n/a	n/a	n/a	5	13	4	7	2
684226	PROB	n/a	LTP327	ltpFR2	14	n/a	n/a	n/a	5	7	1	3	3
685492	PROB	n/a	LTP327	ltpFR2	14	n/a	n/a	n/a	5	17	6	3	8
687424	PROB	n/a	LTP327	ltpFR2	14	n/a	n/a	n/a	5	13	8	2	3
688457	PROB	n/a	LTP327	ltpFR2	14	n/a	n/a	n/a	5	9	3	3	3
689456	PROB	n/a	LTP327	ltpFR2	14	n/a	n/a	n/a	5	17	8	2	7
690872	PROB	n/a	LTP327	ltpFR2	14	n/a	n/a	n/a	5	13	2	4	7
692405	PROB	n/a	LTP327	ltpFR2	14	n/a	n/a	n/a	5	11	3	6	2
693738	PROB	n/a	LTP327	ltpFR2	14	n/a	n/a	n/a	5	7	1	2	4
694955	PROB	n/a	LTP327	ltpFR2	14	n/a	n/a	n/a	5	21	7	5	9
696519	PROB	n/a	LTP327	ltpFR2	14	n/a	n/a	n/a	5	19	6	6	7
697919	PROB	n/a	LTP327	ltpFR2	14	n/a	n/a	n/a	5	15	9	4	2
699418	PROB	n/a	LTP327	ltpFR2	14	n/a	n/a	n/a	5	14	1	5	9
700801	PROB	n/a	LTP327	ltpFR2	14	n/a	n/a	n/a	5	14	1	9	4
702467	PROB	n/a	LTP327	ltpFR2	14	n/a	n/a	n/a	5	13	6	1	6
703892	STOP	n/a	LTP327	ltpFR2	14	n/a	n/a	n/a	5	n/a	n/a	n/a	n/a
705932	REC_START	n/a	LTP327	ltpFR2	14	4	n/a	n/a	n/a	n/a	0	0	0
706514	REC_WORD	wordpools/wasnorm_wordpool_576.txt	LTP327	ltpFR2	14	4	PASTA	1021	n/a	n/a	0	0	0
707893	REC_WORD	wordpools/wasnorm_wordpool_576.txt	LTP327	ltpFR2	14	4	GLASS	639	n/a	n/a	0	0	0
708767	REC_WORD	wordpools/wasnorm_wordpool_576.txt	LTP327	ltpFR2	14	4	SLIME	1327	n/a	n/a	0	0	0
709654	REC_WORD	wordpools/wasnorm_wordpool_576.txt	LTP327	ltpFR2	14	4	OYSTER	995	n/a	n/a	0	0	0
710424	REC_WORD	wordpools/wasnorm_wordpool_576.txt	LTP327	ltpFR2	14	4	CURTAIN	427	n/a	n/a	0	0	0
711595	REC_WORD	wordpools/wasnorm_wordpool_576.txt	LTP327	ltpFR2	14	4	PAIL	1002	n/a	n/a	0	0	0
712277	REC_WORD	wordpools/wasnorm_wordpool_576.txt	LTP327	ltpFR2	14	4	SPONGE	1355	n/a	n/a	0	0	0
714295	REC_WORD	wordpools/wasnorm_wordpool_576.txt	LTP327	ltpFR2	14	4	PLATE	1086	n/a	n/a	0	0	0
714850	REC_WORD	wordpools/wasnorm_wordpool_576.txt	LTP327	ltpFR2	14	4	SPOON	1357	n/a	n/a	0	0	0
717756	REC_WORD	wordpools/wasnorm_wordpool_576.txt	LTP327	ltpFR2	14	4	JOURNAL	760	n/a	n/a	0	0	0
725835	REC_WORD	wordpools/wasnorm_wordpool_576.txt	LTP327	ltpFR2	14	4	COUCH	386	n/a	n/a	0	0	0
728688	REC_WORD	wordpools/wasnorm_wordpool_576.txt	LTP327	ltpFR2	14	4	BLACKBOARD	133	n/a	n/a	0	0	0
729662	REC_WORD	wordpools/wasnorm_wordpool_576.txt	LTP327	ltpFR2	14	4	HOUND	724	n/a	n/a	0	0	0
732988	REC_WORD	wordpools/wasnorm_wordpool_576.txt	LTP327	ltpFR2	14	4	POCKET	1093	n/a	n/a	0	0	0
734056	REC_WORD	wordpools/wasnorm_wordpool_576.txt	LTP327	ltpFR2	14	4	PEACH	1031	n/a	n/a	0	0	0
734766	REC_WORD	wordpools/wasnorm_wordpool_576.txt	LTP327	ltpFR2	14	4	DRESS	495	n/a	n/a	0	0	0
735476	REC_WORD	wordpools/wasnorm_wordpool_576.txt	LTP327	ltpFR2	14	4	MILDEW	893	n/a	n/a	0	0	0
738753	REC_WORD	wordpools/wasnorm_wordpool_576.txt	LTP327	ltpFR2	14	4	INMATE	738	n/a	n/a	0	0	0
739569	REC_WORD	wordpools/wasnorm_wordpool_576.txt	LTP327	ltpFR2	14	4	VENUS	1557	n/a	n/a	0	0	0
741423	REC_WORD	wordpools/wasnorm_wordpool_576.txt	LTP327	ltpFR2	14	4	DRUG	501	n/a	n/a	0	0	0
743010	REC_WORD	wordpools/wasnorm_wordpool_576.txt	LTP327	ltpFR2	14	4	APRON	35	n/a	n/a	0	0	0
743900	REC_WORD	wordpools/wasnorm_wordpool_576.txt	LTP327	ltpFR2	14	4	KITCHEN	778	n/a	n/a	0	0	0
796570	DISTRACTOR	n/a	LTP327	ltpFR2	14	5	n/a	n/a	n/a	n/a	0	0	0
796570	START	n/a	LTP327	ltpFR2	14	n/a	n/a	n/a	6	n/a	n/a	n/a	n/a
796603	PROB	n/a	LTP327	ltpFR2	14	n/a	n/a	n/a	6	21	7	5	9
798152	PROB	n/a	LTP327	ltpFR2	14	n/a	n/a	n/a	6	5	1	3	1
799252	PROB	n/a	LTP327	ltpFR2	14	n/a	n/a	n/a	6	16	9	3	4
801069	PROB	n/a	LTP327	ltpFR2	14	n/a	n/a	n/a	6	6	2	1	3
802134	PROB	n/a	LTP327	ltpFR2	14	n/a	n/a	n/a	6	13	5	4	4
803716	PROB	n/a	LTP327	ltpFR2	14	n/a	n/a	n/a	6	14	4	4	6
805116	PROB	n/a	LTP327	ltpFR2	14	n/a	n/a	n/a	6	9	2	4	3
806949	PROB	n/a	LTP327	ltpFR2	14	n/a	n/a	n/a	6	15	7	6	2
808314	PROB	n/a	LTP327	ltpFR2	14	n/a	n/a	n/a	6	7	1	2	4
809597	PROB	n/a	LTP327	ltpFR2	14	n/a	n/a	n/a	6	15	5	9	1
811229	PROB	n/a	LTP327	ltpFR2	14	n/a	n/a	n/a	6	17	7	3	7
812812	PROB	n/a	LTP327	ltpFR2	14	n/a	n/a	n/a	6	17	7	1	9
814278	PROB	n/a	LTP327	ltpFR2	14	n/a	n/a	n/a	6	20	6	5	9
815860	PROB	n/a	LTP327	ltpFR2	14	n/a	n/a	n/a	6	16	8	7	1
817259	PROB	n/a	LTP327	ltpFR2	14	n/a	n/a	n/a	6	12	7	1	4
818692	PROB	n/a	LTP327	ltpFR2	14	n/a	n/a	n/a	6	15	8	2	5
819764	STOP	n/a	LTP327	ltpFR2	14	n/a	n/a	n/a	6	n/a	n/a	n/a	n/a
821457	WORD	wordpools/wasnorm_wordpool_576.txt	LTP327	ltpFR2	14	5	UMPIRE	1535	n/a	n/a	0	0	0
824090	WORD	wordpools/wasnorm_wordpool_576.txt	LTP327	ltpFR2	14	5	SCALLOP	1242	n/a	n/a	0	0	0
826805	WORD	wordpools/wasnorm_wordpool_576.txt	LTP327	ltpFR2	14	5	PERCH	1048	n/a	n/a	0	0	0
829470	WORD	wordpools/wasnorm_wordpool_576.txt	LTP327	ltpFR2	14	5	LETTUCE	814	n/a	n/a	0	0	0
832152	WORD	wordpools/wasnorm_wordpool_576.txt	LTP327	ltpFR2	14	5	SCULPTURE	1258	n/a	n/a	0	0	0
834784	WORD	wordpools/wasnorm_wordpool_576.txt	LTP327	ltpFR2	14	5	STATUE	1374	n/a	n/a	0	0	0
837399	WORD	wordpools/wasnorm_wordpool_576.txt	LTP327	ltpFR2	14	5	SALAD	1224	n/a	n/a	0	0	0
840215	WORD	wordpools/wasnorm_wordpool_576.txt	LTP327	ltpFR2	14	5	BEEF	113	n/a	n/a	0	0	0
842913	WORD	wordpools/wasnorm_wordpool_576.txt	LTP327	ltpFR2	14	5	CASHIER	254	n/a	n/a	0	0	0
845562	WORD	wordpools/wasnorm_wordpool_576.txt	LTP327	ltpFR2	14	5	TURNIP	1521	n/a	n/a	0	0	0
848244	WORD	wordpools/wasnorm_wordpool_576.txt	LTP327	ltpFR2	14	5	LEG	809	n/a	n/a	0	0	0
850977	WORD	wordpools/wasnorm_wordpool_576.txt	LTP327	ltpFR2	14	5	PATIENT	1024	n/a	n/a	0	0	0
853691	WORD	wordpools/wasnorm_wordpool_576.txt	LTP327	ltpFR2	14	5	CRICKET	408	n/a	n/a	0	0	0
856457	WORD	wordpools/wasnorm_wordpool_576.txt	LTP327	ltpFR2	14	5	GAVEL	627	n/a	n/a	0	0	0
859090	WORD	wordpools/wasnorm_wordpool_576.txt	LTP327	ltpFR2	14	5	SUSPECT	1415	n/a	n/a	0	0	0
861887	WORD	wordpools/wasnorm_wordpool_576.txt	LTP327	ltpFR2	14	5	RECORD	1176	n/a	n/a	0	0	0
864603	WORD	wordpools/wasnorm_wordpool_576.txt	LTP327	ltpFR2	14	5	SUNRISE	1407	n/a	n/a	0	0	0
867218	WORD	wordpools/wasnorm_wordpool_576.txt	LTP327	ltpFR2	14	5	SPIDER	1351	n/a	n/a	0	0	0
869800	WORD	wordpools/wasnorm_wordpool_576.txt	LTP327	ltpFR2	14	5	ISLAND	745	n/a	n/a	0	0	0
872432	WORD	wordpools/wasnorm_wordpool_576.txt	LTP327	ltpFR2	14	5	PASTRY	1022	n/a	n/a	0	0	0
875264	WORD	wordpools/wasnorm_wordpool_576.txt	LTP327	ltpFR2	14	5	POLICE	1098	n/a	n/a	0	0	0
877746	WORD	wordpools/wasnorm_wordpool_576.txt	LTP327	ltpFR2	14	5	PATROL	1027	n/a	n/a	0	0	0
880295	WORD	wordpools/wasnorm_wordpool_576.txt	LTP327	ltpFR2	14	5	HEADBAND	696	n/a	n/a	0	0	0
882961	WORD	wordpools/wasnorm_wordpool_576.txt	LTP327	ltpFR2	14	5	DRAGON	492	n/a	n/a	0	0	0
884576	START	n/a	LTP327	ltpFR2	14	n/a	n/a	n/a	7	n/a	n/a	n/a	n/a
885466	DISTRACTOR	n/a	LTP327	ltpFR2	14	5	n/a	n/a	n/a	n/a	0	0	0
885492	PROB	n/a	LTP327	ltpFR2	14	n/a	n/a	n/a	7	16	5	3	5
887141	PROB	n/a	LTP327	ltpFR2	14	n/a	n/a	n/a	7	19	6	5	8
888624	PROB	n/a	LTP327	ltpFR2	14	n/a	n/a	n/a	7	10	4	2	4
890307	PROB	n/a	LTP327	ltpFR2	14	n/a	n/a	n/a	7	17	8	6	3
892172	PROB	n/a	LTP327	ltpFR2	14	n/a	n/a	n/a	7	14	2	4	8
893805	PROB	n/a	LTP327	ltpFR2	14	n/a	n/a	n/a	7	18	8	5	5
895187	PROB	n/a	LTP327	ltpFR2	14	n/a	n/a	n/a	7	23	7	9	7
896971	PROB	n/a	LTP327	ltpFR2	14	n/a	n/a	n/a	7	20	7	5	8
898353	PROB	n/a	LTP327	ltpFR2	14	n/a	n/a	n/a	7	9	7	1	1
899402	PROB	n/a	LTP327	ltpFR2	14	n/a	n/a	n/a	7	16	4	4	8
900751	PROB	n/a	LTP327	ltpFR2	14	n/a	n/a	n/a	7	14	3	3	8
902317	PROB	n/a	LTP327	ltpFR2	14	n/a	n/a	n/a	7	10	1	4	5
903500	PROB	n/a	LTP327	ltpFR2	14	n/a	n/a	n/a	7	9	2	1	6
904633	PROB	n/a	LTP327	ltpFR2	14	n/a	n/a	n/a	7	16	6	3	7
905932	PROB	n/a	LTP327	ltpFR2	14	n/a	n/a	n/a	7	19	8	4	7
907276	STOP	n/a	LTP327	ltpFR2	14	n/a	n/a	n/a	7	n/a	n/a	n/a	n/a
910414	REC_START	n/a	LTP327	ltpFR2	14	5	n/a	n/a	n/a	n/a	0	0	0
910743	REC_WORD	wordpools/wasnorm_wordpool_576.txt	LTP327	ltpFR2	14	5	DRAGON	492	n/a	n/a	0	0	0
911551	REC_WORD	wordpools/wasnorm_wordpool_576.txt	LTP327	ltpFR2	14	5	SPIDER	1351	n/a	n/a	0	0	0
912303	REC_WORD	wordpools/wasnorm_wordpool_576.txt	LTP327	ltpFR2	14	5	ISLAND	745	n/a	n/a	0	0	0
914260	REC_WORD	wordpools/wasnorm_wordpool_576.txt	LTP327	ltpFR2	14	5	POLICE	1098	n/a	n/a	0	0	0
914945	REC_WORD	wordpools/wasnorm_wordpool_576.txt	LTP327	ltpFR2	14	5	PATROL	1027	n/a	n/a	0	0	0
917359	REC_WORD	wordpools/wasnorm_wordpool_576.txt	LTP327	ltpFR2	14	5	CANDY	230	n/a	n/a	0	0	0
919734	REC_WORD	wordpools/wasnorm_wordpool_576.txt	LTP327	ltpFR2	14	5	UMPIRE	1535	n/a	n/a	0	0	0
920628	REC_WORD	wordpools/wasnorm_wordpool_576.txt	LTP327	ltpFR2	14	5	GAVEL	627	n/a	n/a	0	0	0
922609	REC_WORD	wordpools/wasnorm_wordpool_576.txt	LTP327	ltpFR2	14	5	SCALLOP	1242	n/a	n/a	0	0	0
923294	REC_WORD	wordpools/wasnorm_wordpool_576.txt	LTP327	ltpFR2	14	5	LETTUCE	814	n/a	n/a	0	0	0
924061	REC_WORD	wordpools/wasnorm_wordpool_576.txt	LTP327	ltpFR2	14	5	PERCH	1048	n/a	n/a	0	0	0
926330	REC_WORD	wordpools/wasnorm_wordpool_576.txt	LTP327	ltpFR2	14	5	BEEF	113	n/a	n/a	0	0	0
926861	REC_WORD	wordpools/wasnorm_wordpool_576.txt	LTP327	ltpFR2	14	5	SALAD	1224	n/a	n/a	0	0	0
927596	REC_WORD	wordpools/wasnorm_wordpool_576.txt	LTP327	ltpFR2	14	5	SCULPTURE	1258	n/a	n/a	0	0	0
928324	REC_WORD	wordpools/wasnorm_wordpool_576.txt	LTP327	ltpFR2	14	5	STATUE	1374	n/a	n/a	0	0	0
932019	REC_WORD	wordpools/wasnorm_wordpool_576.txt	LTP327	ltpFR2	14	5	SUSPECT	1415	n/a	n/a	0	0	0
1001069	WORD	wordpools/wasnorm_wordpool_576.txt	LTP327	ltpFR2	14	6	DIVER	476	n/a	n/a	0	0	0
1003883	WORD	wordpools/wasnorm_wordpool_576.txt	LTP327	ltpFR2	14	6	BLOCKADE	137	n/a	n/a	0	0	0
1006565	WORD	wordpools/wasnorm_wordpool_576.txt	LTP327	ltpFR2	14	6	AGENT	10	n/a	n/a	0	0	0
1009082	WORD	wordpools/wasnorm_wordpool_576.txt	LTP327	ltpFR2	14	6	FRAGRANCE	599	n/a	n/a	0	0	0
1011713	WORD	wordpools/wasnorm_wordpool_576.txt	LTP327	ltpFR2	14	6	SNACK	1331	n/a	n/a	0	0	0
1014511	WORD	wordpools/wasnorm_wordpool_576.txt	LTP327	ltpFR2	14	6	DOUGHNUT	490	n/a	n/a	0	0	0
1017094	WORD	wordpools/wasnorm_wordpool_576.txt	LTP327	ltpFR2	14	6	EYELASH	546	n/a	n/a	0	0	0
1019542	WORD	wordpools/wasnorm_wordpool_576.txt	LTP327	ltpFR2	14	6	HEART	697	n/a	n/a	0	0	0
1022274	WORD	wordpools/wasnorm_wordpool_576.txt	LTP327	ltpFR2	14	6	TRANSPLANT	1496	n/a	n/a	0	0	0
1025106	WORD	wordpools/wasnorm_wordpool_576.txt	LTP327	ltpFR2	14	6	PRINCESS	1125	n/a	n/a	0	0	0
1027722	WORD	wordpools/wasnorm_wordpool_576.txt	LTP327	ltpFR2	14	6	YACHT	1629	n/a	n/a	0	0	0
1030537	WORD	wordpools/wasnorm_wordpool_576.txt	LTP327	ltpFR2	14	6	MARSH	874	n/a	n/a	0	0	0
1033070	WORD	wordpools/wasnorm_wordpool_576.txt	LTP327	ltpFR2	14	6	RACKET	1155	n/a	n/a	0	0	0
1035701	WORD	wordpools/wasnorm_wordpool_576.txt	LTP327	ltpFR2	14	6	CEILING	265	n/a	n/a	0	0	0
1038200	WORD	wordpools/wasnorm_wordpool_576.txt	LTP327	ltpFR2	14	6	SWORD	1423	n/a	n/a	0	0	0
1040748	WORD	wordpools/wasnorm_wordpool_576.txt	LTP327	ltpFR2	14	6	WAGON	1578	n/a	n/a	0	0	0
1043464	WORD	wordpools/wasnorm_wordpool_576.txt	LTP327	ltpFR2	14	6	KNAPSACK	783	n/a	n/a	0	0	0
1046329	WORD	wordpools/wasnorm_wordpool_576.txt	LTP327	ltpFR2	14	6	MARKER	870	n/a	n/a	0	0	0
1048894	WORD	wordpools/wasnorm_wordpool_576.txt	LTP327	ltpFR2	14	6	PIGMENT	1066	n/a	n/a	0	0	0
1051343	WORD	wordpools/wasnorm_wordpool_576.txt	LTP327	ltpFR2	14	6	CREATURE	403	n/a	n/a	0	0	0
1053859	WORD	wordpools/wasnorm_wordpool_576.txt	LTP327	ltpFR2	14	6	PEDAL	1037	n/a	n/a	0	0	0
1056341	WORD	wordpools/wasnorm_wordpool_576.txt	LTP327	ltpFR2	14	6	ICEBERG	731	n/a	n/a	0	0	0
1059024	WORD	wordpools/wasnorm_wordpool_576.txt	LTP327	ltpFR2	14	6	PUDDLE	1140	n/a	n/a	0	0	0
1061655	WORD	wordpools/wasnorm_wordpool_576.txt	LTP327	ltpFR2	14	6	PERFUME	1049	n/a	n/a	0	0	0
1063287	START	n/a	LTP327	ltpFR2	14	n/a	n/a	n/a	8	n/a	n/a	n/a	n/a
1064479	DISTRACTOR	n/a	LTP327	ltpFR2	14	6	n/a	n/a	n/a	n/a	0	0	0
1064487	PROB	n/a	LTP327	ltpFR2	14	n/a	n/a	n/a	8	16	8	3	5
1066486	PROB	n/a	LTP327	ltpFR2	14	n/a	n/a	n/a	8	16	8	1	7
1068385	PROB	n/a	LTP327	ltpFR2	14	n/a	n/a	n/a	8	12	4	3	5
1069651	PROB	n/a	LTP327	ltpFR2	14	n/a	n/a	n/a	8	14	2	8	4
1071018	PROB	n/a	LTP327	ltpFR2	14	n/a	n/a	n/a	8	15	7	4	4
1072699	PROB	n/a	LTP327	ltpFR2	14	n/a	n/a	n/a	8	24	7	6	9
1074115	PROB	n/a	LTP327	ltpFR2	14	n/a	n/a	n/a	8	13	1	8	4
1075414	PROB	n/a	LTP327	ltpFR2	14	n/a	n/a	n/a	8	12	6	5	1
1076531	PROB	n/a	LTP327	ltpFR2	14	n/a	n/a	n/a	8	23	9	8	5
1078064	PROB	n/a	LTP327	ltpFR2	14	n/a	n/a	n/a	8	23	7	7	9
1079896	PROB	n/a	LTP327	ltpFR2	14	n/a	n/a	n/a	8	16	5	7	4
1081112	PROB	n/a	LTP327	ltpFR2	14	n/a	n/a	n/a	8	15	3	7	5
1082361	PROB	n/a	LTP327	ltpFR2	14	n/a	n/a	n/a	8	9	1	3	5
1083527	PROB	n/a	LTP327	ltpFR2	14	n/a	n/a	n/a	8	13	9	2	2
1085526	PROB	n/a	LTP327	ltpFR2	14	n/a	n/a	n/a	8	21	4	8	9
1086763	STOP	n/a	LTP327	ltpFR2	14	n/a	n/a	n/a	8	n/a	n/a	n/a	n/a
1089225	REC_START	n/a	LTP327	ltpFR2	14	6	n/a	n/a	n/a	n/a	0	0	0
1090590	REC_WORD	wordpools/wasnorm_wordpool_576.txt	LTP327	ltpFR2	14	6	CEILING	265	n/a	n/a	0	0	0
1091523	REC_WORD	wordpools/wasnorm_wordpool_576.txt	LTP327	ltpFR2	14	6	MARKER	870	n/a	n/a	0	0	0
1092181	REC_WORD	wordpools/wasnorm_wordpool_576.txt	LTP327	ltpFR2	14	6	SWORD	1423	n/a	n/a	0	0	0
1093130	REC_WORD	wordpools/wasnorm_wordpool_576.txt	LTP327	ltpFR2	14	6	CREATURE	403	n/a	n/a	0	0	0
1093974	REC_WORD	wordpools/wasnorm_wordpool_576.txt	LTP327	ltpFR2	14	6	PIGMENT	1066	n/a	n/a	0	0	0
1095265	REC_WORD	wordpools/wasnorm_wordpool_576.txt	LTP327	ltpFR2	14	6	ICEBERG	731	n/a	n/a	0	0	0
1096155	REC_WORD	wordpools/wasnorm_wordpool_576.txt	LTP327	ltpFR2	14	6	PUDDLE	1140	n/a	n/a	0	0	0
1097811	REC_WORD	wordpools/wasnorm_wordpool_576.txt	LTP327	ltpFR2	14	6	WAGON	1578	n/a	n/a	0	0	0
1100494	REC_WORD	wordpools/wasnorm_wordpool_576.txt	LTP327	ltpFR2	14	6	BLOCKADE	137	n/a	n/a	0	0	0
1101466	REC_WORD	wordpools/wasnorm_wordpool_576.txt	LTP327	ltpFR2	14	6	DIVER	476	n/a	n/a	0	0	0
1102127	REC_WORD	wordpools/wasnorm_wordpool_576.txt	LTP327	ltpFR2	14	6	SNACK	1331	n/a	n/a	0	0	0
1102915	REC_WORD	wordpools/wasnorm_wordpool_576.txt	LTP327	ltpFR2	14	6	DOUGHNUT	490	n/a	n/a	0	0	0
1104306	REC_WORD	wordpools/wasnorm_wordpool_576.txt	LTP327	ltpFR2	14	6	AGENT	10	n/a	n/a	0	0	0
1105514	REC_WORD	wordpools/wasnorm_wordpool_576.txt	LTP327	ltpFR2	14	6	PRINCESS	1125	n/a	n/a	0	0	0
1106411	REC_WORD	wordpools/wasnorm_wordpool_576.txt	LTP327	ltpFR2	14	6	EYELASH	546	n/a	n/a	0	0	0
1108740	REC_WORD	wordpools/wasnorm_wordpool_576.txt	LTP327	ltpFR2	14	6	HEART	697	n/a	n/a	0	0	0
1112494	REC_WORD	wordpools/wasnorm_wordpool_576.txt	LTP327	ltpFR2	14	6	MARSH	874	n/a	n/a	0	0	0
1113264	REC_WORD	wordpools/wasnorm_wordpool_576.txt	LTP327	ltpFR2	14	6	YACHT	1629	n/a	n/a	0	0	0
1128779	REC_WORD	wordpools/wasnorm_wordpool_576.txt	LTP327	ltpFR2	14	6	BLOCKADE	137	n/a	n/a	0	0	0
1134621	REC_WORD	wordpools/wasnorm_wordpool_576.txt	LTP327	ltpFR2	14	6	FRAGRANCE	599	n/a	n/a	0	0	0
1135471	REC_WORD	wordpools/wasnorm_wordpool_576.txt	LTP327	ltpFR2	14	6	PERFUME	1049	n/a	n/a	0	0	0
1179879	DISTRACTOR	n/a	LTP327	ltpFR2	14	7	n/a	n/a	n/a	n/a	0	0	0
1179879	START	n/a	LTP327	ltpFR2	14	n/a	n/a	n/a	9	n/a	n/a	n/a	n/a
1179929	PROB	n/a	LTP327	ltpFR2	14	n/a	n/a	n/a	9	24	8	9	7
1182012	PROB	n/a	LTP327	ltpFR2	14	n/a	n/a	n/a	9	20	5	8	7
1183377	PROB	n/a	LTP327	ltpFR2	14	n/a	n/a	n/a	9	16	7	4	5
1187176	PROB	n/a	LTP327	ltpFR2	14	n/a	n/a	n/a	9	5	3	1	1
1188175	PROB	n/a	LTP327	ltpFR2	14	n/a	n/a	n/a	9	10	1	2	7
1189424	PROB	n/a	LTP327	ltpFR2	14	n/a	n/a	n/a	9	13	3	2	8
1190890	PROB	n/a	LTP327	ltpFR2	14	n/a	n/a	n/a	9	20	8	6	6
1192240	PROB	n/a	LTP327	ltpFR2	14	n/a	n/a	n/a	9	19	3	8	8
1193572	PROB	n/a	LTP327	ltpFR2	14	n/a	n/a	n/a	9	20	8	8	4
1195006	PROB	n/a	LTP327	ltpFR2	14	n/a	n/a	n/a	9	13	8	4	1
1196321	PROB	n/a	LTP327	ltpFR2	14	n/a	n/a	n/a	9	16	5	5	6
1197504	PROB	n/a	LTP327	ltpFR2	14	n/a	n/a	n/a	9	16	2	8	6
1198670	PROB	n/a	LTP327	ltpFR2	14	n/a	n/a	n/a	9	16	6	8	2
1200452	PROB	n/a	LTP327	ltpFR2	14	n/a	n/a	n/a	9	4	1	1	2
1201485	PROB	n/a	LTP327	ltpFR2	14	n/a	n/a	n/a	9	18	1	9	8
1202676	STOP	n/a	LTP327	ltpFR2	14	n/a	n/a	n/a	9	n/a	n/a	n/a	n/a
1204867	WORD	wordpools/wasnorm_wordpool_576.txt	LTP327	ltpFR2	14	7	LUGGAGE	847	n/a	n/a	0	0	0
1207349	WORD	wordpools/wasnorm_wordpool_576.txt	LTP327	ltpFR2	14	7	LACE	792	n/a	n/a	0	0	0
1209982	WORD	wordpools/wasnorm_wordpool_576.txt	LTP327	ltpFR2	14	7	RABBIT	1152	n/a	n/a	0	0	0
1212663	WORD	wordpools/wasnorm_wordpool_576.txt	LTP327	ltpFR2	14	7	LONDON	843	n/a	n/a	0	0	0
1215412	WORD	wordpools/wasnorm_wordpool_576.txt	LTP327	ltpFR2	14	7	FRANCE	601	n/a	n/a	0	0	0
1218177	WORD	wordpools/wasnorm_wordpool_576.txt	LTP327	ltpFR2	14	7	GRAVEL	659	n/a	n/a	0	0	0
1220976	WORD	wordpools/wasnorm_wordpool_576.txt	LTP327	ltpFR2	14	7	FRAME	600	n/a	n/a	0	0	0
1223491	WORD	wordpools/wasnorm_wordpool_576.txt	LTP327	ltpFR2	14	7	FILM	565	n/a	n/a	0	0	0
1225991	WORD	wordpools/wasnorm_wordpool_576.txt	LTP327	ltpFR2	14	7	JEANS	752	n/a	n/a	0	0	0
1228688	WORD	wordpools/wasnorm_wordpool_576.txt	LTP327	ltpFR2	14	7	COLLEGE	346	n/a	n/a	0	0	0
1231504	WORD	wordpools/wasnorm_wordpool_576.txt	LTP327	ltpFR2	14	7	LAPEL	800	n/a	n/a	0	0	0
1233936	WORD	wordpools/wasnorm_wordpool_576.txt	LTP327	ltpFR2	14	7	CHEST	295	n/a	n/a	0	0	0
1236768	WORD	wordpools/wasnorm_wordpool_576.txt	LTP327	ltpFR2	14	7	CONCERT	360	n/a	n/a	0	0	0
1239550	WORD	wordpools/wasnorm_wordpool_576.txt	LTP327	ltpFR2	14	7	DUST	508	n/a	n/a	0	0	0
1242298	WORD	wordpools/wasnorm_wordpool_576.txt	LTP327	ltpFR2	14	7	GIRL	637	n/a	n/a	0	0	0
1244998	WORD	wordpools/wasnorm_wordpool_576.txt	LTP327	ltpFR2	14	7	DORM	488	n/a	n/a	0	0	0
1247462	WORD	wordpools/wasnorm_wordpool_576.txt	LTP327	ltpFR2	14	7	BLOUSE	139	n/a	n/a	0	0	0
1250045	WORD	wordpools/wasnorm_wordpool_576.txt	LTP327	ltpFR2	14	7	POET	1095	n/a	n/a	0	0	0
1252626	WORD	wordpools/wasnorm_wordpool_576.txt	LTP327	ltpFR2	14	7	RIFLE	1192	n/a	n/a	0	0	0
1255458	WORD	wordpools/wasnorm_wordpool_576.txt	LTP327	ltpFR2	14	7	CRIB	407	n/a	n/a	0	0	0
1257958	WORD	wordpools/wasnorm_wordpool_576.txt	LTP327	ltpFR2	14	7	RATTLE	1170	n/a	n/a	0	0	0
1260689	WORD	wordpools/wasnorm_wordpool_576.txt	LTP327	ltpFR2	14	7	CROWN	415	n/a	n/a	0	0	0
1263438	WORD	wordpools/wasnorm_wordpool_576.txt	LTP327	ltpFR2	14	7	HOSTESS	723	n/a	n/a	0	0	0
1266203	WORD	wordpools/wasnorm_wordpool_576.txt	LTP327	ltpFR2	14	7	PARSLEY	1016	n/a	n/a	0	0	0
1267819	START	n/a	LTP327	ltpFR2	14	n/a	n/a	n/a	10	n/a	n/a	n/a	n/a
1268927	DISTRACTOR	n/a	LTP327	ltpFR2	14	7	n/a	n/a	n/a	n/a	0	0	0
1268953	PROB	n/a	LTP327	ltpFR2	14	n/a	n/a	n/a	10	20	7	4	9
1270667	PROB	n/a	LTP327	ltpFR2	14	n/a	n/a	n/a	10	10	5	2	3
1272433	PROB	n/a	LTP327	ltpFR2	14	n/a	n/a	n/a	10	8	5	1	2
1273649	PROB	n/a	LTP327	ltpFR2	14	n/a	n/a	n/a	10	11	4	6	1
1274815	PROB	n/a	LTP327	ltpFR2	14	n/a	n/a	n/a	10	13	3	9	1
1276165	PROB	n/a	LTP327	ltpFR2	14	n/a	n/a	n/a	10	15	6	6	3
1277447	PROB	n/a	LTP327	ltpFR2	14	n/a	n/a	n/a	10	17	8	2	7
1278747	PROB	n/a	LTP327	ltpFR2	14	n/a	n/a	n/a	10	19	9	2	8
1280146	PROB	n/a	LTP327	ltpFR2	14	n/a	n/a	n/a	10	20	8	8	4
1281545	PROB	n/a	LTP327	ltpFR2	14	n/a	n/a	n/a	10	22	4	9	9
1283195	PROB	n/a	LTP327	ltpFR2	14	n/a	n/a	n/a	10	16	6	1	9
1286426	PROB	n/a	LTP327	ltpFR2	14	n/a	n/a	n/a	10	12	7	3	2
1287676	PROB	n/a	LTP327	ltpFR2	14	n/a	n/a	n/a	10	9	2	5	2
1288908	PROB	n/a	LTP327	ltpFR2	14	n/a	n/a	n/a	10	16	6	5	5
1290276	STOP	n/a	LTP327	ltpFR2	14	n/a	n/a	n/a	10	n/a	n/a	n/a	n/a
1293743	REC_START	n/a	LTP327	ltpFR2	14	7	n/a	n/a	n/a	n/a	0	0	0
1293938	REC_WORD	wordpools/wasnorm_wordpool_576.txt	LTP327	ltpFR2	14	7	HOSTESS	723	n/a	n/a	0	0	0
1295018	REC_WORD	wordpools/wasnorm_wordpool_576.txt	LTP327	ltpFR2	14	7	PARSLEY	1016	n/a	n/a	0	0	0
1297020	REC_WORD	wordpools/wasnorm_wordpool_576.txt	LTP327	ltpFR2	14	7	POET	1095	n/a	n/a	0	0	0
1297723	REC_WORD	wordpools/wasnorm_wordpool_576.txt	LTP327	ltpFR2	14	7	RIFLE	1192	n/a	n/a	0	0	0
1298393	REC_WORD	wordpools/wasnorm_wordpool_576.txt	LTP327	ltpFR2	14	7	CRIB	407	n/a	n/a	0	0	0
1299367	REC_WORD	wordpools/wasnorm_wordpool_576.txt	LTP327	ltpFR2	14	7	CROWN	415	n/a	n/a	0	0	0
1306649	REC_WORD	wordpools/wasnorm_wordpool_576.txt	LTP327	ltpFR2	14	7	DORM	488	n/a	n/a	0	0	0
1307738	REC_WORD	wordpools/wasnorm_wordpool_576.txt	LTP327	ltpFR2	14	7	COLLEGE	346	n/a	n/a	0	0	0
1308926	REC_WORD	wordpools/wasnorm_wordpool_576.txt	LTP327	ltpFR2	14	7	JEANS	752	n/a	n/a	0	0	0
1311768	REC_WORD	wordpools/wasnorm_wordpool_576.txt	LTP327	ltpFR2	14	7	LONDON	843	n/a	n/a	0	0	0
1313093	REC_WORD	wordpools/wasnorm_wordpool_576.txt	LTP327	ltpFR2	14	7	PARIS	1014	n/a	n/a	0	0	0
1315851	REC_WORD	wordpools/wasnorm_wordpool_576.txt	LTP327	ltpFR2	14	7	FRANCE	601	n/a	n/a	0	0	0
1317739	REC_WORD	wordpools/wasnorm_wordpool_576.txt	LTP327	ltpFR2	14	7	LACE	792	n/a	n/a	0	0	0
1318487	REC_WORD	wordpools/wasnorm_wordpool_576.txt	LTP327	ltpFR2	14	7	LUGGAGE	847	n/a	n/a	0	0	0
1319308	REC_WORD	wordpools/wasnorm_wordpool_576.txt	LTP327	ltpFR2	14	7	RABBIT	1152	n/a	n/a	0	0	0
1328888	REC_WORD	wordpools/wasnorm_wordpool_576.txt	LTP327	ltpFR2	14	7	FRAME	600	n/a	n/a	0	0	0
1333304	REC_WORD	wordpools/wasnorm_wordpool_576.txt	LTP327	ltpFR2	14	7	CONCERT	360	n/a	n/a	0	0	0
1334077	REC_WORD	wordpools/wasnorm_wordpool_576.txt	LTP327	ltpFR2	14	7	FILM	565	n/a	n/a	0	0	0
1347433	REC_WORD	wordpools/wasnorm_wordpool_576.txt	LTP327	ltpFR2	14	7	LAPEL	800	n/a	n/a	0	0	0
1348492	REC_WORD	wordpools/wasnorm_wordpool_576.txt	LTP327	ltpFR2	14	7	CHEST	295	n/a	n/a	0	0	0
1384361	DISTRACTOR	n/a	LTP327	ltpFR2	14	8	n/a	n/a	n/a	n/a	0	0	0
1384361	START	n/a	LTP327	ltpFR2	14	n/a	n/a	n/a	11	n/a	n/a	n/a	n/a
1384394	PROB	n/a	LTP327	ltpFR2	14	n/a	n/a	n/a	11	19	9	4	6
1385978	PROB	n/a	LTP327	ltpFR2	14	n/a	n/a	n/a	11	13	1	9	3
1387243	PROB	n/a	LTP327	ltpFR2	14	n/a	n/a	n/a	11	18	8	1	9
1388592	PROB	n/a	LTP327	ltpFR2	14	n/a	n/a	n/a	11	14	6	4	4
1390092	PROB	n/a	LTP327	ltpFR2	14	n/a	n/a	n/a	11	13	6	4	3
1391241	PROB	n/a	LTP327	ltpFR2	14	n/a	n/a	n/a	11	19	8	8	3
1392823	PROB	n/a	LTP327	ltpFR2	14	n/a	n/a	n/a	11	7	5	1	1
1394040	PROB	n/a	LTP327	ltpFR2	14	n/a	n/a	n/a	11	14	3	9	2
1395305	PROB	n/a	LTP327	ltpFR2	14	n/a	n/a	n/a	11	12	2	7	3
1396805	PROB	n/a	LTP327	ltpFR2	14	n/a	n/a	n/a	11	13	2	3	8
1398237	PROB	n/a	LTP327	ltpFR2	14	n/a	n/a	n/a	11	13	7	1	5
1399971	PROB	n/a	LTP327	ltpFR2	14	n/a	n/a	n/a	11	9	4	4	1
1401169	PROB	n/a	LTP327	ltpFR2	14	n/a	n/a	n/a	11	17	7	5	5
1402986	PROB	n/a	LTP327	ltpFR2	14	n/a	n/a	n/a	11	14	3	9	2
1404884	PROB	n/a	LTP327	ltpFR2	14	n/a	n/a	n/a	11	17	4	8	5
1406550	PROB	n/a	LTP327	ltpFR2	14	n/a	n/a	n/a	11	23	8	9	6
1408292	STOP	n/a	LTP327	ltpFR2	14	n/a	n/a	n/a	11	n/a	n/a	n/a	n/a
1409548	WORD	wordpools/wasnorm_wordpool_576.txt	LTP327	ltpFR2	14	8	COUNTY	389	n/a	n/a	0	0	0
1412380	WORD	wordpools/wasnorm_wordpool_576.txt	LTP327	ltpFR2	14	8	REBEL	1172	n/a	n/a	0	0	0
1414879	WORD	wordpools/wasnorm_wordpool_576.txt	LTP327	ltpFR2	14	8	LEADER	807	n/a	n/a	0	0	0
1417628	WORD	wordpools/wasnorm_wordpool_576.txt	LTP327	ltpFR2	14	8	ROOSTER	1209	n/a	n/a	0	0	0
1420460	WORD	wordpools/wasnorm_wordpool_576.txt	LTP327	ltpFR2	14	8	BRANCH	168	n/a	n/a	0	0	0
1423125	WORD	wordpools/wasnorm_wordpool_576.txt	LTP327	ltpFR2	14	8	BRANDY	169	n/a	n/a	0	0	0
1425790	WORD	wordpools/wasnorm_wordpool_576.txt	LTP327	ltpFR2	14	8	LAGOON	795	n/a	n/a	0	0	0
1428489	WORD	wordpools/wasnorm_wordpool_576.txt	LTP327	ltpFR2	14	8	BANQUET	86	n/a	n/a	0	0	0
1431005	WORD	wordpools/wasnorm_wordpool_576.txt	LTP327	ltpFR2	14	8	CUPBOARD	425	n/a	n/a	0	0	0
1433786	WORD	wordpools/wasnorm_wordpool_576.txt	LTP327	ltpFR2	14	8	COMPASS	358	n/a	n/a	0	0	0
1436468	WORD	wordpools/wasnorm_wordpool_576.txt	LTP327	ltpFR2	14	8	VALVE	1546	n/a	n/a	0	0	0
1439001	WORD	wordpools/wasnorm_wordpool_576.txt	LTP327	ltpFR2	14	8	CANYON	235	n/a	n/a	0	0	0
1441499	WORD	wordpools/wasnorm_wordpool_576.txt	LTP327	ltpFR2	14	8	RELISH	1183	n/a	n/a	0	0	0
1443982	WORD	wordpools/wasnorm_wordpool_576.txt	LTP327	ltpFR2	14	8	POPCORN	1104	n/a	n/a	0	0	0
1446747	WORD	wordpools/wasnorm_wordpool_576.txt	LTP327	ltpFR2	14	8	SUMMIT	1405	n/a	n/a	0	0	0
1449528	WORD	wordpools/wasnorm_wordpool_576.txt	LTP327	ltpFR2	14	8	FRUIT	610	n/a	n/a	0	0	0
1452294	WORD	wordpools/wasnorm_wordpool_576.txt	LTP327	ltpFR2	14	8	GUARD	667	n/a	n/a	0	0	0
1455077	WORD	wordpools/wasnorm_wordpool_576.txt	LTP327	ltpFR2	14	8	BADGE	68	n/a	n/a	0	0	0
1457741	WORD	wordpools/wasnorm_wordpool_576.txt	LTP327	ltpFR2	14	8	SHERIFF	1284	n/a	n/a	0	0	0
1460273	WORD	wordpools/wasnorm_wordpool_576.txt	LTP327	ltpFR2	14	8	BREAST	171	n/a	n/a	0	0	0
1462755	WORD	wordpools/wasnorm_wordpool_576.txt	LTP327	ltpFR2	14	8	TROUT	1511	n/a	n/a	0	0	0
1465271	WORD	wordpools/wasnorm_wordpool_576.txt	LTP327	ltpFR2	14	8	BACKBONE	66	n/a	n/a	0	0	0
1467719	WORD	wordpools/wasnorm_wordpool_576.txt	LTP327	ltpFR2	14	8	BODY	145	n/a	n/a	0	0	0
1470485	WORD	wordpools/wasnorm_wordpool_576.txt	LTP327	ltpFR2	14	8	TUTU	1524	n/a	n/a	0	0	0
1472102	START	n/a	LTP327	ltpFR2	14	n/a	n/a	n/a	12	n/a	n/a	n/a	n/a
1473010	DISTRACTOR	n/a	LTP327	ltpFR2	14	8	n/a	n/a	n/a	n/a	0	0	0
1473034	PROB	n/a	LTP327	ltpFR2	14	n/a	n/a	n/a	12	15	1	7	7
1474583	PROB	n/a	LTP327	ltpFR2	14	n/a	n/a	n/a	12	15	1	5	9
1476100	PROB	n/a	LTP327	ltpFR2	14	n/a	n/a	n/a	12	11	3	3	5
1477365	PROB	n/a	LTP327	ltpFR2	14	n/a	n/a	n/a	12	9	5	1	3
1480247	PROB	n/a	LTP327	ltpFR2	14	n/a	n/a	n/a	12	15	6	8	1
1481496	PROB	n/a	LTP327	ltpFR2	14	n/a	n/a	n/a	12	16	7	5	4
1482895	PROB	n/a	LTP327	ltpFR2	14	n/a	n/a	n/a	12	21	6	7	8
1484461	PROB	n/a	LTP327	ltpFR2	14	n/a	n/a	n/a	12	13	3	3	7
1485810	PROB	n/a	LTP327	ltpFR2	14	n/a	n/a	n/a	12	9	1	4	4
1487276	PROB	n/a	LTP327	ltpFR2	14	n/a	n/a	n/a	12	18	5	8	5
1488642	PROB	n/a	LTP327	ltpFR2	14	n/a	n/a	n/a	12	15	7	2	7
1490976	PROB	n/a	LTP327	ltpFR2	14	n/a	n/a	n/a	12	18	8	5	3
1492824	PROB	n/a	LTP327	ltpFR2	14	n/a	n/a	n/a	12	14	7	4	3
1494516	STOP	n/a	LTP327	ltpFR2	14	n/a	n/a	n/a	12	n/a	n/a	n/a	n/a
1498023	REC_START	n/a	LTP327	ltpFR2	14	8	n/a	n/a	n/a	n/a	0	0	0
1498212	REC_WORD	wordpools/wasnorm_wordpool_576.txt	LTP327	ltpFR2	14	8	BACKBONE	66	n/a	n/a	0	0	0
1499221	REC_WORD	wordpools/wasnorm_wordpool_576.txt	LTP327	ltpFR2	14	8	BODY	145	n/a	n/a	0	0	0
1499989	REC_WORD	wordpools/wasnorm_wordpool_576.txt	LTP327	ltpFR2	14	8	TUTU	1524	n/a	n/a	0	0	0
1500888	REC_WORD	wordpools/wasnorm_wordpool_576.txt	LTP327	ltpFR2	14	8	TROUT	1511	n/a	n/a	0	0	0
1501828	REC_WORD	wordpools/wasnorm_wordpool_576.txt	LTP327	ltpFR2	14	8	BREAST	171	n/a	n/a	0	0	0
1502549	REC_WORD	wordpools/wasnorm_wordpool_576.txt	LTP327	ltpFR2	14	8	SUMMIT	1405	n/a	n/a	0	0	0
1503630	REC_WORD	wordpools/wasnorm_wordpool_576.txt	LTP327	ltpFR2	14	8	GUARD	667	n/a	n/a	0	0	0
1504748	REC_WORD	wordpools/wasnorm_wordpool_576.txt	LTP327	ltpFR2	14	8	SHERIFF	1284	n/a	n/a	0	0	0
1505838	REC_WORD	wordpools/wasnorm_wordpool_576.txt	LTP327	ltpFR2	14	8	BADGE	68	n/a	n/a	0	0	0
1506720	REC_WORD	wordpools/wasnorm_wordpool_576.txt	LTP327	ltpFR2	14	8	FRUIT	610	n/a	n/a	0	0	0
1509405	REC_WORD	wordpools/wasnorm_wordpool_576.txt	LTP327	ltpFR2	14	8	CANYON	235	n/a	n/a	0	0	0
1510154	REC_WORD	wordpools/wasnorm_wordpool_576.txt	LTP327	ltpFR2	14	8	RELISH	1183	n/a	n/a	0	0	0
1511120	REC_WORD	wordpools/wasnorm_wordpool_576.txt	LTP327	ltpFR2	14	8	POPCORN	1104	n/a	n/a	0	0	0
1512004	REC_WORD	wordpools/wasnorm_wordpool_576.txt	LTP327	ltpFR2	14	8	LAGOON	795	n/a	n/a	0	0	0
1513053	REC_WORD	wordpools/wasnorm_wordpool_576.txt	LTP327	ltpFR2	14	8	CUPBOARD	425	n/a	n/a	0	0	0
1513775	REC_WORD	wordpools/wasnorm_wordpool_576.txt	LTP327	ltpFR2	14	8	VALVE	1546	n/a	n/a	0	0	0
1514675	REC_WORD	wordpools/wasnorm_wordpool_576.txt	LTP327	ltpFR2	14	8	COMPASS	358	n/a	n/a	0	0	0
1521743	REC_WORD	wordpools/wasnorm_wordpool_576.txt	LTP327	ltpFR2	14	8	REBEL	1172	n/a	n/a	0	0	0
1522491	REC_WORD	wordpools/wasnorm_wordpool_576.txt	LTP327	ltpFR2	14	8	LEADER	807	n/a	n/a	0	0	0
1523278	REC_WORD	wordpools/wasnorm_wordpool_576.txt	LTP327	ltpFR2	14	8	ROOSTER	1209	n/a	n/a	0	0	0
1524192	REC_WORD	wordpools/wasnorm_wordpool_576.txt	LTP327	ltpFR2	14	8	BRANDY	169	n/a	n/a	0	0	0
1525058	REC_WORD	wordpools/wasnorm_wordpool_576.txt	LTP327	ltpFR2	14	8	BRANCH	168	n/a	n/a	0	0	0
1525876	REC_WORD	wordpools/wasnorm_wordpool_576.txt	LTP327	ltpFR2	14	8	COUNTY	389	n/a	n/a	0	0	0
1534817	REC_WORD	wordpools/wasnorm_wordpool_576.txt	LTP327	ltpFR2	14	8	BANQUET	86	n/a	n/a	0	0	0
1574566	REST_REWET	n/a	LTP327	ltpFR2	14	8	n/a	n/a	n/a	n/a	0	0	0
1912465	WORD	wordpools/wasnorm_wordpool_576.txt	LTP327	ltpFR2	14	9	CLAMP	316	n/a	n/a	0	0	0
1915247	WORD	wordpools/wasnorm_wordpool_576.txt	LTP327	ltpFR2	14	9	TURTLE	1522	n/a	n/a	0	0	0
1918047	WORD	wordpools/wasnorm_wordpool_576.txt	LTP327	ltpFR2	14	9	CLAM	315	n/a	n/a	0	0	0
1920744	WORD	wordpools/wasnorm_wordpool_576.txt	LTP327	ltpFR2	14	9	ATLAS	53	n/a	n/a	0	0	0
1923476	WORD	wordpools/wasnorm_wordpool_576.txt	LTP327	ltpFR2	14	9	SPACE	1345	n/a	n/a	0	0	0
1925959	WORD	wordpools/wasnorm_wordpool_576.txt	LTP327	ltpFR2	14	9	PIZZA	1079	n/a	n/a	0	0	0
1928540	WORD	wordpools/wasnorm_wordpool_576.txt	LTP327	ltpFR2	14	9	PLIERS	1089	n/a	n/a	0	0	0
1931289	WORD	wordpools/wasnorm_wordpool_576.txt	LTP327	ltpFR2	14	9	BLUEPRINT	142	n/a	n/a	0	0	0
1933721	WORD	wordpools/wasnorm_wordpool_576.txt	LTP327	ltpFR2	14	9	COMET	353	n/a	n/a	0	0	0
1936220	WORD	wordpools/wasnorm_wordpool_576.txt	LTP327	ltpFR2	14	9	HELMET	702	n/a	n/a	0	0	0
1938885	WORD	wordpools/wasnorm_wordpool_576.txt	LTP327	ltpFR2	14	9	STAR	1373	n/a	n/a	0	0	0
1941451	WORD	wordpools/wasnorm_wordpool_576.txt	LTP327	ltpFR2	14	9	NIGHTGOWN	953	n/a	n/a	0	0	0
1944216	WORD	wordpools/wasnorm_wordpool_576.txt	LTP327	ltpFR2	14	9	CLOTHES	327	n/a	n/a	0	0	0
1946748	WORD	wordpools/wasnorm_wordpool_576.txt	LTP327	ltpFR2	14	9	TREAT	1501	n/a	n/a	0	0	0
1949313	WORD	wordpools/wasnorm_wordpool_576.txt	LTP327	ltpFR2	14	9	CRAB	397	n/a	n/a	0	0	0
1952013	WORD	wordpools/wasnorm_wordpool_576.txt	LTP327	ltpFR2	14	9	NEUTRON	947	n/a	n/a	0	0	0
1954478	WORD	wordpools/wasnorm_wordpool_576.txt	LTP327	ltpFR2	14	9	LADY	794	n/a	n/a	0	0	0
1957094	WORD	wordpools/wasnorm_wordpool_576.txt	LTP327	ltpFR2	14	9	WOMAN	1620	n/a	n/a	0	0	0
1959758	WORD	wordpools/wasnorm_wordpool_576.txt	LTP327	ltpFR2	14	9	YOLK	1633	n/a	n/a	0	0	0
1962407	WORD	wordpools/wasnorm_wordpool_576.txt	LTP327	ltpFR2	14	9	KLEENEX	782	n/a	n/a	0	0	0
1964939	WORD	wordpools/wasnorm_wordpool_576.txt	LTP327	ltpFR2	14	9	HATCHET	691	n/a	n/a	0	0	0
1967738	WORD	wordpools/wasnorm_wordpool_576.txt	LTP327	ltpFR2	14	9	SERVER	1272	n/a	n/a	0	0	0
1970170	WORD	wordpools/wasnorm_wordpool_576.txt	LTP327	ltpFR2	14	9	RADISH	1158	n/a	n/a	0	0	0
1972868	WORD	wordpools/wasnorm_wordpool_576.txt	LTP327	ltpFR2	14	9	BIKE	125	n/a	n/a	0	0	0
1974484	START	n/a	LTP327	ltpFR2	14	n/a	n/a	n/a	13	n/a	n/a	n/a	n/a
1975489	DISTRACTOR	n/a	LTP327	ltpFR2	14	9	n/a	n/a	n/a	n/a	0	0	0
1975517	PROB	n/a	LTP327	ltpFR2	14	n/a	n/a	n/a	13	14	8	2	4
1977466	PROB	n/a	LTP327	ltpFR2	14	n/a	n/a	n/a	13	13	1	3	9
1979198	PROB	n/a	LTP327	ltpFR2	14	n/a	n/a	n/a	13	14	3	5	6
1980781	PROB	n/a	LTP327	ltpFR2	14	n/a	n/a	n/a	13	17	6	7	4
1982147	PROB	n/a	LTP327	ltpFR2	14	n/a	n/a	n/a	13	10	5	1	4
1983463	PROB	n/a	LTP327	ltpFR2	14	n/a	n/a	n/a	13	20	8	5	7
1985979	PROB	n/a	LTP327	ltpFR2	14	n/a	n/a	n/a	13	15	2	5	8
1987245	PROB	n/a	LTP327	ltpFR2	14	n/a	n/a	n/a	13	4	1	1	2
1988311	PROB	n/a	LTP327	ltpFR2	14	n/a	n/a	n/a	13	18	8	5	5
1989710	PROB	n/a	LTP327	ltpFR2	14	n/a	n/a	n/a	13	11	5	1	5
1991010	PROB	n/a	LTP327	ltpFR2	14	n/a	n/a	n/a	13	17	8	4	5
1992325	PROB	n/a	LTP327	ltpFR2	14	n/a	n/a	n/a	13	20	9	6	5
1993808	PROB	n/a	LTP327	ltpFR2	14	n/a	n/a	n/a	13	13	3	8	2
1995107	PROB	n/a	LTP327	ltpFR2	14	n/a	n/a	n/a	13	18	6	6	6
1996957	PROB	n/a	LTP327	ltpFR2	14	n/a	n/a	n/a	13	11	8	2	1
1998324	STOP	n/a	LTP327	ltpFR2	14	n/a	n/a	n/a	13	n/a	n/a	n/a	n/a
2000303	REC_START	n/a	LTP327	ltpFR2	14	9	n/a	n/a	n/a	n/a	0	0	0
2000628	REC_WORD	wordpools/wasnorm_wordpool_576.txt	LTP327	ltpFR2	14	9	BIKE	125	n/a	n/a	0	0	0
2001310	REC_WORD	wordpools/wasnorm_wordpool_576.txt	LTP327	ltpFR2	14	9	RADISH	1158	n/a	n/a	0	0	0
2002020	REC_WORD	wordpools/wasnorm_wordpool_576.txt	LTP327	ltpFR2	14	9	SERVER	1272	n/a	n/a	0	0	0
2002662	REC_WORD	wordpools/wasnorm_wordpool_576.txt	LTP327	ltpFR2	14	9	HATCHET	691	n/a	n/a	0	0	0
2004952	REC_WORD	wordpools/wasnorm_wordpool_576.txt	LTP327	ltpFR2	14	9	BLUEPRINT	142	n/a	n/a	0	0	0
2005997	REC_WORD	wordpools/wasnorm_wordpool_576.txt	LTP327	ltpFR2	14	9	KLEENEX	782	n/a	n/a	0	0	0
2008247	REC_WORD	wordpools/wasnorm_wordpool_576.txt	LTP327	ltpFR2	14	9	SPACE	1345	n/a	n/a	0	0	0
2009299	REC_WORD	wordpools/wasnorm_wordpool_576.txt	LTP327	ltpFR2	14	9	ATLAS	53	n/a	n/a	0	0	0
2010315	REC_WORD	wordpools/wasnorm_wordpool_576.txt	LTP327	ltpFR2	14	9	CLAM	315	n/a	n/a	0	0	0
2011499	REC_WORD	wordpools/wasnorm_wordpool_576.txt	LTP327	ltpFR2	14	9	CLAMP	316	n/a	n/a	0	0	0
2013794	REC_WORD	wordpools/wasnorm_wordpool_576.txt	LTP327	ltpFR2	14	9	TURTLE	1522	n/a	n/a	0	0	0
2014890	REC_WORD	wordpools/wasnorm_wordpool_576.txt	LTP327	ltpFR2	14	9	CRAB	397	n/a	n/a	0	0	0
2015663	REC_WORD	wordpools/wasnorm_wordpool_576.txt	LTP327	ltpFR2	14	9	TREAT	1501	n/a	n/a	0	0	0
2016382	REC_WORD	wordpools/wasnorm_wordpool_576.txt	LTP327	ltpFR2	14	9	PIZZA	1079	n/a	n/a	0	0	0
2021875	REC_WORD	wordpools/wasnorm_wordpool_576.txt	LTP327	ltpFR2	14	9	NEUTRON	947	n/a	n/a	0	0	0
2022734	REC_WORD	wordpools/wasnorm_wordpool_576.txt	LTP327	ltpFR2	14	9	LADY	794	n/a	n/a	0	0	0
2023465	REC_WORD	wordpools/wasnorm_wordpool_576.txt	LTP327	ltpFR2	14	9	WOMAN	1620	n/a	n/a	0	0	0
2024550	REC_WORD	wordpools/wasnorm_wordpool_576.txt	LTP327	ltpFR2	14	9	STAR	1373	n/a	n/a	0	0	0
2025628	REC_WORD	wordpools/wasnorm_wordpool_576.txt	LTP327	ltpFR2	14	9	COMET	353	n/a	n/a	0	0	0
2032816	REC_WORD	wordpools/wasnorm_wordpool_576.txt	LTP327	ltpFR2	14	9	PLIERS	1089	n/a	n/a	0	0	0
2033812	REC_WORD	wordpools/wasnorm_wordpool_576.txt	LTP327	ltpFR2	14	9	CLOTHES	327	n/a	n/a	0	0	0
2034822	REC_WORD	wordpools/wasnorm_wordpool_576.txt	LTP327	ltpFR2	14	9	NIGHTGOWN	953	n/a	n/a	0	0	0
2090943	DISTRACTOR	n/a	LTP327	ltpFR2	14	10	n/a	n/a	n/a	n/a	0	0	0
2090943	START	n/a	LTP327	ltpFR2	14	n/a	n/a	n/a	14	n/a	n/a	n/a	n/a
2090977	PROB	n/a	LTP327	ltpFR2	14	n/a	n/a	n/a	14	16	8	4	1
2092326	PROB	n/a	LTP327	ltpFR2	14	n/a	n/a	n/a	14	15	9	1	5
2093775	PROB	n/a	LTP327	ltpFR2	14	n/a	n/a	n/a	14	23	9	9	5
2095341	PROB	n/a	LTP327	ltpFR2	14	n/a	n/a	n/a	14	13	5	5	3
2096407	PROB	n/a	LTP327	ltpFR2	14	n/a	n/a	n/a	14	18	7	3	8
2097773	PROB	n/a	LTP327	ltpFR2	14	n/a	n/a	n/a	14	11	4	2	5
2099073	PROB	n/a	LTP327	ltpFR2	14	n/a	n/a	n/a	14	8	2	4	2
2100671	PROB	n/a	LTP327	ltpFR2	14	n/a	n/a	n/a	14	10	6	3	1
2102022	PROB	n/a	LTP327	ltpFR2	14	n/a	n/a	n/a	14	8	4	2	2
2103553	PROB	n/a	LTP327	ltpFR2	14	n/a	n/a	n/a	14	14	5	2	7
2105153	PROB	n/a	LTP327	ltpFR2	14	n/a	n/a	n/a	14	13	1	4	7
2106402	PROB	n/a	LTP327	ltpFR2	14	n/a	n/a	n/a	14	20	9	9	2
2107818	PROB	n/a	LTP327	ltpFR2	14	n/a	n/a	n/a	14	15	5	7	3
2110900	PROB	n/a	LTP327	ltpFR2	14	n/a	n/a	n/a	14	17	4	9	4
2112482	PROB	n/a	LTP327	ltpFR2	14	n/a	n/a	n/a	14	13	2	9	2
2113532	STOP	n/a	LTP327	ltpFR2	14	n/a	n/a	n/a	14	n/a	n/a	n/a	n/a
2116065	WORD	wordpools/wasnorm_wordpool_576.txt	LTP327	ltpFR2	14	10	WIFE	1609	n/a	n/a	0	0	0
2118779	WORD	wordpools/wasnorm_wordpool_576.txt	LTP327	ltpFR2	14	10	CASKET	255	n/a	n/a	0	0	0
2121444	WORD	wordpools/wasnorm_wordpool_576.txt	LTP327	ltpFR2	14	10	DRESSER	496	n/a	n/a	0	0	0
2124094	WORD	wordpools/wasnorm_wordpool_576.txt	LTP327	ltpFR2	14	10	SPOUSE	1358	n/a	n/a	0	0	0
2126675	WORD	wordpools/wasnorm_wordpool_576.txt	LTP327	ltpFR2	14	10	TEMPLE	1448	n/a	n/a	0	0	0
2129224	WORD	wordpools/wasnorm_wordpool_576.txt	LTP327	ltpFR2	14	10	BARREL	91	n/a	n/a	0	0	0
2131856	WORD	wordpools/wasnorm_wordpool_576.txt	LTP327	ltpFR2	14	10	SMOG	1330	n/a	n/a	0	0	0
2134305	WORD	wordpools/wasnorm_wordpool_576.txt	LTP327	ltpFR2	14	10	DRINK	498	n/a	n/a	0	0	0
2136954	WORD	wordpools/wasnorm_wordpool_576.txt	LTP327	ltpFR2	14	10	HAND	683	n/a	n/a	0	0	0
2139402	WORD	wordpools/wasnorm_wordpool_576.txt	LTP327	ltpFR2	14	10	WRIST	1626	n/a	n/a	0	0	0
2142167	WORD	wordpools/wasnorm_wordpool_576.txt	LTP327	ltpFR2	14	10	TART	1436	n/a	n/a	0	0	0
2144799	WORD	wordpools/wasnorm_wordpool_576.txt	LTP327	ltpFR2	14	10	HUSBAND	728	n/a	n/a	0	0	0
2147631	WORD	wordpools/wasnorm_wordpool_576.txt	LTP327	ltpFR2	14	10	FOOTBALL	591	n/a	n/a	0	0	0
2150463	WORD	wordpools/wasnorm_wordpool_576.txt	LTP327	ltpFR2	14	10	GARDEN	623	n/a	n/a	0	0	0
2153112	WORD	wordpools/wasnorm_wordpool_576.txt	LTP327	ltpFR2	14	10	LILY	821	n/a	n/a	0	0	0
2155794	WORD	wordpools/wasnorm_wordpool_576.txt	LTP327	ltpFR2	14	10	ORANGE	980	n/a	n/a	0	0	0
2158260	WORD	wordpools/wasnorm_wordpool_576.txt	LTP327	ltpFR2	14	10	BUREAU	199	n/a	n/a	0	0	0
2160875	WORD	wordpools/wasnorm_wordpool_576.txt	LTP327	ltpFR2	14	10	SALMON	1227	n/a	n/a	0	0	0
2163657	WORD	wordpools/wasnorm_wordpool_576.txt	LTP327	ltpFR2	14	10	LIZARD	834	n/a	n/a	0	0	0
2166439	WORD	wordpools/wasnorm_wordpool_576.txt	LTP327	ltpFR2	14	10	NURSE	963	n/a	n/a	0	0	0
2168972	WORD	wordpools/wasnorm_wordpool_576.txt	LTP327	ltpFR2	14	10	VICTIM	1562	n/a	n/a	0	0	0
2171436	WORD	wordpools/wasnorm_wordpool_576.txt	LTP327	ltpFR2	14	10	MONEY	908	n/a	n/a	0	0	0
2173986	WORD	wordpools/wasnorm_wordpool_576.txt	LTP327	ltpFR2	14	10	CONTRACT	368	n/a	n/a	0	0	0
2176634	WORD	wordpools/wasnorm_wordpool_576.txt	LTP327	ltpFR2	14	10	FRIAR	605	n/a	n/a	0	0	0
2178266	START	n/a	LTP327	ltpFR2	14	n/a	n/a	n/a	15	n/a	n/a	n/a	n/a
2179147	DISTRACTOR	n/a	LTP327	ltpFR2	14	10	n/a	n/a	n/a	n/a	0	0	0
2179166	PROB	n/a	LTP327	ltpFR2	14	n/a	n/a	n/a	15	12	1	8	3
2180949	PROB	n/a	LTP327	ltpFR2	14	n/a	n/a	n/a	15	17	7	3	7
2182697	PROB	n/a	LTP327	ltpFR2	14	n/a	n/a	n/a	15	10	1	4	5
2184014	PROB	n/a	LTP327	ltpFR2	14	n/a	n/a	n/a	15	16	5	4	7
2185546	PROB	n/a	LTP327	ltpFR2	14	n/a	n/a	n/a	15	21	5	8	8
2187228	PROB	n/a	LTP327	ltpFR2	14	n/a	n/a	n/a	15	17	7	9	1
2188878	PROB	n/a	LTP327	ltpFR2	14	n/a	n/a	n/a	15	13	5	1	7
2190427	PROB	n/a	LTP327	ltpFR2	14	n/a	n/a	n/a	15	11	1	3	7
2192027	PROB	n/a	LTP327	ltpFR2	14	n/a	n/a	n/a	15	12	7	3	2
2193275	PROB	n/a	LTP327	ltpFR2	14	n/a	n/a	n/a	15	18	8	7	3
2194791	PROB	n/a	LTP327	ltpFR2	14	n/a	n/a	n/a	15	15	4	8	3
2196157	PROB	n/a	LTP327	ltpFR2	14	n/a	n/a	n/a	15	14	4	3	7
2198091	PROB	n/a	LTP327	ltpFR2	14	n/a	n/a	n/a	15	15	4	5	6
2200372	PROB	n/a	LTP327	ltpFR2	14	n/a	n/a	n/a	15	10	1	1	8
2201516	STOP	n/a	LTP327	ltpFR2	14	n/a	n/a	n/a	15	n/a	n/a	n/a	n/a
2204088	REC_START	n/a	LTP327	ltpFR2	14	10	n/a	n/a	n/a	n/a	0	0	0
2204625	REC_WORD	wordpools/wasnorm_wordpool_576.txt	LTP327	ltpFR2	14	10	FRIAR	605	n/a	n/a	0	0	0
2205564	REC_WORD	wordpools/wasnorm_wordpool_576.txt	LTP327	ltpFR2	14	10	CONTRACT	368	n/a	n/a	0	0	0
2207004	REC_WORD	wordpools/wasnorm_wordpool_576.txt	LTP327	ltpFR2	14	10	MONEY	908	n/a	n/a	0	0	0
2207898	REC_WORD	wordpools/wasnorm_wordpool_576.txt	LTP327	ltpFR2	14	10	VICTIM	1562	n/a	n/a	0	0	0
2208775	REC_WORD	wordpools/wasnorm_wordpool_576.txt	LTP327	ltpFR2	14	10	NURSE	963	n/a	n/a	0	0	0
2210792	REC_WORD	wordpools/wasnorm_wordpool_576.txt	LTP327	ltpFR2	14	10	WIFE	1609	n/a	n/a	0	0	0
2211416	REC_WORD	wordpools/wasnorm_wordpool_576.txt	LTP327	ltpFR2	14	10	SPOUSE	1358	n/a	n/a	0	0	0
2212173	REC_WORD	wordpools/wasnorm_wordpool_576.txt	LTP327	ltpFR2	14	10	HUSBAND	728	n/a	n/a	0	0	0
2212892	REC_WORD	wordpools/wasnorm_wordpool_576.txt	LTP327	ltpFR2	14	10	CASKET	255	n/a	n/a	0	0	0
2214845	REC_WORD	wordpools/wasnorm_wordpool_576.txt	LTP327	ltpFR2	14	10	HAND	683	n/a	n/a	0	0	0
2215628	REC_WORD	wordpools/wasnorm_wordpool_576.txt	LTP327	ltpFR2	14	10	WRIST	1626	n/a	n/a	0	0	0
2216461	REC_WORD	wordpools/wasnorm_wordpool_576.txt	LTP327	ltpFR2	14	10	TART	1436	n/a	n/a	0	0	0
2221000	REC_WORD	wordpools/wasnorm_wordpool_576.txt	LTP327	ltpFR2	14	10	ORANGE	980	n/a	n/a	0	0	0
2221884	REC_WORD	wordpools/wasnorm_wordpool_576.txt	LTP327	ltpFR2	14	10	BUREAU	199	n/a	n/a	0	0	0
2223028	REC_WORD	wordpools/wasnorm_wordpool_576.txt	LTP327	ltpFR2	14	10	GARDEN	623	n/a	n/a	0	0	0
2223627	REC_WORD	wordpools/wasnorm_wordpool_576.txt	LTP327	ltpFR2	14	10	LILY	821	n/a	n/a	0	0	0
2225687	REC_WORD	wordpools/wasnorm_wordpool_576.txt	LTP327	ltpFR2	14	10	SALMON	1227	n/a	n/a	0	0	0
2227698	REC_WORD	wordpools/wasnorm_wordpool_576.txt	LTP327	ltpFR2	14	10	LIZARD	834	n/a	n/a	0	0	0
2230569	REC_WORD	wordpools/wasnorm_wordpool_576.txt	LTP327	ltpFR2	14	10	TEMPLE	1448	n/a	n/a	0	0	0
2232358	REC_WORD	wordpools/wasnorm_wordpool_576.txt	LTP327	ltpFR2	14	10	WARDROBE	1587	n/a	n/a	0	0	0
2234162	REC_WORD	wordpools/wasnorm_wordpool_576.txt	LTP327	ltpFR2	14	10	DRESSER	496	n/a	n/a	0	0	0
2237254	REC_WORD	wordpools/wasnorm_wordpool_576.txt	LTP327	ltpFR2	14	10	DRINK	498	n/a	n/a	0	0	0
2238017	REC_WORD	wordpools/wasnorm_wordpool_576.txt	LTP327	ltpFR2	14	10	SMOG	1330	n/a	n/a	0	0	0
2294792	WORD	wordpools/wasnorm_wordpool_576.txt	LTP327	ltpFR2	14	11	CLOCK	325	n/a	n/a	0	0	0
2297574	WORD	wordpools/wasnorm_wordpool_576.txt	LTP327	ltpFR2	14	11	MARROW	872	n/a	n/a	0	0	0
2300057	WORD	wordpools/wasnorm_wordpool_576.txt	LTP327	ltpFR2	14	11	CANAL	226	n/a	n/a	0	0	0
2302688	WORD	wordpools/wasnorm_wordpool_576.txt	LTP327	ltpFR2	14	11	FOREHEAD	592	n/a	n/a	0	0	0
2305186	WORD	wordpools/wasnorm_wordpool_576.txt	LTP327	ltpFR2	14	11	FRECKLE	602	n/a	n/a	0	0	0
2307835	WORD	wordpools/wasnorm_wordpool_576.txt	LTP327	ltpFR2	14	11	COURSE	390	n/a	n/a	0	0	0
2310301	WORD	wordpools/wasnorm_wordpool_576.txt	LTP327	ltpFR2	14	11	BUBBLE	183	n/a	n/a	0	0	0
2312899	WORD	wordpools/wasnorm_wordpool_576.txt	LTP327	ltpFR2	14	11	VIKING	1565	n/a	n/a	0	0	0
2315498	WORD	wordpools/wasnorm_wordpool_576.txt	LTP327	ltpFR2	14	11	BLADE	134	n/a	n/a	0	0	0
2318280	WORD	wordpools/wasnorm_wordpool_576.txt	LTP327	ltpFR2	14	11	SEAGULL	1261	n/a	n/a	0	0	0
2320829	WORD	wordpools/wasnorm_wordpool_576.txt	LTP327	ltpFR2	14	11	SURVEY	1414	n/a	n/a	0	0	0
2323461	WORD	wordpools/wasnorm_wordpool_576.txt	LTP327	ltpFR2	14	11	BELLY	119	n/a	n/a	0	0	0
2326126	WORD	wordpools/wasnorm_wordpool_576.txt	LTP327	ltpFR2	14	11	NOMAD	955	n/a	n/a	0	0	0
2328691	WORD	wordpools/wasnorm_wordpool_576.txt	LTP327	ltpFR2	14	11	TRIBE	1505	n/a	n/a	0	0	0
2331490	WORD	wordpools/wasnorm_wordpool_576.txt	LTP327	ltpFR2	14	11	DONOR	485	n/a	n/a	0	0	0
2333957	WORD	wordpools/wasnorm_wordpool_576.txt	LTP327	ltpFR2	14	11	SIBLING	1301	n/a	n/a	0	0	0
2336771	WORD	wordpools/wasnorm_wordpool_576.txt	LTP327	ltpFR2	14	11	PARROT	1015	n/a	n/a	0	0	0
2339503	WORD	wordpools/wasnorm_wordpool_576.txt	LTP327	ltpFR2	14	11	CAFE	216	n/a	n/a	0	0	0
2342086	WORD	wordpools/wasnorm_wordpool_576.txt	LTP327	ltpFR2	14	11	STOMACH	1384	n/a	n/a	0	0	0
2344783	WORD	wordpools/wasnorm_wordpool_576.txt	LTP327	ltpFR2	14	11	CORAL	378	n/a	n/a	0	0	0
2347299	WORD	wordpools/wasnorm_wordpool_576.txt	LTP327	ltpFR2	14	11	HAWK	692	n/a	n/a	0	0	0
2349781	WORD	wordpools/wasnorm_wordpool_576.txt	LTP327	ltpFR2	14	11	GRIZZLY	662	n/a	n/a	0	0	0
2352363	WORD	wordpools/wasnorm_wordpool_576.txt	LTP327	ltpFR2	14	11	LADDER	793	n/a	n/a	0	0	0
2354963	WORD	wordpools/wasnorm_wordpool_576.txt	LTP327	ltpFR2	14	11	RAFT	1159	n/a	n/a	0	0	0
2356578	START	n/a	LTP327	ltpFR2	14	n/a	n/a	n/a	16	n/a	n/a	n/a	n/a
2357749	DISTRACTOR	n/a	LTP327	ltpFR2	14	11	n/a	n/a	n/a	n/a	0	0	0
2357777	PROB	n/a	LTP327	ltpFR2	14	n/a	n/a	n/a	16	22	6	9	7
2359526	PROB	n/a	LTP327	ltpFR2	14	n/a	n/a	n/a	16	9	2	4	3
2360993	PROB	n/a	LTP327	ltpFR2	14	n/a	n/a	n/a	16	13	5	6	2
2362475	PROB	n/a	LTP327	ltpFR2	14	n/a	n/a	n/a	16	25	9	7	9
2364440	PROB	n/a	LTP327	ltpFR2	14	n/a	n/a	n/a	16	18	1	6	9
2366273	PROB	n/a	LTP327	ltpFR2	14	n/a	n/a	n/a	16	12	8	2	2
2368488	PROB	n/a	LTP327	ltpFR2	14	n/a	n/a	n/a	16	14	5	8	1
2369771	PROB	n/a	LTP327	ltpFR2	14	n/a	n/a	n/a	16	15	6	6	3
2371071	PROB	n/a	LTP327	ltpFR2	14	n/a	n/a	n/a	16	14	9	3	2
2372270	PROB	n/a	LTP327	ltpFR2	14	n/a	n/a	n/a	16	21	7	6	8
2373719	PROB	n/a	LTP327	ltpFR2	14	n/a	n/a	n/a	16	19	9	7	3
2375235	PROB	n/a	LTP327	ltpFR2	14	n/a	n/a	n/a	16	21	8	6	7
2377002	PROB	n/a	LTP327	ltpFR2	14	n/a	n/a	n/a	16	14	4	3	7
2378367	PROB	n/a	LTP327	ltpFR2	14	n/a	n/a	n/a	16	22	9	5	8
2380053	STOP	n/a	LTP327	ltpFR2	14	n/a	n/a	n/a	16	n/a	n/a	n/a	n/a
2382500	REC_START	n/a	LTP327	ltpFR2	14	11	n/a	n/a	n/a	n/a	0	0	0
2382918	REC_WORD	wordpools/wasnorm_wordpool_576.txt	LTP327	ltpFR2	14	11	LADDER	793	n/a	n/a	0	0	0
2383727	REC_WORD	wordpools/wasnorm_wordpool_576.txt	LTP327	ltpFR2	14	11	RAFT	1159	n/a	n/a	0	0	0
2384858	REC_WORD	wordpools/wasnorm_wordpool_576.txt	LTP327	ltpFR2	14	11	GRIZZLY	662	n/a	n/a	0	0	0
2386175	REC_WORD	wordpools/wasnorm_wordpool_576.txt	LTP327	ltpFR2	14	11	HAWK	692	n/a	n/a	0	0	0
2388911	REC_WORD	wordpools/wasnorm_wordpool_576.txt	LTP327	ltpFR2	14	11	PARROT	1015	n/a	n/a	0	0	0
2390343	REC_WORD	wordpools/wasnorm_wordpool_576.txt	LTP327	ltpFR2	14	11	CAFE	216	n/a	n/a	0	0	0
2393846	REC_WORD	wordpools/wasnorm_wordpool_576.txt	LTP327	ltpFR2	14	11	CORAL	378	n/a	n/a	0	0	0
2395737	REC_WORD	wordpools/wasnorm_wordpool_576.txt	LTP327	ltpFR2	14	11	STOMACH	1384	n/a	n/a	0	0	0
2403945	REC_WORD	wordpools/wasnorm_wordpool_576.txt	LTP327	ltpFR2	14	11	CANAL	226	n/a	n/a	0	0	0
2404646	REC_WORD	wordpools/wasnorm_wordpool_576.txt	LTP327	ltpFR2	14	11	MARROW	872	n/a	n/a	0	0	0
2405547	REC_WORD	wordpools/wasnorm_wordpool_576.txt	LTP327	ltpFR2	14	11	CLOCK	325	n/a	n/a	0	0	0
2406339	REC_WORD	wordpools/wasnorm_wordpool_576.txt	LTP327	ltpFR2	14	11	FOREHEAD	592	n/a	n/a	0	0	0
2407227	REC_WORD	wordpools/wasnorm_wordpool_576.txt	LTP327	ltpFR2	14	11	FRECKLE	602	n/a	n/a	0	0	0
2408121	REC_WORD	wordpools/wasnorm_wordpool_576.txt	LTP327	ltpFR2	14	11	BUBBLE	183	n/a	n/a	0	0	0
2409667	REC_WORD	wordpools/wasnorm_wordpool_576.txt	LTP327	ltpFR2	14	11	VIKING	1565	n/a	n/a	0	0	0
2412997	REC_WORD	wordpools/wasnorm_wordpool_576.txt	LTP327	ltpFR2	14	11	BLADE	134	n/a	n/a	0	0	0
2416660	REC_WORD	wordpools/wasnorm_wordpool_576.txt	LTP327	ltpFR2	14	11	SURVEY	1414	n/a	n/a	0	0	0
2417982	REC_WORD	wordpools/wasnorm_wordpool_576.txt	LTP327	ltpFR2	14	11	BELLY	119	n/a	n/a	0	0	0
2419423	REC_WORD	wordpools/wasnorm_wordpool_576.txt	LTP327	ltpFR2	14	11	TRIBE	1505	n/a	n/a	0	0	0
2420593	REC_WORD	wordpools/wasnorm_wordpool_576.txt	LTP327	ltpFR2	14	11	NOMAD	955	n/a	n/a	0	0	0
2422708	REC_WORD	wordpools/wasnorm_wordpool_576.txt	LTP327	ltpFR2	14	11	DONOR	485	n/a	n/a	0	0	0
2429003	REC_WORD	wordpools/wasnorm_wordpool_576.txt	LTP327	ltpFR2	14	11	SIBLING	1301	n/a	n/a	0	0	0
2473120	DISTRACTOR	n/a	LTP327	ltpFR2	14	12	n/a	n/a	n/a	n/a	0	0	0
2473120	START	n/a	LTP327	ltpFR2	14	n/a	n/a	n/a	17	n/a	n/a	n/a	n/a
2473153	PROB	n/a	LTP327	ltpFR2	14	n/a	n/a	n/a	17	18	7	8	3
2474720	PROB	n/a	LTP327	ltpFR2	14	n/a	n/a	n/a	17	18	9	3	6
2476168	PROB	n/a	LTP327	ltpFR2	14	n/a	n/a	n/a	17	13	1	7	5
2477367	PROB	n/a	LTP327	ltpFR2	14	n/a	n/a	n/a	17	19	6	4	9
2478767	PROB	n/a	LTP327	ltpFR2	14	n/a	n/a	n/a	17	18	7	3	8
2480100	PROB	n/a	LTP327	ltpFR2	14	n/a	n/a	n/a	17	13	9	1	3
2481266	PROB	n/a	LTP327	ltpFR2	14	n/a	n/a	n/a	17	11	1	5	5
2482482	PROB	n/a	LTP327	ltpFR2	14	n/a	n/a	n/a	17	24	7	9	8
2484981	PROB	n/a	LTP327	ltpFR2	14	n/a	n/a	n/a	17	12	7	1	4
2486430	PROB	n/a	LTP327	ltpFR2	14	n/a	n/a	n/a	17	20	8	8	4
2488262	PROB	n/a	LTP327	ltpFR2	14	n/a	n/a	n/a	17	15	5	1	9
2490761	PROB	n/a	LTP327	ltpFR2	14	n/a	n/a	n/a	17	8	6	1	2
2491961	PROB	n/a	LTP327	ltpFR2	14	n/a	n/a	n/a	17	19	8	5	6
2493593	PROB	n/a	LTP327	ltpFR2	14	n/a	n/a	n/a	17	19	6	5	8
2494960	PROB	n/a	LTP327	ltpFR2	14	n/a	n/a	n/a	17	15	4	2	9
2496316	STOP	n/a	LTP327	ltpFR2	14	n/a	n/a	n/a	17	n/a	n/a	n/a	n/a
2498092	WORD	wordpools/wasnorm_wordpool_576.txt	LTP327	ltpFR2	14	12	ACTOR	5	n/a	n/a	0	0	0
2500673	WORD	wordpools/wasnorm_wordpool_576.txt	LTP327	ltpFR2	14	12	QUAIL	1147	n/a	n/a	0	0	0
2503455	WORD	wordpools/wasnorm_wordpool_576.txt	LTP327	ltpFR2	14	12	WRENCH	1625	n/a	n/a	0	0	0
2506054	WORD	wordpools/wasnorm_wordpool_576.txt	LTP327	ltpFR2	14	12	TAXI	1438	n/a	n/a	0	0	0
2508802	WORD	wordpools/wasnorm_wordpool_576.txt	LTP327	ltpFR2	14	12	PADDLE	1000	n/a	n/a	0	0	0
2511301	WORD	wordpools/wasnorm_wordpool_576.txt	LTP327	ltpFR2	14	12	THRONE	1461	n/a	n/a	0	0	0
2513933	WORD	wordpools/wasnorm_wordpool_576.txt	LTP327	ltpFR2	14	12	CREVICE	405	n/a	n/a	0	0	0
2516415	WORD	wordpools/wasnorm_wordpool_576.txt	LTP327	ltpFR2	14	12	PARTNER	1017	n/a	n/a	0	0	0
2518864	WORD	wordpools/wasnorm_wordpool_576.txt	LTP327	ltpFR2	14	12	TERMITE	1451	n/a	n/a	0	0	0
2521396	WORD	wordpools/wasnorm_wordpool_576.txt	LTP327	ltpFR2	14	12	BUG	187	n/a	n/a	0	0	0
2523979	WORD	wordpools/wasnorm_wordpool_576.txt	LTP327	ltpFR2	14	12	HERO	706	n/a	n/a	0	0	0
2526443	WORD	wordpools/wasnorm_wordpool_576.txt	LTP327	ltpFR2	14	12	FLUTE	585	n/a	n/a	0	0	0
2529076	WORD	wordpools/wasnorm_wordpool_576.txt	LTP327	ltpFR2	14	12	BANJO	82	n/a	n/a	0	0	0
2531557	WORD	wordpools/wasnorm_wordpool_576.txt	LTP327	ltpFR2	14	12	COUNTRY	388	n/a	n/a	0	0	0
2534090	WORD	wordpools/wasnorm_wordpool_576.txt	LTP327	ltpFR2	14	12	PARENT	1013	n/a	n/a	0	0	0
2536855	WORD	wordpools/wasnorm_wordpool_576.txt	LTP327	ltpFR2	14	12	SILK	1307	n/a	n/a	0	0	0
2539553	WORD	wordpools/wasnorm_wordpool_576.txt	LTP327	ltpFR2	14	12	THREAD	1460	n/a	n/a	0	0	0
2542169	WORD	wordpools/wasnorm_wordpool_576.txt	LTP327	ltpFR2	14	12	SWITCH	1422	n/a	n/a	0	0	0
2544817	WORD	wordpools/wasnorm_wordpool_576.txt	LTP327	ltpFR2	14	12	PANTHER	1009	n/a	n/a	0	0	0
2547616	WORD	wordpools/wasnorm_wordpool_576.txt	LTP327	ltpFR2	14	12	LION	827	n/a	n/a	0	0	0
2550415	WORD	wordpools/wasnorm_wordpool_576.txt	LTP327	ltpFR2	14	12	LABEL	790	n/a	n/a	0	0	0
2553081	WORD	wordpools/wasnorm_wordpool_576.txt	LTP327	ltpFR2	14	12	ACTRESS	6	n/a	n/a	0	0	0
2555845	WORD	wordpools/wasnorm_wordpool_576.txt	LTP327	ltpFR2	14	12	LASER	801	n/a	n/a	0	0	0
2558460	WORD	wordpools/wasnorm_wordpool_576.txt	LTP327	ltpFR2	14	12	STREAM	1392	n/a	n/a	0	0	0
2560078	START	n/a	LTP327	ltpFR2	14	n/a	n/a	n/a	18	n/a	n/a	n/a	n/a
2561172	DISTRACTOR	n/a	LTP327	ltpFR2	14	12	n/a	n/a	n/a	n/a	0	0	0
2561192	PROB	n/a	LTP327	ltpFR2	14	n/a	n/a	n/a	18	13	3	8	1
2563625	PROB	n/a	LTP327	ltpFR2	14	n/a	n/a	n/a	18	16	6	5	5
2566440	PROB	n/a	LTP327	ltpFR2	14	n/a	n/a	n/a	18	15	5	5	5
2567606	PROB	n/a	LTP327	ltpFR2	14	n/a	n/a	n/a	18	10	4	4	2
2568839	PROB	n/a	LTP327	ltpFR2	14	n/a	n/a	n/a	18	14	6	3	5
2570089	PROB	n/a	LTP327	ltpFR2	14	n/a	n/a	n/a	18	12	1	8	3
2571238	PROB	n/a	LTP327	ltpFR2	14	n/a	n/a	n/a	18	14	3	7	4
2572454	PROB	n/a	LTP327	ltpFR2	14	n/a	n/a	n/a	18	13	1	7	5
2574253	PROB	n/a	LTP327	ltpFR2	14	n/a	n/a	n/a	18	12	2	6	4
2575769	PROB	n/a	LTP327	ltpFR2	14	n/a	n/a	n/a	18	8	2	2	4
2577201	PROB	n/a	LTP327	ltpFR2	14	n/a	n/a	n/a	18	10	3	2	5
2578601	PROB	n/a	LTP327	ltpFR2	14	n/a	n/a	n/a	18	9	1	7	1
2579783	PROB	n/a	LTP327	ltpFR2	14	n/a	n/a	n/a	18	24	8	8	8
2582282	PROB	n/a	LTP327	ltpFR2	14	n/a	n/a	n/a	18	16	5	5	6
2583212	STOP	n/a	LTP327	ltpFR2	14	n/a	n/a	n/a	18	n/a	n/a	n/a	n/a
2586048	REC_START	n/a	LTP327	ltpFR2	14	12	n/a	n/a	n/a	n/a	0	0	0
2586334	REC_WORD	wordpools/wasnorm_wordpool_576.txt	LTP327	ltpFR2	14	12	LASER	801	n/a	n/a	0	0	0
2587514	REC_WORD	wordpools/wasnorm_wordpool_576.txt	LTP327	ltpFR2	14	12	STREAM	1392	n/a	n/a	0	0	0
2594232	REC_WORD	wordpools/wasnorm_wordpool_576.txt	LTP327	ltpFR2	14	12	ACTRESS	6	n/a	n/a	0	0	0
2595688	REC_WORD	wordpools/wasnorm_wordpool_576.txt	LTP327	ltpFR2	14	12	ACTOR	5	n/a	n/a	0	0	0
2597157	REC_WORD	wordpools/wasnorm_wordpool_576.txt	LTP327	ltpFR2	14	12	TAXI	1438	n/a	n/a	0	0	0
2598311	REC_WORD	wordpools/wasnorm_wordpool_576.txt	LTP327	ltpFR2	14	12	QUAIL	1147	n/a	n/a	0	0	0
2599203	REC_WORD	wordpools/wasnorm_wordpool_576.txt	LTP327	ltpFR2	14	12	WRENCH	1625	n/a	n/a	0	0	0
2600793	REC_WORD	wordpools/wasnorm_wordpool_576.txt	LTP327	ltpFR2	14	12	PADDLE	1000	n/a	n/a	0	0	0
2602294	REC_WORD	wordpools/wasnorm_wordpool_576.txt	LTP327	ltpFR2	14	12	THRONE	1461	n/a	n/a	0	0	0
2605361	REC_WORD	wordpools/wasnorm_wordpool_576.txt	LTP327	ltpFR2	14	12	BUG	187	n/a	n/a	0	0	0
2606546	REC_WORD	wordpools/wasnorm_wordpool_576.txt	LTP327	ltpFR2	14	12	TERMITE	1451	n/a	n/a	0	0	0
2607467	REC_WORD	wordpools/wasnorm_wordpool_576.txt	LTP327	ltpFR2	14	12	HERO	706	n/a	n/a	0	0	0
2609223	REC_WORD	wordpools/wasnorm_wordpool_576.txt	LTP327	ltpFR2	14	12	FLUTE	585	n/a	n/a	0	0	0
2610061	REC_WORD	wordpools/wasnorm_wordpool_576.txt	LTP327	ltpFR2	14	12	BANJO	82	n/a	n/a	0	0	0
2610711	REC_WORD	wordpools/wasnorm_wordpool_576.txt	LTP327	ltpFR2	14	12	SILK	1307	n/a	n/a	0	0	0
2611312	REC_WORD	wordpools/wasnorm_wordpool_576.txt	LTP327	ltpFR2	14	12	THREAD	1460	n/a	n/a	0	0	0
2622572	REC_WORD	wordpools/wasnorm_wordpool_576.txt	LTP327	ltpFR2	14	12	LION	827	n/a	n/a	0	0	0
2623570	REC_WORD	wordpools/wasnorm_wordpool_576.txt	LTP327	ltpFR2	14	12	PANTHER	1009	n/a	n/a	0	0	0
2624333	REC_WORD	wordpools/wasnorm_wordpool_576.txt	LTP327	ltpFR2	14	12	SWITCH	1422	n/a	n/a	0	0	0
2676702	DISTRACTOR	n/a	LTP327	ltpFR2	14	13	n/a	n/a	n/a	n/a	0	0	0
2676702	START	n/a	LTP327	ltpFR2	14	n/a	n/a	n/a	19	n/a	n/a	n/a	n/a
2676735	PROB	n/a	LTP327	ltpFR2	14	n/a	n/a	n/a	19	16	7	6	3
2678368	PROB	n/a	LTP327	ltpFR2	14	n/a	n/a	n/a	19	18	5	6	7
2680217	PROB	n/a	LTP327	ltpFR2	14	n/a	n/a	n/a	19	9	1	7	1
2681283	PROB	n/a	LTP327	ltpFR2	14	n/a	n/a	n/a	19	20	4	8	8
2682715	PROB	n/a	LTP327	ltpFR2	14	n/a	n/a	n/a	19	17	8	2	7
2684082	PROB	n/a	LTP327	ltpFR2	14	n/a	n/a	n/a	19	12	1	5	6
2685264	PROB	n/a	LTP327	ltpFR2	14	n/a	n/a	n/a	19	7	1	4	2
2686597	PROB	n/a	LTP327	ltpFR2	14	n/a	n/a	n/a	19	20	9	8	3
2687997	PROB	n/a	LTP327	ltpFR2	14	n/a	n/a	n/a	19	15	4	4	7
2689195	PROB	n/a	LTP327	ltpFR2	14	n/a	n/a	n/a	19	12	1	4	7
2691096	PROB	n/a	LTP327	ltpFR2	14	n/a	n/a	n/a	19	22	9	9	4
2692394	PROB	n/a	LTP327	ltpFR2	14	n/a	n/a	n/a	19	16	8	1	7
2694426	PROB	n/a	LTP327	ltpFR2	14	n/a	n/a	n/a	19	14	8	5	1
2695859	PROB	n/a	LTP327	ltpFR2	14	n/a	n/a	n/a	19	18	8	2	8
2697076	PROB	n/a	LTP327	ltpFR2	14	n/a	n/a	n/a	19	16	9	1	6
2698608	PROB	n/a	LTP327	ltpFR2	14	n/a	n/a	n/a	19	15	6	8	1
2699828	STOP	n/a	LTP327	ltpFR2	14	n/a	n/a	n/a	19	n/a	n/a	n/a	n/a
2701806	WORD	wordpools/wasnorm_wordpool_576.txt	LTP327	ltpFR2	14	13	BEAST	108	n/a	n/a	0	0	0
2704621	WORD	wordpools/wasnorm_wordpool_576.txt	LTP327	ltpFR2	14	13	CHAMPAGNE	278	n/a	n/a	0	0	0
2707287	WORD	wordpools/wasnorm_wordpool_576.txt	LTP327	ltpFR2	14	13	MUFFIN	929	n/a	n/a	0	0	0
2709835	WORD	wordpools/wasnorm_wordpool_576.txt	LTP327	ltpFR2	14	13	COCOON	339	n/a	n/a	0	0	0
2712434	WORD	wordpools/wasnorm_wordpool_576.txt	LTP327	ltpFR2	14	13	BROTHER	179	n/a	n/a	0	0	0
2715050	WORD	wordpools/wasnorm_wordpool_576.txt	LTP327	ltpFR2	14	13	MONSTER	912	n/a	n/a	0	0	0
2717548	WORD	wordpools/wasnorm_wordpool_576.txt	LTP327	ltpFR2	14	13	KEEPER	769	n/a	n/a	0	0	0
2720297	WORD	wordpools/wasnorm_wordpool_576.txt	LTP327	ltpFR2	14	13	PALACE	1006	n/a	n/a	0	0	0
2722745	WORD	wordpools/wasnorm_wordpool_576.txt	LTP327	ltpFR2	14	13	BALLOON	75	n/a	n/a	0	0	0
2725294	WORD	wordpools/wasnorm_wordpool_576.txt	LTP327	ltpFR2	14	13	PLAYGROUND	1087	n/a	n/a	0	0	0
2727994	WORD	wordpools/wasnorm_wordpool_576.txt	LTP327	ltpFR2	14	13	COTTAGE	384	n/a	n/a	0	0	0
2730592	WORD	wordpools/wasnorm_wordpool_576.txt	LTP327	ltpFR2	14	13	TOASTER	1472	n/a	n/a	0	0	0
2733190	WORD	wordpools/wasnorm_wordpool_576.txt	LTP327	ltpFR2	14	13	ROBBER	1197	n/a	n/a	0	0	0
2735839	WORD	wordpools/wasnorm_wordpool_576.txt	LTP327	ltpFR2	14	13	HOOK	715	n/a	n/a	0	0	0
2738654	WORD	wordpools/wasnorm_wordpool_576.txt	LTP327	ltpFR2	14	13	SEAFOOD	1260	n/a	n/a	0	0	0
2741486	WORD	wordpools/wasnorm_wordpool_576.txt	LTP327	ltpFR2	14	13	SWAMP	1416	n/a	n/a	0	0	0
2744202	WORD	wordpools/wasnorm_wordpool_576.txt	LTP327	ltpFR2	14	13	GLOBE	641	n/a	n/a	0	0	0
2746817	WORD	wordpools/wasnorm_wordpool_576.txt	LTP327	ltpFR2	14	13	PASSAGE	1019	n/a	n/a	0	0	0
2749549	WORD	wordpools/wasnorm_wordpool_576.txt	LTP327	ltpFR2	14	13	DANCER	437	n/a	n/a	0	0	0
2752099	WORD	wordpools/wasnorm_wordpool_576.txt	LTP327	ltpFR2	14	13	SKIRT	1319	n/a	n/a	0	0	0
2754696	WORD	wordpools/wasnorm_wordpool_576.txt	LTP327	ltpFR2	14	13	BOARD	143	n/a	n/a	0	0	0
2757128	WORD	wordpools/wasnorm_wordpool_576.txt	LTP327	ltpFR2	14	13	MASK	876	n/a	n/a	0	0	0
2759711	WORD	wordpools/wasnorm_wordpool_576.txt	LTP327	ltpFR2	14	13	POWDER	1117	n/a	n/a	0	0	0
2762459	WORD	wordpools/wasnorm_wordpool_576.txt	LTP327	ltpFR2	14	13	INFANT	737	n/a	n/a	0	0	0
2764076	START	n/a	LTP327	ltpFR2	14	n/a	n/a	n/a	20	n/a	n/a	n/a	n/a
2765202	DISTRACTOR	n/a	LTP327	ltpFR2	14	13	n/a	n/a	n/a	n/a	0	0	0
2765224	PROB	n/a	LTP327	ltpFR2	14	n/a	n/a	n/a	20	15	8	5	2
2767140	PROB	n/a	LTP327	ltpFR2	14	n/a	n/a	n/a	20	17	4	8	5
2768489	PROB	n/a	LTP327	ltpFR2	14	n/a	n/a	n/a	20	13	1	5	7
2770655	PROB	n/a	LTP327	ltpFR2	14	n/a	n/a	n/a	20	6	3	1	2
2771904	PROB	n/a	LTP327	ltpFR2	14	n/a	n/a	n/a	20	15	9	1	5
2773187	PROB	n/a	LTP327	ltpFR2	14	n/a	n/a	n/a	20	15	4	8	3
2774503	PROB	n/a	LTP327	ltpFR2	14	n/a	n/a	n/a	20	12	4	3	5
2776419	PROB	n/a	LTP327	ltpFR2	14	n/a	n/a	n/a	20	15	2	5	8
2778351	PROB	n/a	LTP327	ltpFR2	14	n/a	n/a	n/a	20	14	8	1	5
2780035	PROB	n/a	LTP327	ltpFR2	14	n/a	n/a	n/a	20	14	3	6	5
2781266	PROB	n/a	LTP327	ltpFR2	14	n/a	n/a	n/a	20	12	3	4	5
2782766	PROB	n/a	LTP327	ltpFR2	14	n/a	n/a	n/a	20	8	2	4	2
2784066	PROB	n/a	LTP327	ltpFR2	14	n/a	n/a	n/a	20	18	5	7	6
2786347	PROB	n/a	LTP327	ltpFR2	14	n/a	n/a	n/a	20	17	9	1	7
2787468	STOP	n/a	LTP327	ltpFR2	14	n/a	n/a	n/a	20	n/a	n/a	n/a	n/a
2789997	REC_START	n/a	LTP327	ltpFR2	14	13	n/a	n/a	n/a	n/a	0	0	0
2790512	REC_WORD	wordpools/wasnorm_wordpool_576.txt	LTP327	ltpFR2	14	13	INFANT	737	n/a	n/a	0	0	0
2791298	REC_WORD	wordpools/wasnorm_wordpool_576.txt	LTP327	ltpFR2	14	13	PASSAGE	1019	n/a	n/a	0	0	0
2792115	REC_WORD	wordpools/wasnorm_wordpool_576.txt	LTP327	ltpFR2	14	13	POWDER	1117	n/a	n/a	0	0	0
2792725	REC_WORD	wordpools/wasnorm_wordpool_576.txt	LTP327	ltpFR2	14	13	MASK	876	n/a	n/a	0	0	0
2793528	REC_WORD	wordpools/wasnorm_wordpool_576.txt	LTP327	ltpFR2	14	13	DANCER	437	n/a	n/a	0	0	0
2794387	REC_WORD	wordpools/wasnorm_wordpool_576.txt	LTP327	ltpFR2	14	13	BOARD	143	n/a	n/a	0	0	0
2794957	REC_WORD	wordpools/wasnorm_wordpool_576.txt	LTP327	ltpFR2	14	13	SKIRT	1319	n/a	n/a	0	0	0
2800589	REC_WORD	wordpools/wasnorm_wordpool_576.txt	LTP327	ltpFR2	14	13	GLOBE	641	n/a	n/a	0	0	0
2813013	REC_WORD	wordpools/wasnorm_wordpool_576.txt	LTP327	ltpFR2	14	13	SWAMP	1416	n/a	n/a	0	0	0
2813913	REC_WORD	wordpools/wasnorm_wordpool_576.txt	LTP327	ltpFR2	14	13	ROBBER	1197	n/a	n/a	0	0	0
2815290	REC_WORD	wordpools/wasnorm_wordpool_576.txt	LTP327	ltpFR2	14	13	PALACE	1006	n/a	n/a	0	0	0
2816330	REC_WORD	wordpools/wasnorm_wordpool_576.txt	LTP327	ltpFR2	14	13	BROTHER	179	n/a	n/a	0	0	0
2817868	REC_WORD	wordpools/wasnorm_wordpool_576.txt	LTP327	ltpFR2	14	13	COCOON	339	n/a	n/a	0	0	0
2819406	REC_WORD	wordpools/wasnorm_wordpool_576.txt	LTP327	ltpFR2	14	13	KEEPER	769	n/a	n/a	0	0	0
2820047	REC_WORD	wordpools/wasnorm_wordpool_576.txt	LTP327	ltpFR2	14	13	MUFFIN	929	n/a	n/a	0	0	0
2821793	REC_WORD	wordpools/wasnorm_wordpool_576.txt	LTP327	ltpFR2	14	13	PLAYGROUND	1087	n/a	n/a	0	0	0
2822690	REC_WORD	wordpools/wasnorm_wordpool_576.txt	LTP327	ltpFR2	14	13	BALLOON	75	n/a	n/a	0	0	0
2823349	REC_WORD	wordpools/wasnorm_wordpool_576.txt	LTP327	ltpFR2	14	13	COTTAGE	384	n/a	n/a	0	0	0
2824105	REC_WORD	wordpools/wasnorm_wordpool_576.txt	LTP327	ltpFR2	14	13	TOASTER	1472	n/a	n/a	0	0	0
2827631	REC_WORD	wordpools/wasnorm_wordpool_576.txt	LTP327	ltpFR2	14	13	SEAFOOD	1260	n/a	n/a	0	0	0
2845747	REC_WORD	wordpools/wasnorm_wordpool_576.txt	LTP327	ltpFR2	14	13	CHAMPAGNE	278	n/a	n/a	0	0	0
2847327	REC_WORD	wordpools/wasnorm_wordpool_576.txt	LTP327	ltpFR2	14	13	BEAST	108	n/a	n/a	0	0	0
2880717	WORD	wordpools/wasnorm_wordpool_576.txt	LTP327	ltpFR2	14	14	SPHINX	1349	n/a	n/a	0	0	0
2883332	WORD	wordpools/wasnorm_wordpool_576.txt	LTP327	ltpFR2	14	14	BLENDER	136	n/a	n/a	0	0	0
2886082	WORD	wordpools/wasnorm_wordpool_576.txt	LTP327	ltpFR2	14	14	LAVA	804	n/a	n/a	0	0	0
2888680	WORD	wordpools/wasnorm_wordpool_576.txt	LTP327	ltpFR2	14	14	STONE	1385	n/a	n/a	0	0	0
2891412	WORD	wordpools/wasnorm_wordpool_576.txt	LTP327	ltpFR2	14	14	ROBOT	1200	n/a	n/a	0	0	0
2893877	WORD	wordpools/wasnorm_wordpool_576.txt	LTP327	ltpFR2	14	14	APPLE	33	n/a	n/a	0	0	0
2896476	WORD	wordpools/wasnorm_wordpool_576.txt	LTP327	ltpFR2	14	14	CANDY	230	n/a	n/a	0	0	0
2899324	WORD	wordpools/wasnorm_wordpool_576.txt	LTP327	ltpFR2	14	14	CYCLONE	431	n/a	n/a	0	0	0
2902041	WORD	wordpools/wasnorm_wordpool_576.txt	LTP327	ltpFR2	14	14	WORKER	1621	n/a	n/a	0	0	0
2904489	WORD	wordpools/wasnorm_wordpool_576.txt	LTP327	ltpFR2	14	14	PROTON	1132	n/a	n/a	0	0	0
2907055	WORD	wordpools/wasnorm_wordpool_576.txt	LTP327	ltpFR2	14	14	WITNESS	1618	n/a	n/a	0	0	0
2909686	WORD	wordpools/wasnorm_wordpool_576.txt	LTP327	ltpFR2	14	14	MATTRESS	879	n/a	n/a	0	0	0
2912151	WORD	wordpools/wasnorm_wordpool_576.txt	LTP327	ltpFR2	14	14	BOYFRIEND	162	n/a	n/a	0	0	0
2914833	WORD	wordpools/wasnorm_wordpool_576.txt	LTP327	ltpFR2	14	14	GANGSTER	620	n/a	n/a	0	0	0
2917349	WORD	wordpools/wasnorm_wordpool_576.txt	LTP327	ltpFR2	14	14	HONEY	713	n/a	n/a	0	0	0
2920164	WORD	wordpools/wasnorm_wordpool_576.txt	LTP327	ltpFR2	14	14	TUNNEL	1519	n/a	n/a	0	0	0
2922829	WORD	wordpools/wasnorm_wordpool_576.txt	LTP327	ltpFR2	14	14	SHARK	1275	n/a	n/a	0	0	0
2925645	WORD	wordpools/wasnorm_wordpool_576.txt	LTP327	ltpFR2	14	14	COD	340	n/a	n/a	0	0	0
2928110	WORD	wordpools/wasnorm_wordpool_576.txt	LTP327	ltpFR2	14	14	LAMP	798	n/a	n/a	0	0	0
2930792	WORD	wordpools/wasnorm_wordpool_576.txt	LTP327	ltpFR2	14	14	AUTHOR	61	n/a	n/a	0	0	0
2933624	WORD	wordpools/wasnorm_wordpool_576.txt	LTP327	ltpFR2	14	14	CRATER	400	n/a	n/a	0	0	0
2936074	WORD	wordpools/wasnorm_wordpool_576.txt	LTP327	ltpFR2	14	14	MACHINE	852	n/a	n/a	0	0	0
2938655	WORD	wordpools/wasnorm_wordpool_576.txt	LTP327	ltpFR2	14	14	CRAYON	401	n/a	n/a	0	0	0
2941270	WORD	wordpools/wasnorm_wordpool_576.txt	LTP327	ltpFR2	14	14	FLESH	579	n/a	n/a	0	0	0
2942886	START	n/a	LTP327	ltpFR2	14	n/a	n/a	n/a	21	n/a	n/a	n/a	n/a
2944029	DISTRACTOR	n/a	LTP327	ltpFR2	14	14	n/a	n/a	n/a	n/a	0	0	0
2944053	PROB	n/a	LTP327	ltpFR2	14	n/a	n/a	n/a	21	15	6	2	7
2945851	PROB	n/a	LTP327	ltpFR2	14	n/a	n/a	n/a	21	13	5	5	3
2946934	PROB	n/a	LTP327	ltpFR2	14	n/a	n/a	n/a	21	19	7	4	8
2948383	PROB	n/a	LTP327	ltpFR2	14	n/a	n/a	n/a	21	9	4	2	3
2949916	PROB	n/a	LTP327	ltpFR2	14	n/a	n/a	n/a	21	9	7	1	1
2951050	PROB	n/a	LTP327	ltpFR2	14	n/a	n/a	n/a	21	4	1	1	2
2952131	PROB	n/a	LTP327	ltpFR2	14	n/a	n/a	n/a	21	20	3	9	8
2953531	PROB	n/a	LTP327	ltpFR2	14	n/a	n/a	n/a	21	17	8	3	6
2956213	PROB	n/a	LTP327	ltpFR2	14	n/a	n/a	n/a	21	22	5	9	8
2958528	PROB	n/a	LTP327	ltpFR2	14	n/a	n/a	n/a	21	18	5	5	8
2959778	PROB	n/a	LTP327	ltpFR2	14	n/a	n/a	n/a	21	16	1	9	6
2961710	PROB	n/a	LTP327	ltpFR2	14	n/a	n/a	n/a	21	16	2	5	9
2963010	PROB	n/a	LTP327	ltpFR2	14	n/a	n/a	n/a	21	13	6	3	4
2964842	PROB	n/a	LTP327	ltpFR2	14	n/a	n/a	n/a	21	21	9	3	9
2966732	STOP	n/a	LTP327	ltpFR2	14	n/a	n/a	n/a	21	n/a	n/a	n/a	n/a
2968791	REC_START	n/a	LTP327	ltpFR2	14	14	n/a	n/a	n/a	n/a	0	0	0
2969143	REC_WORD	wordpools/wasnorm_wordpool_576.txt	LTP327	ltpFR2	14	14	MACHINE	852	n/a	n/a	0	0	0
2970136	REC_WORD	wordpools/wasnorm_wordpool_576.txt	LTP327	ltpFR2	14	14	CRATER	400	n/a	n/a	0	0	0
2970963	REC_WORD	wordpools/wasnorm_wordpool_576.txt	LTP327	ltpFR2	14	14	CRAYON	401	n/a	n/a	0	0	0
2971759	REC_WORD	wordpools/wasnorm_wordpool_576.txt	LTP327	ltpFR2	14	14	FLESH	579	n/a	n/a	0	0	0
2973635	REC_WORD	wordpools/wasnorm_wordpool_576.txt	LTP327	ltpFR2	14	14	AUTHOR	61	n/a	n/a	0	0	0
2975304	REC_WORD	wordpools/wasnorm_wordpool_576.txt	LTP327	ltpFR2	14	14	SHARK	1275	n/a	n/a	0	0	0
2976345	REC_WORD	wordpools/wasnorm_wordpool_576.txt	LTP327	ltpFR2	14	14	HONEY	713	n/a	n/a	0	0	0
2977658	REC_WORD	wordpools/wasnorm_wordpool_576.txt	LTP327	ltpFR2	14	14	MATTRESS	879	n/a	n/a	0	0	0
2978657	REC_WORD	wordpools/wasnorm_wordpool_576.txt	LTP327	ltpFR2	14	14	BOYFRIEND	162	n/a	n/a	0	0	0
2981250	REC_WORD	wordpools/wasnorm_wordpool_576.txt	LTP327	ltpFR2	14	14	TUNNEL	1519	n/a	n/a	0	0	0
2984050	REC_WORD	wordpools/wasnorm_wordpool_576.txt	LTP327	ltpFR2	14	14	COD	340	n/a	n/a	0	0	0
2988037	REC_WORD	wordpools/wasnorm_wordpool_576.txt	LTP327	ltpFR2	14	14	ROBOT	1200	n/a	n/a	0	0	0
2988875	REC_WORD	wordpools/wasnorm_wordpool_576.txt	LTP327	ltpFR2	14	14	APPLE	33	n/a	n/a	0	0	0
2989737	REC_WORD	wordpools/wasnorm_wordpool_576.txt	LTP327	ltpFR2	14	14	BLENDER	136	n/a	n/a	0	0	0
2990933	REC_WORD	wordpools/wasnorm_wordpool_576.txt	LTP327	ltpFR2	14	14	LAVA	804	n/a	n/a	0	0	0
2992513	REC_WORD	wordpools/wasnorm_wordpool_576.txt	LTP327	ltpFR2	14	14	CANDY	230	n/a	n/a	0	0	0
2993698	REC_WORD	wordpools/wasnorm_wordpool_576.txt	LTP327	ltpFR2	14	14	STONE	1385	n/a	n/a	0	0	0
3012116	REC_WORD	wordpools/wasnorm_wordpool_576.txt	LTP327	ltpFR2	14	14	PROTON	1132	n/a	n/a	0	0	0
3013467	REC_WORD	wordpools/wasnorm_wordpool_576.txt	LTP327	ltpFR2	14	14	WITNESS	1618	n/a	n/a	0	0	0
3059445	WORD	wordpools/wasnorm_wordpool_576.txt	LTP327	ltpFR2	14	15	BINDER	127	n/a	n/a	0	0	0
3062061	WORD	wordpools/wasnorm_wordpool_576.txt	LTP327	ltpFR2	14	15	OFFICE	972	n/a	n/a	0	0	0
3064809	WORD	wordpools/wasnorm_wordpool_576.txt	LTP327	ltpFR2	14	15	PICTURE	1061	n/a	n/a	0	0	0
3067624	WORD	wordpools/wasnorm_wordpool_576.txt	LTP327	ltpFR2	14	15	HEDGE	699	n/a	n/a	0	0	0
3070223	WORD	wordpools/wasnorm_wordpool_576.txt	LTP327	ltpFR2	14	15	DAUGHTER	442	n/a	n/a	0	0	0
3072871	WORD	wordpools/wasnorm_wordpool_576.txt	LTP327	ltpFR2	14	15	SUPPER	1411	n/a	n/a	0	0	0
3075687	WORD	wordpools/wasnorm_wordpool_576.txt	LTP327	ltpFR2	14	15	BARLEY	88	n/a	n/a	0	0	0
3078235	WORD	wordpools/wasnorm_wordpool_576.txt	LTP327	ltpFR2	14	15	PAPER	1011	n/a	n/a	0	0	0
3081068	WORD	wordpools/wasnorm_wordpool_576.txt	LTP327	ltpFR2	14	15	BRACES	164	n/a	n/a	0	0	0
3083699	WORD	wordpools/wasnorm_wordpool_576.txt	LTP327	ltpFR2	14	15	GIFT	635	n/a	n/a	0	0	0
3086281	WORD	wordpools/wasnorm_wordpool_576.txt	LTP327	ltpFR2	14	15	COOK	372	n/a	n/a	0	0	0
3089014	WORD	wordpools/wasnorm_wordpool_576.txt	LTP327	ltpFR2	14	15	TYPIST	1532	n/a	n/a	0	0	0
3091829	WORD	wordpools/wasnorm_wordpool_576.txt	LTP327	ltpFR2	14	15	PIMPLE	1071	n/a	n/a	0	0	0
3094277	WORD	wordpools/wasnorm_wordpool_576.txt	LTP327	ltpFR2	14	15	MAPLE	866	n/a	n/a	0	0	0
3096943	WORD	wordpools/wasnorm_wordpool_576.txt	LTP327	ltpFR2	14	15	SHORTS	1293	n/a	n/a	0	0	0
3099558	WORD	wordpools/wasnorm_wordpool_576.txt	LTP327	ltpFR2	14	15	SUITCASE	1403	n/a	n/a	0	0	0
3102174	WORD	wordpools/wasnorm_wordpool_576.txt	LTP327	ltpFR2	14	15	SODA	1341	n/a	n/a	0	0	0
3104622	WORD	wordpools/wasnorm_wordpool_576.txt	LTP327	ltpFR2	14	15	OX	994	n/a	n/a	0	0	0
3107321	WORD	wordpools/wasnorm_wordpool_576.txt	LTP327	ltpFR2	14	15	MAMMAL	861	n/a	n/a	0	0	0
3109836	WORD	wordpools/wasnorm_wordpool_576.txt	LTP327	ltpFR2	14	15	QUARTER	1148	n/a	n/a	0	0	0
3112352	WORD	wordpools/wasnorm_wordpool_576.txt	LTP327	ltpFR2	14	15	MOTOR	922	n/a	n/a	0	0	0
3114952	WORD	wordpools/wasnorm_wordpool_576.txt	LTP327	ltpFR2	14	15	POISON	1096	n/a	n/a	0	0	0
3117583	WORD	wordpools/wasnorm_wordpool_576.txt	LTP327	ltpFR2	14	15	COBRA	336	n/a	n/a	0	0	0
3120381	WORD	wordpools/wasnorm_wordpool_576.txt	LTP327	ltpFR2	14	15	PRIMATE	1123	n/a	n/a	0	0	0
3121998	START	n/a	LTP327	ltpFR2	14	n/a	n/a	n/a	22	n/a	n/a	n/a	n/a
3122858	DISTRACTOR	n/a	LTP327	ltpFR2	14	15	n/a	n/a	n/a	n/a	0	0	0
3122880	PROB	n/a	LTP327	ltpFR2	14	n/a	n/a	n/a	22	6	3	1	2
3124229	PROB	n/a	LTP327	ltpFR2	14	n/a	n/a	n/a	22	14	5	8	1
3125445	PROB	n/a	LTP327	ltpFR2	14	n/a	n/a	n/a	22	8	2	4	2
3126945	PROB	n/a	LTP327	ltpFR2	14	n/a	n/a	n/a	22	11	1	4	6
3128227	PROB	n/a	LTP327	ltpFR2	14	n/a	n/a	n/a	22	13	7	5	1
3129427	PROB	n/a	LTP327	ltpFR2	14	n/a	n/a	n/a	22	19	5	7	7
3130859	PROB	n/a	LTP327	ltpFR2	14	n/a	n/a	n/a	22	5	1	2	2
3132026	PROB	n/a	LTP327	ltpFR2	14	n/a	n/a	n/a	22	10	3	3	4
3133375	PROB	n/a	LTP327	ltpFR2	14	n/a	n/a	n/a	22	13	4	1	8
3134607	PROB	n/a	LTP327	ltpFR2	14	n/a	n/a	n/a	22	17	3	7	7
3135974	PROB	n/a	LTP327	ltpFR2	14	n/a	n/a	n/a	22	15	1	9	5
3137123	PROB	n/a	LTP327	ltpFR2	14	n/a	n/a	n/a	22	23	9	9	5
3138489	PROB	n/a	LTP327	ltpFR2	14	n/a	n/a	n/a	22	17	8	4	5
3140588	PROB	n/a	LTP327	ltpFR2	14	n/a	n/a	n/a	22	18	7	5	6
3142005	PROB	n/a	LTP327	ltpFR2	14	n/a	n/a	n/a	22	15	2	8	5
3143270	PROB	n/a	LTP327	ltpFR2	14	n/a	n/a	n/a	22	20	6	7	7
3144932	STOP	n/a	LTP327	ltpFR2	14	n/a	n/a	n/a	22	n/a	n/a	n/a	n/a
3147868	REC_START	n/a	LTP327	ltpFR2	14	15	n/a	n/a	n/a	n/a	0	0	0
3148565	REC_WORD	wordpools/wasnorm_wordpool_576.txt	LTP327	ltpFR2	14	15	POISON	1096	n/a	n/a	0	0	0
3149493	REC_WORD	wordpools/wasnorm_wordpool_576.txt	LTP327	ltpFR2	14	15	COBRA	336	n/a	n/a	0	0	0
3150293	REC_WORD	wordpools/wasnorm_wordpool_576.txt	LTP327	ltpFR2	14	15	OX	994	n/a	n/a	0	0	0
3151051	REC_WORD	wordpools/wasnorm_wordpool_576.txt	LTP327	ltpFR2	14	15	ANIMAL	23	n/a	n/a	0	0	0
3157313	REC_WORD	wordpools/wasnorm_wordpool_576.txt	LTP327	ltpFR2	14	15	PRIMATE	1123	n/a	n/a	0	0	0
3158365	REC_WORD	wordpools/wasnorm_wordpool_576.txt	LTP327	ltpFR2	14	15	TYPIST	1532	n/a	n/a	0	0	0
3159246	REC_WORD	wordpools/wasnorm_wordpool_576.txt	LTP327	ltpFR2	14	15	MAPLE	866	n/a	n/a	0	0	0
3160024	REC_WORD	wordpools/wasnorm_wordpool_576.txt	LTP327	ltpFR2	14	15	PIMPLE	1071	n/a	n/a	0	0	0
3162185	REC_WORD	wordpools/wasnorm_wordpool_576.txt	LTP327	ltpFR2	14	15	BINDER	127	n/a	n/a	0	0	0
3163000	REC_WORD	wordpools/wasnorm_wordpool_576.txt	LTP327	ltpFR2	14	15	OFFICE	972	n/a	n/a	0	0	0
3164335	REC_WORD	wordpools/wasnorm_wordpool_576.txt	LTP327	ltpFR2	14	15	PICTURE	1061	n/a	n/a	0	0	0
3165372	REC_WORD	wordpools/wasnorm_wordpool_576.txt	LTP327	ltpFR2	14	15	HEDGE	699	n/a	n/a	0	0	0
3166271	REC_WORD	wordpools/wasnorm_wordpool_576.txt	LTP327	ltpFR2	14	15	BARLEY	88	n/a	n/a	0	0	0
3166941	REC_WORD	wordpools/wasnorm_wordpool_576.txt	LTP327	ltpFR2	14	15	SUPPER	1411	n/a	n/a	0	0	0
3167813	REC_WORD	wordpools/wasnorm_wordpool_576.txt	LTP327	ltpFR2	14	15	PAPER	1011	n/a	n/a	0	0	0
3171682	REC_WORD	wordpools/wasnorm_wordpool_576.txt	LTP327	ltpFR2	14	15	DAUGHTER	442	n/a	n/a	0	0	0
3189823	REC_WORD	wordpools/wasnorm_wordpool_576.txt	LTP327	ltpFR2	14	15	BRACES	164	n/a	n/a	0	0	0
3190941	REC_WORD	wordpools/wasnorm_wordpool_576.txt	LTP327	ltpFR2	14	15	SHORTS	1293	n/a	n/a	0	0	0
3238522	DISTRACTOR	n/a	LTP327	ltpFR2	14	16	n/a	n/a	n/a	n/a	0	0	0
3238523	START	n/a	LTP327	ltpFR2	14	n/a	n/a	n/a	23	n/a	n/a	n/a	n/a
3238556	PROB	n/a	LTP327	ltpFR2	14	n/a	n/a	n/a	23	14	7	6	1
3239922	PROB	n/a	LTP327	ltpFR2	14	n/a	n/a	n/a	23	20	7	7	6
3241354	PROB	n/a	LTP327	ltpFR2	14	n/a	n/a	n/a	23	18	2	7	9
3242870	PROB	n/a	LTP327	ltpFR2	14	n/a	n/a	n/a	23	14	3	8	3
3244253	PROB	n/a	LTP327	ltpFR2	14	n/a	n/a	n/a	23	19	8	3	8
3245719	PROB	n/a	LTP327	ltpFR2	14	n/a	n/a	n/a	23	23	8	9	5
3247268	PROB	n/a	LTP327	ltpFR2	14	n/a	n/a	n/a	23	20	4	7	9
3248667	PROB	n/a	LTP327	ltpFR2	14	n/a	n/a	n/a	23	13	3	5	5
3249850	PROB	n/a	LTP327	ltpFR2	14	n/a	n/a	n/a	23	19	9	2	8
3251250	PROB	n/a	LTP327	ltpFR2	14	n/a	n/a	n/a	23	22	5	9	8
3253016	PROB	n/a	LTP327	ltpFR2	14	n/a	n/a	n/a	23	15	8	5	2
3254315	PROB	n/a	LTP327	ltpFR2	14	n/a	n/a	n/a	23	9	5	1	3
3256697	PROB	n/a	LTP327	ltpFR2	14	n/a	n/a	n/a	23	16	1	7	8
3257980	PROB	n/a	LTP327	ltpFR2	14	n/a	n/a	n/a	23	21	9	4	8
3259545	PROB	n/a	LTP327	ltpFR2	14	n/a	n/a	n/a	23	11	2	3	6
3262523	STOP	n/a	LTP327	ltpFR2	14	n/a	n/a	n/a	23	n/a	n/a	n/a	n/a
3263443	WORD	wordpools/wasnorm_wordpool_576.txt	LTP327	ltpFR2	14	16	PORK	1108	n/a	n/a	0	0	0
3266026	WORD	wordpools/wasnorm_wordpool_576.txt	LTP327	ltpFR2	14	16	PEPPER	1047	n/a	n/a	0	0	0
3268641	WORD	wordpools/wasnorm_wordpool_576.txt	LTP327	ltpFR2	14	16	ONION	977	n/a	n/a	0	0	0
3271473	WORD	wordpools/wasnorm_wordpool_576.txt	LTP327	ltpFR2	14	16	KETCHUP	771	n/a	n/a	0	0	0
3274171	WORD	wordpools/wasnorm_wordpool_576.txt	LTP327	ltpFR2	14	16	SHOVEL	1295	n/a	n/a	0	0	0
3276870	WORD	wordpools/wasnorm_wordpool_576.txt	LTP327	ltpFR2	14	16	COLONEL	348	n/a	n/a	0	0	0
3279635	WORD	wordpools/wasnorm_wordpool_576.txt	LTP327	ltpFR2	14	16	TRACTOR	1493	n/a	n/a	0	0	0
3282317	WORD	wordpools/wasnorm_wordpool_576.txt	LTP327	ltpFR2	14	16	DENTIST	447	n/a	n/a	0	0	0
3285084	WORD	wordpools/wasnorm_wordpool_576.txt	LTP327	ltpFR2	14	16	NOVEL	960	n/a	n/a	0	0	0
3287831	WORD	wordpools/wasnorm_wordpool_576.txt	LTP327	ltpFR2	14	16	SHELF	1280	n/a	n/a	0	0	0
3290413	WORD	wordpools/wasnorm_wordpool_576.txt	LTP327	ltpFR2	14	16	FLEET	578	n/a	n/a	0	0	0
3293129	WORD	wordpools/wasnorm_wordpool_576.txt	LTP327	ltpFR2	14	16	JAPAN	749	n/a	n/a	0	0	0
3295944	WORD	wordpools/wasnorm_wordpool_576.txt	LTP327	ltpFR2	14	16	EUROPE	541	n/a	n/a	0	0	0
3298426	WORD	wordpools/wasnorm_wordpool_576.txt	LTP327	ltpFR2	14	16	LIGHTNING	820	n/a	n/a	0	0	0
3301125	WORD	wordpools/wasnorm_wordpool_576.txt	LTP327	ltpFR2	14	16	JELLO	754	n/a	n/a	0	0	0
3303657	WORD	wordpools/wasnorm_wordpool_576.txt	LTP327	ltpFR2	14	16	THIEF	1456	n/a	n/a	0	0	0
3306122	WORD	wordpools/wasnorm_wordpool_576.txt	LTP327	ltpFR2	14	16	IDOL	733	n/a	n/a	0	0	0
3308604	WORD	wordpools/wasnorm_wordpool_576.txt	LTP327	ltpFR2	14	16	BASEMENT	94	n/a	n/a	0	0	0
3311087	WORD	wordpools/wasnorm_wordpool_576.txt	LTP327	ltpFR2	14	16	LIVER	833	n/a	n/a	0	0	0
3313652	WORD	wordpools/wasnorm_wordpool_576.txt	LTP327	ltpFR2	14	16	PIGEON	1065	n/a	n/a	0	0	0
3316367	WORD	wordpools/wasnorm_wordpool_576.txt	LTP327	ltpFR2	14	16	CLOUD	328	n/a	n/a	0	0	0
3319132	WORD	wordpools/wasnorm_wordpool_576.txt	LTP327	ltpFR2	14	16	EAGLE	512	n/a	n/a	0	0	0
3321648	WORD	wordpools/wasnorm_wordpool_576.txt	LTP327	ltpFR2	14	16	CHURCH	307	n/a	n/a	0	0	0
3324396	WORD	wordpools/wasnorm_wordpool_576.txt	LTP327	ltpFR2	14	16	COFFEE	341	n/a	n/a	0	0	0
3326013	START	n/a	LTP327	ltpFR2	14	n/a	n/a	n/a	24	n/a	n/a	n/a	n/a
3326847	DISTRACTOR	n/a	LTP327	ltpFR2	14	16	n/a	n/a	n/a	n/a	0	0	0
3326862	PROB	n/a	LTP327	ltpFR2	14	n/a	n/a	n/a	24	16	4	6	6
3328178	PROB	n/a	LTP327	ltpFR2	14	n/a	n/a	n/a	24	17	5	9	3
3329860	PROB	n/a	LTP327	ltpFR2	14	n/a	n/a	n/a	24	20	8	9	3
3331343	PROB	n/a	LTP327	ltpFR2	14	n/a	n/a	n/a	24	15	4	4	7
3332759	PROB	n/a	LTP327	ltpFR2	14	n/a	n/a	n/a	24	21	6	6	9
3334375	PROB	n/a	LTP327	ltpFR2	14	n/a	n/a	n/a	24	6	2	2	2
3335458	PROB	n/a	LTP327	ltpFR2	14	n/a	n/a	n/a	24	22	8	5	9
3337058	PROB	n/a	LTP327	ltpFR2	14	n/a	n/a	n/a	24	20	9	8	3
3338389	PROB	n/a	LTP327	ltpFR2	14	n/a	n/a	n/a	24	8	1	2	5
3339572	PROB	n/a	LTP327	ltpFR2	14	n/a	n/a	n/a	24	12	4	5	3
3340922	PROB	n/a	LTP327	ltpFR2	14	n/a	n/a	n/a	24	20	9	7	4
3342787	PROB	n/a	LTP327	ltpFR2	14	n/a	n/a	n/a	24	9	7	1	1
3343887	PROB	n/a	LTP327	ltpFR2	14	n/a	n/a	n/a	24	13	1	9	3
3345070	PROB	n/a	LTP327	ltpFR2	14	n/a	n/a	n/a	24	12	5	3	4
3346452	PROB	n/a	LTP327	ltpFR2	14	n/a	n/a	n/a	24	7	1	5	1
3347668	PROB	n/a	LTP327	ltpFR2	14	n/a	n/a	n/a	24	10	7	2	1
3349196	STOP	n/a	LTP327	ltpFR2	14	n/a	n/a	n/a	24	n/a	n/a	n/a	n/a
3351968	REC_START	n/a	LTP327	ltpFR2	14	16	n/a	n/a	n/a	n/a	0	0	0
3353236	REC_WORD	wordpools/wasnorm_wordpool_576.txt	LTP327	ltpFR2	14	16	COLONEL	348	n/a	n/a	0	0	0
3356408	REC_WORD	wordpools/wasnorm_wordpool_576.txt	LTP327	ltpFR2	14	16	PORK	1108	n/a	n/a	0	0	0
3357414	REC_WORD	wordpools/wasnorm_wordpool_576.txt	LTP327	ltpFR2	14	16	ONION	977	n/a	n/a	0	0	0
3358096	REC_WORD	wordpools/wasnorm_wordpool_576.txt	LTP327	ltpFR2	14	16	PEPPER	1047	n/a	n/a	0	0	0
3358690	REC_WORD	wordpools/wasnorm_wordpool_576.txt	LTP327	ltpFR2	14	16	KETCHUP	771	n/a	n/a	0	0	0
3360248	REC_WORD	wordpools/wasnorm_wordpool_576.txt	LTP327	ltpFR2	14	16	DENTIST	447	n/a	n/a	0	0	0
3361082	REC_WORD	wordpools/wasnorm_wordpool_576.txt	LTP327	ltpFR2	14	16	NOVEL	960	n/a	n/a	0	0	0
3361800	REC_WORD	wordpools/wasnorm_wordpool_576.txt	LTP327	ltpFR2	14	16	SHELF	1280	n/a	n/a	0	0	0
3366636	REC_WORD	wordpools/wasnorm_wordpool_576.txt	LTP327	ltpFR2	14	16	TRACTOR	1493	n/a	n/a	0	0	0
3369417	REC_WORD	wordpools/wasnorm_wordpool_576.txt	LTP327	ltpFR2	14	16	JAPAN	749	n/a	n/a	0	0	0
3370421	REC_WORD	wordpools/wasnorm_wordpool_576.txt	LTP327	ltpFR2	14	16	FLEET	578	n/a	n/a	0	0	0
3371190	REC_WORD	wordpools/wasnorm_wordpool_576.txt	LTP327	ltpFR2	14	16	LIGHTNING	820	n/a	n/a	0	0	0
3371946	REC_WORD	wordpools/wasnorm_wordpool_576.txt	LTP327	ltpFR2	14	16	EUROPE	541	n/a	n/a	0	0	0
3375737	REC_WORD	wordpools/wasnorm_wordpool_576.txt	LTP327	ltpFR2	14	16	JELLO	754	n/a	n/a	0	0	0
3377815	REC_WORD	wordpools/wasnorm_wordpool_576.txt	LTP327	ltpFR2	14	16	BASEMENT	94	n/a	n/a	0	0	0
3382961	REC_WORD	wordpools/wasnorm_wordpool_576.txt	LTP327	ltpFR2	14	16	EAGLE	512	n/a	n/a	0	0	0
3383749	REC_WORD	wordpools/wasnorm_wordpool_576.txt	LTP327	ltpFR2	14	16	CHURCH	307	n/a	n/a	0	0	0
3384538	REC_WORD	wordpools/wasnorm_wordpool_576.txt	LTP327	ltpFR2	14	16	COFFEE	341	n/a	n/a	0	0	0
3387345	REC_WORD	wordpools/wasnorm_wordpool_576.txt	LTP327	ltpFR2	14	16	CLOUD	328	n/a	n/a	0	0	0
3428511	REST_REWET	n/a	LTP327	ltpFR2	14	16	n/a	n/a	n/a	n/a	0	0	0
3663079	WORD	wordpools/wasnorm_wordpool_576.txt	LTP327	ltpFR2	14	17	SKILLET	1317	n/a	n/a	0	0	0
3665543	WORD	wordpools/wasnorm_wordpool_576.txt	LTP327	ltpFR2	14	17	MISSILE	900	n/a	n/a	0	0	0
3668175	WORD	wordpools/wasnorm_wordpool_576.txt	LTP327	ltpFR2	14	17	ITEM	746	n/a	n/a	0	0	0
3670774	WORD	wordpools/wasnorm_wordpool_576.txt	LTP327	ltpFR2	14	17	HAMPER	682	n/a	n/a	0	0	0
3673490	WORD	wordpools/wasnorm_wordpool_576.txt	LTP327	ltpFR2	14	17	DRILL	497	n/a	n/a	0	0	0
3675973	WORD	wordpools/wasnorm_wordpool_576.txt	LTP327	ltpFR2	14	17	PECAN	1036	n/a	n/a	0	0	0
3678520	WORD	wordpools/wasnorm_wordpool_576.txt	LTP327	ltpFR2	14	17	FRIEND	606	n/a	n/a	0	0	0
3681236	WORD	wordpools/wasnorm_wordpool_576.txt	LTP327	ltpFR2	14	17	TEACHER	1440	n/a	n/a	0	0	0
3683701	WORD	wordpools/wasnorm_wordpool_576.txt	LTP327	ltpFR2	14	17	KIDNEY	776	n/a	n/a	0	0	0
3686566	WORD	wordpools/wasnorm_wordpool_576.txt	LTP327	ltpFR2	14	17	BUCKET	184	n/a	n/a	0	0	0
3689348	WORD	wordpools/wasnorm_wordpool_576.txt	LTP327	ltpFR2	14	17	BUTCHER	203	n/a	n/a	0	0	0
3692164	WORD	wordpools/wasnorm_wordpool_576.txt	LTP327	ltpFR2	14	17	MEAT	883	n/a	n/a	0	0	0
3694796	WORD	wordpools/wasnorm_wordpool_576.txt	LTP327	ltpFR2	14	17	LAKE	796	n/a	n/a	0	0	0
3697294	WORD	wordpools/wasnorm_wordpool_576.txt	LTP327	ltpFR2	14	17	CASHEW	253	n/a	n/a	0	0	0
3699843	WORD	wordpools/wasnorm_wordpool_576.txt	LTP327	ltpFR2	14	17	CHILD	299	n/a	n/a	0	0	0
3702375	WORD	wordpools/wasnorm_wordpool_576.txt	LTP327	ltpFR2	14	17	NECKLACE	940	n/a	n/a	0	0	0
3705174	WORD	wordpools/wasnorm_wordpool_576.txt	LTP327	ltpFR2	14	17	GRAVE	658	n/a	n/a	0	0	0
3707739	WORD	wordpools/wasnorm_wordpool_576.txt	LTP327	ltpFR2	14	17	WIDOW	1608	n/a	n/a	0	0	0
3710505	WORD	wordpools/wasnorm_wordpool_576.txt	LTP327	ltpFR2	14	17	MARKET	871	n/a	n/a	0	0	0
3713270	WORD	wordpools/wasnorm_wordpool_576.txt	LTP327	ltpFR2	14	17	PLAID	1080	n/a	n/a	0	0	0
3715718	WORD	wordpools/wasnorm_wordpool_576.txt	LTP327	ltpFR2	14	17	GHETTO	633	n/a	n/a	0	0	0
3718334	WORD	wordpools/wasnorm_wordpool_576.txt	LTP327	ltpFR2	14	17	BABY	64	n/a	n/a	0	0	0
3720967	WORD	wordpools/wasnorm_wordpool_576.txt	LTP327	ltpFR2	14	17	SISTER	1312	n/a	n/a	0	0	0
3723581	WORD	wordpools/wasnorm_wordpool_576.txt	LTP327	ltpFR2	14	17	LUMBER	848	n/a	n/a	0	0	0
3725197	START	n/a	LTP327	ltpFR2	14	n/a	n/a	n/a	25	n/a	n/a	n/a	n/a
3726094	DISTRACTOR	n/a	LTP327	ltpFR2	14	17	n/a	n/a	n/a	n/a	0	0	0
3726113	PROB	n/a	LTP327	ltpFR2	14	n/a	n/a	n/a	25	11	2	7	2
3727863	PROB	n/a	LTP327	ltpFR2	14	n/a	n/a	n/a	25	19	9	5	5
3729395	PROB	n/a	LTP327	ltpFR2	14	n/a	n/a	n/a	25	9	3	1	5
3730811	PROB	n/a	LTP327	ltpFR2	14	n/a	n/a	n/a	25	18	7	6	5
3733110	PROB	n/a	LTP327	ltpFR2	14	n/a	n/a	n/a	25	14	2	3	9
3734443	PROB	n/a	LTP327	ltpFR2	14	n/a	n/a	n/a	25	19	9	1	9
3736059	PROB	n/a	LTP327	ltpFR2	14	n/a	n/a	n/a	25	14	7	4	3
3737524	PROB	n/a	LTP327	ltpFR2	14	n/a	n/a	n/a	25	8	4	1	3
3739240	PROB	n/a	LTP327	ltpFR2	14	n/a	n/a	n/a	25	8	4	2	2
3740690	PROB	n/a	LTP327	ltpFR2	14	n/a	n/a	n/a	25	10	1	3	6
3742023	PROB	n/a	LTP327	ltpFR2	14	n/a	n/a	n/a	25	10	3	2	5
3743655	PROB	n/a	LTP327	ltpFR2	14	n/a	n/a	n/a	25	12	3	5	4
3745570	PROB	n/a	LTP327	ltpFR2	14	n/a	n/a	n/a	25	17	6	3	8
3747170	PROB	n/a	LTP327	ltpFR2	14	n/a	n/a	n/a	25	18	5	5	8
3748316	STOP	n/a	LTP327	ltpFR2	14	n/a	n/a	n/a	25	n/a	n/a	n/a	n/a
3751069	REC_START	n/a	LTP327	ltpFR2	14	17	n/a	n/a	n/a	n/a	0	0	0
3751227	REC_WORD	wordpools/wasnorm_wordpool_576.txt	LTP327	ltpFR2	14	17	LUMBER	848	n/a	n/a	0	0	0
3752138	REC_WORD	wordpools/wasnorm_wordpool_576.txt	LTP327	ltpFR2	14	17	GHETTO	633	n/a	n/a	0	0	0
3752887	REC_WORD	wordpools/wasnorm_wordpool_576.txt	LTP327	ltpFR2	14	17	BABY	64	n/a	n/a	0	0	0
3753519	REC_WORD	wordpools/wasnorm_wordpool_576.txt	LTP327	ltpFR2	14	17	SISTER	1312	n/a	n/a	0	0	0
3754315	REC_WORD	wordpools/wasnorm_wordpool_576.txt	LTP327	ltpFR2	14	17	MARKET	871	n/a	n/a	0	0	0
3755198	REC_WORD	wordpools/wasnorm_wordpool_576.txt	LTP327	ltpFR2	14	17	PLAID	1080	n/a	n/a	0	0	0
3757169	REC_WORD	wordpools/wasnorm_wordpool_576.txt	LTP327	ltpFR2	14	17	MISSILE	900	n/a	n/a	0	0	0
3758005	REC_WORD	wordpools/wasnorm_wordpool_576.txt	LTP327	ltpFR2	14	17	ITEM	746	n/a	n/a	0	0	0
3758552	REC_WORD	wordpools/wasnorm_wordpool_576.txt	LTP327	ltpFR2	14	17	SKILLET	1317	n/a	n/a	0	0	0
3759697	REC_WORD	wordpools/wasnorm_wordpool_576.txt	LTP327	ltpFR2	14	17	DRILL	497	n/a	n/a	0	0	0
3760497	REC_WORD	wordpools/wasnorm_wordpool_576.txt	LTP327	ltpFR2	14	17	HAMPER	682	n/a	n/a	0	0	0
3762623	REC_WORD	wordpools/wasnorm_wordpool_576.txt	LTP327	ltpFR2	14	17	CASHEW	253	n/a	n/a	0	0	0
3763622	REC_WORD	wordpools/wasnorm_wordpool_576.txt	LTP327	ltpFR2	14	17	NECKLACE	940	n/a	n/a	0	0	0
3764642	REC_WORD	wordpools/wasnorm_wordpool_576.txt	LTP327	ltpFR2	14	17	CHILD	299	n/a	n/a	0	0	0
3766339	REC_WORD	wordpools/wasnorm_wordpool_576.txt	LTP327	ltpFR2	14	17	GRAVE	658	n/a	n/a	0	0	0
3767418	REC_WORD	wordpools/wasnorm_wordpool_576.txt	LTP327	ltpFR2	14	17	LAKE	796	n/a	n/a	0	0	0
3771207	REC_WORD	wordpools/wasnorm_wordpool_576.txt	LTP327	ltpFR2	14	17	WIDOW	1608	n/a	n/a	0	0	0
3773943	REC_WORD	wordpools/wasnorm_wordpool_576.txt	LTP327	ltpFR2	14	17	PECAN	1036	n/a	n/a	0	0	0
3778034	REC_WORD	wordpools/wasnorm_wordpool_576.txt	LTP327	ltpFR2	14	17	TEACHER	1440	n/a	n/a	0	0	0
3778774	REC_WORD	wordpools/wasnorm_wordpool_576.txt	LTP327	ltpFR2	14	17	FRIEND	606	n/a	n/a	0	0	0
3780375	REC_WORD	wordpools/wasnorm_wordpool_576.txt	LTP327	ltpFR2	14	17	BUTCHER	203	n/a	n/a	0	0	0
3782409	REC_WORD	wordpools/wasnorm_wordpool_576.txt	LTP327	ltpFR2	14	17	BUCKET	184	n/a	n/a	0	0	0
