mstime	trial_type	stim_file	subject	experiment	session	trial	item_name	item_num	list	answer	test_x	test_y	test_z
0	SESS_START	n/a	LTP260	ltpFR2	18	n/a	n/a	n/a	n/a	n/a	0	0	0
20485	START	n/a	LTP260	ltpFR2	18	n/a	n/a	n/a	-1	n/a	n/a	n/a	n/a
20535	PROB	n/a	LTP260	ltpFR2	18	n/a	n/a	n/a	-1	13	2	2	9
22360	PROB	n/a	LTP260	ltpFR2	18	n/a	n/a	n/a	-1	19	8	3	8
23898	PROB	n/a	LTP260	ltpFR2	18	n/a	n/a	n/a	-1	16	1	8	7
25304	PROB	n/a	LTP260	ltpFR2	18	n/a	n/a	n/a	-1	10	2	5	3
26892	PROB	n/a	LTP260	ltpFR2	18	n/a	n/a	n/a	-1	9	6	1	2
28148	PROB	n/a	LTP260	ltpFR2	18	n/a	n/a	n/a	-1	13	5	1	7
29686	PROB	n/a	LTP260	ltpFR2	18	n/a	n/a	n/a	-1	21	5	8	8
31029	STOP	n/a	LTP260	ltpFR2	18	n/a	n/a	n/a	-1	n/a	n/a	n/a	n/a
108835	DISTRACTOR	n/a	LTP260	ltpFR2	18	1	n/a	n/a	n/a	n/a	0	0	0
108835	START	n/a	LTP260	ltpFR2	18	n/a	n/a	n/a	1	n/a	n/a	n/a	n/a
108885	PROB	n/a	LTP260	ltpFR2	18	n/a	n/a	n/a	1	23	8	6	9
110842	PROB	n/a	LTP260	ltpFR2	18	n/a	n/a	n/a	1	15	4	6	5
112549	PROB	n/a	LTP260	ltpFR2	18	n/a	n/a	n/a	1	13	1	3	9
113753	PROB	n/a	LTP260	ltpFR2	18	n/a	n/a	n/a	1	23	9	5	9
115410	PROB	n/a	LTP260	ltpFR2	18	n/a	n/a	n/a	1	15	9	2	4
116798	PROB	n/a	LTP260	ltpFR2	18	n/a	n/a	n/a	1	20	9	4	7
118488	PROB	n/a	LTP260	ltpFR2	18	n/a	n/a	n/a	1	6	1	2	3
119542	PROB	n/a	LTP260	ltpFR2	18	n/a	n/a	n/a	1	15	6	1	8
121216	PROB	n/a	LTP260	ltpFR2	18	n/a	n/a	n/a	1	12	8	3	1
122436	PROB	n/a	LTP260	ltpFR2	18	n/a	n/a	n/a	1	18	7	7	4
123724	PROB	n/a	LTP260	ltpFR2	18	n/a	n/a	n/a	1	13	1	5	7
124974	PROB	n/a	LTP260	ltpFR2	18	n/a	n/a	n/a	1	14	4	2	8
127083	PROB	n/a	LTP260	ltpFR2	18	n/a	n/a	n/a	1	12	2	7	3
128204	PROB	n/a	LTP260	ltpFR2	18	n/a	n/a	n/a	1	20	9	4	7
129763	PROB	n/a	LTP260	ltpFR2	18	n/a	n/a	n/a	1	14	4	4	6
131332	PROB	n/a	LTP260	ltpFR2	18	n/a	n/a	n/a	1	16	6	2	8
132652	STOP	n/a	LTP260	ltpFR2	18	n/a	n/a	n/a	1	n/a	n/a	n/a	n/a
134031	WORD	wordpools/wasnorm_wordpool_576.txt	LTP260	ltpFR2	18	1	QUAIL	1147	n/a	n/a	0	0	0
136823	WORD	wordpools/wasnorm_wordpool_576.txt	LTP260	ltpFR2	18	1	SIDEWALK	1303	n/a	n/a	0	0	0
139550	WORD	wordpools/wasnorm_wordpool_576.txt	LTP260	ltpFR2	18	1	DIME	466	n/a	n/a	0	0	0
142195	WORD	wordpools/wasnorm_wordpool_576.txt	LTP260	ltpFR2	18	1	BASEMENT	94	n/a	n/a	0	0	0
144698	WORD	wordpools/wasnorm_wordpool_576.txt	LTP260	ltpFR2	18	1	LOFT	840	n/a	n/a	0	0	0
147343	WORD	wordpools/wasnorm_wordpool_576.txt	LTP260	ltpFR2	18	1	COLONEL	348	n/a	n/a	0	0	0
150125	WORD	wordpools/wasnorm_wordpool_576.txt	LTP260	ltpFR2	18	1	DRAGON	492	n/a	n/a	0	0	0
152879	WORD	wordpools/wasnorm_wordpool_576.txt	LTP260	ltpFR2	18	1	VIKING	1565	n/a	n/a	0	0	0
155594	WORD	wordpools/wasnorm_wordpool_576.txt	LTP260	ltpFR2	18	1	YACHT	1629	n/a	n/a	0	0	0
158372	WORD	wordpools/wasnorm_wordpool_576.txt	LTP260	ltpFR2	18	1	SIBLING	1301	n/a	n/a	0	0	0
161082	WORD	wordpools/wasnorm_wordpool_576.txt	LTP260	ltpFR2	18	1	SPARROW	1347	n/a	n/a	0	0	0
163758	WORD	wordpools/wasnorm_wordpool_576.txt	LTP260	ltpFR2	18	1	SCALLOP	1242	n/a	n/a	0	0	0
166336	WORD	wordpools/wasnorm_wordpool_576.txt	LTP260	ltpFR2	18	1	CROSS	413	n/a	n/a	0	0	0
169142	WORD	wordpools/wasnorm_wordpool_576.txt	LTP260	ltpFR2	18	1	DAUGHTER	442	n/a	n/a	0	0	0
171884	WORD	wordpools/wasnorm_wordpool_576.txt	LTP260	ltpFR2	18	1	CRITIC	410	n/a	n/a	0	0	0
174465	WORD	wordpools/wasnorm_wordpool_576.txt	LTP260	ltpFR2	18	1	LUMBER	848	n/a	n/a	0	0	0
177009	WORD	wordpools/wasnorm_wordpool_576.txt	LTP260	ltpFR2	18	1	BRANCH	168	n/a	n/a	0	0	0
179534	WORD	wordpools/wasnorm_wordpool_576.txt	LTP260	ltpFR2	18	1	IGLOO	734	n/a	n/a	0	0	0
181960	WORD	wordpools/wasnorm_wordpool_576.txt	LTP260	ltpFR2	18	1	SNACK	1331	n/a	n/a	0	0	0
184482	WORD	wordpools/wasnorm_wordpool_576.txt	LTP260	ltpFR2	18	1	MESSAGE	888	n/a	n/a	0	0	0
186996	WORD	wordpools/wasnorm_wordpool_576.txt	LTP260	ltpFR2	18	1	COFFEE	341	n/a	n/a	0	0	0
189505	WORD	wordpools/wasnorm_wordpool_576.txt	LTP260	ltpFR2	18	1	BACKBONE	66	n/a	n/a	0	0	0
192300	WORD	wordpools/wasnorm_wordpool_576.txt	LTP260	ltpFR2	18	1	SUNRISE	1407	n/a	n/a	0	0	0
195061	WORD	wordpools/wasnorm_wordpool_576.txt	LTP260	ltpFR2	18	1	COD	340	n/a	n/a	0	0	0
196678	START	n/a	LTP260	ltpFR2	18	n/a	n/a	n/a	2	n/a	n/a	n/a	n/a
197770	DISTRACTOR	n/a	LTP260	ltpFR2	18	1	n/a	n/a	n/a	n/a	0	0	0
197787	PROB	n/a	LTP260	ltpFR2	18	n/a	n/a	n/a	2	11	4	6	1
198919	PROB	n/a	LTP260	ltpFR2	18	n/a	n/a	n/a	2	15	3	4	8
201045	PROB	n/a	LTP260	ltpFR2	18	n/a	n/a	n/a	2	14	7	5	2
202533	PROB	n/a	LTP260	ltpFR2	18	n/a	n/a	n/a	2	21	9	7	5
204591	PROB	n/a	LTP260	ltpFR2	18	n/a	n/a	n/a	2	13	7	2	4
206131	PROB	n/a	LTP260	ltpFR2	18	n/a	n/a	n/a	2	14	5	8	1
208122	PROB	n/a	LTP260	ltpFR2	18	n/a	n/a	n/a	2	16	5	6	5
210029	PROB	n/a	LTP260	ltpFR2	18	n/a	n/a	n/a	2	17	5	9	3
212187	PROB	n/a	LTP260	ltpFR2	18	n/a	n/a	n/a	2	15	6	5	4
213742	PROB	n/a	LTP260	ltpFR2	18	n/a	n/a	n/a	2	14	1	7	6
215766	PROB	n/a	LTP260	ltpFR2	18	n/a	n/a	n/a	2	11	4	3	4
217161	PROB	n/a	LTP260	ltpFR2	18	n/a	n/a	n/a	2	13	6	2	5
219373	STOP	n/a	LTP260	ltpFR2	18	n/a	n/a	n/a	2	n/a	n/a	n/a	n/a
222614	REC_START	n/a	LTP260	ltpFR2	18	1	n/a	n/a	n/a	n/a	0	0	0
224491	REC_WORD	wordpools/wasnorm_wordpool_576.txt	LTP260	ltpFR2	18	1	SUNRISE	1407	n/a	n/a	0	0	0
225678	REC_WORD	wordpools/wasnorm_wordpool_576.txt	LTP260	ltpFR2	18	1	SIDEWALK	1303	n/a	n/a	0	0	0
226809	REC_WORD	wordpools/wasnorm_wordpool_576.txt	LTP260	ltpFR2	18	1	DIME	466	n/a	n/a	0	0	0
227606	REC_WORD	wordpools/wasnorm_wordpool_576.txt	LTP260	ltpFR2	18	1	SNACK	1331	n/a	n/a	0	0	0
228581	REC_WORD	wordpools/wasnorm_wordpool_576.txt	LTP260	ltpFR2	18	1	SPARROW	1347	n/a	n/a	0	0	0
229656	REC_WORD	wordpools/wasnorm_wordpool_576.txt	LTP260	ltpFR2	18	1	QUAIL	1147	n/a	n/a	0	0	0
232583	REC_WORD	wordpools/wasnorm_wordpool_576.txt	LTP260	ltpFR2	18	1	LUMBER	848	n/a	n/a	0	0	0
233491	REC_WORD	wordpools/wasnorm_wordpool_576.txt	LTP260	ltpFR2	18	1	IGLOO	734	n/a	n/a	0	0	0
234477	REC_WORD	wordpools/wasnorm_wordpool_576.txt	LTP260	ltpFR2	18	1	BRANCH	168	n/a	n/a	0	0	0
235314	REC_WORD	wordpools/wasnorm_wordpool_576.txt	LTP260	ltpFR2	18	1	CROSS	413	n/a	n/a	0	0	0
237915	REC_WORD	wordpools/wasnorm_wordpool_576.txt	LTP260	ltpFR2	18	1	BASEMENT	94	n/a	n/a	0	0	0
240875	REC_WORD	wordpools/wasnorm_wordpool_576.txt	LTP260	ltpFR2	18	1	DRAGON	492	n/a	n/a	0	0	0
243369	REC_WORD	wordpools/wasnorm_wordpool_576.txt	LTP260	ltpFR2	18	1	VIKING	1565	n/a	n/a	0	0	0
245211	REC_WORD	wordpools/wasnorm_wordpool_576.txt	LTP260	ltpFR2	18	1	SIBLING	1301	n/a	n/a	0	0	0
247140	REC_WORD	wordpools/wasnorm_wordpool_576.txt	LTP260	ltpFR2	18	1	LOFT	840	n/a	n/a	0	0	0
248281	REC_WORD	wordpools/wasnorm_wordpool_576.txt	LTP260	ltpFR2	18	1	YACHT	1629	n/a	n/a	0	0	0
253595	REC_WORD	wordpools/wasnorm_wordpool_576.txt	LTP260	ltpFR2	18	1	COLONEL	348	n/a	n/a	0	0	0
254743	REC_WORD	wordpools/wasnorm_wordpool_576.txt	LTP260	ltpFR2	18	1	COFFEE	341	n/a	n/a	0	0	0
256048	REC_WORD	wordpools/wasnorm_wordpool_576.txt	LTP260	ltpFR2	18	1	COD	340	n/a	n/a	0	0	0
256988	REC_WORD	wordpools/wasnorm_wordpool_576.txt	LTP260	ltpFR2	18	1	SCALLOP	1242	n/a	n/a	0	0	0
259229	REC_WORD	wordpools/wasnorm_wordpool_576.txt	LTP260	ltpFR2	18	1	DAUGHTER	442	n/a	n/a	0	0	0
260328	REC_WORD	wordpools/wasnorm_wordpool_576.txt	LTP260	ltpFR2	18	1	CRITIC	410	n/a	n/a	0	0	0
261486	REC_WORD	wordpools/wasnorm_wordpool_576.txt	LTP260	ltpFR2	18	1	BACKBONE	66	n/a	n/a	0	0	0
313673	WORD	wordpools/wasnorm_wordpool_576.txt	LTP260	ltpFR2	18	2	LIZARD	834	n/a	n/a	0	0	0
316318	WORD	wordpools/wasnorm_wordpool_576.txt	LTP260	ltpFR2	18	2	COBRA	336	n/a	n/a	0	0	0
319011	WORD	wordpools/wasnorm_wordpool_576.txt	LTP260	ltpFR2	18	2	COMPASS	358	n/a	n/a	0	0	0
321770	WORD	wordpools/wasnorm_wordpool_576.txt	LTP260	ltpFR2	18	2	AIRPLANE	12	n/a	n/a	0	0	0
324531	WORD	wordpools/wasnorm_wordpool_576.txt	LTP260	ltpFR2	18	2	CANDY	230	n/a	n/a	0	0	0
327209	WORD	wordpools/wasnorm_wordpool_576.txt	LTP260	ltpFR2	18	2	WITNESS	1618	n/a	n/a	0	0	0
330036	WORD	wordpools/wasnorm_wordpool_576.txt	LTP260	ltpFR2	18	2	OFFICE	972	n/a	n/a	0	0	0
332490	WORD	wordpools/wasnorm_wordpool_576.txt	LTP260	ltpFR2	18	2	BRIEFCASE	175	n/a	n/a	0	0	0
335172	WORD	wordpools/wasnorm_wordpool_576.txt	LTP260	ltpFR2	18	2	HOUND	724	n/a	n/a	0	0	0
337613	WORD	wordpools/wasnorm_wordpool_576.txt	LTP260	ltpFR2	18	2	COOKBOOK	373	n/a	n/a	0	0	0
340358	WORD	wordpools/wasnorm_wordpool_576.txt	LTP260	ltpFR2	18	2	SWIMMER	1420	n/a	n/a	0	0	0
342816	WORD	wordpools/wasnorm_wordpool_576.txt	LTP260	ltpFR2	18	2	EMPIRE	530	n/a	n/a	0	0	0
345443	WORD	wordpools/wasnorm_wordpool_576.txt	LTP260	ltpFR2	18	2	VAGRANT	1544	n/a	n/a	0	0	0
348238	WORD	wordpools/wasnorm_wordpool_576.txt	LTP260	ltpFR2	18	2	WRENCH	1625	n/a	n/a	0	0	0
350897	WORD	wordpools/wasnorm_wordpool_576.txt	LTP260	ltpFR2	18	2	SKILLET	1317	n/a	n/a	0	0	0
353557	WORD	wordpools/wasnorm_wordpool_576.txt	LTP260	ltpFR2	18	2	QUARTER	1148	n/a	n/a	0	0	0
356318	WORD	wordpools/wasnorm_wordpool_576.txt	LTP260	ltpFR2	18	2	FLIPPER	580	n/a	n/a	0	0	0
359112	WORD	wordpools/wasnorm_wordpool_576.txt	LTP260	ltpFR2	18	2	YOLK	1633	n/a	n/a	0	0	0
361905	WORD	wordpools/wasnorm_wordpool_576.txt	LTP260	ltpFR2	18	2	SHOVEL	1295	n/a	n/a	0	0	0
364427	WORD	wordpools/wasnorm_wordpool_576.txt	LTP260	ltpFR2	18	2	STOVE	1388	n/a	n/a	0	0	0
367092	WORD	wordpools/wasnorm_wordpool_576.txt	LTP260	ltpFR2	18	2	ICING	732	n/a	n/a	0	0	0
369701	WORD	wordpools/wasnorm_wordpool_576.txt	LTP260	ltpFR2	18	2	CONVICT	371	n/a	n/a	0	0	0
372178	WORD	wordpools/wasnorm_wordpool_576.txt	LTP260	ltpFR2	18	2	MARSH	874	n/a	n/a	0	0	0
374837	WORD	wordpools/wasnorm_wordpool_576.txt	LTP260	ltpFR2	18	2	POSTAGE	1113	n/a	n/a	0	0	0
376444	START	n/a	LTP260	ltpFR2	18	n/a	n/a	n/a	3	n/a	n/a	n/a	n/a
377358	DISTRACTOR	n/a	LTP260	ltpFR2	18	2	n/a	n/a	n/a	n/a	0	0	0
377364	PROB	n/a	LTP260	ltpFR2	18	n/a	n/a	n/a	3	19	9	3	7
378965	PROB	n/a	LTP260	ltpFR2	18	n/a	n/a	n/a	3	15	6	4	5
380137	PROB	n/a	LTP260	ltpFR2	18	n/a	n/a	n/a	3	16	3	9	4
381876	PROB	n/a	LTP260	ltpFR2	18	n/a	n/a	n/a	3	19	7	6	6
383470	PROB	n/a	LTP260	ltpFR2	18	n/a	n/a	n/a	3	20	4	7	9
384820	PROB	n/a	LTP260	ltpFR2	18	n/a	n/a	n/a	3	16	6	5	5
386126	PROB	n/a	LTP260	ltpFR2	18	n/a	n/a	n/a	3	23	8	5	9
387999	PROB	n/a	LTP260	ltpFR2	18	n/a	n/a	n/a	3	14	5	4	5
389293	PROB	n/a	LTP260	ltpFR2	18	n/a	n/a	n/a	3	16	8	1	7
390692	PROB	n/a	LTP260	ltpFR2	18	n/a	n/a	n/a	3	19	9	4	6
392583	PROB	n/a	LTP260	ltpFR2	18	n/a	n/a	n/a	3	18	4	7	7
393988	PROB	n/a	LTP260	ltpFR2	18	n/a	n/a	n/a	3	19	6	7	6
395577	PROB	n/a	LTP260	ltpFR2	18	n/a	n/a	n/a	3	13	7	1	5
397953	PROB	n/a	LTP260	ltpFR2	18	n/a	n/a	n/a	3	5	2	2	1
398908	STOP	n/a	LTP260	ltpFR2	18	n/a	n/a	n/a	3	n/a	n/a	n/a	n/a
402405	REC_START	n/a	LTP260	ltpFR2	18	2	n/a	n/a	n/a	n/a	0	0	0
403760	REC_WORD	wordpools/wasnorm_wordpool_576.txt	LTP260	ltpFR2	18	2	MARSH	874	n/a	n/a	0	0	0
404605	REC_WORD	wordpools/wasnorm_wordpool_576.txt	LTP260	ltpFR2	18	2	EMPIRE	530	n/a	n/a	0	0	0
406314	REC_WORD	wordpools/wasnorm_wordpool_576.txt	LTP260	ltpFR2	18	2	VAGRANT	1544	n/a	n/a	0	0	0
407496	REC_WORD	wordpools/wasnorm_wordpool_576.txt	LTP260	ltpFR2	18	2	OUTLAW	989	n/a	n/a	0	0	0
410670	REC_WORD	wordpools/wasnorm_wordpool_576.txt	LTP260	ltpFR2	18	2	WRENCH	1625	n/a	n/a	0	0	0
411987	REC_WORD	wordpools/wasnorm_wordpool_576.txt	LTP260	ltpFR2	18	2	SHOVEL	1295	n/a	n/a	0	0	0
414548	REC_WORD	wordpools/wasnorm_wordpool_576.txt	LTP260	ltpFR2	18	2	SKILLET	1317	n/a	n/a	0	0	0
415467	REC_WORD	wordpools/wasnorm_wordpool_576.txt	LTP260	ltpFR2	18	2	STOVE	1388	n/a	n/a	0	0	0
416430	REC_WORD	wordpools/wasnorm_wordpool_576.txt	LTP260	ltpFR2	18	2	ICING	732	n/a	n/a	0	0	0
418543	REC_WORD	wordpools/wasnorm_wordpool_576.txt	LTP260	ltpFR2	18	2	OFFICE	972	n/a	n/a	0	0	0
419473	REC_WORD	wordpools/wasnorm_wordpool_576.txt	LTP260	ltpFR2	18	2	SWIMMER	1420	n/a	n/a	0	0	0
420866	REC_WORD	wordpools/wasnorm_wordpool_576.txt	LTP260	ltpFR2	18	2	COOKBOOK	373	n/a	n/a	0	0	0
421965	REC_WORD	wordpools/wasnorm_wordpool_576.txt	LTP260	ltpFR2	18	2	FLIPPER	580	n/a	n/a	0	0	0
424535	REC_WORD	wordpools/wasnorm_wordpool_576.txt	LTP260	ltpFR2	18	2	BRIEFCASE	175	n/a	n/a	0	0	0
425472	REC_WORD	wordpools/wasnorm_wordpool_576.txt	LTP260	ltpFR2	18	2	HOUND	724	n/a	n/a	0	0	0
429178	REC_WORD	wordpools/wasnorm_wordpool_576.txt	LTP260	ltpFR2	18	2	COMPASS	358	n/a	n/a	0	0	0
430427	REC_WORD	wordpools/wasnorm_wordpool_576.txt	LTP260	ltpFR2	18	2	LIZARD	834	n/a	n/a	0	0	0
431972	REC_WORD	wordpools/wasnorm_wordpool_576.txt	LTP260	ltpFR2	18	2	COBRA	336	n/a	n/a	0	0	0
433366	REC_WORD	wordpools/wasnorm_wordpool_576.txt	LTP260	ltpFR2	18	2	CANDY	230	n/a	n/a	0	0	0
434392	REC_WORD	wordpools/wasnorm_wordpool_576.txt	LTP260	ltpFR2	18	2	QUARTER	1148	n/a	n/a	0	0	0
435531	REC_WORD	wordpools/wasnorm_wordpool_576.txt	LTP260	ltpFR2	18	2	AIRPLANE	12	n/a	n/a	0	0	0
436626	REC_WORD	wordpools/wasnorm_wordpool_576.txt	LTP260	ltpFR2	18	2	WITNESS	1618	n/a	n/a	0	0	0
451572	REC_WORD	wordpools/wasnorm_wordpool_576.txt	LTP260	ltpFR2	18	2	COMPASS	358	n/a	n/a	0	0	0
462925	REC_WORD	wordpools/wasnorm_wordpool_576.txt	LTP260	ltpFR2	18	2	POSTAGE	1113	n/a	n/a	0	0	0
493418	DISTRACTOR	n/a	LTP260	ltpFR2	18	3	n/a	n/a	n/a	n/a	0	0	0
493419	START	n/a	LTP260	ltpFR2	18	n/a	n/a	n/a	4	n/a	n/a	n/a	n/a
493468	PROB	n/a	LTP260	ltpFR2	18	n/a	n/a	n/a	4	11	3	3	5
494902	PROB	n/a	LTP260	ltpFR2	18	n/a	n/a	n/a	4	18	6	3	9
496424	PROB	n/a	LTP260	ltpFR2	18	n/a	n/a	n/a	4	15	2	6	7
498383	PROB	n/a	LTP260	ltpFR2	18	n/a	n/a	n/a	4	13	6	5	2
502547	PROB	n/a	LTP260	ltpFR2	18	n/a	n/a	n/a	4	15	6	4	5
503919	PROB	n/a	LTP260	ltpFR2	18	n/a	n/a	n/a	4	12	4	1	7
505029	PROB	n/a	LTP260	ltpFR2	18	n/a	n/a	n/a	4	13	4	3	6
506279	PROB	n/a	LTP260	ltpFR2	18	n/a	n/a	n/a	4	14	4	5	5
507417	PROB	n/a	LTP260	ltpFR2	18	n/a	n/a	n/a	4	15	6	4	5
508553	PROB	n/a	LTP260	ltpFR2	18	n/a	n/a	n/a	4	13	3	1	9
509691	PROB	n/a	LTP260	ltpFR2	18	n/a	n/a	n/a	4	20	6	6	8
511336	PROB	n/a	LTP260	ltpFR2	18	n/a	n/a	n/a	4	9	2	3	4
512836	PROB	n/a	LTP260	ltpFR2	18	n/a	n/a	n/a	4	10	1	2	7
514080	PROB	n/a	LTP260	ltpFR2	18	n/a	n/a	n/a	4	17	9	6	2
516181	STOP	n/a	LTP260	ltpFR2	18	n/a	n/a	n/a	4	n/a	n/a	n/a	n/a
518562	WORD	wordpools/wasnorm_wordpool_576.txt	LTP260	ltpFR2	18	3	NOMAD	955	n/a	n/a	0	0	0
521273	WORD	wordpools/wasnorm_wordpool_576.txt	LTP260	ltpFR2	18	3	PARROT	1015	n/a	n/a	0	0	0
524034	WORD	wordpools/wasnorm_wordpool_576.txt	LTP260	ltpFR2	18	3	ICEBERG	731	n/a	n/a	0	0	0
526542	WORD	wordpools/wasnorm_wordpool_576.txt	LTP260	ltpFR2	18	3	LEG	809	n/a	n/a	0	0	0
529019	WORD	wordpools/wasnorm_wordpool_576.txt	LTP260	ltpFR2	18	3	TOURIST	1488	n/a	n/a	0	0	0
531695	WORD	wordpools/wasnorm_wordpool_576.txt	LTP260	ltpFR2	18	3	PORTRAIT	1111	n/a	n/a	0	0	0
534506	WORD	wordpools/wasnorm_wordpool_576.txt	LTP260	ltpFR2	18	3	BALLOON	75	n/a	n/a	0	0	0
537200	WORD	wordpools/wasnorm_wordpool_576.txt	LTP260	ltpFR2	18	3	OZONE	996	n/a	n/a	0	0	0
539809	WORD	wordpools/wasnorm_wordpool_576.txt	LTP260	ltpFR2	18	3	EGYPT	519	n/a	n/a	0	0	0
542420	WORD	wordpools/wasnorm_wordpool_576.txt	LTP260	ltpFR2	18	3	PIZZA	1079	n/a	n/a	0	0	0
544945	WORD	wordpools/wasnorm_wordpool_576.txt	LTP260	ltpFR2	18	3	SCALPEL	1243	n/a	n/a	0	0	0
547584	WORD	wordpools/wasnorm_wordpool_576.txt	LTP260	ltpFR2	18	3	CLAMP	316	n/a	n/a	0	0	0
550266	WORD	wordpools/wasnorm_wordpool_576.txt	LTP260	ltpFR2	18	3	FREEZER	604	n/a	n/a	0	0	0
552825	WORD	wordpools/wasnorm_wordpool_576.txt	LTP260	ltpFR2	18	3	VELVET	1555	n/a	n/a	0	0	0
555302	WORD	wordpools/wasnorm_wordpool_576.txt	LTP260	ltpFR2	18	3	MATTRESS	879	n/a	n/a	0	0	0
557793	WORD	wordpools/wasnorm_wordpool_576.txt	LTP260	ltpFR2	18	3	MISTER	901	n/a	n/a	0	0	0
560270	WORD	wordpools/wasnorm_wordpool_576.txt	LTP260	ltpFR2	18	3	LIPSTICK	829	n/a	n/a	0	0	0
562862	WORD	wordpools/wasnorm_wordpool_576.txt	LTP260	ltpFR2	18	3	COURSE	390	n/a	n/a	0	0	0
565451	WORD	wordpools/wasnorm_wordpool_576.txt	LTP260	ltpFR2	18	3	COMET	353	n/a	n/a	0	0	0
567898	WORD	wordpools/wasnorm_wordpool_576.txt	LTP260	ltpFR2	18	3	STAR	1373	n/a	n/a	0	0	0
570375	WORD	wordpools/wasnorm_wordpool_576.txt	LTP260	ltpFR2	18	3	FIDDLE	561	n/a	n/a	0	0	0
572979	WORD	wordpools/wasnorm_wordpool_576.txt	LTP260	ltpFR2	18	3	RECORD	1176	n/a	n/a	0	0	0
575673	WORD	wordpools/wasnorm_wordpool_576.txt	LTP260	ltpFR2	18	3	SKETCH	1315	n/a	n/a	0	0	0
578438	WORD	wordpools/wasnorm_wordpool_576.txt	LTP260	ltpFR2	18	3	POPCORN	1104	n/a	n/a	0	0	0
580045	START	n/a	LTP260	ltpFR2	18	n/a	n/a	n/a	5	n/a	n/a	n/a	n/a
581102	DISTRACTOR	n/a	LTP260	ltpFR2	18	3	n/a	n/a	n/a	n/a	0	0	0
581116	PROB	n/a	LTP260	ltpFR2	18	n/a	n/a	n/a	5	12	4	1	7
582253	PROB	n/a	LTP260	ltpFR2	18	n/a	n/a	n/a	5	7	4	1	2
583653	PROB	n/a	LTP260	ltpFR2	18	n/a	n/a	n/a	5	18	9	7	2
585344	PROB	n/a	LTP260	ltpFR2	18	n/a	n/a	n/a	5	20	7	7	6
587606	PROB	n/a	LTP260	ltpFR2	18	n/a	n/a	n/a	5	17	6	7	4
589592	PROB	n/a	LTP260	ltpFR2	18	n/a	n/a	n/a	5	8	5	2	1
590964	PROB	n/a	LTP260	ltpFR2	18	n/a	n/a	n/a	5	19	7	7	5
592270	PROB	n/a	LTP260	ltpFR2	18	n/a	n/a	n/a	5	15	8	4	3
594294	PROB	n/a	LTP260	ltpFR2	18	n/a	n/a	n/a	5	8	2	2	4
595949	PROB	n/a	LTP260	ltpFR2	18	n/a	n/a	n/a	5	20	4	8	8
597372	PROB	n/a	LTP260	ltpFR2	18	n/a	n/a	n/a	5	22	9	5	8
599964	PROB	n/a	LTP260	ltpFR2	18	n/a	n/a	n/a	5	14	5	8	1
602507	PROB	n/a	LTP260	ltpFR2	18	n/a	n/a	n/a	5	19	4	6	9
603996	STOP	n/a	LTP260	ltpFR2	18	n/a	n/a	n/a	5	n/a	n/a	n/a	n/a
606010	REC_START	n/a	LTP260	ltpFR2	18	3	n/a	n/a	n/a	n/a	0	0	0
607464	REC_WORD	wordpools/wasnorm_wordpool_576.txt	LTP260	ltpFR2	18	3	MATTRESS	879	n/a	n/a	0	0	0
608607	REC_WORD	wordpools/wasnorm_wordpool_576.txt	LTP260	ltpFR2	18	3	MISTER	901	n/a	n/a	0	0	0
610354	REC_WORD	wordpools/wasnorm_wordpool_576.txt	LTP260	ltpFR2	18	3	FREEZER	604	n/a	n/a	0	0	0
611331	REC_WORD	wordpools/wasnorm_wordpool_576.txt	LTP260	ltpFR2	18	3	CLAMP	316	n/a	n/a	0	0	0
612334	REC_WORD	wordpools/wasnorm_wordpool_576.txt	LTP260	ltpFR2	18	3	VELVET	1555	n/a	n/a	0	0	0
614214	REC_WORD	wordpools/wasnorm_wordpool_576.txt	LTP260	ltpFR2	18	3	FIDDLE	561	n/a	n/a	0	0	0
615134	REC_WORD	wordpools/wasnorm_wordpool_576.txt	LTP260	ltpFR2	18	3	RECORD	1176	n/a	n/a	0	0	0
616590	REC_WORD	wordpools/wasnorm_wordpool_576.txt	LTP260	ltpFR2	18	3	STAR	1373	n/a	n/a	0	0	0
617462	REC_WORD	wordpools/wasnorm_wordpool_576.txt	LTP260	ltpFR2	18	3	COMET	353	n/a	n/a	0	0	0
618234	REC_WORD	wordpools/wasnorm_wordpool_576.txt	LTP260	ltpFR2	18	3	COURSE	390	n/a	n/a	0	0	0
620077	REC_WORD	wordpools/wasnorm_wordpool_576.txt	LTP260	ltpFR2	18	3	OZONE	996	n/a	n/a	0	0	0
620953	REC_WORD	wordpools/wasnorm_wordpool_576.txt	LTP260	ltpFR2	18	3	PORTRAIT	1111	n/a	n/a	0	0	0
622168	REC_WORD	wordpools/wasnorm_wordpool_576.txt	LTP260	ltpFR2	18	3	SKETCH	1315	n/a	n/a	0	0	0
623706	REC_WORD	wordpools/wasnorm_wordpool_576.txt	LTP260	ltpFR2	18	3	PIZZA	1079	n/a	n/a	0	0	0
625693	REC_WORD	wordpools/wasnorm_wordpool_576.txt	LTP260	ltpFR2	18	3	NOMAD	955	n/a	n/a	0	0	0
626540	REC_WORD	wordpools/wasnorm_wordpool_576.txt	LTP260	ltpFR2	18	3	PARROT	1015	n/a	n/a	0	0	0
627499	REC_WORD	wordpools/wasnorm_wordpool_576.txt	LTP260	ltpFR2	18	3	LEG	809	n/a	n/a	0	0	0
630329	REC_WORD	wordpools/wasnorm_wordpool_576.txt	LTP260	ltpFR2	18	3	TOURIST	1488	n/a	n/a	0	0	0
632635	REC_WORD	wordpools/wasnorm_wordpool_576.txt	LTP260	ltpFR2	18	3	BALLOON	75	n/a	n/a	0	0	0
633537	REC_WORD	wordpools/wasnorm_wordpool_576.txt	LTP260	ltpFR2	18	3	LIPSTICK	829	n/a	n/a	0	0	0
634485	REC_WORD	wordpools/wasnorm_wordpool_576.txt	LTP260	ltpFR2	18	3	SCALPEL	1243	n/a	n/a	0	0	0
638771	REC_WORD	wordpools/wasnorm_wordpool_576.txt	LTP260	ltpFR2	18	3	ICEBERG	731	n/a	n/a	0	0	0
642610	REC_WORD	wordpools/wasnorm_wordpool_576.txt	LTP260	ltpFR2	18	3	EGYPT	519	n/a	n/a	0	0	0
697086	WORD	wordpools/wasnorm_wordpool_576.txt	LTP260	ltpFR2	18	4	COTTAGE	384	n/a	n/a	0	0	0
699728	WORD	wordpools/wasnorm_wordpool_576.txt	LTP260	ltpFR2	18	4	PLASTER	1085	n/a	n/a	0	0	0
702539	WORD	wordpools/wasnorm_wordpool_576.txt	LTP260	ltpFR2	18	4	TUNNEL	1519	n/a	n/a	0	0	0
705217	WORD	wordpools/wasnorm_wordpool_576.txt	LTP260	ltpFR2	18	4	GRAVEL	659	n/a	n/a	0	0	0
707993	WORD	wordpools/wasnorm_wordpool_576.txt	LTP260	ltpFR2	18	4	ZIPPER	1636	n/a	n/a	0	0	0
710619	WORD	wordpools/wasnorm_wordpool_576.txt	LTP260	ltpFR2	18	4	DENIM	446	n/a	n/a	0	0	0
713180	WORD	wordpools/wasnorm_wordpool_576.txt	LTP260	ltpFR2	18	4	PADDING	999	n/a	n/a	0	0	0
715868	WORD	wordpools/wasnorm_wordpool_576.txt	LTP260	ltpFR2	18	4	TRANSPLANT	1496	n/a	n/a	0	0	0
718449	WORD	wordpools/wasnorm_wordpool_576.txt	LTP260	ltpFR2	18	4	NEUTRON	947	n/a	n/a	0	0	0
720904	WORD	wordpools/wasnorm_wordpool_576.txt	LTP260	ltpFR2	18	4	PASTA	1021	n/a	n/a	0	0	0
723697	WORD	wordpools/wasnorm_wordpool_576.txt	LTP260	ltpFR2	18	4	CHEST	295	n/a	n/a	0	0	0
726158	WORD	wordpools/wasnorm_wordpool_576.txt	LTP260	ltpFR2	18	4	WASHER	1592	n/a	n/a	0	0	0
728587	WORD	wordpools/wasnorm_wordpool_576.txt	LTP260	ltpFR2	18	4	DAISY	435	n/a	n/a	0	0	0
731148	WORD	wordpools/wasnorm_wordpool_576.txt	LTP260	ltpFR2	18	4	NURSE	963	n/a	n/a	0	0	0
733589	WORD	wordpools/wasnorm_wordpool_576.txt	LTP260	ltpFR2	18	4	LUGGAGE	847	n/a	n/a	0	0	0
736162	WORD	wordpools/wasnorm_wordpool_576.txt	LTP260	ltpFR2	18	4	PENGUIN	1044	n/a	n/a	0	0	0
738721	WORD	wordpools/wasnorm_wordpool_576.txt	LTP260	ltpFR2	18	4	TABLE	1426	n/a	n/a	0	0	0
741269	WORD	wordpools/wasnorm_wordpool_576.txt	LTP260	ltpFR2	18	4	BATHTUB	100	n/a	n/a	0	0	0
743911	WORD	wordpools/wasnorm_wordpool_576.txt	LTP260	ltpFR2	18	4	CRAB	397	n/a	n/a	0	0	0
746422	WORD	wordpools/wasnorm_wordpool_576.txt	LTP260	ltpFR2	18	4	SUBWAY	1400	n/a	n/a	0	0	0
749166	WORD	wordpools/wasnorm_wordpool_576.txt	LTP260	ltpFR2	18	4	COCOON	339	n/a	n/a	0	0	0
751942	WORD	wordpools/wasnorm_wordpool_576.txt	LTP260	ltpFR2	18	4	ATOM	55	n/a	n/a	0	0	0
754597	WORD	wordpools/wasnorm_wordpool_576.txt	LTP260	ltpFR2	18	4	BUBBLE	183	n/a	n/a	0	0	0
757229	WORD	wordpools/wasnorm_wordpool_576.txt	LTP260	ltpFR2	18	4	CONTRACT	368	n/a	n/a	0	0	0
758835	START	n/a	LTP260	ltpFR2	18	n/a	n/a	n/a	6	n/a	n/a	n/a	n/a
759870	DISTRACTOR	n/a	LTP260	ltpFR2	18	4	n/a	n/a	n/a	n/a	0	0	0
759884	PROB	n/a	LTP260	ltpFR2	18	n/a	n/a	n/a	6	15	7	3	5
761094	PROB	n/a	LTP260	ltpFR2	18	n/a	n/a	n/a	6	15	4	9	2
762862	PROB	n/a	LTP260	ltpFR2	18	n/a	n/a	n/a	6	17	4	7	6
764635	PROB	n/a	LTP260	ltpFR2	18	n/a	n/a	n/a	6	12	4	4	5
766297	PROB	n/a	LTP260	ltpFR2	18	n/a	n/a	n/a	6	17	7	3	7
768516	PROB	n/a	LTP260	ltpFR2	18	n/a	n/a	n/a	6	15	6	7	2
770813	PROB	n/a	LTP260	ltpFR2	18	n/a	n/a	n/a	6	12	4	1	7
772169	PROB	n/a	LTP260	ltpFR2	18	n/a	n/a	n/a	6	20	6	7	7
773886	PROB	n/a	LTP260	ltpFR2	18	n/a	n/a	n/a	6	11	3	5	3
775464	PROB	n/a	LTP260	ltpFR2	18	n/a	n/a	n/a	6	18	7	4	7
776931	PROB	n/a	LTP260	ltpFR2	18	n/a	n/a	n/a	6	8	6	1	1
778309	PROB	n/a	LTP260	ltpFR2	18	n/a	n/a	n/a	6	9	6	1	2
779708	PROB	n/a	LTP260	ltpFR2	18	n/a	n/a	n/a	6	18	5	9	4
781460	STOP	n/a	LTP260	ltpFR2	18	n/a	n/a	n/a	6	n/a	n/a	n/a	n/a
784644	REC_START	n/a	LTP260	ltpFR2	18	4	n/a	n/a	n/a	n/a	0	0	0
786305	REC_WORD	wordpools/wasnorm_wordpool_576.txt	LTP260	ltpFR2	18	4	CONTRACT	368	n/a	n/a	0	0	0
788655	REC_WORD	wordpools/wasnorm_wordpool_576.txt	LTP260	ltpFR2	18	4	TUNNEL	1519	n/a	n/a	0	0	0
789706	REC_WORD	wordpools/wasnorm_wordpool_576.txt	LTP260	ltpFR2	18	4	SUBWAY	1400	n/a	n/a	0	0	0
791192	REC_WORD	wordpools/wasnorm_wordpool_576.txt	LTP260	ltpFR2	18	4	PLASTER	1085	n/a	n/a	0	0	0
792160	REC_WORD	wordpools/wasnorm_wordpool_576.txt	LTP260	ltpFR2	18	4	GRAVEL	659	n/a	n/a	0	0	0
793053	REC_WORD	wordpools/wasnorm_wordpool_576.txt	LTP260	ltpFR2	18	4	COTTAGE	384	n/a	n/a	0	0	0
797297	REC_WORD	wordpools/wasnorm_wordpool_576.txt	LTP260	ltpFR2	18	4	DAISY	435	n/a	n/a	0	0	0
798892	REC_WORD	wordpools/wasnorm_wordpool_576.txt	LTP260	ltpFR2	18	4	PENGUIN	1044	n/a	n/a	0	0	0
799565	REC_WORD	wordpools/wasnorm_wordpool_576.txt	LTP260	ltpFR2	18	4	CRAB	397	n/a	n/a	0	0	0
801748	REC_WORD	wordpools/wasnorm_wordpool_576.txt	LTP260	ltpFR2	18	4	NURSE	963	n/a	n/a	0	0	0
802681	REC_WORD	wordpools/wasnorm_wordpool_576.txt	LTP260	ltpFR2	18	4	DENIM	446	n/a	n/a	0	0	0
803313	REC_WORD	wordpools/wasnorm_wordpool_576.txt	LTP260	ltpFR2	18	4	ZIPPER	1636	n/a	n/a	0	0	0
804753	REC_WORD	wordpools/wasnorm_wordpool_576.txt	LTP260	ltpFR2	18	4	TRANSPLANT	1496	n/a	n/a	0	0	0
805706	REC_WORD	wordpools/wasnorm_wordpool_576.txt	LTP260	ltpFR2	18	4	CONTRACT	368	n/a	n/a	0	0	0
808329	REC_WORD	wordpools/wasnorm_wordpool_576.txt	LTP260	ltpFR2	18	4	CHEST	295	n/a	n/a	0	0	0
812128	REC_WORD	wordpools/wasnorm_wordpool_576.txt	LTP260	ltpFR2	18	4	BATHTUB	100	n/a	n/a	0	0	0
813161	REC_WORD	wordpools/wasnorm_wordpool_576.txt	LTP260	ltpFR2	18	4	BUBBLE	183	n/a	n/a	0	0	0
816806	REC_WORD	wordpools/wasnorm_wordpool_576.txt	LTP260	ltpFR2	18	4	TABLE	1426	n/a	n/a	0	0	0
829190	REC_WORD	wordpools/wasnorm_wordpool_576.txt	LTP260	ltpFR2	18	4	NEUTRON	947	n/a	n/a	0	0	0
830048	REC_WORD	wordpools/wasnorm_wordpool_576.txt	LTP260	ltpFR2	18	4	ATOM	55	n/a	n/a	0	0	0
875692	DISTRACTOR	n/a	LTP260	ltpFR2	18	5	n/a	n/a	n/a	n/a	0	0	0
875692	START	n/a	LTP260	ltpFR2	18	n/a	n/a	n/a	7	n/a	n/a	n/a	n/a
875742	PROB	n/a	LTP260	ltpFR2	18	n/a	n/a	n/a	7	24	6	9	9
877477	PROB	n/a	LTP260	ltpFR2	18	n/a	n/a	n/a	7	12	1	6	5
878615	PROB	n/a	LTP260	ltpFR2	18	n/a	n/a	n/a	7	7	3	2	2
880143	PROB	n/a	LTP260	ltpFR2	18	n/a	n/a	n/a	7	13	6	1	6
881309	PROB	n/a	LTP260	ltpFR2	18	n/a	n/a	n/a	7	19	2	9	8
882701	PROB	n/a	LTP260	ltpFR2	18	n/a	n/a	n/a	7	14	7	2	5
884404	PROB	n/a	LTP260	ltpFR2	18	n/a	n/a	n/a	7	11	5	3	3
885780	PROB	n/a	LTP260	ltpFR2	18	n/a	n/a	n/a	7	13	1	9	3
886879	PROB	n/a	LTP260	ltpFR2	18	n/a	n/a	n/a	7	19	5	6	8
888302	PROB	n/a	LTP260	ltpFR2	18	n/a	n/a	n/a	7	4	1	1	2
889260	PROB	n/a	LTP260	ltpFR2	18	n/a	n/a	n/a	7	15	7	3	5
890442	PROB	n/a	LTP260	ltpFR2	18	n/a	n/a	n/a	7	9	1	2	6
891597	PROB	n/a	LTP260	ltpFR2	18	n/a	n/a	n/a	7	11	2	8	1
892835	PROB	n/a	LTP260	ltpFR2	18	n/a	n/a	n/a	7	20	2	9	9
894078	PROB	n/a	LTP260	ltpFR2	18	n/a	n/a	n/a	7	12	1	5	6
895166	PROB	n/a	LTP260	ltpFR2	18	n/a	n/a	n/a	7	18	6	8	4
897040	PROB	n/a	LTP260	ltpFR2	18	n/a	n/a	n/a	7	7	4	2	1
898269	STOP	n/a	LTP260	ltpFR2	18	n/a	n/a	n/a	7	n/a	n/a	n/a	n/a
900702	WORD	wordpools/wasnorm_wordpool_576.txt	LTP260	ltpFR2	18	5	CREATURE	403	n/a	n/a	0	0	0
903246	WORD	wordpools/wasnorm_wordpool_576.txt	LTP260	ltpFR2	18	5	WAITER	1580	n/a	n/a	0	0	0
905855	WORD	wordpools/wasnorm_wordpool_576.txt	LTP260	ltpFR2	18	5	ORCHID	982	n/a	n/a	0	0	0
908416	WORD	wordpools/wasnorm_wordpool_576.txt	LTP260	ltpFR2	18	5	DRUG	501	n/a	n/a	0	0	0
911160	WORD	wordpools/wasnorm_wordpool_576.txt	LTP260	ltpFR2	18	5	SHELF	1280	n/a	n/a	0	0	0
913885	WORD	wordpools/wasnorm_wordpool_576.txt	LTP260	ltpFR2	18	5	BLUEPRINT	142	n/a	n/a	0	0	0
916574	WORD	wordpools/wasnorm_wordpool_576.txt	LTP260	ltpFR2	18	5	HERO	706	n/a	n/a	0	0	0
919123	WORD	wordpools/wasnorm_wordpool_576.txt	LTP260	ltpFR2	18	5	WINDOW	1611	n/a	n/a	0	0	0
921932	WORD	wordpools/wasnorm_wordpool_576.txt	LTP260	ltpFR2	18	5	FEMALE	559	n/a	n/a	0	0	0
924726	WORD	wordpools/wasnorm_wordpool_576.txt	LTP260	ltpFR2	18	5	WOMAN	1620	n/a	n/a	0	0	0
927182	WORD	wordpools/wasnorm_wordpool_576.txt	LTP260	ltpFR2	18	5	SHELTER	1282	n/a	n/a	0	0	0
929941	WORD	wordpools/wasnorm_wordpool_576.txt	LTP260	ltpFR2	18	5	BADGE	68	n/a	n/a	0	0	0
932623	WORD	wordpools/wasnorm_wordpool_576.txt	LTP260	ltpFR2	18	5	PATIENT	1024	n/a	n/a	0	0	0
935100	WORD	wordpools/wasnorm_wordpool_576.txt	LTP260	ltpFR2	18	5	SERVER	1272	n/a	n/a	0	0	0
937876	WORD	wordpools/wasnorm_wordpool_576.txt	LTP260	ltpFR2	18	5	GRAPE	654	n/a	n/a	0	0	0
940420	WORD	wordpools/wasnorm_wordpool_576.txt	LTP260	ltpFR2	18	5	BLADE	134	n/a	n/a	0	0	0
943025	WORD	wordpools/wasnorm_wordpool_576.txt	LTP260	ltpFR2	18	5	SNAIL	1332	n/a	n/a	0	0	0
945801	WORD	wordpools/wasnorm_wordpool_576.txt	LTP260	ltpFR2	18	5	TURTLE	1522	n/a	n/a	0	0	0
948516	WORD	wordpools/wasnorm_wordpool_576.txt	LTP260	ltpFR2	18	5	FLUTE	585	n/a	n/a	0	0	0
951328	WORD	wordpools/wasnorm_wordpool_576.txt	LTP260	ltpFR2	18	5	FLASHLIGHT	575	n/a	n/a	0	0	0
953870	WORD	wordpools/wasnorm_wordpool_576.txt	LTP260	ltpFR2	18	5	VALVE	1546	n/a	n/a	0	0	0
956580	WORD	wordpools/wasnorm_wordpool_576.txt	LTP260	ltpFR2	18	5	BEAKER	104	n/a	n/a	0	0	0
959191	WORD	wordpools/wasnorm_wordpool_576.txt	LTP260	ltpFR2	18	5	PROTON	1132	n/a	n/a	0	0	0
961632	WORD	wordpools/wasnorm_wordpool_576.txt	LTP260	ltpFR2	18	5	GREASE	660	n/a	n/a	0	0	0
963239	START	n/a	LTP260	ltpFR2	18	n/a	n/a	n/a	8	n/a	n/a	n/a	n/a
964104	DISTRACTOR	n/a	LTP260	ltpFR2	18	5	n/a	n/a	n/a	n/a	0	0	0
964121	PROB	n/a	LTP260	ltpFR2	18	n/a	n/a	n/a	8	10	5	3	2
965492	PROB	n/a	LTP260	ltpFR2	18	n/a	n/a	n/a	8	25	9	8	8
968671	PROB	n/a	LTP260	ltpFR2	18	n/a	n/a	n/a	8	23	9	6	8
970929	PROB	n/a	LTP260	ltpFR2	18	n/a	n/a	n/a	8	17	2	6	9
972820	PROB	n/a	LTP260	ltpFR2	18	n/a	n/a	n/a	8	19	7	4	8
974894	PROB	n/a	LTP260	ltpFR2	18	n/a	n/a	n/a	8	19	6	6	7
977036	PROB	n/a	LTP260	ltpFR2	18	n/a	n/a	n/a	8	7	1	5	1
978241	PROB	n/a	LTP260	ltpFR2	18	n/a	n/a	n/a	8	22	6	8	8
979633	PROB	n/a	LTP260	ltpFR2	18	n/a	n/a	n/a	8	25	9	9	7
981257	PROB	n/a	LTP260	ltpFR2	18	n/a	n/a	n/a	8	11	1	7	3
982344	PROB	n/a	LTP260	ltpFR2	18	n/a	n/a	n/a	8	17	7	8	2
984113	PROB	n/a	LTP260	ltpFR2	18	n/a	n/a	n/a	8	19	4	6	9
987239	STOP	n/a	LTP260	ltpFR2	18	n/a	n/a	n/a	8	n/a	n/a	n/a	n/a
989016	REC_START	n/a	LTP260	ltpFR2	18	5	n/a	n/a	n/a	n/a	0	0	0
990861	REC_WORD	wordpools/wasnorm_wordpool_576.txt	LTP260	ltpFR2	18	5	VALVE	1546	n/a	n/a	0	0	0
993011	REC_WORD	wordpools/wasnorm_wordpool_576.txt	LTP260	ltpFR2	18	5	FLUTE	585	n/a	n/a	0	0	0
994108	REC_WORD	wordpools/wasnorm_wordpool_576.txt	LTP260	ltpFR2	18	5	FLASHLIGHT	575	n/a	n/a	0	0	0
999074	REC_WORD	wordpools/wasnorm_wordpool_576.txt	LTP260	ltpFR2	18	5	SERVER	1272	n/a	n/a	0	0	0
1000256	REC_WORD	wordpools/wasnorm_wordpool_576.txt	LTP260	ltpFR2	18	5	WAITER	1580	n/a	n/a	0	0	0
1003236	REC_WORD	wordpools/wasnorm_wordpool_576.txt	LTP260	ltpFR2	18	5	BLADE	134	n/a	n/a	0	0	0
1004418	REC_WORD	wordpools/wasnorm_wordpool_576.txt	LTP260	ltpFR2	18	5	GRAPE	654	n/a	n/a	0	0	0
1005087	REC_WORD	wordpools/wasnorm_wordpool_576.txt	LTP260	ltpFR2	18	5	SNAIL	1332	n/a	n/a	0	0	0
1006768	REC_WORD	wordpools/wasnorm_wordpool_576.txt	LTP260	ltpFR2	18	5	TORTOISE	1486	n/a	n/a	0	0	0
1008338	REC_WORD	wordpools/wasnorm_wordpool_576.txt	LTP260	ltpFR2	18	5	ORCHID	982	n/a	n/a	0	0	0
1009108	REC_WORD	wordpools/wasnorm_wordpool_576.txt	LTP260	ltpFR2	18	5	DRUG	501	n/a	n/a	0	0	0
1009929	REC_WORD	wordpools/wasnorm_wordpool_576.txt	LTP260	ltpFR2	18	5	CREATURE	403	n/a	n/a	0	0	0
1012630	REC_WORD	wordpools/wasnorm_wordpool_576.txt	LTP260	ltpFR2	18	5	SHELF	1280	n/a	n/a	0	0	0
1013595	REC_WORD	wordpools/wasnorm_wordpool_576.txt	LTP260	ltpFR2	18	5	BLUEPRINT	142	n/a	n/a	0	0	0
1016774	REC_WORD	wordpools/wasnorm_wordpool_576.txt	LTP260	ltpFR2	18	5	WINDOW	1611	n/a	n/a	0	0	0
1017731	REC_WORD	wordpools/wasnorm_wordpool_576.txt	LTP260	ltpFR2	18	5	HERO	706	n/a	n/a	0	0	0
1018648	REC_WORD	wordpools/wasnorm_wordpool_576.txt	LTP260	ltpFR2	18	5	FEMALE	559	n/a	n/a	0	0	0
1019570	REC_WORD	wordpools/wasnorm_wordpool_576.txt	LTP260	ltpFR2	18	5	WOMAN	1620	n/a	n/a	0	0	0
1020507	REC_WORD	wordpools/wasnorm_wordpool_576.txt	LTP260	ltpFR2	18	5	BADGE	68	n/a	n/a	0	0	0
1021337	REC_WORD	wordpools/wasnorm_wordpool_576.txt	LTP260	ltpFR2	18	5	PATIENT	1024	n/a	n/a	0	0	0
1080063	WORD	wordpools/wasnorm_wordpool_576.txt	LTP260	ltpFR2	18	6	BUCKET	184	n/a	n/a	0	0	0
1082889	WORD	wordpools/wasnorm_wordpool_576.txt	LTP260	ltpFR2	18	6	HAMPER	682	n/a	n/a	0	0	0
1085583	WORD	wordpools/wasnorm_wordpool_576.txt	LTP260	ltpFR2	18	6	PECAN	1036	n/a	n/a	0	0	0
1088093	WORD	wordpools/wasnorm_wordpool_576.txt	LTP260	ltpFR2	18	6	FINGER	567	n/a	n/a	0	0	0
1090886	WORD	wordpools/wasnorm_wordpool_576.txt	LTP260	ltpFR2	18	6	MAILBOX	857	n/a	n/a	0	0	0
1093625	WORD	wordpools/wasnorm_wordpool_576.txt	LTP260	ltpFR2	18	6	RAFT	1159	n/a	n/a	0	0	0
1096374	WORD	wordpools/wasnorm_wordpool_576.txt	LTP260	ltpFR2	18	6	HEADBAND	696	n/a	n/a	0	0	0
1098945	WORD	wordpools/wasnorm_wordpool_576.txt	LTP260	ltpFR2	18	6	CLIMBER	323	n/a	n/a	0	0	0
1101772	WORD	wordpools/wasnorm_wordpool_576.txt	LTP260	ltpFR2	18	6	SISTER	1312	n/a	n/a	0	0	0
1104237	WORD	wordpools/wasnorm_wordpool_576.txt	LTP260	ltpFR2	18	6	KITCHEN	778	n/a	n/a	0	0	0
1106997	WORD	wordpools/wasnorm_wordpool_576.txt	LTP260	ltpFR2	18	6	ACTRESS	6	n/a	n/a	0	0	0
1109439	WORD	wordpools/wasnorm_wordpool_576.txt	LTP260	ltpFR2	18	6	ACTOR	5	n/a	n/a	0	0	0
1112084	WORD	wordpools/wasnorm_wordpool_576.txt	LTP260	ltpFR2	18	6	SCISSORS	1250	n/a	n/a	0	0	0
1114726	WORD	wordpools/wasnorm_wordpool_576.txt	LTP260	ltpFR2	18	6	GRAVE	658	n/a	n/a	0	0	0
1117232	WORD	wordpools/wasnorm_wordpool_576.txt	LTP260	ltpFR2	18	6	GIRL	637	n/a	n/a	0	0	0
1119694	WORD	wordpools/wasnorm_wordpool_576.txt	LTP260	ltpFR2	18	6	CUPBOARD	425	n/a	n/a	0	0	0
1122505	WORD	wordpools/wasnorm_wordpool_576.txt	LTP260	ltpFR2	18	6	BLACKBOARD	133	n/a	n/a	0	0	0
1125166	WORD	wordpools/wasnorm_wordpool_576.txt	LTP260	ltpFR2	18	6	KLEENEX	782	n/a	n/a	0	0	0
1127925	WORD	wordpools/wasnorm_wordpool_576.txt	LTP260	ltpFR2	18	6	EYELASH	546	n/a	n/a	0	0	0
1130464	WORD	wordpools/wasnorm_wordpool_576.txt	LTP260	ltpFR2	18	6	COUNTRY	388	n/a	n/a	0	0	0
1133280	WORD	wordpools/wasnorm_wordpool_576.txt	LTP260	ltpFR2	18	6	EUROPE	541	n/a	n/a	0	0	0
1135868	WORD	wordpools/wasnorm_wordpool_576.txt	LTP260	ltpFR2	18	6	PEANUT	1032	n/a	n/a	0	0	0
1138582	WORD	wordpools/wasnorm_wordpool_576.txt	LTP260	ltpFR2	18	6	BEEF	113	n/a	n/a	0	0	0
1141126	WORD	wordpools/wasnorm_wordpool_576.txt	LTP260	ltpFR2	18	6	PLIERS	1089	n/a	n/a	0	0	0
1142732	START	n/a	LTP260	ltpFR2	18	n/a	n/a	n/a	9	n/a	n/a	n/a	n/a
1143759	DISTRACTOR	n/a	LTP260	ltpFR2	18	6	n/a	n/a	n/a	n/a	0	0	0
1143769	PROB	n/a	LTP260	ltpFR2	18	n/a	n/a	n/a	9	12	7	3	2
1144918	PROB	n/a	LTP260	ltpFR2	18	n/a	n/a	n/a	9	7	3	3	1
1146040	PROB	n/a	LTP260	ltpFR2	18	n/a	n/a	n/a	9	17	5	5	7
1148169	PROB	n/a	LTP260	ltpFR2	18	n/a	n/a	n/a	9	16	4	9	3
1150022	PROB	n/a	LTP260	ltpFR2	18	n/a	n/a	n/a	9	19	8	9	2
1151360	PROB	n/a	LTP260	ltpFR2	18	n/a	n/a	n/a	9	21	8	4	9
1153790	PROB	n/a	LTP260	ltpFR2	18	n/a	n/a	n/a	9	16	5	9	2
1155542	PROB	n/a	LTP260	ltpFR2	18	n/a	n/a	n/a	9	14	9	1	4
1157098	PROB	n/a	LTP260	ltpFR2	18	n/a	n/a	n/a	9	5	2	2	1
1158057	PROB	n/a	LTP260	ltpFR2	18	n/a	n/a	n/a	9	13	1	9	3
1159156	PROB	n/a	LTP260	ltpFR2	18	n/a	n/a	n/a	9	9	1	1	7
1160311	PROB	n/a	LTP260	ltpFR2	18	n/a	n/a	n/a	9	23	8	6	9
1162134	PROB	n/a	LTP260	ltpFR2	18	n/a	n/a	n/a	9	16	9	5	2
1163672	PROB	n/a	LTP260	ltpFR2	18	n/a	n/a	n/a	9	17	8	2	7
1166708	STOP	n/a	LTP260	ltpFR2	18	n/a	n/a	n/a	9	n/a	n/a	n/a	n/a
1168591	REC_START	n/a	LTP260	ltpFR2	18	6	n/a	n/a	n/a	n/a	0	0	0
1169722	REC_WORD	wordpools/wasnorm_wordpool_576.txt	LTP260	ltpFR2	18	6	EUROPE	541	n/a	n/a	0	0	0
1170894	REC_WORD	wordpools/wasnorm_wordpool_576.txt	LTP260	ltpFR2	18	6	COUNTRY	388	n/a	n/a	0	0	0
1173753	REC_WORD	wordpools/wasnorm_wordpool_576.txt	LTP260	ltpFR2	18	6	MAILBOX	857	n/a	n/a	0	0	0
1175462	REC_WORD	wordpools/wasnorm_wordpool_576.txt	LTP260	ltpFR2	18	6	RAFT	1159	n/a	n/a	0	0	0
1177296	REC_WORD	wordpools/wasnorm_wordpool_576.txt	LTP260	ltpFR2	18	6	CLIMBER	323	n/a	n/a	0	0	0
1178505	REC_WORD	wordpools/wasnorm_wordpool_576.txt	LTP260	ltpFR2	18	6	HEADBAND	696	n/a	n/a	0	0	0
1179480	REC_WORD	wordpools/wasnorm_wordpool_576.txt	LTP260	ltpFR2	18	6	ACTOR	5	n/a	n/a	0	0	0
1181582	REC_WORD	wordpools/wasnorm_wordpool_576.txt	LTP260	ltpFR2	18	6	BLACKBOARD	133	n/a	n/a	0	0	0
1182759	REC_WORD	wordpools/wasnorm_wordpool_576.txt	LTP260	ltpFR2	18	6	HAMPER	682	n/a	n/a	0	0	0
1183868	REC_WORD	wordpools/wasnorm_wordpool_576.txt	LTP260	ltpFR2	18	6	BUCKET	184	n/a	n/a	0	0	0
1185622	REC_WORD	wordpools/wasnorm_wordpool_576.txt	LTP260	ltpFR2	18	6	KLEENEX	782	n/a	n/a	0	0	0
1186428	REC_WORD	wordpools/wasnorm_wordpool_576.txt	LTP260	ltpFR2	18	6	EYELASH	546	n/a	n/a	0	0	0
1188643	REC_WORD	wordpools/wasnorm_wordpool_576.txt	LTP260	ltpFR2	18	6	SISTER	1312	n/a	n/a	0	0	0
1190238	REC_WORD	wordpools/wasnorm_wordpool_576.txt	LTP260	ltpFR2	18	6	ACTRESS	6	n/a	n/a	0	0	0
1191683	REC_WORD	wordpools/wasnorm_wordpool_576.txt	LTP260	ltpFR2	18	6	GIRL	637	n/a	n/a	0	0	0
1192699	REC_WORD	wordpools/wasnorm_wordpool_576.txt	LTP260	ltpFR2	18	6	CUPBOARD	425	n/a	n/a	0	0	0
1193646	REC_WORD	wordpools/wasnorm_wordpool_576.txt	LTP260	ltpFR2	18	6	PLIERS	1089	n/a	n/a	0	0	0
1194449	REC_WORD	wordpools/wasnorm_wordpool_576.txt	LTP260	ltpFR2	18	6	SCISSORS	1250	n/a	n/a	0	0	0
1196148	REC_WORD	wordpools/wasnorm_wordpool_576.txt	LTP260	ltpFR2	18	6	BEEF	113	n/a	n/a	0	0	0
1196909	REC_WORD	wordpools/wasnorm_wordpool_576.txt	LTP260	ltpFR2	18	6	FINGER	567	n/a	n/a	0	0	0
1197633	REC_WORD	wordpools/wasnorm_wordpool_576.txt	LTP260	ltpFR2	18	6	PECAN	1036	n/a	n/a	0	0	0
1198531	REC_WORD	wordpools/wasnorm_wordpool_576.txt	LTP260	ltpFR2	18	6	PEANUT	1032	n/a	n/a	0	0	0
1220317	REC_WORD	wordpools/wasnorm_wordpool_576.txt	LTP260	ltpFR2	18	6	KITCHEN	778	n/a	n/a	0	0	0
1227938	REC_WORD	wordpools/wasnorm_wordpool_576.txt	LTP260	ltpFR2	18	6	GRAVE	658	n/a	n/a	0	0	0
1259639	WORD	wordpools/wasnorm_wordpool_576.txt	LTP260	ltpFR2	18	7	NECKLACE	940	n/a	n/a	0	0	0
1262132	WORD	wordpools/wasnorm_wordpool_576.txt	LTP260	ltpFR2	18	7	MEDAL	885	n/a	n/a	0	0	0
1264808	WORD	wordpools/wasnorm_wordpool_576.txt	LTP260	ltpFR2	18	7	TRACTOR	1493	n/a	n/a	0	0	0
1267569	WORD	wordpools/wasnorm_wordpool_576.txt	LTP260	ltpFR2	18	7	SADDLE	1221	n/a	n/a	0	0	0
1270280	WORD	wordpools/wasnorm_wordpool_576.txt	LTP260	ltpFR2	18	7	MARKET	871	n/a	n/a	0	0	0
1273035	WORD	wordpools/wasnorm_wordpool_576.txt	LTP260	ltpFR2	18	7	HAWK	692	n/a	n/a	0	0	0
1275498	WORD	wordpools/wasnorm_wordpool_576.txt	LTP260	ltpFR2	18	7	SEAL	1262	n/a	n/a	0	0	0
1278226	WORD	wordpools/wasnorm_wordpool_576.txt	LTP260	ltpFR2	18	7	PASTRY	1022	n/a	n/a	0	0	0
1280952	WORD	wordpools/wasnorm_wordpool_576.txt	LTP260	ltpFR2	18	7	MARROW	872	n/a	n/a	0	0	0
1283374	WORD	wordpools/wasnorm_wordpool_576.txt	LTP260	ltpFR2	18	7	POISON	1096	n/a	n/a	0	0	0
1286135	WORD	wordpools/wasnorm_wordpool_576.txt	LTP260	ltpFR2	18	7	SALMON	1227	n/a	n/a	0	0	0
1288844	WORD	wordpools/wasnorm_wordpool_576.txt	LTP260	ltpFR2	18	7	FLOWER	584	n/a	n/a	0	0	0
1291359	WORD	wordpools/wasnorm_wordpool_576.txt	LTP260	ltpFR2	18	7	WHISKERS	1605	n/a	n/a	0	0	0
1293834	WORD	wordpools/wasnorm_wordpool_576.txt	LTP260	ltpFR2	18	7	SNAKE	1333	n/a	n/a	0	0	0
1296278	WORD	wordpools/wasnorm_wordpool_576.txt	LTP260	ltpFR2	18	7	THREAD	1460	n/a	n/a	0	0	0
1298731	WORD	wordpools/wasnorm_wordpool_576.txt	LTP260	ltpFR2	18	7	JAPAN	749	n/a	n/a	0	0	0
1301246	WORD	wordpools/wasnorm_wordpool_576.txt	LTP260	ltpFR2	18	7	PORK	1108	n/a	n/a	0	0	0
1303972	WORD	wordpools/wasnorm_wordpool_576.txt	LTP260	ltpFR2	18	7	TABLET	1427	n/a	n/a	0	0	0
1306477	WORD	wordpools/wasnorm_wordpool_576.txt	LTP260	ltpFR2	18	7	TREAT	1501	n/a	n/a	0	0	0
1309172	WORD	wordpools/wasnorm_wordpool_576.txt	LTP260	ltpFR2	18	7	STONE	1385	n/a	n/a	0	0	0
1311869	WORD	wordpools/wasnorm_wordpool_576.txt	LTP260	ltpFR2	18	7	PUDDING	1139	n/a	n/a	0	0	0
1314479	WORD	wordpools/wasnorm_wordpool_576.txt	LTP260	ltpFR2	18	7	TEMPLE	1448	n/a	n/a	0	0	0
1317018	WORD	wordpools/wasnorm_wordpool_576.txt	LTP260	ltpFR2	18	7	CHURCH	307	n/a	n/a	0	0	0
1319799	WORD	wordpools/wasnorm_wordpool_576.txt	LTP260	ltpFR2	18	7	FRECKLE	602	n/a	n/a	0	0	0
1321406	START	n/a	LTP260	ltpFR2	18	n/a	n/a	n/a	10	n/a	n/a	n/a	n/a
1322239	DISTRACTOR	n/a	LTP260	ltpFR2	18	7	n/a	n/a	n/a	n/a	0	0	0
1322254	PROB	n/a	LTP260	ltpFR2	18	n/a	n/a	n/a	10	12	3	8	1
1323392	PROB	n/a	LTP260	ltpFR2	18	n/a	n/a	n/a	10	18	8	1	9
1324646	PROB	n/a	LTP260	ltpFR2	18	n/a	n/a	n/a	10	11	3	2	6
1326035	PROB	n/a	LTP260	ltpFR2	18	n/a	n/a	n/a	10	21	9	9	3
1327624	PROB	n/a	LTP260	ltpFR2	18	n/a	n/a	n/a	10	13	4	6	3
1329018	PROB	n/a	LTP260	ltpFR2	18	n/a	n/a	n/a	10	14	6	4	4
1330167	PROB	n/a	LTP260	ltpFR2	18	n/a	n/a	n/a	10	22	9	6	7
1332726	PROB	n/a	LTP260	ltpFR2	18	n/a	n/a	n/a	10	14	9	1	4
1334082	PROB	n/a	LTP260	ltpFR2	18	n/a	n/a	n/a	10	18	5	4	9
1335354	PROB	n/a	LTP260	ltpFR2	18	n/a	n/a	n/a	10	18	8	8	2
1336808	PROB	n/a	LTP260	ltpFR2	18	n/a	n/a	n/a	10	16	3	5	8
1339502	PROB	n/a	LTP260	ltpFR2	18	n/a	n/a	n/a	10	13	5	5	3
1341159	PROB	n/a	LTP260	ltpFR2	18	n/a	n/a	n/a	10	10	3	4	3
1342936	PROB	n/a	LTP260	ltpFR2	18	n/a	n/a	n/a	10	23	9	7	7
1344508	STOP	n/a	LTP260	ltpFR2	18	n/a	n/a	n/a	10	n/a	n/a	n/a	n/a
1347170	REC_START	n/a	LTP260	ltpFR2	18	7	n/a	n/a	n/a	n/a	0	0	0
1348679	REC_WORD	wordpools/wasnorm_wordpool_576.txt	LTP260	ltpFR2	18	7	STONE	1385	n/a	n/a	0	0	0
1350112	REC_WORD	wordpools/wasnorm_wordpool_576.txt	LTP260	ltpFR2	18	7	TEMPLE	1448	n/a	n/a	0	0	0
1352630	REC_WORD	wordpools/wasnorm_wordpool_576.txt	LTP260	ltpFR2	18	7	CHURCH	307	n/a	n/a	0	0	0
1360116	REC_WORD	wordpools/wasnorm_wordpool_576.txt	LTP260	ltpFR2	18	7	MARKET	871	n/a	n/a	0	0	0
1362140	REC_WORD	wordpools/wasnorm_wordpool_576.txt	LTP260	ltpFR2	18	7	TRACTOR	1493	n/a	n/a	0	0	0
1363061	REC_WORD	wordpools/wasnorm_wordpool_576.txt	LTP260	ltpFR2	18	7	SADDLE	1221	n/a	n/a	0	0	0
1366088	REC_WORD	wordpools/wasnorm_wordpool_576.txt	LTP260	ltpFR2	18	7	SEAL	1262	n/a	n/a	0	0	0
1368048	REC_WORD	wordpools/wasnorm_wordpool_576.txt	LTP260	ltpFR2	18	7	PASTRY	1022	n/a	n/a	0	0	0
1369507	REC_WORD	wordpools/wasnorm_wordpool_576.txt	LTP260	ltpFR2	18	7	THREAD	1460	n/a	n/a	0	0	0
1370387	REC_WORD	wordpools/wasnorm_wordpool_576.txt	LTP260	ltpFR2	18	7	FLOWER	584	n/a	n/a	0	0	0
1371835	REC_WORD	wordpools/wasnorm_wordpool_576.txt	LTP260	ltpFR2	18	7	SALMON	1227	n/a	n/a	0	0	0
1373131	REC_WORD	wordpools/wasnorm_wordpool_576.txt	LTP260	ltpFR2	18	7	PORK	1108	n/a	n/a	0	0	0
1378758	REC_WORD	wordpools/wasnorm_wordpool_576.txt	LTP260	ltpFR2	18	7	WHISKERS	1605	n/a	n/a	0	0	0
1380339	REC_WORD	wordpools/wasnorm_wordpool_576.txt	LTP260	ltpFR2	18	7	NECKLACE	940	n/a	n/a	0	0	0
1381234	REC_WORD	wordpools/wasnorm_wordpool_576.txt	LTP260	ltpFR2	18	7	MEDAL	885	n/a	n/a	0	0	0
1382704	REC_WORD	wordpools/wasnorm_wordpool_576.txt	LTP260	ltpFR2	18	7	HAWK	692	n/a	n/a	0	0	0
1383485	REC_WORD	wordpools/wasnorm_wordpool_576.txt	LTP260	ltpFR2	18	7	SNAKE	1333	n/a	n/a	0	0	0
1388355	REC_WORD	wordpools/wasnorm_wordpool_576.txt	LTP260	ltpFR2	18	7	TRACTOR	1493	n/a	n/a	0	0	0
1389101	REC_WORD	wordpools/wasnorm_wordpool_576.txt	LTP260	ltpFR2	18	7	SADDLE	1221	n/a	n/a	0	0	0
1392876	REC_WORD	wordpools/wasnorm_wordpool_576.txt	LTP260	ltpFR2	18	7	FRECKLE	602	n/a	n/a	0	0	0
1438213	WORD	wordpools/wasnorm_wordpool_576.txt	LTP260	ltpFR2	18	8	TUTU	1524	n/a	n/a	0	0	0
1440704	WORD	wordpools/wasnorm_wordpool_576.txt	LTP260	ltpFR2	18	8	DANCER	437	n/a	n/a	0	0	0
1443315	WORD	wordpools/wasnorm_wordpool_576.txt	LTP260	ltpFR2	18	8	STAPLE	1371	n/a	n/a	0	0	0
1445773	WORD	wordpools/wasnorm_wordpool_576.txt	LTP260	ltpFR2	18	8	CHAPEL	280	n/a	n/a	0	0	0
1448418	WORD	wordpools/wasnorm_wordpool_576.txt	LTP260	ltpFR2	18	8	GLOBE	641	n/a	n/a	0	0	0
1451207	WORD	wordpools/wasnorm_wordpool_576.txt	LTP260	ltpFR2	18	8	BRICK	172	n/a	n/a	0	0	0
1453787	WORD	wordpools/wasnorm_wordpool_576.txt	LTP260	ltpFR2	18	8	HATCHET	691	n/a	n/a	0	0	0
1456364	WORD	wordpools/wasnorm_wordpool_576.txt	LTP260	ltpFR2	18	8	XEROX	1628	n/a	n/a	0	0	0
1458990	WORD	wordpools/wasnorm_wordpool_576.txt	LTP260	ltpFR2	18	8	BLOCKADE	137	n/a	n/a	0	0	0
1461550	WORD	wordpools/wasnorm_wordpool_576.txt	LTP260	ltpFR2	18	8	PISTOL	1075	n/a	n/a	0	0	0
1464256	WORD	wordpools/wasnorm_wordpool_576.txt	LTP260	ltpFR2	18	8	MACHINE	852	n/a	n/a	0	0	0
1466832	WORD	wordpools/wasnorm_wordpool_576.txt	LTP260	ltpFR2	18	8	ITEM	746	n/a	n/a	0	0	0
1469263	WORD	wordpools/wasnorm_wordpool_576.txt	LTP260	ltpFR2	18	8	PERMIT	1051	n/a	n/a	0	0	0
1471838	WORD	wordpools/wasnorm_wordpool_576.txt	LTP260	ltpFR2	18	8	CHEMIST	292	n/a	n/a	0	0	0
1474431	WORD	wordpools/wasnorm_wordpool_576.txt	LTP260	ltpFR2	18	8	RIFLE	1192	n/a	n/a	0	0	0
1476903	WORD	wordpools/wasnorm_wordpool_576.txt	LTP260	ltpFR2	18	8	GHETTO	633	n/a	n/a	0	0	0
1479334	WORD	wordpools/wasnorm_wordpool_576.txt	LTP260	ltpFR2	18	8	VIRUS	1572	n/a	n/a	0	0	0
1481972	WORD	wordpools/wasnorm_wordpool_576.txt	LTP260	ltpFR2	18	8	SCARF	1246	n/a	n/a	0	0	0
1484486	WORD	wordpools/wasnorm_wordpool_576.txt	LTP260	ltpFR2	18	8	PAPER	1011	n/a	n/a	0	0	0
1486979	WORD	wordpools/wasnorm_wordpool_576.txt	LTP260	ltpFR2	18	8	ASIA	46	n/a	n/a	0	0	0
1489534	WORD	wordpools/wasnorm_wordpool_576.txt	LTP260	ltpFR2	18	8	SLOPE	1328	n/a	n/a	0	0	0
1492266	WORD	wordpools/wasnorm_wordpool_576.txt	LTP260	ltpFR2	18	8	SUMMIT	1405	n/a	n/a	0	0	0
1495043	WORD	wordpools/wasnorm_wordpool_576.txt	LTP260	ltpFR2	18	8	BELLY	119	n/a	n/a	0	0	0
1497798	WORD	wordpools/wasnorm_wordpool_576.txt	LTP260	ltpFR2	18	8	SUPPER	1411	n/a	n/a	0	0	0
1499410	START	n/a	LTP260	ltpFR2	18	n/a	n/a	n/a	11	n/a	n/a	n/a	n/a
1500306	DISTRACTOR	n/a	LTP260	ltpFR2	18	8	n/a	n/a	n/a	n/a	0	0	0
1500313	PROB	n/a	LTP260	ltpFR2	18	n/a	n/a	n/a	11	15	4	8	3
1502266	PROB	n/a	LTP260	ltpFR2	18	n/a	n/a	n/a	11	13	4	1	8
1503558	PROB	n/a	LTP260	ltpFR2	18	n/a	n/a	n/a	11	11	5	5	1
1504607	PROB	n/a	LTP260	ltpFR2	18	n/a	n/a	n/a	11	19	8	6	5
1506164	PROB	n/a	LTP260	ltpFR2	18	n/a	n/a	n/a	11	14	5	8	1
1508160	PROB	n/a	LTP260	ltpFR2	18	n/a	n/a	n/a	11	17	5	6	6
1509982	PROB	n/a	LTP260	ltpFR2	18	n/a	n/a	n/a	11	17	8	7	2
1511784	PROB	n/a	LTP260	ltpFR2	18	n/a	n/a	n/a	11	19	5	9	5
1513090	PROB	n/a	LTP260	ltpFR2	18	n/a	n/a	n/a	11	5	1	3	1
1514211	PROB	n/a	LTP260	ltpFR2	18	n/a	n/a	n/a	11	17	2	8	7
1516920	PROB	n/a	LTP260	ltpFR2	18	n/a	n/a	n/a	11	13	7	3	3
1518360	PROB	n/a	LTP260	ltpFR2	18	n/a	n/a	n/a	11	12	2	2	8
1519430	PROB	n/a	LTP260	ltpFR2	18	n/a	n/a	n/a	11	18	6	9	3
1521121	PROB	n/a	LTP260	ltpFR2	18	n/a	n/a	n/a	11	22	9	7	6
1522916	STOP	n/a	LTP260	ltpFR2	18	n/a	n/a	n/a	11	n/a	n/a	n/a	n/a
1525328	REC_START	n/a	LTP260	ltpFR2	18	8	n/a	n/a	n/a	n/a	0	0	0
1527754	REC_WORD	wordpools/wasnorm_wordpool_576.txt	LTP260	ltpFR2	18	8	ASIA	46	n/a	n/a	0	0	0
1530374	REC_WORD	wordpools/wasnorm_wordpool_576.txt	LTP260	ltpFR2	18	8	SUMMIT	1405	n/a	n/a	0	0	0
1532935	REC_WORD	wordpools/wasnorm_wordpool_576.txt	LTP260	ltpFR2	18	8	SLOPE	1328	n/a	n/a	0	0	0
1535206	REC_WORD	wordpools/wasnorm_wordpool_576.txt	LTP260	ltpFR2	18	8	GHETTO	633	n/a	n/a	0	0	0
1536860	REC_WORD	wordpools/wasnorm_wordpool_576.txt	LTP260	ltpFR2	18	8	CHAPEL	280	n/a	n/a	0	0	0
1539769	REC_WORD	wordpools/wasnorm_wordpool_576.txt	LTP260	ltpFR2	18	8	BRICK	172	n/a	n/a	0	0	0
1543247	REC_WORD	wordpools/wasnorm_wordpool_576.txt	LTP260	ltpFR2	18	8	BLOCKADE	137	n/a	n/a	0	0	0
1544470	REC_WORD	wordpools/wasnorm_wordpool_576.txt	LTP260	ltpFR2	18	8	XEROX	1628	n/a	n/a	0	0	0
1545451	REC_WORD	wordpools/wasnorm_wordpool_576.txt	LTP260	ltpFR2	18	8	PERMIT	1051	n/a	n/a	0	0	0
1546354	REC_WORD	wordpools/wasnorm_wordpool_576.txt	LTP260	ltpFR2	18	8	PAPER	1011	n/a	n/a	0	0	0
1548223	REC_WORD	wordpools/wasnorm_wordpool_576.txt	LTP260	ltpFR2	18	8	RIFLE	1192	n/a	n/a	0	0	0
1551112	REC_WORD	wordpools/wasnorm_wordpool_576.txt	LTP260	ltpFR2	18	8	PISTOL	1075	n/a	n/a	0	0	0
1552676	REC_WORD	wordpools/wasnorm_wordpool_576.txt	LTP260	ltpFR2	18	8	CHEMIST	292	n/a	n/a	0	0	0
1554461	REC_WORD	wordpools/wasnorm_wordpool_576.txt	LTP260	ltpFR2	18	8	VIRUS	1572	n/a	n/a	0	0	0
1558524	REC_WORD	wordpools/wasnorm_wordpool_576.txt	LTP260	ltpFR2	18	8	SCARF	1246	n/a	n/a	0	0	0
1560725	REC_WORD	wordpools/wasnorm_wordpool_576.txt	LTP260	ltpFR2	18	8	DANCER	437	n/a	n/a	0	0	0
1562973	REC_WORD	wordpools/wasnorm_wordpool_576.txt	LTP260	ltpFR2	18	8	TUTU	1524	n/a	n/a	0	0	0
1563950	REC_WORD	wordpools/wasnorm_wordpool_576.txt	LTP260	ltpFR2	18	8	STAPLE	1371	n/a	n/a	0	0	0
1565882	REC_WORD	wordpools/wasnorm_wordpool_576.txt	LTP260	ltpFR2	18	8	BELLY	119	n/a	n/a	0	0	0
1566730	REC_WORD	wordpools/wasnorm_wordpool_576.txt	LTP260	ltpFR2	18	8	SUPPER	1411	n/a	n/a	0	0	0
1569425	REC_WORD	wordpools/wasnorm_wordpool_576.txt	LTP260	ltpFR2	18	8	GLOBE	641	n/a	n/a	0	0	0
1570322	REC_WORD	wordpools/wasnorm_wordpool_576.txt	LTP260	ltpFR2	18	8	HATCHET	691	n/a	n/a	0	0	0
1602159	REST_REWET	n/a	LTP260	ltpFR2	18	8	n/a	n/a	n/a	n/a	0	0	0
2125302	WORD	wordpools/wasnorm_wordpool_576.txt	LTP260	ltpFR2	18	9	CANAL	226	n/a	n/a	0	0	0
2127928	WORD	wordpools/wasnorm_wordpool_576.txt	LTP260	ltpFR2	18	9	LIGHTNING	820	n/a	n/a	0	0	0
2130454	WORD	wordpools/wasnorm_wordpool_576.txt	LTP260	ltpFR2	18	9	WAGON	1578	n/a	n/a	0	0	0
2132947	WORD	wordpools/wasnorm_wordpool_576.txt	LTP260	ltpFR2	18	9	JUNGLE	764	n/a	n/a	0	0	0
2135585	WORD	wordpools/wasnorm_wordpool_576.txt	LTP260	ltpFR2	18	9	PARSLEY	1016	n/a	n/a	0	0	0
2138062	WORD	wordpools/wasnorm_wordpool_576.txt	LTP260	ltpFR2	18	9	INMATE	738	n/a	n/a	0	0	0
2140776	WORD	wordpools/wasnorm_wordpool_576.txt	LTP260	ltpFR2	18	9	PIGEON	1065	n/a	n/a	0	0	0
2143515	WORD	wordpools/wasnorm_wordpool_576.txt	LTP260	ltpFR2	18	9	SCARECROW	1245	n/a	n/a	0	0	0
2146277	WORD	wordpools/wasnorm_wordpool_576.txt	LTP260	ltpFR2	18	9	WIFE	1609	n/a	n/a	0	0	0
2149092	WORD	wordpools/wasnorm_wordpool_576.txt	LTP260	ltpFR2	18	9	DENTIST	447	n/a	n/a	0	0	0
2151600	WORD	wordpools/wasnorm_wordpool_576.txt	LTP260	ltpFR2	18	9	DRILL	497	n/a	n/a	0	0	0
2154273	WORD	wordpools/wasnorm_wordpool_576.txt	LTP260	ltpFR2	18	9	PRINCESS	1125	n/a	n/a	0	0	0
2156736	WORD	wordpools/wasnorm_wordpool_576.txt	LTP260	ltpFR2	18	9	FLEET	578	n/a	n/a	0	0	0
2159225	WORD	wordpools/wasnorm_wordpool_576.txt	LTP260	ltpFR2	18	9	VALLEY	1545	n/a	n/a	0	0	0
2161872	WORD	wordpools/wasnorm_wordpool_576.txt	LTP260	ltpFR2	18	9	HIKER	708	n/a	n/a	0	0	0
2164549	WORD	wordpools/wasnorm_wordpool_576.txt	LTP260	ltpFR2	18	9	LAKE	796	n/a	n/a	0	0	0
2167009	WORD	wordpools/wasnorm_wordpool_576.txt	LTP260	ltpFR2	18	9	CROWN	415	n/a	n/a	0	0	0
2169535	WORD	wordpools/wasnorm_wordpool_576.txt	LTP260	ltpFR2	18	9	LAGOON	795	n/a	n/a	0	0	0
2172012	WORD	wordpools/wasnorm_wordpool_576.txt	LTP260	ltpFR2	18	9	TROUT	1511	n/a	n/a	0	0	0
2174620	WORD	wordpools/wasnorm_wordpool_576.txt	LTP260	ltpFR2	18	9	SALAD	1224	n/a	n/a	0	0	0
2177148	WORD	wordpools/wasnorm_wordpool_576.txt	LTP260	ltpFR2	18	9	FARMER	553	n/a	n/a	0	0	0
2179606	WORD	wordpools/wasnorm_wordpool_576.txt	LTP260	ltpFR2	18	9	TRIBE	1505	n/a	n/a	0	0	0
2182250	WORD	wordpools/wasnorm_wordpool_576.txt	LTP260	ltpFR2	18	9	JURY	766	n/a	n/a	0	0	0
2184687	WORD	wordpools/wasnorm_wordpool_576.txt	LTP260	ltpFR2	18	9	SUSPECT	1415	n/a	n/a	0	0	0
2186299	START	n/a	LTP260	ltpFR2	18	n/a	n/a	n/a	12	n/a	n/a	n/a	n/a
2187237	DISTRACTOR	n/a	LTP260	ltpFR2	18	9	n/a	n/a	n/a	n/a	0	0	0
2187264	PROB	n/a	LTP260	ltpFR2	18	n/a	n/a	n/a	12	14	7	6	1
2188841	PROB	n/a	LTP260	ltpFR2	18	n/a	n/a	n/a	12	17	4	9	4
2190276	PROB	n/a	LTP260	ltpFR2	18	n/a	n/a	n/a	12	6	2	1	3
2191718	PROB	n/a	LTP260	ltpFR2	18	n/a	n/a	n/a	12	13	3	9	1
2193237	PROB	n/a	LTP260	ltpFR2	18	n/a	n/a	n/a	12	10	5	3	2
2194507	PROB	n/a	LTP260	ltpFR2	18	n/a	n/a	n/a	12	4	2	1	1
2195561	PROB	n/a	LTP260	ltpFR2	18	n/a	n/a	n/a	12	17	8	2	7
2197000	PROB	n/a	LTP260	ltpFR2	18	n/a	n/a	n/a	12	14	8	1	5
2198924	PROB	n/a	LTP260	ltpFR2	18	n/a	n/a	n/a	12	17	9	5	3
2200530	PROB	n/a	LTP260	ltpFR2	18	n/a	n/a	n/a	12	14	7	2	5
2202137	PROB	n/a	LTP260	ltpFR2	18	n/a	n/a	n/a	12	13	3	6	4
2203479	PROB	n/a	LTP260	ltpFR2	18	n/a	n/a	n/a	12	15	9	3	3
2205215	PROB	n/a	LTP260	ltpFR2	18	n/a	n/a	n/a	12	24	6	9	9
2206959	PROB	n/a	LTP260	ltpFR2	18	n/a	n/a	n/a	12	26	9	8	9
2210298	STOP	n/a	LTP260	ltpFR2	18	n/a	n/a	n/a	12	n/a	n/a	n/a	n/a
2212243	REC_START	n/a	LTP260	ltpFR2	18	9	n/a	n/a	n/a	n/a	0	0	0
2212770	REC_WORD	wordpools/wasnorm_wordpool_576.txt	LTP260	ltpFR2	18	9	FARMER	553	n/a	n/a	0	0	0
2213986	REC_WORD	wordpools/wasnorm_wordpool_576.txt	LTP260	ltpFR2	18	9	JURY	766	n/a	n/a	0	0	0
2218170	REC_WORD	wordpools/wasnorm_wordpool_576.txt	LTP260	ltpFR2	18	9	JUNGLE	764	n/a	n/a	0	0	0
2219180	REC_WORD	wordpools/wasnorm_wordpool_576.txt	LTP260	ltpFR2	18	9	CANAL	226	n/a	n/a	0	0	0
2220608	REC_WORD	wordpools/wasnorm_wordpool_576.txt	LTP260	ltpFR2	18	9	LAKE	796	n/a	n/a	0	0	0
2221648	REC_WORD	wordpools/wasnorm_wordpool_576.txt	LTP260	ltpFR2	18	9	LAGOON	795	n/a	n/a	0	0	0
2222650	REC_WORD	wordpools/wasnorm_wordpool_576.txt	LTP260	ltpFR2	18	9	PRINCESS	1125	n/a	n/a	0	0	0
2223695	REC_WORD	wordpools/wasnorm_wordpool_576.txt	LTP260	ltpFR2	18	9	CROWN	415	n/a	n/a	0	0	0
2224747	REC_WORD	wordpools/wasnorm_wordpool_576.txt	LTP260	ltpFR2	18	9	DENTIST	447	n/a	n/a	0	0	0
2225686	REC_WORD	wordpools/wasnorm_wordpool_576.txt	LTP260	ltpFR2	18	9	DRILL	497	n/a	n/a	0	0	0
2226748	REC_WORD	wordpools/wasnorm_wordpool_576.txt	LTP260	ltpFR2	18	9	WIFE	1609	n/a	n/a	0	0	0
2228177	REC_WORD	wordpools/wasnorm_wordpool_576.txt	LTP260	ltpFR2	18	9	HIKER	708	n/a	n/a	0	0	0
2231102	REC_WORD	wordpools/wasnorm_wordpool_576.txt	LTP260	ltpFR2	18	9	WAGON	1578	n/a	n/a	0	0	0
2232360	REC_WORD	wordpools/wasnorm_wordpool_576.txt	LTP260	ltpFR2	18	9	INMATE	738	n/a	n/a	0	0	0
2236025	REC_WORD	wordpools/wasnorm_wordpool_576.txt	LTP260	ltpFR2	18	9	SCARECROW	1245	n/a	n/a	0	0	0
2237153	REC_WORD	wordpools/wasnorm_wordpool_576.txt	LTP260	ltpFR2	18	9	PIGEON	1065	n/a	n/a	0	0	0
2238274	REC_WORD	wordpools/wasnorm_wordpool_576.txt	LTP260	ltpFR2	18	9	PARSLEY	1016	n/a	n/a	0	0	0
2259594	REC_WORD	wordpools/wasnorm_wordpool_576.txt	LTP260	ltpFR2	18	9	LIGHTNING	820	n/a	n/a	0	0	0
2303290	WORD	wordpools/wasnorm_wordpool_576.txt	LTP260	ltpFR2	18	10	STALLION	1369	n/a	n/a	0	0	0
2306017	WORD	wordpools/wasnorm_wordpool_576.txt	LTP260	ltpFR2	18	10	CAMEL	223	n/a	n/a	0	0	0
2308659	WORD	wordpools/wasnorm_wordpool_576.txt	LTP260	ltpFR2	18	10	SERVANT	1271	n/a	n/a	0	0	0
2311387	WORD	wordpools/wasnorm_wordpool_576.txt	LTP260	ltpFR2	18	10	GARDEN	623	n/a	n/a	0	0	0
2314092	WORD	wordpools/wasnorm_wordpool_576.txt	LTP260	ltpFR2	18	10	LEOPARD	812	n/a	n/a	0	0	0
2316606	WORD	wordpools/wasnorm_wordpool_576.txt	LTP260	ltpFR2	18	10	SPOUSE	1358	n/a	n/a	0	0	0
2319200	WORD	wordpools/wasnorm_wordpool_576.txt	LTP260	ltpFR2	18	10	HUMAN	726	n/a	n/a	0	0	0
2322010	WORD	wordpools/wasnorm_wordpool_576.txt	LTP260	ltpFR2	18	10	HORSE	719	n/a	n/a	0	0	0
2324686	WORD	wordpools/wasnorm_wordpool_576.txt	LTP260	ltpFR2	18	10	GANGSTER	620	n/a	n/a	0	0	0
2327425	WORD	wordpools/wasnorm_wordpool_576.txt	LTP260	ltpFR2	18	10	REPORT	1184	n/a	n/a	0	0	0
2330203	WORD	wordpools/wasnorm_wordpool_576.txt	LTP260	ltpFR2	18	10	NAPKIN	937	n/a	n/a	0	0	0
2332862	WORD	wordpools/wasnorm_wordpool_576.txt	LTP260	ltpFR2	18	10	SEAGULL	1261	n/a	n/a	0	0	0
2335426	WORD	wordpools/wasnorm_wordpool_576.txt	LTP260	ltpFR2	18	10	ISLAND	745	n/a	n/a	0	0	0
2338071	WORD	wordpools/wasnorm_wordpool_576.txt	LTP260	ltpFR2	18	10	DRIVER	499	n/a	n/a	0	0	0
2340596	WORD	wordpools/wasnorm_wordpool_576.txt	LTP260	ltpFR2	18	10	DIVER	476	n/a	n/a	0	0	0
2343123	WORD	wordpools/wasnorm_wordpool_576.txt	LTP260	ltpFR2	18	10	FRAME	600	n/a	n/a	0	0	0
2345928	WORD	wordpools/wasnorm_wordpool_576.txt	LTP260	ltpFR2	18	10	MUSTARD	935	n/a	n/a	0	0	0
2348643	WORD	wordpools/wasnorm_wordpool_576.txt	LTP260	ltpFR2	18	10	KETCHUP	771	n/a	n/a	0	0	0
2351204	WORD	wordpools/wasnorm_wordpool_576.txt	LTP260	ltpFR2	18	10	REBEL	1172	n/a	n/a	0	0	0
2353946	WORD	wordpools/wasnorm_wordpool_576.txt	LTP260	ltpFR2	18	10	ZEBRA	1635	n/a	n/a	0	0	0
2356690	WORD	wordpools/wasnorm_wordpool_576.txt	LTP260	ltpFR2	18	10	ATLAS	53	n/a	n/a	0	0	0
2359467	WORD	wordpools/wasnorm_wordpool_576.txt	LTP260	ltpFR2	18	10	SLIDE	1326	n/a	n/a	0	0	0
2361922	WORD	wordpools/wasnorm_wordpool_576.txt	LTP260	ltpFR2	18	10	COLLEGE	346	n/a	n/a	0	0	0
2364553	WORD	wordpools/wasnorm_wordpool_576.txt	LTP260	ltpFR2	18	10	TAXI	1438	n/a	n/a	0	0	0
2366160	START	n/a	LTP260	ltpFR2	18	n/a	n/a	n/a	13	n/a	n/a	n/a	n/a
2367208	DISTRACTOR	n/a	LTP260	ltpFR2	18	10	n/a	n/a	n/a	n/a	0	0	0
2367226	PROB	n/a	LTP260	ltpFR2	18	n/a	n/a	n/a	13	18	7	5	6
2369718	PROB	n/a	LTP260	ltpFR2	18	n/a	n/a	n/a	13	13	9	3	1
2370738	PROB	n/a	LTP260	ltpFR2	18	n/a	n/a	n/a	13	13	7	1	5
2374152	PROB	n/a	LTP260	ltpFR2	18	n/a	n/a	n/a	13	20	6	6	8
2375791	PROB	n/a	LTP260	ltpFR2	18	n/a	n/a	n/a	13	16	2	8	6
2376983	PROB	n/a	LTP260	ltpFR2	18	n/a	n/a	n/a	13	13	8	4	1
2378105	PROB	n/a	LTP260	ltpFR2	18	n/a	n/a	n/a	13	10	3	5	2
2379326	PROB	n/a	LTP260	ltpFR2	18	n/a	n/a	n/a	13	14	1	7	6
2380793	PROB	n/a	LTP260	ltpFR2	18	n/a	n/a	n/a	13	14	3	4	7
2382304	PROB	n/a	LTP260	ltpFR2	18	n/a	n/a	n/a	13	12	9	3	1
2383704	PROB	n/a	LTP260	ltpFR2	18	n/a	n/a	n/a	13	13	5	5	3
2385227	PROB	n/a	LTP260	ltpFR2	18	n/a	n/a	n/a	13	11	3	1	7
2386548	PROB	n/a	LTP260	ltpFR2	18	n/a	n/a	n/a	13	12	5	1	6
2387685	PROB	n/a	LTP260	ltpFR2	18	n/a	n/a	n/a	13	4	2	1	1
2388645	STOP	n/a	LTP260	ltpFR2	18	n/a	n/a	n/a	13	n/a	n/a	n/a	n/a
2392104	REC_START	n/a	LTP260	ltpFR2	18	10	n/a	n/a	n/a	n/a	0	0	0
2393695	REC_WORD	wordpools/wasnorm_wordpool_576.txt	LTP260	ltpFR2	18	10	COLLEGE	346	n/a	n/a	0	0	0
2394547	REC_WORD	wordpools/wasnorm_wordpool_576.txt	LTP260	ltpFR2	18	10	SLIDE	1326	n/a	n/a	0	0	0
2395633	REC_WORD	wordpools/wasnorm_wordpool_576.txt	LTP260	ltpFR2	18	10	TAXI	1438	n/a	n/a	0	0	0
2396549	REC_WORD	wordpools/wasnorm_wordpool_576.txt	LTP260	ltpFR2	18	10	FRAME	600	n/a	n/a	0	0	0
2397741	REC_WORD	wordpools/wasnorm_wordpool_576.txt	LTP260	ltpFR2	18	10	DRIVER	499	n/a	n/a	0	0	0
2398804	REC_WORD	wordpools/wasnorm_wordpool_576.txt	LTP260	ltpFR2	18	10	DIVER	476	n/a	n/a	0	0	0
2399825	REC_WORD	wordpools/wasnorm_wordpool_576.txt	LTP260	ltpFR2	18	10	GANGSTER	620	n/a	n/a	0	0	0
2400756	REC_WORD	wordpools/wasnorm_wordpool_576.txt	LTP260	ltpFR2	18	10	KETCHUP	771	n/a	n/a	0	0	0
2401680	REC_WORD	wordpools/wasnorm_wordpool_576.txt	LTP260	ltpFR2	18	10	MUSTARD	935	n/a	n/a	0	0	0
2402983	REC_WORD	wordpools/wasnorm_wordpool_576.txt	LTP260	ltpFR2	18	10	ATLAS	53	n/a	n/a	0	0	0
2404956	REC_WORD	wordpools/wasnorm_wordpool_576.txt	LTP260	ltpFR2	18	10	REPORT	1184	n/a	n/a	0	0	0
2405914	REC_WORD	wordpools/wasnorm_wordpool_576.txt	LTP260	ltpFR2	18	10	NAPKIN	937	n/a	n/a	0	0	0
2406775	REC_WORD	wordpools/wasnorm_wordpool_576.txt	LTP260	ltpFR2	18	10	SEAGULL	1261	n/a	n/a	0	0	0
2408555	REC_WORD	wordpools/wasnorm_wordpool_576.txt	LTP260	ltpFR2	18	10	REBEL	1172	n/a	n/a	0	0	0
2412656	REC_WORD	wordpools/wasnorm_wordpool_576.txt	LTP260	ltpFR2	18	10	GARDEN	623	n/a	n/a	0	0	0
2413847	REC_WORD	wordpools/wasnorm_wordpool_576.txt	LTP260	ltpFR2	18	10	SERVANT	1271	n/a	n/a	0	0	0
2415240	REC_WORD	wordpools/wasnorm_wordpool_576.txt	LTP260	ltpFR2	18	10	CAMEL	223	n/a	n/a	0	0	0
2416054	REC_WORD	wordpools/wasnorm_wordpool_576.txt	LTP260	ltpFR2	18	10	STALLION	1369	n/a	n/a	0	0	0
2417822	REC_WORD	wordpools/wasnorm_wordpool_576.txt	LTP260	ltpFR2	18	10	LEOPARD	812	n/a	n/a	0	0	0
2418848	REC_WORD	wordpools/wasnorm_wordpool_576.txt	LTP260	ltpFR2	18	10	ZEBRA	1635	n/a	n/a	0	0	0
2420380	REC_WORD	wordpools/wasnorm_wordpool_576.txt	LTP260	ltpFR2	18	10	HORSE	719	n/a	n/a	0	0	0
2421215	REC_WORD	wordpools/wasnorm_wordpool_576.txt	LTP260	ltpFR2	18	10	SPOUSE	1358	n/a	n/a	0	0	0
2422157	REC_WORD	wordpools/wasnorm_wordpool_576.txt	LTP260	ltpFR2	18	10	HUMAN	726	n/a	n/a	0	0	0
2429276	REC_WORD	wordpools/wasnorm_wordpool_576.txt	LTP260	ltpFR2	18	10	ISLAND	745	n/a	n/a	0	0	0
2438627	REC_WORD	wordpools/wasnorm_wordpool_576.txt	LTP260	ltpFR2	18	10	GANGSTER	620	n/a	n/a	0	0	0
2483117	DISTRACTOR	n/a	LTP260	ltpFR2	18	11	n/a	n/a	n/a	n/a	0	0	0
2483118	START	n/a	LTP260	ltpFR2	18	n/a	n/a	n/a	14	n/a	n/a	n/a	n/a
2483168	PROB	n/a	LTP260	ltpFR2	18	n/a	n/a	n/a	14	8	1	3	4
2484467	PROB	n/a	LTP260	ltpFR2	18	n/a	n/a	n/a	14	16	7	5	4
2487011	PROB	n/a	LTP260	ltpFR2	18	n/a	n/a	n/a	14	21	5	7	9
2488750	PROB	n/a	LTP260	ltpFR2	18	n/a	n/a	n/a	14	14	7	4	3
2489959	PROB	n/a	LTP260	ltpFR2	18	n/a	n/a	n/a	14	17	5	6	6
2491728	PROB	n/a	LTP260	ltpFR2	18	n/a	n/a	n/a	14	18	9	1	8
2492949	PROB	n/a	LTP260	ltpFR2	18	n/a	n/a	n/a	14	16	7	1	8
2494823	PROB	n/a	LTP260	ltpFR2	18	n/a	n/a	n/a	14	13	8	2	3
2496296	PROB	n/a	LTP260	ltpFR2	18	n/a	n/a	n/a	14	15	3	3	9
2497705	PROB	n/a	LTP260	ltpFR2	18	n/a	n/a	n/a	14	24	7	9	8
2499913	PROB	n/a	LTP260	ltpFR2	18	n/a	n/a	n/a	14	16	8	4	4
2501820	PROB	n/a	LTP260	ltpFR2	18	n/a	n/a	n/a	14	10	2	6	2
2503222	PROB	n/a	LTP260	ltpFR2	18	n/a	n/a	n/a	14	11	4	4	3
2504610	PROB	n/a	LTP260	ltpFR2	18	n/a	n/a	n/a	14	8	1	1	6
2505701	STOP	n/a	LTP260	ltpFR2	18	n/a	n/a	n/a	14	n/a	n/a	n/a	n/a
2508179	WORD	wordpools/wasnorm_wordpool_576.txt	LTP260	ltpFR2	18	11	DRAWING	494	n/a	n/a	0	0	0
2510938	WORD	wordpools/wasnorm_wordpool_576.txt	LTP260	ltpFR2	18	11	CRAYON	401	n/a	n/a	0	0	0
2513360	WORD	wordpools/wasnorm_wordpool_576.txt	LTP260	ltpFR2	18	11	PISTON	1076	n/a	n/a	0	0	0
2515990	WORD	wordpools/wasnorm_wordpool_576.txt	LTP260	ltpFR2	18	11	LADDER	793	n/a	n/a	0	0	0
2518433	WORD	wordpools/wasnorm_wordpool_576.txt	LTP260	ltpFR2	18	11	TEACHER	1440	n/a	n/a	0	0	0
2521044	WORD	wordpools/wasnorm_wordpool_576.txt	LTP260	ltpFR2	18	11	TART	1436	n/a	n/a	0	0	0
2523531	WORD	wordpools/wasnorm_wordpool_576.txt	LTP260	ltpFR2	18	11	ULCER	1533	n/a	n/a	0	0	0
2525978	WORD	wordpools/wasnorm_wordpool_576.txt	LTP260	ltpFR2	18	11	WORKER	1621	n/a	n/a	0	0	0
2528655	WORD	wordpools/wasnorm_wordpool_576.txt	LTP260	ltpFR2	18	11	BANQUET	86	n/a	n/a	0	0	0
2531098	WORD	wordpools/wasnorm_wordpool_576.txt	LTP260	ltpFR2	18	11	MOTOR	922	n/a	n/a	0	0	0
2533674	WORD	wordpools/wasnorm_wordpool_576.txt	LTP260	ltpFR2	18	11	CHILD	299	n/a	n/a	0	0	0
2536201	WORD	wordpools/wasnorm_wordpool_576.txt	LTP260	ltpFR2	18	11	SAUSAGE	1238	n/a	n/a	0	0	0
2538721	WORD	wordpools/wasnorm_wordpool_576.txt	LTP260	ltpFR2	18	11	SOFTBALL	1343	n/a	n/a	0	0	0
2541421	WORD	wordpools/wasnorm_wordpool_576.txt	LTP260	ltpFR2	18	11	RACKET	1155	n/a	n/a	0	0	0
2543895	WORD	wordpools/wasnorm_wordpool_576.txt	LTP260	ltpFR2	18	11	MUFFIN	929	n/a	n/a	0	0	0
2546601	WORD	wordpools/wasnorm_wordpool_576.txt	LTP260	ltpFR2	18	11	CRATER	400	n/a	n/a	0	0	0
2549195	WORD	wordpools/wasnorm_wordpool_576.txt	LTP260	ltpFR2	18	11	PATROL	1027	n/a	n/a	0	0	0
2551892	WORD	wordpools/wasnorm_wordpool_576.txt	LTP260	ltpFR2	18	11	PUPPY	1144	n/a	n/a	0	0	0
2554420	WORD	wordpools/wasnorm_wordpool_576.txt	LTP260	ltpFR2	18	11	PIANO	1057	n/a	n/a	0	0	0
2557242	WORD	wordpools/wasnorm_wordpool_576.txt	LTP260	ltpFR2	18	11	SHERIFF	1284	n/a	n/a	0	0	0
2560024	WORD	wordpools/wasnorm_wordpool_576.txt	LTP260	ltpFR2	18	11	MOTEL	919	n/a	n/a	0	0	0
2562666	WORD	wordpools/wasnorm_wordpool_576.txt	LTP260	ltpFR2	18	11	LODGE	839	n/a	n/a	0	0	0
2565294	WORD	wordpools/wasnorm_wordpool_576.txt	LTP260	ltpFR2	18	11	BIKE	125	n/a	n/a	0	0	0
2567903	WORD	wordpools/wasnorm_wordpool_576.txt	LTP260	ltpFR2	18	11	EXPERT	543	n/a	n/a	0	0	0
2569509	START	n/a	LTP260	ltpFR2	18	n/a	n/a	n/a	15	n/a	n/a	n/a	n/a
2570456	DISTRACTOR	n/a	LTP260	ltpFR2	18	11	n/a	n/a	n/a	n/a	0	0	0
2570462	PROB	n/a	LTP260	ltpFR2	18	n/a	n/a	n/a	15	12	6	3	3
2572015	PROB	n/a	LTP260	ltpFR2	18	n/a	n/a	n/a	15	23	9	6	8
2574156	PROB	n/a	LTP260	ltpFR2	18	n/a	n/a	n/a	15	14	7	5	2
2575912	PROB	n/a	LTP260	ltpFR2	18	n/a	n/a	n/a	15	23	8	7	8
2578705	PROB	n/a	LTP260	ltpFR2	18	n/a	n/a	n/a	15	18	6	5	7
2580730	PROB	n/a	LTP260	ltpFR2	18	n/a	n/a	n/a	15	10	4	3	3
2582320	PROB	n/a	LTP260	ltpFR2	18	n/a	n/a	n/a	15	17	7	1	9
2583758	PROB	n/a	LTP260	ltpFR2	18	n/a	n/a	n/a	15	23	7	7	9
2585264	PROB	n/a	LTP260	ltpFR2	18	n/a	n/a	n/a	15	16	8	7	1
2586736	PROB	n/a	LTP260	ltpFR2	18	n/a	n/a	n/a	15	17	5	6	6
2588464	PROB	n/a	LTP260	ltpFR2	18	n/a	n/a	n/a	15	16	2	6	8
2591776	PROB	n/a	LTP260	ltpFR2	18	n/a	n/a	n/a	15	10	7	2	1
2592861	STOP	n/a	LTP260	ltpFR2	18	n/a	n/a	n/a	15	n/a	n/a	n/a	n/a
2595320	REC_START	n/a	LTP260	ltpFR2	18	11	n/a	n/a	n/a	n/a	0	0	0
2596863	REC_WORD	wordpools/wasnorm_wordpool_576.txt	LTP260	ltpFR2	18	11	CRATER	400	n/a	n/a	0	0	0
2598822	REC_WORD	wordpools/wasnorm_wordpool_576.txt	LTP260	ltpFR2	18	11	MOTEL	919	n/a	n/a	0	0	0
2599876	REC_WORD	wordpools/wasnorm_wordpool_576.txt	LTP260	ltpFR2	18	11	BIKE	125	n/a	n/a	0	0	0
2600606	REC_WORD	wordpools/wasnorm_wordpool_576.txt	LTP260	ltpFR2	18	11	LODGE	839	n/a	n/a	0	0	0
2601415	REC_WORD	wordpools/wasnorm_wordpool_576.txt	LTP260	ltpFR2	18	11	SHERIFF	1284	n/a	n/a	0	0	0
2602279	REC_WORD	wordpools/wasnorm_wordpool_576.txt	LTP260	ltpFR2	18	11	PATROL	1027	n/a	n/a	0	0	0
2604789	REC_WORD	wordpools/wasnorm_wordpool_576.txt	LTP260	ltpFR2	18	11	BANQUET	86	n/a	n/a	0	0	0
2607138	REC_WORD	wordpools/wasnorm_wordpool_576.txt	LTP260	ltpFR2	18	11	SOFTBALL	1343	n/a	n/a	0	0	0
2608898	REC_WORD	wordpools/wasnorm_wordpool_576.txt	LTP260	ltpFR2	18	11	SAUSAGE	1238	n/a	n/a	0	0	0
2610781	REC_WORD	wordpools/wasnorm_wordpool_576.txt	LTP260	ltpFR2	18	11	MUFFIN	929	n/a	n/a	0	0	0
2611754	REC_WORD	wordpools/wasnorm_wordpool_576.txt	LTP260	ltpFR2	18	11	TART	1436	n/a	n/a	0	0	0
2614802	REC_WORD	wordpools/wasnorm_wordpool_576.txt	LTP260	ltpFR2	18	11	CHILD	299	n/a	n/a	0	0	0
2615724	REC_WORD	wordpools/wasnorm_wordpool_576.txt	LTP260	ltpFR2	18	11	RACKET	1155	n/a	n/a	0	0	0
2616685	REC_WORD	wordpools/wasnorm_wordpool_576.txt	LTP260	ltpFR2	18	11	PUPPY	1144	n/a	n/a	0	0	0
2618244	REC_WORD	wordpools/wasnorm_wordpool_576.txt	LTP260	ltpFR2	18	11	EXPERT	543	n/a	n/a	0	0	0
2620523	REC_WORD	wordpools/wasnorm_wordpool_576.txt	LTP260	ltpFR2	18	11	WORKER	1621	n/a	n/a	0	0	0
2621357	REC_WORD	wordpools/wasnorm_wordpool_576.txt	LTP260	ltpFR2	18	11	ULCER	1533	n/a	n/a	0	0	0
2622843	REC_WORD	wordpools/wasnorm_wordpool_576.txt	LTP260	ltpFR2	18	11	TEACHER	1440	n/a	n/a	0	0	0
2625512	REC_WORD	wordpools/wasnorm_wordpool_576.txt	LTP260	ltpFR2	18	11	LADDER	793	n/a	n/a	0	0	0
2626439	REC_WORD	wordpools/wasnorm_wordpool_576.txt	LTP260	ltpFR2	18	11	DRAWING	494	n/a	n/a	0	0	0
2627335	REC_WORD	wordpools/wasnorm_wordpool_576.txt	LTP260	ltpFR2	18	11	CRAYON	401	n/a	n/a	0	0	0
2628341	REC_WORD	wordpools/wasnorm_wordpool_576.txt	LTP260	ltpFR2	18	11	PISTON	1076	n/a	n/a	0	0	0
2629296	REC_WORD	wordpools/wasnorm_wordpool_576.txt	LTP260	ltpFR2	18	11	MOTOR	922	n/a	n/a	0	0	0
2686350	DISTRACTOR	n/a	LTP260	ltpFR2	18	12	n/a	n/a	n/a	n/a	0	0	0
2686350	START	n/a	LTP260	ltpFR2	18	n/a	n/a	n/a	16	n/a	n/a	n/a	n/a
2686400	PROB	n/a	LTP260	ltpFR2	18	n/a	n/a	n/a	16	8	1	2	5
2687554	PROB	n/a	LTP260	ltpFR2	18	n/a	n/a	n/a	16	10	7	2	1
2688586	PROB	n/a	LTP260	ltpFR2	18	n/a	n/a	n/a	16	17	3	5	9
2690248	PROB	n/a	LTP260	ltpFR2	18	n/a	n/a	n/a	16	16	5	8	3
2692072	PROB	n/a	LTP260	ltpFR2	18	n/a	n/a	n/a	16	6	1	1	4
2693088	PROB	n/a	LTP260	ltpFR2	18	n/a	n/a	n/a	16	21	6	7	8
2695162	PROB	n/a	LTP260	ltpFR2	18	n/a	n/a	n/a	16	19	5	9	5
2696383	PROB	n/a	LTP260	ltpFR2	18	n/a	n/a	n/a	16	13	3	7	3
2697441	PROB	n/a	LTP260	ltpFR2	18	n/a	n/a	n/a	16	19	1	9	9
2698712	PROB	n/a	LTP260	ltpFR2	18	n/a	n/a	n/a	16	24	8	7	9
2700703	PROB	n/a	LTP260	ltpFR2	18	n/a	n/a	n/a	16	11	8	2	1
2702172	PROB	n/a	LTP260	ltpFR2	18	n/a	n/a	n/a	16	10	3	3	4
2703360	PROB	n/a	LTP260	ltpFR2	18	n/a	n/a	n/a	16	17	9	5	2
2704814	PROB	n/a	LTP260	ltpFR2	18	n/a	n/a	n/a	16	21	9	6	6
2706587	PROB	n/a	LTP260	ltpFR2	18	n/a	n/a	n/a	16	13	4	8	1
2707863	PROB	n/a	LTP260	ltpFR2	18	n/a	n/a	n/a	16	14	3	4	7
2709046	STOP	n/a	LTP260	ltpFR2	18	n/a	n/a	n/a	16	n/a	n/a	n/a	n/a
2711460	WORD	wordpools/wasnorm_wordpool_576.txt	LTP260	ltpFR2	18	12	CREVICE	405	n/a	n/a	0	0	0
2714150	WORD	wordpools/wasnorm_wordpool_576.txt	LTP260	ltpFR2	18	12	TURKEY	1520	n/a	n/a	0	0	0
2716881	WORD	wordpools/wasnorm_wordpool_576.txt	LTP260	ltpFR2	18	12	FOOT	590	n/a	n/a	0	0	0
2719436	WORD	wordpools/wasnorm_wordpool_576.txt	LTP260	ltpFR2	18	12	TWEEZERS	1526	n/a	n/a	0	0	0
2722168	WORD	wordpools/wasnorm_wordpool_576.txt	LTP260	ltpFR2	18	12	BOX	159	n/a	n/a	0	0	0
2724928	WORD	wordpools/wasnorm_wordpool_576.txt	LTP260	ltpFR2	18	12	CAFE	216	n/a	n/a	0	0	0
2727650	WORD	wordpools/wasnorm_wordpool_576.txt	LTP260	ltpFR2	18	12	PRINCE	1124	n/a	n/a	0	0	0
2730282	WORD	wordpools/wasnorm_wordpool_576.txt	LTP260	ltpFR2	18	12	PANTHER	1009	n/a	n/a	0	0	0
2732703	WORD	wordpools/wasnorm_wordpool_576.txt	LTP260	ltpFR2	18	12	BEAST	108	n/a	n/a	0	0	0
2735134	WORD	wordpools/wasnorm_wordpool_576.txt	LTP260	ltpFR2	18	12	SHIRT	1287	n/a	n/a	0	0	0
2737956	WORD	wordpools/wasnorm_wordpool_576.txt	LTP260	ltpFR2	18	12	PACKAGE	997	n/a	n/a	0	0	0
2740599	WORD	wordpools/wasnorm_wordpool_576.txt	LTP260	ltpFR2	18	12	PALACE	1006	n/a	n/a	0	0	0
2743047	WORD	wordpools/wasnorm_wordpool_576.txt	LTP260	ltpFR2	18	12	SODA	1341	n/a	n/a	0	0	0
2745556	WORD	wordpools/wasnorm_wordpool_576.txt	LTP260	ltpFR2	18	12	BLENDER	136	n/a	n/a	0	0	0
2748183	WORD	wordpools/wasnorm_wordpool_576.txt	LTP260	ltpFR2	18	12	COUNTY	389	n/a	n/a	0	0	0
2750670	WORD	wordpools/wasnorm_wordpool_576.txt	LTP260	ltpFR2	18	12	FLAG	573	n/a	n/a	0	0	0
2753420	WORD	wordpools/wasnorm_wordpool_576.txt	LTP260	ltpFR2	18	12	DASHBOARD	441	n/a	n/a	0	0	0
2756058	WORD	wordpools/wasnorm_wordpool_576.txt	LTP260	ltpFR2	18	12	PARTNER	1017	n/a	n/a	0	0	0
2758822	WORD	wordpools/wasnorm_wordpool_576.txt	LTP260	ltpFR2	18	12	RIVER	1194	n/a	n/a	0	0	0
2761583	WORD	wordpools/wasnorm_wordpool_576.txt	LTP260	ltpFR2	18	12	JUGGLER	763	n/a	n/a	0	0	0
2764227	WORD	wordpools/wasnorm_wordpool_576.txt	LTP260	ltpFR2	18	12	FRAGRANCE	599	n/a	n/a	0	0	0
2766919	WORD	wordpools/wasnorm_wordpool_576.txt	LTP260	ltpFR2	18	12	PERFUME	1049	n/a	n/a	0	0	0
2769697	WORD	wordpools/wasnorm_wordpool_576.txt	LTP260	ltpFR2	18	12	SPOOL	1356	n/a	n/a	0	0	0
2772490	WORD	wordpools/wasnorm_wordpool_576.txt	LTP260	ltpFR2	18	12	SKIRT	1319	n/a	n/a	0	0	0
2774098	START	n/a	LTP260	ltpFR2	18	n/a	n/a	n/a	17	n/a	n/a	n/a	n/a
2775263	DISTRACTOR	n/a	LTP260	ltpFR2	18	12	n/a	n/a	n/a	n/a	0	0	0
2775281	PROB	n/a	LTP260	ltpFR2	18	n/a	n/a	n/a	17	14	4	6	4
2776489	PROB	n/a	LTP260	ltpFR2	18	n/a	n/a	n/a	17	13	8	1	4
2777622	PROB	n/a	LTP260	ltpFR2	18	n/a	n/a	n/a	17	13	4	3	6
2779562	PROB	n/a	LTP260	ltpFR2	18	n/a	n/a	n/a	17	18	6	9	3
2781642	PROB	n/a	LTP260	ltpFR2	18	n/a	n/a	n/a	17	20	9	3	8
2783561	PROB	n/a	LTP260	ltpFR2	18	n/a	n/a	n/a	17	12	3	4	5
2785239	PROB	n/a	LTP260	ltpFR2	18	n/a	n/a	n/a	17	18	5	7	6
2787226	PROB	n/a	LTP260	ltpFR2	18	n/a	n/a	n/a	17	17	4	9	4
2789233	PROB	n/a	LTP260	ltpFR2	18	n/a	n/a	n/a	17	9	3	4	2
2791312	PROB	n/a	LTP260	ltpFR2	18	n/a	n/a	n/a	17	17	6	6	5
2793232	PROB	n/a	LTP260	ltpFR2	18	n/a	n/a	n/a	17	16	8	3	5
2795022	PROB	n/a	LTP260	ltpFR2	18	n/a	n/a	n/a	17	18	8	1	9
2798098	STOP	n/a	LTP260	ltpFR2	18	n/a	n/a	n/a	17	n/a	n/a	n/a	n/a
2799911	REC_START	n/a	LTP260	ltpFR2	18	12	n/a	n/a	n/a	n/a	0	0	0
2804573	REC_WORD	wordpools/wasnorm_wordpool_576.txt	LTP260	ltpFR2	18	12	PARTNER	1017	n/a	n/a	0	0	0
2805509	REC_WORD	wordpools/wasnorm_wordpool_576.txt	LTP260	ltpFR2	18	12	JUGGLER	763	n/a	n/a	0	0	0
2806574	REC_WORD	wordpools/wasnorm_wordpool_576.txt	LTP260	ltpFR2	18	12	DASHBOARD	441	n/a	n/a	0	0	0
2807885	REC_WORD	wordpools/wasnorm_wordpool_576.txt	LTP260	ltpFR2	18	12	RIVER	1194	n/a	n/a	0	0	0
2811183	REC_WORD	wordpools/wasnorm_wordpool_576.txt	LTP260	ltpFR2	18	12	PALACE	1006	n/a	n/a	0	0	0
2812596	REC_WORD	wordpools/wasnorm_wordpool_576.txt	LTP260	ltpFR2	18	12	CAFE	216	n/a	n/a	0	0	0
2813938	REC_WORD	wordpools/wasnorm_wordpool_576.txt	LTP260	ltpFR2	18	12	CREVICE	405	n/a	n/a	0	0	0
2814697	REC_WORD	wordpools/wasnorm_wordpool_576.txt	LTP260	ltpFR2	18	12	TURKEY	1520	n/a	n/a	0	0	0
2815399	REC_WORD	wordpools/wasnorm_wordpool_576.txt	LTP260	ltpFR2	18	12	FOOT	590	n/a	n/a	0	0	0
2816110	REC_WORD	wordpools/wasnorm_wordpool_576.txt	LTP260	ltpFR2	18	12	PANTHER	1009	n/a	n/a	0	0	0
2818557	REC_WORD	wordpools/wasnorm_wordpool_576.txt	LTP260	ltpFR2	18	12	PRINCE	1124	n/a	n/a	0	0	0
2819238	REC_WORD	wordpools/wasnorm_wordpool_576.txt	LTP260	ltpFR2	18	12	SHIRT	1287	n/a	n/a	0	0	0
2820053	REC_WORD	wordpools/wasnorm_wordpool_576.txt	LTP260	ltpFR2	18	12	SKIRT	1319	n/a	n/a	0	0	0
2821883	REC_WORD	wordpools/wasnorm_wordpool_576.txt	LTP260	ltpFR2	18	12	PACKAGE	997	n/a	n/a	0	0	0
2822806	REC_WORD	wordpools/wasnorm_wordpool_576.txt	LTP260	ltpFR2	18	12	BOX	159	n/a	n/a	0	0	0
2823855	REC_WORD	wordpools/wasnorm_wordpool_576.txt	LTP260	ltpFR2	18	12	FRAGRANCE	599	n/a	n/a	0	0	0
2824675	REC_WORD	wordpools/wasnorm_wordpool_576.txt	LTP260	ltpFR2	18	12	PERFUME	1049	n/a	n/a	0	0	0
2825620	REC_WORD	wordpools/wasnorm_wordpool_576.txt	LTP260	ltpFR2	18	12	TWEEZERS	1526	n/a	n/a	0	0	0
2826529	REC_WORD	wordpools/wasnorm_wordpool_576.txt	LTP260	ltpFR2	18	12	BLENDER	136	n/a	n/a	0	0	0
2827573	REC_WORD	wordpools/wasnorm_wordpool_576.txt	LTP260	ltpFR2	18	12	SODA	1341	n/a	n/a	0	0	0
2830217	REC_WORD	wordpools/wasnorm_wordpool_576.txt	LTP260	ltpFR2	18	12	SPOOL	1356	n/a	n/a	0	0	0
2890970	WORD	wordpools/wasnorm_wordpool_576.txt	LTP260	ltpFR2	18	13	CHIPMUNK	304	n/a	n/a	0	0	0
2893659	WORD	wordpools/wasnorm_wordpool_576.txt	LTP260	ltpFR2	18	13	QUEEN	1149	n/a	n/a	0	0	0
2896275	WORD	wordpools/wasnorm_wordpool_576.txt	LTP260	ltpFR2	18	13	ANTLER	29	n/a	n/a	0	0	0
2898979	WORD	wordpools/wasnorm_wordpool_576.txt	LTP260	ltpFR2	18	13	STAMP	1370	n/a	n/a	0	0	0
2901455	WORD	wordpools/wasnorm_wordpool_576.txt	LTP260	ltpFR2	18	13	HONEY	713	n/a	n/a	0	0	0
2904183	WORD	wordpools/wasnorm_wordpool_576.txt	LTP260	ltpFR2	18	13	HORNET	718	n/a	n/a	0	0	0
2906930	WORD	wordpools/wasnorm_wordpool_576.txt	LTP260	ltpFR2	18	13	ARMY	39	n/a	n/a	0	0	0
2909741	WORD	wordpools/wasnorm_wordpool_576.txt	LTP260	ltpFR2	18	13	RUG	1215	n/a	n/a	0	0	0
2912168	WORD	wordpools/wasnorm_wordpool_576.txt	LTP260	ltpFR2	18	13	HIGHWAY	707	n/a	n/a	0	0	0
2914710	WORD	wordpools/wasnorm_wordpool_576.txt	LTP260	ltpFR2	18	13	LADY	794	n/a	n/a	0	0	0
2917304	WORD	wordpools/wasnorm_wordpool_576.txt	LTP260	ltpFR2	18	13	MILK	895	n/a	n/a	0	0	0
2920110	WORD	wordpools/wasnorm_wordpool_576.txt	LTP260	ltpFR2	18	13	BARLEY	88	n/a	n/a	0	0	0
2922589	WORD	wordpools/wasnorm_wordpool_576.txt	LTP260	ltpFR2	18	13	TUBA	1515	n/a	n/a	0	0	0
2925016	WORD	wordpools/wasnorm_wordpool_576.txt	LTP260	ltpFR2	18	13	MARINE	869	n/a	n/a	0	0	0
2927742	WORD	wordpools/wasnorm_wordpool_576.txt	LTP260	ltpFR2	18	13	GIFT	635	n/a	n/a	0	0	0
2930403	WORD	wordpools/wasnorm_wordpool_576.txt	LTP260	ltpFR2	18	13	BRANDY	169	n/a	n/a	0	0	0
2932890	WORD	wordpools/wasnorm_wordpool_576.txt	LTP260	ltpFR2	18	13	RAZOR	1171	n/a	n/a	0	0	0
2935534	WORD	wordpools/wasnorm_wordpool_576.txt	LTP260	ltpFR2	18	13	YARN	1631	n/a	n/a	0	0	0
2938178	WORD	wordpools/wasnorm_wordpool_576.txt	LTP260	ltpFR2	18	13	INFANT	737	n/a	n/a	0	0	0
2940724	WORD	wordpools/wasnorm_wordpool_576.txt	LTP260	ltpFR2	18	13	CARRIAGE	248	n/a	n/a	0	0	0
2943268	WORD	wordpools/wasnorm_wordpool_576.txt	LTP260	ltpFR2	18	13	CASHEW	253	n/a	n/a	0	0	0
2945743	WORD	wordpools/wasnorm_wordpool_576.txt	LTP260	ltpFR2	18	13	PLAYGROUND	1087	n/a	n/a	0	0	0
2948371	WORD	wordpools/wasnorm_wordpool_576.txt	LTP260	ltpFR2	18	13	TILE	1468	n/a	n/a	0	0	0
2951064	WORD	wordpools/wasnorm_wordpool_576.txt	LTP260	ltpFR2	18	13	ARM	38	n/a	n/a	0	0	0
2952670	START	n/a	LTP260	ltpFR2	18	n/a	n/a	n/a	18	n/a	n/a	n/a	n/a
2953712	DISTRACTOR	n/a	LTP260	ltpFR2	18	13	n/a	n/a	n/a	n/a	0	0	0
2953723	PROB	n/a	LTP260	ltpFR2	18	n/a	n/a	n/a	18	15	5	3	7
2956446	PROB	n/a	LTP260	ltpFR2	18	n/a	n/a	n/a	18	18	6	4	8
2958074	PROB	n/a	LTP260	ltpFR2	18	n/a	n/a	n/a	18	16	4	5	7
2960228	PROB	n/a	LTP260	ltpFR2	18	n/a	n/a	n/a	18	19	9	6	4
2961615	PROB	n/a	LTP260	ltpFR2	18	n/a	n/a	n/a	18	12	4	1	7
2962753	PROB	n/a	LTP260	ltpFR2	18	n/a	n/a	n/a	18	18	5	4	9
2964193	PROB	n/a	LTP260	ltpFR2	18	n/a	n/a	n/a	18	14	9	3	2
2965786	PROB	n/a	LTP260	ltpFR2	18	n/a	n/a	n/a	18	8	3	4	1
2967321	PROB	n/a	LTP260	ltpFR2	18	n/a	n/a	n/a	18	23	9	5	9
2968742	PROB	n/a	LTP260	ltpFR2	18	n/a	n/a	n/a	18	16	5	5	6
2969846	PROB	n/a	LTP260	ltpFR2	18	n/a	n/a	n/a	18	15	7	6	2
2971591	PROB	n/a	LTP260	ltpFR2	18	n/a	n/a	n/a	18	23	5	9	9
2973560	PROB	n/a	LTP260	ltpFR2	18	n/a	n/a	n/a	18	14	1	7	6
2975230	STOP	n/a	LTP260	ltpFR2	18	n/a	n/a	n/a	18	n/a	n/a	n/a	n/a
2978513	REC_START	n/a	LTP260	ltpFR2	18	13	n/a	n/a	n/a	n/a	0	0	0
2979773	REC_WORD	wordpools/wasnorm_wordpool_576.txt	LTP260	ltpFR2	18	13	TILE	1468	n/a	n/a	0	0	0
2981162	REC_WORD	wordpools/wasnorm_wordpool_576.txt	LTP260	ltpFR2	18	13	MARINE	869	n/a	n/a	0	0	0
2982296	REC_WORD	wordpools/wasnorm_wordpool_576.txt	LTP260	ltpFR2	18	13	ARMY	39	n/a	n/a	0	0	0
2983701	REC_WORD	wordpools/wasnorm_wordpool_576.txt	LTP260	ltpFR2	18	13	HIGHWAY	707	n/a	n/a	0	0	0
2985074	REC_WORD	wordpools/wasnorm_wordpool_576.txt	LTP260	ltpFR2	18	13	HORNET	718	n/a	n/a	0	0	0
2986793	REC_WORD	wordpools/wasnorm_wordpool_576.txt	LTP260	ltpFR2	18	13	HONEY	713	n/a	n/a	0	0	0
2988045	REC_WORD	wordpools/wasnorm_wordpool_576.txt	LTP260	ltpFR2	18	13	MILK	895	n/a	n/a	0	0	0
2988902	REC_WORD	wordpools/wasnorm_wordpool_576.txt	LTP260	ltpFR2	18	13	BRANDY	169	n/a	n/a	0	0	0
2990449	REC_WORD	wordpools/wasnorm_wordpool_576.txt	LTP260	ltpFR2	18	13	RUG	1215	n/a	n/a	0	0	0
2991227	REC_WORD	wordpools/wasnorm_wordpool_576.txt	LTP260	ltpFR2	18	13	YARN	1631	n/a	n/a	0	0	0
2992100	REC_WORD	wordpools/wasnorm_wordpool_576.txt	LTP260	ltpFR2	18	13	QUEEN	1149	n/a	n/a	0	0	0
2993060	REC_WORD	wordpools/wasnorm_wordpool_576.txt	LTP260	ltpFR2	18	13	LADY	794	n/a	n/a	0	0	0
2994633	REC_WORD	wordpools/wasnorm_wordpool_576.txt	LTP260	ltpFR2	18	13	STAMP	1370	n/a	n/a	0	0	0
2995976	REC_WORD	wordpools/wasnorm_wordpool_576.txt	LTP260	ltpFR2	18	13	CHIPMUNK	304	n/a	n/a	0	0	0
2996844	REC_WORD	wordpools/wasnorm_wordpool_576.txt	LTP260	ltpFR2	18	13	ANTLER	29	n/a	n/a	0	0	0
3069527	DISTRACTOR	n/a	LTP260	ltpFR2	18	14	n/a	n/a	n/a	n/a	0	0	0
3069527	START	n/a	LTP260	ltpFR2	18	n/a	n/a	n/a	19	n/a	n/a	n/a	n/a
3069577	PROB	n/a	LTP260	ltpFR2	18	n/a	n/a	n/a	19	15	8	1	6
3071864	PROB	n/a	LTP260	ltpFR2	18	n/a	n/a	n/a	19	7	2	1	4
3073392	PROB	n/a	LTP260	ltpFR2	18	n/a	n/a	n/a	19	22	6	9	7
3075178	PROB	n/a	LTP260	ltpFR2	18	n/a	n/a	n/a	19	15	5	4	6
3076649	PROB	n/a	LTP260	ltpFR2	18	n/a	n/a	n/a	19	10	2	5	3
3077837	PROB	n/a	LTP260	ltpFR2	18	n/a	n/a	n/a	19	9	3	3	3
3079025	PROB	n/a	LTP260	ltpFR2	18	n/a	n/a	n/a	19	17	7	8	2
3081088	PROB	n/a	LTP260	ltpFR2	18	n/a	n/a	n/a	19	20	9	3	8
3082588	PROB	n/a	LTP260	ltpFR2	18	n/a	n/a	n/a	19	9	1	1	7
3083843	PROB	n/a	LTP260	ltpFR2	18	n/a	n/a	n/a	19	15	9	4	2
3085333	PROB	n/a	LTP260	ltpFR2	18	n/a	n/a	n/a	19	8	3	2	3
3086842	PROB	n/a	LTP260	ltpFR2	18	n/a	n/a	n/a	19	17	7	7	3
3088460	PROB	n/a	LTP260	ltpFR2	18	n/a	n/a	n/a	19	11	3	7	1
3089753	PROB	n/a	LTP260	ltpFR2	18	n/a	n/a	n/a	19	14	7	3	4
3091405	PROB	n/a	LTP260	ltpFR2	18	n/a	n/a	n/a	19	8	6	1	1
3092390	STOP	n/a	LTP260	ltpFR2	18	n/a	n/a	n/a	19	n/a	n/a	n/a	n/a
3094755	WORD	wordpools/wasnorm_wordpool_576.txt	LTP260	ltpFR2	18	14	PLAZA	1088	n/a	n/a	0	0	0
3097332	WORD	wordpools/wasnorm_wordpool_576.txt	LTP260	ltpFR2	18	14	BRAKE	166	n/a	n/a	0	0	0
3099858	WORD	wordpools/wasnorm_wordpool_576.txt	LTP260	ltpFR2	18	14	OUTDOORS	987	n/a	n/a	0	0	0
3102630	WORD	wordpools/wasnorm_wordpool_576.txt	LTP260	ltpFR2	18	14	CLOTHES	327	n/a	n/a	0	0	0
3105396	WORD	wordpools/wasnorm_wordpool_576.txt	LTP260	ltpFR2	18	14	CATCHER	258	n/a	n/a	0	0	0
3108023	WORD	wordpools/wasnorm_wordpool_576.txt	LTP260	ltpFR2	18	14	UNCLE	1536	n/a	n/a	0	0	0
3110560	WORD	wordpools/wasnorm_wordpool_576.txt	LTP260	ltpFR2	18	14	SCULPTURE	1258	n/a	n/a	0	0	0
3113042	WORD	wordpools/wasnorm_wordpool_576.txt	LTP260	ltpFR2	18	14	UMPIRE	1535	n/a	n/a	0	0	0
3115851	WORD	wordpools/wasnorm_wordpool_576.txt	LTP260	ltpFR2	18	14	APPLE	33	n/a	n/a	0	0	0
3118412	WORD	wordpools/wasnorm_wordpool_576.txt	LTP260	ltpFR2	18	14	PEACH	1031	n/a	n/a	0	0	0
3120870	WORD	wordpools/wasnorm_wordpool_576.txt	LTP260	ltpFR2	18	14	LILY	821	n/a	n/a	0	0	0
3123643	WORD	wordpools/wasnorm_wordpool_576.txt	LTP260	ltpFR2	18	14	BOUQUET	157	n/a	n/a	0	0	0
3126441	WORD	wordpools/wasnorm_wordpool_576.txt	LTP260	ltpFR2	18	14	DUST	508	n/a	n/a	0	0	0
3129114	WORD	wordpools/wasnorm_wordpool_576.txt	LTP260	ltpFR2	18	14	GUITAR	670	n/a	n/a	0	0	0
3131611	WORD	wordpools/wasnorm_wordpool_576.txt	LTP260	ltpFR2	18	14	BREAST	171	n/a	n/a	0	0	0
3134088	WORD	wordpools/wasnorm_wordpool_576.txt	LTP260	ltpFR2	18	14	GRILL	661	n/a	n/a	0	0	0
3136813	WORD	wordpools/wasnorm_wordpool_576.txt	LTP260	ltpFR2	18	14	TORTOISE	1486	n/a	n/a	0	0	0
3139440	WORD	wordpools/wasnorm_wordpool_576.txt	LTP260	ltpFR2	18	14	RELISH	1183	n/a	n/a	0	0	0
3141966	WORD	wordpools/wasnorm_wordpool_576.txt	LTP260	ltpFR2	18	14	BROTHER	179	n/a	n/a	0	0	0
3144476	WORD	wordpools/wasnorm_wordpool_576.txt	LTP260	ltpFR2	18	14	RABBIT	1152	n/a	n/a	0	0	0
3147120	WORD	wordpools/wasnorm_wordpool_576.txt	LTP260	ltpFR2	18	14	BANK	83	n/a	n/a	0	0	0
3149779	WORD	wordpools/wasnorm_wordpool_576.txt	LTP260	ltpFR2	18	14	PICTURE	1061	n/a	n/a	0	0	0
3152373	WORD	wordpools/wasnorm_wordpool_576.txt	LTP260	ltpFR2	18	14	CLOCK	325	n/a	n/a	0	0	0
3154949	WORD	wordpools/wasnorm_wordpool_576.txt	LTP260	ltpFR2	18	14	TROMBONE	1508	n/a	n/a	0	0	0
3156555	START	n/a	LTP260	ltpFR2	18	n/a	n/a	n/a	20	n/a	n/a	n/a	n/a
3157670	DISTRACTOR	n/a	LTP260	ltpFR2	18	14	n/a	n/a	n/a	n/a	0	0	0
3157688	PROB	n/a	LTP260	ltpFR2	18	n/a	n/a	n/a	20	18	6	6	6
3159060	PROB	n/a	LTP260	ltpFR2	18	n/a	n/a	n/a	20	19	6	6	7
3160799	PROB	n/a	LTP260	ltpFR2	18	n/a	n/a	n/a	20	10	1	5	4
3161920	PROB	n/a	LTP260	ltpFR2	18	n/a	n/a	n/a	20	20	7	8	5
3164079	PROB	n/a	LTP260	ltpFR2	18	n/a	n/a	n/a	20	13	3	4	6
3166355	PROB	n/a	LTP260	ltpFR2	18	n/a	n/a	n/a	20	15	1	8	6
3167893	PROB	n/a	LTP260	ltpFR2	18	n/a	n/a	n/a	20	14	3	9	2
3169371	PROB	n/a	LTP260	ltpFR2	18	n/a	n/a	n/a	20	19	2	9	8
3171010	PROB	n/a	LTP260	ltpFR2	18	n/a	n/a	n/a	20	13	6	2	5
3173034	PROB	n/a	LTP260	ltpFR2	18	n/a	n/a	n/a	20	7	4	1	2
3174534	PROB	n/a	LTP260	ltpFR2	18	n/a	n/a	n/a	20	8	3	2	3
3176225	PROB	n/a	LTP260	ltpFR2	18	n/a	n/a	n/a	20	12	4	5	3
3177713	PROB	n/a	LTP260	ltpFR2	18	n/a	n/a	n/a	20	10	2	4	4
3179006	STOP	n/a	LTP260	ltpFR2	18	n/a	n/a	n/a	20	n/a	n/a	n/a	n/a
3182349	REC_START	n/a	LTP260	ltpFR2	18	14	n/a	n/a	n/a	n/a	0	0	0
3183947	REC_WORD	wordpools/wasnorm_wordpool_576.txt	LTP260	ltpFR2	18	14	TORTOISE	1486	n/a	n/a	0	0	0
3185103	REC_WORD	wordpools/wasnorm_wordpool_576.txt	LTP260	ltpFR2	18	14	RABBIT	1152	n/a	n/a	0	0	0
3186060	REC_WORD	wordpools/wasnorm_wordpool_576.txt	LTP260	ltpFR2	18	14	GRILL	661	n/a	n/a	0	0	0
3186936	REC_WORD	wordpools/wasnorm_wordpool_576.txt	LTP260	ltpFR2	18	14	RELISH	1183	n/a	n/a	0	0	0
3187809	REC_WORD	wordpools/wasnorm_wordpool_576.txt	LTP260	ltpFR2	18	14	BANK	83	n/a	n/a	0	0	0
3188561	REC_WORD	wordpools/wasnorm_wordpool_576.txt	LTP260	ltpFR2	18	14	PICTURE	1061	n/a	n/a	0	0	0
3189296	REC_WORD	wordpools/wasnorm_wordpool_576.txt	LTP260	ltpFR2	18	14	CLOCK	325	n/a	n/a	0	0	0
3191054	REC_WORD	wordpools/wasnorm_wordpool_576.txt	LTP260	ltpFR2	18	14	SCULPTURE	1258	n/a	n/a	0	0	0
3192894	REC_WORD	wordpools/wasnorm_wordpool_576.txt	LTP260	ltpFR2	18	14	GUITAR	670	n/a	n/a	0	0	0
3193960	REC_WORD	wordpools/wasnorm_wordpool_576.txt	LTP260	ltpFR2	18	14	TROMBONE	1508	n/a	n/a	0	0	0
3195227	REC_WORD	wordpools/wasnorm_wordpool_576.txt	LTP260	ltpFR2	18	14	BREAST	171	n/a	n/a	0	0	0
3196656	REC_WORD	wordpools/wasnorm_wordpool_576.txt	LTP260	ltpFR2	18	14	BOUQUET	157	n/a	n/a	0	0	0
3198574	REC_WORD	wordpools/wasnorm_wordpool_576.txt	LTP260	ltpFR2	18	14	LILY	821	n/a	n/a	0	0	0
3200469	REC_WORD	wordpools/wasnorm_wordpool_576.txt	LTP260	ltpFR2	18	14	PEACH	1031	n/a	n/a	0	0	0
3201253	REC_WORD	wordpools/wasnorm_wordpool_576.txt	LTP260	ltpFR2	18	14	APPLE	33	n/a	n/a	0	0	0
3202374	REC_WORD	wordpools/wasnorm_wordpool_576.txt	LTP260	ltpFR2	18	14	PLAZA	1088	n/a	n/a	0	0	0
3203192	REC_WORD	wordpools/wasnorm_wordpool_576.txt	LTP260	ltpFR2	18	14	OUTDOORS	987	n/a	n/a	0	0	0
3204184	REC_WORD	wordpools/wasnorm_wordpool_576.txt	LTP260	ltpFR2	18	14	DUST	508	n/a	n/a	0	0	0
3205594	REC_WORD	wordpools/wasnorm_wordpool_576.txt	LTP260	ltpFR2	18	14	BROTHER	179	n/a	n/a	0	0	0
3206876	REC_WORD	wordpools/wasnorm_wordpool_576.txt	LTP260	ltpFR2	18	14	UNCLE	1536	n/a	n/a	0	0	0
3207831	REC_WORD	wordpools/wasnorm_wordpool_576.txt	LTP260	ltpFR2	18	14	CATCHER	258	n/a	n/a	0	0	0
3208678	REC_WORD	wordpools/wasnorm_wordpool_576.txt	LTP260	ltpFR2	18	14	UMPIRE	1535	n/a	n/a	0	0	0
3209570	REC_WORD	wordpools/wasnorm_wordpool_576.txt	LTP260	ltpFR2	18	14	CLOTHES	327	n/a	n/a	0	0	0
3211508	REC_WORD	wordpools/wasnorm_wordpool_576.txt	LTP260	ltpFR2	18	14	BRAKE	166	n/a	n/a	0	0	0
3273396	WORD	wordpools/wasnorm_wordpool_576.txt	LTP260	ltpFR2	18	15	ROCKET	1202	n/a	n/a	0	0	0
3276102	WORD	wordpools/wasnorm_wordpool_576.txt	LTP260	ltpFR2	18	15	OX	994	n/a	n/a	0	0	0
3278765	WORD	wordpools/wasnorm_wordpool_576.txt	LTP260	ltpFR2	18	15	TRENCH	1503	n/a	n/a	0	0	0
3281242	WORD	wordpools/wasnorm_wordpool_576.txt	LTP260	ltpFR2	18	15	KNIFE	785	n/a	n/a	0	0	0
3283997	WORD	wordpools/wasnorm_wordpool_576.txt	LTP260	ltpFR2	18	15	HUSBAND	728	n/a	n/a	0	0	0
3286494	WORD	wordpools/wasnorm_wordpool_576.txt	LTP260	ltpFR2	18	15	CATTLE	261	n/a	n/a	0	0	0
3289100	WORD	wordpools/wasnorm_wordpool_576.txt	LTP260	ltpFR2	18	15	BISON	131	n/a	n/a	0	0	0
3291747	WORD	wordpools/wasnorm_wordpool_576.txt	LTP260	ltpFR2	18	15	HOOK	715	n/a	n/a	0	0	0
3294508	WORD	wordpools/wasnorm_wordpool_576.txt	LTP260	ltpFR2	18	15	WORLD	1622	n/a	n/a	0	0	0
3297186	WORD	wordpools/wasnorm_wordpool_576.txt	LTP260	ltpFR2	18	15	TOMBSTONE	1478	n/a	n/a	0	0	0
3299711	WORD	wordpools/wasnorm_wordpool_576.txt	LTP260	ltpFR2	18	15	PERCH	1048	n/a	n/a	0	0	0
3302283	WORD	wordpools/wasnorm_wordpool_576.txt	LTP260	ltpFR2	18	15	DANDRUFF	439	n/a	n/a	0	0	0
3304730	WORD	wordpools/wasnorm_wordpool_576.txt	LTP260	ltpFR2	18	15	ROBBER	1197	n/a	n/a	0	0	0
3307473	WORD	wordpools/wasnorm_wordpool_576.txt	LTP260	ltpFR2	18	15	PUPIL	1143	n/a	n/a	0	0	0
3310252	WORD	wordpools/wasnorm_wordpool_576.txt	LTP260	ltpFR2	18	15	FOREHEAD	592	n/a	n/a	0	0	0
3312994	WORD	wordpools/wasnorm_wordpool_576.txt	LTP260	ltpFR2	18	15	RADISH	1158	n/a	n/a	0	0	0
3315437	WORD	wordpools/wasnorm_wordpool_576.txt	LTP260	ltpFR2	18	15	COUSIN	392	n/a	n/a	0	0	0
3318244	WORD	wordpools/wasnorm_wordpool_576.txt	LTP260	ltpFR2	18	15	CEILING	265	n/a	n/a	0	0	0
3320824	WORD	wordpools/wasnorm_wordpool_576.txt	LTP260	ltpFR2	18	15	CLOUD	328	n/a	n/a	0	0	0
3323346	WORD	wordpools/wasnorm_wordpool_576.txt	LTP260	ltpFR2	18	15	DUSTPAN	509	n/a	n/a	0	0	0
3326023	WORD	wordpools/wasnorm_wordpool_576.txt	LTP260	ltpFR2	18	15	MOP	916	n/a	n/a	0	0	0
3328620	WORD	wordpools/wasnorm_wordpool_576.txt	LTP260	ltpFR2	18	15	POWDER	1117	n/a	n/a	0	0	0
3331047	WORD	wordpools/wasnorm_wordpool_576.txt	LTP260	ltpFR2	18	15	GAZELLE	628	n/a	n/a	0	0	0
3333839	WORD	wordpools/wasnorm_wordpool_576.txt	LTP260	ltpFR2	18	15	OUTLAW	989	n/a	n/a	0	0	0
3335446	START	n/a	LTP260	ltpFR2	18	n/a	n/a	n/a	21	n/a	n/a	n/a	n/a
3336331	DISTRACTOR	n/a	LTP260	ltpFR2	18	15	n/a	n/a	n/a	n/a	0	0	0
3336345	PROB	n/a	LTP260	ltpFR2	18	n/a	n/a	n/a	21	17	9	2	6
3338290	PROB	n/a	LTP260	ltpFR2	18	n/a	n/a	n/a	21	11	3	1	7
3339311	PROB	n/a	LTP260	ltpFR2	18	n/a	n/a	n/a	21	19	7	5	7
3340632	PROB	n/a	LTP260	ltpFR2	18	n/a	n/a	n/a	21	13	8	1	4
3342401	PROB	n/a	LTP260	ltpFR2	18	n/a	n/a	n/a	21	13	3	4	6
3344927	PROB	n/a	LTP260	ltpFR2	18	n/a	n/a	n/a	21	17	3	6	8
3346366	PROB	n/a	LTP260	ltpFR2	18	n/a	n/a	n/a	21	17	2	9	6
3348490	PROB	n/a	LTP260	ltpFR2	18	n/a	n/a	n/a	21	10	1	7	2
3349816	PROB	n/a	LTP260	ltpFR2	18	n/a	n/a	n/a	21	11	1	7	3
3350882	PROB	n/a	LTP260	ltpFR2	18	n/a	n/a	n/a	21	19	4	8	7
3353359	PROB	n/a	LTP260	ltpFR2	18	n/a	n/a	n/a	21	12	7	1	4
3354663	PROB	n/a	LTP260	ltpFR2	18	n/a	n/a	n/a	21	16	3	6	7
3356704	PROB	n/a	LTP260	ltpFR2	18	n/a	n/a	n/a	21	16	9	2	5
3359190	STOP	n/a	LTP260	ltpFR2	18	n/a	n/a	n/a	21	n/a	n/a	n/a	n/a
3361395	REC_START	n/a	LTP260	ltpFR2	18	15	n/a	n/a	n/a	n/a	0	0	0
3363554	REC_WORD	wordpools/wasnorm_wordpool_576.txt	LTP260	ltpFR2	18	15	CATTLE	261	n/a	n/a	0	0	0
3365092	REC_WORD	wordpools/wasnorm_wordpool_576.txt	LTP260	ltpFR2	18	15	OX	994	n/a	n/a	0	0	0
3365991	REC_WORD	wordpools/wasnorm_wordpool_576.txt	LTP260	ltpFR2	18	15	BISON	131	n/a	n/a	0	0	0
3366795	REC_WORD	wordpools/wasnorm_wordpool_576.txt	LTP260	ltpFR2	18	15	GAZELLE	628	n/a	n/a	0	0	0
3368165	REC_WORD	wordpools/wasnorm_wordpool_576.txt	LTP260	ltpFR2	18	15	HUSBAND	728	n/a	n/a	0	0	0
3369218	REC_WORD	wordpools/wasnorm_wordpool_576.txt	LTP260	ltpFR2	18	15	DANDRUFF	439	n/a	n/a	0	0	0
3371007	REC_WORD	wordpools/wasnorm_wordpool_576.txt	LTP260	ltpFR2	18	15	RADISH	1158	n/a	n/a	0	0	0
3372698	REC_WORD	wordpools/wasnorm_wordpool_576.txt	LTP260	ltpFR2	18	15	FOREHEAD	592	n/a	n/a	0	0	0
3376087	REC_WORD	wordpools/wasnorm_wordpool_576.txt	LTP260	ltpFR2	18	15	ROBBER	1197	n/a	n/a	0	0	0
3377127	REC_WORD	wordpools/wasnorm_wordpool_576.txt	LTP260	ltpFR2	18	15	PUPIL	1143	n/a	n/a	0	0	0
3378141	REC_WORD	wordpools/wasnorm_wordpool_576.txt	LTP260	ltpFR2	18	15	COUSIN	392	n/a	n/a	0	0	0
3380859	REC_WORD	wordpools/wasnorm_wordpool_576.txt	LTP260	ltpFR2	18	15	TRENCH	1503	n/a	n/a	0	0	0
3381687	REC_WORD	wordpools/wasnorm_wordpool_576.txt	LTP260	ltpFR2	18	15	ROCKET	1202	n/a	n/a	0	0	0
3382667	REC_WORD	wordpools/wasnorm_wordpool_576.txt	LTP260	ltpFR2	18	15	HOOK	715	n/a	n/a	0	0	0
3383510	REC_WORD	wordpools/wasnorm_wordpool_576.txt	LTP260	ltpFR2	18	15	KNIFE	785	n/a	n/a	0	0	0
3385005	REC_WORD	wordpools/wasnorm_wordpool_576.txt	LTP260	ltpFR2	18	15	TOMBSTONE	1478	n/a	n/a	0	0	0
3385954	REC_WORD	wordpools/wasnorm_wordpool_576.txt	LTP260	ltpFR2	18	15	WORLD	1622	n/a	n/a	0	0	0
3386756	REC_WORD	wordpools/wasnorm_wordpool_576.txt	LTP260	ltpFR2	18	15	PERCH	1048	n/a	n/a	0	0	0
3388528	REC_WORD	wordpools/wasnorm_wordpool_576.txt	LTP260	ltpFR2	18	15	MOP	916	n/a	n/a	0	0	0
3389352	REC_WORD	wordpools/wasnorm_wordpool_576.txt	LTP260	ltpFR2	18	15	DUSTPAN	509	n/a	n/a	0	0	0
3390272	REC_WORD	wordpools/wasnorm_wordpool_576.txt	LTP260	ltpFR2	18	15	POWDER	1117	n/a	n/a	0	0	0
3394562	REC_WORD	wordpools/wasnorm_wordpool_576.txt	LTP260	ltpFR2	18	15	ROCKET	1202	n/a	n/a	0	0	0
3395093	REC_WORD	wordpools/wasnorm_wordpool_576.txt	LTP260	ltpFR2	18	15	KNIFE	785	n/a	n/a	0	0	0
3398404	REC_WORD	wordpools/wasnorm_wordpool_576.txt	LTP260	ltpFR2	18	15	CEILING	265	n/a	n/a	0	0	0
3399370	REC_WORD	wordpools/wasnorm_wordpool_576.txt	LTP260	ltpFR2	18	15	CLOUD	328	n/a	n/a	0	0	0
3411724	REC_WORD	wordpools/wasnorm_wordpool_576.txt	LTP260	ltpFR2	18	15	OUTLAW	989	n/a	n/a	0	0	0
3452421	DISTRACTOR	n/a	LTP260	ltpFR2	18	16	n/a	n/a	n/a	n/a	0	0	0
3452421	START	n/a	LTP260	ltpFR2	18	n/a	n/a	n/a	22	n/a	n/a	n/a	n/a
3452470	PROB	n/a	LTP260	ltpFR2	18	n/a	n/a	n/a	22	14	8	5	1
3454039	PROB	n/a	LTP260	ltpFR2	18	n/a	n/a	n/a	22	18	3	7	8
3455160	PROB	n/a	LTP260	ltpFR2	18	n/a	n/a	n/a	22	11	6	3	2
3457434	PROB	n/a	LTP260	ltpFR2	18	n/a	n/a	n/a	22	17	1	9	7
3458710	PROB	n/a	LTP260	ltpFR2	18	n/a	n/a	n/a	22	22	7	8	7
3460095	PROB	n/a	LTP260	ltpFR2	18	n/a	n/a	n/a	22	23	7	7	9
3461533	PROB	n/a	LTP260	ltpFR2	18	n/a	n/a	n/a	22	13	2	4	7
3463173	PROB	n/a	LTP260	ltpFR2	18	n/a	n/a	n/a	22	23	6	8	9
3465248	PROB	n/a	LTP260	ltpFR2	18	n/a	n/a	n/a	22	18	9	3	6
3466774	PROB	n/a	LTP260	ltpFR2	18	n/a	n/a	n/a	22	10	2	5	3
3468025	PROB	n/a	LTP260	ltpFR2	18	n/a	n/a	n/a	22	16	3	4	9
3469463	PROB	n/a	LTP260	ltpFR2	18	n/a	n/a	n/a	22	16	9	3	4
3470868	PROB	n/a	LTP260	ltpFR2	18	n/a	n/a	n/a	22	16	5	5	6
3472040	PROB	n/a	LTP260	ltpFR2	18	n/a	n/a	n/a	22	10	3	5	2
3473800	PROB	n/a	LTP260	ltpFR2	18	n/a	n/a	n/a	22	19	9	5	5
3474997	STOP	n/a	LTP260	ltpFR2	18	n/a	n/a	n/a	22	n/a	n/a	n/a	n/a
3477648	WORD	wordpools/wasnorm_wordpool_576.txt	LTP260	ltpFR2	18	16	BACON	67	n/a	n/a	0	0	0
3480410	WORD	wordpools/wasnorm_wordpool_576.txt	LTP260	ltpFR2	18	16	BUNNY	198	n/a	n/a	0	0	0
3482935	WORD	wordpools/wasnorm_wordpool_576.txt	LTP260	ltpFR2	18	16	MAILMAN	858	n/a	n/a	0	0	0
3485712	WORD	wordpools/wasnorm_wordpool_576.txt	LTP260	ltpFR2	18	16	ROD	1203	n/a	n/a	0	0	0
3488134	WORD	wordpools/wasnorm_wordpool_576.txt	LTP260	ltpFR2	18	16	PEBBLE	1035	n/a	n/a	0	0	0
3490563	WORD	wordpools/wasnorm_wordpool_576.txt	LTP260	ltpFR2	18	16	SPACE	1345	n/a	n/a	0	0	0
3493057	WORD	wordpools/wasnorm_wordpool_576.txt	LTP260	ltpFR2	18	16	CRICKET	408	n/a	n/a	0	0	0
3495745	WORD	wordpools/wasnorm_wordpool_576.txt	LTP260	ltpFR2	18	16	BUG	187	n/a	n/a	0	0	0
3498310	WORD	wordpools/wasnorm_wordpool_576.txt	LTP260	ltpFR2	18	16	LETTUCE	814	n/a	n/a	0	0	0
3500936	WORD	wordpools/wasnorm_wordpool_576.txt	LTP260	ltpFR2	18	16	SANDWICH	1232	n/a	n/a	0	0	0
3503696	WORD	wordpools/wasnorm_wordpool_576.txt	LTP260	ltpFR2	18	16	BABY	64	n/a	n/a	0	0	0
3506140	WORD	wordpools/wasnorm_wordpool_576.txt	LTP260	ltpFR2	18	16	CABBAGE	210	n/a	n/a	0	0	0
3508765	WORD	wordpools/wasnorm_wordpool_576.txt	LTP260	ltpFR2	18	16	STUDENT	1395	n/a	n/a	0	0	0
3511293	WORD	wordpools/wasnorm_wordpool_576.txt	LTP260	ltpFR2	18	16	GARLIC	624	n/a	n/a	0	0	0
3514048	WORD	wordpools/wasnorm_wordpool_576.txt	LTP260	ltpFR2	18	16	RATTLE	1170	n/a	n/a	0	0	0
3516678	WORD	wordpools/wasnorm_wordpool_576.txt	LTP260	ltpFR2	18	16	CRIB	407	n/a	n/a	0	0	0
3519339	WORD	wordpools/wasnorm_wordpool_576.txt	LTP260	ltpFR2	18	16	CARROT	249	n/a	n/a	0	0	0
3521831	WORD	wordpools/wasnorm_wordpool_576.txt	LTP260	ltpFR2	18	16	BANKER	84	n/a	n/a	0	0	0
3524592	WORD	wordpools/wasnorm_wordpool_576.txt	LTP260	ltpFR2	18	16	GYMNAST	675	n/a	n/a	0	0	0
3527236	WORD	wordpools/wasnorm_wordpool_576.txt	LTP260	ltpFR2	18	16	FOOTBALL	591	n/a	n/a	0	0	0
3529962	WORD	wordpools/wasnorm_wordpool_576.txt	LTP260	ltpFR2	18	16	SPHINX	1349	n/a	n/a	0	0	0
3532433	WORD	wordpools/wasnorm_wordpool_576.txt	LTP260	ltpFR2	18	16	CORAL	378	n/a	n/a	0	0	0
3534897	WORD	wordpools/wasnorm_wordpool_576.txt	LTP260	ltpFR2	18	16	EAGLE	512	n/a	n/a	0	0	0
3537540	WORD	wordpools/wasnorm_wordpool_576.txt	LTP260	ltpFR2	18	16	BODY	145	n/a	n/a	0	0	0
3539148	START	n/a	LTP260	ltpFR2	18	n/a	n/a	n/a	23	n/a	n/a	n/a	n/a
3540172	DISTRACTOR	n/a	LTP260	ltpFR2	18	16	n/a	n/a	n/a	n/a	0	0	0
3540185	PROB	n/a	LTP260	ltpFR2	18	n/a	n/a	n/a	23	5	1	2	2
3541301	PROB	n/a	LTP260	ltpFR2	18	n/a	n/a	n/a	23	12	3	7	2
3542438	PROB	n/a	LTP260	ltpFR2	18	n/a	n/a	n/a	23	11	1	3	7
3543508	PROB	n/a	LTP260	ltpFR2	18	n/a	n/a	n/a	23	26	9	9	8
3544952	PROB	n/a	LTP260	ltpFR2	18	n/a	n/a	n/a	23	25	8	9	8
3546603	PROB	n/a	LTP260	ltpFR2	18	n/a	n/a	n/a	23	15	8	1	6
3548232	PROB	n/a	LTP260	ltpFR2	18	n/a	n/a	n/a	23	16	8	3	5
3550017	PROB	n/a	LTP260	ltpFR2	18	n/a	n/a	n/a	23	15	4	7	4
3551606	PROB	n/a	LTP260	ltpFR2	18	n/a	n/a	n/a	23	14	4	4	6
3553479	PROB	n/a	LTP260	ltpFR2	18	n/a	n/a	n/a	23	19	4	6	9
3555137	PROB	n/a	LTP260	ltpFR2	18	n/a	n/a	n/a	23	19	4	9	6
3556424	PROB	n/a	LTP260	ltpFR2	18	n/a	n/a	n/a	23	13	3	7	3
3557494	PROB	n/a	LTP260	ltpFR2	18	n/a	n/a	n/a	23	17	6	7	4
3560323	PROB	n/a	LTP260	ltpFR2	18	n/a	n/a	n/a	23	11	1	6	4
3561464	PROB	n/a	LTP260	ltpFR2	18	n/a	n/a	n/a	23	16	5	8	3
3562797	STOP	n/a	LTP260	ltpFR2	18	n/a	n/a	n/a	23	n/a	n/a	n/a	n/a
3565091	REC_START	n/a	LTP260	ltpFR2	18	16	n/a	n/a	n/a	n/a	0	0	0
3566143	REC_WORD	wordpools/wasnorm_wordpool_576.txt	LTP260	ltpFR2	18	16	BODY	145	n/a	n/a	0	0	0
3568336	REC_WORD	wordpools/wasnorm_wordpool_576.txt	LTP260	ltpFR2	18	16	SPHINX	1349	n/a	n/a	0	0	0
3569555	REC_WORD	wordpools/wasnorm_wordpool_576.txt	LTP260	ltpFR2	18	16	EAGLE	512	n/a	n/a	0	0	0
3571153	REC_WORD	wordpools/wasnorm_wordpool_576.txt	LTP260	ltpFR2	18	16	BANKER	84	n/a	n/a	0	0	0
3571900	REC_WORD	wordpools/wasnorm_wordpool_576.txt	LTP260	ltpFR2	18	16	FOOTBALL	591	n/a	n/a	0	0	0
3572865	REC_WORD	wordpools/wasnorm_wordpool_576.txt	LTP260	ltpFR2	18	16	GYMNAST	675	n/a	n/a	0	0	0
3574012	REC_WORD	wordpools/wasnorm_wordpool_576.txt	LTP260	ltpFR2	18	16	STUDENT	1395	n/a	n/a	0	0	0
3575081	REC_WORD	wordpools/wasnorm_wordpool_576.txt	LTP260	ltpFR2	18	16	SPACE	1345	n/a	n/a	0	0	0
3577999	REC_WORD	wordpools/wasnorm_wordpool_576.txt	LTP260	ltpFR2	18	16	CRIB	407	n/a	n/a	0	0	0
3578997	REC_WORD	wordpools/wasnorm_wordpool_576.txt	LTP260	ltpFR2	18	16	BABY	64	n/a	n/a	0	0	0
3580645	REC_WORD	wordpools/wasnorm_wordpool_576.txt	LTP260	ltpFR2	18	16	RATTLE	1170	n/a	n/a	0	0	0
3581961	REC_WORD	wordpools/wasnorm_wordpool_576.txt	LTP260	ltpFR2	18	16	SANDWICH	1232	n/a	n/a	0	0	0
3583381	REC_WORD	wordpools/wasnorm_wordpool_576.txt	LTP260	ltpFR2	18	16	CABBAGE	210	n/a	n/a	0	0	0
3584931	REC_WORD	wordpools/wasnorm_wordpool_576.txt	LTP260	ltpFR2	18	16	BACON	67	n/a	n/a	0	0	0
3585742	REC_WORD	wordpools/wasnorm_wordpool_576.txt	LTP260	ltpFR2	18	16	GARLIC	624	n/a	n/a	0	0	0
3586688	REC_WORD	wordpools/wasnorm_wordpool_576.txt	LTP260	ltpFR2	18	16	CARROT	249	n/a	n/a	0	0	0
3587801	REC_WORD	wordpools/wasnorm_wordpool_576.txt	LTP260	ltpFR2	18	16	LETTUCE	814	n/a	n/a	0	0	0
3588710	REC_WORD	wordpools/wasnorm_wordpool_576.txt	LTP260	ltpFR2	18	16	BUG	187	n/a	n/a	0	0	0
3589324	REC_WORD	wordpools/wasnorm_wordpool_576.txt	LTP260	ltpFR2	18	16	CRICKET	408	n/a	n/a	0	0	0
3590154	REC_WORD	wordpools/wasnorm_wordpool_576.txt	LTP260	ltpFR2	18	16	BUNNY	198	n/a	n/a	0	0	0
3591879	REC_WORD	wordpools/wasnorm_wordpool_576.txt	LTP260	ltpFR2	18	16	MAILMAN	858	n/a	n/a	0	0	0
3592735	REC_WORD	wordpools/wasnorm_wordpool_576.txt	LTP260	ltpFR2	18	16	ROD	1203	n/a	n/a	0	0	0
3594621	REC_WORD	wordpools/wasnorm_wordpool_576.txt	LTP260	ltpFR2	18	16	PEBBLE	1035	n/a	n/a	0	0	0
3600387	REC_WORD	wordpools/wasnorm_wordpool_576.txt	LTP260	ltpFR2	18	16	CORAL	378	n/a	n/a	0	0	0
3606372	REC_WORD	wordpools/wasnorm_wordpool_576.txt	LTP260	ltpFR2	18	16	STUDENT	1395	n/a	n/a	0	0	0
3641850	REST_REWET	n/a	LTP260	ltpFR2	18	16	n/a	n/a	n/a	n/a	0	0	0
3993844	WORD	wordpools/wasnorm_wordpool_576.txt	LTP260	ltpFR2	18	17	OINTMENT	974	n/a	n/a	0	0	0
3996532	WORD	wordpools/wasnorm_wordpool_576.txt	LTP260	ltpFR2	18	17	PAIL	1002	n/a	n/a	0	0	0
3999327	WORD	wordpools/wasnorm_wordpool_576.txt	LTP260	ltpFR2	18	17	WARDROBE	1587	n/a	n/a	0	0	0
4002142	WORD	wordpools/wasnorm_wordpool_576.txt	LTP260	ltpFR2	18	17	BUREAU	199	n/a	n/a	0	0	0
4004668	WORD	wordpools/wasnorm_wordpool_576.txt	LTP260	ltpFR2	18	17	GLOVE	642	n/a	n/a	0	0	0
4007379	WORD	wordpools/wasnorm_wordpool_576.txt	LTP260	ltpFR2	18	17	HAND	683	n/a	n/a	0	0	0
4010039	WORD	wordpools/wasnorm_wordpool_576.txt	LTP260	ltpFR2	18	17	BULLET	194	n/a	n/a	0	0	0
4012531	WORD	wordpools/wasnorm_wordpool_576.txt	LTP260	ltpFR2	18	17	SURVEY	1414	n/a	n/a	0	0	0
4015204	WORD	wordpools/wasnorm_wordpool_576.txt	LTP260	ltpFR2	18	17	JUDGE	761	n/a	n/a	0	0	0
4017729	WORD	wordpools/wasnorm_wordpool_576.txt	LTP260	ltpFR2	18	17	ONION	977	n/a	n/a	0	0	0
4020261	WORD	wordpools/wasnorm_wordpool_576.txt	LTP260	ltpFR2	18	17	HOOD	714	n/a	n/a	0	0	0
4022786	WORD	wordpools/wasnorm_wordpool_576.txt	LTP260	ltpFR2	18	17	PIGMENT	1066	n/a	n/a	0	0	0
4025359	WORD	wordpools/wasnorm_wordpool_576.txt	LTP260	ltpFR2	18	17	COWBOY	395	n/a	n/a	0	0	0
4028153	WORD	wordpools/wasnorm_wordpool_576.txt	LTP260	ltpFR2	18	17	AGENT	10	n/a	n/a	0	0	0
4030661	WORD	wordpools/wasnorm_wordpool_576.txt	LTP260	ltpFR2	18	17	CITRUS	313	n/a	n/a	0	0	0
4033426	WORD	wordpools/wasnorm_wordpool_576.txt	LTP260	ltpFR2	18	17	GAVEL	627	n/a	n/a	0	0	0
4036171	WORD	wordpools/wasnorm_wordpool_576.txt	LTP260	ltpFR2	18	17	CLAM	315	n/a	n/a	0	0	0
4038930	WORD	wordpools/wasnorm_wordpool_576.txt	LTP260	ltpFR2	18	17	PEDAL	1037	n/a	n/a	0	0	0
4041374	WORD	wordpools/wasnorm_wordpool_576.txt	LTP260	ltpFR2	18	17	HEART	697	n/a	n/a	0	0	0
4043999	WORD	wordpools/wasnorm_wordpool_576.txt	LTP260	ltpFR2	18	17	SUITCASE	1403	n/a	n/a	0	0	0
4046722	WORD	wordpools/wasnorm_wordpool_576.txt	LTP260	ltpFR2	18	17	MARKER	870	n/a	n/a	0	0	0
4049304	WORD	wordpools/wasnorm_wordpool_576.txt	LTP260	ltpFR2	18	17	BOARD	143	n/a	n/a	0	0	0
4051829	WORD	wordpools/wasnorm_wordpool_576.txt	LTP260	ltpFR2	18	17	CABIN	211	n/a	n/a	0	0	0
4054356	WORD	wordpools/wasnorm_wordpool_576.txt	LTP260	ltpFR2	18	17	CELLAR	267	n/a	n/a	0	0	0
4055973	START	n/a	LTP260	ltpFR2	18	n/a	n/a	n/a	24	n/a	n/a	n/a	n/a
4056857	DISTRACTOR	n/a	LTP260	ltpFR2	18	17	n/a	n/a	n/a	n/a	0	0	0
4056864	PROB	n/a	LTP260	ltpFR2	18	n/a	n/a	n/a	24	5	2	1	2
4057947	PROB	n/a	LTP260	ltpFR2	18	n/a	n/a	n/a	24	19	9	8	2
4059625	PROB	n/a	LTP260	ltpFR2	18	n/a	n/a	n/a	24	12	6	1	5
4060947	PROB	n/a	LTP260	ltpFR2	18	n/a	n/a	n/a	24	16	4	4	8
4062231	PROB	n/a	LTP260	ltpFR2	18	n/a	n/a	n/a	24	13	5	4	4
4064406	PROB	n/a	LTP260	ltpFR2	18	n/a	n/a	n/a	24	23	9	5	9
4065911	PROB	n/a	LTP260	ltpFR2	18	n/a	n/a	n/a	24	24	6	9	9
4067617	PROB	n/a	LTP260	ltpFR2	18	n/a	n/a	n/a	24	10	1	1	8
4068704	PROB	n/a	LTP260	ltpFR2	18	n/a	n/a	n/a	24	15	4	8	3
4070194	PROB	n/a	LTP260	ltpFR2	18	n/a	n/a	n/a	24	19	8	3	8
4071783	PROB	n/a	LTP260	ltpFR2	18	n/a	n/a	n/a	24	17	2	6	9
4074360	PROB	n/a	LTP260	ltpFR2	18	n/a	n/a	n/a	24	20	8	3	9
4075953	PROB	n/a	LTP260	ltpFR2	18	n/a	n/a	n/a	24	23	5	9	9
4077359	PROB	n/a	LTP260	ltpFR2	18	n/a	n/a	n/a	24	11	3	2	6
4079006	STOP	n/a	LTP260	ltpFR2	18	n/a	n/a	n/a	24	n/a	n/a	n/a	n/a
4081910	REC_START	n/a	LTP260	ltpFR2	18	17	n/a	n/a	n/a	n/a	0	0	0
4083495	REC_WORD	wordpools/wasnorm_wordpool_576.txt	LTP260	ltpFR2	18	17	JUDGE	761	n/a	n/a	0	0	0
4084380	REC_WORD	wordpools/wasnorm_wordpool_576.txt	LTP260	ltpFR2	18	17	GAVEL	627	n/a	n/a	0	0	0
4087266	REC_WORD	wordpools/wasnorm_wordpool_576.txt	LTP260	ltpFR2	18	17	BRIEFCASE	175	n/a	n/a	0	0	0
4088550	REC_WORD	wordpools/wasnorm_wordpool_576.txt	LTP260	ltpFR2	18	17	HOOD	714	n/a	n/a	0	0	0
4090007	REC_WORD	wordpools/wasnorm_wordpool_576.txt	LTP260	ltpFR2	18	17	CITRUS	313	n/a	n/a	0	0	0
4091130	REC_WORD	wordpools/wasnorm_wordpool_576.txt	LTP260	ltpFR2	18	17	ONION	977	n/a	n/a	0	0	0
4092319	REC_WORD	wordpools/wasnorm_wordpool_576.txt	LTP260	ltpFR2	18	17	OINTMENT	974	n/a	n/a	0	0	0
4093412	REC_WORD	wordpools/wasnorm_wordpool_576.txt	LTP260	ltpFR2	18	17	PAIL	1002	n/a	n/a	0	0	0
4094789	REC_WORD	wordpools/wasnorm_wordpool_576.txt	LTP260	ltpFR2	18	17	GLOVE	642	n/a	n/a	0	0	0
4095586	REC_WORD	wordpools/wasnorm_wordpool_576.txt	LTP260	ltpFR2	18	17	HAND	683	n/a	n/a	0	0	0
4098565	REC_WORD	wordpools/wasnorm_wordpool_576.txt	LTP260	ltpFR2	18	17	MARKER	870	n/a	n/a	0	0	0
4099385	REC_WORD	wordpools/wasnorm_wordpool_576.txt	LTP260	ltpFR2	18	17	SURVEY	1414	n/a	n/a	0	0	0
4101943	REC_WORD	wordpools/wasnorm_wordpool_576.txt	LTP260	ltpFR2	18	17	WARDROBE	1587	n/a	n/a	0	0	0
4102859	REC_WORD	wordpools/wasnorm_wordpool_576.txt	LTP260	ltpFR2	18	17	BUREAU	199	n/a	n/a	0	0	0
4106124	REC_WORD	wordpools/wasnorm_wordpool_576.txt	LTP260	ltpFR2	18	17	COWBOY	395	n/a	n/a	0	0	0
4107079	REC_WORD	wordpools/wasnorm_wordpool_576.txt	LTP260	ltpFR2	18	17	CELLAR	267	n/a	n/a	0	0	0
4107924	REC_WORD	wordpools/wasnorm_wordpool_576.txt	LTP260	ltpFR2	18	17	AGENT	10	n/a	n/a	0	0	0
4109414	REC_WORD	wordpools/wasnorm_wordpool_576.txt	LTP260	ltpFR2	18	17	HEART	697	n/a	n/a	0	0	0
4113919	REC_WORD	wordpools/wasnorm_wordpool_576.txt	LTP260	ltpFR2	18	17	BOARD	143	n/a	n/a	0	0	0
4142872	REC_WORD	wordpools/wasnorm_wordpool_576.txt	LTP260	ltpFR2	18	17	CABIN	211	n/a	n/a	0	0	0
4172935	DISTRACTOR	n/a	LTP260	ltpFR2	18	18	n/a	n/a	n/a	n/a	0	0	0
4172935	START	n/a	LTP260	ltpFR2	18	n/a	n/a	n/a	25	n/a	n/a	n/a	n/a
4172985	PROB	n/a	LTP260	ltpFR2	18	n/a	n/a	n/a	25	15	1	8	6
4174441	PROB	n/a	LTP260	ltpFR2	18	n/a	n/a	n/a	25	18	5	6	7
4176144	PROB	n/a	LTP260	ltpFR2	18	n/a	n/a	n/a	25	14	5	1	8
4177887	PROB	n/a	LTP260	ltpFR2	18	n/a	n/a	n/a	25	21	5	8	8
4179222	PROB	n/a	LTP260	ltpFR2	18	n/a	n/a	n/a	25	14	3	6	5
4181017	PROB	n/a	LTP260	ltpFR2	18	n/a	n/a	n/a	25	19	9	3	7
4182600	PROB	n/a	LTP260	ltpFR2	18	n/a	n/a	n/a	25	25	7	9	9
4184023	PROB	n/a	LTP260	ltpFR2	18	n/a	n/a	n/a	25	20	7	9	4
4186666	PROB	n/a	LTP260	ltpFR2	18	n/a	n/a	n/a	25	16	7	1	8
