mstime	trial_type	stim_file	subject	experiment	session	trial	item_name	item_num	list	answer	test_x	test_y	test_z
0	SESS_START	n/a	LTP117	ltpFR2	5	n/a	n/a	n/a	n/a	n/a	0	0	0
13946	START	n/a	LTP117	ltpFR2	5	n/a	n/a	n/a	-1	n/a	n/a	n/a	n/a
13979	PROB	n/a	LTP117	ltpFR2	5	n/a	n/a	n/a	-1	23	7	7	9
15675	PROB	n/a	LTP117	ltpFR2	5	n/a	n/a	n/a	-1	10	8	1	1
16574	PROB	n/a	LTP117	ltpFR2	5	n/a	n/a	n/a	-1	12	8	3	1
17490	PROB	n/a	LTP117	ltpFR2	5	n/a	n/a	n/a	-1	22	8	7	8
18905	PROB	n/a	LTP117	ltpFR2	5	n/a	n/a	n/a	-1	14	4	4	6
19903	PROB	n/a	LTP117	ltpFR2	5	n/a	n/a	n/a	-1	7	5	1	1
20784	PROB	n/a	LTP117	ltpFR2	5	n/a	n/a	n/a	-1	11	2	3	6
21649	PROB	n/a	LTP117	ltpFR2	5	n/a	n/a	n/a	-1	5	2	2	1
22499	PROB	n/a	LTP117	ltpFR2	5	n/a	n/a	n/a	-1	17	7	1	9
23881	PROB	n/a	LTP117	ltpFR2	5	n/a	n/a	n/a	-1	12	7	4	1
24723	STOP	n/a	LTP117	ltpFR2	5	n/a	n/a	n/a	-1	n/a	n/a	n/a	n/a
66051	DISTRACTOR	n/a	LTP117	ltpFR2	5	1	n/a	n/a	n/a	n/a	0	0	0
66051	START	n/a	LTP117	ltpFR2	5	n/a	n/a	n/a	1	n/a	n/a	n/a	n/a
66084	PROB	n/a	LTP117	ltpFR2	5	n/a	n/a	n/a	1	17	6	5	5
67482	PROB	n/a	LTP117	ltpFR2	5	n/a	n/a	n/a	1	17	6	3	8
69363	PROB	n/a	LTP117	ltpFR2	5	n/a	n/a	n/a	1	1	6	1	6
70328	PROB	n/a	LTP117	ltpFR2	5	n/a	n/a	n/a	1	24	9	8	7
71426	PROB	n/a	LTP117	ltpFR2	5	n/a	n/a	n/a	1	16	8	1	7
72308	PROB	n/a	LTP117	ltpFR2	5	n/a	n/a	n/a	1	19	8	6	5
73655	PROB	n/a	LTP117	ltpFR2	5	n/a	n/a	n/a	1	13	5	6	2
74720	PROB	n/a	LTP117	ltpFR2	5	n/a	n/a	n/a	1	20	8	3	9
76236	PROB	n/a	LTP117	ltpFR2	5	n/a	n/a	n/a	1	16	7	6	3
78383	PROB	n/a	LTP117	ltpFR2	5	n/a	n/a	n/a	1	5	1	2	2
79381	PROB	n/a	LTP117	ltpFR2	5	n/a	n/a	n/a	1	25	8	9	6
81128	PROB	n/a	LTP117	ltpFR2	5	n/a	n/a	n/a	1	8	3	2	3
82110	PROB	n/a	LTP117	ltpFR2	5	n/a	n/a	n/a	1	21	6	8	7
83342	PROB	n/a	LTP117	ltpFR2	5	n/a	n/a	n/a	1	15	4	5	8
84973	PROB	n/a	LTP117	ltpFR2	5	n/a	n/a	n/a	1	19	8	7	4
86287	PROB	n/a	LTP117	ltpFR2	5	n/a	n/a	n/a	1	11	6	2	3
87169	PROB	n/a	LTP117	ltpFR2	5	n/a	n/a	n/a	1	15	1	5	9
88384	PROB	n/a	LTP117	ltpFR2	5	n/a	n/a	n/a	1	16	1	8	7
89212	STOP	n/a	LTP117	ltpFR2	5	n/a	n/a	n/a	1	n/a	n/a	n/a	n/a
90880	WORD	wordpools/wasnorm_wordpool_576.txt	LTP117	ltpFR2	5	1	FLASHLIGHT	575	n/a	n/a	0	0	0
93360	WORD	wordpools/wasnorm_wordpool_576.txt	LTP117	ltpFR2	5	1	TURKEY	1520	n/a	n/a	0	0	0
96189	WORD	wordpools/wasnorm_wordpool_576.txt	LTP117	ltpFR2	5	1	BRACES	164	n/a	n/a	0	0	0
98834	WORD	wordpools/wasnorm_wordpool_576.txt	LTP117	ltpFR2	5	1	CAPTIVE	240	n/a	n/a	0	0	0
101613	WORD	wordpools/wasnorm_wordpool_576.txt	LTP117	ltpFR2	5	1	SUSPECT	1415	n/a	n/a	0	0	0
104394	WORD	wordpools/wasnorm_wordpool_576.txt	LTP117	ltpFR2	5	1	BRAKE	166	n/a	n/a	0	0	0
107156	WORD	wordpools/wasnorm_wordpool_576.txt	LTP117	ltpFR2	5	1	DINER	467	n/a	n/a	0	0	0
109952	WORD	wordpools/wasnorm_wordpool_576.txt	LTP117	ltpFR2	5	1	PECAN	1036	n/a	n/a	0	0	0
112630	WORD	wordpools/wasnorm_wordpool_576.txt	LTP117	ltpFR2	5	1	MONEY	908	n/a	n/a	0	0	0
115427	WORD	wordpools/wasnorm_wordpool_576.txt	LTP117	ltpFR2	5	1	SMOG	1330	n/a	n/a	0	0	0
117957	WORD	wordpools/wasnorm_wordpool_576.txt	LTP117	ltpFR2	5	1	HELMET	702	n/a	n/a	0	0	0
120602	WORD	wordpools/wasnorm_wordpool_576.txt	LTP117	ltpFR2	5	1	MOTOR	922	n/a	n/a	0	0	0
123132	WORD	wordpools/wasnorm_wordpool_576.txt	LTP117	ltpFR2	5	1	COUSIN	392	n/a	n/a	0	0	0
125878	WORD	wordpools/wasnorm_wordpool_576.txt	LTP117	ltpFR2	5	1	MOP	916	n/a	n/a	0	0	0
128424	WORD	wordpools/wasnorm_wordpool_576.txt	LTP117	ltpFR2	5	1	SHIRT	1287	n/a	n/a	0	0	0
131170	WORD	wordpools/wasnorm_wordpool_576.txt	LTP117	ltpFR2	5	1	PARROT	1015	n/a	n/a	0	0	0
133749	WORD	wordpools/wasnorm_wordpool_576.txt	LTP117	ltpFR2	5	1	SPARROW	1347	n/a	n/a	0	0	0
136379	WORD	wordpools/wasnorm_wordpool_576.txt	LTP117	ltpFR2	5	1	PISTON	1076	n/a	n/a	0	0	0
139158	WORD	wordpools/wasnorm_wordpool_576.txt	LTP117	ltpFR2	5	1	FINGER	567	n/a	n/a	0	0	0
141754	WORD	wordpools/wasnorm_wordpool_576.txt	LTP117	ltpFR2	5	1	SCRIBBLE	1256	n/a	n/a	0	0	0
144549	WORD	wordpools/wasnorm_wordpool_576.txt	LTP117	ltpFR2	5	1	FLASK	576	n/a	n/a	0	0	0
147130	WORD	wordpools/wasnorm_wordpool_576.txt	LTP117	ltpFR2	5	1	BACON	67	n/a	n/a	0	0	0
149609	WORD	wordpools/wasnorm_wordpool_576.txt	LTP117	ltpFR2	5	1	STAR	1373	n/a	n/a	0	0	0
152256	WORD	wordpools/wasnorm_wordpool_576.txt	LTP117	ltpFR2	5	1	BEAKER	104	n/a	n/a	0	0	0
153870	START	n/a	LTP117	ltpFR2	5	n/a	n/a	n/a	2	n/a	n/a	n/a	n/a
154694	DISTRACTOR	n/a	LTP117	ltpFR2	5	1	n/a	n/a	n/a	n/a	0	0	0
154701	PROB	n/a	LTP117	ltpFR2	5	n/a	n/a	n/a	2	12	3	6	3
155550	PROB	n/a	LTP117	ltpFR2	5	n/a	n/a	n/a	2	14	4	2	8
156781	PROB	n/a	LTP117	ltpFR2	5	n/a	n/a	n/a	2	22	8	5	9
158080	PROB	n/a	LTP117	ltpFR2	5	n/a	n/a	n/a	2	12	5	3	4
159129	PROB	n/a	LTP117	ltpFR2	5	n/a	n/a	n/a	2	9	5	3	1
160127	PROB	n/a	LTP117	ltpFR2	5	n/a	n/a	n/a	2	20	9	8	3
161790	PROB	n/a	LTP117	ltpFR2	5	n/a	n/a	n/a	2	18	5	8	5
162672	PROB	n/a	LTP117	ltpFR2	5	n/a	n/a	n/a	2	15	5	5	5
163439	PROB	n/a	LTP117	ltpFR2	5	n/a	n/a	n/a	2	6	1	1	4
164354	PROB	n/a	LTP117	ltpFR2	5	n/a	n/a	n/a	2	13	1	5	8
165568	PROB	n/a	LTP117	ltpFR2	5	n/a	n/a	n/a	2	9	1	1	7
166501	PROB	n/a	LTP117	ltpFR2	5	n/a	n/a	n/a	2	10	3	3	4
167565	PROB	n/a	LTP117	ltpFR2	5	n/a	n/a	n/a	2	14	4	9	1
168481	PROB	n/a	LTP117	ltpFR2	5	n/a	n/a	n/a	2	14	7	1	6
169447	PROB	n/a	LTP117	ltpFR2	5	n/a	n/a	n/a	2	13	3	1	7
170362	PROB	n/a	LTP117	ltpFR2	5	n/a	n/a	n/a	2	22	7	9	6
172242	PROB	n/a	LTP117	ltpFR2	5	n/a	n/a	n/a	2	16	8	4	4
173241	PROB	n/a	LTP117	ltpFR2	5	n/a	n/a	n/a	2	14	2	7	5
174804	PROB	n/a	LTP117	ltpFR2	5	n/a	n/a	n/a	2	16	8	1	7
175670	PROB	n/a	LTP117	ltpFR2	5	n/a	n/a	n/a	2	89	1	5	2
177220	STOP	n/a	LTP117	ltpFR2	5	n/a	n/a	n/a	2	n/a	n/a	n/a	n/a
179698	REC_START	n/a	LTP117	ltpFR2	5	1	n/a	n/a	n/a	n/a	0	0	0
180125	REC_WORD	wordpools/wasnorm_wordpool_576.txt	LTP117	ltpFR2	5	1	FLASK	576	n/a	n/a	0	0	0
181060	REC_WORD	wordpools/wasnorm_wordpool_576.txt	LTP117	ltpFR2	5	1	BACON	67	n/a	n/a	0	0	0
181567	REC_WORD	wordpools/wasnorm_wordpool_576.txt	LTP117	ltpFR2	5	1	STAR	1373	n/a	n/a	0	0	0
182516	REC_WORD	wordpools/wasnorm_wordpool_576.txt	LTP117	ltpFR2	5	1	BEAKER	104	n/a	n/a	0	0	0
183232	REC_WORD	wordpools/wasnorm_wordpool_576.txt	LTP117	ltpFR2	5	1	PARROT	1015	n/a	n/a	0	0	0
183969	REC_WORD	wordpools/wasnorm_wordpool_576.txt	LTP117	ltpFR2	5	1	SPARROW	1347	n/a	n/a	0	0	0
184875	REC_WORD	wordpools/wasnorm_wordpool_576.txt	LTP117	ltpFR2	5	1	COUSIN	392	n/a	n/a	0	0	0
185927	REC_WORD	wordpools/wasnorm_wordpool_576.txt	LTP117	ltpFR2	5	1	FLASK	576	n/a	n/a	0	0	0
188674	REC_WORD	wordpools/wasnorm_wordpool_576.txt	LTP117	ltpFR2	5	1	INMATE	738	n/a	n/a	0	0	0
191265	REC_WORD	wordpools/wasnorm_wordpool_576.txt	LTP117	ltpFR2	5	1	SUSPECT	1415	n/a	n/a	0	0	0
192400	REC_WORD	wordpools/wasnorm_wordpool_576.txt	LTP117	ltpFR2	5	1	DINER	467	n/a	n/a	0	0	0
193034	REC_WORD	wordpools/wasnorm_wordpool_576.txt	LTP117	ltpFR2	5	1	PECAN	1036	n/a	n/a	0	0	0
193886	REC_WORD	wordpools/wasnorm_wordpool_576.txt	LTP117	ltpFR2	5	1	MONEY	908	n/a	n/a	0	0	0
195299	REC_WORD	wordpools/wasnorm_wordpool_576.txt	LTP117	ltpFR2	5	1	BRACES	164	n/a	n/a	0	0	0
196510	REC_WORD	wordpools/wasnorm_wordpool_576.txt	LTP117	ltpFR2	5	1	BRAKE	166	n/a	n/a	0	0	0
197757	REC_WORD	wordpools/wasnorm_wordpool_576.txt	LTP117	ltpFR2	5	1	MOP	916	n/a	n/a	0	0	0
204126	REC_WORD	wordpools/wasnorm_wordpool_576.txt	LTP117	ltpFR2	5	1	HELMET	702	n/a	n/a	0	0	0
205981	REC_WORD	wordpools/wasnorm_wordpool_576.txt	LTP117	ltpFR2	5	1	MOTORCYCLE	923	n/a	n/a	0	0	0
207728	REC_WORD	wordpools/wasnorm_wordpool_576.txt	LTP117	ltpFR2	5	1	COUSIN	392	n/a	n/a	0	0	0
222977	REC_WORD	wordpools/wasnorm_wordpool_576.txt	LTP117	ltpFR2	5	1	SUSPECT	1415	n/a	n/a	0	0	0
234964	REC_WORD	wordpools/wasnorm_wordpool_576.txt	LTP117	ltpFR2	5	1	FINGER	567	n/a	n/a	0	0	0
270363	WORD	wordpools/wasnorm_wordpool_576.txt	LTP117	ltpFR2	5	2	SPIDER	1351	n/a	n/a	0	0	0
272859	WORD	wordpools/wasnorm_wordpool_576.txt	LTP117	ltpFR2	5	2	AWARD	63	n/a	n/a	0	0	0
275438	WORD	wordpools/wasnorm_wordpool_576.txt	LTP117	ltpFR2	5	2	TWEEZERS	1526	n/a	n/a	0	0	0
278068	WORD	wordpools/wasnorm_wordpool_576.txt	LTP117	ltpFR2	5	2	RIVER	1194	n/a	n/a	0	0	0
280763	WORD	wordpools/wasnorm_wordpool_576.txt	LTP117	ltpFR2	5	2	CHAPEL	280	n/a	n/a	0	0	0
283277	WORD	wordpools/wasnorm_wordpool_576.txt	LTP117	ltpFR2	5	2	STATUE	1374	n/a	n/a	0	0	0
285739	WORD	wordpools/wasnorm_wordpool_576.txt	LTP117	ltpFR2	5	2	TERMITE	1451	n/a	n/a	0	0	0
288452	WORD	wordpools/wasnorm_wordpool_576.txt	LTP117	ltpFR2	5	2	COCOON	339	n/a	n/a	0	0	0
291065	WORD	wordpools/wasnorm_wordpool_576.txt	LTP117	ltpFR2	5	2	DOUGHNUT	490	n/a	n/a	0	0	0
293843	WORD	wordpools/wasnorm_wordpool_576.txt	LTP117	ltpFR2	5	2	BELLY	119	n/a	n/a	0	0	0
296274	WORD	wordpools/wasnorm_wordpool_576.txt	LTP117	ltpFR2	5	2	FOOTBALL	591	n/a	n/a	0	0	0
299070	WORD	wordpools/wasnorm_wordpool_576.txt	LTP117	ltpFR2	5	2	PUDDING	1139	n/a	n/a	0	0	0
301815	WORD	wordpools/wasnorm_wordpool_576.txt	LTP117	ltpFR2	5	2	JELLO	754	n/a	n/a	0	0	0
304610	WORD	wordpools/wasnorm_wordpool_576.txt	LTP117	ltpFR2	5	2	BLACKBOARD	133	n/a	n/a	0	0	0
307091	WORD	wordpools/wasnorm_wordpool_576.txt	LTP117	ltpFR2	5	2	SUNRISE	1407	n/a	n/a	0	0	0
309553	WORD	wordpools/wasnorm_wordpool_576.txt	LTP117	ltpFR2	5	2	ISLAND	745	n/a	n/a	0	0	0
312283	WORD	wordpools/wasnorm_wordpool_576.txt	LTP117	ltpFR2	5	2	SHELTER	1282	n/a	n/a	0	0	0
315096	WORD	wordpools/wasnorm_wordpool_576.txt	LTP117	ltpFR2	5	2	DORM	488	n/a	n/a	0	0	0
317608	WORD	wordpools/wasnorm_wordpool_576.txt	LTP117	ltpFR2	5	2	TRENCH	1503	n/a	n/a	0	0	0
320188	WORD	wordpools/wasnorm_wordpool_576.txt	LTP117	ltpFR2	5	2	EYELASH	546	n/a	n/a	0	0	0
322767	WORD	wordpools/wasnorm_wordpool_576.txt	LTP117	ltpFR2	5	2	COUNTY	389	n/a	n/a	0	0	0
325430	WORD	wordpools/wasnorm_wordpool_576.txt	LTP117	ltpFR2	5	2	CATTLE	261	n/a	n/a	0	0	0
328076	WORD	wordpools/wasnorm_wordpool_576.txt	LTP117	ltpFR2	5	2	POET	1095	n/a	n/a	0	0	0
330738	WORD	wordpools/wasnorm_wordpool_576.txt	LTP117	ltpFR2	5	2	COLLEGE	346	n/a	n/a	0	0	0
332354	START	n/a	LTP117	ltpFR2	5	n/a	n/a	n/a	3	n/a	n/a	n/a	n/a
333363	DISTRACTOR	n/a	LTP117	ltpFR2	5	2	n/a	n/a	n/a	n/a	0	0	0
333368	PROB	n/a	LTP117	ltpFR2	5	n/a	n/a	n/a	3	12	2	1	9
334467	PROB	n/a	LTP117	ltpFR2	5	n/a	n/a	n/a	3	13	7	1	3
335266	PROB	n/a	LTP117	ltpFR2	5	n/a	n/a	n/a	3	24	6	9	9
337263	PROB	n/a	LTP117	ltpFR2	5	n/a	n/a	n/a	3	8	3	1	4
338211	PROB	n/a	LTP117	ltpFR2	5	n/a	n/a	n/a	3	11	6	3	2
339409	PROB	n/a	LTP117	ltpFR2	5	n/a	n/a	n/a	3	14	7	1	6
340375	PROB	n/a	LTP117	ltpFR2	5	n/a	n/a	n/a	3	12	4	1	7
341307	PROB	n/a	LTP117	ltpFR2	5	n/a	n/a	n/a	3	16	1	6	8
343054	PROB	n/a	LTP117	ltpFR2	5	n/a	n/a	n/a	3	19	6	9	4
344800	PROB	n/a	LTP117	ltpFR2	5	n/a	n/a	n/a	3	14	4	9	1
346149	PROB	n/a	LTP117	ltpFR2	5	n/a	n/a	n/a	3	15	8	5	2
347115	PROB	n/a	LTP117	ltpFR2	5	n/a	n/a	n/a	3	22	7	9	6
348379	PROB	n/a	LTP117	ltpFR2	5	n/a	n/a	n/a	3	11	3	3	5
349826	PROB	n/a	LTP117	ltpFR2	5	n/a	n/a	n/a	3	11	3	1	6
350758	PROB	n/a	LTP117	ltpFR2	5	n/a	n/a	n/a	3	16	1	9	6
351773	PROB	n/a	LTP117	ltpFR2	5	n/a	n/a	n/a	3	18	6	6	6
352838	PROB	n/a	LTP117	ltpFR2	5	n/a	n/a	n/a	3	9	5	1	3
354021	PROB	n/a	LTP117	ltpFR2	5	n/a	n/a	n/a	3	16	5	8	3
355125	STOP	n/a	LTP117	ltpFR2	5	n/a	n/a	n/a	3	n/a	n/a	n/a	n/a
358282	REC_START	n/a	LTP117	ltpFR2	5	2	n/a	n/a	n/a	n/a	0	0	0
358740	REC_WORD	wordpools/wasnorm_wordpool_576.txt	LTP117	ltpFR2	5	2	COUNTY	389	n/a	n/a	0	0	0
359538	REC_WORD	wordpools/wasnorm_wordpool_576.txt	LTP117	ltpFR2	5	2	CATTLE	261	n/a	n/a	0	0	0
360292	REC_WORD	wordpools/wasnorm_wordpool_576.txt	LTP117	ltpFR2	5	2	POET	1095	n/a	n/a	0	0	0
361034	REC_WORD	wordpools/wasnorm_wordpool_576.txt	LTP117	ltpFR2	5	2	CHAPEL	280	n/a	n/a	0	0	0
362016	REC_WORD	wordpools/wasnorm_wordpool_576.txt	LTP117	ltpFR2	5	2	FOOTBALL	591	n/a	n/a	0	0	0
363013	REC_WORD	wordpools/wasnorm_wordpool_576.txt	LTP117	ltpFR2	5	2	ISLAND	745	n/a	n/a	0	0	0
364034	REC_WORD	wordpools/wasnorm_wordpool_576.txt	LTP117	ltpFR2	5	2	BLACKBOARD	133	n/a	n/a	0	0	0
364993	REC_WORD	wordpools/wasnorm_wordpool_576.txt	LTP117	ltpFR2	5	2	DORM	488	n/a	n/a	0	0	0
366107	REC_WORD	wordpools/wasnorm_wordpool_576.txt	LTP117	ltpFR2	5	2	TRENCH	1503	n/a	n/a	0	0	0
368811	REC_WORD	wordpools/wasnorm_wordpool_576.txt	LTP117	ltpFR2	5	2	TRENCHES	-1	n/a	n/a	0	0	0
371777	REC_WORD	wordpools/wasnorm_wordpool_576.txt	LTP117	ltpFR2	5	2	SHELTER	1282	n/a	n/a	0	0	0
375381	REC_WORD	wordpools/wasnorm_wordpool_576.txt	LTP117	ltpFR2	5	2	AWARD	63	n/a	n/a	0	0	0
377790	REC_WORD	wordpools/wasnorm_wordpool_576.txt	LTP117	ltpFR2	5	2	STATUE	1374	n/a	n/a	0	0	0
378886	REC_WORD	wordpools/wasnorm_wordpool_576.txt	LTP117	ltpFR2	5	2	TWEEZERS	1526	n/a	n/a	0	0	0
379720	REC_WORD	wordpools/wasnorm_wordpool_576.txt	LTP117	ltpFR2	5	2	EYELASH	546	n/a	n/a	0	0	0
381397	REC_WORD	wordpools/wasnorm_wordpool_576.txt	LTP117	ltpFR2	5	2	CHAPEL	280	n/a	n/a	0	0	0
382009	REC_WORD	wordpools/wasnorm_wordpool_576.txt	LTP117	ltpFR2	5	2	FOOTBALL	591	n/a	n/a	0	0	0
386884	REC_WORD	wordpools/wasnorm_wordpool_576.txt	LTP117	ltpFR2	5	2	SUNRISE	1407	n/a	n/a	0	0	0
395429	REC_WORD	wordpools/wasnorm_wordpool_576.txt	LTP117	ltpFR2	5	2	RIVER	1194	n/a	n/a	0	0	0
414476	REC_WORD	wordpools/wasnorm_wordpool_576.txt	LTP117	ltpFR2	5	2	SPIDER	1351	n/a	n/a	0	0	0
415619	REC_WORD	wordpools/wasnorm_wordpool_576.txt	LTP117	ltpFR2	5	2	TERMITE	1451	n/a	n/a	0	0	0
416451	REC_WORD	wordpools/wasnorm_wordpool_576.txt	LTP117	ltpFR2	5	2	COCOON	339	n/a	n/a	0	0	0
448929	DISTRACTOR	n/a	LTP117	ltpFR2	5	3	n/a	n/a	n/a	n/a	0	0	0
448930	START	n/a	LTP117	ltpFR2	5	n/a	n/a	n/a	4	n/a	n/a	n/a	n/a
448963	PROB	n/a	LTP117	ltpFR2	5	n/a	n/a	n/a	4	18	7	5	6
450161	PROB	n/a	LTP117	ltpFR2	5	n/a	n/a	n/a	4	12	5	2	5
451757	PROB	n/a	LTP117	ltpFR2	5	n/a	n/a	n/a	4	9	3	5	1
452756	PROB	n/a	LTP117	ltpFR2	5	n/a	n/a	n/a	4	14	1	6	7
453922	PROB	n/a	LTP117	ltpFR2	5	n/a	n/a	n/a	4	13	5	1	7
454803	PROB	n/a	LTP117	ltpFR2	5	n/a	n/a	n/a	4	12	1	2	9
455618	PROB	n/a	LTP117	ltpFR2	5	n/a	n/a	n/a	4	8	3	4	1
456884	PROB	n/a	LTP117	ltpFR2	5	n/a	n/a	n/a	4	20	9	6	5
457982	PROB	n/a	LTP117	ltpFR2	5	n/a	n/a	n/a	4	10	2	7	1
459464	PROB	n/a	LTP117	ltpFR2	5	n/a	n/a	n/a	4	24	9	7	8
460711	PROB	n/a	LTP117	ltpFR2	5	n/a	n/a	n/a	4	15	4	3	8
461860	PROB	n/a	LTP117	ltpFR2	5	n/a	n/a	n/a	4	13	5	3	5
462758	PROB	n/a	LTP117	ltpFR2	5	n/a	n/a	n/a	4	20	9	4	7
464023	PROB	n/a	LTP117	ltpFR2	5	n/a	n/a	n/a	4	14	4	4	6
465138	PROB	n/a	LTP117	ltpFR2	5	n/a	n/a	n/a	4	15	9	3	3
466952	PROB	n/a	LTP117	ltpFR2	5	n/a	n/a	n/a	4	9	1	2	6
468599	PROB	n/a	LTP117	ltpFR2	5	n/a	n/a	n/a	4	20	6	8	8
469931	PROB	n/a	LTP117	ltpFR2	5	n/a	n/a	n/a	4	15	9	2	4
471362	PROB	n/a	LTP117	ltpFR2	5	n/a	n/a	n/a	4	10	7	2	1
472141	STOP	n/a	LTP117	ltpFR2	5	n/a	n/a	n/a	4	n/a	n/a	n/a	n/a
473925	WORD	wordpools/wasnorm_wordpool_576.txt	LTP117	ltpFR2	5	3	SUBWAY	1400	n/a	n/a	0	0	0
476355	WORD	wordpools/wasnorm_wordpool_576.txt	LTP117	ltpFR2	5	3	PACKAGE	997	n/a	n/a	0	0	0
478968	WORD	wordpools/wasnorm_wordpool_576.txt	LTP117	ltpFR2	5	3	TURNIP	1521	n/a	n/a	0	0	0
481629	WORD	wordpools/wasnorm_wordpool_576.txt	LTP117	ltpFR2	5	3	PENGUIN	1044	n/a	n/a	0	0	0
484060	WORD	wordpools/wasnorm_wordpool_576.txt	LTP117	ltpFR2	5	3	LILY	821	n/a	n/a	0	0	0
486689	WORD	wordpools/wasnorm_wordpool_576.txt	LTP117	ltpFR2	5	3	BANJO	82	n/a	n/a	0	0	0
489119	WORD	wordpools/wasnorm_wordpool_576.txt	LTP117	ltpFR2	5	3	DRINK	498	n/a	n/a	0	0	0
491748	WORD	wordpools/wasnorm_wordpool_576.txt	LTP117	ltpFR2	5	3	CLIMBER	323	n/a	n/a	0	0	0
494178	WORD	wordpools/wasnorm_wordpool_576.txt	LTP117	ltpFR2	5	3	BUCKET	184	n/a	n/a	0	0	0
496657	WORD	wordpools/wasnorm_wordpool_576.txt	LTP117	ltpFR2	5	3	CORAL	378	n/a	n/a	0	0	0
499321	WORD	wordpools/wasnorm_wordpool_576.txt	LTP117	ltpFR2	5	3	ROD	1203	n/a	n/a	0	0	0
502033	WORD	wordpools/wasnorm_wordpool_576.txt	LTP117	ltpFR2	5	3	SALAD	1224	n/a	n/a	0	0	0
504595	WORD	wordpools/wasnorm_wordpool_576.txt	LTP117	ltpFR2	5	3	WIDOW	1608	n/a	n/a	0	0	0
507209	WORD	wordpools/wasnorm_wordpool_576.txt	LTP117	ltpFR2	5	3	FLIPPER	580	n/a	n/a	0	0	0
509737	WORD	wordpools/wasnorm_wordpool_576.txt	LTP117	ltpFR2	5	3	TUBA	1515	n/a	n/a	0	0	0
512251	WORD	wordpools/wasnorm_wordpool_576.txt	LTP117	ltpFR2	5	3	DRIVER	499	n/a	n/a	0	0	0
514881	WORD	wordpools/wasnorm_wordpool_576.txt	LTP117	ltpFR2	5	3	SIBLING	1301	n/a	n/a	0	0	0
517510	WORD	wordpools/wasnorm_wordpool_576.txt	LTP117	ltpFR2	5	3	PUDDLE	1140	n/a	n/a	0	0	0
520256	WORD	wordpools/wasnorm_wordpool_576.txt	LTP117	ltpFR2	5	3	LAGOON	795	n/a	n/a	0	0	0
522785	WORD	wordpools/wasnorm_wordpool_576.txt	LTP117	ltpFR2	5	3	CASKET	255	n/a	n/a	0	0	0
525282	WORD	wordpools/wasnorm_wordpool_576.txt	LTP117	ltpFR2	5	3	POISON	1096	n/a	n/a	0	0	0
528011	WORD	wordpools/wasnorm_wordpool_576.txt	LTP117	ltpFR2	5	3	LAKE	796	n/a	n/a	0	0	0
530556	WORD	wordpools/wasnorm_wordpool_576.txt	LTP117	ltpFR2	5	3	FIDDLE	561	n/a	n/a	0	0	0
533004	WORD	wordpools/wasnorm_wordpool_576.txt	LTP117	ltpFR2	5	3	MUMMY	932	n/a	n/a	0	0	0
534617	START	n/a	LTP117	ltpFR2	5	n/a	n/a	n/a	5	n/a	n/a	n/a	n/a
535589	DISTRACTOR	n/a	LTP117	ltpFR2	5	3	n/a	n/a	n/a	n/a	0	0	0
535599	PROB	n/a	LTP117	ltpFR2	5	n/a	n/a	n/a	5	10	1	4	5
536449	PROB	n/a	LTP117	ltpFR2	5	n/a	n/a	n/a	5	20	6	6	8
537497	PROB	n/a	LTP117	ltpFR2	5	n/a	n/a	n/a	5	15	5	5	5
538246	PROB	n/a	LTP117	ltpFR2	5	n/a	n/a	n/a	5	16	9	2	5
539793	PROB	n/a	LTP117	ltpFR2	5	n/a	n/a	n/a	5	26	8	9	9
541192	PROB	n/a	LTP117	ltpFR2	5	n/a	n/a	n/a	5	12	5	3	4
542323	PROB	n/a	LTP117	ltpFR2	5	n/a	n/a	n/a	5	13	5	3	5
543238	PROB	n/a	LTP117	ltpFR2	5	n/a	n/a	n/a	5	15	9	1	5
544154	PROB	n/a	LTP117	ltpFR2	5	n/a	n/a	n/a	5	21	8	5	8
545700	PROB	n/a	LTP117	ltpFR2	5	n/a	n/a	n/a	5	17	3	9	5
547299	PROB	n/a	LTP117	ltpFR2	5	n/a	n/a	n/a	5	9	5	2	2
548281	PROB	n/a	LTP117	ltpFR2	5	n/a	n/a	n/a	5	14	5	5	4
549096	PROB	n/a	LTP117	ltpFR2	5	n/a	n/a	n/a	5	22	9	7	7
550428	PROB	n/a	LTP117	ltpFR2	5	n/a	n/a	n/a	5	12	8	1	3
552375	PROB	n/a	LTP117	ltpFR2	5	n/a	n/a	n/a	5	18	5	9	3
554571	PROB	n/a	LTP117	ltpFR2	5	n/a	n/a	n/a	5	20	5	6	9
555920	PROB	n/a	LTP117	ltpFR2	5	n/a	n/a	n/a	5	16	6	4	6
557035	PROB	n/a	LTP117	ltpFR2	5	n/a	n/a	n/a	5	6	3	2	1
557812	STOP	n/a	LTP117	ltpFR2	5	n/a	n/a	n/a	5	n/a	n/a	n/a	n/a
560413	REC_START	n/a	LTP117	ltpFR2	5	3	n/a	n/a	n/a	n/a	0	0	0
561150	REC_WORD	wordpools/wasnorm_wordpool_576.txt	LTP117	ltpFR2	5	3	LAKE	796	n/a	n/a	0	0	0
561768	REC_WORD	wordpools/wasnorm_wordpool_576.txt	LTP117	ltpFR2	5	3	FIDDLE	561	n/a	n/a	0	0	0
562590	REC_WORD	wordpools/wasnorm_wordpool_576.txt	LTP117	ltpFR2	5	3	MUMMY	932	n/a	n/a	0	0	0
563355	REC_WORD	wordpools/wasnorm_wordpool_576.txt	LTP117	ltpFR2	5	3	DIVER	476	n/a	n/a	0	0	0
564014	REC_WORD	wordpools/wasnorm_wordpool_576.txt	LTP117	ltpFR2	5	3	DRIVER	499	n/a	n/a	0	0	0
565353	REC_WORD	wordpools/wasnorm_wordpool_576.txt	LTP117	ltpFR2	5	3	PUDDLE	1140	n/a	n/a	0	0	0
565922	REC_WORD	wordpools/wasnorm_wordpool_576.txt	LTP117	ltpFR2	5	3	LAGOON	795	n/a	n/a	0	0	0
566743	REC_WORD	wordpools/wasnorm_wordpool_576.txt	LTP117	ltpFR2	5	3	WIDOW	1608	n/a	n/a	0	0	0
567436	REC_WORD	wordpools/wasnorm_wordpool_576.txt	LTP117	ltpFR2	5	3	CASKET	255	n/a	n/a	0	0	0
569436	REC_WORD	wordpools/wasnorm_wordpool_576.txt	LTP117	ltpFR2	5	3	SALAD	1224	n/a	n/a	0	0	0
570307	REC_WORD	wordpools/wasnorm_wordpool_576.txt	LTP117	ltpFR2	5	3	ROD	1203	n/a	n/a	0	0	0
572846	REC_WORD	wordpools/wasnorm_wordpool_576.txt	LTP117	ltpFR2	5	3	PENGUIN	1044	n/a	n/a	0	0	0
573509	REC_WORD	wordpools/wasnorm_wordpool_576.txt	LTP117	ltpFR2	5	3	PACKAGE	997	n/a	n/a	0	0	0
574279	REC_WORD	wordpools/wasnorm_wordpool_576.txt	LTP117	ltpFR2	5	3	SUBWAY	1400	n/a	n/a	0	0	0
575108	REC_WORD	wordpools/wasnorm_wordpool_576.txt	LTP117	ltpFR2	5	3	TURNIP	1521	n/a	n/a	0	0	0
576417	REC_WORD	wordpools/wasnorm_wordpool_576.txt	LTP117	ltpFR2	5	3	DRINK	498	n/a	n/a	0	0	0
595571	REC_WORD	wordpools/wasnorm_wordpool_576.txt	LTP117	ltpFR2	5	3	TUBA	1515	n/a	n/a	0	0	0
651127	WORD	wordpools/wasnorm_wordpool_576.txt	LTP117	ltpFR2	5	4	BALLOON	75	n/a	n/a	0	0	0
653706	WORD	wordpools/wasnorm_wordpool_576.txt	LTP117	ltpFR2	5	4	HEADBAND	696	n/a	n/a	0	0	0
656220	WORD	wordpools/wasnorm_wordpool_576.txt	LTP117	ltpFR2	5	4	POSSUM	1112	n/a	n/a	0	0	0
658665	WORD	wordpools/wasnorm_wordpool_576.txt	LTP117	ltpFR2	5	4	UNCLE	1536	n/a	n/a	0	0	0
661296	WORD	wordpools/wasnorm_wordpool_576.txt	LTP117	ltpFR2	5	4	IGLOO	734	n/a	n/a	0	0	0
663824	WORD	wordpools/wasnorm_wordpool_576.txt	LTP117	ltpFR2	5	4	KLEENEX	782	n/a	n/a	0	0	0
666305	WORD	wordpools/wasnorm_wordpool_576.txt	LTP117	ltpFR2	5	4	COLONEL	348	n/a	n/a	0	0	0
668918	WORD	wordpools/wasnorm_wordpool_576.txt	LTP117	ltpFR2	5	4	RELISH	1183	n/a	n/a	0	0	0
671696	WORD	wordpools/wasnorm_wordpool_576.txt	LTP117	ltpFR2	5	4	DANDRUFF	439	n/a	n/a	0	0	0
674226	WORD	wordpools/wasnorm_wordpool_576.txt	LTP117	ltpFR2	5	4	VALLEY	1545	n/a	n/a	0	0	0
676722	WORD	wordpools/wasnorm_wordpool_576.txt	LTP117	ltpFR2	5	4	VAGRANT	1544	n/a	n/a	0	0	0
679252	WORD	wordpools/wasnorm_wordpool_576.txt	LTP117	ltpFR2	5	4	NOMAD	955	n/a	n/a	0	0	0
681948	WORD	wordpools/wasnorm_wordpool_576.txt	LTP117	ltpFR2	5	4	CRICKET	408	n/a	n/a	0	0	0
684428	WORD	wordpools/wasnorm_wordpool_576.txt	LTP117	ltpFR2	5	4	SCARF	1246	n/a	n/a	0	0	0
687207	WORD	wordpools/wasnorm_wordpool_576.txt	LTP117	ltpFR2	5	4	DRUG	501	n/a	n/a	0	0	0
689802	WORD	wordpools/wasnorm_wordpool_576.txt	LTP117	ltpFR2	5	4	CHIPMUNK	304	n/a	n/a	0	0	0
692499	WORD	wordpools/wasnorm_wordpool_576.txt	LTP117	ltpFR2	5	4	HIGHWAY	707	n/a	n/a	0	0	0
695245	WORD	wordpools/wasnorm_wordpool_576.txt	LTP117	ltpFR2	5	4	TUTU	1524	n/a	n/a	0	0	0
697790	WORD	wordpools/wasnorm_wordpool_576.txt	LTP117	ltpFR2	5	4	RUG	1215	n/a	n/a	0	0	0
700470	WORD	wordpools/wasnorm_wordpool_576.txt	LTP117	ltpFR2	5	4	TILE	1468	n/a	n/a	0	0	0
702917	WORD	wordpools/wasnorm_wordpool_576.txt	LTP117	ltpFR2	5	4	SLUG	1329	n/a	n/a	0	0	0
705612	WORD	wordpools/wasnorm_wordpool_576.txt	LTP117	ltpFR2	5	4	JUGGLER	763	n/a	n/a	0	0	0
708275	WORD	wordpools/wasnorm_wordpool_576.txt	LTP117	ltpFR2	5	4	ROBOT	1200	n/a	n/a	0	0	0
710804	WORD	wordpools/wasnorm_wordpool_576.txt	LTP117	ltpFR2	5	4	STREAM	1392	n/a	n/a	0	0	0
712419	START	n/a	LTP117	ltpFR2	5	n/a	n/a	n/a	6	n/a	n/a	n/a	n/a
713478	DISTRACTOR	n/a	LTP117	ltpFR2	5	4	n/a	n/a	n/a	n/a	0	0	0
713484	PROB	n/a	LTP117	ltpFR2	5	n/a	n/a	n/a	6	18	8	4	6
714831	PROB	n/a	LTP117	ltpFR2	5	n/a	n/a	n/a	6	24	8	6	8
716030	PROB	n/a	LTP117	ltpFR2	5	n/a	n/a	n/a	6	24	9	7	8
717462	PROB	n/a	LTP117	ltpFR2	5	n/a	n/a	n/a	6	18	9	1	8
718360	PROB	n/a	LTP117	ltpFR2	5	n/a	n/a	n/a	6	21	6	8	7
719375	PROB	n/a	LTP117	ltpFR2	5	n/a	n/a	n/a	6	8	5	2	1
720441	PROB	n/a	LTP117	ltpFR2	5	n/a	n/a	n/a	6	13	3	2	8
721955	PROB	n/a	LTP117	ltpFR2	5	n/a	n/a	n/a	6	14	1	5	8
723186	PROB	n/a	LTP117	ltpFR2	5	n/a	n/a	n/a	6	17	3	8	6
725433	PROB	n/a	LTP117	ltpFR2	5	n/a	n/a	n/a	6	1	5	7	7
728212	PROB	n/a	LTP117	ltpFR2	5	n/a	n/a	n/a	6	16	7	3	6
729910	PROB	n/a	LTP117	ltpFR2	5	n/a	n/a	n/a	6	11	2	1	8
731091	PROB	n/a	LTP117	ltpFR2	5	n/a	n/a	n/a	6	16	1	6	9
732007	PROB	n/a	LTP117	ltpFR2	5	n/a	n/a	n/a	6	21	9	6	6
733172	PROB	n/a	LTP117	ltpFR2	5	n/a	n/a	n/a	6	18	6	2	7
734420	PROB	n/a	LTP117	ltpFR2	5	n/a	n/a	n/a	6	11	6	3	2
735213	STOP	n/a	LTP117	ltpFR2	5	n/a	n/a	n/a	6	n/a	n/a	n/a	n/a
738314	REC_START	n/a	LTP117	ltpFR2	5	4	n/a	n/a	n/a	n/a	0	0	0
738609	REC_WORD	wordpools/wasnorm_wordpool_576.txt	LTP117	ltpFR2	5	4	SLUG	1329	n/a	n/a	0	0	0
739587	REC_WORD	wordpools/wasnorm_wordpool_576.txt	LTP117	ltpFR2	5	4	JUGGLER	763	n/a	n/a	0	0	0
740326	REC_WORD	wordpools/wasnorm_wordpool_576.txt	LTP117	ltpFR2	5	4	ROBOT	1200	n/a	n/a	0	0	0
741929	REC_WORD	wordpools/wasnorm_wordpool_576.txt	LTP117	ltpFR2	5	4	TILE	1468	n/a	n/a	0	0	0
742717	REC_WORD	wordpools/wasnorm_wordpool_576.txt	LTP117	ltpFR2	5	4	RUG	1215	n/a	n/a	0	0	0
745727	REC_WORD	wordpools/wasnorm_wordpool_576.txt	LTP117	ltpFR2	5	4	STREAM	1392	n/a	n/a	0	0	0
746788	REC_WORD	wordpools/wasnorm_wordpool_576.txt	LTP117	ltpFR2	5	4	VALLEY	1545	n/a	n/a	0	0	0
749454	REC_WORD	wordpools/wasnorm_wordpool_576.txt	LTP117	ltpFR2	5	4	VAGRANT	1544	n/a	n/a	0	0	0
750255	REC_WORD	wordpools/wasnorm_wordpool_576.txt	LTP117	ltpFR2	5	4	NOMAD	955	n/a	n/a	0	0	0
751123	REC_WORD	wordpools/wasnorm_wordpool_576.txt	LTP117	ltpFR2	5	4	CRICKET	408	n/a	n/a	0	0	0
752016	REC_WORD	wordpools/wasnorm_wordpool_576.txt	LTP117	ltpFR2	5	4	DRUG	501	n/a	n/a	0	0	0
758123	REC_WORD	wordpools/wasnorm_wordpool_576.txt	LTP117	ltpFR2	5	4	BALLOON	75	n/a	n/a	0	0	0
758650	REC_WORD	wordpools/wasnorm_wordpool_576.txt	LTP117	ltpFR2	5	4	HEADBAND	696	n/a	n/a	0	0	0
761334	REC_WORD	wordpools/wasnorm_wordpool_576.txt	LTP117	ltpFR2	5	4	IGLOO	734	n/a	n/a	0	0	0
763309	REC_WORD	wordpools/wasnorm_wordpool_576.txt	LTP117	ltpFR2	5	4	SCARF	1246	n/a	n/a	0	0	0
764726	REC_WORD	wordpools/wasnorm_wordpool_576.txt	LTP117	ltpFR2	5	4	COLONEL	348	n/a	n/a	0	0	0
765545	REC_WORD	wordpools/wasnorm_wordpool_576.txt	LTP117	ltpFR2	5	4	RELISH	1183	n/a	n/a	0	0	0
766739	REC_WORD	wordpools/wasnorm_wordpool_576.txt	LTP117	ltpFR2	5	4	DANDRUFF	439	n/a	n/a	0	0	0
785303	REC_WORD	wordpools/wasnorm_wordpool_576.txt	LTP117	ltpFR2	5	4	HIGHWAY	707	n/a	n/a	0	0	0
828962	DISTRACTOR	n/a	LTP117	ltpFR2	5	5	n/a	n/a	n/a	n/a	0	0	0
828962	START	n/a	LTP117	ltpFR2	5	n/a	n/a	n/a	7	n/a	n/a	n/a	n/a
828995	PROB	n/a	LTP117	ltpFR2	5	n/a	n/a	n/a	7	12	4	6	2
830160	PROB	n/a	LTP117	ltpFR2	5	n/a	n/a	n/a	7	18	2	8	8
831025	PROB	n/a	LTP117	ltpFR2	5	n/a	n/a	n/a	7	20	8	6	6
832257	PROB	n/a	LTP117	ltpFR2	5	n/a	n/a	n/a	7	12	3	6	3
833122	PROB	n/a	LTP117	ltpFR2	5	n/a	n/a	n/a	7	18	4	7	7
834321	PROB	n/a	LTP117	ltpFR2	5	n/a	n/a	n/a	7	11	6	4	1
835069	PROB	n/a	LTP117	ltpFR2	5	n/a	n/a	n/a	7	19	9	3	7
836068	PROB	n/a	LTP117	ltpFR2	5	n/a	n/a	n/a	7	14	5	6	3
837299	PROB	n/a	LTP117	ltpFR2	5	n/a	n/a	n/a	7	10	3	6	1
838281	PROB	n/a	LTP117	ltpFR2	5	n/a	n/a	n/a	7	17	6	9	2
839628	PROB	n/a	LTP117	ltpFR2	5	n/a	n/a	n/a	7	14	5	4	5
841027	PROB	n/a	LTP117	ltpFR2	5	n/a	n/a	n/a	7	13	3	6	4
842126	PROB	n/a	LTP117	ltpFR2	5	n/a	n/a	n/a	7	18	7	3	8
843157	PROB	n/a	LTP117	ltpFR2	5	n/a	n/a	n/a	7	18	8	3	7
844023	PROB	n/a	LTP117	ltpFR2	5	n/a	n/a	n/a	7	14	4	7	3
844905	PROB	n/a	LTP117	ltpFR2	5	n/a	n/a	n/a	7	16	5	8	3
846486	PROB	n/a	LTP117	ltpFR2	5	n/a	n/a	n/a	7	20	7	9	3
847833	PROB	n/a	LTP117	ltpFR2	5	n/a	n/a	n/a	7	21	9	6	6
849530	PROB	n/a	LTP117	ltpFR2	5	n/a	n/a	n/a	7	19	3	7	9
851079	PROB	n/a	LTP117	ltpFR2	5	n/a	n/a	n/a	7	19	8	8	3
852101	STOP	n/a	LTP117	ltpFR2	5	n/a	n/a	n/a	7	n/a	n/a	n/a	n/a
853891	WORD	wordpools/wasnorm_wordpool_576.txt	LTP117	ltpFR2	5	5	COMET	353	n/a	n/a	0	0	0
856371	WORD	wordpools/wasnorm_wordpool_576.txt	LTP117	ltpFR2	5	5	CYCLONE	431	n/a	n/a	0	0	0
858867	WORD	wordpools/wasnorm_wordpool_576.txt	LTP117	ltpFR2	5	5	PICNIC	1060	n/a	n/a	0	0	0
861447	WORD	wordpools/wasnorm_wordpool_576.txt	LTP117	ltpFR2	5	5	LUNCH	849	n/a	n/a	0	0	0
863876	WORD	wordpools/wasnorm_wordpool_576.txt	LTP117	ltpFR2	5	5	WAGON	1578	n/a	n/a	0	0	0
866323	WORD	wordpools/wasnorm_wordpool_576.txt	LTP117	ltpFR2	5	5	EMPIRE	530	n/a	n/a	0	0	0
868919	WORD	wordpools/wasnorm_wordpool_576.txt	LTP117	ltpFR2	5	5	DIME	466	n/a	n/a	0	0	0
871482	WORD	wordpools/wasnorm_wordpool_576.txt	LTP117	ltpFR2	5	5	PIGEON	1065	n/a	n/a	0	0	0
873945	WORD	wordpools/wasnorm_wordpool_576.txt	LTP117	ltpFR2	5	5	LAPEL	800	n/a	n/a	0	0	0
876458	WORD	wordpools/wasnorm_wordpool_576.txt	LTP117	ltpFR2	5	5	TOASTER	1472	n/a	n/a	0	0	0
879204	WORD	wordpools/wasnorm_wordpool_576.txt	LTP117	ltpFR2	5	5	CAMEL	223	n/a	n/a	0	0	0
881782	WORD	wordpools/wasnorm_wordpool_576.txt	LTP117	ltpFR2	5	5	LEOPARD	812	n/a	n/a	0	0	0
884363	WORD	wordpools/wasnorm_wordpool_576.txt	LTP117	ltpFR2	5	5	NIGHTGOWN	953	n/a	n/a	0	0	0
887142	WORD	wordpools/wasnorm_wordpool_576.txt	LTP117	ltpFR2	5	5	VENUS	1557	n/a	n/a	0	0	0
889737	WORD	wordpools/wasnorm_wordpool_576.txt	LTP117	ltpFR2	5	5	IDOL	733	n/a	n/a	0	0	0
892484	WORD	wordpools/wasnorm_wordpool_576.txt	LTP117	ltpFR2	5	5	TWISTER	1530	n/a	n/a	0	0	0
895113	WORD	wordpools/wasnorm_wordpool_576.txt	LTP117	ltpFR2	5	5	CELLAR	267	n/a	n/a	0	0	0
897542	WORD	wordpools/wasnorm_wordpool_576.txt	LTP117	ltpFR2	5	5	LABEL	790	n/a	n/a	0	0	0
900189	WORD	wordpools/wasnorm_wordpool_576.txt	LTP117	ltpFR2	5	5	MARSH	874	n/a	n/a	0	0	0
902902	WORD	wordpools/wasnorm_wordpool_576.txt	LTP117	ltpFR2	5	5	SLIDE	1326	n/a	n/a	0	0	0
905663	WORD	wordpools/wasnorm_wordpool_576.txt	LTP117	ltpFR2	5	5	PLAYGROUND	1087	n/a	n/a	0	0	0
908160	WORD	wordpools/wasnorm_wordpool_576.txt	LTP117	ltpFR2	5	5	COOKBOOK	373	n/a	n/a	0	0	0
910873	WORD	wordpools/wasnorm_wordpool_576.txt	LTP117	ltpFR2	5	5	PEACH	1031	n/a	n/a	0	0	0
913353	WORD	wordpools/wasnorm_wordpool_576.txt	LTP117	ltpFR2	5	5	CARROT	249	n/a	n/a	0	0	0
914967	START	n/a	LTP117	ltpFR2	5	n/a	n/a	n/a	8	n/a	n/a	n/a	n/a
916095	DISTRACTOR	n/a	LTP117	ltpFR2	5	5	n/a	n/a	n/a	n/a	0	0	0
916115	PROB	n/a	LTP117	ltpFR2	5	n/a	n/a	n/a	8	20	8	4	8
917230	PROB	n/a	LTP117	ltpFR2	5	n/a	n/a	n/a	8	19	9	5	5
918112	PROB	n/a	LTP117	ltpFR2	5	n/a	n/a	n/a	8	10	2	5	3
919027	PROB	n/a	LTP117	ltpFR2	5	n/a	n/a	n/a	8	21	9	8	4
920242	PROB	n/a	LTP117	ltpFR2	5	n/a	n/a	n/a	8	18	8	2	8
921041	PROB	n/a	LTP117	ltpFR2	5	n/a	n/a	n/a	8	14	1	7	6
921923	PROB	n/a	LTP117	ltpFR2	5	n/a	n/a	n/a	8	9	1	1	7
923071	PROB	n/a	LTP117	ltpFR2	5	n/a	n/a	n/a	8	13	8	2	3
924070	PROB	n/a	LTP117	ltpFR2	5	n/a	n/a	n/a	8	17	6	9	2
925716	PROB	n/a	LTP117	ltpFR2	5	n/a	n/a	n/a	8	11	1	7	3
926450	PROB	n/a	LTP117	ltpFR2	5	n/a	n/a	n/a	8	14	5	4	5
927265	PROB	n/a	LTP117	ltpFR2	5	n/a	n/a	n/a	8	8	2	4	2
928197	PROB	n/a	LTP117	ltpFR2	5	n/a	n/a	n/a	8	14	4	6	4
929062	PROB	n/a	LTP117	ltpFR2	5	n/a	n/a	n/a	8	19	6	4	9
930277	PROB	n/a	LTP117	ltpFR2	5	n/a	n/a	n/a	8	21	9	9	4
931392	PROB	n/a	LTP117	ltpFR2	5	n/a	n/a	n/a	8	18	1	8	9
932441	PROB	n/a	LTP117	ltpFR2	5	n/a	n/a	n/a	8	21	4	9	8
933638	PROB	n/a	LTP117	ltpFR2	5	n/a	n/a	n/a	8	21	8	6	9
935618	PROB	n/a	LTP117	ltpFR2	5	n/a	n/a	n/a	8	9	1	3	5
938967	STOP	n/a	LTP117	ltpFR2	5	n/a	n/a	n/a	8	n/a	n/a	n/a	n/a
940912	REC_START	n/a	LTP117	ltpFR2	5	5	n/a	n/a	n/a	n/a	0	0	0
942666	REC_WORD	wordpools/wasnorm_wordpool_576.txt	LTP117	ltpFR2	5	5	MARSH	874	n/a	n/a	0	0	0
943371	REC_WORD	wordpools/wasnorm_wordpool_576.txt	LTP117	ltpFR2	5	5	PLAYGROUND	1087	n/a	n/a	0	0	0
944176	REC_WORD	wordpools/wasnorm_wordpool_576.txt	LTP117	ltpFR2	5	5	COOKBOOK	373	n/a	n/a	0	0	0
945033	REC_WORD	wordpools/wasnorm_wordpool_576.txt	LTP117	ltpFR2	5	5	CARROT	249	n/a	n/a	0	0	0
953380	REC_WORD	wordpools/wasnorm_wordpool_576.txt	LTP117	ltpFR2	5	5	WAGON	1578	n/a	n/a	0	0	0
954574	REC_WORD	wordpools/wasnorm_wordpool_576.txt	LTP117	ltpFR2	5	5	COMET	353	n/a	n/a	0	0	0
955306	REC_WORD	wordpools/wasnorm_wordpool_576.txt	LTP117	ltpFR2	5	5	TWISTER	1530	n/a	n/a	0	0	0
956031	REC_WORD	wordpools/wasnorm_wordpool_576.txt	LTP117	ltpFR2	5	5	CYCLONE	431	n/a	n/a	0	0	0
957021	REC_WORD	wordpools/wasnorm_wordpool_576.txt	LTP117	ltpFR2	5	5	LUNCH	849	n/a	n/a	0	0	0
958304	REC_WORD	wordpools/wasnorm_wordpool_576.txt	LTP117	ltpFR2	5	5	PICNIC	1060	n/a	n/a	0	0	0
960120	REC_WORD	wordpools/wasnorm_wordpool_576.txt	LTP117	ltpFR2	5	5	WAGON	1578	n/a	n/a	0	0	0
962245	REC_WORD	wordpools/wasnorm_wordpool_576.txt	LTP117	ltpFR2	5	5	LEOPARD	812	n/a	n/a	0	0	0
963016	REC_WORD	wordpools/wasnorm_wordpool_576.txt	LTP117	ltpFR2	5	5	CAMEL	223	n/a	n/a	0	0	0
965234	REC_WORD	wordpools/wasnorm_wordpool_576.txt	LTP117	ltpFR2	5	5	PIGEON	1065	n/a	n/a	0	0	0
970422	REC_WORD	wordpools/wasnorm_wordpool_576.txt	LTP117	ltpFR2	5	5	VENUS	1557	n/a	n/a	0	0	0
972799	REC_WORD	wordpools/wasnorm_wordpool_576.txt	LTP117	ltpFR2	5	5	PLAYGROUND	1087	n/a	n/a	0	0	0
973353	REC_WORD	wordpools/wasnorm_wordpool_576.txt	LTP117	ltpFR2	5	5	SLIDE	1326	n/a	n/a	0	0	0
981563	REC_WORD	wordpools/wasnorm_wordpool_576.txt	LTP117	ltpFR2	5	5	NIGHTGOWN	953	n/a	n/a	0	0	0
1031575	WORD	wordpools/wasnorm_wordpool_576.txt	LTP117	ltpFR2	5	6	SCARECROW	1245	n/a	n/a	0	0	0
1034389	WORD	wordpools/wasnorm_wordpool_576.txt	LTP117	ltpFR2	5	6	APRON	35	n/a	n/a	0	0	0
1036817	WORD	wordpools/wasnorm_wordpool_576.txt	LTP117	ltpFR2	5	6	DUST	508	n/a	n/a	0	0	0
1039481	WORD	wordpools/wasnorm_wordpool_576.txt	LTP117	ltpFR2	5	6	ATOM	55	n/a	n/a	0	0	0
1042160	WORD	wordpools/wasnorm_wordpool_576.txt	LTP117	ltpFR2	5	6	BISON	131	n/a	n/a	0	0	0
1044973	WORD	wordpools/wasnorm_wordpool_576.txt	LTP117	ltpFR2	5	6	TART	1436	n/a	n/a	0	0	0
1047419	WORD	wordpools/wasnorm_wordpool_576.txt	LTP117	ltpFR2	5	6	FRIAR	605	n/a	n/a	0	0	0
1050215	WORD	wordpools/wasnorm_wordpool_576.txt	LTP117	ltpFR2	5	6	CANAL	226	n/a	n/a	0	0	0
1052861	WORD	wordpools/wasnorm_wordpool_576.txt	LTP117	ltpFR2	5	6	CHEST	295	n/a	n/a	0	0	0
1055656	WORD	wordpools/wasnorm_wordpool_576.txt	LTP117	ltpFR2	5	6	FLAG	573	n/a	n/a	0	0	0
1058436	WORD	wordpools/wasnorm_wordpool_576.txt	LTP117	ltpFR2	5	6	LACE	792	n/a	n/a	0	0	0
1060949	WORD	wordpools/wasnorm_wordpool_576.txt	LTP117	ltpFR2	5	6	HATCHET	691	n/a	n/a	0	0	0
1063379	WORD	wordpools/wasnorm_wordpool_576.txt	LTP117	ltpFR2	5	6	EAGLE	512	n/a	n/a	0	0	0
1065891	WORD	wordpools/wasnorm_wordpool_576.txt	LTP117	ltpFR2	5	6	EUROPE	541	n/a	n/a	0	0	0
1068488	WORD	wordpools/wasnorm_wordpool_576.txt	LTP117	ltpFR2	5	6	QUAIL	1147	n/a	n/a	0	0	0
1071184	WORD	wordpools/wasnorm_wordpool_576.txt	LTP117	ltpFR2	5	6	PANTHER	1009	n/a	n/a	0	0	0
1073679	WORD	wordpools/wasnorm_wordpool_576.txt	LTP117	ltpFR2	5	6	BEEF	113	n/a	n/a	0	0	0
1076276	WORD	wordpools/wasnorm_wordpool_576.txt	LTP117	ltpFR2	5	6	MEAT	883	n/a	n/a	0	0	0
1078788	WORD	wordpools/wasnorm_wordpool_576.txt	LTP117	ltpFR2	5	6	KNIFE	785	n/a	n/a	0	0	0
1081368	WORD	wordpools/wasnorm_wordpool_576.txt	LTP117	ltpFR2	5	6	HEDGE	699	n/a	n/a	0	0	0
1083898	WORD	wordpools/wasnorm_wordpool_576.txt	LTP117	ltpFR2	5	6	TWIG	1527	n/a	n/a	0	0	0
1086511	WORD	wordpools/wasnorm_wordpool_576.txt	LTP117	ltpFR2	5	6	SPHINX	1349	n/a	n/a	0	0	0
1089057	WORD	wordpools/wasnorm_wordpool_576.txt	LTP117	ltpFR2	5	6	CREATURE	403	n/a	n/a	0	0	0
1091619	WORD	wordpools/wasnorm_wordpool_576.txt	LTP117	ltpFR2	5	6	CASHIER	254	n/a	n/a	0	0	0
1093234	START	n/a	LTP117	ltpFR2	5	n/a	n/a	n/a	9	n/a	n/a	n/a	n/a
1094101	DISTRACTOR	n/a	LTP117	ltpFR2	5	6	n/a	n/a	n/a	n/a	0	0	0
1094116	PROB	n/a	LTP117	ltpFR2	5	n/a	n/a	n/a	9	17	6	9	2
1096811	PROB	n/a	LTP117	ltpFR2	5	n/a	n/a	n/a	9	13	2	3	8
1097860	PROB	n/a	LTP117	ltpFR2	5	n/a	n/a	n/a	9	19	8	9	2
1099408	PROB	n/a	LTP117	ltpFR2	5	n/a	n/a	n/a	9	14	3	9	2
1100323	PROB	n/a	LTP117	ltpFR2	5	n/a	n/a	n/a	9	19	7	3	9
1101205	PROB	n/a	LTP117	ltpFR2	5	n/a	n/a	n/a	9	17	7	6	4
1102271	PROB	n/a	LTP117	ltpFR2	5	n/a	n/a	n/a	9	20	7	5	9
1103534	PROB	n/a	LTP117	ltpFR2	5	n/a	n/a	n/a	9	8	3	2	3
1104484	PROB	n/a	LTP117	ltpFR2	5	n/a	n/a	n/a	9	22	9	6	7
1105764	PROB	n/a	LTP117	ltpFR2	5	n/a	n/a	n/a	9	15	5	7	3
1107163	PROB	n/a	LTP117	ltpFR2	5	n/a	n/a	n/a	9	4	2	1	1
1108095	PROB	n/a	LTP117	ltpFR2	5	n/a	n/a	n/a	9	18	9	6	3
1109277	PROB	n/a	LTP117	ltpFR2	5	n/a	n/a	n/a	9	15	7	6	2
1110192	PROB	n/a	LTP117	ltpFR2	5	n/a	n/a	n/a	9	14	8	1	5
1111307	PROB	n/a	LTP117	ltpFR2	5	n/a	n/a	n/a	9	19	8	7	4
1113719	PROB	n/a	LTP117	ltpFR2	5	n/a	n/a	n/a	9	21	7	8	6
1115251	PROB	n/a	LTP117	ltpFR2	5	n/a	n/a	n/a	9	16	6	7	3
1116564	STOP	n/a	LTP117	ltpFR2	5	n/a	n/a	n/a	9	n/a	n/a	n/a	n/a
1119129	REC_START	n/a	LTP117	ltpFR2	5	6	n/a	n/a	n/a	n/a	0	0	0
1119531	REC_WORD	wordpools/wasnorm_wordpool_576.txt	LTP117	ltpFR2	5	6	FRIAR	605	n/a	n/a	0	0	0
1120274	REC_WORD	wordpools/wasnorm_wordpool_576.txt	LTP117	ltpFR2	5	6	SPHINX	1349	n/a	n/a	0	0	0
1121134	REC_WORD	wordpools/wasnorm_wordpool_576.txt	LTP117	ltpFR2	5	6	CASHIER	254	n/a	n/a	0	0	0
1125499	REC_WORD	wordpools/wasnorm_wordpool_576.txt	LTP117	ltpFR2	5	6	QUAIL	1147	n/a	n/a	0	0	0
1126711	REC_WORD	wordpools/wasnorm_wordpool_576.txt	LTP117	ltpFR2	5	6	LEOPARD	812	n/a	n/a	0	0	0
1128074	REC_WORD	wordpools/wasnorm_wordpool_576.txt	LTP117	ltpFR2	5	6	BEEF	113	n/a	n/a	0	0	0
1128961	REC_WORD	wordpools/wasnorm_wordpool_576.txt	LTP117	ltpFR2	5	6	MEAT	883	n/a	n/a	0	0	0
1129824	REC_WORD	wordpools/wasnorm_wordpool_576.txt	LTP117	ltpFR2	5	6	KNIFE	785	n/a	n/a	0	0	0
1131578	REC_WORD	wordpools/wasnorm_wordpool_576.txt	LTP117	ltpFR2	5	6	FRIAR	605	n/a	n/a	0	0	0
1132251	REC_WORD	wordpools/wasnorm_wordpool_576.txt	LTP117	ltpFR2	5	6	SPHINX	1349	n/a	n/a	0	0	0
1137151	REC_WORD	wordpools/wasnorm_wordpool_576.txt	LTP117	ltpFR2	5	6	SCARECROW	1245	n/a	n/a	0	0	0
1139023	REC_WORD	wordpools/wasnorm_wordpool_576.txt	LTP117	ltpFR2	5	6	DUST	508	n/a	n/a	0	0	0
1140160	REC_WORD	wordpools/wasnorm_wordpool_576.txt	LTP117	ltpFR2	5	6	BISON	131	n/a	n/a	0	0	0
1142023	REC_WORD	wordpools/wasnorm_wordpool_576.txt	LTP117	ltpFR2	5	6	APRON	35	n/a	n/a	0	0	0
1144498	REC_WORD	wordpools/wasnorm_wordpool_576.txt	LTP117	ltpFR2	5	6	TART	1436	n/a	n/a	0	0	0
1173679	REC_WORD	wordpools/wasnorm_wordpool_576.txt	LTP117	ltpFR2	5	6	TOASTER	1472	n/a	n/a	0	0	0
1179521	REC_WORD	wordpools/wasnorm_wordpool_576.txt	LTP117	ltpFR2	5	6	CHEST	295	n/a	n/a	0	0	0
1184460	REC_WORD	wordpools/wasnorm_wordpool_576.txt	LTP117	ltpFR2	5	6	BEEF	113	n/a	n/a	0	0	0
1209792	DISTRACTOR	n/a	LTP117	ltpFR2	5	7	n/a	n/a	n/a	n/a	0	0	0
1209793	START	n/a	LTP117	ltpFR2	5	n/a	n/a	n/a	10	n/a	n/a	n/a	n/a
1209826	PROB	n/a	LTP117	ltpFR2	5	n/a	n/a	n/a	10	16	1	7	8
1210975	PROB	n/a	LTP117	ltpFR2	5	n/a	n/a	n/a	10	18	8	2	8
1211773	PROB	n/a	LTP117	ltpFR2	5	n/a	n/a	n/a	10	16	1	7	9
1212571	PROB	n/a	LTP117	ltpFR2	5	n/a	n/a	n/a	10	15	7	4	4
1213720	PROB	n/a	LTP117	ltpFR2	5	n/a	n/a	n/a	10	10	7	1	2
1214886	PROB	n/a	LTP117	ltpFR2	5	n/a	n/a	n/a	10	11	1	2	8
1216117	PROB	n/a	LTP117	ltpFR2	5	n/a	n/a	n/a	10	17	3	6	9
1217232	PROB	n/a	LTP117	ltpFR2	5	n/a	n/a	n/a	10	15	8	6	1
1218281	PROB	n/a	LTP117	ltpFR2	5	n/a	n/a	n/a	10	13	7	4	2
1221326	PROB	n/a	LTP117	ltpFR2	5	n/a	n/a	n/a	10	13	5	1	7
1222491	PROB	n/a	LTP117	ltpFR2	5	n/a	n/a	n/a	10	16	8	1	7
1223755	PROB	n/a	LTP117	ltpFR2	5	n/a	n/a	n/a	10	15	4	9	2
1224904	PROB	n/a	LTP117	ltpFR2	5	n/a	n/a	n/a	10	7	1	3	3
1226136	PROB	n/a	LTP117	ltpFR2	5	n/a	n/a	n/a	10	6	3	1	2
1227134	PROB	n/a	LTP117	ltpFR2	5	n/a	n/a	n/a	10	11	7	2	2
1227933	PROB	n/a	LTP117	ltpFR2	5	n/a	n/a	n/a	10	10	6	3	1
1228781	PROB	n/a	LTP117	ltpFR2	5	n/a	n/a	n/a	10	13	3	1	9
1229963	PROB	n/a	LTP117	ltpFR2	5	n/a	n/a	n/a	10	11	5	2	3
1233793	STOP	n/a	LTP117	ltpFR2	5	n/a	n/a	n/a	10	n/a	n/a	n/a	n/a
1234906	WORD	wordpools/wasnorm_wordpool_576.txt	LTP117	ltpFR2	5	7	LIVER	833	n/a	n/a	0	0	0
1237534	WORD	wordpools/wasnorm_wordpool_576.txt	LTP117	ltpFR2	5	7	FRIEND	606	n/a	n/a	0	0	0
1240148	WORD	wordpools/wasnorm_wordpool_576.txt	LTP117	ltpFR2	5	7	CLOUD	328	n/a	n/a	0	0	0
1242877	WORD	wordpools/wasnorm_wordpool_576.txt	LTP117	ltpFR2	5	7	ZEBRA	1635	n/a	n/a	0	0	0
1245357	WORD	wordpools/wasnorm_wordpool_576.txt	LTP117	ltpFR2	5	7	TRUCK	1512	n/a	n/a	0	0	0
1247819	WORD	wordpools/wasnorm_wordpool_576.txt	LTP117	ltpFR2	5	7	EGYPT	519	n/a	n/a	0	0	0
1250316	WORD	wordpools/wasnorm_wordpool_576.txt	LTP117	ltpFR2	5	7	CABBAGE	210	n/a	n/a	0	0	0
1253045	WORD	wordpools/wasnorm_wordpool_576.txt	LTP117	ltpFR2	5	7	BANQUET	86	n/a	n/a	0	0	0
1255774	WORD	wordpools/wasnorm_wordpool_576.txt	LTP117	ltpFR2	5	7	CAFE	216	n/a	n/a	0	0	0
1258221	WORD	wordpools/wasnorm_wordpool_576.txt	LTP117	ltpFR2	5	7	LEADER	807	n/a	n/a	0	0	0
1260716	WORD	wordpools/wasnorm_wordpool_576.txt	LTP117	ltpFR2	5	7	SCALLOP	1242	n/a	n/a	0	0	0
1263280	WORD	wordpools/wasnorm_wordpool_576.txt	LTP117	ltpFR2	5	7	YOLK	1633	n/a	n/a	0	0	0
1265825	WORD	wordpools/wasnorm_wordpool_576.txt	LTP117	ltpFR2	5	7	DONKEY	484	n/a	n/a	0	0	0
1268439	WORD	wordpools/wasnorm_wordpool_576.txt	LTP117	ltpFR2	5	7	DENTIST	447	n/a	n/a	0	0	0
1271202	WORD	wordpools/wasnorm_wordpool_576.txt	LTP117	ltpFR2	5	7	MILDEW	893	n/a	n/a	0	0	0
1273981	WORD	wordpools/wasnorm_wordpool_576.txt	LTP117	ltpFR2	5	7	TOURIST	1488	n/a	n/a	0	0	0
1276559	WORD	wordpools/wasnorm_wordpool_576.txt	LTP117	ltpFR2	5	7	GIFT	635	n/a	n/a	0	0	0
1279290	WORD	wordpools/wasnorm_wordpool_576.txt	LTP117	ltpFR2	5	7	KIDNEY	776	n/a	n/a	0	0	0
1282019	WORD	wordpools/wasnorm_wordpool_576.txt	LTP117	ltpFR2	5	7	KETCHUP	771	n/a	n/a	0	0	0
1284747	WORD	wordpools/wasnorm_wordpool_576.txt	LTP117	ltpFR2	5	7	MAILMAN	858	n/a	n/a	0	0	0
1287361	WORD	wordpools/wasnorm_wordpool_576.txt	LTP117	ltpFR2	5	7	GARDEN	623	n/a	n/a	0	0	0
1289839	WORD	wordpools/wasnorm_wordpool_576.txt	LTP117	ltpFR2	5	7	PARSLEY	1016	n/a	n/a	0	0	0
1292569	WORD	wordpools/wasnorm_wordpool_576.txt	LTP117	ltpFR2	5	7	GANGSTER	620	n/a	n/a	0	0	0
1295382	WORD	wordpools/wasnorm_wordpool_576.txt	LTP117	ltpFR2	5	7	RIFLE	1192	n/a	n/a	0	0	0
1296997	START	n/a	LTP117	ltpFR2	5	n/a	n/a	n/a	11	n/a	n/a	n/a	n/a
1298067	DISTRACTOR	n/a	LTP117	ltpFR2	5	7	n/a	n/a	n/a	n/a	0	0	0
1298078	PROB	n/a	LTP117	ltpFR2	5	n/a	n/a	n/a	11	16	8	6	2
1299608	PROB	n/a	LTP117	ltpFR2	5	n/a	n/a	n/a	11	20	5	7	8
1300941	PROB	n/a	LTP117	ltpFR2	5	n/a	n/a	n/a	11	20	9	6	5
1302305	PROB	n/a	LTP117	ltpFR2	5	n/a	n/a	n/a	11	15	6	2	7
1303903	PROB	n/a	LTP117	ltpFR2	5	n/a	n/a	n/a	11	18	1	9	8
1305384	PROB	n/a	LTP117	ltpFR2	5	n/a	n/a	n/a	11	14	4	6	4
1306847	PROB	n/a	LTP117	ltpFR2	5	n/a	n/a	n/a	11	20	8	8	4
1307829	PROB	n/a	LTP117	ltpFR2	5	n/a	n/a	n/a	11	24	9	6	9
1309311	PROB	n/a	LTP117	ltpFR2	5	n/a	n/a	n/a	11	13	6	1	6
1310144	PROB	n/a	LTP117	ltpFR2	5	n/a	n/a	n/a	11	13	6	2	5
1311574	PROB	n/a	LTP117	ltpFR2	5	n/a	n/a	n/a	11	20	8	8	4
1312539	PROB	n/a	LTP117	ltpFR2	5	n/a	n/a	n/a	11	15	5	3	7
1313770	PROB	n/a	LTP117	ltpFR2	5	n/a	n/a	n/a	11	21	7	5	6
1314903	PROB	n/a	LTP117	ltpFR2	5	n/a	n/a	n/a	11	5	1	2	2
1315801	PROB	n/a	LTP117	ltpFR2	5	n/a	n/a	n/a	11	18	8	6	4
1317000	PROB	n/a	LTP117	ltpFR2	5	n/a	n/a	n/a	11	25	9	7	9
1318730	PROB	n/a	LTP117	ltpFR2	5	n/a	n/a	n/a	11	19	8	8	3
1319941	STOP	n/a	LTP117	ltpFR2	5	n/a	n/a	n/a	11	n/a	n/a	n/a	n/a
1322858	REC_START	n/a	LTP117	ltpFR2	5	7	n/a	n/a	n/a	n/a	0	0	0
1325466	REC_WORD	wordpools/wasnorm_wordpool_576.txt	LTP117	ltpFR2	5	7	GANGSTER	620	n/a	n/a	0	0	0
1326242	REC_WORD	wordpools/wasnorm_wordpool_576.txt	LTP117	ltpFR2	5	7	RIFLE	1192	n/a	n/a	0	0	0
1328614	REC_WORD	wordpools/wasnorm_wordpool_576.txt	LTP117	ltpFR2	5	7	MAILMAN	858	n/a	n/a	0	0	0
1329377	REC_WORD	wordpools/wasnorm_wordpool_576.txt	LTP117	ltpFR2	5	7	PARSLEY	1016	n/a	n/a	0	0	0
1330205	REC_WORD	wordpools/wasnorm_wordpool_576.txt	LTP117	ltpFR2	5	7	GARDEN	623	n/a	n/a	0	0	0
1332077	REC_WORD	wordpools/wasnorm_wordpool_576.txt	LTP117	ltpFR2	5	7	GIFT	635	n/a	n/a	0	0	0
1335680	REC_WORD	wordpools/wasnorm_wordpool_576.txt	LTP117	ltpFR2	5	7	BANQUET	86	n/a	n/a	0	0	0
1336787	REC_WORD	wordpools/wasnorm_wordpool_576.txt	LTP117	ltpFR2	5	7	EGYPT	519	n/a	n/a	0	0	0
1338727	REC_WORD	wordpools/wasnorm_wordpool_576.txt	LTP117	ltpFR2	5	7	LEADER	807	n/a	n/a	0	0	0
1339822	REC_WORD	wordpools/wasnorm_wordpool_576.txt	LTP117	ltpFR2	5	7	DENTIST	447	n/a	n/a	0	0	0
1340738	REC_WORD	wordpools/wasnorm_wordpool_576.txt	LTP117	ltpFR2	5	7	KIDNEY	776	n/a	n/a	0	0	0
1341449	REC_WORD	wordpools/wasnorm_wordpool_576.txt	LTP117	ltpFR2	5	7	LIVER	833	n/a	n/a	0	0	0
1342278	REC_WORD	wordpools/wasnorm_wordpool_576.txt	LTP117	ltpFR2	5	7	ZEBRA	1635	n/a	n/a	0	0	0
1344052	REC_WORD	wordpools/wasnorm_wordpool_576.txt	LTP117	ltpFR2	5	7	KETCHUP	771	n/a	n/a	0	0	0
1344656	REC_WORD	wordpools/wasnorm_wordpool_576.txt	LTP117	ltpFR2	5	7	SCALLOP	1242	n/a	n/a	0	0	0
1349133	REC_WORD	wordpools/wasnorm_wordpool_576.txt	LTP117	ltpFR2	5	7	YOLK	1633	n/a	n/a	0	0	0
1356649	REC_WORD	wordpools/wasnorm_wordpool_576.txt	LTP117	ltpFR2	5	7	FRIEND	606	n/a	n/a	0	0	0
1413521	WORD	wordpools/wasnorm_wordpool_576.txt	LTP117	ltpFR2	5	8	SCULPTURE	1258	n/a	n/a	0	0	0
1416335	WORD	wordpools/wasnorm_wordpool_576.txt	LTP117	ltpFR2	5	8	CATCHER	258	n/a	n/a	0	0	0
1419097	WORD	wordpools/wasnorm_wordpool_576.txt	LTP117	ltpFR2	5	8	KNAPSACK	783	n/a	n/a	0	0	0
1421643	WORD	wordpools/wasnorm_wordpool_576.txt	LTP117	ltpFR2	5	8	SCISSORS	1250	n/a	n/a	0	0	0
1424323	WORD	wordpools/wasnorm_wordpool_576.txt	LTP117	ltpFR2	5	8	GARBAGE	622	n/a	n/a	0	0	0
1426886	WORD	wordpools/wasnorm_wordpool_576.txt	LTP117	ltpFR2	5	8	CRUTCH	417	n/a	n/a	0	0	0
1429631	WORD	wordpools/wasnorm_wordpool_576.txt	LTP117	ltpFR2	5	8	GAZELLE	628	n/a	n/a	0	0	0
1432361	WORD	wordpools/wasnorm_wordpool_576.txt	LTP117	ltpFR2	5	8	CROSS	413	n/a	n/a	0	0	0
1435007	WORD	wordpools/wasnorm_wordpool_576.txt	LTP117	ltpFR2	5	8	BRANCH	168	n/a	n/a	0	0	0
1437569	WORD	wordpools/wasnorm_wordpool_576.txt	LTP117	ltpFR2	5	8	LEG	809	n/a	n/a	0	0	0
1440266	WORD	wordpools/wasnorm_wordpool_576.txt	LTP117	ltpFR2	5	8	SPACE	1345	n/a	n/a	0	0	0
1443012	WORD	wordpools/wasnorm_wordpool_576.txt	LTP117	ltpFR2	5	8	BUTCHER	203	n/a	n/a	0	0	0
1445624	WORD	wordpools/wasnorm_wordpool_576.txt	LTP117	ltpFR2	5	8	PAPER	1011	n/a	n/a	0	0	0
1448204	WORD	wordpools/wasnorm_wordpool_576.txt	LTP117	ltpFR2	5	8	OUTFIT	988	n/a	n/a	0	0	0
1450867	WORD	wordpools/wasnorm_wordpool_576.txt	LTP117	ltpFR2	5	8	WARDROBE	1587	n/a	n/a	0	0	0
1453413	WORD	wordpools/wasnorm_wordpool_576.txt	LTP117	ltpFR2	5	8	TABLET	1427	n/a	n/a	0	0	0
1456225	WORD	wordpools/wasnorm_wordpool_576.txt	LTP117	ltpFR2	5	8	SIDEWALK	1303	n/a	n/a	0	0	0
1458704	WORD	wordpools/wasnorm_wordpool_576.txt	LTP117	ltpFR2	5	8	RAZOR	1171	n/a	n/a	0	0	0
1461384	WORD	wordpools/wasnorm_wordpool_576.txt	LTP117	ltpFR2	5	8	SWORD	1423	n/a	n/a	0	0	0
1464180	WORD	wordpools/wasnorm_wordpool_576.txt	LTP117	ltpFR2	5	8	SLOPE	1328	n/a	n/a	0	0	0
1466842	WORD	wordpools/wasnorm_wordpool_576.txt	LTP117	ltpFR2	5	8	SNAKE	1333	n/a	n/a	0	0	0
1469489	WORD	wordpools/wasnorm_wordpool_576.txt	LTP117	ltpFR2	5	8	NEUTRON	947	n/a	n/a	0	0	0
1472018	WORD	wordpools/wasnorm_wordpool_576.txt	LTP117	ltpFR2	5	8	MAPLE	866	n/a	n/a	0	0	0
1474530	WORD	wordpools/wasnorm_wordpool_576.txt	LTP117	ltpFR2	5	8	SKETCH	1315	n/a	n/a	0	0	0
1476146	START	n/a	LTP117	ltpFR2	5	n/a	n/a	n/a	12	n/a	n/a	n/a	n/a
1477068	DISTRACTOR	n/a	LTP117	ltpFR2	5	8	n/a	n/a	n/a	n/a	0	0	0
1477078	PROB	n/a	LTP117	ltpFR2	5	n/a	n/a	n/a	12	17	5	6	5
1478292	PROB	n/a	LTP117	ltpFR2	5	n/a	n/a	n/a	12	16	4	6	6
1479491	PROB	n/a	LTP117	ltpFR2	5	n/a	n/a	n/a	12	21	9	4	8
1480922	PROB	n/a	LTP117	ltpFR2	5	n/a	n/a	n/a	12	16	1	8	7
1481720	PROB	n/a	LTP117	ltpFR2	5	n/a	n/a	n/a	12	13	5	5	3
1482503	PROB	n/a	LTP117	ltpFR2	5	n/a	n/a	n/a	12	11	8	1	2
1483733	PROB	n/a	LTP117	ltpFR2	5	n/a	n/a	n/a	12	9	1	4	4
1485199	PROB	n/a	LTP117	ltpFR2	5	n/a	n/a	n/a	12	12	5	1	6
1486147	PROB	n/a	LTP117	ltpFR2	5	n/a	n/a	n/a	12	10	3	4	3
1487561	PROB	n/a	LTP117	ltpFR2	5	n/a	n/a	n/a	12	21	8	8	5
1488759	PROB	n/a	LTP117	ltpFR2	5	n/a	n/a	n/a	12	13	3	2	8
1490042	PROB	n/a	LTP117	ltpFR2	5	n/a	n/a	n/a	12	24	6	9	9
1491655	PROB	n/a	LTP117	ltpFR2	5	n/a	n/a	n/a	12	16	9	6	1
1492405	PROB	n/a	LTP117	ltpFR2	5	n/a	n/a	n/a	12	10	1	2	7
1493203	PROB	n/a	LTP117	ltpFR2	5	n/a	n/a	n/a	12	16	7	2	7
1494684	PROB	n/a	LTP117	ltpFR2	5	n/a	n/a	n/a	12	23	7	8	8
1496249	PROB	n/a	LTP117	ltpFR2	5	n/a	n/a	n/a	12	9	2	4	3
1497231	PROB	n/a	LTP117	ltpFR2	5	n/a	n/a	n/a	12	19	5	8	6
1498296	PROB	n/a	LTP117	ltpFR2	5	n/a	n/a	n/a	12	10	3	2	5
1499413	STOP	n/a	LTP117	ltpFR2	5	n/a	n/a	n/a	12	n/a	n/a	n/a	n/a
1501958	REC_START	n/a	LTP117	ltpFR2	5	8	n/a	n/a	n/a	n/a	0	0	0
1502170	REC_WORD	wordpools/wasnorm_wordpool_576.txt	LTP117	ltpFR2	5	8	SNAKE	1333	n/a	n/a	0	0	0
1502987	REC_WORD	wordpools/wasnorm_wordpool_576.txt	LTP117	ltpFR2	5	8	NEUTRON	947	n/a	n/a	0	0	0
1503798	REC_WORD	wordpools/wasnorm_wordpool_576.txt	LTP117	ltpFR2	5	8	MAPLE	866	n/a	n/a	0	0	0
1504285	REC_WORD	wordpools/wasnorm_wordpool_576.txt	LTP117	ltpFR2	5	8	SKETCH	1315	n/a	n/a	0	0	0
1505520	REC_WORD	wordpools/wasnorm_wordpool_576.txt	LTP117	ltpFR2	5	8	SLOPE	1328	n/a	n/a	0	0	0
1508369	REC_WORD	wordpools/wasnorm_wordpool_576.txt	LTP117	ltpFR2	5	8	SIDEWALK	1303	n/a	n/a	0	0	0
1520215	REC_WORD	wordpools/wasnorm_wordpool_576.txt	LTP117	ltpFR2	5	8	SCULPTURE	1258	n/a	n/a	0	0	0
1521143	REC_WORD	wordpools/wasnorm_wordpool_576.txt	LTP117	ltpFR2	5	8	KNAPSACK	783	n/a	n/a	0	0	0
1522087	REC_WORD	wordpools/wasnorm_wordpool_576.txt	LTP117	ltpFR2	5	8	CATCHER	258	n/a	n/a	0	0	0
1523201	REC_WORD	wordpools/wasnorm_wordpool_576.txt	LTP117	ltpFR2	5	8	OUTFIT	988	n/a	n/a	0	0	0
1524510	REC_WORD	wordpools/wasnorm_wordpool_576.txt	LTP117	ltpFR2	5	8	LEG	809	n/a	n/a	0	0	0
1525319	REC_WORD	wordpools/wasnorm_wordpool_576.txt	LTP117	ltpFR2	5	8	BRANCH	168	n/a	n/a	0	0	0
1526027	REC_WORD	wordpools/wasnorm_wordpool_576.txt	LTP117	ltpFR2	5	8	WARDROBE	1587	n/a	n/a	0	0	0
1526793	REC_WORD	wordpools/wasnorm_wordpool_576.txt	LTP117	ltpFR2	5	8	TABLET	1427	n/a	n/a	0	0	0
1527537	REC_WORD	wordpools/wasnorm_wordpool_576.txt	LTP117	ltpFR2	5	8	RAZOR	1171	n/a	n/a	0	0	0
1528198	REC_WORD	wordpools/wasnorm_wordpool_576.txt	LTP117	ltpFR2	5	8	SWORD	1423	n/a	n/a	0	0	0
1532653	REC_WORD	wordpools/wasnorm_wordpool_576.txt	LTP117	ltpFR2	5	8	GARBAGE	622	n/a	n/a	0	0	0
1540159	REC_WORD	wordpools/wasnorm_wordpool_576.txt	LTP117	ltpFR2	5	8	GAZELLE	628	n/a	n/a	0	0	0
1540978	REC_WORD	wordpools/wasnorm_wordpool_576.txt	LTP117	ltpFR2	5	8	BUTCHER	203	n/a	n/a	0	0	0
1553789	REC_WORD	wordpools/wasnorm_wordpool_576.txt	LTP117	ltpFR2	5	8	CROSS	413	n/a	n/a	0	0	0
1567562	REC_WORD	wordpools/wasnorm_wordpool_576.txt	LTP117	ltpFR2	5	8	CRUTCH	417	n/a	n/a	0	0	0
1578592	REST_REWET	n/a	LTP117	ltpFR2	5	8	n/a	n/a	n/a	n/a	0	0	0
1902741	WORD	wordpools/wasnorm_wordpool_576.txt	LTP117	ltpFR2	5	9	SWITCH	1422	n/a	n/a	0	0	0
1905355	WORD	wordpools/wasnorm_wordpool_576.txt	LTP117	ltpFR2	5	9	LASER	801	n/a	n/a	0	0	0
1907800	WORD	wordpools/wasnorm_wordpool_576.txt	LTP117	ltpFR2	5	9	ICEBERG	731	n/a	n/a	0	0	0
1910613	WORD	wordpools/wasnorm_wordpool_576.txt	LTP117	ltpFR2	5	9	FREEZER	604	n/a	n/a	0	0	0
1913260	WORD	wordpools/wasnorm_wordpool_576.txt	LTP117	ltpFR2	5	9	TUNNEL	1519	n/a	n/a	0	0	0
1915922	WORD	wordpools/wasnorm_wordpool_576.txt	LTP117	ltpFR2	5	9	NAPKIN	937	n/a	n/a	0	0	0
1918402	WORD	wordpools/wasnorm_wordpool_576.txt	LTP117	ltpFR2	5	9	ITEM	746	n/a	n/a	0	0	0
1920948	WORD	wordpools/wasnorm_wordpool_576.txt	LTP117	ltpFR2	5	9	GYMNAST	675	n/a	n/a	0	0	0
1923428	WORD	wordpools/wasnorm_wordpool_576.txt	LTP117	ltpFR2	5	9	DENIM	446	n/a	n/a	0	0	0
1926240	WORD	wordpools/wasnorm_wordpool_576.txt	LTP117	ltpFR2	5	9	ORANGE	980	n/a	n/a	0	0	0
1928903	WORD	wordpools/wasnorm_wordpool_576.txt	LTP117	ltpFR2	5	9	DAISY	435	n/a	n/a	0	0	0
1931531	WORD	wordpools/wasnorm_wordpool_576.txt	LTP117	ltpFR2	5	9	SHORTCAKE	1292	n/a	n/a	0	0	0
1934029	WORD	wordpools/wasnorm_wordpool_576.txt	LTP117	ltpFR2	5	9	FLEET	578	n/a	n/a	0	0	0
1936674	WORD	wordpools/wasnorm_wordpool_576.txt	LTP117	ltpFR2	5	9	GUARD	667	n/a	n/a	0	0	0
1939104	WORD	wordpools/wasnorm_wordpool_576.txt	LTP117	ltpFR2	5	9	COURSE	390	n/a	n/a	0	0	0
1941733	WORD	wordpools/wasnorm_wordpool_576.txt	LTP117	ltpFR2	5	9	STOMACH	1384	n/a	n/a	0	0	0
1944380	WORD	wordpools/wasnorm_wordpool_576.txt	LTP117	ltpFR2	5	9	STAPLE	1371	n/a	n/a	0	0	0
1946976	WORD	wordpools/wasnorm_wordpool_576.txt	LTP117	ltpFR2	5	9	HOSTESS	723	n/a	n/a	0	0	0
1949721	WORD	wordpools/wasnorm_wordpool_576.txt	LTP117	ltpFR2	5	9	FRUIT	610	n/a	n/a	0	0	0
1952168	WORD	wordpools/wasnorm_wordpool_576.txt	LTP117	ltpFR2	5	9	BLADE	134	n/a	n/a	0	0	0
1954898	WORD	wordpools/wasnorm_wordpool_576.txt	LTP117	ltpFR2	5	9	FOOT	590	n/a	n/a	0	0	0
1957510	WORD	wordpools/wasnorm_wordpool_576.txt	LTP117	ltpFR2	5	9	CRATER	400	n/a	n/a	0	0	0
1960073	WORD	wordpools/wasnorm_wordpool_576.txt	LTP117	ltpFR2	5	9	SURVEY	1414	n/a	n/a	0	0	0
1962602	WORD	wordpools/wasnorm_wordpool_576.txt	LTP117	ltpFR2	5	9	JURY	766	n/a	n/a	0	0	0
1964217	START	n/a	LTP117	ltpFR2	5	n/a	n/a	n/a	13	n/a	n/a	n/a	n/a
1965328	DISTRACTOR	n/a	LTP117	ltpFR2	5	9	n/a	n/a	n/a	n/a	0	0	0
1965332	PROB	n/a	LTP117	ltpFR2	5	n/a	n/a	n/a	13	8	2	2	4
1966164	PROB	n/a	LTP117	ltpFR2	5	n/a	n/a	n/a	13	15	3	6	8
1967396	PROB	n/a	LTP117	ltpFR2	5	n/a	n/a	n/a	13	165	6	8	2
1968444	PROB	n/a	LTP117	ltpFR2	5	n/a	n/a	n/a	13	9	7	1	1
1969376	PROB	n/a	LTP117	ltpFR2	5	n/a	n/a	n/a	13	13	3	3	7
1971490	PROB	n/a	LTP117	ltpFR2	5	n/a	n/a	n/a	13	21	4	8	9
1972603	PROB	n/a	LTP117	ltpFR2	5	n/a	n/a	n/a	13	19	7	3	9
1974119	PROB	n/a	LTP117	ltpFR2	5	n/a	n/a	n/a	13	9	2	3	4
1975417	PROB	n/a	LTP117	ltpFR2	5	n/a	n/a	n/a	13	18	7	3	8
1976432	PROB	n/a	LTP117	ltpFR2	5	n/a	n/a	n/a	13	22	4	9	9
1977613	PROB	n/a	LTP117	ltpFR2	5	n/a	n/a	n/a	13	6	1	3	2
1978644	PROB	n/a	LTP117	ltpFR2	5	n/a	n/a	n/a	13	15	3	7	5
1979977	PROB	n/a	LTP117	ltpFR2	5	n/a	n/a	n/a	13	8	1	2	5
1980892	PROB	n/a	LTP117	ltpFR2	5	n/a	n/a	n/a	13	15	5	7	3
1982257	PROB	n/a	LTP117	ltpFR2	5	n/a	n/a	n/a	13	12	9	2	1
1983122	PROB	n/a	LTP117	ltpFR2	5	n/a	n/a	n/a	13	25	9	9	7
1984270	PROB	n/a	LTP117	ltpFR2	5	n/a	n/a	n/a	13	20	9	7	4
1986101	PROB	n/a	LTP117	ltpFR2	5	n/a	n/a	n/a	13	10	5	4	1
1987165	STOP	n/a	LTP117	ltpFR2	5	n/a	n/a	n/a	13	n/a	n/a	n/a	n/a
1990012	REC_START	n/a	LTP117	ltpFR2	5	9	n/a	n/a	n/a	n/a	0	0	0
1990524	REC_WORD	wordpools/wasnorm_wordpool_576.txt	LTP117	ltpFR2	5	9	SURVEY	1414	n/a	n/a	0	0	0
1991570	REC_WORD	wordpools/wasnorm_wordpool_576.txt	LTP117	ltpFR2	5	9	JURY	766	n/a	n/a	0	0	0
2002246	REC_WORD	wordpools/wasnorm_wordpool_576.txt	LTP117	ltpFR2	5	9	LASER	801	n/a	n/a	0	0	0
2002881	REC_WORD	wordpools/wasnorm_wordpool_576.txt	LTP117	ltpFR2	5	9	SWITCH	1422	n/a	n/a	0	0	0
2003812	REC_WORD	wordpools/wasnorm_wordpool_576.txt	LTP117	ltpFR2	5	9	COURSE	390	n/a	n/a	0	0	0
2004949	REC_WORD	wordpools/wasnorm_wordpool_576.txt	LTP117	ltpFR2	5	9	FLEET	578	n/a	n/a	0	0	0
2011788	REC_WORD	wordpools/wasnorm_wordpool_576.txt	LTP117	ltpFR2	5	9	ICEBERG	731	n/a	n/a	0	0	0
2012500	REC_WORD	wordpools/wasnorm_wordpool_576.txt	LTP117	ltpFR2	5	9	FREEZER	604	n/a	n/a	0	0	0
2013517	REC_WORD	wordpools/wasnorm_wordpool_576.txt	LTP117	ltpFR2	5	9	TUNNEL	1519	n/a	n/a	0	0	0
2014189	REC_WORD	wordpools/wasnorm_wordpool_576.txt	LTP117	ltpFR2	5	9	NAPKIN	937	n/a	n/a	0	0	0
2015106	REC_WORD	wordpools/wasnorm_wordpool_576.txt	LTP117	ltpFR2	5	9	ITEM	746	n/a	n/a	0	0	0
2016933	REC_WORD	wordpools/wasnorm_wordpool_576.txt	LTP117	ltpFR2	5	9	GYMNAST	675	n/a	n/a	0	0	0
2018230	REC_WORD	wordpools/wasnorm_wordpool_576.txt	LTP117	ltpFR2	5	9	DAISY	435	n/a	n/a	0	0	0
2020262	REC_WORD	wordpools/wasnorm_wordpool_576.txt	LTP117	ltpFR2	5	9	STOMACH	1384	n/a	n/a	0	0	0
2021126	REC_WORD	wordpools/wasnorm_wordpool_576.txt	LTP117	ltpFR2	5	9	STAPLE	1371	n/a	n/a	0	0	0
2022745	REC_WORD	wordpools/wasnorm_wordpool_576.txt	LTP117	ltpFR2	5	9	DENIM	446	n/a	n/a	0	0	0
2023563	REC_WORD	wordpools/wasnorm_wordpool_576.txt	LTP117	ltpFR2	5	9	ORANGE	980	n/a	n/a	0	0	0
2026256	REC_WORD	wordpools/wasnorm_wordpool_576.txt	LTP117	ltpFR2	5	9	GYMNAST	675	n/a	n/a	0	0	0
2028670	REC_WORD	wordpools/wasnorm_wordpool_576.txt	LTP117	ltpFR2	5	9	HOSTESS	723	n/a	n/a	0	0	0
2030016	REC_WORD	wordpools/wasnorm_wordpool_576.txt	LTP117	ltpFR2	5	9	FRUIT	610	n/a	n/a	0	0	0
2031032	REC_WORD	wordpools/wasnorm_wordpool_576.txt	LTP117	ltpFR2	5	9	BLADE	134	n/a	n/a	0	0	0
2045393	REC_WORD	wordpools/wasnorm_wordpool_576.txt	LTP117	ltpFR2	5	9	CRATER	400	n/a	n/a	0	0	0
2080676	WORD	wordpools/wasnorm_wordpool_576.txt	LTP117	ltpFR2	5	10	COFFEE	341	n/a	n/a	0	0	0
2083372	WORD	wordpools/wasnorm_wordpool_576.txt	LTP117	ltpFR2	5	10	OX	994	n/a	n/a	0	0	0
2085952	WORD	wordpools/wasnorm_wordpool_576.txt	LTP117	ltpFR2	5	10	BEAVER	109	n/a	n/a	0	0	0
2088647	WORD	wordpools/wasnorm_wordpool_576.txt	LTP117	ltpFR2	5	10	FILM	565	n/a	n/a	0	0	0
2091261	WORD	wordpools/wasnorm_wordpool_576.txt	LTP117	ltpFR2	5	10	PALACE	1006	n/a	n/a	0	0	0
2093773	WORD	wordpools/wasnorm_wordpool_576.txt	LTP117	ltpFR2	5	10	COD	340	n/a	n/a	0	0	0
2096486	WORD	wordpools/wasnorm_wordpool_576.txt	LTP117	ltpFR2	5	10	POCKET	1093	n/a	n/a	0	0	0
2099149	WORD	wordpools/wasnorm_wordpool_576.txt	LTP117	ltpFR2	5	10	GARLIC	624	n/a	n/a	0	0	0
2101611	WORD	wordpools/wasnorm_wordpool_576.txt	LTP117	ltpFR2	5	10	PORTRAIT	1111	n/a	n/a	0	0	0
2104408	WORD	wordpools/wasnorm_wordpool_576.txt	LTP117	ltpFR2	5	10	DAUGHTER	442	n/a	n/a	0	0	0
2107070	WORD	wordpools/wasnorm_wordpool_576.txt	LTP117	ltpFR2	5	10	BANKER	84	n/a	n/a	0	0	0
2109616	WORD	wordpools/wasnorm_wordpool_576.txt	LTP117	ltpFR2	5	10	COOK	372	n/a	n/a	0	0	0
2112396	WORD	wordpools/wasnorm_wordpool_576.txt	LTP117	ltpFR2	5	10	HANDBAG	684	n/a	n/a	0	0	0
2115158	WORD	wordpools/wasnorm_wordpool_576.txt	LTP117	ltpFR2	5	10	UMPIRE	1535	n/a	n/a	0	0	0
2117704	WORD	wordpools/wasnorm_wordpool_576.txt	LTP117	ltpFR2	5	10	INFANT	737	n/a	n/a	0	0	0
2120351	WORD	wordpools/wasnorm_wordpool_576.txt	LTP117	ltpFR2	5	10	CRAB	397	n/a	n/a	0	0	0
2122897	WORD	wordpools/wasnorm_wordpool_576.txt	LTP117	ltpFR2	5	10	GIRL	637	n/a	n/a	0	0	0
2125575	WORD	wordpools/wasnorm_wordpool_576.txt	LTP117	ltpFR2	5	10	CRIB	407	n/a	n/a	0	0	0
2128139	WORD	wordpools/wasnorm_wordpool_576.txt	LTP117	ltpFR2	5	10	CLAMP	316	n/a	n/a	0	0	0
2130751	WORD	wordpools/wasnorm_wordpool_576.txt	LTP117	ltpFR2	5	10	TREAT	1501	n/a	n/a	0	0	0
2133231	WORD	wordpools/wasnorm_wordpool_576.txt	LTP117	ltpFR2	5	10	LIGHTNING	820	n/a	n/a	0	0	0
2135861	WORD	wordpools/wasnorm_wordpool_576.txt	LTP117	ltpFR2	5	10	CASHEW	253	n/a	n/a	0	0	0
2138672	WORD	wordpools/wasnorm_wordpool_576.txt	LTP117	ltpFR2	5	10	GRAVE	658	n/a	n/a	0	0	0
2141386	WORD	wordpools/wasnorm_wordpool_576.txt	LTP117	ltpFR2	5	10	TOMBSTONE	1478	n/a	n/a	0	0	0
2143000	START	n/a	LTP117	ltpFR2	5	n/a	n/a	n/a	14	n/a	n/a	n/a	n/a
2144006	DISTRACTOR	n/a	LTP117	ltpFR2	5	10	n/a	n/a	n/a	n/a	0	0	0
2144015	PROB	n/a	LTP117	ltpFR2	5	n/a	n/a	n/a	14	22	9	5	8
2146229	PROB	n/a	LTP117	ltpFR2	5	n/a	n/a	n/a	14	17	4	8	5
2147976	PROB	n/a	LTP117	ltpFR2	5	n/a	n/a	n/a	14	13	6	2	5
2148941	PROB	n/a	LTP117	ltpFR2	5	n/a	n/a	n/a	14	16	7	2	7
2149890	PROB	n/a	LTP117	ltpFR2	5	n/a	n/a	n/a	14	18	7	5	6
2152253	PROB	n/a	LTP117	ltpFR2	5	n/a	n/a	n/a	14	16	5	2	9
2153385	PROB	n/a	LTP117	ltpFR2	5	n/a	n/a	n/a	14	8	1	1	6
2154233	PROB	n/a	LTP117	ltpFR2	5	n/a	n/a	n/a	14	7	5	1	1
2155099	PROB	n/a	LTP117	ltpFR2	5	n/a	n/a	n/a	14	18	6	6	6
2155898	PROB	n/a	LTP117	ltpFR2	5	n/a	n/a	n/a	14	20	8	3	9
2157279	PROB	n/a	LTP117	ltpFR2	5	n/a	n/a	n/a	14	16	9	5	2
2158427	PROB	n/a	LTP117	ltpFR2	5	n/a	n/a	n/a	14	20	7	8	5
2159908	PROB	n/a	LTP117	ltpFR2	5	n/a	n/a	n/a	14	9	1	6	2
2161073	PROB	n/a	LTP117	ltpFR2	5	n/a	n/a	n/a	14	11	5	3	6
2161889	PROB	n/a	LTP117	ltpFR2	5	n/a	n/a	n/a	14	21	8	6	7
2163103	PROB	n/a	LTP117	ltpFR2	5	n/a	n/a	n/a	14	13	2	5	6
2164218	PROB	n/a	LTP117	ltpFR2	5	n/a	n/a	n/a	14	4	1	1	2
2165067	PROB	n/a	LTP117	ltpFR2	5	n/a	n/a	n/a	14	19	7	8	4
2166213	STOP	n/a	LTP117	ltpFR2	5	n/a	n/a	n/a	14	n/a	n/a	n/a	n/a
2168945	REC_START	n/a	LTP117	ltpFR2	5	10	n/a	n/a	n/a	n/a	0	0	0
2169432	REC_WORD	wordpools/wasnorm_wordpool_576.txt	LTP117	ltpFR2	5	10	CLAMP	316	n/a	n/a	0	0	0
2170071	REC_WORD	wordpools/wasnorm_wordpool_576.txt	LTP117	ltpFR2	5	10	TREAT	1501	n/a	n/a	0	0	0
2170790	REC_WORD	wordpools/wasnorm_wordpool_576.txt	LTP117	ltpFR2	5	10	LIGHTNING	820	n/a	n/a	0	0	0
2171361	REC_WORD	wordpools/wasnorm_wordpool_576.txt	LTP117	ltpFR2	5	10	GRAVE	658	n/a	n/a	0	0	0
2171977	REC_WORD	wordpools/wasnorm_wordpool_576.txt	LTP117	ltpFR2	5	10	TOMBSTONE	1478	n/a	n/a	0	0	0
2173058	REC_WORD	wordpools/wasnorm_wordpool_576.txt	LTP117	ltpFR2	5	10	CRIB	407	n/a	n/a	0	0	0
2173762	REC_WORD	wordpools/wasnorm_wordpool_576.txt	LTP117	ltpFR2	5	10	BABY	64	n/a	n/a	0	0	0
2174402	REC_WORD	wordpools/wasnorm_wordpool_576.txt	LTP117	ltpFR2	5	10	GIRL	637	n/a	n/a	0	0	0
2174995	REC_WORD	wordpools/wasnorm_wordpool_576.txt	LTP117	ltpFR2	5	10	UMPIRE	1535	n/a	n/a	0	0	0
2182240	REC_WORD	wordpools/wasnorm_wordpool_576.txt	LTP117	ltpFR2	5	10	FILM	565	n/a	n/a	0	0	0
2183101	REC_WORD	wordpools/wasnorm_wordpool_576.txt	LTP117	ltpFR2	5	10	PALACE	1006	n/a	n/a	0	0	0
2183869	REC_WORD	wordpools/wasnorm_wordpool_576.txt	LTP117	ltpFR2	5	10	DAUGHTER	442	n/a	n/a	0	0	0
2184643	REC_WORD	wordpools/wasnorm_wordpool_576.txt	LTP117	ltpFR2	5	10	BANKER	84	n/a	n/a	0	0	0
2185694	REC_WORD	wordpools/wasnorm_wordpool_576.txt	LTP117	ltpFR2	5	10	HANDBAG	684	n/a	n/a	0	0	0
2187218	REC_WORD	wordpools/wasnorm_wordpool_576.txt	LTP117	ltpFR2	5	10	COOK	372	n/a	n/a	0	0	0
2187792	REC_WORD	wordpools/wasnorm_wordpool_576.txt	LTP117	ltpFR2	5	10	CRAB	397	n/a	n/a	0	0	0
2188540	REC_WORD	wordpools/wasnorm_wordpool_576.txt	LTP117	ltpFR2	5	10	COD	340	n/a	n/a	0	0	0
2189611	REC_WORD	wordpools/wasnorm_wordpool_576.txt	LTP117	ltpFR2	5	10	GARLIC	624	n/a	n/a	0	0	0
2190306	REC_WORD	wordpools/wasnorm_wordpool_576.txt	LTP117	ltpFR2	5	10	POCKET	1093	n/a	n/a	0	0	0
2191855	REC_WORD	wordpools/wasnorm_wordpool_576.txt	LTP117	ltpFR2	5	10	BEAVER	109	n/a	n/a	0	0	0
2213243	REC_WORD	wordpools/wasnorm_wordpool_576.txt	LTP117	ltpFR2	5	10	UMPIRE	1535	n/a	n/a	0	0	0
2222381	REC_WORD	wordpools/wasnorm_wordpool_576.txt	LTP117	ltpFR2	5	10	WAGON	1578	n/a	n/a	0	0	0
2270094	WORD	wordpools/wasnorm_wordpool_576.txt	LTP117	ltpFR2	5	11	SEAL	1262	n/a	n/a	0	0	0
2272873	WORD	wordpools/wasnorm_wordpool_576.txt	LTP117	ltpFR2	5	11	PISTOL	1075	n/a	n/a	0	0	0
2275568	WORD	wordpools/wasnorm_wordpool_576.txt	LTP117	ltpFR2	5	11	BASEMENT	94	n/a	n/a	0	0	0
2278381	WORD	wordpools/wasnorm_wordpool_576.txt	LTP117	ltpFR2	5	11	ACTRESS	6	n/a	n/a	0	0	0
2281144	WORD	wordpools/wasnorm_wordpool_576.txt	LTP117	ltpFR2	5	11	FIREPLACE	570	n/a	n/a	0	0	0
2283756	WORD	wordpools/wasnorm_wordpool_576.txt	LTP117	ltpFR2	5	11	FIREMAN	569	n/a	n/a	0	0	0
2286369	WORD	wordpools/wasnorm_wordpool_576.txt	LTP117	ltpFR2	5	11	PIMPLE	1071	n/a	n/a	0	0	0
2288932	WORD	wordpools/wasnorm_wordpool_576.txt	LTP117	ltpFR2	5	11	HORNET	718	n/a	n/a	0	0	0
2291527	WORD	wordpools/wasnorm_wordpool_576.txt	LTP117	ltpFR2	5	11	CARRIAGE	248	n/a	n/a	0	0	0
2294041	WORD	wordpools/wasnorm_wordpool_576.txt	LTP117	ltpFR2	5	11	BACKBONE	66	n/a	n/a	0	0	0
2296836	WORD	wordpools/wasnorm_wordpool_576.txt	LTP117	ltpFR2	5	11	BOARD	143	n/a	n/a	0	0	0
2299549	WORD	wordpools/wasnorm_wordpool_576.txt	LTP117	ltpFR2	5	11	HUMAN	726	n/a	n/a	0	0	0
2301996	WORD	wordpools/wasnorm_wordpool_576.txt	LTP117	ltpFR2	5	11	VALVE	1546	n/a	n/a	0	0	0
2304708	WORD	wordpools/wasnorm_wordpool_576.txt	LTP117	ltpFR2	5	11	HORSE	719	n/a	n/a	0	0	0
2307271	WORD	wordpools/wasnorm_wordpool_576.txt	LTP117	ltpFR2	5	11	ROOSTER	1209	n/a	n/a	0	0	0
2309717	WORD	wordpools/wasnorm_wordpool_576.txt	LTP117	ltpFR2	5	11	PUPIL	1143	n/a	n/a	0	0	0
2312297	WORD	wordpools/wasnorm_wordpool_576.txt	LTP117	ltpFR2	5	11	ROCKET	1202	n/a	n/a	0	0	0
2315060	WORD	wordpools/wasnorm_wordpool_576.txt	LTP117	ltpFR2	5	11	MISSILE	900	n/a	n/a	0	0	0
2317771	WORD	wordpools/wasnorm_wordpool_576.txt	LTP117	ltpFR2	5	11	FRECKLE	602	n/a	n/a	0	0	0
2320567	WORD	wordpools/wasnorm_wordpool_576.txt	LTP117	ltpFR2	5	11	SHORTS	1293	n/a	n/a	0	0	0
2323065	WORD	wordpools/wasnorm_wordpool_576.txt	LTP117	ltpFR2	5	11	MESSAGE	888	n/a	n/a	0	0	0
2325577	WORD	wordpools/wasnorm_wordpool_576.txt	LTP117	ltpFR2	5	11	SOFTBALL	1343	n/a	n/a	0	0	0
2328190	WORD	wordpools/wasnorm_wordpool_576.txt	LTP117	ltpFR2	5	11	GLOVE	642	n/a	n/a	0	0	0
2330719	WORD	wordpools/wasnorm_wordpool_576.txt	LTP117	ltpFR2	5	11	GOBLIN	645	n/a	n/a	0	0	0
2332334	START	n/a	LTP117	ltpFR2	5	n/a	n/a	n/a	15	n/a	n/a	n/a	n/a
2333436	DISTRACTOR	n/a	LTP117	ltpFR2	5	11	n/a	n/a	n/a	n/a	0	0	0
2333449	PROB	n/a	LTP117	ltpFR2	5	n/a	n/a	n/a	15	14	5	4	5
2334746	PROB	n/a	LTP117	ltpFR2	5	n/a	n/a	n/a	15	6	3	1	2
2335562	PROB	n/a	LTP117	ltpFR2	5	n/a	n/a	n/a	15	15	7	5	3
2336543	PROB	n/a	LTP117	ltpFR2	5	n/a	n/a	n/a	15	15	5	5	5
2337194	PROB	n/a	LTP117	ltpFR2	5	n/a	n/a	n/a	15	14	4	6	7
2338192	PROB	n/a	LTP117	ltpFR2	5	n/a	n/a	n/a	15	16	6	1	9
2339722	PROB	n/a	LTP117	ltpFR2	5	n/a	n/a	n/a	15	15	2	4	7
2340687	PROB	n/a	LTP117	ltpFR2	5	n/a	n/a	n/a	15	12	1	9	2
2341536	PROB	n/a	LTP117	ltpFR2	5	n/a	n/a	n/a	15	6	2	1	3
2342369	PROB	n/a	LTP117	ltpFR2	5	n/a	n/a	n/a	15	12	2	8	2
2343384	PROB	n/a	LTP117	ltpFR2	5	n/a	n/a	n/a	15	20	3	9	8
2344483	PROB	n/a	LTP117	ltpFR2	5	n/a	n/a	n/a	15	17	6	4	7
2345530	PROB	n/a	LTP117	ltpFR2	5	n/a	n/a	n/a	15	9	2	1	6
2346795	PROB	n/a	LTP117	ltpFR2	5	n/a	n/a	n/a	15	22	7	7	8
2348443	PROB	n/a	LTP117	ltpFR2	5	n/a	n/a	n/a	15	16	5	3	8
2349509	PROB	n/a	LTP117	ltpFR2	5	n/a	n/a	n/a	15	15	4	5	6
2350391	PROB	n/a	LTP117	ltpFR2	5	n/a	n/a	n/a	15	11	2	7	2
2352338	PROB	n/a	LTP117	ltpFR2	5	n/a	n/a	n/a	15	6	1	3	2
2353336	PROB	n/a	LTP117	ltpFR2	5	n/a	n/a	n/a	15	19	9	5	5
2356334	STOP	n/a	LTP117	ltpFR2	5	n/a	n/a	n/a	15	n/a	n/a	n/a	n/a
2358163	REC_START	n/a	LTP117	ltpFR2	5	11	n/a	n/a	n/a	n/a	0	0	0
2358827	REC_WORD	wordpools/wasnorm_wordpool_576.txt	LTP117	ltpFR2	5	11	MESSAGE	888	n/a	n/a	0	0	0
2359535	REC_WORD	wordpools/wasnorm_wordpool_576.txt	LTP117	ltpFR2	5	11	SOFTBALL	1343	n/a	n/a	0	0	0
2360580	REC_WORD	wordpools/wasnorm_wordpool_576.txt	LTP117	ltpFR2	5	11	GLOVE	642	n/a	n/a	0	0	0
2363987	REC_WORD	wordpools/wasnorm_wordpool_576.txt	LTP117	ltpFR2	5	11	SEAL	1262	n/a	n/a	0	0	0
2364938	REC_WORD	wordpools/wasnorm_wordpool_576.txt	LTP117	ltpFR2	5	11	RIFLE	1192	n/a	n/a	0	0	0
2366042	REC_WORD	wordpools/wasnorm_wordpool_576.txt	LTP117	ltpFR2	5	11	BASEMENT	94	n/a	n/a	0	0	0
2367239	REC_WORD	wordpools/wasnorm_wordpool_576.txt	LTP117	ltpFR2	5	11	VALVE	1546	n/a	n/a	0	0	0
2368171	REC_WORD	wordpools/wasnorm_wordpool_576.txt	LTP117	ltpFR2	5	11	ACTRESS	6	n/a	n/a	0	0	0
2370235	REC_WORD	wordpools/wasnorm_wordpool_576.txt	LTP117	ltpFR2	5	11	PIMPLE	1071	n/a	n/a	0	0	0
2371113	REC_WORD	wordpools/wasnorm_wordpool_576.txt	LTP117	ltpFR2	5	11	FIREMAN	569	n/a	n/a	0	0	0
2372683	REC_WORD	wordpools/wasnorm_wordpool_576.txt	LTP117	ltpFR2	5	11	FIREPLACE	570	n/a	n/a	0	0	0
2374189	REC_WORD	wordpools/wasnorm_wordpool_576.txt	LTP117	ltpFR2	5	11	SPINE	1353	n/a	n/a	0	0	0
2376145	REC_WORD_VV	wordpools/wasnorm_wordpool_576.txt	LTP117	ltpFR2	5	11	<>	-1	n/a	n/a	0	0	0
2376299	REC_WORD	wordpools/wasnorm_wordpool_576.txt	LTP117	ltpFR2	5	11	BACKBONE	66	n/a	n/a	0	0	0
2382093	REC_WORD	wordpools/wasnorm_wordpool_576.txt	LTP117	ltpFR2	5	11	MISSILE	900	n/a	n/a	0	0	0
2385833	REC_WORD	wordpools/wasnorm_wordpool_576.txt	LTP117	ltpFR2	5	11	ROCKET	1202	n/a	n/a	0	0	0
2390480	REC_WORD	wordpools/wasnorm_wordpool_576.txt	LTP117	ltpFR2	5	11	MESSAGE	888	n/a	n/a	0	0	0
2448842	WORD	wordpools/wasnorm_wordpool_576.txt	LTP117	ltpFR2	5	12	PASTRY	1022	n/a	n/a	0	0	0
2451506	WORD	wordpools/wasnorm_wordpool_576.txt	LTP117	ltpFR2	5	12	PLAZA	1088	n/a	n/a	0	0	0
2454319	WORD	wordpools/wasnorm_wordpool_576.txt	LTP117	ltpFR2	5	12	QUARTER	1148	n/a	n/a	0	0	0
2456981	WORD	wordpools/wasnorm_wordpool_576.txt	LTP117	ltpFR2	5	12	BUREAU	199	n/a	n/a	0	0	0
2459660	WORD	wordpools/wasnorm_wordpool_576.txt	LTP117	ltpFR2	5	12	DRESSER	496	n/a	n/a	0	0	0
2462273	WORD	wordpools/wasnorm_wordpool_576.txt	LTP117	ltpFR2	5	12	SKIRT	1319	n/a	n/a	0	0	0
2464953	WORD	wordpools/wasnorm_wordpool_576.txt	LTP117	ltpFR2	5	12	MASK	876	n/a	n/a	0	0	0
2467399	WORD	wordpools/wasnorm_wordpool_576.txt	LTP117	ltpFR2	5	12	CANDY	230	n/a	n/a	0	0	0
2470195	WORD	wordpools/wasnorm_wordpool_576.txt	LTP117	ltpFR2	5	12	JOURNAL	760	n/a	n/a	0	0	0
2472840	WORD	wordpools/wasnorm_wordpool_576.txt	LTP117	ltpFR2	5	12	WHISTLE	1606	n/a	n/a	0	0	0
2475354	WORD	wordpools/wasnorm_wordpool_576.txt	LTP117	ltpFR2	5	12	CHURCH	307	n/a	n/a	0	0	0
2477833	WORD	wordpools/wasnorm_wordpool_576.txt	LTP117	ltpFR2	5	12	SILK	1307	n/a	n/a	0	0	0
2480396	WORD	wordpools/wasnorm_wordpool_576.txt	LTP117	ltpFR2	5	12	DRESS	495	n/a	n/a	0	0	0
2482909	WORD	wordpools/wasnorm_wordpool_576.txt	LTP117	ltpFR2	5	12	CLOCK	325	n/a	n/a	0	0	0
2485638	WORD	wordpools/wasnorm_wordpool_576.txt	LTP117	ltpFR2	5	12	DRAWING	494	n/a	n/a	0	0	0
2488335	WORD	wordpools/wasnorm_wordpool_576.txt	LTP117	ltpFR2	5	12	BINDER	127	n/a	n/a	0	0	0
2490780	WORD	wordpools/wasnorm_wordpool_576.txt	LTP117	ltpFR2	5	12	INMATE	738	n/a	n/a	0	0	0
2493277	WORD	wordpools/wasnorm_wordpool_576.txt	LTP117	ltpFR2	5	12	PERFUME	1049	n/a	n/a	0	0	0
2496023	WORD	wordpools/wasnorm_wordpool_576.txt	LTP117	ltpFR2	5	12	GLASS	639	n/a	n/a	0	0	0
2498585	WORD	wordpools/wasnorm_wordpool_576.txt	LTP117	ltpFR2	5	12	DASHBOARD	441	n/a	n/a	0	0	0
2501382	WORD	wordpools/wasnorm_wordpool_576.txt	LTP117	ltpFR2	5	12	BREAST	171	n/a	n/a	0	0	0
2504128	WORD	wordpools/wasnorm_wordpool_576.txt	LTP117	ltpFR2	5	12	GRILL	661	n/a	n/a	0	0	0
2506606	WORD	wordpools/wasnorm_wordpool_576.txt	LTP117	ltpFR2	5	12	RECEIPT	1173	n/a	n/a	0	0	0
2509120	WORD	wordpools/wasnorm_wordpool_576.txt	LTP117	ltpFR2	5	12	HIKER	708	n/a	n/a	0	0	0
2510734	START	n/a	LTP117	ltpFR2	5	n/a	n/a	n/a	16	n/a	n/a	n/a	n/a
2511877	DISTRACTOR	n/a	LTP117	ltpFR2	5	12	n/a	n/a	n/a	n/a	0	0	0
2511883	PROB	n/a	LTP117	ltpFR2	5	n/a	n/a	n/a	16	19	9	7	3
2512881	PROB	n/a	LTP117	ltpFR2	5	n/a	n/a	n/a	16	16	7	2	7
2513930	PROB	n/a	LTP117	ltpFR2	5	n/a	n/a	n/a	16	17	9	2	6
2515061	PROB	n/a	LTP117	ltpFR2	5	n/a	n/a	n/a	16	18	8	4	6
2516708	PROB	n/a	LTP117	ltpFR2	5	n/a	n/a	n/a	16	14	2	9	3
2518024	PROB	n/a	LTP117	ltpFR2	5	n/a	n/a	n/a	16	12	2	7	3
2518972	PROB	n/a	LTP117	ltpFR2	5	n/a	n/a	n/a	16	23	7	8	8
2520437	PROB	n/a	LTP117	ltpFR2	5	n/a	n/a	n/a	16	17	8	1	8
2521951	PROB	n/a	LTP117	ltpFR2	5	n/a	n/a	n/a	16	9	2	2	5
2523332	PROB	n/a	LTP117	ltpFR2	5	n/a	n/a	n/a	16	16	9	4	3
2524347	PROB	n/a	LTP117	ltpFR2	5	n/a	n/a	n/a	16	14	3	2	9
2525346	PROB	n/a	LTP117	ltpFR2	5	n/a	n/a	n/a	16	11	8	2	1
2526527	PROB	n/a	LTP117	ltpFR2	5	n/a	n/a	n/a	16	8	1	3	4
2527476	PROB	n/a	LTP117	ltpFR2	5	n/a	n/a	n/a	16	19	9	8	2
2528857	PROB	n/a	LTP117	ltpFR2	5	n/a	n/a	n/a	16	17	4	4	9
2529889	PROB	n/a	LTP117	ltpFR2	5	n/a	n/a	n/a	16	14	9	1	4
2530820	PROB	n/a	LTP117	ltpFR2	5	n/a	n/a	n/a	16	165	9	6	3
2531953	PROB	n/a	LTP117	ltpFR2	5	n/a	n/a	n/a	16	16	5	2	9
2534734	STOP	n/a	LTP117	ltpFR2	5	n/a	n/a	n/a	16	n/a	n/a	n/a	n/a
2536512	REC_START	n/a	LTP117	ltpFR2	5	12	n/a	n/a	n/a	n/a	0	0	0
2537263	REC_WORD	wordpools/wasnorm_wordpool_576.txt	LTP117	ltpFR2	5	12	DASHBOARD	441	n/a	n/a	0	0	0
2538246	REC_WORD	wordpools/wasnorm_wordpool_576.txt	LTP117	ltpFR2	5	12	INMATE	738	n/a	n/a	0	0	0
2539031	REC_WORD	wordpools/wasnorm_wordpool_576.txt	LTP117	ltpFR2	5	12	GRILL	661	n/a	n/a	0	0	0
2539826	REC_WORD	wordpools/wasnorm_wordpool_576.txt	LTP117	ltpFR2	5	12	BREAST	171	n/a	n/a	0	0	0
2540766	REC_WORD	wordpools/wasnorm_wordpool_576.txt	LTP117	ltpFR2	5	12	PERFUME	1049	n/a	n/a	0	0	0
2541913	REC_WORD	wordpools/wasnorm_wordpool_576.txt	LTP117	ltpFR2	5	12	GLASS	639	n/a	n/a	0	0	0
2545074	REC_WORD	wordpools/wasnorm_wordpool_576.txt	LTP117	ltpFR2	5	12	JOURNAL	760	n/a	n/a	0	0	0
2546692	REC_WORD	wordpools/wasnorm_wordpool_576.txt	LTP117	ltpFR2	5	12	NOTEBOOK	959	n/a	n/a	0	0	0
2548844	REC_WORD	wordpools/wasnorm_wordpool_576.txt	LTP117	ltpFR2	5	12	DRAWING	494	n/a	n/a	0	0	0
2549385	REC_WORD	wordpools/wasnorm_wordpool_576.txt	LTP117	ltpFR2	5	12	SKETCH	1315	n/a	n/a	0	0	0
2550775	REC_WORD	wordpools/wasnorm_wordpool_576.txt	LTP117	ltpFR2	5	12	DRESSER	496	n/a	n/a	0	0	0
2551579	REC_WORD	wordpools/wasnorm_wordpool_576.txt	LTP117	ltpFR2	5	12	BUREAU	199	n/a	n/a	0	0	0
2552392	REC_WORD	wordpools/wasnorm_wordpool_576.txt	LTP117	ltpFR2	5	12	PLAZA	1088	n/a	n/a	0	0	0
2553289	REC_WORD	wordpools/wasnorm_wordpool_576.txt	LTP117	ltpFR2	5	12	PASTRY	1022	n/a	n/a	0	0	0
2554072	REC_WORD	wordpools/wasnorm_wordpool_576.txt	LTP117	ltpFR2	5	12	QUARTER	1148	n/a	n/a	0	0	0
2555269	REC_WORD	wordpools/wasnorm_wordpool_576.txt	LTP117	ltpFR2	5	12	SILK	1307	n/a	n/a	0	0	0
2555956	REC_WORD	wordpools/wasnorm_wordpool_576.txt	LTP117	ltpFR2	5	12	SKIRT	1319	n/a	n/a	0	0	0
2556965	REC_WORD	wordpools/wasnorm_wordpool_576.txt	LTP117	ltpFR2	5	12	DRESS	495	n/a	n/a	0	0	0
2561548	REC_WORD	wordpools/wasnorm_wordpool_576.txt	LTP117	ltpFR2	5	12	CLOCK	325	n/a	n/a	0	0	0
2592018	REC_WORD	wordpools/wasnorm_wordpool_576.txt	LTP117	ltpFR2	5	12	BREAST	171	n/a	n/a	0	0	0
2605708	REC_WORD	wordpools/wasnorm_wordpool_576.txt	LTP117	ltpFR2	5	12	CHURCH	307	n/a	n/a	0	0	0
2606338	REC_WORD	wordpools/wasnorm_wordpool_576.txt	LTP117	ltpFR2	5	12	WHISTLE	1606	n/a	n/a	0	0	0
2627227	DISTRACTOR	n/a	LTP117	ltpFR2	5	13	n/a	n/a	n/a	n/a	0	0	0
2627227	START	n/a	LTP117	ltpFR2	5	n/a	n/a	n/a	17	n/a	n/a	n/a	n/a
2627261	PROB	n/a	LTP117	ltpFR2	5	n/a	n/a	n/a	17	10	4	4	2
2628242	PROB	n/a	LTP117	ltpFR2	5	n/a	n/a	n/a	17	12	3	8	1
2629374	PROB	n/a	LTP117	ltpFR2	5	n/a	n/a	n/a	17	12	3	4	5
2630206	PROB	n/a	LTP117	ltpFR2	5	n/a	n/a	n/a	17	17	2	7	8
2631753	PROB	n/a	LTP117	ltpFR2	5	n/a	n/a	n/a	17	10	1	3	6
2632635	PROB	n/a	LTP117	ltpFR2	5	n/a	n/a	n/a	17	21	5	9	7
2634000	PROB	n/a	LTP117	ltpFR2	5	n/a	n/a	n/a	17	20	5	8	7
2635448	PROB	n/a	LTP117	ltpFR2	5	n/a	n/a	n/a	17	15	6	4	5
2636397	PROB	n/a	LTP117	ltpFR2	5	n/a	n/a	n/a	17	12	3	8	1
2637279	PROB	n/a	LTP117	ltpFR2	5	n/a	n/a	n/a	17	22	6	9	7
2638543	PROB	n/a	LTP117	ltpFR2	5	n/a	n/a	n/a	17	18	5	9	4
2640125	PROB	n/a	LTP117	ltpFR2	5	n/a	n/a	n/a	17	14	9	2	3
2641073	PROB	n/a	LTP117	ltpFR2	5	n/a	n/a	n/a	17	13	1	4	8
2641939	PROB	n/a	LTP117	ltpFR2	5	n/a	n/a	n/a	17	9	7	1	1
2643004	PROB	n/a	LTP117	ltpFR2	5	n/a	n/a	n/a	17	23	5	9	9
2644135	PROB	n/a	LTP117	ltpFR2	5	n/a	n/a	n/a	17	13	1	6	6
2645184	PROB	n/a	LTP117	ltpFR2	5	n/a	n/a	n/a	17	11	6	3	2
2645983	PROB	n/a	LTP117	ltpFR2	5	n/a	n/a	n/a	17	12	3	2	7
2647796	PROB	n/a	LTP117	ltpFR2	5	n/a	n/a	n/a	17	13	1	5	8
2648777	PROB	n/a	LTP117	ltpFR2	5	n/a	n/a	n/a	17	15	8	6	1
2649732	STOP	n/a	LTP117	ltpFR2	5	n/a	n/a	n/a	17	n/a	n/a	n/a	n/a
2652240	WORD	wordpools/wasnorm_wordpool_576.txt	LTP117	ltpFR2	5	13	THRONE	1461	n/a	n/a	0	0	0
2655002	WORD	wordpools/wasnorm_wordpool_576.txt	LTP117	ltpFR2	5	13	QUEEN	1149	n/a	n/a	0	0	0
2657614	WORD	wordpools/wasnorm_wordpool_576.txt	LTP117	ltpFR2	5	13	CREVICE	405	n/a	n/a	0	0	0
2660078	WORD	wordpools/wasnorm_wordpool_576.txt	LTP117	ltpFR2	5	13	GRAVEL	659	n/a	n/a	0	0	0
2662673	WORD	wordpools/wasnorm_wordpool_576.txt	LTP117	ltpFR2	5	13	PADDING	999	n/a	n/a	0	0	0
2665470	WORD	wordpools/wasnorm_wordpool_576.txt	LTP117	ltpFR2	5	13	WRENCH	1625	n/a	n/a	0	0	0
2668033	WORD	wordpools/wasnorm_wordpool_576.txt	LTP117	ltpFR2	5	13	COSTUME	383	n/a	n/a	0	0	0
2670794	WORD	wordpools/wasnorm_wordpool_576.txt	LTP117	ltpFR2	5	13	PAIL	1002	n/a	n/a	0	0	0
2673258	WORD	wordpools/wasnorm_wordpool_576.txt	LTP117	ltpFR2	5	13	MARROW	872	n/a	n/a	0	0	0
2675704	WORD	wordpools/wasnorm_wordpool_576.txt	LTP117	ltpFR2	5	13	HERO	706	n/a	n/a	0	0	0
2678434	WORD	wordpools/wasnorm_wordpool_576.txt	LTP117	ltpFR2	5	13	RATTLE	1170	n/a	n/a	0	0	0
2680897	WORD	wordpools/wasnorm_wordpool_576.txt	LTP117	ltpFR2	5	13	CHAUFFEUR	283	n/a	n/a	0	0	0
2683410	WORD	wordpools/wasnorm_wordpool_576.txt	LTP117	ltpFR2	5	13	PADDLE	1000	n/a	n/a	0	0	0
2686206	WORD	wordpools/wasnorm_wordpool_576.txt	LTP117	ltpFR2	5	13	GREASE	660	n/a	n/a	0	0	0
2688701	WORD	wordpools/wasnorm_wordpool_576.txt	LTP117	ltpFR2	5	13	BUGGY	188	n/a	n/a	0	0	0
2691298	WORD	wordpools/wasnorm_wordpool_576.txt	LTP117	ltpFR2	5	13	STALLION	1369	n/a	n/a	0	0	0
2693928	WORD	wordpools/wasnorm_wordpool_576.txt	LTP117	ltpFR2	5	13	LADDER	793	n/a	n/a	0	0	0
2696391	WORD	wordpools/wasnorm_wordpool_576.txt	LTP117	ltpFR2	5	13	PIANO	1057	n/a	n/a	0	0	0
2698937	WORD	wordpools/wasnorm_wordpool_576.txt	LTP117	ltpFR2	5	13	APPLE	33	n/a	n/a	0	0	0
2701433	WORD	wordpools/wasnorm_wordpool_576.txt	LTP117	ltpFR2	5	13	PLIERS	1089	n/a	n/a	0	0	0
2704129	WORD	wordpools/wasnorm_wordpool_576.txt	LTP117	ltpFR2	5	13	MATTRESS	879	n/a	n/a	0	0	0
2706774	WORD	wordpools/wasnorm_wordpool_576.txt	LTP117	ltpFR2	5	13	FLUTE	585	n/a	n/a	0	0	0
2709238	WORD	wordpools/wasnorm_wordpool_576.txt	LTP117	ltpFR2	5	13	SCOTCH	1251	n/a	n/a	0	0	0
2712017	WORD	wordpools/wasnorm_wordpool_576.txt	LTP117	ltpFR2	5	13	PARENT	1013	n/a	n/a	0	0	0
2713631	START	n/a	LTP117	ltpFR2	5	n/a	n/a	n/a	18	n/a	n/a	n/a	n/a
2714541	DISTRACTOR	n/a	LTP117	ltpFR2	5	13	n/a	n/a	n/a	n/a	0	0	0
2714546	PROB	n/a	LTP117	ltpFR2	5	n/a	n/a	n/a	18	20	4	8	8
2715744	PROB	n/a	LTP117	ltpFR2	5	n/a	n/a	n/a	18	15	4	3	6
2716776	PROB	n/a	LTP117	ltpFR2	5	n/a	n/a	n/a	18	21	9	6	6
2717892	PROB	n/a	LTP117	ltpFR2	5	n/a	n/a	n/a	18	13	1	8	4
2718924	PROB	n/a	LTP117	ltpFR2	5	n/a	n/a	n/a	18	4	2	1	1
2719856	PROB	n/a	LTP117	ltpFR2	5	n/a	n/a	n/a	18	8	2	2	3
2721054	PROB	n/a	LTP117	ltpFR2	5	n/a	n/a	n/a	18	13	6	4	3
2722335	PROB	n/a	LTP117	ltpFR2	5	n/a	n/a	n/a	18	22	9	6	7
2723484	PROB	n/a	LTP117	ltpFR2	5	n/a	n/a	n/a	18	10	1	1	8
2724349	PROB	n/a	LTP117	ltpFR2	5	n/a	n/a	n/a	18	18	3	6	9
2725812	PROB	n/a	LTP117	ltpFR2	5	n/a	n/a	n/a	18	19	3	8	8
2727095	PROB	n/a	LTP117	ltpFR2	5	n/a	n/a	n/a	18	18	1	8	9
2727960	PROB	n/a	LTP117	ltpFR2	5	n/a	n/a	n/a	18	21	6	7	8
2729158	PROB	n/a	LTP117	ltpFR2	5	n/a	n/a	n/a	18	18	7	5	6
2730838	PROB	n/a	LTP117	ltpFR2	5	n/a	n/a	n/a	18	20	5	7	8
2732037	PROB	n/a	LTP117	ltpFR2	5	n/a	n/a	n/a	18	7	5	1	1
2732919	PROB	n/a	LTP117	ltpFR2	5	n/a	n/a	n/a	18	10	4	4	2
2733734	PROB	n/a	LTP117	ltpFR2	5	n/a	n/a	n/a	18	10	5	3	2
2734516	PROB	n/a	LTP117	ltpFR2	5	n/a	n/a	n/a	18	19	4	8	7
2735614	PROB	n/a	LTP117	ltpFR2	5	n/a	n/a	n/a	18	11	4	5	2
2736572	STOP	n/a	LTP117	ltpFR2	5	n/a	n/a	n/a	18	n/a	n/a	n/a	n/a
2739526	REC_START	n/a	LTP117	ltpFR2	5	13	n/a	n/a	n/a	n/a	0	0	0
2740142	REC_WORD	wordpools/wasnorm_wordpool_576.txt	LTP117	ltpFR2	5	13	MATTRESS	879	n/a	n/a	0	0	0
2741142	REC_WORD_VV	wordpools/wasnorm_wordpool_576.txt	LTP117	ltpFR2	5	13	<>	-1	n/a	n/a	0	0	0
2741541	REC_WORD	wordpools/wasnorm_wordpool_576.txt	LTP117	ltpFR2	5	13	FLUTE	585	n/a	n/a	0	0	0
2742391	REC_WORD	wordpools/wasnorm_wordpool_576.txt	LTP117	ltpFR2	5	13	SCOTCH	1251	n/a	n/a	0	0	0
2743337	REC_WORD	wordpools/wasnorm_wordpool_576.txt	LTP117	ltpFR2	5	13	PADDLE	1000	n/a	n/a	0	0	0
2744640	REC_WORD	wordpools/wasnorm_wordpool_576.txt	LTP117	ltpFR2	5	13	CHAUFFEUR	283	n/a	n/a	0	0	0
2748078	REC_WORD	wordpools/wasnorm_wordpool_576.txt	LTP117	ltpFR2	5	13	APPLE	33	n/a	n/a	0	0	0
2748960	REC_WORD	wordpools/wasnorm_wordpool_576.txt	LTP117	ltpFR2	5	13	PIANO	1057	n/a	n/a	0	0	0
2749972	REC_WORD	wordpools/wasnorm_wordpool_576.txt	LTP117	ltpFR2	5	13	LADDER	793	n/a	n/a	0	0	0
2755492	REC_WORD	wordpools/wasnorm_wordpool_576.txt	LTP117	ltpFR2	5	13	QUEEN	1149	n/a	n/a	0	0	0
2756333	REC_WORD	wordpools/wasnorm_wordpool_576.txt	LTP117	ltpFR2	5	13	THRONE	1461	n/a	n/a	0	0	0
2757821	REC_WORD	wordpools/wasnorm_wordpool_576.txt	LTP117	ltpFR2	5	13	GRAVEL	659	n/a	n/a	0	0	0
2758831	REC_WORD	wordpools/wasnorm_wordpool_576.txt	LTP117	ltpFR2	5	13	CREVICE	405	n/a	n/a	0	0	0
2759788	REC_WORD	wordpools/wasnorm_wordpool_576.txt	LTP117	ltpFR2	5	13	PAIL	1002	n/a	n/a	0	0	0
2762579	REC_WORD	wordpools/wasnorm_wordpool_576.txt	LTP117	ltpFR2	5	13	COSTUME	383	n/a	n/a	0	0	0
2787390	REC_WORD	wordpools/wasnorm_wordpool_576.txt	LTP117	ltpFR2	5	13	PARENT	1013	n/a	n/a	0	0	0
2830174	DISTRACTOR	n/a	LTP117	ltpFR2	5	14	n/a	n/a	n/a	n/a	0	0	0
2830174	START	n/a	LTP117	ltpFR2	5	n/a	n/a	n/a	19	n/a	n/a	n/a	n/a
2830207	PROB	n/a	LTP117	ltpFR2	5	n/a	n/a	n/a	19	24	8	9	8
2831988	PROB	n/a	LTP117	ltpFR2	5	n/a	n/a	n/a	19	6	1	4	1
2832803	PROB	n/a	LTP117	ltpFR2	5	n/a	n/a	n/a	19	15	3	9	3
2833885	PROB	n/a	LTP117	ltpFR2	5	n/a	n/a	n/a	19	14	4	3	7
2835000	PROB	n/a	LTP117	ltpFR2	5	n/a	n/a	n/a	19	15	3	3	9
2835899	PROB	n/a	LTP117	ltpFR2	5	n/a	n/a	n/a	19	15	5	1	9
2836730	PROB	n/a	LTP117	ltpFR2	5	n/a	n/a	n/a	19	13	5	7	1
2838279	PROB	n/a	LTP117	ltpFR2	5	n/a	n/a	n/a	19	16	3	5	8
2839692	PROB	n/a	LTP117	ltpFR2	5	n/a	n/a	n/a	19	18	8	1	9
2840691	PROB	n/a	LTP117	ltpFR2	5	n/a	n/a	n/a	19	11	6	3	5
2841606	PROB	n/a	LTP117	ltpFR2	5	n/a	n/a	n/a	19	22	6	7	9
2843005	PROB	n/a	LTP117	ltpFR2	5	n/a	n/a	n/a	19	9	2	6	1
2844320	PROB	n/a	LTP117	ltpFR2	5	n/a	n/a	n/a	19	7	5	1	1
2845185	PROB	n/a	LTP117	ltpFR2	5	n/a	n/a	n/a	19	19	7	9	3
2846883	PROB	n/a	LTP117	ltpFR2	5	n/a	n/a	n/a	19	17	8	8	1
2848114	PROB	n/a	LTP117	ltpFR2	5	n/a	n/a	n/a	19	16	9	3	4
2849479	PROB	n/a	LTP117	ltpFR2	5	n/a	n/a	n/a	19	21	9	8	4
2850976	PROB	n/a	LTP117	ltpFR2	5	n/a	n/a	n/a	19	14	3	4	7
2852391	PROB	n/a	LTP117	ltpFR2	5	n/a	n/a	n/a	19	16	2	7	7
2853277	STOP	n/a	LTP117	ltpFR2	5	n/a	n/a	n/a	19	n/a	n/a	n/a	n/a
2855021	WORD	wordpools/wasnorm_wordpool_576.txt	LTP117	ltpFR2	5	14	HOOK	715	n/a	n/a	0	0	0
2857649	WORD	wordpools/wasnorm_wordpool_576.txt	LTP117	ltpFR2	5	14	CONTRACT	368	n/a	n/a	0	0	0
2860113	WORD	wordpools/wasnorm_wordpool_576.txt	LTP117	ltpFR2	5	14	SERVER	1272	n/a	n/a	0	0	0
2862592	WORD	wordpools/wasnorm_wordpool_576.txt	LTP117	ltpFR2	5	14	BURGLAR	200	n/a	n/a	0	0	0
2865139	WORD	wordpools/wasnorm_wordpool_576.txt	LTP117	ltpFR2	5	14	SPOON	1357	n/a	n/a	0	0	0
2867567	WORD	wordpools/wasnorm_wordpool_576.txt	LTP117	ltpFR2	5	14	ANKLE	24	n/a	n/a	0	0	0
2870198	WORD	wordpools/wasnorm_wordpool_576.txt	LTP117	ltpFR2	5	14	ROBBER	1197	n/a	n/a	0	0	0
2872760	WORD	wordpools/wasnorm_wordpool_576.txt	LTP117	ltpFR2	5	14	LIZARD	834	n/a	n/a	0	0	0
2875224	WORD	wordpools/wasnorm_wordpool_576.txt	LTP117	ltpFR2	5	14	BUBBLE	183	n/a	n/a	0	0	0
2878019	WORD	wordpools/wasnorm_wordpool_576.txt	LTP117	ltpFR2	5	14	SODA	1341	n/a	n/a	0	0	0
2880531	WORD	wordpools/wasnorm_wordpool_576.txt	LTP117	ltpFR2	5	14	DRILL	497	n/a	n/a	0	0	0
2883095	WORD	wordpools/wasnorm_wordpool_576.txt	LTP117	ltpFR2	5	14	RACKET	1155	n/a	n/a	0	0	0
2885874	WORD	wordpools/wasnorm_wordpool_576.txt	LTP117	ltpFR2	5	14	SCALPEL	1243	n/a	n/a	0	0	0
2888454	WORD	wordpools/wasnorm_wordpool_576.txt	LTP117	ltpFR2	5	14	LAMP	798	n/a	n/a	0	0	0
2891250	WORD	wordpools/wasnorm_wordpool_576.txt	LTP117	ltpFR2	5	14	JUDGE	761	n/a	n/a	0	0	0
2893678	WORD	wordpools/wasnorm_wordpool_576.txt	LTP117	ltpFR2	5	14	POSTAGE	1113	n/a	n/a	0	0	0
2896359	WORD	wordpools/wasnorm_wordpool_576.txt	LTP117	ltpFR2	5	14	MAILBOX	857	n/a	n/a	0	0	0
2898905	WORD	wordpools/wasnorm_wordpool_576.txt	LTP117	ltpFR2	5	14	BRIEFCASE	175	n/a	n/a	0	0	0
2901468	WORD	wordpools/wasnorm_wordpool_576.txt	LTP117	ltpFR2	5	14	STOVE	1388	n/a	n/a	0	0	0
2904064	WORD	wordpools/wasnorm_wordpool_576.txt	LTP117	ltpFR2	5	14	TAXI	1438	n/a	n/a	0	0	0
2906642	WORD	wordpools/wasnorm_wordpool_576.txt	LTP117	ltpFR2	5	14	CONVICT	371	n/a	n/a	0	0	0
2909090	WORD	wordpools/wasnorm_wordpool_576.txt	LTP117	ltpFR2	5	14	BROOK	177	n/a	n/a	0	0	0
2911902	WORD	wordpools/wasnorm_wordpool_576.txt	LTP117	ltpFR2	5	14	SWAMP	1416	n/a	n/a	0	0	0
2914680	WORD	wordpools/wasnorm_wordpool_576.txt	LTP117	ltpFR2	5	14	GLOBE	641	n/a	n/a	0	0	0
2916296	START	n/a	LTP117	ltpFR2	5	n/a	n/a	n/a	20	n/a	n/a	n/a	n/a
2917275	DISTRACTOR	n/a	LTP117	ltpFR2	5	14	n/a	n/a	n/a	n/a	0	0	0
2917278	PROB	n/a	LTP117	ltpFR2	5	n/a	n/a	n/a	20	7	1	3	3
2918209	PROB	n/a	LTP117	ltpFR2	5	n/a	n/a	n/a	20	15	6	6	3
2919141	PROB	n/a	LTP117	ltpFR2	5	n/a	n/a	n/a	20	18	7	7	4
2920073	PROB	n/a	LTP117	ltpFR2	5	n/a	n/a	n/a	20	18	5	6	7
2920972	PROB	n/a	LTP117	ltpFR2	5	n/a	n/a	n/a	20	18	7	9	2
2923152	PROB	n/a	LTP117	ltpFR2	5	n/a	n/a	n/a	20	12	6	3	3
2923984	PROB	n/a	LTP117	ltpFR2	5	n/a	n/a	n/a	20	10	7	1	2
2924916	PROB	n/a	LTP117	ltpFR2	5	n/a	n/a	n/a	20	17	6	9	2
2926281	PROB	n/a	LTP117	ltpFR2	5	n/a	n/a	n/a	20	16	8	1	7
2927279	PROB	n/a	LTP117	ltpFR2	5	n/a	n/a	n/a	20	16	4	9	3
2928643	PROB	n/a	LTP117	ltpFR2	5	n/a	n/a	n/a	20	15	2	9	4
2929558	PROB	n/a	LTP117	ltpFR2	5	n/a	n/a	n/a	20	23	7	8	8
2930924	PROB	n/a	LTP117	ltpFR2	5	n/a	n/a	n/a	20	10	2	2	6
2932139	PROB	n/a	LTP117	ltpFR2	5	n/a	n/a	n/a	20	20	9	6	5
2933453	PROB	n/a	LTP117	ltpFR2	5	n/a	n/a	n/a	20	6	2	1	3
2934269	PROB	n/a	LTP117	ltpFR2	5	n/a	n/a	n/a	20	15	3	9	4
2935400	PROB	n/a	LTP117	ltpFR2	5	n/a	n/a	n/a	20	15	2	4	7
2937679	PROB	n/a	LTP117	ltpFR2	5	n/a	n/a	n/a	20	15	7	6	2
2939732	STOP	n/a	LTP117	ltpFR2	5	n/a	n/a	n/a	20	n/a	n/a	n/a	n/a
2942108	REC_START	n/a	LTP117	ltpFR2	5	14	n/a	n/a	n/a	n/a	0	0	0
2942578	REC_WORD	wordpools/wasnorm_wordpool_576.txt	LTP117	ltpFR2	5	14	BROOK	177	n/a	n/a	0	0	0
2943129	REC_WORD	wordpools/wasnorm_wordpool_576.txt	LTP117	ltpFR2	5	14	SWAMP	1416	n/a	n/a	0	0	0
2944075	REC_WORD	wordpools/wasnorm_wordpool_576.txt	LTP117	ltpFR2	5	14	GLOBE	641	n/a	n/a	0	0	0
2944859	REC_WORD	wordpools/wasnorm_wordpool_576.txt	LTP117	ltpFR2	5	14	TAXI	1438	n/a	n/a	0	0	0
2945465	REC_WORD	wordpools/wasnorm_wordpool_576.txt	LTP117	ltpFR2	5	14	STOVE	1388	n/a	n/a	0	0	0
2946591	REC_WORD	wordpools/wasnorm_wordpool_576.txt	LTP117	ltpFR2	5	14	JUDGE	761	n/a	n/a	0	0	0
2949449	REC_WORD	wordpools/wasnorm_wordpool_576.txt	LTP117	ltpFR2	5	14	BURGLAR	200	n/a	n/a	0	0	0
2958550	REC_WORD	wordpools/wasnorm_wordpool_576.txt	LTP117	ltpFR2	5	14	CONTRACT	368	n/a	n/a	0	0	0
2959996	REC_WORD	wordpools/wasnorm_wordpool_576.txt	LTP117	ltpFR2	5	14	SUITCASE	1403	n/a	n/a	0	0	0
2963918	REC_WORD	wordpools/wasnorm_wordpool_576.txt	LTP117	ltpFR2	5	14	ANKLE	24	n/a	n/a	0	0	0
2964386	REC_WORD	wordpools/wasnorm_wordpool_576.txt	LTP117	ltpFR2	5	14	SPOON	1357	n/a	n/a	0	0	0
2965830	REC_WORD	wordpools/wasnorm_wordpool_576.txt	LTP117	ltpFR2	5	14	LIZARD	834	n/a	n/a	0	0	0
2966527	REC_WORD	wordpools/wasnorm_wordpool_576.txt	LTP117	ltpFR2	5	14	BUBBLE	183	n/a	n/a	0	0	0
2967096	REC_WORD	wordpools/wasnorm_wordpool_576.txt	LTP117	ltpFR2	5	14	SODA	1341	n/a	n/a	0	0	0
2969850	REC_WORD	wordpools/wasnorm_wordpool_576.txt	LTP117	ltpFR2	5	14	CONTRACT	368	n/a	n/a	0	0	0
2970524	REC_WORD	wordpools/wasnorm_wordpool_576.txt	LTP117	ltpFR2	5	14	SERVER	1272	n/a	n/a	0	0	0
2975483	REC_WORD	wordpools/wasnorm_wordpool_576.txt	LTP117	ltpFR2	5	14	RACKET	1155	n/a	n/a	0	0	0
2976127	REC_WORD	wordpools/wasnorm_wordpool_576.txt	LTP117	ltpFR2	5	14	SCALPEL	1243	n/a	n/a	0	0	0
2991407	REC_WORD	wordpools/wasnorm_wordpool_576.txt	LTP117	ltpFR2	5	14	ROBBER	1197	n/a	n/a	0	0	0
3015643	REC_WORD	wordpools/wasnorm_wordpool_576.txt	LTP117	ltpFR2	5	14	POSTAGE	1113	n/a	n/a	0	0	0
3032754	DISTRACTOR	n/a	LTP117	ltpFR2	5	15	n/a	n/a	n/a	n/a	0	0	0
3032754	START	n/a	LTP117	ltpFR2	5	n/a	n/a	n/a	21	n/a	n/a	n/a	n/a
3032787	PROB	n/a	LTP117	ltpFR2	5	n/a	n/a	n/a	21	17	7	5	5
3034136	PROB	n/a	LTP117	ltpFR2	5	n/a	n/a	n/a	21	20	8	7	5
3035018	PROB	n/a	LTP117	ltpFR2	5	n/a	n/a	n/a	21	13	7	1	5
3036383	PROB	n/a	LTP117	ltpFR2	5	n/a	n/a	n/a	21	14	2	8	4
3037614	PROB	n/a	LTP117	ltpFR2	5	n/a	n/a	n/a	21	21	9	6	6
3038629	PROB	n/a	LTP117	ltpFR2	5	n/a	n/a	n/a	21	27	9	9	9
3039727	PROB	n/a	LTP117	ltpFR2	5	n/a	n/a	n/a	21	18	6	9	3
3041841	PROB	n/a	LTP117	ltpFR2	5	n/a	n/a	n/a	21	14	4	9	1
3042689	PROB	n/a	LTP117	ltpFR2	5	n/a	n/a	n/a	21	15	4	6	5
3044105	PROB	n/a	LTP117	ltpFR2	5	n/a	n/a	n/a	21	8	2	2	3
3044970	PROB	n/a	LTP117	ltpFR2	5	n/a	n/a	n/a	21	10	8	1	1
3046168	PROB	n/a	LTP117	ltpFR2	5	n/a	n/a	n/a	21	10	4	2	4
3047100	PROB	n/a	LTP117	ltpFR2	5	n/a	n/a	n/a	21	12	5	5	2
3047999	PROB	n/a	LTP117	ltpFR2	5	n/a	n/a	n/a	21	15	6	8	1
3049097	PROB	n/a	LTP117	ltpFR2	5	n/a	n/a	n/a	21	15	8	6	3
3050761	PROB	n/a	LTP117	ltpFR2	5	n/a	n/a	n/a	21	19	3	9	7
3053623	PROB	n/a	LTP117	ltpFR2	5	n/a	n/a	n/a	21	24	9	7	8
3054821	PROB	n/a	LTP117	ltpFR2	5	n/a	n/a	n/a	21	14	2	6	6
3056117	STOP	n/a	LTP117	ltpFR2	5	n/a	n/a	n/a	21	n/a	n/a	n/a	n/a
3057934	WORD	wordpools/wasnorm_wordpool_576.txt	LTP117	ltpFR2	5	15	CHILD	299	n/a	n/a	0	0	0
3060529	WORD	wordpools/wasnorm_wordpool_576.txt	LTP117	ltpFR2	5	15	SADDLE	1221	n/a	n/a	0	0	0
3062993	WORD	wordpools/wasnorm_wordpool_576.txt	LTP117	ltpFR2	5	15	SHARK	1275	n/a	n/a	0	0	0
3065805	WORD	wordpools/wasnorm_wordpool_576.txt	LTP117	ltpFR2	5	15	SNACK	1331	n/a	n/a	0	0	0
3068302	WORD	wordpools/wasnorm_wordpool_576.txt	LTP117	ltpFR2	5	15	OUTDOORS	987	n/a	n/a	0	0	0
3070781	WORD	wordpools/wasnorm_wordpool_576.txt	LTP117	ltpFR2	5	15	DOLPHIN	483	n/a	n/a	0	0	0
3073378	WORD	wordpools/wasnorm_wordpool_576.txt	LTP117	ltpFR2	5	15	BRICK	172	n/a	n/a	0	0	0
3076107	WORD	wordpools/wasnorm_wordpool_576.txt	LTP117	ltpFR2	5	15	RAFT	1159	n/a	n/a	0	0	0
3078569	WORD	wordpools/wasnorm_wordpool_576.txt	LTP117	ltpFR2	5	15	KEEPER	769	n/a	n/a	0	0	0
3081100	WORD	wordpools/wasnorm_wordpool_576.txt	LTP117	ltpFR2	5	15	BADGE	68	n/a	n/a	0	0	0
3083778	WORD	wordpools/wasnorm_wordpool_576.txt	LTP117	ltpFR2	5	15	SALMON	1227	n/a	n/a	0	0	0
3086475	WORD	wordpools/wasnorm_wordpool_576.txt	LTP117	ltpFR2	5	15	OFFICE	972	n/a	n/a	0	0	0
3088971	WORD	wordpools/wasnorm_wordpool_576.txt	LTP117	ltpFR2	5	15	TYPIST	1532	n/a	n/a	0	0	0
3091434	WORD	wordpools/wasnorm_wordpool_576.txt	LTP117	ltpFR2	5	15	COBRA	336	n/a	n/a	0	0	0
3094113	WORD	wordpools/wasnorm_wordpool_576.txt	LTP117	ltpFR2	5	15	OZONE	996	n/a	n/a	0	0	0
3096675	WORD	wordpools/wasnorm_wordpool_576.txt	LTP117	ltpFR2	5	15	WORKER	1621	n/a	n/a	0	0	0
3099439	WORD	wordpools/wasnorm_wordpool_576.txt	LTP117	ltpFR2	5	15	GRIZZLY	662	n/a	n/a	0	0	0
3102052	WORD	wordpools/wasnorm_wordpool_576.txt	LTP117	ltpFR2	5	15	XEROX	1628	n/a	n/a	0	0	0
3104797	WORD	wordpools/wasnorm_wordpool_576.txt	LTP117	ltpFR2	5	15	MACHINE	852	n/a	n/a	0	0	0
3107410	WORD	wordpools/wasnorm_wordpool_576.txt	LTP117	ltpFR2	5	15	SLIME	1327	n/a	n/a	0	0	0
3110173	WORD	wordpools/wasnorm_wordpool_576.txt	LTP117	ltpFR2	5	15	PLATE	1086	n/a	n/a	0	0	0
3112852	WORD	wordpools/wasnorm_wordpool_576.txt	LTP117	ltpFR2	5	15	REPORT	1184	n/a	n/a	0	0	0
3115398	WORD	wordpools/wasnorm_wordpool_576.txt	LTP117	ltpFR2	5	15	LIPSTICK	829	n/a	n/a	0	0	0
3118144	WORD	wordpools/wasnorm_wordpool_576.txt	LTP117	ltpFR2	5	15	BOUQUET	157	n/a	n/a	0	0	0
3119758	START	n/a	LTP117	ltpFR2	5	n/a	n/a	n/a	22	n/a	n/a	n/a	n/a
3120649	DISTRACTOR	n/a	LTP117	ltpFR2	5	15	n/a	n/a	n/a	n/a	0	0	0
3120656	PROB	n/a	LTP117	ltpFR2	5	n/a	n/a	n/a	22	18	4	5	9
3121872	PROB	n/a	LTP117	ltpFR2	5	n/a	n/a	n/a	22	14	2	5	7
3123635	PROB	n/a	LTP117	ltpFR2	5	n/a	n/a	n/a	22	23	6	8	9
3125201	PROB	n/a	LTP117	ltpFR2	5	n/a	n/a	n/a	22	10	1	5	4
3126116	PROB	n/a	LTP117	ltpFR2	5	n/a	n/a	n/a	22	12	2	2	8
3127031	PROB	n/a	LTP117	ltpFR2	5	n/a	n/a	n/a	22	8	3	3	2
3127930	PROB	n/a	LTP117	ltpFR2	5	n/a	n/a	n/a	22	10	4	1	5
3128761	PROB	n/a	LTP117	ltpFR2	5	n/a	n/a	n/a	22	16	7	2	7
3129776	PROB	n/a	LTP117	ltpFR2	5	n/a	n/a	n/a	22	18	5	9	4
3130975	PROB	n/a	LTP117	ltpFR2	5	n/a	n/a	n/a	22	15	5	1	9
3131840	PROB	n/a	LTP117	ltpFR2	5	n/a	n/a	n/a	22	21	9	5	7
3132906	PROB	n/a	LTP117	ltpFR2	5	n/a	n/a	n/a	22	9	5	1	3
3133854	PROB	n/a	LTP117	ltpFR2	5	n/a	n/a	n/a	22	18	6	8	4
3135385	PROB	n/a	LTP117	ltpFR2	5	n/a	n/a	n/a	22	24	7	6	8
3136434	PROB	n/a	LTP117	ltpFR2	5	n/a	n/a	n/a	22	17	9	5	3
3137698	PROB	n/a	LTP117	ltpFR2	5	n/a	n/a	n/a	22	14	1	8	5
3139511	PROB	n/a	LTP117	ltpFR2	5	n/a	n/a	n/a	22	18	4	9	5
3140610	PROB	n/a	LTP117	ltpFR2	5	n/a	n/a	n/a	22	7	1	2	4
3141892	PROB	n/a	LTP117	ltpFR2	5	n/a	n/a	n/a	22	18	3	8	7
3142869	STOP	n/a	LTP117	ltpFR2	5	n/a	n/a	n/a	22	n/a	n/a	n/a	n/a
3145520	REC_START	n/a	LTP117	ltpFR2	5	15	n/a	n/a	n/a	n/a	0	0	0
3146464	REC_WORD	wordpools/wasnorm_wordpool_576.txt	LTP117	ltpFR2	5	15	GRIZZLY	662	n/a	n/a	0	0	0
3147241	REC_WORD	wordpools/wasnorm_wordpool_576.txt	LTP117	ltpFR2	5	15	WORKER	1621	n/a	n/a	0	0	0
3147930	REC_WORD	wordpools/wasnorm_wordpool_576.txt	LTP117	ltpFR2	5	15	SLIME	1327	n/a	n/a	0	0	0
3149469	REC_WORD	wordpools/wasnorm_wordpool_576.txt	LTP117	ltpFR2	5	15	BRICK	172	n/a	n/a	0	0	0
3150131	REC_WORD	wordpools/wasnorm_wordpool_576.txt	LTP117	ltpFR2	5	15	RAFT	1159	n/a	n/a	0	0	0
3152066	REC_WORD	wordpools/wasnorm_wordpool_576.txt	LTP117	ltpFR2	5	15	REPORT	1184	n/a	n/a	0	0	0
3154460	REC_WORD	wordpools/wasnorm_wordpool_576.txt	LTP117	ltpFR2	5	15	LIPSTICK	829	n/a	n/a	0	0	0
3156112	REC_WORD	wordpools/wasnorm_wordpool_576.txt	LTP117	ltpFR2	5	15	XEROX	1628	n/a	n/a	0	0	0
3156811	REC_WORD	wordpools/wasnorm_wordpool_576.txt	LTP117	ltpFR2	5	15	MACHINE	852	n/a	n/a	0	0	0
3165047	REC_WORD	wordpools/wasnorm_wordpool_576.txt	LTP117	ltpFR2	5	15	RAFT	1159	n/a	n/a	0	0	0
3165950	REC_WORD	wordpools/wasnorm_wordpool_576.txt	LTP117	ltpFR2	5	15	BADGE	68	n/a	n/a	0	0	0
3166745	REC_WORD	wordpools/wasnorm_wordpool_576.txt	LTP117	ltpFR2	5	15	KEEPER	769	n/a	n/a	0	0	0
3167808	REC_WORD	wordpools/wasnorm_wordpool_576.txt	LTP117	ltpFR2	5	15	SADDLE	1221	n/a	n/a	0	0	0
3168865	REC_WORD	wordpools/wasnorm_wordpool_576.txt	LTP117	ltpFR2	5	15	GIRL	637	n/a	n/a	0	0	0
3170290	REC_WORD	wordpools/wasnorm_wordpool_576.txt	LTP117	ltpFR2	5	15	CHILD	299	n/a	n/a	0	0	0
3171262	REC_WORD	wordpools/wasnorm_wordpool_576.txt	LTP117	ltpFR2	5	15	SHARK	1275	n/a	n/a	0	0	0
3172309	REC_WORD	wordpools/wasnorm_wordpool_576.txt	LTP117	ltpFR2	5	15	DOLPHIN	483	n/a	n/a	0	0	0
3173069	REC_WORD	wordpools/wasnorm_wordpool_576.txt	LTP117	ltpFR2	5	15	SALMON	1227	n/a	n/a	0	0	0
3175950	REC_WORD	wordpools/wasnorm_wordpool_576.txt	LTP117	ltpFR2	5	15	SNACK	1331	n/a	n/a	0	0	0
3177069	REC_WORD	wordpools/wasnorm_wordpool_576.txt	LTP117	ltpFR2	5	15	OUTDOORS	987	n/a	n/a	0	0	0
3197530	REC_WORD	wordpools/wasnorm_wordpool_576.txt	LTP117	ltpFR2	5	15	TYPIST	1532	n/a	n/a	0	0	0
3198380	REC_WORD	wordpools/wasnorm_wordpool_576.txt	LTP117	ltpFR2	5	15	WORKER	1621	n/a	n/a	0	0	0
3202640	REC_WORD	wordpools/wasnorm_wordpool_576.txt	LTP117	ltpFR2	5	15	OFFICE	972	n/a	n/a	0	0	0
3236185	DISTRACTOR	n/a	LTP117	ltpFR2	5	16	n/a	n/a	n/a	n/a	0	0	0
3236185	START	n/a	LTP117	ltpFR2	5	n/a	n/a	n/a	23	n/a	n/a	n/a	n/a
3236218	PROB	n/a	LTP117	ltpFR2	5	n/a	n/a	n/a	23	17	6	8	3
3237565	PROB	n/a	LTP117	ltpFR2	5	n/a	n/a	n/a	23	11	4	4	3
3238547	PROB	n/a	LTP117	ltpFR2	5	n/a	n/a	n/a	23	16	8	6	2
3239778	PROB	n/a	LTP117	ltpFR2	5	n/a	n/a	n/a	23	13	1	3	9
3240810	PROB	n/a	LTP117	ltpFR2	5	n/a	n/a	n/a	23	17	7	3	7
3242326	PROB	n/a	LTP117	ltpFR2	5	n/a	n/a	n/a	23	12	5	1	6
3243158	PROB	n/a	LTP117	ltpFR2	5	n/a	n/a	n/a	23	18	7	2	9
3244206	PROB	n/a	LTP117	ltpFR2	5	n/a	n/a	n/a	23	19	7	4	8
3245836	PROB	n/a	LTP117	ltpFR2	5	n/a	n/a	n/a	23	17	5	6	6
3246835	PROB	n/a	LTP117	ltpFR2	5	n/a	n/a	n/a	23	11	3	6	2
3247733	PROB	n/a	LTP117	ltpFR2	5	n/a	n/a	n/a	23	9	3	1	5
3248765	PROB	n/a	LTP117	ltpFR2	5	n/a	n/a	n/a	23	6	2	3	1
3249564	PROB	n/a	LTP117	ltpFR2	5	n/a	n/a	n/a	23	12	7	1	4
3250430	PROB	n/a	LTP117	ltpFR2	5	n/a	n/a	n/a	23	17	1	9	7
3251379	PROB	n/a	LTP117	ltpFR2	5	n/a	n/a	n/a	23	17	4	6	7
3252776	PROB	n/a	LTP117	ltpFR2	5	n/a	n/a	n/a	23	13	5	3	5
3253741	PROB	n/a	LTP117	ltpFR2	5	n/a	n/a	n/a	23	15	3	8	4
3255655	PROB	n/a	LTP117	ltpFR2	5	n/a	n/a	n/a	23	11	2	4	5
3256537	PROB	n/a	LTP117	ltpFR2	5	n/a	n/a	n/a	23	16	5	6	6
3257552	PROB	n/a	LTP117	ltpFR2	5	n/a	n/a	n/a	23	25	9	8	8
3259205	STOP	n/a	LTP117	ltpFR2	5	n/a	n/a	n/a	23	n/a	n/a	n/a	n/a
3261048	WORD	wordpools/wasnorm_wordpool_576.txt	LTP117	ltpFR2	5	16	CABIN	211	n/a	n/a	0	0	0
3263793	WORD	wordpools/wasnorm_wordpool_576.txt	LTP117	ltpFR2	5	16	FRAGRANCE	599	n/a	n/a	0	0	0
3266522	WORD	wordpools/wasnorm_wordpool_576.txt	LTP117	ltpFR2	5	16	CLOTHES	327	n/a	n/a	0	0	0
3269019	WORD	wordpools/wasnorm_wordpool_576.txt	LTP117	ltpFR2	5	16	PEDAL	1037	n/a	n/a	0	0	0
3271531	WORD	wordpools/wasnorm_wordpool_576.txt	LTP117	ltpFR2	5	16	SPONGE	1355	n/a	n/a	0	0	0
3274261	WORD	wordpools/wasnorm_wordpool_576.txt	LTP117	ltpFR2	5	16	PASSAGE	1019	n/a	n/a	0	0	0
3276874	WORD	wordpools/wasnorm_wordpool_576.txt	LTP117	ltpFR2	5	16	CLAM	315	n/a	n/a	0	0	0
3279686	WORD	wordpools/wasnorm_wordpool_576.txt	LTP117	ltpFR2	5	16	SNAIL	1332	n/a	n/a	0	0	0
3282183	WORD	wordpools/wasnorm_wordpool_576.txt	LTP117	ltpFR2	5	16	MISTER	901	n/a	n/a	0	0	0
3284929	WORD	wordpools/wasnorm_wordpool_576.txt	LTP117	ltpFR2	5	16	GALLON	618	n/a	n/a	0	0	0
3287508	WORD	wordpools/wasnorm_wordpool_576.txt	LTP117	ltpFR2	5	16	SHERIFF	1284	n/a	n/a	0	0	0
3290237	WORD	wordpools/wasnorm_wordpool_576.txt	LTP117	ltpFR2	5	16	PEPPER	1047	n/a	n/a	0	0	0
3292900	WORD	wordpools/wasnorm_wordpool_576.txt	LTP117	ltpFR2	5	16	STAKE	1368	n/a	n/a	0	0	0
3295678	WORD	wordpools/wasnorm_wordpool_576.txt	LTP117	ltpFR2	5	16	SANDWICH	1232	n/a	n/a	0	0	0
3298392	WORD	wordpools/wasnorm_wordpool_576.txt	LTP117	ltpFR2	5	16	WAITER	1580	n/a	n/a	0	0	0
3301155	WORD	wordpools/wasnorm_wordpool_576.txt	LTP117	ltpFR2	5	16	FLOWER	584	n/a	n/a	0	0	0
3303900	WORD	wordpools/wasnorm_wordpool_576.txt	LTP117	ltpFR2	5	16	SALT	1229	n/a	n/a	0	0	0
3306679	WORD	wordpools/wasnorm_wordpool_576.txt	LTP117	ltpFR2	5	16	BARLEY	88	n/a	n/a	0	0	0
3309475	WORD	wordpools/wasnorm_wordpool_576.txt	LTP117	ltpFR2	5	16	CIGAR	308	n/a	n/a	0	0	0
3312121	WORD	wordpools/wasnorm_wordpool_576.txt	LTP117	ltpFR2	5	16	SHELF	1280	n/a	n/a	0	0	0
3314934	WORD	wordpools/wasnorm_wordpool_576.txt	LTP117	ltpFR2	5	16	AUTHOR	61	n/a	n/a	0	0	0
3317364	WORD	wordpools/wasnorm_wordpool_576.txt	LTP117	ltpFR2	5	16	PATROL	1027	n/a	n/a	0	0	0
3320026	WORD	wordpools/wasnorm_wordpool_576.txt	LTP117	ltpFR2	5	16	STICKER	1382	n/a	n/a	0	0	0
3322456	WORD	wordpools/wasnorm_wordpool_576.txt	LTP117	ltpFR2	5	16	JEANS	752	n/a	n/a	0	0	0
3324071	START	n/a	LTP117	ltpFR2	5	n/a	n/a	n/a	24	n/a	n/a	n/a	n/a
3325103	DISTRACTOR	n/a	LTP117	ltpFR2	5	16	n/a	n/a	n/a	n/a	0	0	0
3325119	PROB	n/a	LTP117	ltpFR2	5	n/a	n/a	n/a	24	16	2	5	9
3326467	PROB	n/a	LTP117	ltpFR2	5	n/a	n/a	n/a	24	22	9	9	4
3328497	PROB	n/a	LTP117	ltpFR2	5	n/a	n/a	n/a	24	16	1	8	7
3329312	PROB	n/a	LTP117	ltpFR2	5	n/a	n/a	n/a	24	17	1	9	7
3330194	PROB	n/a	LTP117	ltpFR2	5	n/a	n/a	n/a	24	18	8	5	5
3331043	PROB	n/a	LTP117	ltpFR2	5	n/a	n/a	n/a	24	7	1	2	4
3331975	PROB	n/a	LTP117	ltpFR2	5	n/a	n/a	n/a	24	14	4	5	5
3332773	PROB	n/a	LTP117	ltpFR2	5	n/a	n/a	n/a	24	12	3	3	6
3333672	PROB	n/a	LTP117	ltpFR2	5	n/a	n/a	n/a	24	14	7	1	6
3334703	PROB	n/a	LTP117	ltpFR2	5	n/a	n/a	n/a	24	12	2	6	4
3335969	PROB	n/a	LTP117	ltpFR2	5	n/a	n/a	n/a	24	16	9	3	4
3337467	PROB	n/a	LTP117	ltpFR2	5	n/a	n/a	n/a	24	11	2	4	5
3338647	PROB	n/a	LTP117	ltpFR2	5	n/a	n/a	n/a	24	19	1	9	9
3339679	PROB	n/a	LTP117	ltpFR2	5	n/a	n/a	n/a	24	14	1	5	8
3340962	PROB	n/a	LTP117	ltpFR2	5	n/a	n/a	n/a	24	17	6	4	7
3341910	PROB	n/a	LTP117	ltpFR2	5	n/a	n/a	n/a	24	11	2	8	1
3342725	PROB	n/a	LTP117	ltpFR2	5	n/a	n/a	n/a	24	18	6	5	7
3345455	PROB	n/a	LTP117	ltpFR2	5	n/a	n/a	n/a	24	5	2	2	1
3346354	PROB	n/a	LTP117	ltpFR2	5	n/a	n/a	n/a	24	21	6	8	7
3347380	STOP	n/a	LTP117	ltpFR2	5	n/a	n/a	n/a	24	n/a	n/a	n/a	n/a
3349965	REC_START	n/a	LTP117	ltpFR2	5	16	n/a	n/a	n/a	n/a	0	0	0
3350196	REC_WORD	wordpools/wasnorm_wordpool_576.txt	LTP117	ltpFR2	5	16	SHELF	1280	n/a	n/a	0	0	0
3351094	REC_WORD	wordpools/wasnorm_wordpool_576.txt	LTP117	ltpFR2	5	16	AUTHOR	61	n/a	n/a	0	0	0
3351642	REC_WORD	wordpools/wasnorm_wordpool_576.txt	LTP117	ltpFR2	5	16	PATROL	1027	n/a	n/a	0	0	0
3352293	REC_WORD	wordpools/wasnorm_wordpool_576.txt	LTP117	ltpFR2	5	16	STICKER	1382	n/a	n/a	0	0	0
3354922	REC_WORD	wordpools/wasnorm_wordpool_576.txt	LTP117	ltpFR2	5	16	CIGAR	308	n/a	n/a	0	0	0
3355732	REC_WORD	wordpools/wasnorm_wordpool_576.txt	LTP117	ltpFR2	5	16	SHERIFF	1284	n/a	n/a	0	0	0
3358448	REC_WORD	wordpools/wasnorm_wordpool_576.txt	LTP117	ltpFR2	5	16	GALLON	618	n/a	n/a	0	0	0
3359162	REC_WORD	wordpools/wasnorm_wordpool_576.txt	LTP117	ltpFR2	5	16	CLAM	315	n/a	n/a	0	0	0
3360562	REC_WORD	wordpools/wasnorm_wordpool_576.txt	LTP117	ltpFR2	5	16	SNAIL	1332	n/a	n/a	0	0	0
3362663	REC_WORD	wordpools/wasnorm_wordpool_576.txt	LTP117	ltpFR2	5	16	SALT	1229	n/a	n/a	0	0	0
3363579	REC_WORD	wordpools/wasnorm_wordpool_576.txt	LTP117	ltpFR2	5	16	BARLEY	88	n/a	n/a	0	0	0
3364186	REC_WORD	wordpools/wasnorm_wordpool_576.txt	LTP117	ltpFR2	5	16	FLOWER	584	n/a	n/a	0	0	0
3365858	REC_WORD	wordpools/wasnorm_wordpool_576.txt	LTP117	ltpFR2	5	16	FRAGRANCE	599	n/a	n/a	0	0	0
3366857	REC_WORD	wordpools/wasnorm_wordpool_576.txt	LTP117	ltpFR2	5	16	CABIN	211	n/a	n/a	0	0	0
3367621	REC_WORD	wordpools/wasnorm_wordpool_576.txt	LTP117	ltpFR2	5	16	CLOTHES	327	n/a	n/a	0	0	0
3368503	REC_WORD	wordpools/wasnorm_wordpool_576.txt	LTP117	ltpFR2	5	16	PEDAL	1037	n/a	n/a	0	0	0
3388162	REC_WORD	wordpools/wasnorm_wordpool_576.txt	LTP117	ltpFR2	5	16	JEANS	752	n/a	n/a	0	0	0
3426566	REST_REWET	n/a	LTP117	ltpFR2	5	16	n/a	n/a	n/a	n/a	0	0	0
3721626	DISTRACTOR	n/a	LTP117	ltpFR2	5	17	n/a	n/a	n/a	n/a	0	0	0
3721626	START	n/a	LTP117	ltpFR2	5	n/a	n/a	n/a	25	n/a	n/a	n/a	n/a
3721659	PROB	n/a	LTP117	ltpFR2	5	n/a	n/a	n/a	25	16	7	5	4
3724123	PROB	n/a	LTP117	ltpFR2	5	n/a	n/a	n/a	25	12	8	3	1
3724889	PROB	n/a	LTP117	ltpFR2	5	n/a	n/a	n/a	25	13	7	3	2
3725904	PROB	n/a	LTP117	ltpFR2	5	n/a	n/a	n/a	25	15	6	1	8
3727700	PROB	n/a	LTP117	ltpFR2	5	n/a	n/a	n/a	25	16	1	7	8
3728565	PROB	n/a	LTP117	ltpFR2	5	n/a	n/a	n/a	25	10	1	5	4
3729382	PROB	n/a	LTP117	ltpFR2	5	n/a	n/a	n/a	25	11	1	7	3
3730712	PROB	n/a	LTP117	ltpFR2	5	n/a	n/a	n/a	25	12	6	4	2
3731694	PROB	n/a	LTP117	ltpFR2	5	n/a	n/a	n/a	25	10	2	1	7
3732743	PROB	n/a	LTP117	ltpFR2	5	n/a	n/a	n/a	25	13	2	7	4
3734441	PROB	n/a	LTP117	ltpFR2	5	n/a	n/a	n/a	25	16	5	8	4
3736455	PROB	n/a	LTP117	ltpFR2	5	n/a	n/a	n/a	25	18	9	8	3
3737619	PROB	n/a	LTP117	ltpFR2	5	n/a	n/a	n/a	25	13	4	7	2
3739883	PROB	n/a	LTP117	ltpFR2	5	n/a	n/a	n/a	25	10	4	1	5
3741347	PROB	n/a	LTP117	ltpFR2	5	n/a	n/a	n/a	25	196	3	9	7
3742628	PROB	n/a	LTP117	ltpFR2	5	n/a	n/a	n/a	25	11	6	3	2
3743444	PROB	n/a	LTP117	ltpFR2	5	n/a	n/a	n/a	25	12	5	3	4
3744389	STOP	n/a	LTP117	ltpFR2	5	n/a	n/a	n/a	25	n/a	n/a	n/a	n/a
3746506	WORD	wordpools/wasnorm_wordpool_576.txt	LTP117	ltpFR2	5	17	BIKE	125	n/a	n/a	0	0	0
3749169	WORD	wordpools/wasnorm_wordpool_576.txt	LTP117	ltpFR2	5	17	POLICE	1098	n/a	n/a	0	0	0
3751747	WORD	wordpools/wasnorm_wordpool_576.txt	LTP117	ltpFR2	5	17	CURTAIN	427	n/a	n/a	0	0	0
3754178	WORD	wordpools/wasnorm_wordpool_576.txt	LTP117	ltpFR2	5	17	PILOT	1070	n/a	n/a	0	0	0
3756891	WORD	wordpools/wasnorm_wordpool_576.txt	LTP117	ltpFR2	5	17	DRAGON	492	n/a	n/a	0	0	0
3759487	WORD	wordpools/wasnorm_wordpool_576.txt	LTP117	ltpFR2	5	17	BUG	187	n/a	n/a	0	0	0
3761950	WORD	wordpools/wasnorm_wordpool_576.txt	LTP117	ltpFR2	5	17	SISTER	1312	n/a	n/a	0	0	0
3764413	WORD	wordpools/wasnorm_wordpool_576.txt	LTP117	ltpFR2	5	17	BANK	83	n/a	n/a	0	0	0
3767192	WORD	wordpools/wasnorm_wordpool_576.txt	LTP117	ltpFR2	5	17	COIN	343	n/a	n/a	0	0	0
3769938	WORD	wordpools/wasnorm_wordpool_576.txt	LTP117	ltpFR2	5	17	AGENT	10	n/a	n/a	0	0	0
3772451	WORD	wordpools/wasnorm_wordpool_576.txt	LTP117	ltpFR2	5	17	GRAPE	654	n/a	n/a	0	0	0
3774964	WORD	wordpools/wasnorm_wordpool_576.txt	LTP117	ltpFR2	5	17	ONION	977	n/a	n/a	0	0	0
3777775	WORD	wordpools/wasnorm_wordpool_576.txt	LTP117	ltpFR2	5	17	BEAST	108	n/a	n/a	0	0	0
3780422	WORD	wordpools/wasnorm_wordpool_576.txt	LTP117	ltpFR2	5	17	FOX	598	n/a	n/a	0	0	0
3783135	WORD	wordpools/wasnorm_wordpool_576.txt	LTP117	ltpFR2	5	17	PEBBLE	1035	n/a	n/a	0	0	0
3785847	WORD	wordpools/wasnorm_wordpool_576.txt	LTP117	ltpFR2	5	17	ACTOR	5	n/a	n/a	0	0	0
3788277	WORD	wordpools/wasnorm_wordpool_576.txt	LTP117	ltpFR2	5	17	WINDOW	1611	n/a	n/a	0	0	0
3790789	WORD	wordpools/wasnorm_wordpool_576.txt	LTP117	ltpFR2	5	17	AIRPLANE	12	n/a	n/a	0	0	0
3793353	WORD	wordpools/wasnorm_wordpool_576.txt	LTP117	ltpFR2	5	17	BABY	64	n/a	n/a	0	0	0
3795982	WORD	wordpools/wasnorm_wordpool_576.txt	LTP117	ltpFR2	5	17	BOX	159	n/a	n/a	0	0	0
3798462	WORD	wordpools/wasnorm_wordpool_576.txt	LTP117	ltpFR2	5	17	PERCH	1048	n/a	n/a	0	0	0
3801108	WORD	wordpools/wasnorm_wordpool_576.txt	LTP117	ltpFR2	5	17	STONE	1385	n/a	n/a	0	0	0
3803836	WORD	wordpools/wasnorm_wordpool_576.txt	LTP117	ltpFR2	5	17	CONCERT	360	n/a	n/a	0	0	0
3806433	WORD	wordpools/wasnorm_wordpool_576.txt	LTP117	ltpFR2	5	17	JAPAN	749	n/a	n/a	0	0	0
3808048	START	n/a	LTP117	ltpFR2	5	n/a	n/a	n/a	26	n/a	n/a	n/a	n/a
3809230	DISTRACTOR	n/a	LTP117	ltpFR2	5	17	n/a	n/a	n/a	n/a	0	0	0
3809246	PROB	n/a	LTP117	ltpFR2	5	n/a	n/a	n/a	26	21	6	8	7
3810328	PROB	n/a	LTP117	ltpFR2	5	n/a	n/a	n/a	26	12	3	4	5
