mstime	trial_type	stim_file	subject	experiment	session	trial	task	item_name	item_num	recog_resp	recog_conf	resp	answer	test_x	test_y	test_z	color_r	color_g	color_b	case	font
0	SESS_START	n/a	LTP283	ltpFR	15	n/a	n/a	n/a	n/a	1	3	n/a	n/a	0	0	0	n/a	n/a	n/a	n/a	n/a
15693	START	n/a	LTP283	ltpFR	15	n/a	n/a	n/a	n/a	n/a	n/a	n/a	n/a	n/a	n/a	n/a	n/a	n/a	n/a	n/a	n/a
15726	PROB	n/a	LTP283	ltpFR	15	n/a	n/a	n/a	n/a	n/a	n/a	n/a	20	7	9	4	n/a	n/a	n/a	n/a	n/a
17374	PROB	n/a	LTP283	ltpFR	15	n/a	n/a	n/a	n/a	n/a	n/a	n/a	16	3	7	6	n/a	n/a	n/a	n/a	n/a
18772	PROB	n/a	LTP283	ltpFR	15	n/a	n/a	n/a	n/a	n/a	n/a	n/a	17	9	1	7	n/a	n/a	n/a	n/a	n/a
20053	PROB	n/a	LTP283	ltpFR	15	n/a	n/a	n/a	n/a	n/a	n/a	n/a	15	6	6	3	n/a	n/a	n/a	n/a	n/a
21701	PROB	n/a	LTP283	ltpFR	15	n/a	n/a	n/a	n/a	n/a	n/a	n/a	15	2	5	6	n/a	n/a	n/a	n/a	n/a
23698	PROB	n/a	LTP283	ltpFR	15	n/a	n/a	n/a	n/a	n/a	n/a	n/a	21	9	5	8	n/a	n/a	n/a	n/a	n/a
25378	PROB	n/a	LTP283	ltpFR	15	n/a	n/a	n/a	n/a	n/a	n/a	n/a	11	1	9	1	n/a	n/a	n/a	n/a	n/a
26660	PROB	n/a	LTP283	ltpFR	15	n/a	n/a	n/a	n/a	n/a	n/a	n/a	22	8	8	6	n/a	n/a	n/a	n/a	n/a
28640	PROB	n/a	LTP283	ltpFR	15	n/a	n/a	n/a	n/a	n/a	n/a	n/a	19	9	7	3	n/a	n/a	n/a	n/a	n/a
29972	PROB	n/a	LTP283	ltpFR	15	n/a	n/a	n/a	n/a	n/a	n/a	n/a	21	5	8	8	n/a	n/a	n/a	n/a	n/a
32168	PROB	n/a	LTP283	ltpFR	15	n/a	n/a	n/a	n/a	n/a	n/a	n/a	9	4	1	4	n/a	n/a	n/a	n/a	n/a
33450	PROB	n/a	LTP283	ltpFR	15	n/a	n/a	n/a	n/a	n/a	n/a	n/a	20	7	7	6	n/a	n/a	n/a	n/a	n/a
34906	STOP	n/a	LTP283	ltpFR	15	n/a	n/a	n/a	n/a	n/a	n/a	n/a	n/a	n/a	n/a	n/a	n/a	n/a	n/a	n/a	n/a
66535	START	n/a	LTP283	ltpFR	15	n/a	n/a	n/a	n/a	n/a	n/a	n/a	n/a	n/a	n/a	n/a	n/a	n/a	n/a	n/a	n/a
68048	PROB	n/a	LTP283	ltpFR	15	n/a	n/a	n/a	n/a	n/a	n/a	n/a	10	4	2	4	n/a	n/a	n/a	n/a	n/a
69513	PROB	n/a	LTP283	ltpFR	15	n/a	n/a	n/a	n/a	n/a	n/a	n/a	16	4	8	4	n/a	n/a	n/a	n/a	n/a
71376	PROB	n/a	LTP283	ltpFR	15	n/a	n/a	n/a	n/a	n/a	n/a	n/a	19	6	7	6	n/a	n/a	n/a	n/a	n/a
73234	STOP	n/a	LTP283	ltpFR	15	n/a	n/a	n/a	n/a	n/a	n/a	n/a	n/a	n/a	n/a	n/a	n/a	n/a	n/a	n/a	n/a
75387	WORD	wordpools/wasnorm_wordpool_less_exclusions.txt	LTP283	ltpFR	15	1	0	PALM	1007	0	n/a	0	n/a	0	0	0	0.57763671875	0.412841796875	1	lower	zerothre.ttf
78400	START	n/a	LTP283	ltpFR	15	n/a	n/a	n/a	n/a	n/a	n/a	n/a	n/a	n/a	n/a	n/a	n/a	n/a	n/a	n/a	n/a
79280	PROB	n/a	LTP283	ltpFR	15	n/a	n/a	n/a	n/a	n/a	n/a	n/a	16	3	8	5	n/a	n/a	n/a	n/a	n/a
81029	PROB	n/a	LTP283	ltpFR	15	n/a	n/a	n/a	n/a	n/a	n/a	n/a	12	9	1	2	n/a	n/a	n/a	n/a	n/a
82194	PROB	n/a	LTP283	ltpFR	15	n/a	n/a	n/a	n/a	n/a	n/a	n/a	18	9	2	7	n/a	n/a	n/a	n/a	n/a
83775	PROB	n/a	LTP283	ltpFR	15	n/a	n/a	n/a	n/a	n/a	n/a	n/a	18	2	9	7	n/a	n/a	n/a	n/a	n/a
85242	STOP	n/a	LTP283	ltpFR	15	n/a	n/a	n/a	n/a	n/a	n/a	n/a	n/a	n/a	n/a	n/a	n/a	n/a	n/a	n/a	n/a
87353	WORD	wordpools/wasnorm_wordpool_less_exclusions.txt	LTP283	ltpFR	15	1	0	SUSPECT	1415	n/a	n/a	1	n/a	0	0	0	0.57763671875	0.412841796875	1	lower	zerothre.ttf
90365	START	n/a	LTP283	ltpFR	15	n/a	n/a	n/a	n/a	n/a	n/a	n/a	n/a	n/a	n/a	n/a	n/a	n/a	n/a	n/a	n/a
91279	PROB	n/a	LTP283	ltpFR	15	n/a	n/a	n/a	n/a	n/a	n/a	n/a	11	5	5	1	n/a	n/a	n/a	n/a	n/a
92345	PROB	n/a	LTP283	ltpFR	15	n/a	n/a	n/a	n/a	n/a	n/a	n/a	10	3	4	3	n/a	n/a	n/a	n/a	n/a
93943	PROB	n/a	LTP283	ltpFR	15	n/a	n/a	n/a	n/a	n/a	n/a	n/a	15	5	9	1	n/a	n/a	n/a	n/a	n/a
95008	PROB	n/a	LTP283	ltpFR	15	n/a	n/a	n/a	n/a	n/a	n/a	n/a	14	1	7	6	n/a	n/a	n/a	n/a	n/a
96406	PROB	n/a	LTP283	ltpFR	15	n/a	n/a	n/a	n/a	n/a	n/a	n/a	8	1	5	2	n/a	n/a	n/a	n/a	n/a
97858	STOP	n/a	LTP283	ltpFR	15	n/a	n/a	n/a	n/a	n/a	n/a	n/a	n/a	n/a	n/a	n/a	n/a	n/a	n/a	n/a	n/a
99235	WORD	wordpools/wasnorm_wordpool_less_exclusions.txt	LTP283	ltpFR	15	1	0	PLAID	1080	n/a	n/a	0	n/a	0	0	0	0.57763671875	0.412841796875	1	lower	zerothre.ttf
102247	START	n/a	LTP283	ltpFR	15	n/a	n/a	n/a	n/a	n/a	n/a	n/a	n/a	n/a	n/a	n/a	n/a	n/a	n/a	n/a	n/a
103412	PROB	n/a	LTP283	ltpFR	15	n/a	n/a	n/a	n/a	n/a	n/a	n/a	15	5	3	7	n/a	n/a	n/a	n/a	n/a
104560	PROB	n/a	LTP283	ltpFR	15	n/a	n/a	n/a	n/a	n/a	n/a	n/a	14	8	1	5	n/a	n/a	n/a	n/a	n/a
106191	PROB	n/a	LTP283	ltpFR	15	n/a	n/a	n/a	n/a	n/a	n/a	n/a	16	3	7	6	n/a	n/a	n/a	n/a	n/a
107789	PROB	n/a	LTP283	ltpFR	15	n/a	n/a	n/a	n/a	n/a	n/a	n/a	19	9	4	6	n/a	n/a	n/a	n/a	n/a
109082	STOP	n/a	LTP283	ltpFR	15	n/a	n/a	n/a	n/a	n/a	n/a	n/a	n/a	n/a	n/a	n/a	n/a	n/a	n/a	n/a	n/a
111333	WORD	wordpools/wasnorm_wordpool_less_exclusions.txt	LTP283	ltpFR	15	1	0	DRAGON	492	n/a	n/a	1	n/a	0	0	0	0.57763671875	0.412841796875	1	lower	zerothre.ttf
114346	START	n/a	LTP283	ltpFR	15	n/a	n/a	n/a	n/a	n/a	n/a	n/a	n/a	n/a	n/a	n/a	n/a	n/a	n/a	n/a	n/a
115277	PROB	n/a	LTP283	ltpFR	15	n/a	n/a	n/a	n/a	n/a	n/a	n/a	7	3	3	1	n/a	n/a	n/a	n/a	n/a
116509	PROB	n/a	LTP283	ltpFR	15	n/a	n/a	n/a	n/a	n/a	n/a	n/a	20	6	5	9	n/a	n/a	n/a	n/a	n/a
117974	PROB	n/a	LTP283	ltpFR	15	n/a	n/a	n/a	n/a	n/a	n/a	n/a	13	7	1	5	n/a	n/a	n/a	n/a	n/a
119571	PROB	n/a	LTP283	ltpFR	15	n/a	n/a	n/a	n/a	n/a	n/a	n/a	15	6	8	1	n/a	n/a	n/a	n/a	n/a
121257	STOP	n/a	LTP283	ltpFR	15	n/a	n/a	n/a	n/a	n/a	n/a	n/a	n/a	n/a	n/a	n/a	n/a	n/a	n/a	n/a	n/a
123332	WORD	wordpools/wasnorm_wordpool_less_exclusions.txt	LTP283	ltpFR	15	1	0	BANDIT	81	n/a	n/a	1	n/a	0	0	0	0.57763671875	0.412841796875	1	lower	zerothre.ttf
126345	START	n/a	LTP283	ltpFR	15	n/a	n/a	n/a	n/a	n/a	n/a	n/a	n/a	n/a	n/a	n/a	n/a	n/a	n/a	n/a	n/a
127443	PROB	n/a	LTP283	ltpFR	15	n/a	n/a	n/a	n/a	n/a	n/a	n/a	18	6	7	5	n/a	n/a	n/a	n/a	n/a
129723	PROB	n/a	LTP283	ltpFR	15	n/a	n/a	n/a	n/a	n/a	n/a	n/a	9	1	3	5	n/a	n/a	n/a	n/a	n/a
131137	PROB	n/a	LTP283	ltpFR	15	n/a	n/a	n/a	n/a	n/a	n/a	n/a	12	2	9	1	n/a	n/a	n/a	n/a	n/a
132219	PROB	n/a	LTP283	ltpFR	15	n/a	n/a	n/a	n/a	n/a	n/a	n/a	15	1	8	4	n/a	n/a	n/a	n/a	n/a
133858	STOP	n/a	LTP283	ltpFR	15	n/a	n/a	n/a	n/a	n/a	n/a	n/a	n/a	n/a	n/a	n/a	n/a	n/a	n/a	n/a	n/a
135414	WORD	wordpools/wasnorm_wordpool_less_exclusions.txt	LTP283	ltpFR	15	1	0	ARMY	39	n/a	n/a	1	n/a	0	0	0	0.57763671875	0.412841796875	1	lower	zerothre.ttf
138427	START	n/a	LTP283	ltpFR	15	n/a	n/a	n/a	n/a	n/a	n/a	n/a	n/a	n/a	n/a	n/a	n/a	n/a	n/a	n/a	n/a
139308	PROB	n/a	LTP283	ltpFR	15	n/a	n/a	n/a	n/a	n/a	n/a	n/a	22	9	5	8	n/a	n/a	n/a	n/a	n/a
140989	PROB	n/a	LTP283	ltpFR	15	n/a	n/a	n/a	n/a	n/a	n/a	n/a	14	2	4	8	n/a	n/a	n/a	n/a	n/a
142270	PROB	n/a	LTP283	ltpFR	15	n/a	n/a	n/a	n/a	n/a	n/a	n/a	12	1	2	9	n/a	n/a	n/a	n/a	n/a
143402	PROB	n/a	LTP283	ltpFR	15	n/a	n/a	n/a	n/a	n/a	n/a	n/a	16	7	3	6	n/a	n/a	n/a	n/a	n/a
144850	PROB	n/a	LTP283	ltpFR	15	n/a	n/a	n/a	n/a	n/a	n/a	n/a	4	2	1	1	n/a	n/a	n/a	n/a	n/a
145970	STOP	n/a	LTP283	ltpFR	15	n/a	n/a	n/a	n/a	n/a	n/a	n/a	n/a	n/a	n/a	n/a	n/a	n/a	n/a	n/a	n/a
147546	WORD	wordpools/wasnorm_wordpool_less_exclusions.txt	LTP283	ltpFR	15	1	1	TANK	1432	n/a	n/a	0	n/a	0	0	0	0.422607421875	0.5869140625	0	upper	amplitud.ttf
150559	START	n/a	LTP283	ltpFR	15	n/a	n/a	n/a	n/a	n/a	n/a	n/a	n/a	n/a	n/a	n/a	n/a	n/a	n/a	n/a	n/a
151623	PROB	n/a	LTP283	ltpFR	15	n/a	n/a	n/a	n/a	n/a	n/a	n/a	22	8	9	5	n/a	n/a	n/a	n/a	n/a
153304	PROB	n/a	LTP283	ltpFR	15	n/a	n/a	n/a	n/a	n/a	n/a	n/a	13	9	3	1	n/a	n/a	n/a	n/a	n/a
154469	PROB	n/a	LTP283	ltpFR	15	n/a	n/a	n/a	n/a	n/a	n/a	n/a	15	4	8	3	n/a	n/a	n/a	n/a	n/a
156516	PROB	n/a	LTP283	ltpFR	15	n/a	n/a	n/a	n/a	n/a	n/a	n/a	10	1	7	2	n/a	n/a	n/a	n/a	n/a
157690	STOP	n/a	LTP283	ltpFR	15	n/a	n/a	n/a	n/a	n/a	n/a	n/a	n/a	n/a	n/a	n/a	n/a	n/a	n/a	n/a	n/a
159744	WORD	wordpools/wasnorm_wordpool_less_exclusions.txt	LTP283	ltpFR	15	1	1	BROOK	177	n/a	n/a	0	n/a	0	0	0	0.422607421875	0.5869140625	0	upper	amplitud.ttf
162757	START	n/a	LTP283	ltpFR	15	n/a	n/a	n/a	n/a	n/a	n/a	n/a	n/a	n/a	n/a	n/a	n/a	n/a	n/a	n/a	n/a
163955	PROB	n/a	LTP283	ltpFR	15	n/a	n/a	n/a	n/a	n/a	n/a	n/a	17	3	9	5	n/a	n/a	n/a	n/a	n/a
165752	PROB	n/a	LTP283	ltpFR	15	n/a	n/a	n/a	n/a	n/a	n/a	n/a	17	7	8	2	n/a	n/a	n/a	n/a	n/a
167050	PROB	n/a	LTP283	ltpFR	15	n/a	n/a	n/a	n/a	n/a	n/a	n/a	17	4	3	9	n/a	n/a	n/a	n/a	n/a
169230	PROB	n/a	LTP283	ltpFR	15	n/a	n/a	n/a	n/a	n/a	n/a	n/a	12	6	1	5	n/a	n/a	n/a	n/a	n/a
170570	STOP	n/a	LTP283	ltpFR	15	n/a	n/a	n/a	n/a	n/a	n/a	n/a	n/a	n/a	n/a	n/a	n/a	n/a	n/a	n/a	n/a
171910	WORD	wordpools/wasnorm_wordpool_less_exclusions.txt	LTP283	ltpFR	15	1	0	MANSION	864	n/a	n/a	1	n/a	0	0	0	0.57763671875	0.412841796875	1	lower	zerothre.ttf
174922	START	n/a	LTP283	ltpFR	15	n/a	n/a	n/a	n/a	n/a	n/a	n/a	n/a	n/a	n/a	n/a	n/a	n/a	n/a	n/a	n/a
175737	PROB	n/a	LTP283	ltpFR	15	n/a	n/a	n/a	n/a	n/a	n/a	n/a	15	3	3	9	n/a	n/a	n/a	n/a	n/a
177451	PROB	n/a	LTP283	ltpFR	15	n/a	n/a	n/a	n/a	n/a	n/a	n/a	14	1	6	7	n/a	n/a	n/a	n/a	n/a
178949	PROB	n/a	LTP283	ltpFR	15	n/a	n/a	n/a	n/a	n/a	n/a	n/a	12	6	3	3	n/a	n/a	n/a	n/a	n/a
180530	PROB	n/a	LTP283	ltpFR	15	n/a	n/a	n/a	n/a	n/a	n/a	n/a	8	2	3	3	n/a	n/a	n/a	n/a	n/a
181890	STOP	n/a	LTP283	ltpFR	15	n/a	n/a	n/a	n/a	n/a	n/a	n/a	n/a	n/a	n/a	n/a	n/a	n/a	n/a	n/a	n/a
183792	WORD	wordpools/wasnorm_wordpool_less_exclusions.txt	LTP283	ltpFR	15	1	0	TROUSERS	1510	n/a	n/a	1	n/a	0	0	0	0.57763671875	0.412841796875	1	lower	zerothre.ttf
186805	START	n/a	LTP283	ltpFR	15	n/a	n/a	n/a	n/a	n/a	n/a	n/a	n/a	n/a	n/a	n/a	n/a	n/a	n/a	n/a	n/a
187803	PROB	n/a	LTP283	ltpFR	15	n/a	n/a	n/a	n/a	n/a	n/a	n/a	18	7	4	7	n/a	n/a	n/a	n/a	n/a
189433	PROB	n/a	LTP283	ltpFR	15	n/a	n/a	n/a	n/a	n/a	n/a	n/a	15	6	4	5	n/a	n/a	n/a	n/a	n/a
190782	PROB	n/a	LTP283	ltpFR	15	n/a	n/a	n/a	n/a	n/a	n/a	n/a	18	8	2	8	n/a	n/a	n/a	n/a	n/a
192046	PROB	n/a	LTP283	ltpFR	15	n/a	n/a	n/a	n/a	n/a	n/a	n/a	10	2	4	4	n/a	n/a	n/a	n/a	n/a
193257	STOP	n/a	LTP283	ltpFR	15	n/a	n/a	n/a	n/a	n/a	n/a	n/a	n/a	n/a	n/a	n/a	n/a	n/a	n/a	n/a	n/a
195924	WORD	wordpools/wasnorm_wordpool_less_exclusions.txt	LTP283	ltpFR	15	1	1	SNORKEL	1336	n/a	n/a	0	n/a	0	0	0	0.422607421875	0.5869140625	0	upper	amplitud.ttf
198936	START	n/a	LTP283	ltpFR	15	n/a	n/a	n/a	n/a	n/a	n/a	n/a	n/a	n/a	n/a	n/a	n/a	n/a	n/a	n/a	n/a
200001	PROB	n/a	LTP283	ltpFR	15	n/a	n/a	n/a	n/a	n/a	n/a	n/a	19	7	7	5	n/a	n/a	n/a	n/a	n/a
201366	PROB	n/a	LTP283	ltpFR	15	n/a	n/a	n/a	n/a	n/a	n/a	n/a	20	7	8	5	n/a	n/a	n/a	n/a	n/a
202830	PROB	n/a	LTP283	ltpFR	15	n/a	n/a	n/a	n/a	n/a	n/a	n/a	23	8	8	7	n/a	n/a	n/a	n/a	n/a
204977	PROB	n/a	LTP283	ltpFR	15	n/a	n/a	n/a	n/a	n/a	n/a	n/a	5	1	3	1	n/a	n/a	n/a	n/a	n/a
205954	STOP	n/a	LTP283	ltpFR	15	n/a	n/a	n/a	n/a	n/a	n/a	n/a	n/a	n/a	n/a	n/a	n/a	n/a	n/a	n/a	n/a
207939	WORD	wordpools/wasnorm_wordpool_less_exclusions.txt	LTP283	ltpFR	15	1	1	LOBSTER	837	n/a	n/a	1	n/a	0	0	0	0.422607421875	0.5869140625	0	upper	amplitud.ttf
210952	START	n/a	LTP283	ltpFR	15	n/a	n/a	n/a	n/a	n/a	n/a	n/a	n/a	n/a	n/a	n/a	n/a	n/a	n/a	n/a	n/a
211967	PROB	n/a	LTP283	ltpFR	15	n/a	n/a	n/a	n/a	n/a	n/a	n/a	27	9	9	9	n/a	n/a	n/a	n/a	n/a
213531	PROB	n/a	LTP283	ltpFR	15	n/a	n/a	n/a	n/a	n/a	n/a	n/a	9	1	5	3	n/a	n/a	n/a	n/a	n/a
214862	PROB	n/a	LTP283	ltpFR	15	n/a	n/a	n/a	n/a	n/a	n/a	n/a	13	4	4	5	n/a	n/a	n/a	n/a	n/a
216726	PROB	n/a	LTP283	ltpFR	15	n/a	n/a	n/a	n/a	n/a	n/a	n/a	6	1	2	3	n/a	n/a	n/a	n/a	n/a
217818	STOP	n/a	LTP283	ltpFR	15	n/a	n/a	n/a	n/a	n/a	n/a	n/a	n/a	n/a	n/a	n/a	n/a	n/a	n/a	n/a	n/a
220121	WORD	wordpools/wasnorm_wordpool_less_exclusions.txt	LTP283	ltpFR	15	1	1	CHERRY	293	n/a	n/a	1	n/a	0	0	0	0.422607421875	0.5869140625	0	upper	amplitud.ttf
223134	START	n/a	LTP283	ltpFR	15	n/a	n/a	n/a	n/a	n/a	n/a	n/a	n/a	n/a	n/a	n/a	n/a	n/a	n/a	n/a	n/a
224281	PROB	n/a	LTP283	ltpFR	15	n/a	n/a	n/a	n/a	n/a	n/a	n/a	11	1	1	9	n/a	n/a	n/a	n/a	n/a
225862	PROB	n/a	LTP283	ltpFR	15	n/a	n/a	n/a	n/a	n/a	n/a	n/a	12	1	7	4	n/a	n/a	n/a	n/a	n/a
227160	PROB	n/a	LTP283	ltpFR	15	n/a	n/a	n/a	n/a	n/a	n/a	n/a	14	3	5	6	n/a	n/a	n/a	n/a	n/a
231134	STOP	n/a	LTP283	ltpFR	15	n/a	n/a	n/a	n/a	n/a	n/a	n/a	n/a	n/a	n/a	n/a	n/a	n/a	n/a	n/a	n/a
232320	WORD	wordpools/wasnorm_wordpool_less_exclusions.txt	LTP283	ltpFR	15	1	1	TERRITORY	1452	n/a	n/a	0	n/a	0	0	0	0.422607421875	0.5869140625	0	upper	amplitud.ttf
235332	START	n/a	LTP283	ltpFR	15	n/a	n/a	n/a	n/a	n/a	n/a	n/a	n/a	n/a	n/a	n/a	n/a	n/a	n/a	n/a	n/a
236430	PROB	n/a	LTP283	ltpFR	15	n/a	n/a	n/a	n/a	n/a	n/a	n/a	12	4	5	3	n/a	n/a	n/a	n/a	n/a
239575	PROB	n/a	LTP283	ltpFR	15	n/a	n/a	n/a	n/a	n/a	n/a	n/a	24	8	9	7	n/a	n/a	n/a	n/a	n/a
241962	STOP	n/a	LTP283	ltpFR	15	n/a	n/a	n/a	n/a	n/a	n/a	n/a	n/a	n/a	n/a	n/a	n/a	n/a	n/a	n/a	n/a
244385	WORD	wordpools/wasnorm_wordpool_less_exclusions.txt	LTP283	ltpFR	15	1	1	CHICK	296	n/a	n/a	1	n/a	0	0	0	0.422607421875	0.5869140625	0	upper	amplitud.ttf
247397	START	n/a	LTP283	ltpFR	15	n/a	n/a	n/a	n/a	n/a	n/a	n/a	n/a	n/a	n/a	n/a	n/a	n/a	n/a	n/a	n/a
248379	PROB	n/a	LTP283	ltpFR	15	n/a	n/a	n/a	n/a	n/a	n/a	n/a	15	8	2	5	n/a	n/a	n/a	n/a	n/a
250026	PROB	n/a	LTP283	ltpFR	15	n/a	n/a	n/a	n/a	n/a	n/a	n/a	10	6	1	3	n/a	n/a	n/a	n/a	n/a
251241	PROB	n/a	LTP283	ltpFR	15	n/a	n/a	n/a	n/a	n/a	n/a	n/a	14	2	4	8	n/a	n/a	n/a	n/a	n/a
252489	PROB	n/a	LTP283	ltpFR	15	n/a	n/a	n/a	n/a	n/a	n/a	n/a	22	7	8	7	n/a	n/a	n/a	n/a	n/a
254370	STOP	n/a	LTP283	ltpFR	15	n/a	n/a	n/a	n/a	n/a	n/a	n/a	n/a	n/a	n/a	n/a	n/a	n/a	n/a	n/a	n/a
256567	WORD	wordpools/wasnorm_wordpool_less_exclusions.txt	LTP283	ltpFR	15	1	1	HEN	703	n/a	n/a	1	n/a	0	0	0	0.422607421875	0.5869140625	0	upper	amplitud.ttf
259579	START	n/a	LTP283	ltpFR	15	n/a	n/a	n/a	n/a	n/a	n/a	n/a	n/a	n/a	n/a	n/a	n/a	n/a	n/a	n/a	n/a
260461	PROB	n/a	LTP283	ltpFR	15	n/a	n/a	n/a	n/a	n/a	n/a	n/a	8	1	5	2	n/a	n/a	n/a	n/a	n/a
261592	PROB	n/a	LTP283	ltpFR	15	n/a	n/a	n/a	n/a	n/a	n/a	n/a	19	7	4	8	n/a	n/a	n/a	n/a	n/a
263340	PROB	n/a	LTP283	ltpFR	15	n/a	n/a	n/a	n/a	n/a	n/a	n/a	17	9	6	2	n/a	n/a	n/a	n/a	n/a
265071	PROB	n/a	LTP283	ltpFR	15	n/a	n/a	n/a	n/a	n/a	n/a	n/a	12	4	6	2	n/a	n/a	n/a	n/a	n/a
266122	STOP	n/a	LTP283	ltpFR	15	n/a	n/a	n/a	n/a	n/a	n/a	n/a	n/a	n/a	n/a	n/a	n/a	n/a	n/a	n/a	n/a
269515	REC_START	n/a	LTP283	ltpFR	15	1	n/a	n/a	n/a	n/a	n/a	n/a	n/a	0	0	0	n/a	n/a	n/a	n/a	n/a
271265	REC_WORD	wordpools/wasnorm_wordpool_less_exclusions.txt	LTP283	ltpFR	15	1	1	HEN	703	n/a	n/a	1	n/a	0	0	0	n/a	n/a	n/a	n/a	n/a
271999	REC_WORD_VV	wordpools/wasnorm_wordpool_less_exclusions.txt	LTP283	ltpFR	15	1	n/a	<>	-1	n/a	n/a	n/a	n/a	0	0	0	n/a	n/a	n/a	n/a	n/a
272748	REC_WORD	wordpools/wasnorm_wordpool_less_exclusions.txt	LTP283	ltpFR	15	1	1	CHICK	296	n/a	n/a	1	n/a	0	0	0	n/a	n/a	n/a	n/a	n/a
273808	REC_WORD	wordpools/wasnorm_wordpool_less_exclusions.txt	LTP283	ltpFR	15	1	1	CHERRY	293	n/a	n/a	1	n/a	0	0	0	n/a	n/a	n/a	n/a	n/a
274990	REC_WORD	wordpools/wasnorm_wordpool_less_exclusions.txt	LTP283	ltpFR	15	1	1	BROOK	177	n/a	n/a	0	n/a	0	0	0	n/a	n/a	n/a	n/a	n/a
275714	REC_WORD	wordpools/wasnorm_wordpool_less_exclusions.txt	LTP283	ltpFR	15	1	1	SNORKEL	1336	n/a	n/a	0	n/a	0	0	0	n/a	n/a	n/a	n/a	n/a
277427	REC_WORD	wordpools/wasnorm_wordpool_less_exclusions.txt	LTP283	ltpFR	15	1	1	LOBSTER	837	n/a	n/a	1	n/a	0	0	0	n/a	n/a	n/a	n/a	n/a
279129	REC_WORD	wordpools/wasnorm_wordpool_less_exclusions.txt	LTP283	ltpFR	15	1	0	ARMY	39	n/a	n/a	1	n/a	0	0	0	n/a	n/a	n/a	n/a	n/a
280075	REC_WORD	wordpools/wasnorm_wordpool_less_exclusions.txt	LTP283	ltpFR	15	1	0	BANDIT	81	n/a	n/a	1	n/a	0	0	0	n/a	n/a	n/a	n/a	n/a
281113	REC_WORD	wordpools/wasnorm_wordpool_less_exclusions.txt	LTP283	ltpFR	15	1	0	DRAGON	492	n/a	n/a	1	n/a	0	0	0	n/a	n/a	n/a	n/a	n/a
284270	REC_WORD	wordpools/wasnorm_wordpool_less_exclusions.txt	LTP283	ltpFR	15	1	0	PLAID	1080	n/a	n/a	0	n/a	0	0	0	n/a	n/a	n/a	n/a	n/a
285343	REC_WORD	wordpools/wasnorm_wordpool_less_exclusions.txt	LTP283	ltpFR	15	1	0	TROUSERS	1510	n/a	n/a	1	n/a	0	0	0	n/a	n/a	n/a	n/a	n/a
303852	REC_WORD	wordpools/wasnorm_wordpool_less_exclusions.txt	LTP283	ltpFR	15	1	0	PALM	1007	n/a	n/a	0	n/a	0	0	0	n/a	n/a	n/a	n/a	n/a
308544	REC_WORD	wordpools/wasnorm_wordpool_less_exclusions.txt	LTP283	ltpFR	15	1	0	SUSPECT	1415	n/a	n/a	1	n/a	0	0	0	n/a	n/a	n/a	n/a	n/a
349711	WORD	wordpools/wasnorm_wordpool_less_exclusions.txt	LTP283	ltpFR	15	2	0	TWIG	1527	n/a	n/a	0	n/a	0	0	0	0.57763671875	0.412841796875	1	lower	zerothre.ttf
353788	WORD	wordpools/wasnorm_wordpool_less_exclusions.txt	LTP283	ltpFR	15	2	0	WAREHOUSE	1588	n/a	n/a	1	n/a	0	0	0	0.57763671875	0.412841796875	1	lower	zerothre.ttf
357815	WORD	wordpools/wasnorm_wordpool_less_exclusions.txt	LTP283	ltpFR	15	2	0	PACKAGE	997	n/a	n/a	0	n/a	0	0	0	0.57763671875	0.412841796875	1	lower	zerothre.ttf
361959	WORD	wordpools/wasnorm_wordpool_less_exclusions.txt	LTP283	ltpFR	15	2	0	MISSILE	900	n/a	n/a	1	n/a	0	0	0	0.57763671875	0.412841796875	1	lower	zerothre.ttf
365903	WORD	wordpools/wasnorm_wordpool_less_exclusions.txt	LTP283	ltpFR	15	2	0	VETERAN	1561	n/a	n/a	1	n/a	0	0	0	0.57763671875	0.412841796875	1	lower	zerothre.ttf
370114	WORD	wordpools/wasnorm_wordpool_less_exclusions.txt	LTP283	ltpFR	15	2	0	BALLOON	75	n/a	n/a	1	n/a	0	0	0	0.57763671875	0.412841796875	1	lower	zerothre.ttf
374041	WORD	wordpools/wasnorm_wordpool_less_exclusions.txt	LTP283	ltpFR	15	2	0	RAIL	1161	n/a	n/a	1	n/a	0	0	0	0.57763671875	0.412841796875	1	lower	zerothre.ttf
378251	WORD	wordpools/wasnorm_wordpool_less_exclusions.txt	LTP283	ltpFR	15	2	0	COOKIE	374	n/a	n/a	0	n/a	0	0	0	0.57763671875	0.412841796875	1	lower	zerothre.ttf
382345	WORD	wordpools/wasnorm_wordpool_less_exclusions.txt	LTP283	ltpFR	15	2	0	WORM	1623	n/a	n/a	0	n/a	0	0	0	0.57763671875	0.412841796875	1	lower	zerothre.ttf
386539	WORD	wordpools/wasnorm_wordpool_less_exclusions.txt	LTP283	ltpFR	15	2	0	ENCYCLOPEDIA	533	n/a	n/a	0	n/a	0	0	0	0.57763671875	0.412841796875	1	lower	zerothre.ttf
390367	WORD	wordpools/wasnorm_wordpool_less_exclusions.txt	LTP283	ltpFR	15	2	0	BEAKER	104	n/a	n/a	0	n/a	0	0	0	0.57763671875	0.412841796875	1	lower	zerothre.ttf
394194	WORD	wordpools/wasnorm_wordpool_less_exclusions.txt	LTP283	ltpFR	15	2	0	ENVELOPE	537	n/a	n/a	0	n/a	0	0	0	0.57763671875	0.412841796875	1	lower	zerothre.ttf
398172	WORD	wordpools/wasnorm_wordpool_less_exclusions.txt	LTP283	ltpFR	15	2	0	PIE	1062	n/a	n/a	0	n/a	0	0	0	0.57763671875	0.412841796875	1	lower	zerothre.ttf
402049	WORD	wordpools/wasnorm_wordpool_less_exclusions.txt	LTP283	ltpFR	15	2	0	BUSH	202	n/a	n/a	1	n/a	0	0	0	0.57763671875	0.412841796875	1	lower	zerothre.ttf
406110	WORD	wordpools/wasnorm_wordpool_less_exclusions.txt	LTP283	ltpFR	15	2	0	SADDLE	1221	n/a	n/a	1	n/a	0	0	0	0.57763671875	0.412841796875	1	lower	zerothre.ttf
409971	WORD	wordpools/wasnorm_wordpool_less_exclusions.txt	LTP283	ltpFR	15	2	0	SANDWICH	1232	n/a	n/a	0	n/a	0	0	0	0.57763671875	0.412841796875	1	lower	zerothre.ttf
412983	START	n/a	LTP283	ltpFR	15	n/a	n/a	n/a	n/a	n/a	n/a	n/a	n/a	n/a	n/a	n/a	n/a	n/a	n/a	n/a	n/a
414031	PROB	n/a	LTP283	ltpFR	15	n/a	n/a	n/a	n/a	n/a	n/a	n/a	18	2	8	8	n/a	n/a	n/a	n/a	n/a
415479	PROB	n/a	LTP283	ltpFR	15	n/a	n/a	n/a	n/a	n/a	n/a	n/a	13	2	2	9	n/a	n/a	n/a	n/a	n/a
417044	PROB	n/a	LTP283	ltpFR	15	n/a	n/a	n/a	n/a	n/a	n/a	n/a	14	5	3	6	n/a	n/a	n/a	n/a	n/a
418891	PROB	n/a	LTP283	ltpFR	15	n/a	n/a	n/a	n/a	n/a	n/a	n/a	19	4	6	9	n/a	n/a	n/a	n/a	n/a
420834	STOP	n/a	LTP283	ltpFR	15	n/a	n/a	n/a	n/a	n/a	n/a	n/a	n/a	n/a	n/a	n/a	n/a	n/a	n/a	n/a	n/a
422736	REC_START	n/a	LTP283	ltpFR	15	2	n/a	n/a	n/a	n/a	n/a	n/a	n/a	0	0	0	n/a	n/a	n/a	n/a	n/a
424424	REC_WORD	wordpools/wasnorm_wordpool_less_exclusions.txt	LTP283	ltpFR	15	2	0	SADDLE	1221	n/a	n/a	1	n/a	0	0	0	n/a	n/a	n/a	n/a	n/a
425168	REC_WORD	wordpools/wasnorm_wordpool_less_exclusions.txt	LTP283	ltpFR	15	2	0	SANDWICH	1232	n/a	n/a	0	n/a	0	0	0	n/a	n/a	n/a	n/a	n/a
426532	REC_WORD	wordpools/wasnorm_wordpool_less_exclusions.txt	LTP283	ltpFR	15	2	0	PIE	1062	n/a	n/a	0	n/a	0	0	0	n/a	n/a	n/a	n/a	n/a
427435	REC_WORD	wordpools/wasnorm_wordpool_less_exclusions.txt	LTP283	ltpFR	15	2	0	COOKIE	374	n/a	n/a	0	n/a	0	0	0	n/a	n/a	n/a	n/a	n/a
428360	REC_WORD	wordpools/wasnorm_wordpool_less_exclusions.txt	LTP283	ltpFR	15	2	0	WORM	1623	n/a	n/a	0	n/a	0	0	0	n/a	n/a	n/a	n/a	n/a
430236	REC_WORD	wordpools/wasnorm_wordpool_less_exclusions.txt	LTP283	ltpFR	15	2	0	ENVELOPE	537	n/a	n/a	0	n/a	0	0	0	n/a	n/a	n/a	n/a	n/a
431317	REC_WORD	wordpools/wasnorm_wordpool_less_exclusions.txt	LTP283	ltpFR	15	2	0	PACKAGE	997	n/a	n/a	0	n/a	0	0	0	n/a	n/a	n/a	n/a	n/a
432328	REC_WORD	wordpools/wasnorm_wordpool_less_exclusions.txt	LTP283	ltpFR	15	2	0	WAREHOUSE	1588	n/a	n/a	1	n/a	0	0	0	n/a	n/a	n/a	n/a	n/a
433510	REC_WORD	wordpools/wasnorm_wordpool_less_exclusions.txt	LTP283	ltpFR	15	2	0	MISSILE	900	n/a	n/a	1	n/a	0	0	0	n/a	n/a	n/a	n/a	n/a
434429	REC_WORD	wordpools/wasnorm_wordpool_less_exclusions.txt	LTP283	ltpFR	15	2	0	VETERAN	1561	n/a	n/a	1	n/a	0	0	0	n/a	n/a	n/a	n/a	n/a
435503	REC_WORD	wordpools/wasnorm_wordpool_less_exclusions.txt	LTP283	ltpFR	15	2	0	BALLOON	75	n/a	n/a	1	n/a	0	0	0	n/a	n/a	n/a	n/a	n/a
439164	REC_WORD	wordpools/wasnorm_wordpool_less_exclusions.txt	LTP283	ltpFR	15	2	0	TWIG	1527	n/a	n/a	0	n/a	0	0	0	n/a	n/a	n/a	n/a	n/a
440291	REC_WORD	wordpools/wasnorm_wordpool_less_exclusions.txt	LTP283	ltpFR	15	2	0	BUSH	202	n/a	n/a	1	n/a	0	0	0	n/a	n/a	n/a	n/a	n/a
447110	REC_WORD	wordpools/wasnorm_wordpool_less_exclusions.txt	LTP283	ltpFR	15	2	0	RAIL	1161	n/a	n/a	1	n/a	0	0	0	n/a	n/a	n/a	n/a	n/a
502067	WORD	wordpools/wasnorm_wordpool_less_exclusions.txt	LTP283	ltpFR	15	3	1	WEED	1599	n/a	n/a	1	n/a	0	0	0	0.422607421875	0.5869140625	0	upper	amplitud.ttf
505961	WORD	wordpools/wasnorm_wordpool_less_exclusions.txt	LTP283	ltpFR	15	3	1	SEAGULL	1261	n/a	n/a	1	n/a	0	0	0	0.422607421875	0.5869140625	0	upper	amplitud.ttf
509955	WORD	wordpools/wasnorm_wordpool_less_exclusions.txt	LTP283	ltpFR	15	3	0	VOLCANO	1575	n/a	n/a	1	n/a	0	0	0	0.57763671875	0.412841796875	1	lower	zerothre.ttf
513949	WORD	wordpools/wasnorm_wordpool_less_exclusions.txt	LTP283	ltpFR	15	3	0	PANTS	1010	n/a	n/a	1	n/a	0	0	0	0.57763671875	0.412841796875	1	lower	zerothre.ttf
517976	WORD	wordpools/wasnorm_wordpool_less_exclusions.txt	LTP283	ltpFR	15	3	0	BUTTON	207	n/a	n/a	0	n/a	0	0	0	0.57763671875	0.412841796875	1	lower	zerothre.ttf
521804	WORD	wordpools/wasnorm_wordpool_less_exclusions.txt	LTP283	ltpFR	15	3	0	BENCH	121	n/a	n/a	1	n/a	0	0	0	0.57763671875	0.412841796875	1	lower	zerothre.ttf
525798	WORD	wordpools/wasnorm_wordpool_less_exclusions.txt	LTP283	ltpFR	15	3	1	CRATER	400	n/a	n/a	1	n/a	0	0	0	0.422607421875	0.5869140625	0	upper	amplitud.ttf
529792	WORD	wordpools/wasnorm_wordpool_less_exclusions.txt	LTP283	ltpFR	15	3	1	PRAIRIE	1118	n/a	n/a	0	n/a	0	0	0	0.422607421875	0.5869140625	0	upper	amplitud.ttf
533936	WORD	wordpools/wasnorm_wordpool_less_exclusions.txt	LTP283	ltpFR	15	3	1	NEST	945	n/a	n/a	0	n/a	0	0	0	0.422607421875	0.5869140625	0	upper	amplitud.ttf
537980	WORD	wordpools/wasnorm_wordpool_less_exclusions.txt	LTP283	ltpFR	15	3	1	PLUMBER	1091	n/a	n/a	1	n/a	0	0	0	0.422607421875	0.5869140625	0	upper	amplitud.ttf
542157	WORD	wordpools/wasnorm_wordpool_less_exclusions.txt	LTP283	ltpFR	15	3	1	SWIMMER	1420	n/a	n/a	1	n/a	0	0	0	0.422607421875	0.5869140625	0	upper	amplitud.ttf
546284	WORD	wordpools/wasnorm_wordpool_less_exclusions.txt	LTP283	ltpFR	15	3	1	CELLAR	267	n/a	n/a	0	n/a	0	0	0	0.422607421875	0.5869140625	0	upper	amplitud.ttf
550295	WORD	wordpools/wasnorm_wordpool_less_exclusions.txt	LTP283	ltpFR	15	3	0	ESSAY	540	n/a	n/a	0	n/a	0	0	0	0.57763671875	0.412841796875	1	lower	zerothre.ttf
554189	WORD	wordpools/wasnorm_wordpool_less_exclusions.txt	LTP283	ltpFR	15	3	0	GLOVE	642	n/a	n/a	0	n/a	0	0	0	0.57763671875	0.412841796875	1	lower	zerothre.ttf
558050	WORD	wordpools/wasnorm_wordpool_less_exclusions.txt	LTP283	ltpFR	15	3	0	BEETLE	116	n/a	n/a	0	n/a	0	0	0	0.57763671875	0.412841796875	1	lower	zerothre.ttf
562244	WORD	wordpools/wasnorm_wordpool_less_exclusions.txt	LTP283	ltpFR	15	3	0	CRICKET	408	n/a	n/a	0	n/a	0	0	0	0.57763671875	0.412841796875	1	lower	zerothre.ttf
565255	START	n/a	LTP283	ltpFR	15	n/a	n/a	n/a	n/a	n/a	n/a	n/a	n/a	n/a	n/a	n/a	n/a	n/a	n/a	n/a	n/a
566253	PROB	n/a	LTP283	ltpFR	15	n/a	n/a	n/a	n/a	n/a	n/a	n/a	20	5	9	6	n/a	n/a	n/a	n/a	n/a
568218	PROB	n/a	LTP283	ltpFR	15	n/a	n/a	n/a	n/a	n/a	n/a	n/a	11	3	3	5	n/a	n/a	n/a	n/a	n/a
570015	PROB	n/a	LTP283	ltpFR	15	n/a	n/a	n/a	n/a	n/a	n/a	n/a	19	4	7	8	n/a	n/a	n/a	n/a	n/a
571729	PROB	n/a	LTP283	ltpFR	15	n/a	n/a	n/a	n/a	n/a	n/a	n/a	23	9	7	7	n/a	n/a	n/a	n/a	n/a
573394	PROB	n/a	LTP283	ltpFR	15	n/a	n/a	n/a	n/a	n/a	n/a	n/a	10	2	4	4	n/a	n/a	n/a	n/a	n/a
574791	PROB	n/a	LTP283	ltpFR	15	n/a	n/a	n/a	n/a	n/a	n/a	n/a	14	3	6	5	n/a	n/a	n/a	n/a	n/a
576539	PROB	n/a	LTP283	ltpFR	15	n/a	n/a	n/a	n/a	n/a	n/a	n/a	14	4	9	1	n/a	n/a	n/a	n/a	n/a
577770	PROB	n/a	LTP283	ltpFR	15	n/a	n/a	n/a	n/a	n/a	n/a	n/a	16	7	3	6	n/a	n/a	n/a	n/a	n/a
578969	PROB	n/a	LTP283	ltpFR	15	n/a	n/a	n/a	n/a	n/a	n/a	n/a	20	6	7	7	n/a	n/a	n/a	n/a	n/a
580257	STOP	n/a	LTP283	ltpFR	15	n/a	n/a	n/a	n/a	n/a	n/a	n/a	n/a	n/a	n/a	n/a	n/a	n/a	n/a	n/a	n/a
583013	REC_START	n/a	LTP283	ltpFR	15	3	n/a	n/a	n/a	n/a	n/a	n/a	n/a	0	0	0	n/a	n/a	n/a	n/a	n/a
584992	REC_WORD	wordpools/wasnorm_wordpool_less_exclusions.txt	LTP283	ltpFR	15	3	0	BEETLE	116	n/a	n/a	0	n/a	0	0	0	n/a	n/a	n/a	n/a	n/a
586010	REC_WORD	wordpools/wasnorm_wordpool_less_exclusions.txt	LTP283	ltpFR	15	3	0	CRICKET	408	n/a	n/a	0	n/a	0	0	0	n/a	n/a	n/a	n/a	n/a
587020	REC_WORD	wordpools/wasnorm_wordpool_less_exclusions.txt	LTP283	ltpFR	15	3	0	GLOVE	642	n/a	n/a	0	n/a	0	0	0	n/a	n/a	n/a	n/a	n/a
587935	REC_WORD	wordpools/wasnorm_wordpool_less_exclusions.txt	LTP283	ltpFR	15	3	1	CELLAR	267	n/a	n/a	0	n/a	0	0	0	n/a	n/a	n/a	n/a	n/a
589141	REC_WORD	wordpools/wasnorm_wordpool_less_exclusions.txt	LTP283	ltpFR	15	3	0	ESSAY	540	n/a	n/a	0	n/a	0	0	0	n/a	n/a	n/a	n/a	n/a
590784	REC_WORD	wordpools/wasnorm_wordpool_less_exclusions.txt	LTP283	ltpFR	15	3	1	SWIMMER	1420	n/a	n/a	1	n/a	0	0	0	n/a	n/a	n/a	n/a	n/a
591824	REC_WORD	wordpools/wasnorm_wordpool_less_exclusions.txt	LTP283	ltpFR	15	3	1	PLUMBER	1091	n/a	n/a	1	n/a	0	0	0	n/a	n/a	n/a	n/a	n/a
592703	REC_WORD	wordpools/wasnorm_wordpool_less_exclusions.txt	LTP283	ltpFR	15	3	1	CRATER	400	n/a	n/a	1	n/a	0	0	0	n/a	n/a	n/a	n/a	n/a
598412	REC_WORD	wordpools/wasnorm_wordpool_less_exclusions.txt	LTP283	ltpFR	15	3	0	BUTTON	207	n/a	n/a	0	n/a	0	0	0	n/a	n/a	n/a	n/a	n/a
604193	REC_WORD	wordpools/wasnorm_wordpool_less_exclusions.txt	LTP283	ltpFR	15	3	0	TROUSERS	1510	n/a	n/a	1	n/a	0	0	0	n/a	n/a	n/a	n/a	n/a
606934	REC_WORD	wordpools/wasnorm_wordpool_less_exclusions.txt	LTP283	ltpFR	15	3	1	PRAIRIE	1118	n/a	n/a	0	n/a	0	0	0	n/a	n/a	n/a	n/a	n/a
611559	REC_WORD	wordpools/wasnorm_wordpool_less_exclusions.txt	LTP283	ltpFR	15	3	1	SEAGULL	1261	n/a	n/a	1	n/a	0	0	0	n/a	n/a	n/a	n/a	n/a
617493	REC_WORD	wordpools/wasnorm_wordpool_less_exclusions.txt	LTP283	ltpFR	15	3	1	WEED	1599	n/a	n/a	1	n/a	0	0	0	n/a	n/a	n/a	n/a	n/a
624912	REC_WORD	wordpools/wasnorm_wordpool_less_exclusions.txt	LTP283	ltpFR	15	3	0	BENCH	121	n/a	n/a	1	n/a	0	0	0	n/a	n/a	n/a	n/a	n/a
659549	START	n/a	LTP283	ltpFR	15	n/a	n/a	n/a	n/a	n/a	n/a	n/a	n/a	n/a	n/a	n/a	n/a	n/a	n/a	n/a	n/a
661063	PROB	n/a	LTP283	ltpFR	15	n/a	n/a	n/a	n/a	n/a	n/a	n/a	15	3	3	9	n/a	n/a	n/a	n/a	n/a
662510	PROB	n/a	LTP283	ltpFR	15	n/a	n/a	n/a	n/a	n/a	n/a	n/a	16	8	4	4	n/a	n/a	n/a	n/a	n/a
664607	PROB	n/a	LTP283	ltpFR	15	n/a	n/a	n/a	n/a	n/a	n/a	n/a	16	6	7	3	n/a	n/a	n/a	n/a	n/a
665839	PROB	n/a	LTP283	ltpFR	15	n/a	n/a	n/a	n/a	n/a	n/a	n/a	17	6	2	9	n/a	n/a	n/a	n/a	n/a
667686	PROB	n/a	LTP283	ltpFR	15	n/a	n/a	n/a	n/a	n/a	n/a	n/a	12	2	3	7	n/a	n/a	n/a	n/a	n/a
668918	PROB	n/a	LTP283	ltpFR	15	n/a	n/a	n/a	n/a	n/a	n/a	n/a	14	3	8	3	n/a	n/a	n/a	n/a	n/a
670415	PROB	n/a	LTP283	ltpFR	15	n/a	n/a	n/a	n/a	n/a	n/a	n/a	13	3	7	3	n/a	n/a	n/a	n/a	n/a
671763	PROB	n/a	LTP283	ltpFR	15	n/a	n/a	n/a	n/a	n/a	n/a	n/a	18	6	3	9	n/a	n/a	n/a	n/a	n/a
673095	PROB	n/a	LTP283	ltpFR	15	n/a	n/a	n/a	n/a	n/a	n/a	n/a	12	4	1	7	n/a	n/a	n/a	n/a	n/a
674330	STOP	n/a	LTP283	ltpFR	15	n/a	n/a	n/a	n/a	n/a	n/a	n/a	n/a	n/a	n/a	n/a	n/a	n/a	n/a	n/a	n/a
676523	WORD	wordpools/wasnorm_wordpool_less_exclusions.txt	LTP283	ltpFR	15	4	1	SCALLOP	1242	n/a	n/a	1	n/a	0	0	0	0.422607421875	0.5869140625	0	upper	amplitud.ttf
679535	START	n/a	LTP283	ltpFR	15	n/a	n/a	n/a	n/a	n/a	n/a	n/a	n/a	n/a	n/a	n/a	n/a	n/a	n/a	n/a	n/a
680683	PROB	n/a	LTP283	ltpFR	15	n/a	n/a	n/a	n/a	n/a	n/a	n/a	27	9	9	9	n/a	n/a	n/a	n/a	n/a
682115	PROB	n/a	LTP283	ltpFR	15	n/a	n/a	n/a	n/a	n/a	n/a	n/a	16	1	8	7	n/a	n/a	n/a	n/a	n/a
683662	PROB	n/a	LTP283	ltpFR	15	n/a	n/a	n/a	n/a	n/a	n/a	n/a	16	9	6	1	n/a	n/a	n/a	n/a	n/a
685010	PROB	n/a	LTP283	ltpFR	15	n/a	n/a	n/a	n/a	n/a	n/a	n/a	12	3	6	3	n/a	n/a	n/a	n/a	n/a
686425	PROB	n/a	LTP283	ltpFR	15	n/a	n/a	n/a	n/a	n/a	n/a	n/a	15	8	6	1	n/a	n/a	n/a	n/a	n/a
688172	PROB	n/a	LTP283	ltpFR	15	n/a	n/a	n/a	n/a	n/a	n/a	n/a	19	9	3	7	n/a	n/a	n/a	n/a	n/a
689886	PROB	n/a	LTP283	ltpFR	15	n/a	n/a	n/a	n/a	n/a	n/a	n/a	18	1	9	8	n/a	n/a	n/a	n/a	n/a
691168	PROB	n/a	LTP283	ltpFR	15	n/a	n/a	n/a	n/a	n/a	n/a	n/a	21	7	5	9	n/a	n/a	n/a	n/a	n/a
692882	PROB	n/a	LTP283	ltpFR	15	n/a	n/a	n/a	n/a	n/a	n/a	n/a	10	1	3	6	n/a	n/a	n/a	n/a	n/a
695535	STOP	n/a	LTP283	ltpFR	15	n/a	n/a	n/a	n/a	n/a	n/a	n/a	n/a	n/a	n/a	n/a	n/a	n/a	n/a	n/a	n/a
696676	WORD	wordpools/wasnorm_wordpool_less_exclusions.txt	LTP283	ltpFR	15	4	1	HANDBAG	684	n/a	n/a	0	n/a	0	0	0	0.422607421875	0.5869140625	0	upper	amplitud.ttf
699689	START	n/a	LTP283	ltpFR	15	n/a	n/a	n/a	n/a	n/a	n/a	n/a	n/a	n/a	n/a	n/a	n/a	n/a	n/a	n/a	n/a
700803	PROB	n/a	LTP283	ltpFR	15	n/a	n/a	n/a	n/a	n/a	n/a	n/a	13	1	7	5	n/a	n/a	n/a	n/a	n/a
702800	PROB	n/a	LTP283	ltpFR	15	n/a	n/a	n/a	n/a	n/a	n/a	n/a	13	6	1	6	n/a	n/a	n/a	n/a	n/a
704082	PROB	n/a	LTP283	ltpFR	15	n/a	n/a	n/a	n/a	n/a	n/a	n/a	16	3	6	7	n/a	n/a	n/a	n/a	n/a
705346	PROB	n/a	LTP283	ltpFR	15	n/a	n/a	n/a	n/a	n/a	n/a	n/a	6	1	2	3	n/a	n/a	n/a	n/a	n/a
706928	PROB	n/a	LTP283	ltpFR	15	n/a	n/a	n/a	n/a	n/a	n/a	n/a	17	5	6	6	n/a	n/a	n/a	n/a	n/a
708459	PROB	n/a	LTP283	ltpFR	15	n/a	n/a	n/a	n/a	n/a	n/a	n/a	15	5	3	7	n/a	n/a	n/a	n/a	n/a
709607	PROB	n/a	LTP283	ltpFR	15	n/a	n/a	n/a	n/a	n/a	n/a	n/a	16	4	4	8	n/a	n/a	n/a	n/a	n/a
711354	PROB	n/a	LTP283	ltpFR	15	n/a	n/a	n/a	n/a	n/a	n/a	n/a	17	8	1	8	n/a	n/a	n/a	n/a	n/a
712802	PROB	n/a	LTP283	ltpFR	15	n/a	n/a	n/a	n/a	n/a	n/a	n/a	8	6	1	1	n/a	n/a	n/a	n/a	n/a
713950	PROB	n/a	LTP283	ltpFR	15	n/a	n/a	n/a	n/a	n/a	n/a	n/a	6	3	1	2	n/a	n/a	n/a	n/a	n/a
715066	STOP	n/a	LTP283	ltpFR	15	n/a	n/a	n/a	n/a	n/a	n/a	n/a	n/a	n/a	n/a	n/a	n/a	n/a	n/a	n/a	n/a
716696	WORD	wordpools/wasnorm_wordpool_less_exclusions.txt	LTP283	ltpFR	15	4	1	JUDGE	761	n/a	n/a	1	n/a	0	0	0	0.422607421875	0.5869140625	0	upper	amplitud.ttf
719709	START	n/a	LTP283	ltpFR	15	n/a	n/a	n/a	n/a	n/a	n/a	n/a	n/a	n/a	n/a	n/a	n/a	n/a	n/a	n/a	n/a
720557	PROB	n/a	LTP283	ltpFR	15	n/a	n/a	n/a	n/a	n/a	n/a	n/a	14	5	8	1	n/a	n/a	n/a	n/a	n/a
722388	PROB	n/a	LTP283	ltpFR	15	n/a	n/a	n/a	n/a	n/a	n/a	n/a	27	9	9	9	n/a	n/a	n/a	n/a	n/a
723819	PROB	n/a	LTP283	ltpFR	15	n/a	n/a	n/a	n/a	n/a	n/a	n/a	16	6	6	4	n/a	n/a	n/a	n/a	n/a
725001	PROB	n/a	LTP283	ltpFR	15	n/a	n/a	n/a	n/a	n/a	n/a	n/a	14	4	6	4	n/a	n/a	n/a	n/a	n/a
726315	PROB	n/a	LTP283	ltpFR	15	n/a	n/a	n/a	n/a	n/a	n/a	n/a	14	4	7	3	n/a	n/a	n/a	n/a	n/a
727697	PROB	n/a	LTP283	ltpFR	15	n/a	n/a	n/a	n/a	n/a	n/a	n/a	13	1	5	7	n/a	n/a	n/a	n/a	n/a
729344	PROB	n/a	LTP283	ltpFR	15	n/a	n/a	n/a	n/a	n/a	n/a	n/a	22	8	8	6	n/a	n/a	n/a	n/a	n/a
731025	PROB	n/a	LTP283	ltpFR	15	n/a	n/a	n/a	n/a	n/a	n/a	n/a	15	9	3	3	n/a	n/a	n/a	n/a	n/a
732439	PROB	n/a	LTP283	ltpFR	15	n/a	n/a	n/a	n/a	n/a	n/a	n/a	14	9	3	2	n/a	n/a	n/a	n/a	n/a
734642	STOP	n/a	LTP283	ltpFR	15	n/a	n/a	n/a	n/a	n/a	n/a	n/a	n/a	n/a	n/a	n/a	n/a	n/a	n/a	n/a	n/a
736600	WORD	wordpools/wasnorm_wordpool_less_exclusions.txt	LTP283	ltpFR	15	4	1	ATTORNEY	58	n/a	n/a	1	n/a	0	0	0	0.422607421875	0.5869140625	0	upper	amplitud.ttf
739612	START	n/a	LTP283	ltpFR	15	n/a	n/a	n/a	n/a	n/a	n/a	n/a	n/a	n/a	n/a	n/a	n/a	n/a	n/a	n/a	n/a
740727	PROB	n/a	LTP283	ltpFR	15	n/a	n/a	n/a	n/a	n/a	n/a	n/a	22	9	6	7	n/a	n/a	n/a	n/a	n/a
743007	PROB	n/a	LTP283	ltpFR	15	n/a	n/a	n/a	n/a	n/a	n/a	n/a	12	1	6	5	n/a	n/a	n/a	n/a	n/a
744254	PROB	n/a	LTP283	ltpFR	15	n/a	n/a	n/a	n/a	n/a	n/a	n/a	21	6	7	8	n/a	n/a	n/a	n/a	n/a
747417	PROB	n/a	LTP283	ltpFR	15	n/a	n/a	n/a	n/a	n/a	n/a	n/a	11	1	2	8	n/a	n/a	n/a	n/a	n/a
748948	PROB	n/a	LTP283	ltpFR	15	n/a	n/a	n/a	n/a	n/a	n/a	n/a	14	4	3	7	n/a	n/a	n/a	n/a	n/a
750329	PROB	n/a	LTP283	ltpFR	15	n/a	n/a	n/a	n/a	n/a	n/a	n/a	17	5	9	3	n/a	n/a	n/a	n/a	n/a
752110	PROB	n/a	LTP283	ltpFR	15	n/a	n/a	n/a	n/a	n/a	n/a	n/a	14	1	9	4	n/a	n/a	n/a	n/a	n/a
753475	PROB	n/a	LTP283	ltpFR	15	n/a	n/a	n/a	n/a	n/a	n/a	n/a	20	6	9	5	n/a	n/a	n/a	n/a	n/a
754794	STOP	n/a	LTP283	ltpFR	15	n/a	n/a	n/a	n/a	n/a	n/a	n/a	n/a	n/a	n/a	n/a	n/a	n/a	n/a	n/a	n/a
756454	WORD	wordpools/wasnorm_wordpool_less_exclusions.txt	LTP283	ltpFR	15	4	1	SAILOR	1223	n/a	n/a	1	n/a	0	0	0	0.422607421875	0.5869140625	0	upper	amplitud.ttf
759466	START	n/a	LTP283	ltpFR	15	n/a	n/a	n/a	n/a	n/a	n/a	n/a	n/a	n/a	n/a	n/a	n/a	n/a	n/a	n/a	n/a
760398	PROB	n/a	LTP283	ltpFR	15	n/a	n/a	n/a	n/a	n/a	n/a	n/a	15	1	5	9	n/a	n/a	n/a	n/a	n/a
761546	PROB	n/a	LTP283	ltpFR	15	n/a	n/a	n/a	n/a	n/a	n/a	n/a	12	6	4	2	n/a	n/a	n/a	n/a	n/a
762728	PROB	n/a	LTP283	ltpFR	15	n/a	n/a	n/a	n/a	n/a	n/a	n/a	16	5	8	3	n/a	n/a	n/a	n/a	n/a
764408	PROB	n/a	LTP283	ltpFR	15	n/a	n/a	n/a	n/a	n/a	n/a	n/a	12	4	4	4	n/a	n/a	n/a	n/a	n/a
765390	PROB	n/a	LTP283	ltpFR	15	n/a	n/a	n/a	n/a	n/a	n/a	n/a	10	3	1	6	n/a	n/a	n/a	n/a	n/a
766655	PROB	n/a	LTP283	ltpFR	15	n/a	n/a	n/a	n/a	n/a	n/a	n/a	15	2	6	7	n/a	n/a	n/a	n/a	n/a
770516	PROB	n/a	LTP283	ltpFR	15	n/a	n/a	n/a	n/a	n/a	n/a	n/a	19	9	5	5	n/a	n/a	n/a	n/a	n/a
771831	PROB	n/a	LTP283	ltpFR	15	n/a	n/a	n/a	n/a	n/a	n/a	n/a	22	9	8	5	n/a	n/a	n/a	n/a	n/a
773261	PROB	n/a	LTP283	ltpFR	15	n/a	n/a	n/a	n/a	n/a	n/a	n/a	11	4	6	1	n/a	n/a	n/a	n/a	n/a
774506	STOP	n/a	LTP283	ltpFR	15	n/a	n/a	n/a	n/a	n/a	n/a	n/a	n/a	n/a	n/a	n/a	n/a	n/a	n/a	n/a	n/a
776374	WORD	wordpools/wasnorm_wordpool_less_exclusions.txt	LTP283	ltpFR	15	4	1	MAT	877	n/a	n/a	0	n/a	0	0	0	0.422607421875	0.5869140625	0	upper	amplitud.ttf
779386	START	n/a	LTP283	ltpFR	15	n/a	n/a	n/a	n/a	n/a	n/a	n/a	n/a	n/a	n/a	n/a	n/a	n/a	n/a	n/a	n/a
780335	PROB	n/a	LTP283	ltpFR	15	n/a	n/a	n/a	n/a	n/a	n/a	n/a	17	7	3	7	n/a	n/a	n/a	n/a	n/a
781566	PROB	n/a	LTP283	ltpFR	15	n/a	n/a	n/a	n/a	n/a	n/a	n/a	13	4	4	5	n/a	n/a	n/a	n/a	n/a
783546	PROB	n/a	LTP283	ltpFR	15	n/a	n/a	n/a	n/a	n/a	n/a	n/a	7	3	3	1	n/a	n/a	n/a	n/a	n/a
784795	PROB	n/a	LTP283	ltpFR	15	n/a	n/a	n/a	n/a	n/a	n/a	n/a	5	1	1	3	n/a	n/a	n/a	n/a	n/a
785810	PROB	n/a	LTP283	ltpFR	15	n/a	n/a	n/a	n/a	n/a	n/a	n/a	14	7	2	5	n/a	n/a	n/a	n/a	n/a
787740	PROB	n/a	LTP283	ltpFR	15	n/a	n/a	n/a	n/a	n/a	n/a	n/a	16	8	4	4	n/a	n/a	n/a	n/a	n/a
789288	PROB	n/a	LTP283	ltpFR	15	n/a	n/a	n/a	n/a	n/a	n/a	n/a	11	6	4	1	n/a	n/a	n/a	n/a	n/a
790453	PROB	n/a	LTP283	ltpFR	15	n/a	n/a	n/a	n/a	n/a	n/a	n/a	14	8	2	4	n/a	n/a	n/a	n/a	n/a
791834	PROB	n/a	LTP283	ltpFR	15	n/a	n/a	n/a	n/a	n/a	n/a	n/a	11	4	1	6	n/a	n/a	n/a	n/a	n/a
792999	PROB	n/a	LTP283	ltpFR	15	n/a	n/a	n/a	n/a	n/a	n/a	n/a	21	6	6	9	n/a	n/a	n/a	n/a	n/a
794370	STOP	n/a	LTP283	ltpFR	15	n/a	n/a	n/a	n/a	n/a	n/a	n/a	n/a	n/a	n/a	n/a	n/a	n/a	n/a	n/a	n/a
796560	WORD	wordpools/wasnorm_wordpool_less_exclusions.txt	LTP283	ltpFR	15	4	1	BAND	78	n/a	n/a	0	n/a	0	0	0	0.422607421875	0.5869140625	0	upper	amplitud.ttf
799573	START	n/a	LTP283	ltpFR	15	n/a	n/a	n/a	n/a	n/a	n/a	n/a	n/a	n/a	n/a	n/a	n/a	n/a	n/a	n/a	n/a
800538	PROB	n/a	LTP283	ltpFR	15	n/a	n/a	n/a	n/a	n/a	n/a	n/a	21	3	9	9	n/a	n/a	n/a	n/a	n/a
803433	PROB	n/a	LTP283	ltpFR	15	n/a	n/a	n/a	n/a	n/a	n/a	n/a	16	6	6	4	n/a	n/a	n/a	n/a	n/a
804582	PROB	n/a	LTP283	ltpFR	15	n/a	n/a	n/a	n/a	n/a	n/a	n/a	23	9	8	6	n/a	n/a	n/a	n/a	n/a
806163	PROB	n/a	LTP283	ltpFR	15	n/a	n/a	n/a	n/a	n/a	n/a	n/a	14	2	8	4	n/a	n/a	n/a	n/a	n/a
807461	PROB	n/a	LTP283	ltpFR	15	n/a	n/a	n/a	n/a	n/a	n/a	n/a	14	3	3	8	n/a	n/a	n/a	n/a	n/a
809291	PROB	n/a	LTP283	ltpFR	15	n/a	n/a	n/a	n/a	n/a	n/a	n/a	9	6	6	7	n/a	n/a	n/a	n/a	n/a
812403	PROB	n/a	LTP283	ltpFR	15	n/a	n/a	n/a	n/a	n/a	n/a	n/a	12	7	1	4	n/a	n/a	n/a	n/a	n/a
815573	STOP	n/a	LTP283	ltpFR	15	n/a	n/a	n/a	n/a	n/a	n/a	n/a	n/a	n/a	n/a	n/a	n/a	n/a	n/a	n/a	n/a
816580	WORD	wordpools/wasnorm_wordpool_less_exclusions.txt	LTP283	ltpFR	15	4	1	NOTE	958	n/a	n/a	0	n/a	0	0	0	0.422607421875	0.5869140625	0	upper	amplitud.ttf
819593	START	n/a	LTP283	ltpFR	15	n/a	n/a	n/a	n/a	n/a	n/a	n/a	n/a	n/a	n/a	n/a	n/a	n/a	n/a	n/a	n/a
820525	PROB	n/a	LTP283	ltpFR	15	n/a	n/a	n/a	n/a	n/a	n/a	n/a	17	9	7	1	n/a	n/a	n/a	n/a	n/a
822006	PROB	n/a	LTP283	ltpFR	15	n/a	n/a	n/a	n/a	n/a	n/a	n/a	10	4	1	5	n/a	n/a	n/a	n/a	n/a
823520	PROB	n/a	LTP283	ltpFR	15	n/a	n/a	n/a	n/a	n/a	n/a	n/a	19	8	8	3	n/a	n/a	n/a	n/a	n/a
825250	PROB	n/a	LTP283	ltpFR	15	n/a	n/a	n/a	n/a	n/a	n/a	n/a	17	6	2	9	n/a	n/a	n/a	n/a	n/a
826699	PROB	n/a	LTP283	ltpFR	15	n/a	n/a	n/a	n/a	n/a	n/a	n/a	12	3	7	2	n/a	n/a	n/a	n/a	n/a
827913	PROB	n/a	LTP283	ltpFR	15	n/a	n/a	n/a	n/a	n/a	n/a	n/a	13	5	4	4	n/a	n/a	n/a	n/a	n/a
830227	PROB	n/a	LTP283	ltpFR	15	n/a	n/a	n/a	n/a	n/a	n/a	n/a	18	7	7	4	n/a	n/a	n/a	n/a	n/a
831558	PROB	n/a	LTP283	ltpFR	15	n/a	n/a	n/a	n/a	n/a	n/a	n/a	15	4	2	9	n/a	n/a	n/a	n/a	n/a
833255	PROB	n/a	LTP283	ltpFR	15	n/a	n/a	n/a	n/a	n/a	n/a	n/a	15	4	6	5	n/a	n/a	n/a	n/a	n/a
834922	STOP	n/a	LTP283	ltpFR	15	n/a	n/a	n/a	n/a	n/a	n/a	n/a	n/a	n/a	n/a	n/a	n/a	n/a	n/a	n/a	n/a
836501	WORD	wordpools/wasnorm_wordpool_less_exclusions.txt	LTP283	ltpFR	15	4	1	BARRACUDA	90	n/a	n/a	1	n/a	0	0	0	0.422607421875	0.5869140625	0	upper	amplitud.ttf
839513	START	n/a	LTP283	ltpFR	15	n/a	n/a	n/a	n/a	n/a	n/a	n/a	n/a	n/a	n/a	n/a	n/a	n/a	n/a	n/a	n/a
840644	PROB	n/a	LTP283	ltpFR	15	n/a	n/a	n/a	n/a	n/a	n/a	n/a	12	2	5	5	n/a	n/a	n/a	n/a	n/a
843058	PROB	n/a	LTP283	ltpFR	15	n/a	n/a	n/a	n/a	n/a	n/a	n/a	13	1	4	8	n/a	n/a	n/a	n/a	n/a
844788	PROB	n/a	LTP283	ltpFR	15	n/a	n/a	n/a	n/a	n/a	n/a	n/a	21	5	8	8	n/a	n/a	n/a	n/a	n/a
846852	PROB	n/a	LTP283	ltpFR	15	n/a	n/a	n/a	n/a	n/a	n/a	n/a	13	4	6	3	n/a	n/a	n/a	n/a	n/a
848000	PROB	n/a	LTP283	ltpFR	15	n/a	n/a	n/a	n/a	n/a	n/a	n/a	12	5	2	5	n/a	n/a	n/a	n/a	n/a
849165	PROB	n/a	LTP283	ltpFR	15	n/a	n/a	n/a	n/a	n/a	n/a	n/a	16	7	8	1	n/a	n/a	n/a	n/a	n/a
850863	PROB	n/a	LTP283	ltpFR	15	n/a	n/a	n/a	n/a	n/a	n/a	n/a	10	3	2	5	n/a	n/a	n/a	n/a	n/a
852177	PROB	n/a	LTP283	ltpFR	15	n/a	n/a	n/a	n/a	n/a	n/a	n/a	19	8	8	3	n/a	n/a	n/a	n/a	n/a
853559	PROB	n/a	LTP283	ltpFR	15	n/a	n/a	n/a	n/a	n/a	n/a	n/a	22	5	9	8	n/a	n/a	n/a	n/a	n/a
855314	STOP	n/a	LTP283	ltpFR	15	n/a	n/a	n/a	n/a	n/a	n/a	n/a	n/a	n/a	n/a	n/a	n/a	n/a	n/a	n/a	n/a
856338	WORD	wordpools/wasnorm_wordpool_less_exclusions.txt	LTP283	ltpFR	15	4	1	HOUSE	725	n/a	n/a	0	n/a	0	0	0	0.422607421875	0.5869140625	0	upper	amplitud.ttf
859350	START	n/a	LTP283	ltpFR	15	n/a	n/a	n/a	n/a	n/a	n/a	n/a	n/a	n/a	n/a	n/a	n/a	n/a	n/a	n/a	n/a
860432	PROB	n/a	LTP283	ltpFR	15	n/a	n/a	n/a	n/a	n/a	n/a	n/a	13	9	3	1	n/a	n/a	n/a	n/a	n/a
862728	PROB	n/a	LTP283	ltpFR	15	n/a	n/a	n/a	n/a	n/a	n/a	n/a	16	7	3	6	n/a	n/a	n/a	n/a	n/a
863993	PROB	n/a	LTP283	ltpFR	15	n/a	n/a	n/a	n/a	n/a	n/a	n/a	19	6	7	6	n/a	n/a	n/a	n/a	n/a
865474	PROB	n/a	LTP283	ltpFR	15	n/a	n/a	n/a	n/a	n/a	n/a	n/a	17	6	7	4	n/a	n/a	n/a	n/a	n/a
867055	PROB	n/a	LTP283	ltpFR	15	n/a	n/a	n/a	n/a	n/a	n/a	n/a	19	7	7	5	n/a	n/a	n/a	n/a	n/a
869501	PROB	n/a	LTP283	ltpFR	15	n/a	n/a	n/a	n/a	n/a	n/a	n/a	13	3	1	9	n/a	n/a	n/a	n/a	n/a
871132	PROB	n/a	LTP283	ltpFR	15	n/a	n/a	n/a	n/a	n/a	n/a	n/a	22	9	5	9	n/a	n/a	n/a	n/a	n/a
872680	PROB	n/a	LTP283	ltpFR	15	n/a	n/a	n/a	n/a	n/a	n/a	n/a	19	9	5	5	n/a	n/a	n/a	n/a	n/a
873906	STOP	n/a	LTP283	ltpFR	15	n/a	n/a	n/a	n/a	n/a	n/a	n/a	n/a	n/a	n/a	n/a	n/a	n/a	n/a	n/a	n/a
876257	WORD	wordpools/wasnorm_wordpool_less_exclusions.txt	LTP283	ltpFR	15	4	1	TOTE	1487	n/a	n/a	0	n/a	0	0	0	0.422607421875	0.5869140625	0	upper	amplitud.ttf
879270	START	n/a	LTP283	ltpFR	15	n/a	n/a	n/a	n/a	n/a	n/a	n/a	n/a	n/a	n/a	n/a	n/a	n/a	n/a	n/a	n/a
880285	PROB	n/a	LTP283	ltpFR	15	n/a	n/a	n/a	n/a	n/a	n/a	n/a	16	4	6	6	n/a	n/a	n/a	n/a	n/a
882249	PROB	n/a	LTP283	ltpFR	15	n/a	n/a	n/a	n/a	n/a	n/a	n/a	8	1	4	3	n/a	n/a	n/a	n/a	n/a
883530	PROB	n/a	LTP283	ltpFR	15	n/a	n/a	n/a	n/a	n/a	n/a	n/a	8	2	1	5	n/a	n/a	n/a	n/a	n/a
885078	PROB	n/a	LTP283	ltpFR	15	n/a	n/a	n/a	n/a	n/a	n/a	n/a	10	3	6	1	n/a	n/a	n/a	n/a	n/a
886509	PROB	n/a	LTP283	ltpFR	15	n/a	n/a	n/a	n/a	n/a	n/a	n/a	12	5	6	1	n/a	n/a	n/a	n/a	n/a
887708	PROB	n/a	LTP283	ltpFR	15	n/a	n/a	n/a	n/a	n/a	n/a	n/a	12	2	3	7	n/a	n/a	n/a	n/a	n/a
888922	PROB	n/a	LTP283	ltpFR	15	n/a	n/a	n/a	n/a	n/a	n/a	n/a	17	4	5	8	n/a	n/a	n/a	n/a	n/a
892218	PROB	n/a	LTP283	ltpFR	15	n/a	n/a	n/a	n/a	n/a	n/a	n/a	15	7	5	3	n/a	n/a	n/a	n/a	n/a
893632	PROB	n/a	LTP283	ltpFR	15	n/a	n/a	n/a	n/a	n/a	n/a	n/a	3	1	1	1	n/a	n/a	n/a	n/a	n/a
894938	STOP	n/a	LTP283	ltpFR	15	n/a	n/a	n/a	n/a	n/a	n/a	n/a	n/a	n/a	n/a	n/a	n/a	n/a	n/a	n/a	n/a
896261	WORD	wordpools/wasnorm_wordpool_less_exclusions.txt	LTP283	ltpFR	15	4	1	TORCH	1484	n/a	n/a	0	n/a	0	0	0	0.422607421875	0.5869140625	0	upper	amplitud.ttf
899273	START	n/a	LTP283	ltpFR	15	n/a	n/a	n/a	n/a	n/a	n/a	n/a	n/a	n/a	n/a	n/a	n/a	n/a	n/a	n/a	n/a
900089	PROB	n/a	LTP283	ltpFR	15	n/a	n/a	n/a	n/a	n/a	n/a	n/a	19	7	5	7	n/a	n/a	n/a	n/a	n/a
901637	PROB	n/a	LTP283	ltpFR	15	n/a	n/a	n/a	n/a	n/a	n/a	n/a	22	7	8	7	n/a	n/a	n/a	n/a	n/a
904150	PROB	n/a	LTP283	ltpFR	15	n/a	n/a	n/a	n/a	n/a	n/a	n/a	20	9	8	3	n/a	n/a	n/a	n/a	n/a
905564	PROB	n/a	LTP283	ltpFR	15	n/a	n/a	n/a	n/a	n/a	n/a	n/a	21	5	9	7	n/a	n/a	n/a	n/a	n/a
907661	PROB	n/a	LTP283	ltpFR	15	n/a	n/a	n/a	n/a	n/a	n/a	n/a	18	7	5	6	n/a	n/a	n/a	n/a	n/a
909891	PROB	n/a	LTP283	ltpFR	15	n/a	n/a	n/a	n/a	n/a	n/a	n/a	18	2	9	7	n/a	n/a	n/a	n/a	n/a
911539	PROB	n/a	LTP283	ltpFR	15	n/a	n/a	n/a	n/a	n/a	n/a	n/a	20	5	7	8	n/a	n/a	n/a	n/a	n/a
913036	PROB	n/a	LTP283	ltpFR	15	n/a	n/a	n/a	n/a	n/a	n/a	n/a	13	4	8	1	n/a	n/a	n/a	n/a	n/a
914378	STOP	n/a	LTP283	ltpFR	15	n/a	n/a	n/a	n/a	n/a	n/a	n/a	n/a	n/a	n/a	n/a	n/a	n/a	n/a	n/a	n/a
916415	WORD	wordpools/wasnorm_wordpool_less_exclusions.txt	LTP283	ltpFR	15	4	1	SCULPTURE	1258	n/a	n/a	0	n/a	0	0	0	0.422607421875	0.5869140625	0	upper	amplitud.ttf
919427	START	n/a	LTP283	ltpFR	15	n/a	n/a	n/a	n/a	n/a	n/a	n/a	n/a	n/a	n/a	n/a	n/a	n/a	n/a	n/a	n/a
920392	PROB	n/a	LTP283	ltpFR	15	n/a	n/a	n/a	n/a	n/a	n/a	n/a	14	8	5	1	n/a	n/a	n/a	n/a	n/a
922023	PROB	n/a	LTP283	ltpFR	15	n/a	n/a	n/a	n/a	n/a	n/a	n/a	12	5	4	3	n/a	n/a	n/a	n/a	n/a
923704	PROB	n/a	LTP283	ltpFR	15	n/a	n/a	n/a	n/a	n/a	n/a	n/a	16	8	4	4	n/a	n/a	n/a	n/a	n/a
925185	PROB	n/a	LTP283	ltpFR	15	n/a	n/a	n/a	n/a	n/a	n/a	n/a	17	7	6	4	n/a	n/a	n/a	n/a	n/a
927348	PROB	n/a	LTP283	ltpFR	15	n/a	n/a	n/a	n/a	n/a	n/a	n/a	14	2	5	7	n/a	n/a	n/a	n/a	n/a
928846	PROB	n/a	LTP283	ltpFR	15	n/a	n/a	n/a	n/a	n/a	n/a	n/a	15	5	8	2	n/a	n/a	n/a	n/a	n/a
930477	PROB	n/a	LTP283	ltpFR	15	n/a	n/a	n/a	n/a	n/a	n/a	n/a	18	3	7	8	n/a	n/a	n/a	n/a	n/a
931808	PROB	n/a	LTP283	ltpFR	15	n/a	n/a	n/a	n/a	n/a	n/a	n/a	15	6	3	6	n/a	n/a	n/a	n/a	n/a
933223	PROB	n/a	LTP283	ltpFR	15	n/a	n/a	n/a	n/a	n/a	n/a	n/a	13	3	6	4	n/a	n/a	n/a	n/a	n/a
934858	STOP	n/a	LTP283	ltpFR	15	n/a	n/a	n/a	n/a	n/a	n/a	n/a	n/a	n/a	n/a	n/a	n/a	n/a	n/a	n/a	n/a
936635	WORD	wordpools/wasnorm_wordpool_less_exclusions.txt	LTP283	ltpFR	15	4	1	VESSEL	1558	n/a	n/a	0	n/a	0	0	0	0.422607421875	0.5869140625	0	upper	amplitud.ttf
939647	START	n/a	LTP283	ltpFR	15	n/a	n/a	n/a	n/a	n/a	n/a	n/a	n/a	n/a	n/a	n/a	n/a	n/a	n/a	n/a	n/a
940828	PROB	n/a	LTP283	ltpFR	15	n/a	n/a	n/a	n/a	n/a	n/a	n/a	15	6	2	7	n/a	n/a	n/a	n/a	n/a
942825	PROB	n/a	LTP283	ltpFR	15	n/a	n/a	n/a	n/a	n/a	n/a	n/a	15	5	3	7	n/a	n/a	n/a	n/a	n/a
944340	PROB	n/a	LTP283	ltpFR	15	n/a	n/a	n/a	n/a	n/a	n/a	n/a	13	2	5	6	n/a	n/a	n/a	n/a	n/a
946387	PROB	n/a	LTP283	ltpFR	15	n/a	n/a	n/a	n/a	n/a	n/a	n/a	8	1	2	5	n/a	n/a	n/a	n/a	n/a
947618	PROB	n/a	LTP283	ltpFR	15	n/a	n/a	n/a	n/a	n/a	n/a	n/a	18	9	6	3	n/a	n/a	n/a	n/a	n/a
949132	PROB	n/a	LTP283	ltpFR	15	n/a	n/a	n/a	n/a	n/a	n/a	n/a	7	3	2	2	n/a	n/a	n/a	n/a	n/a
950664	PROB	n/a	LTP283	ltpFR	15	n/a	n/a	n/a	n/a	n/a	n/a	n/a	22	6	8	8	n/a	n/a	n/a	n/a	n/a
952810	PROB	n/a	LTP283	ltpFR	15	n/a	n/a	n/a	n/a	n/a	n/a	n/a	13	3	3	7	n/a	n/a	n/a	n/a	n/a
955642	STOP	n/a	LTP283	ltpFR	15	n/a	n/a	n/a	n/a	n/a	n/a	n/a	n/a	n/a	n/a	n/a	n/a	n/a	n/a	n/a	n/a
956638	WORD	wordpools/wasnorm_wordpool_less_exclusions.txt	LTP283	ltpFR	15	4	1	VAMPIRE	1547	n/a	n/a	1	n/a	0	0	0	0.422607421875	0.5869140625	0	upper	amplitud.ttf
959651	START	n/a	LTP283	ltpFR	15	n/a	n/a	n/a	n/a	n/a	n/a	n/a	n/a	n/a	n/a	n/a	n/a	n/a	n/a	n/a	n/a
960815	PROB	n/a	LTP283	ltpFR	15	n/a	n/a	n/a	n/a	n/a	n/a	n/a	25	9	7	9	n/a	n/a	n/a	n/a	n/a
964410	PROB	n/a	LTP283	ltpFR	15	n/a	n/a	n/a	n/a	n/a	n/a	n/a	7	2	2	3	n/a	n/a	n/a	n/a	n/a
966190	PROB	n/a	LTP283	ltpFR	15	n/a	n/a	n/a	n/a	n/a	n/a	n/a	19	4	7	8	n/a	n/a	n/a	n/a	n/a
968953	PROB	n/a	LTP283	ltpFR	15	n/a	n/a	n/a	n/a	n/a	n/a	n/a	15	6	8	1	n/a	n/a	n/a	n/a	n/a
970567	PROB	n/a	LTP283	ltpFR	15	n/a	n/a	n/a	n/a	n/a	n/a	n/a	10	6	3	1	n/a	n/a	n/a	n/a	n/a
971715	PROB	n/a	LTP283	ltpFR	15	n/a	n/a	n/a	n/a	n/a	n/a	n/a	18	9	3	6	n/a	n/a	n/a	n/a	n/a
973180	PROB	n/a	LTP283	ltpFR	15	n/a	n/a	n/a	n/a	n/a	n/a	n/a	14	2	5	7	n/a	n/a	n/a	n/a	n/a
974562	STOP	n/a	LTP283	ltpFR	15	n/a	n/a	n/a	n/a	n/a	n/a	n/a	n/a	n/a	n/a	n/a	n/a	n/a	n/a	n/a	n/a
976575	WORD	wordpools/wasnorm_wordpool_less_exclusions.txt	LTP283	ltpFR	15	4	1	HEART	697	n/a	n/a	1	n/a	0	0	0	0.422607421875	0.5869140625	0	upper	amplitud.ttf
979587	START	n/a	LTP283	ltpFR	15	n/a	n/a	n/a	n/a	n/a	n/a	n/a	n/a	n/a	n/a	n/a	n/a	n/a	n/a	n/a	n/a
980552	PROB	n/a	LTP283	ltpFR	15	n/a	n/a	n/a	n/a	n/a	n/a	n/a	18	9	1	8	n/a	n/a	n/a	n/a	n/a
982632	PROB	n/a	LTP283	ltpFR	15	n/a	n/a	n/a	n/a	n/a	n/a	n/a	13	6	1	6	n/a	n/a	n/a	n/a	n/a
984147	PROB	n/a	LTP283	ltpFR	15	n/a	n/a	n/a	n/a	n/a	n/a	n/a	17	4	5	8	n/a	n/a	n/a	n/a	n/a
986161	PROB	n/a	LTP283	ltpFR	15	n/a	n/a	n/a	n/a	n/a	n/a	n/a	16	2	8	6	n/a	n/a	n/a	n/a	n/a
987841	PROB	n/a	LTP283	ltpFR	15	n/a	n/a	n/a	n/a	n/a	n/a	n/a	16	3	5	8	n/a	n/a	n/a	n/a	n/a
989439	PROB	n/a	LTP283	ltpFR	15	n/a	n/a	n/a	n/a	n/a	n/a	n/a	14	7	3	4	n/a	n/a	n/a	n/a	n/a
991053	PROB	n/a	LTP283	ltpFR	15	n/a	n/a	n/a	n/a	n/a	n/a	n/a	9	2	1	6	n/a	n/a	n/a	n/a	n/a
992250	PROB	n/a	LTP283	ltpFR	15	n/a	n/a	n/a	n/a	n/a	n/a	n/a	15	8	2	5	n/a	n/a	n/a	n/a	n/a
993483	PROB	n/a	LTP283	ltpFR	15	n/a	n/a	n/a	n/a	n/a	n/a	n/a	22	9	5	8	n/a	n/a	n/a	n/a	n/a
994858	STOP	n/a	LTP283	ltpFR	15	n/a	n/a	n/a	n/a	n/a	n/a	n/a	n/a	n/a	n/a	n/a	n/a	n/a	n/a	n/a	n/a
997527	REC_START	n/a	LTP283	ltpFR	15	4	n/a	n/a	n/a	n/a	n/a	n/a	n/a	0	0	0	n/a	n/a	n/a	n/a	n/a
999438	REC_WORD	wordpools/wasnorm_wordpool_less_exclusions.txt	LTP283	ltpFR	15	4	1	VAMPIRE	1547	n/a	n/a	1	n/a	0	0	0	n/a	n/a	n/a	n/a	n/a
1000363	REC_WORD	wordpools/wasnorm_wordpool_less_exclusions.txt	LTP283	ltpFR	15	4	1	HEART	697	n/a	n/a	1	n/a	0	0	0	n/a	n/a	n/a	n/a	n/a
1001538	REC_WORD	wordpools/wasnorm_wordpool_less_exclusions.txt	LTP283	ltpFR	15	4	1	VESSEL	1558	n/a	n/a	0	n/a	0	0	0	n/a	n/a	n/a	n/a	n/a
1002638	REC_WORD	wordpools/wasnorm_wordpool_less_exclusions.txt	LTP283	ltpFR	15	4	n/a	PIRATE	1074	n/a	n/a	n/a	n/a	0	0	0	n/a	n/a	n/a	n/a	n/a
1004069	REC_WORD	wordpools/wasnorm_wordpool_less_exclusions.txt	LTP283	ltpFR	15	4	1	SCALLOP	1242	n/a	n/a	1	n/a	0	0	0	n/a	n/a	n/a	n/a	n/a
1006553	REC_WORD	wordpools/wasnorm_wordpool_less_exclusions.txt	LTP283	ltpFR	15	4	1	BARRACUDA	90	n/a	n/a	1	n/a	0	0	0	n/a	n/a	n/a	n/a	n/a
1008282	REC_WORD	wordpools/wasnorm_wordpool_less_exclusions.txt	LTP283	ltpFR	15	4	1	MAT	877	n/a	n/a	0	n/a	0	0	0	n/a	n/a	n/a	n/a	n/a
1010071	REC_WORD	wordpools/wasnorm_wordpool_less_exclusions.txt	LTP283	ltpFR	15	4	1	TORCH	1484	n/a	n/a	0	n/a	0	0	0	n/a	n/a	n/a	n/a	n/a
1012344	REC_WORD	wordpools/wasnorm_wordpool_less_exclusions.txt	LTP283	ltpFR	15	4	1	SCULPTURE	1258	n/a	n/a	0	n/a	0	0	0	n/a	n/a	n/a	n/a	n/a
1013344	REC_WORD_VV	wordpools/wasnorm_wordpool_less_exclusions.txt	LTP283	ltpFR	15	4	n/a	<>	-1	n/a	n/a	n/a	n/a	0	0	0	n/a	n/a	n/a	n/a	n/a
1014344	REC_WORD_VV	wordpools/wasnorm_wordpool_less_exclusions.txt	LTP283	ltpFR	15	4	n/a	<>	-1	n/a	n/a	n/a	n/a	0	0	0	n/a	n/a	n/a	n/a	n/a
1019604	REC_WORD	wordpools/wasnorm_wordpool_less_exclusions.txt	LTP283	ltpFR	15	4	1	TOTE	1487	n/a	n/a	0	n/a	0	0	0	n/a	n/a	n/a	n/a	n/a
1022099	REC_WORD	wordpools/wasnorm_wordpool_less_exclusions.txt	LTP283	ltpFR	15	4	1	HANDBAG	684	n/a	n/a	0	n/a	0	0	0	n/a	n/a	n/a	n/a	n/a
1023653	REC_WORD	wordpools/wasnorm_wordpool_less_exclusions.txt	LTP283	ltpFR	15	4	1	ATTORNEY	58	n/a	n/a	1	n/a	0	0	0	n/a	n/a	n/a	n/a	n/a
1025084	REC_WORD	wordpools/wasnorm_wordpool_less_exclusions.txt	LTP283	ltpFR	15	4	1	JUDGE	761	n/a	n/a	1	n/a	0	0	0	n/a	n/a	n/a	n/a	n/a
1034494	REC_WORD	wordpools/wasnorm_wordpool_less_exclusions.txt	LTP283	ltpFR	15	4	1	HOUSE	725	n/a	n/a	0	n/a	0	0	0	n/a	n/a	n/a	n/a	n/a
1076526	WORD	wordpools/wasnorm_wordpool_less_exclusions.txt	LTP283	ltpFR	15	5	1	SHIP	1286	n/a	n/a	0	n/a	0	0	0	0.422607421875	0.5869140625	0	upper	amplitud.ttf
1080520	WORD	wordpools/wasnorm_wordpool_less_exclusions.txt	LTP283	ltpFR	15	5	1	GORILLA	650	n/a	n/a	1	n/a	0	0	0	0.422607421875	0.5869140625	0	upper	amplitud.ttf
1084680	WORD	wordpools/wasnorm_wordpool_less_exclusions.txt	LTP283	ltpFR	15	5	0	SPAGHETTI	1346	n/a	n/a	0	n/a	0	0	0	0.57763671875	0.412841796875	1	lower	zerothre.ttf
1088591	WORD	wordpools/wasnorm_wordpool_less_exclusions.txt	LTP283	ltpFR	15	5	0	BUG	187	n/a	n/a	0	n/a	0	0	0	0.57763671875	0.412841796875	1	lower	zerothre.ttf
1092735	WORD	wordpools/wasnorm_wordpool_less_exclusions.txt	LTP283	ltpFR	15	5	0	MOTH	920	n/a	n/a	0	n/a	0	0	0	0.57763671875	0.412841796875	1	lower	zerothre.ttf
1096845	WORD	wordpools/wasnorm_wordpool_less_exclusions.txt	LTP283	ltpFR	15	5	0	MULE	931	n/a	n/a	0	n/a	0	0	0	0.57763671875	0.412841796875	1	lower	zerothre.ttf
1100740	WORD	wordpools/wasnorm_wordpool_less_exclusions.txt	LTP283	ltpFR	15	5	1	HOOK	715	n/a	n/a	0	n/a	0	0	0	0.422607421875	0.5869140625	0	upper	amplitud.ttf
1104667	WORD	wordpools/wasnorm_wordpool_less_exclusions.txt	LTP283	ltpFR	15	5	1	OAR	966	n/a	n/a	0	n/a	0	0	0	0.422607421875	0.5869140625	0	upper	amplitud.ttf
1108544	WORD	wordpools/wasnorm_wordpool_less_exclusions.txt	LTP283	ltpFR	15	5	0	OX	994	n/a	n/a	1	n/a	0	0	0	0.57763671875	0.412841796875	1	lower	zerothre.ttf
1112372	WORD	wordpools/wasnorm_wordpool_less_exclusions.txt	LTP283	ltpFR	15	5	0	OWL	992	n/a	n/a	1	n/a	0	0	0	0.57763671875	0.412841796875	1	lower	zerothre.ttf
1116383	WORD	wordpools/wasnorm_wordpool_less_exclusions.txt	LTP283	ltpFR	15	5	0	FEATHER	557	n/a	n/a	0	n/a	0	0	0	0.57763671875	0.412841796875	1	lower	zerothre.ttf
1120244	WORD	wordpools/wasnorm_wordpool_less_exclusions.txt	LTP283	ltpFR	15	5	0	FLIPPER	580	n/a	n/a	0	n/a	0	0	0	0.57763671875	0.412841796875	1	lower	zerothre.ttf
1124288	WORD	wordpools/wasnorm_wordpool_less_exclusions.txt	LTP283	ltpFR	15	5	1	SEAFOOD	1260	n/a	n/a	0	n/a	0	0	0	0.422607421875	0.5869140625	0	upper	amplitud.ttf
1128365	WORD	wordpools/wasnorm_wordpool_less_exclusions.txt	LTP283	ltpFR	15	5	1	SHELL	1281	n/a	n/a	0	n/a	0	0	0	0.422607421875	0.5869140625	0	upper	amplitud.ttf
1132242	WORD	wordpools/wasnorm_wordpool_less_exclusions.txt	LTP283	ltpFR	15	5	1	BULLY	196	n/a	n/a	1	n/a	0	0	0	0.422607421875	0.5869140625	0	upper	amplitud.ttf
1136203	WORD	wordpools/wasnorm_wordpool_less_exclusions.txt	LTP283	ltpFR	15	5	1	STEAM	1375	n/a	n/a	0	n/a	0	0	0	0.422607421875	0.5869140625	0	upper	amplitud.ttf
1139216	START	n/a	LTP283	ltpFR	15	n/a	n/a	n/a	n/a	n/a	n/a	n/a	n/a	n/a	n/a	n/a	n/a	n/a	n/a	n/a	n/a
1140181	PROB	n/a	LTP283	ltpFR	15	n/a	n/a	n/a	n/a	n/a	n/a	n/a	10	3	2	5	n/a	n/a	n/a	n/a	n/a
1141745	PROB	n/a	LTP283	ltpFR	15	n/a	n/a	n/a	n/a	n/a	n/a	n/a	12	2	4	6	n/a	n/a	n/a	n/a	n/a
1143143	PROB	n/a	LTP283	ltpFR	15	n/a	n/a	n/a	n/a	n/a	n/a	n/a	11	6	4	1	n/a	n/a	n/a	n/a	n/a
1144341	PROB	n/a	LTP283	ltpFR	15	n/a	n/a	n/a	n/a	n/a	n/a	n/a	20	5	6	9	n/a	n/a	n/a	n/a	n/a
1145556	PROB	n/a	LTP283	ltpFR	15	n/a	n/a	n/a	n/a	n/a	n/a	n/a	8	2	2	4	n/a	n/a	n/a	n/a	n/a
1146682	STOP	n/a	LTP283	ltpFR	15	n/a	n/a	n/a	n/a	n/a	n/a	n/a	n/a	n/a	n/a	n/a	n/a	n/a	n/a	n/a	n/a
1149134	REC_START	n/a	LTP283	ltpFR	15	5	n/a	n/a	n/a	n/a	n/a	n/a	n/a	0	0	0	n/a	n/a	n/a	n/a	n/a
1151658	REC_WORD	wordpools/wasnorm_wordpool_less_exclusions.txt	LTP283	ltpFR	15	5	1	STEAM	1375	n/a	n/a	0	n/a	0	0	0	n/a	n/a	n/a	n/a	n/a
1153116	REC_WORD	wordpools/wasnorm_wordpool_less_exclusions.txt	LTP283	ltpFR	15	5	1	BULLY	196	n/a	n/a	1	n/a	0	0	0	n/a	n/a	n/a	n/a	n/a
1154035	REC_WORD	wordpools/wasnorm_wordpool_less_exclusions.txt	LTP283	ltpFR	15	5	1	HOOK	715	n/a	n/a	0	n/a	0	0	0	n/a	n/a	n/a	n/a	n/a
1155160	REC_WORD	wordpools/wasnorm_wordpool_less_exclusions.txt	LTP283	ltpFR	15	5	1	SEAFOOD	1260	n/a	n/a	0	n/a	0	0	0	n/a	n/a	n/a	n/a	n/a
1156229	REC_WORD	wordpools/wasnorm_wordpool_less_exclusions.txt	LTP283	ltpFR	15	5	1	SHELL	1281	n/a	n/a	0	n/a	0	0	0	n/a	n/a	n/a	n/a	n/a
1157858	REC_WORD	wordpools/wasnorm_wordpool_less_exclusions.txt	LTP283	ltpFR	15	5	0	OX	994	n/a	n/a	1	n/a	0	0	0	n/a	n/a	n/a	n/a	n/a
1158873	REC_WORD	wordpools/wasnorm_wordpool_less_exclusions.txt	LTP283	ltpFR	15	5	0	MULE	931	n/a	n/a	0	n/a	0	0	0	n/a	n/a	n/a	n/a	n/a
1159779	REC_WORD	wordpools/wasnorm_wordpool_less_exclusions.txt	LTP283	ltpFR	15	5	0	FEATHER	557	n/a	n/a	0	n/a	0	0	0	n/a	n/a	n/a	n/a	n/a
1161018	REC_WORD	wordpools/wasnorm_wordpool_less_exclusions.txt	LTP283	ltpFR	15	5	0	OWL	992	n/a	n/a	1	n/a	0	0	0	n/a	n/a	n/a	n/a	n/a
1162097	REC_WORD	wordpools/wasnorm_wordpool_less_exclusions.txt	LTP283	ltpFR	15	5	1	GORILLA	650	n/a	n/a	1	n/a	0	0	0	n/a	n/a	n/a	n/a	n/a
1165513	REC_WORD	wordpools/wasnorm_wordpool_less_exclusions.txt	LTP283	ltpFR	15	5	0	SPAGHETTI	1346	n/a	n/a	0	n/a	0	0	0	n/a	n/a	n/a	n/a	n/a
1168160	REC_WORD	wordpools/wasnorm_wordpool_less_exclusions.txt	LTP283	ltpFR	15	5	0	MOTH	920	n/a	n/a	0	n/a	0	0	0	n/a	n/a	n/a	n/a	n/a
1185469	REC_WORD	wordpools/wasnorm_wordpool_less_exclusions.txt	LTP283	ltpFR	15	5	1	OAR	966	n/a	n/a	0	n/a	0	0	0	n/a	n/a	n/a	n/a	n/a
1225836	START	n/a	LTP283	ltpFR	15	n/a	n/a	n/a	n/a	n/a	n/a	n/a	n/a	n/a	n/a	n/a	n/a	n/a	n/a	n/a	n/a
1227350	PROB	n/a	LTP283	ltpFR	15	n/a	n/a	n/a	n/a	n/a	n/a	n/a	12	3	8	1	n/a	n/a	n/a	n/a	n/a
1228599	PROB	n/a	LTP283	ltpFR	15	n/a	n/a	n/a	n/a	n/a	n/a	n/a	22	5	9	7	n/a	n/a	n/a	n/a	n/a
1230596	PROB	n/a	LTP283	ltpFR	15	n/a	n/a	n/a	n/a	n/a	n/a	n/a	6	3	1	2	n/a	n/a	n/a	n/a	n/a
1232010	PROB	n/a	LTP283	ltpFR	15	n/a	n/a	n/a	n/a	n/a	n/a	n/a	17	6	5	6	n/a	n/a	n/a	n/a	n/a
1233618	STOP	n/a	LTP283	ltpFR	15	n/a	n/a	n/a	n/a	n/a	n/a	n/a	n/a	n/a	n/a	n/a	n/a	n/a	n/a	n/a	n/a
1234723	WORD	wordpools/wasnorm_wordpool_less_exclusions.txt	LTP283	ltpFR	15	6	0	CHEERLEADER	288	n/a	n/a	1	n/a	0	0	0	0.57763671875	0.412841796875	1	lower	zerothre.ttf
1237735	START	n/a	LTP283	ltpFR	15	n/a	n/a	n/a	n/a	n/a	n/a	n/a	n/a	n/a	n/a	n/a	n/a	n/a	n/a	n/a	n/a
1238850	PROB	n/a	LTP283	ltpFR	15	n/a	n/a	n/a	n/a	n/a	n/a	n/a	20	9	9	2	n/a	n/a	n/a	n/a	n/a
1240032	PROB	n/a	LTP283	ltpFR	15	n/a	n/a	n/a	n/a	n/a	n/a	n/a	18	8	4	6	n/a	n/a	n/a	n/a	n/a
1241363	PROB	n/a	LTP283	ltpFR	15	n/a	n/a	n/a	n/a	n/a	n/a	n/a	10	1	7	2	n/a	n/a	n/a	n/a	n/a
1242611	PROB	n/a	LTP283	ltpFR	15	n/a	n/a	n/a	n/a	n/a	n/a	n/a	10	1	2	7	n/a	n/a	n/a	n/a	n/a
1243826	PROB	n/a	LTP283	ltpFR	15	n/a	n/a	n/a	n/a	n/a	n/a	n/a	15	5	2	8	n/a	n/a	n/a	n/a	n/a
1244898	STOP	n/a	LTP283	ltpFR	15	n/a	n/a	n/a	n/a	n/a	n/a	n/a	n/a	n/a	n/a	n/a	n/a	n/a	n/a	n/a	n/a
1246605	WORD	wordpools/wasnorm_wordpool_less_exclusions.txt	LTP283	ltpFR	15	6	0	COLT	349	n/a	n/a	1	n/a	0	0	0	0.57763671875	0.412841796875	1	lower	zerothre.ttf
1249618	START	n/a	LTP283	ltpFR	15	n/a	n/a	n/a	n/a	n/a	n/a	n/a	n/a	n/a	n/a	n/a	n/a	n/a	n/a	n/a	n/a
1250699	PROB	n/a	LTP283	ltpFR	15	n/a	n/a	n/a	n/a	n/a	n/a	n/a	13	6	1	6	n/a	n/a	n/a	n/a	n/a
1251914	PROB	n/a	LTP283	ltpFR	15	n/a	n/a	n/a	n/a	n/a	n/a	n/a	10	1	5	4	n/a	n/a	n/a	n/a	n/a
1253029	PROB	n/a	LTP283	ltpFR	15	n/a	n/a	n/a	n/a	n/a	n/a	n/a	19	6	9	7	n/a	n/a	n/a	n/a	n/a
1255625	PROB	n/a	LTP283	ltpFR	15	n/a	n/a	n/a	n/a	n/a	n/a	n/a	17	7	5	5	n/a	n/a	n/a	n/a	n/a
1256730	STOP	n/a	LTP283	ltpFR	15	n/a	n/a	n/a	n/a	n/a	n/a	n/a	n/a	n/a	n/a	n/a	n/a	n/a	n/a	n/a	n/a
1258687	WORD	wordpools/wasnorm_wordpool_less_exclusions.txt	LTP283	ltpFR	15	6	1	JUGGLER	763	n/a	n/a	1	n/a	0	0	0	0.422607421875	0.5869140625	0	upper	amplitud.ttf
1261700	START	n/a	LTP283	ltpFR	15	n/a	n/a	n/a	n/a	n/a	n/a	n/a	n/a	n/a	n/a	n/a	n/a	n/a	n/a	n/a	n/a
1262681	PROB	n/a	LTP283	ltpFR	15	n/a	n/a	n/a	n/a	n/a	n/a	n/a	12	3	6	3	n/a	n/a	n/a	n/a	n/a
1264412	PROB	n/a	LTP283	ltpFR	15	n/a	n/a	n/a	n/a	n/a	n/a	n/a	13	2	8	3	n/a	n/a	n/a	n/a	n/a
1265793	PROB	n/a	LTP283	ltpFR	15	n/a	n/a	n/a	n/a	n/a	n/a	n/a	10	1	8	1	n/a	n/a	n/a	n/a	n/a
1269700	STOP	n/a	LTP283	ltpFR	15	n/a	n/a	n/a	n/a	n/a	n/a	n/a	n/a	n/a	n/a	n/a	n/a	n/a	n/a	n/a	n/a
1270702	WORD	wordpools/wasnorm_wordpool_less_exclusions.txt	LTP283	ltpFR	15	6	1	SHEET	1279	n/a	n/a	0	n/a	0	0	0	0.422607421875	0.5869140625	0	upper	amplitud.ttf
1273715	START	n/a	LTP283	ltpFR	15	n/a	n/a	n/a	n/a	n/a	n/a	n/a	n/a	n/a	n/a	n/a	n/a	n/a	n/a	n/a	n/a
1274813	PROB	n/a	LTP283	ltpFR	15	n/a	n/a	n/a	n/a	n/a	n/a	n/a	17	6	6	5	n/a	n/a	n/a	n/a	n/a
1276810	PROB	n/a	LTP283	ltpFR	15	n/a	n/a	n/a	n/a	n/a	n/a	n/a	16	6	8	2	n/a	n/a	n/a	n/a	n/a
1278224	PROB	n/a	LTP283	ltpFR	15	n/a	n/a	n/a	n/a	n/a	n/a	n/a	20	7	8	5	n/a	n/a	n/a	n/a	n/a
1281715	STOP	n/a	LTP283	ltpFR	15	n/a	n/a	n/a	n/a	n/a	n/a	n/a	n/a	n/a	n/a	n/a	n/a	n/a	n/a	n/a	n/a
1282884	WORD	wordpools/wasnorm_wordpool_less_exclusions.txt	LTP283	ltpFR	15	6	1	SCROLL	1257	n/a	n/a	0	n/a	0	0	0	0.422607421875	0.5869140625	0	upper	amplitud.ttf
1285897	START	n/a	LTP283	ltpFR	15	n/a	n/a	n/a	n/a	n/a	n/a	n/a	n/a	n/a	n/a	n/a	n/a	n/a	n/a	n/a	n/a
1286912	PROB	n/a	LTP283	ltpFR	15	n/a	n/a	n/a	n/a	n/a	n/a	n/a	15	7	6	2	n/a	n/a	n/a	n/a	n/a
1289075	PROB	n/a	LTP283	ltpFR	15	n/a	n/a	n/a	n/a	n/a	n/a	n/a	11	6	4	1	n/a	n/a	n/a	n/a	n/a
1290190	PROB	n/a	LTP283	ltpFR	15	n/a	n/a	n/a	n/a	n/a	n/a	n/a	11	3	5	3	n/a	n/a	n/a	n/a	n/a
1293897	STOP	n/a	LTP283	ltpFR	15	n/a	n/a	n/a	n/a	n/a	n/a	n/a	n/a	n/a	n/a	n/a	n/a	n/a	n/a	n/a	n/a
1294816	WORD	wordpools/wasnorm_wordpool_less_exclusions.txt	LTP283	ltpFR	15	6	1	SICKLE	1302	n/a	n/a	0	n/a	0	0	0	0.422607421875	0.5869140625	0	upper	amplitud.ttf
1297829	START	n/a	LTP283	ltpFR	15	n/a	n/a	n/a	n/a	n/a	n/a	n/a	n/a	n/a	n/a	n/a	n/a	n/a	n/a	n/a	n/a
1298993	PROB	n/a	LTP283	ltpFR	15	n/a	n/a	n/a	n/a	n/a	n/a	n/a	15	3	9	3	n/a	n/a	n/a	n/a	n/a
1300491	PROB	n/a	LTP283	ltpFR	15	n/a	n/a	n/a	n/a	n/a	n/a	n/a	18	5	9	4	n/a	n/a	n/a	n/a	n/a
1302605	PROB	n/a	LTP283	ltpFR	15	n/a	n/a	n/a	n/a	n/a	n/a	n/a	14	3	5	6	n/a	n/a	n/a	n/a	n/a
1304434	STOP	n/a	LTP283	ltpFR	15	n/a	n/a	n/a	n/a	n/a	n/a	n/a	n/a	n/a	n/a	n/a	n/a	n/a	n/a	n/a	n/a
1306665	WORD	wordpools/wasnorm_wordpool_less_exclusions.txt	LTP283	ltpFR	15	6	1	COOK	372	n/a	n/a	1	n/a	0	0	0	0.422607421875	0.5869140625	0	upper	amplitud.ttf
1309678	START	n/a	LTP283	ltpFR	15	n/a	n/a	n/a	n/a	n/a	n/a	n/a	n/a	n/a	n/a	n/a	n/a	n/a	n/a	n/a	n/a
1310876	PROB	n/a	LTP283	ltpFR	15	n/a	n/a	n/a	n/a	n/a	n/a	n/a	14	4	2	8	n/a	n/a	n/a	n/a	n/a
1312340	PROB	n/a	LTP283	ltpFR	15	n/a	n/a	n/a	n/a	n/a	n/a	n/a	12	2	1	9	n/a	n/a	n/a	n/a	n/a
1313522	PROB	n/a	LTP283	ltpFR	15	n/a	n/a	n/a	n/a	n/a	n/a	n/a	21	5	9	7	n/a	n/a	n/a	n/a	n/a
1316386	STOP	n/a	LTP283	ltpFR	15	n/a	n/a	n/a	n/a	n/a	n/a	n/a	n/a	n/a	n/a	n/a	n/a	n/a	n/a	n/a	n/a
1318498	WORD	wordpools/wasnorm_wordpool_less_exclusions.txt	LTP283	ltpFR	15	6	1	SINK	1309	n/a	n/a	0	n/a	0	0	0	0.422607421875	0.5869140625	0	upper	amplitud.ttf
1321510	START	n/a	LTP283	ltpFR	15	n/a	n/a	n/a	n/a	n/a	n/a	n/a	n/a	n/a	n/a	n/a	n/a	n/a	n/a	n/a	n/a
1322375	PROB	n/a	LTP283	ltpFR	15	n/a	n/a	n/a	n/a	n/a	n/a	n/a	16	1	9	6	n/a	n/a	n/a	n/a	n/a
1323856	PROB	n/a	LTP283	ltpFR	15	n/a	n/a	n/a	n/a	n/a	n/a	n/a	17	3	8	6	n/a	n/a	n/a	n/a	n/a
1326436	PROB	n/a	LTP283	ltpFR	15	n/a	n/a	n/a	n/a	n/a	n/a	n/a	14	5	7	1	n/a	n/a	n/a	n/a	n/a
1328682	STOP	n/a	LTP283	ltpFR	15	n/a	n/a	n/a	n/a	n/a	n/a	n/a	n/a	n/a	n/a	n/a	n/a	n/a	n/a	n/a	n/a
1330380	WORD	wordpools/wasnorm_wordpool_less_exclusions.txt	LTP283	ltpFR	15	6	0	BARLEY	88	n/a	n/a	0	n/a	0	0	0	0.57763671875	0.412841796875	1	lower	zerothre.ttf
1333393	START	n/a	LTP283	ltpFR	15	n/a	n/a	n/a	n/a	n/a	n/a	n/a	n/a	n/a	n/a	n/a	n/a	n/a	n/a	n/a	n/a
1334224	PROB	n/a	LTP283	ltpFR	15	n/a	n/a	n/a	n/a	n/a	n/a	n/a	14	3	2	9	n/a	n/a	n/a	n/a	n/a
1335922	PROB	n/a	LTP283	ltpFR	15	n/a	n/a	n/a	n/a	n/a	n/a	n/a	19	6	7	6	n/a	n/a	n/a	n/a	n/a
1337702	PROB	n/a	LTP283	ltpFR	15	n/a	n/a	n/a	n/a	n/a	n/a	n/a	18	6	4	8	n/a	n/a	n/a	n/a	n/a
1338951	PROB	n/a	LTP283	ltpFR	15	n/a	n/a	n/a	n/a	n/a	n/a	n/a	8	5	1	2	n/a	n/a	n/a	n/a	n/a
1340122	STOP	n/a	LTP283	ltpFR	15	n/a	n/a	n/a	n/a	n/a	n/a	n/a	n/a	n/a	n/a	n/a	n/a	n/a	n/a	n/a	n/a
1342462	WORD	wordpools/wasnorm_wordpool_less_exclusions.txt	LTP283	ltpFR	15	6	0	GLASSES	640	n/a	n/a	0	n/a	0	0	0	0.57763671875	0.412841796875	1	lower	zerothre.ttf
1345474	START	n/a	LTP283	ltpFR	15	n/a	n/a	n/a	n/a	n/a	n/a	n/a	n/a	n/a	n/a	n/a	n/a	n/a	n/a	n/a	n/a
1346656	PROB	n/a	LTP283	ltpFR	15	n/a	n/a	n/a	n/a	n/a	n/a	n/a	14	6	3	5	n/a	n/a	n/a	n/a	n/a
1348569	PROB	n/a	LTP283	ltpFR	15	n/a	n/a	n/a	n/a	n/a	n/a	n/a	21	5	7	9	n/a	n/a	n/a	n/a	n/a
1351399	PROB	n/a	LTP283	ltpFR	15	n/a	n/a	n/a	n/a	n/a	n/a	n/a	8	5	2	1	n/a	n/a	n/a	n/a	n/a
1352434	STOP	n/a	LTP283	ltpFR	15	n/a	n/a	n/a	n/a	n/a	n/a	n/a	n/a	n/a	n/a	n/a	n/a	n/a	n/a	n/a	n/a
1354461	WORD	wordpools/wasnorm_wordpool_less_exclusions.txt	LTP283	ltpFR	15	6	1	FACE	547	n/a	n/a	1	n/a	0	0	0	0.422607421875	0.5869140625	0	upper	amplitud.ttf
1357473	START	n/a	LTP283	ltpFR	15	n/a	n/a	n/a	n/a	n/a	n/a	n/a	n/a	n/a	n/a	n/a	n/a	n/a	n/a	n/a	n/a
1358588	PROB	n/a	LTP283	ltpFR	15	n/a	n/a	n/a	n/a	n/a	n/a	n/a	8	5	1	2	n/a	n/a	n/a	n/a	n/a
1359719	PROB	n/a	LTP283	ltpFR	15	n/a	n/a	n/a	n/a	n/a	n/a	n/a	11	8	1	2	n/a	n/a	n/a	n/a	n/a
1361167	PROB	n/a	LTP283	ltpFR	15	n/a	n/a	n/a	n/a	n/a	n/a	n/a	18	8	1	9	n/a	n/a	n/a	n/a	n/a
1362981	PROB	n/a	LTP283	ltpFR	15	n/a	n/a	n/a	n/a	n/a	n/a	n/a	13	3	5	5	n/a	n/a	n/a	n/a	n/a
1364282	STOP	n/a	LTP283	ltpFR	15	n/a	n/a	n/a	n/a	n/a	n/a	n/a	n/a	n/a	n/a	n/a	n/a	n/a	n/a	n/a	n/a
1366359	WORD	wordpools/wasnorm_wordpool_less_exclusions.txt	LTP283	ltpFR	15	6	1	SHOWER	1296	n/a	n/a	0	n/a	0	0	0	0.422607421875	0.5869140625	0	upper	amplitud.ttf
1369372	START	n/a	LTP283	ltpFR	15	n/a	n/a	n/a	n/a	n/a	n/a	n/a	n/a	n/a	n/a	n/a	n/a	n/a	n/a	n/a	n/a
1370470	PROB	n/a	LTP283	ltpFR	15	n/a	n/a	n/a	n/a	n/a	n/a	n/a	17	5	6	6	n/a	n/a	n/a	n/a	n/a
1372151	PROB	n/a	LTP283	ltpFR	15	n/a	n/a	n/a	n/a	n/a	n/a	n/a	16	2	7	7	n/a	n/a	n/a	n/a	n/a
1373699	PROB	n/a	LTP283	ltpFR	15	n/a	n/a	n/a	n/a	n/a	n/a	n/a	112	3	5	4	n/a	n/a	n/a	n/a	n/a
1376698	STOP	n/a	LTP283	ltpFR	15	n/a	n/a	n/a	n/a	n/a	n/a	n/a	n/a	n/a	n/a	n/a	n/a	n/a	n/a	n/a	n/a
1378558	WORD	wordpools/wasnorm_wordpool_less_exclusions.txt	LTP283	ltpFR	15	6	0	STOVE	1388	n/a	n/a	n/a	n/a	0	0	0	0.57763671875	0.412841796875	1	lower	zerothre.ttf
1381587	SLOW_MSG	n/a	LTP283	ltpFR	15	6	n/a	n/a	n/a	n/a	n/a	n/a	n/a	0	0	0	n/a	n/a	n/a	n/a	n/a
1383118	START	n/a	LTP283	ltpFR	15	n/a	n/a	n/a	n/a	n/a	n/a	n/a	n/a	n/a	n/a	n/a	n/a	n/a	n/a	n/a	n/a
1383950	PROB	n/a	LTP283	ltpFR	15	n/a	n/a	n/a	n/a	n/a	n/a	n/a	18	7	7	4	n/a	n/a	n/a	n/a	n/a
1385548	PROB	n/a	LTP283	ltpFR	15	n/a	n/a	n/a	n/a	n/a	n/a	n/a	17	8	8	1	n/a	n/a	n/a	n/a	n/a
1387228	PROB	n/a	LTP283	ltpFR	15	n/a	n/a	n/a	n/a	n/a	n/a	n/a	13	3	5	5	n/a	n/a	n/a	n/a	n/a
1388460	PROB	n/a	LTP283	ltpFR	15	n/a	n/a	n/a	n/a	n/a	n/a	n/a	20	8	3	9	n/a	n/a	n/a	n/a	n/a
1389842	STOP	n/a	LTP283	ltpFR	15	n/a	n/a	n/a	n/a	n/a	n/a	n/a	n/a	n/a	n/a	n/a	n/a	n/a	n/a	n/a	n/a
1392088	WORD	wordpools/wasnorm_wordpool_less_exclusions.txt	LTP283	ltpFR	15	6	0	CURTAIN	427	n/a	n/a	1	n/a	0	0	0	0.57763671875	0.412841796875	1	lower	zerothre.ttf
1395100	START	n/a	LTP283	ltpFR	15	n/a	n/a	n/a	n/a	n/a	n/a	n/a	n/a	n/a	n/a	n/a	n/a	n/a	n/a	n/a	n/a
1396264	PROB	n/a	LTP283	ltpFR	15	n/a	n/a	n/a	n/a	n/a	n/a	n/a	23	9	7	9	n/a	n/a	n/a	n/a	n/a
1399493	PROB	n/a	LTP283	ltpFR	15	n/a	n/a	n/a	n/a	n/a	n/a	n/a	12	8	3	1	n/a	n/a	n/a	n/a	n/a
1400958	PROB	n/a	LTP283	ltpFR	15	n/a	n/a	n/a	n/a	n/a	n/a	n/a	14	5	2	7	n/a	n/a	n/a	n/a	n/a
1402674	STOP	n/a	LTP283	ltpFR	15	n/a	n/a	n/a	n/a	n/a	n/a	n/a	n/a	n/a	n/a	n/a	n/a	n/a	n/a	n/a	n/a
1404286	WORD	wordpools/wasnorm_wordpool_less_exclusions.txt	LTP283	ltpFR	15	6	0	SHORE	1291	n/a	n/a	1	n/a	0	0	0	0.57763671875	0.412841796875	1	lower	zerothre.ttf
1407299	START	n/a	LTP283	ltpFR	15	n/a	n/a	n/a	n/a	n/a	n/a	n/a	n/a	n/a	n/a	n/a	n/a	n/a	n/a	n/a	n/a
1408447	PROB	n/a	LTP283	ltpFR	15	n/a	n/a	n/a	n/a	n/a	n/a	n/a	7	2	2	3	n/a	n/a	n/a	n/a	n/a
1410194	PROB	n/a	LTP283	ltpFR	15	n/a	n/a	n/a	n/a	n/a	n/a	n/a	15	2	7	6	n/a	n/a	n/a	n/a	n/a
1412657	PROB	n/a	LTP283	ltpFR	15	n/a	n/a	n/a	n/a	n/a	n/a	n/a	19	7	9	3	n/a	n/a	n/a	n/a	n/a
1413986	STOP	n/a	LTP283	ltpFR	15	n/a	n/a	n/a	n/a	n/a	n/a	n/a	n/a	n/a	n/a	n/a	n/a	n/a	n/a	n/a	n/a
1416218	WORD	wordpools/wasnorm_wordpool_less_exclusions.txt	LTP283	ltpFR	15	6	0	MOAT	903	n/a	n/a	1	n/a	0	0	0	0.57763671875	0.412841796875	1	lower	zerothre.ttf
1419231	START	n/a	LTP283	ltpFR	15	n/a	n/a	n/a	n/a	n/a	n/a	n/a	n/a	n/a	n/a	n/a	n/a	n/a	n/a	n/a	n/a
1420113	PROB	n/a	LTP283	ltpFR	15	n/a	n/a	n/a	n/a	n/a	n/a	n/a	12	3	4	5	n/a	n/a	n/a	n/a	n/a
1422060	PROB	n/a	LTP283	ltpFR	15	n/a	n/a	n/a	n/a	n/a	n/a	n/a	6	2	2	2	n/a	n/a	n/a	n/a	n/a
1423208	PROB	n/a	LTP283	ltpFR	15	n/a	n/a	n/a	n/a	n/a	n/a	n/a	14	6	1	7	n/a	n/a	n/a	n/a	n/a
1424556	PROB	n/a	LTP283	ltpFR	15	n/a	n/a	n/a	n/a	n/a	n/a	n/a	16	6	9	1	n/a	n/a	n/a	n/a	n/a
1425760	STOP	n/a	LTP283	ltpFR	15	n/a	n/a	n/a	n/a	n/a	n/a	n/a	n/a	n/a	n/a	n/a	n/a	n/a	n/a	n/a	n/a
1429150	REC_START	n/a	LTP283	ltpFR	15	6	n/a	n/a	n/a	n/a	n/a	n/a	n/a	0	0	0	n/a	n/a	n/a	n/a	n/a
1431748	REC_WORD	wordpools/wasnorm_wordpool_less_exclusions.txt	LTP283	ltpFR	15	6	0	MOAT	903	n/a	n/a	1	n/a	0	0	0	n/a	n/a	n/a	n/a	n/a
1432609	REC_WORD	wordpools/wasnorm_wordpool_less_exclusions.txt	LTP283	ltpFR	15	6	0	SHORE	1291	n/a	n/a	1	n/a	0	0	0	n/a	n/a	n/a	n/a	n/a
1435324	REC_WORD	wordpools/wasnorm_wordpool_less_exclusions.txt	LTP283	ltpFR	15	6	1	COOK	372	n/a	n/a	1	n/a	0	0	0	n/a	n/a	n/a	n/a	n/a
1435983	REC_WORD	wordpools/wasnorm_wordpool_less_exclusions.txt	LTP283	ltpFR	15	6	0	STOVE	1388	n/a	n/a	n/a	n/a	0	0	0	n/a	n/a	n/a	n/a	n/a
1438793	REC_WORD	wordpools/wasnorm_wordpool_less_exclusions.txt	LTP283	ltpFR	15	6	1	SCROLL	1257	n/a	n/a	0	n/a	0	0	0	n/a	n/a	n/a	n/a	n/a
1439877	REC_WORD	wordpools/wasnorm_wordpool_less_exclusions.txt	LTP283	ltpFR	15	6	1	SICKLE	1302	n/a	n/a	0	n/a	0	0	0	n/a	n/a	n/a	n/a	n/a
1442354	REC_WORD	wordpools/wasnorm_wordpool_less_exclusions.txt	LTP283	ltpFR	15	6	1	SHEET	1279	n/a	n/a	0	n/a	0	0	0	n/a	n/a	n/a	n/a	n/a
1443405	REC_WORD	wordpools/wasnorm_wordpool_less_exclusions.txt	LTP283	ltpFR	15	6	1	JUGGLER	763	n/a	n/a	1	n/a	0	0	0	n/a	n/a	n/a	n/a	n/a
1444272	REC_WORD	wordpools/wasnorm_wordpool_less_exclusions.txt	LTP283	ltpFR	15	6	0	CHEERLEADER	288	n/a	n/a	1	n/a	0	0	0	n/a	n/a	n/a	n/a	n/a
1445342	REC_WORD	wordpools/wasnorm_wordpool_less_exclusions.txt	LTP283	ltpFR	15	6	0	COLT	349	n/a	n/a	1	n/a	0	0	0	n/a	n/a	n/a	n/a	n/a
1485238	REC_WORD_VV	wordpools/wasnorm_wordpool_less_exclusions.txt	LTP283	ltpFR	15	6	n/a	<>	-1	n/a	n/a	n/a	n/a	0	0	0	n/a	n/a	n/a	n/a	n/a
1485818	REC_WORD	wordpools/wasnorm_wordpool_less_exclusions.txt	LTP283	ltpFR	15	6	0	CURTAIN	427	n/a	n/a	1	n/a	0	0	0	n/a	n/a	n/a	n/a	n/a
1504770	REST_REWET	n/a	LTP283	ltpFR	15	6	n/a	n/a	n/a	n/a	n/a	n/a	n/a	0	0	0	n/a	n/a	n/a	n/a	n/a
1798548	WORD	wordpools/wasnorm_wordpool_less_exclusions.txt	LTP283	ltpFR	15	7	1	GUARDIAN	668	n/a	n/a	1	n/a	0	0	0	0.422607421875	0.5869140625	0	upper	amplitud.ttf
1802508	WORD	wordpools/wasnorm_wordpool_less_exclusions.txt	LTP283	ltpFR	15	7	1	CRAB	397	n/a	n/a	0	n/a	0	0	0	0.422607421875	0.5869140625	0	upper	amplitud.ttf
1806685	WORD	wordpools/wasnorm_wordpool_less_exclusions.txt	LTP283	ltpFR	15	7	1	POSTAGE	1113	n/a	n/a	0	n/a	0	0	0	0.422607421875	0.5869140625	0	upper	amplitud.ttf
1810596	WORD	wordpools/wasnorm_wordpool_less_exclusions.txt	LTP283	ltpFR	15	7	1	LIBRARY	816	n/a	n/a	0	n/a	0	0	0	0.422607421875	0.5869140625	0	upper	amplitud.ttf
1814607	WORD	wordpools/wasnorm_wordpool_less_exclusions.txt	LTP283	ltpFR	15	7	0	LAKE	796	n/a	n/a	1	n/a	0	0	0	0.57763671875	0.412841796875	1	lower	zerothre.ttf
1818717	WORD	wordpools/wasnorm_wordpool_less_exclusions.txt	LTP283	ltpFR	15	7	0	PILLOW	1069	n/a	n/a	1	n/a	0	0	0	0.57763671875	0.412841796875	1	lower	zerothre.ttf
1822711	WORD	wordpools/wasnorm_wordpool_less_exclusions.txt	LTP283	ltpFR	15	7	0	BRUSH	182	n/a	n/a	0	n/a	0	0	0	0.57763671875	0.412841796875	1	lower	zerothre.ttf
1826622	WORD	wordpools/wasnorm_wordpool_less_exclusions.txt	LTP283	ltpFR	15	7	0	PAINTER	1004	n/a	n/a	1	n/a	0	0	0	0.57763671875	0.412841796875	1	lower	zerothre.ttf
1830633	WORD	wordpools/wasnorm_wordpool_less_exclusions.txt	LTP283	ltpFR	15	7	1	COMEDIAN	352	n/a	n/a	1	n/a	0	0	0	0.422607421875	0.5869140625	0	upper	amplitud.ttf
1834694	WORD	wordpools/wasnorm_wordpool_less_exclusions.txt	LTP283	ltpFR	15	7	1	SOFA	1342	n/a	n/a	0	n/a	0	0	0	0.422607421875	0.5869140625	0	upper	amplitud.ttf
1838754	WORD	wordpools/wasnorm_wordpool_less_exclusions.txt	LTP283	ltpFR	15	7	0	ALMANAC	17	n/a	n/a	0	n/a	0	0	0	0.57763671875	0.412841796875	1	lower	zerothre.ttf
1842598	WORD	wordpools/wasnorm_wordpool_less_exclusions.txt	LTP283	ltpFR	15	7	0	TOWER	1490	n/a	n/a	1	n/a	0	0	0	0.57763671875	0.412841796875	1	lower	zerothre.ttf
1846642	WORD	wordpools/wasnorm_wordpool_less_exclusions.txt	LTP283	ltpFR	15	7	0	CLAM	315	n/a	n/a	0	n/a	0	0	0	0.57763671875	0.412841796875	1	lower	zerothre.ttf
1850819	WORD	wordpools/wasnorm_wordpool_less_exclusions.txt	LTP283	ltpFR	15	7	0	OYSTER	995	n/a	n/a	0	n/a	0	0	0	0.57763671875	0.412841796875	1	lower	zerothre.ttf
1854664	WORD	wordpools/wasnorm_wordpool_less_exclusions.txt	LTP283	ltpFR	15	7	1	SHEPHERD	1283	n/a	n/a	1	n/a	0	0	0	0.422607421875	0.5869140625	0	upper	amplitud.ttf
1858658	WORD	wordpools/wasnorm_wordpool_less_exclusions.txt	LTP283	ltpFR	15	7	1	COLLAR	345	n/a	n/a	0	n/a	0	0	0	0.422607421875	0.5869140625	0	upper	amplitud.ttf
1864300	REC_START	n/a	LTP283	ltpFR	15	7	n/a	n/a	n/a	n/a	n/a	n/a	n/a	0	0	0	n/a	n/a	n/a	n/a	n/a
1867094	REC_WORD	wordpools/wasnorm_wordpool_less_exclusions.txt	LTP283	ltpFR	15	7	1	COLLAR	345	n/a	n/a	0	n/a	0	0	0	n/a	n/a	n/a	n/a	n/a
1868083	REC_WORD	wordpools/wasnorm_wordpool_less_exclusions.txt	LTP283	ltpFR	15	7	1	SHEPHERD	1283	n/a	n/a	1	n/a	0	0	0	n/a	n/a	n/a	n/a	n/a
1870563	REC_WORD	wordpools/wasnorm_wordpool_less_exclusions.txt	LTP283	ltpFR	15	7	0	OYSTER	995	n/a	n/a	0	n/a	0	0	0	n/a	n/a	n/a	n/a	n/a
1871642	REC_WORD	wordpools/wasnorm_wordpool_less_exclusions.txt	LTP283	ltpFR	15	7	0	CLAM	315	n/a	n/a	0	n/a	0	0	0	n/a	n/a	n/a	n/a	n/a
1872267	REC_WORD	wordpools/wasnorm_wordpool_less_exclusions.txt	LTP283	ltpFR	15	7	1	CRAB	397	n/a	n/a	0	n/a	0	0	0	n/a	n/a	n/a	n/a	n/a
1874618	REC_WORD	wordpools/wasnorm_wordpool_less_exclusions.txt	LTP283	ltpFR	15	7	1	GUARDIAN	668	n/a	n/a	1	n/a	0	0	0	n/a	n/a	n/a	n/a	n/a
1875486	REC_WORD	wordpools/wasnorm_wordpool_less_exclusions.txt	LTP283	ltpFR	15	7	1	LIBRARY	816	n/a	n/a	0	n/a	0	0	0	n/a	n/a	n/a	n/a	n/a
1876790	REC_WORD	wordpools/wasnorm_wordpool_less_exclusions.txt	LTP283	ltpFR	15	7	0	TOWER	1490	n/a	n/a	1	n/a	0	0	0	n/a	n/a	n/a	n/a	n/a
1879019	REC_WORD	wordpools/wasnorm_wordpool_less_exclusions.txt	LTP283	ltpFR	15	7	1	POSTAGE	1113	n/a	n/a	0	n/a	0	0	0	n/a	n/a	n/a	n/a	n/a
1885498	REC_WORD	wordpools/wasnorm_wordpool_less_exclusions.txt	LTP283	ltpFR	15	7	0	BRUSH	182	n/a	n/a	0	n/a	0	0	0	n/a	n/a	n/a	n/a	n/a
1886328	REC_WORD	wordpools/wasnorm_wordpool_less_exclusions.txt	LTP283	ltpFR	15	7	0	PAINTER	1004	n/a	n/a	1	n/a	0	0	0	n/a	n/a	n/a	n/a	n/a
1893825	REC_WORD	wordpools/wasnorm_wordpool_less_exclusions.txt	LTP283	ltpFR	15	7	1	SOFA	1342	n/a	n/a	0	n/a	0	0	0	n/a	n/a	n/a	n/a	n/a
1902946	REC_WORD	wordpools/wasnorm_wordpool_less_exclusions.txt	LTP283	ltpFR	15	7	0	PILLOW	1069	n/a	n/a	1	n/a	0	0	0	n/a	n/a	n/a	n/a	n/a
1915456	REC_WORD	wordpools/wasnorm_wordpool_less_exclusions.txt	LTP283	ltpFR	15	7	0	ALMANAC	17	n/a	n/a	0	n/a	0	0	0	n/a	n/a	n/a	n/a	n/a
1955630	WORD	wordpools/wasnorm_wordpool_less_exclusions.txt	LTP283	ltpFR	15	8	1	GROUND	666	n/a	n/a	0	n/a	0	0	0	0.422607421875	0.5869140625	0	upper	amplitud.ttf
1959790	WORD	wordpools/wasnorm_wordpool_less_exclusions.txt	LTP283	ltpFR	15	8	1	WIRE	1616	n/a	n/a	0	n/a	0	0	0	0.422607421875	0.5869140625	0	upper	amplitud.ttf
1963984	WORD	wordpools/wasnorm_wordpool_less_exclusions.txt	LTP283	ltpFR	15	8	1	GRIZZLY	662	n/a	n/a	1	n/a	0	0	0	0.422607421875	0.5869140625	0	upper	amplitud.ttf
1968178	WORD	wordpools/wasnorm_wordpool_less_exclusions.txt	LTP283	ltpFR	15	8	1	INCENSE	735	n/a	n/a	0	n/a	0	0	0	0.422607421875	0.5869140625	0	upper	amplitud.ttf
1972088	WORD	wordpools/wasnorm_wordpool_less_exclusions.txt	LTP283	ltpFR	15	8	1	CHEMICAL	291	n/a	n/a	0	n/a	0	0	0	0.422607421875	0.5869140625	0	upper	amplitud.ttf
1976132	WORD	wordpools/wasnorm_wordpool_less_exclusions.txt	LTP283	ltpFR	15	8	1	MOLECULE	905	n/a	n/a	0	n/a	0	0	0	0.422607421875	0.5869140625	0	upper	amplitud.ttf
1980243	WORD	wordpools/wasnorm_wordpool_less_exclusions.txt	LTP283	ltpFR	15	8	1	HAY	693	n/a	n/a	1	n/a	0	0	0	0.422607421875	0.5869140625	0	upper	amplitud.ttf
1984453	WORD	wordpools/wasnorm_wordpool_less_exclusions.txt	LTP283	ltpFR	15	8	1	PITCHFORK	1078	n/a	n/a	0	n/a	0	0	0	0.422607421875	0.5869140625	0	upper	amplitud.ttf
1988314	WORD	wordpools/wasnorm_wordpool_less_exclusions.txt	LTP283	ltpFR	15	8	1	MOVIE	927	n/a	n/a	0	n/a	0	0	0	0.422607421875	0.5869140625	0	upper	amplitud.ttf
1992525	WORD	wordpools/wasnorm_wordpool_less_exclusions.txt	LTP283	ltpFR	15	8	1	GENTLEMAN	631	n/a	n/a	1	n/a	0	0	0	0.422607421875	0.5869140625	0	upper	amplitud.ttf
1996585	WORD	wordpools/wasnorm_wordpool_less_exclusions.txt	LTP283	ltpFR	15	8	1	SPIDER	1351	n/a	n/a	1	n/a	0	0	0	0.422607421875	0.5869140625	0	upper	amplitud.ttf
2000413	WORD	wordpools/wasnorm_wordpool_less_exclusions.txt	LTP283	ltpFR	15	8	1	VIDEO	1564	n/a	n/a	0	n/a	0	0	0	0.422607421875	0.5869140625	0	upper	amplitud.ttf
2004623	WORD	wordpools/wasnorm_wordpool_less_exclusions.txt	LTP283	ltpFR	15	8	1	MOB	904	n/a	n/a	1	n/a	0	0	0	0.422607421875	0.5869140625	0	upper	amplitud.ttf
2008750	WORD	wordpools/wasnorm_wordpool_less_exclusions.txt	LTP283	ltpFR	15	8	1	TUNNEL	1519	n/a	n/a	0	n/a	0	0	0	0.422607421875	0.5869140625	0	upper	amplitud.ttf
2012944	WORD	wordpools/wasnorm_wordpool_less_exclusions.txt	LTP283	ltpFR	15	8	1	NOSE	957	n/a	n/a	1	n/a	0	0	0	0.422607421875	0.5869140625	0	upper	amplitud.ttf
2017055	WORD	wordpools/wasnorm_wordpool_less_exclusions.txt	LTP283	ltpFR	15	8	1	RASH	1167	n/a	n/a	0	n/a	0	0	0	0.422607421875	0.5869140625	0	upper	amplitud.ttf
2020067	START	n/a	LTP283	ltpFR	15	n/a	n/a	n/a	n/a	n/a	n/a	n/a	n/a	n/a	n/a	n/a	n/a	n/a	n/a	n/a	n/a
2021049	PROB	n/a	LTP283	ltpFR	15	n/a	n/a	n/a	n/a	n/a	n/a	n/a	11	1	3	7	n/a	n/a	n/a	n/a	n/a
2022463	PROB	n/a	LTP283	ltpFR	15	n/a	n/a	n/a	n/a	n/a	n/a	n/a	16	9	2	5	n/a	n/a	n/a	n/a	n/a
2024310	PROB	n/a	LTP283	ltpFR	15	n/a	n/a	n/a	n/a	n/a	n/a	n/a	18	6	9	3	n/a	n/a	n/a	n/a	n/a
2025658	PROB	n/a	LTP283	ltpFR	15	n/a	n/a	n/a	n/a	n/a	n/a	n/a	19	7	9	3	n/a	n/a	n/a	n/a	n/a
2027106	PROB	n/a	LTP283	ltpFR	15	n/a	n/a	n/a	n/a	n/a	n/a	n/a	17	1	9	7	n/a	n/a	n/a	n/a	n/a
2028704	PROB	n/a	LTP283	ltpFR	15	n/a	n/a	n/a	n/a	n/a	n/a	n/a	8	4	3	1	n/a	n/a	n/a	n/a	n/a
2029952	PROB	n/a	LTP283	ltpFR	15	n/a	n/a	n/a	n/a	n/a	n/a	n/a	5	2	2	1	n/a	n/a	n/a	n/a	n/a
2030984	PROB	n/a	LTP283	ltpFR	15	n/a	n/a	n/a	n/a	n/a	n/a	n/a	19	6	5	8	n/a	n/a	n/a	n/a	n/a
2032864	PROB	n/a	LTP283	ltpFR	15	n/a	n/a	n/a	n/a	n/a	n/a	n/a	23	5	8	9	n/a	n/a	n/a	n/a	n/a
2034746	STOP	n/a	LTP283	ltpFR	15	n/a	n/a	n/a	n/a	n/a	n/a	n/a	n/a	n/a	n/a	n/a	n/a	n/a	n/a	n/a	n/a
2037907	REC_START	n/a	LTP283	ltpFR	15	8	n/a	n/a	n/a	n/a	n/a	n/a	n/a	0	0	0	n/a	n/a	n/a	n/a	n/a
2039899	REC_WORD	wordpools/wasnorm_wordpool_less_exclusions.txt	LTP283	ltpFR	15	8	1	NOSE	957	n/a	n/a	1	n/a	0	0	0	n/a	n/a	n/a	n/a	n/a
2040781	REC_WORD	wordpools/wasnorm_wordpool_less_exclusions.txt	LTP283	ltpFR	15	8	1	TUNNEL	1519	n/a	n/a	0	n/a	0	0	0	n/a	n/a	n/a	n/a	n/a
2041931	REC_WORD	wordpools/wasnorm_wordpool_less_exclusions.txt	LTP283	ltpFR	15	8	1	VIDEO	1564	n/a	n/a	0	n/a	0	0	0	n/a	n/a	n/a	n/a	n/a
2043296	REC_WORD	wordpools/wasnorm_wordpool_less_exclusions.txt	LTP283	ltpFR	15	8	1	MOVIE	927	n/a	n/a	0	n/a	0	0	0	n/a	n/a	n/a	n/a	n/a
2045386	REC_WORD	wordpools/wasnorm_wordpool_less_exclusions.txt	LTP283	ltpFR	15	8	1	MOB	904	n/a	n/a	1	n/a	0	0	0	n/a	n/a	n/a	n/a	n/a
2046913	REC_WORD	wordpools/wasnorm_wordpool_less_exclusions.txt	LTP283	ltpFR	15	8	1	PITCHFORK	1078	n/a	n/a	0	n/a	0	0	0	n/a	n/a	n/a	n/a	n/a
2047991	REC_WORD	wordpools/wasnorm_wordpool_less_exclusions.txt	LTP283	ltpFR	15	8	1	HAY	693	n/a	n/a	1	n/a	0	0	0	n/a	n/a	n/a	n/a	n/a
2049510	REC_WORD	wordpools/wasnorm_wordpool_less_exclusions.txt	LTP283	ltpFR	15	8	1	CHEMICAL	291	n/a	n/a	0	n/a	0	0	0	n/a	n/a	n/a	n/a	n/a
2050414	REC_WORD	wordpools/wasnorm_wordpool_less_exclusions.txt	LTP283	ltpFR	15	8	1	MOLECULE	905	n/a	n/a	0	n/a	0	0	0	n/a	n/a	n/a	n/a	n/a
2051503	REC_WORD	wordpools/wasnorm_wordpool_less_exclusions.txt	LTP283	ltpFR	15	8	1	INCENSE	735	n/a	n/a	0	n/a	0	0	0	n/a	n/a	n/a	n/a	n/a
2053573	REC_WORD	wordpools/wasnorm_wordpool_less_exclusions.txt	LTP283	ltpFR	15	8	1	GRIZZLY	662	n/a	n/a	1	n/a	0	0	0	n/a	n/a	n/a	n/a	n/a
2055632	REC_WORD	wordpools/wasnorm_wordpool_less_exclusions.txt	LTP283	ltpFR	15	8	1	GENTLEMAN	631	n/a	n/a	1	n/a	0	0	0	n/a	n/a	n/a	n/a	n/a
2062201	REC_WORD	wordpools/wasnorm_wordpool_less_exclusions.txt	LTP283	ltpFR	15	8	1	RASH	1167	n/a	n/a	0	n/a	0	0	0	n/a	n/a	n/a	n/a	n/a
2108463	REC_WORD	wordpools/wasnorm_wordpool_less_exclusions.txt	LTP283	ltpFR	15	8	1	SPIDER	1351	n/a	n/a	1	n/a	0	0	0	n/a	n/a	n/a	n/a	n/a
2116739	WORD	wordpools/wasnorm_wordpool_less_exclusions.txt	LTP283	ltpFR	15	9	1	PUMPKIN	1142	n/a	n/a	1	n/a	0	0	0	0.422607421875	0.5869140625	0	upper	amplitud.ttf
2120916	WORD	wordpools/wasnorm_wordpool_less_exclusions.txt	LTP283	ltpFR	15	9	1	FLOOR	581	n/a	n/a	0	n/a	0	0	0	0.422607421875	0.5869140625	0	upper	amplitud.ttf
2125127	WORD	wordpools/wasnorm_wordpool_less_exclusions.txt	LTP283	ltpFR	15	9	1	BUNNY	198	n/a	n/a	1	n/a	0	0	0	0.422607421875	0.5869140625	0	upper	amplitud.ttf
2129171	WORD	wordpools/wasnorm_wordpool_less_exclusions.txt	LTP283	ltpFR	15	9	1	MOWER	928	n/a	n/a	0	n/a	0	0	0	0.422607421875	0.5869140625	0	upper	amplitud.ttf
2133115	WORD	wordpools/wasnorm_wordpool_less_exclusions.txt	LTP283	ltpFR	15	9	1	ATTIRE	57	n/a	n/a	0	n/a	0	0	0	0.422607421875	0.5869140625	0	upper	amplitud.ttf
2136992	WORD	wordpools/wasnorm_wordpool_less_exclusions.txt	LTP283	ltpFR	15	9	1	BELLY	119	n/a	n/a	1	n/a	0	0	0	0.422607421875	0.5869140625	0	upper	amplitud.ttf
2141053	WORD	wordpools/wasnorm_wordpool_less_exclusions.txt	LTP283	ltpFR	15	9	1	LIVER	833	n/a	n/a	1	n/a	0	0	0	0.422607421875	0.5869140625	0	upper	amplitud.ttf
2145180	WORD	wordpools/wasnorm_wordpool_less_exclusions.txt	LTP283	ltpFR	15	9	1	FATHER	554	n/a	n/a	1	n/a	0	0	0	0.422607421875	0.5869140625	0	upper	amplitud.ttf
2149324	WORD	wordpools/wasnorm_wordpool_less_exclusions.txt	LTP283	ltpFR	15	9	1	PUDDING	1139	n/a	n/a	0	n/a	0	0	0	0.422607421875	0.5869140625	0	upper	amplitud.ttf
2153168	WORD	wordpools/wasnorm_wordpool_less_exclusions.txt	LTP283	ltpFR	15	9	1	ASTEROID	50	n/a	n/a	0	n/a	0	0	0	0.422607421875	0.5869140625	0	upper	amplitud.ttf
2157261	WORD	wordpools/wasnorm_wordpool_less_exclusions.txt	LTP283	ltpFR	15	9	1	STONE	1385	n/a	n/a	0	n/a	0	0	0	0.422607421875	0.5869140625	0	upper	amplitud.ttf
2161406	WORD	wordpools/wasnorm_wordpool_less_exclusions.txt	LTP283	ltpFR	15	9	1	DRAWER	493	n/a	n/a	0	n/a	0	0	0	0.422607421875	0.5869140625	0	upper	amplitud.ttf
2165550	WORD	wordpools/wasnorm_wordpool_less_exclusions.txt	LTP283	ltpFR	15	9	1	SOCIETY	1338	n/a	n/a	0	n/a	0	0	0	0.422607421875	0.5869140625	0	upper	amplitud.ttf
2169693	WORD	wordpools/wasnorm_wordpool_less_exclusions.txt	LTP283	ltpFR	15	9	1	FAMILY	550	n/a	n/a	1	n/a	0	0	0	0.422607421875	0.5869140625	0	upper	amplitud.ttf
2173804	WORD	wordpools/wasnorm_wordpool_less_exclusions.txt	LTP283	ltpFR	15	9	1	FLEA	577	n/a	n/a	1	n/a	0	0	0	0.422607421875	0.5869140625	0	upper	amplitud.ttf
2177964	WORD	wordpools/wasnorm_wordpool_less_exclusions.txt	LTP283	ltpFR	15	9	1	HOUND	724	n/a	n/a	1	n/a	0	0	0	0.422607421875	0.5869140625	0	upper	amplitud.ttf
2183939	REC_START	n/a	LTP283	ltpFR	15	9	n/a	n/a	n/a	n/a	n/a	n/a	n/a	0	0	0	n/a	n/a	n/a	n/a	n/a
2185413	REC_WORD	wordpools/wasnorm_wordpool_less_exclusions.txt	LTP283	ltpFR	15	9	1	FLEA	577	n/a	n/a	1	n/a	0	0	0	n/a	n/a	n/a	n/a	n/a
2185960	REC_WORD	wordpools/wasnorm_wordpool_less_exclusions.txt	LTP283	ltpFR	15	9	1	HOUND	724	n/a	n/a	1	n/a	0	0	0	n/a	n/a	n/a	n/a	n/a
2186798	REC_WORD	wordpools/wasnorm_wordpool_less_exclusions.txt	LTP283	ltpFR	15	9	1	MOWER	928	n/a	n/a	0	n/a	0	0	0	n/a	n/a	n/a	n/a	n/a
2187613	REC_WORD	wordpools/wasnorm_wordpool_less_exclusions.txt	LTP283	ltpFR	15	9	1	FLOOR	581	n/a	n/a	0	n/a	0	0	0	n/a	n/a	n/a	n/a	n/a
2188547	REC_WORD	wordpools/wasnorm_wordpool_less_exclusions.txt	LTP283	ltpFR	15	9	1	PUMPKIN	1142	n/a	n/a	1	n/a	0	0	0	n/a	n/a	n/a	n/a	n/a
2189575	REC_WORD	wordpools/wasnorm_wordpool_less_exclusions.txt	LTP283	ltpFR	15	9	1	BUNNY	198	n/a	n/a	1	n/a	0	0	0	n/a	n/a	n/a	n/a	n/a
2190270	REC_WORD	wordpools/wasnorm_wordpool_less_exclusions.txt	LTP283	ltpFR	15	9	1	ATTIRE	57	n/a	n/a	0	n/a	0	0	0	n/a	n/a	n/a	n/a	n/a
2191489	REC_WORD	wordpools/wasnorm_wordpool_less_exclusions.txt	LTP283	ltpFR	15	9	1	DRAWER	493	n/a	n/a	0	n/a	0	0	0	n/a	n/a	n/a	n/a	n/a
2193000	REC_WORD	wordpools/wasnorm_wordpool_less_exclusions.txt	LTP283	ltpFR	15	9	1	FAMILY	550	n/a	n/a	1	n/a	0	0	0	n/a	n/a	n/a	n/a	n/a
2193550	REC_WORD	wordpools/wasnorm_wordpool_less_exclusions.txt	LTP283	ltpFR	15	9	1	SOCIETY	1338	n/a	n/a	0	n/a	0	0	0	n/a	n/a	n/a	n/a	n/a
2194515	REC_WORD	wordpools/wasnorm_wordpool_less_exclusions.txt	LTP283	ltpFR	15	9	1	FATHER	554	n/a	n/a	1	n/a	0	0	0	n/a	n/a	n/a	n/a	n/a
2195608	REC_WORD	wordpools/wasnorm_wordpool_less_exclusions.txt	LTP283	ltpFR	15	9	1	ASTEROID	50	n/a	n/a	0	n/a	0	0	0	n/a	n/a	n/a	n/a	n/a
2197908	REC_WORD_VV	wordpools/wasnorm_wordpool_less_exclusions.txt	LTP283	ltpFR	15	9	n/a	<>	-1	n/a	n/a	n/a	n/a	0	0	0	n/a	n/a	n/a	n/a	n/a
2198823	REC_WORD	wordpools/wasnorm_wordpool_less_exclusions.txt	LTP283	ltpFR	15	9	1	STONE	1385	n/a	n/a	0	n/a	0	0	0	n/a	n/a	n/a	n/a	n/a
2199823	REC_WORD_VV	wordpools/wasnorm_wordpool_less_exclusions.txt	LTP283	ltpFR	15	9	n/a	<>	-1	n/a	n/a	n/a	n/a	0	0	0	n/a	n/a	n/a	n/a	n/a
2209078	REC_WORD	wordpools/wasnorm_wordpool_less_exclusions.txt	LTP283	ltpFR	15	9	1	BELLY	119	n/a	n/a	1	n/a	0	0	0	n/a	n/a	n/a	n/a	n/a
2209828	REC_WORD	wordpools/wasnorm_wordpool_less_exclusions.txt	LTP283	ltpFR	15	9	1	LIVER	833	n/a	n/a	1	n/a	0	0	0	n/a	n/a	n/a	n/a	n/a
2260724	START	n/a	LTP283	ltpFR	15	n/a	n/a	n/a	n/a	n/a	n/a	n/a	n/a	n/a	n/a	n/a	n/a	n/a	n/a	n/a	n/a
2262239	PROB	n/a	LTP283	ltpFR	15	n/a	n/a	n/a	n/a	n/a	n/a	n/a	19	5	8	6	n/a	n/a	n/a	n/a	n/a
2264502	PROB	n/a	LTP283	ltpFR	15	n/a	n/a	n/a	n/a	n/a	n/a	n/a	14	4	3	7	n/a	n/a	n/a	n/a	n/a
2265683	PROB	n/a	LTP283	ltpFR	15	n/a	n/a	n/a	n/a	n/a	n/a	n/a	14	4	2	8	n/a	n/a	n/a	n/a	n/a
2266815	PROB	n/a	LTP283	ltpFR	15	n/a	n/a	n/a	n/a	n/a	n/a	n/a	16	7	5	4	n/a	n/a	n/a	n/a	n/a
2268466	STOP	n/a	LTP283	ltpFR	15	n/a	n/a	n/a	n/a	n/a	n/a	n/a	n/a	n/a	n/a	n/a	n/a	n/a	n/a	n/a	n/a
2269611	WORD	wordpools/wasnorm_wordpool_less_exclusions.txt	LTP283	ltpFR	15	10	0	EMPLOYEE	531	n/a	n/a	1	n/a	0	0	0	0.57763671875	0.412841796875	1	lower	zerothre.ttf
2272624	START	n/a	LTP283	ltpFR	15	n/a	n/a	n/a	n/a	n/a	n/a	n/a	n/a	n/a	n/a	n/a	n/a	n/a	n/a	n/a	n/a
2273805	PROB	n/a	LTP283	ltpFR	15	n/a	n/a	n/a	n/a	n/a	n/a	n/a	18	6	6	6	n/a	n/a	n/a	n/a	n/a
2275019	PROB	n/a	LTP283	ltpFR	15	n/a	n/a	n/a	n/a	n/a	n/a	n/a	15	6	1	8	n/a	n/a	n/a	n/a	n/a
2276551	PROB	n/a	LTP283	ltpFR	15	n/a	n/a	n/a	n/a	n/a	n/a	n/a	8	2	3	3	n/a	n/a	n/a	n/a	n/a
2277948	PROB	n/a	LTP283	ltpFR	15	n/a	n/a	n/a	n/a	n/a	n/a	n/a	12	4	3	5	n/a	n/a	n/a	n/a	n/a
2279826	STOP	n/a	LTP283	ltpFR	15	n/a	n/a	n/a	n/a	n/a	n/a	n/a	n/a	n/a	n/a	n/a	n/a	n/a	n/a	n/a	n/a
2281560	WORD	wordpools/wasnorm_wordpool_less_exclusions.txt	LTP283	ltpFR	15	10	0	VINEGAR	1569	n/a	n/a	0	n/a	0	0	0	0.57763671875	0.412841796875	1	lower	zerothre.ttf
2284572	START	n/a	LTP283	ltpFR	15	n/a	n/a	n/a	n/a	n/a	n/a	n/a	n/a	n/a	n/a	n/a	n/a	n/a	n/a	n/a	n/a
2285637	PROB	n/a	LTP283	ltpFR	15	n/a	n/a	n/a	n/a	n/a	n/a	n/a	15	5	1	9	n/a	n/a	n/a	n/a	n/a
2286868	PROB	n/a	LTP283	ltpFR	15	n/a	n/a	n/a	n/a	n/a	n/a	n/a	18	6	9	3	n/a	n/a	n/a	n/a	n/a
2288216	PROB	n/a	LTP283	ltpFR	15	n/a	n/a	n/a	n/a	n/a	n/a	n/a	11	3	3	5	n/a	n/a	n/a	n/a	n/a
2290047	PROB	n/a	LTP283	ltpFR	15	n/a	n/a	n/a	n/a	n/a	n/a	n/a	20	6	9	5	n/a	n/a	n/a	n/a	n/a
2291834	STOP	n/a	LTP283	ltpFR	15	n/a	n/a	n/a	n/a	n/a	n/a	n/a	n/a	n/a	n/a	n/a	n/a	n/a	n/a	n/a	n/a
2293775	WORD	wordpools/wasnorm_wordpool_less_exclusions.txt	LTP283	ltpFR	15	10	0	CLOVE	329	n/a	n/a	0	n/a	0	0	0	0.57763671875	0.412841796875	1	lower	zerothre.ttf
2296787	START	n/a	LTP283	ltpFR	15	n/a	n/a	n/a	n/a	n/a	n/a	n/a	n/a	n/a	n/a	n/a	n/a	n/a	n/a	n/a	n/a
2297835	PROB	n/a	LTP283	ltpFR	15	n/a	n/a	n/a	n/a	n/a	n/a	n/a	14	4	9	1	n/a	n/a	n/a	n/a	n/a
2299067	PROB	n/a	LTP283	ltpFR	15	n/a	n/a	n/a	n/a	n/a	n/a	n/a	14	4	6	4	n/a	n/a	n/a	n/a	n/a
2300298	PROB	n/a	LTP283	ltpFR	15	n/a	n/a	n/a	n/a	n/a	n/a	n/a	16	3	4	9	n/a	n/a	n/a	n/a	n/a
2301946	PROB	n/a	LTP283	ltpFR	15	n/a	n/a	n/a	n/a	n/a	n/a	n/a	15	4	2	9	n/a	n/a	n/a	n/a	n/a
2304265	STOP	n/a	LTP283	ltpFR	15	n/a	n/a	n/a	n/a	n/a	n/a	n/a	n/a	n/a	n/a	n/a	n/a	n/a	n/a	n/a	n/a
2305940	WORD	wordpools/wasnorm_wordpool_less_exclusions.txt	LTP283	ltpFR	15	10	0	CANDY	230	n/a	n/a	0	n/a	0	0	0	0.57763671875	0.412841796875	1	lower	zerothre.ttf
2308953	START	n/a	LTP283	ltpFR	15	n/a	n/a	n/a	n/a	n/a	n/a	n/a	n/a	n/a	n/a	n/a	n/a	n/a	n/a	n/a	n/a
2310050	PROB	n/a	LTP283	ltpFR	15	n/a	n/a	n/a	n/a	n/a	n/a	n/a	10	7	2	1	n/a	n/a	n/a	n/a	n/a
2311349	PROB	n/a	LTP283	ltpFR	15	n/a	n/a	n/a	n/a	n/a	n/a	n/a	22	8	6	8	n/a	n/a	n/a	n/a	n/a
2313312	PROB	n/a	LTP283	ltpFR	15	n/a	n/a	n/a	n/a	n/a	n/a	n/a	12	3	1	8	n/a	n/a	n/a	n/a	n/a
2314594	PROB	n/a	LTP283	ltpFR	15	n/a	n/a	n/a	n/a	n/a	n/a	n/a	15	7	3	5	n/a	n/a	n/a	n/a	n/a
2315650	STOP	n/a	LTP283	ltpFR	15	n/a	n/a	n/a	n/a	n/a	n/a	n/a	n/a	n/a	n/a	n/a	n/a	n/a	n/a	n/a	n/a
2317989	WORD	wordpools/wasnorm_wordpool_less_exclusions.txt	LTP283	ltpFR	15	10	0	VASE	1549	n/a	n/a	1	n/a	0	0	0	0.57763671875	0.412841796875	1	lower	zerothre.ttf
2321001	START	n/a	LTP283	ltpFR	15	n/a	n/a	n/a	n/a	n/a	n/a	n/a	n/a	n/a	n/a	n/a	n/a	n/a	n/a	n/a	n/a
2321850	PROB	n/a	LTP283	ltpFR	15	n/a	n/a	n/a	n/a	n/a	n/a	n/a	18	9	2	7	n/a	n/a	n/a	n/a	n/a
2323497	PROB	n/a	LTP283	ltpFR	15	n/a	n/a	n/a	n/a	n/a	n/a	n/a	13	1	7	5	n/a	n/a	n/a	n/a	n/a
2325910	PROB	n/a	LTP283	ltpFR	15	n/a	n/a	n/a	n/a	n/a	n/a	n/a	16	5	7	4	n/a	n/a	n/a	n/a	n/a
2327810	STOP	n/a	LTP283	ltpFR	15	n/a	n/a	n/a	n/a	n/a	n/a	n/a	n/a	n/a	n/a	n/a	n/a	n/a	n/a	n/a	n/a
2329921	WORD	wordpools/wasnorm_wordpool_less_exclusions.txt	LTP283	ltpFR	15	10	0	MICROSCOPE	891	n/a	n/a	1	n/a	0	0	0	0.57763671875	0.412841796875	1	lower	zerothre.ttf
2332933	START	n/a	LTP283	ltpFR	15	n/a	n/a	n/a	n/a	n/a	n/a	n/a	n/a	n/a	n/a	n/a	n/a	n/a	n/a	n/a	n/a
2334048	PROB	n/a	LTP283	ltpFR	15	n/a	n/a	n/a	n/a	n/a	n/a	n/a	22	5	8	9	n/a	n/a	n/a	n/a	n/a
2336677	PROB	n/a	LTP283	ltpFR	15	n/a	n/a	n/a	n/a	n/a	n/a	n/a	18	7	8	3	n/a	n/a	n/a	n/a	n/a
2337975	PROB	n/a	LTP283	ltpFR	15	n/a	n/a	n/a	n/a	n/a	n/a	n/a	18	3	8	7	n/a	n/a	n/a	n/a	n/a
2339273	PROB	n/a	LTP283	ltpFR	15	n/a	n/a	n/a	n/a	n/a	n/a	n/a	13	1	4	8	n/a	n/a	n/a	n/a	n/a
2340802	STOP	n/a	LTP283	ltpFR	15	n/a	n/a	n/a	n/a	n/a	n/a	n/a	n/a	n/a	n/a	n/a	n/a	n/a	n/a	n/a	n/a
2342103	WORD	wordpools/wasnorm_wordpool_less_exclusions.txt	LTP283	ltpFR	15	10	1	MOUSE	925	n/a	n/a	1	n/a	0	0	0	0.422607421875	0.5869140625	0	upper	amplitud.ttf
2345115	START	n/a	LTP283	ltpFR	15	n/a	n/a	n/a	n/a	n/a	n/a	n/a	n/a	n/a	n/a	n/a	n/a	n/a	n/a	n/a	n/a
2346246	PROB	n/a	LTP283	ltpFR	15	n/a	n/a	n/a	n/a	n/a	n/a	n/a	13	7	2	4	n/a	n/a	n/a	n/a	n/a
2347927	PROB	n/a	LTP283	ltpFR	15	n/a	n/a	n/a	n/a	n/a	n/a	n/a	11	1	2	8	n/a	n/a	n/a	n/a	n/a
2349175	PROB	n/a	LTP283	ltpFR	15	n/a	n/a	n/a	n/a	n/a	n/a	n/a	22	8	5	9	n/a	n/a	n/a	n/a	n/a
2350490	PROB	n/a	LTP283	ltpFR	15	n/a	n/a	n/a	n/a	n/a	n/a	n/a	19	6	4	9	n/a	n/a	n/a	n/a	n/a
2351690	STOP	n/a	LTP283	ltpFR	15	n/a	n/a	n/a	n/a	n/a	n/a	n/a	n/a	n/a	n/a	n/a	n/a	n/a	n/a	n/a	n/a
2354218	WORD	wordpools/wasnorm_wordpool_less_exclusions.txt	LTP283	ltpFR	15	10	1	TURNIP	1521	n/a	n/a	1	n/a	0	0	0	0.422607421875	0.5869140625	0	upper	amplitud.ttf
2357230	START	n/a	LTP283	ltpFR	15	n/a	n/a	n/a	n/a	n/a	n/a	n/a	n/a	n/a	n/a	n/a	n/a	n/a	n/a	n/a	n/a
2358428	PROB	n/a	LTP283	ltpFR	15	n/a	n/a	n/a	n/a	n/a	n/a	n/a	12	2	9	1	n/a	n/a	n/a	n/a	n/a
2359710	PROB	n/a	LTP283	ltpFR	15	n/a	n/a	n/a	n/a	n/a	n/a	n/a	19	6	5	8	n/a	n/a	n/a	n/a	n/a
2361424	PROB	n/a	LTP283	ltpFR	15	n/a	n/a	n/a	n/a	n/a	n/a	n/a	18	6	9	3	n/a	n/a	n/a	n/a	n/a
2365230	STOP	n/a	LTP283	ltpFR	15	n/a	n/a	n/a	n/a	n/a	n/a	n/a	n/a	n/a	n/a	n/a	n/a	n/a	n/a	n/a	n/a
2366450	WORD	wordpools/wasnorm_wordpool_less_exclusions.txt	LTP283	ltpFR	15	10	1	MARINE	869	n/a	n/a	1	n/a	0	0	0	0.422607421875	0.5869140625	0	upper	amplitud.ttf
2369462	START	n/a	LTP283	ltpFR	15	n/a	n/a	n/a	n/a	n/a	n/a	n/a	n/a	n/a	n/a	n/a	n/a	n/a	n/a	n/a	n/a
2370310	PROB	n/a	LTP283	ltpFR	15	n/a	n/a	n/a	n/a	n/a	n/a	n/a	16	8	6	2	n/a	n/a	n/a	n/a	n/a
2371609	PROB	n/a	LTP283	ltpFR	15	n/a	n/a	n/a	n/a	n/a	n/a	n/a	16	3	4	9	n/a	n/a	n/a	n/a	n/a
2373356	PROB	n/a	LTP283	ltpFR	15	n/a	n/a	n/a	n/a	n/a	n/a	n/a	7	2	3	2	n/a	n/a	n/a	n/a	n/a
2374954	PROB	n/a	LTP283	ltpFR	15	n/a	n/a	n/a	n/a	n/a	n/a	n/a	14	4	1	9	n/a	n/a	n/a	n/a	n/a
2376210	STOP	n/a	LTP283	ltpFR	15	n/a	n/a	n/a	n/a	n/a	n/a	n/a	n/a	n/a	n/a	n/a	n/a	n/a	n/a	n/a	n/a
2378299	WORD	wordpools/wasnorm_wordpool_less_exclusions.txt	LTP283	ltpFR	15	10	1	STREAM	1392	n/a	n/a	0	n/a	0	0	0	0.422607421875	0.5869140625	0	upper	amplitud.ttf
2381311	START	n/a	LTP283	ltpFR	15	n/a	n/a	n/a	n/a	n/a	n/a	n/a	n/a	n/a	n/a	n/a	n/a	n/a	n/a	n/a	n/a
2382258	PROB	n/a	LTP283	ltpFR	15	n/a	n/a	n/a	n/a	n/a	n/a	n/a	20	5	9	6	n/a	n/a	n/a	n/a	n/a
2383691	PROB	n/a	LTP283	ltpFR	15	n/a	n/a	n/a	n/a	n/a	n/a	n/a	24	9	9	6	n/a	n/a	n/a	n/a	n/a
2385821	PROB	n/a	LTP283	ltpFR	15	n/a	n/a	n/a	n/a	n/a	n/a	n/a	13	6	6	1	n/a	n/a	n/a	n/a	n/a
2387052	PROB	n/a	LTP283	ltpFR	15	n/a	n/a	n/a	n/a	n/a	n/a	n/a	13	6	6	1	n/a	n/a	n/a	n/a	n/a
2388130	STOP	n/a	LTP283	ltpFR	15	n/a	n/a	n/a	n/a	n/a	n/a	n/a	n/a	n/a	n/a	n/a	n/a	n/a	n/a	n/a	n/a
2390331	WORD	wordpools/wasnorm_wordpool_less_exclusions.txt	LTP283	ltpFR	15	10	0	CREEK	404	n/a	n/a	1	n/a	0	0	0	0.57763671875	0.412841796875	1	lower	zerothre.ttf
2393343	START	n/a	LTP283	ltpFR	15	n/a	n/a	n/a	n/a	n/a	n/a	n/a	n/a	n/a	n/a	n/a	n/a	n/a	n/a	n/a	n/a
2394158	PROB	n/a	LTP283	ltpFR	15	n/a	n/a	n/a	n/a	n/a	n/a	n/a	21	4	9	8	n/a	n/a	n/a	n/a	n/a
2395956	PROB	n/a	LTP283	ltpFR	15	n/a	n/a	n/a	n/a	n/a	n/a	n/a	15	1	7	7	n/a	n/a	n/a	n/a	n/a
2397087	PROB	n/a	LTP283	ltpFR	15	n/a	n/a	n/a	n/a	n/a	n/a	n/a	18	3	9	6	n/a	n/a	n/a	n/a	n/a
2398369	PROB	n/a	LTP283	ltpFR	15	n/a	n/a	n/a	n/a	n/a	n/a	n/a	16	4	6	6	n/a	n/a	n/a	n/a	n/a
2399898	STOP	n/a	LTP283	ltpFR	15	n/a	n/a	n/a	n/a	n/a	n/a	n/a	n/a	n/a	n/a	n/a	n/a	n/a	n/a	n/a	n/a
2402479	WORD	wordpools/wasnorm_wordpool_less_exclusions.txt	LTP283	ltpFR	15	10	0	EMPLOYER	532	n/a	n/a	1	n/a	0	0	0	0.57763671875	0.412841796875	1	lower	zerothre.ttf
2405492	START	n/a	LTP283	ltpFR	15	n/a	n/a	n/a	n/a	n/a	n/a	n/a	n/a	n/a	n/a	n/a	n/a	n/a	n/a	n/a	n/a
2406323	PROB	n/a	LTP283	ltpFR	15	n/a	n/a	n/a	n/a	n/a	n/a	n/a	24	9	6	9	n/a	n/a	n/a	n/a	n/a
2409452	PROB	n/a	LTP283	ltpFR	15	n/a	n/a	n/a	n/a	n/a	n/a	n/a	20	5	7	8	n/a	n/a	n/a	n/a	n/a
2411566	PROB	n/a	LTP283	ltpFR	15	n/a	n/a	n/a	n/a	n/a	n/a	n/a	10	3	6	1	n/a	n/a	n/a	n/a	n/a
2412666	STOP	n/a	LTP283	ltpFR	15	n/a	n/a	n/a	n/a	n/a	n/a	n/a	n/a	n/a	n/a	n/a	n/a	n/a	n/a	n/a	n/a
2414578	WORD	wordpools/wasnorm_wordpool_less_exclusions.txt	LTP283	ltpFR	15	10	1	SLIDE	1326	n/a	n/a	0	n/a	0	0	0	0.422607421875	0.5869140625	0	upper	amplitud.ttf
2417590	START	n/a	LTP283	ltpFR	15	n/a	n/a	n/a	n/a	n/a	n/a	n/a	n/a	n/a	n/a	n/a	n/a	n/a	n/a	n/a	n/a
2418638	PROB	n/a	LTP283	ltpFR	15	n/a	n/a	n/a	n/a	n/a	n/a	n/a	21	4	8	9	n/a	n/a	n/a	n/a	n/a
2420286	PROB	n/a	LTP283	ltpFR	15	n/a	n/a	n/a	n/a	n/a	n/a	n/a	14	3	7	4	n/a	n/a	n/a	n/a	n/a
2422300	PROB	n/a	LTP283	ltpFR	15	n/a	n/a	n/a	n/a	n/a	n/a	n/a	16	8	8	4	n/a	n/a	n/a	n/a	n/a
2423631	PROB	n/a	LTP283	ltpFR	15	n/a	n/a	n/a	n/a	n/a	n/a	n/a	18	2	8	8	n/a	n/a	n/a	n/a	n/a
2425546	STOP	n/a	LTP283	ltpFR	15	n/a	n/a	n/a	n/a	n/a	n/a	n/a	n/a	n/a	n/a	n/a	n/a	n/a	n/a	n/a	n/a
2426493	WORD	wordpools/wasnorm_wordpool_less_exclusions.txt	LTP283	ltpFR	15	10	1	HAYSTACK	694	n/a	n/a	0	n/a	0	0	0	0.422607421875	0.5869140625	0	upper	amplitud.ttf
2429506	START	n/a	LTP283	ltpFR	15	n/a	n/a	n/a	n/a	n/a	n/a	n/a	n/a	n/a	n/a	n/a	n/a	n/a	n/a	n/a	n/a
2430604	PROB	n/a	LTP283	ltpFR	15	n/a	n/a	n/a	n/a	n/a	n/a	n/a	17	9	6	2	n/a	n/a	n/a	n/a	n/a
2432318	PROB	n/a	LTP283	ltpFR	15	n/a	n/a	n/a	n/a	n/a	n/a	n/a	15	1	7	7	n/a	n/a	n/a	n/a	n/a
2433499	PROB	n/a	LTP283	ltpFR	15	n/a	n/a	n/a	n/a	n/a	n/a	n/a	18	6	8	4	n/a	n/a	n/a	n/a	n/a
2434814	PROB	n/a	LTP283	ltpFR	15	n/a	n/a	n/a	n/a	n/a	n/a	n/a	10	3	2	5	n/a	n/a	n/a	n/a	n/a
2436162	STOP	n/a	LTP283	ltpFR	15	n/a	n/a	n/a	n/a	n/a	n/a	n/a	n/a	n/a	n/a	n/a	n/a	n/a	n/a	n/a	n/a
2438658	WORD	wordpools/wasnorm_wordpool_less_exclusions.txt	LTP283	ltpFR	15	10	1	KEEPER	769	n/a	n/a	1	n/a	0	0	0	0.422607421875	0.5869140625	0	upper	amplitud.ttf
2441671	START	n/a	LTP283	ltpFR	15	n/a	n/a	n/a	n/a	n/a	n/a	n/a	n/a	n/a	n/a	n/a	n/a	n/a	n/a	n/a	n/a
2442619	PROB	n/a	LTP283	ltpFR	15	n/a	n/a	n/a	n/a	n/a	n/a	n/a	12	3	8	1	n/a	n/a	n/a	n/a	n/a
2444167	PROB	n/a	LTP283	ltpFR	15	n/a	n/a	n/a	n/a	n/a	n/a	n/a	20	6	5	9	n/a	n/a	n/a	n/a	n/a
2445565	PROB	n/a	LTP283	ltpFR	15	n/a	n/a	n/a	n/a	n/a	n/a	n/a	16	5	6	5	n/a	n/a	n/a	n/a	n/a
2446780	PROB	n/a	LTP283	ltpFR	15	n/a	n/a	n/a	n/a	n/a	n/a	n/a	18	2	9	7	n/a	n/a	n/a	n/a	n/a
2448378	STOP	n/a	LTP283	ltpFR	15	n/a	n/a	n/a	n/a	n/a	n/a	n/a	n/a	n/a	n/a	n/a	n/a	n/a	n/a	n/a	n/a
2450874	WORD	wordpools/wasnorm_wordpool_less_exclusions.txt	LTP283	ltpFR	15	10	1	DAUGHTER	442	n/a	n/a	1	n/a	0	0	0	0.422607421875	0.5869140625	0	upper	amplitud.ttf
2453886	START	n/a	LTP283	ltpFR	15	n/a	n/a	n/a	n/a	n/a	n/a	n/a	n/a	n/a	n/a	n/a	n/a	n/a	n/a	n/a	n/a
2454818	PROB	n/a	LTP283	ltpFR	15	n/a	n/a	n/a	n/a	n/a	n/a	n/a	22	7	7	8	n/a	n/a	n/a	n/a	n/a
2456715	PROB	n/a	LTP283	ltpFR	15	n/a	n/a	n/a	n/a	n/a	n/a	n/a	18	4	5	9	n/a	n/a	n/a	n/a	n/a
2458046	PROB	n/a	LTP283	ltpFR	15	n/a	n/a	n/a	n/a	n/a	n/a	n/a	13	5	7	1	n/a	n/a	n/a	n/a	n/a
2459843	PROB	n/a	LTP283	ltpFR	15	n/a	n/a	n/a	n/a	n/a	n/a	n/a	24	6	8	8	n/a	n/a	n/a	n/a	n/a
2461682	STOP	n/a	LTP283	ltpFR	15	n/a	n/a	n/a	n/a	n/a	n/a	n/a	n/a	n/a	n/a	n/a	n/a	n/a	n/a	n/a	n/a
2463655	REC_START	n/a	LTP283	ltpFR	15	10	n/a	n/a	n/a	n/a	n/a	n/a	n/a	0	0	0	n/a	n/a	n/a	n/a	n/a
2466611	REC_WORD	wordpools/wasnorm_wordpool_less_exclusions.txt	LTP283	ltpFR	15	10	1	DAUGHTER	442	n/a	n/a	1	n/a	0	0	0	n/a	n/a	n/a	n/a	n/a
2467433	REC_WORD	wordpools/wasnorm_wordpool_less_exclusions.txt	LTP283	ltpFR	15	10	1	KEEPER	769	n/a	n/a	1	n/a	0	0	0	n/a	n/a	n/a	n/a	n/a
2468750	REC_WORD	wordpools/wasnorm_wordpool_less_exclusions.txt	LTP283	ltpFR	15	10	1	MARINE	869	n/a	n/a	1	n/a	0	0	0	n/a	n/a	n/a	n/a	n/a
2469731	REC_WORD	wordpools/wasnorm_wordpool_less_exclusions.txt	LTP283	ltpFR	15	10	1	STREAM	1392	n/a	n/a	0	n/a	0	0	0	n/a	n/a	n/a	n/a	n/a
2470712	REC_WORD	wordpools/wasnorm_wordpool_less_exclusions.txt	LTP283	ltpFR	15	10	1	SLIDE	1326	n/a	n/a	0	n/a	0	0	0	n/a	n/a	n/a	n/a	n/a
2542121	WORD	wordpools/wasnorm_wordpool_less_exclusions.txt	LTP283	ltpFR	15	11	0	TICK	1463	n/a	n/a	0	n/a	0	0	0	0.57763671875	0.412841796875	1	lower	zerothre.ttf
2546165	WORD	wordpools/wasnorm_wordpool_less_exclusions.txt	LTP283	ltpFR	15	11	0	COYOTE	396	n/a	n/a	1	n/a	0	0	0	0.57763671875	0.412841796875	1	lower	zerothre.ttf
2550209	WORD	wordpools/wasnorm_wordpool_less_exclusions.txt	LTP283	ltpFR	15	11	0	WATER	1594	n/a	n/a	0	n/a	0	0	0	0.57763671875	0.412841796875	1	lower	zerothre.ttf
2554070	WORD	wordpools/wasnorm_wordpool_less_exclusions.txt	LTP283	ltpFR	15	11	0	RICE	1190	n/a	n/a	0	n/a	0	0	0	0.57763671875	0.412841796875	1	lower	zerothre.ttf
2557947	WORD	wordpools/wasnorm_wordpool_less_exclusions.txt	LTP283	ltpFR	15	11	0	PIT	1077	n/a	n/a	0	n/a	0	0	0	0.57763671875	0.412841796875	1	lower	zerothre.ttf
2561808	WORD	wordpools/wasnorm_wordpool_less_exclusions.txt	LTP283	ltpFR	15	11	0	SHOULDER	1294	n/a	n/a	1	n/a	0	0	0	0.57763671875	0.412841796875	1	lower	zerothre.ttf
2565952	WORD	wordpools/wasnorm_wordpool_less_exclusions.txt	LTP283	ltpFR	15	11	0	RUST	1219	n/a	n/a	0	n/a	0	0	0	0.57763671875	0.412841796875	1	lower	zerothre.ttf
2569779	WORD	wordpools/wasnorm_wordpool_less_exclusions.txt	LTP283	ltpFR	15	11	0	REPTILE	1185	n/a	n/a	1	n/a	0	0	0	0.57763671875	0.412841796875	1	lower	zerothre.ttf
2573723	WORD	wordpools/wasnorm_wordpool_less_exclusions.txt	LTP283	ltpFR	15	11	0	CHAMPION	279	n/a	n/a	1	n/a	0	0	0	0.57763671875	0.412841796875	1	lower	zerothre.ttf
2577551	WORD	wordpools/wasnorm_wordpool_less_exclusions.txt	LTP283	ltpFR	15	11	0	BUGGY	188	n/a	n/a	1	n/a	0	0	0	0.57763671875	0.412841796875	1	lower	zerothre.ttf
2581529	WORD	wordpools/wasnorm_wordpool_less_exclusions.txt	LTP283	ltpFR	15	11	0	RIB	1188	n/a	n/a	0	n/a	0	0	0	0.57763671875	0.412841796875	1	lower	zerothre.ttf
2585389	WORD	wordpools/wasnorm_wordpool_less_exclusions.txt	LTP283	ltpFR	15	11	0	CROWN	415	n/a	n/a	0	n/a	0	0	0	0.57763671875	0.412841796875	1	lower	zerothre.ttf
2589284	WORD	wordpools/wasnorm_wordpool_less_exclusions.txt	LTP283	ltpFR	15	11	0	PALACE	1006	n/a	n/a	1	n/a	0	0	0	0.57763671875	0.412841796875	1	lower	zerothre.ttf
2593328	WORD	wordpools/wasnorm_wordpool_less_exclusions.txt	LTP283	ltpFR	15	11	0	MONGOOSE	909	n/a	n/a	1	n/a	0	0	0	0.57763671875	0.412841796875	1	lower	zerothre.ttf
2597405	WORD	wordpools/wasnorm_wordpool_less_exclusions.txt	LTP283	ltpFR	15	11	0	GRILL	661	n/a	n/a	1	n/a	0	0	0	0.57763671875	0.412841796875	1	lower	zerothre.ttf
2601382	WORD	wordpools/wasnorm_wordpool_less_exclusions.txt	LTP283	ltpFR	15	11	0	WINNER	1615	n/a	n/a	1	n/a	0	0	0	0.57763671875	0.412841796875	1	lower	zerothre.ttf
2604395	START	n/a	LTP283	ltpFR	15	n/a	n/a	n/a	n/a	n/a	n/a	n/a	n/a	n/a	n/a	n/a	n/a	n/a	n/a	n/a	n/a
2605210	PROB	n/a	LTP283	ltpFR	15	n/a	n/a	n/a	n/a	n/a	n/a	n/a	6	3	1	2	n/a	n/a	n/a	n/a	n/a
2608122	PROB	n/a	LTP283	ltpFR	15	n/a	n/a	n/a	n/a	n/a	n/a	n/a	19	4	9	6	n/a	n/a	n/a	n/a	n/a
2612394	STOP	n/a	LTP283	ltpFR	15	n/a	n/a	n/a	n/a	n/a	n/a	n/a	n/a	n/a	n/a	n/a	n/a	n/a	n/a	n/a	n/a
2614180	REC_START	n/a	LTP283	ltpFR	15	11	n/a	n/a	n/a	n/a	n/a	n/a	n/a	0	0	0	n/a	n/a	n/a	n/a	n/a
2616473	REC_WORD_VV	wordpools/wasnorm_wordpool_less_exclusions.txt	LTP283	ltpFR	15	11	n/a	<>	-1	n/a	n/a	n/a	n/a	0	0	0	n/a	n/a	n/a	n/a	n/a
2617968	REC_WORD	wordpools/wasnorm_wordpool_less_exclusions.txt	LTP283	ltpFR	15	11	0	PALACE	1006	n/a	n/a	1	n/a	0	0	0	n/a	n/a	n/a	n/a	n/a
2618966	REC_WORD	wordpools/wasnorm_wordpool_less_exclusions.txt	LTP283	ltpFR	15	11	0	CROWN	415	n/a	n/a	0	n/a	0	0	0	n/a	n/a	n/a	n/a	n/a
2620226	REC_WORD	wordpools/wasnorm_wordpool_less_exclusions.txt	LTP283	ltpFR	15	11	0	BUGGY	188	n/a	n/a	1	n/a	0	0	0	n/a	n/a	n/a	n/a	n/a
2622884	REC_WORD	wordpools/wasnorm_wordpool_less_exclusions.txt	LTP283	ltpFR	15	11	0	WINNER	1615	n/a	n/a	1	n/a	0	0	0	n/a	n/a	n/a	n/a	n/a
2623655	REC_WORD	wordpools/wasnorm_wordpool_less_exclusions.txt	LTP283	ltpFR	15	11	0	CHAMPION	279	n/a	n/a	1	n/a	0	0	0	n/a	n/a	n/a	n/a	n/a
2626126	REC_WORD	wordpools/wasnorm_wordpool_less_exclusions.txt	LTP283	ltpFR	15	11	0	GRILL	661	n/a	n/a	1	n/a	0	0	0	n/a	n/a	n/a	n/a	n/a
2627418	REC_WORD	wordpools/wasnorm_wordpool_less_exclusions.txt	LTP283	ltpFR	15	11	0	RUST	1219	n/a	n/a	0	n/a	0	0	0	n/a	n/a	n/a	n/a	n/a
2631220	REC_WORD	wordpools/wasnorm_wordpool_less_exclusions.txt	LTP283	ltpFR	15	11	0	MONGOOSE	909	n/a	n/a	1	n/a	0	0	0	n/a	n/a	n/a	n/a	n/a
2636774	REC_WORD	wordpools/wasnorm_wordpool_less_exclusions.txt	LTP283	ltpFR	15	11	0	COYOTE	396	n/a	n/a	1	n/a	0	0	0	n/a	n/a	n/a	n/a	n/a
2638761	REC_WORD	wordpools/wasnorm_wordpool_less_exclusions.txt	LTP283	ltpFR	15	11	0	COYOTE	396	n/a	n/a	1	n/a	0	0	0	n/a	n/a	n/a	n/a	n/a
2640310	REC_WORD	wordpools/wasnorm_wordpool_less_exclusions.txt	LTP283	ltpFR	15	11	0	PIT	1077	n/a	n/a	0	n/a	0	0	0	n/a	n/a	n/a	n/a	n/a
2643535	REC_WORD	wordpools/wasnorm_wordpool_less_exclusions.txt	LTP283	ltpFR	15	11	0	TICK	1463	n/a	n/a	0	n/a	0	0	0	n/a	n/a	n/a	n/a	n/a
2644522	REC_WORD	wordpools/wasnorm_wordpool_less_exclusions.txt	LTP283	ltpFR	15	11	0	RICE	1190	n/a	n/a	0	n/a	0	0	0	n/a	n/a	n/a	n/a	n/a
2645472	REC_WORD	wordpools/wasnorm_wordpool_less_exclusions.txt	LTP283	ltpFR	15	11	0	WATER	1594	n/a	n/a	0	n/a	0	0	0	n/a	n/a	n/a	n/a	n/a
2647538	REC_WORD	wordpools/wasnorm_wordpool_less_exclusions.txt	LTP283	ltpFR	15	11	0	RIB	1188	n/a	n/a	0	n/a	0	0	0	n/a	n/a	n/a	n/a	n/a
2649215	REC_WORD	wordpools/wasnorm_wordpool_less_exclusions.txt	LTP283	ltpFR	15	11	0	SHOULDER	1294	n/a	n/a	1	n/a	0	0	0	n/a	n/a	n/a	n/a	n/a
2673481	REC_WORD	wordpools/wasnorm_wordpool_less_exclusions.txt	LTP283	ltpFR	15	11	0	REPTILE	1185	n/a	n/a	1	n/a	0	0	0	n/a	n/a	n/a	n/a	n/a
2677042	REC_WORD_VV	wordpools/wasnorm_wordpool_less_exclusions.txt	LTP283	ltpFR	15	11	n/a	<>	-1	n/a	n/a	n/a	n/a	0	0	0	n/a	n/a	n/a	n/a	n/a
2690333	START	n/a	LTP283	ltpFR	15	n/a	n/a	n/a	n/a	n/a	n/a	n/a	n/a	n/a	n/a	n/a	n/a	n/a	n/a	n/a	n/a
2691847	PROB	n/a	LTP283	ltpFR	15	n/a	n/a	n/a	n/a	n/a	n/a	n/a	16	6	4	6	n/a	n/a	n/a	n/a	n/a
2693678	PROB	n/a	LTP283	ltpFR	15	n/a	n/a	n/a	n/a	n/a	n/a	n/a	20	6	8	6	n/a	n/a	n/a	n/a	n/a
2695425	PROB	n/a	LTP283	ltpFR	15	n/a	n/a	n/a	n/a	n/a	n/a	n/a	1	9	2	7	n/a	n/a	n/a	n/a	n/a
2696856	PROB	n/a	LTP283	ltpFR	15	n/a	n/a	n/a	n/a	n/a	n/a	n/a	10	1	4	5	n/a	n/a	n/a	n/a	n/a
2698071	PROB	n/a	LTP283	ltpFR	15	n/a	n/a	n/a	n/a	n/a	n/a	n/a	10	3	2	5	n/a	n/a	n/a	n/a	n/a
2699336	PROB	n/a	LTP283	ltpFR	15	n/a	n/a	n/a	n/a	n/a	n/a	n/a	13	5	2	6	n/a	n/a	n/a	n/a	n/a
2700950	PROB	n/a	LTP283	ltpFR	15	n/a	n/a	n/a	n/a	n/a	n/a	n/a	21	9	9	3	n/a	n/a	n/a	n/a	n/a
2702115	PROB	n/a	LTP283	ltpFR	15	n/a	n/a	n/a	n/a	n/a	n/a	n/a	11	5	1	5	n/a	n/a	n/a	n/a	n/a
2703230	PROB	n/a	LTP283	ltpFR	15	n/a	n/a	n/a	n/a	n/a	n/a	n/a	16	6	9	1	n/a	n/a	n/a	n/a	n/a
2704428	PROB	n/a	LTP283	ltpFR	15	n/a	n/a	n/a	n/a	n/a	n/a	n/a	15	3	8	4	n/a	n/a	n/a	n/a	n/a
2706250	STOP	n/a	LTP283	ltpFR	15	n/a	n/a	n/a	n/a	n/a	n/a	n/a	n/a	n/a	n/a	n/a	n/a	n/a	n/a	n/a	n/a
2707324	WORD	wordpools/wasnorm_wordpool_less_exclusions.txt	LTP283	ltpFR	15	12	0	TERMITE	1451	n/a	n/a	0	n/a	0	0	0	0.57763671875	0.412841796875	1	lower	zerothre.ttf
2710337	START	n/a	LTP283	ltpFR	15	n/a	n/a	n/a	n/a	n/a	n/a	n/a	n/a	n/a	n/a	n/a	n/a	n/a	n/a	n/a	n/a
2711152	PROB	n/a	LTP283	ltpFR	15	n/a	n/a	n/a	n/a	n/a	n/a	n/a	15	8	4	3	n/a	n/a	n/a	n/a	n/a
2712899	PROB	n/a	LTP283	ltpFR	15	n/a	n/a	n/a	n/a	n/a	n/a	n/a	9	1	5	3	n/a	n/a	n/a	n/a	n/a
2714363	PROB	n/a	LTP283	ltpFR	15	n/a	n/a	n/a	n/a	n/a	n/a	n/a	16	3	8	5	n/a	n/a	n/a	n/a	n/a
