onset	duration	trial_type	sample	stim_file	subject	experiment	session	trial	item_name	item_num	list	answer	test_x	test_y	test_z
203.77734375	n/a	SESS_START	417336	n/a	LTP341	ltpFR2	9	n/a	n/a	n/a	n/a	n/a	0	0	0
220.9892578125	n/a	START	452586	n/a	LTP341	ltpFR2	9	n/a	n/a	n/a	-1	n/a	n/a	n/a	n/a
221.01953125	n/a	PROB	452648	n/a	LTP341	ltpFR2	9	n/a	n/a	n/a	-1	20	8	5	7
222.65234375	n/a	PROB	455992	n/a	LTP341	ltpFR2	9	n/a	n/a	n/a	-1	15	7	2	6
223.767578125	n/a	PROB	458276	n/a	LTP341	ltpFR2	9	n/a	n/a	n/a	-1	5	1	3	1
224.70068359375	n/a	PROB	460187	n/a	LTP341	ltpFR2	9	n/a	n/a	n/a	-1	11	6	1	4
225.71630859375	n/a	PROB	462267	n/a	LTP341	ltpFR2	9	n/a	n/a	n/a	-1	6	3	2	1
226.7666015625	n/a	PROB	464418	n/a	LTP341	ltpFR2	9	n/a	n/a	n/a	-1	16	3	5	8
228.16552734375	n/a	PROB	467283	n/a	LTP341	ltpFR2	9	n/a	n/a	n/a	-1	11	2	2	7
229.38134765625	n/a	PROB	469773	n/a	LTP341	ltpFR2	9	n/a	n/a	n/a	-1	10	3	2	5
231.931640625	n/a	STOP	474996	n/a	LTP341	ltpFR2	9	n/a	n/a	n/a	-1	n/a	n/a	n/a	n/a
283.73876953125	n/a	DISTRACTOR	581097	n/a	LTP341	ltpFR2	9	1	n/a	n/a	n/a	n/a	0	0	0
283.73876953125	n/a	START	581097	n/a	LTP341	ltpFR2	9	n/a	n/a	n/a	1	n/a	n/a	n/a	n/a
283.7548828125	n/a	PROB	581130	n/a	LTP341	ltpFR2	9	n/a	n/a	n/a	1	14	5	4	5
285.220703125	n/a	PROB	584132	n/a	LTP341	ltpFR2	9	n/a	n/a	n/a	1	6	1	2	3
286.25390625	n/a	PROB	586248	n/a	LTP341	ltpFR2	9	n/a	n/a	n/a	1	18	2	9	7
287.787109375	n/a	PROB	589388	n/a	LTP341	ltpFR2	9	n/a	n/a	n/a	1	13	2	7	4
288.8359375	n/a	PROB	591536	n/a	LTP341	ltpFR2	9	n/a	n/a	n/a	1	9	4	3	2
289.9521484375	n/a	PROB	593822	n/a	LTP341	ltpFR2	9	n/a	n/a	n/a	1	16	4	3	9
291.2177734375	n/a	PROB	596414	n/a	LTP341	ltpFR2	9	n/a	n/a	n/a	1	7	4	1	2
292.41796875	n/a	PROB	598872	n/a	LTP341	ltpFR2	9	n/a	n/a	n/a	1	17	3	8	6
293.7001953125	n/a	PROB	601498	n/a	LTP341	ltpFR2	9	n/a	n/a	n/a	1	13	9	3	1
294.65087890625	n/a	PROB	603445	n/a	LTP341	ltpFR2	9	n/a	n/a	n/a	1	15	3	7	5
296.19921875	n/a	PROB	606616	n/a	LTP341	ltpFR2	9	n/a	n/a	n/a	1	13	5	3	5
297.51513671875	n/a	PROB	609311	n/a	LTP341	ltpFR2	9	n/a	n/a	n/a	1	12	1	8	3
298.39794921875	n/a	PROB	611119	n/a	LTP341	ltpFR2	9	n/a	n/a	n/a	1	11	4	2	5
299.76416015625	n/a	PROB	613917	n/a	LTP341	ltpFR2	9	n/a	n/a	n/a	1	1	4	9	2
300.81298828125	n/a	PROB	616065	n/a	LTP341	ltpFR2	9	n/a	n/a	n/a	1	13	2	5	6
301.89599609375	n/a	PROB	618283	n/a	LTP341	ltpFR2	9	n/a	n/a	n/a	1	17	9	6	2
303.6630859375	n/a	PROB	621902	n/a	LTP341	ltpFR2	9	n/a	n/a	n/a	1	22	9	4	9
305.1279296875	n/a	PROB	624902	n/a	LTP341	ltpFR2	9	n/a	n/a	n/a	1	14	5	4	5
306.02685546875	n/a	PROB	626743	n/a	LTP341	ltpFR2	9	n/a	n/a	n/a	1	16	1	6	9
307.01220703125	n/a	STOP	628761	n/a	LTP341	ltpFR2	9	n/a	n/a	n/a	1	n/a	n/a	n/a	n/a
308.89306640625	n/a	WORD	632613	wordpools/wasnorm_wordpool_576.txt	LTP341	ltpFR2	9	1	MUSTARD	935	n/a	n/a	0	0	0
311.72509765625	n/a	WORD	638413	wordpools/wasnorm_wordpool_576.txt	LTP341	ltpFR2	9	1	CASHEW	253	n/a	n/a	0	0	0
314.42333984375	n/a	WORD	643939	wordpools/wasnorm_wordpool_576.txt	LTP341	ltpFR2	9	1	PEANUT	1032	n/a	n/a	0	0	0
316.955078125	n/a	WORD	649124	wordpools/wasnorm_wordpool_576.txt	LTP341	ltpFR2	9	1	BLENDER	136	n/a	n/a	0	0	0
319.4873046875	n/a	WORD	654310	wordpools/wasnorm_wordpool_576.txt	LTP341	ltpFR2	9	1	COMET	353	n/a	n/a	0	0	0
322.119140625	n/a	WORD	659700	wordpools/wasnorm_wordpool_576.txt	LTP341	ltpFR2	9	1	FLASK	576	n/a	n/a	0	0	0
324.76806640625	n/a	WORD	665125	wordpools/wasnorm_wordpool_576.txt	LTP341	ltpFR2	9	1	FLEET	578	n/a	n/a	0	0	0
327.3173828125	n/a	WORD	670346	wordpools/wasnorm_wordpool_576.txt	LTP341	ltpFR2	9	1	STUDENT	1395	n/a	n/a	0	0	0
329.8994140625	n/a	WORD	675634	wordpools/wasnorm_wordpool_576.txt	LTP341	ltpFR2	9	1	VICTIM	1562	n/a	n/a	0	0	0
332.53125	n/a	WORD	681024	wordpools/wasnorm_wordpool_576.txt	LTP341	ltpFR2	9	1	JEANS	752	n/a	n/a	0	0	0
335.13037109375	n/a	WORD	686347	wordpools/wasnorm_wordpool_576.txt	LTP341	ltpFR2	9	1	TWISTER	1530	n/a	n/a	0	0	0
337.92822265625	n/a	WORD	692077	wordpools/wasnorm_wordpool_576.txt	LTP341	ltpFR2	9	1	RELISH	1183	n/a	n/a	0	0	0
340.6943359375	n/a	WORD	697742	wordpools/wasnorm_wordpool_576.txt	LTP341	ltpFR2	9	1	COLLEGE	346	n/a	n/a	0	0	0
343.2421875	n/a	WORD	702960	wordpools/wasnorm_wordpool_576.txt	LTP341	ltpFR2	9	1	MONSTER	912	n/a	n/a	0	0	0
345.80859375	n/a	WORD	708216	wordpools/wasnorm_wordpool_576.txt	LTP341	ltpFR2	9	1	SEAL	1262	n/a	n/a	0	0	0
348.29052734375	n/a	WORD	713299	wordpools/wasnorm_wordpool_576.txt	LTP341	ltpFR2	9	1	FARMER	553	n/a	n/a	0	0	0
351.10546875	n/a	WORD	719064	wordpools/wasnorm_wordpool_576.txt	LTP341	ltpFR2	9	1	BUTCHER	203	n/a	n/a	0	0	0
353.75439453125	n/a	WORD	724489	wordpools/wasnorm_wordpool_576.txt	LTP341	ltpFR2	9	1	JUGGLER	763	n/a	n/a	0	0	0
356.4365234375	n/a	WORD	729982	wordpools/wasnorm_wordpool_576.txt	LTP341	ltpFR2	9	1	COLONEL	348	n/a	n/a	0	0	0
358.96826171875	n/a	WORD	735167	wordpools/wasnorm_wordpool_576.txt	LTP341	ltpFR2	9	1	MARINE	869	n/a	n/a	0	0	0
361.6513671875	n/a	WORD	740662	wordpools/wasnorm_wordpool_576.txt	LTP341	ltpFR2	9	1	SADDLE	1221	n/a	n/a	0	0	0
364.099609375	n/a	WORD	745676	wordpools/wasnorm_wordpool_576.txt	LTP341	ltpFR2	9	1	STICKER	1382	n/a	n/a	0	0	0
366.63232421875	n/a	WORD	750863	wordpools/wasnorm_wordpool_576.txt	LTP341	ltpFR2	9	1	GARDEN	623	n/a	n/a	0	0	0
369.07958984375	n/a	WORD	755875	wordpools/wasnorm_wordpool_576.txt	LTP341	ltpFR2	9	1	PECAN	1036	n/a	n/a	0	0	0
370.6953125	n/a	START	759184	n/a	LTP341	ltpFR2	9	n/a	n/a	n/a	2	n/a	n/a	n/a	n/a
371.732421875	n/a	DISTRACTOR	761308	n/a	LTP341	ltpFR2	9	1	n/a	n/a	n/a	n/a	0	0	0
371.74560546875	n/a	PROB	761335	n/a	LTP341	ltpFR2	9	n/a	n/a	n/a	2	9	3	4	2
374.0107421875	n/a	PROB	765974	n/a	LTP341	ltpFR2	9	n/a	n/a	n/a	2	16	5	5	6
375.07763671875	n/a	PROB	768159	n/a	LTP341	ltpFR2	9	n/a	n/a	n/a	2	14	1	5	8
376.0263671875	n/a	PROB	770102	n/a	LTP341	ltpFR2	9	n/a	n/a	n/a	2	21	9	6	6
377.3427734375	n/a	PROB	772798	n/a	LTP341	ltpFR2	9	n/a	n/a	n/a	2	11	1	7	3
378.24267578125	n/a	PROB	774641	n/a	LTP341	ltpFR2	9	n/a	n/a	n/a	2	10	2	6	2
379.24169921875	n/a	PROB	776687	n/a	LTP341	ltpFR2	9	n/a	n/a	n/a	2	10	2	7	1
380.54052734375	n/a	PROB	779347	n/a	LTP341	ltpFR2	9	n/a	n/a	n/a	2	8	2	2	4
381.890625	n/a	PROB	782112	n/a	LTP341	ltpFR2	9	n/a	n/a	n/a	2	19	7	5	7
383.556640625	n/a	PROB	785524	n/a	LTP341	ltpFR2	9	n/a	n/a	n/a	2	11	4	5	2
384.62353515625	n/a	PROB	787709	n/a	LTP341	ltpFR2	9	n/a	n/a	n/a	2	18	2	9	7
386.138671875	n/a	PROB	790812	n/a	LTP341	ltpFR2	9	n/a	n/a	n/a	2	18	8	5	5
387.470703125	n/a	PROB	793540	n/a	LTP341	ltpFR2	9	n/a	n/a	n/a	2	1	3	8	3
388.73681640625	n/a	PROB	796133	n/a	LTP341	ltpFR2	9	n/a	n/a	n/a	2	18	8	5	5
389.9365234375	n/a	PROB	798590	n/a	LTP341	ltpFR2	9	n/a	n/a	n/a	2	25	9	7	9
391.61962890625	n/a	PROB	802037	n/a	LTP341	ltpFR2	9	n/a	n/a	n/a	2	22	6	7	9
393.3564453125	n/a	STOP	805594	n/a	LTP341	ltpFR2	9	n/a	n/a	n/a	2	n/a	n/a	n/a	n/a
396.56689453125	n/a	REC_START	812169	n/a	LTP341	ltpFR2	9	1	n/a	n/a	n/a	n/a	0	0	0
396.65673828125	n/a	REC_WORD	812353	wordpools/wasnorm_wordpool_576.txt	LTP341	ltpFR2	9	1	SADDLE	1221	n/a	n/a	0	0	0
397.267578125	n/a	REC_WORD	813604	wordpools/wasnorm_wordpool_576.txt	LTP341	ltpFR2	9	1	STICKER	1382	n/a	n/a	0	0	0
397.95361328125	n/a	REC_WORD	815009	wordpools/wasnorm_wordpool_576.txt	LTP341	ltpFR2	9	1	GARDEN	623	n/a	n/a	0	0	0
398.62255859375	n/a	REC_WORD	816379	wordpools/wasnorm_wordpool_576.txt	LTP341	ltpFR2	9	1	PECAN	1036	n/a	n/a	0	0	0
400.27392578125	n/a	REC_WORD	819761	wordpools/wasnorm_wordpool_576.txt	LTP341	ltpFR2	9	1	CASHEW	253	n/a	n/a	0	0	0
402.78759765625	n/a	REC_WORD	824909	wordpools/wasnorm_wordpool_576.txt	LTP341	ltpFR2	9	1	PEANUT	1032	n/a	n/a	0	0	0
403.966796875	n/a	REC_WORD	827324	wordpools/wasnorm_wordpool_576.txt	LTP341	ltpFR2	9	1	BLENDER	136	n/a	n/a	0	0	0
404.60693359375	n/a	REC_WORD	828635	wordpools/wasnorm_wordpool_576.txt	LTP341	ltpFR2	9	1	FLASK	576	n/a	n/a	0	0	0
405.669921875	n/a	REC_WORD	830812	wordpools/wasnorm_wordpool_576.txt	LTP341	ltpFR2	9	1	COMET	353	n/a	n/a	0	0	0
406.33984375	n/a	REC_WORD	832184	wordpools/wasnorm_wordpool_576.txt	LTP341	ltpFR2	9	1	FLEET	578	n/a	n/a	0	0	0
408.56494140625	n/a	REC_WORD	836741	wordpools/wasnorm_wordpool_576.txt	LTP341	ltpFR2	9	1	COLLEGE	346	n/a	n/a	0	0	0
409.81201171875	n/a	REC_WORD	839295	wordpools/wasnorm_wordpool_576.txt	LTP341	ltpFR2	9	1	VICTIM	1562	n/a	n/a	0	0	0
413.1728515625	n/a	REC_WORD	846178	wordpools/wasnorm_wordpool_576.txt	LTP341	ltpFR2	9	1	JEANS	752	n/a	n/a	0	0	0
414.65380859375	n/a	REC_WORD	849211	wordpools/wasnorm_wordpool_576.txt	LTP341	ltpFR2	9	1	TWISTER	1530	n/a	n/a	0	0	0
418.837890625	n/a	REC_WORD	857780	wordpools/wasnorm_wordpool_576.txt	LTP341	ltpFR2	9	1	MONSTER	912	n/a	n/a	0	0	0
419.65283203125	n/a	REC_WORD	859449	wordpools/wasnorm_wordpool_576.txt	LTP341	ltpFR2	9	1	SEAL	1262	n/a	n/a	0	0	0
422.927734375	n/a	REC_WORD	866156	wordpools/wasnorm_wordpool_576.txt	LTP341	ltpFR2	9	1	JUGGLER	763	n/a	n/a	0	0	0
487.00537109375	n/a	DISTRACTOR	997387	n/a	LTP341	ltpFR2	9	2	n/a	n/a	n/a	n/a	0	0	0
487.00537109375	n/a	START	997387	n/a	LTP341	ltpFR2	9	n/a	n/a	n/a	3	n/a	n/a	n/a	n/a
487.0224609375	n/a	PROB	997422	n/a	LTP341	ltpFR2	9	n/a	n/a	n/a	3	15	4	4	7
488.80419921875	n/a	PROB	1001071	n/a	LTP341	ltpFR2	9	n/a	n/a	n/a	3	12	1	6	5
489.72021484375	n/a	PROB	1002947	n/a	LTP341	ltpFR2	9	n/a	n/a	n/a	3	14	9	2	3
490.9033203125	n/a	PROB	1005370	n/a	LTP341	ltpFR2	9	n/a	n/a	n/a	3	14	3	4	7
492.21923828125	n/a	PROB	1008065	n/a	LTP341	ltpFR2	9	n/a	n/a	n/a	3	19	5	8	6
493.55224609375	n/a	PROB	1010795	n/a	LTP341	ltpFR2	9	n/a	n/a	n/a	3	8	1	3	4
494.701171875	n/a	PROB	1013148	n/a	LTP341	ltpFR2	9	n/a	n/a	n/a	3	9	4	1	4
496.017578125	n/a	PROB	1015844	n/a	LTP341	ltpFR2	9	n/a	n/a	n/a	3	19	8	2	9
497.1845703125	n/a	PROB	1018234	n/a	LTP341	ltpFR2	9	n/a	n/a	n/a	3	13	5	6	2
498.150390625	n/a	PROB	1020212	n/a	LTP341	ltpFR2	9	n/a	n/a	n/a	3	7	1	3	3
499.29931640625	n/a	PROB	1022565	n/a	LTP341	ltpFR2	9	n/a	n/a	n/a	3	18	5	7	6
501.3154296875	n/a	PROB	1026694	n/a	LTP341	ltpFR2	9	n/a	n/a	n/a	3	17	7	9	1
502.46435546875	n/a	PROB	1029047	n/a	LTP341	ltpFR2	9	n/a	n/a	n/a	3	15	5	6	4
503.5302734375	n/a	PROB	1031230	n/a	LTP341	ltpFR2	9	n/a	n/a	n/a	3	10	5	1	4
504.66455078125	n/a	PROB	1033553	n/a	LTP341	ltpFR2	9	n/a	n/a	n/a	3	18	7	4	7
506.16259765625	n/a	PROB	1036621	n/a	LTP341	ltpFR2	9	n/a	n/a	n/a	3	19	3	9	7
507.32958984375	n/a	PROB	1039011	n/a	LTP341	ltpFR2	9	n/a	n/a	n/a	3	14	4	7	3
508.6123046875	n/a	PROB	1041638	n/a	LTP341	ltpFR2	9	n/a	n/a	n/a	3	1	1	2	9
511.00537109375	n/a	STOP	1046539	n/a	LTP341	ltpFR2	9	n/a	n/a	n/a	3	n/a	n/a	n/a	n/a
512.060546875	n/a	WORD	1048700	wordpools/wasnorm_wordpool_576.txt	LTP341	ltpFR2	9	2	PERFUME	1049	n/a	n/a	0	0	0
514.87548828125	n/a	WORD	1054465	wordpools/wasnorm_wordpool_576.txt	LTP341	ltpFR2	9	2	GARLIC	624	n/a	n/a	0	0	0
517.49072265625	n/a	WORD	1059821	wordpools/wasnorm_wordpool_576.txt	LTP341	ltpFR2	9	2	SCOTCH	1251	n/a	n/a	0	0	0
520.1396484375	n/a	WORD	1065246	wordpools/wasnorm_wordpool_576.txt	LTP341	ltpFR2	9	2	ATOM	55	n/a	n/a	0	0	0
522.82177734375	n/a	WORD	1070739	wordpools/wasnorm_wordpool_576.txt	LTP341	ltpFR2	9	2	BABY	64	n/a	n/a	0	0	0
525.51953125	n/a	WORD	1076264	wordpools/wasnorm_wordpool_576.txt	LTP341	ltpFR2	9	2	STALLION	1369	n/a	n/a	0	0	0
528.11865234375	n/a	WORD	1081587	wordpools/wasnorm_wordpool_576.txt	LTP341	ltpFR2	9	2	HORSE	719	n/a	n/a	0	0	0
530.56787109375	n/a	WORD	1086603	wordpools/wasnorm_wordpool_576.txt	LTP341	ltpFR2	9	2	LIPSTICK	829	n/a	n/a	0	0	0
533.1826171875	n/a	WORD	1091958	wordpools/wasnorm_wordpool_576.txt	LTP341	ltpFR2	9	2	CHILD	299	n/a	n/a	0	0	0
535.66552734375	n/a	WORD	1097043	wordpools/wasnorm_wordpool_576.txt	LTP341	ltpFR2	9	2	DRUG	501	n/a	n/a	0	0	0
538.4638671875	n/a	WORD	1102774	wordpools/wasnorm_wordpool_576.txt	LTP341	ltpFR2	9	2	FLIPPER	580	n/a	n/a	0	0	0
541.19580078125	n/a	WORD	1108369	wordpools/wasnorm_wordpool_576.txt	LTP341	ltpFR2	9	2	CHIPMUNK	304	n/a	n/a	0	0	0
543.89453125	n/a	WORD	1113896	wordpools/wasnorm_wordpool_576.txt	LTP341	ltpFR2	9	2	BARREL	91	n/a	n/a	0	0	0
546.54296875	n/a	WORD	1119320	wordpools/wasnorm_wordpool_576.txt	LTP341	ltpFR2	9	2	VALLEY	1545	n/a	n/a	0	0	0
549.1416015625	n/a	WORD	1124642	wordpools/wasnorm_wordpool_576.txt	LTP341	ltpFR2	9	2	CLIMBER	323	n/a	n/a	0	0	0
551.82373046875	n/a	WORD	1130135	wordpools/wasnorm_wordpool_576.txt	LTP341	ltpFR2	9	2	CLOUD	328	n/a	n/a	0	0	0
554.57275390625	n/a	WORD	1135765	wordpools/wasnorm_wordpool_576.txt	LTP341	ltpFR2	9	2	STOMACH	1384	n/a	n/a	0	0	0
557.3876953125	n/a	WORD	1141530	wordpools/wasnorm_wordpool_576.txt	LTP341	ltpFR2	9	2	SHELTER	1282	n/a	n/a	0	0	0
560.052734375	n/a	WORD	1146988	wordpools/wasnorm_wordpool_576.txt	LTP341	ltpFR2	9	2	CAPTIVE	240	n/a	n/a	0	0	0
562.68505859375	n/a	WORD	1152379	wordpools/wasnorm_wordpool_576.txt	LTP341	ltpFR2	9	2	CARRIAGE	248	n/a	n/a	0	0	0
565.11669921875	n/a	WORD	1157359	wordpools/wasnorm_wordpool_576.txt	LTP341	ltpFR2	9	2	DRAGON	492	n/a	n/a	0	0	0
567.89892578125	n/a	WORD	1163057	wordpools/wasnorm_wordpool_576.txt	LTP341	ltpFR2	9	2	ISLAND	745	n/a	n/a	0	0	0
570.69775390625	n/a	WORD	1168789	wordpools/wasnorm_wordpool_576.txt	LTP341	ltpFR2	9	2	BEAVER	109	n/a	n/a	0	0	0
573.330078125	n/a	WORD	1174180	wordpools/wasnorm_wordpool_576.txt	LTP341	ltpFR2	9	2	GREASE	660	n/a	n/a	0	0	0
574.94580078125	n/a	START	1177489	n/a	LTP341	ltpFR2	9	n/a	n/a	n/a	4	n/a	n/a	n/a	n/a
575.875	n/a	DISTRACTOR	1179392	n/a	LTP341	ltpFR2	9	2	n/a	n/a	n/a	n/a	0	0	0
575.87890625	n/a	PROB	1179400	n/a	LTP341	ltpFR2	9	n/a	n/a	n/a	4	15	4	3	8
578.06103515625	n/a	PROB	1183869	n/a	LTP341	ltpFR2	9	n/a	n/a	n/a	4	13	5	5	3
579.10986328125	n/a	PROB	1186017	n/a	LTP341	ltpFR2	9	n/a	n/a	n/a	4	15	5	8	2
580.14306640625	n/a	PROB	1188133	n/a	LTP341	ltpFR2	9	n/a	n/a	n/a	4	19	6	7	6
581.576171875	n/a	PROB	1191068	n/a	LTP341	ltpFR2	9	n/a	n/a	n/a	4	16	5	9	2
582.85888671875	n/a	PROB	1193695	n/a	LTP341	ltpFR2	9	n/a	n/a	n/a	4	16	6	6	4
584.02490234375	n/a	PROB	1196083	n/a	LTP341	ltpFR2	9	n/a	n/a	n/a	4	12	5	4	3
585.4072265625	n/a	PROB	1198914	n/a	LTP341	ltpFR2	9	n/a	n/a	n/a	4	12	2	4	6
586.39013671875	n/a	PROB	1200927	n/a	LTP341	ltpFR2	9	n/a	n/a	n/a	4	17	1	8	8
587.5908203125	n/a	PROB	1203386	n/a	LTP341	ltpFR2	9	n/a	n/a	n/a	4	13	6	1	6
588.505859375	n/a	PROB	1205260	n/a	LTP341	ltpFR2	9	n/a	n/a	n/a	4	15	4	4	7
589.7392578125	n/a	PROB	1207786	n/a	LTP341	ltpFR2	9	n/a	n/a	n/a	4	12	1	7	4
590.73828125	n/a	PROB	1209832	n/a	LTP341	ltpFR2	9	n/a	n/a	n/a	4	11	6	4	1
591.6220703125	n/a	PROB	1211642	n/a	LTP341	ltpFR2	9	n/a	n/a	n/a	4	12	2	4	6
592.97021484375	n/a	PROB	1214403	n/a	LTP341	ltpFR2	9	n/a	n/a	n/a	4	9	3	4	2
594.654296875	n/a	PROB	1217852	n/a	LTP341	ltpFR2	9	n/a	n/a	n/a	4	5	2	2	1
595.6201171875	n/a	PROB	1219830	n/a	LTP341	ltpFR2	9	n/a	n/a	n/a	4	13	7	5	1
596.60302734375	n/a	PROB	1221843	n/a	LTP341	ltpFR2	9	n/a	n/a	n/a	4	15	4	5	6
597.7822265625	n/a	STOP	1224258	n/a	LTP341	ltpFR2	9	n/a	n/a	n/a	4	n/a	n/a	n/a	n/a
600.81689453125	n/a	REC_START	1230473	n/a	LTP341	ltpFR2	9	2	n/a	n/a	n/a	n/a	0	0	0
601.19189453125	n/a	REC_WORD	1231241	wordpools/wasnorm_wordpool_576.txt	LTP341	ltpFR2	9	2	DRAGON	492	n/a	n/a	0	0	0
601.80517578125	n/a	REC_WORD	1232497	wordpools/wasnorm_wordpool_576.txt	LTP341	ltpFR2	9	2	ISLAND	745	n/a	n/a	0	0	0
602.55322265625	n/a	REC_WORD	1234029	wordpools/wasnorm_wordpool_576.txt	LTP341	ltpFR2	9	2	BEAVER	109	n/a	n/a	0	0	0
603.84228515625	n/a	REC_WORD	1236669	wordpools/wasnorm_wordpool_576.txt	LTP341	ltpFR2	9	2	GREASE	660	n/a	n/a	0	0	0
612.00732421875	n/a	REC_WORD	1253391	wordpools/wasnorm_wordpool_576.txt	LTP341	ltpFR2	9	2	LIPSTICK	829	n/a	n/a	0	0	0
615.14404296875	n/a	REC_WORD	1259815	wordpools/wasnorm_wordpool_576.txt	LTP341	ltpFR2	9	2	GARLIC	624	n/a	n/a	0	0	0
615.93017578125	n/a	REC_WORD	1261425	wordpools/wasnorm_wordpool_576.txt	LTP341	ltpFR2	9	2	PERFUME	1049	n/a	n/a	0	0	0
619.22509765625	n/a	REC_WORD	1268173	wordpools/wasnorm_wordpool_576.txt	LTP341	ltpFR2	9	2	BABY	64	n/a	n/a	0	0	0
619.95947265625	n/a	REC_WORD	1269677	wordpools/wasnorm_wordpool_576.txt	LTP341	ltpFR2	9	2	CARRIAGE	248	n/a	n/a	0	0	0
620.896484375	n/a	REC_WORD	1271596	wordpools/wasnorm_wordpool_576.txt	LTP341	ltpFR2	9	2	CHILD	299	n/a	n/a	0	0	0
632.93017578125	n/a	REC_WORD	1296241	wordpools/wasnorm_wordpool_576.txt	LTP341	ltpFR2	9	2	ATOM	55	n/a	n/a	0	0	0
691.27197265625	n/a	WORD	1415725	wordpools/wasnorm_wordpool_576.txt	LTP341	ltpFR2	9	3	GAZELLE	628	n/a	n/a	0	0	0
694.07080078125	n/a	WORD	1421457	wordpools/wasnorm_wordpool_576.txt	LTP341	ltpFR2	9	3	STAR	1373	n/a	n/a	0	0	0
696.70263671875	n/a	WORD	1426847	wordpools/wasnorm_wordpool_576.txt	LTP341	ltpFR2	9	3	CIGAR	308	n/a	n/a	0	0	0
699.134765625	n/a	WORD	1431828	wordpools/wasnorm_wordpool_576.txt	LTP341	ltpFR2	9	3	JUDGE	761	n/a	n/a	0	0	0
701.833984375	n/a	WORD	1437356	wordpools/wasnorm_wordpool_576.txt	LTP341	ltpFR2	9	3	JURY	766	n/a	n/a	0	0	0
704.36572265625	n/a	WORD	1442541	wordpools/wasnorm_wordpool_576.txt	LTP341	ltpFR2	9	3	BLADE	134	n/a	n/a	0	0	0
707.0478515625	n/a	WORD	1448034	wordpools/wasnorm_wordpool_576.txt	LTP341	ltpFR2	9	3	HERO	706	n/a	n/a	0	0	0
709.47998046875	n/a	WORD	1453015	wordpools/wasnorm_wordpool_576.txt	LTP341	ltpFR2	9	3	KNIFE	785	n/a	n/a	0	0	0
712.27880859375	n/a	WORD	1458747	wordpools/wasnorm_wordpool_576.txt	LTP341	ltpFR2	9	3	FLAG	573	n/a	n/a	0	0	0
714.81103515625	n/a	WORD	1463933	wordpools/wasnorm_wordpool_576.txt	LTP341	ltpFR2	9	3	OZONE	996	n/a	n/a	0	0	0
717.41015625	n/a	WORD	1469256	wordpools/wasnorm_wordpool_576.txt	LTP341	ltpFR2	9	3	SWAMP	1416	n/a	n/a	0	0	0
720.125	n/a	WORD	1474816	wordpools/wasnorm_wordpool_576.txt	LTP341	ltpFR2	9	3	LIZARD	834	n/a	n/a	0	0	0
722.5908203125	n/a	WORD	1479866	wordpools/wasnorm_wordpool_576.txt	LTP341	ltpFR2	9	3	NOTEBOOK	959	n/a	n/a	0	0	0
725.30615234375	n/a	WORD	1485427	wordpools/wasnorm_wordpool_576.txt	LTP341	ltpFR2	9	3	RAZOR	1171	n/a	n/a	0	0	0
728.10400390625	n/a	WORD	1491157	wordpools/wasnorm_wordpool_576.txt	LTP341	ltpFR2	9	3	AGENT	10	n/a	n/a	0	0	0
730.80322265625	n/a	WORD	1496685	wordpools/wasnorm_wordpool_576.txt	LTP341	ltpFR2	9	3	CELLAR	267	n/a	n/a	0	0	0
733.60205078125	n/a	WORD	1502417	wordpools/wasnorm_wordpool_576.txt	LTP341	ltpFR2	9	3	BEAST	108	n/a	n/a	0	0	0
736.083984375	n/a	WORD	1507500	wordpools/wasnorm_wordpool_576.txt	LTP341	ltpFR2	9	3	ZEBRA	1635	n/a	n/a	0	0	0
738.83203125	n/a	WORD	1513128	wordpools/wasnorm_wordpool_576.txt	LTP341	ltpFR2	9	3	SCRIBBLE	1256	n/a	n/a	0	0	0
741.51416015625	n/a	WORD	1518621	wordpools/wasnorm_wordpool_576.txt	LTP341	ltpFR2	9	3	LION	827	n/a	n/a	0	0	0
744.1298828125	n/a	WORD	1523978	wordpools/wasnorm_wordpool_576.txt	LTP341	ltpFR2	9	3	BUREAU	199	n/a	n/a	0	0	0
746.89501953125	n/a	WORD	1529641	wordpools/wasnorm_wordpool_576.txt	LTP341	ltpFR2	9	3	SILK	1307	n/a	n/a	0	0	0
749.376953125	n/a	WORD	1534724	wordpools/wasnorm_wordpool_576.txt	LTP341	ltpFR2	9	3	CHAUFFEUR	283	n/a	n/a	0	0	0
751.859375	n/a	WORD	1539808	wordpools/wasnorm_wordpool_576.txt	LTP341	ltpFR2	9	3	WAITER	1580	n/a	n/a	0	0	0
753.47509765625	n/a	START	1543117	n/a	LTP341	ltpFR2	9	n/a	n/a	n/a	5	n/a	n/a	n/a	n/a
754.6591796875	n/a	DISTRACTOR	1545542	n/a	LTP341	ltpFR2	9	3	n/a	n/a	n/a	n/a	0	0	0
754.67529296875	n/a	PROB	1545575	n/a	LTP341	ltpFR2	9	n/a	n/a	n/a	5	17	6	8	3
756.50732421875	n/a	PROB	1549327	n/a	LTP341	ltpFR2	9	n/a	n/a	n/a	5	9	2	2	5
757.5234375	n/a	PROB	1551408	n/a	LTP341	ltpFR2	9	n/a	n/a	n/a	5	14	8	1	5
758.43896484375	n/a	PROB	1553283	n/a	LTP341	ltpFR2	9	n/a	n/a	n/a	5	23	8	8	7
761.0712890625	n/a	PROB	1558674	n/a	LTP341	ltpFR2	9	n/a	n/a	n/a	5	10	2	7	1
762.2041015625	n/a	PROB	1560994	n/a	LTP341	ltpFR2	9	n/a	n/a	n/a	5	20	3	8	9
763.4873046875	n/a	PROB	1563622	n/a	LTP341	ltpFR2	9	n/a	n/a	n/a	5	17	8	6	3
764.76904296875	n/a	PROB	1566247	n/a	LTP341	ltpFR2	9	n/a	n/a	n/a	5	22	7	6	9
766.18505859375	n/a	PROB	1569147	n/a	LTP341	ltpFR2	9	n/a	n/a	n/a	5	11	8	1	2
767.318359375	n/a	PROB	1571468	n/a	LTP341	ltpFR2	9	n/a	n/a	n/a	5	17	5	4	8
768.50146484375	n/a	PROB	1573891	n/a	LTP341	ltpFR2	9	n/a	n/a	n/a	5	17	9	2	6
769.68310546875	n/a	PROB	1576311	n/a	LTP341	ltpFR2	9	n/a	n/a	n/a	5	22	9	4	9
771.31640625	n/a	PROB	1579656	n/a	LTP341	ltpFR2	9	n/a	n/a	n/a	5	21	9	3	9
773.76513671875	n/a	PROB	1584671	n/a	LTP341	ltpFR2	9	n/a	n/a	n/a	5	16	2	6	8
775.08154296875	n/a	PROB	1587367	n/a	LTP341	ltpFR2	9	n/a	n/a	n/a	5	14	1	7	6
776.0234375	n/a	STOP	1589296	n/a	LTP341	ltpFR2	9	n/a	n/a	n/a	5	n/a	n/a	n/a	n/a
779.36328125	n/a	REC_START	1596136	n/a	LTP341	ltpFR2	9	3	n/a	n/a	n/a	n/a	0	0	0
783.8994140625	n/a	REC_WORD	1605426	wordpools/wasnorm_wordpool_576.txt	LTP341	ltpFR2	9	3	BEAST	108	n/a	n/a	0	0	0
784.82958984375	n/a	REC_WORD	1607331	wordpools/wasnorm_wordpool_576.txt	LTP341	ltpFR2	9	3	LION	827	n/a	n/a	0	0	0
786.4033203125	n/a	REC_WORD	1610554	wordpools/wasnorm_wordpool_576.txt	LTP341	ltpFR2	9	3	ZEBRA	1635	n/a	n/a	0	0	0
788.5673828125	n/a	REC_WORD	1614986	wordpools/wasnorm_wordpool_576.txt	LTP341	ltpFR2	9	3	WAITER	1580	n/a	n/a	0	0	0
789.95166015625	n/a	REC_WORD	1617821	wordpools/wasnorm_wordpool_576.txt	LTP341	ltpFR2	9	3	GAZELLE	628	n/a	n/a	0	0	0
791.5185546875	n/a	REC_WORD	1621030	wordpools/wasnorm_wordpool_576.txt	LTP341	ltpFR2	9	3	CIGAR	308	n/a	n/a	0	0	0
796.7373046875	n/a	REC_WORD	1631718	wordpools/wasnorm_wordpool_576.txt	LTP341	ltpFR2	9	3	JUDGE	761	n/a	n/a	0	0	0
798.20849609375	n/a	REC_WORD	1634731	wordpools/wasnorm_wordpool_576.txt	LTP341	ltpFR2	9	3	JURY	766	n/a	n/a	0	0	0
801.13671875	n/a	REC_WORD	1640728	wordpools/wasnorm_wordpool_576.txt	LTP341	ltpFR2	9	3	KNIFE	785	n/a	n/a	0	0	0
802.07568359375	n/a	REC_WORD	1642651	wordpools/wasnorm_wordpool_576.txt	LTP341	ltpFR2	9	3	BLADE	134	n/a	n/a	0	0	0
804.53076171875	n/a	REC_WORD	1647679	wordpools/wasnorm_wordpool_576.txt	LTP341	ltpFR2	9	3	HERO	706	n/a	n/a	0	0	0
869.81787109375	n/a	WORD	1781387	wordpools/wasnorm_wordpool_576.txt	LTP341	ltpFR2	9	4	LAPEL	800	n/a	n/a	0	0	0
872.31689453125	n/a	WORD	1786505	wordpools/wasnorm_wordpool_576.txt	LTP341	ltpFR2	9	4	LEG	809	n/a	n/a	0	0	0
874.9990234375	n/a	WORD	1791998	wordpools/wasnorm_wordpool_576.txt	LTP341	ltpFR2	9	4	PIANO	1057	n/a	n/a	0	0	0
877.48095703125	n/a	WORD	1797081	wordpools/wasnorm_wordpool_576.txt	LTP341	ltpFR2	9	4	SUNRISE	1407	n/a	n/a	0	0	0
880.01318359375	n/a	WORD	1802267	wordpools/wasnorm_wordpool_576.txt	LTP341	ltpFR2	9	4	REBEL	1172	n/a	n/a	0	0	0
882.81201171875	n/a	WORD	1807999	wordpools/wasnorm_wordpool_576.txt	LTP341	ltpFR2	9	4	COMPASS	358	n/a	n/a	0	0	0
885.31005859375	n/a	WORD	1813115	wordpools/wasnorm_wordpool_576.txt	LTP341	ltpFR2	9	4	RECEIPT	1173	n/a	n/a	0	0	0
887.94189453125	n/a	WORD	1818505	wordpools/wasnorm_wordpool_576.txt	LTP341	ltpFR2	9	4	MEAT	883	n/a	n/a	0	0	0
890.7412109375	n/a	WORD	1824238	wordpools/wasnorm_wordpool_576.txt	LTP341	ltpFR2	9	4	DIME	466	n/a	n/a	0	0	0
893.5400390625	n/a	WORD	1829970	wordpools/wasnorm_wordpool_576.txt	LTP341	ltpFR2	9	4	WRENCH	1625	n/a	n/a	0	0	0
896.10498046875	n/a	WORD	1835223	wordpools/wasnorm_wordpool_576.txt	LTP341	ltpFR2	9	4	CRATER	400	n/a	n/a	0	0	0
898.77001953125	n/a	WORD	1840681	wordpools/wasnorm_wordpool_576.txt	LTP341	ltpFR2	9	4	CLAMP	316	n/a	n/a	0	0	0
901.369140625	n/a	WORD	1846004	wordpools/wasnorm_wordpool_576.txt	LTP341	ltpFR2	9	4	MAILMAN	858	n/a	n/a	0	0	0
904.03515625	n/a	WORD	1851464	wordpools/wasnorm_wordpool_576.txt	LTP341	ltpFR2	9	4	PACKAGE	997	n/a	n/a	0	0	0
906.6669921875	n/a	WORD	1856854	wordpools/wasnorm_wordpool_576.txt	LTP341	ltpFR2	9	4	BEEF	113	n/a	n/a	0	0	0
909.18212890625	n/a	WORD	1862005	wordpools/wasnorm_wordpool_576.txt	LTP341	ltpFR2	9	4	PIGMENT	1066	n/a	n/a	0	0	0
911.814453125	n/a	WORD	1867396	wordpools/wasnorm_wordpool_576.txt	LTP341	ltpFR2	9	4	CRAYON	401	n/a	n/a	0	0	0
914.396484375	n/a	WORD	1872684	wordpools/wasnorm_wordpool_576.txt	LTP341	ltpFR2	9	4	OYSTER	995	n/a	n/a	0	0	0
917.09521484375	n/a	WORD	1878211	wordpools/wasnorm_wordpool_576.txt	LTP341	ltpFR2	9	4	QUARTER	1148	n/a	n/a	0	0	0
919.59423828125	n/a	WORD	1883329	wordpools/wasnorm_wordpool_576.txt	LTP341	ltpFR2	9	4	RECORD	1176	n/a	n/a	0	0	0
922.0751953125	n/a	WORD	1888410	wordpools/wasnorm_wordpool_576.txt	LTP341	ltpFR2	9	4	MASK	876	n/a	n/a	0	0	0
924.8583984375	n/a	WORD	1894110	wordpools/wasnorm_wordpool_576.txt	LTP341	ltpFR2	9	4	WORKER	1621	n/a	n/a	0	0	0
927.39013671875	n/a	WORD	1899295	wordpools/wasnorm_wordpool_576.txt	LTP341	ltpFR2	9	4	YARN	1631	n/a	n/a	0	0	0
930.0224609375	n/a	WORD	1904686	wordpools/wasnorm_wordpool_576.txt	LTP341	ltpFR2	9	4	FINGER	567	n/a	n/a	0	0	0
931.63916015625	n/a	START	1907997	n/a	LTP341	ltpFR2	9	n/a	n/a	n/a	6	n/a	n/a	n/a	n/a
932.8193359375	n/a	DISTRACTOR	1910414	n/a	LTP341	ltpFR2	9	4	n/a	n/a	n/a	n/a	0	0	0
932.83740234375	n/a	PROB	1910451	n/a	LTP341	ltpFR2	9	n/a	n/a	n/a	6	13	6	5	2
934.83642578125	n/a	PROB	1914545	n/a	LTP341	ltpFR2	9	n/a	n/a	n/a	6	5	2	1	2
935.8525390625	n/a	PROB	1916626	n/a	LTP341	ltpFR2	9	n/a	n/a	n/a	6	11	3	6	2
936.8515625	n/a	PROB	1918672	n/a	LTP341	ltpFR2	9	n/a	n/a	n/a	6	5	1	1	3
937.83447265625	n/a	PROB	1920685	n/a	LTP341	ltpFR2	9	n/a	n/a	n/a	6	9	2	6	1
938.9345703125	n/a	PROB	1922938	n/a	LTP341	ltpFR2	9	n/a	n/a	n/a	6	18	7	9	2
940.7666015625	n/a	PROB	1926690	n/a	LTP341	ltpFR2	9	n/a	n/a	n/a	6	14	2	3	9
942.06640625	n/a	PROB	1929352	n/a	LTP341	ltpFR2	9	n/a	n/a	n/a	6	13	1	8	4
942.982421875	n/a	PROB	1931228	n/a	LTP341	ltpFR2	9	n/a	n/a	n/a	6	24	7	8	9
944.79833984375	n/a	PROB	1934947	n/a	LTP341	ltpFR2	9	n/a	n/a	n/a	6	14	5	8	1
946.08056640625	n/a	PROB	1937573	n/a	LTP341	ltpFR2	9	n/a	n/a	n/a	6	16	8	2	6
947.87939453125	n/a	PROB	1941257	n/a	LTP341	ltpFR2	9	n/a	n/a	n/a	6	12	3	6	3
949.16259765625	n/a	PROB	1943885	n/a	LTP341	ltpFR2	9	n/a	n/a	n/a	6	19	9	3	7
951.4287109375	n/a	PROB	1948526	n/a	LTP341	ltpFR2	9	n/a	n/a	n/a	6	9	3	4	2
952.82763671875	n/a	PROB	1951391	n/a	LTP341	ltpFR2	9	n/a	n/a	n/a	6	7	2	2	3
955.20849609375	n/a	STOP	1956267	n/a	LTP341	ltpFR2	9	n/a	n/a	n/a	6	n/a	n/a	n/a	n/a
957.4423828125	n/a	REC_START	1960842	n/a	LTP341	ltpFR2	9	4	n/a	n/a	n/a	n/a	0	0	0
958.04443359375	n/a	REC_WORD	1962075	wordpools/wasnorm_wordpool_576.txt	LTP341	ltpFR2	9	4	PIGMENT	1066	n/a	n/a	0	0	0
958.57763671875	n/a	REC_WORD	1963167	wordpools/wasnorm_wordpool_576.txt	LTP341	ltpFR2	9	4	OYSTER	995	n/a	n/a	0	0	0
959.2275390625	n/a	REC_WORD	1964498	wordpools/wasnorm_wordpool_576.txt	LTP341	ltpFR2	9	4	RECORD	1176	n/a	n/a	0	0	0
959.7197265625	n/a	REC_WORD	1965506	wordpools/wasnorm_wordpool_576.txt	LTP341	ltpFR2	9	4	FINGER	567	n/a	n/a	0	0	0
961.62255859375	n/a	REC_WORD	1969403	wordpools/wasnorm_wordpool_576.txt	LTP341	ltpFR2	9	4	LAPEL	800	n/a	n/a	0	0	0
962.94677734375	n/a	REC_WORD	1972115	wordpools/wasnorm_wordpool_576.txt	LTP341	ltpFR2	9	4	LEG	809	n/a	n/a	0	0	0
963.87353515625	n/a	REC_WORD	1974013	wordpools/wasnorm_wordpool_576.txt	LTP341	ltpFR2	9	4	PIANO	1057	n/a	n/a	0	0	0
966.4775390625	n/a	REC_WORD	1979346	wordpools/wasnorm_wordpool_576.txt	LTP341	ltpFR2	9	4	SUNRISE	1407	n/a	n/a	0	0	0
967.65966796875	n/a	REC_WORD	1981767	wordpools/wasnorm_wordpool_576.txt	LTP341	ltpFR2	9	4	DIME	466	n/a	n/a	0	0	0
968.2568359375	n/a	REC_WORD	1982990	wordpools/wasnorm_wordpool_576.txt	LTP341	ltpFR2	9	4	RECEIPT	1173	n/a	n/a	0	0	0
969.310546875	n/a	REC_WORD	1985148	wordpools/wasnorm_wordpool_576.txt	LTP341	ltpFR2	9	4	REBEL	1172	n/a	n/a	0	0	0
972.69384765625	n/a	REC_WORD	1992077	wordpools/wasnorm_wordpool_576.txt	LTP341	ltpFR2	9	4	COMPASS	358	n/a	n/a	0	0	0
980.03857421875	n/a	REC_WORD	2007119	wordpools/wasnorm_wordpool_576.txt	LTP341	ltpFR2	9	4	MEAT	883	n/a	n/a	0	0	0
980.77783203125	n/a	REC_WORD	2008633	wordpools/wasnorm_wordpool_576.txt	LTP341	ltpFR2	9	4	BEEF	113	n/a	n/a	0	0	0
983.0869140625	n/a	REC_WORD	2013362	wordpools/wasnorm_wordpool_576.txt	LTP341	ltpFR2	9	4	CRAYON	401	n/a	n/a	0	0	0
1047.89697265625	n/a	WORD	2146093	wordpools/wasnorm_wordpool_576.txt	LTP341	ltpFR2	9	5	SUNSET	1408	n/a	n/a	0	0	0
1050.6142578125	n/a	WORD	2151658	wordpools/wasnorm_wordpool_576.txt	LTP341	ltpFR2	9	5	IDOL	733	n/a	n/a	0	0	0
1053.09521484375	n/a	WORD	2156739	wordpools/wasnorm_wordpool_576.txt	LTP341	ltpFR2	9	5	CRITIC	410	n/a	n/a	0	0	0
1055.8603515625	n/a	WORD	2162402	wordpools/wasnorm_wordpool_576.txt	LTP341	ltpFR2	9	5	COUSIN	392	n/a	n/a	0	0	0
1058.50927734375	n/a	WORD	2167827	wordpools/wasnorm_wordpool_576.txt	LTP341	ltpFR2	9	5	LOVER	846	n/a	n/a	0	0	0
1061.20751953125	n/a	WORD	2173353	wordpools/wasnorm_wordpool_576.txt	LTP341	ltpFR2	9	5	TRANSPLANT	1496	n/a	n/a	0	0	0
1063.740234375	n/a	WORD	2178540	wordpools/wasnorm_wordpool_576.txt	LTP341	ltpFR2	9	5	LETTUCE	814	n/a	n/a	0	0	0
1066.25537109375	n/a	WORD	2183691	wordpools/wasnorm_wordpool_576.txt	LTP341	ltpFR2	9	5	FRAGRANCE	599	n/a	n/a	0	0	0
1069.0205078125	n/a	WORD	2189354	wordpools/wasnorm_wordpool_576.txt	LTP341	ltpFR2	9	5	ONION	977	n/a	n/a	0	0	0
1071.50244140625	n/a	WORD	2194437	wordpools/wasnorm_wordpool_576.txt	LTP341	ltpFR2	9	5	CREVICE	405	n/a	n/a	0	0	0
1074.16845703125	n/a	WORD	2199897	wordpools/wasnorm_wordpool_576.txt	LTP341	ltpFR2	9	5	CATTLE	261	n/a	n/a	0	0	0
1076.66748046875	n/a	WORD	2205015	wordpools/wasnorm_wordpool_576.txt	LTP341	ltpFR2	9	5	GRAPE	654	n/a	n/a	0	0	0
1079.3486328125	n/a	WORD	2210506	wordpools/wasnorm_wordpool_576.txt	LTP341	ltpFR2	9	5	CLOCK	325	n/a	n/a	0	0	0
1082.0146484375	n/a	WORD	2215966	wordpools/wasnorm_wordpool_576.txt	LTP341	ltpFR2	9	5	SALMON	1227	n/a	n/a	0	0	0
1084.8125	n/a	WORD	2221696	wordpools/wasnorm_wordpool_576.txt	LTP341	ltpFR2	9	5	CHEST	295	n/a	n/a	0	0	0
1087.26123046875	n/a	WORD	2226711	wordpools/wasnorm_wordpool_576.txt	LTP341	ltpFR2	9	5	POPCORN	1104	n/a	n/a	0	0	0
1089.8603515625	n/a	WORD	2232034	wordpools/wasnorm_wordpool_576.txt	LTP341	ltpFR2	9	5	NIGHTGOWN	953	n/a	n/a	0	0	0
1092.392578125	n/a	WORD	2237220	wordpools/wasnorm_wordpool_576.txt	LTP341	ltpFR2	9	5	DUST	508	n/a	n/a	0	0	0
1094.82470703125	n/a	WORD	2242201	wordpools/wasnorm_wordpool_576.txt	LTP341	ltpFR2	9	5	MATTRESS	879	n/a	n/a	0	0	0
1097.3564453125	n/a	WORD	2247386	wordpools/wasnorm_wordpool_576.txt	LTP341	ltpFR2	9	5	SALT	1229	n/a	n/a	0	0	0
1100.03857421875	n/a	WORD	2252879	wordpools/wasnorm_wordpool_576.txt	LTP341	ltpFR2	9	5	APPLE	33	n/a	n/a	0	0	0
1102.70458984375	n/a	WORD	2258339	wordpools/wasnorm_wordpool_576.txt	LTP341	ltpFR2	9	5	BODY	145	n/a	n/a	0	0	0
1105.1865234375	n/a	WORD	2263422	wordpools/wasnorm_wordpool_576.txt	LTP341	ltpFR2	9	5	STAPLE	1371	n/a	n/a	0	0	0
1107.8515625	n/a	WORD	2268880	wordpools/wasnorm_wordpool_576.txt	LTP341	ltpFR2	9	5	PAPER	1011	n/a	n/a	0	0	0
1109.4677734375	n/a	START	2272190	n/a	LTP341	ltpFR2	9	n/a	n/a	n/a	7	n/a	n/a	n/a	n/a
1110.53857421875	n/a	DISTRACTOR	2274383	n/a	LTP341	ltpFR2	9	5	n/a	n/a	n/a	n/a	0	0	0
1110.55078125	n/a	PROB	2274408	n/a	LTP341	ltpFR2	9	n/a	n/a	n/a	7	13	4	8	1
1112.28271484375	n/a	PROB	2277955	n/a	LTP341	ltpFR2	9	n/a	n/a	n/a	7	24	6	9	8
1113.798828125	n/a	PROB	2281060	n/a	LTP341	ltpFR2	9	n/a	n/a	n/a	7	8	1	2	5
1115.24755859375	n/a	PROB	2284027	n/a	LTP341	ltpFR2	9	n/a	n/a	n/a	7	15	4	8	3
1116.6318359375	n/a	PROB	2286862	n/a	LTP341	ltpFR2	9	n/a	n/a	n/a	7	13	5	3	5
1117.896484375	n/a	PROB	2289452	n/a	LTP341	ltpFR2	9	n/a	n/a	n/a	7	19	9	8	2
1119.5625	n/a	PROB	2292864	n/a	LTP341	ltpFR2	9	n/a	n/a	n/a	7	9	1	4	4
1120.646484375	n/a	PROB	2295084	n/a	LTP341	ltpFR2	9	n/a	n/a	n/a	7	18	7	5	6
1122.0615234375	n/a	PROB	2297982	n/a	LTP341	ltpFR2	9	n/a	n/a	n/a	7	13	8	2	3
1124.27685546875	n/a	PROB	2302519	n/a	LTP341	ltpFR2	9	n/a	n/a	n/a	7	11	1	4	6
1125.29296875	n/a	PROB	2304600	n/a	LTP341	ltpFR2	9	n/a	n/a	n/a	7	24	7	8	9
1127.0087890625	n/a	PROB	2308114	n/a	LTP341	ltpFR2	9	n/a	n/a	n/a	7	17	5	8	4
1128.5927734375	n/a	PROB	2311358	n/a	LTP341	ltpFR2	9	n/a	n/a	n/a	7	17	5	8	4
1131.70654296875	n/a	PROB	2317735	n/a	LTP341	ltpFR2	9	n/a	n/a	n/a	7	22	8	5	9
1133.3779296875	n/a	STOP	2321158	n/a	LTP341	ltpFR2	9	n/a	n/a	n/a	7	n/a	n/a	n/a	n/a
1135.2216796875	n/a	REC_START	2324934	n/a	LTP341	ltpFR2	9	5	n/a	n/a	n/a	n/a	0	0	0
1135.7119140625	n/a	REC_WORD	2325938	wordpools/wasnorm_wordpool_576.txt	LTP341	ltpFR2	9	5	SALT	1229	n/a	n/a	0	0	0
1136.40380859375	n/a	REC_WORD	2327355	wordpools/wasnorm_wordpool_576.txt	LTP341	ltpFR2	9	5	APPLE	33	n/a	n/a	0	0	0
1136.89990234375	n/a	REC_WORD	2328371	wordpools/wasnorm_wordpool_576.txt	LTP341	ltpFR2	9	5	BODY	145	n/a	n/a	0	0	0
1137.263671875	n/a	REC_WORD	2329116	wordpools/wasnorm_wordpool_576.txt	LTP341	ltpFR2	9	5	STAPLE	1371	n/a	n/a	0	0	0
1137.9248046875	n/a	REC_WORD	2330470	wordpools/wasnorm_wordpool_576.txt	LTP341	ltpFR2	9	5	PAPER	1011	n/a	n/a	0	0	0
1139.44482421875	n/a	REC_WORD	2333583	wordpools/wasnorm_wordpool_576.txt	LTP341	ltpFR2	9	5	CRITIC	410	n/a	n/a	0	0	0
1140.07861328125	n/a	REC_WORD	2334881	wordpools/wasnorm_wordpool_576.txt	LTP341	ltpFR2	9	5	COUSIN	392	n/a	n/a	0	0	0
1140.955078125	n/a	REC_WORD	2336676	wordpools/wasnorm_wordpool_576.txt	LTP341	ltpFR2	9	5	LOVER	846	n/a	n/a	0	0	0
1141.6259765625	n/a	REC_WORD	2338050	wordpools/wasnorm_wordpool_576.txt	LTP341	ltpFR2	9	5	ONION	977	n/a	n/a	0	0	0
1142.1728515625	n/a	REC_WORD	2339170	wordpools/wasnorm_wordpool_576.txt	LTP341	ltpFR2	9	5	FRAGRANCE	599	n/a	n/a	0	0	0
1143.1728515625	n/a	REC_WORD_VV	2341218	wordpools/wasnorm_wordpool_576.txt	LTP341	ltpFR2	9	5	<>	-1	n/a	n/a	0	0	0
1153.302734375	n/a	REC_WORD	2361964	wordpools/wasnorm_wordpool_576.txt	LTP341	ltpFR2	9	5	DUST	508	n/a	n/a	0	0	0
1153.90185546875	n/a	REC_WORD	2363191	wordpools/wasnorm_wordpool_576.txt	LTP341	ltpFR2	9	5	MATTRESS	879	n/a	n/a	0	0	0
1157.10400390625	n/a	REC_WORD	2369749	wordpools/wasnorm_wordpool_576.txt	LTP341	ltpFR2	9	5	CHEST	295	n/a	n/a	0	0	0
1157.68603515625	n/a	REC_WORD	2370941	wordpools/wasnorm_wordpool_576.txt	LTP341	ltpFR2	9	5	SALMON	1227	n/a	n/a	0	0	0
1160.869140625	n/a	REC_WORD	2377460	wordpools/wasnorm_wordpool_576.txt	LTP341	ltpFR2	9	5	POPCORN	1104	n/a	n/a	0	0	0
1167.80517578125	n/a	REC_WORD	2391665	wordpools/wasnorm_wordpool_576.txt	LTP341	ltpFR2	9	5	SUNSET	1408	n/a	n/a	0	0	0
1180.6572265625	n/a	REC_WORD	2417986	wordpools/wasnorm_wordpool_576.txt	LTP341	ltpFR2	9	5	IDOL	733	n/a	n/a	0	0	0
1225.66162109375	n/a	DISTRACTOR	2510155	n/a	LTP341	ltpFR2	9	6	n/a	n/a	n/a	n/a	0	0	0
1225.66162109375	n/a	START	2510155	n/a	LTP341	ltpFR2	9	n/a	n/a	n/a	8	n/a	n/a	n/a	n/a
1225.67822265625	n/a	PROB	2510189	n/a	LTP341	ltpFR2	9	n/a	n/a	n/a	8	18	7	5	6
1227.42626953125	n/a	PROB	2513769	n/a	LTP341	ltpFR2	9	n/a	n/a	n/a	8	18	8	8	4
1228.859375	n/a	PROB	2516704	n/a	LTP341	ltpFR2	9	n/a	n/a	n/a	8	16	9	5	2
1230.3916015625	n/a	PROB	2519842	n/a	LTP341	ltpFR2	9	n/a	n/a	n/a	8	16	8	4	4
1231.857421875	n/a	PROB	2522844	n/a	LTP341	ltpFR2	9	n/a	n/a	n/a	8	17	2	6	9
1233.87353515625	n/a	PROB	2526973	n/a	LTP341	ltpFR2	9	n/a	n/a	n/a	8	15	7	7	1
1235.3896484375	n/a	PROB	2530078	n/a	LTP341	ltpFR2	9	n/a	n/a	n/a	8	11	2	1	8
1236.28857421875	n/a	PROB	2531919	n/a	LTP341	ltpFR2	9	n/a	n/a	n/a	8	13	1	7	5
1237.3212890625	n/a	PROB	2534034	n/a	LTP341	ltpFR2	9	n/a	n/a	n/a	8	15	2	6	7
1238.67138671875	n/a	PROB	2536799	n/a	LTP341	ltpFR2	9	n/a	n/a	n/a	8	18	9	8	1
1240.03662109375	n/a	PROB	2539595	n/a	LTP341	ltpFR2	9	n/a	n/a	n/a	8	15	9	4	2
1241.302734375	n/a	PROB	2542188	n/a	LTP341	ltpFR2	9	n/a	n/a	n/a	8	20	5	6	9
1242.802734375	n/a	PROB	2545260	n/a	LTP341	ltpFR2	9	n/a	n/a	n/a	8	15	4	2	9
1244.134765625	n/a	PROB	2547988	n/a	LTP341	ltpFR2	9	n/a	n/a	n/a	8	19	9	9	1
1245.50048828125	n/a	PROB	2550785	n/a	LTP341	ltpFR2	9	n/a	n/a	n/a	8	4	1	1	2
1246.6845703125	n/a	PROB	2553210	n/a	LTP341	ltpFR2	9	n/a	n/a	n/a	8	14	4	3	7
1247.966796875	n/a	PROB	2555836	n/a	LTP341	ltpFR2	9	n/a	n/a	n/a	8	11	1	4	6
1248.9306640625	n/a	STOP	2557810	n/a	LTP341	ltpFR2	9	n/a	n/a	n/a	8	n/a	n/a	n/a	n/a
1250.61572265625	n/a	WORD	2561261	wordpools/wasnorm_wordpool_576.txt	LTP341	ltpFR2	9	6	CANAL	226	n/a	n/a	0	0	0
1253.36376953125	n/a	WORD	2566889	wordpools/wasnorm_wordpool_576.txt	LTP341	ltpFR2	9	6	GARBAGE	622	n/a	n/a	0	0	0
1255.8955078125	n/a	WORD	2572074	wordpools/wasnorm_wordpool_576.txt	LTP341	ltpFR2	9	6	PUPPY	1144	n/a	n/a	0	0	0
1258.62841796875	n/a	WORD	2577671	wordpools/wasnorm_wordpool_576.txt	LTP341	ltpFR2	9	6	MISSILE	900	n/a	n/a	0	0	0
1261.1767578125	n/a	WORD	2582890	wordpools/wasnorm_wordpool_576.txt	LTP341	ltpFR2	9	6	COD	340	n/a	n/a	0	0	0
1263.62646484375	n/a	WORD	2587907	wordpools/wasnorm_wordpool_576.txt	LTP341	ltpFR2	9	6	FIREPLACE	570	n/a	n/a	0	0	0
1266.12353515625	n/a	WORD	2593021	wordpools/wasnorm_wordpool_576.txt	LTP341	ltpFR2	9	6	RIVER	1194	n/a	n/a	0	0	0
1268.82275390625	n/a	WORD	2598549	wordpools/wasnorm_wordpool_576.txt	LTP341	ltpFR2	9	6	POISON	1096	n/a	n/a	0	0	0
1271.48779296875	n/a	WORD	2604007	wordpools/wasnorm_wordpool_576.txt	LTP341	ltpFR2	9	6	TOURIST	1488	n/a	n/a	0	0	0
1274.23681640625	n/a	WORD	2609637	wordpools/wasnorm_wordpool_576.txt	LTP341	ltpFR2	9	6	LUGGAGE	847	n/a	n/a	0	0	0
1276.78564453125	n/a	WORD	2614857	wordpools/wasnorm_wordpool_576.txt	LTP341	ltpFR2	9	6	OUTDOORS	987	n/a	n/a	0	0	0
1279.5849609375	n/a	WORD	2620590	wordpools/wasnorm_wordpool_576.txt	LTP341	ltpFR2	9	6	JOURNAL	760	n/a	n/a	0	0	0
1282.265625	n/a	WORD	2626080	wordpools/wasnorm_wordpool_576.txt	LTP341	ltpFR2	9	6	BRIEFCASE	175	n/a	n/a	0	0	0
1285.0478515625	n/a	WORD	2631778	wordpools/wasnorm_wordpool_576.txt	LTP341	ltpFR2	9	6	LAVA	804	n/a	n/a	0	0	0
1287.77978515625	n/a	WORD	2637373	wordpools/wasnorm_wordpool_576.txt	LTP341	ltpFR2	9	6	OX	994	n/a	n/a	0	0	0
1290.345703125	n/a	WORD	2642628	wordpools/wasnorm_wordpool_576.txt	LTP341	ltpFR2	9	6	CONVICT	371	n/a	n/a	0	0	0
1293.0107421875	n/a	WORD	2648086	wordpools/wasnorm_wordpool_576.txt	LTP341	ltpFR2	9	6	HOOK	715	n/a	n/a	0	0	0
1295.6611328125	n/a	WORD	2653514	wordpools/wasnorm_wordpool_576.txt	LTP341	ltpFR2	9	6	FOOTBALL	591	n/a	n/a	0	0	0
1298.2080078125	n/a	WORD	2658730	wordpools/wasnorm_wordpool_576.txt	LTP341	ltpFR2	9	6	CABIN	211	n/a	n/a	0	0	0
1300.80712890625	n/a	WORD	2664053	wordpools/wasnorm_wordpool_576.txt	LTP341	ltpFR2	9	6	PROTON	1132	n/a	n/a	0	0	0
1303.373046875	n/a	WORD	2669308	wordpools/wasnorm_wordpool_576.txt	LTP341	ltpFR2	9	6	NEUTRON	947	n/a	n/a	0	0	0
1305.955078125	n/a	WORD	2674596	wordpools/wasnorm_wordpool_576.txt	LTP341	ltpFR2	9	6	LAKE	796	n/a	n/a	0	0	0
1308.5029296875	n/a	WORD	2679814	wordpools/wasnorm_wordpool_576.txt	LTP341	ltpFR2	9	6	BLOUSE	139	n/a	n/a	0	0	0
1310.98486328125	n/a	WORD	2684897	wordpools/wasnorm_wordpool_576.txt	LTP341	ltpFR2	9	6	PILOT	1070	n/a	n/a	0	0	0
1312.60205078125	n/a	START	2688209	n/a	LTP341	ltpFR2	9	n/a	n/a	n/a	9	n/a	n/a	n/a	n/a
1313.794921875	n/a	DISTRACTOR	2690652	n/a	LTP341	ltpFR2	9	6	n/a	n/a	n/a	n/a	0	0	0
1313.80126953125	n/a	PROB	2690665	n/a	LTP341	ltpFR2	9	n/a	n/a	n/a	9	19	9	2	8
1315.8662109375	n/a	PROB	2694894	n/a	LTP341	ltpFR2	9	n/a	n/a	n/a	9	11	2	2	7
1316.9658203125	n/a	PROB	2697146	n/a	LTP341	ltpFR2	9	n/a	n/a	n/a	9	19	9	2	8
1318.08203125	n/a	PROB	2699432	n/a	LTP341	ltpFR2	9	n/a	n/a	n/a	9	22	7	9	6
1321.26416015625	n/a	PROB	2705949	n/a	LTP341	ltpFR2	9	n/a	n/a	n/a	9	16	5	2	9
1322.6962890625	n/a	PROB	2708882	n/a	LTP341	ltpFR2	9	n/a	n/a	n/a	9	14	7	4	3
1323.74609375	n/a	PROB	2711032	n/a	LTP341	ltpFR2	9	n/a	n/a	n/a	9	14	4	9	1
1324.7451171875	n/a	PROB	2713078	n/a	LTP341	ltpFR2	9	n/a	n/a	n/a	9	11	5	5	1
1325.59619140625	n/a	PROB	2714821	n/a	LTP341	ltpFR2	9	n/a	n/a	n/a	9	17	6	2	9
1327.361328125	n/a	PROB	2718436	n/a	LTP341	ltpFR2	9	n/a	n/a	n/a	9	9	1	7	1
1328.26025390625	n/a	PROB	2720277	n/a	LTP341	ltpFR2	9	n/a	n/a	n/a	9	15	1	9	5
1329.2763671875	n/a	PROB	2722358	n/a	LTP341	ltpFR2	9	n/a	n/a	n/a	9	22	9	5	8
1330.875	n/a	PROB	2725632	n/a	LTP341	ltpFR2	9	n/a	n/a	n/a	9	15	2	5	8
1332.0751953125	n/a	PROB	2728090	n/a	LTP341	ltpFR2	9	n/a	n/a	n/a	9	19	9	9	1
1333.17431640625	n/a	PROB	2730341	n/a	LTP341	ltpFR2	9	n/a	n/a	n/a	9	20	2	9	8
1334.857421875	n/a	PROB	2733788	n/a	LTP341	ltpFR2	9	n/a	n/a	n/a	9	14	7	4	3
1336.05224609375	n/a	STOP	2736235	n/a	LTP341	ltpFR2	9	n/a	n/a	n/a	9	n/a	n/a	n/a	n/a
1338.38916015625	n/a	REC_START	2741021	n/a	LTP341	ltpFR2	9	6	n/a	n/a	n/a	n/a	0	0	0
1338.693359375	n/a	REC_WORD	2741644	wordpools/wasnorm_wordpool_576.txt	LTP341	ltpFR2	9	6	FOOTBALL	591	n/a	n/a	0	0	0
1339.3720703125	n/a	REC_WORD	2743034	wordpools/wasnorm_wordpool_576.txt	LTP341	ltpFR2	9	6	CABIN	211	n/a	n/a	0	0	0
1340.0751953125	n/a	REC_WORD	2744474	wordpools/wasnorm_wordpool_576.txt	LTP341	ltpFR2	9	6	PILOT	1070	n/a	n/a	0	0	0
1340.75	n/a	REC_WORD	2745856	wordpools/wasnorm_wordpool_576.txt	LTP341	ltpFR2	9	6	LAKE	796	n/a	n/a	0	0	0
1341.34912109375	n/a	REC_WORD	2747083	wordpools/wasnorm_wordpool_576.txt	LTP341	ltpFR2	9	6	NEUTRON	947	n/a	n/a	0	0	0
1343.2080078125	n/a	REC_WORD	2750890	wordpools/wasnorm_wordpool_576.txt	LTP341	ltpFR2	9	6	PROTON	1132	n/a	n/a	0	0	0
1345.88134765625	n/a	REC_WORD	2756365	wordpools/wasnorm_wordpool_576.txt	LTP341	ltpFR2	9	6	CANAL	226	n/a	n/a	0	0	0
1347.46826171875	n/a	REC_WORD	2759615	wordpools/wasnorm_wordpool_576.txt	LTP341	ltpFR2	9	6	OUTDOORS	987	n/a	n/a	0	0	0
1348.326171875	n/a	REC_WORD	2761372	wordpools/wasnorm_wordpool_576.txt	LTP341	ltpFR2	9	6	GARBAGE	622	n/a	n/a	0	0	0
1349.0732421875	n/a	REC_WORD	2762902	wordpools/wasnorm_wordpool_576.txt	LTP341	ltpFR2	9	6	PUPPY	1144	n/a	n/a	0	0	0
1349.8583984375	n/a	REC_WORD	2764510	wordpools/wasnorm_wordpool_576.txt	LTP341	ltpFR2	9	6	MISSILE	900	n/a	n/a	0	0	0
1352.60009765625	n/a	REC_WORD	2770125	wordpools/wasnorm_wordpool_576.txt	LTP341	ltpFR2	9	6	CONVICT	371	n/a	n/a	0	0	0
1356.39208984375	n/a	REC_WORD	2777891	wordpools/wasnorm_wordpool_576.txt	LTP341	ltpFR2	9	6	LAVA	804	n/a	n/a	0	0	0
1428.84375	n/a	WORD	2926272	wordpools/wasnorm_wordpool_576.txt	LTP341	ltpFR2	9	7	MUMMY	932	n/a	n/a	0	0	0
1431.3427734375	n/a	WORD	2931390	wordpools/wasnorm_wordpool_576.txt	LTP341	ltpFR2	9	7	HELMET	702	n/a	n/a	0	0	0
1433.841796875	n/a	WORD	2936508	wordpools/wasnorm_wordpool_576.txt	LTP341	ltpFR2	9	7	WINDOW	1611	n/a	n/a	0	0	0
1436.541015625	n/a	WORD	2942036	wordpools/wasnorm_wordpool_576.txt	LTP341	ltpFR2	9	7	CABBAGE	210	n/a	n/a	0	0	0
1439.23876953125	n/a	WORD	2947561	wordpools/wasnorm_wordpool_576.txt	LTP341	ltpFR2	9	7	MEDAL	885	n/a	n/a	0	0	0
1442.0380859375	n/a	WORD	2953294	wordpools/wasnorm_wordpool_576.txt	LTP341	ltpFR2	9	7	GALLON	618	n/a	n/a	0	0	0
1444.77001953125	n/a	WORD	2958889	wordpools/wasnorm_wordpool_576.txt	LTP341	ltpFR2	9	7	DOLPHIN	483	n/a	n/a	0	0	0
1447.5859375	n/a	WORD	2964656	wordpools/wasnorm_wordpool_576.txt	LTP341	ltpFR2	9	7	HEDGE	699	n/a	n/a	0	0	0
1450.30078125	n/a	WORD	2970216	wordpools/wasnorm_wordpool_576.txt	LTP341	ltpFR2	9	7	BRANDY	169	n/a	n/a	0	0	0
1452.9658203125	n/a	WORD	2975674	wordpools/wasnorm_wordpool_576.txt	LTP341	ltpFR2	9	7	DRINK	498	n/a	n/a	0	0	0
1455.51513671875	n/a	WORD	2980895	wordpools/wasnorm_wordpool_576.txt	LTP341	ltpFR2	9	7	FLASHLIGHT	575	n/a	n/a	0	0	0
1458.26318359375	n/a	WORD	2986523	wordpools/wasnorm_wordpool_576.txt	LTP341	ltpFR2	9	7	CRAB	397	n/a	n/a	0	0	0
1460.794921875	n/a	WORD	2991708	wordpools/wasnorm_wordpool_576.txt	LTP341	ltpFR2	9	7	SEAFOOD	1260	n/a	n/a	0	0	0
1463.51123046875	n/a	WORD	2997271	wordpools/wasnorm_wordpool_576.txt	LTP341	ltpFR2	9	7	TREAT	1501	n/a	n/a	0	0	0
1466.2431640625	n/a	WORD	3002866	wordpools/wasnorm_wordpool_576.txt	LTP341	ltpFR2	9	7	TART	1436	n/a	n/a	0	0	0
1468.94091796875	n/a	WORD	3008391	wordpools/wasnorm_wordpool_576.txt	LTP341	ltpFR2	9	7	CRIB	407	n/a	n/a	0	0	0
1471.64111328125	n/a	WORD	3013921	wordpools/wasnorm_wordpool_576.txt	LTP341	ltpFR2	9	7	SPONGE	1355	n/a	n/a	0	0	0
1474.13916015625	n/a	WORD	3019037	wordpools/wasnorm_wordpool_576.txt	LTP341	ltpFR2	9	7	MATCH	878	n/a	n/a	0	0	0
1476.60498046875	n/a	WORD	3024087	wordpools/wasnorm_wordpool_576.txt	LTP341	ltpFR2	9	7	HUSBAND	728	n/a	n/a	0	0	0
1479.38623046875	n/a	WORD	3029783	wordpools/wasnorm_wordpool_576.txt	LTP341	ltpFR2	9	7	WIDOW	1608	n/a	n/a	0	0	0
1482.201171875	n/a	WORD	3035548	wordpools/wasnorm_wordpool_576.txt	LTP341	ltpFR2	9	7	MILK	895	n/a	n/a	0	0	0
1485.01708984375	n/a	WORD	3041315	wordpools/wasnorm_wordpool_576.txt	LTP341	ltpFR2	9	7	GYMNAST	675	n/a	n/a	0	0	0
1487.44921875	n/a	WORD	3046296	wordpools/wasnorm_wordpool_576.txt	LTP341	ltpFR2	9	7	SLIME	1327	n/a	n/a	0	0	0
1490.03125	n/a	WORD	3051584	wordpools/wasnorm_wordpool_576.txt	LTP341	ltpFR2	9	7	ASIA	46	n/a	n/a	0	0	0
1491.6484375	n/a	START	3054896	n/a	LTP341	ltpFR2	9	n/a	n/a	n/a	10	n/a	n/a	n/a	n/a
1492.76318359375	n/a	DISTRACTOR	3057179	n/a	LTP341	ltpFR2	9	7	n/a	n/a	n/a	n/a	0	0	0
1492.779296875	n/a	PROB	3057212	n/a	LTP341	ltpFR2	9	n/a	n/a	n/a	10	9	4	2	3
1494.51220703125	n/a	PROB	3060761	n/a	LTP341	ltpFR2	9	n/a	n/a	n/a	10	8	6	1	1
1495.46142578125	n/a	PROB	3062705	n/a	LTP341	ltpFR2	9	n/a	n/a	n/a	10	14	9	2	3
1496.6123046875	n/a	PROB	3065062	n/a	LTP341	ltpFR2	9	n/a	n/a	n/a	10	16	5	9	2
1497.7275390625	n/a	PROB	3067346	n/a	LTP341	ltpFR2	9	n/a	n/a	n/a	10	15	7	2	6
1498.9931640625	n/a	PROB	3069938	n/a	LTP341	ltpFR2	9	n/a	n/a	n/a	10	16	6	3	7
1500.7421875	n/a	PROB	3073520	n/a	LTP341	ltpFR2	9	n/a	n/a	n/a	10	17	5	6	6
1502.1083984375	n/a	PROB	3076318	n/a	LTP341	ltpFR2	9	n/a	n/a	n/a	10	7	3	2	2
1503.55712890625	n/a	PROB	3079285	n/a	LTP341	ltpFR2	9	n/a	n/a	n/a	10	14	9	4	1
1504.490234375	n/a	PROB	3081196	n/a	LTP341	ltpFR2	9	n/a	n/a	n/a	10	13	7	4	2
1505.5732421875	n/a	PROB	3083414	n/a	LTP341	ltpFR2	9	n/a	n/a	n/a	10	1	7	2	1
1507.05615234375	n/a	PROB	3086451	n/a	LTP341	ltpFR2	9	n/a	n/a	n/a	10	16	6	7	3
1508.80517578125	n/a	PROB	3090033	n/a	LTP341	ltpFR2	9	n/a	n/a	n/a	10	15	5	7	3
1509.95458984375	n/a	PROB	3092387	n/a	LTP341	ltpFR2	9	n/a	n/a	n/a	10	20	9	9	2
1511.50341796875	n/a	PROB	3095559	n/a	LTP341	ltpFR2	9	n/a	n/a	n/a	10	17	3	7	7
1512.986328125	n/a	PROB	3098596	n/a	LTP341	ltpFR2	9	n/a	n/a	n/a	10	11	8	2	1
1513.986328125	n/a	PROB	3100644	n/a	LTP341	ltpFR2	9	n/a	n/a	n/a	10	13	4	3	6
1515.07763671875	n/a	STOP	3102879	n/a	LTP341	ltpFR2	9	n/a	n/a	n/a	10	n/a	n/a	n/a	n/a
1517.41845703125	n/a	REC_START	3107673	n/a	LTP341	ltpFR2	9	7	n/a	n/a	n/a	n/a	0	0	0
1517.59033203125	n/a	REC_WORD	3108025	wordpools/wasnorm_wordpool_576.txt	LTP341	ltpFR2	9	7	GYMNAST	675	n/a	n/a	0	0	0
1518.2744140625	n/a	REC_WORD	3109426	wordpools/wasnorm_wordpool_576.txt	LTP341	ltpFR2	9	7	SLIME	1327	n/a	n/a	0	0	0
1519.068359375	n/a	REC_WORD	3111052	wordpools/wasnorm_wordpool_576.txt	LTP341	ltpFR2	9	7	ASIA	46	n/a	n/a	0	0	0
1525.99462890625	n/a	REC_WORD	3125237	wordpools/wasnorm_wordpool_576.txt	LTP341	ltpFR2	9	7	MUMMY	932	n/a	n/a	0	0	0
1527.24072265625	n/a	REC_WORD	3127789	wordpools/wasnorm_wordpool_576.txt	LTP341	ltpFR2	9	7	WINDOW	1611	n/a	n/a	0	0	0
1528.857421875	n/a	REC_WORD	3131100	wordpools/wasnorm_wordpool_576.txt	LTP341	ltpFR2	9	7	HELMET	702	n/a	n/a	0	0	0
1531.04248046875	n/a	REC_WORD	3135575	wordpools/wasnorm_wordpool_576.txt	LTP341	ltpFR2	9	7	CABBAGE	210	n/a	n/a	0	0	0
1532.20068359375	n/a	REC_WORD	3137947	wordpools/wasnorm_wordpool_576.txt	LTP341	ltpFR2	9	7	MEDAL	885	n/a	n/a	0	0	0
1537.2724609375	n/a	REC_WORD	3148334	wordpools/wasnorm_wordpool_576.txt	LTP341	ltpFR2	9	7	HEDGE	699	n/a	n/a	0	0	0
1541.83251953125	n/a	REC_WORD	3157673	wordpools/wasnorm_wordpool_576.txt	LTP341	ltpFR2	9	7	CRAB	397	n/a	n/a	0	0	0
1542.44677734375	n/a	REC_WORD	3158931	wordpools/wasnorm_wordpool_576.txt	LTP341	ltpFR2	9	7	SEAFOOD	1260	n/a	n/a	0	0	0
1543.40478515625	n/a	REC_WORD	3160893	wordpools/wasnorm_wordpool_576.txt	LTP341	ltpFR2	9	7	TART	1436	n/a	n/a	0	0	0
1547.33740234375	n/a	REC_WORD	3168947	wordpools/wasnorm_wordpool_576.txt	LTP341	ltpFR2	9	7	TREAT	1501	n/a	n/a	0	0	0
1552.90380859375	n/a	REC_WORD	3180347	wordpools/wasnorm_wordpool_576.txt	LTP341	ltpFR2	9	7	HUSBAND	728	n/a	n/a	0	0	0
1553.85986328125	n/a	REC_WORD	3182305	wordpools/wasnorm_wordpool_576.txt	LTP341	ltpFR2	9	7	WIDOW	1608	n/a	n/a	0	0	0
1556.97265625	n/a	REC_WORD	3188680	wordpools/wasnorm_wordpool_576.txt	LTP341	ltpFR2	9	7	MATCH	878	n/a	n/a	0	0	0
1607.85693359375	n/a	DISTRACTOR	3292891	n/a	LTP341	ltpFR2	9	8	n/a	n/a	n/a	n/a	0	0	0
1607.85693359375	n/a	START	3292891	n/a	LTP341	ltpFR2	9	n/a	n/a	n/a	11	n/a	n/a	n/a	n/a
1607.873046875	n/a	PROB	3292924	n/a	LTP341	ltpFR2	9	n/a	n/a	n/a	11	18	5	9	4
1610.4892578125	n/a	PROB	3298282	n/a	LTP341	ltpFR2	9	n/a	n/a	n/a	11	13	3	6	4
1611.5888671875	n/a	PROB	3300534	n/a	LTP341	ltpFR2	9	n/a	n/a	n/a	11	13	6	1	6
1612.5712890625	n/a	PROB	3302546	n/a	LTP341	ltpFR2	9	n/a	n/a	n/a	11	16	1	7	8
1613.904296875	n/a	PROB	3305276	n/a	LTP341	ltpFR2	9	n/a	n/a	n/a	11	15	9	3	3
1615.0703125	n/a	PROB	3307664	n/a	LTP341	ltpFR2	9	n/a	n/a	n/a	11	11	1	1	9
1616.0693359375	n/a	PROB	3309710	n/a	LTP341	ltpFR2	9	n/a	n/a	n/a	11	23	8	9	6
1617.55224609375	n/a	PROB	3312747	n/a	LTP341	ltpFR2	9	n/a	n/a	n/a	11	18	8	3	7
1618.91796875	n/a	PROB	3315544	n/a	LTP341	ltpFR2	9	n/a	n/a	n/a	11	18	9	7	2
1620.98291015625	n/a	PROB	3319773	n/a	LTP341	ltpFR2	9	n/a	n/a	n/a	11	8	2	2	4
1622.2490234375	n/a	PROB	3322366	n/a	LTP341	ltpFR2	9	n/a	n/a	n/a	11	18	9	5	4
1623.83203125	n/a	PROB	3325608	n/a	LTP341	ltpFR2	9	n/a	n/a	n/a	11	13	4	2	7
1624.998046875	n/a	PROB	3327996	n/a	LTP341	ltpFR2	9	n/a	n/a	n/a	11	17	8	2	7
1626.447265625	n/a	PROB	3330964	n/a	LTP341	ltpFR2	9	n/a	n/a	n/a	11	11	3	7	1
1627.93017578125	n/a	PROB	3334001	n/a	LTP341	ltpFR2	9	n/a	n/a	n/a	11	13	9	2	2
1628.89599609375	n/a	PROB	3335979	n/a	LTP341	ltpFR2	9	n/a	n/a	n/a	11	15	7	4	4
1630.4462890625	n/a	STOP	3339154	n/a	LTP341	ltpFR2	9	n/a	n/a	n/a	11	n/a	n/a	n/a	n/a
1632.71142578125	n/a	WORD	3343793	wordpools/wasnorm_wordpool_576.txt	LTP341	ltpFR2	9	8	PIMPLE	1071	n/a	n/a	0	0	0
1635.193359375	n/a	WORD	3348876	wordpools/wasnorm_wordpool_576.txt	LTP341	ltpFR2	9	8	DENTIST	447	n/a	n/a	0	0	0
1637.70849609375	n/a	WORD	3354027	wordpools/wasnorm_wordpool_576.txt	LTP341	ltpFR2	9	8	WOMAN	1620	n/a	n/a	0	0	0
1640.45751953125	n/a	WORD	3359657	wordpools/wasnorm_wordpool_576.txt	LTP341	ltpFR2	9	8	SISTER	1312	n/a	n/a	0	0	0
1643.1064453125	n/a	WORD	3365082	wordpools/wasnorm_wordpool_576.txt	LTP341	ltpFR2	9	8	PISTON	1076	n/a	n/a	0	0	0
1645.83837890625	n/a	WORD	3370677	wordpools/wasnorm_wordpool_576.txt	LTP341	ltpFR2	9	8	CRICKET	408	n/a	n/a	0	0	0
1648.5703125	n/a	WORD	3376272	wordpools/wasnorm_wordpool_576.txt	LTP341	ltpFR2	9	8	TROMBONE	1508	n/a	n/a	0	0	0
1651.1181640625	n/a	WORD	3381490	wordpools/wasnorm_wordpool_576.txt	LTP341	ltpFR2	9	8	SHELF	1280	n/a	n/a	0	0	0
1653.83447265625	n/a	WORD	3387053	wordpools/wasnorm_wordpool_576.txt	LTP341	ltpFR2	9	8	PASSAGE	1019	n/a	n/a	0	0	0
1656.3994140625	n/a	WORD	3392306	wordpools/wasnorm_wordpool_576.txt	LTP341	ltpFR2	9	8	VAGRANT	1544	n/a	n/a	0	0	0
1658.99853515625	n/a	WORD	3397629	wordpools/wasnorm_wordpool_576.txt	LTP341	ltpFR2	9	8	ROD	1203	n/a	n/a	0	0	0
1661.513671875	n/a	WORD	3402780	wordpools/wasnorm_wordpool_576.txt	LTP341	ltpFR2	9	8	CRUTCH	417	n/a	n/a	0	0	0
1664.21240234375	n/a	WORD	3408307	wordpools/wasnorm_wordpool_576.txt	LTP341	ltpFR2	9	8	DASHBOARD	441	n/a	n/a	0	0	0
1666.66259765625	n/a	WORD	3413325	wordpools/wasnorm_wordpool_576.txt	LTP341	ltpFR2	9	8	POSSUM	1112	n/a	n/a	0	0	0
1669.45947265625	n/a	WORD	3419053	wordpools/wasnorm_wordpool_576.txt	LTP341	ltpFR2	9	8	TABLET	1427	n/a	n/a	0	0	0
1672.04150390625	n/a	WORD	3424341	wordpools/wasnorm_wordpool_576.txt	LTP341	ltpFR2	9	8	FEMALE	559	n/a	n/a	0	0	0
1674.5576171875	n/a	WORD	3429494	wordpools/wasnorm_wordpool_576.txt	LTP341	ltpFR2	9	8	APRON	35	n/a	n/a	0	0	0
1677.28955078125	n/a	WORD	3435089	wordpools/wasnorm_wordpool_576.txt	LTP341	ltpFR2	9	8	KITCHEN	778	n/a	n/a	0	0	0
1679.888671875	n/a	WORD	3440412	wordpools/wasnorm_wordpool_576.txt	LTP341	ltpFR2	9	8	COOK	372	n/a	n/a	0	0	0
1682.5537109375	n/a	WORD	3445870	wordpools/wasnorm_wordpool_576.txt	LTP341	ltpFR2	9	8	SHARK	1275	n/a	n/a	0	0	0
1685.00244140625	n/a	WORD	3450885	wordpools/wasnorm_wordpool_576.txt	LTP341	ltpFR2	9	8	PUPIL	1143	n/a	n/a	0	0	0
1687.767578125	n/a	WORD	3456548	wordpools/wasnorm_wordpool_576.txt	LTP341	ltpFR2	9	8	COURSE	390	n/a	n/a	0	0	0
1690.31640625	n/a	WORD	3461768	wordpools/wasnorm_wordpool_576.txt	LTP341	ltpFR2	9	8	BUGGY	188	n/a	n/a	0	0	0
1692.9814453125	n/a	WORD	3467226	wordpools/wasnorm_wordpool_576.txt	LTP341	ltpFR2	9	8	SIBLING	1301	n/a	n/a	0	0	0
1694.5986328125	n/a	START	3470538	n/a	LTP341	ltpFR2	9	n/a	n/a	n/a	12	n/a	n/a	n/a	n/a
1695.5107421875	n/a	DISTRACTOR	3472406	n/a	LTP341	ltpFR2	9	8	n/a	n/a	n/a	n/a	0	0	0
1695.513671875	n/a	PROB	3472412	n/a	LTP341	ltpFR2	9	n/a	n/a	n/a	12	20	7	9	4
1699.0458984375	n/a	PROB	3479646	n/a	LTP341	ltpFR2	9	n/a	n/a	n/a	12	21	8	6	7
1700.19482421875	n/a	PROB	3481999	n/a	LTP341	ltpFR2	9	n/a	n/a	n/a	12	23	9	5	9
1702.4609375	n/a	PROB	3486640	n/a	LTP341	ltpFR2	9	n/a	n/a	n/a	12	17	5	8	4
1704.99267578125	n/a	PROB	3491825	n/a	LTP341	ltpFR2	9	n/a	n/a	n/a	12	20	6	6	8
1706.19189453125	n/a	PROB	3494281	n/a	LTP341	ltpFR2	9	n/a	n/a	n/a	12	15	7	2	6
1707.77490234375	n/a	PROB	3497523	n/a	LTP341	ltpFR2	9	n/a	n/a	n/a	12	17	9	4	4
1708.99072265625	n/a	PROB	3500013	n/a	LTP341	ltpFR2	9	n/a	n/a	n/a	12	19	7	8	4
1710.2568359375	n/a	PROB	3502606	n/a	LTP341	ltpFR2	9	n/a	n/a	n/a	12	13	8	1	4
1711.23974609375	n/a	PROB	3504619	n/a	LTP341	ltpFR2	9	n/a	n/a	n/a	12	16	2	5	9
1712.7216796875	n/a	PROB	3507654	n/a	LTP341	ltpFR2	9	n/a	n/a	n/a	12	18	4	8	6
1714.0048828125	n/a	PROB	3510282	n/a	LTP341	ltpFR2	9	n/a	n/a	n/a	12	10	1	6	3
1715.27099609375	n/a	PROB	3512875	n/a	LTP341	ltpFR2	9	n/a	n/a	n/a	12	10	1	8	1
1716.20361328125	n/a	PROB	3514785	n/a	LTP341	ltpFR2	9	n/a	n/a	n/a	12	9	4	3	2
1718.07861328125	n/a	STOP	3518625	n/a	LTP341	ltpFR2	9	n/a	n/a	n/a	12	n/a	n/a	n/a	n/a
1720.419921875	n/a	REC_START	3523420	n/a	LTP341	ltpFR2	9	8	n/a	n/a	n/a	n/a	0	0	0
1720.51806640625	n/a	REC_WORD	3523621	wordpools/wasnorm_wordpool_576.txt	LTP341	ltpFR2	9	8	SHARK	1275	n/a	n/a	0	0	0
1721.53173828125	n/a	REC_WORD	3525697	wordpools/wasnorm_wordpool_576.txt	LTP341	ltpFR2	9	8	PUPIL	1143	n/a	n/a	0	0	0
1722.20263671875	n/a	REC_WORD	3527071	wordpools/wasnorm_wordpool_576.txt	LTP341	ltpFR2	9	8	BUGGY	188	n/a	n/a	0	0	0
1722.64599609375	n/a	REC_WORD	3527979	wordpools/wasnorm_wordpool_576.txt	LTP341	ltpFR2	9	8	SIBLING	1301	n/a	n/a	0	0	0
1724.10498046875	n/a	REC_WORD	3530967	wordpools/wasnorm_wordpool_576.txt	LTP341	ltpFR2	9	8	DENTIST	447	n/a	n/a	0	0	0
1724.845703125	n/a	REC_WORD	3532484	wordpools/wasnorm_wordpool_576.txt	LTP341	ltpFR2	9	8	PIMPLE	1071	n/a	n/a	0	0	0
1725.6201171875	n/a	REC_WORD	3534070	wordpools/wasnorm_wordpool_576.txt	LTP341	ltpFR2	9	8	WOMAN	1620	n/a	n/a	0	0	0
1726.18701171875	n/a	REC_WORD	3535231	wordpools/wasnorm_wordpool_576.txt	LTP341	ltpFR2	9	8	FEMALE	559	n/a	n/a	0	0	0
1727.78173828125	n/a	REC_WORD	3538497	wordpools/wasnorm_wordpool_576.txt	LTP341	ltpFR2	9	8	SISTER	1312	n/a	n/a	0	0	0
1735.77099609375	n/a	REC_WORD	3554859	wordpools/wasnorm_wordpool_576.txt	LTP341	ltpFR2	9	8	CRICKET	408	n/a	n/a	0	0	0
1736.31591796875	n/a	REC_WORD	3555975	wordpools/wasnorm_wordpool_576.txt	LTP341	ltpFR2	9	8	TROMBONE	1508	n/a	n/a	0	0	0
1737.01611328125	n/a	REC_WORD	3557409	wordpools/wasnorm_wordpool_576.txt	LTP341	ltpFR2	9	8	SHELF	1280	n/a	n/a	0	0	0
1738.35400390625	n/a	REC_WORD	3560149	wordpools/wasnorm_wordpool_576.txt	LTP341	ltpFR2	9	8	PASSAGE	1019	n/a	n/a	0	0	0
1740.23779296875	n/a	REC_WORD	3564007	wordpools/wasnorm_wordpool_576.txt	LTP341	ltpFR2	9	8	TABLET	1427	n/a	n/a	0	0	0
1744.39892578125	n/a	REC_WORD	3572529	wordpools/wasnorm_wordpool_576.txt	LTP341	ltpFR2	9	8	KITCHEN	778	n/a	n/a	0	0	0
1744.91796875	n/a	REC_WORD	3573592	wordpools/wasnorm_wordpool_576.txt	LTP341	ltpFR2	9	8	APRON	35	n/a	n/a	0	0	0
1746.82421875	n/a	REC_WORD	3577496	wordpools/wasnorm_wordpool_576.txt	LTP341	ltpFR2	9	8	COOK	372	n/a	n/a	0	0	0
1796.96435546875	n/a	REST_REWET	3680183	n/a	LTP341	ltpFR2	9	8	n/a	n/a	n/a	n/a	0	0	0
1926.63525390625	n/a	WORD	3945749	wordpools/wasnorm_wordpool_576.txt	LTP341	ltpFR2	9	9	GOBLIN	645	n/a	n/a	0	0	0
1929.33251953125	n/a	WORD	3951273	wordpools/wasnorm_wordpool_576.txt	LTP341	ltpFR2	9	9	POCKET	1093	n/a	n/a	0	0	0
1931.96435546875	n/a	WORD	3956663	wordpools/wasnorm_wordpool_576.txt	LTP341	ltpFR2	9	9	MARS	873	n/a	n/a	0	0	0
1934.396484375	n/a	WORD	3961644	wordpools/wasnorm_wordpool_576.txt	LTP341	ltpFR2	9	9	YOLK	1633	n/a	n/a	0	0	0
1937.21240234375	n/a	WORD	3967411	wordpools/wasnorm_wordpool_576.txt	LTP341	ltpFR2	9	9	FIREMAN	569	n/a	n/a	0	0	0
1939.67822265625	n/a	WORD	3972461	wordpools/wasnorm_wordpool_576.txt	LTP341	ltpFR2	9	9	SERVANT	1271	n/a	n/a	0	0	0
1942.4921875	n/a	WORD	3978224	wordpools/wasnorm_wordpool_576.txt	LTP341	ltpFR2	9	9	AUTHOR	61	n/a	n/a	0	0	0
1945.05859375	n/a	WORD	3983480	wordpools/wasnorm_wordpool_576.txt	LTP341	ltpFR2	9	9	COWBOY	395	n/a	n/a	0	0	0
1947.84033203125	n/a	WORD	3989177	wordpools/wasnorm_wordpool_576.txt	LTP341	ltpFR2	9	9	FOREHEAD	592	n/a	n/a	0	0	0
1950.62353515625	n/a	WORD	3994877	wordpools/wasnorm_wordpool_576.txt	LTP341	ltpFR2	9	9	XEROX	1628	n/a	n/a	0	0	0
1953.13720703125	n/a	WORD	4000025	wordpools/wasnorm_wordpool_576.txt	LTP341	ltpFR2	9	9	SHOULDER	1294	n/a	n/a	0	0	0
1955.95263671875	n/a	WORD	4005791	wordpools/wasnorm_wordpool_576.txt	LTP341	ltpFR2	9	9	LUNCH	849	n/a	n/a	0	0	0
1958.6025390625	n/a	WORD	4011218	wordpools/wasnorm_wordpool_576.txt	LTP341	ltpFR2	9	9	PENGUIN	1044	n/a	n/a	0	0	0
1961.1005859375	n/a	WORD	4016334	wordpools/wasnorm_wordpool_576.txt	LTP341	ltpFR2	9	9	KLEENEX	782	n/a	n/a	0	0	0
1963.8984375	n/a	WORD	4022064	wordpools/wasnorm_wordpool_576.txt	LTP341	ltpFR2	9	9	TWEEZERS	1526	n/a	n/a	0	0	0
1966.564453125	n/a	WORD	4027524	wordpools/wasnorm_wordpool_576.txt	LTP341	ltpFR2	9	9	MOP	916	n/a	n/a	0	0	0
1969.146484375	n/a	WORD	4032812	wordpools/wasnorm_wordpool_576.txt	LTP341	ltpFR2	9	9	DUSTPAN	509	n/a	n/a	0	0	0
1971.66259765625	n/a	WORD	4037965	wordpools/wasnorm_wordpool_576.txt	LTP341	ltpFR2	9	9	SPARROW	1347	n/a	n/a	0	0	0
1974.177734375	n/a	WORD	4043116	wordpools/wasnorm_wordpool_576.txt	LTP341	ltpFR2	9	9	BOARD	143	n/a	n/a	0	0	0
1976.79248046875	n/a	WORD	4048471	wordpools/wasnorm_wordpool_576.txt	LTP341	ltpFR2	9	9	AWARD	63	n/a	n/a	0	0	0
1979.40771484375	n/a	WORD	4053827	wordpools/wasnorm_wordpool_576.txt	LTP341	ltpFR2	9	9	SKILLET	1317	n/a	n/a	0	0	0
1982.189453125	n/a	WORD	4059524	wordpools/wasnorm_wordpool_576.txt	LTP341	ltpFR2	9	9	KEEPER	769	n/a	n/a	0	0	0
1984.65673828125	n/a	WORD	4064577	wordpools/wasnorm_wordpool_576.txt	LTP341	ltpFR2	9	9	RIFLE	1192	n/a	n/a	0	0	0
1987.470703125	n/a	WORD	4070340	wordpools/wasnorm_wordpool_576.txt	LTP341	ltpFR2	9	9	GANGSTER	620	n/a	n/a	0	0	0
1989.0869140625	n/a	START	4073650	n/a	LTP341	ltpFR2	9	n/a	n/a	n/a	13	n/a	n/a	n/a	n/a
1990.06494140625	n/a	DISTRACTOR	4075653	n/a	LTP341	ltpFR2	9	9	n/a	n/a	n/a	n/a	0	0	0
1990.06982421875	n/a	PROB	4075663	n/a	LTP341	ltpFR2	9	n/a	n/a	n/a	13	17	7	7	3
1992.33447265625	n/a	PROB	4080301	n/a	LTP341	ltpFR2	9	n/a	n/a	n/a	13	21	6	7	8
1993.6015625	n/a	PROB	4082896	n/a	LTP341	ltpFR2	9	n/a	n/a	n/a	13	9	4	4	1
1996.349609375	n/a	PROB	4088524	n/a	LTP341	ltpFR2	9	n/a	n/a	n/a	13	11	5	3	3
1997.6669921875	n/a	PROB	4091222	n/a	LTP341	ltpFR2	9	n/a	n/a	n/a	13	16	7	2	7
1999.56494140625	n/a	PROB	4095109	n/a	LTP341	ltpFR2	9	n/a	n/a	n/a	13	18	8	1	9
2001.013671875	n/a	PROB	4098076	n/a	LTP341	ltpFR2	9	n/a	n/a	n/a	13	22	9	9	4
2002.57958984375	n/a	PROB	4101283	n/a	LTP341	ltpFR2	9	n/a	n/a	n/a	13	13	9	3	1
2003.462890625	n/a	PROB	4103092	n/a	LTP341	ltpFR2	9	n/a	n/a	n/a	13	16	5	2	9
2005.44482421875	n/a	PROB	4107151	n/a	LTP341	ltpFR2	9	n/a	n/a	n/a	13	16	8	7	1
2007.32763671875	n/a	PROB	4111007	n/a	LTP341	ltpFR2	9	n/a	n/a	n/a	13	4	1	1	2
2008.34375	n/a	PROB	4113088	n/a	LTP341	ltpFR2	9	n/a	n/a	n/a	13	15	1	6	8
2009.27685546875	n/a	PROB	4114999	n/a	LTP341	ltpFR2	9	n/a	n/a	n/a	13	18	5	4	9
2013.0869140625	n/a	STOP	4122802	n/a	LTP341	ltpFR2	9	n/a	n/a	n/a	13	n/a	n/a	n/a	n/a
2015.041015625	n/a	REC_START	4126804	n/a	LTP341	ltpFR2	9	9	n/a	n/a	n/a	n/a	0	0	0
2015.19970703125	n/a	REC_WORD	4127129	wordpools/wasnorm_wordpool_576.txt	LTP341	ltpFR2	9	9	SKILLET	1317	n/a	n/a	0	0	0
2015.87890625	n/a	REC_WORD	4128520	wordpools/wasnorm_wordpool_576.txt	LTP341	ltpFR2	9	9	BOARD	143	n/a	n/a	0	0	0
2016.2626953125	n/a	REC_WORD	4129306	wordpools/wasnorm_wordpool_576.txt	LTP341	ltpFR2	9	9	AWARD	63	n/a	n/a	0	0	0
2016.677734375	n/a	REC_WORD_VV	4130156	wordpools/wasnorm_wordpool_576.txt	LTP341	ltpFR2	9	9	<>	-1	n/a	n/a	0	0	0
2017.61279296875	n/a	REC_WORD	4132071	wordpools/wasnorm_wordpool_576.txt	LTP341	ltpFR2	9	9	KEEPER	769	n/a	n/a	0	0	0
2018.470703125	n/a	REC_WORD	4133828	wordpools/wasnorm_wordpool_576.txt	LTP341	ltpFR2	9	9	GANGSTER	620	n/a	n/a	0	0	0
2022.02978515625	n/a	REC_WORD	4141117	wordpools/wasnorm_wordpool_576.txt	LTP341	ltpFR2	9	9	GOBLIN	645	n/a	n/a	0	0	0
2026.49072265625	n/a	REC_WORD	4150253	wordpools/wasnorm_wordpool_576.txt	LTP341	ltpFR2	9	9	MARS	873	n/a	n/a	0	0	0
2028.07080078125	n/a	REC_WORD	4153489	wordpools/wasnorm_wordpool_576.txt	LTP341	ltpFR2	9	9	PENGUIN	1044	n/a	n/a	0	0	0
2044.84228515625	n/a	REC_WORD	4187837	wordpools/wasnorm_wordpool_576.txt	LTP341	ltpFR2	9	9	POCKET	1093	n/a	n/a	0	0	0
2045.8720703125	n/a	REC_WORD	4189946	wordpools/wasnorm_wordpool_576.txt	LTP341	ltpFR2	9	9	MOP	916	n/a	n/a	0	0	0
2046.5341796875	n/a	REC_WORD	4191302	wordpools/wasnorm_wordpool_576.txt	LTP341	ltpFR2	9	9	KLEENEX	782	n/a	n/a	0	0	0
2053.06396484375	n/a	REC_WORD	4204675	wordpools/wasnorm_wordpool_576.txt	LTP341	ltpFR2	9	9	FIREMAN	569	n/a	n/a	0	0	0
2105.4794921875	n/a	DISTRACTOR	4312022	n/a	LTP341	ltpFR2	9	10	n/a	n/a	n/a	n/a	0	0	0
2105.4794921875	n/a	START	4312022	n/a	LTP341	ltpFR2	9	n/a	n/a	n/a	14	n/a	n/a	n/a	n/a
2105.49658203125	n/a	PROB	4312057	n/a	LTP341	ltpFR2	9	n/a	n/a	n/a	14	14	2	8	4
2107.2783203125	n/a	PROB	4315706	n/a	LTP341	ltpFR2	9	n/a	n/a	n/a	14	13	9	3	1
2108.12841796875	n/a	PROB	4317447	n/a	LTP341	ltpFR2	9	n/a	n/a	n/a	14	9	4	3	2
2109.595703125	n/a	PROB	4320452	n/a	LTP341	ltpFR2	9	n/a	n/a	n/a	14	19	3	9	7
2110.693359375	n/a	PROB	4322700	n/a	LTP341	ltpFR2	9	n/a	n/a	n/a	14	9	4	3	2
2111.66064453125	n/a	PROB	4324681	n/a	LTP341	ltpFR2	9	n/a	n/a	n/a	14	18	6	9	3
2113.42578125	n/a	PROB	4328296	n/a	LTP341	ltpFR2	9	n/a	n/a	n/a	14	6	1	3	2
2115.0087890625	n/a	PROB	4331538	n/a	LTP341	ltpFR2	9	n/a	n/a	n/a	14	16	4	5	7
2116.40771484375	n/a	PROB	4334403	n/a	LTP341	ltpFR2	9	n/a	n/a	n/a	14	15	5	5	5
2117.45654296875	n/a	PROB	4336551	n/a	LTP341	ltpFR2	9	n/a	n/a	n/a	14	21	9	9	3
2118.556640625	n/a	PROB	4338804	n/a	LTP341	ltpFR2	9	n/a	n/a	n/a	14	22	6	8	8
2120.17236328125	n/a	PROB	4342113	n/a	LTP341	ltpFR2	9	n/a	n/a	n/a	14	1	2	5	3
2121.28857421875	n/a	PROB	4344399	n/a	LTP341	ltpFR2	9	n/a	n/a	n/a	14	25	9	8	8
2122.9375	n/a	PROB	4347776	n/a	LTP341	ltpFR2	9	n/a	n/a	n/a	14	15	1	9	5
2123.8876953125	n/a	PROB	4349722	n/a	LTP341	ltpFR2	9	n/a	n/a	n/a	14	23	7	9	7
2125.1865234375	n/a	PROB	4352382	n/a	LTP341	ltpFR2	9	n/a	n/a	n/a	14	19	4	9	6
2126.70263671875	n/a	PROB	4355487	n/a	LTP341	ltpFR2	9	n/a	n/a	n/a	14	16	2	6	8
2129.0576171875	n/a	STOP	4360310	n/a	LTP341	ltpFR2	9	n/a	n/a	n/a	14	n/a	n/a	n/a	n/a
2130.517578125	n/a	WORD	4363300	wordpools/wasnorm_wordpool_576.txt	LTP341	ltpFR2	9	10	TUTU	1524	n/a	n/a	0	0	0
2133.015625	n/a	WORD	4368416	wordpools/wasnorm_wordpool_576.txt	LTP341	ltpFR2	9	10	SLUG	1329	n/a	n/a	0	0	0
2135.548828125	n/a	WORD	4373604	wordpools/wasnorm_wordpool_576.txt	LTP341	ltpFR2	9	10	BUG	187	n/a	n/a	0	0	0
2138.146484375	n/a	WORD	4378924	wordpools/wasnorm_wordpool_576.txt	LTP341	ltpFR2	9	10	SPIDER	1351	n/a	n/a	0	0	0
2140.77880859375	n/a	WORD	4384315	wordpools/wasnorm_wordpool_576.txt	LTP341	ltpFR2	9	10	GIRL	637	n/a	n/a	0	0	0
2143.2275390625	n/a	WORD	4389330	wordpools/wasnorm_wordpool_576.txt	LTP341	ltpFR2	9	10	LEOPARD	812	n/a	n/a	0	0	0
2145.66064453125	n/a	WORD	4394313	wordpools/wasnorm_wordpool_576.txt	LTP341	ltpFR2	9	10	STAMP	1370	n/a	n/a	0	0	0
2148.341796875	n/a	WORD	4399804	wordpools/wasnorm_wordpool_576.txt	LTP341	ltpFR2	9	10	DANCER	437	n/a	n/a	0	0	0
2150.99072265625	n/a	WORD	4405229	wordpools/wasnorm_wordpool_576.txt	LTP341	ltpFR2	9	10	AIRPLANE	12	n/a	n/a	0	0	0
2153.77294921875	n/a	WORD	4410927	wordpools/wasnorm_wordpool_576.txt	LTP341	ltpFR2	9	10	CARROT	249	n/a	n/a	0	0	0
2156.5048828125	n/a	WORD	4416522	wordpools/wasnorm_wordpool_576.txt	LTP341	ltpFR2	9	10	LASER	801	n/a	n/a	0	0	0
2159.0869140625	n/a	WORD	4421810	wordpools/wasnorm_wordpool_576.txt	LTP341	ltpFR2	9	10	CHAMPAGNE	278	n/a	n/a	0	0	0
2161.53564453125	n/a	WORD	4426825	wordpools/wasnorm_wordpool_576.txt	LTP341	ltpFR2	9	10	HIKER	708	n/a	n/a	0	0	0
2164.333984375	n/a	WORD	4432556	wordpools/wasnorm_wordpool_576.txt	LTP341	ltpFR2	9	10	HOOD	714	n/a	n/a	0	0	0
2166.89990234375	n/a	WORD	4437811	wordpools/wasnorm_wordpool_576.txt	LTP341	ltpFR2	9	10	WAITRESS	1581	n/a	n/a	0	0	0
2169.39794921875	n/a	WORD	4442927	wordpools/wasnorm_wordpool_576.txt	LTP341	ltpFR2	9	10	WASP	1593	n/a	n/a	0	0	0
2172.01416015625	n/a	WORD	4448285	wordpools/wasnorm_wordpool_576.txt	LTP341	ltpFR2	9	10	GRIZZLY	662	n/a	n/a	0	0	0
2174.51318359375	n/a	WORD	4453403	wordpools/wasnorm_wordpool_576.txt	LTP341	ltpFR2	9	10	FOREST	593	n/a	n/a	0	0	0
2177.078125	n/a	WORD	4458656	wordpools/wasnorm_wordpool_576.txt	LTP341	ltpFR2	9	10	LOFT	840	n/a	n/a	0	0	0
2179.61083984375	n/a	WORD	4463843	wordpools/wasnorm_wordpool_576.txt	LTP341	ltpFR2	9	10	MAILBOX	857	n/a	n/a	0	0	0
2182.2421875	n/a	WORD	4469232	wordpools/wasnorm_wordpool_576.txt	LTP341	ltpFR2	9	10	TRUCK	1512	n/a	n/a	0	0	0
2184.9072265625	n/a	WORD	4474690	wordpools/wasnorm_wordpool_576.txt	LTP341	ltpFR2	9	10	TORTOISE	1486	n/a	n/a	0	0	0
2187.58984375	n/a	WORD	4480184	wordpools/wasnorm_wordpool_576.txt	LTP341	ltpFR2	9	10	DOUGHNUT	490	n/a	n/a	0	0	0
2190.087890625	n/a	WORD	4485300	wordpools/wasnorm_wordpool_576.txt	LTP341	ltpFR2	9	10	TRENCH	1503	n/a	n/a	0	0	0
2191.7041015625	n/a	START	4488610	n/a	LTP341	ltpFR2	9	n/a	n/a	n/a	15	n/a	n/a	n/a	n/a
2192.85595703125	n/a	DISTRACTOR	4490969	n/a	LTP341	ltpFR2	9	10	n/a	n/a	n/a	n/a	0	0	0
2192.8701171875	n/a	PROB	4490998	n/a	LTP341	ltpFR2	9	n/a	n/a	n/a	15	12	4	5	3
2195.8193359375	n/a	PROB	4497038	n/a	LTP341	ltpFR2	9	n/a	n/a	n/a	15	16	5	4	7
2197.30126953125	n/a	PROB	4500073	n/a	LTP341	ltpFR2	9	n/a	n/a	n/a	15	19	9	8	2
2198.833984375	n/a	PROB	4503212	n/a	LTP341	ltpFR2	9	n/a	n/a	n/a	15	10	4	1	5
2199.80029296875	n/a	PROB	4505191	n/a	LTP341	ltpFR2	9	n/a	n/a	n/a	15	13	3	9	1
2200.6513671875	n/a	PROB	4506934	n/a	LTP341	ltpFR2	9	n/a	n/a	n/a	15	19	4	9	6
2202.14892578125	n/a	PROB	4510001	n/a	LTP341	ltpFR2	9	n/a	n/a	n/a	15	21	8	7	6
2203.34814453125	n/a	PROB	4512457	n/a	LTP341	ltpFR2	9	n/a	n/a	n/a	15	20	8	5	7
2205.26416015625	n/a	PROB	4516381	n/a	LTP341	ltpFR2	9	n/a	n/a	n/a	15	12	1	8	3
2206.47998046875	n/a	PROB	4518871	n/a	LTP341	ltpFR2	9	n/a	n/a	n/a	15	14	6	4	4
2208.31201171875	n/a	PROB	4522623	n/a	LTP341	ltpFR2	9	n/a	n/a	n/a	15	18	6	8	4
2209.7451171875	n/a	PROB	4525558	n/a	LTP341	ltpFR2	9	n/a	n/a	n/a	15	11	2	2	7
2210.6953125	n/a	PROB	4527504	n/a	LTP341	ltpFR2	9	n/a	n/a	n/a	15	4	1	2	1
2212.01123046875	n/a	PROB	4530199	n/a	LTP341	ltpFR2	9	n/a	n/a	n/a	15	18	6	6	6
2213.193359375	n/a	PROB	4532620	n/a	LTP341	ltpFR2	9	n/a	n/a	n/a	15	11	7	2	2
2214.21044921875	n/a	STOP	4534703	n/a	LTP341	ltpFR2	9	n/a	n/a	n/a	15	n/a	n/a	n/a	n/a
2217.62646484375	n/a	REC_START	4541699	n/a	LTP341	ltpFR2	9	10	n/a	n/a	n/a	n/a	0	0	0
2217.84912109375	n/a	REC_WORD	4542155	wordpools/wasnorm_wordpool_576.txt	LTP341	ltpFR2	9	10	MAILBOX	857	n/a	n/a	0	0	0
2219.01220703125	n/a	REC_WORD	4544537	wordpools/wasnorm_wordpool_576.txt	LTP341	ltpFR2	9	10	DOUGHNUT	490	n/a	n/a	0	0	0
2219.689453125	n/a	REC_WORD	4545924	wordpools/wasnorm_wordpool_576.txt	LTP341	ltpFR2	9	10	TRENCH	1503	n/a	n/a	0	0	0
2220.75830078125	n/a	REC_WORD	4548113	wordpools/wasnorm_wordpool_576.txt	LTP341	ltpFR2	9	10	TORTOISE	1486	n/a	n/a	0	0	0
2229.45556640625	n/a	REC_WORD	4565925	wordpools/wasnorm_wordpool_576.txt	LTP341	ltpFR2	9	10	LEOPARD	812	n/a	n/a	0	0	0
2230.3916015625	n/a	REC_WORD	4567842	wordpools/wasnorm_wordpool_576.txt	LTP341	ltpFR2	9	10	PRINCE	1124	n/a	n/a	0	0	0
2233.29248046875	n/a	REC_WORD	4573783	wordpools/wasnorm_wordpool_576.txt	LTP341	ltpFR2	9	10	WASP	1593	n/a	n/a	0	0	0
2234.1484375	n/a	REC_WORD	4575536	wordpools/wasnorm_wordpool_576.txt	LTP341	ltpFR2	9	10	GRIZZLY	662	n/a	n/a	0	0	0
2237.97119140625	n/a	REC_WORD	4583365	wordpools/wasnorm_wordpool_576.txt	LTP341	ltpFR2	9	10	HOOD	714	n/a	n/a	0	0	0
2244.4755859375	n/a	REC_WORD	4596686	wordpools/wasnorm_wordpool_576.txt	LTP341	ltpFR2	9	10	AIRPLANE	12	n/a	n/a	0	0	0
2246.13037109375	n/a	REC_WORD	4600075	wordpools/wasnorm_wordpool_576.txt	LTP341	ltpFR2	9	10	CARROT	249	n/a	n/a	0	0	0
2247.521484375	n/a	REC_WORD	4602924	wordpools/wasnorm_wordpool_576.txt	LTP341	ltpFR2	9	10	LASER	801	n/a	n/a	0	0	0
2248.44970703125	n/a	REC_WORD	4604825	wordpools/wasnorm_wordpool_576.txt	LTP341	ltpFR2	9	10	WAITRESS	1581	n/a	n/a	0	0	0
2251.1376953125	n/a	REC_WORD	4610330	wordpools/wasnorm_wordpool_576.txt	LTP341	ltpFR2	9	10	CHAMPAGNE	278	n/a	n/a	0	0	0
2308.06396484375	n/a	DISTRACTOR	4726915	n/a	LTP341	ltpFR2	9	11	n/a	n/a	n/a	n/a	0	0	0
2308.06396484375	n/a	START	4726915	n/a	LTP341	ltpFR2	9	n/a	n/a	n/a	16	n/a	n/a	n/a	n/a
2308.0810546875	n/a	PROB	4726950	n/a	LTP341	ltpFR2	9	n/a	n/a	n/a	16	23	9	5	9
2309.962890625	n/a	PROB	4730804	n/a	LTP341	ltpFR2	9	n/a	n/a	n/a	16	21	9	2	9
2311.26171875	n/a	PROB	4733464	n/a	LTP341	ltpFR2	9	n/a	n/a	n/a	16	22	6	8	8
2312.578125	n/a	PROB	4736160	n/a	LTP341	ltpFR2	9	n/a	n/a	n/a	16	21	9	5	7
2313.7939453125	n/a	PROB	4738650	n/a	LTP341	ltpFR2	9	n/a	n/a	n/a	16	18	8	2	8
2315.22705078125	n/a	PROB	4741585	n/a	LTP341	ltpFR2	9	n/a	n/a	n/a	16	9	1	7	1
2316.19287109375	n/a	PROB	4743563	n/a	LTP341	ltpFR2	9	n/a	n/a	n/a	16	12	2	2	8
2317.1591796875	n/a	PROB	4745542	n/a	LTP341	ltpFR2	9	n/a	n/a	n/a	16	8	1	5	2
2318.30908203125	n/a	PROB	4747897	n/a	LTP341	ltpFR2	9	n/a	n/a	n/a	16	21	7	9	5
2320.10791015625	n/a	PROB	4751581	n/a	LTP341	ltpFR2	9	n/a	n/a	n/a	16	13	6	3	4
2321.30712890625	n/a	PROB	4754037	n/a	LTP341	ltpFR2	9	n/a	n/a	n/a	16	16	2	6	8
2322.80712890625	n/a	PROB	4757109	n/a	LTP341	ltpFR2	9	n/a	n/a	n/a	16	18	9	8	1
2323.9560546875	n/a	PROB	4759462	n/a	LTP341	ltpFR2	9	n/a	n/a	n/a	16	20	5	8	7
2325.15478515625	n/a	PROB	4761917	n/a	LTP341	ltpFR2	9	n/a	n/a	n/a	16	12	5	2	5
2326.60595703125	n/a	PROB	4764889	n/a	LTP341	ltpFR2	9	n/a	n/a	n/a	16	7	1	1	5
2327.88720703125	n/a	PROB	4767513	n/a	LTP341	ltpFR2	9	n/a	n/a	n/a	16	14	5	2	7
2332.06396484375	n/a	STOP	4776067	n/a	LTP341	ltpFR2	9	n/a	n/a	n/a	16	n/a	n/a	n/a	n/a
2332.90185546875	n/a	WORD	4777783	wordpools/wasnorm_wordpool_576.txt	LTP341	ltpFR2	9	11	SHORTCAKE	1292	n/a	n/a	0	0	0
2335.65087890625	n/a	WORD	4783413	wordpools/wasnorm_wordpool_576.txt	LTP341	ltpFR2	9	11	PADDING	999	n/a	n/a	0	0	0
2338.3662109375	n/a	WORD	4788974	wordpools/wasnorm_wordpool_576.txt	LTP341	ltpFR2	9	11	PARTNER	1017	n/a	n/a	0	0	0
2340.88134765625	n/a	WORD	4794125	wordpools/wasnorm_wordpool_576.txt	LTP341	ltpFR2	9	11	BOYFRIEND	162	n/a	n/a	0	0	0
2343.59716796875	n/a	WORD	4799687	wordpools/wasnorm_wordpool_576.txt	LTP341	ltpFR2	9	11	COCKTAIL	338	n/a	n/a	0	0	0
2346.1953125	n/a	WORD	4805008	wordpools/wasnorm_wordpool_576.txt	LTP341	ltpFR2	9	11	SMOG	1330	n/a	n/a	0	0	0
2348.76025390625	n/a	WORD	4810261	wordpools/wasnorm_wordpool_576.txt	LTP341	ltpFR2	9	11	CANDY	230	n/a	n/a	0	0	0
2351.34228515625	n/a	WORD	4815549	wordpools/wasnorm_wordpool_576.txt	LTP341	ltpFR2	9	11	CLAM	315	n/a	n/a	0	0	0
2353.8740234375	n/a	WORD	4820734	wordpools/wasnorm_wordpool_576.txt	LTP341	ltpFR2	9	11	CORAL	378	n/a	n/a	0	0	0
2356.607421875	n/a	WORD	4826332	wordpools/wasnorm_wordpool_576.txt	LTP341	ltpFR2	9	11	BASEMENT	94	n/a	n/a	0	0	0
2359.322265625	n/a	WORD	4831892	wordpools/wasnorm_wordpool_576.txt	LTP341	ltpFR2	9	11	MARSH	874	n/a	n/a	0	0	0
2361.75439453125	n/a	WORD	4836873	wordpools/wasnorm_wordpool_576.txt	LTP341	ltpFR2	9	11	GLASS	639	n/a	n/a	0	0	0
2364.4033203125	n/a	WORD	4842298	wordpools/wasnorm_wordpool_576.txt	LTP341	ltpFR2	9	11	HORNET	718	n/a	n/a	0	0	0
2367.00146484375	n/a	WORD	4847619	wordpools/wasnorm_wordpool_576.txt	LTP341	ltpFR2	9	11	HONEY	713	n/a	n/a	0	0	0
2369.4501953125	n/a	WORD	4852634	wordpools/wasnorm_wordpool_576.txt	LTP341	ltpFR2	9	11	CURTAIN	427	n/a	n/a	0	0	0
2372.115234375	n/a	WORD	4858092	wordpools/wasnorm_wordpool_576.txt	LTP341	ltpFR2	9	11	PICNIC	1060	n/a	n/a	0	0	0
2374.8974609375	n/a	WORD	4863790	wordpools/wasnorm_wordpool_576.txt	LTP341	ltpFR2	9	11	SALAD	1224	n/a	n/a	0	0	0
2377.37939453125	n/a	WORD	4868873	wordpools/wasnorm_wordpool_576.txt	LTP341	ltpFR2	9	11	HEADBAND	696	n/a	n/a	0	0	0
2380.09521484375	n/a	WORD	4874435	wordpools/wasnorm_wordpool_576.txt	LTP341	ltpFR2	9	11	DORM	488	n/a	n/a	0	0	0
2382.7275390625	n/a	WORD	4879826	wordpools/wasnorm_wordpool_576.txt	LTP341	ltpFR2	9	11	SCALLOP	1242	n/a	n/a	0	0	0
2385.50927734375	n/a	WORD	4885523	wordpools/wasnorm_wordpool_576.txt	LTP341	ltpFR2	9	11	BRANCH	168	n/a	n/a	0	0	0
2388.224609375	n/a	WORD	4891084	wordpools/wasnorm_wordpool_576.txt	LTP341	ltpFR2	9	11	PICTURE	1061	n/a	n/a	0	0	0
2390.84033203125	n/a	WORD	4896441	wordpools/wasnorm_wordpool_576.txt	LTP341	ltpFR2	9	11	FILM	565	n/a	n/a	0	0	0
2393.28857421875	n/a	WORD	4901455	wordpools/wasnorm_wordpool_576.txt	LTP341	ltpFR2	9	11	ITEM	746	n/a	n/a	0	0	0
2394.904296875	n/a	START	4904764	n/a	LTP341	ltpFR2	9	n/a	n/a	n/a	17	n/a	n/a	n/a	n/a
2396.00927734375	n/a	DISTRACTOR	4907027	n/a	LTP341	ltpFR2	9	11	n/a	n/a	n/a	n/a	0	0	0
2396.0205078125	n/a	PROB	4907050	n/a	LTP341	ltpFR2	9	n/a	n/a	n/a	17	12	1	5	6
2398.26953125	n/a	PROB	4911656	n/a	LTP341	ltpFR2	9	n/a	n/a	n/a	17	6	4	1	1
2399.33544921875	n/a	PROB	4913839	n/a	LTP341	ltpFR2	9	n/a	n/a	n/a	17	14	4	1	9
2400.25146484375	n/a	PROB	4915715	n/a	LTP341	ltpFR2	9	n/a	n/a	n/a	17	15	9	2	4
2401.66845703125	n/a	PROB	4918617	n/a	LTP341	ltpFR2	9	n/a	n/a	n/a	17	20	7	4	9
2402.8837890625	n/a	PROB	4921106	n/a	LTP341	ltpFR2	9	n/a	n/a	n/a	17	15	4	5	6
2404.0166015625	n/a	PROB	4923426	n/a	LTP341	ltpFR2	9	n/a	n/a	n/a	17	21	4	9	8
2405.19970703125	n/a	PROB	4925849	n/a	LTP341	ltpFR2	9	n/a	n/a	n/a	17	11	3	1	7
2406.11572265625	n/a	PROB	4927725	n/a	LTP341	ltpFR2	9	n/a	n/a	n/a	17	12	3	5	4
2407.1484375	n/a	PROB	4929840	n/a	LTP341	ltpFR2	9	n/a	n/a	n/a	17	20	5	8	7
2408.6328125	n/a	PROB	4932880	n/a	LTP341	ltpFR2	9	n/a	n/a	n/a	17	14	2	5	7
2409.681640625	n/a	PROB	4935028	n/a	LTP341	ltpFR2	9	n/a	n/a	n/a	17	18	8	4	6
2411.16357421875	n/a	PROB	4938063	n/a	LTP341	ltpFR2	9	n/a	n/a	n/a	17	11	1	4	6
2411.9794921875	n/a	PROB	4939734	n/a	LTP341	ltpFR2	9	n/a	n/a	n/a	17	16	6	8	2
2413.46142578125	n/a	PROB	4942769	n/a	LTP341	ltpFR2	9	n/a	n/a	n/a	17	19	4	9	6
2414.87841796875	n/a	PROB	4945671	n/a	LTP341	ltpFR2	9	n/a	n/a	n/a	17	7	4	1	2
2416.0947265625	n/a	PROB	4948162	n/a	LTP341	ltpFR2	9	n/a	n/a	n/a	17	13	4	5	4
2417.57177734375	n/a	STOP	4951187	n/a	LTP341	ltpFR2	9	n/a	n/a	n/a	17	n/a	n/a	n/a	n/a
2420.74267578125	n/a	REC_START	4957681	n/a	LTP341	ltpFR2	9	11	n/a	n/a	n/a	n/a	0	0	0
2420.74267578125	n/a	REC_WORD	4957681	wordpools/wasnorm_wordpool_576.txt	LTP341	ltpFR2	9	11	SCALLOP	1242	n/a	n/a	0	0	0
2421.61865234375	n/a	REC_WORD	4959475	wordpools/wasnorm_wordpool_576.txt	LTP341	ltpFR2	9	11	BRANCH	168	n/a	n/a	0	0	0
2422.14990234375	n/a	REC_WORD	4960563	wordpools/wasnorm_wordpool_576.txt	LTP341	ltpFR2	9	11	FILM	565	n/a	n/a	0	0	0
2422.8896484375	n/a	REC_WORD	4962078	wordpools/wasnorm_wordpool_576.txt	LTP341	ltpFR2	9	11	ITEM	746	n/a	n/a	0	0	0
2425.41357421875	n/a	REC_WORD	4967247	wordpools/wasnorm_wordpool_576.txt	LTP341	ltpFR2	9	11	BOYFRIEND	162	n/a	n/a	0	0	0
2426.08349609375	n/a	REC_WORD	4968619	wordpools/wasnorm_wordpool_576.txt	LTP341	ltpFR2	9	11	PARTNER	1017	n/a	n/a	0	0	0
2427.73291015625	n/a	REC_WORD	4971997	wordpools/wasnorm_wordpool_576.txt	LTP341	ltpFR2	9	11	SHORTCAKE	1292	n/a	n/a	0	0	0
2428.501953125	n/a	REC_WORD	4973572	wordpools/wasnorm_wordpool_576.txt	LTP341	ltpFR2	9	11	HONEY	713	n/a	n/a	0	0	0
2432.80859375	n/a	REC_WORD	4982392	wordpools/wasnorm_wordpool_576.txt	LTP341	ltpFR2	9	11	PADDING	999	n/a	n/a	0	0	0
2436.2119140625	n/a	REC_WORD	4989362	wordpools/wasnorm_wordpool_576.txt	LTP341	ltpFR2	9	11	CLAM	315	n/a	n/a	0	0	0
2438.390625	n/a	REC_WORD	4993824	wordpools/wasnorm_wordpool_576.txt	LTP341	ltpFR2	9	11	CORAL	378	n/a	n/a	0	0	0
2441.10595703125	n/a	REC_WORD	4999385	wordpools/wasnorm_wordpool_576.txt	LTP341	ltpFR2	9	11	BASEMENT	94	n/a	n/a	0	0	0
2446.041015625	n/a	REC_WORD	5009492	wordpools/wasnorm_wordpool_576.txt	LTP341	ltpFR2	9	11	GLASS	639	n/a	n/a	0	0	0
2446.748046875	n/a	REC_WORD	5010940	wordpools/wasnorm_wordpool_576.txt	LTP341	ltpFR2	9	11	HORNET	718	n/a	n/a	0	0	0
2448.841796875	n/a	REC_WORD	5015228	wordpools/wasnorm_wordpool_576.txt	LTP341	ltpFR2	9	11	DORM	488	n/a	n/a	0	0	0
2511.18115234375	n/a	DISTRACTOR	5142899	n/a	LTP341	ltpFR2	9	12	n/a	n/a	n/a	n/a	0	0	0
2511.18115234375	n/a	START	5142899	n/a	LTP341	ltpFR2	9	n/a	n/a	n/a	18	n/a	n/a	n/a	n/a
2511.197265625	n/a	PROB	5142932	n/a	LTP341	ltpFR2	9	n/a	n/a	n/a	18	25	8	8	9
2512.7802734375	n/a	PROB	5146174	n/a	LTP341	ltpFR2	9	n/a	n/a	n/a	18	9	3	1	5
2513.74609375	n/a	PROB	5148152	n/a	LTP341	ltpFR2	9	n/a	n/a	n/a	18	18	9	5	4
2514.8955078125	n/a	PROB	5150506	n/a	LTP341	ltpFR2	9	n/a	n/a	n/a	18	15	4	7	4
2516.54541015625	n/a	PROB	5153885	n/a	LTP341	ltpFR2	9	n/a	n/a	n/a	18	11	2	3	6
2519.01025390625	n/a	PROB	5158933	n/a	LTP341	ltpFR2	9	n/a	n/a	n/a	18	12	6	3	3
2520.076171875	n/a	PROB	5161116	n/a	LTP341	ltpFR2	9	n/a	n/a	n/a	18	22	8	8	6
2521.2763671875	n/a	PROB	5163574	n/a	LTP341	ltpFR2	9	n/a	n/a	n/a	18	18	4	7	7
2522.693359375	n/a	PROB	5166476	n/a	LTP341	ltpFR2	9	n/a	n/a	n/a	18	14	3	7	4
2523.94140625	n/a	PROB	5169032	n/a	LTP341	ltpFR2	9	n/a	n/a	n/a	18	23	9	5	9
2525.3076171875	n/a	PROB	5171830	n/a	LTP341	ltpFR2	9	n/a	n/a	n/a	18	11	7	2	2
2526.3076171875	n/a	PROB	5173878	n/a	LTP341	ltpFR2	9	n/a	n/a	n/a	18	17	7	1	9
2527.53955078125	n/a	PROB	5176401	n/a	LTP341	ltpFR2	9	n/a	n/a	n/a	18	18	7	5	6
2529.12255859375	n/a	PROB	5179643	n/a	LTP341	ltpFR2	9	n/a	n/a	n/a	18	19	4	9	6
2530.3544921875	n/a	PROB	5182166	n/a	LTP341	ltpFR2	9	n/a	n/a	n/a	18	18	8	8	2
2532.1875	n/a	PROB	5185920	n/a	LTP341	ltpFR2	9	n/a	n/a	n/a	18	20	4	7	9
2533.74853515625	n/a	STOP	5189117	n/a	LTP341	ltpFR2	9	n/a	n/a	n/a	18	n/a	n/a	n/a	n/a
2536.11865234375	n/a	WORD	5193971	wordpools/wasnorm_wordpool_576.txt	LTP341	ltpFR2	9	12	BIKE	125	n/a	n/a	0	0	0
2538.767578125	n/a	WORD	5199396	wordpools/wasnorm_wordpool_576.txt	LTP341	ltpFR2	9	12	TURTLE	1522	n/a	n/a	0	0	0
2541.29931640625	n/a	WORD	5204581	wordpools/wasnorm_wordpool_576.txt	LTP341	ltpFR2	9	12	RABBIT	1152	n/a	n/a	0	0	0
2543.74853515625	n/a	WORD	5209597	wordpools/wasnorm_wordpool_576.txt	LTP341	ltpFR2	9	12	VIRUS	1572	n/a	n/a	0	0	0
2546.44677734375	n/a	WORD	5215123	wordpools/wasnorm_wordpool_576.txt	LTP341	ltpFR2	9	12	BELLY	119	n/a	n/a	0	0	0
2549.21240234375	n/a	WORD	5220787	wordpools/wasnorm_wordpool_576.txt	LTP341	ltpFR2	9	12	BATHTUB	100	n/a	n/a	0	0	0
2551.8447265625	n/a	WORD	5226178	wordpools/wasnorm_wordpool_576.txt	LTP341	ltpFR2	9	12	SPOOL	1356	n/a	n/a	0	0	0
2554.2763671875	n/a	WORD	5231158	wordpools/wasnorm_wordpool_576.txt	LTP341	ltpFR2	9	12	THREAD	1460	n/a	n/a	0	0	0
2556.87548828125	n/a	WORD	5236481	wordpools/wasnorm_wordpool_576.txt	LTP341	ltpFR2	9	12	UNCLE	1536	n/a	n/a	0	0	0
2559.4736328125	n/a	WORD	5241802	wordpools/wasnorm_wordpool_576.txt	LTP341	ltpFR2	9	12	QUEEN	1149	n/a	n/a	0	0	0
2562.2724609375	n/a	WORD	5247534	wordpools/wasnorm_wordpool_576.txt	LTP341	ltpFR2	9	12	DENIM	446	n/a	n/a	0	0	0
2564.98779296875	n/a	WORD	5253095	wordpools/wasnorm_wordpool_576.txt	LTP341	ltpFR2	9	12	CUPBOARD	425	n/a	n/a	0	0	0
2567.76953125	n/a	WORD	5258792	wordpools/wasnorm_wordpool_576.txt	LTP341	ltpFR2	9	12	WITNESS	1618	n/a	n/a	0	0	0
2570.56884765625	n/a	WORD	5264525	wordpools/wasnorm_wordpool_576.txt	LTP341	ltpFR2	9	12	BANKER	84	n/a	n/a	0	0	0
2573.00048828125	n/a	WORD	5269505	wordpools/wasnorm_wordpool_576.txt	LTP341	ltpFR2	9	12	CONTRACT	368	n/a	n/a	0	0	0
2575.56591796875	n/a	WORD	5274759	wordpools/wasnorm_wordpool_576.txt	LTP341	ltpFR2	9	12	GAVEL	627	n/a	n/a	0	0	0
2578.24755859375	n/a	WORD	5280251	wordpools/wasnorm_wordpool_576.txt	LTP341	ltpFR2	9	12	SURVEY	1414	n/a	n/a	0	0	0
2580.69677734375	n/a	WORD	5285267	wordpools/wasnorm_wordpool_576.txt	LTP341	ltpFR2	9	12	PORK	1108	n/a	n/a	0	0	0
2583.31298828125	n/a	WORD	5290625	wordpools/wasnorm_wordpool_576.txt	LTP341	ltpFR2	9	12	HOSTESS	723	n/a	n/a	0	0	0
2586.044921875	n/a	WORD	5296220	wordpools/wasnorm_wordpool_576.txt	LTP341	ltpFR2	9	12	PUDDLE	1140	n/a	n/a	0	0	0
2588.47705078125	n/a	WORD	5301201	wordpools/wasnorm_wordpool_576.txt	LTP341	ltpFR2	9	12	DRIVER	499	n/a	n/a	0	0	0
2591.091796875	n/a	WORD	5306556	wordpools/wasnorm_wordpool_576.txt	LTP341	ltpFR2	9	12	PEDAL	1037	n/a	n/a	0	0	0
2593.556640625	n/a	WORD	5311604	wordpools/wasnorm_wordpool_576.txt	LTP341	ltpFR2	9	12	DIVER	476	n/a	n/a	0	0	0
2596.10595703125	n/a	WORD	5316825	wordpools/wasnorm_wordpool_576.txt	LTP341	ltpFR2	9	12	MOTOR	922	n/a	n/a	0	0	0
2597.7216796875	n/a	START	5320134	n/a	LTP341	ltpFR2	9	n/a	n/a	n/a	19	n/a	n/a	n/a	n/a
2598.81396484375	n/a	DISTRACTOR	5322371	n/a	LTP341	ltpFR2	9	12	n/a	n/a	n/a	n/a	0	0	0
2598.82080078125	n/a	PROB	5322385	n/a	LTP341	ltpFR2	9	n/a	n/a	n/a	19	18	8	9	1
2600.65478515625	n/a	PROB	5326141	n/a	LTP341	ltpFR2	9	n/a	n/a	n/a	19	19	3	7	9
2601.8701171875	n/a	PROB	5328630	n/a	LTP341	ltpFR2	9	n/a	n/a	n/a	19	17	9	1	7
2602.98583984375	n/a	PROB	5330915	n/a	LTP341	ltpFR2	9	n/a	n/a	n/a	19	13	7	4	2
2604.2021484375	n/a	PROB	5333406	n/a	LTP341	ltpFR2	9	n/a	n/a	n/a	19	1	3	9	1
2605.10205078125	n/a	PROB	5335249	n/a	LTP341	ltpFR2	9	n/a	n/a	n/a	19	14	9	4	1
2606.03515625	n/a	PROB	5337160	n/a	LTP341	ltpFR2	9	n/a	n/a	n/a	19	18	3	9	6
2607.81689453125	n/a	PROB	5340809	n/a	LTP341	ltpFR2	9	n/a	n/a	n/a	19	10	3	3	4
2609.0830078125	n/a	PROB	5343402	n/a	LTP341	ltpFR2	9	n/a	n/a	n/a	19	19	7	5	7
2610.68310546875	n/a	PROB	5346679	n/a	LTP341	ltpFR2	9	n/a	n/a	n/a	19	16	7	1	8
2611.865234375	n/a	PROB	5349100	n/a	LTP341	ltpFR2	9	n/a	n/a	n/a	19	16	9	3	4
2613.48095703125	n/a	PROB	5352409	n/a	LTP341	ltpFR2	9	n/a	n/a	n/a	19	18	5	4	9
2614.630859375	n/a	PROB	5354764	n/a	LTP341	ltpFR2	9	n/a	n/a	n/a	19	21	5	8	8
2616.69580078125	n/a	PROB	5358993	n/a	LTP341	ltpFR2	9	n/a	n/a	n/a	19	6	1	4	1
2617.76220703125	n/a	PROB	5361177	n/a	LTP341	ltpFR2	9	n/a	n/a	n/a	19	10	3	4	3
2619.3779296875	n/a	PROB	5364486	n/a	LTP341	ltpFR2	9	n/a	n/a	n/a	19	12	5	4	3
2620.47705078125	n/a	STOP	5366737	n/a	LTP341	ltpFR2	9	n/a	n/a	n/a	19	n/a	n/a	n/a	n/a
2623.56005859375	n/a	REC_START	5373051	n/a	LTP341	ltpFR2	9	12	n/a	n/a	n/a	n/a	0	0	0
2623.68798828125	n/a	REC_WORD	5373313	wordpools/wasnorm_wordpool_576.txt	LTP341	ltpFR2	9	12	SURVEY	1414	n/a	n/a	0	0	0
2624.31884765625	n/a	REC_WORD	5374605	wordpools/wasnorm_wordpool_576.txt	LTP341	ltpFR2	9	12	PORK	1108	n/a	n/a	0	0	0
2624.71484375	n/a	REC_WORD	5375416	wordpools/wasnorm_wordpool_576.txt	LTP341	ltpFR2	9	12	HOSTESS	723	n/a	n/a	0	0	0
2625.22900390625	n/a	REC_WORD	5376469	wordpools/wasnorm_wordpool_576.txt	LTP341	ltpFR2	9	12	DRIVER	499	n/a	n/a	0	0	0
2626.4921875	n/a	REC_WORD	5379056	wordpools/wasnorm_wordpool_576.txt	LTP341	ltpFR2	9	12	DIVER	476	n/a	n/a	0	0	0
2627.18994140625	n/a	REC_WORD_VV	5380485	wordpools/wasnorm_wordpool_576.txt	LTP341	ltpFR2	9	12	<>	-1	n/a	n/a	0	0	0
2627.96826171875	n/a	REC_WORD	5382079	wordpools/wasnorm_wordpool_576.txt	LTP341	ltpFR2	9	12	MOTOR	922	n/a	n/a	0	0	0
2632.833984375	n/a	REC_WORD	5392044	wordpools/wasnorm_wordpool_576.txt	LTP341	ltpFR2	9	12	VIRUS	1572	n/a	n/a	0	0	0
2635.7939453125	n/a	REC_WORD	5398106	wordpools/wasnorm_wordpool_576.txt	LTP341	ltpFR2	9	12	TURTLE	1522	n/a	n/a	0	0	0
2638.25732421875	n/a	REC_WORD	5403151	wordpools/wasnorm_wordpool_576.txt	LTP341	ltpFR2	9	12	BELLY	119	n/a	n/a	0	0	0
2638.76904296875	n/a	REC_WORD	5404199	wordpools/wasnorm_wordpool_576.txt	LTP341	ltpFR2	9	12	BATHTUB	100	n/a	n/a	0	0	0
2639.4833984375	n/a	REC_WORD	5405662	wordpools/wasnorm_wordpool_576.txt	LTP341	ltpFR2	9	12	THREAD	1460	n/a	n/a	0	0	0
2640.02294921875	n/a	REC_WORD	5406767	wordpools/wasnorm_wordpool_576.txt	LTP341	ltpFR2	9	12	UNCLE	1536	n/a	n/a	0	0	0
2640.4912109375	n/a	REC_WORD	5407726	wordpools/wasnorm_wordpool_576.txt	LTP341	ltpFR2	9	12	QUEEN	1149	n/a	n/a	0	0	0
2641.5712890625	n/a	REC_WORD	5409938	wordpools/wasnorm_wordpool_576.txt	LTP341	ltpFR2	9	12	RABBIT	1152	n/a	n/a	0	0	0
2651.90625	n/a	REC_WORD	5431104	wordpools/wasnorm_wordpool_576.txt	LTP341	ltpFR2	9	12	TRUCK	1512	n/a	n/a	0	0	0
2714.03173828125	n/a	WORD	5558337	wordpools/wasnorm_wordpool_576.txt	LTP341	ltpFR2	9	13	ARM	38	n/a	n/a	0	0	0
2716.8466796875	n/a	WORD	5564102	wordpools/wasnorm_wordpool_576.txt	LTP341	ltpFR2	9	13	MILDEW	893	n/a	n/a	0	0	0
2719.2958984375	n/a	WORD	5569118	wordpools/wasnorm_wordpool_576.txt	LTP341	ltpFR2	9	13	HAMPER	682	n/a	n/a	0	0	0
2721.82763671875	n/a	WORD	5574303	wordpools/wasnorm_wordpool_576.txt	LTP341	ltpFR2	9	13	CHURCH	307	n/a	n/a	0	0	0
2724.40966796875	n/a	WORD	5579591	wordpools/wasnorm_wordpool_576.txt	LTP341	ltpFR2	9	13	HEART	697	n/a	n/a	0	0	0
2727.091796875	n/a	WORD	5585084	wordpools/wasnorm_wordpool_576.txt	LTP341	ltpFR2	9	13	LIVER	833	n/a	n/a	0	0	0
2729.65771484375	n/a	WORD	5590339	wordpools/wasnorm_wordpool_576.txt	LTP341	ltpFR2	9	13	LAGOON	795	n/a	n/a	0	0	0
2732.18994140625	n/a	WORD	5595525	wordpools/wasnorm_wordpool_576.txt	LTP341	ltpFR2	9	13	STREAM	1392	n/a	n/a	0	0	0
2734.705078125	n/a	WORD	5600676	wordpools/wasnorm_wordpool_576.txt	LTP341	ltpFR2	9	13	COSTUME	383	n/a	n/a	0	0	0
2737.50390625	n/a	WORD	5606408	wordpools/wasnorm_wordpool_576.txt	LTP341	ltpFR2	9	13	MARROW	872	n/a	n/a	0	0	0
2740.0517578125	n/a	WORD	5611626	wordpools/wasnorm_wordpool_576.txt	LTP341	ltpFR2	9	13	ZIPPER	1636	n/a	n/a	0	0	0
2742.6689453125	n/a	WORD	5616986	wordpools/wasnorm_wordpool_576.txt	LTP341	ltpFR2	9	13	STAKE	1368	n/a	n/a	0	0	0
2745.3330078125	n/a	WORD	5622442	wordpools/wasnorm_wordpool_576.txt	LTP341	ltpFR2	9	13	SANDWICH	1232	n/a	n/a	0	0	0
2747.98193359375	n/a	WORD	5627867	wordpools/wasnorm_wordpool_576.txt	LTP341	ltpFR2	9	13	SCULPTURE	1258	n/a	n/a	0	0	0
2750.56396484375	n/a	WORD	5633155	wordpools/wasnorm_wordpool_576.txt	LTP341	ltpFR2	9	13	KIDNEY	776	n/a	n/a	0	0	0
2753.37890625	n/a	WORD	5638920	wordpools/wasnorm_wordpool_576.txt	LTP341	ltpFR2	9	13	LIGHTNING	820	n/a	n/a	0	0	0
2755.86083984375	n/a	WORD	5644003	wordpools/wasnorm_wordpool_576.txt	LTP341	ltpFR2	9	13	ANTLER	29	n/a	n/a	0	0	0
2758.44287109375	n/a	WORD	5649291	wordpools/wasnorm_wordpool_576.txt	LTP341	ltpFR2	9	13	DRAWING	494	n/a	n/a	0	0	0
2760.89208984375	n/a	WORD	5654307	wordpools/wasnorm_wordpool_576.txt	LTP341	ltpFR2	9	13	POLICE	1098	n/a	n/a	0	0	0
2763.35693359375	n/a	WORD	5659355	wordpools/wasnorm_wordpool_576.txt	LTP341	ltpFR2	9	13	TYPIST	1532	n/a	n/a	0	0	0
2766.05615234375	n/a	WORD	5664883	wordpools/wasnorm_wordpool_576.txt	LTP341	ltpFR2	9	13	LONDON	843	n/a	n/a	0	0	0
2768.7548828125	n/a	WORD	5670410	wordpools/wasnorm_wordpool_576.txt	LTP341	ltpFR2	9	13	WHISKERS	1605	n/a	n/a	0	0	0
2771.537109375	n/a	WORD	5676108	wordpools/wasnorm_wordpool_576.txt	LTP341	ltpFR2	9	13	SCISSORS	1250	n/a	n/a	0	0	0
2774.10205078125	n/a	WORD	5681361	wordpools/wasnorm_wordpool_576.txt	LTP341	ltpFR2	9	13	SWORD	1423	n/a	n/a	0	0	0
2775.71826171875	n/a	START	5684671	n/a	LTP341	ltpFR2	9	n/a	n/a	n/a	20	n/a	n/a	n/a	n/a
2776.62109375	n/a	DISTRACTOR	5686520	n/a	LTP341	ltpFR2	9	13	n/a	n/a	n/a	n/a	0	0	0
2776.63525390625	n/a	PROB	5686549	n/a	LTP341	ltpFR2	9	n/a	n/a	n/a	20	16	7	5	4
2779.4990234375	n/a	PROB	5692414	n/a	LTP341	ltpFR2	9	n/a	n/a	n/a	20	6	1	3	2
2780.58203125	n/a	PROB	5694632	n/a	LTP341	ltpFR2	9	n/a	n/a	n/a	20	19	4	7	8
2781.81494140625	n/a	PROB	5697157	n/a	LTP341	ltpFR2	9	n/a	n/a	n/a	20	21	9	9	3
2783.23095703125	n/a	PROB	5700057	n/a	LTP341	ltpFR2	9	n/a	n/a	n/a	20	9	2	2	5
2784.34716796875	n/a	PROB	5702343	n/a	LTP341	ltpFR2	9	n/a	n/a	n/a	20	14	4	1	9
2785.43017578125	n/a	PROB	5704561	n/a	LTP341	ltpFR2	9	n/a	n/a	n/a	20	8	1	2	5
2786.71337890625	n/a	PROB	5707189	n/a	LTP341	ltpFR2	9	n/a	n/a	n/a	20	26	9	8	9
2788.89501953125	n/a	PROB	5711657	n/a	LTP341	ltpFR2	9	n/a	n/a	n/a	20	16	3	9	4
2791.01025390625	n/a	PROB	5715989	n/a	LTP341	ltpFR2	9	n/a	n/a	n/a	20	14	6	4	4
2793.0263671875	n/a	PROB	5720118	n/a	LTP341	ltpFR2	9	n/a	n/a	n/a	20	25	9	9	7
2794.84228515625	n/a	PROB	5723837	n/a	LTP341	ltpFR2	9	n/a	n/a	n/a	20	9	6	1	2
2799.71826171875	n/a	STOP	5733823	n/a	LTP341	ltpFR2	9	n/a	n/a	n/a	20	n/a	n/a	n/a	n/a
2801.572265625	n/a	REC_START	5737620	n/a	LTP341	ltpFR2	9	13	n/a	n/a	n/a	n/a	0	0	0
2804.84228515625	n/a	REC_WORD	5744317	wordpools/wasnorm_wordpool_576.txt	LTP341	ltpFR2	9	13	HAMPER	682	n/a	n/a	0	0	0
2807.2041015625	n/a	REC_WORD	5749154	wordpools/wasnorm_wordpool_576.txt	LTP341	ltpFR2	9	13	HEART	697	n/a	n/a	0	0	0
2809.23046875	n/a	REC_WORD	5753304	wordpools/wasnorm_wordpool_576.txt	LTP341	ltpFR2	9	13	CHURCH	307	n/a	n/a	0	0	0
2816.82763671875	n/a	REC_WORD	5768863	wordpools/wasnorm_wordpool_576.txt	LTP341	ltpFR2	9	13	ZIPPER	1636	n/a	n/a	0	0	0
2817.9326171875	n/a	REC_WORD	5771126	wordpools/wasnorm_wordpool_576.txt	LTP341	ltpFR2	9	13	LIVER	833	n/a	n/a	0	0	0
2818.50146484375	n/a	REC_WORD	5772291	wordpools/wasnorm_wordpool_576.txt	LTP341	ltpFR2	9	13	KIDNEY	776	n/a	n/a	0	0	0
2825.2373046875	n/a	REC_WORD	5786086	wordpools/wasnorm_wordpool_576.txt	LTP341	ltpFR2	9	13	ANTLER	29	n/a	n/a	0	0	0
2831.849609375	n/a	REC_WORD	5799628	wordpools/wasnorm_wordpool_576.txt	LTP341	ltpFR2	9	13	WHISKERS	1605	n/a	n/a	0	0	0
2835.09765625	n/a	REC_WORD	5806280	wordpools/wasnorm_wordpool_576.txt	LTP341	ltpFR2	9	13	POLICE	1098	n/a	n/a	0	0	0
2844.58837890625	n/a	REC_WORD	5825717	wordpools/wasnorm_wordpool_576.txt	LTP341	ltpFR2	9	13	LONDON	843	n/a	n/a	0	0	0
2845.5244140625	n/a	REC_WORD	5827634	wordpools/wasnorm_wordpool_576.txt	LTP341	ltpFR2	9	13	TYPIST	1532	n/a	n/a	0	0	0
2864.048828125	n/a	REC_WORD	5865572	wordpools/wasnorm_wordpool_576.txt	LTP341	ltpFR2	9	13	STREAM	1392	n/a	n/a	0	0	0
2870.77685546875	n/a	REC_WORD	5879351	wordpools/wasnorm_wordpool_576.txt	LTP341	ltpFR2	9	13	SANDWICH	1232	n/a	n/a	0	0	0
2892.0107421875	n/a	DISTRACTOR	5922838	n/a	LTP341	ltpFR2	9	14	n/a	n/a	n/a	n/a	0	0	0
2892.0107421875	n/a	START	5922838	n/a	LTP341	ltpFR2	9	n/a	n/a	n/a	21	n/a	n/a	n/a	n/a
2892.02783203125	n/a	PROB	5922873	n/a	LTP341	ltpFR2	9	n/a	n/a	n/a	21	11	4	2	5
2894.0771484375	n/a	PROB	5927070	n/a	LTP341	ltpFR2	9	n/a	n/a	n/a	21	10	6	2	2
2895.17578125	n/a	PROB	5929320	n/a	LTP341	ltpFR2	9	n/a	n/a	n/a	21	20	9	3	8
2896.60986328125	n/a	PROB	5932257	n/a	LTP341	ltpFR2	9	n/a	n/a	n/a	21	16	3	6	7
2898.1748046875	n/a	PROB	5935462	n/a	LTP341	ltpFR2	9	n/a	n/a	n/a	21	20	9	4	7
2899.625	n/a	PROB	5938432	n/a	LTP341	ltpFR2	9	n/a	n/a	n/a	21	19	6	5	8
2900.873046875	n/a	PROB	5940988	n/a	LTP341	ltpFR2	9	n/a	n/a	n/a	21	16	8	5	3
2902.72314453125	n/a	PROB	5944777	n/a	LTP341	ltpFR2	9	n/a	n/a	n/a	21	15	7	3	5
2903.8388671875	n/a	PROB	5947062	n/a	LTP341	ltpFR2	9	n/a	n/a	n/a	21	1	3	8	5
2905.2880859375	n/a	PROB	5950030	n/a	LTP341	ltpFR2	9	n/a	n/a	n/a	21	25	9	8	8
2907.27001953125	n/a	PROB	5954089	n/a	LTP341	ltpFR2	9	n/a	n/a	n/a	21	11	2	4	5
2908.62109375	n/a	PROB	5956856	n/a	LTP341	ltpFR2	9	n/a	n/a	n/a	21	14	8	3	3
2909.85205078125	n/a	PROB	5959377	n/a	LTP341	ltpFR2	9	n/a	n/a	n/a	21	15	1	6	8
2911.6689453125	n/a	PROB	5963098	n/a	LTP341	ltpFR2	9	n/a	n/a	n/a	21	12	1	6	5
2912.65185546875	n/a	PROB	5965111	n/a	LTP341	ltpFR2	9	n/a	n/a	n/a	21	19	9	6	4
2914.21728515625	n/a	PROB	5968317	n/a	LTP341	ltpFR2	9	n/a	n/a	n/a	21	9	7	1	1
2915.1591796875	n/a	STOP	5970246	n/a	LTP341	ltpFR2	9	n/a	n/a	n/a	21	n/a	n/a	n/a	n/a
2917.08203125	n/a	WORD	5974184	wordpools/wasnorm_wordpool_576.txt	LTP341	ltpFR2	9	14	BISON	131	n/a	n/a	0	0	0
2919.89697265625	n/a	WORD	5979949	wordpools/wasnorm_wordpool_576.txt	LTP341	ltpFR2	9	14	TRACTOR	1493	n/a	n/a	0	0	0
2922.6142578125	n/a	WORD	5985514	wordpools/wasnorm_wordpool_576.txt	LTP341	ltpFR2	9	14	ORANGE	980	n/a	n/a	0	0	0
2925.39501953125	n/a	WORD	5991209	wordpools/wasnorm_wordpool_576.txt	LTP341	ltpFR2	9	14	PARROT	1015	n/a	n/a	0	0	0
2928.14306640625	n/a	WORD	5996837	wordpools/wasnorm_wordpool_576.txt	LTP341	ltpFR2	9	14	CUSTARD	429	n/a	n/a	0	0	0
2930.9091796875	n/a	WORD	6002502	wordpools/wasnorm_wordpool_576.txt	LTP341	ltpFR2	9	14	BLOCKADE	137	n/a	n/a	0	0	0
2933.39111328125	n/a	WORD	6007585	wordpools/wasnorm_wordpool_576.txt	LTP341	ltpFR2	9	14	FRUIT	610	n/a	n/a	0	0	0
2935.9892578125	n/a	WORD	6012906	wordpools/wasnorm_wordpool_576.txt	LTP341	ltpFR2	9	14	TILE	1468	n/a	n/a	0	0	0
2938.5712890625	n/a	WORD	6018194	wordpools/wasnorm_wordpool_576.txt	LTP341	ltpFR2	9	14	CEILING	265	n/a	n/a	0	0	0
2941.08740234375	n/a	WORD	6023347	wordpools/wasnorm_wordpool_576.txt	LTP341	ltpFR2	9	14	VALVE	1546	n/a	n/a	0	0	0
2943.90234375	n/a	WORD	6029112	wordpools/wasnorm_wordpool_576.txt	LTP341	ltpFR2	9	14	BUBBLE	183	n/a	n/a	0	0	0
2946.65234375	n/a	WORD	6034744	wordpools/wasnorm_wordpool_576.txt	LTP341	ltpFR2	9	14	CLOTHES	327	n/a	n/a	0	0	0
2949.150390625	n/a	WORD	6039860	wordpools/wasnorm_wordpool_576.txt	LTP341	ltpFR2	9	14	GLOVE	642	n/a	n/a	0	0	0
2951.63330078125	n/a	WORD	6044945	wordpools/wasnorm_wordpool_576.txt	LTP341	ltpFR2	9	14	BACKBONE	66	n/a	n/a	0	0	0
2954.2802734375	n/a	WORD	6050366	wordpools/wasnorm_wordpool_576.txt	LTP341	ltpFR2	9	14	COFFEE	341	n/a	n/a	0	0	0
2956.779296875	n/a	WORD	6055484	wordpools/wasnorm_wordpool_576.txt	LTP341	ltpFR2	9	14	JAPAN	749	n/a	n/a	0	0	0
2959.24462890625	n/a	WORD	6060533	wordpools/wasnorm_wordpool_576.txt	LTP341	ltpFR2	9	14	EUROPE	541	n/a	n/a	0	0	0
2961.943359375	n/a	WORD	6066060	wordpools/wasnorm_wordpool_576.txt	LTP341	ltpFR2	9	14	RATTLE	1170	n/a	n/a	0	0	0
2964.7421875	n/a	WORD	6071792	wordpools/wasnorm_wordpool_576.txt	LTP341	ltpFR2	9	14	SPOUSE	1358	n/a	n/a	0	0	0
2967.5576171875	n/a	WORD	6077558	wordpools/wasnorm_wordpool_576.txt	LTP341	ltpFR2	9	14	SCALPEL	1243	n/a	n/a	0	0	0
2970.1064453125	n/a	WORD	6082778	wordpools/wasnorm_wordpool_576.txt	LTP341	ltpFR2	9	14	RAFT	1159	n/a	n/a	0	0	0
2972.5556640625	n/a	WORD	6087794	wordpools/wasnorm_wordpool_576.txt	LTP341	ltpFR2	9	14	BALLOON	75	n/a	n/a	0	0	0
2975.00341796875	n/a	WORD	6092807	wordpools/wasnorm_wordpool_576.txt	LTP341	ltpFR2	9	14	GROUND	666	n/a	n/a	0	0	0
2977.603515625	n/a	WORD	6098132	wordpools/wasnorm_wordpool_576.txt	LTP341	ltpFR2	9	14	WRIST	1626	n/a	n/a	0	0	0
2979.2197265625	n/a	START	6101442	n/a	LTP341	ltpFR2	9	n/a	n/a	n/a	22	n/a	n/a	n/a	n/a
2980.04443359375	n/a	DISTRACTOR	6103131	n/a	LTP341	ltpFR2	9	14	n/a	n/a	n/a	n/a	0	0	0
2980.0517578125	n/a	PROB	6103146	n/a	LTP341	ltpFR2	9	n/a	n/a	n/a	22	20	5	7	8
2982.53369140625	n/a	PROB	6108229	n/a	LTP341	ltpFR2	9	n/a	n/a	n/a	22	12	2	4	6
2983.61767578125	n/a	PROB	6110449	n/a	LTP341	ltpFR2	9	n/a	n/a	n/a	22	20	5	9	6
2984.71533203125	n/a	PROB	6112697	n/a	LTP341	ltpFR2	9	n/a	n/a	n/a	22	9	7	1	1
2985.5654296875	n/a	PROB	6114438	n/a	LTP341	ltpFR2	9	n/a	n/a	n/a	22	21	7	7	7
2986.71435546875	n/a	PROB	6116791	n/a	LTP341	ltpFR2	9	n/a	n/a	n/a	22	4	1	2	1
2987.73046875	n/a	PROB	6118872	n/a	LTP341	ltpFR2	9	n/a	n/a	n/a	22	9	4	2	3
2989.013671875	n/a	PROB	6121500	n/a	LTP341	ltpFR2	9	n/a	n/a	n/a	22	14	2	3	9
2990.07958984375	n/a	PROB	6123683	n/a	LTP341	ltpFR2	9	n/a	n/a	n/a	22	11	4	2	5
2991.1455078125	n/a	PROB	6125866	n/a	LTP341	ltpFR2	9	n/a	n/a	n/a	22	18	3	7	8
2992.41162109375	n/a	PROB	6128459	n/a	LTP341	ltpFR2	9	n/a	n/a	n/a	22	14	4	9	1
2993.3447265625	n/a	PROB	6130370	n/a	LTP341	ltpFR2	9	n/a	n/a	n/a	22	16	7	4	5
2995.060546875	n/a	PROB	6133884	n/a	LTP341	ltpFR2	9	n/a	n/a	n/a	22	7	2	3	2
2996.90966796875	n/a	PROB	6137671	n/a	LTP341	ltpFR2	9	n/a	n/a	n/a	22	18	8	7	3
2998.2255859375	n/a	PROB	6140366	n/a	LTP341	ltpFR2	9	n/a	n/a	n/a	22	14	7	4	3
2999.07568359375	n/a	PROB	6142107	n/a	LTP341	ltpFR2	9	n/a	n/a	n/a	22	15	2	5	8
3000.224609375	n/a	PROB	6144460	n/a	LTP341	ltpFR2	9	n/a	n/a	n/a	22	18	6	8	4
3001.45751953125	n/a	PROB	6146985	n/a	LTP341	ltpFR2	9	n/a	n/a	n/a	22	17	9	3	5
3002.84765625	n/a	STOP	6149832	n/a	LTP341	ltpFR2	9	n/a	n/a	n/a	22	n/a	n/a	n/a	n/a
3005.03955078125	n/a	REC_START	6154321	n/a	LTP341	ltpFR2	9	14	n/a	n/a	n/a	n/a	0	0	0
3005.69287109375	n/a	REC_WORD	6155659	wordpools/wasnorm_wordpool_576.txt	LTP341	ltpFR2	9	14	BALLOON	75	n/a	n/a	0	0	0
3006.31787109375	n/a	REC_WORD	6156939	wordpools/wasnorm_wordpool_576.txt	LTP341	ltpFR2	9	14	GROUND	666	n/a	n/a	0	0	0
3007.017578125	n/a	REC_WORD	6158372	wordpools/wasnorm_wordpool_576.txt	LTP341	ltpFR2	9	14	WRIST	1626	n/a	n/a	0	0	0
3008.93359375	n/a	REC_WORD	6162296	wordpools/wasnorm_wordpool_576.txt	LTP341	ltpFR2	9	14	TRACTOR	1493	n/a	n/a	0	0	0
3010.56982421875	n/a	REC_WORD	6165647	wordpools/wasnorm_wordpool_576.txt	LTP341	ltpFR2	9	14	BISON	131	n/a	n/a	0	0	0
3012.77783203125	n/a	REC_WORD	6170169	wordpools/wasnorm_wordpool_576.txt	LTP341	ltpFR2	9	14	ORANGE	980	n/a	n/a	0	0	0
3013.23681640625	n/a	REC_WORD	6171109	wordpools/wasnorm_wordpool_576.txt	LTP341	ltpFR2	9	14	FRUIT	610	n/a	n/a	0	0	0
3013.69189453125	n/a	REC_WORD	6172041	wordpools/wasnorm_wordpool_576.txt	LTP341	ltpFR2	9	14	PARROT	1015	n/a	n/a	0	0	0
3016.69384765625	n/a	REC_WORD	6178189	wordpools/wasnorm_wordpool_576.txt	LTP341	ltpFR2	9	14	TILE	1468	n/a	n/a	0	0	0
3017.24072265625	n/a	REC_WORD	6179309	wordpools/wasnorm_wordpool_576.txt	LTP341	ltpFR2	9	14	CEILING	265	n/a	n/a	0	0	0
3018.2626953125	n/a	REC_WORD	6181402	wordpools/wasnorm_wordpool_576.txt	LTP341	ltpFR2	9	14	CUSTARD	429	n/a	n/a	0	0	0
3019.9267578125	n/a	REC_WORD	6184810	wordpools/wasnorm_wordpool_576.txt	LTP341	ltpFR2	9	14	BLOCKADE	137	n/a	n/a	0	0	0
3025.23779296875	n/a	REC_WORD	6195687	wordpools/wasnorm_wordpool_576.txt	LTP341	ltpFR2	9	14	SPOUSE	1358	n/a	n/a	0	0	0
3035.10400390625	n/a	REC_WORD	6215893	wordpools/wasnorm_wordpool_576.txt	LTP341	ltpFR2	9	14	GLOVE	642	n/a	n/a	0	0	0
3036.2958984375	n/a	REC_WORD	6218334	wordpools/wasnorm_wordpool_576.txt	LTP341	ltpFR2	9	14	BACKBONE	66	n/a	n/a	0	0	0
3045.27783203125	n/a	REC_WORD	6236729	wordpools/wasnorm_wordpool_576.txt	LTP341	ltpFR2	9	14	COFFEE	341	n/a	n/a	0	0	0
3049.9521484375	n/a	REC_WORD	6246302	wordpools/wasnorm_wordpool_576.txt	LTP341	ltpFR2	9	14	JAPAN	749	n/a	n/a	0	0	0
3050.72607421875	n/a	REC_WORD	6247887	wordpools/wasnorm_wordpool_576.txt	LTP341	ltpFR2	9	14	EUROPE	541	n/a	n/a	0	0	0
3051.94921875	n/a	REC_WORD	6250392	wordpools/wasnorm_wordpool_576.txt	LTP341	ltpFR2	9	14	RATTLE	1170	n/a	n/a	0	0	0
3095.494140625	n/a	WORD	6339572	wordpools/wasnorm_wordpool_576.txt	LTP341	ltpFR2	9	15	MISTER	901	n/a	n/a	0	0	0
3097.9931640625	n/a	WORD	6344690	wordpools/wasnorm_wordpool_576.txt	LTP341	ltpFR2	9	15	TABLE	1426	n/a	n/a	0	0	0
3100.62646484375	n/a	WORD	6350083	wordpools/wasnorm_wordpool_576.txt	LTP341	ltpFR2	9	15	COUCH	386	n/a	n/a	0	0	0
3103.17431640625	n/a	WORD	6355301	wordpools/wasnorm_wordpool_576.txt	LTP341	ltpFR2	9	15	ROBBER	1197	n/a	n/a	0	0	0
3105.6572265625	n/a	WORD	6360386	wordpools/wasnorm_wordpool_576.txt	LTP341	ltpFR2	9	15	TROUT	1511	n/a	n/a	0	0	0
3108.4384765625	n/a	WORD	6366082	wordpools/wasnorm_wordpool_576.txt	LTP341	ltpFR2	9	15	PATIENT	1024	n/a	n/a	0	0	0
3110.9375	n/a	WORD	6371200	wordpools/wasnorm_wordpool_576.txt	LTP341	ltpFR2	9	15	HAWK	692	n/a	n/a	0	0	0
3113.41943359375	n/a	WORD	6376283	wordpools/wasnorm_wordpool_576.txt	LTP341	ltpFR2	9	15	BREAST	171	n/a	n/a	0	0	0
3115.9345703125	n/a	WORD	6381434	wordpools/wasnorm_wordpool_576.txt	LTP341	ltpFR2	9	15	FUNGUS	614	n/a	n/a	0	0	0
3118.7333984375	n/a	WORD	6387166	wordpools/wasnorm_wordpool_576.txt	LTP341	ltpFR2	9	15	SUBWAY	1400	n/a	n/a	0	0	0
3121.265625	n/a	WORD	6392352	wordpools/wasnorm_wordpool_576.txt	LTP341	ltpFR2	9	15	WAGON	1578	n/a	n/a	0	0	0
3124.064453125	n/a	WORD	6398084	wordpools/wasnorm_wordpool_576.txt	LTP341	ltpFR2	9	15	PUDDING	1139	n/a	n/a	0	0	0
3126.77978515625	n/a	WORD	6403645	wordpools/wasnorm_wordpool_576.txt	LTP341	ltpFR2	9	15	ORCHID	982	n/a	n/a	0	0	0
3129.3447265625	n/a	WORD	6408898	wordpools/wasnorm_wordpool_576.txt	LTP341	ltpFR2	9	15	MARKER	870	n/a	n/a	0	0	0
3131.84375	n/a	WORD	6414016	wordpools/wasnorm_wordpool_576.txt	LTP341	ltpFR2	9	15	PASTRY	1022	n/a	n/a	0	0	0
3134.4755859375	n/a	WORD	6419406	wordpools/wasnorm_wordpool_576.txt	LTP341	ltpFR2	9	15	DANDRUFF	439	n/a	n/a	0	0	0
3136.99169921875	n/a	WORD	6424559	wordpools/wasnorm_wordpool_576.txt	LTP341	ltpFR2	9	15	BRACES	164	n/a	n/a	0	0	0
3139.806640625	n/a	WORD	6430324	wordpools/wasnorm_wordpool_576.txt	LTP341	ltpFR2	9	15	SCARF	1246	n/a	n/a	0	0	0
3142.4716796875	n/a	WORD	6435782	wordpools/wasnorm_wordpool_576.txt	LTP341	ltpFR2	9	15	PLAYGROUND	1087	n/a	n/a	0	0	0
3145.1376953125	n/a	WORD	6441242	wordpools/wasnorm_wordpool_576.txt	LTP341	ltpFR2	9	15	INFANT	737	n/a	n/a	0	0	0
3147.56982421875	n/a	WORD	6446223	wordpools/wasnorm_wordpool_576.txt	LTP341	ltpFR2	9	15	PANTHER	1009	n/a	n/a	0	0	0
3150.31787109375	n/a	WORD	6451851	wordpools/wasnorm_wordpool_576.txt	LTP341	ltpFR2	9	15	NOMAD	955	n/a	n/a	0	0	0
3152.91650390625	n/a	WORD	6457173	wordpools/wasnorm_wordpool_576.txt	LTP341	ltpFR2	9	15	LADY	794	n/a	n/a	0	0	0
3155.48193359375	n/a	WORD	6462427	wordpools/wasnorm_wordpool_576.txt	LTP341	ltpFR2	9	15	OUTLAW	989	n/a	n/a	0	0	0
3157.0986328125	n/a	START	6465738	n/a	LTP341	ltpFR2	9	n/a	n/a	n/a	23	n/a	n/a	n/a	n/a
3158.29296875	n/a	DISTRACTOR	6468184	n/a	LTP341	ltpFR2	9	15	n/a	n/a	n/a	n/a	0	0	0
3158.2978515625	n/a	PROB	6468194	n/a	LTP341	ltpFR2	9	n/a	n/a	n/a	23	18	1	8	9
3160.66357421875	n/a	PROB	6473039	n/a	LTP341	ltpFR2	9	n/a	n/a	n/a	23	18	2	9	7
3162.0458984375	n/a	PROB	6475870	n/a	LTP341	ltpFR2	9	n/a	n/a	n/a	23	18	9	7	2
3163.5947265625	n/a	PROB	6479042	n/a	LTP341	ltpFR2	9	n/a	n/a	n/a	23	14	1	4	9
3164.52783203125	n/a	PROB	6480953	n/a	LTP341	ltpFR2	9	n/a	n/a	n/a	23	11	6	3	2
3165.77685546875	n/a	PROB	6483511	n/a	LTP341	ltpFR2	9	n/a	n/a	n/a	23	8	1	2	5
3167.42578125	n/a	PROB	6486888	n/a	LTP341	ltpFR2	9	n/a	n/a	n/a	23	6	3	2	1
3168.82568359375	n/a	PROB	6489755	n/a	LTP341	ltpFR2	9	n/a	n/a	n/a	23	14	1	8	5
3169.74169921875	n/a	PROB	6491631	n/a	LTP341	ltpFR2	9	n/a	n/a	n/a	23	9	1	2	6
3170.8076171875	n/a	PROB	6493814	n/a	LTP341	ltpFR2	9	n/a	n/a	n/a	23	24	7	9	8
3172.6748046875	n/a	PROB	6497638	n/a	LTP341	ltpFR2	9	n/a	n/a	n/a	23	9	4	1	4
3173.90673828125	n/a	PROB	6500161	n/a	LTP341	ltpFR2	9	n/a	n/a	n/a	23	15	8	4	3
3175.22265625	n/a	PROB	6502856	n/a	LTP341	ltpFR2	9	n/a	n/a	n/a	23	12	5	5	2
3176.3046875	n/a	PROB	6505072	n/a	LTP341	ltpFR2	9	n/a	n/a	n/a	23	16	4	9	3
3177.7548828125	n/a	PROB	6508042	n/a	LTP341	ltpFR2	9	n/a	n/a	n/a	23	7	3	3	1
3178.93701171875	n/a	PROB	6510463	n/a	LTP341	ltpFR2	9	n/a	n/a	n/a	23	10	4	3	3
3180.296875	n/a	STOP	6513248	n/a	LTP341	ltpFR2	9	n/a	n/a	n/a	23	n/a	n/a	n/a	n/a
