mstime	trial_type	stim_file	subject	experiment	session	trial	task	item_name	item_num	recog_conf	resp	color_b	color_g	color_r	case	font
0	SESS_START	n/a	LTP231	ltpFR	2	n/a	n/a	n/a	n/a	3	n/a	n/a	n/a	n/a	n/a	n/a
75600	WORD	wordpools/wasnorm_wordpool_less_exclusions.txt	LTP231	ltpFR	2	1	1	ALLEY	15	n/a	0	0	0.5869140625	0.422607421875	lower	../fonts/zerothre.ttf
79610	WORD	wordpools/wasnorm_wordpool_less_exclusions.txt	LTP231	ltpFR	2	1	1	ANIMAL	23	n/a	1	0	0.5869140625	0.422607421875	lower	../fonts/zerothre.ttf
83654	WORD	wordpools/wasnorm_wordpool_less_exclusions.txt	LTP231	ltpFR	2	1	1	BIRD	129	n/a	1	0	0.5869140625	0.422607421875	lower	../fonts/zerothre.ttf
87515	WORD	wordpools/wasnorm_wordpool_less_exclusions.txt	LTP231	ltpFR	2	1	1	FOLLOWER	589	n/a	1	0	0.5869140625	0.422607421875	lower	../fonts/zerothre.ttf
91443	WORD	wordpools/wasnorm_wordpool_less_exclusions.txt	LTP231	ltpFR	2	1	0	BALLOT	76	n/a	0	1	0.412841796875	0.57763671875	upper	../fonts/amplitud.ttf
95520	WORD	wordpools/wasnorm_wordpool_less_exclusions.txt	LTP231	ltpFR	2	1	0	FUDGE	611	n/a	0	1	0.412841796875	0.57763671875	upper	../fonts/amplitud.ttf
99647	WORD	wordpools/wasnorm_wordpool_less_exclusions.txt	LTP231	ltpFR	2	1	0	CAMEL	223	n/a	1	1	0.412841796875	0.57763671875	upper	../fonts/amplitud.ttf
103857	WORD	wordpools/wasnorm_wordpool_less_exclusions.txt	LTP231	ltpFR	2	1	0	RAIL	1161	n/a	1	1	0.412841796875	0.57763671875	upper	../fonts/amplitud.ttf
107868	WORD	wordpools/wasnorm_wordpool_less_exclusions.txt	LTP231	ltpFR	2	1	1	RECEPTIONIST	1174	n/a	1	0	0.5869140625	0.422607421875	lower	../fonts/zerothre.ttf
112013	WORD	wordpools/wasnorm_wordpool_less_exclusions.txt	LTP231	ltpFR	2	1	1	CABIN	211	n/a	0	0	0.5869140625	0.422607421875	lower	../fonts/zerothre.ttf
116157	WORD	wordpools/wasnorm_wordpool_less_exclusions.txt	LTP231	ltpFR	2	1	1	HOUND	724	n/a	1	0	0.5869140625	0.422607421875	lower	../fonts/zerothre.ttf
120134	WORD	wordpools/wasnorm_wordpool_less_exclusions.txt	LTP231	ltpFR	2	1	1	PUPPY	1144	n/a	1	0	0.5869140625	0.422607421875	lower	../fonts/zerothre.ttf
123995	WORD	wordpools/wasnorm_wordpool_less_exclusions.txt	LTP231	ltpFR	2	1	0	CHOCOLATE	306	n/a	0	1	0.412841796875	0.57763671875	upper	../fonts/amplitud.ttf
127938	WORD	wordpools/wasnorm_wordpool_less_exclusions.txt	LTP231	ltpFR	2	1	0	PRINCE	1124	n/a	1	1	0.412841796875	0.57763671875	upper	../fonts/amplitud.ttf
132149	WORD	wordpools/wasnorm_wordpool_less_exclusions.txt	LTP231	ltpFR	2	1	0	PLATE	1086	n/a	0	1	0.412841796875	0.57763671875	upper	../fonts/amplitud.ttf
136060	WORD	wordpools/wasnorm_wordpool_less_exclusions.txt	LTP231	ltpFR	2	1	0	KITCHEN	778	n/a	1	1	0.412841796875	0.57763671875	upper	../fonts/amplitud.ttf
142019	REC_START	n/a	LTP231	ltpFR	2	1	n/a	n/a	n/a	n/a	n/a	n/a	n/a	n/a	n/a	n/a
143465	REC_WORD	wordpools/wasnorm_wordpool_less_exclusions.txt	LTP231	ltpFR	2	1	0	KITCHEN	778	n/a	1	n/a	n/a	n/a	n/a	n/a
144029	REC_WORD	wordpools/wasnorm_wordpool_less_exclusions.txt	LTP231	ltpFR	2	1	1	FOLLOWER	589	n/a	1	n/a	n/a	n/a	n/a	n/a
145346	REC_WORD	wordpools/wasnorm_wordpool_less_exclusions.txt	LTP231	ltpFR	2	1	0	PLATE	1086	n/a	0	n/a	n/a	n/a	n/a	n/a
146758	REC_WORD	wordpools/wasnorm_wordpool_less_exclusions.txt	LTP231	ltpFR	2	1	1	HOUND	724	n/a	1	n/a	n/a	n/a	n/a	n/a
149517	REC_WORD	wordpools/wasnorm_wordpool_less_exclusions.txt	LTP231	ltpFR	2	1	1	BIRD	129	n/a	1	n/a	n/a	n/a	n/a	n/a
150100	REC_WORD	wordpools/wasnorm_wordpool_less_exclusions.txt	LTP231	ltpFR	2	1	1	ANIMAL	23	n/a	1	n/a	n/a	n/a	n/a	n/a
154205	REC_WORD	wordpools/wasnorm_wordpool_less_exclusions.txt	LTP231	ltpFR	2	1	1	RECEPTIONIST	1174	n/a	1	n/a	n/a	n/a	n/a	n/a
155205	REC_WORD_VV	wordpools/wasnorm_wordpool_less_exclusions.txt	LTP231	ltpFR	2	1	n/a	<>	-1	n/a	n/a	n/a	n/a	n/a	n/a	n/a
188009	REC_WORD	wordpools/wasnorm_wordpool_less_exclusions.txt	LTP231	ltpFR	2	1	0	PRINCE	1124	n/a	1	n/a	n/a	n/a	n/a	n/a
193716	REC_WORD	wordpools/wasnorm_wordpool_less_exclusions.txt	LTP231	ltpFR	2	1	0	BALLOT	76	n/a	0	n/a	n/a	n/a	n/a	n/a
224012	WORD	wordpools/wasnorm_wordpool_less_exclusions.txt	LTP231	ltpFR	2	2	0	TEMPLE	1448	n/a	1	1	0.412841796875	0.57763671875	upper	../fonts/amplitud.ttf
228040	WORD	wordpools/wasnorm_wordpool_less_exclusions.txt	LTP231	ltpFR	2	2	0	PRESIDENT	1121	n/a	1	1	0.412841796875	0.57763671875	upper	../fonts/amplitud.ttf
232150	WORD	wordpools/wasnorm_wordpool_less_exclusions.txt	LTP231	ltpFR	2	2	1	YARN	1631	n/a	0	0	0.5869140625	0.422607421875	lower	../fonts/zerothre.ttf
236227	WORD	wordpools/wasnorm_wordpool_less_exclusions.txt	LTP231	ltpFR	2	2	1	THIMBLE	1458	n/a	0	0	0.5869140625	0.422607421875	lower	../fonts/zerothre.ttf
240371	WORD	wordpools/wasnorm_wordpool_less_exclusions.txt	LTP231	ltpFR	2	2	0	SHRINE	1298	n/a	1	1	0.412841796875	0.57763671875	upper	../fonts/amplitud.ttf
244497	WORD	wordpools/wasnorm_wordpool_less_exclusions.txt	LTP231	ltpFR	2	2	0	HUT	729	n/a	1	1	0.412841796875	0.57763671875	upper	../fonts/amplitud.ttf
248359	WORD	wordpools/wasnorm_wordpool_less_exclusions.txt	LTP231	ltpFR	2	2	0	SENATOR	1268	n/a	1	1	0.412841796875	0.57763671875	upper	../fonts/amplitud.ttf
252452	WORD	wordpools/wasnorm_wordpool_less_exclusions.txt	LTP231	ltpFR	2	2	0	FRUIT	610	n/a	0	1	0.412841796875	0.57763671875	upper	../fonts/amplitud.ttf
256364	WORD	wordpools/wasnorm_wordpool_less_exclusions.txt	LTP231	ltpFR	2	2	0	BROCCOLI	176	n/a	0	1	0.412841796875	0.57763671875	upper	../fonts/amplitud.ttf
260540	WORD	wordpools/wasnorm_wordpool_less_exclusions.txt	LTP231	ltpFR	2	2	0	ARTIST	43	n/a	1	1	0.412841796875	0.57763671875	upper	../fonts/amplitud.ttf
264617	WORD	wordpools/wasnorm_wordpool_less_exclusions.txt	LTP231	ltpFR	2	2	1	HERD	705	n/a	0	0	0.5869140625	0.422607421875	lower	../fonts/zerothre.ttf
268694	WORD	wordpools/wasnorm_wordpool_less_exclusions.txt	LTP231	ltpFR	2	2	1	FARMER	553	n/a	1	0	0.5869140625	0.422607421875	lower	../fonts/zerothre.ttf
272555	WORD	wordpools/wasnorm_wordpool_less_exclusions.txt	LTP231	ltpFR	2	2	1	THRONE	1461	n/a	0	0	0.5869140625	0.422607421875	lower	../fonts/zerothre.ttf
276616	WORD	wordpools/wasnorm_wordpool_less_exclusions.txt	LTP231	ltpFR	2	2	1	CARTON	251	n/a	0	0	0.5869140625	0.422607421875	lower	../fonts/zerothre.ttf
280760	WORD	wordpools/wasnorm_wordpool_less_exclusions.txt	LTP231	ltpFR	2	2	1	DOLLAR	482	n/a	0	0	0.5869140625	0.422607421875	lower	../fonts/zerothre.ttf
284837	WORD	wordpools/wasnorm_wordpool_less_exclusions.txt	LTP231	ltpFR	2	2	1	CASTLE	256	n/a	0	0	0.5869140625	0.422607421875	lower	../fonts/zerothre.ttf
290579	REC_START	n/a	LTP231	ltpFR	2	2	n/a	n/a	n/a	n/a	n/a	n/a	n/a	n/a	n/a	n/a
291347	REC_WORD	wordpools/wasnorm_wordpool_less_exclusions.txt	LTP231	ltpFR	2	2	1	CASTLE	256	n/a	0	n/a	n/a	n/a	n/a	n/a
292036	REC_WORD	wordpools/wasnorm_wordpool_less_exclusions.txt	LTP231	ltpFR	2	2	1	THRONE	1461	n/a	0	n/a	n/a	n/a	n/a	n/a
294704	REC_WORD	wordpools/wasnorm_wordpool_less_exclusions.txt	LTP231	ltpFR	2	2	n/a	CART	250	n/a	n/a	n/a	n/a	n/a	n/a	n/a
299648	REC_WORD	wordpools/wasnorm_wordpool_less_exclusions.txt	LTP231	ltpFR	2	2	1	FARMER	553	n/a	1	n/a	n/a	n/a	n/a	n/a
301045	REC_WORD	wordpools/wasnorm_wordpool_less_exclusions.txt	LTP231	ltpFR	2	2	1	HERD	705	n/a	0	n/a	n/a	n/a	n/a	n/a
333551	REC_WORD	wordpools/wasnorm_wordpool_less_exclusions.txt	LTP231	ltpFR	2	2	0	FRUIT	610	n/a	0	n/a	n/a	n/a	n/a	n/a
337722	REC_WORD	wordpools/wasnorm_wordpool_less_exclusions.txt	LTP231	ltpFR	2	2	0	BROCCOLI	176	n/a	0	n/a	n/a	n/a	n/a	n/a
361488	REC_WORD	wordpools/wasnorm_wordpool_less_exclusions.txt	LTP231	ltpFR	2	2	0	TEMPLE	1448	n/a	1	n/a	n/a	n/a	n/a	n/a
382193	WORD	wordpools/wasnorm_wordpool_less_exclusions.txt	LTP231	ltpFR	2	3	1	GRIZZLY	662	n/a	1	0	0.5869140625	0.422607421875	lower	../fonts/zerothre.ttf
386370	WORD	wordpools/wasnorm_wordpool_less_exclusions.txt	LTP231	ltpFR	2	3	1	LINEN	825	n/a	0	0	0.5869140625	0.422607421875	lower	../fonts/zerothre.ttf
390397	WORD	wordpools/wasnorm_wordpool_less_exclusions.txt	LTP231	ltpFR	2	3	1	PRAIRIE	1118	n/a	0	0	0.5869140625	0.422607421875	lower	../fonts/zerothre.ttf
394507	WORD	wordpools/wasnorm_wordpool_less_exclusions.txt	LTP231	ltpFR	2	3	1	CANOE	233	n/a	0	0	0.5869140625	0.422607421875	lower	../fonts/zerothre.ttf
398567	WORD	wordpools/wasnorm_wordpool_less_exclusions.txt	LTP231	ltpFR	2	3	1	SHRIMP	1297	n/a	1	0	0.5869140625	0.422607421875	lower	../fonts/zerothre.ttf
402728	WORD	wordpools/wasnorm_wordpool_less_exclusions.txt	LTP231	ltpFR	2	3	1	BEDROOM	111	n/a	0	0	0.5869140625	0.422607421875	lower	../fonts/zerothre.ttf
406822	WORD	wordpools/wasnorm_wordpool_less_exclusions.txt	LTP231	ltpFR	2	3	1	LUNCH	849	n/a	0	0	0.5869140625	0.422607421875	lower	../fonts/zerothre.ttf
410682	WORD	wordpools/wasnorm_wordpool_less_exclusions.txt	LTP231	ltpFR	2	3	1	MICROWAVE	892	n/a	0	0	0.5869140625	0.422607421875	lower	../fonts/zerothre.ttf
414776	WORD	wordpools/wasnorm_wordpool_less_exclusions.txt	LTP231	ltpFR	2	3	1	HAMMOCK	681	n/a	0	0	0.5869140625	0.422607421875	lower	../fonts/zerothre.ttf
418937	WORD	wordpools/wasnorm_wordpool_less_exclusions.txt	LTP231	ltpFR	2	3	1	QUAIL	1147	n/a	0	0	0.5869140625	0.422607421875	lower	../fonts/zerothre.ttf
423148	WORD	wordpools/wasnorm_wordpool_less_exclusions.txt	LTP231	ltpFR	2	3	1	SEAGULL	1261	n/a	1	0	0.5869140625	0.422607421875	lower	../fonts/zerothre.ttf
427026	WORD	wordpools/wasnorm_wordpool_less_exclusions.txt	LTP231	ltpFR	2	3	1	BEE	112	n/a	1	0	0.5869140625	0.422607421875	lower	../fonts/zerothre.ttf
431020	WORD	wordpools/wasnorm_wordpool_less_exclusions.txt	LTP231	ltpFR	2	3	1	DRESS	495	n/a	0	0	0.5869140625	0.422607421875	lower	../fonts/zerothre.ttf
435047	WORD	wordpools/wasnorm_wordpool_less_exclusions.txt	LTP231	ltpFR	2	3	1	COYOTE	396	n/a	1	0	0.5869140625	0.422607421875	lower	../fonts/zerothre.ttf
439041	WORD	wordpools/wasnorm_wordpool_less_exclusions.txt	LTP231	ltpFR	2	3	1	NICKEL	950	n/a	0	0	0.5869140625	0.422607421875	lower	../fonts/zerothre.ttf
443118	WORD	wordpools/wasnorm_wordpool_less_exclusions.txt	LTP231	ltpFR	2	3	1	BOUILLON	154	n/a	0	0	0.5869140625	0.422607421875	lower	../fonts/zerothre.ttf
448994	REC_START	n/a	LTP231	ltpFR	2	3	n/a	n/a	n/a	n/a	n/a	n/a	n/a	n/a	n/a	n/a
460487	REC_WORD_VV	wordpools/wasnorm_wordpool_less_exclusions.txt	LTP231	ltpFR	2	3	n/a	<>	-1	n/a	n/a	n/a	n/a	n/a	n/a	n/a
473194	REC_WORD	wordpools/wasnorm_wordpool_less_exclusions.txt	LTP231	ltpFR	2	3	1	DRESS	495	n/a	0	n/a	n/a	n/a	n/a	n/a
474990	REC_WORD	wordpools/wasnorm_wordpool_less_exclusions.txt	LTP231	ltpFR	2	3	1	COYOTE	396	n/a	1	n/a	n/a	n/a	n/a	n/a
479150	REC_WORD	wordpools/wasnorm_wordpool_less_exclusions.txt	LTP231	ltpFR	2	3	1	GRIZZLY	662	n/a	1	n/a	n/a	n/a	n/a	n/a
484084	REC_WORD	wordpools/wasnorm_wordpool_less_exclusions.txt	LTP231	ltpFR	2	3	1	THIMBLE	1458	n/a	0	n/a	n/a	n/a	n/a	n/a
490220	REC_WORD	wordpools/wasnorm_wordpool_less_exclusions.txt	LTP231	ltpFR	2	3	1	QUAIL	1147	n/a	0	n/a	n/a	n/a	n/a	n/a
497474	REC_WORD	wordpools/wasnorm_wordpool_less_exclusions.txt	LTP231	ltpFR	2	3	1	SHRIMP	1297	n/a	1	n/a	n/a	n/a	n/a	n/a
533466	WORD	wordpools/wasnorm_wordpool_less_exclusions.txt	LTP231	ltpFR	2	4	0	SCALLOP	1242	n/a	0	1	0.412841796875	0.57763671875	upper	../fonts/amplitud.ttf
537626	WORD	wordpools/wasnorm_wordpool_less_exclusions.txt	LTP231	ltpFR	2	4	0	MARKER	870	n/a	0	1	0.412841796875	0.57763671875	upper	../fonts/amplitud.ttf
541654	WORD	wordpools/wasnorm_wordpool_less_exclusions.txt	LTP231	ltpFR	2	4	0	ALLIGATOR	16	n/a	1	1	0.412841796875	0.57763671875	upper	../fonts/amplitud.ttf
545847	WORD	wordpools/wasnorm_wordpool_less_exclusions.txt	LTP231	ltpFR	2	4	0	WORKER	1621	n/a	1	1	0.412841796875	0.57763671875	upper	../fonts/amplitud.ttf
549891	WORD	wordpools/wasnorm_wordpool_less_exclusions.txt	LTP231	ltpFR	2	4	0	PENCIL	1042	n/a	0	1	0.412841796875	0.57763671875	upper	../fonts/amplitud.ttf
553719	WORD	wordpools/wasnorm_wordpool_less_exclusions.txt	LTP231	ltpFR	2	4	0	MASK	876	n/a	0	1	0.412841796875	0.57763671875	upper	../fonts/amplitud.ttf
557546	WORD	wordpools/wasnorm_wordpool_less_exclusions.txt	LTP231	ltpFR	2	4	0	WAREHOUSE	1588	n/a	1	1	0.412841796875	0.57763671875	upper	../fonts/amplitud.ttf
561442	WORD	wordpools/wasnorm_wordpool_less_exclusions.txt	LTP231	ltpFR	2	4	0	SHORTS	1293	n/a	0	1	0.412841796875	0.57763671875	upper	../fonts/amplitud.ttf
565535	WORD	wordpools/wasnorm_wordpool_less_exclusions.txt	LTP231	ltpFR	2	4	0	LAPEL	800	n/a	0	1	0.412841796875	0.57763671875	upper	../fonts/amplitud.ttf
569445	WORD	wordpools/wasnorm_wordpool_less_exclusions.txt	LTP231	ltpFR	2	4	0	HUMAN	726	n/a	1	1	0.412841796875	0.57763671875	upper	../fonts/amplitud.ttf
573291	WORD	wordpools/wasnorm_wordpool_less_exclusions.txt	LTP231	ltpFR	2	4	0	NAPKIN	937	n/a	0	1	0.412841796875	0.57763671875	upper	../fonts/amplitud.ttf
577351	WORD	wordpools/wasnorm_wordpool_less_exclusions.txt	LTP231	ltpFR	2	4	0	SEAL	1262	n/a	1	1	0.412841796875	0.57763671875	upper	../fonts/amplitud.ttf
581395	WORD	wordpools/wasnorm_wordpool_less_exclusions.txt	LTP231	ltpFR	2	4	0	GOAT	644	n/a	1	1	0.412841796875	0.57763671875	upper	../fonts/amplitud.ttf
585521	WORD	wordpools/wasnorm_wordpool_less_exclusions.txt	LTP231	ltpFR	2	4	0	HERB	704	n/a	0	1	0.412841796875	0.57763671875	upper	../fonts/amplitud.ttf
589549	WORD	wordpools/wasnorm_wordpool_less_exclusions.txt	LTP231	ltpFR	2	4	0	SPICE	1350	n/a	0	1	0.412841796875	0.57763671875	upper	../fonts/amplitud.ttf
593377	WORD	wordpools/wasnorm_wordpool_less_exclusions.txt	LTP231	ltpFR	2	4	0	BARRACUDA	90	n/a	0	1	0.412841796875	0.57763671875	upper	../fonts/amplitud.ttf
599186	REC_START	n/a	LTP231	ltpFR	2	4	n/a	n/a	n/a	n/a	n/a	n/a	n/a	n/a	n/a	n/a
599964	REC_WORD	wordpools/wasnorm_wordpool_less_exclusions.txt	LTP231	ltpFR	2	4	0	BARRACUDA	90	n/a	0	n/a	n/a	n/a	n/a	n/a
601011	REC_WORD	wordpools/wasnorm_wordpool_less_exclusions.txt	LTP231	ltpFR	2	4	0	SPICE	1350	n/a	0	n/a	n/a	n/a	n/a	n/a
602164	REC_WORD	wordpools/wasnorm_wordpool_less_exclusions.txt	LTP231	ltpFR	2	4	0	HERB	704	n/a	0	n/a	n/a	n/a	n/a	n/a
625935	REC_WORD	wordpools/wasnorm_wordpool_less_exclusions.txt	LTP231	ltpFR	2	4	0	ALLIGATOR	16	n/a	1	n/a	n/a	n/a	n/a	n/a
630794	REC_WORD	wordpools/wasnorm_wordpool_less_exclusions.txt	LTP231	ltpFR	2	4	0	HUMAN	726	n/a	1	n/a	n/a	n/a	n/a	n/a
631794	REC_WORD_VV	wordpools/wasnorm_wordpool_less_exclusions.txt	LTP231	ltpFR	2	4	n/a	<>	-1	n/a	n/a	n/a	n/a	n/a	n/a	n/a
652515	REC_WORD	wordpools/wasnorm_wordpool_less_exclusions.txt	LTP231	ltpFR	2	4	0	WAREHOUSE	1588	n/a	1	n/a	n/a	n/a	n/a	n/a
692097	WORD	wordpools/wasnorm_wordpool_less_exclusions.txt	LTP231	ltpFR	2	5	1	TEACHER	1440	n/a	1	0	0.5869140625	0.422607421875	lower	../fonts/zerothre.ttf
695923	WORD	wordpools/wasnorm_wordpool_less_exclusions.txt	LTP231	ltpFR	2	5	1	ERASER	538	n/a	0	0	0.5869140625	0.422607421875	lower	../fonts/zerothre.ttf
700051	WORD	wordpools/wasnorm_wordpool_less_exclusions.txt	LTP231	ltpFR	2	5	1	ROBE	1198	n/a	0	0	0.5869140625	0.422607421875	lower	../fonts/zerothre.ttf
704178	WORD	wordpools/wasnorm_wordpool_less_exclusions.txt	LTP231	ltpFR	2	5	1	LAUNDRY	803	n/a	0	0	0.5869140625	0.422607421875	lower	../fonts/zerothre.ttf
708139	WORD	wordpools/wasnorm_wordpool_less_exclusions.txt	LTP231	ltpFR	2	5	1	PAD	998	n/a	0	0	0.5869140625	0.422607421875	lower	../fonts/zerothre.ttf
712350	WORD	wordpools/wasnorm_wordpool_less_exclusions.txt	LTP231	ltpFR	2	5	1	PAPER	1011	n/a	0	0	0.5869140625	0.422607421875	lower	../fonts/zerothre.ttf
716542	WORD	wordpools/wasnorm_wordpool_less_exclusions.txt	LTP231	ltpFR	2	5	1	SUPPER	1411	n/a	0	0	0.5869140625	0.422607421875	lower	../fonts/zerothre.ttf
720670	WORD	wordpools/wasnorm_wordpool_less_exclusions.txt	LTP231	ltpFR	2	5	1	SHINGLE	1285	n/a	0	0	0.5869140625	0.422607421875	lower	../fonts/zerothre.ttf
724780	WORD	wordpools/wasnorm_wordpool_less_exclusions.txt	LTP231	ltpFR	2	5	1	REEF	1177	n/a	1	0	0.5869140625	0.422607421875	lower	../fonts/zerothre.ttf
728691	WORD	wordpools/wasnorm_wordpool_less_exclusions.txt	LTP231	ltpFR	2	5	1	CHEF	290	n/a	1	0	0.5869140625	0.422607421875	lower	../fonts/zerothre.ttf
732535	WORD	wordpools/wasnorm_wordpool_less_exclusions.txt	LTP231	ltpFR	2	5	1	BANJO	82	n/a	0	0	0.5869140625	0.422607421875	lower	../fonts/zerothre.ttf
736512	WORD	wordpools/wasnorm_wordpool_less_exclusions.txt	LTP231	ltpFR	2	5	1	SAP	1233	n/a	0	0	0.5869140625	0.422607421875	lower	../fonts/zerothre.ttf
740640	WORD	wordpools/wasnorm_wordpool_less_exclusions.txt	LTP231	ltpFR	2	5	1	ACTRESS	6	n/a	1	0	0.5869140625	0.422607421875	lower	../fonts/zerothre.ttf
744850	WORD	wordpools/wasnorm_wordpool_less_exclusions.txt	LTP231	ltpFR	2	5	1	DORM	488	n/a	0	0	0.5869140625	0.422607421875	lower	../fonts/zerothre.ttf
749011	WORD	wordpools/wasnorm_wordpool_less_exclusions.txt	LTP231	ltpFR	2	5	1	CORAL	378	n/a	1	0	0.5869140625	0.422607421875	lower	../fonts/zerothre.ttf
753139	WORD	wordpools/wasnorm_wordpool_less_exclusions.txt	LTP231	ltpFR	2	5	1	CAT	257	n/a	0	0	0.5869140625	0.422607421875	lower	../fonts/zerothre.ttf
759080	REC_START	n/a	LTP231	ltpFR	2	5	n/a	n/a	n/a	n/a	n/a	n/a	n/a	n/a	n/a	n/a
760202	REC_WORD	wordpools/wasnorm_wordpool_less_exclusions.txt	LTP231	ltpFR	2	5	1	CAT	257	n/a	0	n/a	n/a	n/a	n/a	n/a
761055	REC_WORD	wordpools/wasnorm_wordpool_less_exclusions.txt	LTP231	ltpFR	2	5	1	CORAL	378	n/a	1	n/a	n/a	n/a	n/a	n/a
761687	REC_WORD	wordpools/wasnorm_wordpool_less_exclusions.txt	LTP231	ltpFR	2	5	1	REEF	1177	n/a	1	n/a	n/a	n/a	n/a	n/a
764428	REC_WORD	wordpools/wasnorm_wordpool_less_exclusions.txt	LTP231	ltpFR	2	5	1	TEACHER	1440	n/a	1	n/a	n/a	n/a	n/a	n/a
766692	REC_WORD	wordpools/wasnorm_wordpool_less_exclusions.txt	LTP231	ltpFR	2	5	1	PAPER	1011	n/a	0	n/a	n/a	n/a	n/a	n/a
767131	REC_WORD	wordpools/wasnorm_wordpool_less_exclusions.txt	LTP231	ltpFR	2	5	1	PAD	998	n/a	0	n/a	n/a	n/a	n/a	n/a
771401	REC_WORD	wordpools/wasnorm_wordpool_less_exclusions.txt	LTP231	ltpFR	2	5	1	SUPPER	1411	n/a	0	n/a	n/a	n/a	n/a	n/a
840325	WORD	wordpools/wasnorm_wordpool_less_exclusions.txt	LTP231	ltpFR	2	6	0	AIRPLANE	12	n/a	1	1	0.412841796875	0.57763671875	upper	../fonts/amplitud.ttf
844269	WORD	wordpools/wasnorm_wordpool_less_exclusions.txt	LTP231	ltpFR	2	6	0	PRINTER	1126	n/a	0	1	0.412841796875	0.57763671875	upper	../fonts/amplitud.ttf
848413	WORD	wordpools/wasnorm_wordpool_less_exclusions.txt	LTP231	ltpFR	2	6	0	RICE	1190	n/a	0	1	0.412841796875	0.57763671875	upper	../fonts/amplitud.ttf
852556	WORD	wordpools/wasnorm_wordpool_less_exclusions.txt	LTP231	ltpFR	2	6	0	RELISH	1183	n/a	0	1	0.412841796875	0.57763671875	upper	../fonts/amplitud.ttf
856766	WORD	wordpools/wasnorm_wordpool_less_exclusions.txt	LTP231	ltpFR	2	6	0	BUNNY	198	n/a	0	1	0.412841796875	0.57763671875	upper	../fonts/amplitud.ttf
860677	WORD	wordpools/wasnorm_wordpool_less_exclusions.txt	LTP231	ltpFR	2	6	0	PASSAGE	1019	n/a	0	1	0.412841796875	0.57763671875	upper	../fonts/amplitud.ttf
864638	WORD	wordpools/wasnorm_wordpool_less_exclusions.txt	LTP231	ltpFR	2	6	0	CARAVAN	242	n/a	1	1	0.412841796875	0.57763671875	upper	../fonts/amplitud.ttf
868532	WORD	wordpools/wasnorm_wordpool_less_exclusions.txt	LTP231	ltpFR	2	6	0	TRUCK	1512	n/a	1	1	0.412841796875	0.57763671875	upper	../fonts/amplitud.ttf
872361	WORD	wordpools/wasnorm_wordpool_less_exclusions.txt	LTP231	ltpFR	2	6	0	COMPUTER	359	n/a	1	1	0.412841796875	0.57763671875	upper	../fonts/amplitud.ttf
876405	WORD	wordpools/wasnorm_wordpool_less_exclusions.txt	LTP231	ltpFR	2	6	0	DANDRUFF	439	n/a	0	1	0.412841796875	0.57763671875	upper	../fonts/amplitud.ttf
880349	WORD	wordpools/wasnorm_wordpool_less_exclusions.txt	LTP231	ltpFR	2	6	0	CHEST	295	n/a	0	1	0.412841796875	0.57763671875	upper	../fonts/amplitud.ttf
884293	WORD	wordpools/wasnorm_wordpool_less_exclusions.txt	LTP231	ltpFR	2	6	0	CUPBOARD	425	n/a	1	1	0.412841796875	0.57763671875	upper	../fonts/amplitud.ttf
888469	WORD	wordpools/wasnorm_wordpool_less_exclusions.txt	LTP231	ltpFR	2	6	0	APARTMENT	30	n/a	1	1	0.412841796875	0.57763671875	upper	../fonts/amplitud.ttf
892579	WORD	wordpools/wasnorm_wordpool_less_exclusions.txt	LTP231	ltpFR	2	6	0	SPHINX	1349	n/a	0	1	0.412841796875	0.57763671875	upper	../fonts/amplitud.ttf
896707	WORD	wordpools/wasnorm_wordpool_less_exclusions.txt	LTP231	ltpFR	2	6	0	VET	1560	n/a	1	1	0.412841796875	0.57763671875	upper	../fonts/amplitud.ttf
900767	WORD	wordpools/wasnorm_wordpool_less_exclusions.txt	LTP231	ltpFR	2	6	0	BONE	148	n/a	0	1	0.412841796875	0.57763671875	upper	../fonts/amplitud.ttf
906676	REC_START	n/a	LTP231	ltpFR	2	6	n/a	n/a	n/a	n/a	n/a	n/a	n/a	n/a	n/a	n/a
907654	REC_WORD	wordpools/wasnorm_wordpool_less_exclusions.txt	LTP231	ltpFR	2	6	0	BONE	148	n/a	0	n/a	n/a	n/a	n/a	n/a
908322	REC_WORD	wordpools/wasnorm_wordpool_less_exclusions.txt	LTP231	ltpFR	2	6	0	APARTMENT	30	n/a	1	n/a	n/a	n/a	n/a	n/a
909425	REC_WORD	wordpools/wasnorm_wordpool_less_exclusions.txt	LTP231	ltpFR	2	6	0	CUPBOARD	425	n/a	1	n/a	n/a	n/a	n/a	n/a
912438	REC_WORD	wordpools/wasnorm_wordpool_less_exclusions.txt	LTP231	ltpFR	2	6	0	AIRPLANE	12	n/a	1	n/a	n/a	n/a	n/a	n/a
913435	REC_WORD	wordpools/wasnorm_wordpool_less_exclusions.txt	LTP231	ltpFR	2	6	0	CHEST	295	n/a	0	n/a	n/a	n/a	n/a	n/a
914503	REC_WORD	wordpools/wasnorm_wordpool_less_exclusions.txt	LTP231	ltpFR	2	6	0	DANDRUFF	439	n/a	0	n/a	n/a	n/a	n/a	n/a
952870	REC_WORD	wordpools/wasnorm_wordpool_less_exclusions.txt	LTP231	ltpFR	2	6	0	TRUCK	1512	n/a	1	n/a	n/a	n/a	n/a	n/a
954622	REC_WORD	wordpools/wasnorm_wordpool_less_exclusions.txt	LTP231	ltpFR	2	6	0	PASSAGE	1019	n/a	0	n/a	n/a	n/a	n/a	n/a
956532	REC_WORD	wordpools/wasnorm_wordpool_less_exclusions.txt	LTP231	ltpFR	2	6	0	CARAVAN	242	n/a	1	n/a	n/a	n/a	n/a	n/a
960624	REC_WORD	wordpools/wasnorm_wordpool_less_exclusions.txt	LTP231	ltpFR	2	6	0	SPHINX	1349	n/a	0	n/a	n/a	n/a	n/a	n/a
969160	REC_WORD_VV	wordpools/wasnorm_wordpool_less_exclusions.txt	LTP231	ltpFR	2	6	n/a	<>	-1	n/a	n/a	n/a	n/a	n/a	n/a	n/a
970160	REC_WORD_VV	wordpools/wasnorm_wordpool_less_exclusions.txt	LTP231	ltpFR	2	6	n/a	<>	-1	n/a	n/a	n/a	n/a	n/a	n/a	n/a
998854	WORD	wordpools/wasnorm_wordpool_less_exclusions.txt	LTP231	ltpFR	2	7	1	FINGER	567	n/a	0	0	0.5869140625	0.422607421875	lower	../fonts/zerothre.ttf
1002965	WORD	wordpools/wasnorm_wordpool_less_exclusions.txt	LTP231	ltpFR	2	7	1	COUNTRY	388	n/a	0	0	0.5869140625	0.422607421875	lower	../fonts/zerothre.ttf
1006842	WORD	wordpools/wasnorm_wordpool_less_exclusions.txt	LTP231	ltpFR	2	7	1	BAND	78	n/a	0	0	0.5869140625	0.422607421875	lower	../fonts/zerothre.ttf
1010853	WORD	wordpools/wasnorm_wordpool_less_exclusions.txt	LTP231	ltpFR	2	7	0	PIANO	1057	n/a	0	1	0.412841796875	0.57763671875	upper	../fonts/amplitud.ttf
1014747	WORD	wordpools/wasnorm_wordpool_less_exclusions.txt	LTP231	ltpFR	2	7	0	SNORKEL	1336	n/a	0	1	0.412841796875	0.57763671875	upper	../fonts/amplitud.ttf
1018691	WORD	wordpools/wasnorm_wordpool_less_exclusions.txt	LTP231	ltpFR	2	7	0	TUBE	1516	n/a	0	1	0.412841796875	0.57763671875	upper	../fonts/amplitud.ttf
1022585	WORD	wordpools/wasnorm_wordpool_less_exclusions.txt	LTP231	ltpFR	2	7	0	CLERK	321	n/a	1	1	0.412841796875	0.57763671875	upper	../fonts/amplitud.ttf
1026596	WORD	wordpools/wasnorm_wordpool_less_exclusions.txt	LTP231	ltpFR	2	7	0	SLIDE	1326	n/a	1	1	0.412841796875	0.57763671875	upper	../fonts/amplitud.ttf
1030441	WORD	wordpools/wasnorm_wordpool_less_exclusions.txt	LTP231	ltpFR	2	7	1	SNAKE	1333	n/a	1	0	0.5869140625	0.422607421875	lower	../fonts/zerothre.ttf
1034451	WORD	wordpools/wasnorm_wordpool_less_exclusions.txt	LTP231	ltpFR	2	7	1	FIST	572	n/a	0	0	0.5869140625	0.422607421875	lower	../fonts/zerothre.ttf
1038346	WORD	wordpools/wasnorm_wordpool_less_exclusions.txt	LTP231	ltpFR	2	7	1	STREAM	1392	n/a	0	0	0.5869140625	0.422607421875	lower	../fonts/zerothre.ttf
1042323	WORD	wordpools/wasnorm_wordpool_less_exclusions.txt	LTP231	ltpFR	2	7	1	TIDE	1465	n/a	0	0	0.5869140625	0.422607421875	lower	../fonts/zerothre.ttf
1046417	WORD	wordpools/wasnorm_wordpool_less_exclusions.txt	LTP231	ltpFR	2	7	1	PLASTER	1085	n/a	0	0	0.5869140625	0.422607421875	lower	../fonts/zerothre.ttf
1050460	WORD	wordpools/wasnorm_wordpool_less_exclusions.txt	LTP231	ltpFR	2	7	0	MARINE	869	n/a	1	1	0.412841796875	0.57763671875	upper	../fonts/amplitud.ttf
1054471	WORD	wordpools/wasnorm_wordpool_less_exclusions.txt	LTP231	ltpFR	2	7	0	HANDKERCHIEF	686	n/a	0	1	0.412841796875	0.57763671875	upper	../fonts/amplitud.ttf
1058548	WORD	wordpools/wasnorm_wordpool_less_exclusions.txt	LTP231	ltpFR	2	7	0	PERSONNEL	1053	n/a	1	1	0.412841796875	0.57763671875	upper	../fonts/amplitud.ttf
1064656	REC_START	n/a	LTP231	ltpFR	2	7	n/a	n/a	n/a	n/a	n/a	n/a	n/a	n/a	n/a	n/a
1066512	REC_WORD	wordpools/wasnorm_wordpool_less_exclusions.txt	LTP231	ltpFR	2	7	0	PERSONNEL	1053	n/a	1	n/a	n/a	n/a	n/a	n/a
1067262	REC_WORD	wordpools/wasnorm_wordpool_less_exclusions.txt	LTP231	ltpFR	2	7	0	HANDKERCHIEF	686	n/a	0	n/a	n/a	n/a	n/a	n/a
1074060	REC_WORD	wordpools/wasnorm_wordpool_less_exclusions.txt	LTP231	ltpFR	2	7	1	FINGER	567	n/a	0	n/a	n/a	n/a	n/a	n/a
1078399	REC_WORD	wordpools/wasnorm_wordpool_less_exclusions.txt	LTP231	ltpFR	2	7	0	TUBE	1516	n/a	0	n/a	n/a	n/a	n/a	n/a
1155321	WORD	wordpools/wasnorm_wordpool_less_exclusions.txt	LTP231	ltpFR	2	8	0	OPERA	978	n/a	1	1	0.412841796875	0.57763671875	upper	../fonts/amplitud.ttf
1159299	WORD	wordpools/wasnorm_wordpool_less_exclusions.txt	LTP231	ltpFR	2	8	0	FOOTBALL	591	n/a	1	1	0.412841796875	0.57763671875	upper	../fonts/amplitud.ttf
1163143	WORD	wordpools/wasnorm_wordpool_less_exclusions.txt	LTP231	ltpFR	2	8	0	STRANGER	1389	n/a	1	1	0.412841796875	0.57763671875	upper	../fonts/amplitud.ttf
1167104	WORD	wordpools/wasnorm_wordpool_less_exclusions.txt	LTP231	ltpFR	2	8	0	PHOTO	1055	n/a	0	1	0.412841796875	0.57763671875	upper	../fonts/amplitud.ttf
1171314	WORD	wordpools/wasnorm_wordpool_less_exclusions.txt	LTP231	ltpFR	2	8	0	BASKET	95	n/a	1	1	0.412841796875	0.57763671875	upper	../fonts/amplitud.ttf
1175375	WORD	wordpools/wasnorm_wordpool_less_exclusions.txt	LTP231	ltpFR	2	8	0	SOFA	1342	n/a	1	1	0.412841796875	0.57763671875	upper	../fonts/amplitud.ttf
1179402	WORD	wordpools/wasnorm_wordpool_less_exclusions.txt	LTP231	ltpFR	2	8	0	MICROPHONE	890	n/a	0	1	0.412841796875	0.57763671875	upper	../fonts/amplitud.ttf
1183611	WORD	wordpools/wasnorm_wordpool_less_exclusions.txt	LTP231	ltpFR	2	8	0	LILY	821	n/a	0	1	0.412841796875	0.57763671875	upper	../fonts/amplitud.ttf
1187456	WORD	wordpools/wasnorm_wordpool_less_exclusions.txt	LTP231	ltpFR	2	8	0	ORCHID	982	n/a	0	1	0.412841796875	0.57763671875	upper	../fonts/amplitud.ttf
1191318	WORD	wordpools/wasnorm_wordpool_less_exclusions.txt	LTP231	ltpFR	2	8	0	RACCOON	1153	n/a	0	1	0.412841796875	0.57763671875	upper	../fonts/amplitud.ttf
1195312	WORD	wordpools/wasnorm_wordpool_less_exclusions.txt	LTP231	ltpFR	2	8	0	APE	31	n/a	1	1	0.412841796875	0.57763671875	upper	../fonts/amplitud.ttf
1199339	WORD	wordpools/wasnorm_wordpool_less_exclusions.txt	LTP231	ltpFR	2	8	0	ATHLETE	52	n/a	1	1	0.412841796875	0.57763671875	upper	../fonts/amplitud.ttf
1203233	WORD	wordpools/wasnorm_wordpool_less_exclusions.txt	LTP231	ltpFR	2	8	0	DART	440	n/a	0	1	0.412841796875	0.57763671875	upper	../fonts/amplitud.ttf
1207277	WORD	wordpools/wasnorm_wordpool_less_exclusions.txt	LTP231	ltpFR	2	8	0	VIDEO	1564	n/a	0	1	0.412841796875	0.57763671875	upper	../fonts/amplitud.ttf
1211486	WORD	wordpools/wasnorm_wordpool_less_exclusions.txt	LTP231	ltpFR	2	8	0	VOLLEYBALL	1576	n/a	0	1	0.412841796875	0.57763671875	upper	../fonts/amplitud.ttf
1215547	WORD	wordpools/wasnorm_wordpool_less_exclusions.txt	LTP231	ltpFR	2	8	0	LODGE	839	n/a	1	1	0.412841796875	0.57763671875	upper	../fonts/amplitud.ttf
1221240	REC_START	n/a	LTP231	ltpFR	2	8	n/a	n/a	n/a	n/a	n/a	n/a	n/a	n/a	n/a	n/a
1221714	REC_WORD	wordpools/wasnorm_wordpool_less_exclusions.txt	LTP231	ltpFR	2	8	0	LODGE	839	n/a	1	n/a	n/a	n/a	n/a	n/a
1222466	REC_WORD	wordpools/wasnorm_wordpool_less_exclusions.txt	LTP231	ltpFR	2	8	0	VOLLEYBALL	1576	n/a	0	n/a	n/a	n/a	n/a	n/a
1223299	REC_WORD	wordpools/wasnorm_wordpool_less_exclusions.txt	LTP231	ltpFR	2	8	0	FOOTBALL	591	n/a	1	n/a	n/a	n/a	n/a	n/a
1224299	REC_WORD_VV	wordpools/wasnorm_wordpool_less_exclusions.txt	LTP231	ltpFR	2	8	n/a	<>	-1	n/a	n/a	n/a	n/a	n/a	n/a	n/a
1234310	REC_WORD	wordpools/wasnorm_wordpool_less_exclusions.txt	LTP231	ltpFR	2	8	0	DART	440	n/a	0	n/a	n/a	n/a	n/a	n/a
1238878	REC_WORD	wordpools/wasnorm_wordpool_less_exclusions.txt	LTP231	ltpFR	2	8	0	RACCOON	1153	n/a	0	n/a	n/a	n/a	n/a	n/a
1243065	REC_WORD	wordpools/wasnorm_wordpool_less_exclusions.txt	LTP231	ltpFR	2	8	0	LILY	821	n/a	0	n/a	n/a	n/a	n/a	n/a
1243515	REC_WORD	wordpools/wasnorm_wordpool_less_exclusions.txt	LTP231	ltpFR	2	8	0	ORCHID	982	n/a	0	n/a	n/a	n/a	n/a	n/a
1301420	WORD	wordpools/wasnorm_wordpool_less_exclusions.txt	LTP231	ltpFR	2	9	1	CREEK	404	n/a	0	0	0.5869140625	0.422607421875	lower	../fonts/zerothre.ttf
1305414	WORD	wordpools/wasnorm_wordpool_less_exclusions.txt	LTP231	ltpFR	2	9	1	FORT	595	n/a	0	0	0.5869140625	0.422607421875	lower	../fonts/zerothre.ttf
1309358	WORD	wordpools/wasnorm_wordpool_less_exclusions.txt	LTP231	ltpFR	2	9	1	TANK	1432	n/a	0	0	0.5869140625	0.422607421875	lower	../fonts/zerothre.ttf
1313252	WORD	wordpools/wasnorm_wordpool_less_exclusions.txt	LTP231	ltpFR	2	9	0	CRYSTAL	418	n/a	1	1	0.412841796875	0.57763671875	upper	../fonts/amplitud.ttf
1317080	WORD	wordpools/wasnorm_wordpool_less_exclusions.txt	LTP231	ltpFR	2	9	0	MARBLE	867	n/a	0	1	0.412841796875	0.57763671875	upper	../fonts/amplitud.ttf
1321257	WORD	wordpools/wasnorm_wordpool_less_exclusions.txt	LTP231	ltpFR	2	9	0	FAUCET	555	n/a	0	1	0.412841796875	0.57763671875	upper	../fonts/amplitud.ttf
1325334	WORD	wordpools/wasnorm_wordpool_less_exclusions.txt	LTP231	ltpFR	2	9	0	PORPOISE	1109	n/a	1	1	0.412841796875	0.57763671875	upper	../fonts/amplitud.ttf
1329262	WORD	wordpools/wasnorm_wordpool_less_exclusions.txt	LTP231	ltpFR	2	9	0	FISH	571	n/a	0	1	0.412841796875	0.57763671875	upper	../fonts/amplitud.ttf
1333122	WORD	wordpools/wasnorm_wordpool_less_exclusions.txt	LTP231	ltpFR	2	9	0	POET	1095	n/a	1	1	0.412841796875	0.57763671875	upper	../fonts/amplitud.ttf
1336966	WORD	wordpools/wasnorm_wordpool_less_exclusions.txt	LTP231	ltpFR	2	9	1	POSSUM	1112	n/a	1	0	0.5869140625	0.422607421875	lower	../fonts/zerothre.ttf
1341011	WORD	wordpools/wasnorm_wordpool_less_exclusions.txt	LTP231	ltpFR	2	9	1	DILL	465	n/a	0	0	0.5869140625	0.422607421875	lower	../fonts/zerothre.ttf
1345088	WORD	wordpools/wasnorm_wordpool_less_exclusions.txt	LTP231	ltpFR	2	9	0	TURNIP	1521	n/a	0	1	0.412841796875	0.57763671875	upper	../fonts/amplitud.ttf
1348965	WORD	wordpools/wasnorm_wordpool_less_exclusions.txt	LTP231	ltpFR	2	9	0	COOKBOOK	373	n/a	0	1	0.412841796875	0.57763671875	upper	../fonts/amplitud.ttf
1353159	WORD	wordpools/wasnorm_wordpool_less_exclusions.txt	LTP231	ltpFR	2	9	1	RESTAURANT	1187	n/a	0	0	0.5869140625	0.422607421875	lower	../fonts/zerothre.ttf
1357053	WORD	wordpools/wasnorm_wordpool_less_exclusions.txt	LTP231	ltpFR	2	9	1	ALBUM	14	n/a	0	0	0.5869140625	0.422607421875	lower	../fonts/zerothre.ttf
1361231	WORD	wordpools/wasnorm_wordpool_less_exclusions.txt	LTP231	ltpFR	2	9	1	GENERAL	630	n/a	1	0	0.5869140625	0.422607421875	lower	../fonts/zerothre.ttf
1367089	REC_START	n/a	LTP231	ltpFR	2	9	n/a	n/a	n/a	n/a	n/a	n/a	n/a	n/a	n/a	n/a
1368446	REC_WORD	wordpools/wasnorm_wordpool_less_exclusions.txt	LTP231	ltpFR	2	9	1	GENERAL	630	n/a	1	n/a	n/a	n/a	n/a	n/a
1370361	REC_WORD	wordpools/wasnorm_wordpool_less_exclusions.txt	LTP231	ltpFR	2	9	1	TANK	1432	n/a	0	n/a	n/a	n/a	n/a	n/a
1376592	REC_WORD	wordpools/wasnorm_wordpool_less_exclusions.txt	LTP231	ltpFR	2	9	0	COOKBOOK	373	n/a	0	n/a	n/a	n/a	n/a	n/a
1389059	REC_WORD_VV	wordpools/wasnorm_wordpool_less_exclusions.txt	LTP231	ltpFR	2	9	n/a	<>	-1	n/a	n/a	n/a	n/a	n/a	n/a	n/a
1390059	REC_WORD_VV	wordpools/wasnorm_wordpool_less_exclusions.txt	LTP231	ltpFR	2	9	n/a	<>	-1	n/a	n/a	n/a	n/a	n/a	n/a	n/a
1446785	WORD	wordpools/wasnorm_wordpool_less_exclusions.txt	LTP231	ltpFR	2	10	-1	CHIPMUNK	304	n/a	-1	1	1.0	1.0	upper	../fonts/Verdana.ttf
1450663	WORD	wordpools/wasnorm_wordpool_less_exclusions.txt	LTP231	ltpFR	2	10	-1	WILDERNESS	1610	n/a	-1	1	1.0	1.0	upper	../fonts/Verdana.ttf
1454757	WORD	wordpools/wasnorm_wordpool_less_exclusions.txt	LTP231	ltpFR	2	10	-1	BEAD	103	n/a	-1	1	1.0	1.0	upper	../fonts/Verdana.ttf
1458884	WORD	wordpools/wasnorm_wordpool_less_exclusions.txt	LTP231	ltpFR	2	10	-1	SEAT	1264	n/a	-1	1	1.0	1.0	upper	../fonts/Verdana.ttf
1462761	WORD	wordpools/wasnorm_wordpool_less_exclusions.txt	LTP231	ltpFR	2	10	-1	TRAIN	1494	n/a	-1	1	1.0	1.0	upper	../fonts/Verdana.ttf
1466589	WORD	wordpools/wasnorm_wordpool_less_exclusions.txt	LTP231	ltpFR	2	10	-1	CABOOSE	214	n/a	-1	1	1.0	1.0	upper	../fonts/Verdana.ttf
1470533	WORD	wordpools/wasnorm_wordpool_less_exclusions.txt	LTP231	ltpFR	2	10	-1	SHORE	1291	n/a	-1	1	1.0	1.0	upper	../fonts/Verdana.ttf
1474527	WORD	wordpools/wasnorm_wordpool_less_exclusions.txt	LTP231	ltpFR	2	10	-1	FACTORY	548	n/a	-1	1	1.0	1.0	upper	../fonts/Verdana.ttf
1478439	WORD	wordpools/wasnorm_wordpool_less_exclusions.txt	LTP231	ltpFR	2	10	-1	JEWEL	757	n/a	-1	1	1.0	1.0	upper	../fonts/Verdana.ttf
1482615	WORD	wordpools/wasnorm_wordpool_less_exclusions.txt	LTP231	ltpFR	2	10	-1	CEREAL	272	n/a	-1	1	1.0	1.0	upper	../fonts/Verdana.ttf
1486725	WORD	wordpools/wasnorm_wordpool_less_exclusions.txt	LTP231	ltpFR	2	10	-1	CELLAR	267	n/a	-1	1	1.0	1.0	upper	../fonts/Verdana.ttf
1490686	WORD	wordpools/wasnorm_wordpool_less_exclusions.txt	LTP231	ltpFR	2	10	-1	KEY	773	n/a	-1	1	1.0	1.0	upper	../fonts/Verdana.ttf
1494630	WORD	wordpools/wasnorm_wordpool_less_exclusions.txt	LTP231	ltpFR	2	10	-1	DUNE	506	n/a	-1	1	1.0	1.0	upper	../fonts/Verdana.ttf
1498774	WORD	wordpools/wasnorm_wordpool_less_exclusions.txt	LTP231	ltpFR	2	10	-1	STATUE	1374	n/a	-1	1	1.0	1.0	upper	../fonts/Verdana.ttf
1502818	WORD	wordpools/wasnorm_wordpool_less_exclusions.txt	LTP231	ltpFR	2	10	-1	COD	340	n/a	-1	1	1.0	1.0	upper	../fonts/Verdana.ttf
1506845	WORD	wordpools/wasnorm_wordpool_less_exclusions.txt	LTP231	ltpFR	2	10	-1	PUB	1135	n/a	-1	1	1.0	1.0	upper	../fonts/Verdana.ttf
1512671	REC_START	n/a	LTP231	ltpFR	2	10	n/a	n/a	n/a	n/a	n/a	n/a	n/a	n/a	n/a	n/a
1513743	REC_WORD	wordpools/wasnorm_wordpool_less_exclusions.txt	LTP231	ltpFR	2	10	-1	PUB	1135	n/a	-1	n/a	n/a	n/a	n/a	n/a
1514447	REC_WORD	wordpools/wasnorm_wordpool_less_exclusions.txt	LTP231	ltpFR	2	10	-1	COD	340	n/a	-1	n/a	n/a	n/a	n/a	n/a
1514930	REC_WORD	wordpools/wasnorm_wordpool_less_exclusions.txt	LTP231	ltpFR	2	10	-1	STATUE	1374	n/a	-1	n/a	n/a	n/a	n/a	n/a
1516008	REC_WORD	wordpools/wasnorm_wordpool_less_exclusions.txt	LTP231	ltpFR	2	10	-1	KEY	773	n/a	-1	n/a	n/a	n/a	n/a	n/a
1516931	REC_WORD	wordpools/wasnorm_wordpool_less_exclusions.txt	LTP231	ltpFR	2	10	-1	CELLAR	267	n/a	-1	n/a	n/a	n/a	n/a	n/a
1517714	REC_WORD	wordpools/wasnorm_wordpool_less_exclusions.txt	LTP231	ltpFR	2	10	-1	SHORE	1291	n/a	-1	n/a	n/a	n/a	n/a	n/a
1518662	REC_WORD	wordpools/wasnorm_wordpool_less_exclusions.txt	LTP231	ltpFR	2	10	-1	TRAIN	1494	n/a	-1	n/a	n/a	n/a	n/a	n/a
1519999	REC_WORD	wordpools/wasnorm_wordpool_less_exclusions.txt	LTP231	ltpFR	2	10	-1	CABOOSE	214	n/a	-1	n/a	n/a	n/a	n/a	n/a
1520952	REC_WORD	wordpools/wasnorm_wordpool_less_exclusions.txt	LTP231	ltpFR	2	10	-1	CHIPMUNK	304	n/a	-1	n/a	n/a	n/a	n/a	n/a
1522947	REC_WORD	wordpools/wasnorm_wordpool_less_exclusions.txt	LTP231	ltpFR	2	10	-1	BEAD	103	n/a	-1	n/a	n/a	n/a	n/a	n/a
1523781	REC_WORD	wordpools/wasnorm_wordpool_less_exclusions.txt	LTP231	ltpFR	2	10	-1	WILDERNESS	1610	n/a	-1	n/a	n/a	n/a	n/a	n/a
1531753	REC_WORD	wordpools/wasnorm_wordpool_less_exclusions.txt	LTP231	ltpFR	2	10	-1	PUB	1135	n/a	-1	n/a	n/a	n/a	n/a	n/a
1533284	REC_WORD	wordpools/wasnorm_wordpool_less_exclusions.txt	LTP231	ltpFR	2	10	-1	DUNE	506	n/a	-1	n/a	n/a	n/a	n/a	n/a
1552635	REC_WORD	wordpools/wasnorm_wordpool_less_exclusions.txt	LTP231	ltpFR	2	10	n/a	LEAF	808	n/a	n/a	n/a	n/a	n/a	n/a	n/a
1594698	WORD	wordpools/wasnorm_wordpool_less_exclusions.txt	LTP231	ltpFR	2	11	0	BUREAU	199	n/a	1	1	0.412841796875	0.57763671875	upper	../fonts/amplitud.ttf
1598891	WORD	wordpools/wasnorm_wordpool_less_exclusions.txt	LTP231	ltpFR	2	11	0	DRESSER	496	n/a	1	1	0.412841796875	0.57763671875	upper	../fonts/amplitud.ttf
1602786	WORD	wordpools/wasnorm_wordpool_less_exclusions.txt	LTP231	ltpFR	2	11	1	RABBIT	1152	n/a	1	0	0.5869140625	0.422607421875	lower	../fonts/zerothre.ttf
1606946	WORD	wordpools/wasnorm_wordpool_less_exclusions.txt	LTP231	ltpFR	2	11	1	COW	393	n/a	1	0	0.5869140625	0.422607421875	lower	../fonts/zerothre.ttf
1610774	WORD	wordpools/wasnorm_wordpool_less_exclusions.txt	LTP231	ltpFR	2	11	1	BEEF	113	n/a	0	0	0.5869140625	0.422607421875	lower	../fonts/zerothre.ttf
1614884	WORD	wordpools/wasnorm_wordpool_less_exclusions.txt	LTP231	ltpFR	2	11	1	STAFF	1365	n/a	0	0	0.5869140625	0.422607421875	lower	../fonts/zerothre.ttf
1618861	WORD	wordpools/wasnorm_wordpool_less_exclusions.txt	LTP231	ltpFR	2	11	0	SWATTER	1418	n/a	0	1	0.412841796875	0.57763671875	upper	../fonts/amplitud.ttf
1623073	WORD	wordpools/wasnorm_wordpool_less_exclusions.txt	LTP231	ltpFR	2	11	0	CAB	209	n/a	0	1	0.412841796875	0.57763671875	upper	../fonts/amplitud.ttf
1627100	WORD	wordpools/wasnorm_wordpool_less_exclusions.txt	LTP231	ltpFR	2	11	0	GROUND	666	n/a	1	1	0.412841796875	0.57763671875	upper	../fonts/amplitud.ttf
1631028	WORD	wordpools/wasnorm_wordpool_less_exclusions.txt	LTP231	ltpFR	2	11	0	MATTRESS	879	n/a	1	1	0.412841796875	0.57763671875	upper	../fonts/amplitud.ttf
1634954	WORD	wordpools/wasnorm_wordpool_less_exclusions.txt	LTP231	ltpFR	2	11	0	CABBAGE	210	n/a	0	1	0.412841796875	0.57763671875	upper	../fonts/amplitud.ttf
1639099	WORD	wordpools/wasnorm_wordpool_less_exclusions.txt	LTP231	ltpFR	2	11	0	PILOT	1070	n/a	1	1	0.412841796875	0.57763671875	upper	../fonts/amplitud.ttf
1643309	WORD	wordpools/wasnorm_wordpool_less_exclusions.txt	LTP231	ltpFR	2	11	1	CYLINDER	432	n/a	0	0	0.5869140625	0.422607421875	lower	../fonts/zerothre.ttf
1647204	WORD	wordpools/wasnorm_wordpool_less_exclusions.txt	LTP231	ltpFR	2	11	1	STALLION	1369	n/a	1	0	0.5869140625	0.422607421875	lower	../fonts/zerothre.ttf
1651098	WORD	wordpools/wasnorm_wordpool_less_exclusions.txt	LTP231	ltpFR	2	11	1	STRAW	1390	n/a	0	0	0.5869140625	0.422607421875	lower	../fonts/zerothre.ttf
1655158	WORD	wordpools/wasnorm_wordpool_less_exclusions.txt	LTP231	ltpFR	2	11	1	STUDENT	1395	n/a	n/a	0	0.5869140625	0.422607421875	lower	../fonts/zerothre.ttf
1658187	SLOW_MSG	n/a	LTP231	ltpFR	2	11	n/a	n/a	n/a	n/a	n/a	n/a	n/a	n/a	n/a	n/a
1662381	REC_START	n/a	LTP231	ltpFR	2	11	n/a	n/a	n/a	n/a	n/a	n/a	n/a	n/a	n/a	n/a
1665832	REC_WORD	wordpools/wasnorm_wordpool_less_exclusions.txt	LTP231	ltpFR	2	11	1	STUDENT	1395	n/a	n/a	n/a	n/a	n/a	n/a	n/a
1667873	REC_WORD	wordpools/wasnorm_wordpool_less_exclusions.txt	LTP231	ltpFR	2	11	0	BUREAU	199	n/a	1	n/a	n/a	n/a	n/a	n/a
1669624	REC_WORD	wordpools/wasnorm_wordpool_less_exclusions.txt	LTP231	ltpFR	2	11	0	DRESSER	496	n/a	1	n/a	n/a	n/a	n/a	n/a
1683350	REC_WORD	wordpools/wasnorm_wordpool_less_exclusions.txt	LTP231	ltpFR	2	11	1	STAFF	1365	n/a	0	n/a	n/a	n/a	n/a	n/a
1691041	REC_WORD	wordpools/wasnorm_wordpool_less_exclusions.txt	LTP231	ltpFR	2	11	0	PILOT	1070	n/a	1	n/a	n/a	n/a	n/a	n/a
1697261	REC_WORD	wordpools/wasnorm_wordpool_less_exclusions.txt	LTP231	ltpFR	2	11	1	STALLION	1369	n/a	1	n/a	n/a	n/a	n/a	n/a
1771883	WORD	wordpools/wasnorm_wordpool_less_exclusions.txt	LTP231	ltpFR	2	12	0	BLOUSE	139	n/a	0	1	0.412841796875	0.57763671875	upper	../fonts/amplitud.ttf
1775794	WORD	wordpools/wasnorm_wordpool_less_exclusions.txt	LTP231	ltpFR	2	12	0	CAULIFLOWER	262	n/a	0	1	0.412841796875	0.57763671875	upper	../fonts/amplitud.ttf
1779655	WORD	wordpools/wasnorm_wordpool_less_exclusions.txt	LTP231	ltpFR	2	12	0	SHERIFF	1284	n/a	1	1	0.412841796875	0.57763671875	upper	../fonts/amplitud.ttf
1783815	WORD	wordpools/wasnorm_wordpool_less_exclusions.txt	LTP231	ltpFR	2	12	1	BADGE	68	n/a	0	0	0.5869140625	0.422607421875	lower	../fonts/zerothre.ttf
1787876	WORD	wordpools/wasnorm_wordpool_less_exclusions.txt	LTP231	ltpFR	2	12	1	BUTTERFLY	206	n/a	0	0	0.5869140625	0.422607421875	lower	../fonts/zerothre.ttf
1791820	WORD	wordpools/wasnorm_wordpool_less_exclusions.txt	LTP231	ltpFR	2	12	1	WASHCLOTH	1591	n/a	0	0	0.5869140625	0.422607421875	lower	../fonts/zerothre.ttf
1795847	WORD	wordpools/wasnorm_wordpool_less_exclusions.txt	LTP231	ltpFR	2	12	1	WARDROBE	1587	n/a	0	0	0.5869140625	0.422607421875	lower	../fonts/zerothre.ttf
1799808	WORD	wordpools/wasnorm_wordpool_less_exclusions.txt	LTP231	ltpFR	2	12	1	TICK	1463	n/a	1	0	0.5869140625	0.422607421875	lower	../fonts/zerothre.ttf
1804003	WORD	wordpools/wasnorm_wordpool_less_exclusions.txt	LTP231	ltpFR	2	12	0	POPE	1105	n/a	1	1	0.412841796875	0.57763671875	upper	../fonts/amplitud.ttf
1807946	WORD	wordpools/wasnorm_wordpool_less_exclusions.txt	LTP231	ltpFR	2	12	0	TACK	1428	n/a	2	1	0.412841796875	0.57763671875	upper	../fonts/amplitud.ttf
1809710	KEY_MSG	n/a	LTP231	ltpFR	2	12	n/a	n/a	n/a	n/a	n/a	n/a	n/a	n/a	n/a	n/a
1812240	WORD	wordpools/wasnorm_wordpool_less_exclusions.txt	LTP231	ltpFR	2	12	0	FLEA	577	n/a	0	1	0.412841796875	0.57763671875	upper	../fonts/amplitud.ttf
1816434	WORD	wordpools/wasnorm_wordpool_less_exclusions.txt	LTP231	ltpFR	2	12	1	PENDULUM	1043	n/a	0	0	0.5869140625	0.422607421875	lower	../fonts/zerothre.ttf
1820610	WORD	wordpools/wasnorm_wordpool_less_exclusions.txt	LTP231	ltpFR	2	12	1	TRUMPET	1513	n/a	0	0	0.5869140625	0.422607421875	lower	../fonts/zerothre.ttf
1824754	WORD	wordpools/wasnorm_wordpool_less_exclusions.txt	LTP231	ltpFR	2	12	1	MOTHER	921	n/a	1	0	0.5869140625	0.422607421875	lower	../fonts/zerothre.ttf
1828914	WORD	wordpools/wasnorm_wordpool_less_exclusions.txt	LTP231	ltpFR	2	12	0	FAMILY	550	n/a	1	1	0.412841796875	0.57763671875	upper	../fonts/amplitud.ttf
1832992	WORD	wordpools/wasnorm_wordpool_less_exclusions.txt	LTP231	ltpFR	2	12	0	CHAPEL	280	n/a	1	1	0.412841796875	0.57763671875	upper	../fonts/amplitud.ttf
1838850	REC_START	n/a	LTP231	ltpFR	2	12	n/a	n/a	n/a	n/a	n/a	n/a	n/a	n/a	n/a	n/a
1840311	REC_WORD	wordpools/wasnorm_wordpool_less_exclusions.txt	LTP231	ltpFR	2	12	0	CHAPEL	280	n/a	1	n/a	n/a	n/a	n/a	n/a
1840850	REC_WORD	wordpools/wasnorm_wordpool_less_exclusions.txt	LTP231	ltpFR	2	12	0	FAMILY	550	n/a	1	n/a	n/a	n/a	n/a	n/a
1841723	REC_WORD	wordpools/wasnorm_wordpool_less_exclusions.txt	LTP231	ltpFR	2	12	0	FLEA	577	n/a	0	n/a	n/a	n/a	n/a	n/a
1843245	REC_WORD	wordpools/wasnorm_wordpool_less_exclusions.txt	LTP231	ltpFR	2	12	1	BUTTERFLY	206	n/a	0	n/a	n/a	n/a	n/a	n/a
1855382	REC_WORD	wordpools/wasnorm_wordpool_less_exclusions.txt	LTP231	ltpFR	2	12	0	POPE	1105	n/a	1	n/a	n/a	n/a	n/a	n/a
1858844	REC_WORD	wordpools/wasnorm_wordpool_less_exclusions.txt	LTP231	ltpFR	2	12	1	WARDROBE	1587	n/a	0	n/a	n/a	n/a	n/a	n/a
1859777	REC_WORD	wordpools/wasnorm_wordpool_less_exclusions.txt	LTP231	ltpFR	2	12	1	WASHCLOTH	1591	n/a	0	n/a	n/a	n/a	n/a	n/a
1914453	REST_REWET	n/a	LTP231	ltpFR	2	12	n/a	n/a	n/a	n/a	n/a	n/a	n/a	n/a	n/a	n/a
2240235	WORD	wordpools/wasnorm_wordpool_less_exclusions.txt	LTP231	ltpFR	2	13	1	TREE	1502	n/a	1	0	0.5869140625	0.422607421875	lower	../fonts/zerothre.ttf
2244412	WORD	wordpools/wasnorm_wordpool_less_exclusions.txt	LTP231	ltpFR	2	13	1	PLANT	1083	n/a	1	0	0.5869140625	0.422607421875	lower	../fonts/zerothre.ttf
2248256	WORD	wordpools/wasnorm_wordpool_less_exclusions.txt	LTP231	ltpFR	2	13	1	OLIVE	975	n/a	0	0	0.5869140625	0.422607421875	lower	../fonts/zerothre.ttf
2252083	WORD	wordpools/wasnorm_wordpool_less_exclusions.txt	LTP231	ltpFR	2	13	1	PAGE	1001	n/a	0	0	0.5869140625	0.422607421875	lower	../fonts/zerothre.ttf
2256177	WORD	wordpools/wasnorm_wordpool_less_exclusions.txt	LTP231	ltpFR	2	13	1	SPRINKLE	1359	n/a	0	0	0.5869140625	0.422607421875	lower	../fonts/zerothre.ttf
2260288	WORD	wordpools/wasnorm_wordpool_less_exclusions.txt	LTP231	ltpFR	2	13	1	SWITCH	1422	n/a	0	0	0.5869140625	0.422607421875	lower	../fonts/zerothre.ttf
2264299	WORD	wordpools/wasnorm_wordpool_less_exclusions.txt	LTP231	ltpFR	2	13	1	TOILET	1475	n/a	0	0	0.5869140625	0.422607421875	lower	../fonts/zerothre.ttf
2268276	WORD	wordpools/wasnorm_wordpool_less_exclusions.txt	LTP231	ltpFR	2	13	1	CHILD	299	n/a	1	0	0.5869140625	0.422607421875	lower	../fonts/zerothre.ttf
2272403	WORD	wordpools/wasnorm_wordpool_less_exclusions.txt	LTP231	ltpFR	2	13	1	CHAMPION	279	n/a	1	0	0.5869140625	0.422607421875	lower	../fonts/zerothre.ttf
2276596	WORD	wordpools/wasnorm_wordpool_less_exclusions.txt	LTP231	ltpFR	2	13	1	WINNER	1615	n/a	1	0	0.5869140625	0.422607421875	lower	../fonts/zerothre.ttf
2280457	WORD	wordpools/wasnorm_wordpool_less_exclusions.txt	LTP231	ltpFR	2	13	1	LITERATURE	831	n/a	0	0	0.5869140625	0.422607421875	lower	../fonts/zerothre.ttf
2284369	WORD	wordpools/wasnorm_wordpool_less_exclusions.txt	LTP231	ltpFR	2	13	1	BATHTUB	100	n/a	0	0	0.5869140625	0.422607421875	lower	../fonts/zerothre.ttf
2288329	WORD	wordpools/wasnorm_wordpool_less_exclusions.txt	LTP231	ltpFR	2	13	1	JEEP	753	n/a	0	0	0.5869140625	0.422607421875	lower	../fonts/zerothre.ttf
2292456	WORD	wordpools/wasnorm_wordpool_less_exclusions.txt	LTP231	ltpFR	2	13	1	ARTERY	41	n/a	0	0	0.5869140625	0.422607421875	lower	../fonts/zerothre.ttf
2296616	WORD	wordpools/wasnorm_wordpool_less_exclusions.txt	LTP231	ltpFR	2	13	1	DECK	443	n/a	0	0	0.5869140625	0.422607421875	lower	../fonts/zerothre.ttf
2300510	WORD	wordpools/wasnorm_wordpool_less_exclusions.txt	LTP231	ltpFR	2	13	1	LAKE	796	n/a	0	0	0.5869140625	0.422607421875	lower	../fonts/zerothre.ttf
2306237	REC_START	n/a	LTP231	ltpFR	2	13	n/a	n/a	n/a	n/a	n/a	n/a	n/a	n/a	n/a	n/a
2307584	REC_WORD	wordpools/wasnorm_wordpool_less_exclusions.txt	LTP231	ltpFR	2	13	1	LAKE	796	n/a	0	n/a	n/a	n/a	n/a	n/a
2308108	REC_WORD	wordpools/wasnorm_wordpool_less_exclusions.txt	LTP231	ltpFR	2	13	1	ARTERY	41	n/a	0	n/a	n/a	n/a	n/a	n/a
2308676	REC_WORD	wordpools/wasnorm_wordpool_less_exclusions.txt	LTP231	ltpFR	2	13	1	CHILD	299	n/a	1	n/a	n/a	n/a	n/a	n/a
2309469	REC_WORD	wordpools/wasnorm_wordpool_less_exclusions.txt	LTP231	ltpFR	2	13	1	BATHTUB	100	n/a	0	n/a	n/a	n/a	n/a	n/a
2329047	REC_WORD_VV	wordpools/wasnorm_wordpool_less_exclusions.txt	LTP231	ltpFR	2	13	n/a	<>	-1	n/a	n/a	n/a	n/a	n/a	n/a	n/a
2340993	REC_WORD	wordpools/wasnorm_wordpool_less_exclusions.txt	LTP231	ltpFR	2	13	1	TREE	1502	n/a	1	n/a	n/a	n/a	n/a	n/a
2344704	REC_WORD	wordpools/wasnorm_wordpool_less_exclusions.txt	LTP231	ltpFR	2	13	1	PLANT	1083	n/a	1	n/a	n/a	n/a	n/a	n/a
2363871	REC_WORD	wordpools/wasnorm_wordpool_less_exclusions.txt	LTP231	ltpFR	2	13	1	OLIVE	975	n/a	0	n/a	n/a	n/a	n/a	n/a
2386366	WORD	wordpools/wasnorm_wordpool_less_exclusions.txt	LTP231	ltpFR	2	14	-1	ROSE	1212	n/a	-1	1	1.0	1.0	upper	../fonts/Verdana.ttf
2390427	WORD	wordpools/wasnorm_wordpool_less_exclusions.txt	LTP231	ltpFR	2	14	-1	MAP	865	n/a	-1	1	1.0	1.0	upper	../fonts/Verdana.ttf
2394421	WORD	wordpools/wasnorm_wordpool_less_exclusions.txt	LTP231	ltpFR	2	14	-1	COLT	349	n/a	-1	1	1.0	1.0	upper	../fonts/Verdana.ttf
2398531	WORD	wordpools/wasnorm_wordpool_less_exclusions.txt	LTP231	ltpFR	2	14	-1	CONTAINER	366	n/a	-1	1	1.0	1.0	upper	../fonts/Verdana.ttf
2402741	WORD	wordpools/wasnorm_wordpool_less_exclusions.txt	LTP231	ltpFR	2	14	-1	GARDEN	623	n/a	-1	1	1.0	1.0	upper	../fonts/Verdana.ttf
2406885	WORD	wordpools/wasnorm_wordpool_less_exclusions.txt	LTP231	ltpFR	2	14	-1	UTENSIL	1542	n/a	-1	1	1.0	1.0	upper	../fonts/Verdana.ttf
2410812	WORD	wordpools/wasnorm_wordpool_less_exclusions.txt	LTP231	ltpFR	2	14	-1	MOAT	903	n/a	-1	1	1.0	1.0	upper	../fonts/Verdana.ttf
2414773	WORD	wordpools/wasnorm_wordpool_less_exclusions.txt	LTP231	ltpFR	2	14	-1	CROCODILE	411	n/a	-1	1	1.0	1.0	upper	../fonts/Verdana.ttf
2418634	WORD	wordpools/wasnorm_wordpool_less_exclusions.txt	LTP231	ltpFR	2	14	-1	SANDWICH	1232	n/a	-1	1	1.0	1.0	upper	../fonts/Verdana.ttf
2422528	WORD	wordpools/wasnorm_wordpool_less_exclusions.txt	LTP231	ltpFR	2	14	-1	ENGINEER	536	n/a	-1	1	1.0	1.0	upper	../fonts/Verdana.ttf
2426440	WORD	wordpools/wasnorm_wordpool_less_exclusions.txt	LTP231	ltpFR	2	14	-1	RADIO	1157	n/a	-1	1	1.0	1.0	upper	../fonts/Verdana.ttf
2430384	WORD	wordpools/wasnorm_wordpool_less_exclusions.txt	LTP231	ltpFR	2	14	-1	BARN	89	n/a	-1	1	1.0	1.0	upper	../fonts/Verdana.ttf
2434543	WORD	wordpools/wasnorm_wordpool_less_exclusions.txt	LTP231	ltpFR	2	14	-1	CHAUFFEUR	283	n/a	-1	1	1.0	1.0	upper	../fonts/Verdana.ttf
2438687	WORD	wordpools/wasnorm_wordpool_less_exclusions.txt	LTP231	ltpFR	2	14	-1	GREASE	660	n/a	-1	1	1.0	1.0	upper	../fonts/Verdana.ttf
2442698	WORD	wordpools/wasnorm_wordpool_less_exclusions.txt	LTP231	ltpFR	2	14	-1	SHOP	1290	n/a	-1	1	1.0	1.0	upper	../fonts/Verdana.ttf
2446625	WORD	wordpools/wasnorm_wordpool_less_exclusions.txt	LTP231	ltpFR	2	14	-1	STORE	1387	n/a	-1	1	1.0	1.0	upper	../fonts/Verdana.ttf
2452700	REC_START	n/a	LTP231	ltpFR	2	14	n/a	n/a	n/a	n/a	n/a	n/a	n/a	n/a	n/a	n/a
2454311	REC_WORD	wordpools/wasnorm_wordpool_less_exclusions.txt	LTP231	ltpFR	2	14	-1	SHOP	1290	n/a	-1	n/a	n/a	n/a	n/a	n/a
2454870	REC_WORD	wordpools/wasnorm_wordpool_less_exclusions.txt	LTP231	ltpFR	2	14	-1	STORE	1387	n/a	-1	n/a	n/a	n/a	n/a	n/a
2455395	REC_WORD	wordpools/wasnorm_wordpool_less_exclusions.txt	LTP231	ltpFR	2	14	-1	CHAUFFEUR	283	n/a	-1	n/a	n/a	n/a	n/a	n/a
2456571	REC_WORD	wordpools/wasnorm_wordpool_less_exclusions.txt	LTP231	ltpFR	2	14	-1	BARN	89	n/a	-1	n/a	n/a	n/a	n/a	n/a
2460058	REC_WORD	wordpools/wasnorm_wordpool_less_exclusions.txt	LTP231	ltpFR	2	14	-1	CROCODILE	411	n/a	-1	n/a	n/a	n/a	n/a	n/a
2460728	REC_WORD	wordpools/wasnorm_wordpool_less_exclusions.txt	LTP231	ltpFR	2	14	-1	MOAT	903	n/a	-1	n/a	n/a	n/a	n/a	n/a
2461190	REC_WORD	wordpools/wasnorm_wordpool_less_exclusions.txt	LTP231	ltpFR	2	14	-1	SANDWICH	1232	n/a	-1	n/a	n/a	n/a	n/a	n/a
2486169	REC_WORD	wordpools/wasnorm_wordpool_less_exclusions.txt	LTP231	ltpFR	2	14	-1	ENGINEER	536	n/a	-1	n/a	n/a	n/a	n/a	n/a
2487396	REC_WORD	wordpools/wasnorm_wordpool_less_exclusions.txt	LTP231	ltpFR	2	14	-1	RADIO	1157	n/a	-1	n/a	n/a	n/a	n/a	n/a
2532730	WORD	wordpools/wasnorm_wordpool_less_exclusions.txt	LTP231	ltpFR	2	15	-1	SECRETARY	1265	n/a	-1	1	1.0	1.0	upper	../fonts/Verdana.ttf
2536924	WORD	wordpools/wasnorm_wordpool_less_exclusions.txt	LTP231	ltpFR	2	15	-1	MARS	873	n/a	-1	1	1.0	1.0	upper	../fonts/Verdana.ttf
2540868	WORD	wordpools/wasnorm_wordpool_less_exclusions.txt	LTP231	ltpFR	2	15	-1	STAKE	1368	n/a	-1	1	1.0	1.0	upper	../fonts/Verdana.ttf
2545013	WORD	wordpools/wasnorm_wordpool_less_exclusions.txt	LTP231	ltpFR	2	15	-1	GARLIC	624	n/a	-1	1	1.0	1.0	upper	../fonts/Verdana.ttf
2549206	WORD	wordpools/wasnorm_wordpool_less_exclusions.txt	LTP231	ltpFR	2	15	-1	EMPLOYER	532	n/a	-1	1	1.0	1.0	upper	../fonts/Verdana.ttf
2553284	WORD	wordpools/wasnorm_wordpool_less_exclusions.txt	LTP231	ltpFR	2	15	-1	BRIEFCASE	175	n/a	-1	1	1.0	1.0	upper	../fonts/Verdana.ttf
2557411	WORD	wordpools/wasnorm_wordpool_less_exclusions.txt	LTP231	ltpFR	2	15	-1	BUN	197	n/a	-1	1	1.0	1.0	upper	../fonts/Verdana.ttf
2561620	WORD	wordpools/wasnorm_wordpool_less_exclusions.txt	LTP231	ltpFR	2	15	-1	ICEBERG	731	n/a	-1	1	1.0	1.0	upper	../fonts/Verdana.ttf
2565847	WORD	wordpools/wasnorm_wordpool_less_exclusions.txt	LTP231	ltpFR	2	15	-1	FROST	609	n/a	-1	1	1.0	1.0	upper	../fonts/Verdana.ttf
2569924	WORD	wordpools/wasnorm_wordpool_less_exclusions.txt	LTP231	ltpFR	2	15	-1	OFFICE	972	n/a	-1	1	1.0	1.0	upper	../fonts/Verdana.ttf
2574086	WORD	wordpools/wasnorm_wordpool_less_exclusions.txt	LTP231	ltpFR	2	15	-1	JELLY	755	n/a	-1	1	1.0	1.0	upper	../fonts/Verdana.ttf
2577929	WORD	wordpools/wasnorm_wordpool_less_exclusions.txt	LTP231	ltpFR	2	15	-1	KLEENEX	782	n/a	-1	1	1.0	1.0	upper	../fonts/Verdana.ttf
2582007	WORD	wordpools/wasnorm_wordpool_less_exclusions.txt	LTP231	ltpFR	2	15	-1	FOX	598	n/a	-1	1	1.0	1.0	upper	../fonts/Verdana.ttf
2585834	WORD	wordpools/wasnorm_wordpool_less_exclusions.txt	LTP231	ltpFR	2	15	-1	BUFFALO	186	n/a	-1	1	1.0	1.0	upper	../fonts/Verdana.ttf
2589745	WORD	wordpools/wasnorm_wordpool_less_exclusions.txt	LTP231	ltpFR	2	15	-1	VIOLIN	1571	n/a	-1	1	1.0	1.0	upper	../fonts/Verdana.ttf
2593939	WORD	wordpools/wasnorm_wordpool_less_exclusions.txt	LTP231	ltpFR	2	15	-1	OBOE	969	n/a	-1	1	1.0	1.0	upper	../fonts/Verdana.ttf
2599781	REC_START	n/a	LTP231	ltpFR	2	15	n/a	n/a	n/a	n/a	n/a	n/a	n/a	n/a	n/a	n/a
2601078	REC_WORD	wordpools/wasnorm_wordpool_less_exclusions.txt	LTP231	ltpFR	2	15	-1	VIOLIN	1571	n/a	-1	n/a	n/a	n/a	n/a	n/a
2601696	REC_WORD	wordpools/wasnorm_wordpool_less_exclusions.txt	LTP231	ltpFR	2	15	-1	OBOE	969	n/a	-1	n/a	n/a	n/a	n/a	n/a
2602296	REC_WORD	wordpools/wasnorm_wordpool_less_exclusions.txt	LTP231	ltpFR	2	15	-1	BUFFALO	186	n/a	-1	n/a	n/a	n/a	n/a	n/a
2602749	REC_WORD	wordpools/wasnorm_wordpool_less_exclusions.txt	LTP231	ltpFR	2	15	-1	FOX	598	n/a	-1	n/a	n/a	n/a	n/a	n/a
2603298	REC_WORD	wordpools/wasnorm_wordpool_less_exclusions.txt	LTP231	ltpFR	2	15	-1	OFFICE	972	n/a	-1	n/a	n/a	n/a	n/a	n/a
2603717	REC_WORD	wordpools/wasnorm_wordpool_less_exclusions.txt	LTP231	ltpFR	2	15	-1	SECRETARY	1265	n/a	-1	n/a	n/a	n/a	n/a	n/a
2605262	REC_WORD	wordpools/wasnorm_wordpool_less_exclusions.txt	LTP231	ltpFR	2	15	-1	EMPLOYER	532	n/a	-1	n/a	n/a	n/a	n/a	n/a
2606352	REC_WORD	wordpools/wasnorm_wordpool_less_exclusions.txt	LTP231	ltpFR	2	15	-1	MARS	873	n/a	-1	n/a	n/a	n/a	n/a	n/a
2607279	REC_WORD	wordpools/wasnorm_wordpool_less_exclusions.txt	LTP231	ltpFR	2	15	-1	BRIEFCASE	175	n/a	-1	n/a	n/a	n/a	n/a	n/a
2608306	REC_WORD	wordpools/wasnorm_wordpool_less_exclusions.txt	LTP231	ltpFR	2	15	-1	ICEBERG	731	n/a	-1	n/a	n/a	n/a	n/a	n/a
2609214	REC_WORD	wordpools/wasnorm_wordpool_less_exclusions.txt	LTP231	ltpFR	2	15	-1	BUN	197	n/a	-1	n/a	n/a	n/a	n/a	n/a
2625881	REC_WORD	wordpools/wasnorm_wordpool_less_exclusions.txt	LTP231	ltpFR	2	15	-1	KLEENEX	782	n/a	-1	n/a	n/a	n/a	n/a	n/a
2629468	REC_WORD	wordpools/wasnorm_wordpool_less_exclusions.txt	LTP231	ltpFR	2	15	-1	JELLY	755	n/a	-1	n/a	n/a	n/a	n/a	n/a
2683073	WORD	wordpools/wasnorm_wordpool_less_exclusions.txt	LTP231	ltpFR	2	16	-1	ASSISTANT	48	n/a	-1	1	1.0	1.0	upper	../fonts/Verdana.ttf
2687117	WORD	wordpools/wasnorm_wordpool_less_exclusions.txt	LTP231	ltpFR	2	16	-1	VAN	1548	n/a	-1	1	1.0	1.0	upper	../fonts/Verdana.ttf
2691178	WORD	wordpools/wasnorm_wordpool_less_exclusions.txt	LTP231	ltpFR	2	16	-1	SALESMAN	1225	n/a	-1	1	1.0	1.0	upper	../fonts/Verdana.ttf
2695055	WORD	wordpools/wasnorm_wordpool_less_exclusions.txt	LTP231	ltpFR	2	16	-1	CARNIVAL	245	n/a	-1	1	1.0	1.0	upper	../fonts/Verdana.ttf
2698999	WORD	wordpools/wasnorm_wordpool_less_exclusions.txt	LTP231	ltpFR	2	16	-1	SILVERWARE	1308	n/a	-1	1	1.0	1.0	upper	../fonts/Verdana.ttf
2702826	WORD	wordpools/wasnorm_wordpool_less_exclusions.txt	LTP231	ltpFR	2	16	-1	HORNET	718	n/a	-1	1	1.0	1.0	upper	../fonts/Verdana.ttf
2706720	WORD	wordpools/wasnorm_wordpool_less_exclusions.txt	LTP231	ltpFR	2	16	-1	DEPARTMENT	449	n/a	-1	1	1.0	1.0	upper	../fonts/Verdana.ttf
2710797	WORD	wordpools/wasnorm_wordpool_less_exclusions.txt	LTP231	ltpFR	2	16	-1	LIPSTICK	829	n/a	-1	1	1.0	1.0	upper	../fonts/Verdana.ttf
2714792	WORD	wordpools/wasnorm_wordpool_less_exclusions.txt	LTP231	ltpFR	2	16	-1	REGISTER	1180	n/a	-1	1	1.0	1.0	upper	../fonts/Verdana.ttf
2718835	WORD	wordpools/wasnorm_wordpool_less_exclusions.txt	LTP231	ltpFR	2	16	-1	SPOON	1357	n/a	-1	1	1.0	1.0	upper	../fonts/Verdana.ttf
2722663	WORD	wordpools/wasnorm_wordpool_less_exclusions.txt	LTP231	ltpFR	2	16	-1	BEARD	107	n/a	-1	1	1.0	1.0	upper	../fonts/Verdana.ttf
2726790	WORD	wordpools/wasnorm_wordpool_less_exclusions.txt	LTP231	ltpFR	2	16	-1	COSTUME	383	n/a	-1	1	1.0	1.0	upper	../fonts/Verdana.ttf
2730818	WORD	wordpools/wasnorm_wordpool_less_exclusions.txt	LTP231	ltpFR	2	16	-1	LENS	811	n/a	-1	1	1.0	1.0	upper	../fonts/Verdana.ttf
2734662	WORD	wordpools/wasnorm_wordpool_less_exclusions.txt	LTP231	ltpFR	2	16	-1	TAG	1429	n/a	-1	1	1.0	1.0	upper	../fonts/Verdana.ttf
2738623	WORD	wordpools/wasnorm_wordpool_less_exclusions.txt	LTP231	ltpFR	2	16	-1	FEATHER	557	n/a	-1	1	1.0	1.0	upper	../fonts/Verdana.ttf
2742633	WORD	wordpools/wasnorm_wordpool_less_exclusions.txt	LTP231	ltpFR	2	16	-1	WINGS	1614	n/a	-1	1	1.0	1.0	upper	../fonts/Verdana.ttf
2748327	REC_START	n/a	LTP231	ltpFR	2	16	n/a	n/a	n/a	n/a	n/a	n/a	n/a	n/a	n/a	n/a
2750686	REC_WORD	wordpools/wasnorm_wordpool_less_exclusions.txt	LTP231	ltpFR	2	16	-1	BEARD	107	n/a	-1	n/a	n/a	n/a	n/a	n/a
2751240	REC_WORD	wordpools/wasnorm_wordpool_less_exclusions.txt	LTP231	ltpFR	2	16	-1	FEATHER	557	n/a	-1	n/a	n/a	n/a	n/a	n/a
2752223	REC_WORD	wordpools/wasnorm_wordpool_less_exclusions.txt	LTP231	ltpFR	2	16	-1	WINGS	1614	n/a	-1	n/a	n/a	n/a	n/a	n/a
2753011	REC_WORD	wordpools/wasnorm_wordpool_less_exclusions.txt	LTP231	ltpFR	2	16	-1	REGISTER	1180	n/a	-1	n/a	n/a	n/a	n/a	n/a
2753879	REC_WORD	wordpools/wasnorm_wordpool_less_exclusions.txt	LTP231	ltpFR	2	16	-1	TAG	1429	n/a	-1	n/a	n/a	n/a	n/a	n/a
2754617	REC_WORD	wordpools/wasnorm_wordpool_less_exclusions.txt	LTP231	ltpFR	2	16	-1	SPOON	1357	n/a	-1	n/a	n/a	n/a	n/a	n/a
2755375	REC_WORD	wordpools/wasnorm_wordpool_less_exclusions.txt	LTP231	ltpFR	2	16	-1	SILVERWARE	1308	n/a	-1	n/a	n/a	n/a	n/a	n/a
2756231	REC_WORD	wordpools/wasnorm_wordpool_less_exclusions.txt	LTP231	ltpFR	2	16	-1	ASSISTANT	48	n/a	-1	n/a	n/a	n/a	n/a	n/a
2757167	REC_WORD	wordpools/wasnorm_wordpool_less_exclusions.txt	LTP231	ltpFR	2	16	-1	VAN	1548	n/a	-1	n/a	n/a	n/a	n/a	n/a
2757795	REC_WORD	wordpools/wasnorm_wordpool_less_exclusions.txt	LTP231	ltpFR	2	16	-1	CARNIVAL	245	n/a	-1	n/a	n/a	n/a	n/a	n/a
2759556	REC_WORD	wordpools/wasnorm_wordpool_less_exclusions.txt	LTP231	ltpFR	2	16	-1	SALESMAN	1225	n/a	-1	n/a	n/a	n/a	n/a	n/a
2760556	REC_WORD_VV	wordpools/wasnorm_wordpool_less_exclusions.txt	LTP231	ltpFR	2	16	n/a	<>	-1	n/a	n/a	n/a	n/a	n/a	n/a	n/a
2783422	REC_WORD	wordpools/wasnorm_wordpool_less_exclusions.txt	LTP231	ltpFR	2	16	-1	REGISTER	1180	n/a	-1	n/a	n/a	n/a	n/a	n/a
2843883	REC_START	n/a	LTP231	ltpFR	2	n/a	n/a	n/a	n/a	n/a	n/a	n/a	n/a	n/a	n/a	n/a
2845484	FFR_REC_WORD	wordpools/wasnorm_wordpool_less_exclusions.txt	LTP231	ltpFR	2	n/a	-1	BUFFALO	186	n/a	-1	n/a	n/a	n/a	n/a	n/a
2846484	FFR_REC_WORD_VV	wordpools/wasnorm_wordpool_less_exclusions.txt	LTP231	ltpFR	2	n/a	n/a	<>	-1	n/a	n/a	n/a	n/a	n/a	n/a	n/a
2847010	FFR_REC_WORD	wordpools/wasnorm_wordpool_less_exclusions.txt	LTP231	ltpFR	2	n/a	n/a	POLICE	1098	n/a	n/a	n/a	n/a	n/a	n/a	n/a
2848118	FFR_REC_WORD	wordpools/wasnorm_wordpool_less_exclusions.txt	LTP231	ltpFR	2	n/a	-1	FOX	598	n/a	-1	n/a	n/a	n/a	n/a	n/a
2849118	FFR_REC_WORD_VV	wordpools/wasnorm_wordpool_less_exclusions.txt	LTP231	ltpFR	2	n/a	n/a	<>	-1	n/a	n/a	n/a	n/a	n/a	n/a	n/a
2849949	FFR_REC_WORD	wordpools/wasnorm_wordpool_less_exclusions.txt	LTP231	ltpFR	2	n/a	1	QUAIL	1147	n/a	0	n/a	n/a	n/a	n/a	n/a
2850949	FFR_REC_WORD_VV	wordpools/wasnorm_wordpool_less_exclusions.txt	LTP231	ltpFR	2	n/a	n/a	<>	-1	n/a	n/a	n/a	n/a	n/a	n/a	n/a
2854488	FFR_REC_WORD	wordpools/wasnorm_wordpool_less_exclusions.txt	LTP231	ltpFR	2	n/a	-1	ASSISTANT	48	n/a	-1	n/a	n/a	n/a	n/a	n/a
2855619	FFR_REC_WORD	wordpools/wasnorm_wordpool_less_exclusions.txt	LTP231	ltpFR	2	n/a	-1	SECRETARY	1265	n/a	-1	n/a	n/a	n/a	n/a	n/a
2856619	FFR_REC_WORD_VV	wordpools/wasnorm_wordpool_less_exclusions.txt	LTP231	ltpFR	2	n/a	n/a	<>	-1	n/a	n/a	n/a	n/a	n/a	n/a	n/a
2857946	FFR_REC_WORD	wordpools/wasnorm_wordpool_less_exclusions.txt	LTP231	ltpFR	2	n/a	-1	WILDERNESS	1610	n/a	-1	n/a	n/a	n/a	n/a	n/a
2859068	FFR_REC_WORD	wordpools/wasnorm_wordpool_less_exclusions.txt	LTP231	ltpFR	2	n/a	-1	CHIPMUNK	304	n/a	-1	n/a	n/a	n/a	n/a	n/a
2860068	FFR_REC_WORD_VV	wordpools/wasnorm_wordpool_less_exclusions.txt	LTP231	ltpFR	2	n/a	n/a	<>	-1	n/a	n/a	n/a	n/a	n/a	n/a	n/a
2860425	FFR_REC_WORD	wordpools/wasnorm_wordpool_less_exclusions.txt	LTP231	ltpFR	2	n/a	1	TANK	1432	n/a	0	n/a	n/a	n/a	n/a	n/a
2862061	FFR_REC_WORD	wordpools/wasnorm_wordpool_less_exclusions.txt	LTP231	ltpFR	2	n/a	1	GENERAL	630	n/a	1	n/a	n/a	n/a	n/a	n/a
2863061	FFR_REC_WORD_VV	wordpools/wasnorm_wordpool_less_exclusions.txt	LTP231	ltpFR	2	n/a	n/a	<>	-1	n/a	n/a	n/a	n/a	n/a	n/a	n/a
2867529	FFR_REC_WORD_VV	wordpools/wasnorm_wordpool_less_exclusions.txt	LTP231	ltpFR	2	n/a	n/a	<>	-1	n/a	n/a	n/a	n/a	n/a	n/a	n/a
2877561	FFR_REC_WORD	wordpools/wasnorm_wordpool_less_exclusions.txt	LTP231	ltpFR	2	n/a	-1	MARS	873	n/a	-1	n/a	n/a	n/a	n/a	n/a
2878474	FFR_REC_WORD	wordpools/wasnorm_wordpool_less_exclusions.txt	LTP231	ltpFR	2	n/a	-1	VAN	1548	n/a	-1	n/a	n/a	n/a	n/a	n/a
2879150	FFR_REC_WORD	wordpools/wasnorm_wordpool_less_exclusions.txt	LTP231	ltpFR	2	n/a	-1	SPOON	1357	n/a	-1	n/a	n/a	n/a	n/a	n/a
2880255	FFR_REC_WORD	wordpools/wasnorm_wordpool_less_exclusions.txt	LTP231	ltpFR	2	n/a	-1	REGISTER	1180	n/a	-1	n/a	n/a	n/a	n/a	n/a
2881255	FFR_REC_WORD_VV	wordpools/wasnorm_wordpool_less_exclusions.txt	LTP231	ltpFR	2	n/a	n/a	<>	-1	n/a	n/a	n/a	n/a	n/a	n/a	n/a
2882690	FFR_REC_WORD	wordpools/wasnorm_wordpool_less_exclusions.txt	LTP231	ltpFR	2	n/a	1	SHRIMP	1297	n/a	1	n/a	n/a	n/a	n/a	n/a
2887339	FFR_REC_WORD	wordpools/wasnorm_wordpool_less_exclusions.txt	LTP231	ltpFR	2	n/a	-1	EMPLOYER	532	n/a	-1	n/a	n/a	n/a	n/a	n/a
2888339	FFR_REC_WORD_VV	wordpools/wasnorm_wordpool_less_exclusions.txt	LTP231	ltpFR	2	n/a	n/a	<>	-1	n/a	n/a	n/a	n/a	n/a	n/a	n/a
2890801	FFR_REC_WORD	wordpools/wasnorm_wordpool_less_exclusions.txt	LTP231	ltpFR	2	n/a	-1	BRIEFCASE	175	n/a	-1	n/a	n/a	n/a	n/a	n/a
2891801	FFR_REC_WORD_VV	wordpools/wasnorm_wordpool_less_exclusions.txt	LTP231	ltpFR	2	n/a	n/a	<>	-1	n/a	n/a	n/a	n/a	n/a	n/a	n/a
2893450	FFR_REC_WORD	wordpools/wasnorm_wordpool_less_exclusions.txt	LTP231	ltpFR	2	n/a	-1	BUN	197	n/a	-1	n/a	n/a	n/a	n/a	n/a
2933703	FFR_REC_WORD	wordpools/wasnorm_wordpool_less_exclusions.txt	LTP231	ltpFR	2	n/a	-1	FROST	609	n/a	-1	n/a	n/a	n/a	n/a	n/a
2941161	FFR_REC_WORD	wordpools/wasnorm_wordpool_less_exclusions.txt	LTP231	ltpFR	2	n/a	1	PLANT	1083	n/a	1	n/a	n/a	n/a	n/a	n/a
2942723	FFR_REC_WORD	wordpools/wasnorm_wordpool_less_exclusions.txt	LTP231	ltpFR	2	n/a	1	TREE	1502	n/a	1	n/a	n/a	n/a	n/a	n/a
2943392	FFR_REC_WORD	wordpools/wasnorm_wordpool_less_exclusions.txt	LTP231	ltpFR	2	n/a	1	LAKE	796	n/a	0	n/a	n/a	n/a	n/a	n/a
2944703	FFR_REC_WORD	wordpools/wasnorm_wordpool_less_exclusions.txt	LTP231	ltpFR	2	n/a	1	CREEK	404	n/a	0	n/a	n/a	n/a	n/a	n/a
2950485	FFR_REC_WORD	wordpools/wasnorm_wordpool_less_exclusions.txt	LTP231	ltpFR	2	n/a	n/a	FORTRESS	-1	n/a	n/a	n/a	n/a	n/a	n/a	n/a
2951613	FFR_REC_WORD	wordpools/wasnorm_wordpool_less_exclusions.txt	LTP231	ltpFR	2	n/a	0	TEMPLE	1448	n/a	1	n/a	n/a	n/a	n/a	n/a
2953938	FFR_REC_WORD	wordpools/wasnorm_wordpool_less_exclusions.txt	LTP231	ltpFR	2	n/a	0	POPE	1105	n/a	1	n/a	n/a	n/a	n/a	n/a
2957394	FFR_REC_WORD	wordpools/wasnorm_wordpool_less_exclusions.txt	LTP231	ltpFR	2	n/a	1	BUTTERFLY	206	n/a	0	n/a	n/a	n/a	n/a	n/a
2958192	FFR_REC_WORD	wordpools/wasnorm_wordpool_less_exclusions.txt	LTP231	ltpFR	2	n/a	0	FLEA	577	n/a	0	n/a	n/a	n/a	n/a	n/a
3012554	FFR_REC_WORD	wordpools/wasnorm_wordpool_less_exclusions.txt	LTP231	ltpFR	2	n/a	-1	SHORE	1291	n/a	-1	n/a	n/a	n/a	n/a	n/a
3013437	FFR_REC_WORD	wordpools/wasnorm_wordpool_less_exclusions.txt	LTP231	ltpFR	2	n/a	-1	DUNE	506	n/a	-1	n/a	n/a	n/a	n/a	n/a
3014041	FFR_REC_WORD	wordpools/wasnorm_wordpool_less_exclusions.txt	LTP231	ltpFR	2	n/a	-1	KEY	773	n/a	-1	n/a	n/a	n/a	n/a	n/a
3019668	FFR_REC_WORD	wordpools/wasnorm_wordpool_less_exclusions.txt	LTP231	ltpFR	2	n/a	-1	FACTORY	548	n/a	-1	n/a	n/a	n/a	n/a	n/a
3020646	FFR_REC_WORD	wordpools/wasnorm_wordpool_less_exclusions.txt	LTP231	ltpFR	2	n/a	-1	LIPSTICK	829	n/a	-1	n/a	n/a	n/a	n/a	n/a
3026418	FFR_REC_WORD	wordpools/wasnorm_wordpool_less_exclusions.txt	LTP231	ltpFR	2	n/a	-1	DEPARTMENT	449	n/a	-1	n/a	n/a	n/a	n/a	n/a
3087943	FFR_REC_WORD	wordpools/wasnorm_wordpool_less_exclusions.txt	LTP231	ltpFR	2	n/a	1	HERD	705	n/a	0	n/a	n/a	n/a	n/a	n/a
3089329	FFR_REC_WORD	wordpools/wasnorm_wordpool_less_exclusions.txt	LTP231	ltpFR	2	n/a	1	STAFF	1365	n/a	0	n/a	n/a	n/a	n/a	n/a
3134133	FFR_REC_WORD	wordpools/wasnorm_wordpool_less_exclusions.txt	LTP231	ltpFR	2	n/a	1	ANIMAL	23	n/a	1	n/a	n/a	n/a	n/a	n/a
3137062	FFR_REC_WORD	wordpools/wasnorm_wordpool_less_exclusions.txt	LTP231	ltpFR	2	n/a	1	COYOTE	396	n/a	1	n/a	n/a	n/a	n/a	n/a
3140623	FFR_REC_WORD	wordpools/wasnorm_wordpool_less_exclusions.txt	LTP231	ltpFR	2	n/a	0	PILOT	1070	n/a	1	n/a	n/a	n/a	n/a	n/a
3141072	FFR_REC_WORD	wordpools/wasnorm_wordpool_less_exclusions.txt	LTP231	ltpFR	2	n/a	0	AIRPLANE	12	n/a	1	n/a	n/a	n/a	n/a	n/a
3142868	FFR_REC_WORD	wordpools/wasnorm_wordpool_less_exclusions.txt	LTP231	ltpFR	2	n/a	0	WAREHOUSE	1588	n/a	1	n/a	n/a	n/a	n/a	n/a
3173873	REC_START	n/a	LTP231	ltpFR	2	1	n/a	n/a	n/a	n/a	n/a	n/a	n/a	n/a	n/a	n/a
3173906	RECOG_TARGET	n/a	LTP231	ltpFR	2	1	0	MARINE	869	4	1	n/a	n/a	n/a	n/a	n/a
3178027	RECOG_RESP	n/a	LTP231	ltpFR	2	1	0	MARINE	869	n/a	1	n/a	n/a	n/a	n/a	n/a
3180912	RECOG_CONF	n/a	LTP231	ltpFR	2	1	0	MARINE	869	4	1	n/a	n/a	n/a	n/a	n/a
3183276	RECOG_TARGET	n/a	LTP231	ltpFR	2	1	0	TEMPLE	1448	5	1	n/a	n/a	n/a	n/a	n/a
3184249	RECOG_RESP	n/a	LTP231	ltpFR	2	1	0	TEMPLE	1448	n/a	1	n/a	n/a	n/a	n/a	n/a
3186848	RECOG_CONF	n/a	LTP231	ltpFR	2	1	0	TEMPLE	1448	5	1	n/a	n/a	n/a	n/a	n/a
3189417	RECOG_TARGET	n/a	LTP231	ltpFR	2	1	1	PAGE	1001	3	0	n/a	n/a	n/a	n/a	n/a
3191013	RECOG_RESP	n/a	LTP231	ltpFR	2	1	1	PAGE	1001	n/a	0	n/a	n/a	n/a	n/a	n/a
3193955	RECOG_CONF	n/a	LTP231	ltpFR	2	1	1	PAGE	1001	3	0	n/a	n/a	n/a	n/a	n/a
3196407	RECOG_TARGET	n/a	LTP231	ltpFR	2	1	0	LAPEL	800	5	0	n/a	n/a	n/a	n/a	n/a
3197502	RECOG_RESP	n/a	LTP231	ltpFR	2	1	0	LAPEL	800	n/a	0	n/a	n/a	n/a	n/a	n/a
3199869	RECOG_CONF	n/a	LTP231	ltpFR	2	1	0	LAPEL	800	5	0	n/a	n/a	n/a	n/a	n/a
3202265	RECOG_LURE	n/a	LTP231	ltpFR	2	1	n/a	GYM	674	2	n/a	n/a	n/a	n/a	n/a	n/a
3203865	RECOG_RESP	n/a	LTP231	ltpFR	2	1	n/a	GYM	674	n/a	n/a	n/a	n/a	n/a	n/a	n/a
3205502	RECOG_CONF	n/a	LTP231	ltpFR	2	1	n/a	GYM	674	2	n/a	n/a	n/a	n/a	n/a	n/a
3207357	RECOG_TARGET	n/a	LTP231	ltpFR	2	1	1	CASTLE	256	1	0	n/a	n/a	n/a	n/a	n/a
3208399	RECOG_RESP	n/a	LTP231	ltpFR	2	1	1	CASTLE	256	n/a	0	n/a	n/a	n/a	n/a	n/a
3209887	RECOG_CONF	n/a	LTP231	ltpFR	2	1	1	CASTLE	256	1	0	n/a	n/a	n/a	n/a	n/a
3211849	RECOG_TARGET	n/a	LTP231	ltpFR	2	1	-1	BEAD	103	5	-1	n/a	n/a	n/a	n/a	n/a
3213353	RECOG_RESP	n/a	LTP231	ltpFR	2	1	-1	BEAD	103	n/a	-1	n/a	n/a	n/a	n/a	n/a
3215094	RECOG_CONF	n/a	LTP231	ltpFR	2	1	-1	BEAD	103	5	-1	n/a	n/a	n/a	n/a	n/a
3216692	RECOG_TARGET	n/a	LTP231	ltpFR	2	1	-1	VAN	1548	5	-1	n/a	n/a	n/a	n/a	n/a
3218272	RECOG_RESP	n/a	LTP231	ltpFR	2	1	-1	VAN	1548	n/a	-1	n/a	n/a	n/a	n/a	n/a
3220811	RECOG_CONF	n/a	LTP231	ltpFR	2	1	-1	VAN	1548	5	-1	n/a	n/a	n/a	n/a	n/a
3222716	RECOG_TARGET	n/a	LTP231	ltpFR	2	1	1	SHRIMP	1297	5	1	n/a	n/a	n/a	n/a	n/a
3224073	RECOG_RESP	n/a	LTP231	ltpFR	2	1	1	SHRIMP	1297	n/a	1	n/a	n/a	n/a	n/a	n/a
3225961	RECOG_CONF	n/a	LTP231	ltpFR	2	1	1	SHRIMP	1297	5	1	n/a	n/a	n/a	n/a	n/a
3228359	RECOG_LURE	n/a	LTP231	ltpFR	2	1	n/a	ATTORNEY	58	4	n/a	n/a	n/a	n/a	n/a	n/a
3229499	RECOG_RESP	n/a	LTP231	ltpFR	2	1	n/a	ATTORNEY	58	n/a	n/a	n/a	n/a	n/a	n/a	n/a
3231587	RECOG_CONF	n/a	LTP231	ltpFR	2	1	n/a	ATTORNEY	58	4	n/a	n/a	n/a	n/a	n/a	n/a
3233683	RECOG_TARGET	n/a	LTP231	ltpFR	2	1	0	PLATE	1086	4	0	n/a	n/a	n/a	n/a	n/a
3235497	RECOG_RESP	n/a	LTP231	ltpFR	2	1	0	PLATE	1086	n/a	0	n/a	n/a	n/a	n/a	n/a
3237613	RECOG_CONF	n/a	LTP231	ltpFR	2	1	0	PLATE	1086	4	0	n/a	n/a	n/a	n/a	n/a
3239491	RECOG_LURE	n/a	LTP231	ltpFR	2	1	n/a	FLY	586	3	n/a	n/a	n/a	n/a	n/a	n/a
3240782	RECOG_RESP	n/a	LTP231	ltpFR	2	1	n/a	FLY	586	n/a	n/a	n/a	n/a	n/a	n/a	n/a
3242784	RECOG_CONF	n/a	LTP231	ltpFR	2	1	n/a	FLY	586	3	n/a	n/a	n/a	n/a	n/a	n/a
3244584	RECOG_TARGET	n/a	LTP231	ltpFR	2	1	0	WORKER	1621	1	1	n/a	n/a	n/a	n/a	n/a
3245757	RECOG_RESP	n/a	LTP231	ltpFR	2	1	0	WORKER	1621	n/a	1	n/a	n/a	n/a	n/a	n/a
3246993	RECOG_CONF	n/a	LTP231	ltpFR	2	1	0	WORKER	1621	1	1	n/a	n/a	n/a	n/a	n/a
3248761	RECOG_TARGET	n/a	LTP231	ltpFR	2	1	-1	MAP	865	3	-1	n/a	n/a	n/a	n/a	n/a
3249803	RECOG_RESP	n/a	LTP231	ltpFR	2	1	-1	MAP	865	n/a	-1	n/a	n/a	n/a	n/a	n/a
3251591	RECOG_CONF	n/a	LTP231	ltpFR	2	1	-1	MAP	865	3	-1	n/a	n/a	n/a	n/a	n/a
3253421	RECOG_TARGET	n/a	LTP231	ltpFR	2	1	0	MARBLE	867	5	0	n/a	n/a	n/a	n/a	n/a
3254184	RECOG_RESP	n/a	LTP231	ltpFR	2	1	0	MARBLE	867	n/a	0	n/a	n/a	n/a	n/a	n/a
3255802	RECOG_CONF	n/a	LTP231	ltpFR	2	1	0	MARBLE	867	5	0	n/a	n/a	n/a	n/a	n/a
3257814	RECOG_TARGET	n/a	LTP231	ltpFR	2	1	0	HUMAN	726	3	1	n/a	n/a	n/a	n/a	n/a
3258893	RECOG_RESP	n/a	LTP231	ltpFR	2	1	0	HUMAN	726	n/a	1	n/a	n/a	n/a	n/a	n/a
3261301	RECOG_CONF	n/a	LTP231	ltpFR	2	1	0	HUMAN	726	3	1	n/a	n/a	n/a	n/a	n/a
3263024	RECOG_TARGET	n/a	LTP231	ltpFR	2	1	1	DRESS	495	5	0	n/a	n/a	n/a	n/a	n/a
3264312	RECOG_RESP	n/a	LTP231	ltpFR	2	1	1	DRESS	495	n/a	0	n/a	n/a	n/a	n/a	n/a
3265779	RECOG_CONF	n/a	LTP231	ltpFR	2	1	1	DRESS	495	5	0	n/a	n/a	n/a	n/a	n/a
3268249	RECOG_TARGET	n/a	LTP231	ltpFR	2	1	-1	COLT	349	5	-1	n/a	n/a	n/a	n/a	n/a
3269226	RECOG_RESP	n/a	LTP231	ltpFR	2	1	-1	COLT	349	n/a	-1	n/a	n/a	n/a	n/a	n/a
3270828	RECOG_CONF	n/a	LTP231	ltpFR	2	1	-1	COLT	349	5	-1	n/a	n/a	n/a	n/a	n/a
3273940	RECOG_TARGET	n/a	LTP231	ltpFR	2	1	-1	SHORE	1291	5	-1	n/a	n/a	n/a	n/a	n/a
3279972	RECOG_RESP	n/a	LTP231	ltpFR	2	1	-1	SHORE	1291	n/a	-1	n/a	n/a	n/a	n/a	n/a
3282012	RECOG_CONF	n/a	LTP231	ltpFR	2	1	-1	SHORE	1291	5	-1	n/a	n/a	n/a	n/a	n/a
3284491	RECOG_LURE	n/a	LTP231	ltpFR	2	1	n/a	SCIENTIST	1249	3	n/a	n/a	n/a	n/a	n/a	n/a
3285809	RECOG_RESP	n/a	LTP231	ltpFR	2	1	n/a	SCIENTIST	1249	n/a	n/a	n/a	n/a	n/a	n/a	n/a
3287820	RECOG_CONF	n/a	LTP231	ltpFR	2	1	n/a	SCIENTIST	1249	3	n/a	n/a	n/a	n/a	n/a	n/a
3293192	REC_START	n/a	LTP231	ltpFR	2	2	n/a	n/a	n/a	n/a	n/a	n/a	n/a	n/a	n/a	n/a
3293229	RECOG_TARGET	n/a	LTP231	ltpFR	2	2	1	ALBUM	14	2	0	n/a	n/a	n/a	n/a	n/a
3294736	RECOG_RESP	n/a	LTP231	ltpFR	2	2	1	ALBUM	14	n/a	0	n/a	n/a	n/a	n/a	n/a
3296068	RECOG_CONF	n/a	LTP231	ltpFR	2	2	1	ALBUM	14	2	0	n/a	n/a	n/a	n/a	n/a
3297904	RECOG_LURE	n/a	LTP231	ltpFR	2	2	n/a	GUARDIAN	668	3	n/a	n/a	n/a	n/a	n/a	n/a
3300314	RECOG_RESP_VV	n/a	LTP231	ltpFR	2	2	n/a	GUARDIAN	668	n/a	n/a	n/a	n/a	n/a	n/a	n/a
3302823	RECOG_RESP	n/a	LTP231	ltpFR	2	2	n/a	GUARDIAN	668	n/a	n/a	n/a	n/a	n/a	n/a	n/a
3305177	RECOG_CONF	n/a	LTP231	ltpFR	2	2	n/a	GUARDIAN	668	3	n/a	n/a	n/a	n/a	n/a	n/a
3307241	RECOG_TARGET	n/a	LTP231	ltpFR	2	2	-1	LENS	811	5	-1	n/a	n/a	n/a	n/a	n/a
3308166	RECOG_RESP	n/a	LTP231	ltpFR	2	2	-1	LENS	811	n/a	-1	n/a	n/a	n/a	n/a	n/a
3309510	RECOG_CONF	n/a	LTP231	ltpFR	2	2	-1	LENS	811	5	-1	n/a	n/a	n/a	n/a	n/a
3311500	RECOG_TARGET	n/a	LTP231	ltpFR	2	2	-1	DEPARTMENT	449	5	-1	n/a	n/a	n/a	n/a	n/a
3315489	RECOG_RESP	n/a	LTP231	ltpFR	2	2	-1	DEPARTMENT	449	n/a	-1	n/a	n/a	n/a	n/a	n/a
3317142	RECOG_CONF	n/a	LTP231	ltpFR	2	2	-1	DEPARTMENT	449	5	-1	n/a	n/a	n/a	n/a	n/a
3319489	RECOG_TARGET	n/a	LTP231	ltpFR	2	2	1	ROBE	1198	5	0	n/a	n/a	n/a	n/a	n/a
3322085	RECOG_RESP	n/a	LTP231	ltpFR	2	2	1	ROBE	1198	n/a	0	n/a	n/a	n/a	n/a	n/a
3323857	RECOG_CONF	n/a	LTP231	ltpFR	2	2	1	ROBE	1198	5	0	n/a	n/a	n/a	n/a	n/a
3325646	RECOG_LURE	n/a	LTP231	ltpFR	2	2	n/a	OREGANO	983	5	n/a	n/a	n/a	n/a	n/a	n/a
3327062	RECOG_RESP	n/a	LTP231	ltpFR	2	2	n/a	OREGANO	983	n/a	n/a	n/a	n/a	n/a	n/a	n/a
3328748	RECOG_CONF	n/a	LTP231	ltpFR	2	2	n/a	OREGANO	983	5	n/a	n/a	n/a	n/a	n/a	n/a
3331305	RECOG_TARGET	n/a	LTP231	ltpFR	2	2	-1	FOX	598	5	-1	n/a	n/a	n/a	n/a	n/a
3334847	RECOG_RESP	n/a	LTP231	ltpFR	2	2	-1	FOX	598	n/a	-1	n/a	n/a	n/a	n/a	n/a
3336488	RECOG_CONF	n/a	LTP231	ltpFR	2	2	-1	FOX	598	5	-1	n/a	n/a	n/a	n/a	n/a
3338627	RECOG_TARGET	n/a	LTP231	ltpFR	2	2	1	GRIZZLY	662	5	1	n/a	n/a	n/a	n/a	n/a
3339640	RECOG_RESP	n/a	LTP231	ltpFR	2	2	1	GRIZZLY	662	n/a	1	n/a	n/a	n/a	n/a	n/a
3341138	RECOG_CONF	n/a	LTP231	ltpFR	2	2	1	GRIZZLY	662	5	1	n/a	n/a	n/a	n/a	n/a
3343171	RECOG_TARGET	n/a	LTP231	ltpFR	2	2	0	PIANO	1057	1	0	n/a	n/a	n/a	n/a	n/a
3344771	RECOG_RESP	n/a	LTP231	ltpFR	2	2	0	PIANO	1057	n/a	0	n/a	n/a	n/a	n/a	n/a
3346393	RECOG_CONF	n/a	LTP231	ltpFR	2	2	0	PIANO	1057	1	0	n/a	n/a	n/a	n/a	n/a
3348313	RECOG_TARGET	n/a	LTP231	ltpFR	2	2	1	CARTON	251	1	0	n/a	n/a	n/a	n/a	n/a
3349857	RECOG_RESP	n/a	LTP231	ltpFR	2	2	1	CARTON	251	n/a	0	n/a	n/a	n/a	n/a	n/a
3351034	RECOG_CONF	n/a	LTP231	ltpFR	2	2	1	CARTON	251	1	0	n/a	n/a	n/a	n/a	n/a
3352889	RECOG_TARGET	n/a	LTP231	ltpFR	2	2	0	TURNIP	1521	5	0	n/a	n/a	n/a	n/a	n/a
3354184	RECOG_RESP	n/a	LTP231	ltpFR	2	2	0	TURNIP	1521	n/a	0	n/a	n/a	n/a	n/a	n/a
3355495	RECOG_CONF	n/a	LTP231	ltpFR	2	2	0	TURNIP	1521	5	0	n/a	n/a	n/a	n/a	n/a
3357465	RECOG_LURE	n/a	LTP231	ltpFR	2	2	n/a	HIGHWAY	707	2	n/a	n/a	n/a	n/a	n/a	n/a
3359002	RECOG_RESP	n/a	LTP231	ltpFR	2	2	n/a	HIGHWAY	707	n/a	n/a	n/a	n/a	n/a	n/a	n/a
3360041	RECOG_CONF	n/a	LTP231	ltpFR	2	2	n/a	HIGHWAY	707	2	n/a	n/a	n/a	n/a	n/a	n/a
3361692	RECOG_LURE	n/a	LTP231	ltpFR	2	2	n/a	COUCH	386	4	n/a	n/a	n/a	n/a	n/a	n/a
3363702	RECOG_RESP	n/a	LTP231	ltpFR	2	2	n/a	COUCH	386	n/a	n/a	n/a	n/a	n/a	n/a	n/a
3365223	RECOG_CONF	n/a	LTP231	ltpFR	2	2	n/a	COUCH	386	4	n/a	n/a	n/a	n/a	n/a	n/a
3367435	RECOG_LURE	n/a	LTP231	ltpFR	2	2	n/a	CALF	222	5	n/a	n/a	n/a	n/a	n/a	n/a
3368336	RECOG_RESP	n/a	LTP231	ltpFR	2	2	n/a	CALF	222	n/a	n/a	n/a	n/a	n/a	n/a	n/a
3369587	RECOG_CONF	n/a	LTP231	ltpFR	2	2	n/a	CALF	222	5	n/a	n/a	n/a	n/a	n/a	n/a
3371794	RECOG_TARGET	n/a	LTP231	ltpFR	2	2	1	CHILD	299	5	1	n/a	n/a	n/a	n/a	n/a
3372957	RECOG_RESP	n/a	LTP231	ltpFR	2	2	1	CHILD	299	n/a	1	n/a	n/a	n/a	n/a	n/a
3374203	RECOG_CONF	n/a	LTP231	ltpFR	2	2	1	CHILD	299	5	1	n/a	n/a	n/a	n/a	n/a
3375888	RECOG_TARGET	n/a	LTP231	ltpFR	2	2	0	BUNNY	198	2	0	n/a	n/a	n/a	n/a	n/a
3376755	RECOG_RESP	n/a	LTP231	ltpFR	2	2	0	BUNNY	198	n/a	0	n/a	n/a	n/a	n/a	n/a
3377982	RECOG_CONF	n/a	LTP231	ltpFR	2	2	0	BUNNY	198	2	0	n/a	n/a	n/a	n/a	n/a
3379832	RECOG_TARGET	n/a	LTP231	ltpFR	2	2	1	LITERATURE	831	4	0	n/a	n/a	n/a	n/a	n/a
3381766	RECOG_RESP	n/a	LTP231	ltpFR	2	2	1	LITERATURE	831	n/a	0	n/a	n/a	n/a	n/a	n/a
3383561	RECOG_CONF	n/a	LTP231	ltpFR	2	2	1	LITERATURE	831	4	0	n/a	n/a	n/a	n/a	n/a
3385673	RECOG_TARGET	n/a	LTP231	ltpFR	2	2	0	STRANGER	1389	5	1	n/a	n/a	n/a	n/a	n/a
3387193	RECOG_RESP	n/a	LTP231	ltpFR	2	2	0	STRANGER	1389	n/a	1	n/a	n/a	n/a	n/a	n/a
3388916	RECOG_CONF	n/a	LTP231	ltpFR	2	2	0	STRANGER	1389	5	1	n/a	n/a	n/a	n/a	n/a
3390865	RECOG_LURE	n/a	LTP231	ltpFR	2	2	n/a	MOUNTAIN	924	2	n/a	n/a	n/a	n/a	n/a	n/a
3392022	RECOG_RESP	n/a	LTP231	ltpFR	2	2	n/a	MOUNTAIN	924	n/a	n/a	n/a	n/a	n/a	n/a	n/a
3393505	RECOG_CONF	n/a	LTP231	ltpFR	2	2	n/a	MOUNTAIN	924	2	n/a	n/a	n/a	n/a	n/a	n/a
3395260	RECOG_LURE	n/a	LTP231	ltpFR	2	2	n/a	POTTERY	1116	3	n/a	n/a	n/a	n/a	n/a	n/a
3396687	RECOG_RESP	n/a	LTP231	ltpFR	2	2	n/a	POTTERY	1116	n/a	n/a	n/a	n/a	n/a	n/a	n/a
3397979	RECOG_CONF	n/a	LTP231	ltpFR	2	2	n/a	POTTERY	1116	3	n/a	n/a	n/a	n/a	n/a	n/a
3406270	REC_START	n/a	LTP231	ltpFR	2	3	n/a	n/a	n/a	n/a	n/a	n/a	n/a	n/a	n/a	n/a
3406310	RECOG_TARGET	n/a	LTP231	ltpFR	2	3	0	RICE	1190	5	0	n/a	n/a	n/a	n/a	n/a
3407434	RECOG_RESP	n/a	LTP231	ltpFR	2	3	0	RICE	1190	n/a	0	n/a	n/a	n/a	n/a	n/a
3409067	RECOG_CONF	n/a	LTP231	ltpFR	2	3	0	RICE	1190	5	0	n/a	n/a	n/a	n/a	n/a
3410885	RECOG_TARGET	n/a	LTP231	ltpFR	2	3	1	TIDE	1465	2	0	n/a	n/a	n/a	n/a	n/a
3412847	RECOG_RESP	n/a	LTP231	ltpFR	2	3	1	TIDE	1465	n/a	0	n/a	n/a	n/a	n/a	n/a
3414274	RECOG_CONF	n/a	LTP231	ltpFR	2	3	1	TIDE	1465	2	0	n/a	n/a	n/a	n/a	n/a
3416112	RECOG_TARGET	n/a	LTP231	ltpFR	2	3	1	BEDROOM	111	3	0	n/a	n/a	n/a	n/a	n/a
3418227	RECOG_RESP	n/a	LTP231	ltpFR	2	3	1	BEDROOM	111	n/a	0	n/a	n/a	n/a	n/a	n/a
3419683	RECOG_CONF	n/a	LTP231	ltpFR	2	3	1	BEDROOM	111	3	0	n/a	n/a	n/a	n/a	n/a
3421736	RECOG_TARGET	n/a	LTP231	ltpFR	2	3	1	STAFF	1365	5	0	n/a	n/a	n/a	n/a	n/a
3422996	RECOG_RESP	n/a	LTP231	ltpFR	2	3	1	STAFF	1365	n/a	0	n/a	n/a	n/a	n/a	n/a
3424394	RECOG_CONF	n/a	LTP231	ltpFR	2	3	1	STAFF	1365	5	0	n/a	n/a	n/a	n/a	n/a
3426280	RECOG_TARGET	n/a	LTP231	ltpFR	2	3	0	GOAT	644	5	1	n/a	n/a	n/a	n/a	n/a
3427399	RECOG_RESP	n/a	LTP231	ltpFR	2	3	0	GOAT	644	n/a	1	n/a	n/a	n/a	n/a	n/a
3429352	RECOG_CONF	n/a	LTP231	ltpFR	2	3	0	GOAT	644	5	1	n/a	n/a	n/a	n/a	n/a
3432453	RECOG_TARGET	n/a	LTP231	ltpFR	2	3	-1	OBOE	969	5	-1	n/a	n/a	n/a	n/a	n/a
3433489	RECOG_RESP	n/a	LTP231	ltpFR	2	3	-1	OBOE	969	n/a	-1	n/a	n/a	n/a	n/a	n/a
3435859	RECOG_CONF	n/a	LTP231	ltpFR	2	3	-1	OBOE	969	5	-1	n/a	n/a	n/a	n/a	n/a
3438494	RECOG_LURE	n/a	LTP231	ltpFR	2	3	n/a	SEA	1259	3	n/a	n/a	n/a	n/a	n/a	n/a
3439992	RECOG_RESP	n/a	LTP231	ltpFR	2	3	n/a	SEA	1259	n/a	n/a	n/a	n/a	n/a	n/a	n/a
3441643	RECOG_CONF	n/a	LTP231	ltpFR	2	3	n/a	SEA	1259	3	n/a	n/a	n/a	n/a	n/a	n/a
3443819	RECOG_TARGET	n/a	LTP231	ltpFR	2	3	-1	GARLIC	624	5	-1	n/a	n/a	n/a	n/a	n/a
3445599	RECOG_RESP	n/a	LTP231	ltpFR	2	3	-1	GARLIC	624	n/a	-1	n/a	n/a	n/a	n/a	n/a
3447351	RECOG_CONF	n/a	LTP231	ltpFR	2	3	-1	GARLIC	624	5	-1	n/a	n/a	n/a	n/a	n/a
3449877	RECOG_TARGET	n/a	LTP231	ltpFR	2	3	0	BONE	148	5	0	n/a	n/a	n/a	n/a	n/a
3452579	RECOG_RESP	n/a	LTP231	ltpFR	2	3	0	BONE	148	n/a	0	n/a	n/a	n/a	n/a	n/a
3456801	RECOG_CONF	n/a	LTP231	ltpFR	2	3	0	BONE	148	5	0	n/a	n/a	n/a	n/a	n/a
3459779	RECOG_TARGET	n/a	LTP231	ltpFR	2	3	-1	WINGS	1614	5	-1	n/a	n/a	n/a	n/a	n/a
3460781	RECOG_RESP	n/a	LTP231	ltpFR	2	3	-1	WINGS	1614	n/a	-1	n/a	n/a	n/a	n/a	n/a
3463285	RECOG_CONF	n/a	LTP231	ltpFR	2	3	-1	WINGS	1614	5	-1	n/a	n/a	n/a	n/a	n/a
3465470	RECOG_LURE	n/a	LTP231	ltpFR	2	3	n/a	EGYPT	519	4	n/a	n/a	n/a	n/a	n/a	n/a
3471147	RECOG_RESP	n/a	LTP231	ltpFR	2	3	n/a	EGYPT	519	n/a	n/a	n/a	n/a	n/a	n/a	n/a
3472190	RECOG_CONF	n/a	LTP231	ltpFR	2	3	n/a	EGYPT	519	4	n/a	n/a	n/a	n/a	n/a	n/a
3474275	RECOG_TARGET	n/a	LTP231	ltpFR	2	3	0	NAPKIN	937	2	0	n/a	n/a	n/a	n/a	n/a
3475981	RECOG_RESP	n/a	LTP231	ltpFR	2	3	0	NAPKIN	937	n/a	0	n/a	n/a	n/a	n/a	n/a
3477227	RECOG_CONF	n/a	LTP231	ltpFR	2	3	0	NAPKIN	937	2	0	n/a	n/a	n/a	n/a	n/a
3479051	RECOG_TARGET	n/a	LTP231	ltpFR	2	3	1	PLASTER	1085	4	0	n/a	n/a	n/a	n/a	n/a
3480840	RECOG_RESP	n/a	LTP231	ltpFR	2	3	1	PLASTER	1085	n/a	0	n/a	n/a	n/a	n/a	n/a
3482741	RECOG_CONF	n/a	LTP231	ltpFR	2	3	1	PLASTER	1085	4	0	n/a	n/a	n/a	n/a	n/a
3485375	RECOG_TARGET	n/a	LTP231	ltpFR	2	3	0	VOLLEYBALL	1576	4	0	n/a	n/a	n/a	n/a	n/a
3486250	RECOG_RESP	n/a	LTP231	ltpFR	2	3	0	VOLLEYBALL	1576	n/a	0	n/a	n/a	n/a	n/a	n/a
3489136	RECOG_CONF	n/a	LTP231	ltpFR	2	3	0	VOLLEYBALL	1576	4	0	n/a	n/a	n/a	n/a	n/a
3491698	RECOG_TARGET	n/a	LTP231	ltpFR	2	3	0	PRESIDENT	1121	4	1	n/a	n/a	n/a	n/a	n/a
3492773	RECOG_RESP	n/a	LTP231	ltpFR	2	3	0	PRESIDENT	1121	n/a	1	n/a	n/a	n/a	n/a	n/a
3494307	RECOG_CONF	n/a	LTP231	ltpFR	2	3	0	PRESIDENT	1121	4	1	n/a	n/a	n/a	n/a	n/a
3496209	RECOG_TARGET	n/a	LTP231	ltpFR	2	3	0	OPERA	978	5	1	n/a	n/a	n/a	n/a	n/a
3497157	RECOG_RESP	n/a	LTP231	ltpFR	2	3	0	OPERA	978	n/a	1	n/a	n/a	n/a	n/a	n/a
3498635	RECOG_CONF	n/a	LTP231	ltpFR	2	3	0	OPERA	978	5	1	n/a	n/a	n/a	n/a	n/a
3501301	RECOG_TARGET	n/a	LTP231	ltpFR	2	3	0	BARRACUDA	90	5	0	n/a	n/a	n/a	n/a	n/a
3502349	RECOG_RESP	n/a	LTP231	ltpFR	2	3	0	BARRACUDA	90	n/a	0	n/a	n/a	n/a	n/a	n/a
3503933	RECOG_CONF	n/a	LTP231	ltpFR	2	3	0	BARRACUDA	90	5	0	n/a	n/a	n/a	n/a	n/a
3505894	RECOG_TARGET	n/a	LTP231	ltpFR	2	3	0	APE	31	5	1	n/a	n/a	n/a	n/a	n/a
3506756	RECOG_RESP	n/a	LTP231	ltpFR	2	3	0	APE	31	n/a	1	n/a	n/a	n/a	n/a	n/a
3508562	RECOG_CONF	n/a	LTP231	ltpFR	2	3	0	APE	31	5	1	n/a	n/a	n/a	n/a	n/a
3511452	RECOG_TARGET	n/a	LTP231	ltpFR	2	3	-1	WILDERNESS	1610	5	-1	n/a	n/a	n/a	n/a	n/a
3512236	RECOG_RESP	n/a	LTP231	ltpFR	2	3	-1	WILDERNESS	1610	n/a	-1	n/a	n/a	n/a	n/a	n/a
3514811	RECOG_CONF	n/a	LTP231	ltpFR	2	3	-1	WILDERNESS	1610	5	-1	n/a	n/a	n/a	n/a	n/a
3517211	RECOG_TARGET	n/a	LTP231	ltpFR	2	3	0	HANDKERCHIEF	686	5	0	n/a	n/a	n/a	n/a	n/a
3525625	RECOG_RESP	n/a	LTP231	ltpFR	2	3	0	HANDKERCHIEF	686	n/a	0	n/a	n/a	n/a	n/a	n/a
3527888	RECOG_CONF	n/a	LTP231	ltpFR	2	3	0	HANDKERCHIEF	686	5	0	n/a	n/a	n/a	n/a	n/a
3534108	REC_START	n/a	LTP231	ltpFR	2	4	n/a	n/a	n/a	n/a	n/a	n/a	n/a	n/a	n/a	n/a
3534136	RECOG_LURE	n/a	LTP231	ltpFR	2	4	n/a	MOON	914	5	n/a	n/a	n/a	n/a	n/a	n/a
3535388	RECOG_RESP	n/a	LTP231	ltpFR	2	4	n/a	MOON	914	n/a	n/a	n/a	n/a	n/a	n/a	n/a
3536283	RECOG_CONF	n/a	LTP231	ltpFR	2	4	n/a	MOON	914	5	n/a	n/a	n/a	n/a	n/a	n/a
3538230	RECOG_TARGET	n/a	LTP231	ltpFR	2	4	0	CLERK	321	4	1	n/a	n/a	n/a	n/a	n/a
3541929	RECOG_RESP	n/a	LTP231	ltpFR	2	4	0	CLERK	321	n/a	1	n/a	n/a	n/a	n/a	n/a
3542945	RECOG_CONF	n/a	LTP231	ltpFR	2	4	0	CLERK	321	4	1	n/a	n/a	n/a	n/a	n/a
3544785	RECOG_TARGET	n/a	LTP231	ltpFR	2	4	1	BEE	112	5	1	n/a	n/a	n/a	n/a	n/a
3545959	RECOG_RESP	n/a	LTP231	ltpFR	2	4	1	BEE	112	n/a	1	n/a	n/a	n/a	n/a	n/a
3546831	RECOG_CONF	n/a	LTP231	ltpFR	2	4	1	BEE	112	5	1	n/a	n/a	n/a	n/a	n/a
3548829	RECOG_LURE	n/a	LTP231	ltpFR	2	4	n/a	SCISSORS	1250	4	n/a	n/a	n/a	n/a	n/a	n/a
3550237	RECOG_RESP	n/a	LTP231	ltpFR	2	4	n/a	SCISSORS	1250	n/a	n/a	n/a	n/a	n/a	n/a	n/a
3551593	RECOG_CONF	n/a	LTP231	ltpFR	2	4	n/a	SCISSORS	1250	4	n/a	n/a	n/a	n/a	n/a	n/a
3553589	RECOG_TARGET	n/a	LTP231	ltpFR	2	4	1	ANIMAL	23	5	1	n/a	n/a	n/a	n/a	n/a
3554517	RECOG_RESP	n/a	LTP231	ltpFR	2	4	1	ANIMAL	23	n/a	1	n/a	n/a	n/a	n/a	n/a
3555813	RECOG_CONF	n/a	LTP231	ltpFR	2	4	1	ANIMAL	23	5	1	n/a	n/a	n/a	n/a	n/a
3557583	RECOG_TARGET	n/a	LTP231	ltpFR	2	4	1	ALLEY	15	2	0	n/a	n/a	n/a	n/a	n/a
3559281	RECOG_RESP	n/a	LTP231	ltpFR	2	4	1	ALLEY	15	n/a	0	n/a	n/a	n/a	n/a	n/a
3560732	RECOG_CONF	n/a	LTP231	ltpFR	2	4	1	ALLEY	15	2	0	n/a	n/a	n/a	n/a	n/a
3562775	RECOG_TARGET	n/a	LTP231	ltpFR	2	4	0	COOKBOOK	373	5	0	n/a	n/a	n/a	n/a	n/a
3564264	RECOG_RESP	n/a	LTP231	ltpFR	2	4	0	COOKBOOK	373	n/a	0	n/a	n/a	n/a	n/a	n/a
3566020	RECOG_CONF	n/a	LTP231	ltpFR	2	4	0	COOKBOOK	373	5	0	n/a	n/a	n/a	n/a	n/a
3568450	RECOG_TARGET	n/a	LTP231	ltpFR	2	4	-1	JEWEL	757	5	-1	n/a	n/a	n/a	n/a	n/a
3576666	RECOG_RESP	n/a	LTP231	ltpFR	2	4	-1	JEWEL	757	n/a	-1	n/a	n/a	n/a	n/a	n/a
3577880	RECOG_CONF	n/a	LTP231	ltpFR	2	4	-1	JEWEL	757	5	-1	n/a	n/a	n/a	n/a	n/a
3580250	RECOG_TARGET	n/a	LTP231	ltpFR	2	4	1	JEEP	753	5	0	n/a	n/a	n/a	n/a	n/a
3583433	RECOG_RESP	n/a	LTP231	ltpFR	2	4	1	JEEP	753	n/a	0	n/a	n/a	n/a	n/a	n/a
3584588	RECOG_CONF	n/a	LTP231	ltpFR	2	4	1	JEEP	753	5	0	n/a	n/a	n/a	n/a	n/a
3586689	RECOG_TARGET	n/a	LTP231	ltpFR	2	4	1	RECEPTIONIST	1174	2	1	n/a	n/a	n/a	n/a	n/a
3587551	RECOG_RESP_VV	n/a	LTP231	ltpFR	2	4	1	RECEPTIONIST	1174	n/a	1	n/a	n/a	n/a	n/a	n/a
3589189	RECOG_RESP	n/a	LTP231	ltpFR	2	4	1	RECEPTIONIST	1174	n/a	1	n/a	n/a	n/a	n/a	n/a
3590684	RECOG_CONF	n/a	LTP231	ltpFR	2	4	1	RECEPTIONIST	1174	2	1	n/a	n/a	n/a	n/a	n/a
3593729	RECOG_TARGET	n/a	LTP231	ltpFR	2	4	-1	SECRETARY	1265	5	-1	n/a	n/a	n/a	n/a	n/a
3596192	RECOG_RESP	n/a	LTP231	ltpFR	2	4	-1	SECRETARY	1265	n/a	-1	n/a	n/a	n/a	n/a	n/a
3597733	RECOG_CONF	n/a	LTP231	ltpFR	2	4	-1	SECRETARY	1265	5	-1	n/a	n/a	n/a	n/a	n/a
3600469	RECOG_TARGET	n/a	LTP231	ltpFR	2	4	1	RESTAURANT	1187	5	0	n/a	n/a	n/a	n/a	n/a
3603163	RECOG_RESP	n/a	LTP231	ltpFR	2	4	1	RESTAURANT	1187	n/a	0	n/a	n/a	n/a	n/a	n/a
3604893	RECOG_CONF	n/a	LTP231	ltpFR	2	4	1	RESTAURANT	1187	5	0	n/a	n/a	n/a	n/a	n/a
3607260	RECOG_TARGET	n/a	LTP231	ltpFR	2	4	1	STALLION	1369	5	1	n/a	n/a	n/a	n/a	n/a
3608457	RECOG_RESP	n/a	LTP231	ltpFR	2	4	1	STALLION	1369	n/a	1	n/a	n/a	n/a	n/a	n/a
3610020	RECOG_CONF	n/a	LTP231	ltpFR	2	4	1	STALLION	1369	5	1	n/a	n/a	n/a	n/a	n/a
3612019	RECOG_TARGET	n/a	LTP231	ltpFR	2	4	0	PRINTER	1126	5	0	n/a	n/a	n/a	n/a	n/a
3612938	RECOG_RESP	n/a	LTP231	ltpFR	2	4	0	PRINTER	1126	n/a	0	n/a	n/a	n/a	n/a	n/a
3614342	RECOG_CONF	n/a	LTP231	ltpFR	2	4	0	PRINTER	1126	5	0	n/a	n/a	n/a	n/a	n/a
3616495	RECOG_TARGET	n/a	LTP231	ltpFR	2	4	1	TRUMPET	1513	3	0	n/a	n/a	n/a	n/a	n/a
3619051	RECOG_RESP	n/a	LTP231	ltpFR	2	4	1	TRUMPET	1513	n/a	0	n/a	n/a	n/a	n/a	n/a
3620174	RECOG_CONF	n/a	LTP231	ltpFR	2	4	1	TRUMPET	1513	3	0	n/a	n/a	n/a	n/a	n/a
3622071	RECOG_TARGET	n/a	LTP231	ltpFR	2	4	-1	SALESMAN	1225	5	-1	n/a	n/a	n/a	n/a	n/a
3624057	RECOG_RESP	n/a	LTP231	ltpFR	2	4	-1	SALESMAN	1225	n/a	-1	n/a	n/a	n/a	n/a	n/a
3625507	RECOG_CONF	n/a	LTP231	ltpFR	2	4	-1	SALESMAN	1225	5	-1	n/a	n/a	n/a	n/a	n/a
3627645	RECOG_TARGET	n/a	LTP231	ltpFR	2	4	1	PUPPY	1144	5	1	n/a	n/a	n/a	n/a	n/a
3628563	RECOG_RESP	n/a	LTP231	ltpFR	2	4	1	PUPPY	1144	n/a	1	n/a	n/a	n/a	n/a	n/a
3629885	RECOG_CONF	n/a	LTP231	ltpFR	2	4	1	PUPPY	1144	5	1	n/a	n/a	n/a	n/a	n/a
3631672	RECOG_TARGET	n/a	LTP231	ltpFR	2	4	-1	TRAIN	1494	5	-1	n/a	n/a	n/a	n/a	n/a
3636251	RECOG_RESP	n/a	LTP231	ltpFR	2	4	-1	TRAIN	1494	n/a	-1	n/a	n/a	n/a	n/a	n/a
3637608	RECOG_CONF	n/a	LTP231	ltpFR	2	4	-1	TRAIN	1494	5	-1	n/a	n/a	n/a	n/a	n/a
3639577	RECOG_TARGET	n/a	LTP231	ltpFR	2	4	-1	CELLAR	267	5	-1	n/a	n/a	n/a	n/a	n/a
3640688	RECOG_RESP	n/a	LTP231	ltpFR	2	4	-1	CELLAR	267	n/a	-1	n/a	n/a	n/a	n/a	n/a
3642717	RECOG_CONF	n/a	LTP231	ltpFR	2	4	-1	CELLAR	267	5	-1	n/a	n/a	n/a	n/a	n/a
3644603	RECOG_LURE	n/a	LTP231	ltpFR	2	4	n/a	PHYSICIAN	1056	2	n/a	n/a	n/a	n/a	n/a	n/a
3646328	RECOG_RESP	n/a	LTP231	ltpFR	2	4	n/a	PHYSICIAN	1056	n/a	n/a	n/a	n/a	n/a	n/a	n/a
3647391	RECOG_CONF	n/a	LTP231	ltpFR	2	4	n/a	PHYSICIAN	1056	2	n/a	n/a	n/a	n/a	n/a	n/a
3651220	REC_START	n/a	LTP231	ltpFR	2	5	n/a	n/a	n/a	n/a	n/a	n/a	n/a	n/a	n/a	n/a
3651261	RECOG_TARGET	n/a	LTP231	ltpFR	2	5	-1	BUFFALO	186	5	-1	n/a	n/a	n/a	n/a	n/a
3652483	RECOG_RESP	n/a	LTP231	ltpFR	2	5	-1	BUFFALO	186	n/a	-1	n/a	n/a	n/a	n/a	n/a
3653470	RECOG_CONF	n/a	LTP231	ltpFR	2	5	-1	BUFFALO	186	5	-1	n/a	n/a	n/a	n/a	n/a
3655321	RECOG_TARGET	n/a	LTP231	ltpFR	2	5	-1	SHOP	1290	5	-1	n/a	n/a	n/a	n/a	n/a
3656132	RECOG_RESP	n/a	LTP231	ltpFR	2	5	-1	SHOP	1290	n/a	-1	n/a	n/a	n/a	n/a	n/a
3657072	RECOG_CONF	n/a	LTP231	ltpFR	2	5	-1	SHOP	1290	5	-1	n/a	n/a	n/a	n/a	n/a
3658848	RECOG_TARGET	n/a	LTP231	ltpFR	2	5	-1	MARS	873	5	-1	n/a	n/a	n/a	n/a	n/a
3659505	RECOG_RESP	n/a	LTP231	ltpFR	2	5	-1	MARS	873	n/a	-1	n/a	n/a	n/a	n/a	n/a
3660616	RECOG_CONF	n/a	LTP231	ltpFR	2	5	-1	MARS	873	5	-1	n/a	n/a	n/a	n/a	n/a
3662427	RECOG_TARGET	n/a	LTP231	ltpFR	2	5	-1	TAG	1429	5	-1	n/a	n/a	n/a	n/a	n/a
3663228	RECOG_RESP	n/a	LTP231	ltpFR	2	5	-1	TAG	1429	n/a	-1	n/a	n/a	n/a	n/a	n/a
3664445	RECOG_CONF	n/a	LTP231	ltpFR	2	5	-1	TAG	1429	5	-1	n/a	n/a	n/a	n/a	n/a
3666205	RECOG_TARGET	n/a	LTP231	ltpFR	2	5	1	CHAMPION	279	5	1	n/a	n/a	n/a	n/a	n/a
3666968	RECOG_RESP	n/a	LTP231	ltpFR	2	5	1	CHAMPION	279	n/a	1	n/a	n/a	n/a	n/a	n/a
3668022	RECOG_CONF	n/a	LTP231	ltpFR	2	5	1	CHAMPION	279	5	1	n/a	n/a	n/a	n/a	n/a
3669865	RECOG_TARGET	n/a	LTP231	ltpFR	2	5	-1	SANDWICH	1232	5	-1	n/a	n/a	n/a	n/a	n/a
3671239	RECOG_RESP	n/a	LTP231	ltpFR	2	5	-1	SANDWICH	1232	n/a	-1	n/a	n/a	n/a	n/a	n/a
3672244	RECOG_CONF	n/a	LTP231	ltpFR	2	5	-1	SANDWICH	1232	5	-1	n/a	n/a	n/a	n/a	n/a
3674110	RECOG_LURE	n/a	LTP231	ltpFR	2	5	n/a	ELM	527	4	n/a	n/a	n/a	n/a	n/a	n/a
3675170	RECOG_RESP	n/a	LTP231	ltpFR	2	5	n/a	ELM	527	n/a	n/a	n/a	n/a	n/a	n/a	n/a
3676787	RECOG_CONF	n/a	LTP231	ltpFR	2	5	n/a	ELM	527	4	n/a	n/a	n/a	n/a	n/a	n/a
3678602	RECOG_TARGET	n/a	LTP231	ltpFR	2	5	0	WAREHOUSE	1588	5	1	n/a	n/a	n/a	n/a	n/a
3679810	RECOG_RESP	n/a	LTP231	ltpFR	2	5	0	WAREHOUSE	1588	n/a	1	n/a	n/a	n/a	n/a	n/a
3680876	RECOG_CONF	n/a	LTP231	ltpFR	2	5	0	WAREHOUSE	1588	5	1	n/a	n/a	n/a	n/a	n/a
3682946	RECOG_TARGET	n/a	LTP231	ltpFR	2	5	1	PAPER	1011	5	0	n/a	n/a	n/a	n/a	n/a
3683671	RECOG_RESP	n/a	LTP231	ltpFR	2	5	1	PAPER	1011	n/a	0	n/a	n/a	n/a	n/a	n/a
3685108	RECOG_CONF	n/a	LTP231	ltpFR	2	5	1	PAPER	1011	5	0	n/a	n/a	n/a	n/a	n/a
3687041	RECOG_TARGET	n/a	LTP231	ltpFR	2	5	1	THRONE	1461	2	0	n/a	n/a	n/a	n/a	n/a
3688091	RECOG_RESP	n/a	LTP231	ltpFR	2	5	1	THRONE	1461	n/a	0	n/a	n/a	n/a	n/a	n/a
3689327	RECOG_CONF	n/a	LTP231	ltpFR	2	5	1	THRONE	1461	2	0	n/a	n/a	n/a	n/a	n/a
3691101	RECOG_TARGET	n/a	LTP231	ltpFR	2	5	1	TOILET	1475	3	0	n/a	n/a	n/a	n/a	n/a
3692162	RECOG_RESP	n/a	LTP231	ltpFR	2	5	1	TOILET	1475	n/a	0	n/a	n/a	n/a	n/a	n/a
3693544	RECOG_CONF	n/a	LTP231	ltpFR	2	5	1	TOILET	1475	3	0	n/a	n/a	n/a	n/a	n/a
3695312	RECOG_TARGET	n/a	LTP231	ltpFR	2	5	1	BAND	78	5	0	n/a	n/a	n/a	n/a	n/a
3696781	RECOG_RESP	n/a	LTP231	ltpFR	2	5	1	BAND	78	n/a	0	n/a	n/a	n/a	n/a	n/a
3698388	RECOG_CONF	n/a	LTP231	ltpFR	2	5	1	BAND	78	5	0	n/a	n/a	n/a	n/a	n/a
3700619	RECOG_LURE	n/a	LTP231	ltpFR	2	5	n/a	VIOLA	1570	5	n/a	n/a	n/a	n/a	n/a	n/a
3701661	RECOG_RESP_VV	n/a	LTP231	ltpFR	2	5	n/a	VIOLA	1570	n/a	n/a	n/a	n/a	n/a	n/a	n/a
3703695	RECOG_RESP	n/a	LTP231	ltpFR	2	5	n/a	VIOLA	1570	n/a	n/a	n/a	n/a	n/a	n/a	n/a
3705076	RECOG_CONF	n/a	LTP231	ltpFR	2	5	n/a	VIOLA	1570	5	n/a	n/a	n/a	n/a	n/a	n/a
3707194	RECOG_TARGET	n/a	LTP231	ltpFR	2	5	-1	BUN	197	5	-1	n/a	n/a	n/a	n/a	n/a
3708074	RECOG_RESP	n/a	LTP231	ltpFR	2	5	-1	BUN	197	n/a	-1	n/a	n/a	n/a	n/a	n/a
3709372	RECOG_CONF	n/a	LTP231	ltpFR	2	5	-1	BUN	197	5	-1	n/a	n/a	n/a	n/a	n/a
3711520	RECOG_LURE	n/a	LTP231	ltpFR	2	5	n/a	STEW	1380	5	n/a	n/a	n/a	n/a	n/a	n/a
3713443	RECOG_RESP	n/a	LTP231	ltpFR	2	5	n/a	STEW	1380	n/a	n/a	n/a	n/a	n/a	n/a	n/a
3714443	RECOG_CONF	n/a	LTP231	ltpFR	2	5	n/a	STEW	1380	5	n/a	n/a	n/a	n/a	n/a	n/a
3716430	RECOG_LURE	n/a	LTP231	ltpFR	2	5	n/a	CHECKERS	285	5	n/a	n/a	n/a	n/a	n/a	n/a
3717379	RECOG_RESP	n/a	LTP231	ltpFR	2	5	n/a	CHECKERS	285	n/a	n/a	n/a	n/a	n/a	n/a	n/a
3718268	RECOG_CONF	n/a	LTP231	ltpFR	2	5	n/a	CHECKERS	285	5	n/a	n/a	n/a	n/a	n/a	n/a
3720258	RECOG_TARGET	n/a	LTP231	ltpFR	2	5	-1	PUB	1135	5	-1	n/a	n/a	n/a	n/a	n/a
3721126	RECOG_RESP	n/a	LTP231	ltpFR	2	5	-1	PUB	1135	n/a	-1	n/a	n/a	n/a	n/a	n/a
3722174	RECOG_CONF	n/a	LTP231	ltpFR	2	5	-1	PUB	1135	5	-1	n/a	n/a	n/a	n/a	n/a
3724019	RECOG_TARGET	n/a	LTP231	ltpFR	2	5	-1	DUNE	506	5	-1	n/a	n/a	n/a	n/a	n/a
3724922	RECOG_RESP	n/a	LTP231	ltpFR	2	5	-1	DUNE	506	n/a	-1	n/a	n/a	n/a	n/a	n/a
3726105	RECOG_CONF	n/a	LTP231	ltpFR	2	5	-1	DUNE	506	5	-1	n/a	n/a	n/a	n/a	n/a
3728129	RECOG_TARGET	n/a	LTP231	ltpFR	2	5	1	SPRINKLE	1359	5	0	n/a	n/a	n/a	n/a	n/a
3728995	RECOG_RESP	n/a	LTP231	ltpFR	2	5	1	SPRINKLE	1359	n/a	0	n/a	n/a	n/a	n/a	n/a
3730036	RECOG_CONF	n/a	LTP231	ltpFR	2	5	1	SPRINKLE	1359	5	0	n/a	n/a	n/a	n/a	n/a
3732023	RECOG_TARGET	n/a	LTP231	ltpFR	2	5	-1	CABOOSE	214	5	-1	n/a	n/a	n/a	n/a	n/a
3732924	RECOG_RESP	n/a	LTP231	ltpFR	2	5	-1	CABOOSE	214	n/a	-1	n/a	n/a	n/a	n/a	n/a
3734216	RECOG_CONF	n/a	LTP231	ltpFR	2	5	-1	CABOOSE	214	5	-1	n/a	n/a	n/a	n/a	n/a
3738920	REC_START	n/a	LTP231	ltpFR	2	6	n/a	n/a	n/a	n/a	n/a	n/a	n/a	n/a	n/a	n/a
3738962	RECOG_TARGET	n/a	LTP231	ltpFR	2	6	0	BASKET	95	5	1	n/a	n/a	n/a	n/a	n/a
3741828	RECOG_RESP	n/a	LTP231	ltpFR	2	6	0	BASKET	95	n/a	1	n/a	n/a	n/a	n/a	n/a
3742946	RECOG_CONF	n/a	LTP231	ltpFR	2	6	0	BASKET	95	5	1	n/a	n/a	n/a	n/a	n/a
3744970	RECOG_LURE	n/a	LTP231	ltpFR	2	6	n/a	TUBA	1515	5	n/a	n/a	n/a	n/a	n/a	n/a
3746747	RECOG_RESP	n/a	LTP231	ltpFR	2	6	n/a	TUBA	1515	n/a	n/a	n/a	n/a	n/a	n/a	n/a
3748762	RECOG_CONF	n/a	LTP231	ltpFR	2	6	n/a	TUBA	1515	5	n/a	n/a	n/a	n/a	n/a	n/a
3751261	RECOG_TARGET	n/a	LTP231	ltpFR	2	6	1	FORT	595	5	0	n/a	n/a	n/a	n/a	n/a
3752842	RECOG_RESP	n/a	LTP231	ltpFR	2	6	1	FORT	595	n/a	0	n/a	n/a	n/a	n/a	n/a
3754754	RECOG_CONF	n/a	LTP231	ltpFR	2	6	1	FORT	595	5	0	n/a	n/a	n/a	n/a	n/a
3757634	RECOG_TARGET	n/a	LTP231	ltpFR	2	6	1	THIMBLE	1458	5	0	n/a	n/a	n/a	n/a	n/a
3758442	RECOG_RESP	n/a	LTP231	ltpFR	2	6	1	THIMBLE	1458	n/a	0	n/a	n/a	n/a	n/a	n/a
3760336	RECOG_CONF	n/a	LTP231	ltpFR	2	6	1	THIMBLE	1458	5	0	n/a	n/a	n/a	n/a	n/a
3762643	RECOG_TARGET	n/a	LTP231	ltpFR	2	6	0	CAULIFLOWER	262	5	0	n/a	n/a	n/a	n/a	n/a
3763391	RECOG_RESP	n/a	LTP231	ltpFR	2	6	0	CAULIFLOWER	262	n/a	0	n/a	n/a	n/a	n/a	n/a
3765288	RECOG_CONF	n/a	LTP231	ltpFR	2	6	0	CAULIFLOWER	262	5	0	n/a	n/a	n/a	n/a	n/a
3767636	RECOG_TARGET	n/a	LTP231	ltpFR	2	6	1	COW	393	5	1	n/a	n/a	n/a	n/a	n/a
3768397	RECOG_RESP	n/a	LTP231	ltpFR	2	6	1	COW	393	n/a	1	n/a	n/a	n/a	n/a	n/a
3770064	RECOG_CONF	n/a	LTP231	ltpFR	2	6	1	COW	393	5	1	n/a	n/a	n/a	n/a	n/a
3772263	RECOG_TARGET	n/a	LTP231	ltpFR	2	6	-1	LIPSTICK	829	5	-1	n/a	n/a	n/a	n/a	n/a
3773603	RECOG_RESP	n/a	LTP231	ltpFR	2	6	-1	LIPSTICK	829	n/a	-1	n/a	n/a	n/a	n/a	n/a
3774963	RECOG_CONF	n/a	LTP231	ltpFR	2	6	-1	LIPSTICK	829	5	-1	n/a	n/a	n/a	n/a	n/a
3776822	RECOG_TARGET	n/a	LTP231	ltpFR	2	6	-1	ASSISTANT	48	5	-1	n/a	n/a	n/a	n/a	n/a
3777690	RECOG_RESP	n/a	LTP231	ltpFR	2	6	-1	ASSISTANT	48	n/a	-1	n/a	n/a	n/a	n/a	n/a
3779193	RECOG_CONF	n/a	LTP231	ltpFR	2	6	-1	ASSISTANT	48	5	-1	n/a	n/a	n/a	n/a	n/a
3781217	RECOG_TARGET	n/a	LTP231	ltpFR	2	6	1	SHINGLE	1285	5	0	n/a	n/a	n/a	n/a	n/a
3781989	RECOG_RESP	n/a	LTP231	ltpFR	2	6	1	SHINGLE	1285	n/a	0	n/a	n/a	n/a	n/a	n/a
3783454	RECOG_CONF	n/a	LTP231	ltpFR	2	6	1	SHINGLE	1285	5	0	n/a	n/a	n/a	n/a	n/a
3785642	RECOG_LURE	n/a	LTP231	ltpFR	2	6	n/a	GYMNAST	675	5	n/a	n/a	n/a	n/a	n/a	n/a
3786717	RECOG_RESP	n/a	LTP231	ltpFR	2	6	n/a	GYMNAST	675	n/a	n/a	n/a	n/a	n/a	n/a	n/a
3787892	RECOG_CONF	n/a	LTP231	ltpFR	2	6	n/a	GYMNAST	675	5	n/a	n/a	n/a	n/a	n/a	n/a
3790220	RECOG_TARGET	n/a	LTP231	ltpFR	2	6	1	YARN	1631	5	0	n/a	n/a	n/a	n/a	n/a
3791220	RECOG_RESP	n/a	LTP231	ltpFR	2	6	1	YARN	1631	n/a	0	n/a	n/a	n/a	n/a	n/a
3792593	RECOG_CONF	n/a	LTP231	ltpFR	2	6	1	YARN	1631	5	0	n/a	n/a	n/a	n/a	n/a
3794762	RECOG_TARGET	n/a	LTP231	ltpFR	2	6	0	MATTRESS	879	5	1	n/a	n/a	n/a	n/a	n/a
3795863	RECOG_RESP	n/a	LTP231	ltpFR	2	6	0	MATTRESS	879	n/a	1	n/a	n/a	n/a	n/a	n/a
3797300	RECOG_CONF	n/a	LTP231	ltpFR	2	6	0	MATTRESS	879	5	1	n/a	n/a	n/a	n/a	n/a
3799788	RECOG_TARGET	n/a	LTP231	ltpFR	2	6	0	RELISH	1183	1	0	n/a	n/a	n/a	n/a	n/a
3800791	RECOG_RESP	n/a	LTP231	ltpFR	2	6	0	RELISH	1183	n/a	0	n/a	n/a	n/a	n/a	n/a
3804922	RECOG_CONF	n/a	LTP231	ltpFR	2	6	0	RELISH	1183	1	0	n/a	n/a	n/a	n/a	n/a
3806761	RECOG_TARGET	n/a	LTP231	ltpFR	2	6	0	LODGE	839	5	1	n/a	n/a	n/a	n/a	n/a
3808095	RECOG_RESP	n/a	LTP231	ltpFR	2	6	0	LODGE	839	n/a	1	n/a	n/a	n/a	n/a	n/a
3809345	RECOG_CONF	n/a	LTP231	ltpFR	2	6	0	LODGE	839	5	1	n/a	n/a	n/a	n/a	n/a
3810938	RECOG_TARGET	n/a	LTP231	ltpFR	2	6	1	TICK	1463	5	1	n/a	n/a	n/a	n/a	n/a
3812298	RECOG_RESP	n/a	LTP231	ltpFR	2	6	1	TICK	1463	n/a	1	n/a	n/a	n/a	n/a	n/a
3813605	RECOG_CONF	n/a	LTP231	ltpFR	2	6	1	TICK	1463	5	1	n/a	n/a	n/a	n/a	n/a
3815432	RECOG_TARGET	n/a	LTP231	ltpFR	2	6	0	PHOTO	1055	1	0	n/a	n/a	n/a	n/a	n/a
3820467	RECOG_RESP	n/a	LTP231	ltpFR	2	6	0	PHOTO	1055	n/a	0	n/a	n/a	n/a	n/a	n/a
3822101	RECOG_CONF	n/a	LTP231	ltpFR	2	6	0	PHOTO	1055	1	0	n/a	n/a	n/a	n/a	n/a
3824269	RECOG_TARGET	n/a	LTP231	ltpFR	2	6	0	CAB	209	1	0	n/a	n/a	n/a	n/a	n/a
3825468	RECOG_RESP	n/a	LTP231	ltpFR	2	6	0	CAB	209	n/a	0	n/a	n/a	n/a	n/a	n/a
3827454	RECOG_CONF	n/a	LTP231	ltpFR	2	6	0	CAB	209	1	0	n/a	n/a	n/a	n/a	n/a
3829395	RECOG_TARGET	n/a	LTP231	ltpFR	2	6	1	WINNER	1615	4	1	n/a	n/a	n/a	n/a	n/a
3831270	RECOG_RESP	n/a	LTP231	ltpFR	2	6	1	WINNER	1615	n/a	1	n/a	n/a	n/a	n/a	n/a
3832373	RECOG_CONF	n/a	LTP231	ltpFR	2	6	1	WINNER	1615	4	1	n/a	n/a	n/a	n/a	n/a
3833854	RECOG_TARGET	n/a	LTP231	ltpFR	2	6	1	BOUILLON	154	4	0	n/a	n/a	n/a	n/a	n/a
3834670	RECOG_RESP	n/a	LTP231	ltpFR	2	6	1	BOUILLON	154	n/a	0	n/a	n/a	n/a	n/a	n/a
3835904	RECOG_CONF	n/a	LTP231	ltpFR	2	6	1	BOUILLON	154	4	0	n/a	n/a	n/a	n/a	n/a
3837681	RECOG_LURE	n/a	LTP231	ltpFR	2	6	n/a	PACKAGE	997	2	n/a	n/a	n/a	n/a	n/a	n/a
3838742	RECOG_RESP	n/a	LTP231	ltpFR	2	6	n/a	PACKAGE	997	n/a	n/a	n/a	n/a	n/a	n/a	n/a
3839955	RECOG_CONF	n/a	LTP231	ltpFR	2	6	n/a	PACKAGE	997	2	n/a	n/a	n/a	n/a	n/a	n/a
3843951	REC_START	n/a	LTP231	ltpFR	2	7	n/a	n/a	n/a	n/a	n/a	n/a	n/a	n/a	n/a	n/a
3843989	RECOG_TARGET	n/a	LTP231	ltpFR	2	7	0	COMPUTER	359	1	1	n/a	n/a	n/a	n/a	n/a
3845392	RECOG_RESP	n/a	LTP231	ltpFR	2	7	0	COMPUTER	359	n/a	1	n/a	n/a	n/a	n/a	n/a
3846111	RECOG_CONF	n/a	LTP231	ltpFR	2	7	0	COMPUTER	359	1	1	n/a	n/a	n/a	n/a	n/a
3847833	RECOG_TARGET	n/a	LTP231	ltpFR	2	7	1	DILL	465	5	0	n/a	n/a	n/a	n/a	n/a
3848730	RECOG_RESP	n/a	LTP231	ltpFR	2	7	1	DILL	465	n/a	0	n/a	n/a	n/a	n/a	n/a
3849852	RECOG_CONF	n/a	LTP231	ltpFR	2	7	1	DILL	465	5	0	n/a	n/a	n/a	n/a	n/a
3851943	RECOG_TARGET	n/a	LTP231	ltpFR	2	7	1	COYOTE	396	5	1	n/a	n/a	n/a	n/a	n/a
3852749	RECOG_RESP	n/a	LTP231	ltpFR	2	7	1	COYOTE	396	n/a	1	n/a	n/a	n/a	n/a	n/a
3854035	RECOG_CONF	n/a	LTP231	ltpFR	2	7	1	COYOTE	396	5	1	n/a	n/a	n/a	n/a	n/a
3856105	RECOG_TARGET	n/a	LTP231	ltpFR	2	7	1	WARDROBE	1587	5	0	n/a	n/a	n/a	n/a	n/a
3856722	RECOG_RESP	n/a	LTP231	ltpFR	2	7	1	WARDROBE	1587	n/a	0	n/a	n/a	n/a	n/a	n/a
3857884	RECOG_CONF	n/a	LTP231	ltpFR	2	7	1	WARDROBE	1587	5	0	n/a	n/a	n/a	n/a	n/a
3859798	RECOG_TARGET	n/a	LTP231	ltpFR	2	7	0	TRUCK	1512	5	1	n/a	n/a	n/a	n/a	n/a
3860614	RECOG_RESP	n/a	LTP231	ltpFR	2	7	0	TRUCK	1512	n/a	1	n/a	n/a	n/a	n/a	n/a
3861885	RECOG_CONF	n/a	LTP231	ltpFR	2	7	0	TRUCK	1512	5	1	n/a	n/a	n/a	n/a	n/a
3863909	RECOG_TARGET	n/a	LTP231	ltpFR	2	7	0	APARTMENT	30	5	1	n/a	n/a	n/a	n/a	n/a
3864888	RECOG_RESP	n/a	LTP231	ltpFR	2	7	0	APARTMENT	30	n/a	1	n/a	n/a	n/a	n/a	n/a
3866036	RECOG_CONF	n/a	LTP231	ltpFR	2	7	0	APARTMENT	30	5	1	n/a	n/a	n/a	n/a	n/a
3868220	RECOG_TARGET	n/a	LTP231	ltpFR	2	7	0	CHAPEL	280	5	1	n/a	n/a	n/a	n/a	n/a
3869344	RECOG_RESP	n/a	LTP231	ltpFR	2	7	0	CHAPEL	280	n/a	1	n/a	n/a	n/a	n/a	n/a
3870654	RECOG_CONF	n/a	LTP231	ltpFR	2	7	0	CHAPEL	280	5	1	n/a	n/a	n/a	n/a	n/a
3873129	RECOG_LURE	n/a	LTP231	ltpFR	2	7	n/a	PARCEL	1012	5	n/a	n/a	n/a	n/a	n/a	n/a
3874053	RECOG_RESP	n/a	LTP231	ltpFR	2	7	n/a	PARCEL	1012	n/a	n/a	n/a	n/a	n/a	n/a	n/a
3875374	RECOG_CONF	n/a	LTP231	ltpFR	2	7	n/a	PARCEL	1012	5	n/a	n/a	n/a	n/a	n/a	n/a
3877455	RECOG_TARGET	n/a	LTP231	ltpFR	2	7	0	VIDEO	1564	5	0	n/a	n/a	n/a	n/a	n/a
3878213	RECOG_RESP	n/a	LTP231	ltpFR	2	7	0	VIDEO	1564	n/a	0	n/a	n/a	n/a	n/a	n/a
3879734	RECOG_CONF	n/a	LTP231	ltpFR	2	7	0	VIDEO	1564	5	0	n/a	n/a	n/a	n/a	n/a
3881882	RECOG_TARGET	n/a	LTP231	ltpFR	2	7	1	CHEF	290	5	1	n/a	n/a	n/a	n/a	n/a
3883151	RECOG_RESP	n/a	LTP231	ltpFR	2	7	1	CHEF	290	n/a	1	n/a	n/a	n/a	n/a	n/a
3884679	RECOG_CONF	n/a	LTP231	ltpFR	2	7	1	CHEF	290	5	1	n/a	n/a	n/a	n/a	n/a
3886741	RECOG_TARGET	n/a	LTP231	ltpFR	2	7	0	FAMILY	550	5	1	n/a	n/a	n/a	n/a	n/a
3887560	RECOG_RESP	n/a	LTP231	ltpFR	2	7	0	FAMILY	550	n/a	1	n/a	n/a	n/a	n/a	n/a
3888684	RECOG_CONF	n/a	LTP231	ltpFR	2	7	0	FAMILY	550	5	1	n/a	n/a	n/a	n/a	n/a
3890702	RECOG_TARGET	n/a	LTP231	ltpFR	2	7	-1	KEY	773	5	-1	n/a	n/a	n/a	n/a	n/a
3891789	RECOG_RESP	n/a	LTP231	ltpFR	2	7	-1	KEY	773	n/a	-1	n/a	n/a	n/a	n/a	n/a
3892856	RECOG_CONF	n/a	LTP231	ltpFR	2	7	-1	KEY	773	5	-1	n/a	n/a	n/a	n/a	n/a
3894646	RECOG_TARGET	n/a	LTP231	ltpFR	2	7	0	SCALLOP	1242	1	0	n/a	n/a	n/a	n/a	n/a
3895397	RECOG_RESP	n/a	LTP231	ltpFR	2	7	0	SCALLOP	1242	n/a	0	n/a	n/a	n/a	n/a	n/a
3897359	RECOG_CONF	n/a	LTP231	ltpFR	2	7	0	SCALLOP	1242	1	0	n/a	n/a	n/a	n/a	n/a
3899257	RECOG_LURE	n/a	LTP231	ltpFR	2	7	n/a	CORPORATION	382	2	n/a	n/a	n/a	n/a	n/a	n/a
3902736	RECOG_RESP	n/a	LTP231	ltpFR	2	7	n/a	CORPORATION	382	n/a	n/a	n/a	n/a	n/a	n/a	n/a
3904053	RECOG_CONF	n/a	LTP231	ltpFR	2	7	n/a	CORPORATION	382	2	n/a	n/a	n/a	n/a	n/a	n/a
3906114	RECOG_TARGET	n/a	LTP231	ltpFR	2	7	-1	GARDEN	623	4	-1	n/a	n/a	n/a	n/a	n/a
3907035	RECOG_RESP	n/a	LTP231	ltpFR	2	7	-1	GARDEN	623	n/a	-1	n/a	n/a	n/a	n/a	n/a
3907928	RECOG_CONF	n/a	LTP231	ltpFR	2	7	-1	GARDEN	623	4	-1	n/a	n/a	n/a	n/a	n/a
3909790	RECOG_LURE	n/a	LTP231	ltpFR	2	7	n/a	PRINCESS	1125	4	n/a	n/a	n/a	n/a	n/a	n/a
3912313	RECOG_RESP	n/a	LTP231	ltpFR	2	7	n/a	PRINCESS	1125	n/a	n/a	n/a	n/a	n/a	n/a	n/a
3913370	RECOG_CONF	n/a	LTP231	ltpFR	2	7	n/a	PRINCESS	1125	4	n/a	n/a	n/a	n/a	n/a	n/a
3915250	RECOG_TARGET	n/a	LTP231	ltpFR	2	7	1	CANOE	233	3	0	n/a	n/a	n/a	n/a	n/a
3916812	RECOG_RESP	n/a	LTP231	ltpFR	2	7	1	CANOE	233	n/a	0	n/a	n/a	n/a	n/a	n/a
3917914	RECOG_CONF	n/a	LTP231	ltpFR	2	7	1	CANOE	233	3	0	n/a	n/a	n/a	n/a	n/a
3919626	RECOG_TARGET	n/a	LTP231	ltpFR	2	7	0	CARAVAN	242	5	1	n/a	n/a	n/a	n/a	n/a
3920726	RECOG_RESP	n/a	LTP231	ltpFR	2	7	0	CARAVAN	242	n/a	1	n/a	n/a	n/a	n/a	n/a
3922230	RECOG_CONF	n/a	LTP231	ltpFR	2	7	0	CARAVAN	242	5	1	n/a	n/a	n/a	n/a	n/a
3923819	RECOG_TARGET	n/a	LTP231	ltpFR	2	7	-1	STATUE	1374	5	-1	n/a	n/a	n/a	n/a	n/a
3924634	RECOG_RESP	n/a	LTP231	ltpFR	2	7	-1	STATUE	1374	n/a	-1	n/a	n/a	n/a	n/a	n/a
3925918	RECOG_CONF	n/a	LTP231	ltpFR	2	7	-1	STATUE	1374	5	-1	n/a	n/a	n/a	n/a	n/a
3927597	RECOG_TARGET	n/a	LTP231	ltpFR	2	7	0	SPHINX	1349	5	0	n/a	n/a	n/a	n/a	n/a
3928454	RECOG_RESP	n/a	LTP231	ltpFR	2	7	0	SPHINX	1349	n/a	0	n/a	n/a	n/a	n/a	n/a
3929720	RECOG_CONF	n/a	LTP231	ltpFR	2	7	0	SPHINX	1349	5	0	n/a	n/a	n/a	n/a	n/a
3945681	REC_START	n/a	LTP231	ltpFR	2	8	n/a	n/a	n/a	n/a	n/a	n/a	n/a	n/a	n/a	n/a
3945720	RECOG_TARGET	n/a	LTP231	ltpFR	2	8	-1	KLEENEX	782	5	-1	n/a	n/a	n/a	n/a	n/a
3946700	RECOG_RESP	n/a	LTP231	ltpFR	2	8	-1	KLEENEX	782	n/a	-1	n/a	n/a	n/a	n/a	n/a
3947821	RECOG_CONF	n/a	LTP231	ltpFR	2	8	-1	KLEENEX	782	5	-1	n/a	n/a	n/a	n/a	n/a
3949316	RECOG_TARGET	n/a	LTP231	ltpFR	2	8	0	PENCIL	1042	5	0	n/a	n/a	n/a	n/a	n/a
3950166	RECOG_RESP	n/a	LTP231	ltpFR	2	8	0	PENCIL	1042	n/a	0	n/a	n/a	n/a	n/a	n/a
3951046	RECOG_CONF	n/a	LTP231	ltpFR	2	8	0	PENCIL	1042	5	0	n/a	n/a	n/a	n/a	n/a
3952976	RECOG_TARGET	n/a	LTP231	ltpFR	2	8	1	SNAKE	1333	5	1	n/a	n/a	n/a	n/a	n/a
3953769	RECOG_RESP	n/a	LTP231	ltpFR	2	8	1	SNAKE	1333	n/a	1	n/a	n/a	n/a	n/a	n/a
3954596	RECOG_CONF	n/a	LTP231	ltpFR	2	8	1	SNAKE	1333	5	1	n/a	n/a	n/a	n/a	n/a
3956454	RECOG_TARGET	n/a	LTP231	ltpFR	2	8	0	MARKER	870	3	0	n/a	n/a	n/a	n/a	n/a
3957243	RECOG_RESP	n/a	LTP231	ltpFR	2	8	0	MARKER	870	n/a	0	n/a	n/a	n/a	n/a	n/a
3958283	RECOG_CONF	n/a	LTP231	ltpFR	2	8	0	MARKER	870	3	0	n/a	n/a	n/a	n/a	n/a
3959633	RECOG_TARGET	n/a	LTP231	ltpFR	2	8	0	BLOUSE	139	3	0	n/a	n/a	n/a	n/a	n/a
3960542	RECOG_RESP	n/a	LTP231	ltpFR	2	8	0	BLOUSE	139	n/a	0	n/a	n/a	n/a	n/a	n/a
3961764	RECOG_CONF	n/a	LTP231	ltpFR	2	8	0	BLOUSE	139	3	0	n/a	n/a	n/a	n/a	n/a
3963527	RECOG_TARGET	n/a	LTP231	ltpFR	2	8	0	AIRPLANE	12	3	1	n/a	n/a	n/a	n/a	n/a
3964227	RECOG_RESP	n/a	LTP231	ltpFR	2	8	0	AIRPLANE	12	n/a	1	n/a	n/a	n/a	n/a	n/a
3965660	RECOG_CONF	n/a	LTP231	ltpFR	2	8	0	AIRPLANE	12	3	1	n/a	n/a	n/a	n/a	n/a
3967887	RECOG_TARGET	n/a	LTP231	ltpFR	2	8	0	TACK	1428	1	2	n/a	n/a	n/a	n/a	n/a
3969346	RECOG_RESP	n/a	LTP231	ltpFR	2	8	0	TACK	1428	n/a	2	n/a	n/a	n/a	n/a	n/a
3970809	RECOG_CONF	n/a	LTP231	ltpFR	2	8	0	TACK	1428	1	2	n/a	n/a	n/a	n/a	n/a
3973197	RECOG_TARGET	n/a	LTP231	ltpFR	2	8	-1	CHAUFFEUR	283	3	-1	n/a	n/a	n/a	n/a	n/a
3974321	RECOG_RESP	n/a	LTP231	ltpFR	2	8	-1	CHAUFFEUR	283	n/a	-1	n/a	n/a	n/a	n/a	n/a
3975579	RECOG_CONF	n/a	LTP231	ltpFR	2	8	-1	CHAUFFEUR	283	3	-1	n/a	n/a	n/a	n/a	n/a
3977523	RECOG_TARGET	n/a	LTP231	ltpFR	2	8	0	ARTIST	43	1	1	n/a	n/a	n/a	n/a	n/a
3978506	RECOG_RESP	n/a	LTP231	ltpFR	2	8	0	ARTIST	43	n/a	1	n/a	n/a	n/a	n/a	n/a
3979490	RECOG_CONF	n/a	LTP231	ltpFR	2	8	0	ARTIST	43	1	1	n/a	n/a	n/a	n/a	n/a
