onset	duration	trial_type	sample	stim_file	subject	experiment	session	trial	item_name	item_num	list	answer	test_x	test_y	test_z
207.64990234375	n/a	SESS_START	425267	n/a	LTP347	ltpFR2	22	n/a	n/a	n/a	n/a	n/a	0	0	0
222.61328125	n/a	START	455912	n/a	LTP347	ltpFR2	22	n/a	n/a	n/a	-1	n/a	n/a	n/a	n/a
222.64306640625	n/a	PROB	455973	n/a	LTP347	ltpFR2	22	n/a	n/a	n/a	-1	14	7	5	2
224.29248046875	n/a	PROB	459351	n/a	LTP347	ltpFR2	22	n/a	n/a	n/a	-1	15	9	3	3
225.525390625	n/a	PROB	461876	n/a	LTP347	ltpFR2	22	n/a	n/a	n/a	-1	19	5	7	4
226.9072265625	n/a	PROB	464706	n/a	LTP347	ltpFR2	22	n/a	n/a	n/a	-1	16	5	4	7
228.50732421875	n/a	PROB	467983	n/a	LTP347	ltpFR2	22	n/a	n/a	n/a	-1	15	9	2	4
229.72314453125	n/a	PROB	470473	n/a	LTP347	ltpFR2	22	n/a	n/a	n/a	-1	9	3	4	2
230.9404296875	n/a	PROB	472966	n/a	LTP347	ltpFR2	22	n/a	n/a	n/a	-1	14	6	6	2
232.73828125	n/a	PROB	476648	n/a	LTP347	ltpFR2	22	n/a	n/a	n/a	-1	13	6	6	1
233.810546875	n/a	STOP	478844	n/a	LTP347	ltpFR2	22	n/a	n/a	n/a	-1	n/a	n/a	n/a	n/a
265.84033203125	n/a	DISTRACTOR	544441	n/a	LTP347	ltpFR2	22	1	n/a	n/a	n/a	n/a	0	0	0
265.84033203125	n/a	START	544441	n/a	LTP347	ltpFR2	22	n/a	n/a	n/a	1	n/a	n/a	n/a	n/a
265.87158203125	n/a	PROB	544505	n/a	LTP347	ltpFR2	22	n/a	n/a	n/a	1	13	3	1	9
266.8544921875	n/a	PROB	546518	n/a	LTP347	ltpFR2	22	n/a	n/a	n/a	1	11	2	8	1
268.1376953125	n/a	PROB	549146	n/a	LTP347	ltpFR2	22	n/a	n/a	n/a	1	11	4	2	5
269.38671875	n/a	PROB	551704	n/a	LTP347	ltpFR2	22	n/a	n/a	n/a	1	12	4	2	6
271.00244140625	n/a	PROB	555013	n/a	LTP347	ltpFR2	22	n/a	n/a	n/a	1	8	4	3	1
272.20166015625	n/a	PROB	557469	n/a	LTP347	ltpFR2	22	n/a	n/a	n/a	1	27	9	9	9
273.46875	n/a	PROB	560064	n/a	LTP347	ltpFR2	22	n/a	n/a	n/a	1	19	7	3	9
274.734375	n/a	PROB	562656	n/a	LTP347	ltpFR2	22	n/a	n/a	n/a	1	15	5	2	8
275.86669921875	n/a	PROB	564975	n/a	LTP347	ltpFR2	22	n/a	n/a	n/a	1	16	3	6	7
277.11669921875	n/a	PROB	567535	n/a	LTP347	ltpFR2	22	n/a	n/a	n/a	1	22	5	8	9
278.49853515625	n/a	PROB	570365	n/a	LTP347	ltpFR2	22	n/a	n/a	n/a	1	17	8	1	8
280.16455078125	n/a	PROB	573777	n/a	LTP347	ltpFR2	22	n/a	n/a	n/a	1	16	6	7	3
281.44775390625	n/a	PROB	576405	n/a	LTP347	ltpFR2	22	n/a	n/a	n/a	1	17	9	4	4
283.0966796875	n/a	PROB	579782	n/a	LTP347	ltpFR2	22	n/a	n/a	n/a	1	13	2	2	9
284.4794921875	n/a	PROB	582614	n/a	LTP347	ltpFR2	22	n/a	n/a	n/a	1	11	1	8	2
285.6787109375	n/a	PROB	585070	n/a	LTP347	ltpFR2	22	n/a	n/a	n/a	1	16	5	2	9
286.8115234375	n/a	PROB	587390	n/a	LTP347	ltpFR2	22	n/a	n/a	n/a	1	11	2	7	2
287.978515625	n/a	PROB	589780	n/a	LTP347	ltpFR2	22	n/a	n/a	n/a	1	16	4	4	8
289.16259765625	n/a	STOP	592205	n/a	LTP347	ltpFR2	22	n/a	n/a	n/a	1	n/a	n/a	n/a	n/a
290.90966796875	n/a	WORD	595783	wordpools/wasnorm_wordpool_576.txt	LTP347	ltpFR2	22	1	FOREST	593	n/a	n/a	0	0	0
293.6748046875	n/a	WORD	601446	wordpools/wasnorm_wordpool_576.txt	LTP347	ltpFR2	22	1	PRINCE	1124	n/a	n/a	0	0	0
296.35693359375	n/a	WORD	606939	wordpools/wasnorm_wordpool_576.txt	LTP347	ltpFR2	22	1	ARMY	39	n/a	n/a	0	0	0
298.85595703125	n/a	WORD	612057	wordpools/wasnorm_wordpool_576.txt	LTP347	ltpFR2	22	1	FLEET	578	n/a	n/a	0	0	0
301.470703125	n/a	WORD	617412	wordpools/wasnorm_wordpool_576.txt	LTP347	ltpFR2	22	1	BULLET	194	n/a	n/a	0	0	0
304.0869140625	n/a	WORD	622770	wordpools/wasnorm_wordpool_576.txt	LTP347	ltpFR2	22	1	LASER	801	n/a	n/a	0	0	0
306.90185546875	n/a	WORD	628535	wordpools/wasnorm_wordpool_576.txt	LTP347	ltpFR2	22	1	UNCLE	1536	n/a	n/a	0	0	0
309.45068359375	n/a	WORD	633755	wordpools/wasnorm_wordpool_576.txt	LTP347	ltpFR2	22	1	PEDAL	1037	n/a	n/a	0	0	0
311.89892578125	n/a	WORD	638769	wordpools/wasnorm_wordpool_576.txt	LTP347	ltpFR2	22	1	BARREL	91	n/a	n/a	0	0	0
314.44775390625	n/a	WORD	643989	wordpools/wasnorm_wordpool_576.txt	LTP347	ltpFR2	22	1	PILOT	1070	n/a	n/a	0	0	0
317.19677734375	n/a	WORD	649619	wordpools/wasnorm_wordpool_576.txt	LTP347	ltpFR2	22	1	DORM	488	n/a	n/a	0	0	0
319.62890625	n/a	WORD	654600	wordpools/wasnorm_wordpool_576.txt	LTP347	ltpFR2	22	1	SUBWAY	1400	n/a	n/a	0	0	0
322.31103515625	n/a	WORD	660093	wordpools/wasnorm_wordpool_576.txt	LTP347	ltpFR2	22	1	BLOUSE	139	n/a	n/a	0	0	0
324.77587890625	n/a	WORD	665141	wordpools/wasnorm_wordpool_576.txt	LTP347	ltpFR2	22	1	PEBBLE	1035	n/a	n/a	0	0	0
327.30810546875	n/a	WORD	670327	wordpools/wasnorm_wordpool_576.txt	LTP347	ltpFR2	22	1	LODGE	839	n/a	n/a	0	0	0
329.7568359375	n/a	WORD	675342	wordpools/wasnorm_wordpool_576.txt	LTP347	ltpFR2	22	1	CLAM	315	n/a	n/a	0	0	0
332.5390625	n/a	WORD	681040	wordpools/wasnorm_wordpool_576.txt	LTP347	ltpFR2	22	1	STOMACH	1384	n/a	n/a	0	0	0
335.10498046875	n/a	WORD	686295	wordpools/wasnorm_wordpool_576.txt	LTP347	ltpFR2	22	1	BADGE	68	n/a	n/a	0	0	0
337.7529296875	n/a	WORD	691718	wordpools/wasnorm_wordpool_576.txt	LTP347	ltpFR2	22	1	LAVA	804	n/a	n/a	0	0	0
340.31884765625	n/a	WORD	696973	wordpools/wasnorm_wordpool_576.txt	LTP347	ltpFR2	22	1	LIGHTNING	820	n/a	n/a	0	0	0
342.7509765625	n/a	WORD	701954	wordpools/wasnorm_wordpool_576.txt	LTP347	ltpFR2	22	1	SLUG	1329	n/a	n/a	0	0	0
345.18310546875	n/a	WORD	706935	wordpools/wasnorm_wordpool_576.txt	LTP347	ltpFR2	22	1	TORTOISE	1486	n/a	n/a	0	0	0
347.7822265625	n/a	WORD	712258	wordpools/wasnorm_wordpool_576.txt	LTP347	ltpFR2	22	1	CRAB	397	n/a	n/a	0	0	0
350.51416015625	n/a	WORD	717853	wordpools/wasnorm_wordpool_576.txt	LTP347	ltpFR2	22	1	PLAID	1080	n/a	n/a	0	0	0
352.1298828125	n/a	START	721162	n/a	LTP347	ltpFR2	22	n/a	n/a	n/a	2	n/a	n/a	n/a	n/a
353.27001953125	n/a	DISTRACTOR	723497	n/a	LTP347	ltpFR2	22	1	n/a	n/a	n/a	n/a	0	0	0
353.279296875	n/a	PROB	723516	n/a	LTP347	ltpFR2	22	n/a	n/a	n/a	2	18	6	3	9
355.1279296875	n/a	PROB	727302	n/a	LTP347	ltpFR2	22	n/a	n/a	n/a	2	18	2	9	7
356.34423828125	n/a	PROB	729793	n/a	LTP347	ltpFR2	22	n/a	n/a	n/a	2	18	3	7	8
357.4599609375	n/a	PROB	732078	n/a	LTP347	ltpFR2	22	n/a	n/a	n/a	2	8	6	1	1
358.4931640625	n/a	PROB	734194	n/a	LTP347	ltpFR2	22	n/a	n/a	n/a	2	14	6	7	1
360.05908203125	n/a	PROB	737401	n/a	LTP347	ltpFR2	22	n/a	n/a	n/a	2	10	3	3	4
361.39208984375	n/a	PROB	740131	n/a	LTP347	ltpFR2	22	n/a	n/a	n/a	2	17	2	8	7
362.57421875	n/a	PROB	742552	n/a	LTP347	ltpFR2	22	n/a	n/a	n/a	2	18	5	7	6
364.2900390625	n/a	PROB	746066	n/a	LTP347	ltpFR2	22	n/a	n/a	n/a	2	20	7	5	8
365.68896484375	n/a	PROB	748931	n/a	LTP347	ltpFR2	22	n/a	n/a	n/a	2	14	8	1	5
367.05517578125	n/a	PROB	751729	n/a	LTP347	ltpFR2	22	n/a	n/a	n/a	2	13	6	4	3
368.1220703125	n/a	PROB	753914	n/a	LTP347	ltpFR2	22	n/a	n/a	n/a	2	9	1	1	7
369.10400390625	n/a	PROB	755925	n/a	LTP347	ltpFR2	22	n/a	n/a	n/a	2	9	6	1	2
370.404296875	n/a	PROB	758588	n/a	LTP347	ltpFR2	22	n/a	n/a	n/a	2	15	7	4	4
371.5703125	n/a	PROB	760976	n/a	LTP347	ltpFR2	22	n/a	n/a	n/a	2	13	7	5	1
372.7861328125	n/a	PROB	763466	n/a	LTP347	ltpFR2	22	n/a	n/a	n/a	2	6	1	4	1
373.869140625	n/a	PROB	765684	n/a	LTP347	ltpFR2	22	n/a	n/a	n/a	2	19	6	9	4
375.13134765625	n/a	STOP	768269	n/a	LTP347	ltpFR2	22	n/a	n/a	n/a	2	n/a	n/a	n/a	n/a
378.0341796875	n/a	REC_START	774214	n/a	LTP347	ltpFR2	22	1	n/a	n/a	n/a	n/a	0	0	0
379.84521484375	n/a	REC_WORD	777923	wordpools/wasnorm_wordpool_576.txt	LTP347	ltpFR2	22	1	PLAID	1080	n/a	n/a	0	0	0
380.38427734375	n/a	REC_WORD	779027	wordpools/wasnorm_wordpool_576.txt	LTP347	ltpFR2	22	1	LAVA	804	n/a	n/a	0	0	0
380.89013671875	n/a	REC_WORD	780063	wordpools/wasnorm_wordpool_576.txt	LTP347	ltpFR2	22	1	LIGHTNING	820	n/a	n/a	0	0	0
381.9501953125	n/a	REC_WORD	782234	wordpools/wasnorm_wordpool_576.txt	LTP347	ltpFR2	22	1	SLUG	1329	n/a	n/a	0	0	0
388.91748046875	n/a	REC_WORD	796503	wordpools/wasnorm_wordpool_576.txt	LTP347	ltpFR2	22	1	LODGE	839	n/a	n/a	0	0	0
389.62158203125	n/a	REC_WORD	797945	wordpools/wasnorm_wordpool_576.txt	LTP347	ltpFR2	22	1	PEBBLE	1035	n/a	n/a	0	0	0
390.16357421875	n/a	REC_WORD	799055	wordpools/wasnorm_wordpool_576.txt	LTP347	ltpFR2	22	1	BLOUSE	139	n/a	n/a	0	0	0
390.72021484375	n/a	REC_WORD	800195	wordpools/wasnorm_wordpool_576.txt	LTP347	ltpFR2	22	1	CLAM	315	n/a	n/a	0	0	0
391.22314453125	n/a	REC_WORD	801225	wordpools/wasnorm_wordpool_576.txt	LTP347	ltpFR2	22	1	STOMACH	1384	n/a	n/a	0	0	0
393.6904296875	n/a	REC_WORD	806278	wordpools/wasnorm_wordpool_576.txt	LTP347	ltpFR2	22	1	FOREST	593	n/a	n/a	0	0	0
394.44140625	n/a	REC_WORD	807816	wordpools/wasnorm_wordpool_576.txt	LTP347	ltpFR2	22	1	PRINCE	1124	n/a	n/a	0	0	0
394.931640625	n/a	REC_WORD	808820	wordpools/wasnorm_wordpool_576.txt	LTP347	ltpFR2	22	1	ARMY	39	n/a	n/a	0	0	0
395.2734375	n/a	REC_WORD	809520	wordpools/wasnorm_wordpool_576.txt	LTP347	ltpFR2	22	1	FLEET	578	n/a	n/a	0	0	0
396.6591796875	n/a	REC_WORD	812358	wordpools/wasnorm_wordpool_576.txt	LTP347	ltpFR2	22	1	LASER	801	n/a	n/a	0	0	0
397.29150390625	n/a	REC_WORD	813653	wordpools/wasnorm_wordpool_576.txt	LTP347	ltpFR2	22	1	BULLET	194	n/a	n/a	0	0	0
397.71533203125	n/a	REC_WORD	814521	wordpools/wasnorm_wordpool_576.txt	LTP347	ltpFR2	22	1	UNCLE	1536	n/a	n/a	0	0	0
398.3623046875	n/a	REC_WORD	815846	wordpools/wasnorm_wordpool_576.txt	LTP347	ltpFR2	22	1	PEDAL	1037	n/a	n/a	0	0	0
398.984375	n/a	REC_WORD	817120	wordpools/wasnorm_wordpool_576.txt	LTP347	ltpFR2	22	1	BARREL	91	n/a	n/a	0	0	0
400.00439453125	n/a	REC_WORD	819209	wordpools/wasnorm_wordpool_576.txt	LTP347	ltpFR2	22	1	PILOT	1070	n/a	n/a	0	0	0
401.4794921875	n/a	REC_WORD	822230	wordpools/wasnorm_wordpool_576.txt	LTP347	ltpFR2	22	1	DORM	488	n/a	n/a	0	0	0
402.1435546875	n/a	REC_WORD	823590	wordpools/wasnorm_wordpool_576.txt	LTP347	ltpFR2	22	1	SUBWAY	1400	n/a	n/a	0	0	0
468.48876953125	n/a	WORD	959465	wordpools/wasnorm_wordpool_576.txt	LTP347	ltpFR2	22	2	NOVEL	960	n/a	n/a	0	0	0
471.0546875	n/a	WORD	964720	wordpools/wasnorm_wordpool_576.txt	LTP347	ltpFR2	22	2	BLUEPRINT	142	n/a	n/a	0	0	0
473.56982421875	n/a	WORD	969871	wordpools/wasnorm_wordpool_576.txt	LTP347	ltpFR2	22	2	MARS	873	n/a	n/a	0	0	0
476.01904296875	n/a	WORD	974887	wordpools/wasnorm_wordpool_576.txt	LTP347	ltpFR2	22	2	LEOPARD	812	n/a	n/a	0	0	0
478.81787109375	n/a	WORD	980619	wordpools/wasnorm_wordpool_576.txt	LTP347	ltpFR2	22	2	STUDENT	1395	n/a	n/a	0	0	0
481.39990234375	n/a	WORD	985907	wordpools/wasnorm_wordpool_576.txt	LTP347	ltpFR2	22	2	EAGLE	512	n/a	n/a	0	0	0
484.1982421875	n/a	WORD	991638	wordpools/wasnorm_wordpool_576.txt	LTP347	ltpFR2	22	2	TAXI	1438	n/a	n/a	0	0	0
486.9638671875	n/a	WORD	997302	wordpools/wasnorm_wordpool_576.txt	LTP347	ltpFR2	22	2	GIRL	637	n/a	n/a	0	0	0
489.7451171875	n/a	WORD	1002998	wordpools/wasnorm_wordpool_576.txt	LTP347	ltpFR2	22	2	CLOTHES	327	n/a	n/a	0	0	0
492.47705078125	n/a	WORD	1008593	wordpools/wasnorm_wordpool_576.txt	LTP347	ltpFR2	22	2	DRESS	495	n/a	n/a	0	0	0
494.9931640625	n/a	WORD	1013746	wordpools/wasnorm_wordpool_576.txt	LTP347	ltpFR2	22	2	PUPIL	1143	n/a	n/a	0	0	0
497.75830078125	n/a	WORD	1019409	wordpools/wasnorm_wordpool_576.txt	LTP347	ltpFR2	22	2	PEACH	1031	n/a	n/a	0	0	0
500.52294921875	n/a	WORD	1025071	wordpools/wasnorm_wordpool_576.txt	LTP347	ltpFR2	22	2	SHARK	1275	n/a	n/a	0	0	0
503.25537109375	n/a	WORD	1030667	wordpools/wasnorm_wordpool_576.txt	LTP347	ltpFR2	22	2	TROUT	1511	n/a	n/a	0	0	0
505.9873046875	n/a	WORD	1036262	wordpools/wasnorm_wordpool_576.txt	LTP347	ltpFR2	22	2	OZONE	996	n/a	n/a	0	0	0
508.619140625	n/a	WORD	1041652	wordpools/wasnorm_wordpool_576.txt	LTP347	ltpFR2	22	2	SEAGULL	1261	n/a	n/a	0	0	0
511.26806640625	n/a	WORD	1047077	wordpools/wasnorm_wordpool_576.txt	LTP347	ltpFR2	22	2	LADY	794	n/a	n/a	0	0	0
513.951171875	n/a	WORD	1052572	wordpools/wasnorm_wordpool_576.txt	LTP347	ltpFR2	22	2	VAGRANT	1544	n/a	n/a	0	0	0
516.4990234375	n/a	WORD	1057790	wordpools/wasnorm_wordpool_576.txt	LTP347	ltpFR2	22	2	LIPSTICK	829	n/a	n/a	0	0	0
519.064453125	n/a	WORD	1063044	wordpools/wasnorm_wordpool_576.txt	LTP347	ltpFR2	22	2	SHOULDER	1294	n/a	n/a	0	0	0
521.61328125	n/a	WORD	1068264	wordpools/wasnorm_wordpool_576.txt	LTP347	ltpFR2	22	2	PARTNER	1017	n/a	n/a	0	0	0
524.0625	n/a	WORD	1073280	wordpools/wasnorm_wordpool_576.txt	LTP347	ltpFR2	22	2	PERFUME	1049	n/a	n/a	0	0	0
526.76025390625	n/a	WORD	1078805	wordpools/wasnorm_wordpool_576.txt	LTP347	ltpFR2	22	2	OINTMENT	974	n/a	n/a	0	0	0
529.30908203125	n/a	WORD	1084025	wordpools/wasnorm_wordpool_576.txt	LTP347	ltpFR2	22	2	COTTAGE	384	n/a	n/a	0	0	0
530.92626953125	n/a	START	1087337	n/a	LTP347	ltpFR2	22	n/a	n/a	n/a	3	n/a	n/a	n/a	n/a
532.119140625	n/a	DISTRACTOR	1089780	n/a	LTP347	ltpFR2	22	2	n/a	n/a	n/a	n/a	0	0	0
532.12451171875	n/a	PROB	1089791	n/a	LTP347	ltpFR2	22	n/a	n/a	n/a	3	9	2	3	4
533.9072265625	n/a	PROB	1093442	n/a	LTP347	ltpFR2	22	n/a	n/a	n/a	3	6	1	4	1
535.1064453125	n/a	PROB	1095898	n/a	LTP347	ltpFR2	22	n/a	n/a	n/a	3	15	1	8	6
536.7724609375	n/a	PROB	1099310	n/a	LTP347	ltpFR2	22	n/a	n/a	n/a	3	19	9	4	6
537.92333984375	n/a	PROB	1101667	n/a	LTP347	ltpFR2	22	n/a	n/a	n/a	3	17	7	4	6
539.53759765625	n/a	PROB	1104973	n/a	LTP347	ltpFR2	22	n/a	n/a	n/a	3	19	4	8	7
541.00341796875	n/a	PROB	1107975	n/a	LTP347	ltpFR2	22	n/a	n/a	n/a	3	1	1	7	2
542.28662109375	n/a	PROB	1110603	n/a	LTP347	ltpFR2	22	n/a	n/a	n/a	3	8	1	6	1
543.3193359375	n/a	PROB	1112718	n/a	LTP347	ltpFR2	22	n/a	n/a	n/a	3	17	5	5	7
544.568359375	n/a	PROB	1115276	n/a	LTP347	ltpFR2	22	n/a	n/a	n/a	3	18	9	3	5
546.00146484375	n/a	PROB	1118211	n/a	LTP347	ltpFR2	22	n/a	n/a	n/a	3	13	6	6	1
547.6005859375	n/a	PROB	1121486	n/a	LTP347	ltpFR2	22	n/a	n/a	n/a	3	16	2	6	8
550.29931640625	n/a	PROB	1127013	n/a	LTP347	ltpFR2	22	n/a	n/a	n/a	3	14	7	1	5
552.1982421875	n/a	PROB	1130902	n/a	LTP347	ltpFR2	22	n/a	n/a	n/a	3	17	8	1	8
553.5166015625	n/a	STOP	1133602	n/a	LTP347	ltpFR2	22	n/a	n/a	n/a	3	n/a	n/a	n/a	n/a
556.74658203125	n/a	REC_START	1140217	n/a	LTP347	ltpFR2	22	2	n/a	n/a	n/a	n/a	0	0	0
560.37451171875	n/a	REC_WORD	1147647	wordpools/wasnorm_wordpool_576.txt	LTP347	ltpFR2	22	2	NOVEL	960	n/a	n/a	0	0	0
561.1123046875	n/a	REC_WORD	1149158	wordpools/wasnorm_wordpool_576.txt	LTP347	ltpFR2	22	2	BLUEPRINT	142	n/a	n/a	0	0	0
563.50146484375	n/a	REC_WORD	1154051	wordpools/wasnorm_wordpool_576.txt	LTP347	ltpFR2	22	2	MARS	873	n/a	n/a	0	0	0
564.2177734375	n/a	REC_WORD	1155518	wordpools/wasnorm_wordpool_576.txt	LTP347	ltpFR2	22	2	EAGLE	512	n/a	n/a	0	0	0
564.79736328125	n/a	REC_WORD	1156705	wordpools/wasnorm_wordpool_576.txt	LTP347	ltpFR2	22	2	STUDENT	1395	n/a	n/a	0	0	0
566.1904296875	n/a	REC_WORD	1159558	wordpools/wasnorm_wordpool_576.txt	LTP347	ltpFR2	22	2	LEOPARD	812	n/a	n/a	0	0	0
568.0498046875	n/a	REC_WORD	1163366	wordpools/wasnorm_wordpool_576.txt	LTP347	ltpFR2	22	2	TAXI	1438	n/a	n/a	0	0	0
571.31982421875	n/a	REC_WORD	1170063	wordpools/wasnorm_wordpool_576.txt	LTP347	ltpFR2	22	2	GIRL	637	n/a	n/a	0	0	0
647.18505859375	n/a	DISTRACTOR	1325435	n/a	LTP347	ltpFR2	22	3	n/a	n/a	n/a	n/a	0	0	0
647.18505859375	n/a	START	1325435	n/a	LTP347	ltpFR2	22	n/a	n/a	n/a	4	n/a	n/a	n/a	n/a
647.2021484375	n/a	PROB	1325470	n/a	LTP347	ltpFR2	22	n/a	n/a	n/a	4	18	8	8	2
648.3681640625	n/a	PROB	1327858	n/a	LTP347	ltpFR2	22	n/a	n/a	n/a	4	9	2	3	4
649.39990234375	n/a	PROB	1329971	n/a	LTP347	ltpFR2	22	n/a	n/a	n/a	4	6	2	1	3
650.48291015625	n/a	PROB	1332189	n/a	LTP347	ltpFR2	22	n/a	n/a	n/a	4	6	2	2	2
651.56591796875	n/a	PROB	1334407	n/a	LTP347	ltpFR2	22	n/a	n/a	n/a	4	20	4	8	8
652.93310546875	n/a	PROB	1337207	n/a	LTP347	ltpFR2	22	n/a	n/a	n/a	4	25	9	9	7
654.615234375	n/a	PROB	1340652	n/a	LTP347	ltpFR2	22	n/a	n/a	n/a	4	21	4	9	8
656.03125	n/a	PROB	1343552	n/a	LTP347	ltpFR2	22	n/a	n/a	n/a	4	6	2	1	3
657.13037109375	n/a	PROB	1345803	n/a	LTP347	ltpFR2	22	n/a	n/a	n/a	4	15	5	9	1
658.279296875	n/a	PROB	1348156	n/a	LTP347	ltpFR2	22	n/a	n/a	n/a	4	22	6	9	7
660.37841796875	n/a	PROB	1352455	n/a	LTP347	ltpFR2	22	n/a	n/a	n/a	4	12	5	4	2
661.81103515625	n/a	PROB	1355389	n/a	LTP347	ltpFR2	22	n/a	n/a	n/a	4	21	7	5	9
664.31005859375	n/a	PROB	1360507	n/a	LTP347	ltpFR2	22	n/a	n/a	n/a	4	16	7	7	2
665.943359375	n/a	PROB	1363852	n/a	LTP347	ltpFR2	22	n/a	n/a	n/a	4	9	6	3	1
667.2080078125	n/a	PROB	1366442	n/a	LTP347	ltpFR2	22	n/a	n/a	n/a	4	22	8	9	7
669.1572265625	n/a	PROB	1370434	n/a	LTP347	ltpFR2	22	n/a	n/a	n/a	4	7	2	3	2
670.7412109375	n/a	STOP	1373678	n/a	LTP347	ltpFR2	22	n/a	n/a	n/a	4	n/a	n/a	n/a	n/a
672.189453125	n/a	WORD	1376644	wordpools/wasnorm_wordpool_576.txt	LTP347	ltpFR2	22	3	POLICE	1098	n/a	n/a	0	0	0
674.73828125	n/a	WORD	1381864	wordpools/wasnorm_wordpool_576.txt	LTP347	ltpFR2	22	3	SODA	1341	n/a	n/a	0	0	0
677.50341796875	n/a	WORD	1387527	wordpools/wasnorm_wordpool_576.txt	LTP347	ltpFR2	22	3	LAMP	798	n/a	n/a	0	0	0
679.9365234375	n/a	WORD	1392510	wordpools/wasnorm_wordpool_576.txt	LTP347	ltpFR2	22	3	GYMNAST	675	n/a	n/a	0	0	0
682.701171875	n/a	WORD	1398172	wordpools/wasnorm_wordpool_576.txt	LTP347	ltpFR2	22	3	FOREHEAD	592	n/a	n/a	0	0	0
685.2333984375	n/a	WORD	1403358	wordpools/wasnorm_wordpool_576.txt	LTP347	ltpFR2	22	3	POCKET	1093	n/a	n/a	0	0	0
687.76513671875	n/a	WORD	1408543	wordpools/wasnorm_wordpool_576.txt	LTP347	ltpFR2	22	3	JUNGLE	764	n/a	n/a	0	0	0
690.23046875	n/a	WORD	1413592	wordpools/wasnorm_wordpool_576.txt	LTP347	ltpFR2	22	3	WAITRESS	1581	n/a	n/a	0	0	0
693.01220703125	n/a	WORD	1419289	wordpools/wasnorm_wordpool_576.txt	LTP347	ltpFR2	22	3	WASHER	1592	n/a	n/a	0	0	0
695.4443359375	n/a	WORD	1424270	wordpools/wasnorm_wordpool_576.txt	LTP347	ltpFR2	22	3	SNACK	1331	n/a	n/a	0	0	0
697.8935546875	n/a	WORD	1429286	wordpools/wasnorm_wordpool_576.txt	LTP347	ltpFR2	22	3	BLADE	134	n/a	n/a	0	0	0
700.642578125	n/a	WORD	1434916	wordpools/wasnorm_wordpool_576.txt	LTP347	ltpFR2	22	3	HATCHET	691	n/a	n/a	0	0	0
703.390625	n/a	WORD	1440544	wordpools/wasnorm_wordpool_576.txt	LTP347	ltpFR2	22	3	PASSAGE	1019	n/a	n/a	0	0	0
705.90673828125	n/a	WORD	1445697	wordpools/wasnorm_wordpool_576.txt	LTP347	ltpFR2	22	3	BINDER	127	n/a	n/a	0	0	0
708.6884765625	n/a	WORD	1451394	wordpools/wasnorm_wordpool_576.txt	LTP347	ltpFR2	22	3	COFFEE	341	n/a	n/a	0	0	0
711.4365234375	n/a	WORD	1457022	wordpools/wasnorm_wordpool_576.txt	LTP347	ltpFR2	22	3	WHISTLE	1606	n/a	n/a	0	0	0
713.9697265625	n/a	WORD	1462210	wordpools/wasnorm_wordpool_576.txt	LTP347	ltpFR2	22	3	SERVANT	1271	n/a	n/a	0	0	0
716.7177734375	n/a	WORD	1467838	wordpools/wasnorm_wordpool_576.txt	LTP347	ltpFR2	22	3	TYPIST	1532	n/a	n/a	0	0	0
719.4326171875	n/a	WORD	1473398	wordpools/wasnorm_wordpool_576.txt	LTP347	ltpFR2	22	3	CREATURE	403	n/a	n/a	0	0	0
721.9326171875	n/a	WORD	1478518	wordpools/wasnorm_wordpool_576.txt	LTP347	ltpFR2	22	3	CHIPMUNK	304	n/a	n/a	0	0	0
724.3974609375	n/a	WORD	1483566	wordpools/wasnorm_wordpool_576.txt	LTP347	ltpFR2	22	3	HIGHWAY	707	n/a	n/a	0	0	0
727.02978515625	n/a	WORD	1488957	wordpools/wasnorm_wordpool_576.txt	LTP347	ltpFR2	22	3	FLOWER	584	n/a	n/a	0	0	0
729.4775390625	n/a	WORD	1493970	wordpools/wasnorm_wordpool_576.txt	LTP347	ltpFR2	22	3	LAGOON	795	n/a	n/a	0	0	0
732.02685546875	n/a	WORD	1499191	wordpools/wasnorm_wordpool_576.txt	LTP347	ltpFR2	22	3	JOURNAL	760	n/a	n/a	0	0	0
733.642578125	n/a	START	1502500	n/a	LTP347	ltpFR2	22	n/a	n/a	n/a	5	n/a	n/a	n/a	n/a
734.7548828125	n/a	DISTRACTOR	1504778	n/a	LTP347	ltpFR2	22	3	n/a	n/a	n/a	n/a	0	0	0
734.7587890625	n/a	PROB	1504786	n/a	LTP347	ltpFR2	22	n/a	n/a	n/a	5	10	4	4	2
736.341796875	n/a	PROB	1508028	n/a	LTP347	ltpFR2	22	n/a	n/a	n/a	5	17	5	4	8
738.37353515625	n/a	PROB	1512189	n/a	LTP347	ltpFR2	22	n/a	n/a	n/a	5	13	7	4	2
739.6396484375	n/a	PROB	1514782	n/a	LTP347	ltpFR2	22	n/a	n/a	n/a	5	18	9	8	1
741.20556640625	n/a	PROB	1517989	n/a	LTP347	ltpFR2	22	n/a	n/a	n/a	5	22	7	9	6
743.337890625	n/a	PROB	1522356	n/a	LTP347	ltpFR2	22	n/a	n/a	n/a	5	21	9	8	4
744.82080078125	n/a	PROB	1525393	n/a	LTP347	ltpFR2	22	n/a	n/a	n/a	5	14	5	6	2
747.03564453125	n/a	PROB	1529929	n/a	LTP347	ltpFR2	22	n/a	n/a	n/a	5	21	7	6	8
750.001953125	n/a	PROB	1536004	n/a	LTP347	ltpFR2	22	n/a	n/a	n/a	5	7	4	2	1
751.2509765625	n/a	PROB	1538562	n/a	LTP347	ltpFR2	22	n/a	n/a	n/a	5	23	9	6	8
752.53369140625	n/a	PROB	1541189	n/a	LTP347	ltpFR2	22	n/a	n/a	n/a	5	15	7	5	3
753.8330078125	n/a	PROB	1543850	n/a	LTP347	ltpFR2	22	n/a	n/a	n/a	5	15	8	4	3
755.89892578125	n/a	PROB	1548081	n/a	LTP347	ltpFR2	22	n/a	n/a	n/a	5	20	9	2	9
756.998046875	n/a	STOP	1550332	n/a	LTP347	ltpFR2	22	n/a	n/a	n/a	5	n/a	n/a	n/a	n/a
759.48095703125	n/a	REC_START	1555417	n/a	LTP347	ltpFR2	22	3	n/a	n/a	n/a	n/a	0	0	0
761.1279296875	n/a	REC_WORD	1558790	wordpools/wasnorm_wordpool_576.txt	LTP347	ltpFR2	22	3	CREATURE	403	n/a	n/a	0	0	0
762.1318359375	n/a	REC_WORD	1560846	wordpools/wasnorm_wordpool_576.txt	LTP347	ltpFR2	22	3	CHIPMUNK	304	n/a	n/a	0	0	0
762.7158203125	n/a	REC_WORD	1562042	wordpools/wasnorm_wordpool_576.txt	LTP347	ltpFR2	22	3	HIGHWAY	707	n/a	n/a	0	0	0
763.259765625	n/a	REC_WORD	1563156	wordpools/wasnorm_wordpool_576.txt	LTP347	ltpFR2	22	3	FLOWER	584	n/a	n/a	0	0	0
775.14599609375	n/a	REC_WORD	1587499	wordpools/wasnorm_wordpool_576.txt	LTP347	ltpFR2	22	3	POLICE	1098	n/a	n/a	0	0	0
775.796875	n/a	REC_WORD	1588832	wordpools/wasnorm_wordpool_576.txt	LTP347	ltpFR2	22	3	SODA	1341	n/a	n/a	0	0	0
776.56005859375	n/a	REC_WORD	1590395	wordpools/wasnorm_wordpool_576.txt	LTP347	ltpFR2	22	3	LAMP	798	n/a	n/a	0	0	0
777.30322265625	n/a	REC_WORD	1591917	wordpools/wasnorm_wordpool_576.txt	LTP347	ltpFR2	22	3	GYMNAST	675	n/a	n/a	0	0	0
777.873046875	n/a	REC_WORD	1593084	wordpools/wasnorm_wordpool_576.txt	LTP347	ltpFR2	22	3	FOREHEAD	592	n/a	n/a	0	0	0
778.73095703125	n/a	REC_WORD	1594841	wordpools/wasnorm_wordpool_576.txt	LTP347	ltpFR2	22	3	POCKET	1093	n/a	n/a	0	0	0
779.30908203125	n/a	REC_WORD	1596025	wordpools/wasnorm_wordpool_576.txt	LTP347	ltpFR2	22	3	FOREST	593	n/a	n/a	0	0	0
780.81982421875	n/a	REC_WORD	1599119	wordpools/wasnorm_wordpool_576.txt	LTP347	ltpFR2	22	3	WAITRESS	1581	n/a	n/a	0	0	0
781.44921875	n/a	REC_WORD	1600408	wordpools/wasnorm_wordpool_576.txt	LTP347	ltpFR2	22	3	WASHER	1592	n/a	n/a	0	0	0
782.23291015625	n/a	REC_WORD	1602013	wordpools/wasnorm_wordpool_576.txt	LTP347	ltpFR2	22	3	SNACK	1331	n/a	n/a	0	0	0
783.27490234375	n/a	REC_WORD	1604147	wordpools/wasnorm_wordpool_576.txt	LTP347	ltpFR2	22	3	BLADE	134	n/a	n/a	0	0	0
783.9091796875	n/a	REC_WORD	1605446	wordpools/wasnorm_wordpool_576.txt	LTP347	ltpFR2	22	3	HATCHET	691	n/a	n/a	0	0	0
784.85302734375	n/a	REC_WORD	1607379	wordpools/wasnorm_wordpool_576.txt	LTP347	ltpFR2	22	3	PASSAGE	1019	n/a	n/a	0	0	0
786.60693359375	n/a	REC_WORD	1610971	wordpools/wasnorm_wordpool_576.txt	LTP347	ltpFR2	22	3	BINDER	127	n/a	n/a	0	0	0
787.1982421875	n/a	REC_WORD	1612182	wordpools/wasnorm_wordpool_576.txt	LTP347	ltpFR2	22	3	COFFEE	341	n/a	n/a	0	0	0
787.89697265625	n/a	REC_WORD	1613613	wordpools/wasnorm_wordpool_576.txt	LTP347	ltpFR2	22	3	WHISTLE	1606	n/a	n/a	0	0	0
788.47998046875	n/a	REC_WORD	1614807	wordpools/wasnorm_wordpool_576.txt	LTP347	ltpFR2	22	3	SERVANT	1271	n/a	n/a	0	0	0
789.2451171875	n/a	REC_WORD	1616374	wordpools/wasnorm_wordpool_576.txt	LTP347	ltpFR2	22	3	TYPIST	1532	n/a	n/a	0	0	0
849.9365234375	n/a	DISTRACTOR	1740670	n/a	LTP347	ltpFR2	22	4	n/a	n/a	n/a	n/a	0	0	0
849.9365234375	n/a	START	1740670	n/a	LTP347	ltpFR2	22	n/a	n/a	n/a	6	n/a	n/a	n/a	n/a
849.95361328125	n/a	PROB	1740705	n/a	LTP347	ltpFR2	22	n/a	n/a	n/a	6	16	6	4	6
851.3515625	n/a	PROB	1743568	n/a	LTP347	ltpFR2	22	n/a	n/a	n/a	6	15	9	1	5
852.45166015625	n/a	PROB	1745821	n/a	LTP347	ltpFR2	22	n/a	n/a	n/a	6	8	3	1	4
853.68359375	n/a	PROB	1748344	n/a	LTP347	ltpFR2	22	n/a	n/a	n/a	6	16	1	9	6
855.06640625	n/a	PROB	1751176	n/a	LTP347	ltpFR2	22	n/a	n/a	n/a	6	12	3	8	1
856.41552734375	n/a	PROB	1753939	n/a	LTP347	ltpFR2	22	n/a	n/a	n/a	6	16	5	9	2
857.53173828125	n/a	PROB	1756225	n/a	LTP347	ltpFR2	22	n/a	n/a	n/a	6	5	2	1	2
858.54833984375	n/a	PROB	1758307	n/a	LTP347	ltpFR2	22	n/a	n/a	n/a	6	14	6	4	4
859.99755859375	n/a	PROB	1761275	n/a	LTP347	ltpFR2	22	n/a	n/a	n/a	6	21	6	6	9
861.513671875	n/a	PROB	1764380	n/a	LTP347	ltpFR2	22	n/a	n/a	n/a	6	23	8	7	8
863.9296875	n/a	PROB	1769328	n/a	LTP347	ltpFR2	22	n/a	n/a	n/a	6	13	4	5	4
865.91162109375	n/a	PROB	1773387	n/a	LTP347	ltpFR2	22	n/a	n/a	n/a	6	15	7	1	7
867.37744140625	n/a	PROB	1776389	n/a	LTP347	ltpFR2	22	n/a	n/a	n/a	6	17	8	6	3
870.109375	n/a	PROB	1781984	n/a	LTP347	ltpFR2	22	n/a	n/a	n/a	6	14	3	8	3
873.9365234375	n/a	STOP	1789822	n/a	LTP347	ltpFR2	22	n/a	n/a	n/a	6	n/a	n/a	n/a	n/a
875.12353515625	n/a	WORD	1792253	wordpools/wasnorm_wordpool_576.txt	LTP347	ltpFR2	22	4	COUNTRY	388	n/a	n/a	0	0	0
877.87158203125	n/a	WORD	1797881	wordpools/wasnorm_wordpool_576.txt	LTP347	ltpFR2	22	4	BUREAU	199	n/a	n/a	0	0	0
880.587890625	n/a	WORD	1803444	wordpools/wasnorm_wordpool_576.txt	LTP347	ltpFR2	22	4	BANK	83	n/a	n/a	0	0	0
883.185546875	n/a	WORD	1808764	wordpools/wasnorm_wordpool_576.txt	LTP347	ltpFR2	22	4	BROTHER	179	n/a	n/a	0	0	0
885.90185546875	n/a	WORD	1814327	wordpools/wasnorm_wordpool_576.txt	LTP347	ltpFR2	22	4	TABLE	1426	n/a	n/a	0	0	0
888.3837890625	n/a	WORD	1819410	wordpools/wasnorm_wordpool_576.txt	LTP347	ltpFR2	22	4	DRESSER	496	n/a	n/a	0	0	0
890.8486328125	n/a	WORD	1824458	wordpools/wasnorm_wordpool_576.txt	LTP347	ltpFR2	22	4	TWEEZERS	1526	n/a	n/a	0	0	0
893.630859375	n/a	WORD	1830156	wordpools/wasnorm_wordpool_576.txt	LTP347	ltpFR2	22	4	WORLD	1622	n/a	n/a	0	0	0
896.462890625	n/a	WORD	1835956	wordpools/wasnorm_wordpool_576.txt	LTP347	ltpFR2	22	4	REPORT	1184	n/a	n/a	0	0	0
898.962890625	n/a	WORD	1841076	wordpools/wasnorm_wordpool_576.txt	LTP347	ltpFR2	22	4	GRAVE	658	n/a	n/a	0	0	0
901.66064453125	n/a	WORD	1846601	wordpools/wasnorm_wordpool_576.txt	LTP347	ltpFR2	22	4	PIMPLE	1071	n/a	n/a	0	0	0
904.458984375	n/a	WORD	1852332	wordpools/wasnorm_wordpool_576.txt	LTP347	ltpFR2	22	4	COLONEL	348	n/a	n/a	0	0	0
907.2080078125	n/a	WORD	1857962	wordpools/wasnorm_wordpool_576.txt	LTP347	ltpFR2	22	4	PICTURE	1061	n/a	n/a	0	0	0
909.73974609375	n/a	WORD	1863147	wordpools/wasnorm_wordpool_576.txt	LTP347	ltpFR2	22	4	ATLAS	53	n/a	n/a	0	0	0
912.18896484375	n/a	WORD	1868163	wordpools/wasnorm_wordpool_576.txt	LTP347	ltpFR2	22	4	VALLEY	1545	n/a	n/a	0	0	0
914.93798828125	n/a	WORD	1873793	wordpools/wasnorm_wordpool_576.txt	LTP347	ltpFR2	22	4	SLOPE	1328	n/a	n/a	0	0	0
917.369140625	n/a	WORD	1878772	wordpools/wasnorm_wordpool_576.txt	LTP347	ltpFR2	22	4	TURTLE	1522	n/a	n/a	0	0	0
919.90087890625	n/a	WORD	1883957	wordpools/wasnorm_wordpool_576.txt	LTP347	ltpFR2	22	4	RABBIT	1152	n/a	n/a	0	0	0
922.533203125	n/a	WORD	1889348	wordpools/wasnorm_wordpool_576.txt	LTP347	ltpFR2	22	4	WIDOW	1608	n/a	n/a	0	0	0
925.166015625	n/a	WORD	1894740	wordpools/wasnorm_wordpool_576.txt	LTP347	ltpFR2	22	4	PREACHER	1119	n/a	n/a	0	0	0
927.748046875	n/a	WORD	1900028	wordpools/wasnorm_wordpool_576.txt	LTP347	ltpFR2	22	4	LADDER	793	n/a	n/a	0	0	0
930.24609375	n/a	WORD	1905144	wordpools/wasnorm_wordpool_576.txt	LTP347	ltpFR2	22	4	MARINE	869	n/a	n/a	0	0	0
932.92919921875	n/a	WORD	1910639	wordpools/wasnorm_wordpool_576.txt	LTP347	ltpFR2	22	4	PATIENT	1024	n/a	n/a	0	0	0
935.626953125	n/a	WORD	1916164	wordpools/wasnorm_wordpool_576.txt	LTP347	ltpFR2	22	4	LABEL	790	n/a	n/a	0	0	0
937.2431640625	n/a	START	1919474	n/a	LTP347	ltpFR2	22	n/a	n/a	n/a	7	n/a	n/a	n/a	n/a
938.26806640625	n/a	DISTRACTOR	1921573	n/a	LTP347	ltpFR2	22	4	n/a	n/a	n/a	n/a	0	0	0
938.27587890625	n/a	PROB	1921589	n/a	LTP347	ltpFR2	22	n/a	n/a	n/a	7	6	1	1	4
939.34228515625	n/a	PROB	1923773	n/a	LTP347	ltpFR2	22	n/a	n/a	n/a	7	15	3	4	8
940.69091796875	n/a	PROB	1926535	n/a	LTP347	ltpFR2	22	n/a	n/a	n/a	7	8	3	2	3
942.92431640625	n/a	PROB	1931109	n/a	LTP347	ltpFR2	22	n/a	n/a	n/a	7	16	7	4	5
945.705078125	n/a	PROB	1936804	n/a	LTP347	ltpFR2	22	n/a	n/a	n/a	7	13	8	1	4
947.38818359375	n/a	PROB	1940251	n/a	LTP347	ltpFR2	22	n/a	n/a	n/a	7	19	7	7	5
948.5869140625	n/a	PROB	1942706	n/a	LTP347	ltpFR2	22	n/a	n/a	n/a	7	21	8	9	4
949.9541015625	n/a	PROB	1945506	n/a	LTP347	ltpFR2	22	n/a	n/a	n/a	7	13	1	3	9
951.119140625	n/a	PROB	1947892	n/a	LTP347	ltpFR2	22	n/a	n/a	n/a	7	19	8	6	5
953.43505859375	n/a	PROB	1952635	n/a	LTP347	ltpFR2	22	n/a	n/a	n/a	7	7	2	4	1
954.6513671875	n/a	PROB	1955126	n/a	LTP347	ltpFR2	22	n/a	n/a	n/a	7	11	7	2	2
955.93505859375	n/a	PROB	1957755	n/a	LTP347	ltpFR2	22	n/a	n/a	n/a	7	16	4	8	4
957.13330078125	n/a	PROB	1960209	n/a	LTP347	ltpFR2	22	n/a	n/a	n/a	7	18	5	4	9
958.88232421875	n/a	PROB	1963791	n/a	LTP347	ltpFR2	22	n/a	n/a	n/a	7	6	2	3	1
959.80712890625	n/a	STOP	1965685	n/a	LTP347	ltpFR2	22	n/a	n/a	n/a	7	n/a	n/a	n/a	n/a
963.03125	n/a	REC_START	1972288	n/a	LTP347	ltpFR2	22	4	n/a	n/a	n/a	n/a	0	0	0
964.35205078125	n/a	REC_WORD	1974993	wordpools/wasnorm_wordpool_576.txt	LTP347	ltpFR2	22	4	WIDOW	1608	n/a	n/a	0	0	0
964.8642578125	n/a	REC_WORD	1976042	wordpools/wasnorm_wordpool_576.txt	LTP347	ltpFR2	22	4	PREACHER	1119	n/a	n/a	0	0	0
965.47705078125	n/a	REC_WORD	1977297	wordpools/wasnorm_wordpool_576.txt	LTP347	ltpFR2	22	4	LADDER	793	n/a	n/a	0	0	0
965.92431640625	n/a	REC_WORD	1978213	wordpools/wasnorm_wordpool_576.txt	LTP347	ltpFR2	22	4	MARINE	869	n/a	n/a	0	0	0
966.6513671875	n/a	REC_WORD	1979702	wordpools/wasnorm_wordpool_576.txt	LTP347	ltpFR2	22	4	PATIENT	1024	n/a	n/a	0	0	0
971.115234375	n/a	REC_WORD	1988844	wordpools/wasnorm_wordpool_576.txt	LTP347	ltpFR2	22	4	COUNTRY	388	n/a	n/a	0	0	0
971.775390625	n/a	REC_WORD	1990196	wordpools/wasnorm_wordpool_576.txt	LTP347	ltpFR2	22	4	BUREAU	199	n/a	n/a	0	0	0
972.486328125	n/a	REC_WORD	1991652	wordpools/wasnorm_wordpool_576.txt	LTP347	ltpFR2	22	4	BANK	83	n/a	n/a	0	0	0
974.42529296875	n/a	REC_WORD	1995623	wordpools/wasnorm_wordpool_576.txt	LTP347	ltpFR2	22	4	BROTHER	179	n/a	n/a	0	0	0
975.1015625	n/a	REC_WORD	1997008	wordpools/wasnorm_wordpool_576.txt	LTP347	ltpFR2	22	4	TABLE	1426	n/a	n/a	0	0	0
978.21142578125	n/a	REC_WORD	2003377	wordpools/wasnorm_wordpool_576.txt	LTP347	ltpFR2	22	4	DRESSER	496	n/a	n/a	0	0	0
979.03125	n/a	REC_WORD	2005056	wordpools/wasnorm_wordpool_576.txt	LTP347	ltpFR2	22	4	TWEEZERS	1526	n/a	n/a	0	0	0
980.00830078125	n/a	REC_WORD	2007057	wordpools/wasnorm_wordpool_576.txt	LTP347	ltpFR2	22	4	WORLD	1622	n/a	n/a	0	0	0
981.439453125	n/a	REC_WORD	2009988	wordpools/wasnorm_wordpool_576.txt	LTP347	ltpFR2	22	4	GRAVE	658	n/a	n/a	0	0	0
981.87451171875	n/a	REC_WORD	2010879	wordpools/wasnorm_wordpool_576.txt	LTP347	ltpFR2	22	4	REPORT	1184	n/a	n/a	0	0	0
984.12548828125	n/a	REC_WORD	2015489	wordpools/wasnorm_wordpool_576.txt	LTP347	ltpFR2	22	4	VALLEY	1545	n/a	n/a	0	0	0
984.58740234375	n/a	REC_WORD	2016435	wordpools/wasnorm_wordpool_576.txt	LTP347	ltpFR2	22	4	SLOPE	1328	n/a	n/a	0	0	0
985.986328125	n/a	REC_WORD	2019300	wordpools/wasnorm_wordpool_576.txt	LTP347	ltpFR2	22	4	RABBIT	1152	n/a	n/a	0	0	0
986.61962890625	n/a	REC_WORD	2020597	wordpools/wasnorm_wordpool_576.txt	LTP347	ltpFR2	22	4	TURTLE	1522	n/a	n/a	0	0	0
987.7666015625	n/a	REC_WORD	2022946	wordpools/wasnorm_wordpool_576.txt	LTP347	ltpFR2	22	4	PIMPLE	1071	n/a	n/a	0	0	0
988.2666015625	n/a	REC_WORD	2023970	wordpools/wasnorm_wordpool_576.txt	LTP347	ltpFR2	22	4	COLONEL	348	n/a	n/a	0	0	0
995.70068359375	n/a	REC_WORD	2039195	wordpools/wasnorm_wordpool_576.txt	LTP347	ltpFR2	22	4	ATLAS	53	n/a	n/a	0	0	0
1053.48583984375	n/a	WORD	2157539	wordpools/wasnorm_wordpool_576.txt	LTP347	ltpFR2	22	5	CAMEL	223	n/a	n/a	0	0	0
1056.10107421875	n/a	WORD	2162895	wordpools/wasnorm_wordpool_576.txt	LTP347	ltpFR2	22	5	ZIPPER	1636	n/a	n/a	0	0	0
1058.8828125	n/a	WORD	2168592	wordpools/wasnorm_wordpool_576.txt	LTP347	ltpFR2	22	5	DENIM	446	n/a	n/a	0	0	0
1061.6318359375	n/a	WORD	2174222	wordpools/wasnorm_wordpool_576.txt	LTP347	ltpFR2	22	5	CASKET	255	n/a	n/a	0	0	0
1064.26416015625	n/a	WORD	2179613	wordpools/wasnorm_wordpool_576.txt	LTP347	ltpFR2	22	5	PEPPER	1047	n/a	n/a	0	0	0
1067.0791015625	n/a	WORD	2185378	wordpools/wasnorm_wordpool_576.txt	LTP347	ltpFR2	22	5	SALT	1229	n/a	n/a	0	0	0
1069.86083984375	n/a	WORD	2191075	wordpools/wasnorm_wordpool_576.txt	LTP347	ltpFR2	22	5	AIRPLANE	12	n/a	n/a	0	0	0
1072.4267578125	n/a	WORD	2196330	wordpools/wasnorm_wordpool_576.txt	LTP347	ltpFR2	22	5	KNAPSACK	783	n/a	n/a	0	0	0
1075.02490234375	n/a	WORD	2201651	wordpools/wasnorm_wordpool_576.txt	LTP347	ltpFR2	22	5	HIKER	708	n/a	n/a	0	0	0
1077.791015625	n/a	WORD	2207316	wordpools/wasnorm_wordpool_576.txt	LTP347	ltpFR2	22	5	DINER	467	n/a	n/a	0	0	0
1080.38916015625	n/a	WORD	2212637	wordpools/wasnorm_wordpool_576.txt	LTP347	ltpFR2	22	5	CUPBOARD	425	n/a	n/a	0	0	0
1083.13818359375	n/a	WORD	2218267	wordpools/wasnorm_wordpool_576.txt	LTP347	ltpFR2	22	5	BUGGY	188	n/a	n/a	0	0	0
1085.6201171875	n/a	WORD	2223350	wordpools/wasnorm_wordpool_576.txt	LTP347	ltpFR2	22	5	BOYFRIEND	162	n/a	n/a	0	0	0
1088.06884765625	n/a	WORD	2228365	wordpools/wasnorm_wordpool_576.txt	LTP347	ltpFR2	22	5	CASHEW	253	n/a	n/a	0	0	0
1090.80126953125	n/a	WORD	2233961	wordpools/wasnorm_wordpool_576.txt	LTP347	ltpFR2	22	5	GUARD	667	n/a	n/a	0	0	0
1093.3330078125	n/a	WORD	2239146	wordpools/wasnorm_wordpool_576.txt	LTP347	ltpFR2	22	5	THRONE	1461	n/a	n/a	0	0	0
1095.89794921875	n/a	WORD	2244399	wordpools/wasnorm_wordpool_576.txt	LTP347	ltpFR2	22	5	FRIEND	606	n/a	n/a	0	0	0
1098.68017578125	n/a	WORD	2250097	wordpools/wasnorm_wordpool_576.txt	LTP347	ltpFR2	22	5	AUTHOR	61	n/a	n/a	0	0	0
1101.21240234375	n/a	WORD	2255283	wordpools/wasnorm_wordpool_576.txt	LTP347	ltpFR2	22	5	HANDBAG	684	n/a	n/a	0	0	0
1104.04443359375	n/a	WORD	2261083	wordpools/wasnorm_wordpool_576.txt	LTP347	ltpFR2	22	5	GROUND	666	n/a	n/a	0	0	0
1106.76025390625	n/a	WORD	2266645	wordpools/wasnorm_wordpool_576.txt	LTP347	ltpFR2	22	5	SHERIFF	1284	n/a	n/a	0	0	0
1109.4580078125	n/a	WORD	2272170	wordpools/wasnorm_wordpool_576.txt	LTP347	ltpFR2	22	5	SHIRT	1287	n/a	n/a	0	0	0
1111.9072265625	n/a	WORD	2277186	wordpools/wasnorm_wordpool_576.txt	LTP347	ltpFR2	22	5	NEUTRON	947	n/a	n/a	0	0	0
1114.65625	n/a	WORD	2282816	wordpools/wasnorm_wordpool_576.txt	LTP347	ltpFR2	22	5	ELBOW	520	n/a	n/a	0	0	0
1116.2724609375	n/a	START	2286126	n/a	LTP347	ltpFR2	22	n/a	n/a	n/a	8	n/a	n/a	n/a	n/a
1117.09130859375	n/a	DISTRACTOR	2287803	n/a	LTP347	ltpFR2	22	5	n/a	n/a	n/a	n/a	0	0	0
1117.10546875	n/a	PROB	2287832	n/a	LTP347	ltpFR2	22	n/a	n/a	n/a	8	8	1	5	2
1118.4541015625	n/a	PROB	2290594	n/a	LTP347	ltpFR2	22	n/a	n/a	n/a	8	14	1	5	8
1121.1533203125	n/a	PROB	2296122	n/a	LTP347	ltpFR2	22	n/a	n/a	n/a	8	19	2	8	9
1122.435546875	n/a	PROB	2298748	n/a	LTP347	ltpFR2	22	n/a	n/a	n/a	8	14	6	5	3
1124.3681640625	n/a	PROB	2302706	n/a	LTP347	ltpFR2	22	n/a	n/a	n/a	8	11	5	4	2
1125.5673828125	n/a	PROB	2305162	n/a	LTP347	ltpFR2	22	n/a	n/a	n/a	8	23	8	9	6
1126.984375	n/a	PROB	2308064	n/a	LTP347	ltpFR2	22	n/a	n/a	n/a	8	17	4	6	7
1128.49951171875	n/a	PROB	2311167	n/a	LTP347	ltpFR2	22	n/a	n/a	n/a	8	10	2	2	6
1129.7822265625	n/a	PROB	2313794	n/a	LTP347	ltpFR2	22	n/a	n/a	n/a	8	21	7	9	5
1131.314453125	n/a	PROB	2316932	n/a	LTP347	ltpFR2	22	n/a	n/a	n/a	8	16	6	9	1
1132.66455078125	n/a	PROB	2319697	n/a	LTP347	ltpFR2	22	n/a	n/a	n/a	8	19	2	8	9
1133.896484375	n/a	PROB	2322220	n/a	LTP347	ltpFR2	22	n/a	n/a	n/a	8	15	3	9	3
1135.46240234375	n/a	PROB	2325427	n/a	LTP347	ltpFR2	22	n/a	n/a	n/a	8	19	8	3	8
1136.7783203125	n/a	PROB	2328122	n/a	LTP347	ltpFR2	22	n/a	n/a	n/a	8	12	3	7	2
1138.09423828125	n/a	PROB	2330817	n/a	LTP347	ltpFR2	22	n/a	n/a	n/a	8	11	1	5	5
1139.24853515625	n/a	STOP	2333181	n/a	LTP347	ltpFR2	22	n/a	n/a	n/a	8	n/a	n/a	n/a	n/a
1142.1435546875	n/a	REC_START	2339110	n/a	LTP347	ltpFR2	22	5	n/a	n/a	n/a	n/a	0	0	0
1142.66259765625	n/a	REC_WORD	2340173	wordpools/wasnorm_wordpool_576.txt	LTP347	ltpFR2	22	5	GUARD	667	n/a	n/a	0	0	0
1143.08740234375	n/a	REC_WORD	2341043	wordpools/wasnorm_wordpool_576.txt	LTP347	ltpFR2	22	5	THRONE	1461	n/a	n/a	0	0	0
1146.16845703125	n/a	REC_WORD	2347353	wordpools/wasnorm_wordpool_576.txt	LTP347	ltpFR2	22	5	HANDBAG	684	n/a	n/a	0	0	0
1147.13232421875	n/a	REC_WORD	2349327	wordpools/wasnorm_wordpool_576.txt	LTP347	ltpFR2	22	5	GROUND	666	n/a	n/a	0	0	0
1147.5556640625	n/a	REC_WORD	2350194	wordpools/wasnorm_wordpool_576.txt	LTP347	ltpFR2	22	5	SHERIFF	1284	n/a	n/a	0	0	0
1148.79541015625	n/a	REC_WORD	2352733	wordpools/wasnorm_wordpool_576.txt	LTP347	ltpFR2	22	5	NEUTRON	947	n/a	n/a	0	0	0
1149.9794921875	n/a	REC_WORD	2355158	wordpools/wasnorm_wordpool_576.txt	LTP347	ltpFR2	22	5	ELBOW	520	n/a	n/a	0	0	0
1155.20166015625	n/a	REC_WORD	2365853	wordpools/wasnorm_wordpool_576.txt	LTP347	ltpFR2	22	5	CAMEL	223	n/a	n/a	0	0	0
1156.9365234375	n/a	REC_WORD	2369406	wordpools/wasnorm_wordpool_576.txt	LTP347	ltpFR2	22	5	JEANS	752	n/a	n/a	0	0	0
1159.36669921875	n/a	REC_WORD_VV	2374383	wordpools/wasnorm_wordpool_576.txt	LTP347	ltpFR2	22	5	<>	-1	n/a	n/a	0	0	0
1159.7607421875	n/a	REC_WORD	2375190	wordpools/wasnorm_wordpool_576.txt	LTP347	ltpFR2	22	5	DENIM	446	n/a	n/a	0	0	0
1160.8857421875	n/a	REC_WORD	2377494	wordpools/wasnorm_wordpool_576.txt	LTP347	ltpFR2	22	5	ZIPPER	1636	n/a	n/a	0	0	0
1162.5166015625	n/a	REC_WORD	2380834	wordpools/wasnorm_wordpool_576.txt	LTP347	ltpFR2	22	5	CASKET	255	n/a	n/a	0	0	0
1163.146484375	n/a	REC_WORD	2382124	wordpools/wasnorm_wordpool_576.txt	LTP347	ltpFR2	22	5	SALT	1229	n/a	n/a	0	0	0
1163.53662109375	n/a	REC_WORD	2382923	wordpools/wasnorm_wordpool_576.txt	LTP347	ltpFR2	22	5	PEPPER	1047	n/a	n/a	0	0	0
1164.728515625	n/a	REC_WORD	2385364	wordpools/wasnorm_wordpool_576.txt	LTP347	ltpFR2	22	5	KNAPSACK	783	n/a	n/a	0	0	0
1165.36083984375	n/a	REC_WORD	2386659	wordpools/wasnorm_wordpool_576.txt	LTP347	ltpFR2	22	5	HIKER	708	n/a	n/a	0	0	0
1165.8818359375	n/a	REC_WORD	2387726	wordpools/wasnorm_wordpool_576.txt	LTP347	ltpFR2	22	5	DINNER	468	n/a	n/a	0	0	0
1167.0166015625	n/a	REC_WORD	2390050	wordpools/wasnorm_wordpool_576.txt	LTP347	ltpFR2	22	5	AIRPLANE	12	n/a	n/a	0	0	0
1173.00146484375	n/a	REC_WORD	2402307	wordpools/wasnorm_wordpool_576.txt	LTP347	ltpFR2	22	5	CABINET	212	n/a	n/a	0	0	0
1175.08544921875	n/a	REC_WORD	2406575	wordpools/wasnorm_wordpool_576.txt	LTP347	ltpFR2	22	5	BUGGY	188	n/a	n/a	0	0	0
1175.99658203125	n/a	REC_WORD	2408441	wordpools/wasnorm_wordpool_576.txt	LTP347	ltpFR2	22	5	BOYFRIEND	162	n/a	n/a	0	0	0
1176.74072265625	n/a	REC_WORD	2409965	wordpools/wasnorm_wordpool_576.txt	LTP347	ltpFR2	22	5	CASHEW	253	n/a	n/a	0	0	0
1232.58203125	n/a	DISTRACTOR	2524328	n/a	LTP347	ltpFR2	22	6	n/a	n/a	n/a	n/a	0	0	0
1232.58203125	n/a	START	2524328	n/a	LTP347	ltpFR2	22	n/a	n/a	n/a	9	n/a	n/a	n/a	n/a
1232.59814453125	n/a	PROB	2524361	n/a	LTP347	ltpFR2	22	n/a	n/a	n/a	9	13	6	6	1
1233.8642578125	n/a	PROB	2526954	n/a	LTP347	ltpFR2	22	n/a	n/a	n/a	9	1	4	5	1
1235.18017578125	n/a	PROB	2529649	n/a	LTP347	ltpFR2	22	n/a	n/a	n/a	9	16	7	3	6
1236.61328125	n/a	PROB	2532584	n/a	LTP347	ltpFR2	22	n/a	n/a	n/a	9	16	3	8	5
1237.947265625	n/a	PROB	2535316	n/a	LTP347	ltpFR2	22	n/a	n/a	n/a	9	21	6	9	6
1239.794921875	n/a	PROB	2539100	n/a	LTP347	ltpFR2	22	n/a	n/a	n/a	9	16	9	5	2
1241.09423828125	n/a	PROB	2541761	n/a	LTP347	ltpFR2	22	n/a	n/a	n/a	9	17	9	3	5
1242.9609375	n/a	PROB	2545584	n/a	LTP347	ltpFR2	22	n/a	n/a	n/a	9	9	1	6	2
1244.05908203125	n/a	PROB	2547833	n/a	LTP347	ltpFR2	22	n/a	n/a	n/a	9	8	4	2	2
1245.39208984375	n/a	PROB	2550563	n/a	LTP347	ltpFR2	22	n/a	n/a	n/a	9	15	3	8	4
1246.72509765625	n/a	PROB	2553293	n/a	LTP347	ltpFR2	22	n/a	n/a	n/a	9	10	5	4	1
1247.8740234375	n/a	PROB	2555646	n/a	LTP347	ltpFR2	22	n/a	n/a	n/a	9	9	4	4	1
1249.00732421875	n/a	PROB	2557967	n/a	LTP347	ltpFR2	22	n/a	n/a	n/a	9	26	8	9	9
1250.77294921875	n/a	PROB	2561583	n/a	LTP347	ltpFR2	22	n/a	n/a	n/a	9	18	6	9	3
1252.55517578125	n/a	PROB	2565233	n/a	LTP347	ltpFR2	22	n/a	n/a	n/a	9	23	8	6	9
1253.97216796875	n/a	PROB	2568135	n/a	LTP347	ltpFR2	22	n/a	n/a	n/a	9	19	9	7	3
1255.16943359375	n/a	STOP	2570587	n/a	LTP347	ltpFR2	22	n/a	n/a	n/a	9	n/a	n/a	n/a	n/a
1257.46923828125	n/a	WORD	2575297	wordpools/wasnorm_wordpool_576.txt	LTP347	ltpFR2	22	6	SKIRT	1319	n/a	n/a	0	0	0
1260.01806640625	n/a	WORD	2580517	wordpools/wasnorm_wordpool_576.txt	LTP347	ltpFR2	22	6	BOX	159	n/a	n/a	0	0	0
1262.76708984375	n/a	WORD	2586147	wordpools/wasnorm_wordpool_576.txt	LTP347	ltpFR2	22	6	PLATE	1086	n/a	n/a	0	0	0
1265.21533203125	n/a	WORD	2591161	wordpools/wasnorm_wordpool_576.txt	LTP347	ltpFR2	22	6	CANYON	235	n/a	n/a	0	0	0
1267.7314453125	n/a	WORD	2596314	wordpools/wasnorm_wordpool_576.txt	LTP347	ltpFR2	22	6	EUROPE	541	n/a	n/a	0	0	0
1270.3291015625	n/a	WORD	2601634	wordpools/wasnorm_wordpool_576.txt	LTP347	ltpFR2	22	6	VENUS	1557	n/a	n/a	0	0	0
1273.1611328125	n/a	WORD	2607434	wordpools/wasnorm_wordpool_576.txt	LTP347	ltpFR2	22	6	CLIMBER	323	n/a	n/a	0	0	0
1275.978515625	n/a	WORD	2613204	wordpools/wasnorm_wordpool_576.txt	LTP347	ltpFR2	22	6	TRANSPLANT	1496	n/a	n/a	0	0	0
1278.4423828125	n/a	WORD	2618250	wordpools/wasnorm_wordpool_576.txt	LTP347	ltpFR2	22	6	WAITER	1580	n/a	n/a	0	0	0
1281.04150390625	n/a	WORD	2623573	wordpools/wasnorm_wordpool_576.txt	LTP347	ltpFR2	22	6	BARLEY	88	n/a	n/a	0	0	0
1283.806640625	n/a	WORD	2629236	wordpools/wasnorm_wordpool_576.txt	LTP347	ltpFR2	22	6	FARMER	553	n/a	n/a	0	0	0
1286.62158203125	n/a	WORD	2635001	wordpools/wasnorm_wordpool_576.txt	LTP347	ltpFR2	22	6	BEEF	113	n/a	n/a	0	0	0
1289.3203125	n/a	WORD	2640528	wordpools/wasnorm_wordpool_576.txt	LTP347	ltpFR2	22	6	EGYPT	519	n/a	n/a	0	0	0
1291.8193359375	n/a	WORD	2645646	wordpools/wasnorm_wordpool_576.txt	LTP347	ltpFR2	22	6	TEMPLE	1448	n/a	n/a	0	0	0
1294.30126953125	n/a	WORD	2650729	wordpools/wasnorm_wordpool_576.txt	LTP347	ltpFR2	22	6	LACE	792	n/a	n/a	0	0	0
1296.80029296875	n/a	WORD	2655847	wordpools/wasnorm_wordpool_576.txt	LTP347	ltpFR2	22	6	SIBLING	1301	n/a	n/a	0	0	0
1299.265625	n/a	WORD	2660896	wordpools/wasnorm_wordpool_576.txt	LTP347	ltpFR2	22	6	HAWK	692	n/a	n/a	0	0	0
1301.79736328125	n/a	WORD	2666081	wordpools/wasnorm_wordpool_576.txt	LTP347	ltpFR2	22	6	JAPAN	749	n/a	n/a	0	0	0
1304.54638671875	n/a	WORD	2671711	wordpools/wasnorm_wordpool_576.txt	LTP347	ltpFR2	22	6	SAUSAGE	1238	n/a	n/a	0	0	0
1307.0283203125	n/a	WORD	2676794	wordpools/wasnorm_wordpool_576.txt	LTP347	ltpFR2	22	6	KNIFE	785	n/a	n/a	0	0	0
1309.84375	n/a	WORD	2682560	wordpools/wasnorm_wordpool_576.txt	LTP347	ltpFR2	22	6	SCULPTURE	1258	n/a	n/a	0	0	0
1312.5927734375	n/a	WORD	2688190	wordpools/wasnorm_wordpool_576.txt	LTP347	ltpFR2	22	6	OUTDOORS	987	n/a	n/a	0	0	0
1315.3408203125	n/a	WORD	2693818	wordpools/wasnorm_wordpool_576.txt	LTP347	ltpFR2	22	6	WRENCH	1625	n/a	n/a	0	0	0
1317.78955078125	n/a	WORD	2698833	wordpools/wasnorm_wordpool_576.txt	LTP347	ltpFR2	22	6	PLIERS	1089	n/a	n/a	0	0	0
1319.40576171875	n/a	START	2702143	n/a	LTP347	ltpFR2	22	n/a	n/a	n/a	10	n/a	n/a	n/a	n/a
1320.37548828125	n/a	DISTRACTOR	2704129	n/a	LTP347	ltpFR2	22	6	n/a	n/a	n/a	n/a	0	0	0
1320.388671875	n/a	PROB	2704156	n/a	LTP347	ltpFR2	22	n/a	n/a	n/a	10	22	5	9	8
1322.0048828125	n/a	PROB	2707466	n/a	LTP347	ltpFR2	22	n/a	n/a	n/a	10	16	8	3	5
1323.95458984375	n/a	PROB	2711459	n/a	LTP347	ltpFR2	22	n/a	n/a	n/a	10	74	1	1	5
1325.40283203125	n/a	PROB	2714425	n/a	LTP347	ltpFR2	22	n/a	n/a	n/a	10	6	2	2	2
1326.435546875	n/a	PROB	2716540	n/a	LTP347	ltpFR2	22	n/a	n/a	n/a	10	12	1	2	9
1327.9189453125	n/a	PROB	2719578	n/a	LTP347	ltpFR2	22	n/a	n/a	n/a	10	18	7	4	7
1330.11669921875	n/a	PROB	2724079	n/a	LTP347	ltpFR2	22	n/a	n/a	n/a	10	13	7	5	1
1331.69970703125	n/a	PROB	2727321	n/a	LTP347	ltpFR2	22	n/a	n/a	n/a	10	13	4	4	5
1334.03173828125	n/a	PROB	2732097	n/a	LTP347	ltpFR2	22	n/a	n/a	n/a	10	9	4	1	4
1335.2978515625	n/a	PROB	2734690	n/a	LTP347	ltpFR2	22	n/a	n/a	n/a	10	21	7	9	5
1337.263671875	n/a	PROB	2738716	n/a	LTP347	ltpFR2	22	n/a	n/a	n/a	10	20	8	9	3
1338.64697265625	n/a	PROB	2741549	n/a	LTP347	ltpFR2	22	n/a	n/a	n/a	10	18	9	4	5
1340.4287109375	n/a	PROB	2745198	n/a	LTP347	ltpFR2	22	n/a	n/a	n/a	10	13	2	9	2
1341.93896484375	n/a	STOP	2748291	n/a	LTP347	ltpFR2	22	n/a	n/a	n/a	10	n/a	n/a	n/a	n/a
1345.32666015625	n/a	REC_START	2755229	n/a	LTP347	ltpFR2	22	6	n/a	n/a	n/a	n/a	0	0	0
1346.625	n/a	REC_WORD	2757888	wordpools/wasnorm_wordpool_576.txt	LTP347	ltpFR2	22	6	EGYPT	519	n/a	n/a	0	0	0
1347.64501953125	n/a	REC_WORD	2759977	wordpools/wasnorm_wordpool_576.txt	LTP347	ltpFR2	22	6	TEMPLE	1448	n/a	n/a	0	0	0
1348.19775390625	n/a	REC_WORD	2761109	wordpools/wasnorm_wordpool_576.txt	LTP347	ltpFR2	22	6	LACE	792	n/a	n/a	0	0	0
1348.73291015625	n/a	REC_WORD	2762205	wordpools/wasnorm_wordpool_576.txt	LTP347	ltpFR2	22	6	JAPAN	749	n/a	n/a	0	0	0
1357.9541015625	n/a	REC_WORD	2781090	wordpools/wasnorm_wordpool_576.txt	LTP347	ltpFR2	22	6	SKIRT	1319	n/a	n/a	0	0	0
1358.65771484375	n/a	REC_WORD	2782531	wordpools/wasnorm_wordpool_576.txt	LTP347	ltpFR2	22	6	BOX	159	n/a	n/a	0	0	0
1359.90673828125	n/a	REC_WORD	2785089	wordpools/wasnorm_wordpool_576.txt	LTP347	ltpFR2	22	6	PLATE	1086	n/a	n/a	0	0	0
1360.40673828125	n/a	REC_WORD	2786113	wordpools/wasnorm_wordpool_576.txt	LTP347	ltpFR2	22	6	CANYON	235	n/a	n/a	0	0	0
1435.7822265625	n/a	WORD	2940482	wordpools/wasnorm_wordpool_576.txt	LTP347	ltpFR2	22	7	HOSTESS	723	n/a	n/a	0	0	0
1438.3642578125	n/a	WORD	2945770	wordpools/wasnorm_wordpool_576.txt	LTP347	ltpFR2	22	7	PRIMATE	1123	n/a	n/a	0	0	0
1440.8466796875	n/a	WORD	2950854	wordpools/wasnorm_wordpool_576.txt	LTP347	ltpFR2	22	7	LUMBER	848	n/a	n/a	0	0	0
1443.46142578125	n/a	WORD	2956209	wordpools/wasnorm_wordpool_576.txt	LTP347	ltpFR2	22	7	HEDGE	699	n/a	n/a	0	0	0
1446.0107421875	n/a	WORD	2961430	wordpools/wasnorm_wordpool_576.txt	LTP347	ltpFR2	22	7	EMPIRE	530	n/a	n/a	0	0	0
1448.7255859375	n/a	WORD	2966990	wordpools/wasnorm_wordpool_576.txt	LTP347	ltpFR2	22	7	PERCH	1048	n/a	n/a	0	0	0
1451.19140625	n/a	WORD	2972040	wordpools/wasnorm_wordpool_576.txt	LTP347	ltpFR2	22	7	GOBLIN	645	n/a	n/a	0	0	0
1453.7734375	n/a	WORD	2977328	wordpools/wasnorm_wordpool_576.txt	LTP347	ltpFR2	22	7	KETCHUP	771	n/a	n/a	0	0	0
1456.53857421875	n/a	WORD	2982991	wordpools/wasnorm_wordpool_576.txt	LTP347	ltpFR2	22	7	WASP	1593	n/a	n/a	0	0	0
1459.08740234375	n/a	WORD	2988211	wordpools/wasnorm_wordpool_576.txt	LTP347	ltpFR2	22	7	SPIDER	1351	n/a	n/a	0	0	0
1461.83544921875	n/a	WORD	2993839	wordpools/wasnorm_wordpool_576.txt	LTP347	ltpFR2	22	7	LOFT	840	n/a	n/a	0	0	0
1464.65185546875	n/a	WORD	2999607	wordpools/wasnorm_wordpool_576.txt	LTP347	ltpFR2	22	7	SNAIL	1332	n/a	n/a	0	0	0
1467.43359375	n/a	WORD	3005304	wordpools/wasnorm_wordpool_576.txt	LTP347	ltpFR2	22	7	INFANT	737	n/a	n/a	0	0	0
1469.8984375	n/a	WORD	3010352	wordpools/wasnorm_wordpool_576.txt	LTP347	ltpFR2	22	7	MATCH	878	n/a	n/a	0	0	0
1472.53076171875	n/a	WORD	3015743	wordpools/wasnorm_wordpool_576.txt	LTP347	ltpFR2	22	7	CRUTCH	417	n/a	n/a	0	0	0
1475.095703125	n/a	WORD	3020996	wordpools/wasnorm_wordpool_576.txt	LTP347	ltpFR2	22	7	MATTRESS	879	n/a	n/a	0	0	0
1477.8779296875	n/a	WORD	3026694	wordpools/wasnorm_wordpool_576.txt	LTP347	ltpFR2	22	7	HUMAN	726	n/a	n/a	0	0	0
1480.4599609375	n/a	WORD	3031982	wordpools/wasnorm_wordpool_576.txt	LTP347	ltpFR2	22	7	PASTRY	1022	n/a	n/a	0	0	0
1482.892578125	n/a	WORD	3036964	wordpools/wasnorm_wordpool_576.txt	LTP347	ltpFR2	22	7	ICING	732	n/a	n/a	0	0	0
1485.625	n/a	WORD	3042560	wordpools/wasnorm_wordpool_576.txt	LTP347	ltpFR2	22	7	BUNNY	198	n/a	n/a	0	0	0
1488.2568359375	n/a	WORD	3047950	wordpools/wasnorm_wordpool_576.txt	LTP347	ltpFR2	22	7	GRILL	661	n/a	n/a	0	0	0
1491.0048828125	n/a	WORD	3053578	wordpools/wasnorm_wordpool_576.txt	LTP347	ltpFR2	22	7	FLASHLIGHT	575	n/a	n/a	0	0	0
1493.5537109375	n/a	WORD	3058798	wordpools/wasnorm_wordpool_576.txt	LTP347	ltpFR2	22	7	POWDER	1117	n/a	n/a	0	0	0
1496.36865234375	n/a	WORD	3064563	wordpools/wasnorm_wordpool_576.txt	LTP347	ltpFR2	22	7	FEMALE	559	n/a	n/a	0	0	0
1497.98583984375	n/a	START	3067875	n/a	LTP347	ltpFR2	22	n/a	n/a	n/a	11	n/a	n/a	n/a	n/a
1498.89501953125	n/a	DISTRACTOR	3069737	n/a	LTP347	ltpFR2	22	7	n/a	n/a	n/a	n/a	0	0	0
1498.90087890625	n/a	PROB	3069749	n/a	LTP347	ltpFR2	22	n/a	n/a	n/a	11	7	3	3	1
1500.28369140625	n/a	PROB	3072581	n/a	LTP347	ltpFR2	22	n/a	n/a	n/a	11	22	6	7	8
1501.8330078125	n/a	PROB	3075754	n/a	LTP347	ltpFR2	22	n/a	n/a	n/a	11	11	1	7	3
1502.89892578125	n/a	PROB	3077937	n/a	LTP347	ltpFR2	22	n/a	n/a	n/a	11	100	2	3	5
1504.71484375	n/a	PROB	3081656	n/a	LTP347	ltpFR2	22	n/a	n/a	n/a	11	9	1	2	6
1506.796875	n/a	PROB	3085920	n/a	LTP347	ltpFR2	22	n/a	n/a	n/a	11	12	1	9	2
1507.9130859375	n/a	PROB	3088206	n/a	LTP347	ltpFR2	22	n/a	n/a	n/a	11	14	1	9	4
1509.62890625	n/a	PROB	3091720	n/a	LTP347	ltpFR2	22	n/a	n/a	n/a	11	16	6	4	6
1510.7451171875	n/a	PROB	3094006	n/a	LTP347	ltpFR2	22	n/a	n/a	n/a	11	9	2	2	5
1512.0947265625	n/a	PROB	3096770	n/a	LTP347	ltpFR2	22	n/a	n/a	n/a	11	20	9	3	8
1513.61083984375	n/a	PROB	3099875	n/a	LTP347	ltpFR2	22	n/a	n/a	n/a	11	17	7	5	5
1514.9609375	n/a	PROB	3102640	n/a	LTP347	ltpFR2	22	n/a	n/a	n/a	11	7	5	1	1
1516.5087890625	n/a	PROB	3105810	n/a	LTP347	ltpFR2	22	n/a	n/a	n/a	11	7	3	2	2
1518.30810546875	n/a	PROB	3109495	n/a	LTP347	ltpFR2	22	n/a	n/a	n/a	11	7	4	1	2
1519.5078125	n/a	PROB	3111952	n/a	LTP347	ltpFR2	22	n/a	n/a	n/a	11	21	7	6	8
1520.9638671875	n/a	STOP	3114934	n/a	LTP347	ltpFR2	22	n/a	n/a	n/a	11	n/a	n/a	n/a	n/a
1523.873046875	n/a	REC_START	3120892	n/a	LTP347	ltpFR2	22	7	n/a	n/a	n/a	n/a	0	0	0
1595.779296875	n/a	REC_WORD	3268156	wordpools/wasnorm_wordpool_576.txt	LTP347	ltpFR2	22	7	GOBLIN	645	n/a	n/a	0	0	0
1614.36181640625	n/a	WORD	3306213	wordpools/wasnorm_wordpool_576.txt	LTP347	ltpFR2	22	8	ORANGE	980	n/a	n/a	0	0	0
1616.85986328125	n/a	WORD	3311329	wordpools/wasnorm_wordpool_576.txt	LTP347	ltpFR2	22	8	APPLE	33	n/a	n/a	0	0	0
1619.35888671875	n/a	WORD	3316447	wordpools/wasnorm_wordpool_576.txt	LTP347	ltpFR2	22	8	CABBAGE	210	n/a	n/a	0	0	0
1622.02392578125	n/a	WORD	3321905	wordpools/wasnorm_wordpool_576.txt	LTP347	ltpFR2	22	8	PARSLEY	1016	n/a	n/a	0	0	0
1624.52294921875	n/a	WORD	3327023	wordpools/wasnorm_wordpool_576.txt	LTP347	ltpFR2	22	8	ONION	977	n/a	n/a	0	0	0
1627.20458984375	n/a	WORD	3332515	wordpools/wasnorm_wordpool_576.txt	LTP347	ltpFR2	22	8	MEAT	883	n/a	n/a	0	0	0
1629.87060546875	n/a	WORD	3337975	wordpools/wasnorm_wordpool_576.txt	LTP347	ltpFR2	22	8	SISTER	1312	n/a	n/a	0	0	0
1632.435546875	n/a	WORD	3343228	wordpools/wasnorm_wordpool_576.txt	LTP347	ltpFR2	22	8	COD	340	n/a	n/a	0	0	0
1635.15087890625	n/a	WORD	3348789	wordpools/wasnorm_wordpool_576.txt	LTP347	ltpFR2	22	8	POSSUM	1112	n/a	n/a	0	0	0
1637.93359375	n/a	WORD	3354488	wordpools/wasnorm_wordpool_576.txt	LTP347	ltpFR2	22	8	HORNET	718	n/a	n/a	0	0	0
1640.56494140625	n/a	WORD	3359877	wordpools/wasnorm_wordpool_576.txt	LTP347	ltpFR2	22	8	DENTIST	447	n/a	n/a	0	0	0
1643.013671875	n/a	WORD	3364892	wordpools/wasnorm_wordpool_576.txt	LTP347	ltpFR2	22	8	PADDLE	1000	n/a	n/a	0	0	0
1645.72900390625	n/a	WORD	3370453	wordpools/wasnorm_wordpool_576.txt	LTP347	ltpFR2	22	8	SCALLOP	1242	n/a	n/a	0	0	0
1648.44482421875	n/a	WORD	3376015	wordpools/wasnorm_wordpool_576.txt	LTP347	ltpFR2	22	8	ITEM	746	n/a	n/a	0	0	0
1650.876953125	n/a	WORD	3380996	wordpools/wasnorm_wordpool_576.txt	LTP347	ltpFR2	22	8	LIVER	833	n/a	n/a	0	0	0
1653.625	n/a	WORD	3386624	wordpools/wasnorm_wordpool_576.txt	LTP347	ltpFR2	22	8	BEAVER	109	n/a	n/a	0	0	0
1656.39111328125	n/a	WORD	3392289	wordpools/wasnorm_wordpool_576.txt	LTP347	ltpFR2	22	8	JUGGLER	763	n/a	n/a	0	0	0
1659.13916015625	n/a	WORD	3397917	wordpools/wasnorm_wordpool_576.txt	LTP347	ltpFR2	22	8	MUFFIN	929	n/a	n/a	0	0	0
1661.72119140625	n/a	WORD	3403205	wordpools/wasnorm_wordpool_576.txt	LTP347	ltpFR2	22	8	PEANUT	1032	n/a	n/a	0	0	0
1664.22021484375	n/a	WORD	3408323	wordpools/wasnorm_wordpool_576.txt	LTP347	ltpFR2	22	8	CANAL	226	n/a	n/a	0	0	0
1666.93603515625	n/a	WORD	3413885	wordpools/wasnorm_wordpool_576.txt	LTP347	ltpFR2	22	8	SCRIBBLE	1256	n/a	n/a	0	0	0
1669.43408203125	n/a	WORD	3419001	wordpools/wasnorm_wordpool_576.txt	LTP347	ltpFR2	22	8	BANKER	84	n/a	n/a	0	0	0
1672.18310546875	n/a	WORD	3424631	wordpools/wasnorm_wordpool_576.txt	LTP347	ltpFR2	22	8	COBRA	336	n/a	n/a	0	0	0
1674.880859375	n/a	WORD	3430156	wordpools/wasnorm_wordpool_576.txt	LTP347	ltpFR2	22	8	CRATER	400	n/a	n/a	0	0	0
1676.498046875	n/a	START	3433468	n/a	LTP347	ltpFR2	22	n/a	n/a	n/a	12	n/a	n/a	n/a	n/a
1677.69287109375	n/a	DISTRACTOR	3435915	n/a	LTP347	ltpFR2	22	8	n/a	n/a	n/a	n/a	0	0	0
1677.697265625	n/a	PROB	3435924	n/a	LTP347	ltpFR2	22	n/a	n/a	n/a	12	23	6	9	8
1679.0458984375	n/a	PROB	3438686	n/a	LTP347	ltpFR2	22	n/a	n/a	n/a	12	8	2	1	5
1680.4619140625	n/a	PROB	3441586	n/a	LTP347	ltpFR2	22	n/a	n/a	n/a	12	18	9	4	5
1682.0283203125	n/a	PROB	3444794	n/a	LTP347	ltpFR2	22	n/a	n/a	n/a	12	24	9	9	6
1683.42724609375	n/a	PROB	3447659	n/a	LTP347	ltpFR2	22	n/a	n/a	n/a	12	12	3	8	1
1684.6103515625	n/a	PROB	3450082	n/a	LTP347	ltpFR2	22	n/a	n/a	n/a	12	16	8	2	6
1685.84326171875	n/a	PROB	3452607	n/a	LTP347	ltpFR2	22	n/a	n/a	n/a	12	11	2	2	7
1687.42529296875	n/a	PROB	3455847	n/a	LTP347	ltpFR2	22	n/a	n/a	n/a	12	12	3	8	1
1688.50830078125	n/a	PROB	3458065	n/a	LTP347	ltpFR2	22	n/a	n/a	n/a	12	1	3	7	9
1689.70703125	n/a	PROB	3460520	n/a	LTP347	ltpFR2	22	n/a	n/a	n/a	12	24	8	7	9
1691.27294921875	n/a	PROB	3463727	n/a	LTP347	ltpFR2	22	n/a	n/a	n/a	12	14	4	9	1
1692.92333984375	n/a	PROB	3467107	n/a	LTP347	ltpFR2	22	n/a	n/a	n/a	12	11	3	7	1
1694.05517578125	n/a	PROB	3469425	n/a	LTP347	ltpFR2	22	n/a	n/a	n/a	12	18	3	7	8
1696.4873046875	n/a	PROB	3474406	n/a	LTP347	ltpFR2	22	n/a	n/a	n/a	12	11	8	2	1
1698.55322265625	n/a	PROB	3478637	n/a	LTP347	ltpFR2	22	n/a	n/a	n/a	12	11	4	6	1
1699.8603515625	n/a	STOP	3481314	n/a	LTP347	ltpFR2	22	n/a	n/a	n/a	12	n/a	n/a	n/a	n/a
1702.318359375	n/a	REC_START	3486348	n/a	LTP347	ltpFR2	22	8	n/a	n/a	n/a	n/a	0	0	0
1703.13232421875	n/a	REC_WORD	3488015	wordpools/wasnorm_wordpool_576.txt	LTP347	ltpFR2	22	8	APPLE	33	n/a	n/a	0	0	0
1703.611328125	n/a	REC_WORD	3488996	wordpools/wasnorm_wordpool_576.txt	LTP347	ltpFR2	22	8	ORANGE	980	n/a	n/a	0	0	0
1704.248046875	n/a	REC_WORD	3490300	wordpools/wasnorm_wordpool_576.txt	LTP347	ltpFR2	22	8	CABBAGE	210	n/a	n/a	0	0	0
1704.91748046875	n/a	REC_WORD	3491671	wordpools/wasnorm_wordpool_576.txt	LTP347	ltpFR2	22	8	PARSLEY	1016	n/a	n/a	0	0	0
1705.89306640625	n/a	REC_WORD	3493669	wordpools/wasnorm_wordpool_576.txt	LTP347	ltpFR2	22	8	MEAT	883	n/a	n/a	0	0	0
1706.33837890625	n/a	REC_WORD	3494581	wordpools/wasnorm_wordpool_576.txt	LTP347	ltpFR2	22	8	SISTER	1312	n/a	n/a	0	0	0
1709.37744140625	n/a	REC_WORD	3500805	wordpools/wasnorm_wordpool_576.txt	LTP347	ltpFR2	22	8	COD	340	n/a	n/a	0	0	0
1714.3193359375	n/a	REC_WORD	3510926	wordpools/wasnorm_wordpool_576.txt	LTP347	ltpFR2	22	8	POSSUM	1112	n/a	n/a	0	0	0
1715.01318359375	n/a	REC_WORD	3512347	wordpools/wasnorm_wordpool_576.txt	LTP347	ltpFR2	22	8	HORNET	718	n/a	n/a	0	0	0
1716.26025390625	n/a	REC_WORD	3514901	wordpools/wasnorm_wordpool_576.txt	LTP347	ltpFR2	22	8	DENTIST	447	n/a	n/a	0	0	0
1716.9052734375	n/a	REC_WORD	3516222	wordpools/wasnorm_wordpool_576.txt	LTP347	ltpFR2	22	8	PADDLE	1000	n/a	n/a	0	0	0
1720.2392578125	n/a	REC_WORD	3523050	wordpools/wasnorm_wordpool_576.txt	LTP347	ltpFR2	22	8	LIVER	833	n/a	n/a	0	0	0
1722.41748046875	n/a	REC_WORD	3527511	wordpools/wasnorm_wordpool_576.txt	LTP347	ltpFR2	22	8	BEAVER	109	n/a	n/a	0	0	0
1723.18115234375	n/a	REC_WORD	3529075	wordpools/wasnorm_wordpool_576.txt	LTP347	ltpFR2	22	8	JUGGLER	763	n/a	n/a	0	0	0
1724.16259765625	n/a	REC_WORD	3531085	wordpools/wasnorm_wordpool_576.txt	LTP347	ltpFR2	22	8	MUFFIN	929	n/a	n/a	0	0	0
1731.8564453125	n/a	REC_WORD	3546842	wordpools/wasnorm_wordpool_576.txt	LTP347	ltpFR2	22	8	PEANUT	1032	n/a	n/a	0	0	0
1733.2802734375	n/a	REC_WORD	3549758	wordpools/wasnorm_wordpool_576.txt	LTP347	ltpFR2	22	8	PASSAGE	1019	n/a	n/a	0	0	0
1778.86376953125	n/a	REST_REWET	3643113	n/a	LTP347	ltpFR2	22	8	n/a	n/a	n/a	n/a	0	0	0
1821.52587890625	n/a	WORD	3730485	wordpools/wasnorm_wordpool_576.txt	LTP347	ltpFR2	22	9	GAZELLE	628	n/a	n/a	0	0	0
1824.10791015625	n/a	WORD	3735773	wordpools/wasnorm_wordpool_576.txt	LTP347	ltpFR2	22	9	CIGAR	308	n/a	n/a	0	0	0
1826.60693359375	n/a	WORD	3740891	wordpools/wasnorm_wordpool_576.txt	LTP347	ltpFR2	22	9	RELISH	1183	n/a	n/a	0	0	0
1829.0732421875	n/a	WORD	3745942	wordpools/wasnorm_wordpool_576.txt	LTP347	ltpFR2	22	9	PIGEON	1065	n/a	n/a	0	0	0
1831.587890625	n/a	WORD	3751092	wordpools/wasnorm_wordpool_576.txt	LTP347	ltpFR2	22	9	MESSAGE	888	n/a	n/a	0	0	0
1834.1533203125	n/a	WORD	3756346	wordpools/wasnorm_wordpool_576.txt	LTP347	ltpFR2	22	9	RUST	1219	n/a	n/a	0	0	0
1836.8349609375	n/a	WORD	3761838	wordpools/wasnorm_wordpool_576.txt	LTP347	ltpFR2	22	9	ANTLER	29	n/a	n/a	0	0	0
1839.46728515625	n/a	WORD	3767229	wordpools/wasnorm_wordpool_576.txt	LTP347	ltpFR2	22	9	MAILBOX	857	n/a	n/a	0	0	0
1842.0830078125	n/a	WORD	3772586	wordpools/wasnorm_wordpool_576.txt	LTP347	ltpFR2	22	9	SCISSORS	1250	n/a	n/a	0	0	0
1844.748046875	n/a	WORD	3778044	wordpools/wasnorm_wordpool_576.txt	LTP347	ltpFR2	22	9	PERMIT	1051	n/a	n/a	0	0	0
1847.21435546875	n/a	WORD	3783095	wordpools/wasnorm_wordpool_576.txt	LTP347	ltpFR2	22	9	SHOVEL	1295	n/a	n/a	0	0	0
1849.71240234375	n/a	WORD	3788211	wordpools/wasnorm_wordpool_576.txt	LTP347	ltpFR2	22	9	YARN	1631	n/a	n/a	0	0	0
1852.47802734375	n/a	WORD	3793875	wordpools/wasnorm_wordpool_576.txt	LTP347	ltpFR2	22	9	DUSTPAN	509	n/a	n/a	0	0	0
1854.9443359375	n/a	WORD	3798926	wordpools/wasnorm_wordpool_576.txt	LTP347	ltpFR2	22	9	LONDON	843	n/a	n/a	0	0	0
1857.67529296875	n/a	WORD	3804519	wordpools/wasnorm_wordpool_576.txt	LTP347	ltpFR2	22	9	FUNGUS	614	n/a	n/a	0	0	0
1860.32421875	n/a	WORD	3809944	wordpools/wasnorm_wordpool_576.txt	LTP347	ltpFR2	22	9	TURNIP	1521	n/a	n/a	0	0	0
1863.12255859375	n/a	WORD	3815675	wordpools/wasnorm_wordpool_576.txt	LTP347	ltpFR2	22	9	WHISKERS	1605	n/a	n/a	0	0	0
1865.63818359375	n/a	WORD	3820827	wordpools/wasnorm_wordpool_576.txt	LTP347	ltpFR2	22	9	INMATE	738	n/a	n/a	0	0	0
1868.2705078125	n/a	WORD	3826218	wordpools/wasnorm_wordpool_576.txt	LTP347	ltpFR2	22	9	CONVICT	371	n/a	n/a	0	0	0
1870.75244140625	n/a	WORD	3831301	wordpools/wasnorm_wordpool_576.txt	LTP347	ltpFR2	22	9	STREAM	1392	n/a	n/a	0	0	0
1873.25146484375	n/a	WORD	3836419	wordpools/wasnorm_wordpool_576.txt	LTP347	ltpFR2	22	9	SUPPER	1411	n/a	n/a	0	0	0
1875.83349609375	n/a	WORD	3841707	wordpools/wasnorm_wordpool_576.txt	LTP347	ltpFR2	22	9	SPOON	1357	n/a	n/a	0	0	0
1878.2822265625	n/a	WORD	3846722	wordpools/wasnorm_wordpool_576.txt	LTP347	ltpFR2	22	9	MARSH	874	n/a	n/a	0	0	0
1881.0146484375	n/a	WORD	3852318	wordpools/wasnorm_wordpool_576.txt	LTP347	ltpFR2	22	9	STICKER	1382	n/a	n/a	0	0	0
1882.62939453125	n/a	START	3855625	n/a	LTP347	ltpFR2	22	n/a	n/a	n/a	13	n/a	n/a	n/a	n/a
1883.693359375	n/a	DISTRACTOR	3857804	n/a	LTP347	ltpFR2	22	9	n/a	n/a	n/a	n/a	0	0	0
1883.6953125	n/a	PROB	3857808	n/a	LTP347	ltpFR2	22	n/a	n/a	n/a	13	12	2	4	6
1885.095703125	n/a	PROB	3860676	n/a	LTP347	ltpFR2	22	n/a	n/a	n/a	13	15	3	7	5
1886.46142578125	n/a	PROB	3863473	n/a	LTP347	ltpFR2	22	n/a	n/a	n/a	13	17	5	9	3
1888.59326171875	n/a	PROB	3867839	n/a	LTP347	ltpFR2	22	n/a	n/a	n/a	13	16	1	7	8
1889.927734375	n/a	PROB	3870572	n/a	LTP347	ltpFR2	22	n/a	n/a	n/a	13	19	6	7	6
1892.1083984375	n/a	PROB	3875038	n/a	LTP347	ltpFR2	22	n/a	n/a	n/a	13	16	9	3	4
1893.94140625	n/a	PROB	3878792	n/a	LTP347	ltpFR2	22	n/a	n/a	n/a	13	11	5	4	2
1895.32373046875	n/a	PROB	3881623	n/a	LTP347	ltpFR2	22	n/a	n/a	n/a	13	20	9	5	6
1896.83935546875	n/a	PROB	3884727	n/a	LTP347	ltpFR2	22	n/a	n/a	n/a	13	15	4	6	5
1898.20556640625	n/a	PROB	3887525	n/a	LTP347	ltpFR2	22	n/a	n/a	n/a	13	21	4	9	8
1899.50439453125	n/a	PROB	3890185	n/a	LTP347	ltpFR2	22	n/a	n/a	n/a	13	9	2	3	4
1901.3037109375	n/a	PROB	3893870	n/a	LTP347	ltpFR2	22	n/a	n/a	n/a	13	11	5	5	1
1902.40380859375	n/a	PROB	3896123	n/a	LTP347	ltpFR2	22	n/a	n/a	n/a	13	11	1	9	1
1903.51953125	n/a	PROB	3898408	n/a	LTP347	ltpFR2	22	n/a	n/a	n/a	13	10	6	2	2
1905.62939453125	n/a	STOP	3902729	n/a	LTP347	ltpFR2	22	n/a	n/a	n/a	13	n/a	n/a	n/a	n/a
1908.5517578125	n/a	REC_START	3908714	n/a	LTP347	ltpFR2	22	9	n/a	n/a	n/a	n/a	0	0	0
1909.25048828125	n/a	REC_WORD	3910145	wordpools/wasnorm_wordpool_576.txt	LTP347	ltpFR2	22	9	WHISKERS	1605	n/a	n/a	0	0	0
1910.28955078125	n/a	REC_WORD	3912273	wordpools/wasnorm_wordpool_576.txt	LTP347	ltpFR2	22	9	TURNIP	1521	n/a	n/a	0	0	0
1910.87744140625	n/a	REC_WORD	3913477	wordpools/wasnorm_wordpool_576.txt	LTP347	ltpFR2	22	9	FUNGUS	614	n/a	n/a	0	0	0
1912.607421875	n/a	REC_WORD	3917020	wordpools/wasnorm_wordpool_576.txt	LTP347	ltpFR2	22	9	STREAM	1392	n/a	n/a	0	0	0
1913.27783203125	n/a	REC_WORD	3918393	wordpools/wasnorm_wordpool_576.txt	LTP347	ltpFR2	22	9	SUPPER	1411	n/a	n/a	0	0	0
1915.27587890625	n/a	REC_WORD	3922485	wordpools/wasnorm_wordpool_576.txt	LTP347	ltpFR2	22	9	LONDON	843	n/a	n/a	0	0	0
1920.015625	n/a	REC_WORD	3932192	wordpools/wasnorm_wordpool_576.txt	LTP347	ltpFR2	22	9	GAZELLE	628	n/a	n/a	0	0	0
1920.50048828125	n/a	REC_WORD	3933185	wordpools/wasnorm_wordpool_576.txt	LTP347	ltpFR2	22	9	CIGAR	308	n/a	n/a	0	0	0
1921.25048828125	n/a	REC_WORD	3934721	wordpools/wasnorm_wordpool_576.txt	LTP347	ltpFR2	22	9	RELISH	1183	n/a	n/a	0	0	0
1923.28466796875	n/a	REC_WORD	3938887	wordpools/wasnorm_wordpool_576.txt	LTP347	ltpFR2	22	9	PIGEON	1065	n/a	n/a	0	0	0
1923.73388671875	n/a	REC_WORD	3939807	wordpools/wasnorm_wordpool_576.txt	LTP347	ltpFR2	22	9	MESSAGE	888	n/a	n/a	0	0	0
1925.00390625	n/a	REC_WORD	3942408	wordpools/wasnorm_wordpool_576.txt	LTP347	ltpFR2	22	9	RUST	1219	n/a	n/a	0	0	0
1925.6865234375	n/a	REC_WORD	3943806	wordpools/wasnorm_wordpool_576.txt	LTP347	ltpFR2	22	9	ANTLER	29	n/a	n/a	0	0	0
1928.77490234375	n/a	REC_WORD	3950131	wordpools/wasnorm_wordpool_576.txt	LTP347	ltpFR2	22	9	SCISSORS	1250	n/a	n/a	0	0	0
1929.9169921875	n/a	REC_WORD	3952470	wordpools/wasnorm_wordpool_576.txt	LTP347	ltpFR2	22	9	MAILBOX	857	n/a	n/a	0	0	0
1930.89697265625	n/a	REC_WORD	3954477	wordpools/wasnorm_wordpool_576.txt	LTP347	ltpFR2	22	9	PERMIT	1051	n/a	n/a	0	0	0
1932.40966796875	n/a	REC_WORD	3957575	wordpools/wasnorm_wordpool_576.txt	LTP347	ltpFR2	22	9	YARN	1631	n/a	n/a	0	0	0
1932.89892578125	n/a	REC_WORD	3958577	wordpools/wasnorm_wordpool_576.txt	LTP347	ltpFR2	22	9	SHOVEL	1295	n/a	n/a	0	0	0
1999.0234375	n/a	WORD	4094000	wordpools/wasnorm_wordpool_576.txt	LTP347	ltpFR2	22	10	TRACTOR	1493	n/a	n/a	0	0	0
2001.6884765625	n/a	WORD	4099458	wordpools/wasnorm_wordpool_576.txt	LTP347	ltpFR2	22	10	NECKLACE	940	n/a	n/a	0	0	0
2004.3701171875	n/a	WORD	4104950	wordpools/wasnorm_wordpool_576.txt	LTP347	ltpFR2	22	10	CARROT	249	n/a	n/a	0	0	0
2006.83544921875	n/a	WORD	4109999	wordpools/wasnorm_wordpool_576.txt	LTP347	ltpFR2	22	10	YOLK	1633	n/a	n/a	0	0	0
2009.33447265625	n/a	WORD	4115117	wordpools/wasnorm_wordpool_576.txt	LTP347	ltpFR2	22	10	WIFE	1609	n/a	n/a	0	0	0
2012.033203125	n/a	WORD	4120644	wordpools/wasnorm_wordpool_576.txt	LTP347	ltpFR2	22	10	SPOUSE	1358	n/a	n/a	0	0	0
2014.76513671875	n/a	WORD	4126239	wordpools/wasnorm_wordpool_576.txt	LTP347	ltpFR2	22	10	COURSE	390	n/a	n/a	0	0	0
2017.5302734375	n/a	WORD	4131902	wordpools/wasnorm_wordpool_576.txt	LTP347	ltpFR2	22	10	ROD	1203	n/a	n/a	0	0	0
2020.32958984375	n/a	WORD	4137635	wordpools/wasnorm_wordpool_576.txt	LTP347	ltpFR2	22	10	LILY	821	n/a	n/a	0	0	0
2022.79443359375	n/a	WORD	4142683	wordpools/wasnorm_wordpool_576.txt	LTP347	ltpFR2	22	10	ROBOT	1200	n/a	n/a	0	0	0
2025.359375	n/a	WORD	4147936	wordpools/wasnorm_wordpool_576.txt	LTP347	ltpFR2	22	10	TEACHER	1440	n/a	n/a	0	0	0
2027.92529296875	n/a	WORD	4153191	wordpools/wasnorm_wordpool_576.txt	LTP347	ltpFR2	22	10	COLLEGE	346	n/a	n/a	0	0	0
2030.740234375	n/a	WORD	4158956	wordpools/wasnorm_wordpool_576.txt	LTP347	ltpFR2	22	10	CORAL	378	n/a	n/a	0	0	0
2033.53955078125	n/a	WORD	4164689	wordpools/wasnorm_wordpool_576.txt	LTP347	ltpFR2	22	10	GAVEL	627	n/a	n/a	0	0	0
2035.98828125	n/a	WORD	4169704	wordpools/wasnorm_wordpool_576.txt	LTP347	ltpFR2	22	10	QUEEN	1149	n/a	n/a	0	0	0
2038.45361328125	n/a	WORD	4174753	wordpools/wasnorm_wordpool_576.txt	LTP347	ltpFR2	22	10	VIKING	1565	n/a	n/a	0	0	0
2041.068359375	n/a	WORD	4180108	wordpools/wasnorm_wordpool_576.txt	LTP347	ltpFR2	22	10	STALLION	1369	n/a	n/a	0	0	0
2043.884765625	n/a	WORD	4185876	wordpools/wasnorm_wordpool_576.txt	LTP347	ltpFR2	22	10	CURTAIN	427	n/a	n/a	0	0	0
2046.53271484375	n/a	WORD	4191299	wordpools/wasnorm_wordpool_576.txt	LTP347	ltpFR2	22	10	KLEENEX	782	n/a	n/a	0	0	0
2049.064453125	n/a	WORD	4196484	wordpools/wasnorm_wordpool_576.txt	LTP347	ltpFR2	22	10	PLUTO	1092	n/a	n/a	0	0	0
2051.61376953125	n/a	WORD	4201705	wordpools/wasnorm_wordpool_576.txt	LTP347	ltpFR2	22	10	RAZOR	1171	n/a	n/a	0	0	0
2054.21240234375	n/a	WORD	4207027	wordpools/wasnorm_wordpool_576.txt	LTP347	ltpFR2	22	10	SWORD	1423	n/a	n/a	0	0	0
2056.99560546875	n/a	WORD	4212727	wordpools/wasnorm_wordpool_576.txt	LTP347	ltpFR2	22	10	PUPPY	1144	n/a	n/a	0	0	0
2059.509765625	n/a	WORD	4217876	wordpools/wasnorm_wordpool_576.txt	LTP347	ltpFR2	22	10	SKILLET	1317	n/a	n/a	0	0	0
2061.12548828125	n/a	START	4221185	n/a	LTP347	ltpFR2	22	n/a	n/a	n/a	14	n/a	n/a	n/a	n/a
2061.94580078125	n/a	DISTRACTOR	4222865	n/a	LTP347	ltpFR2	22	10	n/a	n/a	n/a	n/a	0	0	0
2061.95947265625	n/a	PROB	4222893	n/a	LTP347	ltpFR2	22	n/a	n/a	n/a	14	17	3	7	7
2063.224609375	n/a	PROB	4225484	n/a	LTP347	ltpFR2	22	n/a	n/a	n/a	14	12	6	2	4
2064.32373046875	n/a	PROB	4227735	n/a	LTP347	ltpFR2	22	n/a	n/a	n/a	14	20	9	2	9
2065.70654296875	n/a	PROB	4230567	n/a	LTP347	ltpFR2	22	n/a	n/a	n/a	14	19	4	9	6
2066.90576171875	n/a	PROB	4233023	n/a	LTP347	ltpFR2	22	n/a	n/a	n/a	14	17	1	9	7
2068.271484375	n/a	PROB	4235820	n/a	LTP347	ltpFR2	22	n/a	n/a	n/a	14	20	9	5	6
2069.62158203125	n/a	PROB	4238585	n/a	LTP347	ltpFR2	22	n/a	n/a	n/a	14	14	5	4	5
2070.93896484375	n/a	PROB	4241283	n/a	LTP347	ltpFR2	22	n/a	n/a	n/a	14	14	2	8	4
2072.3037109375	n/a	PROB	4244078	n/a	LTP347	ltpFR2	22	n/a	n/a	n/a	14	24	9	8	7
2073.6025390625	n/a	PROB	4246738	n/a	LTP347	ltpFR2	22	n/a	n/a	n/a	14	17	4	8	5
2075.3359375	n/a	PROB	4250288	n/a	LTP347	ltpFR2	22	n/a	n/a	n/a	14	9	3	1	5
2076.5517578125	n/a	PROB	4252778	n/a	LTP347	ltpFR2	22	n/a	n/a	n/a	14	14	2	9	3
2078.2509765625	n/a	PROB	4256258	n/a	LTP347	ltpFR2	22	n/a	n/a	n/a	14	14	8	4	2
2079.61669921875	n/a	PROB	4259055	n/a	LTP347	ltpFR2	22	n/a	n/a	n/a	14	12	3	2	7
2081.0986328125	n/a	PROB	4262090	n/a	LTP347	ltpFR2	22	n/a	n/a	n/a	14	12	1	3	8
2082.3818359375	n/a	PROB	4264718	n/a	LTP347	ltpFR2	22	n/a	n/a	n/a	14	12	1	7	5
2084.623046875	n/a	STOP	4269308	n/a	LTP347	ltpFR2	22	n/a	n/a	n/a	14	n/a	n/a	n/a	n/a
2087.046875	n/a	REC_START	4274272	n/a	LTP347	ltpFR2	22	10	n/a	n/a	n/a	n/a	0	0	0
2087.1728515625	n/a	REC_WORD	4274530	wordpools/wasnorm_wordpool_576.txt	LTP347	ltpFR2	22	10	CURTAIN	427	n/a	n/a	0	0	0
2087.64697265625	n/a	REC_WORD	4275501	wordpools/wasnorm_wordpool_576.txt	LTP347	ltpFR2	22	10	KLEENEX	782	n/a	n/a	0	0	0
2088.3310546875	n/a	REC_WORD	4276902	wordpools/wasnorm_wordpool_576.txt	LTP347	ltpFR2	22	10	PLUTO	1092	n/a	n/a	0	0	0
2088.85302734375	n/a	REC_WORD	4277971	wordpools/wasnorm_wordpool_576.txt	LTP347	ltpFR2	22	10	RAZOR	1171	n/a	n/a	0	0	0
2089.3427734375	n/a	REC_WORD	4278974	wordpools/wasnorm_wordpool_576.txt	LTP347	ltpFR2	22	10	SWORD	1423	n/a	n/a	0	0	0
2091.07373046875	n/a	REC_WORD	4282519	wordpools/wasnorm_wordpool_576.txt	LTP347	ltpFR2	22	10	CURTAIN	427	n/a	n/a	0	0	0
2097.70068359375	n/a	REC_WORD	4296091	wordpools/wasnorm_wordpool_576.txt	LTP347	ltpFR2	22	10	TRACTOR	1493	n/a	n/a	0	0	0
2099.94189453125	n/a	REC_WORD	4300681	wordpools/wasnorm_wordpool_576.txt	LTP347	ltpFR2	22	10	NECKLACE	940	n/a	n/a	0	0	0
2100.86376953125	n/a	REC_WORD	4302569	wordpools/wasnorm_wordpool_576.txt	LTP347	ltpFR2	22	10	CARROT	249	n/a	n/a	0	0	0
2101.4140625	n/a	REC_WORD	4303696	wordpools/wasnorm_wordpool_576.txt	LTP347	ltpFR2	22	10	YOLK	1633	n/a	n/a	0	0	0
2101.97900390625	n/a	REC_WORD	4304853	wordpools/wasnorm_wordpool_576.txt	LTP347	ltpFR2	22	10	WIFE	1609	n/a	n/a	0	0	0
2102.4140625	n/a	REC_WORD	4305744	wordpools/wasnorm_wordpool_576.txt	LTP347	ltpFR2	22	10	SPOUSE	1358	n/a	n/a	0	0	0
2103.47314453125	n/a	REC_WORD	4307913	wordpools/wasnorm_wordpool_576.txt	LTP347	ltpFR2	22	10	COURSE	390	n/a	n/a	0	0	0
2106.01171875	n/a	REC_WORD	4313112	wordpools/wasnorm_wordpool_576.txt	LTP347	ltpFR2	22	10	ROD	1203	n/a	n/a	0	0	0
2108.01904296875	n/a	REC_WORD	4317223	wordpools/wasnorm_wordpool_576.txt	LTP347	ltpFR2	22	10	ROBOT	1200	n/a	n/a	0	0	0
2108.60791015625	n/a	REC_WORD	4318429	wordpools/wasnorm_wordpool_576.txt	LTP347	ltpFR2	22	10	LILY	821	n/a	n/a	0	0	0
2109.56884765625	n/a	REC_WORD	4320397	wordpools/wasnorm_wordpool_576.txt	LTP347	ltpFR2	22	10	TEACHER	1440	n/a	n/a	0	0	0
2112.48681640625	n/a	REC_WORD	4326373	wordpools/wasnorm_wordpool_576.txt	LTP347	ltpFR2	22	10	CORAL	378	n/a	n/a	0	0	0
2113.18701171875	n/a	REC_WORD	4327807	wordpools/wasnorm_wordpool_576.txt	LTP347	ltpFR2	22	10	COLLEGE	346	n/a	n/a	0	0	0
2117.60107421875	n/a	REC_WORD	4336847	wordpools/wasnorm_wordpool_576.txt	LTP347	ltpFR2	22	10	GAVEL	627	n/a	n/a	0	0	0
2118.60009765625	n/a	REC_WORD	4338893	wordpools/wasnorm_wordpool_576.txt	LTP347	ltpFR2	22	10	QUEEN	1149	n/a	n/a	0	0	0
2119.06103515625	n/a	REC_WORD	4339837	wordpools/wasnorm_wordpool_576.txt	LTP347	ltpFR2	22	10	VIKING	1565	n/a	n/a	0	0	0
2119.658203125	n/a	REC_WORD	4341060	wordpools/wasnorm_wordpool_576.txt	LTP347	ltpFR2	22	10	HORSE	719	n/a	n/a	0	0	0
2177.50244140625	n/a	WORD	4459525	wordpools/wasnorm_wordpool_576.txt	LTP347	ltpFR2	22	11	BANQUET	86	n/a	n/a	0	0	0
2180.30029296875	n/a	WORD	4465255	wordpools/wasnorm_wordpool_576.txt	LTP347	ltpFR2	22	11	DRAWING	494	n/a	n/a	0	0	0
2182.8994140625	n/a	WORD	4470578	wordpools/wasnorm_wordpool_576.txt	LTP347	ltpFR2	22	11	SKETCH	1315	n/a	n/a	0	0	0
2185.59765625	n/a	WORD	4476104	wordpools/wasnorm_wordpool_576.txt	LTP347	ltpFR2	22	11	SLIDE	1326	n/a	n/a	0	0	0
2188.08056640625	n/a	WORD	4481189	wordpools/wasnorm_wordpool_576.txt	LTP347	ltpFR2	22	11	PRINCESS	1125	n/a	n/a	0	0	0
2190.6455078125	n/a	WORD	4486442	wordpools/wasnorm_wordpool_576.txt	LTP347	ltpFR2	22	11	SNAKE	1333	n/a	n/a	0	0	0
2193.177734375	n/a	WORD	4491628	wordpools/wasnorm_wordpool_576.txt	LTP347	ltpFR2	22	11	BISON	131	n/a	n/a	0	0	0
2195.8095703125	n/a	WORD	4497018	wordpools/wasnorm_wordpool_576.txt	LTP347	ltpFR2	22	11	COUSIN	392	n/a	n/a	0	0	0
2198.55859375	n/a	WORD	4502648	wordpools/wasnorm_wordpool_576.txt	LTP347	ltpFR2	22	11	CANDY	230	n/a	n/a	0	0	0
2201.12353515625	n/a	WORD	4507901	wordpools/wasnorm_wordpool_576.txt	LTP347	ltpFR2	22	11	FLESH	579	n/a	n/a	0	0	0
2203.72265625	n/a	WORD	4513224	wordpools/wasnorm_wordpool_576.txt	LTP347	ltpFR2	22	11	STAMP	1370	n/a	n/a	0	0	0
2206.50439453125	n/a	WORD	4518921	wordpools/wasnorm_wordpool_576.txt	LTP347	ltpFR2	22	11	PACKAGE	997	n/a	n/a	0	0	0
2208.98779296875	n/a	WORD	4524007	wordpools/wasnorm_wordpool_576.txt	LTP347	ltpFR2	22	11	SUMMIT	1405	n/a	n/a	0	0	0
2211.45166015625	n/a	WORD	4529053	wordpools/wasnorm_wordpool_576.txt	LTP347	ltpFR2	22	11	BLACKBOARD	133	n/a	n/a	0	0	0
2214.1005859375	n/a	WORD	4534478	wordpools/wasnorm_wordpool_576.txt	LTP347	ltpFR2	22	11	CAFE	216	n/a	n/a	0	0	0
2216.81591796875	n/a	WORD	4540039	wordpools/wasnorm_wordpool_576.txt	LTP347	ltpFR2	22	11	ROBIN	1199	n/a	n/a	0	0	0
2219.2646484375	n/a	WORD	4545054	wordpools/wasnorm_wordpool_576.txt	LTP347	ltpFR2	22	11	PUDDLE	1140	n/a	n/a	0	0	0
2221.83056640625	n/a	WORD	4550309	wordpools/wasnorm_wordpool_576.txt	LTP347	ltpFR2	22	11	POET	1095	n/a	n/a	0	0	0
2224.37890625	n/a	WORD	4555528	wordpools/wasnorm_wordpool_576.txt	LTP347	ltpFR2	22	11	VELVET	1555	n/a	n/a	0	0	0
2226.810546875	n/a	WORD	4560508	wordpools/wasnorm_wordpool_576.txt	LTP347	ltpFR2	22	11	SHORTCAKE	1292	n/a	n/a	0	0	0
2229.3427734375	n/a	WORD	4565694	wordpools/wasnorm_wordpool_576.txt	LTP347	ltpFR2	22	11	AGENT	10	n/a	n/a	0	0	0
2231.92578125	n/a	WORD	4570984	wordpools/wasnorm_wordpool_576.txt	LTP347	ltpFR2	22	11	DRILL	497	n/a	n/a	0	0	0
2234.57373046875	n/a	WORD	4576407	wordpools/wasnorm_wordpool_576.txt	LTP347	ltpFR2	22	11	DOUGHNUT	490	n/a	n/a	0	0	0
2237.0556640625	n/a	WORD	4581490	wordpools/wasnorm_wordpool_576.txt	LTP347	ltpFR2	22	11	MAILMAN	858	n/a	n/a	0	0	0
2238.671875	n/a	START	4584800	n/a	LTP347	ltpFR2	22	n/a	n/a	n/a	15	n/a	n/a	n/a	n/a
2239.544921875	n/a	DISTRACTOR	4586588	n/a	LTP347	ltpFR2	22	11	n/a	n/a	n/a	n/a	0	0	0
2239.5546875	n/a	PROB	4586608	n/a	LTP347	ltpFR2	22	n/a	n/a	n/a	15	11	5	5	1
2241.10400390625	n/a	PROB	4589781	n/a	LTP347	ltpFR2	22	n/a	n/a	n/a	15	14	7	1	6
2242.7529296875	n/a	PROB	4593158	n/a	LTP347	ltpFR2	22	n/a	n/a	n/a	15	10	1	7	2
2243.93701171875	n/a	PROB	4595583	n/a	LTP347	ltpFR2	22	n/a	n/a	n/a	15	17	5	4	8
2245.251953125	n/a	PROB	4598276	n/a	LTP347	ltpFR2	22	n/a	n/a	n/a	15	11	4	6	1
2246.56787109375	n/a	PROB	4600971	n/a	LTP347	ltpFR2	22	n/a	n/a	n/a	15	18	2	8	8
2247.6337890625	n/a	PROB	4603154	n/a	LTP347	ltpFR2	22	n/a	n/a	n/a	15	16	5	8	3
2249.19970703125	n/a	PROB	4606361	n/a	LTP347	ltpFR2	22	n/a	n/a	n/a	15	13	1	8	4
2250.44970703125	n/a	PROB	4608921	n/a	LTP347	ltpFR2	22	n/a	n/a	n/a	15	24	8	7	9
2251.83203125	n/a	PROB	4611752	n/a	LTP347	ltpFR2	22	n/a	n/a	n/a	15	9	3	1	5
2253.26513671875	n/a	PROB	4614687	n/a	LTP347	ltpFR2	22	n/a	n/a	n/a	15	14	1	7	6
2254.94775390625	n/a	PROB	4618133	n/a	LTP347	ltpFR2	22	n/a	n/a	n/a	15	7	4	2	1
2256.1630859375	n/a	PROB	4620622	n/a	LTP347	ltpFR2	22	n/a	n/a	n/a	15	22	9	5	8
2258.51220703125	n/a	PROB	4625433	n/a	LTP347	ltpFR2	22	n/a	n/a	n/a	15	18	9	4	5
2259.7119140625	n/a	PROB	4627890	n/a	LTP347	ltpFR2	22	n/a	n/a	n/a	15	19	9	2	8
2260.81103515625	n/a	PROB	4630141	n/a	LTP347	ltpFR2	22	n/a	n/a	n/a	15	15	9	1	5
2261.97705078125	n/a	STOP	4632529	n/a	LTP347	ltpFR2	22	n/a	n/a	n/a	15	n/a	n/a	n/a	n/a
2264.47705078125	n/a	REC_START	4637649	n/a	LTP347	ltpFR2	22	11	n/a	n/a	n/a	n/a	0	0	0
2267.740234375	n/a	REC_WORD	4644332	wordpools/wasnorm_wordpool_576.txt	LTP347	ltpFR2	22	11	POET	1095	n/a	n/a	0	0	0
2268.26513671875	n/a	REC_WORD	4645407	wordpools/wasnorm_wordpool_576.txt	LTP347	ltpFR2	22	11	VELVET	1555	n/a	n/a	0	0	0
2273.54296875	n/a	REC_WORD	4656216	wordpools/wasnorm_wordpool_576.txt	LTP347	ltpFR2	22	11	BANQUET	86	n/a	n/a	0	0	0
2274.02685546875	n/a	REC_WORD	4657207	wordpools/wasnorm_wordpool_576.txt	LTP347	ltpFR2	22	11	SKETCH	1315	n/a	n/a	0	0	0
2274.76416015625	n/a	REC_WORD	4658717	wordpools/wasnorm_wordpool_576.txt	LTP347	ltpFR2	22	11	DRAWING	494	n/a	n/a	0	0	0
2275.4462890625	n/a	REC_WORD	4660114	wordpools/wasnorm_wordpool_576.txt	LTP347	ltpFR2	22	11	SLIDE	1326	n/a	n/a	0	0	0
2277.490234375	n/a	REC_WORD	4664300	wordpools/wasnorm_wordpool_576.txt	LTP347	ltpFR2	22	11	BISON	131	n/a	n/a	0	0	0
2278.29296875	n/a	REC_WORD	4665944	wordpools/wasnorm_wordpool_576.txt	LTP347	ltpFR2	22	11	SNAKE	1333	n/a	n/a	0	0	0
2279.240234375	n/a	REC_WORD	4667884	wordpools/wasnorm_wordpool_576.txt	LTP347	ltpFR2	22	11	PRINCESS	1125	n/a	n/a	0	0	0
2282.693359375	n/a	REC_WORD	4674956	wordpools/wasnorm_wordpool_576.txt	LTP347	ltpFR2	22	11	COUSIN	392	n/a	n/a	0	0	0
2283.794921875	n/a	REC_WORD	4677212	wordpools/wasnorm_wordpool_576.txt	LTP347	ltpFR2	22	11	CANDY	230	n/a	n/a	0	0	0
2285.162109375	n/a	REC_WORD	4680012	wordpools/wasnorm_wordpool_576.txt	LTP347	ltpFR2	22	11	FLESH	579	n/a	n/a	0	0	0
2286.05712890625	n/a	REC_WORD	4681845	wordpools/wasnorm_wordpool_576.txt	LTP347	ltpFR2	22	11	STAMP	1370	n/a	n/a	0	0	0
2286.775390625	n/a	REC_WORD	4683316	wordpools/wasnorm_wordpool_576.txt	LTP347	ltpFR2	22	11	PACKAGE	997	n/a	n/a	0	0	0
2288.97607421875	n/a	REC_WORD	4687823	wordpools/wasnorm_wordpool_576.txt	LTP347	ltpFR2	22	11	SUMMIT	1405	n/a	n/a	0	0	0
2289.88720703125	n/a	REC_WORD	4689689	wordpools/wasnorm_wordpool_576.txt	LTP347	ltpFR2	22	11	BLACKBOARD	133	n/a	n/a	0	0	0
2290.6240234375	n/a	REC_WORD	4691198	wordpools/wasnorm_wordpool_576.txt	LTP347	ltpFR2	22	11	CAFE	216	n/a	n/a	0	0	0
2354.9326171875	n/a	WORD	4822902	wordpools/wasnorm_wordpool_576.txt	LTP347	ltpFR2	22	12	STONE	1385	n/a	n/a	0	0	0
2357.69677734375	n/a	WORD	4828563	wordpools/wasnorm_wordpool_576.txt	LTP347	ltpFR2	22	12	VALVE	1546	n/a	n/a	0	0	0
2360.478515625	n/a	WORD	4834260	wordpools/wasnorm_wordpool_576.txt	LTP347	ltpFR2	22	12	SANDWICH	1232	n/a	n/a	0	0	0
2363.044921875	n/a	WORD	4839516	wordpools/wasnorm_wordpool_576.txt	LTP347	ltpFR2	22	12	PISTOL	1075	n/a	n/a	0	0	0
2365.6767578125	n/a	WORD	4844906	wordpools/wasnorm_wordpool_576.txt	LTP347	ltpFR2	22	12	ICEBERG	731	n/a	n/a	0	0	0
2368.474609375	n/a	WORD	4850636	wordpools/wasnorm_wordpool_576.txt	LTP347	ltpFR2	22	12	GHETTO	633	n/a	n/a	0	0	0
2371.2568359375	n/a	WORD	4856334	wordpools/wasnorm_wordpool_576.txt	LTP347	ltpFR2	22	12	DRINK	498	n/a	n/a	0	0	0
2374.0888671875	n/a	WORD	4862134	wordpools/wasnorm_wordpool_576.txt	LTP347	ltpFR2	22	12	CEILING	265	n/a	n/a	0	0	0
2376.837890625	n/a	WORD	4867764	wordpools/wasnorm_wordpool_576.txt	LTP347	ltpFR2	22	12	CATTLE	261	n/a	n/a	0	0	0
2379.48681640625	n/a	WORD	4873189	wordpools/wasnorm_wordpool_576.txt	LTP347	ltpFR2	22	12	LUNCH	849	n/a	n/a	0	0	0
2381.98583984375	n/a	WORD	4878307	wordpools/wasnorm_wordpool_576.txt	LTP347	ltpFR2	22	12	LAPEL	800	n/a	n/a	0	0	0
2384.5009765625	n/a	WORD	4883458	wordpools/wasnorm_wordpool_576.txt	LTP347	ltpFR2	22	12	TERMITE	1451	n/a	n/a	0	0	0
2387.015625	n/a	WORD	4888608	wordpools/wasnorm_wordpool_576.txt	LTP347	ltpFR2	22	12	BLENDER	136	n/a	n/a	0	0	0
2389.56494140625	n/a	WORD	4893829	wordpools/wasnorm_wordpool_576.txt	LTP347	ltpFR2	22	12	DAUGHTER	442	n/a	n/a	0	0	0
2392.1796875	n/a	WORD	4899184	wordpools/wasnorm_wordpool_576.txt	LTP347	ltpFR2	22	12	KEEPER	769	n/a	n/a	0	0	0
2394.76171875	n/a	WORD	4904472	wordpools/wasnorm_wordpool_576.txt	LTP347	ltpFR2	22	12	PISTON	1076	n/a	n/a	0	0	0
2397.244140625	n/a	WORD	4909556	wordpools/wasnorm_wordpool_576.txt	LTP347	ltpFR2	22	12	MOTOR	922	n/a	n/a	0	0	0
2399.91015625	n/a	WORD	4915016	wordpools/wasnorm_wordpool_576.txt	LTP347	ltpFR2	22	12	EYELASH	546	n/a	n/a	0	0	0
2402.658203125	n/a	WORD	4920644	wordpools/wasnorm_wordpool_576.txt	LTP347	ltpFR2	22	12	JURY	766	n/a	n/a	0	0	0
2405.20703125	n/a	WORD	4925864	wordpools/wasnorm_wordpool_576.txt	LTP347	ltpFR2	22	12	SUSPECT	1415	n/a	n/a	0	0	0
2407.63916015625	n/a	WORD	4930845	wordpools/wasnorm_wordpool_576.txt	LTP347	ltpFR2	22	12	BRICK	172	n/a	n/a	0	0	0
2410.27099609375	n/a	WORD	4936235	wordpools/wasnorm_wordpool_576.txt	LTP347	ltpFR2	22	12	ULCER	1533	n/a	n/a	0	0	0
2412.919921875	n/a	WORD	4941660	wordpools/wasnorm_wordpool_576.txt	LTP347	ltpFR2	22	12	IGLOO	734	n/a	n/a	0	0	0
2415.73486328125	n/a	WORD	4947425	wordpools/wasnorm_wordpool_576.txt	LTP347	ltpFR2	22	12	DIVER	476	n/a	n/a	0	0	0
2417.35107421875	n/a	START	4950735	n/a	LTP347	ltpFR2	22	n/a	n/a	n/a	16	n/a	n/a	n/a	n/a
2418.23388671875	n/a	DISTRACTOR	4952543	n/a	LTP347	ltpFR2	22	12	n/a	n/a	n/a	n/a	0	0	0
2418.2509765625	n/a	PROB	4952578	n/a	LTP347	ltpFR2	22	n/a	n/a	n/a	16	11	3	4	4
2419.68310546875	n/a	PROB	4955511	n/a	LTP347	ltpFR2	22	n/a	n/a	n/a	16	11	1	1	9
2420.6162109375	n/a	PROB	4957422	n/a	LTP347	ltpFR2	22	n/a	n/a	n/a	16	15	1	9	5
2421.7822265625	n/a	PROB	4959810	n/a	LTP347	ltpFR2	22	n/a	n/a	n/a	16	21	5	9	7
2423.5810546875	n/a	PROB	4963494	n/a	LTP347	ltpFR2	22	n/a	n/a	n/a	16	12	2	8	2
2424.88134765625	n/a	PROB	4966157	n/a	LTP347	ltpFR2	22	n/a	n/a	n/a	16	16	1	8	7
2426.1298828125	n/a	PROB	4968714	n/a	LTP347	ltpFR2	22	n/a	n/a	n/a	16	8	1	4	3
2427.37890625	n/a	PROB	4971272	n/a	LTP347	ltpFR2	22	n/a	n/a	n/a	16	14	9	3	2
2429.09521484375	n/a	PROB	4974787	n/a	LTP347	ltpFR2	22	n/a	n/a	n/a	16	23	8	7	8
2431.89404296875	n/a	PROB	4980519	n/a	LTP347	ltpFR2	22	n/a	n/a	n/a	16	17	7	6	4
2433.2431640625	n/a	PROB	4983282	n/a	LTP347	ltpFR2	22	n/a	n/a	n/a	16	5	2	1	2
2435.708984375	n/a	PROB	4988332	n/a	LTP347	ltpFR2	22	n/a	n/a	n/a	16	11	6	1	4
2437.00830078125	n/a	PROB	4990993	n/a	LTP347	ltpFR2	22	n/a	n/a	n/a	16	18	7	9	2
2438.291015625	n/a	PROB	4993620	n/a	LTP347	ltpFR2	22	n/a	n/a	n/a	16	12	6	4	2
2439.45703125	n/a	PROB	4996008	n/a	LTP347	ltpFR2	22	n/a	n/a	n/a	16	15	2	8	5
2440.4970703125	n/a	STOP	4998138	n/a	LTP347	ltpFR2	22	n/a	n/a	n/a	16	n/a	n/a	n/a	n/a
2443.205078125	n/a	REC_START	5003684	n/a	LTP347	ltpFR2	22	12	n/a	n/a	n/a	n/a	0	0	0
2443.7373046875	n/a	REC_WORD	5004774	wordpools/wasnorm_wordpool_576.txt	LTP347	ltpFR2	22	12	JURY	766	n/a	n/a	0	0	0
2444.2421875	n/a	REC_WORD	5005808	wordpools/wasnorm_wordpool_576.txt	LTP347	ltpFR2	22	12	SUSPECT	1415	n/a	n/a	0	0	0
2445.17333984375	n/a	REC_WORD	5007715	wordpools/wasnorm_wordpool_576.txt	LTP347	ltpFR2	22	12	BRICK	172	n/a	n/a	0	0	0
2445.6552734375	n/a	REC_WORD	5008702	wordpools/wasnorm_wordpool_576.txt	LTP347	ltpFR2	22	12	ULCER	1533	n/a	n/a	0	0	0
2446.21630859375	n/a	REC_WORD	5009851	wordpools/wasnorm_wordpool_576.txt	LTP347	ltpFR2	22	12	IGLOO	734	n/a	n/a	0	0	0
2446.83642578125	n/a	REC_WORD	5011121	wordpools/wasnorm_wordpool_576.txt	LTP347	ltpFR2	22	12	DIVER	476	n/a	n/a	0	0	0
2448.6142578125	n/a	REC_WORD	5014762	wordpools/wasnorm_wordpool_576.txt	LTP347	ltpFR2	22	12	STONE	1385	n/a	n/a	0	0	0
2449.236328125	n/a	REC_WORD	5016036	wordpools/wasnorm_wordpool_576.txt	LTP347	ltpFR2	22	12	VALVE	1546	n/a	n/a	0	0	0
2449.734375	n/a	REC_WORD	5017056	wordpools/wasnorm_wordpool_576.txt	LTP347	ltpFR2	22	12	ICEBERG	731	n/a	n/a	0	0	0
2452.26318359375	n/a	REC_WORD	5022235	wordpools/wasnorm_wordpool_576.txt	LTP347	ltpFR2	22	12	PISTOL	1075	n/a	n/a	0	0	0
2453.439453125	n/a	REC_WORD	5024644	wordpools/wasnorm_wordpool_576.txt	LTP347	ltpFR2	22	12	SANDWICH	1232	n/a	n/a	0	0	0
2454.29736328125	n/a	REC_WORD	5026401	wordpools/wasnorm_wordpool_576.txt	LTP347	ltpFR2	22	12	GHETTO	633	n/a	n/a	0	0	0
2455.55126953125	n/a	REC_WORD	5028969	wordpools/wasnorm_wordpool_576.txt	LTP347	ltpFR2	22	12	LUNCH	849	n/a	n/a	0	0	0
2457.00927734375	n/a	REC_WORD	5031955	wordpools/wasnorm_wordpool_576.txt	LTP347	ltpFR2	22	12	CEILING	265	n/a	n/a	0	0	0
2457.73046875	n/a	REC_WORD	5033432	wordpools/wasnorm_wordpool_576.txt	LTP347	ltpFR2	22	12	CATTLE	261	n/a	n/a	0	0	0
2458.35009765625	n/a	REC_WORD	5034701	wordpools/wasnorm_wordpool_576.txt	LTP347	ltpFR2	22	12	LAPEL	800	n/a	n/a	0	0	0
2458.9365234375	n/a	REC_WORD	5035902	wordpools/wasnorm_wordpool_576.txt	LTP347	ltpFR2	22	12	TERMITE	1451	n/a	n/a	0	0	0
2459.47021484375	n/a	REC_WORD	5036995	wordpools/wasnorm_wordpool_576.txt	LTP347	ltpFR2	22	12	BLENDER	136	n/a	n/a	0	0	0
2460.08447265625	n/a	REC_WORD	5038253	wordpools/wasnorm_wordpool_576.txt	LTP347	ltpFR2	22	12	DAUGHTER	442	n/a	n/a	0	0	0
2460.55322265625	n/a	REC_WORD	5039213	wordpools/wasnorm_wordpool_576.txt	LTP347	ltpFR2	22	12	KEEPER	769	n/a	n/a	0	0	0
2466.30029296875	n/a	REC_WORD	5050983	wordpools/wasnorm_wordpool_576.txt	LTP347	ltpFR2	22	12	JURY	766	n/a	n/a	0	0	0
2533.66064453125	n/a	WORD	5188937	wordpools/wasnorm_wordpool_576.txt	LTP347	ltpFR2	22	13	CELLAR	267	n/a	n/a	0	0	0
2536.39306640625	n/a	WORD	5194533	wordpools/wasnorm_wordpool_576.txt	LTP347	ltpFR2	22	13	FRECKLE	602	n/a	n/a	0	0	0
2538.94287109375	n/a	WORD	5199755	wordpools/wasnorm_wordpool_576.txt	LTP347	ltpFR2	22	13	CHAPEL	280	n/a	n/a	0	0	0
2541.40673828125	n/a	WORD	5204801	wordpools/wasnorm_wordpool_576.txt	LTP347	ltpFR2	22	13	IDOL	733	n/a	n/a	0	0	0
2544.0888671875	n/a	WORD	5210294	wordpools/wasnorm_wordpool_576.txt	LTP347	ltpFR2	22	13	WITNESS	1618	n/a	n/a	0	0	0
2546.7041015625	n/a	WORD	5215650	wordpools/wasnorm_wordpool_576.txt	LTP347	ltpFR2	22	13	DUST	508	n/a	n/a	0	0	0
2549.287109375	n/a	WORD	5220940	wordpools/wasnorm_wordpool_576.txt	LTP347	ltpFR2	22	13	HOOK	715	n/a	n/a	0	0	0
2552.001953125	n/a	WORD	5226500	wordpools/wasnorm_wordpool_576.txt	LTP347	ltpFR2	22	13	PADDING	999	n/a	n/a	0	0	0
2554.7998046875	n/a	WORD	5232230	wordpools/wasnorm_wordpool_576.txt	LTP347	ltpFR2	22	13	SIDEWALK	1303	n/a	n/a	0	0	0
2557.31591796875	n/a	WORD	5237383	wordpools/wasnorm_wordpool_576.txt	LTP347	ltpFR2	22	13	BASEMENT	94	n/a	n/a	0	0	0
2560.130859375	n/a	WORD	5243148	wordpools/wasnorm_wordpool_576.txt	LTP347	ltpFR2	22	13	BEAKER	104	n/a	n/a	0	0	0
2562.830078125	n/a	WORD	5248676	wordpools/wasnorm_wordpool_576.txt	LTP347	ltpFR2	22	13	POPCORN	1104	n/a	n/a	0	0	0
2565.578125	n/a	WORD	5254304	wordpools/wasnorm_wordpool_576.txt	LTP347	ltpFR2	22	13	FOOT	590	n/a	n/a	0	0	0
2568.2939453125	n/a	WORD	5259866	wordpools/wasnorm_wordpool_576.txt	LTP347	ltpFR2	22	13	RUG	1215	n/a	n/a	0	0	0
2570.77587890625	n/a	WORD	5264949	wordpools/wasnorm_wordpool_576.txt	LTP347	ltpFR2	22	13	LION	827	n/a	n/a	0	0	0
2573.4580078125	n/a	WORD	5270442	wordpools/wasnorm_wordpool_576.txt	LTP347	ltpFR2	22	13	COIN	343	n/a	n/a	0	0	0
2576.10693359375	n/a	WORD	5275867	wordpools/wasnorm_wordpool_576.txt	LTP347	ltpFR2	22	13	MAMMAL	861	n/a	n/a	0	0	0
2578.77197265625	n/a	WORD	5281325	wordpools/wasnorm_wordpool_576.txt	LTP347	ltpFR2	22	13	OX	994	n/a	n/a	0	0	0
2581.58740234375	n/a	WORD	5287091	wordpools/wasnorm_wordpool_576.txt	LTP347	ltpFR2	22	13	GIFT	635	n/a	n/a	0	0	0
2584.01904296875	n/a	WORD	5292071	wordpools/wasnorm_wordpool_576.txt	LTP347	ltpFR2	22	13	DIME	466	n/a	n/a	0	0	0
2586.451171875	n/a	WORD	5297052	wordpools/wasnorm_wordpool_576.txt	LTP347	ltpFR2	22	13	DRAGON	492	n/a	n/a	0	0	0
2589.21728515625	n/a	WORD	5302717	wordpools/wasnorm_wordpool_576.txt	LTP347	ltpFR2	22	13	FIREMAN	569	n/a	n/a	0	0	0
2591.88232421875	n/a	WORD	5308175	wordpools/wasnorm_wordpool_576.txt	LTP347	ltpFR2	22	13	FINGER	567	n/a	n/a	0	0	0
2594.314453125	n/a	WORD	5313156	wordpools/wasnorm_wordpool_576.txt	LTP347	ltpFR2	22	13	MILDEW	893	n/a	n/a	0	0	0
2595.93115234375	n/a	START	5316467	n/a	LTP347	ltpFR2	22	n/a	n/a	n/a	17	n/a	n/a	n/a	n/a
2596.7783203125	n/a	DISTRACTOR	5318202	n/a	LTP347	ltpFR2	22	13	n/a	n/a	n/a	n/a	0	0	0
2596.7802734375	n/a	PROB	5318206	n/a	LTP347	ltpFR2	22	n/a	n/a	n/a	17	9	2	3	4
2598.279296875	n/a	PROB	5321276	n/a	LTP347	ltpFR2	22	n/a	n/a	n/a	17	14	9	4	1
2599.67822265625	n/a	PROB	5324141	n/a	LTP347	ltpFR2	22	n/a	n/a	n/a	17	10	3	3	4
2600.9111328125	n/a	PROB	5326666	n/a	LTP347	ltpFR2	22	n/a	n/a	n/a	17	15	6	6	3
2602.1943359375	n/a	PROB	5329294	n/a	LTP347	ltpFR2	22	n/a	n/a	n/a	17	21	7	8	6
2603.6103515625	n/a	PROB	5332194	n/a	LTP347	ltpFR2	22	n/a	n/a	n/a	17	12	5	4	3
2605.076171875	n/a	PROB	5335196	n/a	LTP347	ltpFR2	22	n/a	n/a	n/a	17	8	2	2	4
2606.275390625	n/a	PROB	5337652	n/a	LTP347	ltpFR2	22	n/a	n/a	n/a	17	8	5	1	2
2607.50830078125	n/a	PROB	5340177	n/a	LTP347	ltpFR2	22	n/a	n/a	n/a	17	14	2	6	6
2609.04052734375	n/a	PROB	5343315	n/a	LTP347	ltpFR2	22	n/a	n/a	n/a	17	12	2	9	1
2610.22314453125	n/a	PROB	5345737	n/a	LTP347	ltpFR2	22	n/a	n/a	n/a	17	11	2	3	6
2612.62255859375	n/a	PROB	5350651	n/a	LTP347	ltpFR2	22	n/a	n/a	n/a	17	16	7	1	8
2614.1044921875	n/a	PROB	5353686	n/a	LTP347	ltpFR2	22	n/a	n/a	n/a	17	12	5	1	6
2615.4873046875	n/a	PROB	5356518	n/a	LTP347	ltpFR2	22	n/a	n/a	n/a	17	19	5	6	8
2617.70263671875	n/a	PROB	5361055	n/a	LTP347	ltpFR2	22	n/a	n/a	n/a	17	16	1	8	7
2618.78662109375	n/a	STOP	5363275	n/a	LTP347	ltpFR2	22	n/a	n/a	n/a	17	n/a	n/a	n/a	n/a
2621.71826171875	n/a	REC_START	5369279	n/a	LTP347	ltpFR2	22	13	n/a	n/a	n/a	n/a	0	0	0
2622.2392578125	n/a	REC_WORD	5370346	wordpools/wasnorm_wordpool_576.txt	LTP347	ltpFR2	22	13	DRAGON	492	n/a	n/a	0	0	0
2622.853515625	n/a	REC_WORD	5371604	wordpools/wasnorm_wordpool_576.txt	LTP347	ltpFR2	22	13	FIREMAN	569	n/a	n/a	0	0	0
2623.66650390625	n/a	REC_WORD	5373269	wordpools/wasnorm_wordpool_576.txt	LTP347	ltpFR2	22	13	FINGER	567	n/a	n/a	0	0	0
2624.388671875	n/a	REC_WORD	5374748	wordpools/wasnorm_wordpool_576.txt	LTP347	ltpFR2	22	13	MILDEW	893	n/a	n/a	0	0	0
2627.13330078125	n/a	REC_WORD	5380369	wordpools/wasnorm_wordpool_576.txt	LTP347	ltpFR2	22	13	CEILING	265	n/a	n/a	0	0	0
2627.74951171875	n/a	REC_WORD	5381631	wordpools/wasnorm_wordpool_576.txt	LTP347	ltpFR2	22	13	CHAPEL	280	n/a	n/a	0	0	0
2628.2685546875	n/a	REC_WORD	5382694	wordpools/wasnorm_wordpool_576.txt	LTP347	ltpFR2	22	13	FRECKLE	602	n/a	n/a	0	0	0
2628.822265625	n/a	REC_WORD	5383828	wordpools/wasnorm_wordpool_576.txt	LTP347	ltpFR2	22	13	IDOL	733	n/a	n/a	0	0	0
2629.6455078125	n/a	REC_WORD	5385514	wordpools/wasnorm_wordpool_576.txt	LTP347	ltpFR2	22	13	WITNESS	1618	n/a	n/a	0	0	0
2630.5107421875	n/a	REC_WORD	5387286	wordpools/wasnorm_wordpool_576.txt	LTP347	ltpFR2	22	13	DUST	508	n/a	n/a	0	0	0
2630.98046875	n/a	REC_WORD	5388248	wordpools/wasnorm_wordpool_576.txt	LTP347	ltpFR2	22	13	HOOK	715	n/a	n/a	0	0	0
2632.00048828125	n/a	REC_WORD	5390337	wordpools/wasnorm_wordpool_576.txt	LTP347	ltpFR2	22	13	SIDEWALK	1303	n/a	n/a	0	0	0
2632.91650390625	n/a	REC_WORD	5392213	wordpools/wasnorm_wordpool_576.txt	LTP347	ltpFR2	22	13	BASEMENT	94	n/a	n/a	0	0	0
2634.32666015625	n/a	REC_WORD	5395101	wordpools/wasnorm_wordpool_576.txt	LTP347	ltpFR2	22	13	BEAKER	104	n/a	n/a	0	0	0
2634.75146484375	n/a	REC_WORD	5395971	wordpools/wasnorm_wordpool_576.txt	LTP347	ltpFR2	22	13	POPCORN	1104	n/a	n/a	0	0	0
2635.443359375	n/a	REC_WORD	5397388	wordpools/wasnorm_wordpool_576.txt	LTP347	ltpFR2	22	13	FOOT	590	n/a	n/a	0	0	0
2635.83740234375	n/a	REC_WORD	5398195	wordpools/wasnorm_wordpool_576.txt	LTP347	ltpFR2	22	13	RUG	1215	n/a	n/a	0	0	0
2637.6953125	n/a	REC_WORD	5402000	wordpools/wasnorm_wordpool_576.txt	LTP347	ltpFR2	22	13	LION	827	n/a	n/a	0	0	0
2639.29345703125	n/a	REC_WORD	5405273	wordpools/wasnorm_wordpool_576.txt	LTP347	ltpFR2	22	13	COIN	343	n/a	n/a	0	0	0
2640.2626953125	n/a	REC_WORD	5407258	wordpools/wasnorm_wordpool_576.txt	LTP347	ltpFR2	22	13	MAMMAL	861	n/a	n/a	0	0	0
2641.07080078125	n/a	REC_WORD	5408913	wordpools/wasnorm_wordpool_576.txt	LTP347	ltpFR2	22	13	OX	994	n/a	n/a	0	0	0
2644.00244140625	n/a	REC_WORD	5414917	wordpools/wasnorm_wordpool_576.txt	LTP347	ltpFR2	22	13	GIFT	635	n/a	n/a	0	0	0
2644.79052734375	n/a	REC_WORD	5416531	wordpools/wasnorm_wordpool_576.txt	LTP347	ltpFR2	22	13	DIME	466	n/a	n/a	0	0	0
2712.18994140625	n/a	WORD	5554565	wordpools/wasnorm_wordpool_576.txt	LTP347	ltpFR2	22	14	CASHIER	254	n/a	n/a	0	0	0
2714.8388671875	n/a	WORD	5559990	wordpools/wasnorm_wordpool_576.txt	LTP347	ltpFR2	22	14	BIKE	125	n/a	n/a	0	0	0
2717.35400390625	n/a	WORD	5565141	wordpools/wasnorm_wordpool_576.txt	LTP347	ltpFR2	22	14	JELLY	755	n/a	n/a	0	0	0
2720.0361328125	n/a	WORD	5570634	wordpools/wasnorm_wordpool_576.txt	LTP347	ltpFR2	22	14	ROBBER	1197	n/a	n/a	0	0	0
2722.76806640625	n/a	WORD	5576229	wordpools/wasnorm_wordpool_576.txt	LTP347	ltpFR2	22	14	THIEF	1456	n/a	n/a	0	0	0
2725.43310546875	n/a	WORD	5581687	wordpools/wasnorm_wordpool_576.txt	LTP347	ltpFR2	22	14	JELLO	754	n/a	n/a	0	0	0
2727.88232421875	n/a	WORD	5586703	wordpools/wasnorm_wordpool_576.txt	LTP347	ltpFR2	22	14	SLIME	1327	n/a	n/a	0	0	0
2730.54736328125	n/a	WORD	5592161	wordpools/wasnorm_wordpool_576.txt	LTP347	ltpFR2	22	14	GARDEN	623	n/a	n/a	0	0	0
2733.31298828125	n/a	WORD	5597825	wordpools/wasnorm_wordpool_576.txt	LTP347	ltpFR2	22	14	CONTRACT	368	n/a	n/a	0	0	0
2736.0283203125	n/a	WORD	5603386	wordpools/wasnorm_wordpool_576.txt	LTP347	ltpFR2	22	14	SMOG	1330	n/a	n/a	0	0	0
2738.51025390625	n/a	WORD	5608469	wordpools/wasnorm_wordpool_576.txt	LTP347	ltpFR2	22	14	WRIST	1626	n/a	n/a	0	0	0
2741.05908203125	n/a	WORD	5613689	wordpools/wasnorm_wordpool_576.txt	LTP347	ltpFR2	22	14	CHEST	295	n/a	n/a	0	0	0
2743.79150390625	n/a	WORD	5619285	wordpools/wasnorm_wordpool_576.txt	LTP347	ltpFR2	22	14	PANTHER	1009	n/a	n/a	0	0	0
2746.5234375	n/a	WORD	5624880	wordpools/wasnorm_wordpool_576.txt	LTP347	ltpFR2	22	14	TART	1436	n/a	n/a	0	0	0
2749.22216796875	n/a	WORD	5630407	wordpools/wasnorm_wordpool_576.txt	LTP347	ltpFR2	22	14	TREAT	1501	n/a	n/a	0	0	0
2751.9384765625	n/a	WORD	5635970	wordpools/wasnorm_wordpool_576.txt	LTP347	ltpFR2	22	14	STAR	1373	n/a	n/a	0	0	0
2754.46923828125	n/a	WORD	5641153	wordpools/wasnorm_wordpool_576.txt	LTP347	ltpFR2	22	14	COCOON	339	n/a	n/a	0	0	0
2757.21826171875	n/a	WORD	5646783	wordpools/wasnorm_wordpool_576.txt	LTP347	ltpFR2	22	14	PENGUIN	1044	n/a	n/a	0	0	0
2759.91650390625	n/a	WORD	5652309	wordpools/wasnorm_wordpool_576.txt	LTP347	ltpFR2	22	14	UMPIRE	1535	n/a	n/a	0	0	0
2762.615234375	n/a	WORD	5657836	wordpools/wasnorm_wordpool_576.txt	LTP347	ltpFR2	22	14	QUARTER	1148	n/a	n/a	0	0	0
2765.23046875	n/a	WORD	5663192	wordpools/wasnorm_wordpool_576.txt	LTP347	ltpFR2	22	14	CLOUD	328	n/a	n/a	0	0	0
2767.82958984375	n/a	WORD	5668515	wordpools/wasnorm_wordpool_576.txt	LTP347	ltpFR2	22	14	PIANO	1057	n/a	n/a	0	0	0
2770.32861328125	n/a	WORD	5673633	wordpools/wasnorm_wordpool_576.txt	LTP347	ltpFR2	22	14	HOUND	724	n/a	n/a	0	0	0
2772.84326171875	n/a	WORD	5678783	wordpools/wasnorm_wordpool_576.txt	LTP347	ltpFR2	22	14	BOUQUET	157	n/a	n/a	0	0	0
2774.45947265625	n/a	START	5682093	n/a	LTP347	ltpFR2	22	n/a	n/a	n/a	18	n/a	n/a	n/a	n/a
2775.45263671875	n/a	DISTRACTOR	5684127	n/a	LTP347	ltpFR2	22	14	n/a	n/a	n/a	n/a	0	0	0
2775.45849609375	n/a	PROB	5684139	n/a	LTP347	ltpFR2	22	n/a	n/a	n/a	18	16	7	1	8
2776.65869140625	n/a	PROB	5686597	n/a	LTP347	ltpFR2	22	n/a	n/a	n/a	18	7	3	1	3
2777.84130859375	n/a	PROB	5689019	n/a	LTP347	ltpFR2	22	n/a	n/a	n/a	18	13	7	3	3
2778.94140625	n/a	PROB	5691272	n/a	LTP347	ltpFR2	22	n/a	n/a	n/a	18	22	6	8	8
2780.4736328125	n/a	PROB	5694410	n/a	LTP347	ltpFR2	22	n/a	n/a	n/a	18	17	6	4	7
2781.75537109375	n/a	PROB	5697035	n/a	LTP347	ltpFR2	22	n/a	n/a	n/a	18	15	9	3	3
2782.87158203125	n/a	PROB	5699321	n/a	LTP347	ltpFR2	22	n/a	n/a	n/a	18	20	8	6	6
2784.57177734375	n/a	PROB	5702803	n/a	LTP347	ltpFR2	22	n/a	n/a	n/a	18	10	1	5	4
2786.00341796875	n/a	PROB	5705735	n/a	LTP347	ltpFR2	22	n/a	n/a	n/a	18	21	6	6	9
2787.486328125	n/a	PROB	5708772	n/a	LTP347	ltpFR2	22	n/a	n/a	n/a	18	22	7	9	6
2789.61865234375	n/a	PROB	5713139	n/a	LTP347	ltpFR2	22	n/a	n/a	n/a	18	15	7	5	3
2791.96875	n/a	PROB	5717952	n/a	LTP347	ltpFR2	22	n/a	n/a	n/a	18	15	9	5	1
2793.984375	n/a	PROB	5722080	n/a	LTP347	ltpFR2	22	n/a	n/a	n/a	18	15	6	3	6
2795.3154296875	n/a	PROB	5724806	n/a	LTP347	ltpFR2	22	n/a	n/a	n/a	18	17	2	6	9
2797.091796875	n/a	STOP	5728444	n/a	LTP347	ltpFR2	22	n/a	n/a	n/a	18	n/a	n/a	n/a	n/a
2800.3134765625	n/a	REC_START	5735042	n/a	LTP347	ltpFR2	22	14	n/a	n/a	n/a	n/a	0	0	0
2800.7275390625	n/a	REC_WORD	5735890	wordpools/wasnorm_wordpool_576.txt	LTP347	ltpFR2	22	14	HOUND	724	n/a	n/a	0	0	0
2801.35986328125	n/a	REC_WORD	5737185	wordpools/wasnorm_wordpool_576.txt	LTP347	ltpFR2	22	14	BOUQUET	157	n/a	n/a	0	0	0
2806.5107421875	n/a	REC_WORD	5747734	wordpools/wasnorm_wordpool_576.txt	LTP347	ltpFR2	22	14	BIKE	125	n/a	n/a	0	0	0
2806.94384765625	n/a	REC_WORD	5748621	wordpools/wasnorm_wordpool_576.txt	LTP347	ltpFR2	22	14	CASHIER	254	n/a	n/a	0	0	0
2809.11474609375	n/a	REC_WORD	5753067	wordpools/wasnorm_wordpool_576.txt	LTP347	ltpFR2	22	14	JELLY	755	n/a	n/a	0	0	0
2809.63671875	n/a	REC_WORD	5754136	wordpools/wasnorm_wordpool_576.txt	LTP347	ltpFR2	22	14	JELLO	754	n/a	n/a	0	0	0
2810.6796875	n/a	REC_WORD	5756272	wordpools/wasnorm_wordpool_576.txt	LTP347	ltpFR2	22	14	ROBBER	1197	n/a	n/a	0	0	0
2811.1845703125	n/a	REC_WORD	5757306	wordpools/wasnorm_wordpool_576.txt	LTP347	ltpFR2	22	14	THIEF	1456	n/a	n/a	0	0	0
2812.40380859375	n/a	REC_WORD	5759803	wordpools/wasnorm_wordpool_576.txt	LTP347	ltpFR2	22	14	SLIME	1327	n/a	n/a	0	0	0
2812.9638671875	n/a	REC_WORD	5760950	wordpools/wasnorm_wordpool_576.txt	LTP347	ltpFR2	22	14	GARDEN	623	n/a	n/a	0	0	0
2813.544921875	n/a	REC_WORD	5762140	wordpools/wasnorm_wordpool_576.txt	LTP347	ltpFR2	22	14	CONTRACT	368	n/a	n/a	0	0	0
2814.32666015625	n/a	REC_WORD	5763741	wordpools/wasnorm_wordpool_576.txt	LTP347	ltpFR2	22	14	SMOG	1330	n/a	n/a	0	0	0
2815.5869140625	n/a	REC_WORD	5766322	wordpools/wasnorm_wordpool_576.txt	LTP347	ltpFR2	22	14	WRIST	1626	n/a	n/a	0	0	0
2816.28955078125	n/a	REC_WORD	5767761	wordpools/wasnorm_wordpool_576.txt	LTP347	ltpFR2	22	14	CHEST	295	n/a	n/a	0	0	0
2817.80859375	n/a	REC_WORD	5770872	wordpools/wasnorm_wordpool_576.txt	LTP347	ltpFR2	22	14	PANTHER	1009	n/a	n/a	0	0	0
2818.52197265625	n/a	REC_WORD	5772333	wordpools/wasnorm_wordpool_576.txt	LTP347	ltpFR2	22	14	TART	1436	n/a	n/a	0	0	0
2819.11767578125	n/a	REC_WORD	5773553	wordpools/wasnorm_wordpool_576.txt	LTP347	ltpFR2	22	14	TREAT	1501	n/a	n/a	0	0	0
2820.7119140625	n/a	REC_WORD	5776818	wordpools/wasnorm_wordpool_576.txt	LTP347	ltpFR2	22	14	STAR	1373	n/a	n/a	0	0	0
2821.5546875	n/a	REC_WORD	5778544	wordpools/wasnorm_wordpool_576.txt	LTP347	ltpFR2	22	14	COCOON	339	n/a	n/a	0	0	0
2822.72265625	n/a	REC_WORD	5780936	wordpools/wasnorm_wordpool_576.txt	LTP347	ltpFR2	22	14	PENGUIN	1044	n/a	n/a	0	0	0
2823.15771484375	n/a	REC_WORD	5781827	wordpools/wasnorm_wordpool_576.txt	LTP347	ltpFR2	22	14	UMPIRE	1535	n/a	n/a	0	0	0
2890.7861328125	n/a	WORD	5920330	wordpools/wasnorm_wordpool_576.txt	LTP347	ltpFR2	22	15	PIZZA	1079	n/a	n/a	0	0	0
2893.35107421875	n/a	WORD	5925583	wordpools/wasnorm_wordpool_576.txt	LTP347	ltpFR2	22	15	TOMBSTONE	1478	n/a	n/a	0	0	0
2895.951171875	n/a	WORD	5930908	wordpools/wasnorm_wordpool_576.txt	LTP347	ltpFR2	22	15	MAPLE	866	n/a	n/a	0	0	0
2898.74853515625	n/a	WORD	5936637	wordpools/wasnorm_wordpool_576.txt	LTP347	ltpFR2	22	15	OMELET	976	n/a	n/a	0	0	0
2901.23046875	n/a	WORD	5941720	wordpools/wasnorm_wordpool_576.txt	LTP347	ltpFR2	22	15	NIGHTGOWN	953	n/a	n/a	0	0	0
2903.947265625	n/a	WORD	5947284	wordpools/wasnorm_wordpool_576.txt	LTP347	ltpFR2	22	15	BUTCHER	203	n/a	n/a	0	0	0
2906.54443359375	n/a	WORD	5952603	wordpools/wasnorm_wordpool_576.txt	LTP347	ltpFR2	22	15	BACON	67	n/a	n/a	0	0	0
2909.1435546875	n/a	WORD	5957926	wordpools/wasnorm_wordpool_576.txt	LTP347	ltpFR2	22	15	BACKBONE	66	n/a	n/a	0	0	0
2911.5751953125	n/a	WORD	5962906	wordpools/wasnorm_wordpool_576.txt	LTP347	ltpFR2	22	15	ORCHID	982	n/a	n/a	0	0	0
2914.19140625	n/a	WORD	5968264	wordpools/wasnorm_wordpool_576.txt	LTP347	ltpFR2	22	15	CHAUFFEUR	283	n/a	n/a	0	0	0
2917.0224609375	n/a	WORD	5974062	wordpools/wasnorm_wordpool_576.txt	LTP347	ltpFR2	22	15	MARROW	872	n/a	n/a	0	0	0
2919.83837890625	n/a	WORD	5979829	wordpools/wasnorm_wordpool_576.txt	LTP347	ltpFR2	22	15	OUTFIT	988	n/a	n/a	0	0	0
2922.4375	n/a	WORD	5985152	wordpools/wasnorm_wordpool_576.txt	LTP347	ltpFR2	22	15	HAMPER	682	n/a	n/a	0	0	0
2925.21826171875	n/a	WORD	5990847	wordpools/wasnorm_wordpool_576.txt	LTP347	ltpFR2	22	15	SPARROW	1347	n/a	n/a	0	0	0
2927.767578125	n/a	WORD	5996068	wordpools/wasnorm_wordpool_576.txt	LTP347	ltpFR2	22	15	TROMBONE	1508	n/a	n/a	0	0	0
2930.19970703125	n/a	WORD	6001049	wordpools/wasnorm_wordpool_576.txt	LTP347	ltpFR2	22	15	BANJO	82	n/a	n/a	0	0	0
2932.79833984375	n/a	WORD	6006371	wordpools/wasnorm_wordpool_576.txt	LTP347	ltpFR2	22	15	COUNTY	389	n/a	n/a	0	0	0
2935.59765625	n/a	WORD	6012104	wordpools/wasnorm_wordpool_576.txt	LTP347	ltpFR2	22	15	CRITIC	410	n/a	n/a	0	0	0
2938.3955078125	n/a	WORD	6017834	wordpools/wasnorm_wordpool_576.txt	LTP347	ltpFR2	22	15	SPHINX	1349	n/a	n/a	0	0	0
2940.8447265625	n/a	WORD	6022850	wordpools/wasnorm_wordpool_576.txt	LTP347	ltpFR2	22	15	BLOCKADE	137	n/a	n/a	0	0	0
2943.32666015625	n/a	WORD	6027933	wordpools/wasnorm_wordpool_576.txt	LTP347	ltpFR2	22	15	HUSBAND	728	n/a	n/a	0	0	0
2945.94384765625	n/a	WORD	6033293	wordpools/wasnorm_wordpool_576.txt	LTP347	ltpFR2	22	15	FILM	565	n/a	n/a	0	0	0
2948.474609375	n/a	WORD	6038476	wordpools/wasnorm_wordpool_576.txt	LTP347	ltpFR2	22	15	MONSTER	912	n/a	n/a	0	0	0
2950.95751953125	n/a	WORD	6043561	wordpools/wasnorm_wordpool_576.txt	LTP347	ltpFR2	22	15	BRACES	164	n/a	n/a	0	0	0
2952.57275390625	n/a	START	6046869	n/a	LTP347	ltpFR2	22	n/a	n/a	n/a	19	n/a	n/a	n/a	n/a
2953.52587890625	n/a	DISTRACTOR	6048821	n/a	LTP347	ltpFR2	22	15	n/a	n/a	n/a	n/a	0	0	0
2953.53857421875	n/a	PROB	6048847	n/a	LTP347	ltpFR2	22	n/a	n/a	n/a	19	13	2	2	9
2955.07080078125	n/a	PROB	6051985	n/a	LTP347	ltpFR2	22	n/a	n/a	n/a	19	21	8	4	9
2956.3369140625	n/a	PROB	6054578	n/a	LTP347	ltpFR2	22	n/a	n/a	n/a	19	17	7	7	3
2957.4697265625	n/a	PROB	6056898	n/a	LTP347	ltpFR2	22	n/a	n/a	n/a	19	14	6	4	4
2958.86865234375	n/a	PROB	6059763	n/a	LTP347	ltpFR2	22	n/a	n/a	n/a	19	18	1	8	9
2959.9697265625	n/a	PROB	6062018	n/a	LTP347	ltpFR2	22	n/a	n/a	n/a	19	20	9	2	9
2961.15185546875	n/a	PROB	6064439	n/a	LTP347	ltpFR2	22	n/a	n/a	n/a	19	19	2	8	9
2962.43359375	n/a	PROB	6067064	n/a	LTP347	ltpFR2	22	n/a	n/a	n/a	19	16	9	6	1
2963.86669921875	n/a	PROB	6069999	n/a	LTP347	ltpFR2	22	n/a	n/a	n/a	19	15	4	9	2
2965.7158203125	n/a	PROB	6073786	n/a	LTP347	ltpFR2	22	n/a	n/a	n/a	19	14	4	4	6
2966.9658203125	n/a	PROB	6076346	n/a	LTP347	ltpFR2	22	n/a	n/a	n/a	19	21	9	3	9
2968.2646484375	n/a	PROB	6079006	n/a	LTP347	ltpFR2	22	n/a	n/a	n/a	19	16	5	2	9
2969.89697265625	n/a	PROB	6082349	n/a	LTP347	ltpFR2	22	n/a	n/a	n/a	19	22	7	8	7
2971.595703125	n/a	PROB	6085828	n/a	LTP347	ltpFR2	22	n/a	n/a	n/a	19	9	6	1	2
2972.74560546875	n/a	PROB	6088183	n/a	LTP347	ltpFR2	22	n/a	n/a	n/a	19	19	6	9	4
2974.06201171875	n/a	PROB	6090879	n/a	LTP347	ltpFR2	22	n/a	n/a	n/a	19	8	4	1	3
2975.11669921875	n/a	STOP	6093039	n/a	LTP347	ltpFR2	22	n/a	n/a	n/a	19	n/a	n/a	n/a	n/a
2978.40966796875	n/a	REC_START	6099783	n/a	LTP347	ltpFR2	22	15	n/a	n/a	n/a	n/a	0	0	0
3033.59619140625	n/a	REC_WORD_VV	6212805	wordpools/wasnorm_wordpool_576.txt	LTP347	ltpFR2	22	15	<>	-1	n/a	n/a	0	0	0
3034.14111328125	n/a	REC_WORD	6213921	wordpools/wasnorm_wordpool_576.txt	LTP347	ltpFR2	22	15	PIZZA	1079	n/a	n/a	0	0	0
3035.50830078125	n/a	REC_WORD	6216721	wordpools/wasnorm_wordpool_576.txt	LTP347	ltpFR2	22	15	TOMBSTONE	1478	n/a	n/a	0	0	0
3037.88330078125	n/a	REC_WORD	6221585	wordpools/wasnorm_wordpool_576.txt	LTP347	ltpFR2	22	15	MAPLE	866	n/a	n/a	0	0	0
3068.8486328125	n/a	DISTRACTOR	6285002	n/a	LTP347	ltpFR2	22	16	n/a	n/a	n/a	n/a	0	0	0
3068.8486328125	n/a	START	6285002	n/a	LTP347	ltpFR2	22	n/a	n/a	n/a	20	n/a	n/a	n/a	n/a
3068.865234375	n/a	PROB	6285036	n/a	LTP347	ltpFR2	22	n/a	n/a	n/a	20	13	6	1	6
3070.1982421875	n/a	PROB	6287766	n/a	LTP347	ltpFR2	22	n/a	n/a	n/a	20	2	8	5	9
3071.5302734375	n/a	PROB	6290494	n/a	LTP347	ltpFR2	22	n/a	n/a	n/a	20	16	5	3	8
3072.8466796875	n/a	PROB	6293190	n/a	LTP347	ltpFR2	22	n/a	n/a	n/a	20	15	5	9	1
3073.9296875	n/a	PROB	6295408	n/a	LTP347	ltpFR2	22	n/a	n/a	n/a	20	16	2	9	5
3075.16259765625	n/a	PROB	6297933	n/a	LTP347	ltpFR2	22	n/a	n/a	n/a	20	10	6	2	2
3076.32861328125	n/a	PROB	6300321	n/a	LTP347	ltpFR2	22	n/a	n/a	n/a	20	14	3	4	7
3078.060546875	n/a	PROB	6303868	n/a	LTP347	ltpFR2	22	n/a	n/a	n/a	20	5	1	1	3
3078.99462890625	n/a	PROB	6305781	n/a	LTP347	ltpFR2	22	n/a	n/a	n/a	20	18	3	7	8
3080.109375	n/a	PROB	6308064	n/a	LTP347	ltpFR2	22	n/a	n/a	n/a	20	16	9	1	6
3081.2255859375	n/a	PROB	6310350	n/a	LTP347	ltpFR2	22	n/a	n/a	n/a	20	1	8	2	6
3082.6083984375	n/a	PROB	6313182	n/a	LTP347	ltpFR2	22	n/a	n/a	n/a	20	14	3	5	6
3085.17333984375	n/a	PROB	6318435	n/a	LTP347	ltpFR2	22	n/a	n/a	n/a	20	12	5	3	4
3086.62353515625	n/a	PROB	6321405	n/a	LTP347	ltpFR2	22	n/a	n/a	n/a	20	22	9	9	4
3087.85546875	n/a	PROB	6323928	n/a	LTP347	ltpFR2	22	n/a	n/a	n/a	20	17	2	7	8
3089.33837890625	n/a	PROB	6326965	n/a	LTP347	ltpFR2	22	n/a	n/a	n/a	20	19	6	6	7
