onset	duration	trial_type	sample	stim_file	subject	experiment	session	trial	item_name	item_num	list	answer	test_x	test_y	test_z
258.586	n/a	SESS_START	129293	n/a	LTP303	ltpFR2	8	n/a	n/a	n/a	n/a	n/a	0	0	0
267.406	n/a	START	133703	n/a	LTP303	ltpFR2	8	n/a	n/a	n/a	-1	n/a	n/a	n/a	n/a
267.424	n/a	PROB	133712	n/a	LTP303	ltpFR2	8	n/a	n/a	n/a	-1	9	3	5	1
268.854	n/a	PROB	134427	n/a	LTP303	ltpFR2	8	n/a	n/a	n/a	-1	16	4	6	6
270.138	n/a	PROB	135069	n/a	LTP303	ltpFR2	8	n/a	n/a	n/a	-1	14	8	2	4
271.106	n/a	PROB	135553	n/a	LTP303	ltpFR2	8	n/a	n/a	n/a	-1	13	2	5	6
272.304	n/a	PROB	136152	n/a	LTP303	ltpFR2	8	n/a	n/a	n/a	-1	7	3	3	1
273.626	n/a	PROB	136813	n/a	LTP303	ltpFR2	8	n/a	n/a	n/a	-1	24	9	7	8
275.558	n/a	PROB	137779	n/a	LTP303	ltpFR2	8	n/a	n/a	n/a	-1	10	2	5	3
276.96	n/a	PROB	138480	n/a	LTP303	ltpFR2	8	n/a	n/a	n/a	-1	13	1	4	8
278.752	n/a	STOP	139376	n/a	LTP303	ltpFR2	8	n/a	n/a	n/a	-1	n/a	n/a	n/a	n/a
296.81	n/a	DISTRACTOR	148405	n/a	LTP303	ltpFR2	8	1	n/a	n/a	n/a	n/a	0	0	0
296.81	n/a	START	148405	n/a	LTP303	ltpFR2	8	n/a	n/a	n/a	1	n/a	n/a	n/a	n/a
296.828	n/a	PROB	148414	n/a	LTP303	ltpFR2	8	n/a	n/a	n/a	1	10	2	1	7
298.444	n/a	PROB	149222	n/a	LTP303	ltpFR2	8	n/a	n/a	n/a	1	11	7	2	2
300.162	n/a	PROB	150081	n/a	LTP303	ltpFR2	8	n/a	n/a	n/a	1	20	7	4	9
301.93	n/a	PROB	150965	n/a	LTP303	ltpFR2	8	n/a	n/a	n/a	1	14	1	4	9
303.166	n/a	PROB	151583	n/a	LTP303	ltpFR2	8	n/a	n/a	n/a	1	11	9	1	1
304.296	n/a	PROB	152148	n/a	LTP303	ltpFR2	8	n/a	n/a	n/a	1	13	6	5	2
306.366	n/a	PROB	153183	n/a	LTP303	ltpFR2	8	n/a	n/a	n/a	1	24	8	7	9
307.836	n/a	PROB	153918	n/a	LTP303	ltpFR2	8	n/a	n/a	n/a	1	24	9	9	6
309.402	n/a	PROB	154701	n/a	LTP303	ltpFR2	8	n/a	n/a	n/a	1	12	7	1	4
311.138	n/a	PROB	155569	n/a	LTP303	ltpFR2	8	n/a	n/a	n/a	1	22	9	6	7
314.172	n/a	PROB	157086	n/a	LTP303	ltpFR2	8	n/a	n/a	n/a	1	17	6	5	6
316.726	n/a	PROB	158363	n/a	LTP303	ltpFR2	8	n/a	n/a	n/a	1	13	1	5	7
318.008	n/a	PROB	159004	n/a	LTP303	ltpFR2	8	n/a	n/a	n/a	1	10	3	1	6
319.85	n/a	STOP	159925	n/a	LTP303	ltpFR2	8	n/a	n/a	n/a	1	n/a	n/a	n/a	n/a
321.814	n/a	WORD	160907	wordpools/wasnorm_wordpool_576.txt	LTP303	ltpFR2	8	1	LODGE	839	n/a	n/a	0	0	0
324.392	n/a	WORD	162196	wordpools/wasnorm_wordpool_576.txt	LTP303	ltpFR2	8	1	DIVER	476	n/a	n/a	0	0	0
326.878	n/a	WORD	163439	wordpools/wasnorm_wordpool_576.txt	LTP303	ltpFR2	8	1	MARINE	869	n/a	n/a	0	0	0
329.47	n/a	WORD	164735	wordpools/wasnorm_wordpool_576.txt	LTP303	ltpFR2	8	1	ROOSTER	1209	n/a	n/a	0	0	0
332.172	n/a	WORD	166086	wordpools/wasnorm_wordpool_576.txt	LTP303	ltpFR2	8	1	NOTEBOOK	959	n/a	n/a	0	0	0
334.602	n/a	WORD	167301	wordpools/wasnorm_wordpool_576.txt	LTP303	ltpFR2	8	1	RACKET	1155	n/a	n/a	0	0	0
337.02	n/a	WORD	168510	wordpools/wasnorm_wordpool_576.txt	LTP303	ltpFR2	8	1	PARSLEY	1016	n/a	n/a	0	0	0
339.628	n/a	WORD	169814	wordpools/wasnorm_wordpool_576.txt	LTP303	ltpFR2	8	1	ANTLER	29	n/a	n/a	0	0	0
342.19	n/a	WORD	171095	wordpools/wasnorm_wordpool_576.txt	LTP303	ltpFR2	8	1	TILE	1468	n/a	n/a	0	0	0
344.81	n/a	WORD	172405	wordpools/wasnorm_wordpool_576.txt	LTP303	ltpFR2	8	1	BUREAU	199	n/a	n/a	0	0	0
347.428	n/a	WORD	173714	wordpools/wasnorm_wordpool_576.txt	LTP303	ltpFR2	8	1	MATCH	878	n/a	n/a	0	0	0
350.018	n/a	WORD	175009	wordpools/wasnorm_wordpool_576.txt	LTP303	ltpFR2	8	1	JUNGLE	764	n/a	n/a	0	0	0
352.57	n/a	WORD	176285	wordpools/wasnorm_wordpool_576.txt	LTP303	ltpFR2	8	1	PLASTER	1085	n/a	n/a	0	0	0
355.356	n/a	WORD	177678	wordpools/wasnorm_wordpool_576.txt	LTP303	ltpFR2	8	1	JAPAN	749	n/a	n/a	0	0	0
358.008	n/a	WORD	179004	wordpools/wasnorm_wordpool_576.txt	LTP303	ltpFR2	8	1	PATROL	1027	n/a	n/a	0	0	0
360.692	n/a	WORD	180346	wordpools/wasnorm_wordpool_576.txt	LTP303	ltpFR2	8	1	BUBBLE	183	n/a	n/a	0	0	0
363.276	n/a	WORD	181638	wordpools/wasnorm_wordpool_576.txt	LTP303	ltpFR2	8	1	DRINK	498	n/a	n/a	0	0	0
365.878	n/a	WORD	182939	wordpools/wasnorm_wordpool_576.txt	LTP303	ltpFR2	8	1	TRACTOR	1493	n/a	n/a	0	0	0
368.364	n/a	WORD	184182	wordpools/wasnorm_wordpool_576.txt	LTP303	ltpFR2	8	1	TRUCK	1512	n/a	n/a	0	0	0
370.898	n/a	WORD	185449	wordpools/wasnorm_wordpool_576.txt	LTP303	ltpFR2	8	1	MOP	916	n/a	n/a	0	0	0
373.668	n/a	WORD	186834	wordpools/wasnorm_wordpool_576.txt	LTP303	ltpFR2	8	1	PRIMATE	1123	n/a	n/a	0	0	0
376.404	n/a	WORD	188202	wordpools/wasnorm_wordpool_576.txt	LTP303	ltpFR2	8	1	BRAKE	166	n/a	n/a	0	0	0
378.856	n/a	WORD	189428	wordpools/wasnorm_wordpool_576.txt	LTP303	ltpFR2	8	1	FRIAR	605	n/a	n/a	0	0	0
381.474	n/a	WORD	190737	wordpools/wasnorm_wordpool_576.txt	LTP303	ltpFR2	8	1	CROSS	413	n/a	n/a	0	0	0
383.078	n/a	START	191539	n/a	LTP303	ltpFR2	8	n/a	n/a	n/a	2	n/a	n/a	n/a	n/a
384.12	n/a	DISTRACTOR	192060	n/a	LTP303	ltpFR2	8	1	n/a	n/a	n/a	n/a	0	0	0
384.128	n/a	PROB	192064	n/a	LTP303	ltpFR2	8	n/a	n/a	n/a	2	13	2	2	9
386.144	n/a	PROB	193072	n/a	LTP303	ltpFR2	8	n/a	n/a	n/a	2	17	3	8	5
388.43	n/a	PROB	194215	n/a	LTP303	ltpFR2	8	n/a	n/a	n/a	2	19	8	8	3
391.62	n/a	PROB	195810	n/a	LTP303	ltpFR2	8	n/a	n/a	n/a	2	14	1	6	7
393.154	n/a	PROB	196577	n/a	LTP303	ltpFR2	8	n/a	n/a	n/a	2	15	1	8	6
394.304	n/a	PROB	197152	n/a	LTP303	ltpFR2	8	n/a	n/a	n/a	2	19	3	9	7
395.772	n/a	PROB	197886	n/a	LTP303	ltpFR2	8	n/a	n/a	n/a	2	11	5	5	1
396.738	n/a	PROB	198369	n/a	LTP303	ltpFR2	8	n/a	n/a	n/a	2	7	3	1	3
398.374	n/a	PROB	199187	n/a	LTP303	ltpFR2	8	n/a	n/a	n/a	2	7	3	2	2
400.108	n/a	PROB	200054	n/a	LTP303	ltpFR2	8	n/a	n/a	n/a	2	20	2	9	9
401.56	n/a	PROB	200780	n/a	LTP303	ltpFR2	8	n/a	n/a	n/a	2	27	9	9	9
403.576	n/a	PROB	201788	n/a	LTP303	ltpFR2	8	n/a	n/a	n/a	2	14	4	8	2
404.696	n/a	PROB	202348	n/a	LTP303	ltpFR2	8	n/a	n/a	n/a	2	15	4	8	3
406.332	n/a	STOP	203166	n/a	LTP303	ltpFR2	8	n/a	n/a	n/a	2	n/a	n/a	n/a	n/a
408.966	n/a	REC_START	204483	n/a	LTP303	ltpFR2	8	1	n/a	n/a	n/a	n/a	0	0	0
411.136	n/a	REC_WORD	205568	wordpools/wasnorm_wordpool_576.txt	LTP303	ltpFR2	8	1	LODGE	839	n/a	n/a	0	0	0
412.15	n/a	REC_WORD	206075	wordpools/wasnorm_wordpool_576.txt	LTP303	ltpFR2	8	1	DIVER	476	n/a	n/a	0	0	0
413.282	n/a	REC_WORD	206641	wordpools/wasnorm_wordpool_576.txt	LTP303	ltpFR2	8	1	MARINE	869	n/a	n/a	0	0	0
414.516	n/a	REC_WORD	207258	wordpools/wasnorm_wordpool_576.txt	LTP303	ltpFR2	8	1	ROOSTER	1209	n/a	n/a	0	0	0
415.694	n/a	REC_WORD	207847	wordpools/wasnorm_wordpool_576.txt	LTP303	ltpFR2	8	1	NOTEBOOK	959	n/a	n/a	0	0	0
416.888	n/a	REC_WORD	208444	wordpools/wasnorm_wordpool_576.txt	LTP303	ltpFR2	8	1	TILE	1468	n/a	n/a	0	0	0
418.07	n/a	REC_WORD	209035	wordpools/wasnorm_wordpool_576.txt	LTP303	ltpFR2	8	1	MATCH	878	n/a	n/a	0	0	0
419.236	n/a	REC_WORD	209618	wordpools/wasnorm_wordpool_576.txt	LTP303	ltpFR2	8	1	BUREAU	199	n/a	n/a	0	0	0
420.53	n/a	REC_WORD	210265	wordpools/wasnorm_wordpool_576.txt	LTP303	ltpFR2	8	1	JUNGLE	764	n/a	n/a	0	0	0
421.736	n/a	REC_WORD	210868	wordpools/wasnorm_wordpool_576.txt	LTP303	ltpFR2	8	1	PLASTER	1085	n/a	n/a	0	0	0
422.896	n/a	REC_WORD	211448	wordpools/wasnorm_wordpool_576.txt	LTP303	ltpFR2	8	1	JAPAN	749	n/a	n/a	0	0	0
424.274	n/a	REC_WORD	212137	wordpools/wasnorm_wordpool_576.txt	LTP303	ltpFR2	8	1	FLEET	578	n/a	n/a	0	0	0
427.118	n/a	REC_WORD	213559	wordpools/wasnorm_wordpool_576.txt	LTP303	ltpFR2	8	1	BUBBLE	183	n/a	n/a	0	0	0
428.264	n/a	REC_WORD	214132	wordpools/wasnorm_wordpool_576.txt	LTP303	ltpFR2	8	1	DRINK	498	n/a	n/a	0	0	0
430.994	n/a	REC_WORD	215497	wordpools/wasnorm_wordpool_576.txt	LTP303	ltpFR2	8	1	TRACTOR	1493	n/a	n/a	0	0	0
433.502	n/a	REC_WORD	216751	wordpools/wasnorm_wordpool_576.txt	LTP303	ltpFR2	8	1	TRUCK	1512	n/a	n/a	0	0	0
434.716	n/a	REC_WORD	217358	wordpools/wasnorm_wordpool_576.txt	LTP303	ltpFR2	8	1	MOP	916	n/a	n/a	0	0	0
436.06	n/a	REC_WORD	218030	wordpools/wasnorm_wordpool_576.txt	LTP303	ltpFR2	8	1	PRIMATE	1123	n/a	n/a	0	0	0
437.51	n/a	REC_WORD	218755	wordpools/wasnorm_wordpool_576.txt	LTP303	ltpFR2	8	1	BRAKE	166	n/a	n/a	0	0	0
438.536	n/a	REC_WORD	219268	wordpools/wasnorm_wordpool_576.txt	LTP303	ltpFR2	8	1	FRIAR	605	n/a	n/a	0	0	0
440.022	n/a	REC_WORD	220011	wordpools/wasnorm_wordpool_576.txt	LTP303	ltpFR2	8	1	CROSS	413	n/a	n/a	0	0	0
499.386	n/a	DISTRACTOR	249693	n/a	LTP303	ltpFR2	8	2	n/a	n/a	n/a	n/a	0	0	0
499.386	n/a	START	249693	n/a	LTP303	ltpFR2	8	n/a	n/a	n/a	3	n/a	n/a	n/a	n/a
499.402	n/a	PROB	249701	n/a	LTP303	ltpFR2	8	n/a	n/a	n/a	3	12	4	3	5
500.904	n/a	PROB	250452	n/a	LTP303	ltpFR2	8	n/a	n/a	n/a	3	13	8	1	4
502.74	n/a	PROB	251370	n/a	LTP303	ltpFR2	8	n/a	n/a	n/a	3	21	5	9	7
504.306	n/a	PROB	252153	n/a	LTP303	ltpFR2	8	n/a	n/a	n/a	3	15	7	6	2
505.842	n/a	PROB	252921	n/a	LTP303	ltpFR2	8	n/a	n/a	n/a	3	18	4	5	9
507.928	n/a	PROB	253964	n/a	LTP303	ltpFR2	8	n/a	n/a	n/a	3	15	9	5	1
510.046	n/a	PROB	255023	n/a	LTP303	ltpFR2	8	n/a	n/a	n/a	3	15	9	4	2
512.148	n/a	PROB	256074	n/a	LTP303	ltpFR2	8	n/a	n/a	n/a	3	12	1	9	2
513.566	n/a	PROB	256783	n/a	LTP303	ltpFR2	8	n/a	n/a	n/a	3	9	7	1	1
514.898	n/a	PROB	257449	n/a	LTP303	ltpFR2	8	n/a	n/a	n/a	3	11	3	1	7
516.032	n/a	PROB	258016	n/a	LTP303	ltpFR2	8	n/a	n/a	n/a	3	9	5	1	3
517.266	n/a	PROB	258633	n/a	LTP303	ltpFR2	8	n/a	n/a	n/a	3	13	8	3	2
518.534	n/a	PROB	259267	n/a	LTP303	ltpFR2	8	n/a	n/a	n/a	3	6	2	2	2
519.654	n/a	PROB	259827	n/a	LTP303	ltpFR2	8	n/a	n/a	n/a	3	14	3	3	8
521.188	n/a	PROB	260594	n/a	LTP303	ltpFR2	8	n/a	n/a	n/a	3	16	7	5	4
522.864	n/a	STOP	261432	n/a	LTP303	ltpFR2	8	n/a	n/a	n/a	3	n/a	n/a	n/a	n/a
524.382	n/a	WORD	262191	wordpools/wasnorm_wordpool_576.txt	LTP303	ltpFR2	8	2	AIRPLANE	12	n/a	n/a	0	0	0
526.976	n/a	WORD	263488	wordpools/wasnorm_wordpool_576.txt	LTP303	ltpFR2	8	2	BRANCH	168	n/a	n/a	0	0	0
529.468	n/a	WORD	264734	wordpools/wasnorm_wordpool_576.txt	LTP303	ltpFR2	8	2	PASTA	1021	n/a	n/a	0	0	0
532.046	n/a	WORD	266023	wordpools/wasnorm_wordpool_576.txt	LTP303	ltpFR2	8	2	SUITCASE	1403	n/a	n/a	0	0	0
534.64	n/a	WORD	267320	wordpools/wasnorm_wordpool_576.txt	LTP303	ltpFR2	8	2	PICTURE	1061	n/a	n/a	0	0	0
537.266	n/a	WORD	268633	wordpools/wasnorm_wordpool_576.txt	LTP303	ltpFR2	8	2	BEEF	113	n/a	n/a	0	0	0
539.712	n/a	WORD	269856	wordpools/wasnorm_wordpool_576.txt	LTP303	ltpFR2	8	2	KNAPSACK	783	n/a	n/a	0	0	0
542.404	n/a	WORD	271202	wordpools/wasnorm_wordpool_576.txt	LTP303	ltpFR2	8	2	SKIRT	1319	n/a	n/a	0	0	0
545.19	n/a	WORD	272595	wordpools/wasnorm_wordpool_576.txt	LTP303	ltpFR2	8	2	BRICK	172	n/a	n/a	0	0	0
547.768	n/a	WORD	273884	wordpools/wasnorm_wordpool_576.txt	LTP303	ltpFR2	8	2	WORKER	1621	n/a	n/a	0	0	0
550.494	n/a	WORD	275247	wordpools/wasnorm_wordpool_576.txt	LTP303	ltpFR2	8	2	MARS	873	n/a	n/a	0	0	0
552.924	n/a	WORD	276462	wordpools/wasnorm_wordpool_576.txt	LTP303	ltpFR2	8	2	FRIEND	606	n/a	n/a	0	0	0
555.498	n/a	WORD	277749	wordpools/wasnorm_wordpool_576.txt	LTP303	ltpFR2	8	2	COUNTY	389	n/a	n/a	0	0	0
558.144	n/a	WORD	279072	wordpools/wasnorm_wordpool_576.txt	LTP303	ltpFR2	8	2	ANKLE	24	n/a	n/a	0	0	0
560.63	n/a	WORD	280315	wordpools/wasnorm_wordpool_576.txt	LTP303	ltpFR2	8	2	DRIVER	499	n/a	n/a	0	0	0
563.282	n/a	WORD	281641	wordpools/wasnorm_wordpool_576.txt	LTP303	ltpFR2	8	2	PISTON	1076	n/a	n/a	0	0	0
566.002	n/a	WORD	283001	wordpools/wasnorm_wordpool_576.txt	LTP303	ltpFR2	8	2	FRAME	600	n/a	n/a	0	0	0
568.654	n/a	WORD	284327	wordpools/wasnorm_wordpool_576.txt	LTP303	ltpFR2	8	2	ROCKET	1202	n/a	n/a	0	0	0
571.156	n/a	WORD	285578	wordpools/wasnorm_wordpool_576.txt	LTP303	ltpFR2	8	2	HIKER	708	n/a	n/a	0	0	0
573.574	n/a	WORD	286787	wordpools/wasnorm_wordpool_576.txt	LTP303	ltpFR2	8	2	SHORTS	1293	n/a	n/a	0	0	0
576.242	n/a	WORD	288121	wordpools/wasnorm_wordpool_576.txt	LTP303	ltpFR2	8	2	LIZARD	834	n/a	n/a	0	0	0
578.894	n/a	WORD	289447	wordpools/wasnorm_wordpool_576.txt	LTP303	ltpFR2	8	2	POISON	1096	n/a	n/a	0	0	0
581.58	n/a	WORD	290790	wordpools/wasnorm_wordpool_576.txt	LTP303	ltpFR2	8	2	CLOUD	328	n/a	n/a	0	0	0
584.348	n/a	WORD	292174	wordpools/wasnorm_wordpool_576.txt	LTP303	ltpFR2	8	2	DENIM	446	n/a	n/a	0	0	0
585.952	n/a	START	292976	n/a	LTP303	ltpFR2	8	n/a	n/a	n/a	4	n/a	n/a	n/a	n/a
586.912	n/a	DISTRACTOR	293456	n/a	LTP303	ltpFR2	8	2	n/a	n/a	n/a	n/a	0	0	0
586.92	n/a	PROB	293460	n/a	LTP303	ltpFR2	8	n/a	n/a	n/a	4	14	2	5	7
588.858	n/a	PROB	294429	n/a	LTP303	ltpFR2	8	n/a	n/a	n/a	4	10	3	3	4
590.492	n/a	PROB	295246	n/a	LTP303	ltpFR2	8	n/a	n/a	n/a	4	13	1	7	5
591.594	n/a	PROB	295797	n/a	LTP303	ltpFR2	8	n/a	n/a	n/a	4	16	8	7	1
592.962	n/a	PROB	296481	n/a	LTP303	ltpFR2	8	n/a	n/a	n/a	4	16	4	9	3
594.712	n/a	PROB	297356	n/a	LTP303	ltpFR2	8	n/a	n/a	n/a	4	16	6	2	8
596.664	n/a	PROB	298332	n/a	LTP303	ltpFR2	8	n/a	n/a	n/a	4	19	9	4	6
598.482	n/a	PROB	299241	n/a	LTP303	ltpFR2	8	n/a	n/a	n/a	4	12	7	1	4
601.034	n/a	PROB	300517	n/a	LTP303	ltpFR2	8	n/a	n/a	n/a	4	22	5	9	8
603.604	n/a	PROB	301802	n/a	LTP303	ltpFR2	8	n/a	n/a	n/a	4	13	4	5	4
605.034	n/a	PROB	302517	n/a	LTP303	ltpFR2	8	n/a	n/a	n/a	4	15	5	6	4
606.584	n/a	PROB	303292	n/a	LTP303	ltpFR2	8	n/a	n/a	n/a	4	14	4	5	5
607.82	n/a	PROB	303910	n/a	LTP303	ltpFR2	8	n/a	n/a	n/a	4	18	5	8	5
609.264	n/a	STOP	304632	n/a	LTP303	ltpFR2	8	n/a	n/a	n/a	4	n/a	n/a	n/a	n/a
611.76	n/a	REC_START	305880	n/a	LTP303	ltpFR2	8	2	n/a	n/a	n/a	n/a	0	0	0
613.846	n/a	REC_WORD	306923	wordpools/wasnorm_wordpool_576.txt	LTP303	ltpFR2	8	2	AIRPLANE	12	n/a	n/a	0	0	0
615.026	n/a	REC_WORD	307513	wordpools/wasnorm_wordpool_576.txt	LTP303	ltpFR2	8	2	BRANCH	168	n/a	n/a	0	0	0
616.206	n/a	REC_WORD	308103	wordpools/wasnorm_wordpool_576.txt	LTP303	ltpFR2	8	2	PASTA	1021	n/a	n/a	0	0	0
618.94	n/a	REC_WORD	309470	wordpools/wasnorm_wordpool_576.txt	LTP303	ltpFR2	8	2	SUITCASE	1403	n/a	n/a	0	0	0
622.406	n/a	REC_WORD	311203	wordpools/wasnorm_wordpool_576.txt	LTP303	ltpFR2	8	2	PICTURE	1061	n/a	n/a	0	0	0
623.53	n/a	REC_WORD	311765	wordpools/wasnorm_wordpool_576.txt	LTP303	ltpFR2	8	2	BEEF	113	n/a	n/a	0	0	0
624.786	n/a	REC_WORD	312393	wordpools/wasnorm_wordpool_576.txt	LTP303	ltpFR2	8	2	KNAPSACK	783	n/a	n/a	0	0	0
626.384	n/a	REC_WORD	313192	wordpools/wasnorm_wordpool_576.txt	LTP303	ltpFR2	8	2	SKIRT	1319	n/a	n/a	0	0	0
627.718	n/a	REC_WORD	313859	wordpools/wasnorm_wordpool_576.txt	LTP303	ltpFR2	8	2	BRICK	172	n/a	n/a	0	0	0
629.058	n/a	REC_WORD	314529	wordpools/wasnorm_wordpool_576.txt	LTP303	ltpFR2	8	2	WORKER	1621	n/a	n/a	0	0	0
630.392	n/a	REC_WORD	315196	wordpools/wasnorm_wordpool_576.txt	LTP303	ltpFR2	8	2	MARS	873	n/a	n/a	0	0	0
631.622	n/a	REC_WORD	315811	wordpools/wasnorm_wordpool_576.txt	LTP303	ltpFR2	8	2	FRIEND	606	n/a	n/a	0	0	0
632.994	n/a	REC_WORD	316497	wordpools/wasnorm_wordpool_576.txt	LTP303	ltpFR2	8	2	COUNTY	389	n/a	n/a	0	0	0
634.34	n/a	REC_WORD	317170	wordpools/wasnorm_wordpool_576.txt	LTP303	ltpFR2	8	2	ANKLE	24	n/a	n/a	0	0	0
639.522	n/a	REC_WORD	319761	wordpools/wasnorm_wordpool_576.txt	LTP303	ltpFR2	8	2	TAXI	1438	n/a	n/a	0	0	0
641.054	n/a	REC_WORD	320527	wordpools/wasnorm_wordpool_576.txt	LTP303	ltpFR2	8	2	PISTON	1076	n/a	n/a	0	0	0
642.4	n/a	REC_WORD	321200	wordpools/wasnorm_wordpool_576.txt	LTP303	ltpFR2	8	2	ROCKET	1202	n/a	n/a	0	0	0
643.834	n/a	REC_WORD	321917	wordpools/wasnorm_wordpool_576.txt	LTP303	ltpFR2	8	2	HIKER	708	n/a	n/a	0	0	0
645.146	n/a	REC_WORD	322573	wordpools/wasnorm_wordpool_576.txt	LTP303	ltpFR2	8	2	SHORTS	1293	n/a	n/a	0	0	0
646.898	n/a	REC_WORD	323449	wordpools/wasnorm_wordpool_576.txt	LTP303	ltpFR2	8	2	LIZARD	834	n/a	n/a	0	0	0
648.234	n/a	REC_WORD	324117	wordpools/wasnorm_wordpool_576.txt	LTP303	ltpFR2	8	2	POISON	1096	n/a	n/a	0	0	0
650.424	n/a	REC_WORD	325212	wordpools/wasnorm_wordpool_576.txt	LTP303	ltpFR2	8	2	CLOUD	328	n/a	n/a	0	0	0
652.874	n/a	REC_WORD	326437	wordpools/wasnorm_wordpool_576.txt	LTP303	ltpFR2	8	2	DENIM	446	n/a	n/a	0	0	0
702.198	n/a	WORD	351099	wordpools/wasnorm_wordpool_576.txt	LTP303	ltpFR2	8	3	RELISH	1183	n/a	n/a	0	0	0
704.786	n/a	WORD	352393	wordpools/wasnorm_wordpool_576.txt	LTP303	ltpFR2	8	3	SANDWICH	1232	n/a	n/a	0	0	0
707.222	n/a	WORD	353611	wordpools/wasnorm_wordpool_576.txt	LTP303	ltpFR2	8	3	PLATE	1086	n/a	n/a	0	0	0
709.82	n/a	WORD	354910	wordpools/wasnorm_wordpool_576.txt	LTP303	ltpFR2	8	3	NIGHTGOWN	953	n/a	n/a	0	0	0
712.438	n/a	WORD	356219	wordpools/wasnorm_wordpool_576.txt	LTP303	ltpFR2	8	3	STICKER	1382	n/a	n/a	0	0	0
715.108	n/a	WORD	357554	wordpools/wasnorm_wordpool_576.txt	LTP303	ltpFR2	8	3	FLIPPER	580	n/a	n/a	0	0	0
717.81	n/a	WORD	358905	wordpools/wasnorm_wordpool_576.txt	LTP303	ltpFR2	8	3	PILOT	1070	n/a	n/a	0	0	0
720.262	n/a	WORD	360131	wordpools/wasnorm_wordpool_576.txt	LTP303	ltpFR2	8	3	AIRPORT	13	n/a	n/a	0	0	0
722.752	n/a	WORD	361376	wordpools/wasnorm_wordpool_576.txt	LTP303	ltpFR2	8	3	RECEIPT	1173	n/a	n/a	0	0	0
725.3	n/a	WORD	362650	wordpools/wasnorm_wordpool_576.txt	LTP303	ltpFR2	8	3	HANDBAG	684	n/a	n/a	0	0	0
727.802	n/a	WORD	363901	wordpools/wasnorm_wordpool_576.txt	LTP303	ltpFR2	8	3	BEAKER	104	n/a	n/a	0	0	0
730.29	n/a	WORD	365145	wordpools/wasnorm_wordpool_576.txt	LTP303	ltpFR2	8	3	FOREHEAD	592	n/a	n/a	0	0	0
733.006	n/a	WORD	366503	wordpools/wasnorm_wordpool_576.txt	LTP303	ltpFR2	8	3	CIGAR	308	n/a	n/a	0	0	0
735.64	n/a	WORD	367820	wordpools/wasnorm_wordpool_576.txt	LTP303	ltpFR2	8	3	RIVER	1194	n/a	n/a	0	0	0
738.144	n/a	WORD	369072	wordpools/wasnorm_wordpool_576.txt	LTP303	ltpFR2	8	3	STAR	1373	n/a	n/a	0	0	0
740.578	n/a	WORD	370289	wordpools/wasnorm_wordpool_576.txt	LTP303	ltpFR2	8	3	CHEMIST	292	n/a	n/a	0	0	0
743.278	n/a	WORD	371639	wordpools/wasnorm_wordpool_576.txt	LTP303	ltpFR2	8	3	SEAL	1262	n/a	n/a	0	0	0
746.038	n/a	WORD	373019	wordpools/wasnorm_wordpool_576.txt	LTP303	ltpFR2	8	3	MONEY	908	n/a	n/a	0	0	0
748.474	n/a	WORD	374237	wordpools/wasnorm_wordpool_576.txt	LTP303	ltpFR2	8	3	BOX	159	n/a	n/a	0	0	0
751.284	n/a	WORD	375642	wordpools/wasnorm_wordpool_576.txt	LTP303	ltpFR2	8	3	AUTHOR	61	n/a	n/a	0	0	0
754.08	n/a	WORD	377040	wordpools/wasnorm_wordpool_576.txt	LTP303	ltpFR2	8	3	SCARF	1246	n/a	n/a	0	0	0
756.832	n/a	WORD	378416	wordpools/wasnorm_wordpool_576.txt	LTP303	ltpFR2	8	3	CASHIER	254	n/a	n/a	0	0	0
759.326	n/a	WORD	379663	wordpools/wasnorm_wordpool_576.txt	LTP303	ltpFR2	8	3	SPACE	1345	n/a	n/a	0	0	0
761.754	n/a	WORD	380877	wordpools/wasnorm_wordpool_576.txt	LTP303	ltpFR2	8	3	CONCERT	360	n/a	n/a	0	0	0
763.362	n/a	START	381681	n/a	LTP303	ltpFR2	8	n/a	n/a	n/a	5	n/a	n/a	n/a	n/a
764.458	n/a	DISTRACTOR	382229	n/a	LTP303	ltpFR2	8	3	n/a	n/a	n/a	n/a	0	0	0
764.462	n/a	PROB	382231	n/a	LTP303	ltpFR2	8	n/a	n/a	n/a	5	14	4	9	1
767.75	n/a	PROB	383875	n/a	LTP303	ltpFR2	8	n/a	n/a	n/a	5	17	7	5	5
769.7	n/a	PROB	384850	n/a	LTP303	ltpFR2	8	n/a	n/a	n/a	5	18	6	7	5
771.518	n/a	PROB	385759	n/a	LTP303	ltpFR2	8	n/a	n/a	n/a	5	10	3	4	3
773.554	n/a	PROB	386777	n/a	LTP303	ltpFR2	8	n/a	n/a	n/a	5	19	6	7	6
776.27	n/a	PROB	388135	n/a	LTP303	ltpFR2	8	n/a	n/a	n/a	5	14	1	8	5
778.81	n/a	PROB	389405	n/a	LTP303	ltpFR2	8	n/a	n/a	n/a	5	11	5	4	2
780.042	n/a	PROB	390021	n/a	LTP303	ltpFR2	8	n/a	n/a	n/a	5	9	1	1	7
781.576	n/a	PROB	390788	n/a	LTP303	ltpFR2	8	n/a	n/a	n/a	5	17	8	3	6
783.378	n/a	PROB	391689	n/a	LTP303	ltpFR2	8	n/a	n/a	n/a	5	17	3	9	5
785.148	n/a	PROB	392574	n/a	LTP303	ltpFR2	8	n/a	n/a	n/a	5	14	7	2	5
786.496	n/a	STOP	393248	n/a	LTP303	ltpFR2	8	n/a	n/a	n/a	5	n/a	n/a	n/a	n/a
789.136	n/a	REC_START	394568	n/a	LTP303	ltpFR2	8	3	n/a	n/a	n/a	n/a	0	0	0
796.244	n/a	REC_WORD	398122	wordpools/wasnorm_wordpool_576.txt	LTP303	ltpFR2	8	3	RELISH	1183	n/a	n/a	0	0	0
797.344	n/a	REC_WORD	398672	wordpools/wasnorm_wordpool_576.txt	LTP303	ltpFR2	8	3	SANDWICH	1232	n/a	n/a	0	0	0
798.742	n/a	REC_WORD	399371	wordpools/wasnorm_wordpool_576.txt	LTP303	ltpFR2	8	3	PLATE	1086	n/a	n/a	0	0	0
799.96	n/a	REC_WORD	399980	wordpools/wasnorm_wordpool_576.txt	LTP303	ltpFR2	8	3	NIGHTGOWN	953	n/a	n/a	0	0	0
802.708	n/a	REC_WORD	401354	wordpools/wasnorm_wordpool_576.txt	LTP303	ltpFR2	8	3	FLIPPER	580	n/a	n/a	0	0	0
803.938	n/a	REC_WORD	401969	wordpools/wasnorm_wordpool_576.txt	LTP303	ltpFR2	8	3	STICKER	1382	n/a	n/a	0	0	0
805.666	n/a	REC_WORD	402833	wordpools/wasnorm_wordpool_576.txt	LTP303	ltpFR2	8	3	AIRPORT	13	n/a	n/a	0	0	0
806.992	n/a	REC_WORD	403496	wordpools/wasnorm_wordpool_576.txt	LTP303	ltpFR2	8	3	PILOT	1070	n/a	n/a	0	0	0
808.062	n/a	REC_WORD	404031	wordpools/wasnorm_wordpool_576.txt	LTP303	ltpFR2	8	3	RECEIPT	1173	n/a	n/a	0	0	0
809.308	n/a	REC_WORD	404654	wordpools/wasnorm_wordpool_576.txt	LTP303	ltpFR2	8	3	HANDBAG	684	n/a	n/a	0	0	0
812.482	n/a	REC_WORD	406241	wordpools/wasnorm_wordpool_576.txt	LTP303	ltpFR2	8	3	BEAKER	104	n/a	n/a	0	0	0
813.606	n/a	REC_WORD	406803	wordpools/wasnorm_wordpool_576.txt	LTP303	ltpFR2	8	3	FOREHEAD	592	n/a	n/a	0	0	0
814.748	n/a	REC_WORD	407374	wordpools/wasnorm_wordpool_576.txt	LTP303	ltpFR2	8	3	CIGAR	308	n/a	n/a	0	0	0
817.62	n/a	REC_WORD	408810	wordpools/wasnorm_wordpool_576.txt	LTP303	ltpFR2	8	3	RIVER	1194	n/a	n/a	0	0	0
818.594	n/a	REC_WORD	409297	wordpools/wasnorm_wordpool_576.txt	LTP303	ltpFR2	8	3	STAR	1373	n/a	n/a	0	0	0
819.974	n/a	REC_WORD	409987	wordpools/wasnorm_wordpool_576.txt	LTP303	ltpFR2	8	3	CHEMIST	292	n/a	n/a	0	0	0
822.116	n/a	REC_WORD	411058	wordpools/wasnorm_wordpool_576.txt	LTP303	ltpFR2	8	3	AUTHOR	61	n/a	n/a	0	0	0
823.604	n/a	REC_WORD	411802	wordpools/wasnorm_wordpool_576.txt	LTP303	ltpFR2	8	3	MONEY	908	n/a	n/a	0	0	0
824.736	n/a	REC_WORD	412368	wordpools/wasnorm_wordpool_576.txt	LTP303	ltpFR2	8	3	BOX	159	n/a	n/a	0	0	0
825.868	n/a	REC_WORD	412934	wordpools/wasnorm_wordpool_576.txt	LTP303	ltpFR2	8	3	SEAL	1262	n/a	n/a	0	0	0
879.586	n/a	DISTRACTOR	439793	n/a	LTP303	ltpFR2	8	4	n/a	n/a	n/a	n/a	0	0	0
879.588	n/a	START	439794	n/a	LTP303	ltpFR2	8	n/a	n/a	n/a	6	n/a	n/a	n/a	n/a
879.604	n/a	PROB	439802	n/a	LTP303	ltpFR2	8	n/a	n/a	n/a	6	19	5	5	9
881.874	n/a	PROB	440937	n/a	LTP303	ltpFR2	8	n/a	n/a	n/a	6	14	5	4	5
882.94	n/a	PROB	441470	n/a	LTP303	ltpFR2	8	n/a	n/a	n/a	6	13	5	7	1
884.258	n/a	PROB	442129	n/a	LTP303	ltpFR2	8	n/a	n/a	n/a	6	9	5	3	1
885.424	n/a	PROB	442712	n/a	LTP303	ltpFR2	8	n/a	n/a	n/a	6	14	1	7	6
886.66	n/a	PROB	443330	n/a	LTP303	ltpFR2	8	n/a	n/a	n/a	6	10	2	6	2
887.862	n/a	PROB	443931	n/a	LTP303	ltpFR2	8	n/a	n/a	n/a	6	16	6	3	7
889.08	n/a	PROB	444540	n/a	LTP303	ltpFR2	8	n/a	n/a	n/a	6	13	6	6	1
890.58	n/a	PROB	445290	n/a	LTP303	ltpFR2	8	n/a	n/a	n/a	6	20	9	3	8
892.784	n/a	PROB	446392	n/a	LTP303	ltpFR2	8	n/a	n/a	n/a	6	17	3	8	6
894.282	n/a	PROB	447141	n/a	LTP303	ltpFR2	8	n/a	n/a	n/a	6	18	9	4	5
896.002	n/a	PROB	448001	n/a	LTP303	ltpFR2	8	n/a	n/a	n/a	6	18	5	6	7
898.054	n/a	PROB	449027	n/a	LTP303	ltpFR2	8	n/a	n/a	n/a	6	13	1	6	6
899.252	n/a	PROB	449626	n/a	LTP303	ltpFR2	8	n/a	n/a	n/a	6	17	1	9	7
900.67	n/a	PROB	450335	n/a	LTP303	ltpFR2	8	n/a	n/a	n/a	6	13	2	8	3
901.84	n/a	PROB	450920	n/a	LTP303	ltpFR2	8	n/a	n/a	n/a	6	12	2	7	3
903.138	n/a	STOP	451569	n/a	LTP303	ltpFR2	8	n/a	n/a	n/a	6	n/a	n/a	n/a	n/a
904.458	n/a	WORD	452229	wordpools/wasnorm_wordpool_576.txt	LTP303	ltpFR2	8	4	CHURCH	307	n/a	n/a	0	0	0
906.96	n/a	WORD	453480	wordpools/wasnorm_wordpool_576.txt	LTP303	ltpFR2	8	4	TRIBE	1505	n/a	n/a	0	0	0
909.63	n/a	WORD	454815	wordpools/wasnorm_wordpool_576.txt	LTP303	ltpFR2	8	4	PORTRAIT	1111	n/a	n/a	0	0	0
912.28	n/a	WORD	456140	wordpools/wasnorm_wordpool_576.txt	LTP303	ltpFR2	8	4	SUSPECT	1415	n/a	n/a	0	0	0
914.784	n/a	WORD	457392	wordpools/wasnorm_wordpool_576.txt	LTP303	ltpFR2	8	4	SPOON	1357	n/a	n/a	0	0	0
917.486	n/a	WORD	458743	wordpools/wasnorm_wordpool_576.txt	LTP303	ltpFR2	8	4	PAPER	1011	n/a	n/a	0	0	0
920.02	n/a	WORD	460010	wordpools/wasnorm_wordpool_576.txt	LTP303	ltpFR2	8	4	STATUE	1374	n/a	n/a	0	0	0
922.59	n/a	WORD	461295	wordpools/wasnorm_wordpool_576.txt	LTP303	ltpFR2	8	4	SCULPTURE	1258	n/a	n/a	0	0	0
925.258	n/a	WORD	462629	wordpools/wasnorm_wordpool_576.txt	LTP303	ltpFR2	8	4	BLOCKADE	137	n/a	n/a	0	0	0
927.676	n/a	WORD	463838	wordpools/wasnorm_wordpool_576.txt	LTP303	ltpFR2	8	4	EMPIRE	530	n/a	n/a	0	0	0
930.36	n/a	WORD	465180	wordpools/wasnorm_wordpool_576.txt	LTP303	ltpFR2	8	4	OUTFIT	988	n/a	n/a	0	0	0
933.082	n/a	WORD	466541	wordpools/wasnorm_wordpool_576.txt	LTP303	ltpFR2	8	4	CYCLONE	431	n/a	n/a	0	0	0
935.5	n/a	WORD	467750	wordpools/wasnorm_wordpool_576.txt	LTP303	ltpFR2	8	4	DRILL	497	n/a	n/a	0	0	0
938.152	n/a	WORD	469076	wordpools/wasnorm_wordpool_576.txt	LTP303	ltpFR2	8	4	IDOL	733	n/a	n/a	0	0	0
940.82	n/a	WORD	470410	wordpools/wasnorm_wordpool_576.txt	LTP303	ltpFR2	8	4	SWORD	1423	n/a	n/a	0	0	0
943.32	n/a	WORD	471660	wordpools/wasnorm_wordpool_576.txt	LTP303	ltpFR2	8	4	BLADE	134	n/a	n/a	0	0	0
945.874	n/a	WORD	472937	wordpools/wasnorm_wordpool_576.txt	LTP303	ltpFR2	8	4	TWISTER	1530	n/a	n/a	0	0	0
948.392	n/a	WORD	474196	wordpools/wasnorm_wordpool_576.txt	LTP303	ltpFR2	8	4	BURGLAR	200	n/a	n/a	0	0	0
950.93	n/a	WORD	475465	wordpools/wasnorm_wordpool_576.txt	LTP303	ltpFR2	8	4	MAILBOX	857	n/a	n/a	0	0	0
953.548	n/a	WORD	476774	wordpools/wasnorm_wordpool_576.txt	LTP303	ltpFR2	8	4	COUCH	386	n/a	n/a	0	0	0
956.1	n/a	WORD	478050	wordpools/wasnorm_wordpool_576.txt	LTP303	ltpFR2	8	4	DRESSER	496	n/a	n/a	0	0	0
958.736	n/a	WORD	479368	wordpools/wasnorm_wordpool_576.txt	LTP303	ltpFR2	8	4	ASIA	46	n/a	n/a	0	0	0
961.374	n/a	WORD	480687	wordpools/wasnorm_wordpool_576.txt	LTP303	ltpFR2	8	4	DENTIST	447	n/a	n/a	0	0	0
964.022	n/a	WORD	482011	wordpools/wasnorm_wordpool_576.txt	LTP303	ltpFR2	8	4	BANKER	84	n/a	n/a	0	0	0
965.628	n/a	START	482814	n/a	LTP303	ltpFR2	8	n/a	n/a	n/a	7	n/a	n/a	n/a	n/a
966.612	n/a	DISTRACTOR	483306	n/a	LTP303	ltpFR2	8	4	n/a	n/a	n/a	n/a	0	0	0
966.624	n/a	PROB	483312	n/a	LTP303	ltpFR2	8	n/a	n/a	n/a	7	11	2	4	5
968.506	n/a	PROB	484253	n/a	LTP303	ltpFR2	8	n/a	n/a	n/a	7	18	4	9	5
970.71	n/a	PROB	485355	n/a	LTP303	ltpFR2	8	n/a	n/a	n/a	7	14	2	6	7
972.412	n/a	PROB	486206	n/a	LTP303	ltpFR2	8	n/a	n/a	n/a	7	15	5	1	9
973.646	n/a	PROB	486823	n/a	LTP303	ltpFR2	8	n/a	n/a	n/a	7	18	4	6	8
975.062	n/a	PROB	487531	n/a	LTP303	ltpFR2	8	n/a	n/a	n/a	7	11	4	1	6
976.564	n/a	PROB	488282	n/a	LTP303	ltpFR2	8	n/a	n/a	n/a	7	17	8	6	3
978.182	n/a	PROB	489091	n/a	LTP303	ltpFR2	8	n/a	n/a	n/a	7	6	1	4	1
979.182	n/a	PROB	489591	n/a	LTP303	ltpFR2	8	n/a	n/a	n/a	7	11	3	2	6
980.852	n/a	PROB	490426	n/a	LTP303	ltpFR2	8	n/a	n/a	n/a	7	13	1	6	6
982.136	n/a	PROB	491068	n/a	LTP303	ltpFR2	8	n/a	n/a	n/a	7	23	7	8	8
984.238	n/a	PROB	492119	n/a	LTP303	ltpFR2	8	n/a	n/a	n/a	7	18	9	4	5
986.456	n/a	PROB	493228	n/a	LTP303	ltpFR2	8	n/a	n/a	n/a	7	10	1	1	8
987.706	n/a	PROB	493853	n/a	LTP303	ltpFR2	8	n/a	n/a	n/a	7	6	3	1	2
988.806	n/a	STOP	494403	n/a	LTP303	ltpFR2	8	n/a	n/a	n/a	7	n/a	n/a	n/a	n/a
991.442	n/a	REC_START	495721	n/a	LTP303	ltpFR2	8	4	n/a	n/a	n/a	n/a	0	0	0
992.304	n/a	REC_WORD	496152	wordpools/wasnorm_wordpool_576.txt	LTP303	ltpFR2	8	4	CHURCH	307	n/a	n/a	0	0	0
993.412	n/a	REC_WORD	496706	wordpools/wasnorm_wordpool_576.txt	LTP303	ltpFR2	8	4	TRIBE	1505	n/a	n/a	0	0	0
994.664	n/a	REC_WORD	497332	wordpools/wasnorm_wordpool_576.txt	LTP303	ltpFR2	8	4	PORTRAIT	1111	n/a	n/a	0	0	0
999.69	n/a	REC_WORD	499845	wordpools/wasnorm_wordpool_576.txt	LTP303	ltpFR2	8	4	SPOON	1357	n/a	n/a	0	0	0
1004.364	n/a	REC_WORD	502182	wordpools/wasnorm_wordpool_576.txt	LTP303	ltpFR2	8	4	PAPER	1011	n/a	n/a	0	0	0
1005.282	n/a	REC_WORD	502641	wordpools/wasnorm_wordpool_576.txt	LTP303	ltpFR2	8	4	STATUE	1374	n/a	n/a	0	0	0
1006.45	n/a	REC_WORD	503225	wordpools/wasnorm_wordpool_576.txt	LTP303	ltpFR2	8	4	SCULPTURE	1258	n/a	n/a	0	0	0
1009.394	n/a	REC_WORD	504697	wordpools/wasnorm_wordpool_576.txt	LTP303	ltpFR2	8	4	BLOCKADE	137	n/a	n/a	0	0	0
1013.056	n/a	REC_WORD	506528	wordpools/wasnorm_wordpool_576.txt	LTP303	ltpFR2	8	4	OUTFIT	988	n/a	n/a	0	0	0
1016.534	n/a	REC_WORD	508267	wordpools/wasnorm_wordpool_576.txt	LTP303	ltpFR2	8	4	CYCLONE	431	n/a	n/a	0	0	0
1020.108	n/a	REC_WORD	510054	wordpools/wasnorm_wordpool_576.txt	LTP303	ltpFR2	8	4	KNIFE	785	n/a	n/a	0	0	0
1021.284	n/a	REC_WORD	510642	wordpools/wasnorm_wordpool_576.txt	LTP303	ltpFR2	8	4	SWORD	1423	n/a	n/a	0	0	0
1022.456	n/a	REC_WORD	511228	wordpools/wasnorm_wordpool_576.txt	LTP303	ltpFR2	8	4	BLADE	134	n/a	n/a	0	0	0
1028.932	n/a	REC_WORD	514466	wordpools/wasnorm_wordpool_576.txt	LTP303	ltpFR2	8	4	TWISTER	1530	n/a	n/a	0	0	0
1030.524	n/a	REC_WORD	515262	wordpools/wasnorm_wordpool_576.txt	LTP303	ltpFR2	8	4	ROBBER	1197	n/a	n/a	0	0	0
1034.158	n/a	REC_WORD	517079	wordpools/wasnorm_wordpool_576.txt	LTP303	ltpFR2	8	4	MAILBOX	857	n/a	n/a	0	0	0
1035.354	n/a	REC_WORD	517677	wordpools/wasnorm_wordpool_576.txt	LTP303	ltpFR2	8	4	COUCH	386	n/a	n/a	0	0	0
1036.494	n/a	REC_WORD	518247	wordpools/wasnorm_wordpool_576.txt	LTP303	ltpFR2	8	4	BANKER	84	n/a	n/a	0	0	0
1037.682	n/a	REC_WORD	518841	wordpools/wasnorm_wordpool_576.txt	LTP303	ltpFR2	8	4	ASIA	46	n/a	n/a	0	0	0
1081.864	n/a	WORD	540932	wordpools/wasnorm_wordpool_576.txt	LTP303	ltpFR2	8	5	PIGEON	1065	n/a	n/a	0	0	0
1084.514	n/a	WORD	542257	wordpools/wasnorm_wordpool_576.txt	LTP303	ltpFR2	8	5	QUARTER	1148	n/a	n/a	0	0	0
1087.0	n/a	WORD	543500	wordpools/wasnorm_wordpool_576.txt	LTP303	ltpFR2	8	5	SPARROW	1347	n/a	n/a	0	0	0
1089.57	n/a	WORD	544785	wordpools/wasnorm_wordpool_576.txt	LTP303	ltpFR2	8	5	SPONGE	1355	n/a	n/a	0	0	0
1092.22	n/a	WORD	546110	wordpools/wasnorm_wordpool_576.txt	LTP303	ltpFR2	8	5	GAZELLE	628	n/a	n/a	0	0	0
1094.99	n/a	WORD	547495	wordpools/wasnorm_wordpool_576.txt	LTP303	ltpFR2	8	5	SLOPE	1328	n/a	n/a	0	0	0
1097.526	n/a	WORD	548763	wordpools/wasnorm_wordpool_576.txt	LTP303	ltpFR2	8	5	FLUTE	585	n/a	n/a	0	0	0
1100.128	n/a	WORD	550064	wordpools/wasnorm_wordpool_576.txt	LTP303	ltpFR2	8	5	INFANT	737	n/a	n/a	0	0	0
1102.83	n/a	WORD	551415	wordpools/wasnorm_wordpool_576.txt	LTP303	ltpFR2	8	5	TOASTER	1472	n/a	n/a	0	0	0
1105.414	n/a	WORD	552707	wordpools/wasnorm_wordpool_576.txt	LTP303	ltpFR2	8	5	KITCHEN	778	n/a	n/a	0	0	0
1108.184	n/a	WORD	554092	wordpools/wasnorm_wordpool_576.txt	LTP303	ltpFR2	8	5	PUPPY	1144	n/a	n/a	0	0	0
1110.82	n/a	WORD	555410	wordpools/wasnorm_wordpool_576.txt	LTP303	ltpFR2	8	5	PLUTO	1092	n/a	n/a	0	0	0
1113.454	n/a	WORD	556727	wordpools/wasnorm_wordpool_576.txt	LTP303	ltpFR2	8	5	UNCLE	1536	n/a	n/a	0	0	0
1115.908	n/a	WORD	557954	wordpools/wasnorm_wordpool_576.txt	LTP303	ltpFR2	8	5	OFFICE	972	n/a	n/a	0	0	0
1118.394	n/a	WORD	559197	wordpools/wasnorm_wordpool_576.txt	LTP303	ltpFR2	8	5	BRACES	164	n/a	n/a	0	0	0
1120.962	n/a	WORD	560481	wordpools/wasnorm_wordpool_576.txt	LTP303	ltpFR2	8	5	BUGGY	188	n/a	n/a	0	0	0
1123.598	n/a	WORD	561799	wordpools/wasnorm_wordpool_576.txt	LTP303	ltpFR2	8	5	PASSAGE	1019	n/a	n/a	0	0	0
1126.282	n/a	WORD	563141	wordpools/wasnorm_wordpool_576.txt	LTP303	ltpFR2	8	5	NURSE	963	n/a	n/a	0	0	0
1128.92	n/a	WORD	564460	wordpools/wasnorm_wordpool_576.txt	LTP303	ltpFR2	8	5	PATIENT	1024	n/a	n/a	0	0	0
1131.688	n/a	WORD	565844	wordpools/wasnorm_wordpool_576.txt	LTP303	ltpFR2	8	5	WAITRESS	1581	n/a	n/a	0	0	0
1134.356	n/a	WORD	567178	wordpools/wasnorm_wordpool_576.txt	LTP303	ltpFR2	8	5	WRENCH	1625	n/a	n/a	0	0	0
1136.992	n/a	WORD	568496	wordpools/wasnorm_wordpool_576.txt	LTP303	ltpFR2	8	5	SUMMIT	1405	n/a	n/a	0	0	0
1139.728	n/a	WORD	569864	wordpools/wasnorm_wordpool_576.txt	LTP303	ltpFR2	8	5	TYPIST	1532	n/a	n/a	0	0	0
1142.23	n/a	WORD	571115	wordpools/wasnorm_wordpool_576.txt	LTP303	ltpFR2	8	5	SIBLING	1301	n/a	n/a	0	0	0
1143.848	n/a	START	571924	n/a	LTP303	ltpFR2	8	n/a	n/a	n/a	8	n/a	n/a	n/a	n/a
1144.96	n/a	DISTRACTOR	572480	n/a	LTP303	ltpFR2	8	5	n/a	n/a	n/a	n/a	0	0	0
1144.964	n/a	PROB	572482	n/a	LTP303	ltpFR2	8	n/a	n/a	n/a	8	21	9	9	3
1147.384	n/a	PROB	573692	n/a	LTP303	ltpFR2	8	n/a	n/a	n/a	8	15	2	9	4
1148.786	n/a	PROB	574393	n/a	LTP303	ltpFR2	8	n/a	n/a	n/a	8	12	2	1	9
1150.336	n/a	PROB	575168	n/a	LTP303	ltpFR2	8	n/a	n/a	n/a	8	9	1	7	1
1151.486	n/a	PROB	575743	n/a	LTP303	ltpFR2	8	n/a	n/a	n/a	8	17	5	8	4
1152.956	n/a	PROB	576478	n/a	LTP303	ltpFR2	8	n/a	n/a	n/a	8	12	9	1	2
1154.088	n/a	PROB	577044	n/a	LTP303	ltpFR2	8	n/a	n/a	n/a	8	9	2	6	1
1155.774	n/a	PROB	577887	n/a	LTP303	ltpFR2	8	n/a	n/a	n/a	8	12	3	6	3
1157.476	n/a	PROB	578738	n/a	LTP303	ltpFR2	8	n/a	n/a	n/a	8	6	1	1	4
1158.66	n/a	PROB	579330	n/a	LTP303	ltpFR2	8	n/a	n/a	n/a	8	16	8	7	1
1160.36	n/a	PROB	580180	n/a	LTP303	ltpFR2	8	n/a	n/a	n/a	8	15	6	7	2
1163.278	n/a	PROB	581639	n/a	LTP303	ltpFR2	8	n/a	n/a	n/a	8	9	3	4	2
1167.85	n/a	STOP	583925	n/a	LTP303	ltpFR2	8	n/a	n/a	n/a	8	n/a	n/a	n/a	n/a
1169.618	n/a	REC_START	584809	n/a	LTP303	ltpFR2	8	5	n/a	n/a	n/a	n/a	0	0	0
1176.556	n/a	REC_WORD	588278	wordpools/wasnorm_wordpool_576.txt	LTP303	ltpFR2	8	5	PIGEON	1065	n/a	n/a	0	0	0
1177.804	n/a	REC_WORD	588902	wordpools/wasnorm_wordpool_576.txt	LTP303	ltpFR2	8	5	QUARTER	1148	n/a	n/a	0	0	0
1179.012	n/a	REC_WORD	589506	wordpools/wasnorm_wordpool_576.txt	LTP303	ltpFR2	8	5	SPARROW	1347	n/a	n/a	0	0	0
1180.398	n/a	REC_WORD	590199	wordpools/wasnorm_wordpool_576.txt	LTP303	ltpFR2	8	5	SPONGE	1355	n/a	n/a	0	0	0
1190.076	n/a	REC_WORD	595038	wordpools/wasnorm_wordpool_576.txt	LTP303	ltpFR2	8	5	GAZELLE	628	n/a	n/a	0	0	0
1191.486	n/a	REC_WORD	595743	wordpools/wasnorm_wordpool_576.txt	LTP303	ltpFR2	8	5	SLOPE	1328	n/a	n/a	0	0	0
1193.524	n/a	REC_WORD	596762	wordpools/wasnorm_wordpool_576.txt	LTP303	ltpFR2	8	5	INFANT	737	n/a	n/a	0	0	0
1195.246	n/a	REC_WORD	597623	wordpools/wasnorm_wordpool_576.txt	LTP303	ltpFR2	8	5	TOASTER	1472	n/a	n/a	0	0	0
1196.722	n/a	REC_WORD	598361	wordpools/wasnorm_wordpool_576.txt	LTP303	ltpFR2	8	5	KITCHEN	778	n/a	n/a	0	0	0
1198.748	n/a	REC_WORD	599374	wordpools/wasnorm_wordpool_576.txt	LTP303	ltpFR2	8	5	PUPPY	1144	n/a	n/a	0	0	0
1203.95	n/a	REC_WORD	601975	wordpools/wasnorm_wordpool_576.txt	LTP303	ltpFR2	8	5	TYPIST	1532	n/a	n/a	0	0	0
1205.728	n/a	REC_WORD	602864	wordpools/wasnorm_wordpool_576.txt	LTP303	ltpFR2	8	5	WRENCH	1625	n/a	n/a	0	0	0
1207.886	n/a	REC_WORD	603943	wordpools/wasnorm_wordpool_576.txt	LTP303	ltpFR2	8	5	SUMMIT	1405	n/a	n/a	0	0	0
1213.014	n/a	REC_WORD	606507	wordpools/wasnorm_wordpool_576.txt	LTP303	ltpFR2	8	5	NURSE	963	n/a	n/a	0	0	0
1214.636	n/a	REC_WORD	607318	wordpools/wasnorm_wordpool_576.txt	LTP303	ltpFR2	8	5	WAITRESS	1581	n/a	n/a	0	0	0
1216.512	n/a	REC_WORD	608256	wordpools/wasnorm_wordpool_576.txt	LTP303	ltpFR2	8	5	PATIENT	1024	n/a	n/a	0	0	0
1260.072	n/a	WORD	630036	wordpools/wasnorm_wordpool_576.txt	LTP303	ltpFR2	8	6	JELLY	755	n/a	n/a	0	0	0
1262.602	n/a	WORD	631301	wordpools/wasnorm_wordpool_576.txt	LTP303	ltpFR2	8	6	DOUGHNUT	490	n/a	n/a	0	0	0
1265.228	n/a	WORD	632614	wordpools/wasnorm_wordpool_576.txt	LTP303	ltpFR2	8	6	JELLO	754	n/a	n/a	0	0	0
1267.772	n/a	WORD	633886	wordpools/wasnorm_wordpool_576.txt	LTP303	ltpFR2	8	6	GARBAGE	622	n/a	n/a	0	0	0
1270.274	n/a	WORD	635137	wordpools/wasnorm_wordpool_576.txt	LTP303	ltpFR2	8	6	CREATURE	403	n/a	n/a	0	0	0
1272.71	n/a	WORD	636355	wordpools/wasnorm_wordpool_576.txt	LTP303	ltpFR2	8	6	SNAIL	1332	n/a	n/a	0	0	0
1275.194	n/a	WORD	637597	wordpools/wasnorm_wordpool_576.txt	LTP303	ltpFR2	8	6	GROUND	666	n/a	n/a	0	0	0
1277.654	n/a	WORD	638827	wordpools/wasnorm_wordpool_576.txt	LTP303	ltpFR2	8	6	BREAST	171	n/a	n/a	0	0	0
1280.166	n/a	WORD	640083	wordpools/wasnorm_wordpool_576.txt	LTP303	ltpFR2	8	6	GRILL	661	n/a	n/a	0	0	0
1282.72	n/a	WORD	641360	wordpools/wasnorm_wordpool_576.txt	LTP303	ltpFR2	8	6	CLAMP	316	n/a	n/a	0	0	0
1285.138	n/a	WORD	642569	wordpools/wasnorm_wordpool_576.txt	LTP303	ltpFR2	8	6	LIPSTICK	829	n/a	n/a	0	0	0
1287.762	n/a	WORD	643881	wordpools/wasnorm_wordpool_576.txt	LTP303	ltpFR2	8	6	CHIPMUNK	304	n/a	n/a	0	0	0
1290.38	n/a	WORD	645190	wordpools/wasnorm_wordpool_576.txt	LTP303	ltpFR2	8	6	EYELASH	546	n/a	n/a	0	0	0
1293.084	n/a	WORD	646542	wordpools/wasnorm_wordpool_576.txt	LTP303	ltpFR2	8	6	RATTLE	1170	n/a	n/a	0	0	0
1295.68	n/a	WORD	647840	wordpools/wasnorm_wordpool_576.txt	LTP303	ltpFR2	8	6	ATOM	55	n/a	n/a	0	0	0
1298.214	n/a	WORD	649107	wordpools/wasnorm_wordpool_576.txt	LTP303	ltpFR2	8	6	PARTNER	1017	n/a	n/a	0	0	0
1300.94	n/a	WORD	650470	wordpools/wasnorm_wordpool_576.txt	LTP303	ltpFR2	8	6	POWDER	1117	n/a	n/a	0	0	0
1303.736	n/a	WORD	651868	wordpools/wasnorm_wordpool_576.txt	LTP303	ltpFR2	8	6	FOOTBALL	591	n/a	n/a	0	0	0
1306.222	n/a	WORD	653111	wordpools/wasnorm_wordpool_576.txt	LTP303	ltpFR2	8	6	ARM	38	n/a	n/a	0	0	0
1308.64	n/a	WORD	654320	wordpools/wasnorm_wordpool_576.txt	LTP303	ltpFR2	8	6	TUTU	1524	n/a	n/a	0	0	0
1311.192	n/a	WORD	655596	wordpools/wasnorm_wordpool_576.txt	LTP303	ltpFR2	8	6	UMPIRE	1535	n/a	n/a	0	0	0
1313.86	n/a	WORD	656930	wordpools/wasnorm_wordpool_576.txt	LTP303	ltpFR2	8	6	MARKET	871	n/a	n/a	0	0	0
1316.412	n/a	WORD	658206	wordpools/wasnorm_wordpool_576.txt	LTP303	ltpFR2	8	6	STONE	1385	n/a	n/a	0	0	0
1319.068	n/a	WORD	659534	wordpools/wasnorm_wordpool_576.txt	LTP303	ltpFR2	8	6	PEBBLE	1035	n/a	n/a	0	0	0
1320.672	n/a	START	660336	n/a	LTP303	ltpFR2	8	n/a	n/a	n/a	9	n/a	n/a	n/a	n/a
1321.834	n/a	DISTRACTOR	660917	n/a	LTP303	ltpFR2	8	6	n/a	n/a	n/a	n/a	0	0	0
1321.838	n/a	PROB	660919	n/a	LTP303	ltpFR2	8	n/a	n/a	n/a	9	16	6	8	4
1324.236	n/a	PROB	662118	n/a	LTP303	ltpFR2	8	n/a	n/a	n/a	9	10	1	8	1
1326.522	n/a	PROB	663261	n/a	LTP303	ltpFR2	8	n/a	n/a	n/a	9	21	7	7	7
1327.66	n/a	PROB	663830	n/a	LTP303	ltpFR2	8	n/a	n/a	n/a	9	8	3	4	1
1330.73	n/a	PROB	665365	n/a	LTP303	ltpFR2	8	n/a	n/a	n/a	9	20	5	8	7
1333.376	n/a	PROB	666688	n/a	LTP303	ltpFR2	8	n/a	n/a	n/a	9	18	9	5	4
1335.264	n/a	PROB	667632	n/a	LTP303	ltpFR2	8	n/a	n/a	n/a	9	11	6	4	1
1336.848	n/a	PROB	668424	n/a	LTP303	ltpFR2	8	n/a	n/a	n/a	9	21	9	8	4
1338.548	n/a	PROB	669274	n/a	LTP303	ltpFR2	8	n/a	n/a	n/a	9	19	9	1	9
1340.1	n/a	PROB	670050	n/a	LTP303	ltpFR2	8	n/a	n/a	n/a	9	19	7	5	7
1342.202	n/a	PROB	671101	n/a	LTP303	ltpFR2	8	n/a	n/a	n/a	9	9	3	4	2
1343.696	n/a	STOP	671848	n/a	LTP303	ltpFR2	8	n/a	n/a	n/a	9	n/a	n/a	n/a	n/a
1346.59	n/a	REC_START	673295	n/a	LTP303	ltpFR2	8	6	n/a	n/a	n/a	n/a	0	0	0
1357.45	n/a	REC_WORD	678725	wordpools/wasnorm_wordpool_576.txt	LTP303	ltpFR2	8	6	JELLY	755	n/a	n/a	0	0	0
1358.806	n/a	REC_WORD	679403	wordpools/wasnorm_wordpool_576.txt	LTP303	ltpFR2	8	6	DOUGHNUT	490	n/a	n/a	0	0	0
1360.242	n/a	REC_WORD	680121	wordpools/wasnorm_wordpool_576.txt	LTP303	ltpFR2	8	6	JELLO	754	n/a	n/a	0	0	0
1361.614	n/a	REC_WORD	680807	wordpools/wasnorm_wordpool_576.txt	LTP303	ltpFR2	8	6	GARBAGE	622	n/a	n/a	0	0	0
1363.152	n/a	REC_WORD	681576	wordpools/wasnorm_wordpool_576.txt	LTP303	ltpFR2	8	6	CREATURE	403	n/a	n/a	0	0	0
1364.908	n/a	REC_WORD	682454	wordpools/wasnorm_wordpool_576.txt	LTP303	ltpFR2	8	6	SNAIL	1332	n/a	n/a	0	0	0
1366.728	n/a	REC_WORD	683364	wordpools/wasnorm_wordpool_576.txt	LTP303	ltpFR2	8	6	GROUND	666	n/a	n/a	0	0	0
1368.308	n/a	REC_WORD	684154	wordpools/wasnorm_wordpool_576.txt	LTP303	ltpFR2	8	6	BREAST	171	n/a	n/a	0	0	0
1369.754	n/a	REC_WORD	684877	wordpools/wasnorm_wordpool_576.txt	LTP303	ltpFR2	8	6	GRILL	661	n/a	n/a	0	0	0
1371.216	n/a	REC_WORD	685608	wordpools/wasnorm_wordpool_576.txt	LTP303	ltpFR2	8	6	CLAMP	316	n/a	n/a	0	0	0
1372.586	n/a	REC_WORD	686293	wordpools/wasnorm_wordpool_576.txt	LTP303	ltpFR2	8	6	LIPSTICK	829	n/a	n/a	0	0	0
1373.974	n/a	REC_WORD	686987	wordpools/wasnorm_wordpool_576.txt	LTP303	ltpFR2	8	6	HAMSTER	-1	n/a	n/a	0	0	0
1375.464	n/a	REC_WORD	687732	wordpools/wasnorm_wordpool_576.txt	LTP303	ltpFR2	8	6	EYELASH	546	n/a	n/a	0	0	0
1376.87	n/a	REC_WORD	688435	wordpools/wasnorm_wordpool_576.txt	LTP303	ltpFR2	8	6	ATOM	55	n/a	n/a	0	0	0
1378.284	n/a	REC_WORD	689142	wordpools/wasnorm_wordpool_576.txt	LTP303	ltpFR2	8	6	POWDER	1117	n/a	n/a	0	0	0
1379.598	n/a	REC_WORD	689799	wordpools/wasnorm_wordpool_576.txt	LTP303	ltpFR2	8	6	FOOTBALL	591	n/a	n/a	0	0	0
1381.298	n/a	REC_WORD	690649	wordpools/wasnorm_wordpool_576.txt	LTP303	ltpFR2	8	6	ARM	38	n/a	n/a	0	0	0
1385.41	n/a	REC_WORD	692705	wordpools/wasnorm_wordpool_576.txt	LTP303	ltpFR2	8	6	UMPIRE	1535	n/a	n/a	0	0	0
1388.274	n/a	REC_WORD	694137	wordpools/wasnorm_wordpool_576.txt	LTP303	ltpFR2	8	6	MARKET	871	n/a	n/a	0	0	0
1389.392	n/a	REC_WORD	694696	wordpools/wasnorm_wordpool_576.txt	LTP303	ltpFR2	8	6	STONE	1385	n/a	n/a	0	0	0
1390.712	n/a	REC_WORD	695356	wordpools/wasnorm_wordpool_576.txt	LTP303	ltpFR2	8	6	PEBBLE	1035	n/a	n/a	0	0	0
1437.002	n/a	DISTRACTOR	718501	n/a	LTP303	ltpFR2	8	7	n/a	n/a	n/a	n/a	0	0	0
1437.002	n/a	START	718501	n/a	LTP303	ltpFR2	8	n/a	n/a	n/a	10	n/a	n/a	n/a	n/a
1437.014	n/a	PROB	718507	n/a	LTP303	ltpFR2	8	n/a	n/a	n/a	10	16	7	7	2
1439.38	n/a	PROB	719690	n/a	LTP303	ltpFR2	8	n/a	n/a	n/a	10	18	9	7	2
1441.382	n/a	PROB	720691	n/a	LTP303	ltpFR2	8	n/a	n/a	n/a	10	11	2	8	1
1442.752	n/a	PROB	721376	n/a	LTP303	ltpFR2	8	n/a	n/a	n/a	10	17	8	1	8
1444.12	n/a	PROB	722060	n/a	LTP303	ltpFR2	8	n/a	n/a	n/a	10	20	6	5	9
1446.252	n/a	PROB	723126	n/a	LTP303	ltpFR2	8	n/a	n/a	n/a	10	20	9	5	6
1448.156	n/a	PROB	724078	n/a	LTP303	ltpFR2	8	n/a	n/a	n/a	10	8	2	1	5
1449.39	n/a	PROB	724695	n/a	LTP303	ltpFR2	8	n/a	n/a	n/a	10	14	4	7	3
1450.658	n/a	PROB	725329	n/a	LTP303	ltpFR2	8	n/a	n/a	n/a	10	19	6	5	8
1452.51	n/a	PROB	726255	n/a	LTP303	ltpFR2	8	n/a	n/a	n/a	10	15	3	3	9
1454.078	n/a	PROB	727039	n/a	LTP303	ltpFR2	8	n/a	n/a	n/a	10	12	1	4	7
1455.76	n/a	PROB	727880	n/a	LTP303	ltpFR2	8	n/a	n/a	n/a	10	13	4	7	2
1457.612	n/a	PROB	728806	n/a	LTP303	ltpFR2	8	n/a	n/a	n/a	10	11	3	1	7
1458.648	n/a	PROB	729324	n/a	LTP303	ltpFR2	8	n/a	n/a	n/a	10	20	6	6	8
1460.476	n/a	STOP	730238	n/a	LTP303	ltpFR2	8	n/a	n/a	n/a	10	n/a	n/a	n/a	n/a
1462.0	n/a	WORD	731000	wordpools/wasnorm_wordpool_576.txt	LTP303	ltpFR2	8	7	SALT	1229	n/a	n/a	0	0	0
1464.418	n/a	WORD	732209	wordpools/wasnorm_wordpool_576.txt	LTP303	ltpFR2	8	7	HEDGE	699	n/a	n/a	0	0	0
1466.976	n/a	WORD	733488	wordpools/wasnorm_wordpool_576.txt	LTP303	ltpFR2	8	7	PIANO	1057	n/a	n/a	0	0	0
1469.488	n/a	WORD	734744	wordpools/wasnorm_wordpool_576.txt	LTP303	ltpFR2	8	7	CRICKET	408	n/a	n/a	0	0	0
1472.242	n/a	WORD	736121	wordpools/wasnorm_wordpool_576.txt	LTP303	ltpFR2	8	7	JOURNAL	760	n/a	n/a	0	0	0
1474.944	n/a	WORD	737472	wordpools/wasnorm_wordpool_576.txt	LTP303	ltpFR2	8	7	SHRUB	1299	n/a	n/a	0	0	0
1477.754	n/a	WORD	738877	wordpools/wasnorm_wordpool_576.txt	LTP303	ltpFR2	8	7	SMOG	1330	n/a	n/a	0	0	0
1480.348	n/a	WORD	740174	wordpools/wasnorm_wordpool_576.txt	LTP303	ltpFR2	8	7	VIRUS	1572	n/a	n/a	0	0	0
1483.092	n/a	WORD	741546	wordpools/wasnorm_wordpool_576.txt	LTP303	ltpFR2	8	7	CAPTIVE	240	n/a	n/a	0	0	0
1485.894	n/a	WORD	742947	wordpools/wasnorm_wordpool_576.txt	LTP303	ltpFR2	8	7	DRAGON	492	n/a	n/a	0	0	0
1488.344	n/a	WORD	744172	wordpools/wasnorm_wordpool_576.txt	LTP303	ltpFR2	8	7	VELVET	1555	n/a	n/a	0	0	0
1490.806	n/a	WORD	745403	wordpools/wasnorm_wordpool_576.txt	LTP303	ltpFR2	8	7	SILK	1307	n/a	n/a	0	0	0
1493.498	n/a	WORD	746749	wordpools/wasnorm_wordpool_576.txt	LTP303	ltpFR2	8	7	EXPERT	543	n/a	n/a	0	0	0
1496.276	n/a	WORD	748138	wordpools/wasnorm_wordpool_576.txt	LTP303	ltpFR2	8	7	COFFEE	341	n/a	n/a	0	0	0
1498.912	n/a	WORD	749456	wordpools/wasnorm_wordpool_576.txt	LTP303	ltpFR2	8	7	POET	1095	n/a	n/a	0	0	0
1501.714	n/a	WORD	750857	wordpools/wasnorm_wordpool_576.txt	LTP303	ltpFR2	8	7	FIREPLACE	570	n/a	n/a	0	0	0
1504.474	n/a	WORD	752237	wordpools/wasnorm_wordpool_576.txt	LTP303	ltpFR2	8	7	TOMBSTONE	1478	n/a	n/a	0	0	0
1507.252	n/a	WORD	753626	wordpools/wasnorm_wordpool_576.txt	LTP303	ltpFR2	8	7	WIDOW	1608	n/a	n/a	0	0	0
1510.064	n/a	WORD	755032	wordpools/wasnorm_wordpool_576.txt	LTP303	ltpFR2	8	7	SUBWAY	1400	n/a	n/a	0	0	0
1512.734	n/a	WORD	756367	wordpools/wasnorm_wordpool_576.txt	LTP303	ltpFR2	8	7	COUNTRY	388	n/a	n/a	0	0	0
1515.392	n/a	WORD	757696	wordpools/wasnorm_wordpool_576.txt	LTP303	ltpFR2	8	7	GAVEL	627	n/a	n/a	0	0	0
1517.896	n/a	WORD	758948	wordpools/wasnorm_wordpool_576.txt	LTP303	ltpFR2	8	7	FIREMAN	569	n/a	n/a	0	0	0
1520.546	n/a	WORD	760273	wordpools/wasnorm_wordpool_576.txt	LTP303	ltpFR2	8	7	GLASS	639	n/a	n/a	0	0	0
1523.0	n/a	WORD	761500	wordpools/wasnorm_wordpool_576.txt	LTP303	ltpFR2	8	7	FLAG	573	n/a	n/a	0	0	0
1524.61	n/a	START	762305	n/a	LTP303	ltpFR2	8	n/a	n/a	n/a	11	n/a	n/a	n/a	n/a
1525.784	n/a	DISTRACTOR	762892	n/a	LTP303	ltpFR2	8	7	n/a	n/a	n/a	n/a	0	0	0
1525.794	n/a	PROB	762897	n/a	LTP303	ltpFR2	8	n/a	n/a	n/a	11	4	2	1	1
1528.22	n/a	PROB	764110	n/a	LTP303	ltpFR2	8	n/a	n/a	n/a	11	20	9	7	4
1530.188	n/a	PROB	765094	n/a	LTP303	ltpFR2	8	n/a	n/a	n/a	11	18	5	4	9
1531.672	n/a	PROB	765836	n/a	LTP303	ltpFR2	8	n/a	n/a	n/a	11	11	3	7	1
1533.056	n/a	PROB	766528	n/a	LTP303	ltpFR2	8	n/a	n/a	n/a	11	11	6	2	3
1534.974	n/a	PROB	767487	n/a	LTP303	ltpFR2	8	n/a	n/a	n/a	11	12	3	1	8
1536.908	n/a	PROB	768454	n/a	LTP303	ltpFR2	8	n/a	n/a	n/a	11	16	1	9	6
1538.176	n/a	PROB	769088	n/a	LTP303	ltpFR2	8	n/a	n/a	n/a	11	15	6	5	4
1540.046	n/a	PROB	770023	n/a	LTP303	ltpFR2	8	n/a	n/a	n/a	11	20	7	4	9
1541.83	n/a	PROB	770915	n/a	LTP303	ltpFR2	8	n/a	n/a	n/a	11	18	9	5	4
1543.446	n/a	PROB	771723	n/a	LTP303	ltpFR2	8	n/a	n/a	n/a	11	12	1	5	6
1544.698	n/a	PROB	772349	n/a	LTP303	ltpFR2	8	n/a	n/a	n/a	11	18	8	8	2
1546.218	n/a	PROB	773109	n/a	LTP303	ltpFR2	8	n/a	n/a	n/a	11	16	8	5	3
1548.43	n/a	STOP	774215	n/a	LTP303	ltpFR2	8	n/a	n/a	n/a	11	n/a	n/a	n/a	n/a
1550.37	n/a	REC_START	775185	n/a	LTP303	ltpFR2	8	7	n/a	n/a	n/a	n/a	0	0	0
1552.086	n/a	REC_WORD	776043	wordpools/wasnorm_wordpool_576.txt	LTP303	ltpFR2	8	7	SALT	1229	n/a	n/a	0	0	0
1553.112	n/a	REC_WORD	776556	wordpools/wasnorm_wordpool_576.txt	LTP303	ltpFR2	8	7	HEDGE	699	n/a	n/a	0	0	0
1554.25	n/a	REC_WORD	777125	wordpools/wasnorm_wordpool_576.txt	LTP303	ltpFR2	8	7	PIANO	1057	n/a	n/a	0	0	0
1555.368	n/a	REC_WORD	777684	wordpools/wasnorm_wordpool_576.txt	LTP303	ltpFR2	8	7	CRICKET	408	n/a	n/a	0	0	0
1558.042	n/a	REC_WORD	779021	wordpools/wasnorm_wordpool_576.txt	LTP303	ltpFR2	8	7	JOURNAL	760	n/a	n/a	0	0	0
1558.924	n/a	REC_WORD	779462	wordpools/wasnorm_wordpool_576.txt	LTP303	ltpFR2	8	7	SHRUB	1299	n/a	n/a	0	0	0
1559.966	n/a	REC_WORD	779983	wordpools/wasnorm_wordpool_576.txt	LTP303	ltpFR2	8	7	SMOG	1330	n/a	n/a	0	0	0
1561.252	n/a	REC_WORD	780626	wordpools/wasnorm_wordpool_576.txt	LTP303	ltpFR2	8	7	VIRUS	1572	n/a	n/a	0	0	0
1564.958	n/a	REC_WORD	782479	wordpools/wasnorm_wordpool_576.txt	LTP303	ltpFR2	8	7	SUBWAY	1400	n/a	n/a	0	0	0
1566.772	n/a	REC_WORD	783386	wordpools/wasnorm_wordpool_576.txt	LTP303	ltpFR2	8	7	DRAGON	492	n/a	n/a	0	0	0
1567.992	n/a	REC_WORD	783996	wordpools/wasnorm_wordpool_576.txt	LTP303	ltpFR2	8	7	SILK	1307	n/a	n/a	0	0	0
1569.768	n/a	REC_WORD	784884	wordpools/wasnorm_wordpool_576.txt	LTP303	ltpFR2	8	7	VELVET	1555	n/a	n/a	0	0	0
1571.306	n/a	REC_WORD	785653	wordpools/wasnorm_wordpool_576.txt	LTP303	ltpFR2	8	7	COFFEE	341	n/a	n/a	0	0	0
1572.556	n/a	REC_WORD	786278	wordpools/wasnorm_wordpool_576.txt	LTP303	ltpFR2	8	7	CAPTIVE	240	n/a	n/a	0	0	0
1580.228	n/a	REC_WORD	790114	wordpools/wasnorm_wordpool_576.txt	LTP303	ltpFR2	8	7	GLASS	639	n/a	n/a	0	0	0
1585.468	n/a	REC_WORD	792734	wordpools/wasnorm_wordpool_576.txt	LTP303	ltpFR2	8	7	FLAG	573	n/a	n/a	0	0	0
1640.81	n/a	DISTRACTOR	820405	n/a	LTP303	ltpFR2	8	8	n/a	n/a	n/a	n/a	0	0	0
1640.81	n/a	START	820405	n/a	LTP303	ltpFR2	8	n/a	n/a	n/a	12	n/a	n/a	n/a	n/a
1640.824	n/a	PROB	820412	n/a	LTP303	ltpFR2	8	n/a	n/a	n/a	12	13	1	5	7
1642.058	n/a	PROB	821029	n/a	LTP303	ltpFR2	8	n/a	n/a	n/a	12	14	2	5	7
1643.51	n/a	PROB	821755	n/a	LTP303	ltpFR2	8	n/a	n/a	n/a	12	20	8	6	6
1645.664	n/a	PROB	822832	n/a	LTP303	ltpFR2	8	n/a	n/a	n/a	12	9	2	3	4
1647.38	n/a	PROB	823690	n/a	LTP303	ltpFR2	8	n/a	n/a	n/a	12	18	4	9	5
1648.916	n/a	PROB	824458	n/a	LTP303	ltpFR2	8	n/a	n/a	n/a	12	14	4	3	7
1650.098	n/a	PROB	825049	n/a	LTP303	ltpFR2	8	n/a	n/a	n/a	12	18	6	8	4
1652.6	n/a	PROB	826300	n/a	LTP303	ltpFR2	8	n/a	n/a	n/a	12	21	9	7	5
1654.52	n/a	PROB	827260	n/a	LTP303	ltpFR2	8	n/a	n/a	n/a	12	17	9	6	2
1656.004	n/a	PROB	828002	n/a	LTP303	ltpFR2	8	n/a	n/a	n/a	12	13	3	2	8
1657.254	n/a	PROB	828627	n/a	LTP303	ltpFR2	8	n/a	n/a	n/a	12	11	1	4	6
1658.756	n/a	PROB	829378	n/a	LTP303	ltpFR2	8	n/a	n/a	n/a	12	15	2	6	7
1660.124	n/a	PROB	830062	n/a	LTP303	ltpFR2	8	n/a	n/a	n/a	12	12	3	7	2
1661.472	n/a	PROB	830736	n/a	LTP303	ltpFR2	8	n/a	n/a	n/a	12	10	5	3	2
1663.376	n/a	STOP	831688	n/a	LTP303	ltpFR2	8	n/a	n/a	n/a	12	n/a	n/a	n/a	n/a
1665.844	n/a	WORD	832922	wordpools/wasnorm_wordpool_576.txt	LTP303	ltpFR2	8	8	DAUGHTER	442	n/a	n/a	0	0	0
1668.416	n/a	WORD	834208	wordpools/wasnorm_wordpool_576.txt	LTP303	ltpFR2	8	8	PENGUIN	1044	n/a	n/a	0	0	0
1670.9	n/a	WORD	835450	wordpools/wasnorm_wordpool_576.txt	LTP303	ltpFR2	8	8	FINGER	567	n/a	n/a	0	0	0
1673.604	n/a	WORD	836802	wordpools/wasnorm_wordpool_576.txt	LTP303	ltpFR2	8	8	MESSAGE	888	n/a	n/a	0	0	0
1676.074	n/a	WORD	838037	wordpools/wasnorm_wordpool_576.txt	LTP303	ltpFR2	8	8	POSTAGE	1113	n/a	n/a	0	0	0
1678.756	n/a	WORD	839378	wordpools/wasnorm_wordpool_576.txt	LTP303	ltpFR2	8	8	TRENCH	1503	n/a	n/a	0	0	0
1681.34	n/a	WORD	840670	wordpools/wasnorm_wordpool_576.txt	LTP303	ltpFR2	8	8	POLICE	1098	n/a	n/a	0	0	0
1683.844	n/a	WORD	841922	wordpools/wasnorm_wordpool_576.txt	LTP303	ltpFR2	8	8	PIZZA	1079	n/a	n/a	0	0	0
1686.548	n/a	WORD	843274	wordpools/wasnorm_wordpool_576.txt	LTP303	ltpFR2	8	8	REPORT	1184	n/a	n/a	0	0	0
1689.052	n/a	WORD	844526	wordpools/wasnorm_wordpool_576.txt	LTP303	ltpFR2	8	8	GLOVE	642	n/a	n/a	0	0	0
1691.834	n/a	WORD	845917	wordpools/wasnorm_wordpool_576.txt	LTP303	ltpFR2	8	8	GUARD	667	n/a	n/a	0	0	0
1694.35	n/a	WORD	847175	wordpools/wasnorm_wordpool_576.txt	LTP303	ltpFR2	8	8	RAFT	1159	n/a	n/a	0	0	0
1697.02	n/a	WORD	848510	wordpools/wasnorm_wordpool_576.txt	LTP303	ltpFR2	8	8	FLASK	576	n/a	n/a	0	0	0
1699.74	n/a	WORD	849870	wordpools/wasnorm_wordpool_576.txt	LTP303	ltpFR2	8	8	KETCHUP	771	n/a	n/a	0	0	0
1702.24	n/a	WORD	851120	wordpools/wasnorm_wordpool_576.txt	LTP303	ltpFR2	8	8	BLENDER	136	n/a	n/a	0	0	0
1704.66	n/a	WORD	852330	wordpools/wasnorm_wordpool_576.txt	LTP303	ltpFR2	8	8	HOSTESS	723	n/a	n/a	0	0	0
1707.216	n/a	WORD	853608	wordpools/wasnorm_wordpool_576.txt	LTP303	ltpFR2	8	8	WITNESS	1618	n/a	n/a	0	0	0
1709.702	n/a	WORD	854851	wordpools/wasnorm_wordpool_576.txt	LTP303	ltpFR2	8	8	PUPIL	1143	n/a	n/a	0	0	0
1712.438	n/a	WORD	856219	wordpools/wasnorm_wordpool_576.txt	LTP303	ltpFR2	8	8	BLUEPRINT	142	n/a	n/a	0	0	0
1715.034	n/a	WORD	857517	wordpools/wasnorm_wordpool_576.txt	LTP303	ltpFR2	8	8	BANK	83	n/a	n/a	0	0	0
1717.542	n/a	WORD	858771	wordpools/wasnorm_wordpool_576.txt	LTP303	ltpFR2	8	8	SHIRT	1287	n/a	n/a	0	0	0
1720.272	n/a	WORD	860136	wordpools/wasnorm_wordpool_576.txt	LTP303	ltpFR2	8	8	PLAID	1080	n/a	n/a	0	0	0
1722.84	n/a	WORD	861420	wordpools/wasnorm_wordpool_576.txt	LTP303	ltpFR2	8	8	POSSUM	1112	n/a	n/a	0	0	0
1725.4	n/a	WORD	862700	wordpools/wasnorm_wordpool_576.txt	LTP303	ltpFR2	8	8	NAPKIN	937	n/a	n/a	0	0	0
1727.01	n/a	START	863505	n/a	LTP303	ltpFR2	8	n/a	n/a	n/a	13	n/a	n/a	n/a	n/a
1728.192	n/a	DISTRACTOR	864096	n/a	LTP303	ltpFR2	8	8	n/a	n/a	n/a	n/a	0	0	0
1728.194	n/a	PROB	864097	n/a	LTP303	ltpFR2	8	n/a	n/a	n/a	13	17	1	7	9
1731.162	n/a	PROB	865581	n/a	LTP303	ltpFR2	8	n/a	n/a	n/a	13	19	8	5	7
1733.232	n/a	PROB	866616	n/a	LTP303	ltpFR2	8	n/a	n/a	n/a	13	7	3	2	2
1735.934	n/a	PROB	867967	n/a	LTP303	ltpFR2	8	n/a	n/a	n/a	13	24	9	6	9
1737.484	n/a	PROB	868742	n/a	LTP303	ltpFR2	8	n/a	n/a	n/a	13	21	6	8	7
1739.004	n/a	PROB	869502	n/a	LTP303	ltpFR2	8	n/a	n/a	n/a	13	15	1	8	6
1741.054	n/a	PROB	870527	n/a	LTP303	ltpFR2	8	n/a	n/a	n/a	13	19	7	4	8
1743.322	n/a	PROB	871661	n/a	LTP303	ltpFR2	8	n/a	n/a	n/a	13	5	1	1	4
1744.674	n/a	PROB	872337	n/a	LTP303	ltpFR2	8	n/a	n/a	n/a	13	19	9	5	5
1746.258	n/a	PROB	873129	n/a	LTP303	ltpFR2	8	n/a	n/a	n/a	13	21	4	9	8
1747.892	n/a	PROB	873946	n/a	LTP303	ltpFR2	8	n/a	n/a	n/a	13	13	4	8	1
1751.012	n/a	STOP	875506	n/a	LTP303	ltpFR2	8	n/a	n/a	n/a	13	n/a	n/a	n/a	n/a
1752.95	n/a	REC_START	876475	n/a	LTP303	ltpFR2	8	8	n/a	n/a	n/a	n/a	0	0	0
1755.788	n/a	REC_WORD	877894	wordpools/wasnorm_wordpool_576.txt	LTP303	ltpFR2	8	8	DAUGHTER	442	n/a	n/a	0	0	0
1756.892	n/a	REC_WORD	878446	wordpools/wasnorm_wordpool_576.txt	LTP303	ltpFR2	8	8	PENGUIN	1044	n/a	n/a	0	0	0
1758.042	n/a	REC_WORD	879021	wordpools/wasnorm_wordpool_576.txt	LTP303	ltpFR2	8	8	FINGER	567	n/a	n/a	0	0	0
1759.248	n/a	REC_WORD	879624	wordpools/wasnorm_wordpool_576.txt	LTP303	ltpFR2	8	8	MESSAGE	888	n/a	n/a	0	0	0
1760.472	n/a	REC_WORD	880236	wordpools/wasnorm_wordpool_576.txt	LTP303	ltpFR2	8	8	POSTAGE	1113	n/a	n/a	0	0	0
1761.594	n/a	REC_WORD	880797	wordpools/wasnorm_wordpool_576.txt	LTP303	ltpFR2	8	8	TRENCH	1503	n/a	n/a	0	0	0
1762.778	n/a	REC_WORD	881389	wordpools/wasnorm_wordpool_576.txt	LTP303	ltpFR2	8	8	POLICE	1098	n/a	n/a	0	0	0
1764.054	n/a	REC_WORD	882027	wordpools/wasnorm_wordpool_576.txt	LTP303	ltpFR2	8	8	PIZZA	1079	n/a	n/a	0	0	0
1765.122	n/a	REC_WORD	882561	wordpools/wasnorm_wordpool_576.txt	LTP303	ltpFR2	8	8	REPORT	1184	n/a	n/a	0	0	0
1766.424	n/a	REC_WORD	883212	wordpools/wasnorm_wordpool_576.txt	LTP303	ltpFR2	8	8	GLOVE	642	n/a	n/a	0	0	0
1767.596	n/a	REC_WORD	883798	wordpools/wasnorm_wordpool_576.txt	LTP303	ltpFR2	8	8	GUARD	667	n/a	n/a	0	0	0
1773.904	n/a	REC_WORD	886952	wordpools/wasnorm_wordpool_576.txt	LTP303	ltpFR2	8	8	FLASK	576	n/a	n/a	0	0	0
1775.178	n/a	REC_WORD	887589	wordpools/wasnorm_wordpool_576.txt	LTP303	ltpFR2	8	8	KETCHUP	771	n/a	n/a	0	0	0
1776.318	n/a	REC_WORD	888159	wordpools/wasnorm_wordpool_576.txt	LTP303	ltpFR2	8	8	BLENDER	136	n/a	n/a	0	0	0
1780.102	n/a	REC_WORD	890051	wordpools/wasnorm_wordpool_576.txt	LTP303	ltpFR2	8	8	HOSTESS	723	n/a	n/a	0	0	0
1781.44	n/a	REC_WORD	890720	wordpools/wasnorm_wordpool_576.txt	LTP303	ltpFR2	8	8	WITNESS	1618	n/a	n/a	0	0	0
1786.41	n/a	REC_WORD	893205	wordpools/wasnorm_wordpool_576.txt	LTP303	ltpFR2	8	8	PUPIL	1143	n/a	n/a	0	0	0
1787.546	n/a	REC_WORD	893773	wordpools/wasnorm_wordpool_576.txt	LTP303	ltpFR2	8	8	BLUEPRINT	142	n/a	n/a	0	0	0
1789.53	n/a	REC_WORD	894765	wordpools/wasnorm_wordpool_576.txt	LTP303	ltpFR2	8	8	BANK	83	n/a	n/a	0	0	0
1829.488	n/a	REST_REWET	914744	n/a	LTP303	ltpFR2	8	8	n/a	n/a	n/a	n/a	0	0	0
2173.698	n/a	DISTRACTOR	1086849	n/a	LTP303	ltpFR2	8	9	n/a	n/a	n/a	n/a	0	0	0
2173.698	n/a	START	1086849	n/a	LTP303	ltpFR2	8	n/a	n/a	n/a	14	n/a	n/a	n/a	n/a
2173.714	n/a	PROB	1086857	n/a	LTP303	ltpFR2	8	n/a	n/a	n/a	14	17	5	4	8
2175.632	n/a	PROB	1087816	n/a	LTP303	ltpFR2	8	n/a	n/a	n/a	14	13	3	5	5
2176.868	n/a	PROB	1088434	n/a	LTP303	ltpFR2	8	n/a	n/a	n/a	14	13	4	2	7
2178.368	n/a	PROB	1089184	n/a	LTP303	ltpFR2	8	n/a	n/a	n/a	14	14	2	3	9
2180.436	n/a	PROB	1090218	n/a	LTP303	ltpFR2	8	n/a	n/a	n/a	14	21	8	4	9
2182.47	n/a	PROB	1091235	n/a	LTP303	ltpFR2	8	n/a	n/a	n/a	14	15	6	7	2
2183.654	n/a	PROB	1091827	n/a	LTP303	ltpFR2	8	n/a	n/a	n/a	14	16	9	3	4
2185.406	n/a	PROB	1092703	n/a	LTP303	ltpFR2	8	n/a	n/a	n/a	14	18	5	5	8
2186.724	n/a	PROB	1093362	n/a	LTP303	ltpFR2	8	n/a	n/a	n/a	14	13	4	5	4
2188.442	n/a	PROB	1094221	n/a	LTP303	ltpFR2	8	n/a	n/a	n/a	14	16	8	4	4
2190.26	n/a	PROB	1095130	n/a	LTP303	ltpFR2	8	n/a	n/a	n/a	14	10	3	3	4
2191.962	n/a	PROB	1095981	n/a	LTP303	ltpFR2	8	n/a	n/a	n/a	14	7	1	3	3
2193.428	n/a	PROB	1096714	n/a	LTP303	ltpFR2	8	n/a	n/a	n/a	14	15	1	7	7
2194.614	n/a	PROB	1097307	n/a	LTP303	ltpFR2	8	n/a	n/a	n/a	14	20	9	5	6
2196.488	n/a	STOP	1098244	n/a	LTP303	ltpFR2	8	n/a	n/a	n/a	14	n/a	n/a	n/a	n/a
2198.718	n/a	WORD	1099359	wordpools/wasnorm_wordpool_576.txt	LTP303	ltpFR2	8	9	SURVEY	1414	n/a	n/a	0	0	0
2201.318	n/a	WORD	1100659	wordpools/wasnorm_wordpool_576.txt	LTP303	ltpFR2	8	9	ATLAS	53	n/a	n/a	0	0	0
2203.944	n/a	WORD	1101972	wordpools/wasnorm_wordpool_576.txt	LTP303	ltpFR2	8	9	SCALLOP	1242	n/a	n/a	0	0	0
2206.674	n/a	WORD	1103337	wordpools/wasnorm_wordpool_576.txt	LTP303	ltpFR2	8	9	THIEF	1456	n/a	n/a	0	0	0
2209.276	n/a	WORD	1104638	wordpools/wasnorm_wordpool_576.txt	LTP303	ltpFR2	8	9	BELLY	119	n/a	n/a	0	0	0
2211.986	n/a	WORD	1105993	wordpools/wasnorm_wordpool_576.txt	LTP303	ltpFR2	8	9	BODY	145	n/a	n/a	0	0	0
2214.52	n/a	WORD	1107260	wordpools/wasnorm_wordpool_576.txt	LTP303	ltpFR2	8	9	COSTUME	383	n/a	n/a	0	0	0
2217.056	n/a	WORD	1108528	wordpools/wasnorm_wordpool_576.txt	LTP303	ltpFR2	8	9	SHELF	1280	n/a	n/a	0	0	0
2219.626	n/a	WORD	1109813	wordpools/wasnorm_wordpool_576.txt	LTP303	ltpFR2	8	9	MISTER	901	n/a	n/a	0	0	0
2222.394	n/a	WORD	1111197	wordpools/wasnorm_wordpool_576.txt	LTP303	ltpFR2	8	9	LILY	821	n/a	n/a	0	0	0
2224.972	n/a	WORD	1112486	wordpools/wasnorm_wordpool_576.txt	LTP303	ltpFR2	8	9	BOUQUET	157	n/a	n/a	0	0	0
2227.624	n/a	WORD	1113812	wordpools/wasnorm_wordpool_576.txt	LTP303	ltpFR2	8	9	BATHTUB	100	n/a	n/a	0	0	0
2230.15	n/a	WORD	1115075	wordpools/wasnorm_wordpool_576.txt	LTP303	ltpFR2	8	9	JEANS	752	n/a	n/a	0	0	0
2232.928	n/a	WORD	1116464	wordpools/wasnorm_wordpool_576.txt	LTP303	ltpFR2	8	9	SNACK	1331	n/a	n/a	0	0	0
2235.664	n/a	WORD	1117832	wordpools/wasnorm_wordpool_576.txt	LTP303	ltpFR2	8	9	PICNIC	1060	n/a	n/a	0	0	0
2238.132	n/a	WORD	1119066	wordpools/wasnorm_wordpool_576.txt	LTP303	ltpFR2	8	9	WOMAN	1620	n/a	n/a	0	0	0
2240.778	n/a	WORD	1120389	wordpools/wasnorm_wordpool_576.txt	LTP303	ltpFR2	8	9	PECAN	1036	n/a	n/a	0	0	0
2243.446	n/a	WORD	1121723	wordpools/wasnorm_wordpool_576.txt	LTP303	ltpFR2	8	9	PARROT	1015	n/a	n/a	0	0	0
2246.056	n/a	WORD	1123028	wordpools/wasnorm_wordpool_576.txt	LTP303	ltpFR2	8	9	EAGLE	512	n/a	n/a	0	0	0
2248.64	n/a	WORD	1124320	wordpools/wasnorm_wordpool_576.txt	LTP303	ltpFR2	8	9	BINDER	127	n/a	n/a	0	0	0
2251.252	n/a	WORD	1125626	wordpools/wasnorm_wordpool_576.txt	LTP303	ltpFR2	8	9	WARDROBE	1587	n/a	n/a	0	0	0
2253.778	n/a	WORD	1126889	wordpools/wasnorm_wordpool_576.txt	LTP303	ltpFR2	8	9	AWARD	63	n/a	n/a	0	0	0
2256.258	n/a	WORD	1128129	wordpools/wasnorm_wordpool_576.txt	LTP303	ltpFR2	8	9	DANDRUFF	439	n/a	n/a	0	0	0
2258.876	n/a	WORD	1129438	wordpools/wasnorm_wordpool_576.txt	LTP303	ltpFR2	8	9	MOTEL	919	n/a	n/a	0	0	0
2260.482	n/a	START	1130241	n/a	LTP303	ltpFR2	8	n/a	n/a	n/a	15	n/a	n/a	n/a	n/a
2261.606	n/a	DISTRACTOR	1130803	n/a	LTP303	ltpFR2	8	9	n/a	n/a	n/a	n/a	0	0	0
2261.612	n/a	PROB	1130806	n/a	LTP303	ltpFR2	8	n/a	n/a	n/a	15	16	5	2	9
2264.034	n/a	PROB	1132017	n/a	LTP303	ltpFR2	8	n/a	n/a	n/a	15	16	7	1	8
2265.52	n/a	PROB	1132760	n/a	LTP303	ltpFR2	8	n/a	n/a	n/a	15	20	3	8	9
2267.554	n/a	PROB	1133777	n/a	LTP303	ltpFR2	8	n/a	n/a	n/a	15	14	4	9	1
2269.472	n/a	PROB	1134736	n/a	LTP303	ltpFR2	8	n/a	n/a	n/a	15	12	6	1	5
2271.226	n/a	PROB	1135613	n/a	LTP303	ltpFR2	8	n/a	n/a	n/a	15	7	2	3	2
2272.642	n/a	PROB	1136321	n/a	LTP303	ltpFR2	8	n/a	n/a	n/a	15	6	2	3	1
2273.844	n/a	PROB	1136922	n/a	LTP303	ltpFR2	8	n/a	n/a	n/a	15	12	3	8	1
2275.712	n/a	PROB	1137856	n/a	LTP303	ltpFR2	8	n/a	n/a	n/a	15	25	8	9	8
2278.464	n/a	PROB	1139232	n/a	LTP303	ltpFR2	8	n/a	n/a	n/a	15	7	4	2	1
2280.398	n/a	PROB	1140199	n/a	LTP303	ltpFR2	8	n/a	n/a	n/a	15	12	8	1	3
2282.134	n/a	PROB	1141067	n/a	LTP303	ltpFR2	8	n/a	n/a	n/a	15	16	5	2	9
2283.614	n/a	STOP	1141807	n/a	LTP303	ltpFR2	8	n/a	n/a	n/a	15	n/a	n/a	n/a	n/a
2286.304	n/a	REC_START	1143152	n/a	LTP303	ltpFR2	8	9	n/a	n/a	n/a	n/a	0	0	0
2289.268	n/a	REC_WORD	1144634	wordpools/wasnorm_wordpool_576.txt	LTP303	ltpFR2	8	9	THIEF	1456	n/a	n/a	0	0	0
2291.266	n/a	REC_WORD	1145633	wordpools/wasnorm_wordpool_576.txt	LTP303	ltpFR2	8	9	BINDER	127	n/a	n/a	0	0	0
2292.75	n/a	REC_WORD	1146375	wordpools/wasnorm_wordpool_576.txt	LTP303	ltpFR2	8	9	WARDROBE	1587	n/a	n/a	0	0	0
2293.964	n/a	REC_WORD	1146982	wordpools/wasnorm_wordpool_576.txt	LTP303	ltpFR2	8	9	BELLY	119	n/a	n/a	0	0	0
2295.372	n/a	REC_WORD	1147686	wordpools/wasnorm_wordpool_576.txt	LTP303	ltpFR2	8	9	BODY	145	n/a	n/a	0	0	0
2299.256	n/a	REC_WORD	1149628	wordpools/wasnorm_wordpool_576.txt	LTP303	ltpFR2	8	9	COSTUME	383	n/a	n/a	0	0	0
2300.584	n/a	REC_WORD	1150292	wordpools/wasnorm_wordpool_576.txt	LTP303	ltpFR2	8	9	SHELF	1280	n/a	n/a	0	0	0
2302.124	n/a	REC_WORD	1151062	wordpools/wasnorm_wordpool_576.txt	LTP303	ltpFR2	8	9	MISTER	901	n/a	n/a	0	0	0
2303.552	n/a	REC_WORD	1151776	wordpools/wasnorm_wordpool_576.txt	LTP303	ltpFR2	8	9	LILY	821	n/a	n/a	0	0	0
2304.69	n/a	REC_WORD	1152345	wordpools/wasnorm_wordpool_576.txt	LTP303	ltpFR2	8	9	BOUQUET	157	n/a	n/a	0	0	0
2306.138	n/a	REC_WORD	1153069	wordpools/wasnorm_wordpool_576.txt	LTP303	ltpFR2	8	9	BATHTUB	100	n/a	n/a	0	0	0
2307.608	n/a	REC_WORD	1153804	wordpools/wasnorm_wordpool_576.txt	LTP303	ltpFR2	8	9	JEANS	752	n/a	n/a	0	0	0
2314.266	n/a	REC_WORD	1157133	wordpools/wasnorm_wordpool_576.txt	LTP303	ltpFR2	8	9	PICNIC	1060	n/a	n/a	0	0	0
2315.47	n/a	REC_WORD	1157735	wordpools/wasnorm_wordpool_576.txt	LTP303	ltpFR2	8	9	PECAN	1036	n/a	n/a	0	0	0
2317.576	n/a	REC_WORD	1158788	wordpools/wasnorm_wordpool_576.txt	LTP303	ltpFR2	8	9	EAGLE	512	n/a	n/a	0	0	0
2376.726	n/a	DISTRACTOR	1188363	n/a	LTP303	ltpFR2	8	10	n/a	n/a	n/a	n/a	0	0	0
2376.726	n/a	START	1188363	n/a	LTP303	ltpFR2	8	n/a	n/a	n/a	16	n/a	n/a	n/a	n/a
2376.744	n/a	PROB	1188372	n/a	LTP303	ltpFR2	8	n/a	n/a	n/a	16	23	6	8	9
2379.426	n/a	PROB	1189713	n/a	LTP303	ltpFR2	8	n/a	n/a	n/a	16	17	2	8	7
2382.08	n/a	PROB	1191040	n/a	LTP303	ltpFR2	8	n/a	n/a	n/a	16	4	1	1	2
2383.064	n/a	PROB	1191532	n/a	LTP303	ltpFR2	8	n/a	n/a	n/a	16	11	2	8	1
2384.216	n/a	PROB	1192108	n/a	LTP303	ltpFR2	8	n/a	n/a	n/a	16	18	2	9	7
2385.982	n/a	PROB	1192991	n/a	LTP303	ltpFR2	8	n/a	n/a	n/a	16	10	3	3	4
2387.682	n/a	PROB	1193841	n/a	LTP303	ltpFR2	8	n/a	n/a	n/a	16	12	5	4	3
2389.802	n/a	PROB	1194901	n/a	LTP303	ltpFR2	8	n/a	n/a	n/a	16	16	6	3	7
2391.238	n/a	PROB	1195619	n/a	LTP303	ltpFR2	8	n/a	n/a	n/a	16	9	5	3	1
2392.72	n/a	PROB	1196360	n/a	LTP303	ltpFR2	8	n/a	n/a	n/a	16	21	6	7	8
2397.324	n/a	PROB	1198662	n/a	LTP303	ltpFR2	8	n/a	n/a	n/a	16	26	9	8	9
2400.648	n/a	STOP	1200324	n/a	LTP303	ltpFR2	8	n/a	n/a	n/a	16	n/a	n/a	n/a	n/a
2401.644	n/a	WORD	1200822	wordpools/wasnorm_wordpool_576.txt	LTP303	ltpFR2	8	10	SUNRISE	1407	n/a	n/a	0	0	0
2404.064	n/a	WORD	1202032	wordpools/wasnorm_wordpool_576.txt	LTP303	ltpFR2	8	10	ISLAND	745	n/a	n/a	0	0	0
2406.498	n/a	WORD	1203249	wordpools/wasnorm_wordpool_576.txt	LTP303	ltpFR2	8	10	GARLIC	624	n/a	n/a	0	0	0
2409.302	n/a	WORD	1204651	wordpools/wasnorm_wordpool_576.txt	LTP303	ltpFR2	8	10	SHELTER	1282	n/a	n/a	0	0	0
2411.758	n/a	WORD	1205879	wordpools/wasnorm_wordpool_576.txt	LTP303	ltpFR2	8	10	VICTIM	1562	n/a	n/a	0	0	0
2414.37	n/a	WORD	1207185	wordpools/wasnorm_wordpool_576.txt	LTP303	ltpFR2	8	10	GRAVEL	659	n/a	n/a	0	0	0
2416.808	n/a	WORD	1208404	wordpools/wasnorm_wordpool_576.txt	LTP303	ltpFR2	8	10	TROMBONE	1508	n/a	n/a	0	0	0
2419.326	n/a	WORD	1209663	wordpools/wasnorm_wordpool_576.txt	LTP303	ltpFR2	8	10	CRAB	397	n/a	n/a	0	0	0
2421.75	n/a	WORD	1210875	wordpools/wasnorm_wordpool_576.txt	LTP303	ltpFR2	8	10	ICEBERG	731	n/a	n/a	0	0	0
2424.484	n/a	WORD	1212242	wordpools/wasnorm_wordpool_576.txt	LTP303	ltpFR2	8	10	FLASHLIGHT	575	n/a	n/a	0	0	0
2427.048	n/a	WORD	1213524	wordpools/wasnorm_wordpool_576.txt	LTP303	ltpFR2	8	10	RABBIT	1152	n/a	n/a	0	0	0
2429.624	n/a	WORD	1214812	wordpools/wasnorm_wordpool_576.txt	LTP303	ltpFR2	8	10	TORTOISE	1486	n/a	n/a	0	0	0
2432.152	n/a	WORD	1216076	wordpools/wasnorm_wordpool_576.txt	LTP303	ltpFR2	8	10	DUSTPAN	509	n/a	n/a	0	0	0
2434.704	n/a	WORD	1217352	wordpools/wasnorm_wordpool_576.txt	LTP303	ltpFR2	8	10	HORSE	719	n/a	n/a	0	0	0
2437.438	n/a	WORD	1218719	wordpools/wasnorm_wordpool_576.txt	LTP303	ltpFR2	8	10	IGLOO	734	n/a	n/a	0	0	0
2440.16	n/a	WORD	1220080	wordpools/wasnorm_wordpool_576.txt	LTP303	ltpFR2	8	10	BULLET	194	n/a	n/a	0	0	0
2442.968	n/a	WORD	1221484	wordpools/wasnorm_wordpool_576.txt	LTP303	ltpFR2	8	10	ONION	977	n/a	n/a	0	0	0
2445.436	n/a	WORD	1222718	wordpools/wasnorm_wordpool_576.txt	LTP303	ltpFR2	8	10	SCRIBBLE	1256	n/a	n/a	0	0	0
2448.19	n/a	WORD	1224095	wordpools/wasnorm_wordpool_576.txt	LTP303	ltpFR2	8	10	ROBIN	1199	n/a	n/a	0	0	0
2450.626	n/a	WORD	1225313	wordpools/wasnorm_wordpool_576.txt	LTP303	ltpFR2	8	10	DIME	466	n/a	n/a	0	0	0
2453.27	n/a	WORD	1226635	wordpools/wasnorm_wordpool_576.txt	LTP303	ltpFR2	8	10	PISTOL	1075	n/a	n/a	0	0	0
2456.062	n/a	WORD	1228031	wordpools/wasnorm_wordpool_576.txt	LTP303	ltpFR2	8	10	FIDDLE	561	n/a	n/a	0	0	0
2458.816	n/a	WORD	1229408	wordpools/wasnorm_wordpool_576.txt	LTP303	ltpFR2	8	10	BRANDY	169	n/a	n/a	0	0	0
2461.442	n/a	WORD	1230721	wordpools/wasnorm_wordpool_576.txt	LTP303	ltpFR2	8	10	CHAMPAGNE	278	n/a	n/a	0	0	0
2463.052	n/a	START	1231526	n/a	LTP303	ltpFR2	8	n/a	n/a	n/a	17	n/a	n/a	n/a	n/a
2463.924	n/a	DISTRACTOR	1231962	n/a	LTP303	ltpFR2	8	10	n/a	n/a	n/a	n/a	0	0	0
2463.928	n/a	PROB	1231964	n/a	LTP303	ltpFR2	8	n/a	n/a	n/a	17	7	5	1	1
2465.162	n/a	PROB	1232581	n/a	LTP303	ltpFR2	8	n/a	n/a	n/a	17	13	2	3	8
2466.544	n/a	PROB	1233272	n/a	LTP303	ltpFR2	8	n/a	n/a	n/a	17	20	5	7	8
2468.346	n/a	PROB	1234173	n/a	LTP303	ltpFR2	8	n/a	n/a	n/a	17	20	4	9	7
2470.098	n/a	PROB	1235049	n/a	LTP303	ltpFR2	8	n/a	n/a	n/a	17	10	1	6	3
2471.232	n/a	PROB	1235616	n/a	LTP303	ltpFR2	8	n/a	n/a	n/a	17	12	5	1	6
2472.716	n/a	PROB	1236358	n/a	LTP303	ltpFR2	8	n/a	n/a	n/a	17	14	9	4	1
2473.786	n/a	PROB	1236893	n/a	LTP303	ltpFR2	8	n/a	n/a	n/a	17	11	1	2	8
2474.936	n/a	PROB	1237468	n/a	LTP303	ltpFR2	8	n/a	n/a	n/a	17	10	8	9	3
2477.924	n/a	PROB	1238962	n/a	LTP303	ltpFR2	8	n/a	n/a	n/a	17	19	5	8	6
2479.908	n/a	PROB	1239954	n/a	LTP303	ltpFR2	8	n/a	n/a	n/a	17	9	3	1	5
2481.092	n/a	PROB	1240546	n/a	LTP303	ltpFR2	8	n/a	n/a	n/a	17	19	8	3	8
2483.342	n/a	PROB	1241671	n/a	LTP303	ltpFR2	8	n/a	n/a	n/a	17	13	4	8	1
2487.054	n/a	STOP	1243527	n/a	LTP303	ltpFR2	8	n/a	n/a	n/a	17	n/a	n/a	n/a	n/a
2488.814	n/a	REC_START	1244407	n/a	LTP303	ltpFR2	8	10	n/a	n/a	n/a	n/a	0	0	0
2501.292	n/a	REC_WORD	1250646	wordpools/wasnorm_wordpool_576.txt	LTP303	ltpFR2	8	10	BRANDY	169	n/a	n/a	0	0	0
2502.426	n/a	REC_WORD	1251213	wordpools/wasnorm_wordpool_576.txt	LTP303	ltpFR2	8	10	CHAMPAGNE	278	n/a	n/a	0	0	0
2504.578	n/a	REC_WORD	1252289	wordpools/wasnorm_wordpool_576.txt	LTP303	ltpFR2	8	10	GAVEL	627	n/a	n/a	0	0	0
2505.834	n/a	REC_WORD	1252917	wordpools/wasnorm_wordpool_576.txt	LTP303	ltpFR2	8	10	TROMBONE	1508	n/a	n/a	0	0	0
2509.97	n/a	REC_WORD	1254985	wordpools/wasnorm_wordpool_576.txt	LTP303	ltpFR2	8	10	FIDDLE	561	n/a	n/a	0	0	0
2514.666	n/a	REC_WORD	1257333	wordpools/wasnorm_wordpool_576.txt	LTP303	ltpFR2	8	10	FLASHLIGHT	575	n/a	n/a	0	0	0
2516.518	n/a	REC_WORD	1258259	wordpools/wasnorm_wordpool_576.txt	LTP303	ltpFR2	8	10	BUNNY	198	n/a	n/a	0	0	0
2517.954	n/a	REC_WORD	1258977	wordpools/wasnorm_wordpool_576.txt	LTP303	ltpFR2	8	10	TORTOISE	1486	n/a	n/a	0	0	0
2519.32	n/a	REC_WORD	1259660	wordpools/wasnorm_wordpool_576.txt	LTP303	ltpFR2	8	10	HORSE	719	n/a	n/a	0	0	0
2520.726	n/a	REC_WORD	1260363	wordpools/wasnorm_wordpool_576.txt	LTP303	ltpFR2	8	10	IGLOO	734	n/a	n/a	0	0	0
2522.008	n/a	REC_WORD	1261004	wordpools/wasnorm_wordpool_576.txt	LTP303	ltpFR2	8	10	BULLET	194	n/a	n/a	0	0	0
2523.362	n/a	REC_WORD	1261681	wordpools/wasnorm_wordpool_576.txt	LTP303	ltpFR2	8	10	PISTOL	1075	n/a	n/a	0	0	0
2579.286	n/a	WORD	1289643	wordpools/wasnorm_wordpool_576.txt	LTP303	ltpFR2	8	11	LAGOON	795	n/a	n/a	0	0	0
2581.822	n/a	WORD	1290911	wordpools/wasnorm_wordpool_576.txt	LTP303	ltpFR2	8	11	BIKE	125	n/a	n/a	0	0	0
2584.59	n/a	WORD	1292295	wordpools/wasnorm_wordpool_576.txt	LTP303	ltpFR2	8	11	PEDAL	1037	n/a	n/a	0	0	0
2587.026	n/a	WORD	1293513	wordpools/wasnorm_wordpool_576.txt	LTP303	ltpFR2	8	11	HELMET	702	n/a	n/a	0	0	0
2589.794	n/a	WORD	1294897	wordpools/wasnorm_wordpool_576.txt	LTP303	ltpFR2	8	11	DINER	467	n/a	n/a	0	0	0
2592.396	n/a	WORD	1296198	wordpools/wasnorm_wordpool_576.txt	LTP303	ltpFR2	8	11	SERVER	1272	n/a	n/a	0	0	0
2594.832	n/a	WORD	1297416	wordpools/wasnorm_wordpool_576.txt	LTP303	ltpFR2	8	11	QUAIL	1147	n/a	n/a	0	0	0
2597.634	n/a	WORD	1298817	wordpools/wasnorm_wordpool_576.txt	LTP303	ltpFR2	8	11	CATCHER	258	n/a	n/a	0	0	0
2600.102	n/a	WORD	1300051	wordpools/wasnorm_wordpool_576.txt	LTP303	ltpFR2	8	11	MARROW	872	n/a	n/a	0	0	0
2602.57	n/a	WORD	1301285	wordpools/wasnorm_wordpool_576.txt	LTP303	ltpFR2	8	11	SODA	1341	n/a	n/a	0	0	0
2605.222	n/a	WORD	1302611	wordpools/wasnorm_wordpool_576.txt	LTP303	ltpFR2	8	11	SUNSET	1408	n/a	n/a	0	0	0
2607.726	n/a	WORD	1303863	wordpools/wasnorm_wordpool_576.txt	LTP303	ltpFR2	8	11	LIVER	833	n/a	n/a	0	0	0
2610.244	n/a	WORD	1305122	wordpools/wasnorm_wordpool_576.txt	LTP303	ltpFR2	8	11	TEACHER	1440	n/a	n/a	0	0	0
2612.864	n/a	WORD	1306432	wordpools/wasnorm_wordpool_576.txt	LTP303	ltpFR2	8	11	PRINCE	1124	n/a	n/a	0	0	0
2615.316	n/a	WORD	1307658	wordpools/wasnorm_wordpool_576.txt	LTP303	ltpFR2	8	11	LEG	809	n/a	n/a	0	0	0
2618.002	n/a	WORD	1309001	wordpools/wasnorm_wordpool_576.txt	LTP303	ltpFR2	8	11	CLIMBER	323	n/a	n/a	0	0	0
2620.668	n/a	WORD	1310334	wordpools/wasnorm_wordpool_576.txt	LTP303	ltpFR2	8	11	FOREST	593	n/a	n/a	0	0	0
2623.222	n/a	WORD	1311611	wordpools/wasnorm_wordpool_576.txt	LTP303	ltpFR2	8	11	OINTMENT	974	n/a	n/a	0	0	0
2625.656	n/a	WORD	1312828	wordpools/wasnorm_wordpool_576.txt	LTP303	ltpFR2	8	11	SOFTBALL	1343	n/a	n/a	0	0	0
2628.14	n/a	WORD	1314070	wordpools/wasnorm_wordpool_576.txt	LTP303	ltpFR2	8	11	SCOTCH	1251	n/a	n/a	0	0	0
2630.83	n/a	WORD	1315415	wordpools/wasnorm_wordpool_576.txt	LTP303	ltpFR2	8	11	CAMEL	223	n/a	n/a	0	0	0
2633.314	n/a	WORD	1316657	wordpools/wasnorm_wordpool_576.txt	LTP303	ltpFR2	8	11	HEART	697	n/a	n/a	0	0	0
2635.798	n/a	WORD	1317899	wordpools/wasnorm_wordpool_576.txt	LTP303	ltpFR2	8	11	ACTOR	5	n/a	n/a	0	0	0
2638.466	n/a	WORD	1319233	wordpools/wasnorm_wordpool_576.txt	LTP303	ltpFR2	8	11	RUST	1219	n/a	n/a	0	0	0
2640.072	n/a	START	1320036	n/a	LTP303	ltpFR2	8	n/a	n/a	n/a	18	n/a	n/a	n/a	n/a
2640.902	n/a	DISTRACTOR	1320451	n/a	LTP303	ltpFR2	8	11	n/a	n/a	n/a	n/a	0	0	0
2640.918	n/a	PROB	1320459	n/a	LTP303	ltpFR2	8	n/a	n/a	n/a	18	17	6	7	4
2643.386	n/a	PROB	1321693	n/a	LTP303	ltpFR2	8	n/a	n/a	n/a	18	15	8	1	6
2645.12	n/a	PROB	1322560	n/a	LTP303	ltpFR2	8	n/a	n/a	n/a	18	17	9	5	3
2646.69	n/a	PROB	1323345	n/a	LTP303	ltpFR2	8	n/a	n/a	n/a	18	7	2	4	1
2648.074	n/a	PROB	1324037	n/a	LTP303	ltpFR2	8	n/a	n/a	n/a	18	12	4	3	5
2649.992	n/a	PROB	1324996	n/a	LTP303	ltpFR2	8	n/a	n/a	n/a	18	11	8	1	2
2651.194	n/a	PROB	1325597	n/a	LTP303	ltpFR2	8	n/a	n/a	n/a	18	11	1	6	4
2652.226	n/a	PROB	1326113	n/a	LTP303	ltpFR2	8	n/a	n/a	n/a	18	19	6	7	6
2654.812	n/a	PROB	1327406	n/a	LTP303	ltpFR2	8	n/a	n/a	n/a	18	16	6	7	3
2656.08	n/a	PROB	1328040	n/a	LTP303	ltpFR2	8	n/a	n/a	n/a	18	17	8	3	6
2657.68	n/a	PROB	1328840	n/a	LTP303	ltpFR2	8	n/a	n/a	n/a	18	15	4	6	5
2659.032	n/a	PROB	1329516	n/a	LTP303	ltpFR2	8	n/a	n/a	n/a	18	21	3	9	9
2660.716	n/a	PROB	1330358	n/a	LTP303	ltpFR2	8	n/a	n/a	n/a	18	10	2	3	5
2662.25	n/a	PROB	1331125	n/a	LTP303	ltpFR2	8	n/a	n/a	n/a	18	15	2	6	7
2663.432	n/a	STOP	1331716	n/a	LTP303	ltpFR2	8	n/a	n/a	n/a	18	n/a	n/a	n/a	n/a
2665.838	n/a	REC_START	1332919	n/a	LTP303	ltpFR2	8	11	n/a	n/a	n/a	n/a	0	0	0
2667.806	n/a	REC_WORD	1333903	wordpools/wasnorm_wordpool_576.txt	LTP303	ltpFR2	8	11	LAGOON	795	n/a	n/a	0	0	0
2668.994	n/a	REC_WORD	1334497	wordpools/wasnorm_wordpool_576.txt	LTP303	ltpFR2	8	11	BIKE	125	n/a	n/a	0	0	0
2670.124	n/a	REC_WORD	1335062	wordpools/wasnorm_wordpool_576.txt	LTP303	ltpFR2	8	11	PEDAL	1037	n/a	n/a	0	0	0
2671.356	n/a	REC_WORD	1335678	wordpools/wasnorm_wordpool_576.txt	LTP303	ltpFR2	8	11	HELMET	702	n/a	n/a	0	0	0
2673.034	n/a	REC_WORD	1336517	wordpools/wasnorm_wordpool_576.txt	LTP303	ltpFR2	8	11	DINER	467	n/a	n/a	0	0	0
2674.346	n/a	REC_WORD	1337173	wordpools/wasnorm_wordpool_576.txt	LTP303	ltpFR2	8	11	WAITER	1580	n/a	n/a	0	0	0
2675.594	n/a	REC_WORD	1337797	wordpools/wasnorm_wordpool_576.txt	LTP303	ltpFR2	8	11	QUAIL	1147	n/a	n/a	0	0	0
2683.47	n/a	REC_WORD	1341735	wordpools/wasnorm_wordpool_576.txt	LTP303	ltpFR2	8	11	CATCHER	258	n/a	n/a	0	0	0
2684.53	n/a	REC_WORD	1342265	wordpools/wasnorm_wordpool_576.txt	LTP303	ltpFR2	8	11	MARROW	872	n/a	n/a	0	0	0
2685.774	n/a	REC_WORD	1342887	wordpools/wasnorm_wordpool_576.txt	LTP303	ltpFR2	8	11	SODA	1341	n/a	n/a	0	0	0
2690.064	n/a	REC_WORD	1345032	wordpools/wasnorm_wordpool_576.txt	LTP303	ltpFR2	8	11	SUNSET	1408	n/a	n/a	0	0	0
2691.41	n/a	REC_WORD	1345705	wordpools/wasnorm_wordpool_576.txt	LTP303	ltpFR2	8	11	LIVER	833	n/a	n/a	0	0	0
2694.656	n/a	REC_WORD	1347328	wordpools/wasnorm_wordpool_576.txt	LTP303	ltpFR2	8	11	TEACHER	1440	n/a	n/a	0	0	0
2696.746	n/a	REC_WORD	1348373	wordpools/wasnorm_wordpool_576.txt	LTP303	ltpFR2	8	11	PRINCE	1124	n/a	n/a	0	0	0
2697.886	n/a	REC_WORD	1348943	wordpools/wasnorm_wordpool_576.txt	LTP303	ltpFR2	8	11	LEG	809	n/a	n/a	0	0	0
2699.046	n/a	REC_WORD	1349523	wordpools/wasnorm_wordpool_576.txt	LTP303	ltpFR2	8	11	HIKER	708	n/a	n/a	0	0	0
2700.398	n/a	REC_WORD	1350199	wordpools/wasnorm_wordpool_576.txt	LTP303	ltpFR2	8	11	OINTMENT	974	n/a	n/a	0	0	0
2705.66	n/a	REC_WORD	1352830	wordpools/wasnorm_wordpool_576.txt	LTP303	ltpFR2	8	11	SCOTCH	1251	n/a	n/a	0	0	0
2709.51	n/a	REC_WORD	1354755	wordpools/wasnorm_wordpool_576.txt	LTP303	ltpFR2	8	11	CAMEL	223	n/a	n/a	0	0	0
2710.706	n/a	REC_WORD	1355353	wordpools/wasnorm_wordpool_576.txt	LTP303	ltpFR2	8	11	HEART	697	n/a	n/a	0	0	0
2711.974	n/a	REC_WORD	1355987	wordpools/wasnorm_wordpool_576.txt	LTP303	ltpFR2	8	11	ACTOR	5	n/a	n/a	0	0	0
2713.23	n/a	REC_WORD	1356615	wordpools/wasnorm_wordpool_576.txt	LTP303	ltpFR2	8	11	RUST	1219	n/a	n/a	0	0	0
2756.288	n/a	WORD	1378144	wordpools/wasnorm_wordpool_576.txt	LTP303	ltpFR2	8	12	DONOR	485	n/a	n/a	0	0	0
2758.758	n/a	WORD	1379379	wordpools/wasnorm_wordpool_576.txt	LTP303	ltpFR2	8	12	PADDLE	1000	n/a	n/a	0	0	0
2761.296	n/a	WORD	1380648	wordpools/wasnorm_wordpool_576.txt	LTP303	ltpFR2	8	12	FRECKLE	602	n/a	n/a	0	0	0
2763.764	n/a	WORD	1381882	wordpools/wasnorm_wordpool_576.txt	LTP303	ltpFR2	8	12	CRIB	407	n/a	n/a	0	0	0
2766.28	n/a	WORD	1383140	wordpools/wasnorm_wordpool_576.txt	LTP303	ltpFR2	8	12	FLESH	579	n/a	n/a	0	0	0
2769.048	n/a	WORD	1384524	wordpools/wasnorm_wordpool_576.txt	LTP303	ltpFR2	8	12	LASER	801	n/a	n/a	0	0	0
2771.736	n/a	WORD	1385868	wordpools/wasnorm_wordpool_576.txt	LTP303	ltpFR2	8	12	ROBOT	1200	n/a	n/a	0	0	0
2774.504	n/a	WORD	1387252	wordpools/wasnorm_wordpool_576.txt	LTP303	ltpFR2	8	12	TWEEZERS	1526	n/a	n/a	0	0	0
2777.106	n/a	WORD	1388553	wordpools/wasnorm_wordpool_576.txt	LTP303	ltpFR2	8	12	SCISSORS	1250	n/a	n/a	0	0	0
2779.624	n/a	WORD	1389812	wordpools/wasnorm_wordpool_576.txt	LTP303	ltpFR2	8	12	QUEEN	1149	n/a	n/a	0	0	0
2782.376	n/a	WORD	1391188	wordpools/wasnorm_wordpool_576.txt	LTP303	ltpFR2	8	12	CROWN	415	n/a	n/a	0	0	0
2784.914	n/a	WORD	1392457	wordpools/wasnorm_wordpool_576.txt	LTP303	ltpFR2	8	12	XEROX	1628	n/a	n/a	0	0	0
2787.496	n/a	WORD	1393748	wordpools/wasnorm_wordpool_576.txt	LTP303	ltpFR2	8	12	SALAD	1224	n/a	n/a	0	0	0
2790.084	n/a	WORD	1395042	wordpools/wasnorm_wordpool_576.txt	LTP303	ltpFR2	8	12	LAMP	798	n/a	n/a	0	0	0
2792.82	n/a	WORD	1396410	wordpools/wasnorm_wordpool_576.txt	LTP303	ltpFR2	8	12	FOX	598	n/a	n/a	0	0	0
2795.556	n/a	WORD	1397778	wordpools/wasnorm_wordpool_576.txt	LTP303	ltpFR2	8	12	HOUND	724	n/a	n/a	0	0	0
2798.074	n/a	WORD	1399037	wordpools/wasnorm_wordpool_576.txt	LTP303	ltpFR2	8	12	STAPLE	1371	n/a	n/a	0	0	0
2800.576	n/a	WORD	1400288	wordpools/wasnorm_wordpool_576.txt	LTP303	ltpFR2	8	12	WIFE	1609	n/a	n/a	0	0	0
2803.13	n/a	WORD	1401565	wordpools/wasnorm_wordpool_576.txt	LTP303	ltpFR2	8	12	LEADER	807	n/a	n/a	0	0	0
2805.832	n/a	WORD	1402916	wordpools/wasnorm_wordpool_576.txt	LTP303	ltpFR2	8	12	HOOK	715	n/a	n/a	0	0	0
2808.35	n/a	WORD	1404175	wordpools/wasnorm_wordpool_576.txt	LTP303	ltpFR2	8	12	BABY	64	n/a	n/a	0	0	0
2811.02	n/a	WORD	1405510	wordpools/wasnorm_wordpool_576.txt	LTP303	ltpFR2	8	12	PIMPLE	1071	n/a	n/a	0	0	0
2813.538	n/a	WORD	1406769	wordpools/wasnorm_wordpool_576.txt	LTP303	ltpFR2	8	12	CASHEW	253	n/a	n/a	0	0	0
2816.172	n/a	WORD	1408086	wordpools/wasnorm_wordpool_576.txt	LTP303	ltpFR2	8	12	VALVE	1546	n/a	n/a	0	0	0
2817.776	n/a	START	1408888	n/a	LTP303	ltpFR2	8	n/a	n/a	n/a	19	n/a	n/a	n/a	n/a
2818.942	n/a	DISTRACTOR	1409471	n/a	LTP303	ltpFR2	8	12	n/a	n/a	n/a	n/a	0	0	0
2818.96	n/a	PROB	1409480	n/a	LTP303	ltpFR2	8	n/a	n/a	n/a	19	21	4	9	8
2821.06	n/a	PROB	1410530	n/a	LTP303	ltpFR2	8	n/a	n/a	n/a	19	19	7	3	9
2822.93	n/a	PROB	1411465	n/a	LTP303	ltpFR2	8	n/a	n/a	n/a	19	18	5	4	9
2824.68	n/a	PROB	1412340	n/a	LTP303	ltpFR2	8	n/a	n/a	n/a	19	14	4	7	3
2826.114	n/a	PROB	1413057	n/a	LTP303	ltpFR2	8	n/a	n/a	n/a	19	5	1	2	2
2827.082	n/a	PROB	1413541	n/a	LTP303	ltpFR2	8	n/a	n/a	n/a	19	22	5	8	9
2830.234	n/a	PROB	1415117	n/a	LTP303	ltpFR2	8	n/a	n/a	n/a	19	12	8	2	2
2831.886	n/a	PROB	1415943	n/a	LTP303	ltpFR2	8	n/a	n/a	n/a	19	5	1	3	1
2832.952	n/a	PROB	1416476	n/a	LTP303	ltpFR2	8	n/a	n/a	n/a	19	21	9	7	5
2835.07	n/a	PROB	1417535	n/a	LTP303	ltpFR2	8	n/a	n/a	n/a	19	22	6	7	9
2837.572	n/a	PROB	1418786	n/a	LTP303	ltpFR2	8	n/a	n/a	n/a	19	12	2	5	5
2838.708	n/a	PROB	1419354	n/a	LTP303	ltpFR2	8	n/a	n/a	n/a	19	15	6	4	5
2841.776	n/a	STOP	1420888	n/a	LTP303	ltpFR2	8	n/a	n/a	n/a	19	n/a	n/a	n/a	n/a
2843.712	n/a	REC_START	1421856	n/a	LTP303	ltpFR2	8	12	n/a	n/a	n/a	n/a	0	0	0
2845.424	n/a	REC_WORD	1422712	wordpools/wasnorm_wordpool_576.txt	LTP303	ltpFR2	8	12	DONOR	485	n/a	n/a	0	0	0
2847.17	n/a	REC_WORD	1423585	wordpools/wasnorm_wordpool_576.txt	LTP303	ltpFR2	8	12	CRIB	407	n/a	n/a	0	0	0
2848.428	n/a	REC_WORD	1424214	wordpools/wasnorm_wordpool_576.txt	LTP303	ltpFR2	8	12	FLESH	579	n/a	n/a	0	0	0
2849.782	n/a	REC_WORD	1424891	wordpools/wasnorm_wordpool_576.txt	LTP303	ltpFR2	8	12	LASER	801	n/a	n/a	0	0	0
2851.114	n/a	REC_WORD	1425557	wordpools/wasnorm_wordpool_576.txt	LTP303	ltpFR2	8	12	ROBOT	1200	n/a	n/a	0	0	0
2857.344	n/a	REC_WORD	1428672	wordpools/wasnorm_wordpool_576.txt	LTP303	ltpFR2	8	12	TWEEZERS	1526	n/a	n/a	0	0	0
2858.378	n/a	REC_WORD	1429189	wordpools/wasnorm_wordpool_576.txt	LTP303	ltpFR2	8	12	SCISSORS	1250	n/a	n/a	0	0	0
2861.994	n/a	REC_WORD	1430997	wordpools/wasnorm_wordpool_576.txt	LTP303	ltpFR2	8	12	QUEEN	1149	n/a	n/a	0	0	0
2863.304	n/a	REC_WORD	1431652	wordpools/wasnorm_wordpool_576.txt	LTP303	ltpFR2	8	12	CROWN	415	n/a	n/a	0	0	0
2864.738	n/a	REC_WORD	1432369	wordpools/wasnorm_wordpool_576.txt	LTP303	ltpFR2	8	12	XEROX	1628	n/a	n/a	0	0	0
2868.842	n/a	REC_WORD	1434421	wordpools/wasnorm_wordpool_576.txt	LTP303	ltpFR2	8	12	POISON	1096	n/a	n/a	0	0	0
2870.1	n/a	REC_WORD	1435050	wordpools/wasnorm_wordpool_576.txt	LTP303	ltpFR2	8	12	SALAD	1224	n/a	n/a	0	0	0
2871.95	n/a	REC_WORD	1435975	wordpools/wasnorm_wordpool_576.txt	LTP303	ltpFR2	8	12	LAMP	798	n/a	n/a	0	0	0
2873.142	n/a	REC_WORD	1436571	wordpools/wasnorm_wordpool_576.txt	LTP303	ltpFR2	8	12	HOUND	724	n/a	n/a	0	0	0
2874.32	n/a	REC_WORD	1437160	wordpools/wasnorm_wordpool_576.txt	LTP303	ltpFR2	8	12	FOX	598	n/a	n/a	0	0	0
2876.982	n/a	REC_WORD	1438491	wordpools/wasnorm_wordpool_576.txt	LTP303	ltpFR2	8	12	WIFE	1609	n/a	n/a	0	0	0
2882.198	n/a	REC_WORD	1441099	wordpools/wasnorm_wordpool_576.txt	LTP303	ltpFR2	8	12	LEADER	807	n/a	n/a	0	0	0
2885.402	n/a	REC_WORD	1442701	wordpools/wasnorm_wordpool_576.txt	LTP303	ltpFR2	8	12	HOOK	715	n/a	n/a	0	0	0
2886.816	n/a	REC_WORD	1443408	wordpools/wasnorm_wordpool_576.txt	LTP303	ltpFR2	8	12	BABY	64	n/a	n/a	0	0	0
2888.064	n/a	REC_WORD	1444032	wordpools/wasnorm_wordpool_576.txt	LTP303	ltpFR2	8	12	PIMPLE	1071	n/a	n/a	0	0	0
2889.2	n/a	REC_WORD	1444600	wordpools/wasnorm_wordpool_576.txt	LTP303	ltpFR2	8	12	CASHEW	253	n/a	n/a	0	0	0
2890.358	n/a	REC_WORD	1445179	wordpools/wasnorm_wordpool_576.txt	LTP303	ltpFR2	8	12	VALVE	1546	n/a	n/a	0	0	0
2934.15	n/a	WORD	1467075	wordpools/wasnorm_wordpool_576.txt	LTP303	ltpFR2	8	13	PERMIT	1051	n/a	n/a	0	0	0
2936.694	n/a	WORD	1468347	wordpools/wasnorm_wordpool_576.txt	LTP303	ltpFR2	8	13	DRUG	501	n/a	n/a	0	0	0
2939.156	n/a	WORD	1469578	wordpools/wasnorm_wordpool_576.txt	LTP303	ltpFR2	8	13	HERO	706	n/a	n/a	0	0	0
2941.89	n/a	WORD	1470945	wordpools/wasnorm_wordpool_576.txt	LTP303	ltpFR2	8	13	LAKE	796	n/a	n/a	0	0	0
2944.332	n/a	WORD	1472166	wordpools/wasnorm_wordpool_576.txt	LTP303	ltpFR2	8	13	GUITAR	670	n/a	n/a	0	0	0
2946.936	n/a	WORD	1473468	wordpools/wasnorm_wordpool_576.txt	LTP303	ltpFR2	8	13	PUDDLE	1140	n/a	n/a	0	0	0
2949.622	n/a	WORD	1474811	wordpools/wasnorm_wordpool_576.txt	LTP303	ltpFR2	8	13	LION	827	n/a	n/a	0	0	0
2952.314	n/a	WORD	1476157	wordpools/wasnorm_wordpool_576.txt	LTP303	ltpFR2	8	13	GARDEN	623	n/a	n/a	0	0	0
2954.75	n/a	WORD	1477375	wordpools/wasnorm_wordpool_576.txt	LTP303	ltpFR2	8	13	LAPEL	800	n/a	n/a	0	0	0
2957.426	n/a	WORD	1478713	wordpools/wasnorm_wordpool_576.txt	LTP303	ltpFR2	8	13	BUCKET	184	n/a	n/a	0	0	0
2959.904	n/a	WORD	1479952	wordpools/wasnorm_wordpool_576.txt	LTP303	ltpFR2	8	13	COBRA	336	n/a	n/a	0	0	0
2962.456	n/a	WORD	1481228	wordpools/wasnorm_wordpool_576.txt	LTP303	ltpFR2	8	13	SNAKE	1333	n/a	n/a	0	0	0
2964.984	n/a	WORD	1482492	wordpools/wasnorm_wordpool_576.txt	LTP303	ltpFR2	8	13	GALLON	618	n/a	n/a	0	0	0
2967.736	n/a	WORD	1483868	wordpools/wasnorm_wordpool_576.txt	LTP303	ltpFR2	8	13	ORANGE	980	n/a	n/a	0	0	0
2970.322	n/a	WORD	1485161	wordpools/wasnorm_wordpool_576.txt	LTP303	ltpFR2	8	13	ROD	1203	n/a	n/a	0	0	0
2972.976	n/a	WORD	1486488	wordpools/wasnorm_wordpool_576.txt	LTP303	ltpFR2	8	13	GYMNAST	675	n/a	n/a	0	0	0
2975.7	n/a	WORD	1487850	wordpools/wasnorm_wordpool_576.txt	LTP303	ltpFR2	8	13	PASTRY	1022	n/a	n/a	0	0	0
2978.214	n/a	WORD	1489107	wordpools/wasnorm_wordpool_576.txt	LTP303	ltpFR2	8	13	MAMMAL	861	n/a	n/a	0	0	0
2980.922	n/a	WORD	1490461	wordpools/wasnorm_wordpool_576.txt	LTP303	ltpFR2	8	13	SKILLET	1317	n/a	n/a	0	0	0
2983.566	n/a	WORD	1491783	wordpools/wasnorm_wordpool_576.txt	LTP303	ltpFR2	8	13	GRIZZLY	662	n/a	n/a	0	0	0
2986.036	n/a	WORD	1493018	wordpools/wasnorm_wordpool_576.txt	LTP303	ltpFR2	8	13	CANDY	230	n/a	n/a	0	0	0
2988.738	n/a	WORD	1494369	wordpools/wasnorm_wordpool_576.txt	LTP303	ltpFR2	8	13	COCKTAIL	338	n/a	n/a	0	0	0
2991.478	n/a	WORD	1495739	wordpools/wasnorm_wordpool_576.txt	LTP303	ltpFR2	8	13	LAVA	804	n/a	n/a	0	0	0
2994.076	n/a	WORD	1497038	wordpools/wasnorm_wordpool_576.txt	LTP303	ltpFR2	8	13	CRATER	400	n/a	n/a	0	0	0
2995.684	n/a	START	1497842	n/a	LTP303	ltpFR2	8	n/a	n/a	n/a	20	n/a	n/a	n/a	n/a
2996.678	n/a	DISTRACTOR	1498339	n/a	LTP303	ltpFR2	8	13	n/a	n/a	n/a	n/a	0	0	0
2996.682	n/a	PROB	1498341	n/a	LTP303	ltpFR2	8	n/a	n/a	n/a	20	14	5	3	6
2998.668	n/a	PROB	1499334	n/a	LTP303	ltpFR2	8	n/a	n/a	n/a	20	17	9	1	7
3000.118	n/a	PROB	1500059	n/a	LTP303	ltpFR2	8	n/a	n/a	n/a	20	14	3	9	2
3001.552	n/a	PROB	1500776	n/a	LTP303	ltpFR2	8	n/a	n/a	n/a	20	15	6	5	6
3003.338	n/a	PROB	1501669	n/a	LTP303	ltpFR2	8	n/a	n/a	n/a	20	10	4	3	3
3005.89	n/a	PROB	1502945	n/a	LTP303	ltpFR2	8	n/a	n/a	n/a	20	17	8	3	6
3007.676	n/a	PROB	1503838	n/a	LTP303	ltpFR2	8	n/a	n/a	n/a	20	11	3	4	4
3009.86	n/a	PROB	1504930	n/a	LTP303	ltpFR2	8	n/a	n/a	n/a	20	19	4	7	8
3012.242	n/a	PROB	1506121	n/a	LTP303	ltpFR2	8	n/a	n/a	n/a	20	16	6	5	5
3013.48	n/a	PROB	1506740	n/a	LTP303	ltpFR2	8	n/a	n/a	n/a	20	15	7	2	6
3015.994	n/a	PROB	1507997	n/a	LTP303	ltpFR2	8	n/a	n/a	n/a	20	9	4	2	3
3019.506	n/a	STOP	1509753	n/a	LTP303	ltpFR2	8	n/a	n/a	n/a	20	n/a	n/a	n/a	n/a
3021.568	n/a	REC_START	1510784	n/a	LTP303	ltpFR2	8	13	n/a	n/a	n/a	n/a	0	0	0
3022.666	n/a	REC_WORD	1511333	wordpools/wasnorm_wordpool_576.txt	LTP303	ltpFR2	8	13	PERMIT	1051	n/a	n/a	0	0	0
3023.94	n/a	REC_WORD	1511970	wordpools/wasnorm_wordpool_576.txt	LTP303	ltpFR2	8	13	DRUG	501	n/a	n/a	0	0	0
3025.12	n/a	REC_WORD	1512560	wordpools/wasnorm_wordpool_576.txt	LTP303	ltpFR2	8	13	HERO	706	n/a	n/a	0	0	0
3026.462	n/a	REC_WORD	1513231	wordpools/wasnorm_wordpool_576.txt	LTP303	ltpFR2	8	13	LAKE	796	n/a	n/a	0	0	0
3028.074	n/a	REC_WORD	1514037	wordpools/wasnorm_wordpool_576.txt	LTP303	ltpFR2	8	13	GUITAR	670	n/a	n/a	0	0	0
3029.524	n/a	REC_WORD	1514762	wordpools/wasnorm_wordpool_576.txt	LTP303	ltpFR2	8	13	PUDDLE	1140	n/a	n/a	0	0	0
3030.708	n/a	REC_WORD	1515354	wordpools/wasnorm_wordpool_576.txt	LTP303	ltpFR2	8	13	LION	827	n/a	n/a	0	0	0
3031.94	n/a	REC_WORD	1515970	wordpools/wasnorm_wordpool_576.txt	LTP303	ltpFR2	8	13	GARDEN	623	n/a	n/a	0	0	0
3033.112	n/a	REC_WORD	1516556	wordpools/wasnorm_wordpool_576.txt	LTP303	ltpFR2	8	13	LAPEL	800	n/a	n/a	0	0	0
3034.476	n/a	REC_WORD	1517238	wordpools/wasnorm_wordpool_576.txt	LTP303	ltpFR2	8	13	BUCKET	184	n/a	n/a	0	0	0
3037.218	n/a	REC_WORD	1518609	wordpools/wasnorm_wordpool_576.txt	LTP303	ltpFR2	8	13	COBRA	336	n/a	n/a	0	0	0
3038.398	n/a	REC_WORD	1519199	wordpools/wasnorm_wordpool_576.txt	LTP303	ltpFR2	8	13	SNAKE	1333	n/a	n/a	0	0	0
3039.756	n/a	REC_WORD	1519878	wordpools/wasnorm_wordpool_576.txt	LTP303	ltpFR2	8	13	ORANGE	980	n/a	n/a	0	0	0
3042.916	n/a	REC_WORD	1521458	wordpools/wasnorm_wordpool_576.txt	LTP303	ltpFR2	8	13	ROD	1203	n/a	n/a	0	0	0
3044.13	n/a	REC_WORD	1522065	wordpools/wasnorm_wordpool_576.txt	LTP303	ltpFR2	8	13	GYMNAST	675	n/a	n/a	0	0	0
3047.346	n/a	REC_WORD	1523673	wordpools/wasnorm_wordpool_576.txt	LTP303	ltpFR2	8	13	PASTRY	1022	n/a	n/a	0	0	0
3048.576	n/a	REC_WORD	1524288	wordpools/wasnorm_wordpool_576.txt	LTP303	ltpFR2	8	13	MAMMAL	861	n/a	n/a	0	0	0
3049.764	n/a	REC_WORD	1524882	wordpools/wasnorm_wordpool_576.txt	LTP303	ltpFR2	8	13	SKILLET	1317	n/a	n/a	0	0	0
3051.084	n/a	REC_WORD	1525542	wordpools/wasnorm_wordpool_576.txt	LTP303	ltpFR2	8	13	GRIZZLY	662	n/a	n/a	0	0	0
3053.316	n/a	REC_WORD	1526658	wordpools/wasnorm_wordpool_576.txt	LTP303	ltpFR2	8	13	CANDY	230	n/a	n/a	0	0	0
3054.452	n/a	REC_WORD	1527226	wordpools/wasnorm_wordpool_576.txt	LTP303	ltpFR2	8	13	COCKTAIL	338	n/a	n/a	0	0	0
3056.596	n/a	REC_WORD	1528298	wordpools/wasnorm_wordpool_576.txt	LTP303	ltpFR2	8	13	LAVA	804	n/a	n/a	0	0	0
3057.764	n/a	REC_WORD	1528882	wordpools/wasnorm_wordpool_576.txt	LTP303	ltpFR2	8	13	CRATER	400	n/a	n/a	0	0	0
3111.99	n/a	WORD	1555995	wordpools/wasnorm_wordpool_576.txt	LTP303	ltpFR2	8	14	EUROPE	541	n/a	n/a	0	0	0
3114.53	n/a	WORD	1557265	wordpools/wasnorm_wordpool_576.txt	LTP303	ltpFR2	8	14	CREVICE	405	n/a	n/a	0	0	0
3117.15	n/a	WORD	1558575	wordpools/wasnorm_wordpool_576.txt	LTP303	ltpFR2	8	14	RECORD	1176	n/a	n/a	0	0	0
3119.684	n/a	WORD	1559842	wordpools/wasnorm_wordpool_576.txt	LTP303	ltpFR2	8	14	SIDEWALK	1303	n/a	n/a	0	0	0
3122.2	n/a	WORD	1561100	wordpools/wasnorm_wordpool_576.txt	LTP303	ltpFR2	8	14	ELBOW	520	n/a	n/a	0	0	0
3124.634	n/a	WORD	1562317	wordpools/wasnorm_wordpool_576.txt	LTP303	ltpFR2	8	14	FOOT	590	n/a	n/a	0	0	0
3127.136	n/a	WORD	1563568	wordpools/wasnorm_wordpool_576.txt	LTP303	ltpFR2	8	14	VALLEY	1545	n/a	n/a	0	0	0
3129.838	n/a	WORD	1564919	wordpools/wasnorm_wordpool_576.txt	LTP303	ltpFR2	8	14	PERFUME	1049	n/a	n/a	0	0	0
3132.258	n/a	WORD	1566129	wordpools/wasnorm_wordpool_576.txt	LTP303	ltpFR2	8	14	HARP	689	n/a	n/a	0	0	0
3134.758	n/a	WORD	1567379	wordpools/wasnorm_wordpool_576.txt	LTP303	ltpFR2	8	14	FILM	565	n/a	n/a	0	0	0
3137.5	n/a	WORD	1568750	wordpools/wasnorm_wordpool_576.txt	LTP303	ltpFR2	8	14	KNIFE	785	n/a	n/a	0	0	0
3140.164	n/a	WORD	1570082	wordpools/wasnorm_wordpool_576.txt	LTP303	ltpFR2	8	14	SCALPEL	1243	n/a	n/a	0	0	0
3142.95	n/a	WORD	1571475	wordpools/wasnorm_wordpool_576.txt	LTP303	ltpFR2	8	14	CEILING	265	n/a	n/a	0	0	0
3145.702	n/a	WORD	1572851	wordpools/wasnorm_wordpool_576.txt	LTP303	ltpFR2	8	14	BROTHER	179	n/a	n/a	0	0	0
3148.336	n/a	WORD	1574168	wordpools/wasnorm_wordpool_576.txt	LTP303	ltpFR2	8	14	LIGHTNING	820	n/a	n/a	0	0	0
3150.756	n/a	WORD	1575378	wordpools/wasnorm_wordpool_576.txt	LTP303	ltpFR2	8	14	NOMAD	955	n/a	n/a	0	0	0
3153.522	n/a	WORD	1576761	wordpools/wasnorm_wordpool_576.txt	LTP303	ltpFR2	8	14	PADDING	999	n/a	n/a	0	0	0
3156.076	n/a	WORD	1578038	wordpools/wasnorm_wordpool_576.txt	LTP303	ltpFR2	8	14	FREEZER	604	n/a	n/a	0	0	0
3158.612	n/a	WORD	1579306	wordpools/wasnorm_wordpool_576.txt	LTP303	ltpFR2	8	14	OUTDOORS	987	n/a	n/a	0	0	0
3161.246	n/a	WORD	1580623	wordpools/wasnorm_wordpool_576.txt	LTP303	ltpFR2	8	14	CONVICT	371	n/a	n/a	0	0	0
3163.966	n/a	WORD	1581983	wordpools/wasnorm_wordpool_576.txt	LTP303	ltpFR2	8	14	INMATE	738	n/a	n/a	0	0	0
3166.776	n/a	WORD	1583388	wordpools/wasnorm_wordpool_576.txt	LTP303	ltpFR2	8	14	BACKBONE	66	n/a	n/a	0	0	0
3169.376	n/a	WORD	1584688	wordpools/wasnorm_wordpool_576.txt	LTP303	ltpFR2	8	14	FRAGRANCE	599	n/a	n/a	0	0	0
3172.18	n/a	WORD	1586090	wordpools/wasnorm_wordpool_576.txt	LTP303	ltpFR2	8	14	TABLE	1426	n/a	n/a	0	0	0
3173.792	n/a	START	1586896	n/a	LTP303	ltpFR2	8	n/a	n/a	n/a	21	n/a	n/a	n/a	n/a
3174.786	n/a	DISTRACTOR	1587393	n/a	LTP303	ltpFR2	8	14	n/a	n/a	n/a	n/a	0	0	0
3174.792	n/a	PROB	1587396	n/a	LTP303	ltpFR2	8	n/a	n/a	n/a	21	13	3	7	3
3176.926	n/a	PROB	1588463	n/a	LTP303	ltpFR2	8	n/a	n/a	n/a	21	20	6	9	5
3178.578	n/a	PROB	1589289	n/a	LTP303	ltpFR2	8	n/a	n/a	n/a	21	16	1	7	8
3179.944	n/a	PROB	1589972	n/a	LTP303	ltpFR2	8	n/a	n/a	n/a	21	24	7	9	8
3182.562	n/a	PROB	1591281	n/a	LTP303	ltpFR2	8	n/a	n/a	n/a	21	6	1	4	1
3183.58	n/a	PROB	1591790	n/a	LTP303	ltpFR2	8	n/a	n/a	n/a	21	9	2	5	2
3184.866	n/a	PROB	1592433	n/a	LTP303	ltpFR2	8	n/a	n/a	n/a	21	14	7	3	4
3185.866	n/a	PROB	1592933	n/a	LTP303	ltpFR2	8	n/a	n/a	n/a	21	16	9	5	2
3187.316	n/a	PROB	1593658	n/a	LTP303	ltpFR2	8	n/a	n/a	n/a	21	18	9	4	5
3188.802	n/a	PROB	1594401	n/a	LTP303	ltpFR2	8	n/a	n/a	n/a	21	20	9	6	5
3191.086	n/a	PROB	1595543	n/a	LTP303	ltpFR2	8	n/a	n/a	n/a	21	19	9	9	1
3192.654	n/a	PROB	1596327	n/a	LTP303	ltpFR2	8	n/a	n/a	n/a	21	18	7	9	2
3194.756	n/a	PROB	1597378	n/a	LTP303	ltpFR2	8	n/a	n/a	n/a	21	10	3	3	4
3196.4	n/a	STOP	1598200	n/a	LTP303	ltpFR2	8	n/a	n/a	n/a	21	n/a	n/a	n/a	n/a
3199.66	n/a	REC_START	1599830	n/a	LTP303	ltpFR2	8	14	n/a	n/a	n/a	n/a	0	0	0
3206.356	n/a	REC_WORD	1603178	wordpools/wasnorm_wordpool_576.txt	LTP303	ltpFR2	8	14	EUROPE	541	n/a	n/a	0	0	0
3207.608	n/a	REC_WORD	1603804	wordpools/wasnorm_wordpool_576.txt	LTP303	ltpFR2	8	14	CREVICE	405	n/a	n/a	0	0	0
3208.724	n/a	REC_WORD	1604362	wordpools/wasnorm_wordpool_576.txt	LTP303	ltpFR2	8	14	SIDEWALK	1303	n/a	n/a	0	0	0
3209.918	n/a	REC_WORD	1604959	wordpools/wasnorm_wordpool_576.txt	LTP303	ltpFR2	8	14	FOOT	590	n/a	n/a	0	0	0
3211.126	n/a	REC_WORD	1605563	wordpools/wasnorm_wordpool_576.txt	LTP303	ltpFR2	8	14	ELBOW	520	n/a	n/a	0	0	0
3212.322	n/a	REC_WORD	1606161	wordpools/wasnorm_wordpool_576.txt	LTP303	ltpFR2	8	14	CANYON	235	n/a	n/a	0	0	0
3213.444	n/a	REC_WORD	1606722	wordpools/wasnorm_wordpool_576.txt	LTP303	ltpFR2	8	14	PERFUME	1049	n/a	n/a	0	0	0
3214.684	n/a	REC_WORD	1607342	wordpools/wasnorm_wordpool_576.txt	LTP303	ltpFR2	8	14	HARP	689	n/a	n/a	0	0	0
3216.194	n/a	REC_WORD	1608097	wordpools/wasnorm_wordpool_576.txt	LTP303	ltpFR2	8	14	KNIFE	785	n/a	n/a	0	0	0
3217.266	n/a	REC_WORD	1608633	wordpools/wasnorm_wordpool_576.txt	LTP303	ltpFR2	8	14	SCALPEL	1243	n/a	n/a	0	0	0
3219.502	n/a	REC_WORD	1609751	wordpools/wasnorm_wordpool_576.txt	LTP303	ltpFR2	8	14	BROTHER	179	n/a	n/a	0	0	0
3221.35	n/a	REC_WORD	1610675	wordpools/wasnorm_wordpool_576.txt	LTP303	ltpFR2	8	14	CEILING	265	n/a	n/a	0	0	0
3223.306	n/a	REC_WORD	1611653	wordpools/wasnorm_wordpool_576.txt	LTP303	ltpFR2	8	14	LIGHTNING	820	n/a	n/a	0	0	0
3226.892	n/a	REC_WORD	1613446	wordpools/wasnorm_wordpool_576.txt	LTP303	ltpFR2	8	14	NOMAD	955	n/a	n/a	0	0	0
3228.182	n/a	REC_WORD	1614091	wordpools/wasnorm_wordpool_576.txt	LTP303	ltpFR2	8	14	PADDING	999	n/a	n/a	0	0	0
3229.342	n/a	REC_WORD	1614671	wordpools/wasnorm_wordpool_576.txt	LTP303	ltpFR2	8	14	FREEZER	604	n/a	n/a	0	0	0
3230.648	n/a	REC_WORD	1615324	wordpools/wasnorm_wordpool_576.txt	LTP303	ltpFR2	8	14	OUTDOORS	987	n/a	n/a	0	0	0
3232.018	n/a	REC_WORD	1616009	wordpools/wasnorm_wordpool_576.txt	LTP303	ltpFR2	8	14	CONVICT	371	n/a	n/a	0	0	0
3233.212	n/a	REC_WORD	1616606	wordpools/wasnorm_wordpool_576.txt	LTP303	ltpFR2	8	14	INMATE	738	n/a	n/a	0	0	0
3234.418	n/a	REC_WORD	1617209	wordpools/wasnorm_wordpool_576.txt	LTP303	ltpFR2	8	14	BACKBONE	66	n/a	n/a	0	0	0
3235.696	n/a	REC_WORD	1617848	wordpools/wasnorm_wordpool_576.txt	LTP303	ltpFR2	8	14	TABLE	1426	n/a	n/a	0	0	0
3290.098	n/a	DISTRACTOR	1645049	n/a	LTP303	ltpFR2	8	15	n/a	n/a	n/a	n/a	0	0	0
3290.1	n/a	START	1645050	n/a	LTP303	ltpFR2	8	n/a	n/a	n/a	22	n/a	n/a	n/a	n/a
3290.116	n/a	PROB	1645058	n/a	LTP303	ltpFR2	8	n/a	n/a	n/a	22	13	6	2	5
3292.316	n/a	PROB	1646158	n/a	LTP303	ltpFR2	8	n/a	n/a	n/a	22	16	6	9	1
3293.552	n/a	PROB	1646776	n/a	LTP303	ltpFR2	8	n/a	n/a	n/a	22	19	8	5	6
3295.92	n/a	PROB	1647960	n/a	LTP303	ltpFR2	8	n/a	n/a	n/a	22	16	2	5	9
3297.67	n/a	PROB	1648835	n/a	LTP303	ltpFR2	8	n/a	n/a	n/a	22	6	2	3	1
3298.756	n/a	PROB	1649378	n/a	LTP303	ltpFR2	8	n/a	n/a	n/a	22	8	3	3	2
3300.008	n/a	PROB	1650004	n/a	LTP303	ltpFR2	8	n/a	n/a	n/a	22	12	4	5	3
3301.892	n/a	PROB	1650946	n/a	LTP303	ltpFR2	8	n/a	n/a	n/a	22	9	2	4	3
3303.794	n/a	PROB	1651897	n/a	LTP303	ltpFR2	8	n/a	n/a	n/a	22	12	7	2	3
3305.51	n/a	PROB	1652755	n/a	LTP303	ltpFR2	8	n/a	n/a	n/a	22	24	7	8	9
3307.53	n/a	PROB	1653765	n/a	LTP303	ltpFR2	8	n/a	n/a	n/a	22	14	2	5	7
3308.88	n/a	PROB	1654440	n/a	LTP303	ltpFR2	8	n/a	n/a	n/a	22	14	3	3	8
3310.616	n/a	PROB	1655308	n/a	LTP303	ltpFR2	8	n/a	n/a	n/a	22	13	2	6	5
3314.1	n/a	STOP	1657050	n/a	LTP303	ltpFR2	8	n/a	n/a	n/a	22	n/a	n/a	n/a	n/a
3314.952	n/a	WORD	1657476	wordpools/wasnorm_wordpool_576.txt	LTP303	ltpFR2	8	15	SISTER	1312	n/a	n/a	0	0	0
3317.504	n/a	WORD	1658752	wordpools/wasnorm_wordpool_576.txt	LTP303	ltpFR2	8	15	COUSIN	392	n/a	n/a	0	0	0
3319.99	n/a	WORD	1659995	wordpools/wasnorm_wordpool_576.txt	LTP303	ltpFR2	8	15	STALLION	1369	n/a	n/a	0	0	0
3322.474	n/a	WORD	1661237	wordpools/wasnorm_wordpool_576.txt	LTP303	ltpFR2	8	15	ROBBER	1197	n/a	n/a	0	0	0
3325.01	n/a	WORD	1662505	wordpools/wasnorm_wordpool_576.txt	LTP303	ltpFR2	8	15	DORM	488	n/a	n/a	0	0	0
3327.678	n/a	WORD	1663839	wordpools/wasnorm_wordpool_576.txt	LTP303	ltpFR2	8	15	LOFT	840	n/a	n/a	0	0	0
3330.38	n/a	WORD	1665190	wordpools/wasnorm_wordpool_576.txt	LTP303	ltpFR2	8	15	PREACHER	1119	n/a	n/a	0	0	0
3333.066	n/a	WORD	1666533	wordpools/wasnorm_wordpool_576.txt	LTP303	ltpFR2	8	15	MASK	876	n/a	n/a	0	0	0
3335.602	n/a	WORD	1667801	wordpools/wasnorm_wordpool_576.txt	LTP303	ltpFR2	8	15	PALACE	1006	n/a	n/a	0	0	0
3338.054	n/a	WORD	1669027	wordpools/wasnorm_wordpool_576.txt	LTP303	ltpFR2	8	15	HAMPER	682	n/a	n/a	0	0	0
3340.538	n/a	WORD	1670269	wordpools/wasnorm_wordpool_576.txt	LTP303	ltpFR2	8	15	PLAYGROUND	1087	n/a	n/a	0	0	0
3343.34	n/a	WORD	1671670	wordpools/wasnorm_wordpool_576.txt	LTP303	ltpFR2	8	15	PRINCESS	1125	n/a	n/a	0	0	0
3345.83	n/a	WORD	1672915	wordpools/wasnorm_wordpool_576.txt	LTP303	ltpFR2	8	15	TROUT	1511	n/a	n/a	0	0	0
3348.328	n/a	WORD	1674164	wordpools/wasnorm_wordpool_576.txt	LTP303	ltpFR2	8	15	SALMON	1227	n/a	n/a	0	0	0
3350.832	n/a	WORD	1675416	wordpools/wasnorm_wordpool_576.txt	LTP303	ltpFR2	8	15	OYSTER	995	n/a	n/a	0	0	0
3353.348	n/a	WORD	1676674	wordpools/wasnorm_wordpool_576.txt	LTP303	ltpFR2	8	15	CLAM	315	n/a	n/a	0	0	0
3355.968	n/a	WORD	1677984	wordpools/wasnorm_wordpool_576.txt	LTP303	ltpFR2	8	15	BRIEFCASE	175	n/a	n/a	0	0	0
3358.418	n/a	WORD	1679209	wordpools/wasnorm_wordpool_576.txt	LTP303	ltpFR2	8	15	JURY	766	n/a	n/a	0	0	0
3361.188	n/a	WORD	1680594	wordpools/wasnorm_wordpool_576.txt	LTP303	ltpFR2	8	15	CLOTHES	327	n/a	n/a	0	0	0
3363.674	n/a	WORD	1681837	wordpools/wasnorm_wordpool_576.txt	LTP303	ltpFR2	8	15	OZONE	996	n/a	n/a	0	0	0
3366.164	n/a	WORD	1683082	wordpools/wasnorm_wordpool_576.txt	LTP303	ltpFR2	8	15	YACHT	1629	n/a	n/a	0	0	0
3368.78	n/a	WORD	1684390	wordpools/wasnorm_wordpool_576.txt	LTP303	ltpFR2	8	15	LUMBER	848	n/a	n/a	0	0	0
3371.412	n/a	WORD	1685706	wordpools/wasnorm_wordpool_576.txt	LTP303	ltpFR2	8	15	TABLET	1427	n/a	n/a	0	0	0
3373.832	n/a	WORD	1686916	wordpools/wasnorm_wordpool_576.txt	LTP303	ltpFR2	8	15	SWIMMER	1420	n/a	n/a	0	0	0
3375.438	n/a	START	1687719	n/a	LTP303	ltpFR2	8	n/a	n/a	n/a	23	n/a	n/a	n/a	n/a
3376.352	n/a	DISTRACTOR	1688176	n/a	LTP303	ltpFR2	8	15	n/a	n/a	n/a	n/a	0	0	0
3376.356	n/a	PROB	1688178	n/a	LTP303	ltpFR2	8	n/a	n/a	n/a	23	12	4	3	5
3380.602	n/a	PROB	1690301	n/a	LTP303	ltpFR2	8	n/a	n/a	n/a	23	16	9	5	2
3382.322	n/a	PROB	1691161	n/a	LTP303	ltpFR2	8	n/a	n/a	n/a	23	16	3	6	7
3384.092	n/a	PROB	1692046	n/a	LTP303	ltpFR2	8	n/a	n/a	n/a	23	20	9	6	5
3385.606	n/a	PROB	1692803	n/a	LTP303	ltpFR2	8	n/a	n/a	n/a	23	16	7	4	4
3387.826	n/a	PROB	1693913	n/a	LTP303	ltpFR2	8	n/a	n/a	n/a	23	18	6	3	9
3389.86	n/a	PROB	1694930	n/a	LTP303	ltpFR2	8	n/a	n/a	n/a	23	17	3	5	9
3391.812	n/a	PROB	1695906	n/a	LTP303	ltpFR2	8	n/a	n/a	n/a	23	20	6	9	5
3394.216	n/a	PROB	1697108	n/a	LTP303	ltpFR2	8	n/a	n/a	n/a	23	16	3	9	4
3395.932	n/a	PROB	1697966	n/a	LTP303	ltpFR2	8	n/a	n/a	n/a	23	15	9	3	3
3397.366	n/a	PROB	1698683	n/a	LTP303	ltpFR2	8	n/a	n/a	n/a	23	20	9	4	7
3399.382	n/a	STOP	1699691	n/a	LTP303	ltpFR2	8	n/a	n/a	n/a	23	n/a	n/a	n/a	n/a
3401.338	n/a	REC_START	1700669	n/a	LTP303	ltpFR2	8	15	n/a	n/a	n/a	n/a	0	0	0
3407.262	n/a	REC_WORD	1703631	wordpools/wasnorm_wordpool_576.txt	LTP303	ltpFR2	8	15	PREACHER	1119	n/a	n/a	0	0	0
3408.714	n/a	REC_WORD	1704357	wordpools/wasnorm_wordpool_576.txt	LTP303	ltpFR2	8	15	PRINCESS	1125	n/a	n/a	0	0	0
3410.858	n/a	REC_WORD	1705429	wordpools/wasnorm_wordpool_576.txt	LTP303	ltpFR2	8	15	PLAYGROUND	1087	n/a	n/a	0	0	0
3417.026	n/a	REC_WORD	1708513	wordpools/wasnorm_wordpool_576.txt	LTP303	ltpFR2	8	15	TROUT	1511	n/a	n/a	0	0	0
3417.864	n/a	REC_WORD	1708932	wordpools/wasnorm_wordpool_576.txt	LTP303	ltpFR2	8	15	SALMON	1227	n/a	n/a	0	0	0
3418.948	n/a	REC_WORD	1709474	wordpools/wasnorm_wordpool_576.txt	LTP303	ltpFR2	8	15	OYSTER	995	n/a	n/a	0	0	0
3419.982	n/a	REC_WORD	1709991	wordpools/wasnorm_wordpool_576.txt	LTP303	ltpFR2	8	15	CLAM	315	n/a	n/a	0	0	0
3421.804	n/a	REC_WORD	1710902	wordpools/wasnorm_wordpool_576.txt	LTP303	ltpFR2	8	15	BRIEFCASE	175	n/a	n/a	0	0	0
3422.804	n/a	REC_WORD	1711402	wordpools/wasnorm_wordpool_576.txt	LTP303	ltpFR2	8	15	CLOTHES	327	n/a	n/a	0	0	0
3423.706	n/a	REC_WORD	1711853	wordpools/wasnorm_wordpool_576.txt	LTP303	ltpFR2	8	15	JURY	766	n/a	n/a	0	0	0
3426.84	n/a	REC_WORD	1713420	wordpools/wasnorm_wordpool_576.txt	LTP303	ltpFR2	8	15	OZONE	996	n/a	n/a	0	0	0
3491.772	n/a	WORD	1745886	wordpools/wasnorm_wordpool_576.txt	LTP303	ltpFR2	8	16	HEADBAND	696	n/a	n/a	0	0	0
3494.374	n/a	WORD	1747187	wordpools/wasnorm_wordpool_576.txt	LTP303	ltpFR2	8	16	COIN	343	n/a	n/a	0	0	0
3497.144	n/a	WORD	1748572	wordpools/wasnorm_wordpool_576.txt	LTP303	ltpFR2	8	16	SPIDER	1351	n/a	n/a	0	0	0
3499.678	n/a	WORD	1749839	wordpools/wasnorm_wordpool_576.txt	LTP303	ltpFR2	8	16	FRUIT	610	n/a	n/a	0	0	0
3502.148	n/a	WORD	1751074	wordpools/wasnorm_wordpool_576.txt	LTP303	ltpFR2	8	16	FLOWER	584	n/a	n/a	0	0	0
3504.85	n/a	WORD	1752425	wordpools/wasnorm_wordpool_576.txt	LTP303	ltpFR2	8	16	JUDGE	761	n/a	n/a	0	0	0
3507.436	n/a	WORD	1753718	wordpools/wasnorm_wordpool_576.txt	LTP303	ltpFR2	8	16	CATTLE	261	n/a	n/a	0	0	0
3510.154	n/a	WORD	1755077	wordpools/wasnorm_wordpool_576.txt	LTP303	ltpFR2	8	16	PANTHER	1009	n/a	n/a	0	0	0
3512.958	n/a	WORD	1756479	wordpools/wasnorm_wordpool_576.txt	LTP303	ltpFR2	8	16	CHAUFFEUR	283	n/a	n/a	0	0	0
3515.442	n/a	WORD	1757721	wordpools/wasnorm_wordpool_576.txt	LTP303	ltpFR2	8	16	DOLPHIN	483	n/a	n/a	0	0	0
3518.078	n/a	WORD	1759039	wordpools/wasnorm_wordpool_576.txt	LTP303	ltpFR2	8	16	JUGGLER	763	n/a	n/a	0	0	0
3520.848	n/a	WORD	1760424	wordpools/wasnorm_wordpool_576.txt	LTP303	ltpFR2	8	16	BALLOON	75	n/a	n/a	0	0	0
3523.432	n/a	WORD	1761716	wordpools/wasnorm_wordpool_576.txt	LTP303	ltpFR2	8	16	WAGON	1578	n/a	n/a	0	0	0
3526.234	n/a	WORD	1763117	wordpools/wasnorm_wordpool_576.txt	LTP303	ltpFR2	8	16	PUDDING	1139	n/a	n/a	0	0	0
3528.954	n/a	WORD	1764477	wordpools/wasnorm_wordpool_576.txt	LTP303	ltpFR2	8	16	CUSTARD	429	n/a	n/a	0	0	0
3531.488	n/a	WORD	1765744	wordpools/wasnorm_wordpool_576.txt	LTP303	ltpFR2	8	16	SAUSAGE	1238	n/a	n/a	0	0	0
3534.192	n/a	WORD	1767096	wordpools/wasnorm_wordpool_576.txt	LTP303	ltpFR2	8	16	NOVEL	960	n/a	n/a	0	0	0
3537.012	n/a	WORD	1768506	wordpools/wasnorm_wordpool_576.txt	LTP303	ltpFR2	8	16	APPLE	33	n/a	n/a	0	0	0
3539.814	n/a	WORD	1769907	wordpools/wasnorm_wordpool_576.txt	LTP303	ltpFR2	8	16	WRIST	1626	n/a	n/a	0	0	0
3542.532	n/a	WORD	1771266	wordpools/wasnorm_wordpool_576.txt	LTP303	ltpFR2	8	16	YOLK	1633	n/a	n/a	0	0	0
3545.102	n/a	WORD	1772551	wordpools/wasnorm_wordpool_576.txt	LTP303	ltpFR2	8	16	BUG	187	n/a	n/a	0	0	0
3547.736	n/a	WORD	1773868	wordpools/wasnorm_wordpool_576.txt	LTP303	ltpFR2	8	16	BROOK	177	n/a	n/a	0	0	0
3550.222	n/a	WORD	1775111	wordpools/wasnorm_wordpool_576.txt	LTP303	ltpFR2	8	16	BASEMENT	94	n/a	n/a	0	0	0
3552.99	n/a	WORD	1776495	wordpools/wasnorm_wordpool_576.txt	LTP303	ltpFR2	8	16	CELLAR	267	n/a	n/a	0	0	0
3554.608	n/a	START	1777304	n/a	LTP303	ltpFR2	8	n/a	n/a	n/a	24	n/a	n/a	n/a	n/a
3555.65	n/a	DISTRACTOR	1777825	n/a	LTP303	ltpFR2	8	16	n/a	n/a	n/a	n/a	0	0	0
3555.66	n/a	PROB	1777830	n/a	LTP303	ltpFR2	8	n/a	n/a	n/a	24	12	7	1	4
3559.326	n/a	PROB	1779663	n/a	LTP303	ltpFR2	8	n/a	n/a	n/a	24	16	7	5	4
3560.898	n/a	PROB	1780449	n/a	LTP303	ltpFR2	8	n/a	n/a	n/a	24	12	2	7	3
3561.996	n/a	PROB	1780998	n/a	LTP303	ltpFR2	8	n/a	n/a	n/a	24	13	4	6	3
3563.214	n/a	PROB	1781607	n/a	LTP303	ltpFR2	8	n/a	n/a	n/a	24	14	2	6	6
3564.348	n/a	PROB	1782174	n/a	LTP303	ltpFR2	8	n/a	n/a	n/a	24	22	6	8	8
3566.654	n/a	PROB	1783327	n/a	LTP303	ltpFR2	8	n/a	n/a	n/a	24	16	5	3	8
3569.554	n/a	PROB	1784777	n/a	LTP303	ltpFR2	8	n/a	n/a	n/a	24	20	8	8	4
3572.04	n/a	PROB	1786020	n/a	LTP303	ltpFR2	8	n/a	n/a	n/a	24	25	9	9	7
3573.656	n/a	PROB	1786828	n/a	LTP303	ltpFR2	8	n/a	n/a	n/a	24	11	2	3	6
3575.708	n/a	PROB	1787854	n/a	LTP303	ltpFR2	8	n/a	n/a	n/a	24	15	4	5	6
3577.476	n/a	STOP	1788738	n/a	LTP303	ltpFR2	8	n/a	n/a	n/a	24	n/a	n/a	n/a	n/a
3580.546	n/a	REC_START	1790273	n/a	LTP303	ltpFR2	8	16	n/a	n/a	n/a	n/a	0	0	0
3597.976	n/a	REC_WORD	1798988	wordpools/wasnorm_wordpool_576.txt	LTP303	ltpFR2	8	16	HEADBAND	696	n/a	n/a	0	0	0
3599.206	n/a	REC_WORD	1799603	wordpools/wasnorm_wordpool_576.txt	LTP303	ltpFR2	8	16	COIN	343	n/a	n/a	0	0	0
3600.26	n/a	REC_WORD	1800130	wordpools/wasnorm_wordpool_576.txt	LTP303	ltpFR2	8	16	SPIDER	1351	n/a	n/a	0	0	0
3601.536	n/a	REC_WORD	1800768	wordpools/wasnorm_wordpool_576.txt	LTP303	ltpFR2	8	16	FRUIT	610	n/a	n/a	0	0	0
3602.676	n/a	REC_WORD	1801338	wordpools/wasnorm_wordpool_576.txt	LTP303	ltpFR2	8	16	FLOWER	584	n/a	n/a	0	0	0
3603.944	n/a	REC_WORD	1801972	wordpools/wasnorm_wordpool_576.txt	LTP303	ltpFR2	8	16	JUDGE	761	n/a	n/a	0	0	0
3605.09	n/a	REC_WORD	1802545	wordpools/wasnorm_wordpool_576.txt	LTP303	ltpFR2	8	16	CATTLE	261	n/a	n/a	0	0	0
3606.21	n/a	REC_WORD	1803105	wordpools/wasnorm_wordpool_576.txt	LTP303	ltpFR2	8	16	PANTHER	1009	n/a	n/a	0	0	0
3607.178	n/a	REC_WORD	1803589	wordpools/wasnorm_wordpool_576.txt	LTP303	ltpFR2	8	16	CHAUFFEUR	283	n/a	n/a	0	0	0
3609.332	n/a	REC_WORD	1804666	wordpools/wasnorm_wordpool_576.txt	LTP303	ltpFR2	8	16	DOLPHIN	483	n/a	n/a	0	0	0
3610.74	n/a	REC_WORD	1805370	wordpools/wasnorm_wordpool_576.txt	LTP303	ltpFR2	8	16	JUGGLER	763	n/a	n/a	0	0	0
3611.882	n/a	REC_WORD	1805941	wordpools/wasnorm_wordpool_576.txt	LTP303	ltpFR2	8	16	BALLOON	75	n/a	n/a	0	0	0
3657.074	n/a	REST_REWET	1828537	n/a	LTP303	ltpFR2	8	16	n/a	n/a	n/a	n/a	0	0	0
