onset	duration	trial_type	sample	stim_file	subject	experiment	session	trial	item_name	item_num	list	answer	test_x	test_y	test_z
254.812	n/a	SESS_START	127406	n/a	LTP138	ltpFR2	12	n/a	n/a	n/a	n/a	n/a	0	0	0
289.128	n/a	START	144564	n/a	LTP138	ltpFR2	12	n/a	n/a	n/a	-1	n/a	n/a	n/a	n/a
289.162	n/a	PROB	144581	n/a	LTP138	ltpFR2	12	n/a	n/a	n/a	-1	17	5	7	5
290.942	n/a	PROB	145471	n/a	LTP138	ltpFR2	12	n/a	n/a	n/a	-1	13	7	1	5
292.506	n/a	PROB	146253	n/a	LTP138	ltpFR2	12	n/a	n/a	n/a	-1	18	6	4	8
293.838	n/a	PROB	146919	n/a	LTP138	ltpFR2	12	n/a	n/a	n/a	-1	18	7	3	8
294.97	n/a	PROB	147485	n/a	LTP138	ltpFR2	12	n/a	n/a	n/a	-1	15	1	5	9
296.318	n/a	PROB	148159	n/a	LTP138	ltpFR2	12	n/a	n/a	n/a	-1	8	3	1	4
297.932	n/a	PROB	148966	n/a	LTP138	ltpFR2	12	n/a	n/a	n/a	-1	13	6	2	5
299.654	n/a	STOP	149827	n/a	LTP138	ltpFR2	12	n/a	n/a	n/a	-1	n/a	n/a	n/a	n/a
359.524	n/a	WORD	179762	wordpools/wasnorm_wordpool_576.txt	LTP138	ltpFR2	12	1	GARBAGE	622	n/a	n/a	0	0	0
362.188	n/a	WORD	181094	wordpools/wasnorm_wordpool_576.txt	LTP138	ltpFR2	12	1	COURSE	390	n/a	n/a	0	0	0
364.65	n/a	WORD	182325	wordpools/wasnorm_wordpool_576.txt	LTP138	ltpFR2	12	1	DAUGHTER	442	n/a	n/a	0	0	0
367.114	n/a	WORD	183557	wordpools/wasnorm_wordpool_576.txt	LTP138	ltpFR2	12	1	KEEPER	769	n/a	n/a	0	0	0
369.942	n/a	WORD	184971	wordpools/wasnorm_wordpool_576.txt	LTP138	ltpFR2	12	1	SLOPE	1328	n/a	n/a	0	0	0
372.654	n/a	WORD	186327	wordpools/wasnorm_wordpool_576.txt	LTP138	ltpFR2	12	1	LOFT	840	n/a	n/a	0	0	0
375.434	n/a	WORD	187717	wordpools/wasnorm_wordpool_576.txt	LTP138	ltpFR2	12	1	IGLOO	734	n/a	n/a	0	0	0
378.046	n/a	WORD	189023	wordpools/wasnorm_wordpool_576.txt	LTP138	ltpFR2	12	1	ICEBERG	731	n/a	n/a	0	0	0
380.51	n/a	WORD	190255	wordpools/wasnorm_wordpool_576.txt	LTP138	ltpFR2	12	1	RIVER	1194	n/a	n/a	0	0	0
383.138	n/a	WORD	191569	wordpools/wasnorm_wordpool_576.txt	LTP138	ltpFR2	12	1	BREAST	171	n/a	n/a	0	0	0
385.818	n/a	WORD	192909	wordpools/wasnorm_wordpool_576.txt	LTP138	ltpFR2	12	1	HOOK	715	n/a	n/a	0	0	0
388.38	n/a	WORD	194190	wordpools/wasnorm_wordpool_576.txt	LTP138	ltpFR2	12	1	GOBLIN	645	n/a	n/a	0	0	0
390.878	n/a	WORD	195439	wordpools/wasnorm_wordpool_576.txt	LTP138	ltpFR2	12	1	STICKER	1382	n/a	n/a	0	0	0
393.656	n/a	WORD	196828	wordpools/wasnorm_wordpool_576.txt	LTP138	ltpFR2	12	1	MATTRESS	879	n/a	n/a	0	0	0
396.236	n/a	WORD	198118	wordpools/wasnorm_wordpool_576.txt	LTP138	ltpFR2	12	1	HEART	697	n/a	n/a	0	0	0
399.048	n/a	WORD	199524	wordpools/wasnorm_wordpool_576.txt	LTP138	ltpFR2	12	1	GRILL	661	n/a	n/a	0	0	0
401.828	n/a	WORD	200914	wordpools/wasnorm_wordpool_576.txt	LTP138	ltpFR2	12	1	FRAGRANCE	599	n/a	n/a	0	0	0
404.49	n/a	WORD	202245	wordpools/wasnorm_wordpool_576.txt	LTP138	ltpFR2	12	1	AWARD	63	n/a	n/a	0	0	0
407.154	n/a	WORD	203577	wordpools/wasnorm_wordpool_576.txt	LTP138	ltpFR2	12	1	CEILING	265	n/a	n/a	0	0	0
409.65	n/a	WORD	204825	wordpools/wasnorm_wordpool_576.txt	LTP138	ltpFR2	12	1	SLIME	1327	n/a	n/a	0	0	0
412.162	n/a	WORD	206081	wordpools/wasnorm_wordpool_576.txt	LTP138	ltpFR2	12	1	LUNCH	849	n/a	n/a	0	0	0
414.608	n/a	WORD	207304	wordpools/wasnorm_wordpool_576.txt	LTP138	ltpFR2	12	1	TWISTER	1530	n/a	n/a	0	0	0
417.422	n/a	WORD	208711	wordpools/wasnorm_wordpool_576.txt	LTP138	ltpFR2	12	1	CRITIC	410	n/a	n/a	0	0	0
420.2	n/a	WORD	210100	wordpools/wasnorm_wordpool_576.txt	LTP138	ltpFR2	12	1	PENGUIN	1044	n/a	n/a	0	0	0
421.816	n/a	START	210908	n/a	LTP138	ltpFR2	12	n/a	n/a	n/a	1	n/a	n/a	n/a	n/a
422.758	n/a	DISTRACTOR	211379	n/a	LTP138	ltpFR2	12	1	n/a	n/a	n/a	n/a	0	0	0
422.764	n/a	PROB	211382	n/a	LTP138	ltpFR2	12	n/a	n/a	n/a	1	14	4	8	2
424.728	n/a	PROB	212364	n/a	LTP138	ltpFR2	12	n/a	n/a	n/a	1	15	1	6	8
425.892	n/a	PROB	212946	n/a	LTP138	ltpFR2	12	n/a	n/a	n/a	1	14	2	4	8
428.072	n/a	PROB	214036	n/a	LTP138	ltpFR2	12	n/a	n/a	n/a	1	15	5	9	1
429.22	n/a	PROB	214610	n/a	LTP138	ltpFR2	12	n/a	n/a	n/a	1	18	6	7	5
431.018	n/a	PROB	215509	n/a	LTP138	ltpFR2	12	n/a	n/a	n/a	1	18	3	6	9
433.082	n/a	PROB	216541	n/a	LTP138	ltpFR2	12	n/a	n/a	n/a	1	20	7	5	8
435.096	n/a	PROB	217548	n/a	LTP138	ltpFR2	12	n/a	n/a	n/a	1	10	5	3	2
436.776	n/a	PROB	218388	n/a	LTP138	ltpFR2	12	n/a	n/a	n/a	1	19	3	9	7
438.558	n/a	PROB	219279	n/a	LTP138	ltpFR2	12	n/a	n/a	n/a	1	19	7	7	5
440.054	n/a	PROB	220027	n/a	LTP138	ltpFR2	12	n/a	n/a	n/a	1	10	2	2	6
441.436	n/a	PROB	220718	n/a	LTP138	ltpFR2	12	n/a	n/a	n/a	1	12	1	2	9
444.316	n/a	PROB	222158	n/a	LTP138	ltpFR2	12	n/a	n/a	n/a	1	8	2	4	2
445.576	n/a	STOP	222788	n/a	LTP138	ltpFR2	12	n/a	n/a	n/a	1	n/a	n/a	n/a	n/a
447.728	n/a	REC_START	223864	n/a	LTP138	ltpFR2	12	1	n/a	n/a	n/a	n/a	0	0	0
448.836	n/a	REC_WORD	224418	wordpools/wasnorm_wordpool_576.txt	LTP138	ltpFR2	12	1	CRITIC	410	n/a	n/a	0	0	0
450.106	n/a	REC_WORD	225053	wordpools/wasnorm_wordpool_576.txt	LTP138	ltpFR2	12	1	DAUGHTER	442	n/a	n/a	0	0	0
451.808	n/a	REC_WORD	225904	wordpools/wasnorm_wordpool_576.txt	LTP138	ltpFR2	12	1	KEEPER	769	n/a	n/a	0	0	0
453.708	n/a	REC_WORD_VV	226854	wordpools/wasnorm_wordpool_576.txt	LTP138	ltpFR2	12	1	<>	-1	n/a	n/a	0	0	0
454.054	n/a	REC_WORD	227027	wordpools/wasnorm_wordpool_576.txt	LTP138	ltpFR2	12	1	SLOPE	1328	n/a	n/a	0	0	0
455.572	n/a	REC_WORD	227786	wordpools/wasnorm_wordpool_576.txt	LTP138	ltpFR2	12	1	LOFT	840	n/a	n/a	0	0	0
457.508	n/a	REC_WORD	228754	wordpools/wasnorm_wordpool_576.txt	LTP138	ltpFR2	12	1	HEART	697	n/a	n/a	0	0	0
459.014	n/a	REC_WORD	229507	wordpools/wasnorm_wordpool_576.txt	LTP138	ltpFR2	12	1	PENGUIN	1044	n/a	n/a	0	0	0
460.068	n/a	REC_WORD	230034	wordpools/wasnorm_wordpool_576.txt	LTP138	ltpFR2	12	1	IGLOO	734	n/a	n/a	0	0	0
461.278	n/a	REC_WORD	230639	wordpools/wasnorm_wordpool_576.txt	LTP138	ltpFR2	12	1	ICEBERG	731	n/a	n/a	0	0	0
464.516	n/a	REC_WORD	232258	wordpools/wasnorm_wordpool_576.txt	LTP138	ltpFR2	12	1	HOOK	715	n/a	n/a	0	0	0
465.82	n/a	REC_WORD	232910	wordpools/wasnorm_wordpool_576.txt	LTP138	ltpFR2	12	1	GOBLIN	645	n/a	n/a	0	0	0
467.52	n/a	REC_WORD	233760	wordpools/wasnorm_wordpool_576.txt	LTP138	ltpFR2	12	1	GARBAGE	622	n/a	n/a	0	0	0
468.944	n/a	REC_WORD	234472	wordpools/wasnorm_wordpool_576.txt	LTP138	ltpFR2	12	1	COURSE	390	n/a	n/a	0	0	0
492.352	n/a	REC_WORD	246176	wordpools/wasnorm_wordpool_576.txt	LTP138	ltpFR2	12	1	RIVER	1194	n/a	n/a	0	0	0
504.542	n/a	REC_WORD	252271	wordpools/wasnorm_wordpool_576.txt	LTP138	ltpFR2	12	1	MATTRESS	879	n/a	n/a	0	0	0
509.208	n/a	REC_WORD	254604	wordpools/wasnorm_wordpool_576.txt	LTP138	ltpFR2	12	1	STICKER	1382	n/a	n/a	0	0	0
517.748	n/a	REC_WORD	258874	wordpools/wasnorm_wordpool_576.txt	LTP138	ltpFR2	12	1	CEILING	265	n/a	n/a	0	0	0
538.376	n/a	WORD	269188	wordpools/wasnorm_wordpool_576.txt	LTP138	ltpFR2	12	2	GUITAR	670	n/a	n/a	0	0	0
541.072	n/a	WORD	270536	wordpools/wasnorm_wordpool_576.txt	LTP138	ltpFR2	12	2	SPARROW	1347	n/a	n/a	0	0	0
543.536	n/a	WORD	271768	wordpools/wasnorm_wordpool_576.txt	LTP138	ltpFR2	12	2	FEMALE	559	n/a	n/a	0	0	0
546.314	n/a	WORD	273157	wordpools/wasnorm_wordpool_576.txt	LTP138	ltpFR2	12	2	BUREAU	199	n/a	n/a	0	0	0
548.978	n/a	WORD	274489	wordpools/wasnorm_wordpool_576.txt	LTP138	ltpFR2	12	2	TERMITE	1451	n/a	n/a	0	0	0
551.574	n/a	WORD	275787	wordpools/wasnorm_wordpool_576.txt	LTP138	ltpFR2	12	2	BLACKBOARD	133	n/a	n/a	0	0	0
554.236	n/a	WORD	277118	wordpools/wasnorm_wordpool_576.txt	LTP138	ltpFR2	12	2	SIBLING	1301	n/a	n/a	0	0	0
556.732	n/a	WORD	278366	wordpools/wasnorm_wordpool_576.txt	LTP138	ltpFR2	12	2	DRESSER	496	n/a	n/a	0	0	0
559.312	n/a	WORD	279656	wordpools/wasnorm_wordpool_576.txt	LTP138	ltpFR2	12	2	HEDGE	699	n/a	n/a	0	0	0
561.842	n/a	WORD	280921	wordpools/wasnorm_wordpool_576.txt	LTP138	ltpFR2	12	2	WASP	1593	n/a	n/a	0	0	0
564.388	n/a	WORD	282194	wordpools/wasnorm_wordpool_576.txt	LTP138	ltpFR2	12	2	POSSUM	1112	n/a	n/a	0	0	0
567.018	n/a	WORD	283509	wordpools/wasnorm_wordpool_576.txt	LTP138	ltpFR2	12	2	JELLY	755	n/a	n/a	0	0	0
569.73	n/a	WORD	284865	wordpools/wasnorm_wordpool_576.txt	LTP138	ltpFR2	12	2	GARLIC	624	n/a	n/a	0	0	0
572.376	n/a	WORD	286188	wordpools/wasnorm_wordpool_576.txt	LTP138	ltpFR2	12	2	AUTHOR	61	n/a	n/a	0	0	0
574.806	n/a	WORD	287403	wordpools/wasnorm_wordpool_576.txt	LTP138	ltpFR2	12	2	POET	1095	n/a	n/a	0	0	0
577.602	n/a	WORD	288801	wordpools/wasnorm_wordpool_576.txt	LTP138	ltpFR2	12	2	SERVER	1272	n/a	n/a	0	0	0
580.198	n/a	WORD	290099	wordpools/wasnorm_wordpool_576.txt	LTP138	ltpFR2	12	2	DENIM	446	n/a	n/a	0	0	0
582.828	n/a	WORD	291414	wordpools/wasnorm_wordpool_576.txt	LTP138	ltpFR2	12	2	WARDROBE	1587	n/a	n/a	0	0	0
585.324	n/a	WORD	292662	wordpools/wasnorm_wordpool_576.txt	LTP138	ltpFR2	12	2	JUDGE	761	n/a	n/a	0	0	0
588.136	n/a	WORD	294068	wordpools/wasnorm_wordpool_576.txt	LTP138	ltpFR2	12	2	PERFUME	1049	n/a	n/a	0	0	0
590.682	n/a	WORD	295341	wordpools/wasnorm_wordpool_576.txt	LTP138	ltpFR2	12	2	SERVANT	1271	n/a	n/a	0	0	0
593.194	n/a	WORD	296597	wordpools/wasnorm_wordpool_576.txt	LTP138	ltpFR2	12	2	CASKET	255	n/a	n/a	0	0	0
596.006	n/a	WORD	298003	wordpools/wasnorm_wordpool_576.txt	LTP138	ltpFR2	12	2	GRAVE	658	n/a	n/a	0	0	0
598.52	n/a	WORD	299260	wordpools/wasnorm_wordpool_576.txt	LTP138	ltpFR2	12	2	PADDING	999	n/a	n/a	0	0	0
600.134	n/a	START	300067	n/a	LTP138	ltpFR2	12	n/a	n/a	n/a	2	n/a	n/a	n/a	n/a
600.97	n/a	DISTRACTOR	300485	n/a	LTP138	ltpFR2	12	2	n/a	n/a	n/a	n/a	0	0	0
600.982	n/a	PROB	300491	n/a	LTP138	ltpFR2	12	n/a	n/a	n/a	2	17	6	4	7
602.78	n/a	PROB	301390	n/a	LTP138	ltpFR2	12	n/a	n/a	n/a	2	11	2	6	3
604.76	n/a	PROB	302380	n/a	LTP138	ltpFR2	12	n/a	n/a	n/a	2	14	2	6	6
606.158	n/a	PROB	303079	n/a	LTP138	ltpFR2	12	n/a	n/a	n/a	2	16	1	9	6
607.324	n/a	PROB	303662	n/a	LTP138	ltpFR2	12	n/a	n/a	n/a	2	15	5	9	1
608.422	n/a	PROB	304211	n/a	LTP138	ltpFR2	12	n/a	n/a	n/a	2	20	5	8	7
609.886	n/a	PROB	304943	n/a	LTP138	ltpFR2	12	n/a	n/a	n/a	2	13	8	4	1
611.418	n/a	PROB	305709	n/a	LTP138	ltpFR2	12	n/a	n/a	n/a	2	11	1	6	4
612.882	n/a	PROB	306441	n/a	LTP138	ltpFR2	12	n/a	n/a	n/a	2	7	1	2	4
614.314	n/a	PROB	307157	n/a	LTP138	ltpFR2	12	n/a	n/a	n/a	2	14	1	5	8
615.894	n/a	PROB	307947	n/a	LTP138	ltpFR2	12	n/a	n/a	n/a	2	22	6	7	9
619.806	n/a	PROB	309903	n/a	LTP138	ltpFR2	12	n/a	n/a	n/a	2	14	1	7	6
621.636	n/a	PROB	310818	n/a	LTP138	ltpFR2	12	n/a	n/a	n/a	2	20	9	3	8
623.73	n/a	STOP	311865	n/a	LTP138	ltpFR2	12	n/a	n/a	n/a	2	n/a	n/a	n/a	n/a
625.914	n/a	REC_START	312957	n/a	LTP138	ltpFR2	12	2	n/a	n/a	n/a	n/a	0	0	0
626.476	n/a	REC_WORD	313238	wordpools/wasnorm_wordpool_576.txt	LTP138	ltpFR2	12	2	GRAVE	658	n/a	n/a	0	0	0
627.174	n/a	REC_WORD	313587	wordpools/wasnorm_wordpool_576.txt	LTP138	ltpFR2	12	2	CASKET	255	n/a	n/a	0	0	0
628.294	n/a	REC_WORD	314147	wordpools/wasnorm_wordpool_576.txt	LTP138	ltpFR2	12	2	PADDING	999	n/a	n/a	0	0	0
629.574	n/a	REC_WORD_VV	314787	wordpools/wasnorm_wordpool_576.txt	LTP138	ltpFR2	12	2	<>	-1	n/a	n/a	0	0	0
630.544	n/a	REC_WORD	315272	wordpools/wasnorm_wordpool_576.txt	LTP138	ltpFR2	12	2	PERFUME	1049	n/a	n/a	0	0	0
634.298	n/a	REC_WORD	317149	wordpools/wasnorm_wordpool_576.txt	LTP138	ltpFR2	12	2	AUTHOR	61	n/a	n/a	0	0	0
635.588	n/a	REC_WORD	317794	wordpools/wasnorm_wordpool_576.txt	LTP138	ltpFR2	12	2	POET	1095	n/a	n/a	0	0	0
639.586	n/a	REC_WORD	319793	wordpools/wasnorm_wordpool_576.txt	LTP138	ltpFR2	12	2	HEDGE	699	n/a	n/a	0	0	0
642.38	n/a	REC_WORD	321190	wordpools/wasnorm_wordpool_576.txt	LTP138	ltpFR2	12	2	TERMITE	1451	n/a	n/a	0	0	0
643.238	n/a	REC_WORD	321619	wordpools/wasnorm_wordpool_576.txt	LTP138	ltpFR2	12	2	SPARROW	1347	n/a	n/a	0	0	0
644.276	n/a	REC_WORD	322138	wordpools/wasnorm_wordpool_576.txt	LTP138	ltpFR2	12	2	POSSUM	1112	n/a	n/a	0	0	0
646.918	n/a	REC_WORD	323459	wordpools/wasnorm_wordpool_576.txt	LTP138	ltpFR2	12	2	GUITAR	670	n/a	n/a	0	0	0
649.21	n/a	REC_WORD	324605	wordpools/wasnorm_wordpool_576.txt	LTP138	ltpFR2	12	2	BLACKBOARD	133	n/a	n/a	0	0	0
656.242	n/a	REC_WORD	328121	wordpools/wasnorm_wordpool_576.txt	LTP138	ltpFR2	12	2	DRESSER	496	n/a	n/a	0	0	0
657.26	n/a	REC_WORD	328630	wordpools/wasnorm_wordpool_576.txt	LTP138	ltpFR2	12	2	BUREAU	199	n/a	n/a	0	0	0
659.752	n/a	REC_WORD	329876	wordpools/wasnorm_wordpool_576.txt	LTP138	ltpFR2	12	2	FEMALE	559	n/a	n/a	0	0	0
662.69	n/a	REC_WORD	331345	wordpools/wasnorm_wordpool_576.txt	LTP138	ltpFR2	12	2	SIBLING	1301	n/a	n/a	0	0	0
672.076	n/a	REC_WORD	336038	wordpools/wasnorm_wordpool_576.txt	LTP138	ltpFR2	12	2	SERVER	1272	n/a	n/a	0	0	0
673.304	n/a	REC_WORD	336652	wordpools/wasnorm_wordpool_576.txt	LTP138	ltpFR2	12	2	SERVANT	1271	n/a	n/a	0	0	0
691.448	n/a	REC_WORD	345724	wordpools/wasnorm_wordpool_576.txt	LTP138	ltpFR2	12	2	CYCLONE	431	n/a	n/a	0	0	0
727.946	n/a	DISTRACTOR	363973	n/a	LTP138	ltpFR2	12	3	n/a	n/a	n/a	n/a	0	0	0
727.946	n/a	START	363973	n/a	LTP138	ltpFR2	12	n/a	n/a	n/a	3	n/a	n/a	n/a	n/a
727.978	n/a	PROB	363989	n/a	LTP138	ltpFR2	12	n/a	n/a	n/a	3	19	5	6	8
730.458	n/a	PROB	365229	n/a	LTP138	ltpFR2	12	n/a	n/a	n/a	3	14	2	4	8
731.74	n/a	PROB	365870	n/a	LTP138	ltpFR2	12	n/a	n/a	n/a	3	12	9	2	1
734.002	n/a	PROB	367001	n/a	LTP138	ltpFR2	12	n/a	n/a	n/a	3	8	1	2	5
735.202	n/a	PROB	367601	n/a	LTP138	ltpFR2	12	n/a	n/a	n/a	3	14	9	1	4
736.268	n/a	PROB	368134	n/a	LTP138	ltpFR2	12	n/a	n/a	n/a	3	20	5	6	9
738.114	n/a	PROB	369057	n/a	LTP138	ltpFR2	12	n/a	n/a	n/a	3	16	4	6	6
739.644	n/a	PROB	369822	n/a	LTP138	ltpFR2	12	n/a	n/a	n/a	3	13	4	4	5
741.308	n/a	PROB	370654	n/a	LTP138	ltpFR2	12	n/a	n/a	n/a	3	12	7	2	3
743.04	n/a	PROB	371520	n/a	LTP138	ltpFR2	12	n/a	n/a	n/a	3	14	5	6	3
744.788	n/a	PROB	372394	n/a	LTP138	ltpFR2	12	n/a	n/a	n/a	3	21	7	9	5
746.884	n/a	PROB	373442	n/a	LTP138	ltpFR2	12	n/a	n/a	n/a	3	14	8	3	3
748.182	n/a	PROB	374091	n/a	LTP138	ltpFR2	12	n/a	n/a	n/a	3	6	1	3	2
749.912	n/a	PROB	374956	n/a	LTP138	ltpFR2	12	n/a	n/a	n/a	3	19	2	9	8
751.636	n/a	STOP	375818	n/a	LTP138	ltpFR2	12	n/a	n/a	n/a	3	n/a	n/a	n/a	n/a
752.992	n/a	WORD	376496	wordpools/wasnorm_wordpool_576.txt	LTP138	ltpFR2	12	3	CRUTCH	417	n/a	n/a	0	0	0
755.554	n/a	WORD	377777	wordpools/wasnorm_wordpool_576.txt	LTP138	ltpFR2	12	3	ANKLE	24	n/a	n/a	0	0	0
758.018	n/a	WORD	379009	wordpools/wasnorm_wordpool_576.txt	LTP138	ltpFR2	12	3	ATLAS	53	n/a	n/a	0	0	0
760.764	n/a	WORD	380382	wordpools/wasnorm_wordpool_576.txt	LTP138	ltpFR2	12	3	MARROW	872	n/a	n/a	0	0	0
763.326	n/a	WORD	381663	wordpools/wasnorm_wordpool_576.txt	LTP138	ltpFR2	12	3	SOFTBALL	1343	n/a	n/a	0	0	0
766.106	n/a	WORD	383053	wordpools/wasnorm_wordpool_576.txt	LTP138	ltpFR2	12	3	POPCORN	1104	n/a	n/a	0	0	0
768.718	n/a	WORD	384359	wordpools/wasnorm_wordpool_576.txt	LTP138	ltpFR2	12	3	COUNTY	389	n/a	n/a	0	0	0
771.514	n/a	WORD	385757	wordpools/wasnorm_wordpool_576.txt	LTP138	ltpFR2	12	3	EYELASH	546	n/a	n/a	0	0	0
774.244	n/a	WORD	387122	wordpools/wasnorm_wordpool_576.txt	LTP138	ltpFR2	12	3	ORANGE	980	n/a	n/a	0	0	0
776.756	n/a	WORD	388378	wordpools/wasnorm_wordpool_576.txt	LTP138	ltpFR2	12	3	SUNRISE	1407	n/a	n/a	0	0	0
779.254	n/a	WORD	389627	wordpools/wasnorm_wordpool_576.txt	LTP138	ltpFR2	12	3	VELVET	1555	n/a	n/a	0	0	0
781.9	n/a	WORD	390950	wordpools/wasnorm_wordpool_576.txt	LTP138	ltpFR2	12	3	FLESH	579	n/a	n/a	0	0	0
784.578	n/a	WORD	392289	wordpools/wasnorm_wordpool_576.txt	LTP138	ltpFR2	12	3	LIPSTICK	829	n/a	n/a	0	0	0
787.374	n/a	WORD	393687	wordpools/wasnorm_wordpool_576.txt	LTP138	ltpFR2	12	3	MACHINE	852	n/a	n/a	0	0	0
790.188	n/a	WORD	395094	wordpools/wasnorm_wordpool_576.txt	LTP138	ltpFR2	12	3	TAXI	1438	n/a	n/a	0	0	0
792.666	n/a	WORD	396333	wordpools/wasnorm_wordpool_576.txt	LTP138	ltpFR2	12	3	LAMP	798	n/a	n/a	0	0	0
795.43	n/a	WORD	397715	wordpools/wasnorm_wordpool_576.txt	LTP138	ltpFR2	12	3	LEOPARD	812	n/a	n/a	0	0	0
798.192	n/a	WORD	399096	wordpools/wasnorm_wordpool_576.txt	LTP138	ltpFR2	12	3	ROBOT	1200	n/a	n/a	0	0	0
800.972	n/a	WORD	400486	wordpools/wasnorm_wordpool_576.txt	LTP138	ltpFR2	12	3	CAMEL	223	n/a	n/a	0	0	0
803.568	n/a	WORD	401784	wordpools/wasnorm_wordpool_576.txt	LTP138	ltpFR2	12	3	CIGAR	308	n/a	n/a	0	0	0
806.062	n/a	WORD	403031	wordpools/wasnorm_wordpool_576.txt	LTP138	ltpFR2	12	3	NOTEBOOK	959	n/a	n/a	0	0	0
808.826	n/a	WORD	404413	wordpools/wasnorm_wordpool_576.txt	LTP138	ltpFR2	12	3	TUTU	1524	n/a	n/a	0	0	0
811.522	n/a	WORD	405761	wordpools/wasnorm_wordpool_576.txt	LTP138	ltpFR2	12	3	LEADER	807	n/a	n/a	0	0	0
814.334	n/a	WORD	407167	wordpools/wasnorm_wordpool_576.txt	LTP138	ltpFR2	12	3	KNIFE	785	n/a	n/a	0	0	0
815.948	n/a	START	407974	n/a	LTP138	ltpFR2	12	n/a	n/a	n/a	4	n/a	n/a	n/a	n/a
817.08	n/a	DISTRACTOR	408540	n/a	LTP138	ltpFR2	12	3	n/a	n/a	n/a	n/a	0	0	0
817.096	n/a	PROB	408548	n/a	LTP138	ltpFR2	12	n/a	n/a	n/a	4	13	3	2	8
818.91	n/a	PROB	409455	n/a	LTP138	ltpFR2	12	n/a	n/a	n/a	4	9	1	7	1
820.26	n/a	PROB	410130	n/a	LTP138	ltpFR2	12	n/a	n/a	n/a	4	17	5	7	5
821.524	n/a	PROB	410762	n/a	LTP138	ltpFR2	12	n/a	n/a	n/a	4	12	4	6	2
822.672	n/a	PROB	411336	n/a	LTP138	ltpFR2	12	n/a	n/a	n/a	4	20	8	6	6
825.018	n/a	PROB	412509	n/a	LTP138	ltpFR2	12	n/a	n/a	n/a	4	8	2	4	2
826.268	n/a	PROB	413134	n/a	LTP138	ltpFR2	12	n/a	n/a	n/a	4	15	2	9	4
828.546	n/a	PROB	414273	n/a	LTP138	ltpFR2	12	n/a	n/a	n/a	4	16	1	7	8
829.812	n/a	PROB	414906	n/a	LTP138	ltpFR2	12	n/a	n/a	n/a	4	13	1	5	7
831.292	n/a	PROB	415646	n/a	LTP138	ltpFR2	12	n/a	n/a	n/a	4	9	2	3	4
833.106	n/a	PROB	416553	n/a	LTP138	ltpFR2	12	n/a	n/a	n/a	4	15	8	4	3
834.42	n/a	PROB	417210	n/a	LTP138	ltpFR2	12	n/a	n/a	n/a	4	10	2	3	5
835.736	n/a	PROB	417868	n/a	LTP138	ltpFR2	12	n/a	n/a	n/a	4	20	5	6	9
837.334	n/a	PROB	418667	n/a	LTP138	ltpFR2	12	n/a	n/a	n/a	4	19	5	9	5
838.492	n/a	STOP	419246	n/a	LTP138	ltpFR2	12	n/a	n/a	n/a	4	n/a	n/a	n/a	n/a
841.728	n/a	REC_START	420864	n/a	LTP138	ltpFR2	12	3	n/a	n/a	n/a	n/a	0	0	0
843.138	n/a	REC_WORD	421569	wordpools/wasnorm_wordpool_576.txt	LTP138	ltpFR2	12	3	CRUTCH	417	n/a	n/a	0	0	0
844.318	n/a	REC_WORD	422159	wordpools/wasnorm_wordpool_576.txt	LTP138	ltpFR2	12	3	ANKLE	24	n/a	n/a	0	0	0
845.09	n/a	REC_WORD	422545	wordpools/wasnorm_wordpool_576.txt	LTP138	ltpFR2	12	3	MARROW	872	n/a	n/a	0	0	0
846.034	n/a	REC_WORD	423017	wordpools/wasnorm_wordpool_576.txt	LTP138	ltpFR2	12	3	FLESH	579	n/a	n/a	0	0	0
848.684	n/a	REC_WORD	424342	wordpools/wasnorm_wordpool_576.txt	LTP138	ltpFR2	12	3	ORANGE	980	n/a	n/a	0	0	0
850.124	n/a	REC_WORD	425062	wordpools/wasnorm_wordpool_576.txt	LTP138	ltpFR2	12	3	POPCORN	1104	n/a	n/a	0	0	0
851.86	n/a	REC_WORD	425930	wordpools/wasnorm_wordpool_576.txt	LTP138	ltpFR2	12	3	ATLAS	53	n/a	n/a	0	0	0
853.066	n/a	REC_WORD	426533	wordpools/wasnorm_wordpool_576.txt	LTP138	ltpFR2	12	3	NOTEBOOK	959	n/a	n/a	0	0	0
858.972	n/a	REC_WORD	429486	wordpools/wasnorm_wordpool_576.txt	LTP138	ltpFR2	12	3	TAXI	1438	n/a	n/a	0	0	0
860.182	n/a	REC_WORD	430091	wordpools/wasnorm_wordpool_576.txt	LTP138	ltpFR2	12	3	CIGAR	308	n/a	n/a	0	0	0
871.484	n/a	REC_WORD	435742	wordpools/wasnorm_wordpool_576.txt	LTP138	ltpFR2	12	3	LEADER	807	n/a	n/a	0	0	0
872.62	n/a	REC_WORD	436310	wordpools/wasnorm_wordpool_576.txt	LTP138	ltpFR2	12	3	TUTU	1524	n/a	n/a	0	0	0
891.514	n/a	REC_WORD	445757	wordpools/wasnorm_wordpool_576.txt	LTP138	ltpFR2	12	3	VELVET	1555	n/a	n/a	0	0	0
932.826	n/a	DISTRACTOR	466413	n/a	LTP138	ltpFR2	12	4	n/a	n/a	n/a	n/a	0	0	0
932.826	n/a	START	466413	n/a	LTP138	ltpFR2	12	n/a	n/a	n/a	5	n/a	n/a	n/a	n/a
932.858	n/a	PROB	466429	n/a	LTP138	ltpFR2	12	n/a	n/a	n/a	5	14	7	5	2
934.872	n/a	PROB	467436	n/a	LTP138	ltpFR2	12	n/a	n/a	n/a	5	21	7	7	7
936.186	n/a	PROB	468093	n/a	LTP138	ltpFR2	12	n/a	n/a	n/a	5	8	1	3	4
937.402	n/a	PROB	468701	n/a	LTP138	ltpFR2	12	n/a	n/a	n/a	5	24	7	9	8
938.834	n/a	PROB	469417	n/a	LTP138	ltpFR2	12	n/a	n/a	n/a	5	16	5	6	5
940.032	n/a	PROB	470016	n/a	LTP138	ltpFR2	12	n/a	n/a	n/a	5	18	7	2	9
941.612	n/a	PROB	470806	n/a	LTP138	ltpFR2	12	n/a	n/a	n/a	5	15	6	1	8
942.71	n/a	PROB	471355	n/a	LTP138	ltpFR2	12	n/a	n/a	n/a	5	14	1	8	5
944.292	n/a	PROB	472146	n/a	LTP138	ltpFR2	12	n/a	n/a	n/a	5	10	1	4	5
945.756	n/a	PROB	472878	n/a	LTP138	ltpFR2	12	n/a	n/a	n/a	5	7	1	1	5
947.138	n/a	PROB	473569	n/a	LTP138	ltpFR2	12	n/a	n/a	n/a	5	23	9	6	8
950.366	n/a	PROB	475183	n/a	LTP138	ltpFR2	12	n/a	n/a	n/a	5	12	2	9	1
951.514	n/a	PROB	475757	n/a	LTP138	ltpFR2	12	n/a	n/a	n/a	5	14	6	6	2
952.696	n/a	PROB	476348	n/a	LTP138	ltpFR2	12	n/a	n/a	n/a	5	10	4	1	5
953.828	n/a	PROB	476914	n/a	LTP138	ltpFR2	12	n/a	n/a	n/a	5	19	9	1	9
956.826	n/a	STOP	478413	n/a	LTP138	ltpFR2	12	n/a	n/a	n/a	5	n/a	n/a	n/a	n/a
957.788	n/a	WORD	478894	wordpools/wasnorm_wordpool_576.txt	LTP138	ltpFR2	12	4	FOX	598	n/a	n/a	0	0	0
960.484	n/a	WORD	480242	wordpools/wasnorm_wordpool_576.txt	LTP138	ltpFR2	12	4	SCARF	1246	n/a	n/a	0	0	0
962.93	n/a	WORD	481465	wordpools/wasnorm_wordpool_576.txt	LTP138	ltpFR2	12	4	ARM	38	n/a	n/a	0	0	0
965.378	n/a	WORD	482689	wordpools/wasnorm_wordpool_576.txt	LTP138	ltpFR2	12	4	PLAZA	1088	n/a	n/a	0	0	0
967.974	n/a	WORD	483987	wordpools/wasnorm_wordpool_576.txt	LTP138	ltpFR2	12	4	BLOUSE	139	n/a	n/a	0	0	0
970.72	n/a	WORD	485360	wordpools/wasnorm_wordpool_576.txt	LTP138	ltpFR2	12	4	JEANS	752	n/a	n/a	0	0	0
973.382	n/a	WORD	486691	wordpools/wasnorm_wordpool_576.txt	LTP138	ltpFR2	12	4	SKIRT	1319	n/a	n/a	0	0	0
975.828	n/a	WORD	487914	wordpools/wasnorm_wordpool_576.txt	LTP138	ltpFR2	12	4	SHORTCAKE	1292	n/a	n/a	0	0	0
978.358	n/a	WORD	489179	wordpools/wasnorm_wordpool_576.txt	LTP138	ltpFR2	12	4	PISTOL	1075	n/a	n/a	0	0	0
980.904	n/a	WORD	490452	wordpools/wasnorm_wordpool_576.txt	LTP138	ltpFR2	12	4	STAPLE	1371	n/a	n/a	0	0	0
983.668	n/a	WORD	491834	wordpools/wasnorm_wordpool_576.txt	LTP138	ltpFR2	12	4	MAILBOX	857	n/a	n/a	0	0	0
986.462	n/a	WORD	493231	wordpools/wasnorm_wordpool_576.txt	LTP138	ltpFR2	12	4	DRESS	495	n/a	n/a	0	0	0
989.076	n/a	WORD	494538	wordpools/wasnorm_wordpool_576.txt	LTP138	ltpFR2	12	4	ROBBER	1197	n/a	n/a	0	0	0
991.756	n/a	WORD	495878	wordpools/wasnorm_wordpool_576.txt	LTP138	ltpFR2	12	4	SPOON	1357	n/a	n/a	0	0	0
994.284	n/a	WORD	497142	wordpools/wasnorm_wordpool_576.txt	LTP138	ltpFR2	12	4	SWAMP	1416	n/a	n/a	0	0	0
996.914	n/a	WORD	498457	wordpools/wasnorm_wordpool_576.txt	LTP138	ltpFR2	12	4	MARINE	869	n/a	n/a	0	0	0
999.394	n/a	WORD	499697	wordpools/wasnorm_wordpool_576.txt	LTP138	ltpFR2	12	4	CHAMPAGNE	278	n/a	n/a	0	0	0
1002.09	n/a	WORD	501045	wordpools/wasnorm_wordpool_576.txt	LTP138	ltpFR2	12	4	ASIA	46	n/a	n/a	0	0	0
1004.752	n/a	WORD	502376	wordpools/wasnorm_wordpool_576.txt	LTP138	ltpFR2	12	4	MESSAGE	888	n/a	n/a	0	0	0
1007.332	n/a	WORD	503666	wordpools/wasnorm_wordpool_576.txt	LTP138	ltpFR2	12	4	FOREHEAD	592	n/a	n/a	0	0	0
1009.796	n/a	WORD	504898	wordpools/wasnorm_wordpool_576.txt	LTP138	ltpFR2	12	4	BEAST	108	n/a	n/a	0	0	0
1012.458	n/a	WORD	506229	wordpools/wasnorm_wordpool_576.txt	LTP138	ltpFR2	12	4	BISON	131	n/a	n/a	0	0	0
1014.938	n/a	WORD	507469	wordpools/wasnorm_wordpool_576.txt	LTP138	ltpFR2	12	4	BANQUET	86	n/a	n/a	0	0	0
1017.668	n/a	WORD	508834	wordpools/wasnorm_wordpool_576.txt	LTP138	ltpFR2	12	4	SUNSET	1408	n/a	n/a	0	0	0
1019.28	n/a	START	509640	n/a	LTP138	ltpFR2	12	n/a	n/a	n/a	6	n/a	n/a	n/a	n/a
1020.106	n/a	DISTRACTOR	510053	n/a	LTP138	ltpFR2	12	4	n/a	n/a	n/a	n/a	0	0	0
1020.112	n/a	PROB	510056	n/a	LTP138	ltpFR2	12	n/a	n/a	n/a	6	24	8	9	7
1021.676	n/a	PROB	510838	n/a	LTP138	ltpFR2	12	n/a	n/a	n/a	6	17	8	1	8
1023.292	n/a	PROB	511646	n/a	LTP138	ltpFR2	12	n/a	n/a	n/a	6	19	8	2	9
1024.822	n/a	PROB	512411	n/a	LTP138	ltpFR2	12	n/a	n/a	n/a	6	11	5	5	1
1025.904	n/a	PROB	512952	n/a	LTP138	ltpFR2	12	n/a	n/a	n/a	6	4	2	1	1
1027.002	n/a	PROB	513501	n/a	LTP138	ltpFR2	12	n/a	n/a	n/a	6	10	3	4	3
1028.8	n/a	PROB	514400	n/a	LTP138	ltpFR2	12	n/a	n/a	n/a	6	11	3	1	7
1030.266	n/a	PROB	515133	n/a	LTP138	ltpFR2	12	n/a	n/a	n/a	6	21	9	6	6
1032.81	n/a	PROB	516405	n/a	LTP138	ltpFR2	12	n/a	n/a	n/a	6	8	1	5	2
1034.276	n/a	PROB	517138	n/a	LTP138	ltpFR2	12	n/a	n/a	n/a	6	7	1	3	3
1035.49	n/a	PROB	517745	n/a	LTP138	ltpFR2	12	n/a	n/a	n/a	6	16	3	8	5
1036.904	n/a	PROB	518452	n/a	LTP138	ltpFR2	12	n/a	n/a	n/a	6	13	8	1	4
1038.736	n/a	PROB	519368	n/a	LTP138	ltpFR2	12	n/a	n/a	n/a	6	11	3	3	5
1039.984	n/a	PROB	519992	n/a	LTP138	ltpFR2	12	n/a	n/a	n/a	6	18	3	7	8
1041.792	n/a	STOP	520896	n/a	LTP138	ltpFR2	12	n/a	n/a	n/a	6	n/a	n/a	n/a	n/a
1045.16	n/a	REC_START	522580	n/a	LTP138	ltpFR2	12	4	n/a	n/a	n/a	n/a	0	0	0
1046.568	n/a	REC_WORD	523284	wordpools/wasnorm_wordpool_576.txt	LTP138	ltpFR2	12	4	FOX	598	n/a	n/a	0	0	0
1047.598	n/a	REC_WORD	523799	wordpools/wasnorm_wordpool_576.txt	LTP138	ltpFR2	12	4	PLAZA	1088	n/a	n/a	0	0	0
1048.718	n/a	REC_WORD	524359	wordpools/wasnorm_wordpool_576.txt	LTP138	ltpFR2	12	4	ASIA	46	n/a	n/a	0	0	0
1050.104	n/a	REC_WORD_VV	525052	wordpools/wasnorm_wordpool_576.txt	LTP138	ltpFR2	12	4	<>	-1	n/a	n/a	0	0	0
1050.44	n/a	REC_WORD	525220	wordpools/wasnorm_wordpool_576.txt	LTP138	ltpFR2	12	4	SWAMP	1416	n/a	n/a	0	0	0
1051.116	n/a	REC_WORD	525558	wordpools/wasnorm_wordpool_576.txt	LTP138	ltpFR2	12	4	MARINE	869	n/a	n/a	0	0	0
1053.408	n/a	REC_WORD	526704	wordpools/wasnorm_wordpool_576.txt	LTP138	ltpFR2	12	4	DRESS	495	n/a	n/a	0	0	0
1054.216	n/a	REC_WORD	527108	wordpools/wasnorm_wordpool_576.txt	LTP138	ltpFR2	12	4	BLOUSE	139	n/a	n/a	0	0	0
1055.212	n/a	REC_WORD	527606	wordpools/wasnorm_wordpool_576.txt	LTP138	ltpFR2	12	4	JEANS	752	n/a	n/a	0	0	0
1056.2	n/a	REC_WORD	528100	wordpools/wasnorm_wordpool_576.txt	LTP138	ltpFR2	12	4	SKIRT	1319	n/a	n/a	0	0	0
1057.476	n/a	REC_WORD	528738	wordpools/wasnorm_wordpool_576.txt	LTP138	ltpFR2	12	4	ARM	38	n/a	n/a	0	0	0
1059.292	n/a	REC_WORD	529646	wordpools/wasnorm_wordpool_576.txt	LTP138	ltpFR2	12	4	CAKE	219	n/a	n/a	0	0	0
1059.98	n/a	REC_WORD	529990	wordpools/wasnorm_wordpool_576.txt	LTP138	ltpFR2	12	4	CHAMPAGNE	278	n/a	n/a	0	0	0
1061.54	n/a	REC_WORD	530770	wordpools/wasnorm_wordpool_576.txt	LTP138	ltpFR2	12	4	MESSAGE	888	n/a	n/a	0	0	0
1062.418	n/a	REC_WORD	531209	wordpools/wasnorm_wordpool_576.txt	LTP138	ltpFR2	12	4	FOREHEAD	592	n/a	n/a	0	0	0
1063.404	n/a	REC_WORD	531702	wordpools/wasnorm_wordpool_576.txt	LTP138	ltpFR2	12	4	SPOON	1357	n/a	n/a	0	0	0
1064.858	n/a	REC_WORD	532429	wordpools/wasnorm_wordpool_576.txt	LTP138	ltpFR2	12	4	STAPLE	1371	n/a	n/a	0	0	0
1066.502	n/a	REC_WORD	533251	wordpools/wasnorm_wordpool_576.txt	LTP138	ltpFR2	12	4	PISTOL	1075	n/a	n/a	0	0	0
1069.102	n/a	REC_WORD	534551	wordpools/wasnorm_wordpool_576.txt	LTP138	ltpFR2	12	4	ROBBER	1197	n/a	n/a	0	0	0
1080.434	n/a	REC_WORD	540217	wordpools/wasnorm_wordpool_576.txt	LTP138	ltpFR2	12	4	SHORTCAKE	1292	n/a	n/a	0	0	0
1089.37	n/a	REC_WORD	544685	wordpools/wasnorm_wordpool_576.txt	LTP138	ltpFR2	12	4	JELLY	755	n/a	n/a	0	0	0
1095.31	n/a	REC_WORD	547655	wordpools/wasnorm_wordpool_576.txt	LTP138	ltpFR2	12	4	BISON	131	n/a	n/a	0	0	0
1096.444	n/a	REC_WORD	548222	wordpools/wasnorm_wordpool_576.txt	LTP138	ltpFR2	12	4	BEAST	108	n/a	n/a	0	0	0
1162.686	n/a	DISTRACTOR	581343	n/a	LTP138	ltpFR2	12	5	n/a	n/a	n/a	n/a	0	0	0
1162.686	n/a	START	581343	n/a	LTP138	ltpFR2	12	n/a	n/a	n/a	7	n/a	n/a	n/a	n/a
1162.718	n/a	PROB	581359	n/a	LTP138	ltpFR2	12	n/a	n/a	n/a	7	13	5	7	1
1164.682	n/a	PROB	582341	n/a	LTP138	ltpFR2	12	n/a	n/a	n/a	7	17	5	7	5
1166.096	n/a	PROB	583048	n/a	LTP138	ltpFR2	12	n/a	n/a	n/a	7	15	3	8	4
1167.844	n/a	PROB	583922	n/a	LTP138	ltpFR2	12	n/a	n/a	n/a	7	16	8	5	3
1169.244	n/a	PROB	584622	n/a	LTP138	ltpFR2	12	n/a	n/a	n/a	7	19	5	5	9
1170.424	n/a	PROB	585212	n/a	LTP138	ltpFR2	12	n/a	n/a	n/a	7	15	1	7	7
1172.038	n/a	PROB	586019	n/a	LTP138	ltpFR2	12	n/a	n/a	n/a	7	11	4	4	3
1174.302	n/a	PROB	587151	n/a	LTP138	ltpFR2	12	n/a	n/a	n/a	7	16	2	6	8
1175.816	n/a	PROB	587908	n/a	LTP138	ltpFR2	12	n/a	n/a	n/a	7	15	2	6	7
1177.264	n/a	PROB	588632	n/a	LTP138	ltpFR2	12	n/a	n/a	n/a	7	11	1	5	5
1178.23	n/a	PROB	589115	n/a	LTP138	ltpFR2	12	n/a	n/a	n/a	7	14	4	6	4
1179.66	n/a	PROB	589830	n/a	LTP138	ltpFR2	12	n/a	n/a	n/a	7	12	7	1	4
1180.992	n/a	PROB	590496	n/a	LTP138	ltpFR2	12	n/a	n/a	n/a	7	11	2	1	8
1182.54	n/a	PROB	591270	n/a	LTP138	ltpFR2	12	n/a	n/a	n/a	7	14	7	2	5
1184.686	n/a	PROB	592343	n/a	LTP138	ltpFR2	12	n/a	n/a	n/a	7	15	2	5	8
1185.946	n/a	STOP	592973	n/a	LTP138	ltpFR2	12	n/a	n/a	n/a	7	n/a	n/a	n/a	n/a
1187.666	n/a	WORD	593833	wordpools/wasnorm_wordpool_576.txt	LTP138	ltpFR2	12	5	ONION	977	n/a	n/a	0	0	0
1190.344	n/a	WORD	595172	wordpools/wasnorm_wordpool_576.txt	LTP138	ltpFR2	12	5	WRENCH	1625	n/a	n/a	0	0	0
1193.074	n/a	WORD	596537	wordpools/wasnorm_wordpool_576.txt	LTP138	ltpFR2	12	5	PLIERS	1089	n/a	n/a	0	0	0
1195.754	n/a	WORD	597877	wordpools/wasnorm_wordpool_576.txt	LTP138	ltpFR2	12	5	SMOG	1330	n/a	n/a	0	0	0
1198.2	n/a	WORD	599100	wordpools/wasnorm_wordpool_576.txt	LTP138	ltpFR2	12	5	BARLEY	88	n/a	n/a	0	0	0
1201.012	n/a	WORD	600506	wordpools/wasnorm_wordpool_576.txt	LTP138	ltpFR2	12	5	MUFFIN	929	n/a	n/a	0	0	0
1203.792	n/a	WORD	601896	wordpools/wasnorm_wordpool_576.txt	LTP138	ltpFR2	12	5	RATTLE	1170	n/a	n/a	0	0	0
1206.322	n/a	WORD	603161	wordpools/wasnorm_wordpool_576.txt	LTP138	ltpFR2	12	5	CRIB	407	n/a	n/a	0	0	0
1208.95	n/a	WORD	604475	wordpools/wasnorm_wordpool_576.txt	LTP138	ltpFR2	12	5	BIKE	125	n/a	n/a	0	0	0
1211.63	n/a	WORD	605815	wordpools/wasnorm_wordpool_576.txt	LTP138	ltpFR2	12	5	PIGEON	1065	n/a	n/a	0	0	0
1214.126	n/a	WORD	607063	wordpools/wasnorm_wordpool_576.txt	LTP138	ltpFR2	12	5	FRIAR	605	n/a	n/a	0	0	0
1216.722	n/a	WORD	608361	wordpools/wasnorm_wordpool_576.txt	LTP138	ltpFR2	12	5	TOASTER	1472	n/a	n/a	0	0	0
1219.502	n/a	WORD	609751	wordpools/wasnorm_wordpool_576.txt	LTP138	ltpFR2	12	5	STALLION	1369	n/a	n/a	0	0	0
1222.048	n/a	WORD	611024	wordpools/wasnorm_wordpool_576.txt	LTP138	ltpFR2	12	5	FINGER	567	n/a	n/a	0	0	0
1224.678	n/a	WORD	612339	wordpools/wasnorm_wordpool_576.txt	LTP138	ltpFR2	12	5	COFFEE	341	n/a	n/a	0	0	0
1227.406	n/a	WORD	613703	wordpools/wasnorm_wordpool_576.txt	LTP138	ltpFR2	12	5	TEMPLE	1448	n/a	n/a	0	0	0
1229.836	n/a	WORD	614918	wordpools/wasnorm_wordpool_576.txt	LTP138	ltpFR2	12	5	BEAVER	109	n/a	n/a	0	0	0
1232.532	n/a	WORD	616266	wordpools/wasnorm_wordpool_576.txt	LTP138	ltpFR2	12	5	SHIRT	1287	n/a	n/a	0	0	0
1235.078	n/a	WORD	617539	wordpools/wasnorm_wordpool_576.txt	LTP138	ltpFR2	12	5	ISLAND	745	n/a	n/a	0	0	0
1237.658	n/a	WORD	618829	wordpools/wasnorm_wordpool_576.txt	LTP138	ltpFR2	12	5	CLOCK	325	n/a	n/a	0	0	0
1240.154	n/a	WORD	620077	wordpools/wasnorm_wordpool_576.txt	LTP138	ltpFR2	12	5	PLAYGROUND	1087	n/a	n/a	0	0	0
1242.75	n/a	WORD	621375	wordpools/wasnorm_wordpool_576.txt	LTP138	ltpFR2	12	5	PARTNER	1017	n/a	n/a	0	0	0
1245.396	n/a	WORD	622698	wordpools/wasnorm_wordpool_576.txt	LTP138	ltpFR2	12	5	OZONE	996	n/a	n/a	0	0	0
1248.192	n/a	WORD	624096	wordpools/wasnorm_wordpool_576.txt	LTP138	ltpFR2	12	5	BARREL	91	n/a	n/a	0	0	0
1249.806	n/a	START	624903	n/a	LTP138	ltpFR2	12	n/a	n/a	n/a	8	n/a	n/a	n/a	n/a
1250.878	n/a	DISTRACTOR	625439	n/a	LTP138	ltpFR2	12	5	n/a	n/a	n/a	n/a	0	0	0
1250.888	n/a	PROB	625444	n/a	LTP138	ltpFR2	12	n/a	n/a	n/a	8	15	1	9	5
1252.186	n/a	PROB	626093	n/a	LTP138	ltpFR2	12	n/a	n/a	n/a	8	14	7	5	2
1254.216	n/a	PROB	627108	n/a	LTP138	ltpFR2	12	n/a	n/a	n/a	8	20	5	8	7
1255.93	n/a	PROB	627965	n/a	LTP138	ltpFR2	12	n/a	n/a	n/a	8	23	8	7	8
1258.61	n/a	PROB	629305	n/a	LTP138	ltpFR2	12	n/a	n/a	n/a	8	4	1	2	1
1259.824	n/a	PROB	629912	n/a	LTP138	ltpFR2	12	n/a	n/a	n/a	8	14	2	9	3
1262.072	n/a	PROB	631036	n/a	LTP138	ltpFR2	12	n/a	n/a	n/a	8	7	2	4	1
1263.42	n/a	PROB	631710	n/a	LTP138	ltpFR2	12	n/a	n/a	n/a	8	12	6	1	5
1264.75	n/a	PROB	632375	n/a	LTP138	ltpFR2	12	n/a	n/a	n/a	8	10	8	1	1
1266.25	n/a	PROB	633125	n/a	LTP138	ltpFR2	12	n/a	n/a	n/a	8	6	3	1	2
1268.212	n/a	PROB	634106	n/a	LTP138	ltpFR2	12	n/a	n/a	n/a	8	18	9	3	6
1269.744	n/a	PROB	634872	n/a	LTP138	ltpFR2	12	n/a	n/a	n/a	8	15	3	4	8
1270.858	n/a	PROB	635429	n/a	LTP138	ltpFR2	12	n/a	n/a	n/a	8	11	7	1	3
1273.722	n/a	STOP	636861	n/a	LTP138	ltpFR2	12	n/a	n/a	n/a	8	n/a	n/a	n/a	n/a
1275.752	n/a	REC_START	637876	n/a	LTP138	ltpFR2	12	5	n/a	n/a	n/a	n/a	0	0	0
1276.44	n/a	REC_WORD	638220	wordpools/wasnorm_wordpool_576.txt	LTP138	ltpFR2	12	5	OZONE	996	n/a	n/a	0	0	0
1277.77	n/a	REC_WORD_VV	638885	wordpools/wasnorm_wordpool_576.txt	LTP138	ltpFR2	12	5	<>	-1	n/a	n/a	0	0	0
1278.196	n/a	REC_WORD	639098	wordpools/wasnorm_wordpool_576.txt	LTP138	ltpFR2	12	5	PARTNER	1017	n/a	n/a	0	0	0
1279.006	n/a	REC_WORD	639503	wordpools/wasnorm_wordpool_576.txt	LTP138	ltpFR2	12	5	PLAYGROUND	1087	n/a	n/a	0	0	0
1280.098	n/a	REC_WORD	640049	wordpools/wasnorm_wordpool_576.txt	LTP138	ltpFR2	12	5	BARREL	91	n/a	n/a	0	0	0
1282.46	n/a	REC_WORD	641230	wordpools/wasnorm_wordpool_576.txt	LTP138	ltpFR2	12	5	BIKE	125	n/a	n/a	0	0	0
1283.648	n/a	REC_WORD	641824	wordpools/wasnorm_wordpool_576.txt	LTP138	ltpFR2	12	5	CRIB	407	n/a	n/a	0	0	0
1285.28	n/a	REC_WORD	642640	wordpools/wasnorm_wordpool_576.txt	LTP138	ltpFR2	12	5	RATTLE	1170	n/a	n/a	0	0	0
1286.888	n/a	REC_WORD	643444	wordpools/wasnorm_wordpool_576.txt	LTP138	ltpFR2	12	5	ONION	977	n/a	n/a	0	0	0
1287.748	n/a	REC_WORD	643874	wordpools/wasnorm_wordpool_576.txt	LTP138	ltpFR2	12	5	WRENCH	1625	n/a	n/a	0	0	0
1288.526	n/a	REC_WORD	644263	wordpools/wasnorm_wordpool_576.txt	LTP138	ltpFR2	12	5	PLIERS	1089	n/a	n/a	0	0	0
1290.256	n/a	REC_WORD	645128	wordpools/wasnorm_wordpool_576.txt	LTP138	ltpFR2	12	5	BARLEY	88	n/a	n/a	0	0	0
1291.268	n/a	REC_WORD	645634	wordpools/wasnorm_wordpool_576.txt	LTP138	ltpFR2	12	5	MUFFIN	929	n/a	n/a	0	0	0
1292.552	n/a	REC_WORD	646276	wordpools/wasnorm_wordpool_576.txt	LTP138	ltpFR2	12	5	SMOG	1330	n/a	n/a	0	0	0
1295.4	n/a	REC_WORD	647700	wordpools/wasnorm_wordpool_576.txt	LTP138	ltpFR2	12	5	PIGEON	1065	n/a	n/a	0	0	0
1296.922	n/a	REC_WORD	648461	wordpools/wasnorm_wordpool_576.txt	LTP138	ltpFR2	12	5	BEAVER	109	n/a	n/a	0	0	0
1298.476	n/a	REC_WORD	649238	wordpools/wasnorm_wordpool_576.txt	LTP138	ltpFR2	12	5	SHIRT	1287	n/a	n/a	0	0	0
1299.57	n/a	REC_WORD	649785	wordpools/wasnorm_wordpool_576.txt	LTP138	ltpFR2	12	5	ISLAND	745	n/a	n/a	0	0	0
1300.508	n/a	REC_WORD	650254	wordpools/wasnorm_wordpool_576.txt	LTP138	ltpFR2	12	5	CLOCK	325	n/a	n/a	0	0	0
1308.378	n/a	REC_WORD_VV	654189	wordpools/wasnorm_wordpool_576.txt	LTP138	ltpFR2	12	5	<>	-1	n/a	n/a	0	0	0
1366.434	n/a	WORD	683217	wordpools/wasnorm_wordpool_576.txt	LTP138	ltpFR2	12	6	FLAG	573	n/a	n/a	0	0	0
1368.914	n/a	WORD	684457	wordpools/wasnorm_wordpool_576.txt	LTP138	ltpFR2	12	6	HORNET	718	n/a	n/a	0	0	0
1371.41	n/a	WORD	685705	wordpools/wasnorm_wordpool_576.txt	LTP138	ltpFR2	12	6	TRENCH	1503	n/a	n/a	0	0	0
1374.072	n/a	WORD	687036	wordpools/wasnorm_wordpool_576.txt	LTP138	ltpFR2	12	6	BANK	83	n/a	n/a	0	0	0
1376.834	n/a	WORD	688417	wordpools/wasnorm_wordpool_576.txt	LTP138	ltpFR2	12	6	ROCKET	1202	n/a	n/a	0	0	0
1379.464	n/a	WORD	689732	wordpools/wasnorm_wordpool_576.txt	LTP138	ltpFR2	12	6	CANDY	230	n/a	n/a	0	0	0
1382.21	n/a	WORD	691105	wordpools/wasnorm_wordpool_576.txt	LTP138	ltpFR2	12	6	RADISH	1158	n/a	n/a	0	0	0
1384.924	n/a	WORD	692462	wordpools/wasnorm_wordpool_576.txt	LTP138	ltpFR2	12	6	SHORTS	1293	n/a	n/a	0	0	0
1387.536	n/a	WORD	693768	wordpools/wasnorm_wordpool_576.txt	LTP138	ltpFR2	12	6	POCKET	1093	n/a	n/a	0	0	0
1390.232	n/a	WORD	695116	wordpools/wasnorm_wordpool_576.txt	LTP138	ltpFR2	12	6	NEUTRON	947	n/a	n/a	0	0	0
1392.928	n/a	WORD	696464	wordpools/wasnorm_wordpool_576.txt	LTP138	ltpFR2	12	6	BOARD	143	n/a	n/a	0	0	0
1395.74	n/a	WORD	697870	wordpools/wasnorm_wordpool_576.txt	LTP138	ltpFR2	12	6	SHOVEL	1295	n/a	n/a	0	0	0
1398.436	n/a	WORD	699218	wordpools/wasnorm_wordpool_576.txt	LTP138	ltpFR2	12	6	LAVA	804	n/a	n/a	0	0	0
1401.216	n/a	WORD	700608	wordpools/wasnorm_wordpool_576.txt	LTP138	ltpFR2	12	6	BRANDY	169	n/a	n/a	0	0	0
1403.662	n/a	WORD	701831	wordpools/wasnorm_wordpool_576.txt	LTP138	ltpFR2	12	6	MARKET	871	n/a	n/a	0	0	0
1406.242	n/a	WORD	703121	wordpools/wasnorm_wordpool_576.txt	LTP138	ltpFR2	12	6	SPACE	1345	n/a	n/a	0	0	0
1408.972	n/a	WORD	704486	wordpools/wasnorm_wordpool_576.txt	LTP138	ltpFR2	12	6	CRAYON	401	n/a	n/a	0	0	0
1411.618	n/a	WORD	705809	wordpools/wasnorm_wordpool_576.txt	LTP138	ltpFR2	12	6	PADDLE	1000	n/a	n/a	0	0	0
1414.396	n/a	WORD	707198	wordpools/wasnorm_wordpool_576.txt	LTP138	ltpFR2	12	6	RAFT	1159	n/a	n/a	0	0	0
1416.942	n/a	WORD	708471	wordpools/wasnorm_wordpool_576.txt	LTP138	ltpFR2	12	6	STREAM	1392	n/a	n/a	0	0	0
1419.756	n/a	WORD	709878	wordpools/wasnorm_wordpool_576.txt	LTP138	ltpFR2	12	6	TROMBONE	1508	n/a	n/a	0	0	0
1422.434	n/a	WORD	711217	wordpools/wasnorm_wordpool_576.txt	LTP138	ltpFR2	12	6	WHISTLE	1606	n/a	n/a	0	0	0
1425.18	n/a	WORD	712590	wordpools/wasnorm_wordpool_576.txt	LTP138	ltpFR2	12	6	SURVEY	1414	n/a	n/a	0	0	0
1427.81	n/a	WORD	713905	wordpools/wasnorm_wordpool_576.txt	LTP138	ltpFR2	12	6	JUGGLER	763	n/a	n/a	0	0	0
1429.424	n/a	START	714712	n/a	LTP138	ltpFR2	12	n/a	n/a	n/a	9	n/a	n/a	n/a	n/a
1430.274	n/a	DISTRACTOR	715137	n/a	LTP138	ltpFR2	12	6	n/a	n/a	n/a	n/a	0	0	0
1430.29	n/a	PROB	715145	n/a	LTP138	ltpFR2	12	n/a	n/a	n/a	9	14	6	7	1
1432.52	n/a	PROB	716260	n/a	LTP138	ltpFR2	12	n/a	n/a	n/a	9	18	8	9	1
1433.802	n/a	PROB	716901	n/a	LTP138	ltpFR2	12	n/a	n/a	n/a	9	22	7	6	9
1436.298	n/a	PROB	718149	n/a	LTP138	ltpFR2	12	n/a	n/a	n/a	9	13	7	5	1
1437.896	n/a	PROB	718948	n/a	LTP138	ltpFR2	12	n/a	n/a	n/a	9	26	8	9	9
1440.608	n/a	PROB	720304	n/a	LTP138	ltpFR2	12	n/a	n/a	n/a	9	25	9	9	7
1443.304	n/a	PROB	721652	n/a	LTP138	ltpFR2	12	n/a	n/a	n/a	9	14	5	7	2
1445.318	n/a	PROB	722659	n/a	LTP138	ltpFR2	12	n/a	n/a	n/a	9	18	5	6	7
1446.948	n/a	PROB	723474	n/a	LTP138	ltpFR2	12	n/a	n/a	n/a	9	19	4	6	9
1448.146	n/a	PROB	724073	n/a	LTP138	ltpFR2	12	n/a	n/a	n/a	9	20	8	7	5
1449.96	n/a	PROB	724980	n/a	LTP138	ltpFR2	12	n/a	n/a	n/a	9	16	8	6	2
1451.308	n/a	PROB	725654	n/a	LTP138	ltpFR2	12	n/a	n/a	n/a	9	12	6	5	1
1452.58	n/a	STOP	726290	n/a	LTP138	ltpFR2	12	n/a	n/a	n/a	9	n/a	n/a	n/a	n/a
1455.27	n/a	REC_START	727635	n/a	LTP138	ltpFR2	12	6	n/a	n/a	n/a	n/a	0	0	0
1456.522	n/a	REC_WORD	728261	wordpools/wasnorm_wordpool_576.txt	LTP138	ltpFR2	12	6	TRENCH	1503	n/a	n/a	0	0	0
1457.246	n/a	REC_WORD	728623	wordpools/wasnorm_wordpool_576.txt	LTP138	ltpFR2	12	6	FLAG	573	n/a	n/a	0	0	0
1458.132	n/a	REC_WORD	729066	wordpools/wasnorm_wordpool_576.txt	LTP138	ltpFR2	12	6	HORNET	718	n/a	n/a	0	0	0
1459.436	n/a	REC_WORD	729718	wordpools/wasnorm_wordpool_576.txt	LTP138	ltpFR2	12	6	SHOVEL	1295	n/a	n/a	0	0	0
1460.296	n/a	REC_WORD	730148	wordpools/wasnorm_wordpool_576.txt	LTP138	ltpFR2	12	6	PADDLE	1000	n/a	n/a	0	0	0
1461.268	n/a	REC_WORD	730634	wordpools/wasnorm_wordpool_576.txt	LTP138	ltpFR2	12	6	STREAM	1392	n/a	n/a	0	0	0
1462.466	n/a	REC_WORD	731233	wordpools/wasnorm_wordpool_576.txt	LTP138	ltpFR2	12	6	RAFT	1159	n/a	n/a	0	0	0
1464.56	n/a	REC_WORD	732280	wordpools/wasnorm_wordpool_576.txt	LTP138	ltpFR2	12	6	SPACE	1345	n/a	n/a	0	0	0
1465.94	n/a	REC_WORD	732970	wordpools/wasnorm_wordpool_576.txt	LTP138	ltpFR2	12	6	LAVA	804	n/a	n/a	0	0	0
1467.79	n/a	REC_WORD	733895	wordpools/wasnorm_wordpool_576.txt	LTP138	ltpFR2	12	6	ROCKET	1202	n/a	n/a	0	0	0
1468.746	n/a	REC_WORD	734373	wordpools/wasnorm_wordpool_576.txt	LTP138	ltpFR2	12	6	POCKET	1093	n/a	n/a	0	0	0
1469.604	n/a	REC_WORD	734802	wordpools/wasnorm_wordpool_576.txt	LTP138	ltpFR2	12	6	SHORTS	1293	n/a	n/a	0	0	0
1472.344	n/a	REC_WORD	736172	wordpools/wasnorm_wordpool_576.txt	LTP138	ltpFR2	12	6	BANK	83	n/a	n/a	0	0	0
1473.81	n/a	REC_WORD	736905	wordpools/wasnorm_wordpool_576.txt	LTP138	ltpFR2	12	6	BOARD	143	n/a	n/a	0	0	0
1474.96	n/a	REC_WORD	737480	wordpools/wasnorm_wordpool_576.txt	LTP138	ltpFR2	12	6	CANDY	230	n/a	n/a	0	0	0
1476.462	n/a	REC_WORD	738231	wordpools/wasnorm_wordpool_576.txt	LTP138	ltpFR2	12	6	RADISH	1158	n/a	n/a	0	0	0
1480.172	n/a	REC_WORD	740086	wordpools/wasnorm_wordpool_576.txt	LTP138	ltpFR2	12	6	NEUTRON	947	n/a	n/a	0	0	0
1493.494	n/a	REC_WORD	746747	wordpools/wasnorm_wordpool_576.txt	LTP138	ltpFR2	12	6	BRANDY	169	n/a	n/a	0	0	0
1545.918	n/a	DISTRACTOR	772959	n/a	LTP138	ltpFR2	12	7	n/a	n/a	n/a	n/a	0	0	0
1545.918	n/a	START	772959	n/a	LTP138	ltpFR2	12	n/a	n/a	n/a	10	n/a	n/a	n/a	n/a
1545.952	n/a	PROB	772976	n/a	LTP138	ltpFR2	12	n/a	n/a	n/a	10	23	9	6	8
1548.648	n/a	PROB	774324	n/a	LTP138	ltpFR2	12	n/a	n/a	n/a	10	20	9	6	5
1551.41	n/a	PROB	775705	n/a	LTP138	ltpFR2	12	n/a	n/a	n/a	10	10	3	1	6
1552.724	n/a	PROB	776362	n/a	LTP138	ltpFR2	12	n/a	n/a	n/a	10	19	8	2	9
1554.072	n/a	PROB	777036	n/a	LTP138	ltpFR2	12	n/a	n/a	n/a	10	12	4	1	7
1555.536	n/a	PROB	777768	n/a	LTP138	ltpFR2	12	n/a	n/a	n/a	10	16	9	6	1
1558.05	n/a	PROB	779025	n/a	LTP138	ltpFR2	12	n/a	n/a	n/a	10	15	2	5	8
1559.898	n/a	PROB	779949	n/a	LTP138	ltpFR2	12	n/a	n/a	n/a	10	17	8	5	4
1561.628	n/a	PROB	780814	n/a	LTP138	ltpFR2	12	n/a	n/a	n/a	10	12	2	3	7
1562.826	n/a	PROB	781413	n/a	LTP138	ltpFR2	12	n/a	n/a	n/a	10	8	1	6	1
1564.124	n/a	PROB	782062	n/a	LTP138	ltpFR2	12	n/a	n/a	n/a	10	11	5	3	3
1565.388	n/a	PROB	782694	n/a	LTP138	ltpFR2	12	n/a	n/a	n/a	10	19	8	7	4
1566.986	n/a	PROB	783493	n/a	LTP138	ltpFR2	12	n/a	n/a	n/a	10	19	4	6	9
1568.184	n/a	PROB	784092	n/a	LTP138	ltpFR2	12	n/a	n/a	n/a	10	16	9	4	3
1569.566	n/a	STOP	784783	n/a	LTP138	ltpFR2	12	n/a	n/a	n/a	10	n/a	n/a	n/a	n/a
1570.83	n/a	WORD	785415	wordpools/wasnorm_wordpool_576.txt	LTP138	ltpFR2	12	7	GREASE	660	n/a	n/a	0	0	0
1573.31	n/a	WORD	786655	wordpools/wasnorm_wordpool_576.txt	LTP138	ltpFR2	12	7	CRICKET	408	n/a	n/a	0	0	0
1575.74	n/a	WORD	787870	wordpools/wasnorm_wordpool_576.txt	LTP138	ltpFR2	12	7	LASER	801	n/a	n/a	0	0	0
1578.204	n/a	WORD	789102	wordpools/wasnorm_wordpool_576.txt	LTP138	ltpFR2	12	7	HONEY	713	n/a	n/a	0	0	0
1580.716	n/a	WORD	790358	wordpools/wasnorm_wordpool_576.txt	LTP138	ltpFR2	12	7	BLADE	134	n/a	n/a	0	0	0
1583.264	n/a	WORD	791632	wordpools/wasnorm_wordpool_576.txt	LTP138	ltpFR2	12	7	HATCHET	691	n/a	n/a	0	0	0
1585.976	n/a	WORD	792988	wordpools/wasnorm_wordpool_576.txt	LTP138	ltpFR2	12	7	EAGLE	512	n/a	n/a	0	0	0
1588.472	n/a	WORD	794236	wordpools/wasnorm_wordpool_576.txt	LTP138	ltpFR2	12	7	SUITCASE	1403	n/a	n/a	0	0	0
1591.102	n/a	WORD	795551	wordpools/wasnorm_wordpool_576.txt	LTP138	ltpFR2	12	7	VENUS	1557	n/a	n/a	0	0	0
1593.648	n/a	WORD	796824	wordpools/wasnorm_wordpool_576.txt	LTP138	ltpFR2	12	7	TWIG	1527	n/a	n/a	0	0	0
1596.394	n/a	WORD	798197	wordpools/wasnorm_wordpool_576.txt	LTP138	ltpFR2	12	7	LAPEL	800	n/a	n/a	0	0	0
1599.022	n/a	WORD	799511	wordpools/wasnorm_wordpool_576.txt	LTP138	ltpFR2	12	7	MASK	876	n/a	n/a	0	0	0
1601.836	n/a	WORD	800918	wordpools/wasnorm_wordpool_576.txt	LTP138	ltpFR2	12	7	TRIBE	1505	n/a	n/a	0	0	0
1604.648	n/a	WORD	802324	wordpools/wasnorm_wordpool_576.txt	LTP138	ltpFR2	12	7	AIRPORT	13	n/a	n/a	0	0	0
1607.094	n/a	WORD	803547	wordpools/wasnorm_wordpool_576.txt	LTP138	ltpFR2	12	7	PILOT	1070	n/a	n/a	0	0	0
1609.658	n/a	WORD	804829	wordpools/wasnorm_wordpool_576.txt	LTP138	ltpFR2	12	7	BRANCH	168	n/a	n/a	0	0	0
1612.136	n/a	WORD	806068	wordpools/wasnorm_wordpool_576.txt	LTP138	ltpFR2	12	7	BEEF	113	n/a	n/a	0	0	0
1614.9	n/a	WORD	807450	wordpools/wasnorm_wordpool_576.txt	LTP138	ltpFR2	12	7	FRECKLE	602	n/a	n/a	0	0	0
1617.528	n/a	WORD	808764	wordpools/wasnorm_wordpool_576.txt	LTP138	ltpFR2	12	7	BACKBONE	66	n/a	n/a	0	0	0
1620.274	n/a	WORD	810137	wordpools/wasnorm_wordpool_576.txt	LTP138	ltpFR2	12	7	BRAKE	166	n/a	n/a	0	0	0
1622.704	n/a	WORD	811352	wordpools/wasnorm_wordpool_576.txt	LTP138	ltpFR2	12	7	SWORD	1423	n/a	n/a	0	0	0
1625.384	n/a	WORD	812692	wordpools/wasnorm_wordpool_576.txt	LTP138	ltpFR2	12	7	CURTAIN	427	n/a	n/a	0	0	0
1628.03	n/a	WORD	814015	wordpools/wasnorm_wordpool_576.txt	LTP138	ltpFR2	12	7	ROD	1203	n/a	n/a	0	0	0
1630.826	n/a	WORD	815413	wordpools/wasnorm_wordpool_576.txt	LTP138	ltpFR2	12	7	FRANCE	601	n/a	n/a	0	0	0
1632.44	n/a	START	816220	n/a	LTP138	ltpFR2	12	n/a	n/a	n/a	11	n/a	n/a	n/a	n/a
1633.424	n/a	DISTRACTOR	816712	n/a	LTP138	ltpFR2	12	7	n/a	n/a	n/a	n/a	0	0	0
1633.438	n/a	PROB	816719	n/a	LTP138	ltpFR2	12	n/a	n/a	n/a	11	13	6	2	5
1635.936	n/a	PROB	817968	n/a	LTP138	ltpFR2	12	n/a	n/a	n/a	11	21	8	7	6
1637.716	n/a	PROB	818858	n/a	LTP138	ltpFR2	12	n/a	n/a	n/a	11	16	7	4	5
1641.028	n/a	PROB	820514	n/a	LTP138	ltpFR2	12	n/a	n/a	n/a	11	16	6	6	4
1642.376	n/a	PROB	821188	n/a	LTP138	ltpFR2	12	n/a	n/a	n/a	11	17	4	6	7
1644.44	n/a	PROB	822220	n/a	LTP138	ltpFR2	12	n/a	n/a	n/a	11	15	8	3	4
1645.704	n/a	PROB	822852	n/a	LTP138	ltpFR2	12	n/a	n/a	n/a	11	16	8	2	6
1646.936	n/a	PROB	823468	n/a	LTP138	ltpFR2	12	n/a	n/a	n/a	11	13	1	8	4
1648.384	n/a	PROB	824192	n/a	LTP138	ltpFR2	12	n/a	n/a	n/a	11	18	4	8	6
1651.112	n/a	PROB	825556	n/a	LTP138	ltpFR2	12	n/a	n/a	n/a	11	6	2	1	3
1652.344	n/a	PROB	826172	n/a	LTP138	ltpFR2	12	n/a	n/a	n/a	11	8	5	1	2
1654.492	n/a	PROB	827246	n/a	LTP138	ltpFR2	12	n/a	n/a	n/a	11	13	1	3	9
1655.92	n/a	STOP	827960	n/a	LTP138	ltpFR2	12	n/a	n/a	n/a	11	n/a	n/a	n/a	n/a
1658.37	n/a	REC_START	829185	n/a	LTP138	ltpFR2	12	7	n/a	n/a	n/a	n/a	0	0	0
1659.274	n/a	REC_WORD	829637	wordpools/wasnorm_wordpool_576.txt	LTP138	ltpFR2	12	7	CURTAIN	427	n/a	n/a	0	0	0
1660.386	n/a	REC_WORD	830193	wordpools/wasnorm_wordpool_576.txt	LTP138	ltpFR2	12	7	ROD	1203	n/a	n/a	0	0	0
1662.462	n/a	REC_WORD	831231	wordpools/wasnorm_wordpool_576.txt	LTP138	ltpFR2	12	7	FRANCE	601	n/a	n/a	0	0	0
1664.9	n/a	REC_WORD	832450	wordpools/wasnorm_wordpool_576.txt	LTP138	ltpFR2	12	7	PILOT	1070	n/a	n/a	0	0	0
1666.08	n/a	REC_WORD	833040	wordpools/wasnorm_wordpool_576.txt	LTP138	ltpFR2	12	7	AIRPORT	13	n/a	n/a	0	0	0
1668.108	n/a	REC_WORD	834054	wordpools/wasnorm_wordpool_576.txt	LTP138	ltpFR2	12	7	BRAKE	166	n/a	n/a	0	0	0
1670.558	n/a	REC_WORD	835279	wordpools/wasnorm_wordpool_576.txt	LTP138	ltpFR2	12	7	HATCHET	691	n/a	n/a	0	0	0
1671.884	n/a	REC_WORD	835942	wordpools/wasnorm_wordpool_576.txt	LTP138	ltpFR2	12	7	SWORD	1423	n/a	n/a	0	0	0
1673.098	n/a	REC_WORD	836549	wordpools/wasnorm_wordpool_576.txt	LTP138	ltpFR2	12	7	BRANCH	168	n/a	n/a	0	0	0
1674.1	n/a	REC_WORD	837050	wordpools/wasnorm_wordpool_576.txt	LTP138	ltpFR2	12	7	TWIG	1527	n/a	n/a	0	0	0
1676.786	n/a	REC_WORD	838393	wordpools/wasnorm_wordpool_576.txt	LTP138	ltpFR2	12	7	LASER	801	n/a	n/a	0	0	0
1679.684	n/a	REC_WORD	839842	wordpools/wasnorm_wordpool_576.txt	LTP138	ltpFR2	12	7	TRIBE	1505	n/a	n/a	0	0	0
1680.642	n/a	REC_WORD	840321	wordpools/wasnorm_wordpool_576.txt	LTP138	ltpFR2	12	7	MASK	876	n/a	n/a	0	0	0
1682.812	n/a	REC_WORD	841406	wordpools/wasnorm_wordpool_576.txt	LTP138	ltpFR2	12	7	LAPEL	800	n/a	n/a	0	0	0
1684.93	n/a	REC_WORD	842465	wordpools/wasnorm_wordpool_576.txt	LTP138	ltpFR2	12	7	SUITCASE	1403	n/a	n/a	0	0	0
1692.584	n/a	REC_WORD	846292	wordpools/wasnorm_wordpool_576.txt	LTP138	ltpFR2	12	7	GREASE	660	n/a	n/a	0	0	0
1693.568	n/a	REC_WORD	846784	wordpools/wasnorm_wordpool_576.txt	LTP138	ltpFR2	12	7	CRICKET	408	n/a	n/a	0	0	0
1716.716	n/a	REC_WORD	858358	wordpools/wasnorm_wordpool_576.txt	LTP138	ltpFR2	12	7	BACKBONE	66	n/a	n/a	0	0	0
1749.052	n/a	DISTRACTOR	874526	n/a	LTP138	ltpFR2	12	8	n/a	n/a	n/a	n/a	0	0	0
1749.052	n/a	START	874526	n/a	LTP138	ltpFR2	12	n/a	n/a	n/a	12	n/a	n/a	n/a	n/a
1749.084	n/a	PROB	874542	n/a	LTP138	ltpFR2	12	n/a	n/a	n/a	12	21	9	5	7
1752.364	n/a	PROB	876182	n/a	LTP138	ltpFR2	12	n/a	n/a	n/a	12	16	4	3	9
1753.544	n/a	PROB	876772	n/a	LTP138	ltpFR2	12	n/a	n/a	n/a	12	19	8	8	3
1755.558	n/a	PROB	877779	n/a	LTP138	ltpFR2	12	n/a	n/a	n/a	12	16	8	6	2
1757.006	n/a	PROB	878503	n/a	LTP138	ltpFR2	12	n/a	n/a	n/a	12	19	9	5	5
1758.172	n/a	PROB	879086	n/a	LTP138	ltpFR2	12	n/a	n/a	n/a	12	14	5	4	5
1759.436	n/a	PROB	879718	n/a	LTP138	ltpFR2	12	n/a	n/a	n/a	12	15	8	3	4
1760.65	n/a	PROB	880325	n/a	LTP138	ltpFR2	12	n/a	n/a	n/a	12	14	9	4	1
1762.166	n/a	PROB	881083	n/a	LTP138	ltpFR2	12	n/a	n/a	n/a	12	16	4	4	8
1763.43	n/a	PROB	881715	n/a	LTP138	ltpFR2	12	n/a	n/a	n/a	12	14	3	2	9
1764.928	n/a	PROB	882464	n/a	LTP138	ltpFR2	12	n/a	n/a	n/a	12	17	9	4	4
1766.292	n/a	PROB	883146	n/a	LTP138	ltpFR2	12	n/a	n/a	n/a	12	7	4	1	2
1767.972	n/a	PROB	883986	n/a	LTP138	ltpFR2	12	n/a	n/a	n/a	12	18	9	5	4
1770.002	n/a	PROB	885001	n/a	LTP138	ltpFR2	12	n/a	n/a	n/a	12	16	3	8	5
1771.752	n/a	STOP	885876	n/a	LTP138	ltpFR2	12	n/a	n/a	n/a	12	n/a	n/a	n/a	n/a
1774.046	n/a	WORD	887023	wordpools/wasnorm_wordpool_576.txt	LTP138	ltpFR2	12	8	PARENT	1013	n/a	n/a	0	0	0
1776.66	n/a	WORD	888330	wordpools/wasnorm_wordpool_576.txt	LTP138	ltpFR2	12	8	SNACK	1331	n/a	n/a	0	0	0
1779.14	n/a	WORD	889570	wordpools/wasnorm_wordpool_576.txt	LTP138	ltpFR2	12	8	LIGHTNING	820	n/a	n/a	0	0	0
1781.802	n/a	WORD	890901	wordpools/wasnorm_wordpool_576.txt	LTP138	ltpFR2	12	8	FIDDLE	561	n/a	n/a	0	0	0
1784.464	n/a	WORD	892232	wordpools/wasnorm_wordpool_576.txt	LTP138	ltpFR2	12	8	BUTCHER	203	n/a	n/a	0	0	0
1787.044	n/a	WORD	893522	wordpools/wasnorm_wordpool_576.txt	LTP138	ltpFR2	12	8	EGYPT	519	n/a	n/a	0	0	0
1789.84	n/a	WORD	894920	wordpools/wasnorm_wordpool_576.txt	LTP138	ltpFR2	12	8	BOX	159	n/a	n/a	0	0	0
1792.552	n/a	WORD	896276	wordpools/wasnorm_wordpool_576.txt	LTP138	ltpFR2	12	8	STAKE	1368	n/a	n/a	0	0	0
1795.016	n/a	WORD	897508	wordpools/wasnorm_wordpool_576.txt	LTP138	ltpFR2	12	8	CABIN	211	n/a	n/a	0	0	0
1797.746	n/a	WORD	898873	wordpools/wasnorm_wordpool_576.txt	LTP138	ltpFR2	12	8	APPLE	33	n/a	n/a	0	0	0
1800.192	n/a	WORD	900096	wordpools/wasnorm_wordpool_576.txt	LTP138	ltpFR2	12	8	BADGE	68	n/a	n/a	0	0	0
1802.822	n/a	WORD	901411	wordpools/wasnorm_wordpool_576.txt	LTP138	ltpFR2	12	8	MEAT	883	n/a	n/a	0	0	0
1805.368	n/a	WORD	902684	wordpools/wasnorm_wordpool_576.txt	LTP138	ltpFR2	12	8	LAGOON	795	n/a	n/a	0	0	0
1807.996	n/a	WORD	903998	wordpools/wasnorm_wordpool_576.txt	LTP138	ltpFR2	12	8	DIVER	476	n/a	n/a	0	0	0
1810.71	n/a	WORD	905355	wordpools/wasnorm_wordpool_576.txt	LTP138	ltpFR2	12	8	TRUCK	1512	n/a	n/a	0	0	0
1813.472	n/a	WORD	906736	wordpools/wasnorm_wordpool_576.txt	LTP138	ltpFR2	12	8	PEDAL	1037	n/a	n/a	0	0	0
1816.036	n/a	WORD	908018	wordpools/wasnorm_wordpool_576.txt	LTP138	ltpFR2	12	8	CYCLONE	431	n/a	n/a	0	0	0
1818.848	n/a	WORD	909424	wordpools/wasnorm_wordpool_576.txt	LTP138	ltpFR2	12	8	BELLY	119	n/a	n/a	0	0	0
1821.444	n/a	WORD	910722	wordpools/wasnorm_wordpool_576.txt	LTP138	ltpFR2	12	8	TYPIST	1532	n/a	n/a	0	0	0
1824.056	n/a	WORD	912028	wordpools/wasnorm_wordpool_576.txt	LTP138	ltpFR2	12	8	BANKER	84	n/a	n/a	0	0	0
1826.752	n/a	WORD	913376	wordpools/wasnorm_wordpool_576.txt	LTP138	ltpFR2	12	8	JOURNAL	760	n/a	n/a	0	0	0
1829.234	n/a	WORD	914617	wordpools/wasnorm_wordpool_576.txt	LTP138	ltpFR2	12	8	NOVEL	960	n/a	n/a	0	0	0
1831.946	n/a	WORD	915973	wordpools/wasnorm_wordpool_576.txt	LTP138	ltpFR2	12	8	FOOTBALL	591	n/a	n/a	0	0	0
1834.474	n/a	WORD	917237	wordpools/wasnorm_wordpool_576.txt	LTP138	ltpFR2	12	8	CUPBOARD	425	n/a	n/a	0	0	0
1836.09	n/a	START	918045	n/a	LTP138	ltpFR2	12	n/a	n/a	n/a	13	n/a	n/a	n/a	n/a
1836.952	n/a	DISTRACTOR	918476	n/a	LTP138	ltpFR2	12	8	n/a	n/a	n/a	n/a	0	0	0
1836.954	n/a	PROB	918477	n/a	LTP138	ltpFR2	12	n/a	n/a	n/a	13	13	3	7	3
1839.034	n/a	PROB	919517	n/a	LTP138	ltpFR2	12	n/a	n/a	n/a	13	17	9	7	1
1840.416	n/a	PROB	920208	n/a	LTP138	ltpFR2	12	n/a	n/a	n/a	13	12	1	8	3
1841.93	n/a	PROB	920965	n/a	LTP138	ltpFR2	12	n/a	n/a	n/a	13	16	3	8	5
1843.278	n/a	PROB	921639	n/a	LTP138	ltpFR2	12	n/a	n/a	n/a	13	13	6	3	4
1844.776	n/a	PROB	922388	n/a	LTP138	ltpFR2	12	n/a	n/a	n/a	13	21	5	6	7
1846.706	n/a	PROB	923353	n/a	LTP138	ltpFR2	12	n/a	n/a	n/a	13	18	6	9	3
1848.538	n/a	PROB	924269	n/a	LTP138	ltpFR2	12	n/a	n/a	n/a	13	20	6	6	8
1850.184	n/a	PROB	925092	n/a	LTP138	ltpFR2	12	n/a	n/a	n/a	13	8	6	1	1
1851.384	n/a	PROB	925692	n/a	LTP138	ltpFR2	12	n/a	n/a	n/a	13	17	3	9	5
1852.998	n/a	PROB	926499	n/a	LTP138	ltpFR2	12	n/a	n/a	n/a	13	15	8	4	3
1854.146	n/a	PROB	927073	n/a	LTP138	ltpFR2	12	n/a	n/a	n/a	13	20	6	8	6
1855.76	n/a	PROB	927880	n/a	LTP138	ltpFR2	12	n/a	n/a	n/a	13	17	8	8	1
1857.674	n/a	PROB	928837	n/a	LTP138	ltpFR2	12	n/a	n/a	n/a	13	12	5	3	4
1859.306	n/a	STOP	929653	n/a	LTP138	ltpFR2	12	n/a	n/a	n/a	13	n/a	n/a	n/a	n/a
1862.034	n/a	REC_START	931017	n/a	LTP138	ltpFR2	12	8	n/a	n/a	n/a	n/a	0	0	0
1863.732	n/a	REC_WORD	931866	wordpools/wasnorm_wordpool_576.txt	LTP138	ltpFR2	12	8	FOOTBALL	591	n/a	n/a	0	0	0
1865.116	n/a	REC_WORD	932558	wordpools/wasnorm_wordpool_576.txt	LTP138	ltpFR2	12	8	TYPIST	1532	n/a	n/a	0	0	0
1866.524	n/a	REC_WORD	933262	wordpools/wasnorm_wordpool_576.txt	LTP138	ltpFR2	12	8	BANKER	84	n/a	n/a	0	0	0
1868.096	n/a	REC_WORD	934048	wordpools/wasnorm_wordpool_576.txt	LTP138	ltpFR2	12	8	CYCLONE	431	n/a	n/a	0	0	0
1869.612	n/a	REC_WORD	934806	wordpools/wasnorm_wordpool_576.txt	LTP138	ltpFR2	12	8	LIGHTNING	820	n/a	n/a	0	0	0
1872.676	n/a	REC_WORD	936338	wordpools/wasnorm_wordpool_576.txt	LTP138	ltpFR2	12	8	PARENT	1013	n/a	n/a	0	0	0
1874.422	n/a	REC_WORD	937211	wordpools/wasnorm_wordpool_576.txt	LTP138	ltpFR2	12	8	SNACK	1331	n/a	n/a	0	0	0
1876.014	n/a	REC_WORD	938007	wordpools/wasnorm_wordpool_576.txt	LTP138	ltpFR2	12	8	APPLE	33	n/a	n/a	0	0	0
1877.686	n/a	REC_WORD	938843	wordpools/wasnorm_wordpool_576.txt	LTP138	ltpFR2	12	8	EGYPT	519	n/a	n/a	0	0	0
1882.848	n/a	REC_WORD	941424	wordpools/wasnorm_wordpool_576.txt	LTP138	ltpFR2	12	8	BADGE	68	n/a	n/a	0	0	0
1884.806	n/a	REC_WORD	942403	wordpools/wasnorm_wordpool_576.txt	LTP138	ltpFR2	12	8	BOX	159	n/a	n/a	0	0	0
1886.87	n/a	REC_WORD	943435	wordpools/wasnorm_wordpool_576.txt	LTP138	ltpFR2	12	8	STAKE	1368	n/a	n/a	0	0	0
1888.096	n/a	REC_WORD	944048	wordpools/wasnorm_wordpool_576.txt	LTP138	ltpFR2	12	8	CABIN	211	n/a	n/a	0	0	0
1889.41	n/a	REC_WORD	944705	wordpools/wasnorm_wordpool_576.txt	LTP138	ltpFR2	12	8	BUTCHER	203	n/a	n/a	0	0	0
1892.518	n/a	REC_WORD	946259	wordpools/wasnorm_wordpool_576.txt	LTP138	ltpFR2	12	8	CUPBOARD	425	n/a	n/a	0	0	0
1896.018	n/a	REC_WORD	948009	wordpools/wasnorm_wordpool_576.txt	LTP138	ltpFR2	12	8	MEAT	883	n/a	n/a	0	0	0
1900.33	n/a	REC_WORD	950165	wordpools/wasnorm_wordpool_576.txt	LTP138	ltpFR2	12	8	LAGOON	795	n/a	n/a	0	0	0
1901.596	n/a	REC_WORD	950798	wordpools/wasnorm_wordpool_576.txt	LTP138	ltpFR2	12	8	DIVER	476	n/a	n/a	0	0	0
1902.52	n/a	REC_WORD	951260	wordpools/wasnorm_wordpool_576.txt	LTP138	ltpFR2	12	8	TRUCK	1512	n/a	n/a	0	0	0
1903.764	n/a	REC_WORD	951882	wordpools/wasnorm_wordpool_576.txt	LTP138	ltpFR2	12	8	PEDAL	1037	n/a	n/a	0	0	0
1938.67	n/a	REST_REWET	969335	n/a	LTP138	ltpFR2	12	8	n/a	n/a	n/a	n/a	0	0	0
2442.908	n/a	DISTRACTOR	1221454	n/a	LTP138	ltpFR2	12	9	n/a	n/a	n/a	n/a	0	0	0
2442.908	n/a	START	1221454	n/a	LTP138	ltpFR2	12	n/a	n/a	n/a	14	n/a	n/a	n/a	n/a
2442.94	n/a	PROB	1221470	n/a	LTP138	ltpFR2	12	n/a	n/a	n/a	14	13	7	5	1
2444.622	n/a	PROB	1222311	n/a	LTP138	ltpFR2	12	n/a	n/a	n/a	14	10	1	4	5
2445.804	n/a	PROB	1222902	n/a	LTP138	ltpFR2	12	n/a	n/a	n/a	14	15	9	2	4
2447.268	n/a	PROB	1223634	n/a	LTP138	ltpFR2	12	n/a	n/a	n/a	14	14	4	7	3
2448.382	n/a	PROB	1224191	n/a	LTP138	ltpFR2	12	n/a	n/a	n/a	14	16	7	4	5
2449.798	n/a	PROB	1224899	n/a	LTP138	ltpFR2	12	n/a	n/a	n/a	14	17	2	9	6
2451.91	n/a	PROB	1225955	n/a	LTP138	ltpFR2	12	n/a	n/a	n/a	14	13	4	1	8
2453.442	n/a	PROB	1226721	n/a	LTP138	ltpFR2	12	n/a	n/a	n/a	14	14	8	3	3
2454.64	n/a	PROB	1227320	n/a	LTP138	ltpFR2	12	n/a	n/a	n/a	14	7	4	2	1
2457.004	n/a	PROB	1228502	n/a	LTP138	ltpFR2	12	n/a	n/a	n/a	14	19	9	6	4
2458.334	n/a	PROB	1229167	n/a	LTP138	ltpFR2	12	n/a	n/a	n/a	14	20	6	7	7
2459.8	n/a	PROB	1229900	n/a	LTP138	ltpFR2	12	n/a	n/a	n/a	14	23	6	8	9
2463.328	n/a	PROB	1231664	n/a	LTP138	ltpFR2	12	n/a	n/a	n/a	14	19	4	7	8
2464.808	n/a	PROB	1232404	n/a	LTP138	ltpFR2	12	n/a	n/a	n/a	14	16	3	6	7
2466.05	n/a	STOP	1233025	n/a	LTP138	ltpFR2	12	n/a	n/a	n/a	14	n/a	n/a	n/a	n/a
2468.004	n/a	WORD	1234002	wordpools/wasnorm_wordpool_576.txt	LTP138	ltpFR2	12	9	BUBBLE	183	n/a	n/a	0	0	0
2470.6	n/a	WORD	1235300	wordpools/wasnorm_wordpool_576.txt	LTP138	ltpFR2	12	9	GLOVE	642	n/a	n/a	0	0	0
2473.296	n/a	WORD	1236648	wordpools/wasnorm_wordpool_576.txt	LTP138	ltpFR2	12	9	CHURCH	307	n/a	n/a	0	0	0
2476.076	n/a	WORD	1238038	wordpools/wasnorm_wordpool_576.txt	LTP138	ltpFR2	12	9	CROSS	413	n/a	n/a	0	0	0
2478.738	n/a	WORD	1239369	wordpools/wasnorm_wordpool_576.txt	LTP138	ltpFR2	12	9	YARN	1631	n/a	n/a	0	0	0
2481.35	n/a	WORD	1240675	wordpools/wasnorm_wordpool_576.txt	LTP138	ltpFR2	12	9	ORCHID	982	n/a	n/a	0	0	0
2483.848	n/a	WORD	1241924	wordpools/wasnorm_wordpool_576.txt	LTP138	ltpFR2	12	9	WHISKERS	1605	n/a	n/a	0	0	0
2486.394	n/a	WORD	1243197	wordpools/wasnorm_wordpool_576.txt	LTP138	ltpFR2	12	9	UMPIRE	1535	n/a	n/a	0	0	0
2489.14	n/a	WORD	1244570	wordpools/wasnorm_wordpool_576.txt	LTP138	ltpFR2	12	9	GAVEL	627	n/a	n/a	0	0	0
2491.586	n/a	WORD	1245793	wordpools/wasnorm_wordpool_576.txt	LTP138	ltpFR2	12	9	HOSTESS	723	n/a	n/a	0	0	0
2494.232	n/a	WORD	1247116	wordpools/wasnorm_wordpool_576.txt	LTP138	ltpFR2	12	9	CANAL	226	n/a	n/a	0	0	0
2496.962	n/a	WORD	1248481	wordpools/wasnorm_wordpool_576.txt	LTP138	ltpFR2	12	9	SUMMIT	1405	n/a	n/a	0	0	0
2499.69	n/a	WORD	1249845	wordpools/wasnorm_wordpool_576.txt	LTP138	ltpFR2	12	9	SHERIFF	1284	n/a	n/a	0	0	0
2502.404	n/a	WORD	1251202	wordpools/wasnorm_wordpool_576.txt	LTP138	ltpFR2	12	9	PLUTO	1092	n/a	n/a	0	0	0
2504.982	n/a	WORD	1252491	wordpools/wasnorm_wordpool_576.txt	LTP138	ltpFR2	12	9	HOUND	724	n/a	n/a	0	0	0
2507.696	n/a	WORD	1253848	wordpools/wasnorm_wordpool_576.txt	LTP138	ltpFR2	12	9	AGENT	10	n/a	n/a	0	0	0
2510.492	n/a	WORD	1255246	wordpools/wasnorm_wordpool_576.txt	LTP138	ltpFR2	12	9	PARSLEY	1016	n/a	n/a	0	0	0
2513.204	n/a	WORD	1256602	wordpools/wasnorm_wordpool_576.txt	LTP138	ltpFR2	12	9	TURNIP	1521	n/a	n/a	0	0	0
2515.948	n/a	WORD	1257974	wordpools/wasnorm_wordpool_576.txt	LTP138	ltpFR2	12	9	PREACHER	1119	n/a	n/a	0	0	0
2518.396	n/a	WORD	1259198	wordpools/wasnorm_wordpool_576.txt	LTP138	ltpFR2	12	9	COUSIN	392	n/a	n/a	0	0	0
2520.958	n/a	WORD	1260479	wordpools/wasnorm_wordpool_576.txt	LTP138	ltpFR2	12	9	VAGRANT	1544	n/a	n/a	0	0	0
2523.572	n/a	WORD	1261786	wordpools/wasnorm_wordpool_576.txt	LTP138	ltpFR2	12	9	PACKAGE	997	n/a	n/a	0	0	0
2526.118	n/a	WORD	1263059	wordpools/wasnorm_wordpool_576.txt	LTP138	ltpFR2	12	9	HAND	683	n/a	n/a	0	0	0
2528.764	n/a	WORD	1264382	wordpools/wasnorm_wordpool_576.txt	LTP138	ltpFR2	12	9	SUPPER	1411	n/a	n/a	0	0	0
2530.378	n/a	START	1265189	n/a	LTP138	ltpFR2	12	n/a	n/a	n/a	15	n/a	n/a	n/a	n/a
2531.432	n/a	DISTRACTOR	1265716	n/a	LTP138	ltpFR2	12	9	n/a	n/a	n/a	n/a	0	0	0
2531.442	n/a	PROB	1265721	n/a	LTP138	ltpFR2	12	n/a	n/a	n/a	15	15	4	3	8
2533.19	n/a	PROB	1266595	n/a	LTP138	ltpFR2	12	n/a	n/a	n/a	15	10	1	6	3
2534.554	n/a	PROB	1267277	n/a	LTP138	ltpFR2	12	n/a	n/a	n/a	15	23	7	8	8
2539.864	n/a	PROB	1269932	n/a	LTP138	ltpFR2	12	n/a	n/a	n/a	15	12	6	4	2
2541.278	n/a	PROB	1270639	n/a	LTP138	ltpFR2	12	n/a	n/a	n/a	15	17	8	8	1
2542.776	n/a	PROB	1271388	n/a	LTP138	ltpFR2	12	n/a	n/a	n/a	15	17	8	2	7
2544.956	n/a	PROB	1272478	n/a	LTP138	ltpFR2	12	n/a	n/a	n/a	15	14	3	6	5
2546.754	n/a	PROB	1273377	n/a	LTP138	ltpFR2	12	n/a	n/a	n/a	15	21	6	5	7
2548.584	n/a	PROB	1274292	n/a	LTP138	ltpFR2	12	n/a	n/a	n/a	15	15	5	7	3
2549.75	n/a	PROB	1274875	n/a	LTP138	ltpFR2	12	n/a	n/a	n/a	15	15	9	5	1
2551.48	n/a	PROB	1275740	n/a	LTP138	ltpFR2	12	n/a	n/a	n/a	15	14	3	8	3
2552.82	n/a	STOP	1276410	n/a	LTP138	ltpFR2	12	n/a	n/a	n/a	15	n/a	n/a	n/a	n/a
2556.34	n/a	REC_START	1278170	n/a	LTP138	ltpFR2	12	9	n/a	n/a	n/a	n/a	0	0	0
2557.322	n/a	REC_WORD	1278661	wordpools/wasnorm_wordpool_576.txt	LTP138	ltpFR2	12	9	HAND	683	n/a	n/a	0	0	0
2558.236	n/a	REC_WORD	1279118	wordpools/wasnorm_wordpool_576.txt	LTP138	ltpFR2	12	9	GLOVE	642	n/a	n/a	0	0	0
2559.306	n/a	REC_WORD	1279653	wordpools/wasnorm_wordpool_576.txt	LTP138	ltpFR2	12	9	BUBBLE	183	n/a	n/a	0	0	0
2561.094	n/a	REC_WORD	1280547	wordpools/wasnorm_wordpool_576.txt	LTP138	ltpFR2	12	9	VAGRANT	1544	n/a	n/a	0	0	0
2562.194	n/a	REC_WORD	1281097	wordpools/wasnorm_wordpool_576.txt	LTP138	ltpFR2	12	9	BOX	159	n/a	n/a	0	0	0
2563.026	n/a	REC_WORD	1281513	wordpools/wasnorm_wordpool_576.txt	LTP138	ltpFR2	12	9	COUSIN	392	n/a	n/a	0	0	0
2564.72	n/a	REC_WORD	1282360	wordpools/wasnorm_wordpool_576.txt	LTP138	ltpFR2	12	9	PREACHER	1119	n/a	n/a	0	0	0
2568.102	n/a	REC_WORD	1284051	wordpools/wasnorm_wordpool_576.txt	LTP138	ltpFR2	12	9	CHURCH	307	n/a	n/a	0	0	0
2569.77	n/a	REC_WORD	1284885	wordpools/wasnorm_wordpool_576.txt	LTP138	ltpFR2	12	9	CROSS	413	n/a	n/a	0	0	0
2571.524	n/a	REC_WORD	1285762	wordpools/wasnorm_wordpool_576.txt	LTP138	ltpFR2	12	9	SUPPER	1411	n/a	n/a	0	0	0
2573.134	n/a	REC_WORD	1286567	wordpools/wasnorm_wordpool_576.txt	LTP138	ltpFR2	12	9	PARSLEY	1016	n/a	n/a	0	0	0
2574.598	n/a	REC_WORD	1287299	wordpools/wasnorm_wordpool_576.txt	LTP138	ltpFR2	12	9	TURNIP	1521	n/a	n/a	0	0	0
2576.654	n/a	REC_WORD	1288327	wordpools/wasnorm_wordpool_576.txt	LTP138	ltpFR2	12	9	PLUTO	1092	n/a	n/a	0	0	0
2587.452	n/a	REC_WORD	1293726	wordpools/wasnorm_wordpool_576.txt	LTP138	ltpFR2	12	9	ORCHID	982	n/a	n/a	0	0	0
2589.824	n/a	REC_WORD	1294912	wordpools/wasnorm_wordpool_576.txt	LTP138	ltpFR2	12	9	HOUND	724	n/a	n/a	0	0	0
2591.926	n/a	REC_WORD	1295963	wordpools/wasnorm_wordpool_576.txt	LTP138	ltpFR2	12	9	WHISKERS	1605	n/a	n/a	0	0	0
2594.558	n/a	REC_WORD	1297279	wordpools/wasnorm_wordpool_576.txt	LTP138	ltpFR2	12	9	SHERIFF	1284	n/a	n/a	0	0	0
2596.208	n/a	REC_WORD	1298104	wordpools/wasnorm_wordpool_576.txt	LTP138	ltpFR2	12	9	AGENT	10	n/a	n/a	0	0	0
2606.414	n/a	REC_WORD	1303207	wordpools/wasnorm_wordpool_576.txt	LTP138	ltpFR2	12	9	BADGE	68	n/a	n/a	0	0	0
2701.508	n/a	WORD	1350754	wordpools/wasnorm_wordpool_576.txt	LTP138	ltpFR2	12	10	WAGON	1578	n/a	n/a	0	0	0
2704.072	n/a	WORD	1352036	wordpools/wasnorm_wordpool_576.txt	LTP138	ltpFR2	12	10	COCKTAIL	338	n/a	n/a	0	0	0
2706.85	n/a	WORD	1353425	wordpools/wasnorm_wordpool_576.txt	LTP138	ltpFR2	12	10	GHETTO	633	n/a	n/a	0	0	0
2709.496	n/a	WORD	1354748	wordpools/wasnorm_wordpool_576.txt	LTP138	ltpFR2	12	10	EUROPE	541	n/a	n/a	0	0	0
2711.96	n/a	WORD	1355980	wordpools/wasnorm_wordpool_576.txt	LTP138	ltpFR2	12	10	COUNTRY	388	n/a	n/a	0	0	0
2714.556	n/a	WORD	1357278	wordpools/wasnorm_wordpool_576.txt	LTP138	ltpFR2	12	10	PATIENT	1024	n/a	n/a	0	0	0
2717.152	n/a	WORD	1358576	wordpools/wasnorm_wordpool_576.txt	LTP138	ltpFR2	12	10	NURSE	963	n/a	n/a	0	0	0
2719.964	n/a	WORD	1359982	wordpools/wasnorm_wordpool_576.txt	LTP138	ltpFR2	12	10	PICTURE	1061	n/a	n/a	0	0	0
2722.744	n/a	WORD	1361372	wordpools/wasnorm_wordpool_576.txt	LTP138	ltpFR2	12	10	SHELTER	1282	n/a	n/a	0	0	0
2725.54	n/a	WORD	1362770	wordpools/wasnorm_wordpool_576.txt	LTP138	ltpFR2	12	10	PROTON	1132	n/a	n/a	0	0	0
2728.218	n/a	WORD	1364109	wordpools/wasnorm_wordpool_576.txt	LTP138	ltpFR2	12	10	MISTER	901	n/a	n/a	0	0	0
2730.88	n/a	WORD	1365440	wordpools/wasnorm_wordpool_576.txt	LTP138	ltpFR2	12	10	SCOTCH	1251	n/a	n/a	0	0	0
2733.66	n/a	WORD	1366830	wordpools/wasnorm_wordpool_576.txt	LTP138	ltpFR2	12	10	HERO	706	n/a	n/a	0	0	0
2736.14	n/a	WORD	1368070	wordpools/wasnorm_wordpool_576.txt	LTP138	ltpFR2	12	10	SKILLET	1317	n/a	n/a	0	0	0
2738.62	n/a	WORD	1369310	wordpools/wasnorm_wordpool_576.txt	LTP138	ltpFR2	12	10	HORSE	719	n/a	n/a	0	0	0
2741.416	n/a	WORD	1370708	wordpools/wasnorm_wordpool_576.txt	LTP138	ltpFR2	12	10	SPOUSE	1358	n/a	n/a	0	0	0
2744.212	n/a	WORD	1372106	wordpools/wasnorm_wordpool_576.txt	LTP138	ltpFR2	12	10	NOMAD	955	n/a	n/a	0	0	0
2746.774	n/a	WORD	1373387	wordpools/wasnorm_wordpool_576.txt	LTP138	ltpFR2	12	10	TILE	1468	n/a	n/a	0	0	0
2749.42	n/a	WORD	1374710	wordpools/wasnorm_wordpool_576.txt	LTP138	ltpFR2	12	10	STAR	1373	n/a	n/a	0	0	0
2752.234	n/a	WORD	1376117	wordpools/wasnorm_wordpool_576.txt	LTP138	ltpFR2	12	10	ROOSTER	1209	n/a	n/a	0	0	0
2754.796	n/a	WORD	1377398	wordpools/wasnorm_wordpool_576.txt	LTP138	ltpFR2	12	10	STONE	1385	n/a	n/a	0	0	0
2757.392	n/a	WORD	1378696	wordpools/wasnorm_wordpool_576.txt	LTP138	ltpFR2	12	10	GRAPE	654	n/a	n/a	0	0	0
2759.922	n/a	WORD	1379961	wordpools/wasnorm_wordpool_576.txt	LTP138	ltpFR2	12	10	PEACH	1031	n/a	n/a	0	0	0
2762.734	n/a	WORD	1381367	wordpools/wasnorm_wordpool_576.txt	LTP138	ltpFR2	12	10	BRIEFCASE	175	n/a	n/a	0	0	0
2764.348	n/a	START	1382174	n/a	LTP138	ltpFR2	12	n/a	n/a	n/a	16	n/a	n/a	n/a	n/a
2765.238	n/a	DISTRACTOR	1382619	n/a	LTP138	ltpFR2	12	10	n/a	n/a	n/a	n/a	0	0	0
2765.248	n/a	PROB	1382624	n/a	LTP138	ltpFR2	12	n/a	n/a	n/a	16	14	6	1	7
2766.894	n/a	PROB	1383447	n/a	LTP138	ltpFR2	12	n/a	n/a	n/a	16	11	1	3	7
2768.276	n/a	PROB	1384138	n/a	LTP138	ltpFR2	12	n/a	n/a	n/a	16	17	8	8	1
2769.69	n/a	PROB	1384845	n/a	LTP138	ltpFR2	12	n/a	n/a	n/a	16	14	4	1	9
2771.204	n/a	PROB	1385602	n/a	LTP138	ltpFR2	12	n/a	n/a	n/a	16	10	1	7	2
2773.252	n/a	PROB	1386626	n/a	LTP138	ltpFR2	12	n/a	n/a	n/a	16	12	2	7	3
2774.516	n/a	PROB	1387258	n/a	LTP138	ltpFR2	12	n/a	n/a	n/a	16	14	6	1	7
2775.764	n/a	PROB	1387882	n/a	LTP138	ltpFR2	12	n/a	n/a	n/a	16	11	4	2	5
2777.296	n/a	PROB	1388648	n/a	LTP138	ltpFR2	12	n/a	n/a	n/a	16	9	4	4	1
2778.644	n/a	PROB	1389322	n/a	LTP138	ltpFR2	12	n/a	n/a	n/a	16	16	4	9	3
2780.374	n/a	PROB	1390187	n/a	LTP138	ltpFR2	12	n/a	n/a	n/a	16	12	5	4	3
2781.94	n/a	PROB	1390970	n/a	LTP138	ltpFR2	12	n/a	n/a	n/a	16	14	4	3	7
2783.17	n/a	PROB	1391585	n/a	LTP138	ltpFR2	12	n/a	n/a	n/a	16	10	6	3	1
2784.518	n/a	PROB	1392259	n/a	LTP138	ltpFR2	12	n/a	n/a	n/a	16	15	6	6	3
2786.066	n/a	PROB	1393033	n/a	LTP138	ltpFR2	12	n/a	n/a	n/a	16	18	5	9	4
2787.622	n/a	STOP	1393811	n/a	LTP138	ltpFR2	12	n/a	n/a	n/a	16	n/a	n/a	n/a	n/a
2790.26	n/a	REC_START	1395130	n/a	LTP138	ltpFR2	12	10	n/a	n/a	n/a	n/a	0	0	0
2791.814	n/a	REC_WORD	1395907	wordpools/wasnorm_wordpool_576.txt	LTP138	ltpFR2	12	10	GHETTO	633	n/a	n/a	0	0	0
2792.438	n/a	REC_WORD	1396219	wordpools/wasnorm_wordpool_576.txt	LTP138	ltpFR2	12	10	SHELTER	1282	n/a	n/a	0	0	0
2793.278	n/a	REC_WORD	1396639	wordpools/wasnorm_wordpool_576.txt	LTP138	ltpFR2	12	10	NURSE	963	n/a	n/a	0	0	0
2793.932	n/a	REC_WORD	1396966	wordpools/wasnorm_wordpool_576.txt	LTP138	ltpFR2	12	10	PATIENT	1024	n/a	n/a	0	0	0
2794.684	n/a	REC_WORD	1397342	wordpools/wasnorm_wordpool_576.txt	LTP138	ltpFR2	12	10	MISTER	901	n/a	n/a	0	0	0
2795.56	n/a	REC_WORD	1397780	wordpools/wasnorm_wordpool_576.txt	LTP138	ltpFR2	12	10	SCOTCH	1251	n/a	n/a	0	0	0
2796.35	n/a	REC_WORD	1398175	wordpools/wasnorm_wordpool_576.txt	LTP138	ltpFR2	12	10	COCKTAIL	338	n/a	n/a	0	0	0
2797.384	n/a	REC_WORD	1398692	wordpools/wasnorm_wordpool_576.txt	LTP138	ltpFR2	12	10	WAGON	1578	n/a	n/a	0	0	0
2800.008	n/a	REC_WORD	1400004	wordpools/wasnorm_wordpool_576.txt	LTP138	ltpFR2	12	10	TILE	1468	n/a	n/a	0	0	0
2802.382	n/a	REC_WORD	1401191	wordpools/wasnorm_wordpool_576.txt	LTP138	ltpFR2	12	10	BRIEFCASE	175	n/a	n/a	0	0	0
2807.066	n/a	REC_WORD	1403533	wordpools/wasnorm_wordpool_576.txt	LTP138	ltpFR2	12	10	GRAPE	654	n/a	n/a	0	0	0
2813.512	n/a	REC_WORD	1406756	wordpools/wasnorm_wordpool_576.txt	LTP138	ltpFR2	12	10	NOMAD	955	n/a	n/a	0	0	0
2817.914	n/a	REC_WORD	1408957	wordpools/wasnorm_wordpool_576.txt	LTP138	ltpFR2	12	10	SCOTCH	1251	n/a	n/a	0	0	0
2819.088	n/a	REC_WORD	1409544	wordpools/wasnorm_wordpool_576.txt	LTP138	ltpFR2	12	10	SKILLET	1317	n/a	n/a	0	0	0
2838.806	n/a	REC_WORD	1419403	wordpools/wasnorm_wordpool_576.txt	LTP138	ltpFR2	12	10	CITRUS	313	n/a	n/a	0	0	0
2858.494	n/a	REC_WORD	1429247	wordpools/wasnorm_wordpool_576.txt	LTP138	ltpFR2	12	10	HORSE	719	n/a	n/a	0	0	0
2859.338	n/a	REC_WORD	1429669	wordpools/wasnorm_wordpool_576.txt	LTP138	ltpFR2	12	10	SPOUSE	1358	n/a	n/a	0	0	0
2880.96	n/a	WORD	1440480	wordpools/wasnorm_wordpool_576.txt	LTP138	ltpFR2	12	11	MATCH	878	n/a	n/a	0	0	0
2883.772	n/a	WORD	1441886	wordpools/wasnorm_wordpool_576.txt	LTP138	ltpFR2	12	11	PIZZA	1079	n/a	n/a	0	0	0
2886.468	n/a	WORD	1443234	wordpools/wasnorm_wordpool_576.txt	LTP138	ltpFR2	12	11	YACHT	1629	n/a	n/a	0	0	0
2888.98	n/a	WORD	1444490	wordpools/wasnorm_wordpool_576.txt	LTP138	ltpFR2	12	11	INMATE	738	n/a	n/a	0	0	0
2891.528	n/a	WORD	1445764	wordpools/wasnorm_wordpool_576.txt	LTP138	ltpFR2	12	11	CONVICT	371	n/a	n/a	0	0	0
2893.974	n/a	WORD	1446987	wordpools/wasnorm_wordpool_576.txt	LTP138	ltpFR2	12	11	STUDENT	1395	n/a	n/a	0	0	0
2896.536	n/a	WORD	1448268	wordpools/wasnorm_wordpool_576.txt	LTP138	ltpFR2	12	11	GARDEN	623	n/a	n/a	0	0	0
2898.966	n/a	WORD	1449483	wordpools/wasnorm_wordpool_576.txt	LTP138	ltpFR2	12	11	SHELF	1280	n/a	n/a	0	0	0
2901.546	n/a	WORD	1450773	wordpools/wasnorm_wordpool_576.txt	LTP138	ltpFR2	12	11	PASSAGE	1019	n/a	n/a	0	0	0
2904.324	n/a	WORD	1452162	wordpools/wasnorm_wordpool_576.txt	LTP138	ltpFR2	12	11	HIGHWAY	707	n/a	n/a	0	0	0
2906.904	n/a	WORD	1453452	wordpools/wasnorm_wordpool_576.txt	LTP138	ltpFR2	12	11	QUAIL	1147	n/a	n/a	0	0	0
2909.584	n/a	WORD	1454792	wordpools/wasnorm_wordpool_576.txt	LTP138	ltpFR2	12	11	DRAWING	494	n/a	n/a	0	0	0
2912.33	n/a	WORD	1456165	wordpools/wasnorm_wordpool_576.txt	LTP138	ltpFR2	12	11	TURTLE	1522	n/a	n/a	0	0	0
2914.976	n/a	WORD	1457488	wordpools/wasnorm_wordpool_576.txt	LTP138	ltpFR2	12	11	ATOM	55	n/a	n/a	0	0	0
2917.422	n/a	WORD	1458711	wordpools/wasnorm_wordpool_576.txt	LTP138	ltpFR2	12	11	FLASHLIGHT	575	n/a	n/a	0	0	0
2920.036	n/a	WORD	1460018	wordpools/wasnorm_wordpool_576.txt	LTP138	ltpFR2	12	11	SPONGE	1355	n/a	n/a	0	0	0
2922.464	n/a	WORD	1461232	wordpools/wasnorm_wordpool_576.txt	LTP138	ltpFR2	12	11	CATTLE	261	n/a	n/a	0	0	0
2924.912	n/a	WORD	1462456	wordpools/wasnorm_wordpool_576.txt	LTP138	ltpFR2	12	11	DRAGON	492	n/a	n/a	0	0	0
2927.458	n/a	WORD	1463729	wordpools/wasnorm_wordpool_576.txt	LTP138	ltpFR2	12	11	SUSPECT	1415	n/a	n/a	0	0	0
2930.204	n/a	WORD	1465102	wordpools/wasnorm_wordpool_576.txt	LTP138	ltpFR2	12	11	CHAUFFEUR	283	n/a	n/a	0	0	0
2932.982	n/a	WORD	1466491	wordpools/wasnorm_wordpool_576.txt	LTP138	ltpFR2	12	11	MOP	916	n/a	n/a	0	0	0
2935.646	n/a	WORD	1467823	wordpools/wasnorm_wordpool_576.txt	LTP138	ltpFR2	12	11	TUNNEL	1519	n/a	n/a	0	0	0
2938.242	n/a	WORD	1469121	wordpools/wasnorm_wordpool_576.txt	LTP138	ltpFR2	12	11	SAUSAGE	1238	n/a	n/a	0	0	0
2940.954	n/a	WORD	1470477	wordpools/wasnorm_wordpool_576.txt	LTP138	ltpFR2	12	11	TEACHER	1440	n/a	n/a	0	0	0
2942.568	n/a	START	1471284	n/a	LTP138	ltpFR2	12	n/a	n/a	n/a	17	n/a	n/a	n/a	n/a
2943.418	n/a	DISTRACTOR	1471709	n/a	LTP138	ltpFR2	12	11	n/a	n/a	n/a	n/a	0	0	0
2943.432	n/a	PROB	1471716	n/a	LTP138	ltpFR2	12	n/a	n/a	n/a	17	7	1	4	2
2945.264	n/a	PROB	1472632	n/a	LTP138	ltpFR2	12	n/a	n/a	n/a	17	12	6	1	5
2946.612	n/a	PROB	1473306	n/a	LTP138	ltpFR2	12	n/a	n/a	n/a	17	13	7	1	4
2948.892	n/a	PROB	1474446	n/a	LTP138	ltpFR2	12	n/a	n/a	n/a	17	12	7	3	2
2951.038	n/a	PROB	1475519	n/a	LTP138	ltpFR2	12	n/a	n/a	n/a	17	16	7	4	5
2952.736	n/a	PROB	1476368	n/a	LTP138	ltpFR2	12	n/a	n/a	n/a	17	20	7	7	6
2954.218	n/a	PROB	1477109	n/a	LTP138	ltpFR2	12	n/a	n/a	n/a	17	18	5	8	5
2955.466	n/a	PROB	1477733	n/a	LTP138	ltpFR2	12	n/a	n/a	n/a	17	8	3	4	1
2956.98	n/a	PROB	1478490	n/a	LTP138	ltpFR2	12	n/a	n/a	n/a	17	19	6	6	7
2959.46	n/a	PROB	1479730	n/a	LTP138	ltpFR2	12	n/a	n/a	n/a	17	12	5	3	4
2961.79	n/a	PROB	1480895	n/a	LTP138	ltpFR2	12	n/a	n/a	n/a	17	9	5	3	1
2963.986	n/a	PROB	1481993	n/a	LTP138	ltpFR2	12	n/a	n/a	n/a	17	21	7	5	9
2966.08	n/a	STOP	1483040	n/a	LTP138	ltpFR2	12	n/a	n/a	n/a	17	n/a	n/a	n/a	n/a
2968.496	n/a	REC_START	1484248	n/a	LTP138	ltpFR2	12	11	n/a	n/a	n/a	n/a	0	0	0
2969.672	n/a	REC_WORD	1484836	wordpools/wasnorm_wordpool_576.txt	LTP138	ltpFR2	12	11	HIGHWAY	707	n/a	n/a	0	0	0
2970.56	n/a	REC_WORD	1485280	wordpools/wasnorm_wordpool_576.txt	LTP138	ltpFR2	12	11	PASSAGE	1019	n/a	n/a	0	0	0
2971.588	n/a	REC_WORD	1485794	wordpools/wasnorm_wordpool_576.txt	LTP138	ltpFR2	12	11	TUNNEL	1519	n/a	n/a	0	0	0
2972.886	n/a	REC_WORD	1486443	wordpools/wasnorm_wordpool_576.txt	LTP138	ltpFR2	12	11	FLASHLIGHT	575	n/a	n/a	0	0	0
2975.168	n/a	REC_WORD	1487584	wordpools/wasnorm_wordpool_576.txt	LTP138	ltpFR2	12	11	SAUSAGE	1238	n/a	n/a	0	0	0
2976.366	n/a	REC_WORD	1488183	wordpools/wasnorm_wordpool_576.txt	LTP138	ltpFR2	12	11	PIZZA	1079	n/a	n/a	0	0	0
2977.294	n/a	REC_WORD	1488647	wordpools/wasnorm_wordpool_576.txt	LTP138	ltpFR2	12	11	TEACHER	1440	n/a	n/a	0	0	0
2978.752	n/a	REC_WORD	1489376	wordpools/wasnorm_wordpool_576.txt	LTP138	ltpFR2	12	11	MATCH	878	n/a	n/a	0	0	0
2979.794	n/a	REC_WORD	1489897	wordpools/wasnorm_wordpool_576.txt	LTP138	ltpFR2	12	11	SHELF	1280	n/a	n/a	0	0	0
2980.984	n/a	REC_WORD	1490492	wordpools/wasnorm_wordpool_576.txt	LTP138	ltpFR2	12	11	DRAWING	494	n/a	n/a	0	0	0
2982.512	n/a	REC_WORD	1491256	wordpools/wasnorm_wordpool_576.txt	LTP138	ltpFR2	12	11	CHAUFFEUR	283	n/a	n/a	0	0	0
2984.19	n/a	REC_WORD	1492095	wordpools/wasnorm_wordpool_576.txt	LTP138	ltpFR2	12	11	INMATE	738	n/a	n/a	0	0	0
2988.348	n/a	REC_WORD	1494174	wordpools/wasnorm_wordpool_576.txt	LTP138	ltpFR2	12	11	SUSPECT	1415	n/a	n/a	0	0	0
2989.348	n/a	REC_WORD_VV	1494674	wordpools/wasnorm_wordpool_576.txt	LTP138	ltpFR2	12	11	<>	-1	n/a	n/a	0	0	0
2990.428	n/a	REC_WORD	1495214	wordpools/wasnorm_wordpool_576.txt	LTP138	ltpFR2	12	11	CONVICT	371	n/a	n/a	0	0	0
2993.65	n/a	REC_WORD	1496825	wordpools/wasnorm_wordpool_576.txt	LTP138	ltpFR2	12	11	YACHT	1629	n/a	n/a	0	0	0
2995.942	n/a	REC_WORD	1497971	wordpools/wasnorm_wordpool_576.txt	LTP138	ltpFR2	12	11	SPONGE	1355	n/a	n/a	0	0	0
2998.494	n/a	REC_WORD	1499247	wordpools/wasnorm_wordpool_576.txt	LTP138	ltpFR2	12	11	TORTOISE	1486	n/a	n/a	0	0	0
3000.788	n/a	REC_WORD	1500394	wordpools/wasnorm_wordpool_576.txt	LTP138	ltpFR2	12	11	CATTLE	261	n/a	n/a	0	0	0
3003.586	n/a	REC_WORD	1501793	wordpools/wasnorm_wordpool_576.txt	LTP138	ltpFR2	12	11	DRAGON	492	n/a	n/a	0	0	0
3015.958	n/a	REC_WORD	1507979	wordpools/wasnorm_wordpool_576.txt	LTP138	ltpFR2	12	11	MATCH	878	n/a	n/a	0	0	0
3021.372	n/a	REC_WORD	1510686	wordpools/wasnorm_wordpool_576.txt	LTP138	ltpFR2	12	11	GARDEN	623	n/a	n/a	0	0	0
3059.178	n/a	DISTRACTOR	1529589	n/a	LTP138	ltpFR2	12	12	n/a	n/a	n/a	n/a	0	0	0
3059.178	n/a	START	1529589	n/a	LTP138	ltpFR2	12	n/a	n/a	n/a	18	n/a	n/a	n/a	n/a
3059.212	n/a	PROB	1529606	n/a	LTP138	ltpFR2	12	n/a	n/a	n/a	18	17	3	5	9
3060.876	n/a	PROB	1530438	n/a	LTP138	ltpFR2	12	n/a	n/a	n/a	18	17	2	7	8
3062.424	n/a	PROB	1531212	n/a	LTP138	ltpFR2	12	n/a	n/a	n/a	18	11	7	3	1
3063.672	n/a	PROB	1531836	n/a	LTP138	ltpFR2	12	n/a	n/a	n/a	18	11	6	2	3
3064.986	n/a	PROB	1532493	n/a	LTP138	ltpFR2	12	n/a	n/a	n/a	18	12	4	4	4
3066.318	n/a	PROB	1533159	n/a	LTP138	ltpFR2	12	n/a	n/a	n/a	18	12	7	3	2
3068.098	n/a	PROB	1534049	n/a	LTP138	ltpFR2	12	n/a	n/a	n/a	18	12	2	7	3
3069.28	n/a	PROB	1534640	n/a	LTP138	ltpFR2	12	n/a	n/a	n/a	18	24	7	8	9
3070.694	n/a	PROB	1535347	n/a	LTP138	ltpFR2	12	n/a	n/a	n/a	18	9	5	1	3
3072.226	n/a	PROB	1536113	n/a	LTP138	ltpFR2	12	n/a	n/a	n/a	18	14	1	7	6
3073.84	n/a	PROB	1536920	n/a	LTP138	ltpFR2	12	n/a	n/a	n/a	18	18	2	7	9
3075.554	n/a	PROB	1537777	n/a	LTP138	ltpFR2	12	n/a	n/a	n/a	18	26	6	9	7
3079.016	n/a	PROB	1539508	n/a	LTP138	ltpFR2	12	n/a	n/a	n/a	18	16	6	7	3
3080.33	n/a	PROB	1540165	n/a	LTP138	ltpFR2	12	n/a	n/a	n/a	18	15	2	6	7
3081.882	n/a	STOP	1540941	n/a	LTP138	ltpFR2	12	n/a	n/a	n/a	18	n/a	n/a	n/a	n/a
3084.126	n/a	WORD	1542063	wordpools/wasnorm_wordpool_576.txt	LTP138	ltpFR2	12	12	CROWN	415	n/a	n/a	0	0	0
3086.672	n/a	WORD	1543336	wordpools/wasnorm_wordpool_576.txt	LTP138	ltpFR2	12	12	PALACE	1006	n/a	n/a	0	0	0
3089.168	n/a	WORD	1544584	wordpools/wasnorm_wordpool_576.txt	LTP138	ltpFR2	12	12	LEG	809	n/a	n/a	0	0	0
3091.748	n/a	WORD	1545874	wordpools/wasnorm_wordpool_576.txt	LTP138	ltpFR2	12	12	DANCER	437	n/a	n/a	0	0	0
3094.544	n/a	WORD	1547272	wordpools/wasnorm_wordpool_576.txt	LTP138	ltpFR2	12	12	UNCLE	1536	n/a	n/a	0	0	0
3097.022	n/a	WORD	1548511	wordpools/wasnorm_wordpool_576.txt	LTP138	ltpFR2	12	12	PASTRY	1022	n/a	n/a	0	0	0
3099.62	n/a	WORD	1549810	wordpools/wasnorm_wordpool_576.txt	LTP138	ltpFR2	12	12	LIVER	833	n/a	n/a	0	0	0
3102.282	n/a	WORD	1551141	wordpools/wasnorm_wordpool_576.txt	LTP138	ltpFR2	12	12	OINTMENT	974	n/a	n/a	0	0	0
3104.994	n/a	WORD	1552497	wordpools/wasnorm_wordpool_576.txt	LTP138	ltpFR2	12	12	SCISSORS	1250	n/a	n/a	0	0	0
3107.558	n/a	WORD	1553779	wordpools/wasnorm_wordpool_576.txt	LTP138	ltpFR2	12	12	ZIPPER	1636	n/a	n/a	0	0	0
3110.27	n/a	WORD	1555135	wordpools/wasnorm_wordpool_576.txt	LTP138	ltpFR2	12	12	WINDOW	1611	n/a	n/a	0	0	0
3112.916	n/a	WORD	1556458	wordpools/wasnorm_wordpool_576.txt	LTP138	ltpFR2	12	12	FRUIT	610	n/a	n/a	0	0	0
3115.478	n/a	WORD	1557739	wordpools/wasnorm_wordpool_576.txt	LTP138	ltpFR2	12	12	PLAID	1080	n/a	n/a	0	0	0
3118.042	n/a	WORD	1559021	wordpools/wasnorm_wordpool_576.txt	LTP138	ltpFR2	12	12	DUSTPAN	509	n/a	n/a	0	0	0
3120.472	n/a	WORD	1560236	wordpools/wasnorm_wordpool_576.txt	LTP138	ltpFR2	12	12	CHILD	299	n/a	n/a	0	0	0
3123.236	n/a	WORD	1561618	wordpools/wasnorm_wordpool_576.txt	LTP138	ltpFR2	12	12	ULCER	1533	n/a	n/a	0	0	0
3126.014	n/a	WORD	1563007	wordpools/wasnorm_wordpool_576.txt	LTP138	ltpFR2	12	12	HEADBAND	696	n/a	n/a	0	0	0
3128.46	n/a	WORD	1564230	wordpools/wasnorm_wordpool_576.txt	LTP138	ltpFR2	12	12	MAILMAN	858	n/a	n/a	0	0	0
3131.206	n/a	WORD	1565603	wordpools/wasnorm_wordpool_576.txt	LTP138	ltpFR2	12	12	FIREMAN	569	n/a	n/a	0	0	0
3133.652	n/a	WORD	1566826	wordpools/wasnorm_wordpool_576.txt	LTP138	ltpFR2	12	12	DRILL	497	n/a	n/a	0	0	0
3136.082	n/a	WORD	1568041	wordpools/wasnorm_wordpool_576.txt	LTP138	ltpFR2	12	12	WAITRESS	1581	n/a	n/a	0	0	0
3138.828	n/a	WORD	1569414	wordpools/wasnorm_wordpool_576.txt	LTP138	ltpFR2	12	12	PIANO	1057	n/a	n/a	0	0	0
3141.608	n/a	WORD	1570804	wordpools/wasnorm_wordpool_576.txt	LTP138	ltpFR2	12	12	COOKBOOK	373	n/a	n/a	0	0	0
3144.254	n/a	WORD	1572127	wordpools/wasnorm_wordpool_576.txt	LTP138	ltpFR2	12	12	WAITER	1580	n/a	n/a	0	0	0
3145.868	n/a	START	1572934	n/a	LTP138	ltpFR2	12	n/a	n/a	n/a	19	n/a	n/a	n/a	n/a
3146.706	n/a	DISTRACTOR	1573353	n/a	LTP138	ltpFR2	12	12	n/a	n/a	n/a	n/a	0	0	0
3146.734	n/a	PROB	1573367	n/a	LTP138	ltpFR2	12	n/a	n/a	n/a	19	17	3	8	6
3150.112	n/a	PROB	1575056	n/a	LTP138	ltpFR2	12	n/a	n/a	n/a	19	13	8	1	4
3151.542	n/a	PROB	1575771	n/a	LTP138	ltpFR2	12	n/a	n/a	n/a	19	18	2	9	7
3153.556	n/a	PROB	1576778	n/a	LTP138	ltpFR2	12	n/a	n/a	n/a	19	19	8	9	2
3155.204	n/a	PROB	1577602	n/a	LTP138	ltpFR2	12	n/a	n/a	n/a	19	12	4	1	7
3156.918	n/a	PROB	1578459	n/a	LTP138	ltpFR2	12	n/a	n/a	n/a	19	15	8	3	4
3158.082	n/a	PROB	1579041	n/a	LTP138	ltpFR2	12	n/a	n/a	n/a	19	12	3	4	5
3159.43	n/a	PROB	1579715	n/a	LTP138	ltpFR2	12	n/a	n/a	n/a	19	6	1	4	1
3161.81	n/a	PROB	1580905	n/a	LTP138	ltpFR2	12	n/a	n/a	n/a	19	19	5	6	8
3163.274	n/a	PROB	1581637	n/a	LTP138	ltpFR2	12	n/a	n/a	n/a	19	18	4	7	7
3164.672	n/a	PROB	1582336	n/a	LTP138	ltpFR2	12	n/a	n/a	n/a	19	19	6	6	7
3166.52	n/a	PROB	1583260	n/a	LTP138	ltpFR2	12	n/a	n/a	n/a	19	15	6	8	1
3167.95	n/a	PROB	1583975	n/a	LTP138	ltpFR2	12	n/a	n/a	n/a	19	17	6	7	4
3169.756	n/a	STOP	1584878	n/a	LTP138	ltpFR2	12	n/a	n/a	n/a	19	n/a	n/a	n/a	n/a
3171.696	n/a	REC_START	1585848	n/a	LTP138	ltpFR2	12	12	n/a	n/a	n/a	n/a	0	0	0
3173.312	n/a	REC_WORD	1586656	wordpools/wasnorm_wordpool_576.txt	LTP138	ltpFR2	12	12	UNCLE	1536	n/a	n/a	0	0	0
3174.77	n/a	REC_WORD	1587385	wordpools/wasnorm_wordpool_576.txt	LTP138	ltpFR2	12	12	ULCER	1533	n/a	n/a	0	0	0
3176.076	n/a	REC_WORD	1588038	wordpools/wasnorm_wordpool_576.txt	LTP138	ltpFR2	12	12	COOKBOOK	373	n/a	n/a	0	0	0
3176.96	n/a	REC_WORD	1588480	wordpools/wasnorm_wordpool_576.txt	LTP138	ltpFR2	12	12	HEADBAND	696	n/a	n/a	0	0	0
3178.074	n/a	REC_WORD	1589037	wordpools/wasnorm_wordpool_576.txt	LTP138	ltpFR2	12	12	SCISSORS	1250	n/a	n/a	0	0	0
3179.2	n/a	REC_WORD	1589600	wordpools/wasnorm_wordpool_576.txt	LTP138	ltpFR2	12	12	ZIPPER	1636	n/a	n/a	0	0	0
3180.352	n/a	REC_WORD	1590176	wordpools/wasnorm_wordpool_576.txt	LTP138	ltpFR2	12	12	PASTRY	1022	n/a	n/a	0	0	0
3183.148	n/a	REC_WORD	1591574	wordpools/wasnorm_wordpool_576.txt	LTP138	ltpFR2	12	12	FRUIT	610	n/a	n/a	0	0	0
3184.952	n/a	REC_WORD	1592476	wordpools/wasnorm_wordpool_576.txt	LTP138	ltpFR2	12	12	WINDOW	1611	n/a	n/a	0	0	0
3187.34	n/a	REC_WORD	1593670	wordpools/wasnorm_wordpool_576.txt	LTP138	ltpFR2	12	12	MAILMAN	858	n/a	n/a	0	0	0
3188.534	n/a	REC_WORD	1594267	wordpools/wasnorm_wordpool_576.txt	LTP138	ltpFR2	12	12	FIREMAN	569	n/a	n/a	0	0	0
3190.026	n/a	REC_WORD	1595013	wordpools/wasnorm_wordpool_576.txt	LTP138	ltpFR2	12	12	DANCER	437	n/a	n/a	0	0	0
3191.226	n/a	REC_WORD	1595613	wordpools/wasnorm_wordpool_576.txt	LTP138	ltpFR2	12	12	LEG	809	n/a	n/a	0	0	0
3194.046	n/a	REC_WORD	1597023	wordpools/wasnorm_wordpool_576.txt	LTP138	ltpFR2	12	12	WAITER	1580	n/a	n/a	0	0	0
3195.402	n/a	REC_WORD	1597701	wordpools/wasnorm_wordpool_576.txt	LTP138	ltpFR2	12	12	WAITRESS	1581	n/a	n/a	0	0	0
3196.402	n/a	REC_WORD_VV	1598201	wordpools/wasnorm_wordpool_576.txt	LTP138	ltpFR2	12	12	<>	-1	n/a	n/a	0	0	0
3197.282	n/a	REC_WORD	1598641	wordpools/wasnorm_wordpool_576.txt	LTP138	ltpFR2	12	12	CROWN	415	n/a	n/a	0	0	0
3198.574	n/a	REC_WORD	1599287	wordpools/wasnorm_wordpool_576.txt	LTP138	ltpFR2	12	12	PALACE	1006	n/a	n/a	0	0	0
3215.892	n/a	REC_WORD	1607946	wordpools/wasnorm_wordpool_576.txt	LTP138	ltpFR2	12	12	PIANO	1057	n/a	n/a	0	0	0
3235.68	n/a	REC_WORD	1617840	wordpools/wasnorm_wordpool_576.txt	LTP138	ltpFR2	12	12	DRILL	497	n/a	n/a	0	0	0
3239.128	n/a	REC_WORD	1619564	wordpools/wasnorm_wordpool_576.txt	LTP138	ltpFR2	12	12	DUSTPAN	509	n/a	n/a	0	0	0
3262.428	n/a	DISTRACTOR	1631214	n/a	LTP138	ltpFR2	12	13	n/a	n/a	n/a	n/a	0	0	0
3262.428	n/a	START	1631214	n/a	LTP138	ltpFR2	12	n/a	n/a	n/a	20	n/a	n/a	n/a	n/a
3262.46	n/a	PROB	1631230	n/a	LTP138	ltpFR2	12	n/a	n/a	n/a	20	19	7	3	9
3263.742	n/a	PROB	1631871	n/a	LTP138	ltpFR2	12	n/a	n/a	n/a	20	23	9	8	6
3266.256	n/a	PROB	1633128	n/a	LTP138	ltpFR2	12	n/a	n/a	n/a	20	11	5	5	1
3267.32	n/a	PROB	1633660	n/a	LTP138	ltpFR2	12	n/a	n/a	n/a	20	7	2	2	3
3269.5	n/a	PROB	1634750	n/a	LTP138	ltpFR2	12	n/a	n/a	n/a	20	19	1	9	9
3270.866	n/a	PROB	1635433	n/a	LTP138	ltpFR2	12	n/a	n/a	n/a	20	11	9	1	1
3272.264	n/a	PROB	1636132	n/a	LTP138	ltpFR2	12	n/a	n/a	n/a	20	15	8	5	2
3273.728	n/a	PROB	1636864	n/a	LTP138	ltpFR2	12	n/a	n/a	n/a	20	20	5	8	7
3275.758	n/a	PROB	1637879	n/a	LTP138	ltpFR2	12	n/a	n/a	n/a	20	6	2	1	3
3277.04	n/a	PROB	1638520	n/a	LTP138	ltpFR2	12	n/a	n/a	n/a	20	20	6	9	5
3279.02	n/a	PROB	1639510	n/a	LTP138	ltpFR2	12	n/a	n/a	n/a	20	20	6	9	5
3280.484	n/a	PROB	1640242	n/a	LTP138	ltpFR2	12	n/a	n/a	n/a	20	17	8	1	8
3282.266	n/a	PROB	1641133	n/a	LTP138	ltpFR2	12	n/a	n/a	n/a	20	14	2	4	8
3284.062	n/a	PROB	1642031	n/a	LTP138	ltpFR2	12	n/a	n/a	n/a	20	10	3	5	2
3285.796	n/a	STOP	1642898	n/a	LTP138	ltpFR2	12	n/a	n/a	n/a	20	n/a	n/a	n/a	n/a
3287.608	n/a	WORD	1643804	wordpools/wasnorm_wordpool_576.txt	LTP138	ltpFR2	12	13	FRIEND	606	n/a	n/a	0	0	0
3290.386	n/a	WORD	1645193	wordpools/wasnorm_wordpool_576.txt	LTP138	ltpFR2	12	13	CHEST	295	n/a	n/a	0	0	0
3292.816	n/a	WORD	1646408	wordpools/wasnorm_wordpool_576.txt	LTP138	ltpFR2	12	13	VALVE	1546	n/a	n/a	0	0	0
3295.512	n/a	WORD	1647756	wordpools/wasnorm_wordpool_576.txt	LTP138	ltpFR2	12	13	RUST	1219	n/a	n/a	0	0	0
3297.942	n/a	WORD	1648971	wordpools/wasnorm_wordpool_576.txt	LTP138	ltpFR2	12	13	COTTAGE	384	n/a	n/a	0	0	0
3300.504	n/a	WORD	1650252	wordpools/wasnorm_wordpool_576.txt	LTP138	ltpFR2	12	13	BRICK	172	n/a	n/a	0	0	0
3303.252	n/a	WORD	1651626	wordpools/wasnorm_wordpool_576.txt	LTP138	ltpFR2	12	13	TWEEZERS	1526	n/a	n/a	0	0	0
3305.68	n/a	WORD	1652840	wordpools/wasnorm_wordpool_576.txt	LTP138	ltpFR2	12	13	ARMY	39	n/a	n/a	0	0	0
3308.244	n/a	WORD	1654122	wordpools/wasnorm_wordpool_576.txt	LTP138	ltpFR2	12	13	TRANSPLANT	1496	n/a	n/a	0	0	0
3311.022	n/a	WORD	1655511	wordpools/wasnorm_wordpool_576.txt	LTP138	ltpFR2	12	13	BROOK	177	n/a	n/a	0	0	0
3313.652	n/a	WORD	1656826	wordpools/wasnorm_wordpool_576.txt	LTP138	ltpFR2	12	13	PICNIC	1060	n/a	n/a	0	0	0
3316.432	n/a	WORD	1658216	wordpools/wasnorm_wordpool_576.txt	LTP138	ltpFR2	12	13	SCALLOP	1242	n/a	n/a	0	0	0
3319.246	n/a	WORD	1659623	wordpools/wasnorm_wordpool_576.txt	LTP138	ltpFR2	12	13	CREVICE	405	n/a	n/a	0	0	0
3321.856	n/a	WORD	1660928	wordpools/wasnorm_wordpool_576.txt	LTP138	ltpFR2	12	13	GUARD	667	n/a	n/a	0	0	0
3324.386	n/a	WORD	1662193	wordpools/wasnorm_wordpool_576.txt	LTP138	ltpFR2	12	13	CLAM	315	n/a	n/a	0	0	0
3327.05	n/a	WORD	1663525	wordpools/wasnorm_wordpool_576.txt	LTP138	ltpFR2	12	13	RUG	1215	n/a	n/a	0	0	0
3329.528	n/a	WORD	1664764	wordpools/wasnorm_wordpool_576.txt	LTP138	ltpFR2	12	13	GIFT	635	n/a	n/a	0	0	0
3332.342	n/a	WORD	1666171	wordpools/wasnorm_wordpool_576.txt	LTP138	ltpFR2	12	13	MILK	895	n/a	n/a	0	0	0
3335.088	n/a	WORD	1667544	wordpools/wasnorm_wordpool_576.txt	LTP138	ltpFR2	12	13	SCULPTURE	1258	n/a	n/a	0	0	0
3337.684	n/a	WORD	1668842	wordpools/wasnorm_wordpool_576.txt	LTP138	ltpFR2	12	13	KIDNEY	776	n/a	n/a	0	0	0
3340.248	n/a	WORD	1670124	wordpools/wasnorm_wordpool_576.txt	LTP138	ltpFR2	12	13	SANDWICH	1232	n/a	n/a	0	0	0
3342.792	n/a	WORD	1671396	wordpools/wasnorm_wordpool_576.txt	LTP138	ltpFR2	12	13	COLLEGE	346	n/a	n/a	0	0	0
3345.24	n/a	WORD	1672620	wordpools/wasnorm_wordpool_576.txt	LTP138	ltpFR2	12	13	PEBBLE	1035	n/a	n/a	0	0	0
3347.852	n/a	WORD	1673926	wordpools/wasnorm_wordpool_576.txt	LTP138	ltpFR2	12	13	TART	1436	n/a	n/a	0	0	0
3349.466	n/a	START	1674733	n/a	LTP138	ltpFR2	12	n/a	n/a	n/a	21	n/a	n/a	n/a	n/a
3350.446	n/a	DISTRACTOR	1675223	n/a	LTP138	ltpFR2	12	13	n/a	n/a	n/a	n/a	0	0	0
3350.448	n/a	PROB	1675224	n/a	LTP138	ltpFR2	12	n/a	n/a	n/a	21	13	5	5	3
3352.13	n/a	PROB	1676065	n/a	LTP138	ltpFR2	12	n/a	n/a	n/a	21	18	9	3	6
3354.076	n/a	PROB	1677038	n/a	LTP138	ltpFR2	12	n/a	n/a	n/a	21	15	7	3	5
3356.174	n/a	PROB	1678087	n/a	LTP138	ltpFR2	12	n/a	n/a	n/a	21	11	1	2	8
3357.788	n/a	PROB	1678894	n/a	LTP138	ltpFR2	12	n/a	n/a	n/a	21	14	7	5	2
3359.502	n/a	PROB	1679751	n/a	LTP138	ltpFR2	12	n/a	n/a	n/a	21	16	7	8	1
3361.132	n/a	PROB	1680566	n/a	LTP138	ltpFR2	12	n/a	n/a	n/a	21	20	9	6	5
3362.78	n/a	PROB	1681390	n/a	LTP138	ltpFR2	12	n/a	n/a	n/a	21	10	4	1	5
3364.062	n/a	PROB	1682031	n/a	LTP138	ltpFR2	12	n/a	n/a	n/a	21	14	3	6	5
3366.242	n/a	PROB	1683121	n/a	LTP138	ltpFR2	12	n/a	n/a	n/a	21	13	5	5	3
3373.466	n/a	STOP	1686733	n/a	LTP138	ltpFR2	12	n/a	n/a	n/a	21	n/a	n/a	n/a	n/a
3375.294	n/a	REC_START	1687647	n/a	LTP138	ltpFR2	12	13	n/a	n/a	n/a	n/a	0	0	0
3376.39	n/a	REC_WORD	1688195	wordpools/wasnorm_wordpool_576.txt	LTP138	ltpFR2	12	13	PEBBLE	1035	n/a	n/a	0	0	0
3378.912	n/a	REC_WORD	1689456	wordpools/wasnorm_wordpool_576.txt	LTP138	ltpFR2	12	13	STATUE	1374	n/a	n/a	0	0	0
3380.698	n/a	REC_WORD	1690349	wordpools/wasnorm_wordpool_576.txt	LTP138	ltpFR2	12	13	COTTAGE	384	n/a	n/a	0	0	0
3381.916	n/a	REC_WORD	1690958	wordpools/wasnorm_wordpool_576.txt	LTP138	ltpFR2	12	13	BRICK	172	n/a	n/a	0	0	0
3384.634	n/a	REC_WORD	1692317	wordpools/wasnorm_wordpool_576.txt	LTP138	ltpFR2	12	13	BROOK	177	n/a	n/a	0	0	0
3386.284	n/a	REC_WORD	1693142	wordpools/wasnorm_wordpool_576.txt	LTP138	ltpFR2	12	13	PICNIC	1060	n/a	n/a	0	0	0
3387.742	n/a	REC_WORD	1693871	wordpools/wasnorm_wordpool_576.txt	LTP138	ltpFR2	12	13	SANDWICH	1232	n/a	n/a	0	0	0
3388.952	n/a	REC_WORD	1694476	wordpools/wasnorm_wordpool_576.txt	LTP138	ltpFR2	12	13	TART	1436	n/a	n/a	0	0	0
3390.77	n/a	REC_WORD	1695385	wordpools/wasnorm_wordpool_576.txt	LTP138	ltpFR2	12	13	CLAM	315	n/a	n/a	0	0	0
3392.784	n/a	REC_WORD	1696392	wordpools/wasnorm_wordpool_576.txt	LTP138	ltpFR2	12	13	SCALLOP	1242	n/a	n/a	0	0	0
3395.652	n/a	REC_WORD	1697826	wordpools/wasnorm_wordpool_576.txt	LTP138	ltpFR2	12	13	RUG	1215	n/a	n/a	0	0	0
3398.218	n/a	REC_WORD	1699109	wordpools/wasnorm_wordpool_576.txt	LTP138	ltpFR2	12	13	COLLEGE	346	n/a	n/a	0	0	0
3399.23	n/a	REC_WORD	1699615	wordpools/wasnorm_wordpool_576.txt	LTP138	ltpFR2	12	13	FRIEND	606	n/a	n/a	0	0	0
3401.354	n/a	REC_WORD	1700677	wordpools/wasnorm_wordpool_576.txt	LTP138	ltpFR2	12	13	CHEST	295	n/a	n/a	0	0	0
3403.058	n/a	REC_WORD	1701529	wordpools/wasnorm_wordpool_576.txt	LTP138	ltpFR2	12	13	VALVE	1546	n/a	n/a	0	0	0
3405.17	n/a	REC_WORD	1702585	wordpools/wasnorm_wordpool_576.txt	LTP138	ltpFR2	12	13	RUST	1219	n/a	n/a	0	0	0
3406.99	n/a	REC_WORD	1703495	wordpools/wasnorm_wordpool_576.txt	LTP138	ltpFR2	12	13	TWEEZERS	1526	n/a	n/a	0	0	0
3408.6	n/a	REC_WORD	1704300	wordpools/wasnorm_wordpool_576.txt	LTP138	ltpFR2	12	13	CREVICE	405	n/a	n/a	0	0	0
3411.788	n/a	REC_WORD	1705894	wordpools/wasnorm_wordpool_576.txt	LTP138	ltpFR2	12	13	KIDNEY	776	n/a	n/a	0	0	0
3425.794	n/a	REC_WORD	1712897	wordpools/wasnorm_wordpool_576.txt	LTP138	ltpFR2	12	13	GUARD	667	n/a	n/a	0	0	0
3430.144	n/a	REC_WORD	1715072	wordpools/wasnorm_wordpool_576.txt	LTP138	ltpFR2	12	13	TRANSPLANT	1496	n/a	n/a	0	0	0
3476.544	n/a	WORD	1738272	wordpools/wasnorm_wordpool_576.txt	LTP138	ltpFR2	12	14	VICTIM	1562	n/a	n/a	0	0	0
3479.374	n/a	WORD	1739687	wordpools/wasnorm_wordpool_576.txt	LTP138	ltpFR2	12	14	LADY	794	n/a	n/a	0	0	0
3482.136	n/a	WORD	1741068	wordpools/wasnorm_wordpool_576.txt	LTP138	ltpFR2	12	14	WOMAN	1620	n/a	n/a	0	0	0
3484.832	n/a	WORD	1742416	wordpools/wasnorm_wordpool_576.txt	LTP138	ltpFR2	12	14	YOLK	1633	n/a	n/a	0	0	0
3487.262	n/a	WORD	1743631	wordpools/wasnorm_wordpool_576.txt	LTP138	ltpFR2	12	14	PRINCESS	1125	n/a	n/a	0	0	0
3489.908	n/a	WORD	1744954	wordpools/wasnorm_wordpool_576.txt	LTP138	ltpFR2	12	14	QUEEN	1149	n/a	n/a	0	0	0
3492.638	n/a	WORD	1746319	wordpools/wasnorm_wordpool_576.txt	LTP138	ltpFR2	12	14	SALMON	1227	n/a	n/a	0	0	0
3495.116	n/a	WORD	1747558	wordpools/wasnorm_wordpool_576.txt	LTP138	ltpFR2	12	14	CITRUS	313	n/a	n/a	0	0	0
3497.614	n/a	WORD	1748807	wordpools/wasnorm_wordpool_576.txt	LTP138	ltpFR2	12	14	RACKET	1155	n/a	n/a	0	0	0
3500.126	n/a	WORD	1750063	wordpools/wasnorm_wordpool_576.txt	LTP138	ltpFR2	12	14	LOVER	846	n/a	n/a	0	0	0
3502.772	n/a	WORD	1751386	wordpools/wasnorm_wordpool_576.txt	LTP138	ltpFR2	12	14	DUST	508	n/a	n/a	0	0	0
3505.302	n/a	WORD	1752651	wordpools/wasnorm_wordpool_576.txt	LTP138	ltpFR2	12	14	FLIPPER	580	n/a	n/a	0	0	0
3508.032	n/a	WORD	1754016	wordpools/wasnorm_wordpool_576.txt	LTP138	ltpFR2	12	14	TORTOISE	1486	n/a	n/a	0	0	0
3510.578	n/a	WORD	1755289	wordpools/wasnorm_wordpool_576.txt	LTP138	ltpFR2	12	14	BINDER	127	n/a	n/a	0	0	0
3513.056	n/a	WORD	1756528	wordpools/wasnorm_wordpool_576.txt	LTP138	ltpFR2	12	14	GRAVEL	659	n/a	n/a	0	0	0
3515.704	n/a	WORD	1757852	wordpools/wasnorm_wordpool_576.txt	LTP138	ltpFR2	12	14	MARSH	874	n/a	n/a	0	0	0
3518.166	n/a	WORD	1759083	wordpools/wasnorm_wordpool_576.txt	LTP138	ltpFR2	12	14	COCOON	339	n/a	n/a	0	0	0
3520.696	n/a	WORD	1760348	wordpools/wasnorm_wordpool_576.txt	LTP138	ltpFR2	12	14	CLIMBER	323	n/a	n/a	0	0	0
3523.244	n/a	WORD	1761622	wordpools/wasnorm_wordpool_576.txt	LTP138	ltpFR2	12	14	BURGLAR	200	n/a	n/a	0	0	0
3526.072	n/a	WORD	1763036	wordpools/wasnorm_wordpool_576.txt	LTP138	ltpFR2	12	14	PUDDLE	1140	n/a	n/a	0	0	0
3528.584	n/a	WORD	1764292	wordpools/wasnorm_wordpool_576.txt	LTP138	ltpFR2	12	14	COMPASS	358	n/a	n/a	0	0	0
3531.346	n/a	WORD	1765673	wordpools/wasnorm_wordpool_576.txt	LTP138	ltpFR2	12	14	HIKER	708	n/a	n/a	0	0	0
3534.076	n/a	WORD	1767038	wordpools/wasnorm_wordpool_576.txt	LTP138	ltpFR2	12	14	RECORD	1176	n/a	n/a	0	0	0
3536.556	n/a	WORD	1768278	wordpools/wasnorm_wordpool_576.txt	LTP138	ltpFR2	12	14	SEAGULL	1261	n/a	n/a	0	0	0
3538.17	n/a	START	1769085	n/a	LTP138	ltpFR2	12	n/a	n/a	n/a	22	n/a	n/a	n/a	n/a
3539.234	n/a	DISTRACTOR	1769617	n/a	LTP138	ltpFR2	12	14	n/a	n/a	n/a	n/a	0	0	0
3539.236	n/a	PROB	1769618	n/a	LTP138	ltpFR2	12	n/a	n/a	n/a	22	15	8	6	1
3540.65	n/a	PROB	1770325	n/a	LTP138	ltpFR2	12	n/a	n/a	n/a	22	17	7	9	1
3541.982	n/a	PROB	1770991	n/a	LTP138	ltpFR2	12	n/a	n/a	n/a	22	6	4	1	1
3543.212	n/a	PROB	1771606	n/a	LTP138	ltpFR2	12	n/a	n/a	n/a	22	12	6	5	1
3544.51	n/a	PROB	1772255	n/a	LTP138	ltpFR2	12	n/a	n/a	n/a	22	15	6	1	8
3545.908	n/a	PROB	1772954	n/a	LTP138	ltpFR2	12	n/a	n/a	n/a	22	15	9	2	4
3547.856	n/a	PROB	1773928	n/a	LTP138	ltpFR2	12	n/a	n/a	n/a	22	13	3	3	7
3550.136	n/a	PROB	1775068	n/a	LTP138	ltpFR2	12	n/a	n/a	n/a	22	17	3	9	5
3551.65	n/a	PROB	1775825	n/a	LTP138	ltpFR2	12	n/a	n/a	n/a	22	11	1	6	4
3554.412	n/a	PROB	1777206	n/a	LTP138	ltpFR2	12	n/a	n/a	n/a	22	4	1	1	2
3555.644	n/a	PROB	1777822	n/a	LTP138	ltpFR2	12	n/a	n/a	n/a	22	18	8	7	3
3556.926	n/a	PROB	1778463	n/a	LTP138	ltpFR2	12	n/a	n/a	n/a	22	12	2	5	5
3557.958	n/a	PROB	1778979	n/a	LTP138	ltpFR2	12	n/a	n/a	n/a	22	19	3	7	9
3559.322	n/a	PROB	1779661	n/a	LTP138	ltpFR2	12	n/a	n/a	n/a	22	17	4	7	6
3561.728	n/a	STOP	1780864	n/a	LTP138	ltpFR2	12	n/a	n/a	n/a	22	n/a	n/a	n/a	n/a
3564.132	n/a	REC_START	1782066	n/a	LTP138	ltpFR2	12	14	n/a	n/a	n/a	n/a	0	0	0
3564.852	n/a	REC_WORD	1782426	wordpools/wasnorm_wordpool_576.txt	LTP138	ltpFR2	12	14	HIKER	708	n/a	n/a	0	0	0
3565.952	n/a	REC_WORD_VV	1782976	wordpools/wasnorm_wordpool_576.txt	LTP138	ltpFR2	12	14	<>	-1	n/a	n/a	0	0	0
3566.462	n/a	REC_WORD	1783231	wordpools/wasnorm_wordpool_576.txt	LTP138	ltpFR2	12	14	COMPASS	358	n/a	n/a	0	0	0
3567.48	n/a	REC_WORD	1783740	wordpools/wasnorm_wordpool_576.txt	LTP138	ltpFR2	12	14	RECORD	1176	n/a	n/a	0	0	0
3571.696	n/a	REC_WORD	1785848	wordpools/wasnorm_wordpool_576.txt	LTP138	ltpFR2	12	14	WOMAN	1620	n/a	n/a	0	0	0
3573.386	n/a	REC_WORD	1786693	wordpools/wasnorm_wordpool_576.txt	LTP138	ltpFR2	12	14	VICTIM	1562	n/a	n/a	0	0	0
3574.442	n/a	REC_WORD	1787221	wordpools/wasnorm_wordpool_576.txt	LTP138	ltpFR2	12	14	PRINCESS	1125	n/a	n/a	0	0	0
3575.536	n/a	REC_WORD	1787768	wordpools/wasnorm_wordpool_576.txt	LTP138	ltpFR2	12	14	QUEEN	1149	n/a	n/a	0	0	0
3578.054	n/a	REC_WORD	1789027	wordpools/wasnorm_wordpool_576.txt	LTP138	ltpFR2	12	14	LOVER	846	n/a	n/a	0	0	0
3579.004	n/a	REC_WORD	1789502	wordpools/wasnorm_wordpool_576.txt	LTP138	ltpFR2	12	14	RACKET	1155	n/a	n/a	0	0	0
3580.232	n/a	REC_WORD	1790116	wordpools/wasnorm_wordpool_576.txt	LTP138	ltpFR2	12	14	FLIPPER	580	n/a	n/a	0	0	0
3581.57	n/a	REC_WORD	1790785	wordpools/wasnorm_wordpool_576.txt	LTP138	ltpFR2	12	14	TORTOISE	1486	n/a	n/a	0	0	0
3582.616	n/a	REC_WORD	1791308	wordpools/wasnorm_wordpool_576.txt	LTP138	ltpFR2	12	14	SEAGULL	1261	n/a	n/a	0	0	0
3584.778	n/a	REC_WORD	1792389	wordpools/wasnorm_wordpool_576.txt	LTP138	ltpFR2	12	14	SALMON	1227	n/a	n/a	0	0	0
3585.754	n/a	REC_WORD	1792877	wordpools/wasnorm_wordpool_576.txt	LTP138	ltpFR2	12	14	YOLK	1633	n/a	n/a	0	0	0
3586.464	n/a	REC_WORD	1793232	wordpools/wasnorm_wordpool_576.txt	LTP138	ltpFR2	12	14	CITRUS	313	n/a	n/a	0	0	0
3587.464	n/a	REC_WORD_VV	1793732	wordpools/wasnorm_wordpool_576.txt	LTP138	ltpFR2	12	14	<>	-1	n/a	n/a	0	0	0
3613.82	n/a	REC_WORD	1806910	wordpools/wasnorm_wordpool_576.txt	LTP138	ltpFR2	12	14	DUST	508	n/a	n/a	0	0	0
3654.78	n/a	WORD	1827390	wordpools/wasnorm_wordpool_576.txt	LTP138	ltpFR2	12	15	FARMER	553	n/a	n/a	0	0	0
3657.378	n/a	WORD	1828689	wordpools/wasnorm_wordpool_576.txt	LTP138	ltpFR2	12	15	SCARECROW	1245	n/a	n/a	0	0	0
3659.806	n/a	WORD	1829903	wordpools/wasnorm_wordpool_576.txt	LTP138	ltpFR2	12	15	ELBOW	520	n/a	n/a	0	0	0
3662.502	n/a	WORD	1831251	wordpools/wasnorm_wordpool_576.txt	LTP138	ltpFR2	12	15	RELISH	1183	n/a	n/a	0	0	0
3665.298	n/a	WORD	1832649	wordpools/wasnorm_wordpool_576.txt	LTP138	ltpFR2	12	15	DRIVER	499	n/a	n/a	0	0	0
3668.044	n/a	WORD	1834022	wordpools/wasnorm_wordpool_576.txt	LTP138	ltpFR2	12	15	DORM	488	n/a	n/a	0	0	0
3670.508	n/a	WORD	1835254	wordpools/wasnorm_wordpool_576.txt	LTP138	ltpFR2	12	15	RABBIT	1152	n/a	n/a	0	0	0
3672.988	n/a	WORD	1836494	wordpools/wasnorm_wordpool_576.txt	LTP138	ltpFR2	12	15	CATCHER	258	n/a	n/a	0	0	0
3675.418	n/a	WORD	1837709	wordpools/wasnorm_wordpool_576.txt	LTP138	ltpFR2	12	15	CHAPEL	280	n/a	n/a	0	0	0
3677.946	n/a	WORD	1838973	wordpools/wasnorm_wordpool_576.txt	LTP138	ltpFR2	12	15	TABLE	1426	n/a	n/a	0	0	0
3680.376	n/a	WORD	1840188	wordpools/wasnorm_wordpool_576.txt	LTP138	ltpFR2	12	15	BABY	64	n/a	n/a	0	0	0
3682.856	n/a	WORD	1841428	wordpools/wasnorm_wordpool_576.txt	LTP138	ltpFR2	12	15	CLOUD	328	n/a	n/a	0	0	0
3685.32	n/a	WORD	1842660	wordpools/wasnorm_wordpool_576.txt	LTP138	ltpFR2	12	15	PEPPER	1047	n/a	n/a	0	0	0
3688.032	n/a	WORD	1844016	wordpools/wasnorm_wordpool_576.txt	LTP138	ltpFR2	12	15	LETTUCE	814	n/a	n/a	0	0	0
3690.794	n/a	WORD	1845397	wordpools/wasnorm_wordpool_576.txt	LTP138	ltpFR2	12	15	GLOBE	641	n/a	n/a	0	0	0
3693.374	n/a	WORD	1846687	wordpools/wasnorm_wordpool_576.txt	LTP138	ltpFR2	12	15	SALAD	1224	n/a	n/a	0	0	0
3696.02	n/a	WORD	1848010	wordpools/wasnorm_wordpool_576.txt	LTP138	ltpFR2	12	15	POSTAGE	1113	n/a	n/a	0	0	0
3698.798	n/a	WORD	1849399	wordpools/wasnorm_wordpool_576.txt	LTP138	ltpFR2	12	15	OFFICE	972	n/a	n/a	0	0	0
3701.462	n/a	WORD	1850731	wordpools/wasnorm_wordpool_576.txt	LTP138	ltpFR2	12	15	LADDER	793	n/a	n/a	0	0	0
3704.208	n/a	WORD	1852104	wordpools/wasnorm_wordpool_576.txt	LTP138	ltpFR2	12	15	THREAD	1460	n/a	n/a	0	0	0
3706.77	n/a	WORD	1853385	wordpools/wasnorm_wordpool_576.txt	LTP138	ltpFR2	12	15	LODGE	839	n/a	n/a	0	0	0
3709.4	n/a	WORD	1854700	wordpools/wasnorm_wordpool_576.txt	LTP138	ltpFR2	12	15	COD	340	n/a	n/a	0	0	0
3711.962	n/a	WORD	1855981	wordpools/wasnorm_wordpool_576.txt	LTP138	ltpFR2	12	15	TROUT	1511	n/a	n/a	0	0	0
3714.658	n/a	WORD	1857329	wordpools/wasnorm_wordpool_576.txt	LTP138	ltpFR2	12	15	SALT	1229	n/a	n/a	0	0	0
3716.274	n/a	START	1858137	n/a	LTP138	ltpFR2	12	n/a	n/a	n/a	23	n/a	n/a	n/a	n/a
3717.262	n/a	DISTRACTOR	1858631	n/a	LTP138	ltpFR2	12	15	n/a	n/a	n/a	n/a	0	0	0
3717.272	n/a	PROB	1858636	n/a	LTP138	ltpFR2	12	n/a	n/a	n/a	23	7	4	1	2
3719.984	n/a	PROB	1859992	n/a	LTP138	ltpFR2	12	n/a	n/a	n/a	23	14	8	1	5
3721.432	n/a	PROB	1860716	n/a	LTP138	ltpFR2	12	n/a	n/a	n/a	23	16	2	6	8
3722.796	n/a	PROB	1861398	n/a	LTP138	ltpFR2	12	n/a	n/a	n/a	23	17	8	6	3
3725.742	n/a	PROB	1862871	n/a	LTP138	ltpFR2	12	n/a	n/a	n/a	23	14	1	5	8
3727.04	n/a	PROB	1863520	n/a	LTP138	ltpFR2	12	n/a	n/a	n/a	23	13	2	9	2
3728.87	n/a	PROB	1864435	n/a	LTP138	ltpFR2	12	n/a	n/a	n/a	23	16	2	6	8
3730.402	n/a	PROB	1865201	n/a	LTP138	ltpFR2	12	n/a	n/a	n/a	23	20	7	8	5
3731.884	n/a	PROB	1865942	n/a	LTP138	ltpFR2	12	n/a	n/a	n/a	23	16	5	2	9
3733.63	n/a	PROB	1866815	n/a	LTP138	ltpFR2	12	n/a	n/a	n/a	23	9	1	7	1
3734.778	n/a	PROB	1867389	n/a	LTP138	ltpFR2	12	n/a	n/a	n/a	23	13	3	9	1
3736.144	n/a	PROB	1868072	n/a	LTP138	ltpFR2	12	n/a	n/a	n/a	23	17	6	9	2
3738.308	n/a	PROB	1869154	n/a	LTP138	ltpFR2	12	n/a	n/a	n/a	23	14	6	4	4
3740.106	n/a	STOP	1870053	n/a	LTP138	ltpFR2	12	n/a	n/a	n/a	23	n/a	n/a	n/a	n/a
3742.118	n/a	REC_START	1871059	n/a	LTP138	ltpFR2	12	15	n/a	n/a	n/a	n/a	0	0	0
3743.15	n/a	REC_WORD	1871575	wordpools/wasnorm_wordpool_576.txt	LTP138	ltpFR2	12	15	SALT	1229	n/a	n/a	0	0	0
3744.118	n/a	REC_WORD	1872059	wordpools/wasnorm_wordpool_576.txt	LTP138	ltpFR2	12	15	PEPPER	1047	n/a	n/a	0	0	0
3745.198	n/a	REC_WORD	1872599	wordpools/wasnorm_wordpool_576.txt	LTP138	ltpFR2	12	15	RABBIT	1152	n/a	n/a	0	0	0
3746.142	n/a	REC_WORD	1873071	wordpools/wasnorm_wordpool_576.txt	LTP138	ltpFR2	12	15	CATCHER	258	n/a	n/a	0	0	0
3747.804	n/a	REC_WORD	1873902	wordpools/wasnorm_wordpool_576.txt	LTP138	ltpFR2	12	15	LETTUCE	814	n/a	n/a	0	0	0
3749.024	n/a	REC_WORD	1874512	wordpools/wasnorm_wordpool_576.txt	LTP138	ltpFR2	12	15	SALAD	1224	n/a	n/a	0	0	0
3752.62	n/a	REC_WORD	1876310	wordpools/wasnorm_wordpool_576.txt	LTP138	ltpFR2	12	15	LODGE	839	n/a	n/a	0	0	0
3755.116	n/a	REC_WORD	1877558	wordpools/wasnorm_wordpool_576.txt	LTP138	ltpFR2	12	15	DORM	488	n/a	n/a	0	0	0
3755.788	n/a	REC_WORD	1877894	wordpools/wasnorm_wordpool_576.txt	LTP138	ltpFR2	12	15	DRIVER	499	n/a	n/a	0	0	0
3756.848	n/a	REC_WORD	1878424	wordpools/wasnorm_wordpool_576.txt	LTP138	ltpFR2	12	15	RELISH	1183	n/a	n/a	0	0	0
3758.196	n/a	REC_WORD	1879098	wordpools/wasnorm_wordpool_576.txt	LTP138	ltpFR2	12	15	FARMER	553	n/a	n/a	0	0	0
3759.122	n/a	REC_WORD	1879561	wordpools/wasnorm_wordpool_576.txt	LTP138	ltpFR2	12	15	SCARECROW	1245	n/a	n/a	0	0	0
3760.452	n/a	REC_WORD	1880226	wordpools/wasnorm_wordpool_576.txt	LTP138	ltpFR2	12	15	ELBOW	520	n/a	n/a	0	0	0
3762.044	n/a	REC_WORD	1881022	wordpools/wasnorm_wordpool_576.txt	LTP138	ltpFR2	12	15	CLOUD	328	n/a	n/a	0	0	0
3768.198	n/a	REC_WORD	1884099	wordpools/wasnorm_wordpool_576.txt	LTP138	ltpFR2	12	15	CHAPEL	280	n/a	n/a	0	0	0
3770.254	n/a	REC_WORD	1885127	wordpools/wasnorm_wordpool_576.txt	LTP138	ltpFR2	12	15	TABLE	1426	n/a	n/a	0	0	0
3780.398	n/a	REC_WORD	1890199	wordpools/wasnorm_wordpool_576.txt	LTP138	ltpFR2	12	15	COD	340	n/a	n/a	0	0	0
3781.224	n/a	REC_WORD	1890612	wordpools/wasnorm_wordpool_576.txt	LTP138	ltpFR2	12	15	TROUT	1511	n/a	n/a	0	0	0
3794.986	n/a	REC_WORD	1897493	wordpools/wasnorm_wordpool_576.txt	LTP138	ltpFR2	12	15	BABY	64	n/a	n/a	0	0	0
3802.176	n/a	REC_WORD	1901088	wordpools/wasnorm_wordpool_576.txt	LTP138	ltpFR2	12	15	POSTAGE	1113	n/a	n/a	0	0	0
3802.938	n/a	REC_WORD	1901469	wordpools/wasnorm_wordpool_576.txt	LTP138	ltpFR2	12	15	GLOBE	641	n/a	n/a	0	0	0
3832.8	n/a	WORD	1916400	wordpools/wasnorm_wordpool_576.txt	LTP138	ltpFR2	12	16	PORTRAIT	1111	n/a	n/a	0	0	0
3835.596	n/a	WORD	1917798	wordpools/wasnorm_wordpool_576.txt	LTP138	ltpFR2	12	16	FOOT	590	n/a	n/a	0	0	0
3838.126	n/a	WORD	1919063	wordpools/wasnorm_wordpool_576.txt	LTP138	ltpFR2	12	16	CARRIAGE	248	n/a	n/a	0	0	0
3840.788	n/a	WORD	1920394	wordpools/wasnorm_wordpool_576.txt	LTP138	ltpFR2	12	16	DONKEY	484	n/a	n/a	0	0	0
3843.568	n/a	WORD	1921784	wordpools/wasnorm_wordpool_576.txt	LTP138	ltpFR2	12	16	CHEMIST	292	n/a	n/a	0	0	0
3846.364	n/a	WORD	1923182	wordpools/wasnorm_wordpool_576.txt	LTP138	ltpFR2	12	16	BEAKER	104	n/a	n/a	0	0	0
3849.144	n/a	WORD	1924572	wordpools/wasnorm_wordpool_576.txt	LTP138	ltpFR2	12	16	BLOCKADE	137	n/a	n/a	0	0	0
3851.706	n/a	WORD	1925853	wordpools/wasnorm_wordpool_576.txt	LTP138	ltpFR2	12	16	POWDER	1117	n/a	n/a	0	0	0
3854.186	n/a	WORD	1927093	wordpools/wasnorm_wordpool_576.txt	LTP138	ltpFR2	12	16	INFANT	737	n/a	n/a	0	0	0
3856.948	n/a	WORD	1928474	wordpools/wasnorm_wordpool_576.txt	LTP138	ltpFR2	12	16	PERMIT	1051	n/a	n/a	0	0	0
3859.71	n/a	WORD	1929855	wordpools/wasnorm_wordpool_576.txt	LTP138	ltpFR2	12	16	TRACTOR	1493	n/a	n/a	0	0	0
3862.158	n/a	WORD	1931079	wordpools/wasnorm_wordpool_576.txt	LTP138	ltpFR2	12	16	PANTHER	1009	n/a	n/a	0	0	0
3864.97	n/a	WORD	1932485	wordpools/wasnorm_wordpool_576.txt	LTP138	ltpFR2	12	16	CRAB	397	n/a	n/a	0	0	0
3867.45	n/a	WORD	1933725	wordpools/wasnorm_wordpool_576.txt	LTP138	ltpFR2	12	16	SKETCH	1315	n/a	n/a	0	0	0
3870.128	n/a	WORD	1935064	wordpools/wasnorm_wordpool_576.txt	LTP138	ltpFR2	12	16	FLOWER	584	n/a	n/a	0	0	0
3872.758	n/a	WORD	1936379	wordpools/wasnorm_wordpool_576.txt	LTP138	ltpFR2	12	16	CLAMP	316	n/a	n/a	0	0	0
3875.338	n/a	WORD	1937669	wordpools/wasnorm_wordpool_576.txt	LTP138	ltpFR2	12	16	LILY	821	n/a	n/a	0	0	0
3878.034	n/a	WORD	1939017	wordpools/wasnorm_wordpool_576.txt	LTP138	ltpFR2	12	16	FIREPLACE	570	n/a	n/a	0	0	0
3880.564	n/a	WORD	1940282	wordpools/wasnorm_wordpool_576.txt	LTP138	ltpFR2	12	16	APRON	35	n/a	n/a	0	0	0
3883.06	n/a	WORD	1941530	wordpools/wasnorm_wordpool_576.txt	LTP138	ltpFR2	12	16	KLEENEX	782	n/a	n/a	0	0	0
