mstime	trial_type	stim_file	subject	experiment	session	trial	task	item_name	item_num	recog_conf	resp	color_b	color_g	color_r	case	font
0	SESS_START	n/a	LTP190	ltpFR	5	n/a	n/a	n/a	n/a	2	n/a	n/a	n/a	n/a	n/a	n/a
52828	WORD	wordpools/wasnorm_wordpool_less_exclusions.txt	LTP190	ltpFR	5	1	0	TAG	1429	2	0	0	0.5869140625	0.422607421875	upper	../fonts/zerothre.ttf
56673	WORD	wordpools/wasnorm_wordpool_less_exclusions.txt	LTP190	ltpFR	5	1	0	WOLF	1619	n/a	1	0	0.5869140625	0.422607421875	upper	../fonts/zerothre.ttf
60805	WORD	wordpools/wasnorm_wordpool_less_exclusions.txt	LTP190	ltpFR	5	1	0	BAIT	70	n/a	0	0	0.5869140625	0.422607421875	upper	../fonts/zerothre.ttf
64770	WORD	wordpools/wasnorm_wordpool_less_exclusions.txt	LTP190	ltpFR	5	1	0	INVENTOR	743	n/a	1	0	0.5869140625	0.422607421875	upper	../fonts/zerothre.ttf
68601	WORD	wordpools/wasnorm_wordpool_less_exclusions.txt	LTP190	ltpFR	5	1	0	MOLECULE	905	n/a	0	0	0.5869140625	0.422607421875	upper	../fonts/zerothre.ttf
72449	WORD	wordpools/wasnorm_wordpool_less_exclusions.txt	LTP190	ltpFR	5	1	1	PLANET	1082	n/a	0	1	0.412841796875	0.57763671875	lower	../fonts/amplitud.ttf
76616	WORD	wordpools/wasnorm_wordpool_less_exclusions.txt	LTP190	ltpFR	5	1	1	SATURN	1236	n/a	0	1	0.412841796875	0.57763671875	lower	../fonts/amplitud.ttf
80697	WORD	wordpools/wasnorm_wordpool_less_exclusions.txt	LTP190	ltpFR	5	1	1	BRACES	164	n/a	0	1	0.412841796875	0.57763671875	lower	../fonts/amplitud.ttf
84895	WORD	wordpools/wasnorm_wordpool_less_exclusions.txt	LTP190	ltpFR	5	1	0	DESIGNER	451	n/a	1	0	0.5869140625	0.422607421875	upper	../fonts/zerothre.ttf
89095	WORD	wordpools/wasnorm_wordpool_less_exclusions.txt	LTP190	ltpFR	5	1	0	DETECTIVE	454	n/a	1	0	0.5869140625	0.422607421875	upper	../fonts/zerothre.ttf
93161	WORD	wordpools/wasnorm_wordpool_less_exclusions.txt	LTP190	ltpFR	5	1	0	PAWN	1030	n/a	0	0	0.5869140625	0.422607421875	upper	../fonts/zerothre.ttf
97142	WORD	wordpools/wasnorm_wordpool_less_exclusions.txt	LTP190	ltpFR	5	1	1	CLIPPERS	324	n/a	0	1	0.412841796875	0.57763671875	lower	../fonts/amplitud.ttf
101208	WORD	wordpools/wasnorm_wordpool_less_exclusions.txt	LTP190	ltpFR	5	1	1	MAID	856	n/a	1	1	0.412841796875	0.57763671875	lower	../fonts/amplitud.ttf
105223	WORD	wordpools/wasnorm_wordpool_less_exclusions.txt	LTP190	ltpFR	5	1	1	SALMON	1227	n/a	1	1	0.412841796875	0.57763671875	lower	../fonts/amplitud.ttf
109305	WORD	wordpools/wasnorm_wordpool_less_exclusions.txt	LTP190	ltpFR	5	1	1	REEF	1177	n/a	1	1	0.412841796875	0.57763671875	lower	../fonts/amplitud.ttf
113337	WORD	wordpools/wasnorm_wordpool_less_exclusions.txt	LTP190	ltpFR	5	1	1	CANAL	226	n/a	0	1	0.412841796875	0.57763671875	lower	../fonts/amplitud.ttf
119109	REC_START	n/a	LTP190	ltpFR	5	1	n/a	n/a	n/a	n/a	n/a	n/a	n/a	n/a	n/a	n/a
120256	REC_WORD	wordpools/wasnorm_wordpool_less_exclusions.txt	LTP190	ltpFR	5	1	1	REEF	1177	n/a	1	n/a	n/a	n/a	n/a	n/a
121109	REC_WORD	wordpools/wasnorm_wordpool_less_exclusions.txt	LTP190	ltpFR	5	1	1	CANAL	226	n/a	0	n/a	n/a	n/a	n/a	n/a
121962	REC_WORD	wordpools/wasnorm_wordpool_less_exclusions.txt	LTP190	ltpFR	5	1	1	MAID	856	n/a	1	n/a	n/a	n/a	n/a	n/a
122820	REC_WORD	wordpools/wasnorm_wordpool_less_exclusions.txt	LTP190	ltpFR	5	1	1	SALMON	1227	n/a	1	n/a	n/a	n/a	n/a	n/a
124332	REC_WORD	wordpools/wasnorm_wordpool_less_exclusions.txt	LTP190	ltpFR	5	1	1	PLANET	1082	n/a	0	n/a	n/a	n/a	n/a	n/a
126008	REC_WORD	wordpools/wasnorm_wordpool_less_exclusions.txt	LTP190	ltpFR	5	1	1	SATURN	1236	n/a	0	n/a	n/a	n/a	n/a	n/a
131042	REC_WORD	wordpools/wasnorm_wordpool_less_exclusions.txt	LTP190	ltpFR	5	1	0	TAG	1429	n/a	0	n/a	n/a	n/a	n/a	n/a
166261	REC_WORD	wordpools/wasnorm_wordpool_less_exclusions.txt	LTP190	ltpFR	5	1	0	DESIGNER	451	n/a	1	n/a	n/a	n/a	n/a	n/a
168865	REC_WORD	wordpools/wasnorm_wordpool_less_exclusions.txt	LTP190	ltpFR	5	1	0	DETECTIVE	454	n/a	1	n/a	n/a	n/a	n/a	n/a
201268	WORD	wordpools/wasnorm_wordpool_less_exclusions.txt	LTP190	ltpFR	5	2	1	TULIP	1517	n/a	1	1	0.412841796875	0.57763671875	lower	../fonts/amplitud.ttf
205183	WORD	wordpools/wasnorm_wordpool_less_exclusions.txt	LTP190	ltpFR	5	2	1	SADDLE	1221	n/a	0	1	0.412841796875	0.57763671875	lower	../fonts/amplitud.ttf
209332	WORD	wordpools/wasnorm_wordpool_less_exclusions.txt	LTP190	ltpFR	5	2	1	SUPERMARKET	1409	n/a	0	1	0.412841796875	0.57763671875	lower	../fonts/amplitud.ttf
213330	WORD	wordpools/wasnorm_wordpool_less_exclusions.txt	LTP190	ltpFR	5	2	1	POWDER	1117	n/a	0	1	0.412841796875	0.57763671875	lower	../fonts/amplitud.ttf
217462	WORD	wordpools/wasnorm_wordpool_less_exclusions.txt	LTP190	ltpFR	5	2	0	ASH	44	n/a	0	0	0.5869140625	0.422607421875	upper	../fonts/zerothre.ttf
221411	WORD	wordpools/wasnorm_wordpool_less_exclusions.txt	LTP190	ltpFR	5	2	0	PARROT	1015	n/a	0	0	0.5869140625	0.422607421875	upper	../fonts/zerothre.ttf
225325	WORD	wordpools/wasnorm_wordpool_less_exclusions.txt	LTP190	ltpFR	5	2	1	PIGEON	1065	n/a	1	1	0.412841796875	0.57763671875	lower	../fonts/amplitud.ttf
229157	WORD	wordpools/wasnorm_wordpool_less_exclusions.txt	LTP190	ltpFR	5	2	1	DONKEY	484	n/a	1	1	0.412841796875	0.57763671875	lower	../fonts/amplitud.ttf
233055	WORD	wordpools/wasnorm_wordpool_less_exclusions.txt	LTP190	ltpFR	5	2	1	BEAD	103	n/a	0	1	0.412841796875	0.57763671875	lower	../fonts/amplitud.ttf
237036	WORD	wordpools/wasnorm_wordpool_less_exclusions.txt	LTP190	ltpFR	5	2	1	SERVER	1272	n/a	0	1	0.412841796875	0.57763671875	lower	../fonts/amplitud.ttf
241018	WORD	wordpools/wasnorm_wordpool_less_exclusions.txt	LTP190	ltpFR	5	2	0	CHICKEN	297	n/a	1	0	0.5869140625	0.422607421875	upper	../fonts/zerothre.ttf
245083	WORD	wordpools/wasnorm_wordpool_less_exclusions.txt	LTP190	ltpFR	5	2	0	CHALK	276	n/a	0	0	0.5869140625	0.422607421875	upper	../fonts/zerothre.ttf
249199	WORD	wordpools/wasnorm_wordpool_less_exclusions.txt	LTP190	ltpFR	5	2	0	BARLEY	88	n/a	0	0	0.5869140625	0.422607421875	upper	../fonts/zerothre.ttf
253046	WORD	wordpools/wasnorm_wordpool_less_exclusions.txt	LTP190	ltpFR	5	2	0	PEARL	1034	n/a	0	0	0.5869140625	0.422607421875	upper	../fonts/zerothre.ttf
256914	WORD	wordpools/wasnorm_wordpool_less_exclusions.txt	LTP190	ltpFR	5	2	0	SKI	1316	n/a	1	0	0.5869140625	0.422607421875	upper	../fonts/zerothre.ttf
260843	WORD	wordpools/wasnorm_wordpool_less_exclusions.txt	LTP190	ltpFR	5	2	0	TREAD	1499	n/a	1	0	0.5869140625	0.422607421875	upper	../fonts/zerothre.ttf
266766	REC_START	n/a	LTP190	ltpFR	5	2	n/a	n/a	n/a	n/a	n/a	n/a	n/a	n/a	n/a	n/a
268098	REC_WORD	wordpools/wasnorm_wordpool_less_exclusions.txt	LTP190	ltpFR	5	2	0	SKI	1316	n/a	1	n/a	n/a	n/a	n/a	n/a
269086	REC_WORD	wordpools/wasnorm_wordpool_less_exclusions.txt	LTP190	ltpFR	5	2	0	TREAD	1499	n/a	1	n/a	n/a	n/a	n/a	n/a
269959	REC_WORD	wordpools/wasnorm_wordpool_less_exclusions.txt	LTP190	ltpFR	5	2	0	PEARL	1034	n/a	0	n/a	n/a	n/a	n/a	n/a
284735	REC_WORD	wordpools/wasnorm_wordpool_less_exclusions.txt	LTP190	ltpFR	5	2	0	PARROT	1015	n/a	0	n/a	n/a	n/a	n/a	n/a
322330	REC_WORD	wordpools/wasnorm_wordpool_less_exclusions.txt	LTP190	ltpFR	5	2	1	TULIP	1517	n/a	1	n/a	n/a	n/a	n/a	n/a
354148	WORD	wordpools/wasnorm_wordpool_less_exclusions.txt	LTP190	ltpFR	5	3	1	LEOPARD	812	n/a	1	1	0.412841796875	0.57763671875	lower	../fonts/amplitud.ttf
358060	WORD	wordpools/wasnorm_wordpool_less_exclusions.txt	LTP190	ltpFR	5	3	1	DIVER	476	n/a	1	1	0.412841796875	0.57763671875	lower	../fonts/amplitud.ttf
362191	WORD	wordpools/wasnorm_wordpool_less_exclusions.txt	LTP190	ltpFR	5	3	0	BOLT	146	n/a	0	0	0.5869140625	0.422607421875	upper	../fonts/zerothre.ttf
366206	WORD	wordpools/wasnorm_wordpool_less_exclusions.txt	LTP190	ltpFR	5	3	0	KITTEN	780	n/a	0	0	0.5869140625	0.422607421875	upper	../fonts/zerothre.ttf
370071	WORD	wordpools/wasnorm_wordpool_less_exclusions.txt	LTP190	ltpFR	5	3	0	CHIPMUNK	304	n/a	0	0	0.5869140625	0.422607421875	upper	../fonts/zerothre.ttf
374174	WORD	wordpools/wasnorm_wordpool_less_exclusions.txt	LTP190	ltpFR	5	3	0	RADIO	1157	n/a	0	0	0.5869140625	0.422607421875	upper	../fonts/zerothre.ttf
378386	WORD	wordpools/wasnorm_wordpool_less_exclusions.txt	LTP190	ltpFR	5	3	0	KETTLE	772	n/a	0	0	0.5869140625	0.422607421875	upper	../fonts/zerothre.ttf
382317	WORD	wordpools/wasnorm_wordpool_less_exclusions.txt	LTP190	ltpFR	5	3	1	MOOSE	915	n/a	1	1	0.412841796875	0.57763671875	lower	../fonts/amplitud.ttf
386317	WORD	wordpools/wasnorm_wordpool_less_exclusions.txt	LTP190	ltpFR	5	3	1	LAKE	796	n/a	0	1	0.412841796875	0.57763671875	lower	../fonts/amplitud.ttf
390213	WORD	wordpools/wasnorm_wordpool_less_exclusions.txt	LTP190	ltpFR	5	3	1	FAUCET	555	n/a	0	1	0.412841796875	0.57763671875	lower	../fonts/amplitud.ttf
394312	WORD	wordpools/wasnorm_wordpool_less_exclusions.txt	LTP190	ltpFR	5	3	0	SCENERY	1247	n/a	1	0	0.5869140625	0.422607421875	upper	../fonts/zerothre.ttf
398227	WORD	wordpools/wasnorm_wordpool_less_exclusions.txt	LTP190	ltpFR	5	3	0	TREE	1502	n/a	1	0	0.5869140625	0.422607421875	upper	../fonts/zerothre.ttf
402292	WORD	wordpools/wasnorm_wordpool_less_exclusions.txt	LTP190	ltpFR	5	3	0	BANNER	85	n/a	1	0	0.5869140625	0.422607421875	upper	../fonts/zerothre.ttf
406127	WORD	wordpools/wasnorm_wordpool_less_exclusions.txt	LTP190	ltpFR	5	3	1	HELICOPTER	701	n/a	1	1	0.412841796875	0.57763671875	lower	../fonts/amplitud.ttf
410239	WORD	wordpools/wasnorm_wordpool_less_exclusions.txt	LTP190	ltpFR	5	3	1	CHEMICAL	291	n/a	1	1	0.412841796875	0.57763671875	lower	../fonts/amplitud.ttf
414271	WORD	wordpools/wasnorm_wordpool_less_exclusions.txt	LTP190	ltpFR	5	3	1	MICROSCOPE	891	n/a	1	1	0.412841796875	0.57763671875	lower	../fonts/amplitud.ttf
420160	REC_START	n/a	LTP190	ltpFR	5	3	n/a	n/a	n/a	n/a	n/a	n/a	n/a	n/a	n/a	n/a
426989	REC_WORD	wordpools/wasnorm_wordpool_less_exclusions.txt	LTP190	ltpFR	5	3	1	MICROSCOPE	891	n/a	1	n/a	n/a	n/a	n/a	n/a
428132	REC_WORD	wordpools/wasnorm_wordpool_less_exclusions.txt	LTP190	ltpFR	5	3	n/a	CHEMISTRY	-1	n/a	n/a	n/a	n/a	n/a	n/a	n/a
431484	REC_WORD	wordpools/wasnorm_wordpool_less_exclusions.txt	LTP190	ltpFR	5	3	0	TREE	1502	n/a	1	n/a	n/a	n/a	n/a	n/a
442813	REC_WORD	wordpools/wasnorm_wordpool_less_exclusions.txt	LTP190	ltpFR	5	3	0	KITTEN	780	n/a	0	n/a	n/a	n/a	n/a	n/a
470859	REC_WORD	wordpools/wasnorm_wordpool_less_exclusions.txt	LTP190	ltpFR	5	3	1	FAUCET	555	n/a	0	n/a	n/a	n/a	n/a	n/a
488060	REC_WORD	wordpools/wasnorm_wordpool_less_exclusions.txt	LTP190	ltpFR	5	3	0	CHICKEN	297	n/a	1	n/a	n/a	n/a	n/a	n/a
507005	WORD	wordpools/wasnorm_wordpool_less_exclusions.txt	LTP190	ltpFR	5	4	-1	PAPER	1011	n/a	-1	1	1.0	1.0	upper	../fonts/Verdana.ttf
511186	WORD	wordpools/wasnorm_wordpool_less_exclusions.txt	LTP190	ltpFR	5	4	-1	MEAT	883	n/a	-1	1	1.0	1.0	upper	../fonts/Verdana.ttf
515204	WORD	wordpools/wasnorm_wordpool_less_exclusions.txt	LTP190	ltpFR	5	4	-1	CAP	236	n/a	-1	1	1.0	1.0	upper	../fonts/Verdana.ttf
519066	WORD	wordpools/wasnorm_wordpool_less_exclusions.txt	LTP190	ltpFR	5	4	-1	SOFTBALL	1343	n/a	-1	1	1.0	1.0	upper	../fonts/Verdana.ttf
523069	WORD	wordpools/wasnorm_wordpool_less_exclusions.txt	LTP190	ltpFR	5	4	-1	PLUMBER	1091	n/a	-1	1	1.0	1.0	upper	../fonts/Verdana.ttf
527230	WORD	wordpools/wasnorm_wordpool_less_exclusions.txt	LTP190	ltpFR	5	4	-1	SAUCER	1237	n/a	-1	1	1.0	1.0	upper	../fonts/Verdana.ttf
531345	WORD	wordpools/wasnorm_wordpool_less_exclusions.txt	LTP190	ltpFR	5	4	-1	TEA	1439	n/a	-1	1	1.0	1.0	upper	../fonts/Verdana.ttf
535461	WORD	wordpools/wasnorm_wordpool_less_exclusions.txt	LTP190	ltpFR	5	4	-1	SUPERVISOR	1410	n/a	-1	1	1.0	1.0	upper	../fonts/Verdana.ttf
539526	WORD	wordpools/wasnorm_wordpool_less_exclusions.txt	LTP190	ltpFR	5	4	-1	SAUSAGE	1238	n/a	-1	1	1.0	1.0	upper	../fonts/Verdana.ttf
543407	WORD	wordpools/wasnorm_wordpool_less_exclusions.txt	LTP190	ltpFR	5	4	-1	PERMIT	1051	n/a	-1	1	1.0	1.0	upper	../fonts/Verdana.ttf
547590	WORD	wordpools/wasnorm_wordpool_less_exclusions.txt	LTP190	ltpFR	5	4	-1	EMPLOYER	532	n/a	-1	1	1.0	1.0	upper	../fonts/Verdana.ttf
551560	WORD	wordpools/wasnorm_wordpool_less_exclusions.txt	LTP190	ltpFR	5	4	-1	WALL	1582	n/a	-1	1	1.0	1.0	upper	../fonts/Verdana.ttf
555704	WORD	wordpools/wasnorm_wordpool_less_exclusions.txt	LTP190	ltpFR	5	4	-1	HAIL	676	n/a	-1	1	1.0	1.0	upper	../fonts/Verdana.ttf
559769	WORD	wordpools/wasnorm_wordpool_less_exclusions.txt	LTP190	ltpFR	5	4	-1	GARDEN	623	n/a	-1	1	1.0	1.0	upper	../fonts/Verdana.ttf
563600	WORD	wordpools/wasnorm_wordpool_less_exclusions.txt	LTP190	ltpFR	5	4	-1	CARPENTER	246	n/a	-1	1	1.0	1.0	upper	../fonts/Verdana.ttf
567532	WORD	wordpools/wasnorm_wordpool_less_exclusions.txt	LTP190	ltpFR	5	4	-1	TIMBER	1469	n/a	-1	1	1.0	1.0	upper	../fonts/Verdana.ttf
573438	REC_START	n/a	LTP190	ltpFR	5	4	n/a	n/a	n/a	n/a	n/a	n/a	n/a	n/a	n/a	n/a
574246	REC_WORD	wordpools/wasnorm_wordpool_less_exclusions.txt	LTP190	ltpFR	5	4	-1	HAIL	676	n/a	-1	n/a	n/a	n/a	n/a	n/a
574884	REC_WORD	wordpools/wasnorm_wordpool_less_exclusions.txt	LTP190	ltpFR	5	4	-1	GARDEN	623	n/a	-1	n/a	n/a	n/a	n/a	n/a
576266	REC_WORD	wordpools/wasnorm_wordpool_less_exclusions.txt	LTP190	ltpFR	5	4	-1	CARPENTER	246	n/a	-1	n/a	n/a	n/a	n/a	n/a
576935	REC_WORD	wordpools/wasnorm_wordpool_less_exclusions.txt	LTP190	ltpFR	5	4	-1	TIMBER	1469	n/a	-1	n/a	n/a	n/a	n/a	n/a
580841	REC_WORD	wordpools/wasnorm_wordpool_less_exclusions.txt	LTP190	ltpFR	5	4	-1	PAPER	1011	n/a	-1	n/a	n/a	n/a	n/a	n/a
593283	REC_WORD	wordpools/wasnorm_wordpool_less_exclusions.txt	LTP190	ltpFR	5	4	-1	SOFTBALL	1343	n/a	-1	n/a	n/a	n/a	n/a	n/a
595478	REC_WORD	wordpools/wasnorm_wordpool_less_exclusions.txt	LTP190	ltpFR	5	4	n/a	HAT	690	n/a	n/a	n/a	n/a	n/a	n/a	n/a
666873	WORD	wordpools/wasnorm_wordpool_less_exclusions.txt	LTP190	ltpFR	5	5	0	BUREAU	199	n/a	1	0	0.5869140625	0.422607421875	upper	../fonts/zerothre.ttf
671024	WORD	wordpools/wasnorm_wordpool_less_exclusions.txt	LTP190	ltpFR	5	5	0	BRIDGE	174	n/a	1	0	0.5869140625	0.422607421875	upper	../fonts/zerothre.ttf
675054	WORD	wordpools/wasnorm_wordpool_less_exclusions.txt	LTP190	ltpFR	5	5	1	GENERAL	630	n/a	1	1	0.412841796875	0.57763671875	lower	../fonts/amplitud.ttf
679119	WORD	wordpools/wasnorm_wordpool_less_exclusions.txt	LTP190	ltpFR	5	5	1	UNIFORM	1539	n/a	0	1	0.412841796875	0.57763671875	lower	../fonts/amplitud.ttf
683000	WORD	wordpools/wasnorm_wordpool_less_exclusions.txt	LTP190	ltpFR	5	5	1	PERSONNEL	1053	n/a	1	1	0.412841796875	0.57763671875	lower	../fonts/amplitud.ttf
686831	WORD	wordpools/wasnorm_wordpool_less_exclusions.txt	LTP190	ltpFR	5	5	1	MERMAID	887	n/a	1	1	0.412841796875	0.57763671875	lower	../fonts/amplitud.ttf
690763	WORD	wordpools/wasnorm_wordpool_less_exclusions.txt	LTP190	ltpFR	5	5	1	BAKER	71	n/a	n/a	1	0.412841796875	0.57763671875	lower	../fonts/amplitud.ttf
693797	SLOW_MSG	n/a	LTP190	ltpFR	5	5	n/a	n/a	n/a	n/a	n/a	n/a	n/a	n/a	n/a	n/a
696452	WORD	wordpools/wasnorm_wordpool_less_exclusions.txt	LTP190	ltpFR	5	5	0	OATMEAL	967	n/a	1	0	0.5869140625	0.422607421875	upper	../fonts/zerothre.ttf
700438	WORD	wordpools/wasnorm_wordpool_less_exclusions.txt	LTP190	ltpFR	5	5	0	CHEST	295	n/a	1	0	0.5869140625	0.422607421875	upper	../fonts/zerothre.ttf
704565	WORD	wordpools/wasnorm_wordpool_less_exclusions.txt	LTP190	ltpFR	5	5	0	SWATTER	1418	n/a	3	0	0.5869140625	0.422607421875	upper	../fonts/zerothre.ttf
706756	KEY_MSG	n/a	LTP190	ltpFR	5	5	n/a	n/a	n/a	n/a	n/a	n/a	n/a	n/a	n/a	n/a
709115	WORD	wordpools/wasnorm_wordpool_less_exclusions.txt	LTP190	ltpFR	5	5	1	TOOTHPASTE	1483	n/a	1	1	0.412841796875	0.57763671875	lower	../fonts/amplitud.ttf
712947	WORD	wordpools/wasnorm_wordpool_less_exclusions.txt	LTP190	ltpFR	5	5	1	BUCKET	184	n/a	n/a	1	0.412841796875	0.57763671875	lower	../fonts/amplitud.ttf
715990	SLOW_MSG	n/a	LTP190	ltpFR	5	5	n/a	n/a	n/a	n/a	n/a	n/a	n/a	n/a	n/a	n/a
718434	WORD	wordpools/wasnorm_wordpool_less_exclusions.txt	LTP190	ltpFR	5	5	1	SLUG	1329	n/a	1	1	0.412841796875	0.57763671875	lower	../fonts/amplitud.ttf
722482	WORD	wordpools/wasnorm_wordpool_less_exclusions.txt	LTP190	ltpFR	5	5	0	HEART	697	n/a	1	0	0.5869140625	0.422607421875	upper	../fonts/zerothre.ttf
726313	WORD	wordpools/wasnorm_wordpool_less_exclusions.txt	LTP190	ltpFR	5	5	0	FLUTE	585	n/a	1	0	0.5869140625	0.422607421875	upper	../fonts/zerothre.ttf
730312	WORD	wordpools/wasnorm_wordpool_less_exclusions.txt	LTP190	ltpFR	5	5	0	BANJO	82	n/a	1	0	0.5869140625	0.422607421875	upper	../fonts/zerothre.ttf
735983	REC_START	n/a	LTP190	ltpFR	5	5	n/a	n/a	n/a	n/a	n/a	n/a	n/a	n/a	n/a	n/a
752101	REC_WORD	wordpools/wasnorm_wordpool_less_exclusions.txt	LTP190	ltpFR	5	5	0	FLUTE	585	n/a	1	n/a	n/a	n/a	n/a	n/a
752969	REC_WORD	wordpools/wasnorm_wordpool_less_exclusions.txt	LTP190	ltpFR	5	5	0	BANJO	82	n/a	1	n/a	n/a	n/a	n/a	n/a
753683	REC_WORD	wordpools/wasnorm_wordpool_less_exclusions.txt	LTP190	ltpFR	5	5	0	SWATTER	1418	n/a	3	n/a	n/a	n/a	n/a	n/a
795911	REC_WORD	wordpools/wasnorm_wordpool_less_exclusions.txt	LTP190	ltpFR	5	5	1	PERSONNEL	1053	n/a	1	n/a	n/a	n/a	n/a	n/a
798096	REC_WORD	wordpools/wasnorm_wordpool_less_exclusions.txt	LTP190	ltpFR	5	5	1	GENERAL	630	n/a	1	n/a	n/a	n/a	n/a	n/a
815633	WORD	wordpools/wasnorm_wordpool_less_exclusions.txt	LTP190	ltpFR	5	6	0	HAWK	692	n/a	1	0	0.5869140625	0.422607421875	upper	../fonts/zerothre.ttf
819665	WORD	wordpools/wasnorm_wordpool_less_exclusions.txt	LTP190	ltpFR	5	6	0	TILE	1468	n/a	0	0	0.5869140625	0.422607421875	upper	../fonts/zerothre.ttf
823765	WORD	wordpools/wasnorm_wordpool_less_exclusions.txt	LTP190	ltpFR	5	6	0	SINK	1309	n/a	1	0	0.5869140625	0.422607421875	upper	../fonts/zerothre.ttf
827779	WORD	wordpools/wasnorm_wordpool_less_exclusions.txt	LTP190	ltpFR	5	6	0	COOKIE	374	n/a	0	0	0.5869140625	0.422607421875	upper	../fonts/zerothre.ttf
831680	WORD	wordpools/wasnorm_wordpool_less_exclusions.txt	LTP190	ltpFR	5	6	0	SILVERWARE	1308	n/a	0	0	0.5869140625	0.422607421875	upper	../fonts/zerothre.ttf
835659	WORD	wordpools/wasnorm_wordpool_less_exclusions.txt	LTP190	ltpFR	5	6	0	HAMBURGER	679	n/a	0	0	0.5869140625	0.422607421875	upper	../fonts/zerothre.ttf
839741	WORD	wordpools/wasnorm_wordpool_less_exclusions.txt	LTP190	ltpFR	5	6	0	POTATO	1115	n/a	0	0	0.5869140625	0.422607421875	upper	../fonts/zerothre.ttf
843689	WORD	wordpools/wasnorm_wordpool_less_exclusions.txt	LTP190	ltpFR	5	6	0	RELISH	1183	n/a	n/a	0	0.5869140625	0.422607421875	upper	../fonts/zerothre.ttf
846720	SLOW_MSG	n/a	LTP190	ltpFR	5	6	n/a	n/a	n/a	n/a	n/a	n/a	n/a	n/a	n/a	n/a
849377	WORD	wordpools/wasnorm_wordpool_less_exclusions.txt	LTP190	ltpFR	5	6	0	SOCIETY	1338	n/a	1	0	0.5869140625	0.422607421875	upper	../fonts/zerothre.ttf
853576	WORD	wordpools/wasnorm_wordpool_less_exclusions.txt	LTP190	ltpFR	5	6	0	AUDIENCE	59	n/a	1	0	0.5869140625	0.422607421875	upper	../fonts/zerothre.ttf
857725	WORD	wordpools/wasnorm_wordpool_less_exclusions.txt	LTP190	ltpFR	5	6	0	VASE	1549	n/a	1	0	0.5869140625	0.422607421875	upper	../fonts/zerothre.ttf
861907	WORD	wordpools/wasnorm_wordpool_less_exclusions.txt	LTP190	ltpFR	5	6	0	SUGAR	1401	n/a	1	0	0.5869140625	0.422607421875	upper	../fonts/zerothre.ttf
865905	WORD	wordpools/wasnorm_wordpool_less_exclusions.txt	LTP190	ltpFR	5	6	0	BOULEVARD	156	n/a	n/a	0	0.5869140625	0.422607421875	upper	../fonts/zerothre.ttf
868934	SLOW_MSG	n/a	LTP190	ltpFR	5	6	n/a	n/a	n/a	n/a	n/a	n/a	n/a	n/a	n/a	n/a
871377	WORD	wordpools/wasnorm_wordpool_less_exclusions.txt	LTP190	ltpFR	5	6	0	WASHER	1592	n/a	1	0	0.5869140625	0.422607421875	upper	../fonts/zerothre.ttf
875358	WORD	wordpools/wasnorm_wordpool_less_exclusions.txt	LTP190	ltpFR	5	6	0	CANARY	227	n/a	1	0	0.5869140625	0.422607421875	upper	../fonts/zerothre.ttf
879374	WORD	wordpools/wasnorm_wordpool_less_exclusions.txt	LTP190	ltpFR	5	6	0	TART	1436	n/a	1	0	0.5869140625	0.422607421875	upper	../fonts/zerothre.ttf
885397	REC_START	n/a	LTP190	ltpFR	5	6	n/a	n/a	n/a	n/a	n/a	n/a	n/a	n/a	n/a	n/a
903022	REC_WORD	wordpools/wasnorm_wordpool_less_exclusions.txt	LTP190	ltpFR	5	6	0	CANARY	227	n/a	1	n/a	n/a	n/a	n/a	n/a
904847	REC_WORD	wordpools/wasnorm_wordpool_less_exclusions.txt	LTP190	ltpFR	5	6	0	SUGAR	1401	n/a	1	n/a	n/a	n/a	n/a	n/a
918402	REC_WORD	wordpools/wasnorm_wordpool_less_exclusions.txt	LTP190	ltpFR	5	6	-1	TEA	1439	n/a	-1	n/a	n/a	n/a	n/a	n/a
986594	WORD	wordpools/wasnorm_wordpool_less_exclusions.txt	LTP190	ltpFR	5	7	1	BARRACUDA	90	n/a	1	1	0.412841796875	0.57763671875	lower	../fonts/amplitud.ttf
990492	WORD	wordpools/wasnorm_wordpool_less_exclusions.txt	LTP190	ltpFR	5	7	1	FISH	571	n/a	1	1	0.412841796875	0.57763671875	lower	../fonts/amplitud.ttf
994641	WORD	wordpools/wasnorm_wordpool_less_exclusions.txt	LTP190	ltpFR	5	7	1	DRAWING	494	n/a	0	1	0.412841796875	0.57763671875	lower	../fonts/amplitud.ttf
998506	WORD	wordpools/wasnorm_wordpool_less_exclusions.txt	LTP190	ltpFR	5	7	1	SWEATER	1419	n/a	0	1	0.412841796875	0.57763671875	lower	../fonts/amplitud.ttf
1002337	WORD	wordpools/wasnorm_wordpool_less_exclusions.txt	LTP190	ltpFR	5	7	1	SUIT	1402	n/a	n/a	1	0.412841796875	0.57763671875	lower	../fonts/amplitud.ttf
1005371	SLOW_MSG	n/a	LTP190	ltpFR	5	7	n/a	n/a	n/a	n/a	n/a	n/a	n/a	n/a	n/a	n/a
1007791	WORD	wordpools/wasnorm_wordpool_less_exclusions.txt	LTP190	ltpFR	5	7	1	LIMOUSINE	824	n/a	0	1	0.412841796875	0.57763671875	lower	../fonts/amplitud.ttf
1011856	WORD	wordpools/wasnorm_wordpool_less_exclusions.txt	LTP190	ltpFR	5	7	1	MAGNET	855	n/a	0	1	0.412841796875	0.57763671875	lower	../fonts/amplitud.ttf
1015858	WORD	wordpools/wasnorm_wordpool_less_exclusions.txt	LTP190	ltpFR	5	7	1	LEVER	815	n/a	0	1	0.412841796875	0.57763671875	lower	../fonts/amplitud.ttf
1019969	WORD	wordpools/wasnorm_wordpool_less_exclusions.txt	LTP190	ltpFR	5	7	1	STOCKING	1383	n/a	0	1	0.412841796875	0.57763671875	lower	../fonts/amplitud.ttf
1023807	WORD	wordpools/wasnorm_wordpool_less_exclusions.txt	LTP190	ltpFR	5	7	1	DRIVER	499	n/a	1	1	0.412841796875	0.57763671875	lower	../fonts/amplitud.ttf
1027867	WORD	wordpools/wasnorm_wordpool_less_exclusions.txt	LTP190	ltpFR	5	7	1	TABLET	1427	n/a	0	1	0.412841796875	0.57763671875	lower	../fonts/amplitud.ttf
1031897	WORD	wordpools/wasnorm_wordpool_less_exclusions.txt	LTP190	ltpFR	5	7	1	BASSINET	97	n/a	n/a	1	0.412841796875	0.57763671875	lower	../fonts/amplitud.ttf
1034926	SLOW_MSG	n/a	LTP190	ltpFR	5	7	n/a	n/a	n/a	n/a	n/a	n/a	n/a	n/a	n/a	n/a
1037469	WORD	wordpools/wasnorm_wordpool_less_exclusions.txt	LTP190	ltpFR	5	7	1	SEAGULL	1261	n/a	1	1	0.412841796875	0.57763671875	lower	../fonts/amplitud.ttf
1041435	WORD	wordpools/wasnorm_wordpool_less_exclusions.txt	LTP190	ltpFR	5	7	1	COOK	372	n/a	1	1	0.412841796875	0.57763671875	lower	../fonts/amplitud.ttf
1045483	WORD	wordpools/wasnorm_wordpool_less_exclusions.txt	LTP190	ltpFR	5	7	1	SKETCH	1315	n/a	n/a	1	0.412841796875	0.57763671875	lower	../fonts/amplitud.ttf
1048519	SLOW_MSG	n/a	LTP190	ltpFR	5	7	n/a	n/a	n/a	n/a	n/a	n/a	n/a	n/a	n/a	n/a
1051255	WORD	wordpools/wasnorm_wordpool_less_exclusions.txt	LTP190	ltpFR	5	7	1	CAMERA	224	n/a	1	1	0.412841796875	0.57763671875	lower	../fonts/amplitud.ttf
1056877	REC_START	n/a	LTP190	ltpFR	5	7	n/a	n/a	n/a	n/a	n/a	n/a	n/a	n/a	n/a	n/a
1066031	REC_WORD	wordpools/wasnorm_wordpool_less_exclusions.txt	LTP190	ltpFR	5	7	1	CAMERA	224	n/a	1	n/a	n/a	n/a	n/a	n/a
1066719	REC_WORD	wordpools/wasnorm_wordpool_less_exclusions.txt	LTP190	ltpFR	5	7	1	DRIVER	499	n/a	1	n/a	n/a	n/a	n/a	n/a
1067448	REC_WORD	wordpools/wasnorm_wordpool_less_exclusions.txt	LTP190	ltpFR	5	7	1	LIMOUSINE	824	n/a	0	n/a	n/a	n/a	n/a	n/a
1142164	WORD	wordpools/wasnorm_wordpool_less_exclusions.txt	LTP190	ltpFR	5	8	0	DRINK	498	n/a	1	0	0.5869140625	0.422607421875	upper	../fonts/zerothre.ttf
1146196	WORD	wordpools/wasnorm_wordpool_less_exclusions.txt	LTP190	ltpFR	5	8	0	COFFEE	341	n/a	1	0	0.5869140625	0.422607421875	upper	../fonts/zerothre.ttf
1150378	WORD	wordpools/wasnorm_wordpool_less_exclusions.txt	LTP190	ltpFR	5	8	0	CHIMPANZEE	302	n/a	1	0	0.5869140625	0.422607421875	upper	../fonts/zerothre.ttf
1154460	WORD	wordpools/wasnorm_wordpool_less_exclusions.txt	LTP190	ltpFR	5	8	0	FLEA	577	n/a	0	0	0.5869140625	0.422607421875	upper	../fonts/zerothre.ttf
1158325	WORD	wordpools/wasnorm_wordpool_less_exclusions.txt	LTP190	ltpFR	5	8	1	BRACELET	163	n/a	0	1	0.412841796875	0.57763671875	lower	../fonts/amplitud.ttf
1162357	WORD	wordpools/wasnorm_wordpool_less_exclusions.txt	LTP190	ltpFR	5	8	1	VALVE	1546	n/a	0	1	0.412841796875	0.57763671875	lower	../fonts/amplitud.ttf
1166456	WORD	wordpools/wasnorm_wordpool_less_exclusions.txt	LTP190	ltpFR	5	8	0	PISTON	1076	n/a	n/a	0	0.5869140625	0.422607421875	upper	../fonts/zerothre.ttf
1169500	SLOW_MSG	n/a	LTP190	ltpFR	5	8	n/a	n/a	n/a	n/a	n/a	n/a	n/a	n/a	n/a	n/a
1172210	WORD	wordpools/wasnorm_wordpool_less_exclusions.txt	LTP190	ltpFR	5	8	0	MONEY	908	n/a	1	0	0.5869140625	0.422607421875	upper	../fonts/zerothre.ttf
1176410	WORD	wordpools/wasnorm_wordpool_less_exclusions.txt	LTP190	ltpFR	5	8	0	ENGINEER	536	n/a	1	0	0.5869140625	0.422607421875	upper	../fonts/zerothre.ttf
1180576	WORD	wordpools/wasnorm_wordpool_less_exclusions.txt	LTP190	ltpFR	5	8	0	EMERALD	528	n/a	2	0	0.5869140625	0.422607421875	upper	../fonts/zerothre.ttf
1183453	KEY_MSG	n/a	LTP190	ltpFR	5	8	n/a	n/a	n/a	n/a	n/a	n/a	n/a	n/a	n/a	n/a
1186136	WORD	wordpools/wasnorm_wordpool_less_exclusions.txt	LTP190	ltpFR	5	8	1	RAIL	1161	n/a	0	1	0.412841796875	0.57763671875	lower	../fonts/amplitud.ttf
1190281	WORD	wordpools/wasnorm_wordpool_less_exclusions.txt	LTP190	ltpFR	5	8	1	FATHER	554	n/a	1	1	0.412841796875	0.57763671875	lower	../fonts/amplitud.ttf
1194361	WORD	wordpools/wasnorm_wordpool_less_exclusions.txt	LTP190	ltpFR	5	8	1	PRAIRIE	1118	n/a	1	1	0.412841796875	0.57763671875	lower	../fonts/amplitud.ttf
1198446	WORD	wordpools/wasnorm_wordpool_less_exclusions.txt	LTP190	ltpFR	5	8	1	VOLLEYBALL	1576	n/a	n/a	1	0.412841796875	0.57763671875	lower	../fonts/amplitud.ttf
1201476	SLOW_MSG	n/a	LTP190	ltpFR	5	8	n/a	n/a	n/a	n/a	n/a	n/a	n/a	n/a	n/a	n/a
1203897	WORD	wordpools/wasnorm_wordpool_less_exclusions.txt	LTP190	ltpFR	5	8	1	DUNE	506	n/a	1	1	0.412841796875	0.57763671875	lower	../fonts/amplitud.ttf
1207811	WORD	wordpools/wasnorm_wordpool_less_exclusions.txt	LTP190	ltpFR	5	8	1	DAD	433	n/a	1	1	0.412841796875	0.57763671875	lower	../fonts/amplitud.ttf
1213751	REC_START	n/a	LTP190	ltpFR	5	8	n/a	n/a	n/a	n/a	n/a	n/a	n/a	n/a	n/a	n/a
1214758	REC_WORD	wordpools/wasnorm_wordpool_less_exclusions.txt	LTP190	ltpFR	5	8	1	DUNE	506	n/a	1	n/a	n/a	n/a	n/a	n/a
1215462	REC_WORD	wordpools/wasnorm_wordpool_less_exclusions.txt	LTP190	ltpFR	5	8	1	FATHER	554	n/a	1	n/a	n/a	n/a	n/a	n/a
1216280	REC_WORD	wordpools/wasnorm_wordpool_less_exclusions.txt	LTP190	ltpFR	5	8	1	DAD	433	n/a	1	n/a	n/a	n/a	n/a	n/a
1218240	REC_WORD	wordpools/wasnorm_wordpool_less_exclusions.txt	LTP190	ltpFR	5	8	1	VOLLEYBALL	1576	n/a	n/a	n/a	n/a	n/a	n/a	n/a
1222092	REC_WORD	wordpools/wasnorm_wordpool_less_exclusions.txt	LTP190	ltpFR	5	8	0	DRINK	498	n/a	1	n/a	n/a	n/a	n/a	n/a
1222915	REC_WORD	wordpools/wasnorm_wordpool_less_exclusions.txt	LTP190	ltpFR	5	8	0	COFFEE	341	n/a	1	n/a	n/a	n/a	n/a	n/a
1233685	REC_WORD	wordpools/wasnorm_wordpool_less_exclusions.txt	LTP190	ltpFR	5	8	0	CHIMPANZEE	302	n/a	1	n/a	n/a	n/a	n/a	n/a
1298001	WORD	wordpools/wasnorm_wordpool_less_exclusions.txt	LTP190	ltpFR	5	9	-1	MECHANIC	884	n/a	-1	1	1.0	1.0	upper	../fonts/Verdana.ttf
1301883	WORD	wordpools/wasnorm_wordpool_less_exclusions.txt	LTP190	ltpFR	5	9	-1	WRENCH	1625	n/a	-1	1	1.0	1.0	upper	../fonts/Verdana.ttf
1305949	WORD	wordpools/wasnorm_wordpool_less_exclusions.txt	LTP190	ltpFR	5	9	-1	GALAXY	617	n/a	-1	1	1.0	1.0	upper	../fonts/Verdana.ttf
1310013	WORD	wordpools/wasnorm_wordpool_less_exclusions.txt	LTP190	ltpFR	5	9	-1	BRAN	167	n/a	-1	1	1.0	1.0	upper	../fonts/Verdana.ttf
1314079	WORD	wordpools/wasnorm_wordpool_less_exclusions.txt	LTP190	ltpFR	5	9	-1	PELICAN	1039	n/a	-1	1	1.0	1.0	upper	../fonts/Verdana.ttf
1318211	WORD	wordpools/wasnorm_wordpool_less_exclusions.txt	LTP190	ltpFR	5	9	-1	EAGLE	512	n/a	-1	1	1.0	1.0	upper	../fonts/Verdana.ttf
1322042	WORD	wordpools/wasnorm_wordpool_less_exclusions.txt	LTP190	ltpFR	5	9	-1	ARTICLE	42	n/a	-1	1	1.0	1.0	upper	../fonts/Verdana.ttf
1325989	WORD	wordpools/wasnorm_wordpool_less_exclusions.txt	LTP190	ltpFR	5	9	-1	LIMB	822	n/a	-1	1	1.0	1.0	upper	../fonts/Verdana.ttf
1329921	WORD	wordpools/wasnorm_wordpool_less_exclusions.txt	LTP190	ltpFR	5	9	-1	HEDGE	699	n/a	-1	1	1.0	1.0	upper	../fonts/Verdana.ttf
1333986	WORD	wordpools/wasnorm_wordpool_less_exclusions.txt	LTP190	ltpFR	5	9	-1	ICING	732	n/a	-1	1	1.0	1.0	upper	../fonts/Verdana.ttf
1337885	WORD	wordpools/wasnorm_wordpool_less_exclusions.txt	LTP190	ltpFR	5	9	-1	KEYBOARD	774	n/a	-1	1	1.0	1.0	upper	../fonts/Verdana.ttf
1341932	WORD	wordpools/wasnorm_wordpool_less_exclusions.txt	LTP190	ltpFR	5	9	-1	ACORN	3	n/a	-1	1	1.0	1.0	upper	../fonts/Verdana.ttf
1346035	WORD	wordpools/wasnorm_wordpool_less_exclusions.txt	LTP190	ltpFR	5	9	-1	RAKE	1164	n/a	-1	1	1.0	1.0	upper	../fonts/Verdana.ttf
1349896	WORD	wordpools/wasnorm_wordpool_less_exclusions.txt	LTP190	ltpFR	5	9	-1	EDITOR	516	n/a	-1	1	1.0	1.0	upper	../fonts/Verdana.ttf
1353916	WORD	wordpools/wasnorm_wordpool_less_exclusions.txt	LTP190	ltpFR	5	9	-1	SCISSORS	1250	n/a	-1	1	1.0	1.0	upper	../fonts/Verdana.ttf
1357743	WORD	wordpools/wasnorm_wordpool_less_exclusions.txt	LTP190	ltpFR	5	9	-1	SCALPEL	1243	n/a	-1	1	1.0	1.0	upper	../fonts/Verdana.ttf
1363716	REC_START	n/a	LTP190	ltpFR	5	9	n/a	n/a	n/a	n/a	n/a	n/a	n/a	n/a	n/a	n/a
1369897	REC_WORD	wordpools/wasnorm_wordpool_less_exclusions.txt	LTP190	ltpFR	5	9	-1	WRENCH	1625	n/a	-1	n/a	n/a	n/a	n/a	n/a
1370919	REC_WORD	wordpools/wasnorm_wordpool_less_exclusions.txt	LTP190	ltpFR	5	9	n/a	LIZARD	834	n/a	n/a	n/a	n/a	n/a	n/a	n/a
1375010	REC_WORD_VV	wordpools/wasnorm_wordpool_less_exclusions.txt	LTP190	ltpFR	5	9	n/a	<>	-1	n/a	n/a	n/a	n/a	n/a	n/a	n/a
1376010	REC_WORD_VV	wordpools/wasnorm_wordpool_less_exclusions.txt	LTP190	ltpFR	5	9	n/a	<>	-1	n/a	n/a	n/a	n/a	n/a	n/a	n/a
1382693	REC_WORD	wordpools/wasnorm_wordpool_less_exclusions.txt	LTP190	ltpFR	5	9	-1	SCISSORS	1250	n/a	-1	n/a	n/a	n/a	n/a	n/a
1469364	WORD	wordpools/wasnorm_wordpool_less_exclusions.txt	LTP190	ltpFR	5	10	0	BEAST	108	n/a	1	0	0.5869140625	0.422607421875	upper	../fonts/zerothre.ttf
1473312	WORD	wordpools/wasnorm_wordpool_less_exclusions.txt	LTP190	ltpFR	5	10	0	RESTAURANT	1187	n/a	1	0	0.5869140625	0.422607421875	upper	../fonts/zerothre.ttf
1477360	WORD	wordpools/wasnorm_wordpool_less_exclusions.txt	LTP190	ltpFR	5	10	0	SPINE	1353	n/a	1	0	0.5869140625	0.422607421875	upper	../fonts/zerothre.ttf
1481480	WORD	wordpools/wasnorm_wordpool_less_exclusions.txt	LTP190	ltpFR	5	10	0	ANIMAL	23	n/a	1	0	0.5869140625	0.422607421875	upper	../fonts/zerothre.ttf
1485491	WORD	wordpools/wasnorm_wordpool_less_exclusions.txt	LTP190	ltpFR	5	10	0	BLOCKADE	137	n/a	1	0	0.5869140625	0.422607421875	upper	../fonts/zerothre.ttf
1489628	WORD	wordpools/wasnorm_wordpool_less_exclusions.txt	LTP190	ltpFR	5	10	0	PUMPKIN	1142	n/a	n/a	0	0.5869140625	0.422607421875	upper	../fonts/zerothre.ttf
1492658	SLOW_MSG	n/a	LTP190	ltpFR	5	10	n/a	n/a	n/a	n/a	n/a	n/a	n/a	n/a	n/a	n/a
1495178	WORD	wordpools/wasnorm_wordpool_less_exclusions.txt	LTP190	ltpFR	5	10	0	PATIO	1025	n/a	1	0	0.5869140625	0.422607421875	upper	../fonts/zerothre.ttf
1499310	WORD	wordpools/wasnorm_wordpool_less_exclusions.txt	LTP190	ltpFR	5	10	0	GREASE	660	n/a	1	0	0.5869140625	0.422607421875	upper	../fonts/zerothre.ttf
1503129	WORD	wordpools/wasnorm_wordpool_less_exclusions.txt	LTP190	ltpFR	5	10	0	OLIVE	975	n/a	1	0	0.5869140625	0.422607421875	upper	../fonts/zerothre.ttf
1507156	WORD	wordpools/wasnorm_wordpool_less_exclusions.txt	LTP190	ltpFR	5	10	0	VEGETABLE	1552	n/a	1	0	0.5869140625	0.422607421875	upper	../fonts/zerothre.ttf
1511205	WORD	wordpools/wasnorm_wordpool_less_exclusions.txt	LTP190	ltpFR	5	10	0	GRATE	657	n/a	1	0	0.5869140625	0.422607421875	upper	../fonts/zerothre.ttf
1515136	WORD	wordpools/wasnorm_wordpool_less_exclusions.txt	LTP190	ltpFR	5	10	0	ROOST	1208	n/a	n/a	0	0.5869140625	0.422607421875	upper	../fonts/zerothre.ttf
1518169	SLOW_MSG	n/a	LTP190	ltpFR	5	10	n/a	n/a	n/a	n/a	n/a	n/a	n/a	n/a	n/a	n/a
1520523	WORD	wordpools/wasnorm_wordpool_less_exclusions.txt	LTP190	ltpFR	5	10	0	COBBLER	335	n/a	1	0	0.5869140625	0.422607421875	upper	../fonts/zerothre.ttf
1524722	WORD	wordpools/wasnorm_wordpool_less_exclusions.txt	LTP190	ltpFR	5	10	0	ANTLER	29	n/a	1	0	0.5869140625	0.422607421875	upper	../fonts/zerothre.ttf
1528887	WORD	wordpools/wasnorm_wordpool_less_exclusions.txt	LTP190	ltpFR	5	10	0	FRUIT	610	n/a	n/a	0	0.5869140625	0.422607421875	upper	../fonts/zerothre.ttf
1531932	SLOW_MSG	n/a	LTP190	ltpFR	5	10	n/a	n/a	n/a	n/a	n/a	n/a	n/a	n/a	n/a	n/a
1534342	WORD	wordpools/wasnorm_wordpool_less_exclusions.txt	LTP190	ltpFR	5	10	0	ORANGE	980	n/a	1	0	0.5869140625	0.422607421875	upper	../fonts/zerothre.ttf
1540131	REC_START	n/a	LTP190	ltpFR	5	10	n/a	n/a	n/a	n/a	n/a	n/a	n/a	n/a	n/a	n/a
1541303	REC_WORD	wordpools/wasnorm_wordpool_less_exclusions.txt	LTP190	ltpFR	5	10	0	COBBLER	335	n/a	1	n/a	n/a	n/a	n/a	n/a
1541921	REC_WORD	wordpools/wasnorm_wordpool_less_exclusions.txt	LTP190	ltpFR	5	10	0	FRUIT	610	n/a	n/a	n/a	n/a	n/a	n/a	n/a
1542884	REC_WORD	wordpools/wasnorm_wordpool_less_exclusions.txt	LTP190	ltpFR	5	10	0	ORANGE	980	n/a	1	n/a	n/a	n/a	n/a	n/a
1544121	REC_WORD	wordpools/wasnorm_wordpool_less_exclusions.txt	LTP190	ltpFR	5	10	0	BEAST	108	n/a	1	n/a	n/a	n/a	n/a	n/a
1544850	REC_WORD	wordpools/wasnorm_wordpool_less_exclusions.txt	LTP190	ltpFR	5	10	0	RESTAURANT	1187	n/a	1	n/a	n/a	n/a	n/a	n/a
1633599	WORD	wordpools/wasnorm_wordpool_less_exclusions.txt	LTP190	ltpFR	5	11	-1	TREASURE	1500	n/a	-1	1	1.0	1.0	upper	../fonts/Verdana.ttf
1637698	WORD	wordpools/wasnorm_wordpool_less_exclusions.txt	LTP190	ltpFR	5	11	-1	DOLLAR	482	n/a	-1	1	1.0	1.0	upper	../fonts/Verdana.ttf
1641613	WORD	wordpools/wasnorm_wordpool_less_exclusions.txt	LTP190	ltpFR	5	11	-1	FELLOW	558	n/a	-1	1	1.0	1.0	upper	../fonts/Verdana.ttf
1645665	WORD	wordpools/wasnorm_wordpool_less_exclusions.txt	LTP190	ltpFR	5	11	-1	JEWEL	757	n/a	-1	1	1.0	1.0	upper	../fonts/Verdana.ttf
1649493	WORD	wordpools/wasnorm_wordpool_less_exclusions.txt	LTP190	ltpFR	5	11	-1	OWNER	993	n/a	-1	1	1.0	1.0	upper	../fonts/Verdana.ttf
1653414	WORD	wordpools/wasnorm_wordpool_less_exclusions.txt	LTP190	ltpFR	5	11	-1	CUSTOMER	430	n/a	-1	1	1.0	1.0	upper	../fonts/Verdana.ttf
1657322	WORD	wordpools/wasnorm_wordpool_less_exclusions.txt	LTP190	ltpFR	5	11	-1	SWAMP	1416	n/a	-1	1	1.0	1.0	upper	../fonts/Verdana.ttf
1661237	WORD	wordpools/wasnorm_wordpool_less_exclusions.txt	LTP190	ltpFR	5	11	-1	MEDAL	885	n/a	-1	1	1.0	1.0	upper	../fonts/Verdana.ttf
1665185	WORD	wordpools/wasnorm_wordpool_less_exclusions.txt	LTP190	ltpFR	5	11	-1	CATHEDRAL	260	n/a	-1	1	1.0	1.0	upper	../fonts/Verdana.ttf
1669320	WORD	wordpools/wasnorm_wordpool_less_exclusions.txt	LTP190	ltpFR	5	11	-1	CALF	222	n/a	-1	1	1.0	1.0	upper	../fonts/Verdana.ttf
1673523	WORD	wordpools/wasnorm_wordpool_less_exclusions.txt	LTP190	ltpFR	5	11	-1	DOLPHIN	483	n/a	-1	1	1.0	1.0	upper	../fonts/Verdana.ttf
1677682	WORD	wordpools/wasnorm_wordpool_less_exclusions.txt	LTP190	ltpFR	5	11	-1	CROCODILE	411	n/a	-1	1	1.0	1.0	upper	../fonts/Verdana.ttf
1681630	WORD	wordpools/wasnorm_wordpool_less_exclusions.txt	LTP190	ltpFR	5	11	-1	STAKE	1368	n/a	-1	1	1.0	1.0	upper	../fonts/Verdana.ttf
1685696	WORD	wordpools/wasnorm_wordpool_less_exclusions.txt	LTP190	ltpFR	5	11	-1	HAMMER	680	n/a	-1	1	1.0	1.0	upper	../fonts/Verdana.ttf
1689811	WORD	wordpools/wasnorm_wordpool_less_exclusions.txt	LTP190	ltpFR	5	11	-1	FOE	587	n/a	-1	1	1.0	1.0	upper	../fonts/Verdana.ttf
1693776	WORD	wordpools/wasnorm_wordpool_less_exclusions.txt	LTP190	ltpFR	5	11	-1	SHELTER	1282	n/a	-1	1	1.0	1.0	upper	../fonts/Verdana.ttf
1699649	REC_START	n/a	LTP190	ltpFR	5	11	n/a	n/a	n/a	n/a	n/a	n/a	n/a	n/a	n/a	n/a
1774649	REC_WORD_VV	wordpools/wasnorm_wordpool_less_exclusions.txt	LTP190	ltpFR	5	11	n/a	<>	-1	n/a	n/a	n/a	n/a	n/a	n/a	n/a
1780053	WORD	wordpools/wasnorm_wordpool_less_exclusions.txt	LTP190	ltpFR	5	12	1	ESCALATOR	539	n/a	0	1	0.412841796875	0.57763671875	lower	../fonts/amplitud.ttf
1784023	WORD	wordpools/wasnorm_wordpool_less_exclusions.txt	LTP190	ltpFR	5	12	1	BEAVER	109	n/a	1	1	0.412841796875	0.57763671875	lower	../fonts/amplitud.ttf
1788199	WORD	wordpools/wasnorm_wordpool_less_exclusions.txt	LTP190	ltpFR	5	12	1	TROUT	1511	n/a	1	1	0.412841796875	0.57763671875	lower	../fonts/amplitud.ttf
1792348	WORD	wordpools/wasnorm_wordpool_less_exclusions.txt	LTP190	ltpFR	5	12	1	CORN	381	n/a	0	1	0.412841796875	0.57763671875	lower	../fonts/amplitud.ttf
1796279	WORD	wordpools/wasnorm_wordpool_less_exclusions.txt	LTP190	ltpFR	5	12	1	MUSHROOM	934	n/a	0	1	0.412841796875	0.57763671875	lower	../fonts/amplitud.ttf
1800261	WORD	wordpools/wasnorm_wordpool_less_exclusions.txt	LTP190	ltpFR	5	12	1	SHRIMP	1297	n/a	1	1	0.412841796875	0.57763671875	lower	../fonts/amplitud.ttf
1804209	WORD	wordpools/wasnorm_wordpool_less_exclusions.txt	LTP190	ltpFR	5	12	1	FOX	598	n/a	n/a	1	0.412841796875	0.57763671875	lower	../fonts/amplitud.ttf
1807245	SLOW_MSG	n/a	LTP190	ltpFR	5	12	n/a	n/a	n/a	n/a	n/a	n/a	n/a	n/a	n/a	n/a
1809713	WORD	wordpools/wasnorm_wordpool_less_exclusions.txt	LTP190	ltpFR	5	12	1	SANDWICH	1232	n/a	1	1	0.412841796875	0.57763671875	lower	../fonts/amplitud.ttf
1813728	WORD	wordpools/wasnorm_wordpool_less_exclusions.txt	LTP190	ltpFR	5	12	1	PAVEMENT	1028	n/a	0	1	0.412841796875	0.57763671875	lower	../fonts/amplitud.ttf
1817593	WORD	wordpools/wasnorm_wordpool_less_exclusions.txt	LTP190	ltpFR	5	12	1	PATH	1023	n/a	1	1	0.412841796875	0.57763671875	lower	../fonts/amplitud.ttf
1821457	WORD	wordpools/wasnorm_wordpool_less_exclusions.txt	LTP190	ltpFR	5	12	1	ABDOMEN	1	n/a	1	1	0.412841796875	0.57763671875	lower	../fonts/amplitud.ttf
1825573	WORD	wordpools/wasnorm_wordpool_less_exclusions.txt	LTP190	ltpFR	5	12	1	HEN	703	n/a	n/a	1	0.412841796875	0.57763671875	lower	../fonts/amplitud.ttf
1828603	SLOW_MSG	n/a	LTP190	ltpFR	5	12	n/a	n/a	n/a	n/a	n/a	n/a	n/a	n/a	n/a	n/a
1831211	WORD	wordpools/wasnorm_wordpool_less_exclusions.txt	LTP190	ltpFR	5	12	1	HOUSE	725	n/a	0	1	0.412841796875	0.57763671875	lower	../fonts/amplitud.ttf
1835278	WORD	wordpools/wasnorm_wordpool_less_exclusions.txt	LTP190	ltpFR	5	12	1	LADY	794	n/a	0	1	0.412841796875	0.57763671875	lower	../fonts/amplitud.ttf
1839425	WORD	wordpools/wasnorm_wordpool_less_exclusions.txt	LTP190	ltpFR	5	12	1	STEAM	1375	n/a	n/a	1	0.412841796875	0.57763671875	lower	../fonts/amplitud.ttf
1842461	SLOW_MSG	n/a	LTP190	ltpFR	5	12	n/a	n/a	n/a	n/a	n/a	n/a	n/a	n/a	n/a	n/a
1845013	WORD	wordpools/wasnorm_wordpool_less_exclusions.txt	LTP190	ltpFR	5	12	1	HEATER	698	n/a	1	1	0.412841796875	0.57763671875	lower	../fonts/amplitud.ttf
1850968	REC_START	n/a	LTP190	ltpFR	5	12	n/a	n/a	n/a	n/a	n/a	n/a	n/a	n/a	n/a	n/a
1851796	REC_WORD	wordpools/wasnorm_wordpool_less_exclusions.txt	LTP190	ltpFR	5	12	1	HEATER	698	n/a	1	n/a	n/a	n/a	n/a	n/a
1886143	REC_WORD	wordpools/wasnorm_wordpool_less_exclusions.txt	LTP190	ltpFR	5	12	1	ESCALATOR	539	n/a	0	n/a	n/a	n/a	n/a	n/a
1926604	REST_REWET	n/a	LTP190	ltpFR	5	12	n/a	n/a	n/a	n/a	n/a	n/a	n/a	n/a	n/a	n/a
2267120	WORD	wordpools/wasnorm_wordpool_less_exclusions.txt	LTP190	ltpFR	5	13	1	SHEEP	1278	n/a	1	1	0.412841796875	0.57763671875	lower	../fonts/amplitud.ttf
2271085	WORD	wordpools/wasnorm_wordpool_less_exclusions.txt	LTP190	ltpFR	5	13	1	ALLIGATOR	16	n/a	1	1	0.412841796875	0.57763671875	lower	../fonts/amplitud.ttf
2274988	WORD	wordpools/wasnorm_wordpool_less_exclusions.txt	LTP190	ltpFR	5	13	1	WALLET	1583	n/a	0	1	0.412841796875	0.57763671875	lower	../fonts/amplitud.ttf
2279048	WORD	wordpools/wasnorm_wordpool_less_exclusions.txt	LTP190	ltpFR	5	13	1	FOUNTAIN	597	n/a	0	1	0.412841796875	0.57763671875	lower	../fonts/amplitud.ttf
2283013	WORD	wordpools/wasnorm_wordpool_less_exclusions.txt	LTP190	ltpFR	5	13	0	BAY	102	n/a	1	0	0.5869140625	0.422607421875	upper	../fonts/zerothre.ttf
2287129	WORD	wordpools/wasnorm_wordpool_less_exclusions.txt	LTP190	ltpFR	5	13	0	STREAM	1392	n/a	1	0	0.5869140625	0.422607421875	upper	../fonts/zerothre.ttf
2291178	WORD	wordpools/wasnorm_wordpool_less_exclusions.txt	LTP190	ltpFR	5	13	1	CANNON	232	n/a	0	1	0.412841796875	0.57763671875	lower	../fonts/amplitud.ttf
2295393	WORD	wordpools/wasnorm_wordpool_less_exclusions.txt	LTP190	ltpFR	5	13	1	ITEM	746	n/a	0	1	0.412841796875	0.57763671875	lower	../fonts/amplitud.ttf
2299509	WORD	wordpools/wasnorm_wordpool_less_exclusions.txt	LTP190	ltpFR	5	13	1	FREEZER	604	n/a	0	1	0.412841796875	0.57763671875	lower	../fonts/amplitud.ttf
2303440	WORD	wordpools/wasnorm_wordpool_less_exclusions.txt	LTP190	ltpFR	5	13	1	HANDKERCHIEF	686	n/a	0	1	0.412841796875	0.57763671875	lower	../fonts/amplitud.ttf
2307522	WORD	wordpools/wasnorm_wordpool_less_exclusions.txt	LTP190	ltpFR	5	13	0	POCKET	1093	n/a	0	0	0.5869140625	0.422607421875	upper	../fonts/zerothre.ttf
2311504	WORD	wordpools/wasnorm_wordpool_less_exclusions.txt	LTP190	ltpFR	5	13	0	SNOB	1335	n/a	0	0	0.5869140625	0.422607421875	upper	../fonts/zerothre.ttf
2315469	WORD	wordpools/wasnorm_wordpool_less_exclusions.txt	LTP190	ltpFR	5	13	0	AIRCRAFT	11	n/a	1	0	0.5869140625	0.422607421875	upper	../fonts/zerothre.ttf
2319302	WORD	wordpools/wasnorm_wordpool_less_exclusions.txt	LTP190	ltpFR	5	13	0	POOL	1103	n/a	1	0	0.5869140625	0.422607421875	upper	../fonts/zerothre.ttf
2323265	WORD	wordpools/wasnorm_wordpool_less_exclusions.txt	LTP190	ltpFR	5	13	0	VET	1560	n/a	1	0	0.5869140625	0.422607421875	upper	../fonts/zerothre.ttf
2327297	WORD	wordpools/wasnorm_wordpool_less_exclusions.txt	LTP190	ltpFR	5	13	0	SOCKET	1340	n/a	1	0	0.5869140625	0.422607421875	upper	../fonts/zerothre.ttf
2333253	REC_START	n/a	LTP190	ltpFR	5	13	n/a	n/a	n/a	n/a	n/a	n/a	n/a	n/a	n/a	n/a
2334530	REC_WORD	wordpools/wasnorm_wordpool_less_exclusions.txt	LTP190	ltpFR	5	13	0	AIRCRAFT	11	n/a	1	n/a	n/a	n/a	n/a	n/a
2335343	REC_WORD	wordpools/wasnorm_wordpool_less_exclusions.txt	LTP190	ltpFR	5	13	0	POOL	1103	n/a	1	n/a	n/a	n/a	n/a	n/a
2335912	REC_WORD	wordpools/wasnorm_wordpool_less_exclusions.txt	LTP190	ltpFR	5	13	0	VET	1560	n/a	1	n/a	n/a	n/a	n/a	n/a
2336426	REC_WORD	wordpools/wasnorm_wordpool_less_exclusions.txt	LTP190	ltpFR	5	13	0	SOCKET	1340	n/a	1	n/a	n/a	n/a	n/a	n/a
2337408	REC_WORD	wordpools/wasnorm_wordpool_less_exclusions.txt	LTP190	ltpFR	5	13	0	SNOB	1335	n/a	0	n/a	n/a	n/a	n/a	n/a
2339104	REC_WORD	wordpools/wasnorm_wordpool_less_exclusions.txt	LTP190	ltpFR	5	13	1	HANDKERCHIEF	686	n/a	0	n/a	n/a	n/a	n/a	n/a
2340596	REC_WORD	wordpools/wasnorm_wordpool_less_exclusions.txt	LTP190	ltpFR	5	13	1	ALLIGATOR	16	n/a	1	n/a	n/a	n/a	n/a	n/a
2354036	REC_WORD	wordpools/wasnorm_wordpool_less_exclusions.txt	LTP190	ltpFR	5	13	0	POCKET	1093	n/a	0	n/a	n/a	n/a	n/a	n/a
2356619	REC_WORD	wordpools/wasnorm_wordpool_less_exclusions.txt	LTP190	ltpFR	5	13	0	BAY	102	n/a	1	n/a	n/a	n/a	n/a	n/a
2358850	REC_WORD	wordpools/wasnorm_wordpool_less_exclusions.txt	LTP190	ltpFR	5	13	0	STREAM	1392	n/a	1	n/a	n/a	n/a	n/a	n/a
2431222	WORD	wordpools/wasnorm_wordpool_less_exclusions.txt	LTP190	ltpFR	5	14	-1	ORCHID	982	n/a	-1	1	1.0	1.0	upper	../fonts/Verdana.ttf
2435404	WORD	wordpools/wasnorm_wordpool_less_exclusions.txt	LTP190	ltpFR	5	14	-1	CABBAGE	210	n/a	-1	1	1.0	1.0	upper	../fonts/Verdana.ttf
2439369	WORD	wordpools/wasnorm_wordpool_less_exclusions.txt	LTP190	ltpFR	5	14	-1	LETTER	813	n/a	-1	1	1.0	1.0	upper	../fonts/Verdana.ttf
2443486	WORD	wordpools/wasnorm_wordpool_less_exclusions.txt	LTP190	ltpFR	5	14	-1	MESSAGE	888	n/a	-1	1	1.0	1.0	upper	../fonts/Verdana.ttf
2447450	WORD	wordpools/wasnorm_wordpool_less_exclusions.txt	LTP190	ltpFR	5	14	-1	HORSE	719	n/a	-1	1	1.0	1.0	upper	../fonts/Verdana.ttf
2451431	WORD	wordpools/wasnorm_wordpool_less_exclusions.txt	LTP190	ltpFR	5	14	-1	SKUNK	1321	n/a	-1	1	1.0	1.0	upper	../fonts/Verdana.ttf
2455564	WORD	wordpools/wasnorm_wordpool_less_exclusions.txt	LTP190	ltpFR	5	14	-1	CUPBOARD	425	n/a	-1	1	1.0	1.0	upper	../fonts/Verdana.ttf
2459411	WORD	wordpools/wasnorm_wordpool_less_exclusions.txt	LTP190	ltpFR	5	14	-1	LOBSTER	837	n/a	-1	1	1.0	1.0	upper	../fonts/Verdana.ttf
2463276	WORD	wordpools/wasnorm_wordpool_less_exclusions.txt	LTP190	ltpFR	5	14	-1	PARCEL	1012	n/a	-1	1	1.0	1.0	upper	../fonts/Verdana.ttf
2467492	WORD	wordpools/wasnorm_wordpool_less_exclusions.txt	LTP190	ltpFR	5	14	-1	FLEET	578	n/a	-1	1	1.0	1.0	upper	../fonts/Verdana.ttf
2471624	WORD	wordpools/wasnorm_wordpool_less_exclusions.txt	LTP190	ltpFR	5	14	-1	WORKER	1621	n/a	-1	1	1.0	1.0	upper	../fonts/Verdana.ttf
2475656	WORD	wordpools/wasnorm_wordpool_less_exclusions.txt	LTP190	ltpFR	5	14	-1	DEPARTMENT	449	n/a	-1	1	1.0	1.0	upper	../fonts/Verdana.ttf
2479772	WORD	wordpools/wasnorm_wordpool_less_exclusions.txt	LTP190	ltpFR	5	14	-1	PEDAL	1037	n/a	-1	1	1.0	1.0	upper	../fonts/Verdana.ttf
2483821	WORD	wordpools/wasnorm_wordpool_less_exclusions.txt	LTP190	ltpFR	5	14	-1	BIKE	125	n/a	-1	1	1.0	1.0	upper	../fonts/Verdana.ttf
2487852	WORD	wordpools/wasnorm_wordpool_less_exclusions.txt	LTP190	ltpFR	5	14	-1	GARLIC	624	n/a	-1	1	1.0	1.0	upper	../fonts/Verdana.ttf
2491900	WORD	wordpools/wasnorm_wordpool_less_exclusions.txt	LTP190	ltpFR	5	14	-1	DISH	474	n/a	-1	1	1.0	1.0	upper	../fonts/Verdana.ttf
2497824	REC_START	n/a	LTP190	ltpFR	5	14	n/a	n/a	n/a	n/a	n/a	n/a	n/a	n/a	n/a	n/a
2498298	REC_WORD	wordpools/wasnorm_wordpool_less_exclusions.txt	LTP190	ltpFR	5	14	-1	DISH	474	n/a	-1	n/a	n/a	n/a	n/a	n/a
2499086	REC_WORD	wordpools/wasnorm_wordpool_less_exclusions.txt	LTP190	ltpFR	5	14	-1	GARLIC	624	n/a	-1	n/a	n/a	n/a	n/a	n/a
2499884	REC_WORD	wordpools/wasnorm_wordpool_less_exclusions.txt	LTP190	ltpFR	5	14	-1	CABBAGE	210	n/a	-1	n/a	n/a	n/a	n/a	n/a
2500737	REC_WORD	wordpools/wasnorm_wordpool_less_exclusions.txt	LTP190	ltpFR	5	14	-1	FLEET	578	n/a	-1	n/a	n/a	n/a	n/a	n/a
2512909	REC_WORD	wordpools/wasnorm_wordpool_less_exclusions.txt	LTP190	ltpFR	5	14	-1	WORKER	1621	n/a	-1	n/a	n/a	n/a	n/a	n/a
2620468	WORD	wordpools/wasnorm_wordpool_less_exclusions.txt	LTP190	ltpFR	5	15	1	TEACHER	1440	n/a	1	1	0.412841796875	0.57763671875	lower	../fonts/amplitud.ttf
2624368	WORD	wordpools/wasnorm_wordpool_less_exclusions.txt	LTP190	ltpFR	5	15	1	CLASS	318	n/a	0	1	0.412841796875	0.57763671875	lower	../fonts/amplitud.ttf
2628315	WORD	wordpools/wasnorm_wordpool_less_exclusions.txt	LTP190	ltpFR	5	15	1	ELEPHANT	523	n/a	1	1	0.412841796875	0.57763671875	lower	../fonts/amplitud.ttf
2632263	WORD	wordpools/wasnorm_wordpool_less_exclusions.txt	LTP190	ltpFR	5	15	1	GRADUATE	653	n/a	1	1	0.412841796875	0.57763671875	lower	../fonts/amplitud.ttf
2636479	WORD	wordpools/wasnorm_wordpool_less_exclusions.txt	LTP190	ltpFR	5	15	1	BILL	126	n/a	0	1	0.412841796875	0.57763671875	lower	../fonts/amplitud.ttf
2640531	WORD	wordpools/wasnorm_wordpool_less_exclusions.txt	LTP190	ltpFR	5	15	1	CREATURE	403	n/a	1	1	0.412841796875	0.57763671875	lower	../fonts/amplitud.ttf
2644626	WORD	wordpools/wasnorm_wordpool_less_exclusions.txt	LTP190	ltpFR	5	15	1	JUNGLE	764	n/a	1	1	0.412841796875	0.57763671875	lower	../fonts/amplitud.ttf
2648742	WORD	wordpools/wasnorm_wordpool_less_exclusions.txt	LTP190	ltpFR	5	15	1	LUNCH	849	n/a	0	1	0.412841796875	0.57763671875	lower	../fonts/amplitud.ttf
2652840	WORD	wordpools/wasnorm_wordpool_less_exclusions.txt	LTP190	ltpFR	5	15	1	BACON	67	n/a	0	1	0.412841796875	0.57763671875	lower	../fonts/amplitud.ttf
2656722	WORD	wordpools/wasnorm_wordpool_less_exclusions.txt	LTP190	ltpFR	5	15	1	COMMANDER	354	n/a	0	1	0.412841796875	0.57763671875	lower	../fonts/amplitud.ttf
2660821	WORD	wordpools/wasnorm_wordpool_less_exclusions.txt	LTP190	ltpFR	5	15	1	PENNY	1045	n/a	0	1	0.412841796875	0.57763671875	lower	../fonts/amplitud.ttf
2664852	WORD	wordpools/wasnorm_wordpool_less_exclusions.txt	LTP190	ltpFR	5	15	1	MICROWAVE	892	n/a	0	1	0.412841796875	0.57763671875	lower	../fonts/amplitud.ttf
2669035	WORD	wordpools/wasnorm_wordpool_less_exclusions.txt	LTP190	ltpFR	5	15	1	CANDIDATE	228	n/a	1	1	0.412841796875	0.57763671875	lower	../fonts/amplitud.ttf
2672866	WORD	wordpools/wasnorm_wordpool_less_exclusions.txt	LTP190	ltpFR	5	15	1	DINER	467	n/a	1	1	0.412841796875	0.57763671875	lower	../fonts/amplitud.ttf
2676764	WORD	wordpools/wasnorm_wordpool_less_exclusions.txt	LTP190	ltpFR	5	15	1	COOKBOOK	373	n/a	0	1	0.412841796875	0.57763671875	lower	../fonts/amplitud.ttf
2680948	WORD	wordpools/wasnorm_wordpool_less_exclusions.txt	LTP190	ltpFR	5	15	1	BUTTERFLY	206	n/a	1	1	0.412841796875	0.57763671875	lower	../fonts/amplitud.ttf
2686769	REC_START	n/a	LTP190	ltpFR	5	15	n/a	n/a	n/a	n/a	n/a	n/a	n/a	n/a	n/a	n/a
2687762	REC_WORD	wordpools/wasnorm_wordpool_less_exclusions.txt	LTP190	ltpFR	5	15	1	BUTTERFLY	206	n/a	1	n/a	n/a	n/a	n/a	n/a
2688550	REC_WORD	wordpools/wasnorm_wordpool_less_exclusions.txt	LTP190	ltpFR	5	15	1	TEACHER	1440	n/a	1	n/a	n/a	n/a	n/a	n/a
2689487	REC_WORD	wordpools/wasnorm_wordpool_less_exclusions.txt	LTP190	ltpFR	5	15	1	CLASS	318	n/a	0	n/a	n/a	n/a	n/a	n/a
2690700	REC_WORD	wordpools/wasnorm_wordpool_less_exclusions.txt	LTP190	ltpFR	5	15	1	COOKBOOK	373	n/a	0	n/a	n/a	n/a	n/a	n/a
2697020	REC_WORD	wordpools/wasnorm_wordpool_less_exclusions.txt	LTP190	ltpFR	5	15	1	LUNCH	849	n/a	0	n/a	n/a	n/a	n/a	n/a
2697918	REC_WORD	wordpools/wasnorm_wordpool_less_exclusions.txt	LTP190	ltpFR	5	15	1	DINER	467	n/a	1	n/a	n/a	n/a	n/a	n/a
2792149	WORD	wordpools/wasnorm_wordpool_less_exclusions.txt	LTP190	ltpFR	5	16	0	RECEIPT	1173	n/a	0	0	0.5869140625	0.422607421875	upper	../fonts/zerothre.ttf
2796331	WORD	wordpools/wasnorm_wordpool_less_exclusions.txt	LTP190	ltpFR	5	16	0	BRICK	172	n/a	0	0	0.5869140625	0.422607421875	upper	../fonts/zerothre.ttf
2800547	WORD	wordpools/wasnorm_wordpool_less_exclusions.txt	LTP190	ltpFR	5	16	0	BUTLER	204	n/a	1	0	0.5869140625	0.422607421875	upper	../fonts/zerothre.ttf
2804713	WORD	wordpools/wasnorm_wordpool_less_exclusions.txt	LTP190	ltpFR	5	16	0	BANKER	84	n/a	1	0	0.5869140625	0.422607421875	upper	../fonts/zerothre.ttf
2808562	WORD	wordpools/wasnorm_wordpool_less_exclusions.txt	LTP190	ltpFR	5	16	0	WHISKERS	1605	n/a	0	0	0.5869140625	0.422607421875	upper	../fonts/zerothre.ttf
2812449	WORD	wordpools/wasnorm_wordpool_less_exclusions.txt	LTP190	ltpFR	5	16	0	EXPLOSION	544	n/a	1	0	0.5869140625	0.422607421875	upper	../fonts/zerothre.ttf
2816340	WORD	wordpools/wasnorm_wordpool_less_exclusions.txt	LTP190	ltpFR	5	16	0	MAP	865	n/a	0	0	0.5869140625	0.422607421875	upper	../fonts/zerothre.ttf
2820221	WORD	wordpools/wasnorm_wordpool_less_exclusions.txt	LTP190	ltpFR	5	16	0	LIGHTER	819	n/a	0	0	0.5869140625	0.422607421875	upper	../fonts/zerothre.ttf
2824210	WORD	wordpools/wasnorm_wordpool_less_exclusions.txt	LTP190	ltpFR	5	16	0	PIPE	1073	n/a	1	0	0.5869140625	0.422607421875	upper	../fonts/zerothre.ttf
2828319	WORD	wordpools/wasnorm_wordpool_less_exclusions.txt	LTP190	ltpFR	5	16	0	GANG	619	n/a	1	0	0.5869140625	0.422607421875	upper	../fonts/zerothre.ttf
2832451	WORD	wordpools/wasnorm_wordpool_less_exclusions.txt	LTP190	ltpFR	5	16	0	BUGLE	189	n/a	1	0	0.5869140625	0.422607421875	upper	../fonts/zerothre.ttf
2836583	WORD	wordpools/wasnorm_wordpool_less_exclusions.txt	LTP190	ltpFR	5	16	0	DRUM	502	n/a	1	0	0.5869140625	0.422607421875	upper	../fonts/zerothre.ttf
2840749	WORD	wordpools/wasnorm_wordpool_less_exclusions.txt	LTP190	ltpFR	5	16	0	PAGE	1001	n/a	0	0	0.5869140625	0.422607421875	upper	../fonts/zerothre.ttf
2844852	WORD	wordpools/wasnorm_wordpool_less_exclusions.txt	LTP190	ltpFR	5	16	0	BALCONY	72	n/a	1	0	0.5869140625	0.422607421875	upper	../fonts/zerothre.ttf
2848928	WORD	wordpools/wasnorm_wordpool_less_exclusions.txt	LTP190	ltpFR	5	16	0	COURSE	390	n/a	1	0	0.5869140625	0.422607421875	upper	../fonts/zerothre.ttf
2853095	WORD	wordpools/wasnorm_wordpool_less_exclusions.txt	LTP190	ltpFR	5	16	0	HALL	677	n/a	1	0	0.5869140625	0.422607421875	upper	../fonts/zerothre.ttf
2859002	REC_START	n/a	LTP190	ltpFR	5	16	n/a	n/a	n/a	n/a	n/a	n/a	n/a	n/a	n/a	n/a
2859396	REC_WORD	wordpools/wasnorm_wordpool_less_exclusions.txt	LTP190	ltpFR	5	16	0	HALL	677	n/a	1	n/a	n/a	n/a	n/a	n/a
2860149	REC_WORD	wordpools/wasnorm_wordpool_less_exclusions.txt	LTP190	ltpFR	5	16	0	DRUM	502	n/a	1	n/a	n/a	n/a	n/a	n/a
2860853	REC_WORD	wordpools/wasnorm_wordpool_less_exclusions.txt	LTP190	ltpFR	5	16	0	PAGE	1001	n/a	0	n/a	n/a	n/a	n/a	n/a
2862569	REC_WORD	wordpools/wasnorm_wordpool_less_exclusions.txt	LTP190	ltpFR	5	16	0	BALCONY	72	n/a	1	n/a	n/a	n/a	n/a	n/a
2863566	REC_WORD	wordpools/wasnorm_wordpool_less_exclusions.txt	LTP190	ltpFR	5	16	0	MAP	865	n/a	0	n/a	n/a	n/a	n/a	n/a
2866938	REC_WORD	wordpools/wasnorm_wordpool_less_exclusions.txt	LTP190	ltpFR	5	16	0	BUGLE	189	n/a	1	n/a	n/a	n/a	n/a	n/a
2873558	REC_WORD	wordpools/wasnorm_wordpool_less_exclusions.txt	LTP190	ltpFR	5	16	0	BRICK	172	n/a	0	n/a	n/a	n/a	n/a	n/a
2874307	REC_WORD	wordpools/wasnorm_wordpool_less_exclusions.txt	LTP190	ltpFR	5	16	0	BANKER	84	n/a	1	n/a	n/a	n/a	n/a	n/a
2875360	REC_WORD	wordpools/wasnorm_wordpool_less_exclusions.txt	LTP190	ltpFR	5	16	0	BUTLER	204	n/a	1	n/a	n/a	n/a	n/a	n/a
2885501	REC_WORD	wordpools/wasnorm_wordpool_less_exclusions.txt	LTP190	ltpFR	5	16	0	WHISKERS	1605	n/a	0	n/a	n/a	n/a	n/a	n/a
2982785	REC_START	n/a	LTP190	ltpFR	5	1	n/a	n/a	n/a	n/a	n/a	n/a	n/a	n/a	n/a	n/a
2982834	RECOG_TARGET	n/a	LTP190	ltpFR	5	1	0	GANG	619	4	1	n/a	n/a	n/a	n/a	n/a
2990097	RECOG_RESP	n/a	LTP190	ltpFR	5	1	0	GANG	619	n/a	1	n/a	n/a	n/a	n/a	n/a
2991909	RECOG_CONF	n/a	LTP190	ltpFR	5	1	0	GANG	619	4	1	n/a	n/a	n/a	n/a	n/a
2993925	RECOG_LURE	n/a	LTP190	ltpFR	5	1	n/a	BALLOT	76	5	n/a	n/a	n/a	n/a	n/a	n/a
2995308	RECOG_RESP	n/a	LTP190	ltpFR	5	1	n/a	BALLOT	76	n/a	n/a	n/a	n/a	n/a	n/a	n/a
2996199	RECOG_CONF	n/a	LTP190	ltpFR	5	1	n/a	BALLOT	76	5	n/a	n/a	n/a	n/a	n/a	n/a
2997940	RECOG_LURE	n/a	LTP190	ltpFR	5	1	n/a	KANGAROO	768	3	n/a	n/a	n/a	n/a	n/a	n/a
2998893	RECOG_RESP	n/a	LTP190	ltpFR	5	1	n/a	KANGAROO	768	n/a	n/a	n/a	n/a	n/a	n/a	n/a
2999412	RECOG_CONF	n/a	LTP190	ltpFR	5	1	n/a	KANGAROO	768	3	n/a	n/a	n/a	n/a	n/a	n/a
3001053	RECOG_TARGET	n/a	LTP190	ltpFR	5	1	0	POTATO	1115	2	0	n/a	n/a	n/a	n/a	n/a
3001764	RECOG_RESP	n/a	LTP190	ltpFR	5	1	0	POTATO	1115	n/a	0	n/a	n/a	n/a	n/a	n/a
3002282	RECOG_CONF	n/a	LTP190	ltpFR	5	1	0	POTATO	1115	2	0	n/a	n/a	n/a	n/a	n/a
3003979	RECOG_TARGET	n/a	LTP190	ltpFR	5	1	0	POOL	1103	5	1	n/a	n/a	n/a	n/a	n/a
3005339	RECOG_RESP	n/a	LTP190	ltpFR	5	1	0	POOL	1103	n/a	1	n/a	n/a	n/a	n/a	n/a
3006022	RECOG_CONF	n/a	LTP190	ltpFR	5	1	0	POOL	1103	5	1	n/a	n/a	n/a	n/a	n/a
3007594	RECOG_TARGET	n/a	LTP190	ltpFR	5	1	0	SNOB	1335	5	0	n/a	n/a	n/a	n/a	n/a
3008283	RECOG_RESP	n/a	LTP190	ltpFR	5	1	0	SNOB	1335	n/a	0	n/a	n/a	n/a	n/a	n/a
3008781	RECOG_CONF	n/a	LTP190	ltpFR	5	1	0	SNOB	1335	5	0	n/a	n/a	n/a	n/a	n/a
3010254	RECOG_TARGET	n/a	LTP190	ltpFR	5	1	0	EXPLOSION	544	5	1	n/a	n/a	n/a	n/a	n/a
3010901	RECOG_RESP	n/a	LTP190	ltpFR	5	1	0	EXPLOSION	544	n/a	1	n/a	n/a	n/a	n/a	n/a
3011435	RECOG_CONF	n/a	LTP190	ltpFR	5	1	0	EXPLOSION	544	5	1	n/a	n/a	n/a	n/a	n/a
3012948	RECOG_TARGET	n/a	LTP190	ltpFR	5	1	1	SHEEP	1278	5	1	n/a	n/a	n/a	n/a	n/a
3013521	RECOG_RESP	n/a	LTP190	ltpFR	5	1	1	SHEEP	1278	n/a	1	n/a	n/a	n/a	n/a	n/a
3014099	RECOG_CONF	n/a	LTP190	ltpFR	5	1	1	SHEEP	1278	5	1	n/a	n/a	n/a	n/a	n/a
3015675	RECOG_TARGET	n/a	LTP190	ltpFR	5	1	1	BILL	126	5	0	n/a	n/a	n/a	n/a	n/a
3016287	RECOG_RESP	n/a	LTP190	ltpFR	5	1	1	BILL	126	n/a	0	n/a	n/a	n/a	n/a	n/a
3016832	RECOG_CONF	n/a	LTP190	ltpFR	5	1	1	BILL	126	5	0	n/a	n/a	n/a	n/a	n/a
3018376	RECOG_TARGET	n/a	LTP190	ltpFR	5	1	1	SANDWICH	1232	5	1	n/a	n/a	n/a	n/a	n/a
3019106	RECOG_RESP	n/a	LTP190	ltpFR	5	1	1	SANDWICH	1232	n/a	1	n/a	n/a	n/a	n/a	n/a
3019676	RECOG_CONF	n/a	LTP190	ltpFR	5	1	1	SANDWICH	1232	5	1	n/a	n/a	n/a	n/a	n/a
3021179	RECOG_TARGET	n/a	LTP190	ltpFR	5	1	0	BANJO	82	5	1	n/a	n/a	n/a	n/a	n/a
3021936	RECOG_RESP	n/a	LTP190	ltpFR	5	1	0	BANJO	82	n/a	1	n/a	n/a	n/a	n/a	n/a
3022510	RECOG_CONF	n/a	LTP190	ltpFR	5	1	0	BANJO	82	5	1	n/a	n/a	n/a	n/a	n/a
3024123	RECOG_TARGET	n/a	LTP190	ltpFR	5	1	0	SKI	1316	5	1	n/a	n/a	n/a	n/a	n/a
3024762	RECOG_RESP	n/a	LTP190	ltpFR	5	1	0	SKI	1316	n/a	1	n/a	n/a	n/a	n/a	n/a
3025343	RECOG_CONF	n/a	LTP190	ltpFR	5	1	0	SKI	1316	5	1	n/a	n/a	n/a	n/a	n/a
3026933	RECOG_TARGET	n/a	LTP190	ltpFR	5	1	0	CHEST	295	3	1	n/a	n/a	n/a	n/a	n/a
3027766	RECOG_RESP	n/a	LTP190	ltpFR	5	1	0	CHEST	295	n/a	1	n/a	n/a	n/a	n/a	n/a
3028436	RECOG_CONF	n/a	LTP190	ltpFR	5	1	0	CHEST	295	3	1	n/a	n/a	n/a	n/a	n/a
3030012	RECOG_TARGET	n/a	LTP190	ltpFR	5	1	-1	CALF	222	5	-1	n/a	n/a	n/a	n/a	n/a
3030693	RECOG_RESP	n/a	LTP190	ltpFR	5	1	-1	CALF	222	n/a	-1	n/a	n/a	n/a	n/a	n/a
3031250	RECOG_CONF	n/a	LTP190	ltpFR	5	1	-1	CALF	222	5	-1	n/a	n/a	n/a	n/a	n/a
3032725	RECOG_LURE	n/a	LTP190	ltpFR	5	1	n/a	DUNGEON	507	2	n/a	n/a	n/a	n/a	n/a	n/a
3034354	RECOG_RESP	n/a	LTP190	ltpFR	5	1	n/a	DUNGEON	507	n/a	n/a	n/a	n/a	n/a	n/a	n/a
3034865	RECOG_CONF	n/a	LTP190	ltpFR	5	1	n/a	DUNGEON	507	2	n/a	n/a	n/a	n/a	n/a	n/a
3036387	RECOG_TARGET	n/a	LTP190	ltpFR	5	1	1	LADY	794	5	0	n/a	n/a	n/a	n/a	n/a
3037349	RECOG_RESP	n/a	LTP190	ltpFR	5	1	1	LADY	794	n/a	0	n/a	n/a	n/a	n/a	n/a
3037856	RECOG_CONF	n/a	LTP190	ltpFR	5	1	1	LADY	794	5	0	n/a	n/a	n/a	n/a	n/a
3039434	RECOG_TARGET	n/a	LTP190	ltpFR	5	1	-1	GARDEN	623	5	-1	n/a	n/a	n/a	n/a	n/a
3040257	RECOG_RESP	n/a	LTP190	ltpFR	5	1	-1	GARDEN	623	n/a	-1	n/a	n/a	n/a	n/a	n/a
3040776	RECOG_CONF	n/a	LTP190	ltpFR	5	1	-1	GARDEN	623	5	-1	n/a	n/a	n/a	n/a	n/a
3042358	RECOG_TARGET	n/a	LTP190	ltpFR	5	1	0	ANTLER	29	5	1	n/a	n/a	n/a	n/a	n/a
3043256	RECOG_RESP	n/a	LTP190	ltpFR	5	1	0	ANTLER	29	n/a	1	n/a	n/a	n/a	n/a	n/a
3043751	RECOG_CONF	n/a	LTP190	ltpFR	5	1	0	ANTLER	29	5	1	n/a	n/a	n/a	n/a	n/a
3045376	RECOG_TARGET	n/a	LTP190	ltpFR	5	1	0	BARLEY	88	5	0	n/a	n/a	n/a	n/a	n/a
3046237	RECOG_RESP	n/a	LTP190	ltpFR	5	1	0	BARLEY	88	n/a	0	n/a	n/a	n/a	n/a	n/a
3046754	RECOG_CONF	n/a	LTP190	ltpFR	5	1	0	BARLEY	88	5	0	n/a	n/a	n/a	n/a	n/a
3048431	RECOG_TARGET	n/a	LTP190	ltpFR	5	1	-1	CAP	236	2	-1	n/a	n/a	n/a	n/a	n/a
3049841	RECOG_RESP	n/a	LTP190	ltpFR	5	1	-1	CAP	236	n/a	-1	n/a	n/a	n/a	n/a	n/a
3050425	RECOG_CONF	n/a	LTP190	ltpFR	5	1	-1	CAP	236	2	-1	n/a	n/a	n/a	n/a	n/a
3055376	REC_START	n/a	LTP190	ltpFR	5	2	n/a	n/a	n/a	n/a	n/a	n/a	n/a	n/a	n/a	n/a
3055424	RECOG_TARGET	n/a	LTP190	ltpFR	5	2	-1	EDITOR	516	5	-1	n/a	n/a	n/a	n/a	n/a
3056791	RECOG_RESP	n/a	LTP190	ltpFR	5	2	-1	EDITOR	516	n/a	-1	n/a	n/a	n/a	n/a	n/a
3057276	RECOG_CONF	n/a	LTP190	ltpFR	5	2	-1	EDITOR	516	5	-1	n/a	n/a	n/a	n/a	n/a
3058937	RECOG_LURE	n/a	LTP190	ltpFR	5	2	n/a	CRYSTAL	418	1	n/a	n/a	n/a	n/a	n/a	n/a
3059833	RECOG_RESP	n/a	LTP190	ltpFR	5	2	n/a	CRYSTAL	418	n/a	n/a	n/a	n/a	n/a	n/a	n/a
3060359	RECOG_CONF	n/a	LTP190	ltpFR	5	2	n/a	CRYSTAL	418	1	n/a	n/a	n/a	n/a	n/a	n/a
3062049	RECOG_TARGET	n/a	LTP190	ltpFR	5	2	0	RADIO	1157	5	0	n/a	n/a	n/a	n/a	n/a
3062798	RECOG_RESP	n/a	LTP190	ltpFR	5	2	0	RADIO	1157	n/a	0	n/a	n/a	n/a	n/a	n/a
3063223	RECOG_CONF	n/a	LTP190	ltpFR	5	2	0	RADIO	1157	5	0	n/a	n/a	n/a	n/a	n/a
3064760	RECOG_TARGET	n/a	LTP190	ltpFR	5	2	1	SADDLE	1221	5	0	n/a	n/a	n/a	n/a	n/a
3065434	RECOG_RESP	n/a	LTP190	ltpFR	5	2	1	SADDLE	1221	n/a	0	n/a	n/a	n/a	n/a	n/a
3065877	RECOG_CONF	n/a	LTP190	ltpFR	5	2	1	SADDLE	1221	5	0	n/a	n/a	n/a	n/a	n/a
3067302	RECOG_LURE	n/a	LTP190	ltpFR	5	2	n/a	MOTH	920	2	n/a	n/a	n/a	n/a	n/a	n/a
3067998	RECOG_RESP	n/a	LTP190	ltpFR	5	2	n/a	MOTH	920	n/a	n/a	n/a	n/a	n/a	n/a	n/a
3068416	RECOG_CONF	n/a	LTP190	ltpFR	5	2	n/a	MOTH	920	2	n/a	n/a	n/a	n/a	n/a	n/a
3070030	RECOG_TARGET	n/a	LTP190	ltpFR	5	2	-1	HAMMER	680	5	-1	n/a	n/a	n/a	n/a	n/a
3070705	RECOG_RESP	n/a	LTP190	ltpFR	5	2	-1	HAMMER	680	n/a	-1	n/a	n/a	n/a	n/a	n/a
3071265	RECOG_CONF	n/a	LTP190	ltpFR	5	2	-1	HAMMER	680	5	-1	n/a	n/a	n/a	n/a	n/a
3072790	RECOG_LURE	n/a	LTP190	ltpFR	5	2	n/a	THICKET	1455	2	n/a	n/a	n/a	n/a	n/a	n/a
3074038	RECOG_RESP	n/a	LTP190	ltpFR	5	2	n/a	THICKET	1455	n/a	n/a	n/a	n/a	n/a	n/a	n/a
3074544	RECOG_CONF	n/a	LTP190	ltpFR	5	2	n/a	THICKET	1455	2	n/a	n/a	n/a	n/a	n/a	n/a
3076069	RECOG_TARGET	n/a	LTP190	ltpFR	5	2	1	HELICOPTER	701	1	1	n/a	n/a	n/a	n/a	n/a
3077231	RECOG_RESP	n/a	LTP190	ltpFR	5	2	1	HELICOPTER	701	n/a	1	n/a	n/a	n/a	n/a	n/a
3077735	RECOG_CONF	n/a	LTP190	ltpFR	5	2	1	HELICOPTER	701	1	1	n/a	n/a	n/a	n/a	n/a
3079348	RECOG_TARGET	n/a	LTP190	ltpFR	5	2	1	SLUG	1329	5	1	n/a	n/a	n/a	n/a	n/a
3080086	RECOG_RESP	n/a	LTP190	ltpFR	5	2	1	SLUG	1329	n/a	1	n/a	n/a	n/a	n/a	n/a
3080524	RECOG_CONF	n/a	LTP190	ltpFR	5	2	1	SLUG	1329	5	1	n/a	n/a	n/a	n/a	n/a
3082125	RECOG_TARGET	n/a	LTP190	ltpFR	5	2	1	ABDOMEN	1	5	1	n/a	n/a	n/a	n/a	n/a
3083001	RECOG_RESP	n/a	LTP190	ltpFR	5	2	1	ABDOMEN	1	n/a	1	n/a	n/a	n/a	n/a	n/a
3083467	RECOG_CONF	n/a	LTP190	ltpFR	5	2	1	ABDOMEN	1	5	1	n/a	n/a	n/a	n/a	n/a
3084986	RECOG_TARGET	n/a	LTP190	ltpFR	5	2	-1	RAKE	1164	5	-1	n/a	n/a	n/a	n/a	n/a
3085753	RECOG_RESP	n/a	LTP190	ltpFR	5	2	-1	RAKE	1164	n/a	-1	n/a	n/a	n/a	n/a	n/a
3086231	RECOG_CONF	n/a	LTP190	ltpFR	5	2	-1	RAKE	1164	5	-1	n/a	n/a	n/a	n/a	n/a
3087830	RECOG_TARGET	n/a	LTP190	ltpFR	5	2	1	FATHER	554	5	1	n/a	n/a	n/a	n/a	n/a
3088549	RECOG_RESP	n/a	LTP190	ltpFR	5	2	1	FATHER	554	n/a	1	n/a	n/a	n/a	n/a	n/a
3088994	RECOG_CONF	n/a	LTP190	ltpFR	5	2	1	FATHER	554	5	1	n/a	n/a	n/a	n/a	n/a
3090547	RECOG_TARGET	n/a	LTP190	ltpFR	5	2	0	BRICK	172	5	0	n/a	n/a	n/a	n/a	n/a
3091196	RECOG_RESP	n/a	LTP190	ltpFR	5	2	0	BRICK	172	n/a	0	n/a	n/a	n/a	n/a	n/a
3091648	RECOG_CONF	n/a	LTP190	ltpFR	5	2	0	BRICK	172	5	0	n/a	n/a	n/a	n/a	n/a
3093116	RECOG_TARGET	n/a	LTP190	ltpFR	5	2	-1	JEWEL	757	5	-1	n/a	n/a	n/a	n/a	n/a
3093883	RECOG_RESP	n/a	LTP190	ltpFR	5	2	-1	JEWEL	757	n/a	-1	n/a	n/a	n/a	n/a	n/a
3094372	RECOG_CONF	n/a	LTP190	ltpFR	5	2	-1	JEWEL	757	5	-1	n/a	n/a	n/a	n/a	n/a
3095959	RECOG_LURE	n/a	LTP190	ltpFR	5	2	n/a	BASKET	95	1	n/a	n/a	n/a	n/a	n/a	n/a
3096782	RECOG_RESP	n/a	LTP190	ltpFR	5	2	n/a	BASKET	95	n/a	n/a	n/a	n/a	n/a	n/a	n/a
3097360	RECOG_CONF	n/a	LTP190	ltpFR	5	2	n/a	BASKET	95	1	n/a	n/a	n/a	n/a	n/a	n/a
3098887	RECOG_TARGET	n/a	LTP190	ltpFR	5	2	-1	TREASURE	1500	5	-1	n/a	n/a	n/a	n/a	n/a
3099599	RECOG_RESP	n/a	LTP190	ltpFR	5	2	-1	TREASURE	1500	n/a	-1	n/a	n/a	n/a	n/a	n/a
3100079	RECOG_CONF	n/a	LTP190	ltpFR	5	2	-1	TREASURE	1500	5	-1	n/a	n/a	n/a	n/a	n/a
3101531	RECOG_LURE	n/a	LTP190	ltpFR	5	2	n/a	MOWER	928	2	n/a	n/a	n/a	n/a	n/a	n/a
3102481	RECOG_RESP	n/a	LTP190	ltpFR	5	2	n/a	MOWER	928	n/a	n/a	n/a	n/a	n/a	n/a	n/a
3102971	RECOG_CONF	n/a	LTP190	ltpFR	5	2	n/a	MOWER	928	2	n/a	n/a	n/a	n/a	n/a	n/a
3104493	RECOG_TARGET	n/a	LTP190	ltpFR	5	2	1	SERVER	1272	4	0	n/a	n/a	n/a	n/a	n/a
3105377	RECOG_RESP	n/a	LTP190	ltpFR	5	2	1	SERVER	1272	n/a	0	n/a	n/a	n/a	n/a	n/a
3106056	RECOG_CONF	n/a	LTP190	ltpFR	5	2	1	SERVER	1272	4	0	n/a	n/a	n/a	n/a	n/a
3107621	RECOG_TARGET	n/a	LTP190	ltpFR	5	2	0	LIGHTER	819	5	0	n/a	n/a	n/a	n/a	n/a
3108291	RECOG_RESP	n/a	LTP190	ltpFR	5	2	0	LIGHTER	819	n/a	0	n/a	n/a	n/a	n/a	n/a
3108710	RECOG_CONF	n/a	LTP190	ltpFR	5	2	0	LIGHTER	819	5	0	n/a	n/a	n/a	n/a	n/a
3110181	RECOG_TARGET	n/a	LTP190	ltpFR	5	2	-1	PEDAL	1037	5	-1	n/a	n/a	n/a	n/a	n/a
3110878	RECOG_RESP	n/a	LTP190	ltpFR	5	2	-1	PEDAL	1037	n/a	-1	n/a	n/a	n/a	n/a	n/a
3111294	RECOG_CONF	n/a	LTP190	ltpFR	5	2	-1	PEDAL	1037	5	-1	n/a	n/a	n/a	n/a	n/a
3114521	REC_START	n/a	LTP190	ltpFR	5	3	n/a	n/a	n/a	n/a	n/a	n/a	n/a	n/a	n/a	n/a
3114568	RECOG_TARGET	n/a	LTP190	ltpFR	5	3	-1	SAUCER	1237	1	-1	n/a	n/a	n/a	n/a	n/a
3115746	RECOG_RESP	n/a	LTP190	ltpFR	5	3	-1	SAUCER	1237	n/a	-1	n/a	n/a	n/a	n/a	n/a
3116216	RECOG_CONF	n/a	LTP190	ltpFR	5	3	-1	SAUCER	1237	1	-1	n/a	n/a	n/a	n/a	n/a
3117892	RECOG_TARGET	n/a	LTP190	ltpFR	5	3	0	TILE	1468	5	0	n/a	n/a	n/a	n/a	n/a
3118621	RECOG_RESP	n/a	LTP190	ltpFR	5	3	0	TILE	1468	n/a	0	n/a	n/a	n/a	n/a	n/a
3119026	RECOG_CONF	n/a	LTP190	ltpFR	5	3	0	TILE	1468	5	0	n/a	n/a	n/a	n/a	n/a
3120603	RECOG_TARGET	n/a	LTP190	ltpFR	5	3	1	PAVEMENT	1028	5	0	n/a	n/a	n/a	n/a	n/a
3121551	RECOG_RESP	n/a	LTP190	ltpFR	5	3	1	PAVEMENT	1028	n/a	0	n/a	n/a	n/a	n/a	n/a
3121949	RECOG_CONF	n/a	LTP190	ltpFR	5	3	1	PAVEMENT	1028	5	0	n/a	n/a	n/a	n/a	n/a
3123482	RECOG_TARGET	n/a	LTP190	ltpFR	5	3	1	SUIT	1402	2	n/a	n/a	n/a	n/a	n/a	n/a
3124255	RECOG_RESP	n/a	LTP190	ltpFR	5	3	1	SUIT	1402	n/a	n/a	n/a	n/a	n/a	n/a	n/a
3124754	RECOG_CONF	n/a	LTP190	ltpFR	5	3	1	SUIT	1402	2	n/a	n/a	n/a	n/a	n/a	n/a
3126325	RECOG_LURE	n/a	LTP190	ltpFR	5	3	n/a	MOP	916	1	n/a	n/a	n/a	n/a	n/a	n/a
3127389	RECOG_RESP	n/a	LTP190	ltpFR	5	3	n/a	MOP	916	n/a	n/a	n/a	n/a	n/a	n/a	n/a
3127914	RECOG_CONF	n/a	LTP190	ltpFR	5	3	n/a	MOP	916	1	n/a	n/a	n/a	n/a	n/a	n/a
3129437	RECOG_LURE	n/a	LTP190	ltpFR	5	3	n/a	GIFT	635	4	n/a	n/a	n/a	n/a	n/a	n/a
3130171	RECOG_RESP	n/a	LTP190	ltpFR	5	3	n/a	GIFT	635	n/a	n/a	n/a	n/a	n/a	n/a	n/a
3130789	RECOG_CONF	n/a	LTP190	ltpFR	5	3	n/a	GIFT	635	4	n/a	n/a	n/a	n/a	n/a	n/a
3132281	RECOG_LURE	n/a	LTP190	ltpFR	5	3	n/a	CERAMICS	271	5	n/a	n/a	n/a	n/a	n/a	n/a
3133091	RECOG_RESP	n/a	LTP190	ltpFR	5	3	n/a	CERAMICS	271	n/a	n/a	n/a	n/a	n/a	n/a	n/a
3133672	RECOG_CONF	n/a	LTP190	ltpFR	5	3	n/a	CERAMICS	271	5	n/a	n/a	n/a	n/a	n/a	n/a
3135292	RECOG_TARGET	n/a	LTP190	ltpFR	5	3	-1	MEDAL	885	4	-1	n/a	n/a	n/a	n/a	n/a
3135894	RECOG_RESP	n/a	LTP190	ltpFR	5	3	-1	MEDAL	885	n/a	-1	n/a	n/a	n/a	n/a	n/a
3136383	RECOG_CONF	n/a	LTP190	ltpFR	5	3	-1	MEDAL	885	4	-1	n/a	n/a	n/a	n/a	n/a
3138052	RECOG_LURE	n/a	LTP190	ltpFR	5	3	n/a	STEWARDESS	1381	1	n/a	n/a	n/a	n/a	n/a	n/a
3138979	RECOG_RESP	n/a	LTP190	ltpFR	5	3	n/a	STEWARDESS	1381	n/a	n/a	n/a	n/a	n/a	n/a	n/a
3139569	RECOG_CONF	n/a	LTP190	ltpFR	5	3	n/a	STEWARDESS	1381	1	n/a	n/a	n/a	n/a	n/a	n/a
3141131	RECOG_TARGET	n/a	LTP190	ltpFR	5	3	1	STOCKING	1383	2	0	n/a	n/a	n/a	n/a	n/a
3142508	RECOG_RESP	n/a	LTP190	ltpFR	5	3	1	STOCKING	1383	n/a	0	n/a	n/a	n/a	n/a	n/a
3143048	RECOG_CONF	n/a	LTP190	ltpFR	5	3	1	STOCKING	1383	2	0	n/a	n/a	n/a	n/a	n/a
3144615	RECOG_TARGET	n/a	LTP190	ltpFR	5	3	1	JUNGLE	764	5	1	n/a	n/a	n/a	n/a	n/a
3145283	RECOG_RESP	n/a	LTP190	ltpFR	5	3	1	JUNGLE	764	n/a	1	n/a	n/a	n/a	n/a	n/a
3145675	RECOG_CONF	n/a	LTP190	ltpFR	5	3	1	JUNGLE	764	5	1	n/a	n/a	n/a	n/a	n/a
3147271	RECOG_TARGET	n/a	LTP190	ltpFR	5	3	1	MAID	856	5	1	n/a	n/a	n/a	n/a	n/a
3147913	RECOG_RESP	n/a	LTP190	ltpFR	5	3	1	MAID	856	n/a	1	n/a	n/a	n/a	n/a	n/a
3148319	RECOG_CONF	n/a	LTP190	ltpFR	5	3	1	MAID	856	5	1	n/a	n/a	n/a	n/a	n/a
3149946	RECOG_TARGET	n/a	LTP190	ltpFR	5	3	0	PIPE	1073	5	1	n/a	n/a	n/a	n/a	n/a
3150531	RECOG_RESP	n/a	LTP190	ltpFR	5	3	0	PIPE	1073	n/a	1	n/a	n/a	n/a	n/a	n/a
3150963	RECOG_CONF	n/a	LTP190	ltpFR	5	3	0	PIPE	1073	5	1	n/a	n/a	n/a	n/a	n/a
3152557	RECOG_TARGET	n/a	LTP190	ltpFR	5	3	0	TREE	1502	5	1	n/a	n/a	n/a	n/a	n/a
3153103	RECOG_RESP	n/a	LTP190	ltpFR	5	3	0	TREE	1502	n/a	1	n/a	n/a	n/a	n/a	n/a
3153567	RECOG_CONF	n/a	LTP190	ltpFR	5	3	0	TREE	1502	5	1	n/a	n/a	n/a	n/a	n/a
3155202	RECOG_TARGET	n/a	LTP190	ltpFR	5	3	0	VASE	1549	5	1	n/a	n/a	n/a	n/a	n/a
3155794	RECOG_RESP	n/a	LTP190	ltpFR	5	3	0	VASE	1549	n/a	1	n/a	n/a	n/a	n/a	n/a
3156291	RECOG_CONF	n/a	LTP190	ltpFR	5	3	0	VASE	1549	5	1	n/a	n/a	n/a	n/a	n/a
3157960	RECOG_TARGET	n/a	LTP190	ltpFR	5	3	0	PATIO	1025	5	1	n/a	n/a	n/a	n/a	n/a
3158740	RECOG_RESP	n/a	LTP190	ltpFR	5	3	0	PATIO	1025	n/a	1	n/a	n/a	n/a	n/a	n/a
3159413	RECOG_CONF	n/a	LTP190	ltpFR	5	3	0	PATIO	1025	5	1	n/a	n/a	n/a	n/a	n/a
3160921	RECOG_TARGET	n/a	LTP190	ltpFR	5	3	1	DONKEY	484	5	1	n/a	n/a	n/a	n/a	n/a
3161502	RECOG_RESP	n/a	LTP190	ltpFR	5	3	1	DONKEY	484	n/a	1	n/a	n/a	n/a	n/a	n/a
3162038	RECOG_CONF	n/a	LTP190	ltpFR	5	3	1	DONKEY	484	5	1	n/a	n/a	n/a	n/a	n/a
3163600	RECOG_TARGET	n/a	LTP190	ltpFR	5	3	-1	WRENCH	1625	5	-1	n/a	n/a	n/a	n/a	n/a
3164383	RECOG_RESP	n/a	LTP190	ltpFR	5	3	-1	WRENCH	1625	n/a	-1	n/a	n/a	n/a	n/a	n/a
3164891	RECOG_CONF	n/a	LTP190	ltpFR	5	3	-1	WRENCH	1625	5	-1	n/a	n/a	n/a	n/a	n/a
3166514	RECOG_TARGET	n/a	LTP190	ltpFR	5	3	1	BEAVER	109	5	1	n/a	n/a	n/a	n/a	n/a
3167176	RECOG_RESP	n/a	LTP190	ltpFR	5	3	1	BEAVER	109	n/a	1	n/a	n/a	n/a	n/a	n/a
3167705	RECOG_CONF	n/a	LTP190	ltpFR	5	3	1	BEAVER	109	5	1	n/a	n/a	n/a	n/a	n/a
3169287	RECOG_TARGET	n/a	LTP190	ltpFR	5	3	1	VOLLEYBALL	1576	5	n/a	n/a	n/a	n/a	n/a	n/a
3169798	RECOG_RESP	n/a	LTP190	ltpFR	5	3	1	VOLLEYBALL	1576	n/a	n/a	n/a	n/a	n/a	n/a	n/a
3170479	RECOG_CONF	n/a	LTP190	ltpFR	5	3	1	VOLLEYBALL	1576	5	n/a	n/a	n/a	n/a	n/a	n/a
3173728	REC_START	n/a	LTP190	ltpFR	5	4	n/a	n/a	n/a	n/a	n/a	n/a	n/a	n/a	n/a	n/a
3173787	RECOG_TARGET	n/a	LTP190	ltpFR	5	4	1	HANDKERCHIEF	686	5	0	n/a	n/a	n/a	n/a	n/a
3174508	RECOG_RESP	n/a	LTP190	ltpFR	5	4	1	HANDKERCHIEF	686	n/a	0	n/a	n/a	n/a	n/a	n/a
3175090	RECOG_CONF	n/a	LTP190	ltpFR	5	4	1	HANDKERCHIEF	686	5	0	n/a	n/a	n/a	n/a	n/a
3176715	RECOG_LURE	n/a	LTP190	ltpFR	5	4	n/a	FLESH	579	1	n/a	n/a	n/a	n/a	n/a	n/a
3177531	RECOG_RESP	n/a	LTP190	ltpFR	5	4	n/a	FLESH	579	n/a	n/a	n/a	n/a	n/a	n/a	n/a
3178059	RECOG_CONF	n/a	LTP190	ltpFR	5	4	n/a	FLESH	579	1	n/a	n/a	n/a	n/a	n/a	n/a
3179776	RECOG_TARGET	n/a	LTP190	ltpFR	5	4	1	ESCALATOR	539	5	0	n/a	n/a	n/a	n/a	n/a
3180418	RECOG_RESP	n/a	LTP190	ltpFR	5	4	1	ESCALATOR	539	n/a	0	n/a	n/a	n/a	n/a	n/a
3180916	RECOG_CONF	n/a	LTP190	ltpFR	5	4	1	ESCALATOR	539	5	0	n/a	n/a	n/a	n/a	n/a
3182520	RECOG_LURE	n/a	LTP190	ltpFR	5	4	n/a	MANSION	864	2	n/a	n/a	n/a	n/a	n/a	n/a
3183254	RECOG_RESP	n/a	LTP190	ltpFR	5	4	n/a	MANSION	864	n/a	n/a	n/a	n/a	n/a	n/a	n/a
3183760	RECOG_CONF	n/a	LTP190	ltpFR	5	4	n/a	MANSION	864	2	n/a	n/a	n/a	n/a	n/a	n/a
3185297	RECOG_LURE	n/a	LTP190	ltpFR	5	4	n/a	ROOM	1206	1	n/a	n/a	n/a	n/a	n/a	n/a
3185965	RECOG_RESP	n/a	LTP190	ltpFR	5	4	n/a	ROOM	1206	n/a	n/a	n/a	n/a	n/a	n/a	n/a
3186495	RECOG_CONF	n/a	LTP190	ltpFR	5	4	n/a	ROOM	1206	1	n/a	n/a	n/a	n/a	n/a	n/a
3188063	RECOG_TARGET	n/a	LTP190	ltpFR	5	4	1	HEN	703	2	n/a	n/a	n/a	n/a	n/a	n/a
3189008	RECOG_RESP	n/a	LTP190	ltpFR	5	4	1	HEN	703	n/a	n/a	n/a	n/a	n/a	n/a	n/a
3189640	RECOG_CONF	n/a	LTP190	ltpFR	5	4	1	HEN	703	2	n/a	n/a	n/a	n/a	n/a	n/a
3191353	RECOG_TARGET	n/a	LTP190	ltpFR	5	4	1	DIVER	476	5	1	n/a	n/a	n/a	n/a	n/a
3191938	RECOG_RESP	n/a	LTP190	ltpFR	5	4	1	DIVER	476	n/a	1	n/a	n/a	n/a	n/a	n/a
3192440	RECOG_CONF	n/a	LTP190	ltpFR	5	4	1	DIVER	476	5	1	n/a	n/a	n/a	n/a	n/a
3193963	RECOG_TARGET	n/a	LTP190	ltpFR	5	4	-1	SCALPEL	1243	5	-1	n/a	n/a	n/a	n/a	n/a
3194594	RECOG_RESP	n/a	LTP190	ltpFR	5	4	-1	SCALPEL	1243	n/a	-1	n/a	n/a	n/a	n/a	n/a
3195114	RECOG_CONF	n/a	LTP190	ltpFR	5	4	-1	SCALPEL	1243	5	-1	n/a	n/a	n/a	n/a	n/a
3196606	RECOG_TARGET	n/a	LTP190	ltpFR	5	4	1	GENERAL	630	5	1	n/a	n/a	n/a	n/a	n/a
3197144	RECOG_RESP	n/a	LTP190	ltpFR	5	4	1	GENERAL	630	n/a	1	n/a	n/a	n/a	n/a	n/a
3197698	RECOG_CONF	n/a	LTP190	ltpFR	5	4	1	GENERAL	630	5	1	n/a	n/a	n/a	n/a	n/a
3199166	RECOG_TARGET	n/a	LTP190	ltpFR	5	4	-1	CATHEDRAL	260	5	-1	n/a	n/a	n/a	n/a	n/a
3199820	RECOG_RESP	n/a	LTP190	ltpFR	5	4	-1	CATHEDRAL	260	n/a	-1	n/a	n/a	n/a	n/a	n/a
3200382	RECOG_CONF	n/a	LTP190	ltpFR	5	4	-1	CATHEDRAL	260	5	-1	n/a	n/a	n/a	n/a	n/a
3201909	RECOG_TARGET	n/a	LTP190	ltpFR	5	4	1	COOK	372	1	1	n/a	n/a	n/a	n/a	n/a
3202604	RECOG_RESP	n/a	LTP190	ltpFR	5	4	1	COOK	372	n/a	1	n/a	n/a	n/a	n/a	n/a
3203109	RECOG_CONF	n/a	LTP190	ltpFR	5	4	1	COOK	372	1	1	n/a	n/a	n/a	n/a	n/a
3204687	RECOG_TARGET	n/a	LTP190	ltpFR	5	4	1	SHRIMP	1297	5	1	n/a	n/a	n/a	n/a	n/a
3205291	RECOG_RESP	n/a	LTP190	ltpFR	5	4	1	SHRIMP	1297	n/a	1	n/a	n/a	n/a	n/a	n/a
3205830	RECOG_CONF	n/a	LTP190	ltpFR	5	4	1	SHRIMP	1297	5	1	n/a	n/a	n/a	n/a	n/a
3207180	RECOG_TARGET	n/a	LTP190	ltpFR	5	4	-1	PELICAN	1039	5	-1	n/a	n/a	n/a	n/a	n/a
3207912	RECOG_RESP	n/a	LTP190	ltpFR	5	4	-1	PELICAN	1039	n/a	-1	n/a	n/a	n/a	n/a	n/a
3208444	RECOG_CONF	n/a	LTP190	ltpFR	5	4	-1	PELICAN	1039	5	-1	n/a	n/a	n/a	n/a	n/a
3209989	RECOG_TARGET	n/a	LTP190	ltpFR	5	4	-1	SHELTER	1282	1	-1	n/a	n/a	n/a	n/a	n/a
3210814	RECOG_RESP	n/a	LTP190	ltpFR	5	4	-1	SHELTER	1282	n/a	-1	n/a	n/a	n/a	n/a	n/a
3211319	RECOG_CONF	n/a	LTP190	ltpFR	5	4	-1	SHELTER	1282	1	-1	n/a	n/a	n/a	n/a	n/a
3213002	RECOG_TARGET	n/a	LTP190	ltpFR	5	4	-1	PAPER	1011	2	-1	n/a	n/a	n/a	n/a	n/a
3214861	RECOG_RESP	n/a	LTP190	ltpFR	5	4	-1	PAPER	1011	n/a	-1	n/a	n/a	n/a	n/a	n/a
3215398	RECOG_CONF	n/a	LTP190	ltpFR	5	4	-1	PAPER	1011	2	-1	n/a	n/a	n/a	n/a	n/a
3216899	RECOG_TARGET	n/a	LTP190	ltpFR	5	4	1	CAMERA	224	5	1	n/a	n/a	n/a	n/a	n/a
3217621	RECOG_RESP	n/a	LTP190	ltpFR	5	4	1	CAMERA	224	n/a	1	n/a	n/a	n/a	n/a	n/a
3218042	RECOG_CONF	n/a	LTP190	ltpFR	5	4	1	CAMERA	224	5	1	n/a	n/a	n/a	n/a	n/a
3219543	RECOG_TARGET	n/a	LTP190	ltpFR	5	4	1	TEACHER	1440	5	1	n/a	n/a	n/a	n/a	n/a
3220141	RECOG_RESP	n/a	LTP190	ltpFR	5	4	1	TEACHER	1440	n/a	1	n/a	n/a	n/a	n/a	n/a
3220586	RECOG_CONF	n/a	LTP190	ltpFR	5	4	1	TEACHER	1440	5	1	n/a	n/a	n/a	n/a	n/a
3221904	RECOG_LURE	n/a	LTP190	ltpFR	5	4	n/a	UMBRELLA	1534	2	n/a	n/a	n/a	n/a	n/a	n/a
3222668	RECOG_RESP	n/a	LTP190	ltpFR	5	4	n/a	UMBRELLA	1534	n/a	n/a	n/a	n/a	n/a	n/a	n/a
3223174	RECOG_CONF	n/a	LTP190	ltpFR	5	4	n/a	UMBRELLA	1534	2	n/a	n/a	n/a	n/a	n/a	n/a
3224578	RECOG_TARGET	n/a	LTP190	ltpFR	5	4	1	LUNCH	849	5	0	n/a	n/a	n/a	n/a	n/a
3225206	RECOG_RESP	n/a	LTP190	ltpFR	5	4	1	LUNCH	849	n/a	0	n/a	n/a	n/a	n/a	n/a
3225605	RECOG_CONF	n/a	LTP190	ltpFR	5	4	1	LUNCH	849	5	0	n/a	n/a	n/a	n/a	n/a
3227074	RECOG_TARGET	n/a	LTP190	ltpFR	5	4	0	EMERALD	528	5	2	n/a	n/a	n/a	n/a	n/a
3231558	RECOG_RESP	n/a	LTP190	ltpFR	5	4	0	EMERALD	528	n/a	2	n/a	n/a	n/a	n/a	n/a
3232150	RECOG_CONF	n/a	LTP190	ltpFR	5	4	0	EMERALD	528	5	2	n/a	n/a	n/a	n/a	n/a
3235491	REC_START	n/a	LTP190	ltpFR	5	5	n/a	n/a	n/a	n/a	n/a	n/a	n/a	n/a	n/a	n/a
3235539	RECOG_TARGET	n/a	LTP190	ltpFR	5	5	0	ENGINEER	536	1	1	n/a	n/a	n/a	n/a	n/a
3236510	RECOG_RESP	n/a	LTP190	ltpFR	5	5	0	ENGINEER	536	n/a	1	n/a	n/a	n/a	n/a	n/a
3236903	RECOG_CONF	n/a	LTP190	ltpFR	5	5	0	ENGINEER	536	1	1	n/a	n/a	n/a	n/a	n/a
3238498	RECOG_LURE	n/a	LTP190	ltpFR	5	5	n/a	SNAKE	1333	1	n/a	n/a	n/a	n/a	n/a	n/a
3239397	RECOG_RESP	n/a	LTP190	ltpFR	5	5	n/a	SNAKE	1333	n/a	n/a	n/a	n/a	n/a	n/a	n/a
3239956	RECOG_CONF	n/a	LTP190	ltpFR	5	5	n/a	SNAKE	1333	1	n/a	n/a	n/a	n/a	n/a	n/a
3241576	RECOG_TARGET	n/a	LTP190	ltpFR	5	5	-1	MESSAGE	888	3	-1	n/a	n/a	n/a	n/a	n/a
3242561	RECOG_RESP	n/a	LTP190	ltpFR	5	5	-1	MESSAGE	888	n/a	-1	n/a	n/a	n/a	n/a	n/a
3243066	RECOG_CONF	n/a	LTP190	ltpFR	5	5	-1	MESSAGE	888	3	-1	n/a	n/a	n/a	n/a	n/a
3244637	RECOG_TARGET	n/a	LTP190	ltpFR	5	5	-1	PARCEL	1012	5	-1	n/a	n/a	n/a	n/a	n/a
3245333	RECOG_RESP	n/a	LTP190	ltpFR	5	5	-1	PARCEL	1012	n/a	-1	n/a	n/a	n/a	n/a	n/a
3245782	RECOG_CONF	n/a	LTP190	ltpFR	5	5	-1	PARCEL	1012	5	-1	n/a	n/a	n/a	n/a	n/a
3247348	RECOG_TARGET	n/a	LTP190	ltpFR	5	5	0	MAP	865	5	0	n/a	n/a	n/a	n/a	n/a
3247975	RECOG_RESP	n/a	LTP190	ltpFR	5	5	0	MAP	865	n/a	0	n/a	n/a	n/a	n/a	n/a
3248396	RECOG_CONF	n/a	LTP190	ltpFR	5	5	0	MAP	865	5	0	n/a	n/a	n/a	n/a	n/a
3250041	RECOG_TARGET	n/a	LTP190	ltpFR	5	5	0	CANARY	227	5	1	n/a	n/a	n/a	n/a	n/a
3250657	RECOG_RESP	n/a	LTP190	ltpFR	5	5	0	CANARY	227	n/a	1	n/a	n/a	n/a	n/a	n/a
3251090	RECOG_CONF	n/a	LTP190	ltpFR	5	5	0	CANARY	227	5	1	n/a	n/a	n/a	n/a	n/a
3252651	RECOG_LURE	n/a	LTP190	ltpFR	5	5	n/a	RUNNER	1218	1	n/a	n/a	n/a	n/a	n/a	n/a
3254089	RECOG_RESP	n/a	LTP190	ltpFR	5	5	n/a	RUNNER	1218	n/a	n/a	n/a	n/a	n/a	n/a	n/a
3254602	RECOG_CONF	n/a	LTP190	ltpFR	5	5	n/a	RUNNER	1218	1	n/a	n/a	n/a	n/a	n/a	n/a
3256332	RECOG_TARGET	n/a	LTP190	ltpFR	5	5	0	AUDIENCE	59	2	1	n/a	n/a	n/a	n/a	n/a
3257284	RECOG_RESP	n/a	LTP190	ltpFR	5	5	0	AUDIENCE	59	n/a	1	n/a	n/a	n/a	n/a	n/a
3257793	RECOG_CONF	n/a	LTP190	ltpFR	5	5	0	AUDIENCE	59	2	1	n/a	n/a	n/a	n/a	n/a
3259427	RECOG_TARGET	n/a	LTP190	ltpFR	5	5	0	PEARL	1034	5	0	n/a	n/a	n/a	n/a	n/a
3260082	RECOG_RESP	n/a	LTP190	ltpFR	5	5	0	PEARL	1034	n/a	0	n/a	n/a	n/a	n/a	n/a
3260489	RECOG_CONF	n/a	LTP190	ltpFR	5	5	0	PEARL	1034	5	0	n/a	n/a	n/a	n/a	n/a
3262087	RECOG_TARGET	n/a	LTP190	ltpFR	5	5	0	PUMPKIN	1142	3	n/a	n/a	n/a	n/a	n/a	n/a
3262869	RECOG_RESP	n/a	LTP190	ltpFR	5	5	0	PUMPKIN	1142	n/a	n/a	n/a	n/a	n/a	n/a	n/a
3263462	RECOG_CONF	n/a	LTP190	ltpFR	5	5	0	PUMPKIN	1142	3	n/a	n/a	n/a	n/a	n/a	n/a
3264998	RECOG_TARGET	n/a	LTP190	ltpFR	5	5	1	ALLIGATOR	16	5	1	n/a	n/a	n/a	n/a	n/a
3265664	RECOG_RESP	n/a	LTP190	ltpFR	5	5	1	ALLIGATOR	16	n/a	1	n/a	n/a	n/a	n/a	n/a
3266156	RECOG_CONF	n/a	LTP190	ltpFR	5	5	1	ALLIGATOR	16	5	1	n/a	n/a	n/a	n/a	n/a
3267674	RECOG_LURE	n/a	LTP190	ltpFR	5	5	n/a	BOSS	152	1	n/a	n/a	n/a	n/a	n/a	n/a
3268330	RECOG_RESP	n/a	LTP190	ltpFR	5	5	n/a	BOSS	152	n/a	n/a	n/a	n/a	n/a	n/a	n/a
3268885	RECOG_CONF	n/a	LTP190	ltpFR	5	5	n/a	BOSS	152	1	n/a	n/a	n/a	n/a	n/a	n/a
3270385	RECOG_LURE	n/a	LTP190	ltpFR	5	5	n/a	RUBY	1214	2	n/a	n/a	n/a	n/a	n/a	n/a
3271771	RECOG_RESP	n/a	LTP190	ltpFR	5	5	n/a	RUBY	1214	n/a	n/a	n/a	n/a	n/a	n/a	n/a
3272703	RECOG_CONF	n/a	LTP190	ltpFR	5	5	n/a	RUBY	1214	2	n/a	n/a	n/a	n/a	n/a	n/a
3274384	RECOG_TARGET	n/a	LTP190	ltpFR	5	5	1	BEAD	103	5	0	n/a	n/a	n/a	n/a	n/a
3275092	RECOG_RESP	n/a	LTP190	ltpFR	5	5	1	BEAD	103	n/a	0	n/a	n/a	n/a	n/a	n/a
3275625	RECOG_CONF	n/a	LTP190	ltpFR	5	5	1	BEAD	103	5	0	n/a	n/a	n/a	n/a	n/a
3277210	RECOG_TARGET	n/a	LTP190	ltpFR	5	5	0	HEART	697	5	1	n/a	n/a	n/a	n/a	n/a
3277919	RECOG_RESP	n/a	LTP190	ltpFR	5	5	0	HEART	697	n/a	1	n/a	n/a	n/a	n/a	n/a
3278588	RECOG_CONF	n/a	LTP190	ltpFR	5	5	0	HEART	697	5	1	n/a	n/a	n/a	n/a	n/a
3280071	RECOG_TARGET	n/a	LTP190	ltpFR	5	5	0	TART	1436	5	1	n/a	n/a	n/a	n/a	n/a
3280979	RECOG_RESP	n/a	LTP190	ltpFR	5	5	0	TART	1436	n/a	1	n/a	n/a	n/a	n/a	n/a
3281542	RECOG_CONF	n/a	LTP190	ltpFR	5	5	0	TART	1436	5	1	n/a	n/a	n/a	n/a	n/a
3283116	RECOG_TARGET	n/a	LTP190	ltpFR	5	5	1	TOOTHPASTE	1483	1	1	n/a	n/a	n/a	n/a	n/a
3284098	RECOG_RESP	n/a	LTP190	ltpFR	5	5	1	TOOTHPASTE	1483	n/a	1	n/a	n/a	n/a	n/a	n/a
3284888	RECOG_CONF	n/a	LTP190	ltpFR	5	5	1	TOOTHPASTE	1483	1	1	n/a	n/a	n/a	n/a	n/a
3286428	RECOG_TARGET	n/a	LTP190	ltpFR	5	5	0	DRUM	502	5	1	n/a	n/a	n/a	n/a	n/a
3287059	RECOG_RESP	n/a	LTP190	ltpFR	5	5	0	DRUM	502	n/a	1	n/a	n/a	n/a	n/a	n/a
3287707	RECOG_CONF	n/a	LTP190	ltpFR	5	5	0	DRUM	502	5	1	n/a	n/a	n/a	n/a	n/a
3289356	RECOG_TARGET	n/a	LTP190	ltpFR	5	5	0	FLUTE	585	5	1	n/a	n/a	n/a	n/a	n/a
3290077	RECOG_RESP	n/a	LTP190	ltpFR	5	5	0	FLUTE	585	n/a	1	n/a	n/a	n/a	n/a	n/a
3290650	RECOG_CONF	n/a	LTP190	ltpFR	5	5	0	FLUTE	585	5	1	n/a	n/a	n/a	n/a	n/a
3292267	RECOG_TARGET	n/a	LTP190	ltpFR	5	5	0	STREAM	1392	5	1	n/a	n/a	n/a	n/a	n/a
3292902	RECOG_RESP	n/a	LTP190	ltpFR	5	5	0	STREAM	1392	n/a	1	n/a	n/a	n/a	n/a	n/a
3293494	RECOG_CONF	n/a	LTP190	ltpFR	5	5	0	STREAM	1392	5	1	n/a	n/a	n/a	n/a	n/a
3296761	REC_START	n/a	LTP190	ltpFR	5	6	n/a	n/a	n/a	n/a	n/a	n/a	n/a	n/a	n/a	n/a
3296817	RECOG_TARGET	n/a	LTP190	ltpFR	5	6	-1	ARTICLE	42	2	-1	n/a	n/a	n/a	n/a	n/a
3297960	RECOG_RESP	n/a	LTP190	ltpFR	5	6	-1	ARTICLE	42	n/a	-1	n/a	n/a	n/a	n/a	n/a
3298586	RECOG_CONF	n/a	LTP190	ltpFR	5	6	-1	ARTICLE	42	2	-1	n/a	n/a	n/a	n/a	n/a
3300331	RECOG_TARGET	n/a	LTP190	ltpFR	5	6	1	FREEZER	604	5	0	n/a	n/a	n/a	n/a	n/a
3301032	RECOG_RESP	n/a	LTP190	ltpFR	5	6	1	FREEZER	604	n/a	0	n/a	n/a	n/a	n/a	n/a
3301635	RECOG_CONF	n/a	LTP190	ltpFR	5	6	1	FREEZER	604	5	0	n/a	n/a	n/a	n/a	n/a
3303208	RECOG_TARGET	n/a	LTP190	ltpFR	5	6	-1	HORSE	719	2	-1	n/a	n/a	n/a	n/a	n/a
3303985	RECOG_RESP	n/a	LTP190	ltpFR	5	6	-1	HORSE	719	n/a	-1	n/a	n/a	n/a	n/a	n/a
3304575	RECOG_CONF	n/a	LTP190	ltpFR	5	6	-1	HORSE	719	2	-1	n/a	n/a	n/a	n/a	n/a
3306320	RECOG_LURE	n/a	LTP190	ltpFR	5	6	n/a	STAR	1373	3	n/a	n/a	n/a	n/a	n/a	n/a
3307325	RECOG_RESP	n/a	LTP190	ltpFR	5	6	n/a	STAR	1373	n/a	n/a	n/a	n/a	n/a	n/a	n/a
3308020	RECOG_CONF	n/a	LTP190	ltpFR	5	6	n/a	STAR	1373	3	n/a	n/a	n/a	n/a	n/a	n/a
3309616	RECOG_TARGET	n/a	LTP190	ltpFR	5	6	-1	CUSTOMER	430	4	-1	n/a	n/a	n/a	n/a	n/a
3310569	RECOG_RESP	n/a	LTP190	ltpFR	5	6	-1	CUSTOMER	430	n/a	-1	n/a	n/a	n/a	n/a	n/a
3311253	RECOG_CONF	n/a	LTP190	ltpFR	5	6	-1	CUSTOMER	430	4	-1	n/a	n/a	n/a	n/a	n/a
3312744	RECOG_TARGET	n/a	LTP190	ltpFR	5	6	-1	TIMBER	1469	5	-1	n/a	n/a	n/a	n/a	n/a
3313591	RECOG_RESP	n/a	LTP190	ltpFR	5	6	-1	TIMBER	1469	n/a	-1	n/a	n/a	n/a	n/a	n/a
3314196	RECOG_CONF	n/a	LTP190	ltpFR	5	6	-1	TIMBER	1469	5	-1	n/a	n/a	n/a	n/a	n/a
3315725	RECOG_TARGET	n/a	LTP190	ltpFR	5	6	0	COFFEE	341	5	1	n/a	n/a	n/a	n/a	n/a
3316361	RECOG_RESP	n/a	LTP190	ltpFR	5	6	0	COFFEE	341	n/a	1	n/a	n/a	n/a	n/a	n/a
3316850	RECOG_CONF	n/a	LTP190	ltpFR	5	6	0	COFFEE	341	5	1	n/a	n/a	n/a	n/a	n/a
3318482	RECOG_LURE	n/a	LTP190	ltpFR	5	6	n/a	SHINGLE	1285	2	n/a	n/a	n/a	n/a	n/a	n/a
3319262	RECOG_RESP	n/a	LTP190	ltpFR	5	6	n/a	SHINGLE	1285	n/a	n/a	n/a	n/a	n/a	n/a	n/a
3319746	RECOG_CONF	n/a	LTP190	ltpFR	5	6	n/a	SHINGLE	1285	2	n/a	n/a	n/a	n/a	n/a	n/a
3321344	RECOG_LURE	n/a	LTP190	ltpFR	5	6	n/a	BULLET	194	5	n/a	n/a	n/a	n/a	n/a	n/a
3322244	RECOG_RESP	n/a	LTP190	ltpFR	5	6	n/a	BULLET	194	n/a	n/a	n/a	n/a	n/a	n/a	n/a
3322847	RECOG_CONF	n/a	LTP190	ltpFR	5	6	n/a	BULLET	194	5	n/a	n/a	n/a	n/a	n/a	n/a
3324472	RECOG_LURE	n/a	LTP190	ltpFR	5	6	n/a	BELLY	119	5	n/a	n/a	n/a	n/a	n/a	n/a
3325300	RECOG_RESP	n/a	LTP190	ltpFR	5	6	n/a	BELLY	119	n/a	n/a	n/a	n/a	n/a	n/a	n/a
3325890	RECOG_CONF	n/a	LTP190	ltpFR	5	6	n/a	BELLY	119	5	n/a	n/a	n/a	n/a	n/a	n/a
3327583	RECOG_TARGET	n/a	LTP190	ltpFR	5	6	-1	LOBSTER	837	1	-1	n/a	n/a	n/a	n/a	n/a
3328379	RECOG_RESP	n/a	LTP190	ltpFR	5	6	-1	LOBSTER	837	n/a	-1	n/a	n/a	n/a	n/a	n/a
3328931	RECOG_CONF	n/a	LTP190	ltpFR	5	6	-1	LOBSTER	837	1	-1	n/a	n/a	n/a	n/a	n/a
3330578	RECOG_TARGET	n/a	LTP190	ltpFR	5	6	0	SOCKET	1340	5	1	n/a	n/a	n/a	n/a	n/a
3331596	RECOG_RESP	n/a	LTP190	ltpFR	5	6	0	SOCKET	1340	n/a	1	n/a	n/a	n/a	n/a	n/a
3332096	RECOG_CONF	n/a	LTP190	ltpFR	5	6	0	SOCKET	1340	5	1	n/a	n/a	n/a	n/a	n/a
3333556	RECOG_LURE	n/a	LTP190	ltpFR	5	6	n/a	ROOSTER	1209	2	n/a	n/a	n/a	n/a	n/a	n/a
3334368	RECOG_RESP_VV	n/a	LTP190	ltpFR	5	6	n/a	ROOSTER	1209	n/a	n/a	n/a	n/a	n/a	n/a	n/a
3336371	RECOG_RESP	n/a	LTP190	ltpFR	5	6	n/a	ROOSTER	1209	n/a	n/a	n/a	n/a	n/a	n/a	n/a
3337117	RECOG_CONF	n/a	LTP190	ltpFR	5	6	n/a	ROOSTER	1209	2	n/a	n/a	n/a	n/a	n/a	n/a
3338792	RECOG_TARGET	n/a	LTP190	ltpFR	5	6	0	BANKER	84	5	1	n/a	n/a	n/a	n/a	n/a
3339552	RECOG_RESP	n/a	LTP190	ltpFR	5	6	0	BANKER	84	n/a	1	n/a	n/a	n/a	n/a	n/a
3340037	RECOG_CONF	n/a	LTP190	ltpFR	5	6	0	BANKER	84	5	1	n/a	n/a	n/a	n/a	n/a
3341603	RECOG_LURE	n/a	LTP190	ltpFR	5	6	n/a	DRIVEWAY	500	5	n/a	n/a	n/a	n/a	n/a	n/a
3342423	RECOG_RESP	n/a	LTP190	ltpFR	5	6	n/a	DRIVEWAY	500	n/a	n/a	n/a	n/a	n/a	n/a	n/a
3342991	RECOG_CONF	n/a	LTP190	ltpFR	5	6	n/a	DRIVEWAY	500	5	n/a	n/a	n/a	n/a	n/a	n/a
3344599	RECOG_TARGET	n/a	LTP190	ltpFR	5	6	1	SATURN	1236	5	0	n/a	n/a	n/a	n/a	n/a
3345303	RECOG_RESP	n/a	LTP190	ltpFR	5	6	1	SATURN	1236	n/a	0	n/a	n/a	n/a	n/a	n/a
3345864	RECOG_CONF	n/a	LTP190	ltpFR	5	6	1	SATURN	1236	5	0	n/a	n/a	n/a	n/a	n/a
3347445	RECOG_TARGET	n/a	LTP190	ltpFR	5	6	0	RELISH	1183	5	n/a	n/a	n/a	n/a	n/a	n/a
3348139	RECOG_RESP	n/a	LTP190	ltpFR	5	6	0	RELISH	1183	n/a	n/a	n/a	n/a	n/a	n/a	n/a
3348688	RECOG_CONF	n/a	LTP190	ltpFR	5	6	0	RELISH	1183	5	n/a	n/a	n/a	n/a	n/a	n/a
3350235	RECOG_TARGET	n/a	LTP190	ltpFR	5	6	0	HAWK	692	5	1	n/a	n/a	n/a	n/a	n/a
3350813	RECOG_RESP	n/a	LTP190	ltpFR	5	6	0	HAWK	692	n/a	1	n/a	n/a	n/a	n/a	n/a
3351362	RECOG_CONF	n/a	LTP190	ltpFR	5	6	0	HAWK	692	5	1	n/a	n/a	n/a	n/a	n/a
3352879	RECOG_TARGET	n/a	LTP190	ltpFR	5	6	1	CLASS	318	5	0	n/a	n/a	n/a	n/a	n/a
3353622	RECOG_RESP	n/a	LTP190	ltpFR	5	6	1	CLASS	318	n/a	0	n/a	n/a	n/a	n/a	n/a
3354135	RECOG_CONF	n/a	LTP190	ltpFR	5	6	1	CLASS	318	5	0	n/a	n/a	n/a	n/a	n/a
3355622	RECOG_TARGET	n/a	LTP190	ltpFR	5	6	1	CORN	381	1	0	n/a	n/a	n/a	n/a	n/a
3356452	RECOG_RESP	n/a	LTP190	ltpFR	5	6	1	CORN	381	n/a	0	n/a	n/a	n/a	n/a	n/a
3356989	RECOG_CONF	n/a	LTP190	ltpFR	5	6	1	CORN	381	1	0	n/a	n/a	n/a	n/a	n/a
3360075	REC_START	n/a	LTP190	ltpFR	5	7	n/a	n/a	n/a	n/a	n/a	n/a	n/a	n/a	n/a	n/a
3360123	RECOG_TARGET	n/a	LTP190	ltpFR	5	7	0	BRIDGE	174	5	1	n/a	n/a	n/a	n/a	n/a
3360791	RECOG_RESP	n/a	LTP190	ltpFR	5	7	0	BRIDGE	174	n/a	1	n/a	n/a	n/a	n/a	n/a
3361317	RECOG_CONF	n/a	LTP190	ltpFR	5	7	0	BRIDGE	174	5	1	n/a	n/a	n/a	n/a	n/a
3362932	RECOG_TARGET	n/a	LTP190	ltpFR	5	7	1	BRACELET	163	5	0	n/a	n/a	n/a	n/a	n/a
3363568	RECOG_RESP	n/a	LTP190	ltpFR	5	7	1	BRACELET	163	n/a	0	n/a	n/a	n/a	n/a	n/a
3364091	RECOG_CONF	n/a	LTP190	ltpFR	5	7	1	BRACELET	163	5	0	n/a	n/a	n/a	n/a	n/a
3365660	RECOG_TARGET	n/a	LTP190	ltpFR	5	7	-1	GALAXY	617	5	-1	n/a	n/a	n/a	n/a	n/a
3366303	RECOG_RESP	n/a	LTP190	ltpFR	5	7	-1	GALAXY	617	n/a	-1	n/a	n/a	n/a	n/a	n/a
3366934	RECOG_CONF	n/a	LTP190	ltpFR	5	7	-1	GALAXY	617	5	-1	n/a	n/a	n/a	n/a	n/a
3368421	RECOG_TARGET	n/a	LTP190	ltpFR	5	7	-1	FELLOW	558	2	-1	n/a	n/a	n/a	n/a	n/a
3369235	RECOG_RESP	n/a	LTP190	ltpFR	5	7	-1	FELLOW	558	n/a	-1	n/a	n/a	n/a	n/a	n/a
3369892	RECOG_CONF	n/a	LTP190	ltpFR	5	7	-1	FELLOW	558	2	-1	n/a	n/a	n/a	n/a	n/a
3371566	RECOG_TARGET	n/a	LTP190	ltpFR	5	7	1	FISH	571	2	1	n/a	n/a	n/a	n/a	n/a
3373540	RECOG_RESP	n/a	LTP190	ltpFR	5	7	1	FISH	571	n/a	1	n/a	n/a	n/a	n/a	n/a
3374179	RECOG_CONF	n/a	LTP190	ltpFR	5	7	1	FISH	571	2	1	n/a	n/a	n/a	n/a	n/a
3375981	RECOG_TARGET	n/a	LTP190	ltpFR	5	7	0	POCKET	1093	5	0	n/a	n/a	n/a	n/a	n/a
3376640	RECOG_RESP	n/a	LTP190	ltpFR	5	7	0	POCKET	1093	n/a	0	n/a	n/a	n/a	n/a	n/a
3377191	RECOG_CONF	n/a	LTP190	ltpFR	5	7	0	POCKET	1093	5	0	n/a	n/a	n/a	n/a	n/a
3378642	RECOG_TARGET	n/a	LTP190	ltpFR	5	7	0	WASHER	1592	5	1	n/a	n/a	n/a	n/a	n/a
3379289	RECOG_RESP	n/a	LTP190	ltpFR	5	7	0	WASHER	1592	n/a	1	n/a	n/a	n/a	n/a	n/a
3379915	RECOG_CONF	n/a	LTP190	ltpFR	5	7	0	WASHER	1592	5	1	n/a	n/a	n/a	n/a	n/a
3381521	RECOG_LURE	n/a	LTP190	ltpFR	5	7	n/a	COAT	333	2	n/a	n/a	n/a	n/a	n/a	n/a
3382238	RECOG_RESP	n/a	LTP190	ltpFR	5	7	n/a	COAT	333	n/a	n/a	n/a	n/a	n/a	n/a	n/a
3382793	RECOG_CONF	n/a	LTP190	ltpFR	5	7	n/a	COAT	333	2	n/a	n/a	n/a	n/a	n/a	n/a
3384247	RECOG_LURE	n/a	LTP190	ltpFR	5	7	n/a	BASKETBALL	96	1	n/a	n/a	n/a	n/a	n/a	n/a
3385533	RECOG_RESP	n/a	LTP190	ltpFR	5	7	n/a	BASKETBALL	96	n/a	n/a	n/a	n/a	n/a	n/a	n/a
3386155	RECOG_CONF	n/a	LTP190	ltpFR	5	7	n/a	BASKETBALL	96	1	n/a	n/a	n/a	n/a	n/a	n/a
3387810	RECOG_TARGET	n/a	LTP190	ltpFR	5	7	0	ROOST	1208	1	n/a	n/a	n/a	n/a	n/a	n/a
3388698	RECOG_RESP	n/a	LTP190	ltpFR	5	7	0	ROOST	1208	n/a	n/a	n/a	n/a	n/a	n/a	n/a
3391518	RECOG_CONF	n/a	LTP190	ltpFR	5	7	0	ROOST	1208	1	n/a	n/a	n/a	n/a	n/a	n/a
3393231	RECOG_TARGET	n/a	LTP190	ltpFR	5	7	0	CHALK	276	5	0	n/a	n/a	n/a	n/a	n/a
3393996	RECOG_RESP	n/a	LTP190	ltpFR	5	7	0	CHALK	276	n/a	0	n/a	n/a	n/a	n/a	n/a
3394532	RECOG_CONF	n/a	LTP190	ltpFR	5	7	0	CHALK	276	5	0	n/a	n/a	n/a	n/a	n/a
3396058	RECOG_TARGET	n/a	LTP190	ltpFR	5	7	1	TABLET	1427	2	0	n/a	n/a	n/a	n/a	n/a
3396814	RECOG_RESP	n/a	LTP190	ltpFR	5	7	1	TABLET	1427	n/a	0	n/a	n/a	n/a	n/a	n/a
3397350	RECOG_CONF	n/a	LTP190	ltpFR	5	7	1	TABLET	1427	2	0	n/a	n/a	n/a	n/a	n/a
3398901	RECOG_TARGET	n/a	LTP190	ltpFR	5	7	1	TULIP	1517	5	1	n/a	n/a	n/a	n/a	n/a
3399551	RECOG_RESP	n/a	LTP190	ltpFR	5	7	1	TULIP	1517	n/a	1	n/a	n/a	n/a	n/a	n/a
3400129	RECOG_CONF	n/a	LTP190	ltpFR	5	7	1	TULIP	1517	5	1	n/a	n/a	n/a	n/a	n/a
3401629	RECOG_LURE	n/a	LTP190	ltpFR	5	7	n/a	DOCTOR	478	1	n/a	n/a	n/a	n/a	n/a	n/a
3402727	RECOG_RESP	n/a	LTP190	ltpFR	5	7	n/a	DOCTOR	478	n/a	n/a	n/a	n/a	n/a	n/a	n/a
3403451	RECOG_CONF	n/a	LTP190	ltpFR	5	7	n/a	DOCTOR	478	1	n/a	n/a	n/a	n/a	n/a	n/a
3405009	RECOG_TARGET	n/a	LTP190	ltpFR	5	7	1	WALLET	1583	5	0	n/a	n/a	n/a	n/a	n/a
3405667	RECOG_RESP	n/a	LTP190	ltpFR	5	7	1	WALLET	1583	n/a	0	n/a	n/a	n/a	n/a	n/a
3406255	RECOG_CONF	n/a	LTP190	ltpFR	5	7	1	WALLET	1583	5	0	n/a	n/a	n/a	n/a	n/a
3407853	RECOG_TARGET	n/a	LTP190	ltpFR	5	7	0	AIRCRAFT	11	5	1	n/a	n/a	n/a	n/a	n/a
3408601	RECOG_RESP	n/a	LTP190	ltpFR	5	7	0	AIRCRAFT	11	n/a	1	n/a	n/a	n/a	n/a	n/a
3409218	RECOG_CONF	n/a	LTP190	ltpFR	5	7	0	AIRCRAFT	11	5	1	n/a	n/a	n/a	n/a	n/a
3410836	RECOG_TARGET	n/a	LTP190	ltpFR	5	7	1	FOX	598	5	n/a	n/a	n/a	n/a	n/a	n/a
3411492	RECOG_RESP	n/a	LTP190	ltpFR	5	7	1	FOX	598	n/a	n/a	n/a	n/a	n/a	n/a	n/a
3412112	RECOG_CONF	n/a	LTP190	ltpFR	5	7	1	FOX	598	5	n/a	n/a	n/a	n/a	n/a	n/a
3413808	RECOG_TARGET	n/a	LTP190	ltpFR	5	7	1	SUPERMARKET	1409	5	0	n/a	n/a	n/a	n/a	n/a
3414829	RECOG_RESP	n/a	LTP190	ltpFR	5	7	1	SUPERMARKET	1409	n/a	0	n/a	n/a	n/a	n/a	n/a
3415365	RECOG_CONF	n/a	LTP190	ltpFR	5	7	1	SUPERMARKET	1409	5	0	n/a	n/a	n/a	n/a	n/a
3417104	RECOG_TARGET	n/a	LTP190	ltpFR	5	7	-1	DOLLAR	482	2	-1	n/a	n/a	n/a	n/a	n/a
3418244	RECOG_RESP	n/a	LTP190	ltpFR	5	7	-1	DOLLAR	482	n/a	-1	n/a	n/a	n/a	n/a	n/a
3418777	RECOG_CONF	n/a	LTP190	ltpFR	5	7	-1	DOLLAR	482	2	-1	n/a	n/a	n/a	n/a	n/a
3420534	RECOG_LURE	n/a	LTP190	ltpFR	5	7	n/a	HEEL	700	4	n/a	n/a	n/a	n/a	n/a	n/a
3421515	RECOG_RESP	n/a	LTP190	ltpFR	5	7	n/a	HEEL	700	n/a	n/a	n/a	n/a	n/a	n/a	n/a
3422042	RECOG_CONF	n/a	LTP190	ltpFR	5	7	n/a	HEEL	700	4	n/a	n/a	n/a	n/a	n/a	n/a
3425269	REC_START	n/a	LTP190	ltpFR	5	8	n/a	n/a	n/a	n/a	n/a	n/a	n/a	n/a	n/a	n/a
3425318	RECOG_TARGET	n/a	LTP190	ltpFR	5	8	1	LAKE	796	1	0	n/a	n/a	n/a	n/a	n/a
3426572	RECOG_RESP	n/a	LTP190	ltpFR	5	8	1	LAKE	796	n/a	0	n/a	n/a	n/a	n/a	n/a
3428459	RECOG_CONF	n/a	LTP190	ltpFR	5	8	1	LAKE	796	1	0	n/a	n/a	n/a	n/a	n/a
3430254	RECOG_TARGET	n/a	LTP190	ltpFR	5	8	0	BEAST	108	5	1	n/a	n/a	n/a	n/a	n/a
3430873	RECOG_RESP	n/a	LTP190	ltpFR	5	8	0	BEAST	108	n/a	1	n/a	n/a	n/a	n/a	n/a
3431350	RECOG_CONF	n/a	LTP190	ltpFR	5	8	0	BEAST	108	5	1	n/a	n/a	n/a	n/a	n/a
3433084	RECOG_TARGET	n/a	LTP190	ltpFR	5	8	0	COURSE	390	5	1	n/a	n/a	n/a	n/a	n/a
3433742	RECOG_RESP	n/a	LTP190	ltpFR	5	8	0	COURSE	390	n/a	1	n/a	n/a	n/a	n/a	n/a
3434201	RECOG_CONF	n/a	LTP190	ltpFR	5	8	0	COURSE	390	5	1	n/a	n/a	n/a	n/a	n/a
3435674	RECOG_TARGET	n/a	LTP190	ltpFR	5	8	1	REEF	1177	5	1	n/a	n/a	n/a	n/a	n/a
3436299	RECOG_RESP	n/a	LTP190	ltpFR	5	8	1	REEF	1177	n/a	1	n/a	n/a	n/a	n/a	n/a
3436808	RECOG_CONF	n/a	LTP190	ltpFR	5	8	1	REEF	1177	5	1	n/a	n/a	n/a	n/a	n/a
3438419	RECOG_TARGET	n/a	LTP190	ltpFR	5	8	0	COBBLER	335	5	1	n/a	n/a	n/a	n/a	n/a
3439020	RECOG_RESP	n/a	LTP190	ltpFR	5	8	0	COBBLER	335	n/a	1	n/a	n/a	n/a	n/a	n/a
3439571	RECOG_CONF	n/a	LTP190	ltpFR	5	8	0	COBBLER	335	5	1	n/a	n/a	n/a	n/a	n/a
3441099	RECOG_TARGET	n/a	LTP190	ltpFR	5	8	1	ITEM	746	5	0	n/a	n/a	n/a	n/a	n/a
3442051	RECOG_RESP	n/a	LTP190	ltpFR	5	8	1	ITEM	746	n/a	0	n/a	n/a	n/a	n/a	n/a
3442654	RECOG_CONF	n/a	LTP190	ltpFR	5	8	1	ITEM	746	5	0	n/a	n/a	n/a	n/a	n/a
3443721	RECOG_TARGET	n/a	LTP190	ltpFR	5	8	1	PENNY	1045	5	0	n/a	n/a	n/a	n/a	n/a
3444539	RECOG_RESP	n/a	LTP190	ltpFR	5	8	1	PENNY	1045	n/a	0	n/a	n/a	n/a	n/a	n/a
3445059	RECOG_CONF	n/a	LTP190	ltpFR	5	8	1	PENNY	1045	5	0	n/a	n/a	n/a	n/a	n/a
3446534	RECOG_TARGET	n/a	LTP190	ltpFR	5	8	0	GREASE	660	5	1	n/a	n/a	n/a	n/a	n/a
3447154	RECOG_RESP	n/a	LTP190	ltpFR	5	8	0	GREASE	660	n/a	1	n/a	n/a	n/a	n/a	n/a
3447683	RECOG_CONF	n/a	LTP190	ltpFR	5	8	0	GREASE	660	5	1	n/a	n/a	n/a	n/a	n/a
3449125	RECOG_TARGET	n/a	LTP190	ltpFR	5	8	0	MONEY	908	1	1	n/a	n/a	n/a	n/a	n/a
3449827	RECOG_RESP	n/a	LTP190	ltpFR	5	8	0	MONEY	908	n/a	1	n/a	n/a	n/a	n/a	n/a
3450377	RECOG_CONF	n/a	LTP190	ltpFR	5	8	0	MONEY	908	1	1	n/a	n/a	n/a	n/a	n/a
3452103	RECOG_TARGET	n/a	LTP190	ltpFR	5	8	-1	CUPBOARD	425	2	-1	n/a	n/a	n/a	n/a	n/a
3453900	RECOG_RESP	n/a	LTP190	ltpFR	5	8	-1	CUPBOARD	425	n/a	-1	n/a	n/a	n/a	n/a	n/a
3454418	RECOG_CONF	n/a	LTP190	ltpFR	5	8	-1	CUPBOARD	425	2	-1	n/a	n/a	n/a	n/a	n/a
3456051	RECOG_TARGET	n/a	LTP190	ltpFR	5	8	-1	CARPENTER	246	5	-1	n/a	n/a	n/a	n/a	n/a
3456721	RECOG_RESP	n/a	LTP190	ltpFR	5	8	-1	CARPENTER	246	n/a	-1	n/a	n/a	n/a	n/a	n/a
3457231	RECOG_CONF	n/a	LTP190	ltpFR	5	8	-1	CARPENTER	246	5	-1	n/a	n/a	n/a	n/a	n/a
3458695	RECOG_TARGET	n/a	LTP190	ltpFR	5	8	0	FRUIT	610	5	n/a	n/a	n/a	n/a	n/a	n/a
3459453	RECOG_RESP	n/a	LTP190	ltpFR	5	8	0	FRUIT	610	n/a	n/a	n/a	n/a	n/a	n/a	n/a
3459965	RECOG_CONF	n/a	LTP190	ltpFR	5	8	0	FRUIT	610	5	n/a	n/a	n/a	n/a	n/a	n/a
3461388	RECOG_TARGET	n/a	LTP190	ltpFR	5	8	1	LEVER	815	5	0	n/a	n/a	n/a	n/a	n/a
3462100	RECOG_RESP	n/a	LTP190	ltpFR	5	8	1	LEVER	815	n/a	0	n/a	n/a	n/a	n/a	n/a
3462699	RECOG_CONF	n/a	LTP190	ltpFR	5	8	1	LEVER	815	5	0	n/a	n/a	n/a	n/a	n/a
3464265	RECOG_TARGET	n/a	LTP190	ltpFR	5	8	0	ANIMAL	23	2	1	n/a	n/a	n/a	n/a	n/a
3465242	RECOG_RESP	n/a	LTP190	ltpFR	5	8	0	ANIMAL	23	n/a	1	n/a	n/a	n/a	n/a	n/a
3465753	RECOG_CONF	n/a	LTP190	ltpFR	5	8	0	ANIMAL	23	2	1	n/a	n/a	n/a	n/a	n/a
3467360	RECOG_LURE	n/a	LTP190	ltpFR	5	8	n/a	MATTRESS	879	4	n/a	n/a	n/a	n/a	n/a	n/a
3468233	RECOG_RESP	n/a	LTP190	ltpFR	5	8	n/a	MATTRESS	879	n/a	n/a	n/a	n/a	n/a	n/a	n/a
3468994	RECOG_CONF	n/a	LTP190	ltpFR	5	8	n/a	MATTRESS	879	4	n/a	n/a	n/a	n/a	n/a	n/a
3470489	RECOG_TARGET	n/a	LTP190	ltpFR	5	8	1	BUCKET	184	2	n/a	n/a	n/a	n/a	n/a	n/a
3471304	RECOG_RESP	n/a	LTP190	ltpFR	5	8	1	BUCKET	184	n/a	n/a	n/a	n/a	n/a	n/a	n/a
3471877	RECOG_CONF	n/a	LTP190	ltpFR	5	8	1	BUCKET	184	2	n/a	n/a	n/a	n/a	n/a	n/a
3473635	RECOG_TARGET	n/a	LTP190	ltpFR	5	8	-1	DEPARTMENT	449	1	-1	n/a	n/a	n/a	n/a	n/a
3475562	RECOG_RESP	n/a	LTP190	ltpFR	5	8	-1	DEPARTMENT	449	n/a	-1	n/a	n/a	n/a	n/a	n/a
3476165	RECOG_CONF	n/a	LTP190	ltpFR	5	8	-1	DEPARTMENT	449	1	-1	n/a	n/a	n/a	n/a	n/a
3477805	RECOG_TARGET	n/a	LTP190	ltpFR	5	8	0	INVENTOR	743	5	1	n/a	n/a	n/a	n/a	n/a
3478670	RECOG_RESP	n/a	LTP190	ltpFR	5	8	0	INVENTOR	743	n/a	1	n/a	n/a	n/a	n/a	n/a
3479121	RECOG_CONF	n/a	LTP190	ltpFR	5	8	0	INVENTOR	743	5	1	n/a	n/a	n/a	n/a	n/a
3480778	RECOG_TARGET	n/a	LTP190	ltpFR	5	8	0	GRATE	657	5	1	n/a	n/a	n/a	n/a	n/a
3483024	RECOG_RESP	n/a	LTP190	ltpFR	5	8	0	GRATE	657	n/a	1	n/a	n/a	n/a	n/a	n/a
3483561	RECOG_CONF	n/a	LTP190	ltpFR	5	8	0	GRATE	657	5	1	n/a	n/a	n/a	n/a	n/a
3485227	RECOG_TARGET	n/a	LTP190	ltpFR	5	8	1	MUSHROOM	934	5	0	n/a	n/a	n/a	n/a	n/a
3486082	RECOG_RESP	n/a	LTP190	ltpFR	5	8	1	MUSHROOM	934	n/a	0	n/a	n/a	n/a	n/a	n/a
3486594	RECOG_CONF	n/a	LTP190	ltpFR	5	8	1	MUSHROOM	934	5	0	n/a	n/a	n/a	n/a	n/a
3508657	REC_START	n/a	LTP190	ltpFR	5	9	n/a	n/a	n/a	n/a	n/a	n/a	n/a	n/a	n/a	n/a
3508699	RECOG_TARGET	n/a	LTP190	ltpFR	5	9	-1	HAIL	676	5	-1	n/a	n/a	n/a	n/a	n/a
3510601	RECOG_RESP	n/a	LTP190	ltpFR	5	9	-1	HAIL	676	n/a	-1	n/a	n/a	n/a	n/a	n/a
3511246	RECOG_CONF	n/a	LTP190	ltpFR	5	9	-1	HAIL	676	5	-1	n/a	n/a	n/a	n/a	n/a
3512848	RECOG_LURE	n/a	LTP190	ltpFR	5	9	n/a	STADIUM	1364	2	n/a	n/a	n/a	n/a	n/a	n/a
3513635	RECOG_RESP	n/a	LTP190	ltpFR	5	9	n/a	STADIUM	1364	n/a	n/a	n/a	n/a	n/a	n/a	n/a
3514088	RECOG_CONF	n/a	LTP190	ltpFR	5	9	n/a	STADIUM	1364	2	n/a	n/a	n/a	n/a	n/a	n/a
3515642	RECOG_TARGET	n/a	LTP190	ltpFR	5	9	1	CHEMICAL	291	5	1	n/a	n/a	n/a	n/a	n/a
3516323	RECOG_RESP	n/a	LTP190	ltpFR	5	9	1	CHEMICAL	291	n/a	1	n/a	n/a	n/a	n/a	n/a
3516833	RECOG_CONF	n/a	LTP190	ltpFR	5	9	1	CHEMICAL	291	5	1	n/a	n/a	n/a	n/a	n/a
3518306	RECOG_TARGET	n/a	LTP190	ltpFR	5	9	0	BAY	102	5	1	n/a	n/a	n/a	n/a	n/a
3518801	RECOG_RESP	n/a	LTP190	ltpFR	5	9	0	BAY	102	n/a	1	n/a	n/a	n/a	n/a	n/a
3519328	RECOG_CONF	n/a	LTP190	ltpFR	5	9	0	BAY	102	5	1	n/a	n/a	n/a	n/a	n/a
3520812	RECOG_TARGET	n/a	LTP190	ltpFR	5	9	0	TAG	1429	5	0	n/a	n/a	n/a	n/a	n/a
3521332	RECOG_RESP	n/a	LTP190	ltpFR	5	9	0	TAG	1429	n/a	0	n/a	n/a	n/a	n/a	n/a
3521872	RECOG_CONF	n/a	LTP190	ltpFR	5	9	0	TAG	1429	5	0	n/a	n/a	n/a	n/a	n/a
3523304	RECOG_TARGET	n/a	LTP190	ltpFR	5	9	1	BRACES	164	5	0	n/a	n/a	n/a	n/a	n/a
3523821	RECOG_RESP	n/a	LTP190	ltpFR	5	9	1	BRACES	164	n/a	0	n/a	n/a	n/a	n/a	n/a
3524366	RECOG_CONF	n/a	LTP190	ltpFR	5	9	1	BRACES	164	5	0	n/a	n/a	n/a	n/a	n/a
3525980	RECOG_TARGET	n/a	LTP190	ltpFR	5	9	0	TREAD	1499	5	1	n/a	n/a	n/a	n/a	n/a
3526621	RECOG_RESP	n/a	LTP190	ltpFR	5	9	0	TREAD	1499	n/a	1	n/a	n/a	n/a	n/a	n/a
3527220	RECOG_CONF	n/a	LTP190	ltpFR	5	9	0	TREAD	1499	5	1	n/a	n/a	n/a	n/a	n/a
3528926	RECOG_LURE	n/a	LTP190	ltpFR	5	9	n/a	PASSENGER	1020	1	n/a	n/a	n/a	n/a	n/a	n/a
3529467	RECOG_RESP_VV	n/a	LTP190	ltpFR	5	9	n/a	PASSENGER	1020	n/a	n/a	n/a	n/a	n/a	n/a	n/a
3530999	RECOG_RESP	n/a	LTP190	ltpFR	5	9	n/a	PASSENGER	1020	n/a	n/a	n/a	n/a	n/a	n/a	n/a
3531754	RECOG_CONF	n/a	LTP190	ltpFR	5	9	n/a	PASSENGER	1020	1	n/a	n/a	n/a	n/a	n/a	n/a
3533359	RECOG_TARGET	n/a	LTP190	ltpFR	5	9	1	RAIL	1161	5	0	n/a	n/a	n/a	n/a	n/a
3534034	RECOG_RESP	n/a	LTP190	ltpFR	5	9	1	RAIL	1161	n/a	0	n/a	n/a	n/a	n/a	n/a
3534528	RECOG_CONF	n/a	LTP190	ltpFR	5	9	1	RAIL	1161	5	0	n/a	n/a	n/a	n/a	n/a
3536076	RECOG_TARGET	n/a	LTP190	ltpFR	5	9	0	BOLT	146	5	0	n/a	n/a	n/a	n/a	n/a
3536752	RECOG_RESP	n/a	LTP190	ltpFR	5	9	0	BOLT	146	n/a	0	n/a	n/a	n/a	n/a	n/a
3537252	RECOG_CONF	n/a	LTP190	ltpFR	5	9	0	BOLT	146	5	0	n/a	n/a	n/a	n/a	n/a
3538648	RECOG_TARGET	n/a	LTP190	ltpFR	5	9	-1	WALL	1582	2	-1	n/a	n/a	n/a	n/a	n/a
3539955	RECOG_RESP	n/a	LTP190	ltpFR	5	9	-1	WALL	1582	n/a	-1	n/a	n/a	n/a	n/a	n/a
3540556	RECOG_CONF	n/a	LTP190	ltpFR	5	9	-1	WALL	1582	2	-1	n/a	n/a	n/a	n/a	n/a
3542259	RECOG_TARGET	n/a	LTP190	ltpFR	5	9	-1	ICING	732	5	-1	n/a	n/a	n/a	n/a	n/a
3543123	RECOG_RESP	n/a	LTP190	ltpFR	5	9	-1	ICING	732	n/a	-1	n/a	n/a	n/a	n/a	n/a
3543662	RECOG_CONF	n/a	LTP190	ltpFR	5	9	-1	ICING	732	5	-1	n/a	n/a	n/a	n/a	n/a
3545157	RECOG_TARGET	n/a	LTP190	ltpFR	5	9	0	BUREAU	199	5	1	n/a	n/a	n/a	n/a	n/a
3545871	RECOG_RESP	n/a	LTP190	ltpFR	5	9	0	BUREAU	199	n/a	1	n/a	n/a	n/a	n/a	n/a
3546366	RECOG_CONF	n/a	LTP190	ltpFR	5	9	0	BUREAU	199	5	1	n/a	n/a	n/a	n/a	n/a
3547997	RECOG_TARGET	n/a	LTP190	ltpFR	5	9	0	SOCIETY	1338	5	1	n/a	n/a	n/a	n/a	n/a
3548675	RECOG_RESP	n/a	LTP190	ltpFR	5	9	0	SOCIETY	1338	n/a	1	n/a	n/a	n/a	n/a	n/a
3549230	RECOG_CONF	n/a	LTP190	ltpFR	5	9	0	SOCIETY	1338	5	1	n/a	n/a	n/a	n/a	n/a
3550758	RECOG_TARGET	n/a	LTP190	ltpFR	5	9	-1	BRAN	167	5	-1	n/a	n/a	n/a	n/a	n/a
3551819	RECOG_RESP	n/a	LTP190	ltpFR	5	9	-1	BRAN	167	n/a	-1	n/a	n/a	n/a	n/a	n/a
3552422	RECOG_CONF	n/a	LTP190	ltpFR	5	9	-1	BRAN	167	5	-1	n/a	n/a	n/a	n/a	n/a
3553919	RECOG_TARGET	n/a	LTP190	ltpFR	5	9	-1	STAKE	1368	2	-1	n/a	n/a	n/a	n/a	n/a
3554508	RECOG_RESP	n/a	LTP190	ltpFR	5	9	-1	STAKE	1368	n/a	-1	n/a	n/a	n/a	n/a	n/a
3556717	RECOG_CONF	n/a	LTP190	ltpFR	5	9	-1	STAKE	1368	2	-1	n/a	n/a	n/a	n/a	n/a
3558269	RECOG_LURE	n/a	LTP190	ltpFR	5	9	n/a	WART	1590	1	n/a	n/a	n/a	n/a	n/a	n/a
3559258	RECOG_RESP	n/a	LTP190	ltpFR	5	9	n/a	WART	1590	n/a	n/a	n/a	n/a	n/a	n/a	n/a
3559831	RECOG_CONF	n/a	LTP190	ltpFR	5	9	n/a	WART	1590	1	n/a	n/a	n/a	n/a	n/a	n/a
3561448	RECOG_LURE	n/a	LTP190	ltpFR	5	9	n/a	BRAKE	166	2	n/a	n/a	n/a	n/a	n/a	n/a
3562604	RECOG_RESP	n/a	LTP190	ltpFR	5	9	n/a	BRAKE	166	n/a	n/a	n/a	n/a	n/a	n/a	n/a
3563239	RECOG_CONF	n/a	LTP190	ltpFR	5	9	n/a	BRAKE	166	2	n/a	n/a	n/a	n/a	n/a	n/a
3564915	RECOG_TARGET	n/a	LTP190	ltpFR	5	9	-1	LIMB	822	2	-1	n/a	n/a	n/a	n/a	n/a
3567850	RECOG_RESP	n/a	LTP190	ltpFR	5	9	-1	LIMB	822	n/a	-1	n/a	n/a	n/a	n/a	n/a
3568355	RECOG_CONF	n/a	LTP190	ltpFR	5	9	-1	LIMB	822	2	-1	n/a	n/a	n/a	n/a	n/a
3569997	RECOG_TARGET	n/a	LTP190	ltpFR	5	9	1	HOUSE	725	1	0	n/a	n/a	n/a	n/a	n/a
3571027	RECOG_RESP	n/a	LTP190	ltpFR	5	9	1	HOUSE	725	n/a	0	n/a	n/a	n/a	n/a	n/a
3571593	RECOG_CONF	n/a	LTP190	ltpFR	5	9	1	HOUSE	725	1	0	n/a	n/a	n/a	n/a	n/a
3575022	REC_START	n/a	LTP190	ltpFR	5	10	n/a	n/a	n/a	n/a	n/a	n/a	n/a	n/a	n/a	n/a
3575066	RECOG_TARGET	n/a	LTP190	ltpFR	5	10	-1	FOE	587	2	-1	n/a	n/a	n/a	n/a	n/a
3576070	RECOG_RESP	n/a	LTP190	ltpFR	5	10	-1	FOE	587	n/a	-1	n/a	n/a	n/a	n/a	n/a
3576575	RECOG_CONF	n/a	LTP190	ltpFR	5	10	-1	FOE	587	2	-1	n/a	n/a	n/a	n/a	n/a
3578234	RECOG_TARGET	n/a	LTP190	ltpFR	5	10	-1	FLEET	578	5	-1	n/a	n/a	n/a	n/a	n/a
3579298	RECOG_RESP	n/a	LTP190	ltpFR	5	10	-1	FLEET	578	n/a	-1	n/a	n/a	n/a	n/a	n/a
3579806	RECOG_CONF	n/a	LTP190	ltpFR	5	10	-1	FLEET	578	5	-1	n/a	n/a	n/a	n/a	n/a
3581323	RECOG_TARGET	n/a	LTP190	ltpFR	5	10	1	LIMOUSINE	824	5	0	n/a	n/a	n/a	n/a	n/a
3581997	RECOG_RESP	n/a	LTP190	ltpFR	5	10	1	LIMOUSINE	824	n/a	0	n/a	n/a	n/a	n/a	n/a
3582470	RECOG_CONF	n/a	LTP190	ltpFR	5	10	1	LIMOUSINE	824	5	0	n/a	n/a	n/a	n/a	n/a
3583883	RECOG_TARGET	n/a	LTP190	ltpFR	5	10	1	MICROSCOPE	891	5	1	n/a	n/a	n/a	n/a	n/a
3584536	RECOG_RESP	n/a	LTP190	ltpFR	5	10	1	MICROSCOPE	891	n/a	1	n/a	n/a	n/a	n/a	n/a
3585094	RECOG_CONF	n/a	LTP190	ltpFR	5	10	1	MICROSCOPE	891	5	1	n/a	n/a	n/a	n/a	n/a
3586509	RECOG_TARGET	n/a	LTP190	ltpFR	5	10	1	BARRACUDA	90	5	1	n/a	n/a	n/a	n/a	n/a
3587076	RECOG_RESP	n/a	LTP190	ltpFR	5	10	1	BARRACUDA	90	n/a	1	n/a	n/a	n/a	n/a	n/a
3587648	RECOG_CONF	n/a	LTP190	ltpFR	5	10	1	BARRACUDA	90	5	1	n/a	n/a	n/a	n/a	n/a
3589171	RECOG_TARGET	n/a	LTP190	ltpFR	5	10	-1	OWNER	993	5	-1	n/a	n/a	n/a	n/a	n/a
3589691	RECOG_RESP	n/a	LTP190	ltpFR	5	10	-1	OWNER	993	n/a	-1	n/a	n/a	n/a	n/a	n/a
3590322	RECOG_CONF	n/a	LTP190	ltpFR	5	10	-1	OWNER	993	5	-1	n/a	n/a	n/a	n/a	n/a
3591846	RECOG_TARGET	n/a	LTP190	ltpFR	5	10	1	CREATURE	403	5	1	n/a	n/a	n/a	n/a	n/a
3592540	RECOG_RESP	n/a	LTP190	ltpFR	5	10	1	CREATURE	403	n/a	1	n/a	n/a	n/a	n/a	n/a
3593056	RECOG_CONF	n/a	LTP190	ltpFR	5	10	1	CREATURE	403	5	1	n/a	n/a	n/a	n/a	n/a
3594723	RECOG_TARGET	n/a	LTP190	ltpFR	5	10	-1	GARLIC	624	5	-1	n/a	n/a	n/a	n/a	n/a
3595332	RECOG_RESP	n/a	LTP190	ltpFR	5	10	-1	GARLIC	624	n/a	-1	n/a	n/a	n/a	n/a	n/a
3595849	RECOG_CONF	n/a	LTP190	ltpFR	5	10	-1	GARLIC	624	5	-1	n/a	n/a	n/a	n/a	n/a
3597350	RECOG_LURE	n/a	LTP190	ltpFR	5	10	n/a	LIZARD	834	5	n/a	n/a	n/a	n/a	n/a	n/a
3597830	RECOG_RESP	n/a	LTP190	ltpFR	5	10	n/a	LIZARD	834	n/a	n/a	n/a	n/a	n/a	n/a	n/a
3598454	RECOG_CONF	n/a	LTP190	ltpFR	5	10	n/a	LIZARD	834	5	n/a	n/a	n/a	n/a	n/a	n/a
3599892	RECOG_TARGET	n/a	LTP190	ltpFR	5	10	1	HEATER	698	1	1	n/a	n/a	n/a	n/a	n/a
3601001	RECOG_RESP	n/a	LTP190	ltpFR	5	10	1	HEATER	698	n/a	1	n/a	n/a	n/a	n/a	n/a
3602003	RECOG_CONF	n/a	LTP190	ltpFR	5	10	1	HEATER	698	1	1	n/a	n/a	n/a	n/a	n/a
3603691	RECOG_LURE	n/a	LTP190	ltpFR	5	10	n/a	CARPET	247	5	n/a	n/a	n/a	n/a	n/a	n/a
3604519	RECOG_RESP	n/a	LTP190	ltpFR	5	10	n/a	CARPET	247	n/a	n/a	n/a	n/a	n/a	n/a	n/a
3605029	RECOG_CONF	n/a	LTP190	ltpFR	5	10	n/a	CARPET	247	5	n/a	n/a	n/a	n/a	n/a	n/a
3606618	RECOG_TARGET	n/a	LTP190	ltpFR	5	10	0	OLIVE	975	5	1	n/a	n/a	n/a	n/a	n/a
3607376	RECOG_RESP	n/a	LTP190	ltpFR	5	10	0	OLIVE	975	n/a	1	n/a	n/a	n/a	n/a	n/a
3607832	RECOG_CONF	n/a	LTP190	ltpFR	5	10	0	OLIVE	975	5	1	n/a	n/a	n/a	n/a	n/a
3609462	RECOG_TARGET	n/a	LTP190	ltpFR	5	10	-1	MECHANIC	884	5	-1	n/a	n/a	n/a	n/a	n/a
3610062	RECOG_RESP	n/a	LTP190	ltpFR	5	10	-1	MECHANIC	884	n/a	-1	n/a	n/a	n/a	n/a	n/a
3610536	RECOG_CONF	n/a	LTP190	ltpFR	5	10	-1	MECHANIC	884	5	-1	n/a	n/a	n/a	n/a	n/a
3612026	RECOG_TARGET	n/a	LTP190	ltpFR	5	10	1	SEAGULL	1261	5	1	n/a	n/a	n/a	n/a	n/a
3612673	RECOG_RESP	n/a	LTP190	ltpFR	5	10	1	SEAGULL	1261	n/a	1	n/a	n/a	n/a	n/a	n/a
3613140	RECOG_CONF	n/a	LTP190	ltpFR	5	10	1	SEAGULL	1261	5	1	n/a	n/a	n/a	n/a	n/a
3614682	RECOG_TARGET	n/a	LTP190	ltpFR	5	10	1	VALVE	1546	2	0	n/a	n/a	n/a	n/a	n/a
3615444	RECOG_RESP	n/a	LTP190	ltpFR	5	10	1	VALVE	1546	n/a	0	n/a	n/a	n/a	n/a	n/a
3616068	RECOG_CONF	n/a	LTP190	ltpFR	5	10	1	VALVE	1546	2	0	n/a	n/a	n/a	n/a	n/a
3617943	RECOG_TARGET	n/a	LTP190	ltpFR	5	10	1	SWEATER	1419	1	0	n/a	n/a	n/a	n/a	n/a
3619333	RECOG_RESP	n/a	LTP190	ltpFR	5	10	1	SWEATER	1419	n/a	0	n/a	n/a	n/a	n/a	n/a
3619945	RECOG_CONF	n/a	LTP190	ltpFR	5	10	1	SWEATER	1419	1	0	n/a	n/a	n/a	n/a	n/a
