mstime	trial_type	stim_file	subject	experiment	session	trial	task	item_name	item_num	recog_conf	resp	color_b	color_g	color_r	case	font
0	SESS_START	n/a	LTP087	ltpFR	18	n/a	n/a	n/a	n/a	4	n/a	n/a	n/a	n/a	n/a	n/a
47031	WORD	wordpools/wasnorm_wordpool.txt	LTP087	ltpFR	18	1	0	ENEMY	534	4	0	0	0.5869140625	0.422607421875	lower	../fonts/zerothre.ttf
50906	WORD	wordpools/wasnorm_wordpool.txt	LTP087	ltpFR	18	1	0	WOUND	1624	n/a	0	0	0.5869140625	0.422607421875	lower	../fonts/zerothre.ttf
54981	WORD	wordpools/wasnorm_wordpool.txt	LTP087	ltpFR	18	1	1	SCISSORS	1250	n/a	0	1	0.412841796875	0.57763671875	upper	../fonts/amplitud.ttf
59022	WORD	wordpools/wasnorm_wordpool.txt	LTP087	ltpFR	18	1	1	SACK	1220	n/a	0	1	0.412841796875	0.57763671875	upper	../fonts/amplitud.ttf
63080	WORD	wordpools/wasnorm_wordpool.txt	LTP087	ltpFR	18	1	1	FRIEND	606	n/a	1	1	0.412841796875	0.57763671875	upper	../fonts/amplitud.ttf
67030	WORD	wordpools/wasnorm_wordpool.txt	LTP087	ltpFR	18	1	0	HIKER	708	n/a	1	0	0.5869140625	0.422607421875	lower	../fonts/zerothre.ttf
71013	WORD	wordpools/wasnorm_wordpool.txt	LTP087	ltpFR	18	1	0	CRYSTAL	418	n/a	0	0	0.5869140625	0.422607421875	lower	../fonts/zerothre.ttf
75063	WORD	wordpools/wasnorm_wordpool.txt	LTP087	ltpFR	18	1	1	BATHROOM	99	n/a	0	1	0.412841796875	0.57763671875	upper	../fonts/amplitud.ttf
79230	WORD	wordpools/wasnorm_wordpool.txt	LTP087	ltpFR	18	1	1	TEA	1439	n/a	0	1	0.412841796875	0.57763671875	upper	../fonts/amplitud.ttf
83221	WORD	wordpools/wasnorm_wordpool.txt	LTP087	ltpFR	18	1	1	FLORIDA	582	n/a	0	1	0.412841796875	0.57763671875	upper	../fonts/amplitud.ttf
87138	WORD	wordpools/wasnorm_wordpool.txt	LTP087	ltpFR	18	1	1	FENCE	560	n/a	0	1	0.412841796875	0.57763671875	upper	../fonts/amplitud.ttf
91112	WORD	wordpools/wasnorm_wordpool.txt	LTP087	ltpFR	18	1	1	LAUNDRY	803	n/a	0	1	0.412841796875	0.57763671875	upper	../fonts/amplitud.ttf
95019	WORD	wordpools/wasnorm_wordpool.txt	LTP087	ltpFR	18	1	0	DRAWER	493	n/a	0	0	0.5869140625	0.422607421875	lower	../fonts/zerothre.ttf
99052	WORD	wordpools/wasnorm_wordpool.txt	LTP087	ltpFR	18	1	0	KNOB	787	n/a	0	0	0.5869140625	0.422607421875	lower	../fonts/zerothre.ttf
103027	WORD	wordpools/wasnorm_wordpool.txt	LTP087	ltpFR	18	1	0	MOTHER	921	n/a	0	0	0.5869140625	0.422607421875	lower	../fonts/zerothre.ttf
107010	WORD	wordpools/wasnorm_wordpool.txt	LTP087	ltpFR	18	1	0	ANCESTOR	20	n/a	1	0	0.5869140625	0.422607421875	lower	../fonts/zerothre.ttf
112686	REC_START	n/a	LTP087	ltpFR	18	1	n/a	n/a	n/a	n/a	n/a	n/a	n/a	n/a	n/a	n/a
113741	REC_WORD	wordpools/wasnorm_wordpool.txt	LTP087	ltpFR	18	1	0	ANCESTOR	20	n/a	1	n/a	n/a	n/a	n/a	n/a
115112	REC_WORD	wordpools/wasnorm_wordpool.txt	LTP087	ltpFR	18	1	0	MOTHER	921	n/a	0	n/a	n/a	n/a	n/a	n/a
116573	REC_WORD	wordpools/wasnorm_wordpool.txt	LTP087	ltpFR	18	1	1	SCISSORS	1250	n/a	0	n/a	n/a	n/a	n/a	n/a
119764	REC_WORD	wordpools/wasnorm_wordpool.txt	LTP087	ltpFR	18	1	0	ENEMY	534	n/a	0	n/a	n/a	n/a	n/a	n/a
121170	REC_WORD	wordpools/wasnorm_wordpool.txt	LTP087	ltpFR	18	1	0	WOUND	1624	n/a	0	n/a	n/a	n/a	n/a	n/a
126784	REC_WORD	wordpools/wasnorm_wordpool.txt	LTP087	ltpFR	18	1	0	KNOB	787	n/a	0	n/a	n/a	n/a	n/a	n/a
190597	WORD	wordpools/wasnorm_wordpool.txt	LTP087	ltpFR	18	2	1	CUE	422	n/a	0	1	0.412841796875	0.57763671875	upper	../fonts/amplitud.ttf
194738	WORD	wordpools/wasnorm_wordpool.txt	LTP087	ltpFR	18	2	1	PONY	1102	n/a	1	1	0.412841796875	0.57763671875	upper	../fonts/amplitud.ttf
198763	WORD	wordpools/wasnorm_wordpool.txt	LTP087	ltpFR	18	2	0	LOUNGE	845	n/a	0	0	0.5869140625	0.422607421875	lower	../fonts/zerothre.ttf
202696	WORD	wordpools/wasnorm_wordpool.txt	LTP087	ltpFR	18	2	0	DIAMOND	458	n/a	0	0	0.5869140625	0.422607421875	lower	../fonts/zerothre.ttf
206903	WORD	wordpools/wasnorm_wordpool.txt	LTP087	ltpFR	18	2	1	RING	1193	n/a	0	1	0.412841796875	0.57763671875	upper	../fonts/amplitud.ttf
210994	WORD	wordpools/wasnorm_wordpool.txt	LTP087	ltpFR	18	2	1	DRIVER	499	n/a	1	1	0.412841796875	0.57763671875	upper	../fonts/amplitud.ttf
214910	WORD	wordpools/wasnorm_wordpool.txt	LTP087	ltpFR	18	2	1	CHAMPAGNE	278	n/a	0	1	0.412841796875	0.57763671875	upper	../fonts/amplitud.ttf
218819	WORD	wordpools/wasnorm_wordpool.txt	LTP087	ltpFR	18	2	1	BRIDGE	174	n/a	0	1	0.412841796875	0.57763671875	upper	../fonts/amplitud.ttf
222711	WORD	wordpools/wasnorm_wordpool.txt	LTP087	ltpFR	18	2	1	TEAPOT	1442	n/a	0	1	0.412841796875	0.57763671875	upper	../fonts/amplitud.ttf
226926	WORD	wordpools/wasnorm_wordpool.txt	LTP087	ltpFR	18	2	1	CHEST	295	n/a	0	1	0.412841796875	0.57763671875	upper	../fonts/amplitud.ttf
230819	WORD	wordpools/wasnorm_wordpool.txt	LTP087	ltpFR	18	2	0	BODY	145	n/a	0	0	0.5869140625	0.422607421875	lower	../fonts/zerothre.ttf
235025	WORD	wordpools/wasnorm_wordpool.txt	LTP087	ltpFR	18	2	0	LAGOON	795	n/a	0	0	0.5869140625	0.422607421875	lower	../fonts/zerothre.ttf
239084	WORD	wordpools/wasnorm_wordpool.txt	LTP087	ltpFR	18	2	0	ZEBRA	1635	n/a	1	0	0.5869140625	0.422607421875	lower	../fonts/zerothre.ttf
243067	WORD	wordpools/wasnorm_wordpool.txt	LTP087	ltpFR	18	2	0	SALOON	1228	n/a	1	0	0.5869140625	0.422607421875	lower	../fonts/zerothre.ttf
246916	WORD	wordpools/wasnorm_wordpool.txt	LTP087	ltpFR	18	2	0	SLUG	1329	n/a	0	0	0.5869140625	0.422607421875	lower	../fonts/zerothre.ttf
251008	WORD	wordpools/wasnorm_wordpool.txt	LTP087	ltpFR	18	2	0	JUDGE	761	n/a	1	0	0.5869140625	0.422607421875	lower	../fonts/zerothre.ttf
256692	REC_START	n/a	LTP087	ltpFR	18	2	n/a	n/a	n/a	n/a	n/a	n/a	n/a	n/a	n/a	n/a
257551	REC_WORD	wordpools/wasnorm_wordpool.txt	LTP087	ltpFR	18	2	0	SLUG	1329	n/a	0	n/a	n/a	n/a	n/a	n/a
259097	REC_WORD	wordpools/wasnorm_wordpool.txt	LTP087	ltpFR	18	2	0	JUDGE	761	n/a	1	n/a	n/a	n/a	n/a	n/a
261364	REC_WORD	wordpools/wasnorm_wordpool.txt	LTP087	ltpFR	18	2	0	DIAMOND	458	n/a	0	n/a	n/a	n/a	n/a	n/a
263200	REC_WORD	wordpools/wasnorm_wordpool.txt	LTP087	ltpFR	18	2	1	RING	1193	n/a	0	n/a	n/a	n/a	n/a	n/a
266527	REC_WORD	wordpools/wasnorm_wordpool.txt	LTP087	ltpFR	18	2	1	PONY	1102	n/a	1	n/a	n/a	n/a	n/a	n/a
267937	REC_WORD	wordpools/wasnorm_wordpool.txt	LTP087	ltpFR	18	2	1	CUE	422	n/a	0	n/a	n/a	n/a	n/a	n/a
278596	REC_WORD	wordpools/wasnorm_wordpool.txt	LTP087	ltpFR	18	2	n/a	QUEEN	1149	n/a	n/a	n/a	n/a	n/a	n/a	n/a
334127	WORD	wordpools/wasnorm_wordpool.txt	LTP087	ltpFR	18	3	1	SODA	1341	n/a	0	1	0.412841796875	0.57763671875	upper	../fonts/amplitud.ttf
337976	WORD	wordpools/wasnorm_wordpool.txt	LTP087	ltpFR	18	3	1	RULER	1216	n/a	1	1	0.412841796875	0.57763671875	upper	../fonts/amplitud.ttf
342084	WORD	wordpools/wasnorm_wordpool.txt	LTP087	ltpFR	18	3	0	COMMUNITY	356	n/a	0	0	0.5869140625	0.422607421875	lower	../fonts/zerothre.ttf
345950	WORD	wordpools/wasnorm_wordpool.txt	LTP087	ltpFR	18	3	0	CAP	236	n/a	0	0	0.5869140625	0.422607421875	lower	../fonts/zerothre.ttf
349785	WORD	wordpools/wasnorm_wordpool.txt	LTP087	ltpFR	18	3	0	SKULL	1320	n/a	0	0	0.5869140625	0.422607421875	lower	../fonts/zerothre.ttf
353892	WORD	wordpools/wasnorm_wordpool.txt	LTP087	ltpFR	18	3	0	EDITOR	516	n/a	1	0	0.5869140625	0.422607421875	lower	../fonts/zerothre.ttf
357908	WORD	wordpools/wasnorm_wordpool.txt	LTP087	ltpFR	18	3	0	BIKE	125	n/a	0	0	0.5869140625	0.422607421875	lower	../fonts/zerothre.ttf
361974	WORD	wordpools/wasnorm_wordpool.txt	LTP087	ltpFR	18	3	0	RIDER	1191	n/a	1	0	0.5869140625	0.422607421875	lower	../fonts/zerothre.ttf
366099	WORD	wordpools/wasnorm_wordpool.txt	LTP087	ltpFR	18	3	1	DESSERT	453	n/a	0	1	0.412841796875	0.57763671875	upper	../fonts/amplitud.ttf
370183	WORD	wordpools/wasnorm_wordpool.txt	LTP087	ltpFR	18	3	1	COLUMN	350	n/a	0	1	0.412841796875	0.57763671875	upper	../fonts/amplitud.ttf
374366	WORD	wordpools/wasnorm_wordpool.txt	LTP087	ltpFR	18	3	1	RECEPTIONIST	1174	n/a	1	1	0.412841796875	0.57763671875	upper	../fonts/amplitud.ttf
378349	WORD	wordpools/wasnorm_wordpool.txt	LTP087	ltpFR	18	3	1	PERMIT	1051	n/a	0	1	0.412841796875	0.57763671875	upper	../fonts/amplitud.ttf
382449	WORD	wordpools/wasnorm_wordpool.txt	LTP087	ltpFR	18	3	0	LUMBER	848	n/a	0	0	0.5869140625	0.422607421875	lower	../fonts/zerothre.ttf
386482	WORD	wordpools/wasnorm_wordpool.txt	LTP087	ltpFR	18	3	0	BUG	187	n/a	0	0	0.5869140625	0.422607421875	lower	../fonts/zerothre.ttf
390598	WORD	wordpools/wasnorm_wordpool.txt	LTP087	ltpFR	18	3	1	CRICKET	408	n/a	1	1	0.412841796875	0.57763671875	upper	../fonts/amplitud.ttf
394431	WORD	wordpools/wasnorm_wordpool.txt	LTP087	ltpFR	18	3	1	EMPLOYEE	531	n/a	1	1	0.412841796875	0.57763671875	upper	../fonts/amplitud.ttf
400448	REC_START	n/a	LTP087	ltpFR	18	3	n/a	n/a	n/a	n/a	n/a	n/a	n/a	n/a	n/a	n/a
401495	REC_WORD	wordpools/wasnorm_wordpool.txt	LTP087	ltpFR	18	3	1	CRICKET	408	n/a	1	n/a	n/a	n/a	n/a	n/a
403082	REC_WORD	wordpools/wasnorm_wordpool.txt	LTP087	ltpFR	18	3	1	EMPLOYEE	531	n/a	1	n/a	n/a	n/a	n/a	n/a
405930	REC_WORD	wordpools/wasnorm_wordpool.txt	LTP087	ltpFR	18	3	0	COMMUNITY	356	n/a	0	n/a	n/a	n/a	n/a	n/a
407422	REC_WORD	wordpools/wasnorm_wordpool.txt	LTP087	ltpFR	18	3	1	RULER	1216	n/a	1	n/a	n/a	n/a	n/a	n/a
415668	REC_WORD	wordpools/wasnorm_wordpool.txt	LTP087	ltpFR	18	3	1	SODA	1341	n/a	0	n/a	n/a	n/a	n/a	n/a
439968	REC_WORD	wordpools/wasnorm_wordpool.txt	LTP087	ltpFR	18	3	0	CAP	236	n/a	0	n/a	n/a	n/a	n/a	n/a
448793	REC_WORD	wordpools/wasnorm_wordpool.txt	LTP087	ltpFR	18	3	n/a	MONGOOSE	909	n/a	n/a	n/a	n/a	n/a	n/a	n/a
478007	WORD	wordpools/wasnorm_wordpool.txt	LTP087	ltpFR	18	4	1	PANTHER	1009	n/a	0	1	0.412841796875	0.57763671875	upper	../fonts/amplitud.ttf
481999	WORD	wordpools/wasnorm_wordpool.txt	LTP087	ltpFR	18	4	1	ROBIN	1199	n/a	1	1	0.412841796875	0.57763671875	upper	../fonts/amplitud.ttf
486057	WORD	wordpools/wasnorm_wordpool.txt	LTP087	ltpFR	18	4	1	FIST	572	n/a	0	1	0.412841796875	0.57763671875	upper	../fonts/amplitud.ttf
490056	WORD	wordpools/wasnorm_wordpool.txt	LTP087	ltpFR	18	4	1	TROUSERS	1510	n/a	0	1	0.412841796875	0.57763671875	upper	../fonts/amplitud.ttf
494048	WORD	wordpools/wasnorm_wordpool.txt	LTP087	ltpFR	18	4	1	PAN	1008	n/a	0	1	0.412841796875	0.57763671875	upper	../fonts/amplitud.ttf
498089	WORD	wordpools/wasnorm_wordpool.txt	LTP087	ltpFR	18	4	1	STOVE	1388	n/a	0	1	0.412841796875	0.57763671875	upper	../fonts/amplitud.ttf
502215	WORD	wordpools/wasnorm_wordpool.txt	LTP087	ltpFR	18	4	1	DASHBOARD	441	n/a	0	1	0.412841796875	0.57763671875	upper	../fonts/amplitud.ttf
506105	WORD	wordpools/wasnorm_wordpool.txt	LTP087	ltpFR	18	4	1	SATURN	1236	n/a	1	1	0.412841796875	0.57763671875	upper	../fonts/amplitud.ttf
510071	WORD	wordpools/wasnorm_wordpool.txt	LTP087	ltpFR	18	4	1	SPINACH	1352	n/a	0	1	0.412841796875	0.57763671875	upper	../fonts/amplitud.ttf
514029	WORD	wordpools/wasnorm_wordpool.txt	LTP087	ltpFR	18	4	1	FUNGUS	614	n/a	0	1	0.412841796875	0.57763671875	upper	../fonts/amplitud.ttf
517854	WORD	wordpools/wasnorm_wordpool.txt	LTP087	ltpFR	18	4	1	NEST	945	n/a	0	1	0.412841796875	0.57763671875	upper	../fonts/amplitud.ttf
521697	WORD	wordpools/wasnorm_wordpool.txt	LTP087	ltpFR	18	4	1	POLYESTER	1100	n/a	0	1	0.412841796875	0.57763671875	upper	../fonts/amplitud.ttf
525638	WORD	wordpools/wasnorm_wordpool.txt	LTP087	ltpFR	18	4	1	PASTA	1021	n/a	0	1	0.412841796875	0.57763671875	upper	../fonts/amplitud.ttf
529479	WORD	wordpools/wasnorm_wordpool.txt	LTP087	ltpFR	18	4	1	GUEST	669	n/a	1	1	0.412841796875	0.57763671875	upper	../fonts/amplitud.ttf
533421	WORD	wordpools/wasnorm_wordpool.txt	LTP087	ltpFR	18	4	1	FIGHTER	564	n/a	1	1	0.412841796875	0.57763671875	upper	../fonts/amplitud.ttf
537420	WORD	wordpools/wasnorm_wordpool.txt	LTP087	ltpFR	18	4	1	WRENCH	1625	n/a	0	1	0.412841796875	0.57763671875	upper	../fonts/amplitud.ttf
543246	REC_START	n/a	LTP087	ltpFR	18	4	n/a	n/a	n/a	n/a	n/a	n/a	n/a	n/a	n/a	n/a
543839	REC_WORD	wordpools/wasnorm_wordpool.txt	LTP087	ltpFR	18	4	1	WRENCH	1625	n/a	0	n/a	n/a	n/a	n/a	n/a
545052	REC_WORD	wordpools/wasnorm_wordpool.txt	LTP087	ltpFR	18	4	1	POLYESTER	1100	n/a	0	n/a	n/a	n/a	n/a	n/a
547222	REC_WORD	wordpools/wasnorm_wordpool.txt	LTP087	ltpFR	18	4	1	FUNGUS	614	n/a	0	n/a	n/a	n/a	n/a	n/a
548222	REC_WORD_VV	wordpools/wasnorm_wordpool.txt	LTP087	ltpFR	18	4	n/a	<>	-1	n/a	n/a	n/a	n/a	n/a	n/a	n/a
549970	REC_WORD	wordpools/wasnorm_wordpool.txt	LTP087	ltpFR	18	4	1	SATURN	1236	n/a	1	n/a	n/a	n/a	n/a	n/a
557424	REC_WORD	wordpools/wasnorm_wordpool.txt	LTP087	ltpFR	18	4	n/a	SATIRE	-1	n/a	n/a	n/a	n/a	n/a	n/a	n/a
565869	REC_WORD	wordpools/wasnorm_wordpool.txt	LTP087	ltpFR	18	4	1	STOVE	1388	n/a	0	n/a	n/a	n/a	n/a	n/a
567171	REC_WORD	wordpools/wasnorm_wordpool.txt	LTP087	ltpFR	18	4	1	PAN	1008	n/a	0	n/a	n/a	n/a	n/a	n/a
570683	REC_WORD	wordpools/wasnorm_wordpool.txt	LTP087	ltpFR	18	4	1	DASHBOARD	441	n/a	0	n/a	n/a	n/a	n/a	n/a
581434	REC_WORD	wordpools/wasnorm_wordpool.txt	LTP087	ltpFR	18	4	n/a	WRIST	1626	n/a	n/a	n/a	n/a	n/a	n/a	n/a
620847	WORD	wordpools/wasnorm_wordpool.txt	LTP087	ltpFR	18	5	0	PARSLEY	1016	n/a	0	0	0.5869140625	0.422607421875	lower	../fonts/zerothre.ttf
624747	WORD	wordpools/wasnorm_wordpool.txt	LTP087	ltpFR	18	5	0	CHIEF	298	n/a	1	0	0.5869140625	0.422607421875	lower	../fonts/zerothre.ttf
628797	WORD	wordpools/wasnorm_wordpool.txt	LTP087	ltpFR	18	5	1	RADISH	1158	n/a	0	1	0.412841796875	0.57763671875	upper	../fonts/amplitud.ttf
632747	WORD	wordpools/wasnorm_wordpool.txt	LTP087	ltpFR	18	5	1	CAULIFLOWER	262	n/a	0	1	0.412841796875	0.57763671875	upper	../fonts/amplitud.ttf
636904	WORD	wordpools/wasnorm_wordpool.txt	LTP087	ltpFR	18	5	1	SHORE	1291	n/a	0	1	0.412841796875	0.57763671875	upper	../fonts/amplitud.ttf
641062	WORD	wordpools/wasnorm_wordpool.txt	LTP087	ltpFR	18	5	0	COMMANDER	354	n/a	1	0	0.5869140625	0.422607421875	lower	../fonts/zerothre.ttf
645011	WORD	wordpools/wasnorm_wordpool.txt	LTP087	ltpFR	18	5	0	HEN	703	n/a	0	0	0.5869140625	0.422607421875	lower	../fonts/zerothre.ttf
649061	WORD	wordpools/wasnorm_wordpool.txt	LTP087	ltpFR	18	5	0	LOVER	846	n/a	1	0	0.5869140625	0.422607421875	lower	../fonts/zerothre.ttf
653145	WORD	wordpools/wasnorm_wordpool.txt	LTP087	ltpFR	18	5	1	STRANGER	1389	n/a	1	1	0.412841796875	0.57763671875	upper	../fonts/amplitud.ttf
657161	WORD	wordpools/wasnorm_wordpool.txt	LTP087	ltpFR	18	5	1	OREGANO	983	n/a	0	1	0.412841796875	0.57763671875	upper	../fonts/amplitud.ttf
661119	WORD	wordpools/wasnorm_wordpool.txt	LTP087	ltpFR	18	5	1	CATCHER	258	n/a	1	1	0.412841796875	0.57763671875	upper	../fonts/amplitud.ttf
664985	WORD	wordpools/wasnorm_wordpool.txt	LTP087	ltpFR	18	5	1	FLOWER	584	n/a	0	1	0.412841796875	0.57763671875	upper	../fonts/amplitud.ttf
669001	WORD	wordpools/wasnorm_wordpool.txt	LTP087	ltpFR	18	5	1	OUTFIT	988	n/a	0	1	0.412841796875	0.57763671875	upper	../fonts/amplitud.ttf
673185	WORD	wordpools/wasnorm_wordpool.txt	LTP087	ltpFR	18	5	0	NOOSE	956	n/a	0	0	0.5869140625	0.422607421875	lower	../fonts/zerothre.ttf
677302	WORD	wordpools/wasnorm_wordpool.txt	LTP087	ltpFR	18	5	0	STONE	1385	n/a	1	0	0.5869140625	0.422607421875	lower	../fonts/zerothre.ttf
681218	WORD	wordpools/wasnorm_wordpool.txt	LTP087	ltpFR	18	5	0	SWIMMER	1420	n/a	1	0	0.5869140625	0.422607421875	lower	../fonts/zerothre.ttf
687026	REC_START	n/a	LTP087	ltpFR	18	5	n/a	n/a	n/a	n/a	n/a	n/a	n/a	n/a	n/a	n/a
688024	REC_WORD	wordpools/wasnorm_wordpool.txt	LTP087	ltpFR	18	5	0	SWIMMER	1420	n/a	1	n/a	n/a	n/a	n/a	n/a
689185	REC_WORD	wordpools/wasnorm_wordpool.txt	LTP087	ltpFR	18	5	0	STONE	1385	n/a	1	n/a	n/a	n/a	n/a	n/a
690842	REC_WORD	wordpools/wasnorm_wordpool.txt	LTP087	ltpFR	18	5	0	CHIEF	298	n/a	1	n/a	n/a	n/a	n/a	n/a
692299	REC_WORD	wordpools/wasnorm_wordpool.txt	LTP087	ltpFR	18	5	0	COMMANDER	354	n/a	1	n/a	n/a	n/a	n/a	n/a
694185	REC_WORD	wordpools/wasnorm_wordpool.txt	LTP087	ltpFR	18	5	0	PARSLEY	1016	n/a	0	n/a	n/a	n/a	n/a	n/a
710113	REC_WORD	wordpools/wasnorm_wordpool.txt	LTP087	ltpFR	18	5	0	STONE	1385	n/a	1	n/a	n/a	n/a	n/a	n/a
711884	REC_WORD	wordpools/wasnorm_wordpool.txt	LTP087	ltpFR	18	5	0	SWIMMER	1420	n/a	1	n/a	n/a	n/a	n/a	n/a
764745	WORD	wordpools/wasnorm_wordpool.txt	LTP087	ltpFR	18	6	-1	DRAWING	494	n/a	-1	1	1.0	1.0	upper	../fonts/Verdana.ttf
768910	WORD	wordpools/wasnorm_wordpool.txt	LTP087	ltpFR	18	6	-1	OCEAN	970	n/a	-1	1	1.0	1.0	upper	../fonts/Verdana.ttf
773068	WORD	wordpools/wasnorm_wordpool.txt	LTP087	ltpFR	18	6	-1	ROBE	1198	n/a	-1	1	1.0	1.0	upper	../fonts/Verdana.ttf
777101	WORD	wordpools/wasnorm_wordpool.txt	LTP087	ltpFR	18	6	-1	LINT	826	n/a	-1	1	1.0	1.0	upper	../fonts/Verdana.ttf
781034	WORD	wordpools/wasnorm_wordpool.txt	LTP087	ltpFR	18	6	-1	HOUSE	725	n/a	-1	1	1.0	1.0	upper	../fonts/Verdana.ttf
785018	WORD	wordpools/wasnorm_wordpool.txt	LTP087	ltpFR	18	6	-1	MANSION	864	n/a	-1	1	1.0	1.0	upper	../fonts/Verdana.ttf
788850	WORD	wordpools/wasnorm_wordpool.txt	LTP087	ltpFR	18	6	-1	GYMNAST	675	n/a	-1	1	1.0	1.0	upper	../fonts/Verdana.ttf
792718	WORD	wordpools/wasnorm_wordpool.txt	LTP087	ltpFR	18	6	-1	NEWSSTAND	949	n/a	-1	1	1.0	1.0	upper	../fonts/Verdana.ttf
796709	WORD	wordpools/wasnorm_wordpool.txt	LTP087	ltpFR	18	6	-1	PORCUPINE	1107	n/a	-1	1	1.0	1.0	upper	../fonts/Verdana.ttf
800517	WORD	wordpools/wasnorm_wordpool.txt	LTP087	ltpFR	18	6	-1	SEAL	1262	n/a	-1	1	1.0	1.0	upper	../fonts/Verdana.ttf
804509	WORD	wordpools/wasnorm_wordpool.txt	LTP087	ltpFR	18	6	-1	FREEZER	604	n/a	-1	1	1.0	1.0	upper	../fonts/Verdana.ttf
808400	WORD	wordpools/wasnorm_wordpool.txt	LTP087	ltpFR	18	6	-1	RIBBON	1189	n/a	-1	1	1.0	1.0	upper	../fonts/Verdana.ttf
812575	WORD	wordpools/wasnorm_wordpool.txt	LTP087	ltpFR	18	6	-1	CUSTOMER	430	n/a	-1	1	1.0	1.0	upper	../fonts/Verdana.ttf
816508	WORD	wordpools/wasnorm_wordpool.txt	LTP087	ltpFR	18	6	-1	BANK	83	n/a	-1	1	1.0	1.0	upper	../fonts/Verdana.ttf
820649	WORD	wordpools/wasnorm_wordpool.txt	LTP087	ltpFR	18	6	-1	TIE	1466	n/a	-1	1	1.0	1.0	upper	../fonts/Verdana.ttf
824599	WORD	wordpools/wasnorm_wordpool.txt	LTP087	ltpFR	18	6	-1	FROST	609	n/a	-1	1	1.0	1.0	upper	../fonts/Verdana.ttf
830174	REC_START	n/a	LTP087	ltpFR	18	6	n/a	n/a	n/a	n/a	n/a	n/a	n/a	n/a	n/a	n/a
832349	REC_WORD	wordpools/wasnorm_wordpool.txt	LTP087	ltpFR	18	6	-1	FROST	609	n/a	-1	n/a	n/a	n/a	n/a	n/a
838260	REC_WORD	wordpools/wasnorm_wordpool.txt	LTP087	ltpFR	18	6	-1	HOUSE	725	n/a	-1	n/a	n/a	n/a	n/a	n/a
839323	REC_WORD	wordpools/wasnorm_wordpool.txt	LTP087	ltpFR	18	6	-1	MANSION	864	n/a	-1	n/a	n/a	n/a	n/a	n/a
840323	REC_WORD_VV	wordpools/wasnorm_wordpool.txt	LTP087	ltpFR	18	6	n/a	<>	-1	n/a	n/a	n/a	n/a	n/a	n/a	n/a
842167	REC_WORD	wordpools/wasnorm_wordpool.txt	LTP087	ltpFR	18	6	n/a	JAW	751	n/a	n/a	n/a	n/a	n/a	n/a	n/a
843918	REC_WORD	wordpools/wasnorm_wordpool.txt	LTP087	ltpFR	18	6	-1	ROBE	1198	n/a	-1	n/a	n/a	n/a	n/a	n/a
848772	REC_WORD	wordpools/wasnorm_wordpool.txt	LTP087	ltpFR	18	6	0	CHIEF	298	n/a	1	n/a	n/a	n/a	n/a	n/a
850488	REC_WORD	wordpools/wasnorm_wordpool.txt	LTP087	ltpFR	18	6	0	COMMANDER	354	n/a	1	n/a	n/a	n/a	n/a	n/a
896942	REC_WORD	wordpools/wasnorm_wordpool.txt	LTP087	ltpFR	18	6	1	RING	1193	n/a	0	n/a	n/a	n/a	n/a	n/a
903757	REC_WORD	wordpools/wasnorm_wordpool.txt	LTP087	ltpFR	18	6	0	DIAMOND	458	n/a	0	n/a	n/a	n/a	n/a	n/a
904415	REC_WORD_VV	wordpools/wasnorm_wordpool.txt	LTP087	ltpFR	18	6	n/a	<>	-1	n/a	n/a	n/a	n/a	n/a	n/a	n/a
907776	WORD	wordpools/wasnorm_wordpool.txt	LTP087	ltpFR	18	7	0	OATMEAL	967	n/a	0	0	0.5869140625	0.422607421875	lower	../fonts/zerothre.ttf
911975	WORD	wordpools/wasnorm_wordpool.txt	LTP087	ltpFR	18	7	0	SUPPER	1411	n/a	0	0	0.5869140625	0.422607421875	lower	../fonts/zerothre.ttf
916058	WORD	wordpools/wasnorm_wordpool.txt	LTP087	ltpFR	18	7	0	MAILBOX	857	n/a	0	0	0.5869140625	0.422607421875	lower	../fonts/zerothre.ttf
919916	WORD	wordpools/wasnorm_wordpool.txt	LTP087	ltpFR	18	7	0	COFFIN	342	n/a	1	0	0.5869140625	0.422607421875	lower	../fonts/zerothre.ttf
924116	WORD	wordpools/wasnorm_wordpool.txt	LTP087	ltpFR	18	7	0	KNAPSACK	783	n/a	0	0	0.5869140625	0.422607421875	lower	../fonts/zerothre.ttf
928166	WORD	wordpools/wasnorm_wordpool.txt	LTP087	ltpFR	18	7	0	POISON	1096	n/a	0	0	0.5869140625	0.422607421875	lower	../fonts/zerothre.ttf
932216	WORD	wordpools/wasnorm_wordpool.txt	LTP087	ltpFR	18	7	0	DOOR	486	n/a	1	0	0.5869140625	0.422607421875	lower	../fonts/zerothre.ttf
936382	WORD	wordpools/wasnorm_wordpool.txt	LTP087	ltpFR	18	7	0	SIDEWALK	1303	n/a	0	0	0.5869140625	0.422607421875	lower	../fonts/zerothre.ttf
940382	WORD	wordpools/wasnorm_wordpool.txt	LTP087	ltpFR	18	7	0	BOULEVARD	156	n/a	0	0	0.5869140625	0.422607421875	lower	../fonts/zerothre.ttf
944315	WORD	wordpools/wasnorm_wordpool.txt	LTP087	ltpFR	18	7	0	VIOLA	1570	n/a	0	0	0.5869140625	0.422607421875	lower	../fonts/zerothre.ttf
948206	WORD	wordpools/wasnorm_wordpool.txt	LTP087	ltpFR	18	7	0	TOMB	1477	n/a	0	0	0.5869140625	0.422607421875	lower	../fonts/zerothre.ttf
952097	WORD	wordpools/wasnorm_wordpool.txt	LTP087	ltpFR	18	7	0	COW	393	n/a	1	0	0.5869140625	0.422607421875	lower	../fonts/zerothre.ttf
955930	WORD	wordpools/wasnorm_wordpool.txt	LTP087	ltpFR	18	7	0	DOUGHNUT	490	n/a	0	0	0.5869140625	0.422607421875	lower	../fonts/zerothre.ttf
959797	WORD	wordpools/wasnorm_wordpool.txt	LTP087	ltpFR	18	7	0	FARMER	553	n/a	1	0	0.5869140625	0.422607421875	lower	../fonts/zerothre.ttf
963971	WORD	wordpools/wasnorm_wordpool.txt	LTP087	ltpFR	18	7	0	SCRIBBLE	1256	n/a	0	0	0.5869140625	0.422607421875	lower	../fonts/zerothre.ttf
968163	WORD	wordpools/wasnorm_wordpool.txt	LTP087	ltpFR	18	7	0	ORCHESTRA	981	n/a	1	0	0.5869140625	0.422607421875	lower	../fonts/zerothre.ttf
974113	REC_START	n/a	LTP087	ltpFR	18	7	n/a	n/a	n/a	n/a	n/a	n/a	n/a	n/a	n/a	n/a
974846	REC_WORD	wordpools/wasnorm_wordpool.txt	LTP087	ltpFR	18	7	0	ORCHESTRA	981	n/a	1	n/a	n/a	n/a	n/a	n/a
975771	REC_WORD	wordpools/wasnorm_wordpool.txt	LTP087	ltpFR	18	7	0	SCRIBBLE	1256	n/a	0	n/a	n/a	n/a	n/a	n/a
978652	REC_WORD	wordpools/wasnorm_wordpool.txt	LTP087	ltpFR	18	7	0	SIDEWALK	1303	n/a	0	n/a	n/a	n/a	n/a	n/a
982234	REC_WORD	wordpools/wasnorm_wordpool.txt	LTP087	ltpFR	18	7	n/a	TOMBSTONE	1478	n/a	n/a	n/a	n/a	n/a	n/a	n/a
998482	REC_WORD	wordpools/wasnorm_wordpool.txt	LTP087	ltpFR	18	7	n/a	SMOKING	-1	n/a	n/a	n/a	n/a	n/a	n/a	n/a
1018362	REC_WORD	wordpools/wasnorm_wordpool.txt	LTP087	ltpFR	18	7	0	DOUGHNUT	490	n/a	0	n/a	n/a	n/a	n/a	n/a
1023920	REC_WORD	wordpools/wasnorm_wordpool.txt	LTP087	ltpFR	18	7	n/a	CHEF	290	n/a	n/a	n/a	n/a	n/a	n/a	n/a
1028794	REC_WORD	wordpools/wasnorm_wordpool.txt	LTP087	ltpFR	18	7	0	COFFIN	342	n/a	1	n/a	n/a	n/a	n/a	n/a
1034720	REC_WORD	wordpools/wasnorm_wordpool.txt	LTP087	ltpFR	18	7	n/a	NAP	-1	n/a	n/a	n/a	n/a	n/a	n/a	n/a
1051698	WORD	wordpools/wasnorm_wordpool.txt	LTP087	ltpFR	18	8	0	PIRATE	1074	n/a	0	0	0.5869140625	0.422607421875	lower	../fonts/zerothre.ttf
1055855	WORD	wordpools/wasnorm_wordpool.txt	LTP087	ltpFR	18	8	0	CHESS	294	n/a	0	0	0.5869140625	0.422607421875	lower	../fonts/zerothre.ttf
1059698	WORD	wordpools/wasnorm_wordpool.txt	LTP087	ltpFR	18	8	0	NIGHTGOWN	953	n/a	1	0	0.5869140625	0.422607421875	lower	../fonts/zerothre.ttf
1063855	WORD	wordpools/wasnorm_wordpool.txt	LTP087	ltpFR	18	8	0	NAVIGATOR	938	n/a	1	0	0.5869140625	0.422607421875	lower	../fonts/zerothre.ttf
1067863	WORD	wordpools/wasnorm_wordpool.txt	LTP087	ltpFR	18	8	0	HAM	678	n/a	0	0	0.5869140625	0.422607421875	lower	../fonts/zerothre.ttf
1071814	WORD	wordpools/wasnorm_wordpool.txt	LTP087	ltpFR	18	8	0	BOAT	144	n/a	1	0	0.5869140625	0.422607421875	lower	../fonts/zerothre.ttf
1075663	WORD	wordpools/wasnorm_wordpool.txt	LTP087	ltpFR	18	8	0	BLOCKADE	137	n/a	0	0	0.5869140625	0.422607421875	lower	../fonts/zerothre.ttf
1079655	WORD	wordpools/wasnorm_wordpool.txt	LTP087	ltpFR	18	8	0	SISTER	1312	n/a	1	0	0.5869140625	0.422607421875	lower	../fonts/zerothre.ttf
1083754	WORD	wordpools/wasnorm_wordpool.txt	LTP087	ltpFR	18	8	0	BROTHER	179	n/a	1	0	0.5869140625	0.422607421875	lower	../fonts/zerothre.ttf
1087812	WORD	wordpools/wasnorm_wordpool.txt	LTP087	ltpFR	18	8	0	LIGHTNING	820	n/a	0	0	0.5869140625	0.422607421875	lower	../fonts/zerothre.ttf
1091878	WORD	wordpools/wasnorm_wordpool.txt	LTP087	ltpFR	18	8	0	BOLT	146	n/a	0	0	0.5869140625	0.422607421875	lower	../fonts/zerothre.ttf
1095961	WORD	wordpools/wasnorm_wordpool.txt	LTP087	ltpFR	18	8	0	VESSEL	1558	n/a	1	0	0.5869140625	0.422607421875	lower	../fonts/zerothre.ttf
1100060	WORD	wordpools/wasnorm_wordpool.txt	LTP087	ltpFR	18	8	0	BRICK	172	n/a	0	0	0.5869140625	0.422607421875	lower	../fonts/zerothre.ttf
1104236	WORD	wordpools/wasnorm_wordpool.txt	LTP087	ltpFR	18	8	0	WHISTLE	1606	n/a	0	0	0.5869140625	0.422607421875	lower	../fonts/zerothre.ttf
1108444	WORD	wordpools/wasnorm_wordpool.txt	LTP087	ltpFR	18	8	0	SKIN	1318	n/a	0	0	0.5869140625	0.422607421875	lower	../fonts/zerothre.ttf
1112502	WORD	wordpools/wasnorm_wordpool.txt	LTP087	ltpFR	18	8	0	PERSON	1052	n/a	1	0	0.5869140625	0.422607421875	lower	../fonts/zerothre.ttf
1118186	REC_START	n/a	LTP087	ltpFR	18	8	n/a	n/a	n/a	n/a	n/a	n/a	n/a	n/a	n/a	n/a
1118884	REC_WORD	wordpools/wasnorm_wordpool.txt	LTP087	ltpFR	18	8	0	PERSON	1052	n/a	1	n/a	n/a	n/a	n/a	n/a
1119817	REC_WORD	wordpools/wasnorm_wordpool.txt	LTP087	ltpFR	18	8	0	SKIN	1318	n/a	0	n/a	n/a	n/a	n/a	n/a
1128961	REC_WORD	wordpools/wasnorm_wordpool.txt	LTP087	ltpFR	18	8	n/a	SHIP	1286	n/a	n/a	n/a	n/a	n/a	n/a	n/a
1153620	REC_WORD	wordpools/wasnorm_wordpool.txt	LTP087	ltpFR	18	8	1	DASHBOARD	441	n/a	0	n/a	n/a	n/a	n/a	n/a
1156663	REC_WORD	wordpools/wasnorm_wordpool.txt	LTP087	ltpFR	18	8	0	LOVER	846	n/a	1	n/a	n/a	n/a	n/a	n/a
1195663	WORD	wordpools/wasnorm_wordpool.txt	LTP087	ltpFR	18	9	1	TYPEWRITER	1531	n/a	1	1	0.412841796875	0.57763671875	upper	../fonts/amplitud.ttf
1199771	WORD	wordpools/wasnorm_wordpool.txt	LTP087	ltpFR	18	9	1	BEET	115	n/a	0	1	0.412841796875	0.57763671875	upper	../fonts/amplitud.ttf
1203936	WORD	wordpools/wasnorm_wordpool.txt	LTP087	ltpFR	18	9	1	SANDWICH	1232	n/a	0	1	0.412841796875	0.57763671875	upper	../fonts/amplitud.ttf
1207844	WORD	wordpools/wasnorm_wordpool.txt	LTP087	ltpFR	18	9	1	PIN	1072	n/a	0	1	0.412841796875	0.57763671875	upper	../fonts/amplitud.ttf
1211711	WORD	wordpools/wasnorm_wordpool.txt	LTP087	ltpFR	18	9	1	PEACH	1031	n/a	0	1	0.412841796875	0.57763671875	upper	../fonts/amplitud.ttf
1215669	WORD	wordpools/wasnorm_wordpool.txt	LTP087	ltpFR	18	9	1	DRILL	497	n/a	0	1	0.412841796875	0.57763671875	upper	../fonts/amplitud.ttf
1219519	WORD	wordpools/wasnorm_wordpool.txt	LTP087	ltpFR	18	9	1	IGLOO	734	n/a	1	1	0.412841796875	0.57763671875	upper	../fonts/amplitud.ttf
1223569	WORD	wordpools/wasnorm_wordpool.txt	LTP087	ltpFR	18	9	1	SHELTER	1282	n/a	0	1	0.412841796875	0.57763671875	upper	../fonts/amplitud.ttf
1227435	WORD	wordpools/wasnorm_wordpool.txt	LTP087	ltpFR	18	9	1	CAT	257	n/a	1	1	0.412841796875	0.57763671875	upper	../fonts/amplitud.ttf
1231602	WORD	wordpools/wasnorm_wordpool.txt	LTP087	ltpFR	18	9	1	HOUND	724	n/a	0	1	0.412841796875	0.57763671875	upper	../fonts/amplitud.ttf
1235418	WORD	wordpools/wasnorm_wordpool.txt	LTP087	ltpFR	18	9	1	BIRD	129	n/a	1	1	0.412841796875	0.57763671875	upper	../fonts/amplitud.ttf
1239568	WORD	wordpools/wasnorm_wordpool.txt	LTP087	ltpFR	18	9	1	FOLDER	588	n/a	0	1	0.412841796875	0.57763671875	upper	../fonts/amplitud.ttf
1243592	WORD	wordpools/wasnorm_wordpool.txt	LTP087	ltpFR	18	9	1	OLIVE	975	n/a	0	1	0.412841796875	0.57763671875	upper	../fonts/amplitud.ttf
1247659	WORD	wordpools/wasnorm_wordpool.txt	LTP087	ltpFR	18	9	1	BROCCOLI	176	n/a	0	1	0.412841796875	0.57763671875	upper	../fonts/amplitud.ttf
1251783	WORD	wordpools/wasnorm_wordpool.txt	LTP087	ltpFR	18	9	1	SUSPECT	1415	n/a	1	1	0.412841796875	0.57763671875	upper	../fonts/amplitud.ttf
1255865	WORD	wordpools/wasnorm_wordpool.txt	LTP087	ltpFR	18	9	1	PRISONER	1128	n/a	1	1	0.412841796875	0.57763671875	upper	../fonts/amplitud.ttf
1261758	REC_START	n/a	LTP087	ltpFR	18	9	n/a	n/a	n/a	n/a	n/a	n/a	n/a	n/a	n/a	n/a
1263352	REC_WORD	wordpools/wasnorm_wordpool.txt	LTP087	ltpFR	18	9	1	PRISONER	1128	n/a	1	n/a	n/a	n/a	n/a	n/a
1265873	REC_WORD	wordpools/wasnorm_wordpool.txt	LTP087	ltpFR	18	9	1	TYPEWRITER	1531	n/a	1	n/a	n/a	n/a	n/a	n/a
1267654	REC_WORD	wordpools/wasnorm_wordpool.txt	LTP087	ltpFR	18	9	1	BEET	115	n/a	0	n/a	n/a	n/a	n/a	n/a
1275452	REC_WORD	wordpools/wasnorm_wordpool.txt	LTP087	ltpFR	18	9	1	CAT	257	n/a	1	n/a	n/a	n/a	n/a	n/a
1277143	REC_WORD	wordpools/wasnorm_wordpool.txt	LTP087	ltpFR	18	9	1	BIRD	129	n/a	1	n/a	n/a	n/a	n/a	n/a
1279577	REC_WORD	wordpools/wasnorm_wordpool.txt	LTP087	ltpFR	18	9	1	HOUND	724	n/a	0	n/a	n/a	n/a	n/a	n/a
1284481	REC_WORD_VV	wordpools/wasnorm_wordpool.txt	LTP087	ltpFR	18	9	n/a	<>	-1	n/a	n/a	n/a	n/a	n/a	n/a	n/a
1311759	REC_WORD	wordpools/wasnorm_wordpool.txt	LTP087	ltpFR	18	9	1	OREGANO	983	n/a	0	n/a	n/a	n/a	n/a	n/a
1340076	WORD	wordpools/wasnorm_wordpool.txt	LTP087	ltpFR	18	10	-1	PIER	1063	n/a	-1	1	1.0	1.0	upper	../fonts/Verdana.ttf
1343917	WORD	wordpools/wasnorm_wordpool.txt	LTP087	ltpFR	18	10	-1	LAKE	796	n/a	-1	1	1.0	1.0	upper	../fonts/Verdana.ttf
1347768	WORD	wordpools/wasnorm_wordpool.txt	LTP087	ltpFR	18	10	-1	PUMP	1141	n/a	-1	1	1.0	1.0	upper	../fonts/Verdana.ttf
1351858	WORD	wordpools/wasnorm_wordpool.txt	LTP087	ltpFR	18	10	-1	SHRINE	1298	n/a	-1	1	1.0	1.0	upper	../fonts/Verdana.ttf
1355908	WORD	wordpools/wasnorm_wordpool.txt	LTP087	ltpFR	18	10	-1	POPE	1105	n/a	-1	1	1.0	1.0	upper	../fonts/Verdana.ttf
1359982	WORD	wordpools/wasnorm_wordpool.txt	LTP087	ltpFR	18	10	-1	PERFUME	1049	n/a	-1	1	1.0	1.0	upper	../fonts/Verdana.ttf
1363890	WORD	wordpools/wasnorm_wordpool.txt	LTP087	ltpFR	18	10	-1	CANVAS	234	n/a	-1	1	1.0	1.0	upper	../fonts/Verdana.ttf
1368082	WORD	wordpools/wasnorm_wordpool.txt	LTP087	ltpFR	18	10	-1	STEAM	1375	n/a	-1	1	1.0	1.0	upper	../fonts/Verdana.ttf
1372216	WORD	wordpools/wasnorm_wordpool.txt	LTP087	ltpFR	18	10	-1	WATER	1594	n/a	-1	1	1.0	1.0	upper	../fonts/Verdana.ttf
1376357	WORD	wordpools/wasnorm_wordpool.txt	LTP087	ltpFR	18	10	-1	BOOK	149	n/a	-1	1	1.0	1.0	upper	../fonts/Verdana.ttf
1380499	WORD	wordpools/wasnorm_wordpool.txt	LTP087	ltpFR	18	10	-1	ARTIST	43	n/a	-1	1	1.0	1.0	upper	../fonts/Verdana.ttf
1384657	WORD	wordpools/wasnorm_wordpool.txt	LTP087	ltpFR	18	10	-1	SPIT	1354	n/a	-1	1	1.0	1.0	upper	../fonts/Verdana.ttf
1388631	WORD	wordpools/wasnorm_wordpool.txt	LTP087	ltpFR	18	10	-1	FISH	571	n/a	-1	1	1.0	1.0	upper	../fonts/Verdana.ttf
1392598	WORD	wordpools/wasnorm_wordpool.txt	LTP087	ltpFR	18	10	-1	SHORTCAKE	1292	n/a	-1	1	1.0	1.0	upper	../fonts/Verdana.ttf
1396681	WORD	wordpools/wasnorm_wordpool.txt	LTP087	ltpFR	18	10	-1	JAM	748	n/a	-1	1	1.0	1.0	upper	../fonts/Verdana.ttf
1400655	WORD	wordpools/wasnorm_wordpool.txt	LTP087	ltpFR	18	10	-1	INCENSE	735	n/a	-1	1	1.0	1.0	upper	../fonts/Verdana.ttf
1406522	REC_START	n/a	LTP087	ltpFR	18	10	n/a	n/a	n/a	n/a	n/a	n/a	n/a	n/a	n/a	n/a
1407574	REC_WORD	wordpools/wasnorm_wordpool.txt	LTP087	ltpFR	18	10	-1	INCENSE	735	n/a	-1	n/a	n/a	n/a	n/a	n/a
1408574	REC_WORD_VV	wordpools/wasnorm_wordpool.txt	LTP087	ltpFR	18	10	n/a	<>	-1	n/a	n/a	n/a	n/a	n/a	n/a	n/a
1409565	REC_WORD	wordpools/wasnorm_wordpool.txt	LTP087	ltpFR	18	10	-1	PIER	1063	n/a	-1	n/a	n/a	n/a	n/a	n/a
1417696	REC_WORD	wordpools/wasnorm_wordpool.txt	LTP087	ltpFR	18	10	0	DOUGHNUT	490	n/a	0	n/a	n/a	n/a	n/a	n/a
1441163	REC_WORD	wordpools/wasnorm_wordpool.txt	LTP087	ltpFR	18	10	1	BEET	115	n/a	0	n/a	n/a	n/a	n/a	n/a
1452537	REC_WORD	wordpools/wasnorm_wordpool.txt	LTP087	ltpFR	18	10	n/a	TOMBSTONE	1478	n/a	n/a	n/a	n/a	n/a	n/a	n/a
1457406	REC_WORD	wordpools/wasnorm_wordpool.txt	LTP087	ltpFR	18	10	0	NAVIGATOR	938	n/a	1	n/a	n/a	n/a	n/a	n/a
1484466	WORD	wordpools/wasnorm_wordpool.txt	LTP087	ltpFR	18	11	1	MOTEL	919	n/a	0	1	0.412841796875	0.57763671875	upper	../fonts/amplitud.ttf
1488399	WORD	wordpools/wasnorm_wordpool.txt	LTP087	ltpFR	18	11	1	ROOM	1206	n/a	0	1	0.412841796875	0.57763671875	upper	../fonts/amplitud.ttf
1492232	WORD	wordpools/wasnorm_wordpool.txt	LTP087	ltpFR	18	11	1	GARAGE	621	n/a	0	1	0.412841796875	0.57763671875	upper	../fonts/amplitud.ttf
1496115	WORD	wordpools/wasnorm_wordpool.txt	LTP087	ltpFR	18	11	1	TAXI	1438	n/a	0	1	0.412841796875	0.57763671875	upper	../fonts/amplitud.ttf
1500273	WORD	wordpools/wasnorm_wordpool.txt	LTP087	ltpFR	18	11	1	VINE	1568	n/a	0	1	0.412841796875	0.57763671875	upper	../fonts/amplitud.ttf
1504473	WORD	wordpools/wasnorm_wordpool.txt	LTP087	ltpFR	18	11	1	CHIMPANZEE	302	n/a	1	1	0.412841796875	0.57763671875	upper	../fonts/amplitud.ttf
1508414	WORD	wordpools/wasnorm_wordpool.txt	LTP087	ltpFR	18	11	1	SUITCASE	1403	n/a	0	1	0.412841796875	0.57763671875	upper	../fonts/amplitud.ttf
1512305	WORD	wordpools/wasnorm_wordpool.txt	LTP087	ltpFR	18	11	1	COOK	372	n/a	0	1	0.412841796875	0.57763671875	upper	../fonts/amplitud.ttf
1516172	WORD	wordpools/wasnorm_wordpool.txt	LTP087	ltpFR	18	11	1	SUN	1406	n/a	0	1	0.412841796875	0.57763671875	upper	../fonts/amplitud.ttf
1520371	WORD	wordpools/wasnorm_wordpool.txt	LTP087	ltpFR	18	11	1	TOURIST	1488	n/a	0	1	0.412841796875	0.57763671875	upper	../fonts/amplitud.ttf
1524496	WORD	wordpools/wasnorm_wordpool.txt	LTP087	ltpFR	18	11	1	BLUEJAY	141	n/a	0	1	0.412841796875	0.57763671875	upper	../fonts/amplitud.ttf
1528429	WORD	wordpools/wasnorm_wordpool.txt	LTP087	ltpFR	18	11	1	STUDENT	1395	n/a	1	1	0.412841796875	0.57763671875	upper	../fonts/amplitud.ttf
1532379	WORD	wordpools/wasnorm_wordpool.txt	LTP087	ltpFR	18	11	1	WITNESS	1618	n/a	0	1	0.412841796875	0.57763671875	upper	../fonts/amplitud.ttf
1536395	WORD	wordpools/wasnorm_wordpool.txt	LTP087	ltpFR	18	11	1	ROCKET	1202	n/a	1	1	0.412841796875	0.57763671875	upper	../fonts/amplitud.ttf
1540595	WORD	wordpools/wasnorm_wordpool.txt	LTP087	ltpFR	18	11	1	HORIZON	717	n/a	0	1	0.412841796875	0.57763671875	upper	../fonts/amplitud.ttf
1544670	WORD	wordpools/wasnorm_wordpool.txt	LTP087	ltpFR	18	11	1	DUCK	504	n/a	1	1	0.412841796875	0.57763671875	upper	../fonts/amplitud.ttf
1550520	REC_START	n/a	LTP087	ltpFR	18	11	n/a	n/a	n/a	n/a	n/a	n/a	n/a	n/a	n/a	n/a
1551084	REC_WORD	wordpools/wasnorm_wordpool.txt	LTP087	ltpFR	18	11	1	DUCK	504	n/a	1	n/a	n/a	n/a	n/a	n/a
1552087	REC_WORD	wordpools/wasnorm_wordpool.txt	LTP087	ltpFR	18	11	1	TOURIST	1488	n/a	0	n/a	n/a	n/a	n/a	n/a
1561474	REC_WORD	wordpools/wasnorm_wordpool.txt	LTP087	ltpFR	18	11	1	HORIZON	717	n/a	0	n/a	n/a	n/a	n/a	n/a
1611531	REC_WORD	wordpools/wasnorm_wordpool.txt	LTP087	ltpFR	18	11	n/a	SPARROW	1347	n/a	n/a	n/a	n/a	n/a	n/a	n/a
1619086	REC_WORD	wordpools/wasnorm_wordpool.txt	LTP087	ltpFR	18	11	1	BLUEJAY	141	n/a	0	n/a	n/a	n/a	n/a	n/a
1628213	WORD	wordpools/wasnorm_wordpool.txt	LTP087	ltpFR	18	12	0	MECHANIC	884	n/a	0	0	0.5869140625	0.422607421875	lower	../fonts/zerothre.ttf
1632213	WORD	wordpools/wasnorm_wordpool.txt	LTP087	ltpFR	18	12	0	ACTRESS	6	n/a	1	0	0.5869140625	0.422607421875	lower	../fonts/zerothre.ttf
1636421	WORD	wordpools/wasnorm_wordpool.txt	LTP087	ltpFR	18	12	0	DIGGER	464	n/a	1	0	0.5869140625	0.422607421875	lower	../fonts/zerothre.ttf
1640512	WORD	wordpools/wasnorm_wordpool.txt	LTP087	ltpFR	18	12	1	CONSOLE	364	n/a	0	1	0.412841796875	0.57763671875	upper	../fonts/amplitud.ttf
1644412	WORD	wordpools/wasnorm_wordpool.txt	LTP087	ltpFR	18	12	1	BROOK	177	n/a	0	1	0.412841796875	0.57763671875	upper	../fonts/amplitud.ttf
1648612	WORD	wordpools/wasnorm_wordpool.txt	LTP087	ltpFR	18	12	0	ERASER	538	n/a	0	0	0.5869140625	0.422607421875	lower	../fonts/zerothre.ttf
1652720	WORD	wordpools/wasnorm_wordpool.txt	LTP087	ltpFR	18	12	0	MOSS	918	n/a	0	0	0.5869140625	0.422607421875	lower	../fonts/zerothre.ttf
1656852	WORD	wordpools/wasnorm_wordpool.txt	LTP087	ltpFR	18	12	0	SHOVEL	1295	n/a	0	0	0.5869140625	0.422607421875	lower	../fonts/zerothre.ttf
1660951	WORD	wordpools/wasnorm_wordpool.txt	LTP087	ltpFR	18	12	0	WRITER	1627	n/a	1	0	0.5869140625	0.422607421875	lower	../fonts/zerothre.ttf
1664926	WORD	wordpools/wasnorm_wordpool.txt	LTP087	ltpFR	18	12	0	BINDER	127	n/a	0	0	0.5869140625	0.422607421875	lower	../fonts/zerothre.ttf
1668943	WORD	wordpools/wasnorm_wordpool.txt	LTP087	ltpFR	18	12	1	SAUCER	1237	n/a	n/a	1	0.412841796875	0.57763671875	upper	../fonts/amplitud.ttf
1671967	SLOW_MSG	n/a	LTP087	ltpFR	18	12	n/a	n/a	n/a	n/a	n/a	n/a	n/a	n/a	n/a	n/a
1674476	WORD	wordpools/wasnorm_wordpool.txt	LTP087	ltpFR	18	12	1	DISH	474	n/a	0	1	0.412841796875	0.57763671875	upper	../fonts/amplitud.ttf
1678326	WORD	wordpools/wasnorm_wordpool.txt	LTP087	ltpFR	18	12	1	PAIL	1002	n/a	0	1	0.412841796875	0.57763671875	upper	../fonts/amplitud.ttf
1682468	WORD	wordpools/wasnorm_wordpool.txt	LTP087	ltpFR	18	12	1	CIRCUS	311	n/a	1	1	0.412841796875	0.57763671875	upper	../fonts/amplitud.ttf
1686542	WORD	wordpools/wasnorm_wordpool.txt	LTP087	ltpFR	18	12	1	BOWL	158	n/a	0	1	0.412841796875	0.57763671875	upper	../fonts/amplitud.ttf
1690459	WORD	wordpools/wasnorm_wordpool.txt	LTP087	ltpFR	18	12	1	FORK	594	n/a	0	1	0.412841796875	0.57763671875	upper	../fonts/amplitud.ttf
1696242	REC_START	n/a	LTP087	ltpFR	18	12	n/a	n/a	n/a	n/a	n/a	n/a	n/a	n/a	n/a	n/a
1697352	REC_WORD	wordpools/wasnorm_wordpool.txt	LTP087	ltpFR	18	12	1	FORK	594	n/a	0	n/a	n/a	n/a	n/a	n/a
1712879	REC_WORD	wordpools/wasnorm_wordpool.txt	LTP087	ltpFR	18	12	1	PAIL	1002	n/a	0	n/a	n/a	n/a	n/a	n/a
1725101	REC_WORD_VV	wordpools/wasnorm_wordpool.txt	LTP087	ltpFR	18	12	n/a	<>	-1	n/a	n/a	n/a	n/a	n/a	n/a	n/a
1741125	REC_WORD	wordpools/wasnorm_wordpool.txt	LTP087	ltpFR	18	12	1	HORIZON	717	n/a	0	n/a	n/a	n/a	n/a	n/a
1749581	REC_WORD	wordpools/wasnorm_wordpool.txt	LTP087	ltpFR	18	12	1	BLUEJAY	141	n/a	0	n/a	n/a	n/a	n/a	n/a
1771826	REST_REWET	n/a	LTP087	ltpFR	18	12	n/a	n/a	n/a	n/a	n/a	n/a	n/a	n/a	n/a	n/a
2472225	WORD	wordpools/wasnorm_wordpool.txt	LTP087	ltpFR	18	13	-1	JOURNAL	760	n/a	-1	1	1.0	1.0	upper	../fonts/Verdana.ttf
2476308	WORD	wordpools/wasnorm_wordpool.txt	LTP087	ltpFR	18	13	-1	ALMANAC	17	n/a	-1	1	1.0	1.0	upper	../fonts/Verdana.ttf
2480174	WORD	wordpools/wasnorm_wordpool.txt	LTP087	ltpFR	18	13	-1	TART	1436	n/a	-1	1	1.0	1.0	upper	../fonts/Verdana.ttf
2484014	WORD	wordpools/wasnorm_wordpool.txt	LTP087	ltpFR	18	13	-1	BEAR	106	n/a	-1	1	1.0	1.0	upper	../fonts/Verdana.ttf
2488089	WORD	wordpools/wasnorm_wordpool.txt	LTP087	ltpFR	18	13	-1	GRIZZLY	662	n/a	-1	1	1.0	1.0	upper	../fonts/Verdana.ttf
2492055	WORD	wordpools/wasnorm_wordpool.txt	LTP087	ltpFR	18	13	-1	DISHWASHER	475	n/a	-1	1	1.0	1.0	upper	../fonts/Verdana.ttf
2496190	WORD	wordpools/wasnorm_wordpool.txt	LTP087	ltpFR	18	13	-1	SALMON	1227	n/a	-1	1	1.0	1.0	upper	../fonts/Verdana.ttf
2500281	WORD	wordpools/wasnorm_wordpool.txt	LTP087	ltpFR	18	13	-1	RAZOR	1171	n/a	-1	1	1.0	1.0	upper	../fonts/Verdana.ttf
2504264	WORD	wordpools/wasnorm_wordpool.txt	LTP087	ltpFR	18	13	-1	CANYON	235	n/a	-1	1	1.0	1.0	upper	../fonts/Verdana.ttf
2508222	WORD	wordpools/wasnorm_wordpool.txt	LTP087	ltpFR	18	13	-1	METEOR	889	n/a	-1	1	1.0	1.0	upper	../fonts/Verdana.ttf
2512180	WORD	wordpools/wasnorm_wordpool.txt	LTP087	ltpFR	18	13	-1	SUGAR	1401	n/a	-1	1	1.0	1.0	upper	../fonts/Verdana.ttf
2516070	WORD	wordpools/wasnorm_wordpool.txt	LTP087	ltpFR	18	13	-1	SLIME	1327	n/a	-1	1	1.0	1.0	upper	../fonts/Verdana.ttf
2520095	WORD	wordpools/wasnorm_wordpool.txt	LTP087	ltpFR	18	13	-1	MOWER	928	n/a	-1	1	1.0	1.0	upper	../fonts/Verdana.ttf
2523970	WORD	wordpools/wasnorm_wordpool.txt	LTP087	ltpFR	18	13	-1	PUMPKIN	1142	n/a	-1	1	1.0	1.0	upper	../fonts/Verdana.ttf
2528078	WORD	wordpools/wasnorm_wordpool.txt	LTP087	ltpFR	18	13	-1	CREVICE	405	n/a	-1	1	1.0	1.0	upper	../fonts/Verdana.ttf
2532195	WORD	wordpools/wasnorm_wordpool.txt	LTP087	ltpFR	18	13	-1	NET	946	n/a	-1	1	1.0	1.0	upper	../fonts/Verdana.ttf
2537845	REC_START	n/a	LTP087	ltpFR	18	13	n/a	n/a	n/a	n/a	n/a	n/a	n/a	n/a	n/a	n/a
2538591	REC_WORD	wordpools/wasnorm_wordpool.txt	LTP087	ltpFR	18	13	-1	CANYON	235	n/a	-1	n/a	n/a	n/a	n/a	n/a
2540008	REC_WORD	wordpools/wasnorm_wordpool.txt	LTP087	ltpFR	18	13	-1	METEOR	889	n/a	-1	n/a	n/a	n/a	n/a	n/a
2542652	REC_WORD	wordpools/wasnorm_wordpool.txt	LTP087	ltpFR	18	13	-1	SLIME	1327	n/a	-1	n/a	n/a	n/a	n/a	n/a
2571001	REC_WORD	wordpools/wasnorm_wordpool.txt	LTP087	ltpFR	18	13	n/a	SCALE	1241	n/a	n/a	n/a	n/a	n/a	n/a	n/a
2575242	REC_WORD	wordpools/wasnorm_wordpool.txt	LTP087	ltpFR	18	13	-1	MOWER	928	n/a	-1	n/a	n/a	n/a	n/a	n/a
2593196	REC_WORD	wordpools/wasnorm_wordpool.txt	LTP087	ltpFR	18	13	1	CAULIFLOWER	262	n/a	0	n/a	n/a	n/a	n/a	n/a
2615539	WORD	wordpools/wasnorm_wordpool.txt	LTP087	ltpFR	18	14	-1	LOCK	838	n/a	-1	1	1.0	1.0	upper	../fonts/Verdana.ttf
2619697	WORD	wordpools/wasnorm_wordpool.txt	LTP087	ltpFR	18	14	-1	MOP	916	n/a	-1	1	1.0	1.0	upper	../fonts/Verdana.ttf
2623829	WORD	wordpools/wasnorm_wordpool.txt	LTP087	ltpFR	18	14	-1	BANKER	84	n/a	-1	1	1.0	1.0	upper	../fonts/Verdana.ttf
2627904	WORD	wordpools/wasnorm_wordpool.txt	LTP087	ltpFR	18	14	-1	PENNY	1045	n/a	-1	1	1.0	1.0	upper	../fonts/Verdana.ttf
2631895	WORD	wordpools/wasnorm_wordpool.txt	LTP087	ltpFR	18	14	-1	COWBOY	395	n/a	-1	1	1.0	1.0	upper	../fonts/Verdana.ttf
2635729	WORD	wordpools/wasnorm_wordpool.txt	LTP087	ltpFR	18	14	-1	VITAMIN	1574	n/a	-1	1	1.0	1.0	upper	../fonts/Verdana.ttf
2639570	WORD	wordpools/wasnorm_wordpool.txt	LTP087	ltpFR	18	14	-1	SIRLOIN	1311	n/a	-1	1	1.0	1.0	upper	../fonts/Verdana.ttf
2643420	WORD	wordpools/wasnorm_wordpool.txt	LTP087	ltpFR	18	14	-1	TOE	1473	n/a	-1	1	1.0	1.0	upper	../fonts/Verdana.ttf
2647628	WORD	wordpools/wasnorm_wordpool.txt	LTP087	ltpFR	18	14	-1	TOOL	1480	n/a	-1	1	1.0	1.0	upper	../fonts/Verdana.ttf
2651669	WORD	wordpools/wasnorm_wordpool.txt	LTP087	ltpFR	18	14	-1	CAR	241	n/a	-1	1	1.0	1.0	upper	../fonts/Verdana.ttf
2655627	WORD	wordpools/wasnorm_wordpool.txt	LTP087	ltpFR	18	14	-1	CARPET	247	n/a	-1	1	1.0	1.0	upper	../fonts/Verdana.ttf
2659727	WORD	wordpools/wasnorm_wordpool.txt	LTP087	ltpFR	18	14	-1	HINGE	709	n/a	-1	1	1.0	1.0	upper	../fonts/Verdana.ttf
2663677	WORD	wordpools/wasnorm_wordpool.txt	LTP087	ltpFR	18	14	-1	NITROGEN	954	n/a	-1	1	1.0	1.0	upper	../fonts/Verdana.ttf
2667535	WORD	wordpools/wasnorm_wordpool.txt	LTP087	ltpFR	18	14	-1	BURGLAR	200	n/a	-1	1	1.0	1.0	upper	../fonts/Verdana.ttf
2671510	WORD	wordpools/wasnorm_wordpool.txt	LTP087	ltpFR	18	14	-1	ZIPPER	1636	n/a	-1	1	1.0	1.0	upper	../fonts/Verdana.ttf
2675659	WORD	wordpools/wasnorm_wordpool.txt	LTP087	ltpFR	18	14	-1	BUTTON	207	n/a	-1	1	1.0	1.0	upper	../fonts/Verdana.ttf
2681418	REC_START	n/a	LTP087	ltpFR	18	14	n/a	n/a	n/a	n/a	n/a	n/a	n/a	n/a	n/a	n/a
2682061	REC_WORD	wordpools/wasnorm_wordpool.txt	LTP087	ltpFR	18	14	-1	SIRLOIN	1311	n/a	-1	n/a	n/a	n/a	n/a	n/a
2683457	REC_WORD	wordpools/wasnorm_wordpool.txt	LTP087	ltpFR	18	14	-1	ZIPPER	1636	n/a	-1	n/a	n/a	n/a	n/a	n/a
2694368	REC_WORD	wordpools/wasnorm_wordpool.txt	LTP087	ltpFR	18	14	n/a	BAG	69	n/a	n/a	n/a	n/a	n/a	n/a	n/a
2733345	REC_WORD	wordpools/wasnorm_wordpool.txt	LTP087	ltpFR	18	14	-1	BANKER	84	n/a	-1	n/a	n/a	n/a	n/a	n/a
2753619	REC_WORD	wordpools/wasnorm_wordpool.txt	LTP087	ltpFR	18	14	-1	MOP	916	n/a	-1	n/a	n/a	n/a	n/a	n/a
2754472	REC_WORD	wordpools/wasnorm_wordpool.txt	LTP087	ltpFR	18	14	-1	LOCK	838	n/a	-1	n/a	n/a	n/a	n/a	n/a
2759077	WORD	wordpools/wasnorm_wordpool.txt	LTP087	ltpFR	18	15	0	BEDROOM	111	n/a	0	0	0.5869140625	0.422607421875	lower	../fonts/zerothre.ttf
2763186	WORD	wordpools/wasnorm_wordpool.txt	LTP087	ltpFR	18	15	0	OFFICE	972	n/a	1	0	0.5869140625	0.422607421875	lower	../fonts/zerothre.ttf
2767101	WORD	wordpools/wasnorm_wordpool.txt	LTP087	ltpFR	18	15	0	ROBOT	1200	n/a	1	0	0.5869140625	0.422607421875	lower	../fonts/zerothre.ttf
2770959	WORD	wordpools/wasnorm_wordpool.txt	LTP087	ltpFR	18	15	0	DUNGEON	507	n/a	1	0	0.5869140625	0.422607421875	lower	../fonts/zerothre.ttf
2775118	WORD	wordpools/wasnorm_wordpool.txt	LTP087	ltpFR	18	15	0	APRON	35	n/a	0	0	0.5869140625	0.422607421875	lower	../fonts/zerothre.ttf
2779318	WORD	wordpools/wasnorm_wordpool.txt	LTP087	ltpFR	18	15	0	COOKIE	374	n/a	0	0	0.5869140625	0.422607421875	lower	../fonts/zerothre.ttf
2783218	WORD	wordpools/wasnorm_wordpool.txt	LTP087	ltpFR	18	15	0	CANDY	230	n/a	0	0	0.5869140625	0.422607421875	lower	../fonts/zerothre.ttf
2787218	WORD	wordpools/wasnorm_wordpool.txt	LTP087	ltpFR	18	15	0	BAND	78	n/a	0	0	0.5869140625	0.422607421875	lower	../fonts/zerothre.ttf
2791167	WORD	wordpools/wasnorm_wordpool.txt	LTP087	ltpFR	18	15	0	KIDNEY	776	n/a	0	0	0.5869140625	0.422607421875	lower	../fonts/zerothre.ttf
2795184	WORD	wordpools/wasnorm_wordpool.txt	LTP087	ltpFR	18	15	0	STAPLE	1371	n/a	0	0	0.5869140625	0.422607421875	lower	../fonts/zerothre.ttf
2799074	WORD	wordpools/wasnorm_wordpool.txt	LTP087	ltpFR	18	15	0	DECK	443	n/a	1	0	0.5869140625	0.422607421875	lower	../fonts/zerothre.ttf
2803216	WORD	wordpools/wasnorm_wordpool.txt	LTP087	ltpFR	18	15	0	OAR	966	n/a	0	0	0.5869140625	0.422607421875	lower	../fonts/zerothre.ttf
2807308	WORD	wordpools/wasnorm_wordpool.txt	LTP087	ltpFR	18	15	0	CONVICT	371	n/a	1	0	0.5869140625	0.422607421875	lower	../fonts/zerothre.ttf
2811266	WORD	wordpools/wasnorm_wordpool.txt	LTP087	ltpFR	18	15	0	BRIEFCASE	175	n/a	0	0	0.5869140625	0.422607421875	lower	../fonts/zerothre.ttf
2815465	WORD	wordpools/wasnorm_wordpool.txt	LTP087	ltpFR	18	15	0	EXPERT	543	n/a	1	0	0.5869140625	0.422607421875	lower	../fonts/zerothre.ttf
2819598	WORD	wordpools/wasnorm_wordpool.txt	LTP087	ltpFR	18	15	0	BERRY	122	n/a	0	0	0.5869140625	0.422607421875	lower	../fonts/zerothre.ttf
2825424	REC_START	n/a	LTP087	ltpFR	18	15	n/a	n/a	n/a	n/a	n/a	n/a	n/a	n/a	n/a	n/a
2826147	REC_WORD	wordpools/wasnorm_wordpool.txt	LTP087	ltpFR	18	15	0	BERRY	122	n/a	0	n/a	n/a	n/a	n/a	n/a
2827295	REC_WORD	wordpools/wasnorm_wordpool.txt	LTP087	ltpFR	18	15	0	EXPERT	543	n/a	1	n/a	n/a	n/a	n/a	n/a
2831490	REC_WORD	wordpools/wasnorm_wordpool.txt	LTP087	ltpFR	18	15	0	DUNGEON	507	n/a	1	n/a	n/a	n/a	n/a	n/a
2833895	REC_WORD	wordpools/wasnorm_wordpool.txt	LTP087	ltpFR	18	15	0	BEDROOM	111	n/a	0	n/a	n/a	n/a	n/a	n/a
2836299	REC_WORD	wordpools/wasnorm_wordpool.txt	LTP087	ltpFR	18	15	0	OFFICE	972	n/a	1	n/a	n/a	n/a	n/a	n/a
2903049	WORD	wordpools/wasnorm_wordpool.txt	LTP087	ltpFR	18	16	1	KLEENEX	782	n/a	0	1	0.412841796875	0.57763671875	upper	../fonts/amplitud.ttf
2906924	WORD	wordpools/wasnorm_wordpool.txt	LTP087	ltpFR	18	16	1	GLACIER	638	n/a	1	1	0.412841796875	0.57763671875	upper	../fonts/amplitud.ttf
2910750	WORD	wordpools/wasnorm_wordpool.txt	LTP087	ltpFR	18	16	1	BUFFALO	186	n/a	1	1	0.412841796875	0.57763671875	upper	../fonts/amplitud.ttf
2914733	WORD	wordpools/wasnorm_wordpool.txt	LTP087	ltpFR	18	16	1	BARN	89	n/a	0	1	0.412841796875	0.57763671875	upper	../fonts/amplitud.ttf
2918599	WORD	wordpools/wasnorm_wordpool.txt	LTP087	ltpFR	18	16	1	INSECT	740	n/a	1	1	0.412841796875	0.57763671875	upper	../fonts/amplitud.ttf
2922474	WORD	wordpools/wasnorm_wordpool.txt	LTP087	ltpFR	18	16	1	TACK	1428	n/a	1	1	0.412841796875	0.57763671875	upper	../fonts/amplitud.ttf
2926682	WORD	wordpools/wasnorm_wordpool.txt	LTP087	ltpFR	18	16	0	BULLETIN	195	n/a	0	0	0.5869140625	0.422607421875	lower	../fonts/zerothre.ttf
2930507	WORD	wordpools/wasnorm_wordpool.txt	LTP087	ltpFR	18	16	0	SURVEY	1414	n/a	0	0	0.5869140625	0.422607421875	lower	../fonts/zerothre.ttf
2934640	WORD	wordpools/wasnorm_wordpool.txt	LTP087	ltpFR	18	16	0	COMET	353	n/a	0	0	0.5869140625	0.422607421875	lower	../fonts/zerothre.ttf
2938615	WORD	wordpools/wasnorm_wordpool.txt	LTP087	ltpFR	18	16	0	CALF	222	n/a	1	0	0.5869140625	0.422607421875	lower	../fonts/zerothre.ttf
2942556	WORD	wordpools/wasnorm_wordpool.txt	LTP087	ltpFR	18	16	1	HERD	705	n/a	1	1	0.412841796875	0.57763671875	upper	../fonts/amplitud.ttf
2946464	WORD	wordpools/wasnorm_wordpool.txt	LTP087	ltpFR	18	16	1	WAREHOUSE	1588	n/a	1	1	0.412841796875	0.57763671875	upper	../fonts/amplitud.ttf
2950422	WORD	wordpools/wasnorm_wordpool.txt	LTP087	ltpFR	18	16	0	PADDING	999	n/a	0	0	0.5869140625	0.422607421875	lower	../fonts/zerothre.ttf
2954538	WORD	wordpools/wasnorm_wordpool.txt	LTP087	ltpFR	18	16	0	SPIDER	1351	n/a	1	0	0.5869140625	0.422607421875	lower	../fonts/zerothre.ttf
2958430	WORD	wordpools/wasnorm_wordpool.txt	LTP087	ltpFR	18	16	0	CREAM	402	n/a	0	0	0.5869140625	0.422607421875	lower	../fonts/zerothre.ttf
2962563	WORD	wordpools/wasnorm_wordpool.txt	LTP087	ltpFR	18	16	0	TABLE	1426	n/a	0	0	0.5869140625	0.422607421875	lower	../fonts/zerothre.ttf
2968538	REC_START	n/a	LTP087	ltpFR	18	16	n/a	n/a	n/a	n/a	n/a	n/a	n/a	n/a	n/a	n/a
2969586	REC_WORD	wordpools/wasnorm_wordpool.txt	LTP087	ltpFR	18	16	0	TABLE	1426	n/a	0	n/a	n/a	n/a	n/a	n/a
2970713	REC_WORD	wordpools/wasnorm_wordpool.txt	LTP087	ltpFR	18	16	0	CREAM	402	n/a	0	n/a	n/a	n/a	n/a	n/a
2971925	REC_WORD	wordpools/wasnorm_wordpool.txt	LTP087	ltpFR	18	16	1	WAREHOUSE	1588	n/a	1	n/a	n/a	n/a	n/a	n/a
2972925	REC_WORD_VV	wordpools/wasnorm_wordpool.txt	LTP087	ltpFR	18	16	n/a	<>	-1	n/a	n/a	n/a	n/a	n/a	n/a	n/a
2974629	REC_WORD	wordpools/wasnorm_wordpool.txt	LTP087	ltpFR	18	16	1	INSECT	740	n/a	1	n/a	n/a	n/a	n/a	n/a
2978301	REC_WORD	wordpools/wasnorm_wordpool.txt	LTP087	ltpFR	18	16	1	BUFFALO	186	n/a	1	n/a	n/a	n/a	n/a	n/a
2995372	REC_WORD	wordpools/wasnorm_wordpool.txt	LTP087	ltpFR	18	16	n/a	SLIPPERS	-1	n/a	n/a	n/a	n/a	n/a	n/a	n/a
3060331	REC_START	n/a	LTP087	ltpFR	18	1	n/a	n/a	n/a	n/a	n/a	n/a	n/a	n/a	n/a	n/a
3060364	RECOG_TARGET	n/a	LTP087	ltpFR	18	1	1	FLOWER	584	2	0	n/a	n/a	n/a	n/a	n/a
3062072	RECOG_RESP	n/a	LTP087	ltpFR	18	1	1	FLOWER	584	n/a	0	n/a	n/a	n/a	n/a	n/a
3062800	RECOG_CONF	n/a	LTP087	ltpFR	18	1	1	FLOWER	584	2	0	n/a	n/a	n/a	n/a	n/a
3064263	RECOG_TARGET	n/a	LTP087	ltpFR	18	1	-1	CANYON	235	4	-1	n/a	n/a	n/a	n/a	n/a
3065005	RECOG_RESP	n/a	LTP087	ltpFR	18	1	-1	CANYON	235	n/a	-1	n/a	n/a	n/a	n/a	n/a
3065624	RECOG_CONF	n/a	LTP087	ltpFR	18	1	-1	CANYON	235	4	-1	n/a	n/a	n/a	n/a	n/a
3066979	RECOG_TARGET	n/a	LTP087	ltpFR	18	1	1	SUN	1406	3	0	n/a	n/a	n/a	n/a	n/a
3068048	RECOG_RESP	n/a	LTP087	ltpFR	18	1	1	SUN	1406	n/a	0	n/a	n/a	n/a	n/a	n/a
3068647	RECOG_CONF	n/a	LTP087	ltpFR	18	1	1	SUN	1406	3	0	n/a	n/a	n/a	n/a	n/a
3070020	RECOG_TARGET	n/a	LTP087	ltpFR	18	1	1	SAUCER	1237	3	n/a	n/a	n/a	n/a	n/a	n/a
3071081	RECOG_RESP	n/a	LTP087	ltpFR	18	1	1	SAUCER	1237	n/a	n/a	n/a	n/a	n/a	n/a	n/a
3071620	RECOG_CONF	n/a	LTP087	ltpFR	18	1	1	SAUCER	1237	3	n/a	n/a	n/a	n/a	n/a	n/a
3072920	RECOG_TARGET	n/a	LTP087	ltpFR	18	1	1	FIST	572	4	0	n/a	n/a	n/a	n/a	n/a
3073695	RECOG_RESP	n/a	LTP087	ltpFR	18	1	1	FIST	572	n/a	0	n/a	n/a	n/a	n/a	n/a
3074356	RECOG_CONF	n/a	LTP087	ltpFR	18	1	1	FIST	572	4	0	n/a	n/a	n/a	n/a	n/a
3075562	RECOG_TARGET	n/a	LTP087	ltpFR	18	1	-1	VITAMIN	1574	4	-1	n/a	n/a	n/a	n/a	n/a
3075960	RECOG_RESP	n/a	LTP087	ltpFR	18	1	-1	VITAMIN	1574	n/a	-1	n/a	n/a	n/a	n/a	n/a
3076579	RECOG_CONF	n/a	LTP087	ltpFR	18	1	-1	VITAMIN	1574	4	-1	n/a	n/a	n/a	n/a	n/a
3078053	RECOG_LURE	n/a	LTP087	ltpFR	18	1	n/a	SPACE	1345	4	n/a	n/a	n/a	n/a	n/a	n/a
3078524	RECOG_RESP	n/a	LTP087	ltpFR	18	1	n/a	SPACE	1345	n/a	n/a	n/a	n/a	n/a	n/a	n/a
3079100	RECOG_CONF	n/a	LTP087	ltpFR	18	1	n/a	SPACE	1345	4	n/a	n/a	n/a	n/a	n/a	n/a
3080220	RECOG_TARGET	n/a	LTP087	ltpFR	18	1	0	CANDY	230	4	0	n/a	n/a	n/a	n/a	n/a
3080939	RECOG_RESP	n/a	LTP087	ltpFR	18	1	0	CANDY	230	n/a	0	n/a	n/a	n/a	n/a	n/a
3081664	RECOG_CONF	n/a	LTP087	ltpFR	18	1	0	CANDY	230	4	0	n/a	n/a	n/a	n/a	n/a
3083069	RECOG_LURE	n/a	LTP087	ltpFR	18	1	n/a	SHUTTER	1300	3	n/a	n/a	n/a	n/a	n/a	n/a
3084092	RECOG_RESP	n/a	LTP087	ltpFR	18	1	n/a	SHUTTER	1300	n/a	n/a	n/a	n/a	n/a	n/a	n/a
3084753	RECOG_CONF	n/a	LTP087	ltpFR	18	1	n/a	SHUTTER	1300	3	n/a	n/a	n/a	n/a	n/a	n/a
3085902	RECOG_TARGET	n/a	LTP087	ltpFR	18	1	0	PIRATE	1074	4	0	n/a	n/a	n/a	n/a	n/a
3086556	RECOG_RESP	n/a	LTP087	ltpFR	18	1	0	PIRATE	1074	n/a	0	n/a	n/a	n/a	n/a	n/a
3087111	RECOG_CONF	n/a	LTP087	ltpFR	18	1	0	PIRATE	1074	4	0	n/a	n/a	n/a	n/a	n/a
3088420	RECOG_TARGET	n/a	LTP087	ltpFR	18	1	1	CHAMPAGNE	278	5	0	n/a	n/a	n/a	n/a	n/a
3089100	RECOG_RESP	n/a	LTP087	ltpFR	18	1	1	CHAMPAGNE	278	n/a	0	n/a	n/a	n/a	n/a	n/a
3089655	RECOG_CONF	n/a	LTP087	ltpFR	18	1	1	CHAMPAGNE	278	5	0	n/a	n/a	n/a	n/a	n/a
3090803	RECOG_TARGET	n/a	LTP087	ltpFR	18	1	0	BERRY	122	5	0	n/a	n/a	n/a	n/a	n/a
3091375	RECOG_RESP	n/a	LTP087	ltpFR	18	1	0	BERRY	122	n/a	0	n/a	n/a	n/a	n/a	n/a
3091972	RECOG_CONF	n/a	LTP087	ltpFR	18	1	0	BERRY	122	5	0	n/a	n/a	n/a	n/a	n/a
3093093	RECOG_TARGET	n/a	LTP087	ltpFR	18	1	0	STAPLE	1371	5	0	n/a	n/a	n/a	n/a	n/a
3093700	RECOG_RESP	n/a	LTP087	ltpFR	18	1	0	STAPLE	1371	n/a	0	n/a	n/a	n/a	n/a	n/a
3094233	RECOG_CONF	n/a	LTP087	ltpFR	18	1	0	STAPLE	1371	5	0	n/a	n/a	n/a	n/a	n/a
3095419	RECOG_TARGET	n/a	LTP087	ltpFR	18	1	0	BOLT	146	5	0	n/a	n/a	n/a	n/a	n/a
3096065	RECOG_RESP	n/a	LTP087	ltpFR	18	1	0	BOLT	146	n/a	0	n/a	n/a	n/a	n/a	n/a
3096615	RECOG_CONF	n/a	LTP087	ltpFR	18	1	0	BOLT	146	5	0	n/a	n/a	n/a	n/a	n/a
3097819	RECOG_LURE	n/a	LTP087	ltpFR	18	1	n/a	SWEATER	1419	3	n/a	n/a	n/a	n/a	n/a	n/a
3098599	RECOG_RESP	n/a	LTP087	ltpFR	18	1	n/a	SWEATER	1419	n/a	n/a	n/a	n/a	n/a	n/a	n/a
3099118	RECOG_CONF	n/a	LTP087	ltpFR	18	1	n/a	SWEATER	1419	3	n/a	n/a	n/a	n/a	n/a	n/a
3100411	RECOG_TARGET	n/a	LTP087	ltpFR	18	1	1	CIRCUS	311	5	1	n/a	n/a	n/a	n/a	n/a
3101043	RECOG_RESP	n/a	LTP087	ltpFR	18	1	1	CIRCUS	311	n/a	1	n/a	n/a	n/a	n/a	n/a
3102271	RECOG_CONF	n/a	LTP087	ltpFR	18	1	1	CIRCUS	311	5	1	n/a	n/a	n/a	n/a	n/a
3103610	RECOG_TARGET	n/a	LTP087	ltpFR	18	1	0	DIGGER	464	4	1	n/a	n/a	n/a	n/a	n/a
3104166	RECOG_RESP	n/a	LTP087	ltpFR	18	1	0	DIGGER	464	n/a	1	n/a	n/a	n/a	n/a	n/a
3104785	RECOG_CONF	n/a	LTP087	ltpFR	18	1	0	DIGGER	464	4	1	n/a	n/a	n/a	n/a	n/a
3106001	RECOG_TARGET	n/a	LTP087	ltpFR	18	1	1	MOTEL	919	5	0	n/a	n/a	n/a	n/a	n/a
3106700	RECOG_RESP	n/a	LTP087	ltpFR	18	1	1	MOTEL	919	n/a	0	n/a	n/a	n/a	n/a	n/a
3107819	RECOG_CONF	n/a	LTP087	ltpFR	18	1	1	MOTEL	919	5	0	n/a	n/a	n/a	n/a	n/a
3109177	RECOG_TARGET	n/a	LTP087	ltpFR	18	1	0	NIGHTGOWN	953	5	1	n/a	n/a	n/a	n/a	n/a
3109953	RECOG_RESP	n/a	LTP087	ltpFR	18	1	0	NIGHTGOWN	953	n/a	1	n/a	n/a	n/a	n/a	n/a
3110593	RECOG_CONF	n/a	LTP087	ltpFR	18	1	0	NIGHTGOWN	953	5	1	n/a	n/a	n/a	n/a	n/a
3111834	RECOG_TARGET	n/a	LTP087	ltpFR	18	1	-1	BURGLAR	200	5	-1	n/a	n/a	n/a	n/a	n/a
3112477	RECOG_RESP	n/a	LTP087	ltpFR	18	1	-1	BURGLAR	200	n/a	-1	n/a	n/a	n/a	n/a	n/a
3113074	RECOG_CONF	n/a	LTP087	ltpFR	18	1	-1	BURGLAR	200	5	-1	n/a	n/a	n/a	n/a	n/a
3115679	REC_START	n/a	LTP087	ltpFR	18	2	n/a	n/a	n/a	n/a	n/a	n/a	n/a	n/a	n/a	n/a
3115709	RECOG_TARGET	n/a	LTP087	ltpFR	18	2	0	WOUND	1624	5	0	n/a	n/a	n/a	n/a	n/a
3116302	RECOG_RESP	n/a	LTP087	ltpFR	18	2	0	WOUND	1624	n/a	0	n/a	n/a	n/a	n/a	n/a
3116985	RECOG_CONF	n/a	LTP087	ltpFR	18	2	0	WOUND	1624	5	0	n/a	n/a	n/a	n/a	n/a
3118118	RECOG_LURE	n/a	LTP087	ltpFR	18	2	n/a	SCARF	1246	3	n/a	n/a	n/a	n/a	n/a	n/a
3119006	RECOG_RESP	n/a	LTP087	ltpFR	18	2	n/a	SCARF	1246	n/a	n/a	n/a	n/a	n/a	n/a	n/a
3119555	RECOG_CONF	n/a	LTP087	ltpFR	18	2	n/a	SCARF	1246	3	n/a	n/a	n/a	n/a	n/a	n/a
3120891	RECOG_TARGET	n/a	LTP087	ltpFR	18	2	-1	PERFUME	1049	3	-1	n/a	n/a	n/a	n/a	n/a
3121680	RECOG_RESP	n/a	LTP087	ltpFR	18	2	-1	PERFUME	1049	n/a	-1	n/a	n/a	n/a	n/a	n/a
3122219	RECOG_CONF	n/a	LTP087	ltpFR	18	2	-1	PERFUME	1049	3	-1	n/a	n/a	n/a	n/a	n/a
3123476	RECOG_TARGET	n/a	LTP087	ltpFR	18	2	1	BATHROOM	99	3	0	n/a	n/a	n/a	n/a	n/a
3124564	RECOG_RESP	n/a	LTP087	ltpFR	18	2	1	BATHROOM	99	n/a	0	n/a	n/a	n/a	n/a	n/a
3125132	RECOG_CONF	n/a	LTP087	ltpFR	18	2	1	BATHROOM	99	3	0	n/a	n/a	n/a	n/a	n/a
3126375	RECOG_TARGET	n/a	LTP087	ltpFR	18	2	0	LOVER	846	5	1	n/a	n/a	n/a	n/a	n/a
3127068	RECOG_RESP	n/a	LTP087	ltpFR	18	2	0	LOVER	846	n/a	1	n/a	n/a	n/a	n/a	n/a
3127687	RECOG_CONF	n/a	LTP087	ltpFR	18	2	0	LOVER	846	5	1	n/a	n/a	n/a	n/a	n/a
3128874	RECOG_TARGET	n/a	LTP087	ltpFR	18	2	1	CRICKET	408	5	1	n/a	n/a	n/a	n/a	n/a
3129462	RECOG_RESP	n/a	LTP087	ltpFR	18	2	1	CRICKET	408	n/a	1	n/a	n/a	n/a	n/a	n/a
3130102	RECOG_CONF	n/a	LTP087	ltpFR	18	2	1	CRICKET	408	5	1	n/a	n/a	n/a	n/a	n/a
3131275	RECOG_TARGET	n/a	LTP087	ltpFR	18	2	1	OUTFIT	988	5	0	n/a	n/a	n/a	n/a	n/a
3131967	RECOG_RESP	n/a	LTP087	ltpFR	18	2	1	OUTFIT	988	n/a	0	n/a	n/a	n/a	n/a	n/a
3132628	RECOG_CONF	n/a	LTP087	ltpFR	18	2	1	OUTFIT	988	5	0	n/a	n/a	n/a	n/a	n/a
3133791	RECOG_TARGET	n/a	LTP087	ltpFR	18	2	0	PARSLEY	1016	5	0	n/a	n/a	n/a	n/a	n/a
3134571	RECOG_RESP	n/a	LTP087	ltpFR	18	2	0	PARSLEY	1016	n/a	0	n/a	n/a	n/a	n/a	n/a
3135254	RECOG_CONF	n/a	LTP087	ltpFR	18	2	0	PARSLEY	1016	5	0	n/a	n/a	n/a	n/a	n/a
3136433	RECOG_TARGET	n/a	LTP087	ltpFR	18	2	-1	BOOK	149	4	-1	n/a	n/a	n/a	n/a	n/a
3137085	RECOG_RESP	n/a	LTP087	ltpFR	18	2	-1	BOOK	149	n/a	-1	n/a	n/a	n/a	n/a	n/a
3137832	RECOG_CONF	n/a	LTP087	ltpFR	18	2	-1	BOOK	149	4	-1	n/a	n/a	n/a	n/a	n/a
3138940	RECOG_TARGET	n/a	LTP087	ltpFR	18	2	-1	MANSION	864	5	-1	n/a	n/a	n/a	n/a	n/a
3139500	RECOG_RESP	n/a	LTP087	ltpFR	18	2	-1	MANSION	864	n/a	-1	n/a	n/a	n/a	n/a	n/a
3140140	RECOG_CONF	n/a	LTP087	ltpFR	18	2	-1	MANSION	864	5	-1	n/a	n/a	n/a	n/a	n/a
3141308	RECOG_TARGET	n/a	LTP087	ltpFR	18	2	1	FUNGUS	614	5	0	n/a	n/a	n/a	n/a	n/a
3141804	RECOG_RESP	n/a	LTP087	ltpFR	18	2	1	FUNGUS	614	n/a	0	n/a	n/a	n/a	n/a	n/a
3142323	RECOG_CONF	n/a	LTP087	ltpFR	18	2	1	FUNGUS	614	5	0	n/a	n/a	n/a	n/a	n/a
3143649	RECOG_TARGET	n/a	LTP087	ltpFR	18	2	0	SKULL	1320	4	0	n/a	n/a	n/a	n/a	n/a
3144179	RECOG_RESP	n/a	LTP087	ltpFR	18	2	0	SKULL	1320	n/a	0	n/a	n/a	n/a	n/a	n/a
3144862	RECOG_CONF	n/a	LTP087	ltpFR	18	2	0	SKULL	1320	4	0	n/a	n/a	n/a	n/a	n/a
3146048	RECOG_TARGET	n/a	LTP087	ltpFR	18	2	1	CAT	257	4	1	n/a	n/a	n/a	n/a	n/a
3146544	RECOG_RESP	n/a	LTP087	ltpFR	18	2	1	CAT	257	n/a	1	n/a	n/a	n/a	n/a	n/a
3147205	RECOG_CONF	n/a	LTP087	ltpFR	18	2	1	CAT	257	4	1	n/a	n/a	n/a	n/a	n/a
3148340	RECOG_TARGET	n/a	LTP087	ltpFR	18	2	-1	TOE	1473	4	-1	n/a	n/a	n/a	n/a	n/a
3148978	RECOG_RESP	n/a	LTP087	ltpFR	18	2	-1	TOE	1473	n/a	-1	n/a	n/a	n/a	n/a	n/a
3149725	RECOG_CONF	n/a	LTP087	ltpFR	18	2	-1	TOE	1473	4	-1	n/a	n/a	n/a	n/a	n/a
3150839	RECOG_TARGET	n/a	LTP087	ltpFR	18	2	0	SKIN	1318	4	0	n/a	n/a	n/a	n/a	n/a
3151423	RECOG_RESP	n/a	LTP087	ltpFR	18	2	0	SKIN	1318	n/a	0	n/a	n/a	n/a	n/a	n/a
3152063	RECOG_CONF	n/a	LTP087	ltpFR	18	2	0	SKIN	1318	4	0	n/a	n/a	n/a	n/a	n/a
3153307	RECOG_TARGET	n/a	LTP087	ltpFR	18	2	1	WRENCH	1625	4	0	n/a	n/a	n/a	n/a	n/a
3153927	RECOG_RESP	n/a	LTP087	ltpFR	18	2	1	WRENCH	1625	n/a	0	n/a	n/a	n/a	n/a	n/a
3154567	RECOG_CONF	n/a	LTP087	ltpFR	18	2	1	WRENCH	1625	4	0	n/a	n/a	n/a	n/a	n/a
3155806	RECOG_TARGET	n/a	LTP087	ltpFR	18	2	0	DECK	443	5	1	n/a	n/a	n/a	n/a	n/a
3156381	RECOG_RESP	n/a	LTP087	ltpFR	18	2	0	DECK	443	n/a	1	n/a	n/a	n/a	n/a	n/a
3157042	RECOG_CONF	n/a	LTP087	ltpFR	18	2	0	DECK	443	5	1	n/a	n/a	n/a	n/a	n/a
3158215	RECOG_TARGET	n/a	LTP087	ltpFR	18	2	0	ENEMY	534	5	0	n/a	n/a	n/a	n/a	n/a
3158746	RECOG_RESP	n/a	LTP087	ltpFR	18	2	0	ENEMY	534	n/a	0	n/a	n/a	n/a	n/a	n/a
3159471	RECOG_CONF	n/a	LTP087	ltpFR	18	2	0	ENEMY	534	5	0	n/a	n/a	n/a	n/a	n/a
3160664	RECOG_TARGET	n/a	LTP087	ltpFR	18	2	-1	DISHWASHER	475	4	-1	n/a	n/a	n/a	n/a	n/a
3161300	RECOG_RESP	n/a	LTP087	ltpFR	18	2	-1	DISHWASHER	475	n/a	-1	n/a	n/a	n/a	n/a	n/a
3161940	RECOG_CONF	n/a	LTP087	ltpFR	18	2	-1	DISHWASHER	475	4	-1	n/a	n/a	n/a	n/a	n/a
3163148	RECOG_LURE	n/a	LTP087	ltpFR	18	2	n/a	EMPLOYER	532	4	n/a	n/a	n/a	n/a	n/a	n/a
3164014	RECOG_RESP	n/a	LTP087	ltpFR	18	2	n/a	EMPLOYER	532	n/a	n/a	n/a	n/a	n/a	n/a	n/a
3164611	RECOG_CONF	n/a	LTP087	ltpFR	18	2	n/a	EMPLOYER	532	4	n/a	n/a	n/a	n/a	n/a	n/a
3167276	REC_START	n/a	LTP087	ltpFR	18	3	n/a	n/a	n/a	n/a	n/a	n/a	n/a	n/a	n/a	n/a
3167314	RECOG_TARGET	n/a	LTP087	ltpFR	18	3	0	BEDROOM	111	4	0	n/a	n/a	n/a	n/a	n/a
3168094	RECOG_RESP	n/a	LTP087	ltpFR	18	3	0	BEDROOM	111	n/a	0	n/a	n/a	n/a	n/a	n/a
3168782	RECOG_CONF	n/a	LTP087	ltpFR	18	3	0	BEDROOM	111	4	0	n/a	n/a	n/a	n/a	n/a
3169979	RECOG_TARGET	n/a	LTP087	ltpFR	18	3	0	EDITOR	516	3	1	n/a	n/a	n/a	n/a	n/a
3170683	RECOG_RESP	n/a	LTP087	ltpFR	18	3	0	EDITOR	516	n/a	1	n/a	n/a	n/a	n/a	n/a
3171280	RECOG_CONF	n/a	LTP087	ltpFR	18	3	0	EDITOR	516	3	1	n/a	n/a	n/a	n/a	n/a
3172405	RECOG_TARGET	n/a	LTP087	ltpFR	18	3	1	PAIL	1002	5	0	n/a	n/a	n/a	n/a	n/a
3173118	RECOG_RESP	n/a	LTP087	ltpFR	18	3	1	PAIL	1002	n/a	0	n/a	n/a	n/a	n/a	n/a
3173758	RECOG_CONF	n/a	LTP087	ltpFR	18	3	1	PAIL	1002	5	0	n/a	n/a	n/a	n/a	n/a
3174904	RECOG_LURE	n/a	LTP087	ltpFR	18	3	n/a	MARGARINE	868	2	n/a	n/a	n/a	n/a	n/a	n/a
3175821	RECOG_RESP	n/a	LTP087	ltpFR	18	3	n/a	MARGARINE	868	n/a	n/a	n/a	n/a	n/a	n/a	n/a
3176461	RECOG_CONF	n/a	LTP087	ltpFR	18	3	n/a	MARGARINE	868	2	n/a	n/a	n/a	n/a	n/a	n/a
3177596	RECOG_LURE	n/a	LTP087	ltpFR	18	3	n/a	CRADLE	399	3	n/a	n/a	n/a	n/a	n/a	n/a
3178665	RECOG_RESP	n/a	LTP087	ltpFR	18	3	n/a	CRADLE	399	n/a	n/a	n/a	n/a	n/a	n/a	n/a
3179305	RECOG_CONF	n/a	LTP087	ltpFR	18	3	n/a	CRADLE	399	3	n/a	n/a	n/a	n/a	n/a	n/a
3180505	RECOG_TARGET	n/a	LTP087	ltpFR	18	3	0	BODY	145	4	0	n/a	n/a	n/a	n/a	n/a
3181299	RECOG_RESP	n/a	LTP087	ltpFR	18	3	0	BODY	145	n/a	0	n/a	n/a	n/a	n/a	n/a
3181960	RECOG_CONF	n/a	LTP087	ltpFR	18	3	0	BODY	145	4	0	n/a	n/a	n/a	n/a	n/a
3183213	RECOG_TARGET	n/a	LTP087	ltpFR	18	3	1	IGLOO	734	5	1	n/a	n/a	n/a	n/a	n/a
3183883	RECOG_RESP	n/a	LTP087	ltpFR	18	3	1	IGLOO	734	n/a	1	n/a	n/a	n/a	n/a	n/a
3184502	RECOG_CONF	n/a	LTP087	ltpFR	18	3	1	IGLOO	734	5	1	n/a	n/a	n/a	n/a	n/a
3185712	RECOG_TARGET	n/a	LTP087	ltpFR	18	3	-1	JOURNAL	760	2	-1	n/a	n/a	n/a	n/a	n/a
3186697	RECOG_RESP	n/a	LTP087	ltpFR	18	3	-1	JOURNAL	760	n/a	-1	n/a	n/a	n/a	n/a	n/a
3187337	RECOG_CONF	n/a	LTP087	ltpFR	18	3	-1	JOURNAL	760	2	-1	n/a	n/a	n/a	n/a	n/a
3188587	RECOG_TARGET	n/a	LTP087	ltpFR	18	3	1	GARAGE	621	4	0	n/a	n/a	n/a	n/a	n/a
3189361	RECOG_RESP	n/a	LTP087	ltpFR	18	3	1	GARAGE	621	n/a	0	n/a	n/a	n/a	n/a	n/a
3190022	RECOG_CONF	n/a	LTP087	ltpFR	18	3	1	GARAGE	621	4	0	n/a	n/a	n/a	n/a	n/a
3191137	RECOG_LURE	n/a	LTP087	ltpFR	18	3	n/a	LION	827	4	n/a	n/a	n/a	n/a	n/a	n/a
3191645	RECOG_RESP	n/a	LTP087	ltpFR	18	3	n/a	LION	827	n/a	n/a	n/a	n/a	n/a	n/a	n/a
3192214	RECOG_CONF	n/a	LTP087	ltpFR	18	3	n/a	LION	827	4	n/a	n/a	n/a	n/a	n/a	n/a
3193454	RECOG_TARGET	n/a	LTP087	ltpFR	18	3	1	TYPEWRITER	1531	4	1	n/a	n/a	n/a	n/a	n/a
3194130	RECOG_RESP	n/a	LTP087	ltpFR	18	3	1	TYPEWRITER	1531	n/a	1	n/a	n/a	n/a	n/a	n/a
3194791	RECOG_CONF	n/a	LTP087	ltpFR	18	3	1	TYPEWRITER	1531	4	1	n/a	n/a	n/a	n/a	n/a
3195994	RECOG_LURE	n/a	LTP087	ltpFR	18	3	n/a	PAD	998	4	n/a	n/a	n/a	n/a	n/a	n/a
3196564	RECOG_RESP	n/a	LTP087	ltpFR	18	3	n/a	PAD	998	n/a	n/a	n/a	n/a	n/a	n/a	n/a
3197119	RECOG_CONF	n/a	LTP087	ltpFR	18	3	n/a	PAD	998	4	n/a	n/a	n/a	n/a	n/a	n/a
3198370	RECOG_TARGET	n/a	LTP087	ltpFR	18	3	1	BIRD	129	4	1	n/a	n/a	n/a	n/a	n/a
3199039	RECOG_RESP	n/a	LTP087	ltpFR	18	3	1	BIRD	129	n/a	1	n/a	n/a	n/a	n/a	n/a
3199636	RECOG_CONF	n/a	LTP087	ltpFR	18	3	1	BIRD	129	4	1	n/a	n/a	n/a	n/a	n/a
3200770	RECOG_TARGET	n/a	LTP087	ltpFR	18	3	1	RULER	1216	5	1	n/a	n/a	n/a	n/a	n/a
3201343	RECOG_RESP	n/a	LTP087	ltpFR	18	3	1	RULER	1216	n/a	1	n/a	n/a	n/a	n/a	n/a
3202004	RECOG_CONF	n/a	LTP087	ltpFR	18	3	1	RULER	1216	5	1	n/a	n/a	n/a	n/a	n/a
3203136	RECOG_TARGET	n/a	LTP087	ltpFR	18	3	0	CREAM	402	5	0	n/a	n/a	n/a	n/a	n/a
3203688	RECOG_RESP	n/a	LTP087	ltpFR	18	3	0	CREAM	402	n/a	0	n/a	n/a	n/a	n/a	n/a
3204392	RECOG_CONF	n/a	LTP087	ltpFR	18	3	0	CREAM	402	5	0	n/a	n/a	n/a	n/a	n/a
3205561	RECOG_TARGET	n/a	LTP087	ltpFR	18	3	1	STUDENT	1395	2	1	n/a	n/a	n/a	n/a	n/a
3206212	RECOG_RESP	n/a	LTP087	ltpFR	18	3	1	STUDENT	1395	n/a	1	n/a	n/a	n/a	n/a	n/a
3206711	RECOG_CONF	n/a	LTP087	ltpFR	18	3	1	STUDENT	1395	2	1	n/a	n/a	n/a	n/a	n/a
3208076	RECOG_TARGET	n/a	LTP087	ltpFR	18	3	-1	CAR	241	4	-1	n/a	n/a	n/a	n/a	n/a
3208757	RECOG_RESP	n/a	LTP087	ltpFR	18	3	-1	CAR	241	n/a	-1	n/a	n/a	n/a	n/a	n/a
3209397	RECOG_CONF	n/a	LTP087	ltpFR	18	3	-1	CAR	241	4	-1	n/a	n/a	n/a	n/a	n/a
3210527	RECOG_LURE	n/a	LTP087	ltpFR	18	3	n/a	BALLOT	76	4	n/a	n/a	n/a	n/a	n/a	n/a
3211101	RECOG_RESP	n/a	LTP087	ltpFR	18	3	n/a	BALLOT	76	n/a	n/a	n/a	n/a	n/a	n/a	n/a
3211640	RECOG_CONF	n/a	LTP087	ltpFR	18	3	n/a	BALLOT	76	4	n/a	n/a	n/a	n/a	n/a	n/a
3212901	RECOG_TARGET	n/a	LTP087	ltpFR	18	3	0	WHISTLE	1606	4	0	n/a	n/a	n/a	n/a	n/a
3213476	RECOG_RESP	n/a	LTP087	ltpFR	18	3	0	WHISTLE	1606	n/a	0	n/a	n/a	n/a	n/a	n/a
3214015	RECOG_CONF	n/a	LTP087	ltpFR	18	3	0	WHISTLE	1606	4	0	n/a	n/a	n/a	n/a	n/a
3215244	RECOG_TARGET	n/a	LTP087	ltpFR	18	3	-1	FROST	609	4	-1	n/a	n/a	n/a	n/a	n/a
3216030	RECOG_RESP	n/a	LTP087	ltpFR	18	3	-1	FROST	609	n/a	-1	n/a	n/a	n/a	n/a	n/a
3216549	RECOG_CONF	n/a	LTP087	ltpFR	18	3	-1	FROST	609	4	-1	n/a	n/a	n/a	n/a	n/a
3219563	REC_START	n/a	LTP087	ltpFR	18	4	n/a	n/a	n/a	n/a	n/a	n/a	n/a	n/a	n/a	n/a
3219593	RECOG_TARGET	n/a	LTP087	ltpFR	18	4	1	ROOM	1206	4	0	n/a	n/a	n/a	n/a	n/a
3220067	RECOG_RESP	n/a	LTP087	ltpFR	18	4	1	ROOM	1206	n/a	0	n/a	n/a	n/a	n/a	n/a
3220686	RECOG_CONF	n/a	LTP087	ltpFR	18	4	1	ROOM	1206	4	0	n/a	n/a	n/a	n/a	n/a
3221934	RECOG_TARGET	n/a	LTP087	ltpFR	18	4	1	TEA	1439	4	0	n/a	n/a	n/a	n/a	n/a
3222491	RECOG_RESP	n/a	LTP087	ltpFR	18	4	1	TEA	1439	n/a	0	n/a	n/a	n/a	n/a	n/a
3223131	RECOG_CONF	n/a	LTP087	ltpFR	18	4	1	TEA	1439	4	0	n/a	n/a	n/a	n/a	n/a
3224418	RECOG_TARGET	n/a	LTP087	ltpFR	18	4	1	LAUNDRY	803	4	0	n/a	n/a	n/a	n/a	n/a
3224956	RECOG_RESP	n/a	LTP087	ltpFR	18	4	1	LAUNDRY	803	n/a	0	n/a	n/a	n/a	n/a	n/a
3225484	RECOG_CONF	n/a	LTP087	ltpFR	18	4	1	LAUNDRY	803	4	0	n/a	n/a	n/a	n/a	n/a
3226759	RECOG_TARGET	n/a	LTP087	ltpFR	18	4	0	BRICK	172	4	0	n/a	n/a	n/a	n/a	n/a
3227540	RECOG_RESP	n/a	LTP087	ltpFR	18	4	0	BRICK	172	n/a	0	n/a	n/a	n/a	n/a	n/a
3228068	RECOG_CONF	n/a	LTP087	ltpFR	18	4	0	BRICK	172	4	0	n/a	n/a	n/a	n/a	n/a
3229368	RECOG_TARGET	n/a	LTP087	ltpFR	18	4	-1	LAKE	796	4	-1	n/a	n/a	n/a	n/a	n/a
3230064	RECOG_RESP	n/a	LTP087	ltpFR	18	4	-1	LAKE	796	n/a	-1	n/a	n/a	n/a	n/a	n/a
3230493	RECOG_CONF	n/a	LTP087	ltpFR	18	4	-1	LAKE	796	4	-1	n/a	n/a	n/a	n/a	n/a
3232151	RECOG_TARGET	n/a	LTP087	ltpFR	18	4	1	SPINACH	1352	4	0	n/a	n/a	n/a	n/a	n/a
3232878	RECOG_RESP	n/a	LTP087	ltpFR	18	4	1	SPINACH	1352	n/a	0	n/a	n/a	n/a	n/a	n/a
3233416	RECOG_CONF	n/a	LTP087	ltpFR	18	4	1	SPINACH	1352	4	0	n/a	n/a	n/a	n/a	n/a
3234750	RECOG_TARGET	n/a	LTP087	ltpFR	18	4	0	VESSEL	1558	4	1	n/a	n/a	n/a	n/a	n/a
3235322	RECOG_RESP	n/a	LTP087	ltpFR	18	4	0	VESSEL	1558	n/a	1	n/a	n/a	n/a	n/a	n/a
3235851	RECOG_CONF	n/a	LTP087	ltpFR	18	4	0	VESSEL	1558	4	1	n/a	n/a	n/a	n/a	n/a
3237099	RECOG_LURE	n/a	LTP087	ltpFR	18	4	n/a	PIMPLE	1071	4	n/a	n/a	n/a	n/a	n/a	n/a
3238096	RECOG_RESP	n/a	LTP087	ltpFR	18	4	n/a	PIMPLE	1071	n/a	n/a	n/a	n/a	n/a	n/a	n/a
3238757	RECOG_CONF	n/a	LTP087	ltpFR	18	4	n/a	PIMPLE	1071	4	n/a	n/a	n/a	n/a	n/a	n/a
3239949	RECOG_TARGET	n/a	LTP087	ltpFR	18	4	1	TOURIST	1488	1	0	n/a	n/a	n/a	n/a	n/a
3240750	RECOG_RESP	n/a	LTP087	ltpFR	18	4	1	TOURIST	1488	n/a	0	n/a	n/a	n/a	n/a	n/a
3242087	RECOG_CONF	n/a	LTP087	ltpFR	18	4	1	TOURIST	1488	1	0	n/a	n/a	n/a	n/a	n/a
3243533	RECOG_TARGET	n/a	LTP087	ltpFR	18	4	1	PANTHER	1009	5	0	n/a	n/a	n/a	n/a	n/a
3244351	RECOG_RESP	n/a	LTP087	ltpFR	18	4	1	PANTHER	1009	n/a	0	n/a	n/a	n/a	n/a	n/a
3244906	RECOG_CONF	n/a	LTP087	ltpFR	18	4	1	PANTHER	1009	5	0	n/a	n/a	n/a	n/a	n/a
3246040	RECOG_TARGET	n/a	LTP087	ltpFR	18	4	1	SHORE	1291	4	0	n/a	n/a	n/a	n/a	n/a
3246556	RECOG_RESP	n/a	LTP087	ltpFR	18	4	1	SHORE	1291	n/a	0	n/a	n/a	n/a	n/a	n/a
3247055	RECOG_CONF	n/a	LTP087	ltpFR	18	4	1	SHORE	1291	4	0	n/a	n/a	n/a	n/a	n/a
3248274	RECOG_TARGET	n/a	LTP087	ltpFR	18	4	0	SURVEY	1414	5	0	n/a	n/a	n/a	n/a	n/a
3248861	RECOG_RESP	n/a	LTP087	ltpFR	18	4	0	SURVEY	1414	n/a	0	n/a	n/a	n/a	n/a	n/a
3249320	RECOG_CONF	n/a	LTP087	ltpFR	18	4	0	SURVEY	1414	5	0	n/a	n/a	n/a	n/a	n/a
3250591	RECOG_TARGET	n/a	LTP087	ltpFR	18	4	1	COOK	372	4	0	n/a	n/a	n/a	n/a	n/a
3251036	RECOG_RESP	n/a	LTP087	ltpFR	18	4	1	COOK	372	n/a	0	n/a	n/a	n/a	n/a	n/a
3251545	RECOG_CONF	n/a	LTP087	ltpFR	18	4	1	COOK	372	4	0	n/a	n/a	n/a	n/a	n/a
3252799	RECOG_LURE	n/a	LTP087	ltpFR	18	4	n/a	REPTILE	1185	2	n/a	n/a	n/a	n/a	n/a	n/a
3253670	RECOG_RESP	n/a	LTP087	ltpFR	18	4	n/a	REPTILE	1185	n/a	n/a	n/a	n/a	n/a	n/a	n/a
3254289	RECOG_CONF	n/a	LTP087	ltpFR	18	4	n/a	REPTILE	1185	2	n/a	n/a	n/a	n/a	n/a	n/a
3255482	RECOG_TARGET	n/a	LTP087	ltpFR	18	4	0	HIKER	708	4	1	n/a	n/a	n/a	n/a	n/a
3255985	RECOG_RESP	n/a	LTP087	ltpFR	18	4	0	HIKER	708	n/a	1	n/a	n/a	n/a	n/a	n/a
3256561	RECOG_CONF	n/a	LTP087	ltpFR	18	4	0	HIKER	708	4	1	n/a	n/a	n/a	n/a	n/a
3257732	RECOG_TARGET	n/a	LTP087	ltpFR	18	4	-1	SEAL	1262	4	-1	n/a	n/a	n/a	n/a	n/a
3258150	RECOG_RESP	n/a	LTP087	ltpFR	18	4	-1	SEAL	1262	n/a	-1	n/a	n/a	n/a	n/a	n/a
3258683	RECOG_CONF	n/a	LTP087	ltpFR	18	4	-1	SEAL	1262	4	-1	n/a	n/a	n/a	n/a	n/a
3259856	RECOG_TARGET	n/a	LTP087	ltpFR	18	4	-1	BANK	83	4	-1	n/a	n/a	n/a	n/a	n/a
3260335	RECOG_RESP	n/a	LTP087	ltpFR	18	4	-1	BANK	83	n/a	-1	n/a	n/a	n/a	n/a	n/a
3260911	RECOG_CONF	n/a	LTP087	ltpFR	18	4	-1	BANK	83	4	-1	n/a	n/a	n/a	n/a	n/a
3262115	RECOG_LURE	n/a	LTP087	ltpFR	18	4	n/a	CAPE	237	4	n/a	n/a	n/a	n/a	n/a	n/a
3262640	RECOG_RESP	n/a	LTP087	ltpFR	18	4	n/a	CAPE	237	n/a	n/a	n/a	n/a	n/a	n/a	n/a
3263216	RECOG_CONF	n/a	LTP087	ltpFR	18	4	n/a	CAPE	237	4	n/a	n/a	n/a	n/a	n/a	n/a
3264473	RECOG_TARGET	n/a	LTP087	ltpFR	18	4	1	DRIVER	499	5	1	n/a	n/a	n/a	n/a	n/a
3265064	RECOG_RESP	n/a	LTP087	ltpFR	18	4	1	DRIVER	499	n/a	1	n/a	n/a	n/a	n/a	n/a
3265619	RECOG_CONF	n/a	LTP087	ltpFR	18	4	1	DRIVER	499	5	1	n/a	n/a	n/a	n/a	n/a
3266790	RECOG_TARGET	n/a	LTP087	ltpFR	18	4	-1	DRAWING	494	4	-1	n/a	n/a	n/a	n/a	n/a
3267339	RECOG_RESP	n/a	LTP087	ltpFR	18	4	-1	DRAWING	494	n/a	-1	n/a	n/a	n/a	n/a	n/a
3267768	RECOG_CONF	n/a	LTP087	ltpFR	18	4	-1	DRAWING	494	4	-1	n/a	n/a	n/a	n/a	n/a
3270404	REC_START	n/a	LTP087	ltpFR	18	5	n/a	n/a	n/a	n/a	n/a	n/a	n/a	n/a	n/a	n/a
3270439	RECOG_TARGET	n/a	LTP087	ltpFR	18	5	1	BRIDGE	174	5	0	n/a	n/a	n/a	n/a	n/a
3270878	RECOG_RESP	n/a	LTP087	ltpFR	18	5	1	BRIDGE	174	n/a	0	n/a	n/a	n/a	n/a	n/a
3271326	RECOG_CONF	n/a	LTP087	ltpFR	18	5	1	BRIDGE	174	5	0	n/a	n/a	n/a	n/a	n/a
3272798	RECOG_LURE	n/a	LTP087	ltpFR	18	5	n/a	ROOMMATE	1207	4	n/a	n/a	n/a	n/a	n/a	n/a
3273452	RECOG_RESP	n/a	LTP087	ltpFR	18	5	n/a	ROOMMATE	1207	n/a	n/a	n/a	n/a	n/a	n/a	n/a
3274071	RECOG_CONF	n/a	LTP087	ltpFR	18	5	n/a	ROOMMATE	1207	4	n/a	n/a	n/a	n/a	n/a	n/a
3275139	RECOG_TARGET	n/a	LTP087	ltpFR	18	5	-1	CUSTOMER	430	4	-1	n/a	n/a	n/a	n/a	n/a
3275677	RECOG_RESP	n/a	LTP087	ltpFR	18	5	-1	CUSTOMER	430	n/a	-1	n/a	n/a	n/a	n/a	n/a
3276186	RECOG_CONF	n/a	LTP087	ltpFR	18	5	-1	CUSTOMER	430	4	-1	n/a	n/a	n/a	n/a	n/a
3277356	RECOG_TARGET	n/a	LTP087	ltpFR	18	5	0	STONE	1385	4	1	n/a	n/a	n/a	n/a	n/a
3277882	RECOG_RESP	n/a	LTP087	ltpFR	18	5	0	STONE	1385	n/a	1	n/a	n/a	n/a	n/a	n/a
3278437	RECOG_CONF	n/a	LTP087	ltpFR	18	5	0	STONE	1385	4	1	n/a	n/a	n/a	n/a	n/a
3279572	RECOG_TARGET	n/a	LTP087	ltpFR	18	5	0	OATMEAL	967	4	0	n/a	n/a	n/a	n/a	n/a
3280386	RECOG_RESP	n/a	LTP087	ltpFR	18	5	0	OATMEAL	967	n/a	0	n/a	n/a	n/a	n/a	n/a
3281026	RECOG_CONF	n/a	LTP087	ltpFR	18	5	0	OATMEAL	967	4	0	n/a	n/a	n/a	n/a	n/a
3282180	RECOG_TARGET	n/a	LTP087	ltpFR	18	5	1	CHIMPANZEE	302	4	1	n/a	n/a	n/a	n/a	n/a
3282731	RECOG_RESP	n/a	LTP087	ltpFR	18	5	1	CHIMPANZEE	302	n/a	1	n/a	n/a	n/a	n/a	n/a
3283307	RECOG_CONF	n/a	LTP087	ltpFR	18	5	1	CHIMPANZEE	302	4	1	n/a	n/a	n/a	n/a	n/a
3284447	RECOG_TARGET	n/a	LTP087	ltpFR	18	5	-1	TIE	1466	5	-1	n/a	n/a	n/a	n/a	n/a
3285065	RECOG_RESP	n/a	LTP087	ltpFR	18	5	-1	TIE	1466	n/a	-1	n/a	n/a	n/a	n/a	n/a
3285598	RECOG_CONF	n/a	LTP087	ltpFR	18	5	-1	TIE	1466	5	-1	n/a	n/a	n/a	n/a	n/a
3286738	RECOG_TARGET	n/a	LTP087	ltpFR	18	5	0	KNOB	787	5	0	n/a	n/a	n/a	n/a	n/a
3287320	RECOG_RESP	n/a	LTP087	ltpFR	18	5	0	KNOB	787	n/a	0	n/a	n/a	n/a	n/a	n/a
3287896	RECOG_CONF	n/a	LTP087	ltpFR	18	5	0	KNOB	787	5	0	n/a	n/a	n/a	n/a	n/a
3289130	RECOG_LURE	n/a	LTP087	ltpFR	18	5	n/a	OPERATOR	979	4	n/a	n/a	n/a	n/a	n/a	n/a
3289575	RECOG_RESP	n/a	LTP087	ltpFR	18	5	n/a	OPERATOR	979	n/a	n/a	n/a	n/a	n/a	n/a	n/a
3290014	RECOG_CONF	n/a	LTP087	ltpFR	18	5	n/a	OPERATOR	979	4	n/a	n/a	n/a	n/a	n/a	n/a
3291263	RECOG_TARGET	n/a	LTP087	ltpFR	18	5	0	ORCHESTRA	981	4	1	n/a	n/a	n/a	n/a	n/a
3291880	RECOG_RESP	n/a	LTP087	ltpFR	18	5	0	ORCHESTRA	981	n/a	1	n/a	n/a	n/a	n/a	n/a
3292477	RECOG_CONF	n/a	LTP087	ltpFR	18	5	0	ORCHESTRA	981	4	1	n/a	n/a	n/a	n/a	n/a
3293538	RECOG_TARGET	n/a	LTP087	ltpFR	18	5	-1	PENNY	1045	4	-1	n/a	n/a	n/a	n/a	n/a
3294145	RECOG_RESP	n/a	LTP087	ltpFR	18	5	-1	PENNY	1045	n/a	-1	n/a	n/a	n/a	n/a	n/a
3294735	RECOG_CONF	n/a	LTP087	ltpFR	18	5	-1	PENNY	1045	4	-1	n/a	n/a	n/a	n/a	n/a
3295970	RECOG_TARGET	n/a	LTP087	ltpFR	18	5	1	OREGANO	983	4	0	n/a	n/a	n/a	n/a	n/a
3296500	RECOG_RESP	n/a	LTP087	ltpFR	18	5	1	OREGANO	983	n/a	0	n/a	n/a	n/a	n/a	n/a
3296939	RECOG_CONF	n/a	LTP087	ltpFR	18	5	1	OREGANO	983	4	0	n/a	n/a	n/a	n/a	n/a
3298329	RECOG_LURE	n/a	LTP087	ltpFR	18	5	n/a	GENTLEMAN	631	4	n/a	n/a	n/a	n/a	n/a	n/a
3298754	RECOG_RESP	n/a	LTP087	ltpFR	18	5	n/a	GENTLEMAN	631	n/a	n/a	n/a	n/a	n/a	n/a	n/a
3299203	RECOG_CONF	n/a	LTP087	ltpFR	18	5	n/a	GENTLEMAN	631	4	n/a	n/a	n/a	n/a	n/a	n/a
3300562	RECOG_TARGET	n/a	LTP087	ltpFR	18	5	-1	STEAM	1375	4	-1	n/a	n/a	n/a	n/a	n/a
3301209	RECOG_RESP	n/a	LTP087	ltpFR	18	5	-1	STEAM	1375	n/a	-1	n/a	n/a	n/a	n/a	n/a
3301785	RECOG_CONF	n/a	LTP087	ltpFR	18	5	-1	STEAM	1375	4	-1	n/a	n/a	n/a	n/a	n/a
3302911	RECOG_TARGET	n/a	LTP087	ltpFR	18	5	0	HEN	703	4	0	n/a	n/a	n/a	n/a	n/a
3303494	RECOG_RESP	n/a	LTP087	ltpFR	18	5	0	HEN	703	n/a	0	n/a	n/a	n/a	n/a	n/a
3303923	RECOG_CONF	n/a	LTP087	ltpFR	18	5	0	HEN	703	4	0	n/a	n/a	n/a	n/a	n/a
3305203	RECOG_TARGET	n/a	LTP087	ltpFR	18	5	0	OAR	966	4	0	n/a	n/a	n/a	n/a	n/a
3305838	RECOG_RESP	n/a	LTP087	ltpFR	18	5	0	OAR	966	n/a	0	n/a	n/a	n/a	n/a	n/a
3306267	RECOG_CONF	n/a	LTP087	ltpFR	18	5	0	OAR	966	4	0	n/a	n/a	n/a	n/a	n/a
3307453	RECOG_TARGET	n/a	LTP087	ltpFR	18	5	1	DRILL	497	4	0	n/a	n/a	n/a	n/a	n/a
3308083	RECOG_RESP	n/a	LTP087	ltpFR	18	5	1	DRILL	497	n/a	0	n/a	n/a	n/a	n/a	n/a
3308542	RECOG_CONF	n/a	LTP087	ltpFR	18	5	1	DRILL	497	4	0	n/a	n/a	n/a	n/a	n/a
3309711	RECOG_TARGET	n/a	LTP087	ltpFR	18	5	1	NEST	945	5	0	n/a	n/a	n/a	n/a	n/a
3310388	RECOG_RESP	n/a	LTP087	ltpFR	18	5	1	NEST	945	n/a	0	n/a	n/a	n/a	n/a	n/a
3310921	RECOG_CONF	n/a	LTP087	ltpFR	18	5	1	NEST	945	5	0	n/a	n/a	n/a	n/a	n/a
3312019	RECOG_TARGET	n/a	LTP087	ltpFR	18	5	-1	RAZOR	1171	4	-1	n/a	n/a	n/a	n/a	n/a
3312483	RECOG_RESP_VV	n/a	LTP087	ltpFR	18	5	-1	RAZOR	1171	n/a	-1	n/a	n/a	n/a	n/a	n/a
3312872	RECOG_RESP	n/a	LTP087	ltpFR	18	5	-1	RAZOR	1171	n/a	-1	n/a	n/a	n/a	n/a	n/a
3313464	RECOG_CONF	n/a	LTP087	ltpFR	18	5	-1	RAZOR	1171	4	-1	n/a	n/a	n/a	n/a	n/a
3314561	RECOG_TARGET	n/a	LTP087	ltpFR	18	5	0	SWIMMER	1420	4	1	n/a	n/a	n/a	n/a	n/a
3315217	RECOG_RESP	n/a	LTP087	ltpFR	18	5	0	SWIMMER	1420	n/a	1	n/a	n/a	n/a	n/a	n/a
3315676	RECOG_CONF	n/a	LTP087	ltpFR	18	5	0	SWIMMER	1420	4	1	n/a	n/a	n/a	n/a	n/a
3318283	REC_START	n/a	LTP087	ltpFR	18	6	n/a	n/a	n/a	n/a	n/a	n/a	n/a	n/a	n/a	n/a
3318319	RECOG_TARGET	n/a	LTP087	ltpFR	18	6	1	BLUEJAY	141	4	0	n/a	n/a	n/a	n/a	n/a
3318956	RECOG_RESP	n/a	LTP087	ltpFR	18	6	1	BLUEJAY	141	n/a	0	n/a	n/a	n/a	n/a	n/a
3319617	RECOG_CONF	n/a	LTP087	ltpFR	18	6	1	BLUEJAY	141	4	0	n/a	n/a	n/a	n/a	n/a
3320711	RECOG_LURE	n/a	LTP087	ltpFR	18	6	n/a	SOFTBALL	1343	4	n/a	n/a	n/a	n/a	n/a	n/a
3321540	RECOG_RESP	n/a	LTP087	ltpFR	18	6	n/a	SOFTBALL	1343	n/a	n/a	n/a	n/a	n/a	n/a	n/a
3322159	RECOG_CONF	n/a	LTP087	ltpFR	18	6	n/a	SOFTBALL	1343	4	n/a	n/a	n/a	n/a	n/a	n/a
3323294	RECOG_LURE	n/a	LTP087	ltpFR	18	6	n/a	OINTMENT	974	4	n/a	n/a	n/a	n/a	n/a	n/a
3324194	RECOG_RESP	n/a	LTP087	ltpFR	18	6	n/a	OINTMENT	974	n/a	n/a	n/a	n/a	n/a	n/a	n/a
3324962	RECOG_CONF	n/a	LTP087	ltpFR	18	6	n/a	OINTMENT	974	4	n/a	n/a	n/a	n/a	n/a	n/a
3326067	RECOG_TARGET	n/a	LTP087	ltpFR	18	6	1	SACK	1220	5	0	n/a	n/a	n/a	n/a	n/a
3326729	RECOG_RESP	n/a	LTP087	ltpFR	18	6	1	SACK	1220	n/a	0	n/a	n/a	n/a	n/a	n/a
3327305	RECOG_CONF	n/a	LTP087	ltpFR	18	6	1	SACK	1220	5	0	n/a	n/a	n/a	n/a	n/a
3328402	RECOG_TARGET	n/a	LTP087	ltpFR	18	6	1	STRANGER	1389	5	1	n/a	n/a	n/a	n/a	n/a
3329043	RECOG_RESP	n/a	LTP087	ltpFR	18	6	1	STRANGER	1389	n/a	1	n/a	n/a	n/a	n/a	n/a
3329619	RECOG_CONF	n/a	LTP087	ltpFR	18	6	1	STRANGER	1389	5	1	n/a	n/a	n/a	n/a	n/a
3330693	RECOG_TARGET	n/a	LTP087	ltpFR	18	6	1	SHELTER	1282	4	0	n/a	n/a	n/a	n/a	n/a
3331318	RECOG_RESP	n/a	LTP087	ltpFR	18	6	1	SHELTER	1282	n/a	0	n/a	n/a	n/a	n/a	n/a
3331747	RECOG_CONF	n/a	LTP087	ltpFR	18	6	1	SHELTER	1282	4	0	n/a	n/a	n/a	n/a	n/a
3333118	RECOG_TARGET	n/a	LTP087	ltpFR	18	6	-1	BANKER	84	4	-1	n/a	n/a	n/a	n/a	n/a
3333473	RECOG_RESP	n/a	LTP087	ltpFR	18	6	-1	BANKER	84	n/a	-1	n/a	n/a	n/a	n/a	n/a
3333922	RECOG_CONF	n/a	LTP087	ltpFR	18	6	-1	BANKER	84	4	-1	n/a	n/a	n/a	n/a	n/a
3335168	RECOG_TARGET	n/a	LTP087	ltpFR	18	6	-1	OCEAN	970	4	-1	n/a	n/a	n/a	n/a	n/a
3335559	RECOG_RESP	n/a	LTP087	ltpFR	18	6	-1	OCEAN	970	n/a	-1	n/a	n/a	n/a	n/a	n/a
3335968	RECOG_CONF	n/a	LTP087	ltpFR	18	6	-1	OCEAN	970	4	-1	n/a	n/a	n/a	n/a	n/a
3337067	RECOG_TARGET	n/a	LTP087	ltpFR	18	6	-1	SIRLOIN	1311	5	-1	n/a	n/a	n/a	n/a	n/a
3337514	RECOG_RESP	n/a	LTP087	ltpFR	18	6	-1	SIRLOIN	1311	n/a	-1	n/a	n/a	n/a	n/a	n/a
3337903	RECOG_CONF	n/a	LTP087	ltpFR	18	6	-1	SIRLOIN	1311	5	-1	n/a	n/a	n/a	n/a	n/a
3339176	RECOG_TARGET	n/a	LTP087	ltpFR	18	6	1	CATCHER	258	5	1	n/a	n/a	n/a	n/a	n/a
3339619	RECOG_RESP	n/a	LTP087	ltpFR	18	6	1	CATCHER	258	n/a	1	n/a	n/a	n/a	n/a	n/a
3340088	RECOG_CONF	n/a	LTP087	ltpFR	18	6	1	CATCHER	258	5	1	n/a	n/a	n/a	n/a	n/a
3341267	RECOG_LURE	n/a	LTP087	ltpFR	18	6	n/a	KNUCKLE	789	4	n/a	n/a	n/a	n/a	n/a	n/a
3342074	RECOG_RESP	n/a	LTP087	ltpFR	18	6	n/a	KNUCKLE	789	n/a	n/a	n/a	n/a	n/a	n/a	n/a
3343211	RECOG_CONF	n/a	LTP087	ltpFR	18	6	n/a	KNUCKLE	789	4	n/a	n/a	n/a	n/a	n/a	n/a
3344484	RECOG_TARGET	n/a	LTP087	ltpFR	18	6	0	CONVICT	371	5	1	n/a	n/a	n/a	n/a	n/a
3345117	RECOG_RESP_VV	n/a	LTP087	ltpFR	18	6	0	CONVICT	371	n/a	1	n/a	n/a	n/a	n/a	n/a
3345616	RECOG_RESP	n/a	LTP087	ltpFR	18	6	0	CONVICT	371	n/a	1	n/a	n/a	n/a	n/a	n/a
3346171	RECOG_CONF	n/a	LTP087	ltpFR	18	6	0	CONVICT	371	5	1	n/a	n/a	n/a	n/a	n/a
3347700	RECOG_TARGET	n/a	LTP087	ltpFR	18	6	-1	FREEZER	604	4	-1	n/a	n/a	n/a	n/a	n/a
3348090	RECOG_RESP	n/a	LTP087	ltpFR	18	6	-1	FREEZER	604	n/a	-1	n/a	n/a	n/a	n/a	n/a
3348549	RECOG_CONF	n/a	LTP087	ltpFR	18	6	-1	FREEZER	604	4	-1	n/a	n/a	n/a	n/a	n/a
3349916	RECOG_LURE	n/a	LTP087	ltpFR	18	6	n/a	KNIFE	785	4	n/a	n/a	n/a	n/a	n/a	n/a
3350405	RECOG_RESP	n/a	LTP087	ltpFR	18	6	n/a	KNIFE	785	n/a	n/a	n/a	n/a	n/a	n/a	n/a
3350834	RECOG_CONF	n/a	LTP087	ltpFR	18	6	n/a	KNIFE	785	4	n/a	n/a	n/a	n/a	n/a	n/a
3352125	RECOG_TARGET	n/a	LTP087	ltpFR	18	6	1	SUITCASE	1403	4	0	n/a	n/a	n/a	n/a	n/a
3352660	RECOG_RESP	n/a	LTP087	ltpFR	18	6	1	SUITCASE	1403	n/a	0	n/a	n/a	n/a	n/a	n/a
3353151	RECOG_CONF	n/a	LTP087	ltpFR	18	6	1	SUITCASE	1403	4	0	n/a	n/a	n/a	n/a	n/a
3354541	RECOG_TARGET	n/a	LTP087	ltpFR	18	6	0	SALOON	1228	5	1	n/a	n/a	n/a	n/a	n/a
3355134	RECOG_RESP	n/a	LTP087	ltpFR	18	6	0	SALOON	1228	n/a	1	n/a	n/a	n/a	n/a	n/a
3355561	RECOG_CONF	n/a	LTP087	ltpFR	18	6	0	SALOON	1228	5	1	n/a	n/a	n/a	n/a	n/a
3356741	RECOG_TARGET	n/a	LTP087	ltpFR	18	6	1	CUE	422	5	0	n/a	n/a	n/a	n/a	n/a
3357249	RECOG_RESP	n/a	LTP087	ltpFR	18	6	1	CUE	422	n/a	0	n/a	n/a	n/a	n/a	n/a
3357648	RECOG_CONF	n/a	LTP087	ltpFR	18	6	1	CUE	422	5	0	n/a	n/a	n/a	n/a	n/a
3358973	RECOG_TARGET	n/a	LTP087	ltpFR	18	6	0	MOSS	918	5	0	n/a	n/a	n/a	n/a	n/a
3359454	RECOG_RESP	n/a	LTP087	ltpFR	18	6	0	MOSS	918	n/a	0	n/a	n/a	n/a	n/a	n/a
3359923	RECOG_CONF	n/a	LTP087	ltpFR	18	6	0	MOSS	918	5	0	n/a	n/a	n/a	n/a	n/a
3361082	RECOG_TARGET	n/a	LTP087	ltpFR	18	6	-1	BUTTON	207	5	-1	n/a	n/a	n/a	n/a	n/a
3361460	RECOG_RESP	n/a	LTP087	ltpFR	18	6	-1	BUTTON	207	n/a	-1	n/a	n/a	n/a	n/a	n/a
3361951	RECOG_CONF	n/a	LTP087	ltpFR	18	6	-1	BUTTON	207	5	-1	n/a	n/a	n/a	n/a	n/a
3363040	RECOG_TARGET	n/a	LTP087	ltpFR	18	6	1	GUEST	669	4	1	n/a	n/a	n/a	n/a	n/a
3363485	RECOG_RESP	n/a	LTP087	ltpFR	18	6	1	GUEST	669	n/a	1	n/a	n/a	n/a	n/a	n/a
3363884	RECOG_CONF	n/a	LTP087	ltpFR	18	6	1	GUEST	669	4	1	n/a	n/a	n/a	n/a	n/a
3366848	REC_START	n/a	LTP087	ltpFR	18	7	n/a	n/a	n/a	n/a	n/a	n/a	n/a	n/a	n/a	n/a
3366881	RECOG_TARGET	n/a	LTP087	ltpFR	18	7	1	OLIVE	975	4	0	n/a	n/a	n/a	n/a	n/a
3367382	RECOG_RESP	n/a	LTP087	ltpFR	18	7	1	OLIVE	975	n/a	0	n/a	n/a	n/a	n/a	n/a
3368107	RECOG_CONF	n/a	LTP087	ltpFR	18	7	1	OLIVE	975	4	0	n/a	n/a	n/a	n/a	n/a
3369432	RECOG_TARGET	n/a	LTP087	ltpFR	18	7	-1	SHRINE	1298	4	-1	n/a	n/a	n/a	n/a	n/a
3370026	RECOG_RESP	n/a	LTP087	ltpFR	18	7	-1	SHRINE	1298	n/a	-1	n/a	n/a	n/a	n/a	n/a
3370405	RECOG_CONF	n/a	LTP087	ltpFR	18	7	-1	SHRINE	1298	4	-1	n/a	n/a	n/a	n/a	n/a
3371648	RECOG_TARGET	n/a	LTP087	ltpFR	18	7	1	CAULIFLOWER	262	4	0	n/a	n/a	n/a	n/a	n/a
3372320	RECOG_RESP	n/a	LTP087	ltpFR	18	7	1	CAULIFLOWER	262	n/a	0	n/a	n/a	n/a	n/a	n/a
3372768	RECOG_CONF	n/a	LTP087	ltpFR	18	7	1	CAULIFLOWER	262	4	0	n/a	n/a	n/a	n/a	n/a
3373947	RECOG_TARGET	n/a	LTP087	ltpFR	18	7	0	BINDER	127	4	0	n/a	n/a	n/a	n/a	n/a
3374735	RECOG_RESP	n/a	LTP087	ltpFR	18	7	0	BINDER	127	n/a	0	n/a	n/a	n/a	n/a	n/a
3375290	RECOG_CONF	n/a	LTP087	ltpFR	18	7	0	BINDER	127	4	0	n/a	n/a	n/a	n/a	n/a
3376448	RECOG_TARGET	n/a	LTP087	ltpFR	18	7	1	DISH	474	4	0	n/a	n/a	n/a	n/a	n/a
3377109	RECOG_RESP	n/a	LTP087	ltpFR	18	7	1	DISH	474	n/a	0	n/a	n/a	n/a	n/a	n/a
3377792	RECOG_CONF	n/a	LTP087	ltpFR	18	7	1	DISH	474	4	0	n/a	n/a	n/a	n/a	n/a
3378781	RECOG_TARGET	n/a	LTP087	ltpFR	18	7	-1	LOCK	838	4	-1	n/a	n/a	n/a	n/a	n/a
3379554	RECOG_RESP	n/a	LTP087	ltpFR	18	7	-1	LOCK	838	n/a	-1	n/a	n/a	n/a	n/a	n/a
3380877	RECOG_CONF	n/a	LTP087	ltpFR	18	7	-1	LOCK	838	4	-1	n/a	n/a	n/a	n/a	n/a
3382139	RECOG_TARGET	n/a	LTP087	ltpFR	18	7	0	BIKE	125	4	0	n/a	n/a	n/a	n/a	n/a
3382667	RECOG_RESP	n/a	LTP087	ltpFR	18	7	0	BIKE	125	n/a	0	n/a	n/a	n/a	n/a	n/a
3383096	RECOG_CONF	n/a	LTP087	ltpFR	18	7	0	BIKE	125	4	0	n/a	n/a	n/a	n/a	n/a
3384522	RECOG_TARGET	n/a	LTP087	ltpFR	18	7	-1	PORCUPINE	1107	5	-1	n/a	n/a	n/a	n/a	n/a
3385541	RECOG_RESP	n/a	LTP087	ltpFR	18	7	-1	PORCUPINE	1107	n/a	-1	n/a	n/a	n/a	n/a	n/a
3386010	RECOG_CONF	n/a	LTP087	ltpFR	18	7	-1	PORCUPINE	1107	5	-1	n/a	n/a	n/a	n/a	n/a
3387322	RECOG_TARGET	n/a	LTP087	ltpFR	18	7	1	FIGHTER	564	4	1	n/a	n/a	n/a	n/a	n/a
3388055	RECOG_RESP	n/a	LTP087	ltpFR	18	7	1	FIGHTER	564	n/a	1	n/a	n/a	n/a	n/a	n/a
3388464	RECOG_CONF	n/a	LTP087	ltpFR	18	7	1	FIGHTER	564	4	1	n/a	n/a	n/a	n/a	n/a
3389714	RECOG_TARGET	n/a	LTP087	ltpFR	18	7	1	SATURN	1236	4	1	n/a	n/a	n/a	n/a	n/a
3390190	RECOG_RESP	n/a	LTP087	ltpFR	18	7	1	SATURN	1236	n/a	1	n/a	n/a	n/a	n/a	n/a
3390559	RECOG_CONF	n/a	LTP087	ltpFR	18	7	1	SATURN	1236	4	1	n/a	n/a	n/a	n/a	n/a
3391954	RECOG_LURE	n/a	LTP087	ltpFR	18	7	n/a	SHEET	1279	4	n/a	n/a	n/a	n/a	n/a	n/a
3392375	RECOG_RESP	n/a	LTP087	ltpFR	18	7	n/a	SHEET	1279	n/a	n/a	n/a	n/a	n/a	n/a	n/a
3392794	RECOG_CONF	n/a	LTP087	ltpFR	18	7	n/a	SHEET	1279	4	n/a	n/a	n/a	n/a	n/a	n/a
3394122	RECOG_TARGET	n/a	LTP087	ltpFR	18	7	-1	PUMP	1141	4	-1	n/a	n/a	n/a	n/a	n/a
3394650	RECOG_RESP	n/a	LTP087	ltpFR	18	7	-1	PUMP	1141	n/a	-1	n/a	n/a	n/a	n/a	n/a
3395089	RECOG_CONF	n/a	LTP087	ltpFR	18	7	-1	PUMP	1141	4	-1	n/a	n/a	n/a	n/a	n/a
3396430	RECOG_TARGET	n/a	LTP087	ltpFR	18	7	1	TACK	1428	5	1	n/a	n/a	n/a	n/a	n/a
3397044	RECOG_RESP	n/a	LTP087	ltpFR	18	7	1	TACK	1428	n/a	1	n/a	n/a	n/a	n/a	n/a
3397513	RECOG_CONF	n/a	LTP087	ltpFR	18	7	1	TACK	1428	5	1	n/a	n/a	n/a	n/a	n/a
3398780	RECOG_TARGET	n/a	LTP087	ltpFR	18	7	1	BUFFALO	186	4	1	n/a	n/a	n/a	n/a	n/a
3399229	RECOG_RESP	n/a	LTP087	ltpFR	18	7	1	BUFFALO	186	n/a	1	n/a	n/a	n/a	n/a	n/a
3399677	RECOG_CONF	n/a	LTP087	ltpFR	18	7	1	BUFFALO	186	4	1	n/a	n/a	n/a	n/a	n/a
3400845	RECOG_TARGET	n/a	LTP087	ltpFR	18	7	0	HAM	678	4	0	n/a	n/a	n/a	n/a	n/a
3401354	RECOG_RESP	n/a	LTP087	ltpFR	18	7	0	HAM	678	n/a	0	n/a	n/a	n/a	n/a	n/a
3401773	RECOG_CONF	n/a	LTP087	ltpFR	18	7	0	HAM	678	4	0	n/a	n/a	n/a	n/a	n/a
3402978	RECOG_TARGET	n/a	LTP087	ltpFR	18	7	1	WITNESS	1618	5	0	n/a	n/a	n/a	n/a	n/a
3403450	RECOG_RESP	n/a	LTP087	ltpFR	18	7	1	WITNESS	1618	n/a	0	n/a	n/a	n/a	n/a	n/a
3403919	RECOG_CONF	n/a	LTP087	ltpFR	18	7	1	WITNESS	1618	5	0	n/a	n/a	n/a	n/a	n/a
3405238	RECOG_LURE	n/a	LTP087	ltpFR	18	7	n/a	STAGE	1366	4	n/a	n/a	n/a	n/a	n/a	n/a
3405615	RECOG_RESP	n/a	LTP087	ltpFR	18	7	n/a	STAGE	1366	n/a	n/a	n/a	n/a	n/a	n/a	n/a
3406084	RECOG_CONF	n/a	LTP087	ltpFR	18	7	n/a	STAGE	1366	4	n/a	n/a	n/a	n/a	n/a	n/a
3407246	RECOG_LURE	n/a	LTP087	ltpFR	18	7	n/a	ARCHITECT	36	4	n/a	n/a	n/a	n/a	n/a	n/a
3407890	RECOG_RESP	n/a	LTP087	ltpFR	18	7	n/a	ARCHITECT	36	n/a	n/a	n/a	n/a	n/a	n/a	n/a
3408279	RECOG_CONF	n/a	LTP087	ltpFR	18	7	n/a	ARCHITECT	36	4	n/a	n/a	n/a	n/a	n/a	n/a
3409629	RECOG_TARGET	n/a	LTP087	ltpFR	18	7	1	SUSPECT	1415	4	1	n/a	n/a	n/a	n/a	n/a
3410124	RECOG_RESP	n/a	LTP087	ltpFR	18	7	1	SUSPECT	1415	n/a	1	n/a	n/a	n/a	n/a	n/a
3410494	RECOG_CONF	n/a	LTP087	ltpFR	18	7	1	SUSPECT	1415	4	1	n/a	n/a	n/a	n/a	n/a
3411844	RECOG_TARGET	n/a	LTP087	ltpFR	18	7	1	WAREHOUSE	1588	4	1	n/a	n/a	n/a	n/a	n/a
3412479	RECOG_RESP	n/a	LTP087	ltpFR	18	7	1	WAREHOUSE	1588	n/a	1	n/a	n/a	n/a	n/a	n/a
3412858	RECOG_CONF	n/a	LTP087	ltpFR	18	7	1	WAREHOUSE	1588	4	1	n/a	n/a	n/a	n/a	n/a
3415879	REC_START	n/a	LTP087	ltpFR	18	8	n/a	n/a	n/a	n/a	n/a	n/a	n/a	n/a	n/a	n/a
3415911	RECOG_LURE	n/a	LTP087	ltpFR	18	8	n/a	TAG	1429	4	n/a	n/a	n/a	n/a	n/a	n/a
3416462	RECOG_RESP	n/a	LTP087	ltpFR	18	8	n/a	TAG	1429	n/a	n/a	n/a	n/a	n/a	n/a	n/a
3416953	RECOG_CONF	n/a	LTP087	ltpFR	18	8	n/a	TAG	1429	4	n/a	n/a	n/a	n/a	n/a	n/a
3418128	RECOG_LURE	n/a	LTP087	ltpFR	18	8	n/a	DRAGON	492	4	n/a	n/a	n/a	n/a	n/a	n/a
3418777	RECOG_RESP	n/a	LTP087	ltpFR	18	8	n/a	DRAGON	492	n/a	n/a	n/a	n/a	n/a	n/a	n/a
3419268	RECOG_CONF	n/a	LTP087	ltpFR	18	8	n/a	DRAGON	492	4	n/a	n/a	n/a	n/a	n/a	n/a
3420370	RECOG_LURE	n/a	LTP087	ltpFR	18	8	n/a	TABLET	1427	4	n/a	n/a	n/a	n/a	n/a	n/a
3421152	RECOG_RESP	n/a	LTP087	ltpFR	18	8	n/a	TABLET	1427	n/a	n/a	n/a	n/a	n/a	n/a	n/a
3422160	RECOG_CONF	n/a	LTP087	ltpFR	18	8	n/a	TABLET	1427	4	n/a	n/a	n/a	n/a	n/a	n/a
3423386	RECOG_TARGET	n/a	LTP087	ltpFR	18	8	0	VIOLA	1570	5	0	n/a	n/a	n/a	n/a	n/a
3424105	RECOG_RESP	n/a	LTP087	ltpFR	18	8	0	VIOLA	1570	n/a	0	n/a	n/a	n/a	n/a	n/a
3424489	RECOG_CONF	n/a	LTP087	ltpFR	18	8	0	VIOLA	1570	5	0	n/a	n/a	n/a	n/a	n/a
3425736	RECOG_TARGET	n/a	LTP087	ltpFR	18	8	-1	ROBE	1198	5	-1	n/a	n/a	n/a	n/a	n/a
3426041	RECOG_RESP	n/a	LTP087	ltpFR	18	8	-1	ROBE	1198	n/a	-1	n/a	n/a	n/a	n/a	n/a
3426510	RECOG_CONF	n/a	LTP087	ltpFR	18	8	-1	ROBE	1198	5	-1	n/a	n/a	n/a	n/a	n/a
3427653	RECOG_TARGET	n/a	LTP087	ltpFR	18	8	1	EMPLOYEE	531	4	1	n/a	n/a	n/a	n/a	n/a
3427946	RECOG_RESP	n/a	LTP087	ltpFR	18	8	1	EMPLOYEE	531	n/a	1	n/a	n/a	n/a	n/a	n/a
3428326	RECOG_CONF	n/a	LTP087	ltpFR	18	8	1	EMPLOYEE	531	4	1	n/a	n/a	n/a	n/a	n/a
3429544	RECOG_TARGET	n/a	LTP087	ltpFR	18	8	-1	SHORTCAKE	1292	5	-1	n/a	n/a	n/a	n/a	n/a
3429732	RECOG_RESP	n/a	LTP087	ltpFR	18	8	-1	SHORTCAKE	1292	n/a	-1	n/a	n/a	n/a	n/a	n/a
3430159	RECOG_CONF	n/a	LTP087	ltpFR	18	8	-1	SHORTCAKE	1292	5	-1	n/a	n/a	n/a	n/a	n/a
3431352	RECOG_TARGET	n/a	LTP087	ltpFR	18	8	-1	ALMANAC	17	4	-1	n/a	n/a	n/a	n/a	n/a
3431628	RECOG_RESP	n/a	LTP087	ltpFR	18	8	-1	ALMANAC	17	n/a	-1	n/a	n/a	n/a	n/a	n/a
3432007	RECOG_CONF	n/a	LTP087	ltpFR	18	8	-1	ALMANAC	17	4	-1	n/a	n/a	n/a	n/a	n/a
3433369	RECOG_TARGET	n/a	LTP087	ltpFR	18	8	1	BROOK	177	4	0	n/a	n/a	n/a	n/a	n/a
3433554	RECOG_RESP	n/a	LTP087	ltpFR	18	8	1	BROOK	177	n/a	0	n/a	n/a	n/a	n/a	n/a
3433953	RECOG_CONF	n/a	LTP087	ltpFR	18	8	1	BROOK	177	4	0	n/a	n/a	n/a	n/a	n/a
3435127	RECOG_TARGET	n/a	LTP087	ltpFR	18	8	1	HORIZON	717	4	0	n/a	n/a	n/a	n/a	n/a
3435280	RECOG_RESP	n/a	LTP087	ltpFR	18	8	1	HORIZON	717	n/a	0	n/a	n/a	n/a	n/a	n/a
3435699	RECOG_CONF	n/a	LTP087	ltpFR	18	8	1	HORIZON	717	4	0	n/a	n/a	n/a	n/a	n/a
3436851	RECOG_TARGET	n/a	LTP087	ltpFR	18	8	-1	FISH	571	4	-1	n/a	n/a	n/a	n/a	n/a
3437076	RECOG_RESP	n/a	LTP087	ltpFR	18	8	-1	FISH	571	n/a	-1	n/a	n/a	n/a	n/a	n/a
3437495	RECOG_CONF	n/a	LTP087	ltpFR	18	8	-1	FISH	571	4	-1	n/a	n/a	n/a	n/a	n/a
3438768	RECOG_TARGET	n/a	LTP087	ltpFR	18	8	0	POISON	1096	4	0	n/a	n/a	n/a	n/a	n/a
3439011	RECOG_RESP	n/a	LTP087	ltpFR	18	8	0	POISON	1096	n/a	0	n/a	n/a	n/a	n/a	n/a
3439410	RECOG_CONF	n/a	LTP087	ltpFR	18	8	0	POISON	1096	4	0	n/a	n/a	n/a	n/a	n/a
3440702	RECOG_TARGET	n/a	LTP087	ltpFR	18	8	1	FRIEND	606	4	1	n/a	n/a	n/a	n/a	n/a
3440937	RECOG_RESP	n/a	LTP087	ltpFR	18	8	1	FRIEND	606	n/a	1	n/a	n/a	n/a	n/a	n/a
3441336	RECOG_CONF	n/a	LTP087	ltpFR	18	8	1	FRIEND	606	4	1	n/a	n/a	n/a	n/a	n/a
3442601	RECOG_TARGET	n/a	LTP087	ltpFR	18	8	0	COW	393	5	1	n/a	n/a	n/a	n/a	n/a
3442882	RECOG_RESP	n/a	LTP087	ltpFR	18	8	0	COW	393	n/a	1	n/a	n/a	n/a	n/a	n/a
3443242	RECOG_CONF	n/a	LTP087	ltpFR	18	8	0	COW	393	5	1	n/a	n/a	n/a	n/a	n/a
3444501	RECOG_TARGET	n/a	LTP087	ltpFR	18	8	-1	COWBOY	395	4	-1	n/a	n/a	n/a	n/a	n/a
3444708	RECOG_RESP	n/a	LTP087	ltpFR	18	8	-1	COWBOY	395	n/a	-1	n/a	n/a	n/a	n/a	n/a
3445087	RECOG_CONF	n/a	LTP087	ltpFR	18	8	-1	COWBOY	395	4	-1	n/a	n/a	n/a	n/a	n/a
3446418	RECOG_TARGET	n/a	LTP087	ltpFR	18	8	-1	MOWER	928	4	-1	n/a	n/a	n/a	n/a	n/a
3446714	RECOG_RESP	n/a	LTP087	ltpFR	18	8	-1	MOWER	928	n/a	-1	n/a	n/a	n/a	n/a	n/a
3447921	RECOG_CONF	n/a	LTP087	ltpFR	18	8	-1	MOWER	928	4	-1	n/a	n/a	n/a	n/a	n/a
3448925	RECOG_TARGET	n/a	LTP087	ltpFR	18	8	1	PAN	1008	5	0	n/a	n/a	n/a	n/a	n/a
3449288	RECOG_RESP	n/a	LTP087	ltpFR	18	8	1	PAN	1008	n/a	0	n/a	n/a	n/a	n/a	n/a
3449757	RECOG_CONF	n/a	LTP087	ltpFR	18	8	1	PAN	1008	5	0	n/a	n/a	n/a	n/a	n/a
3451016	RECOG_TARGET	n/a	LTP087	ltpFR	18	8	-1	NEWSSTAND	949	5	-1	n/a	n/a	n/a	n/a	n/a
3451273	RECOG_RESP	n/a	LTP087	ltpFR	18	8	-1	NEWSSTAND	949	n/a	-1	n/a	n/a	n/a	n/a	n/a
3451785	RECOG_CONF	n/a	LTP087	ltpFR	18	8	-1	NEWSSTAND	949	5	-1	n/a	n/a	n/a	n/a	n/a
3452975	RECOG_TARGET	n/a	LTP087	ltpFR	18	8	0	BRIEFCASE	175	4	0	n/a	n/a	n/a	n/a	n/a
3453369	RECOG_RESP	n/a	LTP087	ltpFR	18	8	0	BRIEFCASE	175	n/a	0	n/a	n/a	n/a	n/a	n/a
3453778	RECOG_CONF	n/a	LTP087	ltpFR	18	8	0	BRIEFCASE	175	4	0	n/a	n/a	n/a	n/a	n/a
3455008	RECOG_LURE	n/a	LTP087	ltpFR	18	8	n/a	QUILL	1150	4	n/a	n/a	n/a	n/a	n/a	n/a
3455344	RECOG_RESP	n/a	LTP087	ltpFR	18	8	n/a	QUILL	1150	n/a	n/a	n/a	n/a	n/a	n/a	n/a
3455783	RECOG_CONF	n/a	LTP087	ltpFR	18	8	n/a	QUILL	1150	4	n/a	n/a	n/a	n/a	n/a	n/a
3458694	REC_START	n/a	LTP087	ltpFR	18	9	n/a	n/a	n/a	n/a	n/a	n/a	n/a	n/a	n/a	n/a
3458725	RECOG_TARGET	n/a	LTP087	ltpFR	18	9	0	CALF	222	4	1	n/a	n/a	n/a	n/a	n/a
3459208	RECOG_RESP	n/a	LTP087	ltpFR	18	9	0	CALF	222	n/a	1	n/a	n/a	n/a	n/a	n/a
3459597	RECOG_CONF	n/a	LTP087	ltpFR	18	9	0	CALF	222	4	1	n/a	n/a	n/a	n/a	n/a
3461074	RECOG_TARGET	n/a	LTP087	ltpFR	18	9	0	COMET	353	4	0	n/a	n/a	n/a	n/a	n/a
3461283	RECOG_RESP	n/a	LTP087	ltpFR	18	9	0	COMET	353	n/a	0	n/a	n/a	n/a	n/a	n/a
3461672	RECOG_CONF	n/a	LTP087	ltpFR	18	9	0	COMET	353	4	0	n/a	n/a	n/a	n/a	n/a
3462965	RECOG_TARGET	n/a	LTP087	ltpFR	18	9	-1	TART	1436	4	-1	n/a	n/a	n/a	n/a	n/a
3463149	RECOG_RESP	n/a	LTP087	ltpFR	18	9	-1	TART	1436	n/a	-1	n/a	n/a	n/a	n/a	n/a
3463640	RECOG_CONF	n/a	LTP087	ltpFR	18	9	-1	TART	1436	4	-1	n/a	n/a	n/a	n/a	n/a
3464791	RECOG_LURE	n/a	LTP087	ltpFR	18	9	n/a	FIG	563	4	n/a	n/a	n/a	n/a	n/a	n/a
3464905	RECOG_RESP	n/a	LTP087	ltpFR	18	9	n/a	FIG	563	n/a	n/a	n/a	n/a	n/a	n/a	n/a
3465284	RECOG_CONF	n/a	LTP087	ltpFR	18	9	n/a	FIG	563	4	n/a	n/a	n/a	n/a	n/a	n/a
3466741	RECOG_TARGET	n/a	LTP087	ltpFR	18	9	0	SHOVEL	1295	4	0	n/a	n/a	n/a	n/a	n/a
3467040	RECOG_RESP	n/a	LTP087	ltpFR	18	9	0	SHOVEL	1295	n/a	0	n/a	n/a	n/a	n/a	n/a
3467509	RECOG_CONF	n/a	LTP087	ltpFR	18	9	0	SHOVEL	1295	4	0	n/a	n/a	n/a	n/a	n/a
3468724	RECOG_LURE	n/a	LTP087	ltpFR	18	9	n/a	CENT	270	4	n/a	n/a	n/a	n/a	n/a	n/a
3469375	RECOG_RESP	n/a	LTP087	ltpFR	18	9	n/a	CENT	270	n/a	n/a	n/a	n/a	n/a	n/a	n/a
3469843	RECOG_CONF	n/a	LTP087	ltpFR	18	9	n/a	CENT	270	4	n/a	n/a	n/a	n/a	n/a	n/a
3470915	RECOG_TARGET	n/a	LTP087	ltpFR	18	9	-1	GRIZZLY	662	4	-1	n/a	n/a	n/a	n/a	n/a
3471590	RECOG_RESP	n/a	LTP087	ltpFR	18	9	-1	GRIZZLY	662	n/a	-1	n/a	n/a	n/a	n/a	n/a
3472029	RECOG_CONF	n/a	LTP087	ltpFR	18	9	-1	GRIZZLY	662	4	-1	n/a	n/a	n/a	n/a	n/a
3473307	RECOG_TARGET	n/a	LTP087	ltpFR	18	9	0	DOOR	486	4	1	n/a	n/a	n/a	n/a	n/a
3473725	RECOG_RESP	n/a	LTP087	ltpFR	18	9	0	DOOR	486	n/a	1	n/a	n/a	n/a	n/a	n/a
3474114	RECOG_CONF	n/a	LTP087	ltpFR	18	9	0	DOOR	486	4	1	n/a	n/a	n/a	n/a	n/a
3475532	RECOG_TARGET	n/a	LTP087	ltpFR	18	9	1	ROCKET	1202	4	1	n/a	n/a	n/a	n/a	n/a
3475690	RECOG_RESP	n/a	LTP087	ltpFR	18	9	1	ROCKET	1202	n/a	1	n/a	n/a	n/a	n/a	n/a
3476181	RECOG_CONF	n/a	LTP087	ltpFR	18	9	1	ROCKET	1202	4	1	n/a	n/a	n/a	n/a	n/a
3477557	RECOG_LURE	n/a	LTP087	ltpFR	18	9	n/a	GOAT	644	4	n/a	n/a	n/a	n/a	n/a	n/a
3477755	RECOG_RESP	n/a	LTP087	ltpFR	18	9	n/a	GOAT	644	n/a	n/a	n/a	n/a	n/a	n/a	n/a
3478145	RECOG_CONF	n/a	LTP087	ltpFR	18	9	n/a	GOAT	644	4	n/a	n/a	n/a	n/a	n/a	n/a
3479615	RECOG_TARGET	n/a	LTP087	ltpFR	18	9	0	PADDING	999	4	0	n/a	n/a	n/a	n/a	n/a
3480110	RECOG_RESP	n/a	LTP087	ltpFR	18	9	0	PADDING	999	n/a	0	n/a	n/a	n/a	n/a	n/a
3480579	RECOG_CONF	n/a	LTP087	ltpFR	18	9	0	PADDING	999	4	0	n/a	n/a	n/a	n/a	n/a
3482140	RECOG_TARGET	n/a	LTP087	ltpFR	18	9	1	GLACIER	638	4	1	n/a	n/a	n/a	n/a	n/a
3482694	RECOG_RESP	n/a	LTP087	ltpFR	18	9	1	GLACIER	638	n/a	1	n/a	n/a	n/a	n/a	n/a
3483113	RECOG_CONF	n/a	LTP087	ltpFR	18	9	1	GLACIER	638	4	1	n/a	n/a	n/a	n/a	n/a
3484523	RECOG_TARGET	n/a	LTP087	ltpFR	18	9	-1	WATER	1594	4	-1	n/a	n/a	n/a	n/a	n/a
3485019	RECOG_RESP	n/a	LTP087	ltpFR	18	9	-1	WATER	1594	n/a	-1	n/a	n/a	n/a	n/a	n/a
3485498	RECOG_CONF	n/a	LTP087	ltpFR	18	9	-1	WATER	1594	4	-1	n/a	n/a	n/a	n/a	n/a
3486872	RECOG_LURE	n/a	LTP087	ltpFR	18	9	n/a	CONCERT	360	5	n/a	n/a	n/a	n/a	n/a	n/a
3487663	RECOG_RESP	n/a	LTP087	ltpFR	18	9	n/a	CONCERT	360	n/a	n/a	n/a	n/a	n/a	n/a	n/a
3488196	RECOG_CONF	n/a	LTP087	ltpFR	18	9	n/a	CONCERT	360	5	n/a	n/a	n/a	n/a	n/a	n/a
3489440	RECOG_TARGET	n/a	LTP087	ltpFR	18	9	0	TOMB	1477	4	0	n/a	n/a	n/a	n/a	n/a
3489888	RECOG_RESP	n/a	LTP087	ltpFR	18	9	0	TOMB	1477	n/a	0	n/a	n/a	n/a	n/a	n/a
3490379	RECOG_CONF	n/a	LTP087	ltpFR	18	9	0	TOMB	1477	4	0	n/a	n/a	n/a	n/a	n/a
3491364	RECOG_TARGET	n/a	LTP087	ltpFR	18	9	-1	TOOL	1480	4	-1	n/a	n/a	n/a	n/a	n/a
3492552	RECOG_RESP	n/a	LTP087	ltpFR	18	9	-1	TOOL	1480	n/a	-1	n/a	n/a	n/a	n/a	n/a
3493077	RECOG_CONF	n/a	LTP087	ltpFR	18	9	-1	TOOL	1480	4	-1	n/a	n/a	n/a	n/a	n/a
3494281	RECOG_TARGET	n/a	LTP087	ltpFR	18	9	0	CAP	236	2	0	n/a	n/a	n/a	n/a	n/a
3494867	RECOG_RESP	n/a	LTP087	ltpFR	18	9	0	CAP	236	n/a	0	n/a	n/a	n/a	n/a	n/a
3495256	RECOG_CONF	n/a	LTP087	ltpFR	18	9	0	CAP	236	2	0	n/a	n/a	n/a	n/a	n/a
3496664	RECOG_TARGET	n/a	LTP087	ltpFR	18	9	0	BROTHER	179	5	1	n/a	n/a	n/a	n/a	n/a
3497321	RECOG_RESP	n/a	LTP087	ltpFR	18	9	0	BROTHER	179	n/a	1	n/a	n/a	n/a	n/a	n/a
3497748	RECOG_CONF	n/a	LTP087	ltpFR	18	9	0	BROTHER	179	5	1	n/a	n/a	n/a	n/a	n/a
3498971	RECOG_TARGET	n/a	LTP087	ltpFR	18	9	0	ROBOT	1200	4	1	n/a	n/a	n/a	n/a	n/a
3499376	RECOG_RESP	n/a	LTP087	ltpFR	18	9	0	ROBOT	1200	n/a	1	n/a	n/a	n/a	n/a	n/a
3499824	RECOG_CONF	n/a	LTP087	ltpFR	18	9	0	ROBOT	1200	4	1	n/a	n/a	n/a	n/a	n/a
3500929	RECOG_LURE	n/a	LTP087	ltpFR	18	9	n/a	TRAY	1498	4	n/a	n/a	n/a	n/a	n/a	n/a
3501282	RECOG_RESP	n/a	LTP087	ltpFR	18	9	n/a	TRAY	1498	n/a	n/a	n/a	n/a	n/a	n/a	n/a
3501773	RECOG_CONF	n/a	LTP087	ltpFR	18	9	n/a	TRAY	1498	4	n/a	n/a	n/a	n/a	n/a	n/a
3504674	REC_START	n/a	LTP087	ltpFR	18	10	n/a	n/a	n/a	n/a	n/a	n/a	n/a	n/a	n/a	n/a
3504705	RECOG_TARGET	n/a	LTP087	ltpFR	18	10	-1	BEAR	106	4	-1	n/a	n/a	n/a	n/a	n/a
3505248	RECOG_RESP	n/a	LTP087	ltpFR	18	10	-1	BEAR	106	n/a	-1	n/a	n/a	n/a	n/a	n/a
3505647	RECOG_CONF	n/a	LTP087	ltpFR	18	10	-1	BEAR	106	4	-1	n/a	n/a	n/a	n/a	n/a
3506954	RECOG_LURE	n/a	LTP087	ltpFR	18	10	n/a	NEUTRON	947	4	n/a	n/a	n/a	n/a	n/a	n/a
3507293	RECOG_RESP	n/a	LTP087	ltpFR	18	10	n/a	NEUTRON	947	n/a	n/a	n/a	n/a	n/a	n/a	n/a
3507662	RECOG_CONF	n/a	LTP087	ltpFR	18	10	n/a	NEUTRON	947	4	n/a	n/a	n/a	n/a	n/a	n/a
3509045	RECOG_TARGET	n/a	LTP087	ltpFR	18	10	-1	RIBBON	1189	4	-1	n/a	n/a	n/a	n/a	n/a
3509508	RECOG_RESP	n/a	LTP087	ltpFR	18	10	-1	RIBBON	1189	n/a	-1	n/a	n/a	n/a	n/a	n/a
3510735	RECOG_CONF	n/a	LTP087	ltpFR	18	10	-1	RIBBON	1189	4	-1	n/a	n/a	n/a	n/a	n/a
3511837	RECOG_TARGET	n/a	LTP087	ltpFR	18	10	0	SUPPER	1411	4	0	n/a	n/a	n/a	n/a	n/a
3512331	RECOG_RESP	n/a	LTP087	ltpFR	18	10	0	SUPPER	1411	n/a	0	n/a	n/a	n/a	n/a	n/a
3512736	RECOG_CONF	n/a	LTP087	ltpFR	18	10	0	SUPPER	1411	4	0	n/a	n/a	n/a	n/a	n/a
3514329	RECOG_TARGET	n/a	LTP087	ltpFR	18	10	1	VINE	1568	4	0	n/a	n/a	n/a	n/a	n/a
3514621	RECOG_RESP	n/a	LTP087	ltpFR	18	10	1	VINE	1568	n/a	0	n/a	n/a	n/a	n/a	n/a
3514985	RECOG_CONF	n/a	LTP087	ltpFR	18	10	1	VINE	1568	4	0	n/a	n/a	n/a	n/a	n/a
3516512	RECOG_LURE	n/a	LTP087	ltpFR	18	10	n/a	VALVE	1546	4	n/a	n/a	n/a	n/a	n/a	n/a
3516801	RECOG_RESP	n/a	LTP087	ltpFR	18	10	n/a	VALVE	1546	n/a	n/a	n/a	n/a	n/a	n/a	n/a
3517270	RECOG_CONF	n/a	LTP087	ltpFR	18	10	n/a	VALVE	1546	4	n/a	n/a	n/a	n/a	n/a	n/a
3518637	RECOG_LURE	n/a	LTP087	ltpFR	18	10	n/a	LUGGAGE	847	4	n/a	n/a	n/a	n/a	n/a	n/a
3519814	RECOG_RESP	n/a	LTP087	ltpFR	18	10	n/a	LUGGAGE	847	n/a	n/a	n/a	n/a	n/a	n/a	n/a
3520194	RECOG_CONF	n/a	LTP087	ltpFR	18	10	n/a	LUGGAGE	847	4	n/a	n/a	n/a	n/a	n/a	n/a
3521470	RECOG_TARGET	n/a	LTP087	ltpFR	18	10	1	PERMIT	1051	4	0	n/a	n/a	n/a	n/a	n/a
3521870	RECOG_RESP	n/a	LTP087	ltpFR	18	10	1	PERMIT	1051	n/a	0	n/a	n/a	n/a	n/a	n/a
3522339	RECOG_CONF	n/a	LTP087	ltpFR	18	10	1	PERMIT	1051	4	0	n/a	n/a	n/a	n/a	n/a
3523529	RECOG_TARGET	n/a	LTP087	ltpFR	18	10	-1	INCENSE	735	4	-1	n/a	n/a	n/a	n/a	n/a
3523885	RECOG_RESP	n/a	LTP087	ltpFR	18	10	-1	INCENSE	735	n/a	-1	n/a	n/a	n/a	n/a	n/a
3524418	RECOG_CONF	n/a	LTP087	ltpFR	18	10	-1	INCENSE	735	4	-1	n/a	n/a	n/a	n/a	n/a
3525553	RECOG_TARGET	n/a	LTP087	ltpFR	18	10	1	KLEENEX	782	4	0	n/a	n/a	n/a	n/a	n/a
3525950	RECOG_RESP	n/a	LTP087	ltpFR	18	10	1	KLEENEX	782	n/a	0	n/a	n/a	n/a	n/a	n/a
3526330	RECOG_CONF	n/a	LTP087	ltpFR	18	10	1	KLEENEX	782	4	0	n/a	n/a	n/a	n/a	n/a
3527595	RECOG_LURE	n/a	LTP087	ltpFR	18	10	n/a	CHICKEN	297	4	n/a	n/a	n/a	n/a	n/a	n/a
3527961	RECOG_RESP	n/a	LTP087	ltpFR	18	10	n/a	CHICKEN	297	n/a	n/a	n/a	n/a	n/a	n/a	n/a
3528345	RECOG_CONF	n/a	LTP087	ltpFR	18	10	n/a	CHICKEN	297	4	n/a	n/a	n/a	n/a	n/a	n/a
3529711	RECOG_TARGET	n/a	LTP087	ltpFR	18	10	0	MOTHER	921	5	0	n/a	n/a	n/a	n/a	n/a
3530430	RECOG_RESP	n/a	LTP087	ltpFR	18	10	0	MOTHER	921	n/a	0	n/a	n/a	n/a	n/a	n/a
3530878	RECOG_CONF	n/a	LTP087	ltpFR	18	10	0	MOTHER	921	5	0	n/a	n/a	n/a	n/a	n/a
3531994	RECOG_TARGET	n/a	LTP087	ltpFR	18	10	-1	NITROGEN	954	4	-1	n/a	n/a	n/a	n/a	n/a
3532356	RECOG_RESP	n/a	LTP087	ltpFR	18	10	-1	NITROGEN	954	n/a	-1	n/a	n/a	n/a	n/a	n/a
3532835	RECOG_CONF	n/a	LTP087	ltpFR	18	10	-1	NITROGEN	954	4	-1	n/a	n/a	n/a	n/a	n/a
3534261	RECOG_TARGET	n/a	LTP087	ltpFR	18	10	0	ERASER	538	4	0	n/a	n/a	n/a	n/a	n/a
3534750	RECOG_RESP	n/a	LTP087	ltpFR	18	10	0	ERASER	538	n/a	0	n/a	n/a	n/a	n/a	n/a
3535309	RECOG_CONF	n/a	LTP087	ltpFR	18	10	0	ERASER	538	4	0	n/a	n/a	n/a	n/a	n/a
3536328	RECOG_TARGET	n/a	LTP087	ltpFR	18	10	1	HOUND	724	4	0	n/a	n/a	n/a	n/a	n/a
3536836	RECOG_RESP	n/a	LTP087	ltpFR	18	10	1	HOUND	724	n/a	0	n/a	n/a	n/a	n/a	n/a
3537345	RECOG_CONF	n/a	LTP087	ltpFR	18	10	1	HOUND	724	4	0	n/a	n/a	n/a	n/a	n/a
3538586	RECOG_TARGET	n/a	LTP087	ltpFR	18	10	1	DESSERT	453	4	0	n/a	n/a	n/a	n/a	n/a
3539111	RECOG_RESP	n/a	LTP087	ltpFR	18	10	1	DESSERT	453	n/a	0	n/a	n/a	n/a	n/a	n/a
3539510	RECOG_CONF	n/a	LTP087	ltpFR	18	10	1	DESSERT	453	4	0	n/a	n/a	n/a	n/a	n/a
3540711	RECOG_TARGET	n/a	LTP087	ltpFR	18	10	-1	MOP	916	4	-1	n/a	n/a	n/a	n/a	n/a
3541515	RECOG_RESP	n/a	LTP087	ltpFR	18	10	-1	MOP	916	n/a	-1	n/a	n/a	n/a	n/a	n/a
3542048	RECOG_CONF	n/a	LTP087	ltpFR	18	10	-1	MOP	916	4	-1	n/a	n/a	n/a	n/a	n/a
3543135	RECOG_TARGET	n/a	LTP087	ltpFR	18	10	0	CHESS	294	4	0	n/a	n/a	n/a	n/a	n/a
3543660	RECOG_RESP	n/a	LTP087	ltpFR	18	10	0	CHESS	294	n/a	0	n/a	n/a	n/a	n/a	n/a
3544059	RECOG_CONF	n/a	LTP087	ltpFR	18	10	0	CHESS	294	4	0	n/a	n/a	n/a	n/a	n/a
3545202	RECOG_TARGET	n/a	LTP087	ltpFR	18	10	-1	JAM	748	4	-1	n/a	n/a	n/a	n/a	n/a
3545691	RECOG_RESP	n/a	LTP087	ltpFR	18	10	-1	JAM	748	n/a	-1	n/a	n/a	n/a	n/a	n/a
3546160	RECOG_CONF	n/a	LTP087	ltpFR	18	10	-1	JAM	748	4	-1	n/a	n/a	n/a	n/a	n/a
3547318	RECOG_LURE	n/a	LTP087	ltpFR	18	10	n/a	SNOB	1335	4	n/a	n/a	n/a	n/a	n/a	n/a
3547651	RECOG_RESP	n/a	LTP087	ltpFR	18	10	n/a	SNOB	1335	n/a	n/a	n/a	n/a	n/a	n/a	n/a
3548040	RECOG_CONF	n/a	LTP087	ltpFR	18	10	n/a	SNOB	1335	4	n/a	n/a	n/a	n/a	n/a	n/a
3550962	REC_START	n/a	LTP087	ltpFR	18	11	n/a	n/a	n/a	n/a	n/a	n/a	n/a	n/a	n/a	n/a
3550992	RECOG_TARGET	n/a	LTP087	ltpFR	18	11	-1	HINGE	709	4	-1	n/a	n/a	n/a	n/a	n/a
3551565	RECOG_RESP	n/a	LTP087	ltpFR	18	11	-1	HINGE	709	n/a	-1	n/a	n/a	n/a	n/a	n/a
3552120	RECOG_CONF	n/a	LTP087	ltpFR	18	11	-1	HINGE	709	4	-1	n/a	n/a	n/a	n/a	n/a
3553210	RECOG_LURE	n/a	LTP087	ltpFR	18	11	n/a	ATTORNEY	58	2	n/a	n/a	n/a	n/a	n/a	n/a
3554738	RECOG_RESP	n/a	LTP087	ltpFR	18	11	n/a	ATTORNEY	58	n/a	n/a	n/a	n/a	n/a	n/a	n/a
3555357	RECOG_CONF	n/a	LTP087	ltpFR	18	11	n/a	ATTORNEY	58	2	n/a	n/a	n/a	n/a	n/a	n/a
3556410	RECOG_LURE	n/a	LTP087	ltpFR	18	11	n/a	CAMEL	223	4	n/a	n/a	n/a	n/a	n/a	n/a
3557043	RECOG_RESP	n/a	LTP087	ltpFR	18	11	n/a	CAMEL	223	n/a	n/a	n/a	n/a	n/a	n/a	n/a
3557598	RECOG_CONF	n/a	LTP087	ltpFR	18	11	n/a	CAMEL	223	4	n/a	n/a	n/a	n/a	n/a	n/a
3559351	RECOG_TARGET	n/a	LTP087	ltpFR	18	11	0	ACTRESS	6	5	1	n/a	n/a	n/a	n/a	n/a
3560066	RECOG_RESP	n/a	LTP087	ltpFR	18	11	0	ACTRESS	6	n/a	1	n/a	n/a	n/a	n/a	n/a
3560535	RECOG_CONF	n/a	LTP087	ltpFR	18	11	0	ACTRESS	6	5	1	n/a	n/a	n/a	n/a	n/a
3561776	RECOG_TARGET	n/a	LTP087	ltpFR	18	11	1	DASHBOARD	441	4	0	n/a	n/a	n/a	n/a	n/a
3562161	RECOG_RESP	n/a	LTP087	ltpFR	18	11	1	DASHBOARD	441	n/a	0	n/a	n/a	n/a	n/a	n/a
3562737	RECOG_CONF	n/a	LTP087	ltpFR	18	11	1	DASHBOARD	441	4	0	n/a	n/a	n/a	n/a	n/a
3564159	RECOG_TARGET	n/a	LTP087	ltpFR	18	11	-1	SPIT	1354	4	-1	n/a	n/a	n/a	n/a	n/a
3564456	RECOG_RESP	n/a	LTP087	ltpFR	18	11	-1	SPIT	1354	n/a	-1	n/a	n/a	n/a	n/a	n/a
3564965	RECOG_CONF	n/a	LTP087	ltpFR	18	11	-1	SPIT	1354	4	-1	n/a	n/a	n/a	n/a	n/a
3566317	RECOG_TARGET	n/a	LTP087	ltpFR	18	11	1	SODA	1341	5	0	n/a	n/a	n/a	n/a	n/a
3566861	RECOG_RESP	n/a	LTP087	ltpFR	18	11	1	SODA	1341	n/a	0	n/a	n/a	n/a	n/a	n/a
3567310	RECOG_CONF	n/a	LTP087	ltpFR	18	11	1	SODA	1341	5	0	n/a	n/a	n/a	n/a	n/a
3568525	RECOG_TARGET	n/a	LTP087	ltpFR	18	11	0	ANCESTOR	20	4	1	n/a	n/a	n/a	n/a	n/a
3568816	RECOG_RESP	n/a	LTP087	ltpFR	18	11	0	ANCESTOR	20	n/a	1	n/a	n/a	n/a	n/a	n/a
3569275	RECOG_CONF	n/a	LTP087	ltpFR	18	11	0	ANCESTOR	20	4	1	n/a	n/a	n/a	n/a	n/a
3570433	RECOG_TARGET	n/a	LTP087	ltpFR	18	11	-1	SALMON	1227	4	-1	n/a	n/a	n/a	n/a	n/a
3571291	RECOG_RESP	n/a	LTP087	ltpFR	18	11	-1	SALMON	1227	n/a	-1	n/a	n/a	n/a	n/a	n/a
3571780	RECOG_CONF	n/a	LTP087	ltpFR	18	11	-1	SALMON	1227	4	-1	n/a	n/a	n/a	n/a	n/a
3573142	RECOG_TARGET	n/a	LTP087	ltpFR	18	11	0	DUNGEON	507	5	1	n/a	n/a	n/a	n/a	n/a
3573481	RECOG_RESP	n/a	LTP087	ltpFR	18	11	0	DUNGEON	507	n/a	1	n/a	n/a	n/a	n/a	n/a
3573905	RECOG_CONF	n/a	LTP087	ltpFR	18	11	0	DUNGEON	507	5	1	n/a	n/a	n/a	n/a	n/a
3575250	RECOG_LURE	n/a	LTP087	ltpFR	18	11	n/a	NEEDLE	941	4	n/a	n/a	n/a	n/a	n/a	n/a
3575561	RECOG_RESP	n/a	LTP087	ltpFR	18	11	n/a	NEEDLE	941	n/a	n/a	n/a	n/a	n/a	n/a	n/a
