mstime	trial_type	stim_file	subject	experiment	session	trial	item_name	item_num	list	answer	test_x	test_y	test_z
0	SESS_START	n/a	LTP246	ltpFR2	16	n/a	n/a	n/a	n/a	n/a	0	0	0
16415	START	n/a	LTP246	ltpFR2	16	n/a	n/a	n/a	-1	n/a	n/a	n/a	n/a
16446	PROB	n/a	LTP246	ltpFR2	16	n/a	n/a	n/a	-1	17	9	3	5
17797	PROB	n/a	LTP246	ltpFR2	16	n/a	n/a	n/a	-1	18	4	8	6
19365	PROB	n/a	LTP246	ltpFR2	16	n/a	n/a	n/a	-1	12	7	2	3
20433	PROB	n/a	LTP246	ltpFR2	16	n/a	n/a	n/a	-1	18	2	9	7
21750	PROB	n/a	LTP246	ltpFR2	16	n/a	n/a	n/a	-1	17	7	5	5
22835	PROB	n/a	LTP246	ltpFR2	16	n/a	n/a	n/a	-1	18	3	8	7
24269	PROB	n/a	LTP246	ltpFR2	16	n/a	n/a	n/a	-1	12	6	3	3
25770	PROB	n/a	LTP246	ltpFR2	16	n/a	n/a	n/a	-1	11	1	3	7
26838	PROB	n/a	LTP246	ltpFR2	16	n/a	n/a	n/a	-1	7	1	5	1
28163	STOP	n/a	LTP246	ltpFR2	16	n/a	n/a	n/a	-1	n/a	n/a	n/a	n/a
159978	DISTRACTOR	n/a	LTP246	ltpFR2	16	1	n/a	n/a	n/a	n/a	0	0	0
159978	START	n/a	LTP246	ltpFR2	16	n/a	n/a	n/a	1	n/a	n/a	n/a	n/a
160011	PROB	n/a	LTP246	ltpFR2	16	n/a	n/a	n/a	1	14	2	5	7
161946	PROB	n/a	LTP246	ltpFR2	16	n/a	n/a	n/a	1	9	3	1	5
163614	PROB	n/a	LTP246	ltpFR2	16	n/a	n/a	n/a	1	17	6	2	9
165114	PROB	n/a	LTP246	ltpFR2	16	n/a	n/a	n/a	1	14	6	4	4
166383	PROB	n/a	LTP246	ltpFR2	16	n/a	n/a	n/a	1	24	6	9	9
168284	PROB	n/a	LTP246	ltpFR2	16	n/a	n/a	n/a	1	19	7	5	7
169802	PROB	n/a	LTP246	ltpFR2	16	n/a	n/a	n/a	1	17	3	8	6
171237	PROB	n/a	LTP246	ltpFR2	16	n/a	n/a	n/a	1	16	9	5	2
172871	PROB	n/a	LTP246	ltpFR2	16	n/a	n/a	n/a	1	17	8	4	5
174239	PROB	n/a	LTP246	ltpFR2	16	n/a	n/a	n/a	1	15	2	5	8
175640	PROB	n/a	LTP246	ltpFR2	16	n/a	n/a	n/a	1	17	4	9	4
178242	PROB	n/a	LTP246	ltpFR2	16	n/a	n/a	n/a	1	13	7	5	1
180043	PROB	n/a	LTP246	ltpFR2	16	n/a	n/a	n/a	1	18	9	1	8
181245	PROB	n/a	LTP246	ltpFR2	16	n/a	n/a	n/a	1	22	4	9	9
182913	STOP	n/a	LTP246	ltpFR2	16	n/a	n/a	n/a	1	n/a	n/a	n/a	n/a
185014	WORD	wordpools/wasnorm_wordpool_576.txt	LTP246	ltpFR2	16	1	CANDY	230	n/a	n/a	0	0	0
187566	WORD	wordpools/wasnorm_wordpool_576.txt	LTP246	ltpFR2	16	1	CHAUFFEUR	283	n/a	n/a	0	0	0
190068	WORD	wordpools/wasnorm_wordpool_576.txt	LTP246	ltpFR2	16	1	TAXI	1438	n/a	n/a	0	0	0
192821	WORD	wordpools/wasnorm_wordpool_576.txt	LTP246	ltpFR2	16	1	AIRPORT	13	n/a	n/a	0	0	0
195356	WORD	wordpools/wasnorm_wordpool_576.txt	LTP246	ltpFR2	16	1	AGENT	10	n/a	n/a	0	0	0
198025	WORD	wordpools/wasnorm_wordpool_576.txt	LTP246	ltpFR2	16	1	TROMBONE	1508	n/a	n/a	0	0	0
200510	WORD	wordpools/wasnorm_wordpool_576.txt	LTP246	ltpFR2	16	1	BATHTUB	100	n/a	n/a	0	0	0
202962	WORD	wordpools/wasnorm_wordpool_576.txt	LTP246	ltpFR2	16	1	OFFICE	972	n/a	n/a	0	0	0
205414	WORD	wordpools/wasnorm_wordpool_576.txt	LTP246	ltpFR2	16	1	WORKER	1621	n/a	n/a	0	0	0
208165	WORD	wordpools/wasnorm_wordpool_576.txt	LTP246	ltpFR2	16	1	SHOVEL	1295	n/a	n/a	0	0	0
210835	WORD	wordpools/wasnorm_wordpool_576.txt	LTP246	ltpFR2	16	1	LAMP	798	n/a	n/a	0	0	0
213420	WORD	wordpools/wasnorm_wordpool_576.txt	LTP246	ltpFR2	16	1	HOUND	724	n/a	n/a	0	0	0
216056	WORD	wordpools/wasnorm_wordpool_576.txt	LTP246	ltpFR2	16	1	PILOT	1070	n/a	n/a	0	0	0
218491	WORD	wordpools/wasnorm_wordpool_576.txt	LTP246	ltpFR2	16	1	POLICE	1098	n/a	n/a	0	0	0
221227	WORD	wordpools/wasnorm_wordpool_576.txt	LTP246	ltpFR2	16	1	SWAMP	1416	n/a	n/a	0	0	0
223979	WORD	wordpools/wasnorm_wordpool_576.txt	LTP246	ltpFR2	16	1	LODGE	839	n/a	n/a	0	0	0
226714	WORD	wordpools/wasnorm_wordpool_576.txt	LTP246	ltpFR2	16	1	SLIDE	1326	n/a	n/a	0	0	0
229516	WORD	wordpools/wasnorm_wordpool_576.txt	LTP246	ltpFR2	16	1	FLUTE	585	n/a	n/a	0	0	0
232352	WORD	wordpools/wasnorm_wordpool_576.txt	LTP246	ltpFR2	16	1	WARDROBE	1587	n/a	n/a	0	0	0
234988	WORD	wordpools/wasnorm_wordpool_576.txt	LTP246	ltpFR2	16	1	TOURIST	1488	n/a	n/a	0	0	0
237439	WORD	wordpools/wasnorm_wordpool_576.txt	LTP246	ltpFR2	16	1	COURSE	390	n/a	n/a	0	0	0
240174	WORD	wordpools/wasnorm_wordpool_576.txt	LTP246	ltpFR2	16	1	SPOUSE	1358	n/a	n/a	0	0	0
242894	WORD	wordpools/wasnorm_wordpool_576.txt	LTP246	ltpFR2	16	1	SERVANT	1271	n/a	n/a	0	0	0
245596	WORD	wordpools/wasnorm_wordpool_576.txt	LTP246	ltpFR2	16	1	APRON	35	n/a	n/a	0	0	0
247213	START	n/a	LTP246	ltpFR2	16	n/a	n/a	n/a	2	n/a	n/a	n/a	n/a
248188	DISTRACTOR	n/a	LTP246	ltpFR2	16	1	n/a	n/a	n/a	n/a	0	0	0
248214	PROB	n/a	LTP246	ltpFR2	16	n/a	n/a	n/a	2	20	9	6	5
249649	PROB	n/a	LTP246	ltpFR2	16	n/a	n/a	n/a	2	16	3	8	5
252468	PROB	n/a	LTP246	ltpFR2	16	n/a	n/a	n/a	2	12	5	3	4
254503	PROB	n/a	LTP246	ltpFR2	16	n/a	n/a	n/a	2	16	7	5	4
257322	PROB	n/a	LTP246	ltpFR2	16	n/a	n/a	n/a	2	19	9	2	8
258907	PROB	n/a	LTP246	ltpFR2	16	n/a	n/a	n/a	2	14	6	7	1
260291	PROB	n/a	LTP246	ltpFR2	16	n/a	n/a	n/a	2	17	8	5	4
261459	PROB	n/a	LTP246	ltpFR2	16	n/a	n/a	n/a	2	12	2	4	6
262593	PROB	n/a	LTP246	ltpFR2	16	n/a	n/a	n/a	2	16	2	8	6
263827	PROB	n/a	LTP246	ltpFR2	16	n/a	n/a	n/a	2	19	8	9	2
265111	PROB	n/a	LTP246	ltpFR2	16	n/a	n/a	n/a	2	19	9	3	7
266846	PROB	n/a	LTP246	ltpFR2	16	n/a	n/a	n/a	2	18	9	4	5
267964	PROB	n/a	LTP246	ltpFR2	16	n/a	n/a	n/a	2	25	8	9	8
270588	STOP	n/a	LTP246	ltpFR2	16	n/a	n/a	n/a	2	n/a	n/a	n/a	n/a
273052	REC_START	n/a	LTP246	ltpFR2	16	1	n/a	n/a	n/a	n/a	0	0	0
294735	REC_WORD	wordpools/wasnorm_wordpool_576.txt	LTP246	ltpFR2	16	1	CHAUFFEUR	283	n/a	n/a	0	0	0
296113	REC_WORD	wordpools/wasnorm_wordpool_576.txt	LTP246	ltpFR2	16	1	CANDY	230	n/a	n/a	0	0	0
297813	REC_WORD	wordpools/wasnorm_wordpool_576.txt	LTP246	ltpFR2	16	1	TAXI	1438	n/a	n/a	0	0	0
299531	REC_WORD	wordpools/wasnorm_wordpool_576.txt	LTP246	ltpFR2	16	1	AIRPORT	13	n/a	n/a	0	0	0
301416	REC_WORD	wordpools/wasnorm_wordpool_576.txt	LTP246	ltpFR2	16	1	AGENT	10	n/a	n/a	0	0	0
302614	REC_WORD	wordpools/wasnorm_wordpool_576.txt	LTP246	ltpFR2	16	1	TROMBONE	1508	n/a	n/a	0	0	0
304219	REC_WORD	wordpools/wasnorm_wordpool_576.txt	LTP246	ltpFR2	16	1	BATHTUB	100	n/a	n/a	0	0	0
305424	REC_WORD	wordpools/wasnorm_wordpool_576.txt	LTP246	ltpFR2	16	1	OFFICE	972	n/a	n/a	0	0	0
306517	REC_WORD	wordpools/wasnorm_wordpool_576.txt	LTP246	ltpFR2	16	1	WORKER	1621	n/a	n/a	0	0	0
308471	REC_WORD	wordpools/wasnorm_wordpool_576.txt	LTP246	ltpFR2	16	1	SHOVEL	1295	n/a	n/a	0	0	0
310058	REC_WORD	wordpools/wasnorm_wordpool_576.txt	LTP246	ltpFR2	16	1	LAMP	798	n/a	n/a	0	0	0
312851	REC_WORD	wordpools/wasnorm_wordpool_576.txt	LTP246	ltpFR2	16	1	HOUND	724	n/a	n/a	0	0	0
316131	REC_WORD	wordpools/wasnorm_wordpool_576.txt	LTP246	ltpFR2	16	1	PILOT	1070	n/a	n/a	0	0	0
323907	REC_WORD	wordpools/wasnorm_wordpool_576.txt	LTP246	ltpFR2	16	1	SWAMP	1416	n/a	n/a	0	0	0
325173	REC_WORD	wordpools/wasnorm_wordpool_576.txt	LTP246	ltpFR2	16	1	LODGE	839	n/a	n/a	0	0	0
326214	REC_WORD_VV	wordpools/wasnorm_wordpool_576.txt	LTP246	ltpFR2	16	1	<>	-1	n/a	n/a	0	0	0
326724	REC_WORD	wordpools/wasnorm_wordpool_576.txt	LTP246	ltpFR2	16	1	SLIDE	1326	n/a	n/a	0	0	0
327800	REC_WORD	wordpools/wasnorm_wordpool_576.txt	LTP246	ltpFR2	16	1	FLUTE	585	n/a	n/a	0	0	0
343982	REC_WORD	wordpools/wasnorm_wordpool_576.txt	LTP246	ltpFR2	16	1	SPOUSE	1358	n/a	n/a	0	0	0
344883	REC_WORD	wordpools/wasnorm_wordpool_576.txt	LTP246	ltpFR2	16	1	SERVANT	1271	n/a	n/a	0	0	0
346033	REC_WORD	wordpools/wasnorm_wordpool_576.txt	LTP246	ltpFR2	16	1	APRON	35	n/a	n/a	0	0	0
363707	WORD	wordpools/wasnorm_wordpool_576.txt	LTP246	ltpFR2	16	2	PACKAGE	997	n/a	n/a	0	0	0
366208	WORD	wordpools/wasnorm_wordpool_576.txt	LTP246	ltpFR2	16	2	ORANGE	980	n/a	n/a	0	0	0
368911	WORD	wordpools/wasnorm_wordpool_576.txt	LTP246	ltpFR2	16	2	VELVET	1555	n/a	n/a	0	0	0
371697	WORD	wordpools/wasnorm_wordpool_576.txt	LTP246	ltpFR2	16	2	MILK	895	n/a	n/a	0	0	0
374282	WORD	wordpools/wasnorm_wordpool_576.txt	LTP246	ltpFR2	16	2	CATTLE	261	n/a	n/a	0	0	0
376851	WORD	wordpools/wasnorm_wordpool_576.txt	LTP246	ltpFR2	16	2	SIBLING	1301	n/a	n/a	0	0	0
379586	WORD	wordpools/wasnorm_wordpool_576.txt	LTP246	ltpFR2	16	2	SHORTS	1293	n/a	n/a	0	0	0
382038	WORD	wordpools/wasnorm_wordpool_576.txt	LTP246	ltpFR2	16	2	PATROL	1027	n/a	n/a	0	0	0
384841	WORD	wordpools/wasnorm_wordpool_576.txt	LTP246	ltpFR2	16	2	BLOUSE	139	n/a	n/a	0	0	0
387409	WORD	wordpools/wasnorm_wordpool_576.txt	LTP246	ltpFR2	16	2	RIFLE	1192	n/a	n/a	0	0	0
389895	WORD	wordpools/wasnorm_wordpool_576.txt	LTP246	ltpFR2	16	2	GROUND	666	n/a	n/a	0	0	0
392463	WORD	wordpools/wasnorm_wordpool_576.txt	LTP246	ltpFR2	16	2	BADGE	68	n/a	n/a	0	0	0
394965	WORD	wordpools/wasnorm_wordpool_576.txt	LTP246	ltpFR2	16	2	CLOTHES	327	n/a	n/a	0	0	0
397734	WORD	wordpools/wasnorm_wordpool_576.txt	LTP246	ltpFR2	16	2	DRESSER	496	n/a	n/a	0	0	0
400503	WORD	wordpools/wasnorm_wordpool_576.txt	LTP246	ltpFR2	16	2	CRUTCH	417	n/a	n/a	0	0	0
402955	WORD	wordpools/wasnorm_wordpool_576.txt	LTP246	ltpFR2	16	2	WITNESS	1618	n/a	n/a	0	0	0
405757	WORD	wordpools/wasnorm_wordpool_576.txt	LTP246	ltpFR2	16	2	OUTLAW	989	n/a	n/a	0	0	0
408543	WORD	wordpools/wasnorm_wordpool_576.txt	LTP246	ltpFR2	16	2	ZIPPER	1636	n/a	n/a	0	0	0
411312	WORD	wordpools/wasnorm_wordpool_576.txt	LTP246	ltpFR2	16	2	GALLON	618	n/a	n/a	0	0	0
413864	WORD	wordpools/wasnorm_wordpool_576.txt	LTP246	ltpFR2	16	2	KNAPSACK	783	n/a	n/a	0	0	0
416583	WORD	wordpools/wasnorm_wordpool_576.txt	LTP246	ltpFR2	16	2	PLAYGROUND	1087	n/a	n/a	0	0	0
419418	WORD	wordpools/wasnorm_wordpool_576.txt	LTP246	ltpFR2	16	2	VICTIM	1562	n/a	n/a	0	0	0
421887	WORD	wordpools/wasnorm_wordpool_576.txt	LTP246	ltpFR2	16	2	LUNCH	849	n/a	n/a	0	0	0
424439	WORD	wordpools/wasnorm_wordpool_576.txt	LTP246	ltpFR2	16	2	MASK	876	n/a	n/a	0	0	0
426057	START	n/a	LTP246	ltpFR2	16	n/a	n/a	n/a	3	n/a	n/a	n/a	n/a
426943	DISTRACTOR	n/a	LTP246	ltpFR2	16	2	n/a	n/a	n/a	n/a	0	0	0
426974	PROB	n/a	LTP246	ltpFR2	16	n/a	n/a	n/a	3	11	7	3	1
428926	PROB	n/a	LTP246	ltpFR2	16	n/a	n/a	n/a	3	8	2	5	1
430744	PROB	n/a	LTP246	ltpFR2	16	n/a	n/a	n/a	3	16	7	3	6
432127	PROB	n/a	LTP246	ltpFR2	16	n/a	n/a	n/a	3	18	9	3	6
434146	PROB	n/a	LTP246	ltpFR2	16	n/a	n/a	n/a	3	19	7	9	3
436398	PROB	n/a	LTP246	ltpFR2	16	n/a	n/a	n/a	3	17	7	2	8
437599	PROB	n/a	LTP246	ltpFR2	16	n/a	n/a	n/a	3	12	1	9	2
439067	PROB	n/a	LTP246	ltpFR2	16	n/a	n/a	n/a	3	18	4	5	9
440200	PROB	n/a	LTP246	ltpFR2	16	n/a	n/a	n/a	3	20	7	5	8
445022	PROB	n/a	LTP246	ltpFR2	16	n/a	n/a	n/a	3	16	9	3	4
449219	STOP	n/a	LTP246	ltpFR2	16	n/a	n/a	n/a	3	n/a	n/a	n/a	n/a
451995	REC_START	n/a	LTP246	ltpFR2	16	2	n/a	n/a	n/a	n/a	0	0	0
457600	REC_WORD	wordpools/wasnorm_wordpool_576.txt	LTP246	ltpFR2	16	2	PACKAGE	997	n/a	n/a	0	0	0
459052	REC_WORD	wordpools/wasnorm_wordpool_576.txt	LTP246	ltpFR2	16	2	ORANGE	980	n/a	n/a	0	0	0
460236	REC_WORD	wordpools/wasnorm_wordpool_576.txt	LTP246	ltpFR2	16	2	VELVET	1555	n/a	n/a	0	0	0
462725	REC_WORD	wordpools/wasnorm_wordpool_576.txt	LTP246	ltpFR2	16	2	MILK	895	n/a	n/a	0	0	0
473690	REC_WORD	wordpools/wasnorm_wordpool_576.txt	LTP246	ltpFR2	16	2	CATTLE	261	n/a	n/a	0	0	0
476301	REC_WORD	wordpools/wasnorm_wordpool_576.txt	LTP246	ltpFR2	16	2	SIBLING	1301	n/a	n/a	0	0	0
480541	REC_WORD	wordpools/wasnorm_wordpool_576.txt	LTP246	ltpFR2	16	2	SHORTS	1293	n/a	n/a	0	0	0
485247	REC_WORD	wordpools/wasnorm_wordpool_576.txt	LTP246	ltpFR2	16	2	PATROL	1027	n/a	n/a	0	0	0
489576	REC_WORD	wordpools/wasnorm_wordpool_576.txt	LTP246	ltpFR2	16	2	BLOUSE	139	n/a	n/a	0	0	0
491025	REC_WORD	wordpools/wasnorm_wordpool_576.txt	LTP246	ltpFR2	16	2	RIFLE	1192	n/a	n/a	0	0	0
492945	REC_WORD	wordpools/wasnorm_wordpool_576.txt	LTP246	ltpFR2	16	2	GROUND	666	n/a	n/a	0	0	0
508855	REC_WORD	wordpools/wasnorm_wordpool_576.txt	LTP246	ltpFR2	16	2	WITNESS	1618	n/a	n/a	0	0	0
509979	REC_WORD	wordpools/wasnorm_wordpool_576.txt	LTP246	ltpFR2	16	2	ZIPPER	1636	n/a	n/a	0	0	0
511175	REC_WORD	wordpools/wasnorm_wordpool_576.txt	LTP246	ltpFR2	16	2	KNAPSACK	783	n/a	n/a	0	0	0
512515	REC_WORD	wordpools/wasnorm_wordpool_576.txt	LTP246	ltpFR2	16	2	GALLON	618	n/a	n/a	0	0	0
513507	REC_WORD	wordpools/wasnorm_wordpool_576.txt	LTP246	ltpFR2	16	2	PLAYGROUND	1087	n/a	n/a	0	0	0
514692	REC_WORD	wordpools/wasnorm_wordpool_576.txt	LTP246	ltpFR2	16	2	VICTIM	1562	n/a	n/a	0	0	0
515757	REC_WORD	wordpools/wasnorm_wordpool_576.txt	LTP246	ltpFR2	16	2	LUNCH	849	n/a	n/a	0	0	0
516846	REC_WORD	wordpools/wasnorm_wordpool_576.txt	LTP246	ltpFR2	16	2	MASK	876	n/a	n/a	0	0	0
542633	DISTRACTOR	n/a	LTP246	ltpFR2	16	3	n/a	n/a	n/a	n/a	0	0	0
542633	START	n/a	LTP246	ltpFR2	16	n/a	n/a	n/a	4	n/a	n/a	n/a	n/a
542666	PROB	n/a	LTP246	ltpFR2	16	n/a	n/a	n/a	4	18	6	7	5
544635	PROB	n/a	LTP246	ltpFR2	16	n/a	n/a	n/a	4	11	1	9	1
545819	PROB	n/a	LTP246	ltpFR2	16	n/a	n/a	n/a	4	23	9	6	8
549839	PROB	n/a	LTP246	ltpFR2	16	n/a	n/a	n/a	4	13	1	9	3
551357	PROB	n/a	LTP246	ltpFR2	16	n/a	n/a	n/a	4	16	4	8	3
552891	PROB	n/a	LTP246	ltpFR2	16	n/a	n/a	n/a	4	17	7	6	4
554208	PROB	n/a	LTP246	ltpFR2	16	n/a	n/a	n/a	4	14	4	5	5
555560	PROB	n/a	LTP246	ltpFR2	16	n/a	n/a	n/a	4	14	6	5	3
558362	PROB	n/a	LTP246	ltpFR2	16	n/a	n/a	n/a	4	16	9	1	6
559613	PROB	n/a	LTP246	ltpFR2	16	n/a	n/a	n/a	4	15	8	4	3
561398	PROB	n/a	LTP246	ltpFR2	16	n/a	n/a	n/a	4	19	6	6	7
563216	PROB	n/a	LTP246	ltpFR2	16	n/a	n/a	n/a	4	7	2	1	4
564367	PROB	n/a	LTP246	ltpFR2	16	n/a	n/a	n/a	4	10	4	2	4
565831	STOP	n/a	LTP246	ltpFR2	16	n/a	n/a	n/a	4	n/a	n/a	n/a	n/a
567703	WORD	wordpools/wasnorm_wordpool_576.txt	LTP246	ltpFR2	16	3	FOREHEAD	592	n/a	n/a	0	0	0
570188	WORD	wordpools/wasnorm_wordpool_576.txt	LTP246	ltpFR2	16	3	ORCHID	982	n/a	n/a	0	0	0
572674	WORD	wordpools/wasnorm_wordpool_576.txt	LTP246	ltpFR2	16	3	GARDEN	623	n/a	n/a	0	0	0
575309	WORD	wordpools/wasnorm_wordpool_576.txt	LTP246	ltpFR2	16	3	BANK	83	n/a	n/a	0	0	0
578061	WORD	wordpools/wasnorm_wordpool_576.txt	LTP246	ltpFR2	16	3	SWITCH	1422	n/a	n/a	0	0	0
580597	WORD	wordpools/wasnorm_wordpool_576.txt	LTP246	ltpFR2	16	3	SEAL	1262	n/a	n/a	0	0	0
583382	WORD	wordpools/wasnorm_wordpool_576.txt	LTP246	ltpFR2	16	3	PERFUME	1049	n/a	n/a	0	0	0
585868	WORD	wordpools/wasnorm_wordpool_576.txt	LTP246	ltpFR2	16	3	FREEZER	604	n/a	n/a	0	0	0
588537	WORD	wordpools/wasnorm_wordpool_576.txt	LTP246	ltpFR2	16	3	BRACES	164	n/a	n/a	0	0	0
591355	WORD	wordpools/wasnorm_wordpool_576.txt	LTP246	ltpFR2	16	3	PRINCE	1124	n/a	n/a	0	0	0
594091	WORD	wordpools/wasnorm_wordpool_576.txt	LTP246	ltpFR2	16	3	BUCKET	184	n/a	n/a	0	0	0
596576	WORD	wordpools/wasnorm_wordpool_576.txt	LTP246	ltpFR2	16	3	TREAT	1501	n/a	n/a	0	0	0
599062	WORD	wordpools/wasnorm_wordpool_576.txt	LTP246	ltpFR2	16	3	PASTRY	1022	n/a	n/a	0	0	0
601864	WORD	wordpools/wasnorm_wordpool_576.txt	LTP246	ltpFR2	16	3	MAILBOX	857	n/a	n/a	0	0	0
604316	WORD	wordpools/wasnorm_wordpool_576.txt	LTP246	ltpFR2	16	3	VIKING	1565	n/a	n/a	0	0	0
607001	WORD	wordpools/wasnorm_wordpool_576.txt	LTP246	ltpFR2	16	3	PROTON	1132	n/a	n/a	0	0	0
609737	WORD	wordpools/wasnorm_wordpool_576.txt	LTP246	ltpFR2	16	3	THIEF	1456	n/a	n/a	0	0	0
612389	WORD	wordpools/wasnorm_wordpool_576.txt	LTP246	ltpFR2	16	3	BULLET	194	n/a	n/a	0	0	0
614908	WORD	wordpools/wasnorm_wordpool_576.txt	LTP246	ltpFR2	16	3	STOVE	1388	n/a	n/a	0	0	0
617376	WORD	wordpools/wasnorm_wordpool_576.txt	LTP246	ltpFR2	16	3	FRECKLE	602	n/a	n/a	0	0	0
619828	WORD	wordpools/wasnorm_wordpool_576.txt	LTP246	ltpFR2	16	3	ACTOR	5	n/a	n/a	0	0	0
622430	WORD	wordpools/wasnorm_wordpool_576.txt	LTP246	ltpFR2	16	3	STALLION	1369	n/a	n/a	0	0	0
624932	WORD	wordpools/wasnorm_wordpool_576.txt	LTP246	ltpFR2	16	3	COWBOY	395	n/a	n/a	0	0	0
627584	WORD	wordpools/wasnorm_wordpool_576.txt	LTP246	ltpFR2	16	3	SLUG	1329	n/a	n/a	0	0	0
629201	START	n/a	LTP246	ltpFR2	16	n/a	n/a	n/a	5	n/a	n/a	n/a	n/a
630103	DISTRACTOR	n/a	LTP246	ltpFR2	16	3	n/a	n/a	n/a	n/a	0	0	0
630119	PROB	n/a	LTP246	ltpFR2	16	n/a	n/a	n/a	5	17	2	9	6
632170	PROB	n/a	LTP246	ltpFR2	16	n/a	n/a	n/a	5	8	1	4	3
633356	PROB	n/a	LTP246	ltpFR2	16	n/a	n/a	n/a	5	13	1	7	5
635674	PROB	n/a	LTP246	ltpFR2	16	n/a	n/a	n/a	5	14	6	6	2
637242	PROB	n/a	LTP246	ltpFR2	16	n/a	n/a	n/a	5	10	6	1	3
638376	PROB	n/a	LTP246	ltpFR2	16	n/a	n/a	n/a	5	17	7	7	3
640094	PROB	n/a	LTP246	ltpFR2	16	n/a	n/a	n/a	5	16	5	3	8
642396	PROB	n/a	LTP246	ltpFR2	16	n/a	n/a	n/a	5	15	1	9	5
643514	PROB	n/a	LTP246	ltpFR2	16	n/a	n/a	n/a	5	7	1	2	4
645147	PROB	n/a	LTP246	ltpFR2	16	n/a	n/a	n/a	5	19	5	5	9
646416	PROB	n/a	LTP246	ltpFR2	16	n/a	n/a	n/a	5	14	7	4	3
647867	PROB	n/a	LTP246	ltpFR2	16	n/a	n/a	n/a	5	18	9	4	5
649184	PROB	n/a	LTP246	ltpFR2	16	n/a	n/a	n/a	5	16	5	4	7
650903	PROB	n/a	LTP246	ltpFR2	16	n/a	n/a	n/a	5	14	3	4	7
652458	STOP	n/a	LTP246	ltpFR2	16	n/a	n/a	n/a	5	n/a	n/a	n/a	n/a
655172	REC_START	n/a	LTP246	ltpFR2	16	3	n/a	n/a	n/a	n/a	0	0	0
659258	REC_WORD	wordpools/wasnorm_wordpool_576.txt	LTP246	ltpFR2	16	3	COWBOY	395	n/a	n/a	0	0	0
660201	REC_WORD	wordpools/wasnorm_wordpool_576.txt	LTP246	ltpFR2	16	3	FOREHEAD	592	n/a	n/a	0	0	0
661998	REC_WORD	wordpools/wasnorm_wordpool_576.txt	LTP246	ltpFR2	16	3	ORCHID	982	n/a	n/a	0	0	0
662829	REC_WORD	wordpools/wasnorm_wordpool_576.txt	LTP246	ltpFR2	16	3	SEAL	1262	n/a	n/a	0	0	0
663920	REC_WORD	wordpools/wasnorm_wordpool_576.txt	LTP246	ltpFR2	16	3	BRACES	164	n/a	n/a	0	0	0
666576	REC_WORD	wordpools/wasnorm_wordpool_576.txt	LTP246	ltpFR2	16	3	FRAGRANCE	599	n/a	n/a	0	0	0
667625	REC_WORD	wordpools/wasnorm_wordpool_576.txt	LTP246	ltpFR2	16	3	FREEZER	604	n/a	n/a	0	0	0
668672	REC_WORD	wordpools/wasnorm_wordpool_576.txt	LTP246	ltpFR2	16	3	PRINCE	1124	n/a	n/a	0	0	0
669836	REC_WORD	wordpools/wasnorm_wordpool_576.txt	LTP246	ltpFR2	16	3	BUCKET	184	n/a	n/a	0	0	0
670823	REC_WORD	wordpools/wasnorm_wordpool_576.txt	LTP246	ltpFR2	16	3	PASTRY	1022	n/a	n/a	0	0	0
671859	REC_WORD	wordpools/wasnorm_wordpool_576.txt	LTP246	ltpFR2	16	3	TREAT	1501	n/a	n/a	0	0	0
672890	REC_WORD	wordpools/wasnorm_wordpool_576.txt	LTP246	ltpFR2	16	3	VIKING	1565	n/a	n/a	0	0	0
674075	REC_WORD	wordpools/wasnorm_wordpool_576.txt	LTP246	ltpFR2	16	3	BULLET	194	n/a	n/a	0	0	0
675443	REC_WORD	wordpools/wasnorm_wordpool_576.txt	LTP246	ltpFR2	16	3	PROTON	1132	n/a	n/a	0	0	0
677341	REC_WORD	wordpools/wasnorm_wordpool_576.txt	LTP246	ltpFR2	16	3	MAILBOX	857	n/a	n/a	0	0	0
745812	DISTRACTOR	n/a	LTP246	ltpFR2	16	4	n/a	n/a	n/a	n/a	0	0	0
745812	START	n/a	LTP246	ltpFR2	16	n/a	n/a	n/a	6	n/a	n/a	n/a	n/a
745845	PROB	n/a	LTP246	ltpFR2	16	n/a	n/a	n/a	6	15	6	3	4
750666	PROB	n/a	LTP246	ltpFR2	16	n/a	n/a	n/a	6	18	8	2	8
752784	PROB	n/a	LTP246	ltpFR2	16	n/a	n/a	n/a	6	19	8	6	5
754469	PROB	n/a	LTP246	ltpFR2	16	n/a	n/a	n/a	6	11	2	7	2
756020	PROB	n/a	LTP246	ltpFR2	16	n/a	n/a	n/a	6	23	7	8	8
757738	PROB	n/a	LTP246	ltpFR2	16	n/a	n/a	n/a	6	13	3	7	3
758906	PROB	n/a	LTP246	ltpFR2	16	n/a	n/a	n/a	6	24	8	7	9
762559	PROB	n/a	LTP246	ltpFR2	16	n/a	n/a	n/a	6	14	7	3	4
763860	PROB	n/a	LTP246	ltpFR2	16	n/a	n/a	n/a	6	14	9	3	2
767161	PROB	n/a	LTP246	ltpFR2	16	n/a	n/a	n/a	6	21	8	5	8
768606	STOP	n/a	LTP246	ltpFR2	16	n/a	n/a	n/a	6	n/a	n/a	n/a	n/a
770982	WORD	wordpools/wasnorm_wordpool_576.txt	LTP246	ltpFR2	16	4	CRITIC	410	n/a	n/a	0	0	0
773818	WORD	wordpools/wasnorm_wordpool_576.txt	LTP246	ltpFR2	16	4	CRIB	407	n/a	n/a	0	0	0
776470	WORD	wordpools/wasnorm_wordpool_576.txt	LTP246	ltpFR2	16	4	DRAGON	492	n/a	n/a	0	0	0
779022	WORD	wordpools/wasnorm_wordpool_576.txt	LTP246	ltpFR2	16	4	DIME	466	n/a	n/a	0	0	0
781574	WORD	wordpools/wasnorm_wordpool_576.txt	LTP246	ltpFR2	16	4	POPCORN	1104	n/a	n/a	0	0	0
784059	WORD	wordpools/wasnorm_wordpool_576.txt	LTP246	ltpFR2	16	4	BRANDY	169	n/a	n/a	0	0	0
786595	WORD	wordpools/wasnorm_wordpool_576.txt	LTP246	ltpFR2	16	4	LASER	801	n/a	n/a	0	0	0
789264	WORD	wordpools/wasnorm_wordpool_576.txt	LTP246	ltpFR2	16	4	MATCH	878	n/a	n/a	0	0	0
791832	WORD	wordpools/wasnorm_wordpool_576.txt	LTP246	ltpFR2	16	4	BURGLAR	200	n/a	n/a	0	0	0
794401	WORD	wordpools/wasnorm_wordpool_576.txt	LTP246	ltpFR2	16	4	CANYON	235	n/a	n/a	0	0	0
797185	WORD	wordpools/wasnorm_wordpool_576.txt	LTP246	ltpFR2	16	4	BABY	64	n/a	n/a	0	0	0
799989	WORD	wordpools/wasnorm_wordpool_576.txt	LTP246	ltpFR2	16	4	SPHINX	1349	n/a	n/a	0	0	0
802657	WORD	wordpools/wasnorm_wordpool_576.txt	LTP246	ltpFR2	16	4	EGYPT	519	n/a	n/a	0	0	0
805293	WORD	wordpools/wasnorm_wordpool_576.txt	LTP246	ltpFR2	16	4	LAGOON	795	n/a	n/a	0	0	0
807878	WORD	wordpools/wasnorm_wordpool_576.txt	LTP246	ltpFR2	16	4	DRILL	497	n/a	n/a	0	0	0
810497	WORD	wordpools/wasnorm_wordpool_576.txt	LTP246	ltpFR2	16	4	CRAYON	401	n/a	n/a	0	0	0
813066	WORD	wordpools/wasnorm_wordpool_576.txt	LTP246	ltpFR2	16	4	GUARD	667	n/a	n/a	0	0	0
815835	WORD	wordpools/wasnorm_wordpool_576.txt	LTP246	ltpFR2	16	4	ARMY	39	n/a	n/a	0	0	0
818303	WORD	wordpools/wasnorm_wordpool_576.txt	LTP246	ltpFR2	16	4	LION	827	n/a	n/a	0	0	0
820922	WORD	wordpools/wasnorm_wordpool_576.txt	LTP246	ltpFR2	16	4	TART	1436	n/a	n/a	0	0	0
823658	WORD	wordpools/wasnorm_wordpool_576.txt	LTP246	ltpFR2	16	4	COUCH	386	n/a	n/a	0	0	0
826209	WORD	wordpools/wasnorm_wordpool_576.txt	LTP246	ltpFR2	16	4	GIFT	635	n/a	n/a	0	0	0
828678	WORD	wordpools/wasnorm_wordpool_576.txt	LTP246	ltpFR2	16	4	CHILD	299	n/a	n/a	0	0	0
831264	WORD	wordpools/wasnorm_wordpool_576.txt	LTP246	ltpFR2	16	4	TOASTER	1472	n/a	n/a	0	0	0
832882	START	n/a	LTP246	ltpFR2	16	n/a	n/a	n/a	7	n/a	n/a	n/a	n/a
834058	DISTRACTOR	n/a	LTP246	ltpFR2	16	4	n/a	n/a	n/a	n/a	0	0	0
834083	PROB	n/a	LTP246	ltpFR2	16	n/a	n/a	n/a	7	11	8	2	1
835267	PROB	n/a	LTP246	ltpFR2	16	n/a	n/a	n/a	7	17	1	8	8
836968	PROB	n/a	LTP246	ltpFR2	16	n/a	n/a	n/a	7	22	9	7	6
840321	PROB	n/a	LTP246	ltpFR2	16	n/a	n/a	n/a	7	13	4	2	7
843440	PROB	n/a	LTP246	ltpFR2	16	n/a	n/a	n/a	7	16	6	9	1
845025	PROB	n/a	LTP246	ltpFR2	16	n/a	n/a	n/a	7	11	5	4	2
847192	PROB	n/a	LTP246	ltpFR2	16	n/a	n/a	n/a	7	20	4	9	7
849695	PROB	n/a	LTP246	ltpFR2	16	n/a	n/a	n/a	7	10	6	2	2
850929	PROB	n/a	LTP246	ltpFR2	16	n/a	n/a	n/a	7	13	3	8	2
852431	PROB	n/a	LTP246	ltpFR2	16	n/a	n/a	n/a	7	14	3	8	3
854449	PROB	n/a	LTP246	ltpFR2	16	n/a	n/a	n/a	7	12	2	8	2
855498	STOP	n/a	LTP246	ltpFR2	16	n/a	n/a	n/a	7	n/a	n/a	n/a	n/a
858753	REC_START	n/a	LTP246	ltpFR2	16	4	n/a	n/a	n/a	n/a	0	0	0
866484	REC_WORD	wordpools/wasnorm_wordpool_576.txt	LTP246	ltpFR2	16	4	GUARD	667	n/a	n/a	0	0	0
867876	REC_WORD	wordpools/wasnorm_wordpool_576.txt	LTP246	ltpFR2	16	4	ARMY	39	n/a	n/a	0	0	0
869123	REC_WORD	wordpools/wasnorm_wordpool_576.txt	LTP246	ltpFR2	16	4	CRAYON	401	n/a	n/a	0	0	0
870478	REC_WORD	wordpools/wasnorm_wordpool_576.txt	LTP246	ltpFR2	16	4	LION	827	n/a	n/a	0	0	0
871771	REC_WORD	wordpools/wasnorm_wordpool_576.txt	LTP246	ltpFR2	16	4	TART	1436	n/a	n/a	0	0	0
949408	WORD	wordpools/wasnorm_wordpool_576.txt	LTP246	ltpFR2	16	5	BIKE	125	n/a	n/a	0	0	0
951943	WORD	wordpools/wasnorm_wordpool_576.txt	LTP246	ltpFR2	16	5	FUNGUS	614	n/a	n/a	0	0	0
954412	WORD	wordpools/wasnorm_wordpool_576.txt	LTP246	ltpFR2	16	5	TEACHER	1440	n/a	n/a	0	0	0
957197	WORD	wordpools/wasnorm_wordpool_576.txt	LTP246	ltpFR2	16	5	FLOWER	584	n/a	n/a	0	0	0
959733	WORD	wordpools/wasnorm_wordpool_576.txt	LTP246	ltpFR2	16	5	CITRUS	313	n/a	n/a	0	0	0
962402	WORD	wordpools/wasnorm_wordpool_576.txt	LTP246	ltpFR2	16	5	CABBAGE	210	n/a	n/a	0	0	0
965054	WORD	wordpools/wasnorm_wordpool_576.txt	LTP246	ltpFR2	16	5	OUTFIT	988	n/a	n/a	0	0	0
967839	WORD	wordpools/wasnorm_wordpool_576.txt	LTP246	ltpFR2	16	5	WASHER	1592	n/a	n/a	0	0	0
970458	WORD	wordpools/wasnorm_wordpool_576.txt	LTP246	ltpFR2	16	5	LIGHTNING	820	n/a	n/a	0	0	0
972994	WORD	wordpools/wasnorm_wordpool_576.txt	LTP246	ltpFR2	16	5	GHETTO	633	n/a	n/a	0	0	0
975512	WORD	wordpools/wasnorm_wordpool_576.txt	LTP246	ltpFR2	16	5	BEAST	108	n/a	n/a	0	0	0
978031	WORD	wordpools/wasnorm_wordpool_576.txt	LTP246	ltpFR2	16	5	SKETCH	1315	n/a	n/a	0	0	0
980600	WORD	wordpools/wasnorm_wordpool_576.txt	LTP246	ltpFR2	16	5	QUEEN	1149	n/a	n/a	0	0	0
983369	WORD	wordpools/wasnorm_wordpool_576.txt	LTP246	ltpFR2	16	5	HERO	706	n/a	n/a	0	0	0
986037	WORD	wordpools/wasnorm_wordpool_576.txt	LTP246	ltpFR2	16	5	PORTRAIT	1111	n/a	n/a	0	0	0
988489	WORD	wordpools/wasnorm_wordpool_576.txt	LTP246	ltpFR2	16	5	PEANUT	1032	n/a	n/a	0	0	0
990941	WORD	wordpools/wasnorm_wordpool_576.txt	LTP246	ltpFR2	16	5	GARBAGE	622	n/a	n/a	0	0	0
993427	WORD	wordpools/wasnorm_wordpool_576.txt	LTP246	ltpFR2	16	5	CHEST	295	n/a	n/a	0	0	0
995979	WORD	wordpools/wasnorm_wordpool_576.txt	LTP246	ltpFR2	16	5	BOUQUET	157	n/a	n/a	0	0	0
998681	WORD	wordpools/wasnorm_wordpool_576.txt	LTP246	ltpFR2	16	5	BISON	131	n/a	n/a	0	0	0
1001148	WORD	wordpools/wasnorm_wordpool_576.txt	LTP246	ltpFR2	16	5	GRAPE	654	n/a	n/a	0	0	0
1003751	WORD	wordpools/wasnorm_wordpool_576.txt	LTP246	ltpFR2	16	5	CHAMPAGNE	278	n/a	n/a	0	0	0
1006202	WORD	wordpools/wasnorm_wordpool_576.txt	LTP246	ltpFR2	16	5	COUNTY	389	n/a	n/a	0	0	0
1009006	WORD	wordpools/wasnorm_wordpool_576.txt	LTP246	ltpFR2	16	5	BUNNY	198	n/a	n/a	0	0	0
1010624	START	n/a	LTP246	ltpFR2	16	n/a	n/a	n/a	8	n/a	n/a	n/a	n/a
1011632	DISTRACTOR	n/a	LTP246	ltpFR2	16	5	n/a	n/a	n/a	n/a	0	0	0
1011658	PROB	n/a	LTP246	ltpFR2	16	n/a	n/a	n/a	8	13	7	1	5
1013242	PROB	n/a	LTP246	ltpFR2	16	n/a	n/a	n/a	8	8	5	1	2
1014560	PROB	n/a	LTP246	ltpFR2	16	n/a	n/a	n/a	8	19	4	8	7
1016462	PROB	n/a	LTP246	ltpFR2	16	n/a	n/a	n/a	8	21	5	7	9
1017896	PROB	n/a	LTP246	ltpFR2	16	n/a	n/a	n/a	8	11	8	1	2
1018997	PROB	n/a	LTP246	ltpFR2	16	n/a	n/a	n/a	8	18	7	4	5
1021432	PROB	n/a	LTP246	ltpFR2	16	n/a	n/a	n/a	8	10	5	1	4
1023116	PROB	n/a	LTP246	ltpFR2	16	n/a	n/a	n/a	8	16	7	8	1
1024385	PROB	n/a	LTP246	ltpFR2	16	n/a	n/a	n/a	8	13	4	8	1
1026286	PROB	n/a	LTP246	ltpFR2	16	n/a	n/a	n/a	8	17	5	5	7
1027437	PROB	n/a	LTP246	ltpFR2	16	n/a	n/a	n/a	8	16	6	8	2
1028588	PROB	n/a	LTP246	ltpFR2	16	n/a	n/a	n/a	8	13	1	8	4
1030590	PROB	n/a	LTP246	ltpFR2	16	n/a	n/a	n/a	8	23	9	8	6
1034024	STOP	n/a	LTP246	ltpFR2	16	n/a	n/a	n/a	8	n/a	n/a	n/a	n/a
1036561	REC_START	n/a	LTP246	ltpFR2	16	5	n/a	n/a	n/a	n/a	0	0	0
1050618	REC_WORD	wordpools/wasnorm_wordpool_576.txt	LTP246	ltpFR2	16	5	BIKE	125	n/a	n/a	0	0	0
1052095	REC_WORD	wordpools/wasnorm_wordpool_576.txt	LTP246	ltpFR2	16	5	FUNGUS	614	n/a	n/a	0	0	0
1053590	REC_WORD	wordpools/wasnorm_wordpool_576.txt	LTP246	ltpFR2	16	5	TEACHER	1440	n/a	n/a	0	0	0
1054684	REC_WORD	wordpools/wasnorm_wordpool_576.txt	LTP246	ltpFR2	16	5	FLOWER	584	n/a	n/a	0	0	0
1055775	REC_WORD	wordpools/wasnorm_wordpool_576.txt	LTP246	ltpFR2	16	5	CITRUS	313	n/a	n/a	0	0	0
1057067	REC_WORD	wordpools/wasnorm_wordpool_576.txt	LTP246	ltpFR2	16	5	CABBAGE	210	n/a	n/a	0	0	0
1058312	REC_WORD	wordpools/wasnorm_wordpool_576.txt	LTP246	ltpFR2	16	5	OUTFIT	988	n/a	n/a	0	0	0
1059384	REC_WORD	wordpools/wasnorm_wordpool_576.txt	LTP246	ltpFR2	16	5	WASHER	1592	n/a	n/a	0	0	0
1060571	REC_WORD	wordpools/wasnorm_wordpool_576.txt	LTP246	ltpFR2	16	5	LIGHTNING	820	n/a	n/a	0	0	0
1061880	REC_WORD	wordpools/wasnorm_wordpool_576.txt	LTP246	ltpFR2	16	5	GHETTO	633	n/a	n/a	0	0	0
1063116	REC_WORD	wordpools/wasnorm_wordpool_576.txt	LTP246	ltpFR2	16	5	BEAST	108	n/a	n/a	0	0	0
1071172	REC_WORD	wordpools/wasnorm_wordpool_576.txt	LTP246	ltpFR2	16	5	QUEEN	1149	n/a	n/a	0	0	0
1072878	REC_WORD	wordpools/wasnorm_wordpool_576.txt	LTP246	ltpFR2	16	5	HERO	706	n/a	n/a	0	0	0
1075466	REC_WORD	wordpools/wasnorm_wordpool_576.txt	LTP246	ltpFR2	16	5	PEANUT	1032	n/a	n/a	0	0	0
1076712	REC_WORD	wordpools/wasnorm_wordpool_576.txt	LTP246	ltpFR2	16	5	GARBAGE	622	n/a	n/a	0	0	0
1077771	REC_WORD	wordpools/wasnorm_wordpool_576.txt	LTP246	ltpFR2	16	5	CHEST	295	n/a	n/a	0	0	0
1078991	REC_WORD	wordpools/wasnorm_wordpool_576.txt	LTP246	ltpFR2	16	5	BOUQUET	157	n/a	n/a	0	0	0
1081100	REC_WORD	wordpools/wasnorm_wordpool_576.txt	LTP246	ltpFR2	16	5	BISON	131	n/a	n/a	0	0	0
1083380	REC_WORD	wordpools/wasnorm_wordpool_576.txt	LTP246	ltpFR2	16	5	COUNTY	389	n/a	n/a	0	0	0
1084904	REC_WORD	wordpools/wasnorm_wordpool_576.txt	LTP246	ltpFR2	16	5	BUNNY	198	n/a	n/a	0	0	0
1127217	WORD	wordpools/wasnorm_wordpool_576.txt	LTP246	ltpFR2	16	6	MARINE	869	n/a	n/a	0	0	0
1129785	WORD	wordpools/wasnorm_wordpool_576.txt	LTP246	ltpFR2	16	6	BUGGY	188	n/a	n/a	0	0	0
1132588	WORD	wordpools/wasnorm_wordpool_576.txt	LTP246	ltpFR2	16	6	OINTMENT	974	n/a	n/a	0	0	0
1135073	WORD	wordpools/wasnorm_wordpool_576.txt	LTP246	ltpFR2	16	6	WIFE	1609	n/a	n/a	0	0	0
1137809	WORD	wordpools/wasnorm_wordpool_576.txt	LTP246	ltpFR2	16	6	HUSBAND	728	n/a	n/a	0	0	0
1140310	WORD	wordpools/wasnorm_wordpool_576.txt	LTP246	ltpFR2	16	6	SPARROW	1347	n/a	n/a	0	0	0
1143096	WORD	wordpools/wasnorm_wordpool_576.txt	LTP246	ltpFR2	16	6	WOMAN	1620	n/a	n/a	0	0	0
1145581	WORD	wordpools/wasnorm_wordpool_576.txt	LTP246	ltpFR2	16	6	CONVICT	371	n/a	n/a	0	0	0
1148100	WORD	wordpools/wasnorm_wordpool_576.txt	LTP246	ltpFR2	16	6	COMPASS	358	n/a	n/a	0	0	0
1150802	WORD	wordpools/wasnorm_wordpool_576.txt	LTP246	ltpFR2	16	6	SCARECROW	1245	n/a	n/a	0	0	0
1153271	WORD	wordpools/wasnorm_wordpool_576.txt	LTP246	ltpFR2	16	6	SHORTCAKE	1292	n/a	n/a	0	0	0
1155890	WORD	wordpools/wasnorm_wordpool_576.txt	LTP246	ltpFR2	16	6	SNACK	1331	n/a	n/a	0	0	0
1158575	WORD	wordpools/wasnorm_wordpool_576.txt	LTP246	ltpFR2	16	6	HARP	689	n/a	n/a	0	0	0
1161094	WORD	wordpools/wasnorm_wordpool_576.txt	LTP246	ltpFR2	16	6	TERMITE	1451	n/a	n/a	0	0	0
1163546	WORD	wordpools/wasnorm_wordpool_576.txt	LTP246	ltpFR2	16	6	FLASHLIGHT	575	n/a	n/a	0	0	0
1166248	WORD	wordpools/wasnorm_wordpool_576.txt	LTP246	ltpFR2	16	6	FRAGRANCE	599	n/a	n/a	0	0	0
1169084	WORD	wordpools/wasnorm_wordpool_576.txt	LTP246	ltpFR2	16	6	SPONGE	1355	n/a	n/a	0	0	0
1171686	WORD	wordpools/wasnorm_wordpool_576.txt	LTP246	ltpFR2	16	6	KETCHUP	771	n/a	n/a	0	0	0
1174221	WORD	wordpools/wasnorm_wordpool_576.txt	LTP246	ltpFR2	16	6	MUSTARD	935	n/a	n/a	0	0	0
1177040	WORD	wordpools/wasnorm_wordpool_576.txt	LTP246	ltpFR2	16	6	YACHT	1629	n/a	n/a	0	0	0
1179542	WORD	wordpools/wasnorm_wordpool_576.txt	LTP246	ltpFR2	16	6	JURY	766	n/a	n/a	0	0	0
1182327	WORD	wordpools/wasnorm_wordpool_576.txt	LTP246	ltpFR2	16	6	LADY	794	n/a	n/a	0	0	0
1184913	WORD	wordpools/wasnorm_wordpool_576.txt	LTP246	ltpFR2	16	6	SUITCASE	1403	n/a	n/a	0	0	0
1187565	WORD	wordpools/wasnorm_wordpool_576.txt	LTP246	ltpFR2	16	6	PUPIL	1143	n/a	n/a	0	0	0
1189182	START	n/a	LTP246	ltpFR2	16	n/a	n/a	n/a	9	n/a	n/a	n/a	n/a
1190110	DISTRACTOR	n/a	LTP246	ltpFR2	16	6	n/a	n/a	n/a	n/a	0	0	0
1190133	PROB	n/a	LTP246	ltpFR2	16	n/a	n/a	n/a	9	16	8	1	7
1191385	PROB	n/a	LTP246	ltpFR2	16	n/a	n/a	n/a	9	8	1	6	1
1192702	PROB	n/a	LTP246	ltpFR2	16	n/a	n/a	n/a	9	20	9	3	8
1195771	PROB	n/a	LTP246	ltpFR2	16	n/a	n/a	n/a	9	15	9	3	3
1197473	PROB	n/a	LTP246	ltpFR2	16	n/a	n/a	n/a	9	18	3	8	5
1199091	PROB	n/a	LTP246	ltpFR2	16	n/a	n/a	n/a	9	12	1	3	8
1200909	PROB	n/a	LTP246	ltpFR2	16	n/a	n/a	n/a	9	7	3	1	3
1202777	PROB	n/a	LTP246	ltpFR2	16	n/a	n/a	n/a	9	10	2	2	6
1204412	PROB	n/a	LTP246	ltpFR2	16	n/a	n/a	n/a	9	13	2	3	8
1206179	PROB	n/a	LTP246	ltpFR2	16	n/a	n/a	n/a	9	9	1	2	6
1207481	PROB	n/a	LTP246	ltpFR2	16	n/a	n/a	n/a	9	16	4	8	4
1208849	PROB	n/a	LTP246	ltpFR2	16	n/a	n/a	n/a	9	11	2	2	7
1210717	PROB	n/a	LTP246	ltpFR2	16	n/a	n/a	n/a	9	21	5	7	9
1211870	STOP	n/a	LTP246	ltpFR2	16	n/a	n/a	n/a	9	n/a	n/a	n/a	n/a
1215037	REC_START	n/a	LTP246	ltpFR2	16	6	n/a	n/a	n/a	n/a	0	0	0
1223374	REC_WORD	wordpools/wasnorm_wordpool_576.txt	LTP246	ltpFR2	16	6	FRAGRANCE	599	n/a	n/a	0	0	0
1231266	REC_WORD	wordpools/wasnorm_wordpool_576.txt	LTP246	ltpFR2	16	6	MARINE	869	n/a	n/a	0	0	0
1232713	REC_WORD	wordpools/wasnorm_wordpool_576.txt	LTP246	ltpFR2	16	6	BUGGY	188	n/a	n/a	0	0	0
1305676	DISTRACTOR	n/a	LTP246	ltpFR2	16	7	n/a	n/a	n/a	n/a	0	0	0
1305676	START	n/a	LTP246	ltpFR2	16	n/a	n/a	n/a	10	n/a	n/a	n/a	n/a
1305709	PROB	n/a	LTP246	ltpFR2	16	n/a	n/a	n/a	10	20	8	8	4
1307176	PROB	n/a	LTP246	ltpFR2	16	n/a	n/a	n/a	10	18	1	8	9
1309211	PROB	n/a	LTP246	ltpFR2	16	n/a	n/a	n/a	10	18	5	6	7
1310713	PROB	n/a	LTP246	ltpFR2	16	n/a	n/a	n/a	10	18	8	4	6
1311948	PROB	n/a	LTP246	ltpFR2	16	n/a	n/a	n/a	10	19	7	7	5
1313649	PROB	n/a	LTP246	ltpFR2	16	n/a	n/a	n/a	10	14	2	7	5
1315417	PROB	n/a	LTP246	ltpFR2	16	n/a	n/a	n/a	10	18	8	2	8
1318686	PROB	n/a	LTP246	ltpFR2	16	n/a	n/a	n/a	10	18	8	7	3
1320004	PROB	n/a	LTP246	ltpFR2	16	n/a	n/a	n/a	10	9	3	5	1
1321755	PROB	n/a	LTP246	ltpFR2	16	n/a	n/a	n/a	10	14	5	1	8
1323724	PROB	n/a	LTP246	ltpFR2	16	n/a	n/a	n/a	10	12	3	4	5
1325642	PROB	n/a	LTP246	ltpFR2	16	n/a	n/a	n/a	10	19	2	9	8
1327860	PROB	n/a	LTP246	ltpFR2	16	n/a	n/a	n/a	10	20	8	6	6
1329491	STOP	n/a	LTP246	ltpFR2	16	n/a	n/a	n/a	10	n/a	n/a	n/a	n/a
1330729	WORD	wordpools/wasnorm_wordpool_576.txt	LTP246	ltpFR2	16	7	GRILL	661	n/a	n/a	0	0	0
1333431	WORD	wordpools/wasnorm_wordpool_576.txt	LTP246	ltpFR2	16	7	SUPPER	1411	n/a	n/a	0	0	0
1336149	WORD	wordpools/wasnorm_wordpool_576.txt	LTP246	ltpFR2	16	7	CRICKET	408	n/a	n/a	0	0	0
1338936	WORD	wordpools/wasnorm_wordpool_576.txt	LTP246	ltpFR2	16	7	PARENT	1013	n/a	n/a	0	0	0
1341755	WORD	wordpools/wasnorm_wordpool_576.txt	LTP246	ltpFR2	16	7	BRANCH	168	n/a	n/a	0	0	0
1344524	WORD	wordpools/wasnorm_wordpool_576.txt	LTP246	ltpFR2	16	7	PLUTO	1092	n/a	n/a	0	0	0
1347191	WORD	wordpools/wasnorm_wordpool_576.txt	LTP246	ltpFR2	16	7	WHISKERS	1605	n/a	n/a	0	0	0
1349944	WORD	wordpools/wasnorm_wordpool_576.txt	LTP246	ltpFR2	16	7	CYCLONE	431	n/a	n/a	0	0	0
1352447	WORD	wordpools/wasnorm_wordpool_576.txt	LTP246	ltpFR2	16	7	PUDDLE	1140	n/a	n/a	0	0	0
1354915	WORD	wordpools/wasnorm_wordpool_576.txt	LTP246	ltpFR2	16	7	PARROT	1015	n/a	n/a	0	0	0
1357601	WORD	wordpools/wasnorm_wordpool_576.txt	LTP246	ltpFR2	16	7	MAPLE	866	n/a	n/a	0	0	0
1360303	WORD	wordpools/wasnorm_wordpool_576.txt	LTP246	ltpFR2	16	7	JELLY	755	n/a	n/a	0	0	0
1362838	WORD	wordpools/wasnorm_wordpool_576.txt	LTP246	ltpFR2	16	7	PLATE	1086	n/a	n/a	0	0	0
1365374	WORD	wordpools/wasnorm_wordpool_576.txt	LTP246	ltpFR2	16	7	BUBBLE	183	n/a	n/a	0	0	0
1367942	WORD	wordpools/wasnorm_wordpool_576.txt	LTP246	ltpFR2	16	7	BLACKBOARD	133	n/a	n/a	0	0	0
1370478	WORD	wordpools/wasnorm_wordpool_576.txt	LTP246	ltpFR2	16	7	BROOK	177	n/a	n/a	0	0	0
1373313	WORD	wordpools/wasnorm_wordpool_576.txt	LTP246	ltpFR2	16	7	TRENCH	1503	n/a	n/a	0	0	0
1375882	WORD	wordpools/wasnorm_wordpool_576.txt	LTP246	ltpFR2	16	7	ICEBERG	731	n/a	n/a	0	0	0
1378684	WORD	wordpools/wasnorm_wordpool_576.txt	LTP246	ltpFR2	16	7	COMET	353	n/a	n/a	0	0	0
1381470	WORD	wordpools/wasnorm_wordpool_576.txt	LTP246	ltpFR2	16	7	COIN	343	n/a	n/a	0	0	0
1384022	WORD	wordpools/wasnorm_wordpool_576.txt	LTP246	ltpFR2	16	7	HOOD	714	n/a	n/a	0	0	0
1386757	WORD	wordpools/wasnorm_wordpool_576.txt	LTP246	ltpFR2	16	7	BOARD	143	n/a	n/a	0	0	0
1389476	WORD	wordpools/wasnorm_wordpool_576.txt	LTP246	ltpFR2	16	7	FLIPPER	580	n/a	n/a	0	0	0
1392012	WORD	wordpools/wasnorm_wordpool_576.txt	LTP246	ltpFR2	16	7	MAMMAL	861	n/a	n/a	0	0	0
1393630	START	n/a	LTP246	ltpFR2	16	n/a	n/a	n/a	11	n/a	n/a	n/a	n/a
1394568	DISTRACTOR	n/a	LTP246	ltpFR2	16	7	n/a	n/a	n/a	n/a	0	0	0
1394597	PROB	n/a	LTP246	ltpFR2	16	n/a	n/a	n/a	11	21	8	9	4
1396398	PROB	n/a	LTP246	ltpFR2	16	n/a	n/a	n/a	11	8	1	3	4
1397716	PROB	n/a	LTP246	ltpFR2	16	n/a	n/a	n/a	11	15	9	5	1
1399000	PROB	n/a	LTP246	ltpFR2	16	n/a	n/a	n/a	11	20	6	8	6
1400952	PROB	n/a	LTP246	ltpFR2	16	n/a	n/a	n/a	11	12	5	3	4
1402420	PROB	n/a	LTP246	ltpFR2	16	n/a	n/a	n/a	11	13	1	5	7
1404888	PROB	n/a	LTP246	ltpFR2	16	n/a	n/a	n/a	11	27	9	9	9
1406273	PROB	n/a	LTP246	ltpFR2	16	n/a	n/a	n/a	11	11	3	1	7
1407624	PROB	n/a	LTP246	ltpFR2	16	n/a	n/a	n/a	11	20	7	8	5
1410093	PROB	n/a	LTP246	ltpFR2	16	n/a	n/a	n/a	11	13	4	4	7
1412995	PROB	n/a	LTP246	ltpFR2	16	n/a	n/a	n/a	11	9	3	1	5
1414346	PROB	n/a	LTP246	ltpFR2	16	n/a	n/a	n/a	11	8	2	2	4
1415914	PROB	n/a	LTP246	ltpFR2	16	n/a	n/a	n/a	11	9	1	7	1
1416958	STOP	n/a	LTP246	ltpFR2	16	n/a	n/a	n/a	11	n/a	n/a	n/a	n/a
1419534	REC_START	n/a	LTP246	ltpFR2	16	7	n/a	n/a	n/a	n/a	0	0	0
1423556	REC_WORD	wordpools/wasnorm_wordpool_576.txt	LTP246	ltpFR2	16	7	GRILL	661	n/a	n/a	0	0	0
1424526	REC_WORD	wordpools/wasnorm_wordpool_576.txt	LTP246	ltpFR2	16	7	SUPPER	1411	n/a	n/a	0	0	0
1425654	REC_WORD	wordpools/wasnorm_wordpool_576.txt	LTP246	ltpFR2	16	7	CRICKET	408	n/a	n/a	0	0	0
1426745	REC_WORD	wordpools/wasnorm_wordpool_576.txt	LTP246	ltpFR2	16	7	PARROT	1015	n/a	n/a	0	0	0
1427705	REC_WORD	wordpools/wasnorm_wordpool_576.txt	LTP246	ltpFR2	16	7	MAPLE	866	n/a	n/a	0	0	0
1428814	REC_WORD	wordpools/wasnorm_wordpool_576.txt	LTP246	ltpFR2	16	7	JELLY	755	n/a	n/a	0	0	0
1429804	REC_WORD	wordpools/wasnorm_wordpool_576.txt	LTP246	ltpFR2	16	7	PLATE	1086	n/a	n/a	0	0	0
1430983	REC_WORD	wordpools/wasnorm_wordpool_576.txt	LTP246	ltpFR2	16	7	BUBBLE	183	n/a	n/a	0	0	0
1432009	REC_WORD	wordpools/wasnorm_wordpool_576.txt	LTP246	ltpFR2	16	7	BLACKBOARD	133	n/a	n/a	0	0	0
1433100	REC_WORD	wordpools/wasnorm_wordpool_576.txt	LTP246	ltpFR2	16	7	BROOK	177	n/a	n/a	0	0	0
1434061	REC_WORD	wordpools/wasnorm_wordpool_576.txt	LTP246	ltpFR2	16	7	TRENCH	1503	n/a	n/a	0	0	0
1435260	REC_WORD	wordpools/wasnorm_wordpool_576.txt	LTP246	ltpFR2	16	7	COIN	343	n/a	n/a	0	0	0
1436402	REC_WORD	wordpools/wasnorm_wordpool_576.txt	LTP246	ltpFR2	16	7	ICEBERG	731	n/a	n/a	0	0	0
1437448	REC_WORD	wordpools/wasnorm_wordpool_576.txt	LTP246	ltpFR2	16	7	COMET	353	n/a	n/a	0	0	0
1438482	REC_WORD	wordpools/wasnorm_wordpool_576.txt	LTP246	ltpFR2	16	7	HOOD	714	n/a	n/a	0	0	0
1439648	REC_WORD	wordpools/wasnorm_wordpool_576.txt	LTP246	ltpFR2	16	7	BOARD	143	n/a	n/a	0	0	0
1510155	DISTRACTOR	n/a	LTP246	ltpFR2	16	8	n/a	n/a	n/a	n/a	0	0	0
1510155	START	n/a	LTP246	ltpFR2	16	n/a	n/a	n/a	12	n/a	n/a	n/a	n/a
1510188	PROB	n/a	LTP246	ltpFR2	16	n/a	n/a	n/a	12	19	7	8	4
1513842	PROB	n/a	LTP246	ltpFR2	16	n/a	n/a	n/a	12	17	8	1	8
1515125	PROB	n/a	LTP246	ltpFR2	16	n/a	n/a	n/a	12	9	4	3	2
1516544	PROB	n/a	LTP246	ltpFR2	16	n/a	n/a	n/a	12	21	7	5	9
1518262	PROB	n/a	LTP246	ltpFR2	16	n/a	n/a	n/a	12	12	5	6	1
1519447	PROB	n/a	LTP246	ltpFR2	16	n/a	n/a	n/a	12	22	9	7	6
1524467	PROB	n/a	LTP246	ltpFR2	16	n/a	n/a	n/a	12	17	5	7	5
1526052	PROB	n/a	LTP246	ltpFR2	16	n/a	n/a	n/a	12	16	6	9	1
1527503	PROB	n/a	LTP246	ltpFR2	16	n/a	n/a	n/a	12	17	6	3	8
1530789	PROB	n/a	LTP246	ltpFR2	16	n/a	n/a	n/a	12	20	8	3	9
1534154	STOP	n/a	LTP246	ltpFR2	16	n/a	n/a	n/a	12	n/a	n/a	n/a	n/a
1535226	WORD	wordpools/wasnorm_wordpool_576.txt	LTP246	ltpFR2	16	8	ISLAND	745	n/a	n/a	0	0	0
1537695	WORD	wordpools/wasnorm_wordpool_576.txt	LTP246	ltpFR2	16	8	STAPLE	1371	n/a	n/a	0	0	0
1540196	WORD	wordpools/wasnorm_wordpool_576.txt	LTP246	ltpFR2	16	8	PEACH	1031	n/a	n/a	0	0	0
1542882	WORD	wordpools/wasnorm_wordpool_576.txt	LTP246	ltpFR2	16	8	HUMAN	726	n/a	n/a	0	0	0
1545501	WORD	wordpools/wasnorm_wordpool_576.txt	LTP246	ltpFR2	16	8	CRAB	397	n/a	n/a	0	0	0
1548303	WORD	wordpools/wasnorm_wordpool_576.txt	LTP246	ltpFR2	16	8	WRENCH	1625	n/a	n/a	0	0	0
1550939	WORD	wordpools/wasnorm_wordpool_576.txt	LTP246	ltpFR2	16	8	FRIAR	605	n/a	n/a	0	0	0
1553590	WORD	wordpools/wasnorm_wordpool_576.txt	LTP246	ltpFR2	16	8	FARMER	553	n/a	n/a	0	0	0
1556410	WORD	wordpools/wasnorm_wordpool_576.txt	LTP246	ltpFR2	16	8	SEAFOOD	1260	n/a	n/a	0	0	0
1558978	WORD	wordpools/wasnorm_wordpool_576.txt	LTP246	ltpFR2	16	8	FRUIT	610	n/a	n/a	0	0	0
1561464	WORD	wordpools/wasnorm_wordpool_576.txt	LTP246	ltpFR2	16	8	NOMAD	955	n/a	n/a	0	0	0
1564249	WORD	wordpools/wasnorm_wordpool_576.txt	LTP246	ltpFR2	16	8	PLAZA	1088	n/a	n/a	0	0	0
1567085	WORD	wordpools/wasnorm_wordpool_576.txt	LTP246	ltpFR2	16	8	NAPKIN	937	n/a	n/a	0	0	0
1569904	WORD	wordpools/wasnorm_wordpool_576.txt	LTP246	ltpFR2	16	8	KLEENEX	782	n/a	n/a	0	0	0
1572706	WORD	wordpools/wasnorm_wordpool_576.txt	LTP246	ltpFR2	16	8	CLAMP	316	n/a	n/a	0	0	0
1575491	WORD	wordpools/wasnorm_wordpool_576.txt	LTP246	ltpFR2	16	8	DASHBOARD	441	n/a	n/a	0	0	0
1578093	WORD	wordpools/wasnorm_wordpool_576.txt	LTP246	ltpFR2	16	8	LUMBER	848	n/a	n/a	0	0	0
1580612	WORD	wordpools/wasnorm_wordpool_576.txt	LTP246	ltpFR2	16	8	COOKBOOK	373	n/a	n/a	0	0	0
1583180	WORD	wordpools/wasnorm_wordpool_576.txt	LTP246	ltpFR2	16	8	BLADE	134	n/a	n/a	0	0	0
1585650	WORD	wordpools/wasnorm_wordpool_576.txt	LTP246	ltpFR2	16	8	BALLOON	75	n/a	n/a	0	0	0
1588134	WORD	wordpools/wasnorm_wordpool_576.txt	LTP246	ltpFR2	16	8	TROUT	1511	n/a	n/a	0	0	0
1590970	WORD	wordpools/wasnorm_wordpool_576.txt	LTP246	ltpFR2	16	8	BEAKER	104	n/a	n/a	0	0	0
1593756	WORD	wordpools/wasnorm_wordpool_576.txt	LTP246	ltpFR2	16	8	GUITAR	670	n/a	n/a	0	0	0
1596241	WORD	wordpools/wasnorm_wordpool_576.txt	LTP246	ltpFR2	16	8	BANJO	82	n/a	n/a	0	0	0
1597859	START	n/a	LTP246	ltpFR2	16	n/a	n/a	n/a	13	n/a	n/a	n/a	n/a
1598999	DISTRACTOR	n/a	LTP246	ltpFR2	16	8	n/a	n/a	n/a	n/a	0	0	0
1599027	PROB	n/a	LTP246	ltpFR2	16	n/a	n/a	n/a	13	12	1	5	6
1600261	PROB	n/a	LTP246	ltpFR2	16	n/a	n/a	n/a	13	20	3	7	8
1601612	PROB	n/a	LTP246	ltpFR2	16	n/a	n/a	n/a	13	17	8	6	3
1604064	PROB	n/a	LTP246	ltpFR2	16	n/a	n/a	n/a	13	12	1	9	2
1605816	PROB	n/a	LTP246	ltpFR2	16	n/a	n/a	n/a	13	22	6	8	8
1608501	PROB	n/a	LTP246	ltpFR2	16	n/a	n/a	n/a	13	15	4	4	7
1610469	PROB	n/a	LTP246	ltpFR2	16	n/a	n/a	n/a	13	11	4	1	6
1611737	PROB	n/a	LTP246	ltpFR2	16	n/a	n/a	n/a	13	16	7	4	5
1613455	PROB	n/a	LTP246	ltpFR2	16	n/a	n/a	n/a	13	9	3	1	5
1614839	PROB	n/a	LTP246	ltpFR2	16	n/a	n/a	n/a	13	19	2	9	8
1617558	PROB	n/a	LTP246	ltpFR2	16	n/a	n/a	n/a	13	23	8	6	9
1621445	STOP	n/a	LTP246	ltpFR2	16	n/a	n/a	n/a	13	n/a	n/a	n/a	n/a
1623747	REC_START	n/a	LTP246	ltpFR2	16	8	n/a	n/a	n/a	n/a	0	0	0
1631154	REC_WORD	wordpools/wasnorm_wordpool_576.txt	LTP246	ltpFR2	16	8	BLADE	134	n/a	n/a	0	0	0
1632774	REC_WORD	wordpools/wasnorm_wordpool_576.txt	LTP246	ltpFR2	16	8	BALLOON	75	n/a	n/a	0	0	0
1634552	REC_WORD	wordpools/wasnorm_wordpool_576.txt	LTP246	ltpFR2	16	8	TROUT	1511	n/a	n/a	0	0	0
1636270	REC_WORD	wordpools/wasnorm_wordpool_576.txt	LTP246	ltpFR2	16	8	BEAKER	104	n/a	n/a	0	0	0
1637497	REC_WORD	wordpools/wasnorm_wordpool_576.txt	LTP246	ltpFR2	16	8	GUITAR	670	n/a	n/a	0	0	0
1638976	REC_WORD	wordpools/wasnorm_wordpool_576.txt	LTP246	ltpFR2	16	8	BANJO	82	n/a	n/a	0	0	0
1643167	REC_WORD	wordpools/wasnorm_wordpool_576.txt	LTP246	ltpFR2	16	8	STAPLE	1371	n/a	n/a	0	0	0
1644443	REC_WORD	wordpools/wasnorm_wordpool_576.txt	LTP246	ltpFR2	16	8	ISLAND	745	n/a	n/a	0	0	0
1645529	REC_WORD	wordpools/wasnorm_wordpool_576.txt	LTP246	ltpFR2	16	8	PEACH	1031	n/a	n/a	0	0	0
1646443	REC_WORD	wordpools/wasnorm_wordpool_576.txt	LTP246	ltpFR2	16	8	HUMAN	726	n/a	n/a	0	0	0
1700308	REST_REWET	n/a	LTP246	ltpFR2	16	8	n/a	n/a	n/a	n/a	0	0	0
1964151	DISTRACTOR	n/a	LTP246	ltpFR2	16	9	n/a	n/a	n/a	n/a	0	0	0
1964151	START	n/a	LTP246	ltpFR2	16	n/a	n/a	n/a	14	n/a	n/a	n/a	n/a
1964184	PROB	n/a	LTP246	ltpFR2	16	n/a	n/a	n/a	14	13	1	9	3
1965770	PROB	n/a	LTP246	ltpFR2	16	n/a	n/a	n/a	14	18	6	8	4
1968489	PROB	n/a	LTP246	ltpFR2	16	n/a	n/a	n/a	14	17	1	8	8
1972225	PROB	n/a	LTP246	ltpFR2	16	n/a	n/a	n/a	14	12	1	2	9
1973409	PROB	n/a	LTP246	ltpFR2	16	n/a	n/a	n/a	14	10	8	1	1
1974610	PROB	n/a	LTP246	ltpFR2	16	n/a	n/a	n/a	14	20	4	7	9
1976662	PROB	n/a	LTP246	ltpFR2	16	n/a	n/a	n/a	14	16	5	3	8
1977829	PROB	n/a	LTP246	ltpFR2	16	n/a	n/a	n/a	14	8	1	5	2
1979146	PROB	n/a	LTP246	ltpFR2	16	n/a	n/a	n/a	14	6	2	1	3
1980315	PROB	n/a	LTP246	ltpFR2	16	n/a	n/a	n/a	14	18	5	9	4
1981783	PROB	n/a	LTP246	ltpFR2	16	n/a	n/a	n/a	14	12	9	1	2
1983000	PROB	n/a	LTP246	ltpFR2	16	n/a	n/a	n/a	14	17	8	4	5
1984301	PROB	n/a	LTP246	ltpFR2	16	n/a	n/a	n/a	14	56	2	2	1
1985636	PROB	n/a	LTP246	ltpFR2	16	n/a	n/a	n/a	14	18	9	8	1
1987562	STOP	n/a	LTP246	ltpFR2	16	n/a	n/a	n/a	14	n/a	n/a	n/a	n/a
1989389	WORD	wordpools/wasnorm_wordpool_576.txt	LTP246	ltpFR2	16	9	ASIA	46	n/a	n/a	0	0	0
1991974	WORD	wordpools/wasnorm_wordpool_576.txt	LTP246	ltpFR2	16	9	STAKE	1368	n/a	n/a	0	0	0
1994609	WORD	wordpools/wasnorm_wordpool_576.txt	LTP246	ltpFR2	16	9	YARN	1631	n/a	n/a	0	0	0
1997110	WORD	wordpools/wasnorm_wordpool_576.txt	LTP246	ltpFR2	16	9	NOVEL	960	n/a	n/a	0	0	0
1999797	WORD	wordpools/wasnorm_wordpool_576.txt	LTP246	ltpFR2	16	9	KEEPER	769	n/a	n/a	0	0	0
2002382	WORD	wordpools/wasnorm_wordpool_576.txt	LTP246	ltpFR2	16	9	STREAM	1392	n/a	n/a	0	0	0
2004968	WORD	wordpools/wasnorm_wordpool_576.txt	LTP246	ltpFR2	16	9	THREAD	1460	n/a	n/a	0	0	0
2007770	WORD	wordpools/wasnorm_wordpool_576.txt	LTP246	ltpFR2	16	9	HATCHET	691	n/a	n/a	0	0	0
2010556	WORD	wordpools/wasnorm_wordpool_576.txt	LTP246	ltpFR2	16	9	SPOOL	1356	n/a	n/a	0	0	0
2013308	WORD	wordpools/wasnorm_wordpool_576.txt	LTP246	ltpFR2	16	9	LOVER	846	n/a	n/a	0	0	0
2015793	WORD	wordpools/wasnorm_wordpool_576.txt	LTP246	ltpFR2	16	9	FEMALE	559	n/a	n/a	0	0	0
2018529	WORD	wordpools/wasnorm_wordpool_576.txt	LTP246	ltpFR2	16	9	FLASK	576	n/a	n/a	0	0	0
2021130	WORD	wordpools/wasnorm_wordpool_576.txt	LTP246	ltpFR2	16	9	SURVEY	1414	n/a	n/a	0	0	0
2023900	WORD	wordpools/wasnorm_wordpool_576.txt	LTP246	ltpFR2	16	9	THRONE	1461	n/a	n/a	0	0	0
2026518	WORD	wordpools/wasnorm_wordpool_576.txt	LTP246	ltpFR2	16	9	HEDGE	699	n/a	n/a	0	0	0
2029287	WORD	wordpools/wasnorm_wordpool_576.txt	LTP246	ltpFR2	16	9	RAFT	1159	n/a	n/a	0	0	0
2032023	WORD	wordpools/wasnorm_wordpool_576.txt	LTP246	ltpFR2	16	9	PAIL	1002	n/a	n/a	0	0	0
2034675	WORD	wordpools/wasnorm_wordpool_576.txt	LTP246	ltpFR2	16	9	DRESS	495	n/a	n/a	0	0	0
2037294	WORD	wordpools/wasnorm_wordpool_576.txt	LTP246	ltpFR2	16	9	PEBBLE	1035	n/a	n/a	0	0	0
2039879	WORD	wordpools/wasnorm_wordpool_576.txt	LTP246	ltpFR2	16	9	CHEMIST	292	n/a	n/a	0	0	0
2042681	WORD	wordpools/wasnorm_wordpool_576.txt	LTP246	ltpFR2	16	9	WRIST	1626	n/a	n/a	0	0	0
2045165	WORD	wordpools/wasnorm_wordpool_576.txt	LTP246	ltpFR2	16	9	SERVER	1272	n/a	n/a	0	0	0
2047752	WORD	wordpools/wasnorm_wordpool_576.txt	LTP246	ltpFR2	16	9	COSTUME	383	n/a	n/a	0	0	0
2050437	WORD	wordpools/wasnorm_wordpool_576.txt	LTP246	ltpFR2	16	9	FIDDLE	561	n/a	n/a	0	0	0
2052056	START	n/a	LTP246	ltpFR2	16	n/a	n/a	n/a	15	n/a	n/a	n/a	n/a
2053063	DISTRACTOR	n/a	LTP246	ltpFR2	16	9	n/a	n/a	n/a	n/a	0	0	0
2053089	PROB	n/a	LTP246	ltpFR2	16	n/a	n/a	n/a	15	12	2	1	9
2054357	PROB	n/a	LTP246	ltpFR2	16	n/a	n/a	n/a	15	20	9	7	4
2056709	PROB	n/a	LTP246	ltpFR2	16	n/a	n/a	n/a	15	7	5	1	1
2057777	PROB	n/a	LTP246	ltpFR2	16	n/a	n/a	n/a	15	7	5	1	1
2058661	PROB	n/a	LTP246	ltpFR2	16	n/a	n/a	n/a	15	20	7	9	4
2060762	PROB	n/a	LTP246	ltpFR2	16	n/a	n/a	n/a	15	14	8	4	2
2062447	PROB	n/a	LTP246	ltpFR2	16	n/a	n/a	n/a	15	16	6	9	1
2064015	PROB	n/a	LTP246	ltpFR2	16	n/a	n/a	n/a	15	21	7	8	6
2066199	PROB	n/a	LTP246	ltpFR2	16	n/a	n/a	n/a	15	16	9	4	3
2068485	PROB	n/a	LTP246	ltpFR2	16	n/a	n/a	n/a	15	17	4	4	9
2070220	PROB	n/a	LTP246	ltpFR2	16	n/a	n/a	n/a	15	19	9	8	2
2072272	PROB	n/a	LTP246	ltpFR2	16	n/a	n/a	n/a	15	17	3	9	5
2076056	STOP	n/a	LTP246	ltpFR2	16	n/a	n/a	n/a	15	n/a	n/a	n/a	n/a
2078010	REC_START	n/a	LTP246	ltpFR2	16	9	n/a	n/a	n/a	n/a	0	0	0
2080946	REC_WORD	wordpools/wasnorm_wordpool_576.txt	LTP246	ltpFR2	16	9	STAKE	1368	n/a	n/a	0	0	0
2082397	REC_WORD	wordpools/wasnorm_wordpool_576.txt	LTP246	ltpFR2	16	9	ASIA	46	n/a	n/a	0	0	0
2083496	REC_WORD	wordpools/wasnorm_wordpool_576.txt	LTP246	ltpFR2	16	9	KEEPER	769	n/a	n/a	0	0	0
2085937	REC_WORD	wordpools/wasnorm_wordpool_576.txt	LTP246	ltpFR2	16	9	YARN	1631	n/a	n/a	0	0	0
2086915	REC_WORD	wordpools/wasnorm_wordpool_576.txt	LTP246	ltpFR2	16	9	THREAD	1460	n/a	n/a	0	0	0
2088812	REC_WORD	wordpools/wasnorm_wordpool_576.txt	LTP246	ltpFR2	16	9	STREAM	1392	n/a	n/a	0	0	0
2090160	REC_WORD	wordpools/wasnorm_wordpool_576.txt	LTP246	ltpFR2	16	9	HATCHET	691	n/a	n/a	0	0	0
2091563	REC_WORD	wordpools/wasnorm_wordpool_576.txt	LTP246	ltpFR2	16	9	SPOOL	1356	n/a	n/a	0	0	0
2097234	REC_WORD	wordpools/wasnorm_wordpool_576.txt	LTP246	ltpFR2	16	9	LOVER	846	n/a	n/a	0	0	0
2098429	REC_WORD	wordpools/wasnorm_wordpool_576.txt	LTP246	ltpFR2	16	9	FLASK	576	n/a	n/a	0	0	0
2099733	REC_WORD	wordpools/wasnorm_wordpool_576.txt	LTP246	ltpFR2	16	9	HEDGE	699	n/a	n/a	0	0	0
2100786	REC_WORD	wordpools/wasnorm_wordpool_576.txt	LTP246	ltpFR2	16	9	RAFT	1159	n/a	n/a	0	0	0
2102024	REC_WORD	wordpools/wasnorm_wordpool_576.txt	LTP246	ltpFR2	16	9	PAIL	1002	n/a	n/a	0	0	0
2103304	REC_WORD	wordpools/wasnorm_wordpool_576.txt	LTP246	ltpFR2	16	9	DRESS	495	n/a	n/a	0	0	0
2168632	DISTRACTOR	n/a	LTP246	ltpFR2	16	10	n/a	n/a	n/a	n/a	0	0	0
2168632	START	n/a	LTP246	ltpFR2	16	n/a	n/a	n/a	16	n/a	n/a	n/a	n/a
2168665	PROB	n/a	LTP246	ltpFR2	16	n/a	n/a	n/a	16	15	4	2	7
2170467	PROB	n/a	LTP246	ltpFR2	16	n/a	n/a	n/a	16	15	5	7	3
2171985	PROB	n/a	LTP246	ltpFR2	16	n/a	n/a	n/a	16	18	9	6	3
2173536	PROB	n/a	LTP246	ltpFR2	16	n/a	n/a	n/a	16	17	9	4	8
2175971	PROB	n/a	LTP246	ltpFR2	16	n/a	n/a	n/a	16	16	6	7	3
2177439	PROB	n/a	LTP246	ltpFR2	16	n/a	n/a	n/a	16	12	8	2	2
2178556	PROB	n/a	LTP246	ltpFR2	16	n/a	n/a	n/a	16	16	6	6	4
2179774	PROB	n/a	LTP246	ltpFR2	16	n/a	n/a	n/a	16	12	1	6	5
2181042	PROB	n/a	LTP246	ltpFR2	16	n/a	n/a	n/a	16	14	9	4	1
2182426	PROB	n/a	LTP246	ltpFR2	16	n/a	n/a	n/a	16	19	3	8	8
2184328	PROB	n/a	LTP246	ltpFR2	16	n/a	n/a	n/a	16	19	5	8	6
2185912	PROB	n/a	LTP246	ltpFR2	16	n/a	n/a	n/a	16	8	1	3	1
2187030	PROB	n/a	LTP246	ltpFR2	16	n/a	n/a	n/a	16	13	7	4	1
2190299	PROB	n/a	LTP246	ltpFR2	16	n/a	n/a	n/a	16	19	2	8	9
2191722	STOP	n/a	LTP246	ltpFR2	16	n/a	n/a	n/a	16	n/a	n/a	n/a	n/a
2193835	WORD	wordpools/wasnorm_wordpool_576.txt	LTP246	ltpFR2	16	10	PLASTER	1085	n/a	n/a	0	0	0
2196321	WORD	wordpools/wasnorm_wordpool_576.txt	LTP246	ltpFR2	16	10	BRAKE	166	n/a	n/a	0	0	0
2199056	WORD	wordpools/wasnorm_wordpool_576.txt	LTP246	ltpFR2	16	10	MATTRESS	879	n/a	n/a	0	0	0
2201808	WORD	wordpools/wasnorm_wordpool_576.txt	LTP246	ltpFR2	16	10	LOFT	840	n/a	n/a	0	0	0
2204477	WORD	wordpools/wasnorm_wordpool_576.txt	LTP246	ltpFR2	16	10	PAPER	1011	n/a	n/a	0	0	0
2207128	WORD	wordpools/wasnorm_wordpool_576.txt	LTP246	ltpFR2	16	10	JOURNAL	760	n/a	n/a	0	0	0
2209648	WORD	wordpools/wasnorm_wordpool_576.txt	LTP246	ltpFR2	16	10	SUSPECT	1415	n/a	n/a	0	0	0
2212166	WORD	wordpools/wasnorm_wordpool_576.txt	LTP246	ltpFR2	16	10	FLEET	578	n/a	n/a	0	0	0
2214969	WORD	wordpools/wasnorm_wordpool_576.txt	LTP246	ltpFR2	16	10	WHISTLE	1606	n/a	n/a	0	0	0
2217521	WORD	wordpools/wasnorm_wordpool_576.txt	LTP246	ltpFR2	16	10	PATIENT	1024	n/a	n/a	0	0	0
2219990	WORD	wordpools/wasnorm_wordpool_576.txt	LTP246	ltpFR2	16	10	COLONEL	348	n/a	n/a	0	0	0
2222592	WORD	wordpools/wasnorm_wordpool_576.txt	LTP246	ltpFR2	16	10	DUSTPAN	509	n/a	n/a	0	0	0
2225193	WORD	wordpools/wasnorm_wordpool_576.txt	LTP246	ltpFR2	16	10	GRAVEL	659	n/a	n/a	0	0	0
2227912	WORD	wordpools/wasnorm_wordpool_576.txt	LTP246	ltpFR2	16	10	EXPERT	543	n/a	n/a	0	0	0
2230431	WORD	wordpools/wasnorm_wordpool_576.txt	LTP246	ltpFR2	16	10	CAPTIVE	240	n/a	n/a	0	0	0
2233050	WORD	wordpools/wasnorm_wordpool_576.txt	LTP246	ltpFR2	16	10	VAGRANT	1544	n/a	n/a	0	0	0
2235535	WORD	wordpools/wasnorm_wordpool_576.txt	LTP246	ltpFR2	16	10	POCKET	1093	n/a	n/a	0	0	0
2238186	WORD	wordpools/wasnorm_wordpool_576.txt	LTP246	ltpFR2	16	10	SKILLET	1317	n/a	n/a	0	0	0
2240806	WORD	wordpools/wasnorm_wordpool_576.txt	LTP246	ltpFR2	16	10	SCALPEL	1243	n/a	n/a	0	0	0
2243442	WORD	wordpools/wasnorm_wordpool_576.txt	LTP246	ltpFR2	16	10	IDOL	733	n/a	n/a	0	0	0
2245910	WORD	wordpools/wasnorm_wordpool_576.txt	LTP246	ltpFR2	16	10	TWISTER	1530	n/a	n/a	0	0	0
2248462	WORD	wordpools/wasnorm_wordpool_576.txt	LTP246	ltpFR2	16	10	MARKER	870	n/a	n/a	0	0	0
2251231	WORD	wordpools/wasnorm_wordpool_576.txt	LTP246	ltpFR2	16	10	CRATER	400	n/a	n/a	0	0	0
2253833	WORD	wordpools/wasnorm_wordpool_576.txt	LTP246	ltpFR2	16	10	ROOSTER	1209	n/a	n/a	0	0	0
2255451	START	n/a	LTP246	ltpFR2	16	n/a	n/a	n/a	17	n/a	n/a	n/a	n/a
2256370	DISTRACTOR	n/a	LTP246	ltpFR2	16	10	n/a	n/a	n/a	n/a	0	0	0
2256402	PROB	n/a	LTP246	ltpFR2	16	n/a	n/a	n/a	17	11	5	4	2
2257853	PROB	n/a	LTP246	ltpFR2	16	n/a	n/a	n/a	17	4	1	2	1
2258987	PROB	n/a	LTP246	ltpFR2	16	n/a	n/a	n/a	17	21	4	8	9
2261356	PROB	n/a	LTP246	ltpFR2	16	n/a	n/a	n/a	17	23	7	6	9
2267411	PROB	n/a	LTP246	ltpFR2	16	n/a	n/a	n/a	17	13	7	1	5
2268945	PROB	n/a	LTP246	ltpFR2	16	n/a	n/a	n/a	17	17	4	5	8
2270280	PROB	n/a	LTP246	ltpFR2	16	n/a	n/a	n/a	17	16	9	5	2
2272615	PROB	n/a	LTP246	ltpFR2	16	n/a	n/a	n/a	17	18	6	5	7
2274283	PROB	n/a	LTP246	ltpFR2	16	n/a	n/a	n/a	17	17	4	4	9
2279451	STOP	n/a	LTP246	ltpFR2	16	n/a	n/a	n/a	17	n/a	n/a	n/a	n/a
2281372	REC_START	n/a	LTP246	ltpFR2	16	10	n/a	n/a	n/a	n/a	0	0	0
2283747	REC_WORD	wordpools/wasnorm_wordpool_576.txt	LTP246	ltpFR2	16	10	PLASTER	1085	n/a	n/a	0	0	0
2285829	REC_WORD	wordpools/wasnorm_wordpool_576.txt	LTP246	ltpFR2	16	10	BRAKE	166	n/a	n/a	0	0	0
2287027	REC_WORD	wordpools/wasnorm_wordpool_576.txt	LTP246	ltpFR2	16	10	LOFT	840	n/a	n/a	0	0	0
2288236	REC_WORD	wordpools/wasnorm_wordpool_576.txt	LTP246	ltpFR2	16	10	MATTRESS	879	n/a	n/a	0	0	0
2289519	REC_WORD	wordpools/wasnorm_wordpool_576.txt	LTP246	ltpFR2	16	10	PAPER	1011	n/a	n/a	0	0	0
2292150	REC_WORD	wordpools/wasnorm_wordpool_576.txt	LTP246	ltpFR2	16	10	JOURNAL	760	n/a	n/a	0	0	0
2294298	REC_WORD	wordpools/wasnorm_wordpool_576.txt	LTP246	ltpFR2	16	10	SUSPECT	1415	n/a	n/a	0	0	0
2296566	REC_WORD	wordpools/wasnorm_wordpool_576.txt	LTP246	ltpFR2	16	10	FLEET	578	n/a	n/a	0	0	0
2298011	REC_WORD	wordpools/wasnorm_wordpool_576.txt	LTP246	ltpFR2	16	10	WHISTLE	1606	n/a	n/a	0	0	0
2299286	REC_WORD	wordpools/wasnorm_wordpool_576.txt	LTP246	ltpFR2	16	10	PATIENT	1024	n/a	n/a	0	0	0
2371994	DISTRACTOR	n/a	LTP246	ltpFR2	16	11	n/a	n/a	n/a	n/a	0	0	0
2371994	START	n/a	LTP246	ltpFR2	16	n/a	n/a	n/a	18	n/a	n/a	n/a	n/a
2372028	PROB	n/a	LTP246	ltpFR2	16	n/a	n/a	n/a	18	15	9	5	1
2373178	PROB	n/a	LTP246	ltpFR2	16	n/a	n/a	n/a	18	11	3	3	5
2374763	PROB	n/a	LTP246	ltpFR2	16	n/a	n/a	n/a	18	18	6	8	4
2376081	PROB	n/a	LTP246	ltpFR2	16	n/a	n/a	n/a	18	15	6	8	1
2378066	PROB	n/a	LTP246	ltpFR2	16	n/a	n/a	n/a	18	14	3	4	7
2380501	PROB	n/a	LTP246	ltpFR2	16	n/a	n/a	n/a	18	17	6	8	3
2383954	PROB	n/a	LTP246	ltpFR2	16	n/a	n/a	n/a	18	8	4	1	3
2385204	PROB	n/a	LTP246	ltpFR2	16	n/a	n/a	n/a	18	12	4	5	3
2387423	PROB	n/a	LTP246	ltpFR2	16	n/a	n/a	n/a	18	15	4	6	5
2389291	PROB	n/a	LTP246	ltpFR2	16	n/a	n/a	n/a	18	20	9	8	3
2391727	PROB	n/a	LTP246	ltpFR2	16	n/a	n/a	n/a	18	26	8	9	9
2393461	PROB	n/a	LTP246	ltpFR2	16	n/a	n/a	n/a	18	18	6	4	8
2394561	STOP	n/a	LTP246	ltpFR2	16	n/a	n/a	n/a	18	n/a	n/a	n/a	n/a
2397113	WORD	wordpools/wasnorm_wordpool_576.txt	LTP246	ltpFR2	16	11	SUNRISE	1407	n/a	n/a	0	0	0
2399933	WORD	wordpools/wasnorm_wordpool_576.txt	LTP246	ltpFR2	16	11	CLAM	315	n/a	n/a	0	0	0
2402585	WORD	wordpools/wasnorm_wordpool_576.txt	LTP246	ltpFR2	16	11	HOOK	715	n/a	n/a	0	0	0
2405120	WORD	wordpools/wasnorm_wordpool_576.txt	LTP246	ltpFR2	16	11	FRANCE	601	n/a	n/a	0	0	0
2407890	WORD	wordpools/wasnorm_wordpool_576.txt	LTP246	ltpFR2	16	11	LONDON	843	n/a	n/a	0	0	0
2410508	WORD	wordpools/wasnorm_wordpool_576.txt	LTP246	ltpFR2	16	11	ANKLE	24	n/a	n/a	0	0	0
2412944	WORD	wordpools/wasnorm_wordpool_576.txt	LTP246	ltpFR2	16	11	EAGLE	512	n/a	n/a	0	0	0
2415579	WORD	wordpools/wasnorm_wordpool_576.txt	LTP246	ltpFR2	16	11	DOLPHIN	483	n/a	n/a	0	0	0
2418130	WORD	wordpools/wasnorm_wordpool_576.txt	LTP246	ltpFR2	16	11	CHIPMUNK	304	n/a	n/a	0	0	0
2420967	WORD	wordpools/wasnorm_wordpool_576.txt	LTP246	ltpFR2	16	11	RABBIT	1152	n/a	n/a	0	0	0
2423535	WORD	wordpools/wasnorm_wordpool_576.txt	LTP246	ltpFR2	16	11	GIRL	637	n/a	n/a	0	0	0
2426087	WORD	wordpools/wasnorm_wordpool_576.txt	LTP246	ltpFR2	16	11	DUST	508	n/a	n/a	0	0	0
2428556	WORD	wordpools/wasnorm_wordpool_576.txt	LTP246	ltpFR2	16	11	FIREPLACE	570	n/a	n/a	0	0	0
2431242	WORD	wordpools/wasnorm_wordpool_576.txt	LTP246	ltpFR2	16	11	STAR	1373	n/a	n/a	0	0	0
2433743	WORD	wordpools/wasnorm_wordpool_576.txt	LTP246	ltpFR2	16	11	PLIERS	1089	n/a	n/a	0	0	0
2436211	WORD	wordpools/wasnorm_wordpool_576.txt	LTP246	ltpFR2	16	11	TURTLE	1522	n/a	n/a	0	0	0
2439048	WORD	wordpools/wasnorm_wordpool_576.txt	LTP246	ltpFR2	16	11	PIGMENT	1066	n/a	n/a	0	0	0
2441567	WORD	wordpools/wasnorm_wordpool_576.txt	LTP246	ltpFR2	16	11	FOOT	590	n/a	n/a	0	0	0
2444118	WORD	wordpools/wasnorm_wordpool_576.txt	LTP246	ltpFR2	16	11	MEAT	883	n/a	n/a	0	0	0
2446721	WORD	wordpools/wasnorm_wordpool_576.txt	LTP246	ltpFR2	16	11	SAUSAGE	1238	n/a	n/a	0	0	0
2449389	WORD	wordpools/wasnorm_wordpool_576.txt	LTP246	ltpFR2	16	11	MARSH	874	n/a	n/a	0	0	0
2452191	WORD	wordpools/wasnorm_wordpool_576.txt	LTP246	ltpFR2	16	11	VALVE	1546	n/a	n/a	0	0	0
2454994	WORD	wordpools/wasnorm_wordpool_576.txt	LTP246	ltpFR2	16	11	VALLEY	1545	n/a	n/a	0	0	0
2457463	WORD	wordpools/wasnorm_wordpool_576.txt	LTP246	ltpFR2	16	11	RELISH	1183	n/a	n/a	0	0	0
2459081	START	n/a	LTP246	ltpFR2	16	n/a	n/a	n/a	19	n/a	n/a	n/a	n/a
2460050	DISTRACTOR	n/a	LTP246	ltpFR2	16	11	n/a	n/a	n/a	n/a	0	0	0
2460081	PROB	n/a	LTP246	ltpFR2	16	n/a	n/a	n/a	19	20	4	9	7
2464084	PROB	n/a	LTP246	ltpFR2	16	n/a	n/a	n/a	19	9	1	6	2
2465436	PROB	n/a	LTP246	ltpFR2	16	n/a	n/a	n/a	19	17	3	9	5
2466820	PROB	n/a	LTP246	ltpFR2	16	n/a	n/a	n/a	19	22	9	5	8
2471374	PROB	n/a	LTP246	ltpFR2	16	n/a	n/a	n/a	19	16	6	5	5
2472541	PROB	n/a	LTP246	ltpFR2	16	n/a	n/a	n/a	19	10	2	6	2
2473926	PROB	n/a	LTP246	ltpFR2	16	n/a	n/a	n/a	19	9	1	2	6
2475192	PROB	n/a	LTP246	ltpFR2	16	n/a	n/a	n/a	19	20	9	7	4
2477312	PROB	n/a	LTP246	ltpFR2	16	n/a	n/a	n/a	19	21	7	8	6
2479129	PROB	n/a	LTP246	ltpFR2	16	n/a	n/a	n/a	19	17	8	8	1
2480681	PROB	n/a	LTP246	ltpFR2	16	n/a	n/a	n/a	19	15	4	9	2
2482052	STOP	n/a	LTP246	ltpFR2	16	n/a	n/a	n/a	19	n/a	n/a	n/a	n/a
2485018	REC_START	n/a	LTP246	ltpFR2	16	11	n/a	n/a	n/a	n/a	0	0	0
2489549	REC_WORD	wordpools/wasnorm_wordpool_576.txt	LTP246	ltpFR2	16	11	FRANCE	601	n/a	n/a	0	0	0
2490957	REC_WORD	wordpools/wasnorm_wordpool_576.txt	LTP246	ltpFR2	16	11	LONDON	843	n/a	n/a	0	0	0
2492218	REC_WORD	wordpools/wasnorm_wordpool_576.txt	LTP246	ltpFR2	16	11	ANKLE	24	n/a	n/a	0	0	0
2493480	REC_WORD	wordpools/wasnorm_wordpool_576.txt	LTP246	ltpFR2	16	11	EAGLE	512	n/a	n/a	0	0	0
2494788	REC_WORD	wordpools/wasnorm_wordpool_576.txt	LTP246	ltpFR2	16	11	DOLPHIN	483	n/a	n/a	0	0	0
2496127	REC_WORD	wordpools/wasnorm_wordpool_576.txt	LTP246	ltpFR2	16	11	CHIPMUNK	304	n/a	n/a	0	0	0
2497351	REC_WORD	wordpools/wasnorm_wordpool_576.txt	LTP246	ltpFR2	16	11	RABBIT	1152	n/a	n/a	0	0	0
2498703	REC_WORD	wordpools/wasnorm_wordpool_576.txt	LTP246	ltpFR2	16	11	GIRL	637	n/a	n/a	0	0	0
2500010	REC_WORD	wordpools/wasnorm_wordpool_576.txt	LTP246	ltpFR2	16	11	DUST	508	n/a	n/a	0	0	0
2501097	REC_WORD	wordpools/wasnorm_wordpool_576.txt	LTP246	ltpFR2	16	11	FIREPLACE	570	n/a	n/a	0	0	0
2502426	REC_WORD	wordpools/wasnorm_wordpool_576.txt	LTP246	ltpFR2	16	11	STAR	1373	n/a	n/a	0	0	0
2503964	REC_WORD	wordpools/wasnorm_wordpool_576.txt	LTP246	ltpFR2	16	11	TURTLE	1522	n/a	n/a	0	0	0
2505234	REC_WORD	wordpools/wasnorm_wordpool_576.txt	LTP246	ltpFR2	16	11	PIGMENT	1066	n/a	n/a	0	0	0
2506299	REC_WORD	wordpools/wasnorm_wordpool_576.txt	LTP246	ltpFR2	16	11	FOOT	590	n/a	n/a	0	0	0
2507610	REC_WORD	wordpools/wasnorm_wordpool_576.txt	LTP246	ltpFR2	16	11	PLIERS	1089	n/a	n/a	0	0	0
2575657	DISTRACTOR	n/a	LTP246	ltpFR2	16	12	n/a	n/a	n/a	n/a	0	0	0
2575657	START	n/a	LTP246	ltpFR2	16	n/a	n/a	n/a	20	n/a	n/a	n/a	n/a
2575690	PROB	n/a	LTP246	ltpFR2	16	n/a	n/a	n/a	20	16	5	9	2
2577842	PROB	n/a	LTP246	ltpFR2	16	n/a	n/a	n/a	20	16	3	4	9
2579192	PROB	n/a	LTP246	ltpFR2	16	n/a	n/a	n/a	20	17	6	5	6
2580944	PROB	n/a	LTP246	ltpFR2	16	n/a	n/a	n/a	20	18	5	5	8
2582512	PROB	n/a	LTP246	ltpFR2	16	n/a	n/a	n/a	20	13	3	7	3
2584533	PROB	n/a	LTP246	ltpFR2	16	n/a	n/a	n/a	20	10	1	6	3
2585884	PROB	n/a	LTP246	ltpFR2	16	n/a	n/a	n/a	20	13	4	7	1
2588086	PROB	n/a	LTP246	ltpFR2	16	n/a	n/a	n/a	20	21	8	7	6
2590372	PROB	n/a	LTP246	ltpFR2	16	n/a	n/a	n/a	20	18	9	7	2
2592056	PROB	n/a	LTP246	ltpFR2	16	n/a	n/a	n/a	20	19	3	7	9
2594058	PROB	n/a	LTP246	ltpFR2	16	n/a	n/a	n/a	20	20	7	6	7
2596710	PROB	n/a	LTP246	ltpFR2	16	n/a	n/a	n/a	20	14	4	9	1
2598200	STOP	n/a	LTP246	ltpFR2	16	n/a	n/a	n/a	20	n/a	n/a	n/a	n/a
2600547	WORD	wordpools/wasnorm_wordpool_576.txt	LTP246	ltpFR2	16	12	VIRUS	1572	n/a	n/a	0	0	0
2603015	WORD	wordpools/wasnorm_wordpool_576.txt	LTP246	ltpFR2	16	12	TABLE	1426	n/a	n/a	0	0	0
2605701	WORD	wordpools/wasnorm_wordpool_576.txt	LTP246	ltpFR2	16	12	PICNIC	1060	n/a	n/a	0	0	0
2608503	WORD	wordpools/wasnorm_wordpool_576.txt	LTP246	ltpFR2	16	12	DORM	488	n/a	n/a	0	0	0
2610955	WORD	wordpools/wasnorm_wordpool_576.txt	LTP246	ltpFR2	16	12	SCULPTURE	1258	n/a	n/a	0	0	0
2613706	WORD	wordpools/wasnorm_wordpool_576.txt	LTP246	ltpFR2	16	12	FOX	598	n/a	n/a	0	0	0
2616174	WORD	wordpools/wasnorm_wordpool_576.txt	LTP246	ltpFR2	16	12	LEOPARD	812	n/a	n/a	0	0	0
2618628	WORD	wordpools/wasnorm_wordpool_576.txt	LTP246	ltpFR2	16	12	CREATURE	403	n/a	n/a	0	0	0
2621230	WORD	wordpools/wasnorm_wordpool_576.txt	LTP246	ltpFR2	16	12	RUST	1219	n/a	n/a	0	0	0
2624065	WORD	wordpools/wasnorm_wordpool_576.txt	LTP246	ltpFR2	16	12	PISTON	1076	n/a	n/a	0	0	0
2626567	WORD	wordpools/wasnorm_wordpool_576.txt	LTP246	ltpFR2	16	12	PUPPY	1144	n/a	n/a	0	0	0
2629135	WORD	wordpools/wasnorm_wordpool_576.txt	LTP246	ltpFR2	16	12	PANTHER	1009	n/a	n/a	0	0	0
2631821	WORD	wordpools/wasnorm_wordpool_576.txt	LTP246	ltpFR2	16	12	BEEF	113	n/a	n/a	0	0	0
2634289	WORD	wordpools/wasnorm_wordpool_576.txt	LTP246	ltpFR2	16	12	COLLEGE	346	n/a	n/a	0	0	0
2636959	WORD	wordpools/wasnorm_wordpool_576.txt	LTP246	ltpFR2	16	12	FRIEND	606	n/a	n/a	0	0	0
2639728	WORD	wordpools/wasnorm_wordpool_576.txt	LTP246	ltpFR2	16	12	CEILING	265	n/a	n/a	0	0	0
2642530	WORD	wordpools/wasnorm_wordpool_576.txt	LTP246	ltpFR2	16	12	TILE	1468	n/a	n/a	0	0	0
2645298	WORD	wordpools/wasnorm_wordpool_576.txt	LTP246	ltpFR2	16	12	MAILMAN	858	n/a	n/a	0	0	0
2648034	WORD	wordpools/wasnorm_wordpool_576.txt	LTP246	ltpFR2	16	12	MESSAGE	888	n/a	n/a	0	0	0
2650820	WORD	wordpools/wasnorm_wordpool_576.txt	LTP246	ltpFR2	16	12	FRAME	600	n/a	n/a	0	0	0
2653355	WORD	wordpools/wasnorm_wordpool_576.txt	LTP246	ltpFR2	16	12	PARTNER	1017	n/a	n/a	0	0	0
2655790	WORD	wordpools/wasnorm_wordpool_576.txt	LTP246	ltpFR2	16	12	SCALLOP	1242	n/a	n/a	0	0	0
2658476	WORD	wordpools/wasnorm_wordpool_576.txt	LTP246	ltpFR2	16	12	BARLEY	88	n/a	n/a	0	0	0
2661295	WORD	wordpools/wasnorm_wordpool_576.txt	LTP246	ltpFR2	16	12	ROBIN	1199	n/a	n/a	0	0	0
2662913	START	n/a	LTP246	ltpFR2	16	n/a	n/a	n/a	21	n/a	n/a	n/a	n/a
2663893	DISTRACTOR	n/a	LTP246	ltpFR2	16	12	n/a	n/a	n/a	n/a	0	0	0
2663897	PROB	n/a	LTP246	ltpFR2	16	n/a	n/a	n/a	21	23	6	9	8
2667300	PROB	n/a	LTP246	ltpFR2	16	n/a	n/a	n/a	21	14	6	2	6
2669201	PROB	n/a	LTP246	ltpFR2	16	n/a	n/a	n/a	21	8	1	1	6
2670503	PROB	n/a	LTP246	ltpFR2	16	n/a	n/a	n/a	21	6	2	1	3
2672454	PROB	n/a	LTP246	ltpFR2	16	n/a	n/a	n/a	21	16	5	2	9
2674722	PROB	n/a	LTP246	ltpFR2	16	n/a	n/a	n/a	21	15	5	7	3
2676025	PROB	n/a	LTP246	ltpFR2	16	n/a	n/a	n/a	21	17	1	9	7
2678392	PROB	n/a	LTP246	ltpFR2	16	n/a	n/a	n/a	21	15	6	6	3
2682363	PROB	n/a	LTP246	ltpFR2	16	n/a	n/a	n/a	21	7	1	2	5
2683512	PROB	n/a	LTP246	ltpFR2	16	n/a	n/a	n/a	21	22	9	7	6
2686203	STOP	n/a	LTP246	ltpFR2	16	n/a	n/a	n/a	21	n/a	n/a	n/a	n/a
2688718	REC_START	n/a	LTP246	ltpFR2	16	12	n/a	n/a	n/a	n/a	0	0	0
2696108	REC_WORD	wordpools/wasnorm_wordpool_576.txt	LTP246	ltpFR2	16	12	BARLEY	88	n/a	n/a	0	0	0
2697700	REC_WORD	wordpools/wasnorm_wordpool_576.txt	LTP246	ltpFR2	16	12	ROBIN	1199	n/a	n/a	0	0	0
2699194	REC_WORD	wordpools/wasnorm_wordpool_576.txt	LTP246	ltpFR2	16	12	SCALLOP	1242	n/a	n/a	0	0	0
2700704	REC_WORD	wordpools/wasnorm_wordpool_576.txt	LTP246	ltpFR2	16	12	FRAME	600	n/a	n/a	0	0	0
2702337	REC_WORD	wordpools/wasnorm_wordpool_576.txt	LTP246	ltpFR2	16	12	PARTNER	1017	n/a	n/a	0	0	0
2709078	REC_WORD	wordpools/wasnorm_wordpool_576.txt	LTP246	ltpFR2	16	12	VIRUS	1572	n/a	n/a	0	0	0
2710478	REC_WORD	wordpools/wasnorm_wordpool_576.txt	LTP246	ltpFR2	16	12	TABLE	1426	n/a	n/a	0	0	0
2711893	REC_WORD	wordpools/wasnorm_wordpool_576.txt	LTP246	ltpFR2	16	12	DORM	488	n/a	n/a	0	0	0
2713018	REC_WORD	wordpools/wasnorm_wordpool_576.txt	LTP246	ltpFR2	16	12	SCULPTURE	1258	n/a	n/a	0	0	0
2714470	REC_WORD	wordpools/wasnorm_wordpool_576.txt	LTP246	ltpFR2	16	12	FOX	598	n/a	n/a	0	0	0
2717802	REC_WORD	wordpools/wasnorm_wordpool_576.txt	LTP246	ltpFR2	16	12	FRIEND	606	n/a	n/a	0	0	0
2779190	WORD	wordpools/wasnorm_wordpool_576.txt	LTP246	ltpFR2	16	13	REBEL	1172	n/a	n/a	0	0	0
2781690	WORD	wordpools/wasnorm_wordpool_576.txt	LTP246	ltpFR2	16	13	NIGHTGOWN	953	n/a	n/a	0	0	0
2784226	WORD	wordpools/wasnorm_wordpool_576.txt	LTP246	ltpFR2	16	13	PADDING	999	n/a	n/a	0	0	0
2786662	WORD	wordpools/wasnorm_wordpool_576.txt	LTP246	ltpFR2	16	13	SWIMMER	1420	n/a	n/a	0	0	0
2789447	WORD	wordpools/wasnorm_wordpool_576.txt	LTP246	ltpFR2	16	13	DIVER	476	n/a	n/a	0	0	0
2791949	WORD	wordpools/wasnorm_wordpool_576.txt	LTP246	ltpFR2	16	13	SNAIL	1332	n/a	n/a	0	0	0
2794535	WORD	wordpools/wasnorm_wordpool_576.txt	LTP246	ltpFR2	16	13	STUDENT	1395	n/a	n/a	0	0	0
2797070	WORD	wordpools/wasnorm_wordpool_576.txt	LTP246	ltpFR2	16	13	BOYFRIEND	162	n/a	n/a	0	0	0
2799855	WORD	wordpools/wasnorm_wordpool_576.txt	LTP246	ltpFR2	16	13	CASKET	255	n/a	n/a	0	0	0
2802390	WORD	wordpools/wasnorm_wordpool_576.txt	LTP246	ltpFR2	16	13	SHARK	1275	n/a	n/a	0	0	0
2805192	WORD	wordpools/wasnorm_wordpool_576.txt	LTP246	ltpFR2	16	13	ATOM	55	n/a	n/a	0	0	0
2807662	WORD	wordpools/wasnorm_wordpool_576.txt	LTP246	ltpFR2	16	13	HELMET	702	n/a	n/a	0	0	0
2810280	WORD	wordpools/wasnorm_wordpool_576.txt	LTP246	ltpFR2	16	13	TURNIP	1521	n/a	n/a	0	0	0
2812883	WORD	wordpools/wasnorm_wordpool_576.txt	LTP246	ltpFR2	16	13	CANAL	226	n/a	n/a	0	0	0
2815535	WORD	wordpools/wasnorm_wordpool_576.txt	LTP246	ltpFR2	16	13	SCRIBBLE	1256	n/a	n/a	0	0	0
2818136	WORD	wordpools/wasnorm_wordpool_576.txt	LTP246	ltpFR2	16	13	RACKET	1155	n/a	n/a	0	0	0
2820722	WORD	wordpools/wasnorm_wordpool_576.txt	LTP246	ltpFR2	16	13	SOFTBALL	1343	n/a	n/a	0	0	0
2823508	WORD	wordpools/wasnorm_wordpool_576.txt	LTP246	ltpFR2	16	13	MUMMY	932	n/a	n/a	0	0	0
2826043	WORD	wordpools/wasnorm_wordpool_576.txt	LTP246	ltpFR2	16	13	LEG	809	n/a	n/a	0	0	0
2828545	WORD	wordpools/wasnorm_wordpool_576.txt	LTP246	ltpFR2	16	13	HOSTESS	723	n/a	n/a	0	0	0
2831080	WORD	wordpools/wasnorm_wordpool_576.txt	LTP246	ltpFR2	16	13	NEUTRON	947	n/a	n/a	0	0	0
2833548	WORD	wordpools/wasnorm_wordpool_576.txt	LTP246	ltpFR2	16	13	TUNNEL	1519	n/a	n/a	0	0	0
2836116	WORD	wordpools/wasnorm_wordpool_576.txt	LTP246	ltpFR2	16	13	OX	994	n/a	n/a	0	0	0
2838753	WORD	wordpools/wasnorm_wordpool_576.txt	LTP246	ltpFR2	16	13	OUTDOORS	987	n/a	n/a	0	0	0
2840372	START	n/a	LTP246	ltpFR2	16	n/a	n/a	n/a	22	n/a	n/a	n/a	n/a
2841510	DISTRACTOR	n/a	LTP246	ltpFR2	16	13	n/a	n/a	n/a	n/a	0	0	0
2841522	PROB	n/a	LTP246	ltpFR2	16	n/a	n/a	n/a	22	16	8	4	3
2842941	PROB	n/a	LTP246	ltpFR2	16	n/a	n/a	n/a	22	5	2	2	1
2844090	PROB	n/a	LTP246	ltpFR2	16	n/a	n/a	n/a	22	13	3	5	5
2845325	PROB	n/a	LTP246	ltpFR2	16	n/a	n/a	n/a	22	17	2	8	7
2846544	PROB	n/a	LTP246	ltpFR2	16	n/a	n/a	n/a	22	20	9	6	5
2848176	PROB	n/a	LTP246	ltpFR2	16	n/a	n/a	n/a	22	22	9	8	5
2852532	PROB	n/a	LTP246	ltpFR2	16	n/a	n/a	n/a	22	19	5	7	7
2854766	PROB	n/a	LTP246	ltpFR2	16	n/a	n/a	n/a	22	14	6	2	6
2856200	PROB	n/a	LTP246	ltpFR2	16	n/a	n/a	n/a	22	11	7	2	2
2857634	PROB	n/a	LTP246	ltpFR2	16	n/a	n/a	n/a	22	8	2	1	5
2858719	PROB	n/a	LTP246	ltpFR2	16	n/a	n/a	n/a	22	8	6	1	1
2859771	PROB	n/a	LTP246	ltpFR2	16	n/a	n/a	n/a	22	9	3	3	3
2864372	STOP	n/a	LTP246	ltpFR2	16	n/a	n/a	n/a	22	n/a	n/a	n/a	n/a
2866293	REC_START	n/a	LTP246	ltpFR2	16	13	n/a	n/a	n/a	n/a	0	0	0
2871660	REC_WORD	wordpools/wasnorm_wordpool_576.txt	LTP246	ltpFR2	16	13	REBEL	1172	n/a	n/a	0	0	0
2873806	REC_WORD	wordpools/wasnorm_wordpool_576.txt	LTP246	ltpFR2	16	13	NIGHTGOWN	953	n/a	n/a	0	0	0
2875373	REC_WORD	wordpools/wasnorm_wordpool_576.txt	LTP246	ltpFR2	16	13	PADDING	999	n/a	n/a	0	0	0
2876555	REC_WORD	wordpools/wasnorm_wordpool_576.txt	LTP246	ltpFR2	16	13	SWIMMER	1420	n/a	n/a	0	0	0
2878283	REC_WORD	wordpools/wasnorm_wordpool_576.txt	LTP246	ltpFR2	16	13	DIVER	476	n/a	n/a	0	0	0
2880966	REC_WORD	wordpools/wasnorm_wordpool_576.txt	LTP246	ltpFR2	16	13	SNAIL	1332	n/a	n/a	0	0	0
2882949	REC_WORD	wordpools/wasnorm_wordpool_576.txt	LTP246	ltpFR2	16	13	STUDENT	1395	n/a	n/a	0	0	0
2884955	REC_WORD	wordpools/wasnorm_wordpool_576.txt	LTP246	ltpFR2	16	13	BOYFRIEND	162	n/a	n/a	0	0	0
2886636	REC_WORD	wordpools/wasnorm_wordpool_576.txt	LTP246	ltpFR2	16	13	CASKET	255	n/a	n/a	0	0	0
2887765	REC_WORD	wordpools/wasnorm_wordpool_576.txt	LTP246	ltpFR2	16	13	SHARK	1275	n/a	n/a	0	0	0
2889139	REC_WORD	wordpools/wasnorm_wordpool_576.txt	LTP246	ltpFR2	16	13	ATOM	55	n/a	n/a	0	0	0
2891133	REC_WORD	wordpools/wasnorm_wordpool_576.txt	LTP246	ltpFR2	16	13	HELMET	702	n/a	n/a	0	0	0
2893292	REC_WORD	wordpools/wasnorm_wordpool_576.txt	LTP246	ltpFR2	16	13	RACKET	1155	n/a	n/a	0	0	0
2894235	REC_WORD	wordpools/wasnorm_wordpool_576.txt	LTP246	ltpFR2	16	13	SCRIBBLE	1256	n/a	n/a	0	0	0
2895563	REC_WORD	wordpools/wasnorm_wordpool_576.txt	LTP246	ltpFR2	16	13	SOFTBALL	1343	n/a	n/a	0	0	0
2896975	REC_WORD	wordpools/wasnorm_wordpool_576.txt	LTP246	ltpFR2	16	13	MUMMY	932	n/a	n/a	0	0	0
2898153	REC_WORD	wordpools/wasnorm_wordpool_576.txt	LTP246	ltpFR2	16	13	HOSTESS	723	n/a	n/a	0	0	0
2899382	REC_WORD	wordpools/wasnorm_wordpool_576.txt	LTP246	ltpFR2	16	13	NEUTRON	947	n/a	n/a	0	0	0
2900601	REC_WORD	wordpools/wasnorm_wordpool_576.txt	LTP246	ltpFR2	16	13	TUNNEL	1519	n/a	n/a	0	0	0
2906397	REC_WORD	wordpools/wasnorm_wordpool_576.txt	LTP246	ltpFR2	16	13	TURNIP	1521	n/a	n/a	0	0	0
2971878	WORD	wordpools/wasnorm_wordpool_576.txt	LTP246	ltpFR2	16	14	HIKER	708	n/a	n/a	0	0	0
2974361	WORD	wordpools/wasnorm_wordpool_576.txt	LTP246	ltpFR2	16	14	COOK	372	n/a	n/a	0	0	0
2976930	WORD	wordpools/wasnorm_wordpool_576.txt	LTP246	ltpFR2	16	14	BANQUET	86	n/a	n/a	0	0	0
2979733	WORD	wordpools/wasnorm_wordpool_576.txt	LTP246	ltpFR2	16	14	PADDLE	1000	n/a	n/a	0	0	0
2982485	WORD	wordpools/wasnorm_wordpool_576.txt	LTP246	ltpFR2	16	14	BREAST	171	n/a	n/a	0	0	0
2984953	WORD	wordpools/wasnorm_wordpool_576.txt	LTP246	ltpFR2	16	14	BLENDER	136	n/a	n/a	0	0	0
2987455	WORD	wordpools/wasnorm_wordpool_576.txt	LTP246	ltpFR2	16	14	STOMACH	1384	n/a	n/a	0	0	0
2990240	WORD	wordpools/wasnorm_wordpool_576.txt	LTP246	ltpFR2	16	14	EYELASH	546	n/a	n/a	0	0	0
2992976	WORD	wordpools/wasnorm_wordpool_576.txt	LTP246	ltpFR2	16	14	BLOCKADE	137	n/a	n/a	0	0	0
2995628	WORD	wordpools/wasnorm_wordpool_576.txt	LTP246	ltpFR2	16	14	SISTER	1312	n/a	n/a	0	0	0
2998382	WORD	wordpools/wasnorm_wordpool_576.txt	LTP246	ltpFR2	16	14	LIZARD	834	n/a	n/a	0	0	0
3001082	WORD	wordpools/wasnorm_wordpool_576.txt	LTP246	ltpFR2	16	14	EMPIRE	530	n/a	n/a	0	0	0
3003602	WORD	wordpools/wasnorm_wordpool_576.txt	LTP246	ltpFR2	16	14	LEADER	807	n/a	n/a	0	0	0
3006404	WORD	wordpools/wasnorm_wordpool_576.txt	LTP246	ltpFR2	16	14	DAUGHTER	442	n/a	n/a	0	0	0
3009122	WORD	wordpools/wasnorm_wordpool_576.txt	LTP246	ltpFR2	16	14	BROTHER	179	n/a	n/a	0	0	0
3011658	WORD	wordpools/wasnorm_wordpool_576.txt	LTP246	ltpFR2	16	14	FILM	565	n/a	n/a	0	0	0
3014244	WORD	wordpools/wasnorm_wordpool_576.txt	LTP246	ltpFR2	16	14	SUMMIT	1405	n/a	n/a	0	0	0
3016779	WORD	wordpools/wasnorm_wordpool_576.txt	LTP246	ltpFR2	16	14	BELLY	119	n/a	n/a	0	0	0
3019364	WORD	wordpools/wasnorm_wordpool_576.txt	LTP246	ltpFR2	16	14	ZEBRA	1635	n/a	n/a	0	0	0
3021900	WORD	wordpools/wasnorm_wordpool_576.txt	LTP246	ltpFR2	16	14	OZONE	996	n/a	n/a	0	0	0
3024434	WORD	wordpools/wasnorm_wordpool_576.txt	LTP246	ltpFR2	16	14	ROD	1203	n/a	n/a	0	0	0
3026987	WORD	wordpools/wasnorm_wordpool_576.txt	LTP246	ltpFR2	16	14	COD	340	n/a	n/a	0	0	0
3029489	WORD	wordpools/wasnorm_wordpool_576.txt	LTP246	ltpFR2	16	14	SALMON	1227	n/a	n/a	0	0	0
3031958	WORD	wordpools/wasnorm_wordpool_576.txt	LTP246	ltpFR2	16	14	BEAVER	109	n/a	n/a	0	0	0
3033577	START	n/a	LTP246	ltpFR2	16	n/a	n/a	n/a	23	n/a	n/a	n/a	n/a
3034773	DISTRACTOR	n/a	LTP246	ltpFR2	16	14	n/a	n/a	n/a	n/a	0	0	0
3034777	PROB	n/a	LTP246	ltpFR2	16	n/a	n/a	n/a	23	12	2	2	8
3035994	PROB	n/a	LTP246	ltpFR2	16	n/a	n/a	n/a	23	18	7	6	5
3037378	PROB	n/a	LTP246	ltpFR2	16	n/a	n/a	n/a	23	15	7	7	1
3038531	PROB	n/a	LTP246	ltpFR2	16	n/a	n/a	n/a	23	20	9	2	9
3039715	PROB	n/a	LTP246	ltpFR2	16	n/a	n/a	n/a	23	20	4	8	8
3040898	PROB	n/a	LTP246	ltpFR2	16	n/a	n/a	n/a	23	19	8	6	5
3042050	PROB	n/a	LTP246	ltpFR2	16	n/a	n/a	n/a	23	19	8	7	4
3044752	PROB	n/a	LTP246	ltpFR2	16	n/a	n/a	n/a	23	15	5	2	8
3046119	PROB	n/a	LTP246	ltpFR2	16	n/a	n/a	n/a	23	17	6	5	6
3049356	PROB	n/a	LTP246	ltpFR2	16	n/a	n/a	n/a	23	14	7	5	2
3051341	PROB	n/a	LTP246	ltpFR2	16	n/a	n/a	n/a	23	6	2	2	2
3052373	PROB	n/a	LTP246	ltpFR2	16	n/a	n/a	n/a	23	21	7	5	9
3054893	PROB	n/a	LTP246	ltpFR2	16	n/a	n/a	n/a	23	15	7	1	7
3056105	STOP	n/a	LTP246	ltpFR2	16	n/a	n/a	n/a	23	n/a	n/a	n/a	n/a
3059464	REC_START	n/a	LTP246	ltpFR2	16	14	n/a	n/a	n/a	n/a	0	0	0
3070620	REC_WORD	wordpools/wasnorm_wordpool_576.txt	LTP246	ltpFR2	16	14	PADDLE	1000	n/a	n/a	0	0	0
3071844	REC_WORD	wordpools/wasnorm_wordpool_576.txt	LTP246	ltpFR2	16	14	BREAST	171	n/a	n/a	0	0	0
3073099	REC_WORD	wordpools/wasnorm_wordpool_576.txt	LTP246	ltpFR2	16	14	BLENDER	136	n/a	n/a	0	0	0
3074212	REC_WORD	wordpools/wasnorm_wordpool_576.txt	LTP246	ltpFR2	16	14	STOMACH	1384	n/a	n/a	0	0	0
3085112	REC_WORD	wordpools/wasnorm_wordpool_576.txt	LTP246	ltpFR2	16	14	BLOCKADE	137	n/a	n/a	0	0	0
3086768	REC_WORD	wordpools/wasnorm_wordpool_576.txt	LTP246	ltpFR2	16	14	SISTER	1312	n/a	n/a	0	0	0
3089059	REC_WORD	wordpools/wasnorm_wordpool_576.txt	LTP246	ltpFR2	16	14	EMPIRE	530	n/a	n/a	0	0	0
3090839	REC_WORD	wordpools/wasnorm_wordpool_576.txt	LTP246	ltpFR2	16	14	LEADER	807	n/a	n/a	0	0	0
3095681	REC_WORD	wordpools/wasnorm_wordpool_576.txt	LTP246	ltpFR2	16	14	DAUGHTER	442	n/a	n/a	0	0	0
3097014	REC_WORD	wordpools/wasnorm_wordpool_576.txt	LTP246	ltpFR2	16	14	BROTHER	179	n/a	n/a	0	0	0
3101267	REC_WORD	wordpools/wasnorm_wordpool_576.txt	LTP246	ltpFR2	16	14	FILM	565	n/a	n/a	0	0	0
3102800	REC_WORD	wordpools/wasnorm_wordpool_576.txt	LTP246	ltpFR2	16	14	SUMMIT	1405	n/a	n/a	0	0	0
3109990	REC_WORD	wordpools/wasnorm_wordpool_576.txt	LTP246	ltpFR2	16	14	BELLY	119	n/a	n/a	0	0	0
3110929	REC_WORD	wordpools/wasnorm_wordpool_576.txt	LTP246	ltpFR2	16	14	ZEBRA	1635	n/a	n/a	0	0	0
3112179	REC_WORD	wordpools/wasnorm_wordpool_576.txt	LTP246	ltpFR2	16	14	OZONE	996	n/a	n/a	0	0	0
3114196	REC_WORD	wordpools/wasnorm_wordpool_576.txt	LTP246	ltpFR2	16	14	ROD	1203	n/a	n/a	0	0	0
3115264	REC_WORD	wordpools/wasnorm_wordpool_576.txt	LTP246	ltpFR2	16	14	COD	340	n/a	n/a	0	0	0
3116154	REC_WORD	wordpools/wasnorm_wordpool_576.txt	LTP246	ltpFR2	16	14	SALMON	1227	n/a	n/a	0	0	0
3117426	REC_WORD	wordpools/wasnorm_wordpool_576.txt	LTP246	ltpFR2	16	14	BEAVER	109	n/a	n/a	0	0	0
3149936	WORD	wordpools/wasnorm_wordpool_576.txt	LTP246	ltpFR2	16	15	ULCER	1533	n/a	n/a	0	0	0
3152720	WORD	wordpools/wasnorm_wordpool_576.txt	LTP246	ltpFR2	16	15	UNCLE	1536	n/a	n/a	0	0	0
3155389	WORD	wordpools/wasnorm_wordpool_576.txt	LTP246	ltpFR2	16	15	FINGER	567	n/a	n/a	0	0	0
3158008	WORD	wordpools/wasnorm_wordpool_576.txt	LTP246	ltpFR2	16	15	SMOG	1330	n/a	n/a	0	0	0
3160810	WORD	wordpools/wasnorm_wordpool_576.txt	LTP246	ltpFR2	16	15	DENIM	446	n/a	n/a	0	0	0
3163612	WORD	wordpools/wasnorm_wordpool_576.txt	LTP246	ltpFR2	16	15	RIVER	1194	n/a	n/a	0	0	0
3166047	WORD	wordpools/wasnorm_wordpool_576.txt	LTP246	ltpFR2	16	15	WIDOW	1608	n/a	n/a	0	0	0
3168800	WORD	wordpools/wasnorm_wordpool_576.txt	LTP246	ltpFR2	16	15	SALT	1229	n/a	n/a	0	0	0
3171636	WORD	wordpools/wasnorm_wordpool_576.txt	LTP246	ltpFR2	16	15	ROBBER	1197	n/a	n/a	0	0	0
3174305	WORD	wordpools/wasnorm_wordpool_576.txt	LTP246	ltpFR2	16	15	REPORT	1184	n/a	n/a	0	0	0
3176989	WORD	wordpools/wasnorm_wordpool_576.txt	LTP246	ltpFR2	16	15	HAMPER	682	n/a	n/a	0	0	0
3179659	WORD	wordpools/wasnorm_wordpool_576.txt	LTP246	ltpFR2	16	15	NURSE	963	n/a	n/a	0	0	0
3182361	WORD	wordpools/wasnorm_wordpool_576.txt	LTP246	ltpFR2	16	15	WINDOW	1611	n/a	n/a	0	0	0
3185112	WORD	wordpools/wasnorm_wordpool_576.txt	LTP246	ltpFR2	16	15	ANTLER	29	n/a	n/a	0	0	0
3187932	WORD	wordpools/wasnorm_wordpool_576.txt	LTP246	ltpFR2	16	15	CROSS	413	n/a	n/a	0	0	0
3190634	WORD	wordpools/wasnorm_wordpool_576.txt	LTP246	ltpFR2	16	15	JUGGLER	763	n/a	n/a	0	0	0
3193254	WORD	wordpools/wasnorm_wordpool_576.txt	LTP246	ltpFR2	16	15	GYMNAST	675	n/a	n/a	0	0	0
3195689	WORD	wordpools/wasnorm_wordpool_576.txt	LTP246	ltpFR2	16	15	HEADBAND	696	n/a	n/a	0	0	0
3198224	WORD	wordpools/wasnorm_wordpool_576.txt	LTP246	ltpFR2	16	15	POSSUM	1112	n/a	n/a	0	0	0
3200808	WORD	wordpools/wasnorm_wordpool_576.txt	LTP246	ltpFR2	16	15	STONE	1385	n/a	n/a	0	0	0
3203495	WORD	wordpools/wasnorm_wordpool_576.txt	LTP246	ltpFR2	16	15	KIDNEY	776	n/a	n/a	0	0	0
3206097	WORD	wordpools/wasnorm_wordpool_576.txt	LTP246	ltpFR2	16	15	GLOVE	642	n/a	n/a	0	0	0
3208766	WORD	wordpools/wasnorm_wordpool_576.txt	LTP246	ltpFR2	16	15	CLOUD	328	n/a	n/a	0	0	0
3211518	WORD	wordpools/wasnorm_wordpool_576.txt	LTP246	ltpFR2	16	15	PEPPER	1047	n/a	n/a	0	0	0
3213136	START	n/a	LTP246	ltpFR2	16	n/a	n/a	n/a	24	n/a	n/a	n/a	n/a
3214250	DISTRACTOR	n/a	LTP246	ltpFR2	16	15	n/a	n/a	n/a	n/a	0	0	0
3214254	PROB	n/a	LTP246	ltpFR2	16	n/a	n/a	n/a	24	8	2	5	1
3215721	PROB	n/a	LTP246	ltpFR2	16	n/a	n/a	n/a	24	15	1	6	8
3217822	PROB	n/a	LTP246	ltpFR2	16	n/a	n/a	n/a	24	13	6	3	4
3220341	PROB	n/a	LTP246	ltpFR2	16	n/a	n/a	n/a	24	12	2	4	6
3221310	PROB	n/a	LTP246	ltpFR2	16	n/a	n/a	n/a	24	25	8	9	8
3223995	PROB	n/a	LTP246	ltpFR2	16	n/a	n/a	n/a	24	16	5	6	5
3225563	PROB	n/a	LTP246	ltpFR2	16	n/a	n/a	n/a	24	23	5	9	8
3228180	PROB	n/a	LTP246	ltpFR2	16	n/a	n/a	n/a	24	17	6	3	8
3229850	PROB	n/a	LTP246	ltpFR2	16	n/a	n/a	n/a	24	19	4	7	8
3231650	PROB	n/a	LTP246	ltpFR2	16	n/a	n/a	n/a	24	19	5	6	8
3233535	PROB	n/a	LTP246	ltpFR2	16	n/a	n/a	n/a	24	18	1	9	8
3235286	PROB	n/a	LTP246	ltpFR2	16	n/a	n/a	n/a	24	15	5	7	3
3236480	STOP	n/a	LTP246	ltpFR2	16	n/a	n/a	n/a	24	n/a	n/a	n/a	n/a
3238958	REC_START	n/a	LTP246	ltpFR2	16	15	n/a	n/a	n/a	n/a	0	0	0
3254733	REC_WORD	wordpools/wasnorm_wordpool_576.txt	LTP246	ltpFR2	16	15	ULCER	1533	n/a	n/a	0	0	0
3256553	REC_WORD	wordpools/wasnorm_wordpool_576.txt	LTP246	ltpFR2	16	15	UNCLE	1536	n/a	n/a	0	0	0
3259075	REC_WORD	wordpools/wasnorm_wordpool_576.txt	LTP246	ltpFR2	16	15	RIVER	1194	n/a	n/a	0	0	0
3260659	REC_WORD	wordpools/wasnorm_wordpool_576.txt	LTP246	ltpFR2	16	15	DENIM	446	n/a	n/a	0	0	0
3262897	REC_WORD	wordpools/wasnorm_wordpool_576.txt	LTP246	ltpFR2	16	15	WIDOW	1608	n/a	n/a	0	0	0
3264270	REC_WORD	wordpools/wasnorm_wordpool_576.txt	LTP246	ltpFR2	16	15	SALT	1229	n/a	n/a	0	0	0
3265421	REC_WORD	wordpools/wasnorm_wordpool_576.txt	LTP246	ltpFR2	16	15	ROBBER	1197	n/a	n/a	0	0	0
3266464	REC_WORD	wordpools/wasnorm_wordpool_576.txt	LTP246	ltpFR2	16	15	REPORT	1184	n/a	n/a	0	0	0
3267608	REC_WORD	wordpools/wasnorm_wordpool_576.txt	LTP246	ltpFR2	16	15	HAMPER	682	n/a	n/a	0	0	0
3268630	REC_WORD	wordpools/wasnorm_wordpool_576.txt	LTP246	ltpFR2	16	15	NURSE	963	n/a	n/a	0	0	0
3274666	REC_WORD	wordpools/wasnorm_wordpool_576.txt	LTP246	ltpFR2	16	15	PEPPER	1047	n/a	n/a	0	0	0
3275764	REC_WORD	wordpools/wasnorm_wordpool_576.txt	LTP246	ltpFR2	16	15	CLOUD	328	n/a	n/a	0	0	0
3329430	WORD	wordpools/wasnorm_wordpool_576.txt	LTP246	ltpFR2	16	16	SUBWAY	1400	n/a	n/a	0	0	0
3331863	WORD	wordpools/wasnorm_wordpool_576.txt	LTP246	ltpFR2	16	16	STATUE	1374	n/a	n/a	0	0	0
3334632	WORD	wordpools/wasnorm_wordpool_576.txt	LTP246	ltpFR2	16	16	SWORD	1423	n/a	n/a	0	0	0
3337218	WORD	wordpools/wasnorm_wordpool_576.txt	LTP246	ltpFR2	16	16	FLAG	573	n/a	n/a	0	0	0
3339904	WORD	wordpools/wasnorm_wordpool_576.txt	LTP246	ltpFR2	16	16	SCISSORS	1250	n/a	n/a	0	0	0
3342640	WORD	wordpools/wasnorm_wordpool_576.txt	LTP246	ltpFR2	16	16	PERCH	1048	n/a	n/a	0	0	0
3345341	WORD	wordpools/wasnorm_wordpool_576.txt	LTP246	ltpFR2	16	16	BACKBONE	66	n/a	n/a	0	0	0
3347860	WORD	wordpools/wasnorm_wordpool_576.txt	LTP246	ltpFR2	16	16	STAMP	1370	n/a	n/a	0	0	0
3350679	WORD	wordpools/wasnorm_wordpool_576.txt	LTP246	ltpFR2	16	16	HAWK	692	n/a	n/a	0	0	0
3353464	WORD	wordpools/wasnorm_wordpool_576.txt	LTP246	ltpFR2	16	16	TABLET	1427	n/a	n/a	0	0	0
3356115	WORD	wordpools/wasnorm_wordpool_576.txt	LTP246	ltpFR2	16	16	BRIEFCASE	175	n/a	n/a	0	0	0
3358769	WORD	wordpools/wasnorm_wordpool_576.txt	LTP246	ltpFR2	16	16	RAZOR	1171	n/a	n/a	0	0	0
3361555	WORD	wordpools/wasnorm_wordpool_576.txt	LTP246	ltpFR2	16	16	HEART	697	n/a	n/a	0	0	0
3364322	WORD	wordpools/wasnorm_wordpool_576.txt	LTP246	ltpFR2	16	16	FLESH	579	n/a	n/a	0	0	0
3367041	WORD	wordpools/wasnorm_wordpool_576.txt	LTP246	ltpFR2	16	16	HONEY	713	n/a	n/a	0	0	0
3369744	WORD	wordpools/wasnorm_wordpool_576.txt	LTP246	ltpFR2	16	16	CASHIER	254	n/a	n/a	0	0	0
3372279	WORD	wordpools/wasnorm_wordpool_576.txt	LTP246	ltpFR2	16	16	PEDAL	1037	n/a	n/a	0	0	0
3375065	WORD	wordpools/wasnorm_wordpool_576.txt	LTP246	ltpFR2	16	16	COFFEE	341	n/a	n/a	0	0	0
3377600	WORD	wordpools/wasnorm_wordpool_576.txt	LTP246	ltpFR2	16	16	IGLOO	734	n/a	n/a	0	0	0
3380252	WORD	wordpools/wasnorm_wordpool_576.txt	LTP246	ltpFR2	16	16	TWEEZERS	1526	n/a	n/a	0	0	0
3382804	WORD	wordpools/wasnorm_wordpool_576.txt	LTP246	ltpFR2	16	16	EUROPE	541	n/a	n/a	0	0	0
3385473	WORD	wordpools/wasnorm_wordpool_576.txt	LTP246	ltpFR2	16	16	PERMIT	1051	n/a	n/a	0	0	0
3387974	WORD	wordpools/wasnorm_wordpool_576.txt	LTP246	ltpFR2	16	16	MACHINE	852	n/a	n/a	0	0	0
3390411	WORD	wordpools/wasnorm_wordpool_576.txt	LTP246	ltpFR2	16	16	ROBOT	1200	n/a	n/a	0	0	0
3392030	START	n/a	LTP246	ltpFR2	16	n/a	n/a	n/a	25	n/a	n/a	n/a	n/a
3392916	DISTRACTOR	n/a	LTP246	ltpFR2	16	16	n/a	n/a	n/a	n/a	0	0	0
3392929	PROB	n/a	LTP246	ltpFR2	16	n/a	n/a	n/a	25	17	8	6	3
3394714	PROB	n/a	LTP246	ltpFR2	16	n/a	n/a	n/a	25	6	1	3	2
3395798	PROB	n/a	LTP246	ltpFR2	16	n/a	n/a	n/a	25	19	2	9	8
3397366	PROB	n/a	LTP246	ltpFR2	16	n/a	n/a	n/a	25	22	9	7	6
3399684	PROB	n/a	LTP246	ltpFR2	16	n/a	n/a	n/a	25	12	6	3	3
3401087	PROB	n/a	LTP246	ltpFR2	16	n/a	n/a	n/a	25	26	8	9	9
3403672	PROB	n/a	LTP246	ltpFR2	16	n/a	n/a	n/a	25	25	8	9	8
3405289	PROB	n/a	LTP246	ltpFR2	16	n/a	n/a	n/a	25	19	8	3	8
3407340	PROB	n/a	LTP246	ltpFR2	16	n/a	n/a	n/a	25	19	8	2	9
3408993	PROB	n/a	LTP246	ltpFR2	16	n/a	n/a	n/a	25	23	9	5	9
3410961	PROB	n/a	LTP246	ltpFR2	16	n/a	n/a	n/a	25	14	7	1	6
3412245	PROB	n/a	LTP246	ltpFR2	16	n/a	n/a	n/a	25	14	6	5	3
3414163	PROB	n/a	LTP246	ltpFR2	16	n/a	n/a	n/a	25	16	7	2	7
3415398	STOP	n/a	LTP246	ltpFR2	16	n/a	n/a	n/a	25	n/a	n/a	n/a	n/a
3417850	REC_START	n/a	LTP246	ltpFR2	16	16	n/a	n/a	n/a	n/a	0	0	0
3419220	REC_WORD	wordpools/wasnorm_wordpool_576.txt	LTP246	ltpFR2	16	16	MACHINE	852	n/a	n/a	0	0	0
3421120	REC_WORD	wordpools/wasnorm_wordpool_576.txt	LTP246	ltpFR2	16	16	ROBOT	1200	n/a	n/a	0	0	0
3422361	REC_WORD	wordpools/wasnorm_wordpool_576.txt	LTP246	ltpFR2	16	16	PERMIT	1051	n/a	n/a	0	0	0
3423402	REC_WORD	wordpools/wasnorm_wordpool_576.txt	LTP246	ltpFR2	16	16	EUROPE	541	n/a	n/a	0	0	0
3424507	REC_WORD	wordpools/wasnorm_wordpool_576.txt	LTP246	ltpFR2	16	16	TWEEZERS	1526	n/a	n/a	0	0	0
3425431	REC_WORD	wordpools/wasnorm_wordpool_576.txt	LTP246	ltpFR2	16	16	COFFEE	341	n/a	n/a	0	0	0
3426446	REC_WORD	wordpools/wasnorm_wordpool_576.txt	LTP246	ltpFR2	16	16	PEDAL	1037	n/a	n/a	0	0	0
3431870	REC_WORD	wordpools/wasnorm_wordpool_576.txt	LTP246	ltpFR2	16	16	SWORD	1423	n/a	n/a	0	0	0
3432797	REC_WORD	wordpools/wasnorm_wordpool_576.txt	LTP246	ltpFR2	16	16	FLAG	573	n/a	n/a	0	0	0
3433803	REC_WORD	wordpools/wasnorm_wordpool_576.txt	LTP246	ltpFR2	16	16	SCISSORS	1250	n/a	n/a	0	0	0
3434856	REC_WORD	wordpools/wasnorm_wordpool_576.txt	LTP246	ltpFR2	16	16	PERCH	1048	n/a	n/a	0	0	0
3439551	REC_WORD	wordpools/wasnorm_wordpool_576.txt	LTP246	ltpFR2	16	16	BACKBONE	66	n/a	n/a	0	0	0
3441407	REC_WORD	wordpools/wasnorm_wordpool_576.txt	LTP246	ltpFR2	16	16	STAMP	1370	n/a	n/a	0	0	0
3442581	REC_WORD	wordpools/wasnorm_wordpool_576.txt	LTP246	ltpFR2	16	16	HAWK	692	n/a	n/a	0	0	0
3444198	REC_WORD	wordpools/wasnorm_wordpool_576.txt	LTP246	ltpFR2	16	16	TABLET	1427	n/a	n/a	0	0	0
3494394	REST_REWET	n/a	LTP246	ltpFR2	16	16	n/a	n/a	n/a	n/a	0	0	0
3729699	DISTRACTOR	n/a	LTP246	ltpFR2	16	17	n/a	n/a	n/a	n/a	0	0	0
3729699	START	n/a	LTP246	ltpFR2	16	n/a	n/a	n/a	26	n/a	n/a	n/a	n/a
3729716	PROB	n/a	LTP246	ltpFR2	16	n/a	n/a	n/a	26	10	7	1	2
3730999	PROB	n/a	LTP246	ltpFR2	16	n/a	n/a	n/a	26	11	8	2	1
3732083	PROB	n/a	LTP246	ltpFR2	16	n/a	n/a	n/a	26	17	3	7	7
3733803	PROB	n/a	LTP246	ltpFR2	16	n/a	n/a	n/a	26	13	3	8	2
3735119	PROB	n/a	LTP246	ltpFR2	16	n/a	n/a	n/a	26	17	9	1	7
3736371	PROB	n/a	LTP246	ltpFR2	16	n/a	n/a	n/a	26	12	9	1	2
3737538	PROB	n/a	LTP246	ltpFR2	16	n/a	n/a	n/a	26	19	8	5	7
3739807	PROB	n/a	LTP246	ltpFR2	16	n/a	n/a	n/a	26	12	3	4	5
3741025	PROB	n/a	LTP246	ltpFR2	16	n/a	n/a	n/a	26	10	7	1	2
3742058	PROB	n/a	LTP246	ltpFR2	16	n/a	n/a	n/a	26	9	2	5	2
3743326	PROB	n/a	LTP246	ltpFR2	16	n/a	n/a	n/a	26	11	2	5	4
3745062	PROB	n/a	LTP246	ltpFR2	16	n/a	n/a	n/a	26	13	1	7	5
3747096	PROB	n/a	LTP246	ltpFR2	16	n/a	n/a	n/a	26	9	2	4	3
3750983	PROB	n/a	LTP246	ltpFR2	16	n/a	n/a	n/a	26	18	7	2	9
3752181	PROB	n/a	LTP246	ltpFR2	16	n/a	n/a	n/a	26	18	8	3	7
3753507	STOP	n/a	LTP246	ltpFR2	16	n/a	n/a	n/a	26	n/a	n/a	n/a	n/a
3754536	WORD	wordpools/wasnorm_wordpool_576.txt	LTP246	ltpFR2	16	17	TEMPLE	1448	n/a	n/a	0	0	0
3757337	WORD	wordpools/wasnorm_wordpool_576.txt	LTP246	ltpFR2	16	17	CHAPEL	280	n/a	n/a	0	0	0
3759823	WORD	wordpools/wasnorm_wordpool_576.txt	LTP246	ltpFR2	16	17	ONION	977	n/a	n/a	0	0	0
3762591	WORD	wordpools/wasnorm_wordpool_576.txt	LTP246	ltpFR2	16	17	CIGAR	308	n/a	n/a	0	0	0
3765142	WORD	wordpools/wasnorm_wordpool_576.txt	LTP246	ltpFR2	16	17	BODY	145	n/a	n/a	0	0	0
3767796	WORD	wordpools/wasnorm_wordpool_576.txt	LTP246	ltpFR2	16	17	CONTRACT	368	n/a	n/a	0	0	0
3770548	WORD	wordpools/wasnorm_wordpool_576.txt	LTP246	ltpFR2	16	17	CONCERT	360	n/a	n/a	0	0	0
3773283	WORD	wordpools/wasnorm_wordpool_576.txt	LTP246	ltpFR2	16	17	LAPEL	800	n/a	n/a	0	0	0
3775986	WORD	wordpools/wasnorm_wordpool_576.txt	LTP246	ltpFR2	16	17	PIANO	1057	n/a	n/a	0	0	0
3778537	WORD	wordpools/wasnorm_wordpool_576.txt	LTP246	ltpFR2	16	17	MARROW	872	n/a	n/a	0	0	0
3781340	WORD	wordpools/wasnorm_wordpool_576.txt	LTP246	ltpFR2	16	17	SILK	1307	n/a	n/a	0	0	0
3783775	WORD	wordpools/wasnorm_wordpool_576.txt	LTP246	ltpFR2	16	17	JUNGLE	764	n/a	n/a	0	0	0
3786510	WORD	wordpools/wasnorm_wordpool_576.txt	LTP246	ltpFR2	16	17	BUG	187	n/a	n/a	0	0	0
3789229	WORD	wordpools/wasnorm_wordpool_576.txt	LTP246	ltpFR2	16	17	COCOON	339	n/a	n/a	0	0	0
3791681	WORD	wordpools/wasnorm_wordpool_576.txt	LTP246	ltpFR2	16	17	POSTAGE	1113	n/a	n/a	0	0	0
3794250	WORD	wordpools/wasnorm_wordpool_576.txt	LTP246	ltpFR2	16	17	TRIBE	1505	n/a	n/a	0	0	0
3797051	WORD	wordpools/wasnorm_wordpool_576.txt	LTP246	ltpFR2	16	17	RECORD	1176	n/a	n/a	0	0	0
3799853	WORD	wordpools/wasnorm_wordpool_576.txt	LTP246	ltpFR2	16	17	MOTEL	919	n/a	n/a	0	0	0
3802557	WORD	wordpools/wasnorm_wordpool_576.txt	LTP246	ltpFR2	16	17	PRIMATE	1123	n/a	n/a	0	0	0
3805358	WORD	wordpools/wasnorm_wordpool_576.txt	LTP246	ltpFR2	16	17	QUARTER	1148	n/a	n/a	0	0	0
3807894	WORD	wordpools/wasnorm_wordpool_576.txt	LTP246	ltpFR2	16	17	RECEIPT	1173	n/a	n/a	0	0	0
3810363	WORD	wordpools/wasnorm_wordpool_576.txt	LTP246	ltpFR2	16	17	ELBOW	520	n/a	n/a	0	0	0
3813081	WORD	wordpools/wasnorm_wordpool_576.txt	LTP246	ltpFR2	16	17	COCKTAIL	338	n/a	n/a	0	0	0
3815750	WORD	wordpools/wasnorm_wordpool_576.txt	LTP246	ltpFR2	16	17	BUREAU	199	n/a	n/a	0	0	0
3817370	START	n/a	LTP246	ltpFR2	16	n/a	n/a	n/a	27	n/a	n/a	n/a	n/a
3818200	DISTRACTOR	n/a	LTP246	ltpFR2	16	17	n/a	n/a	n/a	n/a	0	0	0
3818219	PROB	n/a	LTP246	ltpFR2	16	n/a	n/a	n/a	27	14	9	3	2
3820572	PROB	n/a	LTP246	ltpFR2	16	n/a	n/a	n/a	27	19	8	4	7
3822941	PROB	n/a	LTP246	ltpFR2	16	n/a	n/a	n/a	27	16	8	5	3
3824257	PROB	n/a	LTP246	ltpFR2	16	n/a	n/a	n/a	27	17	7	2	8
3826442	PROB	n/a	LTP246	ltpFR2	16	n/a	n/a	n/a	27	9	2	3	4
3827493	PROB	n/a	LTP246	ltpFR2	16	n/a	n/a	n/a	27	13	3	4	6
3828612	PROB	n/a	LTP246	ltpFR2	16	n/a	n/a	n/a	27	21	4	9	8
3830428	PROB	n/a	LTP246	ltpFR2	16	n/a	n/a	n/a	27	16	6	6	4
3831414	PROB	n/a	LTP246	ltpFR2	16	n/a	n/a	n/a	27	15	7	1	7
3832613	PROB	n/a	LTP246	ltpFR2	16	n/a	n/a	n/a	27	16	5	9	2
3834667	PROB	n/a	LTP246	ltpFR2	16	n/a	n/a	n/a	27	12	5	1	6
3835749	PROB	n/a	LTP246	ltpFR2	16	n/a	n/a	n/a	27	10	1	6	3
3837101	PROB	n/a	LTP246	ltpFR2	16	n/a	n/a	n/a	27	9	4	2	1
3838352	PROB	n/a	LTP246	ltpFR2	16	n/a	n/a	n/a	27	17	2	8	7
3839520	PROB	n/a	LTP246	ltpFR2	16	n/a	n/a	n/a	27	14	7	6	1
3841046	STOP	n/a	LTP246	ltpFR2	16	n/a	n/a	n/a	27	n/a	n/a	n/a	n/a
3843139	REC_START	n/a	LTP246	ltpFR2	16	17	n/a	n/a	n/a	n/a	0	0	0
3844401	REC_WORD	wordpools/wasnorm_wordpool_576.txt	LTP246	ltpFR2	16	17	TEMPLE	1448	n/a	n/a	0	0	0
3845366	REC_WORD	wordpools/wasnorm_wordpool_576.txt	LTP246	ltpFR2	16	17	CHAPEL	280	n/a	n/a	0	0	0
3846538	REC_WORD	wordpools/wasnorm_wordpool_576.txt	LTP246	ltpFR2	16	17	ONION	977	n/a	n/a	0	0	0
3847455	REC_WORD	wordpools/wasnorm_wordpool_576.txt	LTP246	ltpFR2	16	17	CIGAR	308	n/a	n/a	0	0	0
3852351	REC_WORD	wordpools/wasnorm_wordpool_576.txt	LTP246	ltpFR2	16	17	BODY	145	n/a	n/a	0	0	0
3853288	REC_WORD	wordpools/wasnorm_wordpool_576.txt	LTP246	ltpFR2	16	17	CONTRACT	368	n/a	n/a	0	0	0
3854552	REC_WORD	wordpools/wasnorm_wordpool_576.txt	LTP246	ltpFR2	16	17	CONCERT	360	n/a	n/a	0	0	0
3855619	REC_WORD	wordpools/wasnorm_wordpool_576.txt	LTP246	ltpFR2	16	17	LAPEL	800	n/a	n/a	0	0	0
3856773	REC_WORD	wordpools/wasnorm_wordpool_576.txt	LTP246	ltpFR2	16	17	MARROW	872	n/a	n/a	0	0	0
3858352	REC_WORD	wordpools/wasnorm_wordpool_576.txt	LTP246	ltpFR2	16	17	JUNGLE	764	n/a	n/a	0	0	0
3859456	REC_WORD	wordpools/wasnorm_wordpool_576.txt	LTP246	ltpFR2	16	17	TRIBE	1505	n/a	n/a	0	0	0
3860589	REC_WORD	wordpools/wasnorm_wordpool_576.txt	LTP246	ltpFR2	16	17	POSTAGE	1113	n/a	n/a	0	0	0
3862621	REC_WORD	wordpools/wasnorm_wordpool_576.txt	LTP246	ltpFR2	16	17	MOTEL	919	n/a	n/a	0	0	0
3863878	REC_WORD	wordpools/wasnorm_wordpool_576.txt	LTP246	ltpFR2	16	17	RECORD	1176	n/a	n/a	0	0	0
3866671	REC_WORD	wordpools/wasnorm_wordpool_576.txt	LTP246	ltpFR2	16	17	BUG	187	n/a	n/a	0	0	0
3867623	REC_WORD	wordpools/wasnorm_wordpool_576.txt	LTP246	ltpFR2	16	17	COCOON	339	n/a	n/a	0	0	0
3954694	WORD	wordpools/wasnorm_wordpool_576.txt	LTP246	ltpFR2	16	18	TOMBSTONE	1478	n/a	n/a	0	0	0
3957530	WORD	wordpools/wasnorm_wordpool_576.txt	LTP246	ltpFR2	16	18	BUTCHER	203	n/a	n/a	0	0	0
3960214	WORD	wordpools/wasnorm_wordpool_576.txt	LTP246	ltpFR2	16	18	CELLAR	267	n/a	n/a	0	0	0
3962917	WORD	wordpools/wasnorm_wordpool_576.txt	LTP246	ltpFR2	16	18	LILY	821	n/a	n/a	0	0	0
3965670	WORD	wordpools/wasnorm_wordpool_576.txt	LTP246	ltpFR2	16	18	DAISY	435	n/a	n/a	0	0	0
3968222	WORD	wordpools/wasnorm_wordpool_576.txt	LTP246	ltpFR2	16	18	JUDGE	761	n/a	n/a	0	0	0
3970924	WORD	wordpools/wasnorm_wordpool_576.txt	LTP246	ltpFR2	16	18	INMATE	738	n/a	n/a	0	0	0
3973409	WORD	wordpools/wasnorm_wordpool_576.txt	LTP246	ltpFR2	16	18	LABEL	790	n/a	n/a	0	0	0
3975979	WORD	wordpools/wasnorm_wordpool_576.txt	LTP246	ltpFR2	16	18	MEDAL	885	n/a	n/a	0	0	0
3978764	WORD	wordpools/wasnorm_wordpool_576.txt	LTP246	ltpFR2	16	18	COTTAGE	384	n/a	n/a	0	0	0
3981583	WORD	wordpools/wasnorm_wordpool_576.txt	LTP246	ltpFR2	16	18	GRAVE	658	n/a	n/a	0	0	0
3984285	WORD	wordpools/wasnorm_wordpool_576.txt	LTP246	ltpFR2	16	18	FOOTBALL	591	n/a	n/a	0	0	0
3986904	WORD	wordpools/wasnorm_wordpool_576.txt	LTP246	ltpFR2	16	18	NECKLACE	940	n/a	n/a	0	0	0
3989505	WORD	wordpools/wasnorm_wordpool_576.txt	LTP246	ltpFR2	16	18	PREACHER	1119	n/a	n/a	0	0	0
3992241	WORD	wordpools/wasnorm_wordpool_576.txt	LTP246	ltpFR2	16	18	SPIDER	1351	n/a	n/a	0	0	0
3995043	WORD	wordpools/wasnorm_wordpool_576.txt	LTP246	ltpFR2	16	18	BINDER	127	n/a	n/a	0	0	0
3997812	WORD	wordpools/wasnorm_wordpool_576.txt	LTP246	ltpFR2	16	18	MISTER	901	n/a	n/a	0	0	0
4000314	WORD	wordpools/wasnorm_wordpool_576.txt	LTP246	ltpFR2	16	18	SADDLE	1221	n/a	n/a	0	0	0
4002783	WORD	wordpools/wasnorm_wordpool_576.txt	LTP246	ltpFR2	16	18	TRACTOR	1493	n/a	n/a	0	0	0
4005385	WORD	wordpools/wasnorm_wordpool_576.txt	LTP246	ltpFR2	16	18	TURKEY	1520	n/a	n/a	0	0	0
4007937	WORD	wordpools/wasnorm_wordpool_576.txt	LTP246	ltpFR2	16	18	SCOTCH	1251	n/a	n/a	0	0	0
4010572	WORD	wordpools/wasnorm_wordpool_576.txt	LTP246	ltpFR2	16	18	DONOR	485	n/a	n/a	0	0	0
4013341	WORD	wordpools/wasnorm_wordpool_576.txt	LTP246	ltpFR2	16	18	LIVER	833	n/a	n/a	0	0	0
4016026	WORD	wordpools/wasnorm_wordpool_576.txt	LTP246	ltpFR2	16	18	CAFE	216	n/a	n/a	0	0	0
4017646	START	n/a	LTP246	ltpFR2	16	n/a	n/a	n/a	28	n/a	n/a	n/a	n/a
4018798	DISTRACTOR	n/a	LTP246	ltpFR2	16	18	n/a	n/a	n/a	n/a	0	0	0
4018812	PROB	n/a	LTP246	ltpFR2	16	n/a	n/a	n/a	28	21	7	7	7
4020129	PROB	n/a	LTP246	ltpFR2	16	n/a	n/a	n/a	28	18	8	3	7
4021898	PROB	n/a	LTP246	ltpFR2	16	n/a	n/a	n/a	28	16	1	3	8
4023683	PROB	n/a	LTP246	ltpFR2	16	n/a	n/a	n/a	28	4	1	2	2
4025068	PROB	n/a	LTP246	ltpFR2	16	n/a	n/a	n/a	28	15	4	2	9
4027436	PROB	n/a	LTP246	ltpFR2	16	n/a	n/a	n/a	28	11	1	6	4
4028455	PROB	n/a	LTP246	ltpFR2	16	n/a	n/a	n/a	28	15	9	1	5
4029871	PROB	n/a	LTP246	ltpFR2	16	n/a	n/a	n/a	28	13	8	3	2
4031790	PROB	n/a	LTP246	ltpFR2	16	n/a	n/a	n/a	28	12	4	4	4
4032974	PROB	n/a	LTP246	ltpFR2	16	n/a	n/a	n/a	28	15	6	5	4
4034309	PROB	n/a	LTP246	ltpFR2	16	n/a	n/a	n/a	28	15	7	7	1
4035644	PROB	n/a	LTP246	ltpFR2	16	n/a	n/a	n/a	28	12	3	6	3
4037812	PROB	n/a	LTP246	ltpFR2	16	n/a	n/a	n/a	28	9	3	3	3
4038963	PROB	n/a	LTP246	ltpFR2	16	n/a	n/a	n/a	28	13	1	5	8
4041077	STOP	n/a	LTP246	ltpFR2	16	n/a	n/a	n/a	28	n/a	n/a	n/a	n/a
4043601	REC_START	n/a	LTP246	ltpFR2	16	18	n/a	n/a	n/a	n/a	0	0	0
4047392	REC_WORD	wordpools/wasnorm_wordpool_576.txt	LTP246	ltpFR2	16	18	TOMBSTONE	1478	n/a	n/a	0	0	0
4049272	REC_WORD	wordpools/wasnorm_wordpool_576.txt	LTP246	ltpFR2	16	18	BUTCHER	203	n/a	n/a	0	0	0
4053788	REC_WORD	wordpools/wasnorm_wordpool_576.txt	LTP246	ltpFR2	16	18	SWORD	1423	n/a	n/a	0	0	0
4054889	REC_WORD	wordpools/wasnorm_wordpool_576.txt	LTP246	ltpFR2	16	18	CELLAR	267	n/a	n/a	0	0	0
4058554	REC_WORD	wordpools/wasnorm_wordpool_576.txt	LTP246	ltpFR2	16	18	DAISY	435	n/a	n/a	0	0	0
4060060	REC_WORD	wordpools/wasnorm_wordpool_576.txt	LTP246	ltpFR2	16	18	LILY	821	n/a	n/a	0	0	0
4061455	REC_WORD	wordpools/wasnorm_wordpool_576.txt	LTP246	ltpFR2	16	18	JUDGE	761	n/a	n/a	0	0	0
4062691	REC_WORD	wordpools/wasnorm_wordpool_576.txt	LTP246	ltpFR2	16	18	INMATE	738	n/a	n/a	0	0	0
4063669	REC_WORD	wordpools/wasnorm_wordpool_576.txt	LTP246	ltpFR2	16	18	LABEL	790	n/a	n/a	0	0	0
4064826	REC_WORD	wordpools/wasnorm_wordpool_576.txt	LTP246	ltpFR2	16	18	MEDAL	885	n/a	n/a	0	0	0
4067588	REC_WORD	wordpools/wasnorm_wordpool_576.txt	LTP246	ltpFR2	16	18	SCOTCH	1251	n/a	n/a	0	0	0
4068798	REC_WORD	wordpools/wasnorm_wordpool_576.txt	LTP246	ltpFR2	16	18	DONOR	485	n/a	n/a	0	0	0
4069686	REC_WORD	wordpools/wasnorm_wordpool_576.txt	LTP246	ltpFR2	16	18	LIVER	833	n/a	n/a	0	0	0
4070881	REC_WORD	wordpools/wasnorm_wordpool_576.txt	LTP246	ltpFR2	16	18	BINDER	127	n/a	n/a	0	0	0
4072537	REC_WORD	wordpools/wasnorm_wordpool_576.txt	LTP246	ltpFR2	16	18	TURKEY	1520	n/a	n/a	0	0	0
4074391	REC_WORD	wordpools/wasnorm_wordpool_576.txt	LTP246	ltpFR2	16	18	SADDLE	1221	n/a	n/a	0	0	0
4076667	REC_WORD	wordpools/wasnorm_wordpool_576.txt	LTP246	ltpFR2	16	18	TRACTOR	1493	n/a	n/a	0	0	0
4077866	REC_WORD	wordpools/wasnorm_wordpool_576.txt	LTP246	ltpFR2	16	18	PREACHER	1119	n/a	n/a	0	0	0
4079234	REC_WORD	wordpools/wasnorm_wordpool_576.txt	LTP246	ltpFR2	16	18	MISTER	901	n/a	n/a	0	0	0
4083374	REC_WORD	wordpools/wasnorm_wordpool_576.txt	LTP246	ltpFR2	16	18	GRAVE	658	n/a	n/a	0	0	0
4093798	REC_WORD	wordpools/wasnorm_wordpool_576.txt	LTP246	ltpFR2	16	18	FOOTBALL	591	n/a	n/a	0	0	0
4095329	REC_WORD	wordpools/wasnorm_wordpool_576.txt	LTP246	ltpFR2	16	18	NECKLACE	940	n/a	n/a	0	0	0
4104378	REC_WORD	wordpools/wasnorm_wordpool_576.txt	LTP246	ltpFR2	16	18	COTTAGE	384	n/a	n/a	0	0	0
4134055	DISTRACTOR	n/a	LTP246	ltpFR2	16	19	n/a	n/a	n/a	n/a	0	0	0
4134056	START	n/a	LTP246	ltpFR2	16	n/a	n/a	n/a	29	n/a	n/a	n/a	n/a
4134073	PROB	n/a	LTP246	ltpFR2	16	n/a	n/a	n/a	29	13	4	3	6
4136241	PROB	n/a	LTP246	ltpFR2	16	n/a	n/a	n/a	29	10	7	2	1
4137341	PROB	n/a	LTP246	ltpFR2	16	n/a	n/a	n/a	29	18	9	7	2
4138724	PROB	n/a	LTP246	ltpFR2	16	n/a	n/a	n/a	29	20	5	7	8
4141210	PROB	n/a	LTP246	ltpFR2	16	n/a	n/a	n/a	29	8	2	1	5
4142212	PROB	n/a	LTP246	ltpFR2	16	n/a	n/a	n/a	29	14	7	4	3
4143962	PROB	n/a	LTP246	ltpFR2	16	n/a	n/a	n/a	29	19	4	6	9
4145331	PROB	n/a	LTP246	ltpFR2	16	n/a	n/a	n/a	29	21	7	8	6
4146765	PROB	n/a	LTP246	ltpFR2	16	n/a	n/a	n/a	29	9	3	2	4
4148682	PROB	n/a	LTP246	ltpFR2	16	n/a	n/a	n/a	29	12	6	3	3
4150166	PROB	n/a	LTP246	ltpFR2	16	n/a	n/a	n/a	29	19	7	7	5
4152302	PROB	n/a	LTP246	ltpFR2	16	n/a	n/a	n/a	29	8	1	1	6
4153305	PROB	n/a	LTP246	ltpFR2	16	n/a	n/a	n/a	29	8	4	1	3
4154688	PROB	n/a	LTP246	ltpFR2	16	n/a	n/a	n/a	29	17	7	3	7
4158056	STOP	n/a	LTP246	ltpFR2	16	n/a	n/a	n/a	29	n/a	n/a	n/a	n/a
4159058	WORD	wordpools/wasnorm_wordpool_576.txt	LTP246	ltpFR2	16	19	ICING	732	n/a	n/a	0	0	0
4161627	WORD	wordpools/wasnorm_wordpool_576.txt	LTP246	ltpFR2	16	19	TYPIST	1532	n/a	n/a	0	0	0
4164079	WORD	wordpools/wasnorm_wordpool_576.txt	LTP246	ltpFR2	16	19	MUFFIN	929	n/a	n/a	0	0	0
4166663	WORD	wordpools/wasnorm_wordpool_576.txt	LTP246	ltpFR2	16	19	MARKET	871	n/a	n/a	0	0	0
4169483	WORD	wordpools/wasnorm_wordpool_576.txt	LTP246	ltpFR2	16	19	SEAGULL	1261	n/a	n/a	0	0	0
4172301	WORD	wordpools/wasnorm_wordpool_576.txt	LTP246	ltpFR2	16	19	INFANT	737	n/a	n/a	0	0	0
4175120	WORD	wordpools/wasnorm_wordpool_576.txt	LTP246	ltpFR2	16	19	CUSTARD	429	n/a	n/a	0	0	0
4177722	WORD	wordpools/wasnorm_wordpool_576.txt	LTP246	ltpFR2	16	19	MONSTER	912	n/a	n/a	0	0	0
4180224	WORD	wordpools/wasnorm_wordpool_576.txt	LTP246	ltpFR2	16	19	MILDEW	893	n/a	n/a	0	0	0
4182744	WORD	wordpools/wasnorm_wordpool_576.txt	LTP246	ltpFR2	16	19	CUPBOARD	425	n/a	n/a	0	0	0
4185177	WORD	wordpools/wasnorm_wordpool_576.txt	LTP246	ltpFR2	16	19	APPLE	33	n/a	n/a	0	0	0
4187680	WORD	wordpools/wasnorm_wordpool_576.txt	LTP246	ltpFR2	16	19	PARSLEY	1016	n/a	n/a	0	0	0
4190350	WORD	wordpools/wasnorm_wordpool_576.txt	LTP246	ltpFR2	16	19	POISON	1096	n/a	n/a	0	0	0
4193052	WORD	wordpools/wasnorm_wordpool_576.txt	LTP246	ltpFR2	16	19	DRUG	501	n/a	n/a	0	0	0
4195654	WORD	wordpools/wasnorm_wordpool_576.txt	LTP246	ltpFR2	16	19	PIGEON	1065	n/a	n/a	0	0	0
4198389	WORD	wordpools/wasnorm_wordpool_576.txt	LTP246	ltpFR2	16	19	HANDBAG	684	n/a	n/a	0	0	0
4201075	WORD	wordpools/wasnorm_wordpool_576.txt	LTP246	ltpFR2	16	19	HIGHWAY	707	n/a	n/a	0	0	0
4203743	WORD	wordpools/wasnorm_wordpool_576.txt	LTP246	ltpFR2	16	19	LAKE	796	n/a	n/a	0	0	0
4206279	WORD	wordpools/wasnorm_wordpool_576.txt	LTP246	ltpFR2	16	19	CURTAIN	427	n/a	n/a	0	0	0
4208998	WORD	wordpools/wasnorm_wordpool_576.txt	LTP246	ltpFR2	16	19	GLASS	639	n/a	n/a	0	0	0
4211549	WORD	wordpools/wasnorm_wordpool_576.txt	LTP246	ltpFR2	16	19	SCARF	1246	n/a	n/a	0	0	0
4214168	WORD	wordpools/wasnorm_wordpool_576.txt	LTP246	ltpFR2	16	19	SHRUB	1299	n/a	n/a	0	0	0
4216754	WORD	wordpools/wasnorm_wordpool_576.txt	LTP246	ltpFR2	16	19	PENGUIN	1044	n/a	n/a	0	0	0
4219356	WORD	wordpools/wasnorm_wordpool_576.txt	LTP246	ltpFR2	16	19	QUAIL	1147	n/a	n/a	0	0	0
4220975	START	n/a	LTP246	ltpFR2	16	n/a	n/a	n/a	30	n/a	n/a	n/a	n/a
4222049	DISTRACTOR	n/a	LTP246	ltpFR2	16	19	n/a	n/a	n/a	n/a	0	0	0
4222058	PROB	n/a	LTP246	ltpFR2	16	n/a	n/a	n/a	30	11	3	4	4
4223544	PROB	n/a	LTP246	ltpFR2	16	n/a	n/a	n/a	30	12	3	4	5
4225211	PROB	n/a	LTP246	ltpFR2	16	n/a	n/a	n/a	30	18	8	4	6
4226514	PROB	n/a	LTP246	ltpFR2	16	n/a	n/a	n/a	30	18	8	5	5
4227646	PROB	n/a	LTP246	ltpFR2	16	n/a	n/a	n/a	30	12	1	7	4
4229781	PROB	n/a	LTP246	ltpFR2	16	n/a	n/a	n/a	30	20	5	7	7
4231650	PROB	n/a	LTP246	ltpFR2	16	n/a	n/a	n/a	30	24	7	9	8
4233182	PROB	n/a	LTP246	ltpFR2	16	n/a	n/a	n/a	30	13	7	5	1
4235186	PROB	n/a	LTP246	ltpFR2	16	n/a	n/a	n/a	30	12	2	8	2
4236603	PROB	n/a	LTP246	ltpFR2	16	n/a	n/a	n/a	30	11	3	5	3
4238254	PROB	n/a	LTP246	ltpFR2	16	n/a	n/a	n/a	30	15	5	8	2
4239289	PROB	n/a	LTP246	ltpFR2	16	n/a	n/a	n/a	30	15	5	4	6
4240239	PROB	n/a	LTP246	ltpFR2	16	n/a	n/a	n/a	30	10	1	6	3
4241408	PROB	n/a	LTP246	ltpFR2	16	n/a	n/a	n/a	30	14	8	3	3
4243292	PROB	n/a	LTP246	ltpFR2	16	n/a	n/a	n/a	30	4	1	2	1
4244211	STOP	n/a	LTP246	ltpFR2	16	n/a	n/a	n/a	30	n/a	n/a	n/a	n/a
4246796	REC_START	n/a	LTP246	ltpFR2	16	19	n/a	n/a	n/a	n/a	0	0	0
4248236	REC_WORD	wordpools/wasnorm_wordpool_576.txt	LTP246	ltpFR2	16	19	ICING	732	n/a	n/a	0	0	0
4249254	REC_WORD	wordpools/wasnorm_wordpool_576.txt	LTP246	ltpFR2	16	19	TYPIST	1532	n/a	n/a	0	0	0
4251452	REC_WORD	wordpools/wasnorm_wordpool_576.txt	LTP246	ltpFR2	16	19	MUFFIN	929	n/a	n/a	0	0	0
4252380	REC_WORD	wordpools/wasnorm_wordpool_576.txt	LTP246	ltpFR2	16	19	MARKET	871	n/a	n/a	0	0	0
4253660	REC_WORD	wordpools/wasnorm_wordpool_576.txt	LTP246	ltpFR2	16	19	SEAGULL	1261	n/a	n/a	0	0	0
4255985	REC_WORD	wordpools/wasnorm_wordpool_576.txt	LTP246	ltpFR2	16	19	INFANT	737	n/a	n/a	0	0	0
4257098	REC_WORD	wordpools/wasnorm_wordpool_576.txt	LTP246	ltpFR2	16	19	CUSTARD	429	n/a	n/a	0	0	0
4258016	REC_WORD	wordpools/wasnorm_wordpool_576.txt	LTP246	ltpFR2	16	19	MONSTER	912	n/a	n/a	0	0	0
4259079	REC_WORD	wordpools/wasnorm_wordpool_576.txt	LTP246	ltpFR2	16	19	MILDEW	893	n/a	n/a	0	0	0
4262694	REC_WORD	wordpools/wasnorm_wordpool_576.txt	LTP246	ltpFR2	16	19	HANDBAG	684	n/a	n/a	0	0	0
4263705	REC_WORD	wordpools/wasnorm_wordpool_576.txt	LTP246	ltpFR2	16	19	HIGHWAY	707	n/a	n/a	0	0	0
4264750	REC_WORD	wordpools/wasnorm_wordpool_576.txt	LTP246	ltpFR2	16	19	LAKE	796	n/a	n/a	0	0	0
4266429	REC_WORD	wordpools/wasnorm_wordpool_576.txt	LTP246	ltpFR2	16	19	CURTAIN	427	n/a	n/a	0	0	0
4267433	REC_WORD	wordpools/wasnorm_wordpool_576.txt	LTP246	ltpFR2	16	19	GLASS	639	n/a	n/a	0	0	0
4269537	REC_WORD	wordpools/wasnorm_wordpool_576.txt	LTP246	ltpFR2	16	19	QUAIL	1147	n/a	n/a	0	0	0
4270768	REC_WORD	wordpools/wasnorm_wordpool_576.txt	LTP246	ltpFR2	16	19	PENGUIN	1044	n/a	n/a	0	0	0
4276059	REC_WORD	wordpools/wasnorm_wordpool_576.txt	LTP246	ltpFR2	16	19	SCARF	1246	n/a	n/a	0	0	0
4277524	REC_WORD	wordpools/wasnorm_wordpool_576.txt	LTP246	ltpFR2	16	19	SHRUB	1299	n/a	n/a	0	0	0
4337266	WORD	wordpools/wasnorm_wordpool_576.txt	LTP246	ltpFR2	16	20	BRICK	172	n/a	n/a	0	0	0
4339853	WORD	wordpools/wasnorm_wordpool_576.txt	LTP246	ltpFR2	16	20	TORTOISE	1486	n/a	n/a	0	0	0
4342371	WORD	wordpools/wasnorm_wordpool_576.txt	LTP246	ltpFR2	16	20	JELLO	754	n/a	n/a	0	0	0
4345188	WORD	wordpools/wasnorm_wordpool_576.txt	LTP246	ltpFR2	16	20	ROCKET	1202	n/a	n/a	0	0	0
4347691	WORD	wordpools/wasnorm_wordpool_576.txt	LTP246	ltpFR2	16	20	TRUCK	1512	n/a	n/a	0	0	0
4350210	WORD	wordpools/wasnorm_wordpool_576.txt	LTP246	ltpFR2	16	20	TRANSPLANT	1496	n/a	n/a	0	0	0
4352762	WORD	wordpools/wasnorm_wordpool_576.txt	LTP246	ltpFR2	16	20	ACTRESS	6	n/a	n/a	0	0	0
4355582	WORD	wordpools/wasnorm_wordpool_576.txt	LTP246	ltpFR2	16	20	MISSILE	900	n/a	n/a	0	0	0
4358367	WORD	wordpools/wasnorm_wordpool_576.txt	LTP246	ltpFR2	16	20	GRIZZLY	662	n/a	n/a	0	0	0
4361003	WORD	wordpools/wasnorm_wordpool_576.txt	LTP246	ltpFR2	16	20	MARS	873	n/a	n/a	0	0	0
4363621	WORD	wordpools/wasnorm_wordpool_576.txt	LTP246	ltpFR2	16	20	PUDDING	1139	n/a	n/a	0	0	0
