mstime	trial_type	stim_file	subject	experiment	session	trial	task	item_name	item_num	recog_resp	recog_conf	resp	color_r	color_g	color_b	case	font
0	SESS_START	n/a	LTP249	ltpFR	5	n/a	n/a	n/a	n/a	1	n/a	n/a	n/a	n/a	n/a	n/a	n/a
59751	WORD	wordpools/wasnorm_wordpool_less_exclusions.txt	LTP249	ltpFR	5	1	0	ROBE	1198	n/a	n/a	0	0.422607421875	0.5869140625	0	upper	amplitud.ttf
63861	WORD	wordpools/wasnorm_wordpool_less_exclusions.txt	LTP249	ltpFR	5	1	0	HEAD	695	n/a	n/a	0	0.422607421875	0.5869140625	0	upper	amplitud.ttf
68055	WORD	wordpools/wasnorm_wordpool_less_exclusions.txt	LTP249	ltpFR	5	1	0	CLOVE	329	n/a	n/a	0	0.422607421875	0.5869140625	0	upper	amplitud.ttf
72132	WORD	wordpools/wasnorm_wordpool_less_exclusions.txt	LTP249	ltpFR	5	1	0	DUCK	504	n/a	n/a	1	0.422607421875	0.5869140625	0	upper	amplitud.ttf
76310	WORD	wordpools/wasnorm_wordpool_less_exclusions.txt	LTP249	ltpFR	5	1	1	AIRPORT	13	n/a	n/a	0	0.57763671875	0.412841796875	1	lower	zerothre.ttf
80520	WORD	wordpools/wasnorm_wordpool_less_exclusions.txt	LTP249	ltpFR	5	1	1	SWAN	1417	n/a	n/a	1	0.57763671875	0.412841796875	1	lower	zerothre.ttf
84415	WORD	wordpools/wasnorm_wordpool_less_exclusions.txt	LTP249	ltpFR	5	1	1	MOLECULE	905	n/a	n/a	0	0.57763671875	0.412841796875	1	lower	zerothre.ttf
88293	WORD	wordpools/wasnorm_wordpool_less_exclusions.txt	LTP249	ltpFR	5	1	1	LOFT	840	n/a	n/a	0	0.57763671875	0.412841796875	1	lower	zerothre.ttf
92136	WORD	wordpools/wasnorm_wordpool_less_exclusions.txt	LTP249	ltpFR	5	1	0	HERB	704	n/a	n/a	0	0.422607421875	0.5869140625	0	upper	amplitud.ttf
96281	WORD	wordpools/wasnorm_wordpool_less_exclusions.txt	LTP249	ltpFR	5	1	0	JOKER	759	n/a	n/a	1	0.422607421875	0.5869140625	0	upper	amplitud.ttf
100107	WORD	wordpools/wasnorm_wordpool_less_exclusions.txt	LTP249	ltpFR	5	1	0	STAKE	1368	n/a	n/a	0	0.422607421875	0.5869140625	0	upper	amplitud.ttf
104118	WORD	wordpools/wasnorm_wordpool_less_exclusions.txt	LTP249	ltpFR	5	1	0	PELICAN	1039	n/a	n/a	1	0.422607421875	0.5869140625	0	upper	amplitud.ttf
108195	WORD	wordpools/wasnorm_wordpool_less_exclusions.txt	LTP249	ltpFR	5	1	1	FORT	595	n/a	n/a	0	0.57763671875	0.412841796875	1	lower	zerothre.ttf
112257	WORD	wordpools/wasnorm_wordpool_less_exclusions.txt	LTP249	ltpFR	5	1	1	FLEET	578	n/a	n/a	1	0.57763671875	0.412841796875	1	lower	zerothre.ttf
116117	WORD	wordpools/wasnorm_wordpool_less_exclusions.txt	LTP249	ltpFR	5	1	1	SATURN	1236	n/a	n/a	0	0.57763671875	0.412841796875	1	lower	zerothre.ttf
120144	WORD	wordpools/wasnorm_wordpool_less_exclusions.txt	LTP249	ltpFR	5	1	1	JUPITER	765	n/a	n/a	0	0.57763671875	0.412841796875	1	lower	zerothre.ttf
125969	REC_START	n/a	LTP249	ltpFR	5	1	n/a	n/a	n/a	n/a	n/a	n/a	n/a	n/a	n/a	n/a	n/a
126507	REC_WORD	wordpools/wasnorm_wordpool_less_exclusions.txt	LTP249	ltpFR	5	1	1	FORT	595	n/a	n/a	0	n/a	n/a	n/a	n/a	n/a
127481	REC_WORD	wordpools/wasnorm_wordpool_less_exclusions.txt	LTP249	ltpFR	5	1	1	FLEET	578	n/a	n/a	1	n/a	n/a	n/a	n/a	n/a
128473	REC_WORD	wordpools/wasnorm_wordpool_less_exclusions.txt	LTP249	ltpFR	5	1	1	SATURN	1236	n/a	n/a	0	n/a	n/a	n/a	n/a	n/a
129685	REC_WORD	wordpools/wasnorm_wordpool_less_exclusions.txt	LTP249	ltpFR	5	1	1	JUPITER	765	n/a	n/a	0	n/a	n/a	n/a	n/a	n/a
130936	REC_WORD	wordpools/wasnorm_wordpool_less_exclusions.txt	LTP249	ltpFR	5	1	1	AIRPORT	13	n/a	n/a	0	n/a	n/a	n/a	n/a	n/a
132289	REC_WORD	wordpools/wasnorm_wordpool_less_exclusions.txt	LTP249	ltpFR	5	1	0	HERB	704	n/a	n/a	0	n/a	n/a	n/a	n/a	n/a
134249	REC_WORD	wordpools/wasnorm_wordpool_less_exclusions.txt	LTP249	ltpFR	5	1	0	CLOVE	329	n/a	n/a	0	n/a	n/a	n/a	n/a	n/a
135747	REC_WORD	wordpools/wasnorm_wordpool_less_exclusions.txt	LTP249	ltpFR	5	1	0	DUCK	504	n/a	n/a	1	n/a	n/a	n/a	n/a	n/a
137658	REC_WORD	wordpools/wasnorm_wordpool_less_exclusions.txt	LTP249	ltpFR	5	1	1	SWAN	1417	n/a	n/a	1	n/a	n/a	n/a	n/a	n/a
142007	REC_WORD	wordpools/wasnorm_wordpool_less_exclusions.txt	LTP249	ltpFR	5	1	0	HEAD	695	n/a	n/a	0	n/a	n/a	n/a	n/a	n/a
143369	REC_WORD	wordpools/wasnorm_wordpool_less_exclusions.txt	LTP249	ltpFR	5	1	0	ROBE	1198	n/a	n/a	0	n/a	n/a	n/a	n/a	n/a
146362	REC_WORD	wordpools/wasnorm_wordpool_less_exclusions.txt	LTP249	ltpFR	5	1	1	MOLECULE	905	n/a	n/a	0	n/a	n/a	n/a	n/a	n/a
151127	REC_WORD	wordpools/wasnorm_wordpool_less_exclusions.txt	LTP249	ltpFR	5	1	1	FLEET	578	n/a	n/a	1	n/a	n/a	n/a	n/a	n/a
158230	REC_WORD	wordpools/wasnorm_wordpool_less_exclusions.txt	LTP249	ltpFR	5	1	0	JOKER	759	n/a	n/a	1	n/a	n/a	n/a	n/a	n/a
179624	REC_WORD	wordpools/wasnorm_wordpool_less_exclusions.txt	LTP249	ltpFR	5	1	0	STAKE	1368	n/a	n/a	0	n/a	n/a	n/a	n/a	n/a
231062	WORD	wordpools/wasnorm_wordpool_less_exclusions.txt	LTP249	ltpFR	5	2	1	BUFFALO	186	n/a	n/a	1	0.57763671875	0.412841796875	1	lower	zerothre.ttf
234889	WORD	wordpools/wasnorm_wordpool_less_exclusions.txt	LTP249	ltpFR	5	2	1	BOWL	158	n/a	n/a	0	0.57763671875	0.412841796875	1	lower	zerothre.ttf
239000	WORD	wordpools/wasnorm_wordpool_less_exclusions.txt	LTP249	ltpFR	5	2	1	SAND	1230	n/a	n/a	0	0.57763671875	0.412841796875	1	lower	zerothre.ttf
242844	WORD	wordpools/wasnorm_wordpool_less_exclusions.txt	LTP249	ltpFR	5	2	1	BARTENDER	92	n/a	n/a	1	0.57763671875	0.412841796875	1	lower	zerothre.ttf
246888	WORD	wordpools/wasnorm_wordpool_less_exclusions.txt	LTP249	ltpFR	5	2	1	PARSLEY	1016	n/a	n/a	1	0.57763671875	0.412841796875	1	lower	zerothre.ttf
250849	WORD	wordpools/wasnorm_wordpool_less_exclusions.txt	LTP249	ltpFR	5	2	1	SHEPHERD	1283	n/a	n/a	1	0.57763671875	0.412841796875	1	lower	zerothre.ttf
254876	WORD	wordpools/wasnorm_wordpool_less_exclusions.txt	LTP249	ltpFR	5	2	0	SKIRT	1319	n/a	n/a	0	0.422607421875	0.5869140625	0	upper	amplitud.ttf
258953	WORD	wordpools/wasnorm_wordpool_less_exclusions.txt	LTP249	ltpFR	5	2	0	TAR	1435	n/a	n/a	0	0.422607421875	0.5869140625	0	upper	amplitud.ttf
262931	WORD	wordpools/wasnorm_wordpool_less_exclusions.txt	LTP249	ltpFR	5	2	0	PATH	1023	n/a	n/a	1	0.422607421875	0.5869140625	0	upper	amplitud.ttf
267125	WORD	wordpools/wasnorm_wordpool_less_exclusions.txt	LTP249	ltpFR	5	2	0	RECIPE	1175	n/a	n/a	0	0.422607421875	0.5869140625	0	upper	amplitud.ttf
270969	WORD	wordpools/wasnorm_wordpool_less_exclusions.txt	LTP249	ltpFR	5	2	1	MAGNET	855	n/a	n/a	1	0.57763671875	0.412841796875	1	lower	zerothre.ttf
274813	WORD	wordpools/wasnorm_wordpool_less_exclusions.txt	LTP249	ltpFR	5	2	1	MOTHER	921	n/a	n/a	1	0.57763671875	0.412841796875	1	lower	zerothre.ttf
278857	WORD	wordpools/wasnorm_wordpool_less_exclusions.txt	LTP249	ltpFR	5	2	0	DAD	433	n/a	n/a	1	0.422607421875	0.5869140625	0	upper	amplitud.ttf
283017	WORD	wordpools/wasnorm_wordpool_less_exclusions.txt	LTP249	ltpFR	5	2	0	OX	994	n/a	n/a	1	0.422607421875	0.5869140625	0	upper	amplitud.ttf
287045	WORD	wordpools/wasnorm_wordpool_less_exclusions.txt	LTP249	ltpFR	5	2	0	SAW	1239	n/a	n/a	0	0.422607421875	0.5869140625	0	upper	amplitud.ttf
290889	WORD	wordpools/wasnorm_wordpool_less_exclusions.txt	LTP249	ltpFR	5	2	0	LOUNGE	845	n/a	n/a	1	0.422607421875	0.5869140625	0	upper	amplitud.ttf
296814	REC_START	n/a	LTP249	ltpFR	5	2	n/a	n/a	n/a	n/a	n/a	n/a	n/a	n/a	n/a	n/a	n/a
297307	REC_WORD	wordpools/wasnorm_wordpool_less_exclusions.txt	LTP249	ltpFR	5	2	0	LOUNGE	845	n/a	n/a	1	n/a	n/a	n/a	n/a	n/a
298759	REC_WORD	wordpools/wasnorm_wordpool_less_exclusions.txt	LTP249	ltpFR	5	2	0	OX	994	n/a	n/a	1	n/a	n/a	n/a	n/a	n/a
302534	REC_WORD	wordpools/wasnorm_wordpool_less_exclusions.txt	LTP249	ltpFR	5	2	1	MOTHER	921	n/a	n/a	1	n/a	n/a	n/a	n/a	n/a
303573	REC_WORD	wordpools/wasnorm_wordpool_less_exclusions.txt	LTP249	ltpFR	5	2	n/a	FATHER	554	n/a	n/a	n/a	n/a	n/a	n/a	n/a	n/a
305809	REC_WORD	wordpools/wasnorm_wordpool_less_exclusions.txt	LTP249	ltpFR	5	2	0	SKIRT	1319	n/a	n/a	0	n/a	n/a	n/a	n/a	n/a
309415	REC_WORD	wordpools/wasnorm_wordpool_less_exclusions.txt	LTP249	ltpFR	5	2	1	PARSLEY	1016	n/a	n/a	1	n/a	n/a	n/a	n/a	n/a
311176	REC_WORD	wordpools/wasnorm_wordpool_less_exclusions.txt	LTP249	ltpFR	5	2	1	BARTENDER	92	n/a	n/a	1	n/a	n/a	n/a	n/a	n/a
312857	REC_WORD	wordpools/wasnorm_wordpool_less_exclusions.txt	LTP249	ltpFR	5	2	1	BOWL	158	n/a	n/a	0	n/a	n/a	n/a	n/a	n/a
317033	REC_WORD	wordpools/wasnorm_wordpool_less_exclusions.txt	LTP249	ltpFR	5	2	1	BUFFALO	186	n/a	n/a	1	n/a	n/a	n/a	n/a	n/a
320320	REC_WORD	wordpools/wasnorm_wordpool_less_exclusions.txt	LTP249	ltpFR	5	2	0	PATH	1023	n/a	n/a	1	n/a	n/a	n/a	n/a	n/a
321971	REC_WORD	wordpools/wasnorm_wordpool_less_exclusions.txt	LTP249	ltpFR	5	2	0	SAW	1239	n/a	n/a	0	n/a	n/a	n/a	n/a	n/a
343233	REC_WORD	wordpools/wasnorm_wordpool_less_exclusions.txt	LTP249	ltpFR	5	2	1	SHEPHERD	1283	n/a	n/a	1	n/a	n/a	n/a	n/a	n/a
390358	WORD	wordpools/wasnorm_wordpool_less_exclusions.txt	LTP249	ltpFR	5	3	1	FIST	572	n/a	n/a	0	0.57763671875	0.412841796875	1	lower	zerothre.ttf
394485	WORD	wordpools/wasnorm_wordpool_less_exclusions.txt	LTP249	ltpFR	5	3	1	COUGAR	387	n/a	n/a	1	0.57763671875	0.412841796875	1	lower	zerothre.ttf
398695	WORD	wordpools/wasnorm_wordpool_less_exclusions.txt	LTP249	ltpFR	5	3	1	ELEPHANT	523	n/a	n/a	1	0.57763671875	0.412841796875	1	lower	zerothre.ttf
402905	WORD	wordpools/wasnorm_wordpool_less_exclusions.txt	LTP249	ltpFR	5	3	1	TOWER	1490	n/a	n/a	0	0.57763671875	0.412841796875	1	lower	zerothre.ttf
406749	WORD	wordpools/wasnorm_wordpool_less_exclusions.txt	LTP249	ltpFR	5	3	1	PIT	1077	n/a	n/a	0	0.57763671875	0.412841796875	1	lower	zerothre.ttf
410710	WORD	wordpools/wasnorm_wordpool_less_exclusions.txt	LTP249	ltpFR	5	3	1	PAW	1029	n/a	n/a	1	0.57763671875	0.412841796875	1	lower	zerothre.ttf
414737	WORD	wordpools/wasnorm_wordpool_less_exclusions.txt	LTP249	ltpFR	5	3	1	PUDDLE	1140	n/a	n/a	0	0.57763671875	0.412841796875	1	lower	zerothre.ttf
418698	WORD	wordpools/wasnorm_wordpool_less_exclusions.txt	LTP249	ltpFR	5	3	1	LAGOON	795	n/a	n/a	0	0.57763671875	0.412841796875	1	lower	zerothre.ttf
422609	WORD	wordpools/wasnorm_wordpool_less_exclusions.txt	LTP249	ltpFR	5	3	1	FLY	586	n/a	n/a	1	0.57763671875	0.412841796875	1	lower	zerothre.ttf
426819	WORD	wordpools/wasnorm_wordpool_less_exclusions.txt	LTP249	ltpFR	5	3	1	ROD	1203	n/a	n/a	0	0.57763671875	0.412841796875	1	lower	zerothre.ttf
431013	WORD	wordpools/wasnorm_wordpool_less_exclusions.txt	LTP249	ltpFR	5	3	1	PIER	1063	n/a	n/a	0	0.57763671875	0.412841796875	1	lower	zerothre.ttf
434924	WORD	wordpools/wasnorm_wordpool_less_exclusions.txt	LTP249	ltpFR	5	3	1	TREE	1502	n/a	n/a	1	0.57763671875	0.412841796875	1	lower	zerothre.ttf
438985	WORD	wordpools/wasnorm_wordpool_less_exclusions.txt	LTP249	ltpFR	5	3	1	SWATTER	1418	n/a	n/a	0	0.57763671875	0.412841796875	1	lower	zerothre.ttf
443178	WORD	wordpools/wasnorm_wordpool_less_exclusions.txt	LTP249	ltpFR	5	3	1	CRITIC	410	n/a	n/a	1	0.57763671875	0.412841796875	1	lower	zerothre.ttf
447206	WORD	wordpools/wasnorm_wordpool_less_exclusions.txt	LTP249	ltpFR	5	3	1	CAVE	263	n/a	n/a	0	0.57763671875	0.412841796875	1	lower	zerothre.ttf
451183	WORD	wordpools/wasnorm_wordpool_less_exclusions.txt	LTP249	ltpFR	5	3	1	PELT	1040	n/a	n/a	0	0.57763671875	0.412841796875	1	lower	zerothre.ttf
456992	REC_START	n/a	LTP249	ltpFR	5	3	n/a	n/a	n/a	n/a	n/a	n/a	n/a	n/a	n/a	n/a	n/a
457815	REC_WORD	wordpools/wasnorm_wordpool_less_exclusions.txt	LTP249	ltpFR	5	3	1	PELT	1040	n/a	n/a	0	n/a	n/a	n/a	n/a	n/a
458982	REC_WORD	wordpools/wasnorm_wordpool_less_exclusions.txt	LTP249	ltpFR	5	3	1	TREE	1502	n/a	n/a	1	n/a	n/a	n/a	n/a	n/a
460144	REC_WORD	wordpools/wasnorm_wordpool_less_exclusions.txt	LTP249	ltpFR	5	3	1	SWATTER	1418	n/a	n/a	0	n/a	n/a	n/a	n/a	n/a
461711	REC_WORD	wordpools/wasnorm_wordpool_less_exclusions.txt	LTP249	ltpFR	5	3	1	CAVE	263	n/a	n/a	0	n/a	n/a	n/a	n/a	n/a
464624	REC_WORD	wordpools/wasnorm_wordpool_less_exclusions.txt	LTP249	ltpFR	5	3	1	LAGOON	795	n/a	n/a	0	n/a	n/a	n/a	n/a	n/a
479710	REC_WORD	wordpools/wasnorm_wordpool_less_exclusions.txt	LTP249	ltpFR	5	3	1	PAW	1029	n/a	n/a	1	n/a	n/a	n/a	n/a	n/a
481057	REC_WORD	wordpools/wasnorm_wordpool_less_exclusions.txt	LTP249	ltpFR	5	3	1	FIST	572	n/a	n/a	0	n/a	n/a	n/a	n/a	n/a
497714	REC_WORD	wordpools/wasnorm_wordpool_less_exclusions.txt	LTP249	ltpFR	5	3	n/a	WASHER	1592	n/a	n/a	n/a	n/a	n/a	n/a	n/a	n/a
503391	REC_WORD	wordpools/wasnorm_wordpool_less_exclusions.txt	LTP249	ltpFR	5	3	1	PELT	1040	n/a	n/a	0	n/a	n/a	n/a	n/a	n/a
518776	REC_WORD	wordpools/wasnorm_wordpool_less_exclusions.txt	LTP249	ltpFR	5	3	1	FLY	586	n/a	n/a	1	n/a	n/a	n/a	n/a	n/a
544278	WORD	wordpools/wasnorm_wordpool_less_exclusions.txt	LTP249	ltpFR	5	4	-1	PAPER	1011	n/a	n/a	-1	1.0	1.0	1	upper	Verdana.ttf
548105	WORD	wordpools/wasnorm_wordpool_less_exclusions.txt	LTP249	ltpFR	5	4	-1	CANDIDATE	228	n/a	n/a	-1	1.0	1.0	1	upper	Verdana.ttf
552316	WORD	wordpools/wasnorm_wordpool_less_exclusions.txt	LTP249	ltpFR	5	4	-1	CLASS	318	n/a	n/a	-1	1.0	1.0	1	upper	Verdana.ttf
556394	WORD	wordpools/wasnorm_wordpool_less_exclusions.txt	LTP249	ltpFR	5	4	-1	SECRETARY	1265	n/a	n/a	-1	1.0	1.0	1	upper	Verdana.ttf
560404	WORD	wordpools/wasnorm_wordpool_less_exclusions.txt	LTP249	ltpFR	5	4	-1	WITNESS	1618	n/a	n/a	-1	1.0	1.0	1	upper	Verdana.ttf
564382	WORD	wordpools/wasnorm_wordpool_less_exclusions.txt	LTP249	ltpFR	5	4	-1	COURSE	390	n/a	n/a	-1	1.0	1.0	1	upper	Verdana.ttf
568541	WORD	wordpools/wasnorm_wordpool_less_exclusions.txt	LTP249	ltpFR	5	4	-1	SIDEWALK	1303	n/a	n/a	-1	1.0	1.0	1	upper	Verdana.ttf
572403	WORD	wordpools/wasnorm_wordpool_less_exclusions.txt	LTP249	ltpFR	5	4	-1	BRICK	172	n/a	n/a	-1	1.0	1.0	1	upper	Verdana.ttf
576480	WORD	wordpools/wasnorm_wordpool_less_exclusions.txt	LTP249	ltpFR	5	4	-1	DOUGHNUT	490	n/a	n/a	-1	1.0	1.0	1	upper	Verdana.ttf
580623	WORD	wordpools/wasnorm_wordpool_less_exclusions.txt	LTP249	ltpFR	5	4	-1	SERPENT	1270	n/a	n/a	-1	1.0	1.0	1	upper	Verdana.ttf
584617	WORD	wordpools/wasnorm_wordpool_less_exclusions.txt	LTP249	ltpFR	5	4	-1	WORM	1623	n/a	n/a	-1	1.0	1.0	1	upper	Verdana.ttf
588778	WORD	wordpools/wasnorm_wordpool_less_exclusions.txt	LTP249	ltpFR	5	4	-1	DISH	474	n/a	n/a	-1	1.0	1.0	1	upper	Verdana.ttf
592772	WORD	wordpools/wasnorm_wordpool_less_exclusions.txt	LTP249	ltpFR	5	4	-1	EDITORIAL	517	n/a	n/a	-1	1.0	1.0	1	upper	Verdana.ttf
596749	WORD	wordpools/wasnorm_wordpool_less_exclusions.txt	LTP249	ltpFR	5	4	-1	MAGAZINE	853	n/a	n/a	-1	1.0	1.0	1	upper	Verdana.ttf
600859	WORD	wordpools/wasnorm_wordpool_less_exclusions.txt	LTP249	ltpFR	5	4	-1	TYPEWRITER	1531	n/a	n/a	-1	1.0	1.0	1	upper	Verdana.ttf
604870	WORD	wordpools/wasnorm_wordpool_less_exclusions.txt	LTP249	ltpFR	5	4	-1	WALL	1582	n/a	n/a	-1	1.0	1.0	1	upper	Verdana.ttf
610497	REC_START	n/a	LTP249	ltpFR	5	4	n/a	n/a	n/a	n/a	n/a	n/a	n/a	n/a	n/a	n/a	n/a
611395	REC_WORD	wordpools/wasnorm_wordpool_less_exclusions.txt	LTP249	ltpFR	5	4	-1	DISH	474	n/a	n/a	-1	n/a	n/a	n/a	n/a	n/a
611899	REC_WORD	wordpools/wasnorm_wordpool_less_exclusions.txt	LTP249	ltpFR	5	4	-1	EDITORIAL	517	n/a	n/a	-1	n/a	n/a	n/a	n/a	n/a
612896	REC_WORD	wordpools/wasnorm_wordpool_less_exclusions.txt	LTP249	ltpFR	5	4	-1	MAGAZINE	853	n/a	n/a	-1	n/a	n/a	n/a	n/a	n/a
613969	REC_WORD	wordpools/wasnorm_wordpool_less_exclusions.txt	LTP249	ltpFR	5	4	-1	TYPEWRITER	1531	n/a	n/a	-1	n/a	n/a	n/a	n/a	n/a
615416	REC_WORD	wordpools/wasnorm_wordpool_less_exclusions.txt	LTP249	ltpFR	5	4	-1	WALL	1582	n/a	n/a	-1	n/a	n/a	n/a	n/a	n/a
616518	REC_WORD	wordpools/wasnorm_wordpool_less_exclusions.txt	LTP249	ltpFR	5	4	-1	SERPENT	1270	n/a	n/a	-1	n/a	n/a	n/a	n/a	n/a
617680	REC_WORD	wordpools/wasnorm_wordpool_less_exclusions.txt	LTP249	ltpFR	5	4	-1	WORM	1623	n/a	n/a	-1	n/a	n/a	n/a	n/a	n/a
624036	REC_WORD	wordpools/wasnorm_wordpool_less_exclusions.txt	LTP249	ltpFR	5	4	-1	PAPER	1011	n/a	n/a	-1	n/a	n/a	n/a	n/a	n/a
626281	REC_WORD	wordpools/wasnorm_wordpool_less_exclusions.txt	LTP249	ltpFR	5	4	-1	CANDIDATE	228	n/a	n/a	-1	n/a	n/a	n/a	n/a	n/a
627523	REC_WORD	wordpools/wasnorm_wordpool_less_exclusions.txt	LTP249	ltpFR	5	4	-1	SECRETARY	1265	n/a	n/a	-1	n/a	n/a	n/a	n/a	n/a
629668	REC_WORD	wordpools/wasnorm_wordpool_less_exclusions.txt	LTP249	ltpFR	5	4	-1	CLASS	318	n/a	n/a	-1	n/a	n/a	n/a	n/a	n/a
697865	WORD	wordpools/wasnorm_wordpool_less_exclusions.txt	LTP249	ltpFR	5	5	-1	COWBOY	395	n/a	n/a	-1	1.0	1.0	1	upper	Verdana.ttf
701958	WORD	wordpools/wasnorm_wordpool_less_exclusions.txt	LTP249	ltpFR	5	5	-1	PIANO	1057	n/a	n/a	-1	1.0	1.0	1	upper	Verdana.ttf
705869	WORD	wordpools/wasnorm_wordpool_less_exclusions.txt	LTP249	ltpFR	5	5	-1	BROCCOLI	176	n/a	n/a	-1	1.0	1.0	1	upper	Verdana.ttf
709714	WORD	wordpools/wasnorm_wordpool_less_exclusions.txt	LTP249	ltpFR	5	5	-1	TWISTER	1530	n/a	n/a	-1	1.0	1.0	1	upper	Verdana.ttf
713924	WORD	wordpools/wasnorm_wordpool_less_exclusions.txt	LTP249	ltpFR	5	5	-1	MISSILE	900	n/a	n/a	-1	1.0	1.0	1	upper	Verdana.ttf
717851	WORD	wordpools/wasnorm_wordpool_less_exclusions.txt	LTP249	ltpFR	5	5	-1	CONTRACT	368	n/a	n/a	-1	1.0	1.0	1	upper	Verdana.ttf
721879	WORD	wordpools/wasnorm_wordpool_less_exclusions.txt	LTP249	ltpFR	5	5	-1	VAULT	1550	n/a	n/a	-1	1.0	1.0	1	upper	Verdana.ttf
726023	WORD	wordpools/wasnorm_wordpool_less_exclusions.txt	LTP249	ltpFR	5	5	-1	FLUTE	585	n/a	n/a	-1	1.0	1.0	1	upper	Verdana.ttf
729850	WORD	wordpools/wasnorm_wordpool_less_exclusions.txt	LTP249	ltpFR	5	5	-1	CREVICE	405	n/a	n/a	-1	1.0	1.0	1	upper	Verdana.ttf
733728	WORD	wordpools/wasnorm_wordpool_less_exclusions.txt	LTP249	ltpFR	5	5	-1	MACARONI	851	n/a	n/a	-1	1.0	1.0	1	upper	Verdana.ttf
737822	WORD	wordpools/wasnorm_wordpool_less_exclusions.txt	LTP249	ltpFR	5	5	-1	GROCERIES	663	n/a	n/a	-1	1.0	1.0	1	upper	Verdana.ttf
741949	WORD	wordpools/wasnorm_wordpool_less_exclusions.txt	LTP249	ltpFR	5	5	-1	SANDWICH	1232	n/a	n/a	-1	1.0	1.0	1	upper	Verdana.ttf
745860	WORD	wordpools/wasnorm_wordpool_less_exclusions.txt	LTP249	ltpFR	5	5	-1	HUT	729	n/a	n/a	-1	1.0	1.0	1	upper	Verdana.ttf
749720	WORD	wordpools/wasnorm_wordpool_less_exclusions.txt	LTP249	ltpFR	5	5	-1	DRIVEWAY	500	n/a	n/a	-1	1.0	1.0	1	upper	Verdana.ttf
753814	WORD	wordpools/wasnorm_wordpool_less_exclusions.txt	LTP249	ltpFR	5	5	-1	BATTERY	101	n/a	n/a	-1	1.0	1.0	1	upper	Verdana.ttf
757858	WORD	wordpools/wasnorm_wordpool_less_exclusions.txt	LTP249	ltpFR	5	5	-1	STOVE	1388	n/a	n/a	-1	1.0	1.0	1	upper	Verdana.ttf
763833	REC_START	n/a	LTP249	ltpFR	5	5	n/a	n/a	n/a	n/a	n/a	n/a	n/a	n/a	n/a	n/a	n/a
764536	REC_WORD	wordpools/wasnorm_wordpool_less_exclusions.txt	LTP249	ltpFR	5	5	-1	HUT	729	n/a	n/a	-1	n/a	n/a	n/a	n/a	n/a
765504	REC_WORD	wordpools/wasnorm_wordpool_less_exclusions.txt	LTP249	ltpFR	5	5	-1	DRIVEWAY	500	n/a	n/a	-1	n/a	n/a	n/a	n/a	n/a
766831	REC_WORD	wordpools/wasnorm_wordpool_less_exclusions.txt	LTP249	ltpFR	5	5	-1	BATTERY	101	n/a	n/a	-1	n/a	n/a	n/a	n/a	n/a
767739	REC_WORD	wordpools/wasnorm_wordpool_less_exclusions.txt	LTP249	ltpFR	5	5	-1	STOVE	1388	n/a	n/a	-1	n/a	n/a	n/a	n/a	n/a
769285	REC_WORD	wordpools/wasnorm_wordpool_less_exclusions.txt	LTP249	ltpFR	5	5	-1	GROCERIES	663	n/a	n/a	-1	n/a	n/a	n/a	n/a	n/a
770433	REC_WORD	wordpools/wasnorm_wordpool_less_exclusions.txt	LTP249	ltpFR	5	5	-1	SANDWICH	1232	n/a	n/a	-1	n/a	n/a	n/a	n/a	n/a
771680	REC_WORD	wordpools/wasnorm_wordpool_less_exclusions.txt	LTP249	ltpFR	5	5	-1	BROCCOLI	176	n/a	n/a	-1	n/a	n/a	n/a	n/a	n/a
772912	REC_WORD	wordpools/wasnorm_wordpool_less_exclusions.txt	LTP249	ltpFR	5	5	-1	MACARONI	851	n/a	n/a	-1	n/a	n/a	n/a	n/a	n/a
774404	REC_WORD	wordpools/wasnorm_wordpool_less_exclusions.txt	LTP249	ltpFR	5	5	-1	PIANO	1057	n/a	n/a	-1	n/a	n/a	n/a	n/a	n/a
775635	REC_WORD	wordpools/wasnorm_wordpool_less_exclusions.txt	LTP249	ltpFR	5	5	-1	FLUTE	585	n/a	n/a	-1	n/a	n/a	n/a	n/a	n/a
777272	REC_WORD	wordpools/wasnorm_wordpool_less_exclusions.txt	LTP249	ltpFR	5	5	-1	COWBOY	395	n/a	n/a	-1	n/a	n/a	n/a	n/a	n/a
779941	REC_WORD	wordpools/wasnorm_wordpool_less_exclusions.txt	LTP249	ltpFR	5	5	-1	CREVICE	405	n/a	n/a	-1	n/a	n/a	n/a	n/a	n/a
781258	REC_WORD	wordpools/wasnorm_wordpool_less_exclusions.txt	LTP249	ltpFR	5	5	-1	MISSILE	900	n/a	n/a	-1	n/a	n/a	n/a	n/a	n/a
858791	WORD	wordpools/wasnorm_wordpool_less_exclusions.txt	LTP249	ltpFR	5	6	0	ASTEROID	50	n/a	n/a	1	0.422607421875	0.5869140625	0	upper	amplitud.ttf
862951	WORD	wordpools/wasnorm_wordpool_less_exclusions.txt	LTP249	ltpFR	5	6	0	THIGH	1457	n/a	n/a	0	0.422607421875	0.5869140625	0	upper	amplitud.ttf
866796	WORD	wordpools/wasnorm_wordpool_less_exclusions.txt	LTP249	ltpFR	5	6	0	BRAKE	166	n/a	n/a	0	0.422607421875	0.5869140625	0	upper	amplitud.ttf
870806	WORD	wordpools/wasnorm_wordpool_less_exclusions.txt	LTP249	ltpFR	5	6	0	LAUNDRY	803	n/a	n/a	1	0.422607421875	0.5869140625	0	upper	amplitud.ttf
874717	WORD	wordpools/wasnorm_wordpool_less_exclusions.txt	LTP249	ltpFR	5	6	1	POLYESTER	1100	n/a	n/a	0	0.57763671875	0.412841796875	1	lower	zerothre.ttf
878894	WORD	wordpools/wasnorm_wordpool_less_exclusions.txt	LTP249	ltpFR	5	6	1	BULL	193	n/a	n/a	1	0.57763671875	0.412841796875	1	lower	zerothre.ttf
882822	WORD	wordpools/wasnorm_wordpool_less_exclusions.txt	LTP249	ltpFR	5	6	1	CONE	363	n/a	n/a	0	0.57763671875	0.412841796875	1	lower	zerothre.ttf
886849	WORD	wordpools/wasnorm_wordpool_less_exclusions.txt	LTP249	ltpFR	5	6	1	SALIVA	1226	n/a	n/a	0	0.57763671875	0.412841796875	1	lower	zerothre.ttf
890810	WORD	wordpools/wasnorm_wordpool_less_exclusions.txt	LTP249	ltpFR	5	6	1	COMET	353	n/a	n/a	0	0.57763671875	0.412841796875	1	lower	zerothre.ttf
894804	WORD	wordpools/wasnorm_wordpool_less_exclusions.txt	LTP249	ltpFR	5	6	1	TAXI	1438	n/a	n/a	0	0.57763671875	0.412841796875	1	lower	zerothre.ttf
898781	WORD	wordpools/wasnorm_wordpool_less_exclusions.txt	LTP249	ltpFR	5	6	0	FOREHEAD	592	n/a	n/a	0	0.422607421875	0.5869140625	0	upper	amplitud.ttf
902875	WORD	wordpools/wasnorm_wordpool_less_exclusions.txt	LTP249	ltpFR	5	6	0	KNIGHT	786	n/a	n/a	1	0.422607421875	0.5869140625	0	upper	amplitud.ttf
906703	WORD	wordpools/wasnorm_wordpool_less_exclusions.txt	LTP249	ltpFR	5	6	0	SHIRT	1287	n/a	n/a	0	0.422607421875	0.5869140625	0	upper	amplitud.ttf
910530	WORD	wordpools/wasnorm_wordpool_less_exclusions.txt	LTP249	ltpFR	5	6	0	LAPEL	800	n/a	n/a	0	0.422607421875	0.5869140625	0	upper	amplitud.ttf
914492	WORD	wordpools/wasnorm_wordpool_less_exclusions.txt	LTP249	ltpFR	5	6	1	ACROBAT	4	n/a	n/a	1	0.57763671875	0.412841796875	1	lower	zerothre.ttf
918635	WORD	wordpools/wasnorm_wordpool_less_exclusions.txt	LTP249	ltpFR	5	6	1	COACH	331	n/a	n/a	1	0.57763671875	0.412841796875	1	lower	zerothre.ttf
924494	REC_START	n/a	LTP249	ltpFR	5	6	n/a	n/a	n/a	n/a	n/a	n/a	n/a	n/a	n/a	n/a	n/a
925937	REC_WORD	wordpools/wasnorm_wordpool_less_exclusions.txt	LTP249	ltpFR	5	6	0	ASTEROID	50	n/a	n/a	1	n/a	n/a	n/a	n/a	n/a
927277	REC_WORD	wordpools/wasnorm_wordpool_less_exclusions.txt	LTP249	ltpFR	5	6	1	COACH	331	n/a	n/a	1	n/a	n/a	n/a	n/a	n/a
928894	REC_WORD	wordpools/wasnorm_wordpool_less_exclusions.txt	LTP249	ltpFR	5	6	1	COMET	353	n/a	n/a	0	n/a	n/a	n/a	n/a	n/a
930274	REC_WORD	wordpools/wasnorm_wordpool_less_exclusions.txt	LTP249	ltpFR	5	6	0	ASTEROID	50	n/a	n/a	1	n/a	n/a	n/a	n/a	n/a
932002	REC_WORD	wordpools/wasnorm_wordpool_less_exclusions.txt	LTP249	ltpFR	5	6	0	THIGH	1457	n/a	n/a	0	n/a	n/a	n/a	n/a	n/a
933408	REC_WORD	wordpools/wasnorm_wordpool_less_exclusions.txt	LTP249	ltpFR	5	6	0	FOREHEAD	592	n/a	n/a	0	n/a	n/a	n/a	n/a	n/a
935304	REC_WORD	wordpools/wasnorm_wordpool_less_exclusions.txt	LTP249	ltpFR	5	6	0	LAPEL	800	n/a	n/a	0	n/a	n/a	n/a	n/a	n/a
940168	REC_WORD	wordpools/wasnorm_wordpool_less_exclusions.txt	LTP249	ltpFR	5	6	0	SHIRT	1287	n/a	n/a	0	n/a	n/a	n/a	n/a	n/a
942887	REC_WORD	wordpools/wasnorm_wordpool_less_exclusions.txt	LTP249	ltpFR	5	6	1	SALIVA	1226	n/a	n/a	0	n/a	n/a	n/a	n/a	n/a
1015258	WORD	wordpools/wasnorm_wordpool_less_exclusions.txt	LTP249	ltpFR	5	7	1	CEILING	265	n/a	n/a	0	0.57763671875	0.412841796875	1	lower	zerothre.ttf
1019235	WORD	wordpools/wasnorm_wordpool_less_exclusions.txt	LTP249	ltpFR	5	7	1	SENATE	1267	n/a	n/a	0	0.57763671875	0.412841796875	1	lower	zerothre.ttf
1023263	WORD	wordpools/wasnorm_wordpool_less_exclusions.txt	LTP249	ltpFR	5	7	1	CUPBOARD	425	n/a	n/a	0	0.57763671875	0.412841796875	1	lower	zerothre.ttf
1027390	WORD	wordpools/wasnorm_wordpool_less_exclusions.txt	LTP249	ltpFR	5	7	1	PITCHFORK	1078	n/a	n/a	0	0.57763671875	0.412841796875	1	lower	zerothre.ttf
1031367	WORD	wordpools/wasnorm_wordpool_less_exclusions.txt	LTP249	ltpFR	5	7	1	TWIG	1527	n/a	n/a	0	0.57763671875	0.412841796875	1	lower	zerothre.ttf
1035560	WORD	wordpools/wasnorm_wordpool_less_exclusions.txt	LTP249	ltpFR	5	7	1	COBRA	336	n/a	n/a	1	0.57763671875	0.412841796875	1	lower	zerothre.ttf
1039604	WORD	wordpools/wasnorm_wordpool_less_exclusions.txt	LTP249	ltpFR	5	7	0	LIZARD	834	n/a	n/a	0	0.422607421875	0.5869140625	0	upper	amplitud.ttf
1043532	WORD	wordpools/wasnorm_wordpool_less_exclusions.txt	LTP249	ltpFR	5	7	0	PEOPLE	1046	n/a	n/a	1	0.422607421875	0.5869140625	0	upper	amplitud.ttf
1047377	WORD	wordpools/wasnorm_wordpool_less_exclusions.txt	LTP249	ltpFR	5	7	0	COMMUNITY	356	n/a	n/a	1	0.422607421875	0.5869140625	0	upper	amplitud.ttf
1051254	WORD	wordpools/wasnorm_wordpool_less_exclusions.txt	LTP249	ltpFR	5	7	0	GLACIER	638	n/a	n/a	1	0.422607421875	0.5869140625	0	upper	amplitud.ttf
1055282	WORD	wordpools/wasnorm_wordpool_less_exclusions.txt	LTP249	ltpFR	5	7	1	CONTAINER	366	n/a	n/a	0	0.57763671875	0.412841796875	1	lower	zerothre.ttf
1059309	WORD	wordpools/wasnorm_wordpool_less_exclusions.txt	LTP249	ltpFR	5	7	1	ELM	527	n/a	n/a	1	0.57763671875	0.412841796875	1	lower	zerothre.ttf
1063386	WORD	wordpools/wasnorm_wordpool_less_exclusions.txt	LTP249	ltpFR	5	7	0	KNAPSACK	783	n/a	n/a	0	0.422607421875	0.5869140625	0	upper	amplitud.ttf
1067314	WORD	wordpools/wasnorm_wordpool_less_exclusions.txt	LTP249	ltpFR	5	7	0	CART	250	n/a	n/a	1	0.422607421875	0.5869140625	0	upper	amplitud.ttf
1071190	WORD	wordpools/wasnorm_wordpool_less_exclusions.txt	LTP249	ltpFR	5	7	0	HAY	693	n/a	n/a	3	0.422607421875	0.5869140625	0	upper	amplitud.ttf
1072888	KEY_MSG	n/a	LTP249	ltpFR	5	7	n/a	n/a	n/a	n/a	n/a	n/a	n/a	n/a	n/a	n/a	n/a
1075468	WORD	wordpools/wasnorm_wordpool_less_exclusions.txt	LTP249	ltpFR	5	7	0	SQUIRREL	1362	n/a	n/a	0	0.422607421875	0.5869140625	0	upper	amplitud.ttf
1081226	REC_START	n/a	LTP249	ltpFR	5	7	n/a	n/a	n/a	n/a	n/a	n/a	n/a	n/a	n/a	n/a	n/a
1091423	REC_WORD	wordpools/wasnorm_wordpool_less_exclusions.txt	LTP249	ltpFR	5	7	0	SQUIRREL	1362	n/a	n/a	0	n/a	n/a	n/a	n/a	n/a
1092944	REC_WORD	wordpools/wasnorm_wordpool_less_exclusions.txt	LTP249	ltpFR	5	7	0	KNAPSACK	783	n/a	n/a	0	n/a	n/a	n/a	n/a	n/a
1097908	REC_WORD	wordpools/wasnorm_wordpool_less_exclusions.txt	LTP249	ltpFR	5	7	1	TWIG	1527	n/a	n/a	0	n/a	n/a	n/a	n/a	n/a
1099767	REC_WORD	wordpools/wasnorm_wordpool_less_exclusions.txt	LTP249	ltpFR	5	7	0	PEOPLE	1046	n/a	n/a	1	n/a	n/a	n/a	n/a	n/a
1101306	REC_WORD	wordpools/wasnorm_wordpool_less_exclusions.txt	LTP249	ltpFR	5	7	0	COMMUNITY	356	n/a	n/a	1	n/a	n/a	n/a	n/a	n/a
1106254	REC_WORD	wordpools/wasnorm_wordpool_less_exclusions.txt	LTP249	ltpFR	5	7	1	ELM	527	n/a	n/a	1	n/a	n/a	n/a	n/a	n/a
1115358	REC_WORD	wordpools/wasnorm_wordpool_less_exclusions.txt	LTP249	ltpFR	5	7	1	CEILING	265	n/a	n/a	0	n/a	n/a	n/a	n/a	n/a
1130290	REC_WORD	wordpools/wasnorm_wordpool_less_exclusions.txt	LTP249	ltpFR	5	7	1	SENATE	1267	n/a	n/a	0	n/a	n/a	n/a	n/a	n/a
1142427	REC_WORD	wordpools/wasnorm_wordpool_less_exclusions.txt	LTP249	ltpFR	5	7	0	GLACIER	638	n/a	n/a	1	n/a	n/a	n/a	n/a	n/a
1155961	REC_WORD	wordpools/wasnorm_wordpool_less_exclusions.txt	LTP249	ltpFR	5	7	0	SHIRT	1287	n/a	n/a	0	n/a	n/a	n/a	n/a	n/a
1168894	WORD	wordpools/wasnorm_wordpool_less_exclusions.txt	LTP249	ltpFR	5	8	0	COD	340	n/a	n/a	0	0.422607421875	0.5869140625	0	upper	amplitud.ttf
1172855	WORD	wordpools/wasnorm_wordpool_less_exclusions.txt	LTP249	ltpFR	5	8	0	CANAL	226	n/a	n/a	1	0.422607421875	0.5869140625	0	upper	amplitud.ttf
1176683	WORD	wordpools/wasnorm_wordpool_less_exclusions.txt	LTP249	ltpFR	5	8	0	REFRIGERATOR	1179	n/a	n/a	1	0.422607421875	0.5869140625	0	upper	amplitud.ttf
1180577	WORD	wordpools/wasnorm_wordpool_less_exclusions.txt	LTP249	ltpFR	5	8	0	LODGE	839	n/a	n/a	1	0.422607421875	0.5869140625	0	upper	amplitud.ttf
1184554	WORD	wordpools/wasnorm_wordpool_less_exclusions.txt	LTP249	ltpFR	5	8	0	RESORT	1186	n/a	n/a	1	0.422607421875	0.5869140625	0	upper	amplitud.ttf
1188615	WORD	wordpools/wasnorm_wordpool_less_exclusions.txt	LTP249	ltpFR	5	8	0	BROTHER	179	n/a	n/a	1	0.422607421875	0.5869140625	0	upper	amplitud.ttf
1192460	WORD	wordpools/wasnorm_wordpool_less_exclusions.txt	LTP249	ltpFR	5	8	0	FREEWAY	603	n/a	n/a	1	0.422607421875	0.5869140625	0	upper	amplitud.ttf
1196305	WORD	wordpools/wasnorm_wordpool_less_exclusions.txt	LTP249	ltpFR	5	8	0	SIGN	1305	n/a	n/a	0	0.422607421875	0.5869140625	0	upper	amplitud.ttf
1200315	WORD	wordpools/wasnorm_wordpool_less_exclusions.txt	LTP249	ltpFR	5	8	0	STREAM	1392	n/a	n/a	1	0.422607421875	0.5869140625	0	upper	amplitud.ttf
1204426	WORD	wordpools/wasnorm_wordpool_less_exclusions.txt	LTP249	ltpFR	5	8	0	PEPPER	1047	n/a	n/a	0	0.422607421875	0.5869140625	0	upper	amplitud.ttf
1208470	WORD	wordpools/wasnorm_wordpool_less_exclusions.txt	LTP249	ltpFR	5	8	0	MILK	895	n/a	n/a	0	0.422607421875	0.5869140625	0	upper	amplitud.ttf
1212331	WORD	wordpools/wasnorm_wordpool_less_exclusions.txt	LTP249	ltpFR	5	8	0	CHEDDAR	286	n/a	n/a	0	0.422607421875	0.5869140625	0	upper	amplitud.ttf
1216258	WORD	wordpools/wasnorm_wordpool_less_exclusions.txt	LTP249	ltpFR	5	8	0	CENT	270	n/a	n/a	0	0.422607421875	0.5869140625	0	upper	amplitud.ttf
1220252	WORD	wordpools/wasnorm_wordpool_less_exclusions.txt	LTP249	ltpFR	5	8	0	REGISTER	1180	n/a	n/a	1	0.422607421875	0.5869140625	0	upper	amplitud.ttf
1224396	WORD	wordpools/wasnorm_wordpool_less_exclusions.txt	LTP249	ltpFR	5	8	0	FLIPPER	580	n/a	n/a	0	0.422607421875	0.5869140625	0	upper	amplitud.ttf
1228340	WORD	wordpools/wasnorm_wordpool_less_exclusions.txt	LTP249	ltpFR	5	8	0	BLANKET	135	n/a	n/a	1	0.422607421875	0.5869140625	0	upper	amplitud.ttf
1234249	REC_START	n/a	LTP249	ltpFR	5	8	n/a	n/a	n/a	n/a	n/a	n/a	n/a	n/a	n/a	n/a	n/a
1234942	REC_WORD	wordpools/wasnorm_wordpool_less_exclusions.txt	LTP249	ltpFR	5	8	0	BLANKET	135	n/a	n/a	1	n/a	n/a	n/a	n/a	n/a
1236014	REC_WORD	wordpools/wasnorm_wordpool_less_exclusions.txt	LTP249	ltpFR	5	8	0	FLIPPER	580	n/a	n/a	0	n/a	n/a	n/a	n/a	n/a
1237227	REC_WORD	wordpools/wasnorm_wordpool_less_exclusions.txt	LTP249	ltpFR	5	8	0	FREEWAY	603	n/a	n/a	1	n/a	n/a	n/a	n/a	n/a
1238713	REC_WORD	wordpools/wasnorm_wordpool_less_exclusions.txt	LTP249	ltpFR	5	8	0	SIGN	1305	n/a	n/a	0	n/a	n/a	n/a	n/a	n/a
1259042	REC_WORD	wordpools/wasnorm_wordpool_less_exclusions.txt	LTP249	ltpFR	5	8	0	STREAM	1392	n/a	n/a	1	n/a	n/a	n/a	n/a	n/a
1277775	REC_WORD	wordpools/wasnorm_wordpool_less_exclusions.txt	LTP249	ltpFR	5	8	0	MILK	895	n/a	n/a	0	n/a	n/a	n/a	n/a	n/a
1279257	REC_WORD	wordpools/wasnorm_wordpool_less_exclusions.txt	LTP249	ltpFR	5	8	0	PEPPER	1047	n/a	n/a	0	n/a	n/a	n/a	n/a	n/a
1322615	WORD	wordpools/wasnorm_wordpool_less_exclusions.txt	LTP249	ltpFR	5	9	1	BEAN	105	n/a	n/a	1	0.57763671875	0.412841796875	1	lower	zerothre.ttf
1326559	WORD	wordpools/wasnorm_wordpool_less_exclusions.txt	LTP249	ltpFR	5	9	1	CARRIAGE	248	n/a	n/a	0	0.57763671875	0.412841796875	1	lower	zerothre.ttf
1330620	WORD	wordpools/wasnorm_wordpool_less_exclusions.txt	LTP249	ltpFR	5	9	1	SCALLOP	1242	n/a	n/a	1	0.57763671875	0.412841796875	1	lower	zerothre.ttf
1334498	WORD	wordpools/wasnorm_wordpool_less_exclusions.txt	LTP249	ltpFR	5	9	1	FACTORY	548	n/a	n/a	0	0.57763671875	0.412841796875	1	lower	zerothre.ttf
1338459	WORD	wordpools/wasnorm_wordpool_less_exclusions.txt	LTP249	ltpFR	5	9	1	GAZELLE	628	n/a	n/a	1	0.57763671875	0.412841796875	1	lower	zerothre.ttf
1342420	WORD	wordpools/wasnorm_wordpool_less_exclusions.txt	LTP249	ltpFR	5	9	1	ELK	526	n/a	n/a	1	0.57763671875	0.412841796875	1	lower	zerothre.ttf
1346264	WORD	wordpools/wasnorm_wordpool_less_exclusions.txt	LTP249	ltpFR	5	9	1	PICNIC	1060	n/a	n/a	0	0.57763671875	0.412841796875	1	lower	zerothre.ttf
1350358	WORD	wordpools/wasnorm_wordpool_less_exclusions.txt	LTP249	ltpFR	5	9	1	QUAIL	1147	n/a	n/a	1	0.57763671875	0.412841796875	1	lower	zerothre.ttf
1354402	WORD	wordpools/wasnorm_wordpool_less_exclusions.txt	LTP249	ltpFR	5	9	1	CUSTARD	429	n/a	n/a	0	0.57763671875	0.412841796875	1	lower	zerothre.ttf
1358545	WORD	wordpools/wasnorm_wordpool_less_exclusions.txt	LTP249	ltpFR	5	9	1	STRAWBERRY	1391	n/a	n/a	1	0.57763671875	0.412841796875	1	lower	zerothre.ttf
1362490	WORD	wordpools/wasnorm_wordpool_less_exclusions.txt	LTP249	ltpFR	5	9	1	PENGUIN	1044	n/a	n/a	1	0.57763671875	0.412841796875	1	lower	zerothre.ttf
1366334	WORD	wordpools/wasnorm_wordpool_less_exclusions.txt	LTP249	ltpFR	5	9	1	DART	440	n/a	n/a	0	0.57763671875	0.412841796875	1	lower	zerothre.ttf
1370210	WORD	wordpools/wasnorm_wordpool_less_exclusions.txt	LTP249	ltpFR	5	9	1	ERASER	538	n/a	n/a	0	0.57763671875	0.412841796875	1	lower	zerothre.ttf
1374339	WORD	wordpools/wasnorm_wordpool_less_exclusions.txt	LTP249	ltpFR	5	9	1	CREW	406	n/a	n/a	1	0.57763671875	0.412841796875	1	lower	zerothre.ttf
1378466	WORD	wordpools/wasnorm_wordpool_less_exclusions.txt	LTP249	ltpFR	5	9	1	RICE	1190	n/a	n/a	1	0.57763671875	0.412841796875	1	lower	zerothre.ttf
1382343	WORD	wordpools/wasnorm_wordpool_less_exclusions.txt	LTP249	ltpFR	5	9	1	WHIP	1604	n/a	n/a	0	0.57763671875	0.412841796875	1	lower	zerothre.ttf
1388101	REC_START	n/a	LTP249	ltpFR	5	9	n/a	n/a	n/a	n/a	n/a	n/a	n/a	n/a	n/a	n/a	n/a
1388949	REC_WORD	wordpools/wasnorm_wordpool_less_exclusions.txt	LTP249	ltpFR	5	9	1	DART	440	n/a	n/a	0	n/a	n/a	n/a	n/a	n/a
1389737	REC_WORD	wordpools/wasnorm_wordpool_less_exclusions.txt	LTP249	ltpFR	5	9	1	ERASER	538	n/a	n/a	0	n/a	n/a	n/a	n/a	n/a
1390999	REC_WORD	wordpools/wasnorm_wordpool_less_exclusions.txt	LTP249	ltpFR	5	9	1	RICE	1190	n/a	n/a	1	n/a	n/a	n/a	n/a	n/a
1392231	REC_WORD	wordpools/wasnorm_wordpool_less_exclusions.txt	LTP249	ltpFR	5	9	1	WHIP	1604	n/a	n/a	0	n/a	n/a	n/a	n/a	n/a
1393404	REC_WORD	wordpools/wasnorm_wordpool_less_exclusions.txt	LTP249	ltpFR	5	9	1	CUSTARD	429	n/a	n/a	0	n/a	n/a	n/a	n/a	n/a
1394696	REC_WORD	wordpools/wasnorm_wordpool_less_exclusions.txt	LTP249	ltpFR	5	9	1	STRAWBERRY	1391	n/a	n/a	1	n/a	n/a	n/a	n/a	n/a
1397599	REC_WORD	wordpools/wasnorm_wordpool_less_exclusions.txt	LTP249	ltpFR	5	9	1	GAZELLE	628	n/a	n/a	1	n/a	n/a	n/a	n/a	n/a
1399211	REC_WORD	wordpools/wasnorm_wordpool_less_exclusions.txt	LTP249	ltpFR	5	9	1	ELK	526	n/a	n/a	1	n/a	n/a	n/a	n/a	n/a
1401101	REC_WORD	wordpools/wasnorm_wordpool_less_exclusions.txt	LTP249	ltpFR	5	9	1	QUAIL	1147	n/a	n/a	1	n/a	n/a	n/a	n/a	n/a
1402495	REC_WORD	wordpools/wasnorm_wordpool_less_exclusions.txt	LTP249	ltpFR	5	9	1	SCALLOP	1242	n/a	n/a	1	n/a	n/a	n/a	n/a	n/a
1432989	REC_WORD	wordpools/wasnorm_wordpool_less_exclusions.txt	LTP249	ltpFR	5	9	1	PENGUIN	1044	n/a	n/a	1	n/a	n/a	n/a	n/a	n/a
1438257	REC_WORD	wordpools/wasnorm_wordpool_less_exclusions.txt	LTP249	ltpFR	5	9	0	COD	340	n/a	n/a	0	n/a	n/a	n/a	n/a	n/a
1475753	WORD	wordpools/wasnorm_wordpool_less_exclusions.txt	LTP249	ltpFR	5	10	0	UNIFORM	1539	n/a	n/a	1	0.422607421875	0.5869140625	0	upper	amplitud.ttf
1479880	WORD	wordpools/wasnorm_wordpool_less_exclusions.txt	LTP249	ltpFR	5	10	0	CHIP	303	n/a	n/a	0	0.422607421875	0.5869140625	0	upper	amplitud.ttf
1483774	WORD	wordpools/wasnorm_wordpool_less_exclusions.txt	LTP249	ltpFR	5	10	1	PADDLE	1000	n/a	n/a	0	0.57763671875	0.412841796875	1	lower	zerothre.ttf
1487652	WORD	wordpools/wasnorm_wordpool_less_exclusions.txt	LTP249	ltpFR	5	10	1	CATERPILLAR	259	n/a	n/a	1	0.57763671875	0.412841796875	1	lower	zerothre.ttf
1491497	WORD	wordpools/wasnorm_wordpool_less_exclusions.txt	LTP249	ltpFR	5	10	1	RELISH	1183	n/a	n/a	0	0.57763671875	0.412841796875	1	lower	zerothre.ttf
1495706	WORD	wordpools/wasnorm_wordpool_less_exclusions.txt	LTP249	ltpFR	5	10	1	BELT	120	n/a	n/a	0	0.57763671875	0.412841796875	1	lower	zerothre.ttf
1499667	WORD	wordpools/wasnorm_wordpool_less_exclusions.txt	LTP249	ltpFR	5	10	0	WAIST	1579	n/a	n/a	0	0.422607421875	0.5869140625	0	upper	amplitud.ttf
1503828	WORD	wordpools/wasnorm_wordpool_less_exclusions.txt	LTP249	ltpFR	5	10	0	DANDELION	438	n/a	n/a	0	0.422607421875	0.5869140625	0	upper	amplitud.ttf
1507822	WORD	wordpools/wasnorm_wordpool_less_exclusions.txt	LTP249	ltpFR	5	10	0	PARROT	1015	n/a	n/a	1	0.422607421875	0.5869140625	0	upper	amplitud.ttf
1511699	WORD	wordpools/wasnorm_wordpool_less_exclusions.txt	LTP249	ltpFR	5	10	1	HANDKERCHIEF	686	n/a	n/a	0	0.57763671875	0.412841796875	1	lower	zerothre.ttf
1515776	WORD	wordpools/wasnorm_wordpool_less_exclusions.txt	LTP249	ltpFR	5	10	1	CHEST	295	n/a	n/a	1	0.57763671875	0.412841796875	1	lower	zerothre.ttf
1519987	WORD	wordpools/wasnorm_wordpool_less_exclusions.txt	LTP249	ltpFR	5	10	1	BUTLER	204	n/a	n/a	1	0.57763671875	0.412841796875	1	lower	zerothre.ttf
1524164	WORD	wordpools/wasnorm_wordpool_less_exclusions.txt	LTP249	ltpFR	5	10	1	WAITER	1580	n/a	n/a	1	0.57763671875	0.412841796875	1	lower	zerothre.ttf
1528292	WORD	wordpools/wasnorm_wordpool_less_exclusions.txt	LTP249	ltpFR	5	10	0	MOTH	920	n/a	n/a	0	0.422607421875	0.5869140625	0	upper	amplitud.ttf
1532453	WORD	wordpools/wasnorm_wordpool_less_exclusions.txt	LTP249	ltpFR	5	10	0	MARINE	869	n/a	n/a	1	0.422607421875	0.5869140625	0	upper	amplitud.ttf
1536562	WORD	wordpools/wasnorm_wordpool_less_exclusions.txt	LTP249	ltpFR	5	10	0	PLASTER	1085	n/a	n/a	0	0.422607421875	0.5869140625	0	upper	amplitud.ttf
1542455	REC_START	n/a	LTP249	ltpFR	5	10	n/a	n/a	n/a	n/a	n/a	n/a	n/a	n/a	n/a	n/a	n/a
1543128	REC_WORD	wordpools/wasnorm_wordpool_less_exclusions.txt	LTP249	ltpFR	5	10	0	PLASTER	1085	n/a	n/a	0	n/a	n/a	n/a	n/a	n/a
1544924	REC_WORD	wordpools/wasnorm_wordpool_less_exclusions.txt	LTP249	ltpFR	5	10	0	MOTH	920	n/a	n/a	0	n/a	n/a	n/a	n/a	n/a
1554431	REC_WORD	wordpools/wasnorm_wordpool_less_exclusions.txt	LTP249	ltpFR	5	10	1	HANDKERCHIEF	686	n/a	n/a	0	n/a	n/a	n/a	n/a	n/a
1555750	REC_WORD	wordpools/wasnorm_wordpool_less_exclusions.txt	LTP249	ltpFR	5	10	1	WAITER	1580	n/a	n/a	1	n/a	n/a	n/a	n/a	n/a
1562674	REC_WORD	wordpools/wasnorm_wordpool_less_exclusions.txt	LTP249	ltpFR	5	10	0	MARINE	869	n/a	n/a	1	n/a	n/a	n/a	n/a	n/a
1564674	REC_WORD	wordpools/wasnorm_wordpool_less_exclusions.txt	LTP249	ltpFR	5	10	0	WAIST	1579	n/a	n/a	0	n/a	n/a	n/a	n/a	n/a
1609961	REC_WORD	wordpools/wasnorm_wordpool_less_exclusions.txt	LTP249	ltpFR	5	10	0	DANDELION	438	n/a	n/a	0	n/a	n/a	n/a	n/a	n/a
1642388	WORD	wordpools/wasnorm_wordpool_less_exclusions.txt	LTP249	ltpFR	5	11	-1	PARCEL	1012	n/a	n/a	-1	1.0	1.0	1	upper	Verdana.ttf
1646598	WORD	wordpools/wasnorm_wordpool_less_exclusions.txt	LTP249	ltpFR	5	11	-1	FRIEND	606	n/a	n/a	-1	1.0	1.0	1	upper	Verdana.ttf
1650692	WORD	wordpools/wasnorm_wordpool_less_exclusions.txt	LTP249	ltpFR	5	11	-1	FAMILY	550	n/a	n/a	-1	1.0	1.0	1	upper	Verdana.ttf
1654686	WORD	wordpools/wasnorm_wordpool_less_exclusions.txt	LTP249	ltpFR	5	11	-1	HANGER	687	n/a	n/a	-1	1.0	1.0	1	upper	Verdana.ttf
1658713	WORD	wordpools/wasnorm_wordpool_less_exclusions.txt	LTP249	ltpFR	5	11	-1	SHORTS	1293	n/a	n/a	-1	1.0	1.0	1	upper	Verdana.ttf
1662724	WORD	wordpools/wasnorm_wordpool_less_exclusions.txt	LTP249	ltpFR	5	11	-1	FOOT	590	n/a	n/a	-1	1.0	1.0	1	upper	Verdana.ttf
1666784	WORD	wordpools/wasnorm_wordpool_less_exclusions.txt	LTP249	ltpFR	5	11	-1	COBBLER	335	n/a	n/a	-1	1.0	1.0	1	upper	Verdana.ttf
1670628	WORD	wordpools/wasnorm_wordpool_less_exclusions.txt	LTP249	ltpFR	5	11	-1	SPATULA	1348	n/a	n/a	-1	1.0	1.0	1	upper	Verdana.ttf
1674506	WORD	wordpools/wasnorm_wordpool_less_exclusions.txt	LTP249	ltpFR	5	11	-1	SPOOL	1356	n/a	n/a	-1	1.0	1.0	1	upper	Verdana.ttf
1678451	WORD	wordpools/wasnorm_wordpool_less_exclusions.txt	LTP249	ltpFR	5	11	-1	NEST	945	n/a	n/a	-1	1.0	1.0	1	upper	Verdana.ttf
1682495	WORD	wordpools/wasnorm_wordpool_less_exclusions.txt	LTP249	ltpFR	5	11	-1	CARDINAL	244	n/a	n/a	-1	1.0	1.0	1	upper	Verdana.ttf
1686522	WORD	wordpools/wasnorm_wordpool_less_exclusions.txt	LTP249	ltpFR	5	11	-1	GUEST	669	n/a	n/a	-1	1.0	1.0	1	upper	Verdana.ttf
1690433	WORD	wordpools/wasnorm_wordpool_less_exclusions.txt	LTP249	ltpFR	5	11	-1	COPIER	377	n/a	n/a	-1	1.0	1.0	1	upper	Verdana.ttf
1694377	WORD	wordpools/wasnorm_wordpool_less_exclusions.txt	LTP249	ltpFR	5	11	-1	FOE	587	n/a	n/a	-1	1.0	1.0	1	upper	Verdana.ttf
1698338	WORD	wordpools/wasnorm_wordpool_less_exclusions.txt	LTP249	ltpFR	5	11	-1	TICKET	1464	n/a	n/a	-1	1.0	1.0	1	upper	Verdana.ttf
1702349	WORD	wordpools/wasnorm_wordpool_less_exclusions.txt	LTP249	ltpFR	5	11	-1	NOTEBOOK	959	n/a	n/a	-1	1.0	1.0	1	upper	Verdana.ttf
1708223	REC_START	n/a	LTP249	ltpFR	5	11	n/a	n/a	n/a	n/a	n/a	n/a	n/a	n/a	n/a	n/a	n/a
1708956	REC_WORD	wordpools/wasnorm_wordpool_less_exclusions.txt	LTP249	ltpFR	5	11	-1	CARDINAL	244	n/a	n/a	-1	n/a	n/a	n/a	n/a	n/a
1710163	REC_WORD	wordpools/wasnorm_wordpool_less_exclusions.txt	LTP249	ltpFR	5	11	-1	NEST	945	n/a	n/a	-1	n/a	n/a	n/a	n/a	n/a
1711455	REC_WORD	wordpools/wasnorm_wordpool_less_exclusions.txt	LTP249	ltpFR	5	11	-1	COPIER	377	n/a	n/a	-1	n/a	n/a	n/a	n/a	n/a
1712987	REC_WORD	wordpools/wasnorm_wordpool_less_exclusions.txt	LTP249	ltpFR	5	11	-1	NOTEBOOK	959	n/a	n/a	-1	n/a	n/a	n/a	n/a	n/a
1714424	REC_WORD	wordpools/wasnorm_wordpool_less_exclusions.txt	LTP249	ltpFR	5	11	-1	GUEST	669	n/a	n/a	-1	n/a	n/a	n/a	n/a	n/a
1715820	REC_WORD	wordpools/wasnorm_wordpool_less_exclusions.txt	LTP249	ltpFR	5	11	-1	FOE	587	n/a	n/a	-1	n/a	n/a	n/a	n/a	n/a
1717377	REC_WORD	wordpools/wasnorm_wordpool_less_exclusions.txt	LTP249	ltpFR	5	11	-1	PARCEL	1012	n/a	n/a	-1	n/a	n/a	n/a	n/a	n/a
1718878	REC_WORD	wordpools/wasnorm_wordpool_less_exclusions.txt	LTP249	ltpFR	5	11	-1	FRIEND	606	n/a	n/a	-1	n/a	n/a	n/a	n/a	n/a
1720554	REC_WORD	wordpools/wasnorm_wordpool_less_exclusions.txt	LTP249	ltpFR	5	11	-1	FAMILY	550	n/a	n/a	-1	n/a	n/a	n/a	n/a	n/a
1722391	REC_WORD	wordpools/wasnorm_wordpool_less_exclusions.txt	LTP249	ltpFR	5	11	-1	HANGER	687	n/a	n/a	-1	n/a	n/a	n/a	n/a	n/a
1723762	REC_WORD	wordpools/wasnorm_wordpool_less_exclusions.txt	LTP249	ltpFR	5	11	-1	SHORTS	1293	n/a	n/a	-1	n/a	n/a	n/a	n/a	n/a
1725148	REC_WORD	wordpools/wasnorm_wordpool_less_exclusions.txt	LTP249	ltpFR	5	11	-1	FOOT	590	n/a	n/a	-1	n/a	n/a	n/a	n/a	n/a
1798604	WORD	wordpools/wasnorm_wordpool_less_exclusions.txt	LTP249	ltpFR	5	12	0	MAGICIAN	854	n/a	n/a	1	0.422607421875	0.5869140625	0	upper	amplitud.ttf
1802765	WORD	wordpools/wasnorm_wordpool_less_exclusions.txt	LTP249	ltpFR	5	12	0	DRAWER	493	n/a	n/a	1	0.422607421875	0.5869140625	0	upper	amplitud.ttf
1806775	WORD	wordpools/wasnorm_wordpool_less_exclusions.txt	LTP249	ltpFR	5	12	0	HUMAN	726	n/a	n/a	1	0.422607421875	0.5869140625	0	upper	amplitud.ttf
1810869	WORD	wordpools/wasnorm_wordpool_less_exclusions.txt	LTP249	ltpFR	5	12	0	ANKLE	24	n/a	n/a	0	0.422607421875	0.5869140625	0	upper	amplitud.ttf
1814730	WORD	wordpools/wasnorm_wordpool_less_exclusions.txt	LTP249	ltpFR	5	12	0	THIMBLE	1458	n/a	n/a	0	0.422607421875	0.5869140625	0	upper	amplitud.ttf
1818774	WORD	wordpools/wasnorm_wordpool_less_exclusions.txt	LTP249	ltpFR	5	12	0	QUILT	1151	n/a	n/a	1	0.422607421875	0.5869140625	0	upper	amplitud.ttf
1822918	WORD	wordpools/wasnorm_wordpool_less_exclusions.txt	LTP249	ltpFR	5	12	0	WRENCH	1625	n/a	n/a	0	0.422607421875	0.5869140625	0	upper	amplitud.ttf
1826862	WORD	wordpools/wasnorm_wordpool_less_exclusions.txt	LTP249	ltpFR	5	12	0	CARPENTER	246	n/a	n/a	1	0.422607421875	0.5869140625	0	upper	amplitud.ttf
1830756	WORD	wordpools/wasnorm_wordpool_less_exclusions.txt	LTP249	ltpFR	5	12	0	SIGNATURE	1306	n/a	n/a	0	0.422607421875	0.5869140625	0	upper	amplitud.ttf
1834917	WORD	wordpools/wasnorm_wordpool_less_exclusions.txt	LTP249	ltpFR	5	12	0	DRILL	497	n/a	n/a	0	0.422607421875	0.5869140625	0	upper	amplitud.ttf
1838827	WORD	wordpools/wasnorm_wordpool_less_exclusions.txt	LTP249	ltpFR	5	12	0	FREEZER	604	n/a	n/a	1	0.422607421875	0.5869140625	0	upper	amplitud.ttf
1842655	WORD	wordpools/wasnorm_wordpool_less_exclusions.txt	LTP249	ltpFR	5	12	0	ATTIRE	57	n/a	n/a	1	0.422607421875	0.5869140625	0	upper	amplitud.ttf
1846632	WORD	wordpools/wasnorm_wordpool_less_exclusions.txt	LTP249	ltpFR	5	12	0	RABBIT	1152	n/a	n/a	0	0.422607421875	0.5869140625	0	upper	amplitud.ttf
1850843	WORD	wordpools/wasnorm_wordpool_less_exclusions.txt	LTP249	ltpFR	5	12	0	RADISH	1158	n/a	n/a	0	0.422607421875	0.5869140625	0	upper	amplitud.ttf
1854687	WORD	wordpools/wasnorm_wordpool_less_exclusions.txt	LTP249	ltpFR	5	12	0	PEBBLE	1035	n/a	n/a	0	0.422607421875	0.5869140625	0	upper	amplitud.ttf
1858548	WORD	wordpools/wasnorm_wordpool_less_exclusions.txt	LTP249	ltpFR	5	12	0	LEG	809	n/a	n/a	1	0.422607421875	0.5869140625	0	upper	amplitud.ttf
1864274	REC_START	n/a	LTP249	ltpFR	5	12	n/a	n/a	n/a	n/a	n/a	n/a	n/a	n/a	n/a	n/a	n/a
1864767	REC_WORD	wordpools/wasnorm_wordpool_less_exclusions.txt	LTP249	ltpFR	5	12	0	SIGNATURE	1306	n/a	n/a	0	n/a	n/a	n/a	n/a	n/a
1865985	REC_WORD	wordpools/wasnorm_wordpool_less_exclusions.txt	LTP249	ltpFR	5	12	0	THIMBLE	1458	n/a	n/a	0	n/a	n/a	n/a	n/a	n/a
1867252	REC_WORD	wordpools/wasnorm_wordpool_less_exclusions.txt	LTP249	ltpFR	5	12	0	LEG	809	n/a	n/a	1	n/a	n/a	n/a	n/a	n/a
1868564	REC_WORD	wordpools/wasnorm_wordpool_less_exclusions.txt	LTP249	ltpFR	5	12	0	RABBIT	1152	n/a	n/a	0	n/a	n/a	n/a	n/a	n/a
1869786	REC_WORD	wordpools/wasnorm_wordpool_less_exclusions.txt	LTP249	ltpFR	5	12	0	WRENCH	1625	n/a	n/a	0	n/a	n/a	n/a	n/a	n/a
1871213	REC_WORD	wordpools/wasnorm_wordpool_less_exclusions.txt	LTP249	ltpFR	5	12	0	DRILL	497	n/a	n/a	0	n/a	n/a	n/a	n/a	n/a
1872700	REC_WORD	wordpools/wasnorm_wordpool_less_exclusions.txt	LTP249	ltpFR	5	12	0	ANKLE	24	n/a	n/a	0	n/a	n/a	n/a	n/a	n/a
1875942	REC_WORD	wordpools/wasnorm_wordpool_less_exclusions.txt	LTP249	ltpFR	5	12	0	LEG	809	n/a	n/a	1	n/a	n/a	n/a	n/a	n/a
1877708	REC_WORD	wordpools/wasnorm_wordpool_less_exclusions.txt	LTP249	ltpFR	5	12	0	MAGICIAN	854	n/a	n/a	1	n/a	n/a	n/a	n/a	n/a
1879349	REC_WORD	wordpools/wasnorm_wordpool_less_exclusions.txt	LTP249	ltpFR	5	12	0	HUMAN	726	n/a	n/a	1	n/a	n/a	n/a	n/a	n/a
1882677	REC_WORD	wordpools/wasnorm_wordpool_less_exclusions.txt	LTP249	ltpFR	5	12	0	CARPENTER	246	n/a	n/a	1	n/a	n/a	n/a	n/a	n/a
1892837	REC_WORD	wordpools/wasnorm_wordpool_less_exclusions.txt	LTP249	ltpFR	5	12	0	ATTIRE	57	n/a	n/a	1	n/a	n/a	n/a	n/a	n/a
1894944	REC_WORD	wordpools/wasnorm_wordpool_less_exclusions.txt	LTP249	ltpFR	5	12	0	BLANKET	135	n/a	n/a	1	n/a	n/a	n/a	n/a	n/a
1939893	REST_REWET	n/a	LTP249	ltpFR	5	12	n/a	n/a	n/a	n/a	n/a	n/a	n/a	n/a	n/a	n/a	n/a
2400871	WORD	wordpools/wasnorm_wordpool_less_exclusions.txt	LTP249	ltpFR	5	13	1	RASH	1167	n/a	n/a	0	0.57763671875	0.412841796875	1	lower	zerothre.ttf
2404766	WORD	wordpools/wasnorm_wordpool_less_exclusions.txt	LTP249	ltpFR	5	13	1	DISHWASHER	475	n/a	n/a	0	0.57763671875	0.412841796875	1	lower	zerothre.ttf
2408660	WORD	wordpools/wasnorm_wordpool_less_exclusions.txt	LTP249	ltpFR	5	13	1	DESSERT	453	n/a	n/a	0	0.57763671875	0.412841796875	1	lower	zerothre.ttf
2412853	WORD	wordpools/wasnorm_wordpool_less_exclusions.txt	LTP249	ltpFR	5	13	1	SCARF	1246	n/a	n/a	0	0.57763671875	0.412841796875	1	lower	zerothre.ttf
2416798	WORD	wordpools/wasnorm_wordpool_less_exclusions.txt	LTP249	ltpFR	5	13	1	SOAP	1337	n/a	n/a	0	0.57763671875	0.412841796875	1	lower	zerothre.ttf
2420692	WORD	wordpools/wasnorm_wordpool_less_exclusions.txt	LTP249	ltpFR	5	13	1	SHORTCAKE	1292	n/a	n/a	0	0.57763671875	0.412841796875	1	lower	zerothre.ttf
2424603	WORD	wordpools/wasnorm_wordpool_less_exclusions.txt	LTP249	ltpFR	5	13	1	PERSON	1052	n/a	n/a	1	0.57763671875	0.412841796875	1	lower	zerothre.ttf
2428647	WORD	wordpools/wasnorm_wordpool_less_exclusions.txt	LTP249	ltpFR	5	13	1	BALLOT	76	n/a	n/a	0	0.57763671875	0.412841796875	1	lower	zerothre.ttf
2432724	WORD	wordpools/wasnorm_wordpool_less_exclusions.txt	LTP249	ltpFR	5	13	1	VIDEO	1564	n/a	n/a	0	0.57763671875	0.412841796875	1	lower	zerothre.ttf
2436618	WORD	wordpools/wasnorm_wordpool_less_exclusions.txt	LTP249	ltpFR	5	13	1	SKILLET	1317	n/a	n/a	0	0.57763671875	0.412841796875	1	lower	zerothre.ttf
2440629	WORD	wordpools/wasnorm_wordpool_less_exclusions.txt	LTP249	ltpFR	5	13	1	YOLK	1633	n/a	n/a	0	0.57763671875	0.412841796875	1	lower	zerothre.ttf
2444673	WORD	wordpools/wasnorm_wordpool_less_exclusions.txt	LTP249	ltpFR	5	13	1	CUB	419	n/a	n/a	1	0.57763671875	0.412841796875	1	lower	zerothre.ttf
2448633	WORD	wordpools/wasnorm_wordpool_less_exclusions.txt	LTP249	ltpFR	5	13	1	BABY	64	n/a	n/a	1	0.57763671875	0.412841796875	1	lower	zerothre.ttf
2452677	WORD	wordpools/wasnorm_wordpool_less_exclusions.txt	LTP249	ltpFR	5	13	1	UTENSIL	1542	n/a	n/a	0	0.57763671875	0.412841796875	1	lower	zerothre.ttf
2456522	WORD	wordpools/wasnorm_wordpool_less_exclusions.txt	LTP249	ltpFR	5	13	1	CHICK	296	n/a	n/a	1	0.57763671875	0.412841796875	1	lower	zerothre.ttf
2460350	WORD	wordpools/wasnorm_wordpool_less_exclusions.txt	LTP249	ltpFR	5	13	1	TURKEY	1520	n/a	n/a	1	0.57763671875	0.412841796875	1	lower	zerothre.ttf
2466224	REC_START	n/a	LTP249	ltpFR	5	13	n/a	n/a	n/a	n/a	n/a	n/a	n/a	n/a	n/a	n/a	n/a
2466982	REC_WORD	wordpools/wasnorm_wordpool_less_exclusions.txt	LTP249	ltpFR	5	13	1	TURKEY	1520	n/a	n/a	1	n/a	n/a	n/a	n/a	n/a
2468035	REC_WORD	wordpools/wasnorm_wordpool_less_exclusions.txt	LTP249	ltpFR	5	13	1	CHICK	296	n/a	n/a	1	n/a	n/a	n/a	n/a	n/a
2469122	REC_WORD	wordpools/wasnorm_wordpool_less_exclusions.txt	LTP249	ltpFR	5	13	1	YOLK	1633	n/a	n/a	0	n/a	n/a	n/a	n/a	n/a
2470614	REC_WORD	wordpools/wasnorm_wordpool_less_exclusions.txt	LTP249	ltpFR	5	13	1	BABY	64	n/a	n/a	1	n/a	n/a	n/a	n/a	n/a
2472413	REC_WORD	wordpools/wasnorm_wordpool_less_exclusions.txt	LTP249	ltpFR	5	13	1	PERSON	1052	n/a	n/a	1	n/a	n/a	n/a	n/a	n/a
2473892	REC_WORD	wordpools/wasnorm_wordpool_less_exclusions.txt	LTP249	ltpFR	5	13	-1	SPATULA	1348	n/a	n/a	-1	n/a	n/a	n/a	n/a	n/a
2476326	REC_WORD	wordpools/wasnorm_wordpool_less_exclusions.txt	LTP249	ltpFR	5	13	1	VIDEO	1564	n/a	n/a	0	n/a	n/a	n/a	n/a	n/a
2480910	REC_WORD	wordpools/wasnorm_wordpool_less_exclusions.txt	LTP249	ltpFR	5	13	1	DESSERT	453	n/a	n/a	0	n/a	n/a	n/a	n/a	n/a
2486999	REC_WORD	wordpools/wasnorm_wordpool_less_exclusions.txt	LTP249	ltpFR	5	13	n/a	CHEESECAKE	-1	n/a	n/a	n/a	n/a	n/a	n/a	n/a	n/a
2564743	WORD	wordpools/wasnorm_wordpool_less_exclusions.txt	LTP249	ltpFR	5	14	-1	KETTLE	772	n/a	n/a	-1	1.0	1.0	1	upper	Verdana.ttf
2568687	WORD	wordpools/wasnorm_wordpool_less_exclusions.txt	LTP249	ltpFR	5	14	-1	BARK	87	n/a	n/a	-1	1.0	1.0	1	upper	Verdana.ttf
2572798	WORD	wordpools/wasnorm_wordpool_less_exclusions.txt	LTP249	ltpFR	5	14	-1	OTTER	986	n/a	n/a	-1	1.0	1.0	1	upper	Verdana.ttf
2576775	WORD	wordpools/wasnorm_wordpool_less_exclusions.txt	LTP249	ltpFR	5	14	-1	LONDON	843	n/a	n/a	-1	1.0	1.0	1	upper	Verdana.ttf
2580653	WORD	wordpools/wasnorm_wordpool_less_exclusions.txt	LTP249	ltpFR	5	14	-1	TEAM	1441	n/a	n/a	-1	1.0	1.0	1	upper	Verdana.ttf
2584482	WORD	wordpools/wasnorm_wordpool_less_exclusions.txt	LTP249	ltpFR	5	14	-1	ARENA	37	n/a	n/a	-1	1.0	1.0	1	upper	Verdana.ttf
2588674	WORD	wordpools/wasnorm_wordpool_less_exclusions.txt	LTP249	ltpFR	5	14	-1	TREAT	1501	n/a	n/a	-1	1.0	1.0	1	upper	Verdana.ttf
2592868	WORD	wordpools/wasnorm_wordpool_less_exclusions.txt	LTP249	ltpFR	5	14	-1	ASSOCIATE	49	n/a	n/a	-1	1.0	1.0	1	upper	Verdana.ttf
2596995	WORD	wordpools/wasnorm_wordpool_less_exclusions.txt	LTP249	ltpFR	5	14	-1	MONGOOSE	909	n/a	n/a	-1	1.0	1.0	1	upper	Verdana.ttf
2601006	WORD	wordpools/wasnorm_wordpool_less_exclusions.txt	LTP249	ltpFR	5	14	-1	BAY	102	n/a	n/a	-1	1.0	1.0	1	upper	Verdana.ttf
2605150	WORD	wordpools/wasnorm_wordpool_less_exclusions.txt	LTP249	ltpFR	5	14	-1	BIKE	125	n/a	n/a	-1	1.0	1.0	1	upper	Verdana.ttf
2609011	WORD	wordpools/wasnorm_wordpool_less_exclusions.txt	LTP249	ltpFR	5	14	-1	WAND	1586	n/a	n/a	-1	1.0	1.0	1	upper	Verdana.ttf
2612955	WORD	wordpools/wasnorm_wordpool_less_exclusions.txt	LTP249	ltpFR	5	14	-1	VEST	1559	n/a	n/a	-1	1.0	1.0	1	upper	Verdana.ttf
2616849	WORD	wordpools/wasnorm_wordpool_less_exclusions.txt	LTP249	ltpFR	5	14	-1	BATHROOM	99	n/a	n/a	-1	1.0	1.0	1	upper	Verdana.ttf
2620909	WORD	wordpools/wasnorm_wordpool_less_exclusions.txt	LTP249	ltpFR	5	14	-1	BATHTUB	100	n/a	n/a	-1	1.0	1.0	1	upper	Verdana.ttf
2624787	WORD	wordpools/wasnorm_wordpool_less_exclusions.txt	LTP249	ltpFR	5	14	-1	CUFF	423	n/a	n/a	-1	1.0	1.0	1	upper	Verdana.ttf
2630464	REC_START	n/a	LTP249	ltpFR	5	14	n/a	n/a	n/a	n/a	n/a	n/a	n/a	n/a	n/a	n/a	n/a
2631122	REC_WORD	wordpools/wasnorm_wordpool_less_exclusions.txt	LTP249	ltpFR	5	14	-1	BATHTUB	100	n/a	n/a	-1	n/a	n/a	n/a	n/a	n/a
2632140	REC_WORD	wordpools/wasnorm_wordpool_less_exclusions.txt	LTP249	ltpFR	5	14	-1	CUFF	423	n/a	n/a	-1	n/a	n/a	n/a	n/a	n/a
2633447	REC_WORD	wordpools/wasnorm_wordpool_less_exclusions.txt	LTP249	ltpFR	5	14	-1	BAY	102	n/a	n/a	-1	n/a	n/a	n/a	n/a	n/a
2637877	REC_WORD	wordpools/wasnorm_wordpool_less_exclusions.txt	LTP249	ltpFR	5	14	-1	KETTLE	772	n/a	n/a	-1	n/a	n/a	n/a	n/a	n/a
2639244	REC_WORD	wordpools/wasnorm_wordpool_less_exclusions.txt	LTP249	ltpFR	5	14	-1	BARK	87	n/a	n/a	-1	n/a	n/a	n/a	n/a	n/a
2641109	REC_WORD	wordpools/wasnorm_wordpool_less_exclusions.txt	LTP249	ltpFR	5	14	-1	TEAM	1441	n/a	n/a	-1	n/a	n/a	n/a	n/a	n/a
2642556	REC_WORD	wordpools/wasnorm_wordpool_less_exclusions.txt	LTP249	ltpFR	5	14	-1	ARENA	37	n/a	n/a	-1	n/a	n/a	n/a	n/a	n/a
2644227	REC_WORD	wordpools/wasnorm_wordpool_less_exclusions.txt	LTP249	ltpFR	5	14	-1	LONDON	843	n/a	n/a	-1	n/a	n/a	n/a	n/a	n/a
2688347	REC_WORD	wordpools/wasnorm_wordpool_less_exclusions.txt	LTP249	ltpFR	5	14	n/a	BOAT	144	n/a	n/a	n/a	n/a	n/a	n/a	n/a	n/a
2751382	WORD	wordpools/wasnorm_wordpool_less_exclusions.txt	LTP249	ltpFR	5	15	1	PORTRAIT	1111	n/a	n/a	0	0.57763671875	0.412841796875	1	lower	zerothre.ttf
2755426	WORD	wordpools/wasnorm_wordpool_less_exclusions.txt	LTP249	ltpFR	5	15	1	SCRIBBLE	1256	n/a	n/a	0	0.57763671875	0.412841796875	1	lower	zerothre.ttf
2759569	WORD	wordpools/wasnorm_wordpool_less_exclusions.txt	LTP249	ltpFR	5	15	1	CROOK	412	n/a	n/a	0	0.57763671875	0.412841796875	1	lower	zerothre.ttf
2763414	WORD	wordpools/wasnorm_wordpool_less_exclusions.txt	LTP249	ltpFR	5	15	0	BURGLAR	200	n/a	n/a	1	0.422607421875	0.5869140625	0	upper	amplitud.ttf
2767425	WORD	wordpools/wasnorm_wordpool_less_exclusions.txt	LTP249	ltpFR	5	15	0	COMEDIAN	352	n/a	n/a	1	0.422607421875	0.5869140625	0	upper	amplitud.ttf
2771585	WORD	wordpools/wasnorm_wordpool_less_exclusions.txt	LTP249	ltpFR	5	15	0	POCKET	1093	n/a	n/a	0	0.422607421875	0.5869140625	0	upper	amplitud.ttf
2775562	WORD	wordpools/wasnorm_wordpool_less_exclusions.txt	LTP249	ltpFR	5	15	0	DENIM	446	n/a	n/a	1	0.422607421875	0.5869140625	0	upper	amplitud.ttf
2779606	WORD	wordpools/wasnorm_wordpool_less_exclusions.txt	LTP249	ltpFR	5	15	1	FINGER	567	n/a	n/a	1	0.57763671875	0.412841796875	1	lower	zerothre.ttf
2783733	WORD	wordpools/wasnorm_wordpool_less_exclusions.txt	LTP249	ltpFR	5	15	1	WHEAT	1602	n/a	n/a	1	0.57763671875	0.412841796875	1	lower	zerothre.ttf
2787577	WORD	wordpools/wasnorm_wordpool_less_exclusions.txt	LTP249	ltpFR	5	15	0	PHOTO	1055	n/a	n/a	0	0.422607421875	0.5869140625	0	upper	amplitud.ttf
2791439	WORD	wordpools/wasnorm_wordpool_less_exclusions.txt	LTP249	ltpFR	5	15	0	SERVANT	1271	n/a	n/a	1	0.422607421875	0.5869140625	0	upper	amplitud.ttf
2795466	WORD	wordpools/wasnorm_wordpool_less_exclusions.txt	LTP249	ltpFR	5	15	0	RING	1193	n/a	n/a	0	0.422607421875	0.5869140625	0	upper	amplitud.ttf
2799626	WORD	wordpools/wasnorm_wordpool_less_exclusions.txt	LTP249	ltpFR	5	15	0	BEDROOM	111	n/a	n/a	1	0.422607421875	0.5869140625	0	upper	amplitud.ttf
2803836	WORD	wordpools/wasnorm_wordpool_less_exclusions.txt	LTP249	ltpFR	5	15	1	MAID	856	n/a	n/a	1	0.57763671875	0.412841796875	1	lower	zerothre.ttf
2807780	WORD	wordpools/wasnorm_wordpool_less_exclusions.txt	LTP249	ltpFR	5	15	1	PIG	1064	n/a	n/a	1	0.57763671875	0.412841796875	1	lower	zerothre.ttf
2811675	WORD	wordpools/wasnorm_wordpool_less_exclusions.txt	LTP249	ltpFR	5	15	1	SCENERY	1247	n/a	n/a	0	0.57763671875	0.412841796875	1	lower	zerothre.ttf
2817516	REC_START	n/a	LTP249	ltpFR	5	15	n/a	n/a	n/a	n/a	n/a	n/a	n/a	n/a	n/a	n/a	n/a
2818194	REC_WORD	wordpools/wasnorm_wordpool_less_exclusions.txt	LTP249	ltpFR	5	15	1	MAID	856	n/a	n/a	1	n/a	n/a	n/a	n/a	n/a
2819456	REC_WORD	wordpools/wasnorm_wordpool_less_exclusions.txt	LTP249	ltpFR	5	15	1	PIG	1064	n/a	n/a	1	n/a	n/a	n/a	n/a	n/a
2820703	REC_WORD	wordpools/wasnorm_wordpool_less_exclusions.txt	LTP249	ltpFR	5	15	1	SCENERY	1247	n/a	n/a	0	n/a	n/a	n/a	n/a	n/a
2826924	REC_WORD	wordpools/wasnorm_wordpool_less_exclusions.txt	LTP249	ltpFR	5	15	1	CROOK	412	n/a	n/a	0	n/a	n/a	n/a	n/a	n/a
2828306	REC_WORD	wordpools/wasnorm_wordpool_less_exclusions.txt	LTP249	ltpFR	5	15	0	BURGLAR	200	n/a	n/a	1	n/a	n/a	n/a	n/a	n/a
2830531	REC_WORD	wordpools/wasnorm_wordpool_less_exclusions.txt	LTP249	ltpFR	5	15	n/a	PAINTING	1005	n/a	n/a	n/a	n/a	n/a	n/a	n/a	n/a
2831834	REC_WORD	wordpools/wasnorm_wordpool_less_exclusions.txt	LTP249	ltpFR	5	15	1	SCRIBBLE	1256	n/a	n/a	0	n/a	n/a	n/a	n/a	n/a
2833539	REC_WORD	wordpools/wasnorm_wordpool_less_exclusions.txt	LTP249	ltpFR	5	15	0	PHOTO	1055	n/a	n/a	0	n/a	n/a	n/a	n/a	n/a
2842144	REC_WORD	wordpools/wasnorm_wordpool_less_exclusions.txt	LTP249	ltpFR	5	15	1	SCENERY	1247	n/a	n/a	0	n/a	n/a	n/a	n/a	n/a
2857310	REC_WORD	wordpools/wasnorm_wordpool_less_exclusions.txt	LTP249	ltpFR	5	15	0	DENIM	446	n/a	n/a	1	n/a	n/a	n/a	n/a	n/a
2858453	REC_WORD	wordpools/wasnorm_wordpool_less_exclusions.txt	LTP249	ltpFR	5	15	0	POCKET	1093	n/a	n/a	0	n/a	n/a	n/a	n/a	n/a
2923058	WORD	wordpools/wasnorm_wordpool_less_exclusions.txt	LTP249	ltpFR	5	16	0	TUNA	1518	n/a	n/a	0	0.422607421875	0.5869140625	0	upper	amplitud.ttf
2926969	WORD	wordpools/wasnorm_wordpool_less_exclusions.txt	LTP249	ltpFR	5	16	0	TROUT	1511	n/a	n/a	0	0.422607421875	0.5869140625	0	upper	amplitud.ttf
2931130	WORD	wordpools/wasnorm_wordpool_less_exclusions.txt	LTP249	ltpFR	5	16	0	MOUNTAIN	924	n/a	n/a	1	0.422607421875	0.5869140625	0	upper	amplitud.ttf
2934957	WORD	wordpools/wasnorm_wordpool_less_exclusions.txt	LTP249	ltpFR	5	16	0	CREEK	404	n/a	n/a	1	0.422607421875	0.5869140625	0	upper	amplitud.ttf
2938868	WORD	wordpools/wasnorm_wordpool_less_exclusions.txt	LTP249	ltpFR	5	16	0	SALESMAN	1225	n/a	n/a	1	0.422607421875	0.5869140625	0	upper	amplitud.ttf
2942829	WORD	wordpools/wasnorm_wordpool_less_exclusions.txt	LTP249	ltpFR	5	16	0	VALLEY	1545	n/a	n/a	1	0.422607421875	0.5869140625	0	upper	amplitud.ttf
2946723	WORD	wordpools/wasnorm_wordpool_less_exclusions.txt	LTP249	ltpFR	5	16	0	CROCODILE	411	n/a	n/a	1	0.422607421875	0.5869140625	0	upper	amplitud.ttf
2950584	WORD	wordpools/wasnorm_wordpool_less_exclusions.txt	LTP249	ltpFR	5	16	0	OWNER	993	n/a	n/a	1	0.422607421875	0.5869140625	0	upper	amplitud.ttf
2954496	WORD	wordpools/wasnorm_wordpool_less_exclusions.txt	LTP249	ltpFR	5	16	0	DIGGER	464	n/a	n/a	1	0.422607421875	0.5869140625	0	upper	amplitud.ttf
2958705	WORD	wordpools/wasnorm_wordpool_less_exclusions.txt	LTP249	ltpFR	5	16	0	RAKE	1164	n/a	n/a	1	0.422607421875	0.5869140625	0	upper	amplitud.ttf
2962583	WORD	wordpools/wasnorm_wordpool_less_exclusions.txt	LTP249	ltpFR	5	16	0	OAR	966	n/a	n/a	1	0.422607421875	0.5869140625	0	upper	amplitud.ttf
2966793	WORD	wordpools/wasnorm_wordpool_less_exclusions.txt	LTP249	ltpFR	5	16	0	CROW	414	n/a	n/a	0	0.422607421875	0.5869140625	0	upper	amplitud.ttf
2970854	WORD	wordpools/wasnorm_wordpool_less_exclusions.txt	LTP249	ltpFR	5	16	0	HAMBURGER	679	n/a	n/a	0	0.422607421875	0.5869140625	0	upper	amplitud.ttf
2974731	WORD	wordpools/wasnorm_wordpool_less_exclusions.txt	LTP249	ltpFR	5	16	0	SWING	1421	n/a	n/a	1	0.422607421875	0.5869140625	0	upper	amplitud.ttf
2978659	WORD	wordpools/wasnorm_wordpool_less_exclusions.txt	LTP249	ltpFR	5	16	0	POPCORN	1104	n/a	n/a	0	0.422607421875	0.5869140625	0	upper	amplitud.ttf
2982503	WORD	wordpools/wasnorm_wordpool_less_exclusions.txt	LTP249	ltpFR	5	16	0	BISCUIT	130	n/a	n/a	0	0.422607421875	0.5869140625	0	upper	amplitud.ttf
2988279	REC_START	n/a	LTP249	ltpFR	5	16	n/a	n/a	n/a	n/a	n/a	n/a	n/a	n/a	n/a	n/a	n/a
2989132	REC_WORD	wordpools/wasnorm_wordpool_less_exclusions.txt	LTP249	ltpFR	5	16	0	SALESMAN	1225	n/a	n/a	1	n/a	n/a	n/a	n/a	n/a
2990249	REC_WORD	wordpools/wasnorm_wordpool_less_exclusions.txt	LTP249	ltpFR	5	16	0	SWING	1421	n/a	n/a	1	n/a	n/a	n/a	n/a	n/a
2991881	REC_WORD	wordpools/wasnorm_wordpool_less_exclusions.txt	LTP249	ltpFR	5	16	0	BISCUIT	130	n/a	n/a	0	n/a	n/a	n/a	n/a	n/a
2993776	REC_WORD	wordpools/wasnorm_wordpool_less_exclusions.txt	LTP249	ltpFR	5	16	0	MOUNTAIN	924	n/a	n/a	1	n/a	n/a	n/a	n/a	n/a
2995168	REC_WORD	wordpools/wasnorm_wordpool_less_exclusions.txt	LTP249	ltpFR	5	16	0	CREEK	404	n/a	n/a	1	n/a	n/a	n/a	n/a	n/a
2997987	REC_WORD	wordpools/wasnorm_wordpool_less_exclusions.txt	LTP249	ltpFR	5	16	0	OWNER	993	n/a	n/a	1	n/a	n/a	n/a	n/a	n/a
2999284	REC_WORD	wordpools/wasnorm_wordpool_less_exclusions.txt	LTP249	ltpFR	5	16	0	TROUT	1511	n/a	n/a	0	n/a	n/a	n/a	n/a	n/a
3000960	REC_WORD	wordpools/wasnorm_wordpool_less_exclusions.txt	LTP249	ltpFR	5	16	0	TUNA	1518	n/a	n/a	0	n/a	n/a	n/a	n/a	n/a
3020805	REC_WORD	wordpools/wasnorm_wordpool_less_exclusions.txt	LTP249	ltpFR	5	16	0	RAKE	1164	n/a	n/a	1	n/a	n/a	n/a	n/a	n/a
3022496	REC_WORD	wordpools/wasnorm_wordpool_less_exclusions.txt	LTP249	ltpFR	5	16	0	DIGGER	464	n/a	n/a	1	n/a	n/a	n/a	n/a	n/a
3027834	REC_WORD	wordpools/wasnorm_wordpool_less_exclusions.txt	LTP249	ltpFR	5	16	0	CROCODILE	411	n/a	n/a	1	n/a	n/a	n/a	n/a	n/a
3029964	REC_WORD	wordpools/wasnorm_wordpool_less_exclusions.txt	LTP249	ltpFR	5	16	0	VALLEY	1545	n/a	n/a	1	n/a	n/a	n/a	n/a	n/a
3052303	REC_WORD	wordpools/wasnorm_wordpool_less_exclusions.txt	LTP249	ltpFR	5	16	0	BEDROOM	111	n/a	n/a	1	n/a	n/a	n/a	n/a	n/a
3113042	REC_START	n/a	LTP249	ltpFR	5	1	n/a	n/a	n/a	n/a	n/a	n/a	n/a	n/a	n/a	n/a	n/a
3113075	RECOG_LURE	n/a	LTP249	ltpFR	5	1	n/a	INDIAN	736	0	5	n/a	n/a	n/a	n/a	n/a	n/a
3115157	RECOG_RESP	n/a	LTP249	ltpFR	5	1	n/a	INDIAN	736	0	n/a	n/a	n/a	n/a	n/a	n/a	n/a
3116279	RECOG_CONF	n/a	LTP249	ltpFR	5	1	n/a	INDIAN	736	n/a	5	n/a	n/a	n/a	n/a	n/a	n/a
3117967	RECOG_TARGET	n/a	LTP249	ltpFR	5	1	1	BALLOT	76	1	1	0	n/a	n/a	n/a	n/a	n/a
3118664	RECOG_RESP	n/a	LTP249	ltpFR	5	1	1	BALLOT	76	1	n/a	0	n/a	n/a	n/a	n/a	n/a
3119442	RECOG_CONF	n/a	LTP249	ltpFR	5	1	1	BALLOT	76	n/a	1	0	n/a	n/a	n/a	n/a	n/a
3121079	RECOG_TARGET	n/a	LTP249	ltpFR	5	1	1	CHEST	295	1	3	1	n/a	n/a	n/a	n/a	n/a
3122051	RECOG_RESP	n/a	LTP249	ltpFR	5	1	1	CHEST	295	1	n/a	1	n/a	n/a	n/a	n/a	n/a
3122795	RECOG_CONF	n/a	LTP249	ltpFR	5	1	1	CHEST	295	n/a	3	1	n/a	n/a	n/a	n/a	n/a
3124442	RECOG_TARGET	n/a	LTP249	ltpFR	5	1	0	MARINE	869	1	5	1	n/a	n/a	n/a	n/a	n/a
3125025	RECOG_RESP	n/a	LTP249	ltpFR	5	1	0	MARINE	869	1	n/a	1	n/a	n/a	n/a	n/a	n/a
3125698	RECOG_CONF	n/a	LTP249	ltpFR	5	1	0	MARINE	869	n/a	5	1	n/a	n/a	n/a	n/a	n/a
3127321	RECOG_TARGET	n/a	LTP249	ltpFR	5	1	1	BULL	193	1	2	1	n/a	n/a	n/a	n/a	n/a
3128023	RECOG_RESP	n/a	LTP249	ltpFR	5	1	1	BULL	193	1	n/a	1	n/a	n/a	n/a	n/a	n/a
3128791	RECOG_CONF	n/a	LTP249	ltpFR	5	1	1	BULL	193	n/a	2	1	n/a	n/a	n/a	n/a	n/a
3130450	RECOG_TARGET	n/a	LTP249	ltpFR	5	1	0	SIGN	1305	1	5	0	n/a	n/a	n/a	n/a	n/a
3131091	RECOG_RESP	n/a	LTP249	ltpFR	5	1	0	SIGN	1305	1	n/a	0	n/a	n/a	n/a	n/a	n/a
3131744	RECOG_CONF	n/a	LTP249	ltpFR	5	1	0	SIGN	1305	n/a	5	0	n/a	n/a	n/a	n/a	n/a
3133478	RECOG_TARGET	n/a	LTP249	ltpFR	5	1	-1	TYPEWRITER	1531	1	4	-1	n/a	n/a	n/a	n/a	n/a
3134274	RECOG_RESP	n/a	LTP249	ltpFR	5	1	-1	TYPEWRITER	1531	1	n/a	-1	n/a	n/a	n/a	n/a	n/a
3134897	RECOG_CONF	n/a	LTP249	ltpFR	5	1	-1	TYPEWRITER	1531	n/a	4	-1	n/a	n/a	n/a	n/a	n/a
3136606	RECOG_TARGET	n/a	LTP249	ltpFR	5	1	0	CHIP	303	1	1	0	n/a	n/a	n/a	n/a	n/a
3137731	RECOG_RESP	n/a	LTP249	ltpFR	5	1	0	CHIP	303	1	n/a	0	n/a	n/a	n/a	n/a	n/a
3138389	RECOG_CONF	n/a	LTP249	ltpFR	5	1	0	CHIP	303	n/a	1	0	n/a	n/a	n/a	n/a	n/a
3140001	RECOG_LURE	n/a	LTP249	ltpFR	5	1	n/a	RAM	1165	0	1	n/a	n/a	n/a	n/a	n/a	n/a
3141263	RECOG_RESP	n/a	LTP249	ltpFR	5	1	n/a	RAM	1165	0	n/a	n/a	n/a	n/a	n/a	n/a	n/a
3141901	RECOG_CONF	n/a	LTP249	ltpFR	5	1	n/a	RAM	1165	n/a	1	n/a	n/a	n/a	n/a	n/a	n/a
3143679	RECOG_TARGET	n/a	LTP249	ltpFR	5	1	0	KNIGHT	786	0	2	1	n/a	n/a	n/a	n/a	n/a
3144440	RECOG_RESP	n/a	LTP249	ltpFR	5	1	0	KNIGHT	786	0	n/a	1	n/a	n/a	n/a	n/a	n/a
3145114	RECOG_CONF	n/a	LTP249	ltpFR	5	1	0	KNIGHT	786	n/a	2	1	n/a	n/a	n/a	n/a	n/a
3146891	RECOG_LURE	n/a	LTP249	ltpFR	5	1	n/a	TIGER	1467	0	3	n/a	n/a	n/a	n/a	n/a	n/a
3147962	RECOG_RESP	n/a	LTP249	ltpFR	5	1	n/a	TIGER	1467	0	n/a	n/a	n/a	n/a	n/a	n/a	n/a
3148646	RECOG_CONF	n/a	LTP249	ltpFR	5	1	n/a	TIGER	1467	n/a	3	n/a	n/a	n/a	n/a	n/a	n/a
3150253	RECOG_TARGET	n/a	LTP249	ltpFR	5	1	1	TURKEY	1520	1	3	1	n/a	n/a	n/a	n/a	n/a
3151145	RECOG_RESP	n/a	LTP249	ltpFR	5	1	1	TURKEY	1520	1	n/a	1	n/a	n/a	n/a	n/a	n/a
3151869	RECOG_CONF	n/a	LTP249	ltpFR	5	1	1	TURKEY	1520	n/a	3	1	n/a	n/a	n/a	n/a	n/a
3153564	RECOG_LURE	n/a	LTP249	ltpFR	5	1	n/a	COMMANDER	354	0	4	n/a	n/a	n/a	n/a	n/a	n/a
3154378	RECOG_RESP	n/a	LTP249	ltpFR	5	1	n/a	COMMANDER	354	0	n/a	n/a	n/a	n/a	n/a	n/a	n/a
3155041	RECOG_CONF	n/a	LTP249	ltpFR	5	1	n/a	COMMANDER	354	n/a	4	n/a	n/a	n/a	n/a	n/a	n/a
3156759	RECOG_TARGET	n/a	LTP249	ltpFR	5	1	1	ELK	526	1	5	1	n/a	n/a	n/a	n/a	n/a
3157386	RECOG_RESP	n/a	LTP249	ltpFR	5	1	1	ELK	526	1	n/a	1	n/a	n/a	n/a	n/a	n/a
3158045	RECOG_CONF	n/a	LTP249	ltpFR	5	1	1	ELK	526	n/a	5	1	n/a	n/a	n/a	n/a	n/a
3159738	RECOG_TARGET	n/a	LTP249	ltpFR	5	1	-1	TREAT	1501	1	5	-1	n/a	n/a	n/a	n/a	n/a
3160329	RECOG_RESP	n/a	LTP249	ltpFR	5	1	-1	TREAT	1501	1	n/a	-1	n/a	n/a	n/a	n/a	n/a
3160948	RECOG_CONF	n/a	LTP249	ltpFR	5	1	-1	TREAT	1501	n/a	5	-1	n/a	n/a	n/a	n/a	n/a
3162634	RECOG_TARGET	n/a	LTP249	ltpFR	5	1	-1	WORM	1623	1	5	-1	n/a	n/a	n/a	n/a	n/a
3163248	RECOG_RESP	n/a	LTP249	ltpFR	5	1	-1	WORM	1623	1	n/a	-1	n/a	n/a	n/a	n/a	n/a
3163901	RECOG_CONF	n/a	LTP249	ltpFR	5	1	-1	WORM	1623	n/a	5	-1	n/a	n/a	n/a	n/a	n/a
3165414	RECOG_TARGET	n/a	LTP249	ltpFR	5	1	-1	BATHROOM	99	1	5	-1	n/a	n/a	n/a	n/a	n/a
3165927	RECOG_RESP	n/a	LTP249	ltpFR	5	1	-1	BATHROOM	99	1	n/a	-1	n/a	n/a	n/a	n/a	n/a
3166675	RECOG_CONF	n/a	LTP249	ltpFR	5	1	-1	BATHROOM	99	n/a	5	-1	n/a	n/a	n/a	n/a	n/a
3168360	RECOG_TARGET	n/a	LTP249	ltpFR	5	1	0	LAUNDRY	803	1	2	1	n/a	n/a	n/a	n/a	n/a
3168940	RECOG_RESP	n/a	LTP249	ltpFR	5	1	0	LAUNDRY	803	1	n/a	1	n/a	n/a	n/a	n/a	n/a
3169608	RECOG_CONF	n/a	LTP249	ltpFR	5	1	0	LAUNDRY	803	n/a	2	1	n/a	n/a	n/a	n/a	n/a
3171238	RECOG_TARGET	n/a	LTP249	ltpFR	5	1	-1	ARENA	37	1	5	-1	n/a	n/a	n/a	n/a	n/a
3171843	RECOG_RESP	n/a	LTP249	ltpFR	5	1	-1	ARENA	37	1	n/a	-1	n/a	n/a	n/a	n/a	n/a
3172462	RECOG_CONF	n/a	LTP249	ltpFR	5	1	-1	ARENA	37	n/a	5	-1	n/a	n/a	n/a	n/a	n/a
3174167	RECOG_LURE	n/a	LTP249	ltpFR	5	1	n/a	SOFTBALL	1343	1	1	n/a	n/a	n/a	n/a	n/a	n/a
3174657	RECOG_RESP	n/a	LTP249	ltpFR	5	1	n/a	SOFTBALL	1343	1	n/a	n/a	n/a	n/a	n/a	n/a	n/a
3175315	RECOG_CONF	n/a	LTP249	ltpFR	5	1	n/a	SOFTBALL	1343	n/a	1	n/a	n/a	n/a	n/a	n/a	n/a
3195522	REC_START	n/a	LTP249	ltpFR	5	2	n/a	n/a	n/a	n/a	n/a	n/a	n/a	n/a	n/a	n/a	n/a
3195551	RECOG_LURE	n/a	LTP249	ltpFR	5	2	n/a	LIME	823	0	1	n/a	n/a	n/a	n/a	n/a	n/a
3196769	RECOG_RESP	n/a	LTP249	ltpFR	5	2	n/a	LIME	823	0	n/a	n/a	n/a	n/a	n/a	n/a	n/a
3197413	RECOG_CONF	n/a	LTP249	ltpFR	5	2	n/a	LIME	823	n/a	1	n/a	n/a	n/a	n/a	n/a	n/a
3199113	RECOG_LURE	n/a	LTP249	ltpFR	5	2	n/a	DEPARTMENT	449	0	2	n/a	n/a	n/a	n/a	n/a	n/a
3199907	RECOG_RESP	n/a	LTP249	ltpFR	5	2	n/a	DEPARTMENT	449	0	n/a	n/a	n/a	n/a	n/a	n/a	n/a
3200535	RECOG_CONF	n/a	LTP249	ltpFR	5	2	n/a	DEPARTMENT	449	n/a	2	n/a	n/a	n/a	n/a	n/a	n/a
3202241	RECOG_TARGET	n/a	LTP249	ltpFR	5	2	-1	COPIER	377	1	5	-1	n/a	n/a	n/a	n/a	n/a
3202885	RECOG_RESP	n/a	LTP249	ltpFR	5	2	-1	COPIER	377	1	n/a	-1	n/a	n/a	n/a	n/a	n/a
3203519	RECOG_CONF	n/a	LTP249	ltpFR	5	2	-1	COPIER	377	n/a	5	-1	n/a	n/a	n/a	n/a	n/a
3205154	RECOG_LURE	n/a	LTP249	ltpFR	5	2	n/a	BOSS	152	0	4	n/a	n/a	n/a	n/a	n/a	n/a
3205843	RECOG_RESP	n/a	LTP249	ltpFR	5	2	n/a	BOSS	152	0	n/a	n/a	n/a	n/a	n/a	n/a	n/a
3206432	RECOG_CONF	n/a	LTP249	ltpFR	5	2	n/a	BOSS	152	n/a	4	n/a	n/a	n/a	n/a	n/a	n/a
3208066	RECOG_TARGET	n/a	LTP249	ltpFR	5	2	1	CONTAINER	366	0	3	0	n/a	n/a	n/a	n/a	n/a
3208971	RECOG_RESP	n/a	LTP249	ltpFR	5	2	1	CONTAINER	366	0	n/a	0	n/a	n/a	n/a	n/a	n/a
3209615	RECOG_CONF	n/a	LTP249	ltpFR	5	2	1	CONTAINER	366	n/a	3	0	n/a	n/a	n/a	n/a	n/a
3211345	RECOG_LURE	n/a	LTP249	ltpFR	5	2	n/a	CORN	381	0	2	n/a	n/a	n/a	n/a	n/a	n/a
3212254	RECOG_RESP	n/a	LTP249	ltpFR	5	2	n/a	CORN	381	0	n/a	n/a	n/a	n/a	n/a	n/a	n/a
3212887	RECOG_CONF	n/a	LTP249	ltpFR	5	2	n/a	CORN	381	n/a	2	n/a	n/a	n/a	n/a	n/a	n/a
3214458	RECOG_LURE	n/a	LTP249	ltpFR	5	2	n/a	WIRE	1616	0	1	n/a	n/a	n/a	n/a	n/a	n/a
3215337	RECOG_RESP	n/a	LTP249	ltpFR	5	2	n/a	WIRE	1616	0	n/a	n/a	n/a	n/a	n/a	n/a	n/a
3215920	RECOG_CONF	n/a	LTP249	ltpFR	5	2	n/a	WIRE	1616	n/a	1	n/a	n/a	n/a	n/a	n/a	n/a
3217652	RECOG_TARGET	n/a	LTP249	ltpFR	5	2	1	CUB	419	1	5	1	n/a	n/a	n/a	n/a	n/a
3218355	RECOG_RESP	n/a	LTP249	ltpFR	5	2	1	CUB	419	1	n/a	1	n/a	n/a	n/a	n/a	n/a
3218944	RECOG_CONF	n/a	LTP249	ltpFR	5	2	1	CUB	419	n/a	5	1	n/a	n/a	n/a	n/a	n/a
3220531	RECOG_TARGET	n/a	LTP249	ltpFR	5	2	0	LIZARD	834	1	5	0	n/a	n/a	n/a	n/a	n/a
3221024	RECOG_RESP	n/a	LTP249	ltpFR	5	2	0	LIZARD	834	1	n/a	0	n/a	n/a	n/a	n/a	n/a
3221618	RECOG_CONF	n/a	LTP249	ltpFR	5	2	0	LIZARD	834	n/a	5	0	n/a	n/a	n/a	n/a	n/a
3223243	RECOG_LURE	n/a	LTP249	ltpFR	5	2	n/a	STOMACH	1384	0	3	n/a	n/a	n/a	n/a	n/a	n/a
3224087	RECOG_RESP	n/a	LTP249	ltpFR	5	2	n/a	STOMACH	1384	0	n/a	n/a	n/a	n/a	n/a	n/a	n/a
3224760	RECOG_CONF	n/a	LTP249	ltpFR	5	2	n/a	STOMACH	1384	n/a	3	n/a	n/a	n/a	n/a	n/a	n/a
3226340	RECOG_TARGET	n/a	LTP249	ltpFR	5	2	1	LOFT	840	0	1	0	n/a	n/a	n/a	n/a	n/a
3227150	RECOG_RESP	n/a	LTP249	ltpFR	5	2	1	LOFT	840	0	n/a	0	n/a	n/a	n/a	n/a	n/a
3227754	RECOG_CONF	n/a	LTP249	ltpFR	5	2	1	LOFT	840	n/a	1	0	n/a	n/a	n/a	n/a	n/a
3229502	RECOG_TARGET	n/a	LTP249	ltpFR	5	2	1	ACROBAT	4	0	1	1	n/a	n/a	n/a	n/a	n/a
3230248	RECOG_RESP	n/a	LTP249	ltpFR	5	2	1	ACROBAT	4	0	n/a	1	n/a	n/a	n/a	n/a	n/a
3230797	RECOG_CONF	n/a	LTP249	ltpFR	5	2	1	ACROBAT	4	n/a	1	1	n/a	n/a	n/a	n/a	n/a
3232530	RECOG_LURE	n/a	LTP249	ltpFR	5	2	n/a	CASHEW	253	0	5	n/a	n/a	n/a	n/a	n/a	n/a
3233456	RECOG_RESP	n/a	LTP249	ltpFR	5	2	n/a	CASHEW	253	0	n/a	n/a	n/a	n/a	n/a	n/a	n/a
3234049	RECOG_CONF	n/a	LTP249	ltpFR	5	2	n/a	CASHEW	253	n/a	5	n/a	n/a	n/a	n/a	n/a	n/a
3235758	RECOG_TARGET	n/a	LTP249	ltpFR	5	2	-1	FOE	587	1	5	-1	n/a	n/a	n/a	n/a	n/a
3236424	RECOG_RESP	n/a	LTP249	ltpFR	5	2	-1	FOE	587	1	n/a	-1	n/a	n/a	n/a	n/a	n/a
3237003	RECOG_CONF	n/a	LTP249	ltpFR	5	2	-1	FOE	587	n/a	5	-1	n/a	n/a	n/a	n/a	n/a
3238637	RECOG_TARGET	n/a	LTP249	ltpFR	5	2	1	DART	440	1	2	0	n/a	n/a	n/a	n/a	n/a
3239402	RECOG_RESP	n/a	LTP249	ltpFR	5	2	1	DART	440	1	n/a	0	n/a	n/a	n/a	n/a	n/a
3240006	RECOG_CONF	n/a	LTP249	ltpFR	5	2	1	DART	440	n/a	2	0	n/a	n/a	n/a	n/a	n/a
3241616	RECOG_TARGET	n/a	LTP249	ltpFR	5	2	1	SOAP	1337	1	4	0	n/a	n/a	n/a	n/a	n/a
3242196	RECOG_RESP	n/a	LTP249	ltpFR	5	2	1	SOAP	1337	1	n/a	0	n/a	n/a	n/a	n/a	n/a
3242819	RECOG_CONF	n/a	LTP249	ltpFR	5	2	1	SOAP	1337	n/a	4	0	n/a	n/a	n/a	n/a	n/a
3244528	RECOG_TARGET	n/a	LTP249	ltpFR	5	2	-1	DOUGHNUT	490	1	3	-1	n/a	n/a	n/a	n/a	n/a
3245189	RECOG_RESP	n/a	LTP249	ltpFR	5	2	-1	DOUGHNUT	490	1	n/a	-1	n/a	n/a	n/a	n/a	n/a
3245783	RECOG_CONF	n/a	LTP249	ltpFR	5	2	-1	DOUGHNUT	490	n/a	3	-1	n/a	n/a	n/a	n/a	n/a
3247475	RECOG_TARGET	n/a	LTP249	ltpFR	5	2	1	BABY	64	1	5	1	n/a	n/a	n/a	n/a	n/a
3248132	RECOG_RESP	n/a	LTP249	ltpFR	5	2	1	BABY	64	1	n/a	1	n/a	n/a	n/a	n/a	n/a
3248656	RECOG_CONF	n/a	LTP249	ltpFR	5	2	1	BABY	64	n/a	5	1	n/a	n/a	n/a	n/a	n/a
3250203	RECOG_LURE	n/a	LTP249	ltpFR	5	2	n/a	MESSAGE	888	1	1	n/a	n/a	n/a	n/a	n/a	n/a
3251335	RECOG_RESP	n/a	LTP249	ltpFR	5	2	n/a	MESSAGE	888	1	n/a	n/a	n/a	n/a	n/a	n/a	n/a
3251959	RECOG_CONF	n/a	LTP249	ltpFR	5	2	n/a	MESSAGE	888	n/a	1	n/a	n/a	n/a	n/a	n/a	n/a
3253698	RECOG_LURE	n/a	LTP249	ltpFR	5	2	n/a	DILL	465	0	5	n/a	n/a	n/a	n/a	n/a	n/a
3254513	RECOG_RESP	n/a	LTP249	ltpFR	5	2	n/a	DILL	465	0	n/a	n/a	n/a	n/a	n/a	n/a	n/a
3255121	RECOG_CONF	n/a	LTP249	ltpFR	5	2	n/a	DILL	465	n/a	5	n/a	n/a	n/a	n/a	n/a	n/a
3264291	REC_START	n/a	LTP249	ltpFR	5	3	n/a	n/a	n/a	n/a	n/a	n/a	n/a	n/a	n/a	n/a	n/a
3264333	RECOG_LURE	n/a	LTP249	ltpFR	5	3	n/a	SCARECROW	1245	0	3	n/a	n/a	n/a	n/a	n/a	n/a
3265124	RECOG_RESP	n/a	LTP249	ltpFR	5	3	n/a	SCARECROW	1245	0	n/a	n/a	n/a	n/a	n/a	n/a	n/a
3265802	RECOG_CONF	n/a	LTP249	ltpFR	5	3	n/a	SCARECROW	1245	n/a	3	n/a	n/a	n/a	n/a	n/a	n/a
3267527	RECOG_LURE	n/a	LTP249	ltpFR	5	3	n/a	TRIBE	1505	0	5	n/a	n/a	n/a	n/a	n/a	n/a
3268202	RECOG_RESP	n/a	LTP249	ltpFR	5	3	n/a	TRIBE	1505	0	n/a	n/a	n/a	n/a	n/a	n/a	n/a
3268835	RECOG_CONF	n/a	LTP249	ltpFR	5	3	n/a	TRIBE	1505	n/a	5	n/a	n/a	n/a	n/a	n/a	n/a
3270441	RECOG_LURE	n/a	LTP249	ltpFR	5	3	n/a	COFFEE	341	0	5	n/a	n/a	n/a	n/a	n/a	n/a
3271185	RECOG_RESP	n/a	LTP249	ltpFR	5	3	n/a	COFFEE	341	0	n/a	n/a	n/a	n/a	n/a	n/a	n/a
3271839	RECOG_CONF	n/a	LTP249	ltpFR	5	3	n/a	COFFEE	341	n/a	5	n/a	n/a	n/a	n/a	n/a	n/a
3273419	RECOG_TARGET	n/a	LTP249	ltpFR	5	3	-1	GUEST	669	1	5	-1	n/a	n/a	n/a	n/a	n/a
3274218	RECOG_RESP	n/a	LTP249	ltpFR	5	3	-1	GUEST	669	1	n/a	-1	n/a	n/a	n/a	n/a	n/a
3274892	RECOG_CONF	n/a	LTP249	ltpFR	5	3	-1	GUEST	669	n/a	5	-1	n/a	n/a	n/a	n/a	n/a
3276415	RECOG_TARGET	n/a	LTP249	ltpFR	5	3	0	STREAM	1392	1	4	1	n/a	n/a	n/a	n/a	n/a
3277097	RECOG_RESP	n/a	LTP249	ltpFR	5	3	0	STREAM	1392	1	n/a	1	n/a	n/a	n/a	n/a	n/a
3277755	RECOG_CONF	n/a	LTP249	ltpFR	5	3	0	STREAM	1392	n/a	4	1	n/a	n/a	n/a	n/a	n/a
3279344	RECOG_LURE	n/a	LTP249	ltpFR	5	3	n/a	RUST	1219	1	1	n/a	n/a	n/a	n/a	n/a	n/a
3280255	RECOG_RESP	n/a	LTP249	ltpFR	5	3	n/a	RUST	1219	1	n/a	n/a	n/a	n/a	n/a	n/a	n/a
3281038	RECOG_CONF	n/a	LTP249	ltpFR	5	3	n/a	RUST	1219	n/a	1	n/a	n/a	n/a	n/a	n/a	n/a
3282555	RECOG_LURE	n/a	LTP249	ltpFR	5	3	n/a	COUSIN	392	0	1	n/a	n/a	n/a	n/a	n/a	n/a
3283422	RECOG_RESP	n/a	LTP249	ltpFR	5	3	n/a	COUSIN	392	0	n/a	n/a	n/a	n/a	n/a	n/a	n/a
3284041	RECOG_CONF	n/a	LTP249	ltpFR	5	3	n/a	COUSIN	392	n/a	1	n/a	n/a	n/a	n/a	n/a	n/a
3285600	RECOG_LURE	n/a	LTP249	ltpFR	5	3	n/a	OINTMENT	974	0	5	n/a	n/a	n/a	n/a	n/a	n/a
3286371	RECOG_RESP	n/a	LTP249	ltpFR	5	3	n/a	OINTMENT	974	0	n/a	n/a	n/a	n/a	n/a	n/a	n/a
3287034	RECOG_CONF	n/a	LTP249	ltpFR	5	3	n/a	OINTMENT	974	n/a	5	n/a	n/a	n/a	n/a	n/a	n/a
3288779	RECOG_LURE	n/a	LTP249	ltpFR	5	3	n/a	WALNUT	1584	0	5	n/a	n/a	n/a	n/a	n/a	n/a
3289663	RECOG_RESP	n/a	LTP249	ltpFR	5	3	n/a	WALNUT	1584	0	n/a	n/a	n/a	n/a	n/a	n/a	n/a
3290297	RECOG_CONF	n/a	LTP249	ltpFR	5	3	n/a	WALNUT	1584	n/a	5	n/a	n/a	n/a	n/a	n/a	n/a
3291941	RECOG_LURE	n/a	LTP249	ltpFR	5	3	n/a	TUTU	1524	0	1	n/a	n/a	n/a	n/a	n/a	n/a
3292626	RECOG_RESP	n/a	LTP249	ltpFR	5	3	n/a	TUTU	1524	0	n/a	n/a	n/a	n/a	n/a	n/a	n/a
3293280	RECOG_CONF	n/a	LTP249	ltpFR	5	3	n/a	TUTU	1524	n/a	1	n/a	n/a	n/a	n/a	n/a	n/a
3294836	RECOG_LURE	n/a	LTP249	ltpFR	5	3	n/a	PROTRACTOR	1133	0	5	n/a	n/a	n/a	n/a	n/a	n/a
3295754	RECOG_RESP	n/a	LTP249	ltpFR	5	3	n/a	PROTRACTOR	1133	0	n/a	n/a	n/a	n/a	n/a	n/a	n/a
3296413	RECOG_CONF	n/a	LTP249	ltpFR	5	3	n/a	PROTRACTOR	1133	n/a	5	n/a	n/a	n/a	n/a	n/a	n/a
3297998	RECOG_LURE	n/a	LTP249	ltpFR	5	3	n/a	BRIDGE	174	1	2	n/a	n/a	n/a	n/a	n/a	n/a
3299030	RECOG_RESP	n/a	LTP249	ltpFR	5	3	n/a	BRIDGE	174	1	n/a	n/a	n/a	n/a	n/a	n/a	n/a
3299685	RECOG_CONF	n/a	LTP249	ltpFR	5	3	n/a	BRIDGE	174	n/a	2	n/a	n/a	n/a	n/a	n/a	n/a
3301344	RECOG_TARGET	n/a	LTP249	ltpFR	5	3	0	FLIPPER	580	1	4	0	n/a	n/a	n/a	n/a	n/a
3302035	RECOG_RESP	n/a	LTP249	ltpFR	5	3	0	FLIPPER	580	1	n/a	0	n/a	n/a	n/a	n/a	n/a
3302728	RECOG_CONF	n/a	LTP249	ltpFR	5	3	0	FLIPPER	580	n/a	4	0	n/a	n/a	n/a	n/a	n/a
3304406	RECOG_LURE	n/a	LTP249	ltpFR	5	3	n/a	STAPLER	1372	0	1	n/a	n/a	n/a	n/a	n/a	n/a
3305602	RECOG_RESP	n/a	LTP249	ltpFR	5	3	n/a	STAPLER	1372	0	n/a	n/a	n/a	n/a	n/a	n/a	n/a
3306221	RECOG_CONF	n/a	LTP249	ltpFR	5	3	n/a	STAPLER	1372	n/a	1	n/a	n/a	n/a	n/a	n/a	n/a
3307850	RECOG_TARGET	n/a	LTP249	ltpFR	5	3	0	PATH	1023	0	1	1	n/a	n/a	n/a	n/a	n/a
3308705	RECOG_RESP	n/a	LTP249	ltpFR	5	3	0	PATH	1023	0	n/a	1	n/a	n/a	n/a	n/a	n/a
3309353	RECOG_CONF	n/a	LTP249	ltpFR	5	3	0	PATH	1023	n/a	1	1	n/a	n/a	n/a	n/a	n/a
3310996	RECOG_LURE	n/a	LTP249	ltpFR	5	3	n/a	MARS	873	0	5	n/a	n/a	n/a	n/a	n/a	n/a
3311868	RECOG_RESP	n/a	LTP249	ltpFR	5	3	n/a	MARS	873	0	n/a	n/a	n/a	n/a	n/a	n/a	n/a
3312536	RECOG_CONF	n/a	LTP249	ltpFR	5	3	n/a	MARS	873	n/a	5	n/a	n/a	n/a	n/a	n/a	n/a
3314074	RECOG_TARGET	n/a	LTP249	ltpFR	5	3	1	SWAN	1417	1	4	1	n/a	n/a	n/a	n/a	n/a
3314816	RECOG_RESP	n/a	LTP249	ltpFR	5	3	1	SWAN	1417	1	n/a	1	n/a	n/a	n/a	n/a	n/a
3315489	RECOG_CONF	n/a	LTP249	ltpFR	5	3	1	SWAN	1417	n/a	4	1	n/a	n/a	n/a	n/a	n/a
3316987	RECOG_TARGET	n/a	LTP249	ltpFR	5	3	0	COMEDIAN	352	0	1	1	n/a	n/a	n/a	n/a	n/a
3318193	RECOG_RESP	n/a	LTP249	ltpFR	5	3	0	COMEDIAN	352	0	n/a	1	n/a	n/a	n/a	n/a	n/a
3318802	RECOG_CONF	n/a	LTP249	ltpFR	5	3	0	COMEDIAN	352	n/a	1	1	n/a	n/a	n/a	n/a	n/a
3320515	RECOG_TARGET	n/a	LTP249	ltpFR	5	3	1	BUFFALO	186	1	5	1	n/a	n/a	n/a	n/a	n/a
3321286	RECOG_RESP	n/a	LTP249	ltpFR	5	3	1	BUFFALO	186	1	n/a	1	n/a	n/a	n/a	n/a	n/a
3321915	RECOG_CONF	n/a	LTP249	ltpFR	5	3	1	BUFFALO	186	n/a	5	1	n/a	n/a	n/a	n/a	n/a
3323527	RECOG_LURE	n/a	LTP249	ltpFR	5	3	n/a	COOKIE	374	0	1	n/a	n/a	n/a	n/a	n/a	n/a
3324579	RECOG_RESP	n/a	LTP249	ltpFR	5	3	n/a	COOKIE	374	0	n/a	n/a	n/a	n/a	n/a	n/a	n/a
3325148	RECOG_CONF	n/a	LTP249	ltpFR	5	3	n/a	COOKIE	374	n/a	1	n/a	n/a	n/a	n/a	n/a	n/a
3339858	REC_START	n/a	LTP249	ltpFR	5	4	n/a	n/a	n/a	n/a	n/a	n/a	n/a	n/a	n/a	n/a	n/a
3339886	RECOG_LURE	n/a	LTP249	ltpFR	5	4	n/a	MONARCH	906	0	5	n/a	n/a	n/a	n/a	n/a	n/a
3340786	RECOG_RESP	n/a	LTP249	ltpFR	5	4	n/a	MONARCH	906	0	n/a	n/a	n/a	n/a	n/a	n/a	n/a
3341429	RECOG_CONF	n/a	LTP249	ltpFR	5	4	n/a	MONARCH	906	n/a	5	n/a	n/a	n/a	n/a	n/a	n/a
3342965	RECOG_LURE	n/a	LTP249	ltpFR	5	4	n/a	ELBOW	520	0	5	n/a	n/a	n/a	n/a	n/a	n/a
3343824	RECOG_RESP	n/a	LTP249	ltpFR	5	4	n/a	ELBOW	520	0	n/a	n/a	n/a	n/a	n/a	n/a	n/a
3344472	RECOG_CONF	n/a	LTP249	ltpFR	5	4	n/a	ELBOW	520	n/a	5	n/a	n/a	n/a	n/a	n/a	n/a
3346210	RECOG_LURE	n/a	LTP249	ltpFR	5	4	n/a	VEGETABLE	1552	0	4	n/a	n/a	n/a	n/a	n/a	n/a
3347406	RECOG_RESP	n/a	LTP249	ltpFR	5	4	n/a	VEGETABLE	1552	0	n/a	n/a	n/a	n/a	n/a	n/a	n/a
3348024	RECOG_CONF	n/a	LTP249	ltpFR	5	4	n/a	VEGETABLE	1552	n/a	4	n/a	n/a	n/a	n/a	n/a	n/a
3349721	RECOG_TARGET	n/a	LTP249	ltpFR	5	4	-1	SIDEWALK	1303	1	3	-1	n/a	n/a	n/a	n/a	n/a
3350474	RECOG_RESP	n/a	LTP249	ltpFR	5	4	-1	SIDEWALK	1303	1	n/a	-1	n/a	n/a	n/a	n/a	n/a
3351187	RECOG_CONF	n/a	LTP249	ltpFR	5	4	-1	SIDEWALK	1303	n/a	3	-1	n/a	n/a	n/a	n/a	n/a
3352817	RECOG_TARGET	n/a	LTP249	ltpFR	5	4	0	SERVANT	1271	0	2	1	n/a	n/a	n/a	n/a	n/a
3353587	RECOG_RESP	n/a	LTP249	ltpFR	5	4	0	SERVANT	1271	0	n/a	1	n/a	n/a	n/a	n/a	n/a
3354210	RECOG_CONF	n/a	LTP249	ltpFR	5	4	0	SERVANT	1271	n/a	2	1	n/a	n/a	n/a	n/a	n/a
3355879	RECOG_TARGET	n/a	LTP249	ltpFR	5	4	1	MOLECULE	905	1	4	0	n/a	n/a	n/a	n/a	n/a
3356590	RECOG_RESP	n/a	LTP249	ltpFR	5	4	1	MOLECULE	905	1	n/a	0	n/a	n/a	n/a	n/a	n/a
3357203	RECOG_CONF	n/a	LTP249	ltpFR	5	4	1	MOLECULE	905	n/a	4	0	n/a	n/a	n/a	n/a	n/a
3358824	RECOG_TARGET	n/a	LTP249	ltpFR	5	4	1	SCENERY	1247	1	5	0	n/a	n/a	n/a	n/a	n/a
3359603	RECOG_RESP	n/a	LTP249	ltpFR	5	4	1	SCENERY	1247	1	n/a	0	n/a	n/a	n/a	n/a	n/a
3360227	RECOG_CONF	n/a	LTP249	ltpFR	5	4	1	SCENERY	1247	n/a	5	0	n/a	n/a	n/a	n/a	n/a
3361870	RECOG_TARGET	n/a	LTP249	ltpFR	5	4	0	HAY	693	1	5	3	n/a	n/a	n/a	n/a	n/a
3362566	RECOG_RESP	n/a	LTP249	ltpFR	5	4	0	HAY	693	1	n/a	3	n/a	n/a	n/a	n/a	n/a
3363200	RECOG_CONF	n/a	LTP249	ltpFR	5	4	0	HAY	693	n/a	5	3	n/a	n/a	n/a	n/a	n/a
3364765	RECOG_TARGET	n/a	LTP249	ltpFR	5	4	-1	CUFF	423	0	1	-1	n/a	n/a	n/a	n/a	n/a
3365584	RECOG_RESP	n/a	LTP249	ltpFR	5	4	-1	CUFF	423	0	n/a	-1	n/a	n/a	n/a	n/a	n/a
3366203	RECOG_CONF	n/a	LTP249	ltpFR	5	4	-1	CUFF	423	n/a	1	-1	n/a	n/a	n/a	n/a	n/a
3367877	RECOG_TARGET	n/a	LTP249	ltpFR	5	4	0	THIMBLE	1458	1	5	0	n/a	n/a	n/a	n/a	n/a
3368518	RECOG_RESP	n/a	LTP249	ltpFR	5	4	0	THIMBLE	1458	1	n/a	0	n/a	n/a	n/a	n/a	n/a
3369136	RECOG_CONF	n/a	LTP249	ltpFR	5	4	0	THIMBLE	1458	n/a	5	0	n/a	n/a	n/a	n/a	n/a
3370756	RECOG_LURE	n/a	LTP249	ltpFR	5	4	n/a	NAIL	936	1	3	n/a	n/a	n/a	n/a	n/a	n/a
3371755	RECOG_RESP	n/a	LTP249	ltpFR	5	4	n/a	NAIL	936	1	n/a	n/a	n/a	n/a	n/a	n/a	n/a
3372399	RECOG_CONF	n/a	LTP249	ltpFR	5	4	n/a	NAIL	936	n/a	3	n/a	n/a	n/a	n/a	n/a	n/a
3374035	RECOG_TARGET	n/a	LTP249	ltpFR	5	4	0	SQUIRREL	1362	1	5	0	n/a	n/a	n/a	n/a	n/a
3374684	RECOG_RESP	n/a	LTP249	ltpFR	5	4	0	SQUIRREL	1362	1	n/a	0	n/a	n/a	n/a	n/a	n/a
3375322	RECOG_CONF	n/a	LTP249	ltpFR	5	4	0	SQUIRREL	1362	n/a	5	0	n/a	n/a	n/a	n/a	n/a
3377030	RECOG_LURE	n/a	LTP249	ltpFR	5	4	n/a	RACCOON	1153	0	4	n/a	n/a	n/a	n/a	n/a	n/a
3378016	RECOG_RESP	n/a	LTP249	ltpFR	5	4	n/a	RACCOON	1153	0	n/a	n/a	n/a	n/a	n/a	n/a	n/a
3378605	RECOG_CONF	n/a	LTP249	ltpFR	5	4	n/a	RACCOON	1153	n/a	4	n/a	n/a	n/a	n/a	n/a	n/a
3380209	RECOG_LURE	n/a	LTP249	ltpFR	5	4	n/a	CANDY	230	1	1	n/a	n/a	n/a	n/a	n/a	n/a
3381109	RECOG_RESP	n/a	LTP249	ltpFR	5	4	n/a	CANDY	230	1	n/a	n/a	n/a	n/a	n/a	n/a	n/a
3381748	RECOG_CONF	n/a	LTP249	ltpFR	5	4	n/a	CANDY	230	n/a	1	n/a	n/a	n/a	n/a	n/a	n/a
3383322	RECOG_TARGET	n/a	LTP249	ltpFR	5	4	0	GLACIER	638	1	4	1	n/a	n/a	n/a	n/a	n/a
3384027	RECOG_RESP	n/a	LTP249	ltpFR	5	4	0	GLACIER	638	1	n/a	1	n/a	n/a	n/a	n/a	n/a
3384661	RECOG_CONF	n/a	LTP249	ltpFR	5	4	0	GLACIER	638	n/a	4	1	n/a	n/a	n/a	n/a	n/a
3386318	RECOG_LURE	n/a	LTP249	ltpFR	5	4	n/a	REFEREE	1178	0	1	n/a	n/a	n/a	n/a	n/a	n/a
3387385	RECOG_RESP	n/a	LTP249	ltpFR	5	4	n/a	REFEREE	1178	0	n/a	n/a	n/a	n/a	n/a	n/a	n/a
3388043	RECOG_CONF	n/a	LTP249	ltpFR	5	4	n/a	REFEREE	1178	n/a	1	n/a	n/a	n/a	n/a	n/a	n/a
3389711	RECOG_TARGET	n/a	LTP249	ltpFR	5	4	0	MOUNTAIN	924	1	5	1	n/a	n/a	n/a	n/a	n/a
3390348	RECOG_RESP	n/a	LTP249	ltpFR	5	4	0	MOUNTAIN	924	1	n/a	1	n/a	n/a	n/a	n/a	n/a
3390917	RECOG_CONF	n/a	LTP249	ltpFR	5	4	0	MOUNTAIN	924	n/a	5	1	n/a	n/a	n/a	n/a	n/a
3392492	RECOG_LURE	n/a	LTP249	ltpFR	5	4	n/a	DINOSAUR	469	0	5	n/a	n/a	n/a	n/a	n/a	n/a
3393222	RECOG_RESP	n/a	LTP249	ltpFR	5	4	n/a	DINOSAUR	469	0	n/a	n/a	n/a	n/a	n/a	n/a	n/a
3393830	RECOG_CONF	n/a	LTP249	ltpFR	5	4	n/a	DINOSAUR	469	n/a	5	n/a	n/a	n/a	n/a	n/a	n/a
3395404	RECOG_LURE	n/a	LTP249	ltpFR	5	4	n/a	LUGGAGE	847	1	1	n/a	n/a	n/a	n/a	n/a	n/a
3396290	RECOG_RESP	n/a	LTP249	ltpFR	5	4	n/a	LUGGAGE	847	1	n/a	n/a	n/a	n/a	n/a	n/a	n/a
3396893	RECOG_CONF	n/a	LTP249	ltpFR	5	4	n/a	LUGGAGE	847	n/a	1	n/a	n/a	n/a	n/a	n/a	n/a
3398615	RECOG_TARGET	n/a	LTP249	ltpFR	5	4	1	SENATE	1267	1	5	0	n/a	n/a	n/a	n/a	n/a
3399263	RECOG_RESP	n/a	LTP249	ltpFR	5	4	1	SENATE	1267	1	n/a	0	n/a	n/a	n/a	n/a	n/a
3399936	RECOG_CONF	n/a	LTP249	ltpFR	5	4	1	SENATE	1267	n/a	5	0	n/a	n/a	n/a	n/a	n/a
3412409	REC_START	n/a	LTP249	ltpFR	5	5	n/a	n/a	n/a	n/a	n/a	n/a	n/a	n/a	n/a	n/a	n/a
3412445	RECOG_TARGET	n/a	LTP249	ltpFR	5	5	1	SHORTCAKE	1292	1	1	0	n/a	n/a	n/a	n/a	n/a
3413202	RECOG_RESP	n/a	LTP249	ltpFR	5	5	1	SHORTCAKE	1292	1	n/a	0	n/a	n/a	n/a	n/a	n/a
3413821	RECOG_CONF	n/a	LTP249	ltpFR	5	5	1	SHORTCAKE	1292	n/a	1	0	n/a	n/a	n/a	n/a	n/a
3415391	RECOG_LURE	n/a	LTP249	ltpFR	5	5	n/a	KID	775	0	3	n/a	n/a	n/a	n/a	n/a	n/a
3416330	RECOG_RESP	n/a	LTP249	ltpFR	5	5	n/a	KID	775	0	n/a	n/a	n/a	n/a	n/a	n/a	n/a
3416983	RECOG_CONF	n/a	LTP249	ltpFR	5	5	n/a	KID	775	n/a	3	n/a	n/a	n/a	n/a	n/a	n/a
3418635	RECOG_LURE	n/a	LTP249	ltpFR	5	5	n/a	BUTTER	205	1	1	n/a	n/a	n/a	n/a	n/a	n/a
3419393	RECOG_RESP	n/a	LTP249	ltpFR	5	5	n/a	BUTTER	205	1	n/a	n/a	n/a	n/a	n/a	n/a	n/a
3420036	RECOG_CONF	n/a	LTP249	ltpFR	5	5	n/a	BUTTER	205	n/a	1	n/a	n/a	n/a	n/a	n/a	n/a
3421780	RECOG_LURE	n/a	LTP249	ltpFR	5	5	n/a	SUIT	1402	0	4	n/a	n/a	n/a	n/a	n/a	n/a
3422636	RECOG_RESP	n/a	LTP249	ltpFR	5	5	n/a	SUIT	1402	0	n/a	n/a	n/a	n/a	n/a	n/a	n/a
3423329	RECOG_CONF	n/a	LTP249	ltpFR	5	5	n/a	SUIT	1402	n/a	4	n/a	n/a	n/a	n/a	n/a	n/a
3424876	RECOG_TARGET	n/a	LTP249	ltpFR	5	5	1	CONE	363	1	5	0	n/a	n/a	n/a	n/a	n/a
3425604	RECOG_RESP	n/a	LTP249	ltpFR	5	5	1	CONE	363	1	n/a	0	n/a	n/a	n/a	n/a	n/a
3426222	RECOG_CONF	n/a	LTP249	ltpFR	5	5	1	CONE	363	n/a	5	0	n/a	n/a	n/a	n/a	n/a
3427788	RECOG_LURE	n/a	LTP249	ltpFR	5	5	n/a	CREAM	402	1	2	n/a	n/a	n/a	n/a	n/a	n/a
3428677	RECOG_RESP	n/a	LTP249	ltpFR	5	5	n/a	CREAM	402	1	n/a	n/a	n/a	n/a	n/a	n/a	n/a
3429295	RECOG_CONF	n/a	LTP249	ltpFR	5	5	n/a	CREAM	402	n/a	2	n/a	n/a	n/a	n/a	n/a	n/a
3430867	RECOG_TARGET	n/a	LTP249	ltpFR	5	5	-1	CARDINAL	244	1	5	-1	n/a	n/a	n/a	n/a	n/a
3431540	RECOG_RESP	n/a	LTP249	ltpFR	5	5	-1	CARDINAL	244	1	n/a	-1	n/a	n/a	n/a	n/a	n/a
3432169	RECOG_CONF	n/a	LTP249	ltpFR	5	5	-1	CARDINAL	244	n/a	5	-1	n/a	n/a	n/a	n/a	n/a
3433779	RECOG_LURE	n/a	LTP249	ltpFR	5	5	n/a	WINNER	1615	0	1	n/a	n/a	n/a	n/a	n/a	n/a
3434404	RECOG_RESP	n/a	LTP249	ltpFR	5	5	n/a	WINNER	1615	0	n/a	n/a	n/a	n/a	n/a	n/a	n/a
3435022	RECOG_CONF	n/a	LTP249	ltpFR	5	5	n/a	WINNER	1615	n/a	1	n/a	n/a	n/a	n/a	n/a	n/a
3436708	RECOG_LURE	n/a	LTP249	ltpFR	5	5	n/a	PIGMENT	1066	0	3	n/a	n/a	n/a	n/a	n/a	n/a
3437487	RECOG_RESP	n/a	LTP249	ltpFR	5	5	n/a	PIGMENT	1066	0	n/a	n/a	n/a	n/a	n/a	n/a	n/a
3438145	RECOG_CONF	n/a	LTP249	ltpFR	5	5	n/a	PIGMENT	1066	n/a	3	n/a	n/a	n/a	n/a	n/a	n/a
3439753	RECOG_TARGET	n/a	LTP249	ltpFR	5	5	0	CENT	270	1	4	0	n/a	n/a	n/a	n/a	n/a
3440335	RECOG_RESP	n/a	LTP249	ltpFR	5	5	0	CENT	270	1	n/a	0	n/a	n/a	n/a	n/a	n/a
3440969	RECOG_CONF	n/a	LTP249	ltpFR	5	5	0	CENT	270	n/a	4	0	n/a	n/a	n/a	n/a	n/a
3442484	RECOG_LURE	n/a	LTP249	ltpFR	5	5	n/a	BUTTON	207	0	1	n/a	n/a	n/a	n/a	n/a	n/a
3443294	RECOG_RESP	n/a	LTP249	ltpFR	5	5	n/a	BUTTON	207	0	n/a	n/a	n/a	n/a	n/a	n/a	n/a
3443872	RECOG_CONF	n/a	LTP249	ltpFR	5	5	n/a	BUTTON	207	n/a	1	n/a	n/a	n/a	n/a	n/a	n/a
3445463	RECOG_TARGET	n/a	LTP249	ltpFR	5	5	0	TROUT	1511	1	5	0	n/a	n/a	n/a	n/a	n/a
3446087	RECOG_RESP	n/a	LTP249	ltpFR	5	5	0	TROUT	1511	1	n/a	0	n/a	n/a	n/a	n/a	n/a
3446726	RECOG_CONF	n/a	LTP249	ltpFR	5	5	0	TROUT	1511	n/a	5	0	n/a	n/a	n/a	n/a	n/a
3448275	RECOG_TARGET	n/a	LTP249	ltpFR	5	5	0	VALLEY	1545	1	5	1	n/a	n/a	n/a	n/a	n/a
3448856	RECOG_RESP	n/a	LTP249	ltpFR	5	5	0	VALLEY	1545	1	n/a	1	n/a	n/a	n/a	n/a	n/a
3449559	RECOG_CONF	n/a	LTP249	ltpFR	5	5	0	VALLEY	1545	n/a	5	1	n/a	n/a	n/a	n/a	n/a
3451136	RECOG_TARGET	n/a	LTP249	ltpFR	5	5	-1	FAMILY	550	1	3	-1	n/a	n/a	n/a	n/a	n/a
3452253	RECOG_RESP	n/a	LTP249	ltpFR	5	5	-1	FAMILY	550	1	n/a	-1	n/a	n/a	n/a	n/a	n/a
3452912	RECOG_CONF	n/a	LTP249	ltpFR	5	5	-1	FAMILY	550	n/a	3	-1	n/a	n/a	n/a	n/a	n/a
3454531	RECOG_TARGET	n/a	LTP249	ltpFR	5	5	0	HAMBURGER	679	1	2	0	n/a	n/a	n/a	n/a	n/a
3455172	RECOG_RESP	n/a	LTP249	ltpFR	5	5	0	HAMBURGER	679	1	n/a	0	n/a	n/a	n/a	n/a	n/a
3455795	RECOG_CONF	n/a	LTP249	ltpFR	5	5	0	HAMBURGER	679	n/a	2	0	n/a	n/a	n/a	n/a	n/a
3457428	RECOG_LURE	n/a	LTP249	ltpFR	5	5	n/a	HEATER	698	0	4	n/a	n/a	n/a	n/a	n/a	n/a
3458190	RECOG_RESP	n/a	LTP249	ltpFR	5	5	n/a	HEATER	698	0	n/a	n/a	n/a	n/a	n/a	n/a	n/a
3458838	RECOG_CONF	n/a	LTP249	ltpFR	5	5	n/a	HEATER	698	n/a	4	n/a	n/a	n/a	n/a	n/a	n/a
3460357	RECOG_LURE	n/a	LTP249	ltpFR	5	5	n/a	ARCHITECT	36	0	1	n/a	n/a	n/a	n/a	n/a	n/a
3461138	RECOG_RESP	n/a	LTP249	ltpFR	5	5	n/a	ARCHITECT	36	0	n/a	n/a	n/a	n/a	n/a	n/a	n/a
3461702	RECOG_CONF	n/a	LTP249	ltpFR	5	5	n/a	ARCHITECT	36	n/a	1	n/a	n/a	n/a	n/a	n/a	n/a
3463419	RECOG_LURE	n/a	LTP249	ltpFR	5	5	n/a	TOENAIL	1474	0	2	n/a	n/a	n/a	n/a	n/a	n/a
3464081	RECOG_RESP	n/a	LTP249	ltpFR	5	5	n/a	TOENAIL	1474	0	n/a	n/a	n/a	n/a	n/a	n/a	n/a
3464695	RECOG_CONF	n/a	LTP249	ltpFR	5	5	n/a	TOENAIL	1474	n/a	2	n/a	n/a	n/a	n/a	n/a	n/a
3466247	RECOG_LURE	n/a	LTP249	ltpFR	5	5	n/a	OUTFIT	988	1	4	n/a	n/a	n/a	n/a	n/a	n/a
3466975	RECOG_RESP	n/a	LTP249	ltpFR	5	5	n/a	OUTFIT	988	1	n/a	n/a	n/a	n/a	n/a	n/a	n/a
3467698	RECOG_CONF	n/a	LTP249	ltpFR	5	5	n/a	OUTFIT	988	n/a	4	n/a	n/a	n/a	n/a	n/a	n/a
3469209	RECOG_TARGET	n/a	LTP249	ltpFR	5	5	-1	SPATULA	1348	1	5	-1	n/a	n/a	n/a	n/a	n/a
3470003	RECOG_RESP	n/a	LTP249	ltpFR	5	5	-1	SPATULA	1348	1	n/a	-1	n/a	n/a	n/a	n/a	n/a
3470641	RECOG_CONF	n/a	LTP249	ltpFR	5	5	-1	SPATULA	1348	n/a	5	-1	n/a	n/a	n/a	n/a	n/a
3484554	REC_START	n/a	LTP249	ltpFR	5	6	n/a	n/a	n/a	n/a	n/a	n/a	n/a	n/a	n/a	n/a	n/a
3484586	RECOG_TARGET	n/a	LTP249	ltpFR	5	6	1	SHEPHERD	1283	1	4	1	n/a	n/a	n/a	n/a	n/a
3485262	RECOG_RESP	n/a	LTP249	ltpFR	5	6	1	SHEPHERD	1283	1	n/a	1	n/a	n/a	n/a	n/a	n/a
3485876	RECOG_CONF	n/a	LTP249	ltpFR	5	6	1	SHEPHERD	1283	n/a	4	1	n/a	n/a	n/a	n/a	n/a
3487582	RECOG_TARGET	n/a	LTP249	ltpFR	5	6	0	PELICAN	1039	0	4	1	n/a	n/a	n/a	n/a	n/a
3488335	RECOG_RESP	n/a	LTP249	ltpFR	5	6	0	PELICAN	1039	0	n/a	1	n/a	n/a	n/a	n/a	n/a
3489009	RECOG_CONF	n/a	LTP249	ltpFR	5	6	0	PELICAN	1039	n/a	4	1	n/a	n/a	n/a	n/a	n/a
3490578	RECOG_LURE	n/a	LTP249	ltpFR	5	6	n/a	CALENDAR	221	0	3	n/a	n/a	n/a	n/a	n/a	n/a
3491398	RECOG_RESP	n/a	LTP249	ltpFR	5	6	n/a	CALENDAR	221	0	n/a	n/a	n/a	n/a	n/a	n/a	n/a
3492012	RECOG_CONF	n/a	LTP249	ltpFR	5	6	n/a	CALENDAR	221	n/a	3	n/a	n/a	n/a	n/a	n/a	n/a
3493723	RECOG_TARGET	n/a	LTP249	ltpFR	5	6	-1	BROCCOLI	176	1	5	-1	n/a	n/a	n/a	n/a	n/a
3494332	RECOG_RESP	n/a	LTP249	ltpFR	5	6	-1	BROCCOLI	176	1	n/a	-1	n/a	n/a	n/a	n/a	n/a
3494965	RECOG_CONF	n/a	LTP249	ltpFR	5	6	-1	BROCCOLI	176	n/a	5	-1	n/a	n/a	n/a	n/a	n/a
3496535	RECOG_LURE	n/a	LTP249	ltpFR	5	6	n/a	FAUCET	555	1	2	n/a	n/a	n/a	n/a	n/a	n/a
3497445	RECOG_RESP	n/a	LTP249	ltpFR	5	6	n/a	FAUCET	555	1	n/a	n/a	n/a	n/a	n/a	n/a	n/a
3498108	RECOG_CONF	n/a	LTP249	ltpFR	5	6	n/a	FAUCET	555	n/a	2	n/a	n/a	n/a	n/a	n/a	n/a
3499747	RECOG_LURE	n/a	LTP249	ltpFR	5	6	n/a	ELECTRON	522	0	4	n/a	n/a	n/a	n/a	n/a	n/a
3500557	RECOG_RESP	n/a	LTP249	ltpFR	5	6	n/a	ELECTRON	522	0	n/a	n/a	n/a	n/a	n/a	n/a	n/a
3501241	RECOG_CONF	n/a	LTP249	ltpFR	5	6	n/a	ELECTRON	522	n/a	4	n/a	n/a	n/a	n/a	n/a	n/a
3502759	RECOG_LURE	n/a	LTP249	ltpFR	5	6	n/a	BANJO	82	0	5	n/a	n/a	n/a	n/a	n/a	n/a
3503610	RECOG_RESP	n/a	LTP249	ltpFR	5	6	n/a	BANJO	82	0	n/a	n/a	n/a	n/a	n/a	n/a	n/a
3504234	RECOG_CONF	n/a	LTP249	ltpFR	5	6	n/a	BANJO	82	n/a	5	n/a	n/a	n/a	n/a	n/a	n/a
3505805	RECOG_LURE	n/a	LTP249	ltpFR	5	6	n/a	SHELTER	1282	0	1	n/a	n/a	n/a	n/a	n/a	n/a
3506773	RECOG_RESP	n/a	LTP249	ltpFR	5	6	n/a	SHELTER	1282	0	n/a	n/a	n/a	n/a	n/a	n/a	n/a
3507387	RECOG_CONF	n/a	LTP249	ltpFR	5	6	n/a	SHELTER	1282	n/a	1	n/a	n/a	n/a	n/a	n/a	n/a
3509067	RECOG_LURE	n/a	LTP249	ltpFR	5	6	n/a	ATOM	55	0	4	n/a	n/a	n/a	n/a	n/a	n/a
3509682	RECOG_RESP	n/a	LTP249	ltpFR	5	6	n/a	ATOM	55	0	n/a	n/a	n/a	n/a	n/a	n/a	n/a
3510350	RECOG_CONF	n/a	LTP249	ltpFR	5	6	n/a	ATOM	55	n/a	4	n/a	n/a	n/a	n/a	n/a	n/a
3511996	RECOG_LURE	n/a	LTP249	ltpFR	5	6	n/a	LIMB	822	1	2	n/a	n/a	n/a	n/a	n/a	n/a
3513104	RECOG_RESP	n/a	LTP249	ltpFR	5	6	n/a	LIMB	822	1	n/a	n/a	n/a	n/a	n/a	n/a	n/a
3513713	RECOG_CONF	n/a	LTP249	ltpFR	5	6	n/a	LIMB	822	n/a	2	n/a	n/a	n/a	n/a	n/a	n/a
3515425	RECOG_TARGET	n/a	LTP249	ltpFR	5	6	1	PENGUIN	1044	1	5	1	n/a	n/a	n/a	n/a	n/a
3516127	RECOG_RESP	n/a	LTP249	ltpFR	5	6	1	PENGUIN	1044	1	n/a	1	n/a	n/a	n/a	n/a	n/a
3516736	RECOG_CONF	n/a	LTP249	ltpFR	5	6	1	PENGUIN	1044	n/a	5	1	n/a	n/a	n/a	n/a	n/a
3518270	RECOG_LURE	n/a	LTP249	ltpFR	5	6	n/a	BRUISE	180	0	5	n/a	n/a	n/a	n/a	n/a	n/a
3519135	RECOG_RESP	n/a	LTP249	ltpFR	5	6	n/a	BRUISE	180	0	n/a	n/a	n/a	n/a	n/a	n/a	n/a
3519769	RECOG_CONF	n/a	LTP249	ltpFR	5	6	n/a	BRUISE	180	n/a	5	n/a	n/a	n/a	n/a	n/a	n/a
3521449	RECOG_TARGET	n/a	LTP249	ltpFR	5	6	0	PHOTO	1055	1	5	0	n/a	n/a	n/a	n/a	n/a
3522064	RECOG_RESP	n/a	LTP249	ltpFR	5	6	0	PHOTO	1055	1	n/a	0	n/a	n/a	n/a	n/a	n/a
3522652	RECOG_CONF	n/a	LTP249	ltpFR	5	6	0	PHOTO	1055	n/a	5	0	n/a	n/a	n/a	n/a	n/a
3524227	RECOG_TARGET	n/a	LTP249	ltpFR	5	6	0	ANKLE	24	1	5	0	n/a	n/a	n/a	n/a	n/a
3524817	RECOG_RESP	n/a	LTP249	ltpFR	5	6	0	ANKLE	24	1	n/a	0	n/a	n/a	n/a	n/a	n/a
3525426	RECOG_CONF	n/a	LTP249	ltpFR	5	6	0	ANKLE	24	n/a	5	0	n/a	n/a	n/a	n/a	n/a
3527040	RECOG_LURE	n/a	LTP249	ltpFR	5	6	n/a	BEAR	106	0	5	n/a	n/a	n/a	n/a	n/a	n/a
3527860	RECOG_RESP	n/a	LTP249	ltpFR	5	6	n/a	BEAR	106	0	n/a	n/a	n/a	n/a	n/a	n/a	n/a
3528489	RECOG_CONF	n/a	LTP249	ltpFR	5	6	n/a	BEAR	106	n/a	5	n/a	n/a	n/a	n/a	n/a	n/a
3530218	RECOG_LURE	n/a	LTP249	ltpFR	5	6	n/a	SPONGE	1355	1	1	n/a	n/a	n/a	n/a	n/a	n/a
3531078	RECOG_RESP	n/a	LTP249	ltpFR	5	6	n/a	SPONGE	1355	1	n/a	n/a	n/a	n/a	n/a	n/a	n/a
3531722	RECOG_CONF	n/a	LTP249	ltpFR	5	6	n/a	SPONGE	1355	n/a	1	n/a	n/a	n/a	n/a	n/a	n/a
3533331	RECOG_TARGET	n/a	LTP249	ltpFR	5	6	1	PELT	1040	1	5	0	n/a	n/a	n/a	n/a	n/a
3533971	RECOG_RESP	n/a	LTP249	ltpFR	5	6	1	PELT	1040	1	n/a	0	n/a	n/a	n/a	n/a	n/a
3534565	RECOG_CONF	n/a	LTP249	ltpFR	5	6	1	PELT	1040	n/a	5	0	n/a	n/a	n/a	n/a	n/a
3536060	RECOG_TARGET	n/a	LTP249	ltpFR	5	6	0	REGISTER	1180	1	3	1	n/a	n/a	n/a	n/a	n/a
3537005	RECOG_RESP	n/a	LTP249	ltpFR	5	6	0	REGISTER	1180	1	n/a	1	n/a	n/a	n/a	n/a	n/a
3537648	RECOG_CONF	n/a	LTP249	ltpFR	5	6	0	REGISTER	1180	n/a	3	1	n/a	n/a	n/a	n/a	n/a
3539272	RECOG_TARGET	n/a	LTP249	ltpFR	5	6	1	CUPBOARD	425	1	1	0	n/a	n/a	n/a	n/a	n/a
3540277	RECOG_RESP	n/a	LTP249	ltpFR	5	6	1	CUPBOARD	425	1	n/a	0	n/a	n/a	n/a	n/a	n/a
3540901	RECOG_CONF	n/a	LTP249	ltpFR	5	6	1	CUPBOARD	425	n/a	1	0	n/a	n/a	n/a	n/a	n/a
3542633	RECOG_TARGET	n/a	LTP249	ltpFR	5	6	0	FREEZER	604	1	1	1	n/a	n/a	n/a	n/a	n/a
3543679	RECOG_RESP	n/a	LTP249	ltpFR	5	6	0	FREEZER	604	1	n/a	1	n/a	n/a	n/a	n/a	n/a
3544253	RECOG_CONF	n/a	LTP249	ltpFR	5	6	0	FREEZER	604	n/a	1	1	n/a	n/a	n/a	n/a	n/a
3560037	REC_START	n/a	LTP249	ltpFR	5	7	n/a	n/a	n/a	n/a	n/a	n/a	n/a	n/a	n/a	n/a	n/a
3560074	RECOG_TARGET	n/a	LTP249	ltpFR	5	7	-1	OTTER	986	1	5	-1	n/a	n/a	n/a	n/a	n/a
3560655	RECOG_RESP	n/a	LTP249	ltpFR	5	7	-1	OTTER	986	1	n/a	-1	n/a	n/a	n/a	n/a	n/a
3561259	RECOG_CONF	n/a	LTP249	ltpFR	5	7	-1	OTTER	986	n/a	5	-1	n/a	n/a	n/a	n/a	n/a
3562803	RECOG_TARGET	n/a	LTP249	ltpFR	5	7	-1	CLASS	318	1	5	-1	n/a	n/a	n/a	n/a	n/a
3563703	RECOG_RESP	n/a	LTP249	ltpFR	5	7	-1	CLASS	318	1	n/a	-1	n/a	n/a	n/a	n/a	n/a
3564312	RECOG_CONF	n/a	LTP249	ltpFR	5	7	-1	CLASS	318	n/a	5	-1	n/a	n/a	n/a	n/a	n/a
3565932	RECOG_TARGET	n/a	LTP249	ltpFR	5	7	1	COBRA	336	0	4	1	n/a	n/a	n/a	n/a	n/a
3567335	RECOG_RESP	n/a	LTP249	ltpFR	5	7	1	COBRA	336	0	n/a	1	n/a	n/a	n/a	n/a	n/a
3567984	RECOG_CONF	n/a	LTP249	ltpFR	5	7	1	COBRA	336	n/a	4	1	n/a	n/a	n/a	n/a	n/a
3569626	RECOG_LURE	n/a	LTP249	ltpFR	5	7	n/a	BUTTERFLY	206	1	2	n/a	n/a	n/a	n/a	n/a	n/a
3570583	RECOG_RESP	n/a	LTP249	ltpFR	5	7	n/a	BUTTERFLY	206	1	n/a	n/a	n/a	n/a	n/a	n/a	n/a
3571177	RECOG_CONF	n/a	LTP249	ltpFR	5	7	n/a	BUTTERFLY	206	n/a	2	n/a	n/a	n/a	n/a	n/a	n/a
3572638	RECOG_LURE	n/a	LTP249	ltpFR	5	7	n/a	REPORT	1184	1	1	n/a	n/a	n/a	n/a	n/a	n/a
3573766	RECOG_RESP	n/a	LTP249	ltpFR	5	7	n/a	REPORT	1184	1	n/a	n/a	n/a	n/a	n/a	n/a	n/a
3574319	RECOG_CONF	n/a	LTP249	ltpFR	5	7	n/a	REPORT	1184	n/a	1	n/a	n/a	n/a	n/a	n/a	n/a
3576000	RECOG_TARGET	n/a	LTP249	ltpFR	5	7	-1	COURSE	390	1	4	-1	n/a	n/a	n/a	n/a	n/a
3576594	RECOG_RESP	n/a	LTP249	ltpFR	5	7	-1	COURSE	390	1	n/a	-1	n/a	n/a	n/a	n/a	n/a
3577273	RECOG_CONF	n/a	LTP249	ltpFR	5	7	-1	COURSE	390	n/a	4	-1	n/a	n/a	n/a	n/a	n/a
3578846	RECOG_TARGET	n/a	LTP249	ltpFR	5	7	1	COMET	353	1	1	0	n/a	n/a	n/a	n/a	n/a
3579897	RECOG_RESP	n/a	LTP249	ltpFR	5	7	1	COMET	353	1	n/a	0	n/a	n/a	n/a	n/a	n/a
3580615	RECOG_CONF	n/a	LTP249	ltpFR	5	7	1	COMET	353	n/a	1	0	n/a	n/a	n/a	n/a	n/a
3582157	RECOG_TARGET	n/a	LTP249	ltpFR	5	7	1	YOLK	1633	1	5	0	n/a	n/a	n/a	n/a	n/a
3582885	RECOG_RESP	n/a	LTP249	ltpFR	5	7	1	YOLK	1633	1	n/a	0	n/a	n/a	n/a	n/a	n/a
3583469	RECOG_CONF	n/a	LTP249	ltpFR	5	7	1	YOLK	1633	n/a	5	0	n/a	n/a	n/a	n/a	n/a
3585020	RECOG_LURE	n/a	LTP249	ltpFR	5	7	n/a	SEAT	1264	1	2	n/a	n/a	n/a	n/a	n/a	n/a
3585968	RECOG_RESP	n/a	LTP249	ltpFR	5	7	n/a	SEAT	1264	1	n/a	n/a	n/a	n/a	n/a	n/a	n/a
3586572	RECOG_CONF	n/a	LTP249	ltpFR	5	7	n/a	SEAT	1264	n/a	2	n/a	n/a	n/a	n/a	n/a	n/a
3588232	RECOG_LURE	n/a	LTP249	ltpFR	5	7	n/a	CHART	282	0	1	n/a	n/a	n/a	n/a	n/a	n/a
3589380	RECOG_RESP	n/a	LTP249	ltpFR	5	7	n/a	CHART	282	0	n/a	n/a	n/a	n/a	n/a	n/a	n/a
3589914	RECOG_CONF	n/a	LTP249	ltpFR	5	7	n/a	CHART	282	n/a	1	n/a	n/a	n/a	n/a	n/a	n/a
3591627	RECOG_LURE	n/a	LTP249	ltpFR	5	7	n/a	VOLCANO	1575	0	1	n/a	n/a	n/a	n/a	n/a	n/a
3592633	RECOG_RESP	n/a	LTP249	ltpFR	5	7	n/a	VOLCANO	1575	0	n/a	n/a	n/a	n/a	n/a	n/a	n/a
3593226	RECOG_CONF	n/a	LTP249	ltpFR	5	7	n/a	VOLCANO	1575	n/a	1	n/a	n/a	n/a	n/a	n/a	n/a
3594872	RECOG_LURE	n/a	LTP249	ltpFR	5	7	n/a	MANSION	864	0	2	n/a	n/a	n/a	n/a	n/a	n/a
3595616	RECOG_RESP	n/a	LTP249	ltpFR	5	7	n/a	MANSION	864	0	n/a	n/a	n/a	n/a	n/a	n/a	n/a
3596259	RECOG_CONF	n/a	LTP249	ltpFR	5	7	n/a	MANSION	864	n/a	2	n/a	n/a	n/a	n/a	n/a	n/a
3597768	RECOG_TARGET	n/a	LTP249	ltpFR	5	7	0	SAW	1239	1	3	0	n/a	n/a	n/a	n/a	n/a
3598619	RECOG_RESP	n/a	LTP249	ltpFR	5	7	0	SAW	1239	1	n/a	0	n/a	n/a	n/a	n/a	n/a
3599273	RECOG_CONF	n/a	LTP249	ltpFR	5	7	0	SAW	1239	n/a	3	0	n/a	n/a	n/a	n/a	n/a
3600846	RECOG_TARGET	n/a	LTP249	ltpFR	5	7	-1	KETTLE	772	1	5	-1	n/a	n/a	n/a	n/a	n/a
3601433	RECOG_RESP	n/a	LTP249	ltpFR	5	7	-1	KETTLE	772	1	n/a	-1	n/a	n/a	n/a	n/a	n/a
3602066	RECOG_CONF	n/a	LTP249	ltpFR	5	7	-1	KETTLE	772	n/a	5	-1	n/a	n/a	n/a	n/a	n/a
3603625	RECOG_TARGET	n/a	LTP249	ltpFR	5	7	0	PEBBLE	1035	0	1	0	n/a	n/a	n/a	n/a	n/a
3604501	RECOG_RESP	n/a	LTP249	ltpFR	5	7	0	PEBBLE	1035	0	n/a	0	n/a	n/a	n/a	n/a	n/a
3605089	RECOG_CONF	n/a	LTP249	ltpFR	5	7	0	PEBBLE	1035	n/a	1	0	n/a	n/a	n/a	n/a	n/a
3606754	RECOG_LURE	n/a	LTP249	ltpFR	5	7	n/a	CAMEL	223	0	2	n/a	n/a	n/a	n/a	n/a	n/a
3607454	RECOG_RESP	n/a	LTP249	ltpFR	5	7	n/a	CAMEL	223	0	n/a	n/a	n/a	n/a	n/a	n/a	n/a
3608083	RECOG_CONF	n/a	LTP249	ltpFR	5	7	n/a	CAMEL	223	n/a	2	n/a	n/a	n/a	n/a	n/a	n/a
3609683	RECOG_TARGET	n/a	LTP249	ltpFR	5	7	0	ROBE	1198	1	5	0	n/a	n/a	n/a	n/a	n/a
3610288	RECOG_RESP	n/a	LTP249	ltpFR	5	7	0	ROBE	1198	1	n/a	0	n/a	n/a	n/a	n/a	n/a
3610916	RECOG_CONF	n/a	LTP249	ltpFR	5	7	0	ROBE	1198	n/a	5	0	n/a	n/a	n/a	n/a	n/a
3612562	RECOG_TARGET	n/a	LTP249	ltpFR	5	7	1	TWIG	1527	1	5	0	n/a	n/a	n/a	n/a	n/a
3613146	RECOG_RESP	n/a	LTP249	ltpFR	5	7	1	TWIG	1527	1	n/a	0	n/a	n/a	n/a	n/a	n/a
3613800	RECOG_CONF	n/a	LTP249	ltpFR	5	7	1	TWIG	1527	n/a	5	0	n/a	n/a	n/a	n/a	n/a
3615392	RECOG_LURE	n/a	LTP249	ltpFR	5	7	n/a	FILM	565	0	1	n/a	n/a	n/a	n/a	n/a	n/a
3616234	RECOG_RESP	n/a	LTP249	ltpFR	5	7	n/a	FILM	565	0	n/a	n/a	n/a	n/a	n/a	n/a	n/a
3616823	RECOG_CONF	n/a	LTP249	ltpFR	5	7	n/a	FILM	565	n/a	1	n/a	n/a	n/a	n/a	n/a	n/a
3618438	RECOG_LURE	n/a	LTP249	ltpFR	5	7	n/a	HINGE	709	0	4	n/a	n/a	n/a	n/a	n/a	n/a
3619117	RECOG_RESP	n/a	LTP249	ltpFR	5	7	n/a	HINGE	709	0	n/a	n/a	n/a	n/a	n/a	n/a	n/a
3619706	RECOG_CONF	n/a	LTP249	ltpFR	5	7	n/a	HINGE	709	n/a	4	n/a	n/a	n/a	n/a	n/a	n/a
3639322	REC_START	n/a	LTP249	ltpFR	5	8	n/a	n/a	n/a	n/a	n/a	n/a	n/a	n/a	n/a	n/a	n/a
3639356	RECOG_LURE	n/a	LTP249	ltpFR	5	8	n/a	BALL	73	1	1	n/a	n/a	n/a	n/a	n/a	n/a
3640245	RECOG_RESP	n/a	LTP249	ltpFR	5	8	n/a	BALL	73	1	n/a	n/a	n/a	n/a	n/a	n/a	n/a
3640813	RECOG_CONF	n/a	LTP249	ltpFR	5	8	n/a	BALL	73	n/a	1	n/a	n/a	n/a	n/a	n/a	n/a
3642468	RECOG_LURE	n/a	LTP249	ltpFR	5	8	n/a	TUBA	1515	0	5	n/a	n/a	n/a	n/a	n/a	n/a
3643637	RECOG_RESP	n/a	LTP249	ltpFR	5	8	n/a	TUBA	1515	0	n/a	n/a	n/a	n/a	n/a	n/a	n/a
3644176	RECOG_CONF	n/a	LTP249	ltpFR	5	8	n/a	TUBA	1515	n/a	5	n/a	n/a	n/a	n/a	n/a	n/a
3645729	RECOG_TARGET	n/a	LTP249	ltpFR	5	8	1	QUAIL	1147	1	4	1	n/a	n/a	n/a	n/a	n/a
3646456	RECOG_RESP	n/a	LTP249	ltpFR	5	8	1	QUAIL	1147	1	n/a	1	n/a	n/a	n/a	n/a	n/a
3647049	RECOG_CONF	n/a	LTP249	ltpFR	5	8	1	QUAIL	1147	n/a	4	1	n/a	n/a	n/a	n/a	n/a
3648558	RECOG_LURE	n/a	LTP249	ltpFR	5	8	n/a	TOMBSTONE	1478	0	5	n/a	n/a	n/a	n/a	n/a	n/a
3650092	RECOG_RESP	n/a	LTP249	ltpFR	5	8	n/a	TOMBSTONE	1478	0	n/a	n/a	n/a	n/a	n/a	n/a	n/a
3650631	RECOG_CONF	n/a	LTP249	ltpFR	5	8	n/a	TOMBSTONE	1478	n/a	5	n/a	n/a	n/a	n/a	n/a	n/a
3652203	RECOG_TARGET	n/a	LTP249	ltpFR	5	8	0	OWNER	993	1	5	1	n/a	n/a	n/a	n/a	n/a
3652851	RECOG_RESP	n/a	LTP249	ltpFR	5	8	0	OWNER	993	1	n/a	1	n/a	n/a	n/a	n/a	n/a
3653415	RECOG_CONF	n/a	LTP249	ltpFR	5	8	0	OWNER	993	n/a	5	1	n/a	n/a	n/a	n/a	n/a
3655015	RECOG_LURE	n/a	LTP249	ltpFR	5	8	n/a	PAIL	1002	0	5	n/a	n/a	n/a	n/a	n/a	n/a
3655789	RECOG_RESP	n/a	LTP249	ltpFR	5	8	n/a	PAIL	1002	0	n/a	n/a	n/a	n/a	n/a	n/a	n/a
3656328	RECOG_CONF	n/a	LTP249	ltpFR	5	8	n/a	PAIL	1002	n/a	5	n/a	n/a	n/a	n/a	n/a	n/a
3657878	RECOG_LURE	n/a	LTP249	ltpFR	5	8	n/a	RAILROAD	1162	0	4	n/a	n/a	n/a	n/a	n/a	n/a
3658673	RECOG_RESP	n/a	LTP249	ltpFR	5	8	n/a	RAILROAD	1162	0	n/a	n/a	n/a	n/a	n/a	n/a	n/a
3659291	RECOG_CONF	n/a	LTP249	ltpFR	5	8	n/a	RAILROAD	1162	n/a	4	n/a	n/a	n/a	n/a	n/a	n/a
3660907	RECOG_TARGET	n/a	LTP249	ltpFR	5	8	0	TUNA	1518	1	5	0	n/a	n/a	n/a	n/a	n/a
3661456	RECOG_RESP	n/a	LTP249	ltpFR	5	8	0	TUNA	1518	1	n/a	0	n/a	n/a	n/a	n/a	n/a
3662025	RECOG_CONF	n/a	LTP249	ltpFR	5	8	0	TUNA	1518	n/a	5	0	n/a	n/a	n/a	n/a	n/a
3663669	RECOG_LURE	n/a	LTP249	ltpFR	5	8	n/a	SUITE	1404	1	1	n/a	n/a	n/a	n/a	n/a	n/a
3664939	RECOG_RESP	n/a	LTP249	ltpFR	5	8	n/a	SUITE	1404	1	n/a	n/a	n/a	n/a	n/a	n/a	n/a
3665527	RECOG_CONF	n/a	LTP249	ltpFR	5	8	n/a	SUITE	1404	n/a	1	n/a	n/a	n/a	n/a	n/a	n/a
3667147	RECOG_TARGET	n/a	LTP249	ltpFR	5	8	-1	SERPENT	1270	1	5	-1	n/a	n/a	n/a	n/a	n/a
3668071	RECOG_RESP	n/a	LTP249	ltpFR	5	8	-1	SERPENT	1270	1	n/a	-1	n/a	n/a	n/a	n/a	n/a
3668710	RECOG_CONF	n/a	LTP249	ltpFR	5	8	-1	SERPENT	1270	n/a	5	-1	n/a	n/a	n/a	n/a	n/a
3670327	RECOG_LURE	n/a	LTP249	ltpFR	5	8	n/a	CHICKEN	297	0	1	n/a	n/a	n/a	n/a	n/a	n/a
3671055	RECOG_RESP	n/a	LTP249	ltpFR	5	8	n/a	CHICKEN	297	0	n/a	n/a	n/a	n/a	n/a	n/a	n/a
3671593	RECOG_CONF	n/a	LTP249	ltpFR	5	8	n/a	CHICKEN	297	n/a	1	n/a	n/a	n/a	n/a	n/a	n/a
3673339	RECOG_LURE	n/a	LTP249	ltpFR	5	8	n/a	REBEL	1172	0	1	n/a	n/a	n/a	n/a	n/a	n/a
3674282	RECOG_RESP	n/a	LTP249	ltpFR	5	8	n/a	REBEL	1172	0	n/a	n/a	n/a	n/a	n/a	n/a	n/a
3674826	RECOG_CONF	n/a	LTP249	ltpFR	5	8	n/a	REBEL	1172	n/a	1	n/a	n/a	n/a	n/a	n/a	n/a
3676550	RECOG_TARGET	n/a	LTP249	ltpFR	5	8	-1	SHORTS	1293	1	4	-1	n/a	n/a	n/a	n/a	n/a
3677340	RECOG_RESP	n/a	LTP249	ltpFR	5	8	-1	SHORTS	1293	1	n/a	-1	n/a	n/a	n/a	n/a	n/a
3677899	RECOG_CONF	n/a	LTP249	ltpFR	5	8	-1	SHORTS	1293	n/a	4	-1	n/a	n/a	n/a	n/a	n/a
3679529	RECOG_LURE	n/a	LTP249	ltpFR	5	8	n/a	MILITARY	894	0	1	n/a	n/a	n/a	n/a	n/a	n/a
3680448	RECOG_RESP	n/a	LTP249	ltpFR	5	8	n/a	MILITARY	894	0	n/a	n/a	n/a	n/a	n/a	n/a	n/a
3681042	RECOG_CONF	n/a	LTP249	ltpFR	5	8	n/a	MILITARY	894	n/a	1	n/a	n/a	n/a	n/a	n/a	n/a
3682874	RECOG_LURE	n/a	LTP249	ltpFR	5	8	n/a	SURGEON	1413	0	1	n/a	n/a	n/a	n/a	n/a	n/a
3683626	RECOG_RESP	n/a	LTP249	ltpFR	5	8	n/a	SURGEON	1413	0	n/a	n/a	n/a	n/a	n/a	n/a	n/a
3684175	RECOG_CONF	n/a	LTP249	ltpFR	5	8	n/a	SURGEON	1413	n/a	1	n/a	n/a	n/a	n/a	n/a	n/a
3685869	RECOG_TARGET	n/a	LTP249	ltpFR	5	8	-1	BAY	102	1	5	-1	n/a	n/a	n/a	n/a	n/a
3686544	RECOG_RESP	n/a	LTP249	ltpFR	5	8	-1	BAY	102	1	n/a	-1	n/a	n/a	n/a	n/a	n/a
3687108	RECOG_CONF	n/a	LTP249	ltpFR	5	8	-1	BAY	102	n/a	5	-1	n/a	n/a	n/a	n/a	n/a
