onset	duration	trial_type	sample	stim_file	subject	experiment	session	trial	item_name	item_num	list	answer	test_x	test_y	test_z
220.11181640625	n/a	SESS_START	450789	n/a	LTP378	ltpFR2	1	n/a	n/a	n/a	n/a	n/a	0	0	0
256.32958984375	n/a	START	524963	n/a	LTP378	ltpFR2	1	n/a	n/a	n/a	-1	n/a	n/a	n/a	n/a
256.34375	n/a	PROB	524992	n/a	LTP378	ltpFR2	1	n/a	n/a	n/a	-1	11	6	4	1
258.02685546875	n/a	PROB	528439	n/a	LTP378	ltpFR2	1	n/a	n/a	n/a	-1	22	5	8	9
261.90625	n/a	PROB	536384	n/a	LTP378	ltpFR2	1	n/a	n/a	n/a	-1	13	5	5	3
263.7392578125	n/a	PROB	540138	n/a	LTP378	ltpFR2	1	n/a	n/a	n/a	-1	7	3	3	1
265.5224609375	n/a	PROB	543790	n/a	LTP378	ltpFR2	1	n/a	n/a	n/a	-1	18	9	4	5
268.0810546875	n/a	STOP	549030	n/a	LTP378	ltpFR2	1	n/a	n/a	n/a	-1	n/a	n/a	n/a	n/a
332.22412109375	n/a	DISTRACTOR	680395	n/a	LTP378	ltpFR2	1	1	n/a	n/a	n/a	n/a	0	0	0
332.22412109375	n/a	START	680395	n/a	LTP378	ltpFR2	1	n/a	n/a	n/a	1	n/a	n/a	n/a	n/a
332.240234375	n/a	PROB	680428	n/a	LTP378	ltpFR2	1	n/a	n/a	n/a	1	17	5	3	9
335.02197265625	n/a	PROB	686125	n/a	LTP378	ltpFR2	1	n/a	n/a	n/a	1	11	3	4	5
336.921875	n/a	PROB	690016	n/a	LTP378	ltpFR2	1	n/a	n/a	n/a	1	10	1	4	5
339.73583984375	n/a	PROB	695779	n/a	LTP378	ltpFR2	1	n/a	n/a	n/a	1	16	2	6	8
343.23486328125	n/a	PROB	702945	n/a	LTP378	ltpFR2	1	n/a	n/a	n/a	1	18	6	8	4
345.134765625	n/a	PROB	706836	n/a	LTP378	ltpFR2	1	n/a	n/a	n/a	1	13	2	8	3
348.0498046875	n/a	PROB	712806	n/a	LTP378	ltpFR2	1	n/a	n/a	n/a	1	15	5	9	1
350.03173828125	n/a	PROB	716865	n/a	LTP378	ltpFR2	1	n/a	n/a	n/a	1	24	7	9	8
355.513671875	n/a	STOP	728092	n/a	LTP378	ltpFR2	1	n/a	n/a	n/a	1	n/a	n/a	n/a	n/a
357.09521484375	n/a	WORD	731331	wordpools/wasnorm_wordpool_576.txt	LTP378	ltpFR2	1	1	TOMBSTONE	1478	n/a	n/a	0	0	0
359.87646484375	n/a	WORD	737027	wordpools/wasnorm_wordpool_576.txt	LTP378	ltpFR2	1	1	DAISY	435	n/a	n/a	0	0	0
362.30908203125	n/a	WORD	742009	wordpools/wasnorm_wordpool_576.txt	LTP378	ltpFR2	1	1	RECORD	1176	n/a	n/a	0	0	0
364.7744140625	n/a	WORD	747058	wordpools/wasnorm_wordpool_576.txt	LTP378	ltpFR2	1	1	HONEY	713	n/a	n/a	0	0	0
367.5400390625	n/a	WORD	752722	wordpools/wasnorm_wordpool_576.txt	LTP378	ltpFR2	1	1	BEAST	108	n/a	n/a	0	0	0
370.18896484375	n/a	WORD	758147	wordpools/wasnorm_wordpool_576.txt	LTP378	ltpFR2	1	1	LION	827	n/a	n/a	0	0	0
372.6708984375	n/a	WORD	763230	wordpools/wasnorm_wordpool_576.txt	LTP378	ltpFR2	1	1	PIZZA	1079	n/a	n/a	0	0	0
375.35302734375	n/a	WORD	768723	wordpools/wasnorm_wordpool_576.txt	LTP378	ltpFR2	1	1	XEROX	1628	n/a	n/a	0	0	0
377.833984375	n/a	WORD	773804	wordpools/wasnorm_wordpool_576.txt	LTP378	ltpFR2	1	1	FOOT	590	n/a	n/a	0	0	0
380.30078125	n/a	WORD	778856	wordpools/wasnorm_wordpool_576.txt	LTP378	ltpFR2	1	1	PASTRY	1022	n/a	n/a	0	0	0
382.765625	n/a	WORD	783904	wordpools/wasnorm_wordpool_576.txt	LTP378	ltpFR2	1	1	CANDY	230	n/a	n/a	0	0	0
385.3984375	n/a	WORD	789296	wordpools/wasnorm_wordpool_576.txt	LTP378	ltpFR2	1	1	FRAME	600	n/a	n/a	0	0	0
387.8955078125	n/a	WORD	794410	wordpools/wasnorm_wordpool_576.txt	LTP378	ltpFR2	1	1	CASHIER	254	n/a	n/a	0	0	0
390.5625	n/a	WORD	799872	wordpools/wasnorm_wordpool_576.txt	LTP378	ltpFR2	1	1	LEOPARD	812	n/a	n/a	0	0	0
393.0283203125	n/a	WORD	804922	wordpools/wasnorm_wordpool_576.txt	LTP378	ltpFR2	1	1	ACTOR	5	n/a	n/a	0	0	0
395.576171875	n/a	WORD	810140	wordpools/wasnorm_wordpool_576.txt	LTP378	ltpFR2	1	1	UMPIRE	1535	n/a	n/a	0	0	0
398.14208984375	n/a	WORD	815395	wordpools/wasnorm_wordpool_576.txt	LTP378	ltpFR2	1	1	STAKE	1368	n/a	n/a	0	0	0
400.80615234375	n/a	WORD	820851	wordpools/wasnorm_wordpool_576.txt	LTP378	ltpFR2	1	1	AWARD	63	n/a	n/a	0	0	0
403.52294921875	n/a	WORD	826415	wordpools/wasnorm_wordpool_576.txt	LTP378	ltpFR2	1	1	MEDAL	885	n/a	n/a	0	0	0
406.18798828125	n/a	WORD	831873	wordpools/wasnorm_wordpool_576.txt	LTP378	ltpFR2	1	1	TRUCK	1512	n/a	n/a	0	0	0
408.95361328125	n/a	WORD	837537	wordpools/wasnorm_wordpool_576.txt	LTP378	ltpFR2	1	1	VIKING	1565	n/a	n/a	0	0	0
411.46875	n/a	WORD	842688	wordpools/wasnorm_wordpool_576.txt	LTP378	ltpFR2	1	1	TWIG	1527	n/a	n/a	0	0	0
413.9677734375	n/a	WORD	847806	wordpools/wasnorm_wordpool_576.txt	LTP378	ltpFR2	1	1	ANTLER	29	n/a	n/a	0	0	0
416.599609375	n/a	WORD	853196	wordpools/wasnorm_wordpool_576.txt	LTP378	ltpFR2	1	1	DUSTPAN	509	n/a	n/a	0	0	0
418.21533203125	n/a	START	856505	n/a	LTP378	ltpFR2	1	n/a	n/a	n/a	2	n/a	n/a	n/a	n/a
419.072265625	n/a	DISTRACTOR	858260	n/a	LTP378	ltpFR2	1	1	n/a	n/a	n/a	n/a	0	0	0
419.08154296875	n/a	PROB	858279	n/a	LTP378	ltpFR2	1	n/a	n/a	n/a	2	12	2	5	5
421.1474609375	n/a	PROB	862510	n/a	LTP378	ltpFR2	1	n/a	n/a	n/a	2	20	8	9	3
425.72705078125	n/a	PROB	871889	n/a	LTP378	ltpFR2	1	n/a	n/a	n/a	2	15	6	1	8
427.5283203125	n/a	PROB	875578	n/a	LTP378	ltpFR2	1	n/a	n/a	n/a	2	13	1	6	6
429.126953125	n/a	PROB	878852	n/a	LTP378	ltpFR2	1	n/a	n/a	n/a	2	24	8	8	8
431.14306640625	n/a	PROB	882981	n/a	LTP378	ltpFR2	1	n/a	n/a	n/a	2	20	6	6	8
434.39111328125	n/a	PROB	889633	n/a	LTP378	ltpFR2	1	n/a	n/a	n/a	2	20	8	6	6
438.1396484375	n/a	PROB	897310	n/a	LTP378	ltpFR2	1	n/a	n/a	n/a	2	13	3	7	3
442.21484375	n/a	STOP	905656	n/a	LTP378	ltpFR2	1	n/a	n/a	n/a	2	n/a	n/a	n/a	n/a
443.970703125	n/a	REC_START	909252	n/a	LTP378	ltpFR2	1	1	n/a	n/a	n/a	n/a	0	0	0
445.29736328125	n/a	REC_WORD	911969	wordpools/wasnorm_wordpool_576.txt	LTP378	ltpFR2	1	1	TOMBSTONE	1478	n/a	n/a	0	0	0
446.8466796875	n/a	REC_WORD	915142	wordpools/wasnorm_wordpool_576.txt	LTP378	ltpFR2	1	1	DAISY	435	n/a	n/a	0	0	0
450.32958984375	n/a	REC_WORD	922275	wordpools/wasnorm_wordpool_576.txt	LTP378	ltpFR2	1	1	HONEY	713	n/a	n/a	0	0	0
451.62060546875	n/a	REC_WORD	924919	wordpools/wasnorm_wordpool_576.txt	LTP378	ltpFR2	1	1	BEAST	108	n/a	n/a	0	0	0
453.00830078125	n/a	REC_WORD	927761	wordpools/wasnorm_wordpool_576.txt	LTP378	ltpFR2	1	1	LION	827	n/a	n/a	0	0	0
458.55615234375	n/a	REC_WORD	939123	wordpools/wasnorm_wordpool_576.txt	LTP378	ltpFR2	1	1	AWARD	63	n/a	n/a	0	0	0
459.67724609375	n/a	REC_WORD	941419	wordpools/wasnorm_wordpool_576.txt	LTP378	ltpFR2	1	1	MEDAL	885	n/a	n/a	0	0	0
462.31591796875	n/a	REC_WORD	946823	wordpools/wasnorm_wordpool_576.txt	LTP378	ltpFR2	1	1	XEROX	1628	n/a	n/a	0	0	0
464.3779296875	n/a	REC_WORD	951046	wordpools/wasnorm_wordpool_576.txt	LTP378	ltpFR2	1	1	PASTRY	1022	n/a	n/a	0	0	0
465.60009765625	n/a	REC_WORD	953549	wordpools/wasnorm_wordpool_576.txt	LTP378	ltpFR2	1	1	PIZZA	1079	n/a	n/a	0	0	0
466.65283203125	n/a	REC_WORD	955705	wordpools/wasnorm_wordpool_576.txt	LTP378	ltpFR2	1	1	FOOT	590	n/a	n/a	0	0	0
470.9619140625	n/a	REC_WORD	964530	wordpools/wasnorm_wordpool_576.txt	LTP378	ltpFR2	1	1	TRUCK	1512	n/a	n/a	0	0	0
472.1025390625	n/a	REC_WORD	966866	wordpools/wasnorm_wordpool_576.txt	LTP378	ltpFR2	1	1	VIKING	1565	n/a	n/a	0	0	0
473.546875	n/a	REC_WORD	969824	wordpools/wasnorm_wordpool_576.txt	LTP378	ltpFR2	1	1	TWIG	1527	n/a	n/a	0	0	0
534.392578125	n/a	DISTRACTOR	1094436	n/a	LTP378	ltpFR2	1	2	n/a	n/a	n/a	n/a	0	0	0
534.392578125	n/a	START	1094436	n/a	LTP378	ltpFR2	1	n/a	n/a	n/a	3	n/a	n/a	n/a	n/a
534.40966796875	n/a	PROB	1094471	n/a	LTP378	ltpFR2	1	n/a	n/a	n/a	3	17	4	8	5
537.2578125	n/a	PROB	1100304	n/a	LTP378	ltpFR2	1	n/a	n/a	n/a	3	13	9	2	2
539.390625	n/a	PROB	1104672	n/a	LTP378	ltpFR2	1	n/a	n/a	n/a	3	13	4	2	7
542.12255859375	n/a	PROB	1110267	n/a	LTP378	ltpFR2	1	n/a	n/a	n/a	3	13	3	7	3
544.50439453125	n/a	PROB	1115145	n/a	LTP378	ltpFR2	1	n/a	n/a	n/a	3	15	1	7	7
546.4873046875	n/a	PROB	1119206	n/a	LTP378	ltpFR2	1	n/a	n/a	n/a	3	11	3	2	6
550.63525390625	n/a	PROB	1127701	n/a	LTP378	ltpFR2	1	n/a	n/a	n/a	3	15	2	8	5
554.533203125	n/a	PROB	1135684	n/a	LTP378	ltpFR2	1	n/a	n/a	n/a	3	14	3	4	7
556.89697265625	n/a	STOP	1140525	n/a	LTP378	ltpFR2	1	n/a	n/a	n/a	3	n/a	n/a	n/a	n/a
559.56396484375	n/a	WORD	1145987	wordpools/wasnorm_wordpool_576.txt	LTP378	ltpFR2	1	2	CREATURE	403	n/a	n/a	0	0	0
562.02978515625	n/a	WORD	1151037	wordpools/wasnorm_wordpool_576.txt	LTP378	ltpFR2	1	2	BUGGY	188	n/a	n/a	0	0	0
564.52783203125	n/a	WORD	1156153	wordpools/wasnorm_wordpool_576.txt	LTP378	ltpFR2	1	2	SLIDE	1326	n/a	n/a	0	0	0
567.12646484375	n/a	WORD	1161475	wordpools/wasnorm_wordpool_576.txt	LTP378	ltpFR2	1	2	DANDRUFF	439	n/a	n/a	0	0	0
569.642578125	n/a	WORD	1166628	wordpools/wasnorm_wordpool_576.txt	LTP378	ltpFR2	1	2	ZEBRA	1635	n/a	n/a	0	0	0
572.224609375	n/a	WORD	1171916	wordpools/wasnorm_wordpool_576.txt	LTP378	ltpFR2	1	2	ULCER	1533	n/a	n/a	0	0	0
574.65625	n/a	WORD	1176896	wordpools/wasnorm_wordpool_576.txt	LTP378	ltpFR2	1	2	FOX	598	n/a	n/a	0	0	0
577.25537109375	n/a	WORD	1182219	wordpools/wasnorm_wordpool_576.txt	LTP378	ltpFR2	1	2	TRENCH	1503	n/a	n/a	0	0	0
579.853515625	n/a	WORD	1187540	wordpools/wasnorm_wordpool_576.txt	LTP378	ltpFR2	1	2	CAMEL	223	n/a	n/a	0	0	0
582.50341796875	n/a	WORD	1192967	wordpools/wasnorm_wordpool_576.txt	LTP378	ltpFR2	1	2	PEACH	1031	n/a	n/a	0	0	0
584.9521484375	n/a	WORD	1197982	wordpools/wasnorm_wordpool_576.txt	LTP378	ltpFR2	1	2	TROUT	1511	n/a	n/a	0	0	0
587.5498046875	n/a	WORD	1203302	wordpools/wasnorm_wordpool_576.txt	LTP378	ltpFR2	1	2	WINDOW	1611	n/a	n/a	0	0	0
590.03271484375	n/a	WORD	1208387	wordpools/wasnorm_wordpool_576.txt	LTP378	ltpFR2	1	2	SPIDER	1351	n/a	n/a	0	0	0
592.7138671875	n/a	WORD	1213878	wordpools/wasnorm_wordpool_576.txt	LTP378	ltpFR2	1	2	PEBBLE	1035	n/a	n/a	0	0	0
595.2138671875	n/a	WORD	1218998	wordpools/wasnorm_wordpool_576.txt	LTP378	ltpFR2	1	2	STONE	1385	n/a	n/a	0	0	0
597.8779296875	n/a	WORD	1224454	wordpools/wasnorm_wordpool_576.txt	LTP378	ltpFR2	1	2	DRAWING	494	n/a	n/a	0	0	0
600.52783203125	n/a	WORD	1229881	wordpools/wasnorm_wordpool_576.txt	LTP378	ltpFR2	1	2	PORTRAIT	1111	n/a	n/a	0	0	0
603.24267578125	n/a	WORD	1235441	wordpools/wasnorm_wordpool_576.txt	LTP378	ltpFR2	1	2	SCRIBBLE	1256	n/a	n/a	0	0	0
606.00830078125	n/a	WORD	1241105	wordpools/wasnorm_wordpool_576.txt	LTP378	ltpFR2	1	2	AIRPLANE	12	n/a	n/a	0	0	0
608.47314453125	n/a	WORD	1246153	wordpools/wasnorm_wordpool_576.txt	LTP378	ltpFR2	1	2	POLICE	1098	n/a	n/a	0	0	0
611.189453125	n/a	WORD	1251716	wordpools/wasnorm_wordpool_576.txt	LTP378	ltpFR2	1	2	GUARD	667	n/a	n/a	0	0	0
613.97119140625	n/a	WORD	1257413	wordpools/wasnorm_wordpool_576.txt	LTP378	ltpFR2	1	2	CARRIAGE	248	n/a	n/a	0	0	0
616.52001953125	n/a	WORD	1262633	wordpools/wasnorm_wordpool_576.txt	LTP378	ltpFR2	1	2	LAPEL	800	n/a	n/a	0	0	0
619.28515625	n/a	WORD	1268296	wordpools/wasnorm_wordpool_576.txt	LTP378	ltpFR2	1	2	SEAFOOD	1260	n/a	n/a	0	0	0
620.89990234375	n/a	START	1271603	n/a	LTP378	ltpFR2	1	n/a	n/a	n/a	4	n/a	n/a	n/a	n/a
621.744140625	n/a	DISTRACTOR	1273332	n/a	LTP378	ltpFR2	1	2	n/a	n/a	n/a	n/a	0	0	0
621.75	n/a	PROB	1273344	n/a	LTP378	ltpFR2	1	n/a	n/a	n/a	4	17	6	6	5
624.2490234375	n/a	PROB	1278462	n/a	LTP378	ltpFR2	1	n/a	n/a	n/a	4	22	4	9	9
629.6787109375	n/a	PROB	1289582	n/a	LTP378	ltpFR2	1	n/a	n/a	n/a	4	17	7	4	6
632.54541015625	n/a	PROB	1295453	n/a	LTP378	ltpFR2	1	n/a	n/a	n/a	4	14	9	2	3
635.26025390625	n/a	PROB	1301013	n/a	LTP378	ltpFR2	1	n/a	n/a	n/a	4	8	2	2	4
638.0595703125	n/a	PROB	1306746	n/a	LTP378	ltpFR2	1	n/a	n/a	n/a	4	25	9	9	7
644.00927734375	n/a	STOP	1318931	n/a	LTP378	ltpFR2	1	n/a	n/a	n/a	4	n/a	n/a	n/a	n/a
646.837890625	n/a	REC_START	1324724	n/a	LTP378	ltpFR2	1	2	n/a	n/a	n/a	n/a	0	0	0
650.533203125	n/a	REC_WORD	1332292	wordpools/wasnorm_wordpool_576.txt	LTP378	ltpFR2	1	2	BUGGY	188	n/a	n/a	0	0	0
651.51904296875	n/a	REC_WORD	1334311	wordpools/wasnorm_wordpool_576.txt	LTP378	ltpFR2	1	2	CREATURE	403	n/a	n/a	0	0	0
652.89599609375	n/a	REC_WORD	1337131	wordpools/wasnorm_wordpool_576.txt	LTP378	ltpFR2	1	2	ULCER	1533	n/a	n/a	0	0	0
653.97705078125	n/a	REC_WORD	1339345	wordpools/wasnorm_wordpool_576.txt	LTP378	ltpFR2	1	2	FOX	598	n/a	n/a	0	0	0
656.63671875	n/a	REC_WORD	1344792	wordpools/wasnorm_wordpool_576.txt	LTP378	ltpFR2	1	2	DANDRUFF	439	n/a	n/a	0	0	0
657.53466796875	n/a	REC_WORD	1346631	wordpools/wasnorm_wordpool_576.txt	LTP378	ltpFR2	1	2	ZEBRA	1635	n/a	n/a	0	0	0
660.69384765625	n/a	REC_WORD	1353101	wordpools/wasnorm_wordpool_576.txt	LTP378	ltpFR2	1	2	TROUT	1511	n/a	n/a	0	0	0
664.609375	n/a	REC_WORD	1361120	wordpools/wasnorm_wordpool_576.txt	LTP378	ltpFR2	1	2	LAPEL	800	n/a	n/a	0	0	0
679.81396484375	n/a	REC_WORD	1392259	wordpools/wasnorm_wordpool_576.txt	LTP378	ltpFR2	1	2	XEROX	1628	n/a	n/a	0	0	0
686.97998046875	n/a	REC_WORD	1406935	wordpools/wasnorm_wordpool_576.txt	LTP378	ltpFR2	1	2	SUNRISE	1407	n/a	n/a	0	0	0
687.97998046875	n/a	REC_WORD_VV	1408983	wordpools/wasnorm_wordpool_576.txt	LTP378	ltpFR2	1	2	<>	-1	n/a	n/a	0	0	0
688.97998046875	n/a	REC_WORD_VV	1411031	wordpools/wasnorm_wordpool_576.txt	LTP378	ltpFR2	1	2	<>	-1	n/a	n/a	0	0	0
737.26123046875	n/a	DISTRACTOR	1509911	n/a	LTP378	ltpFR2	1	3	n/a	n/a	n/a	n/a	0	0	0
737.26123046875	n/a	START	1509911	n/a	LTP378	ltpFR2	1	n/a	n/a	n/a	5	n/a	n/a	n/a	n/a
737.2783203125	n/a	PROB	1509946	n/a	LTP378	ltpFR2	1	n/a	n/a	n/a	5	11	3	4	4
740.77490234375	n/a	PROB	1517107	n/a	LTP378	ltpFR2	1	n/a	n/a	n/a	5	15	4	4	9
742.9921875	n/a	PROB	1521648	n/a	LTP378	ltpFR2	1	n/a	n/a	n/a	5	21	6	7	8
749.40576171875	n/a	PROB	1534783	n/a	LTP378	ltpFR2	1	n/a	n/a	n/a	5	12	2	7	3
751.6865234375	n/a	PROB	1539454	n/a	LTP378	ltpFR2	1	n/a	n/a	n/a	5	15	3	7	5
755.23583984375	n/a	PROB	1546723	n/a	LTP378	ltpFR2	1	n/a	n/a	n/a	5	21	6	7	8
761.25927734375	n/a	STOP	1559059	n/a	LTP378	ltpFR2	1	n/a	n/a	n/a	5	n/a	n/a	n/a	n/a
762.41552734375	n/a	WORD	1561427	wordpools/wasnorm_wordpool_576.txt	LTP378	ltpFR2	1	3	PERCH	1048	n/a	n/a	0	0	0
764.99853515625	n/a	WORD	1566717	wordpools/wasnorm_wordpool_576.txt	LTP378	ltpFR2	1	3	NEUTRON	947	n/a	n/a	0	0	0
767.61328125	n/a	WORD	1572072	wordpools/wasnorm_wordpool_576.txt	LTP378	ltpFR2	1	3	TURNIP	1521	n/a	n/a	0	0	0
770.3291015625	n/a	WORD	1577634	wordpools/wasnorm_wordpool_576.txt	LTP378	ltpFR2	1	3	GARBAGE	622	n/a	n/a	0	0	0
773.0439453125	n/a	WORD	1583194	wordpools/wasnorm_wordpool_576.txt	LTP378	ltpFR2	1	3	PUDDING	1139	n/a	n/a	0	0	0
775.6259765625	n/a	WORD	1588482	wordpools/wasnorm_wordpool_576.txt	LTP378	ltpFR2	1	3	LUGGAGE	847	n/a	n/a	0	0	0
778.091796875	n/a	WORD	1593532	wordpools/wasnorm_wordpool_576.txt	LTP378	ltpFR2	1	3	PAIL	1002	n/a	n/a	0	0	0
780.85595703125	n/a	WORD	1599193	wordpools/wasnorm_wordpool_576.txt	LTP378	ltpFR2	1	3	WASP	1593	n/a	n/a	0	0	0
783.28857421875	n/a	WORD	1604175	wordpools/wasnorm_wordpool_576.txt	LTP378	ltpFR2	1	3	DRILL	497	n/a	n/a	0	0	0
785.78662109375	n/a	WORD	1609291	wordpools/wasnorm_wordpool_576.txt	LTP378	ltpFR2	1	3	POSTAGE	1113	n/a	n/a	0	0	0
788.51953125	n/a	WORD	1614888	wordpools/wasnorm_wordpool_576.txt	LTP378	ltpFR2	1	3	MARKER	870	n/a	n/a	0	0	0
791.33544921875	n/a	WORD	1620655	wordpools/wasnorm_wordpool_576.txt	LTP378	ltpFR2	1	3	CRAYON	401	n/a	n/a	0	0	0
794.1171875	n/a	WORD	1626352	wordpools/wasnorm_wordpool_576.txt	LTP378	ltpFR2	1	3	COTTAGE	384	n/a	n/a	0	0	0
796.7314453125	n/a	WORD	1631706	wordpools/wasnorm_wordpool_576.txt	LTP378	ltpFR2	1	3	TOURIST	1488	n/a	n/a	0	0	0
799.4482421875	n/a	WORD	1637270	wordpools/wasnorm_wordpool_576.txt	LTP378	ltpFR2	1	3	SPONGE	1355	n/a	n/a	0	0	0
802.06298828125	n/a	WORD	1642625	wordpools/wasnorm_wordpool_576.txt	LTP378	ltpFR2	1	3	CLOUD	328	n/a	n/a	0	0	0
804.69384765625	n/a	WORD	1648013	wordpools/wasnorm_wordpool_576.txt	LTP378	ltpFR2	1	3	MUMMY	932	n/a	n/a	0	0	0
807.2939453125	n/a	WORD	1653338	wordpools/wasnorm_wordpool_576.txt	LTP378	ltpFR2	1	3	DENIM	446	n/a	n/a	0	0	0
809.97607421875	n/a	WORD	1658831	wordpools/wasnorm_wordpool_576.txt	LTP378	ltpFR2	1	3	BLOUSE	139	n/a	n/a	0	0	0
812.791015625	n/a	WORD	1664596	wordpools/wasnorm_wordpool_576.txt	LTP378	ltpFR2	1	3	TURKEY	1520	n/a	n/a	0	0	0
815.32373046875	n/a	WORD	1669783	wordpools/wasnorm_wordpool_576.txt	LTP378	ltpFR2	1	3	STOMACH	1384	n/a	n/a	0	0	0
817.87158203125	n/a	WORD	1675001	wordpools/wasnorm_wordpool_576.txt	LTP378	ltpFR2	1	3	NAPKIN	937	n/a	n/a	0	0	0
820.37158203125	n/a	WORD	1680121	wordpools/wasnorm_wordpool_576.txt	LTP378	ltpFR2	1	3	PISTON	1076	n/a	n/a	0	0	0
823.11962890625	n/a	WORD	1685749	wordpools/wasnorm_wordpool_576.txt	LTP378	ltpFR2	1	3	POWDER	1117	n/a	n/a	0	0	0
824.7353515625	n/a	START	1689058	n/a	LTP378	ltpFR2	1	n/a	n/a	n/a	6	n/a	n/a	n/a	n/a
825.86328125	n/a	DISTRACTOR	1691368	n/a	LTP378	ltpFR2	1	3	n/a	n/a	n/a	n/a	0	0	0
825.8671875	n/a	PROB	1691376	n/a	LTP378	ltpFR2	1	n/a	n/a	n/a	6	16	8	7	1
828.60009765625	n/a	PROB	1696973	n/a	LTP378	ltpFR2	1	n/a	n/a	n/a	6	13	6	3	4
830.6162109375	n/a	PROB	1701102	n/a	LTP378	ltpFR2	1	n/a	n/a	n/a	6	19	4	7	8
833.365234375	n/a	PROB	1706732	n/a	LTP378	ltpFR2	1	n/a	n/a	n/a	6	17	3	9	5
836.197265625	n/a	PROB	1712532	n/a	LTP378	ltpFR2	1	n/a	n/a	n/a	6	22	8	7	7
839.37890625	n/a	PROB	1719048	n/a	LTP378	ltpFR2	1	n/a	n/a	n/a	6	11	8	1	2
841.32763671875	n/a	PROB	1723039	n/a	LTP378	ltpFR2	1	n/a	n/a	n/a	6	12	3	7	2
843.15966796875	n/a	PROB	1726791	n/a	LTP378	ltpFR2	1	n/a	n/a	n/a	6	18	7	4	7
848.73486328125	n/a	STOP	1738209	n/a	LTP378	ltpFR2	1	n/a	n/a	n/a	6	n/a	n/a	n/a	n/a
850.6064453125	n/a	REC_START	1742042	n/a	LTP378	ltpFR2	1	3	n/a	n/a	n/a	n/a	0	0	0
856.2392578125	n/a	REC_WORD	1753578	wordpools/wasnorm_wordpool_576.txt	LTP378	ltpFR2	1	3	PISTON	1076	n/a	n/a	0	0	0
859.76611328125	n/a	REC_WORD	1760801	wordpools/wasnorm_wordpool_576.txt	LTP378	ltpFR2	1	3	PUDDING	1139	n/a	n/a	0	0	0
860.59033203125	n/a	REC_WORD	1762489	wordpools/wasnorm_wordpool_576.txt	LTP378	ltpFR2	1	3	LUGGAGE	847	n/a	n/a	0	0	0
862.662109375	n/a	REC_WORD	1766732	wordpools/wasnorm_wordpool_576.txt	LTP378	ltpFR2	1	3	CARRIAGE	248	n/a	n/a	0	0	0
866.01806640625	n/a	REC_WORD	1773605	wordpools/wasnorm_wordpool_576.txt	LTP378	ltpFR2	1	3	TOURIST	1488	n/a	n/a	0	0	0
866.833984375	n/a	REC_WORD	1775276	wordpools/wasnorm_wordpool_576.txt	LTP378	ltpFR2	1	3	COTTAGE	384	n/a	n/a	0	0	0
870.64208984375	n/a	REC_WORD	1783075	wordpools/wasnorm_wordpool_576.txt	LTP378	ltpFR2	1	3	TURKEY	1520	n/a	n/a	0	0	0
871.19287109375	n/a	REC_WORD	1784203	wordpools/wasnorm_wordpool_576.txt	LTP378	ltpFR2	1	3	STOMACH	1384	n/a	n/a	0	0	0
872.10400390625	n/a	REC_WORD	1786069	wordpools/wasnorm_wordpool_576.txt	LTP378	ltpFR2	1	3	NAPKIN	937	n/a	n/a	0	0	0
882.5654296875	n/a	REC_WORD	1807494	wordpools/wasnorm_wordpool_576.txt	LTP378	ltpFR2	1	3	NEUTRON	947	n/a	n/a	0	0	0
888.34716796875	n/a	REC_WORD	1819335	wordpools/wasnorm_wordpool_576.txt	LTP378	ltpFR2	1	3	TROUT	1511	n/a	n/a	0	0	0
904.298828125	n/a	REC_WORD	1852004	wordpools/wasnorm_wordpool_576.txt	LTP378	ltpFR2	1	3	PUDDING	1139	n/a	n/a	0	0	0
941.0625	n/a	WORD	1927296	wordpools/wasnorm_wordpool_576.txt	LTP378	ltpFR2	1	4	WARDROBE	1587	n/a	n/a	0	0	0
943.74365234375	n/a	WORD	1932787	wordpools/wasnorm_wordpool_576.txt	LTP378	ltpFR2	1	4	GOBLIN	645	n/a	n/a	0	0	0
946.32666015625	n/a	WORD	1938077	wordpools/wasnorm_wordpool_576.txt	LTP378	ltpFR2	1	4	IGLOO	734	n/a	n/a	0	0	0
949.00830078125	n/a	WORD	1943569	wordpools/wasnorm_wordpool_576.txt	LTP378	ltpFR2	1	4	CABBAGE	210	n/a	n/a	0	0	0
951.6572265625	n/a	WORD	1948994	wordpools/wasnorm_wordpool_576.txt	LTP378	ltpFR2	1	4	LAMP	798	n/a	n/a	0	0	0
954.3232421875	n/a	WORD	1954454	wordpools/wasnorm_wordpool_576.txt	LTP378	ltpFR2	1	4	LASER	801	n/a	n/a	0	0	0
956.93798828125	n/a	WORD	1959809	wordpools/wasnorm_wordpool_576.txt	LTP378	ltpFR2	1	4	SPHINX	1349	n/a	n/a	0	0	0
959.419921875	n/a	WORD	1964892	wordpools/wasnorm_wordpool_576.txt	LTP378	ltpFR2	1	4	BUREAU	199	n/a	n/a	0	0	0
962.203125	n/a	WORD	1970592	wordpools/wasnorm_wordpool_576.txt	LTP378	ltpFR2	1	4	SCARECROW	1245	n/a	n/a	0	0	0
964.833984375	n/a	WORD	1975980	wordpools/wasnorm_wordpool_576.txt	LTP378	ltpFR2	1	4	DRINK	498	n/a	n/a	0	0	0
967.6328125	n/a	WORD	1981712	wordpools/wasnorm_wordpool_576.txt	LTP378	ltpFR2	1	4	OUTDOORS	987	n/a	n/a	0	0	0
970.14892578125	n/a	WORD	1986865	wordpools/wasnorm_wordpool_576.txt	LTP378	ltpFR2	1	4	SPOOL	1356	n/a	n/a	0	0	0
972.91357421875	n/a	WORD	1992527	wordpools/wasnorm_wordpool_576.txt	LTP378	ltpFR2	1	4	PASTA	1021	n/a	n/a	0	0	0
975.6787109375	n/a	WORD	1998190	wordpools/wasnorm_wordpool_576.txt	LTP378	ltpFR2	1	4	SEAGULL	1261	n/a	n/a	0	0	0
978.29443359375	n/a	WORD	2003547	wordpools/wasnorm_wordpool_576.txt	LTP378	ltpFR2	1	4	CLAMP	316	n/a	n/a	0	0	0
980.943359375	n/a	WORD	2008972	wordpools/wasnorm_wordpool_576.txt	LTP378	ltpFR2	1	4	TUTU	1524	n/a	n/a	0	0	0
983.525390625	n/a	WORD	2014260	wordpools/wasnorm_wordpool_576.txt	LTP378	ltpFR2	1	4	DRESS	495	n/a	n/a	0	0	0
986.1572265625	n/a	WORD	2019650	wordpools/wasnorm_wordpool_576.txt	LTP378	ltpFR2	1	4	SCALLOP	1242	n/a	n/a	0	0	0
988.705078125	n/a	WORD	2024868	wordpools/wasnorm_wordpool_576.txt	LTP378	ltpFR2	1	4	HOOK	715	n/a	n/a	0	0	0
991.455078125	n/a	WORD	2030500	wordpools/wasnorm_wordpool_576.txt	LTP378	ltpFR2	1	4	CHAMPAGNE	278	n/a	n/a	0	0	0
993.8857421875	n/a	WORD	2035478	wordpools/wasnorm_wordpool_576.txt	LTP378	ltpFR2	1	4	FLASK	576	n/a	n/a	0	0	0
996.552734375	n/a	WORD	2040940	wordpools/wasnorm_wordpool_576.txt	LTP378	ltpFR2	1	4	EXPERT	543	n/a	n/a	0	0	0
999.0849609375	n/a	WORD	2046126	wordpools/wasnorm_wordpool_576.txt	LTP378	ltpFR2	1	4	MARKET	871	n/a	n/a	0	0	0
1001.53369140625	n/a	WORD	2051141	wordpools/wasnorm_wordpool_576.txt	LTP378	ltpFR2	1	4	SERVANT	1271	n/a	n/a	0	0	0
1003.14990234375	n/a	START	2054451	n/a	LTP378	ltpFR2	1	n/a	n/a	n/a	7	n/a	n/a	n/a	n/a
1003.99755859375	n/a	DISTRACTOR	2056187	n/a	LTP378	ltpFR2	1	4	n/a	n/a	n/a	n/a	0	0	0
1003.99853515625	n/a	PROB	2056189	n/a	LTP378	ltpFR2	1	n/a	n/a	n/a	7	14	4	2	8
1007.2646484375	n/a	PROB	2062878	n/a	LTP378	ltpFR2	1	n/a	n/a	n/a	7	17	7	9	1
1009.8115234375	n/a	PROB	2068094	n/a	LTP378	ltpFR2	1	n/a	n/a	n/a	7	16	4	5	7
1011.76025390625	n/a	PROB	2072085	n/a	LTP378	ltpFR2	1	n/a	n/a	n/a	7	14	5	2	7
1014.0615234375	n/a	PROB	2076798	n/a	LTP378	ltpFR2	1	n/a	n/a	n/a	7	19	5	9	5
1027.14892578125	n/a	STOP	2103601	n/a	LTP378	ltpFR2	1	n/a	n/a	n/a	7	n/a	n/a	n/a	n/a
1029.07080078125	n/a	REC_START	2107537	n/a	LTP378	ltpFR2	1	4	n/a	n/a	n/a	n/a	0	0	0
1034.32666015625	n/a	REC_WORD	2118301	wordpools/wasnorm_wordpool_576.txt	LTP378	ltpFR2	1	4	IGLOO	734	n/a	n/a	0	0	0
1042.560546875	n/a	REC_WORD	2135164	wordpools/wasnorm_wordpool_576.txt	LTP378	ltpFR2	1	4	GOBLIN	645	n/a	n/a	0	0	0
1045.17626953125	n/a	REC_WORD	2140521	wordpools/wasnorm_wordpool_576.txt	LTP378	ltpFR2	1	4	WARDROBE	1587	n/a	n/a	0	0	0
1047.8623046875	n/a	REC_WORD	2146022	wordpools/wasnorm_wordpool_576.txt	LTP378	ltpFR2	1	4	TUXEDO	1525	n/a	n/a	0	0	0
1049.97412109375	n/a	REC_WORD	2150347	wordpools/wasnorm_wordpool_576.txt	LTP378	ltpFR2	1	4	DRESS	495	n/a	n/a	0	0	0
1051.197265625	n/a	REC_WORD	2152852	wordpools/wasnorm_wordpool_576.txt	LTP378	ltpFR2	1	4	TUTU	1524	n/a	n/a	0	0	0
1052.4541015625	n/a	REC_WORD	2155426	wordpools/wasnorm_wordpool_576.txt	LTP378	ltpFR2	1	4	CHAMPAGNE	278	n/a	n/a	0	0	0
1054.126953125	n/a	REC_WORD	2158852	wordpools/wasnorm_wordpool_576.txt	LTP378	ltpFR2	1	4	EXPERT	543	n/a	n/a	0	0	0
1064.0595703125	n/a	REC_WORD	2179194	wordpools/wasnorm_wordpool_576.txt	LTP378	ltpFR2	1	4	HOOK	715	n/a	n/a	0	0	0
1064.74951171875	n/a	REC_WORD	2180607	wordpools/wasnorm_wordpool_576.txt	LTP378	ltpFR2	1	4	FLASK	576	n/a	n/a	0	0	0
1119.52587890625	n/a	WORD	2292789	wordpools/wasnorm_wordpool_576.txt	LTP378	ltpFR2	1	5	COUCH	386	n/a	n/a	0	0	0
1122.0419921875	n/a	WORD	2297942	wordpools/wasnorm_wordpool_576.txt	LTP378	ltpFR2	1	5	MATCH	878	n/a	n/a	0	0	0
1124.82275390625	n/a	WORD	2303637	wordpools/wasnorm_wordpool_576.txt	LTP378	ltpFR2	1	5	TOASTER	1472	n/a	n/a	0	0	0
1127.28955078125	n/a	WORD	2308689	wordpools/wasnorm_wordpool_576.txt	LTP378	ltpFR2	1	5	GYMNAST	675	n/a	n/a	0	0	0
1130.0546875	n/a	WORD	2314352	wordpools/wasnorm_wordpool_576.txt	LTP378	ltpFR2	1	5	FOOTBALL	591	n/a	n/a	0	0	0
1132.63671875	n/a	WORD	2319640	wordpools/wasnorm_wordpool_576.txt	LTP378	ltpFR2	1	5	BRANDY	169	n/a	n/a	0	0	0
1135.40234375	n/a	WORD	2325304	wordpools/wasnorm_wordpool_576.txt	LTP378	ltpFR2	1	5	YACHT	1629	n/a	n/a	0	0	0
1137.8505859375	n/a	WORD	2330318	wordpools/wasnorm_wordpool_576.txt	LTP378	ltpFR2	1	5	MARINE	869	n/a	n/a	0	0	0
1140.51611328125	n/a	WORD	2335777	wordpools/wasnorm_wordpool_576.txt	LTP378	ltpFR2	1	5	BRIEFCASE	175	n/a	n/a	0	0	0
1143.31494140625	n/a	WORD	2341509	wordpools/wasnorm_wordpool_576.txt	LTP378	ltpFR2	1	5	MAPLE	866	n/a	n/a	0	0	0
1145.76318359375	n/a	WORD	2346523	wordpools/wasnorm_wordpool_576.txt	LTP378	ltpFR2	1	5	WORKER	1621	n/a	n/a	0	0	0
1148.44580078125	n/a	WORD	2352017	wordpools/wasnorm_wordpool_576.txt	LTP378	ltpFR2	1	5	CORAL	378	n/a	n/a	0	0	0
1151.1279296875	n/a	WORD	2357510	wordpools/wasnorm_wordpool_576.txt	LTP378	ltpFR2	1	5	FIREMAN	569	n/a	n/a	0	0	0
1153.60986328125	n/a	WORD	2362593	wordpools/wasnorm_wordpool_576.txt	LTP378	ltpFR2	1	5	MILDEW	893	n/a	n/a	0	0	0
1156.19189453125	n/a	WORD	2367881	wordpools/wasnorm_wordpool_576.txt	LTP378	ltpFR2	1	5	CROWN	415	n/a	n/a	0	0	0
1158.99072265625	n/a	WORD	2373613	wordpools/wasnorm_wordpool_576.txt	LTP378	ltpFR2	1	5	QUEEN	1149	n/a	n/a	0	0	0
1161.53955078125	n/a	WORD	2378833	wordpools/wasnorm_wordpool_576.txt	LTP378	ltpFR2	1	5	PIGMENT	1066	n/a	n/a	0	0	0
1164.0546875	n/a	WORD	2383984	wordpools/wasnorm_wordpool_576.txt	LTP378	ltpFR2	1	5	CHEMIST	292	n/a	n/a	0	0	0
1166.5703125	n/a	WORD	2389136	wordpools/wasnorm_wordpool_576.txt	LTP378	ltpFR2	1	5	OFFICE	972	n/a	n/a	0	0	0
1169.01953125	n/a	WORD	2394152	wordpools/wasnorm_wordpool_576.txt	LTP378	ltpFR2	1	5	FRANCE	601	n/a	n/a	0	0	0
1171.451171875	n/a	WORD	2399132	wordpools/wasnorm_wordpool_576.txt	LTP378	ltpFR2	1	5	DRESSER	496	n/a	n/a	0	0	0
1174.05029296875	n/a	WORD	2404455	wordpools/wasnorm_wordpool_576.txt	LTP378	ltpFR2	1	5	COMET	353	n/a	n/a	0	0	0
1176.7138671875	n/a	WORD	2409910	wordpools/wasnorm_wordpool_576.txt	LTP378	ltpFR2	1	5	POET	1095	n/a	n/a	0	0	0
1179.53125	n/a	WORD	2415680	wordpools/wasnorm_wordpool_576.txt	LTP378	ltpFR2	1	5	SHOVEL	1295	n/a	n/a	0	0	0
1181.14697265625	n/a	START	2418989	n/a	LTP378	ltpFR2	1	n/a	n/a	n/a	8	n/a	n/a	n/a	n/a
1182.12109375	n/a	DISTRACTOR	2420984	n/a	LTP378	ltpFR2	1	5	n/a	n/a	n/a	n/a	0	0	0
1182.1298828125	n/a	PROB	2421002	n/a	LTP378	ltpFR2	1	n/a	n/a	n/a	8	11	3	2	6
1184.81103515625	n/a	PROB	2426493	n/a	LTP378	ltpFR2	1	n/a	n/a	n/a	8	26	9	9	8
1192.8564453125	n/a	PROB	2442970	n/a	LTP378	ltpFR2	1	n/a	n/a	n/a	8	13	7	2	4
1197.17236328125	n/a	PROB	2451809	n/a	LTP378	ltpFR2	1	n/a	n/a	n/a	8	17	6	5	2
1205.13720703125	n/a	STOP	2468121	n/a	LTP378	ltpFR2	1	n/a	n/a	n/a	8	n/a	n/a	n/a	n/a
1207.10107421875	n/a	REC_START	2472143	n/a	LTP378	ltpFR2	1	5	n/a	n/a	n/a	n/a	0	0	0
1212.98193359375	n/a	REC_WORD	2484187	wordpools/wasnorm_wordpool_576.txt	LTP378	ltpFR2	1	5	COUCH	386	n/a	n/a	0	0	0
1213.80078125	n/a	REC_WORD	2485864	wordpools/wasnorm_wordpool_576.txt	LTP378	ltpFR2	1	5	MATCH	878	n/a	n/a	0	0	0
1214.8720703125	n/a	REC_WORD	2488058	wordpools/wasnorm_wordpool_576.txt	LTP378	ltpFR2	1	5	TOASTER	1472	n/a	n/a	0	0	0
1232.4443359375	n/a	REC_WORD	2524046	wordpools/wasnorm_wordpool_576.txt	LTP378	ltpFR2	1	5	HONEY	713	n/a	n/a	0	0	0
1297.55712890625	n/a	WORD	2657397	wordpools/wasnorm_wordpool_576.txt	LTP378	ltpFR2	1	6	FRIAR	605	n/a	n/a	0	0	0
1300.13916015625	n/a	WORD	2662685	wordpools/wasnorm_wordpool_576.txt	LTP378	ltpFR2	1	6	COWBOY	395	n/a	n/a	0	0	0
1302.8369140625	n/a	WORD	2668210	wordpools/wasnorm_wordpool_576.txt	LTP378	ltpFR2	1	6	TRIBE	1505	n/a	n/a	0	0	0
1305.3369140625	n/a	WORD	2673330	wordpools/wasnorm_wordpool_576.txt	LTP378	ltpFR2	1	6	CANYON	235	n/a	n/a	0	0	0
1307.96875	n/a	WORD	2678720	wordpools/wasnorm_wordpool_576.txt	LTP378	ltpFR2	1	6	TEMPLE	1448	n/a	n/a	0	0	0
1310.45068359375	n/a	WORD	2683803	wordpools/wasnorm_wordpool_576.txt	LTP378	ltpFR2	1	6	SWITCH	1422	n/a	n/a	0	0	0
1313.015625	n/a	WORD	2689056	wordpools/wasnorm_wordpool_576.txt	LTP378	ltpFR2	1	6	SHORTCAKE	1292	n/a	n/a	0	0	0
1315.7138671875	n/a	WORD	2694582	wordpools/wasnorm_wordpool_576.txt	LTP378	ltpFR2	1	6	LAVA	804	n/a	n/a	0	0	0
1318.23046875	n/a	WORD	2699736	wordpools/wasnorm_wordpool_576.txt	LTP378	ltpFR2	1	6	WHISTLE	1606	n/a	n/a	0	0	0
1321.029296875	n/a	WORD	2705468	wordpools/wasnorm_wordpool_576.txt	LTP378	ltpFR2	1	6	THRONE	1461	n/a	n/a	0	0	0
1323.79345703125	n/a	WORD	2711129	wordpools/wasnorm_wordpool_576.txt	LTP378	ltpFR2	1	6	LONDON	843	n/a	n/a	0	0	0
1326.34326171875	n/a	WORD	2716351	wordpools/wasnorm_wordpool_576.txt	LTP378	ltpFR2	1	6	MUSTARD	935	n/a	n/a	0	0	0
1328.9423828125	n/a	WORD	2721674	wordpools/wasnorm_wordpool_576.txt	LTP378	ltpFR2	1	6	JELLO	754	n/a	n/a	0	0	0
1331.44091796875	n/a	WORD	2726791	wordpools/wasnorm_wordpool_576.txt	LTP378	ltpFR2	1	6	POCKET	1093	n/a	n/a	0	0	0
1333.90625	n/a	WORD	2731840	wordpools/wasnorm_wordpool_576.txt	LTP378	ltpFR2	1	6	RELISH	1183	n/a	n/a	0	0	0
1336.5048828125	n/a	WORD	2737162	wordpools/wasnorm_wordpool_576.txt	LTP378	ltpFR2	1	6	BRANCH	168	n/a	n/a	0	0	0
1339.1201171875	n/a	WORD	2742518	wordpools/wasnorm_wordpool_576.txt	LTP378	ltpFR2	1	6	SHRUB	1299	n/a	n/a	0	0	0
1341.8017578125	n/a	WORD	2748010	wordpools/wasnorm_wordpool_576.txt	LTP378	ltpFR2	1	6	TART	1436	n/a	n/a	0	0	0
1344.28466796875	n/a	WORD	2753095	wordpools/wasnorm_wordpool_576.txt	LTP378	ltpFR2	1	6	MILK	895	n/a	n/a	0	0	0
1346.732421875	n/a	WORD	2758108	wordpools/wasnorm_wordpool_576.txt	LTP378	ltpFR2	1	6	BANK	83	n/a	n/a	0	0	0
1349.21533203125	n/a	WORD	2763193	wordpools/wasnorm_wordpool_576.txt	LTP378	ltpFR2	1	6	NOVEL	960	n/a	n/a	0	0	0
1351.947265625	n/a	WORD	2768788	wordpools/wasnorm_wordpool_576.txt	LTP378	ltpFR2	1	6	MOP	916	n/a	n/a	0	0	0
1354.51220703125	n/a	WORD	2774041	wordpools/wasnorm_wordpool_576.txt	LTP378	ltpFR2	1	6	CRAB	397	n/a	n/a	0	0	0
1357.17822265625	n/a	WORD	2779501	wordpools/wasnorm_wordpool_576.txt	LTP378	ltpFR2	1	6	SUNRISE	1407	n/a	n/a	0	0	0
1358.79345703125	n/a	START	2782809	n/a	LTP378	ltpFR2	1	n/a	n/a	n/a	9	n/a	n/a	n/a	n/a
1359.60498046875	n/a	DISTRACTOR	2784471	n/a	LTP378	ltpFR2	1	6	n/a	n/a	n/a	n/a	0	0	0
1359.6103515625	n/a	PROB	2784482	n/a	LTP378	ltpFR2	1	n/a	n/a	n/a	9	15	3	9	3
1365.423828125	n/a	PROB	2796388	n/a	LTP378	ltpFR2	1	n/a	n/a	n/a	9	14	3	8	3
1367.64013671875	n/a	PROB	2800927	n/a	LTP378	ltpFR2	1	n/a	n/a	n/a	9	14	3	7	4
1370.02197265625	n/a	PROB	2805805	n/a	LTP378	ltpFR2	1	n/a	n/a	n/a	9	20	5	6	9
1374.86865234375	n/a	PROB	2815731	n/a	LTP378	ltpFR2	1	n/a	n/a	n/a	9	15	2	7	6
1377.95166015625	n/a	PROB	2822045	n/a	LTP378	ltpFR2	1	n/a	n/a	n/a	9	13	3	7	3
1380.25048828125	n/a	PROB	2826753	n/a	LTP378	ltpFR2	1	n/a	n/a	n/a	9	7	2	4	1
1382.4013671875	n/a	STOP	2831158	n/a	LTP378	ltpFR2	1	n/a	n/a	n/a	9	n/a	n/a	n/a	n/a
1384.71435546875	n/a	REC_START	2835895	n/a	LTP378	ltpFR2	1	6	n/a	n/a	n/a	n/a	0	0	0
1386.8193359375	n/a	REC_WORD	2840206	wordpools/wasnorm_wordpool_576.txt	LTP378	ltpFR2	1	6	COWBOY	395	n/a	n/a	0	0	0
1387.47314453125	n/a	REC_WORD	2841545	wordpools/wasnorm_wordpool_576.txt	LTP378	ltpFR2	1	6	FRIAR	605	n/a	n/a	0	0	0
1389.88525390625	n/a	REC_WORD	2846485	wordpools/wasnorm_wordpool_576.txt	LTP378	ltpFR2	1	6	TRIBE	1505	n/a	n/a	0	0	0
1391.458984375	n/a	REC_WORD	2849708	wordpools/wasnorm_wordpool_576.txt	LTP378	ltpFR2	1	6	CANYON	235	n/a	n/a	0	0	0
1394.5419921875	n/a	REC_WORD	2856022	wordpools/wasnorm_wordpool_576.txt	LTP378	ltpFR2	1	6	HORSE	719	n/a	n/a	0	0	0
1412.8447265625	n/a	REC_WORD	2893506	wordpools/wasnorm_wordpool_576.txt	LTP378	ltpFR2	1	6	SUNRISE	1407	n/a	n/a	0	0	0
1417.3642578125	n/a	REC_WORD	2902762	wordpools/wasnorm_wordpool_576.txt	LTP378	ltpFR2	1	6	LAGOON	795	n/a	n/a	0	0	0
1429.14599609375	n/a	REC_WORD	2926891	wordpools/wasnorm_wordpool_576.txt	LTP378	ltpFR2	1	6	SWITCH	1422	n/a	n/a	0	0	0
1438.12255859375	n/a	REC_WORD	2945275	wordpools/wasnorm_wordpool_576.txt	LTP378	ltpFR2	1	6	BRANCH	168	n/a	n/a	0	0	0
1439.53955078125	n/a	REC_WORD	2948177	wordpools/wasnorm_wordpool_576.txt	LTP378	ltpFR2	1	6	SHRUB	1299	n/a	n/a	0	0	0
1440.90576171875	n/a	REC_WORD	2950975	wordpools/wasnorm_wordpool_576.txt	LTP378	ltpFR2	1	6	TART	1436	n/a	n/a	0	0	0
1442.37646484375	n/a	REC_WORD	2953987	wordpools/wasnorm_wordpool_576.txt	LTP378	ltpFR2	1	6	LONDON	843	n/a	n/a	0	0	0
1475.154296875	n/a	WORD	3021116	wordpools/wasnorm_wordpool_576.txt	LTP378	ltpFR2	1	7	WOMAN	1620	n/a	n/a	0	0	0
1477.58642578125	n/a	WORD	3026097	wordpools/wasnorm_wordpool_576.txt	LTP378	ltpFR2	1	7	GROUND	666	n/a	n/a	0	0	0
1480.3525390625	n/a	WORD	3031762	wordpools/wasnorm_wordpool_576.txt	LTP378	ltpFR2	1	7	JUDGE	761	n/a	n/a	0	0	0
1482.79931640625	n/a	WORD	3036773	wordpools/wasnorm_wordpool_576.txt	LTP378	ltpFR2	1	7	VICTIM	1562	n/a	n/a	0	0	0
1485.54931640625	n/a	WORD	3042405	wordpools/wasnorm_wordpool_576.txt	LTP378	ltpFR2	1	7	COIN	343	n/a	n/a	0	0	0
1488.26513671875	n/a	WORD	3047967	wordpools/wasnorm_wordpool_576.txt	LTP378	ltpFR2	1	7	INFANT	737	n/a	n/a	0	0	0
1490.76318359375	n/a	WORD	3053083	wordpools/wasnorm_wordpool_576.txt	LTP378	ltpFR2	1	7	TUNNEL	1519	n/a	n/a	0	0	0
1493.47900390625	n/a	WORD	3058645	wordpools/wasnorm_wordpool_576.txt	LTP378	ltpFR2	1	7	RUST	1219	n/a	n/a	0	0	0
1496.24365234375	n/a	WORD	3064307	wordpools/wasnorm_wordpool_576.txt	LTP378	ltpFR2	1	7	CASKET	255	n/a	n/a	0	0	0
1498.69189453125	n/a	WORD	3069321	wordpools/wasnorm_wordpool_576.txt	LTP378	ltpFR2	1	7	CHEST	295	n/a	n/a	0	0	0
1501.2587890625	n/a	WORD	3074578	wordpools/wasnorm_wordpool_576.txt	LTP378	ltpFR2	1	7	CUSTARD	429	n/a	n/a	0	0	0
1503.806640625	n/a	WORD	3079796	wordpools/wasnorm_wordpool_576.txt	LTP378	ltpFR2	1	7	TILE	1468	n/a	n/a	0	0	0
1506.572265625	n/a	WORD	3085460	wordpools/wasnorm_wordpool_576.txt	LTP378	ltpFR2	1	7	CRITIC	410	n/a	n/a	0	0	0
1509.08837890625	n/a	WORD	3090613	wordpools/wasnorm_wordpool_576.txt	LTP378	ltpFR2	1	7	POPCORN	1104	n/a	n/a	0	0	0
1511.75244140625	n/a	WORD	3096069	wordpools/wasnorm_wordpool_576.txt	LTP378	ltpFR2	1	7	GRAVE	658	n/a	n/a	0	0	0
1514.55224609375	n/a	WORD	3101803	wordpools/wasnorm_wordpool_576.txt	LTP378	ltpFR2	1	7	PATIENT	1024	n/a	n/a	0	0	0
1517.01708984375	n/a	WORD	3106851	wordpools/wasnorm_wordpool_576.txt	LTP378	ltpFR2	1	7	BACKBONE	66	n/a	n/a	0	0	0
1519.46630859375	n/a	WORD	3111867	wordpools/wasnorm_wordpool_576.txt	LTP378	ltpFR2	1	7	CAPTIVE	240	n/a	n/a	0	0	0
1522.18212890625	n/a	WORD	3117429	wordpools/wasnorm_wordpool_576.txt	LTP378	ltpFR2	1	7	PRIMATE	1123	n/a	n/a	0	0	0
1524.9638671875	n/a	WORD	3123126	wordpools/wasnorm_wordpool_576.txt	LTP378	ltpFR2	1	7	GHETTO	633	n/a	n/a	0	0	0
1527.57861328125	n/a	WORD	3128481	wordpools/wasnorm_wordpool_576.txt	LTP378	ltpFR2	1	7	SUMMIT	1405	n/a	n/a	0	0	0
1530.2109375	n/a	WORD	3133872	wordpools/wasnorm_wordpool_576.txt	LTP378	ltpFR2	1	7	VALLEY	1545	n/a	n/a	0	0	0
1532.82568359375	n/a	WORD	3139227	wordpools/wasnorm_wordpool_576.txt	LTP378	ltpFR2	1	7	DRAGON	492	n/a	n/a	0	0	0
1535.37548828125	n/a	WORD	3144449	wordpools/wasnorm_wordpool_576.txt	LTP378	ltpFR2	1	7	PATROL	1027	n/a	n/a	0	0	0
1536.99169921875	n/a	START	3147759	n/a	LTP378	ltpFR2	1	n/a	n/a	n/a	10	n/a	n/a	n/a	n/a
1538.04443359375	n/a	DISTRACTOR	3149915	n/a	LTP378	ltpFR2	1	7	n/a	n/a	n/a	n/a	0	0	0
1538.0576171875	n/a	PROB	3149942	n/a	LTP378	ltpFR2	1	n/a	n/a	n/a	10	26	9	8	9
1549.2021484375	n/a	PROB	3172766	n/a	LTP378	ltpFR2	1	n/a	n/a	n/a	10	13	4	7	1
1551.16796875	n/a	PROB	3176792	n/a	LTP378	ltpFR2	1	n/a	n/a	n/a	10	14	3	7	4
1560.99072265625	n/a	STOP	3196909	n/a	LTP378	ltpFR2	1	n/a	n/a	n/a	10	n/a	n/a	n/a	n/a
1562.7958984375	n/a	REC_START	3200606	n/a	LTP378	ltpFR2	1	7	n/a	n/a	n/a	n/a	0	0	0
1566.134765625	n/a	REC_WORD	3207444	wordpools/wasnorm_wordpool_576.txt	LTP378	ltpFR2	1	7	DRAGON	492	n/a	n/a	0	0	0
1566.95751953125	n/a	REC_WORD	3209129	wordpools/wasnorm_wordpool_576.txt	LTP378	ltpFR2	1	7	PATROL	1027	n/a	n/a	0	0	0
1594.31689453125	n/a	REC_WORD	3265161	wordpools/wasnorm_wordpool_576.txt	LTP378	ltpFR2	1	7	WOMAN	1620	n/a	n/a	0	0	0
1600.142578125	n/a	REC_WORD	3277092	wordpools/wasnorm_wordpool_576.txt	LTP378	ltpFR2	1	7	MUSTARD	935	n/a	n/a	0	0	0
1604.79833984375	n/a	REC_WORD	3286627	wordpools/wasnorm_wordpool_576.txt	LTP378	ltpFR2	1	7	JELLO	754	n/a	n/a	0	0	0
1621.52587890625	n/a	REC_WORD	3320885	wordpools/wasnorm_wordpool_576.txt	LTP378	ltpFR2	1	7	GRAVE	658	n/a	n/a	0	0	0
1622.41064453125	n/a	REC_WORD	3322697	wordpools/wasnorm_wordpool_576.txt	LTP378	ltpFR2	1	7	PATIENT	1024	n/a	n/a	0	0	0
1653.2177734375	n/a	DISTRACTOR	3385790	n/a	LTP378	ltpFR2	1	8	n/a	n/a	n/a	n/a	0	0	0
1653.21875	n/a	START	3385792	n/a	LTP378	ltpFR2	1	n/a	n/a	n/a	11	n/a	n/a	n/a	n/a
1653.23486328125	n/a	PROB	3385825	n/a	LTP378	ltpFR2	1	n/a	n/a	n/a	11	13	7	3	3
1657.9326171875	n/a	PROB	3395446	n/a	LTP378	ltpFR2	1	n/a	n/a	n/a	11	17	8	1	8
1662.66259765625	n/a	PROB	3405133	n/a	LTP378	ltpFR2	1	n/a	n/a	n/a	11	8	1	1	6
1664.92919921875	n/a	PROB	3409775	n/a	LTP378	ltpFR2	1	n/a	n/a	n/a	11	16	8	2	6
1668.611328125	n/a	PROB	3417316	n/a	LTP378	ltpFR2	1	n/a	n/a	n/a	11	13	4	4	5
1672.1259765625	n/a	PROB	3424514	n/a	LTP378	ltpFR2	1	n/a	n/a	n/a	11	9	1	6	2
1674.2080078125	n/a	PROB	3428778	n/a	LTP378	ltpFR2	1	n/a	n/a	n/a	11	9	3	3	3
1676.60107421875	n/a	STOP	3433679	n/a	LTP378	ltpFR2	1	n/a	n/a	n/a	11	n/a	n/a	n/a	n/a
1678.373046875	n/a	WORD	3437308	wordpools/wasnorm_wordpool_576.txt	LTP378	ltpFR2	1	8	HIKER	708	n/a	n/a	0	0	0
1680.955078125	n/a	WORD	3442596	wordpools/wasnorm_wordpool_576.txt	LTP378	ltpFR2	1	8	PUDDLE	1140	n/a	n/a	0	0	0
1683.76904296875	n/a	WORD	3448359	wordpools/wasnorm_wordpool_576.txt	LTP378	ltpFR2	1	8	SALT	1229	n/a	n/a	0	0	0
1686.28564453125	n/a	WORD	3453513	wordpools/wasnorm_wordpool_576.txt	LTP378	ltpFR2	1	8	GARLIC	624	n/a	n/a	0	0	0
1688.78369140625	n/a	WORD	3458629	wordpools/wasnorm_wordpool_576.txt	LTP378	ltpFR2	1	8	BRAKE	166	n/a	n/a	0	0	0
1691.31640625	n/a	WORD	3463816	wordpools/wasnorm_wordpool_576.txt	LTP378	ltpFR2	1	8	MAILBOX	857	n/a	n/a	0	0	0
1694.015625	n/a	WORD	3469344	wordpools/wasnorm_wordpool_576.txt	LTP378	ltpFR2	1	8	RIVER	1194	n/a	n/a	0	0	0
1696.54736328125	n/a	WORD	3474529	wordpools/wasnorm_wordpool_576.txt	LTP378	ltpFR2	1	8	ITEM	746	n/a	n/a	0	0	0
1699.11328125	n/a	WORD	3479784	wordpools/wasnorm_wordpool_576.txt	LTP378	ltpFR2	1	8	MOTOR	922	n/a	n/a	0	0	0
1701.5283203125	n/a	WORD	3484730	wordpools/wasnorm_wordpool_576.txt	LTP378	ltpFR2	1	8	HERO	706	n/a	n/a	0	0	0
1704.2099609375	n/a	WORD	3490222	wordpools/wasnorm_wordpool_576.txt	LTP378	ltpFR2	1	8	HEADBAND	696	n/a	n/a	0	0	0
1706.67529296875	n/a	WORD	3495271	wordpools/wasnorm_wordpool_576.txt	LTP378	ltpFR2	1	8	LADY	794	n/a	n/a	0	0	0
1709.19091796875	n/a	WORD	3500423	wordpools/wasnorm_wordpool_576.txt	LTP378	ltpFR2	1	8	GRILL	661	n/a	n/a	0	0	0
1711.68896484375	n/a	WORD	3505539	wordpools/wasnorm_wordpool_576.txt	LTP378	ltpFR2	1	8	WAITRESS	1581	n/a	n/a	0	0	0
1714.27197265625	n/a	WORD	3510829	wordpools/wasnorm_wordpool_576.txt	LTP378	ltpFR2	1	8	SLIME	1327	n/a	n/a	0	0	0
1717.03759765625	n/a	WORD	3516493	wordpools/wasnorm_wordpool_576.txt	LTP378	ltpFR2	1	8	FUNGUS	614	n/a	n/a	0	0	0
1719.71875	n/a	WORD	3521984	wordpools/wasnorm_wordpool_576.txt	LTP378	ltpFR2	1	8	HORSE	719	n/a	n/a	0	0	0
1722.1513671875	n/a	WORD	3526966	wordpools/wasnorm_wordpool_576.txt	LTP378	ltpFR2	1	8	MARS	873	n/a	n/a	0	0	0
1724.6005859375	n/a	WORD	3531982	wordpools/wasnorm_wordpool_576.txt	LTP378	ltpFR2	1	8	SKETCH	1315	n/a	n/a	0	0	0
1727.0322265625	n/a	WORD	3536962	wordpools/wasnorm_wordpool_576.txt	LTP378	ltpFR2	1	8	PARTNER	1017	n/a	n/a	0	0	0
1729.49853515625	n/a	WORD	3542013	wordpools/wasnorm_wordpool_576.txt	LTP378	ltpFR2	1	8	KETCHUP	771	n/a	n/a	0	0	0
1732.11328125	n/a	WORD	3547368	wordpools/wasnorm_wordpool_576.txt	LTP378	ltpFR2	1	8	FREEZER	604	n/a	n/a	0	0	0
1734.912109375	n/a	WORD	3553100	wordpools/wasnorm_wordpool_576.txt	LTP378	ltpFR2	1	8	SUBWAY	1400	n/a	n/a	0	0	0
1737.361328125	n/a	WORD	3558116	wordpools/wasnorm_wordpool_576.txt	LTP378	ltpFR2	1	8	SADDLE	1221	n/a	n/a	0	0	0
1738.97705078125	n/a	START	3561425	n/a	LTP378	ltpFR2	1	n/a	n/a	n/a	12	n/a	n/a	n/a	n/a
1739.97021484375	n/a	DISTRACTOR	3563459	n/a	LTP378	ltpFR2	1	8	n/a	n/a	n/a	n/a	0	0	0
1739.97607421875	n/a	PROB	3563471	n/a	LTP378	ltpFR2	1	n/a	n/a	n/a	12	18	8	5	5
1743.7900390625	n/a	PROB	3571282	n/a	LTP378	ltpFR2	1	n/a	n/a	n/a	12	16	7	6	3
1745.9736328125	n/a	PROB	3575754	n/a	LTP378	ltpFR2	1	n/a	n/a	n/a	12	13	3	2	8
1748.521484375	n/a	PROB	3580972	n/a	LTP378	ltpFR2	1	n/a	n/a	n/a	12	19	7	4	8
1752.62060546875	n/a	PROB	3589367	n/a	LTP378	ltpFR2	1	n/a	n/a	n/a	12	18	3	7	8
1755.1025390625	n/a	PROB	3594450	n/a	LTP378	ltpFR2	1	n/a	n/a	n/a	12	8	6	1	1
1756.767578125	n/a	PROB	3597860	n/a	LTP378	ltpFR2	1	n/a	n/a	n/a	12	16	4	5	7
1759.3505859375	n/a	PROB	3603150	n/a	LTP378	ltpFR2	1	n/a	n/a	n/a	12	17	9	1	7
1762.193359375	n/a	STOP	3608972	n/a	LTP378	ltpFR2	1	n/a	n/a	n/a	12	n/a	n/a	n/a	n/a
1764.830078125	n/a	REC_START	3614372	n/a	LTP378	ltpFR2	1	8	n/a	n/a	n/a	n/a	0	0	0
1788.15234375	n/a	REC_WORD	3662136	wordpools/wasnorm_wordpool_576.txt	LTP378	ltpFR2	1	8	HONEY	713	n/a	n/a	0	0	0
1791.6474609375	n/a	REC_WORD	3669294	wordpools/wasnorm_wordpool_576.txt	LTP378	ltpFR2	1	8	PARTNER	1017	n/a	n/a	0	0	0
1792.4501953125	n/a	REC_WORD	3670938	wordpools/wasnorm_wordpool_576.txt	LTP378	ltpFR2	1	8	SKETCH	1315	n/a	n/a	0	0	0
1841.3779296875	n/a	REST_REWET	3771142	n/a	LTP378	ltpFR2	1	8	n/a	n/a	n/a	n/a	0	0	0
1943.67626953125	n/a	WORD	3980649	wordpools/wasnorm_wordpool_576.txt	LTP378	ltpFR2	1	9	SCULPTURE	1258	n/a	n/a	0	0	0
1946.2763671875	n/a	WORD	3985974	wordpools/wasnorm_wordpool_576.txt	LTP378	ltpFR2	1	9	WRENCH	1625	n/a	n/a	0	0	0
1949.025390625	n/a	WORD	3991604	wordpools/wasnorm_wordpool_576.txt	LTP378	ltpFR2	1	9	REBEL	1172	n/a	n/a	0	0	0
1951.45703125	n/a	WORD	3996584	wordpools/wasnorm_wordpool_576.txt	LTP378	ltpFR2	1	9	VELVET	1555	n/a	n/a	0	0	0
1954.25634765625	n/a	WORD	4002317	wordpools/wasnorm_wordpool_576.txt	LTP378	ltpFR2	1	9	PIANO	1057	n/a	n/a	0	0	0
1956.8369140625	n/a	WORD	4007602	wordpools/wasnorm_wordpool_576.txt	LTP378	ltpFR2	1	9	ELBOW	520	n/a	n/a	0	0	0
1959.5869140625	n/a	WORD	4013234	wordpools/wasnorm_wordpool_576.txt	LTP378	ltpFR2	1	9	BODY	145	n/a	n/a	0	0	0
1962.36865234375	n/a	WORD	4018931	wordpools/wasnorm_wordpool_576.txt	LTP378	ltpFR2	1	9	PORK	1108	n/a	n/a	0	0	0
1965.017578125	n/a	WORD	4024356	wordpools/wasnorm_wordpool_576.txt	LTP378	ltpFR2	1	9	FEMALE	559	n/a	n/a	0	0	0
1967.56689453125	n/a	WORD	4029577	wordpools/wasnorm_wordpool_576.txt	LTP378	ltpFR2	1	9	SOFTBALL	1343	n/a	n/a	0	0	0
1970.36474609375	n/a	WORD	4035307	wordpools/wasnorm_wordpool_576.txt	LTP378	ltpFR2	1	9	CATCHER	258	n/a	n/a	0	0	0
1972.99658203125	n/a	WORD	4040697	wordpools/wasnorm_wordpool_576.txt	LTP378	ltpFR2	1	9	RADISH	1158	n/a	n/a	0	0	0
1975.6123046875	n/a	WORD	4046054	wordpools/wasnorm_wordpool_576.txt	LTP378	ltpFR2	1	9	SIBLING	1301	n/a	n/a	0	0	0
1978.2275390625	n/a	WORD	4051410	wordpools/wasnorm_wordpool_576.txt	LTP378	ltpFR2	1	9	BOX	159	n/a	n/a	0	0	0
1980.859375	n/a	WORD	4056800	wordpools/wasnorm_wordpool_576.txt	LTP378	ltpFR2	1	9	HOSTESS	723	n/a	n/a	0	0	0
1983.4580078125	n/a	WORD	4062122	wordpools/wasnorm_wordpool_576.txt	LTP378	ltpFR2	1	9	PAPER	1011	n/a	n/a	0	0	0
1986.2412109375	n/a	WORD	4067822	wordpools/wasnorm_wordpool_576.txt	LTP378	ltpFR2	1	9	LETTUCE	814	n/a	n/a	0	0	0
1988.9560546875	n/a	WORD	4073382	wordpools/wasnorm_wordpool_576.txt	LTP378	ltpFR2	1	9	BLADE	134	n/a	n/a	0	0	0
1991.60498046875	n/a	WORD	4078807	wordpools/wasnorm_wordpool_576.txt	LTP378	ltpFR2	1	9	SCALPEL	1243	n/a	n/a	0	0	0
1994.2197265625	n/a	WORD	4084162	wordpools/wasnorm_wordpool_576.txt	LTP378	ltpFR2	1	9	OINTMENT	974	n/a	n/a	0	0	0
1996.7509765625	n/a	WORD	4089346	wordpools/wasnorm_wordpool_576.txt	LTP378	ltpFR2	1	9	PALACE	1006	n/a	n/a	0	0	0
1999.20068359375	n/a	WORD	4094363	wordpools/wasnorm_wordpool_576.txt	LTP378	ltpFR2	1	9	UNCLE	1536	n/a	n/a	0	0	0
2001.982421875	n/a	WORD	4100060	wordpools/wasnorm_wordpool_576.txt	LTP378	ltpFR2	1	9	LOVER	846	n/a	n/a	0	0	0
2004.54833984375	n/a	WORD	4105315	wordpools/wasnorm_wordpool_576.txt	LTP378	ltpFR2	1	9	FLIPPER	580	n/a	n/a	0	0	0
2006.16455078125	n/a	START	4108625	n/a	LTP378	ltpFR2	1	n/a	n/a	n/a	13	n/a	n/a	n/a	n/a
2007.12060546875	n/a	DISTRACTOR	4110583	n/a	LTP378	ltpFR2	1	9	n/a	n/a	n/a	n/a	0	0	0
2007.1474609375	n/a	PROB	4110638	n/a	LTP378	ltpFR2	1	n/a	n/a	n/a	13	18	7	2	9
2013.62744140625	n/a	PROB	4123909	n/a	LTP378	ltpFR2	1	n/a	n/a	n/a	13	7	2	2	3
2016.7412109375	n/a	PROB	4130286	n/a	LTP378	ltpFR2	1	n/a	n/a	n/a	13	19	5	7	7
2020.52392578125	n/a	PROB	4138033	n/a	LTP378	ltpFR2	1	n/a	n/a	n/a	13	12	3	3	6
2024.57177734375	n/a	PROB	4146323	n/a	LTP378	ltpFR2	1	n/a	n/a	n/a	13	14	2	4	8
2030.16259765625	n/a	STOP	4157773	n/a	LTP378	ltpFR2	1	n/a	n/a	n/a	13	n/a	n/a	n/a	n/a
2031.95263671875	n/a	REC_START	4161439	n/a	LTP378	ltpFR2	1	9	n/a	n/a	n/a	n/a	0	0	0
2033.74169921875	n/a	REC_WORD	4165103	wordpools/wasnorm_wordpool_576.txt	LTP378	ltpFR2	1	9	SCULPTURE	1258	n/a	n/a	0	0	0
2055.974609375	n/a	REC_WORD	4210636	wordpools/wasnorm_wordpool_576.txt	LTP378	ltpFR2	1	9	PORK	1108	n/a	n/a	0	0	0
2056.83203125	n/a	REC_WORD	4212392	wordpools/wasnorm_wordpool_576.txt	LTP378	ltpFR2	1	9	WOMAN	1620	n/a	n/a	0	0	0
2058.125	n/a	REC_WORD	4215040	wordpools/wasnorm_wordpool_576.txt	LTP378	ltpFR2	1	9	SOFTBALL	1343	n/a	n/a	0	0	0
2059.52392578125	n/a	REC_WORD	4217905	wordpools/wasnorm_wordpool_576.txt	LTP378	ltpFR2	1	9	CATCHER	258	n/a	n/a	0	0	0
2093.02783203125	n/a	REC_WORD	4286521	wordpools/wasnorm_wordpool_576.txt	LTP378	ltpFR2	1	9	PAPER	1011	n/a	n/a	0	0	0
2122.37451171875	n/a	DISTRACTOR	4346623	n/a	LTP378	ltpFR2	1	10	n/a	n/a	n/a	n/a	0	0	0
2122.37451171875	n/a	START	4346623	n/a	LTP378	ltpFR2	1	n/a	n/a	n/a	14	n/a	n/a	n/a	n/a
2122.3916015625	n/a	PROB	4346658	n/a	LTP378	ltpFR2	1	n/a	n/a	n/a	14	10	4	4	2
2125.189453125	n/a	PROB	4352388	n/a	LTP378	ltpFR2	1	n/a	n/a	n/a	14	14	6	1	7
2128.8037109375	n/a	PROB	4359790	n/a	LTP378	ltpFR2	1	n/a	n/a	n/a	14	22	7	8	7
2134.4853515625	n/a	PROB	4371426	n/a	LTP378	ltpFR2	1	n/a	n/a	n/a	14	22	5	8	9
2146.3740234375	n/a	STOP	4395774	n/a	LTP378	ltpFR2	1	n/a	n/a	n/a	14	n/a	n/a	n/a	n/a
2147.4130859375	n/a	WORD	4397902	wordpools/wasnorm_wordpool_576.txt	LTP378	ltpFR2	1	10	BROOK	177	n/a	n/a	0	0	0
2150.06103515625	n/a	WORD	4403325	wordpools/wasnorm_wordpool_576.txt	LTP378	ltpFR2	1	10	GIRL	637	n/a	n/a	0	0	0
2152.57666015625	n/a	WORD	4408477	wordpools/wasnorm_wordpool_576.txt	LTP378	ltpFR2	1	10	SIDEWALK	1303	n/a	n/a	0	0	0
2155.19287109375	n/a	WORD	4413835	wordpools/wasnorm_wordpool_576.txt	LTP378	ltpFR2	1	10	KITCHEN	778	n/a	n/a	0	0	0
2157.806640625	n/a	WORD	4419188	wordpools/wasnorm_wordpool_576.txt	LTP378	ltpFR2	1	10	CUPBOARD	425	n/a	n/a	0	0	0
2160.556640625	n/a	WORD	4424820	wordpools/wasnorm_wordpool_576.txt	LTP378	ltpFR2	1	10	BOUQUET	157	n/a	n/a	0	0	0
2163.1884765625	n/a	WORD	4430210	wordpools/wasnorm_wordpool_576.txt	LTP378	ltpFR2	1	10	CITRUS	313	n/a	n/a	0	0	0
2165.9375	n/a	WORD	4435840	wordpools/wasnorm_wordpool_576.txt	LTP378	ltpFR2	1	10	HORNET	718	n/a	n/a	0	0	0
2168.55224609375	n/a	WORD	4441195	wordpools/wasnorm_wordpool_576.txt	LTP378	ltpFR2	1	10	FOREHEAD	592	n/a	n/a	0	0	0
2171.1513671875	n/a	WORD	4446518	wordpools/wasnorm_wordpool_576.txt	LTP378	ltpFR2	1	10	SODA	1341	n/a	n/a	0	0	0
2173.68212890625	n/a	WORD	4451701	wordpools/wasnorm_wordpool_576.txt	LTP378	ltpFR2	1	10	BREAST	171	n/a	n/a	0	0	0
2176.4150390625	n/a	WORD	4457298	wordpools/wasnorm_wordpool_576.txt	LTP378	ltpFR2	1	10	PERFUME	1049	n/a	n/a	0	0	0
2179.14697265625	n/a	WORD	4462893	wordpools/wasnorm_wordpool_576.txt	LTP378	ltpFR2	1	10	COOKBOOK	373	n/a	n/a	0	0	0
2181.64501953125	n/a	WORD	4468009	wordpools/wasnorm_wordpool_576.txt	LTP378	ltpFR2	1	10	SUPPER	1411	n/a	n/a	0	0	0
2184.19482421875	n/a	WORD	4473231	wordpools/wasnorm_wordpool_576.txt	LTP378	ltpFR2	1	10	SPOON	1357	n/a	n/a	0	0	0
2186.77587890625	n/a	WORD	4478517	wordpools/wasnorm_wordpool_576.txt	LTP378	ltpFR2	1	10	WIDOW	1608	n/a	n/a	0	0	0
2189.525390625	n/a	WORD	4484148	wordpools/wasnorm_wordpool_576.txt	LTP378	ltpFR2	1	10	PEPPER	1047	n/a	n/a	0	0	0
2192.15771484375	n/a	WORD	4489539	wordpools/wasnorm_wordpool_576.txt	LTP378	ltpFR2	1	10	SHARK	1275	n/a	n/a	0	0	0
2194.6064453125	n/a	WORD	4494554	wordpools/wasnorm_wordpool_576.txt	LTP378	ltpFR2	1	10	LAKE	796	n/a	n/a	0	0	0
2197.1552734375	n/a	WORD	4499774	wordpools/wasnorm_wordpool_576.txt	LTP378	ltpFR2	1	10	GRAVEL	659	n/a	n/a	0	0	0
2199.88720703125	n/a	WORD	4505369	wordpools/wasnorm_wordpool_576.txt	LTP378	ltpFR2	1	10	KNAPSACK	783	n/a	n/a	0	0	0
2202.486328125	n/a	WORD	4510692	wordpools/wasnorm_wordpool_576.txt	LTP378	ltpFR2	1	10	MATTRESS	879	n/a	n/a	0	0	0
2205.201171875	n/a	WORD	4516252	wordpools/wasnorm_wordpool_576.txt	LTP378	ltpFR2	1	10	ORANGE	980	n/a	n/a	0	0	0
2207.89990234375	n/a	WORD	4521779	wordpools/wasnorm_wordpool_576.txt	LTP378	ltpFR2	1	10	QUARTER	1148	n/a	n/a	0	0	0
2209.51611328125	n/a	START	4525089	n/a	LTP378	ltpFR2	1	n/a	n/a	n/a	15	n/a	n/a	n/a	n/a
2210.5078125	n/a	DISTRACTOR	4527120	n/a	LTP378	ltpFR2	1	10	n/a	n/a	n/a	n/a	0	0	0
2210.51611328125	n/a	PROB	4527137	n/a	LTP378	ltpFR2	1	n/a	n/a	n/a	15	22	7	8	7
2213.41357421875	n/a	PROB	4533071	n/a	LTP378	ltpFR2	1	n/a	n/a	n/a	15	13	7	5	1
2216.61279296875	n/a	PROB	4539623	n/a	LTP378	ltpFR2	1	n/a	n/a	n/a	15	13	1	5	7
2218.19482421875	n/a	PROB	4542863	n/a	LTP378	ltpFR2	1	n/a	n/a	n/a	15	8	1	2	5
2221.21044921875	n/a	PROB	4549039	n/a	LTP378	ltpFR2	1	n/a	n/a	n/a	15	14	5	7	2
2223.65869140625	n/a	PROB	4554053	n/a	LTP378	ltpFR2	1	n/a	n/a	n/a	15	12	1	5	6
2225.25830078125	n/a	PROB	4557329	n/a	LTP378	ltpFR2	1	n/a	n/a	n/a	15	6	1	1	4
2228.50634765625	n/a	PROB	4563981	n/a	LTP378	ltpFR2	1	n/a	n/a	n/a	15	20	7	7	6
2233.51416015625	n/a	STOP	4574237	n/a	LTP378	ltpFR2	1	n/a	n/a	n/a	15	n/a	n/a	n/a	n/a
2235.43701171875	n/a	REC_START	4578175	n/a	LTP378	ltpFR2	1	10	n/a	n/a	n/a	n/a	0	0	0
2244.35400390625	n/a	REC_WORD	4596437	wordpools/wasnorm_wordpool_576.txt	LTP378	ltpFR2	1	10	BROOK	177	n/a	n/a	0	0	0
2247.73046875	n/a	REC_WORD	4603352	wordpools/wasnorm_wordpool_576.txt	LTP378	ltpFR2	1	10	SIDEWALK	1303	n/a	n/a	0	0	0
2251.16064453125	n/a	REC_WORD	4610377	wordpools/wasnorm_wordpool_576.txt	LTP378	ltpFR2	1	10	WOMAN	1620	n/a	n/a	0	0	0
2267.5751953125	n/a	REC_WORD	4643994	wordpools/wasnorm_wordpool_576.txt	LTP378	ltpFR2	1	10	BOUQUET	157	n/a	n/a	0	0	0
2269.59375	n/a	REC_WORD	4648128	wordpools/wasnorm_wordpool_576.txt	LTP378	ltpFR2	1	10	HORNET	718	n/a	n/a	0	0	0
2272.15380859375	n/a	REC_WORD	4653371	wordpools/wasnorm_wordpool_576.txt	LTP378	ltpFR2	1	10	CUPBOARD	425	n/a	n/a	0	0	0
2279.58154296875	n/a	REC_WORD	4668583	wordpools/wasnorm_wordpool_576.txt	LTP378	ltpFR2	1	10	ORANGE	980	n/a	n/a	0	0	0
2282.88037109375	n/a	REC_WORD	4675339	wordpools/wasnorm_wordpool_576.txt	LTP378	ltpFR2	1	10	MATTRESS	879	n/a	n/a	0	0	0
2286.11669921875	n/a	REC_WORD	4681967	wordpools/wasnorm_wordpool_576.txt	LTP378	ltpFR2	1	10	STING	-1	n/a	n/a	0	0	0
2325.89306640625	n/a	DISTRACTOR	4763429	n/a	LTP378	ltpFR2	1	11	n/a	n/a	n/a	n/a	0	0	0
2325.89306640625	n/a	START	4763429	n/a	LTP378	ltpFR2	1	n/a	n/a	n/a	16	n/a	n/a	n/a	n/a
2325.9091796875	n/a	PROB	4763462	n/a	LTP378	ltpFR2	1	n/a	n/a	n/a	16	22	5	8	9
2329.85791015625	n/a	PROB	4771549	n/a	LTP378	ltpFR2	1	n/a	n/a	n/a	16	15	3	7	5
2332.82177734375	n/a	PROB	4777619	n/a	LTP378	ltpFR2	1	n/a	n/a	n/a	16	10	3	2	5
2335.8037109375	n/a	PROB	4783726	n/a	LTP378	ltpFR2	1	n/a	n/a	n/a	16	18	4	5	9
2338.28662109375	n/a	PROB	4788811	n/a	LTP378	ltpFR2	1	n/a	n/a	n/a	16	13	7	2	4
2341.6845703125	n/a	PROB	4795770	n/a	LTP378	ltpFR2	1	n/a	n/a	n/a	16	17	9	5	3
2344.2333984375	n/a	PROB	4800990	n/a	LTP378	ltpFR2	1	n/a	n/a	n/a	16	13	7	5	1
2349.892578125	n/a	STOP	4812580	n/a	LTP378	ltpFR2	1	n/a	n/a	n/a	16	n/a	n/a	n/a	n/a
2350.947265625	n/a	WORD	4814740	wordpools/wasnorm_wordpool_576.txt	LTP378	ltpFR2	1	11	PROTON	1132	n/a	n/a	0	0	0
2353.61328125	n/a	WORD	4820200	wordpools/wasnorm_wordpool_576.txt	LTP378	ltpFR2	1	11	CAFE	216	n/a	n/a	0	0	0
2356.361328125	n/a	WORD	4825828	wordpools/wasnorm_wordpool_576.txt	LTP378	ltpFR2	1	11	SHELTER	1282	n/a	n/a	0	0	0
2359.14306640625	n/a	WORD	4831525	wordpools/wasnorm_wordpool_576.txt	LTP378	ltpFR2	1	11	MONEY	908	n/a	n/a	0	0	0
2361.958984375	n/a	WORD	4837292	wordpools/wasnorm_wordpool_576.txt	LTP378	ltpFR2	1	11	SKILLET	1317	n/a	n/a	0	0	0
2364.5078125	n/a	WORD	4842512	wordpools/wasnorm_wordpool_576.txt	LTP378	ltpFR2	1	11	BRICK	172	n/a	n/a	0	0	0
2366.97265625	n/a	WORD	4847560	wordpools/wasnorm_wordpool_576.txt	LTP378	ltpFR2	1	11	PUPIL	1143	n/a	n/a	0	0	0
2369.43896484375	n/a	WORD	4852611	wordpools/wasnorm_wordpool_576.txt	LTP378	ltpFR2	1	11	SUNSET	1408	n/a	n/a	0	0	0
2371.98779296875	n/a	WORD	4857831	wordpools/wasnorm_wordpool_576.txt	LTP378	ltpFR2	1	11	BROTHER	179	n/a	n/a	0	0	0
2374.75146484375	n/a	WORD	4863491	wordpools/wasnorm_wordpool_576.txt	LTP378	ltpFR2	1	11	EUROPE	541	n/a	n/a	0	0	0
2377.45166015625	n/a	WORD	4869021	wordpools/wasnorm_wordpool_576.txt	LTP378	ltpFR2	1	11	JAPAN	749	n/a	n/a	0	0	0
2380.25048828125	n/a	WORD	4874753	wordpools/wasnorm_wordpool_576.txt	LTP378	ltpFR2	1	11	RIFLE	1192	n/a	n/a	0	0	0
2382.79736328125	n/a	WORD	4879969	wordpools/wasnorm_wordpool_576.txt	LTP378	ltpFR2	1	11	EMPIRE	530	n/a	n/a	0	0	0
2385.314453125	n/a	WORD	4885124	wordpools/wasnorm_wordpool_576.txt	LTP378	ltpFR2	1	11	MASK	876	n/a	n/a	0	0	0
2387.76220703125	n/a	WORD	4890137	wordpools/wasnorm_wordpool_576.txt	LTP378	ltpFR2	1	11	HOOD	714	n/a	n/a	0	0	0
2390.294921875	n/a	WORD	4895324	wordpools/wasnorm_wordpool_576.txt	LTP378	ltpFR2	1	11	MESSAGE	888	n/a	n/a	0	0	0
2393.01025390625	n/a	WORD	4900885	wordpools/wasnorm_wordpool_576.txt	LTP378	ltpFR2	1	11	POISON	1096	n/a	n/a	0	0	0
2395.791015625	n/a	WORD	4906580	wordpools/wasnorm_wordpool_576.txt	LTP378	ltpFR2	1	11	SNAKE	1333	n/a	n/a	0	0	0
2398.3076171875	n/a	WORD	4911734	wordpools/wasnorm_wordpool_576.txt	LTP378	ltpFR2	1	11	FARMER	553	n/a	n/a	0	0	0
2400.9228515625	n/a	WORD	4917090	wordpools/wasnorm_wordpool_576.txt	LTP378	ltpFR2	1	11	COBRA	336	n/a	n/a	0	0	0
2403.6875	n/a	WORD	4922752	wordpools/wasnorm_wordpool_576.txt	LTP378	ltpFR2	1	11	CARROT	249	n/a	n/a	0	0	0
2406.32080078125	n/a	WORD	4928145	wordpools/wasnorm_wordpool_576.txt	LTP378	ltpFR2	1	11	STOVE	1388	n/a	n/a	0	0	0
2408.86962890625	n/a	WORD	4933365	wordpools/wasnorm_wordpool_576.txt	LTP378	ltpFR2	1	11	LEG	809	n/a	n/a	0	0	0
2411.58447265625	n/a	WORD	4938925	wordpools/wasnorm_wordpool_576.txt	LTP378	ltpFR2	1	11	MEAT	883	n/a	n/a	0	0	0
2413.201171875	n/a	START	4942236	n/a	LTP378	ltpFR2	1	n/a	n/a	n/a	17	n/a	n/a	n/a	n/a
2414.189453125	n/a	DISTRACTOR	4944260	n/a	LTP378	ltpFR2	1	11	n/a	n/a	n/a	n/a	0	0	0
2414.2001953125	n/a	PROB	4944282	n/a	LTP378	ltpFR2	1	n/a	n/a	n/a	17	12	6	2	4
2416.43212890625	n/a	PROB	4948853	n/a	LTP378	ltpFR2	1	n/a	n/a	n/a	17	15	5	6	4
2420.56396484375	n/a	PROB	4957315	n/a	LTP378	ltpFR2	1	n/a	n/a	n/a	17	16	4	9	3
2424.27880859375	n/a	PROB	4964923	n/a	LTP378	ltpFR2	1	n/a	n/a	n/a	17	15	6	4	5
2426.7099609375	n/a	PROB	4969902	n/a	LTP378	ltpFR2	1	n/a	n/a	n/a	17	19	7	3	9
2437.20068359375	n/a	STOP	4991387	n/a	LTP378	ltpFR2	1	n/a	n/a	n/a	17	n/a	n/a	n/a	n/a
2438.98876953125	n/a	REC_START	4995049	n/a	LTP378	ltpFR2	1	11	n/a	n/a	n/a	n/a	0	0	0
2446.662109375	n/a	REC_WORD	5010764	wordpools/wasnorm_wordpool_576.txt	LTP378	ltpFR2	1	11	EUROPE	541	n/a	n/a	0	0	0
2447.49951171875	n/a	REC_WORD	5012479	wordpools/wasnorm_wordpool_576.txt	LTP378	ltpFR2	1	11	JAPAN	749	n/a	n/a	0	0	0
2448.7021484375	n/a	REC_WORD	5014942	wordpools/wasnorm_wordpool_576.txt	LTP378	ltpFR2	1	11	RIFLE	1192	n/a	n/a	0	0	0
2453.55126953125	n/a	REC_WORD	5024873	wordpools/wasnorm_wordpool_576.txt	LTP378	ltpFR2	1	11	SNAKE	1333	n/a	n/a	0	0	0
2454.39990234375	n/a	REC_WORD	5026611	wordpools/wasnorm_wordpool_576.txt	LTP378	ltpFR2	1	11	POISON	1096	n/a	n/a	0	0	0
2455.19921875	n/a	REC_WORD	5028248	wordpools/wasnorm_wordpool_576.txt	LTP378	ltpFR2	1	11	MESSAGE	888	n/a	n/a	0	0	0
2455.98486328125	n/a	REC_WORD	5029857	wordpools/wasnorm_wordpool_576.txt	LTP378	ltpFR2	1	11	COBRA	336	n/a	n/a	0	0	0
2482.03125	n/a	REC_WORD	5083200	wordpools/wasnorm_wordpool_576.txt	LTP378	ltpFR2	1	11	PROTON	1132	n/a	n/a	0	0	0
2482.97021484375	n/a	REC_WORD	5085123	wordpools/wasnorm_wordpool_576.txt	LTP378	ltpFR2	1	11	CAFE	216	n/a	n/a	0	0	0
2489.69580078125	n/a	REC_WORD	5098897	wordpools/wasnorm_wordpool_576.txt	LTP378	ltpFR2	1	11	SKILLET	1317	n/a	n/a	0	0	0
2529.44482421875	n/a	WORD	5180303	wordpools/wasnorm_wordpool_576.txt	LTP378	ltpFR2	1	12	BANQUET	86	n/a	n/a	0	0	0
2532.12646484375	n/a	WORD	5185795	wordpools/wasnorm_wordpool_576.txt	LTP378	ltpFR2	1	12	PLATE	1086	n/a	n/a	0	0	0
2534.8076171875	n/a	WORD	5191286	wordpools/wasnorm_wordpool_576.txt	LTP378	ltpFR2	1	12	BUTCHER	203	n/a	n/a	0	0	0
2537.5234375	n/a	WORD	5196848	wordpools/wasnorm_wordpool_576.txt	LTP378	ltpFR2	1	12	GALLON	618	n/a	n/a	0	0	0
2540.1064453125	n/a	WORD	5202138	wordpools/wasnorm_wordpool_576.txt	LTP378	ltpFR2	1	12	CYCLONE	431	n/a	n/a	0	0	0
2542.7373046875	n/a	WORD	5207526	wordpools/wasnorm_wordpool_576.txt	LTP378	ltpFR2	1	12	SWIMMER	1420	n/a	n/a	0	0	0
2545.287109375	n/a	WORD	5212748	wordpools/wasnorm_wordpool_576.txt	LTP378	ltpFR2	1	12	LIVER	833	n/a	n/a	0	0	0
2548.03515625	n/a	WORD	5218376	wordpools/wasnorm_wordpool_576.txt	LTP378	ltpFR2	1	12	CHILD	299	n/a	n/a	0	0	0
2550.583984375	n/a	WORD	5223596	wordpools/wasnorm_wordpool_576.txt	LTP378	ltpFR2	1	12	TRACTOR	1493	n/a	n/a	0	0	0
2553.25	n/a	WORD	5229056	wordpools/wasnorm_wordpool_576.txt	LTP378	ltpFR2	1	12	ORCHID	982	n/a	n/a	0	0	0
2555.6806640625	n/a	WORD	5234034	wordpools/wasnorm_wordpool_576.txt	LTP378	ltpFR2	1	12	SPOUSE	1358	n/a	n/a	0	0	0
2558.11376953125	n/a	WORD	5239017	wordpools/wasnorm_wordpool_576.txt	LTP378	ltpFR2	1	12	PLUTO	1092	n/a	n/a	0	0	0
2560.61181640625	n/a	WORD	5244133	wordpools/wasnorm_wordpool_576.txt	LTP378	ltpFR2	1	12	SHERIFF	1284	n/a	n/a	0	0	0
2563.39453125	n/a	WORD	5249832	wordpools/wasnorm_wordpool_576.txt	LTP378	ltpFR2	1	12	BLOCKADE	137	n/a	n/a	0	0	0
2566.17626953125	n/a	WORD	5255529	wordpools/wasnorm_wordpool_576.txt	LTP378	ltpFR2	1	12	CONTRACT	368	n/a	n/a	0	0	0
2568.9423828125	n/a	WORD	5261194	wordpools/wasnorm_wordpool_576.txt	LTP378	ltpFR2	1	12	PEDAL	1037	n/a	n/a	0	0	0
2571.75634765625	n/a	WORD	5266957	wordpools/wasnorm_wordpool_576.txt	LTP378	ltpFR2	1	12	HUSBAND	728	n/a	n/a	0	0	0
2574.43896484375	n/a	WORD	5272451	wordpools/wasnorm_wordpool_576.txt	LTP378	ltpFR2	1	12	BURGLAR	200	n/a	n/a	0	0	0
2576.98828125	n/a	WORD	5277672	wordpools/wasnorm_wordpool_576.txt	LTP378	ltpFR2	1	12	FILM	565	n/a	n/a	0	0	0
2579.71923828125	n/a	WORD	5283265	wordpools/wasnorm_wordpool_576.txt	LTP378	ltpFR2	1	12	HEDGE	699	n/a	n/a	0	0	0
2582.35205078125	n/a	WORD	5288657	wordpools/wasnorm_wordpool_576.txt	LTP378	ltpFR2	1	12	BADGE	68	n/a	n/a	0	0	0
2585.11767578125	n/a	WORD	5294321	wordpools/wasnorm_wordpool_576.txt	LTP378	ltpFR2	1	12	FLAG	573	n/a	n/a	0	0	0
2587.66455078125	n/a	WORD	5299537	wordpools/wasnorm_wordpool_576.txt	LTP378	ltpFR2	1	12	STATUE	1374	n/a	n/a	0	0	0
2590.3818359375	n/a	WORD	5305102	wordpools/wasnorm_wordpool_576.txt	LTP378	ltpFR2	1	12	IDOL	733	n/a	n/a	0	0	0
2591.99755859375	n/a	START	5308411	n/a	LTP378	ltpFR2	1	n/a	n/a	n/a	18	n/a	n/a	n/a	n/a
2592.9326171875	n/a	DISTRACTOR	5310326	n/a	LTP378	ltpFR2	1	12	n/a	n/a	n/a	n/a	0	0	0
2592.94677734375	n/a	PROB	5310355	n/a	LTP378	ltpFR2	1	n/a	n/a	n/a	18	16	8	4	4
2596.6943359375	n/a	PROB	5318030	n/a	LTP378	ltpFR2	1	n/a	n/a	n/a	18	15	4	9	2
2600.16015625	n/a	PROB	5325128	n/a	LTP378	ltpFR2	1	n/a	n/a	n/a	18	16	7	8	1
2602.30908203125	n/a	PROB	5329529	n/a	LTP378	ltpFR2	1	n/a	n/a	n/a	18	25	9	8	8
2606.873046875	n/a	PROB	5338876	n/a	LTP378	ltpFR2	1	n/a	n/a	n/a	18	24	9	7	8
2615.9970703125	n/a	STOP	5357562	n/a	LTP378	ltpFR2	1	n/a	n/a	n/a	18	n/a	n/a	n/a	n/a
2617.80078125	n/a	REC_START	5361256	n/a	LTP378	ltpFR2	1	12	n/a	n/a	n/a	n/a	0	0	0
2619.48095703125	n/a	REC_WORD	5364697	wordpools/wasnorm_wordpool_576.txt	LTP378	ltpFR2	1	12	BANQUET	86	n/a	n/a	0	0	0
2620.56982421875	n/a	REC_WORD	5366927	wordpools/wasnorm_wordpool_576.txt	LTP378	ltpFR2	1	12	PLATE	1086	n/a	n/a	0	0	0
2641.9091796875	n/a	REC_WORD	5410630	wordpools/wasnorm_wordpool_576.txt	LTP378	ltpFR2	1	12	FARMER	553	n/a	n/a	0	0	0
2652.4658203125	n/a	REC_WORD	5432250	wordpools/wasnorm_wordpool_576.txt	LTP378	ltpFR2	1	12	HEDGE	699	n/a	n/a	0	0	0
2654.9384765625	n/a	REC_WORD	5437314	wordpools/wasnorm_wordpool_576.txt	LTP378	ltpFR2	1	12	FLAG	573	n/a	n/a	0	0	0
2659.1806640625	n/a	REC_WORD	5446002	wordpools/wasnorm_wordpool_576.txt	LTP378	ltpFR2	1	12	BADGE	68	n/a	n/a	0	0	0
2660.7392578125	n/a	REC_WORD	5449194	wordpools/wasnorm_wordpool_576.txt	LTP378	ltpFR2	1	12	FILM	565	n/a	n/a	0	0	0
2708.24072265625	n/a	WORD	5546477	wordpools/wasnorm_wordpool_576.txt	LTP378	ltpFR2	1	13	FLASHLIGHT	575	n/a	n/a	0	0	0
2711.056640625	n/a	WORD	5552244	wordpools/wasnorm_wordpool_576.txt	LTP378	ltpFR2	1	13	BARLEY	88	n/a	n/a	0	0	0
2713.48876953125	n/a	WORD	5557225	wordpools/wasnorm_wordpool_576.txt	LTP378	ltpFR2	1	13	PARSLEY	1016	n/a	n/a	0	0	0
2716.220703125	n/a	WORD	5562820	wordpools/wasnorm_wordpool_576.txt	LTP378	ltpFR2	1	13	COUNTRY	388	n/a	n/a	0	0	0
2718.6513671875	n/a	WORD	5567798	wordpools/wasnorm_wordpool_576.txt	LTP378	ltpFR2	1	13	GAVEL	627	n/a	n/a	0	0	0
2721.38427734375	n/a	WORD	5573395	wordpools/wasnorm_wordpool_576.txt	LTP378	ltpFR2	1	13	MOTEL	919	n/a	n/a	0	0	0
2723.900390625	n/a	WORD	5578548	wordpools/wasnorm_wordpool_576.txt	LTP378	ltpFR2	1	13	LODGE	839	n/a	n/a	0	0	0
2726.5322265625	n/a	WORD	5583938	wordpools/wasnorm_wordpool_576.txt	LTP378	ltpFR2	1	13	ANKLE	24	n/a	n/a	0	0	0
2729.3642578125	n/a	WORD	5589738	wordpools/wasnorm_wordpool_576.txt	LTP378	ltpFR2	1	13	FRIEND	606	n/a	n/a	0	0	0
2731.89599609375	n/a	WORD	5594923	wordpools/wasnorm_wordpool_576.txt	LTP378	ltpFR2	1	13	SISTER	1312	n/a	n/a	0	0	0
2734.69384765625	n/a	WORD	5600653	wordpools/wasnorm_wordpool_576.txt	LTP378	ltpFR2	1	13	THIEF	1456	n/a	n/a	0	0	0
2737.2939453125	n/a	WORD	5605978	wordpools/wasnorm_wordpool_576.txt	LTP378	ltpFR2	1	13	APPLE	33	n/a	n/a	0	0	0
2739.99267578125	n/a	WORD	5611505	wordpools/wasnorm_wordpool_576.txt	LTP378	ltpFR2	1	13	CIGAR	308	n/a	n/a	0	0	0
2742.65673828125	n/a	WORD	5616961	wordpools/wasnorm_wordpool_576.txt	LTP378	ltpFR2	1	13	SALAD	1224	n/a	n/a	0	0	0
2745.1396484375	n/a	WORD	5622046	wordpools/wasnorm_wordpool_576.txt	LTP378	ltpFR2	1	13	EGYPT	519	n/a	n/a	0	0	0
2747.82080078125	n/a	WORD	5627537	wordpools/wasnorm_wordpool_576.txt	LTP378	ltpFR2	1	13	SUSPECT	1415	n/a	n/a	0	0	0
2750.5205078125	n/a	WORD	5633066	wordpools/wasnorm_wordpool_576.txt	LTP378	ltpFR2	1	13	DRUG	501	n/a	n/a	0	0	0
2752.95263671875	n/a	WORD	5638047	wordpools/wasnorm_wordpool_576.txt	LTP378	ltpFR2	1	13	BRACES	164	n/a	n/a	0	0	0
2755.451171875	n/a	WORD	5643164	wordpools/wasnorm_wordpool_576.txt	LTP378	ltpFR2	1	13	BLACKBOARD	133	n/a	n/a	0	0	0
2758.08349609375	n/a	WORD	5648555	wordpools/wasnorm_wordpool_576.txt	LTP378	ltpFR2	1	13	SALMON	1227	n/a	n/a	0	0	0
2760.8310546875	n/a	WORD	5654182	wordpools/wasnorm_wordpool_576.txt	LTP378	ltpFR2	1	13	DENTIST	447	n/a	n/a	0	0	0
2763.43115234375	n/a	WORD	5659507	wordpools/wasnorm_wordpool_576.txt	LTP378	ltpFR2	1	13	PUPPY	1144	n/a	n/a	0	0	0
2766.18017578125	n/a	WORD	5665137	wordpools/wasnorm_wordpool_576.txt	LTP378	ltpFR2	1	13	MAILMAN	858	n/a	n/a	0	0	0
2768.86181640625	n/a	WORD	5670629	wordpools/wasnorm_wordpool_576.txt	LTP378	ltpFR2	1	13	HARP	689	n/a	n/a	0	0	0
2770.47802734375	n/a	START	5673939	n/a	LTP378	ltpFR2	1	n/a	n/a	n/a	19	n/a	n/a	n/a	n/a
2771.59765625	n/a	DISTRACTOR	5676232	n/a	LTP378	ltpFR2	1	13	n/a	n/a	n/a	n/a	0	0	0
2771.60986328125	n/a	PROB	5676257	n/a	LTP378	ltpFR2	1	n/a	n/a	n/a	19	15	5	2	8
2774.82470703125	n/a	PROB	5682841	n/a	LTP378	ltpFR2	1	n/a	n/a	n/a	19	23	9	8	6
2779.23974609375	n/a	PROB	5691883	n/a	LTP378	ltpFR2	1	n/a	n/a	n/a	19	7	5	1	1
2782.32275390625	n/a	PROB	5698197	n/a	LTP378	ltpFR2	1	n/a	n/a	n/a	19	18	5	7	6
2787.78515625	n/a	PROB	5709384	n/a	LTP378	ltpFR2	1	n/a	n/a	n/a	19	17	7	6	4
2790.783203125	n/a	PROB	5715524	n/a	LTP378	ltpFR2	1	n/a	n/a	n/a	19	9	2	3	4
2794.47607421875	n/a	STOP	5723087	n/a	LTP378	ltpFR2	1	n/a	n/a	n/a	19	n/a	n/a	n/a	n/a
2796.43212890625	n/a	REC_START	5727093	n/a	LTP378	ltpFR2	1	13	n/a	n/a	n/a	n/a	0	0	0
2803.6669921875	n/a	REC_WORD	5741910	wordpools/wasnorm_wordpool_576.txt	LTP378	ltpFR2	1	13	EGYPT	519	n/a	n/a	0	0	0
2804.72998046875	n/a	REC_WORD	5744087	wordpools/wasnorm_wordpool_576.txt	LTP378	ltpFR2	1	13	SUSPECT	1415	n/a	n/a	0	0	0
2806.55859375	n/a	REC_WORD	5747832	wordpools/wasnorm_wordpool_576.txt	LTP378	ltpFR2	1	13	MAILMAN	858	n/a	n/a	0	0	0
2807.34765625	n/a	REC_WORD	5749448	wordpools/wasnorm_wordpool_576.txt	LTP378	ltpFR2	1	13	PUPPY	1144	n/a	n/a	0	0	0
2808.2685546875	n/a	REC_WORD	5751334	wordpools/wasnorm_wordpool_576.txt	LTP378	ltpFR2	1	13	DENTIST	447	n/a	n/a	0	0	0
2886.87109375	n/a	DISTRACTOR	5912312	n/a	LTP378	ltpFR2	1	14	n/a	n/a	n/a	n/a	0	0	0
2886.87109375	n/a	START	5912312	n/a	LTP378	ltpFR2	1	n/a	n/a	n/a	20	n/a	n/a	n/a	n/a
2886.88818359375	n/a	PROB	5912347	n/a	LTP378	ltpFR2	1	n/a	n/a	n/a	20	8	2	3	3
2890.71826171875	n/a	PROB	5920191	n/a	LTP378	ltpFR2	1	n/a	n/a	n/a	20	22	6	8	8
2893.3349609375	n/a	PROB	5925550	n/a	LTP378	ltpFR2	1	n/a	n/a	n/a	20	18	6	9	3
2896.39990234375	n/a	PROB	5931827	n/a	LTP378	ltpFR2	1	n/a	n/a	n/a	20	12	3	3	6
2898.86572265625	n/a	PROB	5936877	n/a	LTP378	ltpFR2	1	n/a	n/a	n/a	20	21	6	6	9
2901.8974609375	n/a	PROB	5943086	n/a	LTP378	ltpFR2	1	n/a	n/a	n/a	20	15	7	7	1
2903.6455078125	n/a	PROB	5946666	n/a	LTP378	ltpFR2	1	n/a	n/a	n/a	20	18	7	3	8
2905.611328125	n/a	PROB	5950692	n/a	LTP378	ltpFR2	1	n/a	n/a	n/a	20	22	6	8	8
2910.86962890625	n/a	STOP	5961461	n/a	LTP378	ltpFR2	1	n/a	n/a	n/a	20	n/a	n/a	n/a	n/a
2911.9755859375	n/a	WORD	5963726	wordpools/wasnorm_wordpool_576.txt	LTP378	ltpFR2	1	14	LIPSTICK	829	n/a	n/a	0	0	0
2914.6904296875	n/a	WORD	5969286	wordpools/wasnorm_wordpool_576.txt	LTP378	ltpFR2	1	14	EYELASH	546	n/a	n/a	0	0	0
2917.22314453125	n/a	WORD	5974473	wordpools/wasnorm_wordpool_576.txt	LTP378	ltpFR2	1	14	INMATE	738	n/a	n/a	0	0	0
2919.8388671875	n/a	WORD	5979830	wordpools/wasnorm_wordpool_576.txt	LTP378	ltpFR2	1	14	ISLAND	745	n/a	n/a	0	0	0
2922.35400390625	n/a	WORD	5984981	wordpools/wasnorm_wordpool_576.txt	LTP378	ltpFR2	1	14	BEAVER	109	n/a	n/a	0	0	0
2925.1201171875	n/a	WORD	5990646	wordpools/wasnorm_wordpool_576.txt	LTP378	ltpFR2	1	14	OUTFIT	988	n/a	n/a	0	0	0
2927.61669921875	n/a	WORD	5995759	wordpools/wasnorm_wordpool_576.txt	LTP378	ltpFR2	1	14	HAWK	692	n/a	n/a	0	0	0
2930.18359375	n/a	WORD	6001016	wordpools/wasnorm_wordpool_576.txt	LTP378	ltpFR2	1	14	FRECKLE	602	n/a	n/a	0	0	0
2932.7646484375	n/a	WORD	6006302	wordpools/wasnorm_wordpool_576.txt	LTP378	ltpFR2	1	14	ROBBER	1197	n/a	n/a	0	0	0
2935.41455078125	n/a	WORD	6011729	wordpools/wasnorm_wordpool_576.txt	LTP378	ltpFR2	1	14	CONCERT	360	n/a	n/a	0	0	0
2937.99658203125	n/a	WORD	6017017	wordpools/wasnorm_wordpool_576.txt	LTP378	ltpFR2	1	14	COUNTY	389	n/a	n/a	0	0	0
2940.4453125	n/a	WORD	6022032	wordpools/wasnorm_wordpool_576.txt	LTP378	ltpFR2	1	14	GLOBE	641	n/a	n/a	0	0	0
2943.244140625	n/a	WORD	6027764	wordpools/wasnorm_wordpool_576.txt	LTP378	ltpFR2	1	14	HIGHWAY	707	n/a	n/a	0	0	0
2945.97607421875	n/a	WORD	6033359	wordpools/wasnorm_wordpool_576.txt	LTP378	ltpFR2	1	14	ICEBERG	731	n/a	n/a	0	0	0
2948.60693359375	n/a	WORD	6038747	wordpools/wasnorm_wordpool_576.txt	LTP378	ltpFR2	1	14	PIMPLE	1071	n/a	n/a	0	0	0
2951.1728515625	n/a	WORD	6044002	wordpools/wasnorm_wordpool_576.txt	LTP378	ltpFR2	1	14	SHORTS	1293	n/a	n/a	0	0	0
2953.97216796875	n/a	WORD	6049735	wordpools/wasnorm_wordpool_576.txt	LTP378	ltpFR2	1	14	PLIERS	1089	n/a	n/a	0	0	0
2956.50390625	n/a	WORD	6054920	wordpools/wasnorm_wordpool_576.txt	LTP378	ltpFR2	1	14	FOREST	593	n/a	n/a	0	0	0
2959.27001953125	n/a	WORD	6060585	wordpools/wasnorm_wordpool_576.txt	LTP378	ltpFR2	1	14	SKIRT	1319	n/a	n/a	0	0	0
2962.0849609375	n/a	WORD	6066350	wordpools/wasnorm_wordpool_576.txt	LTP378	ltpFR2	1	14	MACHINE	852	n/a	n/a	0	0	0
2964.6826171875	n/a	WORD	6071670	wordpools/wasnorm_wordpool_576.txt	LTP378	ltpFR2	1	14	PENGUIN	1044	n/a	n/a	0	0	0
2967.482421875	n/a	WORD	6077404	wordpools/wasnorm_wordpool_576.txt	LTP378	ltpFR2	1	14	EAGLE	512	n/a	n/a	0	0	0
2970.2802734375	n/a	WORD	6083134	wordpools/wasnorm_wordpool_576.txt	LTP378	ltpFR2	1	14	LEADER	807	n/a	n/a	0	0	0
2972.91357421875	n/a	WORD	6088527	wordpools/wasnorm_wordpool_576.txt	LTP378	ltpFR2	1	14	NOTEBOOK	959	n/a	n/a	0	0	0
2974.529296875	n/a	START	6091836	n/a	LTP378	ltpFR2	1	n/a	n/a	n/a	21	n/a	n/a	n/a	n/a
2975.46435546875	n/a	DISTRACTOR	6093751	n/a	LTP378	ltpFR2	1	14	n/a	n/a	n/a	n/a	0	0	0
2975.478515625	n/a	PROB	6093780	n/a	LTP378	ltpFR2	1	n/a	n/a	n/a	21	13	8	2	3
2978.64208984375	n/a	PROB	6100259	n/a	LTP378	ltpFR2	1	n/a	n/a	n/a	21	11	3	3	7
2981.9091796875	n/a	PROB	6106950	n/a	LTP378	ltpFR2	1	n/a	n/a	n/a	21	18	6	5	7
2985.35693359375	n/a	PROB	6114011	n/a	LTP378	ltpFR2	1	n/a	n/a	n/a	21	20	8	5	7
2987.9228515625	n/a	PROB	6119266	n/a	LTP378	ltpFR2	1	n/a	n/a	n/a	21	13	1	9	3
2990.087890625	n/a	PROB	6123700	n/a	LTP378	ltpFR2	1	n/a	n/a	n/a	21	22	7	7	8
2992.20361328125	n/a	PROB	6128033	n/a	LTP378	ltpFR2	1	n/a	n/a	n/a	21	14	1	5	8
2998.52880859375	n/a	STOP	6140987	n/a	LTP378	ltpFR2	1	n/a	n/a	n/a	21	n/a	n/a	n/a	n/a
3000.41650390625	n/a	REC_START	6144853	n/a	LTP378	ltpFR2	1	14	n/a	n/a	n/a	n/a	0	0	0
3008.13818359375	n/a	REC_WORD	6160667	wordpools/wasnorm_wordpool_576.txt	LTP378	ltpFR2	1	14	EYELASH	546	n/a	n/a	0	0	0
3009.373046875	n/a	REC_WORD	6163196	wordpools/wasnorm_wordpool_576.txt	LTP378	ltpFR2	1	14	LIPSTICK	829	n/a	n/a	0	0	0
3012.583984375	n/a	REC_WORD	6169772	wordpools/wasnorm_wordpool_576.txt	LTP378	ltpFR2	1	14	INMATE	738	n/a	n/a	0	0	0
3013.81201171875	n/a	REC_WORD	6172287	wordpools/wasnorm_wordpool_576.txt	LTP378	ltpFR2	1	14	BEAVER	109	n/a	n/a	0	0	0
3014.6728515625	n/a	REC_WORD	6174050	wordpools/wasnorm_wordpool_576.txt	LTP378	ltpFR2	1	14	ISLAND	745	n/a	n/a	0	0	0
3021.00390625	n/a	REC_WORD	6187016	wordpools/wasnorm_wordpool_576.txt	LTP378	ltpFR2	1	14	WARDROBE	1587	n/a	n/a	0	0	0
3024.23486328125	n/a	REC_WORD	6193633	wordpools/wasnorm_wordpool_576.txt	LTP378	ltpFR2	1	14	IGLOO	734	n/a	n/a	0	0	0
3036.7734375	n/a	REC_WORD	6219312	wordpools/wasnorm_wordpool_576.txt	LTP378	ltpFR2	1	14	PENGUIN	1044	n/a	n/a	0	0	0
3039.87841796875	n/a	REC_WORD	6225671	wordpools/wasnorm_wordpool_576.txt	LTP378	ltpFR2	1	14	HAWK	692	n/a	n/a	0	0	0
3063.7265625	n/a	REC_WORD	6274512	wordpools/wasnorm_wordpool_576.txt	LTP378	ltpFR2	1	14	MAILMAN	858	n/a	n/a	0	0	0
3090.87255859375	n/a	WORD	6330107	wordpools/wasnorm_wordpool_576.txt	LTP378	ltpFR2	1	15	HUMAN	726	n/a	n/a	0	0	0
3093.5712890625	n/a	WORD	6335634	wordpools/wasnorm_wordpool_576.txt	LTP378	ltpFR2	1	15	KNIFE	785	n/a	n/a	0	0	0
3096.03662109375	n/a	WORD	6340683	wordpools/wasnorm_wordpool_576.txt	LTP378	ltpFR2	1	15	HATCHET	691	n/a	n/a	0	0	0
3098.75146484375	n/a	WORD	6346243	wordpools/wasnorm_wordpool_576.txt	LTP378	ltpFR2	1	15	ONION	977	n/a	n/a	0	0	0
3101.21728515625	n/a	WORD	6351293	wordpools/wasnorm_wordpool_576.txt	LTP378	ltpFR2	1	15	COLLEGE	346	n/a	n/a	0	0	0
3103.94921875	n/a	WORD	6356888	wordpools/wasnorm_wordpool_576.txt	LTP378	ltpFR2	1	15	DORM	488	n/a	n/a	0	0	0
3106.56494140625	n/a	WORD	6362245	wordpools/wasnorm_wordpool_576.txt	LTP378	ltpFR2	1	15	ATOM	55	n/a	n/a	0	0	0
3108.9970703125	n/a	WORD	6367226	wordpools/wasnorm_wordpool_576.txt	LTP378	ltpFR2	1	15	ASIA	46	n/a	n/a	0	0	0
3111.794921875	n/a	WORD	6372956	wordpools/wasnorm_wordpool_576.txt	LTP378	ltpFR2	1	15	OYSTER	995	n/a	n/a	0	0	0
3114.49462890625	n/a	WORD	6378485	wordpools/wasnorm_wordpool_576.txt	LTP378	ltpFR2	1	15	ZIPPER	1636	n/a	n/a	0	0	0
3117.3095703125	n/a	WORD	6384250	wordpools/wasnorm_wordpool_576.txt	LTP378	ltpFR2	1	15	JUNGLE	764	n/a	n/a	0	0	0
3120.02490234375	n/a	WORD	6389811	wordpools/wasnorm_wordpool_576.txt	LTP378	ltpFR2	1	15	PLAZA	1088	n/a	n/a	0	0	0
3122.5908203125	n/a	WORD	6395066	wordpools/wasnorm_wordpool_576.txt	LTP378	ltpFR2	1	15	PLAID	1080	n/a	n/a	0	0	0
3125.17236328125	n/a	WORD	6400353	wordpools/wasnorm_wordpool_576.txt	LTP378	ltpFR2	1	15	DOLPHIN	483	n/a	n/a	0	0	0
3127.603515625	n/a	WORD	6405332	wordpools/wasnorm_wordpool_576.txt	LTP378	ltpFR2	1	15	MAMMAL	861	n/a	n/a	0	0	0
3130.287109375	n/a	WORD	6410828	wordpools/wasnorm_wordpool_576.txt	LTP378	ltpFR2	1	15	ARM	38	n/a	n/a	0	0	0
3132.75146484375	n/a	WORD	6415875	wordpools/wasnorm_wordpool_576.txt	LTP378	ltpFR2	1	15	CLAM	315	n/a	n/a	0	0	0
3135.2509765625	n/a	WORD	6420994	wordpools/wasnorm_wordpool_576.txt	LTP378	ltpFR2	1	15	BLENDER	136	n/a	n/a	0	0	0
3138.0830078125	n/a	WORD	6426794	wordpools/wasnorm_wordpool_576.txt	LTP378	ltpFR2	1	15	ACTRESS	6	n/a	n/a	0	0	0
3140.89794921875	n/a	WORD	6432559	wordpools/wasnorm_wordpool_576.txt	LTP378	ltpFR2	1	15	ICING	732	n/a	n/a	0	0	0
3143.712890625	n/a	WORD	6438324	wordpools/wasnorm_wordpool_576.txt	LTP378	ltpFR2	1	15	PLASTER	1085	n/a	n/a	0	0	0
3146.39599609375	n/a	WORD	6443819	wordpools/wasnorm_wordpool_576.txt	LTP378	ltpFR2	1	15	MARROW	872	n/a	n/a	0	0	0
3149.044921875	n/a	WORD	6449244	wordpools/wasnorm_wordpool_576.txt	LTP378	ltpFR2	1	15	LABEL	790	n/a	n/a	0	0	0
3151.5595703125	n/a	WORD	6454394	wordpools/wasnorm_wordpool_576.txt	LTP378	ltpFR2	1	15	JOURNAL	760	n/a	n/a	0	0	0
3153.17578125	n/a	START	6457704	n/a	LTP378	ltpFR2	1	n/a	n/a	n/a	22	n/a	n/a	n/a	n/a
3154.36669921875	n/a	DISTRACTOR	6460143	n/a	LTP378	ltpFR2	1	15	n/a	n/a	n/a	n/a	0	0	0
3154.37548828125	n/a	PROB	6460161	n/a	LTP378	ltpFR2	1	n/a	n/a	n/a	22	14	6	2	6
3157.9736328125	n/a	PROB	6467530	n/a	LTP378	ltpFR2	1	n/a	n/a	n/a	22	15	8	4	3
3160.92236328125	n/a	PROB	6473569	n/a	LTP378	ltpFR2	1	n/a	n/a	n/a	22	12	3	8	1
3165.25341796875	n/a	PROB	6482439	n/a	LTP378	ltpFR2	1	n/a	n/a	n/a	22	10	1	8	1
3167.21923828125	n/a	PROB	6486465	n/a	LTP378	ltpFR2	1	n/a	n/a	n/a	22	17	8	7	2
3170.75	n/a	PROB	6493696	n/a	LTP378	ltpFR2	1	n/a	n/a	n/a	22	12	2	4	6
3173.44873046875	n/a	PROB	6499223	n/a	LTP378	ltpFR2	1	n/a	n/a	n/a	22	12	6	2	4
3176.68701171875	n/a	STOP	6505855	n/a	LTP378	ltpFR2	1	n/a	n/a	n/a	22	n/a	n/a	n/a	n/a
3178.94677734375	n/a	REC_START	6510483	n/a	LTP378	ltpFR2	1	15	n/a	n/a	n/a	n/a	0	0	0
3184.44482421875	n/a	REC_WORD	6521743	wordpools/wasnorm_wordpool_576.txt	LTP378	ltpFR2	1	15	LABEL	790	n/a	n/a	0	0	0
3196.8984375	n/a	REC_WORD	6547248	wordpools/wasnorm_wordpool_576.txt	LTP378	ltpFR2	1	15	KNIFE	785	n/a	n/a	0	0	0
3197.67822265625	n/a	REC_WORD	6548845	wordpools/wasnorm_wordpool_576.txt	LTP378	ltpFR2	1	15	HATCHET	691	n/a	n/a	0	0	0
3201.619140625	n/a	REC_WORD	6556916	wordpools/wasnorm_wordpool_576.txt	LTP378	ltpFR2	1	15	FOREST	593	n/a	n/a	0	0	0
3216.79736328125	n/a	REC_WORD	6588001	wordpools/wasnorm_wordpool_576.txt	LTP378	ltpFR2	1	15	ICEBERG	731	n/a	n/a	0	0	0
3243.19970703125	n/a	REC_WORD	6642073	wordpools/wasnorm_wordpool_576.txt	LTP378	ltpFR2	1	15	CLAM	315	n/a	n/a	0	0	0
3243.95849609375	n/a	REC_WORD	6643627	wordpools/wasnorm_wordpool_576.txt	LTP378	ltpFR2	1	15	ARM	38	n/a	n/a	0	0	0
3269.3857421875	n/a	WORD	6695702	wordpools/wasnorm_wordpool_576.txt	LTP378	ltpFR2	1	16	NURSE	963	n/a	n/a	0	0	0
3271.90185546875	n/a	WORD	6700855	wordpools/wasnorm_wordpool_576.txt	LTP378	ltpFR2	1	16	BUNNY	198	n/a	n/a	0	0	0
3274.48388671875	n/a	WORD	6706143	wordpools/wasnorm_wordpool_576.txt	LTP378	ltpFR2	1	16	CABIN	211	n/a	n/a	0	0	0
3277.0986328125	n/a	WORD	6711498	wordpools/wasnorm_wordpool_576.txt	LTP378	ltpFR2	1	16	SCOTCH	1251	n/a	n/a	0	0	0
3279.54736328125	n/a	WORD	6716513	wordpools/wasnorm_wordpool_576.txt	LTP378	ltpFR2	1	16	PRINCESS	1125	n/a	n/a	0	0	0
3282.12939453125	n/a	WORD	6721801	wordpools/wasnorm_wordpool_576.txt	LTP378	ltpFR2	1	16	CLIMBER	323	n/a	n/a	0	0	0
3284.91259765625	n/a	WORD	6727501	wordpools/wasnorm_wordpool_576.txt	LTP378	ltpFR2	1	16	BUBBLE	183	n/a	n/a	0	0	0
3287.5771484375	n/a	WORD	6732958	wordpools/wasnorm_wordpool_576.txt	LTP378	ltpFR2	1	16	BINDER	127	n/a	n/a	0	0	0
3290.193359375	n/a	WORD	6738316	wordpools/wasnorm_wordpool_576.txt	LTP378	ltpFR2	1	16	CEILING	265	n/a	n/a	0	0	0
3292.85791015625	n/a	WORD	6743773	wordpools/wasnorm_wordpool_576.txt	LTP378	ltpFR2	1	16	RUG	1215	n/a	n/a	0	0	0
3295.5400390625	n/a	WORD	6749266	wordpools/wasnorm_wordpool_576.txt	LTP378	ltpFR2	1	16	LIZARD	834	n/a	n/a	0	0	0
3298.2060546875	n/a	WORD	6754726	wordpools/wasnorm_wordpool_576.txt	LTP378	ltpFR2	1	16	POSSUM	1112	n/a	n/a	0	0	0
3300.70263671875	n/a	WORD	6759839	wordpools/wasnorm_wordpool_576.txt	LTP378	ltpFR2	1	16	NOMAD	955	n/a	n/a	0	0	0
3303.51953125	n/a	WORD	6765608	wordpools/wasnorm_wordpool_576.txt	LTP378	ltpFR2	1	16	MISTER	901	n/a	n/a	0	0	0
3306.21875	n/a	WORD	6771136	wordpools/wasnorm_wordpool_576.txt	LTP378	ltpFR2	1	16	PRINCE	1124	n/a	n/a	0	0	0
3308.74951171875	n/a	WORD	6776319	wordpools/wasnorm_wordpool_576.txt	LTP378	ltpFR2	1	16	CATTLE	261	n/a	n/a	0	0	0
3311.232421875	n/a	WORD	6781404	wordpools/wasnorm_wordpool_576.txt	LTP378	ltpFR2	1	16	COSTUME	383	n/a	n/a	0	0	0
3313.8642578125	n/a	WORD	6786794	wordpools/wasnorm_wordpool_576.txt	LTP378	ltpFR2	1	16	LUMBER	848	n/a	n/a	0	0	0
3316.54638671875	n/a	WORD	6792287	wordpools/wasnorm_wordpool_576.txt	LTP378	ltpFR2	1	16	VALVE	1546	n/a	n/a	0	0	0
3319.0791015625	n/a	WORD	6797474	wordpools/wasnorm_wordpool_576.txt	LTP378	ltpFR2	1	16	HANDBAG	684	n/a	n/a	0	0	0
3321.5771484375	n/a	WORD	6802590	wordpools/wasnorm_wordpool_576.txt	LTP378	ltpFR2	1	16	COCKTAIL	338	n/a	n/a	0	0	0
3324.06005859375	n/a	WORD	6807675	wordpools/wasnorm_wordpool_576.txt	LTP378	ltpFR2	1	16	ROD	1203	n/a	n/a	0	0	0
3326.5419921875	n/a	WORD	6812758	wordpools/wasnorm_wordpool_576.txt	LTP378	ltpFR2	1	16	LIGHTNING	820	n/a	n/a	0	0	0
3329.1240234375	n/a	WORD	6818046	wordpools/wasnorm_wordpool_576.txt	LTP378	ltpFR2	1	16	WIFE	1609	n/a	n/a	0	0	0
3330.73876953125	n/a	START	6821353	n/a	LTP378	ltpFR2	1	n/a	n/a	n/a	23	n/a	n/a	n/a	n/a
3331.67578125	n/a	DISTRACTOR	6823272	n/a	LTP378	ltpFR2	1	16	n/a	n/a	n/a	n/a	0	0	0
3331.68798828125	n/a	PROB	6823297	n/a	LTP378	ltpFR2	1	n/a	n/a	n/a	23	10	2	6	2
3334.57080078125	n/a	PROB	6829201	n/a	LTP378	ltpFR2	1	n/a	n/a	n/a	23	9	4	3	2
3338.06982421875	n/a	PROB	6836367	n/a	LTP378	ltpFR2	1	n/a	n/a	n/a	23	15	8	1	6
3340.66748046875	n/a	PROB	6841687	n/a	LTP378	ltpFR2	1	n/a	n/a	n/a	23	10	4	5	1
3343.21728515625	n/a	PROB	6846909	n/a	LTP378	ltpFR2	1	n/a	n/a	n/a	23	14	3	7	4
3346.63134765625	n/a	PROB	6853901	n/a	LTP378	ltpFR2	1	n/a	n/a	n/a	23	15	6	3	6
3349.08154296875	n/a	PROB	6858919	n/a	LTP378	ltpFR2	1	n/a	n/a	n/a	23	16	3	8	5
3351.46337890625	n/a	PROB	6863797	n/a	LTP378	ltpFR2	1	n/a	n/a	n/a	23	16	8	6	2
3354.05517578125	n/a	STOP	6869105	n/a	LTP378	ltpFR2	1	n/a	n/a	n/a	23	n/a	n/a	n/a	n/a
3356.60986328125	n/a	REC_START	6874337	n/a	LTP378	ltpFR2	1	16	n/a	n/a	n/a	n/a	0	0	0
3360.287109375	n/a	REC_WORD	6881868	wordpools/wasnorm_wordpool_576.txt	LTP378	ltpFR2	1	16	LIZARD	834	n/a	n/a	0	0	0
3361.27685546875	n/a	REC_WORD	6883895	wordpools/wasnorm_wordpool_576.txt	LTP378	ltpFR2	1	16	RUG	1215	n/a	n/a	0	0	0
3362.1689453125	n/a	REC_WORD	6885722	wordpools/wasnorm_wordpool_576.txt	LTP378	ltpFR2	1	16	CEILING	265	n/a	n/a	0	0	0
3363.36181640625	n/a	REC_WORD	6888165	wordpools/wasnorm_wordpool_576.txt	LTP378	ltpFR2	1	16	SCOTCH	1251	n/a	n/a	0	0	0
3364.373046875	n/a	REC_WORD	6890236	wordpools/wasnorm_wordpool_576.txt	LTP378	ltpFR2	1	16	CABIN	211	n/a	n/a	0	0	0
3365.48779296875	n/a	REC_WORD	6892519	wordpools/wasnorm_wordpool_576.txt	LTP378	ltpFR2	1	16	PRINCESS	1125	n/a	n/a	0	0	0
3366.61279296875	n/a	REC_WORD	6894823	wordpools/wasnorm_wordpool_576.txt	LTP378	ltpFR2	1	16	PRINCE	1124	n/a	n/a	0	0	0
3367.5966796875	n/a	REC_WORD	6896838	wordpools/wasnorm_wordpool_576.txt	LTP378	ltpFR2	1	16	COSTUME	383	n/a	n/a	0	0	0
3389.833984375	n/a	REC_WORD	6942380	wordpools/wasnorm_wordpool_576.txt	LTP378	ltpFR2	1	16	LUMBER	848	n/a	n/a	0	0	0
3391.8447265625	n/a	REC_WORD	6946498	wordpools/wasnorm_wordpool_576.txt	LTP378	ltpFR2	1	16	NOMAD	955	n/a	n/a	0	0	0
3393.01806640625	n/a	REC_WORD	6948901	wordpools/wasnorm_wordpool_576.txt	LTP378	ltpFR2	1	16	PLUMBER	1091	n/a	n/a	0	0	0
3394.06005859375	n/a	REC_WORD	6951035	wordpools/wasnorm_wordpool_576.txt	LTP378	ltpFR2	1	16	VALVE	1546	n/a	n/a	0	0	0
3410.1552734375	n/a	REC_WORD	6983998	wordpools/wasnorm_wordpool_576.txt	LTP378	ltpFR2	1	16	POSSUM	1112	n/a	n/a	0	0	0
3416.72216796875	n/a	REC_WORD	6997447	wordpools/wasnorm_wordpool_576.txt	LTP378	ltpFR2	1	16	LIZARD	834	n/a	n/a	0	0	0
3433.140625	n/a	REST_REWET	7031072	n/a	LTP378	ltpFR2	1	16	n/a	n/a	n/a	n/a	0	0	0
3580.96875	n/a	DISTRACTOR	7333824	n/a	LTP378	ltpFR2	1	17	n/a	n/a	n/a	n/a	0	0	0
3580.96875	n/a	START	7333824	n/a	LTP378	ltpFR2	1	n/a	n/a	n/a	24	n/a	n/a	n/a	n/a
3580.98486328125	n/a	PROB	7333857	n/a	LTP378	ltpFR2	1	n/a	n/a	n/a	24	16	6	7	6
3584.1337890625	n/a	PROB	7340306	n/a	LTP378	ltpFR2	1	n/a	n/a	n/a	24	16	2	8	6
3588.08154296875	n/a	PROB	7348391	n/a	LTP378	ltpFR2	1	n/a	n/a	n/a	24	9	4	3	2
3590.0146484375	n/a	PROB	7352350	n/a	LTP378	ltpFR2	1	n/a	n/a	n/a	24	14	1	9	4
3592.24658203125	n/a	PROB	7356921	n/a	LTP378	ltpFR2	1	n/a	n/a	n/a	24	21	7	9	5
3597.3271484375	n/a	PROB	7367326	n/a	LTP378	ltpFR2	1	n/a	n/a	n/a	24	10	3	4	3
3599.97607421875	n/a	PROB	7372751	n/a	LTP378	ltpFR2	1	n/a	n/a	n/a	24	20	7	4	9
3603.041015625	n/a	PROB	7379028	n/a	LTP378	ltpFR2	1	n/a	n/a	n/a	24	13	5	5	3
3604.87890625	n/a	STOP	7382792	n/a	LTP378	ltpFR2	1	n/a	n/a	n/a	24	n/a	n/a	n/a	n/a
3605.873046875	n/a	WORD	7384828	wordpools/wasnorm_wordpool_576.txt	LTP378	ltpFR2	1	17	SWAMP	1416	n/a	n/a	0	0	0
3608.35498046875	n/a	WORD	7389911	wordpools/wasnorm_wordpool_576.txt	LTP378	ltpFR2	1	17	TWISTER	1530	n/a	n/a	0	0	0
3611.1708984375	n/a	WORD	7395678	wordpools/wasnorm_wordpool_576.txt	LTP378	ltpFR2	1	17	STAPLE	1371	n/a	n/a	0	0	0
3613.95263671875	n/a	WORD	7401375	wordpools/wasnorm_wordpool_576.txt	LTP378	ltpFR2	1	17	PISTOL	1075	n/a	n/a	0	0	0
3616.70068359375	n/a	WORD	7407003	wordpools/wasnorm_wordpool_576.txt	LTP378	ltpFR2	1	17	STREAM	1392	n/a	n/a	0	0	0
3619.2333984375	n/a	WORD	7412190	wordpools/wasnorm_wordpool_576.txt	LTP378	ltpFR2	1	17	NECKLACE	940	n/a	n/a	0	0	0
3621.78173828125	n/a	WORD	7417409	wordpools/wasnorm_wordpool_576.txt	LTP378	ltpFR2	1	17	OMELET	976	n/a	n/a	0	0	0
3624.4306640625	n/a	WORD	7422834	wordpools/wasnorm_wordpool_576.txt	LTP378	ltpFR2	1	17	CHAUFFEUR	283	n/a	n/a	0	0	0
3627.07958984375	n/a	WORD	7428259	wordpools/wasnorm_wordpool_576.txt	LTP378	ltpFR2	1	17	MONSTER	912	n/a	n/a	0	0	0
3629.8115234375	n/a	WORD	7433854	wordpools/wasnorm_wordpool_576.txt	LTP378	ltpFR2	1	17	PARENT	1013	n/a	n/a	0	0	0
3632.26025390625	n/a	WORD	7438869	wordpools/wasnorm_wordpool_576.txt	LTP378	ltpFR2	1	17	ROBOT	1200	n/a	n/a	0	0	0
3634.97607421875	n/a	WORD	7444431	wordpools/wasnorm_wordpool_576.txt	LTP378	ltpFR2	1	17	BACON	67	n/a	n/a	0	0	0
3637.4248046875	n/a	WORD	7449446	wordpools/wasnorm_wordpool_576.txt	LTP378	ltpFR2	1	17	PLAYGROUND	1087	n/a	n/a	0	0	0
3640.10693359375	n/a	WORD	7454939	wordpools/wasnorm_wordpool_576.txt	LTP378	ltpFR2	1	17	TRANSPLANT	1496	n/a	n/a	0	0	0
3642.7548828125	n/a	WORD	7460362	wordpools/wasnorm_wordpool_576.txt	LTP378	ltpFR2	1	17	HEART	697	n/a	n/a	0	0	0
3645.220703125	n/a	WORD	7465412	wordpools/wasnorm_wordpool_576.txt	LTP378	ltpFR2	1	17	GREASE	660	n/a	n/a	0	0	0
3647.8017578125	n/a	WORD	7470698	wordpools/wasnorm_wordpool_576.txt	LTP378	ltpFR2	1	17	APRON	35	n/a	n/a	0	0	0
3650.5517578125	n/a	WORD	7476330	wordpools/wasnorm_wordpool_576.txt	LTP378	ltpFR2	1	17	SNACK	1331	n/a	n/a	0	0	0
3653.1005859375	n/a	WORD	7481550	wordpools/wasnorm_wordpool_576.txt	LTP378	ltpFR2	1	17	COUSIN	392	n/a	n/a	0	0	0
3655.5986328125	n/a	WORD	7486666	wordpools/wasnorm_wordpool_576.txt	LTP378	ltpFR2	1	17	SWORD	1423	n/a	n/a	0	0	0
3658.08154296875	n/a	WORD	7491751	wordpools/wasnorm_wordpool_576.txt	LTP378	ltpFR2	1	17	COD	340	n/a	n/a	0	0	0
3660.88037109375	n/a	WORD	7497483	wordpools/wasnorm_wordpool_576.txt	LTP378	ltpFR2	1	17	PILOT	1070	n/a	n/a	0	0	0
3663.62744140625	n/a	WORD	7503109	wordpools/wasnorm_wordpool_576.txt	LTP378	ltpFR2	1	17	WAGON	1578	n/a	n/a	0	0	0
3666.111328125	n/a	WORD	7508196	wordpools/wasnorm_wordpool_576.txt	LTP378	ltpFR2	1	17	AGENT	10	n/a	n/a	0	0	0
3667.72607421875	n/a	START	7511503	n/a	LTP378	ltpFR2	1	n/a	n/a	n/a	25	n/a	n/a	n/a	n/a
3668.822265625	n/a	DISTRACTOR	7513748	n/a	LTP378	ltpFR2	1	17	n/a	n/a	n/a	n/a	0	0	0
3668.826171875	n/a	PROB	7513756	n/a	LTP378	ltpFR2	1	n/a	n/a	n/a	25	18	1	9	8
3671.6240234375	n/a	PROB	7519486	n/a	LTP378	ltpFR2	1	n/a	n/a	n/a	25	21	8	6	7
3675.98876953125	n/a	PROB	7528425	n/a	LTP378	ltpFR2	1	n/a	n/a	n/a	25	17	7	3	7
3679.20458984375	n/a	PROB	7535011	n/a	LTP378	ltpFR2	1	n/a	n/a	n/a	25	18	5	7	6
3681.802734375	n/a	PROB	7540332	n/a	LTP378	ltpFR2	1	n/a	n/a	n/a	25	21	8	7	7
3684.7333984375	n/a	PROB	7546334	n/a	LTP378	ltpFR2	1	n/a	n/a	n/a	25	18	5	9	4
3691.72509765625	n/a	STOP	7560653	n/a	LTP378	ltpFR2	1	n/a	n/a	n/a	25	n/a	n/a	n/a	n/a
3693.498046875	n/a	REC_START	7564284	n/a	LTP378	ltpFR2	1	17	n/a	n/a	n/a	n/a	0	0	0
3695.98193359375	n/a	REC_WORD	7569371	wordpools/wasnorm_wordpool_576.txt	LTP378	ltpFR2	1	17	HEART	697	n/a	n/a	0	0	0
3696.64013671875	n/a	REC_WORD	7570719	wordpools/wasnorm_wordpool_576.txt	LTP378	ltpFR2	1	17	TRANSPLANT	1496	n/a	n/a	0	0	0
3701.744140625	n/a	REC_WORD	7581172	wordpools/wasnorm_wordpool_576.txt	LTP378	ltpFR2	1	17	APRON	35	n/a	n/a	0	0	0
3708.07568359375	n/a	REC_WORD	7594139	wordpools/wasnorm_wordpool_576.txt	LTP378	ltpFR2	1	17	HONEY	713	n/a	n/a	0	0	0
3712.974609375	n/a	REC_WORD	7604172	wordpools/wasnorm_wordpool_576.txt	LTP378	ltpFR2	1	17	PISTOL	1075	n/a	n/a	0	0	0
3731.40087890625	n/a	REC_WORD	7641909	wordpools/wasnorm_wordpool_576.txt	LTP378	ltpFR2	1	17	COUSIN	392	n/a	n/a	0	0	0
3741.962890625	n/a	REC_WORD	7663540	wordpools/wasnorm_wordpool_576.txt	LTP378	ltpFR2	1	17	STREAM	1392	n/a	n/a	0	0	0
3803.927734375	n/a	DISTRACTOR	7790444	n/a	LTP378	ltpFR2	1	18	n/a	n/a	n/a	n/a	0	0	0
3803.927734375	n/a	START	7790444	n/a	LTP378	ltpFR2	1	n/a	n/a	n/a	26	n/a	n/a	n/a	n/a
3803.94384765625	n/a	PROB	7790477	n/a	LTP378	ltpFR2	1	n/a	n/a	n/a	26	10	6	1	3
3806.32666015625	n/a	PROB	7795357	n/a	LTP378	ltpFR2	1	n/a	n/a	n/a	26	12	1	8	3
3807.90869140625	n/a	PROB	7798597	n/a	LTP378	ltpFR2	1	n/a	n/a	n/a	26	16	6	3	7
3812.45654296875	n/a	PROB	7807911	n/a	LTP378	ltpFR2	1	n/a	n/a	n/a	26	16	5	9	2
3816.521484375	n/a	PROB	7816236	n/a	LTP378	ltpFR2	1	n/a	n/a	n/a	26	19	6	8	5
3819.96923828125	n/a	PROB	7823297	n/a	LTP378	ltpFR2	1	n/a	n/a	n/a	26	10	1	7	2
3822.35205078125	n/a	PROB	7828177	n/a	LTP378	ltpFR2	1	n/a	n/a	n/a	26	13	4	8	1
3824.05126953125	n/a	PROB	7831657	n/a	LTP378	ltpFR2	1	n/a	n/a	n/a	26	21	8	6	5
3826.63818359375	n/a	STOP	7836955	n/a	LTP378	ltpFR2	1	n/a	n/a	n/a	26	n/a	n/a	n/a	n/a
3828.96484375	n/a	WORD	7841720	wordpools/wasnorm_wordpool_576.txt	LTP378	ltpFR2	1	18	GAZELLE	628	n/a	n/a	0	0	0
3831.513671875	n/a	WORD	7846940	wordpools/wasnorm_wordpool_576.txt	LTP378	ltpFR2	1	18	WITNESS	1618	n/a	n/a	0	0	0
3834.24560546875	n/a	WORD	7852535	wordpools/wasnorm_wordpool_576.txt	LTP378	ltpFR2	1	18	NIGHTGOWN	953	n/a	n/a	0	0	0
3836.9775390625	n/a	WORD	7858130	wordpools/wasnorm_wordpool_576.txt	LTP378	ltpFR2	1	18	LOFT	840	n/a	n/a	0	0	0
3839.642578125	n/a	WORD	7863588	wordpools/wasnorm_wordpool_576.txt	LTP378	ltpFR2	1	18	CRICKET	408	n/a	n/a	0	0	0
3842.09228515625	n/a	WORD	7868605	wordpools/wasnorm_wordpool_576.txt	LTP378	ltpFR2	1	18	PICNIC	1060	n/a	n/a	0	0	0
3844.70654296875	n/a	WORD	7873959	wordpools/wasnorm_wordpool_576.txt	LTP378	ltpFR2	1	18	TYPIST	1532	n/a	n/a	0	0	0
3847.15625	n/a	WORD	7878976	wordpools/wasnorm_wordpool_576.txt	LTP378	ltpFR2	1	18	WRIST	1626	n/a	n/a	0	0	0
3849.955078125	n/a	WORD	7884708	wordpools/wasnorm_wordpool_576.txt	LTP378	ltpFR2	1	18	GANGSTER	620	n/a	n/a	0	0	0
3852.404296875	n/a	WORD	7889724	wordpools/wasnorm_wordpool_576.txt	LTP378	ltpFR2	1	18	PANTHER	1009	n/a	n/a	0	0	0
3855.05322265625	n/a	WORD	7895149	wordpools/wasnorm_wordpool_576.txt	LTP378	ltpFR2	1	18	RATTLE	1170	n/a	n/a	0	0	0
3857.85107421875	n/a	WORD	7900879	wordpools/wasnorm_wordpool_576.txt	LTP378	ltpFR2	1	18	JEANS	752	n/a	n/a	0	0	0
3860.43310546875	n/a	WORD	7906167	wordpools/wasnorm_wordpool_576.txt	LTP378	ltpFR2	1	18	SLUG	1329	n/a	n/a	0	0	0
3863.23193359375	n/a	WORD	7911899	wordpools/wasnorm_wordpool_576.txt	LTP378	ltpFR2	1	18	BARREL	91	n/a	n/a	0	0	0
3865.74658203125	n/a	WORD	7917049	wordpools/wasnorm_wordpool_576.txt	LTP378	ltpFR2	1	18	PREACHER	1119	n/a	n/a	0	0	0
3868.21240234375	n/a	WORD	7922099	wordpools/wasnorm_wordpool_576.txt	LTP378	ltpFR2	1	18	DASHBOARD	441	n/a	n/a	0	0	0
3870.66064453125	n/a	WORD	7927113	wordpools/wasnorm_wordpool_576.txt	LTP378	ltpFR2	1	18	YOLK	1633	n/a	n/a	0	0	0
3873.3603515625	n/a	WORD	7932642	wordpools/wasnorm_wordpool_576.txt	LTP378	ltpFR2	1	18	FINGER	567	n/a	n/a	0	0	0
3876.0751953125	n/a	WORD	7938202	wordpools/wasnorm_wordpool_576.txt	LTP378	ltpFR2	1	18	CLOCK	325	n/a	n/a	0	0	0
3878.6572265625	n/a	WORD	7943490	wordpools/wasnorm_wordpool_576.txt	LTP378	ltpFR2	1	18	GLOVE	642	n/a	n/a	0	0	0
3881.34033203125	n/a	WORD	7948985	wordpools/wasnorm_wordpool_576.txt	LTP378	ltpFR2	1	18	TURTLE	1522	n/a	n/a	0	0	0
3883.83935546875	n/a	WORD	7954103	wordpools/wasnorm_wordpool_576.txt	LTP378	ltpFR2	1	18	CREVICE	405	n/a	n/a	0	0	0
3886.3212890625	n/a	WORD	7959186	wordpools/wasnorm_wordpool_576.txt	LTP378	ltpFR2	1	18	CRATER	400	n/a	n/a	0	0	0
3889.052734375	n/a	WORD	7964780	wordpools/wasnorm_wordpool_576.txt	LTP378	ltpFR2	1	18	BEEF	113	n/a	n/a	0	0	0
3890.66796875	n/a	START	7968088	n/a	LTP378	ltpFR2	1	n/a	n/a	n/a	27	n/a	n/a	n/a	n/a
3891.82080078125	n/a	DISTRACTOR	7970449	n/a	LTP378	ltpFR2	1	18	n/a	n/a	n/a	n/a	0	0	0
3891.8349609375	n/a	PROB	7970478	n/a	LTP378	ltpFR2	1	n/a	n/a	n/a	27	20	4	9	7
3895.36669921875	n/a	PROB	7977711	n/a	LTP378	ltpFR2	1	n/a	n/a	n/a	27	12	7	1	4
3896.98291015625	n/a	PROB	7981021	n/a	LTP378	ltpFR2	1	n/a	n/a	n/a	27	18	8	9	1
3899.6796875	n/a	PROB	7986544	n/a	LTP378	ltpFR2	1	n/a	n/a	n/a	27	17	6	6	5
3901.9296875	n/a	PROB	7991152	n/a	LTP378	ltpFR2	1	n/a	n/a	n/a	27	13	1	5	7
3903.66162109375	n/a	PROB	7994699	n/a	LTP378	ltpFR2	1	n/a	n/a	n/a	27	12	2	5	5
3905.67724609375	n/a	PROB	7998827	n/a	LTP378	ltpFR2	1	n/a	n/a	n/a	27	11	5	5	1
3910.84228515625	n/a	PROB	8009405	n/a	LTP378	ltpFR2	1	n/a	n/a	n/a	27	16	9	2	5
3914.3193359375	n/a	STOP	8016526	n/a	LTP378	ltpFR2	1	n/a	n/a	n/a	27	n/a	n/a	n/a	n/a
3916.47314453125	n/a	REC_START	8020937	n/a	LTP378	ltpFR2	1	18	n/a	n/a	n/a	n/a	0	0	0
3919.4580078125	n/a	REC_WORD_VV	8027050	wordpools/wasnorm_wordpool_576.txt	LTP378	ltpFR2	1	18	<>	-1	n/a	n/a	0	0	0
3920.0341796875	n/a	REC_WORD	8028230	wordpools/wasnorm_wordpool_576.txt	LTP378	ltpFR2	1	18	GAZELLE	628	n/a	n/a	0	0	0
3921.27001953125	n/a	REC_WORD	8030761	wordpools/wasnorm_wordpool_576.txt	LTP378	ltpFR2	1	18	NIGHTGOWN	953	n/a	n/a	0	0	0
3924.1279296875	n/a	REC_WORD	8036614	wordpools/wasnorm_wordpool_576.txt	LTP378	ltpFR2	1	18	WITNESS	1618	n/a	n/a	0	0	0
3927.82373046875	n/a	REC_WORD	8044183	wordpools/wasnorm_wordpool_576.txt	LTP378	ltpFR2	1	18	SLUG	1329	n/a	n/a	0	0	0
3928.86962890625	n/a	REC_WORD	8046325	wordpools/wasnorm_wordpool_576.txt	LTP378	ltpFR2	1	18	BARREL	91	n/a	n/a	0	0	0
3930.466796875	n/a	REC_WORD	8049596	wordpools/wasnorm_wordpool_576.txt	LTP378	ltpFR2	1	18	JEANS	752	n/a	n/a	0	0	0
3961.70654296875	n/a	REC_WORD	8113575	wordpools/wasnorm_wordpool_576.txt	LTP378	ltpFR2	1	18	TYPIST	1532	n/a	n/a	0	0	0
3963.40673828125	n/a	REC_WORD	8117057	wordpools/wasnorm_wordpool_576.txt	LTP378	ltpFR2	1	18	PANTHER	1009	n/a	n/a	0	0	0
3964.3916015625	n/a	REC_WORD	8119074	wordpools/wasnorm_wordpool_576.txt	LTP378	ltpFR2	1	18	WRIST	1626	n/a	n/a	0	0	0
4006.912109375	n/a	DISTRACTOR	8206156	n/a	LTP378	ltpFR2	1	19	n/a	n/a	n/a	n/a	0	0	0
4006.912109375	n/a	START	8206156	n/a	LTP378	ltpFR2	1	n/a	n/a	n/a	28	n/a	n/a	n/a	n/a
4006.92919921875	n/a	PROB	8206191	n/a	LTP378	ltpFR2	1	n/a	n/a	n/a	28	8	1	5	2
4009.14404296875	n/a	PROB	8210727	n/a	LTP378	ltpFR2	1	n/a	n/a	n/a	28	8	1	6	1
4011.8271484375	n/a	PROB	8216222	n/a	LTP378	ltpFR2	1	n/a	n/a	n/a	28	17	4	7	6
4013.92578125	n/a	PROB	8220520	n/a	LTP378	ltpFR2	1	n/a	n/a	n/a	28	21	6	7	9
4018.041015625	n/a	PROB	8228948	n/a	LTP378	ltpFR2	1	n/a	n/a	n/a	28	9	1	1	7
4020.90576171875	n/a	PROB	8234815	n/a	LTP378	ltpFR2	1	n/a	n/a	n/a	28	19	4	8	7
4023.2548828125	n/a	PROB	8239626	n/a	LTP378	ltpFR2	1	n/a	n/a	n/a	28	15	5	8	4
4025.71875	n/a	PROB	8244672	n/a	LTP378	ltpFR2	1	n/a	n/a	n/a	28	18	4	6	8
4030.21435546875	n/a	STOP	8253879	n/a	LTP378	ltpFR2	1	n/a	n/a	n/a	28	n/a	n/a	n/a	n/a
4031.7666015625	n/a	WORD	8257058	wordpools/wasnorm_wordpool_576.txt	LTP378	ltpFR2	1	19	REPORT	1184	n/a	n/a	0	0	0
4034.24951171875	n/a	WORD	8262143	wordpools/wasnorm_wordpool_576.txt	LTP378	ltpFR2	1	19	KLEENEX	782	n/a	n/a	0	0	0
4036.8310546875	n/a	WORD	8267430	wordpools/wasnorm_wordpool_576.txt	LTP378	ltpFR2	1	19	ROOSTER	1209	n/a	n/a	0	0	0
4039.54736328125	n/a	WORD	8272993	wordpools/wasnorm_wordpool_576.txt	LTP378	ltpFR2	1	19	TWEEZERS	1526	n/a	n/a	0	0	0
4042.34521484375	n/a	WORD	8278723	wordpools/wasnorm_wordpool_576.txt	LTP378	ltpFR2	1	19	WASHER	1592	n/a	n/a	0	0	0
4044.994140625	n/a	WORD	8284148	wordpools/wasnorm_wordpool_576.txt	LTP378	ltpFR2	1	19	WHISKERS	1605	n/a	n/a	0	0	0
4047.47607421875	n/a	WORD	8289231	wordpools/wasnorm_wordpool_576.txt	LTP378	ltpFR2	1	19	SPARROW	1347	n/a	n/a	0	0	0
4049.99169921875	n/a	WORD	8294383	wordpools/wasnorm_wordpool_576.txt	LTP378	ltpFR2	1	19	PIGEON	1065	n/a	n/a	0	0	0
4052.78955078125	n/a	WORD	8300113	wordpools/wasnorm_wordpool_576.txt	LTP378	ltpFR2	1	19	KEEPER	769	n/a	n/a	0	0	0
4055.37255859375	n/a	WORD	8305403	wordpools/wasnorm_wordpool_576.txt	LTP378	ltpFR2	1	19	DAUGHTER	442	n/a	n/a	0	0	0
4057.904296875	n/a	WORD	8310588	wordpools/wasnorm_wordpool_576.txt	LTP378	ltpFR2	1	19	CANAL	226	n/a	n/a	0	0	0
4060.4033203125	n/a	WORD	8315706	wordpools/wasnorm_wordpool_576.txt	LTP378	ltpFR2	1	19	HAMPER	682	n/a	n/a	0	0	0
4063.0185546875	n/a	WORD	8321062	wordpools/wasnorm_wordpool_576.txt	LTP378	ltpFR2	1	19	CASHEW	253	n/a	n/a	0	0	0
4065.83447265625	n/a	WORD	8326829	wordpools/wasnorm_wordpool_576.txt	LTP378	ltpFR2	1	19	VENUS	1557	n/a	n/a	0	0	0
4068.46630859375	n/a	WORD	8332219	wordpools/wasnorm_wordpool_576.txt	LTP378	ltpFR2	1	19	COFFEE	341	n/a	n/a	0	0	0
4071.04833984375	n/a	WORD	8337507	wordpools/wasnorm_wordpool_576.txt	LTP378	ltpFR2	1	19	TABLET	1427	n/a	n/a	0	0	0
4073.64599609375	n/a	WORD	8342827	wordpools/wasnorm_wordpool_576.txt	LTP378	ltpFR2	1	19	PARROT	1015	n/a	n/a	0	0	0
4076.0791015625	n/a	WORD	8347810	wordpools/wasnorm_wordpool_576.txt	LTP378	ltpFR2	1	19	DIME	466	n/a	n/a	0	0	0
4078.60986328125	n/a	WORD	8352993	wordpools/wasnorm_wordpool_576.txt	LTP378	ltpFR2	1	19	FRAGRANCE	599	n/a	n/a	0	0	0
4081.142578125	n/a	WORD	8358180	wordpools/wasnorm_wordpool_576.txt	LTP378	ltpFR2	1	19	TEACHER	1440	n/a	n/a	0	0	0
4083.87451171875	n/a	WORD	8363775	wordpools/wasnorm_wordpool_576.txt	LTP378	ltpFR2	1	19	BATHTUB	100	n/a	n/a	0	0	0
4086.5234375	n/a	WORD	8369200	wordpools/wasnorm_wordpool_576.txt	LTP378	ltpFR2	1	19	SHIRT	1287	n/a	n/a	0	0	0
4089.1396484375	n/a	WORD	8374558	wordpools/wasnorm_wordpool_576.txt	LTP378	ltpFR2	1	19	SMOG	1330	n/a	n/a	0	0	0
4091.603515625	n/a	WORD	8379604	wordpools/wasnorm_wordpool_576.txt	LTP378	ltpFR2	1	19	TROMBONE	1508	n/a	n/a	0	0	0
4093.22021484375	n/a	START	8382915	n/a	LTP378	ltpFR2	1	n/a	n/a	n/a	29	n/a	n/a	n/a	n/a
4094.0595703125	n/a	DISTRACTOR	8384634	n/a	LTP378	ltpFR2	1	19	n/a	n/a	n/a	n/a	0	0	0
4094.0703125	n/a	PROB	8384656	n/a	LTP378	ltpFR2	1	n/a	n/a	n/a	29	12	4	6	2
4096.60107421875	n/a	PROB	8389839	n/a	LTP378	ltpFR2	1	n/a	n/a	n/a	29	19	8	9	2
4099.63330078125	n/a	PROB	8396049	n/a	LTP378	ltpFR2	1	n/a	n/a	n/a	29	25	8	9	8
4104.19921875	n/a	PROB	8405400	n/a	LTP378	ltpFR2	1	n/a	n/a	n/a	29	14	5	7	2
4106.380859375	n/a	PROB	8409868	n/a	LTP378	ltpFR2	1	n/a	n/a	n/a	29	17	5	3	9
4109.94580078125	n/a	PROB	8417169	n/a	LTP378	ltpFR2	1	n/a	n/a	n/a	29	9	3	1	5
4111.56103515625	n/a	PROB	8420477	n/a	LTP378	ltpFR2	1	n/a	n/a	n/a	29	18	4	9	5
4117.2197265625	n/a	STOP	8432066	n/a	LTP378	ltpFR2	1	n/a	n/a	n/a	29	n/a	n/a	n/a	n/a
4119.05859375	n/a	REC_START	8435832	n/a	LTP378	ltpFR2	1	19	n/a	n/a	n/a	n/a	0	0	0
4120.0634765625	n/a	REC_WORD	8437890	wordpools/wasnorm_wordpool_576.txt	LTP378	ltpFR2	1	19	REPORT	1184	n/a	n/a	0	0	0
4121.40966796875	n/a	REC_WORD	8440647	wordpools/wasnorm_wordpool_576.txt	LTP378	ltpFR2	1	19	KLEENEX	782	n/a	n/a	0	0	0
4127.47314453125	n/a	REC_WORD	8453065	wordpools/wasnorm_wordpool_576.txt	LTP378	ltpFR2	1	19	TROMBONE	1508	n/a	n/a	0	0	0
4133.5869140625	n/a	REC_WORD	8465586	wordpools/wasnorm_wordpool_576.txt	LTP378	ltpFR2	1	19	SMOG	1330	n/a	n/a	0	0	0
4138.65771484375	n/a	REC_WORD	8475971	wordpools/wasnorm_wordpool_576.txt	LTP378	ltpFR2	1	19	PIGEON	1065	n/a	n/a	0	0	0
4139.36767578125	n/a	REC_WORD	8477425	wordpools/wasnorm_wordpool_576.txt	LTP378	ltpFR2	1	19	HAWK	692	n/a	n/a	0	0	0
4140.2451171875	n/a	REC_WORD	8479222	wordpools/wasnorm_wordpool_576.txt	LTP378	ltpFR2	1	19	ROOSTER	1209	n/a	n/a	0	0	0
4143.85498046875	n/a	REC_WORD	8486615	wordpools/wasnorm_wordpool_576.txt	LTP378	ltpFR2	1	19	CATTLE	261	n/a	n/a	0	0	0
4159.689453125	n/a	REC_WORD_VV	8519044	wordpools/wasnorm_wordpool_576.txt	LTP378	ltpFR2	1	19	<>	-1	n/a	n/a	0	0	0
4162.05908203125	n/a	REC_WORD_VV	8523897	wordpools/wasnorm_wordpool_576.txt	LTP378	ltpFR2	1	19	<>	-1	n/a	n/a	0	0	0
4162.498046875	n/a	REC_WORD	8524796	wordpools/wasnorm_wordpool_576.txt	LTP378	ltpFR2	1	19	SCARECROW	1245	n/a	n/a	0	0	0
4168.759765625	n/a	REC_WORD_VV	8537620	wordpools/wasnorm_wordpool_576.txt	LTP378	ltpFR2	1	19	<>	-1	n/a	n/a	0	0	0
4169.22998046875	n/a	REC_WORD_VV	8538583	wordpools/wasnorm_wordpool_576.txt	LTP378	ltpFR2	1	19	<>	-1	n/a	n/a	0	0	0
4209.49755859375	n/a	DISTRACTOR	8621051	n/a	LTP378	ltpFR2	1	20	n/a	n/a	n/a	n/a	0	0	0
4209.49755859375	n/a	START	8621051	n/a	LTP378	ltpFR2	1	n/a	n/a	n/a	30	n/a	n/a	n/a	n/a
4209.5146484375	n/a	PROB	8621086	n/a	LTP378	ltpFR2	1	n/a	n/a	n/a	30	8	3	4	1
4213.46240234375	n/a	PROB	8629171	n/a	LTP378	ltpFR2	1	n/a	n/a	n/a	30	13	5	3	5
4215.51123046875	n/a	PROB	8633367	n/a	LTP378	ltpFR2	1	n/a	n/a	n/a	30	14	2	6	6
4217.37744140625	n/a	PROB	8637189	n/a	LTP378	ltpFR2	1	n/a	n/a	n/a	30	19	8	3	8
4224.990234375	n/a	PROB	8652780	n/a	LTP378	ltpFR2	1	n/a	n/a	n/a	30	18	9	3	6
4227.55615234375	n/a	PROB	8658035	n/a	LTP378	ltpFR2	1	n/a	n/a	n/a	30	9	3	4	2
4229.52099609375	n/a	PROB	8662059	n/a	LTP378	ltpFR2	1	n/a	n/a	n/a	30	16	7	4	5
4232.1259765625	n/a	STOP	8667394	n/a	LTP378	ltpFR2	1	n/a	n/a	n/a	30	n/a	n/a	n/a	n/a
4234.65087890625	n/a	WORD	8672565	wordpools/wasnorm_wordpool_576.txt	LTP378	ltpFR2	1	20	COOK	372	n/a	n/a	0	0	0
4237.1005859375	n/a	WORD	8677582	wordpools/wasnorm_wordpool_576.txt	LTP378	ltpFR2	1	20	TERMITE	1451	n/a	n/a	0	0	0
4239.64892578125	n/a	WORD	8682801	wordpools/wasnorm_wordpool_576.txt	LTP378	ltpFR2	1	20	SCISSORS	1250	n/a	n/a	0	0	0
4242.181640625	n/a	WORD	8687988	wordpools/wasnorm_wordpool_576.txt	LTP378	ltpFR2	1	20	ROCKET	1202	n/a	n/a	0	0	0
4244.71240234375	n/a	WORD	8693171	wordpools/wasnorm_wordpool_576.txt	LTP378	ltpFR2	1	20	AIRPORT	13	n/a	n/a	0	0	0
4247.49560546875	n/a	WORD	8698871	wordpools/wasnorm_wordpool_576.txt	LTP378	ltpFR2	1	20	SHOULDER	1294	n/a	n/a	0	0	0
4250.01123046875	n/a	WORD	8704023	wordpools/wasnorm_wordpool_576.txt	LTP378	ltpFR2	1	20	BABY	64	n/a	n/a	0	0	0
4252.64208984375	n/a	WORD	8709411	wordpools/wasnorm_wordpool_576.txt	LTP378	ltpFR2	1	20	RABBIT	1152	n/a	n/a	0	0	0
4255.09228515625	n/a	WORD	8714429	wordpools/wasnorm_wordpool_576.txt	LTP378	ltpFR2	1	20	TORTOISE	1486	n/a	n/a	0	0	0
4257.67333984375	n/a	WORD	8719715	wordpools/wasnorm_wordpool_576.txt	LTP378	ltpFR2	1	20	DONKEY	484	n/a	n/a	0	0	0
4260.35595703125	n/a	WORD	8725209	wordpools/wasnorm_wordpool_576.txt	LTP378	ltpFR2	1	20	CONVICT	371	n/a	n/a	0	0	0
4263.0380859375	n/a	WORD	8730702	wordpools/wasnorm_wordpool_576.txt	LTP378	ltpFR2	1	20	PECAN	1036	n/a	n/a	0	0	0
4265.52099609375	n/a	WORD	8735787	wordpools/wasnorm_wordpool_576.txt	LTP378	ltpFR2	1	20	GUITAR	670	n/a	n/a	0	0	0
4268.1357421875	n/a	WORD	8741142	wordpools/wasnorm_wordpool_576.txt	LTP378	ltpFR2	1	20	PACKAGE	997	n/a	n/a	0	0	0
4270.91748046875	n/a	WORD	8746839	wordpools/wasnorm_wordpool_576.txt	LTP378	ltpFR2	1	20	GIFT	635	n/a	n/a	0	0	0
4273.66552734375	n/a	WORD	8752467	wordpools/wasnorm_wordpool_576.txt	LTP378	ltpFR2	1	20	BANJO	82	n/a	n/a	0	0	0
4276.4814453125	n/a	WORD	8758234	wordpools/wasnorm_wordpool_576.txt	LTP378	ltpFR2	1	20	SURVEY	1414	n/a	n/a	0	0	0
4279.2802734375	n/a	WORD	8763966	wordpools/wasnorm_wordpool_576.txt	LTP378	ltpFR2	1	20	TABLE	1426	n/a	n/a	0	0	0
4281.9794921875	n/a	WORD	8769494	wordpools/wasnorm_wordpool_576.txt	LTP378	ltpFR2	1	20	GLASS	639	n/a	n/a	0	0	0
4284.494140625	n/a	WORD	8774644	wordpools/wasnorm_wordpool_576.txt	LTP378	ltpFR2	1	20	CLOTHES	327	n/a	n/a	0	0	0
4287.04296875	n/a	WORD	8779864	wordpools/wasnorm_wordpool_576.txt	LTP378	ltpFR2	1	20	CHIPMUNK	304	n/a	n/a	0	0	0
4289.85888671875	n/a	WORD	8785631	wordpools/wasnorm_wordpool_576.txt	LTP378	ltpFR2	1	20	GRIZZLY	662	n/a	n/a	0	0	0
4292.39111328125	n/a	WORD	8790817	wordpools/wasnorm_wordpool_576.txt	LTP378	ltpFR2	1	20	JURY	766	n/a	n/a	0	0	0
4294.98974609375	n/a	WORD	8796139	wordpools/wasnorm_wordpool_576.txt	LTP378	ltpFR2	1	20	CURTAIN	427	n/a	n/a	0	0	0
4296.60498046875	n/a	START	8799447	n/a	LTP378	ltpFR2	1	n/a	n/a	n/a	31	n/a	n/a	n/a	n/a
4297.4208984375	n/a	DISTRACTOR	8801118	n/a	LTP378	ltpFR2	1	20	n/a	n/a	n/a	n/a	0	0	0
4297.43896484375	n/a	PROB	8801155	n/a	LTP378	ltpFR2	1	n/a	n/a	n/a	31	16	1	6	9
4301.26953125	n/a	PROB	8809000	n/a	LTP378	ltpFR2	1	n/a	n/a	n/a	31	12	1	6	5
4303.48583984375	n/a	PROB	8813539	n/a	LTP378	ltpFR2	1	n/a	n/a	n/a	31	20	7	4	9
4306.234375	n/a	PROB	8819168	n/a	LTP378	ltpFR2	1	n/a	n/a	n/a	31	15	7	1	7
4308.86669921875	n/a	PROB	8824559	n/a	LTP378	ltpFR2	1	n/a	n/a	n/a	31	12	1	4	7
4312.1982421875	n/a	PROB	8831382	n/a	LTP378	ltpFR2	1	n/a	n/a	n/a	31	14	5	8	1
4313.74609375	n/a	PROB	8834552	n/a	LTP378	ltpFR2	1	n/a	n/a	n/a	31	21	8	6	7
4319.68505859375	n/a	STOP	8846715	n/a	LTP378	ltpFR2	1	n/a	n/a	n/a	31	n/a	n/a	n/a	n/a
4322.376953125	n/a	REC_START	8852228	n/a	LTP378	ltpFR2	1	20	n/a	n/a	n/a	n/a	0	0	0
4327.05712890625	n/a	REC_WORD	8861813	wordpools/wasnorm_wordpool_576.txt	LTP378	ltpFR2	1	20	BUNNY	198	n/a	n/a	0	0	0
4327.56298828125	n/a	REC_WORD	8862849	wordpools/wasnorm_wordpool_576.txt	LTP378	ltpFR2	1	20	RABBIT	1152	n/a	n/a	0	0	0
4338.0703125	n/a	REC_WORD	8884368	wordpools/wasnorm_wordpool_576.txt	LTP378	ltpFR2	1	20	PIGEON	1065	n/a	n/a	0	0	0
