mstime	trial_type	stim_file	subject	experiment	session	trial	item_name	item_num	list	answer	test_x	test_y	test_z
0	SESS_START	n/a	LTP365	ltpFR2	10	n/a	n/a	n/a	n/a	n/a	0	0	0
16728	START	n/a	LTP365	ltpFR2	10	n/a	n/a	n/a	-1	n/a	n/a	n/a	n/a
16758	PROB	n/a	LTP365	ltpFR2	10	n/a	n/a	n/a	-1	24	8	9	7
20323	PROB	n/a	LTP365	ltpFR2	10	n/a	n/a	n/a	-1	15	4	6	5
21723	PROB	n/a	LTP365	ltpFR2	10	n/a	n/a	n/a	-1	18	6	7	5
23305	PROB	n/a	LTP365	ltpFR2	10	n/a	n/a	n/a	-1	5	1	2	2
24388	PROB	n/a	LTP365	ltpFR2	10	n/a	n/a	n/a	-1	25	8	9	8
28727	STOP	n/a	LTP365	ltpFR2	10	n/a	n/a	n/a	-1	n/a	n/a	n/a	n/a
63020	DISTRACTOR	n/a	LTP365	ltpFR2	10	1	n/a	n/a	n/a	n/a	0	0	0
63020	START	n/a	LTP365	ltpFR2	10	n/a	n/a	n/a	1	n/a	n/a	n/a	n/a
63036	PROB	n/a	LTP365	ltpFR2	10	n/a	n/a	n/a	1	19	6	8	5
65501	PROB	n/a	LTP365	ltpFR2	10	n/a	n/a	n/a	1	15	3	6	6
66750	PROB	n/a	LTP365	ltpFR2	10	n/a	n/a	n/a	1	18	8	7	3
67983	PROB	n/a	LTP365	ltpFR2	10	n/a	n/a	n/a	1	12	7	3	2
69150	PROB	n/a	LTP365	ltpFR2	10	n/a	n/a	n/a	1	18	7	2	9
70715	PROB	n/a	LTP365	ltpFR2	10	n/a	n/a	n/a	1	13	9	3	1
72714	PROB	n/a	LTP365	ltpFR2	10	n/a	n/a	n/a	1	9	4	3	2
74529	PROB	n/a	LTP365	ltpFR2	10	n/a	n/a	n/a	1	19	3	8	8
76063	PROB	n/a	LTP365	ltpFR2	10	n/a	n/a	n/a	1	19	6	6	7
77611	PROB	n/a	LTP365	ltpFR2	10	n/a	n/a	n/a	1	21	7	8	6
79128	PROB	n/a	LTP365	ltpFR2	10	n/a	n/a	n/a	1	13	1	3	9
80543	PROB	n/a	LTP365	ltpFR2	10	n/a	n/a	n/a	1	10	2	2	6
81709	PROB	n/a	LTP365	ltpFR2	10	n/a	n/a	n/a	1	20	6	9	5
87020	STOP	n/a	LTP365	ltpFR2	10	n/a	n/a	n/a	1	n/a	n/a	n/a	n/a
87990	WORD	wordpools/wasnorm_wordpool_576.txt	LTP365	ltpFR2	10	1	VAGRANT	1544	n/a	n/a	0	0	0
90488	WORD	wordpools/wasnorm_wordpool_576.txt	LTP365	ltpFR2	10	1	TYPIST	1532	n/a	n/a	0	0	0
93004	WORD	wordpools/wasnorm_wordpool_576.txt	LTP365	ltpFR2	10	1	COUNTY	389	n/a	n/a	0	0	0
95719	WORD	wordpools/wasnorm_wordpool_576.txt	LTP365	ltpFR2	10	1	PATROL	1027	n/a	n/a	0	0	0
98351	WORD	wordpools/wasnorm_wordpool_576.txt	LTP365	ltpFR2	10	1	PILOT	1070	n/a	n/a	0	0	0
100800	WORD	wordpools/wasnorm_wordpool_576.txt	LTP365	ltpFR2	10	1	HAMPER	682	n/a	n/a	0	0	0
103499	WORD	wordpools/wasnorm_wordpool_576.txt	LTP365	ltpFR2	10	1	CLAM	315	n/a	n/a	0	0	0
106265	WORD	wordpools/wasnorm_wordpool_576.txt	LTP365	ltpFR2	10	1	VALVE	1546	n/a	n/a	0	0	0
108746	WORD	wordpools/wasnorm_wordpool_576.txt	LTP365	ltpFR2	10	1	DRIVER	499	n/a	n/a	0	0	0
111328	WORD	wordpools/wasnorm_wordpool_576.txt	LTP365	ltpFR2	10	1	COTTAGE	384	n/a	n/a	0	0	0
114061	WORD	wordpools/wasnorm_wordpool_576.txt	LTP365	ltpFR2	10	1	LEOPARD	812	n/a	n/a	0	0	0
116542	WORD	wordpools/wasnorm_wordpool_576.txt	LTP365	ltpFR2	10	1	TURTLE	1522	n/a	n/a	0	0	0
118991	WORD	wordpools/wasnorm_wordpool_576.txt	LTP365	ltpFR2	10	1	BURGLAR	200	n/a	n/a	0	0	0
121506	WORD	wordpools/wasnorm_wordpool_576.txt	LTP365	ltpFR2	10	1	SUSPECT	1415	n/a	n/a	0	0	0
124089	WORD	wordpools/wasnorm_wordpool_576.txt	LTP365	ltpFR2	10	1	COFFEE	341	n/a	n/a	0	0	0
126587	WORD	wordpools/wasnorm_wordpool_576.txt	LTP365	ltpFR2	10	1	MONSTER	912	n/a	n/a	0	0	0
129187	WORD	wordpools/wasnorm_wordpool_576.txt	LTP365	ltpFR2	10	1	SPIDER	1351	n/a	n/a	0	0	0
131735	WORD	wordpools/wasnorm_wordpool_576.txt	LTP365	ltpFR2	10	1	COBRA	336	n/a	n/a	0	0	0
134416	WORD	wordpools/wasnorm_wordpool_576.txt	LTP365	ltpFR2	10	1	DONOR	485	n/a	n/a	0	0	0
137099	WORD	wordpools/wasnorm_wordpool_576.txt	LTP365	ltpFR2	10	1	KNIFE	785	n/a	n/a	0	0	0
139681	WORD	wordpools/wasnorm_wordpool_576.txt	LTP365	ltpFR2	10	1	JAPAN	749	n/a	n/a	0	0	0
142197	WORD	wordpools/wasnorm_wordpool_576.txt	LTP365	ltpFR2	10	1	OFFICE	972	n/a	n/a	0	0	0
144995	WORD	wordpools/wasnorm_wordpool_576.txt	LTP365	ltpFR2	10	1	BRANCH	168	n/a	n/a	0	0	0
147510	WORD	wordpools/wasnorm_wordpool_576.txt	LTP365	ltpFR2	10	1	ISLAND	745	n/a	n/a	0	0	0
149127	START	n/a	LTP365	ltpFR2	10	n/a	n/a	n/a	2	n/a	n/a	n/a	n/a
149978	DISTRACTOR	n/a	LTP365	ltpFR2	10	1	n/a	n/a	n/a	n/a	0	0	0
149992	PROB	n/a	LTP365	ltpFR2	10	n/a	n/a	n/a	2	13	8	3	2
151408	PROB	n/a	LTP365	ltpFR2	10	n/a	n/a	n/a	2	16	6	1	9
152574	PROB	n/a	LTP365	ltpFR2	10	n/a	n/a	n/a	2	20	9	5	6
154490	PROB	n/a	LTP365	ltpFR2	10	n/a	n/a	n/a	2	14	3	7	4
155689	PROB	n/a	LTP365	ltpFR2	10	n/a	n/a	n/a	2	11	1	7	3
156839	PROB	n/a	LTP365	ltpFR2	10	n/a	n/a	n/a	2	13	2	2	9
158288	PROB	n/a	LTP365	ltpFR2	10	n/a	n/a	n/a	2	8	3	1	4
159671	PROB	n/a	LTP365	ltpFR2	10	n/a	n/a	n/a	2	14	6	1	7
161320	PROB	n/a	LTP365	ltpFR2	10	n/a	n/a	n/a	2	24	9	6	9
163702	PROB	n/a	LTP365	ltpFR2	10	n/a	n/a	n/a	2	13	2	8	2
164918	PROB	n/a	LTP365	ltpFR2	10	n/a	n/a	n/a	2	15	3	8	4
167300	PROB	n/a	LTP365	ltpFR2	10	n/a	n/a	n/a	2	6	3	2	1
168599	PROB	n/a	LTP365	ltpFR2	10	n/a	n/a	n/a	2	16	2	6	8
170282	PROB	n/a	LTP365	ltpFR2	10	n/a	n/a	n/a	2	19	6	4	9
171731	STOP	n/a	LTP365	ltpFR2	10	n/a	n/a	n/a	2	n/a	n/a	n/a	n/a
174980	REC_START	n/a	LTP365	ltpFR2	10	1	n/a	n/a	n/a	n/a	0	0	0
176388	REC_WORD	wordpools/wasnorm_wordpool_576.txt	LTP365	ltpFR2	10	1	VAGRANT	1544	n/a	n/a	0	0	0
177278	REC_WORD	wordpools/wasnorm_wordpool_576.txt	LTP365	ltpFR2	10	1	OFFICE	972	n/a	n/a	0	0	0
178000	REC_WORD	wordpools/wasnorm_wordpool_576.txt	LTP365	ltpFR2	10	1	TYPIST	1532	n/a	n/a	0	0	0
178909	REC_WORD	wordpools/wasnorm_wordpool_576.txt	LTP365	ltpFR2	10	1	BRANCH	168	n/a	n/a	0	0	0
179414	REC_WORD	wordpools/wasnorm_wordpool_576.txt	LTP365	ltpFR2	10	1	PATROL	1027	n/a	n/a	0	0	0
182016	REC_WORD	wordpools/wasnorm_wordpool_576.txt	LTP365	ltpFR2	10	1	BURGLAR	200	n/a	n/a	0	0	0
182961	REC_WORD	wordpools/wasnorm_wordpool_576.txt	LTP365	ltpFR2	10	1	JAPAN	749	n/a	n/a	0	0	0
186385	REC_WORD	wordpools/wasnorm_wordpool_576.txt	LTP365	ltpFR2	10	1	VALVE	1546	n/a	n/a	0	0	0
187657	REC_WORD	wordpools/wasnorm_wordpool_576.txt	LTP365	ltpFR2	10	1	DONOR	485	n/a	n/a	0	0	0
190453	REC_WORD	wordpools/wasnorm_wordpool_576.txt	LTP365	ltpFR2	10	1	HAMPER	682	n/a	n/a	0	0	0
192277	REC_WORD	wordpools/wasnorm_wordpool_576.txt	LTP365	ltpFR2	10	1	KNIFE	785	n/a	n/a	0	0	0
199579	REC_WORD	wordpools/wasnorm_wordpool_576.txt	LTP365	ltpFR2	10	1	CLAM	315	n/a	n/a	0	0	0
204010	REC_WORD_VV	wordpools/wasnorm_wordpool_576.txt	LTP365	ltpFR2	10	1	<>	-1	n/a	n/a	0	0	0
209983	REC_WORD	wordpools/wasnorm_wordpool_576.txt	LTP365	ltpFR2	10	1	DRIVER	499	n/a	n/a	0	0	0
211133	REC_WORD	wordpools/wasnorm_wordpool_576.txt	LTP365	ltpFR2	10	1	PILOT	1070	n/a	n/a	0	0	0
228661	REC_WORD	wordpools/wasnorm_wordpool_576.txt	LTP365	ltpFR2	10	1	COUNTY	389	n/a	n/a	0	0	0
265435	WORD	wordpools/wasnorm_wordpool_576.txt	LTP365	ltpFR2	10	2	NURSE	963	n/a	n/a	0	0	0
268168	WORD	wordpools/wasnorm_wordpool_576.txt	LTP365	ltpFR2	10	2	FLASHLIGHT	575	n/a	n/a	0	0	0
270715	WORD	wordpools/wasnorm_wordpool_576.txt	LTP365	ltpFR2	10	2	TERMITE	1451	n/a	n/a	0	0	0
273397	WORD	wordpools/wasnorm_wordpool_576.txt	LTP365	ltpFR2	10	2	SHRUB	1299	n/a	n/a	0	0	0
275863	WORD	wordpools/wasnorm_wordpool_576.txt	LTP365	ltpFR2	10	2	LABEL	790	n/a	n/a	0	0	0
278445	WORD	wordpools/wasnorm_wordpool_576.txt	LTP365	ltpFR2	10	2	PATIENT	1024	n/a	n/a	0	0	0
280894	WORD	wordpools/wasnorm_wordpool_576.txt	LTP365	ltpFR2	10	2	CRATER	400	n/a	n/a	0	0	0
283592	WORD	wordpools/wasnorm_wordpool_576.txt	LTP365	ltpFR2	10	2	PASTA	1021	n/a	n/a	0	0	0
286408	WORD	wordpools/wasnorm_wordpool_576.txt	LTP365	ltpFR2	10	2	TWISTER	1530	n/a	n/a	0	0	0
288973	WORD	wordpools/wasnorm_wordpool_576.txt	LTP365	ltpFR2	10	2	BEAVER	109	n/a	n/a	0	0	0
291605	WORD	wordpools/wasnorm_wordpool_576.txt	LTP365	ltpFR2	10	2	CLOCK	325	n/a	n/a	0	0	0
294287	WORD	wordpools/wasnorm_wordpool_576.txt	LTP365	ltpFR2	10	2	BIKE	125	n/a	n/a	0	0	0
296902	WORD	wordpools/wasnorm_wordpool_576.txt	LTP365	ltpFR2	10	2	PISTON	1076	n/a	n/a	0	0	0
299435	WORD	wordpools/wasnorm_wordpool_576.txt	LTP365	ltpFR2	10	2	MESSAGE	888	n/a	n/a	0	0	0
302101	WORD	wordpools/wasnorm_wordpool_576.txt	LTP365	ltpFR2	10	2	PROTON	1132	n/a	n/a	0	0	0
304615	WORD	wordpools/wasnorm_wordpool_576.txt	LTP365	ltpFR2	10	2	AIRPORT	13	n/a	n/a	0	0	0
307198	WORD	wordpools/wasnorm_wordpool_576.txt	LTP365	ltpFR2	10	2	MAILMAN	858	n/a	n/a	0	0	0
309946	WORD	wordpools/wasnorm_wordpool_576.txt	LTP365	ltpFR2	10	2	COIN	343	n/a	n/a	0	0	0
312511	WORD	wordpools/wasnorm_wordpool_576.txt	LTP365	ltpFR2	10	2	SWIMMER	1420	n/a	n/a	0	0	0
315111	WORD	wordpools/wasnorm_wordpool_576.txt	LTP365	ltpFR2	10	2	SEAL	1262	n/a	n/a	0	0	0
317825	WORD	wordpools/wasnorm_wordpool_576.txt	LTP365	ltpFR2	10	2	POSSUM	1112	n/a	n/a	0	0	0
320574	WORD	wordpools/wasnorm_wordpool_576.txt	LTP365	ltpFR2	10	2	PISTOL	1075	n/a	n/a	0	0	0
323373	WORD	wordpools/wasnorm_wordpool_576.txt	LTP365	ltpFR2	10	2	INFANT	737	n/a	n/a	0	0	0
326122	WORD	wordpools/wasnorm_wordpool_576.txt	LTP365	ltpFR2	10	2	BABY	64	n/a	n/a	0	0	0
327737	START	n/a	LTP365	ltpFR2	10	n/a	n/a	n/a	3	n/a	n/a	n/a	n/a
328793	DISTRACTOR	n/a	LTP365	ltpFR2	10	2	n/a	n/a	n/a	n/a	0	0	0
328820	PROB	n/a	LTP365	ltpFR2	10	n/a	n/a	n/a	3	12	5	3	4
330752	PROB	n/a	LTP365	ltpFR2	10	n/a	n/a	n/a	3	14	5	7	2
332818	PROB	n/a	LTP365	ltpFR2	10	n/a	n/a	n/a	3	20	6	8	6
335350	PROB	n/a	LTP365	ltpFR2	10	n/a	n/a	n/a	3	12	2	4	6
337034	PROB	n/a	LTP365	ltpFR2	10	n/a	n/a	n/a	3	9	2	1	6
338698	PROB	n/a	LTP365	ltpFR2	10	n/a	n/a	n/a	3	16	4	5	7
341280	PROB	n/a	LTP365	ltpFR2	10	n/a	n/a	n/a	3	17	2	9	6
344197	PROB	n/a	LTP365	ltpFR2	10	n/a	n/a	n/a	3	14	6	2	6
345662	PROB	n/a	LTP365	ltpFR2	10	n/a	n/a	n/a	3	16	5	9	2
347827	PROB	n/a	LTP365	ltpFR2	10	n/a	n/a	n/a	3	20	5	6	9
351737	STOP	n/a	LTP365	ltpFR2	10	n/a	n/a	n/a	3	n/a	n/a	n/a	n/a
353625	REC_START	n/a	LTP365	ltpFR2	10	2	n/a	n/a	n/a	n/a	0	0	0
354058	REC_WORD	wordpools/wasnorm_wordpool_576.txt	LTP365	ltpFR2	10	2	SEAL	1262	n/a	n/a	0	0	0
354815	REC_WORD	wordpools/wasnorm_wordpool_576.txt	LTP365	ltpFR2	10	2	INFANT	737	n/a	n/a	0	0	0
355441	REC_WORD	wordpools/wasnorm_wordpool_576.txt	LTP365	ltpFR2	10	2	BABY	64	n/a	n/a	0	0	0
355909	REC_WORD	wordpools/wasnorm_wordpool_576.txt	LTP365	ltpFR2	10	2	SWIMMER	1420	n/a	n/a	0	0	0
357771	REC_WORD	wordpools/wasnorm_wordpool_576.txt	LTP365	ltpFR2	10	2	AIRPORT	13	n/a	n/a	0	0	0
359232	REC_WORD	wordpools/wasnorm_wordpool_576.txt	LTP365	ltpFR2	10	2	CRATER	400	n/a	n/a	0	0	0
361252	REC_WORD	wordpools/wasnorm_wordpool_576.txt	LTP365	ltpFR2	10	2	PROTON	1132	n/a	n/a	0	0	0
362272	REC_WORD	wordpools/wasnorm_wordpool_576.txt	LTP365	ltpFR2	10	2	NURSE	963	n/a	n/a	0	0	0
363046	REC_WORD	wordpools/wasnorm_wordpool_576.txt	LTP365	ltpFR2	10	2	PATIENT	1024	n/a	n/a	0	0	0
364794	REC_WORD	wordpools/wasnorm_wordpool_576.txt	LTP365	ltpFR2	10	2	PISTON	1076	n/a	n/a	0	0	0
366411	REC_WORD	wordpools/wasnorm_wordpool_576.txt	LTP365	ltpFR2	10	2	BEAVER	109	n/a	n/a	0	0	0
373912	REC_WORD	wordpools/wasnorm_wordpool_576.txt	LTP365	ltpFR2	10	2	TWISTER	1530	n/a	n/a	0	0	0
375563	REC_WORD	wordpools/wasnorm_wordpool_576.txt	LTP365	ltpFR2	10	2	CLOCK	325	n/a	n/a	0	0	0
383164	REC_WORD	wordpools/wasnorm_wordpool_576.txt	LTP365	ltpFR2	10	2	SPIDER	1351	n/a	n/a	0	0	0
398265	REC_WORD	wordpools/wasnorm_wordpool_576.txt	LTP365	ltpFR2	10	2	MESSAGE	888	n/a	n/a	0	0	0
410092	REC_WORD	wordpools/wasnorm_wordpool_576.txt	LTP365	ltpFR2	10	2	LABEL	790	n/a	n/a	0	0	0
420221	REC_WORD	wordpools/wasnorm_wordpool_576.txt	LTP365	ltpFR2	10	2	CLOCK	325	n/a	n/a	0	0	0
420550	REC_WORD	wordpools/wasnorm_wordpool_576.txt	LTP365	ltpFR2	10	2	TERMITE	1451	n/a	n/a	0	0	0
444097	WORD	wordpools/wasnorm_wordpool_576.txt	LTP365	ltpFR2	10	3	CYCLONE	431	n/a	n/a	0	0	0
446811	WORD	wordpools/wasnorm_wordpool_576.txt	LTP365	ltpFR2	10	3	CROSS	413	n/a	n/a	0	0	0
449577	WORD	wordpools/wasnorm_wordpool_576.txt	LTP365	ltpFR2	10	3	FOX	598	n/a	n/a	0	0	0
452126	WORD	wordpools/wasnorm_wordpool_576.txt	LTP365	ltpFR2	10	3	STOMACH	1384	n/a	n/a	0	0	0
454674	WORD	wordpools/wasnorm_wordpool_576.txt	LTP365	ltpFR2	10	3	SEAFOOD	1260	n/a	n/a	0	0	0
457306	WORD	wordpools/wasnorm_wordpool_576.txt	LTP365	ltpFR2	10	3	GRILL	661	n/a	n/a	0	0	0
459822	WORD	wordpools/wasnorm_wordpool_576.txt	LTP365	ltpFR2	10	3	BREAST	171	n/a	n/a	0	0	0
462304	WORD	wordpools/wasnorm_wordpool_576.txt	LTP365	ltpFR2	10	3	NOTEBOOK	959	n/a	n/a	0	0	0
465002	WORD	wordpools/wasnorm_wordpool_576.txt	LTP365	ltpFR2	10	3	STREAM	1392	n/a	n/a	0	0	0
467501	WORD	wordpools/wasnorm_wordpool_576.txt	LTP365	ltpFR2	10	3	CREVICE	405	n/a	n/a	0	0	0
470151	WORD	wordpools/wasnorm_wordpool_576.txt	LTP365	ltpFR2	10	3	GAZELLE	628	n/a	n/a	0	0	0
472732	WORD	wordpools/wasnorm_wordpool_576.txt	LTP365	ltpFR2	10	3	HUMAN	726	n/a	n/a	0	0	0
475397	WORD	wordpools/wasnorm_wordpool_576.txt	LTP365	ltpFR2	10	3	AIRPLANE	12	n/a	n/a	0	0	0
478180	WORD	wordpools/wasnorm_wordpool_576.txt	LTP365	ltpFR2	10	3	SPACE	1345	n/a	n/a	0	0	0
480878	WORD	wordpools/wasnorm_wordpool_576.txt	LTP365	ltpFR2	10	3	PREACHER	1119	n/a	n/a	0	0	0
483343	WORD	wordpools/wasnorm_wordpool_576.txt	LTP365	ltpFR2	10	3	MONEY	908	n/a	n/a	0	0	0
485842	WORD	wordpools/wasnorm_wordpool_576.txt	LTP365	ltpFR2	10	3	CANAL	226	n/a	n/a	0	0	0
488307	WORD	wordpools/wasnorm_wordpool_576.txt	LTP365	ltpFR2	10	3	SPONGE	1355	n/a	n/a	0	0	0
490773	WORD	wordpools/wasnorm_wordpool_576.txt	LTP365	ltpFR2	10	3	PUDDING	1139	n/a	n/a	0	0	0
493438	WORD	wordpools/wasnorm_wordpool_576.txt	LTP365	ltpFR2	10	3	YOLK	1633	n/a	n/a	0	0	0
495937	WORD	wordpools/wasnorm_wordpool_576.txt	LTP365	ltpFR2	10	3	EYELASH	546	n/a	n/a	0	0	0
498386	WORD	wordpools/wasnorm_wordpool_576.txt	LTP365	ltpFR2	10	3	CATTLE	261	n/a	n/a	0	0	0
501152	WORD	wordpools/wasnorm_wordpool_576.txt	LTP365	ltpFR2	10	3	SPARROW	1347	n/a	n/a	0	0	0
503633	WORD	wordpools/wasnorm_wordpool_576.txt	LTP365	ltpFR2	10	3	QUAIL	1147	n/a	n/a	0	0	0
505250	START	n/a	LTP365	ltpFR2	10	n/a	n/a	n/a	4	n/a	n/a	n/a	n/a
506405	DISTRACTOR	n/a	LTP365	ltpFR2	10	3	n/a	n/a	n/a	n/a	0	0	0
506415	PROB	n/a	LTP365	ltpFR2	10	n/a	n/a	n/a	4	17	2	8	7
508199	PROB	n/a	LTP365	ltpFR2	10	n/a	n/a	n/a	4	14	7	2	5
509730	PROB	n/a	LTP365	ltpFR2	10	n/a	n/a	n/a	4	9	6	1	2
510996	PROB	n/a	LTP365	ltpFR2	10	n/a	n/a	n/a	4	10	1	4	5
512196	PROB	n/a	LTP365	ltpFR2	10	n/a	n/a	n/a	4	21	4	8	9
514428	PROB	n/a	LTP365	ltpFR2	10	n/a	n/a	n/a	4	23	5	6	2
517476	PROB	n/a	LTP365	ltpFR2	10	n/a	n/a	n/a	4	8	5	1	2
519160	PROB	n/a	LTP365	ltpFR2	10	n/a	n/a	n/a	4	19	5	9	5
521076	PROB	n/a	LTP365	ltpFR2	10	n/a	n/a	n/a	4	22	9	6	7
523108	PROB	n/a	LTP365	ltpFR2	10	n/a	n/a	n/a	4	12	5	2	5
525006	PROB	n/a	LTP365	ltpFR2	10	n/a	n/a	n/a	4	12	1	2	9
526422	PROB	n/a	LTP365	ltpFR2	10	n/a	n/a	n/a	4	9	3	2	4
528947	STOP	n/a	LTP365	ltpFR2	10	n/a	n/a	n/a	4	n/a	n/a	n/a	n/a
531171	REC_START	n/a	LTP365	ltpFR2	10	3	n/a	n/a	n/a	n/a	0	0	0
531502	REC_WORD	wordpools/wasnorm_wordpool_576.txt	LTP365	ltpFR2	10	3	SPARROW	1347	n/a	n/a	0	0	0
532859	REC_WORD	wordpools/wasnorm_wordpool_576.txt	LTP365	ltpFR2	10	3	QUAIL	1147	n/a	n/a	0	0	0
535691	REC_WORD	wordpools/wasnorm_wordpool_576.txt	LTP365	ltpFR2	10	3	CREVICE	405	n/a	n/a	0	0	0
537171	REC_WORD	wordpools/wasnorm_wordpool_576.txt	LTP365	ltpFR2	10	3	CANAL	226	n/a	n/a	0	0	0
538970	REC_WORD	wordpools/wasnorm_wordpool_576.txt	LTP365	ltpFR2	10	3	BREAST	171	n/a	n/a	0	0	0
540420	REC_WORD	wordpools/wasnorm_wordpool_576.txt	LTP365	ltpFR2	10	3	GRILL	661	n/a	n/a	0	0	0
541929	REC_WORD	wordpools/wasnorm_wordpool_576.txt	LTP365	ltpFR2	10	3	HUMAN	726	n/a	n/a	0	0	0
545182	REC_WORD	wordpools/wasnorm_wordpool_576.txt	LTP365	ltpFR2	10	3	SPACE	1345	n/a	n/a	0	0	0
546501	REC_WORD	wordpools/wasnorm_wordpool_576.txt	LTP365	ltpFR2	10	3	AIRPLANE	12	n/a	n/a	0	0	0
549332	REC_WORD	wordpools/wasnorm_wordpool_576.txt	LTP365	ltpFR2	10	3	PREACHER	1119	n/a	n/a	0	0	0
551042	REC_WORD	wordpools/wasnorm_wordpool_576.txt	LTP365	ltpFR2	10	3	PUDDING	1139	n/a	n/a	0	0	0
557460	REC_WORD	wordpools/wasnorm_wordpool_576.txt	LTP365	ltpFR2	10	3	EYELASH	546	n/a	n/a	0	0	0
567655	REC_WORD	wordpools/wasnorm_wordpool_576.txt	LTP365	ltpFR2	10	3	FOX	598	n/a	n/a	0	0	0
568733	REC_WORD	wordpools/wasnorm_wordpool_576.txt	LTP365	ltpFR2	10	3	CROSS	413	n/a	n/a	0	0	0
569713	REC_WORD	wordpools/wasnorm_wordpool_576.txt	LTP365	ltpFR2	10	3	CYCLONE	431	n/a	n/a	0	0	0
575469	REC_WORD	wordpools/wasnorm_wordpool_576.txt	LTP365	ltpFR2	10	3	STOMACH	1384	n/a	n/a	0	0	0
587230	REC_WORD	wordpools/wasnorm_wordpool_576.txt	LTP365	ltpFR2	10	3	PISTOL	1075	n/a	n/a	0	0	0
588823	REC_WORD	wordpools/wasnorm_wordpool_576.txt	LTP365	ltpFR2	10	3	MONEY	908	n/a	n/a	0	0	0
621625	DISTRACTOR	n/a	LTP365	ltpFR2	10	4	n/a	n/a	n/a	n/a	0	0	0
621625	START	n/a	LTP365	ltpFR2	10	n/a	n/a	n/a	5	n/a	n/a	n/a	n/a
621641	PROB	n/a	LTP365	ltpFR2	10	n/a	n/a	n/a	5	11	6	2	3
624124	PROB	n/a	LTP365	ltpFR2	10	n/a	n/a	n/a	5	14	9	1	4
625656	PROB	n/a	LTP365	ltpFR2	10	n/a	n/a	n/a	5	10	4	1	5
626805	PROB	n/a	LTP365	ltpFR2	10	n/a	n/a	n/a	5	14	4	3	7
628022	PROB	n/a	LTP365	ltpFR2	10	n/a	n/a	n/a	5	5	1	3	1
629205	PROB	n/a	LTP365	ltpFR2	10	n/a	n/a	n/a	5	14	2	3	9
631320	PROB	n/a	LTP365	ltpFR2	10	n/a	n/a	n/a	5	6	1	3	2
632852	PROB	n/a	LTP365	ltpFR2	10	n/a	n/a	n/a	5	17	6	2	9
635202	PROB	n/a	LTP365	ltpFR2	10	n/a	n/a	n/a	5	13	1	4	9
639466	PROB	n/a	LTP365	ltpFR2	10	n/a	n/a	n/a	5	11	5	1	5
640565	PROB	n/a	LTP365	ltpFR2	10	n/a	n/a	n/a	5	12	7	4	1
642597	PROB	n/a	LTP365	ltpFR2	10	n/a	n/a	n/a	5	19	4	8	7
644204	STOP	n/a	LTP365	ltpFR2	10	n/a	n/a	n/a	5	n/a	n/a	n/a	n/a
646612	WORD	wordpools/wasnorm_wordpool_576.txt	LTP365	ltpFR2	10	4	SKILLET	1317	n/a	n/a	0	0	0
649062	WORD	wordpools/wasnorm_wordpool_576.txt	LTP365	ltpFR2	10	4	ICING	732	n/a	n/a	0	0	0
651743	WORD	wordpools/wasnorm_wordpool_576.txt	LTP365	ltpFR2	10	4	BISON	131	n/a	n/a	0	0	0
654176	WORD	wordpools/wasnorm_wordpool_576.txt	LTP365	ltpFR2	10	4	BUG	187	n/a	n/a	0	0	0
656990	WORD	wordpools/wasnorm_wordpool_576.txt	LTP365	ltpFR2	10	4	DAISY	435	n/a	n/a	0	0	0
659806	WORD	wordpools/wasnorm_wordpool_576.txt	LTP365	ltpFR2	10	4	CREATURE	403	n/a	n/a	0	0	0
662255	WORD	wordpools/wasnorm_wordpool_576.txt	LTP365	ltpFR2	10	4	SNACK	1331	n/a	n/a	0	0	0
664936	WORD	wordpools/wasnorm_wordpool_576.txt	LTP365	ltpFR2	10	4	WIFE	1609	n/a	n/a	0	0	0
667702	WORD	wordpools/wasnorm_wordpool_576.txt	LTP365	ltpFR2	10	4	COSTUME	383	n/a	n/a	0	0	0
670534	WORD	wordpools/wasnorm_wordpool_576.txt	LTP365	ltpFR2	10	4	SEAGULL	1261	n/a	n/a	0	0	0
673050	WORD	wordpools/wasnorm_wordpool_576.txt	LTP365	ltpFR2	10	4	WORLD	1622	n/a	n/a	0	0	0
675664	WORD	wordpools/wasnorm_wordpool_576.txt	LTP365	ltpFR2	10	4	DOUGHNUT	490	n/a	n/a	0	0	0
678247	WORD	wordpools/wasnorm_wordpool_576.txt	LTP365	ltpFR2	10	4	CELLAR	267	n/a	n/a	0	0	0
680912	WORD	wordpools/wasnorm_wordpool_576.txt	LTP365	ltpFR2	10	4	STOVE	1388	n/a	n/a	0	0	0
683610	WORD	wordpools/wasnorm_wordpool_576.txt	LTP365	ltpFR2	10	4	COCOON	339	n/a	n/a	0	0	0
686060	WORD	wordpools/wasnorm_wordpool_576.txt	LTP365	ltpFR2	10	4	BRAKE	166	n/a	n/a	0	0	0
688741	WORD	wordpools/wasnorm_wordpool_576.txt	LTP365	ltpFR2	10	4	HAND	683	n/a	n/a	0	0	0
691440	WORD	wordpools/wasnorm_wordpool_576.txt	LTP365	ltpFR2	10	4	GRIZZLY	662	n/a	n/a	0	0	0
694040	WORD	wordpools/wasnorm_wordpool_576.txt	LTP365	ltpFR2	10	4	STAKE	1368	n/a	n/a	0	0	0
696837	WORD	wordpools/wasnorm_wordpool_576.txt	LTP365	ltpFR2	10	4	CARROT	249	n/a	n/a	0	0	0
699319	WORD	wordpools/wasnorm_wordpool_576.txt	LTP365	ltpFR2	10	4	ORANGE	980	n/a	n/a	0	0	0
702136	WORD	wordpools/wasnorm_wordpool_576.txt	LTP365	ltpFR2	10	4	SHELF	1280	n/a	n/a	0	0	0
704967	WORD	wordpools/wasnorm_wordpool_576.txt	LTP365	ltpFR2	10	4	NOVEL	960	n/a	n/a	0	0	0
707549	WORD	wordpools/wasnorm_wordpool_576.txt	LTP365	ltpFR2	10	4	JUNGLE	764	n/a	n/a	0	0	0
709166	START	n/a	LTP365	ltpFR2	10	n/a	n/a	n/a	6	n/a	n/a	n/a	n/a
710352	DISTRACTOR	n/a	LTP365	ltpFR2	10	4	n/a	n/a	n/a	n/a	0	0	0
710364	PROB	n/a	LTP365	ltpFR2	10	n/a	n/a	n/a	6	11	3	7	1
711930	PROB	n/a	LTP365	ltpFR2	10	n/a	n/a	n/a	6	23	8	8	7
715495	PROB	n/a	LTP365	ltpFR2	10	n/a	n/a	n/a	6	12	2	5	5
716677	PROB	n/a	LTP365	ltpFR2	10	n/a	n/a	n/a	6	16	8	6	2
718011	PROB	n/a	LTP365	ltpFR2	10	n/a	n/a	n/a	6	14	8	3	3
719709	PROB	n/a	LTP365	ltpFR2	10	n/a	n/a	n/a	6	8	1	3	4
721043	PROB	n/a	LTP365	ltpFR2	10	n/a	n/a	n/a	6	19	9	3	7
722308	PROB	n/a	LTP365	ltpFR2	10	n/a	n/a	n/a	6	22	9	6	7
726572	PROB	n/a	LTP365	ltpFR2	10	n/a	n/a	n/a	6	22	6	9	7
728338	PROB	n/a	LTP365	ltpFR2	10	n/a	n/a	n/a	6	13	6	3	4
730105	PROB	n/a	LTP365	ltpFR2	10	n/a	n/a	n/a	6	16	3	6	7
731320	PROB	n/a	LTP365	ltpFR2	10	n/a	n/a	n/a	6	16	4	4	8
733036	STOP	n/a	LTP365	ltpFR2	10	n/a	n/a	n/a	6	n/a	n/a	n/a	n/a
734936	REC_START	n/a	LTP365	ltpFR2	10	4	n/a	n/a	n/a	n/a	0	0	0
739662	REC_WORD	wordpools/wasnorm_wordpool_576.txt	LTP365	ltpFR2	10	4	STOVE	1388	n/a	n/a	0	0	0
740806	REC_WORD	wordpools/wasnorm_wordpool_576.txt	LTP365	ltpFR2	10	4	CELLAR	267	n/a	n/a	0	0	0
746749	REC_WORD	wordpools/wasnorm_wordpool_576.txt	LTP365	ltpFR2	10	4	SKILLET	1317	n/a	n/a	0	0	0
747683	REC_WORD	wordpools/wasnorm_wordpool_576.txt	LTP365	ltpFR2	10	4	CREATURE	403	n/a	n/a	0	0	0
751242	REC_WORD	wordpools/wasnorm_wordpool_576.txt	LTP365	ltpFR2	10	4	BISON	131	n/a	n/a	0	0	0
752107	REC_WORD	wordpools/wasnorm_wordpool_576.txt	LTP365	ltpFR2	10	4	GRIZZLY	662	n/a	n/a	0	0	0
753778	REC_WORD	wordpools/wasnorm_wordpool_576.txt	LTP365	ltpFR2	10	4	CARROT	249	n/a	n/a	0	0	0
754682	REC_WORD	wordpools/wasnorm_wordpool_576.txt	LTP365	ltpFR2	10	4	ORANGE	980	n/a	n/a	0	0	0
755488	REC_WORD	wordpools/wasnorm_wordpool_576.txt	LTP365	ltpFR2	10	4	SNACK	1331	n/a	n/a	0	0	0
756515	REC_WORD	wordpools/wasnorm_wordpool_576.txt	LTP365	ltpFR2	10	4	NOVEL	960	n/a	n/a	0	0	0
763543	REC_WORD	wordpools/wasnorm_wordpool_576.txt	LTP365	ltpFR2	10	4	HAND	683	n/a	n/a	0	0	0
767003	REC_WORD	wordpools/wasnorm_wordpool_576.txt	LTP365	ltpFR2	10	4	COSTUME	383	n/a	n/a	0	0	0
769437	REC_WORD	wordpools/wasnorm_wordpool_576.txt	LTP365	ltpFR2	10	4	WIFE	1609	n/a	n/a	0	0	0
770914	REC_WORD	wordpools/wasnorm_wordpool_576.txt	LTP365	ltpFR2	10	4	SEAGULL	1261	n/a	n/a	0	0	0
777786	REC_WORD	wordpools/wasnorm_wordpool_576.txt	LTP365	ltpFR2	10	4	BISON	131	n/a	n/a	0	0	0
800488	REC_WORD	wordpools/wasnorm_wordpool_576.txt	LTP365	ltpFR2	10	4	BRAKE	166	n/a	n/a	0	0	0
802642	REC_WORD	wordpools/wasnorm_wordpool_576.txt	LTP365	ltpFR2	10	4	STAKE	1368	n/a	n/a	0	0	0
825407	WORD	wordpools/wasnorm_wordpool_576.txt	LTP365	ltpFR2	10	5	RUG	1215	n/a	n/a	0	0	0
828023	WORD	wordpools/wasnorm_wordpool_576.txt	LTP365	ltpFR2	10	5	CITRUS	313	n/a	n/a	0	0	0
830821	WORD	wordpools/wasnorm_wordpool_576.txt	LTP365	ltpFR2	10	5	LADY	794	n/a	n/a	0	0	0
833519	WORD	wordpools/wasnorm_wordpool_576.txt	LTP365	ltpFR2	10	5	BRANDY	169	n/a	n/a	0	0	0
836318	WORD	wordpools/wasnorm_wordpool_576.txt	LTP365	ltpFR2	10	5	BARLEY	88	n/a	n/a	0	0	0
838867	WORD	wordpools/wasnorm_wordpool_576.txt	LTP365	ltpFR2	10	5	RAFT	1159	n/a	n/a	0	0	0
841415	WORD	wordpools/wasnorm_wordpool_576.txt	LTP365	ltpFR2	10	5	SHOULDER	1294	n/a	n/a	0	0	0
844232	WORD	wordpools/wasnorm_wordpool_576.txt	LTP365	ltpFR2	10	5	COWBOY	395	n/a	n/a	0	0	0
846896	WORD	wordpools/wasnorm_wordpool_576.txt	LTP365	ltpFR2	10	5	RELISH	1183	n/a	n/a	0	0	0
849445	WORD	wordpools/wasnorm_wordpool_576.txt	LTP365	ltpFR2	10	5	FLESH	579	n/a	n/a	0	0	0
851927	WORD	wordpools/wasnorm_wordpool_576.txt	LTP365	ltpFR2	10	5	PASTRY	1022	n/a	n/a	0	0	0
854709	WORD	wordpools/wasnorm_wordpool_576.txt	LTP365	ltpFR2	10	5	VALLEY	1545	n/a	n/a	0	0	0
857324	WORD	wordpools/wasnorm_wordpool_576.txt	LTP365	ltpFR2	10	5	MOP	916	n/a	n/a	0	0	0
859773	WORD	wordpools/wasnorm_wordpool_576.txt	LTP365	ltpFR2	10	5	BASEMENT	94	n/a	n/a	0	0	0
862572	WORD	wordpools/wasnorm_wordpool_576.txt	LTP365	ltpFR2	10	5	OYSTER	995	n/a	n/a	0	0	0
865304	WORD	wordpools/wasnorm_wordpool_576.txt	LTP365	ltpFR2	10	5	BEEF	113	n/a	n/a	0	0	0
867819	WORD	wordpools/wasnorm_wordpool_576.txt	LTP365	ltpFR2	10	5	FIDDLE	561	n/a	n/a	0	0	0
870451	WORD	wordpools/wasnorm_wordpool_576.txt	LTP365	ltpFR2	10	5	RECORD	1176	n/a	n/a	0	0	0
873134	WORD	wordpools/wasnorm_wordpool_576.txt	LTP365	ltpFR2	10	5	CASHIER	254	n/a	n/a	0	0	0
875732	WORD	wordpools/wasnorm_wordpool_576.txt	LTP365	ltpFR2	10	5	BLOCKADE	137	n/a	n/a	0	0	0
878430	WORD	wordpools/wasnorm_wordpool_576.txt	LTP365	ltpFR2	10	5	PERFUME	1049	n/a	n/a	0	0	0
880879	WORD	wordpools/wasnorm_wordpool_576.txt	LTP365	ltpFR2	10	5	FRAGRANCE	599	n/a	n/a	0	0	0
883461	WORD	wordpools/wasnorm_wordpool_576.txt	LTP365	ltpFR2	10	5	LEG	809	n/a	n/a	0	0	0
885927	WORD	wordpools/wasnorm_wordpool_576.txt	LTP365	ltpFR2	10	5	TURKEY	1520	n/a	n/a	0	0	0
887543	START	n/a	LTP365	ltpFR2	10	n/a	n/a	n/a	7	n/a	n/a	n/a	n/a
888629	DISTRACTOR	n/a	LTP365	ltpFR2	10	5	n/a	n/a	n/a	n/a	0	0	0
888642	PROB	n/a	LTP365	ltpFR2	10	n/a	n/a	n/a	7	10	5	4	1
890042	PROB	n/a	LTP365	ltpFR2	10	n/a	n/a	n/a	7	16	9	9	8
892141	PROB	n/a	LTP365	ltpFR2	10	n/a	n/a	n/a	7	15	3	9	3
894107	PROB	n/a	LTP365	ltpFR2	10	n/a	n/a	n/a	7	20	9	7	4
898387	PROB	n/a	LTP365	ltpFR2	10	n/a	n/a	n/a	7	12	3	2	7
900254	PROB	n/a	LTP365	ltpFR2	10	n/a	n/a	n/a	7	23	5	8	9
905567	PROB	n/a	LTP365	ltpFR2	10	n/a	n/a	n/a	7	13	7	5	1
911543	STOP	n/a	LTP365	ltpFR2	10	n/a	n/a	n/a	7	n/a	n/a	n/a	n/a
913480	REC_START	n/a	LTP365	ltpFR2	10	5	n/a	n/a	n/a	n/a	0	0	0
915542	REC_WORD	wordpools/wasnorm_wordpool_576.txt	LTP365	ltpFR2	10	5	RUG	1215	n/a	n/a	0	0	0
916324	REC_WORD	wordpools/wasnorm_wordpool_576.txt	LTP365	ltpFR2	10	5	MOP	916	n/a	n/a	0	0	0
917260	REC_WORD	wordpools/wasnorm_wordpool_576.txt	LTP365	ltpFR2	10	5	BASEMENT	94	n/a	n/a	0	0	0
918086	REC_WORD	wordpools/wasnorm_wordpool_576.txt	LTP365	ltpFR2	10	5	BRANDY	169	n/a	n/a	0	0	0
918900	REC_WORD	wordpools/wasnorm_wordpool_576.txt	LTP365	ltpFR2	10	5	BARLEY	88	n/a	n/a	0	0	0
920024	REC_WORD	wordpools/wasnorm_wordpool_576.txt	LTP365	ltpFR2	10	5	PASTRY	1022	n/a	n/a	0	0	0
921297	REC_WORD	wordpools/wasnorm_wordpool_576.txt	LTP365	ltpFR2	10	5	LADY	794	n/a	n/a	0	0	0
923075	REC_WORD	wordpools/wasnorm_wordpool_576.txt	LTP365	ltpFR2	10	5	FRAGRANCE	599	n/a	n/a	0	0	0
924074	REC_WORD	wordpools/wasnorm_wordpool_576.txt	LTP365	ltpFR2	10	5	PERFUME	1049	n/a	n/a	0	0	0
925061	REC_WORD	wordpools/wasnorm_wordpool_576.txt	LTP365	ltpFR2	10	5	COWBOY	395	n/a	n/a	0	0	0
926028	REC_WORD	wordpools/wasnorm_wordpool_576.txt	LTP365	ltpFR2	10	5	BEEF	113	n/a	n/a	0	0	0
927729	REC_WORD	wordpools/wasnorm_wordpool_576.txt	LTP365	ltpFR2	10	5	VALLEY	1545	n/a	n/a	0	0	0
929846	REC_WORD	wordpools/wasnorm_wordpool_576.txt	LTP365	ltpFR2	10	5	OYSTER	995	n/a	n/a	0	0	0
941550	REC_WORD	wordpools/wasnorm_wordpool_576.txt	LTP365	ltpFR2	10	5	SHOULDER	1294	n/a	n/a	0	0	0
942511	REC_WORD	wordpools/wasnorm_wordpool_576.txt	LTP365	ltpFR2	10	5	LEG	809	n/a	n/a	0	0	0
947514	REC_WORD	wordpools/wasnorm_wordpool_576.txt	LTP365	ltpFR2	10	5	BLOCKADE	137	n/a	n/a	0	0	0
960738	REC_WORD	wordpools/wasnorm_wordpool_576.txt	LTP365	ltpFR2	10	5	CITRUS	313	n/a	n/a	0	0	0
969274	REC_WORD	wordpools/wasnorm_wordpool_576.txt	LTP365	ltpFR2	10	5	FLESH	579	n/a	n/a	0	0	0
1003935	DISTRACTOR	n/a	LTP365	ltpFR2	10	6	n/a	n/a	n/a	n/a	0	0	0
1003935	START	n/a	LTP365	ltpFR2	10	n/a	n/a	n/a	8	n/a	n/a	n/a	n/a
1003951	PROB	n/a	LTP365	ltpFR2	10	n/a	n/a	n/a	8	10	8	1	1
1005218	PROB	n/a	LTP365	ltpFR2	10	n/a	n/a	n/a	8	16	8	6	2
1006417	PROB	n/a	LTP365	ltpFR2	10	n/a	n/a	n/a	8	21	9	8	4
1008416	PROB	n/a	LTP365	ltpFR2	10	n/a	n/a	n/a	8	18	6	7	5
1011099	PROB	n/a	LTP365	ltpFR2	10	n/a	n/a	n/a	8	13	3	9	1
1012364	PROB	n/a	LTP365	ltpFR2	10	n/a	n/a	n/a	8	19	9	6	4
1013896	PROB	n/a	LTP365	ltpFR2	10	n/a	n/a	n/a	8	9	1	1	7
1015047	PROB	n/a	LTP365	ltpFR2	10	n/a	n/a	n/a	8	18	8	2	8
1016295	PROB	n/a	LTP365	ltpFR2	10	n/a	n/a	n/a	8	4	1	2	1
1017928	PROB	n/a	LTP365	ltpFR2	10	n/a	n/a	n/a	8	14	6	1	7
1020726	PROB	n/a	LTP365	ltpFR2	10	n/a	n/a	n/a	8	15	5	7	3
1022359	PROB	n/a	LTP365	ltpFR2	10	n/a	n/a	n/a	8	19	7	4	8
1024358	PROB	n/a	LTP365	ltpFR2	10	n/a	n/a	n/a	8	18	4	8	6
1025791	PROB	n/a	LTP365	ltpFR2	10	n/a	n/a	n/a	8	14	8	4	2
1026987	STOP	n/a	LTP365	ltpFR2	10	n/a	n/a	n/a	8	n/a	n/a	n/a	n/a
1029073	WORD	wordpools/wasnorm_wordpool_576.txt	LTP365	ltpFR2	10	6	TABLET	1427	n/a	n/a	0	0	0
1031621	WORD	wordpools/wasnorm_wordpool_576.txt	LTP365	ltpFR2	10	6	ANKLE	24	n/a	n/a	0	0	0
1034087	WORD	wordpools/wasnorm_wordpool_576.txt	LTP365	ltpFR2	10	6	POSTAGE	1113	n/a	n/a	0	0	0
1036885	WORD	wordpools/wasnorm_wordpool_576.txt	LTP365	ltpFR2	10	6	SUBWAY	1400	n/a	n/a	0	0	0
1039650	WORD	wordpools/wasnorm_wordpool_576.txt	LTP365	ltpFR2	10	6	PEANUT	1032	n/a	n/a	0	0	0
1042316	WORD	wordpools/wasnorm_wordpool_576.txt	LTP365	ltpFR2	10	6	DINER	467	n/a	n/a	0	0	0
1045099	WORD	wordpools/wasnorm_wordpool_576.txt	LTP365	ltpFR2	10	6	GREASE	660	n/a	n/a	0	0	0
1047713	WORD	wordpools/wasnorm_wordpool_576.txt	LTP365	ltpFR2	10	6	PECAN	1036	n/a	n/a	0	0	0
1050445	WORD	wordpools/wasnorm_wordpool_576.txt	LTP365	ltpFR2	10	6	CRAYON	401	n/a	n/a	0	0	0
1052927	WORD	wordpools/wasnorm_wordpool_576.txt	LTP365	ltpFR2	10	6	FLASK	576	n/a	n/a	0	0	0
1055426	WORD	wordpools/wasnorm_wordpool_576.txt	LTP365	ltpFR2	10	6	COCKTAIL	338	n/a	n/a	0	0	0
1057925	WORD	wordpools/wasnorm_wordpool_576.txt	LTP365	ltpFR2	10	6	ACTRESS	6	n/a	n/a	0	0	0
1060740	WORD	wordpools/wasnorm_wordpool_576.txt	LTP365	ltpFR2	10	6	ACTOR	5	n/a	n/a	0	0	0
1063455	WORD	wordpools/wasnorm_wordpool_576.txt	LTP365	ltpFR2	10	6	SCOTCH	1251	n/a	n/a	0	0	0
1066171	WORD	wordpools/wasnorm_wordpool_576.txt	LTP365	ltpFR2	10	6	UNCLE	1536	n/a	n/a	0	0	0
1068936	WORD	wordpools/wasnorm_wordpool_576.txt	LTP365	ltpFR2	10	6	SUNSET	1408	n/a	n/a	0	0	0
1071701	WORD	wordpools/wasnorm_wordpool_576.txt	LTP365	ltpFR2	10	6	GOBLIN	645	n/a	n/a	0	0	0
1074184	WORD	wordpools/wasnorm_wordpool_576.txt	LTP365	ltpFR2	10	6	PICTURE	1061	n/a	n/a	0	0	0
1076915	WORD	wordpools/wasnorm_wordpool_576.txt	LTP365	ltpFR2	10	6	SCULPTURE	1258	n/a	n/a	0	0	0
1079414	WORD	wordpools/wasnorm_wordpool_576.txt	LTP365	ltpFR2	10	6	MARSH	874	n/a	n/a	0	0	0
1082197	WORD	wordpools/wasnorm_wordpool_576.txt	LTP365	ltpFR2	10	6	CLOUD	328	n/a	n/a	0	0	0
1084861	WORD	wordpools/wasnorm_wordpool_576.txt	LTP365	ltpFR2	10	6	LIGHTNING	820	n/a	n/a	0	0	0
1087293	WORD	wordpools/wasnorm_wordpool_576.txt	LTP365	ltpFR2	10	6	MARKET	871	n/a	n/a	0	0	0
1089959	WORD	wordpools/wasnorm_wordpool_576.txt	LTP365	ltpFR2	10	6	CHIPMUNK	304	n/a	n/a	0	0	0
1091575	START	n/a	LTP365	ltpFR2	10	n/a	n/a	n/a	9	n/a	n/a	n/a	n/a
1092624	DISTRACTOR	n/a	LTP365	ltpFR2	10	6	n/a	n/a	n/a	n/a	0	0	0
1092641	PROB	n/a	LTP365	ltpFR2	10	n/a	n/a	n/a	9	11	3	6	2
1094323	PROB	n/a	LTP365	ltpFR2	10	n/a	n/a	n/a	9	18	7	3	8
1095706	PROB	n/a	LTP365	ltpFR2	10	n/a	n/a	n/a	9	21	8	6	7
1097555	PROB	n/a	LTP365	ltpFR2	10	n/a	n/a	n/a	9	15	5	9	1
1098804	PROB	n/a	LTP365	ltpFR2	10	n/a	n/a	n/a	9	9	2	5	2
1100337	PROB	n/a	LTP365	ltpFR2	10	n/a	n/a	n/a	9	8	6	1	1
1101570	PROB	n/a	LTP365	ltpFR2	10	n/a	n/a	n/a	9	13	1	9	3
1102769	PROB	n/a	LTP365	ltpFR2	10	n/a	n/a	n/a	9	13	6	3	4
1105235	PROB	n/a	LTP365	ltpFR2	10	n/a	n/a	n/a	9	21	4	8	9
1108316	PROB	n/a	LTP365	ltpFR2	10	n/a	n/a	n/a	9	11	2	2	7
1109649	PROB	n/a	LTP365	ltpFR2	10	n/a	n/a	n/a	9	16	4	4	8
1111615	PROB	n/a	LTP365	ltpFR2	10	n/a	n/a	n/a	9	11	5	5	1
1112781	PROB	n/a	LTP365	ltpFR2	10	n/a	n/a	n/a	9	19	6	9	4
1114995	STOP	n/a	LTP365	ltpFR2	10	n/a	n/a	n/a	9	n/a	n/a	n/a	n/a
1117329	REC_START	n/a	LTP365	ltpFR2	10	6	n/a	n/a	n/a	n/a	0	0	0
1118059	REC_WORD	wordpools/wasnorm_wordpool_576.txt	LTP365	ltpFR2	10	6	SUNSET	1408	n/a	n/a	0	0	0
1118878	REC_WORD	wordpools/wasnorm_wordpool_576.txt	LTP365	ltpFR2	10	6	SUBWAY	1400	n/a	n/a	0	0	0
1119768	REC_WORD	wordpools/wasnorm_wordpool_576.txt	LTP365	ltpFR2	10	6	PEANUT	1032	n/a	n/a	0	0	0
1120370	REC_WORD	wordpools/wasnorm_wordpool_576.txt	LTP365	ltpFR2	10	6	SCOTCH	1251	n/a	n/a	0	0	0
1121643	REC_WORD	wordpools/wasnorm_wordpool_576.txt	LTP365	ltpFR2	10	6	FLASK	576	n/a	n/a	0	0	0
1126128	REC_WORD	wordpools/wasnorm_wordpool_576.txt	LTP365	ltpFR2	10	6	ANKLE	24	n/a	n/a	0	0	0
1133569	REC_WORD	wordpools/wasnorm_wordpool_576.txt	LTP365	ltpFR2	10	6	POSTAGE	1113	n/a	n/a	0	0	0
1136203	REC_WORD	wordpools/wasnorm_wordpool_576.txt	LTP365	ltpFR2	10	6	STAMP	1370	n/a	n/a	0	0	0
1153056	REC_WORD	wordpools/wasnorm_wordpool_576.txt	LTP365	ltpFR2	10	6	TABLET	1427	n/a	n/a	0	0	0
1159110	REC_WORD	wordpools/wasnorm_wordpool_576.txt	LTP365	ltpFR2	10	6	COCKTAIL	338	n/a	n/a	0	0	0
1163350	REC_WORD	wordpools/wasnorm_wordpool_576.txt	LTP365	ltpFR2	10	6	MARKET	871	n/a	n/a	0	0	0
1207783	WORD	wordpools/wasnorm_wordpool_576.txt	LTP365	ltpFR2	10	7	GLOVE	642	n/a	n/a	0	0	0
1210382	WORD	wordpools/wasnorm_wordpool_576.txt	LTP365	ltpFR2	10	7	FINGER	567	n/a	n/a	0	0	0
1213049	WORD	wordpools/wasnorm_wordpool_576.txt	LTP365	ltpFR2	10	7	WOMAN	1620	n/a	n/a	0	0	0
1215613	WORD	wordpools/wasnorm_wordpool_576.txt	LTP365	ltpFR2	10	7	OX	994	n/a	n/a	0	0	0
1218295	WORD	wordpools/wasnorm_wordpool_576.txt	LTP365	ltpFR2	10	7	BRACES	164	n/a	n/a	0	0	0
1220877	WORD	wordpools/wasnorm_wordpool_576.txt	LTP365	ltpFR2	10	7	COOKBOOK	373	n/a	n/a	0	0	0
1223676	WORD	wordpools/wasnorm_wordpool_576.txt	LTP365	ltpFR2	10	7	BLENDER	136	n/a	n/a	0	0	0
1226274	WORD	wordpools/wasnorm_wordpool_576.txt	LTP365	ltpFR2	10	7	SPOUSE	1358	n/a	n/a	0	0	0
1228740	WORD	wordpools/wasnorm_wordpool_576.txt	LTP365	ltpFR2	10	7	EXPERT	543	n/a	n/a	0	0	0
1231190	WORD	wordpools/wasnorm_wordpool_576.txt	LTP365	ltpFR2	10	7	HOOD	714	n/a	n/a	0	0	0
1233704	WORD	wordpools/wasnorm_wordpool_576.txt	LTP365	ltpFR2	10	7	FREEZER	604	n/a	n/a	0	0	0
1236286	WORD	wordpools/wasnorm_wordpool_576.txt	LTP365	ltpFR2	10	7	SWORD	1423	n/a	n/a	0	0	0
1239036	WORD	wordpools/wasnorm_wordpool_576.txt	LTP365	ltpFR2	10	7	SCALPEL	1243	n/a	n/a	0	0	0
1241700	WORD	wordpools/wasnorm_wordpool_576.txt	LTP365	ltpFR2	10	7	DENTIST	447	n/a	n/a	0	0	0
1244332	WORD	wordpools/wasnorm_wordpool_576.txt	LTP365	ltpFR2	10	7	PALACE	1006	n/a	n/a	0	0	0
1246981	WORD	wordpools/wasnorm_wordpool_576.txt	LTP365	ltpFR2	10	7	REPORT	1184	n/a	n/a	0	0	0
1249446	WORD	wordpools/wasnorm_wordpool_576.txt	LTP365	ltpFR2	10	7	ONION	977	n/a	n/a	0	0	0
1252079	WORD	wordpools/wasnorm_wordpool_576.txt	LTP365	ltpFR2	10	7	MATCH	878	n/a	n/a	0	0	0
1254710	WORD	wordpools/wasnorm_wordpool_576.txt	LTP365	ltpFR2	10	7	SKIRT	1319	n/a	n/a	0	0	0
1257243	WORD	wordpools/wasnorm_wordpool_576.txt	LTP365	ltpFR2	10	7	MEAT	883	n/a	n/a	0	0	0
1259741	WORD	wordpools/wasnorm_wordpool_576.txt	LTP365	ltpFR2	10	7	ZEBRA	1635	n/a	n/a	0	0	0
1262456	WORD	wordpools/wasnorm_wordpool_576.txt	LTP365	ltpFR2	10	7	POLICE	1098	n/a	n/a	0	0	0
1265039	WORD	wordpools/wasnorm_wordpool_576.txt	LTP365	ltpFR2	10	7	SWITCH	1422	n/a	n/a	0	0	0
1267620	WORD	wordpools/wasnorm_wordpool_576.txt	LTP365	ltpFR2	10	7	FARMER	553	n/a	n/a	0	0	0
1269238	START	n/a	LTP365	ltpFR2	10	n/a	n/a	n/a	10	n/a	n/a	n/a	n/a
1270110	DISTRACTOR	n/a	LTP365	ltpFR2	10	7	n/a	n/a	n/a	n/a	0	0	0
1270120	PROB	n/a	LTP365	ltpFR2	10	n/a	n/a	n/a	10	14	4	8	2
1271552	PROB	n/a	LTP365	ltpFR2	10	n/a	n/a	n/a	10	11	1	6	4
1273102	PROB	n/a	LTP365	ltpFR2	10	n/a	n/a	n/a	10	13	1	3	9
1274767	PROB	n/a	LTP365	ltpFR2	10	n/a	n/a	n/a	10	13	1	6	6
1276101	PROB	n/a	LTP365	ltpFR2	10	n/a	n/a	n/a	10	19	4	7	8
1277765	PROB	n/a	LTP365	ltpFR2	10	n/a	n/a	n/a	10	13	8	4	1
1280997	PROB	n/a	LTP365	ltpFR2	10	n/a	n/a	n/a	10	11	6	4	1
1282680	PROB	n/a	LTP365	ltpFR2	10	n/a	n/a	n/a	10	13	4	2	7
1284529	PROB	n/a	LTP365	ltpFR2	10	n/a	n/a	n/a	10	17	6	2	9
1286694	PROB	n/a	LTP365	ltpFR2	10	n/a	n/a	n/a	10	14	6	5	3
1289227	PROB	n/a	LTP365	ltpFR2	10	n/a	n/a	n/a	10	23	6	9	8
1292699	STOP	n/a	LTP365	ltpFR2	10	n/a	n/a	n/a	10	n/a	n/a	n/a	n/a
1295042	REC_START	n/a	LTP365	ltpFR2	10	7	n/a	n/a	n/a	n/a	0	0	0
1296138	REC_WORD	wordpools/wasnorm_wordpool_576.txt	LTP365	ltpFR2	10	7	MATCH	878	n/a	n/a	0	0	0
1296836	REC_WORD	wordpools/wasnorm_wordpool_576.txt	LTP365	ltpFR2	10	7	SWITCH	1422	n/a	n/a	0	0	0
1299279	REC_WORD	wordpools/wasnorm_wordpool_576.txt	LTP365	ltpFR2	10	7	HOOD	714	n/a	n/a	0	0	0
1299942	REC_WORD	wordpools/wasnorm_wordpool_576.txt	LTP365	ltpFR2	10	7	SKIRT	1319	n/a	n/a	0	0	0
1301085	REC_WORD	wordpools/wasnorm_wordpool_576.txt	LTP365	ltpFR2	10	7	GLOVE	642	n/a	n/a	0	0	0
1302671	REC_WORD	wordpools/wasnorm_wordpool_576.txt	LTP365	ltpFR2	10	7	WOMAN	1620	n/a	n/a	0	0	0
1305774	REC_WORD	wordpools/wasnorm_wordpool_576.txt	LTP365	ltpFR2	10	7	EXPERT	543	n/a	n/a	0	0	0
1306995	REC_WORD	wordpools/wasnorm_wordpool_576.txt	LTP365	ltpFR2	10	7	POLICE	1098	n/a	n/a	0	0	0
1308810	REC_WORD	wordpools/wasnorm_wordpool_576.txt	LTP365	ltpFR2	10	7	FARMER	553	n/a	n/a	0	0	0
1309767	REC_WORD	wordpools/wasnorm_wordpool_576.txt	LTP365	ltpFR2	10	7	REPORT	1184	n/a	n/a	0	0	0
1310798	REC_WORD	wordpools/wasnorm_wordpool_576.txt	LTP365	ltpFR2	10	7	PALACE	1006	n/a	n/a	0	0	0
1314616	REC_WORD	wordpools/wasnorm_wordpool_576.txt	LTP365	ltpFR2	10	7	SPOUSE	1358	n/a	n/a	0	0	0
1321051	REC_WORD	wordpools/wasnorm_wordpool_576.txt	LTP365	ltpFR2	10	7	COOKBOOK	373	n/a	n/a	0	0	0
1326891	REC_WORD	wordpools/wasnorm_wordpool_576.txt	LTP365	ltpFR2	10	7	BRACES	164	n/a	n/a	0	0	0
1338182	REC_WORD	wordpools/wasnorm_wordpool_576.txt	LTP365	ltpFR2	10	7	MEAT	883	n/a	n/a	0	0	0
1344855	REC_WORD	wordpools/wasnorm_wordpool_576.txt	LTP365	ltpFR2	10	7	OX	994	n/a	n/a	0	0	0
1385495	DISTRACTOR	n/a	LTP365	ltpFR2	10	8	n/a	n/a	n/a	n/a	0	0	0
1385495	START	n/a	LTP365	ltpFR2	10	n/a	n/a	n/a	11	n/a	n/a	n/a	n/a
1385512	PROB	n/a	LTP365	ltpFR2	10	n/a	n/a	n/a	11	16	5	6	5
1386845	PROB	n/a	LTP365	ltpFR2	10	n/a	n/a	n/a	11	7	2	4	1
1388960	PROB	n/a	LTP365	ltpFR2	10	n/a	n/a	n/a	11	12	9	1	2
1390144	PROB	n/a	LTP365	ltpFR2	10	n/a	n/a	n/a	11	16	3	6	7
1391376	PROB	n/a	LTP365	ltpFR2	10	n/a	n/a	n/a	11	12	2	8	2
1392625	PROB	n/a	LTP365	ltpFR2	10	n/a	n/a	n/a	11	9	3	1	5
1393958	PROB	n/a	LTP365	ltpFR2	10	n/a	n/a	n/a	11	15	7	7	1
1395175	PROB	n/a	LTP365	ltpFR2	10	n/a	n/a	n/a	11	18	5	4	9
1396990	PROB	n/a	LTP365	ltpFR2	10	n/a	n/a	n/a	11	16	8	5	3
1398889	PROB	n/a	LTP365	ltpFR2	10	n/a	n/a	n/a	11	16	8	3	5
1400388	PROB	n/a	LTP365	ltpFR2	10	n/a	n/a	n/a	11	16	6	1	9
1401604	PROB	n/a	LTP365	ltpFR2	10	n/a	n/a	n/a	11	15	3	5	7
1403270	PROB	n/a	LTP365	ltpFR2	10	n/a	n/a	n/a	11	19	4	8	7
1404686	PROB	n/a	LTP365	ltpFR2	10	n/a	n/a	n/a	11	9	4	1	4
1405968	PROB	n/a	LTP365	ltpFR2	10	n/a	n/a	n/a	11	11	2	3	6
1407984	PROB	n/a	LTP365	ltpFR2	10	n/a	n/a	n/a	11	18	6	6	6
1409347	STOP	n/a	LTP365	ltpFR2	10	n/a	n/a	n/a	11	n/a	n/a	n/a	n/a
1410316	WORD	wordpools/wasnorm_wordpool_576.txt	LTP365	ltpFR2	10	8	WAITER	1580	n/a	n/a	0	0	0
1412832	WORD	wordpools/wasnorm_wordpool_576.txt	LTP365	ltpFR2	10	8	JEANS	752	n/a	n/a	0	0	0
1415431	WORD	wordpools/wasnorm_wordpool_576.txt	LTP365	ltpFR2	10	8	HUSBAND	728	n/a	n/a	0	0	0
1418063	WORD	wordpools/wasnorm_wordpool_576.txt	LTP365	ltpFR2	10	8	AWARD	63	n/a	n/a	0	0	0
1420495	WORD	wordpools/wasnorm_wordpool_576.txt	LTP365	ltpFR2	10	8	HERO	706	n/a	n/a	0	0	0
1423044	WORD	wordpools/wasnorm_wordpool_576.txt	LTP365	ltpFR2	10	8	BANQUET	86	n/a	n/a	0	0	0
1425859	WORD	wordpools/wasnorm_wordpool_576.txt	LTP365	ltpFR2	10	8	CONVICT	371	n/a	n/a	0	0	0
1428424	WORD	wordpools/wasnorm_wordpool_576.txt	LTP365	ltpFR2	10	8	KEEPER	769	n/a	n/a	0	0	0
1431040	WORD	wordpools/wasnorm_wordpool_576.txt	LTP365	ltpFR2	10	8	BRICK	172	n/a	n/a	0	0	0
1433471	WORD	wordpools/wasnorm_wordpool_576.txt	LTP365	ltpFR2	10	8	HATCHET	691	n/a	n/a	0	0	0
1435904	WORD	wordpools/wasnorm_wordpool_576.txt	LTP365	ltpFR2	10	8	BLOUSE	139	n/a	n/a	0	0	0
1438669	WORD	wordpools/wasnorm_wordpool_576.txt	LTP365	ltpFR2	10	8	DUSTPAN	509	n/a	n/a	0	0	0
1441368	WORD	wordpools/wasnorm_wordpool_576.txt	LTP365	ltpFR2	10	8	PAIL	1002	n/a	n/a	0	0	0
1443800	WORD	wordpools/wasnorm_wordpool_576.txt	LTP365	ltpFR2	10	8	LAKE	796	n/a	n/a	0	0	0
1446282	WORD	wordpools/wasnorm_wordpool_576.txt	LTP365	ltpFR2	10	8	PAPER	1011	n/a	n/a	0	0	0
1448947	WORD	wordpools/wasnorm_wordpool_576.txt	LTP365	ltpFR2	10	8	SHORTCAKE	1292	n/a	n/a	0	0	0
1451429	WORD	wordpools/wasnorm_wordpool_576.txt	LTP365	ltpFR2	10	8	VIKING	1565	n/a	n/a	0	0	0
1453928	WORD	wordpools/wasnorm_wordpool_576.txt	LTP365	ltpFR2	10	8	COMPASS	358	n/a	n/a	0	0	0
1456677	WORD	wordpools/wasnorm_wordpool_576.txt	LTP365	ltpFR2	10	8	COMET	353	n/a	n/a	0	0	0
1459193	WORD	wordpools/wasnorm_wordpool_576.txt	LTP365	ltpFR2	10	8	LONDON	843	n/a	n/a	0	0	0
1461774	WORD	wordpools/wasnorm_wordpool_576.txt	LTP365	ltpFR2	10	8	STAPLE	1371	n/a	n/a	0	0	0
1464323	WORD	wordpools/wasnorm_wordpool_576.txt	LTP365	ltpFR2	10	8	DUST	508	n/a	n/a	0	0	0
1466938	WORD	wordpools/wasnorm_wordpool_576.txt	LTP365	ltpFR2	10	8	LOFT	840	n/a	n/a	0	0	0
1469554	WORD	wordpools/wasnorm_wordpool_576.txt	LTP365	ltpFR2	10	8	DAUGHTER	442	n/a	n/a	0	0	0
1471171	START	n/a	LTP365	ltpFR2	10	n/a	n/a	n/a	12	n/a	n/a	n/a	n/a
1472339	DISTRACTOR	n/a	LTP365	ltpFR2	10	8	n/a	n/a	n/a	n/a	0	0	0
1472352	PROB	n/a	LTP365	ltpFR2	10	n/a	n/a	n/a	12	5	1	1	3
1473518	PROB	n/a	LTP365	ltpFR2	10	n/a	n/a	n/a	12	10	4	4	2
1475085	PROB	n/a	LTP365	ltpFR2	10	n/a	n/a	n/a	12	14	2	9	3
1477550	PROB	n/a	LTP365	ltpFR2	10	n/a	n/a	n/a	12	14	4	4	6
1479067	PROB	n/a	LTP365	ltpFR2	10	n/a	n/a	n/a	12	13	7	4	2
1480781	PROB	n/a	LTP365	ltpFR2	10	n/a	n/a	n/a	12	8	2	5	1
1482430	PROB	n/a	LTP365	ltpFR2	10	n/a	n/a	n/a	12	7	1	2	4
1483896	PROB	n/a	LTP365	ltpFR2	10	n/a	n/a	n/a	12	11	4	2	5
1485662	PROB	n/a	LTP365	ltpFR2	10	n/a	n/a	n/a	12	18	9	2	7
1487378	PROB	n/a	LTP365	ltpFR2	10	n/a	n/a	n/a	12	8	2	1	5
1488611	PROB	n/a	LTP365	ltpFR2	10	n/a	n/a	n/a	12	14	3	8	3
1490261	PROB	n/a	LTP365	ltpFR2	10	n/a	n/a	n/a	12	13	9	2	2
1491743	PROB	n/a	LTP365	ltpFR2	10	n/a	n/a	n/a	12	15	3	7	5
1492925	PROB	n/a	LTP365	ltpFR2	10	n/a	n/a	n/a	12	14	1	4	9
1494164	STOP	n/a	LTP365	ltpFR2	10	n/a	n/a	n/a	12	n/a	n/a	n/a	n/a
1496957	REC_START	n/a	LTP365	ltpFR2	10	8	n/a	n/a	n/a	n/a	0	0	0
1498588	REC_WORD	wordpools/wasnorm_wordpool_576.txt	LTP365	ltpFR2	10	8	HUSBAND	728	n/a	n/a	0	0	0
1499423	REC_WORD	wordpools/wasnorm_wordpool_576.txt	LTP365	ltpFR2	10	8	BLOUSE	139	n/a	n/a	0	0	0
1500353	REC_WORD	wordpools/wasnorm_wordpool_576.txt	LTP365	ltpFR2	10	8	JEANS	752	n/a	n/a	0	0	0
1502010	REC_WORD	wordpools/wasnorm_wordpool_576.txt	LTP365	ltpFR2	10	8	WAITER	1580	n/a	n/a	0	0	0
1502702	REC_WORD	wordpools/wasnorm_wordpool_576.txt	LTP365	ltpFR2	10	8	HATCHET	691	n/a	n/a	0	0	0
1503709	REC_WORD	wordpools/wasnorm_wordpool_576.txt	LTP365	ltpFR2	10	8	CONVICT	371	n/a	n/a	0	0	0
1505367	REC_WORD	wordpools/wasnorm_wordpool_576.txt	LTP365	ltpFR2	10	8	HERO	706	n/a	n/a	0	0	0
1506095	REC_WORD	wordpools/wasnorm_wordpool_576.txt	LTP365	ltpFR2	10	8	AWARD	63	n/a	n/a	0	0	0
1507056	REC_WORD	wordpools/wasnorm_wordpool_576.txt	LTP365	ltpFR2	10	8	BANQUET	86	n/a	n/a	0	0	0
1507699	REC_WORD	wordpools/wasnorm_wordpool_576.txt	LTP365	ltpFR2	10	8	LAKE	796	n/a	n/a	0	0	0
1508265	REC_WORD	wordpools/wasnorm_wordpool_576.txt	LTP365	ltpFR2	10	8	LONDON	843	n/a	n/a	0	0	0
1512031	REC_WORD	wordpools/wasnorm_wordpool_576.txt	LTP365	ltpFR2	10	8	BRICK	172	n/a	n/a	0	0	0
1521104	REC_WORD	wordpools/wasnorm_wordpool_576.txt	LTP365	ltpFR2	10	8	PAIL	1002	n/a	n/a	0	0	0
1522441	REC_WORD	wordpools/wasnorm_wordpool_576.txt	LTP365	ltpFR2	10	8	DUST	508	n/a	n/a	0	0	0
1523692	REC_WORD	wordpools/wasnorm_wordpool_576.txt	LTP365	ltpFR2	10	8	DUSTPAN	509	n/a	n/a	0	0	0
1526222	REC_WORD	wordpools/wasnorm_wordpool_576.txt	LTP365	ltpFR2	10	8	STAPLE	1371	n/a	n/a	0	0	0
1527603	REC_WORD	wordpools/wasnorm_wordpool_576.txt	LTP365	ltpFR2	10	8	SHORTCAKE	1292	n/a	n/a	0	0	0
1573502	REST_REWET	n/a	LTP365	ltpFR2	10	8	n/a	n/a	n/a	n/a	0	0	0
2161228	WORD	wordpools/wasnorm_wordpool_576.txt	LTP365	ltpFR2	10	9	PARSLEY	1016	n/a	n/a	0	0	0
2163892	WORD	wordpools/wasnorm_wordpool_576.txt	LTP365	ltpFR2	10	9	SUITCASE	1403	n/a	n/a	0	0	0
2166408	WORD	wordpools/wasnorm_wordpool_576.txt	LTP365	ltpFR2	10	9	PARENT	1013	n/a	n/a	0	0	0
2169174	WORD	wordpools/wasnorm_wordpool_576.txt	LTP365	ltpFR2	10	9	SNAIL	1332	n/a	n/a	0	0	0
2171688	WORD	wordpools/wasnorm_wordpool_576.txt	LTP365	ltpFR2	10	9	KIDNEY	776	n/a	n/a	0	0	0
2174138	WORD	wordpools/wasnorm_wordpool_576.txt	LTP365	ltpFR2	10	9	FRECKLE	602	n/a	n/a	0	0	0
2176786	WORD	wordpools/wasnorm_wordpool_576.txt	LTP365	ltpFR2	10	9	LIPSTICK	829	n/a	n/a	0	0	0
2179501	WORD	wordpools/wasnorm_wordpool_576.txt	LTP365	ltpFR2	10	9	HIKER	708	n/a	n/a	0	0	0
2182234	WORD	wordpools/wasnorm_wordpool_576.txt	LTP365	ltpFR2	10	9	NAPKIN	937	n/a	n/a	0	0	0
2184682	WORD	wordpools/wasnorm_wordpool_576.txt	LTP365	ltpFR2	10	9	SISTER	1312	n/a	n/a	0	0	0
2187215	WORD	wordpools/wasnorm_wordpool_576.txt	LTP365	ltpFR2	10	9	BRIEFCASE	175	n/a	n/a	0	0	0
2190030	WORD	wordpools/wasnorm_wordpool_576.txt	LTP365	ltpFR2	10	9	PENGUIN	1044	n/a	n/a	0	0	0
2192495	WORD	wordpools/wasnorm_wordpool_576.txt	LTP365	ltpFR2	10	9	TWEEZERS	1526	n/a	n/a	0	0	0
2194943	WORD	wordpools/wasnorm_wordpool_576.txt	LTP365	ltpFR2	10	9	DRILL	497	n/a	n/a	0	0	0
2197426	WORD	wordpools/wasnorm_wordpool_576.txt	LTP365	ltpFR2	10	9	TORTOISE	1486	n/a	n/a	0	0	0
2200008	WORD	wordpools/wasnorm_wordpool_576.txt	LTP365	ltpFR2	10	9	FRAME	600	n/a	n/a	0	0	0
2202456	WORD	wordpools/wasnorm_wordpool_576.txt	LTP365	ltpFR2	10	9	PORTRAIT	1111	n/a	n/a	0	0	0
2205256	WORD	wordpools/wasnorm_wordpool_576.txt	LTP365	ltpFR2	10	9	DONKEY	484	n/a	n/a	0	0	0
2207787	WORD	wordpools/wasnorm_wordpool_576.txt	LTP365	ltpFR2	10	9	SADDLE	1221	n/a	n/a	0	0	0
2210369	WORD	wordpools/wasnorm_wordpool_576.txt	LTP365	ltpFR2	10	9	CONTRACT	368	n/a	n/a	0	0	0
2213052	WORD	wordpools/wasnorm_wordpool_576.txt	LTP365	ltpFR2	10	9	GHETTO	633	n/a	n/a	0	0	0
2215633	WORD	wordpools/wasnorm_wordpool_576.txt	LTP365	ltpFR2	10	9	SIDEWALK	1303	n/a	n/a	0	0	0
2218133	WORD	wordpools/wasnorm_wordpool_576.txt	LTP365	ltpFR2	10	9	FUNGUS	614	n/a	n/a	0	0	0
2220931	WORD	wordpools/wasnorm_wordpool_576.txt	LTP365	ltpFR2	10	9	COD	340	n/a	n/a	0	0	0
2222547	START	n/a	LTP365	ltpFR2	10	n/a	n/a	n/a	13	n/a	n/a	n/a	n/a
2223506	DISTRACTOR	n/a	LTP365	ltpFR2	10	9	n/a	n/a	n/a	n/a	0	0	0
2223529	PROB	n/a	LTP365	ltpFR2	10	n/a	n/a	n/a	13	8	5	2	1
2226411	PROB	n/a	LTP365	ltpFR2	10	n/a	n/a	n/a	13	13	6	5	2
2229061	PROB	n/a	LTP365	ltpFR2	10	n/a	n/a	n/a	13	19	9	3	7
2230426	PROB	n/a	LTP365	ltpFR2	10	n/a	n/a	n/a	13	10	8	1	1
2231475	PROB	n/a	LTP365	ltpFR2	10	n/a	n/a	n/a	13	15	9	1	5
2232775	PROB	n/a	LTP365	ltpFR2	10	n/a	n/a	n/a	13	20	6	8	6
2234590	PROB	n/a	LTP365	ltpFR2	10	n/a	n/a	n/a	13	13	3	9	1
2235873	PROB	n/a	LTP365	ltpFR2	10	n/a	n/a	n/a	13	20	5	7	8
2237789	PROB	n/a	LTP365	ltpFR2	10	n/a	n/a	n/a	13	21	9	5	7
2240421	PROB	n/a	LTP365	ltpFR2	10	n/a	n/a	n/a	13	15	7	3	5
2242520	PROB	n/a	LTP365	ltpFR2	10	n/a	n/a	n/a	13	8	2	1	5
2243752	PROB	n/a	LTP365	ltpFR2	10	n/a	n/a	n/a	13	23	7	9	7
2245979	STOP	n/a	LTP365	ltpFR2	10	n/a	n/a	n/a	13	n/a	n/a	n/a	n/a
2248367	REC_START	n/a	LTP365	ltpFR2	10	9	n/a	n/a	n/a	n/a	0	0	0
2250228	REC_WORD	wordpools/wasnorm_wordpool_576.txt	LTP365	ltpFR2	10	9	COD	340	n/a	n/a	0	0	0
2251309	REC_WORD	wordpools/wasnorm_wordpool_576.txt	LTP365	ltpFR2	10	9	SNAIL	1332	n/a	n/a	0	0	0
2252655	REC_WORD	wordpools/wasnorm_wordpool_576.txt	LTP365	ltpFR2	10	9	PARENT	1013	n/a	n/a	0	0	0
2253554	REC_WORD	wordpools/wasnorm_wordpool_576.txt	LTP365	ltpFR2	10	9	SISTER	1312	n/a	n/a	0	0	0
2254764	REC_WORD	wordpools/wasnorm_wordpool_576.txt	LTP365	ltpFR2	10	9	SUITCASE	1403	n/a	n/a	0	0	0
2256036	REC_WORD	wordpools/wasnorm_wordpool_576.txt	LTP365	ltpFR2	10	9	BRIEFCASE	175	n/a	n/a	0	0	0
2258378	REC_WORD	wordpools/wasnorm_wordpool_576.txt	LTP365	ltpFR2	10	9	PARSLEY	1016	n/a	n/a	0	0	0
2260789	REC_WORD	wordpools/wasnorm_wordpool_576.txt	LTP365	ltpFR2	10	9	HIKER	708	n/a	n/a	0	0	0
2261880	REC_WORD	wordpools/wasnorm_wordpool_576.txt	LTP365	ltpFR2	10	9	DRILL	497	n/a	n/a	0	0	0
2263698	REC_WORD	wordpools/wasnorm_wordpool_576.txt	LTP365	ltpFR2	10	9	LIPSTICK	829	n/a	n/a	0	0	0
2264721	REC_WORD	wordpools/wasnorm_wordpool_576.txt	LTP365	ltpFR2	10	9	NAPKIN	937	n/a	n/a	0	0	0
2271520	REC_WORD	wordpools/wasnorm_wordpool_576.txt	LTP365	ltpFR2	10	9	SIDEWALK	1303	n/a	n/a	0	0	0
2310905	REC_WORD	wordpools/wasnorm_wordpool_576.txt	LTP365	ltpFR2	10	9	MILDEW	893	n/a	n/a	0	0	0
2338855	WORD	wordpools/wasnorm_wordpool_576.txt	LTP365	ltpFR2	10	10	SPHINX	1349	n/a	n/a	0	0	0
2341487	WORD	wordpools/wasnorm_wordpool_576.txt	LTP365	ltpFR2	10	10	SALAD	1224	n/a	n/a	0	0	0
2343986	WORD	wordpools/wasnorm_wordpool_576.txt	LTP365	ltpFR2	10	10	WRIST	1626	n/a	n/a	0	0	0
2346701	WORD	wordpools/wasnorm_wordpool_576.txt	LTP365	ltpFR2	10	10	CHEST	295	n/a	n/a	0	0	0
2349283	WORD	wordpools/wasnorm_wordpool_576.txt	LTP365	ltpFR2	10	10	PIGEON	1065	n/a	n/a	0	0	0
2351749	WORD	wordpools/wasnorm_wordpool_576.txt	LTP365	ltpFR2	10	10	PLUTO	1092	n/a	n/a	0	0	0
2354381	WORD	wordpools/wasnorm_wordpool_576.txt	LTP365	ltpFR2	10	10	RAZOR	1171	n/a	n/a	0	0	0
2357181	WORD	wordpools/wasnorm_wordpool_576.txt	LTP365	ltpFR2	10	10	GROUND	666	n/a	n/a	0	0	0
2359978	WORD	wordpools/wasnorm_wordpool_576.txt	LTP365	ltpFR2	10	10	DORM	488	n/a	n/a	0	0	0
2362527	WORD	wordpools/wasnorm_wordpool_576.txt	LTP365	ltpFR2	10	10	ROBIN	1199	n/a	n/a	0	0	0
2365160	WORD	wordpools/wasnorm_wordpool_576.txt	LTP365	ltpFR2	10	10	THIEF	1456	n/a	n/a	0	0	0
2367758	WORD	wordpools/wasnorm_wordpool_576.txt	LTP365	ltpFR2	10	10	GYMNAST	675	n/a	n/a	0	0	0
2370207	WORD	wordpools/wasnorm_wordpool_576.txt	LTP365	ltpFR2	10	10	FOOTBALL	591	n/a	n/a	0	0	0
2372905	WORD	wordpools/wasnorm_wordpool_576.txt	LTP365	ltpFR2	10	10	CHEMIST	292	n/a	n/a	0	0	0
2375604	WORD	wordpools/wasnorm_wordpool_576.txt	LTP365	ltpFR2	10	10	PEBBLE	1035	n/a	n/a	0	0	0
2378253	WORD	wordpools/wasnorm_wordpool_576.txt	LTP365	ltpFR2	10	10	NECKLACE	940	n/a	n/a	0	0	0
2380951	WORD	wordpools/wasnorm_wordpool_576.txt	LTP365	ltpFR2	10	10	CLOTHES	327	n/a	n/a	0	0	0
2383616	WORD	wordpools/wasnorm_wordpool_576.txt	LTP365	ltpFR2	10	10	EAGLE	512	n/a	n/a	0	0	0
2386282	WORD	wordpools/wasnorm_wordpool_576.txt	LTP365	ltpFR2	10	10	SHOVEL	1295	n/a	n/a	0	0	0
2389098	WORD	wordpools/wasnorm_wordpool_576.txt	LTP365	ltpFR2	10	10	BLADE	134	n/a	n/a	0	0	0
2391879	WORD	wordpools/wasnorm_wordpool_576.txt	LTP365	ltpFR2	10	10	BUTCHER	203	n/a	n/a	0	0	0
2394378	WORD	wordpools/wasnorm_wordpool_576.txt	LTP365	ltpFR2	10	10	MARINE	869	n/a	n/a	0	0	0
2396893	WORD	wordpools/wasnorm_wordpool_576.txt	LTP365	ltpFR2	10	10	LAGOON	795	n/a	n/a	0	0	0
2399708	WORD	wordpools/wasnorm_wordpool_576.txt	LTP365	ltpFR2	10	10	MAPLE	866	n/a	n/a	0	0	0
2401325	START	n/a	LTP365	ltpFR2	10	n/a	n/a	n/a	14	n/a	n/a	n/a	n/a
2402353	DISTRACTOR	n/a	LTP365	ltpFR2	10	10	n/a	n/a	n/a	n/a	0	0	0
2402357	PROB	n/a	LTP365	ltpFR2	10	n/a	n/a	n/a	14	5	2	1	2
2403940	PROB	n/a	LTP365	ltpFR2	10	n/a	n/a	n/a	14	19	9	3	7
2405207	PROB	n/a	LTP365	ltpFR2	10	n/a	n/a	n/a	14	9	1	4	4
2406555	PROB	n/a	LTP365	ltpFR2	10	n/a	n/a	n/a	14	15	1	5	9
2407888	PROB	n/a	LTP365	ltpFR2	10	n/a	n/a	n/a	14	12	1	3	8
2409487	PROB	n/a	LTP365	ltpFR2	10	n/a	n/a	n/a	14	23	7	7	9
2411486	PROB	n/a	LTP365	ltpFR2	10	n/a	n/a	n/a	14	14	7	5	2
2413236	PROB	n/a	LTP365	ltpFR2	10	n/a	n/a	n/a	14	13	4	7	2
2415334	PROB	n/a	LTP365	ltpFR2	10	n/a	n/a	n/a	14	9	5	2	2
2416517	PROB	n/a	LTP365	ltpFR2	10	n/a	n/a	n/a	14	16	3	5	8
2418949	PROB	n/a	LTP365	ltpFR2	10	n/a	n/a	n/a	14	14	5	6	3
2421747	PROB	n/a	LTP365	ltpFR2	10	n/a	n/a	n/a	14	11	2	8	1
2423248	PROB	n/a	LTP365	ltpFR2	10	n/a	n/a	n/a	14	20	9	8	3
2425076	STOP	n/a	LTP365	ltpFR2	10	n/a	n/a	n/a	14	n/a	n/a	n/a	n/a
2427163	REC_START	n/a	LTP365	ltpFR2	10	10	n/a	n/a	n/a	n/a	0	0	0
2427495	REC_WORD	wordpools/wasnorm_wordpool_576.txt	LTP365	ltpFR2	10	10	MARINE	869	n/a	n/a	0	0	0
2428259	REC_WORD	wordpools/wasnorm_wordpool_576.txt	LTP365	ltpFR2	10	10	LAGOON	795	n/a	n/a	0	0	0
2429021	REC_WORD	wordpools/wasnorm_wordpool_576.txt	LTP365	ltpFR2	10	10	MAPLE	866	n/a	n/a	0	0	0
2429858	REC_WORD	wordpools/wasnorm_wordpool_576.txt	LTP365	ltpFR2	10	10	BUTCHER	203	n/a	n/a	0	0	0
2430622	REC_WORD	wordpools/wasnorm_wordpool_576.txt	LTP365	ltpFR2	10	10	RAZOR	1171	n/a	n/a	0	0	0
2436476	REC_WORD	wordpools/wasnorm_wordpool_576.txt	LTP365	ltpFR2	10	10	BLADE	134	n/a	n/a	0	0	0
2437850	REC_WORD	wordpools/wasnorm_wordpool_576.txt	LTP365	ltpFR2	10	10	CHEST	295	n/a	n/a	0	0	0
2439473	REC_WORD	wordpools/wasnorm_wordpool_576.txt	LTP365	ltpFR2	10	10	WRIST	1626	n/a	n/a	0	0	0
2441054	REC_WORD	wordpools/wasnorm_wordpool_576.txt	LTP365	ltpFR2	10	10	EAGLE	512	n/a	n/a	0	0	0
2442528	REC_WORD	wordpools/wasnorm_wordpool_576.txt	LTP365	ltpFR2	10	10	FOOTBALL	591	n/a	n/a	0	0	0
2443471	REC_WORD	wordpools/wasnorm_wordpool_576.txt	LTP365	ltpFR2	10	10	CHEMIST	292	n/a	n/a	0	0	0
2444303	REC_WORD	wordpools/wasnorm_wordpool_576.txt	LTP365	ltpFR2	10	10	PEBBLE	1035	n/a	n/a	0	0	0
2448638	REC_WORD	wordpools/wasnorm_wordpool_576.txt	LTP365	ltpFR2	10	10	NECKLACE	940	n/a	n/a	0	0	0
2453658	REC_WORD	wordpools/wasnorm_wordpool_576.txt	LTP365	ltpFR2	10	10	GROUND	666	n/a	n/a	0	0	0
2459115	REC_WORD	wordpools/wasnorm_wordpool_576.txt	LTP365	ltpFR2	10	10	SPHINX	1349	n/a	n/a	0	0	0
2476909	REC_WORD	wordpools/wasnorm_wordpool_576.txt	LTP365	ltpFR2	10	10	SALAD	1224	n/a	n/a	0	0	0
2517633	WORD	wordpools/wasnorm_wordpool_576.txt	LTP365	ltpFR2	10	11	PEDAL	1037	n/a	n/a	0	0	0
2520199	WORD	wordpools/wasnorm_wordpool_576.txt	LTP365	ltpFR2	10	11	HELMET	702	n/a	n/a	0	0	0
2522631	WORD	wordpools/wasnorm_wordpool_576.txt	LTP365	ltpFR2	10	11	CEILING	265	n/a	n/a	0	0	0
2525396	WORD	wordpools/wasnorm_wordpool_576.txt	LTP365	ltpFR2	10	11	HOUND	724	n/a	n/a	0	0	0
2528162	WORD	wordpools/wasnorm_wordpool_576.txt	LTP365	ltpFR2	10	11	TOURIST	1488	n/a	n/a	0	0	0
2530727	WORD	wordpools/wasnorm_wordpool_576.txt	LTP365	ltpFR2	10	11	CRICKET	408	n/a	n/a	0	0	0
2533359	WORD	wordpools/wasnorm_wordpool_576.txt	LTP365	ltpFR2	10	11	DASHBOARD	441	n/a	n/a	0	0	0
2535857	WORD	wordpools/wasnorm_wordpool_576.txt	LTP365	ltpFR2	10	11	ELBOW	520	n/a	n/a	0	0	0
2538373	WORD	wordpools/wasnorm_wordpool_576.txt	LTP365	ltpFR2	10	11	NOMAD	955	n/a	n/a	0	0	0
2540872	WORD	wordpools/wasnorm_wordpool_576.txt	LTP365	ltpFR2	10	11	ROCKET	1202	n/a	n/a	0	0	0
2543454	WORD	wordpools/wasnorm_wordpool_576.txt	LTP365	ltpFR2	10	11	COLONEL	348	n/a	n/a	0	0	0
2546220	WORD	wordpools/wasnorm_wordpool_576.txt	LTP365	ltpFR2	10	11	BOARD	143	n/a	n/a	0	0	0
2549019	WORD	wordpools/wasnorm_wordpool_576.txt	LTP365	ltpFR2	10	11	GRAVE	658	n/a	n/a	0	0	0
2551566	WORD	wordpools/wasnorm_wordpool_576.txt	LTP365	ltpFR2	10	11	MUMMY	932	n/a	n/a	0	0	0
2554348	WORD	wordpools/wasnorm_wordpool_576.txt	LTP365	ltpFR2	10	11	ROBBER	1197	n/a	n/a	0	0	0
2556997	WORD	wordpools/wasnorm_wordpool_576.txt	LTP365	ltpFR2	10	11	SCISSORS	1250	n/a	n/a	0	0	0
2559746	WORD	wordpools/wasnorm_wordpool_576.txt	LTP365	ltpFR2	10	11	SKETCH	1315	n/a	n/a	0	0	0
2562229	WORD	wordpools/wasnorm_wordpool_576.txt	LTP365	ltpFR2	10	11	SCRIBBLE	1256	n/a	n/a	0	0	0
2564960	WORD	wordpools/wasnorm_wordpool_576.txt	LTP365	ltpFR2	10	11	BLACKBOARD	133	n/a	n/a	0	0	0
2567742	WORD	wordpools/wasnorm_wordpool_576.txt	LTP365	ltpFR2	10	11	MILDEW	893	n/a	n/a	0	0	0
2570557	WORD	wordpools/wasnorm_wordpool_576.txt	LTP365	ltpFR2	10	11	MISSILE	900	n/a	n/a	0	0	0
2573272	WORD	wordpools/wasnorm_wordpool_576.txt	LTP365	ltpFR2	10	11	PUPIL	1143	n/a	n/a	0	0	0
2575738	WORD	wordpools/wasnorm_wordpool_576.txt	LTP365	ltpFR2	10	11	KETCHUP	771	n/a	n/a	0	0	0
2578270	WORD	wordpools/wasnorm_wordpool_576.txt	LTP365	ltpFR2	10	11	SHELTER	1282	n/a	n/a	0	0	0
2579886	START	n/a	LTP365	ltpFR2	10	n/a	n/a	n/a	15	n/a	n/a	n/a	n/a
2580938	DISTRACTOR	n/a	LTP365	ltpFR2	10	11	n/a	n/a	n/a	n/a	0	0	0
2580952	PROB	n/a	LTP365	ltpFR2	10	n/a	n/a	n/a	15	16	2	9	5
2582601	PROB	n/a	LTP365	ltpFR2	10	n/a	n/a	n/a	15	6	2	2	2
2583967	PROB	n/a	LTP365	ltpFR2	10	n/a	n/a	n/a	15	15	7	7	1
2585217	PROB	n/a	LTP365	ltpFR2	10	n/a	n/a	n/a	15	17	5	3	9
2587448	PROB	n/a	LTP365	ltpFR2	10	n/a	n/a	n/a	15	16	4	3	9
2589697	PROB	n/a	LTP365	ltpFR2	10	n/a	n/a	n/a	15	16	9	6	1
2591613	PROB	n/a	LTP365	ltpFR2	10	n/a	n/a	n/a	15	8	4	2	2
2592746	PROB	n/a	LTP365	ltpFR2	10	n/a	n/a	n/a	15	12	5	6	1
2594030	PROB	n/a	LTP365	ltpFR2	10	n/a	n/a	n/a	15	25	8	8	9
2596245	PROB	n/a	LTP365	ltpFR2	10	n/a	n/a	n/a	15	19	1	5	3
2598326	PROB	n/a	LTP365	ltpFR2	10	n/a	n/a	n/a	15	8	4	2	2
2601209	PROB	n/a	LTP365	ltpFR2	10	n/a	n/a	n/a	15	18	1	8	9
2602843	STOP	n/a	LTP365	ltpFR2	10	n/a	n/a	n/a	15	n/a	n/a	n/a	n/a
2605723	REC_START	n/a	LTP365	ltpFR2	10	11	n/a	n/a	n/a	n/a	0	0	0
2606404	REC_WORD	wordpools/wasnorm_wordpool_576.txt	LTP365	ltpFR2	10	11	MILDEW	893	n/a	n/a	0	0	0
2607248	REC_WORD	wordpools/wasnorm_wordpool_576.txt	LTP365	ltpFR2	10	11	MISSILE	900	n/a	n/a	0	0	0
2607918	REC_WORD	wordpools/wasnorm_wordpool_576.txt	LTP365	ltpFR2	10	11	KETCHUP	771	n/a	n/a	0	0	0
2608811	REC_WORD	wordpools/wasnorm_wordpool_576.txt	LTP365	ltpFR2	10	11	TOURIST	1488	n/a	n/a	0	0	0
2609590	REC_WORD	wordpools/wasnorm_wordpool_576.txt	LTP365	ltpFR2	10	11	NOMAD	955	n/a	n/a	0	0	0
2612040	REC_WORD	wordpools/wasnorm_wordpool_576.txt	LTP365	ltpFR2	10	11	DASHBOARD	441	n/a	n/a	0	0	0
2613804	REC_WORD	wordpools/wasnorm_wordpool_576.txt	LTP365	ltpFR2	10	11	HELMET	702	n/a	n/a	0	0	0
2614656	REC_WORD	wordpools/wasnorm_wordpool_576.txt	LTP365	ltpFR2	10	11	PEDAL	1037	n/a	n/a	0	0	0
2615197	REC_WORD	wordpools/wasnorm_wordpool_576.txt	LTP365	ltpFR2	10	11	CEILING	265	n/a	n/a	0	0	0
2616144	REC_WORD	wordpools/wasnorm_wordpool_576.txt	LTP365	ltpFR2	10	11	BOARD	143	n/a	n/a	0	0	0
2623432	REC_WORD	wordpools/wasnorm_wordpool_576.txt	LTP365	ltpFR2	10	11	BLACKBOARD	133	n/a	n/a	0	0	0
2625136	REC_WORD	wordpools/wasnorm_wordpool_576.txt	LTP365	ltpFR2	10	11	SCRIBBLE	1256	n/a	n/a	0	0	0
2626126	REC_WORD	wordpools/wasnorm_wordpool_576.txt	LTP365	ltpFR2	10	11	SKETCH	1315	n/a	n/a	0	0	0
2630568	REC_WORD	wordpools/wasnorm_wordpool_576.txt	LTP365	ltpFR2	10	11	COLONEL	348	n/a	n/a	0	0	0
2633480	REC_WORD	wordpools/wasnorm_wordpool_576.txt	LTP365	ltpFR2	10	11	HOUND	724	n/a	n/a	0	0	0
2696162	DISTRACTOR	n/a	LTP365	ltpFR2	10	12	n/a	n/a	n/a	n/a	0	0	0
2696162	START	n/a	LTP365	ltpFR2	10	n/a	n/a	n/a	16	n/a	n/a	n/a	n/a
2696179	PROB	n/a	LTP365	ltpFR2	10	n/a	n/a	n/a	16	12	5	2	5
2697760	PROB	n/a	LTP365	ltpFR2	10	n/a	n/a	n/a	16	14	8	5	1
2699161	PROB	n/a	LTP365	ltpFR2	10	n/a	n/a	n/a	16	9	2	6	1
2700426	PROB	n/a	LTP365	ltpFR2	10	n/a	n/a	n/a	16	5	3	1	1
2701908	PROB	n/a	LTP365	ltpFR2	10	n/a	n/a	n/a	16	17	7	6	4
2704290	PROB	n/a	LTP365	ltpFR2	10	n/a	n/a	n/a	16	20	7	9	4
2706423	PROB	n/a	LTP365	ltpFR2	10	n/a	n/a	n/a	16	19	6	6	7
2708272	PROB	n/a	LTP365	ltpFR2	10	n/a	n/a	n/a	16	23	9	9	5
2710871	PROB	n/a	LTP365	ltpFR2	10	n/a	n/a	n/a	16	13	1	8	4
2712586	PROB	n/a	LTP365	ltpFR2	10	n/a	n/a	n/a	16	13	3	2	8
2714369	PROB	n/a	LTP365	ltpFR2	10	n/a	n/a	n/a	16	11	2	2	7
2715918	PROB	n/a	LTP365	ltpFR2	10	n/a	n/a	n/a	16	17	6	7	4
2720161	STOP	n/a	LTP365	ltpFR2	10	n/a	n/a	n/a	16	n/a	n/a	n/a	n/a
2721349	WORD	wordpools/wasnorm_wordpool_576.txt	LTP365	ltpFR2	10	12	PASSAGE	1019	n/a	n/a	0	0	0
2724048	WORD	wordpools/wasnorm_wordpool_576.txt	LTP365	ltpFR2	10	12	TILE	1468	n/a	n/a	0	0	0
2726546	WORD	wordpools/wasnorm_wordpool_576.txt	LTP365	ltpFR2	10	12	CABBAGE	210	n/a	n/a	0	0	0
2729212	WORD	wordpools/wasnorm_wordpool_576.txt	LTP365	ltpFR2	10	12	OMELET	976	n/a	n/a	0	0	0
2731793	WORD	wordpools/wasnorm_wordpool_576.txt	LTP365	ltpFR2	10	12	RUST	1219	n/a	n/a	0	0	0
2734426	WORD	wordpools/wasnorm_wordpool_576.txt	LTP365	ltpFR2	10	12	LAVA	804	n/a	n/a	0	0	0
2737008	WORD	wordpools/wasnorm_wordpool_576.txt	LTP365	ltpFR2	10	12	HARP	689	n/a	n/a	0	0	0
2739790	WORD	wordpools/wasnorm_wordpool_576.txt	LTP365	ltpFR2	10	12	RADISH	1158	n/a	n/a	0	0	0
2742256	WORD	wordpools/wasnorm_wordpool_576.txt	LTP365	ltpFR2	10	12	PADDING	999	n/a	n/a	0	0	0
2745038	WORD	wordpools/wasnorm_wordpool_576.txt	LTP365	ltpFR2	10	12	POISON	1096	n/a	n/a	0	0	0
2747819	WORD	wordpools/wasnorm_wordpool_576.txt	LTP365	ltpFR2	10	12	SHIRT	1287	n/a	n/a	0	0	0
2750351	WORD	wordpools/wasnorm_wordpool_576.txt	LTP365	ltpFR2	10	12	HIGHWAY	707	n/a	n/a	0	0	0
2753167	WORD	wordpools/wasnorm_wordpool_576.txt	LTP365	ltpFR2	10	12	OZONE	996	n/a	n/a	0	0	0
2755932	WORD	wordpools/wasnorm_wordpool_576.txt	LTP365	ltpFR2	10	12	WAGON	1578	n/a	n/a	0	0	0
2758630	WORD	wordpools/wasnorm_wordpool_576.txt	LTP365	ltpFR2	10	12	TRUCK	1512	n/a	n/a	0	0	0
2761147	WORD	wordpools/wasnorm_wordpool_576.txt	LTP365	ltpFR2	10	12	EGYPT	519	n/a	n/a	0	0	0
2763661	WORD	wordpools/wasnorm_wordpool_576.txt	LTP365	ltpFR2	10	12	BLUEPRINT	142	n/a	n/a	0	0	0
2766276	WORD	wordpools/wasnorm_wordpool_576.txt	LTP365	ltpFR2	10	12	VENUS	1557	n/a	n/a	0	0	0
2768842	WORD	wordpools/wasnorm_wordpool_576.txt	LTP365	ltpFR2	10	12	GLOBE	641	n/a	n/a	0	0	0
2771491	WORD	wordpools/wasnorm_wordpool_576.txt	LTP365	ltpFR2	10	12	LOVER	846	n/a	n/a	0	0	0
2773939	WORD	wordpools/wasnorm_wordpool_576.txt	LTP365	ltpFR2	10	12	WORKER	1621	n/a	n/a	0	0	0
2776738	WORD	wordpools/wasnorm_wordpool_576.txt	LTP365	ltpFR2	10	12	TAXI	1438	n/a	n/a	0	0	0
2779520	WORD	wordpools/wasnorm_wordpool_576.txt	LTP365	ltpFR2	10	12	CHAPEL	280	n/a	n/a	0	0	0
2782020	WORD	wordpools/wasnorm_wordpool_576.txt	LTP365	ltpFR2	10	12	CHURCH	307	n/a	n/a	0	0	0
2783635	START	n/a	LTP365	ltpFR2	10	n/a	n/a	n/a	17	n/a	n/a	n/a	n/a
2784766	DISTRACTOR	n/a	LTP365	ltpFR2	10	12	n/a	n/a	n/a	n/a	0	0	0
2784784	PROB	n/a	LTP365	ltpFR2	10	n/a	n/a	n/a	17	14	9	2	3
2786566	PROB	n/a	LTP365	ltpFR2	10	n/a	n/a	n/a	17	25	8	9	8
2788482	PROB	n/a	LTP365	ltpFR2	10	n/a	n/a	n/a	17	19	8	6	5
2791132	PROB	n/a	LTP365	ltpFR2	10	n/a	n/a	n/a	17	21	9	8	4
2793596	PROB	n/a	LTP365	ltpFR2	10	n/a	n/a	n/a	17	17	1	8	8
2795113	PROB	n/a	LTP365	ltpFR2	10	n/a	n/a	n/a	17	16	8	2	6
2796628	PROB	n/a	LTP365	ltpFR2	10	n/a	n/a	n/a	17	20	5	9	6
2798794	PROB	n/a	LTP365	ltpFR2	10	n/a	n/a	n/a	17	19	7	5	7
2800393	PROB	n/a	LTP365	ltpFR2	10	n/a	n/a	n/a	17	15	4	2	9
2802026	PROB	n/a	LTP365	ltpFR2	10	n/a	n/a	n/a	17	18	6	7	5
2803658	PROB	n/a	LTP365	ltpFR2	10	n/a	n/a	n/a	17	17	6	6	5
2807635	STOP	n/a	LTP365	ltpFR2	10	n/a	n/a	n/a	17	n/a	n/a	n/a	n/a
2809439	REC_START	n/a	LTP365	ltpFR2	10	12	n/a	n/a	n/a	n/a	0	0	0
2809934	REC_WORD	wordpools/wasnorm_wordpool_576.txt	LTP365	ltpFR2	10	12	CHURCH	307	n/a	n/a	0	0	0
2810641	REC_WORD	wordpools/wasnorm_wordpool_576.txt	LTP365	ltpFR2	10	12	CHAPEL	280	n/a	n/a	0	0	0
2811369	REC_WORD	wordpools/wasnorm_wordpool_576.txt	LTP365	ltpFR2	10	12	PASSAGE	1019	n/a	n/a	0	0	0
2812189	REC_WORD	wordpools/wasnorm_wordpool_576.txt	LTP365	ltpFR2	10	12	TILE	1468	n/a	n/a	0	0	0
2813011	REC_WORD	wordpools/wasnorm_wordpool_576.txt	LTP365	ltpFR2	10	12	RUST	1219	n/a	n/a	0	0	0
2813604	REC_WORD	wordpools/wasnorm_wordpool_576.txt	LTP365	ltpFR2	10	12	LOVER	846	n/a	n/a	0	0	0
2814437	REC_WORD	wordpools/wasnorm_wordpool_576.txt	LTP365	ltpFR2	10	12	WORKER	1621	n/a	n/a	0	0	0
2815155	REC_WORD	wordpools/wasnorm_wordpool_576.txt	LTP365	ltpFR2	10	12	POISON	1096	n/a	n/a	0	0	0
2817649	REC_WORD	wordpools/wasnorm_wordpool_576.txt	LTP365	ltpFR2	10	12	TAXI	1438	n/a	n/a	0	0	0
2820284	REC_WORD	wordpools/wasnorm_wordpool_576.txt	LTP365	ltpFR2	10	12	CABBAGE	210	n/a	n/a	0	0	0
2821104	REC_WORD	wordpools/wasnorm_wordpool_576.txt	LTP365	ltpFR2	10	12	RADISH	1158	n/a	n/a	0	0	0
2821933	REC_WORD	wordpools/wasnorm_wordpool_576.txt	LTP365	ltpFR2	10	12	OMELET	976	n/a	n/a	0	0	0
2828554	REC_WORD	wordpools/wasnorm_wordpool_576.txt	LTP365	ltpFR2	10	12	HARP	689	n/a	n/a	0	0	0
2836761	REC_WORD	wordpools/wasnorm_wordpool_576.txt	LTP365	ltpFR2	10	12	FILM	565	n/a	n/a	0	0	0
2899893	DISTRACTOR	n/a	LTP365	ltpFR2	10	13	n/a	n/a	n/a	n/a	0	0	0
2899894	START	n/a	LTP365	ltpFR2	10	n/a	n/a	n/a	18	n/a	n/a	n/a	n/a
2899910	PROB	n/a	LTP365	ltpFR2	10	n/a	n/a	n/a	18	15	4	2	9
2901393	PROB	n/a	LTP365	ltpFR2	10	n/a	n/a	n/a	18	13	2	9	2
2903008	PROB	n/a	LTP365	ltpFR2	10	n/a	n/a	n/a	18	14	6	1	7
2904741	PROB	n/a	LTP365	ltpFR2	10	n/a	n/a	n/a	18	16	8	7	1
2906557	PROB	n/a	LTP365	ltpFR2	10	n/a	n/a	n/a	18	4	1	1	2
2907623	PROB	n/a	LTP365	ltpFR2	10	n/a	n/a	n/a	18	18	7	4	7
2909339	PROB	n/a	LTP365	ltpFR2	10	n/a	n/a	n/a	18	11	1	6	4
2912570	PROB	n/a	LTP365	ltpFR2	10	n/a	n/a	n/a	18	19	7	3	9
2913720	PROB	n/a	LTP365	ltpFR2	10	n/a	n/a	n/a	18	14	5	1	8
2915087	PROB	n/a	LTP365	ltpFR2	10	n/a	n/a	n/a	18	12	8	3	1
2916419	PROB	n/a	LTP365	ltpFR2	10	n/a	n/a	n/a	18	13	3	2	8
2917801	PROB	n/a	LTP365	ltpFR2	10	n/a	n/a	n/a	18	18	7	6	5
2921034	PROB	n/a	LTP365	ltpFR2	10	n/a	n/a	n/a	18	9	6	1	2
2923037	STOP	n/a	LTP365	ltpFR2	10	n/a	n/a	n/a	18	n/a	n/a	n/a	n/a
2924948	WORD	wordpools/wasnorm_wordpool_576.txt	LTP365	ltpFR2	10	13	CASKET	255	n/a	n/a	0	0	0
2927396	WORD	wordpools/wasnorm_wordpool_576.txt	LTP365	ltpFR2	10	13	WIDOW	1608	n/a	n/a	0	0	0
2929845	WORD	wordpools/wasnorm_wordpool_576.txt	LTP365	ltpFR2	10	13	STAR	1373	n/a	n/a	0	0	0
2932660	WORD	wordpools/wasnorm_wordpool_576.txt	LTP365	ltpFR2	10	13	COUSIN	392	n/a	n/a	0	0	0
2935243	WORD	wordpools/wasnorm_wordpool_576.txt	LTP365	ltpFR2	10	13	MEDAL	885	n/a	n/a	0	0	0
2938025	WORD	wordpools/wasnorm_wordpool_576.txt	LTP365	ltpFR2	10	13	PEPPER	1047	n/a	n/a	0	0	0
2940473	WORD	wordpools/wasnorm_wordpool_576.txt	LTP365	ltpFR2	10	13	AUTHOR	61	n/a	n/a	0	0	0
2943256	WORD	wordpools/wasnorm_wordpool_576.txt	LTP365	ltpFR2	10	13	PADDLE	1000	n/a	n/a	0	0	0
2946004	WORD	wordpools/wasnorm_wordpool_576.txt	LTP365	ltpFR2	10	13	BANKER	84	n/a	n/a	0	0	0
2948569	WORD	wordpools/wasnorm_wordpool_576.txt	LTP365	ltpFR2	10	13	ANTLER	29	n/a	n/a	0	0	0
2951169	WORD	wordpools/wasnorm_wordpool_576.txt	LTP365	ltpFR2	10	13	SERVER	1272	n/a	n/a	0	0	0
2953883	WORD	wordpools/wasnorm_wordpool_576.txt	LTP365	ltpFR2	10	13	KNAPSACK	783	n/a	n/a	0	0	0
2956315	WORD	wordpools/wasnorm_wordpool_576.txt	LTP365	ltpFR2	10	13	REBEL	1172	n/a	n/a	0	0	0
2958964	WORD	wordpools/wasnorm_wordpool_576.txt	LTP365	ltpFR2	10	13	GARDEN	623	n/a	n/a	0	0	0
2961429	WORD	wordpools/wasnorm_wordpool_576.txt	LTP365	ltpFR2	10	13	ARMY	39	n/a	n/a	0	0	0
2963978	WORD	wordpools/wasnorm_wordpool_576.txt	LTP365	ltpFR2	10	13	IDOL	733	n/a	n/a	0	0	0
2966760	WORD	wordpools/wasnorm_wordpool_576.txt	LTP365	ltpFR2	10	13	PRIMATE	1123	n/a	n/a	0	0	0
2969227	WORD	wordpools/wasnorm_wordpool_576.txt	LTP365	ltpFR2	10	13	MOTOR	922	n/a	n/a	0	0	0
2971808	WORD	wordpools/wasnorm_wordpool_576.txt	LTP365	ltpFR2	10	13	DIME	466	n/a	n/a	0	0	0
2974506	WORD	wordpools/wasnorm_wordpool_576.txt	LTP365	ltpFR2	10	13	NEUTRON	947	n/a	n/a	0	0	0
2977106	WORD	wordpools/wasnorm_wordpool_576.txt	LTP365	ltpFR2	10	13	CAFE	216	n/a	n/a	0	0	0
2979537	WORD	wordpools/wasnorm_wordpool_576.txt	LTP365	ltpFR2	10	13	CUPBOARD	425	n/a	n/a	0	0	0
2982352	WORD	wordpools/wasnorm_wordpool_576.txt	LTP365	ltpFR2	10	13	JUGGLER	763	n/a	n/a	0	0	0
2984785	WORD	wordpools/wasnorm_wordpool_576.txt	LTP365	ltpFR2	10	13	BALLOON	75	n/a	n/a	0	0	0
2986401	START	n/a	LTP365	ltpFR2	10	n/a	n/a	n/a	19	n/a	n/a	n/a	n/a
2987463	DISTRACTOR	n/a	LTP365	ltpFR2	10	13	n/a	n/a	n/a	n/a	0	0	0
2987467	PROB	n/a	LTP365	ltpFR2	10	n/a	n/a	n/a	19	22	6	8	9
2990732	PROB	n/a	LTP365	ltpFR2	10	n/a	n/a	n/a	19	12	6	5	1
2992281	PROB	n/a	LTP365	ltpFR2	10	n/a	n/a	n/a	19	18	6	8	4
2994730	PROB	n/a	LTP365	ltpFR2	10	n/a	n/a	n/a	19	12	4	2	6
2996230	PROB	n/a	LTP365	ltpFR2	10	n/a	n/a	n/a	19	12	1	6	5
2997745	PROB	n/a	LTP365	ltpFR2	10	n/a	n/a	n/a	19	15	2	4	9
2999444	PROB	n/a	LTP365	ltpFR2	10	n/a	n/a	n/a	19	6	1	2	3
3000660	PROB	n/a	LTP365	ltpFR2	10	n/a	n/a	n/a	19	12	5	2	5
3002227	PROB	n/a	LTP365	ltpFR2	10	n/a	n/a	n/a	19	10	5	2	3
3004941	PROB	n/a	LTP365	ltpFR2	10	n/a	n/a	n/a	19	12	4	5	3
3006391	PROB	n/a	LTP365	ltpFR2	10	n/a	n/a	n/a	19	18	7	2	9
3010401	STOP	n/a	LTP365	ltpFR2	10	n/a	n/a	n/a	19	n/a	n/a	n/a	n/a
3012239	REC_START	n/a	LTP365	ltpFR2	10	13	n/a	n/a	n/a	n/a	0	0	0
3013208	REC_WORD	wordpools/wasnorm_wordpool_576.txt	LTP365	ltpFR2	10	13	JUGGLER	763	n/a	n/a	0	0	0
3013829	REC_WORD	wordpools/wasnorm_wordpool_576.txt	LTP365	ltpFR2	10	13	CASKET	255	n/a	n/a	0	0	0
3014558	REC_WORD	wordpools/wasnorm_wordpool_576.txt	LTP365	ltpFR2	10	13	WIDOW	1608	n/a	n/a	0	0	0
3017400	REC_WORD	wordpools/wasnorm_wordpool_576.txt	LTP365	ltpFR2	10	13	BANKER	84	n/a	n/a	0	0	0
3018075	REC_WORD	wordpools/wasnorm_wordpool_576.txt	LTP365	ltpFR2	10	13	ANTLER	29	n/a	n/a	0	0	0
3018837	REC_WORD	wordpools/wasnorm_wordpool_576.txt	LTP365	ltpFR2	10	13	COUSIN	392	n/a	n/a	0	0	0
3019830	REC_WORD	wordpools/wasnorm_wordpool_576.txt	LTP365	ltpFR2	10	13	IDOL	733	n/a	n/a	0	0	0
3020481	REC_WORD	wordpools/wasnorm_wordpool_576.txt	LTP365	ltpFR2	10	13	STAR	1373	n/a	n/a	0	0	0
3021529	REC_WORD	wordpools/wasnorm_wordpool_576.txt	LTP365	ltpFR2	10	13	MEDAL	885	n/a	n/a	0	0	0
3022417	REC_WORD	wordpools/wasnorm_wordpool_576.txt	LTP365	ltpFR2	10	13	ARMY	39	n/a	n/a	0	0	0
3023788	REC_WORD	wordpools/wasnorm_wordpool_576.txt	LTP365	ltpFR2	10	13	AUTHOR	61	n/a	n/a	0	0	0
3028545	REC_WORD	wordpools/wasnorm_wordpool_576.txt	LTP365	ltpFR2	10	13	MOTOR	922	n/a	n/a	0	0	0
3030018	REC_WORD	wordpools/wasnorm_wordpool_576.txt	LTP365	ltpFR2	10	13	BALLOON	75	n/a	n/a	0	0	0
3032429	REC_WORD	wordpools/wasnorm_wordpool_576.txt	LTP365	ltpFR2	10	13	SERVER	1272	n/a	n/a	0	0	0
3037876	REC_WORD	wordpools/wasnorm_wordpool_576.txt	LTP365	ltpFR2	10	13	REBEL	1172	n/a	n/a	0	0	0
3102676	DISTRACTOR	n/a	LTP365	ltpFR2	10	14	n/a	n/a	n/a	n/a	0	0	0
3102676	START	n/a	LTP365	ltpFR2	10	n/a	n/a	n/a	20	n/a	n/a	n/a	n/a
3102693	PROB	n/a	LTP365	ltpFR2	10	n/a	n/a	n/a	20	11	5	4	3
3105525	PROB	n/a	LTP365	ltpFR2	10	n/a	n/a	n/a	20	6	1	3	2
3107624	PROB	n/a	LTP365	ltpFR2	10	n/a	n/a	n/a	20	8	1	4	3
3109539	PROB	n/a	LTP365	ltpFR2	10	n/a	n/a	n/a	20	13	5	4	4
3112804	PROB	n/a	LTP365	ltpFR2	10	n/a	n/a	n/a	20	14	3	6	5
3114987	PROB	n/a	LTP365	ltpFR2	10	n/a	n/a	n/a	20	9	4	4	1
3116269	PROB	n/a	LTP365	ltpFR2	10	n/a	n/a	n/a	20	18	6	4	8
3117769	PROB	n/a	LTP365	ltpFR2	10	n/a	n/a	n/a	20	16	6	8	2
3119069	PROB	n/a	LTP365	ltpFR2	10	n/a	n/a	n/a	20	12	8	2	2
3120284	PROB	n/a	LTP365	ltpFR2	10	n/a	n/a	n/a	20	18	5	4	9
3121900	PROB	n/a	LTP365	ltpFR2	10	n/a	n/a	n/a	20	15	7	2	6
3124532	PROB	n/a	LTP365	ltpFR2	10	n/a	n/a	n/a	20	13	3	8	2
3126013	STOP	n/a	LTP365	ltpFR2	10	n/a	n/a	n/a	20	n/a	n/a	n/a	n/a
3127564	WORD	wordpools/wasnorm_wordpool_576.txt	LTP365	ltpFR2	10	14	LACE	792	n/a	n/a	0	0	0
3130362	WORD	wordpools/wasnorm_wordpool_576.txt	LTP365	ltpFR2	10	14	APPLE	33	n/a	n/a	0	0	0
3132794	WORD	wordpools/wasnorm_wordpool_576.txt	LTP365	ltpFR2	10	14	STUDENT	1395	n/a	n/a	0	0	0
3135493	WORD	wordpools/wasnorm_wordpool_576.txt	LTP365	ltpFR2	10	14	SANDWICH	1232	n/a	n/a	0	0	0
3138126	WORD	wordpools/wasnorm_wordpool_576.txt	LTP365	ltpFR2	10	14	LUNCH	849	n/a	n/a	0	0	0
3140740	WORD	wordpools/wasnorm_wordpool_576.txt	LTP365	ltpFR2	10	14	YARN	1631	n/a	n/a	0	0	0
3143322	WORD	wordpools/wasnorm_wordpool_576.txt	LTP365	ltpFR2	10	14	MAILBOX	857	n/a	n/a	0	0	0
3145821	WORD	wordpools/wasnorm_wordpool_576.txt	LTP365	ltpFR2	10	14	STAMP	1370	n/a	n/a	0	0	0
3148403	WORD	wordpools/wasnorm_wordpool_576.txt	LTP365	ltpFR2	10	14	CRUTCH	417	n/a	n/a	0	0	0
3151203	WORD	wordpools/wasnorm_wordpool_576.txt	LTP365	ltpFR2	10	14	TUBA	1515	n/a	n/a	0	0	0
3153967	WORD	wordpools/wasnorm_wordpool_576.txt	LTP365	ltpFR2	10	14	MISTER	901	n/a	n/a	0	0	0
3156516	WORD	wordpools/wasnorm_wordpool_576.txt	LTP365	ltpFR2	10	14	HOOK	715	n/a	n/a	0	0	0
3159216	WORD	wordpools/wasnorm_wordpool_576.txt	LTP365	ltpFR2	10	14	LUGGAGE	847	n/a	n/a	0	0	0
3161863	WORD	wordpools/wasnorm_wordpool_576.txt	LTP365	ltpFR2	10	14	CLIMBER	323	n/a	n/a	0	0	0
3164512	WORD	wordpools/wasnorm_wordpool_576.txt	LTP365	ltpFR2	10	14	PIZZA	1079	n/a	n/a	0	0	0
3167062	WORD	wordpools/wasnorm_wordpool_576.txt	LTP365	ltpFR2	10	14	ARM	38	n/a	n/a	0	0	0
3169626	WORD	wordpools/wasnorm_wordpool_576.txt	LTP365	ltpFR2	10	14	GANGSTER	620	n/a	n/a	0	0	0
3172391	WORD	wordpools/wasnorm_wordpool_576.txt	LTP365	ltpFR2	10	14	BUREAU	199	n/a	n/a	0	0	0
3175024	WORD	wordpools/wasnorm_wordpool_576.txt	LTP365	ltpFR2	10	14	WASHER	1592	n/a	n/a	0	0	0
3177622	WORD	wordpools/wasnorm_wordpool_576.txt	LTP365	ltpFR2	10	14	RIFLE	1192	n/a	n/a	0	0	0
3180122	WORD	wordpools/wasnorm_wordpool_576.txt	LTP365	ltpFR2	10	14	BARREL	91	n/a	n/a	0	0	0
3182736	WORD	wordpools/wasnorm_wordpool_576.txt	LTP365	ltpFR2	10	14	BROOK	177	n/a	n/a	0	0	0
3185236	WORD	wordpools/wasnorm_wordpool_576.txt	LTP365	ltpFR2	10	14	TEACHER	1440	n/a	n/a	0	0	0
3188051	WORD	wordpools/wasnorm_wordpool_576.txt	LTP365	ltpFR2	10	14	MUSTARD	935	n/a	n/a	0	0	0
3189666	START	n/a	LTP365	ltpFR2	10	n/a	n/a	n/a	21	n/a	n/a	n/a	n/a
3190516	DISTRACTOR	n/a	LTP365	ltpFR2	10	14	n/a	n/a	n/a	n/a	0	0	0
3190532	PROB	n/a	LTP365	ltpFR2	10	n/a	n/a	n/a	21	22	8	6	8
3192665	PROB	n/a	LTP365	ltpFR2	10	n/a	n/a	n/a	21	18	7	5	6
3194947	PROB	n/a	LTP365	ltpFR2	10	n/a	n/a	n/a	21	15	6	8	1
3198329	PROB	n/a	LTP365	ltpFR2	10	n/a	n/a	n/a	21	17	9	6	2
3200977	PROB	n/a	LTP365	ltpFR2	10	n/a	n/a	n/a	21	8	4	2	2
3202078	PROB	n/a	LTP365	ltpFR2	10	n/a	n/a	n/a	21	16	6	7	3
3203276	PROB	n/a	LTP365	ltpFR2	10	n/a	n/a	n/a	21	16	4	3	9
3205292	PROB	n/a	LTP365	ltpFR2	10	n/a	n/a	n/a	21	12	1	7	4
3206724	PROB	n/a	LTP365	ltpFR2	10	n/a	n/a	n/a	21	17	8	4	5
3208523	PROB	n/a	LTP365	ltpFR2	10	n/a	n/a	n/a	21	13	3	3	7
3209723	PROB	n/a	LTP365	ltpFR2	10	n/a	n/a	n/a	21	10	4	2	4
3211472	PROB	n/a	LTP365	ltpFR2	10	n/a	n/a	n/a	21	13	4	2	7
3213380	STOP	n/a	LTP365	ltpFR2	10	n/a	n/a	n/a	21	n/a	n/a	n/a	n/a
3215572	REC_START	n/a	LTP365	ltpFR2	10	14	n/a	n/a	n/a	n/a	0	0	0
3216395	REC_WORD	wordpools/wasnorm_wordpool_576.txt	LTP365	ltpFR2	10	14	APPLE	33	n/a	n/a	0	0	0
3216812	REC_WORD	wordpools/wasnorm_wordpool_576.txt	LTP365	ltpFR2	10	14	SANDWICH	1232	n/a	n/a	0	0	0
3217545	REC_WORD	wordpools/wasnorm_wordpool_576.txt	LTP365	ltpFR2	10	14	MUSTARD	935	n/a	n/a	0	0	0
3219517	REC_WORD	wordpools/wasnorm_wordpool_576.txt	LTP365	ltpFR2	10	14	LUNCH	849	n/a	n/a	0	0	0
3221362	REC_WORD	wordpools/wasnorm_wordpool_576.txt	LTP365	ltpFR2	10	14	BARREL	91	n/a	n/a	0	0	0
3222016	REC_WORD	wordpools/wasnorm_wordpool_576.txt	LTP365	ltpFR2	10	14	RIFLE	1192	n/a	n/a	0	0	0
3222793	REC_WORD	wordpools/wasnorm_wordpool_576.txt	LTP365	ltpFR2	10	14	WASHER	1592	n/a	n/a	0	0	0
3224132	REC_WORD	wordpools/wasnorm_wordpool_576.txt	LTP365	ltpFR2	10	14	LUGGAGE	847	n/a	n/a	0	0	0
3237463	REC_WORD	wordpools/wasnorm_wordpool_576.txt	LTP365	ltpFR2	10	14	STUDENT	1395	n/a	n/a	0	0	0
3238173	REC_WORD	wordpools/wasnorm_wordpool_576.txt	LTP365	ltpFR2	10	14	TEACHER	1440	n/a	n/a	0	0	0
3241188	REC_WORD	wordpools/wasnorm_wordpool_576.txt	LTP365	ltpFR2	10	14	MAILBOX	857	n/a	n/a	0	0	0
3246479	REC_WORD	wordpools/wasnorm_wordpool_576.txt	LTP365	ltpFR2	10	14	YARN	1631	n/a	n/a	0	0	0
3252355	REC_WORD	wordpools/wasnorm_wordpool_576.txt	LTP365	ltpFR2	10	14	LACE	792	n/a	n/a	0	0	0
3253341	REC_WORD	wordpools/wasnorm_wordpool_576.txt	LTP365	ltpFR2	10	14	APPLE	33	n/a	n/a	0	0	0
3256742	REC_WORD	wordpools/wasnorm_wordpool_576.txt	LTP365	ltpFR2	10	14	CLIMBER	323	n/a	n/a	0	0	0
3258919	REC_WORD	wordpools/wasnorm_wordpool_576.txt	LTP365	ltpFR2	10	14	BROOK	177	n/a	n/a	0	0	0
3265532	REC_WORD	wordpools/wasnorm_wordpool_576.txt	LTP365	ltpFR2	10	14	LAUNDRY	803	n/a	n/a	0	0	0
3306043	WORD	wordpools/wasnorm_wordpool_576.txt	LTP365	ltpFR2	10	15	WRENCH	1625	n/a	n/a	0	0	0
3308807	WORD	wordpools/wasnorm_wordpool_576.txt	LTP365	ltpFR2	10	15	ITEM	746	n/a	n/a	0	0	0
3311439	WORD	wordpools/wasnorm_wordpool_576.txt	LTP365	ltpFR2	10	15	JOURNAL	760	n/a	n/a	0	0	0
3313971	WORD	wordpools/wasnorm_wordpool_576.txt	LTP365	ltpFR2	10	15	MATTRESS	879	n/a	n/a	0	0	0
3316770	WORD	wordpools/wasnorm_wordpool_576.txt	LTP365	ltpFR2	10	15	NIGHTGOWN	953	n/a	n/a	0	0	0
3319568	WORD	wordpools/wasnorm_wordpool_576.txt	LTP365	ltpFR2	10	15	SALT	1229	n/a	n/a	0	0	0
3322101	WORD	wordpools/wasnorm_wordpool_576.txt	LTP365	ltpFR2	10	15	DRESSER	496	n/a	n/a	0	0	0
3324682	WORD	wordpools/wasnorm_wordpool_576.txt	LTP365	ltpFR2	10	15	PARROT	1015	n/a	n/a	0	0	0
3327232	WORD	wordpools/wasnorm_wordpool_576.txt	LTP365	ltpFR2	10	15	SCARF	1246	n/a	n/a	0	0	0
3329747	WORD	wordpools/wasnorm_wordpool_576.txt	LTP365	ltpFR2	10	15	PLASTER	1085	n/a	n/a	0	0	0
3332263	WORD	wordpools/wasnorm_wordpool_576.txt	LTP365	ltpFR2	10	15	WITNESS	1618	n/a	n/a	0	0	0
3334777	WORD	wordpools/wasnorm_wordpool_576.txt	LTP365	ltpFR2	10	15	BEAKER	104	n/a	n/a	0	0	0
3337310	WORD	wordpools/wasnorm_wordpool_576.txt	LTP365	ltpFR2	10	15	HEADBAND	696	n/a	n/a	0	0	0
3339892	WORD	wordpools/wasnorm_wordpool_576.txt	LTP365	ltpFR2	10	15	SMOG	1330	n/a	n/a	0	0	0
3342340	WORD	wordpools/wasnorm_wordpool_576.txt	LTP365	ltpFR2	10	15	FILM	565	n/a	n/a	0	0	0
3344989	WORD	wordpools/wasnorm_wordpool_576.txt	LTP365	ltpFR2	10	15	OUTLAW	989	n/a	n/a	0	0	0
3347571	WORD	wordpools/wasnorm_wordpool_576.txt	LTP365	ltpFR2	10	15	RATTLE	1170	n/a	n/a	0	0	0
3350286	WORD	wordpools/wasnorm_wordpool_576.txt	LTP365	ltpFR2	10	15	HEART	697	n/a	n/a	0	0	0
3353069	WORD	wordpools/wasnorm_wordpool_576.txt	LTP365	ltpFR2	10	15	WASP	1593	n/a	n/a	0	0	0
3355834	WORD	wordpools/wasnorm_wordpool_576.txt	LTP365	ltpFR2	10	15	SOFTBALL	1343	n/a	n/a	0	0	0
3358516	WORD	wordpools/wasnorm_wordpool_576.txt	LTP365	ltpFR2	10	15	HEDGE	699	n/a	n/a	0	0	0
3361298	WORD	wordpools/wasnorm_wordpool_576.txt	LTP365	ltpFR2	10	15	LUMBER	848	n/a	n/a	0	0	0
3363980	WORD	wordpools/wasnorm_wordpool_576.txt	LTP365	ltpFR2	10	15	EUROPE	541	n/a	n/a	0	0	0
3366795	WORD	wordpools/wasnorm_wordpool_576.txt	LTP365	ltpFR2	10	15	JURY	766	n/a	n/a	0	0	0
3368411	START	n/a	LTP365	ltpFR2	10	n/a	n/a	n/a	22	n/a	n/a	n/a	n/a
3369230	DISTRACTOR	n/a	LTP365	ltpFR2	10	15	n/a	n/a	n/a	n/a	0	0	0
3369245	PROB	n/a	LTP365	ltpFR2	10	n/a	n/a	n/a	22	10	1	4	5
3370776	PROB	n/a	LTP365	ltpFR2	10	n/a	n/a	n/a	22	17	2	6	9
3372375	PROB	n/a	LTP365	ltpFR2	10	n/a	n/a	n/a	22	13	3	2	8
3373941	PROB	n/a	LTP365	ltpFR2	10	n/a	n/a	n/a	22	12	5	3	4
3375591	PROB	n/a	LTP365	ltpFR2	10	n/a	n/a	n/a	22	12	2	6	4
3377640	PROB	n/a	LTP365	ltpFR2	10	n/a	n/a	n/a	22	14	2	3	9
3379256	PROB	n/a	LTP365	ltpFR2	10	n/a	n/a	n/a	22	16	6	6	4
3381704	PROB	n/a	LTP365	ltpFR2	10	n/a	n/a	n/a	22	15	3	8	4
3384037	PROB	n/a	LTP365	ltpFR2	10	n/a	n/a	n/a	22	14	9	4	1
3385835	PROB	n/a	LTP365	ltpFR2	10	n/a	n/a	n/a	22	22	9	4	9
3388484	PROB	n/a	LTP365	ltpFR2	10	n/a	n/a	n/a	22	19	9	7	3
3390034	PROB	n/a	LTP365	ltpFR2	10	n/a	n/a	n/a	22	22	9	6	7
3392300	STOP	n/a	LTP365	ltpFR2	10	n/a	n/a	n/a	22	n/a	n/a	n/a	n/a
3394266	REC_START	n/a	LTP365	ltpFR2	10	15	n/a	n/a	n/a	n/a	0	0	0
3394630	REC_WORD	wordpools/wasnorm_wordpool_576.txt	LTP365	ltpFR2	10	15	EUROPE	541	n/a	n/a	0	0	0
3395306	REC_WORD	wordpools/wasnorm_wordpool_576.txt	LTP365	ltpFR2	10	15	JURY	766	n/a	n/a	0	0	0
3395948	REC_WORD	wordpools/wasnorm_wordpool_576.txt	LTP365	ltpFR2	10	15	PLASTER	1085	n/a	n/a	0	0	0
3396714	REC_WORD	wordpools/wasnorm_wordpool_576.txt	LTP365	ltpFR2	10	15	WRENCH	1625	n/a	n/a	0	0	0
3397293	REC_WORD	wordpools/wasnorm_wordpool_576.txt	LTP365	ltpFR2	10	15	WITNESS	1618	n/a	n/a	0	0	0
3397935	REC_WORD	wordpools/wasnorm_wordpool_576.txt	LTP365	ltpFR2	10	15	MATTRESS	879	n/a	n/a	0	0	0
3399373	REC_WORD	wordpools/wasnorm_wordpool_576.txt	LTP365	ltpFR2	10	15	HEDGE	699	n/a	n/a	0	0	0
3400073	REC_WORD	wordpools/wasnorm_wordpool_576.txt	LTP365	ltpFR2	10	15	LUMBER	848	n/a	n/a	0	0	0
3401861	REC_WORD	wordpools/wasnorm_wordpool_576.txt	LTP365	ltpFR2	10	15	NIGHTGOWN	953	n/a	n/a	0	0	0
3402728	REC_WORD	wordpools/wasnorm_wordpool_576.txt	LTP365	ltpFR2	10	15	SCARF	1246	n/a	n/a	0	0	0
3403754	REC_WORD	wordpools/wasnorm_wordpool_576.txt	LTP365	ltpFR2	10	15	DRESSER	496	n/a	n/a	0	0	0
3405063	REC_WORD	wordpools/wasnorm_wordpool_576.txt	LTP365	ltpFR2	10	15	WASP	1593	n/a	n/a	0	0	0
3408226	REC_WORD	wordpools/wasnorm_wordpool_576.txt	LTP365	ltpFR2	10	15	BEAKER	104	n/a	n/a	0	0	0
3410250	REC_WORD	wordpools/wasnorm_wordpool_576.txt	LTP365	ltpFR2	10	15	SALT	1229	n/a	n/a	0	0	0
3413245	REC_WORD	wordpools/wasnorm_wordpool_576.txt	LTP365	ltpFR2	10	15	ITEM	746	n/a	n/a	0	0	0
3416555	REC_WORD	wordpools/wasnorm_wordpool_576.txt	LTP365	ltpFR2	10	15	EUROPE	541	n/a	n/a	0	0	0
3420362	REC_WORD	wordpools/wasnorm_wordpool_576.txt	LTP365	ltpFR2	10	15	RATTLE	1170	n/a	n/a	0	0	0
3423290	REC_WORD	wordpools/wasnorm_wordpool_576.txt	LTP365	ltpFR2	10	15	HEART	697	n/a	n/a	0	0	0
3426614	REC_WORD	wordpools/wasnorm_wordpool_576.txt	LTP365	ltpFR2	10	15	SOFTBALL	1343	n/a	n/a	0	0	0
3430135	REC_WORD	wordpools/wasnorm_wordpool_576.txt	LTP365	ltpFR2	10	15	OUTLAW	989	n/a	n/a	0	0	0
3435923	REC_WORD	wordpools/wasnorm_wordpool_576.txt	LTP365	ltpFR2	10	15	JOURNAL	760	n/a	n/a	0	0	0
3484720	WORD	wordpools/wasnorm_wordpool_576.txt	LTP365	ltpFR2	10	16	JUDGE	761	n/a	n/a	0	0	0
3487385	WORD	wordpools/wasnorm_wordpool_576.txt	LTP365	ltpFR2	10	16	FRIEND	606	n/a	n/a	0	0	0
3490168	WORD	wordpools/wasnorm_wordpool_576.txt	LTP365	ltpFR2	10	16	LADDER	793	n/a	n/a	0	0	0
3492649	WORD	wordpools/wasnorm_wordpool_576.txt	LTP365	ltpFR2	10	16	FOREST	593	n/a	n/a	0	0	0
3495165	WORD	wordpools/wasnorm_wordpool_576.txt	LTP365	ltpFR2	10	16	PLAZA	1088	n/a	n/a	0	0	0
3497663	WORD	wordpools/wasnorm_wordpool_576.txt	LTP365	ltpFR2	10	16	RECEIPT	1173	n/a	n/a	0	0	0
3500113	WORD	wordpools/wasnorm_wordpool_576.txt	LTP365	ltpFR2	10	16	MILK	895	n/a	n/a	0	0	0
3502544	WORD	wordpools/wasnorm_wordpool_576.txt	LTP365	ltpFR2	10	16	FOOT	590	n/a	n/a	0	0	0
3505343	WORD	wordpools/wasnorm_wordpool_576.txt	LTP365	ltpFR2	10	16	TWIG	1527	n/a	n/a	0	0	0
3507875	WORD	wordpools/wasnorm_wordpool_576.txt	LTP365	ltpFR2	10	16	BUCKET	184	n/a	n/a	0	0	0
3510640	WORD	wordpools/wasnorm_wordpool_576.txt	LTP365	ltpFR2	10	16	KITCHEN	778	n/a	n/a	0	0	0
3513405	WORD	wordpools/wasnorm_wordpool_576.txt	LTP365	ltpFR2	10	16	PICNIC	1060	n/a	n/a	0	0	0
3516072	WORD	wordpools/wasnorm_wordpool_576.txt	LTP365	ltpFR2	10	16	SAUSAGE	1238	n/a	n/a	0	0	0
3518903	WORD	wordpools/wasnorm_wordpool_576.txt	LTP365	ltpFR2	10	16	TURNIP	1521	n/a	n/a	0	0	0
3521351	WORD	wordpools/wasnorm_wordpool_576.txt	LTP365	ltpFR2	10	16	WAITRESS	1581	n/a	n/a	0	0	0
3523984	WORD	wordpools/wasnorm_wordpool_576.txt	LTP365	ltpFR2	10	16	HOSTESS	723	n/a	n/a	0	0	0
3526466	WORD	wordpools/wasnorm_wordpool_576.txt	LTP365	ltpFR2	10	16	VELVET	1555	n/a	n/a	0	0	0
3529132	WORD	wordpools/wasnorm_wordpool_576.txt	LTP365	ltpFR2	10	16	DIVER	476	n/a	n/a	0	0	0
3531846	WORD	wordpools/wasnorm_wordpool_576.txt	LTP365	ltpFR2	10	16	SLIDE	1326	n/a	n/a	0	0	0
3534362	WORD	wordpools/wasnorm_wordpool_576.txt	LTP365	ltpFR2	10	16	MUFFIN	929	n/a	n/a	0	0	0
3537095	WORD	wordpools/wasnorm_wordpool_576.txt	LTP365	ltpFR2	10	16	FRANCE	601	n/a	n/a	0	0	0
3539826	WORD	wordpools/wasnorm_wordpool_576.txt	LTP365	ltpFR2	10	16	GARLIC	624	n/a	n/a	0	0	0
3542391	WORD	wordpools/wasnorm_wordpool_576.txt	LTP365	ltpFR2	10	16	GIRL	637	n/a	n/a	0	0	0
3545074	WORD	wordpools/wasnorm_wordpool_576.txt	LTP365	ltpFR2	10	16	WHISTLE	1606	n/a	n/a	0	0	0
3546689	START	n/a	LTP365	ltpFR2	10	n/a	n/a	n/a	23	n/a	n/a	n/a	n/a
3547848	DISTRACTOR	n/a	LTP365	ltpFR2	10	16	n/a	n/a	n/a	n/a	0	0	0
3547855	PROB	n/a	LTP365	ltpFR2	10	n/a	n/a	n/a	23	17	6	6	5
3549737	PROB	n/a	LTP365	ltpFR2	10	n/a	n/a	n/a	23	14	4	8	2
3551188	PROB	n/a	LTP365	ltpFR2	10	n/a	n/a	n/a	23	10	6	1	3
3552703	PROB	n/a	LTP365	ltpFR2	10	n/a	n/a	n/a	23	9	1	4	4
3554002	PROB	n/a	LTP365	ltpFR2	10	n/a	n/a	n/a	23	6	3	2	1
3556152	PROB	n/a	LTP365	ltpFR2	10	n/a	n/a	n/a	23	15	5	4	6
3557617	PROB	n/a	LTP365	ltpFR2	10	n/a	n/a	n/a	23	22	9	5	8
3559649	PROB	n/a	LTP365	ltpFR2	10	n/a	n/a	n/a	23	17	7	8	2
3561049	PROB	n/a	LTP365	ltpFR2	10	n/a	n/a	n/a	23	15	8	4	1
3562548	PROB	n/a	LTP365	ltpFR2	10	n/a	n/a	n/a	23	12	1	6	5
3564480	PROB	n/a	LTP365	ltpFR2	10	n/a	n/a	n/a	23	15	7	5	3
3566080	PROB	n/a	LTP365	ltpFR2	10	n/a	n/a	n/a	23	19	9	2	8
3567329	PROB	n/a	LTP365	ltpFR2	10	n/a	n/a	n/a	23	19	2	9	8
3569524	STOP	n/a	LTP365	ltpFR2	10	n/a	n/a	n/a	23	n/a	n/a	n/a	n/a
3572560	REC_START	n/a	LTP365	ltpFR2	10	16	n/a	n/a	n/a	n/a	0	0	0
3573426	REC_WORD	wordpools/wasnorm_wordpool_576.txt	LTP365	ltpFR2	10	16	HOSTESS	723	n/a	n/a	0	0	0
3574528	REC_WORD	wordpools/wasnorm_wordpool_576.txt	LTP365	ltpFR2	10	16	WAITRESS	1581	n/a	n/a	0	0	0
3575449	REC_WORD	wordpools/wasnorm_wordpool_576.txt	LTP365	ltpFR2	10	16	GIRL	637	n/a	n/a	0	0	0
3576201	REC_WORD	wordpools/wasnorm_wordpool_576.txt	LTP365	ltpFR2	10	16	PICNIC	1060	n/a	n/a	0	0	0
3576934	REC_WORD	wordpools/wasnorm_wordpool_576.txt	LTP365	ltpFR2	10	16	KITCHEN	778	n/a	n/a	0	0	0
3577708	REC_WORD	wordpools/wasnorm_wordpool_576.txt	LTP365	ltpFR2	10	16	GARLIC	624	n/a	n/a	0	0	0
3582741	REC_WORD	wordpools/wasnorm_wordpool_576.txt	LTP365	ltpFR2	10	16	JUDGE	761	n/a	n/a	0	0	0
3583650	REC_WORD	wordpools/wasnorm_wordpool_576.txt	LTP365	ltpFR2	10	16	FRIEND	606	n/a	n/a	0	0	0
3585266	REC_WORD	wordpools/wasnorm_wordpool_576.txt	LTP365	ltpFR2	10	16	LADDER	793	n/a	n/a	0	0	0
3586038	REC_WORD	wordpools/wasnorm_wordpool_576.txt	LTP365	ltpFR2	10	16	FOREST	593	n/a	n/a	0	0	0
3587063	REC_WORD	wordpools/wasnorm_wordpool_576.txt	LTP365	ltpFR2	10	16	PLAZA	1088	n/a	n/a	0	0	0
3589624	REC_WORD	wordpools/wasnorm_wordpool_576.txt	LTP365	ltpFR2	10	16	MILK	895	n/a	n/a	0	0	0
3590473	REC_WORD	wordpools/wasnorm_wordpool_576.txt	LTP365	ltpFR2	10	16	RECEIPT	1173	n/a	n/a	0	0	0
3592372	REC_WORD	wordpools/wasnorm_wordpool_576.txt	LTP365	ltpFR2	10	16	TWIG	1527	n/a	n/a	0	0	0
3593275	REC_WORD	wordpools/wasnorm_wordpool_576.txt	LTP365	ltpFR2	10	16	FOOT	590	n/a	n/a	0	0	0
3594186	REC_WORD	wordpools/wasnorm_wordpool_576.txt	LTP365	ltpFR2	10	16	SAUSAGE	1238	n/a	n/a	0	0	0
3595313	REC_WORD	wordpools/wasnorm_wordpool_576.txt	LTP365	ltpFR2	10	16	RADISH	1158	n/a	n/a	0	0	0
3649106	REST_REWET	n/a	LTP365	ltpFR2	10	16	n/a	n/a	n/a	n/a	0	0	0
3746506	WORD	wordpools/wasnorm_wordpool_576.txt	LTP365	ltpFR2	10	17	CATCHER	258	n/a	n/a	0	0	0
3749156	WORD	wordpools/wasnorm_wordpool_576.txt	LTP365	ltpFR2	10	17	THRONE	1461	n/a	n/a	0	0	0
3751704	WORD	wordpools/wasnorm_wordpool_576.txt	LTP365	ltpFR2	10	17	SHARK	1275	n/a	n/a	0	0	0
3754137	WORD	wordpools/wasnorm_wordpool_576.txt	LTP365	ltpFR2	10	17	STONE	1385	n/a	n/a	0	0	0
3756801	WORD	wordpools/wasnorm_wordpool_576.txt	LTP365	ltpFR2	10	17	APRON	35	n/a	n/a	0	0	0
3759317	WORD	wordpools/wasnorm_wordpool_576.txt	LTP365	ltpFR2	10	17	FLOWER	584	n/a	n/a	0	0	0
3762116	WORD	wordpools/wasnorm_wordpool_576.txt	LTP365	ltpFR2	10	17	DANDRUFF	439	n/a	n/a	0	0	0
3764831	WORD	wordpools/wasnorm_wordpool_576.txt	LTP365	ltpFR2	10	17	ATOM	55	n/a	n/a	0	0	0
3767379	WORD	wordpools/wasnorm_wordpool_576.txt	LTP365	ltpFR2	10	17	CAMEL	223	n/a	n/a	0	0	0
3769828	WORD	wordpools/wasnorm_wordpool_576.txt	LTP365	ltpFR2	10	17	CIGAR	308	n/a	n/a	0	0	0
3772610	WORD	wordpools/wasnorm_wordpool_576.txt	LTP365	ltpFR2	10	17	BODY	145	n/a	n/a	0	0	0
3775210	WORD	wordpools/wasnorm_wordpool_576.txt	LTP365	ltpFR2	10	17	PUPPY	1144	n/a	n/a	0	0	0
3777891	WORD	wordpools/wasnorm_wordpool_576.txt	LTP365	ltpFR2	10	17	SUMMIT	1405	n/a	n/a	0	0	0
3780589	WORD	wordpools/wasnorm_wordpool_576.txt	LTP365	ltpFR2	10	17	CANYON	235	n/a	n/a	0	0	0
3783206	WORD	wordpools/wasnorm_wordpool_576.txt	LTP365	ltpFR2	10	17	BACKBONE	66	n/a	n/a	0	0	0
3785770	WORD	wordpools/wasnorm_wordpool_576.txt	LTP365	ltpFR2	10	17	CARRIAGE	248	n/a	n/a	0	0	0
3788220	WORD	wordpools/wasnorm_wordpool_576.txt	LTP365	ltpFR2	10	17	CHILD	299	n/a	n/a	0	0	0
3790651	WORD	wordpools/wasnorm_wordpool_576.txt	LTP365	ltpFR2	10	17	SURVEY	1414	n/a	n/a	0	0	0
3793350	WORD	wordpools/wasnorm_wordpool_576.txt	LTP365	ltpFR2	10	17	SPOOL	1356	n/a	n/a	0	0	0
3795932	WORD	wordpools/wasnorm_wordpool_576.txt	LTP365	ltpFR2	10	17	LEADER	807	n/a	n/a	0	0	0
3798564	WORD	wordpools/wasnorm_wordpool_576.txt	LTP365	ltpFR2	10	17	SCARECROW	1245	n/a	n/a	0	0	0
3801047	WORD	wordpools/wasnorm_wordpool_576.txt	LTP365	ltpFR2	10	17	THREAD	1460	n/a	n/a	0	0	0
3803711	WORD	wordpools/wasnorm_wordpool_576.txt	LTP365	ltpFR2	10	17	GARBAGE	622	n/a	n/a	0	0	0
3806393	WORD	wordpools/wasnorm_wordpool_576.txt	LTP365	ltpFR2	10	17	GRAPE	654	n/a	n/a	0	0	0
3808010	START	n/a	LTP365	ltpFR2	10	n/a	n/a	n/a	24	n/a	n/a	n/a	n/a
3809154	DISTRACTOR	n/a	LTP365	ltpFR2	10	17	n/a	n/a	n/a	n/a	0	0	0
3809160	PROB	n/a	LTP365	ltpFR2	10	n/a	n/a	n/a	24	11	5	2	4
3810674	PROB	n/a	LTP365	ltpFR2	10	n/a	n/a	n/a	24	10	1	7	2
3811874	PROB	n/a	LTP365	ltpFR2	10	n/a	n/a	n/a	24	11	1	6	4
3813556	PROB	n/a	LTP365	ltpFR2	10	n/a	n/a	n/a	24	14	4	1	9
3814872	PROB	n/a	LTP365	ltpFR2	10	n/a	n/a	n/a	24	17	9	5	3
3817222	PROB	n/a	LTP365	ltpFR2	10	n/a	n/a	n/a	24	13	1	3	9
3818571	PROB	n/a	LTP365	ltpFR2	10	n/a	n/a	n/a	24	12	4	7	1
3820320	PROB	n/a	LTP365	ltpFR2	10	n/a	n/a	n/a	24	22	9	9	4
3822585	PROB	n/a	LTP365	ltpFR2	10	n/a	n/a	n/a	24	22	8	9	5
3824667	PROB	n/a	LTP365	ltpFR2	10	n/a	n/a	n/a	24	20	2	9	9
3826667	PROB	n/a	LTP365	ltpFR2	10	n/a	n/a	n/a	24	18	7	5	6
3828449	PROB	n/a	LTP365	ltpFR2	10	n/a	n/a	n/a	24	17	6	9	2
3830700	STOP	n/a	LTP365	ltpFR2	10	n/a	n/a	n/a	24	n/a	n/a	n/a	n/a
3833897	REC_START	n/a	LTP365	ltpFR2	10	17	n/a	n/a	n/a	n/a	0	0	0
3835368	REC_WORD	wordpools/wasnorm_wordpool_576.txt	LTP365	ltpFR2	10	17	GARBAGE	622	n/a	n/a	0	0	0
3836131	REC_WORD	wordpools/wasnorm_wordpool_576.txt	LTP365	ltpFR2	10	17	GRAPE	654	n/a	n/a	0	0	0
3836698	REC_WORD	wordpools/wasnorm_wordpool_576.txt	LTP365	ltpFR2	10	17	CAMEL	223	n/a	n/a	0	0	0
3837242	REC_WORD	wordpools/wasnorm_wordpool_576.txt	LTP365	ltpFR2	10	17	CIGAR	308	n/a	n/a	0	0	0
3838130	REC_WORD	wordpools/wasnorm_wordpool_576.txt	LTP365	ltpFR2	10	17	CATCHER	258	n/a	n/a	0	0	0
3839643	REC_WORD	wordpools/wasnorm_wordpool_576.txt	LTP365	ltpFR2	10	17	BACKBONE	66	n/a	n/a	0	0	0
3840662	REC_WORD	wordpools/wasnorm_wordpool_576.txt	LTP365	ltpFR2	10	17	ATOM	55	n/a	n/a	0	0	0
3844171	REC_WORD	wordpools/wasnorm_wordpool_576.txt	LTP365	ltpFR2	10	17	SHARK	1275	n/a	n/a	0	0	0
3845282	REC_WORD	wordpools/wasnorm_wordpool_576.txt	LTP365	ltpFR2	10	17	SCARECROW	1245	n/a	n/a	0	0	0
3846547	REC_WORD	wordpools/wasnorm_wordpool_576.txt	LTP365	ltpFR2	10	17	LEADER	807	n/a	n/a	0	0	0
3849074	REC_WORD	wordpools/wasnorm_wordpool_576.txt	LTP365	ltpFR2	10	17	SPOOL	1356	n/a	n/a	0	0	0
3851168	REC_WORD	wordpools/wasnorm_wordpool_576.txt	LTP365	ltpFR2	10	17	SUMMIT	1405	n/a	n/a	0	0	0
3852708	REC_WORD	wordpools/wasnorm_wordpool_576.txt	LTP365	ltpFR2	10	17	CANYON	235	n/a	n/a	0	0	0
3855501	REC_WORD	wordpools/wasnorm_wordpool_576.txt	LTP365	ltpFR2	10	17	SURVEY	1414	n/a	n/a	0	0	0
3858600	REC_WORD	wordpools/wasnorm_wordpool_576.txt	LTP365	ltpFR2	10	17	PUPPY	1144	n/a	n/a	0	0	0
3859449	REC_WORD	wordpools/wasnorm_wordpool_576.txt	LTP365	ltpFR2	10	17	CHILD	299	n/a	n/a	0	0	0
3874773	REC_WORD	wordpools/wasnorm_wordpool_576.txt	LTP365	ltpFR2	10	17	APRON	35	n/a	n/a	0	0	0
3879310	REC_WORD	wordpools/wasnorm_wordpool_576.txt	LTP365	ltpFR2	10	17	FLOWER	584	n/a	n/a	0	0	0
3892066	REC_WORD	wordpools/wasnorm_wordpool_576.txt	LTP365	ltpFR2	10	17	BODY	145	n/a	n/a	0	0	0
3924335	DISTRACTOR	n/a	LTP365	ltpFR2	10	18	n/a	n/a	n/a	n/a	0	0	0
3924335	START	n/a	LTP365	ltpFR2	10	n/a	n/a	n/a	25	n/a	n/a	n/a	n/a
3924351	PROB	n/a	LTP365	ltpFR2	10	n/a	n/a	n/a	25	16	6	7	3
3925701	PROB	n/a	LTP365	ltpFR2	10	n/a	n/a	n/a	25	15	5	3	7
3927018	PROB	n/a	LTP365	ltpFR2	10	n/a	n/a	n/a	25	22	7	9	6
3929100	PROB	n/a	LTP365	ltpFR2	10	n/a	n/a	n/a	25	13	3	9	1
3930432	PROB	n/a	LTP365	ltpFR2	10	n/a	n/a	n/a	25	8	1	1	6
3931614	PROB	n/a	LTP365	ltpFR2	10	n/a	n/a	n/a	25	7	3	1	3
3933947	PROB	n/a	LTP365	ltpFR2	10	n/a	n/a	n/a	25	14	4	5	5
3935197	PROB	n/a	LTP365	ltpFR2	10	n/a	n/a	n/a	25	16	3	6	7
3936928	PROB	n/a	LTP365	ltpFR2	10	n/a	n/a	n/a	25	20	8	9	3
3938594	PROB	n/a	LTP365	ltpFR2	10	n/a	n/a	n/a	25	15	6	6	3
3940427	PROB	n/a	LTP365	ltpFR2	10	n/a	n/a	n/a	25	21	8	5	9
3942626	PROB	n/a	LTP365	ltpFR2	10	n/a	n/a	n/a	25	19	9	7	3
3944741	PROB	n/a	LTP365	ltpFR2	10	n/a	n/a	n/a	25	13	4	6	3
3946242	PROB	n/a	LTP365	ltpFR2	10	n/a	n/a	n/a	25	21	9	8	4
3948229	STOP	n/a	LTP365	ltpFR2	10	n/a	n/a	n/a	25	n/a	n/a	n/a	n/a
3949322	WORD	wordpools/wasnorm_wordpool_576.txt	LTP365	ltpFR2	10	18	BANK	83	n/a	n/a	0	0	0
3951888	WORD	wordpools/wasnorm_wordpool_576.txt	LTP365	ltpFR2	10	18	BEAST	108	n/a	n/a	0	0	0
3954470	WORD	wordpools/wasnorm_wordpool_576.txt	LTP365	ltpFR2	10	18	HORSE	719	n/a	n/a	0	0	0
3957086	WORD	wordpools/wasnorm_wordpool_576.txt	LTP365	ltpFR2	10	18	STALLION	1369	n/a	n/a	0	0	0
3959800	WORD	wordpools/wasnorm_wordpool_576.txt	LTP365	ltpFR2	10	18	LION	827	n/a	n/a	0	0	0
3962316	WORD	wordpools/wasnorm_wordpool_576.txt	LTP365	ltpFR2	10	18	ROOSTER	1209	n/a	n/a	0	0	0
3964765	WORD	wordpools/wasnorm_wordpool_576.txt	LTP365	ltpFR2	10	18	TART	1436	n/a	n/a	0	0	0
3967463	WORD	wordpools/wasnorm_wordpool_576.txt	LTP365	ltpFR2	10	18	PERMIT	1051	n/a	n/a	0	0	0
3970163	WORD	wordpools/wasnorm_wordpool_576.txt	LTP365	ltpFR2	10	18	CUSTARD	429	n/a	n/a	0	0	0
3972644	WORD	wordpools/wasnorm_wordpool_576.txt	LTP365	ltpFR2	10	18	TROMBONE	1508	n/a	n/a	0	0	0
3975144	WORD	wordpools/wasnorm_wordpool_576.txt	LTP365	ltpFR2	10	18	FOREHEAD	592	n/a	n/a	0	0	0
3977708	WORD	wordpools/wasnorm_wordpool_576.txt	LTP365	ltpFR2	10	18	MARROW	872	n/a	n/a	0	0	0
3980340	WORD	wordpools/wasnorm_wordpool_576.txt	LTP365	ltpFR2	10	18	BUBBLE	183	n/a	n/a	0	0	0
3982989	WORD	wordpools/wasnorm_wordpool_576.txt	LTP365	ltpFR2	10	18	OUTDOORS	987	n/a	n/a	0	0	0
3985721	WORD	wordpools/wasnorm_wordpool_576.txt	LTP365	ltpFR2	10	18	WARDROBE	1587	n/a	n/a	0	0	0
3988420	WORD	wordpools/wasnorm_wordpool_576.txt	LTP365	ltpFR2	10	18	AGENT	10	n/a	n/a	0	0	0
3991019	WORD	wordpools/wasnorm_wordpool_576.txt	LTP365	ltpFR2	10	18	SWAMP	1416	n/a	n/a	0	0	0
3993517	WORD	wordpools/wasnorm_wordpool_576.txt	LTP365	ltpFR2	10	18	UMPIRE	1535	n/a	n/a	0	0	0
3996250	WORD	wordpools/wasnorm_wordpool_576.txt	LTP365	ltpFR2	10	18	JELLO	754	n/a	n/a	0	0	0
3998981	WORD	wordpools/wasnorm_wordpool_576.txt	LTP365	ltpFR2	10	18	LAPEL	800	n/a	n/a	0	0	0
4001463	WORD	wordpools/wasnorm_wordpool_576.txt	LTP365	ltpFR2	10	18	TRENCH	1503	n/a	n/a	0	0	0
4004063	WORD	wordpools/wasnorm_wordpool_576.txt	LTP365	ltpFR2	10	18	SHORTS	1293	n/a	n/a	0	0	0
4006760	WORD	wordpools/wasnorm_wordpool_576.txt	LTP365	ltpFR2	10	18	TOMBSTONE	1478	n/a	n/a	0	0	0
4009326	WORD	wordpools/wasnorm_wordpool_576.txt	LTP365	ltpFR2	10	18	BOX	159	n/a	n/a	0	0	0
4010942	START	n/a	LTP365	ltpFR2	10	n/a	n/a	n/a	26	n/a	n/a	n/a	n/a
4011918	DISTRACTOR	n/a	LTP365	ltpFR2	10	18	n/a	n/a	n/a	n/a	0	0	0
4011925	PROB	n/a	LTP365	ltpFR2	10	n/a	n/a	n/a	26	21	4	9	8
4015157	PROB	n/a	LTP365	ltpFR2	10	n/a	n/a	n/a	26	15	3	6	6
4016889	PROB	n/a	LTP365	ltpFR2	10	n/a	n/a	n/a	26	12	7	2	3
4018256	PROB	n/a	LTP365	ltpFR2	10	n/a	n/a	n/a	26	12	4	7	1
4019837	PROB	n/a	LTP365	ltpFR2	10	n/a	n/a	n/a	26	17	2	8	7
4021487	PROB	n/a	LTP365	ltpFR2	10	n/a	n/a	n/a	26	22	6	9	7
4023969	PROB	n/a	LTP365	ltpFR2	10	n/a	n/a	n/a	26	15	9	5	1
4025718	PROB	n/a	LTP365	ltpFR2	10	n/a	n/a	n/a	26	17	6	7	4
4027900	PROB	n/a	LTP365	ltpFR2	10	n/a	n/a	n/a	26	13	6	2	5
4030250	PROB	n/a	LTP365	ltpFR2	10	n/a	n/a	n/a	26	8	4	3	1
4032298	PROB	n/a	LTP365	ltpFR2	10	n/a	n/a	n/a	26	8	2	3	3
4033740	STOP	n/a	LTP365	ltpFR2	10	n/a	n/a	n/a	26	n/a	n/a	n/a	n/a
4036763	REC_START	n/a	LTP365	ltpFR2	10	18	n/a	n/a	n/a	n/a	0	0	0
4037434	REC_WORD	wordpools/wasnorm_wordpool_576.txt	LTP365	ltpFR2	10	18	TOMBSTONE	1478	n/a	n/a	0	0	0
4038715	REC_WORD	wordpools/wasnorm_wordpool_576.txt	LTP365	ltpFR2	10	18	BANK	83	n/a	n/a	0	0	0
4039283	REC_WORD	wordpools/wasnorm_wordpool_576.txt	LTP365	ltpFR2	10	18	SUSPECT	1415	n/a	n/a	0	0	0
4043386	REC_WORD	wordpools/wasnorm_wordpool_576.txt	LTP365	ltpFR2	10	18	MARROW	872	n/a	n/a	0	0	0
4044461	REC_WORD	wordpools/wasnorm_wordpool_576.txt	LTP365	ltpFR2	10	18	BUBBLE	183	n/a	n/a	0	0	0
4052322	REC_WORD	wordpools/wasnorm_wordpool_576.txt	LTP365	ltpFR2	10	18	ROOSTER	1209	n/a	n/a	0	0	0
4127235	WORD	wordpools/wasnorm_wordpool_576.txt	LTP365	ltpFR2	10	19	PLAYGROUND	1087	n/a	n/a	0	0	0
4129916	WORD	wordpools/wasnorm_wordpool_576.txt	LTP365	ltpFR2	10	19	TRIBE	1505	n/a	n/a	0	0	0
4132515	WORD	wordpools/wasnorm_wordpool_576.txt	LTP365	ltpFR2	10	19	OUTFIT	988	n/a	n/a	0	0	0
4135264	WORD	wordpools/wasnorm_wordpool_576.txt	LTP365	ltpFR2	10	19	GRAVEL	659	n/a	n/a	0	0	0
4137695	WORD	wordpools/wasnorm_wordpool_576.txt	LTP365	ltpFR2	10	19	COURSE	390	n/a	n/a	0	0	0
4140245	WORD	wordpools/wasnorm_wordpool_576.txt	LTP365	ltpFR2	10	19	QUARTER	1148	n/a	n/a	0	0	0
4142743	WORD	wordpools/wasnorm_wordpool_576.txt	LTP365	ltpFR2	10	19	LASER	801	n/a	n/a	0	0	0
4145358	WORD	wordpools/wasnorm_wordpool_576.txt	LTP365	ltpFR2	10	19	LAMP	798	n/a	n/a	0	0	0
4147874	WORD	wordpools/wasnorm_wordpool_576.txt	LTP365	ltpFR2	10	19	HORNET	718	n/a	n/a	0	0	0
4150439	WORD	wordpools/wasnorm_wordpool_576.txt	LTP365	ltpFR2	10	19	SCALLOP	1242	n/a	n/a	0	0	0
4153089	WORD	wordpools/wasnorm_wordpool_576.txt	LTP365	ltpFR2	10	19	COLLEGE	346	n/a	n/a	0	0	0
4155870	WORD	wordpools/wasnorm_wordpool_576.txt	LTP365	ltpFR2	10	19	CONCERT	360	n/a	n/a	0	0	0
4158652	WORD	wordpools/wasnorm_wordpool_576.txt	LTP365	ltpFR2	10	19	FIREMAN	569	n/a	n/a	0	0	0
4161218	WORD	wordpools/wasnorm_wordpool_576.txt	LTP365	ltpFR2	10	19	SODA	1341	n/a	n/a	0	0	0
4163966	WORD	wordpools/wasnorm_wordpool_576.txt	LTP365	ltpFR2	10	19	ORCHID	982	n/a	n/a	0	0	0
4166614	WORD	wordpools/wasnorm_wordpool_576.txt	LTP365	ltpFR2	10	19	SLUG	1329	n/a	n/a	0	0	0
4169047	WORD	wordpools/wasnorm_wordpool_576.txt	LTP365	ltpFR2	10	19	DRESS	495	n/a	n/a	0	0	0
4171562	WORD	wordpools/wasnorm_wordpool_576.txt	LTP365	ltpFR2	10	19	COUNTRY	388	n/a	n/a	0	0	0
4174377	WORD	wordpools/wasnorm_wordpool_576.txt	LTP365	ltpFR2	10	19	DANCER	437	n/a	n/a	0	0	0
4176943	WORD	wordpools/wasnorm_wordpool_576.txt	LTP365	ltpFR2	10	19	HONEY	713	n/a	n/a	0	0	0
4179708	WORD	wordpools/wasnorm_wordpool_576.txt	LTP365	ltpFR2	10	19	SNAKE	1333	n/a	n/a	0	0	0
4182141	WORD	wordpools/wasnorm_wordpool_576.txt	LTP365	ltpFR2	10	19	DENIM	446	n/a	n/a	0	0	0
4184922	WORD	wordpools/wasnorm_wordpool_576.txt	LTP365	ltpFR2	10	19	POCKET	1093	n/a	n/a	0	0	0
4187621	WORD	wordpools/wasnorm_wordpool_576.txt	LTP365	ltpFR2	10	19	GUITAR	670	n/a	n/a	0	0	0
4189238	START	n/a	LTP365	ltpFR2	10	n/a	n/a	n/a	27	n/a	n/a	n/a	n/a
4190406	DISTRACTOR	n/a	LTP365	ltpFR2	10	19	n/a	n/a	n/a	n/a	0	0	0
4190419	PROB	n/a	LTP365	ltpFR2	10	n/a	n/a	n/a	27	13	3	4	6
4192302	PROB	n/a	LTP365	ltpFR2	10	n/a	n/a	n/a	27	14	8	5	1
4193768	PROB	n/a	LTP365	ltpFR2	10	n/a	n/a	n/a	27	8	2	1	5
4194934	PROB	n/a	LTP365	ltpFR2	10	n/a	n/a	n/a	27	18	5	9	4
4196716	PROB	n/a	LTP365	ltpFR2	10	n/a	n/a	n/a	27	13	2	6	5
4198682	PROB	n/a	LTP365	ltpFR2	10	n/a	n/a	n/a	27	24	8	8	8
4200149	PROB	n/a	LTP365	ltpFR2	10	n/a	n/a	n/a	27	12	7	4	1
4202880	PROB	n/a	LTP365	ltpFR2	10	n/a	n/a	n/a	27	16	8	2	6
4204130	PROB	n/a	LTP365	ltpFR2	10	n/a	n/a	n/a	27	21	7	5	9
4207262	PROB	n/a	LTP365	ltpFR2	10	n/a	n/a	n/a	27	17	7	3	7
4209327	PROB	n/a	LTP365	ltpFR2	10	n/a	n/a	n/a	27	16	5	5	6
4210743	PROB	n/a	LTP365	ltpFR2	10	n/a	n/a	n/a	27	15	7	7	1
4212197	STOP	n/a	LTP365	ltpFR2	10	n/a	n/a	n/a	27	n/a	n/a	n/a	n/a
4215025	REC_START	n/a	LTP365	ltpFR2	10	19	n/a	n/a	n/a	n/a	0	0	0
4215578	REC_WORD	wordpools/wasnorm_wordpool_576.txt	LTP365	ltpFR2	10	19	POCKET	1093	n/a	n/a	0	0	0
4216359	REC_WORD	wordpools/wasnorm_wordpool_576.txt	LTP365	ltpFR2	10	19	DENIM	446	n/a	n/a	0	0	0
4218787	REC_WORD	wordpools/wasnorm_wordpool_576.txt	LTP365	ltpFR2	10	19	DRESS	495	n/a	n/a	0	0	0
4221019	REC_WORD	wordpools/wasnorm_wordpool_576.txt	LTP365	ltpFR2	10	19	OUTFIT	988	n/a	n/a	0	0	0
4222527	REC_WORD	wordpools/wasnorm_wordpool_576.txt	LTP365	ltpFR2	10	19	COURSE	390	n/a	n/a	0	0	0
4223450	REC_WORD	wordpools/wasnorm_wordpool_576.txt	LTP365	ltpFR2	10	19	PLAYGROUND	1087	n/a	n/a	0	0	0
4224572	REC_WORD	wordpools/wasnorm_wordpool_576.txt	LTP365	ltpFR2	10	19	GRAVEL	659	n/a	n/a	0	0	0
4226215	REC_WORD	wordpools/wasnorm_wordpool_576.txt	LTP365	ltpFR2	10	19	QUARTER	1148	n/a	n/a	0	0	0
4226951	REC_WORD	wordpools/wasnorm_wordpool_576.txt	LTP365	ltpFR2	10	19	LASER	801	n/a	n/a	0	0	0
4229045	REC_WORD	wordpools/wasnorm_wordpool_576.txt	LTP365	ltpFR2	10	19	TRIBE	1505	n/a	n/a	0	0	0
4232445	REC_WORD	wordpools/wasnorm_wordpool_576.txt	LTP365	ltpFR2	10	19	SLUG	1329	n/a	n/a	0	0	0
4233476	REC_WORD	wordpools/wasnorm_wordpool_576.txt	LTP365	ltpFR2	10	19	SNAKE	1333	n/a	n/a	0	0	0
4234582	REC_WORD	wordpools/wasnorm_wordpool_576.txt	LTP365	ltpFR2	10	19	HONEY	713	n/a	n/a	0	0	0
4241308	REC_WORD	wordpools/wasnorm_wordpool_576.txt	LTP365	ltpFR2	10	19	TULIP	1517	n/a	n/a	0	0	0
4245468	REC_WORD	wordpools/wasnorm_wordpool_576.txt	LTP365	ltpFR2	10	19	LAMP	798	n/a	n/a	0	0	0
4249320	REC_WORD	wordpools/wasnorm_wordpool_576.txt	LTP365	ltpFR2	10	19	SODA	1341	n/a	n/a	0	0	0
4254301	REC_WORD	wordpools/wasnorm_wordpool_576.txt	LTP365	ltpFR2	10	19	COLLEGE	346	n/a	n/a	0	0	0
4256582	REC_WORD	wordpools/wasnorm_wordpool_576.txt	LTP365	ltpFR2	10	19	DANCER	437	n/a	n/a	0	0	0
4257979	REC_WORD	wordpools/wasnorm_wordpool_576.txt	LTP365	ltpFR2	10	19	CONCERT	360	n/a	n/a	0	0	0
4305462	DISTRACTOR	n/a	LTP365	ltpFR2	10	20	n/a	n/a	n/a	n/a	0	0	0
4305462	START	n/a	LTP365	ltpFR2	10	n/a	n/a	n/a	28	n/a	n/a	n/a	n/a
4305479	PROB	n/a	LTP365	ltpFR2	10	n/a	n/a	n/a	28	4	1	2	1
4306778	PROB	n/a	LTP365	ltpFR2	10	n/a	n/a	n/a	28	19	2	9	8
4309310	PROB	n/a	LTP365	ltpFR2	10	n/a	n/a	n/a	28	13	6	3	4
4311077	PROB	n/a	LTP365	ltpFR2	10	n/a	n/a	n/a	28	18	7	2	9
4312892	PROB	n/a	LTP365	ltpFR2	10	n/a	n/a	n/a	28	13	4	7	2
4316373	PROB	n/a	LTP365	ltpFR2	10	n/a	n/a	n/a	28	16	6	8	2
4317606	PROB	n/a	LTP365	ltpFR2	10	n/a	n/a	n/a	28	20	8	6	6
4320288	PROB	n/a	LTP365	ltpFR2	10	n/a	n/a	n/a	28	11	2	4	5
4322022	PROB	n/a	LTP365	ltpFR2	10	n/a	n/a	n/a	28	20	4	9	7
4324270	PROB	n/a	LTP365	ltpFR2	10	n/a	n/a	n/a	28	24	9	6	9
4326652	PROB	n/a	LTP365	ltpFR2	10	n/a	n/a	n/a	28	16	3	6	7
4328173	STOP	n/a	LTP365	ltpFR2	10	n/a	n/a	n/a	28	n/a	n/a	n/a	n/a
4330666	WORD	wordpools/wasnorm_wordpool_576.txt	LTP365	ltpFR2	10	20	BELLY	119	n/a	n/a	0	0	0
4333315	WORD	wordpools/wasnorm_wordpool_576.txt	LTP365	ltpFR2	10	20	ULCER	1533	n/a	n/a	0	0	0
4335880	WORD	wordpools/wasnorm_wordpool_576.txt	LTP365	ltpFR2	10	20	VIRUS	1572	n/a	n/a	0	0	0
4338596	WORD	wordpools/wasnorm_wordpool_576.txt	LTP365	ltpFR2	10	20	SIBLING	1301	n/a	n/a	0	0	0
4341045	WORD	wordpools/wasnorm_wordpool_576.txt	LTP365	ltpFR2	10	20	DRAGON	492	n/a	n/a	0	0	0
4343793	WORD	wordpools/wasnorm_wordpool_576.txt	LTP365	ltpFR2	10	20	ROD	1203	n/a	n/a	0	0	0
4346375	WORD	wordpools/wasnorm_wordpool_576.txt	LTP365	ltpFR2	10	20	BUGGY	188	n/a	n/a	0	0	0
4349158	WORD	wordpools/wasnorm_wordpool_576.txt	LTP365	ltpFR2	10	20	OINTMENT	974	n/a	n/a	0	0	0
4351956	WORD	wordpools/wasnorm_wordpool_576.txt	LTP365	ltpFR2	10	20	BADGE	68	n/a	n/a	0	0	0
4354438	WORD	wordpools/wasnorm_wordpool_576.txt	LTP365	ltpFR2	10	20	SHERIFF	1284	n/a	n/a	0	0	0
4357254	WORD	wordpools/wasnorm_wordpool_576.txt	LTP365	ltpFR2	10	20	CURTAIN	427	n/a	n/a	0	0	0
4359902	WORD	wordpools/wasnorm_wordpool_576.txt	LTP365	ltpFR2	10	20	LODGE	839	n/a	n/a	0	0	0
4362567	WORD	wordpools/wasnorm_wordpool_576.txt	LTP365	ltpFR2	10	20	BULLET	194	n/a	n/a	0	0	0
4365150	WORD	wordpools/wasnorm_wordpool_576.txt	LTP365	ltpFR2	10	20	INMATE	738	n/a	n/a	0	0	0
4367615	WORD	wordpools/wasnorm_wordpool_576.txt	LTP365	ltpFR2	10	20	CAPTIVE	240	n/a	n/a	0	0	0
4370064	WORD	wordpools/wasnorm_wordpool_576.txt	LTP365	ltpFR2	10	20	PEACH	1031	n/a	n/a	0	0	0
4372595	WORD	wordpools/wasnorm_wordpool_576.txt	LTP365	ltpFR2	10	20	GAVEL	627	n/a	n/a	0	0	0
4375179	WORD	wordpools/wasnorm_wordpool_576.txt	LTP365	ltpFR2	10	20	PLIERS	1089	n/a	n/a	0	0	0
