mstime	trial_type	stim_file	subject	experiment	session	trial	task	item_name	item_num	recog_resp	recog_conf	resp	color_r	color_g	color_b	case	font
0	SESS_START	n/a	LTP278	ltpFR	16	n/a	n/a	n/a	n/a	1	1	n/a	n/a	n/a	n/a	n/a	n/a
36332	WORD	wordpools/wasnorm_wordpool_less_exclusions.txt	LTP278	ltpFR	16	1	1	EDITOR	516	1	n/a	1	0.422607421875	0.5869140625	0	lower	zerothre.ttf
40310	WORD	wordpools/wasnorm_wordpool_less_exclusions.txt	LTP278	ltpFR	16	1	1	CHAIN	273	n/a	n/a	0	0.422607421875	0.5869140625	0	lower	zerothre.ttf
44354	WORD	wordpools/wasnorm_wordpool_less_exclusions.txt	LTP278	ltpFR	16	1	1	MAGNET	855	n/a	n/a	0	0.422607421875	0.5869140625	0	lower	zerothre.ttf
48231	WORD	wordpools/wasnorm_wordpool_less_exclusions.txt	LTP278	ltpFR	16	1	1	HELICOPTER	701	n/a	n/a	0	0.422607421875	0.5869140625	0	lower	zerothre.ttf
52375	WORD	wordpools/wasnorm_wordpool_less_exclusions.txt	LTP278	ltpFR	16	1	0	SPIDER	1351	n/a	n/a	0	0.57763671875	0.412841796875	1	upper	amplitud.ttf
56369	WORD	wordpools/wasnorm_wordpool_less_exclusions.txt	LTP278	ltpFR	16	1	0	GRASSHOPPER	656	n/a	n/a	0	0.57763671875	0.412841796875	1	upper	amplitud.ttf
60347	WORD	wordpools/wasnorm_wordpool_less_exclusions.txt	LTP278	ltpFR	16	1	0	PAIL	1002	n/a	n/a	0	0.57763671875	0.412841796875	1	upper	amplitud.ttf
64241	WORD	wordpools/wasnorm_wordpool_less_exclusions.txt	LTP278	ltpFR	16	1	0	SPRINKLE	1359	n/a	n/a	0	0.57763671875	0.412841796875	1	upper	amplitud.ttf
68202	WORD	wordpools/wasnorm_wordpool_less_exclusions.txt	LTP278	ltpFR	16	1	0	NAVIGATOR	938	n/a	n/a	1	0.57763671875	0.412841796875	1	upper	amplitud.ttf
72196	WORD	wordpools/wasnorm_wordpool_less_exclusions.txt	LTP278	ltpFR	16	1	0	SUBWAY	1400	n/a	n/a	0	0.57763671875	0.412841796875	1	upper	amplitud.ttf
76172	WORD	wordpools/wasnorm_wordpool_less_exclusions.txt	LTP278	ltpFR	16	1	1	COPIER	377	n/a	n/a	0	0.422607421875	0.5869140625	0	lower	zerothre.ttf
80334	WORD	wordpools/wasnorm_wordpool_less_exclusions.txt	LTP278	ltpFR	16	1	1	CANOE	233	n/a	n/a	0	0.422607421875	0.5869140625	0	lower	zerothre.ttf
84427	WORD	wordpools/wasnorm_wordpool_less_exclusions.txt	LTP278	ltpFR	16	1	1	ARROW	40	n/a	n/a	0	0.422607421875	0.5869140625	0	lower	zerothre.ttf
88520	WORD	wordpools/wasnorm_wordpool_less_exclusions.txt	LTP278	ltpFR	16	1	1	PARENT	1013	n/a	n/a	1	0.422607421875	0.5869140625	0	lower	zerothre.ttf
92349	WORD	wordpools/wasnorm_wordpool_less_exclusions.txt	LTP278	ltpFR	16	1	0	TERMINAL	1450	n/a	n/a	1	0.57763671875	0.412841796875	1	upper	amplitud.ttf
96458	WORD	wordpools/wasnorm_wordpool_less_exclusions.txt	LTP278	ltpFR	16	1	0	WART	1590	n/a	n/a	0	0.57763671875	0.412841796875	1	upper	amplitud.ttf
102218	REC_START	n/a	LTP278	ltpFR	16	1	n/a	n/a	n/a	n/a	n/a	n/a	n/a	n/a	n/a	n/a	n/a
104749	REC_WORD	wordpools/wasnorm_wordpool_less_exclusions.txt	LTP278	ltpFR	16	1	1	CHAIN	273	n/a	n/a	0	n/a	n/a	n/a	n/a	n/a
105490	REC_WORD	wordpools/wasnorm_wordpool_less_exclusions.txt	LTP278	ltpFR	16	1	1	MAGNET	855	n/a	n/a	0	n/a	n/a	n/a	n/a	n/a
108561	REC_WORD	wordpools/wasnorm_wordpool_less_exclusions.txt	LTP278	ltpFR	16	1	1	COPIER	377	n/a	n/a	0	n/a	n/a	n/a	n/a	n/a
109251	REC_WORD	wordpools/wasnorm_wordpool_less_exclusions.txt	LTP278	ltpFR	16	1	0	SUBWAY	1400	n/a	n/a	0	n/a	n/a	n/a	n/a	n/a
109859	REC_WORD	wordpools/wasnorm_wordpool_less_exclusions.txt	LTP278	ltpFR	16	1	1	HELICOPTER	701	n/a	n/a	0	n/a	n/a	n/a	n/a	n/a
110802	REC_WORD	wordpools/wasnorm_wordpool_less_exclusions.txt	LTP278	ltpFR	16	1	0	PAIL	1002	n/a	n/a	0	n/a	n/a	n/a	n/a	n/a
111329	REC_WORD	wordpools/wasnorm_wordpool_less_exclusions.txt	LTP278	ltpFR	16	1	0	SPIDER	1351	n/a	n/a	0	n/a	n/a	n/a	n/a	n/a
112218	REC_WORD	wordpools/wasnorm_wordpool_less_exclusions.txt	LTP278	ltpFR	16	1	0	GRASSHOPPER	656	n/a	n/a	0	n/a	n/a	n/a	n/a	n/a
116448	REC_WORD	wordpools/wasnorm_wordpool_less_exclusions.txt	LTP278	ltpFR	16	1	1	CANOE	233	n/a	n/a	0	n/a	n/a	n/a	n/a	n/a
118912	REC_WORD	wordpools/wasnorm_wordpool_less_exclusions.txt	LTP278	ltpFR	16	1	1	ARROW	40	n/a	n/a	0	n/a	n/a	n/a	n/a	n/a
119904	REC_WORD	wordpools/wasnorm_wordpool_less_exclusions.txt	LTP278	ltpFR	16	1	0	TERMINAL	1450	n/a	n/a	1	n/a	n/a	n/a	n/a	n/a
120824	REC_WORD	wordpools/wasnorm_wordpool_less_exclusions.txt	LTP278	ltpFR	16	1	1	PARENT	1013	n/a	n/a	1	n/a	n/a	n/a	n/a	n/a
122817	REC_WORD	wordpools/wasnorm_wordpool_less_exclusions.txt	LTP278	ltpFR	16	1	0	SPRINKLE	1359	n/a	n/a	0	n/a	n/a	n/a	n/a	n/a
182813	WORD	wordpools/wasnorm_wordpool_less_exclusions.txt	LTP278	ltpFR	16	2	0	TAG	1429	n/a	n/a	0	0.57763671875	0.412841796875	1	upper	amplitud.ttf
186707	WORD	wordpools/wasnorm_wordpool_less_exclusions.txt	LTP278	ltpFR	16	2	0	CATCHER	258	n/a	n/a	1	0.57763671875	0.412841796875	1	upper	amplitud.ttf
190551	WORD	wordpools/wasnorm_wordpool_less_exclusions.txt	LTP278	ltpFR	16	2	1	BUSH	202	n/a	n/a	0	0.422607421875	0.5869140625	0	lower	zerothre.ttf
194678	WORD	wordpools/wasnorm_wordpool_less_exclusions.txt	LTP278	ltpFR	16	2	1	UNIFORM	1539	n/a	n/a	0	0.422607421875	0.5869140625	0	lower	zerothre.ttf
198739	WORD	wordpools/wasnorm_wordpool_less_exclusions.txt	LTP278	ltpFR	16	2	1	VEGETABLE	1552	n/a	n/a	0	0.422607421875	0.5869140625	0	lower	zerothre.ttf
202617	WORD	wordpools/wasnorm_wordpool_less_exclusions.txt	LTP278	ltpFR	16	2	1	RADISH	1158	n/a	n/a	1	0.422607421875	0.5869140625	0	lower	zerothre.ttf
206760	WORD	wordpools/wasnorm_wordpool_less_exclusions.txt	LTP278	ltpFR	16	2	0	SAGE	1222	n/a	n/a	0	0.57763671875	0.412841796875	1	upper	amplitud.ttf
210688	WORD	wordpools/wasnorm_wordpool_less_exclusions.txt	LTP278	ltpFR	16	2	0	BRANCH	168	n/a	n/a	1	0.57763671875	0.412841796875	1	upper	amplitud.ttf
214898	WORD	wordpools/wasnorm_wordpool_less_exclusions.txt	LTP278	ltpFR	16	2	0	SERGEANT	1269	n/a	n/a	1	0.57763671875	0.412841796875	1	upper	amplitud.ttf
218976	WORD	wordpools/wasnorm_wordpool_less_exclusions.txt	LTP278	ltpFR	16	2	0	ROBIN	1199	n/a	n/a	0	0.57763671875	0.412841796875	1	upper	amplitud.ttf
222920	WORD	wordpools/wasnorm_wordpool_less_exclusions.txt	LTP278	ltpFR	16	2	0	FIREPLACE	570	n/a	n/a	1	0.57763671875	0.412841796875	1	upper	amplitud.ttf
227014	WORD	wordpools/wasnorm_wordpool_less_exclusions.txt	LTP278	ltpFR	16	2	0	ATTIRE	57	n/a	n/a	1	0.57763671875	0.412841796875	1	upper	amplitud.ttf
231074	WORD	wordpools/wasnorm_wordpool_less_exclusions.txt	LTP278	ltpFR	16	2	1	BANKER	84	n/a	n/a	1	0.422607421875	0.5869140625	0	lower	zerothre.ttf
234935	WORD	wordpools/wasnorm_wordpool_less_exclusions.txt	LTP278	ltpFR	16	2	1	CHICK	296	n/a	n/a	1	0.422607421875	0.5869140625	0	lower	zerothre.ttf
238962	WORD	wordpools/wasnorm_wordpool_less_exclusions.txt	LTP278	ltpFR	16	2	1	MARGARINE	868	n/a	n/a	0	0.422607421875	0.5869140625	0	lower	zerothre.ttf
243040	WORD	wordpools/wasnorm_wordpool_less_exclusions.txt	LTP278	ltpFR	16	2	1	BAKER	71	n/a	n/a	1	0.422607421875	0.5869140625	0	lower	zerothre.ttf
248732	REC_START	n/a	LTP278	ltpFR	16	2	n/a	n/a	n/a	n/a	n/a	n/a	n/a	n/a	n/a	n/a	n/a
250070	REC_WORD	wordpools/wasnorm_wordpool_less_exclusions.txt	LTP278	ltpFR	16	2	0	TAG	1429	n/a	n/a	0	n/a	n/a	n/a	n/a	n/a
250942	REC_WORD	wordpools/wasnorm_wordpool_less_exclusions.txt	LTP278	ltpFR	16	2	0	CATCHER	258	n/a	n/a	1	n/a	n/a	n/a	n/a	n/a
252161	REC_WORD	wordpools/wasnorm_wordpool_less_exclusions.txt	LTP278	ltpFR	16	2	1	BUSH	202	n/a	n/a	0	n/a	n/a	n/a	n/a	n/a
254021	REC_WORD	wordpools/wasnorm_wordpool_less_exclusions.txt	LTP278	ltpFR	16	2	1	UNIFORM	1539	n/a	n/a	0	n/a	n/a	n/a	n/a	n/a
256435	REC_WORD	wordpools/wasnorm_wordpool_less_exclusions.txt	LTP278	ltpFR	16	2	1	BAKER	71	n/a	n/a	1	n/a	n/a	n/a	n/a	n/a
256961	REC_WORD	wordpools/wasnorm_wordpool_less_exclusions.txt	LTP278	ltpFR	16	2	1	BANKER	84	n/a	n/a	1	n/a	n/a	n/a	n/a	n/a
258059	REC_WORD	wordpools/wasnorm_wordpool_less_exclusions.txt	LTP278	ltpFR	16	2	1	CHICK	296	n/a	n/a	1	n/a	n/a	n/a	n/a	n/a
259898	REC_WORD	wordpools/wasnorm_wordpool_less_exclusions.txt	LTP278	ltpFR	16	2	0	FIREPLACE	570	n/a	n/a	1	n/a	n/a	n/a	n/a	n/a
260957	REC_WORD	wordpools/wasnorm_wordpool_less_exclusions.txt	LTP278	ltpFR	16	2	0	ROBIN	1199	n/a	n/a	0	n/a	n/a	n/a	n/a	n/a
264570	REC_WORD	wordpools/wasnorm_wordpool_less_exclusions.txt	LTP278	ltpFR	16	2	1	VEGETABLE	1552	n/a	n/a	0	n/a	n/a	n/a	n/a	n/a
265637	REC_WORD	wordpools/wasnorm_wordpool_less_exclusions.txt	LTP278	ltpFR	16	2	1	RADISH	1158	n/a	n/a	1	n/a	n/a	n/a	n/a	n/a
327031	WORD	wordpools/wasnorm_wordpool_less_exclusions.txt	LTP278	ltpFR	16	3	1	PAD	998	n/a	n/a	0	0.422607421875	0.5869140625	0	lower	zerothre.ttf
331191	WORD	wordpools/wasnorm_wordpool_less_exclusions.txt	LTP278	ltpFR	16	3	1	PAW	1029	n/a	n/a	1	0.422607421875	0.5869140625	0	lower	zerothre.ttf
335286	WORD	wordpools/wasnorm_wordpool_less_exclusions.txt	LTP278	ltpFR	16	3	0	OWNER	993	n/a	n/a	1	0.57763671875	0.412841796875	1	upper	amplitud.ttf
339430	WORD	wordpools/wasnorm_wordpool_less_exclusions.txt	LTP278	ltpFR	16	3	0	CONTRACT	368	n/a	n/a	0	0.57763671875	0.412841796875	1	upper	amplitud.ttf
343291	WORD	wordpools/wasnorm_wordpool_less_exclusions.txt	LTP278	ltpFR	16	3	0	RUNNER	1218	n/a	n/a	0	0.57763671875	0.412841796875	1	upper	amplitud.ttf
347151	WORD	wordpools/wasnorm_wordpool_less_exclusions.txt	LTP278	ltpFR	16	3	0	BOULEVARD	156	n/a	n/a	1	0.57763671875	0.412841796875	1	upper	amplitud.ttf
351128	WORD	wordpools/wasnorm_wordpool_less_exclusions.txt	LTP278	ltpFR	16	3	1	DRAWER	493	n/a	n/a	0	0.422607421875	0.5869140625	0	lower	zerothre.ttf
354989	WORD	wordpools/wasnorm_wordpool_less_exclusions.txt	LTP278	ltpFR	16	3	1	CHEST	295	n/a	n/a	0	0.422607421875	0.5869140625	0	lower	zerothre.ttf
358950	WORD	wordpools/wasnorm_wordpool_less_exclusions.txt	LTP278	ltpFR	16	3	1	SQUID	1361	n/a	n/a	1	0.422607421875	0.5869140625	0	lower	zerothre.ttf
362911	WORD	wordpools/wasnorm_wordpool_less_exclusions.txt	LTP278	ltpFR	16	3	1	SCALLOP	1242	n/a	n/a	1	0.422607421875	0.5869140625	0	lower	zerothre.ttf
366955	WORD	wordpools/wasnorm_wordpool_less_exclusions.txt	LTP278	ltpFR	16	3	1	GYMNAST	675	n/a	n/a	1	0.422607421875	0.5869140625	0	lower	zerothre.ttf
371015	WORD	wordpools/wasnorm_wordpool_less_exclusions.txt	LTP278	ltpFR	16	3	1	SPIT	1354	n/a	n/a	0	0.422607421875	0.5869140625	0	lower	zerothre.ttf
375026	WORD	wordpools/wasnorm_wordpool_less_exclusions.txt	LTP278	ltpFR	16	3	0	RECIPE	1175	n/a	n/a	1	0.57763671875	0.412841796875	1	upper	amplitud.ttf
379003	WORD	wordpools/wasnorm_wordpool_less_exclusions.txt	LTP278	ltpFR	16	3	0	MEAL	882	n/a	n/a	0	0.57763671875	0.412841796875	1	upper	amplitud.ttf
382881	WORD	wordpools/wasnorm_wordpool_less_exclusions.txt	LTP278	ltpFR	16	3	0	CIRCUS	311	n/a	n/a	1	0.57763671875	0.412841796875	1	upper	amplitud.ttf
386958	WORD	wordpools/wasnorm_wordpool_less_exclusions.txt	LTP278	ltpFR	16	3	0	MERMAID	887	n/a	n/a	1	0.57763671875	0.412841796875	1	upper	amplitud.ttf
392883	REC_START	n/a	LTP278	ltpFR	16	3	n/a	n/a	n/a	n/a	n/a	n/a	n/a	n/a	n/a	n/a	n/a
396562	REC_WORD	wordpools/wasnorm_wordpool_less_exclusions.txt	LTP278	ltpFR	16	3	1	PAD	998	n/a	n/a	0	n/a	n/a	n/a	n/a	n/a
397420	REC_WORD	wordpools/wasnorm_wordpool_less_exclusions.txt	LTP278	ltpFR	16	3	1	PAW	1029	n/a	n/a	1	n/a	n/a	n/a	n/a	n/a
398161	REC_WORD	wordpools/wasnorm_wordpool_less_exclusions.txt	LTP278	ltpFR	16	3	0	CONTRACT	368	n/a	n/a	0	n/a	n/a	n/a	n/a	n/a
399532	REC_WORD	wordpools/wasnorm_wordpool_less_exclusions.txt	LTP278	ltpFR	16	3	0	OWNER	993	n/a	n/a	1	n/a	n/a	n/a	n/a	n/a
401462	REC_WORD	wordpools/wasnorm_wordpool_less_exclusions.txt	LTP278	ltpFR	16	3	0	RUNNER	1218	n/a	n/a	0	n/a	n/a	n/a	n/a	n/a
402428	REC_WORD	wordpools/wasnorm_wordpool_less_exclusions.txt	LTP278	ltpFR	16	3	0	BOULEVARD	156	n/a	n/a	1	n/a	n/a	n/a	n/a	n/a
404106	REC_WORD	wordpools/wasnorm_wordpool_less_exclusions.txt	LTP278	ltpFR	16	3	1	DRAWER	493	n/a	n/a	0	n/a	n/a	n/a	n/a	n/a
405657	REC_WORD	wordpools/wasnorm_wordpool_less_exclusions.txt	LTP278	ltpFR	16	3	1	CHEST	295	n/a	n/a	0	n/a	n/a	n/a	n/a	n/a
408065	REC_WORD	wordpools/wasnorm_wordpool_less_exclusions.txt	LTP278	ltpFR	16	3	1	SQUID	1361	n/a	n/a	1	n/a	n/a	n/a	n/a	n/a
408924	REC_WORD	wordpools/wasnorm_wordpool_less_exclusions.txt	LTP278	ltpFR	16	3	1	SCALLOP	1242	n/a	n/a	1	n/a	n/a	n/a	n/a	n/a
409748	REC_WORD_VV	wordpools/wasnorm_wordpool_less_exclusions.txt	LTP278	ltpFR	16	3	n/a	<>	-1	n/a	n/a	n/a	n/a	n/a	n/a	n/a	n/a
411090	REC_WORD	wordpools/wasnorm_wordpool_less_exclusions.txt	LTP278	ltpFR	16	3	1	SCALLOP	1242	n/a	n/a	1	n/a	n/a	n/a	n/a	n/a
450854	REC_WORD	wordpools/wasnorm_wordpool_less_exclusions.txt	LTP278	ltpFR	16	3	0	CIRCUS	311	n/a	n/a	1	n/a	n/a	n/a	n/a	n/a
453940	REC_WORD	wordpools/wasnorm_wordpool_less_exclusions.txt	LTP278	ltpFR	16	3	0	MERMAID	887	n/a	n/a	1	n/a	n/a	n/a	n/a	n/a
471548	WORD	wordpools/wasnorm_wordpool_less_exclusions.txt	LTP278	ltpFR	16	4	0	SANDWICH	1232	n/a	n/a	0	0.57763671875	0.412841796875	1	upper	amplitud.ttf
475626	WORD	wordpools/wasnorm_wordpool_less_exclusions.txt	LTP278	ltpFR	16	4	0	STRING	1394	n/a	n/a	1	0.57763671875	0.412841796875	1	upper	amplitud.ttf
479670	WORD	wordpools/wasnorm_wordpool_less_exclusions.txt	LTP278	ltpFR	16	4	1	VIOLA	1570	n/a	n/a	0	0.422607421875	0.5869140625	0	lower	zerothre.ttf
483747	WORD	wordpools/wasnorm_wordpool_less_exclusions.txt	LTP278	ltpFR	16	4	1	NEWSSTAND	949	n/a	n/a	0	0.422607421875	0.5869140625	0	lower	zerothre.ttf
487691	WORD	wordpools/wasnorm_wordpool_less_exclusions.txt	LTP278	ltpFR	16	4	1	PAPER	1011	n/a	n/a	0	0.422607421875	0.5869140625	0	lower	zerothre.ttf
491768	WORD	wordpools/wasnorm_wordpool_less_exclusions.txt	LTP278	ltpFR	16	4	1	TROUT	1511	n/a	n/a	1	0.422607421875	0.5869140625	0	lower	zerothre.ttf
495662	WORD	wordpools/wasnorm_wordpool_less_exclusions.txt	LTP278	ltpFR	16	4	1	MASCARA	875	n/a	n/a	0	0.422607421875	0.5869140625	0	lower	zerothre.ttf
499656	WORD	wordpools/wasnorm_wordpool_less_exclusions.txt	LTP278	ltpFR	16	4	1	BISON	131	n/a	n/a	1	0.422607421875	0.5869140625	0	lower	zerothre.ttf
503817	WORD	wordpools/wasnorm_wordpool_less_exclusions.txt	LTP278	ltpFR	16	4	0	POSSUM	1112	n/a	n/a	0	0.57763671875	0.412841796875	1	upper	amplitud.ttf
507744	WORD	wordpools/wasnorm_wordpool_less_exclusions.txt	LTP278	ltpFR	16	4	0	BANQUET	86	n/a	n/a	0	0.57763671875	0.412841796875	1	upper	amplitud.ttf
511605	WORD	wordpools/wasnorm_wordpool_less_exclusions.txt	LTP278	ltpFR	16	4	0	SILVERWARE	1308	n/a	n/a	0	0.57763671875	0.412841796875	1	upper	amplitud.ttf
515633	WORD	wordpools/wasnorm_wordpool_less_exclusions.txt	LTP278	ltpFR	16	4	1	ELEVATOR	524	n/a	n/a	0	0.422607421875	0.5869140625	0	lower	zerothre.ttf
519726	WORD	wordpools/wasnorm_wordpool_less_exclusions.txt	LTP278	ltpFR	16	4	1	BAG	69	n/a	n/a	0	0.422607421875	0.5869140625	0	lower	zerothre.ttf
523604	WORD	wordpools/wasnorm_wordpool_less_exclusions.txt	LTP278	ltpFR	16	4	0	STAR	1373	n/a	n/a	0	0.57763671875	0.412841796875	1	upper	amplitud.ttf
527515	WORD	wordpools/wasnorm_wordpool_less_exclusions.txt	LTP278	ltpFR	16	4	0	CHEF	290	n/a	n/a	1	0.57763671875	0.412841796875	1	upper	amplitud.ttf
531492	WORD	wordpools/wasnorm_wordpool_less_exclusions.txt	LTP278	ltpFR	16	4	0	FISH	571	n/a	n/a	0	0.57763671875	0.412841796875	1	upper	amplitud.ttf
537168	REC_START	n/a	LTP278	ltpFR	16	4	n/a	n/a	n/a	n/a	n/a	n/a	n/a	n/a	n/a	n/a	n/a
537473	REC_WORD	wordpools/wasnorm_wordpool_less_exclusions.txt	LTP278	ltpFR	16	4	0	FISH	571	n/a	n/a	0	n/a	n/a	n/a	n/a	n/a
538436	REC_WORD	wordpools/wasnorm_wordpool_less_exclusions.txt	LTP278	ltpFR	16	4	0	BANQUET	86	n/a	n/a	0	n/a	n/a	n/a	n/a	n/a
539379	REC_WORD	wordpools/wasnorm_wordpool_less_exclusions.txt	LTP278	ltpFR	16	4	1	ELEVATOR	524	n/a	n/a	0	n/a	n/a	n/a	n/a	n/a
543453	REC_WORD	wordpools/wasnorm_wordpool_less_exclusions.txt	LTP278	ltpFR	16	4	0	CHEF	290	n/a	n/a	1	n/a	n/a	n/a	n/a	n/a
546194	REC_WORD	wordpools/wasnorm_wordpool_less_exclusions.txt	LTP278	ltpFR	16	4	0	SILVERWARE	1308	n/a	n/a	0	n/a	n/a	n/a	n/a	n/a
566364	REC_WORD	wordpools/wasnorm_wordpool_less_exclusions.txt	LTP278	ltpFR	16	4	0	SANDWICH	1232	n/a	n/a	0	n/a	n/a	n/a	n/a	n/a
569239	REC_WORD	wordpools/wasnorm_wordpool_less_exclusions.txt	LTP278	ltpFR	16	4	0	POSSUM	1112	n/a	n/a	0	n/a	n/a	n/a	n/a	n/a
621857	WORD	wordpools/wasnorm_wordpool_less_exclusions.txt	LTP278	ltpFR	16	5	0	PLASTER	1085	n/a	n/a	0	0.57763671875	0.412841796875	1	upper	amplitud.ttf
625984	WORD	wordpools/wasnorm_wordpool_less_exclusions.txt	LTP278	ltpFR	16	5	0	BARLEY	88	n/a	n/a	0	0.57763671875	0.412841796875	1	upper	amplitud.ttf
629829	WORD	wordpools/wasnorm_wordpool_less_exclusions.txt	LTP278	ltpFR	16	5	0	CANYON	235	n/a	n/a	0	0.57763671875	0.412841796875	1	upper	amplitud.ttf
633756	WORD	wordpools/wasnorm_wordpool_less_exclusions.txt	LTP278	ltpFR	16	5	0	MUSHROOM	934	n/a	n/a	0	0.57763671875	0.412841796875	1	upper	amplitud.ttf
637883	WORD	wordpools/wasnorm_wordpool_less_exclusions.txt	LTP278	ltpFR	16	5	0	SPINACH	1352	n/a	n/a	0	0.57763671875	0.412841796875	1	upper	amplitud.ttf
642094	WORD	wordpools/wasnorm_wordpool_less_exclusions.txt	LTP278	ltpFR	16	5	0	CACTUS	215	n/a	n/a	1	0.57763671875	0.412841796875	1	upper	amplitud.ttf
646088	WORD	wordpools/wasnorm_wordpool_less_exclusions.txt	LTP278	ltpFR	16	5	0	FARM	552	n/a	n/a	1	0.57763671875	0.412841796875	1	upper	amplitud.ttf
650115	WORD	wordpools/wasnorm_wordpool_less_exclusions.txt	LTP278	ltpFR	16	5	0	BIRD	129	n/a	n/a	0	0.57763671875	0.412841796875	1	upper	amplitud.ttf
654109	WORD	wordpools/wasnorm_wordpool_less_exclusions.txt	LTP278	ltpFR	16	5	0	FLOWER	584	n/a	n/a	0	0.57763671875	0.412841796875	1	upper	amplitud.ttf
658070	WORD	wordpools/wasnorm_wordpool_less_exclusions.txt	LTP278	ltpFR	16	5	0	DESSERT	453	n/a	n/a	0	0.57763671875	0.412841796875	1	upper	amplitud.ttf
662031	WORD	wordpools/wasnorm_wordpool_less_exclusions.txt	LTP278	ltpFR	16	5	0	CAKE	219	n/a	n/a	0	0.57763671875	0.412841796875	1	upper	amplitud.ttf
665875	WORD	wordpools/wasnorm_wordpool_less_exclusions.txt	LTP278	ltpFR	16	5	0	SLOPE	1328	n/a	n/a	0	0.57763671875	0.412841796875	1	upper	amplitud.ttf
669802	WORD	wordpools/wasnorm_wordpool_less_exclusions.txt	LTP278	ltpFR	16	5	0	COCKTAIL	338	n/a	n/a	0	0.57763671875	0.412841796875	1	upper	amplitud.ttf
673746	WORD	wordpools/wasnorm_wordpool_less_exclusions.txt	LTP278	ltpFR	16	5	0	CABBAGE	210	n/a	n/a	0	0.57763671875	0.412841796875	1	upper	amplitud.ttf
677674	WORD	wordpools/wasnorm_wordpool_less_exclusions.txt	LTP278	ltpFR	16	5	0	SHRUB	1299	n/a	n/a	0	0.57763671875	0.412841796875	1	upper	amplitud.ttf
681851	WORD	wordpools/wasnorm_wordpool_less_exclusions.txt	LTP278	ltpFR	16	5	0	FLASK	576	n/a	n/a	0	0.57763671875	0.412841796875	1	upper	amplitud.ttf
687626	REC_START	n/a	LTP278	ltpFR	16	5	n/a	n/a	n/a	n/a	n/a	n/a	n/a	n/a	n/a	n/a	n/a
688414	REC_WORD	wordpools/wasnorm_wordpool_less_exclusions.txt	LTP278	ltpFR	16	5	0	FLASK	576	n/a	n/a	0	n/a	n/a	n/a	n/a	n/a
689470	REC_WORD	wordpools/wasnorm_wordpool_less_exclusions.txt	LTP278	ltpFR	16	5	0	CABBAGE	210	n/a	n/a	0	n/a	n/a	n/a	n/a	n/a
690844	REC_WORD	wordpools/wasnorm_wordpool_less_exclusions.txt	LTP278	ltpFR	16	5	0	SPINACH	1352	n/a	n/a	0	n/a	n/a	n/a	n/a	n/a
691739	REC_WORD	wordpools/wasnorm_wordpool_less_exclusions.txt	LTP278	ltpFR	16	5	0	BARLEY	88	n/a	n/a	0	n/a	n/a	n/a	n/a	n/a
692755	REC_WORD	wordpools/wasnorm_wordpool_less_exclusions.txt	LTP278	ltpFR	16	5	0	CANYON	235	n/a	n/a	0	n/a	n/a	n/a	n/a	n/a
697604	REC_WORD	wordpools/wasnorm_wordpool_less_exclusions.txt	LTP278	ltpFR	16	5	0	PLASTER	1085	n/a	n/a	0	n/a	n/a	n/a	n/a	n/a
706747	REC_WORD	wordpools/wasnorm_wordpool_less_exclusions.txt	LTP278	ltpFR	16	5	0	CACTUS	215	n/a	n/a	1	n/a	n/a	n/a	n/a	n/a
717174	REC_WORD	wordpools/wasnorm_wordpool_less_exclusions.txt	LTP278	ltpFR	16	5	0	SLOPE	1328	n/a	n/a	0	n/a	n/a	n/a	n/a	n/a
749697	REC_WORD	wordpools/wasnorm_wordpool_less_exclusions.txt	LTP278	ltpFR	16	5	0	BIRD	129	n/a	n/a	0	n/a	n/a	n/a	n/a	n/a
750572	REC_WORD	wordpools/wasnorm_wordpool_less_exclusions.txt	LTP278	ltpFR	16	5	0	FLOWER	584	n/a	n/a	0	n/a	n/a	n/a	n/a	n/a
765959	WORD	wordpools/wasnorm_wordpool_less_exclusions.txt	LTP278	ltpFR	16	6	1	OCEAN	970	n/a	n/a	1	0.422607421875	0.5869140625	0	lower	zerothre.ttf
770003	WORD	wordpools/wasnorm_wordpool_less_exclusions.txt	LTP278	ltpFR	16	6	1	HAMPER	682	n/a	n/a	0	0.422607421875	0.5869140625	0	lower	zerothre.ttf
774197	WORD	wordpools/wasnorm_wordpool_less_exclusions.txt	LTP278	ltpFR	16	6	1	RECEPTIONIST	1174	n/a	n/a	1	0.422607421875	0.5869140625	0	lower	zerothre.ttf
778325	WORD	wordpools/wasnorm_wordpool_less_exclusions.txt	LTP278	ltpFR	16	6	1	GRASS	655	n/a	n/a	0	0.422607421875	0.5869140625	0	lower	zerothre.ttf
782168	WORD	wordpools/wasnorm_wordpool_less_exclusions.txt	LTP278	ltpFR	16	6	1	FRIEND	606	n/a	n/a	0	0.422607421875	0.5869140625	0	lower	zerothre.ttf
786346	WORD	wordpools/wasnorm_wordpool_less_exclusions.txt	LTP278	ltpFR	16	6	1	SUIT	1402	n/a	n/a	0	0.422607421875	0.5869140625	0	lower	zerothre.ttf
790173	WORD	wordpools/wasnorm_wordpool_less_exclusions.txt	LTP278	ltpFR	16	6	1	CITIZEN	312	n/a	n/a	0	0.422607421875	0.5869140625	0	lower	zerothre.ttf
794351	WORD	wordpools/wasnorm_wordpool_less_exclusions.txt	LTP278	ltpFR	16	6	1	SHAMPOO	1274	n/a	n/a	0	0.422607421875	0.5869140625	0	lower	zerothre.ttf
798195	WORD	wordpools/wasnorm_wordpool_less_exclusions.txt	LTP278	ltpFR	16	6	1	ASSOCIATE	49	n/a	n/a	0	0.422607421875	0.5869140625	0	lower	zerothre.ttf
802155	WORD	wordpools/wasnorm_wordpool_less_exclusions.txt	LTP278	ltpFR	16	6	1	CREAM	402	n/a	n/a	0	0.422607421875	0.5869140625	0	lower	zerothre.ttf
806149	WORD	wordpools/wasnorm_wordpool_less_exclusions.txt	LTP278	ltpFR	16	6	1	WHIP	1604	n/a	n/a	0	0.422607421875	0.5869140625	0	lower	zerothre.ttf
810176	WORD	wordpools/wasnorm_wordpool_less_exclusions.txt	LTP278	ltpFR	16	6	1	COMB	351	n/a	n/a	0	0.422607421875	0.5869140625	0	lower	zerothre.ttf
814387	WORD	wordpools/wasnorm_wordpool_less_exclusions.txt	LTP278	ltpFR	16	6	1	CARTON	251	n/a	n/a	0	0.422607421875	0.5869140625	0	lower	zerothre.ttf
818265	WORD	wordpools/wasnorm_wordpool_less_exclusions.txt	LTP278	ltpFR	16	6	1	CEREAL	272	n/a	n/a	1	0.422607421875	0.5869140625	0	lower	zerothre.ttf
822292	WORD	wordpools/wasnorm_wordpool_less_exclusions.txt	LTP278	ltpFR	16	6	1	TREAD	1499	n/a	n/a	0	0.422607421875	0.5869140625	0	lower	zerothre.ttf
826253	WORD	wordpools/wasnorm_wordpool_less_exclusions.txt	LTP278	ltpFR	16	6	1	SPONGE	1355	n/a	n/a	0	0.422607421875	0.5869140625	0	lower	zerothre.ttf
832027	REC_START	n/a	LTP278	ltpFR	16	6	n/a	n/a	n/a	n/a	n/a	n/a	n/a	n/a	n/a	n/a	n/a
832863	REC_WORD	wordpools/wasnorm_wordpool_less_exclusions.txt	LTP278	ltpFR	16	6	1	TREAD	1499	n/a	n/a	0	n/a	n/a	n/a	n/a	n/a
833649	REC_WORD	wordpools/wasnorm_wordpool_less_exclusions.txt	LTP278	ltpFR	16	6	1	SPONGE	1355	n/a	n/a	0	n/a	n/a	n/a	n/a	n/a
834694	REC_WORD	wordpools/wasnorm_wordpool_less_exclusions.txt	LTP278	ltpFR	16	6	1	GRASS	655	n/a	n/a	0	n/a	n/a	n/a	n/a	n/a
835394	REC_WORD	wordpools/wasnorm_wordpool_less_exclusions.txt	LTP278	ltpFR	16	6	1	RECEPTIONIST	1174	n/a	n/a	1	n/a	n/a	n/a	n/a	n/a
836489	REC_WORD	wordpools/wasnorm_wordpool_less_exclusions.txt	LTP278	ltpFR	16	6	n/a	ASSISTANT	48	n/a	n/a	n/a	n/a	n/a	n/a	n/a	n/a
842036	REC_WORD	wordpools/wasnorm_wordpool_less_exclusions.txt	LTP278	ltpFR	16	6	1	OCEAN	970	n/a	n/a	1	n/a	n/a	n/a	n/a	n/a
862195	REC_WORD	wordpools/wasnorm_wordpool_less_exclusions.txt	LTP278	ltpFR	16	6	1	CITIZEN	312	n/a	n/a	0	n/a	n/a	n/a	n/a	n/a
863272	REC_WORD	wordpools/wasnorm_wordpool_less_exclusions.txt	LTP278	ltpFR	16	6	1	SUIT	1402	n/a	n/a	0	n/a	n/a	n/a	n/a	n/a
865096	REC_WORD	wordpools/wasnorm_wordpool_less_exclusions.txt	LTP278	ltpFR	16	6	1	WHIP	1604	n/a	n/a	0	n/a	n/a	n/a	n/a	n/a
866020	REC_WORD	wordpools/wasnorm_wordpool_less_exclusions.txt	LTP278	ltpFR	16	6	1	CREAM	402	n/a	n/a	0	n/a	n/a	n/a	n/a	n/a
870390	REC_WORD	wordpools/wasnorm_wordpool_less_exclusions.txt	LTP278	ltpFR	16	6	1	SHAMPOO	1274	n/a	n/a	0	n/a	n/a	n/a	n/a	n/a
910143	WORD	wordpools/wasnorm_wordpool_less_exclusions.txt	LTP278	ltpFR	16	7	-1	PACKAGE	997	n/a	n/a	-1	1.0	1.0	1	upper	Verdana.ttf
914154	WORD	wordpools/wasnorm_wordpool_less_exclusions.txt	LTP278	ltpFR	16	7	-1	BRAKE	166	n/a	n/a	-1	1.0	1.0	1	upper	Verdana.ttf
918181	WORD	wordpools/wasnorm_wordpool_less_exclusions.txt	LTP278	ltpFR	16	7	-1	DIARY	460	n/a	n/a	-1	1.0	1.0	1	upper	Verdana.ttf
922376	WORD	wordpools/wasnorm_wordpool_less_exclusions.txt	LTP278	ltpFR	16	7	-1	SCOUT	1252	n/a	n/a	-1	1.0	1.0	1	upper	Verdana.ttf
926452	WORD	wordpools/wasnorm_wordpool_less_exclusions.txt	LTP278	ltpFR	16	7	-1	BUS	201	n/a	n/a	-1	1.0	1.0	1	upper	Verdana.ttf
930397	WORD	wordpools/wasnorm_wordpool_less_exclusions.txt	LTP278	ltpFR	16	7	-1	DETERGENT	455	n/a	n/a	-1	1.0	1.0	1	upper	Verdana.ttf
934408	WORD	wordpools/wasnorm_wordpool_less_exclusions.txt	LTP278	ltpFR	16	7	-1	CONSOLE	364	n/a	n/a	-1	1.0	1.0	1	upper	Verdana.ttf
938534	WORD	wordpools/wasnorm_wordpool_less_exclusions.txt	LTP278	ltpFR	16	7	-1	ELECTRICIAN	521	n/a	n/a	-1	1.0	1.0	1	upper	Verdana.ttf
942645	WORD	wordpools/wasnorm_wordpool_less_exclusions.txt	LTP278	ltpFR	16	7	-1	WICK	1607	n/a	n/a	-1	1.0	1.0	1	upper	Verdana.ttf
946672	WORD	wordpools/wasnorm_wordpool_less_exclusions.txt	LTP278	ltpFR	16	7	-1	BOOK	149	n/a	n/a	-1	1.0	1.0	1	upper	Verdana.ttf
950650	WORD	wordpools/wasnorm_wordpool_less_exclusions.txt	LTP278	ltpFR	16	7	-1	DIAMOND	458	n/a	n/a	-1	1.0	1.0	1	upper	Verdana.ttf
954594	WORD	wordpools/wasnorm_wordpool_less_exclusions.txt	LTP278	ltpFR	16	7	-1	BLOSSOM	138	n/a	n/a	-1	1.0	1.0	1	upper	Verdana.ttf
958638	WORD	wordpools/wasnorm_wordpool_less_exclusions.txt	LTP278	ltpFR	16	7	-1	POT	1114	n/a	n/a	-1	1.0	1.0	1	upper	Verdana.ttf
962532	WORD	wordpools/wasnorm_wordpool_less_exclusions.txt	LTP278	ltpFR	16	7	-1	JEWEL	757	n/a	n/a	-1	1.0	1.0	1	upper	Verdana.ttf
966692	WORD	wordpools/wasnorm_wordpool_less_exclusions.txt	LTP278	ltpFR	16	7	-1	DETECTIVE	454	n/a	n/a	-1	1.0	1.0	1	upper	Verdana.ttf
970770	WORD	wordpools/wasnorm_wordpool_less_exclusions.txt	LTP278	ltpFR	16	7	-1	SHERIFF	1284	n/a	n/a	-1	1.0	1.0	1	upper	Verdana.ttf
976811	REC_START	n/a	LTP278	ltpFR	16	7	n/a	n/a	n/a	n/a	n/a	n/a	n/a	n/a	n/a	n/a	n/a
977395	REC_WORD	wordpools/wasnorm_wordpool_less_exclusions.txt	LTP278	ltpFR	16	7	-1	SHERIFF	1284	n/a	n/a	-1	n/a	n/a	n/a	n/a	n/a
978091	REC_WORD	wordpools/wasnorm_wordpool_less_exclusions.txt	LTP278	ltpFR	16	7	-1	POT	1114	n/a	n/a	-1	n/a	n/a	n/a	n/a	n/a
978649	REC_WORD	wordpools/wasnorm_wordpool_less_exclusions.txt	LTP278	ltpFR	16	7	-1	BOOK	149	n/a	n/a	-1	n/a	n/a	n/a	n/a	n/a
980219	REC_WORD	wordpools/wasnorm_wordpool_less_exclusions.txt	LTP278	ltpFR	16	7	-1	DETECTIVE	454	n/a	n/a	-1	n/a	n/a	n/a	n/a	n/a
988774	REC_WORD	wordpools/wasnorm_wordpool_less_exclusions.txt	LTP278	ltpFR	16	7	-1	PACKAGE	997	n/a	n/a	-1	n/a	n/a	n/a	n/a	n/a
1038149	REC_WORD	wordpools/wasnorm_wordpool_less_exclusions.txt	LTP278	ltpFR	16	7	-1	BLOSSOM	138	n/a	n/a	-1	n/a	n/a	n/a	n/a	n/a
1055378	WORD	wordpools/wasnorm_wordpool_less_exclusions.txt	LTP278	ltpFR	16	8	0	PENNY	1045	n/a	n/a	0	0.57763671875	0.412841796875	1	upper	amplitud.ttf
1059355	WORD	wordpools/wasnorm_wordpool_less_exclusions.txt	LTP278	ltpFR	16	8	0	VILLAGE	1566	n/a	n/a	1	0.57763671875	0.412841796875	1	upper	amplitud.ttf
1063199	WORD	wordpools/wasnorm_wordpool_less_exclusions.txt	LTP278	ltpFR	16	8	0	SURF	1412	n/a	n/a	1	0.57763671875	0.412841796875	1	upper	amplitud.ttf
1067393	WORD	wordpools/wasnorm_wordpool_less_exclusions.txt	LTP278	ltpFR	16	8	0	BLOCKADE	137	n/a	n/a	1	0.57763671875	0.412841796875	1	upper	amplitud.ttf
1071453	WORD	wordpools/wasnorm_wordpool_less_exclusions.txt	LTP278	ltpFR	16	8	0	HALL	677	n/a	n/a	0	0.57763671875	0.412841796875	1	upper	amplitud.ttf
1075646	WORD	wordpools/wasnorm_wordpool_less_exclusions.txt	LTP278	ltpFR	16	8	0	GRILL	661	n/a	n/a	0	0.57763671875	0.412841796875	1	upper	amplitud.ttf
1079724	WORD	wordpools/wasnorm_wordpool_less_exclusions.txt	LTP278	ltpFR	16	8	0	DIME	466	n/a	n/a	0	0.57763671875	0.412841796875	1	upper	amplitud.ttf
1083767	WORD	wordpools/wasnorm_wordpool_less_exclusions.txt	LTP278	ltpFR	16	8	0	BURGLAR	200	n/a	n/a	1	0.57763671875	0.412841796875	1	upper	amplitud.ttf
1087861	WORD	wordpools/wasnorm_wordpool_less_exclusions.txt	LTP278	ltpFR	16	8	0	HAMBURGER	679	n/a	n/a	1	0.57763671875	0.412841796875	1	upper	amplitud.ttf
1092039	WORD	wordpools/wasnorm_wordpool_less_exclusions.txt	LTP278	ltpFR	16	8	0	WAVE	1596	n/a	n/a	1	0.57763671875	0.412841796875	1	upper	amplitud.ttf
1095966	WORD	wordpools/wasnorm_wordpool_less_exclusions.txt	LTP278	ltpFR	16	8	0	REEF	1177	n/a	n/a	0	0.57763671875	0.412841796875	1	upper	amplitud.ttf
1100043	WORD	wordpools/wasnorm_wordpool_less_exclusions.txt	LTP278	ltpFR	16	8	0	TUNNEL	1519	n/a	n/a	1	0.57763671875	0.412841796875	1	upper	amplitud.ttf
1103937	WORD	wordpools/wasnorm_wordpool_less_exclusions.txt	LTP278	ltpFR	16	8	0	CRICKET	408	n/a	n/a	0	0.57763671875	0.412841796875	1	upper	amplitud.ttf
1107948	WORD	wordpools/wasnorm_wordpool_less_exclusions.txt	LTP278	ltpFR	16	8	0	ANT	25	n/a	n/a	0	0.57763671875	0.412841796875	1	upper	amplitud.ttf
1111859	WORD	wordpools/wasnorm_wordpool_less_exclusions.txt	LTP278	ltpFR	16	8	0	DISH	474	n/a	n/a	0	0.57763671875	0.412841796875	1	upper	amplitud.ttf
1116003	WORD	wordpools/wasnorm_wordpool_less_exclusions.txt	LTP278	ltpFR	16	8	0	COOKIE	374	n/a	n/a	1	0.57763671875	0.412841796875	1	upper	amplitud.ttf
1121728	REC_START	n/a	LTP278	ltpFR	16	8	n/a	n/a	n/a	n/a	n/a	n/a	n/a	n/a	n/a	n/a	n/a
1123023	REC_WORD	wordpools/wasnorm_wordpool_less_exclusions.txt	LTP278	ltpFR	16	8	0	HAMBURGER	679	n/a	n/a	1	n/a	n/a	n/a	n/a	n/a
1124169	REC_WORD	wordpools/wasnorm_wordpool_less_exclusions.txt	LTP278	ltpFR	16	8	0	BURGLAR	200	n/a	n/a	1	n/a	n/a	n/a	n/a	n/a
1125000	REC_WORD	wordpools/wasnorm_wordpool_less_exclusions.txt	LTP278	ltpFR	16	8	0	DIME	466	n/a	n/a	0	n/a	n/a	n/a	n/a	n/a
1125907	REC_WORD	wordpools/wasnorm_wordpool_less_exclusions.txt	LTP278	ltpFR	16	8	0	PENNY	1045	n/a	n/a	0	n/a	n/a	n/a	n/a	n/a
1126768	REC_WORD	wordpools/wasnorm_wordpool_less_exclusions.txt	LTP278	ltpFR	16	8	0	VILLAGE	1566	n/a	n/a	1	n/a	n/a	n/a	n/a	n/a
1127524	REC_WORD	wordpools/wasnorm_wordpool_less_exclusions.txt	LTP278	ltpFR	16	8	0	SURF	1412	n/a	n/a	1	n/a	n/a	n/a	n/a	n/a
1128390	REC_WORD	wordpools/wasnorm_wordpool_less_exclusions.txt	LTP278	ltpFR	16	8	0	BLOCKADE	137	n/a	n/a	1	n/a	n/a	n/a	n/a	n/a
1129469	REC_WORD	wordpools/wasnorm_wordpool_less_exclusions.txt	LTP278	ltpFR	16	8	0	HALL	677	n/a	n/a	0	n/a	n/a	n/a	n/a	n/a
1130886	REC_WORD	wordpools/wasnorm_wordpool_less_exclusions.txt	LTP278	ltpFR	16	8	0	REEF	1177	n/a	n/a	0	n/a	n/a	n/a	n/a	n/a
1132952	REC_WORD	wordpools/wasnorm_wordpool_less_exclusions.txt	LTP278	ltpFR	16	8	0	TUNNEL	1519	n/a	n/a	1	n/a	n/a	n/a	n/a	n/a
1133918	REC_WORD	wordpools/wasnorm_wordpool_less_exclusions.txt	LTP278	ltpFR	16	8	0	ANT	25	n/a	n/a	0	n/a	n/a	n/a	n/a	n/a
1134863	REC_WORD	wordpools/wasnorm_wordpool_less_exclusions.txt	LTP278	ltpFR	16	8	0	GRASSHOPPER	656	n/a	n/a	0	n/a	n/a	n/a	n/a	n/a
1137262	REC_WORD	wordpools/wasnorm_wordpool_less_exclusions.txt	LTP278	ltpFR	16	8	0	CRICKET	408	n/a	n/a	0	n/a	n/a	n/a	n/a	n/a
1197349	REST_REWET	n/a	LTP278	ltpFR	16	8	n/a	n/a	n/a	n/a	n/a	n/a	n/a	n/a	n/a	n/a	n/a
1492740	WORD	wordpools/wasnorm_wordpool_less_exclusions.txt	LTP278	ltpFR	16	9	1	CORAL	378	n/a	n/a	1	0.422607421875	0.5869140625	0	lower	zerothre.ttf
1496934	WORD	wordpools/wasnorm_wordpool_less_exclusions.txt	LTP278	ltpFR	16	9	1	OATMEAL	967	n/a	n/a	0	0.422607421875	0.5869140625	0	lower	zerothre.ttf
1501061	WORD	wordpools/wasnorm_wordpool_less_exclusions.txt	LTP278	ltpFR	16	9	1	HEATER	698	n/a	n/a	0	0.422607421875	0.5869140625	0	lower	zerothre.ttf
1504955	WORD	wordpools/wasnorm_wordpool_less_exclusions.txt	LTP278	ltpFR	16	9	0	TUB	1514	n/a	n/a	1	0.57763671875	0.412841796875	1	upper	amplitud.ttf
1508800	WORD	wordpools/wasnorm_wordpool_less_exclusions.txt	LTP278	ltpFR	16	9	0	BAY	102	n/a	n/a	1	0.57763671875	0.412841796875	1	upper	amplitud.ttf
1512893	WORD	wordpools/wasnorm_wordpool_less_exclusions.txt	LTP278	ltpFR	16	9	0	RAFT	1159	n/a	n/a	1	0.57763671875	0.412841796875	1	upper	amplitud.ttf
1517054	WORD	wordpools/wasnorm_wordpool_less_exclusions.txt	LTP278	ltpFR	16	9	0	STRAWBERRY	1391	n/a	n/a	0	0.57763671875	0.412841796875	1	upper	amplitud.ttf
1521232	WORD	wordpools/wasnorm_wordpool_less_exclusions.txt	LTP278	ltpFR	16	9	0	ROSE	1212	n/a	n/a	1	0.57763671875	0.412841796875	1	upper	amplitud.ttf
1525158	WORD	wordpools/wasnorm_wordpool_less_exclusions.txt	LTP278	ltpFR	16	9	0	SALIVA	1226	n/a	n/a	0	0.57763671875	0.412841796875	1	upper	amplitud.ttf
1529337	WORD	wordpools/wasnorm_wordpool_less_exclusions.txt	LTP278	ltpFR	16	9	1	WHALE	1601	n/a	n/a	1	0.422607421875	0.5869140625	0	lower	zerothre.ttf
1533197	WORD	wordpools/wasnorm_wordpool_less_exclusions.txt	LTP278	ltpFR	16	9	1	DAISY	435	n/a	n/a	1	0.422607421875	0.5869140625	0	lower	zerothre.ttf
1537325	WORD	wordpools/wasnorm_wordpool_less_exclusions.txt	LTP278	ltpFR	16	9	1	SKIRT	1319	n/a	n/a	0	0.422607421875	0.5869140625	0	lower	zerothre.ttf
1541451	WORD	wordpools/wasnorm_wordpool_less_exclusions.txt	LTP278	ltpFR	16	9	0	PANTS	1010	n/a	n/a	0	0.57763671875	0.412841796875	1	upper	amplitud.ttf
1545645	WORD	wordpools/wasnorm_wordpool_less_exclusions.txt	LTP278	ltpFR	16	9	0	FUGITIVE	612	n/a	n/a	1	0.57763671875	0.412841796875	1	upper	amplitud.ttf
1549772	WORD	wordpools/wasnorm_wordpool_less_exclusions.txt	LTP278	ltpFR	16	9	1	WASP	1593	n/a	n/a	0	0.422607421875	0.5869140625	0	lower	zerothre.ttf
1553633	WORD	wordpools/wasnorm_wordpool_less_exclusions.txt	LTP278	ltpFR	16	9	1	CHIEF	298	n/a	n/a	1	0.422607421875	0.5869140625	0	lower	zerothre.ttf
1559624	REC_START	n/a	LTP278	ltpFR	16	9	n/a	n/a	n/a	n/a	n/a	n/a	n/a	n/a	n/a	n/a	n/a
1559953	REC_WORD	wordpools/wasnorm_wordpool_less_exclusions.txt	LTP278	ltpFR	16	9	1	CHIEF	298	n/a	n/a	1	n/a	n/a	n/a	n/a	n/a
1560430	REC_WORD	wordpools/wasnorm_wordpool_less_exclusions.txt	LTP278	ltpFR	16	9	0	FUGITIVE	612	n/a	n/a	1	n/a	n/a	n/a	n/a	n/a
1561286	REC_WORD	wordpools/wasnorm_wordpool_less_exclusions.txt	LTP278	ltpFR	16	9	1	DAISY	435	n/a	n/a	1	n/a	n/a	n/a	n/a	n/a
1561793	REC_WORD	wordpools/wasnorm_wordpool_less_exclusions.txt	LTP278	ltpFR	16	9	1	WHALE	1601	n/a	n/a	1	n/a	n/a	n/a	n/a	n/a
1562514	REC_WORD	wordpools/wasnorm_wordpool_less_exclusions.txt	LTP278	ltpFR	16	9	1	WASP	1593	n/a	n/a	0	n/a	n/a	n/a	n/a	n/a
1563302	REC_WORD	wordpools/wasnorm_wordpool_less_exclusions.txt	LTP278	ltpFR	16	9	0	PANTS	1010	n/a	n/a	0	n/a	n/a	n/a	n/a	n/a
1563984	REC_WORD	wordpools/wasnorm_wordpool_less_exclusions.txt	LTP278	ltpFR	16	9	1	SKIRT	1319	n/a	n/a	0	n/a	n/a	n/a	n/a	n/a
1568359	REC_WORD	wordpools/wasnorm_wordpool_less_exclusions.txt	LTP278	ltpFR	16	9	1	OATMEAL	967	n/a	n/a	0	n/a	n/a	n/a	n/a	n/a
1570755	REC_WORD	wordpools/wasnorm_wordpool_less_exclusions.txt	LTP278	ltpFR	16	9	0	BAY	102	n/a	n/a	1	n/a	n/a	n/a	n/a	n/a
1573106	REC_WORD	wordpools/wasnorm_wordpool_less_exclusions.txt	LTP278	ltpFR	16	9	0	RAFT	1159	n/a	n/a	1	n/a	n/a	n/a	n/a	n/a
1575018	REC_WORD	wordpools/wasnorm_wordpool_less_exclusions.txt	LTP278	ltpFR	16	9	0	TUB	1514	n/a	n/a	1	n/a	n/a	n/a	n/a	n/a
1575540	REC_WORD	wordpools/wasnorm_wordpool_less_exclusions.txt	LTP278	ltpFR	16	9	1	HEATER	698	n/a	n/a	0	n/a	n/a	n/a	n/a	n/a
1581645	REC_WORD	wordpools/wasnorm_wordpool_less_exclusions.txt	LTP278	ltpFR	16	9	1	CORAL	378	n/a	n/a	1	n/a	n/a	n/a	n/a	n/a
1637857	WORD	wordpools/wasnorm_wordpool_less_exclusions.txt	LTP278	ltpFR	16	10	0	PERCH	1048	n/a	n/a	1	0.57763671875	0.412841796875	1	upper	amplitud.ttf
1642034	WORD	wordpools/wasnorm_wordpool_less_exclusions.txt	LTP278	ltpFR	16	10	0	HEN	703	n/a	n/a	0	0.57763671875	0.412841796875	1	upper	amplitud.ttf
1646045	WORD	wordpools/wasnorm_wordpool_less_exclusions.txt	LTP278	ltpFR	16	10	0	CREEK	404	n/a	n/a	1	0.57763671875	0.412841796875	1	upper	amplitud.ttf
1650005	WORD	wordpools/wasnorm_wordpool_less_exclusions.txt	LTP278	ltpFR	16	10	0	LOCK	838	n/a	n/a	0	0.57763671875	0.412841796875	1	upper	amplitud.ttf
1654083	WORD	wordpools/wasnorm_wordpool_less_exclusions.txt	LTP278	ltpFR	16	10	0	KEY	773	n/a	n/a	0	0.57763671875	0.412841796875	1	upper	amplitud.ttf
1658311	WORD	wordpools/wasnorm_wordpool_less_exclusions.txt	LTP278	ltpFR	16	10	0	BOX	159	n/a	n/a	1	0.57763671875	0.412841796875	1	upper	amplitud.ttf
1662154	WORD	wordpools/wasnorm_wordpool_less_exclusions.txt	LTP278	ltpFR	16	10	0	CUBE	420	n/a	n/a	0	0.57763671875	0.412841796875	1	upper	amplitud.ttf
1665982	WORD	wordpools/wasnorm_wordpool_less_exclusions.txt	LTP278	ltpFR	16	10	0	STAGE	1366	n/a	n/a	0	0.57763671875	0.412841796875	1	upper	amplitud.ttf
1669892	WORD	wordpools/wasnorm_wordpool_less_exclusions.txt	LTP278	ltpFR	16	10	0	STEAM	1375	n/a	n/a	1	0.57763671875	0.412841796875	1	upper	amplitud.ttf
1673970	WORD	wordpools/wasnorm_wordpool_less_exclusions.txt	LTP278	ltpFR	16	10	0	WINDSHIELD	1612	n/a	n/a	1	0.57763671875	0.412841796875	1	upper	amplitud.ttf
1678198	WORD	wordpools/wasnorm_wordpool_less_exclusions.txt	LTP278	ltpFR	16	10	0	FAMILY	550	n/a	n/a	1	0.57763671875	0.412841796875	1	upper	amplitud.ttf
1682292	WORD	wordpools/wasnorm_wordpool_less_exclusions.txt	LTP278	ltpFR	16	10	0	STAPLER	1372	n/a	n/a	0	0.57763671875	0.412841796875	1	upper	amplitud.ttf
1686352	WORD	wordpools/wasnorm_wordpool_less_exclusions.txt	LTP278	ltpFR	16	10	0	OPERA	978	n/a	n/a	1	0.57763671875	0.412841796875	1	upper	amplitud.ttf
1690296	WORD	wordpools/wasnorm_wordpool_less_exclusions.txt	LTP278	ltpFR	16	10	0	STREAM	1392	n/a	n/a	0	0.57763671875	0.412841796875	1	upper	amplitud.ttf
1694274	WORD	wordpools/wasnorm_wordpool_less_exclusions.txt	LTP278	ltpFR	16	10	0	ROOT	1210	n/a	n/a	1	0.57763671875	0.412841796875	1	upper	amplitud.ttf
1698183	WORD	wordpools/wasnorm_wordpool_less_exclusions.txt	LTP278	ltpFR	16	10	0	TEAPOT	1442	n/a	n/a	1	0.57763671875	0.412841796875	1	upper	amplitud.ttf
1704109	REC_START	n/a	LTP278	ltpFR	16	10	n/a	n/a	n/a	n/a	n/a	n/a	n/a	n/a	n/a	n/a	n/a
1704833	REC_WORD	wordpools/wasnorm_wordpool_less_exclusions.txt	LTP278	ltpFR	16	10	0	HEN	703	n/a	n/a	0	n/a	n/a	n/a	n/a	n/a
1705411	REC_WORD	wordpools/wasnorm_wordpool_less_exclusions.txt	LTP278	ltpFR	16	10	0	STREAM	1392	n/a	n/a	0	n/a	n/a	n/a	n/a	n/a
1706214	REC_WORD	wordpools/wasnorm_wordpool_less_exclusions.txt	LTP278	ltpFR	16	10	0	CREEK	404	n/a	n/a	1	n/a	n/a	n/a	n/a	n/a
1707002	REC_WORD	wordpools/wasnorm_wordpool_less_exclusions.txt	LTP278	ltpFR	16	10	0	PERCH	1048	n/a	n/a	1	n/a	n/a	n/a	n/a	n/a
1707657	REC_WORD	wordpools/wasnorm_wordpool_less_exclusions.txt	LTP278	ltpFR	16	10	0	KEY	773	n/a	n/a	0	n/a	n/a	n/a	n/a	n/a
1708330	REC_WORD	wordpools/wasnorm_wordpool_less_exclusions.txt	LTP278	ltpFR	16	10	0	BOX	159	n/a	n/a	1	n/a	n/a	n/a	n/a	n/a
1708936	REC_WORD	wordpools/wasnorm_wordpool_less_exclusions.txt	LTP278	ltpFR	16	10	0	LOCK	838	n/a	n/a	0	n/a	n/a	n/a	n/a	n/a
1709619	REC_WORD	wordpools/wasnorm_wordpool_less_exclusions.txt	LTP278	ltpFR	16	10	0	CUBE	420	n/a	n/a	0	n/a	n/a	n/a	n/a	n/a
1711660	REC_WORD	wordpools/wasnorm_wordpool_less_exclusions.txt	LTP278	ltpFR	16	10	0	FAMILY	550	n/a	n/a	1	n/a	n/a	n/a	n/a	n/a
1714163	REC_WORD	wordpools/wasnorm_wordpool_less_exclusions.txt	LTP278	ltpFR	16	10	0	STAPLER	1372	n/a	n/a	0	n/a	n/a	n/a	n/a	n/a
1717535	REC_WORD	wordpools/wasnorm_wordpool_less_exclusions.txt	LTP278	ltpFR	16	10	0	ROOT	1210	n/a	n/a	1	n/a	n/a	n/a	n/a	n/a
1804608	WORD	wordpools/wasnorm_wordpool_less_exclusions.txt	LTP278	ltpFR	16	11	-1	RUST	1219	n/a	n/a	-1	1.0	1.0	1	upper	Verdana.ttf
1808535	WORD	wordpools/wasnorm_wordpool_less_exclusions.txt	LTP278	ltpFR	16	11	-1	VAULT	1550	n/a	n/a	-1	1.0	1.0	1	upper	Verdana.ttf
1812446	WORD	wordpools/wasnorm_wordpool_less_exclusions.txt	LTP278	ltpFR	16	11	-1	CARAVAN	242	n/a	n/a	-1	1.0	1.0	1	upper	Verdana.ttf
1816440	WORD	wordpools/wasnorm_wordpool_less_exclusions.txt	LTP278	ltpFR	16	11	-1	SIREN	1310	n/a	n/a	-1	1.0	1.0	1	upper	Verdana.ttf
1820501	WORD	wordpools/wasnorm_wordpool_less_exclusions.txt	LTP278	ltpFR	16	11	-1	POLICE	1098	n/a	n/a	-1	1.0	1.0	1	upper	Verdana.ttf
1824478	WORD	wordpools/wasnorm_wordpool_less_exclusions.txt	LTP278	ltpFR	16	11	-1	VAN	1548	n/a	n/a	-1	1.0	1.0	1	upper	Verdana.ttf
1828472	WORD	wordpools/wasnorm_wordpool_less_exclusions.txt	LTP278	ltpFR	16	11	-1	PAN	1008	n/a	n/a	-1	1.0	1.0	1	upper	Verdana.ttf
1832317	WORD	wordpools/wasnorm_wordpool_less_exclusions.txt	LTP278	ltpFR	16	11	-1	PIRATE	1074	n/a	n/a	-1	1.0	1.0	1	upper	Verdana.ttf
1836411	WORD	wordpools/wasnorm_wordpool_less_exclusions.txt	LTP278	ltpFR	16	11	-1	RANCH	1166	n/a	n/a	-1	1.0	1.0	1	upper	Verdana.ttf
1840422	WORD	wordpools/wasnorm_wordpool_less_exclusions.txt	LTP278	ltpFR	16	11	-1	BUGGY	188	n/a	n/a	-1	1.0	1.0	1	upper	Verdana.ttf
1844250	WORD	wordpools/wasnorm_wordpool_less_exclusions.txt	LTP278	ltpFR	16	11	-1	LEADER	807	n/a	n/a	-1	1.0	1.0	1	upper	Verdana.ttf
1848210	WORD	wordpools/wasnorm_wordpool_less_exclusions.txt	LTP278	ltpFR	16	11	-1	KETTLE	772	n/a	n/a	-1	1.0	1.0	1	upper	Verdana.ttf
1852254	WORD	wordpools/wasnorm_wordpool_less_exclusions.txt	LTP278	ltpFR	16	11	-1	TRENCH	1503	n/a	n/a	-1	1.0	1.0	1	upper	Verdana.ttf
1856148	WORD	wordpools/wasnorm_wordpool_less_exclusions.txt	LTP278	ltpFR	16	11	-1	BLOUSE	139	n/a	n/a	-1	1.0	1.0	1	upper	Verdana.ttf
1860276	WORD	wordpools/wasnorm_wordpool_less_exclusions.txt	LTP278	ltpFR	16	11	-1	COOK	372	n/a	n/a	-1	1.0	1.0	1	upper	Verdana.ttf
1864253	WORD	wordpools/wasnorm_wordpool_less_exclusions.txt	LTP278	ltpFR	16	11	-1	CURB	426	n/a	n/a	-1	1.0	1.0	1	upper	Verdana.ttf
1870061	REC_START	n/a	LTP278	ltpFR	16	11	n/a	n/a	n/a	n/a	n/a	n/a	n/a	n/a	n/a	n/a	n/a
1871298	REC_WORD	wordpools/wasnorm_wordpool_less_exclusions.txt	LTP278	ltpFR	16	11	-1	VAULT	1550	n/a	n/a	-1	n/a	n/a	n/a	n/a	n/a
1872083	REC_WORD	wordpools/wasnorm_wordpool_less_exclusions.txt	LTP278	ltpFR	16	11	-1	RUST	1219	n/a	n/a	-1	n/a	n/a	n/a	n/a	n/a
1872924	REC_WORD	wordpools/wasnorm_wordpool_less_exclusions.txt	LTP278	ltpFR	16	11	-1	CARAVAN	242	n/a	n/a	-1	n/a	n/a	n/a	n/a	n/a
1873768	REC_WORD	wordpools/wasnorm_wordpool_less_exclusions.txt	LTP278	ltpFR	16	11	-1	VAN	1548	n/a	n/a	-1	n/a	n/a	n/a	n/a	n/a
1874629	REC_WORD	wordpools/wasnorm_wordpool_less_exclusions.txt	LTP278	ltpFR	16	11	-1	BUGGY	188	n/a	n/a	-1	n/a	n/a	n/a	n/a	n/a
1875467	REC_WORD	wordpools/wasnorm_wordpool_less_exclusions.txt	LTP278	ltpFR	16	11	-1	PIRATE	1074	n/a	n/a	-1	n/a	n/a	n/a	n/a	n/a
1876194	REC_WORD	wordpools/wasnorm_wordpool_less_exclusions.txt	LTP278	ltpFR	16	11	-1	BLOUSE	139	n/a	n/a	-1	n/a	n/a	n/a	n/a	n/a
1878760	REC_WORD	wordpools/wasnorm_wordpool_less_exclusions.txt	LTP278	ltpFR	16	11	-1	PAN	1008	n/a	n/a	-1	n/a	n/a	n/a	n/a	n/a
1880933	REC_WORD	wordpools/wasnorm_wordpool_less_exclusions.txt	LTP278	ltpFR	16	11	-1	POLICE	1098	n/a	n/a	-1	n/a	n/a	n/a	n/a	n/a
1881496	REC_WORD	wordpools/wasnorm_wordpool_less_exclusions.txt	LTP278	ltpFR	16	11	-1	SIREN	1310	n/a	n/a	-1	n/a	n/a	n/a	n/a	n/a
1883814	REC_WORD	wordpools/wasnorm_wordpool_less_exclusions.txt	LTP278	ltpFR	16	11	-1	KETTLE	772	n/a	n/a	-1	n/a	n/a	n/a	n/a	n/a
1886085	REC_WORD	wordpools/wasnorm_wordpool_less_exclusions.txt	LTP278	ltpFR	16	11	-1	CURB	426	n/a	n/a	-1	n/a	n/a	n/a	n/a	n/a
1887332	REC_WORD	wordpools/wasnorm_wordpool_less_exclusions.txt	LTP278	ltpFR	16	11	-1	RANCH	1166	n/a	n/a	-1	n/a	n/a	n/a	n/a	n/a
1891434	REC_WORD	wordpools/wasnorm_wordpool_less_exclusions.txt	LTP278	ltpFR	16	11	-1	LEADER	807	n/a	n/a	-1	n/a	n/a	n/a	n/a	n/a
1948709	WORD	wordpools/wasnorm_wordpool_less_exclusions.txt	LTP278	ltpFR	16	12	-1	LOUNGE	845	n/a	n/a	-1	1.0	1.0	1	upper	Verdana.ttf
1952687	WORD	wordpools/wasnorm_wordpool_less_exclusions.txt	LTP278	ltpFR	16	12	-1	TRAY	1498	n/a	n/a	-1	1.0	1.0	1	upper	Verdana.ttf
1956531	WORD	wordpools/wasnorm_wordpool_less_exclusions.txt	LTP278	ltpFR	16	12	-1	SPOON	1357	n/a	n/a	-1	1.0	1.0	1	upper	Verdana.ttf
1960426	WORD	wordpools/wasnorm_wordpool_less_exclusions.txt	LTP278	ltpFR	16	12	-1	CLARINET	317	n/a	n/a	-1	1.0	1.0	1	upper	Verdana.ttf
1964287	WORD	wordpools/wasnorm_wordpool_less_exclusions.txt	LTP278	ltpFR	16	12	-1	TIMBER	1469	n/a	n/a	-1	1.0	1.0	1	upper	Verdana.ttf
1968496	WORD	wordpools/wasnorm_wordpool_less_exclusions.txt	LTP278	ltpFR	16	12	-1	SNAKE	1333	n/a	n/a	-1	1.0	1.0	1	upper	Verdana.ttf
1972574	WORD	wordpools/wasnorm_wordpool_less_exclusions.txt	LTP278	ltpFR	16	12	-1	FIDDLE	561	n/a	n/a	-1	1.0	1.0	1	upper	Verdana.ttf
1976518	WORD	wordpools/wasnorm_wordpool_less_exclusions.txt	LTP278	ltpFR	16	12	-1	ENGINEER	536	n/a	n/a	-1	1.0	1.0	1	upper	Verdana.ttf
1980578	WORD	wordpools/wasnorm_wordpool_less_exclusions.txt	LTP278	ltpFR	16	12	-1	PUB	1135	n/a	n/a	-1	1.0	1.0	1	upper	Verdana.ttf
1984473	WORD	wordpools/wasnorm_wordpool_less_exclusions.txt	LTP278	ltpFR	16	12	-1	STUDENT	1395	n/a	n/a	-1	1.0	1.0	1	upper	Verdana.ttf
1988550	WORD	wordpools/wasnorm_wordpool_less_exclusions.txt	LTP278	ltpFR	16	12	-1	CRAYON	401	n/a	n/a	-1	1.0	1.0	1	upper	Verdana.ttf
1992760	WORD	wordpools/wasnorm_wordpool_less_exclusions.txt	LTP278	ltpFR	16	12	-1	FLESH	579	n/a	n/a	-1	1.0	1.0	1	upper	Verdana.ttf
1996804	WORD	wordpools/wasnorm_wordpool_less_exclusions.txt	LTP278	ltpFR	16	12	-1	AUTOMOBILE	62	n/a	n/a	-1	1.0	1.0	1	upper	Verdana.ttf
2000798	WORD	wordpools/wasnorm_wordpool_less_exclusions.txt	LTP278	ltpFR	16	12	-1	RADIATOR	1156	n/a	n/a	-1	1.0	1.0	1	upper	Verdana.ttf
2004892	WORD	wordpools/wasnorm_wordpool_less_exclusions.txt	LTP278	ltpFR	16	12	-1	COIN	343	n/a	n/a	-1	1.0	1.0	1	upper	Verdana.ttf
2008803	WORD	wordpools/wasnorm_wordpool_less_exclusions.txt	LTP278	ltpFR	16	12	-1	STUMP	1396	n/a	n/a	-1	1.0	1.0	1	upper	Verdana.ttf
2014612	REC_START	n/a	LTP278	ltpFR	16	12	n/a	n/a	n/a	n/a	n/a	n/a	n/a	n/a	n/a	n/a	n/a
2015884	REC_WORD	wordpools/wasnorm_wordpool_less_exclusions.txt	LTP278	ltpFR	16	12	-1	LOUNGE	845	n/a	n/a	-1	n/a	n/a	n/a	n/a	n/a
2016888	REC_WORD	wordpools/wasnorm_wordpool_less_exclusions.txt	LTP278	ltpFR	16	12	-1	ENGINEER	536	n/a	n/a	-1	n/a	n/a	n/a	n/a	n/a
2017364	REC_WORD	wordpools/wasnorm_wordpool_less_exclusions.txt	LTP278	ltpFR	16	12	-1	STUDENT	1395	n/a	n/a	-1	n/a	n/a	n/a	n/a	n/a
2018924	REC_WORD	wordpools/wasnorm_wordpool_less_exclusions.txt	LTP278	ltpFR	16	12	-1	PUB	1135	n/a	n/a	-1	n/a	n/a	n/a	n/a	n/a
2023074	REC_WORD	wordpools/wasnorm_wordpool_less_exclusions.txt	LTP278	ltpFR	16	12	-1	TRAY	1498	n/a	n/a	-1	n/a	n/a	n/a	n/a	n/a
2023735	REC_WORD	wordpools/wasnorm_wordpool_less_exclusions.txt	LTP278	ltpFR	16	12	-1	SPOON	1357	n/a	n/a	-1	n/a	n/a	n/a	n/a	n/a
2024648	REC_WORD	wordpools/wasnorm_wordpool_less_exclusions.txt	LTP278	ltpFR	16	12	-1	CLARINET	317	n/a	n/a	-1	n/a	n/a	n/a	n/a	n/a
2025489	REC_WORD	wordpools/wasnorm_wordpool_less_exclusions.txt	LTP278	ltpFR	16	12	-1	TIMBER	1469	n/a	n/a	-1	n/a	n/a	n/a	n/a	n/a
2026171	REC_WORD	wordpools/wasnorm_wordpool_less_exclusions.txt	LTP278	ltpFR	16	12	-1	FIDDLE	561	n/a	n/a	-1	n/a	n/a	n/a	n/a	n/a
2026945	REC_WORD	wordpools/wasnorm_wordpool_less_exclusions.txt	LTP278	ltpFR	16	12	-1	SNAKE	1333	n/a	n/a	-1	n/a	n/a	n/a	n/a	n/a
2040045	REC_WORD	wordpools/wasnorm_wordpool_less_exclusions.txt	LTP278	ltpFR	16	12	-1	AUTOMOBILE	62	n/a	n/a	-1	n/a	n/a	n/a	n/a	n/a
2041410	REC_WORD	wordpools/wasnorm_wordpool_less_exclusions.txt	LTP278	ltpFR	16	12	-1	COIN	343	n/a	n/a	-1	n/a	n/a	n/a	n/a	n/a
2043165	REC_WORD	wordpools/wasnorm_wordpool_less_exclusions.txt	LTP278	ltpFR	16	12	-1	STUMP	1396	n/a	n/a	-1	n/a	n/a	n/a	n/a	n/a
2046020	REC_WORD	wordpools/wasnorm_wordpool_less_exclusions.txt	LTP278	ltpFR	16	12	-1	RADIATOR	1156	n/a	n/a	-1	n/a	n/a	n/a	n/a	n/a
2093311	WORD	wordpools/wasnorm_wordpool_less_exclusions.txt	LTP278	ltpFR	16	13	1	DEPUTY	450	n/a	n/a	1	0.422607421875	0.5869140625	0	lower	zerothre.ttf
2097222	WORD	wordpools/wasnorm_wordpool_less_exclusions.txt	LTP278	ltpFR	16	13	1	DOUGHNUT	490	n/a	n/a	0	0.422607421875	0.5869140625	0	lower	zerothre.ttf
2101366	WORD	wordpools/wasnorm_wordpool_less_exclusions.txt	LTP278	ltpFR	16	13	1	MONKEY	911	n/a	n/a	1	0.422607421875	0.5869140625	0	lower	zerothre.ttf
2105277	WORD	wordpools/wasnorm_wordpool_less_exclusions.txt	LTP278	ltpFR	16	13	1	LODGE	839	n/a	n/a	0	0.422607421875	0.5869140625	0	lower	zerothre.ttf
2109103	WORD	wordpools/wasnorm_wordpool_less_exclusions.txt	LTP278	ltpFR	16	13	1	GUEST	669	n/a	n/a	0	0.422607421875	0.5869140625	0	lower	zerothre.ttf
2113064	WORD	wordpools/wasnorm_wordpool_less_exclusions.txt	LTP278	ltpFR	16	13	1	SINK	1309	n/a	n/a	0	0.422607421875	0.5869140625	0	lower	zerothre.ttf
2117108	WORD	wordpools/wasnorm_wordpool_less_exclusions.txt	LTP278	ltpFR	16	13	1	MANSION	864	n/a	n/a	0	0.422607421875	0.5869140625	0	lower	zerothre.ttf
2121152	WORD	wordpools/wasnorm_wordpool_less_exclusions.txt	LTP278	ltpFR	16	13	1	VISITOR	1573	n/a	n/a	0	0.422607421875	0.5869140625	0	lower	zerothre.ttf
2124979	WORD	wordpools/wasnorm_wordpool_less_exclusions.txt	LTP278	ltpFR	16	13	1	TAXI	1438	n/a	n/a	0	0.422607421875	0.5869140625	0	lower	zerothre.ttf
2129040	WORD	wordpools/wasnorm_wordpool_less_exclusions.txt	LTP278	ltpFR	16	13	1	DRIVEWAY	500	n/a	n/a	0	0.422607421875	0.5869140625	0	lower	zerothre.ttf
2132901	WORD	wordpools/wasnorm_wordpool_less_exclusions.txt	LTP278	ltpFR	16	13	1	SLEEVE	1324	n/a	n/a	0	0.422607421875	0.5869140625	0	lower	zerothre.ttf
2137111	WORD	wordpools/wasnorm_wordpool_less_exclusions.txt	LTP278	ltpFR	16	13	1	DENIM	446	n/a	n/a	0	0.422607421875	0.5869140625	0	lower	zerothre.ttf
2141089	WORD	wordpools/wasnorm_wordpool_less_exclusions.txt	LTP278	ltpFR	16	13	1	BALLERINA	74	n/a	n/a	1	0.422607421875	0.5869140625	0	lower	zerothre.ttf
2145033	WORD	wordpools/wasnorm_wordpool_less_exclusions.txt	LTP278	ltpFR	16	13	1	JUG	762	n/a	n/a	0	0.422607421875	0.5869140625	0	lower	zerothre.ttf
2148894	WORD	wordpools/wasnorm_wordpool_less_exclusions.txt	LTP278	ltpFR	16	13	1	RAM	1165	n/a	n/a	0	0.422607421875	0.5869140625	0	lower	zerothre.ttf
2152971	WORD	wordpools/wasnorm_wordpool_less_exclusions.txt	LTP278	ltpFR	16	13	1	SAW	1239	n/a	n/a	0	0.422607421875	0.5869140625	0	lower	zerothre.ttf
2159029	REC_START	n/a	LTP278	ltpFR	16	13	n/a	n/a	n/a	n/a	n/a	n/a	n/a	n/a	n/a	n/a	n/a
2160170	REC_WORD	wordpools/wasnorm_wordpool_less_exclusions.txt	LTP278	ltpFR	16	13	1	DEPUTY	450	n/a	n/a	1	n/a	n/a	n/a	n/a	n/a
2161095	REC_WORD	wordpools/wasnorm_wordpool_less_exclusions.txt	LTP278	ltpFR	16	13	1	DOUGHNUT	490	n/a	n/a	0	n/a	n/a	n/a	n/a	n/a
2161787	REC_WORD	wordpools/wasnorm_wordpool_less_exclusions.txt	LTP278	ltpFR	16	13	1	MONKEY	911	n/a	n/a	1	n/a	n/a	n/a	n/a	n/a
2162609	REC_WORD	wordpools/wasnorm_wordpool_less_exclusions.txt	LTP278	ltpFR	16	13	1	LODGE	839	n/a	n/a	0	n/a	n/a	n/a	n/a	n/a
2164149	REC_WORD	wordpools/wasnorm_wordpool_less_exclusions.txt	LTP278	ltpFR	16	13	1	GUEST	669	n/a	n/a	0	n/a	n/a	n/a	n/a	n/a
2164976	REC_WORD	wordpools/wasnorm_wordpool_less_exclusions.txt	LTP278	ltpFR	16	13	1	SINK	1309	n/a	n/a	0	n/a	n/a	n/a	n/a	n/a
2167243	REC_WORD	wordpools/wasnorm_wordpool_less_exclusions.txt	LTP278	ltpFR	16	13	1	MANSION	864	n/a	n/a	0	n/a	n/a	n/a	n/a	n/a
2168976	REC_WORD	wordpools/wasnorm_wordpool_less_exclusions.txt	LTP278	ltpFR	16	13	1	VISITOR	1573	n/a	n/a	0	n/a	n/a	n/a	n/a	n/a
2171018	REC_WORD	wordpools/wasnorm_wordpool_less_exclusions.txt	LTP278	ltpFR	16	13	1	TAXI	1438	n/a	n/a	0	n/a	n/a	n/a	n/a	n/a
2173151	REC_WORD	wordpools/wasnorm_wordpool_less_exclusions.txt	LTP278	ltpFR	16	13	1	DRIVEWAY	500	n/a	n/a	0	n/a	n/a	n/a	n/a	n/a
2173877	REC_WORD	wordpools/wasnorm_wordpool_less_exclusions.txt	LTP278	ltpFR	16	13	1	SLEEVE	1324	n/a	n/a	0	n/a	n/a	n/a	n/a	n/a
2174545	REC_WORD	wordpools/wasnorm_wordpool_less_exclusions.txt	LTP278	ltpFR	16	13	1	DENIM	446	n/a	n/a	0	n/a	n/a	n/a	n/a	n/a
2175175	REC_WORD	wordpools/wasnorm_wordpool_less_exclusions.txt	LTP278	ltpFR	16	13	1	BALLERINA	74	n/a	n/a	1	n/a	n/a	n/a	n/a	n/a
2176143	REC_WORD	wordpools/wasnorm_wordpool_less_exclusions.txt	LTP278	ltpFR	16	13	1	SAW	1239	n/a	n/a	0	n/a	n/a	n/a	n/a	n/a
2178197	REC_WORD	wordpools/wasnorm_wordpool_less_exclusions.txt	LTP278	ltpFR	16	13	1	RAM	1165	n/a	n/a	0	n/a	n/a	n/a	n/a	n/a
2239159	WORD	wordpools/wasnorm_wordpool_less_exclusions.txt	LTP278	ltpFR	16	14	0	WINNER	1615	n/a	n/a	1	0.57763671875	0.412841796875	1	upper	amplitud.ttf
2243186	WORD	wordpools/wasnorm_wordpool_less_exclusions.txt	LTP278	ltpFR	16	14	0	SPINE	1353	n/a	n/a	0	0.57763671875	0.412841796875	1	upper	amplitud.ttf
2247381	WORD	wordpools/wasnorm_wordpool_less_exclusions.txt	LTP278	ltpFR	16	14	1	CONSUMER	365	n/a	n/a	1	0.422607421875	0.5869140625	0	lower	zerothre.ttf
2251425	WORD	wordpools/wasnorm_wordpool_less_exclusions.txt	LTP278	ltpFR	16	14	1	PELICAN	1039	n/a	n/a	0	0.422607421875	0.5869140625	0	lower	zerothre.ttf
2255435	WORD	wordpools/wasnorm_wordpool_less_exclusions.txt	LTP278	ltpFR	16	14	1	SPARROW	1347	n/a	n/a	1	0.422607421875	0.5869140625	0	lower	zerothre.ttf
2259363	WORD	wordpools/wasnorm_wordpool_less_exclusions.txt	LTP278	ltpFR	16	14	1	FARMER	553	n/a	n/a	1	0.422607421875	0.5869140625	0	lower	zerothre.ttf
2263506	WORD	wordpools/wasnorm_wordpool_less_exclusions.txt	LTP278	ltpFR	16	14	1	CLOVE	329	n/a	n/a	0	0.422607421875	0.5869140625	0	lower	zerothre.ttf
2267567	WORD	wordpools/wasnorm_wordpool_less_exclusions.txt	LTP278	ltpFR	16	14	0	BELL	118	n/a	n/a	0	0.57763671875	0.412841796875	1	upper	amplitud.ttf
2271744	WORD	wordpools/wasnorm_wordpool_less_exclusions.txt	LTP278	ltpFR	16	14	0	BEAD	103	n/a	n/a	0	0.57763671875	0.412841796875	1	upper	amplitud.ttf
2275638	WORD	wordpools/wasnorm_wordpool_less_exclusions.txt	LTP278	ltpFR	16	14	0	BEAN	105	n/a	n/a	0	0.57763671875	0.412841796875	1	upper	amplitud.ttf
2279615	WORD	wordpools/wasnorm_wordpool_less_exclusions.txt	LTP278	ltpFR	16	14	0	NEWSPAPER	948	n/a	n/a	0	0.57763671875	0.412841796875	1	upper	amplitud.ttf
2283776	WORD	wordpools/wasnorm_wordpool_less_exclusions.txt	LTP278	ltpFR	16	14	0	CHIMNEY	301	n/a	n/a	1	0.57763671875	0.412841796875	1	upper	amplitud.ttf
2287637	WORD	wordpools/wasnorm_wordpool_less_exclusions.txt	LTP278	ltpFR	16	14	0	BADGE	68	n/a	n/a	1	0.57763671875	0.412841796875	1	upper	amplitud.ttf
2291780	WORD	wordpools/wasnorm_wordpool_less_exclusions.txt	LTP278	ltpFR	16	14	1	SPY	1360	n/a	n/a	1	0.422607421875	0.5869140625	0	lower	zerothre.ttf
2295641	WORD	wordpools/wasnorm_wordpool_less_exclusions.txt	LTP278	ltpFR	16	14	1	VICTOR	1563	n/a	n/a	0	0.422607421875	0.5869140625	0	lower	zerothre.ttf
2299585	WORD	wordpools/wasnorm_wordpool_less_exclusions.txt	LTP278	ltpFR	16	14	1	VIKING	1565	n/a	n/a	0	0.422607421875	0.5869140625	0	lower	zerothre.ttf
2305378	REC_START	n/a	LTP278	ltpFR	16	14	n/a	n/a	n/a	n/a	n/a	n/a	n/a	n/a	n/a	n/a	n/a
2306805	REC_WORD	wordpools/wasnorm_wordpool_less_exclusions.txt	LTP278	ltpFR	16	14	1	CONSUMER	365	n/a	n/a	1	n/a	n/a	n/a	n/a	n/a
2308271	REC_WORD	wordpools/wasnorm_wordpool_less_exclusions.txt	LTP278	ltpFR	16	14	0	BEAN	105	n/a	n/a	0	n/a	n/a	n/a	n/a	n/a
2309403	REC_WORD	wordpools/wasnorm_wordpool_less_exclusions.txt	LTP278	ltpFR	16	14	0	BEAD	103	n/a	n/a	0	n/a	n/a	n/a	n/a	n/a
2311876	REC_WORD	wordpools/wasnorm_wordpool_less_exclusions.txt	LTP278	ltpFR	16	14	1	VIKING	1565	n/a	n/a	0	n/a	n/a	n/a	n/a	n/a
2315721	REC_WORD	wordpools/wasnorm_wordpool_less_exclusions.txt	LTP278	ltpFR	16	14	0	NEWSPAPER	948	n/a	n/a	0	n/a	n/a	n/a	n/a	n/a
2317533	REC_WORD	wordpools/wasnorm_wordpool_less_exclusions.txt	LTP278	ltpFR	16	14	0	SPINE	1353	n/a	n/a	0	n/a	n/a	n/a	n/a	n/a
2385041	WORD	wordpools/wasnorm_wordpool_less_exclusions.txt	LTP278	ltpFR	16	15	1	FIN	566	n/a	n/a	0	0.422607421875	0.5869140625	0	lower	zerothre.ttf
2389152	WORD	wordpools/wasnorm_wordpool_less_exclusions.txt	LTP278	ltpFR	16	15	1	MANAGER	863	n/a	n/a	1	0.422607421875	0.5869140625	0	lower	zerothre.ttf
2393197	WORD	wordpools/wasnorm_wordpool_less_exclusions.txt	LTP278	ltpFR	16	15	1	SECRETARY	1265	n/a	n/a	1	0.422607421875	0.5869140625	0	lower	zerothre.ttf
2397106	WORD	wordpools/wasnorm_wordpool_less_exclusions.txt	LTP278	ltpFR	16	15	1	SKILLET	1317	n/a	n/a	0	0.422607421875	0.5869140625	0	lower	zerothre.ttf
2401184	WORD	wordpools/wasnorm_wordpool_less_exclusions.txt	LTP278	ltpFR	16	15	1	EGG	518	n/a	n/a	0	0.422607421875	0.5869140625	0	lower	zerothre.ttf
2405245	WORD	wordpools/wasnorm_wordpool_less_exclusions.txt	LTP278	ltpFR	16	15	1	TOMATO	1476	n/a	n/a	0	0.422607421875	0.5869140625	0	lower	zerothre.ttf
2409138	WORD	wordpools/wasnorm_wordpool_less_exclusions.txt	LTP278	ltpFR	16	15	1	JAM	748	n/a	n/a	0	0.422607421875	0.5869140625	0	lower	zerothre.ttf
2413300	WORD	wordpools/wasnorm_wordpool_less_exclusions.txt	LTP278	ltpFR	16	15	1	SHOULDER	1294	n/a	n/a	0	0.422607421875	0.5869140625	0	lower	zerothre.ttf
2417476	WORD	wordpools/wasnorm_wordpool_less_exclusions.txt	LTP278	ltpFR	16	15	1	GUITAR	670	n/a	n/a	1	0.422607421875	0.5869140625	0	lower	zerothre.ttf
2421388	WORD	wordpools/wasnorm_wordpool_less_exclusions.txt	LTP278	ltpFR	16	15	1	SNOB	1335	n/a	n/a	1	0.422607421875	0.5869140625	0	lower	zerothre.ttf
2425282	WORD	wordpools/wasnorm_wordpool_less_exclusions.txt	LTP278	ltpFR	16	15	1	CARROT	249	n/a	n/a	0	0.422607421875	0.5869140625	0	lower	zerothre.ttf
2429293	WORD	wordpools/wasnorm_wordpool_less_exclusions.txt	LTP278	ltpFR	16	15	1	DOLPHIN	483	n/a	n/a	0	0.422607421875	0.5869140625	0	lower	zerothre.ttf
2433337	WORD	wordpools/wasnorm_wordpool_less_exclusions.txt	LTP278	ltpFR	16	15	1	APPENDAGE	32	n/a	n/a	0	0.422607421875	0.5869140625	0	lower	zerothre.ttf
2437414	WORD	wordpools/wasnorm_wordpool_less_exclusions.txt	LTP278	ltpFR	16	15	1	FEAST	556	n/a	n/a	0	0.422607421875	0.5869140625	0	lower	zerothre.ttf
2441375	WORD	wordpools/wasnorm_wordpool_less_exclusions.txt	LTP278	ltpFR	16	15	1	ABDOMEN	1	n/a	n/a	0	0.422607421875	0.5869140625	0	lower	zerothre.ttf
2445434	WORD	wordpools/wasnorm_wordpool_less_exclusions.txt	LTP278	ltpFR	16	15	1	BAND	78	n/a	n/a	0	0.422607421875	0.5869140625	0	lower	zerothre.ttf
2451093	REC_START	n/a	LTP278	ltpFR	16	15	n/a	n/a	n/a	n/a	n/a	n/a	n/a	n/a	n/a	n/a	n/a
2451841	REC_WORD	wordpools/wasnorm_wordpool_less_exclusions.txt	LTP278	ltpFR	16	15	1	FIN	566	n/a	n/a	0	n/a	n/a	n/a	n/a	n/a
2453070	REC_WORD	wordpools/wasnorm_wordpool_less_exclusions.txt	LTP278	ltpFR	16	15	1	MANAGER	863	n/a	n/a	1	n/a	n/a	n/a	n/a	n/a
2454070	REC_WORD	wordpools/wasnorm_wordpool_less_exclusions.txt	LTP278	ltpFR	16	15	1	SECRETARY	1265	n/a	n/a	1	n/a	n/a	n/a	n/a	n/a
2454866	REC_WORD	wordpools/wasnorm_wordpool_less_exclusions.txt	LTP278	ltpFR	16	15	1	SKILLET	1317	n/a	n/a	0	n/a	n/a	n/a	n/a	n/a
2456122	REC_WORD	wordpools/wasnorm_wordpool_less_exclusions.txt	LTP278	ltpFR	16	15	1	EGG	518	n/a	n/a	0	n/a	n/a	n/a	n/a	n/a
2456975	REC_WORD	wordpools/wasnorm_wordpool_less_exclusions.txt	LTP278	ltpFR	16	15	1	JAM	748	n/a	n/a	0	n/a	n/a	n/a	n/a	n/a
2459062	REC_WORD	wordpools/wasnorm_wordpool_less_exclusions.txt	LTP278	ltpFR	16	15	1	TOMATO	1476	n/a	n/a	0	n/a	n/a	n/a	n/a	n/a
2464541	REC_WORD	wordpools/wasnorm_wordpool_less_exclusions.txt	LTP278	ltpFR	16	15	1	SNOB	1335	n/a	n/a	1	n/a	n/a	n/a	n/a	n/a
2465580	REC_WORD	wordpools/wasnorm_wordpool_less_exclusions.txt	LTP278	ltpFR	16	15	1	CARROT	249	n/a	n/a	0	n/a	n/a	n/a	n/a	n/a
2466266	REC_WORD	wordpools/wasnorm_wordpool_less_exclusions.txt	LTP278	ltpFR	16	15	1	BAND	78	n/a	n/a	0	n/a	n/a	n/a	n/a	n/a
2467084	REC_WORD	wordpools/wasnorm_wordpool_less_exclusions.txt	LTP278	ltpFR	16	15	1	GUITAR	670	n/a	n/a	1	n/a	n/a	n/a	n/a	n/a
2474053	REC_WORD	wordpools/wasnorm_wordpool_less_exclusions.txt	LTP278	ltpFR	16	15	1	DOLPHIN	483	n/a	n/a	0	n/a	n/a	n/a	n/a	n/a
2479689	REC_WORD	wordpools/wasnorm_wordpool_less_exclusions.txt	LTP278	ltpFR	16	15	1	ABDOMEN	1	n/a	n/a	0	n/a	n/a	n/a	n/a	n/a
2480573	REC_WORD	wordpools/wasnorm_wordpool_less_exclusions.txt	LTP278	ltpFR	16	15	1	APPENDAGE	32	n/a	n/a	0	n/a	n/a	n/a	n/a	n/a
2483869	REC_WORD	wordpools/wasnorm_wordpool_less_exclusions.txt	LTP278	ltpFR	16	15	1	SHOULDER	1294	n/a	n/a	0	n/a	n/a	n/a	n/a	n/a
2530025	WORD	wordpools/wasnorm_wordpool_less_exclusions.txt	LTP278	ltpFR	16	16	-1	CIGAR	308	n/a	n/a	-1	1.0	1.0	1	upper	Verdana.ttf
2534019	WORD	wordpools/wasnorm_wordpool_less_exclusions.txt	LTP278	ltpFR	16	16	-1	WHISTLE	1606	n/a	n/a	-1	1.0	1.0	1	upper	Verdana.ttf
2538163	WORD	wordpools/wasnorm_wordpool_less_exclusions.txt	LTP278	ltpFR	16	16	-1	CASH	252	n/a	n/a	-1	1.0	1.0	1	upper	Verdana.ttf
2542307	WORD	wordpools/wasnorm_wordpool_less_exclusions.txt	LTP278	ltpFR	16	16	-1	ASHTRAY	45	n/a	n/a	-1	1.0	1.0	1	upper	Verdana.ttf
2546450	WORD	wordpools/wasnorm_wordpool_less_exclusions.txt	LTP278	ltpFR	16	16	-1	BASKETBALL	96	n/a	n/a	-1	1.0	1.0	1	upper	Verdana.ttf
2550477	WORD	wordpools/wasnorm_wordpool_less_exclusions.txt	LTP278	ltpFR	16	16	-1	RAG	1160	n/a	n/a	-1	1.0	1.0	1	upper	Verdana.ttf
2554688	WORD	wordpools/wasnorm_wordpool_less_exclusions.txt	LTP278	ltpFR	16	16	-1	MICROPHONE	890	n/a	n/a	-1	1.0	1.0	1	upper	Verdana.ttf
2558515	WORD	wordpools/wasnorm_wordpool_less_exclusions.txt	LTP278	ltpFR	16	16	-1	KNEE	784	n/a	n/a	-1	1.0	1.0	1	upper	Verdana.ttf
2562726	WORD	wordpools/wasnorm_wordpool_less_exclusions.txt	LTP278	ltpFR	16	16	-1	WRIST	1626	n/a	n/a	-1	1.0	1.0	1	upper	Verdana.ttf
2566587	WORD	wordpools/wasnorm_wordpool_less_exclusions.txt	LTP278	ltpFR	16	16	-1	FOREST	593	n/a	n/a	-1	1.0	1.0	1	upper	Verdana.ttf
2570681	WORD	wordpools/wasnorm_wordpool_less_exclusions.txt	LTP278	ltpFR	16	16	-1	CRUMB	416	n/a	n/a	-1	1.0	1.0	1	upper	Verdana.ttf
2574808	WORD	wordpools/wasnorm_wordpool_less_exclusions.txt	LTP278	ltpFR	16	16	-1	LOBSTER	837	n/a	n/a	-1	1.0	1.0	1	upper	Verdana.ttf
2578952	WORD	wordpools/wasnorm_wordpool_less_exclusions.txt	LTP278	ltpFR	16	16	-1	PEACH	1031	n/a	n/a	-1	1.0	1.0	1	upper	Verdana.ttf
2583046	WORD	wordpools/wasnorm_wordpool_less_exclusions.txt	LTP278	ltpFR	16	16	-1	SUBURB	1399	n/a	n/a	-1	1.0	1.0	1	upper	Verdana.ttf
2586973	WORD	wordpools/wasnorm_wordpool_less_exclusions.txt	LTP278	ltpFR	16	16	-1	CHIMPANZEE	302	n/a	n/a	-1	1.0	1.0	1	upper	Verdana.ttf
2591100	WORD	wordpools/wasnorm_wordpool_less_exclusions.txt	LTP278	ltpFR	16	16	-1	GORILLA	650	n/a	n/a	-1	1.0	1.0	1	upper	Verdana.ttf
2597009	REC_START	n/a	LTP278	ltpFR	16	16	n/a	n/a	n/a	n/a	n/a	n/a	n/a	n/a	n/a	n/a	n/a
2597337	REC_WORD	wordpools/wasnorm_wordpool_less_exclusions.txt	LTP278	ltpFR	16	16	-1	CIGAR	308	n/a	n/a	-1	n/a	n/a	n/a	n/a	n/a
2598420	REC_WORD	wordpools/wasnorm_wordpool_less_exclusions.txt	LTP278	ltpFR	16	16	-1	WHISTLE	1606	n/a	n/a	-1	n/a	n/a	n/a	n/a	n/a
2599657	REC_WORD	wordpools/wasnorm_wordpool_less_exclusions.txt	LTP278	ltpFR	16	16	-1	ASHTRAY	45	n/a	n/a	-1	n/a	n/a	n/a	n/a	n/a
2603339	REC_WORD	wordpools/wasnorm_wordpool_less_exclusions.txt	LTP278	ltpFR	16	16	-1	CASH	252	n/a	n/a	-1	n/a	n/a	n/a	n/a	n/a
2604680	REC_WORD	wordpools/wasnorm_wordpool_less_exclusions.txt	LTP278	ltpFR	16	16	-1	FOREST	593	n/a	n/a	-1	n/a	n/a	n/a	n/a	n/a
2605515	REC_WORD	wordpools/wasnorm_wordpool_less_exclusions.txt	LTP278	ltpFR	16	16	-1	KNEE	784	n/a	n/a	-1	n/a	n/a	n/a	n/a	n/a
2606468	REC_WORD	wordpools/wasnorm_wordpool_less_exclusions.txt	LTP278	ltpFR	16	16	-1	WRIST	1626	n/a	n/a	-1	n/a	n/a	n/a	n/a	n/a
2607453	REC_WORD	wordpools/wasnorm_wordpool_less_exclusions.txt	LTP278	ltpFR	16	16	-1	BASKETBALL	96	n/a	n/a	-1	n/a	n/a	n/a	n/a	n/a
2613468	REC_WORD	wordpools/wasnorm_wordpool_less_exclusions.txt	LTP278	ltpFR	16	16	1	MONKEY	911	n/a	n/a	1	n/a	n/a	n/a	n/a	n/a
2614578	REC_WORD_VV	wordpools/wasnorm_wordpool_less_exclusions.txt	LTP278	ltpFR	16	16	n/a	<>	-1	n/a	n/a	n/a	n/a	n/a	n/a	n/a	n/a
2615161	REC_WORD	wordpools/wasnorm_wordpool_less_exclusions.txt	LTP278	ltpFR	16	16	-1	CHIMPANZEE	302	n/a	n/a	-1	n/a	n/a	n/a	n/a	n/a
2615932	REC_WORD	wordpools/wasnorm_wordpool_less_exclusions.txt	LTP278	ltpFR	16	16	-1	GORILLA	650	n/a	n/a	-1	n/a	n/a	n/a	n/a	n/a
2621033	REC_WORD	wordpools/wasnorm_wordpool_less_exclusions.txt	LTP278	ltpFR	16	16	-1	FOREST	593	n/a	n/a	-1	n/a	n/a	n/a	n/a	n/a
2987260	REC_START	n/a	LTP278	ltpFR	16	1	n/a	n/a	n/a	n/a	n/a	n/a	n/a	n/a	n/a	n/a	n/a
2987293	RECOG_LURE	n/a	LTP278	ltpFR	16	1	n/a	TWINE	1529	0	4	n/a	n/a	n/a	n/a	n/a	n/a
2988660	RECOG_RESP	n/a	LTP278	ltpFR	16	1	n/a	TWINE	1529	0	n/a	n/a	n/a	n/a	n/a	n/a	n/a
2989600	RECOG_CONF	n/a	LTP278	ltpFR	16	1	n/a	TWINE	1529	n/a	4	n/a	n/a	n/a	n/a	n/a	n/a
2991769	RECOG_TARGET	n/a	LTP278	ltpFR	16	1	1	ELEVATOR	524	1	3	0	n/a	n/a	n/a	n/a	n/a
2993070	RECOG_RESP	n/a	LTP278	ltpFR	16	1	1	ELEVATOR	524	1	n/a	0	n/a	n/a	n/a	n/a	n/a
2993840	RECOG_CONF	n/a	LTP278	ltpFR	16	1	1	ELEVATOR	524	n/a	3	0	n/a	n/a	n/a	n/a	n/a
2995796	RECOG_TARGET	n/a	LTP278	ltpFR	16	1	-1	RADIATOR	1156	1	4	-1	n/a	n/a	n/a	n/a	n/a
2996325	RECOG_RESP	n/a	LTP278	ltpFR	16	1	-1	RADIATOR	1156	1	n/a	-1	n/a	n/a	n/a	n/a	n/a
2996790	RECOG_CONF	n/a	LTP278	ltpFR	16	1	-1	RADIATOR	1156	n/a	4	-1	n/a	n/a	n/a	n/a	n/a
2998575	RECOG_TARGET	n/a	LTP278	ltpFR	16	1	-1	TRENCH	1503	1	3	-1	n/a	n/a	n/a	n/a	n/a
2999120	RECOG_RESP	n/a	LTP278	ltpFR	16	1	-1	TRENCH	1503	1	n/a	-1	n/a	n/a	n/a	n/a	n/a
2999550	RECOG_CONF	n/a	LTP278	ltpFR	16	1	-1	TRENCH	1503	n/a	3	-1	n/a	n/a	n/a	n/a	n/a
3001155	RECOG_TARGET	n/a	LTP278	ltpFR	16	1	0	SURF	1412	1	4	1	n/a	n/a	n/a	n/a	n/a
3001720	RECOG_RESP	n/a	LTP278	ltpFR	16	1	0	SURF	1412	1	n/a	1	n/a	n/a	n/a	n/a	n/a
3002090	RECOG_CONF	n/a	LTP278	ltpFR	16	1	0	SURF	1412	n/a	4	1	n/a	n/a	n/a	n/a	n/a
3003884	RECOG_LURE	n/a	LTP278	ltpFR	16	1	n/a	FORT	595	1	1	n/a	n/a	n/a	n/a	n/a	n/a
3004120	RECOG_RESP	n/a	LTP278	ltpFR	16	1	n/a	FORT	595	1	n/a	n/a	n/a	n/a	n/a	n/a	n/a
3004550	RECOG_RESP_VV	n/a	LTP278	ltpFR	16	1	n/a	FORT	595	n/a	4	n/a	n/a	n/a	n/a	n/a	n/a
3005114	RECOG_CONF	n/a	LTP278	ltpFR	16	1	n/a	FORT	595	n/a	1	n/a	n/a	n/a	n/a	n/a	n/a
3006863	RECOG_LURE	n/a	LTP278	ltpFR	16	1	n/a	VESSEL	1558	0	1	n/a	n/a	n/a	n/a	n/a	n/a
3007570	RECOG_RESP	n/a	LTP278	ltpFR	16	1	n/a	VESSEL	1558	0	n/a	n/a	n/a	n/a	n/a	n/a	n/a
3008020	RECOG_CONF	n/a	LTP278	ltpFR	16	1	n/a	VESSEL	1558	n/a	1	n/a	n/a	n/a	n/a	n/a	n/a
3009792	RECOG_TARGET	n/a	LTP278	ltpFR	16	1	0	NAVIGATOR	938	1	3	1	n/a	n/a	n/a	n/a	n/a
3010350	RECOG_RESP	n/a	LTP278	ltpFR	16	1	0	NAVIGATOR	938	1	n/a	1	n/a	n/a	n/a	n/a	n/a
3010840	RECOG_CONF	n/a	LTP278	ltpFR	16	1	0	NAVIGATOR	938	n/a	3	1	n/a	n/a	n/a	n/a	n/a
3012571	RECOG_LURE	n/a	LTP278	ltpFR	16	1	n/a	PARTY	1018	0	1	n/a	n/a	n/a	n/a	n/a	n/a
3013535	RECOG_RESP	n/a	LTP278	ltpFR	16	1	n/a	PARTY	1018	0	n/a	n/a	n/a	n/a	n/a	n/a	n/a
3014000	RECOG_CONF	n/a	LTP278	ltpFR	16	1	n/a	PARTY	1018	n/a	1	n/a	n/a	n/a	n/a	n/a	n/a
3015816	RECOG_TARGET	n/a	LTP278	ltpFR	16	1	0	CUBE	420	1	5	0	n/a	n/a	n/a	n/a	n/a
3016290	RECOG_RESP	n/a	LTP278	ltpFR	16	1	0	CUBE	420	1	n/a	0	n/a	n/a	n/a	n/a	n/a
3016700	RECOG_CONF	n/a	LTP278	ltpFR	16	1	0	CUBE	420	n/a	5	0	n/a	n/a	n/a	n/a	n/a
3018512	RECOG_LURE	n/a	LTP278	ltpFR	16	1	n/a	STEP	1377	1	1	n/a	n/a	n/a	n/a	n/a	n/a
3018820	RECOG_RESP	n/a	LTP278	ltpFR	16	1	n/a	STEP	1377	1	n/a	n/a	n/a	n/a	n/a	n/a	n/a
3019340	RECOG_CONF	n/a	LTP278	ltpFR	16	1	n/a	STEP	1377	n/a	1	n/a	n/a	n/a	n/a	n/a	n/a
3021125	RECOG_LURE	n/a	LTP278	ltpFR	16	1	n/a	FAIRY	549	0	1	n/a	n/a	n/a	n/a	n/a	n/a
3021895	RECOG_RESP	n/a	LTP278	ltpFR	16	1	n/a	FAIRY	549	0	n/a	n/a	n/a	n/a	n/a	n/a	n/a
3022420	RECOG_CONF	n/a	LTP278	ltpFR	16	1	n/a	FAIRY	549	n/a	1	n/a	n/a	n/a	n/a	n/a	n/a
3024070	RECOG_LURE	n/a	LTP278	ltpFR	16	1	n/a	TRANSPLANT	1496	0	1	n/a	n/a	n/a	n/a	n/a	n/a
3025050	RECOG_RESP	n/a	LTP278	ltpFR	16	1	n/a	TRANSPLANT	1496	0	n/a	n/a	n/a	n/a	n/a	n/a	n/a
3025540	RECOG_CONF	n/a	LTP278	ltpFR	16	1	n/a	TRANSPLANT	1496	n/a	1	n/a	n/a	n/a	n/a	n/a	n/a
3027350	RECOG_TARGET	n/a	LTP278	ltpFR	16	1	0	BOX	159	1	4	1	n/a	n/a	n/a	n/a	n/a
3028660	RECOG_RESP	n/a	LTP278	ltpFR	16	1	0	BOX	159	1	n/a	1	n/a	n/a	n/a	n/a	n/a
3029060	RECOG_CONF	n/a	LTP278	ltpFR	16	1	0	BOX	159	n/a	4	1	n/a	n/a	n/a	n/a	n/a
3030893	RECOG_TARGET	n/a	LTP278	ltpFR	16	1	-1	CLARINET	317	1	5	-1	n/a	n/a	n/a	n/a	n/a
3031280	RECOG_RESP	n/a	LTP278	ltpFR	16	1	-1	CLARINET	317	1	n/a	-1	n/a	n/a	n/a	n/a	n/a
3031700	RECOG_CONF	n/a	LTP278	ltpFR	16	1	-1	CLARINET	317	n/a	5	-1	n/a	n/a	n/a	n/a	n/a
3033473	RECOG_TARGET	n/a	LTP278	ltpFR	16	1	0	SILVERWARE	1308	1	2	0	n/a	n/a	n/a	n/a	n/a
3033800	RECOG_RESP	n/a	LTP278	ltpFR	16	1	0	SILVERWARE	1308	1	n/a	0	n/a	n/a	n/a	n/a	n/a
3034160	RECOG_CONF	n/a	LTP278	ltpFR	16	1	0	SILVERWARE	1308	n/a	2	0	n/a	n/a	n/a	n/a	n/a
3035969	RECOG_TARGET	n/a	LTP278	ltpFR	16	1	1	EGG	518	1	3	0	n/a	n/a	n/a	n/a	n/a
3036355	RECOG_RESP	n/a	LTP278	ltpFR	16	1	1	EGG	518	1	n/a	0	n/a	n/a	n/a	n/a	n/a
3036720	RECOG_CONF	n/a	LTP278	ltpFR	16	1	1	EGG	518	n/a	3	0	n/a	n/a	n/a	n/a	n/a
3038565	RECOG_LURE	n/a	LTP278	ltpFR	16	1	n/a	SPICE	1350	1	1	n/a	n/a	n/a	n/a	n/a	n/a
3038950	RECOG_RESP	n/a	LTP278	ltpFR	16	1	n/a	SPICE	1350	1	n/a	n/a	n/a	n/a	n/a	n/a	n/a
3039370	RECOG_CONF	n/a	LTP278	ltpFR	16	1	n/a	SPICE	1350	n/a	1	n/a	n/a	n/a	n/a	n/a	n/a
3041544	RECOG_LURE	n/a	LTP278	ltpFR	16	1	n/a	PROTON	1132	0	1	n/a	n/a	n/a	n/a	n/a	n/a
3043225	RECOG_RESP	n/a	LTP278	ltpFR	16	1	n/a	PROTON	1132	0	n/a	n/a	n/a	n/a	n/a	n/a	n/a
3043740	RECOG_CONF	n/a	LTP278	ltpFR	16	1	n/a	PROTON	1132	n/a	1	n/a	n/a	n/a	n/a	n/a	n/a
3045306	RECOG_LURE	n/a	LTP278	ltpFR	16	1	n/a	MOVIE	927	1	1	n/a	n/a	n/a	n/a	n/a	n/a
3047620	RECOG_RESP	n/a	LTP278	ltpFR	16	1	n/a	MOVIE	927	1	n/a	n/a	n/a	n/a	n/a	n/a	n/a
3048520	RECOG_CONF	n/a	LTP278	ltpFR	16	1	n/a	MOVIE	927	n/a	1	n/a	n/a	n/a	n/a	n/a	n/a
3051891	REC_START	n/a	LTP278	ltpFR	16	2	n/a	n/a	n/a	n/a	n/a	n/a	n/a	n/a	n/a	n/a	n/a
3051929	RECOG_LURE	n/a	LTP278	ltpFR	16	2	n/a	PERMIT	1051	0	1	n/a	n/a	n/a	n/a	n/a	n/a
3053126	RECOG_RESP	n/a	LTP278	ltpFR	16	2	n/a	PERMIT	1051	0	n/a	n/a	n/a	n/a	n/a	n/a	n/a
3053871	RECOG_CONF	n/a	LTP278	ltpFR	16	2	n/a	PERMIT	1051	n/a	1	n/a	n/a	n/a	n/a	n/a	n/a
3055557	RECOG_TARGET	n/a	LTP278	ltpFR	16	2	0	SALIVA	1226	1	3	0	n/a	n/a	n/a	n/a	n/a
3056351	RECOG_RESP	n/a	LTP278	ltpFR	16	2	0	SALIVA	1226	1	n/a	0	n/a	n/a	n/a	n/a	n/a
3056861	RECOG_CONF	n/a	LTP278	ltpFR	16	2	0	SALIVA	1226	n/a	3	0	n/a	n/a	n/a	n/a	n/a
3058469	RECOG_TARGET	n/a	LTP278	ltpFR	16	2	-1	PAN	1008	1	4	-1	n/a	n/a	n/a	n/a	n/a
3059831	RECOG_RESP	n/a	LTP278	ltpFR	16	2	-1	PAN	1008	1	n/a	-1	n/a	n/a	n/a	n/a	n/a
3060261	RECOG_CONF	n/a	LTP278	ltpFR	16	2	-1	PAN	1008	n/a	4	-1	n/a	n/a	n/a	n/a	n/a
3062014	RECOG_TARGET	n/a	LTP278	ltpFR	16	2	0	PLASTER	1085	1	3	0	n/a	n/a	n/a	n/a	n/a
3063236	RECOG_RESP	n/a	LTP278	ltpFR	16	2	0	PLASTER	1085	1	n/a	0	n/a	n/a	n/a	n/a	n/a
3063691	RECOG_CONF	n/a	LTP278	ltpFR	16	2	0	PLASTER	1085	n/a	3	0	n/a	n/a	n/a	n/a	n/a
3065243	RECOG_TARGET	n/a	LTP278	ltpFR	16	2	1	GUITAR	670	1	4	1	n/a	n/a	n/a	n/a	n/a
3066081	RECOG_RESP	n/a	LTP278	ltpFR	16	2	1	GUITAR	670	1	n/a	1	n/a	n/a	n/a	n/a	n/a
3066431	RECOG_CONF	n/a	LTP278	ltpFR	16	2	1	GUITAR	670	n/a	4	1	n/a	n/a	n/a	n/a	n/a
3068038	RECOG_TARGET	n/a	LTP278	ltpFR	16	2	0	ROSE	1212	1	1	1	n/a	n/a	n/a	n/a	n/a
3068606	RECOG_RESP	n/a	LTP278	ltpFR	16	2	0	ROSE	1212	1	n/a	1	n/a	n/a	n/a	n/a	n/a
3068991	RECOG_CONF	n/a	LTP278	ltpFR	16	2	0	ROSE	1212	n/a	1	1	n/a	n/a	n/a	n/a	n/a
3070817	RECOG_TARGET	n/a	LTP278	ltpFR	16	2	0	BEAN	105	1	3	0	n/a	n/a	n/a	n/a	n/a
3071416	RECOG_RESP	n/a	LTP278	ltpFR	16	2	0	BEAN	105	1	n/a	0	n/a	n/a	n/a	n/a	n/a
3071791	RECOG_CONF	n/a	LTP278	ltpFR	16	2	0	BEAN	105	n/a	3	0	n/a	n/a	n/a	n/a	n/a
3073513	RECOG_LURE	n/a	LTP278	ltpFR	16	2	n/a	BOUILLON	154	0	4	n/a	n/a	n/a	n/a	n/a	n/a
3074261	RECOG_RESP	n/a	LTP278	ltpFR	16	2	n/a	BOUILLON	154	0	n/a	n/a	n/a	n/a	n/a	n/a	n/a
3074611	RECOG_CONF	n/a	LTP278	ltpFR	16	2	n/a	BOUILLON	154	n/a	4	n/a	n/a	n/a	n/a	n/a	n/a
3076260	RECOG_TARGET	n/a	LTP278	ltpFR	16	2	0	LOCK	838	1	4	0	n/a	n/a	n/a	n/a	n/a
3077151	RECOG_RESP	n/a	LTP278	ltpFR	16	2	0	LOCK	838	1	n/a	0	n/a	n/a	n/a	n/a	n/a
3077551	RECOG_CONF	n/a	LTP278	ltpFR	16	2	0	LOCK	838	n/a	4	0	n/a	n/a	n/a	n/a	n/a
3079138	RECOG_TARGET	n/a	LTP278	ltpFR	16	2	0	CANYON	235	1	2	0	n/a	n/a	n/a	n/a	n/a
3079901	RECOG_RESP	n/a	LTP278	ltpFR	16	2	0	CANYON	235	1	n/a	0	n/a	n/a	n/a	n/a	n/a
3080420	RECOG_CONF	n/a	LTP278	ltpFR	16	2	0	CANYON	235	n/a	2	0	n/a	n/a	n/a	n/a	n/a
3082067	RECOG_LURE	n/a	LTP278	ltpFR	16	2	n/a	LOVER	846	0	3	n/a	n/a	n/a	n/a	n/a	n/a
3082906	RECOG_RESP	n/a	LTP278	ltpFR	16	2	n/a	LOVER	846	0	n/a	n/a	n/a	n/a	n/a	n/a	n/a
3083581	RECOG_CONF	n/a	LTP278	ltpFR	16	2	n/a	LOVER	846	n/a	3	n/a	n/a	n/a	n/a	n/a	n/a
3085230	RECOG_TARGET	n/a	LTP278	ltpFR	16	2	-1	BASKETBALL	96	1	4	-1	n/a	n/a	n/a	n/a	n/a
3086606	RECOG_RESP	n/a	LTP278	ltpFR	16	2	-1	BASKETBALL	96	1	n/a	-1	n/a	n/a	n/a	n/a	n/a
3087011	RECOG_CONF	n/a	LTP278	ltpFR	16	2	-1	BASKETBALL	96	n/a	4	-1	n/a	n/a	n/a	n/a	n/a
3088740	RECOG_TARGET	n/a	LTP278	ltpFR	16	2	1	BALLERINA	74	1	3	1	n/a	n/a	n/a	n/a	n/a
3089486	RECOG_RESP	n/a	LTP278	ltpFR	16	2	1	BALLERINA	74	1	n/a	1	n/a	n/a	n/a	n/a	n/a
3090043	RECOG_CONF	n/a	LTP278	ltpFR	16	2	1	BALLERINA	74	n/a	3	1	n/a	n/a	n/a	n/a	n/a
3091470	RECOG_TARGET	n/a	LTP278	ltpFR	16	2	1	HELICOPTER	701	1	1	0	n/a	n/a	n/a	n/a	n/a
3094001	RECOG_RESP	n/a	LTP278	ltpFR	16	2	1	HELICOPTER	701	1	n/a	0	n/a	n/a	n/a	n/a	n/a
3094481	RECOG_CONF	n/a	LTP278	ltpFR	16	2	1	HELICOPTER	701	n/a	1	0	n/a	n/a	n/a	n/a	n/a
3096264	RECOG_TARGET	n/a	LTP278	ltpFR	16	2	0	HEN	703	1	4	0	n/a	n/a	n/a	n/a	n/a
3097031	RECOG_RESP	n/a	LTP278	ltpFR	16	2	0	HEN	703	1	n/a	0	n/a	n/a	n/a	n/a	n/a
3097381	RECOG_CONF	n/a	LTP278	ltpFR	16	2	0	HEN	703	n/a	4	0	n/a	n/a	n/a	n/a	n/a
3098942	RECOG_LURE	n/a	LTP278	ltpFR	16	2	n/a	LABYRINTH	791	0	5	n/a	n/a	n/a	n/a	n/a	n/a
3099731	RECOG_RESP	n/a	LTP278	ltpFR	16	2	n/a	LABYRINTH	791	0	n/a	n/a	n/a	n/a	n/a	n/a	n/a
3100571	RECOG_CONF	n/a	LTP278	ltpFR	16	2	n/a	LABYRINTH	791	n/a	5	n/a	n/a	n/a	n/a	n/a	n/a
3102470	RECOG_TARGET	n/a	LTP278	ltpFR	16	2	0	MERMAID	887	1	3	1	n/a	n/a	n/a	n/a	n/a
3103386	RECOG_RESP	n/a	LTP278	ltpFR	16	2	0	MERMAID	887	1	n/a	1	n/a	n/a	n/a	n/a	n/a
3103851	RECOG_CONF	n/a	LTP278	ltpFR	16	2	0	MERMAID	887	n/a	3	1	n/a	n/a	n/a	n/a	n/a
3105515	RECOG_TARGET	n/a	LTP278	ltpFR	16	2	0	TUB	1514	1	2	1	n/a	n/a	n/a	n/a	n/a
3107986	RECOG_RESP	n/a	LTP278	ltpFR	16	2	0	TUB	1514	1	n/a	1	n/a	n/a	n/a	n/a	n/a
3108381	RECOG_CONF	n/a	LTP278	ltpFR	16	2	0	TUB	1514	n/a	2	1	n/a	n/a	n/a	n/a	n/a
3110059	RECOG_TARGET	n/a	LTP278	ltpFR	16	2	-1	KETTLE	772	1	4	-1	n/a	n/a	n/a	n/a	n/a
3110746	RECOG_RESP	n/a	LTP278	ltpFR	16	2	-1	KETTLE	772	1	n/a	-1	n/a	n/a	n/a	n/a	n/a
3111091	RECOG_CONF	n/a	LTP278	ltpFR	16	2	-1	KETTLE	772	n/a	4	-1	n/a	n/a	n/a	n/a	n/a
3112688	RECOG_TARGET	n/a	LTP278	ltpFR	16	2	-1	FOREST	593	1	5	-1	n/a	n/a	n/a	n/a	n/a
3113181	RECOG_RESP	n/a	LTP278	ltpFR	16	2	-1	FOREST	593	1	n/a	-1	n/a	n/a	n/a	n/a	n/a
3113471	RECOG_CONF	n/a	LTP278	ltpFR	16	2	-1	FOREST	593	n/a	5	-1	n/a	n/a	n/a	n/a	n/a
3117022	REC_START	n/a	LTP278	ltpFR	16	3	n/a	n/a	n/a	n/a	n/a	n/a	n/a	n/a	n/a	n/a	n/a
3117048	RECOG_TARGET	n/a	LTP278	ltpFR	16	3	-1	WRIST	1626	1	3	-1	n/a	n/a	n/a	n/a	n/a
3117792	RECOG_RESP	n/a	LTP278	ltpFR	16	3	-1	WRIST	1626	1	n/a	-1	n/a	n/a	n/a	n/a	n/a
3118192	RECOG_CONF	n/a	LTP278	ltpFR	16	3	-1	WRIST	1626	n/a	3	-1	n/a	n/a	n/a	n/a	n/a
3119727	RECOG_TARGET	n/a	LTP278	ltpFR	16	3	0	BURGLAR	200	1	4	1	n/a	n/a	n/a	n/a	n/a
3120437	RECOG_RESP	n/a	LTP278	ltpFR	16	3	0	BURGLAR	200	1	n/a	1	n/a	n/a	n/a	n/a	n/a
3120742	RECOG_CONF	n/a	LTP278	ltpFR	16	3	0	BURGLAR	200	n/a	4	1	n/a	n/a	n/a	n/a	n/a
3122358	RECOG_LURE	n/a	LTP278	ltpFR	16	3	n/a	GRAVE	658	1	1	n/a	n/a	n/a	n/a	n/a	n/a
3123947	RECOG_RESP	n/a	LTP278	ltpFR	16	3	n/a	GRAVE	658	1	n/a	n/a	n/a	n/a	n/a	n/a	n/a
3124242	RECOG_CONF	n/a	LTP278	ltpFR	16	3	n/a	GRAVE	658	n/a	1	n/a	n/a	n/a	n/a	n/a	n/a
3126118	RECOG_TARGET	n/a	LTP278	ltpFR	16	3	0	BEAD	103	1	4	0	n/a	n/a	n/a	n/a	n/a
3127432	RECOG_RESP	n/a	LTP278	ltpFR	16	3	0	BEAD	103	1	n/a	0	n/a	n/a	n/a	n/a	n/a
3128132	RECOG_CONF	n/a	LTP278	ltpFR	16	3	0	BEAD	103	n/a	4	0	n/a	n/a	n/a	n/a	n/a
3129746	RECOG_LURE	n/a	LTP278	ltpFR	16	3	n/a	CLOUD	328	0	3	n/a	n/a	n/a	n/a	n/a	n/a
3130632	RECOG_RESP	n/a	LTP278	ltpFR	16	3	n/a	CLOUD	328	0	n/a	n/a	n/a	n/a	n/a	n/a	n/a
3131212	RECOG_CONF	n/a	LTP278	ltpFR	16	3	n/a	CLOUD	328	n/a	3	n/a	n/a	n/a	n/a	n/a	n/a
3133074	RECOG_LURE	n/a	LTP278	ltpFR	16	3	n/a	SKELETON	1314	0	2	n/a	n/a	n/a	n/a	n/a	n/a
3133752	RECOG_RESP	n/a	LTP278	ltpFR	16	3	n/a	SKELETON	1314	0	n/a	n/a	n/a	n/a	n/a	n/a	n/a
3134312	RECOG_CONF	n/a	LTP278	ltpFR	16	3	n/a	SKELETON	1314	n/a	2	n/a	n/a	n/a	n/a	n/a	n/a
3135820	RECOG_TARGET	n/a	LTP278	ltpFR	16	3	1	ASSOCIATE	49	1	4	0	n/a	n/a	n/a	n/a	n/a
3136657	RECOG_RESP	n/a	LTP278	ltpFR	16	3	1	ASSOCIATE	49	1	n/a	0	n/a	n/a	n/a	n/a	n/a
3137082	RECOG_CONF	n/a	LTP278	ltpFR	16	3	1	ASSOCIATE	49	n/a	4	0	n/a	n/a	n/a	n/a	n/a
3138849	RECOG_LURE	n/a	LTP278	ltpFR	16	3	n/a	DIAGRAM	456	0	3	n/a	n/a	n/a	n/a	n/a	n/a
3139707	RECOG_RESP	n/a	LTP278	ltpFR	16	3	n/a	DIAGRAM	456	0	n/a	n/a	n/a	n/a	n/a	n/a	n/a
3140252	RECOG_CONF	n/a	LTP278	ltpFR	16	3	n/a	DIAGRAM	456	n/a	3	n/a	n/a	n/a	n/a	n/a	n/a
3141844	RECOG_LURE	n/a	LTP278	ltpFR	16	3	n/a	COMPUTER	359	0	1	n/a	n/a	n/a	n/a	n/a	n/a
3142932	RECOG_RESP	n/a	LTP278	ltpFR	16	3	n/a	COMPUTER	359	0	n/a	n/a	n/a	n/a	n/a	n/a	n/a
3143272	RECOG_CONF	n/a	LTP278	ltpFR	16	3	n/a	COMPUTER	359	n/a	1	n/a	n/a	n/a	n/a	n/a	n/a
3145123	RECOG_LURE	n/a	LTP278	ltpFR	16	3	n/a	STEM	1376	0	2	n/a	n/a	n/a	n/a	n/a	n/a
3146186	RECOG_RESP	n/a	LTP278	ltpFR	16	3	n/a	STEM	1376	0	n/a	n/a	n/a	n/a	n/a	n/a	n/a
3146932	RECOG_CONF	n/a	LTP278	ltpFR	16	3	n/a	STEM	1376	n/a	2	n/a	n/a	n/a	n/a	n/a	n/a
3148518	RECOG_LURE	n/a	LTP278	ltpFR	16	3	n/a	MATCH	878	0	1	n/a	n/a	n/a	n/a	n/a	n/a
3149452	RECOG_RESP	n/a	LTP278	ltpFR	16	3	n/a	MATCH	878	0	n/a	n/a	n/a	n/a	n/a	n/a	n/a
3149922	RECOG_CONF	n/a	LTP278	ltpFR	16	3	n/a	MATCH	878	n/a	1	n/a	n/a	n/a	n/a	n/a	n/a
3151696	RECOG_TARGET	n/a	LTP278	ltpFR	16	3	1	FIN	566	1	5	0	n/a	n/a	n/a	n/a	n/a
3152367	RECOG_RESP	n/a	LTP278	ltpFR	16	3	1	FIN	566	1	n/a	0	n/a	n/a	n/a	n/a	n/a
3152772	RECOG_CONF	n/a	LTP278	ltpFR	16	3	1	FIN	566	n/a	5	0	n/a	n/a	n/a	n/a	n/a
3154559	RECOG_LURE	n/a	LTP278	ltpFR	16	3	n/a	STAMP	1370	1	2	n/a	n/a	n/a	n/a	n/a	n/a
3155052	RECOG_RESP	n/a	LTP278	ltpFR	16	3	n/a	STAMP	1370	1	n/a	n/a	n/a	n/a	n/a	n/a	n/a
3155562	RECOG_CONF	n/a	LTP278	ltpFR	16	3	n/a	STAMP	1370	n/a	2	n/a	n/a	n/a	n/a	n/a	n/a
3157088	RECOG_LURE	n/a	LTP278	ltpFR	16	3	n/a	YOLK	1633	0	4	n/a	n/a	n/a	n/a	n/a	n/a
3157962	RECOG_RESP	n/a	LTP278	ltpFR	16	3	n/a	YOLK	1633	0	n/a	n/a	n/a	n/a	n/a	n/a	n/a
3158452	RECOG_CONF	n/a	LTP278	ltpFR	16	3	n/a	YOLK	1633	n/a	4	n/a	n/a	n/a	n/a	n/a	n/a
3160167	RECOG_TARGET	n/a	LTP278	ltpFR	16	3	1	RAM	1165	1	5	0	n/a	n/a	n/a	n/a	n/a
3161927	RECOG_RESP	n/a	LTP278	ltpFR	16	3	1	RAM	1165	1	n/a	0	n/a	n/a	n/a	n/a	n/a
3162372	RECOG_CONF	n/a	LTP278	ltpFR	16	3	1	RAM	1165	n/a	5	0	n/a	n/a	n/a	n/a	n/a
3164212	RECOG_TARGET	n/a	LTP278	ltpFR	16	3	0	PERCH	1048	1	3	1	n/a	n/a	n/a	n/a	n/a
3164927	RECOG_RESP	n/a	LTP278	ltpFR	16	3	0	PERCH	1048	1	n/a	1	n/a	n/a	n/a	n/a	n/a
3165362	RECOG_CONF	n/a	LTP278	ltpFR	16	3	0	PERCH	1048	n/a	3	1	n/a	n/a	n/a	n/a	n/a
3167090	RECOG_TARGET	n/a	LTP278	ltpFR	16	3	-1	DETECTIVE	454	1	4	-1	n/a	n/a	n/a	n/a	n/a
3167777	RECOG_RESP	n/a	LTP278	ltpFR	16	3	-1	DETECTIVE	454	1	n/a	-1	n/a	n/a	n/a	n/a	n/a
3168122	RECOG_CONF	n/a	LTP278	ltpFR	16	3	-1	DETECTIVE	454	n/a	4	-1	n/a	n/a	n/a	n/a	n/a
3169836	RECOG_LURE	n/a	LTP278	ltpFR	16	3	n/a	RAILROAD	1162	1	1	n/a	n/a	n/a	n/a	n/a	n/a
3170392	RECOG_RESP	n/a	LTP278	ltpFR	16	3	n/a	RAILROAD	1162	1	n/a	n/a	n/a	n/a	n/a	n/a	n/a
3171142	RECOG_CONF	n/a	LTP278	ltpFR	16	3	n/a	RAILROAD	1162	n/a	1	n/a	n/a	n/a	n/a	n/a	n/a
3172815	RECOG_TARGET	n/a	LTP278	ltpFR	16	3	-1	MICROPHONE	890	0	1	-1	n/a	n/a	n/a	n/a	n/a
3173912	RECOG_RESP	n/a	LTP278	ltpFR	16	3	-1	MICROPHONE	890	0	n/a	-1	n/a	n/a	n/a	n/a	n/a
3174532	RECOG_CONF	n/a	LTP278	ltpFR	16	3	-1	MICROPHONE	890	n/a	1	-1	n/a	n/a	n/a	n/a	n/a
3176160	RECOG_TARGET	n/a	LTP278	ltpFR	16	3	1	VISITOR	1573	1	4	0	n/a	n/a	n/a	n/a	n/a
3178597	RECOG_RESP	n/a	LTP278	ltpFR	16	3	1	VISITOR	1573	1	n/a	0	n/a	n/a	n/a	n/a	n/a
3179102	RECOG_CONF	n/a	LTP278	ltpFR	16	3	1	VISITOR	1573	n/a	4	0	n/a	n/a	n/a	n/a	n/a
3182180	REC_START	n/a	LTP278	ltpFR	16	4	n/a	n/a	n/a	n/a	n/a	n/a	n/a	n/a	n/a	n/a	n/a
3182219	RECOG_LURE	n/a	LTP278	ltpFR	16	4	n/a	PICTURE	1061	1	4	n/a	n/a	n/a	n/a	n/a	n/a
3183390	RECOG_RESP	n/a	LTP278	ltpFR	16	4	n/a	PICTURE	1061	1	n/a	n/a	n/a	n/a	n/a	n/a	n/a
3183840	RECOG_CONF	n/a	LTP278	ltpFR	16	4	n/a	PICTURE	1061	n/a	4	n/a	n/a	n/a	n/a	n/a	n/a
3185579	RECOG_TARGET	n/a	LTP278	ltpFR	16	4	-1	BOOK	149	1	4	-1	n/a	n/a	n/a	n/a	n/a
3187025	RECOG_RESP	n/a	LTP278	ltpFR	16	4	-1	BOOK	149	1	n/a	-1	n/a	n/a	n/a	n/a	n/a
3187420	RECOG_CONF	n/a	LTP278	ltpFR	16	4	-1	BOOK	149	n/a	4	-1	n/a	n/a	n/a	n/a	n/a
3189190	RECOG_TARGET	n/a	LTP278	ltpFR	16	4	-1	RUST	1219	1	5	-1	n/a	n/a	n/a	n/a	n/a
3189920	RECOG_RESP	n/a	LTP278	ltpFR	16	4	-1	RUST	1219	1	n/a	-1	n/a	n/a	n/a	n/a	n/a
3190310	RECOG_CONF	n/a	LTP278	ltpFR	16	4	-1	RUST	1219	n/a	5	-1	n/a	n/a	n/a	n/a	n/a
3191986	RECOG_TARGET	n/a	LTP278	ltpFR	16	4	0	CACTUS	215	1	3	1	n/a	n/a	n/a	n/a	n/a
3192845	RECOG_RESP	n/a	LTP278	ltpFR	16	4	0	CACTUS	215	1	n/a	1	n/a	n/a	n/a	n/a	n/a
3193340	RECOG_CONF	n/a	LTP278	ltpFR	16	4	0	CACTUS	215	n/a	3	1	n/a	n/a	n/a	n/a	n/a
3195098	RECOG_TARGET	n/a	LTP278	ltpFR	16	4	0	HAMBURGER	679	1	4	1	n/a	n/a	n/a	n/a	n/a
3195620	RECOG_RESP	n/a	LTP278	ltpFR	16	4	0	HAMBURGER	679	1	n/a	1	n/a	n/a	n/a	n/a	n/a
3195970	RECOG_CONF	n/a	LTP278	ltpFR	16	4	0	HAMBURGER	679	n/a	4	1	n/a	n/a	n/a	n/a	n/a
3197461	RECOG_TARGET	n/a	LTP278	ltpFR	16	4	1	SKILLET	1317	1	5	0	n/a	n/a	n/a	n/a	n/a
3197775	RECOG_RESP	n/a	LTP278	ltpFR	16	4	1	SKILLET	1317	1	n/a	0	n/a	n/a	n/a	n/a	n/a
3198120	RECOG_CONF	n/a	LTP278	ltpFR	16	4	1	SKILLET	1317	n/a	5	0	n/a	n/a	n/a	n/a	n/a
3200091	RECOG_TARGET	n/a	LTP278	ltpFR	16	4	1	SNOB	1335	1	4	1	n/a	n/a	n/a	n/a	n/a
3200805	RECOG_RESP	n/a	LTP278	ltpFR	16	4	1	SNOB	1335	1	n/a	1	n/a	n/a	n/a	n/a	n/a
3201220	RECOG_CONF	n/a	LTP278	ltpFR	16	4	1	SNOB	1335	n/a	4	1	n/a	n/a	n/a	n/a	n/a
3202887	RECOG_TARGET	n/a	LTP278	ltpFR	16	4	0	CRICKET	408	1	2	0	n/a	n/a	n/a	n/a	n/a
3203390	RECOG_RESP	n/a	LTP278	ltpFR	16	4	0	CRICKET	408	1	n/a	0	n/a	n/a	n/a	n/a	n/a
3203750	RECOG_CONF	n/a	LTP278	ltpFR	16	4	0	CRICKET	408	n/a	2	0	n/a	n/a	n/a	n/a	n/a
3205217	RECOG_TARGET	n/a	LTP278	ltpFR	16	4	0	BELL	118	1	3	0	n/a	n/a	n/a	n/a	n/a
3206020	RECOG_RESP	n/a	LTP278	ltpFR	16	4	0	BELL	118	1	n/a	0	n/a	n/a	n/a	n/a	n/a
3206330	RECOG_CONF	n/a	LTP278	ltpFR	16	4	0	BELL	118	n/a	3	0	n/a	n/a	n/a	n/a	n/a
3207829	RECOG_TARGET	n/a	LTP278	ltpFR	16	4	-1	PIRATE	1074	1	4	-1	n/a	n/a	n/a	n/a	n/a
3208580	RECOG_RESP	n/a	LTP278	ltpFR	16	4	-1	PIRATE	1074	1	n/a	-1	n/a	n/a	n/a	n/a	n/a
3208920	RECOG_CONF	n/a	LTP278	ltpFR	16	4	-1	PIRATE	1074	n/a	4	-1	n/a	n/a	n/a	n/a	n/a
3210475	RECOG_TARGET	n/a	LTP278	ltpFR	16	4	1	WHALE	1601	1	5	1	n/a	n/a	n/a	n/a	n/a
3211290	RECOG_RESP	n/a	LTP278	ltpFR	16	4	1	WHALE	1601	1	n/a	1	n/a	n/a	n/a	n/a	n/a
3211700	RECOG_CONF	n/a	LTP278	ltpFR	16	4	1	WHALE	1601	n/a	5	1	n/a	n/a	n/a	n/a	n/a
3213322	RECOG_TARGET	n/a	LTP278	ltpFR	16	4	1	JUG	762	1	3	0	n/a	n/a	n/a	n/a	n/a
3213880	RECOG_RESP	n/a	LTP278	ltpFR	16	4	1	JUG	762	1	n/a	0	n/a	n/a	n/a	n/a	n/a
3214270	RECOG_CONF	n/a	LTP278	ltpFR	16	4	1	JUG	762	n/a	3	0	n/a	n/a	n/a	n/a	n/a
3215867	RECOG_LURE	n/a	LTP278	ltpFR	16	4	n/a	BATHTUB	100	1	4	n/a	n/a	n/a	n/a	n/a	n/a
3216565	RECOG_RESP	n/a	LTP278	ltpFR	16	4	n/a	BATHTUB	100	1	n/a	n/a	n/a	n/a	n/a	n/a	n/a
3216950	RECOG_CONF	n/a	LTP278	ltpFR	16	4	n/a	BATHTUB	100	n/a	4	n/a	n/a	n/a	n/a	n/a	n/a
3218813	RECOG_TARGET	n/a	LTP278	ltpFR	16	4	1	SUIT	1402	1	4	0	n/a	n/a	n/a	n/a	n/a
3219695	RECOG_RESP	n/a	LTP278	ltpFR	16	4	1	SUIT	1402	1	n/a	0	n/a	n/a	n/a	n/a	n/a
3220040	RECOG_CONF	n/a	LTP278	ltpFR	16	4	1	SUIT	1402	n/a	4	0	n/a	n/a	n/a	n/a	n/a
3221642	RECOG_TARGET	n/a	LTP278	ltpFR	16	4	0	STAR	1373	1	1	0	n/a	n/a	n/a	n/a	n/a
3222855	RECOG_RESP	n/a	LTP278	ltpFR	16	4	0	STAR	1373	1	n/a	0	n/a	n/a	n/a	n/a	n/a
3223450	RECOG_CONF	n/a	LTP278	ltpFR	16	4	0	STAR	1373	n/a	1	0	n/a	n/a	n/a	n/a	n/a
3225054	RECOG_LURE	n/a	LTP278	ltpFR	16	4	n/a	COBWEB	337	0	4	n/a	n/a	n/a	n/a	n/a	n/a
3225880	RECOG_RESP	n/a	LTP278	ltpFR	16	4	n/a	COBWEB	337	0	n/a	n/a	n/a	n/a	n/a	n/a	n/a
3226300	RECOG_CONF	n/a	LTP278	ltpFR	16	4	n/a	COBWEB	337	n/a	4	n/a	n/a	n/a	n/a	n/a	n/a
3228066	RECOG_TARGET	n/a	LTP278	ltpFR	16	4	-1	KNEE	784	0	1	-1	n/a	n/a	n/a	n/a	n/a
3228925	RECOG_RESP	n/a	LTP278	ltpFR	16	4	-1	KNEE	784	0	n/a	-1	n/a	n/a	n/a	n/a	n/a
3229440	RECOG_CONF	n/a	LTP278	ltpFR	16	4	-1	KNEE	784	n/a	1	-1	n/a	n/a	n/a	n/a	n/a
3231161	RECOG_TARGET	n/a	LTP278	ltpFR	16	4	0	GRILL	661	1	1	0	n/a	n/a	n/a	n/a	n/a
3232180	RECOG_RESP	n/a	LTP278	ltpFR	16	4	0	GRILL	661	1	n/a	0	n/a	n/a	n/a	n/a	n/a
3232600	RECOG_CONF	n/a	LTP278	ltpFR	16	4	0	GRILL	661	n/a	1	0	n/a	n/a	n/a	n/a	n/a
3234391	RECOG_TARGET	n/a	LTP278	ltpFR	16	4	0	ROOT	1210	1	3	1	n/a	n/a	n/a	n/a	n/a
3235130	RECOG_RESP	n/a	LTP278	ltpFR	16	4	0	ROOT	1210	1	n/a	1	n/a	n/a	n/a	n/a	n/a
3235540	RECOG_CONF	n/a	LTP278	ltpFR	16	4	0	ROOT	1210	n/a	3	1	n/a	n/a	n/a	n/a	n/a
3237169	RECOG_LURE	n/a	LTP278	ltpFR	16	4	n/a	GENTLEMAN	631	1	4	n/a	n/a	n/a	n/a	n/a	n/a
3237740	RECOG_RESP	n/a	LTP278	ltpFR	16	4	n/a	GENTLEMAN	631	1	n/a	n/a	n/a	n/a	n/a	n/a	n/a
3237900	RECOG_CONF	n/a	LTP278	ltpFR	16	4	n/a	GENTLEMAN	631	n/a	4	n/a	n/a	n/a	n/a	n/a	n/a
3241569	REC_START	n/a	LTP278	ltpFR	16	5	n/a	n/a	n/a	n/a	n/a	n/a	n/a	n/a	n/a	n/a	n/a
3241595	RECOG_TARGET	n/a	LTP278	ltpFR	16	5	0	STRING	1394	1	4	1	n/a	n/a	n/a	n/a	n/a
3243174	RECOG_RESP	n/a	LTP278	ltpFR	16	5	0	STRING	1394	1	n/a	1	n/a	n/a	n/a	n/a	n/a
3243609	RECOG_CONF	n/a	LTP278	ltpFR	16	5	0	STRING	1394	n/a	4	1	n/a	n/a	n/a	n/a	n/a
3245440	RECOG_LURE	n/a	LTP278	ltpFR	16	5	n/a	PLUTO	1092	0	4	n/a	n/a	n/a	n/a	n/a	n/a
3246304	RECOG_RESP	n/a	LTP278	ltpFR	16	5	n/a	PLUTO	1092	0	n/a	n/a	n/a	n/a	n/a	n/a	n/a
3246719	RECOG_CONF	n/a	LTP278	ltpFR	16	5	n/a	PLUTO	1092	n/a	4	n/a	n/a	n/a	n/a	n/a	n/a
3248652	RECOG_TARGET	n/a	LTP278	ltpFR	16	5	0	FAMILY	550	1	1	1	n/a	n/a	n/a	n/a	n/a
3251294	RECOG_RESP	n/a	LTP278	ltpFR	16	5	0	FAMILY	550	1	n/a	1	n/a	n/a	n/a	n/a	n/a
3251999	RECOG_CONF	n/a	LTP278	ltpFR	16	5	0	FAMILY	550	n/a	1	1	n/a	n/a	n/a	n/a	n/a
3253611	RECOG_LURE	n/a	LTP278	ltpFR	16	5	n/a	ANTELOPE	27	0	3	n/a	n/a	n/a	n/a	n/a	n/a
3253999	RECOG_RESP_VV	n/a	LTP278	ltpFR	16	5	n/a	ANTELOPE	27	1	n/a	n/a	n/a	n/a	n/a	n/a	n/a
3254474	RECOG_RESP	n/a	LTP278	ltpFR	16	5	n/a	ANTELOPE	27	0	n/a	n/a	n/a	n/a	n/a	n/a	n/a
3254939	RECOG_CONF	n/a	LTP278	ltpFR	16	5	n/a	ANTELOPE	27	n/a	3	n/a	n/a	n/a	n/a	n/a	n/a
3257022	RECOG_TARGET	n/a	LTP278	ltpFR	16	5	-1	BUS	201	1	1	-1	n/a	n/a	n/a	n/a	n/a
3259514	RECOG_RESP	n/a	LTP278	ltpFR	16	5	-1	BUS	201	1	n/a	-1	n/a	n/a	n/a	n/a	n/a
3259939	RECOG_CONF	n/a	LTP278	ltpFR	16	5	-1	BUS	201	n/a	1	-1	n/a	n/a	n/a	n/a	n/a
3261516	RECOG_TARGET	n/a	LTP278	ltpFR	16	5	0	STAGE	1366	1	1	0	n/a	n/a	n/a	n/a	n/a
3262134	RECOG_RESP	n/a	LTP278	ltpFR	16	5	0	STAGE	1366	1	n/a	0	n/a	n/a	n/a	n/a	n/a
3262539	RECOG_CONF	n/a	LTP278	ltpFR	16	5	0	STAGE	1366	n/a	1	0	n/a	n/a	n/a	n/a	n/a
3264145	RECOG_TARGET	n/a	LTP278	ltpFR	16	5	-1	LOUNGE	845	1	5	-1	n/a	n/a	n/a	n/a	n/a
3265709	RECOG_RESP	n/a	LTP278	ltpFR	16	5	-1	LOUNGE	845	1	n/a	-1	n/a	n/a	n/a	n/a	n/a
3266309	RECOG_CONF	n/a	LTP278	ltpFR	16	5	-1	LOUNGE	845	n/a	5	-1	n/a	n/a	n/a	n/a	n/a
3268039	RECOG_TARGET	n/a	LTP278	ltpFR	16	5	-1	ASHTRAY	45	1	4	-1	n/a	n/a	n/a	n/a	n/a
3268709	RECOG_RESP	n/a	LTP278	ltpFR	16	5	-1	ASHTRAY	45	1	n/a	-1	n/a	n/a	n/a	n/a	n/a
3269079	RECOG_CONF	n/a	LTP278	ltpFR	16	5	-1	ASHTRAY	45	n/a	4	-1	n/a	n/a	n/a	n/a	n/a
3270735	RECOG_LURE	n/a	LTP278	ltpFR	16	5	n/a	STRAW	1390	1	3	n/a	n/a	n/a	n/a	n/a	n/a
3271839	RECOG_RESP	n/a	LTP278	ltpFR	16	5	n/a	STRAW	1390	1	n/a	n/a	n/a	n/a	n/a	n/a	n/a
3272199	RECOG_CONF	n/a	LTP278	ltpFR	16	5	n/a	STRAW	1390	n/a	3	n/a	n/a	n/a	n/a	n/a	n/a
3273664	RECOG_LURE	n/a	LTP278	ltpFR	16	5	n/a	ALMANAC	17	0	1	n/a	n/a	n/a	n/a	n/a	n/a
3275364	RECOG_RESP	n/a	LTP278	ltpFR	16	5	n/a	ALMANAC	17	0	n/a	n/a	n/a	n/a	n/a	n/a	n/a
3275769	RECOG_CONF	n/a	LTP278	ltpFR	16	5	n/a	ALMANAC	17	n/a	1	n/a	n/a	n/a	n/a	n/a	n/a
3277742	RECOG_LURE	n/a	LTP278	ltpFR	16	5	n/a	INN	739	0	4	n/a	n/a	n/a	n/a	n/a	n/a
3278494	RECOG_RESP	n/a	LTP278	ltpFR	16	5	n/a	INN	739	0	n/a	n/a	n/a	n/a	n/a	n/a	n/a
3278949	RECOG_CONF	n/a	LTP278	ltpFR	16	5	n/a	INN	739	n/a	4	n/a	n/a	n/a	n/a	n/a	n/a
3280654	RECOG_LURE	n/a	LTP278	ltpFR	16	5	n/a	PRINCESS	1125	0	2	n/a	n/a	n/a	n/a	n/a	n/a
3281934	RECOG_RESP	n/a	LTP278	ltpFR	16	5	n/a	PRINCESS	1125	0	n/a	n/a	n/a	n/a	n/a	n/a	n/a
3282599	RECOG_CONF	n/a	LTP278	ltpFR	16	5	n/a	PRINCESS	1125	n/a	2	n/a	n/a	n/a	n/a	n/a	n/a
3284399	RECOG_LURE	n/a	LTP278	ltpFR	16	5	n/a	DAM	436	0	1	n/a	n/a	n/a	n/a	n/a	n/a
3285189	RECOG_RESP	n/a	LTP278	ltpFR	16	5	n/a	DAM	436	0	n/a	n/a	n/a	n/a	n/a	n/a	n/a
3285629	RECOG_CONF	n/a	LTP278	ltpFR	16	5	n/a	DAM	436	n/a	1	n/a	n/a	n/a	n/a	n/a	n/a
3287345	RECOG_LURE	n/a	LTP278	ltpFR	16	5	n/a	SILK	1307	0	4	n/a	n/a	n/a	n/a	n/a	n/a
3287989	RECOG_RESP	n/a	LTP278	ltpFR	16	5	n/a	SILK	1307	0	n/a	n/a	n/a	n/a	n/a	n/a	n/a
3288449	RECOG_CONF	n/a	LTP278	ltpFR	16	5	n/a	SILK	1307	n/a	4	n/a	n/a	n/a	n/a	n/a	n/a
3290040	RECOG_TARGET	n/a	LTP278	ltpFR	16	5	1	MANAGER	863	1	5	1	n/a	n/a	n/a	n/a	n/a
3290879	RECOG_RESP	n/a	LTP278	ltpFR	16	5	1	MANAGER	863	1	n/a	1	n/a	n/a	n/a	n/a	n/a
3291289	RECOG_CONF	n/a	LTP278	ltpFR	16	5	1	MANAGER	863	n/a	5	1	n/a	n/a	n/a	n/a	n/a
3293102	RECOG_LURE	n/a	LTP278	ltpFR	16	5	n/a	TOASTER	1472	0	1	n/a	n/a	n/a	n/a	n/a	n/a
3293994	RECOG_RESP	n/a	LTP278	ltpFR	16	5	n/a	TOASTER	1472	0	n/a	n/a	n/a	n/a	n/a	n/a	n/a
3294419	RECOG_CONF	n/a	LTP278	ltpFR	16	5	n/a	TOASTER	1472	n/a	1	n/a	n/a	n/a	n/a	n/a	n/a
3296131	RECOG_TARGET	n/a	LTP278	ltpFR	16	5	1	DRIVEWAY	500	1	4	0	n/a	n/a	n/a	n/a	n/a
3296789	RECOG_RESP	n/a	LTP278	ltpFR	16	5	1	DRIVEWAY	500	1	n/a	0	n/a	n/a	n/a	n/a	n/a
3297219	RECOG_CONF	n/a	LTP278	ltpFR	16	5	1	DRIVEWAY	500	n/a	4	0	n/a	n/a	n/a	n/a	n/a
3298943	RECOG_TARGET	n/a	LTP278	ltpFR	16	5	1	SAW	1239	1	5	0	n/a	n/a	n/a	n/a	n/a
3303949	RECOG_RESP	n/a	LTP278	ltpFR	16	5	1	SAW	1239	1	n/a	0	n/a	n/a	n/a	n/a	n/a
3304639	RECOG_CONF	n/a	LTP278	ltpFR	16	5	1	SAW	1239	n/a	5	0	n/a	n/a	n/a	n/a	n/a
3306648	RECOG_TARGET	n/a	LTP278	ltpFR	16	5	0	MEAL	882	1	3	0	n/a	n/a	n/a	n/a	n/a
3307504	RECOG_RESP	n/a	LTP278	ltpFR	16	5	0	MEAL	882	1	n/a	0	n/a	n/a	n/a	n/a	n/a
3308009	RECOG_CONF	n/a	LTP278	ltpFR	16	5	0	MEAL	882	n/a	3	0	n/a	n/a	n/a	n/a	n/a
3309777	RECOG_LURE	n/a	LTP278	ltpFR	16	5	n/a	HANDBAG	684	0	3	n/a	n/a	n/a	n/a	n/a	n/a
3311004	RECOG_RESP	n/a	LTP278	ltpFR	16	5	n/a	HANDBAG	684	0	n/a	n/a	n/a	n/a	n/a	n/a	n/a
3311339	RECOG_CONF	n/a	LTP278	ltpFR	16	5	n/a	HANDBAG	684	n/a	3	n/a	n/a	n/a	n/a	n/a	n/a
3314768	REC_START	n/a	LTP278	ltpFR	16	6	n/a	n/a	n/a	n/a	n/a	n/a	n/a	n/a	n/a	n/a	n/a
3314803	RECOG_LURE	n/a	LTP278	ltpFR	16	6	n/a	GLOVE	642	0	1	n/a	n/a	n/a	n/a	n/a	n/a
3315433	RECOG_RESP	n/a	LTP278	ltpFR	16	6	n/a	GLOVE	642	0	n/a	n/a	n/a	n/a	n/a	n/a	n/a
3315958	RECOG_CONF	n/a	LTP278	ltpFR	16	6	n/a	GLOVE	642	n/a	1	n/a	n/a	n/a	n/a	n/a	n/a
3317549	RECOG_LURE	n/a	LTP278	ltpFR	16	6	n/a	VOLUNTEER	1577	0	1	n/a	n/a	n/a	n/a	n/a	n/a
3318083	RECOG_RESP	n/a	LTP278	ltpFR	16	6	n/a	VOLUNTEER	1577	0	n/a	n/a	n/a	n/a	n/a	n/a	n/a
3318578	RECOG_CONF	n/a	LTP278	ltpFR	16	6	n/a	VOLUNTEER	1577	n/a	1	n/a	n/a	n/a	n/a	n/a	n/a
3320162	RECOG_LURE	n/a	LTP278	ltpFR	16	6	n/a	QUILT	1151	0	3	n/a	n/a	n/a	n/a	n/a	n/a
3320958	RECOG_RESP	n/a	LTP278	ltpFR	16	6	n/a	QUILT	1151	0	n/a	n/a	n/a	n/a	n/a	n/a	n/a
3321378	RECOG_CONF	n/a	LTP278	ltpFR	16	6	n/a	QUILT	1151	n/a	3	n/a	n/a	n/a	n/a	n/a	n/a
3323024	RECOG_TARGET	n/a	LTP278	ltpFR	16	6	0	BANQUET	86	1	5	0	n/a	n/a	n/a	n/a	n/a
3323848	RECOG_RESP	n/a	LTP278	ltpFR	16	6	0	BANQUET	86	1	n/a	0	n/a	n/a	n/a	n/a	n/a
3324291	RECOG_CONF	n/a	LTP278	ltpFR	16	6	0	BANQUET	86	n/a	5	0	n/a	n/a	n/a	n/a	n/a
3325920	RECOG_TARGET	n/a	LTP278	ltpFR	16	6	0	TERMINAL	1450	1	4	1	n/a	n/a	n/a	n/a	n/a
3326888	RECOG_RESP	n/a	LTP278	ltpFR	16	6	0	TERMINAL	1450	1	n/a	1	n/a	n/a	n/a	n/a	n/a
3327268	RECOG_CONF	n/a	LTP278	ltpFR	16	6	0	TERMINAL	1450	n/a	4	1	n/a	n/a	n/a	n/a	n/a
3328832	RECOG_TARGET	n/a	LTP278	ltpFR	16	6	1	CARROT	249	1	3	0	n/a	n/a	n/a	n/a	n/a
3329418	RECOG_RESP	n/a	LTP278	ltpFR	16	6	1	CARROT	249	1	n/a	0	n/a	n/a	n/a	n/a	n/a
3329808	RECOG_CONF	n/a	LTP278	ltpFR	16	6	1	CARROT	249	n/a	3	0	n/a	n/a	n/a	n/a	n/a
3331429	RECOG_TARGET	n/a	LTP278	ltpFR	16	6	0	CAKE	219	1	4	0	n/a	n/a	n/a	n/a	n/a
3331993	RECOG_RESP	n/a	LTP278	ltpFR	16	6	0	CAKE	219	1	n/a	0	n/a	n/a	n/a	n/a	n/a
3332468	RECOG_CONF	n/a	LTP278	ltpFR	16	6	0	CAKE	219	n/a	4	0	n/a	n/a	n/a	n/a	n/a
3334124	RECOG_TARGET	n/a	LTP278	ltpFR	16	6	1	FARMER	553	1	4	1	n/a	n/a	n/a	n/a	n/a
3334768	RECOG_RESP	n/a	LTP278	ltpFR	16	6	1	FARMER	553	1	n/a	1	n/a	n/a	n/a	n/a	n/a
3335148	RECOG_CONF	n/a	LTP278	ltpFR	16	6	1	FARMER	553	n/a	4	1	n/a	n/a	n/a	n/a	n/a
3336853	RECOG_TARGET	n/a	LTP278	ltpFR	16	6	1	BAND	78	1	2	0	n/a	n/a	n/a	n/a	n/a
3337428	RECOG_RESP	n/a	LTP278	ltpFR	16	6	1	BAND	78	1	n/a	0	n/a	n/a	n/a	n/a	n/a
3337818	RECOG_CONF	n/a	LTP278	ltpFR	16	6	1	BAND	78	n/a	2	0	n/a	n/a	n/a	n/a	n/a
3339649	RECOG_TARGET	n/a	LTP278	ltpFR	16	6	1	UNIFORM	1539	1	4	0	n/a	n/a	n/a	n/a	n/a
3340308	RECOG_RESP	n/a	LTP278	ltpFR	16	6	1	UNIFORM	1539	1	n/a	0	n/a	n/a	n/a	n/a	n/a
3340688	RECOG_CONF	n/a	LTP278	ltpFR	16	6	1	UNIFORM	1539	n/a	4	0	n/a	n/a	n/a	n/a	n/a
3342296	RECOG_TARGET	n/a	LTP278	ltpFR	16	6	0	FUGITIVE	612	1	4	1	n/a	n/a	n/a	n/a	n/a
3342958	RECOG_RESP	n/a	LTP278	ltpFR	16	6	0	FUGITIVE	612	1	n/a	1	n/a	n/a	n/a	n/a	n/a
3343318	RECOG_CONF	n/a	LTP278	ltpFR	16	6	0	FUGITIVE	612	n/a	4	1	n/a	n/a	n/a	n/a	n/a
3345008	RECOG_TARGET	n/a	LTP278	ltpFR	16	6	0	HALL	677	1	5	0	n/a	n/a	n/a	n/a	n/a
3345833	RECOG_RESP	n/a	LTP278	ltpFR	16	6	0	HALL	677	1	n/a	0	n/a	n/a	n/a	n/a	n/a
3346178	RECOG_CONF	n/a	LTP278	ltpFR	16	6	0	HALL	677	n/a	5	0	n/a	n/a	n/a	n/a	n/a
3347837	RECOG_TARGET	n/a	LTP278	ltpFR	16	6	-1	ELECTRICIAN	521	1	3	-1	n/a	n/a	n/a	n/a	n/a
3348728	RECOG_RESP	n/a	LTP278	ltpFR	16	6	-1	ELECTRICIAN	521	1	n/a	-1	n/a	n/a	n/a	n/a	n/a
3349098	RECOG_CONF	n/a	LTP278	ltpFR	16	6	-1	ELECTRICIAN	521	n/a	3	-1	n/a	n/a	n/a	n/a	n/a
3350849	RECOG_LURE	n/a	LTP278	ltpFR	16	6	n/a	MARINE	869	1	1	n/a	n/a	n/a	n/a	n/a	n/a
3351528	RECOG_RESP	n/a	LTP278	ltpFR	16	6	n/a	MARINE	869	1	n/a	n/a	n/a	n/a	n/a	n/a	n/a
3352388	RECOG_CONF	n/a	LTP278	ltpFR	16	6	n/a	MARINE	869	n/a	1	n/a	n/a	n/a	n/a	n/a	n/a
3354044	RECOG_TARGET	n/a	LTP278	ltpFR	16	6	0	SPINE	1353	1	4	0	n/a	n/a	n/a	n/a	n/a
3354903	RECOG_RESP	n/a	LTP278	ltpFR	16	6	0	SPINE	1353	1	n/a	0	n/a	n/a	n/a	n/a	n/a
3355228	RECOG_CONF	n/a	LTP278	ltpFR	16	6	0	SPINE	1353	n/a	4	0	n/a	n/a	n/a	n/a	n/a
3356790	RECOG_TARGET	n/a	LTP278	ltpFR	16	6	-1	CARAVAN	242	1	4	-1	n/a	n/a	n/a	n/a	n/a
3357548	RECOG_RESP	n/a	LTP278	ltpFR	16	6	-1	CARAVAN	242	1	n/a	-1	n/a	n/a	n/a	n/a	n/a
3357888	RECOG_CONF	n/a	LTP278	ltpFR	16	6	-1	CARAVAN	242	n/a	4	-1	n/a	n/a	n/a	n/a	n/a
3359636	RECOG_TARGET	n/a	LTP278	ltpFR	16	6	0	BADGE	68	1	4	1	n/a	n/a	n/a	n/a	n/a
3360343	RECOG_RESP	n/a	LTP278	ltpFR	16	6	0	BADGE	68	1	n/a	1	n/a	n/a	n/a	n/a	n/a
3360678	RECOG_CONF	n/a	LTP278	ltpFR	16	6	0	BADGE	68	n/a	4	1	n/a	n/a	n/a	n/a	n/a
3362233	RECOG_TARGET	n/a	LTP278	ltpFR	16	6	-1	LEADER	807	1	5	-1	n/a	n/a	n/a	n/a	n/a
3362863	RECOG_RESP	n/a	LTP278	ltpFR	16	6	-1	LEADER	807	1	n/a	-1	n/a	n/a	n/a	n/a	n/a
3363168	RECOG_CONF	n/a	LTP278	ltpFR	16	6	-1	LEADER	807	n/a	5	-1	n/a	n/a	n/a	n/a	n/a
3364745	RECOG_TARGET	n/a	LTP278	ltpFR	16	6	-1	SUBURB	1399	0	1	-1	n/a	n/a	n/a	n/a	n/a
3365613	RECOG_RESP	n/a	LTP278	ltpFR	16	6	-1	SUBURB	1399	0	n/a	-1	n/a	n/a	n/a	n/a	n/a
3366028	RECOG_CONF	n/a	LTP278	ltpFR	16	6	-1	SUBURB	1399	n/a	1	-1	n/a	n/a	n/a	n/a	n/a
3367774	RECOG_LURE	n/a	LTP278	ltpFR	16	6	n/a	BOTTLE	153	0	4	n/a	n/a	n/a	n/a	n/a	n/a
3369493	RECOG_RESP	n/a	LTP278	ltpFR	16	6	n/a	BOTTLE	153	0	n/a	n/a	n/a	n/a	n/a	n/a	n/a
3369848	RECOG_CONF	n/a	LTP278	ltpFR	16	6	n/a	BOTTLE	153	n/a	4	n/a	n/a	n/a	n/a	n/a	n/a
3373224	REC_START	n/a	LTP278	ltpFR	16	7	n/a	n/a	n/a	n/a	n/a	n/a	n/a	n/a	n/a	n/a	n/a
3373250	RECOG_TARGET	n/a	LTP278	ltpFR	16	7	1	SPIT	1354	1	1	0	n/a	n/a	n/a	n/a	n/a
3374109	RECOG_RESP	n/a	LTP278	ltpFR	16	7	1	SPIT	1354	1	n/a	0	n/a	n/a	n/a	n/a	n/a
3374634	RECOG_CONF	n/a	LTP278	ltpFR	16	7	1	SPIT	1354	n/a	1	0	n/a	n/a	n/a	n/a	n/a
3376145	RECOG_TARGET	n/a	LTP278	ltpFR	16	7	0	PENNY	1045	1	4	0	n/a	n/a	n/a	n/a	n/a
3376769	RECOG_RESP	n/a	LTP278	ltpFR	16	7	0	PENNY	1045	1	n/a	0	n/a	n/a	n/a	n/a	n/a
3377124	RECOG_CONF	n/a	LTP278	ltpFR	16	7	0	PENNY	1045	n/a	4	0	n/a	n/a	n/a	n/a	n/a
3378741	RECOG_LURE	n/a	LTP278	ltpFR	16	7	n/a	GULL	671	1	4	n/a	n/a	n/a	n/a	n/a	n/a
3379464	RECOG_RESP	n/a	LTP278	ltpFR	16	7	n/a	GULL	671	1	n/a	n/a	n/a	n/a	n/a	n/a	n/a
3379874	RECOG_CONF	n/a	LTP278	ltpFR	16	7	n/a	GULL	671	n/a	4	n/a	n/a	n/a	n/a	n/a	n/a
3381703	RECOG_TARGET	n/a	LTP278	ltpFR	16	7	1	ARROW	40	1	5	0	n/a	n/a	n/a	n/a	n/a
3382549	RECOG_RESP	n/a	LTP278	ltpFR	16	7	1	ARROW	40	1	n/a	0	n/a	n/a	n/a	n/a	n/a
3382924	RECOG_CONF	n/a	LTP278	ltpFR	16	7	1	ARROW	40	n/a	5	0	n/a	n/a	n/a	n/a	n/a
3384482	RECOG_LURE	n/a	LTP278	ltpFR	16	7	n/a	CLERK	321	1	1	n/a	n/a	n/a	n/a	n/a	n/a
3386224	RECOG_RESP	n/a	LTP278	ltpFR	16	7	n/a	CLERK	321	1	n/a	n/a	n/a	n/a	n/a	n/a	n/a
3386654	RECOG_CONF	n/a	LTP278	ltpFR	16	7	n/a	CLERK	321	n/a	1	n/a	n/a	n/a	n/a	n/a	n/a
3388394	RECOG_TARGET	n/a	LTP278	ltpFR	16	7	1	APPENDAGE	32	1	3	0	n/a	n/a	n/a	n/a	n/a
3389154	RECOG_RESP	n/a	LTP278	ltpFR	16	7	1	APPENDAGE	32	1	n/a	0	n/a	n/a	n/a	n/a	n/a
3389534	RECOG_CONF	n/a	LTP278	ltpFR	16	7	1	APPENDAGE	32	n/a	3	0	n/a	n/a	n/a	n/a	n/a
3391172	RECOG_TARGET	n/a	LTP278	ltpFR	16	7	0	BAY	102	1	4	1	n/a	n/a	n/a	n/a	n/a
3391874	RECOG_RESP	n/a	LTP278	ltpFR	16	7	0	BAY	102	1	n/a	1	n/a	n/a	n/a	n/a	n/a
3392244	RECOG_CONF	n/a	LTP278	ltpFR	16	7	0	BAY	102	n/a	4	1	n/a	n/a	n/a	n/a	n/a
3393918	RECOG_LURE	n/a	LTP278	ltpFR	16	7	n/a	PLAID	1080	0	4	n/a	n/a	n/a	n/a	n/a	n/a
3394774	RECOG_RESP	n/a	LTP278	ltpFR	16	7	n/a	PLAID	1080	0	n/a	n/a	n/a	n/a	n/a	n/a	n/a
3395124	RECOG_CONF	n/a	LTP278	ltpFR	16	7	n/a	PLAID	1080	n/a	4	n/a	n/a	n/a	n/a	n/a	n/a
3396997	RECOG_LURE	n/a	LTP278	ltpFR	16	7	n/a	GANG	619	0	1	n/a	n/a	n/a	n/a	n/a	n/a
3397814	RECOG_RESP	n/a	LTP278	ltpFR	16	7	n/a	GANG	619	0	n/a	n/a	n/a	n/a	n/a	n/a	n/a
3398304	RECOG_CONF	n/a	LTP278	ltpFR	16	7	n/a	GANG	619	n/a	1	n/a	n/a	n/a	n/a	n/a	n/a
3399909	RECOG_LURE	n/a	LTP278	ltpFR	16	7	n/a	MEADOW	881	0	1	n/a	n/a	n/a	n/a	n/a	n/a
3401419	RECOG_RESP	n/a	LTP278	ltpFR	16	7	n/a	MEADOW	881	0	n/a	n/a	n/a	n/a	n/a	n/a	n/a
3401924	RECOG_CONF	n/a	LTP278	ltpFR	16	7	n/a	MEADOW	881	n/a	1	n/a	n/a	n/a	n/a	n/a	n/a
3403454	RECOG_TARGET	n/a	LTP278	ltpFR	16	7	1	MASCARA	875	1	4	0	n/a	n/a	n/a	n/a	n/a
3404309	RECOG_RESP	n/a	LTP278	ltpFR	16	7	1	MASCARA	875	1	n/a	0	n/a	n/a	n/a	n/a	n/a
3404694	RECOG_CONF	n/a	LTP278	ltpFR	16	7	1	MASCARA	875	n/a	4	0	n/a	n/a	n/a	n/a	n/a
3406351	RECOG_LURE	n/a	LTP278	ltpFR	16	7	n/a	DOOR	486	1	1	n/a	n/a	n/a	n/a	n/a	n/a
3406989	RECOG_RESP	n/a	LTP278	ltpFR	16	7	n/a	DOOR	486	1	n/a	n/a	n/a	n/a	n/a	n/a	n/a
3407614	RECOG_CONF	n/a	LTP278	ltpFR	16	7	n/a	DOOR	486	n/a	1	n/a	n/a	n/a	n/a	n/a	n/a
3409511	RECOG_LURE	n/a	LTP278	ltpFR	16	7	n/a	DRYER	503	1	1	n/a	n/a	n/a	n/a	n/a	n/a
3410079	RECOG_RESP	n/a	LTP278	ltpFR	16	7	n/a	DRYER	503	1	n/a	n/a	n/a	n/a	n/a	n/a	n/a
3410454	RECOG_CONF	n/a	LTP278	ltpFR	16	7	n/a	DRYER	503	n/a	1	n/a	n/a	n/a	n/a	n/a	n/a
3412208	RECOG_TARGET	n/a	LTP278	ltpFR	16	7	0	STAPLER	1372	1	5	0	n/a	n/a	n/a	n/a	n/a
3412849	RECOG_RESP	n/a	LTP278	ltpFR	16	7	0	STAPLER	1372	1	n/a	0	n/a	n/a	n/a	n/a	n/a
3413204	RECOG_CONF	n/a	LTP278	ltpFR	16	7	0	STAPLER	1372	n/a	5	0	n/a	n/a	n/a	n/a	n/a
3414737	RECOG_TARGET	n/a	LTP278	ltpFR	16	7	1	FRIEND	606	1	4	0	n/a	n/a	n/a	n/a	n/a
3415074	RECOG_RESP	n/a	LTP278	ltpFR	16	7	1	FRIEND	606	1	n/a	0	n/a	n/a	n/a	n/a	n/a
3415534	RECOG_CONF	n/a	LTP278	ltpFR	16	7	1	FRIEND	606	n/a	4	0	n/a	n/a	n/a	n/a	n/a
3417050	RECOG_TARGET	n/a	LTP278	ltpFR	16	7	1	CANOE	233	1	3	0	n/a	n/a	n/a	n/a	n/a
3417979	RECOG_RESP	n/a	LTP278	ltpFR	16	7	1	CANOE	233	1	n/a	0	n/a	n/a	n/a	n/a	n/a
3418424	RECOG_CONF	n/a	LTP278	ltpFR	16	7	1	CANOE	233	n/a	3	0	n/a	n/a	n/a	n/a	n/a
3420046	RECOG_LURE	n/a	LTP278	ltpFR	16	7	n/a	TART	1436	1	4	n/a	n/a	n/a	n/a	n/a	n/a
3420669	RECOG_RESP	n/a	LTP278	ltpFR	16	7	n/a	TART	1436	1	n/a	n/a	n/a	n/a	n/a	n/a	n/a
3421074	RECOG_CONF	n/a	LTP278	ltpFR	16	7	n/a	TART	1436	n/a	4	n/a	n/a	n/a	n/a	n/a	n/a
3422642	RECOG_TARGET	n/a	LTP278	ltpFR	16	7	-1	SNAKE	1333	1	4	-1	n/a	n/a	n/a	n/a	n/a
3423234	RECOG_RESP	n/a	LTP278	ltpFR	16	7	-1	SNAKE	1333	1	n/a	-1	n/a	n/a	n/a	n/a	n/a
3423644	RECOG_CONF	n/a	LTP278	ltpFR	16	7	-1	SNAKE	1333	n/a	4	-1	n/a	n/a	n/a	n/a	n/a
3425206	RECOG_TARGET	n/a	LTP278	ltpFR	16	7	1	CORAL	378	1	4	1	n/a	n/a	n/a	n/a	n/a
3425819	RECOG_RESP	n/a	LTP278	ltpFR	16	7	1	CORAL	378	1	n/a	1	n/a	n/a	n/a	n/a	n/a
3426204	RECOG_CONF	n/a	LTP278	ltpFR	16	7	1	CORAL	378	n/a	4	1	n/a	n/a	n/a	n/a	n/a
3427784	RECOG_TARGET	n/a	LTP278	ltpFR	16	7	0	BARLEY	88	1	5	0	n/a	n/a	n/a	n/a	n/a
3428549	RECOG_RESP	n/a	LTP278	ltpFR	16	7	0	BARLEY	88	1	n/a	0	n/a	n/a	n/a	n/a	n/a
3428934	RECOG_CONF	n/a	LTP278	ltpFR	16	7	0	BARLEY	88	n/a	5	0	n/a	n/a	n/a	n/a	n/a
3432342	REC_START	n/a	LTP278	ltpFR	16	8	n/a	n/a	n/a	n/a	n/a	n/a	n/a	n/a	n/a	n/a	n/a
3432378	RECOG_TARGET	n/a	LTP278	ltpFR	16	8	1	HEATER	698	1	3	0	n/a	n/a	n/a	n/a	n/a
3433242	RECOG_RESP	n/a	LTP278	ltpFR	16	8	1	HEATER	698	1	n/a	0	n/a	n/a	n/a	n/a	n/a
3433612	RECOG_CONF	n/a	LTP278	ltpFR	16	8	1	HEATER	698	n/a	3	0	n/a	n/a	n/a	n/a	n/a
3435324	RECOG_TARGET	n/a	LTP278	ltpFR	16	8	0	RAFT	1159	1	4	1	n/a	n/a	n/a	n/a	n/a
3435922	RECOG_RESP	n/a	LTP278	ltpFR	16	8	0	RAFT	1159	1	n/a	1	n/a	n/a	n/a	n/a	n/a
3436382	RECOG_CONF	n/a	LTP278	ltpFR	16	8	0	RAFT	1159	n/a	4	1	n/a	n/a	n/a	n/a	n/a
3438085	RECOG_TARGET	n/a	LTP278	ltpFR	16	8	-1	AUTOMOBILE	62	1	5	-1	n/a	n/a	n/a	n/a	n/a
3438797	RECOG_RESP	n/a	LTP278	ltpFR	16	8	-1	AUTOMOBILE	62	1	n/a	-1	n/a	n/a	n/a	n/a	n/a
3439422	RECOG_CONF	n/a	LTP278	ltpFR	16	8	-1	AUTOMOBILE	62	n/a	5	-1	n/a	n/a	n/a	n/a	n/a
3441114	RECOG_TARGET	n/a	LTP278	ltpFR	16	8	1	CEREAL	272	1	3	1	n/a	n/a	n/a	n/a	n/a
3442472	RECOG_RESP	n/a	LTP278	ltpFR	16	8	1	CEREAL	272	1	n/a	1	n/a	n/a	n/a	n/a	n/a
3442932	RECOG_CONF	n/a	LTP278	ltpFR	16	8	1	CEREAL	272	n/a	3	1	n/a	n/a	n/a	n/a	n/a
3444742	RECOG_TARGET	n/a	LTP278	ltpFR	16	8	1	WASP	1593	1	4	0	n/a	n/a	n/a	n/a	n/a
3445472	RECOG_RESP	n/a	LTP278	ltpFR	16	8	1	WASP	1593	1	n/a	0	n/a	n/a	n/a	n/a	n/a
3445912	RECOG_CONF	n/a	LTP278	ltpFR	16	8	1	WASP	1593	n/a	4	0	n/a	n/a	n/a	n/a	n/a
3447621	RECOG_LURE	n/a	LTP278	ltpFR	16	8	n/a	ENVELOPE	537	1	3	n/a	n/a	n/a	n/a	n/a	n/a
3448542	RECOG_RESP	n/a	LTP278	ltpFR	16	8	n/a	ENVELOPE	537	1	n/a	n/a	n/a	n/a	n/a	n/a	n/a
3449062	RECOG_CONF	n/a	LTP278	ltpFR	16	8	n/a	ENVELOPE	537	n/a	3	n/a	n/a	n/a	n/a	n/a	n/a
3450633	RECOG_LURE	n/a	LTP278	ltpFR	16	8	n/a	COBRA	336	1	4	n/a	n/a	n/a	n/a	n/a	n/a
3451712	RECOG_RESP	n/a	LTP278	ltpFR	16	8	n/a	COBRA	336	1	n/a	n/a	n/a	n/a	n/a	n/a	n/a
