mstime	trial_type	stim_file	subject	experiment	session	trial	item_name	item_num	list	answer	test_x	test_y	test_z
0	SESS_START	n/a	LTP370	ltpFR2	0	n/a	n/a	n/a	n/a	n/a	0	0	0
72453	START	n/a	LTP370	ltpFR2	0	n/a	n/a	n/a	-1	n/a	n/a	n/a	n/a
72483	PROB	n/a	LTP370	ltpFR2	0	n/a	n/a	n/a	-1	10	2	7	1
76032	PROB	n/a	LTP370	ltpFR2	0	n/a	n/a	n/a	-1	15	5	9	1
79963	PROB	n/a	LTP370	ltpFR2	0	n/a	n/a	n/a	-1	10	1	6	3
84453	STOP	n/a	LTP370	ltpFR2	0	n/a	n/a	n/a	-1	n/a	n/a	n/a	n/a
151764	WORD	wordpools/wasnorm_wordpool_576.txt	LTP370	ltpFR2	0	1	PICTURE	1061	n/a	n/a	0	0	0
154246	WORD	wordpools/wasnorm_wordpool_576.txt	LTP370	ltpFR2	0	1	BATHTUB	100	n/a	n/a	0	0	0
156979	WORD	wordpools/wasnorm_wordpool_576.txt	LTP370	ltpFR2	0	1	SUSPECT	1415	n/a	n/a	0	0	0
159777	WORD	wordpools/wasnorm_wordpool_576.txt	LTP370	ltpFR2	0	1	ORANGE	980	n/a	n/a	0	0	0
162343	WORD	wordpools/wasnorm_wordpool_576.txt	LTP370	ltpFR2	0	1	GRAPE	654	n/a	n/a	0	0	0
164875	WORD	wordpools/wasnorm_wordpool_576.txt	LTP370	ltpFR2	0	1	CONVICT	371	n/a	n/a	0	0	0
167390	WORD	wordpools/wasnorm_wordpool_576.txt	LTP370	ltpFR2	0	1	SLIDE	1326	n/a	n/a	0	0	0
169939	WORD	wordpools/wasnorm_wordpool_576.txt	LTP370	ltpFR2	0	1	INMATE	738	n/a	n/a	0	0	0
172738	WORD	wordpools/wasnorm_wordpool_576.txt	LTP370	ltpFR2	0	1	RAFT	1159	n/a	n/a	0	0	0
175354	WORD	wordpools/wasnorm_wordpool_576.txt	LTP370	ltpFR2	0	1	TORTOISE	1486	n/a	n/a	0	0	0
178036	WORD	wordpools/wasnorm_wordpool_576.txt	LTP370	ltpFR2	0	1	SNAIL	1332	n/a	n/a	0	0	0
180534	WORD	wordpools/wasnorm_wordpool_576.txt	LTP370	ltpFR2	0	1	CASHEW	253	n/a	n/a	0	0	0
183033	WORD	wordpools/wasnorm_wordpool_576.txt	LTP370	ltpFR2	0	1	MATCH	878	n/a	n/a	0	0	0
185532	WORD	wordpools/wasnorm_wordpool_576.txt	LTP370	ltpFR2	0	1	PLASTER	1085	n/a	n/a	0	0	0
188348	WORD	wordpools/wasnorm_wordpool_576.txt	LTP370	ltpFR2	0	1	OFFICE	972	n/a	n/a	0	0	0
190829	WORD	wordpools/wasnorm_wordpool_576.txt	LTP370	ltpFR2	0	1	NEUTRON	947	n/a	n/a	0	0	0
193279	WORD	wordpools/wasnorm_wordpool_576.txt	LTP370	ltpFR2	0	1	BOARD	143	n/a	n/a	0	0	0
195961	WORD	wordpools/wasnorm_wordpool_576.txt	LTP370	ltpFR2	0	1	SCULPTURE	1258	n/a	n/a	0	0	0
198660	WORD	wordpools/wasnorm_wordpool_576.txt	LTP370	ltpFR2	0	1	PEANUT	1032	n/a	n/a	0	0	0
201225	WORD	wordpools/wasnorm_wordpool_576.txt	LTP370	ltpFR2	0	1	BLENDER	136	n/a	n/a	0	0	0
203974	WORD	wordpools/wasnorm_wordpool_576.txt	LTP370	ltpFR2	0	1	CYCLONE	431	n/a	n/a	0	0	0
206456	WORD	wordpools/wasnorm_wordpool_576.txt	LTP370	ltpFR2	0	1	BURGLAR	200	n/a	n/a	0	0	0
209022	WORD	wordpools/wasnorm_wordpool_576.txt	LTP370	ltpFR2	0	1	TOURIST	1488	n/a	n/a	0	0	0
211537	WORD	wordpools/wasnorm_wordpool_576.txt	LTP370	ltpFR2	0	1	ATOM	55	n/a	n/a	0	0	0
213153	START	n/a	LTP370	ltpFR2	0	n/a	n/a	n/a	1	n/a	n/a	n/a	n/a
213955	DISTRACTOR	n/a	LTP370	ltpFR2	0	1	n/a	n/a	n/a	n/a	0	0	0
213969	PROB	n/a	LTP370	ltpFR2	0	n/a	n/a	n/a	1	17	8	1	8
216651	PROB	n/a	LTP370	ltpFR2	0	n/a	n/a	n/a	1	12	1	5	6
218501	PROB	n/a	LTP370	ltpFR2	0	n/a	n/a	n/a	1	12	3	3	6
220600	PROB	n/a	LTP370	ltpFR2	0	n/a	n/a	n/a	1	18	6	3	9
223265	PROB	n/a	LTP370	ltpFR2	0	n/a	n/a	n/a	1	18	6	7	5
225681	PROB	n/a	LTP370	ltpFR2	0	n/a	n/a	n/a	1	20	9	8	6
228280	PROB	n/a	LTP370	ltpFR2	0	n/a	n/a	n/a	1	19	4	9	6
231628	PROB	n/a	LTP370	ltpFR2	0	n/a	n/a	n/a	1	21	7	8	6
233977	PROB	n/a	LTP370	ltpFR2	0	n/a	n/a	n/a	1	9	3	5	1
235838	STOP	n/a	LTP370	ltpFR2	0	n/a	n/a	n/a	1	n/a	n/a	n/a	n/a
239059	REC_START	n/a	LTP370	ltpFR2	0	1	n/a	n/a	n/a	n/a	0	0	0
246415	REC_WORD_VV	wordpools/wasnorm_wordpool_576.txt	LTP370	ltpFR2	0	1	<>	-1	n/a	n/a	0	0	0
247415	REC_WORD_VV	wordpools/wasnorm_wordpool_576.txt	LTP370	ltpFR2	0	1	<>	-1	n/a	n/a	0	0	0
248926	REC_WORD	wordpools/wasnorm_wordpool_576.txt	LTP370	ltpFR2	0	1	PICTURE	1061	n/a	n/a	0	0	0
249773	REC_WORD	wordpools/wasnorm_wordpool_576.txt	LTP370	ltpFR2	0	1	BATHTUB	100	n/a	n/a	0	0	0
251242	REC_WORD	wordpools/wasnorm_wordpool_576.txt	LTP370	ltpFR2	0	1	ORANGE	980	n/a	n/a	0	0	0
252195	REC_WORD	wordpools/wasnorm_wordpool_576.txt	LTP370	ltpFR2	0	1	GRAPE	654	n/a	n/a	0	0	0
253046	REC_WORD	wordpools/wasnorm_wordpool_576.txt	LTP370	ltpFR2	0	1	CONVICT	371	n/a	n/a	0	0	0
254125	REC_WORD	wordpools/wasnorm_wordpool_576.txt	LTP370	ltpFR2	0	1	INMATE	738	n/a	n/a	0	0	0
255394	REC_WORD	wordpools/wasnorm_wordpool_576.txt	LTP370	ltpFR2	0	1	CASHEW	253	n/a	n/a	0	0	0
256466	REC_WORD	wordpools/wasnorm_wordpool_576.txt	LTP370	ltpFR2	0	1	PEANUT	1032	n/a	n/a	0	0	0
257746	REC_WORD	wordpools/wasnorm_wordpool_576.txt	LTP370	ltpFR2	0	1	BLENDER	136	n/a	n/a	0	0	0
258426	REC_WORD	wordpools/wasnorm_wordpool_576.txt	LTP370	ltpFR2	0	1	CYCLONE	431	n/a	n/a	0	0	0
260025	REC_WORD	wordpools/wasnorm_wordpool_576.txt	LTP370	ltpFR2	0	1	NEUTRON	947	n/a	n/a	0	0	0
261131	REC_WORD	wordpools/wasnorm_wordpool_576.txt	LTP370	ltpFR2	0	1	ATOM	55	n/a	n/a	0	0	0
268563	REC_WORD	wordpools/wasnorm_wordpool_576.txt	LTP370	ltpFR2	0	1	SNAIL	1332	n/a	n/a	0	0	0
360270	DISTRACTOR	n/a	LTP370	ltpFR2	0	2	n/a	n/a	n/a	n/a	0	0	0
360270	START	n/a	LTP370	ltpFR2	0	n/a	n/a	n/a	2	n/a	n/a	n/a	n/a
360286	PROB	n/a	LTP370	ltpFR2	0	n/a	n/a	n/a	2	15	9	5	1
367100	PROB	n/a	LTP370	ltpFR2	0	n/a	n/a	n/a	2	17	4	8	1
371082	PROB	n/a	LTP370	ltpFR2	0	n/a	n/a	n/a	2	13	4	6	3
373247	PROB	n/a	LTP370	ltpFR2	0	n/a	n/a	n/a	2	10	1	1	8
375063	PROB	n/a	LTP370	ltpFR2	0	n/a	n/a	n/a	2	14	4	5	5
376646	PROB	n/a	LTP370	ltpFR2	0	n/a	n/a	n/a	2	13	3	3	7
379095	PROB	n/a	LTP370	ltpFR2	0	n/a	n/a	n/a	2	4	3	7	4
380844	PROB	n/a	LTP370	ltpFR2	0	n/a	n/a	n/a	2	11	8	2	1
382755	STOP	n/a	LTP370	ltpFR2	0	n/a	n/a	n/a	2	n/a	n/a	n/a	n/a
385392	WORD	wordpools/wasnorm_wordpool_576.txt	LTP370	ltpFR2	0	2	DRIVER	499	n/a	n/a	0	0	0
387857	WORD	wordpools/wasnorm_wordpool_576.txt	LTP370	ltpFR2	0	2	DASHBOARD	441	n/a	n/a	0	0	0
390573	WORD	wordpools/wasnorm_wordpool_576.txt	LTP370	ltpFR2	0	2	FIDDLE	561	n/a	n/a	0	0	0
393038	WORD	wordpools/wasnorm_wordpool_576.txt	LTP370	ltpFR2	0	2	TABLE	1426	n/a	n/a	0	0	0
395654	WORD	wordpools/wasnorm_wordpool_576.txt	LTP370	ltpFR2	0	2	EXPERT	543	n/a	n/a	0	0	0
398403	WORD	wordpools/wasnorm_wordpool_576.txt	LTP370	ltpFR2	0	2	CABIN	211	n/a	n/a	0	0	0
400901	WORD	wordpools/wasnorm_wordpool_576.txt	LTP370	ltpFR2	0	2	ASIA	46	n/a	n/a	0	0	0
403500	WORD	wordpools/wasnorm_wordpool_576.txt	LTP370	ltpFR2	0	2	CLOCK	325	n/a	n/a	0	0	0
406182	WORD	wordpools/wasnorm_wordpool_576.txt	LTP370	ltpFR2	0	2	NIGHTGOWN	953	n/a	n/a	0	0	0
408964	WORD	wordpools/wasnorm_wordpool_576.txt	LTP370	ltpFR2	0	2	FINGER	567	n/a	n/a	0	0	0
411430	WORD	wordpools/wasnorm_wordpool_576.txt	LTP370	ltpFR2	0	2	PASSAGE	1019	n/a	n/a	0	0	0
414046	WORD	wordpools/wasnorm_wordpool_576.txt	LTP370	ltpFR2	0	2	LOFT	840	n/a	n/a	0	0	0
416611	WORD	wordpools/wasnorm_wordpool_576.txt	LTP370	ltpFR2	0	2	FOOT	590	n/a	n/a	0	0	0
419443	WORD	wordpools/wasnorm_wordpool_576.txt	LTP370	ltpFR2	0	2	BLUEPRINT	142	n/a	n/a	0	0	0
421958	WORD	wordpools/wasnorm_wordpool_576.txt	LTP370	ltpFR2	0	2	COBRA	336	n/a	n/a	0	0	0
424474	WORD	wordpools/wasnorm_wordpool_576.txt	LTP370	ltpFR2	0	2	SCISSORS	1250	n/a	n/a	0	0	0
427073	WORD	wordpools/wasnorm_wordpool_576.txt	LTP370	ltpFR2	0	2	SCALPEL	1243	n/a	n/a	0	0	0
429738	WORD	wordpools/wasnorm_wordpool_576.txt	LTP370	ltpFR2	0	2	JOURNAL	760	n/a	n/a	0	0	0
432287	WORD	wordpools/wasnorm_wordpool_576.txt	LTP370	ltpFR2	0	2	SALT	1229	n/a	n/a	0	0	0
434719	WORD	wordpools/wasnorm_wordpool_576.txt	LTP370	ltpFR2	0	2	BROTHER	179	n/a	n/a	0	0	0
437502	WORD	wordpools/wasnorm_wordpool_576.txt	LTP370	ltpFR2	0	2	FREEZER	604	n/a	n/a	0	0	0
439950	WORD	wordpools/wasnorm_wordpool_576.txt	LTP370	ltpFR2	0	2	STOVE	1388	n/a	n/a	0	0	0
442699	WORD	wordpools/wasnorm_wordpool_576.txt	LTP370	ltpFR2	0	2	HIGHWAY	707	n/a	n/a	0	0	0
445298	WORD	wordpools/wasnorm_wordpool_576.txt	LTP370	ltpFR2	0	2	PIGEON	1065	n/a	n/a	0	0	0
446914	START	n/a	LTP370	ltpFR2	0	n/a	n/a	n/a	3	n/a	n/a	n/a	n/a
447766	DISTRACTOR	n/a	LTP370	ltpFR2	0	2	n/a	n/a	n/a	n/a	0	0	0
447780	PROB	n/a	LTP370	ltpFR2	0	n/a	n/a	n/a	3	21	5	8	8
450779	PROB	n/a	LTP370	ltpFR2	0	n/a	n/a	n/a	3	18	9	8	1
452411	PROB	n/a	LTP370	ltpFR2	0	n/a	n/a	n/a	3	11	6	4	1
454311	PROB	n/a	LTP370	ltpFR2	0	n/a	n/a	n/a	3	15	3	4	8
456476	PROB	n/a	LTP370	ltpFR2	0	n/a	n/a	n/a	3	11	5	2	4
458959	PROB	n/a	LTP370	ltpFR2	0	n/a	n/a	n/a	3	15	5	5	5
460374	PROB	n/a	LTP370	ltpFR2	0	n/a	n/a	n/a	3	17	9	5	3
463207	PROB	n/a	LTP370	ltpFR2	0	n/a	n/a	n/a	3	16	2	7	7
464772	PROB	n/a	LTP370	ltpFR2	0	n/a	n/a	n/a	3	23	7	5	9
470914	STOP	n/a	LTP370	ltpFR2	0	n/a	n/a	n/a	3	n/a	n/a	n/a	n/a
472819	REC_START	n/a	LTP370	ltpFR2	0	2	n/a	n/a	n/a	n/a	0	0	0
474181	REC_WORD	wordpools/wasnorm_wordpool_576.txt	LTP370	ltpFR2	0	2	DRIVER	499	n/a	n/a	0	0	0
475501	REC_WORD	wordpools/wasnorm_wordpool_576.txt	LTP370	ltpFR2	0	2	DASHBOARD	441	n/a	n/a	0	0	0
476909	REC_WORD	wordpools/wasnorm_wordpool_576.txt	LTP370	ltpFR2	0	2	TABLE	1426	n/a	n/a	0	0	0
478611	REC_WORD	wordpools/wasnorm_wordpool_576.txt	LTP370	ltpFR2	0	2	FIDDLE	561	n/a	n/a	0	0	0
479904	REC_WORD	wordpools/wasnorm_wordpool_576.txt	LTP370	ltpFR2	0	2	COBRA	336	n/a	n/a	0	0	0
484274	REC_WORD	wordpools/wasnorm_wordpool_576.txt	LTP370	ltpFR2	0	2	SCISSORS	1250	n/a	n/a	0	0	0
485541	REC_WORD	wordpools/wasnorm_wordpool_576.txt	LTP370	ltpFR2	0	2	SCALPEL	1243	n/a	n/a	0	0	0
488371	REC_WORD	wordpools/wasnorm_wordpool_576.txt	LTP370	ltpFR2	0	2	BROTHER	179	n/a	n/a	0	0	0
574539	WORD	wordpools/wasnorm_wordpool_576.txt	LTP370	ltpFR2	0	3	PARROT	1015	n/a	n/a	0	0	0
577222	WORD	wordpools/wasnorm_wordpool_576.txt	LTP370	ltpFR2	0	3	POLICE	1098	n/a	n/a	0	0	0
579787	WORD	wordpools/wasnorm_wordpool_576.txt	LTP370	ltpFR2	0	3	GUARD	667	n/a	n/a	0	0	0
582253	WORD	wordpools/wasnorm_wordpool_576.txt	LTP370	ltpFR2	0	3	BALLOON	75	n/a	n/a	0	0	0
585051	WORD	wordpools/wasnorm_wordpool_576.txt	LTP370	ltpFR2	0	3	STONE	1385	n/a	n/a	0	0	0
587500	WORD	wordpools/wasnorm_wordpool_576.txt	LTP370	ltpFR2	0	3	SILK	1307	n/a	n/a	0	0	0
590199	WORD	wordpools/wasnorm_wordpool_576.txt	LTP370	ltpFR2	0	3	HAWK	692	n/a	n/a	0	0	0
592848	WORD	wordpools/wasnorm_wordpool_576.txt	LTP370	ltpFR2	0	3	OMELET	976	n/a	n/a	0	0	0
595330	WORD	wordpools/wasnorm_wordpool_576.txt	LTP370	ltpFR2	0	3	CONTRACT	368	n/a	n/a	0	0	0
597962	WORD	wordpools/wasnorm_wordpool_576.txt	LTP370	ltpFR2	0	3	EGYPT	519	n/a	n/a	0	0	0
600494	WORD	wordpools/wasnorm_wordpool_576.txt	LTP370	ltpFR2	0	3	MUMMY	932	n/a	n/a	0	0	0
603143	WORD	wordpools/wasnorm_wordpool_576.txt	LTP370	ltpFR2	0	3	DRESS	495	n/a	n/a	0	0	0
605792	WORD	wordpools/wasnorm_wordpool_576.txt	LTP370	ltpFR2	0	3	COUNTY	389	n/a	n/a	0	0	0
608391	WORD	wordpools/wasnorm_wordpool_576.txt	LTP370	ltpFR2	0	3	BEEF	113	n/a	n/a	0	0	0
611206	WORD	wordpools/wasnorm_wordpool_576.txt	LTP370	ltpFR2	0	3	ACTRESS	6	n/a	n/a	0	0	0
613738	WORD	wordpools/wasnorm_wordpool_576.txt	LTP370	ltpFR2	0	3	BIKE	125	n/a	n/a	0	0	0
616420	WORD	wordpools/wasnorm_wordpool_576.txt	LTP370	ltpFR2	0	3	CAFE	216	n/a	n/a	0	0	0
618936	WORD	wordpools/wasnorm_wordpool_576.txt	LTP370	ltpFR2	0	3	SUBWAY	1400	n/a	n/a	0	0	0
621651	WORD	wordpools/wasnorm_wordpool_576.txt	LTP370	ltpFR2	0	3	POPCORN	1104	n/a	n/a	0	0	0
624433	WORD	wordpools/wasnorm_wordpool_576.txt	LTP370	ltpFR2	0	3	ROCKET	1202	n/a	n/a	0	0	0
626932	WORD	wordpools/wasnorm_wordpool_576.txt	LTP370	ltpFR2	0	3	BREAST	171	n/a	n/a	0	0	0
629581	WORD	wordpools/wasnorm_wordpool_576.txt	LTP370	ltpFR2	0	3	REPORT	1184	n/a	n/a	0	0	0
632013	WORD	wordpools/wasnorm_wordpool_576.txt	LTP370	ltpFR2	0	3	CANDY	230	n/a	n/a	0	0	0
634562	WORD	wordpools/wasnorm_wordpool_576.txt	LTP370	ltpFR2	0	3	BUTCHER	203	n/a	n/a	0	0	0
636178	START	n/a	LTP370	ltpFR2	0	n/a	n/a	n/a	4	n/a	n/a	n/a	n/a
637162	DISTRACTOR	n/a	LTP370	ltpFR2	0	3	n/a	n/a	n/a	n/a	0	0	0
637178	PROB	n/a	LTP370	ltpFR2	0	n/a	n/a	n/a	4	10	4	2	4
639343	PROB	n/a	LTP370	ltpFR2	0	n/a	n/a	n/a	4	18	9	1	8
642758	PROB	n/a	LTP370	ltpFR2	0	n/a	n/a	n/a	4	13	7	3	3
644741	PROB	n/a	LTP370	ltpFR2	0	n/a	n/a	n/a	4	14	3	5	6
647007	PROB	n/a	LTP370	ltpFR2	0	n/a	n/a	n/a	4	16	3	7	6
648689	PROB	n/a	LTP370	ltpFR2	0	n/a	n/a	n/a	4	10	4	3	3
651321	PROB	n/a	LTP370	ltpFR2	0	n/a	n/a	n/a	4	15	3	4	8
653420	PROB	n/a	LTP370	ltpFR2	0	n/a	n/a	n/a	4	15	7	1	7
655136	PROB	n/a	LTP370	ltpFR2	0	n/a	n/a	n/a	4	21	4	8	9
659715	STOP	n/a	LTP370	ltpFR2	0	n/a	n/a	n/a	4	n/a	n/a	n/a	n/a
662117	REC_START	n/a	LTP370	ltpFR2	0	3	n/a	n/a	n/a	n/a	0	0	0
663227	REC_WORD	wordpools/wasnorm_wordpool_576.txt	LTP370	ltpFR2	0	3	PARROT	1015	n/a	n/a	0	0	0
664090	REC_WORD	wordpools/wasnorm_wordpool_576.txt	LTP370	ltpFR2	0	3	POLICE	1098	n/a	n/a	0	0	0
665231	REC_WORD	wordpools/wasnorm_wordpool_576.txt	LTP370	ltpFR2	0	3	GUARD	667	n/a	n/a	0	0	0
666364	REC_WORD	wordpools/wasnorm_wordpool_576.txt	LTP370	ltpFR2	0	3	BUTCHER	203	n/a	n/a	0	0	0
667156	REC_WORD	wordpools/wasnorm_wordpool_576.txt	LTP370	ltpFR2	0	3	STONE	1385	n/a	n/a	0	0	0
668487	REC_WORD	wordpools/wasnorm_wordpool_576.txt	LTP370	ltpFR2	0	3	MUMMY	932	n/a	n/a	0	0	0
669841	REC_WORD	wordpools/wasnorm_wordpool_576.txt	LTP370	ltpFR2	0	3	EGYPT	519	n/a	n/a	0	0	0
675486	REC_WORD	wordpools/wasnorm_wordpool_576.txt	LTP370	ltpFR2	0	3	POPCORN	1104	n/a	n/a	0	0	0
676975	REC_WORD	wordpools/wasnorm_wordpool_576.txt	LTP370	ltpFR2	0	3	CANDY	230	n/a	n/a	0	0	0
685632	REC_WORD	wordpools/wasnorm_wordpool_576.txt	LTP370	ltpFR2	0	3	HAWK	692	n/a	n/a	0	0	0
765670	DISTRACTOR	n/a	LTP370	ltpFR2	0	4	n/a	n/a	n/a	n/a	0	0	0
765670	START	n/a	LTP370	ltpFR2	0	n/a	n/a	n/a	5	n/a	n/a	n/a	n/a
765686	PROB	n/a	LTP370	ltpFR2	0	n/a	n/a	n/a	5	20	9	2	9
768085	PROB	n/a	LTP370	ltpFR2	0	n/a	n/a	n/a	5	14	3	8	3
770284	PROB	n/a	LTP370	ltpFR2	0	n/a	n/a	n/a	5	14	4	8	2
773066	PROB	n/a	LTP370	ltpFR2	0	n/a	n/a	n/a	5	18	4	9	5
775815	PROB	n/a	LTP370	ltpFR2	0	n/a	n/a	n/a	5	14	9	1	4
777481	PROB	n/a	LTP370	ltpFR2	0	n/a	n/a	n/a	5	11	6	2	3
779413	PROB	n/a	LTP370	ltpFR2	0	n/a	n/a	n/a	5	13	9	3	1
783928	PROB	n/a	LTP370	ltpFR2	0	n/a	n/a	n/a	5	13	4	3	5
788127	STOP	n/a	LTP370	ltpFR2	0	n/a	n/a	n/a	5	n/a	n/a	n/a	n/a
790558	WORD	wordpools/wasnorm_wordpool_576.txt	LTP370	ltpFR2	0	4	MARINE	869	n/a	n/a	0	0	0
793290	WORD	wordpools/wasnorm_wordpool_576.txt	LTP370	ltpFR2	0	4	LACE	792	n/a	n/a	0	0	0
795789	WORD	wordpools/wasnorm_wordpool_576.txt	LTP370	ltpFR2	0	4	SKIRT	1319	n/a	n/a	0	0	0
798471	WORD	wordpools/wasnorm_wordpool_576.txt	LTP370	ltpFR2	0	4	VALLEY	1545	n/a	n/a	0	0	0
801187	WORD	wordpools/wasnorm_wordpool_576.txt	LTP370	ltpFR2	0	4	BEAVER	109	n/a	n/a	0	0	0
803686	WORD	wordpools/wasnorm_wordpool_576.txt	LTP370	ltpFR2	0	4	COLONEL	348	n/a	n/a	0	0	0
806151	WORD	wordpools/wasnorm_wordpool_576.txt	LTP370	ltpFR2	0	4	AWARD	63	n/a	n/a	0	0	0
808650	WORD	wordpools/wasnorm_wordpool_576.txt	LTP370	ltpFR2	0	4	LEG	809	n/a	n/a	0	0	0
811149	WORD	wordpools/wasnorm_wordpool_576.txt	LTP370	ltpFR2	0	4	TURTLE	1522	n/a	n/a	0	0	0
813914	WORD	wordpools/wasnorm_wordpool_576.txt	LTP370	ltpFR2	0	4	WIFE	1609	n/a	n/a	0	0	0
816413	WORD	wordpools/wasnorm_wordpool_576.txt	LTP370	ltpFR2	0	4	SHERIFF	1284	n/a	n/a	0	0	0
819079	WORD	wordpools/wasnorm_wordpool_576.txt	LTP370	ltpFR2	0	4	GARDEN	623	n/a	n/a	0	0	0
821661	WORD	wordpools/wasnorm_wordpool_576.txt	LTP370	ltpFR2	0	4	TRACTOR	1493	n/a	n/a	0	0	0
824376	WORD	wordpools/wasnorm_wordpool_576.txt	LTP370	ltpFR2	0	4	COD	340	n/a	n/a	0	0	0
827042	WORD	wordpools/wasnorm_wordpool_576.txt	LTP370	ltpFR2	0	4	BRICK	172	n/a	n/a	0	0	0
829657	WORD	wordpools/wasnorm_wordpool_576.txt	LTP370	ltpFR2	0	4	SCARF	1246	n/a	n/a	0	0	0
832189	WORD	wordpools/wasnorm_wordpool_576.txt	LTP370	ltpFR2	0	4	FRUIT	610	n/a	n/a	0	0	0
834755	WORD	wordpools/wasnorm_wordpool_576.txt	LTP370	ltpFR2	0	4	CRAB	397	n/a	n/a	0	0	0
837520	WORD	wordpools/wasnorm_wordpool_576.txt	LTP370	ltpFR2	0	4	LUMBER	848	n/a	n/a	0	0	0
839986	WORD	wordpools/wasnorm_wordpool_576.txt	LTP370	ltpFR2	0	4	THIEF	1456	n/a	n/a	0	0	0
842418	WORD	wordpools/wasnorm_wordpool_576.txt	LTP370	ltpFR2	0	4	MASK	876	n/a	n/a	0	0	0
844900	WORD	wordpools/wasnorm_wordpool_576.txt	LTP370	ltpFR2	0	4	SHOULDER	1294	n/a	n/a	0	0	0
847599	WORD	wordpools/wasnorm_wordpool_576.txt	LTP370	ltpFR2	0	4	DENIM	446	n/a	n/a	0	0	0
850331	WORD	wordpools/wasnorm_wordpool_576.txt	LTP370	ltpFR2	0	4	ZIPPER	1636	n/a	n/a	0	0	0
851947	START	n/a	LTP370	ltpFR2	0	n/a	n/a	n/a	6	n/a	n/a	n/a	n/a
853142	DISTRACTOR	n/a	LTP370	ltpFR2	0	4	n/a	n/a	n/a	n/a	0	0	0
853147	PROB	n/a	LTP370	ltpFR2	0	n/a	n/a	n/a	6	22	9	8	5
857212	PROB	n/a	LTP370	ltpFR2	0	n/a	n/a	n/a	6	8	4	1	3
859077	PROB	n/a	LTP370	ltpFR2	0	n/a	n/a	n/a	6	11	3	6	2
860976	PROB	n/a	LTP370	ltpFR2	0	n/a	n/a	n/a	6	16	7	1	8
862642	PROB	n/a	LTP370	ltpFR2	0	n/a	n/a	n/a	6	8	2	4	2
864492	PROB	n/a	LTP370	ltpFR2	0	n/a	n/a	n/a	6	16	7	3	6
865974	PROB	n/a	LTP370	ltpFR2	0	n/a	n/a	n/a	6	23	6	8	9
869023	PROB	n/a	LTP370	ltpFR2	0	n/a	n/a	n/a	6	14	1	6	7
875947	STOP	n/a	LTP370	ltpFR2	0	n/a	n/a	n/a	6	n/a	n/a	n/a	n/a
877736	REC_START	n/a	LTP370	ltpFR2	0	4	n/a	n/a	n/a	n/a	0	0	0
880532	REC_WORD	wordpools/wasnorm_wordpool_576.txt	LTP370	ltpFR2	0	4	LACE	792	n/a	n/a	0	0	0
881542	REC_WORD	wordpools/wasnorm_wordpool_576.txt	LTP370	ltpFR2	0	4	SKIRT	1319	n/a	n/a	0	0	0
883110	REC_WORD	wordpools/wasnorm_wordpool_576.txt	LTP370	ltpFR2	0	4	WIFE	1609	n/a	n/a	0	0	0
884364	REC_WORD	wordpools/wasnorm_wordpool_576.txt	LTP370	ltpFR2	0	4	DENIM	446	n/a	n/a	0	0	0
885244	REC_WORD	wordpools/wasnorm_wordpool_576.txt	LTP370	ltpFR2	0	4	SCARF	1246	n/a	n/a	0	0	0
886805	REC_WORD	wordpools/wasnorm_wordpool_576.txt	LTP370	ltpFR2	0	4	VALLEY	1545	n/a	n/a	0	0	0
888336	REC_WORD	wordpools/wasnorm_wordpool_576.txt	LTP370	ltpFR2	0	4	TURTLE	1522	n/a	n/a	0	0	0
889616	REC_WORD	wordpools/wasnorm_wordpool_576.txt	LTP370	ltpFR2	0	4	BEAVER	109	n/a	n/a	0	0	0
890948	REC_WORD	wordpools/wasnorm_wordpool_576.txt	LTP370	ltpFR2	0	4	COD	340	n/a	n/a	0	0	0
892005	REC_WORD	wordpools/wasnorm_wordpool_576.txt	LTP370	ltpFR2	0	4	CRAB	397	n/a	n/a	0	0	0
893421	REC_WORD	wordpools/wasnorm_wordpool_576.txt	LTP370	ltpFR2	0	4	LUMBER	848	n/a	n/a	0	0	0
894801	REC_WORD	wordpools/wasnorm_wordpool_576.txt	LTP370	ltpFR2	0	4	MARINE	869	n/a	n/a	0	0	0
896023	REC_WORD	wordpools/wasnorm_wordpool_576.txt	LTP370	ltpFR2	0	4	COLONEL	348	n/a	n/a	0	0	0
897279	REC_WORD	wordpools/wasnorm_wordpool_576.txt	LTP370	ltpFR2	0	4	SHERIFF	1284	n/a	n/a	0	0	0
899205	REC_WORD	wordpools/wasnorm_wordpool_576.txt	LTP370	ltpFR2	0	4	THIEF	1456	n/a	n/a	0	0	0
900571	REC_WORD	wordpools/wasnorm_wordpool_576.txt	LTP370	ltpFR2	0	4	MASK	876	n/a	n/a	0	0	0
914073	REC_WORD	wordpools/wasnorm_wordpool_576.txt	LTP370	ltpFR2	0	4	BOULDER	155	n/a	n/a	0	0	0
916587	REC_WORD	wordpools/wasnorm_wordpool_576.txt	LTP370	ltpFR2	0	4	SHOULDER	1294	n/a	n/a	0	0	0
987003	WORD	wordpools/wasnorm_wordpool_576.txt	LTP370	ltpFR2	0	5	MAILBOX	857	n/a	n/a	0	0	0
989818	WORD	wordpools/wasnorm_wordpool_576.txt	LTP370	ltpFR2	0	5	CATTLE	261	n/a	n/a	0	0	0
992617	WORD	wordpools/wasnorm_wordpool_576.txt	LTP370	ltpFR2	0	5	FARMER	553	n/a	n/a	0	0	0
995266	WORD	wordpools/wasnorm_wordpool_576.txt	LTP370	ltpFR2	0	5	PATIENT	1024	n/a	n/a	0	0	0
997964	WORD	wordpools/wasnorm_wordpool_576.txt	LTP370	ltpFR2	0	5	STICKER	1382	n/a	n/a	0	0	0
1000513	WORD	wordpools/wasnorm_wordpool_576.txt	LTP370	ltpFR2	0	5	DANCER	437	n/a	n/a	0	0	0
1003179	WORD	wordpools/wasnorm_wordpool_576.txt	LTP370	ltpFR2	0	5	WHISKERS	1605	n/a	n/a	0	0	0
1005977	WORD	wordpools/wasnorm_wordpool_576.txt	LTP370	ltpFR2	0	5	COCKTAIL	338	n/a	n/a	0	0	0
1008476	WORD	wordpools/wasnorm_wordpool_576.txt	LTP370	ltpFR2	0	5	SCOTCH	1251	n/a	n/a	0	0	0
1011025	WORD	wordpools/wasnorm_wordpool_576.txt	LTP370	ltpFR2	0	5	BISON	131	n/a	n/a	0	0	0
1013474	WORD	wordpools/wasnorm_wordpool_576.txt	LTP370	ltpFR2	0	5	BOYFRIEND	162	n/a	n/a	0	0	0
1015956	WORD	wordpools/wasnorm_wordpool_576.txt	LTP370	ltpFR2	0	5	NURSE	963	n/a	n/a	0	0	0
1018522	WORD	wordpools/wasnorm_wordpool_576.txt	LTP370	ltpFR2	0	5	KETCHUP	771	n/a	n/a	0	0	0
1021004	WORD	wordpools/wasnorm_wordpool_576.txt	LTP370	ltpFR2	0	5	BANJO	82	n/a	n/a	0	0	0
1023436	WORD	wordpools/wasnorm_wordpool_576.txt	LTP370	ltpFR2	0	5	MONEY	908	n/a	n/a	0	0	0
1025935	WORD	wordpools/wasnorm_wordpool_576.txt	LTP370	ltpFR2	0	5	AGENT	10	n/a	n/a	0	0	0
1028717	WORD	wordpools/wasnorm_wordpool_576.txt	LTP370	ltpFR2	0	5	BRIEFCASE	175	n/a	n/a	0	0	0
1031383	WORD	wordpools/wasnorm_wordpool_576.txt	LTP370	ltpFR2	0	5	SUNRISE	1407	n/a	n/a	0	0	0
1034098	WORD	wordpools/wasnorm_wordpool_576.txt	LTP370	ltpFR2	0	5	LABEL	790	n/a	n/a	0	0	0
1036880	WORD	wordpools/wasnorm_wordpool_576.txt	LTP370	ltpFR2	0	5	COOK	372	n/a	n/a	0	0	0
1039646	WORD	wordpools/wasnorm_wordpool_576.txt	LTP370	ltpFR2	0	5	ROBIN	1199	n/a	n/a	0	0	0
1042078	WORD	wordpools/wasnorm_wordpool_576.txt	LTP370	ltpFR2	0	5	EYELASH	546	n/a	n/a	0	0	0
1044510	WORD	wordpools/wasnorm_wordpool_576.txt	LTP370	ltpFR2	0	5	STAKE	1368	n/a	n/a	0	0	0
1047292	WORD	wordpools/wasnorm_wordpool_576.txt	LTP370	ltpFR2	0	5	KNAPSACK	783	n/a	n/a	0	0	0
1048908	START	n/a	LTP370	ltpFR2	0	n/a	n/a	n/a	7	n/a	n/a	n/a	n/a
1049760	DISTRACTOR	n/a	LTP370	ltpFR2	0	5	n/a	n/a	n/a	n/a	0	0	0
1049774	PROB	n/a	LTP370	ltpFR2	0	n/a	n/a	n/a	7	9	6	1	2
1052206	PROB	n/a	LTP370	ltpFR2	0	n/a	n/a	n/a	7	10	2	3	5
1055005	PROB	n/a	LTP370	ltpFR2	0	n/a	n/a	n/a	7	22	9	7	6
1058570	PROB	n/a	LTP370	ltpFR2	0	n/a	n/a	n/a	7	19	4	8	7
1060536	PROB	n/a	LTP370	ltpFR2	0	n/a	n/a	n/a	7	19	6	5	8
1062735	PROB	n/a	LTP370	ltpFR2	0	n/a	n/a	n/a	7	9	2	4	3
1065001	PROB	n/a	LTP370	ltpFR2	0	n/a	n/a	n/a	7	17	6	5	6
1066832	PROB	n/a	LTP370	ltpFR2	0	n/a	n/a	n/a	7	10	3	4	3
1068632	PROB	n/a	LTP370	ltpFR2	0	n/a	n/a	n/a	7	20	6	6	8
1070382	PROB	n/a	LTP370	ltpFR2	0	n/a	n/a	n/a	7	14	7	6	1
1072144	STOP	n/a	LTP370	ltpFR2	0	n/a	n/a	n/a	7	n/a	n/a	n/a	n/a
1074847	REC_START	n/a	LTP370	ltpFR2	0	5	n/a	n/a	n/a	n/a	0	0	0
1076063	REC_WORD	wordpools/wasnorm_wordpool_576.txt	LTP370	ltpFR2	0	5	CATTLE	261	n/a	n/a	0	0	0
1077338	REC_WORD	wordpools/wasnorm_wordpool_576.txt	LTP370	ltpFR2	0	5	FARMER	553	n/a	n/a	0	0	0
1078169	REC_WORD	wordpools/wasnorm_wordpool_576.txt	LTP370	ltpFR2	0	5	MAILBOX	857	n/a	n/a	0	0	0
1079509	REC_WORD	wordpools/wasnorm_wordpool_576.txt	LTP370	ltpFR2	0	5	BISON	131	n/a	n/a	0	0	0
1081485	REC_WORD	wordpools/wasnorm_wordpool_576.txt	LTP370	ltpFR2	0	5	KNAPSACK	783	n/a	n/a	0	0	0
1082418	REC_WORD	wordpools/wasnorm_wordpool_576.txt	LTP370	ltpFR2	0	5	PATIENT	1024	n/a	n/a	0	0	0
1083339	REC_WORD	wordpools/wasnorm_wordpool_576.txt	LTP370	ltpFR2	0	5	NURSE	963	n/a	n/a	0	0	0
1086588	REC_WORD	wordpools/wasnorm_wordpool_576.txt	LTP370	ltpFR2	0	5	AGENT	10	n/a	n/a	0	0	0
1087682	REC_WORD	wordpools/wasnorm_wordpool_576.txt	LTP370	ltpFR2	0	5	BRIEFCASE	175	n/a	n/a	0	0	0
1090200	REC_WORD	wordpools/wasnorm_wordpool_576.txt	LTP370	ltpFR2	0	5	MONEY	908	n/a	n/a	0	0	0
1098815	REC_WORD	wordpools/wasnorm_wordpool_576.txt	LTP370	ltpFR2	0	5	KNAPSACK	783	n/a	n/a	0	0	0
1165272	DISTRACTOR	n/a	LTP370	ltpFR2	0	6	n/a	n/a	n/a	n/a	0	0	0
1165272	START	n/a	LTP370	ltpFR2	0	n/a	n/a	n/a	8	n/a	n/a	n/a	n/a
1165289	PROB	n/a	LTP370	ltpFR2	0	n/a	n/a	n/a	8	16	8	1	7
1167787	PROB	n/a	LTP370	ltpFR2	0	n/a	n/a	n/a	8	9	2	6	1
1169353	PROB	n/a	LTP370	ltpFR2	0	n/a	n/a	n/a	8	14	4	5	5
1170803	PROB	n/a	LTP370	ltpFR2	0	n/a	n/a	n/a	8	17	9	3	5
1173068	PROB	n/a	LTP370	ltpFR2	0	n/a	n/a	n/a	8	18	5	4	9
1174768	PROB	n/a	LTP370	ltpFR2	0	n/a	n/a	n/a	8	9	2	2	5
1176284	PROB	n/a	LTP370	ltpFR2	0	n/a	n/a	n/a	8	16	4	3	9
1178533	PROB	n/a	LTP370	ltpFR2	0	n/a	n/a	n/a	8	16	4	7	5
1181515	PROB	n/a	LTP370	ltpFR2	0	n/a	n/a	n/a	8	20	9	7	2
1183997	PROB	n/a	LTP370	ltpFR2	0	n/a	n/a	n/a	8	16	3	5	8
1186412	PROB	n/a	LTP370	ltpFR2	0	n/a	n/a	n/a	8	18	1	9	8
1188747	STOP	n/a	LTP370	ltpFR2	0	n/a	n/a	n/a	8	n/a	n/a	n/a	n/a
1190161	WORD	wordpools/wasnorm_wordpool_576.txt	LTP370	ltpFR2	0	6	BUNNY	198	n/a	n/a	0	0	0
1192826	WORD	wordpools/wasnorm_wordpool_576.txt	LTP370	ltpFR2	0	6	DUSTPAN	509	n/a	n/a	0	0	0
1195425	WORD	wordpools/wasnorm_wordpool_576.txt	LTP370	ltpFR2	0	6	DONOR	485	n/a	n/a	0	0	0
1198007	WORD	wordpools/wasnorm_wordpool_576.txt	LTP370	ltpFR2	0	6	FLESH	579	n/a	n/a	0	0	0
1200822	WORD	wordpools/wasnorm_wordpool_576.txt	LTP370	ltpFR2	0	6	TWISTER	1530	n/a	n/a	0	0	0
1203588	WORD	wordpools/wasnorm_wordpool_576.txt	LTP370	ltpFR2	0	6	CLOUD	328	n/a	n/a	0	0	0
1206070	WORD	wordpools/wasnorm_wordpool_576.txt	LTP370	ltpFR2	0	6	FRAME	600	n/a	n/a	0	0	0
1208802	WORD	wordpools/wasnorm_wordpool_576.txt	LTP370	ltpFR2	0	6	CRITIC	410	n/a	n/a	0	0	0
1211501	WORD	wordpools/wasnorm_wordpool_576.txt	LTP370	ltpFR2	0	6	THREAD	1460	n/a	n/a	0	0	0
1214183	WORD	wordpools/wasnorm_wordpool_576.txt	LTP370	ltpFR2	0	6	BRACES	164	n/a	n/a	0	0	0
1216649	WORD	wordpools/wasnorm_wordpool_576.txt	LTP370	ltpFR2	0	6	DORM	488	n/a	n/a	0	0	0
1219097	WORD	wordpools/wasnorm_wordpool_576.txt	LTP370	ltpFR2	0	6	FUNGUS	614	n/a	n/a	0	0	0
1221746	WORD	wordpools/wasnorm_wordpool_576.txt	LTP370	ltpFR2	0	6	SLIME	1327	n/a	n/a	0	0	0
1224545	WORD	wordpools/wasnorm_wordpool_576.txt	LTP370	ltpFR2	0	6	VENUS	1557	n/a	n/a	0	0	0
1226977	WORD	wordpools/wasnorm_wordpool_576.txt	LTP370	ltpFR2	0	6	BELLY	119	n/a	n/a	0	0	0
1229776	WORD	wordpools/wasnorm_wordpool_576.txt	LTP370	ltpFR2	0	6	HEADBAND	696	n/a	n/a	0	0	0
1232342	WORD	wordpools/wasnorm_wordpool_576.txt	LTP370	ltpFR2	0	6	SUNSET	1408	n/a	n/a	0	0	0
1235040	WORD	wordpools/wasnorm_wordpool_576.txt	LTP370	ltpFR2	0	6	BULLET	194	n/a	n/a	0	0	0
1237606	WORD	wordpools/wasnorm_wordpool_576.txt	LTP370	ltpFR2	0	6	GRAVEL	659	n/a	n/a	0	0	0
1240188	WORD	wordpools/wasnorm_wordpool_576.txt	LTP370	ltpFR2	0	6	BARLEY	88	n/a	n/a	0	0	0
1242853	WORD	wordpools/wasnorm_wordpool_576.txt	LTP370	ltpFR2	0	6	COCOON	339	n/a	n/a	0	0	0
1245685	WORD	wordpools/wasnorm_wordpool_576.txt	LTP370	ltpFR2	0	6	RIFLE	1192	n/a	n/a	0	0	0
1248351	WORD	wordpools/wasnorm_wordpool_576.txt	LTP370	ltpFR2	0	6	POCKET	1093	n/a	n/a	0	0	0
1250866	WORD	wordpools/wasnorm_wordpool_576.txt	LTP370	ltpFR2	0	6	MARS	873	n/a	n/a	0	0	0
1252483	START	n/a	LTP370	ltpFR2	0	n/a	n/a	n/a	9	n/a	n/a	n/a	n/a
1253651	DISTRACTOR	n/a	LTP370	ltpFR2	0	6	n/a	n/a	n/a	n/a	0	0	0
1253665	PROB	n/a	LTP370	ltpFR2	0	n/a	n/a	n/a	9	23	9	7	8
1261029	PROB	n/a	LTP370	ltpFR2	0	n/a	n/a	n/a	9	14	4	5	5
1262495	PROB	n/a	LTP370	ltpFR2	0	n/a	n/a	n/a	9	17	5	4	8
1265426	PROB	n/a	LTP370	ltpFR2	0	n/a	n/a	n/a	9	20	7	7	6
1267259	PROB	n/a	LTP370	ltpFR2	0	n/a	n/a	n/a	9	9	3	1	5
1269641	PROB	n/a	LTP370	ltpFR2	0	n/a	n/a	n/a	9	6	3	2	1
1271490	PROB	n/a	LTP370	ltpFR2	0	n/a	n/a	n/a	9	13	1	8	4
1276482	STOP	n/a	LTP370	ltpFR2	0	n/a	n/a	n/a	9	n/a	n/a	n/a	n/a
1278321	REC_START	n/a	LTP370	ltpFR2	0	6	n/a	n/a	n/a	n/a	0	0	0
1279582	REC_WORD	wordpools/wasnorm_wordpool_576.txt	LTP370	ltpFR2	0	6	BUNNY	198	n/a	n/a	0	0	0
1280662	REC_WORD	wordpools/wasnorm_wordpool_576.txt	LTP370	ltpFR2	0	6	DUSTPAN	509	n/a	n/a	0	0	0
1281924	REC_WORD	wordpools/wasnorm_wordpool_576.txt	LTP370	ltpFR2	0	6	GRAVEL	659	n/a	n/a	0	0	0
1283238	REC_WORD	wordpools/wasnorm_wordpool_576.txt	LTP370	ltpFR2	0	6	BELLY	119	n/a	n/a	0	0	0
1285116	REC_WORD	wordpools/wasnorm_wordpool_576.txt	LTP370	ltpFR2	0	6	VENUS	1557	n/a	n/a	0	0	0
1286285	REC_WORD	wordpools/wasnorm_wordpool_576.txt	LTP370	ltpFR2	0	6	MARS	873	n/a	n/a	0	0	0
1288079	REC_WORD	wordpools/wasnorm_wordpool_576.txt	LTP370	ltpFR2	0	6	TWISTER	1530	n/a	n/a	0	0	0
1289544	REC_WORD	wordpools/wasnorm_wordpool_576.txt	LTP370	ltpFR2	0	6	CLOUD	328	n/a	n/a	0	0	0
1292639	REC_WORD	wordpools/wasnorm_wordpool_576.txt	LTP370	ltpFR2	0	6	GRAVEL	659	n/a	n/a	0	0	0
1295942	REC_WORD	wordpools/wasnorm_wordpool_576.txt	LTP370	ltpFR2	0	6	RIFLE	1192	n/a	n/a	0	0	0
1297398	REC_WORD	wordpools/wasnorm_wordpool_576.txt	LTP370	ltpFR2	0	6	BULLET	194	n/a	n/a	0	0	0
1317040	REC_WORD	wordpools/wasnorm_wordpool_576.txt	LTP370	ltpFR2	0	6	DONOR	485	n/a	n/a	0	0	0
1318011	REC_WORD	wordpools/wasnorm_wordpool_576.txt	LTP370	ltpFR2	0	6	FLESH	579	n/a	n/a	0	0	0
1327197	REC_WORD	wordpools/wasnorm_wordpool_576.txt	LTP370	ltpFR2	0	6	SUNSET	1408	n/a	n/a	0	0	0
1393535	WORD	wordpools/wasnorm_wordpool_576.txt	LTP370	ltpFR2	0	7	CHAMPAGNE	278	n/a	n/a	0	0	0
1396334	WORD	wordpools/wasnorm_wordpool_576.txt	LTP370	ltpFR2	0	7	CELLAR	267	n/a	n/a	0	0	0
1398766	WORD	wordpools/wasnorm_wordpool_576.txt	LTP370	ltpFR2	0	7	JEANS	752	n/a	n/a	0	0	0
1401365	WORD	wordpools/wasnorm_wordpool_576.txt	LTP370	ltpFR2	0	7	BANQUET	86	n/a	n/a	0	0	0
1404097	WORD	wordpools/wasnorm_wordpool_576.txt	LTP370	ltpFR2	0	7	MESSAGE	888	n/a	n/a	0	0	0
1406779	WORD	wordpools/wasnorm_wordpool_576.txt	LTP370	ltpFR2	0	7	STREAM	1392	n/a	n/a	0	0	0
1409495	WORD	wordpools/wasnorm_wordpool_576.txt	LTP370	ltpFR2	0	7	AIRPLANE	12	n/a	n/a	0	0	0
1412310	WORD	wordpools/wasnorm_wordpool_576.txt	LTP370	ltpFR2	0	7	SNAKE	1333	n/a	n/a	0	0	0
1415059	WORD	wordpools/wasnorm_wordpool_576.txt	LTP370	ltpFR2	0	7	JUGGLER	763	n/a	n/a	0	0	0
1417491	WORD	wordpools/wasnorm_wordpool_576.txt	LTP370	ltpFR2	0	7	PAIL	1002	n/a	n/a	0	0	0
1420040	WORD	wordpools/wasnorm_wordpool_576.txt	LTP370	ltpFR2	0	7	PLATE	1086	n/a	n/a	0	0	0
1422505	WORD	wordpools/wasnorm_wordpool_576.txt	LTP370	ltpFR2	0	7	TILE	1468	n/a	n/a	0	0	0
1425237	WORD	wordpools/wasnorm_wordpool_576.txt	LTP370	ltpFR2	0	7	RACKET	1155	n/a	n/a	0	0	0
1427835	WORD	wordpools/wasnorm_wordpool_576.txt	LTP370	ltpFR2	0	7	GLASS	639	n/a	n/a	0	0	0
1430468	WORD	wordpools/wasnorm_wordpool_576.txt	LTP370	ltpFR2	0	7	UMPIRE	1535	n/a	n/a	0	0	0
1433284	WORD	wordpools/wasnorm_wordpool_576.txt	LTP370	ltpFR2	0	7	TABLET	1427	n/a	n/a	0	0	0
1436016	WORD	wordpools/wasnorm_wordpool_576.txt	LTP370	ltpFR2	0	7	MOTEL	919	n/a	n/a	0	0	0
1438815	WORD	wordpools/wasnorm_wordpool_576.txt	LTP370	ltpFR2	0	7	SHARK	1275	n/a	n/a	0	0	0
1441563	WORD	wordpools/wasnorm_wordpool_576.txt	LTP370	ltpFR2	0	7	COFFEE	341	n/a	n/a	0	0	0
1443996	WORD	wordpools/wasnorm_wordpool_576.txt	LTP370	ltpFR2	0	7	CUPBOARD	425	n/a	n/a	0	0	0
1446511	WORD	wordpools/wasnorm_wordpool_576.txt	LTP370	ltpFR2	0	7	BANK	83	n/a	n/a	0	0	0
1449177	WORD	wordpools/wasnorm_wordpool_576.txt	LTP370	ltpFR2	0	7	RECEIPT	1173	n/a	n/a	0	0	0
1451692	WORD	wordpools/wasnorm_wordpool_576.txt	LTP370	ltpFR2	0	7	FLIPPER	580	n/a	n/a	0	0	0
1454457	WORD	wordpools/wasnorm_wordpool_576.txt	LTP370	ltpFR2	0	7	COURSE	390	n/a	n/a	0	0	0
1456074	START	n/a	LTP370	ltpFR2	0	n/a	n/a	n/a	10	n/a	n/a	n/a	n/a
1456904	DISTRACTOR	n/a	LTP370	ltpFR2	0	7	n/a	n/a	n/a	n/a	0	0	0
1456906	PROB	n/a	LTP370	ltpFR2	0	n/a	n/a	n/a	10	20	6	8	6
1460038	PROB	n/a	LTP370	ltpFR2	0	n/a	n/a	n/a	10	15	6	5	4
1464070	PROB	n/a	LTP370	ltpFR2	0	n/a	n/a	n/a	10	16	8	7	1
1466935	PROB	n/a	LTP370	ltpFR2	0	n/a	n/a	n/a	10	12	2	3	7
1470467	PROB	n/a	LTP370	ltpFR2	0	n/a	n/a	n/a	10	14	3	4	7
1472633	PROB	n/a	LTP370	ltpFR2	0	n/a	n/a	n/a	10	16	3	5	8
1474732	PROB	n/a	LTP370	ltpFR2	0	n/a	n/a	n/a	10	13	2	7	4
1476597	PROB	n/a	LTP370	ltpFR2	0	n/a	n/a	n/a	10	12	1	2	9
1480074	STOP	n/a	LTP370	ltpFR2	0	n/a	n/a	n/a	10	n/a	n/a	n/a	n/a
1481962	REC_START	n/a	LTP370	ltpFR2	0	7	n/a	n/a	n/a	n/a	0	0	0
1482747	REC_WORD	wordpools/wasnorm_wordpool_576.txt	LTP370	ltpFR2	0	7	CHAMPAGNE	278	n/a	n/a	0	0	0
1483907	REC_WORD	wordpools/wasnorm_wordpool_576.txt	LTP370	ltpFR2	0	7	CELLAR	267	n/a	n/a	0	0	0
1485277	REC_WORD	wordpools/wasnorm_wordpool_576.txt	LTP370	ltpFR2	0	7	BANQUET	86	n/a	n/a	0	0	0
1486203	REC_WORD	wordpools/wasnorm_wordpool_576.txt	LTP370	ltpFR2	0	7	JEANS	752	n/a	n/a	0	0	0
1487698	REC_WORD	wordpools/wasnorm_wordpool_576.txt	LTP370	ltpFR2	0	7	PAIL	1002	n/a	n/a	0	0	0
1488568	REC_WORD	wordpools/wasnorm_wordpool_576.txt	LTP370	ltpFR2	0	7	PLATE	1086	n/a	n/a	0	0	0
1489666	REC_WORD	wordpools/wasnorm_wordpool_576.txt	LTP370	ltpFR2	0	7	GLASS	639	n/a	n/a	0	0	0
1578851	DISTRACTOR	n/a	LTP370	ltpFR2	0	8	n/a	n/a	n/a	n/a	0	0	0
1578851	START	n/a	LTP370	ltpFR2	0	n/a	n/a	n/a	11	n/a	n/a	n/a	n/a
1578868	PROB	n/a	LTP370	ltpFR2	0	n/a	n/a	n/a	11	12	5	1	6
1581583	PROB	n/a	LTP370	ltpFR2	0	n/a	n/a	n/a	11	11	2	8	1
1583199	PROB	n/a	LTP370	ltpFR2	0	n/a	n/a	n/a	11	10	7	1	2
1585631	PROB	n/a	LTP370	ltpFR2	0	n/a	n/a	n/a	11	19	9	1	9
1587147	PROB	n/a	LTP370	ltpFR2	0	n/a	n/a	n/a	11	8	2	1	5
1588863	PROB	n/a	LTP370	ltpFR2	0	n/a	n/a	n/a	11	18	6	3	9
1590646	PROB	n/a	LTP370	ltpFR2	0	n/a	n/a	n/a	11	19	7	7	5
1594644	PROB	n/a	LTP370	ltpFR2	0	n/a	n/a	n/a	11	19	6	6	7
1596743	PROB	n/a	LTP370	ltpFR2	0	n/a	n/a	n/a	11	24	9	9	6
1598875	PROB	n/a	LTP370	ltpFR2	0	n/a	n/a	n/a	11	13	2	4	7
1602851	STOP	n/a	LTP370	ltpFR2	0	n/a	n/a	n/a	11	n/a	n/a	n/a	n/a
1603707	WORD	wordpools/wasnorm_wordpool_576.txt	LTP370	ltpFR2	0	8	SHELF	1280	n/a	n/a	0	0	0
1606339	WORD	wordpools/wasnorm_wordpool_576.txt	LTP370	ltpFR2	0	8	AUTHOR	61	n/a	n/a	0	0	0
1609054	WORD	wordpools/wasnorm_wordpool_576.txt	LTP370	ltpFR2	0	8	NECKLACE	940	n/a	n/a	0	0	0
1611586	WORD	wordpools/wasnorm_wordpool_576.txt	LTP370	ltpFR2	0	8	PISTOL	1075	n/a	n/a	0	0	0
1614352	WORD	wordpools/wasnorm_wordpool_576.txt	LTP370	ltpFR2	0	8	TROUT	1511	n/a	n/a	0	0	0
1617001	WORD	wordpools/wasnorm_wordpool_576.txt	LTP370	ltpFR2	0	8	CORAL	378	n/a	n/a	0	0	0
1619533	WORD	wordpools/wasnorm_wordpool_576.txt	LTP370	ltpFR2	0	8	JELLY	755	n/a	n/a	0	0	0
1622148	WORD	wordpools/wasnorm_wordpool_576.txt	LTP370	ltpFR2	0	8	TYPIST	1532	n/a	n/a	0	0	0
1624747	WORD	wordpools/wasnorm_wordpool_576.txt	LTP370	ltpFR2	0	8	ICING	732	n/a	n/a	0	0	0
1627329	WORD	wordpools/wasnorm_wordpool_576.txt	LTP370	ltpFR2	0	8	DRUG	501	n/a	n/a	0	0	0
1629861	WORD	wordpools/wasnorm_wordpool_576.txt	LTP370	ltpFR2	0	8	SADDLE	1221	n/a	n/a	0	0	0
1632477	WORD	wordpools/wasnorm_wordpool_576.txt	LTP370	ltpFR2	0	8	MEDAL	885	n/a	n/a	0	0	0
1635059	WORD	wordpools/wasnorm_wordpool_576.txt	LTP370	ltpFR2	0	8	PUPPY	1144	n/a	n/a	0	0	0
1637525	WORD	wordpools/wasnorm_wordpool_576.txt	LTP370	ltpFR2	0	8	HAND	683	n/a	n/a	0	0	0
1640173	WORD	wordpools/wasnorm_wordpool_576.txt	LTP370	ltpFR2	0	8	FRECKLE	602	n/a	n/a	0	0	0
1642789	WORD	wordpools/wasnorm_wordpool_576.txt	LTP370	ltpFR2	0	8	LIPSTICK	829	n/a	n/a	0	0	0
1645354	WORD	wordpools/wasnorm_wordpool_576.txt	LTP370	ltpFR2	0	8	HOUND	724	n/a	n/a	0	0	0
1648053	WORD	wordpools/wasnorm_wordpool_576.txt	LTP370	ltpFR2	0	8	GIFT	635	n/a	n/a	0	0	0
1650852	WORD	wordpools/wasnorm_wordpool_576.txt	LTP370	ltpFR2	0	8	INFANT	737	n/a	n/a	0	0	0
1653417	WORD	wordpools/wasnorm_wordpool_576.txt	LTP370	ltpFR2	0	8	CLAMP	316	n/a	n/a	0	0	0
1655933	WORD	wordpools/wasnorm_wordpool_576.txt	LTP370	ltpFR2	0	8	STALLION	1369	n/a	n/a	0	0	0
1658715	WORD	wordpools/wasnorm_wordpool_576.txt	LTP370	ltpFR2	0	8	SLOPE	1328	n/a	n/a	0	0	0
1661380	WORD	wordpools/wasnorm_wordpool_576.txt	LTP370	ltpFR2	0	8	MAILMAN	858	n/a	n/a	0	0	0
1663946	WORD	wordpools/wasnorm_wordpool_576.txt	LTP370	ltpFR2	0	8	COWBOY	395	n/a	n/a	0	0	0
1665562	START	n/a	LTP370	ltpFR2	0	n/a	n/a	n/a	12	n/a	n/a	n/a	n/a
1666522	DISTRACTOR	n/a	LTP370	ltpFR2	0	8	n/a	n/a	n/a	n/a	0	0	0
1666528	PROB	n/a	LTP370	ltpFR2	0	n/a	n/a	n/a	12	13	9	1	3
1670193	PROB	n/a	LTP370	ltpFR2	0	n/a	n/a	n/a	12	17	5	3	9
1672109	PROB	n/a	LTP370	ltpFR2	0	n/a	n/a	n/a	12	16	7	3	6
1674075	PROB	n/a	LTP370	ltpFR2	0	n/a	n/a	n/a	12	15	5	7	3
1676723	PROB	n/a	LTP370	ltpFR2	0	n/a	n/a	n/a	12	12	8	1	3
1678639	PROB	n/a	LTP370	ltpFR2	0	n/a	n/a	n/a	12	17	8	5	4
1680855	PROB	n/a	LTP370	ltpFR2	0	n/a	n/a	n/a	12	14	5	2	8
1682471	PROB	n/a	LTP370	ltpFR2	0	n/a	n/a	n/a	12	14	2	5	7
1685270	PROB	n/a	LTP370	ltpFR2	0	n/a	n/a	n/a	12	15	6	1	8
1689561	STOP	n/a	LTP370	ltpFR2	0	n/a	n/a	n/a	12	n/a	n/a	n/a	n/a
1691401	REC_START	n/a	LTP370	ltpFR2	0	8	n/a	n/a	n/a	n/a	0	0	0
1692484	REC_WORD	wordpools/wasnorm_wordpool_576.txt	LTP370	ltpFR2	0	8	SADDLE	1221	n/a	n/a	0	0	0
1693366	REC_WORD	wordpools/wasnorm_wordpool_576.txt	LTP370	ltpFR2	0	8	STALLION	1369	n/a	n/a	0	0	0
1695081	REC_WORD	wordpools/wasnorm_wordpool_576.txt	LTP370	ltpFR2	0	8	MAILMAN	858	n/a	n/a	0	0	0
1696098	REC_WORD	wordpools/wasnorm_wordpool_576.txt	LTP370	ltpFR2	0	8	LIPSTICK	829	n/a	n/a	0	0	0
1697010	REC_WORD	wordpools/wasnorm_wordpool_576.txt	LTP370	ltpFR2	0	8	FRECKLE	602	n/a	n/a	0	0	0
1698355	REC_WORD	wordpools/wasnorm_wordpool_576.txt	LTP370	ltpFR2	0	8	AUTHOR	61	n/a	n/a	0	0	0
1699530	REC_WORD	wordpools/wasnorm_wordpool_576.txt	LTP370	ltpFR2	0	8	TYPIST	1532	n/a	n/a	0	0	0
1700900	REC_WORD	wordpools/wasnorm_wordpool_576.txt	LTP370	ltpFR2	0	8	HAND	683	n/a	n/a	0	0	0
1739794	REC_WORD	wordpools/wasnorm_wordpool_576.txt	LTP370	ltpFR2	0	8	TROUT	1511	n/a	n/a	0	0	0
1740825	REC_WORD	wordpools/wasnorm_wordpool_576.txt	LTP370	ltpFR2	0	8	CORAL	378	n/a	n/a	0	0	0
1742362	REC_WORD	wordpools/wasnorm_wordpool_576.txt	LTP370	ltpFR2	0	8	JELLY	755	n/a	n/a	0	0	0
1749753	REC_WORD	wordpools/wasnorm_wordpool_576.txt	LTP370	ltpFR2	0	8	AIRPLANE	12	n/a	n/a	0	0	0
1750658	REC_WORD	wordpools/wasnorm_wordpool_576.txt	LTP370	ltpFR2	0	8	SNAKE	1333	n/a	n/a	0	0	0
1762622	REC_WORD	wordpools/wasnorm_wordpool_576.txt	LTP370	ltpFR2	0	8	SLOPE	1328	n/a	n/a	0	0	0
1767949	REST_REWET	n/a	LTP370	ltpFR2	0	8	n/a	n/a	n/a	n/a	0	0	0
1951199	DISTRACTOR	n/a	LTP370	ltpFR2	0	9	n/a	n/a	n/a	n/a	0	0	0
1951199	START	n/a	LTP370	ltpFR2	0	n/a	n/a	n/a	13	n/a	n/a	n/a	n/a
1951216	PROB	n/a	LTP370	ltpFR2	0	n/a	n/a	n/a	13	19	7	6	6
1954014	PROB	n/a	LTP370	ltpFR2	0	n/a	n/a	n/a	13	16	2	9	5
1955714	PROB	n/a	LTP370	ltpFR2	0	n/a	n/a	n/a	13	14	6	2	6
1957646	PROB	n/a	LTP370	ltpFR2	0	n/a	n/a	n/a	13	11	4	3	4
1959562	PROB	n/a	LTP370	ltpFR2	0	n/a	n/a	n/a	13	14	5	1	8
1961378	PROB	n/a	LTP370	ltpFR2	0	n/a	n/a	n/a	13	26	8	9	9
1964376	PROB	n/a	LTP370	ltpFR2	0	n/a	n/a	n/a	13	23	6	9	8
1970357	PROB	n/a	LTP370	ltpFR2	0	n/a	n/a	n/a	13	16	3	9	4
1972656	PROB	n/a	LTP370	ltpFR2	0	n/a	n/a	n/a	13	21	5	8	9
1974843	STOP	n/a	LTP370	ltpFR2	0	n/a	n/a	n/a	13	n/a	n/a	n/a	n/a
1976271	WORD	wordpools/wasnorm_wordpool_576.txt	LTP370	ltpFR2	0	9	CANAL	226	n/a	n/a	0	0	0
1979086	WORD	wordpools/wasnorm_wordpool_576.txt	LTP370	ltpFR2	0	9	JELLO	754	n/a	n/a	0	0	0
1981718	WORD	wordpools/wasnorm_wordpool_576.txt	LTP370	ltpFR2	0	9	SHORTS	1293	n/a	n/a	0	0	0
1984434	WORD	wordpools/wasnorm_wordpool_576.txt	LTP370	ltpFR2	0	9	TERMITE	1451	n/a	n/a	0	0	0
1987066	WORD	wordpools/wasnorm_wordpool_576.txt	LTP370	ltpFR2	0	9	LODGE	839	n/a	n/a	0	0	0
1989765	WORD	wordpools/wasnorm_wordpool_576.txt	LTP370	ltpFR2	0	9	SWITCH	1422	n/a	n/a	0	0	0
1992430	WORD	wordpools/wasnorm_wordpool_576.txt	LTP370	ltpFR2	0	9	LAMP	798	n/a	n/a	0	0	0
1994879	WORD	wordpools/wasnorm_wordpool_576.txt	LTP370	ltpFR2	0	9	GYMNAST	675	n/a	n/a	0	0	0
1997628	WORD	wordpools/wasnorm_wordpool_576.txt	LTP370	ltpFR2	0	9	FLUTE	585	n/a	n/a	0	0	0
2000260	WORD	wordpools/wasnorm_wordpool_576.txt	LTP370	ltpFR2	0	9	ATLAS	53	n/a	n/a	0	0	0
2002859	WORD	wordpools/wasnorm_wordpool_576.txt	LTP370	ltpFR2	0	9	ZEBRA	1635	n/a	n/a	0	0	0
2005574	WORD	wordpools/wasnorm_wordpool_576.txt	LTP370	ltpFR2	0	9	FIREPLACE	570	n/a	n/a	0	0	0
2008073	WORD	wordpools/wasnorm_wordpool_576.txt	LTP370	ltpFR2	0	9	IGLOO	734	n/a	n/a	0	0	0
2010689	WORD	wordpools/wasnorm_wordpool_576.txt	LTP370	ltpFR2	0	9	YACHT	1629	n/a	n/a	0	0	0
2013521	WORD	wordpools/wasnorm_wordpool_576.txt	LTP370	ltpFR2	0	9	VIKING	1565	n/a	n/a	0	0	0
2015986	WORD	wordpools/wasnorm_wordpool_576.txt	LTP370	ltpFR2	0	9	CREATURE	403	n/a	n/a	0	0	0
2018519	WORD	wordpools/wasnorm_wordpool_576.txt	LTP370	ltpFR2	0	9	GUITAR	670	n/a	n/a	0	0	0
2021234	WORD	wordpools/wasnorm_wordpool_576.txt	LTP370	ltpFR2	0	9	MONSTER	912	n/a	n/a	0	0	0
2023799	WORD	wordpools/wasnorm_wordpool_576.txt	LTP370	ltpFR2	0	9	TROMBONE	1508	n/a	n/a	0	0	0
2026398	WORD	wordpools/wasnorm_wordpool_576.txt	LTP370	ltpFR2	0	9	RIVER	1194	n/a	n/a	0	0	0
2028880	WORD	wordpools/wasnorm_wordpool_576.txt	LTP370	ltpFR2	0	9	APRON	35	n/a	n/a	0	0	0
2031479	WORD	wordpools/wasnorm_wordpool_576.txt	LTP370	ltpFR2	0	9	SHORTCAKE	1292	n/a	n/a	0	0	0
2034078	WORD	wordpools/wasnorm_wordpool_576.txt	LTP370	ltpFR2	0	9	MARKER	870	n/a	n/a	0	0	0
2036644	WORD	wordpools/wasnorm_wordpool_576.txt	LTP370	ltpFR2	0	9	CROWN	415	n/a	n/a	0	0	0
2038260	START	n/a	LTP370	ltpFR2	0	n/a	n/a	n/a	14	n/a	n/a	n/a	n/a
2039352	DISTRACTOR	n/a	LTP370	ltpFR2	0	9	n/a	n/a	n/a	n/a	0	0	0
2039359	PROB	n/a	LTP370	ltpFR2	0	n/a	n/a	n/a	14	17	4	6	7
2042058	PROB	n/a	LTP370	ltpFR2	0	n/a	n/a	n/a	14	17	3	5	9
2044140	PROB	n/a	LTP370	ltpFR2	0	n/a	n/a	n/a	14	15	4	9	2
2047122	PROB	n/a	LTP370	ltpFR2	0	n/a	n/a	n/a	14	12	8	1	3
2048605	PROB	n/a	LTP370	ltpFR2	0	n/a	n/a	n/a	14	10	7	1	2
2050471	PROB	n/a	LTP370	ltpFR2	0	n/a	n/a	n/a	14	15	9	1	5
2052286	PROB	n/a	LTP370	ltpFR2	0	n/a	n/a	n/a	14	7	1	4	2
2054252	PROB	n/a	LTP370	ltpFR2	0	n/a	n/a	n/a	14	11	2	5	4
2057101	PROB	n/a	LTP370	ltpFR2	0	n/a	n/a	n/a	14	10	1	8	2
2058584	PROB	n/a	LTP370	ltpFR2	0	n/a	n/a	n/a	14	18	5	8	5
2060846	STOP	n/a	LTP370	ltpFR2	0	n/a	n/a	n/a	14	n/a	n/a	n/a	n/a
2064032	REC_START	n/a	LTP370	ltpFR2	0	9	n/a	n/a	n/a	n/a	0	0	0
2065079	REC_WORD	wordpools/wasnorm_wordpool_576.txt	LTP370	ltpFR2	0	9	CANAL	226	n/a	n/a	0	0	0
2066410	REC_WORD	wordpools/wasnorm_wordpool_576.txt	LTP370	ltpFR2	0	9	JELLO	754	n/a	n/a	0	0	0
2067229	REC_WORD	wordpools/wasnorm_wordpool_576.txt	LTP370	ltpFR2	0	9	SHORTS	1293	n/a	n/a	0	0	0
2068775	REC_WORD	wordpools/wasnorm_wordpool_576.txt	LTP370	ltpFR2	0	9	TERMITE	1451	n/a	n/a	0	0	0
2071068	REC_WORD	wordpools/wasnorm_wordpool_576.txt	LTP370	ltpFR2	0	9	CREATURE	403	n/a	n/a	0	0	0
2071977	REC_WORD	wordpools/wasnorm_wordpool_576.txt	LTP370	ltpFR2	0	9	MONSTER	912	n/a	n/a	0	0	0
2073027	REC_WORD	wordpools/wasnorm_wordpool_576.txt	LTP370	ltpFR2	0	9	FLUTE	585	n/a	n/a	0	0	0
2074078	REC_WORD	wordpools/wasnorm_wordpool_576.txt	LTP370	ltpFR2	0	9	TROMBONE	1508	n/a	n/a	0	0	0
2075658	REC_WORD	wordpools/wasnorm_wordpool_576.txt	LTP370	ltpFR2	0	9	RIVER	1194	n/a	n/a	0	0	0
2076773	REC_WORD	wordpools/wasnorm_wordpool_576.txt	LTP370	ltpFR2	0	9	APRON	35	n/a	n/a	0	0	0
2077783	REC_WORD	wordpools/wasnorm_wordpool_576.txt	LTP370	ltpFR2	0	9	SHORTCAKE	1292	n/a	n/a	0	0	0
2086285	REC_WORD	wordpools/wasnorm_wordpool_576.txt	LTP370	ltpFR2	0	9	SWITCH	1422	n/a	n/a	0	0	0
2091119	REC_WORD	wordpools/wasnorm_wordpool_576.txt	LTP370	ltpFR2	0	9	LODGE	839	n/a	n/a	0	0	0
2177430	DISTRACTOR	n/a	LTP370	ltpFR2	0	10	n/a	n/a	n/a	n/a	0	0	0
2177430	START	n/a	LTP370	ltpFR2	0	n/a	n/a	n/a	15	n/a	n/a	n/a	n/a
2177446	PROB	n/a	LTP370	ltpFR2	0	n/a	n/a	n/a	15	12	2	4	6
2179629	PROB	n/a	LTP370	ltpFR2	0	n/a	n/a	n/a	15	17	7	7	3
2181461	PROB	n/a	LTP370	ltpFR2	0	n/a	n/a	n/a	15	18	3	8	7
2183527	PROB	n/a	LTP370	ltpFR2	0	n/a	n/a	n/a	15	18	6	3	9
2185726	PROB	n/a	LTP370	ltpFR2	0	n/a	n/a	n/a	15	16	3	5	8
2188042	PROB	n/a	LTP370	ltpFR2	0	n/a	n/a	n/a	15	21	7	6	9
2190857	PROB	n/a	LTP370	ltpFR2	0	n/a	n/a	n/a	15	20	5	6	9
2194855	PROB	n/a	LTP370	ltpFR2	0	n/a	n/a	n/a	15	22	9	7	6
2197671	PROB	n/a	LTP370	ltpFR2	0	n/a	n/a	n/a	15	11	6	2	3
2199553	PROB	n/a	LTP370	ltpFR2	0	n/a	n/a	n/a	15	17	3	7	7
2201202	STOP	n/a	LTP370	ltpFR2	0	n/a	n/a	n/a	15	n/a	n/a	n/a	n/a
2202568	WORD	wordpools/wasnorm_wordpool_576.txt	LTP370	ltpFR2	0	10	BROOK	177	n/a	n/a	0	0	0
2205001	WORD	wordpools/wasnorm_wordpool_576.txt	LTP370	ltpFR2	0	10	BARREL	91	n/a	n/a	0	0	0
2207516	WORD	wordpools/wasnorm_wordpool_576.txt	LTP370	ltpFR2	0	10	PREACHER	1119	n/a	n/a	0	0	0
2210032	WORD	wordpools/wasnorm_wordpool_576.txt	LTP370	ltpFR2	0	10	DIME	466	n/a	n/a	0	0	0
2212597	WORD	wordpools/wasnorm_wordpool_576.txt	LTP370	ltpFR2	0	10	BLACKBOARD	133	n/a	n/a	0	0	0
2215163	WORD	wordpools/wasnorm_wordpool_576.txt	LTP370	ltpFR2	0	10	STAPLE	1371	n/a	n/a	0	0	0
2217961	WORD	wordpools/wasnorm_wordpool_576.txt	LTP370	ltpFR2	0	10	HANDBAG	684	n/a	n/a	0	0	0
2220477	WORD	wordpools/wasnorm_wordpool_576.txt	LTP370	ltpFR2	0	10	FRAGRANCE	599	n/a	n/a	0	0	0
2222992	WORD	wordpools/wasnorm_wordpool_576.txt	LTP370	ltpFR2	0	10	PERFUME	1049	n/a	n/a	0	0	0
2225808	WORD	wordpools/wasnorm_wordpool_576.txt	LTP370	ltpFR2	0	10	KEEPER	769	n/a	n/a	0	0	0
2228357	WORD	wordpools/wasnorm_wordpool_576.txt	LTP370	ltpFR2	0	10	ARM	38	n/a	n/a	0	0	0
2231122	WORD	wordpools/wasnorm_wordpool_576.txt	LTP370	ltpFR2	0	10	CATCHER	258	n/a	n/a	0	0	0
2233887	WORD	wordpools/wasnorm_wordpool_576.txt	LTP370	ltpFR2	0	10	FOOTBALL	591	n/a	n/a	0	0	0
2236636	WORD	wordpools/wasnorm_wordpool_576.txt	LTP370	ltpFR2	0	10	HELMET	702	n/a	n/a	0	0	0
2239235	WORD	wordpools/wasnorm_wordpool_576.txt	LTP370	ltpFR2	0	10	SPHINX	1349	n/a	n/a	0	0	0
2242001	WORD	wordpools/wasnorm_wordpool_576.txt	LTP370	ltpFR2	0	10	TUTU	1524	n/a	n/a	0	0	0
2244466	WORD	wordpools/wasnorm_wordpool_576.txt	LTP370	ltpFR2	0	10	SPACE	1345	n/a	n/a	0	0	0
2247248	WORD	wordpools/wasnorm_wordpool_576.txt	LTP370	ltpFR2	0	10	SWAMP	1416	n/a	n/a	0	0	0
2249897	WORD	wordpools/wasnorm_wordpool_576.txt	LTP370	ltpFR2	0	10	FOREHEAD	592	n/a	n/a	0	0	0
2252346	WORD	wordpools/wasnorm_wordpool_576.txt	LTP370	ltpFR2	0	10	PACKAGE	997	n/a	n/a	0	0	0
2254778	WORD	wordpools/wasnorm_wordpool_576.txt	LTP370	ltpFR2	0	10	LAGOON	795	n/a	n/a	0	0	0
2257227	WORD	wordpools/wasnorm_wordpool_576.txt	LTP370	ltpFR2	0	10	MOP	916	n/a	n/a	0	0	0
2259976	WORD	wordpools/wasnorm_wordpool_576.txt	LTP370	ltpFR2	0	10	BOX	159	n/a	n/a	0	0	0
2262591	WORD	wordpools/wasnorm_wordpool_576.txt	LTP370	ltpFR2	0	10	BEAKER	104	n/a	n/a	0	0	0
2264207	START	n/a	LTP370	ltpFR2	0	n/a	n/a	n/a	16	n/a	n/a	n/a	n/a
2265154	DISTRACTOR	n/a	LTP370	ltpFR2	0	10	n/a	n/a	n/a	n/a	0	0	0
2265157	PROB	n/a	LTP370	ltpFR2	0	n/a	n/a	n/a	16	20	2	9	9
2267822	PROB	n/a	LTP370	ltpFR2	0	n/a	n/a	n/a	16	24	9	8	7
2271421	PROB	n/a	LTP370	ltpFR2	0	n/a	n/a	n/a	16	10	2	4	4
2272853	PROB	n/a	LTP370	ltpFR2	0	n/a	n/a	n/a	16	20	5	7	8
2276735	PROB	n/a	LTP370	ltpFR2	0	n/a	n/a	n/a	16	11	6	4	1
2278417	PROB	n/a	LTP370	ltpFR2	0	n/a	n/a	n/a	16	21	8	8	5
2280083	PROB	n/a	LTP370	ltpFR2	0	n/a	n/a	n/a	16	13	8	4	1
2282099	PROB	n/a	LTP370	ltpFR2	0	n/a	n/a	n/a	16	18	6	6	6
2283632	PROB	n/a	LTP370	ltpFR2	0	n/a	n/a	n/a	16	25	8	8	9
2286347	PROB	n/a	LTP370	ltpFR2	0	n/a	n/a	n/a	16	13	2	8	3
2287813	STOP	n/a	LTP370	ltpFR2	0	n/a	n/a	n/a	16	n/a	n/a	n/a	n/a
2290063	REC_START	n/a	LTP370	ltpFR2	0	10	n/a	n/a	n/a	n/a	0	0	0
2291198	REC_WORD	wordpools/wasnorm_wordpool_576.txt	LTP370	ltpFR2	0	10	BROOK	177	n/a	n/a	0	0	0
2292069	REC_WORD	wordpools/wasnorm_wordpool_576.txt	LTP370	ltpFR2	0	10	BARREL	91	n/a	n/a	0	0	0
2292829	REC_WORD	wordpools/wasnorm_wordpool_576.txt	LTP370	ltpFR2	0	10	PREACHER	1119	n/a	n/a	0	0	0
2293532	REC_WORD	wordpools/wasnorm_wordpool_576.txt	LTP370	ltpFR2	0	10	SWAMP	1416	n/a	n/a	0	0	0
2294404	REC_WORD	wordpools/wasnorm_wordpool_576.txt	LTP370	ltpFR2	0	10	LAGOON	795	n/a	n/a	0	0	0
2296445	REC_WORD	wordpools/wasnorm_wordpool_576.txt	LTP370	ltpFR2	0	10	ARM	38	n/a	n/a	0	0	0
2297192	REC_WORD	wordpools/wasnorm_wordpool_576.txt	LTP370	ltpFR2	0	10	CATCHER	258	n/a	n/a	0	0	0
2297908	REC_WORD	wordpools/wasnorm_wordpool_576.txt	LTP370	ltpFR2	0	10	FOOTBALL	591	n/a	n/a	0	0	0
2299380	REC_WORD	wordpools/wasnorm_wordpool_576.txt	LTP370	ltpFR2	0	10	HELMET	702	n/a	n/a	0	0	0
2304872	REC_WORD	wordpools/wasnorm_wordpool_576.txt	LTP370	ltpFR2	0	10	BOX	159	n/a	n/a	0	0	0
2342267	REC_WORD	wordpools/wasnorm_wordpool_576.txt	LTP370	ltpFR2	0	10	TEACHER	1440	n/a	n/a	0	0	0
2399063	WORD	wordpools/wasnorm_wordpool_576.txt	LTP370	ltpFR2	0	11	MUFFIN	929	n/a	n/a	0	0	0
2401545	WORD	wordpools/wasnorm_wordpool_576.txt	LTP370	ltpFR2	0	11	LILY	821	n/a	n/a	0	0	0
2404144	WORD	wordpools/wasnorm_wordpool_576.txt	LTP370	ltpFR2	0	11	SERVANT	1271	n/a	n/a	0	0	0
2406826	WORD	wordpools/wasnorm_wordpool_576.txt	LTP370	ltpFR2	0	11	DIVER	476	n/a	n/a	0	0	0
2409375	WORD	wordpools/wasnorm_wordpool_576.txt	LTP370	ltpFR2	0	11	PARENT	1013	n/a	n/a	0	0	0
2412173	WORD	wordpools/wasnorm_wordpool_576.txt	LTP370	ltpFR2	0	11	TART	1436	n/a	n/a	0	0	0
2414606	WORD	wordpools/wasnorm_wordpool_576.txt	LTP370	ltpFR2	0	11	WARDROBE	1587	n/a	n/a	0	0	0
2417238	WORD	wordpools/wasnorm_wordpool_576.txt	LTP370	ltpFR2	0	11	COMPASS	358	n/a	n/a	0	0	0
2419853	WORD	wordpools/wasnorm_wordpool_576.txt	LTP370	ltpFR2	0	11	CHAUFFEUR	283	n/a	n/a	0	0	0
2422552	WORD	wordpools/wasnorm_wordpool_576.txt	LTP370	ltpFR2	0	11	BRAKE	166	n/a	n/a	0	0	0
2425351	WORD	wordpools/wasnorm_wordpool_576.txt	LTP370	ltpFR2	0	11	CLOTHES	327	n/a	n/a	0	0	0
2427916	WORD	wordpools/wasnorm_wordpool_576.txt	LTP370	ltpFR2	0	11	PEDAL	1037	n/a	n/a	0	0	0
2430582	WORD	wordpools/wasnorm_wordpool_576.txt	LTP370	ltpFR2	0	11	PALACE	1006	n/a	n/a	0	0	0
2433047	WORD	wordpools/wasnorm_wordpool_576.txt	LTP370	ltpFR2	0	11	LONDON	843	n/a	n/a	0	0	0
2435846	WORD	wordpools/wasnorm_wordpool_576.txt	LTP370	ltpFR2	0	11	GANGSTER	620	n/a	n/a	0	0	0
2438528	WORD	wordpools/wasnorm_wordpool_576.txt	LTP370	ltpFR2	0	11	BUG	187	n/a	n/a	0	0	0
2441260	WORD	wordpools/wasnorm_wordpool_576.txt	LTP370	ltpFR2	0	11	PASTRY	1022	n/a	n/a	0	0	0
2443876	WORD	wordpools/wasnorm_wordpool_576.txt	LTP370	ltpFR2	0	11	BINDER	127	n/a	n/a	0	0	0
2446574	WORD	wordpools/wasnorm_wordpool_576.txt	LTP370	ltpFR2	0	11	HUMAN	726	n/a	n/a	0	0	0
2449173	WORD	wordpools/wasnorm_wordpool_576.txt	LTP370	ltpFR2	0	11	DAISY	435	n/a	n/a	0	0	0
2451822	WORD	wordpools/wasnorm_wordpool_576.txt	LTP370	ltpFR2	0	11	ISLAND	745	n/a	n/a	0	0	0
2454438	WORD	wordpools/wasnorm_wordpool_576.txt	LTP370	ltpFR2	0	11	SKETCH	1315	n/a	n/a	0	0	0
2456970	WORD	wordpools/wasnorm_wordpool_576.txt	LTP370	ltpFR2	0	11	PUDDLE	1140	n/a	n/a	0	0	0
2459602	WORD	wordpools/wasnorm_wordpool_576.txt	LTP370	ltpFR2	0	11	SPONGE	1355	n/a	n/a	0	0	0
2461218	START	n/a	LTP370	ltpFR2	0	n/a	n/a	n/a	17	n/a	n/a	n/a	n/a
2462126	DISTRACTOR	n/a	LTP370	ltpFR2	0	11	n/a	n/a	n/a	n/a	0	0	0
2462151	PROB	n/a	LTP370	ltpFR2	0	n/a	n/a	n/a	17	10	7	1	2
2465949	PROB	n/a	LTP370	ltpFR2	0	n/a	n/a	n/a	17	22	9	8	5
2470714	PROB	n/a	LTP370	ltpFR2	0	n/a	n/a	n/a	17	16	8	3	5
2473562	PROB	n/a	LTP370	ltpFR2	0	n/a	n/a	n/a	17	16	8	2	6
2475928	PROB	n/a	LTP370	ltpFR2	0	n/a	n/a	n/a	17	16	9	6	1
2478527	PROB	n/a	LTP370	ltpFR2	0	n/a	n/a	n/a	17	24	9	7	8
2483541	PROB	n/a	LTP370	ltpFR2	0	n/a	n/a	n/a	17	17	4	6	7
2485138	STOP	n/a	LTP370	ltpFR2	0	n/a	n/a	n/a	17	n/a	n/a	n/a	n/a
2487107	REC_START	n/a	LTP370	ltpFR2	0	11	n/a	n/a	n/a	n/a	0	0	0
2488080	REC_WORD	wordpools/wasnorm_wordpool_576.txt	LTP370	ltpFR2	0	11	MUFFIN	929	n/a	n/a	0	0	0
2489073	REC_WORD	wordpools/wasnorm_wordpool_576.txt	LTP370	ltpFR2	0	11	TART	1436	n/a	n/a	0	0	0
2489866	REC_WORD	wordpools/wasnorm_wordpool_576.txt	LTP370	ltpFR2	0	11	PASTRY	1022	n/a	n/a	0	0	0
2491057	REC_WORD	wordpools/wasnorm_wordpool_576.txt	LTP370	ltpFR2	0	11	SERVANT	1271	n/a	n/a	0	0	0
2492079	REC_WORD	wordpools/wasnorm_wordpool_576.txt	LTP370	ltpFR2	0	11	PALACE	1006	n/a	n/a	0	0	0
2493278	REC_WORD	wordpools/wasnorm_wordpool_576.txt	LTP370	ltpFR2	0	11	LONDON	843	n/a	n/a	0	0	0
2494384	REC_WORD	wordpools/wasnorm_wordpool_576.txt	LTP370	ltpFR2	0	11	COMPASS	358	n/a	n/a	0	0	0
2495475	REC_WORD	wordpools/wasnorm_wordpool_576.txt	LTP370	ltpFR2	0	11	DIVER	476	n/a	n/a	0	0	0
2496624	REC_WORD	wordpools/wasnorm_wordpool_576.txt	LTP370	ltpFR2	0	11	PARENT	1013	n/a	n/a	0	0	0
2497410	REC_WORD	wordpools/wasnorm_wordpool_576.txt	LTP370	ltpFR2	0	11	CHAUFFEUR	283	n/a	n/a	0	0	0
2499100	REC_WORD	wordpools/wasnorm_wordpool_576.txt	LTP370	ltpFR2	0	11	ISLAND	745	n/a	n/a	0	0	0
2503433	REC_WORD	wordpools/wasnorm_wordpool_576.txt	LTP370	ltpFR2	0	11	DAISY	435	n/a	n/a	0	0	0
2504190	REC_WORD	wordpools/wasnorm_wordpool_576.txt	LTP370	ltpFR2	0	11	LILY	821	n/a	n/a	0	0	0
2513057	REC_WORD	wordpools/wasnorm_wordpool_576.txt	LTP370	ltpFR2	0	11	GANGSTER	620	n/a	n/a	0	0	0
2515873	REC_WORD	wordpools/wasnorm_wordpool_576.txt	LTP370	ltpFR2	0	11	BUG	187	n/a	n/a	0	0	0
2619030	DISTRACTOR	n/a	LTP370	ltpFR2	0	12	n/a	n/a	n/a	n/a	0	0	0
2619030	START	n/a	LTP370	ltpFR2	0	n/a	n/a	n/a	18	n/a	n/a	n/a	n/a
2619046	PROB	n/a	LTP370	ltpFR2	0	n/a	n/a	n/a	18	23	9	6	8
2621645	PROB	n/a	LTP370	ltpFR2	0	n/a	n/a	n/a	18	8	1	3	5
2624061	PROB	n/a	LTP370	ltpFR2	0	n/a	n/a	n/a	18	12	8	3	1
2626976	PROB	n/a	LTP370	ltpFR2	0	n/a	n/a	n/a	18	17	9	4	4
2628658	PROB	n/a	LTP370	ltpFR2	0	n/a	n/a	n/a	18	13	6	1	6
2630058	PROB	n/a	LTP370	ltpFR2	0	n/a	n/a	n/a	18	14	4	3	7
2633823	PROB	n/a	LTP370	ltpFR2	0	n/a	n/a	n/a	18	16	4	9	3
2636288	PROB	n/a	LTP370	ltpFR2	0	n/a	n/a	n/a	18	8	5	2	1
2637854	PROB	n/a	LTP370	ltpFR2	0	n/a	n/a	n/a	18	14	2	8	4
2639287	PROB	n/a	LTP370	ltpFR2	0	n/a	n/a	n/a	18	9	4	1	4
2640620	PROB	n/a	LTP370	ltpFR2	0	n/a	n/a	n/a	18	19	7	3	9
2641967	STOP	n/a	LTP370	ltpFR2	0	n/a	n/a	n/a	18	n/a	n/a	n/a	n/a
2644118	WORD	wordpools/wasnorm_wordpool_576.txt	LTP370	ltpFR2	0	12	COIN	343	n/a	n/a	0	0	0
2646934	WORD	wordpools/wasnorm_wordpool_576.txt	LTP370	ltpFR2	0	12	MARKET	871	n/a	n/a	0	0	0
2649649	WORD	wordpools/wasnorm_wordpool_576.txt	LTP370	ltpFR2	0	12	SCARECROW	1245	n/a	n/a	0	0	0
2652165	WORD	wordpools/wasnorm_wordpool_576.txt	LTP370	ltpFR2	0	12	PLAID	1080	n/a	n/a	0	0	0
2654947	WORD	wordpools/wasnorm_wordpool_576.txt	LTP370	ltpFR2	0	12	PLAZA	1088	n/a	n/a	0	0	0
2657712	WORD	wordpools/wasnorm_wordpool_576.txt	LTP370	ltpFR2	0	12	MATTRESS	879	n/a	n/a	0	0	0
2660327	WORD	wordpools/wasnorm_wordpool_576.txt	LTP370	ltpFR2	0	12	RELISH	1183	n/a	n/a	0	0	0
2662893	WORD	wordpools/wasnorm_wordpool_576.txt	LTP370	ltpFR2	0	12	SHELTER	1282	n/a	n/a	0	0	0
2665375	WORD	wordpools/wasnorm_wordpool_576.txt	LTP370	ltpFR2	0	12	ONION	977	n/a	n/a	0	0	0
2668091	WORD	wordpools/wasnorm_wordpool_576.txt	LTP370	ltpFR2	0	12	PARSLEY	1016	n/a	n/a	0	0	0
2670906	WORD	wordpools/wasnorm_wordpool_576.txt	LTP370	ltpFR2	0	12	LADY	794	n/a	n/a	0	0	0
2673705	WORD	wordpools/wasnorm_wordpool_576.txt	LTP370	ltpFR2	0	12	STAR	1373	n/a	n/a	0	0	0
2676154	WORD	wordpools/wasnorm_wordpool_576.txt	LTP370	ltpFR2	0	12	TURKEY	1520	n/a	n/a	0	0	0
2678619	WORD	wordpools/wasnorm_wordpool_576.txt	LTP370	ltpFR2	0	12	MISSILE	900	n/a	n/a	0	0	0
2681385	WORD	wordpools/wasnorm_wordpool_576.txt	LTP370	ltpFR2	0	12	BUREAU	199	n/a	n/a	0	0	0
2684067	WORD	wordpools/wasnorm_wordpool_576.txt	LTP370	ltpFR2	0	12	OUTFIT	988	n/a	n/a	0	0	0
2686749	WORD	wordpools/wasnorm_wordpool_576.txt	LTP370	ltpFR2	0	12	PLUTO	1092	n/a	n/a	0	0	0
2689564	WORD	wordpools/wasnorm_wordpool_576.txt	LTP370	ltpFR2	0	12	VALVE	1546	n/a	n/a	0	0	0
2692046	WORD	wordpools/wasnorm_wordpool_576.txt	LTP370	ltpFR2	0	12	PISTON	1076	n/a	n/a	0	0	0
2694495	WORD	wordpools/wasnorm_wordpool_576.txt	LTP370	ltpFR2	0	12	SPARROW	1347	n/a	n/a	0	0	0
2697194	WORD	wordpools/wasnorm_wordpool_576.txt	LTP370	ltpFR2	0	12	VAGRANT	1544	n/a	n/a	0	0	0
2699643	WORD	wordpools/wasnorm_wordpool_576.txt	LTP370	ltpFR2	0	12	IDOL	733	n/a	n/a	0	0	0
2702275	WORD	wordpools/wasnorm_wordpool_576.txt	LTP370	ltpFR2	0	12	CRIB	407	n/a	n/a	0	0	0
2704824	WORD	wordpools/wasnorm_wordpool_576.txt	LTP370	ltpFR2	0	12	PEPPER	1047	n/a	n/a	0	0	0
2706440	START	n/a	LTP370	ltpFR2	0	n/a	n/a	n/a	19	n/a	n/a	n/a	n/a
2707514	DISTRACTOR	n/a	LTP370	ltpFR2	0	12	n/a	n/a	n/a	n/a	0	0	0
2707523	PROB	n/a	LTP370	ltpFR2	0	n/a	n/a	n/a	19	19	8	4	7
2711288	PROB	n/a	LTP370	ltpFR2	0	n/a	n/a	n/a	19	14	1	6	7
2713587	PROB	n/a	LTP370	ltpFR2	0	n/a	n/a	n/a	19	20	5	9	6
2719734	PROB	n/a	LTP370	ltpFR2	0	n/a	n/a	n/a	19	15	3	3	9
2721950	PROB	n/a	LTP370	ltpFR2	0	n/a	n/a	n/a	19	7	3	3	1
2724015	PROB	n/a	LTP370	ltpFR2	0	n/a	n/a	n/a	19	19	6	7	6
2726398	PROB	n/a	LTP370	ltpFR2	0	n/a	n/a	n/a	19	12	6	3	3
2728180	PROB	n/a	LTP370	ltpFR2	0	n/a	n/a	n/a	19	10	7	1	2
2730170	STOP	n/a	LTP370	ltpFR2	0	n/a	n/a	n/a	19	n/a	n/a	n/a	n/a
2732329	REC_START	n/a	LTP370	ltpFR2	0	12	n/a	n/a	n/a	n/a	0	0	0
2733380	REC_WORD	wordpools/wasnorm_wordpool_576.txt	LTP370	ltpFR2	0	12	SCARECROW	1245	n/a	n/a	0	0	0
2735070	REC_WORD	wordpools/wasnorm_wordpool_576.txt	LTP370	ltpFR2	0	12	PLAID	1080	n/a	n/a	0	0	0
2736395	REC_WORD	wordpools/wasnorm_wordpool_576.txt	LTP370	ltpFR2	0	12	OUTFIT	988	n/a	n/a	0	0	0
2737333	REC_WORD	wordpools/wasnorm_wordpool_576.txt	LTP370	ltpFR2	0	12	LADY	794	n/a	n/a	0	0	0
2738417	REC_WORD	wordpools/wasnorm_wordpool_576.txt	LTP370	ltpFR2	0	12	COIN	343	n/a	n/a	0	0	0
2739355	REC_WORD	wordpools/wasnorm_wordpool_576.txt	LTP370	ltpFR2	0	12	MARKET	871	n/a	n/a	0	0	0
2740527	REC_WORD	wordpools/wasnorm_wordpool_576.txt	LTP370	ltpFR2	0	12	PLAZA	1088	n/a	n/a	0	0	0
2741779	REC_WORD	wordpools/wasnorm_wordpool_576.txt	LTP370	ltpFR2	0	12	VAGRANT	1544	n/a	n/a	0	0	0
2742979	REC_WORD	wordpools/wasnorm_wordpool_576.txt	LTP370	ltpFR2	0	12	IDOL	733	n/a	n/a	0	0	0
2749040	REC_WORD	wordpools/wasnorm_wordpool_576.txt	LTP370	ltpFR2	0	12	SPARROW	1347	n/a	n/a	0	0	0
2751522	REC_WORD	wordpools/wasnorm_wordpool_576.txt	LTP370	ltpFR2	0	12	BUREAU	199	n/a	n/a	0	0	0
2752328	REC_WORD	wordpools/wasnorm_wordpool_576.txt	LTP370	ltpFR2	0	12	MISSILE	900	n/a	n/a	0	0	0
2753616	REC_WORD	wordpools/wasnorm_wordpool_576.txt	LTP370	ltpFR2	0	12	PISTON	1076	n/a	n/a	0	0	0
2754724	REC_WORD	wordpools/wasnorm_wordpool_576.txt	LTP370	ltpFR2	0	12	VALVE	1546	n/a	n/a	0	0	0
2822804	WORD	wordpools/wasnorm_wordpool_576.txt	LTP370	ltpFR2	0	13	PROTON	1132	n/a	n/a	0	0	0
2825419	WORD	wordpools/wasnorm_wordpool_576.txt	LTP370	ltpFR2	0	13	RUST	1219	n/a	n/a	0	0	0
2827951	WORD	wordpools/wasnorm_wordpool_576.txt	LTP370	ltpFR2	0	13	MAPLE	866	n/a	n/a	0	0	0
2830434	WORD	wordpools/wasnorm_wordpool_576.txt	LTP370	ltpFR2	0	13	MACHINE	852	n/a	n/a	0	0	0
2833049	WORD	wordpools/wasnorm_wordpool_576.txt	LTP370	ltpFR2	0	13	HORNET	718	n/a	n/a	0	0	0
2835815	WORD	wordpools/wasnorm_wordpool_576.txt	LTP370	ltpFR2	0	13	WORKER	1621	n/a	n/a	0	0	0
2838630	WORD	wordpools/wasnorm_wordpool_576.txt	LTP370	ltpFR2	0	13	TOASTER	1472	n/a	n/a	0	0	0
2841229	WORD	wordpools/wasnorm_wordpool_576.txt	LTP370	ltpFR2	0	13	LASER	801	n/a	n/a	0	0	0
2843961	WORD	wordpools/wasnorm_wordpool_576.txt	LTP370	ltpFR2	0	13	CRUTCH	417	n/a	n/a	0	0	0
2846510	WORD	wordpools/wasnorm_wordpool_576.txt	LTP370	ltpFR2	0	13	MARSH	874	n/a	n/a	0	0	0
2849225	WORD	wordpools/wasnorm_wordpool_576.txt	LTP370	ltpFR2	0	13	BRANDY	169	n/a	n/a	0	0	0
2851991	WORD	wordpools/wasnorm_wordpool_576.txt	LTP370	ltpFR2	0	13	DRINK	498	n/a	n/a	0	0	0
2854589	WORD	wordpools/wasnorm_wordpool_576.txt	LTP370	ltpFR2	0	13	DOLPHIN	483	n/a	n/a	0	0	0
2857371	WORD	wordpools/wasnorm_wordpool_576.txt	LTP370	ltpFR2	0	13	TOMBSTONE	1478	n/a	n/a	0	0	0
2860037	WORD	wordpools/wasnorm_wordpool_576.txt	LTP370	ltpFR2	0	13	LADDER	793	n/a	n/a	0	0	0
2862536	WORD	wordpools/wasnorm_wordpool_576.txt	LTP370	ltpFR2	0	13	GROUND	666	n/a	n/a	0	0	0
2865201	WORD	wordpools/wasnorm_wordpool_576.txt	LTP370	ltpFR2	0	13	FOREST	593	n/a	n/a	0	0	0
2867867	WORD	wordpools/wasnorm_wordpool_576.txt	LTP370	ltpFR2	0	13	XEROX	1628	n/a	n/a	0	0	0
2870599	WORD	wordpools/wasnorm_wordpool_576.txt	LTP370	ltpFR2	0	13	TRUCK	1512	n/a	n/a	0	0	0
2873081	WORD	wordpools/wasnorm_wordpool_576.txt	LTP370	ltpFR2	0	13	HONEY	713	n/a	n/a	0	0	0
2875880	WORD	wordpools/wasnorm_wordpool_576.txt	LTP370	ltpFR2	0	13	CASKET	255	n/a	n/a	0	0	0
2878462	WORD	wordpools/wasnorm_wordpool_576.txt	LTP370	ltpFR2	0	13	GLOVE	642	n/a	n/a	0	0	0
2880994	WORD	wordpools/wasnorm_wordpool_576.txt	LTP370	ltpFR2	0	13	DENTIST	447	n/a	n/a	0	0	0
2883426	WORD	wordpools/wasnorm_wordpool_576.txt	LTP370	ltpFR2	0	13	DRILL	497	n/a	n/a	0	0	0
2885043	START	n/a	LTP370	ltpFR2	0	n/a	n/a	n/a	20	n/a	n/a	n/a	n/a
2886232	DISTRACTOR	n/a	LTP370	ltpFR2	0	13	n/a	n/a	n/a	n/a	0	0	0
2886242	PROB	n/a	LTP370	ltpFR2	0	n/a	n/a	n/a	20	16	2	9	5
2890423	PROB	n/a	LTP370	ltpFR2	0	n/a	n/a	n/a	20	18	4	5	9
2892039	PROB	n/a	LTP370	ltpFR2	0	n/a	n/a	n/a	20	14	8	3	3
2893588	PROB	n/a	LTP370	ltpFR2	0	n/a	n/a	n/a	20	18	8	7	3
2895654	PROB	n/a	LTP370	ltpFR2	0	n/a	n/a	n/a	20	20	2	8	8
2897220	PROB	n/a	LTP370	ltpFR2	0	n/a	n/a	n/a	20	19	9	4	6
2899502	PROB	n/a	LTP370	ltpFR2	0	n/a	n/a	n/a	20	15	5	1	9
2901468	PROB	n/a	LTP370	ltpFR2	0	n/a	n/a	n/a	20	14	6	4	4
2903267	PROB	n/a	LTP370	ltpFR2	0	n/a	n/a	n/a	20	7	1	5	1
2904817	PROB	n/a	LTP370	ltpFR2	0	n/a	n/a	n/a	20	14	6	4	4
2906333	PROB	n/a	LTP370	ltpFR2	0	n/a	n/a	n/a	20	20	8	7	5
2908671	STOP	n/a	LTP370	ltpFR2	0	n/a	n/a	n/a	20	n/a	n/a	n/a	n/a
2910848	REC_START	n/a	LTP370	ltpFR2	0	13	n/a	n/a	n/a	n/a	0	0	0
2911628	REC_WORD	wordpools/wasnorm_wordpool_576.txt	LTP370	ltpFR2	0	13	PROTON	1132	n/a	n/a	0	0	0
2912397	REC_WORD	wordpools/wasnorm_wordpool_576.txt	LTP370	ltpFR2	0	13	MAPLE	866	n/a	n/a	0	0	0
2913642	REC_WORD	wordpools/wasnorm_wordpool_576.txt	LTP370	ltpFR2	0	13	RUST	1219	n/a	n/a	0	0	0
2914211	REC_WORD	wordpools/wasnorm_wordpool_576.txt	LTP370	ltpFR2	0	13	MACHINE	852	n/a	n/a	0	0	0
2915144	REC_WORD	wordpools/wasnorm_wordpool_576.txt	LTP370	ltpFR2	0	13	WORKER	1621	n/a	n/a	0	0	0
2916294	REC_WORD	wordpools/wasnorm_wordpool_576.txt	LTP370	ltpFR2	0	13	LASER	801	n/a	n/a	0	0	0
2917157	REC_WORD	wordpools/wasnorm_wordpool_576.txt	LTP370	ltpFR2	0	13	DENTIST	447	n/a	n/a	0	0	0
2918126	REC_WORD	wordpools/wasnorm_wordpool_576.txt	LTP370	ltpFR2	0	13	DRILL	497	n/a	n/a	0	0	0
2924618	REC_WORD	wordpools/wasnorm_wordpool_576.txt	LTP370	ltpFR2	0	13	LADDER	793	n/a	n/a	0	0	0
2925547	REC_WORD	wordpools/wasnorm_wordpool_576.txt	LTP370	ltpFR2	0	13	GROUND	666	n/a	n/a	0	0	0
2926561	REC_WORD	wordpools/wasnorm_wordpool_576.txt	LTP370	ltpFR2	0	13	HONEY	713	n/a	n/a	0	0	0
2931396	REC_WORD	wordpools/wasnorm_wordpool_576.txt	LTP370	ltpFR2	0	13	TOMBSTONE	1478	n/a	n/a	0	0	0
2932572	REC_WORD	wordpools/wasnorm_wordpool_576.txt	LTP370	ltpFR2	0	13	CASKET	255	n/a	n/a	0	0	0
3026478	WORD	wordpools/wasnorm_wordpool_576.txt	LTP370	ltpFR2	0	14	ACTOR	5	n/a	n/a	0	0	0
3029177	WORD	wordpools/wasnorm_wordpool_576.txt	LTP370	ltpFR2	0	14	FLASK	576	n/a	n/a	0	0	0
3031826	WORD	wordpools/wasnorm_wordpool_576.txt	LTP370	ltpFR2	0	14	SISTER	1312	n/a	n/a	0	0	0
3034625	WORD	wordpools/wasnorm_wordpool_576.txt	LTP370	ltpFR2	0	14	SALMON	1227	n/a	n/a	0	0	0
3037190	WORD	wordpools/wasnorm_wordpool_576.txt	LTP370	ltpFR2	0	14	CUSTARD	429	n/a	n/a	0	0	0
3039922	WORD	wordpools/wasnorm_wordpool_576.txt	LTP370	ltpFR2	0	14	CHURCH	307	n/a	n/a	0	0	0
3042637	WORD	wordpools/wasnorm_wordpool_576.txt	LTP370	ltpFR2	0	14	PEACH	1031	n/a	n/a	0	0	0
3045403	WORD	wordpools/wasnorm_wordpool_576.txt	LTP370	ltpFR2	0	14	SPOON	1357	n/a	n/a	0	0	0
3047902	WORD	wordpools/wasnorm_wordpool_576.txt	LTP370	ltpFR2	0	14	BUGGY	188	n/a	n/a	0	0	0
3050517	WORD	wordpools/wasnorm_wordpool_576.txt	LTP370	ltpFR2	0	14	CHILD	299	n/a	n/a	0	0	0
3053183	WORD	wordpools/wasnorm_wordpool_576.txt	LTP370	ltpFR2	0	14	CAPTIVE	240	n/a	n/a	0	0	0
3055715	WORD	wordpools/wasnorm_wordpool_576.txt	LTP370	ltpFR2	0	14	JAPAN	749	n/a	n/a	0	0	0
3058197	WORD	wordpools/wasnorm_wordpool_576.txt	LTP370	ltpFR2	0	14	DAUGHTER	442	n/a	n/a	0	0	0
3060646	WORD	wordpools/wasnorm_wordpool_576.txt	LTP370	ltpFR2	0	14	SPOOL	1356	n/a	n/a	0	0	0
3063361	WORD	wordpools/wasnorm_wordpool_576.txt	LTP370	ltpFR2	0	14	QUAIL	1147	n/a	n/a	0	0	0
3065994	WORD	wordpools/wasnorm_wordpool_576.txt	LTP370	ltpFR2	0	14	OUTLAW	989	n/a	n/a	0	0	0
3068776	WORD	wordpools/wasnorm_wordpool_576.txt	LTP370	ltpFR2	0	14	PICNIC	1060	n/a	n/a	0	0	0
3071225	WORD	wordpools/wasnorm_wordpool_576.txt	LTP370	ltpFR2	0	14	DINER	467	n/a	n/a	0	0	0
3073807	WORD	wordpools/wasnorm_wordpool_576.txt	LTP370	ltpFR2	0	14	CHEST	295	n/a	n/a	0	0	0
3076605	WORD	wordpools/wasnorm_wordpool_576.txt	LTP370	ltpFR2	0	14	FEMALE	559	n/a	n/a	0	0	0
3079188	WORD	wordpools/wasnorm_wordpool_576.txt	LTP370	ltpFR2	0	14	YARN	1631	n/a	n/a	0	0	0
3081870	WORD	wordpools/wasnorm_wordpool_576.txt	LTP370	ltpFR2	0	14	OYSTER	995	n/a	n/a	0	0	0
3084419	WORD	wordpools/wasnorm_wordpool_576.txt	LTP370	ltpFR2	0	14	DOUGHNUT	490	n/a	n/a	0	0	0
3086917	WORD	wordpools/wasnorm_wordpool_576.txt	LTP370	ltpFR2	0	14	TRENCH	1503	n/a	n/a	0	0	0
3088534	START	n/a	LTP370	ltpFR2	0	n/a	n/a	n/a	21	n/a	n/a	n/a	n/a
3089471	DISTRACTOR	n/a	LTP370	ltpFR2	0	14	n/a	n/a	n/a	n/a	0	0	0
3089483	PROB	n/a	LTP370	ltpFR2	0	n/a	n/a	n/a	21	21	7	7	7
3091449	PROB	n/a	LTP370	ltpFR2	0	n/a	n/a	n/a	21	22	7	7	8
3092965	PROB	n/a	LTP370	ltpFR2	0	n/a	n/a	n/a	21	16	1	8	7
3094897	PROB	n/a	LTP370	ltpFR2	0	n/a	n/a	n/a	21	5	1	2	2
3096630	PROB	n/a	LTP370	ltpFR2	0	n/a	n/a	n/a	21	10	6	1	3
3098246	PROB	n/a	LTP370	ltpFR2	0	n/a	n/a	n/a	21	10	3	4	3
3101677	PROB	n/a	LTP370	ltpFR2	0	n/a	n/a	n/a	21	21	7	7	7
3103826	PROB	n/a	LTP370	ltpFR2	0	n/a	n/a	n/a	21	21	5	7	9
3106858	PROB	n/a	LTP370	ltpFR2	0	n/a	n/a	n/a	21	7	2	1	4
3112534	STOP	n/a	LTP370	ltpFR2	0	n/a	n/a	n/a	21	n/a	n/a	n/a	n/a
3114339	REC_START	n/a	LTP370	ltpFR2	0	14	n/a	n/a	n/a	n/a	0	0	0
3115734	REC_WORD	wordpools/wasnorm_wordpool_576.txt	LTP370	ltpFR2	0	14	ACTOR	5	n/a	n/a	0	0	0
3116707	REC_WORD	wordpools/wasnorm_wordpool_576.txt	LTP370	ltpFR2	0	14	TRENCH	1503	n/a	n/a	0	0	0
3118113	REC_WORD	wordpools/wasnorm_wordpool_576.txt	LTP370	ltpFR2	0	14	CUSTARD	429	n/a	n/a	0	0	0
3119188	REC_WORD	wordpools/wasnorm_wordpool_576.txt	LTP370	ltpFR2	0	14	PEACH	1031	n/a	n/a	0	0	0
3119788	REC_WORD	wordpools/wasnorm_wordpool_576.txt	LTP370	ltpFR2	0	14	SPOON	1357	n/a	n/a	0	0	0
3120863	REC_WORD	wordpools/wasnorm_wordpool_576.txt	LTP370	ltpFR2	0	14	DOUGHNUT	490	n/a	n/a	0	0	0
3121983	REC_WORD	wordpools/wasnorm_wordpool_576.txt	LTP370	ltpFR2	0	14	FLASK	576	n/a	n/a	0	0	0
3124655	REC_WORD	wordpools/wasnorm_wordpool_576.txt	LTP370	ltpFR2	0	14	DAUGHTER	442	n/a	n/a	0	0	0
3125275	REC_WORD	wordpools/wasnorm_wordpool_576.txt	LTP370	ltpFR2	0	14	SISTER	1312	n/a	n/a	0	0	0
3126370	REC_WORD	wordpools/wasnorm_wordpool_576.txt	LTP370	ltpFR2	0	14	CAPTIVE	240	n/a	n/a	0	0	0
3127425	REC_WORD	wordpools/wasnorm_wordpool_576.txt	LTP370	ltpFR2	0	14	JAPAN	749	n/a	n/a	0	0	0
3204781	WORD	wordpools/wasnorm_wordpool_576.txt	LTP370	ltpFR2	0	15	OZONE	996	n/a	n/a	0	0	0
3207263	WORD	wordpools/wasnorm_wordpool_576.txt	LTP370	ltpFR2	0	15	CLIMBER	323	n/a	n/a	0	0	0
3209962	WORD	wordpools/wasnorm_wordpool_576.txt	LTP370	ltpFR2	0	15	WASHER	1592	n/a	n/a	0	0	0
3212777	WORD	wordpools/wasnorm_wordpool_576.txt	LTP370	ltpFR2	0	15	COUNTRY	388	n/a	n/a	0	0	0
3215309	WORD	wordpools/wasnorm_wordpool_576.txt	LTP370	ltpFR2	0	15	POSSUM	1112	n/a	n/a	0	0	0
3218025	WORD	wordpools/wasnorm_wordpool_576.txt	LTP370	ltpFR2	0	15	CHIPMUNK	304	n/a	n/a	0	0	0
3220707	WORD	wordpools/wasnorm_wordpool_576.txt	LTP370	ltpFR2	0	15	STAMP	1370	n/a	n/a	0	0	0
3223156	WORD	wordpools/wasnorm_wordpool_576.txt	LTP370	ltpFR2	0	15	COUCH	386	n/a	n/a	0	0	0
3225754	WORD	wordpools/wasnorm_wordpool_576.txt	LTP370	ltpFR2	0	15	JUNGLE	764	n/a	n/a	0	0	0
3228320	WORD	wordpools/wasnorm_wordpool_576.txt	LTP370	ltpFR2	0	15	SERVER	1272	n/a	n/a	0	0	0
3230802	WORD	wordpools/wasnorm_wordpool_576.txt	LTP370	ltpFR2	0	15	GRILL	661	n/a	n/a	0	0	0
3233268	WORD	wordpools/wasnorm_wordpool_576.txt	LTP370	ltpFR2	0	15	CHEMIST	292	n/a	n/a	0	0	0
3235850	WORD	wordpools/wasnorm_wordpool_576.txt	LTP370	ltpFR2	0	15	PRIMATE	1123	n/a	n/a	0	0	0
3238332	WORD	wordpools/wasnorm_wordpool_576.txt	LTP370	ltpFR2	0	15	POWDER	1117	n/a	n/a	0	0	0
3240898	WORD	wordpools/wasnorm_wordpool_576.txt	LTP370	ltpFR2	0	15	BABY	64	n/a	n/a	0	0	0
3243713	WORD	wordpools/wasnorm_wordpool_576.txt	LTP370	ltpFR2	0	15	BODY	145	n/a	n/a	0	0	0
3246495	WORD	wordpools/wasnorm_wordpool_576.txt	LTP370	ltpFR2	0	15	ANTLER	29	n/a	n/a	0	0	0
3249144	WORD	wordpools/wasnorm_wordpool_576.txt	LTP370	ltpFR2	0	15	ANKLE	24	n/a	n/a	0	0	0
3251626	WORD	wordpools/wasnorm_wordpool_576.txt	LTP370	ltpFR2	0	15	HEDGE	699	n/a	n/a	0	0	0
3254408	WORD	wordpools/wasnorm_wordpool_576.txt	LTP370	ltpFR2	0	15	PUDDING	1139	n/a	n/a	0	0	0
3257140	WORD	wordpools/wasnorm_wordpool_576.txt	LTP370	ltpFR2	0	15	KIDNEY	776	n/a	n/a	0	0	0
3259589	WORD	wordpools/wasnorm_wordpool_576.txt	LTP370	ltpFR2	0	15	MEAT	883	n/a	n/a	0	0	0
3262388	WORD	wordpools/wasnorm_wordpool_576.txt	LTP370	ltpFR2	0	15	SEAFOOD	1260	n/a	n/a	0	0	0
3264987	WORD	wordpools/wasnorm_wordpool_576.txt	LTP370	ltpFR2	0	15	BRANCH	168	n/a	n/a	0	0	0
3266603	START	n/a	LTP370	ltpFR2	0	n/a	n/a	n/a	22	n/a	n/a	n/a	n/a
3267451	DISTRACTOR	n/a	LTP370	ltpFR2	0	15	n/a	n/a	n/a	n/a	0	0	0
3267469	PROB	n/a	LTP370	ltpFR2	0	n/a	n/a	n/a	22	11	7	2	2
3270051	PROB	n/a	LTP370	ltpFR2	0	n/a	n/a	n/a	22	23	7	7	9
3272800	PROB	n/a	LTP370	ltpFR2	0	n/a	n/a	n/a	22	15	9	1	5
3275149	PROB	n/a	LTP370	ltpFR2	0	n/a	n/a	n/a	22	9	6	2	1
3277098	PROB	n/a	LTP370	ltpFR2	0	n/a	n/a	n/a	22	10	1	3	6
3278847	PROB	n/a	LTP370	ltpFR2	0	n/a	n/a	n/a	22	20	5	6	9
3280713	PROB	n/a	LTP370	ltpFR2	0	n/a	n/a	n/a	22	11	2	7	2
3282895	PROB	n/a	LTP370	ltpFR2	0	n/a	n/a	n/a	22	16	2	6	8
3284944	PROB	n/a	LTP370	ltpFR2	0	n/a	n/a	n/a	22	20	5	8	7
3287210	PROB	n/a	LTP370	ltpFR2	0	n/a	n/a	n/a	22	21	3	9	9
3289642	STOP	n/a	LTP370	ltpFR2	0	n/a	n/a	n/a	22	n/a	n/a	n/a	n/a
3292408	REC_START	n/a	LTP370	ltpFR2	0	15	n/a	n/a	n/a	n/a	0	0	0
3293797	REC_WORD	wordpools/wasnorm_wordpool_576.txt	LTP370	ltpFR2	0	15	OZONE	996	n/a	n/a	0	0	0
3294727	REC_WORD	wordpools/wasnorm_wordpool_576.txt	LTP370	ltpFR2	0	15	CLIMBER	323	n/a	n/a	0	0	0
3295973	REC_WORD	wordpools/wasnorm_wordpool_576.txt	LTP370	ltpFR2	0	15	SERVER	1272	n/a	n/a	0	0	0
3296795	REC_WORD	wordpools/wasnorm_wordpool_576.txt	LTP370	ltpFR2	0	15	GRILL	661	n/a	n/a	0	0	0
3297315	REC_WORD	wordpools/wasnorm_wordpool_576.txt	LTP370	ltpFR2	0	15	SEAFOOD	1260	n/a	n/a	0	0	0
3298583	REC_WORD	wordpools/wasnorm_wordpool_576.txt	LTP370	ltpFR2	0	15	MEAT	883	n/a	n/a	0	0	0
3299775	REC_WORD	wordpools/wasnorm_wordpool_576.txt	LTP370	ltpFR2	0	15	POSSUM	1112	n/a	n/a	0	0	0
3301109	REC_WORD	wordpools/wasnorm_wordpool_576.txt	LTP370	ltpFR2	0	15	BRANCH	168	n/a	n/a	0	0	0
3307777	REC_WORD	wordpools/wasnorm_wordpool_576.txt	LTP370	ltpFR2	0	15	WASHER	1592	n/a	n/a	0	0	0
3310911	REC_WORD	wordpools/wasnorm_wordpool_576.txt	LTP370	ltpFR2	0	15	COUCH	386	n/a	n/a	0	0	0
3320463	REC_WORD	wordpools/wasnorm_wordpool_576.txt	LTP370	ltpFR2	0	15	ANTLER	29	n/a	n/a	0	0	0
3335112	REC_WORD	wordpools/wasnorm_wordpool_576.txt	LTP370	ltpFR2	0	15	PUDDING	1139	n/a	n/a	0	0	0
3436742	DISTRACTOR	n/a	LTP370	ltpFR2	0	16	n/a	n/a	n/a	n/a	0	0	0
3436742	START	n/a	LTP370	ltpFR2	0	n/a	n/a	n/a	23	n/a	n/a	n/a	n/a
3436759	PROB	n/a	LTP370	ltpFR2	0	n/a	n/a	n/a	23	18	4	9	5
3441040	PROB	n/a	LTP370	ltpFR2	0	n/a	n/a	n/a	23	14	4	9	1
3443989	PROB	n/a	LTP370	ltpFR2	0	n/a	n/a	n/a	23	7	1	3	3
3445788	PROB	n/a	LTP370	ltpFR2	0	n/a	n/a	n/a	23	17	2	6	9
3448737	PROB	n/a	LTP370	ltpFR2	0	n/a	n/a	n/a	23	15	9	3	3
3450886	PROB	n/a	LTP370	ltpFR2	0	n/a	n/a	n/a	23	14	4	5	5
3453934	PROB	n/a	LTP370	ltpFR2	0	n/a	n/a	n/a	23	17	6	5	6
3455933	PROB	n/a	LTP370	ltpFR2	0	n/a	n/a	n/a	23	13	4	2	7
3460741	STOP	n/a	LTP370	ltpFR2	0	n/a	n/a	n/a	23	n/a	n/a	n/a	n/a
3461764	WORD	wordpools/wasnorm_wordpool_576.txt	LTP370	ltpFR2	0	16	RADISH	1158	n/a	n/a	0	0	0
3464380	WORD	wordpools/wasnorm_wordpool_576.txt	LTP370	ltpFR2	0	16	CITRUS	313	n/a	n/a	0	0	0
3467078	WORD	wordpools/wasnorm_wordpool_576.txt	LTP370	ltpFR2	0	16	CARROT	249	n/a	n/a	0	0	0
3469511	WORD	wordpools/wasnorm_wordpool_576.txt	LTP370	ltpFR2	0	16	YOLK	1633	n/a	n/a	0	0	0
3472309	WORD	wordpools/wasnorm_wordpool_576.txt	LTP370	ltpFR2	0	16	SALAD	1224	n/a	n/a	0	0	0
3475008	WORD	wordpools/wasnorm_wordpool_576.txt	LTP370	ltpFR2	0	16	SIDEWALK	1303	n/a	n/a	0	0	0
3477474	WORD	wordpools/wasnorm_wordpool_576.txt	LTP370	ltpFR2	0	16	STUDENT	1395	n/a	n/a	0	0	0
3480039	WORD	wordpools/wasnorm_wordpool_576.txt	LTP370	ltpFR2	0	16	BLOCKADE	137	n/a	n/a	0	0	0
3482688	WORD	wordpools/wasnorm_wordpool_576.txt	LTP370	ltpFR2	0	16	NAPKIN	937	n/a	n/a	0	0	0
3485370	WORD	wordpools/wasnorm_wordpool_576.txt	LTP370	ltpFR2	0	16	PECAN	1036	n/a	n/a	0	0	0
3487902	WORD	wordpools/wasnorm_wordpool_576.txt	LTP370	ltpFR2	0	16	CONCERT	360	n/a	n/a	0	0	0
3490401	WORD	wordpools/wasnorm_wordpool_576.txt	LTP370	ltpFR2	0	16	TEACHER	1440	n/a	n/a	0	0	0
3493150	WORD	wordpools/wasnorm_wordpool_576.txt	LTP370	ltpFR2	0	16	BADGE	68	n/a	n/a	0	0	0
3495831	WORD	wordpools/wasnorm_wordpool_576.txt	LTP370	ltpFR2	0	16	QUARTER	1148	n/a	n/a	0	0	0
3498381	WORD	wordpools/wasnorm_wordpool_576.txt	LTP370	ltpFR2	0	16	LEADER	807	n/a	n/a	0	0	0
3501130	WORD	wordpools/wasnorm_wordpool_576.txt	LTP370	ltpFR2	0	16	DRAGON	492	n/a	n/a	0	0	0
3503645	WORD	wordpools/wasnorm_wordpool_576.txt	LTP370	ltpFR2	0	16	REBEL	1172	n/a	n/a	0	0	0
3506277	WORD	wordpools/wasnorm_wordpool_576.txt	LTP370	ltpFR2	0	16	FLAG	573	n/a	n/a	0	0	0
3508793	WORD	wordpools/wasnorm_wordpool_576.txt	LTP370	ltpFR2	0	16	ROOSTER	1209	n/a	n/a	0	0	0
3511275	WORD	wordpools/wasnorm_wordpool_576.txt	LTP370	ltpFR2	0	16	DANDRUFF	439	n/a	n/a	0	0	0
3514057	WORD	wordpools/wasnorm_wordpool_576.txt	LTP370	ltpFR2	0	16	APPLE	33	n/a	n/a	0	0	0
3516539	WORD	wordpools/wasnorm_wordpool_576.txt	LTP370	ltpFR2	0	16	SEAGULL	1261	n/a	n/a	0	0	0
3519105	WORD	wordpools/wasnorm_wordpool_576.txt	LTP370	ltpFR2	0	16	PERCH	1048	n/a	n/a	0	0	0
3521836	WORD	wordpools/wasnorm_wordpool_576.txt	LTP370	ltpFR2	0	16	TAXI	1438	n/a	n/a	0	0	0
3523453	START	n/a	LTP370	ltpFR2	0	n/a	n/a	n/a	24	n/a	n/a	n/a	n/a
3524564	DISTRACTOR	n/a	LTP370	ltpFR2	0	16	n/a	n/a	n/a	n/a	0	0	0
3524569	PROB	n/a	LTP370	ltpFR2	0	n/a	n/a	n/a	24	11	2	2	7
3527101	PROB	n/a	LTP370	ltpFR2	0	n/a	n/a	n/a	24	14	6	7	1
3528884	PROB	n/a	LTP370	ltpFR2	0	n/a	n/a	n/a	24	16	8	2	6
3531549	PROB	n/a	LTP370	ltpFR2	0	n/a	n/a	n/a	24	14	7	2	5
3533398	PROB	n/a	LTP370	ltpFR2	0	n/a	n/a	n/a	24	16	5	8	3
3535864	PROB	n/a	LTP370	ltpFR2	0	n/a	n/a	n/a	24	13	7	2	4
3538263	PROB	n/a	LTP370	ltpFR2	0	n/a	n/a	n/a	24	14	4	1	8
3539895	PROB	n/a	LTP370	ltpFR2	0	n/a	n/a	n/a	24	17	2	7	8
3547453	STOP	n/a	LTP370	ltpFR2	0	n/a	n/a	n/a	24	n/a	n/a	n/a	n/a
3549208	REC_START	n/a	LTP370	ltpFR2	0	16	n/a	n/a	n/a	n/a	0	0	0
3550279	REC_WORD	wordpools/wasnorm_wordpool_576.txt	LTP370	ltpFR2	0	16	RADISH	1158	n/a	n/a	0	0	0
3551840	REC_WORD	wordpools/wasnorm_wordpool_576.txt	LTP370	ltpFR2	0	16	CITRUS	313	n/a	n/a	0	0	0
3552797	REC_WORD	wordpools/wasnorm_wordpool_576.txt	LTP370	ltpFR2	0	16	CARROT	249	n/a	n/a	0	0	0
3553689	REC_WORD	wordpools/wasnorm_wordpool_576.txt	LTP370	ltpFR2	0	16	YOLK	1633	n/a	n/a	0	0	0
3555089	REC_WORD	wordpools/wasnorm_wordpool_576.txt	LTP370	ltpFR2	0	16	SALAD	1224	n/a	n/a	0	0	0
3556006	REC_WORD	wordpools/wasnorm_wordpool_576.txt	LTP370	ltpFR2	0	16	PECAN	1036	n/a	n/a	0	0	0
3556957	REC_WORD	wordpools/wasnorm_wordpool_576.txt	LTP370	ltpFR2	0	16	APPLE	33	n/a	n/a	0	0	0
3558012	REC_WORD	wordpools/wasnorm_wordpool_576.txt	LTP370	ltpFR2	0	16	PERCH	1048	n/a	n/a	0	0	0
3558903	REC_WORD	wordpools/wasnorm_wordpool_576.txt	LTP370	ltpFR2	0	16	SEAGULL	1261	n/a	n/a	0	0	0
3564172	REC_WORD	wordpools/wasnorm_wordpool_576.txt	LTP370	ltpFR2	0	16	SIDEWALK	1303	n/a	n/a	0	0	0
3565386	REC_WORD	wordpools/wasnorm_wordpool_576.txt	LTP370	ltpFR2	0	16	STUDENT	1395	n/a	n/a	0	0	0
3566219	REC_WORD	wordpools/wasnorm_wordpool_576.txt	LTP370	ltpFR2	0	16	TEACHER	1440	n/a	n/a	0	0	0
3566980	REC_WORD	wordpools/wasnorm_wordpool_576.txt	LTP370	ltpFR2	0	16	BLOCKADE	137	n/a	n/a	0	0	0
3568378	REC_WORD	wordpools/wasnorm_wordpool_576.txt	LTP370	ltpFR2	0	16	CONCERT	360	n/a	n/a	0	0	0
3625740	REST_REWET	n/a	LTP370	ltpFR2	0	16	n/a	n/a	n/a	n/a	0	0	0
3710868	WORD	wordpools/wasnorm_wordpool_576.txt	LTP370	ltpFR2	0	17	BACON	67	n/a	n/a	0	0	0
3713350	WORD	wordpools/wasnorm_wordpool_576.txt	LTP370	ltpFR2	0	17	SURVEY	1414	n/a	n/a	0	0	0
3716082	WORD	wordpools/wasnorm_wordpool_576.txt	LTP370	ltpFR2	0	17	HOOK	715	n/a	n/a	0	0	0
3718698	WORD	wordpools/wasnorm_wordpool_576.txt	LTP370	ltpFR2	0	17	SHOVEL	1295	n/a	n/a	0	0	0
3721313	WORD	wordpools/wasnorm_wordpool_576.txt	LTP370	ltpFR2	0	17	ITEM	746	n/a	n/a	0	0	0
3723812	WORD	wordpools/wasnorm_wordpool_576.txt	LTP370	ltpFR2	0	17	COSTUME	383	n/a	n/a	0	0	0
3726511	WORD	wordpools/wasnorm_wordpool_576.txt	LTP370	ltpFR2	0	17	GLOBE	641	n/a	n/a	0	0	0
3729210	WORD	wordpools/wasnorm_wordpool_576.txt	LTP370	ltpFR2	0	17	SODA	1341	n/a	n/a	0	0	0
3731842	WORD	wordpools/wasnorm_wordpool_576.txt	LTP370	ltpFR2	0	17	WAITRESS	1581	n/a	n/a	0	0	0
3734607	WORD	wordpools/wasnorm_wordpool_576.txt	LTP370	ltpFR2	0	17	WAITER	1580	n/a	n/a	0	0	0
3737089	WORD	wordpools/wasnorm_wordpool_576.txt	LTP370	ltpFR2	0	17	ROBBER	1197	n/a	n/a	0	0	0
3739538	WORD	wordpools/wasnorm_wordpool_576.txt	LTP370	ltpFR2	0	17	VICTIM	1562	n/a	n/a	0	0	0
3742204	WORD	wordpools/wasnorm_wordpool_576.txt	LTP370	ltpFR2	0	17	GREASE	660	n/a	n/a	0	0	0
3744786	WORD	wordpools/wasnorm_wordpool_576.txt	LTP370	ltpFR2	0	17	SNACK	1331	n/a	n/a	0	0	0
3747368	WORD	wordpools/wasnorm_wordpool_576.txt	LTP370	ltpFR2	0	17	WORLD	1622	n/a	n/a	0	0	0
3750000	WORD	wordpools/wasnorm_wordpool_576.txt	LTP370	ltpFR2	0	17	SAUSAGE	1238	n/a	n/a	0	0	0
3752532	WORD	wordpools/wasnorm_wordpool_576.txt	LTP370	ltpFR2	0	17	FILM	565	n/a	n/a	0	0	0
3755031	WORD	wordpools/wasnorm_wordpool_576.txt	LTP370	ltpFR2	0	17	OX	994	n/a	n/a	0	0	0
3757780	WORD	wordpools/wasnorm_wordpool_576.txt	LTP370	ltpFR2	0	17	TREAT	1501	n/a	n/a	0	0	0
3760595	WORD	wordpools/wasnorm_wordpool_576.txt	LTP370	ltpFR2	0	17	DONKEY	484	n/a	n/a	0	0	0
3763194	WORD	wordpools/wasnorm_wordpool_576.txt	LTP370	ltpFR2	0	17	CARRIAGE	248	n/a	n/a	0	0	0
3765860	WORD	wordpools/wasnorm_wordpool_576.txt	LTP370	ltpFR2	0	17	WRENCH	1625	n/a	n/a	0	0	0
3768658	WORD	wordpools/wasnorm_wordpool_576.txt	LTP370	ltpFR2	0	17	LIGHTNING	820	n/a	n/a	0	0	0
3771174	WORD	wordpools/wasnorm_wordpool_576.txt	LTP370	ltpFR2	0	17	COMET	353	n/a	n/a	0	0	0
3772790	START	n/a	LTP370	ltpFR2	0	n/a	n/a	n/a	25	n/a	n/a	n/a	n/a
3773905	DISTRACTOR	n/a	LTP370	ltpFR2	0	17	n/a	n/a	n/a	n/a	0	0	0
3773923	PROB	n/a	LTP370	ltpFR2	0	n/a	n/a	n/a	25	16	5	9	2
3778487	PROB	n/a	LTP370	ltpFR2	0	n/a	n/a	n/a	25	4	1	1	2
3780053	PROB	n/a	LTP370	ltpFR2	0	n/a	n/a	n/a	25	13	7	3	3
3781835	PROB	n/a	LTP370	ltpFR2	0	n/a	n/a	n/a	25	9	1	7	1
3783551	PROB	n/a	LTP370	ltpFR2	0	n/a	n/a	n/a	25	12	3	1	8
3785417	PROB	n/a	LTP370	ltpFR2	0	n/a	n/a	n/a	25	13	1	8	4
3787267	PROB	n/a	LTP370	ltpFR2	0	n/a	n/a	n/a	25	12	6	4	2
3788849	PROB	n/a	LTP370	ltpFR2	0	n/a	n/a	n/a	25	10	3	2	5
3791348	PROB	n/a	LTP370	ltpFR2	0	n/a	n/a	n/a	25	10	1	3	6
3792897	PROB	n/a	LTP370	ltpFR2	0	n/a	n/a	n/a	25	13	6	1	6
3796789	STOP	n/a	LTP370	ltpFR2	0	n/a	n/a	n/a	25	n/a	n/a	n/a	n/a
3798712	REC_START	n/a	LTP370	ltpFR2	0	17	n/a	n/a	n/a	n/a	0	0	0
3799724	REC_WORD	wordpools/wasnorm_wordpool_576.txt	LTP370	ltpFR2	0	17	BACON	67	n/a	n/a	0	0	0
3800576	REC_WORD	wordpools/wasnorm_wordpool_576.txt	LTP370	ltpFR2	0	17	GREASE	660	n/a	n/a	0	0	0
3801169	REC_WORD	wordpools/wasnorm_wordpool_576.txt	LTP370	ltpFR2	0	17	SNACK	1331	n/a	n/a	0	0	0
3802237	REC_WORD	wordpools/wasnorm_wordpool_576.txt	LTP370	ltpFR2	0	17	TREAT	1501	n/a	n/a	0	0	0
3803253	REC_WORD	wordpools/wasnorm_wordpool_576.txt	LTP370	ltpFR2	0	17	SHOVEL	1295	n/a	n/a	0	0	0
3804219	REC_WORD	wordpools/wasnorm_wordpool_576.txt	LTP370	ltpFR2	0	17	HOOK	715	n/a	n/a	0	0	0
3805194	REC_WORD	wordpools/wasnorm_wordpool_576.txt	LTP370	ltpFR2	0	17	WAITER	1580	n/a	n/a	0	0	0
3806050	REC_WORD	wordpools/wasnorm_wordpool_576.txt	LTP370	ltpFR2	0	17	WAITRESS	1581	n/a	n/a	0	0	0
3807353	REC_WORD	wordpools/wasnorm_wordpool_576.txt	LTP370	ltpFR2	0	17	ROBBER	1197	n/a	n/a	0	0	0
3808347	REC_WORD	wordpools/wasnorm_wordpool_576.txt	LTP370	ltpFR2	0	17	VICTIM	1562	n/a	n/a	0	0	0
3809859	REC_WORD	wordpools/wasnorm_wordpool_576.txt	LTP370	ltpFR2	0	17	GLOBE	641	n/a	n/a	0	0	0
3810661	REC_WORD	wordpools/wasnorm_wordpool_576.txt	LTP370	ltpFR2	0	17	WORLD	1622	n/a	n/a	0	0	0
3811520	REC_WORD	wordpools/wasnorm_wordpool_576.txt	LTP370	ltpFR2	0	17	COSTUME	383	n/a	n/a	0	0	0
3813187	REC_WORD	wordpools/wasnorm_wordpool_576.txt	LTP370	ltpFR2	0	17	CARRIAGE	248	n/a	n/a	0	0	0
3889137	DISTRACTOR	n/a	LTP370	ltpFR2	0	18	n/a	n/a	n/a	n/a	0	0	0
3889137	START	n/a	LTP370	ltpFR2	0	n/a	n/a	n/a	26	n/a	n/a	n/a	n/a
3889154	PROB	n/a	LTP370	ltpFR2	0	n/a	n/a	n/a	26	12	3	8	1
3891286	PROB	n/a	LTP370	ltpFR2	0	n/a	n/a	n/a	26	11	7	2	2
3893502	PROB	n/a	LTP370	ltpFR2	0	n/a	n/a	n/a	26	12	8	1	3
3897000	PROB	n/a	LTP370	ltpFR2	0	n/a	n/a	n/a	26	24	9	8	7
3900515	PROB	n/a	LTP370	ltpFR2	0	n/a	n/a	n/a	26	9	3	4	2
3902264	PROB	n/a	LTP370	ltpFR2	0	n/a	n/a	n/a	26	13	8	4	1
3904297	PROB	n/a	LTP370	ltpFR2	0	n/a	n/a	n/a	26	23	9	9	5
3907229	PROB	n/a	LTP370	ltpFR2	0	n/a	n/a	n/a	26	13	3	5	3
3913136	STOP	n/a	LTP370	ltpFR2	0	n/a	n/a	n/a	26	n/a	n/a	n/a	n/a
3914092	WORD	wordpools/wasnorm_wordpool_576.txt	LTP370	ltpFR2	0	18	MILK	895	n/a	n/a	0	0	0
3916908	WORD	wordpools/wasnorm_wordpool_576.txt	LTP370	ltpFR2	0	18	WHISTLE	1606	n/a	n/a	0	0	0
3919373	WORD	wordpools/wasnorm_wordpool_576.txt	LTP370	ltpFR2	0	18	LIVER	833	n/a	n/a	0	0	0
3921939	WORD	wordpools/wasnorm_wordpool_576.txt	LTP370	ltpFR2	0	18	DRESSER	496	n/a	n/a	0	0	0
3924688	WORD	wordpools/wasnorm_wordpool_576.txt	LTP370	ltpFR2	0	18	CRAYON	401	n/a	n/a	0	0	0
3927420	WORD	wordpools/wasnorm_wordpool_576.txt	LTP370	ltpFR2	0	18	PIGMENT	1066	n/a	n/a	0	0	0
3929935	WORD	wordpools/wasnorm_wordpool_576.txt	LTP370	ltpFR2	0	18	AIRPORT	13	n/a	n/a	0	0	0
3932651	WORD	wordpools/wasnorm_wordpool_576.txt	LTP370	ltpFR2	0	18	SUITCASE	1403	n/a	n/a	0	0	0
3935333	WORD	wordpools/wasnorm_wordpool_576.txt	LTP370	ltpFR2	0	18	SUMMIT	1405	n/a	n/a	0	0	0
3937981	WORD	wordpools/wasnorm_wordpool_576.txt	LTP370	ltpFR2	0	18	CROSS	413	n/a	n/a	0	0	0
3940480	WORD	wordpools/wasnorm_wordpool_576.txt	LTP370	ltpFR2	0	18	GARLIC	624	n/a	n/a	0	0	0
3943029	WORD	wordpools/wasnorm_wordpool_576.txt	LTP370	ltpFR2	0	18	HEART	697	n/a	n/a	0	0	0
3945595	WORD	wordpools/wasnorm_wordpool_576.txt	LTP370	ltpFR2	0	18	WIDOW	1608	n/a	n/a	0	0	0
3948310	WORD	wordpools/wasnorm_wordpool_576.txt	LTP370	ltpFR2	0	18	TEMPLE	1448	n/a	n/a	0	0	0
3951026	WORD	wordpools/wasnorm_wordpool_576.txt	LTP370	ltpFR2	0	18	LAPEL	800	n/a	n/a	0	0	0
3953474	WORD	wordpools/wasnorm_wordpool_576.txt	LTP370	ltpFR2	0	18	TUBA	1515	n/a	n/a	0	0	0
3956023	WORD	wordpools/wasnorm_wordpool_576.txt	LTP370	ltpFR2	0	18	TRANSPLANT	1496	n/a	n/a	0	0	0
3958755	WORD	wordpools/wasnorm_wordpool_576.txt	LTP370	ltpFR2	0	18	SIBLING	1301	n/a	n/a	0	0	0
3961438	WORD	wordpools/wasnorm_wordpool_576.txt	LTP370	ltpFR2	0	18	BASEMENT	94	n/a	n/a	0	0	0
3964020	WORD	wordpools/wasnorm_wordpool_576.txt	LTP370	ltpFR2	0	18	FRIAR	605	n/a	n/a	0	0	0
3966785	WORD	wordpools/wasnorm_wordpool_576.txt	LTP370	ltpFR2	0	18	LIZARD	834	n/a	n/a	0	0	0
3969551	WORD	wordpools/wasnorm_wordpool_576.txt	LTP370	ltpFR2	0	18	POISON	1096	n/a	n/a	0	0	0
3972333	WORD	wordpools/wasnorm_wordpool_576.txt	LTP370	ltpFR2	0	18	STATUE	1374	n/a	n/a	0	0	0
3975031	WORD	wordpools/wasnorm_wordpool_576.txt	LTP370	ltpFR2	0	18	TWEEZERS	1526	n/a	n/a	0	0	0
3976648	START	n/a	LTP370	ltpFR2	0	n/a	n/a	n/a	27	n/a	n/a	n/a	n/a
3977603	DISTRACTOR	n/a	LTP370	ltpFR2	0	18	n/a	n/a	n/a	n/a	0	0	0
3977614	PROB	n/a	LTP370	ltpFR2	0	n/a	n/a	n/a	27	18	4	7	7
3979746	PROB	n/a	LTP370	ltpFR2	0	n/a	n/a	n/a	27	12	4	1	7
3983711	PROB	n/a	LTP370	ltpFR2	0	n/a	n/a	n/a	27	25	8	8	9
3986826	PROB	n/a	LTP370	ltpFR2	0	n/a	n/a	n/a	27	14	2	7	5
3989658	PROB	n/a	LTP370	ltpFR2	0	n/a	n/a	n/a	27	18	8	1	9
3992057	PROB	n/a	LTP370	ltpFR2	0	n/a	n/a	n/a	27	9	2	6	1
3994039	PROB	n/a	LTP370	ltpFR2	0	n/a	n/a	n/a	27	5	3	1	1
4000648	STOP	n/a	LTP370	ltpFR2	0	n/a	n/a	n/a	27	n/a	n/a	n/a	n/a
4002486	REC_START	n/a	LTP370	ltpFR2	0	18	n/a	n/a	n/a	n/a	0	0	0
4003393	REC_WORD	wordpools/wasnorm_wordpool_576.txt	LTP370	ltpFR2	0	18	MILK	895	n/a	n/a	0	0	0
4004063	REC_WORD	wordpools/wasnorm_wordpool_576.txt	LTP370	ltpFR2	0	18	WHISTLE	1606	n/a	n/a	0	0	0
4005156	REC_WORD	wordpools/wasnorm_wordpool_576.txt	LTP370	ltpFR2	0	18	GARLIC	624	n/a	n/a	0	0	0
4006151	REC_WORD	wordpools/wasnorm_wordpool_576.txt	LTP370	ltpFR2	0	18	LIVER	833	n/a	n/a	0	0	0
4006781	REC_WORD	wordpools/wasnorm_wordpool_576.txt	LTP370	ltpFR2	0	18	HEART	697	n/a	n/a	0	0	0
4007548	REC_WORD	wordpools/wasnorm_wordpool_576.txt	LTP370	ltpFR2	0	18	TRANSPLANT	1496	n/a	n/a	0	0	0
4010181	REC_WORD	wordpools/wasnorm_wordpool_576.txt	LTP370	ltpFR2	0	18	AIRPLANE	12	n/a	n/a	0	0	0
4010954	REC_WORD	wordpools/wasnorm_wordpool_576.txt	LTP370	ltpFR2	0	18	SUMMIT	1405	n/a	n/a	0	0	0
4011949	REC_WORD	wordpools/wasnorm_wordpool_576.txt	LTP370	ltpFR2	0	18	CROSS	413	n/a	n/a	0	0	0
4013809	REC_WORD	wordpools/wasnorm_wordpool_576.txt	LTP370	ltpFR2	0	18	TWEEZERS	1526	n/a	n/a	0	0	0
4014646	REC_WORD	wordpools/wasnorm_wordpool_576.txt	LTP370	ltpFR2	0	18	LAPEL	800	n/a	n/a	0	0	0
4015841	REC_WORD	wordpools/wasnorm_wordpool_576.txt	LTP370	ltpFR2	0	18	LIZARD	834	n/a	n/a	0	0	0
4016922	REC_WORD	wordpools/wasnorm_wordpool_576.txt	LTP370	ltpFR2	0	18	FRIAR	605	n/a	n/a	0	0	0
4018182	REC_WORD	wordpools/wasnorm_wordpool_576.txt	LTP370	ltpFR2	0	18	POISON	1096	n/a	n/a	0	0	0
4092945	WORD	wordpools/wasnorm_wordpool_576.txt	LTP370	ltpFR2	0	19	LAKE	796	n/a	n/a	0	0	0
4095394	WORD	wordpools/wasnorm_wordpool_576.txt	LTP370	ltpFR2	0	19	PUPIL	1143	n/a	n/a	0	0	0
4097992	WORD	wordpools/wasnorm_wordpool_576.txt	LTP370	ltpFR2	0	19	SUPPER	1411	n/a	n/a	0	0	0
4100524	WORD	wordpools/wasnorm_wordpool_576.txt	LTP370	ltpFR2	0	19	COLLEGE	346	n/a	n/a	0	0	0
4103090	WORD	wordpools/wasnorm_wordpool_576.txt	LTP370	ltpFR2	0	19	PLAYGROUND	1087	n/a	n/a	0	0	0
4105689	WORD	wordpools/wasnorm_wordpool_576.txt	LTP370	ltpFR2	0	19	WASP	1593	n/a	n/a	0	0	0
4108488	WORD	wordpools/wasnorm_wordpool_576.txt	LTP370	ltpFR2	0	19	CLAM	315	n/a	n/a	0	0	0
4111020	WORD	wordpools/wasnorm_wordpool_576.txt	LTP370	ltpFR2	0	19	SCALLOP	1242	n/a	n/a	0	0	0
4113552	WORD	wordpools/wasnorm_wordpool_576.txt	LTP370	ltpFR2	0	19	TUNNEL	1519	n/a	n/a	0	0	0
4116034	WORD	wordpools/wasnorm_wordpool_576.txt	LTP370	ltpFR2	0	19	GRAVE	658	n/a	n/a	0	0	0
4118533	WORD	wordpools/wasnorm_wordpool_576.txt	LTP370	ltpFR2	0	19	OINTMENT	974	n/a	n/a	0	0	0
4121182	WORD	wordpools/wasnorm_wordpool_576.txt	LTP370	ltpFR2	0	19	KLEENEX	782	n/a	n/a	0	0	0
4123781	WORD	wordpools/wasnorm_wordpool_576.txt	LTP370	ltpFR2	0	19	EAGLE	512	n/a	n/a	0	0	0
4126446	WORD	wordpools/wasnorm_wordpool_576.txt	LTP370	ltpFR2	0	19	VELVET	1555	n/a	n/a	0	0	0
4129145	WORD	wordpools/wasnorm_wordpool_576.txt	LTP370	ltpFR2	0	19	GOBLIN	645	n/a	n/a	0	0	0
4131877	WORD	wordpools/wasnorm_wordpool_576.txt	LTP370	ltpFR2	0	19	SMOG	1330	n/a	n/a	0	0	0
4134376	WORD	wordpools/wasnorm_wordpool_576.txt	LTP370	ltpFR2	0	19	COOKBOOK	373	n/a	n/a	0	0	0
4136841	WORD	wordpools/wasnorm_wordpool_576.txt	LTP370	ltpFR2	0	19	SANDWICH	1232	n/a	n/a	0	0	0
4139640	WORD	wordpools/wasnorm_wordpool_576.txt	LTP370	ltpFR2	0	19	CANYON	235	n/a	n/a	0	0	0
4142305	WORD	wordpools/wasnorm_wordpool_576.txt	LTP370	ltpFR2	0	19	COTTAGE	384	n/a	n/a	0	0	0
4145121	WORD	wordpools/wasnorm_wordpool_576.txt	LTP370	ltpFR2	0	19	PADDING	999	n/a	n/a	0	0	0
4147670	WORD	wordpools/wasnorm_wordpool_576.txt	LTP370	ltpFR2	0	19	FRANCE	601	n/a	n/a	0	0	0
4150252	WORD	wordpools/wasnorm_wordpool_576.txt	LTP370	ltpFR2	0	19	KITCHEN	778	n/a	n/a	0	0	0
4152867	WORD	wordpools/wasnorm_wordpool_576.txt	LTP370	ltpFR2	0	19	PILOT	1070	n/a	n/a	0	0	0
4154483	START	n/a	LTP370	ltpFR2	0	n/a	n/a	n/a	28	n/a	n/a	n/a	n/a
4155557	DISTRACTOR	n/a	LTP370	ltpFR2	0	19	n/a	n/a	n/a	n/a	0	0	0
4155566	PROB	n/a	LTP370	ltpFR2	0	n/a	n/a	n/a	28	16	6	3	7
4158032	PROB	n/a	LTP370	ltpFR2	0	n/a	n/a	n/a	28	26	9	9	8
4162013	PROB	n/a	LTP370	ltpFR2	0	n/a	n/a	n/a	28	16	7	2	7
4164046	PROB	n/a	LTP370	ltpFR2	0	n/a	n/a	n/a	28	16	4	6	4
4165612	PROB	n/a	LTP370	ltpFR2	0	n/a	n/a	n/a	28	12	6	3	3
4169477	PROB	n/a	LTP370	ltpFR2	0	n/a	n/a	n/a	28	11	7	1	3
4171309	PROB	n/a	LTP370	ltpFR2	0	n/a	n/a	n/a	28	15	6	8	1
4173125	PROB	n/a	LTP370	ltpFR2	0	n/a	n/a	n/a	28	10	2	2	6
4175374	PROB	n/a	LTP370	ltpFR2	0	n/a	n/a	n/a	28	15	6	7	2
4176981	STOP	n/a	LTP370	ltpFR2	0	n/a	n/a	n/a	28	n/a	n/a	n/a	n/a
4180305	REC_START	n/a	LTP370	ltpFR2	0	19	n/a	n/a	n/a	n/a	0	0	0
4180971	REC_WORD	wordpools/wasnorm_wordpool_576.txt	LTP370	ltpFR2	0	19	LAKE	796	n/a	n/a	0	0	0
4181756	REC_WORD	wordpools/wasnorm_wordpool_576.txt	LTP370	ltpFR2	0	19	SUPPER	1411	n/a	n/a	0	0	0
4182863	REC_WORD	wordpools/wasnorm_wordpool_576.txt	LTP370	ltpFR2	0	19	SANDWICH	1232	n/a	n/a	0	0	0
4184121	REC_WORD	wordpools/wasnorm_wordpool_576.txt	LTP370	ltpFR2	0	19	COOKBOOK	373	n/a	n/a	0	0	0
4185202	REC_WORD	wordpools/wasnorm_wordpool_576.txt	LTP370	ltpFR2	0	19	SMOG	1330	n/a	n/a	0	0	0
4187196	REC_WORD	wordpools/wasnorm_wordpool_576.txt	LTP370	ltpFR2	0	19	PUPIL	1143	n/a	n/a	0	0	0
4188702	REC_WORD	wordpools/wasnorm_wordpool_576.txt	LTP370	ltpFR2	0	19	COLLEGE	346	n/a	n/a	0	0	0
4193086	REC_WORD	wordpools/wasnorm_wordpool_576.txt	LTP370	ltpFR2	0	19	PADDING	999	n/a	n/a	0	0	0
4198165	REC_WORD	wordpools/wasnorm_wordpool_576.txt	LTP370	ltpFR2	0	19	CRAYON	401	n/a	n/a	0	0	0
4199079	REC_WORD	wordpools/wasnorm_wordpool_576.txt	LTP370	ltpFR2	0	19	PIGMENT	1066	n/a	n/a	0	0	0
4318309	DISTRACTOR	n/a	LTP370	ltpFR2	0	20	n/a	n/a	n/a	n/a	0	0	0
4318309	START	n/a	LTP370	ltpFR2	0	n/a	n/a	n/a	29	n/a	n/a	n/a	n/a
4318326	PROB	n/a	LTP370	ltpFR2	0	n/a	n/a	n/a	29	11	3	5	3
4320791	PROB	n/a	LTP370	ltpFR2	0	n/a	n/a	n/a	29	15	3	8	4
4323274	PROB	n/a	LTP370	ltpFR2	0	n/a	n/a	n/a	29	14	9	4	1
4325606	PROB	n/a	LTP370	ltpFR2	0	n/a	n/a	n/a	29	11	1	9	1
4327138	PROB	n/a	LTP370	ltpFR2	0	n/a	n/a	n/a	29	19	3	9	7
4329554	PROB	n/a	LTP370	ltpFR2	0	n/a	n/a	n/a	29	12	6	3	3
4331503	PROB	n/a	LTP370	ltpFR2	0	n/a	n/a	n/a	29	13	5	5	3
4332969	PROB	n/a	LTP370	ltpFR2	0	n/a	n/a	n/a	29	17	7	2	8
4334852	PROB	n/a	LTP370	ltpFR2	0	n/a	n/a	n/a	29	18	8	6	4
4336484	PROB	n/a	LTP370	ltpFR2	0	n/a	n/a	n/a	29	13	4	7	2
4338367	PROB	n/a	LTP370	ltpFR2	0	n/a	n/a	n/a	29	16	8	3	5
4342309	STOP	n/a	LTP370	ltpFR2	0	n/a	n/a	n/a	29	n/a	n/a	n/a	n/a
4343298	WORD	wordpools/wasnorm_wordpool_576.txt	LTP370	ltpFR2	0	20	LOVER	846	n/a	n/a	0	0	0
4346013	WORD	wordpools/wasnorm_wordpool_576.txt	LTP370	ltpFR2	0	20	ELBOW	520	n/a	n/a	0	0	0
4348662	WORD	wordpools/wasnorm_wordpool_576.txt	LTP370	ltpFR2	0	20	PAPER	1011	n/a	n/a	0	0	0
4351394	WORD	wordpools/wasnorm_wordpool_576.txt	LTP370	ltpFR2	0	20	GARBAGE	622	n/a	n/a	0	0	0
4354159	WORD	wordpools/wasnorm_wordpool_576.txt	LTP370	ltpFR2	0	20	GAVEL	627	n/a	n/a	0	0	0
4356792	WORD	wordpools/wasnorm_wordpool_576.txt	LTP370	ltpFR2	0	20	PRINCE	1124	n/a	n/a	0	0	0
4359241	WORD	wordpools/wasnorm_wordpool_576.txt	LTP370	ltpFR2	0	20	MARROW	872	n/a	n/a	0	0	0
4361906	WORD	wordpools/wasnorm_wordpool_576.txt	LTP370	ltpFR2	0	20	PARTNER	1017	n/a	n/a	0	0	0
4364571	WORD	wordpools/wasnorm_wordpool_576.txt	LTP370	ltpFR2	0	20	FRIEND	606	n/a	n/a	0	0	0
4367104	WORD	wordpools/wasnorm_wordpool_576.txt	LTP370	ltpFR2	0	20	BACKBONE	66	n/a	n/a	0	0	0
4369769	WORD	wordpools/wasnorm_wordpool_576.txt	LTP370	ltpFR2	0	20	OUTDOORS	987	n/a	n/a	0	0	0
4372584	WORD	wordpools/wasnorm_wordpool_576.txt	LTP370	ltpFR2	0	20	RABBIT	1152	n/a	n/a	0	0	0
4375267	WORD	wordpools/wasnorm_wordpool_576.txt	LTP370	ltpFR2	0	20	FOX	598	n/a	n/a	0	0	0
4377965	WORD	wordpools/wasnorm_wordpool_576.txt	LTP370	ltpFR2	0	20	NOVEL	960	n/a	n/a	0	0	0
4380547	WORD	wordpools/wasnorm_wordpool_576.txt	LTP370	ltpFR2	0	20	SWORD	1423	n/a	n/a	0	0	0
4383196	WORD	wordpools/wasnorm_wordpool_576.txt	LTP370	ltpFR2	0	20	GRIZZLY	662	n/a	n/a	0	0	0
4385928	WORD	wordpools/wasnorm_wordpool_576.txt	LTP370	ltpFR2	0	20	PANTHER	1009	n/a	n/a	0	0	0
4388461	WORD	wordpools/wasnorm_wordpool_576.txt	LTP370	ltpFR2	0	20	BEAST	108	n/a	n/a	0	0	0
4391159	WORD	wordpools/wasnorm_wordpool_576.txt	LTP370	ltpFR2	0	20	CAMEL	223	n/a	n/a	0	0	0
4393675	WORD	wordpools/wasnorm_wordpool_576.txt	LTP370	ltpFR2	0	20	PERMIT	1051	n/a	n/a	0	0	0
4396157	WORD	wordpools/wasnorm_wordpool_576.txt	LTP370	ltpFR2	0	20	CASHIER	254	n/a	n/a	0	0	0
4398739	WORD	wordpools/wasnorm_wordpool_576.txt	LTP370	ltpFR2	0	20	PLIERS	1089	n/a	n/a	0	0	0
4401438	WORD	wordpools/wasnorm_wordpool_576.txt	LTP370	ltpFR2	0	20	CIGAR	308	n/a	n/a	0	0	0
4403987	WORD	wordpools/wasnorm_wordpool_576.txt	LTP370	ltpFR2	0	20	PATROL	1027	n/a	n/a	0	0	0
4405603	START	n/a	LTP370	ltpFR2	0	n/a	n/a	n/a	30	n/a	n/a	n/a	n/a
4406727	DISTRACTOR	n/a	LTP370	ltpFR2	0	20	n/a	n/a	n/a	n/a	0	0	0
4406736	PROB	n/a	LTP370	ltpFR2	0	n/a	n/a	n/a	30	17	4	5	8
4409768	PROB	n/a	LTP370	ltpFR2	0	n/a	n/a	n/a	30	14	6	4	6
4411384	PROB	n/a	LTP370	ltpFR2	0	n/a	n/a	n/a	30	18	5	7	6
4414982	PROB	n/a	LTP370	ltpFR2	0	n/a	n/a	n/a	30	11	6	2	3
4417064	PROB	n/a	LTP370	ltpFR2	0	n/a	n/a	n/a	30	23	9	7	7
4420563	PROB	n/a	LTP370	ltpFR2	0	n/a	n/a	n/a	30	10	1	4	5
4422412	PROB	n/a	LTP370	ltpFR2	0	n/a	n/a	n/a	30	20	7	6	7
4424244	PROB	n/a	LTP370	ltpFR2	0	n/a	n/a	n/a	30	12	6	3	3
4429597	STOP	n/a	LTP370	ltpFR2	0	n/a	n/a	n/a	30	n/a	n/a	n/a	n/a
4431425	REC_START	n/a	LTP370	ltpFR2	0	20	n/a	n/a	n/a	n/a	0	0	0
4432235	REC_WORD	wordpools/wasnorm_wordpool_576.txt	LTP370	ltpFR2	0	20	LOVER	846	n/a	n/a	0	0	0
4433085	REC_WORD	wordpools/wasnorm_wordpool_576.txt	LTP370	ltpFR2	0	20	PARTNER	1017	n/a	n/a	0	0	0
4433908	REC_WORD	wordpools/wasnorm_wordpool_576.txt	LTP370	ltpFR2	0	20	FRIEND	606	n/a	n/a	0	0	0
4435447	REC_WORD	wordpools/wasnorm_wordpool_576.txt	LTP370	ltpFR2	0	20	OUTDOORS	987	n/a	n/a	0	0	0
4436761	REC_WORD	wordpools/wasnorm_wordpool_576.txt	LTP370	ltpFR2	0	20	RABBIT	1152	n/a	n/a	0	0	0
4437532	REC_WORD	wordpools/wasnorm_wordpool_576.txt	LTP370	ltpFR2	0	20	FOX	598	n/a	n/a	0	0	0
4439058	REC_WORD	wordpools/wasnorm_wordpool_576.txt	LTP370	ltpFR2	0	20	PANTHER	1009	n/a	n/a	0	0	0
4440097	REC_WORD	wordpools/wasnorm_wordpool_576.txt	LTP370	ltpFR2	0	20	GRIZZLY	662	n/a	n/a	0	0	0
4441290	REC_WORD	wordpools/wasnorm_wordpool_576.txt	LTP370	ltpFR2	0	20	BEAST	108	n/a	n/a	0	0	0
4442549	REC_WORD	wordpools/wasnorm_wordpool_576.txt	LTP370	ltpFR2	0	20	GAVEL	627	n/a	n/a	0	0	0
4443432	REC_WORD	wordpools/wasnorm_wordpool_576.txt	LTP370	ltpFR2	0	20	NOVEL	960	n/a	n/a	0	0	0
4444645	REC_WORD	wordpools/wasnorm_wordpool_576.txt	LTP370	ltpFR2	0	20	PLIERS	1089	n/a	n/a	0	0	0
4446202	REC_WORD	wordpools/wasnorm_wordpool_576.txt	LTP370	ltpFR2	0	20	CASHIER	254	n/a	n/a	0	0	0
4462034	REC_WORD	wordpools/wasnorm_wordpool_576.txt	LTP370	ltpFR2	0	20	CAMEL	223	n/a	n/a	0	0	0
4536144	DISTRACTOR	n/a	LTP370	ltpFR2	0	21	n/a	n/a	n/a	n/a	0	0	0
4536144	START	n/a	LTP370	ltpFR2	0	n/a	n/a	n/a	31	n/a	n/a	n/a	n/a
4536160	PROB	n/a	LTP370	ltpFR2	0	n/a	n/a	n/a	31	16	7	1	8
4538776	PROB	n/a	LTP370	ltpFR2	0	n/a	n/a	n/a	31	13	8	3	2
4542008	PROB	n/a	LTP370	ltpFR2	0	n/a	n/a	n/a	31	20	9	2	9
4544073	PROB	n/a	LTP370	ltpFR2	0	n/a	n/a	n/a	31	18	6	4	8
4546456	PROB	n/a	LTP370	ltpFR2	0	n/a	n/a	n/a	31	8	3	3	2
4549421	PROB	n/a	LTP370	ltpFR2	0	n/a	n/a	n/a	31	12	8	1	3
4551154	PROB	n/a	LTP370	ltpFR2	0	n/a	n/a	n/a	31	19	7	9	3
4553470	PROB	n/a	LTP370	ltpFR2	0	n/a	n/a	n/a	31	18	4	5	9
4555268	PROB	n/a	LTP370	ltpFR2	0	n/a	n/a	n/a	31	23	9	9	4
4557117	PROB	n/a	LTP370	ltpFR2	0	n/a	n/a	n/a	31	12	7	2	3
4560040	STOP	n/a	LTP370	ltpFR2	0	n/a	n/a	n/a	31	n/a	n/a	n/a	n/a
4561266	WORD	wordpools/wasnorm_wordpool_576.txt	LTP370	ltpFR2	0	21	PORK	1108	n/a	n/a	0	0	0
4563714	WORD	wordpools/wasnorm_wordpool_576.txt	LTP370	ltpFR2	0	21	SEAL	1262	n/a	n/a	0	0	0
4566430	WORD	wordpools/wasnorm_wordpool_576.txt	LTP370	ltpFR2	0	21	PASTA	1021	n/a	n/a	0	0	0
4568995	WORD	wordpools/wasnorm_wordpool_576.txt	LTP370	ltpFR2	0	21	CRICKET	408	n/a	n/a	0	0	0
4571644	WORD	wordpools/wasnorm_wordpool_576.txt	LTP370	ltpFR2	0	21	LEOPARD	812	n/a	n/a	0	0	0
4574110	WORD	wordpools/wasnorm_wordpool_576.txt	LTP370	ltpFR2	0	21	GALLON	618	n/a	n/a	0	0	0
4576908	WORD	wordpools/wasnorm_wordpool_576.txt	LTP370	ltpFR2	0	21	FLEET	578	n/a	n/a	0	0	0
4579724	WORD	wordpools/wasnorm_wordpool_576.txt	LTP370	ltpFR2	0	21	ARMY	39	n/a	n/a	0	0	0
4582373	WORD	wordpools/wasnorm_wordpool_576.txt	LTP370	ltpFR2	0	21	PEBBLE	1035	n/a	n/a	0	0	0
4585155	WORD	wordpools/wasnorm_wordpool_576.txt	LTP370	ltpFR2	0	21	QUEEN	1149	n/a	n/a	0	0	0
4587887	WORD	wordpools/wasnorm_wordpool_576.txt	LTP370	ltpFR2	0	21	PRINCESS	1125	n/a	n/a	0	0	0
4590502	WORD	wordpools/wasnorm_wordpool_576.txt	LTP370	ltpFR2	0	21	SHIRT	1287	n/a	n/a	0	0	0
4592934	WORD	wordpools/wasnorm_wordpool_576.txt	LTP370	ltpFR2	0	21	ICEBERG	731	n/a	n/a	0	0	0
4595500	WORD	wordpools/wasnorm_wordpool_576.txt	LTP370	ltpFR2	0	21	HORSE	719	n/a	n/a	0	0	0
4598132	WORD	wordpools/wasnorm_wordpool_576.txt	LTP370	ltpFR2	0	21	CREVICE	405	n/a	n/a	0	0	0
4600848	WORD	wordpools/wasnorm_wordpool_576.txt	LTP370	ltpFR2	0	21	SWIMMER	1420	n/a	n/a	0	0	0
4603530	WORD	wordpools/wasnorm_wordpool_576.txt	LTP370	ltpFR2	0	21	PADDLE	1000	n/a	n/a	0	0	0
4606245	WORD	wordpools/wasnorm_wordpool_576.txt	LTP370	ltpFR2	0	21	ORCHID	982	n/a	n/a	0	0	0
4608944	WORD	wordpools/wasnorm_wordpool_576.txt	LTP370	ltpFR2	0	21	SPIDER	1351	n/a	n/a	0	0	0
4611643	WORD	wordpools/wasnorm_wordpool_576.txt	LTP370	ltpFR2	0	21	MILDEW	893	n/a	n/a	0	0	0
4614208	WORD	wordpools/wasnorm_wordpool_576.txt	LTP370	ltpFR2	0	21	WAGON	1578	n/a	n/a	0	0	0
4616640	WORD	wordpools/wasnorm_wordpool_576.txt	LTP370	ltpFR2	0	21	BUCKET	184	n/a	n/a	0	0	0
4619273	WORD	wordpools/wasnorm_wordpool_576.txt	LTP370	ltpFR2	0	21	LION	827	n/a	n/a	0	0	0
4621821	WORD	wordpools/wasnorm_wordpool_576.txt	LTP370	ltpFR2	0	21	CABBAGE	210	n/a	n/a	0	0	0
4623437	START	n/a	LTP370	ltpFR2	0	n/a	n/a	n/a	32	n/a	n/a	n/a	n/a
4624329	DISTRACTOR	n/a	LTP370	ltpFR2	0	21	n/a	n/a	n/a	n/a	0	0	0
4624337	PROB	n/a	LTP370	ltpFR2	0	n/a	n/a	n/a	32	15	3	6	7
4628169	PROB	n/a	LTP370	ltpFR2	0	n/a	n/a	n/a	32	13	4	3	5
4631400	PROB	n/a	LTP370	ltpFR2	0	n/a	n/a	n/a	32	16	3	4	9
4634249	PROB	n/a	LTP370	ltpFR2	0	n/a	n/a	n/a	32	15	9	5	1
4636998	PROB	n/a	LTP370	ltpFR2	0	n/a	n/a	n/a	32	20	8	9	3
4639747	PROB	n/a	LTP370	ltpFR2	0	n/a	n/a	n/a	32	23	9	5	9
4641979	PROB	n/a	LTP370	ltpFR2	0	n/a	n/a	n/a	32	15	3	5	7
4643778	PROB	n/a	LTP370	ltpFR2	0	n/a	n/a	n/a	32	21	9	9	3
4645311	PROB	n/a	LTP370	ltpFR2	0	n/a	n/a	n/a	32	14	7	2	5
4647355	STOP	n/a	LTP370	ltpFR2	0	n/a	n/a	n/a	32	n/a	n/a	n/a	n/a
4649193	REC_START	n/a	LTP370	ltpFR2	0	21	n/a	n/a	n/a	n/a	0	0	0
4650353	REC_WORD	wordpools/wasnorm_wordpool_576.txt	LTP370	ltpFR2	0	21	PORK	1108	n/a	n/a	0	0	0
4651173	REC_WORD	wordpools/wasnorm_wordpool_576.txt	LTP370	ltpFR2	0	21	PASTA	1021	n/a	n/a	0	0	0
4652133	REC_WORD	wordpools/wasnorm_wordpool_576.txt	LTP370	ltpFR2	0	21	SEAL	1262	n/a	n/a	0	0	0
4653411	REC_WORD	wordpools/wasnorm_wordpool_576.txt	LTP370	ltpFR2	0	21	CRICKET	408	n/a	n/a	0	0	0
4654904	REC_WORD	wordpools/wasnorm_wordpool_576.txt	LTP370	ltpFR2	0	21	LION	827	n/a	n/a	0	0	0
4655998	REC_WORD	wordpools/wasnorm_wordpool_576.txt	LTP370	ltpFR2	0	21	CREVICE	405	n/a	n/a	0	0	0
4657023	REC_WORD	wordpools/wasnorm_wordpool_576.txt	LTP370	ltpFR2	0	21	SWIMMER	1420	n/a	n/a	0	0	0
4666565	REC_WORD	wordpools/wasnorm_wordpool_576.txt	LTP370	ltpFR2	0	21	GALLON	618	n/a	n/a	0	0	0
4667717	REC_WORD	wordpools/wasnorm_wordpool_576.txt	LTP370	ltpFR2	0	21	FLEET	578	n/a	n/a	0	0	0
4671518	REC_WORD	wordpools/wasnorm_wordpool_576.txt	LTP370	ltpFR2	0	21	PADDLE	1000	n/a	n/a	0	0	0
4755561	DISTRACTOR	n/a	LTP370	ltpFR2	0	22	n/a	n/a	n/a	n/a	0	0	0
4755561	START	n/a	LTP370	ltpFR2	0	n/a	n/a	n/a	33	n/a	n/a	n/a	n/a
4755577	PROB	n/a	LTP370	ltpFR2	0	n/a	n/a	n/a	33	15	4	6	5
4757810	PROB	n/a	LTP370	ltpFR2	0	n/a	n/a	n/a	33	7	2	2	3
4759875	PROB	n/a	LTP370	ltpFR2	0	n/a	n/a	n/a	33	8	2	1	5
4761891	PROB	n/a	LTP370	ltpFR2	0	n/a	n/a	n/a	33	13	3	7	3
4763857	PROB	n/a	LTP370	ltpFR2	0	n/a	n/a	n/a	33	10	2	1	7
4765789	PROB	n/a	LTP370	ltpFR2	0	n/a	n/a	n/a	33	21	7	9	5
4769288	PROB	n/a	LTP370	ltpFR2	0	n/a	n/a	n/a	33	12	7	3	2
4770737	PROB	n/a	LTP370	ltpFR2	0	n/a	n/a	n/a	33	13	1	4	8
4772653	PROB	n/a	LTP370	ltpFR2	0	n/a	n/a	n/a	33	6	1	2	3
4774385	PROB	n/a	LTP370	ltpFR2	0	n/a	n/a	n/a	33	13	3	4	6
4779561	STOP	n/a	LTP370	ltpFR2	0	n/a	n/a	n/a	33	n/a	n/a	n/a	n/a
4780699	WORD	wordpools/wasnorm_wordpool_576.txt	LTP370	ltpFR2	0	22	PIANO	1057	n/a	n/a	0	0	0
4783215	WORD	wordpools/wasnorm_wordpool_576.txt	LTP370	ltpFR2	0	22	TRIBE	1505	n/a	n/a	0	0	0
4785797	WORD	wordpools/wasnorm_wordpool_576.txt	LTP370	ltpFR2	0	22	DRAWING	494	n/a	n/a	0	0	0
4788529	WORD	wordpools/wasnorm_wordpool_576.txt	LTP370	ltpFR2	0	22	POSTAGE	1113	n/a	n/a	0	0	0
4790995	WORD	wordpools/wasnorm_wordpool_576.txt	LTP370	ltpFR2	0	22	NOTEBOOK	959	n/a	n/a	0	0	0
4793527	WORD	wordpools/wasnorm_wordpool_576.txt	LTP370	ltpFR2	0	22	PORTRAIT	1111	n/a	n/a	0	0	0
4796309	WORD	wordpools/wasnorm_wordpool_576.txt	LTP370	ltpFR2	0	22	SLUG	1329	n/a	n/a	0	0	0
4798741	WORD	wordpools/wasnorm_wordpool_576.txt	LTP370	ltpFR2	0	22	NOMAD	955	n/a	n/a	0	0	0
4801390	WORD	wordpools/wasnorm_wordpool_576.txt	LTP370	ltpFR2	0	22	MUSTARD	935	n/a	n/a	0	0	0
4804172	WORD	wordpools/wasnorm_wordpool_576.txt	LTP370	ltpFR2	0	22	MISTER	901	n/a	n/a	0	0	0
4806987	WORD	wordpools/wasnorm_wordpool_576.txt	LTP370	ltpFR2	0	22	WOMAN	1620	n/a	n/a	0	0	0
4809686	WORD	wordpools/wasnorm_wordpool_576.txt	LTP370	ltpFR2	0	22	GHETTO	633	n/a	n/a	0	0	0
4812285	WORD	wordpools/wasnorm_wordpool_576.txt	LTP370	ltpFR2	0	22	GAZELLE	628	n/a	n/a	0	0	0
4815017	WORD	wordpools/wasnorm_wordpool_576.txt	LTP370	ltpFR2	0	22	RECORD	1176	n/a	n/a	0	0	0
4817466	WORD	wordpools/wasnorm_wordpool_576.txt	LTP370	ltpFR2	0	22	ROBOT	1200	n/a	n/a	0	0	0
4820248	WORD	wordpools/wasnorm_wordpool_576.txt	LTP370	ltpFR2	0	22	BANKER	84	n/a	n/a	0	0	0
4822797	WORD	wordpools/wasnorm_wordpool_576.txt	LTP370	ltpFR2	0	22	PIZZA	1079	n/a	n/a	0	0	0
4825512	WORD	wordpools/wasnorm_wordpool_576.txt	LTP370	ltpFR2	0	22	PENGUIN	1044	n/a	n/a	0	0	0
4828278	WORD	wordpools/wasnorm_wordpool_576.txt	LTP370	ltpFR2	0	22	SCRIBBLE	1256	n/a	n/a	0	0	0
4830877	WORD	wordpools/wasnorm_wordpool_576.txt	LTP370	ltpFR2	0	22	HERO	706	n/a	n/a	0	0	0
4833575	WORD	wordpools/wasnorm_wordpool_576.txt	LTP370	ltpFR2	0	22	LETTUCE	814	n/a	n/a	0	0	0
4836158	WORD	wordpools/wasnorm_wordpool_576.txt	LTP370	ltpFR2	0	22	TURNIP	1521	n/a	n/a	0	0	0
4838756	WORD	wordpools/wasnorm_wordpool_576.txt	LTP370	ltpFR2	0	22	CEILING	265	n/a	n/a	0	0	0
4841205	WORD	wordpools/wasnorm_wordpool_576.txt	LTP370	ltpFR2	0	22	RUG	1215	n/a	n/a	0	0	0
4842821	START	n/a	LTP370	ltpFR2	0	n/a	n/a	n/a	34	n/a	n/a	n/a	n/a
4843766	DISTRACTOR	n/a	LTP370	ltpFR2	0	22	n/a	n/a	n/a	n/a	0	0	0
4843771	PROB	n/a	LTP370	ltpFR2	0	n/a	n/a	n/a	34	18	4	5	9
4846420	PROB	n/a	LTP370	ltpFR2	0	n/a	n/a	n/a	34	17	4	7	6
4848319	PROB	n/a	LTP370	ltpFR2	0	n/a	n/a	n/a	34	11	8	1	2
4849885	PROB	n/a	LTP370	ltpFR2	0	n/a	n/a	n/a	34	19	7	5	7
4851501	PROB	n/a	LTP370	ltpFR2	0	n/a	n/a	n/a	34	19	7	4	8
4854199	PROB	n/a	LTP370	ltpFR2	0	n/a	n/a	n/a	34	15	6	5	4
4855949	PROB	n/a	LTP370	ltpFR2	0	n/a	n/a	n/a	34	21	6	9	6
4858597	PROB	n/a	LTP370	ltpFR2	0	n/a	n/a	n/a	34	16	4	6	6
4860447	PROB	n/a	LTP370	ltpFR2	0	n/a	n/a	n/a	34	21	7	7	7
4861779	PROB	n/a	LTP370	ltpFR2	0	n/a	n/a	n/a	34	19	8	4	7
4864211	PROB	n/a	LTP370	ltpFR2	0	n/a	n/a	n/a	34	3	1	1	1
4866114	STOP	n/a	LTP370	ltpFR2	0	n/a	n/a	n/a	34	n/a	n/a	n/a	n/a
4868710	REC_START	n/a	LTP370	ltpFR2	0	22	n/a	n/a	n/a	n/a	0	0	0
4869697	REC_WORD	wordpools/wasnorm_wordpool_576.txt	LTP370	ltpFR2	0	22	GHETTO	633	n/a	n/a	0	0	0
4870295	REC_WORD	wordpools/wasnorm_wordpool_576.txt	LTP370	ltpFR2	0	22	GAZELLE	628	n/a	n/a	0	0	0
4871117	REC_WORD	wordpools/wasnorm_wordpool_576.txt	LTP370	ltpFR2	0	22	TRIBE	1505	n/a	n/a	0	0	0
4871879	REC_WORD	wordpools/wasnorm_wordpool_576.txt	LTP370	ltpFR2	0	22	NOMAD	955	n/a	n/a	0	0	0
4872824	REC_WORD	wordpools/wasnorm_wordpool_576.txt	LTP370	ltpFR2	0	22	PIZZA	1079	n/a	n/a	0	0	0
4873595	REC_WORD	wordpools/wasnorm_wordpool_576.txt	LTP370	ltpFR2	0	22	LETTUCE	814	n/a	n/a	0	0	0
