onset	duration	trial_type	sample	stim_file	subject	experiment	session	trial	item_name	item_num	list	answer	test_x	test_y	test_z
316.8720703125	n/a	SESS_START	648954	n/a	LTP347	ltpFR2	16	n/a	n/a	n/a	n/a	n/a	0	0	0
338.8642578125	n/a	START	693994	n/a	LTP347	ltpFR2	16	n/a	n/a	n/a	-1	n/a	n/a	n/a	n/a
338.89453125	n/a	PROB	694056	n/a	LTP347	ltpFR2	16	n/a	n/a	n/a	-1	14	7	2	5
340.52734375	n/a	PROB	697400	n/a	LTP347	ltpFR2	16	n/a	n/a	n/a	-1	23	6	9	8
341.7431640625	n/a	PROB	699890	n/a	LTP347	ltpFR2	16	n/a	n/a	n/a	-1	113	3	8	4
343.6591796875	n/a	PROB	703814	n/a	LTP347	ltpFR2	16	n/a	n/a	n/a	-1	11	5	2	4
344.9755859375	n/a	PROB	706510	n/a	LTP347	ltpFR2	16	n/a	n/a	n/a	-1	12	1	9	2
345.9912109375	n/a	PROB	708590	n/a	LTP347	ltpFR2	16	n/a	n/a	n/a	-1	16	9	3	4
347.67333984375	n/a	PROB	712035	n/a	LTP347	ltpFR2	16	n/a	n/a	n/a	-1	15	8	4	3
350.8642578125	n/a	STOP	718570	n/a	LTP347	ltpFR2	16	n/a	n/a	n/a	-1	n/a	n/a	n/a	n/a
381.5078125	n/a	WORD	781328	wordpools/wasnorm_wordpool_576.txt	LTP347	ltpFR2	16	1	POWDER	1117	n/a	n/a	0	0	0
384.1728515625	n/a	WORD	786786	wordpools/wasnorm_wordpool_576.txt	LTP347	ltpFR2	16	1	DANDRUFF	439	n/a	n/a	0	0	0
386.837890625	n/a	WORD	792244	wordpools/wasnorm_wordpool_576.txt	LTP347	ltpFR2	16	1	CATTLE	261	n/a	n/a	0	0	0
389.51953125	n/a	WORD	797736	wordpools/wasnorm_wordpool_576.txt	LTP347	ltpFR2	16	1	PUDDING	1139	n/a	n/a	0	0	0
391.95166015625	n/a	WORD	802717	wordpools/wasnorm_wordpool_576.txt	LTP347	ltpFR2	16	1	CHAPEL	280	n/a	n/a	0	0	0
394.6005859375	n/a	WORD	808142	wordpools/wasnorm_wordpool_576.txt	LTP347	ltpFR2	16	1	BLUEPRINT	142	n/a	n/a	0	0	0
397.0498046875	n/a	WORD	813158	wordpools/wasnorm_wordpool_576.txt	LTP347	ltpFR2	16	1	CRICKET	408	n/a	n/a	0	0	0
399.75	n/a	WORD	818688	wordpools/wasnorm_wordpool_576.txt	LTP347	ltpFR2	16	1	LIVER	833	n/a	n/a	0	0	0
402.296875	n/a	WORD	823904	wordpools/wasnorm_wordpool_576.txt	LTP347	ltpFR2	16	1	CABIN	211	n/a	n/a	0	0	0
404.77880859375	n/a	WORD	828987	wordpools/wasnorm_wordpool_576.txt	LTP347	ltpFR2	16	1	LUNCH	849	n/a	n/a	0	0	0
407.4609375	n/a	WORD	834480	wordpools/wasnorm_wordpool_576.txt	LTP347	ltpFR2	16	1	HOSTESS	723	n/a	n/a	0	0	0
410.1767578125	n/a	WORD	840042	wordpools/wasnorm_wordpool_576.txt	LTP347	ltpFR2	16	1	OZONE	996	n/a	n/a	0	0	0
412.97509765625	n/a	WORD	845773	wordpools/wasnorm_wordpool_576.txt	LTP347	ltpFR2	16	1	CATCHER	258	n/a	n/a	0	0	0
415.70703125	n/a	WORD	851368	wordpools/wasnorm_wordpool_576.txt	LTP347	ltpFR2	16	1	SHELTER	1282	n/a	n/a	0	0	0
418.47314453125	n/a	WORD	857033	wordpools/wasnorm_wordpool_576.txt	LTP347	ltpFR2	16	1	WAITER	1580	n/a	n/a	0	0	0
421.0380859375	n/a	WORD	862286	wordpools/wasnorm_wordpool_576.txt	LTP347	ltpFR2	16	1	CANYON	235	n/a	n/a	0	0	0
423.7529296875	n/a	WORD	867846	wordpools/wasnorm_wordpool_576.txt	LTP347	ltpFR2	16	1	FOX	598	n/a	n/a	0	0	0
426.35205078125	n/a	WORD	873169	wordpools/wasnorm_wordpool_576.txt	LTP347	ltpFR2	16	1	OX	994	n/a	n/a	0	0	0
429.1669921875	n/a	WORD	878934	wordpools/wasnorm_wordpool_576.txt	LTP347	ltpFR2	16	1	COTTAGE	384	n/a	n/a	0	0	0
431.64892578125	n/a	WORD	884017	wordpools/wasnorm_wordpool_576.txt	LTP347	ltpFR2	16	1	HIKER	708	n/a	n/a	0	0	0
434.4482421875	n/a	WORD	889750	wordpools/wasnorm_wordpool_576.txt	LTP347	ltpFR2	16	1	SUMMIT	1405	n/a	n/a	0	0	0
437.22998046875	n/a	WORD	895447	wordpools/wasnorm_wordpool_576.txt	LTP347	ltpFR2	16	1	HARP	689	n/a	n/a	0	0	0
439.794921875	n/a	WORD	900700	wordpools/wasnorm_wordpool_576.txt	LTP347	ltpFR2	16	1	FLUTE	585	n/a	n/a	0	0	0
442.494140625	n/a	WORD	906228	wordpools/wasnorm_wordpool_576.txt	LTP347	ltpFR2	16	1	CUSTARD	429	n/a	n/a	0	0	0
444.10986328125	n/a	START	909537	n/a	LTP347	ltpFR2	16	n/a	n/a	n/a	1	n/a	n/a	n/a	n/a
445.22802734375	n/a	DISTRACTOR	911827	n/a	LTP347	ltpFR2	16	1	n/a	n/a	n/a	n/a	0	0	0
445.2431640625	n/a	PROB	911858	n/a	LTP347	ltpFR2	16	n/a	n/a	n/a	1	8	4	2	2
446.69189453125	n/a	PROB	914825	n/a	LTP347	ltpFR2	16	n/a	n/a	n/a	1	16	7	3	6
447.7412109375	n/a	PROB	916974	n/a	LTP347	ltpFR2	16	n/a	n/a	n/a	1	143	1	8	5
449.14111328125	n/a	PROB	919841	n/a	LTP347	ltpFR2	16	n/a	n/a	n/a	1	3	1	1	1
450.0400390625	n/a	PROB	921682	n/a	LTP347	ltpFR2	16	n/a	n/a	n/a	1	20	9	5	6
451.68896484375	n/a	PROB	925059	n/a	LTP347	ltpFR2	16	n/a	n/a	n/a	1	15	8	6	1
453.58837890625	n/a	PROB	928949	n/a	LTP347	ltpFR2	16	n/a	n/a	n/a	1	14	7	5	4
455.75439453125	n/a	PROB	933385	n/a	LTP347	ltpFR2	16	n/a	n/a	n/a	1	15	4	7	4
457.85302734375	n/a	PROB	937683	n/a	LTP347	ltpFR2	16	n/a	n/a	n/a	1	13	1	8	4
459.0693359375	n/a	PROB	940174	n/a	LTP347	ltpFR2	16	n/a	n/a	n/a	1	17	8	4	5
461.01806640625	n/a	PROB	944165	n/a	LTP347	ltpFR2	16	n/a	n/a	n/a	1	16	9	3	4
462.484375	n/a	PROB	947168	n/a	LTP347	ltpFR2	16	n/a	n/a	n/a	1	18	3	7	8
463.6669921875	n/a	PROB	949590	n/a	LTP347	ltpFR2	16	n/a	n/a	n/a	1	16	5	1	7
465.1494140625	n/a	PROB	952626	n/a	LTP347	ltpFR2	16	n/a	n/a	n/a	1	19	4	8	7
466.6533203125	n/a	STOP	955706	n/a	LTP347	ltpFR2	16	n/a	n/a	n/a	1	n/a	n/a	n/a	n/a
469.96435546875	n/a	REC_START	962487	n/a	LTP347	ltpFR2	16	1	n/a	n/a	n/a	n/a	0	0	0
471.0283203125	n/a	REC_WORD	964666	wordpools/wasnorm_wordpool_576.txt	LTP347	ltpFR2	16	1	POWDER	1117	n/a	n/a	0	0	0
472.36328125	n/a	REC_WORD	967400	wordpools/wasnorm_wordpool_576.txt	LTP347	ltpFR2	16	1	CHAPEL	280	n/a	n/a	0	0	0
474.04833984375	n/a	REC_WORD	970851	wordpools/wasnorm_wordpool_576.txt	LTP347	ltpFR2	16	1	MILK	895	n/a	n/a	0	0	0
476.13525390625	n/a	REC_WORD	975125	wordpools/wasnorm_wordpool_576.txt	LTP347	ltpFR2	16	1	HIKER	708	n/a	n/a	0	0	0
476.89306640625	n/a	REC_WORD	976677	wordpools/wasnorm_wordpool_576.txt	LTP347	ltpFR2	16	1	SUMMIT	1405	n/a	n/a	0	0	0
478.0732421875	n/a	REC_WORD	979094	wordpools/wasnorm_wordpool_576.txt	LTP347	ltpFR2	16	1	FOX	598	n/a	n/a	0	0	0
531.37890625	n/a	REC_WORD	1088264	wordpools/wasnorm_wordpool_576.txt	LTP347	ltpFR2	16	1	HARP	689	n/a	n/a	0	0	0
533.921875	n/a	REC_WORD	1093472	wordpools/wasnorm_wordpool_576.txt	LTP347	ltpFR2	16	1	FLUTE	585	n/a	n/a	0	0	0
560.40283203125	n/a	DISTRACTOR	1147705	n/a	LTP347	ltpFR2	16	2	n/a	n/a	n/a	n/a	0	0	0
560.40283203125	n/a	START	1147705	n/a	LTP347	ltpFR2	16	n/a	n/a	n/a	2	n/a	n/a	n/a	n/a
560.419921875	n/a	PROB	1147740	n/a	LTP347	ltpFR2	16	n/a	n/a	n/a	2	21	8	6	7
562.1357421875	n/a	PROB	1151254	n/a	LTP347	ltpFR2	16	n/a	n/a	n/a	2	16	6	1	9
563.76806640625	n/a	PROB	1154597	n/a	LTP347	ltpFR2	16	n/a	n/a	n/a	2	15	6	3	6
565.45068359375	n/a	PROB	1158043	n/a	LTP347	ltpFR2	16	n/a	n/a	n/a	2	16	4	6	6
566.56689453125	n/a	PROB	1160329	n/a	LTP347	ltpFR2	16	n/a	n/a	n/a	2	13	8	5	1
567.98291015625	n/a	PROB	1163229	n/a	LTP347	ltpFR2	16	n/a	n/a	n/a	2	17	7	9	1
569.298828125	n/a	PROB	1165924	n/a	LTP347	ltpFR2	16	n/a	n/a	n/a	2	16	9	5	2
570.84814453125	n/a	PROB	1169097	n/a	LTP347	ltpFR2	16	n/a	n/a	n/a	2	18	6	7	5
572.27978515625	n/a	PROB	1172029	n/a	LTP347	ltpFR2	16	n/a	n/a	n/a	2	15	9	5	1
573.6298828125	n/a	PROB	1174794	n/a	LTP347	ltpFR2	16	n/a	n/a	n/a	2	27	9	9	9
575.49609375	n/a	PROB	1178616	n/a	LTP347	ltpFR2	16	n/a	n/a	n/a	2	15	2	7	6
577.72802734375	n/a	PROB	1183187	n/a	LTP347	ltpFR2	16	n/a	n/a	n/a	2	16	9	5	2
579.42724609375	n/a	PROB	1186667	n/a	LTP347	ltpFR2	16	n/a	n/a	n/a	2	9	1	4	4
581.09326171875	n/a	PROB	1190079	n/a	LTP347	ltpFR2	16	n/a	n/a	n/a	2	18	9	1	8
582.3759765625	n/a	PROB	1192706	n/a	LTP347	ltpFR2	16	n/a	n/a	n/a	2	23	9	9	5
584.166015625	n/a	STOP	1196372	n/a	LTP347	ltpFR2	16	n/a	n/a	n/a	2	n/a	n/a	n/a	n/a
585.291015625	n/a	WORD	1198676	wordpools/wasnorm_wordpool_576.txt	LTP347	ltpFR2	16	2	CLOUD	328	n/a	n/a	0	0	0
587.7900390625	n/a	WORD	1203794	wordpools/wasnorm_wordpool_576.txt	LTP347	ltpFR2	16	2	SHIRT	1287	n/a	n/a	0	0	0
590.35498046875	n/a	WORD	1209047	wordpools/wasnorm_wordpool_576.txt	LTP347	ltpFR2	16	2	DRESS	495	n/a	n/a	0	0	0
592.85400390625	n/a	WORD	1214165	wordpools/wasnorm_wordpool_576.txt	LTP347	ltpFR2	16	2	BRICK	172	n/a	n/a	0	0	0
595.46923828125	n/a	WORD	1219521	wordpools/wasnorm_wordpool_576.txt	LTP347	ltpFR2	16	2	KEEPER	769	n/a	n/a	0	0	0
598.1181640625	n/a	WORD	1224946	wordpools/wasnorm_wordpool_576.txt	LTP347	ltpFR2	16	2	CRAB	397	n/a	n/a	0	0	0
600.60009765625	n/a	WORD	1230029	wordpools/wasnorm_wordpool_576.txt	LTP347	ltpFR2	16	2	SEAFOOD	1260	n/a	n/a	0	0	0
603.248046875	n/a	WORD	1235452	wordpools/wasnorm_wordpool_576.txt	LTP347	ltpFR2	16	2	ELBOW	520	n/a	n/a	0	0	0
605.7470703125	n/a	WORD	1240570	wordpools/wasnorm_wordpool_576.txt	LTP347	ltpFR2	16	2	RECEIPT	1173	n/a	n/a	0	0	0
608.54638671875	n/a	WORD	1246303	wordpools/wasnorm_wordpool_576.txt	LTP347	ltpFR2	16	2	FOOT	590	n/a	n/a	0	0	0
611.1953125	n/a	WORD	1251728	wordpools/wasnorm_wordpool_576.txt	LTP347	ltpFR2	16	2	LUMBER	848	n/a	n/a	0	0	0
613.92822265625	n/a	WORD	1257325	wordpools/wasnorm_wordpool_576.txt	LTP347	ltpFR2	16	2	TUBA	1515	n/a	n/a	0	0	0
616.5751953125	n/a	WORD	1262746	wordpools/wasnorm_wordpool_576.txt	LTP347	ltpFR2	16	2	LACE	792	n/a	n/a	0	0	0
619.17431640625	n/a	WORD	1268069	wordpools/wasnorm_wordpool_576.txt	LTP347	ltpFR2	16	2	FLIPPER	580	n/a	n/a	0	0	0
621.97314453125	n/a	WORD	1273801	wordpools/wasnorm_wordpool_576.txt	LTP347	ltpFR2	16	2	TOURIST	1488	n/a	n/a	0	0	0
624.5712890625	n/a	WORD	1279122	wordpools/wasnorm_wordpool_576.txt	LTP347	ltpFR2	16	2	NECKLACE	940	n/a	n/a	0	0	0
627.0703125	n/a	WORD	1284240	wordpools/wasnorm_wordpool_576.txt	LTP347	ltpFR2	16	2	JURY	766	n/a	n/a	0	0	0
629.619140625	n/a	WORD	1289460	wordpools/wasnorm_wordpool_576.txt	LTP347	ltpFR2	16	2	SUITCASE	1403	n/a	n/a	0	0	0
632.234375	n/a	WORD	1294816	wordpools/wasnorm_wordpool_576.txt	LTP347	ltpFR2	16	2	CEILING	265	n/a	n/a	0	0	0
634.88330078125	n/a	WORD	1300241	wordpools/wasnorm_wordpool_576.txt	LTP347	ltpFR2	16	2	PLASTER	1085	n/a	n/a	0	0	0
637.38232421875	n/a	WORD	1305359	wordpools/wasnorm_wordpool_576.txt	LTP347	ltpFR2	16	2	STAPLE	1371	n/a	n/a	0	0	0
639.83056640625	n/a	WORD	1310373	wordpools/wasnorm_wordpool_576.txt	LTP347	ltpFR2	16	2	BEAKER	104	n/a	n/a	0	0	0
642.37939453125	n/a	WORD	1315593	wordpools/wasnorm_wordpool_576.txt	LTP347	ltpFR2	16	2	FRAGRANCE	599	n/a	n/a	0	0	0
645.09423828125	n/a	WORD	1321153	wordpools/wasnorm_wordpool_576.txt	LTP347	ltpFR2	16	2	BOUQUET	157	n/a	n/a	0	0	0
646.71044921875	n/a	START	1324463	n/a	LTP347	ltpFR2	16	n/a	n/a	n/a	3	n/a	n/a	n/a	n/a
647.62939453125	n/a	DISTRACTOR	1326345	n/a	LTP347	ltpFR2	16	2	n/a	n/a	n/a	n/a	0	0	0
647.6435546875	n/a	PROB	1326374	n/a	LTP347	ltpFR2	16	n/a	n/a	n/a	3	15	7	6	2
649.29248046875	n/a	PROB	1329751	n/a	LTP347	ltpFR2	16	n/a	n/a	n/a	3	18	6	5	3
651.07568359375	n/a	PROB	1333403	n/a	LTP347	ltpFR2	16	n/a	n/a	n/a	3	21	5	7	9
652.75732421875	n/a	PROB	1336847	n/a	LTP347	ltpFR2	16	n/a	n/a	n/a	3	14	8	1	5
654.45654296875	n/a	PROB	1340327	n/a	LTP347	ltpFR2	16	n/a	n/a	n/a	3	18	9	5	4
656.17236328125	n/a	PROB	1343841	n/a	LTP347	ltpFR2	16	n/a	n/a	n/a	3	12	1	2	9
657.2724609375	n/a	PROB	1346094	n/a	LTP347	ltpFR2	16	n/a	n/a	n/a	3	8	4	2	2
658.45458984375	n/a	PROB	1348515	n/a	LTP347	ltpFR2	16	n/a	n/a	n/a	3	9	2	4	3
660.62060546875	n/a	PROB	1352951	n/a	LTP347	ltpFR2	16	n/a	n/a	n/a	3	12	2	2	8
661.86962890625	n/a	PROB	1355509	n/a	LTP347	ltpFR2	16	n/a	n/a	n/a	3	17	9	3	5
664.1357421875	n/a	PROB	1360150	n/a	LTP347	ltpFR2	16	n/a	n/a	n/a	3	11	3	5	3
665.5517578125	n/a	PROB	1363050	n/a	LTP347	ltpFR2	16	n/a	n/a	n/a	3	17	8	5	3
667.517578125	n/a	PROB	1367076	n/a	LTP347	ltpFR2	16	n/a	n/a	n/a	3	7	1	1	5
670.71044921875	n/a	STOP	1373615	n/a	LTP347	ltpFR2	16	n/a	n/a	n/a	3	n/a	n/a	n/a	n/a
672.4658203125	n/a	REC_START	1377210	n/a	LTP347	ltpFR2	16	2	n/a	n/a	n/a	n/a	0	0	0
674.53759765625	n/a	REC_WORD	1381453	wordpools/wasnorm_wordpool_576.txt	LTP347	ltpFR2	16	2	BEAKER	104	n/a	n/a	0	0	0
675.00390625	n/a	REC_WORD	1382408	wordpools/wasnorm_wordpool_576.txt	LTP347	ltpFR2	16	2	FRAGRANCE	599	n/a	n/a	0	0	0
675.8369140625	n/a	REC_WORD	1384114	wordpools/wasnorm_wordpool_576.txt	LTP347	ltpFR2	16	2	BOUQUET	157	n/a	n/a	0	0	0
677.02783203125	n/a	REC_WORD	1386553	wordpools/wasnorm_wordpool_576.txt	LTP347	ltpFR2	16	2	FOOT	590	n/a	n/a	0	0	0
677.75390625	n/a	REC_WORD	1388040	wordpools/wasnorm_wordpool_576.txt	LTP347	ltpFR2	16	2	LUMBER	848	n/a	n/a	0	0	0
678.33056640625	n/a	REC_WORD	1389221	wordpools/wasnorm_wordpool_576.txt	LTP347	ltpFR2	16	2	TUBA	1515	n/a	n/a	0	0	0
679.3544921875	n/a	REC_WORD	1391318	wordpools/wasnorm_wordpool_576.txt	LTP347	ltpFR2	16	2	SEAFOOD	1260	n/a	n/a	0	0	0
680.0595703125	n/a	REC_WORD	1392762	wordpools/wasnorm_wordpool_576.txt	LTP347	ltpFR2	16	2	ELBOW	520	n/a	n/a	0	0	0
680.56787109375	n/a	REC_WORD	1393803	wordpools/wasnorm_wordpool_576.txt	LTP347	ltpFR2	16	2	RECEIPT	1173	n/a	n/a	0	0	0
681.8125	n/a	REC_WORD	1396352	wordpools/wasnorm_wordpool_576.txt	LTP347	ltpFR2	16	2	CLOUD	328	n/a	n/a	0	0	0
682.345703125	n/a	REC_WORD	1397444	wordpools/wasnorm_wordpool_576.txt	LTP347	ltpFR2	16	2	SHIRT	1287	n/a	n/a	0	0	0
682.98291015625	n/a	REC_WORD	1398749	wordpools/wasnorm_wordpool_576.txt	LTP347	ltpFR2	16	2	DRESS	495	n/a	n/a	0	0	0
686.19970703125	n/a	REC_WORD	1405337	wordpools/wasnorm_wordpool_576.txt	LTP347	ltpFR2	16	2	CRAB	397	n/a	n/a	0	0	0
686.79052734375	n/a	REC_WORD	1406547	wordpools/wasnorm_wordpool_576.txt	LTP347	ltpFR2	16	2	KEEPER	769	n/a	n/a	0	0	0
687.435546875	n/a	REC_WORD	1407868	wordpools/wasnorm_wordpool_576.txt	LTP347	ltpFR2	16	2	BRICK	172	n/a	n/a	0	0	0
703.57177734375	n/a	REC_WORD	1440915	wordpools/wasnorm_wordpool_576.txt	LTP347	ltpFR2	16	2	LACE	792	n/a	n/a	0	0	0
704.27294921875	n/a	REC_WORD	1442351	wordpools/wasnorm_wordpool_576.txt	LTP347	ltpFR2	16	2	FLIPPER	580	n/a	n/a	0	0	0
705.126953125	n/a	REC_WORD	1444100	wordpools/wasnorm_wordpool_576.txt	LTP347	ltpFR2	16	2	TOURIST	1488	n/a	n/a	0	0	0
711.8359375	n/a	REC_WORD	1457840	wordpools/wasnorm_wordpool_576.txt	LTP347	ltpFR2	16	2	CEILING	265	n/a	n/a	0	0	0
712.56103515625	n/a	REC_WORD	1459325	wordpools/wasnorm_wordpool_576.txt	LTP347	ltpFR2	16	2	PLASTER	1085	n/a	n/a	0	0	0
713.1259765625	n/a	REC_WORD	1460482	wordpools/wasnorm_wordpool_576.txt	LTP347	ltpFR2	16	2	STAPLE	1371	n/a	n/a	0	0	0
762.92138671875	n/a	WORD	1562463	wordpools/wasnorm_wordpool_576.txt	LTP347	ltpFR2	16	3	FRECKLE	602	n/a	n/a	0	0	0
765.60205078125	n/a	WORD	1567953	wordpools/wasnorm_wordpool_576.txt	LTP347	ltpFR2	16	3	BIKE	125	n/a	n/a	0	0	0
768.318359375	n/a	WORD	1573516	wordpools/wasnorm_wordpool_576.txt	LTP347	ltpFR2	16	3	STOVE	1388	n/a	n/a	0	0	0
771.1162109375	n/a	WORD	1579246	wordpools/wasnorm_wordpool_576.txt	LTP347	ltpFR2	16	3	SALT	1229	n/a	n/a	0	0	0
773.58251953125	n/a	WORD	1584297	wordpools/wasnorm_wordpool_576.txt	LTP347	ltpFR2	16	3	COWBOY	395	n/a	n/a	0	0	0
776.04736328125	n/a	WORD	1589345	wordpools/wasnorm_wordpool_576.txt	LTP347	ltpFR2	16	3	BUGGY	188	n/a	n/a	0	0	0
778.79638671875	n/a	WORD	1594975	wordpools/wasnorm_wordpool_576.txt	LTP347	ltpFR2	16	3	COBRA	336	n/a	n/a	0	0	0
781.2783203125	n/a	WORD	1600058	wordpools/wasnorm_wordpool_576.txt	LTP347	ltpFR2	16	3	FLEET	578	n/a	n/a	0	0	0
783.76025390625	n/a	WORD	1605141	wordpools/wasnorm_wordpool_576.txt	LTP347	ltpFR2	16	3	CONVICT	371	n/a	n/a	0	0	0
786.54248046875	n/a	WORD	1610839	wordpools/wasnorm_wordpool_576.txt	LTP347	ltpFR2	16	3	POET	1095	n/a	n/a	0	0	0
789.09130859375	n/a	WORD	1616059	wordpools/wasnorm_wordpool_576.txt	LTP347	ltpFR2	16	3	WORKER	1621	n/a	n/a	0	0	0
791.556640625	n/a	WORD	1621108	wordpools/wasnorm_wordpool_576.txt	LTP347	ltpFR2	16	3	MARKET	871	n/a	n/a	0	0	0
794.1552734375	n/a	WORD	1626430	wordpools/wasnorm_wordpool_576.txt	LTP347	ltpFR2	16	3	FOREHEAD	592	n/a	n/a	0	0	0
796.7705078125	n/a	WORD	1631786	wordpools/wasnorm_wordpool_576.txt	LTP347	ltpFR2	16	3	COLLEGE	346	n/a	n/a	0	0	0
799.36962890625	n/a	WORD	1637109	wordpools/wasnorm_wordpool_576.txt	LTP347	ltpFR2	16	3	MOTEL	919	n/a	n/a	0	0	0
801.91943359375	n/a	WORD	1642331	wordpools/wasnorm_wordpool_576.txt	LTP347	ltpFR2	16	3	REBEL	1172	n/a	n/a	0	0	0
804.466796875	n/a	WORD	1647548	wordpools/wasnorm_wordpool_576.txt	LTP347	ltpFR2	16	3	EMPIRE	530	n/a	n/a	0	0	0
807.24853515625	n/a	WORD	1653245	wordpools/wasnorm_wordpool_576.txt	LTP347	ltpFR2	16	3	NOTEBOOK	959	n/a	n/a	0	0	0
809.84765625	n/a	WORD	1658568	wordpools/wasnorm_wordpool_576.txt	LTP347	ltpFR2	16	3	TURKEY	1520	n/a	n/a	0	0	0
812.36279296875	n/a	WORD	1663719	wordpools/wasnorm_wordpool_576.txt	LTP347	ltpFR2	16	3	CLOTHES	327	n/a	n/a	0	0	0
814.79443359375	n/a	WORD	1668699	wordpools/wasnorm_wordpool_576.txt	LTP347	ltpFR2	16	3	QUEEN	1149	n/a	n/a	0	0	0
817.46044921875	n/a	WORD	1674159	wordpools/wasnorm_wordpool_576.txt	LTP347	ltpFR2	16	3	COMPASS	358	n/a	n/a	0	0	0
820.10888671875	n/a	WORD	1679583	wordpools/wasnorm_wordpool_576.txt	LTP347	ltpFR2	16	3	PIANO	1057	n/a	n/a	0	0	0
822.69189453125	n/a	WORD	1684873	wordpools/wasnorm_wordpool_576.txt	LTP347	ltpFR2	16	3	CONCERT	360	n/a	n/a	0	0	0
824.3076171875	n/a	START	1688182	n/a	LTP347	ltpFR2	16	n/a	n/a	n/a	4	n/a	n/a	n/a	n/a
825.40771484375	n/a	DISTRACTOR	1690435	n/a	LTP347	ltpFR2	16	3	n/a	n/a	n/a	n/a	0	0	0
825.4228515625	n/a	PROB	1690466	n/a	LTP347	ltpFR2	16	n/a	n/a	n/a	4	11	1	2	8
826.72265625	n/a	PROB	1693128	n/a	LTP347	ltpFR2	16	n/a	n/a	n/a	4	9	1	4	4
827.90576171875	n/a	PROB	1695551	n/a	LTP347	ltpFR2	16	n/a	n/a	n/a	4	14	8	3	3
829.6044921875	n/a	PROB	1699030	n/a	LTP347	ltpFR2	16	n/a	n/a	n/a	4	17	2	8	7
830.90380859375	n/a	PROB	1701691	n/a	LTP347	ltpFR2	16	n/a	n/a	n/a	4	16	6	4	6
832.2197265625	n/a	PROB	1704386	n/a	LTP347	ltpFR2	16	n/a	n/a	n/a	4	21	8	5	8
833.81884765625	n/a	PROB	1707661	n/a	LTP347	ltpFR2	16	n/a	n/a	n/a	4	10	6	1	3
835.0849609375	n/a	PROB	1710254	n/a	LTP347	ltpFR2	16	n/a	n/a	n/a	4	20	2	9	9
836.384765625	n/a	PROB	1712916	n/a	LTP347	ltpFR2	16	n/a	n/a	n/a	4	15	3	5	7
837.8837890625	n/a	PROB	1715986	n/a	LTP347	ltpFR2	16	n/a	n/a	n/a	4	10	1	6	3
839.81591796875	n/a	PROB	1719943	n/a	LTP347	ltpFR2	16	n/a	n/a	n/a	4	12	3	2	7
841.416015625	n/a	PROB	1723220	n/a	LTP347	ltpFR2	16	n/a	n/a	n/a	4	19	4	6	9
842.84765625	n/a	PROB	1726152	n/a	LTP347	ltpFR2	16	n/a	n/a	n/a	4	15	8	3	4
845.3466796875	n/a	PROB	1731270	n/a	LTP347	ltpFR2	16	n/a	n/a	n/a	4	26	9	9	8
846.95166015625	n/a	STOP	1734557	n/a	LTP347	ltpFR2	16	n/a	n/a	n/a	4	n/a	n/a	n/a	n/a
850.19482421875	n/a	REC_START	1741199	n/a	LTP347	ltpFR2	16	3	n/a	n/a	n/a	n/a	0	0	0
850.28564453125	n/a	REC_WORD	1741385	wordpools/wasnorm_wordpool_576.txt	LTP347	ltpFR2	16	3	COMPASS	358	n/a	n/a	0	0	0
850.94384765625	n/a	REC_WORD	1742733	wordpools/wasnorm_wordpool_576.txt	LTP347	ltpFR2	16	3	PIANO	1057	n/a	n/a	0	0	0
851.61865234375	n/a	REC_WORD	1744115	wordpools/wasnorm_wordpool_576.txt	LTP347	ltpFR2	16	3	CONCERT	360	n/a	n/a	0	0	0
852.60888671875	n/a	REC_WORD	1746143	wordpools/wasnorm_wordpool_576.txt	LTP347	ltpFR2	16	3	FRECKLE	602	n/a	n/a	0	0	0
854.9140625	n/a	REC_WORD	1750864	wordpools/wasnorm_wordpool_576.txt	LTP347	ltpFR2	16	3	BIKE	125	n/a	n/a	0	0	0
855.49169921875	n/a	REC_WORD	1752047	wordpools/wasnorm_wordpool_576.txt	LTP347	ltpFR2	16	3	STOVE	1388	n/a	n/a	0	0	0
863.427734375	n/a	REC_WORD	1768300	wordpools/wasnorm_wordpool_576.txt	LTP347	ltpFR2	16	3	COWBOY	395	n/a	n/a	0	0	0
863.94580078125	n/a	REC_WORD	1769361	wordpools/wasnorm_wordpool_576.txt	LTP347	ltpFR2	16	3	SALT	1229	n/a	n/a	0	0	0
865.7568359375	n/a	REC_WORD	1773070	wordpools/wasnorm_wordpool_576.txt	LTP347	ltpFR2	16	3	BUGGY	188	n/a	n/a	0	0	0
867.55810546875	n/a	REC_WORD	1776759	wordpools/wasnorm_wordpool_576.txt	LTP347	ltpFR2	16	3	COBRA	336	n/a	n/a	0	0	0
868.10693359375	n/a	REC_WORD	1777883	wordpools/wasnorm_wordpool_576.txt	LTP347	ltpFR2	16	3	CONVICT	371	n/a	n/a	0	0	0
868.69677734375	n/a	REC_WORD	1779091	wordpools/wasnorm_wordpool_576.txt	LTP347	ltpFR2	16	3	FLEET	578	n/a	n/a	0	0	0
872.76025390625	n/a	REC_WORD	1787413	wordpools/wasnorm_wordpool_576.txt	LTP347	ltpFR2	16	3	COMPASS	358	n/a	n/a	0	0	0
873.34814453125	n/a	REC_WORD	1788617	wordpools/wasnorm_wordpool_576.txt	LTP347	ltpFR2	16	3	PIANO	1057	n/a	n/a	0	0	0
873.953125	n/a	REC_WORD	1789856	wordpools/wasnorm_wordpool_576.txt	LTP347	ltpFR2	16	3	CONCERT	360	n/a	n/a	0	0	0
890.22607421875	n/a	REC_WORD	1823183	wordpools/wasnorm_wordpool_576.txt	LTP347	ltpFR2	16	3	FOREHEAD	592	n/a	n/a	0	0	0
891.71630859375	n/a	REC_WORD	1826235	wordpools/wasnorm_wordpool_576.txt	LTP347	ltpFR2	16	3	COLLEGE	346	n/a	n/a	0	0	0
892.578125	n/a	REC_WORD	1828000	wordpools/wasnorm_wordpool_576.txt	LTP347	ltpFR2	16	3	MOTEL	919	n/a	n/a	0	0	0
940.66650390625	n/a	WORD	1926485	wordpools/wasnorm_wordpool_576.txt	LTP347	ltpFR2	16	4	VICTIM	1562	n/a	n/a	0	0	0
943.13232421875	n/a	WORD	1931535	wordpools/wasnorm_wordpool_576.txt	LTP347	ltpFR2	16	4	STAKE	1368	n/a	n/a	0	0	0
945.69775390625	n/a	WORD	1936789	wordpools/wasnorm_wordpool_576.txt	LTP347	ltpFR2	16	4	STOMACH	1384	n/a	n/a	0	0	0
948.24658203125	n/a	WORD	1942009	wordpools/wasnorm_wordpool_576.txt	LTP347	ltpFR2	16	4	COOKBOOK	373	n/a	n/a	0	0	0
950.6787109375	n/a	WORD	1946990	wordpools/wasnorm_wordpool_576.txt	LTP347	ltpFR2	16	4	DRIVER	499	n/a	n/a	0	0	0
953.41064453125	n/a	WORD	1952585	wordpools/wasnorm_wordpool_576.txt	LTP347	ltpFR2	16	4	FILM	565	n/a	n/a	0	0	0
956.2255859375	n/a	WORD	1958350	wordpools/wasnorm_wordpool_576.txt	LTP347	ltpFR2	16	4	PLIERS	1089	n/a	n/a	0	0	0
958.74169921875	n/a	WORD	1963503	wordpools/wasnorm_wordpool_576.txt	LTP347	ltpFR2	16	4	ATLAS	53	n/a	n/a	0	0	0
961.40673828125	n/a	WORD	1968961	wordpools/wasnorm_wordpool_576.txt	LTP347	ltpFR2	16	4	HAND	683	n/a	n/a	0	0	0
964.2216796875	n/a	WORD	1974726	wordpools/wasnorm_wordpool_576.txt	LTP347	ltpFR2	16	4	FRAME	600	n/a	n/a	0	0	0
967.03759765625	n/a	WORD	1980493	wordpools/wasnorm_wordpool_576.txt	LTP347	ltpFR2	16	4	SPIDER	1351	n/a	n/a	0	0	0
969.6357421875	n/a	WORD	1985814	wordpools/wasnorm_wordpool_576.txt	LTP347	ltpFR2	16	4	TROMBONE	1508	n/a	n/a	0	0	0
972.45166015625	n/a	WORD	1991581	wordpools/wasnorm_wordpool_576.txt	LTP347	ltpFR2	16	4	MOTOR	922	n/a	n/a	0	0	0
975.24951171875	n/a	WORD	1997311	wordpools/wasnorm_wordpool_576.txt	LTP347	ltpFR2	16	4	BLADE	134	n/a	n/a	0	0	0
977.78173828125	n/a	WORD	2002497	wordpools/wasnorm_wordpool_576.txt	LTP347	ltpFR2	16	4	FRUIT	610	n/a	n/a	0	0	0
980.263671875	n/a	WORD	2007580	wordpools/wasnorm_wordpool_576.txt	LTP347	ltpFR2	16	4	PIGMENT	1066	n/a	n/a	0	0	0
982.72998046875	n/a	WORD	2012631	wordpools/wasnorm_wordpool_576.txt	LTP347	ltpFR2	16	4	MARKER	870	n/a	n/a	0	0	0
985.3447265625	n/a	WORD	2017986	wordpools/wasnorm_wordpool_576.txt	LTP347	ltpFR2	16	4	BLOCKADE	137	n/a	n/a	0	0	0
988.0439453125	n/a	WORD	2023514	wordpools/wasnorm_wordpool_576.txt	LTP347	ltpFR2	16	4	RECORD	1176	n/a	n/a	0	0	0
990.4755859375	n/a	WORD	2028494	wordpools/wasnorm_wordpool_576.txt	LTP347	ltpFR2	16	4	OFFICE	972	n/a	n/a	0	0	0
993.15771484375	n/a	WORD	2033987	wordpools/wasnorm_wordpool_576.txt	LTP347	ltpFR2	16	4	PUDDLE	1140	n/a	n/a	0	0	0
995.8056640625	n/a	WORD	2039410	wordpools/wasnorm_wordpool_576.txt	LTP347	ltpFR2	16	4	PARTNER	1017	n/a	n/a	0	0	0
998.3046875	n/a	WORD	2044528	wordpools/wasnorm_wordpool_576.txt	LTP347	ltpFR2	16	4	LOVER	846	n/a	n/a	0	0	0
1001.0869140625	n/a	WORD	2050226	wordpools/wasnorm_wordpool_576.txt	LTP347	ltpFR2	16	4	BUTCHER	203	n/a	n/a	0	0	0
1002.703125	n/a	START	2053536	n/a	LTP347	ltpFR2	16	n/a	n/a	n/a	5	n/a	n/a	n/a	n/a
1003.51806640625	n/a	DISTRACTOR	2055205	n/a	LTP347	ltpFR2	16	4	n/a	n/a	n/a	n/a	0	0	0
1003.51904296875	n/a	PROB	2055207	n/a	LTP347	ltpFR2	16	n/a	n/a	n/a	5	8	2	1	5
1004.71875	n/a	PROB	2057664	n/a	LTP347	ltpFR2	16	n/a	n/a	n/a	5	7	4	1	2
1005.93603515625	n/a	PROB	2060157	n/a	LTP347	ltpFR2	16	n/a	n/a	n/a	5	8	1	6	1
1007.06787109375	n/a	PROB	2062475	n/a	LTP347	ltpFR2	16	n/a	n/a	n/a	5	13	3	5	5
1008.6328125	n/a	PROB	2065680	n/a	LTP347	ltpFR2	16	n/a	n/a	n/a	5	16	8	5	3
1010.09912109375	n/a	PROB	2068683	n/a	LTP347	ltpFR2	16	n/a	n/a	n/a	5	7	2	1	4
1011.23193359375	n/a	PROB	2071003	n/a	LTP347	ltpFR2	16	n/a	n/a	n/a	5	9	6	2	1
1013.4140625	n/a	PROB	2075472	n/a	LTP347	ltpFR2	16	n/a	n/a	n/a	5	13	2	2	9
1014.97998046875	n/a	PROB	2078679	n/a	LTP347	ltpFR2	16	n/a	n/a	n/a	5	23	8	8	7
1016.712890625	n/a	PROB	2082228	n/a	LTP347	ltpFR2	16	n/a	n/a	n/a	5	8	2	4	2
1018.4951171875	n/a	PROB	2085878	n/a	LTP347	ltpFR2	16	n/a	n/a	n/a	5	6	1	4	1
1019.794921875	n/a	PROB	2088540	n/a	LTP347	ltpFR2	16	n/a	n/a	n/a	5	9	3	2	4
1020.994140625	n/a	PROB	2090996	n/a	LTP347	ltpFR2	16	n/a	n/a	n/a	5	14	6	8	1
1023.1259765625	n/a	PROB	2095362	n/a	LTP347	ltpFR2	16	n/a	n/a	n/a	5	9	2	5	2
1024.27587890625	n/a	PROB	2097717	n/a	LTP347	ltpFR2	16	n/a	n/a	n/a	5	19	7	7	5
1025.80126953125	n/a	STOP	2100841	n/a	LTP347	ltpFR2	16	n/a	n/a	n/a	5	n/a	n/a	n/a	n/a
1028.60693359375	n/a	REC_START	2106587	n/a	LTP347	ltpFR2	16	4	n/a	n/a	n/a	n/a	0	0	0
1031.10693359375	n/a	REC_WORD	2111707	wordpools/wasnorm_wordpool_576.txt	LTP347	ltpFR2	16	4	LOVER	846	n/a	n/a	0	0	0
1031.6982421875	n/a	REC_WORD	2112918	wordpools/wasnorm_wordpool_576.txt	LTP347	ltpFR2	16	4	PARTNER	1017	n/a	n/a	0	0	0
1032.39990234375	n/a	REC_WORD	2114355	wordpools/wasnorm_wordpool_576.txt	LTP347	ltpFR2	16	4	BUTCHER	203	n/a	n/a	0	0	0
1040.5673828125	n/a	REC_WORD	2131082	wordpools/wasnorm_wordpool_576.txt	LTP347	ltpFR2	16	4	SPIDER	1351	n/a	n/a	0	0	0
1041.1962890625	n/a	REC_WORD	2132370	wordpools/wasnorm_wordpool_576.txt	LTP347	ltpFR2	16	4	FRAME	600	n/a	n/a	0	0	0
1041.7744140625	n/a	REC_WORD	2133554	wordpools/wasnorm_wordpool_576.txt	LTP347	ltpFR2	16	4	TROMBONE	1508	n/a	n/a	0	0	0
1048.6640625	n/a	REC_WORD	2147664	wordpools/wasnorm_wordpool_576.txt	LTP347	ltpFR2	16	4	COOKBOOK	373	n/a	n/a	0	0	0
1049.1884765625	n/a	REC_WORD	2148738	wordpools/wasnorm_wordpool_576.txt	LTP347	ltpFR2	16	4	FILM	565	n/a	n/a	0	0	0
1049.7021484375	n/a	REC_WORD	2149790	wordpools/wasnorm_wordpool_576.txt	LTP347	ltpFR2	16	4	DRIVER	499	n/a	n/a	0	0	0
1063.34130859375	n/a	REC_WORD	2177723	wordpools/wasnorm_wordpool_576.txt	LTP347	ltpFR2	16	4	MOTOR	922	n/a	n/a	0	0	0
1063.986328125	n/a	REC_WORD	2179044	wordpools/wasnorm_wordpool_576.txt	LTP347	ltpFR2	16	4	BLADE	134	n/a	n/a	0	0	0
1064.26416015625	n/a	REC_WORD	2179613	wordpools/wasnorm_wordpool_576.txt	LTP347	ltpFR2	16	4	FRUIT	610	n/a	n/a	0	0	0
1066.6552734375	n/a	REC_WORD	2184510	wordpools/wasnorm_wordpool_576.txt	LTP347	ltpFR2	16	4	RECORD	1176	n/a	n/a	0	0	0
1067.1982421875	n/a	REC_WORD	2185622	wordpools/wasnorm_wordpool_576.txt	LTP347	ltpFR2	16	4	OFFICE	972	n/a	n/a	0	0	0
1067.72412109375	n/a	REC_WORD	2186699	wordpools/wasnorm_wordpool_576.txt	LTP347	ltpFR2	16	4	PUDDLE	1140	n/a	n/a	0	0	0
1119.0625	n/a	WORD	2291840	wordpools/wasnorm_wordpool_576.txt	LTP347	ltpFR2	16	5	CURTAIN	427	n/a	n/a	0	0	0
1121.51171875	n/a	WORD	2296856	wordpools/wasnorm_wordpool_576.txt	LTP347	ltpFR2	16	5	RAZOR	1171	n/a	n/a	0	0	0
1124.09375	n/a	WORD	2302144	wordpools/wasnorm_wordpool_576.txt	LTP347	ltpFR2	16	5	ZIPPER	1636	n/a	n/a	0	0	0
1126.60888671875	n/a	WORD	2307295	wordpools/wasnorm_wordpool_576.txt	LTP347	ltpFR2	16	5	SADDLE	1221	n/a	n/a	0	0	0
1129.423828125	n/a	WORD	2313060	wordpools/wasnorm_wordpool_576.txt	LTP347	ltpFR2	16	5	INMATE	738	n/a	n/a	0	0	0
1132.23974609375	n/a	WORD	2318827	wordpools/wasnorm_wordpool_576.txt	LTP347	ltpFR2	16	5	GUARD	667	n/a	n/a	0	0	0
1134.87158203125	n/a	WORD	2324217	wordpools/wasnorm_wordpool_576.txt	LTP347	ltpFR2	16	5	STAR	1373	n/a	n/a	0	0	0
1137.70361328125	n/a	WORD	2330017	wordpools/wasnorm_wordpool_576.txt	LTP347	ltpFR2	16	5	COMET	353	n/a	n/a	0	0	0
1140.36865234375	n/a	WORD	2335475	wordpools/wasnorm_wordpool_576.txt	LTP347	ltpFR2	16	5	BABY	64	n/a	n/a	0	0	0
1142.85107421875	n/a	WORD	2340559	wordpools/wasnorm_wordpool_576.txt	LTP347	ltpFR2	16	5	CHILD	299	n/a	n/a	0	0	0
1145.466796875	n/a	WORD	2345916	wordpools/wasnorm_wordpool_576.txt	LTP347	ltpFR2	16	5	CROSS	413	n/a	n/a	0	0	0
1148.2978515625	n/a	WORD	2351714	wordpools/wasnorm_wordpool_576.txt	LTP347	ltpFR2	16	5	MONEY	908	n/a	n/a	0	0	0
1150.7470703125	n/a	WORD	2356730	wordpools/wasnorm_wordpool_576.txt	LTP347	ltpFR2	16	5	CONTRACT	368	n/a	n/a	0	0	0
1153.37890625	n/a	WORD	2362120	wordpools/wasnorm_wordpool_576.txt	LTP347	ltpFR2	16	5	BRANDY	169	n/a	n/a	0	0	0
1156.02783203125	n/a	WORD	2367545	wordpools/wasnorm_wordpool_576.txt	LTP347	ltpFR2	16	5	WAGON	1578	n/a	n/a	0	0	0
1158.79296875	n/a	WORD	2373208	wordpools/wasnorm_wordpool_576.txt	LTP347	ltpFR2	16	5	SEAGULL	1261	n/a	n/a	0	0	0
1161.52490234375	n/a	WORD	2378803	wordpools/wasnorm_wordpool_576.txt	LTP347	ltpFR2	16	5	HELMET	702	n/a	n/a	0	0	0
1164.19091796875	n/a	WORD	2384263	wordpools/wasnorm_wordpool_576.txt	LTP347	ltpFR2	16	5	TOMBSTONE	1478	n/a	n/a	0	0	0
1166.68896484375	n/a	WORD	2389379	wordpools/wasnorm_wordpool_576.txt	LTP347	ltpFR2	16	5	BROTHER	179	n/a	n/a	0	0	0
1169.4208984375	n/a	WORD	2394974	wordpools/wasnorm_wordpool_576.txt	LTP347	ltpFR2	16	5	AIRPLANE	12	n/a	n/a	0	0	0
1171.97021484375	n/a	WORD	2400195	wordpools/wasnorm_wordpool_576.txt	LTP347	ltpFR2	16	5	KNIFE	785	n/a	n/a	0	0	0
1174.48486328125	n/a	WORD	2405345	wordpools/wasnorm_wordpool_576.txt	LTP347	ltpFR2	16	5	SNACK	1331	n/a	n/a	0	0	0
1177.26708984375	n/a	WORD	2411043	wordpools/wasnorm_wordpool_576.txt	LTP347	ltpFR2	16	5	COCKTAIL	338	n/a	n/a	0	0	0
1180.06591796875	n/a	WORD	2416775	wordpools/wasnorm_wordpool_576.txt	LTP347	ltpFR2	16	5	JEANS	752	n/a	n/a	0	0	0
1181.68212890625	n/a	START	2420085	n/a	LTP347	ltpFR2	16	n/a	n/a	n/a	6	n/a	n/a	n/a	n/a
1182.6943359375	n/a	DISTRACTOR	2422158	n/a	LTP347	ltpFR2	16	5	n/a	n/a	n/a	n/a	0	0	0
1182.6982421875	n/a	PROB	2422166	n/a	LTP347	ltpFR2	16	n/a	n/a	n/a	6	19	7	3	9
1183.98095703125	n/a	PROB	2424793	n/a	LTP347	ltpFR2	16	n/a	n/a	n/a	6	23	8	8	9
1185.84619140625	n/a	PROB	2428613	n/a	LTP347	ltpFR2	16	n/a	n/a	n/a	6	15	6	6	3
1187.72900390625	n/a	PROB	2432469	n/a	LTP347	ltpFR2	16	n/a	n/a	n/a	6	12	5	6	1
1189.21142578125	n/a	PROB	2435505	n/a	LTP347	ltpFR2	16	n/a	n/a	n/a	6	17	3	9	5
1191.22705078125	n/a	PROB	2439633	n/a	LTP347	ltpFR2	16	n/a	n/a	n/a	6	22	8	8	9
1193.826171875	n/a	PROB	2444956	n/a	LTP347	ltpFR2	16	n/a	n/a	n/a	6	19	9	7	3
1195.20947265625	n/a	PROB	2447789	n/a	LTP347	ltpFR2	16	n/a	n/a	n/a	6	20	3	8	9
1196.89111328125	n/a	PROB	2451233	n/a	LTP347	ltpFR2	16	n/a	n/a	n/a	6	11	1	7	3
1198.47412109375	n/a	PROB	2454475	n/a	LTP347	ltpFR2	16	n/a	n/a	n/a	6	23	8	7	8
1201.822265625	n/a	PROB	2461332	n/a	LTP347	ltpFR2	16	n/a	n/a	n/a	6	11	2	5	4
1203.3212890625	n/a	PROB	2464402	n/a	LTP347	ltpFR2	16	n/a	n/a	n/a	6	17	6	8	3
1205.5302734375	n/a	STOP	2468926	n/a	LTP347	ltpFR2	16	n/a	n/a	n/a	6	n/a	n/a	n/a	n/a
1207.5703125	n/a	REC_START	2473104	n/a	LTP347	ltpFR2	16	5	n/a	n/a	n/a	n/a	0	0	0
1208.4384765625	n/a	REC_WORD	2474882	wordpools/wasnorm_wordpool_576.txt	LTP347	ltpFR2	16	5	BROTHER	179	n/a	n/a	0	0	0
1208.95751953125	n/a	REC_WORD	2475945	wordpools/wasnorm_wordpool_576.txt	LTP347	ltpFR2	16	5	AIRPLANE	12	n/a	n/a	0	0	0
1209.71337890625	n/a	REC_WORD	2477493	wordpools/wasnorm_wordpool_576.txt	LTP347	ltpFR2	16	5	KNIFE	785	n/a	n/a	0	0	0
1210.353515625	n/a	REC_WORD	2478804	wordpools/wasnorm_wordpool_576.txt	LTP347	ltpFR2	16	5	SNACK	1331	n/a	n/a	0	0	0
1211.13525390625	n/a	REC_WORD	2480405	wordpools/wasnorm_wordpool_576.txt	LTP347	ltpFR2	16	5	COCKTAIL	338	n/a	n/a	0	0	0
1212.23828125	n/a	REC_WORD	2482664	wordpools/wasnorm_wordpool_576.txt	LTP347	ltpFR2	16	5	JEANS	752	n/a	n/a	0	0	0
1216.12060546875	n/a	REC_WORD	2490615	wordpools/wasnorm_wordpool_576.txt	LTP347	ltpFR2	16	5	BABY	64	n/a	n/a	0	0	0
1216.7021484375	n/a	REC_WORD	2491806	wordpools/wasnorm_wordpool_576.txt	LTP347	ltpFR2	16	5	CROSS	413	n/a	n/a	0	0	0
1217.435546875	n/a	REC_WORD	2493308	wordpools/wasnorm_wordpool_576.txt	LTP347	ltpFR2	16	5	MONEY	908	n/a	n/a	0	0	0
1218.66162109375	n/a	REC_WORD	2495819	wordpools/wasnorm_wordpool_576.txt	LTP347	ltpFR2	16	5	CONTRACT	368	n/a	n/a	0	0	0
1219.4501953125	n/a	REC_WORD	2497434	wordpools/wasnorm_wordpool_576.txt	LTP347	ltpFR2	16	5	BRANDY	169	n/a	n/a	0	0	0
1220.04248046875	n/a	REC_WORD	2498647	wordpools/wasnorm_wordpool_576.txt	LTP347	ltpFR2	16	5	WAGON	1578	n/a	n/a	0	0	0
1223.70849609375	n/a	REC_WORD	2506155	wordpools/wasnorm_wordpool_576.txt	LTP347	ltpFR2	16	5	STAR	1373	n/a	n/a	0	0	0
1224.5302734375	n/a	REC_WORD	2507838	wordpools/wasnorm_wordpool_576.txt	LTP347	ltpFR2	16	5	COMET	353	n/a	n/a	0	0	0
1225.45556640625	n/a	REC_WORD	2509733	wordpools/wasnorm_wordpool_576.txt	LTP347	ltpFR2	16	5	INFANT	737	n/a	n/a	0	0	0
1232.6396484375	n/a	REC_WORD	2524446	wordpools/wasnorm_wordpool_576.txt	LTP347	ltpFR2	16	5	CURTAIN	427	n/a	n/a	0	0	0
1233.197265625	n/a	REC_WORD	2525588	wordpools/wasnorm_wordpool_576.txt	LTP347	ltpFR2	16	5	RAZOR	1171	n/a	n/a	0	0	0
1233.6953125	n/a	REC_WORD	2526608	wordpools/wasnorm_wordpool_576.txt	LTP347	ltpFR2	16	5	ZIPPER	1636	n/a	n/a	0	0	0
1246.517578125	n/a	REC_WORD	2552868	wordpools/wasnorm_wordpool_576.txt	LTP347	ltpFR2	16	5	INMATE	738	n/a	n/a	0	0	0
1248.71142578125	n/a	REC_WORD	2557361	wordpools/wasnorm_wordpool_576.txt	LTP347	ltpFR2	16	5	SADDLE	1221	n/a	n/a	0	0	0
1249.50048828125	n/a	REC_WORD	2558977	wordpools/wasnorm_wordpool_576.txt	LTP347	ltpFR2	16	5	GUARD	667	n/a	n/a	0	0	0
1298.02490234375	n/a	DISTRACTOR	2658355	n/a	LTP347	ltpFR2	16	6	n/a	n/a	n/a	n/a	0	0	0
1298.02490234375	n/a	START	2658355	n/a	LTP347	ltpFR2	16	n/a	n/a	n/a	7	n/a	n/a	n/a	n/a
1298.0419921875	n/a	PROB	2658390	n/a	LTP347	ltpFR2	16	n/a	n/a	n/a	7	21	4	9	8
1299.74072265625	n/a	PROB	2661869	n/a	LTP347	ltpFR2	16	n/a	n/a	n/a	7	13	3	1	9
1301.02392578125	n/a	PROB	2664497	n/a	LTP347	ltpFR2	16	n/a	n/a	n/a	7	12	1	5	6
1302.27294921875	n/a	PROB	2667055	n/a	LTP347	ltpFR2	16	n/a	n/a	n/a	7	13	1	5	7
1304.6220703125	n/a	PROB	2671866	n/a	LTP347	ltpFR2	16	n/a	n/a	n/a	7	18	3	8	7
1306.73681640625	n/a	PROB	2676197	n/a	LTP347	ltpFR2	16	n/a	n/a	n/a	7	12	5	5	2
1308.06982421875	n/a	PROB	2678927	n/a	LTP347	ltpFR2	16	n/a	n/a	n/a	7	15	3	6	6
1309.60302734375	n/a	PROB	2682067	n/a	LTP347	ltpFR2	16	n/a	n/a	n/a	7	16	4	4	6
1311.001953125	n/a	PROB	2684932	n/a	LTP347	ltpFR2	16	n/a	n/a	n/a	7	12	3	8	1
1312.68408203125	n/a	PROB	2688377	n/a	LTP347	ltpFR2	16	n/a	n/a	n/a	7	21	9	8	4
1314.51708984375	n/a	PROB	2692131	n/a	LTP347	ltpFR2	16	n/a	n/a	n/a	7	13	6	6	1
1316.51611328125	n/a	PROB	2696225	n/a	LTP347	ltpFR2	16	n/a	n/a	n/a	7	14	5	3	6
1318.916015625	n/a	PROB	2701140	n/a	LTP347	ltpFR2	16	n/a	n/a	n/a	7	19	8	2	9
1322.02392578125	n/a	STOP	2707505	n/a	LTP347	ltpFR2	16	n/a	n/a	n/a	7	n/a	n/a	n/a	n/a
1323.0791015625	n/a	WORD	2709666	wordpools/wasnorm_wordpool_576.txt	LTP347	ltpFR2	16	6	OYSTER	995	n/a	n/a	0	0	0
1325.861328125	n/a	WORD	2715364	wordpools/wasnorm_wordpool_576.txt	LTP347	ltpFR2	16	6	SPOOL	1356	n/a	n/a	0	0	0
1328.41015625	n/a	WORD	2720584	wordpools/wasnorm_wordpool_576.txt	LTP347	ltpFR2	16	6	CREATURE	403	n/a	n/a	0	0	0
1330.84228515625	n/a	WORD	2725565	wordpools/wasnorm_wordpool_576.txt	LTP347	ltpFR2	16	6	TRACTOR	1493	n/a	n/a	0	0	0
1333.50732421875	n/a	WORD	2731023	wordpools/wasnorm_wordpool_576.txt	LTP347	ltpFR2	16	6	WIFE	1609	n/a	n/a	0	0	0
1336.2392578125	n/a	WORD	2736618	wordpools/wasnorm_wordpool_576.txt	LTP347	ltpFR2	16	6	SLIME	1327	n/a	n/a	0	0	0
1338.83837890625	n/a	WORD	2741941	wordpools/wasnorm_wordpool_576.txt	LTP347	ltpFR2	16	6	LAGOON	795	n/a	n/a	0	0	0
1341.43701171875	n/a	WORD	2747263	wordpools/wasnorm_wordpool_576.txt	LTP347	ltpFR2	16	6	CHEST	295	n/a	n/a	0	0	0
1343.9521484375	n/a	WORD	2752414	wordpools/wasnorm_wordpool_576.txt	LTP347	ltpFR2	16	6	CASHEW	253	n/a	n/a	0	0	0
1346.5341796875	n/a	WORD	2757702	wordpools/wasnorm_wordpool_576.txt	LTP347	ltpFR2	16	6	SPHINX	1349	n/a	n/a	0	0	0
1349.033203125	n/a	WORD	2762820	wordpools/wasnorm_wordpool_576.txt	LTP347	ltpFR2	16	6	PIZZA	1079	n/a	n/a	0	0	0
1351.5322265625	n/a	WORD	2767938	wordpools/wasnorm_wordpool_576.txt	LTP347	ltpFR2	16	6	MARROW	872	n/a	n/a	0	0	0
1354.197265625	n/a	WORD	2773396	wordpools/wasnorm_wordpool_576.txt	LTP347	ltpFR2	16	6	MEDAL	885	n/a	n/a	0	0	0
1356.91455078125	n/a	WORD	2778961	wordpools/wasnorm_wordpool_576.txt	LTP347	ltpFR2	16	6	DONOR	485	n/a	n/a	0	0	0
1359.71142578125	n/a	WORD	2784689	wordpools/wasnorm_wordpool_576.txt	LTP347	ltpFR2	16	6	LEADER	807	n/a	n/a	0	0	0
1362.4765625	n/a	WORD	2790352	wordpools/wasnorm_wordpool_576.txt	LTP347	ltpFR2	16	6	OINTMENT	974	n/a	n/a	0	0	0
1365.1923828125	n/a	WORD	2795914	wordpools/wasnorm_wordpool_576.txt	LTP347	ltpFR2	16	6	DRUG	501	n/a	n/a	0	0	0
1367.95751953125	n/a	WORD	2801577	wordpools/wasnorm_wordpool_576.txt	LTP347	ltpFR2	16	6	CASKET	255	n/a	n/a	0	0	0
1370.67236328125	n/a	WORD	2807137	wordpools/wasnorm_wordpool_576.txt	LTP347	ltpFR2	16	6	ACTRESS	6	n/a	n/a	0	0	0
1373.4384765625	n/a	WORD	2812802	wordpools/wasnorm_wordpool_576.txt	LTP347	ltpFR2	16	6	GROUND	666	n/a	n/a	0	0	0
1376.236328125	n/a	WORD	2818532	wordpools/wasnorm_wordpool_576.txt	LTP347	ltpFR2	16	6	FUNGUS	614	n/a	n/a	0	0	0
1378.83544921875	n/a	WORD	2823855	wordpools/wasnorm_wordpool_576.txt	LTP347	ltpFR2	16	6	WIDOW	1608	n/a	n/a	0	0	0
1381.30029296875	n/a	WORD	2828903	wordpools/wasnorm_wordpool_576.txt	LTP347	ltpFR2	16	6	WASP	1593	n/a	n/a	0	0	0
1383.982421875	n/a	WORD	2834396	wordpools/wasnorm_wordpool_576.txt	LTP347	ltpFR2	16	6	HONEY	713	n/a	n/a	0	0	0
1385.599609375	n/a	START	2837708	n/a	LTP347	ltpFR2	16	n/a	n/a	n/a	8	n/a	n/a	n/a	n/a
1386.771484375	n/a	DISTRACTOR	2840108	n/a	LTP347	ltpFR2	16	6	n/a	n/a	n/a	n/a	0	0	0
1386.78173828125	n/a	PROB	2840129	n/a	LTP347	ltpFR2	16	n/a	n/a	n/a	8	15	5	1	9
1388.38037109375	n/a	PROB	2843403	n/a	LTP347	ltpFR2	16	n/a	n/a	n/a	8	15	4	6	5
1389.646484375	n/a	PROB	2845996	n/a	LTP347	ltpFR2	16	n/a	n/a	n/a	8	12	1	7	5
1391.21240234375	n/a	PROB	2849203	n/a	LTP347	ltpFR2	16	n/a	n/a	n/a	8	13	8	1	4
1392.61181640625	n/a	PROB	2852069	n/a	LTP347	ltpFR2	16	n/a	n/a	n/a	8	12	6	2	4
1394.29443359375	n/a	PROB	2855515	n/a	LTP347	ltpFR2	16	n/a	n/a	n/a	8	9	5	2	2
1395.96044921875	n/a	PROB	2858927	n/a	LTP347	ltpFR2	16	n/a	n/a	n/a	8	14	5	6	3
1398.8427734375	n/a	PROB	2864830	n/a	LTP347	ltpFR2	16	n/a	n/a	n/a	8	19	6	4	9
1400.1748046875	n/a	PROB	2867558	n/a	LTP347	ltpFR2	16	n/a	n/a	n/a	8	13	5	3	6
1403.20654296875	n/a	PROB	2873767	n/a	LTP347	ltpFR2	16	n/a	n/a	n/a	8	15	5	3	7
1405.3056640625	n/a	PROB	2878066	n/a	LTP347	ltpFR2	16	n/a	n/a	n/a	8	9	2	2	5
1406.62158203125	n/a	PROB	2880761	n/a	LTP347	ltpFR2	16	n/a	n/a	n/a	8	13	3	6	4
1409.599609375	n/a	STOP	2886860	n/a	LTP347	ltpFR2	16	n/a	n/a	n/a	8	n/a	n/a	n/a	n/a
1411.4365234375	n/a	REC_START	2890622	n/a	LTP347	ltpFR2	16	6	n/a	n/a	n/a	n/a	0	0	0
1411.974609375	n/a	REC_WORD	2891724	wordpools/wasnorm_wordpool_576.txt	LTP347	ltpFR2	16	6	WIDOW	1608	n/a	n/a	0	0	0
1412.65380859375	n/a	REC_WORD	2893115	wordpools/wasnorm_wordpool_576.txt	LTP347	ltpFR2	16	6	WASP	1593	n/a	n/a	0	0	0
1413.28955078125	n/a	REC_WORD	2894417	wordpools/wasnorm_wordpool_576.txt	LTP347	ltpFR2	16	6	HONEY	713	n/a	n/a	0	0	0
1417.82373046875	n/a	REC_WORD	2903703	wordpools/wasnorm_wordpool_576.txt	LTP347	ltpFR2	16	6	DRUG	501	n/a	n/a	0	0	0
1418.24267578125	n/a	REC_WORD	2904561	wordpools/wasnorm_wordpool_576.txt	LTP347	ltpFR2	16	6	OINTMENT	974	n/a	n/a	0	0	0
1418.7236328125	n/a	REC_WORD	2905546	wordpools/wasnorm_wordpool_576.txt	LTP347	ltpFR2	16	6	CASKET	255	n/a	n/a	0	0	0
1456.98095703125	n/a	REC_WORD	2983897	wordpools/wasnorm_wordpool_576.txt	LTP347	ltpFR2	16	6	OYSTER	995	n/a	n/a	0	0	0
1457.42724609375	n/a	REC_WORD	2984811	wordpools/wasnorm_wordpool_576.txt	LTP347	ltpFR2	16	6	SPOOL	1356	n/a	n/a	0	0	0
1458.02685546875	n/a	REC_WORD	2986039	wordpools/wasnorm_wordpool_576.txt	LTP347	ltpFR2	16	6	CREATURE	403	n/a	n/a	0	0	0
1501.89111328125	n/a	DISTRACTOR	3075873	n/a	LTP347	ltpFR2	16	7	n/a	n/a	n/a	n/a	0	0	0
1501.892578125	n/a	START	3075876	n/a	LTP347	ltpFR2	16	n/a	n/a	n/a	9	n/a	n/a	n/a	n/a
1501.908203125	n/a	PROB	3075908	n/a	LTP347	ltpFR2	16	n/a	n/a	n/a	9	16	1	7	8
1503.29150390625	n/a	PROB	3078741	n/a	LTP347	ltpFR2	16	n/a	n/a	n/a	9	7	4	1	2
1504.5732421875	n/a	PROB	3081366	n/a	LTP347	ltpFR2	16	n/a	n/a	n/a	9	14	2	3	9
1506.90625	n/a	PROB	3086144	n/a	LTP347	ltpFR2	16	n/a	n/a	n/a	9	23	9	6	8
1508.38818359375	n/a	PROB	3089179	n/a	LTP347	ltpFR2	16	n/a	n/a	n/a	9	13	7	2	4
1510.2373046875	n/a	PROB	3092966	n/a	LTP347	ltpFR2	16	n/a	n/a	n/a	9	23	7	7	9
1512.5205078125	n/a	PROB	3097642	n/a	LTP347	ltpFR2	16	n/a	n/a	n/a	9	13	7	5	1
1514.16943359375	n/a	PROB	3101019	n/a	LTP347	ltpFR2	16	n/a	n/a	n/a	9	13	1	9	3
1515.4853515625	n/a	PROB	3103714	n/a	LTP347	ltpFR2	16	n/a	n/a	n/a	9	19	7	8	4
1517.484375	n/a	PROB	3107808	n/a	LTP347	ltpFR2	16	n/a	n/a	n/a	9	13	4	8	1
1522.3486328125	n/a	PROB	3117770	n/a	LTP347	ltpFR2	16	n/a	n/a	n/a	9	25	8	8	9
1524.58056640625	n/a	STOP	3122341	n/a	LTP347	ltpFR2	16	n/a	n/a	n/a	9	n/a	n/a	n/a	n/a
1526.79638671875	n/a	WORD	3126879	wordpools/wasnorm_wordpool_576.txt	LTP347	ltpFR2	16	7	SWITCH	1422	n/a	n/a	0	0	0
1529.3115234375	n/a	WORD	3132030	wordpools/wasnorm_wordpool_576.txt	LTP347	ltpFR2	16	7	CABBAGE	210	n/a	n/a	0	0	0
1531.9775390625	n/a	WORD	3137490	wordpools/wasnorm_wordpool_576.txt	LTP347	ltpFR2	16	7	TURNIP	1521	n/a	n/a	0	0	0
1534.70947265625	n/a	WORD	3143085	wordpools/wasnorm_wordpool_576.txt	LTP347	ltpFR2	16	7	ROBOT	1200	n/a	n/a	0	0	0
1537.390625	n/a	WORD	3148576	wordpools/wasnorm_wordpool_576.txt	LTP347	ltpFR2	16	7	WRENCH	1625	n/a	n/a	0	0	0
1539.87353515625	n/a	WORD	3153661	wordpools/wasnorm_wordpool_576.txt	LTP347	ltpFR2	16	7	CLOCK	325	n/a	n/a	0	0	0
1542.60546875	n/a	WORD	3159256	wordpools/wasnorm_wordpool_576.txt	LTP347	ltpFR2	16	7	CHAMPAGNE	278	n/a	n/a	0	0	0
1545.07080078125	n/a	WORD	3164305	wordpools/wasnorm_wordpool_576.txt	LTP347	ltpFR2	16	7	GAVEL	627	n/a	n/a	0	0	0
1547.802734375	n/a	WORD	3169900	wordpools/wasnorm_wordpool_576.txt	LTP347	ltpFR2	16	7	TRUCK	1512	n/a	n/a	0	0	0
1550.40185546875	n/a	WORD	3175223	wordpools/wasnorm_wordpool_576.txt	LTP347	ltpFR2	16	7	FOOTBALL	591	n/a	n/a	0	0	0
1552.8837890625	n/a	WORD	3180306	wordpools/wasnorm_wordpool_576.txt	LTP347	ltpFR2	16	7	MAPLE	866	n/a	n/a	0	0	0
1555.3828125	n/a	WORD	3185424	wordpools/wasnorm_wordpool_576.txt	LTP347	ltpFR2	16	7	FREEZER	604	n/a	n/a	0	0	0
1558.130859375	n/a	WORD	3191052	wordpools/wasnorm_wordpool_576.txt	LTP347	ltpFR2	16	7	SWORD	1423	n/a	n/a	0	0	0
1560.6298828125	n/a	WORD	3196170	wordpools/wasnorm_wordpool_576.txt	LTP347	ltpFR2	16	7	CRIB	407	n/a	n/a	0	0	0
1563.3447265625	n/a	WORD	3201730	wordpools/wasnorm_wordpool_576.txt	LTP347	ltpFR2	16	7	MAMMAL	861	n/a	n/a	0	0	0
1566.0439453125	n/a	WORD	3207258	wordpools/wasnorm_wordpool_576.txt	LTP347	ltpFR2	16	7	TABLET	1427	n/a	n/a	0	0	0
1568.85888671875	n/a	WORD	3213023	wordpools/wasnorm_wordpool_576.txt	LTP347	ltpFR2	16	7	JOURNAL	760	n/a	n/a	0	0	0
1571.6748046875	n/a	WORD	3218790	wordpools/wasnorm_wordpool_576.txt	LTP347	ltpFR2	16	7	GHETTO	633	n/a	n/a	0	0	0
1574.33984375	n/a	WORD	3224248	wordpools/wasnorm_wordpool_576.txt	LTP347	ltpFR2	16	7	CANAL	226	n/a	n/a	0	0	0
1577.0390625	n/a	WORD	3229776	wordpools/wasnorm_wordpool_576.txt	LTP347	ltpFR2	16	7	FLASK	576	n/a	n/a	0	0	0
1579.8037109375	n/a	WORD	3235438	wordpools/wasnorm_wordpool_576.txt	LTP347	ltpFR2	16	7	DINER	467	n/a	n/a	0	0	0
1582.60205078125	n/a	WORD	3241169	wordpools/wasnorm_wordpool_576.txt	LTP347	ltpFR2	16	7	PICNIC	1060	n/a	n/a	0	0	0
1585.11767578125	n/a	WORD	3246321	wordpools/wasnorm_wordpool_576.txt	LTP347	ltpFR2	16	7	GREASE	660	n/a	n/a	0	0	0
1587.76611328125	n/a	WORD	3251745	wordpools/wasnorm_wordpool_576.txt	LTP347	ltpFR2	16	7	SEAL	1262	n/a	n/a	0	0	0
1589.3828125	n/a	START	3255056	n/a	LTP347	ltpFR2	16	n/a	n/a	n/a	10	n/a	n/a	n/a	n/a
1590.48876953125	n/a	DISTRACTOR	3257321	n/a	LTP347	ltpFR2	16	7	n/a	n/a	n/a	n/a	0	0	0
1590.4990234375	n/a	PROB	3257342	n/a	LTP347	ltpFR2	16	n/a	n/a	n/a	10	17	4	8	5
1593.06396484375	n/a	PROB	3262595	n/a	LTP347	ltpFR2	16	n/a	n/a	n/a	10	17	9	1	7
1594.4130859375	n/a	PROB	3265358	n/a	LTP347	ltpFR2	16	n/a	n/a	n/a	10	8	3	1	4
1595.712890625	n/a	PROB	3268020	n/a	LTP347	ltpFR2	16	n/a	n/a	n/a	10	10	1	3	6
1597.17822265625	n/a	PROB	3271021	n/a	LTP347	ltpFR2	16	n/a	n/a	n/a	10	27	9	9	9
1598.56103515625	n/a	PROB	3273853	n/a	LTP347	ltpFR2	16	n/a	n/a	n/a	10	14	3	3	8
1600.56005859375	n/a	PROB	3277947	n/a	LTP347	ltpFR2	16	n/a	n/a	n/a	10	18	2	7	9
1602.0087890625	n/a	PROB	3280914	n/a	LTP347	ltpFR2	16	n/a	n/a	n/a	10	19	8	7	4
1603.39208984375	n/a	PROB	3283747	n/a	LTP347	ltpFR2	16	n/a	n/a	n/a	10	14	5	7	2
1604.9912109375	n/a	PROB	3287022	n/a	LTP347	ltpFR2	16	n/a	n/a	n/a	10	13	4	7	1
1606.423828125	n/a	PROB	3289956	n/a	LTP347	ltpFR2	16	n/a	n/a	n/a	10	17	6	3	8
1608.68896484375	n/a	PROB	3294595	n/a	LTP347	ltpFR2	16	n/a	n/a	n/a	10	13	4	5	4
1611.48828125	n/a	PROB	3300328	n/a	LTP347	ltpFR2	16	n/a	n/a	n/a	10	15	4	4	7
1612.80517578125	n/a	STOP	3303025	n/a	LTP347	ltpFR2	16	n/a	n/a	n/a	10	n/a	n/a	n/a	n/a
1615.30322265625	n/a	REC_START	3308141	n/a	LTP347	ltpFR2	16	7	n/a	n/a	n/a	n/a	0	0	0
1616.96533203125	n/a	REC_WORD	3311545	wordpools/wasnorm_wordpool_576.txt	LTP347	ltpFR2	16	7	MAMMAL	861	n/a	n/a	0	0	0
1617.55126953125	n/a	REC_WORD	3312745	wordpools/wasnorm_wordpool_576.txt	LTP347	ltpFR2	16	7	SWITCH	1422	n/a	n/a	0	0	0
1618.3759765625	n/a	REC_WORD	3314434	wordpools/wasnorm_wordpool_576.txt	LTP347	ltpFR2	16	7	CABBAGE	210	n/a	n/a	0	0	0
1618.986328125	n/a	REC_WORD	3315684	wordpools/wasnorm_wordpool_576.txt	LTP347	ltpFR2	16	7	TURNIP	1521	n/a	n/a	0	0	0
1627.326171875	n/a	REC_WORD_VV	3332764	wordpools/wasnorm_wordpool_576.txt	LTP347	ltpFR2	16	7	<>	-1	n/a	n/a	0	0	0
1632.21533203125	n/a	REC_WORD	3342777	wordpools/wasnorm_wordpool_576.txt	LTP347	ltpFR2	16	7	MILK	895	n/a	n/a	0	0	0
1705.7587890625	n/a	DISTRACTOR	3493394	n/a	LTP347	ltpFR2	16	8	n/a	n/a	n/a	n/a	0	0	0
1705.7587890625	n/a	START	3493394	n/a	LTP347	ltpFR2	16	n/a	n/a	n/a	11	n/a	n/a	n/a	n/a
1705.77490234375	n/a	PROB	3493427	n/a	LTP347	ltpFR2	16	n/a	n/a	n/a	11	18	4	8	6
1707.390625	n/a	PROB	3496736	n/a	LTP347	ltpFR2	16	n/a	n/a	n/a	11	26	8	9	9
1709.52392578125	n/a	PROB	3501105	n/a	LTP347	ltpFR2	16	n/a	n/a	n/a	11	18	8	1	9
1710.6728515625	n/a	PROB	3503458	n/a	LTP347	ltpFR2	16	n/a	n/a	n/a	11	27	9	9	9
1712.005859375	n/a	PROB	3506188	n/a	LTP347	ltpFR2	16	n/a	n/a	n/a	11	13	4	6	3
1713.45458984375	n/a	PROB	3509155	n/a	LTP347	ltpFR2	16	n/a	n/a	n/a	11	16	6	6	4
1714.85400390625	n/a	PROB	3512021	n/a	LTP347	ltpFR2	16	n/a	n/a	n/a	11	16	3	8	5
1716.9697265625	n/a	PROB	3516354	n/a	LTP347	ltpFR2	16	n/a	n/a	n/a	11	7	2	2	3
1718.70263671875	n/a	PROB	3519903	n/a	LTP347	ltpFR2	16	n/a	n/a	n/a	11	16	7	6	3
1720.41796875	n/a	PROB	3523416	n/a	LTP347	ltpFR2	16	n/a	n/a	n/a	11	14	8	3	3
1723.216796875	n/a	PROB	3529148	n/a	LTP347	ltpFR2	16	n/a	n/a	n/a	11	17	4	7	6
1725.7490234375	n/a	PROB	3534334	n/a	LTP347	ltpFR2	16	n/a	n/a	n/a	11	15	2	5	8
1727.4306640625	n/a	PROB	3537778	n/a	LTP347	ltpFR2	16	n/a	n/a	n/a	11	12	9	2	1
1728.8779296875	n/a	STOP	3540742	n/a	LTP347	ltpFR2	16	n/a	n/a	n/a	11	n/a	n/a	n/a	n/a
1730.7958984375	n/a	WORD	3544670	wordpools/wasnorm_wordpool_576.txt	LTP347	ltpFR2	16	8	BISON	131	n/a	n/a	0	0	0
1733.39501953125	n/a	WORD	3549993	wordpools/wasnorm_wordpool_576.txt	LTP347	ltpFR2	16	8	FLESH	579	n/a	n/a	0	0	0
1736.09375	n/a	WORD	3555520	wordpools/wasnorm_wordpool_576.txt	LTP347	ltpFR2	16	8	MEAT	883	n/a	n/a	0	0	0
1738.576171875	n/a	WORD	3560604	wordpools/wasnorm_wordpool_576.txt	LTP347	ltpFR2	16	8	TUNNEL	1519	n/a	n/a	0	0	0
1741.39111328125	n/a	WORD	3566369	wordpools/wasnorm_wordpool_576.txt	LTP347	ltpFR2	16	8	PAIL	1002	n/a	n/a	0	0	0
1743.83984375	n/a	WORD	3571384	wordpools/wasnorm_wordpool_576.txt	LTP347	ltpFR2	16	8	BEAST	108	n/a	n/a	0	0	0
1746.43896484375	n/a	WORD	3576707	wordpools/wasnorm_wordpool_576.txt	LTP347	ltpFR2	16	8	CLAM	315	n/a	n/a	0	0	0
1749.02099609375	n/a	WORD	3581995	wordpools/wasnorm_wordpool_576.txt	LTP347	ltpFR2	16	8	VALVE	1546	n/a	n/a	0	0	0
1751.5859375	n/a	WORD	3587248	wordpools/wasnorm_wordpool_576.txt	LTP347	ltpFR2	16	8	LONDON	843	n/a	n/a	0	0	0
1754.18505859375	n/a	WORD	3592571	wordpools/wasnorm_wordpool_576.txt	LTP347	ltpFR2	16	8	PORK	1108	n/a	n/a	0	0	0
1756.73388671875	n/a	WORD	3597791	wordpools/wasnorm_wordpool_576.txt	LTP347	ltpFR2	16	8	SAUSAGE	1238	n/a	n/a	0	0	0
1759.34912109375	n/a	WORD	3603147	wordpools/wasnorm_wordpool_576.txt	LTP347	ltpFR2	16	8	VIRUS	1572	n/a	n/a	0	0	0
1762.06396484375	n/a	WORD	3608707	wordpools/wasnorm_wordpool_576.txt	LTP347	ltpFR2	16	8	GLASS	639	n/a	n/a	0	0	0
1764.59619140625	n/a	WORD	3613893	wordpools/wasnorm_wordpool_576.txt	LTP347	ltpFR2	16	8	GUITAR	670	n/a	n/a	0	0	0
1767.31201171875	n/a	WORD	3619455	wordpools/wasnorm_wordpool_576.txt	LTP347	ltpFR2	16	8	JAPAN	749	n/a	n/a	0	0	0
1769.91015625	n/a	WORD	3624776	wordpools/wasnorm_wordpool_576.txt	LTP347	ltpFR2	16	8	KLEENEX	782	n/a	n/a	0	0	0
1772.3759765625	n/a	WORD	3629826	wordpools/wasnorm_wordpool_576.txt	LTP347	ltpFR2	16	8	LEOPARD	812	n/a	n/a	0	0	0
1775.07421875	n/a	WORD	3635352	wordpools/wasnorm_wordpool_576.txt	LTP347	ltpFR2	16	8	MUFFIN	929	n/a	n/a	0	0	0
1777.7734375	n/a	WORD	3640880	wordpools/wasnorm_wordpool_576.txt	LTP347	ltpFR2	16	8	TYPIST	1532	n/a	n/a	0	0	0
1780.2724609375	n/a	WORD	3645998	wordpools/wasnorm_wordpool_576.txt	LTP347	ltpFR2	16	8	TRENCH	1503	n/a	n/a	0	0	0
1782.7041015625	n/a	WORD	3650978	wordpools/wasnorm_wordpool_576.txt	LTP347	ltpFR2	16	8	SHORTCAKE	1292	n/a	n/a	0	0	0
1785.2861328125	n/a	WORD	3656266	wordpools/wasnorm_wordpool_576.txt	LTP347	ltpFR2	16	8	APPLE	33	n/a	n/a	0	0	0
1788.05126953125	n/a	WORD	3661929	wordpools/wasnorm_wordpool_576.txt	LTP347	ltpFR2	16	8	ASIA	46	n/a	n/a	0	0	0
1790.51708984375	n/a	WORD	3666979	wordpools/wasnorm_wordpool_576.txt	LTP347	ltpFR2	16	8	ARM	38	n/a	n/a	0	0	0
1792.13330078125	n/a	START	3670289	n/a	LTP347	ltpFR2	16	n/a	n/a	n/a	12	n/a	n/a	n/a	n/a
1793.2353515625	n/a	DISTRACTOR	3672546	n/a	LTP347	ltpFR2	16	8	n/a	n/a	n/a	n/a	0	0	0
1793.24951171875	n/a	PROB	3672575	n/a	LTP347	ltpFR2	16	n/a	n/a	n/a	12	14	8	3	3
1795.09814453125	n/a	PROB	3676361	n/a	LTP347	ltpFR2	16	n/a	n/a	n/a	12	19	6	9	4
1796.6474609375	n/a	PROB	3679534	n/a	LTP347	ltpFR2	16	n/a	n/a	n/a	12	23	9	5	9
1798.5634765625	n/a	PROB	3683458	n/a	LTP347	ltpFR2	16	n/a	n/a	n/a	12	18	7	5	6
1800.04541015625	n/a	PROB	3686493	n/a	LTP347	ltpFR2	16	n/a	n/a	n/a	12	19	4	7	8
1801.611328125	n/a	PROB	3689700	n/a	LTP347	ltpFR2	16	n/a	n/a	n/a	12	20	8	6	6
1803.41064453125	n/a	PROB	3693385	n/a	LTP347	ltpFR2	16	n/a	n/a	n/a	12	16	4	6	6
1804.71044921875	n/a	PROB	3696047	n/a	LTP347	ltpFR2	16	n/a	n/a	n/a	12	18	6	3	9
1806.775390625	n/a	PROB	3700276	n/a	LTP347	ltpFR2	16	n/a	n/a	n/a	12	18	5	5	8
1808.17529296875	n/a	PROB	3703143	n/a	LTP347	ltpFR2	16	n/a	n/a	n/a	12	12	2	2	8
1809.42431640625	n/a	PROB	3705701	n/a	LTP347	ltpFR2	16	n/a	n/a	n/a	12	16	7	1	8
1811.17333984375	n/a	PROB	3709283	n/a	LTP347	ltpFR2	16	n/a	n/a	n/a	12	17	9	7	1
1813.3896484375	n/a	PROB	3713822	n/a	LTP347	ltpFR2	16	n/a	n/a	n/a	12	12	6	5	1
1814.654296875	n/a	STOP	3716412	n/a	LTP347	ltpFR2	16	n/a	n/a	n/a	12	n/a	n/a	n/a	n/a
1818.00439453125	n/a	REC_START	3723273	n/a	LTP347	ltpFR2	16	8	n/a	n/a	n/a	n/a	0	0	0
1821.7294921875	n/a	REC_WORD	3730902	wordpools/wasnorm_wordpool_576.txt	LTP347	ltpFR2	16	8	ASIA	46	n/a	n/a	0	0	0
1822.314453125	n/a	REC_WORD	3732100	wordpools/wasnorm_wordpool_576.txt	LTP347	ltpFR2	16	8	APPLE	33	n/a	n/a	0	0	0
1831.21240234375	n/a	REC_WORD	3750323	wordpools/wasnorm_wordpool_576.txt	LTP347	ltpFR2	16	8	BISON	131	n/a	n/a	0	0	0
1831.771484375	n/a	REC_WORD	3751468	wordpools/wasnorm_wordpool_576.txt	LTP347	ltpFR2	16	8	FLESH	579	n/a	n/a	0	0	0
1832.32763671875	n/a	REC_WORD	3752607	wordpools/wasnorm_wordpool_576.txt	LTP347	ltpFR2	16	8	MEAT	883	n/a	n/a	0	0	0
1833.275390625	n/a	REC_WORD	3754548	wordpools/wasnorm_wordpool_576.txt	LTP347	ltpFR2	16	8	LEOPARD	812	n/a	n/a	0	0	0
1834.107421875	n/a	REC_WORD	3756252	wordpools/wasnorm_wordpool_576.txt	LTP347	ltpFR2	16	8	KLEENEX	782	n/a	n/a	0	0	0
1835.25439453125	n/a	REC_WORD	3758601	wordpools/wasnorm_wordpool_576.txt	LTP347	ltpFR2	16	8	MUFFIN	929	n/a	n/a	0	0	0
1855.4208984375	n/a	REC_WORD	3799902	wordpools/wasnorm_wordpool_576.txt	LTP347	ltpFR2	16	8	TURKEY	1520	n/a	n/a	0	0	0
1855.884765625	n/a	REC_WORD	3800852	wordpools/wasnorm_wordpool_576.txt	LTP347	ltpFR2	16	8	SAUSAGE	1238	n/a	n/a	0	0	0
1858.08154296875	n/a	REC_WORD	3805351	wordpools/wasnorm_wordpool_576.txt	LTP347	ltpFR2	16	8	POISON	1096	n/a	n/a	0	0	0
1894.548828125	n/a	REST_REWET	3880036	n/a	LTP347	ltpFR2	16	8	n/a	n/a	n/a	n/a	0	0	0
2024.619140625	n/a	WORD	4146420	wordpools/wasnorm_wordpool_576.txt	LTP347	ltpFR2	16	9	MARS	873	n/a	n/a	0	0	0
2027.1181640625	n/a	WORD	4151538	wordpools/wasnorm_wordpool_576.txt	LTP347	ltpFR2	16	9	CRATER	400	n/a	n/a	0	0	0
2029.93408203125	n/a	WORD	4157305	wordpools/wasnorm_wordpool_576.txt	LTP347	ltpFR2	16	9	SHOULDER	1294	n/a	n/a	0	0	0
2032.59912109375	n/a	WORD	4162763	wordpools/wasnorm_wordpool_576.txt	LTP347	ltpFR2	16	9	HUSBAND	728	n/a	n/a	0	0	0
2035.18115234375	n/a	WORD	4168051	wordpools/wasnorm_wordpool_576.txt	LTP347	ltpFR2	16	9	COOK	372	n/a	n/a	0	0	0
2037.89599609375	n/a	WORD	4173611	wordpools/wasnorm_wordpool_576.txt	LTP347	ltpFR2	16	9	VENUS	1557	n/a	n/a	0	0	0
2040.51123046875	n/a	WORD	4178967	wordpools/wasnorm_wordpool_576.txt	LTP347	ltpFR2	16	9	COCOON	339	n/a	n/a	0	0	0
2043.19287109375	n/a	WORD	4184459	wordpools/wasnorm_wordpool_576.txt	LTP347	ltpFR2	16	9	CITRUS	313	n/a	n/a	0	0	0
2045.9091796875	n/a	WORD	4190022	wordpools/wasnorm_wordpool_576.txt	LTP347	ltpFR2	16	9	DONKEY	484	n/a	n/a	0	0	0
2048.72412109375	n/a	WORD	4195787	wordpools/wasnorm_wordpool_576.txt	LTP347	ltpFR2	16	9	PATROL	1027	n/a	n/a	0	0	0
2051.43896484375	n/a	WORD	4201347	wordpools/wasnorm_wordpool_576.txt	LTP347	ltpFR2	16	9	ROD	1203	n/a	n/a	0	0	0
2053.92236328125	n/a	WORD	4206433	wordpools/wasnorm_wordpool_576.txt	LTP347	ltpFR2	16	9	DRAWING	494	n/a	n/a	0	0	0
2056.63720703125	n/a	WORD	4211993	wordpools/wasnorm_wordpool_576.txt	LTP347	ltpFR2	16	9	STALLION	1369	n/a	n/a	0	0	0
2059.4189453125	n/a	WORD	4217690	wordpools/wasnorm_wordpool_576.txt	LTP347	ltpFR2	16	9	BARLEY	88	n/a	n/a	0	0	0
2061.91796875	n/a	WORD	4222808	wordpools/wasnorm_wordpool_576.txt	LTP347	ltpFR2	16	9	CAPTIVE	240	n/a	n/a	0	0	0
2064.54931640625	n/a	WORD	4228197	wordpools/wasnorm_wordpool_576.txt	LTP347	ltpFR2	16	9	NEUTRON	947	n/a	n/a	0	0	0
2066.998046875	n/a	WORD	4233212	wordpools/wasnorm_wordpool_576.txt	LTP347	ltpFR2	16	9	SLUG	1329	n/a	n/a	0	0	0
2069.6142578125	n/a	WORD	4238570	wordpools/wasnorm_wordpool_576.txt	LTP347	ltpFR2	16	9	CHEMIST	292	n/a	n/a	0	0	0
2072.17919921875	n/a	WORD	4243823	wordpools/wasnorm_wordpool_576.txt	LTP347	ltpFR2	16	9	CROWN	415	n/a	n/a	0	0	0
2074.71142578125	n/a	WORD	4249009	wordpools/wasnorm_wordpool_576.txt	LTP347	ltpFR2	16	9	PALACE	1006	n/a	n/a	0	0	0
2077.2763671875	n/a	WORD	4254262	wordpools/wasnorm_wordpool_576.txt	LTP347	ltpFR2	16	9	OUTLAW	989	n/a	n/a	0	0	0
2079.943359375	n/a	WORD	4259724	wordpools/wasnorm_wordpool_576.txt	LTP347	ltpFR2	16	9	HORSE	719	n/a	n/a	0	0	0
2082.47412109375	n/a	WORD	4264907	wordpools/wasnorm_wordpool_576.txt	LTP347	ltpFR2	16	9	GRAVE	658	n/a	n/a	0	0	0
2085.08935546875	n/a	WORD	4270263	wordpools/wasnorm_wordpool_576.txt	LTP347	ltpFR2	16	9	POISON	1096	n/a	n/a	0	0	0
2086.70556640625	n/a	START	4273573	n/a	LTP347	ltpFR2	16	n/a	n/a	n/a	13	n/a	n/a	n/a	n/a
2087.6083984375	n/a	DISTRACTOR	4275422	n/a	LTP347	ltpFR2	16	9	n/a	n/a	n/a	n/a	0	0	0
2087.62158203125	n/a	PROB	4275449	n/a	LTP347	ltpFR2	16	n/a	n/a	n/a	13	15	1	6	8
2090.83642578125	n/a	PROB	4282033	n/a	LTP347	ltpFR2	16	n/a	n/a	n/a	13	10	7	1	2
2092.30224609375	n/a	PROB	4285035	n/a	LTP347	ltpFR2	16	n/a	n/a	n/a	13	18	9	3	6
2094.38525390625	n/a	PROB	4289301	n/a	LTP347	ltpFR2	16	n/a	n/a	n/a	13	20	8	8	4
2095.701171875	n/a	PROB	4291996	n/a	LTP347	ltpFR2	16	n/a	n/a	n/a	13	17	5	9	3
2097.9345703125	n/a	PROB	4296570	n/a	LTP347	ltpFR2	16	n/a	n/a	n/a	13	9	1	7	1
2098.93359375	n/a	PROB	4298616	n/a	LTP347	ltpFR2	16	n/a	n/a	n/a	13	13	9	4	1
2100.6982421875	n/a	PROB	4302230	n/a	LTP347	ltpFR2	16	n/a	n/a	n/a	13	20	5	8	7
2102.9482421875	n/a	PROB	4306838	n/a	LTP347	ltpFR2	16	n/a	n/a	n/a	13	18	8	3	7
2104.4306640625	n/a	PROB	4309874	n/a	LTP347	ltpFR2	16	n/a	n/a	n/a	13	18	7	7	4
2106.3955078125	n/a	PROB	4313898	n/a	LTP347	ltpFR2	16	n/a	n/a	n/a	13	14	7	5	2
2108.12841796875	n/a	PROB	4317447	n/a	LTP347	ltpFR2	16	n/a	n/a	n/a	13	19	9	8	2
2109.4404296875	n/a	STOP	4320134	n/a	LTP347	ltpFR2	16	n/a	n/a	n/a	13	n/a	n/a	n/a	n/a
2112.59375	n/a	REC_START	4326592	n/a	LTP347	ltpFR2	16	9	n/a	n/a	n/a	n/a	0	0	0
2114.009765625	n/a	REC_WORD	4329492	wordpools/wasnorm_wordpool_576.txt	LTP347	ltpFR2	16	9	QUEEN	1149	n/a	n/a	0	0	0
2114.3857421875	n/a	REC_WORD	4330262	wordpools/wasnorm_wordpool_576.txt	LTP347	ltpFR2	16	9	PALACE	1006	n/a	n/a	0	0	0
2114.95458984375	n/a	REC_WORD	4331427	wordpools/wasnorm_wordpool_576.txt	LTP347	ltpFR2	16	9	HORSE	719	n/a	n/a	0	0	0
2115.29248046875	n/a	REC_WORD	4332119	wordpools/wasnorm_wordpool_576.txt	LTP347	ltpFR2	16	9	GRAVE	658	n/a	n/a	0	0	0
2115.8056640625	n/a	REC_WORD	4333170	wordpools/wasnorm_wordpool_576.txt	LTP347	ltpFR2	16	9	POISON	1096	n/a	n/a	0	0	0
2118.0107421875	n/a	REC_WORD	4337686	wordpools/wasnorm_wordpool_576.txt	LTP347	ltpFR2	16	9	COCOON	339	n/a	n/a	0	0	0
2131.921875	n/a	REC_WORD_VV	4366176	wordpools/wasnorm_wordpool_576.txt	LTP347	ltpFR2	16	9	<>	-1	n/a	n/a	0	0	0
2133.44189453125	n/a	REC_WORD	4369289	wordpools/wasnorm_wordpool_576.txt	LTP347	ltpFR2	16	9	MARS	873	n/a	n/a	0	0	0
2134.12744140625	n/a	REC_WORD	4370693	wordpools/wasnorm_wordpool_576.txt	LTP347	ltpFR2	16	9	SHOULDER	1294	n/a	n/a	0	0	0
2203.0322265625	n/a	DISTRACTOR	4511810	n/a	LTP347	ltpFR2	16	10	n/a	n/a	n/a	n/a	0	0	0
2203.0322265625	n/a	START	4511810	n/a	LTP347	ltpFR2	16	n/a	n/a	n/a	14	n/a	n/a	n/a	n/a
2203.04833984375	n/a	PROB	4511843	n/a	LTP347	ltpFR2	16	n/a	n/a	n/a	14	15	6	1	8
2205.68017578125	n/a	PROB	4517233	n/a	LTP347	ltpFR2	16	n/a	n/a	n/a	14	14	3	2	9
2208.1962890625	n/a	PROB	4522386	n/a	LTP347	ltpFR2	16	n/a	n/a	n/a	14	15	9	5	1
2209.42822265625	n/a	PROB	4524909	n/a	LTP347	ltpFR2	16	n/a	n/a	n/a	14	18	7	5	6
2212.02734375	n/a	PROB	4530232	n/a	LTP347	ltpFR2	16	n/a	n/a	n/a	14	19	4	9	6
2213.576171875	n/a	PROB	4533404	n/a	LTP347	ltpFR2	16	n/a	n/a	n/a	14	21	3	9	9
2215.05908203125	n/a	PROB	4536441	n/a	LTP347	ltpFR2	16	n/a	n/a	n/a	14	9	5	1	3
2217.55810546875	n/a	PROB	4541559	n/a	LTP347	ltpFR2	16	n/a	n/a	n/a	14	15	7	2	6
2219.1904296875	n/a	PROB	4544902	n/a	LTP347	ltpFR2	16	n/a	n/a	n/a	14	12	2	6	4
2220.75634765625	n/a	PROB	4548109	n/a	LTP347	ltpFR2	16	n/a	n/a	n/a	14	19	8	3	8
2222.58837890625	n/a	PROB	4551861	n/a	LTP347	ltpFR2	16	n/a	n/a	n/a	14	20	3	9	8
2224.154296875	n/a	PROB	4555068	n/a	LTP347	ltpFR2	16	n/a	n/a	n/a	14	15	2	5	8
2225.66552734375	n/a	STOP	4558163	n/a	LTP347	ltpFR2	16	n/a	n/a	n/a	14	n/a	n/a	n/a	n/a
2228.236328125	n/a	WORD	4563428	wordpools/wasnorm_wordpool_576.txt	LTP347	ltpFR2	16	10	BURGLAR	200	n/a	n/a	0	0	0
2230.96826171875	n/a	WORD	4569023	wordpools/wasnorm_wordpool_576.txt	LTP347	ltpFR2	16	10	PADDLE	1000	n/a	n/a	0	0	0
2233.75048828125	n/a	WORD	4574721	wordpools/wasnorm_wordpool_576.txt	LTP347	ltpFR2	16	10	HOUND	724	n/a	n/a	0	0	0
2236.3154296875	n/a	WORD	4579974	wordpools/wasnorm_wordpool_576.txt	LTP347	ltpFR2	16	10	ROOSTER	1209	n/a	n/a	0	0	0
2239.09716796875	n/a	WORD	4585671	wordpools/wasnorm_wordpool_576.txt	LTP347	ltpFR2	16	10	PARROT	1015	n/a	n/a	0	0	0
2241.779296875	n/a	WORD	4591164	wordpools/wasnorm_wordpool_576.txt	LTP347	ltpFR2	16	10	HEART	697	n/a	n/a	0	0	0
2244.59423828125	n/a	WORD	4596929	wordpools/wasnorm_wordpool_576.txt	LTP347	ltpFR2	16	10	MATTRESS	879	n/a	n/a	0	0	0
2247.37646484375	n/a	WORD	4602627	wordpools/wasnorm_wordpool_576.txt	LTP347	ltpFR2	16	10	PRINCESS	1125	n/a	n/a	0	0	0
2250.00830078125	n/a	WORD	4608017	wordpools/wasnorm_wordpool_576.txt	LTP347	ltpFR2	16	10	TRANSPLANT	1496	n/a	n/a	0	0	0
2252.75732421875	n/a	WORD	4613647	wordpools/wasnorm_wordpool_576.txt	LTP347	ltpFR2	16	10	KETCHUP	771	n/a	n/a	0	0	0
2255.47265625	n/a	WORD	4619208	wordpools/wasnorm_wordpool_576.txt	LTP347	ltpFR2	16	10	CRAYON	401	n/a	n/a	0	0	0
2258.08837890625	n/a	WORD	4624565	wordpools/wasnorm_wordpool_576.txt	LTP347	ltpFR2	16	10	BADGE	68	n/a	n/a	0	0	0
2260.67041015625	n/a	WORD	4629853	wordpools/wasnorm_wordpool_576.txt	LTP347	ltpFR2	16	10	AGENT	10	n/a	n/a	0	0	0
2263.15234375	n/a	WORD	4634936	wordpools/wasnorm_wordpool_576.txt	LTP347	ltpFR2	16	10	FARMER	553	n/a	n/a	0	0	0
2265.8505859375	n/a	WORD	4640462	wordpools/wasnorm_wordpool_576.txt	LTP347	ltpFR2	16	10	DASHBOARD	441	n/a	n/a	0	0	0
2268.6826171875	n/a	WORD	4646262	wordpools/wasnorm_wordpool_576.txt	LTP347	ltpFR2	16	10	SNAKE	1333	n/a	n/a	0	0	0
2271.3486328125	n/a	WORD	4651722	wordpools/wasnorm_wordpool_576.txt	LTP347	ltpFR2	16	10	DORM	488	n/a	n/a	0	0	0
2273.99658203125	n/a	WORD	4657145	wordpools/wasnorm_wordpool_576.txt	LTP347	ltpFR2	16	10	FIREPLACE	570	n/a	n/a	0	0	0
2276.595703125	n/a	WORD	4662468	wordpools/wasnorm_wordpool_576.txt	LTP347	ltpFR2	16	10	SISTER	1312	n/a	n/a	0	0	0
2279.32763671875	n/a	WORD	4668063	wordpools/wasnorm_wordpool_576.txt	LTP347	ltpFR2	16	10	PATIENT	1024	n/a	n/a	0	0	0
2282.07666015625	n/a	WORD	4673693	wordpools/wasnorm_wordpool_576.txt	LTP347	ltpFR2	16	10	CHIPMUNK	304	n/a	n/a	0	0	0
2284.60888671875	n/a	WORD	4678879	wordpools/wasnorm_wordpool_576.txt	LTP347	ltpFR2	16	10	SUSPECT	1415	n/a	n/a	0	0	0
2287.20654296875	n/a	WORD	4684199	wordpools/wasnorm_wordpool_576.txt	LTP347	ltpFR2	16	10	SKILLET	1317	n/a	n/a	0	0	0
2289.8388671875	n/a	WORD	4689590	wordpools/wasnorm_wordpool_576.txt	LTP347	ltpFR2	16	10	YOLK	1633	n/a	n/a	0	0	0
2291.45556640625	n/a	START	4692901	n/a	LTP347	ltpFR2	16	n/a	n/a	n/a	15	n/a	n/a	n/a	n/a
2292.38671875	n/a	DISTRACTOR	4694808	n/a	LTP347	ltpFR2	16	10	n/a	n/a	n/a	n/a	0	0	0
2292.40478515625	n/a	PROB	4694845	n/a	LTP347	ltpFR2	16	n/a	n/a	n/a	15	19	7	4	8
2293.8037109375	n/a	PROB	4697710	n/a	LTP347	ltpFR2	16	n/a	n/a	n/a	15	19	7	5	7
2295.7197265625	n/a	PROB	4701634	n/a	LTP347	ltpFR2	16	n/a	n/a	n/a	15	18	1	7	8
2297.5185546875	n/a	PROB	4705318	n/a	LTP347	ltpFR2	16	n/a	n/a	n/a	15	18	7	9	2
2299.2509765625	n/a	PROB	4708866	n/a	LTP347	ltpFR2	16	n/a	n/a	n/a	15	7	2	3	2
2300.93505859375	n/a	PROB	4712315	n/a	LTP347	ltpFR2	16	n/a	n/a	n/a	15	13	6	3	4
2302.4326171875	n/a	PROB	4715382	n/a	LTP347	ltpFR2	16	n/a	n/a	n/a	15	16	4	9	3
2303.98193359375	n/a	PROB	4718555	n/a	LTP347	ltpFR2	16	n/a	n/a	n/a	15	11	4	3	4
2305.89794921875	n/a	PROB	4722479	n/a	LTP347	ltpFR2	16	n/a	n/a	n/a	15	24	7	9	8
2307.56396484375	n/a	PROB	4725891	n/a	LTP347	ltpFR2	16	n/a	n/a	n/a	15	14	4	8	2
2308.962890625	n/a	PROB	4728756	n/a	LTP347	ltpFR2	16	n/a	n/a	n/a	15	10	7	2	1
2310.5458984375	n/a	PROB	4731998	n/a	LTP347	ltpFR2	16	n/a	n/a	n/a	15	10	1	6	3
2312.3779296875	n/a	PROB	4735750	n/a	LTP347	ltpFR2	16	n/a	n/a	n/a	15	16	6	4	5
2313.677734375	n/a	PROB	4738412	n/a	LTP347	ltpFR2	16	n/a	n/a	n/a	15	23	8	6	9
2315.177734375	n/a	STOP	4741484	n/a	LTP347	ltpFR2	16	n/a	n/a	n/a	15	n/a	n/a	n/a	n/a
2317.27587890625	n/a	REC_START	4745781	n/a	LTP347	ltpFR2	16	10	n/a	n/a	n/a	n/a	0	0	0
2317.27587890625	n/a	REC_WORD	4745781	wordpools/wasnorm_wordpool_576.txt	LTP347	ltpFR2	16	10	SISTER	1312	n/a	n/a	0	0	0
2318.0087890625	n/a	REC_WORD	4747282	wordpools/wasnorm_wordpool_576.txt	LTP347	ltpFR2	16	10	PATIENT	1024	n/a	n/a	0	0	0
2318.6748046875	n/a	REC_WORD	4748646	wordpools/wasnorm_wordpool_576.txt	LTP347	ltpFR2	16	10	CHIPMUNK	304	n/a	n/a	0	0	0
2319.47216796875	n/a	REC_WORD	4750279	wordpools/wasnorm_wordpool_576.txt	LTP347	ltpFR2	16	10	SUBJECT	-1	n/a	n/a	0	0	0
2320.23388671875	n/a	REC_WORD	4751839	wordpools/wasnorm_wordpool_576.txt	LTP347	ltpFR2	16	10	SKILLET	1317	n/a	n/a	0	0	0
2321.001953125	n/a	REC_WORD	4753412	wordpools/wasnorm_wordpool_576.txt	LTP347	ltpFR2	16	10	YOLK	1633	n/a	n/a	0	0	0
2325.1162109375	n/a	REC_WORD	4761838	wordpools/wasnorm_wordpool_576.txt	LTP347	ltpFR2	16	10	SNAKE	1333	n/a	n/a	0	0	0
2325.73974609375	n/a	REC_WORD	4763115	wordpools/wasnorm_wordpool_576.txt	LTP347	ltpFR2	16	10	DORM	488	n/a	n/a	0	0	0
2326.14404296875	n/a	REC_WORD	4763943	wordpools/wasnorm_wordpool_576.txt	LTP347	ltpFR2	16	10	FIREPLACE	570	n/a	n/a	0	0	0
2327.14404296875	n/a	REC_WORD_VV	4765991	wordpools/wasnorm_wordpool_576.txt	LTP347	ltpFR2	16	10	<>	-1	n/a	n/a	0	0	0
2327.830078125	n/a	REC_WORD	4767396	wordpools/wasnorm_wordpool_576.txt	LTP347	ltpFR2	16	10	MATTRESS	879	n/a	n/a	0	0	0
2328.44677734375	n/a	REC_WORD	4768659	wordpools/wasnorm_wordpool_576.txt	LTP347	ltpFR2	16	10	QUEEN	1149	n/a	n/a	0	0	0
2328.9091796875	n/a	REC_WORD	4769606	wordpools/wasnorm_wordpool_576.txt	LTP347	ltpFR2	16	10	TRANSPLANT	1496	n/a	n/a	0	0	0
2332.81298828125	n/a	REC_WORD	4777601	wordpools/wasnorm_wordpool_576.txt	LTP347	ltpFR2	16	10	AGENT	10	n/a	n/a	0	0	0
2333.2880859375	n/a	REC_WORD	4778574	wordpools/wasnorm_wordpool_576.txt	LTP347	ltpFR2	16	10	DASHBOARD	441	n/a	n/a	0	0	0
2333.8701171875	n/a	REC_WORD	4779766	wordpools/wasnorm_wordpool_576.txt	LTP347	ltpFR2	16	10	FARMER	553	n/a	n/a	0	0	0
2347.5263671875	n/a	REC_WORD	4807734	wordpools/wasnorm_wordpool_576.txt	LTP347	ltpFR2	16	10	BURGLAR	200	n/a	n/a	0	0	0
2348.328125	n/a	REC_WORD	4809376	wordpools/wasnorm_wordpool_576.txt	LTP347	ltpFR2	16	10	DOG	480	n/a	n/a	0	0	0
2348.859375	n/a	REC_WORD	4810464	wordpools/wasnorm_wordpool_576.txt	LTP347	ltpFR2	16	10	PADDLE	1000	n/a	n/a	0	0	0
2407.7314453125	n/a	DISTRACTOR	4931034	n/a	LTP347	ltpFR2	16	11	n/a	n/a	n/a	n/a	0	0	0
2407.7314453125	n/a	START	4931034	n/a	LTP347	ltpFR2	16	n/a	n/a	n/a	16	n/a	n/a	n/a	n/a
2407.74853515625	n/a	PROB	4931069	n/a	LTP347	ltpFR2	16	n/a	n/a	n/a	16	1	5	3	4
2409.41357421875	n/a	PROB	4934479	n/a	LTP347	ltpFR2	16	n/a	n/a	n/a	16	16	6	2	8
2411.0634765625	n/a	PROB	4937858	n/a	LTP347	ltpFR2	16	n/a	n/a	n/a	16	17	7	3	7
2412.3125	n/a	PROB	4940416	n/a	LTP347	ltpFR2	16	n/a	n/a	n/a	16	6	1	4	1
2413.66162109375	n/a	PROB	4943179	n/a	LTP347	ltpFR2	16	n/a	n/a	n/a	16	22	8	7	8
2415.69482421875	n/a	PROB	4947343	n/a	LTP347	ltpFR2	16	n/a	n/a	n/a	16	11	2	3	6
2417.12646484375	n/a	PROB	4950275	n/a	LTP347	ltpFR2	16	n/a	n/a	n/a	16	219	4	6	9
2418.40966796875	n/a	PROB	4952903	n/a	LTP347	ltpFR2	16	n/a	n/a	n/a	16	18	4	9	5
2420.5087890625	n/a	PROB	4957202	n/a	LTP347	ltpFR2	16	n/a	n/a	n/a	16	12	1	6	5
2422.357421875	n/a	PROB	4960988	n/a	LTP347	ltpFR2	16	n/a	n/a	n/a	16	17	4	9	4
2424.173828125	n/a	PROB	4964708	n/a	LTP347	ltpFR2	16	n/a	n/a	n/a	16	6	3	1	2
2425.22265625	n/a	PROB	4966856	n/a	LTP347	ltpFR2	16	n/a	n/a	n/a	16	23	5	9	9
2426.5556640625	n/a	PROB	4969586	n/a	LTP347	ltpFR2	16	n/a	n/a	n/a	16	15	7	6	2
2428.521484375	n/a	PROB	4973612	n/a	LTP347	ltpFR2	16	n/a	n/a	n/a	16	23	8	9	6
2430.1865234375	n/a	STOP	4977022	n/a	LTP347	ltpFR2	16	n/a	n/a	n/a	16	n/a	n/a	n/a	n/a
2432.8525390625	n/a	WORD	4982482	wordpools/wasnorm_wordpool_576.txt	LTP347	ltpFR2	16	11	BUBBLE	183	n/a	n/a	0	0	0
2435.30078125	n/a	WORD	4987496	wordpools/wasnorm_wordpool_576.txt	LTP347	ltpFR2	16	11	DAUGHTER	442	n/a	n/a	0	0	0
2437.7998046875	n/a	WORD	4992614	wordpools/wasnorm_wordpool_576.txt	LTP347	ltpFR2	16	11	SCOTCH	1251	n/a	n/a	0	0	0
2440.58154296875	n/a	WORD	4998311	wordpools/wasnorm_wordpool_576.txt	LTP347	ltpFR2	16	11	ONION	977	n/a	n/a	0	0	0
2443.130859375	n/a	WORD	5003532	wordpools/wasnorm_wordpool_576.txt	LTP347	ltpFR2	16	11	PECAN	1036	n/a	n/a	0	0	0
2445.66259765625	n/a	WORD	5008717	wordpools/wasnorm_wordpool_576.txt	LTP347	ltpFR2	16	11	PEANUT	1032	n/a	n/a	0	0	0
2448.2119140625	n/a	WORD	5013938	wordpools/wasnorm_wordpool_576.txt	LTP347	ltpFR2	16	11	POPCORN	1104	n/a	n/a	0	0	0
2450.89404296875	n/a	WORD	5019431	wordpools/wasnorm_wordpool_576.txt	LTP347	ltpFR2	16	11	POCKET	1093	n/a	n/a	0	0	0
2453.64208984375	n/a	WORD	5025059	wordpools/wasnorm_wordpool_576.txt	LTP347	ltpFR2	16	11	DRAGON	492	n/a	n/a	0	0	0
2456.44091796875	n/a	WORD	5030791	wordpools/wasnorm_wordpool_576.txt	LTP347	ltpFR2	16	11	PERFUME	1049	n/a	n/a	0	0	0
2458.923828125	n/a	WORD	5035876	wordpools/wasnorm_wordpool_576.txt	LTP347	ltpFR2	16	11	ULCER	1533	n/a	n/a	0	0	0
2461.38916015625	n/a	WORD	5040925	wordpools/wasnorm_wordpool_576.txt	LTP347	ltpFR2	16	11	ARMY	39	n/a	n/a	0	0	0
2464.037109375	n/a	WORD	5046348	wordpools/wasnorm_wordpool_576.txt	LTP347	ltpFR2	16	11	SWIMMER	1420	n/a	n/a	0	0	0
2466.7529296875	n/a	WORD	5051910	wordpools/wasnorm_wordpool_576.txt	LTP347	ltpFR2	16	11	SWAMP	1416	n/a	n/a	0	0	0
2469.31787109375	n/a	WORD	5057163	wordpools/wasnorm_wordpool_576.txt	LTP347	ltpFR2	16	11	ICING	732	n/a	n/a	0	0	0
2471.89990234375	n/a	WORD	5062451	wordpools/wasnorm_wordpool_576.txt	LTP347	ltpFR2	16	11	TWISTER	1530	n/a	n/a	0	0	0
2474.48193359375	n/a	WORD	5067739	wordpools/wasnorm_wordpool_576.txt	LTP347	ltpFR2	16	11	BRAKE	166	n/a	n/a	0	0	0
2477.0810546875	n/a	WORD	5073062	wordpools/wasnorm_wordpool_576.txt	LTP347	ltpFR2	16	11	DENTIST	447	n/a	n/a	0	0	0
2479.6298828125	n/a	WORD	5078282	wordpools/wasnorm_wordpool_576.txt	LTP347	ltpFR2	16	11	BEAVER	109	n/a	n/a	0	0	0
2482.14501953125	n/a	WORD	5083433	wordpools/wasnorm_wordpool_576.txt	LTP347	ltpFR2	16	11	BATHTUB	100	n/a	n/a	0	0	0
2484.69384765625	n/a	WORD	5088653	wordpools/wasnorm_wordpool_576.txt	LTP347	ltpFR2	16	11	PARENT	1013	n/a	n/a	0	0	0
2487.19189453125	n/a	WORD	5093769	wordpools/wasnorm_wordpool_576.txt	LTP347	ltpFR2	16	11	MOP	916	n/a	n/a	0	0	0
2489.69091796875	n/a	WORD	5098887	wordpools/wasnorm_wordpool_576.txt	LTP347	ltpFR2	16	11	NURSE	963	n/a	n/a	0	0	0
2492.123046875	n/a	WORD	5103868	wordpools/wasnorm_wordpool_576.txt	LTP347	ltpFR2	16	11	PASTRY	1022	n/a	n/a	0	0	0
2493.7392578125	n/a	START	5107178	n/a	LTP347	ltpFR2	16	n/a	n/a	n/a	17	n/a	n/a	n/a	n/a
2494.9169921875	n/a	DISTRACTOR	5109590	n/a	LTP347	ltpFR2	16	11	n/a	n/a	n/a	n/a	0	0	0
2494.92333984375	n/a	PROB	5109603	n/a	LTP347	ltpFR2	16	n/a	n/a	n/a	17	12	5	2	5
2496.13818359375	n/a	PROB	5112091	n/a	LTP347	ltpFR2	16	n/a	n/a	n/a	17	17	7	6	4
2497.72119140625	n/a	PROB	5115333	n/a	LTP347	ltpFR2	16	n/a	n/a	n/a	17	14	7	3	4
2499.10302734375	n/a	PROB	5118163	n/a	LTP347	ltpFR2	16	n/a	n/a	n/a	17	15	6	1	8
2500.986328125	n/a	PROB	5122020	n/a	LTP347	ltpFR2	16	n/a	n/a	n/a	17	18	6	5	7
2503.234375	n/a	PROB	5126624	n/a	LTP347	ltpFR2	16	n/a	n/a	n/a	17	12	1	8	3
2505.2001953125	n/a	PROB	5130650	n/a	LTP347	ltpFR2	16	n/a	n/a	n/a	17	15	2	7	6
2506.666015625	n/a	PROB	5133652	n/a	LTP347	ltpFR2	16	n/a	n/a	n/a	17	24	9	8	7
2508.63232421875	n/a	PROB	5137679	n/a	LTP347	ltpFR2	16	n/a	n/a	n/a	17	19	7	6	6
2510.93212890625	n/a	PROB	5142389	n/a	LTP347	ltpFR2	16	n/a	n/a	n/a	17	16	6	1	9
2512.2802734375	n/a	PROB	5145150	n/a	LTP347	ltpFR2	16	n/a	n/a	n/a	17	10	2	1	7
2513.59619140625	n/a	PROB	5147845	n/a	LTP347	ltpFR2	16	n/a	n/a	n/a	17	15	6	2	7
2515.01220703125	n/a	PROB	5150745	n/a	LTP347	ltpFR2	16	n/a	n/a	n/a	17	7	1	4	2
2516.275390625	n/a	STOP	5153332	n/a	LTP347	ltpFR2	16	n/a	n/a	n/a	17	n/a	n/a	n/a	n/a
2519.6103515625	n/a	REC_START	5160162	n/a	LTP347	ltpFR2	16	11	n/a	n/a	n/a	n/a	0	0	0
2519.96923828125	n/a	REC_WORD	5160897	wordpools/wasnorm_wordpool_576.txt	LTP347	ltpFR2	16	11	BEAVER	109	n/a	n/a	0	0	0
2520.5322265625	n/a	REC_WORD	5162050	wordpools/wasnorm_wordpool_576.txt	LTP347	ltpFR2	16	11	BATHTUB	100	n/a	n/a	0	0	0
2521.25927734375	n/a	REC_WORD	5163539	wordpools/wasnorm_wordpool_576.txt	LTP347	ltpFR2	16	11	PARENT	1013	n/a	n/a	0	0	0
2521.92529296875	n/a	REC_WORD	5164903	wordpools/wasnorm_wordpool_576.txt	LTP347	ltpFR2	16	11	MOP	916	n/a	n/a	0	0	0
2522.46533203125	n/a	REC_WORD	5166009	wordpools/wasnorm_wordpool_576.txt	LTP347	ltpFR2	16	11	NURSE	963	n/a	n/a	0	0	0
2523.0615234375	n/a	REC_WORD	5167230	wordpools/wasnorm_wordpool_576.txt	LTP347	ltpFR2	16	11	PASTRY	1022	n/a	n/a	0	0	0
2527.08740234375	n/a	REC_WORD_VV	5175475	wordpools/wasnorm_wordpool_576.txt	LTP347	ltpFR2	16	11	<>	-1	n/a	n/a	0	0	0
2527.63232421875	n/a	REC_WORD	5176591	wordpools/wasnorm_wordpool_576.txt	LTP347	ltpFR2	16	11	ULCER	1533	n/a	n/a	0	0	0
2529.80615234375	n/a	REC_WORD	5181043	wordpools/wasnorm_wordpool_576.txt	LTP347	ltpFR2	16	11	FRAGRANCE	599	n/a	n/a	0	0	0
2530.53125	n/a	REC_WORD	5182528	wordpools/wasnorm_wordpool_576.txt	LTP347	ltpFR2	16	11	ARMY	39	n/a	n/a	0	0	0
2530.951171875	n/a	REC_WORD	5183388	wordpools/wasnorm_wordpool_576.txt	LTP347	ltpFR2	16	11	SWIMMER	1420	n/a	n/a	0	0	0
2531.486328125	n/a	REC_WORD	5184484	wordpools/wasnorm_wordpool_576.txt	LTP347	ltpFR2	16	11	SWAMP	1416	n/a	n/a	0	0	0
2532.12353515625	n/a	REC_WORD	5185789	wordpools/wasnorm_wordpool_576.txt	LTP347	ltpFR2	16	11	ICING	732	n/a	n/a	0	0	0
2533.2373046875	n/a	REC_WORD	5188070	wordpools/wasnorm_wordpool_576.txt	LTP347	ltpFR2	16	11	TWISTER	1530	n/a	n/a	0	0	0
2610.048828125	n/a	DISTRACTOR	5345380	n/a	LTP347	ltpFR2	16	12	n/a	n/a	n/a	n/a	0	0	0
2610.048828125	n/a	START	5345380	n/a	LTP347	ltpFR2	16	n/a	n/a	n/a	18	n/a	n/a	n/a	n/a
2610.06591796875	n/a	PROB	5345415	n/a	LTP347	ltpFR2	16	n/a	n/a	n/a	18	15	4	2	9
2611.33203125	n/a	PROB	5348008	n/a	LTP347	ltpFR2	16	n/a	n/a	n/a	18	17	3	5	9
2613.2138671875	n/a	PROB	5351862	n/a	LTP347	ltpFR2	16	n/a	n/a	n/a	18	15	2	7	6
2614.59716796875	n/a	PROB	5354695	n/a	LTP347	ltpFR2	16	n/a	n/a	n/a	18	14	1	8	5
2617.37890625	n/a	PROB	5360392	n/a	LTP347	ltpFR2	16	n/a	n/a	n/a	18	8	3	3	2
2619.09521484375	n/a	PROB	5363907	n/a	LTP347	ltpFR2	16	n/a	n/a	n/a	18	17	5	8	4
2620.85986328125	n/a	PROB	5367521	n/a	LTP347	ltpFR2	16	n/a	n/a	n/a	18	17	8	4	5
2622.4931640625	n/a	PROB	5370866	n/a	LTP347	ltpFR2	16	n/a	n/a	n/a	18	16	3	9	4
2625.22509765625	n/a	PROB	5376461	n/a	LTP347	ltpFR2	16	n/a	n/a	n/a	18	8	1	3	4
2626.673828125	n/a	PROB	5379428	n/a	LTP347	ltpFR2	16	n/a	n/a	n/a	18	15	8	4	3
2628.5732421875	n/a	PROB	5383318	n/a	LTP347	ltpFR2	16	n/a	n/a	n/a	18	16	3	6	7
2630.2392578125	n/a	PROB	5386730	n/a	LTP347	ltpFR2	16	n/a	n/a	n/a	18	12	2	3	7
2631.7548828125	n/a	PROB	5389834	n/a	LTP347	ltpFR2	16	n/a	n/a	n/a	18	10	3	3	4
2633.5400390625	n/a	STOP	5393490	n/a	LTP347	ltpFR2	16	n/a	n/a	n/a	18	n/a	n/a	n/a	n/a
2634.93798828125	n/a	WORD	5396353	wordpools/wasnorm_wordpool_576.txt	LTP347	ltpFR2	16	12	ISLAND	745	n/a	n/a	0	0	0
2637.40234375	n/a	WORD	5401400	wordpools/wasnorm_wordpool_576.txt	LTP347	ltpFR2	16	12	PIMPLE	1071	n/a	n/a	0	0	0
2640.18408203125	n/a	WORD	5407097	wordpools/wasnorm_wordpool_576.txt	LTP347	ltpFR2	16	12	MONSTER	912	n/a	n/a	0	0	0
2642.7333984375	n/a	WORD	5412318	wordpools/wasnorm_wordpool_576.txt	LTP347	ltpFR2	16	12	SHRUB	1299	n/a	n/a	0	0	0
2645.31494140625	n/a	WORD	5417605	wordpools/wasnorm_wordpool_576.txt	LTP347	ltpFR2	16	12	PASTA	1021	n/a	n/a	0	0	0
2648.13037109375	n/a	WORD	5423371	wordpools/wasnorm_wordpool_576.txt	LTP347	ltpFR2	16	12	CRUTCH	417	n/a	n/a	0	0	0
2650.81201171875	n/a	WORD	5428863	wordpools/wasnorm_wordpool_576.txt	LTP347	ltpFR2	16	12	LEG	809	n/a	n/a	0	0	0
2653.4443359375	n/a	WORD	5434254	wordpools/wasnorm_wordpool_576.txt	LTP347	ltpFR2	16	12	DUSTPAN	509	n/a	n/a	0	0	0
2656.2431640625	n/a	WORD	5439986	wordpools/wasnorm_wordpool_576.txt	LTP347	ltpFR2	16	12	CARROT	249	n/a	n/a	0	0	0
2658.7421875	n/a	WORD	5445104	wordpools/wasnorm_wordpool_576.txt	LTP347	ltpFR2	16	12	WAITRESS	1581	n/a	n/a	0	0	0
2661.45751953125	n/a	WORD	5450665	wordpools/wasnorm_wordpool_576.txt	LTP347	ltpFR2	16	12	CHAUFFEUR	283	n/a	n/a	0	0	0
2663.95654296875	n/a	WORD	5455783	wordpools/wasnorm_wordpool_576.txt	LTP347	ltpFR2	16	12	SODA	1341	n/a	n/a	0	0	0
2666.55419921875	n/a	WORD	5461103	wordpools/wasnorm_wordpool_576.txt	LTP347	ltpFR2	16	12	EXPERT	543	n/a	n/a	0	0	0
2669.08642578125	n/a	WORD	5466289	wordpools/wasnorm_wordpool_576.txt	LTP347	ltpFR2	16	12	LIGHTNING	820	n/a	n/a	0	0	0
2671.685546875	n/a	WORD	5471612	wordpools/wasnorm_wordpool_576.txt	LTP347	ltpFR2	16	12	BUREAU	199	n/a	n/a	0	0	0
2674.3505859375	n/a	WORD	5477070	wordpools/wasnorm_wordpool_576.txt	LTP347	ltpFR2	16	12	HAMPER	682	n/a	n/a	0	0	0
2676.79931640625	n/a	WORD	5482085	wordpools/wasnorm_wordpool_576.txt	LTP347	ltpFR2	16	12	THREAD	1460	n/a	n/a	0	0	0
2679.431640625	n/a	WORD	5487476	wordpools/wasnorm_wordpool_576.txt	LTP347	ltpFR2	16	12	RUST	1219	n/a	n/a	0	0	0
2682.11328125	n/a	WORD	5492968	wordpools/wasnorm_wordpool_576.txt	LTP347	ltpFR2	16	12	DAISY	435	n/a	n/a	0	0	0
2684.71240234375	n/a	WORD	5498291	wordpools/wasnorm_wordpool_576.txt	LTP347	ltpFR2	16	12	FIDDLE	561	n/a	n/a	0	0	0
2687.2275390625	n/a	WORD	5503442	wordpools/wasnorm_wordpool_576.txt	LTP347	ltpFR2	16	12	WHISTLE	1606	n/a	n/a	0	0	0
2689.74365234375	n/a	WORD	5508595	wordpools/wasnorm_wordpool_576.txt	LTP347	ltpFR2	16	12	BUG	187	n/a	n/a	0	0	0
2692.29248046875	n/a	WORD	5513815	wordpools/wasnorm_wordpool_576.txt	LTP347	ltpFR2	16	12	SERVER	1272	n/a	n/a	0	0	0
2694.9736328125	n/a	WORD	5519306	wordpools/wasnorm_wordpool_576.txt	LTP347	ltpFR2	16	12	MAILMAN	858	n/a	n/a	0	0	0
2696.59033203125	n/a	START	5522617	n/a	LTP347	ltpFR2	16	n/a	n/a	n/a	19	n/a	n/a	n/a	n/a
2697.70751953125	n/a	DISTRACTOR	5524905	n/a	LTP347	ltpFR2	16	12	n/a	n/a	n/a	n/a	0	0	0
2697.72265625	n/a	PROB	5524936	n/a	LTP347	ltpFR2	16	n/a	n/a	n/a	19	18	8	5	5
2699.33837890625	n/a	PROB	5528245	n/a	LTP347	ltpFR2	16	n/a	n/a	n/a	19	18	1	9	8
2701.021484375	n/a	PROB	5531692	n/a	LTP347	ltpFR2	16	n/a	n/a	n/a	19	14	3	6	5
2703.103515625	n/a	PROB	5535956	n/a	LTP347	ltpFR2	16	n/a	n/a	n/a	19	5	1	1	3
2704.20263671875	n/a	PROB	5538207	n/a	LTP347	ltpFR2	16	n/a	n/a	n/a	19	12	1	9	2
2705.568359375	n/a	PROB	5541004	n/a	LTP347	ltpFR2	16	n/a	n/a	n/a	19	19	6	5	8
2707.86767578125	n/a	PROB	5545713	n/a	LTP347	ltpFR2	16	n/a	n/a	n/a	19	13	2	5	6
2709.70068359375	n/a	PROB	5549467	n/a	LTP347	ltpFR2	16	n/a	n/a	n/a	19	22	4	9	9
2711.099609375	n/a	PROB	5552332	n/a	LTP347	ltpFR2	16	n/a	n/a	n/a	19	23	9	7	7
2713.2646484375	n/a	PROB	5556766	n/a	LTP347	ltpFR2	16	n/a	n/a	n/a	19	11	5	2	4
2714.880859375	n/a	PROB	5560076	n/a	LTP347	ltpFR2	16	n/a	n/a	n/a	19	13	4	7	2
2716.3466796875	n/a	PROB	5563078	n/a	LTP347	ltpFR2	16	n/a	n/a	n/a	19	15	2	7	6
2717.77978515625	n/a	PROB	5566013	n/a	LTP347	ltpFR2	16	n/a	n/a	n/a	19	9	1	1	7
2719.37255859375	n/a	STOP	5569275	n/a	LTP347	ltpFR2	16	n/a	n/a	n/a	19	n/a	n/a	n/a	n/a
2722.44482421875	n/a	REC_START	5575567	n/a	LTP347	ltpFR2	16	12	n/a	n/a	n/a	n/a	0	0	0
2722.83251953125	n/a	REC_WORD	5576361	wordpools/wasnorm_wordpool_576.txt	LTP347	ltpFR2	16	12	DUST	508	n/a	n/a	0	0	0
2723.3876953125	n/a	REC_WORD	5577498	wordpools/wasnorm_wordpool_576.txt	LTP347	ltpFR2	16	12	DAISY	435	n/a	n/a	0	0	0
2724.12158203125	n/a	REC_WORD	5579001	wordpools/wasnorm_wordpool_576.txt	LTP347	ltpFR2	16	12	WHISTLE	1606	n/a	n/a	0	0	0
2724.8486328125	n/a	REC_WORD	5580490	wordpools/wasnorm_wordpool_576.txt	LTP347	ltpFR2	16	12	BUG	187	n/a	n/a	0	0	0
2725.36962890625	n/a	REC_WORD	5581557	wordpools/wasnorm_wordpool_576.txt	LTP347	ltpFR2	16	12	SERVER	1272	n/a	n/a	0	0	0
2726.177734375	n/a	REC_WORD	5583212	wordpools/wasnorm_wordpool_576.txt	LTP347	ltpFR2	16	12	MAILMAN	858	n/a	n/a	0	0	0
2726.8076171875	n/a	REC_WORD	5584502	wordpools/wasnorm_wordpool_576.txt	LTP347	ltpFR2	16	12	SODA	1341	n/a	n/a	0	0	0
2727.5478515625	n/a	REC_WORD	5586018	wordpools/wasnorm_wordpool_576.txt	LTP347	ltpFR2	16	12	LIGHTNING	820	n/a	n/a	0	0	0
2728.16357421875	n/a	REC_WORD	5587279	wordpools/wasnorm_wordpool_576.txt	LTP347	ltpFR2	16	12	EXPERT	543	n/a	n/a	0	0	0
2728.94482421875	n/a	REC_WORD	5588879	wordpools/wasnorm_wordpool_576.txt	LTP347	ltpFR2	16	12	BISON	131	n/a	n/a	0	0	0
2734.36767578125	n/a	REC_WORD	5599985	wordpools/wasnorm_wordpool_576.txt	LTP347	ltpFR2	16	12	ISLAND	745	n/a	n/a	0	0	0
2734.94677734375	n/a	REC_WORD	5601171	wordpools/wasnorm_wordpool_576.txt	LTP347	ltpFR2	16	12	PIMPLE	1071	n/a	n/a	0	0	0
2735.40771484375	n/a	REC_WORD	5602115	wordpools/wasnorm_wordpool_576.txt	LTP347	ltpFR2	16	12	MONSTER	912	n/a	n/a	0	0	0
2812.8994140625	n/a	DISTRACTOR	5760818	n/a	LTP347	ltpFR2	16	13	n/a	n/a	n/a	n/a	0	0	0
2812.8994140625	n/a	START	5760818	n/a	LTP347	ltpFR2	16	n/a	n/a	n/a	20	n/a	n/a	n/a	n/a
2812.91650390625	n/a	PROB	5760853	n/a	LTP347	ltpFR2	16	n/a	n/a	n/a	20	19	9	9	1
2814.6982421875	n/a	PROB	5764502	n/a	LTP347	ltpFR2	16	n/a	n/a	n/a	20	7	1	3	3
2816.34814453125	n/a	PROB	5767881	n/a	LTP347	ltpFR2	16	n/a	n/a	n/a	20	18	8	5	5
2817.68017578125	n/a	PROB	5770609	n/a	LTP347	ltpFR2	16	n/a	n/a	n/a	20	14	1	6	7
2819.87939453125	n/a	PROB	5775113	n/a	LTP347	ltpFR2	16	n/a	n/a	n/a	20	7	4	2	1
2820.96240234375	n/a	PROB	5777331	n/a	LTP347	ltpFR2	16	n/a	n/a	n/a	20	15	3	3	9
2822.49462890625	n/a	PROB	5780469	n/a	LTP347	ltpFR2	16	n/a	n/a	n/a	20	20	6	7	7
2823.8603515625	n/a	PROB	5783266	n/a	LTP347	ltpFR2	16	n/a	n/a	n/a	20	11	6	3	2
2825.34326171875	n/a	PROB	5786303	n/a	LTP347	ltpFR2	16	n/a	n/a	n/a	20	14	6	7	1
2826.943359375	n/a	PROB	5789580	n/a	LTP347	ltpFR2	16	n/a	n/a	n/a	20	17	9	6	2
2828.37548828125	n/a	PROB	5792513	n/a	LTP347	ltpFR2	16	n/a	n/a	n/a	20	16	6	5	1
2830.1416015625	n/a	PROB	5796130	n/a	LTP347	ltpFR2	16	n/a	n/a	n/a	20	20	7	7	6
2831.42333984375	n/a	PROB	5798755	n/a	LTP347	ltpFR2	16	n/a	n/a	n/a	20	11	5	2	4
2832.6064453125	n/a	PROB	5801178	n/a	LTP347	ltpFR2	16	n/a	n/a	n/a	20	12	4	3	5
2834.2392578125	n/a	PROB	5804522	n/a	LTP347	ltpFR2	16	n/a	n/a	n/a	20	16	7	8	1
2835.349609375	n/a	STOP	5806796	n/a	LTP347	ltpFR2	16	n/a	n/a	n/a	20	n/a	n/a	n/a	n/a
2837.8203125	n/a	WORD	5811856	wordpools/wasnorm_wordpool_576.txt	LTP347	ltpFR2	16	13	VAGRANT	1544	n/a	n/a	0	0	0
2840.58642578125	n/a	WORD	5817521	wordpools/wasnorm_wordpool_576.txt	LTP347	ltpFR2	16	13	FLAG	573	n/a	n/a	0	0	0
2843.2685546875	n/a	WORD	5823014	wordpools/wasnorm_wordpool_576.txt	LTP347	ltpFR2	16	13	EGYPT	519	n/a	n/a	0	0	0
2845.75048828125	n/a	WORD	5828097	wordpools/wasnorm_wordpool_576.txt	LTP347	ltpFR2	16	13	GRAPE	654	n/a	n/a	0	0	0
2848.54833984375	n/a	WORD	5833827	wordpools/wasnorm_wordpool_576.txt	LTP347	ltpFR2	16	13	ORANGE	980	n/a	n/a	0	0	0
2851.33056640625	n/a	WORD	5839525	wordpools/wasnorm_wordpool_576.txt	LTP347	ltpFR2	16	13	TURTLE	1522	n/a	n/a	0	0	0
2853.96240234375	n/a	WORD	5844915	wordpools/wasnorm_wordpool_576.txt	LTP347	ltpFR2	16	13	MARSH	874	n/a	n/a	0	0	0
2856.478515625	n/a	WORD	5850068	wordpools/wasnorm_wordpool_576.txt	LTP347	ltpFR2	16	13	WOMAN	1620	n/a	n/a	0	0	0
2859.060546875	n/a	WORD	5855356	wordpools/wasnorm_wordpool_576.txt	LTP347	ltpFR2	16	13	COUSIN	392	n/a	n/a	0	0	0
2861.54248046875	n/a	WORD	5860439	wordpools/wasnorm_wordpool_576.txt	LTP347	ltpFR2	16	13	UNCLE	1536	n/a	n/a	0	0	0
2864.12451171875	n/a	WORD	5865727	wordpools/wasnorm_wordpool_576.txt	LTP347	ltpFR2	16	13	SPOUSE	1358	n/a	n/a	0	0	0
2866.556640625	n/a	WORD	5870708	wordpools/wasnorm_wordpool_576.txt	LTP347	ltpFR2	16	13	SIBLING	1301	n/a	n/a	0	0	0
2869.0556640625	n/a	WORD	5875826	wordpools/wasnorm_wordpool_576.txt	LTP347	ltpFR2	16	13	PEPPER	1047	n/a	n/a	0	0	0
2871.7705078125	n/a	WORD	5881386	wordpools/wasnorm_wordpool_576.txt	LTP347	ltpFR2	16	13	TART	1436	n/a	n/a	0	0	0
2874.3857421875	n/a	WORD	5886742	wordpools/wasnorm_wordpool_576.txt	LTP347	ltpFR2	16	13	STREAM	1392	n/a	n/a	0	0	0
2877.20166015625	n/a	WORD	5892509	wordpools/wasnorm_wordpool_576.txt	LTP347	ltpFR2	16	13	FLOWER	584	n/a	n/a	0	0	0
2880.0166015625	n/a	WORD	5898274	wordpools/wasnorm_wordpool_576.txt	LTP347	ltpFR2	16	13	STICKER	1382	n/a	n/a	0	0	0
2882.666015625	n/a	WORD	5903700	wordpools/wasnorm_wordpool_576.txt	LTP347	ltpFR2	16	13	DUST	508	n/a	n/a	0	0	0
2885.31396484375	n/a	WORD	5909123	wordpools/wasnorm_wordpool_576.txt	LTP347	ltpFR2	16	13	SNAIL	1332	n/a	n/a	0	0	0
2887.962890625	n/a	WORD	5914548	wordpools/wasnorm_wordpool_576.txt	LTP347	ltpFR2	16	13	SHELF	1280	n/a	n/a	0	0	0
2890.77783203125	n/a	WORD	5920313	wordpools/wasnorm_wordpool_576.txt	LTP347	ltpFR2	16	13	SUBWAY	1400	n/a	n/a	0	0	0
2893.5927734375	n/a	WORD	5926078	wordpools/wasnorm_wordpool_576.txt	LTP347	ltpFR2	16	13	LABEL	790	n/a	n/a	0	0	0
2896.375	n/a	WORD	5931776	wordpools/wasnorm_wordpool_576.txt	LTP347	ltpFR2	16	13	SHORTS	1293	n/a	n/a	0	0	0
2899.02392578125	n/a	WORD	5937201	wordpools/wasnorm_wordpool_576.txt	LTP347	ltpFR2	16	13	PACKAGE	997	n/a	n/a	0	0	0
2900.64013671875	n/a	START	5940511	n/a	LTP347	ltpFR2	16	n/a	n/a	n/a	21	n/a	n/a	n/a	n/a
2901.76171875	n/a	DISTRACTOR	5942808	n/a	LTP347	ltpFR2	16	13	n/a	n/a	n/a	n/a	0	0	0
2901.77294921875	n/a	PROB	5942831	n/a	LTP347	ltpFR2	16	n/a	n/a	n/a	21	8	2	5	1
2903.60498046875	n/a	PROB	5946583	n/a	LTP347	ltpFR2	16	n/a	n/a	n/a	21	8	2	2	4
2904.98779296875	n/a	PROB	5949415	n/a	LTP347	ltpFR2	16	n/a	n/a	n/a	21	10	1	6	3
2906.48681640625	n/a	PROB	5952485	n/a	LTP347	ltpFR2	16	n/a	n/a	n/a	21	9	1	3	5
2907.65283203125	n/a	PROB	5954873	n/a	LTP347	ltpFR2	16	n/a	n/a	n/a	21	26	9	8	9
2909.0859375	n/a	PROB	5957808	n/a	LTP347	ltpFR2	16	n/a	n/a	n/a	21	12	9	2	1
2910.3681640625	n/a	PROB	5960434	n/a	LTP347	ltpFR2	16	n/a	n/a	n/a	21	13	3	6	4
2911.7177734375	n/a	PROB	5963198	n/a	LTP347	ltpFR2	16	n/a	n/a	n/a	21	11	5	3	3
2912.98388671875	n/a	PROB	5965791	n/a	LTP347	ltpFR2	16	n/a	n/a	n/a	21	18	5	4	7
2914.6162109375	n/a	PROB	5969134	n/a	LTP347	ltpFR2	16	n/a	n/a	n/a	21	10	3	5	2
2916.18212890625	n/a	PROB	5972341	n/a	LTP347	ltpFR2	16	n/a	n/a	n/a	21	18	7	3	8
2917.73095703125	n/a	PROB	5975513	n/a	LTP347	ltpFR2	16	n/a	n/a	n/a	21	14	3	6	5
2919.3310546875	n/a	PROB	5978790	n/a	LTP347	ltpFR2	16	n/a	n/a	n/a	21	13	4	4	5
2921.31298828125	n/a	PROB	5982849	n/a	LTP347	ltpFR2	16	n/a	n/a	n/a	21	19	9	5	5
2922.59619140625	n/a	PROB	5985477	n/a	LTP347	ltpFR2	16	n/a	n/a	n/a	21	14	5	2	7
2924.3740234375	n/a	STOP	5989118	n/a	LTP347	ltpFR2	16	n/a	n/a	n/a	21	n/a	n/a	n/a	n/a
2926.42919921875	n/a	REC_START	5993327	n/a	LTP347	ltpFR2	16	13	n/a	n/a	n/a	n/a	0	0	0
2929.43896484375	n/a	REC_WORD_VV	5999491	wordpools/wasnorm_wordpool_576.txt	LTP347	ltpFR2	16	13	<>	-1	n/a	n/a	0	0	0
2932.322265625	n/a	REC_WORD	6005396	wordpools/wasnorm_wordpool_576.txt	LTP347	ltpFR2	16	13	FLOWER	584	n/a	n/a	0	0	0
2935.2490234375	n/a	REC_WORD	6011390	wordpools/wasnorm_wordpool_576.txt	LTP347	ltpFR2	16	13	OIL	-1	n/a	n/a	0	0	0
2941.654296875	n/a	REC_WORD	6024508	wordpools/wasnorm_wordpool_576.txt	LTP347	ltpFR2	16	13	STREAM	1392	n/a	n/a	0	0	0
3016.86669921875	n/a	DISTRACTOR	6178543	n/a	LTP347	ltpFR2	16	14	n/a	n/a	n/a	n/a	0	0	0
3016.86669921875	n/a	START	6178543	n/a	LTP347	ltpFR2	16	n/a	n/a	n/a	22	n/a	n/a	n/a	n/a
3016.8828125	n/a	PROB	6178576	n/a	LTP347	ltpFR2	16	n/a	n/a	n/a	22	19	9	7	3
3018.048828125	n/a	PROB	6180964	n/a	LTP347	ltpFR2	16	n/a	n/a	n/a	22	3	1	1	1
3019.11572265625	n/a	PROB	6183149	n/a	LTP347	ltpFR2	16	n/a	n/a	n/a	22	21	8	5	8
3020.74755859375	n/a	PROB	6186491	n/a	LTP347	ltpFR2	16	n/a	n/a	n/a	22	225	8	8	9
3024.4296875	n/a	PROB	6194032	n/a	LTP347	ltpFR2	16	n/a	n/a	n/a	22	14	5	6	3
3027.74462890625	n/a	PROB	6200821	n/a	LTP347	ltpFR2	16	n/a	n/a	n/a	22	12	1	3	8
3030.8759765625	n/a	PROB	6207234	n/a	LTP347	ltpFR2	16	n/a	n/a	n/a	22	17	7	8	2
3032.42578125	n/a	PROB	6210408	n/a	LTP347	ltpFR2	16	n/a	n/a	n/a	22	11	1	7	3
3033.60791015625	n/a	PROB	6212829	n/a	LTP347	ltpFR2	16	n/a	n/a	n/a	22	8	1	3	3
3035.20703125	n/a	PROB	6216104	n/a	LTP347	ltpFR2	16	n/a	n/a	n/a	22	10	7	1	2
3037.18994140625	n/a	PROB	6220165	n/a	LTP347	ltpFR2	16	n/a	n/a	n/a	22	14	3	2	9
3039.0390625	n/a	PROB	6223952	n/a	LTP347	ltpFR2	16	n/a	n/a	n/a	22	7	2	2	3
3040.82275390625	n/a	STOP	6227605	n/a	LTP347	ltpFR2	16	n/a	n/a	n/a	22	n/a	n/a	n/a	n/a
3041.720703125	n/a	WORD	6229444	wordpools/wasnorm_wordpool_576.txt	LTP347	ltpFR2	16	14	APRON	35	n/a	n/a	0	0	0
3044.302734375	n/a	WORD	6234732	wordpools/wasnorm_wordpool_576.txt	LTP347	ltpFR2	16	14	ROBBER	1197	n/a	n/a	0	0	0
3047.1181640625	n/a	WORD	6240498	wordpools/wasnorm_wordpool_576.txt	LTP347	ltpFR2	16	14	GRILL	661	n/a	n/a	0	0	0
3049.9169921875	n/a	WORD	6246230	wordpools/wasnorm_wordpool_576.txt	LTP347	ltpFR2	16	14	TEMPLE	1448	n/a	n/a	0	0	0
3052.3662109375	n/a	WORD	6251246	wordpools/wasnorm_wordpool_576.txt	LTP347	ltpFR2	16	14	BANKER	84	n/a	n/a	0	0	0
3054.98095703125	n/a	WORD	6256601	wordpools/wasnorm_wordpool_576.txt	LTP347	ltpFR2	16	14	PISTON	1076	n/a	n/a	0	0	0
3057.7958984375	n/a	WORD	6262366	wordpools/wasnorm_wordpool_576.txt	LTP347	ltpFR2	16	14	HOOD	714	n/a	n/a	0	0	0
3060.61181640625	n/a	WORD	6268133	wordpools/wasnorm_wordpool_576.txt	LTP347	ltpFR2	16	14	PLATE	1086	n/a	n/a	0	0	0
3063.22705078125	n/a	WORD	6273489	wordpools/wasnorm_wordpool_576.txt	LTP347	ltpFR2	16	14	SIDEWALK	1303	n/a	n/a	0	0	0
3065.77587890625	n/a	WORD	6278709	wordpools/wasnorm_wordpool_576.txt	LTP347	ltpFR2	16	14	ITEM	746	n/a	n/a	0	0	0
3068.25830078125	n/a	WORD	6283793	wordpools/wasnorm_wordpool_576.txt	LTP347	ltpFR2	16	14	HAWK	692	n/a	n/a	0	0	0
3070.8232421875	n/a	WORD	6289046	wordpools/wasnorm_wordpool_576.txt	LTP347	ltpFR2	16	14	SPARROW	1347	n/a	n/a	0	0	0
3073.455078125	n/a	WORD	6294436	wordpools/wasnorm_wordpool_576.txt	LTP347	ltpFR2	16	14	SMOG	1330	n/a	n/a	0	0	0
3075.88720703125	n/a	WORD	6299417	wordpools/wasnorm_wordpool_576.txt	LTP347	ltpFR2	16	14	CIGAR	308	n/a	n/a	0	0	0
3078.43603515625	n/a	WORD	6304637	wordpools/wasnorm_wordpool_576.txt	LTP347	ltpFR2	16	14	ROCKET	1202	n/a	n/a	0	0	0
3081.201171875	n/a	WORD	6310300	wordpools/wasnorm_wordpool_576.txt	LTP347	ltpFR2	16	14	SHERIFF	1284	n/a	n/a	0	0	0
3083.71728515625	n/a	WORD	6315453	wordpools/wasnorm_wordpool_576.txt	LTP347	ltpFR2	16	14	SPOON	1357	n/a	n/a	0	0	0
3086.18212890625	n/a	WORD	6320501	wordpools/wasnorm_wordpool_576.txt	LTP347	ltpFR2	16	14	BUNNY	198	n/a	n/a	0	0	0
3088.63134765625	n/a	WORD	6325517	wordpools/wasnorm_wordpool_576.txt	LTP347	ltpFR2	16	14	CARRIAGE	248	n/a	n/a	0	0	0
3091.3134765625	n/a	WORD	6331010	wordpools/wasnorm_wordpool_576.txt	LTP347	ltpFR2	16	14	BROOK	177	n/a	n/a	0	0	0
3093.912109375	n/a	WORD	6336332	wordpools/wasnorm_wordpool_576.txt	LTP347	ltpFR2	16	14	IGLOO	734	n/a	n/a	0	0	0
3096.6103515625	n/a	WORD	6341858	wordpools/wasnorm_wordpool_576.txt	LTP347	ltpFR2	16	14	THIEF	1456	n/a	n/a	0	0	0
3099.29248046875	n/a	WORD	6347351	wordpools/wasnorm_wordpool_576.txt	LTP347	ltpFR2	16	14	COURSE	390	n/a	n/a	0	0	0
3101.84130859375	n/a	WORD	6352571	wordpools/wasnorm_wordpool_576.txt	LTP347	ltpFR2	16	14	TORTOISE	1486	n/a	n/a	0	0	0
3103.45751953125	n/a	START	6355881	n/a	LTP347	ltpFR2	16	n/a	n/a	n/a	23	n/a	n/a	n/a	n/a
3104.478515625	n/a	DISTRACTOR	6357972	n/a	LTP347	ltpFR2	16	14	n/a	n/a	n/a	n/a	0	0	0
3104.490234375	n/a	PROB	6357996	n/a	LTP347	ltpFR2	16	n/a	n/a	n/a	23	18	7	4	7
3106.7392578125	n/a	PROB	6362602	n/a	LTP347	ltpFR2	16	n/a	n/a	n/a	23	16	7	3	6
3108.05517578125	n/a	PROB	6365297	n/a	LTP347	ltpFR2	16	n/a	n/a	n/a	23	9	1	3	5
3109.30419921875	n/a	PROB	6367855	n/a	LTP347	ltpFR2	16	n/a	n/a	n/a	23	13	5	5	3
3110.5205078125	n/a	PROB	6370346	n/a	LTP347	ltpFR2	16	n/a	n/a	n/a	23	24	9	7	8
3112.5693359375	n/a	PROB	6374542	n/a	LTP347	ltpFR2	16	n/a	n/a	n/a	23	20	9	6	5
3114.3515625	n/a	PROB	6378192	n/a	LTP347	ltpFR2	16	n/a	n/a	n/a	23	16	5	8	3
3117.00048828125	n/a	PROB	6383617	n/a	LTP347	ltpFR2	16	n/a	n/a	n/a	23	20	3	8	9
3118.7333984375	n/a	PROB	6387166	n/a	LTP347	ltpFR2	16	n/a	n/a	n/a	23	11	6	2	3
3120.41552734375	n/a	PROB	6390611	n/a	LTP347	ltpFR2	16	n/a	n/a	n/a	23	16	6	2	8
3121.6982421875	n/a	PROB	6393238	n/a	LTP347	ltpFR2	16	n/a	n/a	n/a	23	10	4	1	5
3122.88134765625	n/a	PROB	6395661	n/a	LTP347	ltpFR2	16	n/a	n/a	n/a	23	18	7	7	4
3124.29736328125	n/a	PROB	6398561	n/a	LTP347	ltpFR2	16	n/a	n/a	n/a	23	17	1	8	8
3126.51171875	n/a	STOP	6403096	n/a	LTP347	ltpFR2	16	n/a	n/a	n/a	23	n/a	n/a	n/a	n/a
3129.345703125	n/a	REC_START	6408900	n/a	LTP347	ltpFR2	16	14	n/a	n/a	n/a	n/a	0	0	0
3130.07470703125	n/a	REC_WORD	6410393	wordpools/wasnorm_wordpool_576.txt	LTP347	ltpFR2	16	14	CARRIAGE	248	n/a	n/a	0	0	0
3130.693359375	n/a	REC_WORD	6411660	wordpools/wasnorm_wordpool_576.txt	LTP347	ltpFR2	16	14	BROOK	177	n/a	n/a	0	0	0
3131.19970703125	n/a	REC_WORD	6412697	wordpools/wasnorm_wordpool_576.txt	LTP347	ltpFR2	16	14	IGLOO	734	n/a	n/a	0	0	0
3131.69873046875	n/a	REC_WORD	6413719	wordpools/wasnorm_wordpool_576.txt	LTP347	ltpFR2	16	14	THIEF	1456	n/a	n/a	0	0	0
3132.24755859375	n/a	REC_WORD	6414843	wordpools/wasnorm_wordpool_576.txt	LTP347	ltpFR2	16	14	COURSE	390	n/a	n/a	0	0	0
3132.75634765625	n/a	REC_WORD	6415885	wordpools/wasnorm_wordpool_576.txt	LTP347	ltpFR2	16	14	TORTOISE	1486	n/a	n/a	0	0	0
3134.04736328125	n/a	REC_WORD	6418529	wordpools/wasnorm_wordpool_576.txt	LTP347	ltpFR2	16	14	APRON	35	n/a	n/a	0	0	0
3134.3955078125	n/a	REC_WORD	6419242	wordpools/wasnorm_wordpool_576.txt	LTP347	ltpFR2	16	14	THIEF	1456	n/a	n/a	0	0	0
3135.00732421875	n/a	REC_WORD	6420495	wordpools/wasnorm_wordpool_576.txt	LTP347	ltpFR2	16	14	GRILL	661	n/a	n/a	0	0	0
3141.45068359375	n/a	REC_WORD	6433691	wordpools/wasnorm_wordpool_576.txt	LTP347	ltpFR2	16	14	SHERIFF	1284	n/a	n/a	0	0	0
3143.60546875	n/a	REC_WORD	6438104	wordpools/wasnorm_wordpool_576.txt	LTP347	ltpFR2	16	14	SPOON	1357	n/a	n/a	0	0	0
3219.80029296875	n/a	WORD	6594151	wordpools/wasnorm_wordpool_576.txt	LTP347	ltpFR2	16	15	ORCHID	982	n/a	n/a	0	0	0
3222.3662109375	n/a	WORD	6599406	wordpools/wasnorm_wordpool_576.txt	LTP347	ltpFR2	16	15	POLICE	1098	n/a	n/a	0	0	0
3224.94921875	n/a	WORD	6604696	wordpools/wasnorm_wordpool_576.txt	LTP347	ltpFR2	16	15	STATUE	1374	n/a	n/a	0	0	0
3227.76318359375	n/a	WORD	6610459	wordpools/wasnorm_wordpool_576.txt	LTP347	ltpFR2	16	15	BLENDER	136	n/a	n/a	0	0	0
3230.37841796875	n/a	WORD	6615815	wordpools/wasnorm_wordpool_576.txt	LTP347	ltpFR2	16	15	WINDOW	1611	n/a	n/a	0	0	0
3232.91015625	n/a	WORD	6621000	wordpools/wasnorm_wordpool_576.txt	LTP347	ltpFR2	16	15	OUTDOORS	987	n/a	n/a	0	0	0
3235.5419921875	n/a	WORD	6626390	wordpools/wasnorm_wordpool_576.txt	LTP347	ltpFR2	16	15	VELVET	1555	n/a	n/a	0	0	0
3238.2080078125	n/a	WORD	6631850	wordpools/wasnorm_wordpool_576.txt	LTP347	ltpFR2	16	15	PANTHER	1009	n/a	n/a	0	0	0
3240.92431640625	n/a	WORD	6637413	wordpools/wasnorm_wordpool_576.txt	LTP347	ltpFR2	16	15	TRIBE	1505	n/a	n/a	0	0	0
3243.48828125	n/a	WORD	6642664	wordpools/wasnorm_wordpool_576.txt	LTP347	ltpFR2	16	15	FEMALE	559	n/a	n/a	0	0	0
3245.92138671875	n/a	WORD	6647647	wordpools/wasnorm_wordpool_576.txt	LTP347	ltpFR2	16	15	LADY	794	n/a	n/a	0	0	0
3248.619140625	n/a	WORD	6653172	wordpools/wasnorm_wordpool_576.txt	LTP347	ltpFR2	16	15	EAGLE	512	n/a	n/a	0	0	0
3251.3515625	n/a	WORD	6658768	wordpools/wasnorm_wordpool_576.txt	LTP347	ltpFR2	16	15	SCARECROW	1245	n/a	n/a	0	0	0
3253.8671875	n/a	WORD	6663920	wordpools/wasnorm_wordpool_576.txt	LTP347	ltpFR2	16	15	SPACE	1345	n/a	n/a	0	0	0
3256.365234375	n/a	WORD	6669036	wordpools/wasnorm_wordpool_576.txt	LTP347	ltpFR2	16	15	PRINCE	1124	n/a	n/a	0	0	0
3259.064453125	n/a	WORD	6674564	wordpools/wasnorm_wordpool_576.txt	LTP347	ltpFR2	16	15	STONE	1385	n/a	n/a	0	0	0
3261.71337890625	n/a	WORD	6679989	wordpools/wasnorm_wordpool_576.txt	LTP347	ltpFR2	16	15	FOREST	593	n/a	n/a	0	0	0
3264.4453125	n/a	WORD	6685584	wordpools/wasnorm_wordpool_576.txt	LTP347	ltpFR2	16	15	POSSUM	1112	n/a	n/a	0	0	0
3267.1103515625	n/a	WORD	6691042	wordpools/wasnorm_wordpool_576.txt	LTP347	ltpFR2	16	15	LILY	821	n/a	n/a	0	0	0
3269.7255859375	n/a	WORD	6696398	wordpools/wasnorm_wordpool_576.txt	LTP347	ltpFR2	16	15	SALAD	1224	n/a	n/a	0	0	0
3272.15771484375	n/a	WORD	6701379	wordpools/wasnorm_wordpool_576.txt	LTP347	ltpFR2	16	15	LETTUCE	814	n/a	n/a	0	0	0
3274.59033203125	n/a	WORD	6706361	wordpools/wasnorm_wordpool_576.txt	LTP347	ltpFR2	16	15	POSTAGE	1113	n/a	n/a	0	0	0
3277.0224609375	n/a	WORD	6711342	wordpools/wasnorm_wordpool_576.txt	LTP347	ltpFR2	16	15	PLAYGROUND	1087	n/a	n/a	0	0	0
3279.62060546875	n/a	WORD	6716663	wordpools/wasnorm_wordpool_576.txt	LTP347	ltpFR2	16	15	SLIDE	1326	n/a	n/a	0	0	0
3281.2373046875	n/a	START	6719974	n/a	LTP347	ltpFR2	16	n/a	n/a	n/a	24	n/a	n/a	n/a	n/a
3282.20166015625	n/a	DISTRACTOR	6721949	n/a	LTP347	ltpFR2	16	15	n/a	n/a	n/a	n/a	0	0	0
3282.20263671875	n/a	PROB	6721951	n/a	LTP347	ltpFR2	16	n/a	n/a	n/a	24	12	1	3	8
3283.4697265625	n/a	PROB	6724546	n/a	LTP347	ltpFR2	16	n/a	n/a	n/a	24	16	9	4	3
3285.20166015625	n/a	PROB	6728093	n/a	LTP347	ltpFR2	16	n/a	n/a	n/a	24	22	8	9	5
3288.41650390625	n/a	PROB	6734677	n/a	LTP347	ltpFR2	16	n/a	n/a	n/a	24	14	6	5	3
3290.58251953125	n/a	PROB	6739113	n/a	LTP347	ltpFR2	16	n/a	n/a	n/a	24	21	7	8	6
3292.44775390625	n/a	PROB	6742933	n/a	LTP347	ltpFR2	16	n/a	n/a	n/a	24	20	5	8	7
3294.130859375	n/a	PROB	6746380	n/a	LTP347	ltpFR2	16	n/a	n/a	n/a	24	10	1	7	2
3295.4638671875	n/a	PROB	6749110	n/a	LTP347	ltpFR2	16	n/a	n/a	n/a	24	11	5	2	4
3296.978515625	n/a	PROB	6752212	n/a	LTP347	ltpFR2	16	n/a	n/a	n/a	24	11	1	6	4
3298.228515625	n/a	PROB	6754772	n/a	LTP347	ltpFR2	16	n/a	n/a	n/a	24	25	9	9	7
3301.32666015625	n/a	PROB	6761117	n/a	LTP347	ltpFR2	16	n/a	n/a	n/a	24	12	2	4	6
3303.009765625	n/a	PROB	6764564	n/a	LTP347	ltpFR2	16	n/a	n/a	n/a	24	19	8	3	8
3304.40869140625	n/a	STOP	6767429	n/a	LTP347	ltpFR2	16	n/a	n/a	n/a	24	n/a	n/a	n/a	n/a
3307.04150390625	n/a	REC_START	6772821	n/a	LTP347	ltpFR2	16	15	n/a	n/a	n/a	n/a	0	0	0
3307.146484375	n/a	REC_WORD	6773036	wordpools/wasnorm_wordpool_576.txt	LTP347	ltpFR2	16	15	LILY	821	n/a	n/a	0	0	0
3307.5205078125	n/a	REC_WORD	6773802	wordpools/wasnorm_wordpool_576.txt	LTP347	ltpFR2	16	15	SALAD	1224	n/a	n/a	0	0	0
3308.10693359375	n/a	REC_WORD	6775003	wordpools/wasnorm_wordpool_576.txt	LTP347	ltpFR2	16	15	LETTUCE	814	n/a	n/a	0	0	0
3308.7294921875	n/a	REC_WORD	6776278	wordpools/wasnorm_wordpool_576.txt	LTP347	ltpFR2	16	15	POSTAGE	1113	n/a	n/a	0	0	0
3309.36669921875	n/a	REC_WORD	6777583	wordpools/wasnorm_wordpool_576.txt	LTP347	ltpFR2	16	15	PLAYGROUND	1087	n/a	n/a	0	0	0
3310.052734375	n/a	REC_WORD	6778988	wordpools/wasnorm_wordpool_576.txt	LTP347	ltpFR2	16	15	SLIDE	1326	n/a	n/a	0	0	0
3314.20458984375	n/a	REC_WORD	6787491	wordpools/wasnorm_wordpool_576.txt	LTP347	ltpFR2	16	15	WOMAN	1620	n/a	n/a	0	0	0
3314.73193359375	n/a	REC_WORD	6788571	wordpools/wasnorm_wordpool_576.txt	LTP347	ltpFR2	16	15	LADY	794	n/a	n/a	0	0	0
3315.0869140625	n/a	REC_WORD	6789298	wordpools/wasnorm_wordpool_576.txt	LTP347	ltpFR2	16	15	EAGLE	512	n/a	n/a	0	0	0
3321.78564453125	n/a	REC_WORD	6803017	wordpools/wasnorm_wordpool_576.txt	LTP347	ltpFR2	16	15	VELVET	1555	n/a	n/a	0	0	0
3322.31689453125	n/a	REC_WORD	6804105	wordpools/wasnorm_wordpool_576.txt	LTP347	ltpFR2	16	15	PANTHER	1009	n/a	n/a	0	0	0
3322.97802734375	n/a	REC_WORD	6805459	wordpools/wasnorm_wordpool_576.txt	LTP347	ltpFR2	16	15	TRIBE	1505	n/a	n/a	0	0	0
3327.72900390625	n/a	REC_WORD	6815189	wordpools/wasnorm_wordpool_576.txt	LTP347	ltpFR2	16	15	ORCHID	982	n/a	n/a	0	0	0
3328.22998046875	n/a	REC_WORD	6816215	wordpools/wasnorm_wordpool_576.txt	LTP347	ltpFR2	16	15	POLICE	1098	n/a	n/a	0	0	0
3328.6650390625	n/a	REC_WORD	6817106	wordpools/wasnorm_wordpool_576.txt	LTP347	ltpFR2	16	15	STATUE	1374	n/a	n/a	0	0	0
3397.49658203125	n/a	WORD	6958073	wordpools/wasnorm_wordpool_576.txt	LTP347	ltpFR2	16	16	MUMMY	932	n/a	n/a	0	0	0
3400.09521484375	n/a	WORD	6963395	wordpools/wasnorm_wordpool_576.txt	LTP347	ltpFR2	16	16	THRONE	1461	n/a	n/a	0	0	0
3402.84423828125	n/a	WORD	6969025	wordpools/wasnorm_wordpool_576.txt	LTP347	ltpFR2	16	16	DANCER	437	n/a	n/a	0	0	0
3405.34228515625	n/a	WORD	6974141	wordpools/wasnorm_wordpool_576.txt	LTP347	ltpFR2	16	16	FIREMAN	569	n/a	n/a	0	0	0
3407.9912109375	n/a	WORD	6979566	wordpools/wasnorm_wordpool_576.txt	LTP347	ltpFR2	16	16	BUCKET	184	n/a	n/a	0	0	0
3410.67333984375	n/a	WORD	6985059	wordpools/wasnorm_wordpool_576.txt	LTP347	ltpFR2	16	16	ANTLER	29	n/a	n/a	0	0	0
3413.48828125	n/a	WORD	6990824	wordpools/wasnorm_wordpool_576.txt	LTP347	ltpFR2	16	16	MACHINE	852	n/a	n/a	0	0	0
3416.00439453125	n/a	WORD	6995977	wordpools/wasnorm_wordpool_576.txt	LTP347	ltpFR2	16	16	GRIZZLY	662	n/a	n/a	0	0	0
3418.61962890625	n/a	WORD	7001333	wordpools/wasnorm_wordpool_576.txt	LTP347	ltpFR2	16	16	JELLO	754	n/a	n/a	0	0	0
3421.33447265625	n/a	WORD	7006893	wordpools/wasnorm_wordpool_576.txt	LTP347	ltpFR2	16	16	PUPIL	1143	n/a	n/a	0	0	0
3423.96630859375	n/a	WORD	7012283	wordpools/wasnorm_wordpool_576.txt	LTP347	ltpFR2	16	16	TUTU	1524	n/a	n/a	0	0	0
3426.71533203125	n/a	WORD	7017913	wordpools/wasnorm_wordpool_576.txt	LTP347	ltpFR2	16	16	WORLD	1622	n/a	n/a	0	0	0
3429.5146484375	n/a	WORD	7023646	wordpools/wasnorm_wordpool_576.txt	LTP347	ltpFR2	16	16	BELLY	119	n/a	n/a	0	0	0
3431.9794921875	n/a	WORD	7028694	wordpools/wasnorm_wordpool_576.txt	LTP347	ltpFR2	16	16	PRIMATE	1123	n/a	n/a	0	0	0
3434.478515625	n/a	WORD	7033812	wordpools/wasnorm_wordpool_576.txt	LTP347	ltpFR2	16	16	COUNTRY	388	n/a	n/a	0	0	0
3437.27685546875	n/a	WORD	7039543	wordpools/wasnorm_wordpool_576.txt	LTP347	ltpFR2	16	16	GALLON	618	n/a	n/a	0	0	0
3439.9267578125	n/a	WORD	7044970	wordpools/wasnorm_wordpool_576.txt	LTP347	ltpFR2	16	16	CUPBOARD	425	n/a	n/a	0	0	0
3442.640625	n/a	WORD	7050528	wordpools/wasnorm_wordpool_576.txt	LTP347	ltpFR2	16	16	SUPPER	1411	n/a	n/a	0	0	0
3445.189453125	n/a	WORD	7055748	wordpools/wasnorm_wordpool_576.txt	LTP347	ltpFR2	16	16	BASEMENT	94	n/a	n/a	0	0	0
3447.82177734375	n/a	WORD	7061139	wordpools/wasnorm_wordpool_576.txt	LTP347	ltpFR2	16	16	CELLAR	267	n/a	n/a	0	0	0
3450.32080078125	n/a	WORD	7066257	wordpools/wasnorm_wordpool_576.txt	LTP347	ltpFR2	16	16	CANDY	230	n/a	n/a	0	0	0
3453.0859375	n/a	WORD	7071920	wordpools/wasnorm_wordpool_576.txt	LTP347	ltpFR2	16	16	TREAT	1501	n/a	n/a	0	0	0
3455.70166015625	n/a	WORD	7077277	wordpools/wasnorm_wordpool_576.txt	LTP347	ltpFR2	16	16	MUSTARD	935	n/a	n/a	0	0	0
3458.1337890625	n/a	WORD	7082258	wordpools/wasnorm_wordpool_576.txt	LTP347	ltpFR2	16	16	EUROPE	541	n/a	n/a	0	0	0
3459.75	n/a	START	7085568	n/a	LTP347	ltpFR2	16	n/a	n/a	n/a	25	n/a	n/a	n/a	n/a
3460.5888671875	n/a	DISTRACTOR	7087286	n/a	LTP347	ltpFR2	16	16	n/a	n/a	n/a	n/a	0	0	0
3460.5986328125	n/a	PROB	7087306	n/a	LTP347	ltpFR2	16	n/a	n/a	n/a	25	17	6	9	2
3462.84765625	n/a	PROB	7091912	n/a	LTP347	ltpFR2	16	n/a	n/a	n/a	25	18	9	3	6
3464.796875	n/a	PROB	7095904	n/a	LTP347	ltpFR2	16	n/a	n/a	n/a	25	10	5	4	1
3466.1298828125	n/a	PROB	7098634	n/a	LTP347	ltpFR2	16	n/a	n/a	n/a	25	21	9	6	6
3467.61181640625	n/a	PROB	7101669	n/a	LTP347	ltpFR2	16	n/a	n/a	n/a	25	14	3	9	2
3469.86083984375	n/a	PROB	7106275	n/a	LTP347	ltpFR2	16	n/a	n/a	n/a	25	10	4	4	2
3470.99365234375	n/a	PROB	7108595	n/a	LTP347	ltpFR2	16	n/a	n/a	n/a	25	15	5	6	4
3472.29296875	n/a	PROB	7111256	n/a	LTP347	ltpFR2	16	n/a	n/a	n/a	25	4	1	1	2
3473.40869140625	n/a	PROB	7113541	n/a	LTP347	ltpFR2	16	n/a	n/a	n/a	25	11	9	1	1
3474.82470703125	n/a	PROB	7116441	n/a	LTP347	ltpFR2	16	n/a	n/a	n/a	25	14	7	5	2
3479.47314453125	n/a	PROB	7125961	n/a	LTP347	ltpFR2	16	n/a	n/a	n/a	25	20	4	8	8
3483.7490234375	n/a	STOP	7134718	n/a	LTP347	ltpFR2	16	n/a	n/a	n/a	25	n/a	n/a	n/a	n/a
3485.62109375	n/a	REC_START	7138552	n/a	LTP347	ltpFR2	16	16	n/a	n/a	n/a	n/a	0	0	0
3487.23291015625	n/a	REC_WORD	7141853	wordpools/wasnorm_wordpool_576.txt	LTP347	ltpFR2	16	16	GALLEY	-1	n/a	n/a	0	0	0
3562.16650390625	n/a	REST_REWET	7295317	n/a	LTP347	ltpFR2	16	16	n/a	n/a	n/a	n/a	0	0	0
