mstime	trial_type	stim_file	subject	experiment	session	trial	task	item_name	item_num	recog_conf	resp	answer	test_x	test_y	test_z	color_b	color_g	color_r	case	font
0	SESS_START	n/a	LTP251	ltpFR	7	n/a	n/a	n/a	n/a	1	n/a	n/a	0	0	0	n/a	n/a	n/a	n/a	n/a
112783	START	n/a	LTP251	ltpFR	7	n/a	n/a	n/a	n/a	n/a	n/a	n/a	n/a	n/a	n/a	n/a	n/a	n/a	n/a	n/a
112832	PROB	n/a	LTP251	ltpFR	7	n/a	n/a	n/a	n/a	n/a	n/a	16	3	5	8	n/a	n/a	n/a	n/a	n/a
116479	PROB	n/a	LTP251	ltpFR	7	n/a	n/a	n/a	n/a	n/a	n/a	7	1	1	5	n/a	n/a	n/a	n/a	n/a
118771	PROB	n/a	LTP251	ltpFR	7	n/a	n/a	n/a	n/a	n/a	n/a	14	6	5	3	n/a	n/a	n/a	n/a	n/a
123790	PROB	n/a	LTP251	ltpFR	7	n/a	n/a	n/a	n/a	n/a	n/a	20	3	9	8	n/a	n/a	n/a	n/a	n/a
128141	PROB	n/a	LTP251	ltpFR	7	n/a	n/a	n/a	n/a	n/a	n/a	17	4	3	7	n/a	n/a	n/a	n/a	n/a
132783	STOP	n/a	LTP251	ltpFR	7	n/a	n/a	n/a	n/a	n/a	n/a	n/a	n/a	n/a	n/a	n/a	n/a	n/a	n/a	n/a
316868	WORD	wordpools/wasnorm_wordpool_less_exclusions.txt	LTP251	ltpFR	7	1	0	VACUUM	1543	n/a	1	n/a	0	0	0	0	0.5869140625	0.422607421875	lower	../fonts/amplitud.ttf
320766	WORD	wordpools/wasnorm_wordpool_less_exclusions.txt	LTP251	ltpFR	7	1	0	BINDER	127	n/a	0	n/a	0	0	0	0	0.5869140625	0.422607421875	lower	../fonts/amplitud.ttf
324681	WORD	wordpools/wasnorm_wordpool_less_exclusions.txt	LTP251	ltpFR	7	1	0	NOTE	958	n/a	0	n/a	0	0	0	0	0.5869140625	0.422607421875	lower	../fonts/amplitud.ttf
328796	WORD	wordpools/wasnorm_wordpool_less_exclusions.txt	LTP251	ltpFR	7	1	0	RACKET	1155	n/a	1	n/a	0	0	0	0	0.5869140625	0.422607421875	lower	../fonts/amplitud.ttf
332878	WORD	wordpools/wasnorm_wordpool_less_exclusions.txt	LTP251	ltpFR	7	1	0	STREAM	1392	n/a	0	n/a	0	0	0	0	0.5869140625	0.422607421875	lower	../fonts/amplitud.ttf
336877	WORD	wordpools/wasnorm_wordpool_less_exclusions.txt	LTP251	ltpFR	7	1	0	ROCKET	1202	n/a	1	n/a	0	0	0	0	0.5869140625	0.422607421875	lower	../fonts/amplitud.ttf
340842	WORD	wordpools/wasnorm_wordpool_less_exclusions.txt	LTP251	ltpFR	7	1	0	SOFA	1342	n/a	1	n/a	0	0	0	0	0.5869140625	0.422607421875	lower	../fonts/amplitud.ttf
344874	WORD	wordpools/wasnorm_wordpool_less_exclusions.txt	LTP251	ltpFR	7	1	0	STOOL	1386	n/a	1	n/a	0	0	0	0	0.5869140625	0.422607421875	lower	../fonts/amplitud.ttf
348802	WORD	wordpools/wasnorm_wordpool_less_exclusions.txt	LTP251	ltpFR	7	1	0	HINGE	709	n/a	0	n/a	0	0	0	0	0.5869140625	0.422607421875	lower	../fonts/amplitud.ttf
352686	WORD	wordpools/wasnorm_wordpool_less_exclusions.txt	LTP251	ltpFR	7	1	0	CONTINENT	367	n/a	1	n/a	0	0	0	0	0.5869140625	0.422607421875	lower	../fonts/amplitud.ttf
356718	WORD	wordpools/wasnorm_wordpool_less_exclusions.txt	LTP251	ltpFR	7	1	0	UNIFORM	1539	n/a	1	n/a	0	0	0	0	0.5869140625	0.422607421875	lower	../fonts/amplitud.ttf
360683	WORD	wordpools/wasnorm_wordpool_less_exclusions.txt	LTP251	ltpFR	7	1	0	UNDERWEAR	1537	n/a	0	n/a	0	0	0	0	0.5869140625	0.422607421875	lower	../fonts/amplitud.ttf
364799	WORD	wordpools/wasnorm_wordpool_less_exclusions.txt	LTP251	ltpFR	7	1	0	DANDRUFF	439	n/a	0	n/a	0	0	0	0	0.5869140625	0.422607421875	lower	../fonts/amplitud.ttf
368780	WORD	wordpools/wasnorm_wordpool_less_exclusions.txt	LTP251	ltpFR	7	1	0	SWAMP	1416	n/a	1	n/a	0	0	0	0	0.5869140625	0.422607421875	lower	../fonts/amplitud.ttf
372678	WORD	wordpools/wasnorm_wordpool_less_exclusions.txt	LTP251	ltpFR	7	1	0	BALL	73	n/a	0	n/a	0	0	0	0	0.5869140625	0.422607421875	lower	../fonts/amplitud.ttf
376707	WORD	wordpools/wasnorm_wordpool_less_exclusions.txt	LTP251	ltpFR	7	1	0	MOUNTAIN	924	n/a	1	n/a	0	0	0	0	0.5869140625	0.422607421875	lower	../fonts/amplitud.ttf
379722	START	n/a	LTP251	ltpFR	7	n/a	n/a	n/a	n/a	n/a	n/a	n/a	n/a	n/a	n/a	n/a	n/a	n/a	n/a	n/a
380809	PROB	n/a	LTP251	ltpFR	7	n/a	n/a	n/a	n/a	n/a	n/a	14	5	1	8	n/a	n/a	n/a	n/a	n/a
387721	STOP	n/a	LTP251	ltpFR	7	n/a	n/a	n/a	n/a	n/a	n/a	n/a	n/a	n/a	n/a	n/a	n/a	n/a	n/a	n/a
389610	REC_START	n/a	LTP251	ltpFR	7	1	n/a	n/a	n/a	n/a	n/a	n/a	0	0	0	n/a	n/a	n/a	n/a	n/a
390553	REC_WORD	wordpools/wasnorm_wordpool_less_exclusions.txt	LTP251	ltpFR	7	1	0	UNIFORM	1539	n/a	1	n/a	0	0	0	n/a	n/a	n/a	n/a	n/a
391690	REC_WORD	wordpools/wasnorm_wordpool_less_exclusions.txt	LTP251	ltpFR	7	1	0	DANDRUFF	439	n/a	0	n/a	0	0	0	n/a	n/a	n/a	n/a	n/a
392788	REC_WORD	wordpools/wasnorm_wordpool_less_exclusions.txt	LTP251	ltpFR	7	1	0	SWAMP	1416	n/a	1	n/a	0	0	0	n/a	n/a	n/a	n/a	n/a
394020	REC_WORD	wordpools/wasnorm_wordpool_less_exclusions.txt	LTP251	ltpFR	7	1	0	CONTINENT	367	n/a	1	n/a	0	0	0	n/a	n/a	n/a	n/a	n/a
395526	REC_WORD	wordpools/wasnorm_wordpool_less_exclusions.txt	LTP251	ltpFR	7	1	0	MOUNTAIN	924	n/a	1	n/a	0	0	0	n/a	n/a	n/a	n/a	n/a
396848	REC_WORD	wordpools/wasnorm_wordpool_less_exclusions.txt	LTP251	ltpFR	7	1	0	BALL	73	n/a	0	n/a	0	0	0	n/a	n/a	n/a	n/a	n/a
399018	REC_WORD	wordpools/wasnorm_wordpool_less_exclusions.txt	LTP251	ltpFR	7	1	0	RACKET	1155	n/a	1	n/a	0	0	0	n/a	n/a	n/a	n/a	n/a
403054	REC_WORD	wordpools/wasnorm_wordpool_less_exclusions.txt	LTP251	ltpFR	7	1	0	STREAM	1392	n/a	0	n/a	0	0	0	n/a	n/a	n/a	n/a	n/a
406561	REC_WORD	wordpools/wasnorm_wordpool_less_exclusions.txt	LTP251	ltpFR	7	1	0	SOFA	1342	n/a	1	n/a	0	0	0	n/a	n/a	n/a	n/a	n/a
408013	REC_WORD	wordpools/wasnorm_wordpool_less_exclusions.txt	LTP251	ltpFR	7	1	0	VACUUM	1543	n/a	1	n/a	0	0	0	n/a	n/a	n/a	n/a	n/a
409954	REC_WORD	wordpools/wasnorm_wordpool_less_exclusions.txt	LTP251	ltpFR	7	1	0	HINGE	709	n/a	0	n/a	0	0	0	n/a	n/a	n/a	n/a	n/a
411520	REC_WORD	wordpools/wasnorm_wordpool_less_exclusions.txt	LTP251	ltpFR	7	1	0	NOTE	958	n/a	0	n/a	0	0	0	n/a	n/a	n/a	n/a	n/a
413191	REC_WORD	wordpools/wasnorm_wordpool_less_exclusions.txt	LTP251	ltpFR	7	1	0	DANDRUFF	439	n/a	0	n/a	0	0	0	n/a	n/a	n/a	n/a	n/a
470678	START	n/a	LTP251	ltpFR	7	n/a	n/a	n/a	n/a	n/a	n/a	n/a	n/a	n/a	n/a	n/a	n/a	n/a	n/a	n/a
472188	PROB	n/a	LTP251	ltpFR	7	n/a	n/a	n/a	n/a	n/a	n/a	6	1	2	3	n/a	n/a	n/a	n/a	n/a
476169	PROB	n/a	LTP251	ltpFR	7	n/a	n/a	n/a	n/a	n/a	n/a	17	7	6	4	n/a	n/a	n/a	n/a	n/a
478516	STOP	n/a	LTP251	ltpFR	7	n/a	n/a	n/a	n/a	n/a	n/a	n/a	n/a	n/a	n/a	n/a	n/a	n/a	n/a	n/a
479698	WORD	wordpools/wasnorm_wordpool_less_exclusions.txt	LTP251	ltpFR	7	2	0	SKUNK	1321	n/a	0	n/a	0	0	0	0	0.5869140625	0.422607421875	lower	../fonts/amplitud.ttf
482710	START	n/a	LTP251	ltpFR	7	n/a	n/a	n/a	n/a	n/a	n/a	n/a	n/a	n/a	n/a	n/a	n/a	n/a	n/a	n/a
483747	PROB	n/a	LTP251	ltpFR	7	n/a	n/a	n/a	n/a	n/a	n/a	22	7	7	8	n/a	n/a	n/a	n/a	n/a
486842	PROB	n/a	LTP251	ltpFR	7	n/a	n/a	n/a	n/a	n/a	n/a	16	6	8	2	n/a	n/a	n/a	n/a	n/a
490709	STOP	n/a	LTP251	ltpFR	7	n/a	n/a	n/a	n/a	n/a	n/a	n/a	n/a	n/a	n/a	n/a	n/a	n/a	n/a	n/a
491841	WORD	wordpools/wasnorm_wordpool_less_exclusions.txt	LTP251	ltpFR	7	2	0	VEST	1559	n/a	0	n/a	0	0	0	0	0.5869140625	0.422607421875	lower	../fonts/amplitud.ttf
494856	START	n/a	LTP251	ltpFR	7	n/a	n/a	n/a	n/a	n/a	n/a	n/a	n/a	n/a	n/a	n/a	n/a	n/a	n/a	n/a
495890	PROB	n/a	LTP251	ltpFR	7	n/a	n/a	n/a	n/a	n/a	n/a	18	6	9	3	n/a	n/a	n/a	n/a	n/a
499506	PROB	n/a	LTP251	ltpFR	7	n/a	n/a	n/a	n/a	n/a	n/a	15	1	9	5	n/a	n/a	n/a	n/a	n/a
502856	STOP	n/a	LTP251	ltpFR	7	n/a	n/a	n/a	n/a	n/a	n/a	n/a	n/a	n/a	n/a	n/a	n/a	n/a	n/a	n/a
504004	WORD	wordpools/wasnorm_wordpool_less_exclusions.txt	LTP251	ltpFR	7	2	0	VEIN	1554	n/a	0	n/a	0	0	0	0	0.5869140625	0.422607421875	lower	../fonts/amplitud.ttf
507019	START	n/a	LTP251	ltpFR	7	n/a	n/a	n/a	n/a	n/a	n/a	n/a	n/a	n/a	n/a	n/a	n/a	n/a	n/a	n/a
507888	PROB	n/a	LTP251	ltpFR	7	n/a	n/a	n/a	n/a	n/a	n/a	10	4	4	2	n/a	n/a	n/a	n/a	n/a
510029	PROB	n/a	LTP251	ltpFR	7	n/a	n/a	n/a	n/a	n/a	n/a	18	7	9	2	n/a	n/a	n/a	n/a	n/a
515018	STOP	n/a	LTP251	ltpFR	7	n/a	n/a	n/a	n/a	n/a	n/a	n/a	n/a	n/a	n/a	n/a	n/a	n/a	n/a	n/a
516170	WORD	wordpools/wasnorm_wordpool_less_exclusions.txt	LTP251	ltpFR	7	2	0	FRAGRANCE	599	n/a	0	n/a	0	0	0	0	0.5869140625	0.422607421875	lower	../fonts/amplitud.ttf
519182	START	n/a	LTP251	ltpFR	7	n/a	n/a	n/a	n/a	n/a	n/a	n/a	n/a	n/a	n/a	n/a	n/a	n/a	n/a	n/a
520084	PROB	n/a	LTP251	ltpFR	7	n/a	n/a	n/a	n/a	n/a	n/a	21	6	9	6	n/a	n/a	n/a	n/a	n/a
522660	PROB	n/a	LTP251	ltpFR	7	n/a	n/a	n/a	n/a	n/a	n/a	8	4	1	3	n/a	n/a	n/a	n/a	n/a
524715	PROB	n/a	LTP251	ltpFR	7	n/a	n/a	n/a	n/a	n/a	n/a	16	7	4	5	n/a	n/a	n/a	n/a	n/a
526940	STOP	n/a	LTP251	ltpFR	7	n/a	n/a	n/a	n/a	n/a	n/a	n/a	n/a	n/a	n/a	n/a	n/a	n/a	n/a	n/a
528145	WORD	wordpools/wasnorm_wordpool_less_exclusions.txt	LTP251	ltpFR	7	2	0	CRITIC	410	n/a	1	n/a	0	0	0	0	0.5869140625	0.422607421875	lower	../fonts/amplitud.ttf
531161	START	n/a	LTP251	ltpFR	7	n/a	n/a	n/a	n/a	n/a	n/a	n/a	n/a	n/a	n/a	n/a	n/a	n/a	n/a	n/a
532076	PROB	n/a	LTP251	ltpFR	7	n/a	n/a	n/a	n/a	n/a	n/a	10	3	2	5	n/a	n/a	n/a	n/a	n/a
533819	PROB	n/a	LTP251	ltpFR	7	n/a	n/a	n/a	n/a	n/a	n/a	17	2	9	6	n/a	n/a	n/a	n/a	n/a
536797	PROB	n/a	LTP251	ltpFR	7	n/a	n/a	n/a	n/a	n/a	n/a	11	3	1	7	n/a	n/a	n/a	n/a	n/a
538652	STOP	n/a	LTP251	ltpFR	7	n/a	n/a	n/a	n/a	n/a	n/a	n/a	n/a	n/a	n/a	n/a	n/a	n/a	n/a	n/a
540093	WORD	wordpools/wasnorm_wordpool_less_exclusions.txt	LTP251	ltpFR	7	2	0	ACTOR	5	n/a	1	n/a	0	0	0	0	0.5869140625	0.422607421875	lower	../fonts/amplitud.ttf
543105	START	n/a	LTP251	ltpFR	7	n/a	n/a	n/a	n/a	n/a	n/a	n/a	n/a	n/a	n/a	n/a	n/a	n/a	n/a	n/a
543957	PROB	n/a	LTP251	ltpFR	7	n/a	n/a	n/a	n/a	n/a	n/a	16	5	9	2	n/a	n/a	n/a	n/a	n/a
545931	PROB	n/a	LTP251	ltpFR	7	n/a	n/a	n/a	n/a	n/a	n/a	9	5	3	1	n/a	n/a	n/a	n/a	n/a
548086	PROB	n/a	LTP251	ltpFR	7	n/a	n/a	n/a	n/a	n/a	n/a	16	1	7	8	n/a	n/a	n/a	n/a	n/a
550076	STOP	n/a	LTP251	ltpFR	7	n/a	n/a	n/a	n/a	n/a	n/a	n/a	n/a	n/a	n/a	n/a	n/a	n/a	n/a	n/a
552323	WORD	wordpools/wasnorm_wordpool_less_exclusions.txt	LTP251	ltpFR	7	2	0	LAUNDRY	803	n/a	1	n/a	0	0	0	0	0.5869140625	0.422607421875	lower	../fonts/amplitud.ttf
555335	START	n/a	LTP251	ltpFR	7	n/a	n/a	n/a	n/a	n/a	n/a	n/a	n/a	n/a	n/a	n/a	n/a	n/a	n/a	n/a
556521	PROB	n/a	LTP251	ltpFR	7	n/a	n/a	n/a	n/a	n/a	n/a	19	9	4	7	n/a	n/a	n/a	n/a	n/a
559981	PROB	n/a	LTP251	ltpFR	7	n/a	n/a	n/a	n/a	n/a	n/a	22	7	6	8	n/a	n/a	n/a	n/a	n/a
562732	STOP	n/a	LTP251	ltpFR	7	n/a	n/a	n/a	n/a	n/a	n/a	n/a	n/a	n/a	n/a	n/a	n/a	n/a	n/a	n/a
564268	WORD	wordpools/wasnorm_wordpool_less_exclusions.txt	LTP251	ltpFR	7	2	0	BANANA	77	n/a	0	n/a	0	0	0	0	0.5869140625	0.422607421875	lower	../fonts/amplitud.ttf
567280	START	n/a	LTP251	ltpFR	7	n/a	n/a	n/a	n/a	n/a	n/a	n/a	n/a	n/a	n/a	n/a	n/a	n/a	n/a	n/a
568250	PROB	n/a	LTP251	ltpFR	7	n/a	n/a	n/a	n/a	n/a	n/a	14	3	3	8	n/a	n/a	n/a	n/a	n/a
570909	PROB	n/a	LTP251	ltpFR	7	n/a	n/a	n/a	n/a	n/a	n/a	10	3	6	1	n/a	n/a	n/a	n/a	n/a
575280	STOP	n/a	LTP251	ltpFR	7	n/a	n/a	n/a	n/a	n/a	n/a	n/a	n/a	n/a	n/a	n/a	n/a	n/a	n/a	n/a
576280	WORD	wordpools/wasnorm_wordpool_less_exclusions.txt	LTP251	ltpFR	7	2	0	LAMB	797	n/a	1	n/a	0	0	0	0	0.5869140625	0.422607421875	lower	../fonts/amplitud.ttf
579292	START	n/a	LTP251	ltpFR	7	n/a	n/a	n/a	n/a	n/a	n/a	n/a	n/a	n/a	n/a	n/a	n/a	n/a	n/a	n/a
580279	PROB	n/a	LTP251	ltpFR	7	n/a	n/a	n/a	n/a	n/a	n/a	14	3	7	4	n/a	n/a	n/a	n/a	n/a
583754	PROB	n/a	LTP251	ltpFR	7	n/a	n/a	n/a	n/a	n/a	n/a	16	8	5	3	n/a	n/a	n/a	n/a	n/a
585732	STOP	n/a	LTP251	ltpFR	7	n/a	n/a	n/a	n/a	n/a	n/a	n/a	n/a	n/a	n/a	n/a	n/a	n/a	n/a	n/a
588442	WORD	wordpools/wasnorm_wordpool_less_exclusions.txt	LTP251	ltpFR	7	2	0	SHEEP	1278	n/a	0	n/a	0	0	0	0	0.5869140625	0.422607421875	lower	../fonts/amplitud.ttf
591454	START	n/a	LTP251	ltpFR	7	n/a	n/a	n/a	n/a	n/a	n/a	n/a	n/a	n/a	n/a	n/a	n/a	n/a	n/a	n/a
592540	PROB	n/a	LTP251	ltpFR	7	n/a	n/a	n/a	n/a	n/a	n/a	23	7	7	9	n/a	n/a	n/a	n/a	n/a
598444	STOP	n/a	LTP251	ltpFR	7	n/a	n/a	n/a	n/a	n/a	n/a	n/a	n/a	n/a	n/a	n/a	n/a	n/a	n/a	n/a
600651	WORD	wordpools/wasnorm_wordpool_less_exclusions.txt	LTP251	ltpFR	7	2	0	SHORTCAKE	1292	n/a	1	n/a	0	0	0	0	0.5869140625	0.422607421875	lower	../fonts/amplitud.ttf
603666	START	n/a	LTP251	ltpFR	7	n/a	n/a	n/a	n/a	n/a	n/a	n/a	n/a	n/a	n/a	n/a	n/a	n/a	n/a	n/a
604683	PROB	n/a	LTP251	ltpFR	7	n/a	n/a	n/a	n/a	n/a	n/a	5	2	2	1	n/a	n/a	n/a	n/a	n/a
606307	PROB	n/a	LTP251	ltpFR	7	n/a	n/a	n/a	n/a	n/a	n/a	15	3	4	7	n/a	n/a	n/a	n/a	n/a
608384	PROB	n/a	LTP251	ltpFR	7	n/a	n/a	n/a	n/a	n/a	n/a	19	7	7	5	n/a	n/a	n/a	n/a	n/a
610084	STOP	n/a	LTP251	ltpFR	7	n/a	n/a	n/a	n/a	n/a	n/a	n/a	n/a	n/a	n/a	n/a	n/a	n/a	n/a	n/a
612834	WORD	wordpools/wasnorm_wordpool_less_exclusions.txt	LTP251	ltpFR	7	2	0	WAVE	1596	n/a	1	n/a	0	0	0	0	0.5869140625	0.422607421875	lower	../fonts/amplitud.ttf
615846	START	n/a	LTP251	ltpFR	7	n/a	n/a	n/a	n/a	n/a	n/a	n/a	n/a	n/a	n/a	n/a	n/a	n/a	n/a	n/a
616983	PROB	n/a	LTP251	ltpFR	7	n/a	n/a	n/a	n/a	n/a	n/a	20	4	7	9	n/a	n/a	n/a	n/a	n/a
619342	PROB	n/a	LTP251	ltpFR	7	n/a	n/a	n/a	n/a	n/a	n/a	15	3	9	3	n/a	n/a	n/a	n/a	n/a
621617	PROB	n/a	LTP251	ltpFR	7	n/a	n/a	n/a	n/a	n/a	n/a	16	3	5	8	n/a	n/a	n/a	n/a	n/a
623133	STOP	n/a	LTP251	ltpFR	7	n/a	n/a	n/a	n/a	n/a	n/a	n/a	n/a	n/a	n/a	n/a	n/a	n/a	n/a	n/a
624829	WORD	wordpools/wasnorm_wordpool_less_exclusions.txt	LTP251	ltpFR	7	2	0	FAUCET	555	n/a	1	n/a	0	0	0	0	0.5869140625	0.422607421875	lower	../fonts/amplitud.ttf
627841	START	n/a	LTP251	ltpFR	7	n/a	n/a	n/a	n/a	n/a	n/a	n/a	n/a	n/a	n/a	n/a	n/a	n/a	n/a	n/a
628724	PROB	n/a	LTP251	ltpFR	7	n/a	n/a	n/a	n/a	n/a	n/a	8	3	3	2	n/a	n/a	n/a	n/a	n/a
632692	PROB	n/a	LTP251	ltpFR	7	n/a	n/a	n/a	n/a	n/a	n/a	17	5	6	8	n/a	n/a	n/a	n/a	n/a
634836	STOP	n/a	LTP251	ltpFR	7	n/a	n/a	n/a	n/a	n/a	n/a	n/a	n/a	n/a	n/a	n/a	n/a	n/a	n/a	n/a
636707	WORD	wordpools/wasnorm_wordpool_less_exclusions.txt	LTP251	ltpFR	7	2	0	COMPANION	357	n/a	1	n/a	0	0	0	0	0.5869140625	0.422607421875	lower	../fonts/amplitud.ttf
639719	START	n/a	LTP251	ltpFR	7	n/a	n/a	n/a	n/a	n/a	n/a	n/a	n/a	n/a	n/a	n/a	n/a	n/a	n/a	n/a
640705	PROB	n/a	LTP251	ltpFR	7	n/a	n/a	n/a	n/a	n/a	n/a	20	3	9	8	n/a	n/a	n/a	n/a	n/a
642646	PROB	n/a	LTP251	ltpFR	7	n/a	n/a	n/a	n/a	n/a	n/a	24	8	8	8	n/a	n/a	n/a	n/a	n/a
646309	STOP	n/a	LTP251	ltpFR	7	n/a	n/a	n/a	n/a	n/a	n/a	n/a	n/a	n/a	n/a	n/a	n/a	n/a	n/a	n/a
648685	WORD	wordpools/wasnorm_wordpool_less_exclusions.txt	LTP251	ltpFR	7	2	0	SPONGE	1355	n/a	0	n/a	0	0	0	0	0.5869140625	0.422607421875	lower	../fonts/amplitud.ttf
651697	START	n/a	LTP251	ltpFR	7	n/a	n/a	n/a	n/a	n/a	n/a	n/a	n/a	n/a	n/a	n/a	n/a	n/a	n/a	n/a
652848	PROB	n/a	LTP251	ltpFR	7	n/a	n/a	n/a	n/a	n/a	n/a	9	3	5	1	n/a	n/a	n/a	n/a	n/a
654521	PROB	n/a	LTP251	ltpFR	7	n/a	n/a	n/a	n/a	n/a	n/a	15	2	7	4	n/a	n/a	n/a	n/a	n/a
658237	STOP	n/a	LTP251	ltpFR	7	n/a	n/a	n/a	n/a	n/a	n/a	n/a	n/a	n/a	n/a	n/a	n/a	n/a	n/a	n/a
660881	WORD	wordpools/wasnorm_wordpool_less_exclusions.txt	LTP251	ltpFR	7	2	0	BRAKE	166	n/a	0	n/a	0	0	0	0	0.5869140625	0.422607421875	lower	../fonts/amplitud.ttf
663893	START	n/a	LTP251	ltpFR	7	n/a	n/a	n/a	n/a	n/a	n/a	n/a	n/a	n/a	n/a	n/a	n/a	n/a	n/a	n/a
664947	PROB	n/a	LTP251	ltpFR	7	n/a	n/a	n/a	n/a	n/a	n/a	19	9	7	3	n/a	n/a	n/a	n/a	n/a
666804	PROB	n/a	LTP251	ltpFR	7	n/a	n/a	n/a	n/a	n/a	n/a	22	6	7	9	n/a	n/a	n/a	n/a	n/a
671893	STOP	n/a	LTP251	ltpFR	7	n/a	n/a	n/a	n/a	n/a	n/a	n/a	n/a	n/a	n/a	n/a	n/a	n/a	n/a	n/a
673664	REC_START	n/a	LTP251	ltpFR	7	2	n/a	n/a	n/a	n/a	n/a	n/a	0	0	0	n/a	n/a	n/a	n/a	n/a
675305	REC_WORD	wordpools/wasnorm_wordpool_less_exclusions.txt	LTP251	ltpFR	7	2	0	SPONGE	1355	n/a	0	n/a	0	0	0	n/a	n/a	n/a	n/a	n/a
676512	REC_WORD	wordpools/wasnorm_wordpool_less_exclusions.txt	LTP251	ltpFR	7	2	0	SHORTCAKE	1292	n/a	1	n/a	0	0	0	n/a	n/a	n/a	n/a	n/a
677512	REC_WORD_VV	wordpools/wasnorm_wordpool_less_exclusions.txt	LTP251	ltpFR	7	2	n/a	<>	-1	n/a	n/a	n/a	0	0	0	n/a	n/a	n/a	n/a	n/a
680872	REC_WORD	wordpools/wasnorm_wordpool_less_exclusions.txt	LTP251	ltpFR	7	2	0	FAUCET	555	n/a	1	n/a	0	0	0	n/a	n/a	n/a	n/a	n/a
757948	START	n/a	LTP251	ltpFR	7	n/a	n/a	n/a	n/a	n/a	n/a	n/a	n/a	n/a	n/a	n/a	n/a	n/a	n/a	n/a
759453	PROB	n/a	LTP251	ltpFR	7	n/a	n/a	n/a	n/a	n/a	n/a	14	7	4	3	n/a	n/a	n/a	n/a	n/a
761477	PROB	n/a	LTP251	ltpFR	7	n/a	n/a	n/a	n/a	n/a	n/a	19	3	9	7	n/a	n/a	n/a	n/a	n/a
763382	PROB	n/a	LTP251	ltpFR	7	n/a	n/a	n/a	n/a	n/a	n/a	13	2	3	8	n/a	n/a	n/a	n/a	n/a
765100	STOP	n/a	LTP251	ltpFR	7	n/a	n/a	n/a	n/a	n/a	n/a	n/a	n/a	n/a	n/a	n/a	n/a	n/a	n/a	n/a
767048	WORD	wordpools/wasnorm_wordpool_less_exclusions.txt	LTP251	ltpFR	7	3	1	ALLIGATOR	16	n/a	1	n/a	0	0	0	1	0.412841796875	0.57763671875	upper	../fonts/zerothre.ttf
770060	START	n/a	LTP251	ltpFR	7	n/a	n/a	n/a	n/a	n/a	n/a	n/a	n/a	n/a	n/a	n/a	n/a	n/a	n/a	n/a
771198	PROB	n/a	LTP251	ltpFR	7	n/a	n/a	n/a	n/a	n/a	n/a	18	5	7	6	n/a	n/a	n/a	n/a	n/a
774374	PROB	n/a	LTP251	ltpFR	7	n/a	n/a	n/a	n/a	n/a	n/a	15	9	4	2	n/a	n/a	n/a	n/a	n/a
776492	STOP	n/a	LTP251	ltpFR	7	n/a	n/a	n/a	n/a	n/a	n/a	n/a	n/a	n/a	n/a	n/a	n/a	n/a	n/a	n/a
779225	WORD	wordpools/wasnorm_wordpool_less_exclusions.txt	LTP251	ltpFR	7	3	1	BOTTLE	153	n/a	0	n/a	0	0	0	1	0.412841796875	0.57763671875	upper	../fonts/zerothre.ttf
782241	START	n/a	LTP251	ltpFR	7	n/a	n/a	n/a	n/a	n/a	n/a	n/a	n/a	n/a	n/a	n/a	n/a	n/a	n/a	n/a
783059	PROB	n/a	LTP251	ltpFR	7	n/a	n/a	n/a	n/a	n/a	n/a	13	3	8	2	n/a	n/a	n/a	n/a	n/a
790241	STOP	n/a	LTP251	ltpFR	7	n/a	n/a	n/a	n/a	n/a	n/a	n/a	n/a	n/a	n/a	n/a	n/a	n/a	n/a	n/a
791220	WORD	wordpools/wasnorm_wordpool_less_exclusions.txt	LTP251	ltpFR	7	3	1	TEA	1439	n/a	1	n/a	0	0	0	1	0.412841796875	0.57763671875	upper	../fonts/zerothre.ttf
794236	START	n/a	LTP251	ltpFR	7	n/a	n/a	n/a	n/a	n/a	n/a	n/a	n/a	n/a	n/a	n/a	n/a	n/a	n/a	n/a
795389	PROB	n/a	LTP251	ltpFR	7	n/a	n/a	n/a	n/a	n/a	n/a	25	7	9	9	n/a	n/a	n/a	n/a	n/a
798500	PROB	n/a	LTP251	ltpFR	7	n/a	n/a	n/a	n/a	n/a	n/a	16	7	4	5	n/a	n/a	n/a	n/a	n/a
800288	PROB	n/a	LTP251	ltpFR	7	n/a	n/a	n/a	n/a	n/a	n/a	16	7	1	8	n/a	n/a	n/a	n/a	n/a
801796	STOP	n/a	LTP251	ltpFR	7	n/a	n/a	n/a	n/a	n/a	n/a	n/a	n/a	n/a	n/a	n/a	n/a	n/a	n/a	n/a
803202	WORD	wordpools/wasnorm_wordpool_less_exclusions.txt	LTP251	ltpFR	7	3	1	SPARROW	1347	n/a	1	n/a	0	0	0	1	0.412841796875	0.57763671875	upper	../fonts/zerothre.ttf
806214	START	n/a	LTP251	ltpFR	7	n/a	n/a	n/a	n/a	n/a	n/a	n/a	n/a	n/a	n/a	n/a	n/a	n/a	n/a	n/a
807032	PROB	n/a	LTP251	ltpFR	7	n/a	n/a	n/a	n/a	n/a	n/a	19	4	7	8	n/a	n/a	n/a	n/a	n/a
809205	PROB	n/a	LTP251	ltpFR	7	n/a	n/a	n/a	n/a	n/a	n/a	17	7	5	7	n/a	n/a	n/a	n/a	n/a
811081	PROB	n/a	LTP251	ltpFR	7	n/a	n/a	n/a	n/a	n/a	n/a	22	8	8	6	n/a	n/a	n/a	n/a	n/a
813460	STOP	n/a	LTP251	ltpFR	7	n/a	n/a	n/a	n/a	n/a	n/a	n/a	n/a	n/a	n/a	n/a	n/a	n/a	n/a	n/a
815348	WORD	wordpools/wasnorm_wordpool_less_exclusions.txt	LTP251	ltpFR	7	3	1	CARDINAL	244	n/a	1	n/a	0	0	0	1	0.412841796875	0.57763671875	upper	../fonts/zerothre.ttf
818360	START	n/a	LTP251	ltpFR	7	n/a	n/a	n/a	n/a	n/a	n/a	n/a	n/a	n/a	n/a	n/a	n/a	n/a	n/a	n/a
819196	PROB	n/a	LTP251	ltpFR	7	n/a	n/a	n/a	n/a	n/a	n/a	14	6	6	2	n/a	n/a	n/a	n/a	n/a
822708	PROB	n/a	LTP251	ltpFR	7	n/a	n/a	n/a	n/a	n/a	n/a	13	1	4	8	n/a	n/a	n/a	n/a	n/a
824615	PROB	n/a	LTP251	ltpFR	7	n/a	n/a	n/a	n/a	n/a	n/a	13	9	1	2	n/a	n/a	n/a	n/a	n/a
826036	STOP	n/a	LTP251	ltpFR	7	n/a	n/a	n/a	n/a	n/a	n/a	n/a	n/a	n/a	n/a	n/a	n/a	n/a	n/a	n/a
827559	WORD	wordpools/wasnorm_wordpool_less_exclusions.txt	LTP251	ltpFR	7	3	1	WARRIOR	1589	n/a	1	n/a	0	0	0	1	0.412841796875	0.57763671875	upper	../fonts/zerothre.ttf
830572	START	n/a	LTP251	ltpFR	7	n/a	n/a	n/a	n/a	n/a	n/a	n/a	n/a	n/a	n/a	n/a	n/a	n/a	n/a	n/a
831739	PROB	n/a	LTP251	ltpFR	7	n/a	n/a	n/a	n/a	n/a	n/a	13	6	2	5	n/a	n/a	n/a	n/a	n/a
835068	PROB	n/a	LTP251	ltpFR	7	n/a	n/a	n/a	n/a	n/a	n/a	7	5	3	2	n/a	n/a	n/a	n/a	n/a
838412	STOP	n/a	LTP251	ltpFR	7	n/a	n/a	n/a	n/a	n/a	n/a	n/a	n/a	n/a	n/a	n/a	n/a	n/a	n/a	n/a
839618	WORD	wordpools/wasnorm_wordpool_less_exclusions.txt	LTP251	ltpFR	7	3	1	FIST	572	n/a	0	n/a	0	0	0	1	0.412841796875	0.57763671875	upper	../fonts/zerothre.ttf
842634	START	n/a	LTP251	ltpFR	7	n/a	n/a	n/a	n/a	n/a	n/a	n/a	n/a	n/a	n/a	n/a	n/a	n/a	n/a	n/a
843517	PROB	n/a	LTP251	ltpFR	7	n/a	n/a	n/a	n/a	n/a	n/a	10	5	4	1	n/a	n/a	n/a	n/a	n/a
845391	PROB	n/a	LTP251	ltpFR	7	n/a	n/a	n/a	n/a	n/a	n/a	14	6	9	2	n/a	n/a	n/a	n/a	n/a
847248	PROB	n/a	LTP251	ltpFR	7	n/a	n/a	n/a	n/a	n/a	n/a	8	4	1	3	n/a	n/a	n/a	n/a	n/a
850357	STOP	n/a	LTP251	ltpFR	7	n/a	n/a	n/a	n/a	n/a	n/a	n/a	n/a	n/a	n/a	n/a	n/a	n/a	n/a	n/a
851583	WORD	wordpools/wasnorm_wordpool_less_exclusions.txt	LTP251	ltpFR	7	3	1	PIT	1077	n/a	0	n/a	0	0	0	1	0.412841796875	0.57763671875	upper	../fonts/zerothre.ttf
854595	START	n/a	LTP251	ltpFR	7	n/a	n/a	n/a	n/a	n/a	n/a	n/a	n/a	n/a	n/a	n/a	n/a	n/a	n/a	n/a
855665	PROB	n/a	LTP251	ltpFR	7	n/a	n/a	n/a	n/a	n/a	n/a	23	9	8	6	n/a	n/a	n/a	n/a	n/a
862595	STOP	n/a	LTP251	ltpFR	7	n/a	n/a	n/a	n/a	n/a	n/a	n/a	n/a	n/a	n/a	n/a	n/a	n/a	n/a	n/a
863662	WORD	wordpools/wasnorm_wordpool_less_exclusions.txt	LTP251	ltpFR	7	3	1	TOOTHPASTE	1483	n/a	0	n/a	0	0	0	1	0.412841796875	0.57763671875	upper	../fonts/zerothre.ttf
866674	START	n/a	LTP251	ltpFR	7	n/a	n/a	n/a	n/a	n/a	n/a	n/a	n/a	n/a	n/a	n/a	n/a	n/a	n/a	n/a
867778	PROB	n/a	LTP251	ltpFR	7	n/a	n/a	n/a	n/a	n/a	n/a	11	4	2	5	n/a	n/a	n/a	n/a	n/a
869886	PROB	n/a	LTP251	ltpFR	7	n/a	n/a	n/a	n/a	n/a	n/a	14	9	6	1	n/a	n/a	n/a	n/a	n/a
874673	STOP	n/a	LTP251	ltpFR	7	n/a	n/a	n/a	n/a	n/a	n/a	n/a	n/a	n/a	n/a	n/a	n/a	n/a	n/a	n/a
875775	WORD	wordpools/wasnorm_wordpool_less_exclusions.txt	LTP251	ltpFR	7	3	1	SNAKE	1333	n/a	1	n/a	0	0	0	1	0.412841796875	0.57763671875	upper	../fonts/zerothre.ttf
878787	START	n/a	LTP251	ltpFR	7	n/a	n/a	n/a	n/a	n/a	n/a	n/a	n/a	n/a	n/a	n/a	n/a	n/a	n/a	n/a
879723	PROB	n/a	LTP251	ltpFR	7	n/a	n/a	n/a	n/a	n/a	n/a	12	3	1	8	n/a	n/a	n/a	n/a	n/a
881510	PROB	n/a	LTP251	ltpFR	7	n/a	n/a	n/a	n/a	n/a	n/a	21	9	8	4	n/a	n/a	n/a	n/a	n/a
884608	PROB	n/a	LTP251	ltpFR	7	n/a	n/a	n/a	n/a	n/a	n/a	7	2	3	2	n/a	n/a	n/a	n/a	n/a
886181	STOP	n/a	LTP251	ltpFR	7	n/a	n/a	n/a	n/a	n/a	n/a	n/a	n/a	n/a	n/a	n/a	n/a	n/a	n/a	n/a
887653	WORD	wordpools/wasnorm_wordpool_less_exclusions.txt	LTP251	ltpFR	7	3	1	BLADE	134	n/a	0	n/a	0	0	0	1	0.412841796875	0.57763671875	upper	../fonts/zerothre.ttf
890665	START	n/a	LTP251	ltpFR	7	n/a	n/a	n/a	n/a	n/a	n/a	n/a	n/a	n/a	n/a	n/a	n/a	n/a	n/a	n/a
891718	PROB	n/a	LTP251	ltpFR	7	n/a	n/a	n/a	n/a	n/a	n/a	15	4	6	5	n/a	n/a	n/a	n/a	n/a
893441	PROB	n/a	LTP251	ltpFR	7	n/a	n/a	n/a	n/a	n/a	n/a	18	8	2	8	n/a	n/a	n/a	n/a	n/a
895078	PROB	n/a	LTP251	ltpFR	7	n/a	n/a	n/a	n/a	n/a	n/a	20	3	9	8	n/a	n/a	n/a	n/a	n/a
896904	PROB	n/a	LTP251	ltpFR	7	n/a	n/a	n/a	n/a	n/a	n/a	9	5	5	4	n/a	n/a	n/a	n/a	n/a
898157	STOP	n/a	LTP251	ltpFR	7	n/a	n/a	n/a	n/a	n/a	n/a	n/a	n/a	n/a	n/a	n/a	n/a	n/a	n/a	n/a
899865	WORD	wordpools/wasnorm_wordpool_less_exclusions.txt	LTP251	ltpFR	7	3	1	CRATER	400	n/a	0	n/a	0	0	0	1	0.412841796875	0.57763671875	upper	../fonts/zerothre.ttf
902877	START	n/a	LTP251	ltpFR	7	n/a	n/a	n/a	n/a	n/a	n/a	n/a	n/a	n/a	n/a	n/a	n/a	n/a	n/a	n/a
903794	PROB	n/a	LTP251	ltpFR	7	n/a	n/a	n/a	n/a	n/a	n/a	25	8	9	9	n/a	n/a	n/a	n/a	n/a
907678	PROB	n/a	LTP251	ltpFR	7	n/a	n/a	n/a	n/a	n/a	n/a	15	4	5	6	n/a	n/a	n/a	n/a	n/a
909948	STOP	n/a	LTP251	ltpFR	7	n/a	n/a	n/a	n/a	n/a	n/a	n/a	n/a	n/a	n/a	n/a	n/a	n/a	n/a	n/a
911760	WORD	wordpools/wasnorm_wordpool_less_exclusions.txt	LTP251	ltpFR	7	3	1	POSSUM	1112	n/a	1	n/a	0	0	0	1	0.412841796875	0.57763671875	upper	../fonts/zerothre.ttf
914772	START	n/a	LTP251	ltpFR	7	n/a	n/a	n/a	n/a	n/a	n/a	n/a	n/a	n/a	n/a	n/a	n/a	n/a	n/a	n/a
915622	PROB	n/a	LTP251	ltpFR	7	n/a	n/a	n/a	n/a	n/a	n/a	19	3	8	8	n/a	n/a	n/a	n/a	n/a
919536	PROB	n/a	LTP251	ltpFR	7	n/a	n/a	n/a	n/a	n/a	n/a	11	1	6	4	n/a	n/a	n/a	n/a	n/a
921317	STOP	n/a	LTP251	ltpFR	7	n/a	n/a	n/a	n/a	n/a	n/a	n/a	n/a	n/a	n/a	n/a	n/a	n/a	n/a	n/a
923739	WORD	wordpools/wasnorm_wordpool_less_exclusions.txt	LTP251	ltpFR	7	3	1	GIRL	637	n/a	1	n/a	0	0	0	1	0.412841796875	0.57763671875	upper	../fonts/zerothre.ttf
926751	START	n/a	LTP251	ltpFR	7	n/a	n/a	n/a	n/a	n/a	n/a	n/a	n/a	n/a	n/a	n/a	n/a	n/a	n/a	n/a
927871	PROB	n/a	LTP251	ltpFR	7	n/a	n/a	n/a	n/a	n/a	n/a	14	2	7	5	n/a	n/a	n/a	n/a	n/a
929591	PROB	n/a	LTP251	ltpFR	7	n/a	n/a	n/a	n/a	n/a	n/a	9	5	2	2	n/a	n/a	n/a	n/a	n/a
931301	PROB	n/a	LTP251	ltpFR	7	n/a	n/a	n/a	n/a	n/a	n/a	11	4	1	7	n/a	n/a	n/a	n/a	n/a
934751	STOP	n/a	LTP251	ltpFR	7	n/a	n/a	n/a	n/a	n/a	n/a	n/a	n/a	n/a	n/a	n/a	n/a	n/a	n/a	n/a
935881	WORD	wordpools/wasnorm_wordpool_less_exclusions.txt	LTP251	ltpFR	7	3	1	MECHANIC	884	n/a	0	n/a	0	0	0	1	0.412841796875	0.57763671875	upper	../fonts/zerothre.ttf
938896	START	n/a	LTP251	ltpFR	7	n/a	n/a	n/a	n/a	n/a	n/a	n/a	n/a	n/a	n/a	n/a	n/a	n/a	n/a	n/a
940067	PROB	n/a	LTP251	ltpFR	7	n/a	n/a	n/a	n/a	n/a	n/a	19	9	4	4	n/a	n/a	n/a	n/a	n/a
942377	PROB	n/a	LTP251	ltpFR	7	n/a	n/a	n/a	n/a	n/a	n/a	12	2	6	4	n/a	n/a	n/a	n/a	n/a
945436	STOP	n/a	LTP251	ltpFR	7	n/a	n/a	n/a	n/a	n/a	n/a	n/a	n/a	n/a	n/a	n/a	n/a	n/a	n/a	n/a
948014	WORD	wordpools/wasnorm_wordpool_less_exclusions.txt	LTP251	ltpFR	7	3	1	RATTLE	1170	n/a	1	n/a	0	0	0	1	0.412841796875	0.57763671875	upper	../fonts/zerothre.ttf
951025	START	n/a	LTP251	ltpFR	7	n/a	n/a	n/a	n/a	n/a	n/a	n/a	n/a	n/a	n/a	n/a	n/a	n/a	n/a	n/a
951845	PROB	n/a	LTP251	ltpFR	7	n/a	n/a	n/a	n/a	n/a	n/a	11	1	5	5	n/a	n/a	n/a	n/a	n/a
953464	PROB	n/a	LTP251	ltpFR	7	n/a	n/a	n/a	n/a	n/a	n/a	14	4	9	1	n/a	n/a	n/a	n/a	n/a
955438	PROB	n/a	LTP251	ltpFR	7	n/a	n/a	n/a	n/a	n/a	n/a	15	3	4	8	n/a	n/a	n/a	n/a	n/a
959024	STOP	n/a	LTP251	ltpFR	7	n/a	n/a	n/a	n/a	n/a	n/a	n/a	n/a	n/a	n/a	n/a	n/a	n/a	n/a	n/a
960946	REC_START	n/a	LTP251	ltpFR	7	3	n/a	n/a	n/a	n/a	n/a	n/a	0	0	0	n/a	n/a	n/a	n/a	n/a
962517	REC_WORD	wordpools/wasnorm_wordpool_less_exclusions.txt	LTP251	ltpFR	7	3	1	RATTLE	1170	n/a	1	n/a	0	0	0	n/a	n/a	n/a	n/a	n/a
963794	REC_WORD	wordpools/wasnorm_wordpool_less_exclusions.txt	LTP251	ltpFR	7	3	n/a	CROCODILE	411	n/a	n/a	n/a	0	0	0	n/a	n/a	n/a	n/a	n/a
965321	REC_WORD	wordpools/wasnorm_wordpool_less_exclusions.txt	LTP251	ltpFR	7	3	1	CARDINAL	244	n/a	1	n/a	0	0	0	n/a	n/a	n/a	n/a	n/a
966807	REC_WORD	wordpools/wasnorm_wordpool_less_exclusions.txt	LTP251	ltpFR	7	3	1	PIT	1077	n/a	0	n/a	0	0	0	n/a	n/a	n/a	n/a	n/a
968224	REC_WORD	wordpools/wasnorm_wordpool_less_exclusions.txt	LTP251	ltpFR	7	3	n/a	TRAITOR	1495	n/a	n/a	n/a	0	0	0	n/a	n/a	n/a	n/a	n/a
970080	REC_WORD	wordpools/wasnorm_wordpool_less_exclusions.txt	LTP251	ltpFR	7	3	1	POSSUM	1112	n/a	1	n/a	0	0	0	n/a	n/a	n/a	n/a	n/a
974236	REC_WORD	wordpools/wasnorm_wordpool_less_exclusions.txt	LTP251	ltpFR	7	3	1	GIRL	637	n/a	1	n/a	0	0	0	n/a	n/a	n/a	n/a	n/a
977383	REC_WORD	wordpools/wasnorm_wordpool_less_exclusions.txt	LTP251	ltpFR	7	3	1	FIST	572	n/a	0	n/a	0	0	0	n/a	n/a	n/a	n/a	n/a
986024	REC_WORD	wordpools/wasnorm_wordpool_less_exclusions.txt	LTP251	ltpFR	7	3	1	BOTTLE	153	n/a	0	n/a	0	0	0	n/a	n/a	n/a	n/a	n/a
1045147	WORD	wordpools/wasnorm_wordpool_less_exclusions.txt	LTP251	ltpFR	7	4	1	OFFICE	972	n/a	1	n/a	0	0	0	1	0.412841796875	0.57763671875	upper	../fonts/zerothre.ttf
1049279	WORD	wordpools/wasnorm_wordpool_less_exclusions.txt	LTP251	ltpFR	7	4	1	RECEPTIONIST	1174	n/a	1	n/a	0	0	0	1	0.412841796875	0.57763671875	upper	../fonts/zerothre.ttf
1053358	WORD	wordpools/wasnorm_wordpool_less_exclusions.txt	LTP251	ltpFR	7	4	1	FOUNTAIN	597	n/a	0	n/a	0	0	0	1	0.412841796875	0.57763671875	upper	../fonts/zerothre.ttf
1057509	WORD	wordpools/wasnorm_wordpool_less_exclusions.txt	LTP251	ltpFR	7	4	1	VIOLIN	1571	n/a	0	n/a	0	0	0	1	0.412841796875	0.57763671875	upper	../fonts/zerothre.ttf
1061639	WORD	wordpools/wasnorm_wordpool_less_exclusions.txt	LTP251	ltpFR	7	4	1	LIEUTENANT	818	n/a	1	n/a	0	0	0	1	0.412841796875	0.57763671875	upper	../fonts/zerothre.ttf
1065804	WORD	wordpools/wasnorm_wordpool_less_exclusions.txt	LTP251	ltpFR	7	4	1	DEPARTMENT	449	n/a	0	n/a	0	0	0	1	0.412841796875	0.57763671875	upper	../fonts/zerothre.ttf
1069839	WORD	wordpools/wasnorm_wordpool_less_exclusions.txt	LTP251	ltpFR	7	4	1	MONARCH	906	n/a	1	n/a	0	0	0	1	0.412841796875	0.57763671875	upper	../fonts/zerothre.ttf
1074038	WORD	wordpools/wasnorm_wordpool_less_exclusions.txt	LTP251	ltpFR	7	4	1	SWIMMER	1420	n/a	1	n/a	0	0	0	1	0.412841796875	0.57763671875	upper	../fonts/zerothre.ttf
1078003	WORD	wordpools/wasnorm_wordpool_less_exclusions.txt	LTP251	ltpFR	7	4	1	PATIO	1025	n/a	0	n/a	0	0	0	1	0.412841796875	0.57763671875	upper	../fonts/zerothre.ttf
1081868	WORD	wordpools/wasnorm_wordpool_less_exclusions.txt	LTP251	ltpFR	7	4	1	HURRICANE	727	n/a	1	n/a	0	0	0	1	0.412841796875	0.57763671875	upper	../fonts/zerothre.ttf
1085933	WORD	wordpools/wasnorm_wordpool_less_exclusions.txt	LTP251	ltpFR	7	4	1	RECEIPT	1173	n/a	0	n/a	0	0	0	1	0.412841796875	0.57763671875	upper	../fonts/zerothre.ttf
1089915	WORD	wordpools/wasnorm_wordpool_less_exclusions.txt	LTP251	ltpFR	7	4	1	TUBE	1516	n/a	0	n/a	0	0	0	1	0.412841796875	0.57763671875	upper	../fonts/zerothre.ttf
1093980	WORD	wordpools/wasnorm_wordpool_less_exclusions.txt	LTP251	ltpFR	7	4	1	GROUND	666	n/a	0	n/a	0	0	0	1	0.412841796875	0.57763671875	upper	../fonts/zerothre.ttf
1098180	WORD	wordpools/wasnorm_wordpool_less_exclusions.txt	LTP251	ltpFR	7	4	1	PALACE	1006	n/a	0	n/a	0	0	0	1	0.412841796875	0.57763671875	upper	../fonts/zerothre.ttf
1102027	WORD	wordpools/wasnorm_wordpool_less_exclusions.txt	LTP251	ltpFR	7	4	1	COOKIE	374	n/a	0	n/a	0	0	0	1	0.412841796875	0.57763671875	upper	../fonts/zerothre.ttf
1106124	WORD	wordpools/wasnorm_wordpool_less_exclusions.txt	LTP251	ltpFR	7	4	1	BAKER	71	n/a	1	n/a	0	0	0	1	0.412841796875	0.57763671875	upper	../fonts/zerothre.ttf
1109139	START	n/a	LTP251	ltpFR	7	n/a	n/a	n/a	n/a	n/a	n/a	n/a	n/a	n/a	n/a	n/a	n/a	n/a	n/a	n/a
1110024	PROB	n/a	LTP251	ltpFR	7	n/a	n/a	n/a	n/a	n/a	n/a	13	5	1	7	n/a	n/a	n/a	n/a	n/a
1114591	PROB	n/a	LTP251	ltpFR	7	n/a	n/a	n/a	n/a	n/a	n/a	9	4	3	2	n/a	n/a	n/a	n/a	n/a
1116684	STOP	n/a	LTP251	ltpFR	7	n/a	n/a	n/a	n/a	n/a	n/a	n/a	n/a	n/a	n/a	n/a	n/a	n/a	n/a	n/a
1119026	REC_START	n/a	LTP251	ltpFR	7	4	n/a	n/a	n/a	n/a	n/a	n/a	0	0	0	n/a	n/a	n/a	n/a	n/a
1120692	REC_WORD	wordpools/wasnorm_wordpool_less_exclusions.txt	LTP251	ltpFR	7	4	1	PALACE	1006	n/a	0	n/a	0	0	0	n/a	n/a	n/a	n/a	n/a
1121839	REC_WORD	wordpools/wasnorm_wordpool_less_exclusions.txt	LTP251	ltpFR	7	4	1	FOUNTAIN	597	n/a	0	n/a	0	0	0	n/a	n/a	n/a	n/a	n/a
1123551	REC_WORD	wordpools/wasnorm_wordpool_less_exclusions.txt	LTP251	ltpFR	7	4	1	BAKER	71	n/a	1	n/a	0	0	0	n/a	n/a	n/a	n/a	n/a
1126015	REC_WORD	wordpools/wasnorm_wordpool_less_exclusions.txt	LTP251	ltpFR	7	4	1	LIEUTENANT	818	n/a	1	n/a	0	0	0	n/a	n/a	n/a	n/a	n/a
1127387	REC_WORD	wordpools/wasnorm_wordpool_less_exclusions.txt	LTP251	ltpFR	7	4	1	MONARCH	906	n/a	1	n/a	0	0	0	n/a	n/a	n/a	n/a	n/a
1128838	REC_WORD	wordpools/wasnorm_wordpool_less_exclusions.txt	LTP251	ltpFR	7	4	1	OFFICE	972	n/a	1	n/a	0	0	0	n/a	n/a	n/a	n/a	n/a
1130330	REC_WORD	wordpools/wasnorm_wordpool_less_exclusions.txt	LTP251	ltpFR	7	4	1	RECEPTIONIST	1174	n/a	1	n/a	0	0	0	n/a	n/a	n/a	n/a	n/a
1136855	REC_WORD	wordpools/wasnorm_wordpool_less_exclusions.txt	LTP251	ltpFR	7	4	1	VIOLIN	1571	n/a	0	n/a	0	0	0	n/a	n/a	n/a	n/a	n/a
1142433	REC_WORD	wordpools/wasnorm_wordpool_less_exclusions.txt	LTP251	ltpFR	7	4	n/a	ORCHESTRA	981	n/a	n/a	n/a	0	0	0	n/a	n/a	n/a	n/a	n/a
1156506	REC_WORD	wordpools/wasnorm_wordpool_less_exclusions.txt	LTP251	ltpFR	7	4	1	HURRICANE	727	n/a	1	n/a	0	0	0	n/a	n/a	n/a	n/a	n/a
1215539	START	n/a	LTP251	ltpFR	7	n/a	n/a	n/a	n/a	n/a	n/a	n/a	n/a	n/a	n/a	n/a	n/a	n/a	n/a	n/a
1217044	PROB	n/a	LTP251	ltpFR	7	n/a	n/a	n/a	n/a	n/a	n/a	18	8	4	5	n/a	n/a	n/a	n/a	n/a
1219617	PROB	n/a	LTP251	ltpFR	7	n/a	n/a	n/a	n/a	n/a	n/a	11	1	1	9	n/a	n/a	n/a	n/a	n/a
1221441	PROB	n/a	LTP251	ltpFR	7	n/a	n/a	n/a	n/a	n/a	n/a	11	1	5	5	n/a	n/a	n/a	n/a	n/a
1222908	STOP	n/a	LTP251	ltpFR	7	n/a	n/a	n/a	n/a	n/a	n/a	n/a	n/a	n/a	n/a	n/a	n/a	n/a	n/a	n/a
1224539	WORD	wordpools/wasnorm_wordpool_less_exclusions.txt	LTP251	ltpFR	7	5	1	FOE	587	n/a	3	n/a	0	0	0	1	0.412841796875	0.57763671875	upper	../fonts/zerothre.ttf
1225861	KEY_MSG	n/a	LTP251	ltpFR	7	5	n/a	n/a	n/a	n/a	n/a	n/a	0	0	0	n/a	n/a	n/a	n/a	n/a
1227551	START	n/a	LTP251	ltpFR	7	n/a	n/a	n/a	n/a	n/a	n/a	n/a	n/a	n/a	n/a	n/a	n/a	n/a	n/a	n/a
1228371	PROB	n/a	LTP251	ltpFR	7	n/a	n/a	n/a	n/a	n/a	n/a	15	4	8	3	n/a	n/a	n/a	n/a	n/a
1230428	PROB	n/a	LTP251	ltpFR	7	n/a	n/a	n/a	n/a	n/a	n/a	12	3	8	1	n/a	n/a	n/a	n/a	n/a
1233988	STOP	n/a	LTP251	ltpFR	7	n/a	n/a	n/a	n/a	n/a	n/a	n/a	n/a	n/a	n/a	n/a	n/a	n/a	n/a	n/a
1236501	WORD	wordpools/wasnorm_wordpool_less_exclusions.txt	LTP251	ltpFR	7	5	1	PRINTER	1126	n/a	0	n/a	0	0	0	1	0.412841796875	0.57763671875	upper	../fonts/zerothre.ttf
1239513	START	n/a	LTP251	ltpFR	7	n/a	n/a	n/a	n/a	n/a	n/a	n/a	n/a	n/a	n/a	n/a	n/a	n/a	n/a	n/a
1240513	PROB	n/a	LTP251	ltpFR	7	n/a	n/a	n/a	n/a	n/a	n/a	6	2	2	2	n/a	n/a	n/a	n/a	n/a
1241988	PROB	n/a	LTP251	ltpFR	7	n/a	n/a	n/a	n/a	n/a	n/a	17	4	5	8	n/a	n/a	n/a	n/a	n/a
1247513	STOP	n/a	LTP251	ltpFR	7	n/a	n/a	n/a	n/a	n/a	n/a	n/a	n/a	n/a	n/a	n/a	n/a	n/a	n/a	n/a
1248560	WORD	wordpools/wasnorm_wordpool_less_exclusions.txt	LTP251	ltpFR	7	5	1	TYPEWRITER	1531	n/a	0	n/a	0	0	0	1	0.412841796875	0.57763671875	upper	../fonts/zerothre.ttf
1251575	START	n/a	LTP251	ltpFR	7	n/a	n/a	n/a	n/a	n/a	n/a	n/a	n/a	n/a	n/a	n/a	n/a	n/a	n/a	n/a
1252478	PROB	n/a	LTP251	ltpFR	7	n/a	n/a	n/a	n/a	n/a	n/a	16	5	3	8	n/a	n/a	n/a	n/a	n/a
1254468	PROB	n/a	LTP251	ltpFR	7	n/a	n/a	n/a	n/a	n/a	n/a	22	8	7	7	n/a	n/a	n/a	n/a	n/a
1259556	STOP	n/a	LTP251	ltpFR	7	n/a	n/a	n/a	n/a	n/a	n/a	n/a	n/a	n/a	n/a	n/a	n/a	n/a	n/a	n/a
1260639	WORD	wordpools/wasnorm_wordpool_less_exclusions.txt	LTP251	ltpFR	7	5	1	CALF	222	n/a	1	n/a	0	0	0	1	0.412841796875	0.57763671875	upper	../fonts/zerothre.ttf
1263654	START	n/a	LTP251	ltpFR	7	n/a	n/a	n/a	n/a	n/a	n/a	n/a	n/a	n/a	n/a	n/a	n/a	n/a	n/a	n/a
1264490	PROB	n/a	LTP251	ltpFR	7	n/a	n/a	n/a	n/a	n/a	n/a	13	7	2	4	n/a	n/a	n/a	n/a	n/a
1266527	PROB	n/a	LTP251	ltpFR	7	n/a	n/a	n/a	n/a	n/a	n/a	15	5	8	2	n/a	n/a	n/a	n/a	n/a
1271652	STOP	n/a	LTP251	ltpFR	7	n/a	n/a	n/a	n/a	n/a	n/a	n/a	n/a	n/a	n/a	n/a	n/a	n/a	n/a	n/a
1272854	WORD	wordpools/wasnorm_wordpool_less_exclusions.txt	LTP251	ltpFR	7	5	1	STRANGER	1389	n/a	1	n/a	0	0	0	1	0.412841796875	0.57763671875	upper	../fonts/zerothre.ttf
1275866	START	n/a	LTP251	ltpFR	7	n/a	n/a	n/a	n/a	n/a	n/a	n/a	n/a	n/a	n/a	n/a	n/a	n/a	n/a	n/a
1277054	PROB	n/a	LTP251	ltpFR	7	n/a	n/a	n/a	n/a	n/a	n/a	15	1	7	7	n/a	n/a	n/a	n/a	n/a
1279143	PROB	n/a	LTP251	ltpFR	7	n/a	n/a	n/a	n/a	n/a	n/a	17	4	8	5	n/a	n/a	n/a	n/a	n/a
1281417	PROB	n/a	LTP251	ltpFR	7	n/a	n/a	n/a	n/a	n/a	n/a	18	8	9	4	n/a	n/a	n/a	n/a	n/a
1283205	STOP	n/a	LTP251	ltpFR	7	n/a	n/a	n/a	n/a	n/a	n/a	n/a	n/a	n/a	n/a	n/a	n/a	n/a	n/a	n/a
1284846	WORD	wordpools/wasnorm_wordpool_less_exclusions.txt	LTP251	ltpFR	7	5	1	BISON	131	n/a	1	n/a	0	0	0	1	0.412841796875	0.57763671875	upper	../fonts/zerothre.ttf
1287862	START	n/a	LTP251	ltpFR	7	n/a	n/a	n/a	n/a	n/a	n/a	n/a	n/a	n/a	n/a	n/a	n/a	n/a	n/a	n/a
1288982	PROB	n/a	LTP251	ltpFR	7	n/a	n/a	n/a	n/a	n/a	n/a	12	5	6	1	n/a	n/a	n/a	n/a	n/a
1290805	PROB	n/a	LTP251	ltpFR	7	n/a	n/a	n/a	n/a	n/a	n/a	16	2	9	5	n/a	n/a	n/a	n/a	n/a
1292609	PROB	n/a	LTP251	ltpFR	7	n/a	n/a	n/a	n/a	n/a	n/a	18	3	8	7	n/a	n/a	n/a	n/a	n/a
1294748	STOP	n/a	LTP251	ltpFR	7	n/a	n/a	n/a	n/a	n/a	n/a	n/a	n/a	n/a	n/a	n/a	n/a	n/a	n/a	n/a
1297059	WORD	wordpools/wasnorm_wordpool_less_exclusions.txt	LTP251	ltpFR	7	5	1	ARENA	37	n/a	0	n/a	0	0	0	1	0.412841796875	0.57763671875	upper	../fonts/zerothre.ttf
1300074	START	n/a	LTP251	ltpFR	7	n/a	n/a	n/a	n/a	n/a	n/a	n/a	n/a	n/a	n/a	n/a	n/a	n/a	n/a	n/a
1300994	PROB	n/a	LTP251	ltpFR	7	n/a	n/a	n/a	n/a	n/a	n/a	23	8	8	7	n/a	n/a	n/a	n/a	n/a
1305261	PROB	n/a	LTP251	ltpFR	7	n/a	n/a	n/a	n/a	n/a	n/a	12	4	7	1	n/a	n/a	n/a	n/a	n/a
1307052	STOP	n/a	LTP251	ltpFR	7	n/a	n/a	n/a	n/a	n/a	n/a	n/a	n/a	n/a	n/a	n/a	n/a	n/a	n/a	n/a
1309091	WORD	wordpools/wasnorm_wordpool_less_exclusions.txt	LTP251	ltpFR	7	5	1	LIVER	833	n/a	1	n/a	0	0	0	1	0.412841796875	0.57763671875	upper	../fonts/zerothre.ttf
1312103	START	n/a	LTP251	ltpFR	7	n/a	n/a	n/a	n/a	n/a	n/a	n/a	n/a	n/a	n/a	n/a	n/a	n/a	n/a	n/a
1313056	PROB	n/a	LTP251	ltpFR	7	n/a	n/a	n/a	n/a	n/a	n/a	15	8	2	5	n/a	n/a	n/a	n/a	n/a
1315128	PROB	n/a	LTP251	ltpFR	7	n/a	n/a	n/a	n/a	n/a	n/a	16	5	6	5	n/a	n/a	n/a	n/a	n/a
1317071	PROB	n/a	LTP251	ltpFR	7	n/a	n/a	n/a	n/a	n/a	n/a	9	1	1	7	n/a	n/a	n/a	n/a	n/a
1320102	STOP	n/a	LTP251	ltpFR	7	n/a	n/a	n/a	n/a	n/a	n/a	n/a	n/a	n/a	n/a	n/a	n/a	n/a	n/a	n/a
1320952	WORD	wordpools/wasnorm_wordpool_less_exclusions.txt	LTP251	ltpFR	7	5	1	RECIPE	1175	n/a	0	n/a	0	0	0	1	0.412841796875	0.57763671875	upper	../fonts/zerothre.ttf
1323964	START	n/a	LTP251	ltpFR	7	n/a	n/a	n/a	n/a	n/a	n/a	n/a	n/a	n/a	n/a	n/a	n/a	n/a	n/a	n/a
1325068	PROB	n/a	LTP251	ltpFR	7	n/a	n/a	n/a	n/a	n/a	n/a	8	2	5	1	n/a	n/a	n/a	n/a	n/a
1327039	PROB	n/a	LTP251	ltpFR	7	n/a	n/a	n/a	n/a	n/a	n/a	5	6	1	3	n/a	n/a	n/a	n/a	n/a
1328595	PROB	n/a	LTP251	ltpFR	7	n/a	n/a	n/a	n/a	n/a	n/a	13	8	2	3	n/a	n/a	n/a	n/a	n/a
1330524	STOP	n/a	LTP251	ltpFR	7	n/a	n/a	n/a	n/a	n/a	n/a	n/a	n/a	n/a	n/a	n/a	n/a	n/a	n/a	n/a
1332947	WORD	wordpools/wasnorm_wordpool_less_exclusions.txt	LTP251	ltpFR	7	5	1	DINER	467	n/a	0	n/a	0	0	0	1	0.412841796875	0.57763671875	upper	../fonts/zerothre.ttf
1335959	START	n/a	LTP251	ltpFR	7	n/a	n/a	n/a	n/a	n/a	n/a	n/a	n/a	n/a	n/a	n/a	n/a	n/a	n/a	n/a
1336896	PROB	n/a	LTP251	ltpFR	7	n/a	n/a	n/a	n/a	n/a	n/a	17	7	8	2	n/a	n/a	n/a	n/a	n/a
1338716	PROB	n/a	LTP251	ltpFR	7	n/a	n/a	n/a	n/a	n/a	n/a	13	5	2	3	n/a	n/a	n/a	n/a	n/a
1341075	PROB	n/a	LTP251	ltpFR	7	n/a	n/a	n/a	n/a	n/a	n/a	10	3	3	4	n/a	n/a	n/a	n/a	n/a
1343357	STOP	n/a	LTP251	ltpFR	7	n/a	n/a	n/a	n/a	n/a	n/a	n/a	n/a	n/a	n/a	n/a	n/a	n/a	n/a	n/a
1345026	WORD	wordpools/wasnorm_wordpool_less_exclusions.txt	LTP251	ltpFR	7	5	1	LAMP	798	n/a	0	n/a	0	0	0	1	0.412841796875	0.57763671875	upper	../fonts/zerothre.ttf
1348038	START	n/a	LTP251	ltpFR	7	n/a	n/a	n/a	n/a	n/a	n/a	n/a	n/a	n/a	n/a	n/a	n/a	n/a	n/a	n/a
1349075	PROB	n/a	LTP251	ltpFR	7	n/a	n/a	n/a	n/a	n/a	n/a	15	5	2	8	n/a	n/a	n/a	n/a	n/a
1351467	PROB	n/a	LTP251	ltpFR	7	n/a	n/a	n/a	n/a	n/a	n/a	18	6	4	8	n/a	n/a	n/a	n/a	n/a
1352822	PROB	n/a	LTP251	ltpFR	7	n/a	n/a	n/a	n/a	n/a	n/a	14	9	3	2	n/a	n/a	n/a	n/a	n/a
1354468	STOP	n/a	LTP251	ltpFR	7	n/a	n/a	n/a	n/a	n/a	n/a	n/a	n/a	n/a	n/a	n/a	n/a	n/a	n/a	n/a
1357005	WORD	wordpools/wasnorm_wordpool_less_exclusions.txt	LTP251	ltpFR	7	5	1	HEAD	695	n/a	0	n/a	0	0	0	1	0.412841796875	0.57763671875	upper	../fonts/zerothre.ttf
1360017	START	n/a	LTP251	ltpFR	7	n/a	n/a	n/a	n/a	n/a	n/a	n/a	n/a	n/a	n/a	n/a	n/a	n/a	n/a	n/a
1360970	PROB	n/a	LTP251	ltpFR	7	n/a	n/a	n/a	n/a	n/a	n/a	20	4	9	7	n/a	n/a	n/a	n/a	n/a
1368017	STOP	n/a	LTP251	ltpFR	7	n/a	n/a	n/a	n/a	n/a	n/a	n/a	n/a	n/a	n/a	n/a	n/a	n/a	n/a	n/a
1369067	WORD	wordpools/wasnorm_wordpool_less_exclusions.txt	LTP251	ltpFR	7	5	1	DRYER	503	n/a	0	n/a	0	0	0	1	0.412841796875	0.57763671875	upper	../fonts/zerothre.ttf
1372079	START	n/a	LTP251	ltpFR	7	n/a	n/a	n/a	n/a	n/a	n/a	n/a	n/a	n/a	n/a	n/a	n/a	n/a	n/a	n/a
1373234	PROB	n/a	LTP251	ltpFR	7	n/a	n/a	n/a	n/a	n/a	n/a	16	9	5	2	n/a	n/a	n/a	n/a	n/a
1375722	PROB	n/a	LTP251	ltpFR	7	n/a	n/a	n/a	n/a	n/a	n/a	12	3	4	4	n/a	n/a	n/a	n/a	n/a
1377346	PROB	n/a	LTP251	ltpFR	7	n/a	n/a	n/a	n/a	n/a	n/a	8	1	5	2	n/a	n/a	n/a	n/a	n/a
1379516	STOP	n/a	LTP251	ltpFR	7	n/a	n/a	n/a	n/a	n/a	n/a	n/a	n/a	n/a	n/a	n/a	n/a	n/a	n/a	n/a
1381180	WORD	wordpools/wasnorm_wordpool_less_exclusions.txt	LTP251	ltpFR	7	5	1	NEWSSTAND	949	n/a	0	n/a	0	0	0	1	0.412841796875	0.57763671875	upper	../fonts/zerothre.ttf
1384192	START	n/a	LTP251	ltpFR	7	n/a	n/a	n/a	n/a	n/a	n/a	n/a	n/a	n/a	n/a	n/a	n/a	n/a	n/a	n/a
1385077	PROB	n/a	LTP251	ltpFR	7	n/a	n/a	n/a	n/a	n/a	n/a	17	8	4	5	n/a	n/a	n/a	n/a	n/a
1387384	PROB	n/a	LTP251	ltpFR	7	n/a	n/a	n/a	n/a	n/a	n/a	14	7	2	5	n/a	n/a	n/a	n/a	n/a
1392192	STOP	n/a	LTP251	ltpFR	7	n/a	n/a	n/a	n/a	n/a	n/a	n/a	n/a	n/a	n/a	n/a	n/a	n/a	n/a	n/a
1393192	WORD	wordpools/wasnorm_wordpool_less_exclusions.txt	LTP251	ltpFR	7	5	1	TURTLE	1522	n/a	1	n/a	0	0	0	1	0.412841796875	0.57763671875	upper	../fonts/zerothre.ttf
1396204	START	n/a	LTP251	ltpFR	7	n/a	n/a	n/a	n/a	n/a	n/a	n/a	n/a	n/a	n/a	n/a	n/a	n/a	n/a	n/a
1397375	PROB	n/a	LTP251	ltpFR	7	n/a	n/a	n/a	n/a	n/a	n/a	23	8	9	6	n/a	n/a	n/a	n/a	n/a
1403932	STOP	n/a	LTP251	ltpFR	7	n/a	n/a	n/a	n/a	n/a	n/a	n/a	n/a	n/a	n/a	n/a	n/a	n/a	n/a	n/a
1405053	WORD	wordpools/wasnorm_wordpool_less_exclusions.txt	LTP251	ltpFR	7	5	1	SHELL	1281	n/a	0	n/a	0	0	0	1	0.412841796875	0.57763671875	upper	../fonts/zerothre.ttf
1408064	START	n/a	LTP251	ltpFR	7	n/a	n/a	n/a	n/a	n/a	n/a	n/a	n/a	n/a	n/a	n/a	n/a	n/a	n/a	n/a
1409169	PROB	n/a	LTP251	ltpFR	7	n/a	n/a	n/a	n/a	n/a	n/a	14	6	1	7	n/a	n/a	n/a	n/a	n/a
1411257	PROB	n/a	LTP251	ltpFR	7	n/a	n/a	n/a	n/a	n/a	n/a	11	3	5	3	n/a	n/a	n/a	n/a	n/a
1413632	PROB	n/a	LTP251	ltpFR	7	n/a	n/a	n/a	n/a	n/a	n/a	16	3	5	8	n/a	n/a	n/a	n/a	n/a
1415572	STOP	n/a	LTP251	ltpFR	7	n/a	n/a	n/a	n/a	n/a	n/a	n/a	n/a	n/a	n/a	n/a	n/a	n/a	n/a	n/a
1417952	REC_START	n/a	LTP251	ltpFR	7	5	n/a	n/a	n/a	n/a	n/a	n/a	0	0	0	n/a	n/a	n/a	n/a	n/a
1419129	REC_WORD	wordpools/wasnorm_wordpool_less_exclusions.txt	LTP251	ltpFR	7	5	1	SHELL	1281	n/a	0	n/a	0	0	0	n/a	n/a	n/a	n/a	n/a
1420326	REC_WORD	wordpools/wasnorm_wordpool_less_exclusions.txt	LTP251	ltpFR	7	5	1	TURTLE	1522	n/a	1	n/a	0	0	0	n/a	n/a	n/a	n/a	n/a
1421504	REC_WORD	wordpools/wasnorm_wordpool_less_exclusions.txt	LTP251	ltpFR	7	5	1	ARENA	37	n/a	0	n/a	0	0	0	n/a	n/a	n/a	n/a	n/a
1430833	REC_WORD	wordpools/wasnorm_wordpool_less_exclusions.txt	LTP251	ltpFR	7	5	1	CALF	222	n/a	1	n/a	0	0	0	n/a	n/a	n/a	n/a	n/a
1432928	REC_WORD	wordpools/wasnorm_wordpool_less_exclusions.txt	LTP251	ltpFR	7	5	1	HEAD	695	n/a	0	n/a	0	0	0	n/a	n/a	n/a	n/a	n/a
1497668	WORD	wordpools/wasnorm_wordpool_less_exclusions.txt	LTP251	ltpFR	7	6	1	BAIT	70	n/a	0	n/a	0	0	0	1	0.412841796875	0.57763671875	upper	../fonts/zerothre.ttf
1501734	WORD	wordpools/wasnorm_wordpool_less_exclusions.txt	LTP251	ltpFR	7	6	1	WHALE	1601	n/a	1	n/a	0	0	0	1	0.412841796875	0.57763671875	upper	../fonts/zerothre.ttf
1505732	WORD	wordpools/wasnorm_wordpool_less_exclusions.txt	LTP251	ltpFR	7	6	1	RIVER	1194	n/a	0	n/a	0	0	0	1	0.412841796875	0.57763671875	upper	../fonts/zerothre.ttf
1509664	WORD	wordpools/wasnorm_wordpool_less_exclusions.txt	LTP251	ltpFR	7	6	1	DOLLAR	482	n/a	0	n/a	0	0	0	1	0.412841796875	0.57763671875	upper	../fonts/zerothre.ttf
1513813	WORD	wordpools/wasnorm_wordpool_less_exclusions.txt	LTP251	ltpFR	7	6	1	TREASURE	1500	n/a	0	n/a	0	0	0	1	0.412841796875	0.57763671875	upper	../fonts/zerothre.ttf
1518009	WORD	wordpools/wasnorm_wordpool_less_exclusions.txt	LTP251	ltpFR	7	6	1	DRINK	498	n/a	0	n/a	0	0	0	1	0.412841796875	0.57763671875	upper	../fonts/zerothre.ttf
1521856	WORD	wordpools/wasnorm_wordpool_less_exclusions.txt	LTP251	ltpFR	7	6	1	EMPLOYEE	531	n/a	1	n/a	0	0	0	1	0.412841796875	0.57763671875	upper	../fonts/zerothre.ttf
1526059	WORD	wordpools/wasnorm_wordpool_less_exclusions.txt	LTP251	ltpFR	7	6	1	DUNGEON	507	n/a	0	n/a	0	0	0	1	0.412841796875	0.57763671875	upper	../fonts/zerothre.ttf
1530091	WORD	wordpools/wasnorm_wordpool_less_exclusions.txt	LTP251	ltpFR	7	6	1	LAKE	796	n/a	0	n/a	0	0	0	1	0.412841796875	0.57763671875	upper	../fonts/zerothre.ttf
1534036	WORD	wordpools/wasnorm_wordpool_less_exclusions.txt	LTP251	ltpFR	7	6	1	WORKER	1621	n/a	1	n/a	0	0	0	1	0.412841796875	0.57763671875	upper	../fonts/zerothre.ttf
1538037	WORD	wordpools/wasnorm_wordpool_less_exclusions.txt	LTP251	ltpFR	7	6	1	SUSPECT	1415	n/a	1	n/a	0	0	0	1	0.412841796875	0.57763671875	upper	../fonts/zerothre.ttf
1542069	WORD	wordpools/wasnorm_wordpool_less_exclusions.txt	LTP251	ltpFR	7	6	1	CLASS	318	n/a	0	n/a	0	0	0	1	0.412841796875	0.57763671875	upper	../fonts/zerothre.ttf
1546152	WORD	wordpools/wasnorm_wordpool_less_exclusions.txt	LTP251	ltpFR	7	6	1	COOKBOOK	373	n/a	0	n/a	0	0	0	1	0.412841796875	0.57763671875	upper	../fonts/zerothre.ttf
1550301	WORD	wordpools/wasnorm_wordpool_less_exclusions.txt	LTP251	ltpFR	7	6	1	GARDEN	623	n/a	1	n/a	0	0	0	1	0.412841796875	0.57763671875	upper	../fonts/zerothre.ttf
1554350	WORD	wordpools/wasnorm_wordpool_less_exclusions.txt	LTP251	ltpFR	7	6	1	BATH	98	n/a	0	n/a	0	0	0	1	0.412841796875	0.57763671875	upper	../fonts/zerothre.ttf
1558498	WORD	wordpools/wasnorm_wordpool_less_exclusions.txt	LTP251	ltpFR	7	6	1	SPRINKLE	1359	n/a	0	n/a	0	0	0	1	0.412841796875	0.57763671875	upper	../fonts/zerothre.ttf
1561509	START	n/a	LTP251	ltpFR	7	n/a	n/a	n/a	n/a	n/a	n/a	n/a	n/a	n/a	n/a	n/a	n/a	n/a	n/a	n/a
1562412	PROB	n/a	LTP251	ltpFR	7	n/a	n/a	n/a	n/a	n/a	n/a	12	6	5	1	n/a	n/a	n/a	n/a	n/a
1564885	PROB	n/a	LTP251	ltpFR	7	n/a	n/a	n/a	n/a	n/a	n/a	15	6	1	8	n/a	n/a	n/a	n/a	n/a
1566863	PROB	n/a	LTP251	ltpFR	7	n/a	n/a	n/a	n/a	n/a	n/a	26	9	9	8	n/a	n/a	n/a	n/a	n/a
1570657	PROB	n/a	LTP251	ltpFR	7	n/a	n/a	n/a	n/a	n/a	n/a	18	6	8	4	n/a	n/a	n/a	n/a	n/a
1572351	PROB	n/a	LTP251	ltpFR	7	n/a	n/a	n/a	n/a	n/a	n/a	13	5	2	6	n/a	n/a	n/a	n/a	n/a
1577509	STOP	n/a	LTP251	ltpFR	7	n/a	n/a	n/a	n/a	n/a	n/a	n/a	n/a	n/a	n/a	n/a	n/a	n/a	n/a	n/a
1579427	REC_START	n/a	LTP251	ltpFR	7	6	n/a	n/a	n/a	n/a	n/a	n/a	0	0	0	n/a	n/a	n/a	n/a	n/a
1580005	REC_WORD	wordpools/wasnorm_wordpool_less_exclusions.txt	LTP251	ltpFR	7	6	1	SPRINKLE	1359	n/a	0	n/a	0	0	0	n/a	n/a	n/a	n/a	n/a
1582086	REC_WORD	wordpools/wasnorm_wordpool_less_exclusions.txt	LTP251	ltpFR	7	6	1	BAIT	70	n/a	0	n/a	0	0	0	n/a	n/a	n/a	n/a	n/a
1583498	REC_WORD	wordpools/wasnorm_wordpool_less_exclusions.txt	LTP251	ltpFR	7	6	1	TREASURE	1500	n/a	0	n/a	0	0	0	n/a	n/a	n/a	n/a	n/a
1585398	REC_WORD	wordpools/wasnorm_wordpool_less_exclusions.txt	LTP251	ltpFR	7	6	1	WHALE	1601	n/a	1	n/a	0	0	0	n/a	n/a	n/a	n/a	n/a
1587094	REC_WORD	wordpools/wasnorm_wordpool_less_exclusions.txt	LTP251	ltpFR	7	6	1	EMPLOYEE	531	n/a	1	n/a	0	0	0	n/a	n/a	n/a	n/a	n/a
1588945	REC_WORD	wordpools/wasnorm_wordpool_less_exclusions.txt	LTP251	ltpFR	7	6	1	WORKER	1621	n/a	1	n/a	0	0	0	n/a	n/a	n/a	n/a	n/a
1590676	REC_WORD	wordpools/wasnorm_wordpool_less_exclusions.txt	LTP251	ltpFR	7	6	1	SUSPECT	1415	n/a	1	n/a	0	0	0	n/a	n/a	n/a	n/a	n/a
1592477	REC_WORD	wordpools/wasnorm_wordpool_less_exclusions.txt	LTP251	ltpFR	7	6	1	GARDEN	623	n/a	1	n/a	0	0	0	n/a	n/a	n/a	n/a	n/a
1599756	REC_WORD	wordpools/wasnorm_wordpool_less_exclusions.txt	LTP251	ltpFR	7	6	1	DRINK	498	n/a	0	n/a	0	0	0	n/a	n/a	n/a	n/a	n/a
1656184	START	n/a	LTP251	ltpFR	7	n/a	n/a	n/a	n/a	n/a	n/a	n/a	n/a	n/a	n/a	n/a	n/a	n/a	n/a	n/a
1657688	PROB	n/a	LTP251	ltpFR	7	n/a	n/a	n/a	n/a	n/a	n/a	8	2	5	1	n/a	n/a	n/a	n/a	n/a
1659776	PROB	n/a	LTP251	ltpFR	7	n/a	n/a	n/a	n/a	n/a	n/a	14	3	7	4	n/a	n/a	n/a	n/a	n/a
1661750	PROB	n/a	LTP251	ltpFR	7	n/a	n/a	n/a	n/a	n/a	n/a	22	8	6	8	n/a	n/a	n/a	n/a	n/a
1665013	PROB	n/a	LTP251	ltpFR	7	n/a	n/a	n/a	n/a	n/a	n/a	21	6	9	6	n/a	n/a	n/a	n/a	n/a
1667589	PROB	n/a	LTP251	ltpFR	7	n/a	n/a	n/a	n/a	n/a	n/a	15	1	6	8	n/a	n/a	n/a	n/a	n/a
1670652	STOP	n/a	LTP251	ltpFR	7	n/a	n/a	n/a	n/a	n/a	n/a	n/a	n/a	n/a	n/a	n/a	n/a	n/a	n/a	n/a
1673398	WORD	wordpools/wasnorm_wordpool_less_exclusions.txt	LTP251	ltpFR	7	7	0	PORTRAIT	1111	n/a	0	n/a	0	0	0	0	0.5869140625	0.422607421875	lower	../fonts/amplitud.ttf
1676410	START	n/a	LTP251	ltpFR	7	n/a	n/a	n/a	n/a	n/a	n/a	n/a	n/a	n/a	n/a	n/a	n/a	n/a	n/a	n/a
1677596	PROB	n/a	LTP251	ltpFR	7	n/a	n/a	n/a	n/a	n/a	n/a	10	2	2	6	n/a	n/a	n/a	n/a	n/a
1680002	PROB	n/a	LTP251	ltpFR	7	n/a	n/a	n/a	n/a	n/a	n/a	15	5	1	9	n/a	n/a	n/a	n/a	n/a
1682128	PROB	n/a	LTP251	ltpFR	7	n/a	n/a	n/a	n/a	n/a	n/a	23	7	8	8	n/a	n/a	n/a	n/a	n/a
1686527	PROB	n/a	LTP251	ltpFR	7	n/a	n/a	n/a	n/a	n/a	n/a	21	4	8	9	n/a	n/a	n/a	n/a	n/a
1692410	STOP	n/a	LTP251	ltpFR	7	n/a	n/a	n/a	n/a	n/a	n/a	n/a	n/a	n/a	n/a	n/a	n/a	n/a	n/a	n/a
1693473	WORD	wordpools/wasnorm_wordpool_less_exclusions.txt	LTP251	ltpFR	7	7	0	HUMAN	726	n/a	1	n/a	0	0	0	0	0.5869140625	0.422607421875	lower	../fonts/amplitud.ttf
1696485	START	n/a	LTP251	ltpFR	7	n/a	n/a	n/a	n/a	n/a	n/a	n/a	n/a	n/a	n/a	n/a	n/a	n/a	n/a	n/a
1697639	PROB	n/a	LTP251	ltpFR	7	n/a	n/a	n/a	n/a	n/a	n/a	15	1	8	6	n/a	n/a	n/a	n/a	n/a
1699442	PROB	n/a	LTP251	ltpFR	7	n/a	n/a	n/a	n/a	n/a	n/a	10	5	3	2	n/a	n/a	n/a	n/a	n/a
1701567	PROB	n/a	LTP251	ltpFR	7	n/a	n/a	n/a	n/a	n/a	n/a	13	8	4	1	n/a	n/a	n/a	n/a	n/a
1703141	PROB	n/a	LTP251	ltpFR	7	n/a	n/a	n/a	n/a	n/a	n/a	17	7	8	2	n/a	n/a	n/a	n/a	n/a
1705030	PROB	n/a	LTP251	ltpFR	7	n/a	n/a	n/a	n/a	n/a	n/a	15	4	6	5	n/a	n/a	n/a	n/a	n/a
1707506	PROB	n/a	LTP251	ltpFR	7	n/a	n/a	n/a	n/a	n/a	n/a	13	3	8	2	n/a	n/a	n/a	n/a	n/a
1710102	PROB	n/a	LTP251	ltpFR	7	n/a	n/a	n/a	n/a	n/a	n/a	9	2	2	5	n/a	n/a	n/a	n/a	n/a
1711812	STOP	n/a	LTP251	ltpFR	7	n/a	n/a	n/a	n/a	n/a	n/a	n/a	n/a	n/a	n/a	n/a	n/a	n/a	n/a	n/a
1713462	WORD	wordpools/wasnorm_wordpool_less_exclusions.txt	LTP251	ltpFR	7	7	0	PATRIOT	1026	n/a	1	n/a	0	0	0	0	0.5869140625	0.422607421875	lower	../fonts/amplitud.ttf
1716477	START	n/a	LTP251	ltpFR	7	n/a	n/a	n/a	n/a	n/a	n/a	n/a	n/a	n/a	n/a	n/a	n/a	n/a	n/a	n/a
1717447	PROB	n/a	LTP251	ltpFR	7	n/a	n/a	n/a	n/a	n/a	n/a	10	4	3	3	n/a	n/a	n/a	n/a	n/a
1719069	PROB	n/a	LTP251	ltpFR	7	n/a	n/a	n/a	n/a	n/a	n/a	11	1	5	5	n/a	n/a	n/a	n/a	n/a
1720789	PROB	n/a	LTP251	ltpFR	7	n/a	n/a	n/a	n/a	n/a	n/a	21	8	7	6	n/a	n/a	n/a	n/a	n/a
1722630	PROB	n/a	LTP251	ltpFR	7	n/a	n/a	n/a	n/a	n/a	n/a	10	2	4	2	n/a	n/a	n/a	n/a	n/a
1725925	PROB	n/a	LTP251	ltpFR	7	n/a	n/a	n/a	n/a	n/a	n/a	10	1	2	7	n/a	n/a	n/a	n/a	n/a
1727568	PROB	n/a	LTP251	ltpFR	7	n/a	n/a	n/a	n/a	n/a	n/a	9	4	2	3	n/a	n/a	n/a	n/a	n/a
1729539	PROB	n/a	LTP251	ltpFR	7	n/a	n/a	n/a	n/a	n/a	n/a	14	4	5	5	n/a	n/a	n/a	n/a	n/a
1730933	STOP	n/a	LTP251	ltpFR	7	n/a	n/a	n/a	n/a	n/a	n/a	n/a	n/a	n/a	n/a	n/a	n/a	n/a	n/a	n/a
1733408	WORD	wordpools/wasnorm_wordpool_less_exclusions.txt	LTP251	ltpFR	7	7	0	HELICOPTER	701	n/a	1	n/a	0	0	0	0	0.5869140625	0.422607421875	lower	../fonts/amplitud.ttf
1736419	START	n/a	LTP251	ltpFR	7	n/a	n/a	n/a	n/a	n/a	n/a	n/a	n/a	n/a	n/a	n/a	n/a	n/a	n/a	n/a
1737522	PROB	n/a	LTP251	ltpFR	7	n/a	n/a	n/a	n/a	n/a	n/a	18	4	6	8	n/a	n/a	n/a	n/a	n/a
1739814	PROB	n/a	LTP251	ltpFR	7	n/a	n/a	n/a	n/a	n/a	n/a	15	5	8	2	n/a	n/a	n/a	n/a	n/a
1743977	PROB	n/a	LTP251	ltpFR	7	n/a	n/a	n/a	n/a	n/a	n/a	17	8	3	6	n/a	n/a	n/a	n/a	n/a
1746553	PROB	n/a	LTP251	ltpFR	7	n/a	n/a	n/a	n/a	n/a	n/a	15	7	2	6	n/a	n/a	n/a	n/a	n/a
1748311	PROB	n/a	LTP251	ltpFR	7	n/a	n/a	n/a	n/a	n/a	n/a	14	2	7	5	n/a	n/a	n/a	n/a	n/a
1749949	PROB	n/a	LTP251	ltpFR	7	n/a	n/a	n/a	n/a	n/a	n/a	21	7	7	7	n/a	n/a	n/a	n/a	n/a
1751397	STOP	n/a	LTP251	ltpFR	7	n/a	n/a	n/a	n/a	n/a	n/a	n/a	n/a	n/a	n/a	n/a	n/a	n/a	n/a	n/a
1753600	WORD	wordpools/wasnorm_wordpool_less_exclusions.txt	LTP251	ltpFR	7	7	0	WRITER	1627	n/a	1	n/a	0	0	0	0	0.5869140625	0.422607421875	lower	../fonts/amplitud.ttf
1756612	START	n/a	LTP251	ltpFR	7	n/a	n/a	n/a	n/a	n/a	n/a	n/a	n/a	n/a	n/a	n/a	n/a	n/a	n/a	n/a
1757715	PROB	n/a	LTP251	ltpFR	7	n/a	n/a	n/a	n/a	n/a	n/a	16	8	1	7	n/a	n/a	n/a	n/a	n/a
1759857	PROB	n/a	LTP251	ltpFR	7	n/a	n/a	n/a	n/a	n/a	n/a	15	7	1	7	n/a	n/a	n/a	n/a	n/a
1761643	PROB	n/a	LTP251	ltpFR	7	n/a	n/a	n/a	n/a	n/a	n/a	10	3	6	1	n/a	n/a	n/a	n/a	n/a
1763287	PROB	n/a	LTP251	ltpFR	7	n/a	n/a	n/a	n/a	n/a	n/a	9	4	2	3	n/a	n/a	n/a	n/a	n/a
1764889	PROB	n/a	LTP251	ltpFR	7	n/a	n/a	n/a	n/a	n/a	n/a	22	6	7	9	n/a	n/a	n/a	n/a	n/a
1767833	PROB	n/a	LTP251	ltpFR	7	n/a	n/a	n/a	n/a	n/a	n/a	11	1	1	9	n/a	n/a	n/a	n/a	n/a
1769105	PROB	n/a	LTP251	ltpFR	7	n/a	n/a	n/a	n/a	n/a	n/a	147	9	2	6	n/a	n/a	n/a	n/a	n/a
1772612	STOP	n/a	LTP251	ltpFR	7	n/a	n/a	n/a	n/a	n/a	n/a	n/a	n/a	n/a	n/a	n/a	n/a	n/a	n/a	n/a
1773625	WORD	wordpools/wasnorm_wordpool_less_exclusions.txt	LTP251	ltpFR	7	7	0	SALT	1229	n/a	0	n/a	0	0	0	0	0.5869140625	0.422607421875	lower	../fonts/amplitud.ttf
1776637	START	n/a	LTP251	ltpFR	7	n/a	n/a	n/a	n/a	n/a	n/a	n/a	n/a	n/a	n/a	n/a	n/a	n/a	n/a	n/a
1777824	PROB	n/a	LTP251	ltpFR	7	n/a	n/a	n/a	n/a	n/a	n/a	19	5	8	6	n/a	n/a	n/a	n/a	n/a
1780046	PROB	n/a	LTP251	ltpFR	7	n/a	n/a	n/a	n/a	n/a	n/a	14	3	7	4	n/a	n/a	n/a	n/a	n/a
1781402	PROB	n/a	LTP251	ltpFR	7	n/a	n/a	n/a	n/a	n/a	n/a	16	9	1	5	n/a	n/a	n/a	n/a	n/a
1783111	PROB	n/a	LTP251	ltpFR	7	n/a	n/a	n/a	n/a	n/a	n/a	17	2	9	6	n/a	n/a	n/a	n/a	n/a
1786102	PROB	n/a	LTP251	ltpFR	7	n/a	n/a	n/a	n/a	n/a	n/a	12	1	7	4	n/a	n/a	n/a	n/a	n/a
1789115	PROB	n/a	LTP251	ltpFR	7	n/a	n/a	n/a	n/a	n/a	n/a	10	4	3	3	n/a	n/a	n/a	n/a	n/a
1791540	STOP	n/a	LTP251	ltpFR	7	n/a	n/a	n/a	n/a	n/a	n/a	n/a	n/a	n/a	n/a	n/a	n/a	n/a	n/a	n/a
1793751	WORD	wordpools/wasnorm_wordpool_less_exclusions.txt	LTP251	ltpFR	7	7	0	BEAST	108	n/a	1	n/a	0	0	0	0	0.5869140625	0.422607421875	lower	../fonts/amplitud.ttf
1796763	START	n/a	LTP251	ltpFR	7	n/a	n/a	n/a	n/a	n/a	n/a	n/a	n/a	n/a	n/a	n/a	n/a	n/a	n/a	n/a
1797816	PROB	n/a	LTP251	ltpFR	7	n/a	n/a	n/a	n/a	n/a	n/a	24	9	9	6	n/a	n/a	n/a	n/a	n/a
1801929	PROB	n/a	LTP251	ltpFR	7	n/a	n/a	n/a	n/a	n/a	n/a	6	2	2	2	n/a	n/a	n/a	n/a	n/a
1803251	PROB	n/a	LTP251	ltpFR	7	n/a	n/a	n/a	n/a	n/a	n/a	19	9	3	7	n/a	n/a	n/a	n/a	n/a
1805643	PROB	n/a	LTP251	ltpFR	7	n/a	n/a	n/a	n/a	n/a	n/a	22	4	9	9	n/a	n/a	n/a	n/a	n/a
1807533	PROB	n/a	LTP251	ltpFR	7	n/a	n/a	n/a	n/a	n/a	n/a	9	3	4	2	n/a	n/a	n/a	n/a	n/a
1809005	PROB	n/a	LTP251	ltpFR	7	n/a	n/a	n/a	n/a	n/a	n/a	15	1	6	8	n/a	n/a	n/a	n/a	n/a
1810728	PROB	n/a	LTP251	ltpFR	7	n/a	n/a	n/a	n/a	n/a	n/a	22	9	8	5	n/a	n/a	n/a	n/a	n/a
1812629	STOP	n/a	LTP251	ltpFR	7	n/a	n/a	n/a	n/a	n/a	n/a	n/a	n/a	n/a	n/a	n/a	n/a	n/a	n/a	n/a
1813606	WORD	wordpools/wasnorm_wordpool_less_exclusions.txt	LTP251	ltpFR	7	7	0	STEWARDESS	1381	n/a	1	n/a	0	0	0	0	0.5869140625	0.422607421875	lower	../fonts/amplitud.ttf
1816621	START	n/a	LTP251	ltpFR	7	n/a	n/a	n/a	n/a	n/a	n/a	n/a	n/a	n/a	n/a	n/a	n/a	n/a	n/a	n/a
1817775	PROB	n/a	LTP251	ltpFR	7	n/a	n/a	n/a	n/a	n/a	n/a	10	2	5	3	n/a	n/a	n/a	n/a	n/a
1820131	PROB	n/a	LTP251	ltpFR	7	n/a	n/a	n/a	n/a	n/a	n/a	15	4	8	3	n/a	n/a	n/a	n/a	n/a
1821770	PROB	n/a	LTP251	ltpFR	7	n/a	n/a	n/a	n/a	n/a	n/a	12	7	2	3	n/a	n/a	n/a	n/a	n/a
1823811	PROB	n/a	LTP251	ltpFR	7	n/a	n/a	n/a	n/a	n/a	n/a	8	5	2	1	n/a	n/a	n/a	n/a	n/a
1825819	PROB	n/a	LTP251	ltpFR	7	n/a	n/a	n/a	n/a	n/a	n/a	19	3	7	8	n/a	n/a	n/a	n/a	n/a
1828997	PROB	n/a	LTP251	ltpFR	7	n/a	n/a	n/a	n/a	n/a	n/a	13	7	2	4	n/a	n/a	n/a	n/a	n/a
1832620	STOP	n/a	LTP251	ltpFR	7	n/a	n/a	n/a	n/a	n/a	n/a	n/a	n/a	n/a	n/a	n/a	n/a	n/a	n/a	n/a
1833768	WORD	wordpools/wasnorm_wordpool_less_exclusions.txt	LTP251	ltpFR	7	7	0	FRAME	600	n/a	1	n/a	0	0	0	0	0.5869140625	0.422607421875	lower	../fonts/amplitud.ttf
1836780	START	n/a	LTP251	ltpFR	7	n/a	n/a	n/a	n/a	n/a	n/a	n/a	n/a	n/a	n/a	n/a	n/a	n/a	n/a	n/a
1837750	PROB	n/a	LTP251	ltpFR	7	n/a	n/a	n/a	n/a	n/a	n/a	12	3	2	7	n/a	n/a	n/a	n/a	n/a
1840039	PROB	n/a	LTP251	ltpFR	7	n/a	n/a	n/a	n/a	n/a	n/a	6	1	2	3	n/a	n/a	n/a	n/a	n/a
1841514	PROB	n/a	LTP251	ltpFR	7	n/a	n/a	n/a	n/a	n/a	n/a	16	7	5	4	n/a	n/a	n/a	n/a	n/a
1844155	PROB	n/a	LTP251	ltpFR	7	n/a	n/a	n/a	n/a	n/a	n/a	23	9	8	7	n/a	n/a	n/a	n/a	n/a
1848976	PROB	n/a	LTP251	ltpFR	7	n/a	n/a	n/a	n/a	n/a	n/a	7	3	3	1	n/a	n/a	n/a	n/a	n/a
1851420	STOP	n/a	LTP251	ltpFR	7	n/a	n/a	n/a	n/a	n/a	n/a	n/a	n/a	n/a	n/a	n/a	n/a	n/a	n/a	n/a
1853660	WORD	wordpools/wasnorm_wordpool_less_exclusions.txt	LTP251	ltpFR	7	7	0	AIRPORT	13	n/a	1	n/a	0	0	0	0	0.5869140625	0.422607421875	lower	../fonts/amplitud.ttf
1856672	START	n/a	LTP251	ltpFR	7	n/a	n/a	n/a	n/a	n/a	n/a	n/a	n/a	n/a	n/a	n/a	n/a	n/a	n/a	n/a
1857572	PROB	n/a	LTP251	ltpFR	7	n/a	n/a	n/a	n/a	n/a	n/a	9	4	1	4	n/a	n/a	n/a	n/a	n/a
1859313	PROB	n/a	LTP251	ltpFR	7	n/a	n/a	n/a	n/a	n/a	n/a	13	3	1	5	n/a	n/a	n/a	n/a	n/a
1862140	PROB	n/a	LTP251	ltpFR	7	n/a	n/a	n/a	n/a	n/a	n/a	5	3	1	4	n/a	n/a	n/a	n/a	n/a
1865285	PROB	n/a	LTP251	ltpFR	7	n/a	n/a	n/a	n/a	n/a	n/a	15	4	7	3	n/a	n/a	n/a	n/a	n/a
1867512	PROB	n/a	LTP251	ltpFR	7	n/a	n/a	n/a	n/a	n/a	n/a	9	1	6	1	n/a	n/a	n/a	n/a	n/a
1870307	PROB	n/a	LTP251	ltpFR	7	n/a	n/a	n/a	n/a	n/a	n/a	21	6	6	9	n/a	n/a	n/a	n/a	n/a
1872397	STOP	n/a	LTP251	ltpFR	7	n/a	n/a	n/a	n/a	n/a	n/a	n/a	n/a	n/a	n/a	n/a	n/a	n/a	n/a	n/a
1873652	WORD	wordpools/wasnorm_wordpool_less_exclusions.txt	LTP251	ltpFR	7	7	0	AIRCRAFT	11	n/a	0	n/a	0	0	0	0	0.5869140625	0.422607421875	lower	../fonts/amplitud.ttf
1876664	START	n/a	LTP251	ltpFR	7	n/a	n/a	n/a	n/a	n/a	n/a	n/a	n/a	n/a	n/a	n/a	n/a	n/a	n/a	n/a
1877634	PROB	n/a	LTP251	ltpFR	7	n/a	n/a	n/a	n/a	n/a	n/a	7	1	4	2	n/a	n/a	n/a	n/a	n/a
1880628	PROB	n/a	LTP251	ltpFR	7	n/a	n/a	n/a	n/a	n/a	n/a	12	4	4	3	n/a	n/a	n/a	n/a	n/a
1883034	PROB	n/a	LTP251	ltpFR	7	n/a	n/a	n/a	n/a	n/a	n/a	17	2	9	6	n/a	n/a	n/a	n/a	n/a
1884744	PROB	n/a	LTP251	ltpFR	7	n/a	n/a	n/a	n/a	n/a	n/a	17	7	9	1	n/a	n/a	n/a	n/a	n/a
1886497	PROB	n/a	LTP251	ltpFR	7	n/a	n/a	n/a	n/a	n/a	n/a	20	8	9	3	n/a	n/a	n/a	n/a	n/a
1888856	PROB	n/a	LTP251	ltpFR	7	n/a	n/a	n/a	n/a	n/a	n/a	17	6	6	5	n/a	n/a	n/a	n/a	n/a
1890730	PROB	n/a	LTP251	ltpFR	7	n/a	n/a	n/a	n/a	n/a	n/a	14	5	8	1	n/a	n/a	n/a	n/a	n/a
1892269	STOP	n/a	LTP251	ltpFR	7	n/a	n/a	n/a	n/a	n/a	n/a	n/a	n/a	n/a	n/a	n/a	n/a	n/a	n/a	n/a
1893741	WORD	wordpools/wasnorm_wordpool_less_exclusions.txt	LTP251	ltpFR	7	7	0	SHOVEL	1295	n/a	1	n/a	0	0	0	0	0.5869140625	0.422607421875	lower	../fonts/amplitud.ttf
1896756	START	n/a	LTP251	ltpFR	7	n/a	n/a	n/a	n/a	n/a	n/a	n/a	n/a	n/a	n/a	n/a	n/a	n/a	n/a	n/a
1897589	PROB	n/a	LTP251	ltpFR	7	n/a	n/a	n/a	n/a	n/a	n/a	21	7	9	5	n/a	n/a	n/a	n/a	n/a
1899563	PROB	n/a	LTP251	ltpFR	7	n/a	n/a	n/a	n/a	n/a	n/a	20	4	9	7	n/a	n/a	n/a	n/a	n/a
1901423	PROB	n/a	LTP251	ltpFR	7	n/a	n/a	n/a	n/a	n/a	n/a	11	6	1	4	n/a	n/a	n/a	n/a	n/a
1904299	PROB	n/a	LTP251	ltpFR	7	n/a	n/a	n/a	n/a	n/a	n/a	14	7	3	4	n/a	n/a	n/a	n/a	n/a
1906156	PROB	n/a	LTP251	ltpFR	7	n/a	n/a	n/a	n/a	n/a	n/a	12	4	3	5	n/a	n/a	n/a	n/a	n/a
1908314	PROB	n/a	LTP251	ltpFR	7	n/a	n/a	n/a	n/a	n/a	n/a	15	5	6	4	n/a	n/a	n/a	n/a	n/a
1909855	PROB	n/a	LTP251	ltpFR	7	n/a	n/a	n/a	n/a	n/a	n/a	19	9	5	5	n/a	n/a	n/a	n/a	n/a
1911908	STOP	n/a	LTP251	ltpFR	7	n/a	n/a	n/a	n/a	n/a	n/a	n/a	n/a	n/a	n/a	n/a	n/a	n/a	n/a	n/a
1913733	WORD	wordpools/wasnorm_wordpool_less_exclusions.txt	LTP251	ltpFR	7	7	0	MARSH	874	n/a	0	n/a	0	0	0	0	0.5869140625	0.422607421875	lower	../fonts/amplitud.ttf
1916748	START	n/a	LTP251	ltpFR	7	n/a	n/a	n/a	n/a	n/a	n/a	n/a	n/a	n/a	n/a	n/a	n/a	n/a	n/a	n/a
1917919	PROB	n/a	LTP251	ltpFR	7	n/a	n/a	n/a	n/a	n/a	n/a	18	6	8	5	n/a	n/a	n/a	n/a	n/a
1919656	PROB	n/a	LTP251	ltpFR	7	n/a	n/a	n/a	n/a	n/a	n/a	15	7	1	7	n/a	n/a	n/a	n/a	n/a
1921031	PROB	n/a	LTP251	ltpFR	7	n/a	n/a	n/a	n/a	n/a	n/a	14	5	5	4	n/a	n/a	n/a	n/a	n/a
1922370	PROB	n/a	LTP251	ltpFR	7	n/a	n/a	n/a	n/a	n/a	n/a	10	2	2	6	n/a	n/a	n/a	n/a	n/a
1924160	PROB	n/a	LTP251	ltpFR	7	n/a	n/a	n/a	n/a	n/a	n/a	14	3	8	3	n/a	n/a	n/a	n/a	n/a
1926448	PROB	n/a	LTP251	ltpFR	7	n/a	n/a	n/a	n/a	n/a	n/a	12	5	3	4	n/a	n/a	n/a	n/a	n/a
1928020	PROB	n/a	LTP251	ltpFR	7	n/a	n/a	n/a	n/a	n/a	n/a	13	5	1	7	n/a	n/a	n/a	n/a	n/a
1932747	STOP	n/a	LTP251	ltpFR	7	n/a	n/a	n/a	n/a	n/a	n/a	n/a	n/a	n/a	n/a	n/a	n/a	n/a	n/a	n/a
1933708	WORD	wordpools/wasnorm_wordpool_less_exclusions.txt	LTP251	ltpFR	7	7	0	JAR	750	n/a	1	n/a	0	0	0	0	0.5869140625	0.422607421875	lower	../fonts/amplitud.ttf
1936724	START	n/a	LTP251	ltpFR	7	n/a	n/a	n/a	n/a	n/a	n/a	n/a	n/a	n/a	n/a	n/a	n/a	n/a	n/a	n/a
1937724	PROB	n/a	LTP251	ltpFR	7	n/a	n/a	n/a	n/a	n/a	n/a	22	5	9	8	n/a	n/a	n/a	n/a	n/a
1942225	PROB	n/a	LTP251	ltpFR	7	n/a	n/a	n/a	n/a	n/a	n/a	20	9	4	7	n/a	n/a	n/a	n/a	n/a
1944449	PROB	n/a	LTP251	ltpFR	7	n/a	n/a	n/a	n/a	n/a	n/a	20	8	7	5	n/a	n/a	n/a	n/a	n/a
1946925	PROB	n/a	LTP251	ltpFR	7	n/a	n/a	n/a	n/a	n/a	n/a	8	4	3	1	n/a	n/a	n/a	n/a	n/a
1948752	PROB	n/a	LTP251	ltpFR	7	n/a	n/a	n/a	n/a	n/a	n/a	15	5	9	3	n/a	n/a	n/a	n/a	n/a
1952724	STOP	n/a	LTP251	ltpFR	7	n/a	n/a	n/a	n/a	n/a	n/a	n/a	n/a	n/a	n/a	n/a	n/a	n/a	n/a	n/a
1953754	WORD	wordpools/wasnorm_wordpool_less_exclusions.txt	LTP251	ltpFR	7	7	0	GLASS	639	n/a	0	n/a	0	0	0	0	0.5869140625	0.422607421875	lower	../fonts/amplitud.ttf
1956766	START	n/a	LTP251	ltpFR	7	n/a	n/a	n/a	n/a	n/a	n/a	n/a	n/a	n/a	n/a	n/a	n/a	n/a	n/a	n/a
1957602	PROB	n/a	LTP251	ltpFR	7	n/a	n/a	n/a	n/a	n/a	n/a	20	3	8	9	n/a	n/a	n/a	n/a	n/a
1959891	PROB	n/a	LTP251	ltpFR	7	n/a	n/a	n/a	n/a	n/a	n/a	14	6	4	4	n/a	n/a	n/a	n/a	n/a
1962015	PROB	n/a	LTP251	ltpFR	7	n/a	n/a	n/a	n/a	n/a	n/a	14	3	9	2	n/a	n/a	n/a	n/a	n/a
1965080	PROB	n/a	LTP251	ltpFR	7	n/a	n/a	n/a	n/a	n/a	n/a	12	2	2	8	n/a	n/a	n/a	n/a	n/a
1967336	PROB	n/a	LTP251	ltpFR	7	n/a	n/a	n/a	n/a	n/a	n/a	14	4	9	1	n/a	n/a	n/a	n/a	n/a
1968992	PROB	n/a	LTP251	ltpFR	7	n/a	n/a	n/a	n/a	n/a	n/a	15	2	9	4	n/a	n/a	n/a	n/a	n/a
1972765	STOP	n/a	LTP251	ltpFR	7	n/a	n/a	n/a	n/a	n/a	n/a	n/a	n/a	n/a	n/a	n/a	n/a	n/a	n/a	n/a
1973712	WORD	wordpools/wasnorm_wordpool_less_exclusions.txt	LTP251	ltpFR	7	7	0	ELM	527	n/a	1	n/a	0	0	0	0	0.5869140625	0.422607421875	lower	../fonts/amplitud.ttf
1976724	START	n/a	LTP251	ltpFR	7	n/a	n/a	n/a	n/a	n/a	n/a	n/a	n/a	n/a	n/a	n/a	n/a	n/a	n/a	n/a
1977694	PROB	n/a	LTP251	ltpFR	7	n/a	n/a	n/a	n/a	n/a	n/a	14	4	2	8	n/a	n/a	n/a	n/a	n/a
1980753	PROB	n/a	LTP251	ltpFR	7	n/a	n/a	n/a	n/a	n/a	n/a	15	7	2	6	n/a	n/a	n/a	n/a	n/a
1982760	PROB	n/a	LTP251	ltpFR	7	n/a	n/a	n/a	n/a	n/a	n/a	18	6	9	3	n/a	n/a	n/a	n/a	n/a
1986842	PROB	n/a	LTP251	ltpFR	7	n/a	n/a	n/a	n/a	n/a	n/a	16	9	5	2	n/a	n/a	n/a	n/a	n/a
1988953	PROB	n/a	LTP251	ltpFR	7	n/a	n/a	n/a	n/a	n/a	n/a	11	5	4	2	n/a	n/a	n/a	n/a	n/a
1991773	STOP	n/a	LTP251	ltpFR	7	n/a	n/a	n/a	n/a	n/a	n/a	n/a	n/a	n/a	n/a	n/a	n/a	n/a	n/a	n/a
1994609	REC_START	n/a	LTP251	ltpFR	7	7	n/a	n/a	n/a	n/a	n/a	n/a	0	0	0	n/a	n/a	n/a	n/a	n/a
1996210	REC_WORD	wordpools/wasnorm_wordpool_less_exclusions.txt	LTP251	ltpFR	7	7	0	ELM	527	n/a	1	n/a	0	0	0	n/a	n/a	n/a	n/a	n/a
1997228	REC_WORD	wordpools/wasnorm_wordpool_less_exclusions.txt	LTP251	ltpFR	7	7	0	HELICOPTER	701	n/a	1	n/a	0	0	0	n/a	n/a	n/a	n/a	n/a
1998919	REC_WORD	wordpools/wasnorm_wordpool_less_exclusions.txt	LTP251	ltpFR	7	7	0	JAR	750	n/a	1	n/a	0	0	0	n/a	n/a	n/a	n/a	n/a
2000226	REC_WORD	wordpools/wasnorm_wordpool_less_exclusions.txt	LTP251	ltpFR	7	7	0	SALT	1229	n/a	0	n/a	0	0	0	n/a	n/a	n/a	n/a	n/a
2002321	REC_WORD	wordpools/wasnorm_wordpool_less_exclusions.txt	LTP251	ltpFR	7	7	0	GLASS	639	n/a	0	n/a	0	0	0	n/a	n/a	n/a	n/a	n/a
2004561	REC_WORD	wordpools/wasnorm_wordpool_less_exclusions.txt	LTP251	ltpFR	7	7	0	HUMAN	726	n/a	1	n/a	0	0	0	n/a	n/a	n/a	n/a	n/a
2073656	WORD	wordpools/wasnorm_wordpool_less_exclusions.txt	LTP251	ltpFR	7	8	1	JAW	751	n/a	1	n/a	0	0	0	1	0.412841796875	0.57763671875	upper	../fonts/zerothre.ttf
2077805	WORD	wordpools/wasnorm_wordpool_less_exclusions.txt	LTP251	ltpFR	7	8	1	SHARK	1275	n/a	1	n/a	0	0	0	1	0.412841796875	0.57763671875	upper	../fonts/zerothre.ttf
2081669	WORD	wordpools/wasnorm_wordpool_less_exclusions.txt	LTP251	ltpFR	7	8	1	CRICKET	408	n/a	1	n/a	0	0	0	1	0.412841796875	0.57763671875	upper	../fonts/zerothre.ttf
2085849	WORD	wordpools/wasnorm_wordpool_less_exclusions.txt	LTP251	ltpFR	7	8	1	FIG	563	n/a	1	n/a	0	0	0	1	0.412841796875	0.57763671875	upper	../fonts/zerothre.ttf
2090064	WORD	wordpools/wasnorm_wordpool_less_exclusions.txt	LTP251	ltpFR	7	8	1	PLUM	1090	n/a	1	n/a	0	0	0	1	0.412841796875	0.57763671875	upper	../fonts/zerothre.ttf
2094134	WORD	wordpools/wasnorm_wordpool_less_exclusions.txt	LTP251	ltpFR	7	8	1	MOSQUITO	917	n/a	1	n/a	0	0	0	1	0.412841796875	0.57763671875	upper	../fonts/zerothre.ttf
2098014	WORD	wordpools/wasnorm_wordpool_less_exclusions.txt	LTP251	ltpFR	7	8	1	CONE	363	n/a	0	n/a	0	0	0	1	0.412841796875	0.57763671875	upper	../fonts/zerothre.ttf
2102164	WORD	wordpools/wasnorm_wordpool_less_exclusions.txt	LTP251	ltpFR	7	8	1	COLESLAW	344	n/a	0	n/a	0	0	0	1	0.412841796875	0.57763671875	upper	../fonts/zerothre.ttf
2106380	WORD	wordpools/wasnorm_wordpool_less_exclusions.txt	LTP251	ltpFR	7	8	1	RODENT	1204	n/a	0	n/a	0	0	0	1	0.412841796875	0.57763671875	upper	../fonts/zerothre.ttf
2110412	WORD	wordpools/wasnorm_wordpool_less_exclusions.txt	LTP251	ltpFR	7	8	1	KEYBOARD	774	n/a	0	n/a	0	0	0	1	0.412841796875	0.57763671875	upper	../fonts/zerothre.ttf
2114526	WORD	wordpools/wasnorm_wordpool_less_exclusions.txt	LTP251	ltpFR	7	8	1	PUCK	1138	n/a	0	n/a	0	0	0	1	0.412841796875	0.57763671875	upper	../fonts/zerothre.ttf
2118424	WORD	wordpools/wasnorm_wordpool_less_exclusions.txt	LTP251	ltpFR	7	8	1	LANDSCAPE	799	n/a	1	n/a	0	0	0	1	0.412841796875	0.57763671875	upper	../fonts/zerothre.ttf
2122420	WORD	wordpools/wasnorm_wordpool_less_exclusions.txt	LTP251	ltpFR	7	8	1	PICKLE	1059	n/a	0	n/a	0	0	0	1	0.412841796875	0.57763671875	upper	../fonts/zerothre.ttf
2126322	WORD	wordpools/wasnorm_wordpool_less_exclusions.txt	LTP251	ltpFR	7	8	1	BOSS	152	n/a	1	n/a	0	0	0	1	0.412841796875	0.57763671875	upper	../fonts/zerothre.ttf
2130300	WORD	wordpools/wasnorm_wordpool_less_exclusions.txt	LTP251	ltpFR	7	8	1	BRIEFCASE	175	n/a	0	n/a	0	0	0	1	0.412841796875	0.57763671875	upper	../fonts/zerothre.ttf
2134452	WORD	wordpools/wasnorm_wordpool_less_exclusions.txt	LTP251	ltpFR	7	8	1	CATERPILLAR	259	n/a	1	n/a	0	0	0	1	0.412841796875	0.57763671875	upper	../fonts/zerothre.ttf
2137463	START	n/a	LTP251	ltpFR	7	n/a	n/a	n/a	n/a	n/a	n/a	n/a	n/a	n/a	n/a	n/a	n/a	n/a	n/a	n/a
2138284	PROB	n/a	LTP251	ltpFR	7	n/a	n/a	n/a	n/a	n/a	n/a	12	8	1	3	n/a	n/a	n/a	n/a	n/a
2140372	PROB	n/a	LTP251	ltpFR	7	n/a	n/a	n/a	n/a	n/a	n/a	11	8	1	1	n/a	n/a	n/a	n/a	n/a
2144428	STOP	n/a	LTP251	ltpFR	7	n/a	n/a	n/a	n/a	n/a	n/a	n/a	n/a	n/a	n/a	n/a	n/a	n/a	n/a	n/a
2147402	REC_START	n/a	LTP251	ltpFR	7	8	n/a	n/a	n/a	n/a	n/a	n/a	0	0	0	n/a	n/a	n/a	n/a	n/a
2148814	REC_WORD	wordpools/wasnorm_wordpool_less_exclusions.txt	LTP251	ltpFR	7	8	1	BOSS	152	n/a	1	n/a	0	0	0	n/a	n/a	n/a	n/a	n/a
2149996	REC_WORD	wordpools/wasnorm_wordpool_less_exclusions.txt	LTP251	ltpFR	7	8	1	LANDSCAPE	799	n/a	1	n/a	0	0	0	n/a	n/a	n/a	n/a	n/a
2156072	REC_WORD	wordpools/wasnorm_wordpool_less_exclusions.txt	LTP251	ltpFR	7	8	1	PUCK	1138	n/a	0	n/a	0	0	0	n/a	n/a	n/a	n/a	n/a
2160113	REC_WORD	wordpools/wasnorm_wordpool_less_exclusions.txt	LTP251	ltpFR	7	8	1	CRICKET	408	n/a	1	n/a	0	0	0	n/a	n/a	n/a	n/a	n/a
2161051	REC_WORD	wordpools/wasnorm_wordpool_less_exclusions.txt	LTP251	ltpFR	7	8	1	MOSQUITO	917	n/a	1	n/a	0	0	0	n/a	n/a	n/a	n/a	n/a
2162607	REC_WORD	wordpools/wasnorm_wordpool_less_exclusions.txt	LTP251	ltpFR	7	8	1	SHARK	1275	n/a	1	n/a	0	0	0	n/a	n/a	n/a	n/a	n/a
2164024	REC_WORD	wordpools/wasnorm_wordpool_less_exclusions.txt	LTP251	ltpFR	7	8	1	PLUM	1090	n/a	1	n/a	0	0	0	n/a	n/a	n/a	n/a	n/a
2165336	REC_WORD	wordpools/wasnorm_wordpool_less_exclusions.txt	LTP251	ltpFR	7	8	1	FIG	563	n/a	1	n/a	0	0	0	n/a	n/a	n/a	n/a	n/a
2167950	REC_WORD	wordpools/wasnorm_wordpool_less_exclusions.txt	LTP251	ltpFR	7	8	1	COLESLAW	344	n/a	0	n/a	0	0	0	n/a	n/a	n/a	n/a	n/a
2169726	REC_WORD	wordpools/wasnorm_wordpool_less_exclusions.txt	LTP251	ltpFR	7	8	1	KEYBOARD	774	n/a	0	n/a	0	0	0	n/a	n/a	n/a	n/a	n/a
2226984	WORD	wordpools/wasnorm_wordpool_less_exclusions.txt	LTP251	ltpFR	7	9	0	BED	110	n/a	1	n/a	0	0	0	0	0.5869140625	0.422607421875	lower	../fonts/amplitud.ttf
2231167	WORD	wordpools/wasnorm_wordpool_less_exclusions.txt	LTP251	ltpFR	7	9	0	PROTON	1132	n/a	0	n/a	0	0	0	0	0.5869140625	0.422607421875	lower	../fonts/amplitud.ttf
2235216	WORD	wordpools/wasnorm_wordpool_less_exclusions.txt	LTP251	ltpFR	7	9	0	LIMB	822	n/a	1	n/a	0	0	0	0	0.5869140625	0.422607421875	lower	../fonts/amplitud.ttf
2239114	WORD	wordpools/wasnorm_wordpool_less_exclusions.txt	LTP251	ltpFR	7	9	0	WRIST	1626	n/a	0	n/a	0	0	0	0	0.5869140625	0.422607421875	lower	../fonts/amplitud.ttf
2243041	WORD	wordpools/wasnorm_wordpool_less_exclusions.txt	LTP251	ltpFR	7	9	0	SATURN	1236	n/a	1	n/a	0	0	0	0	0.5869140625	0.422607421875	lower	../fonts/amplitud.ttf
2247244	WORD	wordpools/wasnorm_wordpool_less_exclusions.txt	LTP251	ltpFR	7	9	0	MINER	896	n/a	1	n/a	0	0	0	0	0.5869140625	0.422607421875	lower	../fonts/amplitud.ttf
2251259	WORD	wordpools/wasnorm_wordpool_less_exclusions.txt	LTP251	ltpFR	7	9	0	DIGGER	464	n/a	1	n/a	0	0	0	0	0.5869140625	0.422607421875	lower	../fonts/amplitud.ttf
2255275	WORD	wordpools/wasnorm_wordpool_less_exclusions.txt	LTP251	ltpFR	7	9	0	WATERFALL	1595	n/a	1	n/a	0	0	0	0	0.5869140625	0.422607421875	lower	../fonts/amplitud.ttf
2259290	WORD	wordpools/wasnorm_wordpool_less_exclusions.txt	LTP251	ltpFR	7	9	0	SWATTER	1418	n/a	0	n/a	0	0	0	0	0.5869140625	0.422607421875	lower	../fonts/amplitud.ttf
2263255	WORD	wordpools/wasnorm_wordpool_less_exclusions.txt	LTP251	ltpFR	7	9	0	NEPTUNE	943	n/a	1	n/a	0	0	0	0	0.5869140625	0.422607421875	lower	../fonts/amplitud.ttf
2267337	WORD	wordpools/wasnorm_wordpool_less_exclusions.txt	LTP251	ltpFR	7	9	0	SALIVA	1226	n/a	0	n/a	0	0	0	0	0.5869140625	0.422607421875	lower	../fonts/amplitud.ttf
2271498	WORD	wordpools/wasnorm_wordpool_less_exclusions.txt	LTP251	ltpFR	7	9	0	JET	756	n/a	1	n/a	0	0	0	0	0.5869140625	0.422607421875	lower	../fonts/amplitud.ttf
2275463	WORD	wordpools/wasnorm_wordpool_less_exclusions.txt	LTP251	ltpFR	7	9	0	SKYSCRAPER	1322	n/a	1	n/a	0	0	0	0	0.5869140625	0.422607421875	lower	../fonts/amplitud.ttf
2279448	WORD	wordpools/wasnorm_wordpool_less_exclusions.txt	LTP251	ltpFR	7	9	0	MOTORCYCLE	923	n/a	1	n/a	0	0	0	0	0.5869140625	0.422607421875	lower	../fonts/amplitud.ttf
2283497	WORD	wordpools/wasnorm_wordpool_less_exclusions.txt	LTP251	ltpFR	7	9	0	PEDAL	1037	n/a	0	n/a	0	0	0	0	0.5869140625	0.422607421875	lower	../fonts/amplitud.ttf
2287329	WORD	wordpools/wasnorm_wordpool_less_exclusions.txt	LTP251	ltpFR	7	9	0	DENIM	446	n/a	1	n/a	0	0	0	0	0.5869140625	0.422607421875	lower	../fonts/amplitud.ttf
2293235	REC_START	n/a	LTP251	ltpFR	7	9	n/a	n/a	n/a	n/a	n/a	n/a	0	0	0	n/a	n/a	n/a	n/a	n/a
2294362	REC_WORD	wordpools/wasnorm_wordpool_less_exclusions.txt	LTP251	ltpFR	7	9	0	PEDAL	1037	n/a	0	n/a	0	0	0	n/a	n/a	n/a	n/a	n/a
2295565	REC_WORD	wordpools/wasnorm_wordpool_less_exclusions.txt	LTP251	ltpFR	7	9	0	PROTON	1132	n/a	0	n/a	0	0	0	n/a	n/a	n/a	n/a	n/a
2296727	REC_WORD	wordpools/wasnorm_wordpool_less_exclusions.txt	LTP251	ltpFR	7	9	0	SALIVA	1226	n/a	0	n/a	0	0	0	n/a	n/a	n/a	n/a	n/a
2300743	REC_WORD	wordpools/wasnorm_wordpool_less_exclusions.txt	LTP251	ltpFR	7	9	0	DENIM	446	n/a	1	n/a	0	0	0	n/a	n/a	n/a	n/a	n/a
2302165	REC_WORD	wordpools/wasnorm_wordpool_less_exclusions.txt	LTP251	ltpFR	7	9	0	WRIST	1626	n/a	0	n/a	0	0	0	n/a	n/a	n/a	n/a	n/a
2303810	REC_WORD	wordpools/wasnorm_wordpool_less_exclusions.txt	LTP251	ltpFR	7	9	0	SKYSCRAPER	1322	n/a	1	n/a	0	0	0	n/a	n/a	n/a	n/a	n/a
2307183	REC_WORD	wordpools/wasnorm_wordpool_less_exclusions.txt	LTP251	ltpFR	7	9	0	MINER	896	n/a	1	n/a	0	0	0	n/a	n/a	n/a	n/a	n/a
2308675	REC_WORD	wordpools/wasnorm_wordpool_less_exclusions.txt	LTP251	ltpFR	7	9	0	DIGGER	464	n/a	1	n/a	0	0	0	n/a	n/a	n/a	n/a	n/a
2309992	REC_WORD	wordpools/wasnorm_wordpool_less_exclusions.txt	LTP251	ltpFR	7	9	0	SWATTER	1418	n/a	0	n/a	0	0	0	n/a	n/a	n/a	n/a	n/a
2319924	REC_WORD	wordpools/wasnorm_wordpool_less_exclusions.txt	LTP251	ltpFR	7	9	0	LIMB	822	n/a	1	n/a	0	0	0	n/a	n/a	n/a	n/a	n/a
2325556	REC_WORD	wordpools/wasnorm_wordpool_less_exclusions.txt	LTP251	ltpFR	7	9	0	SATURN	1236	n/a	1	n/a	0	0	0	n/a	n/a	n/a	n/a	n/a
2327821	REC_WORD	wordpools/wasnorm_wordpool_less_exclusions.txt	LTP251	ltpFR	7	9	0	NEPTUNE	943	n/a	1	n/a	0	0	0	n/a	n/a	n/a	n/a	n/a
2371245	WORD	wordpools/wasnorm_wordpool_less_exclusions.txt	LTP251	ltpFR	7	10	0	WAREHOUSE	1588	n/a	1	n/a	0	0	0	0	0.5869140625	0.422607421875	lower	../fonts/amplitud.ttf
2375426	WORD	wordpools/wasnorm_wordpool_less_exclusions.txt	LTP251	ltpFR	7	10	0	ENEMY	534	n/a	1	n/a	0	0	0	0	0.5869140625	0.422607421875	lower	../fonts/amplitud.ttf
2379342	WORD	wordpools/wasnorm_wordpool_less_exclusions.txt	LTP251	ltpFR	7	10	0	PUB	1135	n/a	1	n/a	0	0	0	0	0.5869140625	0.422607421875	lower	../fonts/amplitud.ttf
2383203	WORD	wordpools/wasnorm_wordpool_less_exclusions.txt	LTP251	ltpFR	7	10	0	PAINT	1003	n/a	1	n/a	0	0	0	0	0.5869140625	0.422607421875	lower	../fonts/amplitud.ttf
2387202	WORD	wordpools/wasnorm_wordpool_less_exclusions.txt	LTP251	ltpFR	7	10	0	SKETCH	1315	n/a	0	n/a	0	0	0	0	0.5869140625	0.422607421875	lower	../fonts/amplitud.ttf
2391404	WORD	wordpools/wasnorm_wordpool_less_exclusions.txt	LTP251	ltpFR	7	10	0	SCALLOP	1242	n/a	0	n/a	0	0	0	0	0.5869140625	0.422607421875	lower	../fonts/amplitud.ttf
2395452	WORD	wordpools/wasnorm_wordpool_less_exclusions.txt	LTP251	ltpFR	7	10	0	CAR	241	n/a	1	n/a	0	0	0	0	0.5869140625	0.422607421875	lower	../fonts/amplitud.ttf
2399314	WORD	wordpools/wasnorm_wordpool_less_exclusions.txt	LTP251	ltpFR	7	10	0	TAR	1435	n/a	1	n/a	0	0	0	0	0.5869140625	0.422607421875	lower	../fonts/amplitud.ttf
2403262	WORD	wordpools/wasnorm_wordpool_less_exclusions.txt	LTP251	ltpFR	7	10	0	LOG	841	n/a	0	n/a	0	0	0	0	0.5869140625	0.422607421875	lower	../fonts/amplitud.ttf
2407197	WORD	wordpools/wasnorm_wordpool_less_exclusions.txt	LTP251	ltpFR	7	10	0	RELISH	1183	n/a	0	n/a	0	0	0	0	0.5869140625	0.422607421875	lower	../fonts/amplitud.ttf
2411111	WORD	wordpools/wasnorm_wordpool_less_exclusions.txt	LTP251	ltpFR	7	10	0	LODGE	839	n/a	1	n/a	0	0	0	0	0.5869140625	0.422607421875	lower	../fonts/amplitud.ttf
2415093	WORD	wordpools/wasnorm_wordpool_less_exclusions.txt	LTP251	ltpFR	7	10	0	BLANKET	135	n/a	0	n/a	0	0	0	0	0.5869140625	0.422607421875	lower	../fonts/amplitud.ttf
2419309	WORD	wordpools/wasnorm_wordpool_less_exclusions.txt	LTP251	ltpFR	7	10	0	PADDING	999	n/a	0	n/a	0	0	0	0	0.5869140625	0.422607421875	lower	../fonts/amplitud.ttf
2423207	WORD	wordpools/wasnorm_wordpool_less_exclusions.txt	LTP251	ltpFR	7	10	0	MOTEL	919	n/a	1	n/a	0	0	0	0	0.5869140625	0.422607421875	lower	../fonts/amplitud.ttf
2427436	WORD	wordpools/wasnorm_wordpool_less_exclusions.txt	LTP251	ltpFR	7	10	0	BOX	159	n/a	0	n/a	0	0	0	0	0.5869140625	0.422607421875	lower	../fonts/amplitud.ttf
2431335	WORD	wordpools/wasnorm_wordpool_less_exclusions.txt	LTP251	ltpFR	7	10	0	TOENAIL	1474	n/a	0	n/a	0	0	0	0	0.5869140625	0.422607421875	lower	../fonts/amplitud.ttf
2437178	REC_START	n/a	LTP251	ltpFR	7	10	n/a	n/a	n/a	n/a	n/a	n/a	0	0	0	n/a	n/a	n/a	n/a	n/a
2438081	REC_WORD	wordpools/wasnorm_wordpool_less_exclusions.txt	LTP251	ltpFR	7	10	0	BOX	159	n/a	0	n/a	0	0	0	n/a	n/a	n/a	n/a	n/a
2439188	REC_WORD	wordpools/wasnorm_wordpool_less_exclusions.txt	LTP251	ltpFR	7	10	0	TOENAIL	1474	n/a	0	n/a	0	0	0	n/a	n/a	n/a	n/a	n/a
2445234	REC_WORD	wordpools/wasnorm_wordpool_less_exclusions.txt	LTP251	ltpFR	7	10	0	WAREHOUSE	1588	n/a	1	n/a	0	0	0	n/a	n/a	n/a	n/a	n/a
2446537	REC_WORD	wordpools/wasnorm_wordpool_less_exclusions.txt	LTP251	ltpFR	7	10	0	LODGE	839	n/a	1	n/a	0	0	0	n/a	n/a	n/a	n/a	n/a
2448153	REC_WORD	wordpools/wasnorm_wordpool_less_exclusions.txt	LTP251	ltpFR	7	10	0	MOTEL	919	n/a	1	n/a	0	0	0	n/a	n/a	n/a	n/a	n/a
2450976	REC_WORD	wordpools/wasnorm_wordpool_less_exclusions.txt	LTP251	ltpFR	7	10	0	LOG	841	n/a	0	n/a	0	0	0	n/a	n/a	n/a	n/a	n/a
2463952	REC_WORD	wordpools/wasnorm_wordpool_less_exclusions.txt	LTP251	ltpFR	7	10	0	RELISH	1183	n/a	0	n/a	0	0	0	n/a	n/a	n/a	n/a	n/a
2512824	REST_REWET	n/a	LTP251	ltpFR	7	10	n/a	n/a	n/a	n/a	n/a	n/a	0	0	0	n/a	n/a	n/a	n/a	n/a
3031482	WORD	wordpools/wasnorm_wordpool_less_exclusions.txt	LTP251	ltpFR	7	11	0	DRESSER	496	n/a	1	n/a	0	0	0	0	0.5869140625	0.422607421875	lower	../fonts/amplitud.ttf
3035547	WORD	wordpools/wasnorm_wordpool_less_exclusions.txt	LTP251	ltpFR	7	11	0	DESIGNER	451	n/a	1	n/a	0	0	0	0	0.5869140625	0.422607421875	lower	../fonts/amplitud.ttf
3039563	WORD	wordpools/wasnorm_wordpool_less_exclusions.txt	LTP251	ltpFR	7	11	0	MATTRESS	879	n/a	1	n/a	0	0	0	0	0.5869140625	0.422607421875	lower	../fonts/amplitud.ttf
3043427	WORD	wordpools/wasnorm_wordpool_less_exclusions.txt	LTP251	ltpFR	7	11	0	ARTICLE	42	n/a	0	n/a	0	0	0	0	0.5869140625	0.422607421875	lower	../fonts/amplitud.ttf
3047493	WORD	wordpools/wasnorm_wordpool_less_exclusions.txt	LTP251	ltpFR	7	11	0	BARTENDER	92	n/a	1	n/a	0	0	0	0	0.5869140625	0.422607421875	lower	../fonts/amplitud.ttf
3051555	WORD	wordpools/wasnorm_wordpool_less_exclusions.txt	LTP251	ltpFR	7	11	0	CHICK	296	n/a	1	n/a	0	0	0	0	0.5869140625	0.422607421875	lower	../fonts/amplitud.ttf
3055757	WORD	wordpools/wasnorm_wordpool_less_exclusions.txt	LTP251	ltpFR	7	11	0	DASHBOARD	441	n/a	1	n/a	0	0	0	0	0.5869140625	0.422607421875	lower	../fonts/amplitud.ttf
3059939	WORD	wordpools/wasnorm_wordpool_less_exclusions.txt	LTP251	ltpFR	7	11	0	BUSH	202	n/a	0	n/a	0	0	0	0	0.5869140625	0.422607421875	lower	../fonts/amplitud.ttf
3063854	WORD	wordpools/wasnorm_wordpool_less_exclusions.txt	LTP251	ltpFR	7	11	0	CANDIDATE	228	n/a	1	n/a	0	0	0	0	0.5869140625	0.422607421875	lower	../fonts/amplitud.ttf
3067886	WORD	wordpools/wasnorm_wordpool_less_exclusions.txt	LTP251	ltpFR	7	11	0	JOURNAL	760	n/a	0	n/a	0	0	0	0	0.5869140625	0.422607421875	lower	../fonts/amplitud.ttf
3071834	WORD	wordpools/wasnorm_wordpool_less_exclusions.txt	LTP251	ltpFR	7	11	0	DOCUMENT	479	n/a	0	n/a	0	0	0	0	0.5869140625	0.422607421875	lower	../fonts/amplitud.ttf
3075880	WORD	wordpools/wasnorm_wordpool_less_exclusions.txt	LTP251	ltpFR	7	11	0	DIAGRAM	456	n/a	1	n/a	0	0	0	0	0.5869140625	0.422607421875	lower	../fonts/amplitud.ttf
3079898	WORD	wordpools/wasnorm_wordpool_less_exclusions.txt	LTP251	ltpFR	7	11	0	ALBUM	14	n/a	1	n/a	0	0	0	0	0.5869140625	0.422607421875	lower	../fonts/amplitud.ttf
3083997	WORD	wordpools/wasnorm_wordpool_less_exclusions.txt	LTP251	ltpFR	7	11	0	HAMMOCK	681	n/a	1	n/a	0	0	0	0	0.5869140625	0.422607421875	lower	../fonts/amplitud.ttf
3087945	WORD	wordpools/wasnorm_wordpool_less_exclusions.txt	LTP251	ltpFR	7	11	0	SWORD	1423	n/a	1	n/a	0	0	0	0	0.5869140625	0.422607421875	lower	../fonts/amplitud.ttf
3091843	WORD	wordpools/wasnorm_wordpool_less_exclusions.txt	LTP251	ltpFR	7	11	0	COSTUME	383	n/a	1	n/a	0	0	0	0	0.5869140625	0.422607421875	lower	../fonts/amplitud.ttf
3094855	START	n/a	LTP251	ltpFR	7	n/a	n/a	n/a	n/a	n/a	n/a	n/a	n/a	n/a	n/a	n/a	n/a	n/a	n/a	n/a
3095942	PROB	n/a	LTP251	ltpFR	7	n/a	n/a	n/a	n/a	n/a	n/a	21	9	7	5	n/a	n/a	n/a	n/a	n/a
3100206	PROB	n/a	LTP251	ltpFR	7	n/a	n/a	n/a	n/a	n/a	n/a	9	3	4	2	n/a	n/a	n/a	n/a	n/a
3102233	PROB	n/a	LTP251	ltpFR	7	n/a	n/a	n/a	n/a	n/a	n/a	19	6	8	5	n/a	n/a	n/a	n/a	n/a
3106495	PROB	n/a	LTP251	ltpFR	7	n/a	n/a	n/a	n/a	n/a	n/a	8	2	1	5	n/a	n/a	n/a	n/a	n/a
3107887	PROB	n/a	LTP251	ltpFR	7	n/a	n/a	n/a	n/a	n/a	n/a	15	3	3	9	n/a	n/a	n/a	n/a	n/a
3109964	STOP	n/a	LTP251	ltpFR	7	n/a	n/a	n/a	n/a	n/a	n/a	n/a	n/a	n/a	n/a	n/a	n/a	n/a	n/a	n/a
3112689	REC_START	n/a	LTP251	ltpFR	7	11	n/a	n/a	n/a	n/a	n/a	n/a	0	0	0	n/a	n/a	n/a	n/a	n/a
3113517	REC_WORD	wordpools/wasnorm_wordpool_less_exclusions.txt	LTP251	ltpFR	7	11	0	DIAGRAM	456	n/a	1	n/a	0	0	0	n/a	n/a	n/a	n/a	n/a
3114819	REC_WORD	wordpools/wasnorm_wordpool_less_exclusions.txt	LTP251	ltpFR	7	11	0	ALBUM	14	n/a	1	n/a	0	0	0	n/a	n/a	n/a	n/a	n/a
3116241	REC_WORD	wordpools/wasnorm_wordpool_less_exclusions.txt	LTP251	ltpFR	7	11	0	HAMMOCK	681	n/a	1	n/a	0	0	0	n/a	n/a	n/a	n/a	n/a
3117633	REC_WORD	wordpools/wasnorm_wordpool_less_exclusions.txt	LTP251	ltpFR	7	11	0	SWORD	1423	n/a	1	n/a	0	0	0	n/a	n/a	n/a	n/a	n/a
3119334	REC_WORD	wordpools/wasnorm_wordpool_less_exclusions.txt	LTP251	ltpFR	7	11	0	BINDER	127	n/a	0	n/a	0	0	0	n/a	n/a	n/a	n/a	n/a
3126742	REC_WORD	wordpools/wasnorm_wordpool_less_exclusions.txt	LTP251	ltpFR	7	11	0	COSTUME	383	n/a	1	n/a	0	0	0	n/a	n/a	n/a	n/a	n/a
3190428	START	n/a	LTP251	ltpFR	7	n/a	n/a	n/a	n/a	n/a	n/a	n/a	n/a	n/a	n/a	n/a	n/a	n/a	n/a	n/a
3191937	PROB	n/a	LTP251	ltpFR	7	n/a	n/a	n/a	n/a	n/a	n/a	9	2	1	6	n/a	n/a	n/a	n/a	n/a
3195514	PROB	n/a	LTP251	ltpFR	7	n/a	n/a	n/a	n/a	n/a	n/a	16	3	5	8	n/a	n/a	n/a	n/a	n/a
3197821	STOP	n/a	LTP251	ltpFR	7	n/a	n/a	n/a	n/a	n/a	n/a	n/a	n/a	n/a	n/a	n/a	n/a	n/a	n/a	n/a
3199265	WORD	wordpools/wasnorm_wordpool_less_exclusions.txt	LTP251	ltpFR	7	12	0	BEAD	103	n/a	0	n/a	0	0	0	0	0.5869140625	0.422607421875	lower	../fonts/amplitud.ttf
3202278	START	n/a	LTP251	ltpFR	7	n/a	n/a	n/a	n/a	n/a	n/a	n/a	n/a	n/a	n/a	n/a	n/a	n/a	n/a	n/a
3203494	PROB	n/a	LTP251	ltpFR	7	n/a	n/a	n/a	n/a	n/a	n/a	14	2	2	8	n/a	n/a	n/a	n/a	n/a
3205435	PROB	n/a	LTP251	ltpFR	7	n/a	n/a	n/a	n/a	n/a	n/a	13	4	6	3	n/a	n/a	n/a	n/a	n/a
3208146	PROB	n/a	LTP251	ltpFR	7	n/a	n/a	n/a	n/a	n/a	n/a	10	7	1	2	n/a	n/a	n/a	n/a	n/a
3210118	STOP	n/a	LTP251	ltpFR	7	n/a	n/a	n/a	n/a	n/a	n/a	n/a	n/a	n/a	n/a	n/a	n/a	n/a	n/a	n/a
3211474	WORD	wordpools/wasnorm_wordpool_less_exclusions.txt	LTP251	ltpFR	7	12	0	LOCK	838	n/a	0	n/a	0	0	0	0	0.5869140625	0.422607421875	lower	../fonts/amplitud.ttf
3214489	START	n/a	LTP251	ltpFR	7	n/a	n/a	n/a	n/a	n/a	n/a	n/a	n/a	n/a	n/a	n/a	n/a	n/a	n/a	n/a
3215476	PROB	n/a	LTP251	ltpFR	7	n/a	n/a	n/a	n/a	n/a	n/a	10	1	5	4	n/a	n/a	n/a	n/a	n/a
3216928	PROB	n/a	LTP251	ltpFR	7	n/a	n/a	n/a	n/a	n/a	n/a	17	1	9	7	n/a	n/a	n/a	n/a	n/a
3220972	STOP	n/a	LTP251	ltpFR	7	n/a	n/a	n/a	n/a	n/a	n/a	n/a	n/a	n/a	n/a	n/a	n/a	n/a	n/a	n/a
3223422	WORD	wordpools/wasnorm_wordpool_less_exclusions.txt	LTP251	ltpFR	7	12	0	CLAMP	316	n/a	0	n/a	0	0	0	0	0.5869140625	0.422607421875	lower	../fonts/amplitud.ttf
3226434	START	n/a	LTP251	ltpFR	7	n/a	n/a	n/a	n/a	n/a	n/a	n/a	n/a	n/a	n/a	n/a	n/a	n/a	n/a	n/a
3227271	PROB	n/a	LTP251	ltpFR	7	n/a	n/a	n/a	n/a	n/a	n/a	15	1	4	9	n/a	n/a	n/a	n/a	n/a
3228856	PROB	n/a	LTP251	ltpFR	7	n/a	n/a	n/a	n/a	n/a	n/a	17	9	4	4	n/a	n/a	n/a	n/a	n/a
3231483	PROB	n/a	LTP251	ltpFR	7	n/a	n/a	n/a	n/a	n/a	n/a	10	2	5	3	n/a	n/a	n/a	n/a	n/a
3233141	STOP	n/a	LTP251	ltpFR	7	n/a	n/a	n/a	n/a	n/a	n/a	n/a	n/a	n/a	n/a	n/a	n/a	n/a	n/a	n/a
3235464	WORD	wordpools/wasnorm_wordpool_less_exclusions.txt	LTP251	ltpFR	7	12	0	RICE	1190	n/a	0	n/a	0	0	0	0	0.5869140625	0.422607421875	lower	../fonts/amplitud.ttf
3238480	START	n/a	LTP251	ltpFR	7	n/a	n/a	n/a	n/a	n/a	n/a	n/a	n/a	n/a	n/a	n/a	n/a	n/a	n/a	n/a
3239583	PROB	n/a	LTP251	ltpFR	7	n/a	n/a	n/a	n/a	n/a	n/a	20	6	9	5	n/a	n/a	n/a	n/a	n/a
3245780	STOP	n/a	LTP251	ltpFR	7	n/a	n/a	n/a	n/a	n/a	n/a	n/a	n/a	n/a	n/a	n/a	n/a	n/a	n/a	n/a
3247597	WORD	wordpools/wasnorm_wordpool_less_exclusions.txt	LTP251	ltpFR	7	12	0	SAUSAGE	1238	n/a	0	n/a	0	0	0	0	0.5869140625	0.422607421875	lower	../fonts/amplitud.ttf
3250609	START	n/a	LTP251	ltpFR	7	n/a	n/a	n/a	n/a	n/a	n/a	n/a	n/a	n/a	n/a	n/a	n/a	n/a	n/a	n/a
3251545	PROB	n/a	LTP251	ltpFR	7	n/a	n/a	n/a	n/a	n/a	n/a	19	6	7	6	n/a	n/a	n/a	n/a	n/a
3254370	PROB	n/a	LTP251	ltpFR	7	n/a	n/a	n/a	n/a	n/a	n/a	18	7	4	9	n/a	n/a	n/a	n/a	n/a
3257741	STOP	n/a	LTP251	ltpFR	7	n/a	n/a	n/a	n/a	n/a	n/a	n/a	n/a	n/a	n/a	n/a	n/a	n/a	n/a	n/a
3259809	WORD	wordpools/wasnorm_wordpool_less_exclusions.txt	LTP251	ltpFR	7	12	0	TEACHER	1440	n/a	1	n/a	0	0	0	0	0.5869140625	0.422607421875	lower	../fonts/amplitud.ttf
3262821	START	n/a	LTP251	ltpFR	7	n/a	n/a	n/a	n/a	n/a	n/a	n/a	n/a	n/a	n/a	n/a	n/a	n/a	n/a	n/a
3263891	PROB	n/a	LTP251	ltpFR	7	n/a	n/a	n/a	n/a	n/a	n/a	18	9	5	6	n/a	n/a	n/a	n/a	n/a
3266063	PROB	n/a	LTP251	ltpFR	7	n/a	n/a	n/a	n/a	n/a	n/a	17	6	5	6	n/a	n/a	n/a	n/a	n/a
3267954	PROB	n/a	LTP251	ltpFR	7	n/a	n/a	n/a	n/a	n/a	n/a	14	4	5	5	n/a	n/a	n/a	n/a	n/a
3269741	STOP	n/a	LTP251	ltpFR	7	n/a	n/a	n/a	n/a	n/a	n/a	n/a	n/a	n/a	n/a	n/a	n/a	n/a	n/a	n/a
3271821	WORD	wordpools/wasnorm_wordpool_less_exclusions.txt	LTP251	ltpFR	7	12	0	INSTRUCTOR	741	n/a	1	n/a	0	0	0	0	0.5869140625	0.422607421875	lower	../fonts/amplitud.ttf
3274833	START	n/a	LTP251	ltpFR	7	n/a	n/a	n/a	n/a	n/a	n/a	n/a	n/a	n/a	n/a	n/a	n/a	n/a	n/a	n/a
3275719	PROB	n/a	LTP251	ltpFR	7	n/a	n/a	n/a	n/a	n/a	n/a	15	1	7	7	n/a	n/a	n/a	n/a	n/a
3277240	PROB	n/a	LTP251	ltpFR	7	n/a	n/a	n/a	n/a	n/a	n/a	16	7	6	3	n/a	n/a	n/a	n/a	n/a
3279049	PROB	n/a	LTP251	ltpFR	7	n/a	n/a	n/a	n/a	n/a	n/a	14	3	6	8	n/a	n/a	n/a	n/a	n/a
3281477	STOP	n/a	LTP251	ltpFR	7	n/a	n/a	n/a	n/a	n/a	n/a	n/a	n/a	n/a	n/a	n/a	n/a	n/a	n/a	n/a
3283800	WORD	wordpools/wasnorm_wordpool_less_exclusions.txt	LTP251	ltpFR	7	12	0	SHORE	1291	n/a	1	n/a	0	0	0	0	0.5869140625	0.422607421875	lower	../fonts/amplitud.ttf
3286812	START	n/a	LTP251	ltpFR	7	n/a	n/a	n/a	n/a	n/a	n/a	n/a	n/a	n/a	n/a	n/a	n/a	n/a	n/a	n/a
3287681	PROB	n/a	LTP251	ltpFR	7	n/a	n/a	n/a	n/a	n/a	n/a	15	6	2	7	n/a	n/a	n/a	n/a	n/a
3291242	PROB	n/a	LTP251	ltpFR	7	n/a	n/a	n/a	n/a	n/a	n/a	17	9	2	6	n/a	n/a	n/a	n/a	n/a
3294812	STOP	n/a	LTP251	ltpFR	7	n/a	n/a	n/a	n/a	n/a	n/a	n/a	n/a	n/a	n/a	n/a	n/a	n/a	n/a	n/a
3295895	WORD	wordpools/wasnorm_wordpool_less_exclusions.txt	LTP251	ltpFR	7	12	0	UNIVERSE	1540	n/a	1	n/a	0	0	0	0	0.5869140625	0.422607421875	lower	../fonts/amplitud.ttf
3298907	START	n/a	LTP251	ltpFR	7	n/a	n/a	n/a	n/a	n/a	n/a	n/a	n/a	n/a	n/a	n/a	n/a	n/a	n/a	n/a
3299844	PROB	n/a	LTP251	ltpFR	7	n/a	n/a	n/a	n/a	n/a	n/a	10	1	2	7	n/a	n/a	n/a	n/a	n/a
3301230	PROB	n/a	LTP251	ltpFR	7	n/a	n/a	n/a	n/a	n/a	n/a	24	9	6	9	n/a	n/a	n/a	n/a	n/a
3304628	PROB	n/a	LTP251	ltpFR	7	n/a	n/a	n/a	n/a	n/a	n/a	18	5	5	8	n/a	n/a	n/a	n/a	n/a
3306813	STOP	n/a	LTP251	ltpFR	7	n/a	n/a	n/a	n/a	n/a	n/a	n/a	n/a	n/a	n/a	n/a	n/a	n/a	n/a	n/a
3308091	WORD	wordpools/wasnorm_wordpool_less_exclusions.txt	LTP251	ltpFR	7	12	0	KIDNEY	776	n/a	0	n/a	0	0	0	0	0.5869140625	0.422607421875	lower	../fonts/amplitud.ttf
3311103	START	n/a	LTP251	ltpFR	7	n/a	n/a	n/a	n/a	n/a	n/a	n/a	n/a	n/a	n/a	n/a	n/a	n/a	n/a	n/a
3312272	PROB	n/a	LTP251	ltpFR	7	n/a	n/a	n/a	n/a	n/a	n/a	21	5	7	9	n/a	n/a	n/a	n/a	n/a
3315801	PROB	n/a	LTP251	ltpFR	7	n/a	n/a	n/a	n/a	n/a	n/a	14	4	2	8	n/a	n/a	n/a	n/a	n/a
3318142	STOP	n/a	LTP251	ltpFR	7	n/a	n/a	n/a	n/a	n/a	n/a	n/a	n/a	n/a	n/a	n/a	n/a	n/a	n/a	n/a
3319953	WORD	wordpools/wasnorm_wordpool_less_exclusions.txt	LTP251	ltpFR	7	12	0	BRANDY	169	n/a	0	n/a	0	0	0	0	0.5869140625	0.422607421875	lower	../fonts/amplitud.ttf
3322965	START	n/a	LTP251	ltpFR	7	n/a	n/a	n/a	n/a	n/a	n/a	n/a	n/a	n/a	n/a	n/a	n/a	n/a	n/a	n/a
3323931	PROB	n/a	LTP251	ltpFR	7	n/a	n/a	n/a	n/a	n/a	n/a	16	3	9	4	n/a	n/a	n/a	n/a	n/a
3330964	STOP	n/a	LTP251	ltpFR	7	n/a	n/a	n/a	n/a	n/a	n/a	n/a	n/a	n/a	n/a	n/a	n/a	n/a	n/a	n/a
3331914	WORD	wordpools/wasnorm_wordpool_less_exclusions.txt	LTP251	ltpFR	7	12	0	FREEWAY	603	n/a	1	n/a	0	0	0	0	0.5869140625	0.422607421875	lower	../fonts/amplitud.ttf
3334926	START	n/a	LTP251	ltpFR	7	n/a	n/a	n/a	n/a	n/a	n/a	n/a	n/a	n/a	n/a	n/a	n/a	n/a	n/a	n/a
3335930	PROB	n/a	LTP251	ltpFR	7	n/a	n/a	n/a	n/a	n/a	n/a	12	4	4	4	n/a	n/a	n/a	n/a	n/a
3337800	PROB	n/a	LTP251	ltpFR	7	n/a	n/a	n/a	n/a	n/a	n/a	18	6	4	8	n/a	n/a	n/a	n/a	n/a
3342926	STOP	n/a	LTP251	ltpFR	7	n/a	n/a	n/a	n/a	n/a	n/a	n/a	n/a	n/a	n/a	n/a	n/a	n/a	n/a	n/a
3343776	WORD	wordpools/wasnorm_wordpool_less_exclusions.txt	LTP251	ltpFR	7	12	0	CANYON	235	n/a	1	n/a	0	0	0	0	0.5869140625	0.422607421875	lower	../fonts/amplitud.ttf
3346788	START	n/a	LTP251	ltpFR	7	n/a	n/a	n/a	n/a	n/a	n/a	n/a	n/a	n/a	n/a	n/a	n/a	n/a	n/a	n/a
3347838	PROB	n/a	LTP251	ltpFR	7	n/a	n/a	n/a	n/a	n/a	n/a	19	9	5	5	n/a	n/a	n/a	n/a	n/a
3349966	PROB	n/a	LTP251	ltpFR	7	n/a	n/a	n/a	n/a	n/a	n/a	17	2	7	8	n/a	n/a	n/a	n/a	n/a
3352306	PROB	n/a	LTP251	ltpFR	7	n/a	n/a	n/a	n/a	n/a	n/a	9	2	6	1	n/a	n/a	n/a	n/a	n/a
3354142	STOP	n/a	LTP251	ltpFR	7	n/a	n/a	n/a	n/a	n/a	n/a	n/a	n/a	n/a	n/a	n/a	n/a	n/a	n/a	n/a
3355704	WORD	wordpools/wasnorm_wordpool_less_exclusions.txt	LTP251	ltpFR	7	12	0	STRAW	1390	n/a	0	n/a	0	0	0	0	0.5869140625	0.422607421875	lower	../fonts/amplitud.ttf
3358716	START	n/a	LTP251	ltpFR	7	n/a	n/a	n/a	n/a	n/a	n/a	n/a	n/a	n/a	n/a	n/a	n/a	n/a	n/a	n/a
3359736	PROB	n/a	LTP251	ltpFR	7	n/a	n/a	n/a	n/a	n/a	n/a	13	1	6	6	n/a	n/a	n/a	n/a	n/a
3361038	PROB	n/a	LTP251	ltpFR	7	n/a	n/a	n/a	n/a	n/a	n/a	16	6	2	8	n/a	n/a	n/a	n/a	n/a
3362664	PROB	n/a	LTP251	ltpFR	7	n/a	n/a	n/a	n/a	n/a	n/a	10	4	5	1	n/a	n/a	n/a	n/a	n/a
3363982	PROB	n/a	LTP251	ltpFR	7	n/a	n/a	n/a	n/a	n/a	n/a	12	7	2	3	n/a	n/a	n/a	n/a	n/a
3366052	STOP	n/a	LTP251	ltpFR	7	n/a	n/a	n/a	n/a	n/a	n/a	n/a	n/a	n/a	n/a	n/a	n/a	n/a	n/a	n/a
3367816	WORD	wordpools/wasnorm_wordpool_less_exclusions.txt	LTP251	ltpFR	7	12	0	TRAY	1498	n/a	1	n/a	0	0	0	0	0.5869140625	0.422607421875	lower	../fonts/amplitud.ttf
3370828	START	n/a	LTP251	ltpFR	7	n/a	n/a	n/a	n/a	n/a	n/a	n/a	n/a	n/a	n/a	n/a	n/a	n/a	n/a	n/a
3371848	PROB	n/a	LTP251	ltpFR	7	n/a	n/a	n/a	n/a	n/a	n/a	15	5	2	8	n/a	n/a	n/a	n/a	n/a
3374037	PROB	n/a	LTP251	ltpFR	7	n/a	n/a	n/a	n/a	n/a	n/a	14	1	7	6	n/a	n/a	n/a	n/a	n/a
3378827	STOP	n/a	LTP251	ltpFR	7	n/a	n/a	n/a	n/a	n/a	n/a	n/a	n/a	n/a	n/a	n/a	n/a	n/a	n/a	n/a
3379825	WORD	wordpools/wasnorm_wordpool_less_exclusions.txt	LTP251	ltpFR	7	12	0	GOLD	647	n/a	0	n/a	0	0	0	0	0.5869140625	0.422607421875	lower	../fonts/amplitud.ttf
3382840	START	n/a	LTP251	ltpFR	7	n/a	n/a	n/a	n/a	n/a	n/a	n/a	n/a	n/a	n/a	n/a	n/a	n/a	n/a	n/a
3383944	PROB	n/a	LTP251	ltpFR	7	n/a	n/a	n/a	n/a	n/a	n/a	13	6	6	1	n/a	n/a	n/a	n/a	n/a
3385230	PROB	n/a	LTP251	ltpFR	7	n/a	n/a	n/a	n/a	n/a	n/a	12	1	7	4	n/a	n/a	n/a	n/a	n/a
3386835	PROB	n/a	LTP251	ltpFR	7	n/a	n/a	n/a	n/a	n/a	n/a	10	4	5	1	n/a	n/a	n/a	n/a	n/a
3390840	STOP	n/a	LTP251	ltpFR	7	n/a	n/a	n/a	n/a	n/a	n/a	n/a	n/a	n/a	n/a	n/a	n/a	n/a	n/a	n/a
3392728	REC_START	n/a	LTP251	ltpFR	7	12	n/a	n/a	n/a	n/a	n/a	n/a	0	0	0	n/a	n/a	n/a	n/a	n/a
3393750	REC_WORD	wordpools/wasnorm_wordpool_less_exclusions.txt	LTP251	ltpFR	7	12	0	KIDNEY	776	n/a	0	n/a	0	0	0	n/a	n/a	n/a	n/a	n/a
3394678	REC_WORD	wordpools/wasnorm_wordpool_less_exclusions.txt	LTP251	ltpFR	7	12	0	STRAW	1390	n/a	0	n/a	0	0	0	n/a	n/a	n/a	n/a	n/a
3395985	REC_WORD	wordpools/wasnorm_wordpool_less_exclusions.txt	LTP251	ltpFR	7	12	0	CANYON	235	n/a	1	n/a	0	0	0	n/a	n/a	n/a	n/a	n/a
3397028	REC_WORD	wordpools/wasnorm_wordpool_less_exclusions.txt	LTP251	ltpFR	7	12	0	SHORE	1291	n/a	1	n/a	0	0	0	n/a	n/a	n/a	n/a	n/a
3398180	REC_WORD	wordpools/wasnorm_wordpool_less_exclusions.txt	LTP251	ltpFR	7	12	0	FREEWAY	603	n/a	1	n/a	0	0	0	n/a	n/a	n/a	n/a	n/a
3399433	REC_WORD	wordpools/wasnorm_wordpool_less_exclusions.txt	LTP251	ltpFR	7	12	0	UNIVERSE	1540	n/a	1	n/a	0	0	0	n/a	n/a	n/a	n/a	n/a
3400735	REC_WORD	wordpools/wasnorm_wordpool_less_exclusions.txt	LTP251	ltpFR	7	12	0	RICE	1190	n/a	0	n/a	0	0	0	n/a	n/a	n/a	n/a	n/a
3401967	REC_WORD	wordpools/wasnorm_wordpool_less_exclusions.txt	LTP251	ltpFR	7	12	0	SAUSAGE	1238	n/a	0	n/a	0	0	0	n/a	n/a	n/a	n/a	n/a
3403573	REC_WORD	wordpools/wasnorm_wordpool_less_exclusions.txt	LTP251	ltpFR	7	12	0	BEAD	103	n/a	0	n/a	0	0	0	n/a	n/a	n/a	n/a	n/a
3424401	REC_WORD	wordpools/wasnorm_wordpool_less_exclusions.txt	LTP251	ltpFR	7	12	0	GOLD	647	n/a	0	n/a	0	0	0	n/a	n/a	n/a	n/a	n/a
3469902	START	n/a	LTP251	ltpFR	7	n/a	n/a	n/a	n/a	n/a	n/a	n/a	n/a	n/a	n/a	n/a	n/a	n/a	n/a	n/a
3471408	PROB	n/a	LTP251	ltpFR	7	n/a	n/a	n/a	n/a	n/a	n/a	14	1	7	6	n/a	n/a	n/a	n/a	n/a
3474047	PROB	n/a	LTP251	ltpFR	7	n/a	n/a	n/a	n/a	n/a	n/a	16	8	3	5	n/a	n/a	n/a	n/a	n/a
3475840	PROB	n/a	LTP251	ltpFR	7	n/a	n/a	n/a	n/a	n/a	n/a	14	6	6	2	n/a	n/a	n/a	n/a	n/a
3477227	PROB	n/a	LTP251	ltpFR	7	n/a	n/a	n/a	n/a	n/a	n/a	11	7	3	1	n/a	n/a	n/a	n/a	n/a
3478530	PROB	n/a	LTP251	ltpFR	7	n/a	n/a	n/a	n/a	n/a	n/a	17	1	8	8	n/a	n/a	n/a	n/a	n/a
3481395	PROB	n/a	LTP251	ltpFR	7	n/a	n/a	n/a	n/a	n/a	n/a	16	6	8	2	n/a	n/a	n/a	n/a	n/a
3485902	STOP	n/a	LTP251	ltpFR	7	n/a	n/a	n/a	n/a	n/a	n/a	n/a	n/a	n/a	n/a	n/a	n/a	n/a	n/a	n/a
3486848	WORD	wordpools/wasnorm_wordpool_less_exclusions.txt	LTP251	ltpFR	7	13	1	SHERIFF	1284	n/a	1	n/a	0	0	0	1	0.412841796875	0.57763671875	upper	../fonts/zerothre.ttf
3489860	START	n/a	LTP251	ltpFR	7	n/a	n/a	n/a	n/a	n/a	n/a	n/a	n/a	n/a	n/a	n/a	n/a	n/a	n/a	n/a
3490796	PROB	n/a	LTP251	ltpFR	7	n/a	n/a	n/a	n/a	n/a	n/a	13	2	6	5	n/a	n/a	n/a	n/a	n/a
3492918	PROB	n/a	LTP251	ltpFR	7	n/a	n/a	n/a	n/a	n/a	n/a	10	1	3	6	n/a	n/a	n/a	n/a	n/a
3494996	PROB	n/a	LTP251	ltpFR	7	n/a	n/a	n/a	n/a	n/a	n/a	9	1	1	7	n/a	n/a	n/a	n/a	n/a
3496652	PROB	n/a	LTP251	ltpFR	7	n/a	n/a	n/a	n/a	n/a	n/a	10	5	1	3	n/a	n/a	n/a	n/a	n/a
3498259	PROB	n/a	LTP251	ltpFR	7	n/a	n/a	n/a	n/a	n/a	n/a	22	9	8	6	n/a	n/a	n/a	n/a	n/a
3501404	PROB	n/a	LTP251	ltpFR	7	n/a	n/a	n/a	n/a	n/a	n/a	19	6	8	5	n/a	n/a	n/a	n/a	n/a
3504453	STOP	n/a	LTP251	ltpFR	7	n/a	n/a	n/a	n/a	n/a	n/a	n/a	n/a	n/a	n/a	n/a	n/a	n/a	n/a	n/a
3506924	WORD	wordpools/wasnorm_wordpool_less_exclusions.txt	LTP251	ltpFR	7	13	1	PATROL	1027	n/a	0	n/a	0	0	0	1	0.412841796875	0.57763671875	upper	../fonts/zerothre.ttf
3509936	START	n/a	LTP251	ltpFR	7	n/a	n/a	n/a	n/a	n/a	n/a	n/a	n/a	n/a	n/a	n/a	n/a	n/a	n/a	n/a
3511006	PROB	n/a	LTP251	ltpFR	7	n/a	n/a	n/a	n/a	n/a	n/a	12	5	3	4	n/a	n/a	n/a	n/a	n/a
3512609	PROB	n/a	LTP251	ltpFR	7	n/a	n/a	n/a	n/a	n/a	n/a	8	2	3	3	n/a	n/a	n/a	n/a	n/a
3515908	PROB	n/a	LTP251	ltpFR	7	n/a	n/a	n/a	n/a	n/a	n/a	20	7	7	6	n/a	n/a	n/a	n/a	n/a
3518114	PROB	n/a	LTP251	ltpFR	7	n/a	n/a	n/a	n/a	n/a	n/a	13	5	7	1	n/a	n/a	n/a	n/a	n/a
3521609	PROB	n/a	LTP251	ltpFR	7	n/a	n/a	n/a	n/a	n/a	n/a	16	2	9	5	n/a	n/a	n/a	n/a	n/a
3525936	STOP	n/a	LTP251	ltpFR	7	n/a	n/a	n/a	n/a	n/a	n/a	n/a	n/a	n/a	n/a	n/a	n/a	n/a	n/a	n/a
3527033	WORD	wordpools/wasnorm_wordpool_less_exclusions.txt	LTP251	ltpFR	7	13	1	GUARD	667	n/a	1	n/a	0	0	0	1	0.412841796875	0.57763671875	upper	../fonts/zerothre.ttf
3530045	START	n/a	LTP251	ltpFR	7	n/a	n/a	n/a	n/a	n/a	n/a	n/a	n/a	n/a	n/a	n/a	n/a	n/a	n/a	n/a
3530911	PROB	n/a	LTP251	ltpFR	7	n/a	n/a	n/a	n/a	n/a	n/a	22	5	8	9	n/a	n/a	n/a	n/a	n/a
3536216	PROB	n/a	LTP251	ltpFR	7	n/a	n/a	n/a	n/a	n/a	n/a	14	7	1	6	n/a	n/a	n/a	n/a	n/a
3537958	PROB	n/a	LTP251	ltpFR	7	n/a	n/a	n/a	n/a	n/a	n/a	24	8	9	7	n/a	n/a	n/a	n/a	n/a
3542155	PROB	n/a	LTP251	ltpFR	7	n/a	n/a	n/a	n/a	n/a	n/a	13	1	4	9	n/a	n/a	n/a	n/a	n/a
3544541	STOP	n/a	LTP251	ltpFR	7	n/a	n/a	n/a	n/a	n/a	n/a	n/a	n/a	n/a	n/a	n/a	n/a	n/a	n/a	n/a
3547109	WORD	wordpools/wasnorm_wordpool_less_exclusions.txt	LTP251	ltpFR	7	13	1	KEEPER	769	n/a	0	n/a	0	0	0	1	0.412841796875	0.57763671875	upper	../fonts/zerothre.ttf
3550122	START	n/a	LTP251	ltpFR	7	n/a	n/a	n/a	n/a	n/a	n/a	n/a	n/a	n/a	n/a	n/a	n/a	n/a	n/a	n/a
3551007	PROB	n/a	LTP251	ltpFR	7	n/a	n/a	n/a	n/a	n/a	n/a	18	9	8	1	n/a	n/a	n/a	n/a	n/a
3553547	PROB	n/a	LTP251	ltpFR	7	n/a	n/a	n/a	n/a	n/a	n/a	13	2	2	9	n/a	n/a	n/a	n/a	n/a
3555354	PROB	n/a	LTP251	ltpFR	7	n/a	n/a	n/a	n/a	n/a	n/a	12	5	4	3	n/a	n/a	n/a	n/a	n/a
3557096	PROB	n/a	LTP251	ltpFR	7	n/a	n/a	n/a	n/a	n/a	n/a	18	9	4	5	n/a	n/a	n/a	n/a	n/a
3559519	PROB	n/a	LTP251	ltpFR	7	n/a	n/a	n/a	n/a	n/a	n/a	8	1	6	1	n/a	n/a	n/a	n/a	n/a
3561041	PROB	n/a	LTP251	ltpFR	7	n/a	n/a	n/a	n/a	n/a	n/a	17	5	2	9	n/a	n/a	n/a	n/a	n/a
3563284	PROB	n/a	LTP251	ltpFR	7	n/a	n/a	n/a	n/a	n/a	n/a	5	2	1	2	n/a	n/a	n/a	n/a	n/a
3565350	STOP	n/a	LTP251	ltpFR	7	n/a	n/a	n/a	n/a	n/a	n/a	n/a	n/a	n/a	n/a	n/a	n/a	n/a	n/a	n/a
3567319	WORD	wordpools/wasnorm_wordpool_less_exclusions.txt	LTP251	ltpFR	7	13	1	BUS	201	n/a	0	n/a	0	0	0	1	0.412841796875	0.57763671875	upper	../fonts/zerothre.ttf
3570331	START	n/a	LTP251	ltpFR	7	n/a	n/a	n/a	n/a	n/a	n/a	n/a	n/a	n/a	n/a	n/a	n/a	n/a	n/a	n/a
3571351	PROB	n/a	LTP251	ltpFR	7	n/a	n/a	n/a	n/a	n/a	n/a	16	4	8	4	n/a	n/a	n/a	n/a	n/a
3573943	PROB	n/a	LTP251	ltpFR	7	n/a	n/a	n/a	n/a	n/a	n/a	8	4	1	3	n/a	n/a	n/a	n/a	n/a
3576136	PROB	n/a	LTP251	ltpFR	7	n/a	n/a	n/a	n/a	n/a	n/a	17	6	8	3	n/a	n/a	n/a	n/a	n/a
3578842	PROB	n/a	LTP251	ltpFR	7	n/a	n/a	n/a	n/a	n/a	n/a	10	2	7	1	n/a	n/a	n/a	n/a	n/a
3581435	PROB	n/a	LTP251	ltpFR	7	n/a	n/a	n/a	n/a	n/a	n/a	12	5	3	4	n/a	n/a	n/a	n/a	n/a
3583142	PROB	n/a	LTP251	ltpFR	7	n/a	n/a	n/a	n/a	n/a	n/a	22	8	7	7	n/a	n/a	n/a	n/a	n/a
3585805	STOP	n/a	LTP251	ltpFR	7	n/a	n/a	n/a	n/a	n/a	n/a	n/a	n/a	n/a	n/a	n/a	n/a	n/a	n/a	n/a
3587378	WORD	wordpools/wasnorm_wordpool_less_exclusions.txt	LTP251	ltpFR	7	13	1	ERASER	538	n/a	0	n/a	0	0	0	1	0.412841796875	0.57763671875	upper	../fonts/zerothre.ttf
3590390	START	n/a	LTP251	ltpFR	7	n/a	n/a	n/a	n/a	n/a	n/a	n/a	n/a	n/a	n/a	n/a	n/a	n/a	n/a	n/a
3591326	PROB	n/a	LTP251	ltpFR	7	n/a	n/a	n/a	n/a	n/a	n/a	12	1	8	3	n/a	n/a	n/a	n/a	n/a
3593430	PROB	n/a	LTP251	ltpFR	7	n/a	n/a	n/a	n/a	n/a	n/a	22	7	9	7	n/a	n/a	n/a	n/a	n/a
3600143	PROB	n/a	LTP251	ltpFR	7	n/a	n/a	n/a	n/a	n/a	n/a	13	8	1	5	n/a	n/a	n/a	n/a	n/a
3606390	STOP	n/a	LTP251	ltpFR	7	n/a	n/a	n/a	n/a	n/a	n/a	n/a	n/a	n/a	n/a	n/a	n/a	n/a	n/a	n/a
3607503	WORD	wordpools/wasnorm_wordpool_less_exclusions.txt	LTP251	ltpFR	7	13	1	DILL	465	n/a	0	n/a	0	0	0	1	0.412841796875	0.57763671875	upper	../fonts/zerothre.ttf
3610515	START	n/a	LTP251	ltpFR	7	n/a	n/a	n/a	n/a	n/a	n/a	n/a	n/a	n/a	n/a	n/a	n/a	n/a	n/a	n/a
3611602	PROB	n/a	LTP251	ltpFR	7	n/a	n/a	n/a	n/a	n/a	n/a	19	5	5	9	n/a	n/a	n/a	n/a	n/a
3613007	PROB	n/a	LTP251	ltpFR	7	n/a	n/a	n/a	n/a	n/a	n/a	16	2	8	6	n/a	n/a	n/a	n/a	n/a
3614945	PROB	n/a	LTP251	ltpFR	7	n/a	n/a	n/a	n/a	n/a	n/a	18	9	3	6	n/a	n/a	n/a	n/a	n/a
3617775	PROB	n/a	LTP251	ltpFR	7	n/a	n/a	n/a	n/a	n/a	n/a	23	8	9	6	n/a	n/a	n/a	n/a	n/a
3621336	PROB	n/a	LTP251	ltpFR	7	n/a	n/a	n/a	n/a	n/a	n/a	23	6	9	6	n/a	n/a	n/a	n/a	n/a
3623627	PROB	n/a	LTP251	ltpFR	7	n/a	n/a	n/a	n/a	n/a	n/a	14	3	7	4	n/a	n/a	n/a	n/a	n/a
3625350	STOP	n/a	LTP251	ltpFR	7	n/a	n/a	n/a	n/a	n/a	n/a	n/a	n/a	n/a	n/a	n/a	n/a	n/a	n/a	n/a
3627629	WORD	wordpools/wasnorm_wordpool_less_exclusions.txt	LTP251	ltpFR	7	13	1	BARLEY	88	n/a	0	n/a	0	0	0	1	0.412841796875	0.57763671875	upper	../fonts/zerothre.ttf
3630641	START	n/a	LTP251	ltpFR	7	n/a	n/a	n/a	n/a	n/a	n/a	n/a	n/a	n/a	n/a	n/a	n/a	n/a	n/a	n/a
3631845	PROB	n/a	LTP251	ltpFR	7	n/a	n/a	n/a	n/a	n/a	n/a	12	5	5	2	n/a	n/a	n/a	n/a	n/a
3633016	PROB	n/a	LTP251	ltpFR	7	n/a	n/a	n/a	n/a	n/a	n/a	20	4	7	9	n/a	n/a	n/a	n/a	n/a
3636509	PROB	n/a	LTP251	ltpFR	7	n/a	n/a	n/a	n/a	n/a	n/a	18	8	3	7	n/a	n/a	n/a	n/a	n/a
3637981	PROB	n/a	LTP251	ltpFR	7	n/a	n/a	n/a	n/a	n/a	n/a	17	7	3	7	n/a	n/a	n/a	n/a	n/a
3639939	PROB	n/a	LTP251	ltpFR	7	n/a	n/a	n/a	n/a	n/a	n/a	16	9	3	4	n/a	n/a	n/a	n/a	n/a
3643252	PROB	n/a	LTP251	ltpFR	7	n/a	n/a	n/a	n/a	n/a	n/a	12	4	8	2	n/a	n/a	n/a	n/a	n/a
3646641	STOP	n/a	LTP251	ltpFR	7	n/a	n/a	n/a	n/a	n/a	n/a	n/a	n/a	n/a	n/a	n/a	n/a	n/a	n/a	n/a
3647738	WORD	wordpools/wasnorm_wordpool_less_exclusions.txt	LTP251	ltpFR	7	13	1	OREGANO	983	n/a	1	n/a	0	0	0	1	0.412841796875	0.57763671875	upper	../fonts/zerothre.ttf
3650750	START	n/a	LTP251	ltpFR	7	n/a	n/a	n/a	n/a	n/a	n/a	n/a	n/a	n/a	n/a	n/a	n/a	n/a	n/a	n/a
3651736	PROB	n/a	LTP251	ltpFR	7	n/a	n/a	n/a	n/a	n/a	n/a	20	7	6	7	n/a	n/a	n/a	n/a	n/a
3653674	PROB	n/a	LTP251	ltpFR	7	n/a	n/a	n/a	n/a	n/a	n/a	20	4	9	7	n/a	n/a	n/a	n/a	n/a
3655718	PROB	n/a	LTP251	ltpFR	7	n/a	n/a	n/a	n/a	n/a	n/a	6	4	1	1	n/a	n/a	n/a	n/a	n/a
3657505	PROB	n/a	LTP251	ltpFR	7	n/a	n/a	n/a	n/a	n/a	n/a	19	6	7	6	n/a	n/a	n/a	n/a	n/a
3660132	PROB	n/a	LTP251	ltpFR	7	n/a	n/a	n/a	n/a	n/a	n/a	18	6	5	7	n/a	n/a	n/a	n/a	n/a
3661938	PROB	n/a	LTP251	ltpFR	7	n/a	n/a	n/a	n/a	n/a	n/a	9	2	2	5	n/a	n/a	n/a	n/a	n/a
3663244	PROB	n/a	LTP251	ltpFR	7	n/a	n/a	n/a	n/a	n/a	n/a	20	8	5	7	n/a	n/a	n/a	n/a	n/a
3666750	STOP	n/a	LTP251	ltpFR	7	n/a	n/a	n/a	n/a	n/a	n/a	n/a	n/a	n/a	n/a	n/a	n/a	n/a	n/a	n/a
3667613	WORD	wordpools/wasnorm_wordpool_less_exclusions.txt	LTP251	ltpFR	7	13	1	CABBAGE	210	n/a	1	n/a	0	0	0	1	0.412841796875	0.57763671875	upper	../fonts/zerothre.ttf
3670625	START	n/a	LTP251	ltpFR	7	n/a	n/a	n/a	n/a	n/a	n/a	n/a	n/a	n/a	n/a	n/a	n/a	n/a	n/a	n/a
3671795	PROB	n/a	LTP251	ltpFR	7	n/a	n/a	n/a	n/a	n/a	n/a	14	6	6	4	n/a	n/a	n/a	n/a	n/a
3673766	PROB	n/a	LTP251	ltpFR	7	n/a	n/a	n/a	n/a	n/a	n/a	19	6	4	9	n/a	n/a	n/a	n/a	n/a
3676008	PROB	n/a	LTP251	ltpFR	7	n/a	n/a	n/a	n/a	n/a	n/a	16	3	7	6	n/a	n/a	n/a	n/a	n/a
3677714	PROB	n/a	LTP251	ltpFR	7	n/a	n/a	n/a	n/a	n/a	n/a	17	8	1	8	n/a	n/a	n/a	n/a	n/a
3679923	PROB	n/a	LTP251	ltpFR	7	n/a	n/a	n/a	n/a	n/a	n/a	14	2	8	4	n/a	n/a	n/a	n/a	n/a
3682233	PROB	n/a	LTP251	ltpFR	7	n/a	n/a	n/a	n/a	n/a	n/a	9	4	4	1	n/a	n/a	n/a	n/a	n/a
3685238	STOP	n/a	LTP251	ltpFR	7	n/a	n/a	n/a	n/a	n/a	n/a	n/a	n/a	n/a	n/a	n/a	n/a	n/a	n/a	n/a
3687454	WORD	wordpools/wasnorm_wordpool_less_exclusions.txt	LTP251	ltpFR	7	13	1	REEF	1177	n/a	1	n/a	0	0	0	1	0.412841796875	0.57763671875	upper	../fonts/zerothre.ttf
3690466	START	n/a	LTP251	ltpFR	7	n/a	n/a	n/a	n/a	n/a	n/a	n/a	n/a	n/a	n/a	n/a	n/a	n/a	n/a	n/a
3691503	PROB	n/a	LTP251	ltpFR	7	n/a	n/a	n/a	n/a	n/a	n/a	17	6	3	8	n/a	n/a	n/a	n/a	n/a
3693658	PROB	n/a	LTP251	ltpFR	7	n/a	n/a	n/a	n/a	n/a	n/a	21	7	6	8	n/a	n/a	n/a	n/a	n/a
3695702	PROB	n/a	LTP251	ltpFR	7	n/a	n/a	n/a	n/a	n/a	n/a	21	4	9	8	n/a	n/a	n/a	n/a	n/a
3697609	PROB	n/a	LTP251	ltpFR	7	n/a	n/a	n/a	n/a	n/a	n/a	23	8	6	9	n/a	n/a	n/a	n/a	n/a
3703027	PROB	n/a	LTP251	ltpFR	7	n/a	n/a	n/a	n/a	n/a	n/a	20	8	8	4	n/a	n/a	n/a	n/a	n/a
3705957	STOP	n/a	LTP251	ltpFR	7	n/a	n/a	n/a	n/a	n/a	n/a	n/a	n/a	n/a	n/a	n/a	n/a	n/a	n/a	n/a
3707480	WORD	wordpools/wasnorm_wordpool_less_exclusions.txt	LTP251	ltpFR	7	13	1	PEN	1041	n/a	0	n/a	0	0	0	1	0.412841796875	0.57763671875	upper	../fonts/zerothre.ttf
3710492	START	n/a	LTP251	ltpFR	7	n/a	n/a	n/a	n/a	n/a	n/a	n/a	n/a	n/a	n/a	n/a	n/a	n/a	n/a	n/a
3711645	PROB	n/a	LTP251	ltpFR	7	n/a	n/a	n/a	n/a	n/a	n/a	11	2	5	4	n/a	n/a	n/a	n/a	n/a
3713350	PROB	n/a	LTP251	ltpFR	7	n/a	n/a	n/a	n/a	n/a	n/a	10	6	2	2	n/a	n/a	n/a	n/a	n/a
3715591	PROB	n/a	LTP251	ltpFR	7	n/a	n/a	n/a	n/a	n/a	n/a	13	3	8	2	n/a	n/a	n/a	n/a	n/a
3717615	PROB	n/a	LTP251	ltpFR	7	n/a	n/a	n/a	n/a	n/a	n/a	14	1	3	6	n/a	n/a	n/a	n/a	n/a
3719322	PROB	n/a	LTP251	ltpFR	7	n/a	n/a	n/a	n/a	n/a	n/a	12	1	4	7	n/a	n/a	n/a	n/a	n/a
3721449	PROB	n/a	LTP251	ltpFR	7	n/a	n/a	n/a	n/a	n/a	n/a	12	7	4	1	n/a	n/a	n/a	n/a	n/a
3722818	PROB	n/a	LTP251	ltpFR	7	n/a	n/a	n/a	n/a	n/a	n/a	7	1	5	1	n/a	n/a	n/a	n/a	n/a
3726492	STOP	n/a	LTP251	ltpFR	7	n/a	n/a	n/a	n/a	n/a	n/a	n/a	n/a	n/a	n/a	n/a	n/a	n/a	n/a	n/a
3727572	WORD	wordpools/wasnorm_wordpool_less_exclusions.txt	LTP251	ltpFR	7	13	1	CART	250	n/a	0	n/a	0	0	0	1	0.412841796875	0.57763671875	upper	../fonts/zerothre.ttf
3730584	START	n/a	LTP251	ltpFR	7	n/a	n/a	n/a	n/a	n/a	n/a	n/a	n/a	n/a	n/a	n/a	n/a	n/a	n/a	n/a
3731404	PROB	n/a	LTP251	ltpFR	7	n/a	n/a	n/a	n/a	n/a	n/a	18	8	4	6	n/a	n/a	n/a	n/a	n/a
3733525	PROB	n/a	LTP251	ltpFR	7	n/a	n/a	n/a	n/a	n/a	n/a	15	4	5	6	n/a	n/a	n/a	n/a	n/a
3736169	PROB	n/a	LTP251	ltpFR	7	n/a	n/a	n/a	n/a	n/a	n/a	2	5	9	9	n/a	n/a	n/a	n/a	n/a
3738527	PROB	n/a	LTP251	ltpFR	7	n/a	n/a	n/a	n/a	n/a	n/a	18	6	4	8	n/a	n/a	n/a	n/a	n/a
3740301	PROB	n/a	LTP251	ltpFR	7	n/a	n/a	n/a	n/a	n/a	n/a	22	9	7	7	n/a	n/a	n/a	n/a	n/a
3745589	STOP	n/a	LTP251	ltpFR	7	n/a	n/a	n/a	n/a	n/a	n/a	n/a	n/a	n/a	n/a	n/a	n/a	n/a	n/a	n/a
3747564	WORD	wordpools/wasnorm_wordpool_less_exclusions.txt	LTP251	ltpFR	7	13	1	VAN	1548	n/a	0	n/a	0	0	0	1	0.412841796875	0.57763671875	upper	../fonts/zerothre.ttf
3750576	START	n/a	LTP251	ltpFR	7	n/a	n/a	n/a	n/a	n/a	n/a	n/a	n/a	n/a	n/a	n/a	n/a	n/a	n/a	n/a
3751680	PROB	n/a	LTP251	ltpFR	7	n/a	n/a	n/a	n/a	n/a	n/a	11	7	9	6	n/a	n/a	n/a	n/a	n/a
3754321	PROB	n/a	LTP251	ltpFR	7	n/a	n/a	n/a	n/a	n/a	n/a	9	1	1	6	n/a	n/a	n/a	n/a	n/a
3756026	PROB	n/a	LTP251	ltpFR	7	n/a	n/a	n/a	n/a	n/a	n/a	9	3	3	4	n/a	n/a	n/a	n/a	n/a
3758653	PROB	n/a	LTP251	ltpFR	7	n/a	n/a	n/a	n/a	n/a	n/a	13	8	1	4	n/a	n/a	n/a	n/a	n/a
3761130	PROB	n/a	LTP251	ltpFR	7	n/a	n/a	n/a	n/a	n/a	n/a	6	1	2	3	n/a	n/a	n/a	n/a	n/a
3762484	PROB	n/a	LTP251	ltpFR	7	n/a	n/a	n/a	n/a	n/a	n/a	18	5	6	9	n/a	n/a	n/a	n/a	n/a
3766575	STOP	n/a	LTP251	ltpFR	7	n/a	n/a	n/a	n/a	n/a	n/a	n/a	n/a	n/a	n/a	n/a	n/a	n/a	n/a	n/a
3767807	WORD	wordpools/wasnorm_wordpool_less_exclusions.txt	LTP251	ltpFR	7	13	1	VICTOR	1563	n/a	1	n/a	0	0	0	1	0.412841796875	0.57763671875	upper	../fonts/zerothre.ttf
3770819	START	n/a	LTP251	ltpFR	7	n/a	n/a	n/a	n/a	n/a	n/a	n/a	n/a	n/a	n/a	n/a	n/a	n/a	n/a	n/a
3771705	PROB	n/a	LTP251	ltpFR	7	n/a	n/a	n/a	n/a	n/a	n/a	17	3	8	6	n/a	n/a	n/a	n/a	n/a
3774713	PROB	n/a	LTP251	ltpFR	7	n/a	n/a	n/a	n/a	n/a	n/a	13	4	4	5	n/a	n/a	n/a	n/a	n/a
