onset	duration	trial_type	sample	stim_file	subject	experiment	session	trial	task	item_name	item_num	recog_conf	resp	color_b	color_g	color_r	case	font
436.782	n/a	SESS_START	218391	n/a	LTP234	ltpFR	18	n/a	n/a	n/a	n/a	4	n/a	n/a	n/a	n/a	n/a	n/a
471.628	n/a	WORD	235814	wordpools/wasnorm_wordpool_less_exclusions.txt	LTP234	ltpFR	18	1	0	GUARD	667	n/a	1	1	0.412841796875	0.57763671875	lower	../fonts/zerothre.ttf
475.59	n/a	WORD	237795	wordpools/wasnorm_wordpool_less_exclusions.txt	LTP234	ltpFR	18	1	0	ACROBAT	4	n/a	1	1	0.412841796875	0.57763671875	lower	../fonts/zerothre.ttf
479.554	n/a	WORD	239777	wordpools/wasnorm_wordpool_less_exclusions.txt	LTP234	ltpFR	18	1	0	SPARROW	1347	n/a	0	1	0.412841796875	0.57763671875	lower	../fonts/zerothre.ttf
483.774	n/a	WORD	241887	wordpools/wasnorm_wordpool_less_exclusions.txt	LTP234	ltpFR	18	1	0	CORN	381	n/a	0	1	0.412841796875	0.57763671875	lower	../fonts/zerothre.ttf
487.604	n/a	WORD	243802	wordpools/wasnorm_wordpool_less_exclusions.txt	LTP234	ltpFR	18	1	1	PEBBLE	1035	n/a	0	0	0.5869140625	0.422607421875	upper	../fonts/amplitud.ttf
491.722	n/a	WORD	245861	wordpools/wasnorm_wordpool_less_exclusions.txt	LTP234	ltpFR	18	1	1	PERSONNEL	1053	n/a	1	0	0.5869140625	0.422607421875	upper	../fonts/amplitud.ttf
495.702	n/a	WORD	247851	wordpools/wasnorm_wordpool_less_exclusions.txt	LTP234	ltpFR	18	1	1	SCARF	1246	n/a	0	0	0.5869140625	0.422607421875	upper	../fonts/amplitud.ttf
499.718	n/a	WORD	249859	wordpools/wasnorm_wordpool_less_exclusions.txt	LTP234	ltpFR	18	1	1	FUR	615	n/a	0	0	0.5869140625	0.422607421875	upper	../fonts/amplitud.ttf
503.734	n/a	WORD	251867	wordpools/wasnorm_wordpool_less_exclusions.txt	LTP234	ltpFR	18	1	0	FEATHER	557	n/a	0	1	0.412841796875	0.57763671875	lower	../fonts/zerothre.ttf
507.932	n/a	WORD	253966	wordpools/wasnorm_wordpool_less_exclusions.txt	LTP234	ltpFR	18	1	0	TENT	1449	n/a	1	1	0.412841796875	0.57763671875	lower	../fonts/zerothre.ttf
511.764	n/a	WORD	255882	wordpools/wasnorm_wordpool_less_exclusions.txt	LTP234	ltpFR	18	1	1	APPLICATION	34	n/a	0	0	0.5869140625	0.422607421875	upper	../fonts/amplitud.ttf
515.864	n/a	WORD	257932	wordpools/wasnorm_wordpool_less_exclusions.txt	LTP234	ltpFR	18	1	1	GORILLA	650	n/a	1	0	0.5869140625	0.422607421875	upper	../fonts/amplitud.ttf
519.824	n/a	WORD	259912	wordpools/wasnorm_wordpool_less_exclusions.txt	LTP234	ltpFR	18	1	1	PRIMATE	1123	n/a	1	0	0.5869140625	0.422607421875	upper	../fonts/amplitud.ttf
524.01	n/a	WORD	262005	wordpools/wasnorm_wordpool_less_exclusions.txt	LTP234	ltpFR	18	1	1	EDITORIAL	517	n/a	0	0	0.5869140625	0.422607421875	upper	../fonts/amplitud.ttf
528.142	n/a	WORD	264071	wordpools/wasnorm_wordpool_less_exclusions.txt	LTP234	ltpFR	18	1	0	SHRUB	1299	n/a	1	1	0.412841796875	0.57763671875	lower	../fonts/zerothre.ttf
532.108	n/a	WORD	266054	wordpools/wasnorm_wordpool_less_exclusions.txt	LTP234	ltpFR	18	1	0	LUMBER	848	n/a	1	1	0.412841796875	0.57763671875	lower	../fonts/zerothre.ttf
537.948	n/a	REC_START	268974	n/a	LTP234	ltpFR	18	1	n/a	n/a	n/a	n/a	n/a	n/a	n/a	n/a	n/a	n/a
538.592	n/a	REC_WORD	269296	wordpools/wasnorm_wordpool_less_exclusions.txt	LTP234	ltpFR	18	1	0	LUMBER	848	n/a	1	n/a	n/a	n/a	n/a	n/a
539.242	n/a	REC_WORD	269621	wordpools/wasnorm_wordpool_less_exclusions.txt	LTP234	ltpFR	18	1	0	SHRUB	1299	n/a	1	n/a	n/a	n/a	n/a	n/a
544.842	n/a	REC_WORD	272421	wordpools/wasnorm_wordpool_less_exclusions.txt	LTP234	ltpFR	18	1	1	SCARF	1246	n/a	0	n/a	n/a	n/a	n/a	n/a
548.476	n/a	REC_WORD	274238	wordpools/wasnorm_wordpool_less_exclusions.txt	LTP234	ltpFR	18	1	1	PEBBLE	1035	n/a	0	n/a	n/a	n/a	n/a	n/a
550.766	n/a	REC_WORD	275383	wordpools/wasnorm_wordpool_less_exclusions.txt	LTP234	ltpFR	18	1	n/a	CORD	379	n/a	n/a	n/a	n/a	n/a	n/a	n/a
554.008	n/a	REC_WORD	277004	wordpools/wasnorm_wordpool_less_exclusions.txt	LTP234	ltpFR	18	1	0	SPARROW	1347	n/a	0	n/a	n/a	n/a	n/a	n/a
555.504	n/a	REC_WORD	277752	wordpools/wasnorm_wordpool_less_exclusions.txt	LTP234	ltpFR	18	1	0	ACROBAT	4	n/a	1	n/a	n/a	n/a	n/a	n/a
558.238	n/a	REC_WORD	279119	wordpools/wasnorm_wordpool_less_exclusions.txt	LTP234	ltpFR	18	1	0	GUARD	667	n/a	1	n/a	n/a	n/a	n/a	n/a
596.124	n/a	REC_WORD	298062	wordpools/wasnorm_wordpool_less_exclusions.txt	LTP234	ltpFR	18	1	1	PERSONNEL	1053	n/a	1	n/a	n/a	n/a	n/a	n/a
621.902	n/a	WORD	310951	wordpools/wasnorm_wordpool_less_exclusions.txt	LTP234	ltpFR	18	2	1	RIVER	1194	n/a	0	0	0.5869140625	0.422607421875	upper	../fonts/amplitud.ttf
625.984	n/a	WORD	312992	wordpools/wasnorm_wordpool_less_exclusions.txt	LTP234	ltpFR	18	2	1	TIDE	1465	n/a	0	0	0.5869140625	0.422607421875	upper	../fonts/amplitud.ttf
630.166	n/a	WORD	315083	wordpools/wasnorm_wordpool_less_exclusions.txt	LTP234	ltpFR	18	2	0	SEAFOOD	1260	n/a	0	1	0.412841796875	0.57763671875	lower	../fonts/zerothre.ttf
634.378	n/a	WORD	317189	wordpools/wasnorm_wordpool_less_exclusions.txt	LTP234	ltpFR	18	2	0	CREEK	404	n/a	1	1	0.412841796875	0.57763671875	lower	../fonts/zerothre.ttf
638.262	n/a	WORD	319131	wordpools/wasnorm_wordpool_less_exclusions.txt	LTP234	ltpFR	18	2	0	CHURCH	307	n/a	1	1	0.412841796875	0.57763671875	lower	../fonts/zerothre.ttf
642.412	n/a	WORD	321206	wordpools/wasnorm_wordpool_less_exclusions.txt	LTP234	ltpFR	18	2	0	GIRAFFE	636	n/a	1	1	0.412841796875	0.57763671875	lower	../fonts/zerothre.ttf
646.614	n/a	WORD	323307	wordpools/wasnorm_wordpool_less_exclusions.txt	LTP234	ltpFR	18	2	0	KITTEN	780	n/a	1	1	0.412841796875	0.57763671875	lower	../fonts/zerothre.ttf
650.578	n/a	WORD	325289	wordpools/wasnorm_wordpool_less_exclusions.txt	LTP234	ltpFR	18	2	1	MOUSE	925	n/a	0	0	0.5869140625	0.422607421875	upper	../fonts/amplitud.ttf
654.644	n/a	WORD	327322	wordpools/wasnorm_wordpool_less_exclusions.txt	LTP234	ltpFR	18	2	1	FRIAR	605	n/a	1	0	0.5869140625	0.422607421875	upper	../fonts/amplitud.ttf
658.474	n/a	WORD	329237	wordpools/wasnorm_wordpool_less_exclusions.txt	LTP234	ltpFR	18	2	0	GAZELLE	628	n/a	1	1	0.412841796875	0.57763671875	lower	../fonts/zerothre.ttf
662.642	n/a	WORD	331321	wordpools/wasnorm_wordpool_less_exclusions.txt	LTP234	ltpFR	18	2	0	CAGE	218	n/a	1	1	0.412841796875	0.57763671875	lower	../fonts/zerothre.ttf
666.756	n/a	WORD	333378	wordpools/wasnorm_wordpool_less_exclusions.txt	LTP234	ltpFR	18	2	0	CUP	424	n/a	2	1	0.412841796875	0.57763671875	lower	../fonts/zerothre.ttf
667.878	n/a	KEY_MSG	333939	n/a	LTP234	ltpFR	18	2	n/a	n/a	n/a	n/a	n/a	n/a	n/a	n/a	n/a	n/a
670.738	n/a	WORD	335369	wordpools/wasnorm_wordpool_less_exclusions.txt	LTP234	ltpFR	18	2	1	SUIT	1402	n/a	0	0	0.5869140625	0.422607421875	upper	../fonts/amplitud.ttf
674.568	n/a	WORD	337284	wordpools/wasnorm_wordpool_less_exclusions.txt	LTP234	ltpFR	18	2	1	PLANET	1082	n/a	0	0	0.5869140625	0.422607421875	upper	../fonts/amplitud.ttf
678.564	n/a	WORD	339282	wordpools/wasnorm_wordpool_less_exclusions.txt	LTP234	ltpFR	18	2	1	WRITER	1627	n/a	1	0	0.5869140625	0.422607421875	upper	../fonts/amplitud.ttf
682.466	n/a	WORD	341233	wordpools/wasnorm_wordpool_less_exclusions.txt	LTP234	ltpFR	18	2	1	FOLDER	588	n/a	0	0	0.5869140625	0.422607421875	upper	../fonts/amplitud.ttf
688.54	n/a	REC_START	344270	n/a	LTP234	ltpFR	18	2	n/a	n/a	n/a	n/a	n/a	n/a	n/a	n/a	n/a	n/a
688.624	n/a	REC_WORD	344312	wordpools/wasnorm_wordpool_less_exclusions.txt	LTP234	ltpFR	18	2	1	SUIT	1402	n/a	0	n/a	n/a	n/a	n/a	n/a
689.268	n/a	REC_WORD	344634	wordpools/wasnorm_wordpool_less_exclusions.txt	LTP234	ltpFR	18	2	1	PLANET	1082	n/a	0	n/a	n/a	n/a	n/a	n/a
689.732	n/a	REC_WORD	344866	wordpools/wasnorm_wordpool_less_exclusions.txt	LTP234	ltpFR	18	2	1	WRITER	1627	n/a	1	n/a	n/a	n/a	n/a	n/a
690.166	n/a	REC_WORD	345083	wordpools/wasnorm_wordpool_less_exclusions.txt	LTP234	ltpFR	18	2	1	FOLDER	588	n/a	0	n/a	n/a	n/a	n/a	n/a
691.492	n/a	REC_WORD	345746	wordpools/wasnorm_wordpool_less_exclusions.txt	LTP234	ltpFR	18	2	0	CUP	424	n/a	2	n/a	n/a	n/a	n/a	n/a
696.382	n/a	REC_WORD	348191	wordpools/wasnorm_wordpool_less_exclusions.txt	LTP234	ltpFR	18	2	1	RIVER	1194	n/a	0	n/a	n/a	n/a	n/a	n/a
697.224	n/a	REC_WORD	348612	wordpools/wasnorm_wordpool_less_exclusions.txt	LTP234	ltpFR	18	2	1	TIDE	1465	n/a	0	n/a	n/a	n/a	n/a	n/a
756.624	n/a	REC_WORD	378312	wordpools/wasnorm_wordpool_less_exclusions.txt	LTP234	ltpFR	18	2	0	CAGE	218	n/a	1	n/a	n/a	n/a	n/a	n/a
758.658	n/a	REC_WORD	379329	wordpools/wasnorm_wordpool_less_exclusions.txt	LTP234	ltpFR	18	2	0	KITTEN	780	n/a	1	n/a	n/a	n/a	n/a	n/a
771.038	n/a	WORD	385519	wordpools/wasnorm_wordpool_less_exclusions.txt	LTP234	ltpFR	18	3	0	BEAST	108	n/a	1	1	0.412841796875	0.57763671875	lower	../fonts/zerothre.ttf
775.238	n/a	WORD	387619	wordpools/wasnorm_wordpool_less_exclusions.txt	LTP234	ltpFR	18	3	0	PORCUPINE	1107	n/a	0	1	0.412841796875	0.57763671875	lower	../fonts/zerothre.ttf
779.086	n/a	WORD	389543	wordpools/wasnorm_wordpool_less_exclusions.txt	LTP234	ltpFR	18	3	0	SHORTCAKE	1292	n/a	0	1	0.412841796875	0.57763671875	lower	../fonts/zerothre.ttf
783.064	n/a	WORD	391532	wordpools/wasnorm_wordpool_less_exclusions.txt	LTP234	ltpFR	18	3	1	MEAT	883	n/a	0	0	0.5869140625	0.422607421875	upper	../fonts/amplitud.ttf
787.25	n/a	WORD	393625	wordpools/wasnorm_wordpool_less_exclusions.txt	LTP234	ltpFR	18	3	1	STAPLER	1372	n/a	0	0	0.5869140625	0.422607421875	upper	../fonts/amplitud.ttf
791.248	n/a	WORD	395624	wordpools/wasnorm_wordpool_less_exclusions.txt	LTP234	ltpFR	18	3	1	NERVE	944	n/a	0	0	0.5869140625	0.422607421875	upper	../fonts/amplitud.ttf
795.38	n/a	WORD	397690	wordpools/wasnorm_wordpool_less_exclusions.txt	LTP234	ltpFR	18	3	1	SENATOR	1268	n/a	1	0	0.5869140625	0.422607421875	upper	../fonts/amplitud.ttf
799.462	n/a	WORD	399731	wordpools/wasnorm_wordpool_less_exclusions.txt	LTP234	ltpFR	18	3	0	NEWSSTAND	949	n/a	1	1	0.412841796875	0.57763671875	lower	../fonts/zerothre.ttf
803.478	n/a	WORD	401739	wordpools/wasnorm_wordpool_less_exclusions.txt	LTP234	ltpFR	18	3	0	ESSAY	540	n/a	0	1	0.412841796875	0.57763671875	lower	../fonts/zerothre.ttf
807.694	n/a	WORD	403847	wordpools/wasnorm_wordpool_less_exclusions.txt	LTP234	ltpFR	18	3	0	RIB	1188	n/a	0	1	0.412841796875	0.57763671875	lower	../fonts/zerothre.ttf
811.694	n/a	WORD	405847	wordpools/wasnorm_wordpool_less_exclusions.txt	LTP234	ltpFR	18	3	1	KING	777	n/a	1	0	0.5869140625	0.422607421875	upper	../fonts/amplitud.ttf
815.772	n/a	WORD	407886	wordpools/wasnorm_wordpool_less_exclusions.txt	LTP234	ltpFR	18	3	1	TOMATO	1476	n/a	0	0	0.5869140625	0.422607421875	upper	../fonts/amplitud.ttf
819.808	n/a	WORD	409904	wordpools/wasnorm_wordpool_less_exclusions.txt	LTP234	ltpFR	18	3	1	COIN	343	n/a	0	0	0.5869140625	0.422607421875	upper	../fonts/amplitud.ttf
823.99	n/a	WORD	411995	wordpools/wasnorm_wordpool_less_exclusions.txt	LTP234	ltpFR	18	3	1	WALLET	1583	n/a	0	0	0.5869140625	0.422607421875	upper	../fonts/amplitud.ttf
827.988	n/a	WORD	413994	wordpools/wasnorm_wordpool_less_exclusions.txt	LTP234	ltpFR	18	3	0	TOURIST	1488	n/a	1	1	0.412841796875	0.57763671875	lower	../fonts/zerothre.ttf
832.188	n/a	WORD	416094	wordpools/wasnorm_wordpool_less_exclusions.txt	LTP234	ltpFR	18	3	0	PENNY	1045	n/a	0	1	0.412841796875	0.57763671875	lower	../fonts/zerothre.ttf
838.212	n/a	REC_START	419106	n/a	LTP234	ltpFR	18	3	n/a	n/a	n/a	n/a	n/a	n/a	n/a	n/a	n/a	n/a
838.556	n/a	REC_WORD	419278	wordpools/wasnorm_wordpool_less_exclusions.txt	LTP234	ltpFR	18	3	0	PENNY	1045	n/a	0	n/a	n/a	n/a	n/a	n/a
839.374	n/a	REC_WORD	419687	wordpools/wasnorm_wordpool_less_exclusions.txt	LTP234	ltpFR	18	3	1	TOMATO	1476	n/a	0	n/a	n/a	n/a	n/a	n/a
840.512	n/a	REC_WORD	420256	wordpools/wasnorm_wordpool_less_exclusions.txt	LTP234	ltpFR	18	3	1	WALLET	1583	n/a	0	n/a	n/a	n/a	n/a	n/a
842.766	n/a	REC_WORD	421383	wordpools/wasnorm_wordpool_less_exclusions.txt	LTP234	ltpFR	18	3	0	ESSAY	540	n/a	0	n/a	n/a	n/a	n/a	n/a
844.338	n/a	REC_WORD	422169	wordpools/wasnorm_wordpool_less_exclusions.txt	LTP234	ltpFR	18	3	0	PORCUPINE	1107	n/a	0	n/a	n/a	n/a	n/a	n/a
859.354	n/a	REC_WORD_VV	429677	wordpools/wasnorm_wordpool_less_exclusions.txt	LTP234	ltpFR	18	3	n/a	<>	-1	n/a	n/a	n/a	n/a	n/a	n/a	n/a
934.112	n/a	WORD	467056	wordpools/wasnorm_wordpool_less_exclusions.txt	LTP234	ltpFR	18	4	-1	COMB	351	n/a	-1	1	1.0	1.0	upper	../fonts/Verdana.ttf
938.144	n/a	WORD	469072	wordpools/wasnorm_wordpool_less_exclusions.txt	LTP234	ltpFR	18	4	-1	RIBBON	1189	n/a	-1	1	1.0	1.0	upper	../fonts/Verdana.ttf
942.092	n/a	WORD	471046	wordpools/wasnorm_wordpool_less_exclusions.txt	LTP234	ltpFR	18	4	-1	ASTRONAUT	51	n/a	-1	1	1.0	1.0	upper	../fonts/Verdana.ttf
946.14	n/a	WORD	473070	wordpools/wasnorm_wordpool_less_exclusions.txt	LTP234	ltpFR	18	4	-1	SPACE	1345	n/a	-1	1	1.0	1.0	upper	../fonts/Verdana.ttf
950.152	n/a	WORD	475076	wordpools/wasnorm_wordpool_less_exclusions.txt	LTP234	ltpFR	18	4	-1	ENCYCLOPEDIA	533	n/a	-1	1	1.0	1.0	upper	../fonts/Verdana.ttf
954.072	n/a	WORD	477036	wordpools/wasnorm_wordpool_less_exclusions.txt	LTP234	ltpFR	18	4	-1	ATOM	55	n/a	-1	1	1.0	1.0	upper	../fonts/Verdana.ttf
957.952	n/a	WORD	478976	wordpools/wasnorm_wordpool_less_exclusions.txt	LTP234	ltpFR	18	4	-1	DOUGH	489	n/a	-1	1	1.0	1.0	upper	../fonts/Verdana.ttf
961.98	n/a	WORD	480990	wordpools/wasnorm_wordpool_less_exclusions.txt	LTP234	ltpFR	18	4	-1	APRON	35	n/a	-1	1	1.0	1.0	upper	../fonts/Verdana.ttf
965.95	n/a	WORD	482975	wordpools/wasnorm_wordpool_less_exclusions.txt	LTP234	ltpFR	18	4	-1	SIDING	1304	n/a	-1	1	1.0	1.0	upper	../fonts/Verdana.ttf
970.146	n/a	WORD	485073	wordpools/wasnorm_wordpool_less_exclusions.txt	LTP234	ltpFR	18	4	-1	NEUTRON	947	n/a	-1	1	1.0	1.0	upper	../fonts/Verdana.ttf
974.03	n/a	WORD	487015	wordpools/wasnorm_wordpool_less_exclusions.txt	LTP234	ltpFR	18	4	-1	CROWN	415	n/a	-1	1	1.0	1.0	upper	../fonts/Verdana.ttf
978.008	n/a	WORD	489004	wordpools/wasnorm_wordpool_less_exclusions.txt	LTP234	ltpFR	18	4	-1	JACKET	747	n/a	-1	1	1.0	1.0	upper	../fonts/Verdana.ttf
981.978	n/a	WORD	490989	wordpools/wasnorm_wordpool_less_exclusions.txt	LTP234	ltpFR	18	4	-1	CRITIC	410	n/a	-1	1	1.0	1.0	upper	../fonts/Verdana.ttf
986.11	n/a	WORD	493055	wordpools/wasnorm_wordpool_less_exclusions.txt	LTP234	ltpFR	18	4	-1	NUCLEUS	961	n/a	-1	1	1.0	1.0	upper	../fonts/Verdana.ttf
990.092	n/a	WORD	495046	wordpools/wasnorm_wordpool_less_exclusions.txt	LTP234	ltpFR	18	4	-1	PRINCE	1124	n/a	-1	1	1.0	1.0	upper	../fonts/Verdana.ttf
993.956	n/a	WORD	496978	wordpools/wasnorm_wordpool_less_exclusions.txt	LTP234	ltpFR	18	4	-1	SHELTER	1282	n/a	-1	1	1.0	1.0	upper	../fonts/Verdana.ttf
999.746	n/a	REC_START	499873	n/a	LTP234	ltpFR	18	4	n/a	n/a	n/a	n/a	n/a	n/a	n/a	n/a	n/a	n/a
1000.484	n/a	REC_WORD	500242	wordpools/wasnorm_wordpool_less_exclusions.txt	LTP234	ltpFR	18	4	-1	ATOM	55	n/a	-1	n/a	n/a	n/a	n/a	n/a
1001.118	n/a	REC_WORD	500559	wordpools/wasnorm_wordpool_less_exclusions.txt	LTP234	ltpFR	18	4	-1	NUCLEUS	961	n/a	-1	n/a	n/a	n/a	n/a	n/a
1002.104	n/a	REC_WORD	501052	wordpools/wasnorm_wordpool_less_exclusions.txt	LTP234	ltpFR	18	4	-1	NEUTRON	947	n/a	-1	n/a	n/a	n/a	n/a	n/a
1004.132	n/a	REC_WORD	502066	wordpools/wasnorm_wordpool_less_exclusions.txt	LTP234	ltpFR	18	4	-1	COMB	351	n/a	-1	n/a	n/a	n/a	n/a	n/a
1004.74	n/a	REC_WORD	502370	wordpools/wasnorm_wordpool_less_exclusions.txt	LTP234	ltpFR	18	4	-1	RIBBON	1189	n/a	-1	n/a	n/a	n/a	n/a	n/a
1005.58	n/a	REC_WORD	502790	wordpools/wasnorm_wordpool_less_exclusions.txt	LTP234	ltpFR	18	4	-1	ASTRONAUT	51	n/a	-1	n/a	n/a	n/a	n/a	n/a
1006.242	n/a	REC_WORD	503121	wordpools/wasnorm_wordpool_less_exclusions.txt	LTP234	ltpFR	18	4	-1	SPACE	1345	n/a	-1	n/a	n/a	n/a	n/a	n/a
1009.43	n/a	REC_WORD	504715	wordpools/wasnorm_wordpool_less_exclusions.txt	LTP234	ltpFR	18	4	-1	SIDING	1304	n/a	-1	n/a	n/a	n/a	n/a	n/a
1010.488	n/a	REC_WORD	505244	wordpools/wasnorm_wordpool_less_exclusions.txt	LTP234	ltpFR	18	4	-1	SHELTER	1282	n/a	-1	n/a	n/a	n/a	n/a	n/a
1019.542	n/a	REC_WORD	509771	wordpools/wasnorm_wordpool_less_exclusions.txt	LTP234	ltpFR	18	4	-1	DOUGH	489	n/a	-1	n/a	n/a	n/a	n/a	n/a
1022.006	n/a	REC_WORD	511003	wordpools/wasnorm_wordpool_less_exclusions.txt	LTP234	ltpFR	18	4	-1	APRON	35	n/a	-1	n/a	n/a	n/a	n/a	n/a
1079.378	n/a	WORD	539689	wordpools/wasnorm_wordpool_less_exclusions.txt	LTP234	ltpFR	18	5	0	TAVERN	1437	n/a	1	1	0.412841796875	0.57763671875	lower	../fonts/zerothre.ttf
1083.448	n/a	WORD	541724	wordpools/wasnorm_wordpool_less_exclusions.txt	LTP234	ltpFR	18	5	0	SYRUP	1425	n/a	0	1	0.412841796875	0.57763671875	lower	../fonts/zerothre.ttf
1087.346	n/a	WORD	543673	wordpools/wasnorm_wordpool_less_exclusions.txt	LTP234	ltpFR	18	5	0	CARD	243	n/a	0	1	0.412841796875	0.57763671875	lower	../fonts/zerothre.ttf
1091.378	n/a	WORD	545689	wordpools/wasnorm_wordpool_less_exclusions.txt	LTP234	ltpFR	18	5	0	PIER	1063	n/a	1	1	0.412841796875	0.57763671875	lower	../fonts/zerothre.ttf
1095.306	n/a	WORD	547653	wordpools/wasnorm_wordpool_less_exclusions.txt	LTP234	ltpFR	18	5	0	PIRATE	1074	n/a	1	1	0.412841796875	0.57763671875	lower	../fonts/zerothre.ttf
1099.21	n/a	WORD	549605	wordpools/wasnorm_wordpool_less_exclusions.txt	LTP234	ltpFR	18	5	0	CUFF	423	n/a	0	1	0.412841796875	0.57763671875	lower	../fonts/zerothre.ttf
1103.108	n/a	WORD	551554	wordpools/wasnorm_wordpool_less_exclusions.txt	LTP234	ltpFR	18	5	0	WHEEL	1603	n/a	1	1	0.412841796875	0.57763671875	lower	../fonts/zerothre.ttf
1107.172	n/a	WORD	553586	wordpools/wasnorm_wordpool_less_exclusions.txt	LTP234	ltpFR	18	5	0	MECHANIC	884	n/a	1	1	0.412841796875	0.57763671875	lower	../fonts/zerothre.ttf
1111.284	n/a	WORD	555642	wordpools/wasnorm_wordpool_less_exclusions.txt	LTP234	ltpFR	18	5	0	HIGHWAY	707	n/a	1	1	0.412841796875	0.57763671875	lower	../fonts/zerothre.ttf
1115.486	n/a	WORD	557743	wordpools/wasnorm_wordpool_less_exclusions.txt	LTP234	ltpFR	18	5	0	BANJO	82	n/a	1	1	0.412841796875	0.57763671875	lower	../fonts/zerothre.ttf
1119.602	n/a	WORD	559801	wordpools/wasnorm_wordpool_less_exclusions.txt	LTP234	ltpFR	18	5	0	OPERA	978	n/a	1	1	0.412841796875	0.57763671875	lower	../fonts/zerothre.ttf
1123.67	n/a	WORD	561835	wordpools/wasnorm_wordpool_less_exclusions.txt	LTP234	ltpFR	18	5	0	BRIEFCASE	175	n/a	1	1	0.412841796875	0.57763671875	lower	../fonts/zerothre.ttf
1127.618	n/a	WORD	563809	wordpools/wasnorm_wordpool_less_exclusions.txt	LTP234	ltpFR	18	5	0	FIDDLE	561	n/a	0	1	0.412841796875	0.57763671875	lower	../fonts/zerothre.ttf
1131.616	n/a	WORD	565808	wordpools/wasnorm_wordpool_less_exclusions.txt	LTP234	ltpFR	18	5	0	DOCUMENT	479	n/a	0	1	0.412841796875	0.57763671875	lower	../fonts/zerothre.ttf
1135.764	n/a	WORD	567882	wordpools/wasnorm_wordpool_less_exclusions.txt	LTP234	ltpFR	18	5	0	TYPEWRITER	1531	n/a	1	1	0.412841796875	0.57763671875	lower	../fonts/zerothre.ttf
1139.596	n/a	WORD	569798	wordpools/wasnorm_wordpool_less_exclusions.txt	LTP234	ltpFR	18	5	0	FLUTE	585	n/a	0	1	0.412841796875	0.57763671875	lower	../fonts/zerothre.ttf
1145.502	n/a	REC_START	572751	n/a	LTP234	ltpFR	18	5	n/a	n/a	n/a	n/a	n/a	n/a	n/a	n/a	n/a	n/a
1145.508	n/a	REC_WORD	572754	wordpools/wasnorm_wordpool_less_exclusions.txt	LTP234	ltpFR	18	5	0	FLUTE	585	n/a	0	n/a	n/a	n/a	n/a	n/a
1145.916	n/a	REC_WORD	572958	wordpools/wasnorm_wordpool_less_exclusions.txt	LTP234	ltpFR	18	5	0	DOCUMENT	479	n/a	0	n/a	n/a	n/a	n/a	n/a
1146.32	n/a	REC_WORD	573160	wordpools/wasnorm_wordpool_less_exclusions.txt	LTP234	ltpFR	18	5	0	MECHANIC	884	n/a	1	n/a	n/a	n/a	n/a	n/a
1146.96	n/a	REC_WORD	573480	wordpools/wasnorm_wordpool_less_exclusions.txt	LTP234	ltpFR	18	5	0	HIGHWAY	707	n/a	1	n/a	n/a	n/a	n/a	n/a
1154.986	n/a	REC_WORD	577493	wordpools/wasnorm_wordpool_less_exclusions.txt	LTP234	ltpFR	18	5	0	TAVERN	1437	n/a	1	n/a	n/a	n/a	n/a	n/a
1235.078	n/a	WORD	617539	wordpools/wasnorm_wordpool_less_exclusions.txt	LTP234	ltpFR	18	6	0	PORT	1110	n/a	1	1	0.412841796875	0.57763671875	lower	../fonts/zerothre.ttf
1239.228	n/a	WORD	619614	wordpools/wasnorm_wordpool_less_exclusions.txt	LTP234	ltpFR	18	6	0	ISLAND	745	n/a	1	1	0.412841796875	0.57763671875	lower	../fonts/zerothre.ttf
1243.292	n/a	WORD	621646	wordpools/wasnorm_wordpool_less_exclusions.txt	LTP234	ltpFR	18	6	0	RADIO	1157	n/a	0	1	0.412841796875	0.57763671875	lower	../fonts/zerothre.ttf
1247.258	n/a	WORD	623629	wordpools/wasnorm_wordpool_less_exclusions.txt	LTP234	ltpFR	18	6	0	HARP	689	n/a	1	1	0.412841796875	0.57763671875	lower	../fonts/zerothre.ttf
1251.302	n/a	WORD	625651	wordpools/wasnorm_wordpool_less_exclusions.txt	LTP234	ltpFR	18	6	0	BROTHER	179	n/a	1	1	0.412841796875	0.57763671875	lower	../fonts/zerothre.ttf
1255.156	n/a	WORD	627578	wordpools/wasnorm_wordpool_less_exclusions.txt	LTP234	ltpFR	18	6	0	STREAM	1392	n/a	1	1	0.412841796875	0.57763671875	lower	../fonts/zerothre.ttf
1259.27	n/a	WORD	629635	wordpools/wasnorm_wordpool_less_exclusions.txt	LTP234	ltpFR	18	6	0	KNEE	784	n/a	0	1	0.412841796875	0.57763671875	lower	../fonts/zerothre.ttf
1263.148	n/a	WORD	631574	wordpools/wasnorm_wordpool_less_exclusions.txt	LTP234	ltpFR	18	6	0	PAPER	1011	n/a	0	1	0.412841796875	0.57763671875	lower	../fonts/zerothre.ttf
1267.134	n/a	WORD	633567	wordpools/wasnorm_wordpool_less_exclusions.txt	LTP234	ltpFR	18	6	0	BAKER	71	n/a	1	1	0.412841796875	0.57763671875	lower	../fonts/zerothre.ttf
1271.2	n/a	WORD	635600	wordpools/wasnorm_wordpool_less_exclusions.txt	LTP234	ltpFR	18	6	0	BOAT	144	n/a	1	1	0.412841796875	0.57763671875	lower	../fonts/zerothre.ttf
1275.364	n/a	WORD	637682	wordpools/wasnorm_wordpool_less_exclusions.txt	LTP234	ltpFR	18	6	0	WAREHOUSE	1588	n/a	1	1	0.412841796875	0.57763671875	lower	../fonts/zerothre.ttf
1279.28	n/a	WORD	639640	wordpools/wasnorm_wordpool_less_exclusions.txt	LTP234	ltpFR	18	6	0	LOAF	835	n/a	0	1	0.412841796875	0.57763671875	lower	../fonts/zerothre.ttf
1283.312	n/a	WORD	641656	wordpools/wasnorm_wordpool_less_exclusions.txt	LTP234	ltpFR	18	6	0	BRANCH	168	n/a	1	1	0.412841796875	0.57763671875	lower	../fonts/zerothre.ttf
1287.36	n/a	WORD	643680	wordpools/wasnorm_wordpool_less_exclusions.txt	LTP234	ltpFR	18	6	0	SHIRT	1287	n/a	0	1	0.412841796875	0.57763671875	lower	../fonts/zerothre.ttf
1291.46	n/a	WORD	645730	wordpools/wasnorm_wordpool_less_exclusions.txt	LTP234	ltpFR	18	6	0	SHORTS	1293	n/a	0	1	0.412841796875	0.57763671875	lower	../fonts/zerothre.ttf
1295.642	n/a	WORD	647821	wordpools/wasnorm_wordpool_less_exclusions.txt	LTP234	ltpFR	18	6	0	LIMB	822	n/a	0	1	0.412841796875	0.57763671875	lower	../fonts/zerothre.ttf
1301.364	n/a	REC_START	650682	n/a	LTP234	ltpFR	18	6	n/a	n/a	n/a	n/a	n/a	n/a	n/a	n/a	n/a	n/a
1301.37	n/a	REC_WORD	650685	wordpools/wasnorm_wordpool_less_exclusions.txt	LTP234	ltpFR	18	6	0	SHORTS	1293	n/a	0	n/a	n/a	n/a	n/a	n/a
1302.048	n/a	REC_WORD	651024	wordpools/wasnorm_wordpool_less_exclusions.txt	LTP234	ltpFR	18	6	0	LIMB	822	n/a	0	n/a	n/a	n/a	n/a	n/a
1302.736	n/a	REC_WORD	651368	wordpools/wasnorm_wordpool_less_exclusions.txt	LTP234	ltpFR	18	6	0	HARP	689	n/a	1	n/a	n/a	n/a	n/a	n/a
1303.434	n/a	REC_WORD	651717	wordpools/wasnorm_wordpool_less_exclusions.txt	LTP234	ltpFR	18	6	0	RADIO	1157	n/a	0	n/a	n/a	n/a	n/a	n/a
1304.048	n/a	REC_WORD	652024	wordpools/wasnorm_wordpool_less_exclusions.txt	LTP234	ltpFR	18	6	0	LOAF	835	n/a	0	n/a	n/a	n/a	n/a	n/a
1311.418	n/a	REC_WORD	655709	wordpools/wasnorm_wordpool_less_exclusions.txt	LTP234	ltpFR	18	6	0	BAKER	71	n/a	1	n/a	n/a	n/a	n/a	n/a
1321.47	n/a	REC_WORD	660735	wordpools/wasnorm_wordpool_less_exclusions.txt	LTP234	ltpFR	18	6	0	BROTHER	179	n/a	1	n/a	n/a	n/a	n/a	n/a
1392.044	n/a	WORD	696022	wordpools/wasnorm_wordpool_less_exclusions.txt	LTP234	ltpFR	18	7	1	INSTRUCTOR	741	n/a	1	0	0.5869140625	0.422607421875	upper	../fonts/amplitud.ttf
1396.026	n/a	WORD	698013	wordpools/wasnorm_wordpool_less_exclusions.txt	LTP234	ltpFR	18	7	1	PILLOW	1069	n/a	0	0	0.5869140625	0.422607421875	upper	../fonts/amplitud.ttf
1400.226	n/a	WORD	700113	wordpools/wasnorm_wordpool_less_exclusions.txt	LTP234	ltpFR	18	7	1	CORPORATION	382	n/a	0	0	0.5869140625	0.422607421875	upper	../fonts/amplitud.ttf
1404.392	n/a	WORD	702196	wordpools/wasnorm_wordpool_less_exclusions.txt	LTP234	ltpFR	18	7	1	CONTRACT	368	n/a	0	0	0.5869140625	0.422607421875	upper	../fonts/amplitud.ttf
1408.22	n/a	WORD	704110	wordpools/wasnorm_wordpool_less_exclusions.txt	LTP234	ltpFR	18	7	1	BANQUET	86	n/a	0	0	0.5869140625	0.422607421875	upper	../fonts/amplitud.ttf
1412.218	n/a	WORD	706109	wordpools/wasnorm_wordpool_less_exclusions.txt	LTP234	ltpFR	18	7	1	GRILL	661	n/a	0	0	0.5869140625	0.422607421875	upper	../fonts/amplitud.ttf
1416.086	n/a	WORD	708043	wordpools/wasnorm_wordpool_less_exclusions.txt	LTP234	ltpFR	18	7	1	MOB	904	n/a	1	0	0.5869140625	0.422607421875	upper	../fonts/amplitud.ttf
1420.184	n/a	WORD	710092	wordpools/wasnorm_wordpool_less_exclusions.txt	LTP234	ltpFR	18	7	1	RICE	1190	n/a	0	0	0.5869140625	0.422607421875	upper	../fonts/amplitud.ttf
1424.346	n/a	WORD	712173	wordpools/wasnorm_wordpool_less_exclusions.txt	LTP234	ltpFR	18	7	1	MOTH	920	n/a	1	0	0.5869140625	0.422607421875	upper	../fonts/amplitud.ttf
1428.196	n/a	WORD	714098	wordpools/wasnorm_wordpool_less_exclusions.txt	LTP234	ltpFR	18	7	1	NOMAD	955	n/a	0	0	0.5869140625	0.422607421875	upper	../fonts/amplitud.ttf
1432.364	n/a	WORD	716182	wordpools/wasnorm_wordpool_less_exclusions.txt	LTP234	ltpFR	18	7	1	LOFT	840	n/a	0	0	0.5869140625	0.422607421875	upper	../fonts/amplitud.ttf
1436.326	n/a	WORD	718163	wordpools/wasnorm_wordpool_less_exclusions.txt	LTP234	ltpFR	18	7	1	ANT	25	n/a	1	0	0.5869140625	0.422607421875	upper	../fonts/amplitud.ttf
1440.374	n/a	WORD	720187	wordpools/wasnorm_wordpool_less_exclusions.txt	LTP234	ltpFR	18	7	1	ATHLETE	52	n/a	1	0	0.5869140625	0.422607421875	upper	../fonts/amplitud.ttf
1444.428	n/a	WORD	722214	wordpools/wasnorm_wordpool_less_exclusions.txt	LTP234	ltpFR	18	7	1	FOOTBALL	591	n/a	0	0	0.5869140625	0.422607421875	upper	../fonts/amplitud.ttf
1448.392	n/a	WORD	724196	wordpools/wasnorm_wordpool_less_exclusions.txt	LTP234	ltpFR	18	7	1	COURSE	390	n/a	0	0	0.5869140625	0.422607421875	upper	../fonts/amplitud.ttf
1452.508	n/a	WORD	726254	wordpools/wasnorm_wordpool_less_exclusions.txt	LTP234	ltpFR	18	7	1	CURTAIN	427	n/a	0	0	0.5869140625	0.422607421875	upper	../fonts/amplitud.ttf
1458.464	n/a	REC_START	729232	n/a	LTP234	ltpFR	18	7	n/a	n/a	n/a	n/a	n/a	n/a	n/a	n/a	n/a	n/a
1458.858	n/a	REC_WORD	729429	wordpools/wasnorm_wordpool_less_exclusions.txt	LTP234	ltpFR	18	7	1	CORPORATION	382	n/a	0	n/a	n/a	n/a	n/a	n/a
1459.792	n/a	REC_WORD	729896	wordpools/wasnorm_wordpool_less_exclusions.txt	LTP234	ltpFR	18	7	1	CONTRACT	368	n/a	0	n/a	n/a	n/a	n/a	n/a
1462.062	n/a	REC_WORD	731031	wordpools/wasnorm_wordpool_less_exclusions.txt	LTP234	ltpFR	18	7	1	BANQUET	86	n/a	0	n/a	n/a	n/a	n/a	n/a
1465.144	n/a	REC_WORD	732572	wordpools/wasnorm_wordpool_less_exclusions.txt	LTP234	ltpFR	18	7	1	MOB	904	n/a	1	n/a	n/a	n/a	n/a	n/a
1466.846	n/a	REC_WORD	733423	wordpools/wasnorm_wordpool_less_exclusions.txt	LTP234	ltpFR	18	7	1	MOTH	920	n/a	1	n/a	n/a	n/a	n/a	n/a
1467.984	n/a	REC_WORD	733992	wordpools/wasnorm_wordpool_less_exclusions.txt	LTP234	ltpFR	18	7	1	RICE	1190	n/a	0	n/a	n/a	n/a	n/a	n/a
1469.94	n/a	REC_WORD	734970	wordpools/wasnorm_wordpool_less_exclusions.txt	LTP234	ltpFR	18	7	1	LOFT	840	n/a	0	n/a	n/a	n/a	n/a	n/a
1472.772	n/a	REC_WORD	736386	wordpools/wasnorm_wordpool_less_exclusions.txt	LTP234	ltpFR	18	7	1	NOMAD	955	n/a	0	n/a	n/a	n/a	n/a	n/a
1474.598	n/a	REC_WORD	737299	wordpools/wasnorm_wordpool_less_exclusions.txt	LTP234	ltpFR	18	7	1	ANT	25	n/a	1	n/a	n/a	n/a	n/a	n/a
1475.746	n/a	REC_WORD	737873	wordpools/wasnorm_wordpool_less_exclusions.txt	LTP234	ltpFR	18	7	1	ATHLETE	52	n/a	1	n/a	n/a	n/a	n/a	n/a
1476.792	n/a	REC_WORD	738396	wordpools/wasnorm_wordpool_less_exclusions.txt	LTP234	ltpFR	18	7	1	FOOTBALL	591	n/a	0	n/a	n/a	n/a	n/a	n/a
1477.926	n/a	REC_WORD	738963	wordpools/wasnorm_wordpool_less_exclusions.txt	LTP234	ltpFR	18	7	1	COURSE	390	n/a	0	n/a	n/a	n/a	n/a	n/a
1479.758	n/a	REC_WORD	739879	wordpools/wasnorm_wordpool_less_exclusions.txt	LTP234	ltpFR	18	7	1	CURTAIN	427	n/a	0	n/a	n/a	n/a	n/a	n/a
1537.482	n/a	WORD	768741	wordpools/wasnorm_wordpool_less_exclusions.txt	LTP234	ltpFR	18	8	-1	COLT	349	n/a	-1	1	1.0	1.0	upper	../fonts/Verdana.ttf
1541.528	n/a	WORD	770764	wordpools/wasnorm_wordpool_less_exclusions.txt	LTP234	ltpFR	18	8	-1	CLOSET	326	n/a	-1	1	1.0	1.0	upper	../fonts/Verdana.ttf
1545.614	n/a	WORD	772807	wordpools/wasnorm_wordpool_less_exclusions.txt	LTP234	ltpFR	18	8	-1	GOVERNOR	651	n/a	-1	1	1.0	1.0	upper	../fonts/Verdana.ttf
1549.676	n/a	WORD	774838	wordpools/wasnorm_wordpool_less_exclusions.txt	LTP234	ltpFR	18	8	-1	CAPITAL	238	n/a	-1	1	1.0	1.0	upper	../fonts/Verdana.ttf
1553.712	n/a	WORD	776856	wordpools/wasnorm_wordpool_less_exclusions.txt	LTP234	ltpFR	18	8	-1	SPOON	1357	n/a	-1	1	1.0	1.0	upper	../fonts/Verdana.ttf
1557.678	n/a	WORD	778839	wordpools/wasnorm_wordpool_less_exclusions.txt	LTP234	ltpFR	18	8	-1	WHIP	1604	n/a	-1	1	1.0	1.0	upper	../fonts/Verdana.ttf
1561.71	n/a	WORD	780855	wordpools/wasnorm_wordpool_less_exclusions.txt	LTP234	ltpFR	18	8	-1	DONOR	485	n/a	-1	1	1.0	1.0	upper	../fonts/Verdana.ttf
1565.674	n/a	WORD	782837	wordpools/wasnorm_wordpool_less_exclusions.txt	LTP234	ltpFR	18	8	-1	UNICORN	1538	n/a	-1	1	1.0	1.0	upper	../fonts/Verdana.ttf
1569.874	n/a	WORD	784937	wordpools/wasnorm_wordpool_less_exclusions.txt	LTP234	ltpFR	18	8	-1	FAIRY	549	n/a	-1	1	1.0	1.0	upper	../fonts/Verdana.ttf
1574.07	n/a	WORD	787035	wordpools/wasnorm_wordpool_less_exclusions.txt	LTP234	ltpFR	18	8	-1	TAG	1429	n/a	-1	1	1.0	1.0	upper	../fonts/Verdana.ttf
1577.922	n/a	WORD	788961	wordpools/wasnorm_wordpool_less_exclusions.txt	LTP234	ltpFR	18	8	-1	SEAL	1262	n/a	-1	1	1.0	1.0	upper	../fonts/Verdana.ttf
1582.02	n/a	WORD	791010	wordpools/wasnorm_wordpool_less_exclusions.txt	LTP234	ltpFR	18	8	-1	FREEWAY	603	n/a	-1	1	1.0	1.0	upper	../fonts/Verdana.ttf
1585.852	n/a	WORD	792926	wordpools/wasnorm_wordpool_less_exclusions.txt	LTP234	ltpFR	18	8	-1	DRIVER	499	n/a	-1	1	1.0	1.0	upper	../fonts/Verdana.ttf
1589.75	n/a	WORD	794875	wordpools/wasnorm_wordpool_less_exclusions.txt	LTP234	ltpFR	18	8	-1	ELF	525	n/a	-1	1	1.0	1.0	upper	../fonts/Verdana.ttf
1593.748	n/a	WORD	796874	wordpools/wasnorm_wordpool_less_exclusions.txt	LTP234	ltpFR	18	8	-1	BARLEY	88	n/a	-1	1	1.0	1.0	upper	../fonts/Verdana.ttf
1597.814	n/a	WORD	798907	wordpools/wasnorm_wordpool_less_exclusions.txt	LTP234	ltpFR	18	8	-1	DISH	474	n/a	-1	1	1.0	1.0	upper	../fonts/Verdana.ttf
1603.738	n/a	REC_START	801869	n/a	LTP234	ltpFR	18	8	n/a	n/a	n/a	n/a	n/a	n/a	n/a	n/a	n/a	n/a
1605.168	n/a	REC_WORD	802584	wordpools/wasnorm_wordpool_less_exclusions.txt	LTP234	ltpFR	18	8	-1	COLT	349	n/a	-1	n/a	n/a	n/a	n/a	n/a
1605.952	n/a	REC_WORD	802976	wordpools/wasnorm_wordpool_less_exclusions.txt	LTP234	ltpFR	18	8	-1	CLOSET	326	n/a	-1	n/a	n/a	n/a	n/a	n/a
1606.886	n/a	REC_WORD	803443	wordpools/wasnorm_wordpool_less_exclusions.txt	LTP234	ltpFR	18	8	-1	GOVERNOR	651	n/a	-1	n/a	n/a	n/a	n/a	n/a
1607.674	n/a	REC_WORD	803837	wordpools/wasnorm_wordpool_less_exclusions.txt	LTP234	ltpFR	18	8	-1	CAPITAL	238	n/a	-1	n/a	n/a	n/a	n/a	n/a
1608.466	n/a	REC_WORD	804233	wordpools/wasnorm_wordpool_less_exclusions.txt	LTP234	ltpFR	18	8	-1	SPOON	1357	n/a	-1	n/a	n/a	n/a	n/a	n/a
1626.392	n/a	REC_WORD	813196	wordpools/wasnorm_wordpool_less_exclusions.txt	LTP234	ltpFR	18	8	-1	ELF	525	n/a	-1	n/a	n/a	n/a	n/a	n/a
1628.158	n/a	REC_WORD	814079	wordpools/wasnorm_wordpool_less_exclusions.txt	LTP234	ltpFR	18	8	-1	BARLEY	88	n/a	-1	n/a	n/a	n/a	n/a	n/a
1628.976	n/a	REC_WORD	814488	wordpools/wasnorm_wordpool_less_exclusions.txt	LTP234	ltpFR	18	8	-1	DISH	474	n/a	-1	n/a	n/a	n/a	n/a	n/a
1629.6	n/a	REC_WORD	814800	wordpools/wasnorm_wordpool_less_exclusions.txt	LTP234	ltpFR	18	8	-1	FREEWAY	603	n/a	-1	n/a	n/a	n/a	n/a	n/a
1632.294	n/a	REC_WORD	816147	wordpools/wasnorm_wordpool_less_exclusions.txt	LTP234	ltpFR	18	8	-1	DRIVER	499	n/a	-1	n/a	n/a	n/a	n/a	n/a
1638.306	n/a	REC_WORD	819153	wordpools/wasnorm_wordpool_less_exclusions.txt	LTP234	ltpFR	18	8	-1	UNICORN	1538	n/a	-1	n/a	n/a	n/a	n/a	n/a
1639.238	n/a	REC_WORD	819619	wordpools/wasnorm_wordpool_less_exclusions.txt	LTP234	ltpFR	18	8	-1	FAIRY	549	n/a	-1	n/a	n/a	n/a	n/a	n/a
1640.52	n/a	REC_WORD	820260	wordpools/wasnorm_wordpool_less_exclusions.txt	LTP234	ltpFR	18	8	-1	TAG	1429	n/a	-1	n/a	n/a	n/a	n/a	n/a
1641.224	n/a	REC_WORD	820612	wordpools/wasnorm_wordpool_less_exclusions.txt	LTP234	ltpFR	18	8	-1	SEAL	1262	n/a	-1	n/a	n/a	n/a	n/a	n/a
1670.03	n/a	REC_WORD	835015	wordpools/wasnorm_wordpool_less_exclusions.txt	LTP234	ltpFR	18	8	-1	WHIP	1604	n/a	-1	n/a	n/a	n/a	n/a	n/a
1692.928	n/a	WORD	846464	wordpools/wasnorm_wordpool_less_exclusions.txt	LTP234	ltpFR	18	9	1	QUAIL	1147	n/a	1	0	0.5869140625	0.422607421875	upper	../fonts/amplitud.ttf
1697.01	n/a	WORD	848505	wordpools/wasnorm_wordpool_less_exclusions.txt	LTP234	ltpFR	18	9	1	KANGAROO	768	n/a	1	0	0.5869140625	0.422607421875	upper	../fonts/amplitud.ttf
1701.222	n/a	WORD	850611	wordpools/wasnorm_wordpool_less_exclusions.txt	LTP234	ltpFR	18	9	0	MOWER	928	n/a	1	1	0.412841796875	0.57763671875	lower	../fonts/zerothre.ttf
1705.254	n/a	WORD	852627	wordpools/wasnorm_wordpool_less_exclusions.txt	LTP234	ltpFR	18	9	0	TRACTOR	1493	n/a	1	1	0.412841796875	0.57763671875	lower	../fonts/zerothre.ttf
1709.224	n/a	WORD	854612	wordpools/wasnorm_wordpool_less_exclusions.txt	LTP234	ltpFR	18	9	1	KETCHUP	771	n/a	0	0	0.5869140625	0.422607421875	upper	../fonts/amplitud.ttf
1713.422	n/a	WORD	856711	wordpools/wasnorm_wordpool_less_exclusions.txt	LTP234	ltpFR	18	9	1	MUSTARD	935	n/a	0	0	0.5869140625	0.422607421875	upper	../fonts/amplitud.ttf
1717.436	n/a	WORD	858718	wordpools/wasnorm_wordpool_less_exclusions.txt	LTP234	ltpFR	18	9	1	RADIATOR	1156	n/a	0	0	0.5869140625	0.422607421875	upper	../fonts/amplitud.ttf
1721.498	n/a	WORD	860749	wordpools/wasnorm_wordpool_less_exclusions.txt	LTP234	ltpFR	18	9	0	JELLY	755	n/a	0	1	0.412841796875	0.57763671875	lower	../fonts/zerothre.ttf
1725.5	n/a	WORD	862750	wordpools/wasnorm_wordpool_less_exclusions.txt	LTP234	ltpFR	18	9	0	SALESMAN	1225	n/a	1	1	0.412841796875	0.57763671875	lower	../fonts/zerothre.ttf
1729.35	n/a	WORD	864675	wordpools/wasnorm_wordpool_less_exclusions.txt	LTP234	ltpFR	18	9	0	VAN	1548	n/a	1	1	0.412841796875	0.57763671875	lower	../fonts/zerothre.ttf
1733.398	n/a	WORD	866699	wordpools/wasnorm_wordpool_less_exclusions.txt	LTP234	ltpFR	18	9	0	PERFUME	1049	n/a	0	1	0.412841796875	0.57763671875	lower	../fonts/zerothre.ttf
1737.296	n/a	WORD	868648	wordpools/wasnorm_wordpool_less_exclusions.txt	LTP234	ltpFR	18	9	0	WOLF	1619	n/a	1	1	0.412841796875	0.57763671875	lower	../fonts/zerothre.ttf
1741.194	n/a	WORD	870597	wordpools/wasnorm_wordpool_less_exclusions.txt	LTP234	ltpFR	18	9	0	BRAKE	166	n/a	1	1	0.412841796875	0.57763671875	lower	../fonts/zerothre.ttf
1745.194	n/a	WORD	872597	wordpools/wasnorm_wordpool_less_exclusions.txt	LTP234	ltpFR	18	9	1	CARDINAL	244	n/a	1	0	0.5869140625	0.422607421875	upper	../fonts/amplitud.ttf
1749.308	n/a	WORD	874654	wordpools/wasnorm_wordpool_less_exclusions.txt	LTP234	ltpFR	18	9	1	MOTHER	921	n/a	1	0	0.5869140625	0.422607421875	upper	../fonts/amplitud.ttf
1753.388	n/a	WORD	876694	wordpools/wasnorm_wordpool_less_exclusions.txt	LTP234	ltpFR	18	9	1	EGG	518	n/a	0	0	0.5869140625	0.422607421875	upper	../fonts/amplitud.ttf
1759.148	n/a	REC_START	879574	n/a	LTP234	ltpFR	18	9	n/a	n/a	n/a	n/a	n/a	n/a	n/a	n/a	n/a	n/a
1759.796	n/a	REC_WORD	879898	wordpools/wasnorm_wordpool_less_exclusions.txt	LTP234	ltpFR	18	9	1	CARDINAL	244	n/a	1	n/a	n/a	n/a	n/a	n/a
1760.324	n/a	REC_WORD	880162	wordpools/wasnorm_wordpool_less_exclusions.txt	LTP234	ltpFR	18	9	1	MOTHER	921	n/a	1	n/a	n/a	n/a	n/a	n/a
1760.968	n/a	REC_WORD	880484	wordpools/wasnorm_wordpool_less_exclusions.txt	LTP234	ltpFR	18	9	1	EGG	518	n/a	0	n/a	n/a	n/a	n/a	n/a
1764.256	n/a	REC_WORD	882128	wordpools/wasnorm_wordpool_less_exclusions.txt	LTP234	ltpFR	18	9	0	WOLF	1619	n/a	1	n/a	n/a	n/a	n/a	n/a
1792.752	n/a	REC_WORD	896376	wordpools/wasnorm_wordpool_less_exclusions.txt	LTP234	ltpFR	18	9	0	SALESMAN	1225	n/a	1	n/a	n/a	n/a	n/a	n/a
1793.82	n/a	REC_WORD	896910	wordpools/wasnorm_wordpool_less_exclusions.txt	LTP234	ltpFR	18	9	0	VAN	1548	n/a	1	n/a	n/a	n/a	n/a	n/a
1815.542	n/a	REC_WORD	907771	wordpools/wasnorm_wordpool_less_exclusions.txt	LTP234	ltpFR	18	9	1	QUAIL	1147	n/a	1	n/a	n/a	n/a	n/a	n/a
1817.922	n/a	REC_WORD	908961	wordpools/wasnorm_wordpool_less_exclusions.txt	LTP234	ltpFR	18	9	0	TRACTOR	1493	n/a	1	n/a	n/a	n/a	n/a	n/a
1819.018	n/a	REC_WORD	909509	wordpools/wasnorm_wordpool_less_exclusions.txt	LTP234	ltpFR	18	9	0	MOWER	928	n/a	1	n/a	n/a	n/a	n/a	n/a
1823.774	n/a	REC_WORD	911887	wordpools/wasnorm_wordpool_less_exclusions.txt	LTP234	ltpFR	18	9	1	KETCHUP	771	n/a	0	n/a	n/a	n/a	n/a	n/a
1824.238	n/a	REC_WORD	912119	wordpools/wasnorm_wordpool_less_exclusions.txt	LTP234	ltpFR	18	9	1	MUSTARD	935	n/a	0	n/a	n/a	n/a	n/a	n/a
1843.052	n/a	WORD	921526	wordpools/wasnorm_wordpool_less_exclusions.txt	LTP234	ltpFR	18	10	-1	SHRINE	1298	n/a	-1	1	1.0	1.0	upper	../fonts/Verdana.ttf
1847.168	n/a	WORD	923584	wordpools/wasnorm_wordpool_less_exclusions.txt	LTP234	ltpFR	18	10	-1	ABDOMEN	1	n/a	-1	1	1.0	1.0	upper	../fonts/Verdana.ttf
1850.994	n/a	WORD	925497	wordpools/wasnorm_wordpool_less_exclusions.txt	LTP234	ltpFR	18	10	-1	DRIVEWAY	500	n/a	-1	1	1.0	1.0	upper	../fonts/Verdana.ttf
1855.114	n/a	WORD	927557	wordpools/wasnorm_wordpool_less_exclusions.txt	LTP234	ltpFR	18	10	-1	TUBE	1516	n/a	-1	1	1.0	1.0	upper	../fonts/Verdana.ttf
1859.212	n/a	WORD	929606	wordpools/wasnorm_wordpool_less_exclusions.txt	LTP234	ltpFR	18	10	-1	FATHER	554	n/a	-1	1	1.0	1.0	upper	../fonts/Verdana.ttf
1863.178	n/a	WORD	931589	wordpools/wasnorm_wordpool_less_exclusions.txt	LTP234	ltpFR	18	10	-1	PUMPKIN	1142	n/a	-1	1	1.0	1.0	upper	../fonts/Verdana.ttf
1867.344	n/a	WORD	933672	wordpools/wasnorm_wordpool_less_exclusions.txt	LTP234	ltpFR	18	10	-1	JEEP	753	n/a	-1	1	1.0	1.0	upper	../fonts/Verdana.ttf
1871.426	n/a	WORD	935713	wordpools/wasnorm_wordpool_less_exclusions.txt	LTP234	ltpFR	18	10	-1	OLIVE	975	n/a	-1	1	1.0	1.0	upper	../fonts/Verdana.ttf
1875.32	n/a	WORD	937660	wordpools/wasnorm_wordpool_less_exclusions.txt	LTP234	ltpFR	18	10	-1	SICKLE	1302	n/a	-1	1	1.0	1.0	upper	../fonts/Verdana.ttf
1879.506	n/a	WORD	939753	wordpools/wasnorm_wordpool_less_exclusions.txt	LTP234	ltpFR	18	10	-1	CHISEL	305	n/a	-1	1	1.0	1.0	upper	../fonts/Verdana.ttf
1883.572	n/a	WORD	941786	wordpools/wasnorm_wordpool_less_exclusions.txt	LTP234	ltpFR	18	10	-1	MONASTERY	907	n/a	-1	1	1.0	1.0	upper	../fonts/Verdana.ttf
1887.454	n/a	WORD	943727	wordpools/wasnorm_wordpool_less_exclusions.txt	LTP234	ltpFR	18	10	-1	TREE	1502	n/a	-1	1	1.0	1.0	upper	../fonts/Verdana.ttf
1891.67	n/a	WORD	945835	wordpools/wasnorm_wordpool_less_exclusions.txt	LTP234	ltpFR	18	10	-1	PERMIT	1051	n/a	-1	1	1.0	1.0	upper	../fonts/Verdana.ttf
1895.886	n/a	WORD	947943	wordpools/wasnorm_wordpool_less_exclusions.txt	LTP234	ltpFR	18	10	-1	THORN	1459	n/a	-1	1	1.0	1.0	upper	../fonts/Verdana.ttf
1899.948	n/a	WORD	949974	wordpools/wasnorm_wordpool_less_exclusions.txt	LTP234	ltpFR	18	10	-1	GARDEN	623	n/a	-1	1	1.0	1.0	upper	../fonts/Verdana.ttf
1904.168	n/a	WORD	952084	wordpools/wasnorm_wordpool_less_exclusions.txt	LTP234	ltpFR	18	10	-1	BELLY	119	n/a	-1	1	1.0	1.0	upper	../fonts/Verdana.ttf
1910.176	n/a	REC_START	955088	n/a	LTP234	ltpFR	18	10	n/a	n/a	n/a	n/a	n/a	n/a	n/a	n/a	n/a	n/a
1910.954	n/a	REC_WORD	955477	wordpools/wasnorm_wordpool_less_exclusions.txt	LTP234	ltpFR	18	10	-1	ABDOMEN	1	n/a	-1	n/a	n/a	n/a	n/a	n/a
1911.552	n/a	REC_WORD	955776	wordpools/wasnorm_wordpool_less_exclusions.txt	LTP234	ltpFR	18	10	-1	BELLY	119	n/a	-1	n/a	n/a	n/a	n/a	n/a
1912.136	n/a	REC_WORD	956068	wordpools/wasnorm_wordpool_less_exclusions.txt	LTP234	ltpFR	18	10	-1	TREE	1502	n/a	-1	n/a	n/a	n/a	n/a	n/a
1913.118	n/a	REC_WORD	956559	wordpools/wasnorm_wordpool_less_exclusions.txt	LTP234	ltpFR	18	10	-1	GARDEN	623	n/a	-1	n/a	n/a	n/a	n/a	n/a
1917.694	n/a	REC_WORD	958847	wordpools/wasnorm_wordpool_less_exclusions.txt	LTP234	ltpFR	18	10	-1	MONASTERY	907	n/a	-1	n/a	n/a	n/a	n/a	n/a
1929.358	n/a	REC_WORD	964679	wordpools/wasnorm_wordpool_less_exclusions.txt	LTP234	ltpFR	18	10	-1	FATHER	554	n/a	-1	n/a	n/a	n/a	n/a	n/a
1965.592	n/a	REC_WORD_VV	982796	wordpools/wasnorm_wordpool_less_exclusions.txt	LTP234	ltpFR	18	10	n/a	<>	-1	n/a	n/a	n/a	n/a	n/a	n/a	n/a
1995.25	n/a	WORD	997625	wordpools/wasnorm_wordpool_less_exclusions.txt	LTP234	ltpFR	18	11	-1	BEAN	105	n/a	-1	1	1.0	1.0	upper	../fonts/Verdana.ttf
1999.08	n/a	WORD	999540	wordpools/wasnorm_wordpool_less_exclusions.txt	LTP234	ltpFR	18	11	-1	MUFFIN	929	n/a	-1	1	1.0	1.0	upper	../fonts/Verdana.ttf
2003.162	n/a	WORD	1001581	wordpools/wasnorm_wordpool_less_exclusions.txt	LTP234	ltpFR	18	11	-1	CLIPPERS	324	n/a	-1	1	1.0	1.0	upper	../fonts/Verdana.ttf
2007.228	n/a	WORD	1003614	wordpools/wasnorm_wordpool_less_exclusions.txt	LTP234	ltpFR	18	11	-1	DOCK	477	n/a	-1	1	1.0	1.0	upper	../fonts/Verdana.ttf
2011.426	n/a	WORD	1005713	wordpools/wasnorm_wordpool_less_exclusions.txt	LTP234	ltpFR	18	11	-1	BAY	102	n/a	-1	1	1.0	1.0	upper	../fonts/Verdana.ttf
2015.556	n/a	WORD	1007778	wordpools/wasnorm_wordpool_less_exclusions.txt	LTP234	ltpFR	18	11	-1	TUXEDO	1525	n/a	-1	1	1.0	1.0	upper	../fonts/Verdana.ttf
2019.474	n/a	WORD	1009737	wordpools/wasnorm_wordpool_less_exclusions.txt	LTP234	ltpFR	18	11	-1	TWEEZERS	1526	n/a	-1	1	1.0	1.0	upper	../fonts/Verdana.ttf
2023.674	n/a	WORD	1011837	wordpools/wasnorm_wordpool_less_exclusions.txt	LTP234	ltpFR	18	11	-1	HOSE	720	n/a	-1	1	1.0	1.0	upper	../fonts/Verdana.ttf
2027.806	n/a	WORD	1013903	wordpools/wasnorm_wordpool_less_exclusions.txt	LTP234	ltpFR	18	11	-1	NECK	939	n/a	-1	1	1.0	1.0	upper	../fonts/Verdana.ttf
2032.024	n/a	WORD	1016012	wordpools/wasnorm_wordpool_less_exclusions.txt	LTP234	ltpFR	18	11	-1	PANTS	1010	n/a	-1	1	1.0	1.0	upper	../fonts/Verdana.ttf
2035.872	n/a	WORD	1017936	wordpools/wasnorm_wordpool_less_exclusions.txt	LTP234	ltpFR	18	11	-1	POLYESTER	1100	n/a	-1	1	1.0	1.0	upper	../fonts/Verdana.ttf
2039.72	n/a	WORD	1019860	wordpools/wasnorm_wordpool_less_exclusions.txt	LTP234	ltpFR	18	11	-1	CAFETERIA	217	n/a	-1	1	1.0	1.0	upper	../fonts/Verdana.ttf
2043.748	n/a	WORD	1021874	wordpools/wasnorm_wordpool_less_exclusions.txt	LTP234	ltpFR	18	11	-1	SODA	1341	n/a	-1	1	1.0	1.0	upper	../fonts/Verdana.ttf
2047.946	n/a	WORD	1023973	wordpools/wasnorm_wordpool_less_exclusions.txt	LTP234	ltpFR	18	11	-1	SKIN	1318	n/a	-1	1	1.0	1.0	upper	../fonts/Verdana.ttf
2051.882	n/a	WORD	1025941	wordpools/wasnorm_wordpool_less_exclusions.txt	LTP234	ltpFR	18	11	-1	DIVER	476	n/a	-1	1	1.0	1.0	upper	../fonts/Verdana.ttf
2055.882	n/a	WORD	1027941	wordpools/wasnorm_wordpool_less_exclusions.txt	LTP234	ltpFR	18	11	-1	FOUNTAIN	597	n/a	-1	1	1.0	1.0	upper	../fonts/Verdana.ttf
2061.754	n/a	REC_START	1030877	n/a	LTP234	ltpFR	18	11	n/a	n/a	n/a	n/a	n/a	n/a	n/a	n/a	n/a	n/a
2061.754	n/a	REC_WORD	1030877	wordpools/wasnorm_wordpool_less_exclusions.txt	LTP234	ltpFR	18	11	-1	HOSE	720	n/a	-1	n/a	n/a	n/a	n/a	n/a
2062.154	n/a	REC_WORD	1031077	wordpools/wasnorm_wordpool_less_exclusions.txt	LTP234	ltpFR	18	11	-1	CAFETERIA	217	n/a	-1	n/a	n/a	n/a	n/a	n/a
2062.916	n/a	REC_WORD	1031458	wordpools/wasnorm_wordpool_less_exclusions.txt	LTP234	ltpFR	18	11	-1	NECK	939	n/a	-1	n/a	n/a	n/a	n/a	n/a
2063.154	n/a	REC_WORD	1031577	wordpools/wasnorm_wordpool_less_exclusions.txt	LTP234	ltpFR	18	11	-1	SKIN	1318	n/a	-1	n/a	n/a	n/a	n/a	n/a
2063.74	n/a	REC_WORD	1031870	wordpools/wasnorm_wordpool_less_exclusions.txt	LTP234	ltpFR	18	11	-1	DIVER	476	n/a	-1	n/a	n/a	n/a	n/a	n/a
2077.304	n/a	REC_WORD	1038652	wordpools/wasnorm_wordpool_less_exclusions.txt	LTP234	ltpFR	18	11	-1	TUXEDO	1525	n/a	-1	n/a	n/a	n/a	n/a	n/a
2142.478	n/a	WORD	1071239	wordpools/wasnorm_wordpool_less_exclusions.txt	LTP234	ltpFR	18	12	1	PATIO	1025	n/a	0	0	0.5869140625	0.422607421875	upper	../fonts/amplitud.ttf
2146.692	n/a	WORD	1073346	wordpools/wasnorm_wordpool_less_exclusions.txt	LTP234	ltpFR	18	12	1	HINGE	709	n/a	0	0	0.5869140625	0.422607421875	upper	../fonts/amplitud.ttf
2150.608	n/a	WORD	1075304	wordpools/wasnorm_wordpool_less_exclusions.txt	LTP234	ltpFR	18	12	1	PASTRY	1022	n/a	0	0	0.5869140625	0.422607421875	upper	../fonts/amplitud.ttf
2154.81	n/a	WORD	1077405	wordpools/wasnorm_wordpool_less_exclusions.txt	LTP234	ltpFR	18	12	1	CANDY	230	n/a	0	0	0.5869140625	0.422607421875	upper	../fonts/amplitud.ttf
2159.024	n/a	WORD	1079512	wordpools/wasnorm_wordpool_less_exclusions.txt	LTP234	ltpFR	18	12	1	MONGOOSE	909	n/a	1	0	0.5869140625	0.422607421875	upper	../fonts/amplitud.ttf
2163.17	n/a	WORD	1081585	wordpools/wasnorm_wordpool_less_exclusions.txt	LTP234	ltpFR	18	12	1	AUTHOR	61	n/a	1	0	0.5869140625	0.422607421875	upper	../fonts/amplitud.ttf
2167.356	n/a	WORD	1083678	wordpools/wasnorm_wordpool_less_exclusions.txt	LTP234	ltpFR	18	12	0	TELEVISION	1447	n/a	1	1	0.412841796875	0.57763671875	lower	../fonts/zerothre.ttf
2171.252	n/a	WORD	1085626	wordpools/wasnorm_wordpool_less_exclusions.txt	LTP234	ltpFR	18	12	0	ANTENNA	28	n/a	0	1	0.412841796875	0.57763671875	lower	../fonts/zerothre.ttf
2175.136	n/a	WORD	1087568	wordpools/wasnorm_wordpool_less_exclusions.txt	LTP234	ltpFR	18	12	0	PARROT	1015	n/a	0	1	0.412841796875	0.57763671875	lower	../fonts/zerothre.ttf
2179.236	n/a	WORD	1089618	wordpools/wasnorm_wordpool_less_exclusions.txt	LTP234	ltpFR	18	12	0	SHARK	1275	n/a	1	1	0.412841796875	0.57763671875	lower	../fonts/zerothre.ttf
2183.446	n/a	WORD	1091723	wordpools/wasnorm_wordpool_less_exclusions.txt	LTP234	ltpFR	18	12	1	SHORE	1291	n/a	0	0	0.5869140625	0.422607421875	upper	../fonts/amplitud.ttf
2187.546	n/a	WORD	1093773	wordpools/wasnorm_wordpool_less_exclusions.txt	LTP234	ltpFR	18	12	1	HAM	678	n/a	0	0	0.5869140625	0.422607421875	upper	../fonts/amplitud.ttf
2191.432	n/a	WORD	1095716	wordpools/wasnorm_wordpool_less_exclusions.txt	LTP234	ltpFR	18	12	0	HAT	690	n/a	0	1	0.412841796875	0.57763671875	lower	../fonts/zerothre.ttf
2195.648	n/a	WORD	1097824	wordpools/wasnorm_wordpool_less_exclusions.txt	LTP234	ltpFR	18	12	0	BONE	148	n/a	0	1	0.412841796875	0.57763671875	lower	../fonts/zerothre.ttf
2199.864	n/a	WORD	1099932	wordpools/wasnorm_wordpool_less_exclusions.txt	LTP234	ltpFR	18	12	0	BASKET	95	n/a	0	1	0.412841796875	0.57763671875	lower	../fonts/zerothre.ttf
2204.06	n/a	WORD	1102030	wordpools/wasnorm_wordpool_less_exclusions.txt	LTP234	ltpFR	18	12	0	SHRIMP	1297	n/a	0	1	0.412841796875	0.57763671875	lower	../fonts/zerothre.ttf
2209.988	n/a	REC_START	1104994	n/a	LTP234	ltpFR	18	12	n/a	n/a	n/a	n/a	n/a	n/a	n/a	n/a	n/a	n/a
2211.064	n/a	REC_WORD	1105532	wordpools/wasnorm_wordpool_less_exclusions.txt	LTP234	ltpFR	18	12	1	PATIO	1025	n/a	0	n/a	n/a	n/a	n/a	n/a
2212.526	n/a	REC_WORD	1106263	wordpools/wasnorm_wordpool_less_exclusions.txt	LTP234	ltpFR	18	12	0	BASKET	95	n/a	0	n/a	n/a	n/a	n/a	n/a
2213.02	n/a	REC_WORD	1106510	wordpools/wasnorm_wordpool_less_exclusions.txt	LTP234	ltpFR	18	12	0	SHRIMP	1297	n/a	0	n/a	n/a	n/a	n/a	n/a
2213.694	n/a	REC_WORD	1106847	wordpools/wasnorm_wordpool_less_exclusions.txt	LTP234	ltpFR	18	12	1	HAM	678	n/a	0	n/a	n/a	n/a	n/a	n/a
2214.218	n/a	REC_WORD	1107109	wordpools/wasnorm_wordpool_less_exclusions.txt	LTP234	ltpFR	18	12	0	BONE	148	n/a	0	n/a	n/a	n/a	n/a	n/a
2216.836	n/a	REC_WORD	1108418	wordpools/wasnorm_wordpool_less_exclusions.txt	LTP234	ltpFR	18	12	1	AUTHOR	61	n/a	1	n/a	n/a	n/a	n/a	n/a
2221.486	n/a	REC_WORD	1110743	wordpools/wasnorm_wordpool_less_exclusions.txt	LTP234	ltpFR	18	12	1	MONGOOSE	909	n/a	1	n/a	n/a	n/a	n/a	n/a
2285.654	n/a	REST_REWET	1142827	n/a	LTP234	ltpFR	18	12	n/a	n/a	n/a	n/a	n/a	n/a	n/a	n/a	n/a	n/a
2903.018	n/a	WORD	1451509	wordpools/wasnorm_wordpool_less_exclusions.txt	LTP234	ltpFR	18	13	1	WILDERNESS	1610	n/a	0	0	0.5869140625	0.422607421875	upper	../fonts/amplitud.ttf
2907.218	n/a	WORD	1453609	wordpools/wasnorm_wordpool_less_exclusions.txt	LTP234	ltpFR	18	13	1	EMERALD	528	n/a	0	0	0.5869140625	0.422607421875	upper	../fonts/amplitud.ttf
2911.266	n/a	WORD	1455633	wordpools/wasnorm_wordpool_less_exclusions.txt	LTP234	ltpFR	18	13	1	COW	393	n/a	1	0	0.5869140625	0.422607421875	upper	../fonts/amplitud.ttf
2915.41	n/a	WORD	1457705	wordpools/wasnorm_wordpool_less_exclusions.txt	LTP234	ltpFR	18	13	1	VACUUM	1543	n/a	0	0	0.5869140625	0.422607421875	upper	../fonts/amplitud.ttf
2919.246	n/a	WORD	1459623	wordpools/wasnorm_wordpool_less_exclusions.txt	LTP234	ltpFR	18	13	1	DUSTPAN	509	n/a	0	0	0.5869140625	0.422607421875	upper	../fonts/amplitud.ttf
2923.258	n/a	WORD	1461629	wordpools/wasnorm_wordpool_less_exclusions.txt	LTP234	ltpFR	18	13	1	PEACH	1031	n/a	0	0	0.5869140625	0.422607421875	upper	../fonts/amplitud.ttf
2927.328	n/a	WORD	1463664	wordpools/wasnorm_wordpool_less_exclusions.txt	LTP234	ltpFR	18	13	1	HOOD	714	n/a	0	0	0.5869140625	0.422607421875	upper	../fonts/amplitud.ttf
2931.192	n/a	WORD	1465596	wordpools/wasnorm_wordpool_less_exclusions.txt	LTP234	ltpFR	18	13	1	PREACHER	1119	n/a	1	0	0.5869140625	0.422607421875	upper	../fonts/amplitud.ttf
2935.208	n/a	WORD	1467604	wordpools/wasnorm_wordpool_less_exclusions.txt	LTP234	ltpFR	18	13	1	BULL	193	n/a	1	0	0.5869140625	0.422607421875	upper	../fonts/amplitud.ttf
2939.206	n/a	WORD	1469603	wordpools/wasnorm_wordpool_less_exclusions.txt	LTP234	ltpFR	18	13	1	TRAY	1498	n/a	0	0	0.5869140625	0.422607421875	upper	../fonts/amplitud.ttf
2943.188	n/a	WORD	1471594	wordpools/wasnorm_wordpool_less_exclusions.txt	LTP234	ltpFR	18	13	1	CAB	209	n/a	1	0	0.5869140625	0.422607421875	upper	../fonts/amplitud.ttf
2947.304	n/a	WORD	1473652	wordpools/wasnorm_wordpool_less_exclusions.txt	LTP234	ltpFR	18	13	1	IDOL	733	n/a	1	0	0.5869140625	0.422607421875	upper	../fonts/amplitud.ttf
2951.27	n/a	WORD	1475635	wordpools/wasnorm_wordpool_less_exclusions.txt	LTP234	ltpFR	18	13	1	FRIEND	606	n/a	1	0	0.5869140625	0.422607421875	upper	../fonts/amplitud.ttf
2955.45	n/a	WORD	1477725	wordpools/wasnorm_wordpool_less_exclusions.txt	LTP234	ltpFR	18	13	1	FAMILY	550	n/a	1	0	0.5869140625	0.422607421875	upper	../fonts/amplitud.ttf
2959.398	n/a	WORD	1479699	wordpools/wasnorm_wordpool_less_exclusions.txt	LTP234	ltpFR	18	13	1	CHEMIST	292	n/a	1	0	0.5869140625	0.422607421875	upper	../fonts/amplitud.ttf
2963.36	n/a	WORD	1481680	wordpools/wasnorm_wordpool_less_exclusions.txt	LTP234	ltpFR	18	13	1	WAITRESS	1581	n/a	1	0	0.5869140625	0.422607421875	upper	../fonts/amplitud.ttf
2969.138	n/a	REC_START	1484569	n/a	LTP234	ltpFR	18	13	n/a	n/a	n/a	n/a	n/a	n/a	n/a	n/a	n/a	n/a
2973.374	n/a	REC_WORD	1486687	wordpools/wasnorm_wordpool_less_exclusions.txt	LTP234	ltpFR	18	13	1	WILDERNESS	1610	n/a	0	n/a	n/a	n/a	n/a	n/a
2974.552	n/a	REC_WORD	1487276	wordpools/wasnorm_wordpool_less_exclusions.txt	LTP234	ltpFR	18	13	1	EMERALD	528	n/a	0	n/a	n/a	n/a	n/a	n/a
2975.458	n/a	REC_WORD	1487729	wordpools/wasnorm_wordpool_less_exclusions.txt	LTP234	ltpFR	18	13	1	COW	393	n/a	1	n/a	n/a	n/a	n/a	n/a
2977.944	n/a	REC_WORD	1488972	wordpools/wasnorm_wordpool_less_exclusions.txt	LTP234	ltpFR	18	13	1	VACUUM	1543	n/a	0	n/a	n/a	n/a	n/a	n/a
2981.436	n/a	REC_WORD	1490718	wordpools/wasnorm_wordpool_less_exclusions.txt	LTP234	ltpFR	18	13	1	PEACH	1031	n/a	0	n/a	n/a	n/a	n/a	n/a
2982.992	n/a	REC_WORD	1491496	wordpools/wasnorm_wordpool_less_exclusions.txt	LTP234	ltpFR	18	13	1	HOOD	714	n/a	0	n/a	n/a	n/a	n/a	n/a
2983.846	n/a	REC_WORD	1491923	wordpools/wasnorm_wordpool_less_exclusions.txt	LTP234	ltpFR	18	13	1	PREACHER	1119	n/a	1	n/a	n/a	n/a	n/a	n/a
2987.876	n/a	REC_WORD	1493938	wordpools/wasnorm_wordpool_less_exclusions.txt	LTP234	ltpFR	18	13	1	BULL	193	n/a	1	n/a	n/a	n/a	n/a	n/a
2994.666	n/a	REC_WORD	1497333	wordpools/wasnorm_wordpool_less_exclusions.txt	LTP234	ltpFR	18	13	1	TRAY	1498	n/a	0	n/a	n/a	n/a	n/a	n/a
2995.884	n/a	REC_WORD	1497942	wordpools/wasnorm_wordpool_less_exclusions.txt	LTP234	ltpFR	18	13	1	CAB	209	n/a	1	n/a	n/a	n/a	n/a	n/a
2997.1	n/a	REC_WORD	1498550	wordpools/wasnorm_wordpool_less_exclusions.txt	LTP234	ltpFR	18	13	1	IDOL	733	n/a	1	n/a	n/a	n/a	n/a	n/a
2997.738	n/a	REC_WORD	1498869	wordpools/wasnorm_wordpool_less_exclusions.txt	LTP234	ltpFR	18	13	1	FRIEND	606	n/a	1	n/a	n/a	n/a	n/a	n/a
2998.586	n/a	REC_WORD	1499293	wordpools/wasnorm_wordpool_less_exclusions.txt	LTP234	ltpFR	18	13	1	FAMILY	550	n/a	1	n/a	n/a	n/a	n/a	n/a
3006.834	n/a	REC_WORD	1503417	wordpools/wasnorm_wordpool_less_exclusions.txt	LTP234	ltpFR	18	13	1	CHEMIST	292	n/a	1	n/a	n/a	n/a	n/a	n/a
3008.316	n/a	REC_WORD	1504158	wordpools/wasnorm_wordpool_less_exclusions.txt	LTP234	ltpFR	18	13	1	WAITRESS	1581	n/a	1	n/a	n/a	n/a	n/a	n/a
3048.758	n/a	WORD	1524379	wordpools/wasnorm_wordpool_less_exclusions.txt	LTP234	ltpFR	18	14	0	KLEENEX	782	n/a	0	1	0.412841796875	0.57763671875	lower	../fonts/zerothre.ttf
3052.874	n/a	WORD	1526437	wordpools/wasnorm_wordpool_less_exclusions.txt	LTP234	ltpFR	18	14	0	SIDEWALK	1303	n/a	1	1	0.412841796875	0.57763671875	lower	../fonts/zerothre.ttf
3056.784	n/a	WORD	1528392	wordpools/wasnorm_wordpool_less_exclusions.txt	LTP234	ltpFR	18	14	0	LION	827	n/a	1	1	0.412841796875	0.57763671875	lower	../fonts/zerothre.ttf
3060.988	n/a	WORD	1530494	wordpools/wasnorm_wordpool_less_exclusions.txt	LTP234	ltpFR	18	14	0	EUROPE	541	n/a	1	1	0.412841796875	0.57763671875	lower	../fonts/zerothre.ttf
3065.2	n/a	WORD	1532600	wordpools/wasnorm_wordpool_less_exclusions.txt	LTP234	ltpFR	18	14	0	SANDPAPER	1231	n/a	0	1	0.412841796875	0.57763671875	lower	../fonts/zerothre.ttf
3069.402	n/a	WORD	1534701	wordpools/wasnorm_wordpool_less_exclusions.txt	LTP234	ltpFR	18	14	0	ORCHID	982	n/a	1	1	0.412841796875	0.57763671875	lower	../fonts/zerothre.ttf
3073.418	n/a	WORD	1536709	wordpools/wasnorm_wordpool_less_exclusions.txt	LTP234	ltpFR	18	14	0	HOUSE	725	n/a	1	1	0.412841796875	0.57763671875	lower	../fonts/zerothre.ttf
3077.6	n/a	WORD	1538800	wordpools/wasnorm_wordpool_less_exclusions.txt	LTP234	ltpFR	18	14	0	BASEMENT	94	n/a	1	1	0.412841796875	0.57763671875	lower	../fonts/zerothre.ttf
3081.798	n/a	WORD	1540899	wordpools/wasnorm_wordpool_less_exclusions.txt	LTP234	ltpFR	18	14	0	NAVIGATOR	938	n/a	1	1	0.412841796875	0.57763671875	lower	../fonts/zerothre.ttf
3085.762	n/a	WORD	1542881	wordpools/wasnorm_wordpool_less_exclusions.txt	LTP234	ltpFR	18	14	0	FACTORY	548	n/a	1	1	0.412841796875	0.57763671875	lower	../fonts/zerothre.ttf
3089.932	n/a	WORD	1544966	wordpools/wasnorm_wordpool_less_exclusions.txt	LTP234	ltpFR	18	14	0	ARCHITECT	36	n/a	1	1	0.412841796875	0.57763671875	lower	../fonts/zerothre.ttf
3093.994	n/a	WORD	1546997	wordpools/wasnorm_wordpool_less_exclusions.txt	LTP234	ltpFR	18	14	0	VEST	1559	n/a	0	1	0.412841796875	0.57763671875	lower	../fonts/zerothre.ttf
3098.13	n/a	WORD	1549065	wordpools/wasnorm_wordpool_less_exclusions.txt	LTP234	ltpFR	18	14	0	COLLAR	345	n/a	0	1	0.412841796875	0.57763671875	lower	../fonts/zerothre.ttf
3102.112	n/a	WORD	1551056	wordpools/wasnorm_wordpool_less_exclusions.txt	LTP234	ltpFR	18	14	0	DAISY	435	n/a	0	1	0.412841796875	0.57763671875	lower	../fonts/zerothre.ttf
3106.19	n/a	WORD	1553095	wordpools/wasnorm_wordpool_less_exclusions.txt	LTP234	ltpFR	18	14	0	HELICOPTER	701	n/a	1	1	0.412841796875	0.57763671875	lower	../fonts/zerothre.ttf
3110.31	n/a	WORD	1555155	wordpools/wasnorm_wordpool_less_exclusions.txt	LTP234	ltpFR	18	14	0	ROD	1203	n/a	0	1	0.412841796875	0.57763671875	lower	../fonts/zerothre.ttf
3116.028	n/a	REC_START	1558014	n/a	LTP234	ltpFR	18	14	n/a	n/a	n/a	n/a	n/a	n/a	n/a	n/a	n/a	n/a
3116.252	n/a	REC_WORD	1558126	wordpools/wasnorm_wordpool_less_exclusions.txt	LTP234	ltpFR	18	14	0	ROD	1203	n/a	0	n/a	n/a	n/a	n/a	n/a
3116.792	n/a	REC_WORD	1558396	wordpools/wasnorm_wordpool_less_exclusions.txt	LTP234	ltpFR	18	14	0	HELICOPTER	701	n/a	1	n/a	n/a	n/a	n/a	n/a
3117.756	n/a	REC_WORD	1558878	wordpools/wasnorm_wordpool_less_exclusions.txt	LTP234	ltpFR	18	14	0	DAISY	435	n/a	0	n/a	n/a	n/a	n/a	n/a
3118.768	n/a	REC_WORD	1559384	wordpools/wasnorm_wordpool_less_exclusions.txt	LTP234	ltpFR	18	14	0	ARCHITECT	36	n/a	1	n/a	n/a	n/a	n/a	n/a
3119.446	n/a	REC_WORD	1559723	wordpools/wasnorm_wordpool_less_exclusions.txt	LTP234	ltpFR	18	14	0	FACTORY	548	n/a	1	n/a	n/a	n/a	n/a	n/a
3124.764	n/a	REC_WORD	1562382	wordpools/wasnorm_wordpool_less_exclusions.txt	LTP234	ltpFR	18	14	0	HOUSE	725	n/a	1	n/a	n/a	n/a	n/a	n/a
3125.248	n/a	REC_WORD	1562624	wordpools/wasnorm_wordpool_less_exclusions.txt	LTP234	ltpFR	18	14	0	BASEMENT	94	n/a	1	n/a	n/a	n/a	n/a	n/a
3195.954	n/a	WORD	1597977	wordpools/wasnorm_wordpool_less_exclusions.txt	LTP234	ltpFR	18	15	0	OTTER	986	n/a	1	1	0.412841796875	0.57763671875	lower	../fonts/zerothre.ttf
3199.868	n/a	WORD	1599934	wordpools/wasnorm_wordpool_less_exclusions.txt	LTP234	ltpFR	18	15	0	MANAGER	863	n/a	1	1	0.412841796875	0.57763671875	lower	../fonts/zerothre.ttf
3203.868	n/a	WORD	1601934	wordpools/wasnorm_wordpool_less_exclusions.txt	LTP234	ltpFR	18	15	0	FLASK	576	n/a	0	1	0.412841796875	0.57763671875	lower	../fonts/zerothre.ttf
3207.782	n/a	WORD	1603891	wordpools/wasnorm_wordpool_less_exclusions.txt	LTP234	ltpFR	18	15	1	VIDEO	1564	n/a	0	0	0.5869140625	0.422607421875	upper	../fonts/amplitud.ttf
3211.778	n/a	WORD	1605889	wordpools/wasnorm_wordpool_less_exclusions.txt	LTP234	ltpFR	18	15	1	DIRECTOR	471	n/a	1	0	0.5869140625	0.422607421875	upper	../fonts/amplitud.ttf
3215.628	n/a	WORD	1607814	wordpools/wasnorm_wordpool_less_exclusions.txt	LTP234	ltpFR	18	15	1	FIREMAN	569	n/a	1	0	0.5869140625	0.422607421875	upper	../fonts/amplitud.ttf
3219.61	n/a	WORD	1609805	wordpools/wasnorm_wordpool_less_exclusions.txt	LTP234	ltpFR	18	15	1	ROCKET	1202	n/a	0	0	0.5869140625	0.422607421875	upper	../fonts/amplitud.ttf
3223.76	n/a	WORD	1611880	wordpools/wasnorm_wordpool_less_exclusions.txt	LTP234	ltpFR	18	15	0	WINDOW	1611	n/a	1	1	0.412841796875	0.57763671875	lower	../fonts/zerothre.ttf
3227.62	n/a	WORD	1613810	wordpools/wasnorm_wordpool_less_exclusions.txt	LTP234	ltpFR	18	15	0	TULIP	1517	n/a	0	1	0.412841796875	0.57763671875	lower	../fonts/zerothre.ttf
3231.486	n/a	WORD	1615743	wordpools/wasnorm_wordpool_less_exclusions.txt	LTP234	ltpFR	18	15	0	LAGOON	795	n/a	1	1	0.412841796875	0.57763671875	lower	../fonts/zerothre.ttf
3235.354	n/a	WORD	1617677	wordpools/wasnorm_wordpool_less_exclusions.txt	LTP234	ltpFR	18	15	0	CAVE	263	n/a	1	1	0.412841796875	0.57763671875	lower	../fonts/zerothre.ttf
3239.37	n/a	WORD	1619685	wordpools/wasnorm_wordpool_less_exclusions.txt	LTP234	ltpFR	18	15	0	CRATER	400	n/a	1	1	0.412841796875	0.57763671875	lower	../fonts/zerothre.ttf
3243.582	n/a	WORD	1621791	wordpools/wasnorm_wordpool_less_exclusions.txt	LTP234	ltpFR	18	15	1	BOLT	146	n/a	0	0	0.5869140625	0.422607421875	upper	../fonts/amplitud.ttf
3247.768	n/a	WORD	1623884	wordpools/wasnorm_wordpool_less_exclusions.txt	LTP234	ltpFR	18	15	1	EWE	542	n/a	1	0	0.5869140625	0.422607421875	upper	../fonts/amplitud.ttf
3251.952	n/a	WORD	1625976	wordpools/wasnorm_wordpool_less_exclusions.txt	LTP234	ltpFR	18	15	1	LILY	821	n/a	0	0	0.5869140625	0.422607421875	upper	../fonts/amplitud.ttf
3255.796	n/a	WORD	1627898	wordpools/wasnorm_wordpool_less_exclusions.txt	LTP234	ltpFR	18	15	1	VOLUNTEER	1577	n/a	1	0	0.5869140625	0.422607421875	upper	../fonts/amplitud.ttf
3261.622	n/a	REC_START	1630811	n/a	LTP234	ltpFR	18	15	n/a	n/a	n/a	n/a	n/a	n/a	n/a	n/a	n/a	n/a
3261.96	n/a	REC_WORD	1630980	wordpools/wasnorm_wordpool_less_exclusions.txt	LTP234	ltpFR	18	15	1	VOLUNTEER	1577	n/a	1	n/a	n/a	n/a	n/a	n/a
3264.914	n/a	REC_WORD	1632457	wordpools/wasnorm_wordpool_less_exclusions.txt	LTP234	ltpFR	18	15	0	CAVE	263	n/a	1	n/a	n/a	n/a	n/a	n/a
3265.432	n/a	REC_WORD	1632716	wordpools/wasnorm_wordpool_less_exclusions.txt	LTP234	ltpFR	18	15	1	LILY	821	n/a	0	n/a	n/a	n/a	n/a	n/a
3274.662	n/a	REC_WORD	1637331	wordpools/wasnorm_wordpool_less_exclusions.txt	LTP234	ltpFR	18	15	1	VIDEO	1564	n/a	0	n/a	n/a	n/a	n/a	n/a
3275.136	n/a	REC_WORD	1637568	wordpools/wasnorm_wordpool_less_exclusions.txt	LTP234	ltpFR	18	15	1	DIRECTOR	471	n/a	1	n/a	n/a	n/a	n/a	n/a
3276.054	n/a	REC_WORD	1638027	wordpools/wasnorm_wordpool_less_exclusions.txt	LTP234	ltpFR	18	15	1	FIREMAN	569	n/a	1	n/a	n/a	n/a	n/a	n/a
3316.4	n/a	REC_WORD	1658200	wordpools/wasnorm_wordpool_less_exclusions.txt	LTP234	ltpFR	18	15	0	MANAGER	863	n/a	1	n/a	n/a	n/a	n/a	n/a
3318.51	n/a	REC_WORD	1659255	wordpools/wasnorm_wordpool_less_exclusions.txt	LTP234	ltpFR	18	15	0	OTTER	986	n/a	1	n/a	n/a	n/a	n/a	n/a
3340.488	n/a	WORD	1670244	wordpools/wasnorm_wordpool_less_exclusions.txt	LTP234	ltpFR	18	16	1	RATTLE	1170	n/a	0	0	0.5869140625	0.422607421875	upper	../fonts/amplitud.ttf
3344.404	n/a	WORD	1672202	wordpools/wasnorm_wordpool_less_exclusions.txt	LTP234	ltpFR	18	16	1	INFANT	737	n/a	1	0	0.5869140625	0.422607421875	upper	../fonts/amplitud.ttf
3348.448	n/a	WORD	1674224	wordpools/wasnorm_wordpool_less_exclusions.txt	LTP234	ltpFR	18	16	1	CASTLE	256	n/a	0	0	0.5869140625	0.422607421875	upper	../fonts/amplitud.ttf
3352.636	n/a	WORD	1676318	wordpools/wasnorm_wordpool_less_exclusions.txt	LTP234	ltpFR	18	16	1	LABEL	790	n/a	0	0	0.5869140625	0.422607421875	upper	../fonts/amplitud.ttf
3356.768	n/a	WORD	1678384	wordpools/wasnorm_wordpool_less_exclusions.txt	LTP234	ltpFR	18	16	1	ZEBRA	1635	n/a	1	0	0.5869140625	0.422607421875	upper	../fonts/amplitud.ttf
3360.75	n/a	WORD	1680375	wordpools/wasnorm_wordpool_less_exclusions.txt	LTP234	ltpFR	18	16	1	LINT	826	n/a	0	0	0.5869140625	0.422607421875	upper	../fonts/amplitud.ttf
3364.732	n/a	WORD	1682366	wordpools/wasnorm_wordpool_less_exclusions.txt	LTP234	ltpFR	18	16	1	RAKE	1164	n/a	0	0	0.5869140625	0.422607421875	upper	../fonts/amplitud.ttf
3368.864	n/a	WORD	1684432	wordpools/wasnorm_wordpool_less_exclusions.txt	LTP234	ltpFR	18	16	1	COCOON	339	n/a	0	0	0.5869140625	0.422607421875	upper	../fonts/amplitud.ttf
3373.03	n/a	WORD	1686515	wordpools/wasnorm_wordpool_less_exclusions.txt	LTP234	ltpFR	18	16	1	DESSERT	453	n/a	0	0	0.5869140625	0.422607421875	upper	../fonts/amplitud.ttf
3376.896	n/a	WORD	1688448	wordpools/wasnorm_wordpool_less_exclusions.txt	LTP234	ltpFR	18	16	1	CINNAMON	310	n/a	0	0	0.5869140625	0.422607421875	upper	../fonts/amplitud.ttf
3381.058	n/a	WORD	1690529	wordpools/wasnorm_wordpool_less_exclusions.txt	LTP234	ltpFR	18	16	1	BUYER	208	n/a	1	0	0.5869140625	0.422607421875	upper	../fonts/amplitud.ttf
3385.278	n/a	WORD	1692639	wordpools/wasnorm_wordpool_less_exclusions.txt	LTP234	ltpFR	18	16	1	CUSTOMER	430	n/a	1	0	0.5869140625	0.422607421875	upper	../fonts/amplitud.ttf
3389.36	n/a	WORD	1694680	wordpools/wasnorm_wordpool_less_exclusions.txt	LTP234	ltpFR	18	16	1	MATCH	878	n/a	0	0	0.5869140625	0.422607421875	upper	../fonts/amplitud.ttf
3393.408	n/a	WORD	1696704	wordpools/wasnorm_wordpool_less_exclusions.txt	LTP234	ltpFR	18	16	1	PARSLEY	1016	n/a	0	0	0.5869140625	0.422607421875	upper	../fonts/amplitud.ttf
3397.356	n/a	WORD	1698678	wordpools/wasnorm_wordpool_less_exclusions.txt	LTP234	ltpFR	18	16	1	EMPEROR	529	n/a	1	0	0.5869140625	0.422607421875	upper	../fonts/amplitud.ttf
3401.404	n/a	WORD	1700702	wordpools/wasnorm_wordpool_less_exclusions.txt	LTP234	ltpFR	18	16	1	STEW	1380	n/a	0	0	0.5869140625	0.422607421875	upper	../fonts/amplitud.ttf
3407.442	n/a	REC_START	1703721	n/a	LTP234	ltpFR	18	16	n/a	n/a	n/a	n/a	n/a	n/a	n/a	n/a	n/a	n/a
3407.442	n/a	REC_WORD	1703721	wordpools/wasnorm_wordpool_less_exclusions.txt	LTP234	ltpFR	18	16	1	STEW	1380	n/a	0	n/a	n/a	n/a	n/a	n/a
3408.388	n/a	REC_WORD	1704194	wordpools/wasnorm_wordpool_less_exclusions.txt	LTP234	ltpFR	18	16	1	INFANT	737	n/a	1	n/a	n/a	n/a	n/a	n/a
3408.932	n/a	REC_WORD	1704466	wordpools/wasnorm_wordpool_less_exclusions.txt	LTP234	ltpFR	18	16	1	RATTLE	1170	n/a	0	n/a	n/a	n/a	n/a	n/a
3409.682	n/a	REC_WORD	1704841	wordpools/wasnorm_wordpool_less_exclusions.txt	LTP234	ltpFR	18	16	1	CASTLE	256	n/a	0	n/a	n/a	n/a	n/a	n/a
3414.406	n/a	REC_WORD	1707203	wordpools/wasnorm_wordpool_less_exclusions.txt	LTP234	ltpFR	18	16	1	MATCH	878	n/a	0	n/a	n/a	n/a	n/a	n/a
3415.758	n/a	REC_WORD	1707879	wordpools/wasnorm_wordpool_less_exclusions.txt	LTP234	ltpFR	18	16	1	BUYER	208	n/a	1	n/a	n/a	n/a	n/a	n/a
3416.292	n/a	REC_WORD	1708146	wordpools/wasnorm_wordpool_less_exclusions.txt	LTP234	ltpFR	18	16	1	CUSTOMER	430	n/a	1	n/a	n/a	n/a	n/a	n/a
3423.006	n/a	REC_WORD	1711503	wordpools/wasnorm_wordpool_less_exclusions.txt	LTP234	ltpFR	18	16	1	EMPEROR	529	n/a	1	n/a	n/a	n/a	n/a	n/a
3437.658	n/a	REC_WORD	1718829	wordpools/wasnorm_wordpool_less_exclusions.txt	LTP234	ltpFR	18	16	1	LABEL	790	n/a	0	n/a	n/a	n/a	n/a	n/a
3438.512	n/a	REC_WORD	1719256	wordpools/wasnorm_wordpool_less_exclusions.txt	LTP234	ltpFR	18	16	1	ZEBRA	1635	n/a	1	n/a	n/a	n/a	n/a	n/a
3501.038	n/a	REC_START	1750519	n/a	LTP234	ltpFR	18	1	n/a	n/a	n/a	n/a	n/a	n/a	n/a	n/a	n/a	n/a
3501.086	n/a	RECOG_TARGET	1750543	n/a	LTP234	ltpFR	18	1	0	CHURCH	307	2	1	n/a	n/a	n/a	n/a	n/a
3502.978	n/a	RECOG_RESP	1751489	n/a	LTP234	ltpFR	18	1	0	CHURCH	307	n/a	1	n/a	n/a	n/a	n/a	n/a
3503.93	n/a	RECOG_CONF	1751965	n/a	LTP234	ltpFR	18	1	0	CHURCH	307	2	1	n/a	n/a	n/a	n/a	n/a
3505.586	n/a	RECOG_TARGET	1752793	n/a	LTP234	ltpFR	18	1	1	ZEBRA	1635	5	1	n/a	n/a	n/a	n/a	n/a
3506.116	n/a	RECOG_RESP	1753058	n/a	LTP234	ltpFR	18	1	1	ZEBRA	1635	n/a	1	n/a	n/a	n/a	n/a	n/a
3506.85	n/a	RECOG_CONF	1753425	n/a	LTP234	ltpFR	18	1	1	ZEBRA	1635	5	1	n/a	n/a	n/a	n/a	n/a
3508.396	n/a	RECOG_TARGET	1754198	n/a	LTP234	ltpFR	18	1	1	VACUUM	1543	5	0	n/a	n/a	n/a	n/a	n/a
3508.932	n/a	RECOG_RESP	1754466	n/a	LTP234	ltpFR	18	1	1	VACUUM	1543	n/a	0	n/a	n/a	n/a	n/a	n/a
3509.534	n/a	RECOG_CONF	1754767	n/a	LTP234	ltpFR	18	1	1	VACUUM	1543	5	0	n/a	n/a	n/a	n/a	n/a
3511.074	n/a	RECOG_TARGET	1755537	n/a	LTP234	ltpFR	18	1	1	INSTRUCTOR	741	5	1	n/a	n/a	n/a	n/a	n/a
3511.606	n/a	RECOG_RESP	1755803	n/a	LTP234	ltpFR	18	1	1	INSTRUCTOR	741	n/a	1	n/a	n/a	n/a	n/a	n/a
3512.246	n/a	RECOG_CONF	1756123	n/a	LTP234	ltpFR	18	1	1	INSTRUCTOR	741	5	1	n/a	n/a	n/a	n/a	n/a
3513.918	n/a	RECOG_TARGET	1756959	n/a	LTP234	ltpFR	18	1	-1	PANTS	1010	3	-1	n/a	n/a	n/a	n/a	n/a
3514.582	n/a	RECOG_RESP	1757291	n/a	LTP234	ltpFR	18	1	-1	PANTS	1010	n/a	-1	n/a	n/a	n/a	n/a	n/a
3515.264	n/a	RECOG_CONF	1757632	n/a	LTP234	ltpFR	18	1	-1	PANTS	1010	3	-1	n/a	n/a	n/a	n/a	n/a
3516.78	n/a	RECOG_TARGET	1758390	n/a	LTP234	ltpFR	18	1	1	FOOTBALL	591	5	0	n/a	n/a	n/a	n/a	n/a
3517.386	n/a	RECOG_RESP	1758693	n/a	LTP234	ltpFR	18	1	1	FOOTBALL	591	n/a	0	n/a	n/a	n/a	n/a	n/a
3517.918	n/a	RECOG_CONF	1758959	n/a	LTP234	ltpFR	18	1	1	FOOTBALL	591	5	0	n/a	n/a	n/a	n/a	n/a
3519.49	n/a	RECOG_LURE	1759745	n/a	LTP234	ltpFR	18	1	n/a	SUPERVISOR	1410	3	n/a	n/a	n/a	n/a	n/a	n/a
3520.396	n/a	RECOG_RESP	1760198	n/a	LTP234	ltpFR	18	1	n/a	SUPERVISOR	1410	n/a	n/a	n/a	n/a	n/a	n/a	n/a
3521.17	n/a	RECOG_CONF	1760585	n/a	LTP234	ltpFR	18	1	n/a	SUPERVISOR	1410	3	n/a	n/a	n/a	n/a	n/a	n/a
3522.702	n/a	RECOG_LURE	1761351	n/a	LTP234	ltpFR	18	1	n/a	COOKBOOK	373	5	n/a	n/a	n/a	n/a	n/a	n/a
3523.49	n/a	RECOG_RESP	1761745	n/a	LTP234	ltpFR	18	1	n/a	COOKBOOK	373	n/a	n/a	n/a	n/a	n/a	n/a	n/a
3524.1	n/a	RECOG_CONF	1762050	n/a	LTP234	ltpFR	18	1	n/a	COOKBOOK	373	5	n/a	n/a	n/a	n/a	n/a	n/a
3525.558	n/a	RECOG_TARGET	1762779	n/a	LTP234	ltpFR	18	1	-1	BARLEY	88	5	-1	n/a	n/a	n/a	n/a	n/a
3526.428	n/a	RECOG_RESP	1763214	n/a	LTP234	ltpFR	18	1	-1	BARLEY	88	n/a	-1	n/a	n/a	n/a	n/a	n/a
3526.9	n/a	RECOG_CONF	1763450	n/a	LTP234	ltpFR	18	1	-1	BARLEY	88	5	-1	n/a	n/a	n/a	n/a	n/a
3528.54	n/a	RECOG_TARGET	1764270	n/a	LTP234	ltpFR	18	1	-1	CAFETERIA	217	4	-1	n/a	n/a	n/a	n/a	n/a
3529.608	n/a	RECOG_RESP	1764804	n/a	LTP234	ltpFR	18	1	-1	CAFETERIA	217	n/a	-1	n/a	n/a	n/a	n/a	n/a
3530.426	n/a	RECOG_CONF	1765213	n/a	LTP234	ltpFR	18	1	-1	CAFETERIA	217	4	-1	n/a	n/a	n/a	n/a	n/a
3532.004	n/a	RECOG_TARGET	1766002	n/a	LTP234	ltpFR	18	1	0	LIMB	822	5	0	n/a	n/a	n/a	n/a	n/a
3532.628	n/a	RECOG_RESP	1766314	n/a	LTP234	ltpFR	18	1	0	LIMB	822	n/a	0	n/a	n/a	n/a	n/a	n/a
3533.112	n/a	RECOG_CONF	1766556	n/a	LTP234	ltpFR	18	1	0	LIMB	822	5	0	n/a	n/a	n/a	n/a	n/a
3534.694	n/a	RECOG_TARGET	1767347	n/a	LTP234	ltpFR	18	1	0	CARD	243	5	0	n/a	n/a	n/a	n/a	n/a
3535.296	n/a	RECOG_RESP	1767648	n/a	LTP234	ltpFR	18	1	0	CARD	243	n/a	0	n/a	n/a	n/a	n/a	n/a
3535.836	n/a	RECOG_CONF	1767918	n/a	LTP234	ltpFR	18	1	0	CARD	243	5	0	n/a	n/a	n/a	n/a	n/a
3537.424	n/a	RECOG_LURE	1768712	n/a	LTP234	ltpFR	18	1	n/a	MONSTER	912	3	n/a	n/a	n/a	n/a	n/a	n/a
3538.314	n/a	RECOG_RESP	1769157	n/a	LTP234	ltpFR	18	1	n/a	MONSTER	912	n/a	n/a	n/a	n/a	n/a	n/a	n/a
3538.944	n/a	RECOG_CONF	1769472	n/a	LTP234	ltpFR	18	1	n/a	MONSTER	912	3	n/a	n/a	n/a	n/a	n/a	n/a
3540.47	n/a	RECOG_TARGET	1770235	n/a	LTP234	ltpFR	18	1	1	HAM	678	5	0	n/a	n/a	n/a	n/a	n/a
3541.314	n/a	RECOG_RESP	1770657	n/a	LTP234	ltpFR	18	1	1	HAM	678	n/a	0	n/a	n/a	n/a	n/a	n/a
3541.842	n/a	RECOG_CONF	1770921	n/a	LTP234	ltpFR	18	1	1	HAM	678	5	0	n/a	n/a	n/a	n/a	n/a
3543.194	n/a	RECOG_TARGET	1771597	n/a	LTP234	ltpFR	18	1	0	HARP	689	5	1	n/a	n/a	n/a	n/a	n/a
3543.74	n/a	RECOG_RESP	1771870	n/a	LTP234	ltpFR	18	1	0	HARP	689	n/a	1	n/a	n/a	n/a	n/a	n/a
3544.366	n/a	RECOG_CONF	1772183	n/a	LTP234	ltpFR	18	1	0	HARP	689	5	1	n/a	n/a	n/a	n/a	n/a
3545.892	n/a	RECOG_LURE	1772946	n/a	LTP234	ltpFR	18	1	n/a	CALF	222	2	n/a	n/a	n/a	n/a	n/a	n/a
3546.65	n/a	RECOG_RESP	1773325	n/a	LTP234	ltpFR	18	1	n/a	CALF	222	n/a	n/a	n/a	n/a	n/a	n/a	n/a
3547.574	n/a	RECOG_CONF	1773787	n/a	LTP234	ltpFR	18	1	n/a	CALF	222	2	n/a	n/a	n/a	n/a	n/a	n/a
3549.154	n/a	RECOG_TARGET	1774577	n/a	LTP234	ltpFR	18	1	1	BANQUET	86	5	0	n/a	n/a	n/a	n/a	n/a
3549.772	n/a	RECOG_RESP	1774886	n/a	LTP234	ltpFR	18	1	1	BANQUET	86	n/a	0	n/a	n/a	n/a	n/a	n/a
3550.246	n/a	RECOG_CONF	1775123	n/a	LTP234	ltpFR	18	1	1	BANQUET	86	5	0	n/a	n/a	n/a	n/a	n/a
3551.83	n/a	RECOG_LURE	1775915	n/a	LTP234	ltpFR	18	1	n/a	PAWN	1030	4	n/a	n/a	n/a	n/a	n/a	n/a
3552.67	n/a	RECOG_RESP	1776335	n/a	LTP234	ltpFR	18	1	n/a	PAWN	1030	n/a	n/a	n/a	n/a	n/a	n/a	n/a
3553.466	n/a	RECOG_CONF	1776733	n/a	LTP234	ltpFR	18	1	n/a	PAWN	1030	4	n/a	n/a	n/a	n/a	n/a	n/a
3554.99	n/a	RECOG_TARGET	1777495	n/a	LTP234	ltpFR	18	1	0	ANTENNA	28	5	0	n/a	n/a	n/a	n/a	n/a
3555.652	n/a	RECOG_RESP	1777826	n/a	LTP234	ltpFR	18	1	0	ANTENNA	28	n/a	0	n/a	n/a	n/a	n/a	n/a
3556.19	n/a	RECOG_CONF	1778095	n/a	LTP234	ltpFR	18	1	0	ANTENNA	28	5	0	n/a	n/a	n/a	n/a	n/a
3557.686	n/a	RECOG_TARGET	1778843	n/a	LTP234	ltpFR	18	1	-1	OLIVE	975	5	-1	n/a	n/a	n/a	n/a	n/a
3558.378	n/a	RECOG_RESP	1779189	n/a	LTP234	ltpFR	18	1	-1	OLIVE	975	n/a	-1	n/a	n/a	n/a	n/a	n/a
3559.372	n/a	RECOG_CONF	1779686	n/a	LTP234	ltpFR	18	1	-1	OLIVE	975	5	-1	n/a	n/a	n/a	n/a	n/a
3562.82	n/a	REC_START	1781410	n/a	LTP234	ltpFR	18	2	n/a	n/a	n/a	n/a	n/a	n/a	n/a	n/a	n/a	n/a
3562.872	n/a	RECOG_LURE	1781436	n/a	LTP234	ltpFR	18	2	n/a	BOUILLON	154	5	n/a	n/a	n/a	n/a	n/a	n/a
3563.826	n/a	RECOG_RESP	1781913	n/a	LTP234	ltpFR	18	2	n/a	BOUILLON	154	n/a	n/a	n/a	n/a	n/a	n/a	n/a
3564.348	n/a	RECOG_CONF	1782174	n/a	LTP234	ltpFR	18	2	n/a	BOUILLON	154	5	n/a	n/a	n/a	n/a	n/a	n/a
3565.884	n/a	RECOG_LURE	1782942	n/a	LTP234	ltpFR	18	2	n/a	BULB	192	5	n/a	n/a	n/a	n/a	n/a	n/a
3566.774	n/a	RECOG_RESP	1783387	n/a	LTP234	ltpFR	18	2	n/a	BULB	192	n/a	n/a	n/a	n/a	n/a	n/a	n/a
3567.336	n/a	RECOG_CONF	1783668	n/a	LTP234	ltpFR	18	2	n/a	BULB	192	5	n/a	n/a	n/a	n/a	n/a	n/a
3568.744	n/a	RECOG_TARGET	1784372	n/a	LTP234	ltpFR	18	2	0	BRIEFCASE	175	5	1	n/a	n/a	n/a	n/a	n/a
3569.434	n/a	RECOG_RESP	1784717	n/a	LTP234	ltpFR	18	2	0	BRIEFCASE	175	n/a	1	n/a	n/a	n/a	n/a	n/a
3569.876	n/a	RECOG_CONF	1784938	n/a	LTP234	ltpFR	18	2	0	BRIEFCASE	175	5	1	n/a	n/a	n/a	n/a	n/a
3571.238	n/a	RECOG_TARGET	1785619	n/a	LTP234	ltpFR	18	2	1	TRAY	1498	5	0	n/a	n/a	n/a	n/a	n/a
3571.774	n/a	RECOG_RESP	1785887	n/a	LTP234	ltpFR	18	2	1	TRAY	1498	n/a	0	n/a	n/a	n/a	n/a	n/a
3572.336	n/a	RECOG_CONF	1786168	n/a	LTP234	ltpFR	18	2	1	TRAY	1498	5	0	n/a	n/a	n/a	n/a	n/a
3573.696	n/a	RECOG_TARGET	1786848	n/a	LTP234	ltpFR	18	2	1	CORPORATION	382	5	0	n/a	n/a	n/a	n/a	n/a
3574.314	n/a	RECOG_RESP	1787157	n/a	LTP234	ltpFR	18	2	1	CORPORATION	382	n/a	0	n/a	n/a	n/a	n/a	n/a
3574.888	n/a	RECOG_CONF	1787444	n/a	LTP234	ltpFR	18	2	1	CORPORATION	382	5	0	n/a	n/a	n/a	n/a	n/a
3576.42	n/a	RECOG_LURE	1788210	n/a	LTP234	ltpFR	18	2	n/a	LODGE	839	3	n/a	n/a	n/a	n/a	n/a	n/a
3578.014	n/a	RECOG_RESP	1789007	n/a	LTP234	ltpFR	18	2	n/a	LODGE	839	n/a	n/a	n/a	n/a	n/a	n/a	n/a
3578.612	n/a	RECOG_CONF	1789306	n/a	LTP234	ltpFR	18	2	n/a	LODGE	839	3	n/a	n/a	n/a	n/a	n/a	n/a
3580.156	n/a	RECOG_TARGET	1790078	n/a	LTP234	ltpFR	18	2	0	CORN	381	5	0	n/a	n/a	n/a	n/a	n/a
3580.756	n/a	RECOG_RESP	1790378	n/a	LTP234	ltpFR	18	2	0	CORN	381	n/a	0	n/a	n/a	n/a	n/a	n/a
3581.354	n/a	RECOG_CONF	1790677	n/a	LTP234	ltpFR	18	2	0	CORN	381	5	0	n/a	n/a	n/a	n/a	n/a
3582.882	n/a	RECOG_TARGET	1791441	n/a	LTP234	ltpFR	18	2	1	FOLDER	588	5	0	n/a	n/a	n/a	n/a	n/a
3583.482	n/a	RECOG_RESP	1791741	n/a	LTP234	ltpFR	18	2	1	FOLDER	588	n/a	0	n/a	n/a	n/a	n/a	n/a
3584.058	n/a	RECOG_CONF	1792029	n/a	LTP234	ltpFR	18	2	1	FOLDER	588	5	0	n/a	n/a	n/a	n/a	n/a
3585.642	n/a	RECOG_TARGET	1792821	n/a	LTP234	ltpFR	18	2	1	TIDE	1465	5	0	n/a	n/a	n/a	n/a	n/a
3586.216	n/a	RECOG_RESP	1793108	n/a	LTP234	ltpFR	18	2	1	TIDE	1465	n/a	0	n/a	n/a	n/a	n/a	n/a
3586.802	n/a	RECOG_CONF	1793401	n/a	LTP234	ltpFR	18	2	1	TIDE	1465	5	0	n/a	n/a	n/a	n/a	n/a
3588.27	n/a	RECOG_LURE	1794135	n/a	LTP234	ltpFR	18	2	n/a	PEDAL	1037	2	n/a	n/a	n/a	n/a	n/a	n/a
3589.346	n/a	RECOG_RESP	1794673	n/a	LTP234	ltpFR	18	2	n/a	PEDAL	1037	n/a	n/a	n/a	n/a	n/a	n/a	n/a
3590.212	n/a	RECOG_CONF	1795106	n/a	LTP234	ltpFR	18	2	n/a	PEDAL	1037	2	n/a	n/a	n/a	n/a	n/a	n/a
3591.85	n/a	RECOG_TARGET	1795925	n/a	LTP234	ltpFR	18	2	1	EMERALD	528	5	0	n/a	n/a	n/a	n/a	n/a
3592.418	n/a	RECOG_RESP	1796209	n/a	LTP234	ltpFR	18	2	1	EMERALD	528	n/a	0	n/a	n/a	n/a	n/a	n/a
3593.108	n/a	RECOG_CONF	1796554	n/a	LTP234	ltpFR	18	2	1	EMERALD	528	5	0	n/a	n/a	n/a	n/a	n/a
3594.56	n/a	RECOG_TARGET	1797280	n/a	LTP234	ltpFR	18	2	1	RIVER	1194	5	0	n/a	n/a	n/a	n/a	n/a
3595.148	n/a	RECOG_RESP	1797574	n/a	LTP234	ltpFR	18	2	1	RIVER	1194	n/a	0	n/a	n/a	n/a	n/a	n/a
3595.632	n/a	RECOG_CONF	1797816	n/a	LTP234	ltpFR	18	2	1	RIVER	1194	5	0	n/a	n/a	n/a	n/a	n/a
3597.166	n/a	RECOG_TARGET	1798583	n/a	LTP234	ltpFR	18	2	0	SALESMAN	1225	5	1	n/a	n/a	n/a	n/a	n/a
3597.722	n/a	RECOG_RESP	1798861	n/a	LTP234	ltpFR	18	2	0	SALESMAN	1225	n/a	1	n/a	n/a	n/a	n/a	n/a
3598.216	n/a	RECOG_CONF	1799108	n/a	LTP234	ltpFR	18	2	0	SALESMAN	1225	5	1	n/a	n/a	n/a	n/a	n/a
3599.776	n/a	RECOG_TARGET	1799888	n/a	LTP234	ltpFR	18	2	1	PEACH	1031	5	0	n/a	n/a	n/a	n/a	n/a
3600.398	n/a	RECOG_RESP	1800199	n/a	LTP234	ltpFR	18	2	1	PEACH	1031	n/a	0	n/a	n/a	n/a	n/a	n/a
3600.836	n/a	RECOG_CONF	1800418	n/a	LTP234	ltpFR	18	2	1	PEACH	1031	5	0	n/a	n/a	n/a	n/a	n/a
3602.54	n/a	RECOG_TARGET	1801270	n/a	LTP234	ltpFR	18	2	0	OPERA	978	3	1	n/a	n/a	n/a	n/a	n/a
3603.01	n/a	RECOG_RESP_VV	1801505	n/a	LTP234	ltpFR	18	2	0	OPERA	978	n/a	1	n/a	n/a	n/a	n/a	n/a
3603.722	n/a	RECOG_RESP	1801861	n/a	LTP234	ltpFR	18	2	0	OPERA	978	n/a	1	n/a	n/a	n/a	n/a	n/a
3604.364	n/a	RECOG_CONF	1802182	n/a	LTP234	ltpFR	18	2	0	OPERA	978	3	1	n/a	n/a	n/a	n/a	n/a
3606.054	n/a	RECOG_TARGET	1803027	n/a	LTP234	ltpFR	18	2	1	QUAIL	1147	5	1	n/a	n/a	n/a	n/a	n/a
3606.88	n/a	RECOG_RESP	1803440	n/a	LTP234	ltpFR	18	2	1	QUAIL	1147	n/a	1	n/a	n/a	n/a	n/a	n/a
3607.386	n/a	RECOG_CONF	1803693	n/a	LTP234	ltpFR	18	2	1	QUAIL	1147	5	1	n/a	n/a	n/a	n/a	n/a
3608.914	n/a	RECOG_TARGET	1804457	n/a	LTP234	ltpFR	18	2	-1	SPACE	1345	5	-1	n/a	n/a	n/a	n/a	n/a
3609.5	n/a	RECOG_RESP	1804750	n/a	LTP234	ltpFR	18	2	-1	SPACE	1345	n/a	-1	n/a	n/a	n/a	n/a	n/a
3610.06	n/a	RECOG_CONF	1805030	n/a	LTP234	ltpFR	18	2	-1	SPACE	1345	5	-1	n/a	n/a	n/a	n/a	n/a
3611.558	n/a	RECOG_TARGET	1805779	n/a	LTP234	ltpFR	18	2	0	SHRIMP	1297	5	0	n/a	n/a	n/a	n/a	n/a
3612.064	n/a	RECOG_RESP	1806032	n/a	LTP234	ltpFR	18	2	0	SHRIMP	1297	n/a	0	n/a	n/a	n/a	n/a	n/a
3612.566	n/a	RECOG_CONF	1806283	n/a	LTP234	ltpFR	18	2	0	SHRIMP	1297	5	0	n/a	n/a	n/a	n/a	n/a
3614.002	n/a	RECOG_LURE	1807001	n/a	LTP234	ltpFR	18	2	n/a	SIREN	1310	5	n/a	n/a	n/a	n/a	n/a	n/a
3614.694	n/a	RECOG_RESP	1807347	n/a	LTP234	ltpFR	18	2	n/a	SIREN	1310	n/a	n/a	n/a	n/a	n/a	n/a	n/a
3615.16	n/a	RECOG_CONF	1807580	n/a	LTP234	ltpFR	18	2	n/a	SIREN	1310	5	n/a	n/a	n/a	n/a	n/a	n/a
3616.624	n/a	RECOG_TARGET	1808312	n/a	LTP234	ltpFR	18	2	-1	TAG	1429	5	-1	n/a	n/a	n/a	n/a	n/a
3617.206	n/a	RECOG_RESP	1808603	n/a	LTP234	ltpFR	18	2	-1	TAG	1429	n/a	-1	n/a	n/a	n/a	n/a	n/a
3617.684	n/a	RECOG_CONF	1808842	n/a	LTP234	ltpFR	18	2	-1	TAG	1429	5	-1	n/a	n/a	n/a	n/a	n/a
3620.68	n/a	REC_START	1810340	n/a	LTP234	ltpFR	18	3	n/a	n/a	n/a	n/a	n/a	n/a	n/a	n/a	n/a	n/a
3620.74	n/a	RECOG_TARGET	1810370	n/a	LTP234	ltpFR	18	3	-1	GOVERNOR	651	5	-1	n/a	n/a	n/a	n/a	n/a
3621.778	n/a	RECOG_RESP	1810889	n/a	LTP234	ltpFR	18	3	-1	GOVERNOR	651	n/a	-1	n/a	n/a	n/a	n/a	n/a
3622.28	n/a	RECOG_CONF	1811140	n/a	LTP234	ltpFR	18	3	-1	GOVERNOR	651	5	-1	n/a	n/a	n/a	n/a	n/a
3623.554	n/a	RECOG_TARGET	1811777	n/a	LTP234	ltpFR	18	3	0	LOAF	835	5	0	n/a	n/a	n/a	n/a	n/a
3624.172	n/a	RECOG_RESP	1812086	n/a	LTP234	ltpFR	18	3	0	LOAF	835	n/a	0	n/a	n/a	n/a	n/a	n/a
3624.638	n/a	RECOG_CONF	1812319	n/a	LTP234	ltpFR	18	3	0	LOAF	835	5	0	n/a	n/a	n/a	n/a	n/a
3625.964	n/a	RECOG_TARGET	1812982	n/a	LTP234	ltpFR	18	3	-1	ELF	525	5	-1	n/a	n/a	n/a	n/a	n/a
3626.474	n/a	RECOG_RESP	1813237	n/a	LTP234	ltpFR	18	3	-1	ELF	525	n/a	-1	n/a	n/a	n/a	n/a	n/a
3626.95	n/a	RECOG_CONF	1813475	n/a	LTP234	ltpFR	18	3	-1	ELF	525	5	-1	n/a	n/a	n/a	n/a	n/a
3628.506	n/a	RECOG_TARGET	1814253	n/a	LTP234	ltpFR	18	3	0	NEWSSTAND	949	5	1	n/a	n/a	n/a	n/a	n/a
3629.1	n/a	RECOG_RESP	1814550	n/a	LTP234	ltpFR	18	3	0	NEWSSTAND	949	n/a	1	n/a	n/a	n/a	n/a	n/a
3629.574	n/a	RECOG_CONF	1814787	n/a	LTP234	ltpFR	18	3	0	NEWSSTAND	949	5	1	n/a	n/a	n/a	n/a	n/a
3631.084	n/a	RECOG_TARGET	1815542	n/a	LTP234	ltpFR	18	3	-1	ENCYCLOPEDIA	533	5	-1	n/a	n/a	n/a	n/a	n/a
3631.596	n/a	RECOG_RESP	1815798	n/a	LTP234	ltpFR	18	3	-1	ENCYCLOPEDIA	533	n/a	-1	n/a	n/a	n/a	n/a	n/a
3632.08	n/a	RECOG_CONF	1816040	n/a	LTP234	ltpFR	18	3	-1	ENCYCLOPEDIA	533	5	-1	n/a	n/a	n/a	n/a	n/a
3633.626	n/a	RECOG_TARGET	1816813	n/a	LTP234	ltpFR	18	3	0	PIER	1063	5	1	n/a	n/a	n/a	n/a	n/a
3634.276	n/a	RECOG_RESP	1817138	n/a	LTP234	ltpFR	18	3	0	PIER	1063	n/a	1	n/a	n/a	n/a	n/a	n/a
3634.754	n/a	RECOG_CONF	1817377	n/a	LTP234	ltpFR	18	3	0	PIER	1063	5	1	n/a	n/a	n/a	n/a	n/a
3636.186	n/a	RECOG_TARGET	1818093	n/a	LTP234	ltpFR	18	3	-1	APRON	35	5	-1	n/a	n/a	n/a	n/a	n/a
3636.754	n/a	RECOG_RESP	1818377	n/a	LTP234	ltpFR	18	3	-1	APRON	35	n/a	-1	n/a	n/a	n/a	n/a	n/a
3637.248	n/a	RECOG_CONF	1818624	n/a	LTP234	ltpFR	18	3	-1	APRON	35	5	-1	n/a	n/a	n/a	n/a	n/a
3638.644	n/a	RECOG_TARGET	1819322	n/a	LTP234	ltpFR	18	3	0	WOLF	1619	5	1	n/a	n/a	n/a	n/a	n/a
3639.158	n/a	RECOG_RESP	1819579	n/a	LTP234	ltpFR	18	3	0	WOLF	1619	n/a	1	n/a	n/a	n/a	n/a	n/a
3639.682	n/a	RECOG_CONF	1819841	n/a	LTP234	ltpFR	18	3	0	WOLF	1619	5	1	n/a	n/a	n/a	n/a	n/a
3641.122	n/a	RECOG_TARGET	1820561	n/a	LTP234	ltpFR	18	3	1	MONGOOSE	909	5	1	n/a	n/a	n/a	n/a	n/a
3641.75	n/a	RECOG_RESP	1820875	n/a	LTP234	ltpFR	18	3	1	MONGOOSE	909	n/a	1	n/a	n/a	n/a	n/a	n/a
3642.266	n/a	RECOG_CONF	1821133	n/a	LTP234	ltpFR	18	3	1	MONGOOSE	909	5	1	n/a	n/a	n/a	n/a	n/a
3643.646	n/a	RECOG_TARGET	1821823	n/a	LTP234	ltpFR	18	3	1	COIN	343	5	0	n/a	n/a	n/a	n/a	n/a
3644.212	n/a	RECOG_RESP	1822106	n/a	LTP234	ltpFR	18	3	1	COIN	343	n/a	0	n/a	n/a	n/a	n/a	n/a
3644.7	n/a	RECOG_CONF	1822350	n/a	LTP234	ltpFR	18	3	1	COIN	343	5	0	n/a	n/a	n/a	n/a	n/a
3646.258	n/a	RECOG_TARGET	1823129	n/a	LTP234	ltpFR	18	3	1	MOUSE	925	5	0	n/a	n/a	n/a	n/a	n/a
3646.756	n/a	RECOG_RESP	1823378	n/a	LTP234	ltpFR	18	3	1	MOUSE	925	n/a	0	n/a	n/a	n/a	n/a	n/a
3647.234	n/a	RECOG_CONF	1823617	n/a	LTP234	ltpFR	18	3	1	MOUSE	925	5	0	n/a	n/a	n/a	n/a	n/a
3648.78	n/a	RECOG_LURE	1824390	n/a	LTP234	ltpFR	18	3	n/a	HEATER	698	5	n/a	n/a	n/a	n/a	n/a	n/a
3649.466	n/a	RECOG_RESP	1824733	n/a	LTP234	ltpFR	18	3	n/a	HEATER	698	n/a	n/a	n/a	n/a	n/a	n/a	n/a
3649.94	n/a	RECOG_CONF	1824970	n/a	LTP234	ltpFR	18	3	n/a	HEATER	698	5	n/a	n/a	n/a	n/a	n/a	n/a
3651.24	n/a	RECOG_LURE	1825620	n/a	LTP234	ltpFR	18	3	n/a	TOMB	1477	5	n/a	n/a	n/a	n/a	n/a	n/a
3652.034	n/a	RECOG_RESP	1826017	n/a	LTP234	ltpFR	18	3	n/a	TOMB	1477	n/a	n/a	n/a	n/a	n/a	n/a	n/a
3652.544	n/a	RECOG_CONF	1826272	n/a	LTP234	ltpFR	18	3	n/a	TOMB	1477	5	n/a	n/a	n/a	n/a	n/a	n/a
3653.954	n/a	RECOG_LURE	1826977	n/a	LTP234	ltpFR	18	3	n/a	CYCLONE	431	5	n/a	n/a	n/a	n/a	n/a	n/a
3654.668	n/a	RECOG_RESP	1827334	n/a	LTP234	ltpFR	18	3	n/a	CYCLONE	431	n/a	n/a	n/a	n/a	n/a	n/a	n/a
3655.086	n/a	RECOG_CONF	1827543	n/a	LTP234	ltpFR	18	3	n/a	CYCLONE	431	5	n/a	n/a	n/a	n/a	n/a	n/a
3656.68	n/a	RECOG_LURE	1828340	n/a	LTP234	ltpFR	18	3	n/a	PICKLE	1059	5	n/a	n/a	n/a	n/a	n/a	n/a
3657.246	n/a	RECOG_RESP	1828623	n/a	LTP234	ltpFR	18	3	n/a	PICKLE	1059	n/a	n/a	n/a	n/a	n/a	n/a	n/a
3657.762	n/a	RECOG_CONF	1828881	n/a	LTP234	ltpFR	18	3	n/a	PICKLE	1059	5	n/a	n/a	n/a	n/a	n/a	n/a
3659.136	n/a	RECOG_TARGET	1829568	n/a	LTP234	ltpFR	18	3	0	TRACTOR	1493	5	1	n/a	n/a	n/a	n/a	n/a
3659.764	n/a	RECOG_RESP	1829882	n/a	LTP234	ltpFR	18	3	0	TRACTOR	1493	n/a	1	n/a	n/a	n/a	n/a	n/a
3660.276	n/a	RECOG_CONF	1830138	n/a	LTP234	ltpFR	18	3	0	TRACTOR	1493	5	1	n/a	n/a	n/a	n/a	n/a
3661.732	n/a	RECOG_TARGET	1830866	n/a	LTP234	ltpFR	18	3	1	WRITER	1627	5	1	n/a	n/a	n/a	n/a	n/a
3662.31	n/a	RECOG_RESP	1831155	n/a	LTP234	ltpFR	18	3	1	WRITER	1627	n/a	1	n/a	n/a	n/a	n/a	n/a
3662.76	n/a	RECOG_CONF	1831380	n/a	LTP234	ltpFR	18	3	1	WRITER	1627	5	1	n/a	n/a	n/a	n/a	n/a
3664.138	n/a	RECOG_TARGET	1832069	n/a	LTP234	ltpFR	18	3	1	EMPEROR	529	5	1	n/a	n/a	n/a	n/a	n/a
3664.726	n/a	RECOG_RESP	1832363	n/a	LTP234	ltpFR	18	3	1	EMPEROR	529	n/a	1	n/a	n/a	n/a	n/a	n/a
3665.274	n/a	RECOG_CONF	1832637	n/a	LTP234	ltpFR	18	3	1	EMPEROR	529	5	1	n/a	n/a	n/a	n/a	n/a
3666.652	n/a	RECOG_TARGET	1833326	n/a	LTP234	ltpFR	18	3	-1	POLYESTER	1100	5	-1	n/a	n/a	n/a	n/a	n/a
3667.264	n/a	RECOG_RESP	1833632	n/a	LTP234	ltpFR	18	3	-1	POLYESTER	1100	n/a	-1	n/a	n/a	n/a	n/a	n/a
3667.77	n/a	RECOG_CONF	1833885	n/a	LTP234	ltpFR	18	3	-1	POLYESTER	1100	5	-1	n/a	n/a	n/a	n/a	n/a
3669.13	n/a	RECOG_TARGET	1834565	n/a	LTP234	ltpFR	18	3	1	BOLT	146	5	0	n/a	n/a	n/a	n/a	n/a
3669.744	n/a	RECOG_RESP	1834872	n/a	LTP234	ltpFR	18	3	1	BOLT	146	n/a	0	n/a	n/a	n/a	n/a	n/a
3670.224	n/a	RECOG_CONF	1835112	n/a	LTP234	ltpFR	18	3	1	BOLT	146	5	0	n/a	n/a	n/a	n/a	n/a
3673.706	n/a	REC_START	1836853	n/a	LTP234	ltpFR	18	4	n/a	n/a	n/a	n/a	n/a	n/a	n/a	n/a	n/a	n/a
3673.764	n/a	RECOG_TARGET	1836882	n/a	LTP234	ltpFR	18	4	-1	PUMPKIN	1142	5	-1	n/a	n/a	n/a	n/a	n/a
3674.368	n/a	RECOG_RESP	1837184	n/a	LTP234	ltpFR	18	4	-1	PUMPKIN	1142	n/a	-1	n/a	n/a	n/a	n/a	n/a
3674.794	n/a	RECOG_CONF	1837397	n/a	LTP234	ltpFR	18	4	-1	PUMPKIN	1142	5	-1	n/a	n/a	n/a	n/a	n/a
3676.356	n/a	RECOG_TARGET	1838178	n/a	LTP234	ltpFR	18	4	0	TYPEWRITER	1531	5	1	n/a	n/a	n/a	n/a	n/a
3677.124	n/a	RECOG_RESP	1838562	n/a	LTP234	ltpFR	18	4	0	TYPEWRITER	1531	n/a	1	n/a	n/a	n/a	n/a	n/a
3677.602	n/a	RECOG_CONF	1838801	n/a	LTP234	ltpFR	18	4	0	TYPEWRITER	1531	5	1	n/a	n/a	n/a	n/a	n/a
3679.066	n/a	RECOG_TARGET	1839533	n/a	LTP234	ltpFR	18	4	1	SHORE	1291	5	0	n/a	n/a	n/a	n/a	n/a
3679.47	n/a	RECOG_RESP	1839735	n/a	LTP234	ltpFR	18	4	1	SHORE	1291	n/a	0	n/a	n/a	n/a	n/a	n/a
3679.996	n/a	RECOG_CONF	1839998	n/a	LTP234	ltpFR	18	4	1	SHORE	1291	5	0	n/a	n/a	n/a	n/a	n/a
3681.626	n/a	RECOG_TARGET	1840813	n/a	LTP234	ltpFR	18	4	-1	SHRINE	1298	5	-1	n/a	n/a	n/a	n/a	n/a
3682.168	n/a	RECOG_RESP	1841084	n/a	LTP234	ltpFR	18	4	-1	SHRINE	1298	n/a	-1	n/a	n/a	n/a	n/a	n/a
3682.64	n/a	RECOG_CONF	1841320	n/a	LTP234	ltpFR	18	4	-1	SHRINE	1298	5	-1	n/a	n/a	n/a	n/a	n/a
3684.102	n/a	RECOG_TARGET	1842051	n/a	LTP234	ltpFR	18	4	0	ARCHITECT	36	5	1	n/a	n/a	n/a	n/a	n/a
3684.63	n/a	RECOG_RESP	1842315	n/a	LTP234	ltpFR	18	4	0	ARCHITECT	36	n/a	1	n/a	n/a	n/a	n/a	n/a
3685.124	n/a	RECOG_CONF	1842562	n/a	LTP234	ltpFR	18	4	0	ARCHITECT	36	5	1	n/a	n/a	n/a	n/a	n/a
3686.476	n/a	RECOG_TARGET	1843238	n/a	LTP234	ltpFR	18	4	0	PIRATE	1074	5	1	n/a	n/a	n/a	n/a	n/a
3687.094	n/a	RECOG_RESP	1843547	n/a	LTP234	ltpFR	18	4	0	PIRATE	1074	n/a	1	n/a	n/a	n/a	n/a	n/a
3687.544	n/a	RECOG_CONF	1843772	n/a	LTP234	ltpFR	18	4	0	PIRATE	1074	5	1	n/a	n/a	n/a	n/a	n/a
3688.984	n/a	RECOG_TARGET	1844492	n/a	LTP234	ltpFR	18	4	-1	CRITIC	410	5	-1	n/a	n/a	n/a	n/a	n/a
3689.654	n/a	RECOG_RESP	1844827	n/a	LTP234	ltpFR	18	4	-1	CRITIC	410	n/a	-1	n/a	n/a	n/a	n/a	n/a
3690.124	n/a	RECOG_CONF	1845062	n/a	LTP234	ltpFR	18	4	-1	CRITIC	410	5	-1	n/a	n/a	n/a	n/a	n/a
3691.53	n/a	RECOG_TARGET	1845765	n/a	LTP234	ltpFR	18	4	-1	FAIRY	549	5	-1	n/a	n/a	n/a	n/a	n/a
3692.174	n/a	RECOG_RESP	1846087	n/a	LTP234	ltpFR	18	4	-1	FAIRY	549	n/a	-1	n/a	n/a	n/a	n/a	n/a
3692.678	n/a	RECOG_CONF	1846339	n/a	LTP234	ltpFR	18	4	-1	FAIRY	549	5	-1	n/a	n/a	n/a	n/a	n/a
3693.956	n/a	RECOG_TARGET	1846978	n/a	LTP234	ltpFR	18	4	-1	DOCK	477	3	-1	n/a	n/a	n/a	n/a	n/a
3694.868	n/a	RECOG_RESP	1847434	n/a	LTP234	ltpFR	18	4	-1	DOCK	477	n/a	-1	n/a	n/a	n/a	n/a	n/a
3695.424	n/a	RECOG_CONF	1847712	n/a	LTP234	ltpFR	18	4	-1	DOCK	477	3	-1	n/a	n/a	n/a	n/a	n/a
3696.88	n/a	RECOG_TARGET	1848440	n/a	LTP234	ltpFR	18	4	1	MOB	904	5	1	n/a	n/a	n/a	n/a	n/a
3697.418	n/a	RECOG_RESP	1848709	n/a	LTP234	ltpFR	18	4	1	MOB	904	n/a	1	n/a	n/a	n/a	n/a	n/a
3697.876	n/a	RECOG_CONF	1848938	n/a	LTP234	ltpFR	18	4	1	MOB	904	5	1	n/a	n/a	n/a	n/a	n/a
3699.144	n/a	RECOG_LURE	1849572	n/a	LTP234	ltpFR	18	4	n/a	QUARTER	1148	4	n/a	n/a	n/a	n/a	n/a	n/a
3699.982	n/a	RECOG_RESP_VV	1849991	n/a	LTP234	ltpFR	18	4	n/a	QUARTER	1148	n/a	n/a	n/a	n/a	n/a	n/a	n/a
3700.488	n/a	RECOG_RESP	1850244	n/a	LTP234	ltpFR	18	4	n/a	QUARTER	1148	n/a	n/a	n/a	n/a	n/a	n/a	n/a
3701.138	n/a	RECOG_CONF	1850569	n/a	LTP234	ltpFR	18	4	n/a	QUARTER	1148	4	n/a	n/a	n/a	n/a	n/a	n/a
3702.638	n/a	RECOG_TARGET	1851319	n/a	LTP234	ltpFR	18	4	1	SCARF	1246	5	0	n/a	n/a	n/a	n/a	n/a
3703.296	n/a	RECOG_RESP	1851648	n/a	LTP234	ltpFR	18	4	1	SCARF	1246	n/a	0	n/a	n/a	n/a	n/a	n/a
3703.764	n/a	RECOG_CONF	1851882	n/a	LTP234	ltpFR	18	4	1	SCARF	1246	5	0	n/a	n/a	n/a	n/a	n/a
3705.25	n/a	RECOG_TARGET	1852625	n/a	LTP234	ltpFR	18	4	1	VOLUNTEER	1577	5	1	n/a	n/a	n/a	n/a	n/a
3705.782	n/a	RECOG_RESP	1852891	n/a	LTP234	ltpFR	18	4	1	VOLUNTEER	1577	n/a	1	n/a	n/a	n/a	n/a	n/a
3706.258	n/a	RECOG_CONF	1853129	n/a	LTP234	ltpFR	18	4	1	VOLUNTEER	1577	5	1	n/a	n/a	n/a	n/a	n/a
3707.572	n/a	RECOG_TARGET	1853786	n/a	LTP234	ltpFR	18	4	0	BOAT	144	5	1	n/a	n/a	n/a	n/a	n/a
3708.51	n/a	RECOG_RESP	1854255	n/a	LTP234	ltpFR	18	4	0	BOAT	144	n/a	1	n/a	n/a	n/a	n/a	n/a
3708.998	n/a	RECOG_CONF	1854499	n/a	LTP234	ltpFR	18	4	0	BOAT	144	5	1	n/a	n/a	n/a	n/a	n/a
3710.52	n/a	RECOG_TARGET	1855260	n/a	LTP234	ltpFR	18	4	0	KNEE	784	5	0	n/a	n/a	n/a	n/a	n/a
3711.172	n/a	RECOG_RESP	1855586	n/a	LTP234	ltpFR	18	4	0	KNEE	784	n/a	0	n/a	n/a	n/a	n/a	n/a
3711.756	n/a	RECOG_CONF	1855878	n/a	LTP234	ltpFR	18	4	0	KNEE	784	5	0	n/a	n/a	n/a	n/a	n/a
3713.126	n/a	RECOG_LURE	1856563	n/a	LTP234	ltpFR	18	4	n/a	BULLETIN	195	5	n/a	n/a	n/a	n/a	n/a	n/a
3713.918	n/a	RECOG_RESP	1856959	n/a	LTP234	ltpFR	18	4	n/a	BULLETIN	195	n/a	n/a	n/a	n/a	n/a	n/a	n/a
3714.51	n/a	RECOG_CONF	1857255	n/a	LTP234	ltpFR	18	4	n/a	BULLETIN	195	5	n/a	n/a	n/a	n/a	n/a	n/a
3715.99	n/a	RECOG_TARGET	1857995	n/a	LTP234	ltpFR	18	4	1	RATTLE	1170	5	0	n/a	n/a	n/a	n/a	n/a
3716.558	n/a	RECOG_RESP	1858279	n/a	LTP234	ltpFR	18	4	1	RATTLE	1170	n/a	0	n/a	n/a	n/a	n/a	n/a
3717.124	n/a	RECOG_CONF	1858562	n/a	LTP234	ltpFR	18	4	1	RATTLE	1170	5	0	n/a	n/a	n/a	n/a	n/a
3718.55	n/a	RECOG_TARGET	1859275	n/a	LTP234	ltpFR	18	4	1	CASTLE	256	5	0	n/a	n/a	n/a	n/a	n/a
3719.086	n/a	RECOG_RESP	1859543	n/a	LTP234	ltpFR	18	4	1	CASTLE	256	n/a	0	n/a	n/a	n/a	n/a	n/a
3719.542	n/a	RECOG_CONF	1859771	n/a	LTP234	ltpFR	18	4	1	CASTLE	256	5	0	n/a	n/a	n/a	n/a	n/a
3721.01	n/a	RECOG_TARGET	1860505	n/a	LTP234	ltpFR	18	4	-1	NUCLEUS	961	5	-1	n/a	n/a	n/a	n/a	n/a
3721.646	n/a	RECOG_RESP	1860823	n/a	LTP234	ltpFR	18	4	-1	NUCLEUS	961	n/a	-1	n/a	n/a	n/a	n/a	n/a
3722.202	n/a	RECOG_CONF	1861101	n/a	LTP234	ltpFR	18	4	-1	NUCLEUS	961	5	-1	n/a	n/a	n/a	n/a	n/a
3723.618	n/a	RECOG_TARGET	1861809	n/a	LTP234	ltpFR	18	4	0	RIB	1188	5	0	n/a	n/a	n/a	n/a	n/a
3724.304	n/a	RECOG_RESP	1862152	n/a	LTP234	ltpFR	18	4	0	RIB	1188	n/a	0	n/a	n/a	n/a	n/a	n/a
3724.836	n/a	RECOG_CONF	1862418	n/a	LTP234	ltpFR	18	4	0	RIB	1188	5	0	n/a	n/a	n/a	n/a	n/a
3728.794	n/a	REC_START	1864397	n/a	LTP234	ltpFR	18	5	n/a	n/a	n/a	n/a	n/a	n/a	n/a	n/a	n/a	n/a
3728.84	n/a	RECOG_TARGET	1864420	n/a	LTP234	ltpFR	18	5	1	COW	393	5	1	n/a	n/a	n/a	n/a	n/a
3729.488	n/a	RECOG_RESP	1864744	n/a	LTP234	ltpFR	18	5	1	COW	393	n/a	1	n/a	n/a	n/a	n/a	n/a
3730.026	n/a	RECOG_CONF	1865013	n/a	LTP234	ltpFR	18	5	1	COW	393	5	1	n/a	n/a	n/a	n/a	n/a
3731.612	n/a	RECOG_TARGET	1865806	n/a	LTP234	ltpFR	18	5	0	SYRUP	1425	5	0	n/a	n/a	n/a	n/a	n/a
3732.116	n/a	RECOG_RESP	1866058	n/a	LTP234	ltpFR	18	5	0	SYRUP	1425	n/a	0	n/a	n/a	n/a	n/a	n/a
3732.63	n/a	RECOG_CONF	1866315	n/a	LTP234	ltpFR	18	5	0	SYRUP	1425	5	0	n/a	n/a	n/a	n/a	n/a
3734.128	n/a	RECOG_TARGET	1867064	n/a	LTP234	ltpFR	18	5	0	SHORTCAKE	1292	5	0	n/a	n/a	n/a	n/a	n/a
3734.73	n/a	RECOG_RESP	1867365	n/a	LTP234	ltpFR	18	5	0	SHORTCAKE	1292	n/a	0	n/a	n/a	n/a	n/a	n/a
3735.224	n/a	RECOG_CONF	1867612	n/a	LTP234	ltpFR	18	5	0	SHORTCAKE	1292	5	0	n/a	n/a	n/a	n/a	n/a
3736.716	n/a	RECOG_TARGET	1868358	n/a	LTP234	ltpFR	18	5	1	SUIT	1402	5	0	n/a	n/a	n/a	n/a	n/a
3737.31	n/a	RECOG_RESP	1868655	n/a	LTP234	ltpFR	18	5	1	SUIT	1402	n/a	0	n/a	n/a	n/a	n/a	n/a
3737.754	n/a	RECOG_CONF	1868877	n/a	LTP234	ltpFR	18	5	1	SUIT	1402	5	0	n/a	n/a	n/a	n/a	n/a
3739.31	n/a	RECOG_TARGET	1869655	n/a	LTP234	ltpFR	18	5	-1	CROWN	415	5	-1	n/a	n/a	n/a	n/a	n/a
3739.876	n/a	RECOG_RESP	1869938	n/a	LTP234	ltpFR	18	5	-1	CROWN	415	n/a	-1	n/a	n/a	n/a	n/a	n/a
3740.334	n/a	RECOG_CONF	1870167	n/a	LTP234	ltpFR	18	5	-1	CROWN	415	5	-1	n/a	n/a	n/a	n/a	n/a
3741.886	n/a	RECOG_TARGET	1870943	n/a	LTP234	ltpFR	18	5	-1	DONOR	485	5	-1	n/a	n/a	n/a	n/a	n/a
3742.45	n/a	RECOG_RESP	1871225	n/a	LTP234	ltpFR	18	5	-1	DONOR	485	n/a	-1	n/a	n/a	n/a	n/a	n/a
3742.948	n/a	RECOG_CONF	1871474	n/a	LTP234	ltpFR	18	5	-1	DONOR	485	5	-1	n/a	n/a	n/a	n/a	n/a
3744.584	n/a	RECOG_LURE	1872292	n/a	LTP234	ltpFR	18	5	n/a	CLIMBER	323	5	n/a	n/a	n/a	n/a	n/a	n/a
3746.138	n/a	RECOG_RESP	1873069	n/a	LTP234	ltpFR	18	5	n/a	CLIMBER	323	n/a	n/a	n/a	n/a	n/a	n/a	n/a
3747.388	n/a	RECOG_CONF	1873694	n/a	LTP234	ltpFR	18	5	n/a	CLIMBER	323	5	n/a	n/a	n/a	n/a	n/a	n/a
3749.102	n/a	RECOG_TARGET	1874551	n/a	LTP234	ltpFR	18	5	1	KING	777	5	1	n/a	n/a	n/a	n/a	n/a
3749.678	n/a	RECOG_RESP	1874839	n/a	LTP234	ltpFR	18	5	1	KING	777	n/a	1	n/a	n/a	n/a	n/a	n/a
3750.132	n/a	RECOG_CONF	1875066	n/a	LTP234	ltpFR	18	5	1	KING	777	5	1	n/a	n/a	n/a	n/a	n/a
3751.676	n/a	RECOG_TARGET	1875838	n/a	LTP234	ltpFR	18	5	0	PERFUME	1049	2	0	n/a	n/a	n/a	n/a	n/a
3752.482	n/a	RECOG_RESP	1876241	n/a	LTP234	ltpFR	18	5	0	PERFUME	1049	n/a	0	n/a	n/a	n/a	n/a	n/a
3753.414	n/a	RECOG_CONF	1876707	n/a	LTP234	ltpFR	18	5	0	PERFUME	1049	2	0	n/a	n/a	n/a	n/a	n/a
3754.99	n/a	RECOG_TARGET	1877495	n/a	LTP234	ltpFR	18	5	1	RADIATOR	1156	1	0	n/a	n/a	n/a	n/a	n/a
3755.88	n/a	RECOG_RESP	1877940	n/a	LTP234	ltpFR	18	5	1	RADIATOR	1156	n/a	0	n/a	n/a	n/a	n/a	n/a
3757.256	n/a	RECOG_CONF	1878628	n/a	LTP234	ltpFR	18	5	1	RADIATOR	1156	1	0	n/a	n/a	n/a	n/a	n/a
3758.804	n/a	RECOG_LURE	1879402	n/a	LTP234	ltpFR	18	5	n/a	EXPLOSION	544	2	n/a	n/a	n/a	n/a	n/a	n/a
3759.832	n/a	RECOG_RESP	1879916	n/a	LTP234	ltpFR	18	5	n/a	EXPLOSION	544	n/a	n/a	n/a	n/a	n/a	n/a	n/a
3760.796	n/a	RECOG_CONF	1880398	n/a	LTP234	ltpFR	18	5	n/a	EXPLOSION	544	2	n/a	n/a	n/a	n/a	n/a	n/a
3762.352	n/a	RECOG_LURE	1881176	n/a	LTP234	ltpFR	18	5	n/a	CHECKERS	285	4	n/a	n/a	n/a	n/a	n/a	n/a
3763.66	n/a	RECOG_RESP	1881830	n/a	LTP234	ltpFR	18	5	n/a	CHECKERS	285	n/a	n/a	n/a	n/a	n/a	n/a	n/a
3764.36	n/a	RECOG_CONF	1882180	n/a	LTP234	ltpFR	18	5	n/a	CHECKERS	285	4	n/a	n/a	n/a	n/a	n/a	n/a
3765.848	n/a	RECOG_TARGET	1882924	n/a	LTP234	ltpFR	18	5	0	KLEENEX	782	5	0	n/a	n/a	n/a	n/a	n/a
3766.488	n/a	RECOG_RESP	1883244	n/a	LTP234	ltpFR	18	5	0	KLEENEX	782	n/a	0	n/a	n/a	n/a	n/a	n/a
3766.984	n/a	RECOG_CONF	1883492	n/a	LTP234	ltpFR	18	5	0	KLEENEX	782	5	0	n/a	n/a	n/a	n/a	n/a
3768.542	n/a	RECOG_LURE	1884271	n/a	LTP234	ltpFR	18	5	n/a	CHART	282	3	n/a	n/a	n/a	n/a	n/a	n/a
3769.33	n/a	RECOG_RESP	1884665	n/a	LTP234	ltpFR	18	5	n/a	CHART	282	n/a	n/a	n/a	n/a	n/a	n/a	n/a
3770.238	n/a	RECOG_CONF	1885119	n/a	LTP234	ltpFR	18	5	n/a	CHART	282	3	n/a	n/a	n/a	n/a	n/a	n/a
3771.62	n/a	RECOG_TARGET	1885810	n/a	LTP234	ltpFR	18	5	-1	SPOON	1357	5	-1	n/a	n/a	n/a	n/a	n/a
3772.234	n/a	RECOG_RESP	1886117	n/a	LTP234	ltpFR	18	5	-1	SPOON	1357	n/a	-1	n/a	n/a	n/a	n/a	n/a
3772.682	n/a	RECOG_CONF	1886341	n/a	LTP234	ltpFR	18	5	-1	SPOON	1357	5	-1	n/a	n/a	n/a	n/a	n/a
3774.146	n/a	RECOG_TARGET	1887073	n/a	LTP234	ltpFR	18	5	0	BANJO	82	5	1	n/a	n/a	n/a	n/a	n/a
3774.738	n/a	RECOG_RESP	1887369	n/a	LTP234	ltpFR	18	5	0	BANJO	82	n/a	1	n/a	n/a	n/a	n/a	n/a
3775.236	n/a	RECOG_CONF	1887618	n/a	LTP234	ltpFR	18	5	0	BANJO	82	5	1	n/a	n/a	n/a	n/a	n/a
3776.684	n/a	RECOG_TARGET	1888342	n/a	LTP234	ltpFR	18	5	0	ISLAND	745	5	1	n/a	n/a	n/a	n/a	n/a
3777.23	n/a	RECOG_RESP	1888615	n/a	LTP234	ltpFR	18	5	0	ISLAND	745	n/a	1	n/a	n/a	n/a	n/a	n/a
3777.74	n/a	RECOG_CONF	1888870	n/a	LTP234	ltpFR	18	5	0	ISLAND	745	5	1	n/a	n/a	n/a	n/a	n/a
3779.082	n/a	RECOG_TARGET	1889541	n/a	LTP234	ltpFR	18	5	0	VEST	1559	5	0	n/a	n/a	n/a	n/a	n/a
3780.46	n/a	RECOG_RESP	1890230	n/a	LTP234	ltpFR	18	5	0	VEST	1559	n/a	0	n/a	n/a	n/a	n/a	n/a
3780.932	n/a	RECOG_CONF	1890466	n/a	LTP234	ltpFR	18	5	0	VEST	1559	5	0	n/a	n/a	n/a	n/a	n/a
3782.494	n/a	RECOG_TARGET	1891247	n/a	LTP234	ltpFR	18	5	0	FACTORY	548	5	1	n/a	n/a	n/a	n/a	n/a
3783.61	n/a	RECOG_RESP	1891805	n/a	LTP234	ltpFR	18	5	0	FACTORY	548	n/a	1	n/a	n/a	n/a	n/a	n/a
3784.066	n/a	RECOG_CONF	1892033	n/a	LTP234	ltpFR	18	5	0	FACTORY	548	5	1	n/a	n/a	n/a	n/a	n/a
3785.602	n/a	RECOG_TARGET	1892801	n/a	LTP234	ltpFR	18	5	-1	COMB	351	5	-1	n/a	n/a	n/a	n/a	n/a
3786.034	n/a	RECOG_RESP	1893017	n/a	LTP234	ltpFR	18	5	-1	COMB	351	n/a	-1	n/a	n/a	n/a	n/a	n/a
3786.512	n/a	RECOG_CONF	1893256	n/a	LTP234	ltpFR	18	5	-1	COMB	351	5	-1	n/a	n/a	n/a	n/a	n/a
3790.784	n/a	REC_START	1895392	n/a	LTP234	ltpFR	18	6	n/a	n/a	n/a	n/a	n/a	n/a	n/a	n/a	n/a	n/a
3790.844	n/a	RECOG_TARGET	1895422	n/a	LTP234	ltpFR	18	6	0	TELEVISION	1447	2	1	n/a	n/a	n/a	n/a	n/a
3791.764	n/a	RECOG_RESP	1895882	n/a	LTP234	ltpFR	18	6	0	TELEVISION	1447	n/a	1	n/a	n/a	n/a	n/a	n/a
3792.47	n/a	RECOG_CONF	1896235	n/a	LTP234	ltpFR	18	6	0	TELEVISION	1447	2	1	n/a	n/a	n/a	n/a	n/a
3793.938	n/a	RECOG_LURE	1896969	n/a	LTP234	ltpFR	18	6	n/a	CHAPEL	280	5	n/a	n/a	n/a	n/a	n/a	n/a
3794.97	n/a	RECOG_RESP	1897485	n/a	LTP234	ltpFR	18	6	n/a	CHAPEL	280	n/a	n/a	n/a	n/a	n/a	n/a	n/a
3795.578	n/a	RECOG_CONF	1897789	n/a	LTP234	ltpFR	18	6	n/a	CHAPEL	280	5	n/a	n/a	n/a	n/a	n/a	n/a
3796.966	n/a	RECOG_LURE	1898483	n/a	LTP234	ltpFR	18	6	n/a	PORK	1108	5	n/a	n/a	n/a	n/a	n/a	n/a
3797.78	n/a	RECOG_RESP	1898890	n/a	LTP234	ltpFR	18	6	n/a	PORK	1108	n/a	n/a	n/a	n/a	n/a	n/a	n/a
3798.272	n/a	RECOG_CONF	1899136	n/a	LTP234	ltpFR	18	6	n/a	PORK	1108	5	n/a	n/a	n/a	n/a	n/a	n/a
3799.642	n/a	RECOG_TARGET	1899821	n/a	LTP234	ltpFR	18	6	0	BRAKE	166	5	1	n/a	n/a	n/a	n/a	n/a
3800.246	n/a	RECOG_RESP	1900123	n/a	LTP234	ltpFR	18	6	0	BRAKE	166	n/a	1	n/a	n/a	n/a	n/a	n/a
3800.786	n/a	RECOG_CONF	1900393	n/a	LTP234	ltpFR	18	6	0	BRAKE	166	5	1	n/a	n/a	n/a	n/a	n/a
3802.116	n/a	RECOG_TARGET	1901058	n/a	LTP234	ltpFR	18	6	1	LILY	821	5	0	n/a	n/a	n/a	n/a	n/a
3802.61	n/a	RECOG_RESP	1901305	n/a	LTP234	ltpFR	18	6	1	LILY	821	n/a	0	n/a	n/a	n/a	n/a	n/a
3803.102	n/a	RECOG_CONF	1901551	n/a	LTP234	ltpFR	18	6	1	LILY	821	5	0	n/a	n/a	n/a	n/a	n/a
3804.428	n/a	RECOG_TARGET	1902214	n/a	LTP234	ltpFR	18	6	0	WAREHOUSE	1588	5	1	n/a	n/a	n/a	n/a	n/a
3804.908	n/a	RECOG_RESP	1902454	n/a	LTP234	ltpFR	18	6	0	WAREHOUSE	1588	n/a	1	n/a	n/a	n/a	n/a	n/a
3805.396	n/a	RECOG_CONF	1902698	n/a	LTP234	ltpFR	18	6	0	WAREHOUSE	1588	5	1	n/a	n/a	n/a	n/a	n/a
3806.952	n/a	RECOG_TARGET	1903476	n/a	LTP234	ltpFR	18	6	1	PREACHER	1119	5	1	n/a	n/a	n/a	n/a	n/a
3807.452	n/a	RECOG_RESP	1903726	n/a	LTP234	ltpFR	18	6	1	PREACHER	1119	n/a	1	n/a	n/a	n/a	n/a	n/a
3807.914	n/a	RECOG_CONF	1903957	n/a	LTP234	ltpFR	18	6	1	PREACHER	1119	5	1	n/a	n/a	n/a	n/a	n/a
3809.382	n/a	RECOG_TARGET	1904691	n/a	LTP234	ltpFR	18	6	1	ATHLETE	52	5	1	n/a	n/a	n/a	n/a	n/a
3809.87	n/a	RECOG_RESP	1904935	n/a	LTP234	ltpFR	18	6	1	ATHLETE	52	n/a	1	n/a	n/a	n/a	n/a	n/a
3810.424	n/a	RECOG_CONF	1905212	n/a	LTP234	ltpFR	18	6	1	ATHLETE	52	5	1	n/a	n/a	n/a	n/a	n/a
3811.854	n/a	RECOG_TARGET	1905927	n/a	LTP234	ltpFR	18	6	0	HIGHWAY	707	5	1	n/a	n/a	n/a	n/a	n/a
3812.38	n/a	RECOG_RESP	1906190	n/a	LTP234	ltpFR	18	6	0	HIGHWAY	707	n/a	1	n/a	n/a	n/a	n/a	n/a
3812.91	n/a	RECOG_CONF	1906455	n/a	LTP234	ltpFR	18	6	0	HIGHWAY	707	5	1	n/a	n/a	n/a	n/a	n/a
3814.23	n/a	RECOG_TARGET	1907115	n/a	LTP234	ltpFR	18	6	0	BRANCH	168	5	1	n/a	n/a	n/a	n/a	n/a
3814.596	n/a	RECOG_RESP	1907298	n/a	LTP234	ltpFR	18	6	0	BRANCH	168	n/a	1	n/a	n/a	n/a	n/a	n/a
3815.134	n/a	RECOG_CONF	1907567	n/a	LTP234	ltpFR	18	6	0	BRANCH	168	5	1	n/a	n/a	n/a	n/a	n/a
3816.454	n/a	RECOG_TARGET	1908227	n/a	LTP234	ltpFR	18	6	1	INFANT	737	5	1	n/a	n/a	n/a	n/a	n/a
3816.868	n/a	RECOG_RESP	1908434	n/a	LTP234	ltpFR	18	6	1	INFANT	737	n/a	1	n/a	n/a	n/a	n/a	n/a
3817.428	n/a	RECOG_CONF	1908714	n/a	LTP234	ltpFR	18	6	1	INFANT	737	5	1	n/a	n/a	n/a	n/a	n/a
3818.814	n/a	RECOG_TARGET	1909407	n/a	LTP234	ltpFR	18	6	1	WAITRESS	1581	5	1	n/a	n/a	n/a	n/a	n/a
3819.22	n/a	RECOG_RESP	1909610	n/a	LTP234	ltpFR	18	6	1	WAITRESS	1581	n/a	1	n/a	n/a	n/a	n/a	n/a
3819.754	n/a	RECOG_CONF	1909877	n/a	LTP234	ltpFR	18	6	1	WAITRESS	1581	5	1	n/a	n/a	n/a	n/a	n/a
3821.11	n/a	RECOG_LURE	1910555	n/a	LTP234	ltpFR	18	6	n/a	CHIMNEY	301	4	n/a	n/a	n/a	n/a	n/a	n/a
3822.1	n/a	RECOG_RESP	1911050	n/a	LTP234	ltpFR	18	6	n/a	CHIMNEY	301	n/a	n/a	n/a	n/a	n/a	n/a	n/a
3822.858	n/a	RECOG_CONF	1911429	n/a	LTP234	ltpFR	18	6	n/a	CHIMNEY	301	4	n/a	n/a	n/a	n/a	n/a	n/a
3824.222	n/a	RECOG_TARGET	1912111	n/a	LTP234	ltpFR	18	6	0	DOCUMENT	479	5	0	n/a	n/a	n/a	n/a	n/a
3824.824	n/a	RECOG_RESP	1912412	n/a	LTP234	ltpFR	18	6	0	DOCUMENT	479	n/a	0	n/a	n/a	n/a	n/a	n/a
3825.382	n/a	RECOG_CONF	1912691	n/a	LTP234	ltpFR	18	6	0	DOCUMENT	479	5	0	n/a	n/a	n/a	n/a	n/a
3826.76	n/a	RECOG_TARGET	1913380	n/a	LTP234	ltpFR	18	6	1	AUTHOR	61	5	1	n/a	n/a	n/a	n/a	n/a
3827.284	n/a	RECOG_RESP	1913642	n/a	LTP234	ltpFR	18	6	1	AUTHOR	61	n/a	1	n/a	n/a	n/a	n/a	n/a
3827.836	n/a	RECOG_CONF	1913918	n/a	LTP234	ltpFR	18	6	1	AUTHOR	61	5	1	n/a	n/a	n/a	n/a	n/a
3829.27	n/a	RECOG_LURE	1914635	n/a	LTP234	ltpFR	18	6	n/a	VITAMIN	1574	4	n/a	n/a	n/a	n/a	n/a	n/a
3830.01	n/a	RECOG_RESP	1915005	n/a	LTP234	ltpFR	18	6	n/a	VITAMIN	1574	n/a	n/a	n/a	n/a	n/a	n/a	n/a
3830.59	n/a	RECOG_CONF	1915295	n/a	LTP234	ltpFR	18	6	n/a	VITAMIN	1574	4	n/a	n/a	n/a	n/a	n/a	n/a
3832.052	n/a	RECOG_TARGET	1916026	n/a	LTP234	ltpFR	18	6	-1	SODA	1341	2	-1	n/a	n/a	n/a	n/a	n/a
3833.014	n/a	RECOG_RESP	1916507	n/a	LTP234	ltpFR	18	6	-1	SODA	1341	n/a	-1	n/a	n/a	n/a	n/a	n/a
3833.792	n/a	RECOG_CONF	1916896	n/a	LTP234	ltpFR	18	6	-1	SODA	1341	2	-1	n/a	n/a	n/a	n/a	n/a
3835.196	n/a	RECOG_TARGET	1917598	n/a	LTP234	ltpFR	18	6	0	CRATER	400	5	1	n/a	n/a	n/a	n/a	n/a
3835.858	n/a	RECOG_RESP	1917929	n/a	LTP234	ltpFR	18	6	0	CRATER	400	n/a	1	n/a	n/a	n/a	n/a	n/a
3836.346	n/a	RECOG_CONF	1918173	n/a	LTP234	ltpFR	18	6	0	CRATER	400	5	1	n/a	n/a	n/a	n/a	n/a
3837.654	n/a	RECOG_TARGET	1918827	n/a	LTP234	ltpFR	18	6	-1	CAPITAL	238	5	-1	n/a	n/a	n/a	n/a	n/a
3838.244	n/a	RECOG_RESP	1919122	n/a	LTP234	ltpFR	18	6	-1	CAPITAL	238	n/a	-1	n/a	n/a	n/a	n/a	n/a
3838.852	n/a	RECOG_CONF	1919426	n/a	LTP234	ltpFR	18	6	-1	CAPITAL	238	5	-1	n/a	n/a	n/a	n/a	n/a
3840.28	n/a	RECOG_TARGET	1920140	n/a	LTP234	ltpFR	18	6	1	COCOON	339	5	0	n/a	n/a	n/a	n/a	n/a
3841.034	n/a	RECOG_RESP	1920517	n/a	LTP234	ltpFR	18	6	1	COCOON	339	n/a	0	n/a	n/a	n/a	n/a	n/a
3841.626	n/a	RECOG_CONF	1920813	n/a	LTP234	ltpFR	18	6	1	COCOON	339	5	0	n/a	n/a	n/a	n/a	n/a
3867.78	n/a	REC_START	1933890	n/a	LTP234	ltpFR	18	7	n/a	n/a	n/a	n/a	n/a	n/a	n/a	n/a	n/a	n/a
3867.838	n/a	RECOG_LURE	1933919	n/a	LTP234	ltpFR	18	7	n/a	WASHCLOTH	1591	5	n/a	n/a	n/a	n/a	n/a	n/a
3868.698	n/a	RECOG_RESP	1934349	n/a	LTP234	ltpFR	18	7	n/a	WASHCLOTH	1591	n/a	n/a	n/a	n/a	n/a	n/a	n/a
3869.27	n/a	RECOG_CONF	1934635	n/a	LTP234	ltpFR	18	7	n/a	WASHCLOTH	1591	5	n/a	n/a	n/a	n/a	n/a	n/a
3870.782	n/a	RECOG_LURE	1935391	n/a	LTP234	ltpFR	18	7	n/a	PRISON	1127	5	n/a	n/a	n/a	n/a	n/a	n/a
3871.332	n/a	RECOG_RESP_VV	1935666	n/a	LTP234	ltpFR	18	7	n/a	PRISON	1127	n/a	n/a	n/a	n/a	n/a	n/a	n/a
3871.852	n/a	RECOG_RESP	1935926	n/a	LTP234	ltpFR	18	7	n/a	PRISON	1127	n/a	n/a	n/a	n/a	n/a	n/a	n/a
3872.384	n/a	RECOG_CONF	1936192	n/a	LTP234	ltpFR	18	7	n/a	PRISON	1127	5	n/a	n/a	n/a	n/a	n/a	n/a
3873.89	n/a	RECOG_TARGET	1936945	n/a	LTP234	ltpFR	18	7	0	SHORTS	1293	5	0	n/a	n/a	n/a	n/a	n/a
3874.572	n/a	RECOG_RESP	1937286	n/a	LTP234	ltpFR	18	7	0	SHORTS	1293	n/a	0	n/a	n/a	n/a	n/a	n/a
3875.088	n/a	RECOG_CONF	1937544	n/a	LTP234	ltpFR	18	7	0	SHORTS	1293	5	0	n/a	n/a	n/a	n/a	n/a
3876.566	n/a	RECOG_TARGET	1938283	n/a	LTP234	ltpFR	18	7	0	SIDEWALK	1303	5	1	n/a	n/a	n/a	n/a	n/a
3877.51	n/a	RECOG_RESP	1938755	n/a	LTP234	ltpFR	18	7	0	SIDEWALK	1303	n/a	1	n/a	n/a	n/a	n/a	n/a
3878.032	n/a	RECOG_CONF	1939016	n/a	LTP234	ltpFR	18	7	0	SIDEWALK	1303	5	1	n/a	n/a	n/a	n/a	n/a
3879.598	n/a	RECOG_TARGET	1939799	n/a	LTP234	ltpFR	18	7	-1	TWEEZERS	1526	5	-1	n/a	n/a	n/a	n/a	n/a
3880.226	n/a	RECOG_RESP	1940113	n/a	LTP234	ltpFR	18	7	-1	TWEEZERS	1526	n/a	-1	n/a	n/a	n/a	n/a	n/a
3880.726	n/a	RECOG_CONF	1940363	n/a	LTP234	ltpFR	18	7	-1	TWEEZERS	1526	5	-1	n/a	n/a	n/a	n/a	n/a
3882.222	n/a	RECOG_LURE	1941111	n/a	LTP234	ltpFR	18	7	n/a	POWDER	1117	2	n/a	n/a	n/a	n/a	n/a	n/a
3883.456	n/a	RECOG_RESP	1941728	n/a	LTP234	ltpFR	18	7	n/a	POWDER	1117	n/a	n/a	n/a	n/a	n/a	n/a	n/a
3884.112	n/a	RECOG_CONF	1942056	n/a	LTP234	ltpFR	18	7	n/a	POWDER	1117	2	n/a	n/a	n/a	n/a	n/a	n/a
3885.738	n/a	RECOG_TARGET	1942869	n/a	LTP234	ltpFR	18	7	0	TENT	1449	5	1	n/a	n/a	n/a	n/a	n/a
3886.282	n/a	RECOG_RESP	1943141	n/a	LTP234	ltpFR	18	7	0	TENT	1449	n/a	1	n/a	n/a	n/a	n/a	n/a
3886.772	n/a	RECOG_CONF	1943386	n/a	LTP234	ltpFR	18	7	0	TENT	1449	5	1	n/a	n/a	n/a	n/a	n/a
3888.098	n/a	RECOG_TARGET	1944049	n/a	LTP234	ltpFR	18	7	1	EWE	542	5	1	n/a	n/a	n/a	n/a	n/a
