mstime	trial_type	stim_file	subject	experiment	session	trial	item_name	item_num	list	answer	test_x	test_y	test_z
0	SESS_START	n/a	LTP364	ltpFR2	11	n/a	n/a	n/a	n/a	n/a	0	0	0
12631	START	n/a	LTP364	ltpFR2	11	n/a	n/a	n/a	-1	n/a	n/a	n/a	n/a
12661	PROB	n/a	LTP364	ltpFR2	11	n/a	n/a	n/a	-1	19	5	7	7
14526	PROB	n/a	LTP364	ltpFR2	11	n/a	n/a	n/a	-1	11	1	1	9
15725	PROB	n/a	LTP364	ltpFR2	11	n/a	n/a	n/a	-1	25	8	9	8
19157	PROB	n/a	LTP364	ltpFR2	11	n/a	n/a	n/a	-1	18	5	9	4
21123	PROB	n/a	LTP364	ltpFR2	11	n/a	n/a	n/a	-1	20	4	9	7
23643	STOP	n/a	LTP364	ltpFR2	11	n/a	n/a	n/a	-1	n/a	n/a	n/a	n/a
55206	WORD	wordpools/wasnorm_wordpool_576.txt	LTP364	ltpFR2	11	1	PUDDLE	1140	n/a	n/a	0	0	0
57938	WORD	wordpools/wasnorm_wordpool_576.txt	LTP364	ltpFR2	11	1	PADDING	999	n/a	n/a	0	0	0
60736	WORD	wordpools/wasnorm_wordpool_576.txt	LTP364	ltpFR2	11	1	CHEMIST	292	n/a	n/a	0	0	0
63468	WORD	wordpools/wasnorm_wordpool_576.txt	LTP364	ltpFR2	11	1	BIKE	125	n/a	n/a	0	0	0
66134	WORD	wordpools/wasnorm_wordpool_576.txt	LTP364	ltpFR2	11	1	PEACH	1031	n/a	n/a	0	0	0
68766	WORD	wordpools/wasnorm_wordpool_576.txt	LTP364	ltpFR2	11	1	ROBIN	1199	n/a	n/a	0	0	0
71564	WORD	wordpools/wasnorm_wordpool_576.txt	LTP364	ltpFR2	11	1	SCARECROW	1245	n/a	n/a	0	0	0
74163	WORD	wordpools/wasnorm_wordpool_576.txt	LTP364	ltpFR2	11	1	ASIA	46	n/a	n/a	0	0	0
76778	WORD	wordpools/wasnorm_wordpool_576.txt	LTP364	ltpFR2	11	1	LONDON	843	n/a	n/a	0	0	0
79460	WORD	wordpools/wasnorm_wordpool_576.txt	LTP364	ltpFR2	11	1	SUBWAY	1400	n/a	n/a	0	0	0
81909	WORD	wordpools/wasnorm_wordpool_576.txt	LTP364	ltpFR2	11	1	TOURIST	1488	n/a	n/a	0	0	0
84724	WORD	wordpools/wasnorm_wordpool_576.txt	LTP364	ltpFR2	11	1	SHOULDER	1294	n/a	n/a	0	0	0
87173	WORD	wordpools/wasnorm_wordpool_576.txt	LTP364	ltpFR2	11	1	BUCKET	184	n/a	n/a	0	0	0
89955	WORD	wordpools/wasnorm_wordpool_576.txt	LTP364	ltpFR2	11	1	FINGER	567	n/a	n/a	0	0	0
92554	WORD	wordpools/wasnorm_wordpool_576.txt	LTP364	ltpFR2	11	1	NURSE	963	n/a	n/a	0	0	0
95103	WORD	wordpools/wasnorm_wordpool_576.txt	LTP364	ltpFR2	11	1	OX	994	n/a	n/a	0	0	0
97535	WORD	wordpools/wasnorm_wordpool_576.txt	LTP364	ltpFR2	11	1	RIVER	1194	n/a	n/a	0	0	0
100134	WORD	wordpools/wasnorm_wordpool_576.txt	LTP364	ltpFR2	11	1	PAIL	1002	n/a	n/a	0	0	0
102816	WORD	wordpools/wasnorm_wordpool_576.txt	LTP364	ltpFR2	11	1	FOX	598	n/a	n/a	0	0	0
105481	WORD	wordpools/wasnorm_wordpool_576.txt	LTP364	ltpFR2	11	1	SADDLE	1221	n/a	n/a	0	0	0
108013	WORD	wordpools/wasnorm_wordpool_576.txt	LTP364	ltpFR2	11	1	EMPIRE	530	n/a	n/a	0	0	0
110562	WORD	wordpools/wasnorm_wordpool_576.txt	LTP364	ltpFR2	11	1	REBEL	1172	n/a	n/a	0	0	0
113344	WORD	wordpools/wasnorm_wordpool_576.txt	LTP364	ltpFR2	11	1	LUGGAGE	847	n/a	n/a	0	0	0
116076	WORD	wordpools/wasnorm_wordpool_576.txt	LTP364	ltpFR2	11	1	TRUCK	1512	n/a	n/a	0	0	0
117693	START	n/a	LTP364	ltpFR2	11	n/a	n/a	n/a	1	n/a	n/a	n/a	n/a
118516	DISTRACTOR	n/a	LTP364	ltpFR2	11	1	n/a	n/a	n/a	n/a	0	0	0
118524	PROB	n/a	LTP364	ltpFR2	11	n/a	n/a	n/a	1	21	8	7	6
121723	PROB	n/a	LTP364	ltpFR2	11	n/a	n/a	n/a	1	21	7	9	5
124755	PROB	n/a	LTP364	ltpFR2	11	n/a	n/a	n/a	1	22	7	8	7
127553	PROB	n/a	LTP364	ltpFR2	11	n/a	n/a	n/a	1	15	8	2	5
128886	PROB	n/a	LTP364	ltpFR2	11	n/a	n/a	n/a	1	16	7	8	1
130785	PROB	n/a	LTP364	ltpFR2	11	n/a	n/a	n/a	1	21	8	6	7
133184	PROB	n/a	LTP364	ltpFR2	11	n/a	n/a	n/a	1	17	9	2	6
135049	PROB	n/a	LTP364	ltpFR2	11	n/a	n/a	n/a	1	14	3	7	4
136449	PROB	n/a	LTP364	ltpFR2	11	n/a	n/a	n/a	1	15	6	7	2
140180	PROB	n/a	LTP364	ltpFR2	11	n/a	n/a	n/a	1	12	4	4	4
141635	STOP	n/a	LTP364	ltpFR2	11	n/a	n/a	n/a	1	n/a	n/a	n/a	n/a
143630	REC_START	n/a	LTP364	ltpFR2	11	1	n/a	n/a	n/a	n/a	0	0	0
145302	REC_WORD	wordpools/wasnorm_wordpool_576.txt	LTP364	ltpFR2	11	1	PUDDLE	1140	n/a	n/a	0	0	0
146103	REC_WORD	wordpools/wasnorm_wordpool_576.txt	LTP364	ltpFR2	11	1	CUSHION	428	n/a	n/a	0	0	0
149432	REC_WORD	wordpools/wasnorm_wordpool_576.txt	LTP364	ltpFR2	11	1	CHEMIST	292	n/a	n/a	0	0	0
151217	REC_WORD	wordpools/wasnorm_wordpool_576.txt	LTP364	ltpFR2	11	1	BIKE	125	n/a	n/a	0	0	0
152421	REC_WORD	wordpools/wasnorm_wordpool_576.txt	LTP364	ltpFR2	11	1	ROBIN	1199	n/a	n/a	0	0	0
153712	REC_WORD	wordpools/wasnorm_wordpool_576.txt	LTP364	ltpFR2	11	1	SCARECROW	1245	n/a	n/a	0	0	0
154739	REC_WORD	wordpools/wasnorm_wordpool_576.txt	LTP364	ltpFR2	11	1	ASIA	46	n/a	n/a	0	0	0
155452	REC_WORD	wordpools/wasnorm_wordpool_576.txt	LTP364	ltpFR2	11	1	LONDON	843	n/a	n/a	0	0	0
156523	REC_WORD	wordpools/wasnorm_wordpool_576.txt	LTP364	ltpFR2	11	1	SUBWAY	1400	n/a	n/a	0	0	0
158272	REC_WORD	wordpools/wasnorm_wordpool_576.txt	LTP364	ltpFR2	11	1	TOURIST	1488	n/a	n/a	0	0	0
162829	REC_WORD	wordpools/wasnorm_wordpool_576.txt	LTP364	ltpFR2	11	1	BUCKET	184	n/a	n/a	0	0	0
163726	REC_WORD	wordpools/wasnorm_wordpool_576.txt	LTP364	ltpFR2	11	1	FINGER	567	n/a	n/a	0	0	0
165778	REC_WORD	wordpools/wasnorm_wordpool_576.txt	LTP364	ltpFR2	11	1	SHOULDER	1294	n/a	n/a	0	0	0
166799	REC_WORD	wordpools/wasnorm_wordpool_576.txt	LTP364	ltpFR2	11	1	NURSE	963	n/a	n/a	0	0	0
168105	REC_WORD	wordpools/wasnorm_wordpool_576.txt	LTP364	ltpFR2	11	1	OX	994	n/a	n/a	0	0	0
169986	REC_WORD	wordpools/wasnorm_wordpool_576.txt	LTP364	ltpFR2	11	1	STREAM	1392	n/a	n/a	0	0	0
171224	REC_WORD	wordpools/wasnorm_wordpool_576.txt	LTP364	ltpFR2	11	1	PAIL	1002	n/a	n/a	0	0	0
171863	REC_WORD	wordpools/wasnorm_wordpool_576.txt	LTP364	ltpFR2	11	1	FOX	598	n/a	n/a	0	0	0
174345	REC_WORD	wordpools/wasnorm_wordpool_576.txt	LTP364	ltpFR2	11	1	SADDLE	1221	n/a	n/a	0	0	0
178366	REC_WORD	wordpools/wasnorm_wordpool_576.txt	LTP364	ltpFR2	11	1	REBEL	1172	n/a	n/a	0	0	0
180122	REC_WORD	wordpools/wasnorm_wordpool_576.txt	LTP364	ltpFR2	11	1	LUGGAGE	847	n/a	n/a	0	0	0
180887	REC_WORD	wordpools/wasnorm_wordpool_576.txt	LTP364	ltpFR2	11	1	TRUCK	1512	n/a	n/a	0	0	0
181529	REC_WORD	wordpools/wasnorm_wordpool_576.txt	LTP364	ltpFR2	11	1	EMPIRE	530	n/a	n/a	0	0	0
234067	DISTRACTOR	n/a	LTP364	ltpFR2	11	2	n/a	n/a	n/a	n/a	0	0	0
234067	START	n/a	LTP364	ltpFR2	11	n/a	n/a	n/a	2	n/a	n/a	n/a	n/a
234084	PROB	n/a	LTP364	ltpFR2	11	n/a	n/a	n/a	2	22	4	7	8
236349	PROB	n/a	LTP364	ltpFR2	11	n/a	n/a	n/a	2	12	4	2	6
238082	PROB	n/a	LTP364	ltpFR2	11	n/a	n/a	n/a	2	15	9	4	2
240097	PROB	n/a	LTP364	ltpFR2	11	n/a	n/a	n/a	2	13	5	4	4
241896	PROB	n/a	LTP364	ltpFR2	11	n/a	n/a	n/a	2	10	1	6	3
243779	PROB	n/a	LTP364	ltpFR2	11	n/a	n/a	n/a	2	16	8	5	3
245361	PROB	n/a	LTP364	ltpFR2	11	n/a	n/a	n/a	2	17	9	2	6
246911	PROB	n/a	LTP364	ltpFR2	11	n/a	n/a	n/a	2	10	2	3	5
248193	PROB	n/a	LTP364	ltpFR2	11	n/a	n/a	n/a	2	16	8	5	3
249826	PROB	n/a	LTP364	ltpFR2	11	n/a	n/a	n/a	2	12	5	2	5
251508	PROB	n/a	LTP364	ltpFR2	11	n/a	n/a	n/a	2	11	4	4	3
253441	PROB	n/a	LTP364	ltpFR2	11	n/a	n/a	n/a	2	18	2	7	9
255290	PROB	n/a	LTP364	ltpFR2	11	n/a	n/a	n/a	2	21	8	5	8
257394	STOP	n/a	LTP364	ltpFR2	11	n/a	n/a	n/a	2	n/a	n/a	n/a	n/a
259021	WORD	wordpools/wasnorm_wordpool_576.txt	LTP364	ltpFR2	11	2	DRAGON	492	n/a	n/a	0	0	0
261803	WORD	wordpools/wasnorm_wordpool_576.txt	LTP364	ltpFR2	11	2	GARBAGE	622	n/a	n/a	0	0	0
264435	WORD	wordpools/wasnorm_wordpool_576.txt	LTP364	ltpFR2	11	2	PANTHER	1009	n/a	n/a	0	0	0
267051	WORD	wordpools/wasnorm_wordpool_576.txt	LTP364	ltpFR2	11	2	HANDBAG	684	n/a	n/a	0	0	0
269667	WORD	wordpools/wasnorm_wordpool_576.txt	LTP364	ltpFR2	11	2	CASHIER	254	n/a	n/a	0	0	0
272315	WORD	wordpools/wasnorm_wordpool_576.txt	LTP364	ltpFR2	11	2	CRICKET	408	n/a	n/a	0	0	0
274747	WORD	wordpools/wasnorm_wordpool_576.txt	LTP364	ltpFR2	11	2	SAUSAGE	1238	n/a	n/a	0	0	0
277512	WORD	wordpools/wasnorm_wordpool_576.txt	LTP364	ltpFR2	11	2	DINER	467	n/a	n/a	0	0	0
279961	WORD	wordpools/wasnorm_wordpool_576.txt	LTP364	ltpFR2	11	2	GROUND	666	n/a	n/a	0	0	0
282743	WORD	wordpools/wasnorm_wordpool_576.txt	LTP364	ltpFR2	11	2	VIRUS	1572	n/a	n/a	0	0	0
285358	WORD	wordpools/wasnorm_wordpool_576.txt	LTP364	ltpFR2	11	2	MESSAGE	888	n/a	n/a	0	0	0
288040	WORD	wordpools/wasnorm_wordpool_576.txt	LTP364	ltpFR2	11	2	TERMITE	1451	n/a	n/a	0	0	0
290606	WORD	wordpools/wasnorm_wordpool_576.txt	LTP364	ltpFR2	11	2	LASER	801	n/a	n/a	0	0	0
293421	WORD	wordpools/wasnorm_wordpool_576.txt	LTP364	ltpFR2	11	2	MAILMAN	858	n/a	n/a	0	0	0
295903	WORD	wordpools/wasnorm_wordpool_576.txt	LTP364	ltpFR2	11	2	MAILBOX	857	n/a	n/a	0	0	0
298535	WORD	wordpools/wasnorm_wordpool_576.txt	LTP364	ltpFR2	11	2	SHELF	1280	n/a	n/a	0	0	0
301117	WORD	wordpools/wasnorm_wordpool_576.txt	LTP364	ltpFR2	11	2	WHISKERS	1605	n/a	n/a	0	0	0
303617	WORD	wordpools/wasnorm_wordpool_576.txt	LTP364	ltpFR2	11	2	LION	827	n/a	n/a	0	0	0
306298	WORD	wordpools/wasnorm_wordpool_576.txt	LTP364	ltpFR2	11	2	DIME	466	n/a	n/a	0	0	0
309013	WORD	wordpools/wasnorm_wordpool_576.txt	LTP364	ltpFR2	11	2	PATIENT	1024	n/a	n/a	0	0	0
311445	WORD	wordpools/wasnorm_wordpool_576.txt	LTP364	ltpFR2	11	2	CAPTIVE	240	n/a	n/a	0	0	0
314177	WORD	wordpools/wasnorm_wordpool_576.txt	LTP364	ltpFR2	11	2	JUGGLER	763	n/a	n/a	0	0	0
316627	WORD	wordpools/wasnorm_wordpool_576.txt	LTP364	ltpFR2	11	2	ISLAND	745	n/a	n/a	0	0	0
319225	WORD	wordpools/wasnorm_wordpool_576.txt	LTP364	ltpFR2	11	2	TRIBE	1505	n/a	n/a	0	0	0
320841	START	n/a	LTP364	ltpFR2	11	n/a	n/a	n/a	3	n/a	n/a	n/a	n/a
321825	DISTRACTOR	n/a	LTP364	ltpFR2	11	2	n/a	n/a	n/a	n/a	0	0	0
321840	PROB	n/a	LTP364	ltpFR2	11	n/a	n/a	n/a	3	18	6	8	4
323556	PROB	n/a	LTP364	ltpFR2	11	n/a	n/a	n/a	3	11	4	4	3
325755	PROB	n/a	LTP364	ltpFR2	11	n/a	n/a	n/a	3	19	6	5	7
328154	PROB	n/a	LTP364	ltpFR2	11	n/a	n/a	n/a	3	9	1	5	3
329903	PROB	n/a	LTP364	ltpFR2	11	n/a	n/a	n/a	3	10	6	3	1
331636	PROB	n/a	LTP364	ltpFR2	11	n/a	n/a	n/a	3	22	6	7	7
333601	PROB	n/a	LTP364	ltpFR2	11	n/a	n/a	n/a	3	7	1	3	3
335651	PROB	n/a	LTP364	ltpFR2	11	n/a	n/a	n/a	3	21	6	6	9
338082	PROB	n/a	LTP364	ltpFR2	11	n/a	n/a	n/a	3	16	9	4	3
339981	PROB	n/a	LTP364	ltpFR2	11	n/a	n/a	n/a	3	11	4	3	4
342147	PROB	n/a	LTP364	ltpFR2	11	n/a	n/a	n/a	3	15	7	6	2
344530	STOP	n/a	LTP364	ltpFR2	11	n/a	n/a	n/a	3	n/a	n/a	n/a	n/a
346778	REC_START	n/a	LTP364	ltpFR2	11	2	n/a	n/a	n/a	n/a	0	0	0
348979	REC_WORD	wordpools/wasnorm_wordpool_576.txt	LTP364	ltpFR2	11	2	DRAGON	492	n/a	n/a	0	0	0
349733	REC_WORD	wordpools/wasnorm_wordpool_576.txt	LTP364	ltpFR2	11	2	TRASH	1497	n/a	n/a	0	0	0
350539	REC_WORD	wordpools/wasnorm_wordpool_576.txt	LTP364	ltpFR2	11	2	PANTHER	1009	n/a	n/a	0	0	0
351811	REC_WORD	wordpools/wasnorm_wordpool_576.txt	LTP364	ltpFR2	11	2	PURSE	1145	n/a	n/a	0	0	0
353532	REC_WORD	wordpools/wasnorm_wordpool_576.txt	LTP364	ltpFR2	11	2	CASHIER	254	n/a	n/a	0	0	0
355195	REC_WORD	wordpools/wasnorm_wordpool_576.txt	LTP364	ltpFR2	11	2	CRICKET	408	n/a	n/a	0	0	0
357009	REC_WORD	wordpools/wasnorm_wordpool_576.txt	LTP364	ltpFR2	11	2	SAUSAGE	1238	n/a	n/a	0	0	0
357638	REC_WORD	wordpools/wasnorm_wordpool_576.txt	LTP364	ltpFR2	11	2	DINER	467	n/a	n/a	0	0	0
360105	REC_WORD	wordpools/wasnorm_wordpool_576.txt	LTP364	ltpFR2	11	2	MESSAGE	888	n/a	n/a	0	0	0
362349	REC_WORD	wordpools/wasnorm_wordpool_576.txt	LTP364	ltpFR2	11	2	TERMITE	1451	n/a	n/a	0	0	0
364411	REC_WORD	wordpools/wasnorm_wordpool_576.txt	LTP364	ltpFR2	11	2	LASER	801	n/a	n/a	0	0	0
365498	REC_WORD	wordpools/wasnorm_wordpool_576.txt	LTP364	ltpFR2	11	2	MAILMAN	858	n/a	n/a	0	0	0
366457	REC_WORD	wordpools/wasnorm_wordpool_576.txt	LTP364	ltpFR2	11	2	MAILBOX	857	n/a	n/a	0	0	0
371522	REC_WORD	wordpools/wasnorm_wordpool_576.txt	LTP364	ltpFR2	11	2	ISLAND	745	n/a	n/a	0	0	0
372217	REC_WORD	wordpools/wasnorm_wordpool_576.txt	LTP364	ltpFR2	11	2	TRIBE	1505	n/a	n/a	0	0	0
437216	DISTRACTOR	n/a	LTP364	ltpFR2	11	3	n/a	n/a	n/a	n/a	0	0	0
437216	START	n/a	LTP364	ltpFR2	11	n/a	n/a	n/a	4	n/a	n/a	n/a	n/a
437233	PROB	n/a	LTP364	ltpFR2	11	n/a	n/a	n/a	4	9	3	2	4
439065	PROB	n/a	LTP364	ltpFR2	11	n/a	n/a	n/a	4	24	6	9	9
442664	PROB	n/a	LTP364	ltpFR2	11	n/a	n/a	n/a	4	14	6	2	6
444496	PROB	n/a	LTP364	ltpFR2	11	n/a	n/a	n/a	4	17	4	5	7
447794	PROB	n/a	LTP364	ltpFR2	11	n/a	n/a	n/a	4	7	2	3	2
451109	PROB	n/a	LTP364	ltpFR2	11	n/a	n/a	n/a	4	16	8	6	2
453408	PROB	n/a	LTP364	ltpFR2	11	n/a	n/a	n/a	4	22	9	8	5
456407	PROB	n/a	LTP364	ltpFR2	11	n/a	n/a	n/a	4	9	2	3	4
458039	PROB	n/a	LTP364	ltpFR2	11	n/a	n/a	n/a	4	12	1	8	3
461216	STOP	n/a	LTP364	ltpFR2	11	n/a	n/a	n/a	4	n/a	n/a	n/a	n/a
462237	WORD	wordpools/wasnorm_wordpool_576.txt	LTP364	ltpFR2	11	3	VALLEY	1545	n/a	n/a	0	0	0
465036	WORD	wordpools/wasnorm_wordpool_576.txt	LTP364	ltpFR2	11	3	PARENT	1013	n/a	n/a	0	0	0
467468	WORD	wordpools/wasnorm_wordpool_576.txt	LTP364	ltpFR2	11	3	FRIEND	606	n/a	n/a	0	0	0
470283	WORD	wordpools/wasnorm_wordpool_576.txt	LTP364	ltpFR2	11	3	SISTER	1312	n/a	n/a	0	0	0
472865	WORD	wordpools/wasnorm_wordpool_576.txt	LTP364	ltpFR2	11	3	THIEF	1456	n/a	n/a	0	0	0
475648	WORD	wordpools/wasnorm_wordpool_576.txt	LTP364	ltpFR2	11	3	TURNIP	1521	n/a	n/a	0	0	0
478329	WORD	wordpools/wasnorm_wordpool_576.txt	LTP364	ltpFR2	11	3	LETTUCE	814	n/a	n/a	0	0	0
480928	WORD	wordpools/wasnorm_wordpool_576.txt	LTP364	ltpFR2	11	3	TABLET	1427	n/a	n/a	0	0	0
483393	WORD	wordpools/wasnorm_wordpool_576.txt	LTP364	ltpFR2	11	3	SUPPER	1411	n/a	n/a	0	0	0
486142	WORD	wordpools/wasnorm_wordpool_576.txt	LTP364	ltpFR2	11	3	BANQUET	86	n/a	n/a	0	0	0
488857	WORD	wordpools/wasnorm_wordpool_576.txt	LTP364	ltpFR2	11	3	FLEET	578	n/a	n/a	0	0	0
491606	WORD	wordpools/wasnorm_wordpool_576.txt	LTP364	ltpFR2	11	3	AWARD	63	n/a	n/a	0	0	0
494205	WORD	wordpools/wasnorm_wordpool_576.txt	LTP364	ltpFR2	11	3	TILE	1468	n/a	n/a	0	0	0
496986	WORD	wordpools/wasnorm_wordpool_576.txt	LTP364	ltpFR2	11	3	WAGON	1578	n/a	n/a	0	0	0
499452	WORD	wordpools/wasnorm_wordpool_576.txt	LTP364	ltpFR2	11	3	LODGE	839	n/a	n/a	0	0	0
502184	WORD	wordpools/wasnorm_wordpool_576.txt	LTP364	ltpFR2	11	3	FUNGUS	614	n/a	n/a	0	0	0
504833	WORD	wordpools/wasnorm_wordpool_576.txt	LTP364	ltpFR2	11	3	EAGLE	512	n/a	n/a	0	0	0
507531	WORD	wordpools/wasnorm_wordpool_576.txt	LTP364	ltpFR2	11	3	CATCHER	258	n/a	n/a	0	0	0
510263	WORD	wordpools/wasnorm_wordpool_576.txt	LTP364	ltpFR2	11	3	TUNNEL	1519	n/a	n/a	0	0	0
512929	WORD	wordpools/wasnorm_wordpool_576.txt	LTP364	ltpFR2	11	3	NEUTRON	947	n/a	n/a	0	0	0
515662	WORD	wordpools/wasnorm_wordpool_576.txt	LTP364	ltpFR2	11	3	DIVER	476	n/a	n/a	0	0	0
518393	WORD	wordpools/wasnorm_wordpool_576.txt	LTP364	ltpFR2	11	3	CABBAGE	210	n/a	n/a	0	0	0
521091	WORD	wordpools/wasnorm_wordpool_576.txt	LTP364	ltpFR2	11	3	ARMY	39	n/a	n/a	0	0	0
523823	WORD	wordpools/wasnorm_wordpool_576.txt	LTP364	ltpFR2	11	3	MILK	895	n/a	n/a	0	0	0
525439	START	n/a	LTP364	ltpFR2	11	n/a	n/a	n/a	5	n/a	n/a	n/a	n/a
526387	DISTRACTOR	n/a	LTP364	ltpFR2	11	3	n/a	n/a	n/a	n/a	0	0	0
526389	PROB	n/a	LTP364	ltpFR2	11	n/a	n/a	n/a	5	17	5	3	9
528421	PROB	n/a	LTP364	ltpFR2	11	n/a	n/a	n/a	5	20	9	9	2
532769	PROB	n/a	LTP364	ltpFR2	11	n/a	n/a	n/a	5	15	3	9	3
534285	PROB	n/a	LTP364	ltpFR2	11	n/a	n/a	n/a	5	16	9	3	4
536467	PROB	n/a	LTP364	ltpFR2	11	n/a	n/a	n/a	5	14	2	9	3
538617	PROB	n/a	LTP364	ltpFR2	11	n/a	n/a	n/a	5	15	2	8	5
540398	PROB	n/a	LTP364	ltpFR2	11	n/a	n/a	n/a	5	22	5	9	8
543648	PROB	n/a	LTP364	ltpFR2	11	n/a	n/a	n/a	5	8	4	1	3
545079	PROB	n/a	LTP364	ltpFR2	11	n/a	n/a	n/a	5	1	5	3	9
547195	PROB	n/a	LTP364	ltpFR2	11	n/a	n/a	n/a	5	21	4	4	7
549362	STOP	n/a	LTP364	ltpFR2	11	n/a	n/a	n/a	5	n/a	n/a	n/a	n/a
551343	REC_START	n/a	LTP364	ltpFR2	11	3	n/a	n/a	n/a	n/a	0	0	0
557810	REC_WORD	wordpools/wasnorm_wordpool_576.txt	LTP364	ltpFR2	11	3	VALLEY	1545	n/a	n/a	0	0	0
559013	REC_WORD	wordpools/wasnorm_wordpool_576.txt	LTP364	ltpFR2	11	3	PARENT	1013	n/a	n/a	0	0	0
559653	REC_WORD	wordpools/wasnorm_wordpool_576.txt	LTP364	ltpFR2	11	3	FRIEND	606	n/a	n/a	0	0	0
560227	REC_WORD	wordpools/wasnorm_wordpool_576.txt	LTP364	ltpFR2	11	3	SISTER	1312	n/a	n/a	0	0	0
561333	REC_WORD	wordpools/wasnorm_wordpool_576.txt	LTP364	ltpFR2	11	3	THIEF	1456	n/a	n/a	0	0	0
562200	REC_WORD	wordpools/wasnorm_wordpool_576.txt	LTP364	ltpFR2	11	3	TURNIP	1521	n/a	n/a	0	0	0
563001	REC_WORD	wordpools/wasnorm_wordpool_576.txt	LTP364	ltpFR2	11	3	LETTUCE	814	n/a	n/a	0	0	0
564740	REC_WORD	wordpools/wasnorm_wordpool_576.txt	LTP364	ltpFR2	11	3	TABLET	1427	n/a	n/a	0	0	0
574188	REC_WORD	wordpools/wasnorm_wordpool_576.txt	LTP364	ltpFR2	11	3	BANQUET	86	n/a	n/a	0	0	0
574903	REC_WORD	wordpools/wasnorm_wordpool_576.txt	LTP364	ltpFR2	11	3	FEAST	556	n/a	n/a	0	0	0
582137	REC_WORD	wordpools/wasnorm_wordpool_576.txt	LTP364	ltpFR2	11	3	FLEET	578	n/a	n/a	0	0	0
583160	REC_WORD	wordpools/wasnorm_wordpool_576.txt	LTP364	ltpFR2	11	3	AWARD	63	n/a	n/a	0	0	0
583820	REC_WORD	wordpools/wasnorm_wordpool_576.txt	LTP364	ltpFR2	11	3	TILE	1468	n/a	n/a	0	0	0
585257	REC_WORD	wordpools/wasnorm_wordpool_576.txt	LTP364	ltpFR2	11	3	FUNGUS	614	n/a	n/a	0	0	0
586067	REC_WORD	wordpools/wasnorm_wordpool_576.txt	LTP364	ltpFR2	11	3	EAGLE	512	n/a	n/a	0	0	0
588648	REC_WORD	wordpools/wasnorm_wordpool_576.txt	LTP364	ltpFR2	11	3	CARRIAGE	248	n/a	n/a	0	0	0
597975	REC_WORD	wordpools/wasnorm_wordpool_576.txt	LTP364	ltpFR2	11	3	TUNNEL	1519	n/a	n/a	0	0	0
598322	REC_WORD	wordpools/wasnorm_wordpool_576.txt	LTP364	ltpFR2	11	3	NEUTRON	947	n/a	n/a	0	0	0
602805	REC_WORD	wordpools/wasnorm_wordpool_576.txt	LTP364	ltpFR2	11	3	DIVER	476	n/a	n/a	0	0	0
603619	REC_WORD	wordpools/wasnorm_wordpool_576.txt	LTP364	ltpFR2	11	3	CABBAGE	210	n/a	n/a	0	0	0
605800	REC_WORD	wordpools/wasnorm_wordpool_576.txt	LTP364	ltpFR2	11	3	ARMY	39	n/a	n/a	0	0	0
606436	REC_WORD	wordpools/wasnorm_wordpool_576.txt	LTP364	ltpFR2	11	3	MILK	895	n/a	n/a	0	0	0
616205	REC_WORD	wordpools/wasnorm_wordpool_576.txt	LTP364	ltpFR2	11	3	CARRIAGE	248	n/a	n/a	0	0	0
641781	DISTRACTOR	n/a	LTP364	ltpFR2	11	4	n/a	n/a	n/a	n/a	0	0	0
641781	START	n/a	LTP364	ltpFR2	11	n/a	n/a	n/a	6	n/a	n/a	n/a	n/a
641798	PROB	n/a	LTP364	ltpFR2	11	n/a	n/a	n/a	6	20	8	3	9
647112	PROB	n/a	LTP364	ltpFR2	11	n/a	n/a	n/a	6	20	6	7	7
651793	PROB	n/a	LTP364	ltpFR2	11	n/a	n/a	n/a	6	18	7	2	9
653375	PROB	n/a	LTP364	ltpFR2	11	n/a	n/a	n/a	6	7	3	3	1
654791	PROB	n/a	LTP364	ltpFR2	11	n/a	n/a	n/a	6	18	4	8	6
656974	PROB	n/a	LTP364	ltpFR2	11	n/a	n/a	n/a	6	11	7	2	2
658590	PROB	n/a	LTP364	ltpFR2	11	n/a	n/a	n/a	6	11	3	2	6
661238	PROB	n/a	LTP364	ltpFR2	11	n/a	n/a	n/a	6	9	3	1	5
663304	PROB	n/a	LTP364	ltpFR2	11	n/a	n/a	n/a	6	10	5	4	1
664962	STOP	n/a	LTP364	ltpFR2	11	n/a	n/a	n/a	6	n/a	n/a	n/a	n/a
666952	WORD	wordpools/wasnorm_wordpool_576.txt	LTP364	ltpFR2	11	4	COUCH	386	n/a	n/a	0	0	0
669601	WORD	wordpools/wasnorm_wordpool_576.txt	LTP364	ltpFR2	11	4	OUTLAW	989	n/a	n/a	0	0	0
672083	WORD	wordpools/wasnorm_wordpool_576.txt	LTP364	ltpFR2	11	4	COCOON	339	n/a	n/a	0	0	0
674682	WORD	wordpools/wasnorm_wordpool_576.txt	LTP364	ltpFR2	11	4	TYPIST	1532	n/a	n/a	0	0	0
677463	WORD	wordpools/wasnorm_wordpool_576.txt	LTP364	ltpFR2	11	4	WORKER	1621	n/a	n/a	0	0	0
679912	WORD	wordpools/wasnorm_wordpool_576.txt	LTP364	ltpFR2	11	4	SHELTER	1282	n/a	n/a	0	0	0
682629	WORD	wordpools/wasnorm_wordpool_576.txt	LTP364	ltpFR2	11	4	POPCORN	1104	n/a	n/a	0	0	0
685343	WORD	wordpools/wasnorm_wordpool_576.txt	LTP364	ltpFR2	11	4	KNIFE	785	n/a	n/a	0	0	0
687875	WORD	wordpools/wasnorm_wordpool_576.txt	LTP364	ltpFR2	11	4	LIZARD	834	n/a	n/a	0	0	0
690474	WORD	wordpools/wasnorm_wordpool_576.txt	LTP364	ltpFR2	11	4	COWBOY	395	n/a	n/a	0	0	0
693022	WORD	wordpools/wasnorm_wordpool_576.txt	LTP364	ltpFR2	11	4	LAKE	796	n/a	n/a	0	0	0
695571	WORD	wordpools/wasnorm_wordpool_576.txt	LTP364	ltpFR2	11	4	HOOD	714	n/a	n/a	0	0	0
698370	WORD	wordpools/wasnorm_wordpool_576.txt	LTP364	ltpFR2	11	4	RAZOR	1171	n/a	n/a	0	0	0
701118	WORD	wordpools/wasnorm_wordpool_576.txt	LTP364	ltpFR2	11	4	VELVET	1555	n/a	n/a	0	0	0
703817	WORD	wordpools/wasnorm_wordpool_576.txt	LTP364	ltpFR2	11	4	HAMPER	682	n/a	n/a	0	0	0
706499	WORD	wordpools/wasnorm_wordpool_576.txt	LTP364	ltpFR2	11	4	MILDEW	893	n/a	n/a	0	0	0
709131	WORD	wordpools/wasnorm_wordpool_576.txt	LTP364	ltpFR2	11	4	APPLE	33	n/a	n/a	0	0	0
711913	WORD	wordpools/wasnorm_wordpool_576.txt	LTP364	ltpFR2	11	4	LOVER	846	n/a	n/a	0	0	0
714462	WORD	wordpools/wasnorm_wordpool_576.txt	LTP364	ltpFR2	11	4	FLIPPER	580	n/a	n/a	0	0	0
717177	WORD	wordpools/wasnorm_wordpool_576.txt	LTP364	ltpFR2	11	4	ELBOW	520	n/a	n/a	0	0	0
719759	WORD	wordpools/wasnorm_wordpool_576.txt	LTP364	ltpFR2	11	4	WRIST	1626	n/a	n/a	0	0	0
722374	WORD	wordpools/wasnorm_wordpool_576.txt	LTP364	ltpFR2	11	4	TUBA	1515	n/a	n/a	0	0	0
725073	WORD	wordpools/wasnorm_wordpool_576.txt	LTP364	ltpFR2	11	4	WHISTLE	1606	n/a	n/a	0	0	0
727755	WORD	wordpools/wasnorm_wordpool_576.txt	LTP364	ltpFR2	11	4	SUITCASE	1403	n/a	n/a	0	0	0
729371	START	n/a	LTP364	ltpFR2	11	n/a	n/a	n/a	7	n/a	n/a	n/a	n/a
730184	DISTRACTOR	n/a	LTP364	ltpFR2	11	4	n/a	n/a	n/a	n/a	0	0	0
730187	PROB	n/a	LTP364	ltpFR2	11	n/a	n/a	n/a	7	17	6	9	2
732436	PROB	n/a	LTP364	ltpFR2	11	n/a	n/a	n/a	7	24	8	8	8
734219	PROB	n/a	LTP364	ltpFR2	11	n/a	n/a	n/a	7	12	4	7	1
737001	PROB	n/a	LTP364	ltpFR2	11	n/a	n/a	n/a	7	13	2	6	5
738517	PROB	n/a	LTP364	ltpFR2	11	n/a	n/a	n/a	7	18	4	7	7
740332	PROB	n/a	LTP364	ltpFR2	11	n/a	n/a	n/a	7	14	3	8	3
741981	PROB	n/a	LTP364	ltpFR2	11	n/a	n/a	n/a	7	12	3	4	5
744064	PROB	n/a	LTP364	ltpFR2	11	n/a	n/a	n/a	7	11	8	2	1
745513	PROB	n/a	LTP364	ltpFR2	11	n/a	n/a	n/a	7	12	2	5	5
746946	PROB	n/a	LTP364	ltpFR2	11	n/a	n/a	n/a	7	6	2	3	1
749095	PROB	n/a	LTP364	ltpFR2	11	n/a	n/a	n/a	7	14	6	7	1
750927	PROB	n/a	LTP364	ltpFR2	11	n/a	n/a	n/a	7	18	5	9	4
752635	STOP	n/a	LTP364	ltpFR2	11	n/a	n/a	n/a	7	n/a	n/a	n/a	n/a
755160	REC_START	n/a	LTP364	ltpFR2	11	4	n/a	n/a	n/a	n/a	0	0	0
756381	REC_WORD	wordpools/wasnorm_wordpool_576.txt	LTP364	ltpFR2	11	4	COUCH	386	n/a	n/a	0	0	0
757066	REC_WORD	wordpools/wasnorm_wordpool_576.txt	LTP364	ltpFR2	11	4	OUTLAW	989	n/a	n/a	0	0	0
760612	REC_WORD	wordpools/wasnorm_wordpool_576.txt	LTP364	ltpFR2	11	4	COCOON	339	n/a	n/a	0	0	0
762341	REC_WORD	wordpools/wasnorm_wordpool_576.txt	LTP364	ltpFR2	11	4	TYPIST	1532	n/a	n/a	0	0	0
764688	REC_WORD	wordpools/wasnorm_wordpool_576.txt	LTP364	ltpFR2	11	4	WORKER	1621	n/a	n/a	0	0	0
766144	REC_WORD	wordpools/wasnorm_wordpool_576.txt	LTP364	ltpFR2	11	4	SHELTER	1282	n/a	n/a	0	0	0
767487	REC_WORD	wordpools/wasnorm_wordpool_576.txt	LTP364	ltpFR2	11	4	POPCORN	1104	n/a	n/a	0	0	0
770672	REC_WORD	wordpools/wasnorm_wordpool_576.txt	LTP364	ltpFR2	11	4	KNIFE	785	n/a	n/a	0	0	0
773482	REC_WORD	wordpools/wasnorm_wordpool_576.txt	LTP364	ltpFR2	11	4	LIZARD	834	n/a	n/a	0	0	0
774474	REC_WORD	wordpools/wasnorm_wordpool_576.txt	LTP364	ltpFR2	11	4	COWBOY	395	n/a	n/a	0	0	0
775201	REC_WORD	wordpools/wasnorm_wordpool_576.txt	LTP364	ltpFR2	11	4	LAKE	796	n/a	n/a	0	0	0
775900	REC_WORD	wordpools/wasnorm_wordpool_576.txt	LTP364	ltpFR2	11	4	HOOD	714	n/a	n/a	0	0	0
777491	REC_WORD	wordpools/wasnorm_wordpool_576.txt	LTP364	ltpFR2	11	4	RAZOR	1171	n/a	n/a	0	0	0
778928	REC_WORD	wordpools/wasnorm_wordpool_576.txt	LTP364	ltpFR2	11	4	VELVET	1555	n/a	n/a	0	0	0
780700	REC_WORD	wordpools/wasnorm_wordpool_576.txt	LTP364	ltpFR2	11	4	HAMPER	682	n/a	n/a	0	0	0
781483	REC_WORD	wordpools/wasnorm_wordpool_576.txt	LTP364	ltpFR2	11	4	MILDEW	893	n/a	n/a	0	0	0
783031	REC_WORD	wordpools/wasnorm_wordpool_576.txt	LTP364	ltpFR2	11	4	APPLE	33	n/a	n/a	0	0	0
784325	REC_WORD	wordpools/wasnorm_wordpool_576.txt	LTP364	ltpFR2	11	4	LOVER	846	n/a	n/a	0	0	0
845631	WORD	wordpools/wasnorm_wordpool_576.txt	LTP364	ltpFR2	11	5	STOMACH	1384	n/a	n/a	0	0	0
848395	WORD	wordpools/wasnorm_wordpool_576.txt	LTP364	ltpFR2	11	5	PUPIL	1143	n/a	n/a	0	0	0
851111	WORD	wordpools/wasnorm_wordpool_576.txt	LTP364	ltpFR2	11	5	OFFICE	972	n/a	n/a	0	0	0
853776	WORD	wordpools/wasnorm_wordpool_576.txt	LTP364	ltpFR2	11	5	CRAB	397	n/a	n/a	0	0	0
856408	WORD	wordpools/wasnorm_wordpool_576.txt	LTP364	ltpFR2	11	5	PEPPER	1047	n/a	n/a	0	0	0
858957	WORD	wordpools/wasnorm_wordpool_576.txt	LTP364	ltpFR2	11	5	PEDAL	1037	n/a	n/a	0	0	0
861505	WORD	wordpools/wasnorm_wordpool_576.txt	LTP364	ltpFR2	11	5	ORCHID	982	n/a	n/a	0	0	0
863938	WORD	wordpools/wasnorm_wordpool_576.txt	LTP364	ltpFR2	11	5	COUNTRY	388	n/a	n/a	0	0	0
866403	WORD	wordpools/wasnorm_wordpool_576.txt	LTP364	ltpFR2	11	5	BARLEY	88	n/a	n/a	0	0	0
868852	WORD	wordpools/wasnorm_wordpool_576.txt	LTP364	ltpFR2	11	5	QUAIL	1147	n/a	n/a	0	0	0
871534	WORD	wordpools/wasnorm_wordpool_576.txt	LTP364	ltpFR2	11	5	FLOWER	584	n/a	n/a	0	0	0
874049	WORD	wordpools/wasnorm_wordpool_576.txt	LTP364	ltpFR2	11	5	COIN	343	n/a	n/a	0	0	0
876632	WORD	wordpools/wasnorm_wordpool_576.txt	LTP364	ltpFR2	11	5	RABBIT	1152	n/a	n/a	0	0	0
879180	WORD	wordpools/wasnorm_wordpool_576.txt	LTP364	ltpFR2	11	5	CRATER	400	n/a	n/a	0	0	0
881630	WORD	wordpools/wasnorm_wordpool_576.txt	LTP364	ltpFR2	11	5	TURKEY	1520	n/a	n/a	0	0	0
884094	WORD	wordpools/wasnorm_wordpool_576.txt	LTP364	ltpFR2	11	5	JAPAN	749	n/a	n/a	0	0	0
886560	WORD	wordpools/wasnorm_wordpool_576.txt	LTP364	ltpFR2	11	5	GREASE	660	n/a	n/a	0	0	0
889058	WORD	wordpools/wasnorm_wordpool_576.txt	LTP364	ltpFR2	11	5	STONE	1385	n/a	n/a	0	0	0
891691	WORD	wordpools/wasnorm_wordpool_576.txt	LTP364	ltpFR2	11	5	COD	340	n/a	n/a	0	0	0
894289	WORD	wordpools/wasnorm_wordpool_576.txt	LTP364	ltpFR2	11	5	SHARK	1275	n/a	n/a	0	0	0
896855	WORD	wordpools/wasnorm_wordpool_576.txt	LTP364	ltpFR2	11	5	COMPASS	358	n/a	n/a	0	0	0
899470	WORD	wordpools/wasnorm_wordpool_576.txt	LTP364	ltpFR2	11	5	CRITIC	410	n/a	n/a	0	0	0
902102	WORD	wordpools/wasnorm_wordpool_576.txt	LTP364	ltpFR2	11	5	SLUG	1329	n/a	n/a	0	0	0
904717	WORD	wordpools/wasnorm_wordpool_576.txt	LTP364	ltpFR2	11	5	TORTOISE	1486	n/a	n/a	0	0	0
906333	START	n/a	LTP364	ltpFR2	11	n/a	n/a	n/a	8	n/a	n/a	n/a	n/a
907460	DISTRACTOR	n/a	LTP364	ltpFR2	11	5	n/a	n/a	n/a	n/a	0	0	0
907466	PROB	n/a	LTP364	ltpFR2	11	n/a	n/a	n/a	8	16	8	7	1
909298	PROB	n/a	LTP364	ltpFR2	11	n/a	n/a	n/a	8	16	6	1	9
911531	PROB	n/a	LTP364	ltpFR2	11	n/a	n/a	n/a	8	13	8	1	4
914346	PROB	n/a	LTP364	ltpFR2	11	n/a	n/a	n/a	8	15	8	4	3
917078	PROB	n/a	LTP364	ltpFR2	11	n/a	n/a	n/a	8	16	7	3	6
918610	PROB	n/a	LTP364	ltpFR2	11	n/a	n/a	n/a	8	9	5	1	2
920326	PROB	n/a	LTP364	ltpFR2	11	n/a	n/a	n/a	8	22	8	6	6
923141	PROB	n/a	LTP364	ltpFR2	11	n/a	n/a	n/a	8	6	1	2	3
925041	PROB	n/a	LTP364	ltpFR2	11	n/a	n/a	n/a	8	14	1	9	4
926423	PROB	n/a	LTP364	ltpFR2	11	n/a	n/a	n/a	8	15	6	4	5
930332	STOP	n/a	LTP364	ltpFR2	11	n/a	n/a	n/a	8	n/a	n/a	n/a	n/a
932171	REC_START	n/a	LTP364	ltpFR2	11	5	n/a	n/a	n/a	n/a	0	0	0
937289	REC_WORD	wordpools/wasnorm_wordpool_576.txt	LTP364	ltpFR2	11	5	PUPIL	1143	n/a	n/a	0	0	0
937932	REC_WORD	wordpools/wasnorm_wordpool_576.txt	LTP364	ltpFR2	11	5	STOMACH	1384	n/a	n/a	0	0	0
939550	REC_WORD	wordpools/wasnorm_wordpool_576.txt	LTP364	ltpFR2	11	5	OFFICE	972	n/a	n/a	0	0	0
943715	REC_WORD	wordpools/wasnorm_wordpool_576.txt	LTP364	ltpFR2	11	5	CRAB	397	n/a	n/a	0	0	0
953965	REC_WORD	wordpools/wasnorm_wordpool_576.txt	LTP364	ltpFR2	11	5	PEDAL	1037	n/a	n/a	0	0	0
954469	REC_WORD	wordpools/wasnorm_wordpool_576.txt	LTP364	ltpFR2	11	5	ORCHID	982	n/a	n/a	0	0	0
963222	REC_WORD	wordpools/wasnorm_wordpool_576.txt	LTP364	ltpFR2	11	5	WORLD	1622	n/a	n/a	0	0	0
966477	REC_WORD	wordpools/wasnorm_wordpool_576.txt	LTP364	ltpFR2	11	5	BARLEY	88	n/a	n/a	0	0	0
969543	REC_WORD	wordpools/wasnorm_wordpool_576.txt	LTP364	ltpFR2	11	5	QUAIL	1147	n/a	n/a	0	0	0
970665	REC_WORD	wordpools/wasnorm_wordpool_576.txt	LTP364	ltpFR2	11	5	FLOWER	584	n/a	n/a	0	0	0
974094	REC_WORD	wordpools/wasnorm_wordpool_576.txt	LTP364	ltpFR2	11	5	PENNY	1045	n/a	n/a	0	0	0
974939	REC_WORD	wordpools/wasnorm_wordpool_576.txt	LTP364	ltpFR2	11	5	COIN	343	n/a	n/a	0	0	0
975958	REC_WORD	wordpools/wasnorm_wordpool_576.txt	LTP364	ltpFR2	11	5	RABBIT	1152	n/a	n/a	0	0	0
978565	REC_WORD	wordpools/wasnorm_wordpool_576.txt	LTP364	ltpFR2	11	5	CRATER	400	n/a	n/a	0	0	0
979219	REC_WORD	wordpools/wasnorm_wordpool_576.txt	LTP364	ltpFR2	11	5	TURKEY	1520	n/a	n/a	0	0	0
981288	REC_WORD	wordpools/wasnorm_wordpool_576.txt	LTP364	ltpFR2	11	5	JAPAN	749	n/a	n/a	0	0	0
982962	REC_WORD	wordpools/wasnorm_wordpool_576.txt	LTP364	ltpFR2	11	5	GREASE	660	n/a	n/a	0	0	0
985639	REC_WORD	wordpools/wasnorm_wordpool_576.txt	LTP364	ltpFR2	11	5	STONE	1385	n/a	n/a	0	0	0
988278	REC_WORD	wordpools/wasnorm_wordpool_576.txt	LTP364	ltpFR2	11	5	COD	340	n/a	n/a	0	0	0
988965	REC_WORD	wordpools/wasnorm_wordpool_576.txt	LTP364	ltpFR2	11	5	SHARK	1275	n/a	n/a	0	0	0
1022626	WORD	wordpools/wasnorm_wordpool_576.txt	LTP364	ltpFR2	11	6	LEADER	807	n/a	n/a	0	0	0
1025257	WORD	wordpools/wasnorm_wordpool_576.txt	LTP364	ltpFR2	11	6	KETCHUP	771	n/a	n/a	0	0	0
1027989	WORD	wordpools/wasnorm_wordpool_576.txt	LTP364	ltpFR2	11	6	XEROX	1628	n/a	n/a	0	0	0
1030472	WORD	wordpools/wasnorm_wordpool_576.txt	LTP364	ltpFR2	11	6	OYSTER	995	n/a	n/a	0	0	0
1033220	WORD	wordpools/wasnorm_wordpool_576.txt	LTP364	ltpFR2	11	6	NECKLACE	940	n/a	n/a	0	0	0
1035935	WORD	wordpools/wasnorm_wordpool_576.txt	LTP364	ltpFR2	11	6	LUNCH	849	n/a	n/a	0	0	0
1038518	WORD	wordpools/wasnorm_wordpool_576.txt	LTP364	ltpFR2	11	6	STAR	1373	n/a	n/a	0	0	0
1041283	WORD	wordpools/wasnorm_wordpool_576.txt	LTP364	ltpFR2	11	6	SNAKE	1333	n/a	n/a	0	0	0
1043948	WORD	wordpools/wasnorm_wordpool_576.txt	LTP364	ltpFR2	11	6	CYCLONE	431	n/a	n/a	0	0	0
1046714	WORD	wordpools/wasnorm_wordpool_576.txt	LTP364	ltpFR2	11	6	MARKET	871	n/a	n/a	0	0	0
1049479	WORD	wordpools/wasnorm_wordpool_576.txt	LTP364	ltpFR2	11	6	QUEEN	1149	n/a	n/a	0	0	0
1051928	WORD	wordpools/wasnorm_wordpool_576.txt	LTP364	ltpFR2	11	6	COLLEGE	346	n/a	n/a	0	0	0
1054426	WORD	wordpools/wasnorm_wordpool_576.txt	LTP364	ltpFR2	11	6	TURTLE	1522	n/a	n/a	0	0	0
1057008	WORD	wordpools/wasnorm_wordpool_576.txt	LTP364	ltpFR2	11	6	CLAM	315	n/a	n/a	0	0	0
1059790	WORD	wordpools/wasnorm_wordpool_576.txt	LTP364	ltpFR2	11	6	BOYFRIEND	162	n/a	n/a	0	0	0
1062306	WORD	wordpools/wasnorm_wordpool_576.txt	LTP364	ltpFR2	11	6	TWISTER	1530	n/a	n/a	0	0	0
1065004	WORD	wordpools/wasnorm_wordpool_576.txt	LTP364	ltpFR2	11	6	COURSE	390	n/a	n/a	0	0	0
1067786	WORD	wordpools/wasnorm_wordpool_576.txt	LTP364	ltpFR2	11	6	MARROW	872	n/a	n/a	0	0	0
1070252	WORD	wordpools/wasnorm_wordpool_576.txt	LTP364	ltpFR2	11	6	DANDRUFF	439	n/a	n/a	0	0	0
1072934	WORD	wordpools/wasnorm_wordpool_576.txt	LTP364	ltpFR2	11	6	WASHER	1592	n/a	n/a	0	0	0
1075599	WORD	wordpools/wasnorm_wordpool_576.txt	LTP364	ltpFR2	11	6	BUREAU	199	n/a	n/a	0	0	0
1078248	WORD	wordpools/wasnorm_wordpool_576.txt	LTP364	ltpFR2	11	6	BURGLAR	200	n/a	n/a	0	0	0
1080863	WORD	wordpools/wasnorm_wordpool_576.txt	LTP364	ltpFR2	11	6	FIDDLE	561	n/a	n/a	0	0	0
1083345	WORD	wordpools/wasnorm_wordpool_576.txt	LTP364	ltpFR2	11	6	GUITAR	670	n/a	n/a	0	0	0
1084961	START	n/a	LTP364	ltpFR2	11	n/a	n/a	n/a	9	n/a	n/a	n/a	n/a
1085767	DISTRACTOR	n/a	LTP364	ltpFR2	11	6	n/a	n/a	n/a	n/a	0	0	0
1085777	PROB	n/a	LTP364	ltpFR2	11	n/a	n/a	n/a	9	13	2	6	5
1088943	PROB	n/a	LTP364	ltpFR2	11	n/a	n/a	n/a	9	16	6	2	8
1090592	PROB	n/a	LTP364	ltpFR2	11	n/a	n/a	n/a	9	17	5	7	5
1092291	PROB	n/a	LTP364	ltpFR2	11	n/a	n/a	n/a	9	21	6	8	7
1094007	PROB	n/a	LTP364	ltpFR2	11	n/a	n/a	n/a	9	22	7	7	8
1096656	PROB	n/a	LTP364	ltpFR2	11	n/a	n/a	n/a	9	19	8	2	9
1098821	PROB	n/a	LTP364	ltpFR2	11	n/a	n/a	n/a	9	16	7	3	6
1100287	PROB	n/a	LTP364	ltpFR2	11	n/a	n/a	n/a	9	24	9	7	6
1104901	PROB	n/a	LTP364	ltpFR2	11	n/a	n/a	n/a	9	12	4	1	7
1108961	STOP	n/a	LTP364	ltpFR2	11	n/a	n/a	n/a	9	n/a	n/a	n/a	n/a
1110849	REC_START	n/a	LTP364	ltpFR2	11	6	n/a	n/a	n/a	n/a	0	0	0
1115566	REC_WORD	wordpools/wasnorm_wordpool_576.txt	LTP364	ltpFR2	11	6	LEADER	807	n/a	n/a	0	0	0
1116207	REC_WORD	wordpools/wasnorm_wordpool_576.txt	LTP364	ltpFR2	11	6	KETCHUP	771	n/a	n/a	0	0	0
1117160	REC_WORD	wordpools/wasnorm_wordpool_576.txt	LTP364	ltpFR2	11	6	XEROX	1628	n/a	n/a	0	0	0
1119109	REC_WORD	wordpools/wasnorm_wordpool_576.txt	LTP364	ltpFR2	11	6	OYSTER	995	n/a	n/a	0	0	0
1119808	REC_WORD	wordpools/wasnorm_wordpool_576.txt	LTP364	ltpFR2	11	6	CLAM	315	n/a	n/a	0	0	0
1120800	REC_WORD	wordpools/wasnorm_wordpool_576.txt	LTP364	ltpFR2	11	6	NECKLACE	940	n/a	n/a	0	0	0
1124801	REC_WORD	wordpools/wasnorm_wordpool_576.txt	LTP364	ltpFR2	11	6	LUNCH	849	n/a	n/a	0	0	0
1126049	REC_WORD	wordpools/wasnorm_wordpool_576.txt	LTP364	ltpFR2	11	6	QUEEN	1149	n/a	n/a	0	0	0
1127390	REC_WORD	wordpools/wasnorm_wordpool_576.txt	LTP364	ltpFR2	11	6	STAR	1373	n/a	n/a	0	0	0
1127933	REC_WORD	wordpools/wasnorm_wordpool_576.txt	LTP364	ltpFR2	11	6	SNAKE	1333	n/a	n/a	0	0	0
1128923	REC_WORD	wordpools/wasnorm_wordpool_576.txt	LTP364	ltpFR2	11	6	TORNADO	1485	n/a	n/a	0	0	0
1129433	REC_WORD	wordpools/wasnorm_wordpool_576.txt	LTP364	ltpFR2	11	6	CYCLONE	431	n/a	n/a	0	0	0
1130489	REC_WORD	wordpools/wasnorm_wordpool_576.txt	LTP364	ltpFR2	11	6	COLLEGE	346	n/a	n/a	0	0	0
1132297	REC_WORD	wordpools/wasnorm_wordpool_576.txt	LTP364	ltpFR2	11	6	TURTLE	1522	n/a	n/a	0	0	0
1135476	REC_WORD	wordpools/wasnorm_wordpool_576.txt	LTP364	ltpFR2	11	6	BOYFRIEND	162	n/a	n/a	0	0	0
1201320	WORD	wordpools/wasnorm_wordpool_576.txt	LTP364	ltpFR2	11	7	GLOVE	642	n/a	n/a	0	0	0
1204135	WORD	wordpools/wasnorm_wordpool_576.txt	LTP364	ltpFR2	11	7	HUSBAND	728	n/a	n/a	0	0	0
1206567	WORD	wordpools/wasnorm_wordpool_576.txt	LTP364	ltpFR2	11	7	REPORT	1184	n/a	n/a	0	0	0
1209100	WORD	wordpools/wasnorm_wordpool_576.txt	LTP364	ltpFR2	11	7	CHAUFFEUR	283	n/a	n/a	0	0	0
1211898	WORD	wordpools/wasnorm_wordpool_576.txt	LTP364	ltpFR2	11	7	OUTDOORS	987	n/a	n/a	0	0	0
1214463	WORD	wordpools/wasnorm_wordpool_576.txt	LTP364	ltpFR2	11	7	RECEIPT	1173	n/a	n/a	0	0	0
1217262	WORD	wordpools/wasnorm_wordpool_576.txt	LTP364	ltpFR2	11	7	PARROT	1015	n/a	n/a	0	0	0
1220061	WORD	wordpools/wasnorm_wordpool_576.txt	LTP364	ltpFR2	11	7	SEAGULL	1261	n/a	n/a	0	0	0
1222709	WORD	wordpools/wasnorm_wordpool_576.txt	LTP364	ltpFR2	11	7	CATTLE	261	n/a	n/a	0	0	0
1225341	WORD	wordpools/wasnorm_wordpool_576.txt	LTP364	ltpFR2	11	7	CASKET	255	n/a	n/a	0	0	0
1228007	WORD	wordpools/wasnorm_wordpool_576.txt	LTP364	ltpFR2	11	7	UMPIRE	1535	n/a	n/a	0	0	0
1230755	WORD	wordpools/wasnorm_wordpool_576.txt	LTP364	ltpFR2	11	7	LABEL	790	n/a	n/a	0	0	0
1233571	WORD	wordpools/wasnorm_wordpool_576.txt	LTP364	ltpFR2	11	7	MARKER	870	n/a	n/a	0	0	0
1236386	WORD	wordpools/wasnorm_wordpool_576.txt	LTP364	ltpFR2	11	7	TREAT	1501	n/a	n/a	0	0	0
1238951	WORD	wordpools/wasnorm_wordpool_576.txt	LTP364	ltpFR2	11	7	NOTEBOOK	959	n/a	n/a	0	0	0
1241634	WORD	wordpools/wasnorm_wordpool_576.txt	LTP364	ltpFR2	11	7	JOURNAL	760	n/a	n/a	0	0	0
1244415	WORD	wordpools/wasnorm_wordpool_576.txt	LTP364	ltpFR2	11	7	HARP	689	n/a	n/a	0	0	0
1247064	WORD	wordpools/wasnorm_wordpool_576.txt	LTP364	ltpFR2	11	7	POET	1095	n/a	n/a	0	0	0
1249596	WORD	wordpools/wasnorm_wordpool_576.txt	LTP364	ltpFR2	11	7	BEEF	113	n/a	n/a	0	0	0
1252411	WORD	wordpools/wasnorm_wordpool_576.txt	LTP364	ltpFR2	11	7	STOVE	1388	n/a	n/a	0	0	0
1254910	WORD	wordpools/wasnorm_wordpool_576.txt	LTP364	ltpFR2	11	7	SKILLET	1317	n/a	n/a	0	0	0
1257459	WORD	wordpools/wasnorm_wordpool_576.txt	LTP364	ltpFR2	11	7	GRAVE	658	n/a	n/a	0	0	0
1259941	WORD	wordpools/wasnorm_wordpool_576.txt	LTP364	ltpFR2	11	7	NOMAD	955	n/a	n/a	0	0	0
1262740	WORD	wordpools/wasnorm_wordpool_576.txt	LTP364	ltpFR2	11	7	SOFTBALL	1343	n/a	n/a	0	0	0
1264356	START	n/a	LTP364	ltpFR2	11	n/a	n/a	n/a	10	n/a	n/a	n/a	n/a
1265252	DISTRACTOR	n/a	LTP364	ltpFR2	11	7	n/a	n/a	n/a	n/a	0	0	0
1265255	PROB	n/a	LTP364	ltpFR2	11	n/a	n/a	n/a	10	14	2	3	9
1267154	PROB	n/a	LTP364	ltpFR2	11	n/a	n/a	n/a	10	15	2	7	6
1274101	PROB	n/a	LTP364	ltpFR2	11	n/a	n/a	n/a	10	15	6	7	2
1278683	PROB	n/a	LTP364	ltpFR2	11	n/a	n/a	n/a	10	14	7	3	4
1282330	PROB	n/a	LTP364	ltpFR2	11	n/a	n/a	n/a	10	25	9	9	7
1287906	STOP	n/a	LTP364	ltpFR2	11	n/a	n/a	n/a	10	n/a	n/a	n/a	n/a
1290293	REC_START	n/a	LTP364	ltpFR2	11	7	n/a	n/a	n/a	n/a	0	0	0
1293114	REC_WORD	wordpools/wasnorm_wordpool_576.txt	LTP364	ltpFR2	11	7	GLOVE	642	n/a	n/a	0	0	0
1293779	REC_WORD	wordpools/wasnorm_wordpool_576.txt	LTP364	ltpFR2	11	7	HUSBAND	728	n/a	n/a	0	0	0
1295686	REC_WORD	wordpools/wasnorm_wordpool_576.txt	LTP364	ltpFR2	11	7	REPORT	1184	n/a	n/a	0	0	0
1296465	REC_WORD	wordpools/wasnorm_wordpool_576.txt	LTP364	ltpFR2	11	7	CHAUFFEUR	283	n/a	n/a	0	0	0
1298034	REC_WORD	wordpools/wasnorm_wordpool_576.txt	LTP364	ltpFR2	11	7	RECEIPT	1173	n/a	n/a	0	0	0
1303689	REC_WORD	wordpools/wasnorm_wordpool_576.txt	LTP364	ltpFR2	11	7	PARROT	1015	n/a	n/a	0	0	0
1305638	REC_WORD	wordpools/wasnorm_wordpool_576.txt	LTP364	ltpFR2	11	7	EAGLE	512	n/a	n/a	0	0	0
1307786	REC_WORD	wordpools/wasnorm_wordpool_576.txt	LTP364	ltpFR2	11	7	CATTLE	261	n/a	n/a	0	0	0
1308376	REC_WORD	wordpools/wasnorm_wordpool_576.txt	LTP364	ltpFR2	11	7	CASKET	255	n/a	n/a	0	0	0
1310445	REC_WORD	wordpools/wasnorm_wordpool_576.txt	LTP364	ltpFR2	11	7	NOTEBOOK	959	n/a	n/a	0	0	0
1380748	WORD	wordpools/wasnorm_wordpool_576.txt	LTP364	ltpFR2	11	8	WASP	1593	n/a	n/a	0	0	0
1383230	WORD	wordpools/wasnorm_wordpool_576.txt	LTP364	ltpFR2	11	8	BUGGY	188	n/a	n/a	0	0	0
1385945	WORD	wordpools/wasnorm_wordpool_576.txt	LTP364	ltpFR2	11	8	DRUG	501	n/a	n/a	0	0	0
1388661	WORD	wordpools/wasnorm_wordpool_576.txt	LTP364	ltpFR2	11	8	SHORTS	1293	n/a	n/a	0	0	0
1391459	WORD	wordpools/wasnorm_wordpool_576.txt	LTP364	ltpFR2	11	8	TRENCH	1503	n/a	n/a	0	0	0
1394291	WORD	wordpools/wasnorm_wordpool_576.txt	LTP364	ltpFR2	11	8	SHOVEL	1295	n/a	n/a	0	0	0
1396740	WORD	wordpools/wasnorm_wordpool_576.txt	LTP364	ltpFR2	11	8	DRESSER	496	n/a	n/a	0	0	0
1399338	WORD	wordpools/wasnorm_wordpool_576.txt	LTP364	ltpFR2	11	8	MATTRESS	879	n/a	n/a	0	0	0
1401970	WORD	wordpools/wasnorm_wordpool_576.txt	LTP364	ltpFR2	11	8	MEAT	883	n/a	n/a	0	0	0
1404719	WORD	wordpools/wasnorm_wordpool_576.txt	LTP364	ltpFR2	11	8	MATCH	878	n/a	n/a	0	0	0
1407468	WORD	wordpools/wasnorm_wordpool_576.txt	LTP364	ltpFR2	11	8	FIREMAN	569	n/a	n/a	0	0	0
1409983	WORD	wordpools/wasnorm_wordpool_576.txt	LTP364	ltpFR2	11	8	CRIB	407	n/a	n/a	0	0	0
1412515	WORD	wordpools/wasnorm_wordpool_576.txt	LTP364	ltpFR2	11	8	SHIRT	1287	n/a	n/a	0	0	0
1415347	WORD	wordpools/wasnorm_wordpool_576.txt	LTP364	ltpFR2	11	8	CEILING	265	n/a	n/a	0	0	0
1417929	WORD	wordpools/wasnorm_wordpool_576.txt	LTP364	ltpFR2	11	8	STICKER	1382	n/a	n/a	0	0	0
1420428	WORD	wordpools/wasnorm_wordpool_576.txt	LTP364	ltpFR2	11	8	BLACKBOARD	133	n/a	n/a	0	0	0
1422977	WORD	wordpools/wasnorm_wordpool_576.txt	LTP364	ltpFR2	11	8	PLAYGROUND	1087	n/a	n/a	0	0	0
1425509	WORD	wordpools/wasnorm_wordpool_576.txt	LTP364	ltpFR2	11	8	TRANSPLANT	1496	n/a	n/a	0	0	0
1428174	WORD	wordpools/wasnorm_wordpool_576.txt	LTP364	ltpFR2	11	8	STAKE	1368	n/a	n/a	0	0	0
1430690	WORD	wordpools/wasnorm_wordpool_576.txt	LTP364	ltpFR2	11	8	MISTER	901	n/a	n/a	0	0	0
1433172	WORD	wordpools/wasnorm_wordpool_576.txt	LTP364	ltpFR2	11	8	SPIDER	1351	n/a	n/a	0	0	0
1435688	WORD	wordpools/wasnorm_wordpool_576.txt	LTP364	ltpFR2	11	8	MOP	916	n/a	n/a	0	0	0
1438352	WORD	wordpools/wasnorm_wordpool_576.txt	LTP364	ltpFR2	11	8	BUG	187	n/a	n/a	0	0	0
1440968	WORD	wordpools/wasnorm_wordpool_576.txt	LTP364	ltpFR2	11	8	SPOUSE	1358	n/a	n/a	0	0	0
1442584	START	n/a	LTP364	ltpFR2	11	n/a	n/a	n/a	11	n/a	n/a	n/a	n/a
1443649	DISTRACTOR	n/a	LTP364	ltpFR2	11	8	n/a	n/a	n/a	n/a	0	0	0
1443651	PROB	n/a	LTP364	ltpFR2	11	n/a	n/a	n/a	11	12	2	1	9
1445650	PROB	n/a	LTP364	ltpFR2	11	n/a	n/a	n/a	11	8	3	1	4
1447281	PROB	n/a	LTP364	ltpFR2	11	n/a	n/a	n/a	11	23	8	7	8
1451296	PROB	n/a	LTP364	ltpFR2	11	n/a	n/a	n/a	11	11	2	3	6
1453629	PROB	n/a	LTP364	ltpFR2	11	n/a	n/a	n/a	11	14	7	6	1
1455645	PROB	n/a	LTP364	ltpFR2	11	n/a	n/a	n/a	11	11	1	2	8
1457759	PROB	n/a	LTP364	ltpFR2	11	n/a	n/a	n/a	11	19	7	3	9
1459109	PROB	n/a	LTP364	ltpFR2	11	n/a	n/a	n/a	11	22	4	9	9
1461241	PROB	n/a	LTP364	ltpFR2	11	n/a	n/a	n/a	11	18	2	9	7
1466584	STOP	n/a	LTP364	ltpFR2	11	n/a	n/a	n/a	11	n/a	n/a	n/a	n/a
1468355	REC_START	n/a	LTP364	ltpFR2	11	8	n/a	n/a	n/a	n/a	0	0	0
1473939	REC_WORD	wordpools/wasnorm_wordpool_576.txt	LTP364	ltpFR2	11	8	WASP	1593	n/a	n/a	0	0	0
1476290	REC_WORD	wordpools/wasnorm_wordpool_576.txt	LTP364	ltpFR2	11	8	CARRIAGE	248	n/a	n/a	0	0	0
1477615	REC_WORD	wordpools/wasnorm_wordpool_576.txt	LTP364	ltpFR2	11	8	DRUG	501	n/a	n/a	0	0	0
1478720	REC_WORD	wordpools/wasnorm_wordpool_576.txt	LTP364	ltpFR2	11	8	SHORTS	1293	n/a	n/a	0	0	0
1481034	REC_WORD	wordpools/wasnorm_wordpool_576.txt	LTP364	ltpFR2	11	8	MEAT	883	n/a	n/a	0	0	0
1482419	REC_WORD	wordpools/wasnorm_wordpool_576.txt	LTP364	ltpFR2	11	8	DRESSER	496	n/a	n/a	0	0	0
1484949	REC_WORD	wordpools/wasnorm_wordpool_576.txt	LTP364	ltpFR2	11	8	TABLE	1426	n/a	n/a	0	0	0
1494254	REC_WORD	wordpools/wasnorm_wordpool_576.txt	LTP364	ltpFR2	11	8	SAUSAGE	1238	n/a	n/a	0	0	0
1544899	REST_REWET	n/a	LTP364	ltpFR2	11	8	n/a	n/a	n/a	n/a	0	0	0
1636504	DISTRACTOR	n/a	LTP364	ltpFR2	11	9	n/a	n/a	n/a	n/a	0	0	0
1636504	START	n/a	LTP364	ltpFR2	11	n/a	n/a	n/a	12	n/a	n/a	n/a	n/a
1636521	PROB	n/a	LTP364	ltpFR2	11	n/a	n/a	n/a	12	19	7	3	9
1638170	PROB	n/a	LTP364	ltpFR2	11	n/a	n/a	n/a	12	14	4	8	2
1639620	PROB	n/a	LTP364	ltpFR2	11	n/a	n/a	n/a	12	12	6	3	3
1641185	PROB	n/a	LTP364	ltpFR2	11	n/a	n/a	n/a	12	18	8	2	8
1642584	PROB	n/a	LTP364	ltpFR2	11	n/a	n/a	n/a	12	21	9	9	3
1645150	PROB	n/a	LTP364	ltpFR2	11	n/a	n/a	n/a	12	21	5	7	9
1648448	PROB	n/a	LTP364	ltpFR2	11	n/a	n/a	n/a	12	7	2	2	3
1651863	PROB	n/a	LTP364	ltpFR2	11	n/a	n/a	n/a	12	18	3	9	6
1653845	PROB	n/a	LTP364	ltpFR2	11	n/a	n/a	n/a	12	19	9	9	1
1656128	PROB	n/a	LTP364	ltpFR2	11	n/a	n/a	n/a	12	18	9	5	4
1657777	PROB	n/a	LTP364	ltpFR2	11	n/a	n/a	n/a	12	12	7	4	1
1659402	STOP	n/a	LTP364	ltpFR2	11	n/a	n/a	n/a	12	n/a	n/a	n/a	n/a
1661458	WORD	wordpools/wasnorm_wordpool_576.txt	LTP364	ltpFR2	11	9	AIRPORT	13	n/a	n/a	0	0	0
1664190	WORD	wordpools/wasnorm_wordpool_576.txt	LTP364	ltpFR2	11	9	SKETCH	1315	n/a	n/a	0	0	0
1666707	WORD	wordpools/wasnorm_wordpool_576.txt	LTP364	ltpFR2	11	9	VAGRANT	1544	n/a	n/a	0	0	0
1669488	WORD	wordpools/wasnorm_wordpool_576.txt	LTP364	ltpFR2	11	9	ROBOT	1200	n/a	n/a	0	0	0
1672319	WORD	wordpools/wasnorm_wordpool_576.txt	LTP364	ltpFR2	11	9	PICTURE	1061	n/a	n/a	0	0	0
1674868	WORD	wordpools/wasnorm_wordpool_576.txt	LTP364	ltpFR2	11	9	FILM	565	n/a	n/a	0	0	0
1677400	WORD	wordpools/wasnorm_wordpool_576.txt	LTP364	ltpFR2	11	9	CREATURE	403	n/a	n/a	0	0	0
1680166	WORD	wordpools/wasnorm_wordpool_576.txt	LTP364	ltpFR2	11	9	AIRPLANE	12	n/a	n/a	0	0	0
1682948	WORD	wordpools/wasnorm_wordpool_576.txt	LTP364	ltpFR2	11	9	ORANGE	980	n/a	n/a	0	0	0
1685530	WORD	wordpools/wasnorm_wordpool_576.txt	LTP364	ltpFR2	11	9	CARROT	249	n/a	n/a	0	0	0
1688212	WORD	wordpools/wasnorm_wordpool_576.txt	LTP364	ltpFR2	11	9	CLOTHES	327	n/a	n/a	0	0	0
1690977	WORD	wordpools/wasnorm_wordpool_576.txt	LTP364	ltpFR2	11	9	YOLK	1633	n/a	n/a	0	0	0
1693726	WORD	wordpools/wasnorm_wordpool_576.txt	LTP364	ltpFR2	11	9	CROSS	413	n/a	n/a	0	0	0
1696508	WORD	wordpools/wasnorm_wordpool_576.txt	LTP364	ltpFR2	11	9	HUMAN	726	n/a	n/a	0	0	0
1699090	WORD	wordpools/wasnorm_wordpool_576.txt	LTP364	ltpFR2	11	9	SPONGE	1355	n/a	n/a	0	0	0
1701706	WORD	wordpools/wasnorm_wordpool_576.txt	LTP364	ltpFR2	11	9	BEAVER	109	n/a	n/a	0	0	0
1704187	WORD	wordpools/wasnorm_wordpool_576.txt	LTP364	ltpFR2	11	9	SLIDE	1326	n/a	n/a	0	0	0
1706886	WORD	wordpools/wasnorm_wordpool_576.txt	LTP364	ltpFR2	11	9	CRAYON	401	n/a	n/a	0	0	0
1709518	WORD	wordpools/wasnorm_wordpool_576.txt	LTP364	ltpFR2	11	9	PIGMENT	1066	n/a	n/a	0	0	0
1712133	WORD	wordpools/wasnorm_wordpool_576.txt	LTP364	ltpFR2	11	9	BELLY	119	n/a	n/a	0	0	0
1714666	WORD	wordpools/wasnorm_wordpool_576.txt	LTP364	ltpFR2	11	9	FRIAR	605	n/a	n/a	0	0	0
1717314	WORD	wordpools/wasnorm_wordpool_576.txt	LTP364	ltpFR2	11	9	BALLOON	75	n/a	n/a	0	0	0
1719863	WORD	wordpools/wasnorm_wordpool_576.txt	LTP364	ltpFR2	11	9	DUSTPAN	509	n/a	n/a	0	0	0
1722595	WORD	wordpools/wasnorm_wordpool_576.txt	LTP364	ltpFR2	11	9	RACKET	1155	n/a	n/a	0	0	0
1724211	START	n/a	LTP364	ltpFR2	11	n/a	n/a	n/a	13	n/a	n/a	n/a	n/a
1725159	DISTRACTOR	n/a	LTP364	ltpFR2	11	9	n/a	n/a	n/a	n/a	0	0	0
1725177	PROB	n/a	LTP364	ltpFR2	11	n/a	n/a	n/a	13	10	1	4	5
1726643	PROB	n/a	LTP364	ltpFR2	11	n/a	n/a	n/a	13	13	4	5	4
1730541	PROB	n/a	LTP364	ltpFR2	11	n/a	n/a	n/a	13	18	9	4	5
1732156	PROB	n/a	LTP364	ltpFR2	11	n/a	n/a	n/a	13	21	5	7	9
1735172	PROB	n/a	LTP364	ltpFR2	11	n/a	n/a	n/a	13	21	8	8	5
1738503	PROB	n/a	LTP364	ltpFR2	11	n/a	n/a	n/a	13	19	6	6	7
1748210	STOP	n/a	LTP364	ltpFR2	11	n/a	n/a	n/a	13	n/a	n/a	n/a	n/a
1750099	REC_START	n/a	LTP364	ltpFR2	11	9	n/a	n/a	n/a	n/a	0	0	0
1762400	REC_WORD_VV	wordpools/wasnorm_wordpool_576.txt	LTP364	ltpFR2	11	9	<>	-1	n/a	n/a	0	0	0
1772086	REC_WORD	wordpools/wasnorm_wordpool_576.txt	LTP364	ltpFR2	11	9	BASEBALL	93	n/a	n/a	0	0	0
1840553	WORD	wordpools/wasnorm_wordpool_576.txt	LTP364	ltpFR2	11	10	RECORD	1176	n/a	n/a	0	0	0
1843335	WORD	wordpools/wasnorm_wordpool_576.txt	LTP364	ltpFR2	11	10	GUARD	667	n/a	n/a	0	0	0
1845983	WORD	wordpools/wasnorm_wordpool_576.txt	LTP364	ltpFR2	11	10	PASSAGE	1019	n/a	n/a	0	0	0
1848650	WORD	wordpools/wasnorm_wordpool_576.txt	LTP364	ltpFR2	11	10	COLONEL	348	n/a	n/a	0	0	0
1851364	WORD	wordpools/wasnorm_wordpool_576.txt	LTP364	ltpFR2	11	10	CHEST	295	n/a	n/a	0	0	0
1853896	WORD	wordpools/wasnorm_wordpool_576.txt	LTP364	ltpFR2	11	10	MASK	876	n/a	n/a	0	0	0
1856561	WORD	wordpools/wasnorm_wordpool_576.txt	LTP364	ltpFR2	11	10	GOBLIN	645	n/a	n/a	0	0	0
1859093	WORD	wordpools/wasnorm_wordpool_576.txt	LTP364	ltpFR2	11	10	PIMPLE	1071	n/a	n/a	0	0	0
1861660	WORD	wordpools/wasnorm_wordpool_576.txt	LTP364	ltpFR2	11	10	CONTRACT	368	n/a	n/a	0	0	0
1864374	WORD	wordpools/wasnorm_wordpool_576.txt	LTP364	ltpFR2	11	10	SHORTCAKE	1292	n/a	n/a	0	0	0
1867056	WORD	wordpools/wasnorm_wordpool_576.txt	LTP364	ltpFR2	11	10	CONVICT	371	n/a	n/a	0	0	0
1869871	WORD	wordpools/wasnorm_wordpool_576.txt	LTP364	ltpFR2	11	10	FLUTE	585	n/a	n/a	0	0	0
1872553	WORD	wordpools/wasnorm_wordpool_576.txt	LTP364	ltpFR2	11	10	FLAG	573	n/a	n/a	0	0	0
1875269	WORD	wordpools/wasnorm_wordpool_576.txt	LTP364	ltpFR2	11	10	VALVE	1546	n/a	n/a	0	0	0
1878051	WORD	wordpools/wasnorm_wordpool_576.txt	LTP364	ltpFR2	11	10	DRIVER	499	n/a	n/a	0	0	0
1880866	WORD	wordpools/wasnorm_wordpool_576.txt	LTP364	ltpFR2	11	10	SODA	1341	n/a	n/a	0	0	0
1883666	WORD	wordpools/wasnorm_wordpool_576.txt	LTP364	ltpFR2	11	10	SIDEWALK	1303	n/a	n/a	0	0	0
1886163	WORD	wordpools/wasnorm_wordpool_576.txt	LTP364	ltpFR2	11	10	BUBBLE	183	n/a	n/a	0	0	0
1888680	WORD	wordpools/wasnorm_wordpool_576.txt	LTP364	ltpFR2	11	10	BATHTUB	100	n/a	n/a	0	0	0
1891194	WORD	wordpools/wasnorm_wordpool_576.txt	LTP364	ltpFR2	11	10	PROTON	1132	n/a	n/a	0	0	0
1893876	WORD	wordpools/wasnorm_wordpool_576.txt	LTP364	ltpFR2	11	10	BREAST	171	n/a	n/a	0	0	0
1896491	WORD	wordpools/wasnorm_wordpool_576.txt	LTP364	ltpFR2	11	10	CITRUS	313	n/a	n/a	0	0	0
1899140	WORD	wordpools/wasnorm_wordpool_576.txt	LTP364	ltpFR2	11	10	MUSTARD	935	n/a	n/a	0	0	0
1901922	WORD	wordpools/wasnorm_wordpool_576.txt	LTP364	ltpFR2	11	10	LAMP	798	n/a	n/a	0	0	0
1903538	START	n/a	LTP364	ltpFR2	11	n/a	n/a	n/a	14	n/a	n/a	n/a	n/a
1904480	DISTRACTOR	n/a	LTP364	ltpFR2	11	10	n/a	n/a	n/a	n/a	0	0	0
1904488	PROB	n/a	LTP364	ltpFR2	11	n/a	n/a	n/a	14	21	8	7	8
1911652	PROB	n/a	LTP364	ltpFR2	11	n/a	n/a	n/a	14	21	7	4	9
1917564	PROB	n/a	LTP364	ltpFR2	11	n/a	n/a	n/a	14	18	7	2	9
1921496	PROB	n/a	LTP364	ltpFR2	11	n/a	n/a	n/a	14	17	4	7	6
1923362	PROB	n/a	LTP364	ltpFR2	11	n/a	n/a	n/a	14	20	9	2	9
1925377	PROB	n/a	LTP364	ltpFR2	11	n/a	n/a	n/a	14	16	7	5	4
1927226	STOP	n/a	LTP364	ltpFR2	11	n/a	n/a	n/a	14	n/a	n/a	n/a	n/a
1929342	REC_START	n/a	LTP364	ltpFR2	11	10	n/a	n/a	n/a	n/a	0	0	0
1931731	REC_WORD	wordpools/wasnorm_wordpool_576.txt	LTP364	ltpFR2	11	10	RECORD	1176	n/a	n/a	0	0	0
1932469	REC_WORD	wordpools/wasnorm_wordpool_576.txt	LTP364	ltpFR2	11	10	GUARD	667	n/a	n/a	0	0	0
1933353	REC_WORD	wordpools/wasnorm_wordpool_576.txt	LTP364	ltpFR2	11	10	PASSAGE	1019	n/a	n/a	0	0	0
1934672	REC_WORD	wordpools/wasnorm_wordpool_576.txt	LTP364	ltpFR2	11	10	COLONEL	348	n/a	n/a	0	0	0
1935280	REC_WORD	wordpools/wasnorm_wordpool_576.txt	LTP364	ltpFR2	11	10	CHEST	295	n/a	n/a	0	0	0
1938381	REC_WORD	wordpools/wasnorm_wordpool_576.txt	LTP364	ltpFR2	11	10	GOBLIN	645	n/a	n/a	0	0	0
1939215	REC_WORD	wordpools/wasnorm_wordpool_576.txt	LTP364	ltpFR2	11	10	CONTRACT	368	n/a	n/a	0	0	0
1940038	REC_WORD	wordpools/wasnorm_wordpool_576.txt	LTP364	ltpFR2	11	10	SHORTCAKE	1292	n/a	n/a	0	0	0
1940817	REC_WORD	wordpools/wasnorm_wordpool_576.txt	LTP364	ltpFR2	11	10	PIMPLE	1071	n/a	n/a	0	0	0
1942635	REC_WORD	wordpools/wasnorm_wordpool_576.txt	LTP364	ltpFR2	11	10	CONVICT	371	n/a	n/a	0	0	0
1943357	REC_WORD	wordpools/wasnorm_wordpool_576.txt	LTP364	ltpFR2	11	10	FLUTE	585	n/a	n/a	0	0	0
1946059	REC_WORD	wordpools/wasnorm_wordpool_576.txt	LTP364	ltpFR2	11	10	VALVE	1546	n/a	n/a	0	0	0
1947420	REC_WORD	wordpools/wasnorm_wordpool_576.txt	LTP364	ltpFR2	11	10	DRIVER	499	n/a	n/a	0	0	0
1951846	REC_WORD	wordpools/wasnorm_wordpool_576.txt	LTP364	ltpFR2	11	10	CEILING	265	n/a	n/a	0	0	0
1956234	REC_WORD	wordpools/wasnorm_wordpool_576.txt	LTP364	ltpFR2	11	10	SODA	1341	n/a	n/a	0	0	0
1958038	REC_WORD	wordpools/wasnorm_wordpool_576.txt	LTP364	ltpFR2	11	10	SIDEWALK	1303	n/a	n/a	0	0	0
1959614	REC_WORD	wordpools/wasnorm_wordpool_576.txt	LTP364	ltpFR2	11	10	BUBBLE	183	n/a	n/a	0	0	0
1960803	REC_WORD	wordpools/wasnorm_wordpool_576.txt	LTP364	ltpFR2	11	10	BATHTUB	100	n/a	n/a	0	0	0
1962182	REC_WORD	wordpools/wasnorm_wordpool_576.txt	LTP364	ltpFR2	11	10	PROTON	1132	n/a	n/a	0	0	0
1963067	REC_WORD	wordpools/wasnorm_wordpool_576.txt	LTP364	ltpFR2	11	10	BREAST	171	n/a	n/a	0	0	0
1974964	REC_WORD	wordpools/wasnorm_wordpool_576.txt	LTP364	ltpFR2	11	10	CITRUS	313	n/a	n/a	0	0	0
2019814	WORD	wordpools/wasnorm_wordpool_576.txt	LTP364	ltpFR2	11	11	MOTOR	922	n/a	n/a	0	0	0
2022329	WORD	wordpools/wasnorm_wordpool_576.txt	LTP364	ltpFR2	11	11	PIGEON	1065	n/a	n/a	0	0	0
2025078	WORD	wordpools/wasnorm_wordpool_576.txt	LTP364	ltpFR2	11	11	WAITRESS	1581	n/a	n/a	0	0	0
2027560	WORD	wordpools/wasnorm_wordpool_576.txt	LTP364	ltpFR2	11	11	SURVEY	1414	n/a	n/a	0	0	0
2030225	WORD	wordpools/wasnorm_wordpool_576.txt	LTP364	ltpFR2	11	11	BLOUSE	139	n/a	n/a	0	0	0
2032940	WORD	wordpools/wasnorm_wordpool_576.txt	LTP364	ltpFR2	11	11	PLASTER	1085	n/a	n/a	0	0	0
2035606	WORD	wordpools/wasnorm_wordpool_576.txt	LTP364	ltpFR2	11	11	TRACTOR	1493	n/a	n/a	0	0	0
2038171	WORD	wordpools/wasnorm_wordpool_576.txt	LTP364	ltpFR2	11	11	GALLON	618	n/a	n/a	0	0	0
2040886	WORD	wordpools/wasnorm_wordpool_576.txt	LTP364	ltpFR2	11	11	INMATE	738	n/a	n/a	0	0	0
2043335	WORD	wordpools/wasnorm_wordpool_576.txt	LTP364	ltpFR2	11	11	POWDER	1117	n/a	n/a	0	0	0
2045851	WORD	wordpools/wasnorm_wordpool_576.txt	LTP364	ltpFR2	11	11	HEDGE	699	n/a	n/a	0	0	0
2048449	WORD	wordpools/wasnorm_wordpool_576.txt	LTP364	ltpFR2	11	11	BRANCH	168	n/a	n/a	0	0	0
2051031	WORD	wordpools/wasnorm_wordpool_576.txt	LTP364	ltpFR2	11	11	CELLAR	267	n/a	n/a	0	0	0
2053747	WORD	wordpools/wasnorm_wordpool_576.txt	LTP364	ltpFR2	11	11	DASHBOARD	441	n/a	n/a	0	0	0
2056345	WORD	wordpools/wasnorm_wordpool_576.txt	LTP364	ltpFR2	11	11	PADDLE	1000	n/a	n/a	0	0	0
2058911	WORD	wordpools/wasnorm_wordpool_576.txt	LTP364	ltpFR2	11	11	ROCKET	1202	n/a	n/a	0	0	0
2061694	WORD	wordpools/wasnorm_wordpool_576.txt	LTP364	ltpFR2	11	11	MISSILE	900	n/a	n/a	0	0	0
2064325	WORD	wordpools/wasnorm_wordpool_576.txt	LTP364	ltpFR2	11	11	EUROPE	541	n/a	n/a	0	0	0
2066940	WORD	wordpools/wasnorm_wordpool_576.txt	LTP364	ltpFR2	11	11	YACHT	1629	n/a	n/a	0	0	0
2069489	WORD	wordpools/wasnorm_wordpool_576.txt	LTP364	ltpFR2	11	11	SWAMP	1416	n/a	n/a	0	0	0
2072271	WORD	wordpools/wasnorm_wordpool_576.txt	LTP364	ltpFR2	11	11	SLIME	1327	n/a	n/a	0	0	0
2074753	WORD	wordpools/wasnorm_wordpool_576.txt	LTP364	ltpFR2	11	11	UNCLE	1536	n/a	n/a	0	0	0
2077518	WORD	wordpools/wasnorm_wordpool_576.txt	LTP364	ltpFR2	11	11	BANKER	84	n/a	n/a	0	0	0
2080000	WORD	wordpools/wasnorm_wordpool_576.txt	LTP364	ltpFR2	11	11	LIGHTNING	820	n/a	n/a	0	0	0
2081618	START	n/a	LTP364	ltpFR2	11	n/a	n/a	n/a	15	n/a	n/a	n/a	n/a
2082451	DISTRACTOR	n/a	LTP364	ltpFR2	11	11	n/a	n/a	n/a	n/a	0	0	0
2082466	PROB	n/a	LTP364	ltpFR2	11	n/a	n/a	n/a	15	15	2	4	9
2084715	PROB	n/a	LTP364	ltpFR2	11	n/a	n/a	n/a	15	11	6	4	1
2086414	PROB	n/a	LTP364	ltpFR2	11	n/a	n/a	n/a	15	14	5	3	6
2087963	PROB	n/a	LTP364	ltpFR2	11	n/a	n/a	n/a	15	16	3	5	8
2089429	PROB	n/a	LTP364	ltpFR2	11	n/a	n/a	n/a	15	14	3	5	6
2091295	PROB	n/a	LTP364	ltpFR2	11	n/a	n/a	n/a	15	8	3	1	4
2093661	PROB	n/a	LTP364	ltpFR2	11	n/a	n/a	n/a	15	19	9	2	8
2095376	PROB	n/a	LTP364	ltpFR2	11	n/a	n/a	n/a	15	20	8	6	6
2100540	PROB	n/a	LTP364	ltpFR2	11	n/a	n/a	n/a	15	20	9	9	2
2103106	PROB	n/a	LTP364	ltpFR2	11	n/a	n/a	n/a	15	7	1	4	2
2105298	STOP	n/a	LTP364	ltpFR2	11	n/a	n/a	n/a	15	n/a	n/a	n/a	n/a
2107537	REC_START	n/a	LTP364	ltpFR2	11	11	n/a	n/a	n/a	n/a	0	0	0
2126083	REC_WORD	wordpools/wasnorm_wordpool_576.txt	LTP364	ltpFR2	11	11	DRIVER	499	n/a	n/a	0	0	0
2127080	REC_WORD	wordpools/wasnorm_wordpool_576.txt	LTP364	ltpFR2	11	11	WAITRESS	1581	n/a	n/a	0	0	0
2133017	REC_WORD	wordpools/wasnorm_wordpool_576.txt	LTP364	ltpFR2	11	11	SURVEY	1414	n/a	n/a	0	0	0
2133929	REC_WORD	wordpools/wasnorm_wordpool_576.txt	LTP364	ltpFR2	11	11	BLOUSE	139	n/a	n/a	0	0	0
2136043	REC_WORD	wordpools/wasnorm_wordpool_576.txt	LTP364	ltpFR2	11	11	PLASTER	1085	n/a	n/a	0	0	0
2138085	REC_WORD	wordpools/wasnorm_wordpool_576.txt	LTP364	ltpFR2	11	11	TRACTOR	1493	n/a	n/a	0	0	0
2138698	REC_WORD	wordpools/wasnorm_wordpool_576.txt	LTP364	ltpFR2	11	11	GALLON	618	n/a	n/a	0	0	0
2139161	REC_WORD	wordpools/wasnorm_wordpool_576.txt	LTP364	ltpFR2	11	11	HEDGE	699	n/a	n/a	0	0	0
2139856	REC_WORD	wordpools/wasnorm_wordpool_576.txt	LTP364	ltpFR2	11	11	BRANCH	168	n/a	n/a	0	0	0
2142027	REC_WORD_VV	wordpools/wasnorm_wordpool_576.txt	LTP364	ltpFR2	11	11	<>	-1	n/a	n/a	0	0	0
2142292	REC_WORD	wordpools/wasnorm_wordpool_576.txt	LTP364	ltpFR2	11	11	PRISONER	1128	n/a	n/a	0	0	0
2147446	REC_WORD	wordpools/wasnorm_wordpool_576.txt	LTP364	ltpFR2	11	11	ROCKET	1202	n/a	n/a	0	0	0
2148875	REC_WORD	wordpools/wasnorm_wordpool_576.txt	LTP364	ltpFR2	11	11	CELLAR	267	n/a	n/a	0	0	0
2150005	REC_WORD	wordpools/wasnorm_wordpool_576.txt	LTP364	ltpFR2	11	11	MISSILE	900	n/a	n/a	0	0	0
2152559	REC_WORD	wordpools/wasnorm_wordpool_576.txt	LTP364	ltpFR2	11	11	EUROPE	541	n/a	n/a	0	0	0
2153223	REC_WORD	wordpools/wasnorm_wordpool_576.txt	LTP364	ltpFR2	11	11	YACHT	1629	n/a	n/a	0	0	0
2154617	REC_WORD	wordpools/wasnorm_wordpool_576.txt	LTP364	ltpFR2	11	11	UNCLE	1536	n/a	n/a	0	0	0
2155067	REC_WORD	wordpools/wasnorm_wordpool_576.txt	LTP364	ltpFR2	11	11	BANKER	84	n/a	n/a	0	0	0
2156521	REC_WORD	wordpools/wasnorm_wordpool_576.txt	LTP364	ltpFR2	11	11	SWAMP	1416	n/a	n/a	0	0	0
2157321	REC_WORD	wordpools/wasnorm_wordpool_576.txt	LTP364	ltpFR2	11	11	SLIME	1327	n/a	n/a	0	0	0
2164479	REC_WORD	wordpools/wasnorm_wordpool_576.txt	LTP364	ltpFR2	11	11	WINDSHIELD	1612	n/a	n/a	0	0	0
2168259	REC_WORD	wordpools/wasnorm_wordpool_576.txt	LTP364	ltpFR2	11	11	PADDLE	1000	n/a	n/a	0	0	0
2198009	DISTRACTOR	n/a	LTP364	ltpFR2	11	12	n/a	n/a	n/a	n/a	0	0	0
2198009	START	n/a	LTP364	ltpFR2	11	n/a	n/a	n/a	16	n/a	n/a	n/a	n/a
2198025	PROB	n/a	LTP364	ltpFR2	11	n/a	n/a	n/a	16	9	1	1	7
2200091	PROB	n/a	LTP364	ltpFR2	11	n/a	n/a	n/a	16	7	3	3	1
2203039	PROB	n/a	LTP364	ltpFR2	11	n/a	n/a	n/a	16	10	2	7	1
2205388	PROB	n/a	LTP364	ltpFR2	11	n/a	n/a	n/a	16	15	1	8	6
2207370	PROB	n/a	LTP364	ltpFR2	11	n/a	n/a	n/a	16	5	1	1	3
2208836	PROB	n/a	LTP364	ltpFR2	11	n/a	n/a	n/a	16	20	2	9	9
2212018	PROB	n/a	LTP364	ltpFR2	11	n/a	n/a	n/a	16	9	3	1	5
2214517	PROB	n/a	LTP364	ltpFR2	11	n/a	n/a	n/a	16	18	4	9	5
2217082	PROB	n/a	LTP364	ltpFR2	11	n/a	n/a	n/a	16	4	2	1	1
2218465	PROB	n/a	LTP364	ltpFR2	11	n/a	n/a	n/a	16	21	8	7	6
2220659	STOP	n/a	LTP364	ltpFR2	11	n/a	n/a	n/a	16	n/a	n/a	n/a	n/a
2223163	WORD	wordpools/wasnorm_wordpool_576.txt	LTP364	ltpFR2	11	12	JURY	766	n/a	n/a	0	0	0
2225778	WORD	wordpools/wasnorm_wordpool_576.txt	LTP364	ltpFR2	11	12	GARLIC	624	n/a	n/a	0	0	0
2228343	WORD	wordpools/wasnorm_wordpool_576.txt	LTP364	ltpFR2	11	12	HAWK	692	n/a	n/a	0	0	0
2231025	WORD	wordpools/wasnorm_wordpool_576.txt	LTP364	ltpFR2	11	12	COUNTY	389	n/a	n/a	0	0	0
2233791	WORD	wordpools/wasnorm_wordpool_576.txt	LTP364	ltpFR2	11	12	GIFT	635	n/a	n/a	0	0	0
2236273	WORD	wordpools/wasnorm_wordpool_576.txt	LTP364	ltpFR2	11	12	POSTAGE	1113	n/a	n/a	0	0	0
2238888	WORD	wordpools/wasnorm_wordpool_576.txt	LTP364	ltpFR2	11	12	SCALLOP	1242	n/a	n/a	0	0	0
2241370	WORD	wordpools/wasnorm_wordpool_576.txt	LTP364	ltpFR2	11	12	SALMON	1227	n/a	n/a	0	0	0
2243819	WORD	wordpools/wasnorm_wordpool_576.txt	LTP364	ltpFR2	11	12	CLAMP	316	n/a	n/a	0	0	0
2246635	WORD	wordpools/wasnorm_wordpool_576.txt	LTP364	ltpFR2	11	12	PAPER	1011	n/a	n/a	0	0	0
2249383	WORD	wordpools/wasnorm_wordpool_576.txt	LTP364	ltpFR2	11	12	COMET	353	n/a	n/a	0	0	0
2251815	WORD	wordpools/wasnorm_wordpool_576.txt	LTP364	ltpFR2	11	12	MARS	873	n/a	n/a	0	0	0
2254597	WORD	wordpools/wasnorm_wordpool_576.txt	LTP364	ltpFR2	11	12	VENUS	1557	n/a	n/a	0	0	0
2257046	WORD	wordpools/wasnorm_wordpool_576.txt	LTP364	ltpFR2	11	12	STAPLE	1371	n/a	n/a	0	0	0
2259478	WORD	wordpools/wasnorm_wordpool_576.txt	LTP364	ltpFR2	11	12	SHERIFF	1284	n/a	n/a	0	0	0
2262010	WORD	wordpools/wasnorm_wordpool_576.txt	LTP364	ltpFR2	11	12	BLADE	134	n/a	n/a	0	0	0
2264459	WORD	wordpools/wasnorm_wordpool_576.txt	LTP364	ltpFR2	11	12	SUNRISE	1407	n/a	n/a	0	0	0
2266958	WORD	wordpools/wasnorm_wordpool_576.txt	LTP364	ltpFR2	11	12	AGENT	10	n/a	n/a	0	0	0
2269756	WORD	wordpools/wasnorm_wordpool_576.txt	LTP364	ltpFR2	11	12	VICTIM	1562	n/a	n/a	0	0	0
2272388	WORD	wordpools/wasnorm_wordpool_576.txt	LTP364	ltpFR2	11	12	PASTA	1021	n/a	n/a	0	0	0
2275054	WORD	wordpools/wasnorm_wordpool_576.txt	LTP364	ltpFR2	11	12	SIBLING	1301	n/a	n/a	0	0	0
2277552	WORD	wordpools/wasnorm_wordpool_576.txt	LTP364	ltpFR2	11	12	POCKET	1093	n/a	n/a	0	0	0
2280034	WORD	wordpools/wasnorm_wordpool_576.txt	LTP364	ltpFR2	11	12	LAPEL	800	n/a	n/a	0	0	0
2282651	WORD	wordpools/wasnorm_wordpool_576.txt	LTP364	ltpFR2	11	12	ROD	1203	n/a	n/a	0	0	0
2284266	START	n/a	LTP364	ltpFR2	11	n/a	n/a	n/a	17	n/a	n/a	n/a	n/a
2285290	DISTRACTOR	n/a	LTP364	ltpFR2	11	12	n/a	n/a	n/a	n/a	0	0	0
2285298	PROB	n/a	LTP364	ltpFR2	11	n/a	n/a	n/a	17	16	1	9	6
2287431	PROB	n/a	LTP364	ltpFR2	11	n/a	n/a	n/a	17	15	1	6	8
2290263	PROB	n/a	LTP364	ltpFR2	11	n/a	n/a	n/a	17	16	4	6	6
2291862	PROB	n/a	LTP364	ltpFR2	11	n/a	n/a	n/a	17	17	8	3	6
2294427	PROB	n/a	LTP364	ltpFR2	11	n/a	n/a	n/a	17	12	8	1	3
2296260	PROB	n/a	LTP364	ltpFR2	11	n/a	n/a	n/a	17	12	2	8	2
2298009	PROB	n/a	LTP364	ltpFR2	11	n/a	n/a	n/a	17	22	8	8	6
2301857	PROB	n/a	LTP364	ltpFR2	11	n/a	n/a	n/a	17	18	9	6	3
2308250	STOP	n/a	LTP364	ltpFR2	11	n/a	n/a	n/a	17	n/a	n/a	n/a	n/a
2310103	REC_START	n/a	LTP364	ltpFR2	11	12	n/a	n/a	n/a	n/a	0	0	0
2321605	REC_WORD	wordpools/wasnorm_wordpool_576.txt	LTP364	ltpFR2	11	12	JURY	766	n/a	n/a	0	0	0
2335262	REC_WORD	wordpools/wasnorm_wordpool_576.txt	LTP364	ltpFR2	11	12	HAWK	692	n/a	n/a	0	0	0
2335967	REC_WORD	wordpools/wasnorm_wordpool_576.txt	LTP364	ltpFR2	11	12	COUNTY	389	n/a	n/a	0	0	0
2337932	REC_WORD	wordpools/wasnorm_wordpool_576.txt	LTP364	ltpFR2	11	12	POSTAGE	1113	n/a	n/a	0	0	0
2338932	REC_WORD_VV	wordpools/wasnorm_wordpool_576.txt	LTP364	ltpFR2	11	12	<>	-1	n/a	n/a	0	0	0
2339932	REC_WORD_VV	wordpools/wasnorm_wordpool_576.txt	LTP364	ltpFR2	11	12	<>	-1	n/a	n/a	0	0	0
2340890	REC_WORD	wordpools/wasnorm_wordpool_576.txt	LTP364	ltpFR2	11	12	OYSTER	995	n/a	n/a	0	0	0
2341397	REC_WORD	wordpools/wasnorm_wordpool_576.txt	LTP364	ltpFR2	11	12	SALMON	1227	n/a	n/a	0	0	0
2343401	REC_WORD	wordpools/wasnorm_wordpool_576.txt	LTP364	ltpFR2	11	12	PAPER	1011	n/a	n/a	0	0	0
2346953	REC_WORD	wordpools/wasnorm_wordpool_576.txt	LTP364	ltpFR2	11	12	COMET	353	n/a	n/a	0	0	0
2358045	REC_WORD	wordpools/wasnorm_wordpool_576.txt	LTP364	ltpFR2	11	12	MARS	873	n/a	n/a	0	0	0
2358582	REC_WORD	wordpools/wasnorm_wordpool_576.txt	LTP364	ltpFR2	11	12	VENUS	1557	n/a	n/a	0	0	0
2359452	REC_WORD	wordpools/wasnorm_wordpool_576.txt	LTP364	ltpFR2	11	12	STAPLE	1371	n/a	n/a	0	0	0
2363858	REC_WORD	wordpools/wasnorm_wordpool_576.txt	LTP364	ltpFR2	11	12	POLICE	1098	n/a	n/a	0	0	0
2400558	DISTRACTOR	n/a	LTP364	ltpFR2	11	13	n/a	n/a	n/a	n/a	0	0	0
2400558	START	n/a	LTP364	ltpFR2	11	n/a	n/a	n/a	18	n/a	n/a	n/a	n/a
2400575	PROB	n/a	LTP364	ltpFR2	11	n/a	n/a	n/a	18	12	9	1	2
2402624	PROB	n/a	LTP364	ltpFR2	11	n/a	n/a	n/a	18	2	7	8	5
2406105	PROB	n/a	LTP364	ltpFR2	11	n/a	n/a	n/a	18	15	6	3	6
2408987	PROB	n/a	LTP364	ltpFR2	11	n/a	n/a	n/a	18	16	8	7	1
2410919	PROB	n/a	LTP364	ltpFR2	11	n/a	n/a	n/a	18	17	5	8	4
2414101	PROB	n/a	LTP364	ltpFR2	11	n/a	n/a	n/a	18	20	6	8	6
2416233	PROB	n/a	LTP364	ltpFR2	11	n/a	n/a	n/a	18	11	4	3	4
2419683	PROB	n/a	LTP364	ltpFR2	11	n/a	n/a	n/a	18	7	1	1	5
2420964	PROB	n/a	LTP364	ltpFR2	11	n/a	n/a	n/a	18	5	1	2	2
2422347	PROB	n/a	LTP364	ltpFR2	11	n/a	n/a	n/a	18	15	5	6	4
2424034	STOP	n/a	LTP364	ltpFR2	11	n/a	n/a	n/a	18	n/a	n/a	n/a	n/a
2425663	WORD	wordpools/wasnorm_wordpool_576.txt	LTP364	ltpFR2	11	13	CREVICE	405	n/a	n/a	0	0	0
2428361	WORD	wordpools/wasnorm_wordpool_576.txt	LTP364	ltpFR2	11	13	SPOON	1357	n/a	n/a	0	0	0
2431026	WORD	wordpools/wasnorm_wordpool_576.txt	LTP364	ltpFR2	11	13	INFANT	737	n/a	n/a	0	0	0
2433591	WORD	wordpools/wasnorm_wordpool_576.txt	LTP364	ltpFR2	11	13	VIKING	1565	n/a	n/a	0	0	0
2436340	WORD	wordpools/wasnorm_wordpool_576.txt	LTP364	ltpFR2	11	13	CANAL	226	n/a	n/a	0	0	0
2439022	WORD	wordpools/wasnorm_wordpool_576.txt	LTP364	ltpFR2	11	13	COCKTAIL	338	n/a	n/a	0	0	0
2441721	WORD	wordpools/wasnorm_wordpool_576.txt	LTP364	ltpFR2	11	13	SCOTCH	1251	n/a	n/a	0	0	0
2444436	WORD	wordpools/wasnorm_wordpool_576.txt	LTP364	ltpFR2	11	13	PORTRAIT	1111	n/a	n/a	0	0	0
2446885	WORD	wordpools/wasnorm_wordpool_576.txt	LTP364	ltpFR2	11	13	STALLION	1369	n/a	n/a	0	0	0
2449434	WORD	wordpools/wasnorm_wordpool_576.txt	LTP364	ltpFR2	11	13	HORSE	719	n/a	n/a	0	0	0
2451966	WORD	wordpools/wasnorm_wordpool_576.txt	LTP364	ltpFR2	11	13	SCISSORS	1250	n/a	n/a	0	0	0
2454431	WORD	wordpools/wasnorm_wordpool_576.txt	LTP364	ltpFR2	11	13	DORM	488	n/a	n/a	0	0	0
2456963	WORD	wordpools/wasnorm_wordpool_576.txt	LTP364	ltpFR2	11	13	PICNIC	1060	n/a	n/a	0	0	0
2459729	WORD	wordpools/wasnorm_wordpool_576.txt	LTP364	ltpFR2	11	13	STREAM	1392	n/a	n/a	0	0	0
2462394	WORD	wordpools/wasnorm_wordpool_576.txt	LTP364	ltpFR2	11	13	DRINK	498	n/a	n/a	0	0	0
2464859	WORD	wordpools/wasnorm_wordpool_576.txt	LTP364	ltpFR2	11	13	TART	1436	n/a	n/a	0	0	0
2467325	WORD	wordpools/wasnorm_wordpool_576.txt	LTP364	ltpFR2	11	13	SANDWICH	1232	n/a	n/a	0	0	0
2469990	WORD	wordpools/wasnorm_wordpool_576.txt	LTP364	ltpFR2	11	13	EYELASH	546	n/a	n/a	0	0	0
2472772	WORD	wordpools/wasnorm_wordpool_576.txt	LTP364	ltpFR2	11	13	LAGOON	795	n/a	n/a	0	0	0
2475504	WORD	wordpools/wasnorm_wordpool_576.txt	LTP364	ltpFR2	11	13	ICEBERG	731	n/a	n/a	0	0	0
2477969	WORD	wordpools/wasnorm_wordpool_576.txt	LTP364	ltpFR2	11	13	KLEENEX	782	n/a	n/a	0	0	0
2480785	WORD	wordpools/wasnorm_wordpool_576.txt	LTP364	ltpFR2	11	13	CARRIAGE	248	n/a	n/a	0	0	0
2483517	WORD	wordpools/wasnorm_wordpool_576.txt	LTP364	ltpFR2	11	13	PIZZA	1079	n/a	n/a	0	0	0
2486265	WORD	wordpools/wasnorm_wordpool_576.txt	LTP364	ltpFR2	11	13	MAPLE	866	n/a	n/a	0	0	0
2487881	START	n/a	LTP364	ltpFR2	11	n/a	n/a	n/a	19	n/a	n/a	n/a	n/a
2488814	DISTRACTOR	n/a	LTP364	ltpFR2	11	13	n/a	n/a	n/a	n/a	0	0	0
2488831	PROB	n/a	LTP364	ltpFR2	11	n/a	n/a	n/a	19	14	3	9	2
2490963	PROB	n/a	LTP364	ltpFR2	11	n/a	n/a	n/a	19	7	4	1	2
2494578	PROB	n/a	LTP364	ltpFR2	11	n/a	n/a	n/a	19	18	8	6	4
2496194	PROB	n/a	LTP364	ltpFR2	11	n/a	n/a	n/a	19	12	6	3	3
2497826	PROB	n/a	LTP364	ltpFR2	11	n/a	n/a	n/a	19	15	8	1	6
2499709	PROB	n/a	LTP364	ltpFR2	11	n/a	n/a	n/a	19	19	8	8	3
2505073	PROB	n/a	LTP364	ltpFR2	11	n/a	n/a	n/a	19	13	3	4	6
2507088	PROB	n/a	LTP364	ltpFR2	11	n/a	n/a	n/a	19	5	2	1	2
2508338	PROB	n/a	LTP364	ltpFR2	11	n/a	n/a	n/a	19	18	6	9	3
2511881	STOP	n/a	LTP364	ltpFR2	11	n/a	n/a	n/a	19	n/a	n/a	n/a	n/a
2513719	REC_START	n/a	LTP364	ltpFR2	11	13	n/a	n/a	n/a	n/a	0	0	0
2588719	REC_WORD_VV	wordpools/wasnorm_wordpool_576.txt	LTP364	ltpFR2	11	13	<>	-1	n/a	n/a	0	0	0
2604173	WORD	wordpools/wasnorm_wordpool_576.txt	LTP364	ltpFR2	11	14	SPARROW	1347	n/a	n/a	0	0	0
2606673	WORD	wordpools/wasnorm_wordpool_576.txt	LTP364	ltpFR2	11	14	BADGE	68	n/a	n/a	0	0	0
2609338	WORD	wordpools/wasnorm_wordpool_576.txt	LTP364	ltpFR2	11	14	BEAST	108	n/a	n/a	0	0	0
2612020	WORD	wordpools/wasnorm_wordpool_576.txt	LTP364	ltpFR2	11	14	FARMER	553	n/a	n/a	0	0	0
2614485	WORD	wordpools/wasnorm_wordpool_576.txt	LTP364	ltpFR2	11	14	SLOPE	1328	n/a	n/a	0	0	0
2616934	WORD	wordpools/wasnorm_wordpool_576.txt	LTP364	ltpFR2	11	14	ACTRESS	6	n/a	n/a	0	0	0
2619683	WORD	wordpools/wasnorm_wordpool_576.txt	LTP364	ltpFR2	11	14	EGYPT	519	n/a	n/a	0	0	0
2622165	WORD	wordpools/wasnorm_wordpool_576.txt	LTP364	ltpFR2	11	14	TUTU	1524	n/a	n/a	0	0	0
2624963	WORD	wordpools/wasnorm_wordpool_576.txt	LTP364	ltpFR2	11	14	DANCER	437	n/a	n/a	0	0	0
2627712	WORD	wordpools/wasnorm_wordpool_576.txt	LTP364	ltpFR2	11	14	JELLO	754	n/a	n/a	0	0	0
2630494	WORD	wordpools/wasnorm_wordpool_576.txt	LTP364	ltpFR2	11	14	FOREST	593	n/a	n/a	0	0	0
2632959	WORD	wordpools/wasnorm_wordpool_576.txt	LTP364	ltpFR2	11	14	ACTOR	5	n/a	n/a	0	0	0
2635692	WORD	wordpools/wasnorm_wordpool_576.txt	LTP364	ltpFR2	11	14	NOVEL	960	n/a	n/a	0	0	0
2638373	WORD	wordpools/wasnorm_wordpool_576.txt	LTP364	ltpFR2	11	14	SUSPECT	1415	n/a	n/a	0	0	0
2640905	WORD	wordpools/wasnorm_wordpool_576.txt	LTP364	ltpFR2	11	14	SUMMIT	1405	n/a	n/a	0	0	0
2643720	WORD	wordpools/wasnorm_wordpool_576.txt	LTP364	ltpFR2	11	14	HIKER	708	n/a	n/a	0	0	0
2646486	WORD	wordpools/wasnorm_wordpool_576.txt	LTP364	ltpFR2	11	14	PARTNER	1017	n/a	n/a	0	0	0
2649251	WORD	wordpools/wasnorm_wordpool_576.txt	LTP364	ltpFR2	11	14	GAVEL	627	n/a	n/a	0	0	0
2652016	WORD	wordpools/wasnorm_wordpool_576.txt	LTP364	ltpFR2	11	14	POSSUM	1112	n/a	n/a	0	0	0
2654683	WORD	wordpools/wasnorm_wordpool_576.txt	LTP364	ltpFR2	11	14	SALAD	1224	n/a	n/a	0	0	0
2657264	WORD	wordpools/wasnorm_wordpool_576.txt	LTP364	ltpFR2	11	14	PARSLEY	1016	n/a	n/a	0	0	0
2659746	WORD	wordpools/wasnorm_wordpool_576.txt	LTP364	ltpFR2	11	14	GANGSTER	620	n/a	n/a	0	0	0
2662261	WORD	wordpools/wasnorm_wordpool_576.txt	LTP364	ltpFR2	11	14	PLUTO	1092	n/a	n/a	0	0	0
2665043	WORD	wordpools/wasnorm_wordpool_576.txt	LTP364	ltpFR2	11	14	PUDDING	1139	n/a	n/a	0	0	0
2666660	START	n/a	LTP364	ltpFR2	11	n/a	n/a	n/a	20	n/a	n/a	n/a	n/a
2667673	DISTRACTOR	n/a	LTP364	ltpFR2	11	14	n/a	n/a	n/a	n/a	0	0	0
2667676	PROB	n/a	LTP364	ltpFR2	11	n/a	n/a	n/a	20	19	4	9	6
2671523	PROB	n/a	LTP364	ltpFR2	11	n/a	n/a	n/a	20	16	5	8	3
2674689	PROB	n/a	LTP364	ltpFR2	11	n/a	n/a	n/a	20	12	6	3	3
2679403	PROB	n/a	LTP364	ltpFR2	11	n/a	n/a	n/a	20	16	7	7	2
2681368	PROB	n/a	LTP364	ltpFR2	11	n/a	n/a	n/a	20	19	4	7	8
2683351	PROB	n/a	LTP364	ltpFR2	11	n/a	n/a	n/a	20	19	3	9	7
2684933	PROB	n/a	LTP364	ltpFR2	11	n/a	n/a	n/a	20	12	4	5	3
2686566	PROB	n/a	LTP364	ltpFR2	11	n/a	n/a	n/a	20	16	1	9	6
2687932	PROB	n/a	LTP364	ltpFR2	11	n/a	n/a	n/a	20	15	7	6	2
2690082	STOP	n/a	LTP364	ltpFR2	11	n/a	n/a	n/a	20	n/a	n/a	n/a	n/a
2692547	REC_START	n/a	LTP364	ltpFR2	11	14	n/a	n/a	n/a	n/a	0	0	0
2694439	REC_WORD	wordpools/wasnorm_wordpool_576.txt	LTP364	ltpFR2	11	14	SPARROW	1347	n/a	n/a	0	0	0
2696088	REC_WORD	wordpools/wasnorm_wordpool_576.txt	LTP364	ltpFR2	11	14	BADGE	68	n/a	n/a	0	0	0
2697104	REC_WORD	wordpools/wasnorm_wordpool_576.txt	LTP364	ltpFR2	11	14	BEAST	108	n/a	n/a	0	0	0
2698881	REC_WORD	wordpools/wasnorm_wordpool_576.txt	LTP364	ltpFR2	11	14	FARMER	553	n/a	n/a	0	0	0
2702400	REC_WORD	wordpools/wasnorm_wordpool_576.txt	LTP364	ltpFR2	11	14	ACTRESS	6	n/a	n/a	0	0	0
2703754	REC_WORD	wordpools/wasnorm_wordpool_576.txt	LTP364	ltpFR2	11	14	SLOPE	1328	n/a	n/a	0	0	0
2705250	REC_WORD	wordpools/wasnorm_wordpool_576.txt	LTP364	ltpFR2	11	14	EGYPT	519	n/a	n/a	0	0	0
2705887	REC_WORD	wordpools/wasnorm_wordpool_576.txt	LTP364	ltpFR2	11	14	TUTU	1524	n/a	n/a	0	0	0
2707939	REC_WORD	wordpools/wasnorm_wordpool_576.txt	LTP364	ltpFR2	11	14	DANCER	437	n/a	n/a	0	0	0
2708649	REC_WORD	wordpools/wasnorm_wordpool_576.txt	LTP364	ltpFR2	11	14	JELLO	754	n/a	n/a	0	0	0
2713174	REC_WORD	wordpools/wasnorm_wordpool_576.txt	LTP364	ltpFR2	11	14	FOREST	593	n/a	n/a	0	0	0
2714005	REC_WORD	wordpools/wasnorm_wordpool_576.txt	LTP364	ltpFR2	11	14	ACTOR	5	n/a	n/a	0	0	0
2714566	REC_WORD	wordpools/wasnorm_wordpool_576.txt	LTP364	ltpFR2	11	14	NOVEL	960	n/a	n/a	0	0	0
2715176	REC_WORD	wordpools/wasnorm_wordpool_576.txt	LTP364	ltpFR2	11	14	SUSPECT	1415	n/a	n/a	0	0	0
2715829	REC_WORD_VV	wordpools/wasnorm_wordpool_576.txt	LTP364	ltpFR2	11	14	<>	-1	n/a	n/a	0	0	0
2715918	REC_WORD	wordpools/wasnorm_wordpool_576.txt	LTP364	ltpFR2	11	14	SUMMIT	1405	n/a	n/a	0	0	0
2716472	REC_WORD	wordpools/wasnorm_wordpool_576.txt	LTP364	ltpFR2	11	14	HIKER	708	n/a	n/a	0	0	0
2717567	REC_WORD	wordpools/wasnorm_wordpool_576.txt	LTP364	ltpFR2	11	14	PARTNER	1017	n/a	n/a	0	0	0
2719749	REC_WORD	wordpools/wasnorm_wordpool_576.txt	LTP364	ltpFR2	11	14	GAVEL	627	n/a	n/a	0	0	0
2721309	REC_WORD	wordpools/wasnorm_wordpool_576.txt	LTP364	ltpFR2	11	14	POSSUM	1112	n/a	n/a	0	0	0
2723138	REC_WORD	wordpools/wasnorm_wordpool_576.txt	LTP364	ltpFR2	11	14	PUDDING	1139	n/a	n/a	0	0	0
2783018	WORD	wordpools/wasnorm_wordpool_576.txt	LTP364	ltpFR2	11	15	GLOBE	641	n/a	n/a	0	0	0
2785717	WORD	wordpools/wasnorm_wordpool_576.txt	LTP364	ltpFR2	11	15	WORLD	1622	n/a	n/a	0	0	0
2788249	WORD	wordpools/wasnorm_wordpool_576.txt	LTP364	ltpFR2	11	15	BACON	67	n/a	n/a	0	0	0
2790997	WORD	wordpools/wasnorm_wordpool_576.txt	LTP364	ltpFR2	11	15	TWIG	1527	n/a	n/a	0	0	0
2793513	WORD	wordpools/wasnorm_wordpool_576.txt	LTP364	ltpFR2	11	15	APRON	35	n/a	n/a	0	0	0
2796045	WORD	wordpools/wasnorm_wordpool_576.txt	LTP364	ltpFR2	11	15	OMELET	976	n/a	n/a	0	0	0
2798727	WORD	wordpools/wasnorm_wordpool_576.txt	LTP364	ltpFR2	11	15	BLENDER	136	n/a	n/a	0	0	0
2801176	WORD	wordpools/wasnorm_wordpool_576.txt	LTP364	ltpFR2	11	15	FLASHLIGHT	575	n/a	n/a	0	0	0
2803808	WORD	wordpools/wasnorm_wordpool_576.txt	LTP364	ltpFR2	11	15	SCALPEL	1243	n/a	n/a	0	0	0
2806373	WORD	wordpools/wasnorm_wordpool_576.txt	LTP364	ltpFR2	11	15	SPOOL	1356	n/a	n/a	0	0	0
2808955	WORD	wordpools/wasnorm_wordpool_576.txt	LTP364	ltpFR2	11	15	MONEY	908	n/a	n/a	0	0	0
2811570	WORD	wordpools/wasnorm_wordpool_576.txt	LTP364	ltpFR2	11	15	FRAGRANCE	599	n/a	n/a	0	0	0
2814302	WORD	wordpools/wasnorm_wordpool_576.txt	LTP364	ltpFR2	11	15	SWORD	1423	n/a	n/a	0	0	0
2816918	WORD	wordpools/wasnorm_wordpool_576.txt	LTP364	ltpFR2	11	15	SCRIBBLE	1256	n/a	n/a	0	0	0
2819651	WORD	wordpools/wasnorm_wordpool_576.txt	LTP364	ltpFR2	11	15	HELMET	702	n/a	n/a	0	0	0
2822415	WORD	wordpools/wasnorm_wordpool_576.txt	LTP364	ltpFR2	11	15	KITCHEN	778	n/a	n/a	0	0	0
2824847	WORD	wordpools/wasnorm_wordpool_576.txt	LTP364	ltpFR2	11	15	TOASTER	1472	n/a	n/a	0	0	0
2827296	WORD	wordpools/wasnorm_wordpool_576.txt	LTP364	ltpFR2	11	15	ATLAS	53	n/a	n/a	0	0	0
2829728	WORD	wordpools/wasnorm_wordpool_576.txt	LTP364	ltpFR2	11	15	BINDER	127	n/a	n/a	0	0	0
2832377	WORD	wordpools/wasnorm_wordpool_576.txt	LTP364	ltpFR2	11	15	FRUIT	610	n/a	n/a	0	0	0
2834959	WORD	wordpools/wasnorm_wordpool_576.txt	LTP364	ltpFR2	11	15	COOKBOOK	373	n/a	n/a	0	0	0
2837608	WORD	wordpools/wasnorm_wordpool_576.txt	LTP364	ltpFR2	11	15	DONOR	485	n/a	n/a	0	0	0
2840206	WORD	wordpools/wasnorm_wordpool_576.txt	LTP364	ltpFR2	11	15	TWEEZERS	1526	n/a	n/a	0	0	0
2842788	WORD	wordpools/wasnorm_wordpool_576.txt	LTP364	ltpFR2	11	15	BANK	83	n/a	n/a	0	0	0
2844404	START	n/a	LTP364	ltpFR2	11	n/a	n/a	n/a	21	n/a	n/a	n/a	n/a
2845297	DISTRACTOR	n/a	LTP364	ltpFR2	11	15	n/a	n/a	n/a	n/a	0	0	0
2845304	PROB	n/a	LTP364	ltpFR2	11	n/a	n/a	n/a	21	13	6	6	1
2847186	PROB	n/a	LTP364	ltpFR2	11	n/a	n/a	n/a	21	17	1	7	9
2849218	PROB	n/a	LTP364	ltpFR2	11	n/a	n/a	n/a	21	19	4	8	7
2851917	PROB	n/a	LTP364	ltpFR2	11	n/a	n/a	n/a	21	21	9	7	5
2854532	PROB	n/a	LTP364	ltpFR2	11	n/a	n/a	n/a	21	12	8	1	3
2856198	PROB	n/a	LTP364	ltpFR2	11	n/a	n/a	n/a	21	19	9	7	3
2858097	PROB	n/a	LTP364	ltpFR2	11	n/a	n/a	n/a	21	21	7	9	6
2864628	PROB	n/a	LTP364	ltpFR2	11	n/a	n/a	n/a	21	10	6	1	3
2868404	STOP	n/a	LTP364	ltpFR2	11	n/a	n/a	n/a	21	n/a	n/a	n/a	n/a
2870192	REC_START	n/a	LTP364	ltpFR2	11	15	n/a	n/a	n/a	n/a	0	0	0
2874313	REC_WORD	wordpools/wasnorm_wordpool_576.txt	LTP364	ltpFR2	11	15	GLOBE	641	n/a	n/a	0	0	0
2877175	REC_WORD	wordpools/wasnorm_wordpool_576.txt	LTP364	ltpFR2	11	15	BACON	67	n/a	n/a	0	0	0
2878072	REC_WORD	wordpools/wasnorm_wordpool_576.txt	LTP364	ltpFR2	11	15	TWIG	1527	n/a	n/a	0	0	0
2879031	REC_WORD	wordpools/wasnorm_wordpool_576.txt	LTP364	ltpFR2	11	15	APRON	35	n/a	n/a	0	0	0
2882467	REC_WORD	wordpools/wasnorm_wordpool_576.txt	LTP364	ltpFR2	11	15	OMELET	976	n/a	n/a	0	0	0
2884612	REC_WORD	wordpools/wasnorm_wordpool_576.txt	LTP364	ltpFR2	11	15	BLENDER	136	n/a	n/a	0	0	0
2891825	REC_WORD	wordpools/wasnorm_wordpool_576.txt	LTP364	ltpFR2	11	15	SPOOL	1356	n/a	n/a	0	0	0
2893762	REC_WORD	wordpools/wasnorm_wordpool_576.txt	LTP364	ltpFR2	11	15	SCALPEL	1243	n/a	n/a	0	0	0
2897311	REC_WORD	wordpools/wasnorm_wordpool_576.txt	LTP364	ltpFR2	11	15	SWORD	1423	n/a	n/a	0	0	0
2897833	REC_WORD	wordpools/wasnorm_wordpool_576.txt	LTP364	ltpFR2	11	15	HELMET	702	n/a	n/a	0	0	0
2899287	REC_WORD	wordpools/wasnorm_wordpool_576.txt	LTP364	ltpFR2	11	15	BASEMENT	94	n/a	n/a	0	0	0
2902697	REC_WORD	wordpools/wasnorm_wordpool_576.txt	LTP364	ltpFR2	11	15	KITCHEN	778	n/a	n/a	0	0	0
2904193	REC_WORD	wordpools/wasnorm_wordpool_576.txt	LTP364	ltpFR2	11	15	TOASTER	1472	n/a	n/a	0	0	0
2905834	REC_WORD	wordpools/wasnorm_wordpool_576.txt	LTP364	ltpFR2	11	15	ATLAS	53	n/a	n/a	0	0	0
2906562	REC_WORD	wordpools/wasnorm_wordpool_576.txt	LTP364	ltpFR2	11	15	BINDER	127	n/a	n/a	0	0	0
2911924	REC_WORD	wordpools/wasnorm_wordpool_576.txt	LTP364	ltpFR2	11	15	TWEEZERS	1526	n/a	n/a	0	0	0
2912807	REC_WORD	wordpools/wasnorm_wordpool_576.txt	LTP364	ltpFR2	11	15	BANK	83	n/a	n/a	0	0	0
2960647	DISTRACTOR	n/a	LTP364	ltpFR2	11	16	n/a	n/a	n/a	n/a	0	0	0
2960648	START	n/a	LTP364	ltpFR2	11	n/a	n/a	n/a	22	n/a	n/a	n/a	n/a
2960664	PROB	n/a	LTP364	ltpFR2	11	n/a	n/a	n/a	22	19	8	2	9
2962529	PROB	n/a	LTP364	ltpFR2	11	n/a	n/a	n/a	22	16	6	9	1
2963945	PROB	n/a	LTP364	ltpFR2	11	n/a	n/a	n/a	22	18	9	1	8
2965527	PROB	n/a	LTP364	ltpFR2	11	n/a	n/a	n/a	22	14	8	2	4
2967027	PROB	n/a	LTP364	ltpFR2	11	n/a	n/a	n/a	22	16	8	2	6
2968677	PROB	n/a	LTP364	ltpFR2	11	n/a	n/a	n/a	22	12	5	3	4
2971841	PROB	n/a	LTP364	ltpFR2	11	n/a	n/a	n/a	22	9	5	1	3
2975606	PROB	n/a	LTP364	ltpFR2	11	n/a	n/a	n/a	22	23	5	9	9
2978737	PROB	n/a	LTP364	ltpFR2	11	n/a	n/a	n/a	22	18	5	4	9
2984530	STOP	n/a	LTP364	ltpFR2	11	n/a	n/a	n/a	22	n/a	n/a	n/a	n/a
2985851	WORD	wordpools/wasnorm_wordpool_576.txt	LTP364	ltpFR2	11	16	KNAPSACK	783	n/a	n/a	0	0	0
2988333	WORD	wordpools/wasnorm_wordpool_576.txt	LTP364	ltpFR2	11	16	BEAKER	104	n/a	n/a	0	0	0
2990865	WORD	wordpools/wasnorm_wordpool_576.txt	LTP364	ltpFR2	11	16	BROOK	177	n/a	n/a	0	0	0
2993330	WORD	wordpools/wasnorm_wordpool_576.txt	LTP364	ltpFR2	11	16	GHETTO	633	n/a	n/a	0	0	0
2995829	WORD	wordpools/wasnorm_wordpool_576.txt	LTP364	ltpFR2	11	16	HEADBAND	696	n/a	n/a	0	0	0
2998411	WORD	wordpools/wasnorm_wordpool_576.txt	LTP364	ltpFR2	11	16	COOK	372	n/a	n/a	0	0	0
3001160	WORD	wordpools/wasnorm_wordpool_576.txt	LTP364	ltpFR2	11	16	CUPBOARD	425	n/a	n/a	0	0	0
3003626	WORD	wordpools/wasnorm_wordpool_576.txt	LTP364	ltpFR2	11	16	TROMBONE	1508	n/a	n/a	0	0	0
3006424	WORD	wordpools/wasnorm_wordpool_576.txt	LTP364	ltpFR2	11	16	ONION	977	n/a	n/a	0	0	0
3008906	WORD	wordpools/wasnorm_wordpool_576.txt	LTP364	ltpFR2	11	16	CIGAR	308	n/a	n/a	0	0	0
3011655	WORD	wordpools/wasnorm_wordpool_576.txt	LTP364	ltpFR2	11	16	SWIMMER	1420	n/a	n/a	0	0	0
3014286	WORD	wordpools/wasnorm_wordpool_576.txt	LTP364	ltpFR2	11	16	BRIEFCASE	175	n/a	n/a	0	0	0
3016968	WORD	wordpools/wasnorm_wordpool_576.txt	LTP364	ltpFR2	11	16	MARINE	869	n/a	n/a	0	0	0
3019651	WORD	wordpools/wasnorm_wordpool_576.txt	LTP364	ltpFR2	11	16	FOOT	590	n/a	n/a	0	0	0
3022166	WORD	wordpools/wasnorm_wordpool_576.txt	LTP364	ltpFR2	11	16	ANKLE	24	n/a	n/a	0	0	0
3024865	WORD	wordpools/wasnorm_wordpool_576.txt	LTP364	ltpFR2	11	16	GRIZZLY	662	n/a	n/a	0	0	0
3027413	WORD	wordpools/wasnorm_wordpool_576.txt	LTP364	ltpFR2	11	16	TABLE	1426	n/a	n/a	0	0	0
3030195	WORD	wordpools/wasnorm_wordpool_576.txt	LTP364	ltpFR2	11	16	SERVANT	1271	n/a	n/a	0	0	0
3032794	WORD	wordpools/wasnorm_wordpool_576.txt	LTP364	ltpFR2	11	16	PRINCESS	1125	n/a	n/a	0	0	0
3035476	WORD	wordpools/wasnorm_wordpool_576.txt	LTP364	ltpFR2	11	16	SCULPTURE	1258	n/a	n/a	0	0	0
3037908	WORD	wordpools/wasnorm_wordpool_576.txt	LTP364	ltpFR2	11	16	STATUE	1374	n/a	n/a	0	0	0
3040658	WORD	wordpools/wasnorm_wordpool_576.txt	LTP364	ltpFR2	11	16	ARM	38	n/a	n/a	0	0	0
3043122	WORD	wordpools/wasnorm_wordpool_576.txt	LTP364	ltpFR2	11	16	PREACHER	1119	n/a	n/a	0	0	0
3045689	WORD	wordpools/wasnorm_wordpool_576.txt	LTP364	ltpFR2	11	16	RELISH	1183	n/a	n/a	0	0	0
3047304	START	n/a	LTP364	ltpFR2	11	n/a	n/a	n/a	23	n/a	n/a	n/a	n/a
3048393	DISTRACTOR	n/a	LTP364	ltpFR2	11	16	n/a	n/a	n/a	n/a	0	0	0
3048419	PROB	n/a	LTP364	ltpFR2	11	n/a	n/a	n/a	23	13	4	7	2
3055566	PROB	n/a	LTP364	ltpFR2	11	n/a	n/a	n/a	23	16	3	6	7
3057898	PROB	n/a	LTP364	ltpFR2	11	n/a	n/a	n/a	23	17	4	6	7
3059597	PROB	n/a	LTP364	ltpFR2	11	n/a	n/a	n/a	23	21	5	9	7
3062179	PROB	n/a	LTP364	ltpFR2	11	n/a	n/a	n/a	23	4	1	2	1
3063445	PROB	n/a	LTP364	ltpFR2	11	n/a	n/a	n/a	23	13	2	2	9
3065561	PROB	n/a	LTP364	ltpFR2	11	n/a	n/a	n/a	23	16	9	1	6
3066810	PROB	n/a	LTP364	ltpFR2	11	n/a	n/a	n/a	23	14	5	8	1
3071304	STOP	n/a	LTP364	ltpFR2	11	n/a	n/a	n/a	23	n/a	n/a	n/a	n/a
3073074	REC_START	n/a	LTP364	ltpFR2	11	16	n/a	n/a	n/a	n/a	0	0	0
3075060	REC_WORD	wordpools/wasnorm_wordpool_576.txt	LTP364	ltpFR2	11	16	BROOK	177	n/a	n/a	0	0	0
3075979	REC_WORD	wordpools/wasnorm_wordpool_576.txt	LTP364	ltpFR2	11	16	GHETTO	633	n/a	n/a	0	0	0
3075989	REC_WORD	wordpools/wasnorm_wordpool_576.txt	LTP364	ltpFR2	11	16	GHETTO	633	n/a	n/a	0	0	0
3083759	REC_WORD	wordpools/wasnorm_wordpool_576.txt	LTP364	ltpFR2	11	16	COOK	372	n/a	n/a	0	0	0
3086504	REC_WORD	wordpools/wasnorm_wordpool_576.txt	LTP364	ltpFR2	11	16	CUPBOARD	425	n/a	n/a	0	0	0
3087967	REC_WORD_VV	wordpools/wasnorm_wordpool_576.txt	LTP364	ltpFR2	11	16	<>	-1	n/a	n/a	0	0	0
3089109	REC_WORD	wordpools/wasnorm_wordpool_576.txt	LTP364	ltpFR2	11	16	TROMBONE	1508	n/a	n/a	0	0	0
3090962	REC_WORD	wordpools/wasnorm_wordpool_576.txt	LTP364	ltpFR2	11	16	ONION	977	n/a	n/a	0	0	0
3149620	REST_REWET	n/a	LTP364	ltpFR2	11	16	n/a	n/a	n/a	n/a	0	0	0
3276473	WORD	wordpools/wasnorm_wordpool_576.txt	LTP364	ltpFR2	11	17	RATTLE	1170	n/a	n/a	0	0	0
3279105	WORD	wordpools/wasnorm_wordpool_576.txt	LTP364	ltpFR2	11	17	ANTLER	29	n/a	n/a	0	0	0
3281870	WORD	wordpools/wasnorm_wordpool_576.txt	LTP364	ltpFR2	11	17	GAZELLE	628	n/a	n/a	0	0	0
3284402	WORD	wordpools/wasnorm_wordpool_576.txt	LTP364	ltpFR2	11	17	CHIPMUNK	304	n/a	n/a	0	0	0
3286984	WORD	wordpools/wasnorm_wordpool_576.txt	LTP364	ltpFR2	11	17	GLASS	639	n/a	n/a	0	0	0
3289500	WORD	wordpools/wasnorm_wordpool_576.txt	LTP364	ltpFR2	11	17	SALT	1229	n/a	n/a	0	0	0
3292265	WORD	wordpools/wasnorm_wordpool_576.txt	LTP364	ltpFR2	11	17	QUARTER	1148	n/a	n/a	0	0	0
3295047	WORD	wordpools/wasnorm_wordpool_576.txt	LTP364	ltpFR2	11	17	PLAID	1080	n/a	n/a	0	0	0
3297796	WORD	wordpools/wasnorm_wordpool_576.txt	LTP364	ltpFR2	11	17	OUTFIT	988	n/a	n/a	0	0	0
3300228	WORD	wordpools/wasnorm_wordpool_576.txt	LTP364	ltpFR2	11	17	GARDEN	623	n/a	n/a	0	0	0
3302860	WORD	wordpools/wasnorm_wordpool_576.txt	LTP364	ltpFR2	11	17	PEANUT	1032	n/a	n/a	0	0	0
3305392	WORD	wordpools/wasnorm_wordpool_576.txt	LTP364	ltpFR2	11	17	ZIPPER	1636	n/a	n/a	0	0	0
3308157	WORD	wordpools/wasnorm_wordpool_576.txt	LTP364	ltpFR2	11	17	CORAL	378	n/a	n/a	0	0	0
3310872	WORD	wordpools/wasnorm_wordpool_576.txt	LTP364	ltpFR2	11	17	FOOTBALL	591	n/a	n/a	0	0	0
3313488	WORD	wordpools/wasnorm_wordpool_576.txt	LTP364	ltpFR2	11	17	PECAN	1036	n/a	n/a	0	0	0
3316087	WORD	wordpools/wasnorm_wordpool_576.txt	LTP364	ltpFR2	11	17	ROOSTER	1209	n/a	n/a	0	0	0
3318602	WORD	wordpools/wasnorm_wordpool_576.txt	LTP364	ltpFR2	11	17	SMOG	1330	n/a	n/a	0	0	0
3321084	WORD	wordpools/wasnorm_wordpool_576.txt	LTP364	ltpFR2	11	17	CLOUD	328	n/a	n/a	0	0	0
3323600	WORD	wordpools/wasnorm_wordpool_576.txt	LTP364	ltpFR2	11	17	WINDOW	1611	n/a	n/a	0	0	0
3326298	WORD	wordpools/wasnorm_wordpool_576.txt	LTP364	ltpFR2	11	17	FRAME	600	n/a	n/a	0	0	0
3328814	WORD	wordpools/wasnorm_wordpool_576.txt	LTP364	ltpFR2	11	17	TOMBSTONE	1478	n/a	n/a	0	0	0
3331529	WORD	wordpools/wasnorm_wordpool_576.txt	LTP364	ltpFR2	11	17	LAVA	804	n/a	n/a	0	0	0
3334194	WORD	wordpools/wasnorm_wordpool_576.txt	LTP364	ltpFR2	11	17	PERCH	1048	n/a	n/a	0	0	0
3336926	WORD	wordpools/wasnorm_wordpool_576.txt	LTP364	ltpFR2	11	17	CHILD	299	n/a	n/a	0	0	0
3338542	START	n/a	LTP364	ltpFR2	11	n/a	n/a	n/a	24	n/a	n/a	n/a	n/a
3339355	DISTRACTOR	n/a	LTP364	ltpFR2	11	17	n/a	n/a	n/a	n/a	0	0	0
3339358	PROB	n/a	LTP364	ltpFR2	11	n/a	n/a	n/a	24	14	1	5	8
3341024	PROB	n/a	LTP364	ltpFR2	11	n/a	n/a	n/a	24	25	9	9	7
3345888	PROB	n/a	LTP364	ltpFR2	11	n/a	n/a	n/a	24	16	4	3	9
3347655	PROB	n/a	LTP364	ltpFR2	11	n/a	n/a	n/a	24	8	3	1	4
3349070	PROB	n/a	LTP364	ltpFR2	11	n/a	n/a	n/a	24	9	3	4	2
3351286	PROB	n/a	LTP364	ltpFR2	11	n/a	n/a	n/a	24	8	3	4	1
3353285	PROB	n/a	LTP364	ltpFR2	11	n/a	n/a	n/a	24	12	2	8	2
3355867	PROB	n/a	LTP364	ltpFR2	11	n/a	n/a	n/a	24	17	7	8	2
3357783	PROB	n/a	LTP364	ltpFR2	11	n/a	n/a	n/a	24	10	8	1	1
3359448	PROB	n/a	LTP364	ltpFR2	11	n/a	n/a	n/a	24	18	4	5	9
3361242	STOP	n/a	LTP364	ltpFR2	11	n/a	n/a	n/a	24	n/a	n/a	n/a	n/a
3364330	REC_START	n/a	LTP364	ltpFR2	11	17	n/a	n/a	n/a	n/a	0	0	0
3367409	REC_WORD	wordpools/wasnorm_wordpool_576.txt	LTP364	ltpFR2	11	17	RATTLE	1170	n/a	n/a	0	0	0
3368100	REC_WORD	wordpools/wasnorm_wordpool_576.txt	LTP364	ltpFR2	11	17	ANTLER	29	n/a	n/a	0	0	0
3369101	REC_WORD	wordpools/wasnorm_wordpool_576.txt	LTP364	ltpFR2	11	17	GAZELLE	628	n/a	n/a	0	0	0
3370842	REC_WORD	wordpools/wasnorm_wordpool_576.txt	LTP364	ltpFR2	11	17	CHIPMUNK	304	n/a	n/a	0	0	0
3371474	REC_WORD	wordpools/wasnorm_wordpool_576.txt	LTP364	ltpFR2	11	17	GLASS	639	n/a	n/a	0	0	0
3372178	REC_WORD	wordpools/wasnorm_wordpool_576.txt	LTP364	ltpFR2	11	17	SALT	1229	n/a	n/a	0	0	0
3373796	REC_WORD	wordpools/wasnorm_wordpool_576.txt	LTP364	ltpFR2	11	17	COIN	343	n/a	n/a	0	0	0
3374771	REC_WORD	wordpools/wasnorm_wordpool_576.txt	LTP364	ltpFR2	11	17	PLAID	1080	n/a	n/a	0	0	0
3375385	REC_WORD	wordpools/wasnorm_wordpool_576.txt	LTP364	ltpFR2	11	17	OUTFIT	988	n/a	n/a	0	0	0
3376058	REC_WORD	wordpools/wasnorm_wordpool_576.txt	LTP364	ltpFR2	11	17	GARDEN	623	n/a	n/a	0	0	0
3377400	REC_WORD	wordpools/wasnorm_wordpool_576.txt	LTP364	ltpFR2	11	17	PEANUT	1032	n/a	n/a	0	0	0
3378895	REC_WORD	wordpools/wasnorm_wordpool_576.txt	LTP364	ltpFR2	11	17	CORAL	378	n/a	n/a	0	0	0
3379430	REC_WORD	wordpools/wasnorm_wordpool_576.txt	LTP364	ltpFR2	11	17	FOOTBALL	591	n/a	n/a	0	0	0
3386051	REC_WORD	wordpools/wasnorm_wordpool_576.txt	LTP364	ltpFR2	11	17	PECAN	1036	n/a	n/a	0	0	0
3389153	REC_WORD	wordpools/wasnorm_wordpool_576.txt	LTP364	ltpFR2	11	17	WINDOW	1611	n/a	n/a	0	0	0
3390986	REC_WORD	wordpools/wasnorm_wordpool_576.txt	LTP364	ltpFR2	11	17	FRAME	600	n/a	n/a	0	0	0
3392449	REC_WORD	wordpools/wasnorm_wordpool_576.txt	LTP364	ltpFR2	11	17	TOMBSTONE	1478	n/a	n/a	0	0	0
3396436	REC_WORD	wordpools/wasnorm_wordpool_576.txt	LTP364	ltpFR2	11	17	LAVA	804	n/a	n/a	0	0	0
3402962	REC_WORD	wordpools/wasnorm_wordpool_576.txt	LTP364	ltpFR2	11	17	CHILD	299	n/a	n/a	0	0	0
3403663	REC_WORD	wordpools/wasnorm_wordpool_576.txt	LTP364	ltpFR2	11	17	PERCH	1048	n/a	n/a	0	0	0
3454768	DISTRACTOR	n/a	LTP364	ltpFR2	11	18	n/a	n/a	n/a	n/a	0	0	0
3454768	START	n/a	LTP364	ltpFR2	11	n/a	n/a	n/a	25	n/a	n/a	n/a	n/a
3454784	PROB	n/a	LTP364	ltpFR2	11	n/a	n/a	n/a	25	20	9	2	9
3457466	PROB	n/a	LTP364	ltpFR2	11	n/a	n/a	n/a	25	8	2	4	2
3459182	PROB	n/a	LTP364	ltpFR2	11	n/a	n/a	n/a	25	22	9	8	5
3462930	PROB	n/a	LTP364	ltpFR2	11	n/a	n/a	n/a	25	19	9	3	7
3464729	PROB	n/a	LTP364	ltpFR2	11	n/a	n/a	n/a	25	12	3	5	4
3468111	PROB	n/a	LTP364	ltpFR2	11	n/a	n/a	n/a	25	19	8	2	9
3470043	PROB	n/a	LTP364	ltpFR2	11	n/a	n/a	n/a	25	19	3	9	7
3471627	PROB	n/a	LTP364	ltpFR2	11	n/a	n/a	n/a	25	17	3	7	7
3478768	STOP	n/a	LTP364	ltpFR2	11	n/a	n/a	n/a	25	n/a	n/a	n/a	n/a
3479772	WORD	wordpools/wasnorm_wordpool_576.txt	LTP364	ltpFR2	11	18	PUPPY	1144	n/a	n/a	0	0	0
3482321	WORD	wordpools/wasnorm_wordpool_576.txt	LTP364	ltpFR2	11	18	BASEMENT	94	n/a	n/a	0	0	0
3484836	WORD	wordpools/wasnorm_wordpool_576.txt	LTP364	ltpFR2	11	18	KIDNEY	776	n/a	n/a	0	0	0
3487652	WORD	wordpools/wasnorm_wordpool_576.txt	LTP364	ltpFR2	11	18	CROWN	415	n/a	n/a	0	0	0
3490350	WORD	wordpools/wasnorm_wordpool_576.txt	LTP364	ltpFR2	11	18	IGLOO	734	n/a	n/a	0	0	0
3493132	WORD	wordpools/wasnorm_wordpool_576.txt	LTP364	ltpFR2	11	18	GYMNAST	675	n/a	n/a	0	0	0
3495897	WORD	wordpools/wasnorm_wordpool_576.txt	LTP364	ltpFR2	11	18	TAXI	1438	n/a	n/a	0	0	0
3498697	WORD	wordpools/wasnorm_wordpool_576.txt	LTP364	ltpFR2	11	18	PISTON	1076	n/a	n/a	0	0	0
3501361	WORD	wordpools/wasnorm_wordpool_576.txt	LTP364	ltpFR2	11	18	BODY	145	n/a	n/a	0	0	0
3503910	WORD	wordpools/wasnorm_wordpool_576.txt	LTP364	ltpFR2	11	18	THRONE	1461	n/a	n/a	0	0	0
3506525	WORD	wordpools/wasnorm_wordpool_576.txt	LTP364	ltpFR2	11	18	WIFE	1609	n/a	n/a	0	0	0
3509141	WORD	wordpools/wasnorm_wordpool_576.txt	LTP364	ltpFR2	11	18	COTTAGE	384	n/a	n/a	0	0	0
3511640	WORD	wordpools/wasnorm_wordpool_576.txt	LTP364	ltpFR2	11	18	PRINCE	1124	n/a	n/a	0	0	0
3514122	WORD	wordpools/wasnorm_wordpool_576.txt	LTP364	ltpFR2	11	18	CRUTCH	417	n/a	n/a	0	0	0
3516937	WORD	wordpools/wasnorm_wordpool_576.txt	LTP364	ltpFR2	11	18	GRILL	661	n/a	n/a	0	0	0
3519452	WORD	wordpools/wasnorm_wordpool_576.txt	LTP364	ltpFR2	11	18	SNACK	1331	n/a	n/a	0	0	0
3521951	WORD	wordpools/wasnorm_wordpool_576.txt	LTP364	ltpFR2	11	18	COUSIN	392	n/a	n/a	0	0	0
3524533	WORD	wordpools/wasnorm_wordpool_576.txt	LTP364	ltpFR2	11	18	CLOCK	325	n/a	n/a	0	0	0
3526999	WORD	wordpools/wasnorm_wordpool_576.txt	LTP364	ltpFR2	11	18	SUNSET	1408	n/a	n/a	0	0	0
3529764	WORD	wordpools/wasnorm_wordpool_576.txt	LTP364	ltpFR2	11	18	BOUQUET	157	n/a	n/a	0	0	0
3532296	WORD	wordpools/wasnorm_wordpool_576.txt	LTP364	ltpFR2	11	18	HOUND	724	n/a	n/a	0	0	0
3535011	WORD	wordpools/wasnorm_wordpool_576.txt	LTP364	ltpFR2	11	18	ULCER	1533	n/a	n/a	0	0	0
3537678	WORD	wordpools/wasnorm_wordpool_576.txt	LTP364	ltpFR2	11	18	HOOK	715	n/a	n/a	0	0	0
3540309	WORD	wordpools/wasnorm_wordpool_576.txt	LTP364	ltpFR2	11	18	CHAPEL	280	n/a	n/a	0	0	0
3541925	START	n/a	LTP364	ltpFR2	11	n/a	n/a	n/a	26	n/a	n/a	n/a	n/a
3542829	DISTRACTOR	n/a	LTP364	ltpFR2	11	18	n/a	n/a	n/a	n/a	0	0	0
3542841	PROB	n/a	LTP364	ltpFR2	11	n/a	n/a	n/a	26	6	3	1	2
3545589	PROB	n/a	LTP364	ltpFR2	11	n/a	n/a	n/a	26	12	2	7	3
3547155	PROB	n/a	LTP364	ltpFR2	11	n/a	n/a	n/a	26	18	2	9	7
3549737	PROB	n/a	LTP364	ltpFR2	11	n/a	n/a	n/a	26	8	1	4	3
3551403	PROB	n/a	LTP364	ltpFR2	11	n/a	n/a	n/a	26	15	4	6	5
3552986	PROB	n/a	LTP364	ltpFR2	11	n/a	n/a	n/a	26	9	4	3	2
3554935	PROB	n/a	LTP364	ltpFR2	11	n/a	n/a	n/a	26	19	7	7	5
3557350	PROB	n/a	LTP364	ltpFR2	11	n/a	n/a	n/a	26	18	5	7	6
3562448	PROB	n/a	LTP364	ltpFR2	11	n/a	n/a	n/a	26	19	5	9	5
3563964	PROB	n/a	LTP364	ltpFR2	11	n/a	n/a	n/a	26	17	6	5	6
3565882	STOP	n/a	LTP364	ltpFR2	11	n/a	n/a	n/a	26	n/a	n/a	n/a	n/a
3567729	REC_START	n/a	LTP364	ltpFR2	11	18	n/a	n/a	n/a	n/a	0	0	0
3575096	REC_WORD	wordpools/wasnorm_wordpool_576.txt	LTP364	ltpFR2	11	18	PUPPY	1144	n/a	n/a	0	0	0
3576341	REC_WORD	wordpools/wasnorm_wordpool_576.txt	LTP364	ltpFR2	11	18	BASEMENT	94	n/a	n/a	0	0	0
3577313	REC_WORD	wordpools/wasnorm_wordpool_576.txt	LTP364	ltpFR2	11	18	LIVER	833	n/a	n/a	0	0	0
3581969	REC_WORD	wordpools/wasnorm_wordpool_576.txt	LTP364	ltpFR2	11	18	IGLOO	734	n/a	n/a	0	0	0
3582758	REC_WORD	wordpools/wasnorm_wordpool_576.txt	LTP364	ltpFR2	11	18	GYMNAST	675	n/a	n/a	0	0	0
3583517	REC_WORD	wordpools/wasnorm_wordpool_576.txt	LTP364	ltpFR2	11	18	TAXI	1438	n/a	n/a	0	0	0
3584278	REC_WORD	wordpools/wasnorm_wordpool_576.txt	LTP364	ltpFR2	11	18	CROWN	415	n/a	n/a	0	0	0
3585957	REC_WORD	wordpools/wasnorm_wordpool_576.txt	LTP364	ltpFR2	11	18	BODY	145	n/a	n/a	0	0	0
3588858	REC_WORD	wordpools/wasnorm_wordpool_576.txt	LTP364	ltpFR2	11	18	THRONE	1461	n/a	n/a	0	0	0
3595546	REC_WORD	wordpools/wasnorm_wordpool_576.txt	LTP364	ltpFR2	11	18	PREACHER	1119	n/a	n/a	0	0	0
3598823	REC_WORD	wordpools/wasnorm_wordpool_576.txt	LTP364	ltpFR2	11	18	WIFE	1609	n/a	n/a	0	0	0
3601121	REC_WORD	wordpools/wasnorm_wordpool_576.txt	LTP364	ltpFR2	11	18	COTTAGE	384	n/a	n/a	0	0	0
3606928	REC_WORD	wordpools/wasnorm_wordpool_576.txt	LTP364	ltpFR2	11	18	BOYFRIEND	162	n/a	n/a	0	0	0
3611187	REC_WORD	wordpools/wasnorm_wordpool_576.txt	LTP364	ltpFR2	11	18	LOVER	846	n/a	n/a	0	0	0
3611929	REC_WORD	wordpools/wasnorm_wordpool_576.txt	LTP364	ltpFR2	11	18	CRUTCH	417	n/a	n/a	0	0	0
3614308	REC_WORD	wordpools/wasnorm_wordpool_576.txt	LTP364	ltpFR2	11	18	GRILL	661	n/a	n/a	0	0	0
3616937	REC_WORD	wordpools/wasnorm_wordpool_576.txt	LTP364	ltpFR2	11	18	CHAPEL	280	n/a	n/a	0	0	0
3658167	DISTRACTOR	n/a	LTP364	ltpFR2	11	19	n/a	n/a	n/a	n/a	0	0	0
3658167	START	n/a	LTP364	ltpFR2	11	n/a	n/a	n/a	27	n/a	n/a	n/a	n/a
3658183	PROB	n/a	LTP364	ltpFR2	11	n/a	n/a	n/a	27	18	3	6	9
3660999	PROB	n/a	LTP364	ltpFR2	11	n/a	n/a	n/a	27	11	2	4	5
3663164	PROB	n/a	LTP364	ltpFR2	11	n/a	n/a	n/a	27	16	9	5	2
3666363	PROB	n/a	LTP364	ltpFR2	11	n/a	n/a	n/a	27	17	3	9	5
3668345	PROB	n/a	LTP364	ltpFR2	11	n/a	n/a	n/a	27	17	5	8	4
3671527	PROB	n/a	LTP364	ltpFR2	11	n/a	n/a	n/a	27	19	6	4	9
3674626	PROB	n/a	LTP364	ltpFR2	11	n/a	n/a	n/a	27	19	8	2	9
3676108	PROB	n/a	LTP364	ltpFR2	11	n/a	n/a	n/a	27	8	4	1	3
3677757	PROB	n/a	LTP364	ltpFR2	11	n/a	n/a	n/a	27	15	6	5	4
3679323	PROB	n/a	LTP364	ltpFR2	11	n/a	n/a	n/a	27	17	8	5	4
3681514	STOP	n/a	LTP364	ltpFR2	11	n/a	n/a	n/a	27	n/a	n/a	n/a	n/a
3683038	WORD	wordpools/wasnorm_wordpool_576.txt	LTP364	ltpFR2	11	19	MAMMAL	861	n/a	n/a	0	0	0
3685853	WORD	wordpools/wasnorm_wordpool_576.txt	LTP364	ltpFR2	11	19	DOLPHIN	483	n/a	n/a	0	0	0
3688368	WORD	wordpools/wasnorm_wordpool_576.txt	LTP364	ltpFR2	11	19	CURTAIN	427	n/a	n/a	0	0	0
3690851	WORD	wordpools/wasnorm_wordpool_576.txt	LTP364	ltpFR2	11	19	PILOT	1070	n/a	n/a	0	0	0
3693349	WORD	wordpools/wasnorm_wordpool_576.txt	LTP364	ltpFR2	11	19	SEAFOOD	1260	n/a	n/a	0	0	0
3696031	WORD	wordpools/wasnorm_wordpool_576.txt	LTP364	ltpFR2	11	19	BARREL	91	n/a	n/a	0	0	0
3698597	WORD	wordpools/wasnorm_wordpool_576.txt	LTP364	ltpFR2	11	19	COSTUME	383	n/a	n/a	0	0	0
3701062	WORD	wordpools/wasnorm_wordpool_576.txt	LTP364	ltpFR2	11	19	TROUT	1511	n/a	n/a	0	0	0
3703544	WORD	wordpools/wasnorm_wordpool_576.txt	LTP364	ltpFR2	11	19	FRANCE	601	n/a	n/a	0	0	0
3706026	WORD	wordpools/wasnorm_wordpool_576.txt	LTP364	ltpFR2	11	19	HOSTESS	723	n/a	n/a	0	0	0
3708525	WORD	wordpools/wasnorm_wordpool_576.txt	LTP364	ltpFR2	11	19	SNAIL	1332	n/a	n/a	0	0	0
3711157	WORD	wordpools/wasnorm_wordpool_576.txt	LTP364	ltpFR2	11	19	LIVER	833	n/a	n/a	0	0	0
3713789	WORD	wordpools/wasnorm_wordpool_576.txt	LTP364	ltpFR2	11	19	SKIRT	1319	n/a	n/a	0	0	0
3716471	WORD	wordpools/wasnorm_wordpool_576.txt	LTP364	ltpFR2	11	19	BRANDY	169	n/a	n/a	0	0	0
3718920	WORD	wordpools/wasnorm_wordpool_576.txt	LTP364	ltpFR2	11	19	DRAWING	494	n/a	n/a	0	0	0
3721686	WORD	wordpools/wasnorm_wordpool_576.txt	LTP364	ltpFR2	11	19	GRAVEL	659	n/a	n/a	0	0	0
3724117	WORD	wordpools/wasnorm_wordpool_576.txt	LTP364	ltpFR2	11	19	BRAKE	166	n/a	n/a	0	0	0
3726700	WORD	wordpools/wasnorm_wordpool_576.txt	LTP364	ltpFR2	11	19	HIGHWAY	707	n/a	n/a	0	0	0
3729515	WORD	wordpools/wasnorm_wordpool_576.txt	LTP364	ltpFR2	11	19	BULLET	194	n/a	n/a	0	0	0
3732097	WORD	wordpools/wasnorm_wordpool_576.txt	LTP364	ltpFR2	11	19	DUST	508	n/a	n/a	0	0	0
3734829	WORD	wordpools/wasnorm_wordpool_576.txt	LTP364	ltpFR2	11	19	MARSH	874	n/a	n/a	0	0	0
3737294	WORD	wordpools/wasnorm_wordpool_576.txt	LTP364	ltpFR2	11	19	RUG	1215	n/a	n/a	0	0	0
3739793	WORD	wordpools/wasnorm_wordpool_576.txt	LTP364	ltpFR2	11	19	SWITCH	1422	n/a	n/a	0	0	0
3742258	WORD	wordpools/wasnorm_wordpool_576.txt	LTP364	ltpFR2	11	19	GIRL	637	n/a	n/a	0	0	0
3743874	START	n/a	LTP364	ltpFR2	11	n/a	n/a	n/a	28	n/a	n/a	n/a	n/a
3744787	DISTRACTOR	n/a	LTP364	ltpFR2	11	19	n/a	n/a	n/a	n/a	0	0	0
3744790	PROB	n/a	LTP364	ltpFR2	11	n/a	n/a	n/a	28	13	8	3	2
3746839	PROB	n/a	LTP364	ltpFR2	11	n/a	n/a	n/a	28	12	1	7	4
3749255	PROB	n/a	LTP364	ltpFR2	11	n/a	n/a	n/a	28	10	6	2	2
3750871	PROB	n/a	LTP364	ltpFR2	11	n/a	n/a	n/a	28	13	8	4	1
3752687	PROB	n/a	LTP364	ltpFR2	11	n/a	n/a	n/a	28	16	7	5	4
3755785	PROB	n/a	LTP364	ltpFR2	11	n/a	n/a	n/a	28	10	3	2	5
3758817	PROB	n/a	LTP364	ltpFR2	11	n/a	n/a	n/a	28	11	2	4	5
3761532	PROB	n/a	LTP364	ltpFR2	11	n/a	n/a	n/a	28	14	4	9	1
3763098	PROB	n/a	LTP364	ltpFR2	11	n/a	n/a	n/a	28	13	8	2	3
3764547	PROB	n/a	LTP364	ltpFR2	11	n/a	n/a	n/a	28	17	2	6	9
3767426	STOP	n/a	LTP364	ltpFR2	11	n/a	n/a	n/a	28	n/a	n/a	n/a	n/a
3769745	REC_START	n/a	LTP364	ltpFR2	11	19	n/a	n/a	n/a	n/a	0	0	0
3770479	REC_WORD	wordpools/wasnorm_wordpool_576.txt	LTP364	ltpFR2	11	19	MAMMAL	861	n/a	n/a	0	0	0
3771233	REC_WORD	wordpools/wasnorm_wordpool_576.txt	LTP364	ltpFR2	11	19	DOLPHIN	483	n/a	n/a	0	0	0
3771931	REC_WORD	wordpools/wasnorm_wordpool_576.txt	LTP364	ltpFR2	11	19	CURTAIN	427	n/a	n/a	0	0	0
3773831	REC_WORD	wordpools/wasnorm_wordpool_576.txt	LTP364	ltpFR2	11	19	PILOT	1070	n/a	n/a	0	0	0
3774344	REC_WORD	wordpools/wasnorm_wordpool_576.txt	LTP364	ltpFR2	11	19	SEAFOOD	1260	n/a	n/a	0	0	0
3774952	REC_WORD	wordpools/wasnorm_wordpool_576.txt	LTP364	ltpFR2	11	19	BARREL	91	n/a	n/a	0	0	0
3775841	REC_WORD	wordpools/wasnorm_wordpool_576.txt	LTP364	ltpFR2	11	19	COSTUME	383	n/a	n/a	0	0	0
3777273	REC_WORD	wordpools/wasnorm_wordpool_576.txt	LTP364	ltpFR2	11	19	FRANCE	601	n/a	n/a	0	0	0
3777986	REC_WORD	wordpools/wasnorm_wordpool_576.txt	LTP364	ltpFR2	11	19	SNAIL	1332	n/a	n/a	0	0	0
3782802	REC_WORD	wordpools/wasnorm_wordpool_576.txt	LTP364	ltpFR2	11	19	DUCK	504	n/a	n/a	0	0	0
3803771	REC_WORD	wordpools/wasnorm_wordpool_576.txt	LTP364	ltpFR2	11	19	GRAVEL	659	n/a	n/a	0	0	0
3809398	REC_WORD	wordpools/wasnorm_wordpool_576.txt	LTP364	ltpFR2	11	19	PUDDLE	1140	n/a	n/a	0	0	0
3860200	WORD	wordpools/wasnorm_wordpool_576.txt	LTP364	ltpFR2	11	20	JEANS	752	n/a	n/a	0	0	0
3862932	WORD	wordpools/wasnorm_wordpool_576.txt	LTP364	ltpFR2	11	20	LACE	792	n/a	n/a	0	0	0
3865430	WORD	wordpools/wasnorm_wordpool_576.txt	LTP364	ltpFR2	11	20	BUNNY	198	n/a	n/a	0	0	0
3868212	WORD	wordpools/wasnorm_wordpool_576.txt	LTP364	ltpFR2	11	20	BOX	159	n/a	n/a	0	0	0
3870961	WORD	wordpools/wasnorm_wordpool_576.txt	LTP364	ltpFR2	11	20	JELLY	755	n/a	n/a	0	0	0
3873760	WORD	wordpools/wasnorm_wordpool_576.txt	LTP364	ltpFR2	11	20	RAFT	1159	n/a	n/a	0	0	0
3876225	WORD	wordpools/wasnorm_wordpool_576.txt	LTP364	ltpFR2	11	20	FLASK	576	n/a	n/a	0	0	0
3878675	WORD	wordpools/wasnorm_wordpool_576.txt	LTP364	ltpFR2	11	20	PASTRY	1022	n/a	n/a	0	0	0
3881156	WORD	wordpools/wasnorm_wordpool_576.txt	LTP364	ltpFR2	11	20	CONCERT	360	n/a	n/a	0	0	0
3883921	WORD	wordpools/wasnorm_wordpool_576.txt	LTP364	ltpFR2	11	20	OINTMENT	974	n/a	n/a	0	0	0
3886420	WORD	wordpools/wasnorm_wordpool_576.txt	LTP364	ltpFR2	11	20	FREEZER	604	n/a	n/a	0	0	0
3889002	WORD	wordpools/wasnorm_wordpool_576.txt	LTP364	ltpFR2	11	20	CHAMPAGNE	278	n/a	n/a	0	0	0
3891817	WORD	wordpools/wasnorm_wordpool_576.txt	LTP364	ltpFR2	11	20	STUDENT	1395	n/a	n/a	0	0	0
3894499	WORD	wordpools/wasnorm_wordpool_576.txt	LTP364	ltpFR2	11	20	LADY	794	n/a	n/a	0	0	0
3897315	WORD	wordpools/wasnorm_wordpool_576.txt	LTP364	ltpFR2	11	20	WITNESS	1618	n/a	n/a	0	0	0
3899847	WORD	wordpools/wasnorm_wordpool_576.txt	LTP364	ltpFR2	11	20	JUDGE	761	n/a	n/a	0	0	0
3902630	WORD	wordpools/wasnorm_wordpool_576.txt	LTP364	ltpFR2	11	20	DOUGHNUT	490	n/a	n/a	0	0	0
3905194	WORD	wordpools/wasnorm_wordpool_576.txt	LTP364	ltpFR2	11	20	PLAZA	1088	n/a	n/a	0	0	0
3907976	WORD	wordpools/wasnorm_wordpool_576.txt	LTP364	ltpFR2	11	20	CANDY	230	n/a	n/a	0	0	0
3910541	WORD	wordpools/wasnorm_wordpool_576.txt	LTP364	ltpFR2	11	20	PIANO	1057	n/a	n/a	0	0	0
3913124	WORD	wordpools/wasnorm_wordpool_576.txt	LTP364	ltpFR2	11	20	DAUGHTER	442	n/a	n/a	0	0	0
3915556	WORD	wordpools/wasnorm_wordpool_576.txt	LTP364	ltpFR2	11	20	KEEPER	769	n/a	n/a	0	0	0
3918371	WORD	wordpools/wasnorm_wordpool_576.txt	LTP364	ltpFR2	11	20	CUSTARD	429	n/a	n/a	0	0	0
3920970	WORD	wordpools/wasnorm_wordpool_576.txt	LTP364	ltpFR2	11	20	FEMALE	559	n/a	n/a	0	0	0
3922586	START	n/a	LTP364	ltpFR2	11	n/a	n/a	n/a	29	n/a	n/a	n/a	n/a
3923605	DISTRACTOR	n/a	LTP364	ltpFR2	11	20	n/a	n/a	n/a	n/a	0	0	0
3923619	PROB	n/a	LTP364	ltpFR2	11	n/a	n/a	n/a	29	13	3	5	5
3925384	PROB	n/a	LTP364	ltpFR2	11	n/a	n/a	n/a	29	15	5	5	5
3926668	PROB	n/a	LTP364	ltpFR2	11	n/a	n/a	n/a	29	12	5	2	5
3928299	PROB	n/a	LTP364	ltpFR2	11	n/a	n/a	n/a	29	10	4	3	3
3929898	PROB	n/a	LTP364	ltpFR2	11	n/a	n/a	n/a	29	13	4	8	1
3931581	PROB	n/a	LTP364	ltpFR2	11	n/a	n/a	n/a	29	15	6	3	6
3933313	PROB	n/a	LTP364	ltpFR2	11	n/a	n/a	n/a	29	13	1	3	9
3935129	PROB	n/a	LTP364	ltpFR2	11	n/a	n/a	n/a	29	14	3	6	5
3937561	PROB	n/a	LTP364	ltpFR2	11	n/a	n/a	n/a	29	14	1	4	9
3939211	PROB	n/a	LTP364	ltpFR2	11	n/a	n/a	n/a	29	21	8	8	5
3941809	PROB	n/a	LTP364	ltpFR2	11	n/a	n/a	n/a	29	16	4	9	3
3945194	STOP	n/a	LTP364	ltpFR2	11	n/a	n/a	n/a	29	n/a	n/a	n/a	n/a
3948456	REC_START	n/a	LTP364	ltpFR2	11	20	n/a	n/a	n/a	n/a	0	0	0
3952345	REC_WORD	wordpools/wasnorm_wordpool_576.txt	LTP364	ltpFR2	11	20	CUSTARD	429	n/a	n/a	0	0	0
3963937	REC_WORD	wordpools/wasnorm_wordpool_576.txt	LTP364	ltpFR2	11	20	PUDDING	1139	n/a	n/a	0	0	0
3973021	REC_WORD	wordpools/wasnorm_wordpool_576.txt	LTP364	ltpFR2	11	20	BUNNY	198	n/a	n/a	0	0	0
4038911	WORD	wordpools/wasnorm_wordpool_576.txt	LTP364	ltpFR2	11	21	BISON	131	n/a	n/a	0	0	0
4041726	WORD	wordpools/wasnorm_wordpool_576.txt	LTP364	ltpFR2	11	21	SPACE	1345	n/a	n/a	0	0	0
4044258	WORD	wordpools/wasnorm_wordpool_576.txt	LTP364	ltpFR2	11	21	HORNET	718	n/a	n/a	0	0	0
4046907	WORD	wordpools/wasnorm_wordpool_576.txt	LTP364	ltpFR2	11	21	HONEY	713	n/a	n/a	0	0	0
4049339	WORD	wordpools/wasnorm_wordpool_576.txt	LTP364	ltpFR2	11	21	HAND	683	n/a	n/a	0	0	0
4052054	WORD	wordpools/wasnorm_wordpool_576.txt	LTP364	ltpFR2	11	21	THREAD	1460	n/a	n/a	0	0	0
4054820	WORD	wordpools/wasnorm_wordpool_576.txt	LTP364	ltpFR2	11	21	SCARF	1246	n/a	n/a	0	0	0
4057619	WORD	wordpools/wasnorm_wordpool_576.txt	LTP364	ltpFR2	11	21	JUNGLE	764	n/a	n/a	0	0	0
4060267	WORD	wordpools/wasnorm_wordpool_576.txt	LTP364	ltpFR2	11	21	COFFEE	341	n/a	n/a	0	0	0
4063032	WORD	wordpools/wasnorm_wordpool_576.txt	LTP364	ltpFR2	11	21	CAMEL	223	n/a	n/a	0	0	0
4065581	WORD	wordpools/wasnorm_wordpool_576.txt	LTP364	ltpFR2	11	21	COBRA	336	n/a	n/a	0	0	0
4068013	WORD	wordpools/wasnorm_wordpool_576.txt	LTP364	ltpFR2	11	21	CAFE	216	n/a	n/a	0	0	0
4070663	WORD	wordpools/wasnorm_wordpool_576.txt	LTP364	ltpFR2	11	21	SEAL	1262	n/a	n/a	0	0	0
4073194	WORD	wordpools/wasnorm_wordpool_576.txt	LTP364	ltpFR2	11	21	PRIMATE	1123	n/a	n/a	0	0	0
4075976	WORD	wordpools/wasnorm_wordpool_576.txt	LTP364	ltpFR2	11	21	EXPERT	543	n/a	n/a	0	0	0
4078642	WORD	wordpools/wasnorm_wordpool_576.txt	LTP364	ltpFR2	11	21	TEACHER	1440	n/a	n/a	0	0	0
4081090	WORD	wordpools/wasnorm_wordpool_576.txt	LTP364	ltpFR2	11	21	CHURCH	307	n/a	n/a	0	0	0
4083572	WORD	wordpools/wasnorm_wordpool_576.txt	LTP364	ltpFR2	11	21	ICING	732	n/a	n/a	0	0	0
4086388	WORD	wordpools/wasnorm_wordpool_576.txt	LTP364	ltpFR2	11	21	LEOPARD	812	n/a	n/a	0	0	0
4089203	WORD	wordpools/wasnorm_wordpool_576.txt	LTP364	ltpFR2	11	21	WAITER	1580	n/a	n/a	0	0	0
4091968	WORD	wordpools/wasnorm_wordpool_576.txt	LTP364	ltpFR2	11	21	PERFUME	1049	n/a	n/a	0	0	0
4094717	WORD	wordpools/wasnorm_wordpool_576.txt	LTP364	ltpFR2	11	21	YARN	1631	n/a	n/a	0	0	0
4097482	WORD	wordpools/wasnorm_wordpool_576.txt	LTP364	ltpFR2	11	21	IDOL	733	n/a	n/a	0	0	0
4100014	WORD	wordpools/wasnorm_wordpool_576.txt	LTP364	ltpFR2	11	21	HERO	706	n/a	n/a	0	0	0
4101631	START	n/a	LTP364	ltpFR2	11	n/a	n/a	n/a	30	n/a	n/a	n/a	n/a
4102787	DISTRACTOR	n/a	LTP364	ltpFR2	11	21	n/a	n/a	n/a	n/a	0	0	0
4102796	PROB	n/a	LTP364	ltpFR2	11	n/a	n/a	n/a	30	13	2	2	9
4104712	PROB	n/a	LTP364	ltpFR2	11	n/a	n/a	n/a	30	7	1	4	2
4106877	PROB	n/a	LTP364	ltpFR2	11	n/a	n/a	n/a	30	17	7	6	4
4108443	PROB	n/a	LTP364	ltpFR2	11	n/a	n/a	n/a	30	12	4	7	1
4111858	PROB	n/a	LTP364	ltpFR2	11	n/a	n/a	n/a	30	12	6	4	2
4113107	PROB	n/a	LTP364	ltpFR2	11	n/a	n/a	n/a	30	5	1	3	1
4115140	PROB	n/a	LTP364	ltpFR2	11	n/a	n/a	n/a	30	20	9	4	7
4118538	PROB	n/a	LTP364	ltpFR2	11	n/a	n/a	n/a	30	11	4	6	1
4120421	PROB	n/a	LTP364	ltpFR2	11	n/a	n/a	n/a	30	13	6	1	6
4122086	PROB	n/a	LTP364	ltpFR2	11	n/a	n/a	n/a	30	13	6	3	4
4124578	STOP	n/a	LTP364	ltpFR2	11	n/a	n/a	n/a	30	n/a	n/a	n/a	n/a
4127434	REC_START	n/a	LTP364	ltpFR2	11	21	n/a	n/a	n/a	n/a	0	0	0
4128276	REC_WORD	wordpools/wasnorm_wordpool_576.txt	LTP364	ltpFR2	11	21	SEAL	1262	n/a	n/a	0	0	0
4131213	REC_WORD	wordpools/wasnorm_wordpool_576.txt	LTP364	ltpFR2	11	21	CAMEL	223	n/a	n/a	0	0	0
4136987	REC_WORD	wordpools/wasnorm_wordpool_576.txt	LTP364	ltpFR2	11	21	JUNGLE	764	n/a	n/a	0	0	0
4137498	REC_WORD	wordpools/wasnorm_wordpool_576.txt	LTP364	ltpFR2	11	21	PRIMATE	1123	n/a	n/a	0	0	0
4159943	REC_WORD	wordpools/wasnorm_wordpool_576.txt	LTP364	ltpFR2	11	21	DESSERT	453	n/a	n/a	0	0	0
4167650	REC_WORD	wordpools/wasnorm_wordpool_576.txt	LTP364	ltpFR2	11	21	MAMMAL	861	n/a	n/a	0	0	0
4217889	DISTRACTOR	n/a	LTP364	ltpFR2	11	22	n/a	n/a	n/a	n/a	0	0	0
4217889	START	n/a	LTP364	ltpFR2	11	n/a	n/a	n/a	31	n/a	n/a	n/a	n/a
4217905	PROB	n/a	LTP364	ltpFR2	11	n/a	n/a	n/a	31	12	4	3	5
4221037	PROB	n/a	LTP364	ltpFR2	11	n/a	n/a	n/a	31	14	1	4	9
4223003	PROB	n/a	LTP364	ltpFR2	11	n/a	n/a	n/a	31	14	6	5	3
4224703	PROB	n/a	LTP364	ltpFR2	11	n/a	n/a	n/a	31	17	9	1	7
4226285	PROB	n/a	LTP364	ltpFR2	11	n/a	n/a	n/a	31	20	6	5	9
4229716	PROB	n/a	LTP364	ltpFR2	11	n/a	n/a	n/a	31	11	2	2	7
4232132	PROB	n/a	LTP364	ltpFR2	11	n/a	n/a	n/a	31	19	8	8	3
4233864	PROB	n/a	LTP364	ltpFR2	11	n/a	n/a	n/a	31	5	2	1	2
4235247	PROB	n/a	LTP364	ltpFR2	11	n/a	n/a	n/a	31	22	9	6	9
4241889	STOP	n/a	LTP364	ltpFR2	11	n/a	n/a	n/a	31	n/a	n/a	n/a	n/a
4242843	WORD	wordpools/wasnorm_wordpool_576.txt	LTP364	ltpFR2	11	22	LOFT	840	n/a	n/a	0	0	0
4245608	WORD	wordpools/wasnorm_wordpool_576.txt	LTP364	ltpFR2	11	22	NIGHTGOWN	953	n/a	n/a	0	0	0
