mstime	trial_type	stim_file	subject	experiment	session	trial	item_name	item_num	list	answer	test_x	test_y	test_z
0	SESS_START	n/a	LTP310	ltpFR2	3	n/a	n/a	n/a	n/a	n/a	0	0	0
13113	START	n/a	LTP310	ltpFR2	3	n/a	n/a	n/a	-1	n/a	n/a	n/a	n/a
13135	PROB	n/a	LTP310	ltpFR2	3	n/a	n/a	n/a	-1	13	1	7	5
15195	PROB	n/a	LTP310	ltpFR2	3	n/a	n/a	n/a	-1	16	3	5	8
16795	PROB	n/a	LTP310	ltpFR2	3	n/a	n/a	n/a	-1	11	1	5	5
18398	PROB	n/a	LTP310	ltpFR2	3	n/a	n/a	n/a	-1	6	3	2	1
19564	PROB	n/a	LTP310	ltpFR2	3	n/a	n/a	n/a	-1	10	8	1	1
21199	PROB	n/a	LTP310	ltpFR2	3	n/a	n/a	n/a	-1	14	8	2	4
22452	PROB	n/a	LTP310	ltpFR2	3	n/a	n/a	n/a	-1	25	9	9	7
24111	STOP	n/a	LTP310	ltpFR2	3	n/a	n/a	n/a	-1	n/a	n/a	n/a	n/a
49223	DISTRACTOR	n/a	LTP310	ltpFR2	3	1	n/a	n/a	n/a	n/a	0	0	0
49223	START	n/a	LTP310	ltpFR2	3	n/a	n/a	n/a	1	n/a	n/a	n/a	n/a
49239	PROB	n/a	LTP310	ltpFR2	3	n/a	n/a	n/a	1	13	2	2	9
50939	PROB	n/a	LTP310	ltpFR2	3	n/a	n/a	n/a	1	20	9	6	5
52740	PROB	n/a	LTP310	ltpFR2	3	n/a	n/a	n/a	1	15	6	3	6
54760	PROB	n/a	LTP310	ltpFR2	3	n/a	n/a	n/a	1	18	4	8	6
56444	PROB	n/a	LTP310	ltpFR2	3	n/a	n/a	n/a	1	21	7	7	7
57913	PROB	n/a	LTP310	ltpFR2	3	n/a	n/a	n/a	1	19	6	8	5
59415	PROB	n/a	LTP310	ltpFR2	3	n/a	n/a	n/a	1	15	7	7	1
61066	PROB	n/a	LTP310	ltpFR2	3	n/a	n/a	n/a	1	6	3	1	2
62482	PROB	n/a	LTP310	ltpFR2	3	n/a	n/a	n/a	1	15	9	3	2
64684	PROB	n/a	LTP310	ltpFR2	3	n/a	n/a	n/a	1	18	3	7	8
65985	PROB	n/a	LTP310	ltpFR2	3	n/a	n/a	n/a	1	8	1	1	6
67221	PROB	n/a	LTP310	ltpFR2	3	n/a	n/a	n/a	1	8	6	1	1
68803	PROB	n/a	LTP310	ltpFR2	3	n/a	n/a	n/a	1	13	7	2	3
73223	STOP	n/a	LTP310	ltpFR2	3	n/a	n/a	n/a	1	n/a	n/a	n/a	n/a
74272	WORD	wordpools/wasnorm_wordpool_576.txt	LTP310	ltpFR2	3	1	GHETTO	633	n/a	n/a	0	0	0
77056	WORD	wordpools/wasnorm_wordpool_576.txt	LTP310	ltpFR2	3	1	FLEET	578	n/a	n/a	0	0	0
79542	WORD	wordpools/wasnorm_wordpool_576.txt	LTP310	ltpFR2	3	1	ASIA	46	n/a	n/a	0	0	0
82234	WORD	wordpools/wasnorm_wordpool_576.txt	LTP310	ltpFR2	3	1	COUNTRY	388	n/a	n/a	0	0	0
84880	WORD	wordpools/wasnorm_wordpool_576.txt	LTP310	ltpFR2	3	1	TOMBSTONE	1478	n/a	n/a	0	0	0
87616	WORD	wordpools/wasnorm_wordpool_576.txt	LTP310	ltpFR2	3	1	BEAVER	109	n/a	n/a	0	0	0
90169	WORD	wordpools/wasnorm_wordpool_576.txt	LTP310	ltpFR2	3	1	REPORT	1184	n/a	n/a	0	0	0
92953	WORD	wordpools/wasnorm_wordpool_576.txt	LTP310	ltpFR2	3	1	BANQUET	86	n/a	n/a	0	0	0
95727	WORD	wordpools/wasnorm_wordpool_576.txt	LTP310	ltpFR2	3	1	ICEBERG	731	n/a	n/a	0	0	0
98342	WORD	wordpools/wasnorm_wordpool_576.txt	LTP310	ltpFR2	3	1	BASEMENT	94	n/a	n/a	0	0	0
101111	WORD	wordpools/wasnorm_wordpool_576.txt	LTP310	ltpFR2	3	1	SUPPER	1411	n/a	n/a	0	0	0
103913	WORD	wordpools/wasnorm_wordpool_576.txt	LTP310	ltpFR2	3	1	FUNGUS	614	n/a	n/a	0	0	0
106386	WORD	wordpools/wasnorm_wordpool_576.txt	LTP310	ltpFR2	3	1	FOREST	593	n/a	n/a	0	0	0
109169	WORD	wordpools/wasnorm_wordpool_576.txt	LTP310	ltpFR2	3	1	FLUTE	585	n/a	n/a	0	0	0
111870	WORD	wordpools/wasnorm_wordpool_576.txt	LTP310	ltpFR2	3	1	OINTMENT	974	n/a	n/a	0	0	0
114440	WORD	wordpools/wasnorm_wordpool_576.txt	LTP310	ltpFR2	3	1	DRUG	501	n/a	n/a	0	0	0
117209	WORD	wordpools/wasnorm_wordpool_576.txt	LTP310	ltpFR2	3	1	EUROPE	541	n/a	n/a	0	0	0
120010	WORD	wordpools/wasnorm_wordpool_576.txt	LTP310	ltpFR2	3	1	ULCER	1533	n/a	n/a	0	0	0
122632	WORD	wordpools/wasnorm_wordpool_576.txt	LTP310	ltpFR2	3	1	THRONE	1461	n/a	n/a	0	0	0
125316	WORD	wordpools/wasnorm_wordpool_576.txt	LTP310	ltpFR2	3	1	STREAM	1392	n/a	n/a	0	0	0
127901	WORD	wordpools/wasnorm_wordpool_576.txt	LTP310	ltpFR2	3	1	KLEENEX	782	n/a	n/a	0	0	0
130487	WORD	wordpools/wasnorm_wordpool_576.txt	LTP310	ltpFR2	3	1	HEDGE	699	n/a	n/a	0	0	0
133007	WORD	wordpools/wasnorm_wordpool_576.txt	LTP310	ltpFR2	3	1	MESSAGE	888	n/a	n/a	0	0	0
135741	WORD	wordpools/wasnorm_wordpool_576.txt	LTP310	ltpFR2	3	1	TABLE	1426	n/a	n/a	0	0	0
137360	START	n/a	LTP310	ltpFR2	3	n/a	n/a	n/a	2	n/a	n/a	n/a	n/a
138486	DISTRACTOR	n/a	LTP310	ltpFR2	3	1	n/a	n/a	n/a	n/a	0	0	0
138494	PROB	n/a	LTP310	ltpFR2	3	n/a	n/a	n/a	2	10	2	3	5
140644	PROB	n/a	LTP310	ltpFR2	3	n/a	n/a	n/a	2	26	9	8	9
142847	PROB	n/a	LTP310	ltpFR2	3	n/a	n/a	n/a	2	16	9	5	2
144732	PROB	n/a	LTP310	ltpFR2	3	n/a	n/a	n/a	2	15	6	8	1
146501	PROB	n/a	LTP310	ltpFR2	3	n/a	n/a	n/a	2	6	3	2	1
147567	PROB	n/a	LTP310	ltpFR2	3	n/a	n/a	n/a	2	13	2	7	4
149453	PROB	n/a	LTP310	ltpFR2	3	n/a	n/a	n/a	2	13	4	5	4
151388	PROB	n/a	LTP310	ltpFR2	3	n/a	n/a	n/a	2	12	3	7	2
152671	PROB	n/a	LTP310	ltpFR2	3	n/a	n/a	n/a	2	12	3	8	1
154158	PROB	n/a	LTP310	ltpFR2	3	n/a	n/a	n/a	2	16	9	8	4
155773	PROB	n/a	LTP310	ltpFR2	3	n/a	n/a	n/a	2	26	9	8	9
159161	PROB	n/a	LTP310	ltpFR2	3	n/a	n/a	n/a	2	10	4	1	5
161165	STOP	n/a	LTP310	ltpFR2	3	n/a	n/a	n/a	2	n/a	n/a	n/a	n/a
163231	REC_START	n/a	LTP310	ltpFR2	3	1	n/a	n/a	n/a	n/a	0	0	0
165968	REC_WORD	wordpools/wasnorm_wordpool_576.txt	LTP310	ltpFR2	3	1	ASIA	46	n/a	n/a	0	0	0
167151	REC_WORD	wordpools/wasnorm_wordpool_576.txt	LTP310	ltpFR2	3	1	COUNTRY	388	n/a	n/a	0	0	0
168496	REC_WORD	wordpools/wasnorm_wordpool_576.txt	LTP310	ltpFR2	3	1	GHETTO	633	n/a	n/a	0	0	0
169939	REC_WORD	wordpools/wasnorm_wordpool_576.txt	LTP310	ltpFR2	3	1	TOMBSTONE	1478	n/a	n/a	0	0	0
171552	REC_WORD	wordpools/wasnorm_wordpool_576.txt	LTP310	ltpFR2	3	1	BEAVER	109	n/a	n/a	0	0	0
173503	REC_WORD	wordpools/wasnorm_wordpool_576.txt	LTP310	ltpFR2	3	1	REPORT	1184	n/a	n/a	0	0	0
175681	REC_WORD	wordpools/wasnorm_wordpool_576.txt	LTP310	ltpFR2	3	1	BANQUET	86	n/a	n/a	0	0	0
177465	REC_WORD	wordpools/wasnorm_wordpool_576.txt	LTP310	ltpFR2	3	1	ICEBERG	731	n/a	n/a	0	0	0
179169	REC_WORD	wordpools/wasnorm_wordpool_576.txt	LTP310	ltpFR2	3	1	BASEMENT	94	n/a	n/a	0	0	0
180885	REC_WORD	wordpools/wasnorm_wordpool_576.txt	LTP310	ltpFR2	3	1	FUNGUS	614	n/a	n/a	0	0	0
182707	REC_WORD	wordpools/wasnorm_wordpool_576.txt	LTP310	ltpFR2	3	1	OINTMENT	974	n/a	n/a	0	0	0
184322	REC_WORD	wordpools/wasnorm_wordpool_576.txt	LTP310	ltpFR2	3	1	DRUG	501	n/a	n/a	0	0	0
186025	REC_WORD	wordpools/wasnorm_wordpool_576.txt	LTP310	ltpFR2	3	1	EUROPE	541	n/a	n/a	0	0	0
187634	REC_WORD	wordpools/wasnorm_wordpool_576.txt	LTP310	ltpFR2	3	1	THRONE	1461	n/a	n/a	0	0	0
189194	REC_WORD	wordpools/wasnorm_wordpool_576.txt	LTP310	ltpFR2	3	1	STREAM	1392	n/a	n/a	0	0	0
191176	REC_WORD	wordpools/wasnorm_wordpool_576.txt	LTP310	ltpFR2	3	1	KLEENEX	782	n/a	n/a	0	0	0
196426	REC_WORD	wordpools/wasnorm_wordpool_576.txt	LTP310	ltpFR2	3	1	TABLE	1426	n/a	n/a	0	0	0
198170	REC_WORD	wordpools/wasnorm_wordpool_576.txt	LTP310	ltpFR2	3	1	MESSAGE	888	n/a	n/a	0	0	0
253669	WORD	wordpools/wasnorm_wordpool_576.txt	LTP310	ltpFR2	3	2	SHERIFF	1284	n/a	n/a	0	0	0
256147	WORD	wordpools/wasnorm_wordpool_576.txt	LTP310	ltpFR2	3	2	SPIDER	1351	n/a	n/a	0	0	0
258691	WORD	wordpools/wasnorm_wordpool_576.txt	LTP310	ltpFR2	3	2	SNACK	1331	n/a	n/a	0	0	0
261427	WORD	wordpools/wasnorm_wordpool_576.txt	LTP310	ltpFR2	3	2	PISTOL	1075	n/a	n/a	0	0	0
264129	WORD	wordpools/wasnorm_wordpool_576.txt	LTP310	ltpFR2	3	2	LUGGAGE	847	n/a	n/a	0	0	0
266848	WORD	wordpools/wasnorm_wordpool_576.txt	LTP310	ltpFR2	3	2	LADDER	793	n/a	n/a	0	0	0
269425	WORD	wordpools/wasnorm_wordpool_576.txt	LTP310	ltpFR2	3	2	CRICKET	408	n/a	n/a	0	0	0
272010	WORD	wordpools/wasnorm_wordpool_576.txt	LTP310	ltpFR2	3	2	LADY	794	n/a	n/a	0	0	0
274430	WORD	wordpools/wasnorm_wordpool_576.txt	LTP310	ltpFR2	3	2	CANDY	230	n/a	n/a	0	0	0
277190	WORD	wordpools/wasnorm_wordpool_576.txt	LTP310	ltpFR2	3	2	TART	1436	n/a	n/a	0	0	0
279700	WORD	wordpools/wasnorm_wordpool_576.txt	LTP310	ltpFR2	3	2	TERMITE	1451	n/a	n/a	0	0	0
282494	WORD	wordpools/wasnorm_wordpool_576.txt	LTP310	ltpFR2	3	2	PATIENT	1024	n/a	n/a	0	0	0
285130	WORD	wordpools/wasnorm_wordpool_576.txt	LTP310	ltpFR2	3	2	MARKER	870	n/a	n/a	0	0	0
287731	WORD	wordpools/wasnorm_wordpool_576.txt	LTP310	ltpFR2	3	2	PIGMENT	1066	n/a	n/a	0	0	0
290244	WORD	wordpools/wasnorm_wordpool_576.txt	LTP310	ltpFR2	3	2	PUDDLE	1140	n/a	n/a	0	0	0
292935	WORD	wordpools/wasnorm_wordpool_576.txt	LTP310	ltpFR2	3	2	TAXI	1438	n/a	n/a	0	0	0
295630	WORD	wordpools/wasnorm_wordpool_576.txt	LTP310	ltpFR2	3	2	BANJO	82	n/a	n/a	0	0	0
298157	WORD	wordpools/wasnorm_wordpool_576.txt	LTP310	ltpFR2	3	2	COTTAGE	384	n/a	n/a	0	0	0
300975	WORD	wordpools/wasnorm_wordpool_576.txt	LTP310	ltpFR2	3	2	LILY	821	n/a	n/a	0	0	0
303594	WORD	wordpools/wasnorm_wordpool_576.txt	LTP310	ltpFR2	3	2	BIKE	125	n/a	n/a	0	0	0
306213	WORD	wordpools/wasnorm_wordpool_576.txt	LTP310	ltpFR2	3	2	COOK	372	n/a	n/a	0	0	0
308698	WORD	wordpools/wasnorm_wordpool_576.txt	LTP310	ltpFR2	3	2	LUMBER	848	n/a	n/a	0	0	0
311195	WORD	wordpools/wasnorm_wordpool_576.txt	LTP310	ltpFR2	3	2	CLOTHES	327	n/a	n/a	0	0	0
313880	WORD	wordpools/wasnorm_wordpool_576.txt	LTP310	ltpFR2	3	2	BLOUSE	139	n/a	n/a	0	0	0
315489	START	n/a	LTP310	ltpFR2	3	n/a	n/a	n/a	3	n/a	n/a	n/a	n/a
316654	DISTRACTOR	n/a	LTP310	ltpFR2	3	2	n/a	n/a	n/a	n/a	0	0	0
316665	PROB	n/a	LTP310	ltpFR2	3	n/a	n/a	n/a	3	10	8	1	1
318088	PROB	n/a	LTP310	ltpFR2	3	n/a	n/a	n/a	3	7	3	3	1
319623	PROB	n/a	LTP310	ltpFR2	3	n/a	n/a	n/a	3	18	7	7	4
321191	PROB	n/a	LTP310	ltpFR2	3	n/a	n/a	n/a	3	16	6	3	7
322509	PROB	n/a	LTP310	ltpFR2	3	n/a	n/a	n/a	3	15	9	1	5
323660	PROB	n/a	LTP310	ltpFR2	3	n/a	n/a	n/a	3	7	2	4	1
324943	PROB	n/a	LTP310	ltpFR2	3	n/a	n/a	n/a	3	11	4	1	6
326345	PROB	n/a	LTP310	ltpFR2	3	n/a	n/a	n/a	3	17	9	1	7
327662	PROB	n/a	LTP310	ltpFR2	3	n/a	n/a	n/a	3	18	8	5	5
329483	PROB	n/a	LTP310	ltpFR2	3	n/a	n/a	n/a	3	13	5	5	3
330665	PROB	n/a	LTP310	ltpFR2	3	n/a	n/a	n/a	3	17	6	9	2
333000	PROB	n/a	LTP310	ltpFR2	3	n/a	n/a	n/a	3	11	3	6	2
334602	PROB	n/a	LTP310	ltpFR2	3	n/a	n/a	n/a	3	5	1	3	1
335664	PROB	n/a	LTP310	ltpFR2	3	n/a	n/a	n/a	3	16	5	7	4
337200	PROB	n/a	LTP310	ltpFR2	3	n/a	n/a	n/a	3	15	3	6	6
338644	STOP	n/a	LTP310	ltpFR2	3	n/a	n/a	n/a	3	n/a	n/a	n/a	n/a
341387	REC_START	n/a	LTP310	ltpFR2	3	2	n/a	n/a	n/a	n/a	0	0	0
343547	REC_WORD	wordpools/wasnorm_wordpool_576.txt	LTP310	ltpFR2	3	2	SHERIFF	1284	n/a	n/a	0	0	0
344846	REC_WORD	wordpools/wasnorm_wordpool_576.txt	LTP310	ltpFR2	3	2	SPIDER	1351	n/a	n/a	0	0	0
346855	REC_WORD	wordpools/wasnorm_wordpool_576.txt	LTP310	ltpFR2	3	2	LADDER	793	n/a	n/a	0	0	0
349549	REC_WORD	wordpools/wasnorm_wordpool_576.txt	LTP310	ltpFR2	3	2	SNACK	1331	n/a	n/a	0	0	0
351162	REC_WORD	wordpools/wasnorm_wordpool_576.txt	LTP310	ltpFR2	3	2	LUGGAGE	847	n/a	n/a	0	0	0
352628	REC_WORD	wordpools/wasnorm_wordpool_576.txt	LTP310	ltpFR2	3	2	PISTOL	1075	n/a	n/a	0	0	0
355546	REC_WORD	wordpools/wasnorm_wordpool_576.txt	LTP310	ltpFR2	3	2	LADY	794	n/a	n/a	0	0	0
356917	REC_WORD	wordpools/wasnorm_wordpool_576.txt	LTP310	ltpFR2	3	2	TERMITE	1451	n/a	n/a	0	0	0
360013	REC_WORD	wordpools/wasnorm_wordpool_576.txt	LTP310	ltpFR2	3	2	CRICKET	408	n/a	n/a	0	0	0
366463	REC_WORD	wordpools/wasnorm_wordpool_576.txt	LTP310	ltpFR2	3	2	PUDDLE	1140	n/a	n/a	0	0	0
368220	REC_WORD	wordpools/wasnorm_wordpool_576.txt	LTP310	ltpFR2	3	2	BLOUSE	139	n/a	n/a	0	0	0
369951	REC_WORD	wordpools/wasnorm_wordpool_576.txt	LTP310	ltpFR2	3	2	TART	1436	n/a	n/a	0	0	0
372196	REC_WORD	wordpools/wasnorm_wordpool_576.txt	LTP310	ltpFR2	3	2	CANDY	230	n/a	n/a	0	0	0
375403	REC_WORD	wordpools/wasnorm_wordpool_576.txt	LTP310	ltpFR2	3	2	TAXI	1438	n/a	n/a	0	0	0
378443	REC_WORD	wordpools/wasnorm_wordpool_576.txt	LTP310	ltpFR2	3	2	MARKER	870	n/a	n/a	0	0	0
379979	REC_WORD	wordpools/wasnorm_wordpool_576.txt	LTP310	ltpFR2	3	2	COTTAGE	384	n/a	n/a	0	0	0
381504	REC_WORD	wordpools/wasnorm_wordpool_576.txt	LTP310	ltpFR2	3	2	LILY	821	n/a	n/a	0	0	0
383895	REC_WORD_VV	wordpools/wasnorm_wordpool_576.txt	LTP310	ltpFR2	3	2	<>	-1	n/a	n/a	0	0	0
387332	REC_WORD_VV	wordpools/wasnorm_wordpool_576.txt	LTP310	ltpFR2	3	2	<>	-1	n/a	n/a	0	0	0
396505	REC_WORD	wordpools/wasnorm_wordpool_576.txt	LTP310	ltpFR2	3	2	LUMBER	848	n/a	n/a	0	0	0
431831	DISTRACTOR	n/a	LTP310	ltpFR2	3	3	n/a	n/a	n/a	n/a	0	0	0
431831	START	n/a	LTP310	ltpFR2	3	n/a	n/a	n/a	4	n/a	n/a	n/a	n/a
431846	PROB	n/a	LTP310	ltpFR2	3	n/a	n/a	n/a	4	12	4	2	4
433814	PROB	n/a	LTP310	ltpFR2	3	n/a	n/a	n/a	4	15	6	7	2
435249	PROB	n/a	LTP310	ltpFR2	3	n/a	n/a	n/a	4	13	8	3	2
436784	PROB	n/a	LTP310	ltpFR2	3	n/a	n/a	n/a	4	18	5	4	9
438235	PROB	n/a	LTP310	ltpFR2	3	n/a	n/a	n/a	4	16	6	9	1
439704	PROB	n/a	LTP310	ltpFR2	3	n/a	n/a	n/a	4	13	3	4	6
441069	PROB	n/a	LTP310	ltpFR2	3	n/a	n/a	n/a	4	11	4	1	6
442289	PROB	n/a	LTP310	ltpFR2	3	n/a	n/a	n/a	4	8	4	2	2
443655	PROB	n/a	LTP310	ltpFR2	3	n/a	n/a	n/a	4	23	9	9	5
445224	PROB	n/a	LTP310	ltpFR2	3	n/a	n/a	n/a	4	26	8	8	6
447225	PROB	n/a	LTP310	ltpFR2	3	n/a	n/a	n/a	4	6	2	3	1
448659	PROB	n/a	LTP310	ltpFR2	3	n/a	n/a	n/a	4	22	9	7	6
452147	PROB	n/a	LTP310	ltpFR2	3	n/a	n/a	n/a	4	23	9	6	8
453831	PROB	n/a	LTP310	ltpFR2	3	n/a	n/a	n/a	4	14	4	4	6
455008	STOP	n/a	LTP310	ltpFR2	3	n/a	n/a	n/a	4	n/a	n/a	n/a	n/a
456950	WORD	wordpools/wasnorm_wordpool_576.txt	LTP310	ltpFR2	3	3	FLESH	579	n/a	n/a	0	0	0
459769	WORD	wordpools/wasnorm_wordpool_576.txt	LTP310	ltpFR2	3	3	SCRIBBLE	1256	n/a	n/a	0	0	0
462305	WORD	wordpools/wasnorm_wordpool_576.txt	LTP310	ltpFR2	3	3	BLOCKADE	137	n/a	n/a	0	0	0
465113	WORD	wordpools/wasnorm_wordpool_576.txt	LTP310	ltpFR2	3	3	OZONE	996	n/a	n/a	0	0	0
467792	WORD	wordpools/wasnorm_wordpool_576.txt	LTP310	ltpFR2	3	3	NOTEBOOK	959	n/a	n/a	0	0	0
470428	WORD	wordpools/wasnorm_wordpool_576.txt	LTP310	ltpFR2	3	3	FRECKLE	602	n/a	n/a	0	0	0
473030	WORD	wordpools/wasnorm_wordpool_576.txt	LTP310	ltpFR2	3	3	FOREHEAD	592	n/a	n/a	0	0	0
475489	WORD	wordpools/wasnorm_wordpool_576.txt	LTP310	ltpFR2	3	3	HELMET	702	n/a	n/a	0	0	0
478017	WORD	wordpools/wasnorm_wordpool_576.txt	LTP310	ltpFR2	3	3	STOMACH	1384	n/a	n/a	0	0	0
480487	WORD	wordpools/wasnorm_wordpool_576.txt	LTP310	ltpFR2	3	3	GARBAGE	622	n/a	n/a	0	0	0
482938	WORD	wordpools/wasnorm_wordpool_576.txt	LTP310	ltpFR2	3	3	MEAT	883	n/a	n/a	0	0	0
485397	WORD	wordpools/wasnorm_wordpool_576.txt	LTP310	ltpFR2	3	3	CRITIC	410	n/a	n/a	0	0	0
488183	WORD	wordpools/wasnorm_wordpool_576.txt	LTP310	ltpFR2	3	3	BOYFRIEND	162	n/a	n/a	0	0	0
491001	WORD	wordpools/wasnorm_wordpool_576.txt	LTP310	ltpFR2	3	3	FEMALE	559	n/a	n/a	0	0	0
493604	WORD	wordpools/wasnorm_wordpool_576.txt	LTP310	ltpFR2	3	3	COFFEE	341	n/a	n/a	0	0	0
496250	WORD	wordpools/wasnorm_wordpool_576.txt	LTP310	ltpFR2	3	3	CUPBOARD	425	n/a	n/a	0	0	0
498858	WORD	wordpools/wasnorm_wordpool_576.txt	LTP310	ltpFR2	3	3	PAIL	1002	n/a	n/a	0	0	0
501445	WORD	wordpools/wasnorm_wordpool_576.txt	LTP310	ltpFR2	3	3	LAGOON	795	n/a	n/a	0	0	0
504264	WORD	wordpools/wasnorm_wordpool_576.txt	LTP310	ltpFR2	3	3	FOOTBALL	591	n/a	n/a	0	0	0
506740	WORD	wordpools/wasnorm_wordpool_576.txt	LTP310	ltpFR2	3	3	VICTIM	1562	n/a	n/a	0	0	0
509177	WORD	wordpools/wasnorm_wordpool_576.txt	LTP310	ltpFR2	3	3	TWEEZERS	1526	n/a	n/a	0	0	0
511669	WORD	wordpools/wasnorm_wordpool_576.txt	LTP310	ltpFR2	3	3	POPCORN	1104	n/a	n/a	0	0	0
514155	WORD	wordpools/wasnorm_wordpool_576.txt	LTP310	ltpFR2	3	3	COUNTY	389	n/a	n/a	0	0	0
516923	WORD	wordpools/wasnorm_wordpool_576.txt	LTP310	ltpFR2	3	3	LETTUCE	814	n/a	n/a	0	0	0
518534	START	n/a	LTP310	ltpFR2	3	n/a	n/a	n/a	5	n/a	n/a	n/a	n/a
519718	DISTRACTOR	n/a	LTP310	ltpFR2	3	3	n/a	n/a	n/a	n/a	0	0	0
519726	PROB	n/a	LTP310	ltpFR2	3	n/a	n/a	n/a	5	17	6	8	3
521552	PROB	n/a	LTP310	ltpFR2	3	n/a	n/a	n/a	5	27	9	9	9
523936	PROB	n/a	LTP310	ltpFR2	3	n/a	n/a	n/a	5	19	8	2	9
525288	PROB	n/a	LTP310	ltpFR2	3	n/a	n/a	n/a	5	10	6	1	3
526605	PROB	n/a	LTP310	ltpFR2	3	n/a	n/a	n/a	5	8	1	6	1
528408	PROB	n/a	LTP310	ltpFR2	3	n/a	n/a	n/a	5	21	3	9	9
529974	PROB	n/a	LTP310	ltpFR2	3	n/a	n/a	n/a	5	13	1	7	5
531478	PROB	n/a	LTP310	ltpFR2	3	n/a	n/a	n/a	5	10	2	5	3
532977	PROB	n/a	LTP310	ltpFR2	3	n/a	n/a	n/a	5	19	2	9	8
534511	PROB	n/a	LTP310	ltpFR2	3	n/a	n/a	n/a	5	11	4	2	5
535913	PROB	n/a	LTP310	ltpFR2	3	n/a	n/a	n/a	5	10	4	4	2
537332	PROB	n/a	LTP310	ltpFR2	3	n/a	n/a	n/a	5	18	5	6	7
538649	PROB	n/a	LTP310	ltpFR2	3	n/a	n/a	n/a	5	18	8	2	8
539884	PROB	n/a	LTP310	ltpFR2	3	n/a	n/a	n/a	5	9	6	2	1
541477	STOP	n/a	LTP310	ltpFR2	3	n/a	n/a	n/a	5	n/a	n/a	n/a	n/a
544438	REC_START	n/a	LTP310	ltpFR2	3	3	n/a	n/a	n/a	n/a	0	0	0
546480	REC_WORD	wordpools/wasnorm_wordpool_576.txt	LTP310	ltpFR2	3	3	FLESH	579	n/a	n/a	0	0	0
547362	REC_WORD	wordpools/wasnorm_wordpool_576.txt	LTP310	ltpFR2	3	3	SCRIBBLE	1256	n/a	n/a	0	0	0
548957	REC_WORD	wordpools/wasnorm_wordpool_576.txt	LTP310	ltpFR2	3	3	NOTEBOOK	959	n/a	n/a	0	0	0
550614	REC_WORD	wordpools/wasnorm_wordpool_576.txt	LTP310	ltpFR2	3	3	BOYFRIEND	162	n/a	n/a	0	0	0
552012	REC_WORD	wordpools/wasnorm_wordpool_576.txt	LTP310	ltpFR2	3	3	CRITIC	410	n/a	n/a	0	0	0
554834	REC_WORD	wordpools/wasnorm_wordpool_576.txt	LTP310	ltpFR2	3	3	FEMALE	559	n/a	n/a	0	0	0
557724	REC_WORD	wordpools/wasnorm_wordpool_576.txt	LTP310	ltpFR2	3	3	FOREHEAD	592	n/a	n/a	0	0	0
559063	REC_WORD	wordpools/wasnorm_wordpool_576.txt	LTP310	ltpFR2	3	3	FRECKLE	602	n/a	n/a	0	0	0
560714	REC_WORD	wordpools/wasnorm_wordpool_576.txt	LTP310	ltpFR2	3	3	STOMACH	1384	n/a	n/a	0	0	0
562341	REC_WORD	wordpools/wasnorm_wordpool_576.txt	LTP310	ltpFR2	3	3	COFFEE	341	n/a	n/a	0	0	0
563781	REC_WORD	wordpools/wasnorm_wordpool_576.txt	LTP310	ltpFR2	3	3	POPCORN	1104	n/a	n/a	0	0	0
565384	REC_WORD	wordpools/wasnorm_wordpool_576.txt	LTP310	ltpFR2	3	3	CUPBOARD	425	n/a	n/a	0	0	0
567155	REC_WORD	wordpools/wasnorm_wordpool_576.txt	LTP310	ltpFR2	3	3	PAIL	1002	n/a	n/a	0	0	0
572822	REC_WORD	wordpools/wasnorm_wordpool_576.txt	LTP310	ltpFR2	3	3	LAGOON	795	n/a	n/a	0	0	0
574734	REC_WORD	wordpools/wasnorm_wordpool_576.txt	LTP310	ltpFR2	3	3	VICTIM	1562	n/a	n/a	0	0	0
576362	REC_WORD	wordpools/wasnorm_wordpool_576.txt	LTP310	ltpFR2	3	3	FOOTBALL	591	n/a	n/a	0	0	0
578688	REC_WORD	wordpools/wasnorm_wordpool_576.txt	LTP310	ltpFR2	3	3	BLOCKADE	137	n/a	n/a	0	0	0
580660	REC_WORD	wordpools/wasnorm_wordpool_576.txt	LTP310	ltpFR2	3	3	OZONE	996	n/a	n/a	0	0	0
583692	REC_WORD	wordpools/wasnorm_wordpool_576.txt	LTP310	ltpFR2	3	3	LETTUCE	814	n/a	n/a	0	0	0
585226	REC_WORD	wordpools/wasnorm_wordpool_576.txt	LTP310	ltpFR2	3	3	COUNTY	389	n/a	n/a	0	0	0
614331	REC_WORD	wordpools/wasnorm_wordpool_576.txt	LTP310	ltpFR2	3	3	HELMET	702	n/a	n/a	0	0	0
634894	DISTRACTOR	n/a	LTP310	ltpFR2	3	4	n/a	n/a	n/a	n/a	0	0	0
634894	START	n/a	LTP310	ltpFR2	3	n/a	n/a	n/a	6	n/a	n/a	n/a	n/a
634909	PROB	n/a	LTP310	ltpFR2	3	n/a	n/a	n/a	6	10	7	1	2
636745	PROB	n/a	LTP310	ltpFR2	3	n/a	n/a	n/a	6	20	4	4	8
638061	PROB	n/a	LTP310	ltpFR2	3	n/a	n/a	n/a	6	16	6	5	5
639780	PROB	n/a	LTP310	ltpFR2	3	n/a	n/a	n/a	6	15	6	7	2
641048	PROB	n/a	LTP310	ltpFR2	3	n/a	n/a	n/a	6	21	8	3	9
642549	PROB	n/a	LTP310	ltpFR2	3	n/a	n/a	n/a	6	14	4	2	8
644401	PROB	n/a	LTP310	ltpFR2	3	n/a	n/a	n/a	6	12	2	2	8
645868	PROB	n/a	LTP310	ltpFR2	3	n/a	n/a	n/a	6	20	9	7	4
647369	PROB	n/a	LTP310	ltpFR2	3	n/a	n/a	n/a	6	20	8	6	6
649221	PROB	n/a	LTP310	ltpFR2	3	n/a	n/a	n/a	6	12	2	1	9
650788	PROB	n/a	LTP310	ltpFR2	3	n/a	n/a	n/a	6	6	1	2	3
651889	PROB	n/a	LTP310	ltpFR2	3	n/a	n/a	n/a	6	12	6	2	4
653075	PROB	n/a	LTP310	ltpFR2	3	n/a	n/a	n/a	6	26	9	8	9
654642	PROB	n/a	LTP310	ltpFR2	3	n/a	n/a	n/a	6	16	4	7	5
655943	PROB	n/a	LTP310	ltpFR2	3	n/a	n/a	n/a	6	21	8	5	8
657673	STOP	n/a	LTP310	ltpFR2	3	n/a	n/a	n/a	6	n/a	n/a	n/a	n/a
660081	WORD	wordpools/wasnorm_wordpool_576.txt	LTP310	ltpFR2	3	4	REBEL	1172	n/a	n/a	0	0	0
662583	WORD	wordpools/wasnorm_wordpool_576.txt	LTP310	ltpFR2	3	4	VENUS	1557	n/a	n/a	0	0	0
665235	WORD	wordpools/wasnorm_wordpool_576.txt	LTP310	ltpFR2	3	4	SOFTBALL	1343	n/a	n/a	0	0	0
667756	WORD	wordpools/wasnorm_wordpool_576.txt	LTP310	ltpFR2	3	4	FLASK	576	n/a	n/a	0	0	0
670206	WORD	wordpools/wasnorm_wordpool_576.txt	LTP310	ltpFR2	3	4	APRON	35	n/a	n/a	0	0	0
672840	WORD	wordpools/wasnorm_wordpool_576.txt	LTP310	ltpFR2	3	4	RATTLE	1170	n/a	n/a	0	0	0
675294	WORD	wordpools/wasnorm_wordpool_576.txt	LTP310	ltpFR2	3	4	SANDWICH	1232	n/a	n/a	0	0	0
677978	WORD	wordpools/wasnorm_wordpool_576.txt	LTP310	ltpFR2	3	4	JELLY	755	n/a	n/a	0	0	0
680763	WORD	wordpools/wasnorm_wordpool_576.txt	LTP310	ltpFR2	3	4	MOTOR	922	n/a	n/a	0	0	0
683467	WORD	wordpools/wasnorm_wordpool_576.txt	LTP310	ltpFR2	3	4	PAPER	1011	n/a	n/a	0	0	0
685935	WORD	wordpools/wasnorm_wordpool_576.txt	LTP310	ltpFR2	3	4	BINDER	127	n/a	n/a	0	0	0
688719	WORD	wordpools/wasnorm_wordpool_576.txt	LTP310	ltpFR2	3	4	HOUND	724	n/a	n/a	0	0	0
691423	WORD	wordpools/wasnorm_wordpool_576.txt	LTP310	ltpFR2	3	4	RECORD	1176	n/a	n/a	0	0	0
693974	WORD	wordpools/wasnorm_wordpool_576.txt	LTP310	ltpFR2	3	4	CONCERT	360	n/a	n/a	0	0	0
696547	WORD	wordpools/wasnorm_wordpool_576.txt	LTP310	ltpFR2	3	4	TURKEY	1520	n/a	n/a	0	0	0
699334	WORD	wordpools/wasnorm_wordpool_576.txt	LTP310	ltpFR2	3	4	LEG	809	n/a	n/a	0	0	0
701902	WORD	wordpools/wasnorm_wordpool_576.txt	LTP310	ltpFR2	3	4	JAPAN	749	n/a	n/a	0	0	0
704717	WORD	wordpools/wasnorm_wordpool_576.txt	LTP310	ltpFR2	3	4	UMPIRE	1535	n/a	n/a	0	0	0
707485	WORD	wordpools/wasnorm_wordpool_576.txt	LTP310	ltpFR2	3	4	RIFLE	1192	n/a	n/a	0	0	0
710194	WORD	wordpools/wasnorm_wordpool_576.txt	LTP310	ltpFR2	3	4	PRINCESS	1125	n/a	n/a	0	0	0
713005	WORD	wordpools/wasnorm_wordpool_576.txt	LTP310	ltpFR2	3	4	GRAVE	658	n/a	n/a	0	0	0
715542	WORD	wordpools/wasnorm_wordpool_576.txt	LTP310	ltpFR2	3	4	CATCHER	258	n/a	n/a	0	0	0
718327	WORD	wordpools/wasnorm_wordpool_576.txt	LTP310	ltpFR2	3	4	SLUG	1329	n/a	n/a	0	0	0
721114	WORD	wordpools/wasnorm_wordpool_576.txt	LTP310	ltpFR2	3	4	PERCH	1048	n/a	n/a	0	0	0
722721	START	n/a	LTP310	ltpFR2	3	n/a	n/a	n/a	7	n/a	n/a	n/a	n/a
723673	DISTRACTOR	n/a	LTP310	ltpFR2	3	4	n/a	n/a	n/a	n/a	0	0	0
723681	PROB	n/a	LTP310	ltpFR2	3	n/a	n/a	n/a	7	11	7	2	2
725232	PROB	n/a	LTP310	ltpFR2	3	n/a	n/a	n/a	7	17	3	6	8
726849	PROB	n/a	LTP310	ltpFR2	3	n/a	n/a	n/a	7	15	1	9	4
728285	PROB	n/a	LTP310	ltpFR2	3	n/a	n/a	n/a	7	16	9	6	1
730304	PROB	n/a	LTP310	ltpFR2	3	n/a	n/a	n/a	7	18	4	9	5
731770	PROB	n/a	LTP310	ltpFR2	3	n/a	n/a	n/a	7	17	6	3	8
735974	PROB	n/a	LTP310	ltpFR2	3	n/a	n/a	n/a	7	18	2	7	9
737524	PROB	n/a	LTP310	ltpFR2	3	n/a	n/a	n/a	7	15	6	1	8
739026	PROB	n/a	LTP310	ltpFR2	3	n/a	n/a	n/a	7	18	4	8	6
740595	PROB	n/a	LTP310	ltpFR2	3	n/a	n/a	n/a	7	22	9	7	6
743297	PROB	n/a	LTP310	ltpFR2	3	n/a	n/a	n/a	7	17	7	5	5
745773	STOP	n/a	LTP310	ltpFR2	3	n/a	n/a	n/a	7	n/a	n/a	n/a	n/a
748502	REC_START	n/a	LTP310	ltpFR2	3	4	n/a	n/a	n/a	n/a	0	0	0
751567	REC_WORD	wordpools/wasnorm_wordpool_576.txt	LTP310	ltpFR2	3	4	VENUS	1557	n/a	n/a	0	0	0
752727	REC_WORD	wordpools/wasnorm_wordpool_576.txt	LTP310	ltpFR2	3	4	REBEL	1172	n/a	n/a	0	0	0
753847	REC_WORD	wordpools/wasnorm_wordpool_576.txt	LTP310	ltpFR2	3	4	SOFTBALL	1343	n/a	n/a	0	0	0
755675	REC_WORD	wordpools/wasnorm_wordpool_576.txt	LTP310	ltpFR2	3	4	RATTLE	1170	n/a	n/a	0	0	0
756711	REC_WORD	wordpools/wasnorm_wordpool_576.txt	LTP310	ltpFR2	3	4	SANDWICH	1232	n/a	n/a	0	0	0
757954	REC_WORD	wordpools/wasnorm_wordpool_576.txt	LTP310	ltpFR2	3	4	JELLY	755	n/a	n/a	0	0	0
759293	REC_WORD	wordpools/wasnorm_wordpool_576.txt	LTP310	ltpFR2	3	4	FLASK	576	n/a	n/a	0	0	0
761549	REC_WORD	wordpools/wasnorm_wordpool_576.txt	LTP310	ltpFR2	3	4	APRON	35	n/a	n/a	0	0	0
762920	REC_WORD	wordpools/wasnorm_wordpool_576.txt	LTP310	ltpFR2	3	4	UMPIRE	1535	n/a	n/a	0	0	0
764136	REC_WORD	wordpools/wasnorm_wordpool_576.txt	LTP310	ltpFR2	3	4	PRINCESS	1125	n/a	n/a	0	0	0
765462	REC_WORD	wordpools/wasnorm_wordpool_576.txt	LTP310	ltpFR2	3	4	RIFLE	1192	n/a	n/a	0	0	0
767398	REC_WORD	wordpools/wasnorm_wordpool_576.txt	LTP310	ltpFR2	3	4	GRAVE	658	n/a	n/a	0	0	0
768915	REC_WORD	wordpools/wasnorm_wordpool_576.txt	LTP310	ltpFR2	3	4	MOTOR	922	n/a	n/a	0	0	0
770308	REC_WORD	wordpools/wasnorm_wordpool_576.txt	LTP310	ltpFR2	3	4	PAPER	1011	n/a	n/a	0	0	0
771560	REC_WORD	wordpools/wasnorm_wordpool_576.txt	LTP310	ltpFR2	3	4	HOUND	724	n/a	n/a	0	0	0
778535	REC_WORD	wordpools/wasnorm_wordpool_576.txt	LTP310	ltpFR2	3	4	RECORD	1176	n/a	n/a	0	0	0
780270	REC_WORD	wordpools/wasnorm_wordpool_576.txt	LTP310	ltpFR2	3	4	CONCERT	360	n/a	n/a	0	0	0
782187	REC_WORD	wordpools/wasnorm_wordpool_576.txt	LTP310	ltpFR2	3	4	TURKEY	1520	n/a	n/a	0	0	0
784659	REC_WORD	wordpools/wasnorm_wordpool_576.txt	LTP310	ltpFR2	3	4	JAPAN	749	n/a	n/a	0	0	0
786911	REC_WORD	wordpools/wasnorm_wordpool_576.txt	LTP310	ltpFR2	3	4	LEG	809	n/a	n/a	0	0	0
791571	REC_WORD	wordpools/wasnorm_wordpool_576.txt	LTP310	ltpFR2	3	4	CATCHER	258	n/a	n/a	0	0	0
792936	REC_WORD	wordpools/wasnorm_wordpool_576.txt	LTP310	ltpFR2	3	4	SLUG	1329	n/a	n/a	0	0	0
838971	WORD	wordpools/wasnorm_wordpool_576.txt	LTP310	ltpFR2	3	5	RAFT	1159	n/a	n/a	0	0	0
841458	WORD	wordpools/wasnorm_wordpool_576.txt	LTP310	ltpFR2	3	5	BULLET	194	n/a	n/a	0	0	0
843943	WORD	wordpools/wasnorm_wordpool_576.txt	LTP310	ltpFR2	3	5	HUMAN	726	n/a	n/a	0	0	0
846379	WORD	wordpools/wasnorm_wordpool_576.txt	LTP310	ltpFR2	3	5	LACE	792	n/a	n/a	0	0	0
849047	WORD	wordpools/wasnorm_wordpool_576.txt	LTP310	ltpFR2	3	5	STAPLE	1371	n/a	n/a	0	0	0
851767	WORD	wordpools/wasnorm_wordpool_576.txt	LTP310	ltpFR2	3	5	SUBWAY	1400	n/a	n/a	0	0	0
854436	WORD	wordpools/wasnorm_wordpool_576.txt	LTP310	ltpFR2	3	5	SKILLET	1317	n/a	n/a	0	0	0
857139	WORD	wordpools/wasnorm_wordpool_576.txt	LTP310	ltpFR2	3	5	STOVE	1388	n/a	n/a	0	0	0
859590	WORD	wordpools/wasnorm_wordpool_576.txt	LTP310	ltpFR2	3	5	JOURNAL	760	n/a	n/a	0	0	0
862126	WORD	wordpools/wasnorm_wordpool_576.txt	LTP310	ltpFR2	3	5	MONEY	908	n/a	n/a	0	0	0
864794	WORD	wordpools/wasnorm_wordpool_576.txt	LTP310	ltpFR2	3	5	HANDBAG	684	n/a	n/a	0	0	0
867464	WORD	wordpools/wasnorm_wordpool_576.txt	LTP310	ltpFR2	3	5	SEAL	1262	n/a	n/a	0	0	0
870266	WORD	wordpools/wasnorm_wordpool_576.txt	LTP310	ltpFR2	3	5	MUFFIN	929	n/a	n/a	0	0	0
872752	WORD	wordpools/wasnorm_wordpool_576.txt	LTP310	ltpFR2	3	5	HARP	689	n/a	n/a	0	0	0
875305	WORD	wordpools/wasnorm_wordpool_576.txt	LTP310	ltpFR2	3	5	MAMMAL	861	n/a	n/a	0	0	0
878089	WORD	wordpools/wasnorm_wordpool_576.txt	LTP310	ltpFR2	3	5	DOLPHIN	483	n/a	n/a	0	0	0
880675	WORD	wordpools/wasnorm_wordpool_576.txt	LTP310	ltpFR2	3	5	SWAMP	1416	n/a	n/a	0	0	0
883277	WORD	wordpools/wasnorm_wordpool_576.txt	LTP310	ltpFR2	3	5	GARDEN	623	n/a	n/a	0	0	0
886045	WORD	wordpools/wasnorm_wordpool_576.txt	LTP310	ltpFR2	3	5	CABBAGE	210	n/a	n/a	0	0	0
888680	WORD	wordpools/wasnorm_wordpool_576.txt	LTP310	ltpFR2	3	5	GIRL	637	n/a	n/a	0	0	0
891133	WORD	wordpools/wasnorm_wordpool_576.txt	LTP310	ltpFR2	3	5	TOASTER	1472	n/a	n/a	0	0	0
893734	WORD	wordpools/wasnorm_wordpool_576.txt	LTP310	ltpFR2	3	5	WAGON	1578	n/a	n/a	0	0	0
896537	WORD	wordpools/wasnorm_wordpool_576.txt	LTP310	ltpFR2	3	5	POSTAGE	1113	n/a	n/a	0	0	0
899072	WORD	wordpools/wasnorm_wordpool_576.txt	LTP310	ltpFR2	3	5	VIRUS	1572	n/a	n/a	0	0	0
900691	START	n/a	LTP310	ltpFR2	3	n/a	n/a	n/a	8	n/a	n/a	n/a	n/a
901741	DISTRACTOR	n/a	LTP310	ltpFR2	3	5	n/a	n/a	n/a	n/a	0	0	0
901758	PROB	n/a	LTP310	ltpFR2	3	n/a	n/a	n/a	8	15	5	1	9
903558	PROB	n/a	LTP310	ltpFR2	3	n/a	n/a	n/a	8	13	5	4	4
905025	PROB	n/a	LTP310	ltpFR2	3	n/a	n/a	n/a	8	19	2	8	9
906162	PROB	n/a	LTP310	ltpFR2	3	n/a	n/a	n/a	8	22	8	4	9
907662	PROB	n/a	LTP310	ltpFR2	3	n/a	n/a	n/a	8	16	2	6	8
909214	PROB	n/a	LTP310	ltpFR2	3	n/a	n/a	n/a	8	20	9	6	5
910782	PROB	n/a	LTP310	ltpFR2	3	n/a	n/a	n/a	8	13	8	1	4
912268	PROB	n/a	LTP310	ltpFR2	3	n/a	n/a	n/a	8	6	3	2	1
913484	PROB	n/a	LTP310	ltpFR2	3	n/a	n/a	n/a	8	10	3	2	5
915017	PROB	n/a	LTP310	ltpFR2	3	n/a	n/a	n/a	8	13	6	1	6
916669	PROB	n/a	LTP310	ltpFR2	3	n/a	n/a	n/a	8	15	9	2	4
918204	PROB	n/a	LTP310	ltpFR2	3	n/a	n/a	n/a	8	18	8	8	2
920207	PROB	n/a	LTP310	ltpFR2	3	n/a	n/a	n/a	8	15	6	7	2
922458	PROB	n/a	LTP310	ltpFR2	3	n/a	n/a	n/a	8	11	2	7	2
924317	STOP	n/a	LTP310	ltpFR2	3	n/a	n/a	n/a	8	n/a	n/a	n/a	n/a
926562	REC_START	n/a	LTP310	ltpFR2	3	5	n/a	n/a	n/a	n/a	0	0	0
928955	REC_WORD	wordpools/wasnorm_wordpool_576.txt	LTP310	ltpFR2	3	5	RAFT	1159	n/a	n/a	0	0	0
930169	REC_WORD	wordpools/wasnorm_wordpool_576.txt	LTP310	ltpFR2	3	5	HUMAN	726	n/a	n/a	0	0	0
931590	REC_WORD	wordpools/wasnorm_wordpool_576.txt	LTP310	ltpFR2	3	5	BULLET	194	n/a	n/a	0	0	0
932777	REC_WORD	wordpools/wasnorm_wordpool_576.txt	LTP310	ltpFR2	3	5	STAPLE	1371	n/a	n/a	0	0	0
934318	REC_WORD	wordpools/wasnorm_wordpool_576.txt	LTP310	ltpFR2	3	5	LACE	792	n/a	n/a	0	0	0
935158	REC_WORD	wordpools/wasnorm_wordpool_576.txt	LTP310	ltpFR2	3	5	SUBWAY	1400	n/a	n/a	0	0	0
936365	REC_WORD	wordpools/wasnorm_wordpool_576.txt	LTP310	ltpFR2	3	5	SKILLET	1317	n/a	n/a	0	0	0
937877	REC_WORD	wordpools/wasnorm_wordpool_576.txt	LTP310	ltpFR2	3	5	STOVE	1388	n/a	n/a	0	0	0
939577	REC_WORD	wordpools/wasnorm_wordpool_576.txt	LTP310	ltpFR2	3	5	SEAL	1262	n/a	n/a	0	0	0
940755	REC_WORD	wordpools/wasnorm_wordpool_576.txt	LTP310	ltpFR2	3	5	HARP	689	n/a	n/a	0	0	0
942364	REC_WORD	wordpools/wasnorm_wordpool_576.txt	LTP310	ltpFR2	3	5	MUFFIN	929	n/a	n/a	0	0	0
944201	REC_WORD	wordpools/wasnorm_wordpool_576.txt	LTP310	ltpFR2	3	5	MAMMAL	861	n/a	n/a	0	0	0
945665	REC_WORD	wordpools/wasnorm_wordpool_576.txt	LTP310	ltpFR2	3	5	DOLPHIN	483	n/a	n/a	0	0	0
947132	REC_WORD	wordpools/wasnorm_wordpool_576.txt	LTP310	ltpFR2	3	5	SWAMP	1416	n/a	n/a	0	0	0
949690	REC_WORD	wordpools/wasnorm_wordpool_576.txt	LTP310	ltpFR2	3	5	GIRL	637	n/a	n/a	0	0	0
950775	REC_WORD	wordpools/wasnorm_wordpool_576.txt	LTP310	ltpFR2	3	5	CABBAGE	210	n/a	n/a	0	0	0
953734	REC_WORD	wordpools/wasnorm_wordpool_576.txt	LTP310	ltpFR2	3	5	WAGON	1578	n/a	n/a	0	0	0
955701	REC_WORD	wordpools/wasnorm_wordpool_576.txt	LTP310	ltpFR2	3	5	TOASTER	1472	n/a	n/a	0	0	0
957616	REC_WORD	wordpools/wasnorm_wordpool_576.txt	LTP310	ltpFR2	3	5	POSTAGE	1113	n/a	n/a	0	0	0
1016985	DISTRACTOR	n/a	LTP310	ltpFR2	3	6	n/a	n/a	n/a	n/a	0	0	0
1016985	START	n/a	LTP310	ltpFR2	3	n/a	n/a	n/a	9	n/a	n/a	n/a	n/a
1017000	PROB	n/a	LTP310	ltpFR2	3	n/a	n/a	n/a	9	15	6	5	4
1018452	PROB	n/a	LTP310	ltpFR2	3	n/a	n/a	n/a	9	8	4	2	2
1020069	PROB	n/a	LTP310	ltpFR2	3	n/a	n/a	n/a	9	9	5	3	1
1021421	PROB	n/a	LTP310	ltpFR2	3	n/a	n/a	n/a	9	10	3	6	1
1022955	PROB	n/a	LTP310	ltpFR2	3	n/a	n/a	n/a	9	21	6	6	9
1024456	PROB	n/a	LTP310	ltpFR2	3	n/a	n/a	n/a	9	10	6	2	2
1025957	PROB	n/a	LTP310	ltpFR2	3	n/a	n/a	n/a	9	10	5	4	1
1027292	PROB	n/a	LTP310	ltpFR2	3	n/a	n/a	n/a	9	15	4	7	4
1029311	PROB	n/a	LTP310	ltpFR2	3	n/a	n/a	n/a	9	10	4	2	4
1031161	PROB	n/a	LTP310	ltpFR2	3	n/a	n/a	n/a	9	22	7	6	9
1034014	PROB	n/a	LTP310	ltpFR2	3	n/a	n/a	n/a	9	8	6	1	1
1035350	PROB	n/a	LTP310	ltpFR2	3	n/a	n/a	n/a	9	18	9	1	8
1036598	PROB	n/a	LTP310	ltpFR2	3	n/a	n/a	n/a	9	20	6	6	7
1038403	PROB	n/a	LTP310	ltpFR2	3	n/a	n/a	n/a	9	20	5	6	9
1040961	STOP	n/a	LTP310	ltpFR2	3	n/a	n/a	n/a	9	n/a	n/a	n/a	n/a
1041848	WORD	wordpools/wasnorm_wordpool_576.txt	LTP310	ltpFR2	3	6	JUGGLER	763	n/a	n/a	0	0	0
1044385	WORD	wordpools/wasnorm_wordpool_576.txt	LTP310	ltpFR2	3	6	FARMER	553	n/a	n/a	0	0	0
1047105	WORD	wordpools/wasnorm_wordpool_576.txt	LTP310	ltpFR2	3	6	TRACTOR	1493	n/a	n/a	0	0	0
1049539	WORD	wordpools/wasnorm_wordpool_576.txt	LTP310	ltpFR2	3	6	YACHT	1629	n/a	n/a	0	0	0
1052343	WORD	wordpools/wasnorm_wordpool_576.txt	LTP310	ltpFR2	3	6	FILM	565	n/a	n/a	0	0	0
1054910	WORD	wordpools/wasnorm_wordpool_576.txt	LTP310	ltpFR2	3	6	GRIZZLY	662	n/a	n/a	0	0	0
1057629	WORD	wordpools/wasnorm_wordpool_576.txt	LTP310	ltpFR2	3	6	BANK	83	n/a	n/a	0	0	0
1060233	WORD	wordpools/wasnorm_wordpool_576.txt	LTP310	ltpFR2	3	6	MARINE	869	n/a	n/a	0	0	0
1062905	WORD	wordpools/wasnorm_wordpool_576.txt	LTP310	ltpFR2	3	6	CYCLONE	431	n/a	n/a	0	0	0
1065653	WORD	wordpools/wasnorm_wordpool_576.txt	LTP310	ltpFR2	3	6	BRIEFCASE	175	n/a	n/a	0	0	0
1068307	WORD	wordpools/wasnorm_wordpool_576.txt	LTP310	ltpFR2	3	6	TWIG	1527	n/a	n/a	0	0	0
1071112	WORD	wordpools/wasnorm_wordpool_576.txt	LTP310	ltpFR2	3	6	CELLAR	267	n/a	n/a	0	0	0
1073593	WORD	wordpools/wasnorm_wordpool_576.txt	LTP310	ltpFR2	3	6	DIVER	476	n/a	n/a	0	0	0
1076230	WORD	wordpools/wasnorm_wordpool_576.txt	LTP310	ltpFR2	3	6	PUPIL	1143	n/a	n/a	0	0	0
1079015	WORD	wordpools/wasnorm_wordpool_576.txt	LTP310	ltpFR2	3	6	DUSTPAN	509	n/a	n/a	0	0	0
1081567	WORD	wordpools/wasnorm_wordpool_576.txt	LTP310	ltpFR2	3	6	NAPKIN	937	n/a	n/a	0	0	0
1084187	WORD	wordpools/wasnorm_wordpool_576.txt	LTP310	ltpFR2	3	6	SUMMIT	1405	n/a	n/a	0	0	0
1086838	WORD	wordpools/wasnorm_wordpool_576.txt	LTP310	ltpFR2	3	6	CONTRACT	368	n/a	n/a	0	0	0
1089640	WORD	wordpools/wasnorm_wordpool_576.txt	LTP310	ltpFR2	3	6	PEPPER	1047	n/a	n/a	0	0	0
1092344	WORD	wordpools/wasnorm_wordpool_576.txt	LTP310	ltpFR2	3	6	TURTLE	1522	n/a	n/a	0	0	0
1094895	WORD	wordpools/wasnorm_wordpool_576.txt	LTP310	ltpFR2	3	6	STUDENT	1395	n/a	n/a	0	0	0
1097681	WORD	wordpools/wasnorm_wordpool_576.txt	LTP310	ltpFR2	3	6	TEACHER	1440	n/a	n/a	0	0	0
1100301	WORD	wordpools/wasnorm_wordpool_576.txt	LTP310	ltpFR2	3	6	DENTIST	447	n/a	n/a	0	0	0
1102736	WORD	wordpools/wasnorm_wordpool_576.txt	LTP310	ltpFR2	3	6	HIKER	708	n/a	n/a	0	0	0
1104355	START	n/a	LTP310	ltpFR2	3	n/a	n/a	n/a	10	n/a	n/a	n/a	n/a
1105504	DISTRACTOR	n/a	LTP310	ltpFR2	3	6	n/a	n/a	n/a	n/a	0	0	0
1105521	PROB	n/a	LTP310	ltpFR2	3	n/a	n/a	n/a	10	22	5	9	8
1107508	PROB	n/a	LTP310	ltpFR2	3	n/a	n/a	n/a	10	14	3	4	7
1109124	PROB	n/a	LTP310	ltpFR2	3	n/a	n/a	n/a	10	14	3	6	5
1111626	PROB	n/a	LTP310	ltpFR2	3	n/a	n/a	n/a	10	10	5	4	1
1112912	PROB	n/a	LTP310	ltpFR2	3	n/a	n/a	n/a	10	19	5	6	8
1114414	PROB	n/a	LTP310	ltpFR2	3	n/a	n/a	n/a	10	21	6	6	9
1116263	PROB	n/a	LTP310	ltpFR2	3	n/a	n/a	n/a	10	21	4	5	3
1118014	PROB	n/a	LTP310	ltpFR2	3	n/a	n/a	n/a	10	12	1	9	2
1119366	PROB	n/a	LTP310	ltpFR2	3	n/a	n/a	n/a	10	11	1	4	6
1120650	PROB	n/a	LTP310	ltpFR2	3	n/a	n/a	n/a	10	17	3	6	8
1122302	PROB	n/a	LTP310	ltpFR2	3	n/a	n/a	n/a	10	22	8	6	8
1124338	PROB	n/a	LTP310	ltpFR2	3	n/a	n/a	n/a	10	16	8	4	4
1126272	PROB	n/a	LTP310	ltpFR2	3	n/a	n/a	n/a	10	23	7	8	8
1128278	STOP	n/a	LTP310	ltpFR2	3	n/a	n/a	n/a	10	n/a	n/a	n/a	n/a
1130193	REC_START	n/a	LTP310	ltpFR2	3	6	n/a	n/a	n/a	n/a	0	0	0
1132940	REC_WORD	wordpools/wasnorm_wordpool_576.txt	LTP310	ltpFR2	3	6	FARMER	553	n/a	n/a	0	0	0
1133967	REC_WORD	wordpools/wasnorm_wordpool_576.txt	LTP310	ltpFR2	3	6	JUGGLER	763	n/a	n/a	0	0	0
1134896	REC_WORD	wordpools/wasnorm_wordpool_576.txt	LTP310	ltpFR2	3	6	TRACTOR	1493	n/a	n/a	0	0	0
1136372	REC_WORD	wordpools/wasnorm_wordpool_576.txt	LTP310	ltpFR2	3	6	YACHT	1629	n/a	n/a	0	0	0
1139283	REC_WORD	wordpools/wasnorm_wordpool_576.txt	LTP310	ltpFR2	3	6	MARINE	869	n/a	n/a	0	0	0
1140487	REC_WORD	wordpools/wasnorm_wordpool_576.txt	LTP310	ltpFR2	3	6	CYCLONE	431	n/a	n/a	0	0	0
1142359	REC_WORD	wordpools/wasnorm_wordpool_576.txt	LTP310	ltpFR2	3	6	BRIEFCASE	175	n/a	n/a	0	0	0
1144000	REC_WORD	wordpools/wasnorm_wordpool_576.txt	LTP310	ltpFR2	3	6	TWIG	1527	n/a	n/a	0	0	0
1146221	REC_WORD	wordpools/wasnorm_wordpool_576.txt	LTP310	ltpFR2	3	6	CELLAR	267	n/a	n/a	0	0	0
1147830	REC_WORD	wordpools/wasnorm_wordpool_576.txt	LTP310	ltpFR2	3	6	DIVER	476	n/a	n/a	0	0	0
1149155	REC_WORD	wordpools/wasnorm_wordpool_576.txt	LTP310	ltpFR2	3	6	PUPIL	1143	n/a	n/a	0	0	0
1150417	REC_WORD	wordpools/wasnorm_wordpool_576.txt	LTP310	ltpFR2	3	6	SUMMIT	1405	n/a	n/a	0	0	0
1152076	REC_WORD	wordpools/wasnorm_wordpool_576.txt	LTP310	ltpFR2	3	6	CONTRACT	368	n/a	n/a	0	0	0
1153468	REC_WORD	wordpools/wasnorm_wordpool_576.txt	LTP310	ltpFR2	3	6	PEPPER	1047	n/a	n/a	0	0	0
1154777	REC_WORD	wordpools/wasnorm_wordpool_576.txt	LTP310	ltpFR2	3	6	TURTLE	1522	n/a	n/a	0	0	0
1157729	REC_WORD	wordpools/wasnorm_wordpool_576.txt	LTP310	ltpFR2	3	6	STUDENT	1395	n/a	n/a	0	0	0
1159059	REC_WORD	wordpools/wasnorm_wordpool_576.txt	LTP310	ltpFR2	3	6	TEACHER	1440	n/a	n/a	0	0	0
1160291	REC_WORD	wordpools/wasnorm_wordpool_576.txt	LTP310	ltpFR2	3	6	HIKER	708	n/a	n/a	0	0	0
1178890	REC_WORD	wordpools/wasnorm_wordpool_576.txt	LTP310	ltpFR2	3	6	JUGGLER	763	n/a	n/a	0	0	0
1183555	REC_WORD	wordpools/wasnorm_wordpool_576.txt	LTP310	ltpFR2	3	6	DENTIST	447	n/a	n/a	0	0	0
1200069	REC_WORD_VV	wordpools/wasnorm_wordpool_576.txt	LTP310	ltpFR2	3	6	<>	-1	n/a	n/a	0	0	0
1220629	WORD	wordpools/wasnorm_wordpool_576.txt	LTP310	ltpFR2	3	7	LION	827	n/a	n/a	0	0	0
1223251	WORD	wordpools/wasnorm_wordpool_576.txt	LTP310	ltpFR2	3	7	BEAST	108	n/a	n/a	0	0	0
1225877	WORD	wordpools/wasnorm_wordpool_576.txt	LTP310	ltpFR2	3	7	CLAM	315	n/a	n/a	0	0	0
1228455	WORD	wordpools/wasnorm_wordpool_576.txt	LTP310	ltpFR2	3	7	AGENT	10	n/a	n/a	0	0	0
1231040	WORD	wordpools/wasnorm_wordpool_576.txt	LTP310	ltpFR2	3	7	MACHINE	852	n/a	n/a	0	0	0
1233750	WORD	wordpools/wasnorm_wordpool_576.txt	LTP310	ltpFR2	3	7	TUBA	1515	n/a	n/a	0	0	0
1236212	WORD	wordpools/wasnorm_wordpool_576.txt	LTP310	ltpFR2	3	7	BATHTUB	100	n/a	n/a	0	0	0
1238696	WORD	wordpools/wasnorm_wordpool_576.txt	LTP310	ltpFR2	3	7	PRIMATE	1123	n/a	n/a	0	0	0
1241358	WORD	wordpools/wasnorm_wordpool_576.txt	LTP310	ltpFR2	3	7	OYSTER	995	n/a	n/a	0	0	0
1243933	WORD	wordpools/wasnorm_wordpool_576.txt	LTP310	ltpFR2	3	7	TROUT	1511	n/a	n/a	0	0	0
1246535	WORD	wordpools/wasnorm_wordpool_576.txt	LTP310	ltpFR2	3	7	KNIFE	785	n/a	n/a	0	0	0
1249088	WORD	wordpools/wasnorm_wordpool_576.txt	LTP310	ltpFR2	3	7	FLASHLIGHT	575	n/a	n/a	0	0	0
1251849	WORD	wordpools/wasnorm_wordpool_576.txt	LTP310	ltpFR2	3	7	BADGE	68	n/a	n/a	0	0	0
1254659	WORD	wordpools/wasnorm_wordpool_576.txt	LTP310	ltpFR2	3	7	GUITAR	670	n/a	n/a	0	0	0
1257445	WORD	wordpools/wasnorm_wordpool_576.txt	LTP310	ltpFR2	3	7	CREVICE	405	n/a	n/a	0	0	0
1260030	WORD	wordpools/wasnorm_wordpool_576.txt	LTP310	ltpFR2	3	7	DRAGON	492	n/a	n/a	0	0	0
1262483	WORD	wordpools/wasnorm_wordpool_576.txt	LTP310	ltpFR2	3	7	DRESSER	496	n/a	n/a	0	0	0
1265295	WORD	wordpools/wasnorm_wordpool_576.txt	LTP310	ltpFR2	3	7	SHARK	1275	n/a	n/a	0	0	0
1267813	WORD	wordpools/wasnorm_wordpool_576.txt	LTP310	ltpFR2	3	7	CRIB	407	n/a	n/a	0	0	0
1270317	WORD	wordpools/wasnorm_wordpool_576.txt	LTP310	ltpFR2	3	7	CARROT	249	n/a	n/a	0	0	0
1272973	WORD	wordpools/wasnorm_wordpool_576.txt	LTP310	ltpFR2	3	7	RABBIT	1152	n/a	n/a	0	0	0
1275410	WORD	wordpools/wasnorm_wordpool_576.txt	LTP310	ltpFR2	3	7	WASHER	1592	n/a	n/a	0	0	0
1277871	WORD	wordpools/wasnorm_wordpool_576.txt	LTP310	ltpFR2	3	7	SLOPE	1328	n/a	n/a	0	0	0
1280309	WORD	wordpools/wasnorm_wordpool_576.txt	LTP310	ltpFR2	3	7	LODGE	839	n/a	n/a	0	0	0
1281914	START	n/a	LTP310	ltpFR2	3	n/a	n/a	n/a	11	n/a	n/a	n/a	n/a
1283088	DISTRACTOR	n/a	LTP310	ltpFR2	3	7	n/a	n/a	n/a	n/a	0	0	0
1283093	PROB	n/a	LTP310	ltpFR2	3	n/a	n/a	n/a	11	21	5	7	4
1284993	PROB	n/a	LTP310	ltpFR2	3	n/a	n/a	n/a	11	12	5	5	2
1286202	PROB	n/a	LTP310	ltpFR2	3	n/a	n/a	n/a	11	18	4	9	5
1287718	PROB	n/a	LTP310	ltpFR2	3	n/a	n/a	n/a	11	23	7	7	9
1291054	PROB	n/a	LTP310	ltpFR2	3	n/a	n/a	n/a	11	13	4	4	5
1292883	PROB	n/a	LTP310	ltpFR2	3	n/a	n/a	n/a	11	22	9	6	7
1294772	PROB	n/a	LTP310	ltpFR2	3	n/a	n/a	n/a	11	15	5	1	9
1296472	PROB	n/a	LTP310	ltpFR2	3	n/a	n/a	n/a	11	8	5	1	2
1297860	PROB	n/a	LTP310	ltpFR2	3	n/a	n/a	n/a	11	18	6	3	9
1299526	PROB	n/a	LTP310	ltpFR2	3	n/a	n/a	n/a	11	20	4	7	9
1301342	PROB	n/a	LTP310	ltpFR2	3	n/a	n/a	n/a	11	17	4	8	5
1302959	PROB	n/a	LTP310	ltpFR2	3	n/a	n/a	n/a	11	15	5	8	2
1304437	STOP	n/a	LTP310	ltpFR2	3	n/a	n/a	n/a	11	n/a	n/a	n/a	n/a
1307665	REC_START	n/a	LTP310	ltpFR2	3	7	n/a	n/a	n/a	n/a	0	0	0
1313713	REC_WORD	wordpools/wasnorm_wordpool_576.txt	LTP310	ltpFR2	3	7	LION	827	n/a	n/a	0	0	0
1315037	REC_WORD	wordpools/wasnorm_wordpool_576.txt	LTP310	ltpFR2	3	7	AGENT	10	n/a	n/a	0	0	0
1316427	REC_WORD	wordpools/wasnorm_wordpool_576.txt	LTP310	ltpFR2	3	7	CLOWN	330	n/a	n/a	0	0	0
1319150	REC_WORD	wordpools/wasnorm_wordpool_576.txt	LTP310	ltpFR2	3	7	OYSTER	995	n/a	n/a	0	0	0
1322052	REC_WORD	wordpools/wasnorm_wordpool_576.txt	LTP310	ltpFR2	3	7	TROUT	1511	n/a	n/a	0	0	0
1323330	REC_WORD	wordpools/wasnorm_wordpool_576.txt	LTP310	ltpFR2	3	7	KNIFE	785	n/a	n/a	0	0	0
1325266	REC_WORD	wordpools/wasnorm_wordpool_576.txt	LTP310	ltpFR2	3	7	FLASHLIGHT	575	n/a	n/a	0	0	0
1327534	REC_WORD	wordpools/wasnorm_wordpool_576.txt	LTP310	ltpFR2	3	7	BATHTUB	100	n/a	n/a	0	0	0
1329179	REC_WORD	wordpools/wasnorm_wordpool_576.txt	LTP310	ltpFR2	3	7	MACHINE	852	n/a	n/a	0	0	0
1330902	REC_WORD	wordpools/wasnorm_wordpool_576.txt	LTP310	ltpFR2	3	7	TUBA	1515	n/a	n/a	0	0	0
1334086	REC_WORD	wordpools/wasnorm_wordpool_576.txt	LTP310	ltpFR2	3	7	BADGE	68	n/a	n/a	0	0	0
1336526	REC_WORD	wordpools/wasnorm_wordpool_576.txt	LTP310	ltpFR2	3	7	SHARK	1275	n/a	n/a	0	0	0
1338371	REC_WORD	wordpools/wasnorm_wordpool_576.txt	LTP310	ltpFR2	3	7	CRIB	407	n/a	n/a	0	0	0
1341186	REC_WORD	wordpools/wasnorm_wordpool_576.txt	LTP310	ltpFR2	3	7	DRESSER	496	n/a	n/a	0	0	0
1344024	REC_WORD	wordpools/wasnorm_wordpool_576.txt	LTP310	ltpFR2	3	7	CARROT	249	n/a	n/a	0	0	0
1345455	REC_WORD	wordpools/wasnorm_wordpool_576.txt	LTP310	ltpFR2	3	7	RABBIT	1152	n/a	n/a	0	0	0
1351011	REC_WORD	wordpools/wasnorm_wordpool_576.txt	LTP310	ltpFR2	3	7	WASHER	1592	n/a	n/a	0	0	0
1352445	REC_WORD	wordpools/wasnorm_wordpool_576.txt	LTP310	ltpFR2	3	7	SLOPE	1328	n/a	n/a	0	0	0
1354309	REC_WORD	wordpools/wasnorm_wordpool_576.txt	LTP310	ltpFR2	3	7	LODGE	839	n/a	n/a	0	0	0
1370063	REC_WORD	wordpools/wasnorm_wordpool_576.txt	LTP310	ltpFR2	3	7	PRIMATE	1123	n/a	n/a	0	0	0
1381328	REC_WORD	wordpools/wasnorm_wordpool_576.txt	LTP310	ltpFR2	3	7	BEAST	108	n/a	n/a	0	0	0
1398106	WORD	wordpools/wasnorm_wordpool_576.txt	LTP310	ltpFR2	3	8	BOX	159	n/a	n/a	0	0	0
1400593	WORD	wordpools/wasnorm_wordpool_576.txt	LTP310	ltpFR2	3	8	SWORD	1423	n/a	n/a	0	0	0
1403245	WORD	wordpools/wasnorm_wordpool_576.txt	LTP310	ltpFR2	3	8	OUTFIT	988	n/a	n/a	0	0	0
1405884	WORD	wordpools/wasnorm_wordpool_576.txt	LTP310	ltpFR2	3	8	BARLEY	88	n/a	n/a	0	0	0
1408333	WORD	wordpools/wasnorm_wordpool_576.txt	LTP310	ltpFR2	3	8	TILE	1468	n/a	n/a	0	0	0
1410921	WORD	wordpools/wasnorm_wordpool_576.txt	LTP310	ltpFR2	3	8	RUG	1215	n/a	n/a	0	0	0
1413570	WORD	wordpools/wasnorm_wordpool_576.txt	LTP310	ltpFR2	3	8	GOBLIN	645	n/a	n/a	0	0	0
1416005	WORD	wordpools/wasnorm_wordpool_576.txt	LTP310	ltpFR2	3	8	SHELTER	1282	n/a	n/a	0	0	0
1418724	WORD	wordpools/wasnorm_wordpool_576.txt	LTP310	ltpFR2	3	8	COCOON	339	n/a	n/a	0	0	0
1421526	WORD	wordpools/wasnorm_wordpool_576.txt	LTP310	ltpFR2	3	8	LOFT	840	n/a	n/a	0	0	0
1424050	WORD	wordpools/wasnorm_wordpool_576.txt	LTP310	ltpFR2	3	8	GUARD	667	n/a	n/a	0	0	0
1426552	WORD	wordpools/wasnorm_wordpool_576.txt	LTP310	ltpFR2	3	8	PATROL	1027	n/a	n/a	0	0	0
1429200	WORD	wordpools/wasnorm_wordpool_576.txt	LTP310	ltpFR2	3	8	STAR	1373	n/a	n/a	0	0	0
1431984	WORD	wordpools/wasnorm_wordpool_576.txt	LTP310	ltpFR2	3	8	HERO	706	n/a	n/a	0	0	0
1434409	WORD	wordpools/wasnorm_wordpool_576.txt	LTP310	ltpFR2	3	8	ROD	1203	n/a	n/a	0	0	0
1437190	WORD	wordpools/wasnorm_wordpool_576.txt	LTP310	ltpFR2	3	8	AIRPORT	13	n/a	n/a	0	0	0
1439774	WORD	wordpools/wasnorm_wordpool_576.txt	LTP310	ltpFR2	3	8	KNAPSACK	783	n/a	n/a	0	0	0
1442460	WORD	wordpools/wasnorm_wordpool_576.txt	LTP310	ltpFR2	3	8	EAGLE	512	n/a	n/a	0	0	0
1445146	WORD	wordpools/wasnorm_wordpool_576.txt	LTP310	ltpFR2	3	8	COMET	353	n/a	n/a	0	0	0
1447687	WORD	wordpools/wasnorm_wordpool_576.txt	LTP310	ltpFR2	3	8	KEEPER	769	n/a	n/a	0	0	0
1450417	WORD	wordpools/wasnorm_wordpool_576.txt	LTP310	ltpFR2	3	8	MATTRESS	879	n/a	n/a	0	0	0
1452885	WORD	wordpools/wasnorm_wordpool_576.txt	LTP310	ltpFR2	3	8	CLAMP	316	n/a	n/a	0	0	0
1455620	WORD	wordpools/wasnorm_wordpool_576.txt	LTP310	ltpFR2	3	8	CRAB	397	n/a	n/a	0	0	0
1458197	WORD	wordpools/wasnorm_wordpool_576.txt	LTP310	ltpFR2	3	8	CLIMBER	323	n/a	n/a	0	0	0
1459808	START	n/a	LTP310	ltpFR2	3	n/a	n/a	n/a	12	n/a	n/a	n/a	n/a
1460758	DISTRACTOR	n/a	LTP310	ltpFR2	3	8	n/a	n/a	n/a	n/a	0	0	0
1460765	PROB	n/a	LTP310	ltpFR2	3	n/a	n/a	n/a	12	9	3	3	3
1462294	PROB	n/a	LTP310	ltpFR2	3	n/a	n/a	n/a	12	23	7	8	8
1464277	PROB	n/a	LTP310	ltpFR2	3	n/a	n/a	n/a	12	11	4	5	2
1465676	PROB	n/a	LTP310	ltpFR2	3	n/a	n/a	n/a	12	11	5	3	3
1467695	PROB	n/a	LTP310	ltpFR2	3	n/a	n/a	n/a	12	13	5	7	1
1469231	PROB	n/a	LTP310	ltpFR2	3	n/a	n/a	n/a	12	20	4	7	9
1470581	PROB	n/a	LTP310	ltpFR2	3	n/a	n/a	n/a	12	8	1	5	2
1471848	PROB	n/a	LTP310	ltpFR2	3	n/a	n/a	n/a	12	22	4	9	9
1473533	PROB	n/a	LTP310	ltpFR2	3	n/a	n/a	n/a	12	13	5	5	3
1474750	PROB	n/a	LTP310	ltpFR2	3	n/a	n/a	n/a	12	15	1	7	7
1476153	PROB	n/a	LTP310	ltpFR2	3	n/a	n/a	n/a	12	13	4	3	6
1477636	PROB	n/a	LTP310	ltpFR2	3	n/a	n/a	n/a	12	7	1	5	1
1479754	PROB	n/a	LTP310	ltpFR2	3	n/a	n/a	n/a	12	12	4	3	5
1481557	PROB	n/a	LTP310	ltpFR2	3	n/a	n/a	n/a	12	13	8	1	4
1482964	STOP	n/a	LTP310	ltpFR2	3	n/a	n/a	n/a	12	n/a	n/a	n/a	n/a
1485576	REC_START	n/a	LTP310	ltpFR2	3	8	n/a	n/a	n/a	n/a	0	0	0
1487691	REC_WORD	wordpools/wasnorm_wordpool_576.txt	LTP310	ltpFR2	3	8	BOX	159	n/a	n/a	0	0	0
1488995	REC_WORD	wordpools/wasnorm_wordpool_576.txt	LTP310	ltpFR2	3	8	SWORD	1423	n/a	n/a	0	0	0
1490856	REC_WORD	wordpools/wasnorm_wordpool_576.txt	LTP310	ltpFR2	3	8	OUTFIT	988	n/a	n/a	0	0	0
1492279	REC_WORD	wordpools/wasnorm_wordpool_576.txt	LTP310	ltpFR2	3	8	BARLEY	88	n/a	n/a	0	0	0
1493731	REC_WORD	wordpools/wasnorm_wordpool_576.txt	LTP310	ltpFR2	3	8	RUG	1215	n/a	n/a	0	0	0
1495209	REC_WORD	wordpools/wasnorm_wordpool_576.txt	LTP310	ltpFR2	3	8	TILE	1468	n/a	n/a	0	0	0
1496864	REC_WORD	wordpools/wasnorm_wordpool_576.txt	LTP310	ltpFR2	3	8	GOBLIN	645	n/a	n/a	0	0	0
1498171	REC_WORD	wordpools/wasnorm_wordpool_576.txt	LTP310	ltpFR2	3	8	LOFT	840	n/a	n/a	0	0	0
1499672	REC_WORD	wordpools/wasnorm_wordpool_576.txt	LTP310	ltpFR2	3	8	SHELTER	1282	n/a	n/a	0	0	0
1501125	REC_WORD	wordpools/wasnorm_wordpool_576.txt	LTP310	ltpFR2	3	8	COCOON	339	n/a	n/a	0	0	0
1503311	REC_WORD	wordpools/wasnorm_wordpool_576.txt	LTP310	ltpFR2	3	8	GUARD	667	n/a	n/a	0	0	0
1504453	REC_WORD	wordpools/wasnorm_wordpool_576.txt	LTP310	ltpFR2	3	8	PATROL	1027	n/a	n/a	0	0	0
1506026	REC_WORD	wordpools/wasnorm_wordpool_576.txt	LTP310	ltpFR2	3	8	ROD	1203	n/a	n/a	0	0	0
1506931	REC_WORD	wordpools/wasnorm_wordpool_576.txt	LTP310	ltpFR2	3	8	STAR	1373	n/a	n/a	0	0	0
1509013	REC_WORD	wordpools/wasnorm_wordpool_576.txt	LTP310	ltpFR2	3	8	HERO	706	n/a	n/a	0	0	0
1511007	REC_WORD	wordpools/wasnorm_wordpool_576.txt	LTP310	ltpFR2	3	8	AIRPORT	13	n/a	n/a	0	0	0
1512680	REC_WORD	wordpools/wasnorm_wordpool_576.txt	LTP310	ltpFR2	3	8	KNAPSACK	783	n/a	n/a	0	0	0
1514533	REC_WORD	wordpools/wasnorm_wordpool_576.txt	LTP310	ltpFR2	3	8	CRAB	397	n/a	n/a	0	0	0
1516008	REC_WORD	wordpools/wasnorm_wordpool_576.txt	LTP310	ltpFR2	3	8	COMET	353	n/a	n/a	0	0	0
1517309	REC_WORD	wordpools/wasnorm_wordpool_576.txt	LTP310	ltpFR2	3	8	EAGLE	512	n/a	n/a	0	0	0
1518730	REC_WORD	wordpools/wasnorm_wordpool_576.txt	LTP310	ltpFR2	3	8	MATTRESS	879	n/a	n/a	0	0	0
1520039	REC_WORD	wordpools/wasnorm_wordpool_576.txt	LTP310	ltpFR2	3	8	CLAMP	316	n/a	n/a	0	0	0
1524661	REC_WORD	wordpools/wasnorm_wordpool_576.txt	LTP310	ltpFR2	3	8	KEEPER	769	n/a	n/a	0	0	0
1562122	REST_REWET	n/a	LTP310	ltpFR2	3	8	n/a	n/a	n/a	n/a	0	0	0
2234681	DISTRACTOR	n/a	LTP310	ltpFR2	3	9	n/a	n/a	n/a	n/a	0	0	0
2234681	START	n/a	LTP310	ltpFR2	3	n/a	n/a	n/a	13	n/a	n/a	n/a	n/a
2234695	PROB	n/a	LTP310	ltpFR2	3	n/a	n/a	n/a	13	13	2	5	6
2236597	PROB	n/a	LTP310	ltpFR2	3	n/a	n/a	n/a	13	17	7	6	4
2238717	PROB	n/a	LTP310	ltpFR2	3	n/a	n/a	n/a	13	17	2	9	6
2240534	PROB	n/a	LTP310	ltpFR2	3	n/a	n/a	n/a	13	18	7	2	9
2242319	PROB	n/a	LTP310	ltpFR2	3	n/a	n/a	n/a	13	18	9	6	3
2243953	PROB	n/a	LTP310	ltpFR2	3	n/a	n/a	n/a	13	14	6	3	5
2246722	PROB	n/a	LTP310	ltpFR2	3	n/a	n/a	n/a	13	14	9	1	4
2248443	PROB	n/a	LTP310	ltpFR2	3	n/a	n/a	n/a	13	20	9	3	8
2250058	PROB	n/a	LTP310	ltpFR2	3	n/a	n/a	n/a	13	11	4	5	2
2251460	PROB	n/a	LTP310	ltpFR2	3	n/a	n/a	n/a	13	21	6	8	7
2252962	PROB	n/a	LTP310	ltpFR2	3	n/a	n/a	n/a	13	15	7	4	4
2254379	PROB	n/a	LTP310	ltpFR2	3	n/a	n/a	n/a	13	19	9	1	9
2255647	PROB	n/a	LTP310	ltpFR2	3	n/a	n/a	n/a	13	18	3	6	9
2258681	STOP	n/a	LTP310	ltpFR2	3	n/a	n/a	n/a	13	n/a	n/a	n/a	n/a
2259501	WORD	wordpools/wasnorm_wordpool_576.txt	LTP310	ltpFR2	3	9	SPARROW	1347	n/a	n/a	0	0	0
2261935	WORD	wordpools/wasnorm_wordpool_576.txt	LTP310	ltpFR2	3	9	PARROT	1015	n/a	n/a	0	0	0
2264434	WORD	wordpools/wasnorm_wordpool_576.txt	LTP310	ltpFR2	3	9	POLICE	1098	n/a	n/a	0	0	0
2267170	WORD	wordpools/wasnorm_wordpool_576.txt	LTP310	ltpFR2	3	9	PERMIT	1051	n/a	n/a	0	0	0
2269859	WORD	wordpools/wasnorm_wordpool_576.txt	LTP310	ltpFR2	3	9	CATTLE	261	n/a	n/a	0	0	0
2272425	WORD	wordpools/wasnorm_wordpool_576.txt	LTP310	ltpFR2	3	9	SKETCH	1315	n/a	n/a	0	0	0
2275059	WORD	wordpools/wasnorm_wordpool_576.txt	LTP310	ltpFR2	3	9	TABLET	1427	n/a	n/a	0	0	0
2277479	WORD	wordpools/wasnorm_wordpool_576.txt	LTP310	ltpFR2	3	9	PLIERS	1089	n/a	n/a	0	0	0
2280281	WORD	wordpools/wasnorm_wordpool_576.txt	LTP310	ltpFR2	3	9	SCULPTURE	1258	n/a	n/a	0	0	0
2283066	WORD	wordpools/wasnorm_wordpool_576.txt	LTP310	ltpFR2	3	9	JURY	766	n/a	n/a	0	0	0
2285885	WORD	wordpools/wasnorm_wordpool_576.txt	LTP310	ltpFR2	3	9	CREATURE	403	n/a	n/a	0	0	0
2288404	WORD	wordpools/wasnorm_wordpool_576.txt	LTP310	ltpFR2	3	9	BEEF	113	n/a	n/a	0	0	0
2291007	WORD	wordpools/wasnorm_wordpool_576.txt	LTP310	ltpFR2	3	9	HONEY	713	n/a	n/a	0	0	0
2293609	WORD	wordpools/wasnorm_wordpool_576.txt	LTP310	ltpFR2	3	9	MUSTARD	935	n/a	n/a	0	0	0
2296229	WORD	wordpools/wasnorm_wordpool_576.txt	LTP310	ltpFR2	3	9	SPHINX	1349	n/a	n/a	0	0	0
2298763	WORD	wordpools/wasnorm_wordpool_576.txt	LTP310	ltpFR2	3	9	CHIPMUNK	304	n/a	n/a	0	0	0
2301450	WORD	wordpools/wasnorm_wordpool_576.txt	LTP310	ltpFR2	3	9	ICING	732	n/a	n/a	0	0	0
2304169	WORD	wordpools/wasnorm_wordpool_576.txt	LTP310	ltpFR2	3	9	WAITER	1580	n/a	n/a	0	0	0
2306920	WORD	wordpools/wasnorm_wordpool_576.txt	LTP310	ltpFR2	3	9	COOKBOOK	373	n/a	n/a	0	0	0
2309523	WORD	wordpools/wasnorm_wordpool_576.txt	LTP310	ltpFR2	3	9	LAMP	798	n/a	n/a	0	0	0
2311992	WORD	wordpools/wasnorm_wordpool_576.txt	LTP310	ltpFR2	3	9	STATUE	1374	n/a	n/a	0	0	0
2314428	WORD	wordpools/wasnorm_wordpool_576.txt	LTP310	ltpFR2	3	9	WASP	1593	n/a	n/a	0	0	0
2316896	WORD	wordpools/wasnorm_wordpool_576.txt	LTP310	ltpFR2	3	9	CLOUD	328	n/a	n/a	0	0	0
2319715	WORD	wordpools/wasnorm_wordpool_576.txt	LTP310	ltpFR2	3	9	PLAID	1080	n/a	n/a	0	0	0
2321334	START	n/a	LTP310	ltpFR2	3	n/a	n/a	n/a	14	n/a	n/a	n/a	n/a
2322268	DISTRACTOR	n/a	LTP310	ltpFR2	3	9	n/a	n/a	n/a	n/a	0	0	0
2322285	PROB	n/a	LTP310	ltpFR2	3	n/a	n/a	n/a	14	11	6	2	3
2324735	PROB	n/a	LTP310	ltpFR2	3	n/a	n/a	n/a	14	19	8	6	5
2326619	PROB	n/a	LTP310	ltpFR2	3	n/a	n/a	n/a	14	21	7	5	4
2328171	PROB	n/a	LTP310	ltpFR2	3	n/a	n/a	n/a	14	19	9	7	3
2330223	PROB	n/a	LTP310	ltpFR2	3	n/a	n/a	n/a	14	18	8	3	7
2331573	PROB	n/a	LTP310	ltpFR2	3	n/a	n/a	n/a	14	15	7	7	1
2333109	PROB	n/a	LTP310	ltpFR2	3	n/a	n/a	n/a	14	18	9	8	1
2335194	PROB	n/a	LTP310	ltpFR2	3	n/a	n/a	n/a	14	24	9	7	8
2338414	PROB	n/a	LTP310	ltpFR2	3	n/a	n/a	n/a	14	10	4	3	3
2340014	PROB	n/a	LTP310	ltpFR2	3	n/a	n/a	n/a	14	18	5	8	5
2341400	PROB	n/a	LTP310	ltpFR2	3	n/a	n/a	n/a	14	15	5	5	5
2342598	PROB	n/a	LTP310	ltpFR2	3	n/a	n/a	n/a	14	19	4	8	7
2343975	STOP	n/a	LTP310	ltpFR2	3	n/a	n/a	n/a	14	n/a	n/a	n/a	n/a
2347304	REC_START	n/a	LTP310	ltpFR2	3	9	n/a	n/a	n/a	n/a	0	0	0
2349943	REC_WORD	wordpools/wasnorm_wordpool_576.txt	LTP310	ltpFR2	3	9	WASP	1593	n/a	n/a	0	0	0
2350982	REC_WORD	wordpools/wasnorm_wordpool_576.txt	LTP310	ltpFR2	3	9	STATUE	1374	n/a	n/a	0	0	0
2352518	REC_WORD	wordpools/wasnorm_wordpool_576.txt	LTP310	ltpFR2	3	9	CLOUD	328	n/a	n/a	0	0	0
2354094	REC_WORD	wordpools/wasnorm_wordpool_576.txt	LTP310	ltpFR2	3	9	PLAID	1080	n/a	n/a	0	0	0
2356772	REC_WORD	wordpools/wasnorm_wordpool_576.txt	LTP310	ltpFR2	3	9	JURY	766	n/a	n/a	0	0	0
2358122	REC_WORD	wordpools/wasnorm_wordpool_576.txt	LTP310	ltpFR2	3	9	CREATURE	403	n/a	n/a	0	0	0
2360017	REC_WORD	wordpools/wasnorm_wordpool_576.txt	LTP310	ltpFR2	3	9	BEEF	113	n/a	n/a	0	0	0
2361438	REC_WORD	wordpools/wasnorm_wordpool_576.txt	LTP310	ltpFR2	3	9	HONEY	713	n/a	n/a	0	0	0
2363253	REC_WORD	wordpools/wasnorm_wordpool_576.txt	LTP310	ltpFR2	3	9	MUSTARD	935	n/a	n/a	0	0	0
2381072	REC_WORD	wordpools/wasnorm_wordpool_576.txt	LTP310	ltpFR2	3	9	CATTLE	261	n/a	n/a	0	0	0
2382623	REC_WORD	wordpools/wasnorm_wordpool_576.txt	LTP310	ltpFR2	3	9	TABLET	1427	n/a	n/a	0	0	0
2384734	REC_WORD	wordpools/wasnorm_wordpool_576.txt	LTP310	ltpFR2	3	9	SKETCH	1315	n/a	n/a	0	0	0
2387047	REC_WORD	wordpools/wasnorm_wordpool_576.txt	LTP310	ltpFR2	3	9	PLIERS	1089	n/a	n/a	0	0	0
2388960	REC_WORD	wordpools/wasnorm_wordpool_576.txt	LTP310	ltpFR2	3	9	SCULPTURE	1258	n/a	n/a	0	0	0
2437726	DISTRACTOR	n/a	LTP310	ltpFR2	3	10	n/a	n/a	n/a	n/a	0	0	0
2437727	START	n/a	LTP310	ltpFR2	3	n/a	n/a	n/a	15	n/a	n/a	n/a	n/a
2437742	PROB	n/a	LTP310	ltpFR2	3	n/a	n/a	n/a	15	14	5	2	6
2440244	PROB	n/a	LTP310	ltpFR2	3	n/a	n/a	n/a	15	7	2	1	4
2442379	PROB	n/a	LTP310	ltpFR2	3	n/a	n/a	n/a	15	9	2	3	4
2445047	PROB	n/a	LTP310	ltpFR2	3	n/a	n/a	n/a	15	22	5	9	8
2446599	PROB	n/a	LTP310	ltpFR2	3	n/a	n/a	n/a	15	22	6	8	8
2448068	PROB	n/a	LTP310	ltpFR2	3	n/a	n/a	n/a	15	8	2	4	2
2449419	PROB	n/a	LTP310	ltpFR2	3	n/a	n/a	n/a	15	20	7	5	8
2451020	PROB	n/a	LTP310	ltpFR2	3	n/a	n/a	n/a	15	22	8	8	6
2452887	PROB	n/a	LTP310	ltpFR2	3	n/a	n/a	n/a	15	18	5	5	8
2454123	PROB	n/a	LTP310	ltpFR2	3	n/a	n/a	n/a	15	13	7	1	5
2456507	PROB	n/a	LTP310	ltpFR2	3	n/a	n/a	n/a	15	17	6	5	6
2458244	PROB	n/a	LTP310	ltpFR2	3	n/a	n/a	n/a	15	22	7	5	8
2459809	PROB	n/a	LTP310	ltpFR2	3	n/a	n/a	n/a	15	17	7	7	3
2461668	STOP	n/a	LTP310	ltpFR2	3	n/a	n/a	n/a	15	n/a	n/a	n/a	n/a
2462762	WORD	wordpools/wasnorm_wordpool_576.txt	LTP310	ltpFR2	3	10	STICKER	1382	n/a	n/a	0	0	0
2465433	WORD	wordpools/wasnorm_wordpool_576.txt	LTP310	ltpFR2	3	10	SLIME	1327	n/a	n/a	0	0	0
2468051	WORD	wordpools/wasnorm_wordpool_576.txt	LTP310	ltpFR2	3	10	OMELET	976	n/a	n/a	0	0	0
2470696	WORD	wordpools/wasnorm_wordpool_576.txt	LTP310	ltpFR2	3	10	TOURIST	1488	n/a	n/a	0	0	0
2473250	WORD	wordpools/wasnorm_wordpool_576.txt	LTP310	ltpFR2	3	10	VIKING	1565	n/a	n/a	0	0	0
2475801	WORD	wordpools/wasnorm_wordpool_576.txt	LTP310	ltpFR2	3	10	RELISH	1183	n/a	n/a	0	0	0
2478354	WORD	wordpools/wasnorm_wordpool_576.txt	LTP310	ltpFR2	3	10	CAMEL	223	n/a	n/a	0	0	0
2480805	WORD	wordpools/wasnorm_wordpool_576.txt	LTP310	ltpFR2	3	10	DASHBOARD	441	n/a	n/a	0	0	0
2483331	WORD	wordpools/wasnorm_wordpool_576.txt	LTP310	ltpFR2	3	10	SPONGE	1355	n/a	n/a	0	0	0
2485982	WORD	wordpools/wasnorm_wordpool_576.txt	LTP310	ltpFR2	3	10	GALLON	618	n/a	n/a	0	0	0
2488551	WORD	wordpools/wasnorm_wordpool_576.txt	LTP310	ltpFR2	3	10	AIRPLANE	12	n/a	n/a	0	0	0
2491371	WORD	wordpools/wasnorm_wordpool_576.txt	LTP310	ltpFR2	3	10	BOUQUET	157	n/a	n/a	0	0	0
2493934	WORD	wordpools/wasnorm_wordpool_576.txt	LTP310	ltpFR2	3	10	TRUCK	1512	n/a	n/a	0	0	0
2496686	WORD	wordpools/wasnorm_wordpool_576.txt	LTP310	ltpFR2	3	10	SHELF	1280	n/a	n/a	0	0	0
2499456	WORD	wordpools/wasnorm_wordpool_576.txt	LTP310	ltpFR2	3	10	GANGSTER	620	n/a	n/a	0	0	0
2502213	WORD	wordpools/wasnorm_wordpool_576.txt	LTP310	ltpFR2	3	10	EGYPT	519	n/a	n/a	0	0	0
2504893	WORD	wordpools/wasnorm_wordpool_576.txt	LTP310	ltpFR2	3	10	FOX	598	n/a	n/a	0	0	0
2507596	WORD	wordpools/wasnorm_wordpool_576.txt	LTP310	ltpFR2	3	10	NOMAD	955	n/a	n/a	0	0	0
2510132	WORD	wordpools/wasnorm_wordpool_576.txt	LTP310	ltpFR2	3	10	TRIBE	1505	n/a	n/a	0	0	0
2512884	WORD	wordpools/wasnorm_wordpool_576.txt	LTP310	ltpFR2	3	10	PLASTER	1085	n/a	n/a	0	0	0
2515620	WORD	wordpools/wasnorm_wordpool_576.txt	LTP310	ltpFR2	3	10	SADDLE	1221	n/a	n/a	0	0	0
2518325	WORD	wordpools/wasnorm_wordpool_576.txt	LTP310	ltpFR2	3	10	CARRIAGE	248	n/a	n/a	0	0	0
2521141	WORD	wordpools/wasnorm_wordpool_576.txt	LTP310	ltpFR2	3	10	DONKEY	484	n/a	n/a	0	0	0
2523927	WORD	wordpools/wasnorm_wordpool_576.txt	LTP310	ltpFR2	3	10	BRICK	172	n/a	n/a	0	0	0
2525545	START	n/a	LTP310	ltpFR2	3	n/a	n/a	n/a	16	n/a	n/a	n/a	n/a
2526359	DISTRACTOR	n/a	LTP310	ltpFR2	3	10	n/a	n/a	n/a	n/a	0	0	0
2526365	PROB	n/a	LTP310	ltpFR2	3	n/a	n/a	n/a	16	18	9	5	4
2528597	PROB	n/a	LTP310	ltpFR2	3	n/a	n/a	n/a	16	18	6	7	5
2530081	PROB	n/a	LTP310	ltpFR2	3	n/a	n/a	n/a	16	22	4	9	9
2531717	PROB	n/a	LTP310	ltpFR2	3	n/a	n/a	n/a	16	14	5	1	8
2533502	PROB	n/a	LTP310	ltpFR2	3	n/a	n/a	n/a	16	19	9	7	3
2535170	PROB	n/a	LTP310	ltpFR2	3	n/a	n/a	n/a	16	14	2	3	9
2537738	PROB	n/a	LTP310	ltpFR2	3	n/a	n/a	n/a	16	17	3	7	7
2539193	PROB	n/a	LTP310	ltpFR2	3	n/a	n/a	n/a	16	15	8	2	5
2540593	PROB	n/a	LTP310	ltpFR2	3	n/a	n/a	n/a	16	14	4	3	7
2541909	PROB	n/a	LTP310	ltpFR2	3	n/a	n/a	n/a	16	12	1	8	3
2545063	PROB	n/a	LTP310	ltpFR2	3	n/a	n/a	n/a	16	11	7	3	1
2546231	PROB	n/a	LTP310	ltpFR2	3	n/a	n/a	n/a	16	18	5	9	4
2549545	STOP	n/a	LTP310	ltpFR2	3	n/a	n/a	n/a	16	n/a	n/a	n/a	n/a
2551503	REC_START	n/a	LTP310	ltpFR2	3	10	n/a	n/a	n/a	n/a	0	0	0
2555092	REC_WORD	wordpools/wasnorm_wordpool_576.txt	LTP310	ltpFR2	3	10	STICKER	1382	n/a	n/a	0	0	0
2556227	REC_WORD	wordpools/wasnorm_wordpool_576.txt	LTP310	ltpFR2	3	10	SLIME	1327	n/a	n/a	0	0	0
2557799	REC_WORD	wordpools/wasnorm_wordpool_576.txt	LTP310	ltpFR2	3	10	OMELET	976	n/a	n/a	0	0	0
2558750	REC_WORD	wordpools/wasnorm_wordpool_576.txt	LTP310	ltpFR2	3	10	RELISH	1183	n/a	n/a	0	0	0
2560186	REC_WORD	wordpools/wasnorm_wordpool_576.txt	LTP310	ltpFR2	3	10	VIKING	1565	n/a	n/a	0	0	0
2561323	REC_WORD	wordpools/wasnorm_wordpool_576.txt	LTP310	ltpFR2	3	10	TOURIST	1488	n/a	n/a	0	0	0
2562827	REC_WORD	wordpools/wasnorm_wordpool_576.txt	LTP310	ltpFR2	3	10	CAMEL	223	n/a	n/a	0	0	0
2565406	REC_WORD	wordpools/wasnorm_wordpool_576.txt	LTP310	ltpFR2	3	10	DASHBOARD	441	n/a	n/a	0	0	0
2567047	REC_WORD	wordpools/wasnorm_wordpool_576.txt	LTP310	ltpFR2	3	10	SPONGE	1355	n/a	n/a	0	0	0
2568579	REC_WORD	wordpools/wasnorm_wordpool_576.txt	LTP310	ltpFR2	3	10	TRUCK	1512	n/a	n/a	0	0	0
2570212	REC_WORD	wordpools/wasnorm_wordpool_576.txt	LTP310	ltpFR2	3	10	AIRPLANE	12	n/a	n/a	0	0	0
2572218	REC_WORD	wordpools/wasnorm_wordpool_576.txt	LTP310	ltpFR2	3	10	BOUQUET	157	n/a	n/a	0	0	0
2573282	REC_WORD	wordpools/wasnorm_wordpool_576.txt	LTP310	ltpFR2	3	10	SHELF	1280	n/a	n/a	0	0	0
2574656	REC_WORD	wordpools/wasnorm_wordpool_576.txt	LTP310	ltpFR2	3	10	GANGSTER	620	n/a	n/a	0	0	0
2577770	REC_WORD	wordpools/wasnorm_wordpool_576.txt	LTP310	ltpFR2	3	10	FOX	598	n/a	n/a	0	0	0
2581284	REC_WORD	wordpools/wasnorm_wordpool_576.txt	LTP310	ltpFR2	3	10	NOMAD	955	n/a	n/a	0	0	0
2583534	REC_WORD	wordpools/wasnorm_wordpool_576.txt	LTP310	ltpFR2	3	10	TRIBE	1505	n/a	n/a	0	0	0
2589481	REC_WORD	wordpools/wasnorm_wordpool_576.txt	LTP310	ltpFR2	3	10	SADDLE	1221	n/a	n/a	0	0	0
2591534	REC_WORD	wordpools/wasnorm_wordpool_576.txt	LTP310	ltpFR2	3	10	PLASTER	1085	n/a	n/a	0	0	0
2597127	REC_WORD	wordpools/wasnorm_wordpool_576.txt	LTP310	ltpFR2	3	10	DONKEY	484	n/a	n/a	0	0	0
2598289	REC_WORD	wordpools/wasnorm_wordpool_576.txt	LTP310	ltpFR2	3	10	CARRIAGE	248	n/a	n/a	0	0	0
2600006	REC_WORD	wordpools/wasnorm_wordpool_576.txt	LTP310	ltpFR2	3	10	BRICK	172	n/a	n/a	0	0	0
2641940	WORD	wordpools/wasnorm_wordpool_576.txt	LTP310	ltpFR2	3	11	VELVET	1555	n/a	n/a	0	0	0
2644726	WORD	wordpools/wasnorm_wordpool_576.txt	LTP310	ltpFR2	3	11	STAKE	1368	n/a	n/a	0	0	0
2647369	WORD	wordpools/wasnorm_wordpool_576.txt	LTP310	ltpFR2	3	11	PACKAGE	997	n/a	n/a	0	0	0
2649997	WORD	wordpools/wasnorm_wordpool_576.txt	LTP310	ltpFR2	3	11	HEART	697	n/a	n/a	0	0	0
2652632	WORD	wordpools/wasnorm_wordpool_576.txt	LTP310	ltpFR2	3	11	PROTON	1132	n/a	n/a	0	0	0
2655135	WORD	wordpools/wasnorm_wordpool_576.txt	LTP310	ltpFR2	3	11	BRAKE	166	n/a	n/a	0	0	0
2657843	WORD	wordpools/wasnorm_wordpool_576.txt	LTP310	ltpFR2	3	11	SHOULDER	1294	n/a	n/a	0	0	0
2660497	WORD	wordpools/wasnorm_wordpool_576.txt	LTP310	ltpFR2	3	11	AUTHOR	61	n/a	n/a	0	0	0
2663266	WORD	wordpools/wasnorm_wordpool_576.txt	LTP310	ltpFR2	3	11	LIZARD	834	n/a	n/a	0	0	0
2666000	WORD	wordpools/wasnorm_wordpool_576.txt	LTP310	ltpFR2	3	11	MAILBOX	857	n/a	n/a	0	0	0
2668662	WORD	wordpools/wasnorm_wordpool_576.txt	LTP310	ltpFR2	3	11	BEAKER	104	n/a	n/a	0	0	0
2671098	WORD	wordpools/wasnorm_wordpool_576.txt	LTP310	ltpFR2	3	11	DORM	488	n/a	n/a	0	0	0
2673616	WORD	wordpools/wasnorm_wordpool_576.txt	LTP310	ltpFR2	3	11	MOTEL	919	n/a	n/a	0	0	0
2676143	WORD	wordpools/wasnorm_wordpool_576.txt	LTP310	ltpFR2	3	11	SWITCH	1422	n/a	n/a	0	0	0
2678604	WORD	wordpools/wasnorm_wordpool_576.txt	LTP310	ltpFR2	3	11	SALMON	1227	n/a	n/a	0	0	0
2681173	WORD	wordpools/wasnorm_wordpool_576.txt	LTP310	ltpFR2	3	11	CROWN	415	n/a	n/a	0	0	0
2683633	WORD	wordpools/wasnorm_wordpool_576.txt	LTP310	ltpFR2	3	11	SILK	1307	n/a	n/a	0	0	0
2686411	WORD	wordpools/wasnorm_wordpool_576.txt	LTP310	ltpFR2	3	11	MATCH	878	n/a	n/a	0	0	0
2689045	WORD	wordpools/wasnorm_wordpool_576.txt	LTP310	ltpFR2	3	11	CABIN	211	n/a	n/a	0	0	0
2691563	WORD	wordpools/wasnorm_wordpool_576.txt	LTP310	ltpFR2	3	11	TRANSPLANT	1496	n/a	n/a	0	0	0
2694217	WORD	wordpools/wasnorm_wordpool_576.txt	LTP310	ltpFR2	3	11	LASER	801	n/a	n/a	0	0	0
2696944	WORD	wordpools/wasnorm_wordpool_576.txt	LTP310	ltpFR2	3	11	DAISY	435	n/a	n/a	0	0	0
2699430	WORD	wordpools/wasnorm_wordpool_576.txt	LTP310	ltpFR2	3	11	MARS	873	n/a	n/a	0	0	0
2702133	WORD	wordpools/wasnorm_wordpool_576.txt	LTP310	ltpFR2	3	11	PLUTO	1092	n/a	n/a	0	0	0
2703741	START	n/a	LTP310	ltpFR2	3	n/a	n/a	n/a	17	n/a	n/a	n/a	n/a
2704705	DISTRACTOR	n/a	LTP310	ltpFR2	3	11	n/a	n/a	n/a	n/a	0	0	0
2704718	PROB	n/a	LTP310	ltpFR2	3	n/a	n/a	n/a	17	15	5	7	3
2706342	PROB	n/a	LTP310	ltpFR2	3	n/a	n/a	n/a	17	11	3	3	5
2707660	PROB	n/a	LTP310	ltpFR2	3	n/a	n/a	n/a	17	17	3	7	7
2709026	PROB	n/a	LTP310	ltpFR2	3	n/a	n/a	n/a	17	17	9	7	1
2710629	PROB	n/a	LTP310	ltpFR2	3	n/a	n/a	n/a	17	21	8	3	8
2712280	PROB	n/a	LTP310	ltpFR2	3	n/a	n/a	n/a	17	12	2	1	9
2713914	PROB	n/a	LTP310	ltpFR2	3	n/a	n/a	n/a	17	6	1	4	1
2715715	PROB	n/a	LTP310	ltpFR2	3	n/a	n/a	n/a	17	19	5	8	6
2720720	PROB	n/a	LTP310	ltpFR2	3	n/a	n/a	n/a	17	18	3	9	6
2722405	PROB	n/a	LTP310	ltpFR2	3	n/a	n/a	n/a	17	21	5	9	7
2723972	PROB	n/a	LTP310	ltpFR2	3	n/a	n/a	n/a	17	16	7	4	5
2725508	PROB	n/a	LTP310	ltpFR2	3	n/a	n/a	n/a	17	17	7	9	1
2727168	STOP	n/a	LTP310	ltpFR2	3	n/a	n/a	n/a	17	n/a	n/a	n/a	n/a
2729677	REC_START	n/a	LTP310	ltpFR2	3	11	n/a	n/a	n/a	n/a	0	0	0
2731693	REC_WORD	wordpools/wasnorm_wordpool_576.txt	LTP310	ltpFR2	3	11	VELVET	1555	n/a	n/a	0	0	0
2732690	REC_WORD	wordpools/wasnorm_wordpool_576.txt	LTP310	ltpFR2	3	11	STAKE	1368	n/a	n/a	0	0	0
2734515	REC_WORD	wordpools/wasnorm_wordpool_576.txt	LTP310	ltpFR2	3	11	HEART	697	n/a	n/a	0	0	0
2736065	REC_WORD	wordpools/wasnorm_wordpool_576.txt	LTP310	ltpFR2	3	11	PACKAGE	997	n/a	n/a	0	0	0
2738279	REC_WORD	wordpools/wasnorm_wordpool_576.txt	LTP310	ltpFR2	3	11	LIZARD	834	n/a	n/a	0	0	0
2739987	REC_WORD	wordpools/wasnorm_wordpool_576.txt	LTP310	ltpFR2	3	11	AUTHOR	61	n/a	n/a	0	0	0
2742249	REC_WORD	wordpools/wasnorm_wordpool_576.txt	LTP310	ltpFR2	3	11	MAILBOX	857	n/a	n/a	0	0	0
2743945	REC_WORD	wordpools/wasnorm_wordpool_576.txt	LTP310	ltpFR2	3	11	CROWN	415	n/a	n/a	0	0	0
2747398	REC_WORD	wordpools/wasnorm_wordpool_576.txt	LTP310	ltpFR2	3	11	SILK	1307	n/a	n/a	0	0	0
2749726	REC_WORD	wordpools/wasnorm_wordpool_576.txt	LTP310	ltpFR2	3	11	SALMON	1227	n/a	n/a	0	0	0
2751193	REC_WORD	wordpools/wasnorm_wordpool_576.txt	LTP310	ltpFR2	3	11	SWITCH	1422	n/a	n/a	0	0	0
2753543	REC_WORD	wordpools/wasnorm_wordpool_576.txt	LTP310	ltpFR2	3	11	TRANSPLANT	1496	n/a	n/a	0	0	0
2755650	REC_WORD	wordpools/wasnorm_wordpool_576.txt	LTP310	ltpFR2	3	11	LASER	801	n/a	n/a	0	0	0
2757995	REC_WORD	wordpools/wasnorm_wordpool_576.txt	LTP310	ltpFR2	3	11	PROTON	1132	n/a	n/a	0	0	0
2760329	REC_WORD	wordpools/wasnorm_wordpool_576.txt	LTP310	ltpFR2	3	11	SHOULDER	1294	n/a	n/a	0	0	0
2762166	REC_WORD	wordpools/wasnorm_wordpool_576.txt	LTP310	ltpFR2	3	11	BRAKE	166	n/a	n/a	0	0	0
2768722	REC_WORD	wordpools/wasnorm_wordpool_576.txt	LTP310	ltpFR2	3	11	MARS	873	n/a	n/a	0	0	0
2770447	REC_WORD	wordpools/wasnorm_wordpool_576.txt	LTP310	ltpFR2	3	11	PLUTO	1092	n/a	n/a	0	0	0
2772657	REC_WORD	wordpools/wasnorm_wordpool_576.txt	LTP310	ltpFR2	3	11	DAISY	435	n/a	n/a	0	0	0
2774327	REC_WORD	wordpools/wasnorm_wordpool_576.txt	LTP310	ltpFR2	3	11	LASER	801	n/a	n/a	0	0	0
2820167	WORD	wordpools/wasnorm_wordpool_576.txt	LTP310	ltpFR2	3	12	CRAYON	401	n/a	n/a	0	0	0
2822669	WORD	wordpools/wasnorm_wordpool_576.txt	LTP310	ltpFR2	3	12	FRIEND	606	n/a	n/a	0	0	0
2825489	WORD	wordpools/wasnorm_wordpool_576.txt	LTP310	ltpFR2	3	12	NOVEL	960	n/a	n/a	0	0	0
2828291	WORD	wordpools/wasnorm_wordpool_576.txt	LTP310	ltpFR2	3	12	EYELASH	546	n/a	n/a	0	0	0
2830976	WORD	wordpools/wasnorm_wordpool_576.txt	LTP310	ltpFR2	3	12	COSTUME	383	n/a	n/a	0	0	0
2833795	WORD	wordpools/wasnorm_wordpool_576.txt	LTP310	ltpFR2	3	12	BUREAU	199	n/a	n/a	0	0	0
2836217	WORD	wordpools/wasnorm_wordpool_576.txt	LTP310	ltpFR2	3	12	WORKER	1621	n/a	n/a	0	0	0
2838865	WORD	wordpools/wasnorm_wordpool_576.txt	LTP310	ltpFR2	3	12	NURSE	963	n/a	n/a	0	0	0
2841385	WORD	wordpools/wasnorm_wordpool_576.txt	LTP310	ltpFR2	3	12	WIDOW	1608	n/a	n/a	0	0	0
2844120	WORD	wordpools/wasnorm_wordpool_576.txt	LTP310	ltpFR2	3	12	RECEIPT	1173	n/a	n/a	0	0	0
2846888	WORD	wordpools/wasnorm_wordpool_576.txt	LTP310	ltpFR2	3	12	LUNCH	849	n/a	n/a	0	0	0
2849325	WORD	wordpools/wasnorm_wordpool_576.txt	LTP310	ltpFR2	3	12	GLOBE	641	n/a	n/a	0	0	0
2852144	WORD	wordpools/wasnorm_wordpool_576.txt	LTP310	ltpFR2	3	12	COUSIN	392	n/a	n/a	0	0	0
2854750	WORD	wordpools/wasnorm_wordpool_576.txt	LTP310	ltpFR2	3	12	HUSBAND	728	n/a	n/a	0	0	0
2857181	WORD	wordpools/wasnorm_wordpool_576.txt	LTP310	ltpFR2	3	12	SEAFOOD	1260	n/a	n/a	0	0	0
2859670	WORD	wordpools/wasnorm_wordpool_576.txt	LTP310	ltpFR2	3	12	TYPIST	1532	n/a	n/a	0	0	0
2862435	WORD	wordpools/wasnorm_wordpool_576.txt	LTP310	ltpFR2	3	12	COLLEGE	346	n/a	n/a	0	0	0
2865053	WORD	wordpools/wasnorm_wordpool_576.txt	LTP310	ltpFR2	3	12	COURSE	390	n/a	n/a	0	0	0
2867538	WORD	wordpools/wasnorm_wordpool_576.txt	LTP310	ltpFR2	3	12	THREAD	1460	n/a	n/a	0	0	0
2870175	WORD	wordpools/wasnorm_wordpool_576.txt	LTP310	ltpFR2	3	12	SPOOL	1356	n/a	n/a	0	0	0
2872964	WORD	wordpools/wasnorm_wordpool_576.txt	LTP310	ltpFR2	3	12	COMPASS	358	n/a	n/a	0	0	0
2875595	WORD	wordpools/wasnorm_wordpool_576.txt	LTP310	ltpFR2	3	12	DOUGHNUT	490	n/a	n/a	0	0	0
2878069	WORD	wordpools/wasnorm_wordpool_576.txt	LTP310	ltpFR2	3	12	BACKBONE	66	n/a	n/a	0	0	0
2880799	WORD	wordpools/wasnorm_wordpool_576.txt	LTP310	ltpFR2	3	12	SCALPEL	1243	n/a	n/a	0	0	0
2882408	START	n/a	LTP310	ltpFR2	3	n/a	n/a	n/a	18	n/a	n/a	n/a	n/a
2883226	DISTRACTOR	n/a	LTP310	ltpFR2	3	12	n/a	n/a	n/a	n/a	0	0	0
2883235	PROB	n/a	LTP310	ltpFR2	3	n/a	n/a	n/a	18	21	4	9	8
2885518	PROB	n/a	LTP310	ltpFR2	3	n/a	n/a	n/a	18	9	5	3	1
2886853	PROB	n/a	LTP310	ltpFR2	3	n/a	n/a	n/a	18	10	8	1	1
2888070	PROB	n/a	LTP310	ltpFR2	3	n/a	n/a	n/a	18	22	4	9	9
2889671	PROB	n/a	LTP310	ltpFR2	3	n/a	n/a	n/a	18	12	6	1	5
2892575	PROB	n/a	LTP310	ltpFR2	3	n/a	n/a	n/a	18	15	2	9	4
2894226	PROB	n/a	LTP310	ltpFR2	3	n/a	n/a	n/a	18	14	2	4	8
2895893	PROB	n/a	LTP310	ltpFR2	3	n/a	n/a	n/a	18	12	2	9	1
2898011	PROB	n/a	LTP310	ltpFR2	3	n/a	n/a	n/a	18	20	4	7	9
2899646	PROB	n/a	LTP310	ltpFR2	3	n/a	n/a	n/a	18	15	5	6	4
2901216	PROB	n/a	LTP310	ltpFR2	3	n/a	n/a	n/a	18	19	5	9	5
2902667	PROB	n/a	LTP310	ltpFR2	3	n/a	n/a	n/a	18	8	4	2	2
2903949	PROB	n/a	LTP310	ltpFR2	3	n/a	n/a	n/a	18	10	4	5	1
2905886	STOP	n/a	LTP310	ltpFR2	3	n/a	n/a	n/a	18	n/a	n/a	n/a	n/a
2908340	REC_START	n/a	LTP310	ltpFR2	3	12	n/a	n/a	n/a	n/a	0	0	0
2910269	REC_WORD	wordpools/wasnorm_wordpool_576.txt	LTP310	ltpFR2	3	12	CRAYON	401	n/a	n/a	0	0	0
2911518	REC_WORD	wordpools/wasnorm_wordpool_576.txt	LTP310	ltpFR2	3	12	FRIEND	606	n/a	n/a	0	0	0
2913315	REC_WORD	wordpools/wasnorm_wordpool_576.txt	LTP310	ltpFR2	3	12	NOVEL	960	n/a	n/a	0	0	0
2918890	REC_WORD	wordpools/wasnorm_wordpool_576.txt	LTP310	ltpFR2	3	12	TYPIST	1532	n/a	n/a	0	0	0
2920249	REC_WORD	wordpools/wasnorm_wordpool_576.txt	LTP310	ltpFR2	3	12	COLLEGE	346	n/a	n/a	0	0	0
2921668	REC_WORD	wordpools/wasnorm_wordpool_576.txt	LTP310	ltpFR2	3	12	COURSE	390	n/a	n/a	0	0	0
2923027	REC_WORD	wordpools/wasnorm_wordpool_576.txt	LTP310	ltpFR2	3	12	BACKBONE	66	n/a	n/a	0	0	0
2924337	REC_WORD	wordpools/wasnorm_wordpool_576.txt	LTP310	ltpFR2	3	12	SCALPEL	1243	n/a	n/a	0	0	0
2925463	REC_WORD	wordpools/wasnorm_wordpool_576.txt	LTP310	ltpFR2	3	12	SCALPEL	1243	n/a	n/a	0	0	0
2930342	REC_WORD	wordpools/wasnorm_wordpool_576.txt	LTP310	ltpFR2	3	12	HUSBAND	728	n/a	n/a	0	0	0
2932524	REC_WORD	wordpools/wasnorm_wordpool_576.txt	LTP310	ltpFR2	3	12	WIDOW	1608	n/a	n/a	0	0	0
2934017	REC_WORD	wordpools/wasnorm_wordpool_576.txt	LTP310	ltpFR2	3	12	COUSIN	392	n/a	n/a	0	0	0
2935447	REC_WORD	wordpools/wasnorm_wordpool_576.txt	LTP310	ltpFR2	3	12	GLOBE	641	n/a	n/a	0	0	0
2936988	REC_WORD	wordpools/wasnorm_wordpool_576.txt	LTP310	ltpFR2	3	12	LUNCH	849	n/a	n/a	0	0	0
2938151	REC_WORD	wordpools/wasnorm_wordpool_576.txt	LTP310	ltpFR2	3	12	RECEIPT	1173	n/a	n/a	0	0	0
2945295	REC_WORD	wordpools/wasnorm_wordpool_576.txt	LTP310	ltpFR2	3	12	SEAFOOD	1260	n/a	n/a	0	0	0
2998807	WORD	wordpools/wasnorm_wordpool_576.txt	LTP310	ltpFR2	3	13	BUTCHER	203	n/a	n/a	0	0	0
3001543	WORD	wordpools/wasnorm_wordpool_576.txt	LTP310	ltpFR2	3	13	MARSH	874	n/a	n/a	0	0	0
3004247	WORD	wordpools/wasnorm_wordpool_576.txt	LTP310	ltpFR2	3	13	FINGER	567	n/a	n/a	0	0	0
3006714	WORD	wordpools/wasnorm_wordpool_576.txt	LTP310	ltpFR2	3	13	PUPPY	1144	n/a	n/a	0	0	0
3009451	WORD	wordpools/wasnorm_wordpool_576.txt	LTP310	ltpFR2	3	13	TRENCH	1503	n/a	n/a	0	0	0
3012104	WORD	wordpools/wasnorm_wordpool_576.txt	LTP310	ltpFR2	3	13	KETCHUP	771	n/a	n/a	0	0	0
3014557	WORD	wordpools/wasnorm_wordpool_576.txt	LTP310	ltpFR2	3	13	PREACHER	1119	n/a	n/a	0	0	0
3017375	WORD	wordpools/wasnorm_wordpool_576.txt	LTP310	ltpFR2	3	13	CROSS	413	n/a	n/a	0	0	0
3019927	WORD	wordpools/wasnorm_wordpool_576.txt	LTP310	ltpFR2	3	13	PLAZA	1088	n/a	n/a	0	0	0
3022463	WORD	wordpools/wasnorm_wordpool_576.txt	LTP310	ltpFR2	3	13	WHISKERS	1605	n/a	n/a	0	0	0
3025265	WORD	wordpools/wasnorm_wordpool_576.txt	LTP310	ltpFR2	3	13	SNAKE	1333	n/a	n/a	0	0	0
3028050	WORD	wordpools/wasnorm_wordpool_576.txt	LTP310	ltpFR2	3	13	BISON	131	n/a	n/a	0	0	0
3030852	WORD	wordpools/wasnorm_wordpool_576.txt	LTP310	ltpFR2	3	13	MISTER	901	n/a	n/a	0	0	0
3033554	WORD	wordpools/wasnorm_wordpool_576.txt	LTP310	ltpFR2	3	13	WOMAN	1620	n/a	n/a	0	0	0
3036125	WORD	wordpools/wasnorm_wordpool_576.txt	LTP310	ltpFR2	3	13	PALACE	1006	n/a	n/a	0	0	0
3038792	WORD	wordpools/wasnorm_wordpool_576.txt	LTP310	ltpFR2	3	13	FOOT	590	n/a	n/a	0	0	0
3041329	WORD	wordpools/wasnorm_wordpool_576.txt	LTP310	ltpFR2	3	13	IDOL	733	n/a	n/a	0	0	0
3044132	WORD	wordpools/wasnorm_wordpool_576.txt	LTP310	ltpFR2	3	13	FLIPPER	580	n/a	n/a	0	0	0
3046649	WORD	wordpools/wasnorm_wordpool_576.txt	LTP310	ltpFR2	3	13	CASHIER	254	n/a	n/a	0	0	0
3049169	WORD	wordpools/wasnorm_wordpool_576.txt	LTP310	ltpFR2	3	13	HORNET	718	n/a	n/a	0	0	0
3051720	WORD	wordpools/wasnorm_wordpool_576.txt	LTP310	ltpFR2	3	13	RADISH	1158	n/a	n/a	0	0	0
3054339	WORD	wordpools/wasnorm_wordpool_576.txt	LTP310	ltpFR2	3	13	ORCHID	982	n/a	n/a	0	0	0
3056957	WORD	wordpools/wasnorm_wordpool_576.txt	LTP310	ltpFR2	3	13	LAPEL	800	n/a	n/a	0	0	0
3059427	WORD	wordpools/wasnorm_wordpool_576.txt	LTP310	ltpFR2	3	13	HAND	683	n/a	n/a	0	0	0
3061045	START	n/a	LTP310	ltpFR2	3	n/a	n/a	n/a	19	n/a	n/a	n/a	n/a
3062167	DISTRACTOR	n/a	LTP310	ltpFR2	3	13	n/a	n/a	n/a	n/a	0	0	0
3062179	PROB	n/a	LTP310	ltpFR2	3	n/a	n/a	n/a	19	21	9	6	6
3065746	PROB	n/a	LTP310	ltpFR2	3	n/a	n/a	n/a	19	12	9	1	2
3066916	PROB	n/a	LTP310	ltpFR2	3	n/a	n/a	n/a	19	8	1	2	5
3068184	PROB	n/a	LTP310	ltpFR2	3	n/a	n/a	n/a	19	15	2	8	5
3069367	PROB	n/a	LTP310	ltpFR2	3	n/a	n/a	n/a	19	18	9	4	5
3070784	PROB	n/a	LTP310	ltpFR2	3	n/a	n/a	n/a	19	17	9	5	3
3072670	PROB	n/a	LTP310	ltpFR2	3	n/a	n/a	n/a	19	15	1	5	9
3074271	PROB	n/a	LTP310	ltpFR2	3	n/a	n/a	n/a	19	17	2	7	8
3077608	PROB	n/a	LTP310	ltpFR2	3	n/a	n/a	n/a	19	16	7	1	8
3078974	PROB	n/a	LTP310	ltpFR2	3	n/a	n/a	n/a	19	25	9	7	9
3082194	PROB	n/a	LTP310	ltpFR2	3	n/a	n/a	n/a	19	15	5	1	9
3083614	STOP	n/a	LTP310	ltpFR2	3	n/a	n/a	n/a	19	n/a	n/a	n/a	n/a
3086815	REC_START	n/a	LTP310	ltpFR2	3	13	n/a	n/a	n/a	n/a	0	0	0
3092970	REC_WORD	wordpools/wasnorm_wordpool_576.txt	LTP310	ltpFR2	3	13	BUTCHER	203	n/a	n/a	0	0	0
3094102	REC_WORD	wordpools/wasnorm_wordpool_576.txt	LTP310	ltpFR2	3	13	MARSH	874	n/a	n/a	0	0	0
3095544	REC_WORD	wordpools/wasnorm_wordpool_576.txt	LTP310	ltpFR2	3	13	FINGER	567	n/a	n/a	0	0	0
3096907	REC_WORD	wordpools/wasnorm_wordpool_576.txt	LTP310	ltpFR2	3	13	PUPPY	1144	n/a	n/a	0	0	0
3098468	REC_WORD	wordpools/wasnorm_wordpool_576.txt	LTP310	ltpFR2	3	13	TRENCH	1503	n/a	n/a	0	0	0
3099712	REC_WORD	wordpools/wasnorm_wordpool_576.txt	LTP310	ltpFR2	3	13	KETCHUP	771	n/a	n/a	0	0	0
3101216	REC_WORD	wordpools/wasnorm_wordpool_576.txt	LTP310	ltpFR2	3	13	PREACHER	1119	n/a	n/a	0	0	0
3103820	REC_WORD	wordpools/wasnorm_wordpool_576.txt	LTP310	ltpFR2	3	13	CROSS	413	n/a	n/a	0	0	0
3106627	REC_WORD	wordpools/wasnorm_wordpool_576.txt	LTP310	ltpFR2	3	13	PLAZA	1088	n/a	n/a	0	0	0
3108697	REC_WORD	wordpools/wasnorm_wordpool_576.txt	LTP310	ltpFR2	3	13	SNAKE	1333	n/a	n/a	0	0	0
3110365	REC_WORD	wordpools/wasnorm_wordpool_576.txt	LTP310	ltpFR2	3	13	WHISKERS	1605	n/a	n/a	0	0	0
3111815	REC_WORD	wordpools/wasnorm_wordpool_576.txt	LTP310	ltpFR2	3	13	ORCHID	982	n/a	n/a	0	0	0
3113090	REC_WORD	wordpools/wasnorm_wordpool_576.txt	LTP310	ltpFR2	3	13	RADISH	1158	n/a	n/a	0	0	0
3114639	REC_WORD	wordpools/wasnorm_wordpool_576.txt	LTP310	ltpFR2	3	13	HORNET	718	n/a	n/a	0	0	0
3116478	REC_WORD	wordpools/wasnorm_wordpool_576.txt	LTP310	ltpFR2	3	13	BISON	131	n/a	n/a	0	0	0
3119326	REC_WORD	wordpools/wasnorm_wordpool_576.txt	LTP310	ltpFR2	3	13	WOMAN	1620	n/a	n/a	0	0	0
3120478	REC_WORD	wordpools/wasnorm_wordpool_576.txt	LTP310	ltpFR2	3	13	MISTER	901	n/a	n/a	0	0	0
3122687	REC_WORD	wordpools/wasnorm_wordpool_576.txt	LTP310	ltpFR2	3	13	PALACE	1006	n/a	n/a	0	0	0
3124281	REC_WORD	wordpools/wasnorm_wordpool_576.txt	LTP310	ltpFR2	3	13	FOOT	590	n/a	n/a	0	0	0
3125663	REC_WORD	wordpools/wasnorm_wordpool_576.txt	LTP310	ltpFR2	3	13	IDOL	733	n/a	n/a	0	0	0
3126989	REC_WORD	wordpools/wasnorm_wordpool_576.txt	LTP310	ltpFR2	3	13	FLIPPER	580	n/a	n/a	0	0	0
3128461	REC_WORD	wordpools/wasnorm_wordpool_576.txt	LTP310	ltpFR2	3	13	CASHIER	254	n/a	n/a	0	0	0
3177240	DISTRACTOR	n/a	LTP310	ltpFR2	3	14	n/a	n/a	n/a	n/a	0	0	0
3177240	START	n/a	LTP310	ltpFR2	3	n/a	n/a	n/a	20	n/a	n/a	n/a	n/a
3177254	PROB	n/a	LTP310	ltpFR2	3	n/a	n/a	n/a	20	17	1	8	8
3179105	PROB	n/a	LTP310	ltpFR2	3	n/a	n/a	n/a	20	15	6	7	2
3181190	PROB	n/a	LTP310	ltpFR2	3	n/a	n/a	n/a	20	13	9	3	1
3182625	PROB	n/a	LTP310	ltpFR2	3	n/a	n/a	n/a	20	21	6	9	6
3184259	PROB	n/a	LTP310	ltpFR2	3	n/a	n/a	n/a	20	18	7	9	7
3185777	PROB	n/a	LTP310	ltpFR2	3	n/a	n/a	n/a	20	14	5	1	8
3188279	PROB	n/a	LTP310	ltpFR2	3	n/a	n/a	n/a	20	16	3	7	6
3189780	PROB	n/a	LTP310	ltpFR2	3	n/a	n/a	n/a	20	18	6	5	7
3191215	PROB	n/a	LTP310	ltpFR2	3	n/a	n/a	n/a	20	11	7	3	1
3192366	PROB	n/a	LTP310	ltpFR2	3	n/a	n/a	n/a	20	18	3	9	6
3193850	PROB	n/a	LTP310	ltpFR2	3	n/a	n/a	n/a	20	6	6	4	6
3195218	PROB	n/a	LTP310	ltpFR2	3	n/a	n/a	n/a	20	12	2	2	8
3197103	PROB	n/a	LTP310	ltpFR2	3	n/a	n/a	n/a	20	14	7	3	4
3198271	PROB	n/a	LTP310	ltpFR2	3	n/a	n/a	n/a	20	18	8	8	2
3200035	STOP	n/a	LTP310	ltpFR2	3	n/a	n/a	n/a	20	n/a	n/a	n/a	n/a
3202103	WORD	wordpools/wasnorm_wordpool_576.txt	LTP310	ltpFR2	3	14	ACTRESS	6	n/a	n/a	0	0	0
3204653	WORD	wordpools/wasnorm_wordpool_576.txt	LTP310	ltpFR2	3	14	MARKET	871	n/a	n/a	0	0	0
3207313	WORD	wordpools/wasnorm_wordpool_576.txt	LTP310	ltpFR2	3	14	HIGHWAY	707	n/a	n/a	0	0	0
3210075	WORD	wordpools/wasnorm_wordpool_576.txt	LTP310	ltpFR2	3	14	GRAVEL	659	n/a	n/a	0	0	0
3212845	WORD	wordpools/wasnorm_wordpool_576.txt	LTP310	ltpFR2	3	14	SWIMMER	1420	n/a	n/a	0	0	0
3215335	WORD	wordpools/wasnorm_wordpool_576.txt	LTP310	ltpFR2	3	14	SCALLOP	1242	n/a	n/a	0	0	0
3217865	WORD	wordpools/wasnorm_wordpool_576.txt	LTP310	ltpFR2	3	14	PORK	1108	n/a	n/a	0	0	0
3220435	WORD	wordpools/wasnorm_wordpool_576.txt	LTP310	ltpFR2	3	14	ACTOR	5	n/a	n/a	0	0	0
3223075	WORD	wordpools/wasnorm_wordpool_576.txt	LTP310	ltpFR2	3	14	COD	340	n/a	n/a	0	0	0
3225827	WORD	wordpools/wasnorm_wordpool_576.txt	LTP310	ltpFR2	3	14	DONOR	485	n/a	n/a	0	0	0
3228413	WORD	wordpools/wasnorm_wordpool_576.txt	LTP310	ltpFR2	3	14	COLONEL	348	n/a	n/a	0	0	0
3231128	WORD	wordpools/wasnorm_wordpool_576.txt	LTP310	ltpFR2	3	14	VAGRANT	1544	n/a	n/a	0	0	0
3233745	WORD	wordpools/wasnorm_wordpool_576.txt	LTP310	ltpFR2	3	14	CHURCH	307	n/a	n/a	0	0	0
3236564	WORD	wordpools/wasnorm_wordpool_576.txt	LTP310	ltpFR2	3	14	BACON	67	n/a	n/a	0	0	0
3239152	WORD	wordpools/wasnorm_wordpool_576.txt	LTP310	ltpFR2	3	14	SUITCASE	1403	n/a	n/a	0	0	0
3241836	WORD	wordpools/wasnorm_wordpool_576.txt	LTP310	ltpFR2	3	14	QUEEN	1149	n/a	n/a	0	0	0
3244555	WORD	wordpools/wasnorm_wordpool_576.txt	LTP310	ltpFR2	3	14	SHORTCAKE	1292	n/a	n/a	0	0	0
3247162	WORD	wordpools/wasnorm_wordpool_576.txt	LTP310	ltpFR2	3	14	APPLE	33	n/a	n/a	0	0	0
3249643	WORD	wordpools/wasnorm_wordpool_576.txt	LTP310	ltpFR2	3	14	SHOVEL	1295	n/a	n/a	0	0	0
3252149	WORD	wordpools/wasnorm_wordpool_576.txt	LTP310	ltpFR2	3	14	CRATER	400	n/a	n/a	0	0	0
3254848	WORD	wordpools/wasnorm_wordpool_576.txt	LTP310	ltpFR2	3	14	RACKET	1155	n/a	n/a	0	0	0
3257633	WORD	wordpools/wasnorm_wordpool_576.txt	LTP310	ltpFR2	3	14	BLENDER	136	n/a	n/a	0	0	0
3260405	WORD	wordpools/wasnorm_wordpool_576.txt	LTP310	ltpFR2	3	14	PADDLE	1000	n/a	n/a	0	0	0
3263223	WORD	wordpools/wasnorm_wordpool_576.txt	LTP310	ltpFR2	3	14	GYMNAST	675	n/a	n/a	0	0	0
3264841	START	n/a	LTP310	ltpFR2	3	n/a	n/a	n/a	21	n/a	n/a	n/a	n/a
3265732	DISTRACTOR	n/a	LTP310	ltpFR2	3	14	n/a	n/a	n/a	n/a	0	0	0
3265740	PROB	n/a	LTP310	ltpFR2	3	n/a	n/a	n/a	21	15	4	4	7
3267693	PROB	n/a	LTP310	ltpFR2	3	n/a	n/a	n/a	21	8	3	2	3
3269396	PROB	n/a	LTP310	ltpFR2	3	n/a	n/a	n/a	21	15	7	2	6
3270763	PROB	n/a	LTP310	ltpFR2	3	n/a	n/a	n/a	21	10	1	5	4
3272062	PROB	n/a	LTP310	ltpFR2	3	n/a	n/a	n/a	21	18	9	3	6
3274467	PROB	n/a	LTP310	ltpFR2	3	n/a	n/a	n/a	21	14	2	6	6
3276167	PROB	n/a	LTP310	ltpFR2	3	n/a	n/a	n/a	21	11	5	3	3
3277935	PROB	n/a	LTP310	ltpFR2	3	n/a	n/a	n/a	21	8	3	2	3
3279404	PROB	n/a	LTP310	ltpFR2	3	n/a	n/a	n/a	21	9	6	2	1
3280803	PROB	n/a	LTP310	ltpFR2	3	n/a	n/a	n/a	21	16	5	4	7
3283139	PROB	n/a	LTP310	ltpFR2	3	n/a	n/a	n/a	21	18	4	9	5
3285056	PROB	n/a	LTP310	ltpFR2	3	n/a	n/a	n/a	21	17	2	9	6
3286658	PROB	n/a	LTP310	ltpFR2	3	n/a	n/a	n/a	21	18	6	7	5
3288046	STOP	n/a	LTP310	ltpFR2	3	n/a	n/a	n/a	21	n/a	n/a	n/a	n/a
3290612	REC_START	n/a	LTP310	ltpFR2	3	14	n/a	n/a	n/a	n/a	0	0	0
3290612	REC_WORD_VV	wordpools/wasnorm_wordpool_576.txt	LTP310	ltpFR2	3	14	<>	-1	n/a	n/a	0	0	0
3293158	REC_WORD	wordpools/wasnorm_wordpool_576.txt	LTP310	ltpFR2	3	14	ACTRESS	6	n/a	n/a	0	0	0
3294525	REC_WORD	wordpools/wasnorm_wordpool_576.txt	LTP310	ltpFR2	3	14	MARKET	871	n/a	n/a	0	0	0
3295859	REC_WORD	wordpools/wasnorm_wordpool_576.txt	LTP310	ltpFR2	3	14	HIGHWAY	707	n/a	n/a	0	0	0
3297487	REC_WORD	wordpools/wasnorm_wordpool_576.txt	LTP310	ltpFR2	3	14	GRAVEL	659	n/a	n/a	0	0	0
3298713	REC_WORD	wordpools/wasnorm_wordpool_576.txt	LTP310	ltpFR2	3	14	SHOVEL	1295	n/a	n/a	0	0	0
3303752	REC_WORD	wordpools/wasnorm_wordpool_576.txt	LTP310	ltpFR2	3	14	ACTOR	5	n/a	n/a	0	0	0
3304947	REC_WORD	wordpools/wasnorm_wordpool_576.txt	LTP310	ltpFR2	3	14	SWIMMER	1420	n/a	n/a	0	0	0
3306899	REC_WORD	wordpools/wasnorm_wordpool_576.txt	LTP310	ltpFR2	3	14	PORK	1108	n/a	n/a	0	0	0
3308043	REC_WORD	wordpools/wasnorm_wordpool_576.txt	LTP310	ltpFR2	3	14	BACON	67	n/a	n/a	0	0	0
3309262	REC_WORD	wordpools/wasnorm_wordpool_576.txt	LTP310	ltpFR2	3	14	SCALLOP	1242	n/a	n/a	0	0	0
3310840	REC_WORD	wordpools/wasnorm_wordpool_576.txt	LTP310	ltpFR2	3	14	APPLE	33	n/a	n/a	0	0	0
3312242	REC_WORD	wordpools/wasnorm_wordpool_576.txt	LTP310	ltpFR2	3	14	SHORTCAKE	1292	n/a	n/a	0	0	0
3314452	REC_WORD	wordpools/wasnorm_wordpool_576.txt	LTP310	ltpFR2	3	14	DONOR	485	n/a	n/a	0	0	0
3315983	REC_WORD	wordpools/wasnorm_wordpool_576.txt	LTP310	ltpFR2	3	14	COLONEL	348	n/a	n/a	0	0	0
3317724	REC_WORD	wordpools/wasnorm_wordpool_576.txt	LTP310	ltpFR2	3	14	CHURCH	307	n/a	n/a	0	0	0
3320028	REC_WORD	wordpools/wasnorm_wordpool_576.txt	LTP310	ltpFR2	3	14	SUITCASE	1403	n/a	n/a	0	0	0
3321952	REC_WORD	wordpools/wasnorm_wordpool_576.txt	LTP310	ltpFR2	3	14	QUEEN	1149	n/a	n/a	0	0	0
3325340	REC_WORD	wordpools/wasnorm_wordpool_576.txt	LTP310	ltpFR2	3	14	CRATER	400	n/a	n/a	0	0	0
3381042	DISTRACTOR	n/a	LTP310	ltpFR2	3	15	n/a	n/a	n/a	n/a	0	0	0
3381042	START	n/a	LTP310	ltpFR2	3	n/a	n/a	n/a	22	n/a	n/a	n/a	n/a
3381056	PROB	n/a	LTP310	ltpFR2	3	n/a	n/a	n/a	22	22	8	7	7
3383603	PROB	n/a	LTP310	ltpFR2	3	n/a	n/a	n/a	22	10	1	3	6
3384953	PROB	n/a	LTP310	ltpFR2	3	n/a	n/a	n/a	22	14	4	8	2
3386554	PROB	n/a	LTP310	ltpFR2	3	n/a	n/a	n/a	22	16	8	5	3
3389007	PROB	n/a	LTP310	ltpFR2	3	n/a	n/a	n/a	22	22	8	7	7
3390557	PROB	n/a	LTP310	ltpFR2	3	n/a	n/a	n/a	22	11	3	1	7
3391943	PROB	n/a	LTP310	ltpFR2	3	n/a	n/a	n/a	22	11	6	3	2
3393243	PROB	n/a	LTP310	ltpFR2	3	n/a	n/a	n/a	22	14	3	4	7
3394495	PROB	n/a	LTP310	ltpFR2	3	n/a	n/a	n/a	22	14	1	8	5
3395845	PROB	n/a	LTP310	ltpFR2	3	n/a	n/a	n/a	22	17	8	1	8
3397664	PROB	n/a	LTP310	ltpFR2	3	n/a	n/a	n/a	22	15	8	3	4
3399782	PROB	n/a	LTP310	ltpFR2	3	n/a	n/a	n/a	22	13	3	6	4
3401817	PROB	n/a	LTP310	ltpFR2	3	n/a	n/a	n/a	22	8	5	1	2
3403084	PROB	n/a	LTP310	ltpFR2	3	n/a	n/a	n/a	22	8	3	2	3
3404739	STOP	n/a	LTP310	ltpFR2	3	n/a	n/a	n/a	22	n/a	n/a	n/a	n/a
3406198	WORD	wordpools/wasnorm_wordpool_576.txt	LTP310	ltpFR2	3	15	CHAPEL	280	n/a	n/a	0	0	0
3408849	WORD	wordpools/wasnorm_wordpool_576.txt	LTP310	ltpFR2	3	15	CASKET	255	n/a	n/a	0	0	0
3411626	WORD	wordpools/wasnorm_wordpool_576.txt	LTP310	ltpFR2	3	15	POSSUM	1112	n/a	n/a	0	0	0
3414145	WORD	wordpools/wasnorm_wordpool_576.txt	LTP310	ltpFR2	3	15	BANKER	84	n/a	n/a	0	0	0
3416947	WORD	wordpools/wasnorm_wordpool_576.txt	LTP310	ltpFR2	3	15	BRACES	164	n/a	n/a	0	0	0
3419708	WORD	wordpools/wasnorm_wordpool_576.txt	LTP310	ltpFR2	3	15	DUST	508	n/a	n/a	0	0	0
3422452	WORD	wordpools/wasnorm_wordpool_576.txt	LTP310	ltpFR2	3	15	HEADBAND	696	n/a	n/a	0	0	0
3425131	WORD	wordpools/wasnorm_wordpool_576.txt	LTP310	ltpFR2	3	15	CHAUFFEUR	283	n/a	n/a	0	0	0
3427882	WORD	wordpools/wasnorm_wordpool_576.txt	LTP310	ltpFR2	3	15	BLACKBOARD	133	n/a	n/a	0	0	0
3430534	WORD	wordpools/wasnorm_wordpool_576.txt	LTP310	ltpFR2	3	15	PIGEON	1065	n/a	n/a	0	0	0
3433228	WORD	wordpools/wasnorm_wordpool_576.txt	LTP310	ltpFR2	3	15	VALLEY	1545	n/a	n/a	0	0	0
3435812	WORD	wordpools/wasnorm_wordpool_576.txt	LTP310	ltpFR2	3	15	CANYON	235	n/a	n/a	0	0	0
3438242	WORD	wordpools/wasnorm_wordpool_576.txt	LTP310	ltpFR2	3	15	DRESS	495	n/a	n/a	0	0	0
3440726	WORD	wordpools/wasnorm_wordpool_576.txt	LTP310	ltpFR2	3	15	SHORTS	1293	n/a	n/a	0	0	0
3443263	WORD	wordpools/wasnorm_wordpool_576.txt	LTP310	ltpFR2	3	15	WHISTLE	1606	n/a	n/a	0	0	0
3445848	WORD	wordpools/wasnorm_wordpool_576.txt	LTP310	ltpFR2	3	15	BLUEPRINT	142	n/a	n/a	0	0	0
3448633	WORD	wordpools/wasnorm_wordpool_576.txt	LTP310	ltpFR2	3	15	BOARD	143	n/a	n/a	0	0	0
3451170	WORD	wordpools/wasnorm_wordpool_576.txt	LTP310	ltpFR2	3	15	TEMPLE	1448	n/a	n/a	0	0	0
3453604	WORD	wordpools/wasnorm_wordpool_576.txt	LTP310	ltpFR2	3	15	WRENCH	1625	n/a	n/a	0	0	0
3456307	WORD	wordpools/wasnorm_wordpool_576.txt	LTP310	ltpFR2	3	15	PASTRY	1022	n/a	n/a	0	0	0
3459042	WORD	wordpools/wasnorm_wordpool_576.txt	LTP310	ltpFR2	3	15	FRIAR	605	n/a	n/a	0	0	0
3461611	WORD	wordpools/wasnorm_wordpool_576.txt	LTP310	ltpFR2	3	15	CHEMIST	292	n/a	n/a	0	0	0
3464282	WORD	wordpools/wasnorm_wordpool_576.txt	LTP310	ltpFR2	3	15	FRAME	600	n/a	n/a	0	0	0
3467017	WORD	wordpools/wasnorm_wordpool_576.txt	LTP310	ltpFR2	3	15	GAVEL	627	n/a	n/a	0	0	0
3468623	START	n/a	LTP310	ltpFR2	3	n/a	n/a	n/a	23	n/a	n/a	n/a	n/a
3469821	DISTRACTOR	n/a	LTP310	ltpFR2	3	15	n/a	n/a	n/a	n/a	0	0	0
3469836	PROB	n/a	LTP310	ltpFR2	3	n/a	n/a	n/a	23	16	6	6	4
3471453	PROB	n/a	LTP310	ltpFR2	3	n/a	n/a	n/a	23	10	3	2	5
3472708	PROB	n/a	LTP310	ltpFR2	3	n/a	n/a	n/a	23	18	9	2	7
3474177	PROB	n/a	LTP310	ltpFR2	3	n/a	n/a	n/a	23	16	8	6	9
3476391	PROB	n/a	LTP310	ltpFR2	3	n/a	n/a	n/a	23	15	8	6	5
3478342	PROB	n/a	LTP310	ltpFR2	3	n/a	n/a	n/a	23	17	6	8	3
3480115	PROB	n/a	LTP310	ltpFR2	3	n/a	n/a	n/a	23	12	2	1	9
3481995	PROB	n/a	LTP310	ltpFR2	3	n/a	n/a	n/a	23	15	1	5	9
3483482	PROB	n/a	LTP310	ltpFR2	3	n/a	n/a	n/a	23	19	2	9	8
3484980	PROB	n/a	LTP310	ltpFR2	3	n/a	n/a	n/a	23	19	7	3	9
3486335	PROB	n/a	LTP310	ltpFR2	3	n/a	n/a	n/a	23	16	6	4	6
3487553	PROB	n/a	LTP310	ltpFR2	3	n/a	n/a	n/a	23	18	6	9	3
3489322	PROB	n/a	LTP310	ltpFR2	3	n/a	n/a	n/a	23	17	2	8	7
3491375	STOP	n/a	LTP310	ltpFR2	3	n/a	n/a	n/a	23	n/a	n/a	n/a	n/a
3494590	REC_START	n/a	LTP310	ltpFR2	3	15	n/a	n/a	n/a	n/a	0	0	0
3497876	REC_WORD	wordpools/wasnorm_wordpool_576.txt	LTP310	ltpFR2	3	15	CHAPEL	280	n/a	n/a	0	0	0
3499178	REC_WORD	wordpools/wasnorm_wordpool_576.txt	LTP310	ltpFR2	3	15	CASKET	255	n/a	n/a	0	0	0
3501803	REC_WORD	wordpools/wasnorm_wordpool_576.txt	LTP310	ltpFR2	3	15	POSSUM	1112	n/a	n/a	0	0	0
3502895	REC_WORD	wordpools/wasnorm_wordpool_576.txt	LTP310	ltpFR2	3	15	BANKER	84	n/a	n/a	0	0	0
3504655	REC_WORD	wordpools/wasnorm_wordpool_576.txt	LTP310	ltpFR2	3	15	BRACES	164	n/a	n/a	0	0	0
3506361	REC_WORD	wordpools/wasnorm_wordpool_576.txt	LTP310	ltpFR2	3	15	DUST	508	n/a	n/a	0	0	0
3507675	REC_WORD	wordpools/wasnorm_wordpool_576.txt	LTP310	ltpFR2	3	15	HEADBAND	696	n/a	n/a	0	0	0
3509309	REC_WORD	wordpools/wasnorm_wordpool_576.txt	LTP310	ltpFR2	3	15	CHAUFFEUR	283	n/a	n/a	0	0	0
3511256	REC_WORD	wordpools/wasnorm_wordpool_576.txt	LTP310	ltpFR2	3	15	PIGEON	1065	n/a	n/a	0	0	0
3512929	REC_WORD	wordpools/wasnorm_wordpool_576.txt	LTP310	ltpFR2	3	15	BLACKBOARD	133	n/a	n/a	0	0	0
3514593	REC_WORD	wordpools/wasnorm_wordpool_576.txt	LTP310	ltpFR2	3	15	BLUEPRINT	142	n/a	n/a	0	0	0
3516052	REC_WORD	wordpools/wasnorm_wordpool_576.txt	LTP310	ltpFR2	3	15	CANYON	235	n/a	n/a	0	0	0
3517484	REC_WORD	wordpools/wasnorm_wordpool_576.txt	LTP310	ltpFR2	3	15	VALLEY	1545	n/a	n/a	0	0	0
3520972	REC_WORD	wordpools/wasnorm_wordpool_576.txt	LTP310	ltpFR2	3	15	FRAME	600	n/a	n/a	0	0	0
3522563	REC_WORD	wordpools/wasnorm_wordpool_576.txt	LTP310	ltpFR2	3	15	WHISTLE	1606	n/a	n/a	0	0	0
3527137	REC_WORD	wordpools/wasnorm_wordpool_576.txt	LTP310	ltpFR2	3	15	WRENCH	1625	n/a	n/a	0	0	0
3530599	REC_WORD	wordpools/wasnorm_wordpool_576.txt	LTP310	ltpFR2	3	15	FRIAR	605	n/a	n/a	0	0	0
3532091	REC_WORD	wordpools/wasnorm_wordpool_576.txt	LTP310	ltpFR2	3	15	PASTRY	1022	n/a	n/a	0	0	0
3533389	REC_WORD	wordpools/wasnorm_wordpool_576.txt	LTP310	ltpFR2	3	15	CHEMIST	292	n/a	n/a	0	0	0
3585020	DISTRACTOR	n/a	LTP310	ltpFR2	3	16	n/a	n/a	n/a	n/a	0	0	0
3585020	START	n/a	LTP310	ltpFR2	3	n/a	n/a	n/a	24	n/a	n/a	n/a	n/a
3585035	PROB	n/a	LTP310	ltpFR2	3	n/a	n/a	n/a	24	11	2	3	6
3586915	PROB	n/a	LTP310	ltpFR2	3	n/a	n/a	n/a	24	14	4	8	2
3588350	PROB	n/a	LTP310	ltpFR2	3	n/a	n/a	n/a	24	11	4	1	6
3589634	PROB	n/a	LTP310	ltpFR2	3	n/a	n/a	n/a	24	15	5	5	5
3590786	PROB	n/a	LTP310	ltpFR2	3	n/a	n/a	n/a	24	19	7	5	7
3592454	PROB	n/a	LTP310	ltpFR2	3	n/a	n/a	n/a	24	5	2	1	2
3593987	PROB	n/a	LTP310	ltpFR2	3	n/a	n/a	n/a	24	17	5	3	9
3595640	PROB	n/a	LTP310	ltpFR2	3	n/a	n/a	n/a	24	18	6	4	8
3596890	PROB	n/a	LTP310	ltpFR2	3	n/a	n/a	n/a	24	9	1	5	3
3598460	PROB	n/a	LTP310	ltpFR2	3	n/a	n/a	n/a	24	15	3	8	3
3600643	PROB	n/a	LTP310	ltpFR2	3	n/a	n/a	n/a	24	15	3	4	8
3602296	PROB	n/a	LTP310	ltpFR2	3	n/a	n/a	n/a	24	18	2	9	7
3603714	PROB	n/a	LTP310	ltpFR2	3	n/a	n/a	n/a	24	16	1	7	8
3604997	PROB	n/a	LTP310	ltpFR2	3	n/a	n/a	n/a	24	7	3	2	2
3606299	PROB	n/a	LTP310	ltpFR2	3	n/a	n/a	n/a	24	12	6	2	4
3607571	STOP	n/a	LTP310	ltpFR2	3	n/a	n/a	n/a	24	n/a	n/a	n/a	n/a
3610069	WORD	wordpools/wasnorm_wordpool_576.txt	LTP310	ltpFR2	3	16	PEBBLE	1035	n/a	n/a	0	0	0
3612743	WORD	wordpools/wasnorm_wordpool_576.txt	LTP310	ltpFR2	3	16	GAZELLE	628	n/a	n/a	0	0	0
3615556	WORD	wordpools/wasnorm_wordpool_576.txt	LTP310	ltpFR2	3	16	TUNNEL	1519	n/a	n/a	0	0	0
3618166	WORD	wordpools/wasnorm_wordpool_576.txt	LTP310	ltpFR2	3	16	BURGLAR	200	n/a	n/a	0	0	0
3620767	WORD	wordpools/wasnorm_wordpool_576.txt	LTP310	ltpFR2	3	16	ROBBER	1197	n/a	n/a	0	0	0
3623287	WORD	wordpools/wasnorm_wordpool_576.txt	LTP310	ltpFR2	3	16	ANTLER	29	n/a	n/a	0	0	0
3625781	WORD	wordpools/wasnorm_wordpool_576.txt	LTP310	ltpFR2	3	16	FRANCE	601	n/a	n/a	0	0	0
3628318	WORD	wordpools/wasnorm_wordpool_576.txt	LTP310	ltpFR2	3	16	RIVER	1194	n/a	n/a	0	0	0
3631086	WORD	wordpools/wasnorm_wordpool_576.txt	LTP310	ltpFR2	3	16	FLOWER	584	n/a	n/a	0	0	0
3633671	WORD	wordpools/wasnorm_wordpool_576.txt	LTP310	ltpFR2	3	16	PISTON	1076	n/a	n/a	0	0	0
3636341	WORD	wordpools/wasnorm_wordpool_576.txt	LTP310	ltpFR2	3	16	GROUND	666	n/a	n/a	0	0	0
3639059	WORD	wordpools/wasnorm_wordpool_576.txt	LTP310	ltpFR2	3	16	TROMBONE	1508	n/a	n/a	0	0	0
3641577	WORD	wordpools/wasnorm_wordpool_576.txt	LTP310	ltpFR2	3	16	CORAL	378	n/a	n/a	0	0	0
3644330	WORD	wordpools/wasnorm_wordpool_576.txt	LTP310	ltpFR2	3	16	PARTNER	1017	n/a	n/a	0	0	0
3647007	WORD	wordpools/wasnorm_wordpool_576.txt	LTP310	ltpFR2	3	16	SKIRT	1319	n/a	n/a	0	0	0
3649625	WORD	wordpools/wasnorm_wordpool_576.txt	LTP310	ltpFR2	3	16	PICTURE	1061	n/a	n/a	0	0	0
3652437	WORD	wordpools/wasnorm_wordpool_576.txt	LTP310	ltpFR2	3	16	GIFT	635	n/a	n/a	0	0	0
3654997	WORD	wordpools/wasnorm_wordpool_576.txt	LTP310	ltpFR2	3	16	WINDOW	1611	n/a	n/a	0	0	0
3657607	WORD	wordpools/wasnorm_wordpool_576.txt	LTP310	ltpFR2	3	16	SUNRISE	1407	n/a	n/a	0	0	0
3660034	WORD	wordpools/wasnorm_wordpool_576.txt	LTP310	ltpFR2	3	16	SPOUSE	1358	n/a	n/a	0	0	0
3662687	WORD	wordpools/wasnorm_wordpool_576.txt	LTP310	ltpFR2	3	16	BALLOON	75	n/a	n/a	0	0	0
3665381	WORD	wordpools/wasnorm_wordpool_576.txt	LTP310	ltpFR2	3	16	SODA	1341	n/a	n/a	0	0	0
3668109	WORD	wordpools/wasnorm_wordpool_576.txt	LTP310	ltpFR2	3	16	ROBOT	1200	n/a	n/a	0	0	0
3670611	WORD	wordpools/wasnorm_wordpool_576.txt	LTP310	ltpFR2	3	16	SHRUB	1299	n/a	n/a	0	0	0
3672220	START	n/a	LTP310	ltpFR2	3	n/a	n/a	n/a	25	n/a	n/a	n/a	n/a
3673091	DISTRACTOR	n/a	LTP310	ltpFR2	3	16	n/a	n/a	n/a	n/a	0	0	0
3673097	PROB	n/a	LTP310	ltpFR2	3	n/a	n/a	n/a	25	18	4	6	8
3674720	PROB	n/a	LTP310	ltpFR2	3	n/a	n/a	n/a	25	10	5	1	4
3676521	PROB	n/a	LTP310	ltpFR2	3	n/a	n/a	n/a	25	11	6	4	1
3677739	PROB	n/a	LTP310	ltpFR2	3	n/a	n/a	n/a	25	13	2	3	8
3679374	PROB	n/a	LTP310	ltpFR2	3	n/a	n/a	n/a	25	18	3	9	6
3680826	PROB	n/a	LTP310	ltpFR2	3	n/a	n/a	n/a	25	9	1	6	2
3682443	PROB	n/a	LTP310	ltpFR2	3	n/a	n/a	n/a	25	12	6	1	5
3684379	PROB	n/a	LTP310	ltpFR2	3	n/a	n/a	n/a	25	11	6	1	4
3686181	PROB	n/a	LTP310	ltpFR2	3	n/a	n/a	n/a	25	15	6	5	4
3687513	PROB	n/a	LTP310	ltpFR2	3	n/a	n/a	n/a	25	13	9	8	6
3689132	PROB	n/a	LTP310	ltpFR2	3	n/a	n/a	n/a	25	8	4	3	1
3690749	PROB	n/a	LTP310	ltpFR2	3	n/a	n/a	n/a	25	13	5	5	3
3692485	PROB	n/a	LTP310	ltpFR2	3	n/a	n/a	n/a	25	9	1	6	2
3693702	PROB	n/a	LTP310	ltpFR2	3	n/a	n/a	n/a	25	19	7	4	8
3695847	STOP	n/a	LTP310	ltpFR2	3	n/a	n/a	n/a	25	n/a	n/a	n/a	n/a
3698023	REC_START	n/a	LTP310	ltpFR2	3	16	n/a	n/a	n/a	n/a	0	0	0
3700991	REC_WORD	wordpools/wasnorm_wordpool_576.txt	LTP310	ltpFR2	3	16	GAZELLE	628	n/a	n/a	0	0	0
3702044	REC_WORD	wordpools/wasnorm_wordpool_576.txt	LTP310	ltpFR2	3	16	PEBBLE	1035	n/a	n/a	0	0	0
3703303	REC_WORD	wordpools/wasnorm_wordpool_576.txt	LTP310	ltpFR2	3	16	TUNNEL	1519	n/a	n/a	0	0	0
3704611	REC_WORD	wordpools/wasnorm_wordpool_576.txt	LTP310	ltpFR2	3	16	ROBBER	1197	n/a	n/a	0	0	0
3706242	REC_WORD	wordpools/wasnorm_wordpool_576.txt	LTP310	ltpFR2	3	16	BURGLAR	200	n/a	n/a	0	0	0
3708019	REC_WORD	wordpools/wasnorm_wordpool_576.txt	LTP310	ltpFR2	3	16	ANTLER	29	n/a	n/a	0	0	0
3709270	REC_WORD	wordpools/wasnorm_wordpool_576.txt	LTP310	ltpFR2	3	16	FRANCE	601	n/a	n/a	0	0	0
3710788	REC_WORD	wordpools/wasnorm_wordpool_576.txt	LTP310	ltpFR2	3	16	RIVER	1194	n/a	n/a	0	0	0
3712055	REC_WORD	wordpools/wasnorm_wordpool_576.txt	LTP310	ltpFR2	3	16	FLOWER	584	n/a	n/a	0	0	0
3713633	REC_WORD	wordpools/wasnorm_wordpool_576.txt	LTP310	ltpFR2	3	16	PISTON	1076	n/a	n/a	0	0	0
3714909	REC_WORD	wordpools/wasnorm_wordpool_576.txt	LTP310	ltpFR2	3	16	CORAL	378	n/a	n/a	0	0	0
3715932	REC_WORD	wordpools/wasnorm_wordpool_576.txt	LTP310	ltpFR2	3	16	TROMBONE	1508	n/a	n/a	0	0	0
3717643	REC_WORD	wordpools/wasnorm_wordpool_576.txt	LTP310	ltpFR2	3	16	PARTNER	1017	n/a	n/a	0	0	0
3719181	REC_WORD	wordpools/wasnorm_wordpool_576.txt	LTP310	ltpFR2	3	16	SKIRT	1319	n/a	n/a	0	0	0
3720895	REC_WORD	wordpools/wasnorm_wordpool_576.txt	LTP310	ltpFR2	3	16	PICTURE	1061	n/a	n/a	0	0	0
3723941	REC_WORD	wordpools/wasnorm_wordpool_576.txt	LTP310	ltpFR2	3	16	GIFT	635	n/a	n/a	0	0	0
3725146	REC_WORD	wordpools/wasnorm_wordpool_576.txt	LTP310	ltpFR2	3	16	SPOUSE	1358	n/a	n/a	0	0	0
3727180	REC_WORD	wordpools/wasnorm_wordpool_576.txt	LTP310	ltpFR2	3	16	WINDOW	1611	n/a	n/a	0	0	0
3728832	REC_WORD	wordpools/wasnorm_wordpool_576.txt	LTP310	ltpFR2	3	16	SUNSET	1408	n/a	n/a	0	0	0
3737181	REC_WORD	wordpools/wasnorm_wordpool_576.txt	LTP310	ltpFR2	3	16	BALLOON	75	n/a	n/a	0	0	0
3738187	REC_WORD	wordpools/wasnorm_wordpool_576.txt	LTP310	ltpFR2	3	16	SODA	1341	n/a	n/a	0	0	0
3739732	REC_WORD	wordpools/wasnorm_wordpool_576.txt	LTP310	ltpFR2	3	16	ROBOT	1200	n/a	n/a	0	0	0
3774568	REST_REWET	n/a	LTP310	ltpFR2	3	16	n/a	n/a	n/a	n/a	0	0	0
4214588	WORD	wordpools/wasnorm_wordpool_576.txt	LTP310	ltpFR2	3	17	MUMMY	932	n/a	n/a	0	0	0
4217054	WORD	wordpools/wasnorm_wordpool_576.txt	LTP310	ltpFR2	3	17	SISTER	1312	n/a	n/a	0	0	0
4219706	WORD	wordpools/wasnorm_wordpool_576.txt	LTP310	ltpFR2	3	17	WARDROBE	1587	n/a	n/a	0	0	0
4222293	WORD	wordpools/wasnorm_wordpool_576.txt	LTP310	ltpFR2	3	17	HAMPER	682	n/a	n/a	0	0	0
4224878	WORD	wordpools/wasnorm_wordpool_576.txt	LTP310	ltpFR2	3	17	SIBLING	1301	n/a	n/a	0	0	0
4227397	WORD	wordpools/wasnorm_wordpool_576.txt	LTP310	ltpFR2	3	17	LIGHTNING	820	n/a	n/a	0	0	0
4229966	WORD	wordpools/wasnorm_wordpool_576.txt	LTP310	ltpFR2	3	17	ROCKET	1202	n/a	n/a	0	0	0
4232402	WORD	wordpools/wasnorm_wordpool_576.txt	LTP310	ltpFR2	3	17	KITCHEN	778	n/a	n/a	0	0	0
4235122	WORD	wordpools/wasnorm_wordpool_576.txt	LTP310	ltpFR2	3	17	HOOD	714	n/a	n/a	0	0	0
4237739	WORD	wordpools/wasnorm_wordpool_576.txt	LTP310	ltpFR2	3	17	BUBBLE	183	n/a	n/a	0	0	0
4240242	WORD	wordpools/wasnorm_wordpool_576.txt	LTP310	ltpFR2	3	17	CRUTCH	417	n/a	n/a	0	0	0
4242977	WORD	wordpools/wasnorm_wordpool_576.txt	LTP310	ltpFR2	3	17	MARROW	872	n/a	n/a	0	0	0
4245563	WORD	wordpools/wasnorm_wordpool_576.txt	LTP310	ltpFR2	3	17	THIEF	1456	n/a	n/a	0	0	0
4248232	WORD	wordpools/wasnorm_wordpool_576.txt	LTP310	ltpFR2	3	17	SURVEY	1414	n/a	n/a	0	0	0
4251017	WORD	wordpools/wasnorm_wordpool_576.txt	LTP310	ltpFR2	3	17	SPACE	1345	n/a	n/a	0	0	0
4253802	WORD	wordpools/wasnorm_wordpool_576.txt	LTP310	ltpFR2	3	17	BROTHER	179	n/a	n/a	0	0	0
4256388	WORD	wordpools/wasnorm_wordpool_576.txt	LTP310	ltpFR2	3	17	DRIVER	499	n/a	n/a	0	0	0
4258990	WORD	wordpools/wasnorm_wordpool_576.txt	LTP310	ltpFR2	3	17	DINER	467	n/a	n/a	0	0	0
4261809	WORD	wordpools/wasnorm_wordpool_576.txt	LTP310	ltpFR2	3	17	BRANCH	168	n/a	n/a	0	0	0
4264295	WORD	wordpools/wasnorm_wordpool_576.txt	LTP310	ltpFR2	3	17	MAPLE	866	n/a	n/a	0	0	0
4266896	WORD	wordpools/wasnorm_wordpool_576.txt	LTP310	ltpFR2	3	17	MILDEW	893	n/a	n/a	0	0	0
4269682	WORD	wordpools/wasnorm_wordpool_576.txt	LTP310	ltpFR2	3	17	PEANUT	1032	n/a	n/a	0	0	0
4272318	WORD	wordpools/wasnorm_wordpool_576.txt	LTP310	ltpFR2	3	17	NECKLACE	940	n/a	n/a	0	0	0
4275086	WORD	wordpools/wasnorm_wordpool_576.txt	LTP310	ltpFR2	3	17	PARENT	1013	n/a	n/a	0	0	0
4276705	START	n/a	LTP310	ltpFR2	3	n/a	n/a	n/a	26	n/a	n/a	n/a	n/a
4277552	DISTRACTOR	n/a	LTP310	ltpFR2	3	17	n/a	n/a	n/a	n/a	0	0	0
4277557	PROB	n/a	LTP310	ltpFR2	3	n/a	n/a	n/a	26	25	7	9	9
4280089	PROB	n/a	LTP310	ltpFR2	3	n/a	n/a	n/a	26	9	3	2	4
4282925	PROB	n/a	LTP310	ltpFR2	3	n/a	n/a	n/a	26	22	8	5	9
4284727	PROB	n/a	LTP310	ltpFR2	3	n/a	n/a	n/a	26	15	4	3	8
4286795	PROB	n/a	LTP310	ltpFR2	3	n/a	n/a	n/a	26	16	7	1	8
4288414	PROB	n/a	LTP310	ltpFR2	3	n/a	n/a	n/a	26	13	3	5	5
4290915	PROB	n/a	LTP310	ltpFR2	3	n/a	n/a	n/a	26	17	7	3	7
4292283	PROB	n/a	LTP310	ltpFR2	3	n/a	n/a	n/a	26	13	9	2	2
4293850	PROB	n/a	LTP310	ltpFR2	3	n/a	n/a	n/a	26	21	3	9	9
4295536	PROB	n/a	LTP310	ltpFR2	3	n/a	n/a	n/a	26	14	4	3	7
4297204	PROB	n/a	LTP310	ltpFR2	3	n/a	n/a	n/a	26	22	6	7	9
4299005	PROB	n/a	LTP310	ltpFR2	3	n/a	n/a	n/a	26	19	6	4	9
4300217	STOP	n/a	LTP310	ltpFR2	3	n/a	n/a	n/a	26	n/a	n/a	n/a	n/a
4302592	REC_START	n/a	LTP310	ltpFR2	3	17	n/a	n/a	n/a	n/a	0	0	0
4304514	REC_WORD	wordpools/wasnorm_wordpool_576.txt	LTP310	ltpFR2	3	17	MUMMY	932	n/a	n/a	0	0	0
4305346	REC_WORD	wordpools/wasnorm_wordpool_576.txt	LTP310	ltpFR2	3	17	SISTER	1312	n/a	n/a	0	0	0
4306693	REC_WORD	wordpools/wasnorm_wordpool_576.txt	LTP310	ltpFR2	3	17	SIBLING	1301	n/a	n/a	0	0	0
4311851	REC_WORD	wordpools/wasnorm_wordpool_576.txt	LTP310	ltpFR2	3	17	LIGHTNING	820	n/a	n/a	0	0	0
4313690	REC_WORD	wordpools/wasnorm_wordpool_576.txt	LTP310	ltpFR2	3	17	ROCKET	1202	n/a	n/a	0	0	0
4316671	REC_WORD	wordpools/wasnorm_wordpool_576.txt	LTP310	ltpFR2	3	17	KITCHEN	778	n/a	n/a	0	0	0
4318004	REC_WORD	wordpools/wasnorm_wordpool_576.txt	LTP310	ltpFR2	3	17	BUBBLE	183	n/a	n/a	0	0	0
4319127	REC_WORD	wordpools/wasnorm_wordpool_576.txt	LTP310	ltpFR2	3	17	HOOD	714	n/a	n/a	0	0	0
4320793	REC_WORD	wordpools/wasnorm_wordpool_576.txt	LTP310	ltpFR2	3	17	CRUTCH	417	n/a	n/a	0	0	0
4322342	REC_WORD	wordpools/wasnorm_wordpool_576.txt	LTP310	ltpFR2	3	17	MARROW	872	n/a	n/a	0	0	0
4324558	REC_WORD	wordpools/wasnorm_wordpool_576.txt	LTP310	ltpFR2	3	17	THIEF	1456	n/a	n/a	0	0	0
4331466	REC_WORD	wordpools/wasnorm_wordpool_576.txt	LTP310	ltpFR2	3	17	SURVEY	1414	n/a	n/a	0	0	0
4333208	REC_WORD	wordpools/wasnorm_wordpool_576.txt	LTP310	ltpFR2	3	17	SPACE	1345	n/a	n/a	0	0	0
4334706	REC_WORD	wordpools/wasnorm_wordpool_576.txt	LTP310	ltpFR2	3	17	BROTHER	179	n/a	n/a	0	0	0
4335987	REC_WORD	wordpools/wasnorm_wordpool_576.txt	LTP310	ltpFR2	3	17	MAPLE	866	n/a	n/a	0	0	0
4337419	REC_WORD	wordpools/wasnorm_wordpool_576.txt	LTP310	ltpFR2	3	17	MILDEW	893	n/a	n/a	0	0	0
4341280	REC_WORD	wordpools/wasnorm_wordpool_576.txt	LTP310	ltpFR2	3	17	PEANUT	1032	n/a	n/a	0	0	0
4346573	REC_WORD	wordpools/wasnorm_wordpool_576.txt	LTP310	ltpFR2	3	17	NECKLACE	940	n/a	n/a	0	0	0
4348422	REC_WORD	wordpools/wasnorm_wordpool_576.txt	LTP310	ltpFR2	3	17	PARENT	1013	n/a	n/a	0	0	0
4393030	WORD	wordpools/wasnorm_wordpool_576.txt	LTP310	ltpFR2	3	18	STAMP	1370	n/a	n/a	0	0	0
4395467	WORD	wordpools/wasnorm_wordpool_576.txt	LTP310	ltpFR2	3	18	OFFICE	972	n/a	n/a	0	0	0
4398202	WORD	wordpools/wasnorm_wordpool_576.txt	LTP310	ltpFR2	3	18	JUNGLE	764	n/a	n/a	0	0	0
4401015	WORD	wordpools/wasnorm_wordpool_576.txt	LTP310	ltpFR2	3	18	COIN	343	n/a	n/a	0	0	0
4403584	WORD	wordpools/wasnorm_wordpool_576.txt	LTP310	ltpFR2	3	18	PIANO	1057	n/a	n/a	0	0	0
4406260	WORD	wordpools/wasnorm_wordpool_576.txt	LTP310	ltpFR2	3	18	POET	1095	n/a	n/a	0	0	0
4408822	WORD	wordpools/wasnorm_wordpool_576.txt	LTP310	ltpFR2	3	18	PASSAGE	1019	n/a	n/a	0	0	0
4411441	WORD	wordpools/wasnorm_wordpool_576.txt	LTP310	ltpFR2	3	18	ORANGE	980	n/a	n/a	0	0	0
4413932	WORD	wordpools/wasnorm_wordpool_576.txt	LTP310	ltpFR2	3	18	PORTRAIT	1111	n/a	n/a	0	0	0
4416528	WORD	wordpools/wasnorm_wordpool_576.txt	LTP310	ltpFR2	3	18	GRILL	661	n/a	n/a	0	0	0
4419030	WORD	wordpools/wasnorm_wordpool_576.txt	LTP310	ltpFR2	3	18	WORLD	1622	n/a	n/a	0	0	0
4421804	WORD	wordpools/wasnorm_wordpool_576.txt	LTP310	ltpFR2	3	18	MILK	895	n/a	n/a	0	0	0
4424452	WORD	wordpools/wasnorm_wordpool_576.txt	LTP310	ltpFR2	3	18	OX	994	n/a	n/a	0	0	0
4427088	WORD	wordpools/wasnorm_wordpool_576.txt	LTP310	ltpFR2	3	18	INMATE	738	n/a	n/a	0	0	0
4429639	WORD	wordpools/wasnorm_wordpool_576.txt	LTP310	ltpFR2	3	18	SUNSET	1408	n/a	n/a	0	0	0
4432310	WORD	wordpools/wasnorm_wordpool_576.txt	LTP310	ltpFR2	3	18	GRAPE	654	n/a	n/a	0	0	0
4434765	WORD	wordpools/wasnorm_wordpool_576.txt	LTP310	ltpFR2	3	18	MOP	916	n/a	n/a	0	0	0
4437297	WORD	wordpools/wasnorm_wordpool_576.txt	LTP310	ltpFR2	3	18	DAUGHTER	442	n/a	n/a	0	0	0
4439915	WORD	wordpools/wasnorm_wordpool_576.txt	LTP310	ltpFR2	3	18	ZEBRA	1635	n/a	n/a	0	0	0
4442485	WORD	wordpools/wasnorm_wordpool_576.txt	LTP310	ltpFR2	3	18	CONVICT	371	n/a	n/a	0	0	0
4445006	WORD	wordpools/wasnorm_wordpool_576.txt	LTP310	ltpFR2	3	18	POISON	1096	n/a	n/a	0	0	0
4447822	WORD	wordpools/wasnorm_wordpool_576.txt	LTP310	ltpFR2	3	18	COBRA	336	n/a	n/a	0	0	0
4450342	WORD	wordpools/wasnorm_wordpool_576.txt	LTP310	ltpFR2	3	18	LEADER	807	n/a	n/a	0	0	0
4452876	WORD	wordpools/wasnorm_wordpool_576.txt	LTP310	ltpFR2	3	18	MISSILE	900	n/a	n/a	0	0	0
4454482	START	n/a	LTP310	ltpFR2	3	n/a	n/a	n/a	27	n/a	n/a	n/a	n/a
4455677	DISTRACTOR	n/a	LTP310	ltpFR2	3	18	n/a	n/a	n/a	n/a	0	0	0
4455682	PROB	n/a	LTP310	ltpFR2	3	n/a	n/a	n/a	27	13	2	7	4
4457497	PROB	n/a	LTP310	ltpFR2	3	n/a	n/a	n/a	27	18	3	7	8
4458800	PROB	n/a	LTP310	ltpFR2	3	n/a	n/a	n/a	27	19	3	8	8
4460234	PROB	n/a	LTP310	ltpFR2	3	n/a	n/a	n/a	27	9	4	2	3
4461768	PROB	n/a	LTP310	ltpFR2	3	n/a	n/a	n/a	27	25	8	8	9
4463386	PROB	n/a	LTP310	ltpFR2	3	n/a	n/a	n/a	27	18	5	8	5
4465038	PROB	n/a	LTP310	ltpFR2	3	n/a	n/a	n/a	27	5	1	3	1
4466208	PROB	n/a	LTP310	ltpFR2	3	n/a	n/a	n/a	27	20	9	8	3
4467972	PROB	n/a	LTP310	ltpFR2	3	n/a	n/a	n/a	27	13	2	7	4
4469524	PROB	n/a	LTP310	ltpFR2	3	n/a	n/a	n/a	27	16	8	5	3
4471009	PROB	n/a	LTP310	ltpFR2	3	n/a	n/a	n/a	27	18	5	6	7
4472394	PROB	n/a	LTP310	ltpFR2	3	n/a	n/a	n/a	27	11	2	3	6
4474763	PROB	n/a	LTP310	ltpFR2	3	n/a	n/a	n/a	27	22	7	9	6
4476433	PROB	n/a	LTP310	ltpFR2	3	n/a	n/a	n/a	27	14	1	8	5
4478264	STOP	n/a	LTP310	ltpFR2	3	n/a	n/a	n/a	27	n/a	n/a	n/a	n/a
4480452	REC_START	n/a	LTP310	ltpFR2	3	18	n/a	n/a	n/a	n/a	0	0	0
4495352	REC_WORD	wordpools/wasnorm_wordpool_576.txt	LTP310	ltpFR2	3	18	OX	994	n/a	n/a	0	0	0
4496685	REC_WORD	wordpools/wasnorm_wordpool_576.txt	LTP310	ltpFR2	3	18	MILK	895	n/a	n/a	0	0	0
4498080	REC_WORD	wordpools/wasnorm_wordpool_576.txt	LTP310	ltpFR2	3	18	MOP	916	n/a	n/a	0	0	0
4499783	REC_WORD	wordpools/wasnorm_wordpool_576.txt	LTP310	ltpFR2	3	18	GRAPE	654	n/a	n/a	0	0	0
4501389	REC_WORD	wordpools/wasnorm_wordpool_576.txt	LTP310	ltpFR2	3	18	DAUGHTER	442	n/a	n/a	0	0	0
4502942	REC_WORD	wordpools/wasnorm_wordpool_576.txt	LTP310	ltpFR2	3	18	ZEBRA	1635	n/a	n/a	0	0	0
4506555	REC_WORD	wordpools/wasnorm_wordpool_576.txt	LTP310	ltpFR2	3	18	CONVICT	371	n/a	n/a	0	0	0
4508011	REC_WORD	wordpools/wasnorm_wordpool_576.txt	LTP310	ltpFR2	3	18	POISONED	-1	n/a	n/a	0	0	0
4509861	REC_WORD	wordpools/wasnorm_wordpool_576.txt	LTP310	ltpFR2	3	18	POISON	1096	n/a	n/a	0	0	0
4511153	REC_WORD	wordpools/wasnorm_wordpool_576.txt	LTP310	ltpFR2	3	18	COBRA	336	n/a	n/a	0	0	0
4512457	REC_WORD	wordpools/wasnorm_wordpool_576.txt	LTP310	ltpFR2	3	18	LEADER	807	n/a	n/a	0	0	0
