onset	duration	trial_type	sample	stim_file	subject	experiment	session	trial	task	item_name	item_num	recog_conf	resp	color_b	color_g	color_r	case	font
238.802	n/a	SESS_START	119401	n/a	LTP282	ltpFR	4	n/a	n/a	n/a	n/a	2	n/a	n/a	n/a	n/a	n/a	n/a
310.316	n/a	WORD	155158	wordpools/wasnorm_wordpool_less_exclusions.txt	LTP282	ltpFR	4	1	0	BARREL	91	n/a	1	1	0.412841796875	0.57763671875	lower	../fonts/zerothre.ttf
314.376	n/a	WORD	157188	wordpools/wasnorm_wordpool_less_exclusions.txt	LTP282	ltpFR	4	1	0	CLERK	321	n/a	1	1	0.412841796875	0.57763671875	lower	../fonts/zerothre.ttf
318.222	n/a	WORD	159111	wordpools/wasnorm_wordpool_less_exclusions.txt	LTP282	ltpFR	4	1	1	CHEF	290	n/a	1	0	0.5869140625	0.422607421875	upper	../fonts/amplitud.ttf
322.166	n/a	WORD	161083	wordpools/wasnorm_wordpool_less_exclusions.txt	LTP282	ltpFR	4	1	1	HUMAN	726	n/a	1	0	0.5869140625	0.422607421875	upper	../fonts/amplitud.ttf
326.21	n/a	WORD	163105	wordpools/wasnorm_wordpool_less_exclusions.txt	LTP282	ltpFR	4	1	0	DRIVER	499	n/a	1	1	0.412841796875	0.57763671875	lower	../fonts/zerothre.ttf
330.322	n/a	WORD	165161	wordpools/wasnorm_wordpool_less_exclusions.txt	LTP282	ltpFR	4	1	0	PAPER	1011	n/a	0	1	0.412841796875	0.57763671875	lower	../fonts/zerothre.ttf
334.182	n/a	WORD	167091	wordpools/wasnorm_wordpool_less_exclusions.txt	LTP282	ltpFR	4	1	0	REPORT	1184	n/a	0	1	0.412841796875	0.57763671875	lower	../fonts/zerothre.ttf
338.142	n/a	WORD	169071	wordpools/wasnorm_wordpool_less_exclusions.txt	LTP282	ltpFR	4	1	1	DOCUMENT	479	n/a	0	0	0.5869140625	0.422607421875	upper	../fonts/amplitud.ttf
342.186	n/a	WORD	171093	wordpools/wasnorm_wordpool_less_exclusions.txt	LTP282	ltpFR	4	1	1	SANDWICH	1232	n/a	0	0	0.5869140625	0.422607421875	upper	../fonts/amplitud.ttf
346.148	n/a	WORD	173074	wordpools/wasnorm_wordpool_less_exclusions.txt	LTP282	ltpFR	4	1	1	DONKEY	484	n/a	1	0	0.5869140625	0.422607421875	upper	../fonts/amplitud.ttf
350.208	n/a	WORD	175104	wordpools/wasnorm_wordpool_less_exclusions.txt	LTP282	ltpFR	4	1	1	FRIEND	606	n/a	1	0	0.5869140625	0.422607421875	upper	../fonts/amplitud.ttf
354.086	n/a	WORD	177043	wordpools/wasnorm_wordpool_less_exclusions.txt	LTP282	ltpFR	4	1	1	PUBLICATION	1136	n/a	0	0	0.5869140625	0.422607421875	upper	../fonts/amplitud.ttf
358.064	n/a	WORD	179032	wordpools/wasnorm_wordpool_less_exclusions.txt	LTP282	ltpFR	4	1	1	LITERATURE	831	n/a	0	0	0.5869140625	0.422607421875	upper	../fonts/amplitud.ttf
362.19	n/a	WORD	181095	wordpools/wasnorm_wordpool_less_exclusions.txt	LTP282	ltpFR	4	1	0	JEEP	753	n/a	1	1	0.412841796875	0.57763671875	lower	../fonts/zerothre.ttf
366.068	n/a	WORD	183034	wordpools/wasnorm_wordpool_less_exclusions.txt	LTP282	ltpFR	4	1	0	KIDNEY	776	n/a	0	1	0.412841796875	0.57763671875	lower	../fonts/zerothre.ttf
369.946	n/a	WORD	184973	wordpools/wasnorm_wordpool_less_exclusions.txt	LTP282	ltpFR	4	1	0	MEAT	883	n/a	0	1	0.412841796875	0.57763671875	lower	../fonts/zerothre.ttf
375.654	n/a	REC_START	187827	n/a	LTP282	ltpFR	4	1	n/a	n/a	n/a	n/a	n/a	n/a	n/a	n/a	n/a	n/a
376.836	n/a	REC_WORD	188418	wordpools/wasnorm_wordpool_less_exclusions.txt	LTP282	ltpFR	4	1	0	MEAT	883	n/a	0	n/a	n/a	n/a	n/a	n/a
377.622	n/a	REC_WORD	188811	wordpools/wasnorm_wordpool_less_exclusions.txt	LTP282	ltpFR	4	1	0	KIDNEY	776	n/a	0	n/a	n/a	n/a	n/a	n/a
378.754	n/a	REC_WORD	189377	wordpools/wasnorm_wordpool_less_exclusions.txt	LTP282	ltpFR	4	1	0	DRIVER	499	n/a	1	n/a	n/a	n/a	n/a	n/a
379.964	n/a	REC_WORD	189982	wordpools/wasnorm_wordpool_less_exclusions.txt	LTP282	ltpFR	4	1	0	JEEP	753	n/a	1	n/a	n/a	n/a	n/a	n/a
381.404	n/a	REC_WORD	190702	wordpools/wasnorm_wordpool_less_exclusions.txt	LTP282	ltpFR	4	1	0	BARREL	91	n/a	1	n/a	n/a	n/a	n/a	n/a
382.48	n/a	REC_WORD	191240	wordpools/wasnorm_wordpool_less_exclusions.txt	LTP282	ltpFR	4	1	1	DONKEY	484	n/a	1	n/a	n/a	n/a	n/a	n/a
383.602	n/a	REC_WORD	191801	wordpools/wasnorm_wordpool_less_exclusions.txt	LTP282	ltpFR	4	1	0	CLERK	321	n/a	1	n/a	n/a	n/a	n/a	n/a
385.096	n/a	REC_WORD	192548	wordpools/wasnorm_wordpool_less_exclusions.txt	LTP282	ltpFR	4	1	1	CHEF	290	n/a	1	n/a	n/a	n/a	n/a	n/a
386.89	n/a	REC_WORD	193445	wordpools/wasnorm_wordpool_less_exclusions.txt	LTP282	ltpFR	4	1	1	SANDWICH	1232	n/a	0	n/a	n/a	n/a	n/a	n/a
396.23	n/a	REC_WORD	198115	wordpools/wasnorm_wordpool_less_exclusions.txt	LTP282	ltpFR	4	1	1	FRIEND	606	n/a	1	n/a	n/a	n/a	n/a	n/a
431.6	n/a	REC_WORD	215800	wordpools/wasnorm_wordpool_less_exclusions.txt	LTP282	ltpFR	4	1	1	DOCUMENT	479	n/a	0	n/a	n/a	n/a	n/a	n/a
433.602	n/a	REC_WORD	216801	wordpools/wasnorm_wordpool_less_exclusions.txt	LTP282	ltpFR	4	1	1	PUBLICATION	1136	n/a	0	n/a	n/a	n/a	n/a	n/a
436.826	n/a	REC_WORD	218413	wordpools/wasnorm_wordpool_less_exclusions.txt	LTP282	ltpFR	4	1	0	PAPER	1011	n/a	0	n/a	n/a	n/a	n/a	n/a
458.764	n/a	WORD	229382	wordpools/wasnorm_wordpool_less_exclusions.txt	LTP282	ltpFR	4	2	1	COMET	353	n/a	0	0	0.5869140625	0.422607421875	upper	../fonts/amplitud.ttf
462.926	n/a	WORD	231463	wordpools/wasnorm_wordpool_less_exclusions.txt	LTP282	ltpFR	4	2	1	TAR	1435	n/a	0	0	0.5869140625	0.422607421875	upper	../fonts/amplitud.ttf
466.986	n/a	WORD	233493	wordpools/wasnorm_wordpool_less_exclusions.txt	LTP282	ltpFR	4	2	1	CUFF	423	n/a	0	0	0.5869140625	0.422607421875	upper	../fonts/amplitud.ttf
470.88	n/a	WORD	235440	wordpools/wasnorm_wordpool_less_exclusions.txt	LTP282	ltpFR	4	2	1	KNUCKLE	789	n/a	1	0	0.5869140625	0.422607421875	upper	../fonts/amplitud.ttf
474.79	n/a	WORD	237395	wordpools/wasnorm_wordpool_less_exclusions.txt	LTP282	ltpFR	4	2	1	STRANGER	1389	n/a	1	0	0.5869140625	0.422607421875	upper	../fonts/amplitud.ttf
478.834	n/a	WORD	239417	wordpools/wasnorm_wordpool_less_exclusions.txt	LTP282	ltpFR	4	2	1	COOKBOOK	373	n/a	0	0	0.5869140625	0.422607421875	upper	../fonts/amplitud.ttf
483.046	n/a	WORD	241523	wordpools/wasnorm_wordpool_less_exclusions.txt	LTP282	ltpFR	4	2	0	GRILL	661	n/a	1	1	0.412841796875	0.57763671875	lower	../fonts/zerothre.ttf
486.89	n/a	WORD	243445	wordpools/wasnorm_wordpool_less_exclusions.txt	LTP282	ltpFR	4	2	0	CARPET	247	n/a	1	1	0.412841796875	0.57763671875	lower	../fonts/zerothre.ttf
490.884	n/a	WORD	245442	wordpools/wasnorm_wordpool_less_exclusions.txt	LTP282	ltpFR	4	2	1	ASTRONAUT	51	n/a	1	0	0.5869140625	0.422607421875	upper	../fonts/amplitud.ttf
495.06	n/a	WORD	247530	wordpools/wasnorm_wordpool_less_exclusions.txt	LTP282	ltpFR	4	2	1	MACARONI	851	n/a	0	0	0.5869140625	0.422607421875	upper	../fonts/amplitud.ttf
499.138	n/a	WORD	249569	wordpools/wasnorm_wordpool_less_exclusions.txt	LTP282	ltpFR	4	2	0	SALMON	1227	n/a	1	1	0.412841796875	0.57763671875	lower	../fonts/zerothre.ttf
503.182	n/a	WORD	251591	wordpools/wasnorm_wordpool_less_exclusions.txt	LTP282	ltpFR	4	2	0	WHALE	1601	n/a	1	1	0.412841796875	0.57763671875	lower	../fonts/zerothre.ttf
507.292	n/a	WORD	253646	wordpools/wasnorm_wordpool_less_exclusions.txt	LTP282	ltpFR	4	2	0	TEAPOT	1442	n/a	0	1	0.412841796875	0.57763671875	lower	../fonts/zerothre.ttf
511.452	n/a	WORD	255726	wordpools/wasnorm_wordpool_less_exclusions.txt	LTP282	ltpFR	4	2	0	SHERIFF	1284	n/a	1	1	0.412841796875	0.57763671875	lower	../fonts/zerothre.ttf
515.33	n/a	WORD	257665	wordpools/wasnorm_wordpool_less_exclusions.txt	LTP282	ltpFR	4	2	0	COTTAGE	384	n/a	1	1	0.412841796875	0.57763671875	lower	../fonts/zerothre.ttf
519.54	n/a	WORD	259770	wordpools/wasnorm_wordpool_less_exclusions.txt	LTP282	ltpFR	4	2	0	VOLCANO	1575	n/a	1	1	0.412841796875	0.57763671875	lower	../fonts/zerothre.ttf
525.3	n/a	REC_START	262650	n/a	LTP282	ltpFR	4	2	n/a	n/a	n/a	n/a	n/a	n/a	n/a	n/a	n/a	n/a
526.5	n/a	REC_WORD	263250	wordpools/wasnorm_wordpool_less_exclusions.txt	LTP282	ltpFR	4	2	0	VOLCANO	1575	n/a	1	n/a	n/a	n/a	n/a	n/a
527.486	n/a	REC_WORD	263743	wordpools/wasnorm_wordpool_less_exclusions.txt	LTP282	ltpFR	4	2	0	COTTAGE	384	n/a	1	n/a	n/a	n/a	n/a	n/a
528.396	n/a	REC_WORD	264198	wordpools/wasnorm_wordpool_less_exclusions.txt	LTP282	ltpFR	4	2	0	SHERIFF	1284	n/a	1	n/a	n/a	n/a	n/a	n/a
529.322	n/a	REC_WORD	264661	wordpools/wasnorm_wordpool_less_exclusions.txt	LTP282	ltpFR	4	2	0	SALMON	1227	n/a	1	n/a	n/a	n/a	n/a	n/a
531.264	n/a	REC_WORD	265632	wordpools/wasnorm_wordpool_less_exclusions.txt	LTP282	ltpFR	4	2	0	WHALE	1601	n/a	1	n/a	n/a	n/a	n/a	n/a
532.506	n/a	REC_WORD	266253	wordpools/wasnorm_wordpool_less_exclusions.txt	LTP282	ltpFR	4	2	0	GRILL	661	n/a	1	n/a	n/a	n/a	n/a	n/a
533.674	n/a	REC_WORD	266837	wordpools/wasnorm_wordpool_less_exclusions.txt	LTP282	ltpFR	4	2	1	COOKBOOK	373	n/a	0	n/a	n/a	n/a	n/a	n/a
541.612	n/a	REC_WORD	270806	wordpools/wasnorm_wordpool_less_exclusions.txt	LTP282	ltpFR	4	2	1	STRANGER	1389	n/a	1	n/a	n/a	n/a	n/a	n/a
542.612	n/a	REC_WORD_VV	271306	wordpools/wasnorm_wordpool_less_exclusions.txt	LTP282	ltpFR	4	2	n/a	<>	-1	n/a	n/a	n/a	n/a	n/a	n/a	n/a
543.72	n/a	REC_WORD	271860	wordpools/wasnorm_wordpool_less_exclusions.txt	LTP282	ltpFR	4	2	0	SHERIFF	1284	n/a	1	n/a	n/a	n/a	n/a	n/a
560.434	n/a	REC_WORD	280217	wordpools/wasnorm_wordpool_less_exclusions.txt	LTP282	ltpFR	4	2	1	COMET	353	n/a	0	n/a	n/a	n/a	n/a	n/a
562.742	n/a	REC_WORD	281371	wordpools/wasnorm_wordpool_less_exclusions.txt	LTP282	ltpFR	4	2	1	CUFF	423	n/a	0	n/a	n/a	n/a	n/a	n/a
597.672	n/a	REC_WORD	298836	wordpools/wasnorm_wordpool_less_exclusions.txt	LTP282	ltpFR	4	2	1	KNUCKLE	789	n/a	1	n/a	n/a	n/a	n/a	n/a
627.332	n/a	WORD	313666	wordpools/wasnorm_wordpool_less_exclusions.txt	LTP282	ltpFR	4	3	1	CLOSET	326	n/a	0	0	0.5869140625	0.422607421875	upper	../fonts/amplitud.ttf
631.26	n/a	WORD	315630	wordpools/wasnorm_wordpool_less_exclusions.txt	LTP282	ltpFR	4	3	1	WASHER	1592	n/a	0	0	0.5869140625	0.422607421875	upper	../fonts/amplitud.ttf
635.104	n/a	WORD	317552	wordpools/wasnorm_wordpool_less_exclusions.txt	LTP282	ltpFR	4	3	1	THRONE	1461	n/a	0	0	0.5869140625	0.422607421875	upper	../fonts/amplitud.ttf
638.93	n/a	WORD	319465	wordpools/wasnorm_wordpool_less_exclusions.txt	LTP282	ltpFR	4	3	1	DICTATOR	462	n/a	0	0	0.5869140625	0.422607421875	upper	../fonts/amplitud.ttf
642.876	n/a	WORD	321438	wordpools/wasnorm_wordpool_less_exclusions.txt	LTP282	ltpFR	4	3	1	CRAB	397	n/a	1	0	0.5869140625	0.422607421875	upper	../fonts/amplitud.ttf
646.784	n/a	WORD	323392	wordpools/wasnorm_wordpool_less_exclusions.txt	LTP282	ltpFR	4	3	1	WAIST	1579	n/a	0	0	0.5869140625	0.422607421875	upper	../fonts/amplitud.ttf
650.812	n/a	WORD	325406	wordpools/wasnorm_wordpool_less_exclusions.txt	LTP282	ltpFR	4	3	1	SHRUB	1299	n/a	1	0	0.5869140625	0.422607421875	upper	../fonts/amplitud.ttf
654.858	n/a	WORD	327429	wordpools/wasnorm_wordpool_less_exclusions.txt	LTP282	ltpFR	4	3	1	BUBBLE	183	n/a	0	0	0.5869140625	0.422607421875	upper	../fonts/amplitud.ttf
658.802	n/a	WORD	329401	wordpools/wasnorm_wordpool_less_exclusions.txt	LTP282	ltpFR	4	3	1	WAVE	1596	n/a	0	0	0.5869140625	0.422607421875	upper	../fonts/amplitud.ttf
663.012	n/a	WORD	331506	wordpools/wasnorm_wordpool_less_exclusions.txt	LTP282	ltpFR	4	3	1	ELM	527	n/a	1	0	0.5869140625	0.422607421875	upper	../fonts/amplitud.ttf
667.206	n/a	WORD	333603	wordpools/wasnorm_wordpool_less_exclusions.txt	LTP282	ltpFR	4	3	1	TIE	1466	n/a	0	0	0.5869140625	0.422607421875	upper	../fonts/amplitud.ttf
671.25	n/a	WORD	335625	wordpools/wasnorm_wordpool_less_exclusions.txt	LTP282	ltpFR	4	3	1	MAYONNAISE	880	n/a	0	0	0.5869140625	0.422607421875	upper	../fonts/amplitud.ttf
675.41	n/a	WORD	337705	wordpools/wasnorm_wordpool_less_exclusions.txt	LTP282	ltpFR	4	3	1	MERMAID	887	n/a	1	0	0.5869140625	0.422607421875	upper	../fonts/amplitud.ttf
679.454	n/a	WORD	339727	wordpools/wasnorm_wordpool_less_exclusions.txt	LTP282	ltpFR	4	3	1	CUPBOARD	425	n/a	0	0	0.5869140625	0.422607421875	upper	../fonts/amplitud.ttf
683.564	n/a	WORD	341782	wordpools/wasnorm_wordpool_less_exclusions.txt	LTP282	ltpFR	4	3	1	BATHTUB	100	n/a	0	0	0.5869140625	0.422607421875	upper	../fonts/amplitud.ttf
687.608	n/a	WORD	343804	wordpools/wasnorm_wordpool_less_exclusions.txt	LTP282	ltpFR	4	3	1	ASSISTANT	48	n/a	1	0	0.5869140625	0.422607421875	upper	../fonts/amplitud.ttf
693.616	n/a	REC_START	346808	n/a	LTP282	ltpFR	4	3	n/a	n/a	n/a	n/a	n/a	n/a	n/a	n/a	n/a	n/a
694.502	n/a	REC_WORD	347251	wordpools/wasnorm_wordpool_less_exclusions.txt	LTP282	ltpFR	4	3	1	ASSISTANT	48	n/a	1	n/a	n/a	n/a	n/a	n/a
695.606	n/a	REC_WORD	347803	wordpools/wasnorm_wordpool_less_exclusions.txt	LTP282	ltpFR	4	3	1	CUPBOARD	425	n/a	0	n/a	n/a	n/a	n/a	n/a
696.494	n/a	REC_WORD	348247	wordpools/wasnorm_wordpool_less_exclusions.txt	LTP282	ltpFR	4	3	1	MERMAID	887	n/a	1	n/a	n/a	n/a	n/a	n/a
697.78	n/a	REC_WORD	348890	wordpools/wasnorm_wordpool_less_exclusions.txt	LTP282	ltpFR	4	3	1	BATHTUB	100	n/a	0	n/a	n/a	n/a	n/a	n/a
705.186	n/a	REC_WORD	352593	wordpools/wasnorm_wordpool_less_exclusions.txt	LTP282	ltpFR	4	3	1	SHRUB	1299	n/a	1	n/a	n/a	n/a	n/a	n/a
712.208	n/a	REC_WORD	356104	wordpools/wasnorm_wordpool_less_exclusions.txt	LTP282	ltpFR	4	3	1	THRONE	1461	n/a	0	n/a	n/a	n/a	n/a	n/a
713.35	n/a	REC_WORD	356675	wordpools/wasnorm_wordpool_less_exclusions.txt	LTP282	ltpFR	4	3	1	CLOSET	326	n/a	0	n/a	n/a	n/a	n/a	n/a
714.38	n/a	REC_WORD	357190	wordpools/wasnorm_wordpool_less_exclusions.txt	LTP282	ltpFR	4	3	1	DICTATOR	462	n/a	0	n/a	n/a	n/a	n/a	n/a
715.35	n/a	REC_WORD	357675	wordpools/wasnorm_wordpool_less_exclusions.txt	LTP282	ltpFR	4	3	1	MAYONNAISE	880	n/a	0	n/a	n/a	n/a	n/a	n/a
737.528	n/a	REC_WORD	368764	wordpools/wasnorm_wordpool_less_exclusions.txt	LTP282	ltpFR	4	3	0	SALMON	1227	n/a	1	n/a	n/a	n/a	n/a	n/a
745.354	n/a	REC_WORD	372677	wordpools/wasnorm_wordpool_less_exclusions.txt	LTP282	ltpFR	4	3	1	WAIST	1579	n/a	0	n/a	n/a	n/a	n/a	n/a
748.24	n/a	REC_WORD	374120	wordpools/wasnorm_wordpool_less_exclusions.txt	LTP282	ltpFR	4	3	1	TIE	1466	n/a	0	n/a	n/a	n/a	n/a	n/a
778.574	n/a	WORD	389287	wordpools/wasnorm_wordpool_less_exclusions.txt	LTP282	ltpFR	4	4	1	TWISTER	1530	n/a	0	0	0.5869140625	0.422607421875	upper	../fonts/amplitud.ttf
782.784	n/a	WORD	391392	wordpools/wasnorm_wordpool_less_exclusions.txt	LTP282	ltpFR	4	4	1	CYCLONE	431	n/a	0	0	0.5869140625	0.422607421875	upper	../fonts/amplitud.ttf
786.878	n/a	WORD	393439	wordpools/wasnorm_wordpool_less_exclusions.txt	LTP282	ltpFR	4	4	0	MOTHER	921	n/a	1	1	0.412841796875	0.57763671875	lower	../fonts/zerothre.ttf
790.806	n/a	WORD	395403	wordpools/wasnorm_wordpool_less_exclusions.txt	LTP282	ltpFR	4	4	0	HOSE	720	n/a	0	1	0.412841796875	0.57763671875	lower	../fonts/zerothre.ttf
794.766	n/a	WORD	397383	wordpools/wasnorm_wordpool_less_exclusions.txt	LTP282	ltpFR	4	4	0	RIVER	1194	n/a	1	1	0.412841796875	0.57763671875	lower	../fonts/zerothre.ttf
798.694	n/a	WORD	399347	wordpools/wasnorm_wordpool_less_exclusions.txt	LTP282	ltpFR	4	4	1	PEDAL	1037	n/a	0	0	0.5869140625	0.422607421875	upper	../fonts/amplitud.ttf
802.572	n/a	WORD	401286	wordpools/wasnorm_wordpool_less_exclusions.txt	LTP282	ltpFR	4	4	1	ELECTRON	522	n/a	0	0	0.5869140625	0.422607421875	upper	../fonts/amplitud.ttf
806.782	n/a	WORD	403391	wordpools/wasnorm_wordpool_less_exclusions.txt	LTP282	ltpFR	4	4	0	OPERATOR	979	n/a	1	1	0.412841796875	0.57763671875	lower	../fonts/zerothre.ttf
810.894	n/a	WORD	405447	wordpools/wasnorm_wordpool_less_exclusions.txt	LTP282	ltpFR	4	4	0	ELECTRICIAN	521	n/a	1	1	0.412841796875	0.57763671875	lower	../fonts/zerothre.ttf
814.922	n/a	WORD	407461	wordpools/wasnorm_wordpool_less_exclusions.txt	LTP282	ltpFR	4	4	0	DEPARTMENT	449	n/a	1	1	0.412841796875	0.57763671875	lower	../fonts/zerothre.ttf
819.082	n/a	WORD	409541	wordpools/wasnorm_wordpool_less_exclusions.txt	LTP282	ltpFR	4	4	0	GUM	672	n/a	0	1	0.412841796875	0.57763671875	lower	../fonts/zerothre.ttf
822.992	n/a	WORD	411496	wordpools/wasnorm_wordpool_less_exclusions.txt	LTP282	ltpFR	4	4	0	DAD	433	n/a	1	1	0.412841796875	0.57763671875	lower	../fonts/zerothre.ttf
827.004	n/a	WORD	413502	wordpools/wasnorm_wordpool_less_exclusions.txt	LTP282	ltpFR	4	4	1	RACK	1154	n/a	0	0	0.5869140625	0.422607421875	upper	../fonts/amplitud.ttf
831.18	n/a	WORD	415590	wordpools/wasnorm_wordpool_less_exclusions.txt	LTP282	ltpFR	4	4	1	BACON	67	n/a	0	0	0.5869140625	0.422607421875	upper	../fonts/amplitud.ttf
835.29	n/a	WORD	417645	wordpools/wasnorm_wordpool_less_exclusions.txt	LTP282	ltpFR	4	4	1	DUCK	504	n/a	1	0	0.5869140625	0.422607421875	upper	../fonts/amplitud.ttf
839.466	n/a	WORD	419733	wordpools/wasnorm_wordpool_less_exclusions.txt	LTP282	ltpFR	4	4	1	MEAL	882	n/a	0	0	0.5869140625	0.422607421875	upper	../fonts/amplitud.ttf
845.21	n/a	REC_START	422605	n/a	LTP282	ltpFR	4	4	n/a	n/a	n/a	n/a	n/a	n/a	n/a	n/a	n/a	n/a
846.2	n/a	REC_WORD	423100	wordpools/wasnorm_wordpool_less_exclusions.txt	LTP282	ltpFR	4	4	1	MEAL	882	n/a	0	n/a	n/a	n/a	n/a	n/a
847.192	n/a	REC_WORD	423596	wordpools/wasnorm_wordpool_less_exclusions.txt	LTP282	ltpFR	4	4	1	DUCK	504	n/a	1	n/a	n/a	n/a	n/a	n/a
847.986	n/a	REC_WORD	423993	wordpools/wasnorm_wordpool_less_exclusions.txt	LTP282	ltpFR	4	4	1	BACON	67	n/a	0	n/a	n/a	n/a	n/a	n/a
849.042	n/a	REC_WORD	424521	wordpools/wasnorm_wordpool_less_exclusions.txt	LTP282	ltpFR	4	4	0	DAD	433	n/a	1	n/a	n/a	n/a	n/a	n/a
850.054	n/a	REC_WORD	425027	wordpools/wasnorm_wordpool_less_exclusions.txt	LTP282	ltpFR	4	4	0	GUM	672	n/a	0	n/a	n/a	n/a	n/a	n/a
851.512	n/a	REC_WORD	425756	wordpools/wasnorm_wordpool_less_exclusions.txt	LTP282	ltpFR	4	4	0	OPERATOR	979	n/a	1	n/a	n/a	n/a	n/a	n/a
852.712	n/a	REC_WORD	426356	wordpools/wasnorm_wordpool_less_exclusions.txt	LTP282	ltpFR	4	4	0	DEPARTMENT	449	n/a	1	n/a	n/a	n/a	n/a	n/a
855.404	n/a	REC_WORD	427702	wordpools/wasnorm_wordpool_less_exclusions.txt	LTP282	ltpFR	4	4	0	HOSE	720	n/a	0	n/a	n/a	n/a	n/a	n/a
857.536	n/a	REC_WORD	428768	wordpools/wasnorm_wordpool_less_exclusions.txt	LTP282	ltpFR	4	4	1	RACK	1154	n/a	0	n/a	n/a	n/a	n/a	n/a
865.464	n/a	REC_WORD	432732	wordpools/wasnorm_wordpool_less_exclusions.txt	LTP282	ltpFR	4	4	1	CYCLONE	431	n/a	0	n/a	n/a	n/a	n/a	n/a
866.658	n/a	REC_WORD	433329	wordpools/wasnorm_wordpool_less_exclusions.txt	LTP282	ltpFR	4	4	1	TWISTER	1530	n/a	0	n/a	n/a	n/a	n/a	n/a
874.282	n/a	REC_WORD	437141	wordpools/wasnorm_wordpool_less_exclusions.txt	LTP282	ltpFR	4	4	1	WAVE	1596	n/a	0	n/a	n/a	n/a	n/a	n/a
928.986	n/a	WORD	464493	wordpools/wasnorm_wordpool_less_exclusions.txt	LTP282	ltpFR	4	5	-1	PARSLEY	1016	n/a	-1	1	1.0	1.0	upper	../fonts/Verdana.ttf
933.18	n/a	WORD	466590	wordpools/wasnorm_wordpool_less_exclusions.txt	LTP282	ltpFR	4	5	-1	SCREWDRIVER	1255	n/a	-1	1	1.0	1.0	upper	../fonts/Verdana.ttf
937.074	n/a	WORD	468537	wordpools/wasnorm_wordpool_less_exclusions.txt	LTP282	ltpFR	4	5	-1	RECEIPT	1173	n/a	-1	1	1.0	1.0	upper	../fonts/Verdana.ttf
941.084	n/a	WORD	470542	wordpools/wasnorm_wordpool_less_exclusions.txt	LTP282	ltpFR	4	5	-1	WORKER	1621	n/a	-1	1	1.0	1.0	upper	../fonts/Verdana.ttf
945.246	n/a	WORD	472623	wordpools/wasnorm_wordpool_less_exclusions.txt	LTP282	ltpFR	4	5	-1	RECORD	1176	n/a	-1	1	1.0	1.0	upper	../fonts/Verdana.ttf
949.256	n/a	WORD	474628	wordpools/wasnorm_wordpool_less_exclusions.txt	LTP282	ltpFR	4	5	-1	SCOUT	1252	n/a	-1	1	1.0	1.0	upper	../fonts/Verdana.ttf
953.382	n/a	WORD	476691	wordpools/wasnorm_wordpool_less_exclusions.txt	LTP282	ltpFR	4	5	-1	SUPERVISOR	1410	n/a	-1	1	1.0	1.0	upper	../fonts/Verdana.ttf
957.278	n/a	WORD	478639	wordpools/wasnorm_wordpool_less_exclusions.txt	LTP282	ltpFR	4	5	-1	BLOSSOM	138	n/a	-1	1	1.0	1.0	upper	../fonts/Verdana.ttf
961.238	n/a	WORD	480619	wordpools/wasnorm_wordpool_less_exclusions.txt	LTP282	ltpFR	4	5	-1	SKATE	1313	n/a	-1	1	1.0	1.0	upper	../fonts/Verdana.ttf
965.398	n/a	WORD	482699	wordpools/wasnorm_wordpool_less_exclusions.txt	LTP282	ltpFR	4	5	-1	OWNER	993	n/a	-1	1	1.0	1.0	upper	../fonts/Verdana.ttf
969.242	n/a	WORD	484621	wordpools/wasnorm_wordpool_less_exclusions.txt	LTP282	ltpFR	4	5	-1	SEED	1266	n/a	-1	1	1.0	1.0	upper	../fonts/Verdana.ttf
973.452	n/a	WORD	486726	wordpools/wasnorm_wordpool_less_exclusions.txt	LTP282	ltpFR	4	5	-1	RADISH	1158	n/a	-1	1	1.0	1.0	upper	../fonts/Verdana.ttf
977.298	n/a	WORD	488649	wordpools/wasnorm_wordpool_less_exclusions.txt	LTP282	ltpFR	4	5	-1	QUARTER	1148	n/a	-1	1	1.0	1.0	upper	../fonts/Verdana.ttf
981.174	n/a	WORD	490587	wordpools/wasnorm_wordpool_less_exclusions.txt	LTP282	ltpFR	4	5	-1	VAULT	1550	n/a	-1	1	1.0	1.0	upper	../fonts/Verdana.ttf
985.318	n/a	WORD	492659	wordpools/wasnorm_wordpool_less_exclusions.txt	LTP282	ltpFR	4	5	-1	GLOBE	641	n/a	-1	1	1.0	1.0	upper	../fonts/Verdana.ttf
989.512	n/a	WORD	494756	wordpools/wasnorm_wordpool_less_exclusions.txt	LTP282	ltpFR	4	5	-1	OVAL	990	n/a	-1	1	1.0	1.0	upper	../fonts/Verdana.ttf
995.288	n/a	REC_START	497644	n/a	LTP282	ltpFR	4	5	n/a	n/a	n/a	n/a	n/a	n/a	n/a	n/a	n/a	n/a
996.234	n/a	REC_WORD	498117	wordpools/wasnorm_wordpool_less_exclusions.txt	LTP282	ltpFR	4	5	-1	OVAL	990	n/a	-1	n/a	n/a	n/a	n/a	n/a
997.084	n/a	REC_WORD	498542	wordpools/wasnorm_wordpool_less_exclusions.txt	LTP282	ltpFR	4	5	-1	GLOBE	641	n/a	-1	n/a	n/a	n/a	n/a	n/a
997.896	n/a	REC_WORD	498948	wordpools/wasnorm_wordpool_less_exclusions.txt	LTP282	ltpFR	4	5	-1	QUARTER	1148	n/a	-1	n/a	n/a	n/a	n/a	n/a
999.82	n/a	REC_WORD	499910	wordpools/wasnorm_wordpool_less_exclusions.txt	LTP282	ltpFR	4	5	-1	VAULT	1550	n/a	-1	n/a	n/a	n/a	n/a	n/a
1001.03	n/a	REC_WORD	500515	wordpools/wasnorm_wordpool_less_exclusions.txt	LTP282	ltpFR	4	5	-1	SUPERVISOR	1410	n/a	-1	n/a	n/a	n/a	n/a	n/a
1002.03	n/a	REC_WORD_VV	501015	wordpools/wasnorm_wordpool_less_exclusions.txt	LTP282	ltpFR	4	5	n/a	<>	-1	n/a	n/a	n/a	n/a	n/a	n/a	n/a
1005.11	n/a	REC_WORD	502555	wordpools/wasnorm_wordpool_less_exclusions.txt	LTP282	ltpFR	4	5	-1	BLOSSOM	138	n/a	-1	n/a	n/a	n/a	n/a	n/a
1005.926	n/a	REC_WORD	502963	wordpools/wasnorm_wordpool_less_exclusions.txt	LTP282	ltpFR	4	5	-1	SCREWDRIVER	1255	n/a	-1	n/a	n/a	n/a	n/a	n/a
1006.926	n/a	REC_WORD_VV	503463	wordpools/wasnorm_wordpool_less_exclusions.txt	LTP282	ltpFR	4	5	n/a	<>	-1	n/a	n/a	n/a	n/a	n/a	n/a	n/a
1007.826	n/a	REC_WORD	503913	wordpools/wasnorm_wordpool_less_exclusions.txt	LTP282	ltpFR	4	5	-1	RECEIPT	1173	n/a	-1	n/a	n/a	n/a	n/a	n/a
1018.988	n/a	REC_WORD	509494	wordpools/wasnorm_wordpool_less_exclusions.txt	LTP282	ltpFR	4	5	-1	WORKER	1621	n/a	-1	n/a	n/a	n/a	n/a	n/a
1078.464	n/a	WORD	539232	wordpools/wasnorm_wordpool_less_exclusions.txt	LTP282	ltpFR	4	6	0	GOVERNOR	651	n/a	1	1	0.412841796875	0.57763671875	lower	../fonts/zerothre.ttf
1082.558	n/a	WORD	541279	wordpools/wasnorm_wordpool_less_exclusions.txt	LTP282	ltpFR	4	6	0	CONCERT	360	n/a	1	1	0.412841796875	0.57763671875	lower	../fonts/zerothre.ttf
1086.752	n/a	WORD	543376	wordpools/wasnorm_wordpool_less_exclusions.txt	LTP282	ltpFR	4	6	0	MINT	898	n/a	0	1	0.412841796875	0.57763671875	lower	../fonts/zerothre.ttf
1090.846	n/a	WORD	545423	wordpools/wasnorm_wordpool_less_exclusions.txt	LTP282	ltpFR	4	6	0	LOLLIPOP	842	n/a	0	1	0.412841796875	0.57763671875	lower	../fonts/zerothre.ttf
1095.056	n/a	WORD	547528	wordpools/wasnorm_wordpool_less_exclusions.txt	LTP282	ltpFR	4	6	0	DIRT	472	n/a	0	1	0.412841796875	0.57763671875	lower	../fonts/zerothre.ttf
1098.918	n/a	WORD	549459	wordpools/wasnorm_wordpool_less_exclusions.txt	LTP282	ltpFR	4	6	0	FAUCET	555	n/a	0	1	0.412841796875	0.57763671875	lower	../fonts/zerothre.ttf
1102.76	n/a	WORD	551380	wordpools/wasnorm_wordpool_less_exclusions.txt	LTP282	ltpFR	4	6	0	MOUSE	925	n/a	0	1	0.412841796875	0.57763671875	lower	../fonts/zerothre.ttf
1106.972	n/a	WORD	553486	wordpools/wasnorm_wordpool_less_exclusions.txt	LTP282	ltpFR	4	6	0	WINE	1613	n/a	1	1	0.412841796875	0.57763671875	lower	../fonts/zerothre.ttf
1110.884	n/a	WORD	555442	wordpools/wasnorm_wordpool_less_exclusions.txt	LTP282	ltpFR	4	6	0	TIDE	1465	n/a	1	1	0.412841796875	0.57763671875	lower	../fonts/zerothre.ttf
1115.076	n/a	WORD	557538	wordpools/wasnorm_wordpool_less_exclusions.txt	LTP282	ltpFR	4	6	0	GENERAL	630	n/a	1	1	0.412841796875	0.57763671875	lower	../fonts/zerothre.ttf
1119.07	n/a	WORD	559535	wordpools/wasnorm_wordpool_less_exclusions.txt	LTP282	ltpFR	4	6	0	TRENCH	1503	n/a	1	1	0.412841796875	0.57763671875	lower	../fonts/zerothre.ttf
1123.198	n/a	WORD	561599	wordpools/wasnorm_wordpool_less_exclusions.txt	LTP282	ltpFR	4	6	0	BEAVER	109	n/a	1	1	0.412841796875	0.57763671875	lower	../fonts/zerothre.ttf
1127.192	n/a	WORD	563596	wordpools/wasnorm_wordpool_less_exclusions.txt	LTP282	ltpFR	4	6	0	CHIPMUNK	304	n/a	0	1	0.412841796875	0.57763671875	lower	../fonts/zerothre.ttf
1131.32	n/a	WORD	565660	wordpools/wasnorm_wordpool_less_exclusions.txt	LTP282	ltpFR	4	6	0	DRINK	498	n/a	0	1	0.412841796875	0.57763671875	lower	../fonts/zerothre.ttf
1135.53	n/a	WORD	567765	wordpools/wasnorm_wordpool_less_exclusions.txt	LTP282	ltpFR	4	6	0	BAY	102	n/a	1	1	0.412841796875	0.57763671875	lower	../fonts/zerothre.ttf
1139.474	n/a	WORD	569737	wordpools/wasnorm_wordpool_less_exclusions.txt	LTP282	ltpFR	4	6	0	SPRINKLE	1359	n/a	0	1	0.412841796875	0.57763671875	lower	../fonts/zerothre.ttf
1145.234	n/a	REC_START	572617	n/a	LTP282	ltpFR	4	6	n/a	n/a	n/a	n/a	n/a	n/a	n/a	n/a	n/a	n/a
1146.098	n/a	REC_WORD	573049	wordpools/wasnorm_wordpool_less_exclusions.txt	LTP282	ltpFR	4	6	0	SPRINKLE	1359	n/a	0	n/a	n/a	n/a	n/a	n/a
1147.398	n/a	REC_WORD	573699	wordpools/wasnorm_wordpool_less_exclusions.txt	LTP282	ltpFR	4	6	0	BAY	102	n/a	1	n/a	n/a	n/a	n/a	n/a
1148.172	n/a	REC_WORD	574086	wordpools/wasnorm_wordpool_less_exclusions.txt	LTP282	ltpFR	4	6	0	GENERAL	630	n/a	1	n/a	n/a	n/a	n/a	n/a
1149.132	n/a	REC_WORD	574566	wordpools/wasnorm_wordpool_less_exclusions.txt	LTP282	ltpFR	4	6	0	TRENCH	1503	n/a	1	n/a	n/a	n/a	n/a	n/a
1150.176	n/a	REC_WORD	575088	wordpools/wasnorm_wordpool_less_exclusions.txt	LTP282	ltpFR	4	6	0	MOUSE	925	n/a	0	n/a	n/a	n/a	n/a	n/a
1151.13	n/a	REC_WORD	575565	wordpools/wasnorm_wordpool_less_exclusions.txt	LTP282	ltpFR	4	6	0	CHIPMUNK	304	n/a	0	n/a	n/a	n/a	n/a	n/a
1152.37	n/a	REC_WORD	576185	wordpools/wasnorm_wordpool_less_exclusions.txt	LTP282	ltpFR	4	6	0	BEAVER	109	n/a	1	n/a	n/a	n/a	n/a	n/a
1172.208	n/a	REC_WORD	586104	wordpools/wasnorm_wordpool_less_exclusions.txt	LTP282	ltpFR	4	6	0	TIDE	1465	n/a	1	n/a	n/a	n/a	n/a	n/a
1185.322	n/a	REC_WORD_VV	592661	wordpools/wasnorm_wordpool_less_exclusions.txt	LTP282	ltpFR	4	6	n/a	<>	-1	n/a	n/a	n/a	n/a	n/a	n/a	n/a
1186.93	n/a	REC_WORD	593465	wordpools/wasnorm_wordpool_less_exclusions.txt	LTP282	ltpFR	4	6	0	WINE	1613	n/a	1	n/a	n/a	n/a	n/a	n/a
1205.228	n/a	REC_WORD	602614	wordpools/wasnorm_wordpool_less_exclusions.txt	LTP282	ltpFR	4	6	0	LOLLIPOP	842	n/a	0	n/a	n/a	n/a	n/a	n/a
1210.012	n/a	REC_WORD	605006	wordpools/wasnorm_wordpool_less_exclusions.txt	LTP282	ltpFR	4	6	0	MINT	898	n/a	0	n/a	n/a	n/a	n/a	n/a
1227.776	n/a	WORD	613888	wordpools/wasnorm_wordpool_less_exclusions.txt	LTP282	ltpFR	4	7	0	NIGHTGOWN	953	n/a	1	1	0.412841796875	0.57763671875	lower	../fonts/zerothre.ttf
1231.67	n/a	WORD	615835	wordpools/wasnorm_wordpool_less_exclusions.txt	LTP282	ltpFR	4	7	0	SKIRT	1319	n/a	1	1	0.412841796875	0.57763671875	lower	../fonts/zerothre.ttf
1235.748	n/a	WORD	617874	wordpools/wasnorm_wordpool_less_exclusions.txt	LTP282	ltpFR	4	7	1	HOOP	716	n/a	0	0	0.5869140625	0.422607421875	upper	../fonts/amplitud.ttf
1239.576	n/a	WORD	619788	wordpools/wasnorm_wordpool_less_exclusions.txt	LTP282	ltpFR	4	7	1	THICKET	1455	n/a	1	0	0.5869140625	0.422607421875	upper	../fonts/amplitud.ttf
1243.586	n/a	WORD	621793	wordpools/wasnorm_wordpool_less_exclusions.txt	LTP282	ltpFR	4	7	1	CAMEL	223	n/a	1	0	0.5869140625	0.422607421875	upper	../fonts/amplitud.ttf
1247.714	n/a	WORD	623857	wordpools/wasnorm_wordpool_less_exclusions.txt	LTP282	ltpFR	4	7	0	BALLOT	76	n/a	0	1	0.412841796875	0.57763671875	lower	../fonts/zerothre.ttf
1251.708	n/a	WORD	625854	wordpools/wasnorm_wordpool_less_exclusions.txt	LTP282	ltpFR	4	7	0	BLOUSE	139	n/a	0	1	0.412841796875	0.57763671875	lower	../fonts/zerothre.ttf
1255.8	n/a	WORD	627900	wordpools/wasnorm_wordpool_less_exclusions.txt	LTP282	ltpFR	4	7	1	CIGARETTE	309	n/a	0	0	0.5869140625	0.422607421875	upper	../fonts/amplitud.ttf
1259.846	n/a	WORD	629923	wordpools/wasnorm_wordpool_less_exclusions.txt	LTP282	ltpFR	4	7	1	ZEBRA	1635	n/a	1	0	0.5869140625	0.422607421875	upper	../fonts/amplitud.ttf
1263.772	n/a	WORD	631886	wordpools/wasnorm_wordpool_less_exclusions.txt	LTP282	ltpFR	4	7	1	ELEPHANT	523	n/a	1	0	0.5869140625	0.422607421875	upper	../fonts/amplitud.ttf
1267.818	n/a	WORD	633909	wordpools/wasnorm_wordpool_less_exclusions.txt	LTP282	ltpFR	4	7	1	TRICYCLE	1506	n/a	0	0	0.5869140625	0.422607421875	upper	../fonts/amplitud.ttf
1272.028	n/a	WORD	636014	wordpools/wasnorm_wordpool_less_exclusions.txt	LTP282	ltpFR	4	7	1	ROOT	1210	n/a	1	0	0.5869140625	0.422607421875	upper	../fonts/amplitud.ttf
1276.156	n/a	WORD	638078	wordpools/wasnorm_wordpool_less_exclusions.txt	LTP282	ltpFR	4	7	0	TREE	1502	n/a	1	1	0.412841796875	0.57763671875	lower	../fonts/zerothre.ttf
1280.366	n/a	WORD	640183	wordpools/wasnorm_wordpool_less_exclusions.txt	LTP282	ltpFR	4	7	0	RAISIN	1163	n/a	0	1	0.412841796875	0.57763671875	lower	../fonts/zerothre.ttf
1284.344	n/a	WORD	642172	wordpools/wasnorm_wordpool_less_exclusions.txt	LTP282	ltpFR	4	7	0	MULE	931	n/a	1	1	0.412841796875	0.57763671875	lower	../fonts/zerothre.ttf
1288.204	n/a	WORD	644102	wordpools/wasnorm_wordpool_less_exclusions.txt	LTP282	ltpFR	4	7	0	LEAF	808	n/a	0	1	0.412841796875	0.57763671875	lower	../fonts/zerothre.ttf
1293.812	n/a	REC_START	646906	n/a	LTP282	ltpFR	4	7	n/a	n/a	n/a	n/a	n/a	n/a	n/a	n/a	n/a	n/a
1295.638	n/a	REC_WORD	647819	wordpools/wasnorm_wordpool_less_exclusions.txt	LTP282	ltpFR	4	7	0	LEAF	808	n/a	0	n/a	n/a	n/a	n/a	n/a
1296.348	n/a	REC_WORD	648174	wordpools/wasnorm_wordpool_less_exclusions.txt	LTP282	ltpFR	4	7	0	MULE	931	n/a	1	n/a	n/a	n/a	n/a	n/a
1297.266	n/a	REC_WORD	648633	wordpools/wasnorm_wordpool_less_exclusions.txt	LTP282	ltpFR	4	7	n/a	CAMERA	224	n/a	n/a	n/a	n/a	n/a	n/a	n/a
1298.716	n/a	REC_WORD_VV	649358	wordpools/wasnorm_wordpool_less_exclusions.txt	LTP282	ltpFR	4	7	n/a	<>	-1	n/a	n/a	n/a	n/a	n/a	n/a	n/a
1299.224	n/a	REC_WORD	649612	wordpools/wasnorm_wordpool_less_exclusions.txt	LTP282	ltpFR	4	7	1	CAMEL	223	n/a	1	n/a	n/a	n/a	n/a	n/a
1301.366	n/a	REC_WORD	650683	wordpools/wasnorm_wordpool_less_exclusions.txt	LTP282	ltpFR	4	7	1	ZEBRA	1635	n/a	1	n/a	n/a	n/a	n/a	n/a
1315.008	n/a	REC_WORD	657504	wordpools/wasnorm_wordpool_less_exclusions.txt	LTP282	ltpFR	4	7	1	THICKET	1455	n/a	1	n/a	n/a	n/a	n/a	n/a
1332.322	n/a	REC_WORD	666161	wordpools/wasnorm_wordpool_less_exclusions.txt	LTP282	ltpFR	4	7	1	TRICYCLE	1506	n/a	0	n/a	n/a	n/a	n/a	n/a
1361.432	n/a	REC_WORD	680716	wordpools/wasnorm_wordpool_less_exclusions.txt	LTP282	ltpFR	4	7	n/a	ATOM	55	n/a	n/a	n/a	n/a	n/a	n/a	n/a
1390.918	n/a	WORD	695459	wordpools/wasnorm_wordpool_less_exclusions.txt	LTP282	ltpFR	4	8	1	MARROW	872	n/a	1	0	0.5869140625	0.422607421875	upper	../fonts/amplitud.ttf
1394.778	n/a	WORD	697389	wordpools/wasnorm_wordpool_less_exclusions.txt	LTP282	ltpFR	4	8	1	HEAD	695	n/a	1	0	0.5869140625	0.422607421875	upper	../fonts/amplitud.ttf
1398.656	n/a	WORD	699328	wordpools/wasnorm_wordpool_less_exclusions.txt	LTP282	ltpFR	4	8	1	MACHINE	852	n/a	0	0	0.5869140625	0.422607421875	upper	../fonts/amplitud.ttf
1402.584	n/a	WORD	701292	wordpools/wasnorm_wordpool_less_exclusions.txt	LTP282	ltpFR	4	8	1	SALT	1229	n/a	0	0	0.5869140625	0.422607421875	upper	../fonts/amplitud.ttf
1406.546	n/a	WORD	703273	wordpools/wasnorm_wordpool_less_exclusions.txt	LTP282	ltpFR	4	8	1	GUARDIAN	668	n/a	1	0	0.5869140625	0.422607421875	upper	../fonts/amplitud.ttf
1410.706	n/a	WORD	705353	wordpools/wasnorm_wordpool_less_exclusions.txt	LTP282	ltpFR	4	8	1	REFRIGERATOR	1179	n/a	0	0	0.5869140625	0.422607421875	upper	../fonts/amplitud.ttf
1414.684	n/a	WORD	707342	wordpools/wasnorm_wordpool_less_exclusions.txt	LTP282	ltpFR	4	8	1	CRAYON	401	n/a	0	0	0.5869140625	0.422607421875	upper	../fonts/amplitud.ttf
1418.644	n/a	WORD	709322	wordpools/wasnorm_wordpool_less_exclusions.txt	LTP282	ltpFR	4	8	1	BOTTLE	153	n/a	0	0	0.5869140625	0.422607421875	upper	../fonts/amplitud.ttf
1422.854	n/a	WORD	711427	wordpools/wasnorm_wordpool_less_exclusions.txt	LTP282	ltpFR	4	8	1	SWAMP	1416	n/a	1	0	0.5869140625	0.422607421875	upper	../fonts/amplitud.ttf
1426.866	n/a	WORD	713433	wordpools/wasnorm_wordpool_less_exclusions.txt	LTP282	ltpFR	4	8	1	CREEK	404	n/a	1	0	0.5869140625	0.422607421875	upper	../fonts/amplitud.ttf
1431.026	n/a	WORD	715513	wordpools/wasnorm_wordpool_less_exclusions.txt	LTP282	ltpFR	4	8	1	SCALLOP	1242	n/a	1	0	0.5869140625	0.422607421875	upper	../fonts/amplitud.ttf
1434.938	n/a	WORD	717469	wordpools/wasnorm_wordpool_less_exclusions.txt	LTP282	ltpFR	4	8	1	WRENCH	1625	n/a	0	0	0.5869140625	0.422607421875	upper	../fonts/amplitud.ttf
1438.948	n/a	WORD	719474	wordpools/wasnorm_wordpool_less_exclusions.txt	LTP282	ltpFR	4	8	1	ARM	38	n/a	1	0	0.5869140625	0.422607421875	upper	../fonts/amplitud.ttf
1443.026	n/a	WORD	721513	wordpools/wasnorm_wordpool_less_exclusions.txt	LTP282	ltpFR	4	8	1	THIGH	1457	n/a	1	0	0.5869140625	0.422607421875	upper	../fonts/amplitud.ttf
1447.152	n/a	WORD	723576	wordpools/wasnorm_wordpool_less_exclusions.txt	LTP282	ltpFR	4	8	1	BRANDY	169	n/a	0	0	0.5869140625	0.422607421875	upper	../fonts/amplitud.ttf
1451.296	n/a	WORD	725648	wordpools/wasnorm_wordpool_less_exclusions.txt	LTP282	ltpFR	4	8	1	FATHER	554	n/a	1	0	0.5869140625	0.422607421875	upper	../fonts/amplitud.ttf
1457.038	n/a	REC_START	728519	n/a	LTP282	ltpFR	4	8	n/a	n/a	n/a	n/a	n/a	n/a	n/a	n/a	n/a	n/a
1458.17	n/a	REC_WORD	729085	wordpools/wasnorm_wordpool_less_exclusions.txt	LTP282	ltpFR	4	8	1	FATHER	554	n/a	1	n/a	n/a	n/a	n/a	n/a
1459.284	n/a	REC_WORD	729642	wordpools/wasnorm_wordpool_less_exclusions.txt	LTP282	ltpFR	4	8	1	GUARDIAN	668	n/a	1	n/a	n/a	n/a	n/a	n/a
1460.458	n/a	REC_WORD	730229	wordpools/wasnorm_wordpool_less_exclusions.txt	LTP282	ltpFR	4	8	1	BRANDY	169	n/a	0	n/a	n/a	n/a	n/a	n/a
1461.392	n/a	REC_WORD	730696	wordpools/wasnorm_wordpool_less_exclusions.txt	LTP282	ltpFR	4	8	1	SCALLOP	1242	n/a	1	n/a	n/a	n/a	n/a	n/a
1462.8	n/a	REC_WORD	731400	wordpools/wasnorm_wordpool_less_exclusions.txt	LTP282	ltpFR	4	8	1	CREEK	404	n/a	1	n/a	n/a	n/a	n/a	n/a
1464.756	n/a	REC_WORD	732378	wordpools/wasnorm_wordpool_less_exclusions.txt	LTP282	ltpFR	4	8	0	RIVER	1194	n/a	1	n/a	n/a	n/a	n/a	n/a
1465.996	n/a	REC_WORD	732998	wordpools/wasnorm_wordpool_less_exclusions.txt	LTP282	ltpFR	4	8	1	CRAYON	401	n/a	0	n/a	n/a	n/a	n/a	n/a
1469.536	n/a	REC_WORD	734768	wordpools/wasnorm_wordpool_less_exclusions.txt	LTP282	ltpFR	4	8	1	REFRIGERATOR	1179	n/a	0	n/a	n/a	n/a	n/a	n/a
1470.536	n/a	REC_WORD_VV	735268	wordpools/wasnorm_wordpool_less_exclusions.txt	LTP282	ltpFR	4	8	n/a	<>	-1	n/a	n/a	n/a	n/a	n/a	n/a	n/a
1473.564	n/a	REC_WORD	736782	wordpools/wasnorm_wordpool_less_exclusions.txt	LTP282	ltpFR	4	8	1	MARROW	872	n/a	1	n/a	n/a	n/a	n/a	n/a
1474.43	n/a	REC_WORD	737215	wordpools/wasnorm_wordpool_less_exclusions.txt	LTP282	ltpFR	4	8	1	HEAD	695	n/a	1	n/a	n/a	n/a	n/a	n/a
1475.486	n/a	REC_WORD	737743	wordpools/wasnorm_wordpool_less_exclusions.txt	LTP282	ltpFR	4	8	1	THIGH	1457	n/a	1	n/a	n/a	n/a	n/a	n/a
1477.256	n/a	REC_WORD	738628	wordpools/wasnorm_wordpool_less_exclusions.txt	LTP282	ltpFR	4	8	1	ARM	38	n/a	1	n/a	n/a	n/a	n/a	n/a
1489.48	n/a	REC_WORD	744740	wordpools/wasnorm_wordpool_less_exclusions.txt	LTP282	ltpFR	4	8	1	SWAMP	1416	n/a	1	n/a	n/a	n/a	n/a	n/a
1532.642	n/a	REST_REWET	766321	n/a	LTP282	ltpFR	4	8	n/a	n/a	n/a	n/a	n/a	n/a	n/a	n/a	n/a	n/a
1710.296	n/a	WORD	855148	wordpools/wasnorm_wordpool_less_exclusions.txt	LTP282	ltpFR	4	9	-1	BLUEBERRY	140	n/a	-1	1	1.0	1.0	upper	../fonts/Verdana.ttf
1714.242	n/a	WORD	857121	wordpools/wasnorm_wordpool_less_exclusions.txt	LTP282	ltpFR	4	9	-1	FOREST	593	n/a	-1	1	1.0	1.0	upper	../fonts/Verdana.ttf
1718.118	n/a	WORD	859059	wordpools/wasnorm_wordpool_less_exclusions.txt	LTP282	ltpFR	4	9	-1	PUCK	1138	n/a	-1	1	1.0	1.0	upper	../fonts/Verdana.ttf
1722.08	n/a	WORD	861040	wordpools/wasnorm_wordpool_less_exclusions.txt	LTP282	ltpFR	4	9	-1	WELL	1600	n/a	-1	1	1.0	1.0	upper	../fonts/Verdana.ttf
1726.24	n/a	WORD	863120	wordpools/wasnorm_wordpool_less_exclusions.txt	LTP282	ltpFR	4	9	-1	MOAT	903	n/a	-1	1	1.0	1.0	upper	../fonts/Verdana.ttf
1730.118	n/a	WORD	865059	wordpools/wasnorm_wordpool_less_exclusions.txt	LTP282	ltpFR	4	9	-1	RECIPE	1175	n/a	-1	1	1.0	1.0	upper	../fonts/Verdana.ttf
1734.178	n/a	WORD	867089	wordpools/wasnorm_wordpool_less_exclusions.txt	LTP282	ltpFR	4	9	-1	BUFFALO	186	n/a	-1	1	1.0	1.0	upper	../fonts/Verdana.ttf
1738.404	n/a	WORD	869202	wordpools/wasnorm_wordpool_less_exclusions.txt	LTP282	ltpFR	4	9	-1	ISLAND	745	n/a	-1	1	1.0	1.0	upper	../fonts/Verdana.ttf
1742.3	n/a	WORD	871150	wordpools/wasnorm_wordpool_less_exclusions.txt	LTP282	ltpFR	4	9	-1	CAGE	218	n/a	-1	1	1.0	1.0	upper	../fonts/Verdana.ttf
1746.41	n/a	WORD	873205	wordpools/wasnorm_wordpool_less_exclusions.txt	LTP282	ltpFR	4	9	-1	CHAMBER	277	n/a	-1	1	1.0	1.0	upper	../fonts/Verdana.ttf
1750.47	n/a	WORD	875235	wordpools/wasnorm_wordpool_less_exclusions.txt	LTP282	ltpFR	4	9	-1	SUPPER	1411	n/a	-1	1	1.0	1.0	upper	../fonts/Verdana.ttf
1754.298	n/a	WORD	877149	wordpools/wasnorm_wordpool_less_exclusions.txt	LTP282	ltpFR	4	9	-1	NOTEBOOK	959	n/a	-1	1	1.0	1.0	upper	../fonts/Verdana.ttf
1758.144	n/a	WORD	879072	wordpools/wasnorm_wordpool_less_exclusions.txt	LTP282	ltpFR	4	9	-1	STAPLER	1372	n/a	-1	1	1.0	1.0	upper	../fonts/Verdana.ttf
1762.038	n/a	WORD	881019	wordpools/wasnorm_wordpool_less_exclusions.txt	LTP282	ltpFR	4	9	-1	SAUSAGE	1238	n/a	-1	1	1.0	1.0	upper	../fonts/Verdana.ttf
1765.982	n/a	WORD	882991	wordpools/wasnorm_wordpool_less_exclusions.txt	LTP282	ltpFR	4	9	-1	CLIPPERS	324	n/a	-1	1	1.0	1.0	upper	../fonts/Verdana.ttf
1769.892	n/a	WORD	884946	wordpools/wasnorm_wordpool_less_exclusions.txt	LTP282	ltpFR	4	9	-1	TWEEZERS	1526	n/a	-1	1	1.0	1.0	upper	../fonts/Verdana.ttf
1775.7	n/a	REC_START	887850	n/a	LTP282	ltpFR	4	9	n/a	n/a	n/a	n/a	n/a	n/a	n/a	n/a	n/a	n/a
1776.38	n/a	REC_WORD	888190	wordpools/wasnorm_wordpool_less_exclusions.txt	LTP282	ltpFR	4	9	-1	TWEEZERS	1526	n/a	-1	n/a	n/a	n/a	n/a	n/a
1777.3	n/a	REC_WORD	888650	wordpools/wasnorm_wordpool_less_exclusions.txt	LTP282	ltpFR	4	9	-1	CLIPPERS	324	n/a	-1	n/a	n/a	n/a	n/a	n/a
1778.006	n/a	REC_WORD	889003	wordpools/wasnorm_wordpool_less_exclusions.txt	LTP282	ltpFR	4	9	-1	SAUSAGE	1238	n/a	-1	n/a	n/a	n/a	n/a	n/a
1778.88	n/a	REC_WORD	889440	wordpools/wasnorm_wordpool_less_exclusions.txt	LTP282	ltpFR	4	9	-1	SUPPER	1411	n/a	-1	n/a	n/a	n/a	n/a	n/a
1779.89	n/a	REC_WORD	889945	wordpools/wasnorm_wordpool_less_exclusions.txt	LTP282	ltpFR	4	9	-1	WELL	1600	n/a	-1	n/a	n/a	n/a	n/a	n/a
1780.76	n/a	REC_WORD	890380	wordpools/wasnorm_wordpool_less_exclusions.txt	LTP282	ltpFR	4	9	-1	MOAT	903	n/a	-1	n/a	n/a	n/a	n/a	n/a
1781.644	n/a	REC_WORD	890822	wordpools/wasnorm_wordpool_less_exclusions.txt	LTP282	ltpFR	4	9	-1	ISLAND	745	n/a	-1	n/a	n/a	n/a	n/a	n/a
1782.644	n/a	REC_WORD	891322	wordpools/wasnorm_wordpool_less_exclusions.txt	LTP282	ltpFR	4	9	-1	BUFFALO	186	n/a	-1	n/a	n/a	n/a	n/a	n/a
1783.566	n/a	REC_WORD	891783	wordpools/wasnorm_wordpool_less_exclusions.txt	LTP282	ltpFR	4	9	-1	CAGE	218	n/a	-1	n/a	n/a	n/a	n/a	n/a
1796.322	n/a	REC_WORD	898161	wordpools/wasnorm_wordpool_less_exclusions.txt	LTP282	ltpFR	4	9	-1	BLUEBERRY	140	n/a	-1	n/a	n/a	n/a	n/a	n/a
1797.914	n/a	REC_WORD	898957	wordpools/wasnorm_wordpool_less_exclusions.txt	LTP282	ltpFR	4	9	-1	FOREST	593	n/a	-1	n/a	n/a	n/a	n/a	n/a
1799.13	n/a	REC_WORD	899565	wordpools/wasnorm_wordpool_less_exclusions.txt	LTP282	ltpFR	4	9	-1	RECIPE	1175	n/a	-1	n/a	n/a	n/a	n/a	n/a
1856.78	n/a	WORD	928390	wordpools/wasnorm_wordpool_less_exclusions.txt	LTP282	ltpFR	4	10	0	UMPIRE	1535	n/a	1	1	0.412841796875	0.57763671875	lower	../fonts/zerothre.ttf
1860.606	n/a	WORD	930303	wordpools/wasnorm_wordpool_less_exclusions.txt	LTP282	ltpFR	4	10	0	CASHEW	253	n/a	0	1	0.412841796875	0.57763671875	lower	../fonts/zerothre.ttf
1864.584	n/a	WORD	932292	wordpools/wasnorm_wordpool_less_exclusions.txt	LTP282	ltpFR	4	10	0	BIRD	129	n/a	0	1	0.412841796875	0.57763671875	lower	../fonts/zerothre.ttf
1868.578	n/a	WORD	934289	wordpools/wasnorm_wordpool_less_exclusions.txt	LTP282	ltpFR	4	10	0	DOUGHNUT	490	n/a	0	1	0.412841796875	0.57763671875	lower	../fonts/zerothre.ttf
1872.688	n/a	WORD	936344	wordpools/wasnorm_wordpool_less_exclusions.txt	LTP282	ltpFR	4	10	1	PEACH	1031	n/a	1	0	0.5869140625	0.422607421875	upper	../fonts/amplitud.ttf
1876.716	n/a	WORD	938358	wordpools/wasnorm_wordpool_less_exclusions.txt	LTP282	ltpFR	4	10	1	FARMER	553	n/a	1	0	0.5869140625	0.422607421875	upper	../fonts/amplitud.ttf
1880.628	n/a	WORD	940314	wordpools/wasnorm_wordpool_less_exclusions.txt	LTP282	ltpFR	4	10	1	CATTLE	261	n/a	1	0	0.5869140625	0.422607421875	upper	../fonts/amplitud.ttf
1884.572	n/a	WORD	942286	wordpools/wasnorm_wordpool_less_exclusions.txt	LTP282	ltpFR	4	10	1	CRICKET	408	n/a	1	0	0.5869140625	0.422607421875	upper	../fonts/amplitud.ttf
1888.516	n/a	WORD	944258	wordpools/wasnorm_wordpool_less_exclusions.txt	LTP282	ltpFR	4	10	0	FLY	586	n/a	0	1	0.412841796875	0.57763671875	lower	../fonts/zerothre.ttf
1892.626	n/a	WORD	946313	wordpools/wasnorm_wordpool_less_exclusions.txt	LTP282	ltpFR	4	10	0	BASKETBALL	96	n/a	1	1	0.412841796875	0.57763671875	lower	../fonts/zerothre.ttf
1896.604	n/a	WORD	948302	wordpools/wasnorm_wordpool_less_exclusions.txt	LTP282	ltpFR	4	10	0	LASH	802	n/a	0	1	0.412841796875	0.57763671875	lower	../fonts/zerothre.ttf
1900.832	n/a	WORD	950416	wordpools/wasnorm_wordpool_less_exclusions.txt	LTP282	ltpFR	4	10	0	SNEAKER	1334	n/a	0	1	0.412841796875	0.57763671875	lower	../fonts/zerothre.ttf
1904.658	n/a	WORD	952329	wordpools/wasnorm_wordpool_less_exclusions.txt	LTP282	ltpFR	4	10	1	TOE	1473	n/a	1	0	0.5869140625	0.422607421875	upper	../fonts/amplitud.ttf
1908.836	n/a	WORD	954418	wordpools/wasnorm_wordpool_less_exclusions.txt	LTP282	ltpFR	4	10	1	STAKE	1368	n/a	0	0	0.5869140625	0.422607421875	upper	../fonts/amplitud.ttf
1912.814	n/a	WORD	956407	wordpools/wasnorm_wordpool_less_exclusions.txt	LTP282	ltpFR	4	10	1	SERGEANT	1269	n/a	1	0	0.5869140625	0.422607421875	upper	../fonts/amplitud.ttf
1916.958	n/a	WORD	958479	wordpools/wasnorm_wordpool_less_exclusions.txt	LTP282	ltpFR	4	10	1	SHOULDER	1294	n/a	1	0	0.5869140625	0.422607421875	upper	../fonts/amplitud.ttf
1922.848	n/a	REC_START	961424	n/a	LTP282	ltpFR	4	10	n/a	n/a	n/a	n/a	n/a	n/a	n/a	n/a	n/a	n/a
1923.724	n/a	REC_WORD	961862	wordpools/wasnorm_wordpool_less_exclusions.txt	LTP282	ltpFR	4	10	1	SERGEANT	1269	n/a	1	n/a	n/a	n/a	n/a	n/a
1924.876	n/a	REC_WORD	962438	wordpools/wasnorm_wordpool_less_exclusions.txt	LTP282	ltpFR	4	10	0	UMPIRE	1535	n/a	1	n/a	n/a	n/a	n/a	n/a
1925.846	n/a	REC_WORD	962923	wordpools/wasnorm_wordpool_less_exclusions.txt	LTP282	ltpFR	4	10	0	CASHEW	253	n/a	0	n/a	n/a	n/a	n/a	n/a
1926.844	n/a	REC_WORD	963422	wordpools/wasnorm_wordpool_less_exclusions.txt	LTP282	ltpFR	4	10	1	SHOULDER	1294	n/a	1	n/a	n/a	n/a	n/a	n/a
1928.03	n/a	REC_WORD	964015	wordpools/wasnorm_wordpool_less_exclusions.txt	LTP282	ltpFR	4	10	1	TOE	1473	n/a	1	n/a	n/a	n/a	n/a	n/a
1929.276	n/a	REC_WORD	964638	wordpools/wasnorm_wordpool_less_exclusions.txt	LTP282	ltpFR	4	10	1	STAKE	1368	n/a	0	n/a	n/a	n/a	n/a	n/a
1930.276	n/a	REC_WORD_VV	965138	wordpools/wasnorm_wordpool_less_exclusions.txt	LTP282	ltpFR	4	10	n/a	<>	-1	n/a	n/a	n/a	n/a	n/a	n/a	n/a
1931.872	n/a	REC_WORD	965936	wordpools/wasnorm_wordpool_less_exclusions.txt	LTP282	ltpFR	4	10	0	SNEAKER	1334	n/a	0	n/a	n/a	n/a	n/a	n/a
1937.678	n/a	REC_WORD	968839	wordpools/wasnorm_wordpool_less_exclusions.txt	LTP282	ltpFR	4	10	-1	SEED	1266	n/a	-1	n/a	n/a	n/a	n/a	n/a
1942.474	n/a	REC_WORD	971237	wordpools/wasnorm_wordpool_less_exclusions.txt	LTP282	ltpFR	4	10	-1	BUFFALO	186	n/a	-1	n/a	n/a	n/a	n/a	n/a
1943.166	n/a	REC_WORD_VV	971583	wordpools/wasnorm_wordpool_less_exclusions.txt	LTP282	ltpFR	4	10	n/a	<>	-1	n/a	n/a	n/a	n/a	n/a	n/a	n/a
1944.224	n/a	REC_WORD	972112	wordpools/wasnorm_wordpool_less_exclusions.txt	LTP282	ltpFR	4	10	1	CATTLE	261	n/a	1	n/a	n/a	n/a	n/a	n/a
1946.028	n/a	REC_WORD	973014	wordpools/wasnorm_wordpool_less_exclusions.txt	LTP282	ltpFR	4	10	1	FARMER	553	n/a	1	n/a	n/a	n/a	n/a	n/a
2006.424	n/a	WORD	1003212	wordpools/wasnorm_wordpool_less_exclusions.txt	LTP282	ltpFR	4	11	-1	SHRINE	1298	n/a	-1	1	1.0	1.0	upper	../fonts/Verdana.ttf
2010.468	n/a	WORD	1005234	wordpools/wasnorm_wordpool_less_exclusions.txt	LTP282	ltpFR	4	11	-1	ORCHID	982	n/a	-1	1	1.0	1.0	upper	../fonts/Verdana.ttf
2014.332	n/a	WORD	1007166	wordpools/wasnorm_wordpool_less_exclusions.txt	LTP282	ltpFR	4	11	-1	STEM	1376	n/a	-1	1	1.0	1.0	upper	../fonts/Verdana.ttf
2018.158	n/a	WORD	1009079	wordpools/wasnorm_wordpool_less_exclusions.txt	LTP282	ltpFR	4	11	-1	CANDLE	229	n/a	-1	1	1.0	1.0	upper	../fonts/Verdana.ttf
2022.07	n/a	WORD	1011035	wordpools/wasnorm_wordpool_less_exclusions.txt	LTP282	ltpFR	4	11	-1	PORCH	1106	n/a	-1	1	1.0	1.0	upper	../fonts/Verdana.ttf
2026.214	n/a	WORD	1013107	wordpools/wasnorm_wordpool_less_exclusions.txt	LTP282	ltpFR	4	11	-1	JET	756	n/a	-1	1	1.0	1.0	upper	../fonts/Verdana.ttf
2030.174	n/a	WORD	1015087	wordpools/wasnorm_wordpool_less_exclusions.txt	LTP282	ltpFR	4	11	-1	VILLAGE	1566	n/a	-1	1	1.0	1.0	upper	../fonts/Verdana.ttf
2034.052	n/a	WORD	1017026	wordpools/wasnorm_wordpool_less_exclusions.txt	LTP282	ltpFR	4	11	-1	SIDING	1304	n/a	-1	1	1.0	1.0	upper	../fonts/Verdana.ttf
2038.162	n/a	WORD	1019081	wordpools/wasnorm_wordpool_less_exclusions.txt	LTP282	ltpFR	4	11	-1	CHERRY	293	n/a	-1	1	1.0	1.0	upper	../fonts/Verdana.ttf
2042.34	n/a	WORD	1021170	wordpools/wasnorm_wordpool_less_exclusions.txt	LTP282	ltpFR	4	11	-1	COOLER	375	n/a	-1	1	1.0	1.0	upper	../fonts/Verdana.ttf
2046.466	n/a	WORD	1023233	wordpools/wasnorm_wordpool_less_exclusions.txt	LTP282	ltpFR	4	11	-1	CITY	314	n/a	-1	1	1.0	1.0	upper	../fonts/Verdana.ttf
2050.56	n/a	WORD	1025280	wordpools/wasnorm_wordpool_less_exclusions.txt	LTP282	ltpFR	4	11	-1	SCROLL	1257	n/a	-1	1	1.0	1.0	upper	../fonts/Verdana.ttf
2054.42	n/a	WORD	1027210	wordpools/wasnorm_wordpool_less_exclusions.txt	LTP282	ltpFR	4	11	-1	PUB	1135	n/a	-1	1	1.0	1.0	upper	../fonts/Verdana.ttf
2058.266	n/a	WORD	1029133	wordpools/wasnorm_wordpool_less_exclusions.txt	LTP282	ltpFR	4	11	-1	VEGETABLE	1552	n/a	-1	1	1.0	1.0	upper	../fonts/Verdana.ttf
2062.408	n/a	WORD	1031204	wordpools/wasnorm_wordpool_less_exclusions.txt	LTP282	ltpFR	4	11	-1	AIRPLANE	12	n/a	-1	1	1.0	1.0	upper	../fonts/Verdana.ttf
2066.552	n/a	WORD	1033276	wordpools/wasnorm_wordpool_less_exclusions.txt	LTP282	ltpFR	4	11	-1	COSTUME	383	n/a	-1	1	1.0	1.0	upper	../fonts/Verdana.ttf
2072.444	n/a	REC_START	1036222	n/a	LTP282	ltpFR	4	11	n/a	n/a	n/a	n/a	n/a	n/a	n/a	n/a	n/a	n/a
2073.544	n/a	REC_WORD	1036772	wordpools/wasnorm_wordpool_less_exclusions.txt	LTP282	ltpFR	4	11	-1	COSTUME	383	n/a	-1	n/a	n/a	n/a	n/a	n/a
2074.404	n/a	REC_WORD	1037202	wordpools/wasnorm_wordpool_less_exclusions.txt	LTP282	ltpFR	4	11	-1	AIRPLANE	12	n/a	-1	n/a	n/a	n/a	n/a	n/a
2075.512	n/a	REC_WORD	1037756	wordpools/wasnorm_wordpool_less_exclusions.txt	LTP282	ltpFR	4	11	-1	VILLAGE	1566	n/a	-1	n/a	n/a	n/a	n/a	n/a
2076.204	n/a	REC_WORD	1038102	wordpools/wasnorm_wordpool_less_exclusions.txt	LTP282	ltpFR	4	11	-1	CITY	314	n/a	-1	n/a	n/a	n/a	n/a	n/a
2077.242	n/a	REC_WORD	1038621	wordpools/wasnorm_wordpool_less_exclusions.txt	LTP282	ltpFR	4	11	-1	COOLER	375	n/a	-1	n/a	n/a	n/a	n/a	n/a
2078.17	n/a	REC_WORD	1039085	wordpools/wasnorm_wordpool_less_exclusions.txt	LTP282	ltpFR	4	11	-1	CHERRY	293	n/a	-1	n/a	n/a	n/a	n/a	n/a
2078.876	n/a	REC_WORD	1039438	wordpools/wasnorm_wordpool_less_exclusions.txt	LTP282	ltpFR	4	11	-1	SHRINE	1298	n/a	-1	n/a	n/a	n/a	n/a	n/a
2081.2	n/a	REC_WORD	1040600	wordpools/wasnorm_wordpool_less_exclusions.txt	LTP282	ltpFR	4	11	-1	ORCHID	982	n/a	-1	n/a	n/a	n/a	n/a	n/a
2082.226	n/a	REC_WORD	1041113	wordpools/wasnorm_wordpool_less_exclusions.txt	LTP282	ltpFR	4	11	-1	STEM	1376	n/a	-1	n/a	n/a	n/a	n/a	n/a
2084.314	n/a	REC_WORD	1042157	wordpools/wasnorm_wordpool_less_exclusions.txt	LTP282	ltpFR	4	11	-1	SIDING	1304	n/a	-1	n/a	n/a	n/a	n/a	n/a
2086.19	n/a	REC_WORD	1043095	wordpools/wasnorm_wordpool_less_exclusions.txt	LTP282	ltpFR	4	11	-1	PUB	1135	n/a	-1	n/a	n/a	n/a	n/a	n/a
2090.542	n/a	REC_WORD	1045271	wordpools/wasnorm_wordpool_less_exclusions.txt	LTP282	ltpFR	4	11	-1	COSTUME	383	n/a	-1	n/a	n/a	n/a	n/a	n/a
2153.176	n/a	WORD	1076588	wordpools/wasnorm_wordpool_less_exclusions.txt	LTP282	ltpFR	4	12	0	TABLET	1427	n/a	1	1	0.412841796875	0.57763671875	lower	../fonts/zerothre.ttf
2157.254	n/a	WORD	1078627	wordpools/wasnorm_wordpool_less_exclusions.txt	LTP282	ltpFR	4	12	0	EMERALD	528	n/a	0	1	0.412841796875	0.57763671875	lower	../fonts/zerothre.ttf
2161.098	n/a	WORD	1080549	wordpools/wasnorm_wordpool_less_exclusions.txt	LTP282	ltpFR	4	12	0	MALL	860	n/a	1	1	0.412841796875	0.57763671875	lower	../fonts/zerothre.ttf
2165.192	n/a	WORD	1082596	wordpools/wasnorm_wordpool_less_exclusions.txt	LTP282	ltpFR	4	12	0	HELMET	702	n/a	0	1	0.412841796875	0.57763671875	lower	../fonts/zerothre.ttf
2169.268	n/a	WORD	1084634	wordpools/wasnorm_wordpool_less_exclusions.txt	LTP282	ltpFR	4	12	0	STRAW	1390	n/a	0	1	0.412841796875	0.57763671875	lower	../fonts/zerothre.ttf
2173.362	n/a	WORD	1086681	wordpools/wasnorm_wordpool_less_exclusions.txt	LTP282	ltpFR	4	12	0	BONE	148	n/a	1	1	0.412841796875	0.57763671875	lower	../fonts/zerothre.ttf
2177.488	n/a	WORD	1088744	wordpools/wasnorm_wordpool_less_exclusions.txt	LTP282	ltpFR	4	12	0	SPINE	1353	n/a	1	1	0.412841796875	0.57763671875	lower	../fonts/zerothre.ttf
2181.698	n/a	WORD	1090849	wordpools/wasnorm_wordpool_less_exclusions.txt	LTP282	ltpFR	4	12	0	CUSTOMER	430	n/a	1	1	0.412841796875	0.57763671875	lower	../fonts/zerothre.ttf
2185.826	n/a	WORD	1092913	wordpools/wasnorm_wordpool_less_exclusions.txt	LTP282	ltpFR	4	12	0	BRAN	167	n/a	0	1	0.412841796875	0.57763671875	lower	../fonts/zerothre.ttf
2189.736	n/a	WORD	1094868	wordpools/wasnorm_wordpool_less_exclusions.txt	LTP282	ltpFR	4	12	0	SHOVEL	1295	n/a	1	1	0.412841796875	0.57763671875	lower	../fonts/zerothre.ttf
2193.864	n/a	WORD	1096932	wordpools/wasnorm_wordpool_less_exclusions.txt	LTP282	ltpFR	4	12	0	CABBAGE	210	n/a	1	1	0.412841796875	0.57763671875	lower	../fonts/zerothre.ttf
2197.842	n/a	WORD	1098921	wordpools/wasnorm_wordpool_less_exclusions.txt	LTP282	ltpFR	4	12	0	COCKTAIL	338	n/a	0	1	0.412841796875	0.57763671875	lower	../fonts/zerothre.ttf
2201.768	n/a	WORD	1100884	wordpools/wasnorm_wordpool_less_exclusions.txt	LTP282	ltpFR	4	12	0	FOUNTAIN	597	n/a	1	1	0.412841796875	0.57763671875	lower	../fonts/zerothre.ttf
2205.68	n/a	WORD	1102840	wordpools/wasnorm_wordpool_less_exclusions.txt	LTP282	ltpFR	4	12	0	LAKE	796	n/a	1	1	0.412841796875	0.57763671875	lower	../fonts/zerothre.ttf
2209.658	n/a	WORD	1104829	wordpools/wasnorm_wordpool_less_exclusions.txt	LTP282	ltpFR	4	12	0	HAT	690	n/a	0	1	0.412841796875	0.57763671875	lower	../fonts/zerothre.ttf
2213.718	n/a	WORD	1106859	wordpools/wasnorm_wordpool_less_exclusions.txt	LTP282	ltpFR	4	12	0	TUBE	1516	n/a	0	1	0.412841796875	0.57763671875	lower	../fonts/zerothre.ttf
2219.644	n/a	REC_START	1109822	n/a	LTP282	ltpFR	4	12	n/a	n/a	n/a	n/a	n/a	n/a	n/a	n/a	n/a	n/a
2220.784	n/a	REC_WORD	1110392	wordpools/wasnorm_wordpool_less_exclusions.txt	LTP282	ltpFR	4	12	0	TUBE	1516	n/a	0	n/a	n/a	n/a	n/a	n/a
2221.282	n/a	REC_WORD	1110641	wordpools/wasnorm_wordpool_less_exclusions.txt	LTP282	ltpFR	4	12	0	STRAW	1390	n/a	0	n/a	n/a	n/a	n/a	n/a
2222.294	n/a	REC_WORD	1111147	wordpools/wasnorm_wordpool_less_exclusions.txt	LTP282	ltpFR	4	12	0	HAT	690	n/a	0	n/a	n/a	n/a	n/a	n/a
2223.126	n/a	REC_WORD	1111563	wordpools/wasnorm_wordpool_less_exclusions.txt	LTP282	ltpFR	4	12	0	SHOVEL	1295	n/a	1	n/a	n/a	n/a	n/a	n/a
2225.288	n/a	REC_WORD	1112644	wordpools/wasnorm_wordpool_less_exclusions.txt	LTP282	ltpFR	4	12	0	LAKE	796	n/a	1	n/a	n/a	n/a	n/a	n/a
2231.816	n/a	REC_WORD	1115908	wordpools/wasnorm_wordpool_less_exclusions.txt	LTP282	ltpFR	4	12	0	BRAN	167	n/a	0	n/a	n/a	n/a	n/a	n/a
2249.054	n/a	REC_WORD	1124527	wordpools/wasnorm_wordpool_less_exclusions.txt	LTP282	ltpFR	4	12	0	CABBAGE	210	n/a	1	n/a	n/a	n/a	n/a	n/a
2321.492	n/a	WORD	1160746	wordpools/wasnorm_wordpool_less_exclusions.txt	LTP282	ltpFR	4	13	-1	DRUM	502	n/a	-1	1	1.0	1.0	upper	../fonts/Verdana.ttf
2325.57	n/a	WORD	1162785	wordpools/wasnorm_wordpool_less_exclusions.txt	LTP282	ltpFR	4	13	-1	CHICK	296	n/a	-1	1	1.0	1.0	upper	../fonts/Verdana.ttf
2329.43	n/a	WORD	1164715	wordpools/wasnorm_wordpool_less_exclusions.txt	LTP282	ltpFR	4	13	-1	SCARF	1246	n/a	-1	1	1.0	1.0	upper	../fonts/Verdana.ttf
2333.292	n/a	WORD	1166646	wordpools/wasnorm_wordpool_less_exclusions.txt	LTP282	ltpFR	4	13	-1	WICK	1607	n/a	-1	1	1.0	1.0	upper	../fonts/Verdana.ttf
2337.302	n/a	WORD	1168651	wordpools/wasnorm_wordpool_less_exclusions.txt	LTP282	ltpFR	4	13	-1	COOK	372	n/a	-1	1	1.0	1.0	upper	../fonts/Verdana.ttf
2341.446	n/a	WORD	1170723	wordpools/wasnorm_wordpool_less_exclusions.txt	LTP282	ltpFR	4	13	-1	SNACK	1331	n/a	-1	1	1.0	1.0	upper	../fonts/Verdana.ttf
2345.54	n/a	WORD	1172770	wordpools/wasnorm_wordpool_less_exclusions.txt	LTP282	ltpFR	4	13	-1	BOYFRIEND	162	n/a	-1	1	1.0	1.0	upper	../fonts/Verdana.ttf
2349.716	n/a	WORD	1174858	wordpools/wasnorm_wordpool_less_exclusions.txt	LTP282	ltpFR	4	13	-1	TICKET	1464	n/a	-1	1	1.0	1.0	upper	../fonts/Verdana.ttf
2353.544	n/a	WORD	1176772	wordpools/wasnorm_wordpool_less_exclusions.txt	LTP282	ltpFR	4	13	-1	HAWK	692	n/a	-1	1	1.0	1.0	upper	../fonts/Verdana.ttf
2357.54	n/a	WORD	1178770	wordpools/wasnorm_wordpool_less_exclusions.txt	LTP282	ltpFR	4	13	-1	OWL	992	n/a	-1	1	1.0	1.0	upper	../fonts/Verdana.ttf
2361.55	n/a	WORD	1180775	wordpools/wasnorm_wordpool_less_exclusions.txt	LTP282	ltpFR	4	13	-1	STEREO	1378	n/a	-1	1	1.0	1.0	upper	../fonts/Verdana.ttf
2365.56	n/a	WORD	1182780	wordpools/wasnorm_wordpool_less_exclusions.txt	LTP282	ltpFR	4	13	-1	BUGLE	189	n/a	-1	1	1.0	1.0	upper	../fonts/Verdana.ttf
2369.572	n/a	WORD	1184786	wordpools/wasnorm_wordpool_less_exclusions.txt	LTP282	ltpFR	4	13	-1	BOY	161	n/a	-1	1	1.0	1.0	upper	../fonts/Verdana.ttf
2373.532	n/a	WORD	1186766	wordpools/wasnorm_wordpool_less_exclusions.txt	LTP282	ltpFR	4	13	-1	ROOST	1208	n/a	-1	1	1.0	1.0	upper	../fonts/Verdana.ttf
2377.726	n/a	WORD	1188863	wordpools/wasnorm_wordpool_less_exclusions.txt	LTP282	ltpFR	4	13	-1	CAVE	263	n/a	-1	1	1.0	1.0	upper	../fonts/Verdana.ttf
2381.888	n/a	WORD	1190944	wordpools/wasnorm_wordpool_less_exclusions.txt	LTP282	ltpFR	4	13	-1	APPLICATION	34	n/a	-1	1	1.0	1.0	upper	../fonts/Verdana.ttf
2387.812	n/a	REC_START	1193906	n/a	LTP282	ltpFR	4	13	n/a	n/a	n/a	n/a	n/a	n/a	n/a	n/a	n/a	n/a
2388.9	n/a	REC_WORD	1194450	wordpools/wasnorm_wordpool_less_exclusions.txt	LTP282	ltpFR	4	13	-1	APPLICATION	34	n/a	-1	n/a	n/a	n/a	n/a	n/a
2389.952	n/a	REC_WORD	1194976	wordpools/wasnorm_wordpool_less_exclusions.txt	LTP282	ltpFR	4	13	-1	ROOST	1208	n/a	-1	n/a	n/a	n/a	n/a	n/a
2390.864	n/a	REC_WORD	1195432	wordpools/wasnorm_wordpool_less_exclusions.txt	LTP282	ltpFR	4	13	-1	CAVE	263	n/a	-1	n/a	n/a	n/a	n/a	n/a
2391.656	n/a	REC_WORD	1195828	wordpools/wasnorm_wordpool_less_exclusions.txt	LTP282	ltpFR	4	13	-1	BUGLE	189	n/a	-1	n/a	n/a	n/a	n/a	n/a
2392.396	n/a	REC_WORD	1196198	wordpools/wasnorm_wordpool_less_exclusions.txt	LTP282	ltpFR	4	13	-1	STEREO	1378	n/a	-1	n/a	n/a	n/a	n/a	n/a
2393.72	n/a	REC_WORD	1196860	wordpools/wasnorm_wordpool_less_exclusions.txt	LTP282	ltpFR	4	13	-1	BOY	161	n/a	-1	n/a	n/a	n/a	n/a	n/a
2395.562	n/a	REC_WORD	1197781	wordpools/wasnorm_wordpool_less_exclusions.txt	LTP282	ltpFR	4	13	-1	BOYFRIEND	162	n/a	-1	n/a	n/a	n/a	n/a	n/a
2431.064	n/a	REC_WORD	1215532	wordpools/wasnorm_wordpool_less_exclusions.txt	LTP282	ltpFR	4	13	-1	COOK	372	n/a	-1	n/a	n/a	n/a	n/a	n/a
2453.084	n/a	REC_WORD	1226542	wordpools/wasnorm_wordpool_less_exclusions.txt	LTP282	ltpFR	4	13	-1	OWL	992	n/a	-1	n/a	n/a	n/a	n/a	n/a
2453.824	n/a	REC_WORD	1226912	wordpools/wasnorm_wordpool_less_exclusions.txt	LTP282	ltpFR	4	13	-1	HAWK	692	n/a	-1	n/a	n/a	n/a	n/a	n/a
2471.604	n/a	WORD	1235802	wordpools/wasnorm_wordpool_less_exclusions.txt	LTP282	ltpFR	4	14	1	TWINE	1529	n/a	0	0	0.5869140625	0.422607421875	upper	../fonts/amplitud.ttf
2475.464	n/a	WORD	1237732	wordpools/wasnorm_wordpool_less_exclusions.txt	LTP282	ltpFR	4	14	1	KNOT	788	n/a	0	0	0.5869140625	0.422607421875	upper	../fonts/amplitud.ttf
2479.474	n/a	WORD	1239737	wordpools/wasnorm_wordpool_less_exclusions.txt	LTP282	ltpFR	4	14	1	LEOPARD	812	n/a	1	0	0.5869140625	0.422607421875	upper	../fonts/amplitud.ttf
2483.452	n/a	WORD	1241726	wordpools/wasnorm_wordpool_less_exclusions.txt	LTP282	ltpFR	4	14	1	BEAST	108	n/a	1	0	0.5869140625	0.422607421875	upper	../fonts/amplitud.ttf
2487.364	n/a	WORD	1243682	wordpools/wasnorm_wordpool_less_exclusions.txt	LTP282	ltpFR	4	14	1	FRUIT	610	n/a	1	0	0.5869140625	0.422607421875	upper	../fonts/amplitud.ttf
2491.276	n/a	WORD	1245638	wordpools/wasnorm_wordpool_less_exclusions.txt	LTP282	ltpFR	4	14	1	BLUEJAY	141	n/a	1	0	0.5869140625	0.422607421875	upper	../fonts/amplitud.ttf
2495.22	n/a	WORD	1247610	wordpools/wasnorm_wordpool_less_exclusions.txt	LTP282	ltpFR	4	14	1	QUILT	1151	n/a	0	0	0.5869140625	0.422607421875	upper	../fonts/amplitud.ttf
2499.064	n/a	WORD	1249532	wordpools/wasnorm_wordpool_less_exclusions.txt	LTP282	ltpFR	4	14	1	SERVER	1272	n/a	1	0	0.5869140625	0.422607421875	upper	../fonts/amplitud.ttf
2503.158	n/a	WORD	1251579	wordpools/wasnorm_wordpool_less_exclusions.txt	LTP282	ltpFR	4	14	1	BANDANNA	80	n/a	0	0	0.5869140625	0.422607421875	upper	../fonts/amplitud.ttf
2507.318	n/a	WORD	1253659	wordpools/wasnorm_wordpool_less_exclusions.txt	LTP282	ltpFR	4	14	1	SHEEP	1278	n/a	1	0	0.5869140625	0.422607421875	upper	../fonts/amplitud.ttf
2511.212	n/a	WORD	1255606	wordpools/wasnorm_wordpool_less_exclusions.txt	LTP282	ltpFR	4	14	1	APPLE	33	n/a	1	0	0.5869140625	0.422607421875	upper	../fonts/amplitud.ttf
2515.09	n/a	WORD	1257545	wordpools/wasnorm_wordpool_less_exclusions.txt	LTP282	ltpFR	4	14	1	STORE	1387	n/a	0	0	0.5869140625	0.422607421875	upper	../fonts/amplitud.ttf
2519.234	n/a	WORD	1259617	wordpools/wasnorm_wordpool_less_exclusions.txt	LTP282	ltpFR	4	14	1	LIST	830	n/a	0	0	0.5869140625	0.422607421875	upper	../fonts/amplitud.ttf
2523.294	n/a	WORD	1261647	wordpools/wasnorm_wordpool_less_exclusions.txt	LTP282	ltpFR	4	14	1	FOREHEAD	592	n/a	1	0	0.5869140625	0.422607421875	upper	../fonts/amplitud.ttf
2527.122	n/a	WORD	1263561	wordpools/wasnorm_wordpool_less_exclusions.txt	LTP282	ltpFR	4	14	1	DIAPER	459	n/a	0	0	0.5869140625	0.422607421875	upper	../fonts/amplitud.ttf
2531.316	n/a	WORD	1265658	wordpools/wasnorm_wordpool_less_exclusions.txt	LTP282	ltpFR	4	14	1	PUPPY	1144	n/a	1	0	0.5869140625	0.422607421875	upper	../fonts/amplitud.ttf
2537.208	n/a	REC_START	1268604	n/a	LTP282	ltpFR	4	14	n/a	n/a	n/a	n/a	n/a	n/a	n/a	n/a	n/a	n/a
2538.048	n/a	REC_WORD	1269024	wordpools/wasnorm_wordpool_less_exclusions.txt	LTP282	ltpFR	4	14	1	PUPPY	1144	n/a	1	n/a	n/a	n/a	n/a	n/a
2538.652	n/a	REC_WORD	1269326	wordpools/wasnorm_wordpool_less_exclusions.txt	LTP282	ltpFR	4	14	1	FOREHEAD	592	n/a	1	n/a	n/a	n/a	n/a	n/a
2539.684	n/a	REC_WORD	1269842	wordpools/wasnorm_wordpool_less_exclusions.txt	LTP282	ltpFR	4	14	1	DIAPER	459	n/a	0	n/a	n/a	n/a	n/a	n/a
2540.348	n/a	REC_WORD	1270174	wordpools/wasnorm_wordpool_less_exclusions.txt	LTP282	ltpFR	4	14	1	STORE	1387	n/a	0	n/a	n/a	n/a	n/a	n/a
2541.608	n/a	REC_WORD	1270804	wordpools/wasnorm_wordpool_less_exclusions.txt	LTP282	ltpFR	4	14	1	LIST	830	n/a	0	n/a	n/a	n/a	n/a	n/a
2543.57	n/a	REC_WORD	1271785	wordpools/wasnorm_wordpool_less_exclusions.txt	LTP282	ltpFR	4	14	1	APPLE	33	n/a	1	n/a	n/a	n/a	n/a	n/a
2544.62	n/a	REC_WORD	1272310	wordpools/wasnorm_wordpool_less_exclusions.txt	LTP282	ltpFR	4	14	1	SHEEP	1278	n/a	1	n/a	n/a	n/a	n/a	n/a
2616.622	n/a	WORD	1308311	wordpools/wasnorm_wordpool_less_exclusions.txt	LTP282	ltpFR	4	15	0	CAR	241	n/a	1	1	0.412841796875	0.57763671875	lower	../fonts/zerothre.ttf
2620.45	n/a	WORD	1310225	wordpools/wasnorm_wordpool_less_exclusions.txt	LTP282	ltpFR	4	15	0	BULL	193	n/a	1	1	0.412841796875	0.57763671875	lower	../fonts/zerothre.ttf
2624.328	n/a	WORD	1312164	wordpools/wasnorm_wordpool_less_exclusions.txt	LTP282	ltpFR	4	15	0	VESSEL	1558	n/a	1	1	0.412841796875	0.57763671875	lower	../fonts/zerothre.ttf
2628.356	n/a	WORD	1314178	wordpools/wasnorm_wordpool_less_exclusions.txt	LTP282	ltpFR	4	15	0	OAR	966	n/a	1	1	0.412841796875	0.57763671875	lower	../fonts/zerothre.ttf
2632.184	n/a	WORD	1316092	wordpools/wasnorm_wordpool_less_exclusions.txt	LTP282	ltpFR	4	15	0	MISTER	901	n/a	1	1	0.412841796875	0.57763671875	lower	../fonts/zerothre.ttf
2636.144	n/a	WORD	1318072	wordpools/wasnorm_wordpool_less_exclusions.txt	LTP282	ltpFR	4	15	0	VOLLEYBALL	1576	n/a	1	1	0.412841796875	0.57763671875	lower	../fonts/zerothre.ttf
2640.022	n/a	WORD	1320011	wordpools/wasnorm_wordpool_less_exclusions.txt	LTP282	ltpFR	4	15	0	SHARK	1275	n/a	1	1	0.412841796875	0.57763671875	lower	../fonts/zerothre.ttf
2644.1	n/a	WORD	1322050	wordpools/wasnorm_wordpool_less_exclusions.txt	LTP282	ltpFR	4	15	0	TELEPHONE	1445	n/a	0	1	0.412841796875	0.57763671875	lower	../fonts/zerothre.ttf
2648.06	n/a	WORD	1324030	wordpools/wasnorm_wordpool_less_exclusions.txt	LTP282	ltpFR	4	15	0	BUGGY	188	n/a	1	1	0.412841796875	0.57763671875	lower	../fonts/zerothre.ttf
2651.972	n/a	WORD	1325986	wordpools/wasnorm_wordpool_less_exclusions.txt	LTP282	ltpFR	4	15	0	HORSE	719	n/a	1	1	0.412841796875	0.57763671875	lower	../fonts/zerothre.ttf
2656.116	n/a	WORD	1328058	wordpools/wasnorm_wordpool_less_exclusions.txt	LTP282	ltpFR	4	15	0	DIAL	457	n/a	0	1	0.412841796875	0.57763671875	lower	../fonts/zerothre.ttf
2659.976	n/a	WORD	1329988	wordpools/wasnorm_wordpool_less_exclusions.txt	LTP282	ltpFR	4	15	0	CANARY	227	n/a	0	1	0.412841796875	0.57763671875	lower	../fonts/zerothre.ttf
2664.12	n/a	WORD	1332060	wordpools/wasnorm_wordpool_less_exclusions.txt	LTP282	ltpFR	4	15	0	BEAN	105	n/a	0	1	0.412841796875	0.57763671875	lower	../fonts/zerothre.ttf
2668.214	n/a	WORD	1334107	wordpools/wasnorm_wordpool_less_exclusions.txt	LTP282	ltpFR	4	15	0	TOMATO	1476	n/a	0	1	0.412841796875	0.57763671875	lower	../fonts/zerothre.ttf
2672.34	n/a	WORD	1336170	wordpools/wasnorm_wordpool_less_exclusions.txt	LTP282	ltpFR	4	15	0	OLIVE	975	n/a	0	1	0.412841796875	0.57763671875	lower	../fonts/zerothre.ttf
2676.534	n/a	WORD	1338267	wordpools/wasnorm_wordpool_less_exclusions.txt	LTP282	ltpFR	4	15	0	SLOPE	1328	n/a	1	1	0.412841796875	0.57763671875	lower	../fonts/zerothre.ttf
2682.36	n/a	REC_START	1341180	n/a	LTP282	ltpFR	4	15	n/a	n/a	n/a	n/a	n/a	n/a	n/a	n/a	n/a	n/a
2683.182	n/a	REC_WORD	1341591	wordpools/wasnorm_wordpool_less_exclusions.txt	LTP282	ltpFR	4	15	0	SLOPE	1328	n/a	1	n/a	n/a	n/a	n/a	n/a
2684.298	n/a	REC_WORD	1342149	wordpools/wasnorm_wordpool_less_exclusions.txt	LTP282	ltpFR	4	15	0	OLIVE	975	n/a	0	n/a	n/a	n/a	n/a	n/a
2685.396	n/a	REC_WORD	1342698	wordpools/wasnorm_wordpool_less_exclusions.txt	LTP282	ltpFR	4	15	0	BEAN	105	n/a	0	n/a	n/a	n/a	n/a	n/a
2686.306	n/a	REC_WORD	1343153	wordpools/wasnorm_wordpool_less_exclusions.txt	LTP282	ltpFR	4	15	0	TOMATO	1476	n/a	0	n/a	n/a	n/a	n/a	n/a
2734.65	n/a	REC_WORD	1367325	wordpools/wasnorm_wordpool_less_exclusions.txt	LTP282	ltpFR	4	15	0	OAR	966	n/a	1	n/a	n/a	n/a	n/a	n/a
2750.616	n/a	REC_WORD	1375308	wordpools/wasnorm_wordpool_less_exclusions.txt	LTP282	ltpFR	4	15	n/a	PADDLE	1000	n/a	n/a	n/a	n/a	n/a	n/a	n/a
2770.778	n/a	WORD	1385389	wordpools/wasnorm_wordpool_less_exclusions.txt	LTP282	ltpFR	4	16	1	EXPLOSION	544	n/a	0	0	0.5869140625	0.422607421875	upper	../fonts/amplitud.ttf
2774.69	n/a	WORD	1387345	wordpools/wasnorm_wordpool_less_exclusions.txt	LTP282	ltpFR	4	16	1	CHAMPION	279	n/a	1	0	0.5869140625	0.422607421875	upper	../fonts/amplitud.ttf
2778.8	n/a	WORD	1389400	wordpools/wasnorm_wordpool_less_exclusions.txt	LTP282	ltpFR	4	16	1	BANKER	84	n/a	1	0	0.5869140625	0.422607421875	upper	../fonts/amplitud.ttf
2782.912	n/a	WORD	1391456	wordpools/wasnorm_wordpool_less_exclusions.txt	LTP282	ltpFR	4	16	1	POCKETBOOK	1094	n/a	0	0	0.5869140625	0.422607421875	upper	../fonts/amplitud.ttf
2786.972	n/a	WORD	1393486	wordpools/wasnorm_wordpool_less_exclusions.txt	LTP282	ltpFR	4	16	1	CAT	257	n/a	1	0	0.5869140625	0.422607421875	upper	../fonts/amplitud.ttf
2790.966	n/a	WORD	1395483	wordpools/wasnorm_wordpool_less_exclusions.txt	LTP282	ltpFR	4	16	0	COYOTE	396	n/a	1	1	0.412841796875	0.57763671875	lower	../fonts/zerothre.ttf
2795.092	n/a	WORD	1397546	wordpools/wasnorm_wordpool_less_exclusions.txt	LTP282	ltpFR	4	16	0	TORTOISE	1486	n/a	1	1	0.412841796875	0.57763671875	lower	../fonts/zerothre.ttf
2799.254	n/a	WORD	1399627	wordpools/wasnorm_wordpool_less_exclusions.txt	LTP282	ltpFR	4	16	0	ROBE	1198	n/a	1	1	0.412841796875	0.57763671875	lower	../fonts/zerothre.ttf
2803.364	n/a	WORD	1401682	wordpools/wasnorm_wordpool_less_exclusions.txt	LTP282	ltpFR	4	16	0	SUIT	1402	n/a	1	1	0.412841796875	0.57763671875	lower	../fonts/zerothre.ttf
2807.54	n/a	WORD	1403770	wordpools/wasnorm_wordpool_less_exclusions.txt	LTP282	ltpFR	4	16	0	CROCODILE	411	n/a	1	1	0.412841796875	0.57763671875	lower	../fonts/zerothre.ttf
2811.484	n/a	WORD	1405742	wordpools/wasnorm_wordpool_less_exclusions.txt	LTP282	ltpFR	4	16	1	FLASK	576	n/a	0	0	0.5869140625	0.422607421875	upper	../fonts/amplitud.ttf
2815.312	n/a	WORD	1407656	wordpools/wasnorm_wordpool_less_exclusions.txt	LTP282	ltpFR	4	16	1	TUSK	1523	n/a	1	0	0.5869140625	0.422607421875	upper	../fonts/amplitud.ttf
2819.34	n/a	WORD	1409670	wordpools/wasnorm_wordpool_less_exclusions.txt	LTP282	ltpFR	4	16	1	MONGOOSE	909	n/a	1	0	0.5869140625	0.422607421875	upper	../fonts/amplitud.ttf
2823.168	n/a	WORD	1411584	wordpools/wasnorm_wordpool_less_exclusions.txt	LTP282	ltpFR	4	16	0	SNAIL	1332	n/a	0	1	0.412841796875	0.57763671875	lower	../fonts/zerothre.ttf
2827.294	n/a	WORD	1413647	wordpools/wasnorm_wordpool_less_exclusions.txt	LTP282	ltpFR	4	16	0	RAFT	1159	n/a	1	1	0.412841796875	0.57763671875	lower	../fonts/zerothre.ttf
2831.29	n/a	WORD	1415645	wordpools/wasnorm_wordpool_less_exclusions.txt	LTP282	ltpFR	4	16	0	RUNNER	1218	n/a	1	1	0.412841796875	0.57763671875	lower	../fonts/zerothre.ttf
2836.982	n/a	REC_START	1418491	n/a	LTP282	ltpFR	4	16	n/a	n/a	n/a	n/a	n/a	n/a	n/a	n/a	n/a	n/a
2837.962	n/a	REC_WORD	1418981	wordpools/wasnorm_wordpool_less_exclusions.txt	LTP282	ltpFR	4	16	0	RAFT	1159	n/a	1	n/a	n/a	n/a	n/a	n/a
2838.742	n/a	REC_WORD	1419371	wordpools/wasnorm_wordpool_less_exclusions.txt	LTP282	ltpFR	4	16	0	RUNNER	1218	n/a	1	n/a	n/a	n/a	n/a	n/a
2839.576	n/a	REC_WORD	1419788	wordpools/wasnorm_wordpool_less_exclusions.txt	LTP282	ltpFR	4	16	0	COYOTE	396	n/a	1	n/a	n/a	n/a	n/a	n/a
2840.588	n/a	REC_WORD	1420294	wordpools/wasnorm_wordpool_less_exclusions.txt	LTP282	ltpFR	4	16	0	TORTOISE	1486	n/a	1	n/a	n/a	n/a	n/a	n/a
2842.768	n/a	REC_WORD	1421384	wordpools/wasnorm_wordpool_less_exclusions.txt	LTP282	ltpFR	4	16	1	TUSK	1523	n/a	1	n/a	n/a	n/a	n/a	n/a
2843.57	n/a	REC_WORD	1421785	wordpools/wasnorm_wordpool_less_exclusions.txt	LTP282	ltpFR	4	16	0	SUIT	1402	n/a	1	n/a	n/a	n/a	n/a	n/a
2844.45	n/a	REC_WORD	1422225	wordpools/wasnorm_wordpool_less_exclusions.txt	LTP282	ltpFR	4	16	1	FLASK	576	n/a	0	n/a	n/a	n/a	n/a	n/a
2845.572	n/a	REC_WORD	1422786	wordpools/wasnorm_wordpool_less_exclusions.txt	LTP282	ltpFR	4	16	0	ROBE	1198	n/a	1	n/a	n/a	n/a	n/a	n/a
2851.768	n/a	REC_WORD	1425884	wordpools/wasnorm_wordpool_less_exclusions.txt	LTP282	ltpFR	4	16	1	MONGOOSE	909	n/a	1	n/a	n/a	n/a	n/a	n/a
2852.768	n/a	REC_WORD_VV	1426384	wordpools/wasnorm_wordpool_less_exclusions.txt	LTP282	ltpFR	4	16	n/a	<>	-1	n/a	n/a	n/a	n/a	n/a	n/a	n/a
2865.532	n/a	REC_WORD	1432766	wordpools/wasnorm_wordpool_less_exclusions.txt	LTP282	ltpFR	4	16	1	TUSK	1523	n/a	1	n/a	n/a	n/a	n/a	n/a
2868.644	n/a	REC_WORD	1434322	wordpools/wasnorm_wordpool_less_exclusions.txt	LTP282	ltpFR	4	16	0	SNAIL	1332	n/a	0	n/a	n/a	n/a	n/a	n/a
2882.628	n/a	REC_WORD	1441314	wordpools/wasnorm_wordpool_less_exclusions.txt	LTP282	ltpFR	4	16	1	CHAMPION	279	n/a	1	n/a	n/a	n/a	n/a	n/a
3218.218	n/a	REC_START	1609109	n/a	LTP282	ltpFR	4	1	n/a	n/a	n/a	n/a	n/a	n/a	n/a	n/a	n/a	n/a
3218.25	n/a	RECOG_LURE	1609125	n/a	LTP282	ltpFR	4	1	n/a	MASCARA	875	5	n/a	n/a	n/a	n/a	n/a	n/a
3219.698	n/a	RECOG_RESP	1609849	n/a	LTP282	ltpFR	4	1	n/a	MASCARA	875	n/a	n/a	n/a	n/a	n/a	n/a	n/a
3221.238	n/a	RECOG_CONF	1610619	n/a	LTP282	ltpFR	4	1	n/a	MASCARA	875	5	n/a	n/a	n/a	n/a	n/a	n/a
3223.192	n/a	RECOG_LURE	1611596	n/a	LTP282	ltpFR	4	1	n/a	PAVEMENT	1028	4	n/a	n/a	n/a	n/a	n/a	n/a
3223.978	n/a	RECOG_RESP	1611989	n/a	LTP282	ltpFR	4	1	n/a	PAVEMENT	1028	n/a	n/a	n/a	n/a	n/a	n/a	n/a
3224.838	n/a	RECOG_CONF	1612419	n/a	LTP282	ltpFR	4	1	n/a	PAVEMENT	1028	4	n/a	n/a	n/a	n/a	n/a	n/a
3226.736	n/a	RECOG_LURE	1613368	n/a	LTP282	ltpFR	4	1	n/a	SHORE	1291	4	n/a	n/a	n/a	n/a	n/a	n/a
3227.558	n/a	RECOG_RESP	1613779	n/a	LTP282	ltpFR	4	1	n/a	SHORE	1291	n/a	n/a	n/a	n/a	n/a	n/a	n/a
3228.018	n/a	RECOG_CONF	1614009	n/a	LTP282	ltpFR	4	1	n/a	SHORE	1291	4	n/a	n/a	n/a	n/a	n/a	n/a
3230.116	n/a	RECOG_TARGET	1615058	n/a	LTP282	ltpFR	4	1	-1	QUARTER	1148	4	-1	n/a	n/a	n/a	n/a	n/a
3230.938	n/a	RECOG_RESP	1615469	n/a	LTP282	ltpFR	4	1	-1	QUARTER	1148	n/a	-1	n/a	n/a	n/a	n/a	n/a
3231.718	n/a	RECOG_CONF	1615859	n/a	LTP282	ltpFR	4	1	-1	QUARTER	1148	4	-1	n/a	n/a	n/a	n/a	n/a
3233.526	n/a	RECOG_LURE	1616763	n/a	LTP282	ltpFR	4	1	n/a	TREAT	1501	4	n/a	n/a	n/a	n/a	n/a	n/a
3234.352	n/a	RECOG_RESP	1617176	n/a	LTP282	ltpFR	4	1	n/a	TREAT	1501	n/a	n/a	n/a	n/a	n/a	n/a	n/a
3235.068	n/a	RECOG_CONF	1617534	n/a	LTP282	ltpFR	4	1	n/a	TREAT	1501	4	n/a	n/a	n/a	n/a	n/a	n/a
3236.872	n/a	RECOG_LURE	1618436	n/a	LTP282	ltpFR	4	1	n/a	TANGERINE	1431	5	n/a	n/a	n/a	n/a	n/a	n/a
3238.164	n/a	RECOG_RESP	1619082	n/a	LTP282	ltpFR	4	1	n/a	TANGERINE	1431	n/a	n/a	n/a	n/a	n/a	n/a	n/a
3238.708	n/a	RECOG_CONF	1619354	n/a	LTP282	ltpFR	4	1	n/a	TANGERINE	1431	5	n/a	n/a	n/a	n/a	n/a	n/a
3240.666	n/a	RECOG_TARGET	1620333	n/a	LTP282	ltpFR	4	1	1	CIGARETTE	309	5	0	n/a	n/a	n/a	n/a	n/a
3241.334	n/a	RECOG_RESP	1620667	n/a	LTP282	ltpFR	4	1	1	CIGARETTE	309	n/a	0	n/a	n/a	n/a	n/a	n/a
3241.908	n/a	RECOG_CONF	1620954	n/a	LTP282	ltpFR	4	1	1	CIGARETTE	309	5	0	n/a	n/a	n/a	n/a	n/a
3243.596	n/a	RECOG_TARGET	1621798	n/a	LTP282	ltpFR	4	1	-1	JET	756	5	-1	n/a	n/a	n/a	n/a	n/a
3244.734	n/a	RECOG_RESP	1622367	n/a	LTP282	ltpFR	4	1	-1	JET	756	n/a	-1	n/a	n/a	n/a	n/a	n/a
3245.338	n/a	RECOG_CONF	1622669	n/a	LTP282	ltpFR	4	1	-1	JET	756	5	-1	n/a	n/a	n/a	n/a	n/a
3247.124	n/a	RECOG_LURE	1623562	n/a	LTP282	ltpFR	4	1	n/a	SCOTCH	1251	5	n/a	n/a	n/a	n/a	n/a	n/a
3248.008	n/a	RECOG_RESP	1624004	n/a	LTP282	ltpFR	4	1	n/a	SCOTCH	1251	n/a	n/a	n/a	n/a	n/a	n/a	n/a
3248.478	n/a	RECOG_CONF	1624239	n/a	LTP282	ltpFR	4	1	n/a	SCOTCH	1251	5	n/a	n/a	n/a	n/a	n/a	n/a
3250.652	n/a	RECOG_LURE	1625326	n/a	LTP282	ltpFR	4	1	n/a	PARTNER	1017	4	n/a	n/a	n/a	n/a	n/a	n/a
3251.474	n/a	RECOG_RESP	1625737	n/a	LTP282	ltpFR	4	1	n/a	PARTNER	1017	n/a	n/a	n/a	n/a	n/a	n/a	n/a
3252.218	n/a	RECOG_CONF	1626109	n/a	LTP282	ltpFR	4	1	n/a	PARTNER	1017	4	n/a	n/a	n/a	n/a	n/a	n/a
3254.148	n/a	RECOG_TARGET	1627074	n/a	LTP282	ltpFR	4	1	0	CAR	241	3	1	n/a	n/a	n/a	n/a	n/a
3255.248	n/a	RECOG_RESP	1627624	n/a	LTP282	ltpFR	4	1	0	CAR	241	n/a	1	n/a	n/a	n/a	n/a	n/a
3255.948	n/a	RECOG_CONF	1627974	n/a	LTP282	ltpFR	4	1	0	CAR	241	3	1	n/a	n/a	n/a	n/a	n/a
3257.858	n/a	RECOG_LURE	1628929	n/a	LTP282	ltpFR	4	1	n/a	MISSILE	900	4	n/a	n/a	n/a	n/a	n/a	n/a
3258.744	n/a	RECOG_RESP	1629372	n/a	LTP282	ltpFR	4	1	n/a	MISSILE	900	n/a	n/a	n/a	n/a	n/a	n/a	n/a
3259.188	n/a	RECOG_CONF	1629594	n/a	LTP282	ltpFR	4	1	n/a	MISSILE	900	4	n/a	n/a	n/a	n/a	n/a	n/a
3261.32	n/a	RECOG_LURE	1630660	n/a	LTP282	ltpFR	4	1	n/a	CEMETERY	269	5	n/a	n/a	n/a	n/a	n/a	n/a
3262.048	n/a	RECOG_RESP	1631024	n/a	LTP282	ltpFR	4	1	n/a	CEMETERY	269	n/a	n/a	n/a	n/a	n/a	n/a	n/a
3262.588	n/a	RECOG_CONF	1631294	n/a	LTP282	ltpFR	4	1	n/a	CEMETERY	269	5	n/a	n/a	n/a	n/a	n/a	n/a
3264.548	n/a	RECOG_LURE	1632274	n/a	LTP282	ltpFR	4	1	n/a	HOOK	715	4	n/a	n/a	n/a	n/a	n/a	n/a
3265.238	n/a	RECOG_RESP	1632619	n/a	LTP282	ltpFR	4	1	n/a	HOOK	715	n/a	n/a	n/a	n/a	n/a	n/a	n/a
3265.918	n/a	RECOG_CONF	1632959	n/a	LTP282	ltpFR	4	1	n/a	HOOK	715	4	n/a	n/a	n/a	n/a	n/a	n/a
3267.842	n/a	RECOG_TARGET	1633921	n/a	LTP282	ltpFR	4	1	-1	CAGE	218	5	-1	n/a	n/a	n/a	n/a	n/a
3268.518	n/a	RECOG_RESP	1634259	n/a	LTP282	ltpFR	4	1	-1	CAGE	218	n/a	-1	n/a	n/a	n/a	n/a	n/a
3269.258	n/a	RECOG_CONF	1634629	n/a	LTP282	ltpFR	4	1	-1	CAGE	218	5	-1	n/a	n/a	n/a	n/a	n/a
3271.04	n/a	RECOG_TARGET	1635520	n/a	LTP282	ltpFR	4	1	-1	PUB	1135	5	-1	n/a	n/a	n/a	n/a	n/a
3271.668	n/a	RECOG_RESP	1635834	n/a	LTP282	ltpFR	4	1	-1	PUB	1135	n/a	-1	n/a	n/a	n/a	n/a	n/a
3272.288	n/a	RECOG_CONF	1636144	n/a	LTP282	ltpFR	4	1	-1	PUB	1135	5	-1	n/a	n/a	n/a	n/a	n/a
3273.902	n/a	RECOG_LURE	1636951	n/a	LTP282	ltpFR	4	1	n/a	SHIP	1286	4	n/a	n/a	n/a	n/a	n/a	n/a
3274.638	n/a	RECOG_RESP	1637319	n/a	LTP282	ltpFR	4	1	n/a	SHIP	1286	n/a	n/a	n/a	n/a	n/a	n/a	n/a
3275.198	n/a	RECOG_CONF	1637599	n/a	LTP282	ltpFR	4	1	n/a	SHIP	1286	4	n/a	n/a	n/a	n/a	n/a	n/a
3277.13	n/a	RECOG_TARGET	1638565	n/a	LTP282	ltpFR	4	1	0	SALMON	1227	5	1	n/a	n/a	n/a	n/a	n/a
3277.738	n/a	RECOG_RESP	1638869	n/a	LTP282	ltpFR	4	1	0	SALMON	1227	n/a	1	n/a	n/a	n/a	n/a	n/a
3278.408	n/a	RECOG_CONF	1639204	n/a	LTP282	ltpFR	4	1	0	SALMON	1227	5	1	n/a	n/a	n/a	n/a	n/a
3280.176	n/a	RECOG_TARGET	1640088	n/a	LTP282	ltpFR	4	1	1	DUCK	504	5	1	n/a	n/a	n/a	n/a	n/a
3280.698	n/a	RECOG_RESP	1640349	n/a	LTP282	ltpFR	4	1	1	DUCK	504	n/a	1	n/a	n/a	n/a	n/a	n/a
3281.258	n/a	RECOG_CONF	1640629	n/a	LTP282	ltpFR	4	1	1	DUCK	504	5	1	n/a	n/a	n/a	n/a	n/a
3283.154	n/a	RECOG_LURE	1641577	n/a	LTP282	ltpFR	4	1	n/a	COURT	391	4	n/a	n/a	n/a	n/a	n/a	n/a
3283.908	n/a	RECOG_RESP	1641954	n/a	LTP282	ltpFR	4	1	n/a	COURT	391	n/a	n/a	n/a	n/a	n/a	n/a	n/a
3284.508	n/a	RECOG_CONF	1642254	n/a	LTP282	ltpFR	4	1	n/a	COURT	391	4	n/a	n/a	n/a	n/a	n/a	n/a
3296.53	n/a	REC_START	1648265	n/a	LTP282	ltpFR	4	2	n/a	n/a	n/a	n/a	n/a	n/a	n/a	n/a	n/a	n/a
3296.566	n/a	RECOG_TARGET	1648283	n/a	LTP282	ltpFR	4	2	1	MAYONNAISE	880	5	0	n/a	n/a	n/a	n/a	n/a
3297.12	n/a	RECOG_RESP	1648560	n/a	LTP282	ltpFR	4	2	1	MAYONNAISE	880	n/a	0	n/a	n/a	n/a	n/a	n/a
3297.62	n/a	RECOG_CONF	1648810	n/a	LTP282	ltpFR	4	2	1	MAYONNAISE	880	5	0	n/a	n/a	n/a	n/a	n/a
3299.512	n/a	RECOG_TARGET	1649756	n/a	LTP282	ltpFR	4	2	-1	RECEIPT	1173	5	-1	n/a	n/a	n/a	n/a	n/a
3300.11	n/a	RECOG_RESP	1650055	n/a	LTP282	ltpFR	4	2	-1	RECEIPT	1173	n/a	-1	n/a	n/a	n/a	n/a	n/a
3300.79	n/a	RECOG_CONF	1650395	n/a	LTP282	ltpFR	4	2	-1	RECEIPT	1173	5	-1	n/a	n/a	n/a	n/a	n/a
3302.408	n/a	RECOG_LURE	1651204	n/a	LTP282	ltpFR	4	2	n/a	SHELTER	1282	4	n/a	n/a	n/a	n/a	n/a	n/a
3303.03	n/a	RECOG_RESP	1651515	n/a	LTP282	ltpFR	4	2	n/a	SHELTER	1282	n/a	n/a	n/a	n/a	n/a	n/a	n/a
3303.51	n/a	RECOG_CONF	1651755	n/a	LTP282	ltpFR	4	2	n/a	SHELTER	1282	4	n/a	n/a	n/a	n/a	n/a	n/a
3305.438	n/a	RECOG_TARGET	1652719	n/a	LTP282	ltpFR	4	2	-1	DRUM	502	5	-1	n/a	n/a	n/a	n/a	n/a
3306.016	n/a	RECOG_RESP	1653008	n/a	LTP282	ltpFR	4	2	-1	DRUM	502	n/a	-1	n/a	n/a	n/a	n/a	n/a
3306.622	n/a	RECOG_CONF	1653311	n/a	LTP282	ltpFR	4	2	-1	DRUM	502	5	-1	n/a	n/a	n/a	n/a	n/a
3308.4	n/a	RECOG_TARGET	1654200	n/a	LTP282	ltpFR	4	2	1	MACHINE	852	2	0	n/a	n/a	n/a	n/a	n/a
3309.046	n/a	RECOG_RESP	1654523	n/a	LTP282	ltpFR	4	2	1	MACHINE	852	n/a	0	n/a	n/a	n/a	n/a	n/a
3309.802	n/a	RECOG_CONF	1654901	n/a	LTP282	ltpFR	4	2	1	MACHINE	852	2	0	n/a	n/a	n/a	n/a	n/a
3311.528	n/a	RECOG_TARGET	1655764	n/a	LTP282	ltpFR	4	2	0	DIAL	457	5	0	n/a	n/a	n/a	n/a	n/a
3312.146	n/a	RECOG_RESP	1656073	n/a	LTP282	ltpFR	4	2	0	DIAL	457	n/a	0	n/a	n/a	n/a	n/a	n/a
3312.632	n/a	RECOG_CONF	1656316	n/a	LTP282	ltpFR	4	2	0	DIAL	457	5	0	n/a	n/a	n/a	n/a	n/a
3314.49	n/a	RECOG_TARGET	1657245	n/a	LTP282	ltpFR	4	2	-1	TWEEZERS	1526	5	-1	n/a	n/a	n/a	n/a	n/a
3315.062	n/a	RECOG_RESP	1657531	n/a	LTP282	ltpFR	4	2	-1	TWEEZERS	1526	n/a	-1	n/a	n/a	n/a	n/a	n/a
3315.672	n/a	RECOG_CONF	1657836	n/a	LTP282	ltpFR	4	2	-1	TWEEZERS	1526	5	-1	n/a	n/a	n/a	n/a	n/a
3317.37	n/a	RECOG_TARGET	1658685	n/a	LTP282	ltpFR	4	2	1	CYCLONE	431	5	0	n/a	n/a	n/a	n/a	n/a
3318.006	n/a	RECOG_RESP	1659003	n/a	LTP282	ltpFR	4	2	1	CYCLONE	431	n/a	0	n/a	n/a	n/a	n/a	n/a
3318.512	n/a	RECOG_CONF	1659256	n/a	LTP282	ltpFR	4	2	1	CYCLONE	431	5	0	n/a	n/a	n/a	n/a	n/a
3320.284	n/a	RECOG_TARGET	1660142	n/a	LTP282	ltpFR	4	2	-1	SAUSAGE	1238	5	-1	n/a	n/a	n/a	n/a	n/a
3320.802	n/a	RECOG_RESP	1660401	n/a	LTP282	ltpFR	4	2	-1	SAUSAGE	1238	n/a	-1	n/a	n/a	n/a	n/a	n/a
3321.402	n/a	RECOG_CONF	1660701	n/a	LTP282	ltpFR	4	2	-1	SAUSAGE	1238	5	-1	n/a	n/a	n/a	n/a	n/a
3323.278	n/a	RECOG_LURE	1661639	n/a	LTP282	ltpFR	4	2	n/a	BOOTH	151	5	n/a	n/a	n/a	n/a	n/a	n/a
3323.922	n/a	RECOG_RESP	1661961	n/a	LTP282	ltpFR	4	2	n/a	BOOTH	151	n/a	n/a	n/a	n/a	n/a	n/a	n/a
3324.342	n/a	RECOG_CONF	1662171	n/a	LTP282	ltpFR	4	2	n/a	BOOTH	151	5	n/a	n/a	n/a	n/a	n/a	n/a
3326.39	n/a	RECOG_LURE	1663195	n/a	LTP282	ltpFR	4	2	n/a	TENT	1449	5	n/a	n/a	n/a	n/a	n/a	n/a
3326.952	n/a	RECOG_RESP	1663476	n/a	LTP282	ltpFR	4	2	n/a	TENT	1449	n/a	n/a	n/a	n/a	n/a	n/a	n/a
3327.612	n/a	RECOG_CONF	1663806	n/a	LTP282	ltpFR	4	2	n/a	TENT	1449	5	n/a	n/a	n/a	n/a	n/a	n/a
3329.336	n/a	RECOG_LURE	1664668	n/a	LTP282	ltpFR	4	2	n/a	PELICAN	1039	5	n/a	n/a	n/a	n/a	n/a	n/a
3330.062	n/a	RECOG_RESP	1665031	n/a	LTP282	ltpFR	4	2	n/a	PELICAN	1039	n/a	n/a	n/a	n/a	n/a	n/a	n/a
3330.592	n/a	RECOG_CONF	1665296	n/a	LTP282	ltpFR	4	2	n/a	PELICAN	1039	5	n/a	n/a	n/a	n/a	n/a	n/a
3332.498	n/a	RECOG_TARGET	1666249	n/a	LTP282	ltpFR	4	2	0	CONCERT	360	5	1	n/a	n/a	n/a	n/a	n/a
3333.386	n/a	RECOG_RESP	1666693	n/a	LTP282	ltpFR	4	2	0	CONCERT	360	n/a	1	n/a	n/a	n/a	n/a	n/a
3333.952	n/a	RECOG_CONF	1666976	n/a	LTP282	ltpFR	4	2	0	CONCERT	360	5	1	n/a	n/a	n/a	n/a	n/a
3335.842	n/a	RECOG_LURE	1667921	n/a	LTP282	ltpFR	4	2	n/a	BRICK	172	3	n/a	n/a	n/a	n/a	n/a	n/a
3336.766	n/a	RECOG_RESP	1668383	n/a	LTP282	ltpFR	4	2	n/a	BRICK	172	n/a	n/a	n/a	n/a	n/a	n/a	n/a
3337.402	n/a	RECOG_CONF	1668701	n/a	LTP282	ltpFR	4	2	n/a	BRICK	172	3	n/a	n/a	n/a	n/a	n/a	n/a
3339.304	n/a	RECOG_TARGET	1669652	n/a	LTP282	ltpFR	4	2	1	CAMEL	223	5	1	n/a	n/a	n/a	n/a	n/a
3339.932	n/a	RECOG_RESP	1669966	n/a	LTP282	ltpFR	4	2	1	CAMEL	223	n/a	1	n/a	n/a	n/a	n/a	n/a
3340.522	n/a	RECOG_CONF	1670261	n/a	LTP282	ltpFR	4	2	1	CAMEL	223	5	1	n/a	n/a	n/a	n/a	n/a
3342.284	n/a	RECOG_TARGET	1671142	n/a	LTP282	ltpFR	4	2	0	JEEP	753	3	1	n/a	n/a	n/a	n/a	n/a
3342.842	n/a	RECOG_RESP	1671421	n/a	LTP282	ltpFR	4	2	0	JEEP	753	n/a	1	n/a	n/a	n/a	n/a	n/a
3343.512	n/a	RECOG_CONF	1671756	n/a	LTP282	ltpFR	4	2	0	JEEP	753	3	1	n/a	n/a	n/a	n/a	n/a
3345.362	n/a	RECOG_TARGET	1672681	n/a	LTP282	ltpFR	4	2	-1	SEED	1266	5	-1	n/a	n/a	n/a	n/a	n/a
3345.972	n/a	RECOG_RESP	1672986	n/a	LTP282	ltpFR	4	2	-1	SEED	1266	n/a	-1	n/a	n/a	n/a	n/a	n/a
3346.592	n/a	RECOG_CONF	1673296	n/a	LTP282	ltpFR	4	2	-1	SEED	1266	5	-1	n/a	n/a	n/a	n/a	n/a
3348.342	n/a	RECOG_LURE	1674171	n/a	LTP282	ltpFR	4	2	n/a	DIGGER	464	5	n/a	n/a	n/a	n/a	n/a	n/a
3349.266	n/a	RECOG_RESP	1674633	n/a	LTP282	ltpFR	4	2	n/a	DIGGER	464	n/a	n/a	n/a	n/a	n/a	n/a	n/a
3349.772	n/a	RECOG_CONF	1674886	n/a	LTP282	ltpFR	4	2	n/a	DIGGER	464	5	n/a	n/a	n/a	n/a	n/a	n/a
3351.686	n/a	RECOG_TARGET	1675843	n/a	LTP282	ltpFR	4	2	0	DOUGHNUT	490	2	0	n/a	n/a	n/a	n/a	n/a
3352.426	n/a	RECOG_RESP	1676213	n/a	LTP282	ltpFR	4	2	0	DOUGHNUT	490	n/a	0	n/a	n/a	n/a	n/a	n/a
3353.112	n/a	RECOG_CONF	1676556	n/a	LTP282	ltpFR	4	2	0	DOUGHNUT	490	2	0	n/a	n/a	n/a	n/a	n/a
3354.914	n/a	RECOG_TARGET	1677457	n/a	LTP282	ltpFR	4	2	0	GRILL	661	5	1	n/a	n/a	n/a	n/a	n/a
3355.462	n/a	RECOG_RESP	1677731	n/a	LTP282	ltpFR	4	2	0	GRILL	661	n/a	1	n/a	n/a	n/a	n/a	n/a
3355.962	n/a	RECOG_CONF	1677981	n/a	LTP282	ltpFR	4	2	0	GRILL	661	5	1	n/a	n/a	n/a	n/a	n/a
3362.502	n/a	REC_START	1681251	n/a	LTP282	ltpFR	4	3	n/a	n/a	n/a	n/a	n/a	n/a	n/a	n/a	n/a	n/a
3362.536	n/a	RECOG_TARGET	1681268	n/a	LTP282	ltpFR	4	3	0	WINE	1613	5	1	n/a	n/a	n/a	n/a	n/a
3363.138	n/a	RECOG_RESP	1681569	n/a	LTP282	ltpFR	4	3	0	WINE	1613	n/a	1	n/a	n/a	n/a	n/a	n/a
3363.782	n/a	RECOG_CONF	1681891	n/a	LTP282	ltpFR	4	3	0	WINE	1613	5	1	n/a	n/a	n/a	n/a	n/a
3365.598	n/a	RECOG_TARGET	1682799	n/a	LTP282	ltpFR	4	3	-1	MOAT	903	5	-1	n/a	n/a	n/a	n/a	n/a
3366.172	n/a	RECOG_RESP	1683086	n/a	LTP282	ltpFR	4	3	-1	MOAT	903	n/a	-1	n/a	n/a	n/a	n/a	n/a
3366.742	n/a	RECOG_CONF	1683371	n/a	LTP282	ltpFR	4	3	-1	MOAT	903	5	-1	n/a	n/a	n/a	n/a	n/a
3368.576	n/a	RECOG_TARGET	1684288	n/a	LTP282	ltpFR	4	3	0	COCKTAIL	338	5	0	n/a	n/a	n/a	n/a	n/a
3369.158	n/a	RECOG_RESP	1684579	n/a	LTP282	ltpFR	4	3	0	COCKTAIL	338	n/a	0	n/a	n/a	n/a	n/a	n/a
3369.732	n/a	RECOG_CONF	1684866	n/a	LTP282	ltpFR	4	3	0	COCKTAIL	338	5	0	n/a	n/a	n/a	n/a	n/a
3371.54	n/a	RECOG_TARGET	1685770	n/a	LTP282	ltpFR	4	3	1	THICKET	1455	5	1	n/a	n/a	n/a	n/a	n/a
3372.202	n/a	RECOG_RESP	1686101	n/a	LTP282	ltpFR	4	3	1	THICKET	1455	n/a	1	n/a	n/a	n/a	n/a	n/a
3372.732	n/a	RECOG_CONF	1686366	n/a	LTP282	ltpFR	4	3	1	THICKET	1455	5	1	n/a	n/a	n/a	n/a	n/a
3374.636	n/a	RECOG_LURE	1687318	n/a	LTP282	ltpFR	4	3	n/a	PITCHFORK	1078	5	n/a	n/a	n/a	n/a	n/a	n/a
3375.254	n/a	RECOG_RESP	1687627	n/a	LTP282	ltpFR	4	3	n/a	PITCHFORK	1078	n/a	n/a	n/a	n/a	n/a	n/a	n/a
3375.886	n/a	RECOG_CONF	1687943	n/a	LTP282	ltpFR	4	3	n/a	PITCHFORK	1078	5	n/a	n/a	n/a	n/a	n/a	n/a
3377.614	n/a	RECOG_LURE	1688807	n/a	LTP282	ltpFR	4	3	n/a	SPOOL	1356	5	n/a	n/a	n/a	n/a	n/a	n/a
3378.294	n/a	RECOG_RESP	1689147	n/a	LTP282	ltpFR	4	3	n/a	SPOOL	1356	n/a	n/a	n/a	n/a	n/a	n/a	n/a
3378.844	n/a	RECOG_CONF	1689422	n/a	LTP282	ltpFR	4	3	n/a	SPOOL	1356	5	n/a	n/a	n/a	n/a	n/a	n/a
3380.644	n/a	RECOG_TARGET	1690322	n/a	LTP282	ltpFR	4	3	0	DRINK	498	5	0	n/a	n/a	n/a	n/a	n/a
3381.314	n/a	RECOG_RESP	1690657	n/a	LTP282	ltpFR	4	3	0	DRINK	498	n/a	0	n/a	n/a	n/a	n/a	n/a
3381.894	n/a	RECOG_CONF	1690947	n/a	LTP282	ltpFR	4	3	0	DRINK	498	5	0	n/a	n/a	n/a	n/a	n/a
3383.756	n/a	RECOG_LURE	1691878	n/a	LTP282	ltpFR	4	3	n/a	REGISTER	1180	5	n/a	n/a	n/a	n/a	n/a	n/a
3384.448	n/a	RECOG_RESP	1692224	n/a	LTP282	ltpFR	4	3	n/a	REGISTER	1180	n/a	n/a	n/a	n/a	n/a	n/a	n/a
3385.004	n/a	RECOG_CONF	1692502	n/a	LTP282	ltpFR	4	3	n/a	REGISTER	1180	5	n/a	n/a	n/a	n/a	n/a	n/a
3386.834	n/a	RECOG_LURE	1693417	n/a	LTP282	ltpFR	4	3	n/a	BASKET	95	3	n/a	n/a	n/a	n/a	n/a	n/a
3387.704	n/a	RECOG_RESP	1693852	n/a	LTP282	ltpFR	4	3	n/a	BASKET	95	n/a	n/a	n/a	n/a	n/a	n/a	n/a
3388.334	n/a	RECOG_CONF	1694167	n/a	LTP282	ltpFR	4	3	n/a	BASKET	95	3	n/a	n/a	n/a	n/a	n/a	n/a
3390.296	n/a	RECOG_LURE	1695148	n/a	LTP282	ltpFR	4	3	n/a	LIMB	822	4	n/a	n/a	n/a	n/a	n/a	n/a
3391.238	n/a	RECOG_RESP	1695619	n/a	LTP282	ltpFR	4	3	n/a	LIMB	822	n/a	n/a	n/a	n/a	n/a	n/a	n/a
3391.734	n/a	RECOG_CONF	1695867	n/a	LTP282	ltpFR	4	3	n/a	LIMB	822	4	n/a	n/a	n/a	n/a	n/a	n/a
3393.574	n/a	RECOG_LURE	1696787	n/a	LTP282	ltpFR	4	3	n/a	AFRICA	9	5	n/a	n/a	n/a	n/a	n/a	n/a
3394.224	n/a	RECOG_RESP	1697112	n/a	LTP282	ltpFR	4	3	n/a	AFRICA	9	n/a	n/a	n/a	n/a	n/a	n/a	n/a
3394.818	n/a	RECOG_CONF	1697409	n/a	LTP282	ltpFR	4	3	n/a	AFRICA	9	5	n/a	n/a	n/a	n/a	n/a	n/a
3396.536	n/a	RECOG_LURE	1698268	n/a	LTP282	ltpFR	4	3	n/a	TAXI	1438	2	n/a	n/a	n/a	n/a	n/a	n/a
3397.194	n/a	RECOG_RESP	1698597	n/a	LTP282	ltpFR	4	3	n/a	TAXI	1438	n/a	n/a	n/a	n/a	n/a	n/a	n/a
3397.924	n/a	RECOG_CONF	1698962	n/a	LTP282	ltpFR	4	3	n/a	TAXI	1438	2	n/a	n/a	n/a	n/a	n/a	n/a
3399.664	n/a	RECOG_TARGET	1699832	n/a	LTP282	ltpFR	4	3	0	GOVERNOR	651	3	1	n/a	n/a	n/a	n/a	n/a
3400.524	n/a	RECOG_RESP	1700262	n/a	LTP282	ltpFR	4	3	0	GOVERNOR	651	n/a	1	n/a	n/a	n/a	n/a	n/a
3401.504	n/a	RECOG_CONF	1700752	n/a	LTP282	ltpFR	4	3	0	GOVERNOR	651	3	1	n/a	n/a	n/a	n/a	n/a
3403.21	n/a	RECOG_TARGET	1701605	n/a	LTP282	ltpFR	4	3	-1	BUGLE	189	5	-1	n/a	n/a	n/a	n/a	n/a
3403.844	n/a	RECOG_RESP	1701922	n/a	LTP282	ltpFR	4	3	-1	BUGLE	189	n/a	-1	n/a	n/a	n/a	n/a	n/a
3404.374	n/a	RECOG_CONF	1702187	n/a	LTP282	ltpFR	4	3	-1	BUGLE	189	5	-1	n/a	n/a	n/a	n/a	n/a
3406.122	n/a	RECOG_TARGET	1703061	n/a	LTP282	ltpFR	4	3	0	BULL	193	4	1	n/a	n/a	n/a	n/a	n/a
3406.778	n/a	RECOG_RESP	1703389	n/a	LTP282	ltpFR	4	3	0	BULL	193	n/a	1	n/a	n/a	n/a	n/a	n/a
3407.454	n/a	RECOG_CONF	1703727	n/a	LTP282	ltpFR	4	3	0	BULL	193	4	1	n/a	n/a	n/a	n/a	n/a
3409.152	n/a	RECOG_TARGET	1704576	n/a	LTP282	ltpFR	4	3	1	SHEEP	1278	5	1	n/a	n/a	n/a	n/a	n/a
3409.728	n/a	RECOG_RESP	1704864	n/a	LTP282	ltpFR	4	3	1	SHEEP	1278	n/a	1	n/a	n/a	n/a	n/a	n/a
3410.244	n/a	RECOG_CONF	1705122	n/a	LTP282	ltpFR	4	3	1	SHEEP	1278	5	1	n/a	n/a	n/a	n/a	n/a
3412.08	n/a	RECOG_TARGET	1706040	n/a	LTP282	ltpFR	4	3	0	GUM	672	5	0	n/a	n/a	n/a	n/a	n/a
3412.684	n/a	RECOG_RESP	1706342	n/a	LTP282	ltpFR	4	3	0	GUM	672	n/a	0	n/a	n/a	n/a	n/a	n/a
3413.384	n/a	RECOG_CONF	1706692	n/a	LTP282	ltpFR	4	3	0	GUM	672	5	0	n/a	n/a	n/a	n/a	n/a
3414.942	n/a	RECOG_TARGET	1707471	n/a	LTP282	ltpFR	4	3	1	CUFF	423	5	0	n/a	n/a	n/a	n/a	n/a
3415.584	n/a	RECOG_RESP	1707792	n/a	LTP282	ltpFR	4	3	1	CUFF	423	n/a	0	n/a	n/a	n/a	n/a	n/a
3416.254	n/a	RECOG_CONF	1708127	n/a	LTP282	ltpFR	4	3	1	CUFF	423	5	0	n/a	n/a	n/a	n/a	n/a
3417.938	n/a	RECOG_LURE	1708969	n/a	LTP282	ltpFR	4	3	n/a	PRINCE	1124	5	n/a	n/a	n/a	n/a	n/a	n/a
3418.608	n/a	RECOG_RESP	1709304	n/a	LTP282	ltpFR	4	3	n/a	PRINCE	1124	n/a	n/a	n/a	n/a	n/a	n/a	n/a
3419.164	n/a	RECOG_CONF	1709582	n/a	LTP282	ltpFR	4	3	n/a	PRINCE	1124	5	n/a	n/a	n/a	n/a	n/a	n/a
3421.084	n/a	RECOG_TARGET	1710542	n/a	LTP282	ltpFR	4	3	1	COOKBOOK	373	5	0	n/a	n/a	n/a	n/a	n/a
3421.638	n/a	RECOG_RESP	1710819	n/a	LTP282	ltpFR	4	3	1	COOKBOOK	373	n/a	0	n/a	n/a	n/a	n/a	n/a
3422.324	n/a	RECOG_CONF	1711162	n/a	LTP282	ltpFR	4	3	1	COOKBOOK	373	5	0	n/a	n/a	n/a	n/a	n/a
3436.778	n/a	REC_START	1718389	n/a	LTP282	ltpFR	4	4	n/a	n/a	n/a	n/a	n/a	n/a	n/a	n/a	n/a	n/a
3436.81	n/a	RECOG_LURE	1718405	n/a	LTP282	ltpFR	4	4	n/a	OREGANO	983	5	n/a	n/a	n/a	n/a	n/a	n/a
3437.538	n/a	RECOG_RESP	1718769	n/a	LTP282	ltpFR	4	4	n/a	OREGANO	983	n/a	n/a	n/a	n/a	n/a	n/a	n/a
3437.978	n/a	RECOG_CONF	1718989	n/a	LTP282	ltpFR	4	4	n/a	OREGANO	983	5	n/a	n/a	n/a	n/a	n/a	n/a
3440.006	n/a	RECOG_TARGET	1720003	n/a	LTP282	ltpFR	4	4	0	WHALE	1601	5	1	n/a	n/a	n/a	n/a	n/a
3440.628	n/a	RECOG_RESP	1720314	n/a	LTP282	ltpFR	4	4	0	WHALE	1601	n/a	1	n/a	n/a	n/a	n/a	n/a
3441.15	n/a	RECOG_CONF	1720575	n/a	LTP282	ltpFR	4	4	0	WHALE	1601	5	1	n/a	n/a	n/a	n/a	n/a
3443.052	n/a	RECOG_TARGET	1721526	n/a	LTP282	ltpFR	4	4	1	DONKEY	484	3	1	n/a	n/a	n/a	n/a	n/a
3443.83	n/a	RECOG_RESP	1721915	n/a	LTP282	ltpFR	4	4	1	DONKEY	484	n/a	1	n/a	n/a	n/a	n/a	n/a
3444.24	n/a	RECOG_CONF	1722120	n/a	LTP282	ltpFR	4	4	1	DONKEY	484	3	1	n/a	n/a	n/a	n/a	n/a
3446.38	n/a	RECOG_TARGET	1723190	n/a	LTP282	ltpFR	4	4	0	BLOUSE	139	5	0	n/a	n/a	n/a	n/a	n/a
3447.16	n/a	RECOG_RESP	1723580	n/a	LTP282	ltpFR	4	4	0	BLOUSE	139	n/a	0	n/a	n/a	n/a	n/a	n/a
3447.72	n/a	RECOG_CONF	1723860	n/a	LTP282	ltpFR	4	4	0	BLOUSE	139	5	0	n/a	n/a	n/a	n/a	n/a
3449.624	n/a	RECOG_TARGET	1724812	n/a	LTP282	ltpFR	4	4	-1	PUCK	1138	5	-1	n/a	n/a	n/a	n/a	n/a
3450.19	n/a	RECOG_RESP	1725095	n/a	LTP282	ltpFR	4	4	-1	PUCK	1138	n/a	-1	n/a	n/a	n/a	n/a	n/a
3450.66	n/a	RECOG_CONF	1725330	n/a	LTP282	ltpFR	4	4	-1	PUCK	1138	5	-1	n/a	n/a	n/a	n/a	n/a
3452.504	n/a	RECOG_LURE	1726252	n/a	LTP282	ltpFR	4	4	n/a	GULL	671	4	n/a	n/a	n/a	n/a	n/a	n/a
3453.38	n/a	RECOG_RESP	1726690	n/a	LTP282	ltpFR	4	4	n/a	GULL	671	n/a	n/a	n/a	n/a	n/a	n/a	n/a
3453.89	n/a	RECOG_CONF	1726945	n/a	LTP282	ltpFR	4	4	n/a	GULL	671	4	n/a	n/a	n/a	n/a	n/a	n/a
3455.816	n/a	RECOG_TARGET	1727908	n/a	LTP282	ltpFR	4	4	0	OPERATOR	979	2	1	n/a	n/a	n/a	n/a	n/a
3456.744	n/a	RECOG_RESP	1728372	n/a	LTP282	ltpFR	4	4	0	OPERATOR	979	n/a	1	n/a	n/a	n/a	n/a	n/a
3457.65	n/a	RECOG_CONF	1728825	n/a	LTP282	ltpFR	4	4	0	OPERATOR	979	2	1	n/a	n/a	n/a	n/a	n/a
3459.394	n/a	RECOG_LURE	1729697	n/a	LTP282	ltpFR	4	4	n/a	LAMB	797	2	n/a	n/a	n/a	n/a	n/a	n/a
3460.54	n/a	RECOG_RESP	1730270	n/a	LTP282	ltpFR	4	4	n/a	LAMB	797	n/a	n/a	n/a	n/a	n/a	n/a	n/a
3461.26	n/a	RECOG_CONF	1730630	n/a	LTP282	ltpFR	4	4	n/a	LAMB	797	2	n/a	n/a	n/a	n/a	n/a	n/a
3463.006	n/a	RECOG_TARGET	1731503	n/a	LTP282	ltpFR	4	4	1	MERMAID	887	5	1	n/a	n/a	n/a	n/a	n/a
3463.614	n/a	RECOG_RESP	1731807	n/a	LTP282	ltpFR	4	4	1	MERMAID	887	n/a	1	n/a	n/a	n/a	n/a	n/a
3464.15	n/a	RECOG_CONF	1732075	n/a	LTP282	ltpFR	4	4	1	MERMAID	887	5	1	n/a	n/a	n/a	n/a	n/a
3466.05	n/a	RECOG_LURE	1733025	n/a	LTP282	ltpFR	4	4	n/a	CUSTARD	429	4	n/a	n/a	n/a	n/a	n/a	n/a
3466.75	n/a	RECOG_RESP	1733375	n/a	LTP282	ltpFR	4	4	n/a	CUSTARD	429	n/a	n/a	n/a	n/a	n/a	n/a	n/a
3467.4	n/a	RECOG_CONF	1733700	n/a	LTP282	ltpFR	4	4	n/a	CUSTARD	429	4	n/a	n/a	n/a	n/a	n/a	n/a
3469.312	n/a	RECOG_LURE	1734656	n/a	LTP282	ltpFR	4	4	n/a	TRACTOR	1493	3	n/a	n/a	n/a	n/a	n/a	n/a
3469.93	n/a	RECOG_RESP	1734965	n/a	LTP282	ltpFR	4	4	n/a	TRACTOR	1493	n/a	n/a	n/a	n/a	n/a	n/a	n/a
3470.3	n/a	RECOG_CONF	1735150	n/a	LTP282	ltpFR	4	4	n/a	TRACTOR	1493	3	n/a	n/a	n/a	n/a	n/a	n/a
3472.474	n/a	RECOG_LURE	1736237	n/a	LTP282	ltpFR	4	4	n/a	TRIBE	1505	5	n/a	n/a	n/a	n/a	n/a	n/a
3473.16	n/a	RECOG_RESP	1736580	n/a	LTP282	ltpFR	4	4	n/a	TRIBE	1505	n/a	n/a	n/a	n/a	n/a	n/a	n/a
3473.73	n/a	RECOG_CONF	1736865	n/a	LTP282	ltpFR	4	4	n/a	TRIBE	1505	5	n/a	n/a	n/a	n/a	n/a	n/a
3475.502	n/a	RECOG_TARGET	1737751	n/a	LTP282	ltpFR	4	4	-1	VEGETABLE	1552	2	-1	n/a	n/a	n/a	n/a	n/a
3476.15	n/a	RECOG_RESP	1738075	n/a	LTP282	ltpFR	4	4	-1	VEGETABLE	1552	n/a	-1	n/a	n/a	n/a	n/a	n/a
3476.91	n/a	RECOG_CONF	1738455	n/a	LTP282	ltpFR	4	4	-1	VEGETABLE	1552	2	-1	n/a	n/a	n/a	n/a	n/a
3478.582	n/a	RECOG_TARGET	1739291	n/a	LTP282	ltpFR	4	4	0	DIRT	472	2	0	n/a	n/a	n/a	n/a	n/a
3479.414	n/a	RECOG_RESP	1739707	n/a	LTP282	ltpFR	4	4	0	DIRT	472	n/a	0	n/a	n/a	n/a	n/a	n/a
3480.12	n/a	RECOG_CONF	1740060	n/a	LTP282	ltpFR	4	4	0	DIRT	472	2	0	n/a	n/a	n/a	n/a	n/a
3481.826	n/a	RECOG_LURE	1740913	n/a	LTP282	ltpFR	4	4	n/a	SKILLET	1317	5	n/a	n/a	n/a	n/a	n/a	n/a
3482.47	n/a	RECOG_RESP	1741235	n/a	LTP282	ltpFR	4	4	n/a	SKILLET	1317	n/a	n/a	n/a	n/a	n/a	n/a	n/a
3483.09	n/a	RECOG_CONF	1741545	n/a	LTP282	ltpFR	4	4	n/a	SKILLET	1317	5	n/a	n/a	n/a	n/a	n/a	n/a
3485.022	n/a	RECOG_TARGET	1742511	n/a	LTP282	ltpFR	4	4	1	BANKER	84	5	1	n/a	n/a	n/a	n/a	n/a
3485.93	n/a	RECOG_RESP	1742965	n/a	LTP282	ltpFR	4	4	1	BANKER	84	n/a	1	n/a	n/a	n/a	n/a	n/a
3486.46	n/a	RECOG_CONF	1743230	n/a	LTP282	ltpFR	4	4	1	BANKER	84	5	1	n/a	n/a	n/a	n/a	n/a
3488.284	n/a	RECOG_TARGET	1744142	n/a	LTP282	ltpFR	4	4	0	CROCODILE	411	4	1	n/a	n/a	n/a	n/a	n/a
3488.99	n/a	RECOG_RESP	1744495	n/a	LTP282	ltpFR	4	4	0	CROCODILE	411	n/a	1	n/a	n/a	n/a	n/a	n/a
3489.67	n/a	RECOG_CONF	1744835	n/a	LTP282	ltpFR	4	4	0	CROCODILE	411	4	1	n/a	n/a	n/a	n/a	n/a
3491.446	n/a	RECOG_LURE	1745723	n/a	LTP282	ltpFR	4	4	n/a	PRODUCER	1129	3	n/a	n/a	n/a	n/a	n/a	n/a
3492.34	n/a	RECOG_RESP	1746170	n/a	LTP282	ltpFR	4	4	n/a	PRODUCER	1129	n/a	n/a	n/a	n/a	n/a	n/a	n/a
3493.01	n/a	RECOG_CONF	1746505	n/a	LTP282	ltpFR	4	4	n/a	PRODUCER	1129	3	n/a	n/a	n/a	n/a	n/a	n/a
3494.892	n/a	RECOG_TARGET	1747446	n/a	LTP282	ltpFR	4	4	1	MONGOOSE	909	5	1	n/a	n/a	n/a	n/a	n/a
3495.41	n/a	RECOG_RESP	1747705	n/a	LTP282	ltpFR	4	4	1	MONGOOSE	909	n/a	1	n/a	n/a	n/a	n/a	n/a
3495.91	n/a	RECOG_CONF	1747955	n/a	LTP282	ltpFR	4	4	1	MONGOOSE	909	5	1	n/a	n/a	n/a	n/a	n/a
3497.602	n/a	RECOG_TARGET	1748801	n/a	LTP282	ltpFR	4	4	1	HOOP	716	2	0	n/a	n/a	n/a	n/a	n/a
3499.03	n/a	RECOG_RESP	1749515	n/a	LTP282	ltpFR	4	4	1	HOOP	716	n/a	0	n/a	n/a	n/a	n/a	n/a
3500.13	n/a	RECOG_CONF	1750065	n/a	LTP282	ltpFR	4	4	1	HOOP	716	2	0	n/a	n/a	n/a	n/a	n/a
3506.488	n/a	REC_START	1753244	n/a	LTP282	ltpFR	4	5	n/a	n/a	n/a	n/a	n/a	n/a	n/a	n/a	n/a	n/a
3506.522	n/a	RECOG_LURE	1753261	n/a	LTP282	ltpFR	4	5	n/a	LASER	801	5	n/a	n/a	n/a	n/a	n/a	n/a
3507.242	n/a	RECOG_RESP	1753621	n/a	LTP282	ltpFR	4	5	n/a	LASER	801	n/a	n/a	n/a	n/a	n/a	n/a	n/a
3507.788	n/a	RECOG_CONF	1753894	n/a	LTP282	ltpFR	4	5	n/a	LASER	801	5	n/a	n/a	n/a	n/a	n/a	n/a
3509.602	n/a	RECOG_TARGET	1754801	n/a	LTP282	ltpFR	4	5	0	BALLOT	76	5	0	n/a	n/a	n/a	n/a	n/a
3510.624	n/a	RECOG_RESP	1755312	n/a	LTP282	ltpFR	4	5	0	BALLOT	76	n/a	0	n/a	n/a	n/a	n/a	n/a
3511.198	n/a	RECOG_CONF	1755599	n/a	LTP282	ltpFR	4	5	0	BALLOT	76	5	0	n/a	n/a	n/a	n/a	n/a
3512.998	n/a	RECOG_LURE	1756499	n/a	LTP282	ltpFR	4	5	n/a	SEASHORE	1263	2	n/a	n/a	n/a	n/a	n/a	n/a
3514.038	n/a	RECOG_RESP	1757019	n/a	LTP282	ltpFR	4	5	n/a	SEASHORE	1263	n/a	n/a	n/a	n/a	n/a	n/a	n/a
3515.038	n/a	RECOG_CONF	1757519	n/a	LTP282	ltpFR	4	5	n/a	SEASHORE	1263	2	n/a	n/a	n/a	n/a	n/a	n/a
3516.892	n/a	RECOG_TARGET	1758446	n/a	LTP282	ltpFR	4	5	1	REFRIGERATOR	1179	5	0	n/a	n/a	n/a	n/a	n/a
3517.538	n/a	RECOG_RESP	1758769	n/a	LTP282	ltpFR	4	5	1	REFRIGERATOR	1179	n/a	0	n/a	n/a	n/a	n/a	n/a
3518.068	n/a	RECOG_CONF	1759034	n/a	LTP282	ltpFR	4	5	1	REFRIGERATOR	1179	5	0	n/a	n/a	n/a	n/a	n/a
3519.804	n/a	RECOG_LURE	1759902	n/a	LTP282	ltpFR	4	5	n/a	SADDLE	1221	5	n/a	n/a	n/a	n/a	n/a	n/a
3520.488	n/a	RECOG_RESP	1760244	n/a	LTP282	ltpFR	4	5	n/a	SADDLE	1221	n/a	n/a	n/a	n/a	n/a	n/a	n/a
3520.958	n/a	RECOG_CONF	1760479	n/a	LTP282	ltpFR	4	5	n/a	SADDLE	1221	5	n/a	n/a	n/a	n/a	n/a	n/a
3522.7	n/a	RECOG_LURE	1761350	n/a	LTP282	ltpFR	4	5	n/a	MICROWAVE	892	3	n/a	n/a	n/a	n/a	n/a	n/a
3523.778	n/a	RECOG_RESP	1761889	n/a	LTP282	ltpFR	4	5	n/a	MICROWAVE	892	n/a	n/a	n/a	n/a	n/a	n/a	n/a
3524.418	n/a	RECOG_CONF	1762209	n/a	LTP282	ltpFR	4	5	n/a	MICROWAVE	892	3	n/a	n/a	n/a	n/a	n/a	n/a
3526.146	n/a	RECOG_TARGET	1763073	n/a	LTP282	ltpFR	4	5	0	VOLLEYBALL	1576	5	1	n/a	n/a	n/a	n/a	n/a
3526.738	n/a	RECOG_RESP	1763369	n/a	LTP282	ltpFR	4	5	0	VOLLEYBALL	1576	n/a	1	n/a	n/a	n/a	n/a	n/a
3527.328	n/a	RECOG_CONF	1763664	n/a	LTP282	ltpFR	4	5	0	VOLLEYBALL	1576	5	1	n/a	n/a	n/a	n/a	n/a
3529.008	n/a	RECOG_TARGET	1764504	n/a	LTP282	ltpFR	4	5	-1	OVAL	990	5	-1	n/a	n/a	n/a	n/a	n/a
3529.654	n/a	RECOG_RESP	1764827	n/a	LTP282	ltpFR	4	5	-1	OVAL	990	n/a	-1	n/a	n/a	n/a	n/a	n/a
3530.138	n/a	RECOG_CONF	1765069	n/a	LTP282	ltpFR	4	5	-1	OVAL	990	5	-1	n/a	n/a	n/a	n/a	n/a
3531.852	n/a	RECOG_TARGET	1765926	n/a	LTP282	ltpFR	4	5	1	THRONE	1461	5	0	n/a	n/a	n/a	n/a	n/a
3532.678	n/a	RECOG_RESP	1766339	n/a	LTP282	ltpFR	4	5	1	THRONE	1461	n/a	0	n/a	n/a	n/a	n/a	n/a
3533.398	n/a	RECOG_CONF	1766699	n/a	LTP282	ltpFR	4	5	1	THRONE	1461	5	0	n/a	n/a	n/a	n/a	n/a
3535.066	n/a	RECOG_TARGET	1767533	n/a	LTP282	ltpFR	4	5	-1	VAULT	1550	5	-1	n/a	n/a	n/a	n/a	n/a
3535.688	n/a	RECOG_RESP	1767844	n/a	LTP282	ltpFR	4	5	-1	VAULT	1550	n/a	-1	n/a	n/a	n/a	n/a	n/a
3536.228	n/a	RECOG_CONF	1768114	n/a	LTP282	ltpFR	4	5	-1	VAULT	1550	5	-1	n/a	n/a	n/a	n/a	n/a
3537.978	n/a	RECOG_TARGET	1768989	n/a	LTP282	ltpFR	4	5	0	TOMATO	1476	1	0	n/a	n/a	n/a	n/a	n/a
3538.594	n/a	RECOG_RESP	1769297	n/a	LTP282	ltpFR	4	5	0	TOMATO	1476	n/a	0	n/a	n/a	n/a	n/a	n/a
3539.818	n/a	RECOG_CONF	1769909	n/a	LTP282	ltpFR	4	5	0	TOMATO	1476	1	0	n/a	n/a	n/a	n/a	n/a
3541.588	n/a	RECOG_TARGET	1770794	n/a	LTP282	ltpFR	4	5	1	BATHTUB	100	2	0	n/a	n/a	n/a	n/a	n/a
3542.968	n/a	RECOG_RESP	1771484	n/a	LTP282	ltpFR	4	5	1	BATHTUB	100	n/a	0	n/a	n/a	n/a	n/a	n/a
3543.928	n/a	RECOG_CONF	1771964	n/a	LTP282	ltpFR	4	5	1	BATHTUB	100	2	0	n/a	n/a	n/a	n/a	n/a
3545.566	n/a	RECOG_LURE	1772783	n/a	LTP282	ltpFR	4	5	n/a	VENUS	1557	5	n/a	n/a	n/a	n/a	n/a	n/a
3546.278	n/a	RECOG_RESP	1773139	n/a	LTP282	ltpFR	4	5	n/a	VENUS	1557	n/a	n/a	n/a	n/a	n/a	n/a	n/a
3546.808	n/a	RECOG_CONF	1773404	n/a	LTP282	ltpFR	4	5	n/a	VENUS	1557	5	n/a	n/a	n/a	n/a	n/a	n/a
3548.61	n/a	RECOG_LURE	1774305	n/a	LTP282	ltpFR	4	5	n/a	DIRECTOR	471	1	n/a	n/a	n/a	n/a	n/a	n/a
3550.368	n/a	RECOG_RESP	1775184	n/a	LTP282	ltpFR	4	5	n/a	DIRECTOR	471	n/a	n/a	n/a	n/a	n/a	n/a	n/a
3551.118	n/a	RECOG_CONF	1775559	n/a	LTP282	ltpFR	4	5	n/a	DIRECTOR	471	1	n/a	n/a	n/a	n/a	n/a	n/a
3552.906	n/a	RECOG_TARGET	1776453	n/a	LTP282	ltpFR	4	5	0	OLIVE	975	5	0	n/a	n/a	n/a	n/a	n/a
3553.448	n/a	RECOG_RESP	1776724	n/a	LTP282	ltpFR	4	5	0	OLIVE	975	n/a	0	n/a	n/a	n/a	n/a	n/a
3553.968	n/a	RECOG_CONF	1776984	n/a	LTP282	ltpFR	4	5	0	OLIVE	975	5	0	n/a	n/a	n/a	n/a	n/a
3555.816	n/a	RECOG_LURE	1777908	n/a	LTP282	ltpFR	4	5	n/a	HERB	704	4	n/a	n/a	n/a	n/a	n/a	n/a
3556.558	n/a	RECOG_RESP	1778279	n/a	LTP282	ltpFR	4	5	n/a	HERB	704	n/a	n/a	n/a	n/a	n/a	n/a	n/a
3557.118	n/a	RECOG_CONF	1778559	n/a	LTP282	ltpFR	4	5	n/a	HERB	704	4	n/a	n/a	n/a	n/a	n/a	n/a
3558.964	n/a	RECOG_TARGET	1779482	n/a	LTP282	ltpFR	4	5	-1	WORKER	1621	5	-1	n/a	n/a	n/a	n/a	n/a
3559.648	n/a	RECOG_RESP	1779824	n/a	LTP282	ltpFR	4	5	-1	WORKER	1621	n/a	-1	n/a	n/a	n/a	n/a	n/a
3560.308	n/a	RECOG_CONF	1780154	n/a	LTP282	ltpFR	4	5	-1	WORKER	1621	5	-1	n/a	n/a	n/a	n/a	n/a
3562.058	n/a	RECOG_TARGET	1781029	n/a	LTP282	ltpFR	4	5	-1	APPLICATION	34	3	-1	n/a	n/a	n/a	n/a	n/a
3562.588	n/a	RECOG_RESP	1781294	n/a	LTP282	ltpFR	4	5	-1	APPLICATION	34	n/a	-1	n/a	n/a	n/a	n/a	n/a
3563.338	n/a	RECOG_CONF	1781669	n/a	LTP282	ltpFR	4	5	-1	APPLICATION	34	3	-1	n/a	n/a	n/a	n/a	n/a
3564.97	n/a	RECOG_TARGET	1782485	n/a	LTP282	ltpFR	4	5	1	PUPPY	1144	5	1	n/a	n/a	n/a	n/a	n/a
3565.468	n/a	RECOG_RESP	1782734	n/a	LTP282	ltpFR	4	5	1	PUPPY	1144	n/a	1	n/a	n/a	n/a	n/a	n/a
3566.098	n/a	RECOG_CONF	1783049	n/a	LTP282	ltpFR	4	5	1	PUPPY	1144	5	1	n/a	n/a	n/a	n/a	n/a
3567.8	n/a	RECOG_TARGET	1783900	n/a	LTP282	ltpFR	4	5	0	SPINE	1353	5	1	n/a	n/a	n/a	n/a	n/a
3568.344	n/a	RECOG_RESP	1784172	n/a	LTP282	ltpFR	4	5	0	SPINE	1353	n/a	1	n/a	n/a	n/a	n/a	n/a
3569.008	n/a	RECOG_CONF	1784504	n/a	LTP282	ltpFR	4	5	0	SPINE	1353	5	1	n/a	n/a	n/a	n/a	n/a
3574.316	n/a	REC_START	1787158	n/a	LTP282	ltpFR	4	6	n/a	n/a	n/a	n/a	n/a	n/a	n/a	n/a	n/a	n/a
3574.356	n/a	RECOG_TARGET	1787178	n/a	LTP282	ltpFR	4	6	-1	VILLAGE	1566	5	-1	n/a	n/a	n/a	n/a	n/a
3574.916	n/a	RECOG_RESP	1787458	n/a	LTP282	ltpFR	4	6	-1	VILLAGE	1566	n/a	-1	n/a	n/a	n/a	n/a	n/a
3575.626	n/a	RECOG_CONF	1787813	n/a	LTP282	ltpFR	4	6	-1	VILLAGE	1566	5	-1	n/a	n/a	n/a	n/a	n/a
3577.254	n/a	RECOG_LURE	1788627	n/a	LTP282	ltpFR	4	6	n/a	TUTU	1524	5	n/a	n/a	n/a	n/a	n/a	n/a
3577.842	n/a	RECOG_RESP	1788921	n/a	LTP282	ltpFR	4	6	n/a	TUTU	1524	n/a	n/a	n/a	n/a	n/a	n/a	n/a
3578.176	n/a	RECOG_CONF	1789088	n/a	LTP282	ltpFR	4	6	n/a	TUTU	1524	5	n/a	n/a	n/a	n/a	n/a	n/a
3580.15	n/a	RECOG_LURE	1790075	n/a	LTP282	ltpFR	4	6	n/a	STADIUM	1364	3	n/a	n/a	n/a	n/a	n/a	n/a
3581.146	n/a	RECOG_RESP	1790573	n/a	LTP282	ltpFR	4	6	n/a	STADIUM	1364	n/a	n/a	n/a	n/a	n/a	n/a	n/a
3581.586	n/a	RECOG_CONF	1790793	n/a	LTP282	ltpFR	4	6	n/a	STADIUM	1364	3	n/a	n/a	n/a	n/a	n/a	n/a
3583.56	n/a	RECOG_LURE	1791780	n/a	LTP282	ltpFR	4	6	n/a	CHOCOLATE	306	3	n/a	n/a	n/a	n/a	n/a	n/a
3584.296	n/a	RECOG_RESP	1792148	n/a	LTP282	ltpFR	4	6	n/a	CHOCOLATE	306	n/a	n/a	n/a	n/a	n/a	n/a	n/a
3584.746	n/a	RECOG_CONF	1792373	n/a	LTP282	ltpFR	4	6	n/a	CHOCOLATE	306	3	n/a	n/a	n/a	n/a	n/a	n/a
3586.756	n/a	RECOG_LURE	1793378	n/a	LTP282	ltpFR	4	6	n/a	POISON	1096	5	n/a	n/a	n/a	n/a	n/a	n/a
3588.146	n/a	RECOG_RESP	1794073	n/a	LTP282	ltpFR	4	6	n/a	POISON	1096	n/a	n/a	n/a	n/a	n/a	n/a	n/a
3588.746	n/a	RECOG_CONF	1794373	n/a	LTP282	ltpFR	4	6	n/a	POISON	1096	5	n/a	n/a	n/a	n/a	n/a	n/a
3590.682	n/a	RECOG_TARGET	1795341	n/a	LTP282	ltpFR	4	6	1	COMET	353	2	0	n/a	n/a	n/a	n/a	n/a
3591.726	n/a	RECOG_RESP	1795863	n/a	LTP282	ltpFR	4	6	1	COMET	353	n/a	0	n/a	n/a	n/a	n/a	n/a
3592.416	n/a	RECOG_CONF	1796208	n/a	LTP282	ltpFR	4	6	1	COMET	353	2	0	n/a	n/a	n/a	n/a	n/a
3594.212	n/a	RECOG_TARGET	1797106	n/a	LTP282	ltpFR	4	6	1	DICTATOR	462	5	0	n/a	n/a	n/a	n/a	n/a
3594.886	n/a	RECOG_RESP	1797443	n/a	LTP282	ltpFR	4	6	1	DICTATOR	462	n/a	0	n/a	n/a	n/a	n/a	n/a
3595.506	n/a	RECOG_CONF	1797753	n/a	LTP282	ltpFR	4	6	1	DICTATOR	462	5	0	n/a	n/a	n/a	n/a	n/a
3597.29	n/a	RECOG_TARGET	1798645	n/a	LTP282	ltpFR	4	6	-1	CLIPPERS	324	5	-1	n/a	n/a	n/a	n/a	n/a
3597.846	n/a	RECOG_RESP	1798923	n/a	LTP282	ltpFR	4	6	-1	CLIPPERS	324	n/a	-1	n/a	n/a	n/a	n/a	n/a
3598.366	n/a	RECOG_CONF	1799183	n/a	LTP282	ltpFR	4	6	-1	CLIPPERS	324	5	-1	n/a	n/a	n/a	n/a	n/a
3600.136	n/a	RECOG_TARGET	1800068	n/a	LTP282	ltpFR	4	6	0	TEAPOT	1442	5	0	n/a	n/a	n/a	n/a	n/a
3600.732	n/a	RECOG_RESP	1800366	n/a	LTP282	ltpFR	4	6	0	TEAPOT	1442	n/a	0	n/a	n/a	n/a	n/a	n/a
3601.406	n/a	RECOG_CONF	1800703	n/a	LTP282	ltpFR	4	6	0	TEAPOT	1442	5	0	n/a	n/a	n/a	n/a	n/a
3603.066	n/a	RECOG_TARGET	1801533	n/a	LTP282	ltpFR	4	6	1	TWINE	1529	4	0	n/a	n/a	n/a	n/a	n/a
3603.706	n/a	RECOG_RESP	1801853	n/a	LTP282	ltpFR	4	6	1	TWINE	1529	n/a	0	n/a	n/a	n/a	n/a	n/a
3604.276	n/a	RECOG_CONF	1802138	n/a	LTP282	ltpFR	4	6	1	TWINE	1529	4	0	n/a	n/a	n/a	n/a	n/a
3606.078	n/a	RECOG_LURE	1803039	n/a	LTP282	ltpFR	4	6	n/a	UNCLE	1536	3	n/a	n/a	n/a	n/a	n/a	n/a
3606.836	n/a	RECOG_RESP	1803418	n/a	LTP282	ltpFR	4	6	n/a	UNCLE	1536	n/a	n/a	n/a	n/a	n/a	n/a	n/a
3607.476	n/a	RECOG_CONF	1803738	n/a	LTP282	ltpFR	4	6	n/a	UNCLE	1536	3	n/a	n/a	n/a	n/a	n/a	n/a
3609.206	n/a	RECOG_TARGET	1804603	n/a	LTP282	ltpFR	4	6	0	RAISIN	1163	5	0	n/a	n/a	n/a	n/a	n/a
3609.756	n/a	RECOG_RESP	1804878	n/a	LTP282	ltpFR	4	6	0	RAISIN	1163	n/a	0	n/a	n/a	n/a	n/a	n/a
3610.406	n/a	RECOG_CONF	1805203	n/a	LTP282	ltpFR	4	6	0	RAISIN	1163	5	0	n/a	n/a	n/a	n/a	n/a
3612.284	n/a	RECOG_LURE	1806142	n/a	LTP282	ltpFR	4	6	n/a	THERMOMETER	1453	5	n/a	n/a	n/a	n/a	n/a	n/a
3612.946	n/a	RECOG_RESP	1806473	n/a	LTP282	ltpFR	4	6	n/a	THERMOMETER	1453	n/a	n/a	n/a	n/a	n/a	n/a	n/a
3613.496	n/a	RECOG_CONF	1806748	n/a	LTP282	ltpFR	4	6	n/a	THERMOMETER	1453	5	n/a	n/a	n/a	n/a	n/a	n/a
3615.364	n/a	RECOG_TARGET	1807682	n/a	LTP282	ltpFR	4	6	0	RUNNER	1218	1	1	n/a	n/a	n/a	n/a	n/a
3616.116	n/a	RECOG_RESP	1808058	n/a	LTP282	ltpFR	4	6	0	RUNNER	1218	n/a	1	n/a	n/a	n/a	n/a	n/a
3617.246	n/a	RECOG_CONF	1808623	n/a	LTP282	ltpFR	4	6	0	RUNNER	1218	1	1	n/a	n/a	n/a	n/a	n/a
3619.042	n/a	RECOG_TARGET	1809521	n/a	LTP282	ltpFR	4	6	1	MACARONI	851	2	0	n/a	n/a	n/a	n/a	n/a
3620.776	n/a	RECOG_RESP	1810388	n/a	LTP282	ltpFR	4	6	1	MACARONI	851	n/a	0	n/a	n/a	n/a	n/a	n/a
3621.576	n/a	RECOG_CONF	1810788	n/a	LTP282	ltpFR	4	6	1	MACARONI	851	2	0	n/a	n/a	n/a	n/a	n/a
3623.368	n/a	RECOG_TARGET	1811684	n/a	LTP282	ltpFR	4	6	0	BONE	148	2	1	n/a	n/a	n/a	n/a	n/a
3623.936	n/a	RECOG_RESP	1811968	n/a	LTP282	ltpFR	4	6	0	BONE	148	n/a	1	n/a	n/a	n/a	n/a	n/a
3624.686	n/a	RECOG_CONF	1812343	n/a	LTP282	ltpFR	4	6	0	BONE	148	2	1	n/a	n/a	n/a	n/a	n/a
3626.446	n/a	RECOG_TARGET	1813223	n/a	LTP282	ltpFR	4	6	-1	HAWK	692	5	-1	n/a	n/a	n/a	n/a	n/a
3626.996	n/a	RECOG_RESP	1813498	n/a	LTP282	ltpFR	4	6	-1	HAWK	692	n/a	-1	n/a	n/a	n/a	n/a	n/a
