mstime	trial_type	stim_file	subject	experiment	session	trial	task	item_name	item_num	recog_conf	resp	answer	test_x	test_y	test_z	color_b	color_g	color_r	case	font
0	SESS_START	n/a	LTP240	ltpFR	14	n/a	n/a	n/a	n/a	2	n/a	n/a	0	0	0	n/a	n/a	n/a	n/a	n/a
20685	START	n/a	LTP240	ltpFR	14	n/a	n/a	n/a	n/a	n/a	n/a	n/a	n/a	n/a	n/a	n/a	n/a	n/a	n/a	n/a
20735	PROB	n/a	LTP240	ltpFR	14	n/a	n/a	n/a	n/a	n/a	n/a	17	7	5	5	n/a	n/a	n/a	n/a	n/a
22993	PROB	n/a	LTP240	ltpFR	14	n/a	n/a	n/a	n/a	n/a	n/a	13	6	4	3	n/a	n/a	n/a	n/a	n/a
24365	PROB	n/a	LTP240	ltpFR	14	n/a	n/a	n/a	n/a	n/a	n/a	24	6	9	9	n/a	n/a	n/a	n/a	n/a
26222	PROB	n/a	LTP240	ltpFR	14	n/a	n/a	n/a	n/a	n/a	n/a	13	8	3	2	n/a	n/a	n/a	n/a	n/a
27560	PROB	n/a	LTP240	ltpFR	14	n/a	n/a	n/a	n/a	n/a	n/a	14	6	2	6	n/a	n/a	n/a	n/a	n/a
30856	PROB	n/a	LTP240	ltpFR	14	n/a	n/a	n/a	n/a	n/a	n/a	11	3	6	2	n/a	n/a	n/a	n/a	n/a
32797	PROB	n/a	LTP240	ltpFR	14	n/a	n/a	n/a	n/a	n/a	n/a	15	5	5	5	n/a	n/a	n/a	n/a	n/a
34001	PROB	n/a	LTP240	ltpFR	14	n/a	n/a	n/a	n/a	n/a	n/a	12	8	1	3	n/a	n/a	n/a	n/a	n/a
40685	STOP	n/a	LTP240	ltpFR	14	n/a	n/a	n/a	n/a	n/a	n/a	n/a	n/a	n/a	n/a	n/a	n/a	n/a	n/a	n/a
77582	WORD	wordpools/wasnorm_wordpool_less_exclusions.txt	LTP240	ltpFR	14	1	0	UNICORN	1538	n/a	1	n/a	0	0	0	1	0.412841796875	0.57763671875	upper	../fonts/amplitud.ttf
81794	WORD	wordpools/wasnorm_wordpool_less_exclusions.txt	LTP240	ltpFR	14	1	0	MACHINE	852	n/a	1	n/a	0	0	0	1	0.412841796875	0.57763671875	upper	../fonts/amplitud.ttf
85914	WORD	wordpools/wasnorm_wordpool_less_exclusions.txt	LTP240	ltpFR	14	1	0	PEANUT	1032	n/a	0	n/a	0	0	0	1	0.412841796875	0.57763671875	upper	../fonts/amplitud.ttf
89828	WORD	wordpools/wasnorm_wordpool_less_exclusions.txt	LTP240	ltpFR	14	1	0	FRECKLE	602	n/a	0	n/a	0	0	0	1	0.412841796875	0.57763671875	upper	../fonts/amplitud.ttf
94011	WORD	wordpools/wasnorm_wordpool_less_exclusions.txt	LTP240	ltpFR	14	1	0	LIPSTICK	829	n/a	0	n/a	0	0	0	1	0.412841796875	0.57763671875	upper	../fonts/amplitud.ttf
97838	WORD	wordpools/wasnorm_wordpool_less_exclusions.txt	LTP240	ltpFR	14	1	0	MINK	897	n/a	0	n/a	0	0	0	1	0.412841796875	0.57763671875	upper	../fonts/amplitud.ttf
101970	WORD	wordpools/wasnorm_wordpool_less_exclusions.txt	LTP240	ltpFR	14	1	1	SALIVA	1226	n/a	0	n/a	0	0	0	0	0.5869140625	0.422607421875	lower	../fonts/zerothre.ttf
105956	WORD	wordpools/wasnorm_wordpool_less_exclusions.txt	LTP240	ltpFR	14	1	1	SUBMARINE	1398	n/a	0	n/a	0	0	0	0	0.5869140625	0.422607421875	lower	../fonts/zerothre.ttf
109804	WORD	wordpools/wasnorm_wordpool_less_exclusions.txt	LTP240	ltpFR	14	1	1	TREAD	1499	n/a	0	n/a	0	0	0	0	0.5869140625	0.422607421875	lower	../fonts/zerothre.ttf
113718	WORD	wordpools/wasnorm_wordpool_less_exclusions.txt	LTP240	ltpFR	14	1	1	CAULIFLOWER	262	n/a	0	n/a	0	0	0	0	0.5869140625	0.422607421875	lower	../fonts/zerothre.ttf
117914	WORD	wordpools/wasnorm_wordpool_less_exclusions.txt	LTP240	ltpFR	14	1	0	MOSS	918	n/a	0	n/a	0	0	0	1	0.412841796875	0.57763671875	upper	../fonts/amplitud.ttf
121782	WORD	wordpools/wasnorm_wordpool_less_exclusions.txt	LTP240	ltpFR	14	1	0	DEPUTY	450	n/a	1	n/a	0	0	0	1	0.412841796875	0.57763671875	upper	../fonts/amplitud.ttf
125860	WORD	wordpools/wasnorm_wordpool_less_exclusions.txt	LTP240	ltpFR	14	1	1	CHIPMUNK	304	n/a	1	n/a	0	0	0	0	0.5869140625	0.422607421875	lower	../fonts/zerothre.ttf
129762	WORD	wordpools/wasnorm_wordpool_less_exclusions.txt	LTP240	ltpFR	14	1	1	METEOR	889	n/a	0	n/a	0	0	0	0	0.5869140625	0.422607421875	lower	../fonts/zerothre.ttf
133723	WORD	wordpools/wasnorm_wordpool_less_exclusions.txt	LTP240	ltpFR	14	1	1	SPY	1360	n/a	1	n/a	0	0	0	0	0.5869140625	0.422607421875	lower	../fonts/zerothre.ttf
137889	WORD	wordpools/wasnorm_wordpool_less_exclusions.txt	LTP240	ltpFR	14	1	1	PRINTER	1126	n/a	0	n/a	0	0	0	0	0.5869140625	0.422607421875	lower	../fonts/zerothre.ttf
140904	START	n/a	LTP240	ltpFR	14	n/a	n/a	n/a	n/a	n/a	n/a	n/a	n/a	n/a	n/a	n/a	n/a	n/a	n/a	n/a
141992	PROB	n/a	LTP240	ltpFR	14	n/a	n/a	n/a	n/a	n/a	n/a	10	1	4	5	n/a	n/a	n/a	n/a	n/a
143949	PROB	n/a	LTP240	ltpFR	14	n/a	n/a	n/a	n/a	n/a	n/a	16	7	5	4	n/a	n/a	n/a	n/a	n/a
146274	PROB	n/a	LTP240	ltpFR	14	n/a	n/a	n/a	n/a	n/a	n/a	10	1	8	1	n/a	n/a	n/a	n/a	n/a
147431	STOP	n/a	LTP240	ltpFR	14	n/a	n/a	n/a	n/a	n/a	n/a	n/a	n/a	n/a	n/a	n/a	n/a	n/a	n/a	n/a
150809	REC_START	n/a	LTP240	ltpFR	14	1	n/a	n/a	n/a	n/a	n/a	n/a	0	0	0	n/a	n/a	n/a	n/a	n/a
152669	REC_WORD	wordpools/wasnorm_wordpool_less_exclusions.txt	LTP240	ltpFR	14	1	1	METEOR	889	n/a	0	n/a	0	0	0	n/a	n/a	n/a	n/a	n/a
153905	REC_WORD	wordpools/wasnorm_wordpool_less_exclusions.txt	LTP240	ltpFR	14	1	1	SPY	1360	n/a	1	n/a	0	0	0	n/a	n/a	n/a	n/a	n/a
155438	REC_WORD	wordpools/wasnorm_wordpool_less_exclusions.txt	LTP240	ltpFR	14	1	1	CAULIFLOWER	262	n/a	0	n/a	0	0	0	n/a	n/a	n/a	n/a	n/a
157628	REC_WORD	wordpools/wasnorm_wordpool_less_exclusions.txt	LTP240	ltpFR	14	1	0	UNICORN	1538	n/a	1	n/a	0	0	0	n/a	n/a	n/a	n/a	n/a
158965	REC_WORD	wordpools/wasnorm_wordpool_less_exclusions.txt	LTP240	ltpFR	14	1	0	MACHINE	852	n/a	1	n/a	0	0	0	n/a	n/a	n/a	n/a	n/a
160103	REC_WORD	wordpools/wasnorm_wordpool_less_exclusions.txt	LTP240	ltpFR	14	1	1	SUBMARINE	1398	n/a	0	n/a	0	0	0	n/a	n/a	n/a	n/a	n/a
162203	REC_WORD	wordpools/wasnorm_wordpool_less_exclusions.txt	LTP240	ltpFR	14	1	1	CHIPMUNK	304	n/a	1	n/a	0	0	0	n/a	n/a	n/a	n/a	n/a
163241	REC_WORD	wordpools/wasnorm_wordpool_less_exclusions.txt	LTP240	ltpFR	14	1	1	TREAD	1499	n/a	0	n/a	0	0	0	n/a	n/a	n/a	n/a	n/a
164538	REC_WORD	wordpools/wasnorm_wordpool_less_exclusions.txt	LTP240	ltpFR	14	1	1	PRINTER	1126	n/a	0	n/a	0	0	0	n/a	n/a	n/a	n/a	n/a
170719	REC_WORD	wordpools/wasnorm_wordpool_less_exclusions.txt	LTP240	ltpFR	14	1	1	SALIVA	1226	n/a	0	n/a	0	0	0	n/a	n/a	n/a	n/a	n/a
177593	REC_WORD	wordpools/wasnorm_wordpool_less_exclusions.txt	LTP240	ltpFR	14	1	0	DEPUTY	450	n/a	1	n/a	0	0	0	n/a	n/a	n/a	n/a	n/a
179109	REC_WORD	wordpools/wasnorm_wordpool_less_exclusions.txt	LTP240	ltpFR	14	1	0	MOSS	918	n/a	0	n/a	0	0	0	n/a	n/a	n/a	n/a	n/a
180701	REC_WORD	wordpools/wasnorm_wordpool_less_exclusions.txt	LTP240	ltpFR	14	1	0	PEANUT	1032	n/a	0	n/a	0	0	0	n/a	n/a	n/a	n/a	n/a
181936	REC_WORD	wordpools/wasnorm_wordpool_less_exclusions.txt	LTP240	ltpFR	14	1	0	LIPSTICK	829	n/a	0	n/a	0	0	0	n/a	n/a	n/a	n/a	n/a
208223	REC_WORD	wordpools/wasnorm_wordpool_less_exclusions.txt	LTP240	ltpFR	14	1	0	MINK	897	n/a	0	n/a	0	0	0	n/a	n/a	n/a	n/a	n/a
233768	START	n/a	LTP240	ltpFR	14	n/a	n/a	n/a	n/a	n/a	n/a	n/a	n/a	n/a	n/a	n/a	n/a	n/a	n/a	n/a
235276	PROB	n/a	LTP240	ltpFR	14	n/a	n/a	n/a	n/a	n/a	n/a	11	1	7	3	n/a	n/a	n/a	n/a	n/a
237033	PROB	n/a	LTP240	ltpFR	14	n/a	n/a	n/a	n/a	n/a	n/a	12	3	5	4	n/a	n/a	n/a	n/a	n/a
239760	PROB	n/a	LTP240	ltpFR	14	n/a	n/a	n/a	n/a	n/a	n/a	13	1	5	7	n/a	n/a	n/a	n/a	n/a
241270	STOP	n/a	LTP240	ltpFR	14	n/a	n/a	n/a	n/a	n/a	n/a	n/a	n/a	n/a	n/a	n/a	n/a	n/a	n/a	n/a
242788	WORD	wordpools/wasnorm_wordpool_less_exclusions.txt	LTP240	ltpFR	14	2	1	FOUNTAIN	597	n/a	0	n/a	0	0	0	0	0.5869140625	0.422607421875	lower	../fonts/zerothre.ttf
245800	START	n/a	LTP240	ltpFR	14	n/a	n/a	n/a	n/a	n/a	n/a	n/a	n/a	n/a	n/a	n/a	n/a	n/a	n/a	n/a
246636	PROB	n/a	LTP240	ltpFR	14	n/a	n/a	n/a	n/a	n/a	n/a	18	8	9	1	n/a	n/a	n/a	n/a	n/a
248155	PROB	n/a	LTP240	ltpFR	14	n/a	n/a	n/a	n/a	n/a	n/a	18	5	8	5	n/a	n/a	n/a	n/a	n/a
249547	PROB	n/a	LTP240	ltpFR	14	n/a	n/a	n/a	n/a	n/a	n/a	9	5	1	3	n/a	n/a	n/a	n/a	n/a
251120	PROB	n/a	LTP240	ltpFR	14	n/a	n/a	n/a	n/a	n/a	n/a	10	1	6	3	n/a	n/a	n/a	n/a	n/a
252998	STOP	n/a	LTP240	ltpFR	14	n/a	n/a	n/a	n/a	n/a	n/a	n/a	n/a	n/a	n/a	n/a	n/a	n/a	n/a	n/a
254733	WORD	wordpools/wasnorm_wordpool_less_exclusions.txt	LTP240	ltpFR	14	2	1	BROOK	177	n/a	0	n/a	0	0	0	0	0.5869140625	0.422607421875	lower	../fonts/zerothre.ttf
257745	START	n/a	LTP240	ltpFR	14	n/a	n/a	n/a	n/a	n/a	n/a	n/a	n/a	n/a	n/a	n/a	n/a	n/a	n/a	n/a
258795	PROB	n/a	LTP240	ltpFR	14	n/a	n/a	n/a	n/a	n/a	n/a	9	5	1	3	n/a	n/a	n/a	n/a	n/a
260652	PROB	n/a	LTP240	ltpFR	14	n/a	n/a	n/a	n/a	n/a	n/a	9	1	5	3	n/a	n/a	n/a	n/a	n/a
262512	PROB	n/a	LTP240	ltpFR	14	n/a	n/a	n/a	n/a	n/a	n/a	13	4	3	6	n/a	n/a	n/a	n/a	n/a
264081	PROB	n/a	LTP240	ltpFR	14	n/a	n/a	n/a	n/a	n/a	n/a	13	3	5	5	n/a	n/a	n/a	n/a	n/a
265166	STOP	n/a	LTP240	ltpFR	14	n/a	n/a	n/a	n/a	n/a	n/a	n/a	n/a	n/a	n/a	n/a	n/a	n/a	n/a	n/a
266925	WORD	wordpools/wasnorm_wordpool_less_exclusions.txt	LTP240	ltpFR	14	2	1	PRINCESS	1125	n/a	1	n/a	0	0	0	0	0.5869140625	0.422607421875	lower	../fonts/zerothre.ttf
269941	START	n/a	LTP240	ltpFR	14	n/a	n/a	n/a	n/a	n/a	n/a	n/a	n/a	n/a	n/a	n/a	n/a	n/a	n/a	n/a
271041	PROB	n/a	LTP240	ltpFR	14	n/a	n/a	n/a	n/a	n/a	n/a	17	9	7	1	n/a	n/a	n/a	n/a	n/a
272751	PROB	n/a	LTP240	ltpFR	14	n/a	n/a	n/a	n/a	n/a	n/a	15	7	6	2	n/a	n/a	n/a	n/a	n/a
275140	PROB	n/a	LTP240	ltpFR	14	n/a	n/a	n/a	n/a	n/a	n/a	9	1	4	4	n/a	n/a	n/a	n/a	n/a
276382	STOP	n/a	LTP240	ltpFR	14	n/a	n/a	n/a	n/a	n/a	n/a	n/a	n/a	n/a	n/a	n/a	n/a	n/a	n/a	n/a
278908	WORD	wordpools/wasnorm_wordpool_less_exclusions.txt	LTP240	ltpFR	14	2	1	ASTEROID	50	n/a	0	n/a	0	0	0	0	0.5869140625	0.422607421875	lower	../fonts/zerothre.ttf
281920	START	n/a	LTP240	ltpFR	14	n/a	n/a	n/a	n/a	n/a	n/a	n/a	n/a	n/a	n/a	n/a	n/a	n/a	n/a	n/a
282889	PROB	n/a	LTP240	ltpFR	14	n/a	n/a	n/a	n/a	n/a	n/a	13	6	4	3	n/a	n/a	n/a	n/a	n/a
284191	PROB	n/a	LTP240	ltpFR	14	n/a	n/a	n/a	n/a	n/a	n/a	23	9	6	8	n/a	n/a	n/a	n/a	n/a
287707	PROB	n/a	LTP240	ltpFR	14	n/a	n/a	n/a	n/a	n/a	n/a	8	6	1	1	n/a	n/a	n/a	n/a	n/a
288942	STOP	n/a	LTP240	ltpFR	14	n/a	n/a	n/a	n/a	n/a	n/a	n/a	n/a	n/a	n/a	n/a	n/a	n/a	n/a	n/a
290752	WORD	wordpools/wasnorm_wordpool_less_exclusions.txt	LTP240	ltpFR	14	2	1	BOULDER	155	n/a	0	n/a	0	0	0	0	0.5869140625	0.422607421875	lower	../fonts/zerothre.ttf
293764	START	n/a	LTP240	ltpFR	14	n/a	n/a	n/a	n/a	n/a	n/a	n/a	n/a	n/a	n/a	n/a	n/a	n/a	n/a	n/a
294901	PROB	n/a	LTP240	ltpFR	14	n/a	n/a	n/a	n/a	n/a	n/a	16	2	7	7	n/a	n/a	n/a	n/a	n/a
296353	PROB	n/a	LTP240	ltpFR	14	n/a	n/a	n/a	n/a	n/a	n/a	21	9	3	9	n/a	n/a	n/a	n/a	n/a
298193	PROB	n/a	LTP240	ltpFR	14	n/a	n/a	n/a	n/a	n/a	n/a	12	4	4	4	n/a	n/a	n/a	n/a	n/a
299385	PROB	n/a	LTP240	ltpFR	14	n/a	n/a	n/a	n/a	n/a	n/a	12	3	8	1	n/a	n/a	n/a	n/a	n/a
301070	STOP	n/a	LTP240	ltpFR	14	n/a	n/a	n/a	n/a	n/a	n/a	n/a	n/a	n/a	n/a	n/a	n/a	n/a	n/a	n/a
302848	WORD	wordpools/wasnorm_wordpool_less_exclusions.txt	LTP240	ltpFR	14	2	1	TANK	1432	n/a	0	n/a	0	0	0	0	0.5869140625	0.422607421875	lower	../fonts/zerothre.ttf
305860	START	n/a	LTP240	ltpFR	14	n/a	n/a	n/a	n/a	n/a	n/a	n/a	n/a	n/a	n/a	n/a	n/a	n/a	n/a	n/a
306779	PROB	n/a	LTP240	ltpFR	14	n/a	n/a	n/a	n/a	n/a	n/a	14	8	2	4	n/a	n/a	n/a	n/a	n/a
308553	PROB	n/a	LTP240	ltpFR	14	n/a	n/a	n/a	n/a	n/a	n/a	20	8	9	3	n/a	n/a	n/a	n/a	n/a
313860	STOP	n/a	LTP240	ltpFR	14	n/a	n/a	n/a	n/a	n/a	n/a	n/a	n/a	n/a	n/a	n/a	n/a	n/a	n/a	n/a
314873	WORD	wordpools/wasnorm_wordpool_less_exclusions.txt	LTP240	ltpFR	14	2	1	FREEZER	604	n/a	0	n/a	0	0	0	0	0.5869140625	0.422607421875	lower	../fonts/zerothre.ttf
317889	START	n/a	LTP240	ltpFR	14	n/a	n/a	n/a	n/a	n/a	n/a	n/a	n/a	n/a	n/a	n/a	n/a	n/a	n/a	n/a
318925	PROB	n/a	LTP240	ltpFR	14	n/a	n/a	n/a	n/a	n/a	n/a	17	8	5	4	n/a	n/a	n/a	n/a	n/a
321330	PROB	n/a	LTP240	ltpFR	14	n/a	n/a	n/a	n/a	n/a	n/a	16	6	7	3	n/a	n/a	n/a	n/a	n/a
322619	PROB	n/a	LTP240	ltpFR	14	n/a	n/a	n/a	n/a	n/a	n/a	8	2	1	5	n/a	n/a	n/a	n/a	n/a
324175	PROB	n/a	LTP240	ltpFR	14	n/a	n/a	n/a	n/a	n/a	n/a	14	9	4	1	n/a	n/a	n/a	n/a	n/a
325334	STOP	n/a	LTP240	ltpFR	14	n/a	n/a	n/a	n/a	n/a	n/a	n/a	n/a	n/a	n/a	n/a	n/a	n/a	n/a	n/a
326888	WORD	wordpools/wasnorm_wordpool_less_exclusions.txt	LTP240	ltpFR	14	2	1	SWEATER	1419	n/a	0	n/a	0	0	0	0	0.5869140625	0.422607421875	lower	../fonts/zerothre.ttf
329900	START	n/a	LTP240	ltpFR	14	n/a	n/a	n/a	n/a	n/a	n/a	n/a	n/a	n/a	n/a	n/a	n/a	n/a	n/a	n/a
330837	PROB	n/a	LTP240	ltpFR	14	n/a	n/a	n/a	n/a	n/a	n/a	19	3	9	7	n/a	n/a	n/a	n/a	n/a
332423	PROB	n/a	LTP240	ltpFR	14	n/a	n/a	n/a	n/a	n/a	n/a	13	4	4	5	n/a	n/a	n/a	n/a	n/a
335333	PROB	n/a	LTP240	ltpFR	14	n/a	n/a	n/a	n/a	n/a	n/a	16	8	6	2	n/a	n/a	n/a	n/a	n/a
337158	STOP	n/a	LTP240	ltpFR	14	n/a	n/a	n/a	n/a	n/a	n/a	n/a	n/a	n/a	n/a	n/a	n/a	n/a	n/a	n/a
339034	WORD	wordpools/wasnorm_wordpool_less_exclusions.txt	LTP240	ltpFR	14	2	1	GUITAR	670	n/a	0	n/a	0	0	0	0	0.5869140625	0.422607421875	lower	../fonts/zerothre.ttf
342046	START	n/a	LTP240	ltpFR	14	n/a	n/a	n/a	n/a	n/a	n/a	n/a	n/a	n/a	n/a	n/a	n/a	n/a	n/a	n/a
342949	PROB	n/a	LTP240	ltpFR	14	n/a	n/a	n/a	n/a	n/a	n/a	13	6	5	2	n/a	n/a	n/a	n/a	n/a
346458	PROB	n/a	LTP240	ltpFR	14	n/a	n/a	n/a	n/a	n/a	n/a	21	4	8	9	n/a	n/a	n/a	n/a	n/a
348758	STOP	n/a	LTP240	ltpFR	14	n/a	n/a	n/a	n/a	n/a	n/a	n/a	n/a	n/a	n/a	n/a	n/a	n/a	n/a	n/a
350879	WORD	wordpools/wasnorm_wordpool_less_exclusions.txt	LTP240	ltpFR	14	2	1	CELLO	268	n/a	0	n/a	0	0	0	0	0.5869140625	0.422607421875	lower	../fonts/zerothre.ttf
353891	START	n/a	LTP240	ltpFR	14	n/a	n/a	n/a	n/a	n/a	n/a	n/a	n/a	n/a	n/a	n/a	n/a	n/a	n/a	n/a
354777	PROB	n/a	LTP240	ltpFR	14	n/a	n/a	n/a	n/a	n/a	n/a	15	6	1	8	n/a	n/a	n/a	n/a	n/a
357283	PROB	n/a	LTP240	ltpFR	14	n/a	n/a	n/a	n/a	n/a	n/a	16	6	1	9	n/a	n/a	n/a	n/a	n/a
358591	PROB	n/a	LTP240	ltpFR	14	n/a	n/a	n/a	n/a	n/a	n/a	18	4	8	6	n/a	n/a	n/a	n/a	n/a
360080	PROB	n/a	LTP240	ltpFR	14	n/a	n/a	n/a	n/a	n/a	n/a	19	9	6	4	n/a	n/a	n/a	n/a	n/a
361550	STOP	n/a	LTP240	ltpFR	14	n/a	n/a	n/a	n/a	n/a	n/a	n/a	n/a	n/a	n/a	n/a	n/a	n/a	n/a	n/a
363008	WORD	wordpools/wasnorm_wordpool_less_exclusions.txt	LTP240	ltpFR	14	2	1	SHORE	1291	n/a	0	n/a	0	0	0	0	0.5869140625	0.422607421875	lower	../fonts/zerothre.ttf
366020	START	n/a	LTP240	ltpFR	14	n/a	n/a	n/a	n/a	n/a	n/a	n/a	n/a	n/a	n/a	n/a	n/a	n/a	n/a	n/a
366889	PROB	n/a	LTP240	ltpFR	14	n/a	n/a	n/a	n/a	n/a	n/a	14	3	5	6	n/a	n/a	n/a	n/a	n/a
369294	PROB	n/a	LTP240	ltpFR	14	n/a	n/a	n/a	n/a	n/a	n/a	19	9	6	4	n/a	n/a	n/a	n/a	n/a
370951	PROB	n/a	LTP240	ltpFR	14	n/a	n/a	n/a	n/a	n/a	n/a	18	2	8	8	n/a	n/a	n/a	n/a	n/a
372205	PROB	n/a	LTP240	ltpFR	14	n/a	n/a	n/a	n/a	n/a	n/a	17	4	7	6	n/a	n/a	n/a	n/a	n/a
373862	STOP	n/a	LTP240	ltpFR	14	n/a	n/a	n/a	n/a	n/a	n/a	n/a	n/a	n/a	n/a	n/a	n/a	n/a	n/a	n/a
375187	WORD	wordpools/wasnorm_wordpool_less_exclusions.txt	LTP240	ltpFR	14	2	1	MONARCH	906	n/a	1	n/a	0	0	0	0	0.5869140625	0.422607421875	lower	../fonts/zerothre.ttf
378199	START	n/a	LTP240	ltpFR	14	n/a	n/a	n/a	n/a	n/a	n/a	n/a	n/a	n/a	n/a	n/a	n/a	n/a	n/a	n/a
379018	PROB	n/a	LTP240	ltpFR	14	n/a	n/a	n/a	n/a	n/a	n/a	13	5	4	4	n/a	n/a	n/a	n/a	n/a
380738	PROB	n/a	LTP240	ltpFR	14	n/a	n/a	n/a	n/a	n/a	n/a	15	4	3	8	n/a	n/a	n/a	n/a	n/a
384619	PROB	n/a	LTP240	ltpFR	14	n/a	n/a	n/a	n/a	n/a	n/a	18	8	3	7	n/a	n/a	n/a	n/a	n/a
385830	STOP	n/a	LTP240	ltpFR	14	n/a	n/a	n/a	n/a	n/a	n/a	n/a	n/a	n/a	n/a	n/a	n/a	n/a	n/a	n/a
387166	WORD	wordpools/wasnorm_wordpool_less_exclusions.txt	LTP240	ltpFR	14	2	1	PUDDLE	1140	n/a	0	n/a	0	0	0	0	0.5869140625	0.422607421875	lower	../fonts/zerothre.ttf
390178	START	n/a	LTP240	ltpFR	14	n/a	n/a	n/a	n/a	n/a	n/a	n/a	n/a	n/a	n/a	n/a	n/a	n/a	n/a	n/a
391181	PROB	n/a	LTP240	ltpFR	14	n/a	n/a	n/a	n/a	n/a	n/a	11	2	3	6	n/a	n/a	n/a	n/a	n/a
393519	PROB	n/a	LTP240	ltpFR	14	n/a	n/a	n/a	n/a	n/a	n/a	11	8	2	1	n/a	n/a	n/a	n/a	n/a
394858	PROB	n/a	LTP240	ltpFR	14	n/a	n/a	n/a	n/a	n/a	n/a	8	4	3	1	n/a	n/a	n/a	n/a	n/a
398177	STOP	n/a	LTP240	ltpFR	14	n/a	n/a	n/a	n/a	n/a	n/a	n/a	n/a	n/a	n/a	n/a	n/a	n/a	n/a	n/a
399345	WORD	wordpools/wasnorm_wordpool_less_exclusions.txt	LTP240	ltpFR	14	2	1	CHAMPAGNE	278	n/a	0	n/a	0	0	0	0	0.5869140625	0.422607421875	lower	../fonts/zerothre.ttf
402357	START	n/a	LTP240	ltpFR	14	n/a	n/a	n/a	n/a	n/a	n/a	n/a	n/a	n/a	n/a	n/a	n/a	n/a	n/a	n/a
403360	PROB	n/a	LTP240	ltpFR	14	n/a	n/a	n/a	n/a	n/a	n/a	9	3	4	2	n/a	n/a	n/a	n/a	n/a
405832	PROB	n/a	LTP240	ltpFR	14	n/a	n/a	n/a	n/a	n/a	n/a	15	8	5	2	n/a	n/a	n/a	n/a	n/a
410356	STOP	n/a	LTP240	ltpFR	14	n/a	n/a	n/a	n/a	n/a	n/a	n/a	n/a	n/a	n/a	n/a	n/a	n/a	n/a	n/a
411487	WORD	wordpools/wasnorm_wordpool_less_exclusions.txt	LTP240	ltpFR	14	2	1	OFFICER	973	n/a	1	n/a	0	0	0	0	0.5869140625	0.422607421875	lower	../fonts/zerothre.ttf
414503	START	n/a	LTP240	ltpFR	14	n/a	n/a	n/a	n/a	n/a	n/a	n/a	n/a	n/a	n/a	n/a	n/a	n/a	n/a	n/a
415339	PROB	n/a	LTP240	ltpFR	14	n/a	n/a	n/a	n/a	n/a	n/a	8	2	4	2	n/a	n/a	n/a	n/a	n/a
417309	PROB	n/a	LTP240	ltpFR	14	n/a	n/a	n/a	n/a	n/a	n/a	13	2	2	9	n/a	n/a	n/a	n/a	n/a
418965	PROB	n/a	LTP240	ltpFR	14	n/a	n/a	n/a	n/a	n/a	n/a	18	7	9	2	n/a	n/a	n/a	n/a	n/a
421086	STOP	n/a	LTP240	ltpFR	14	n/a	n/a	n/a	n/a	n/a	n/a	n/a	n/a	n/a	n/a	n/a	n/a	n/a	n/a	n/a
423569	WORD	wordpools/wasnorm_wordpool_less_exclusions.txt	LTP240	ltpFR	14	2	1	TURTLE	1522	n/a	1	n/a	0	0	0	0	0.5869140625	0.422607421875	lower	../fonts/zerothre.ttf
426581	START	n/a	LTP240	ltpFR	14	n/a	n/a	n/a	n/a	n/a	n/a	n/a	n/a	n/a	n/a	n/a	n/a	n/a	n/a	n/a
427484	PROB	n/a	LTP240	ltpFR	14	n/a	n/a	n/a	n/a	n/a	n/a	17	6	8	3	n/a	n/a	n/a	n/a	n/a
429505	PROB	n/a	LTP240	ltpFR	14	n/a	n/a	n/a	n/a	n/a	n/a	24	7	8	9	n/a	n/a	n/a	n/a	n/a
433047	STOP	n/a	LTP240	ltpFR	14	n/a	n/a	n/a	n/a	n/a	n/a	n/a	n/a	n/a	n/a	n/a	n/a	n/a	n/a	n/a
436352	REC_START	n/a	LTP240	ltpFR	14	2	n/a	n/a	n/a	n/a	n/a	n/a	0	0	0	n/a	n/a	n/a	n/a	n/a
438682	REC_WORD	wordpools/wasnorm_wordpool_less_exclusions.txt	LTP240	ltpFR	14	2	1	TURTLE	1522	n/a	1	n/a	0	0	0	n/a	n/a	n/a	n/a	n/a
439664	REC_WORD	wordpools/wasnorm_wordpool_less_exclusions.txt	LTP240	ltpFR	14	2	1	OFFICER	973	n/a	1	n/a	0	0	0	n/a	n/a	n/a	n/a	n/a
445740	REC_WORD	wordpools/wasnorm_wordpool_less_exclusions.txt	LTP240	ltpFR	14	2	1	BOULDER	155	n/a	0	n/a	0	0	0	n/a	n/a	n/a	n/a	n/a
446733	REC_WORD	wordpools/wasnorm_wordpool_less_exclusions.txt	LTP240	ltpFR	14	2	1	ASTEROID	50	n/a	0	n/a	0	0	0	n/a	n/a	n/a	n/a	n/a
449612	REC_WORD	wordpools/wasnorm_wordpool_less_exclusions.txt	LTP240	ltpFR	14	2	1	PRINCESS	1125	n/a	1	n/a	0	0	0	n/a	n/a	n/a	n/a	n/a
451822	REC_WORD	wordpools/wasnorm_wordpool_less_exclusions.txt	LTP240	ltpFR	14	2	1	SWEATER	1419	n/a	0	n/a	0	0	0	n/a	n/a	n/a	n/a	n/a
459185	REC_WORD	wordpools/wasnorm_wordpool_less_exclusions.txt	LTP240	ltpFR	14	2	1	TANK	1432	n/a	0	n/a	0	0	0	n/a	n/a	n/a	n/a	n/a
460854	REC_WORD	wordpools/wasnorm_wordpool_less_exclusions.txt	LTP240	ltpFR	14	2	1	FREEZER	604	n/a	0	n/a	0	0	0	n/a	n/a	n/a	n/a	n/a
464897	REC_WORD	wordpools/wasnorm_wordpool_less_exclusions.txt	LTP240	ltpFR	14	2	1	GUITAR	670	n/a	0	n/a	0	0	0	n/a	n/a	n/a	n/a	n/a
503539	REC_WORD	wordpools/wasnorm_wordpool_less_exclusions.txt	LTP240	ltpFR	14	2	1	PUDDLE	1140	n/a	0	n/a	0	0	0	n/a	n/a	n/a	n/a	n/a
507610	REC_WORD	wordpools/wasnorm_wordpool_less_exclusions.txt	LTP240	ltpFR	14	2	1	CHAMPAGNE	278	n/a	0	n/a	0	0	0	n/a	n/a	n/a	n/a	n/a
531995	WORD	wordpools/wasnorm_wordpool_less_exclusions.txt	LTP240	ltpFR	14	3	0	SNAIL	1332	n/a	0	n/a	0	0	0	1	0.412841796875	0.57763671875	upper	../fonts/amplitud.ttf
535926	WORD	wordpools/wasnorm_wordpool_less_exclusions.txt	LTP240	ltpFR	14	3	0	APPLICATION	34	n/a	1	n/a	0	0	0	1	0.412841796875	0.57763671875	upper	../fonts/amplitud.ttf
540109	WORD	wordpools/wasnorm_wordpool_less_exclusions.txt	LTP240	ltpFR	14	3	0	ALLIGATOR	16	n/a	1	n/a	0	0	0	1	0.412841796875	0.57763671875	upper	../fonts/amplitud.ttf
544258	WORD	wordpools/wasnorm_wordpool_less_exclusions.txt	LTP240	ltpFR	14	3	0	CREEK	404	n/a	1	n/a	0	0	0	1	0.412841796875	0.57763671875	upper	../fonts/amplitud.ttf
548441	WORD	wordpools/wasnorm_wordpool_less_exclusions.txt	LTP240	ltpFR	14	3	1	ONION	977	n/a	0	n/a	0	0	0	0	0.5869140625	0.422607421875	lower	../fonts/zerothre.ttf
552288	WORD	wordpools/wasnorm_wordpool_less_exclusions.txt	LTP240	ltpFR	14	3	1	HANDKERCHIEF	686	n/a	0	n/a	0	0	0	0	0.5869140625	0.422607421875	lower	../fonts/zerothre.ttf
556119	WORD	wordpools/wasnorm_wordpool_less_exclusions.txt	LTP240	ltpFR	14	3	0	WATERFALL	1595	n/a	1	n/a	0	0	0	1	0.412841796875	0.57763671875	upper	../fonts/amplitud.ttf
560231	WORD	wordpools/wasnorm_wordpool_less_exclusions.txt	LTP240	ltpFR	14	3	0	LAKE	796	n/a	1	n/a	0	0	0	1	0.412841796875	0.57763671875	upper	../fonts/amplitud.ttf
564367	WORD	wordpools/wasnorm_wordpool_less_exclusions.txt	LTP240	ltpFR	14	3	0	SHELL	1281	n/a	0	n/a	0	0	0	1	0.412841796875	0.57763671875	upper	../fonts/amplitud.ttf
568231	WORD	wordpools/wasnorm_wordpool_less_exclusions.txt	LTP240	ltpFR	14	3	0	BULLY	196	n/a	1	n/a	0	0	0	1	0.412841796875	0.57763671875	upper	../fonts/amplitud.ttf
572163	WORD	wordpools/wasnorm_wordpool_less_exclusions.txt	LTP240	ltpFR	14	3	1	FACTORY	548	n/a	0	n/a	0	0	0	0	0.5869140625	0.422607421875	lower	../fonts/zerothre.ttf
576040	WORD	wordpools/wasnorm_wordpool_less_exclusions.txt	LTP240	ltpFR	14	3	1	TERMITE	1451	n/a	1	n/a	0	0	0	0	0.5869140625	0.422607421875	lower	../fonts/zerothre.ttf
580009	WORD	wordpools/wasnorm_wordpool_less_exclusions.txt	LTP240	ltpFR	14	3	1	FIREPLACE	570	n/a	0	n/a	0	0	0	0	0.5869140625	0.422607421875	lower	../fonts/zerothre.ttf
583840	WORD	wordpools/wasnorm_wordpool_less_exclusions.txt	LTP240	ltpFR	14	3	1	SWIMMER	1420	n/a	1	n/a	0	0	0	0	0.5869140625	0.422607421875	lower	../fonts/zerothre.ttf
587788	WORD	wordpools/wasnorm_wordpool_less_exclusions.txt	LTP240	ltpFR	14	3	1	INCENSE	735	n/a	0	n/a	0	0	0	0	0.5869140625	0.422607421875	lower	../fonts/zerothre.ttf
591887	WORD	wordpools/wasnorm_wordpool_less_exclusions.txt	LTP240	ltpFR	14	3	1	COLLAR	345	n/a	0	n/a	0	0	0	0	0.5869140625	0.422607421875	lower	../fonts/zerothre.ttf
597861	REC_START	n/a	LTP240	ltpFR	14	3	n/a	n/a	n/a	n/a	n/a	n/a	0	0	0	n/a	n/a	n/a	n/a	n/a
600046	REC_WORD	wordpools/wasnorm_wordpool_less_exclusions.txt	LTP240	ltpFR	14	3	1	COLLAR	345	n/a	0	n/a	0	0	0	n/a	n/a	n/a	n/a	n/a
601098	REC_WORD	wordpools/wasnorm_wordpool_less_exclusions.txt	LTP240	ltpFR	14	3	1	INCENSE	735	n/a	0	n/a	0	0	0	n/a	n/a	n/a	n/a	n/a
602924	REC_WORD	wordpools/wasnorm_wordpool_less_exclusions.txt	LTP240	ltpFR	14	3	0	APPLICATION	34	n/a	1	n/a	0	0	0	n/a	n/a	n/a	n/a	n/a
604755	REC_WORD	wordpools/wasnorm_wordpool_less_exclusions.txt	LTP240	ltpFR	14	3	0	ALLIGATOR	16	n/a	1	n/a	0	0	0	n/a	n/a	n/a	n/a	n/a
606316	REC_WORD	wordpools/wasnorm_wordpool_less_exclusions.txt	LTP240	ltpFR	14	3	0	SNAIL	1332	n/a	0	n/a	0	0	0	n/a	n/a	n/a	n/a	n/a
607698	REC_WORD	wordpools/wasnorm_wordpool_less_exclusions.txt	LTP240	ltpFR	14	3	0	SHELL	1281	n/a	0	n/a	0	0	0	n/a	n/a	n/a	n/a	n/a
612198	REC_WORD	wordpools/wasnorm_wordpool_less_exclusions.txt	LTP240	ltpFR	14	3	1	HANDKERCHIEF	686	n/a	0	n/a	0	0	0	n/a	n/a	n/a	n/a	n/a
617905	REC_WORD	wordpools/wasnorm_wordpool_less_exclusions.txt	LTP240	ltpFR	14	3	0	WATERFALL	1595	n/a	1	n/a	0	0	0	n/a	n/a	n/a	n/a	n/a
624226	REC_WORD	wordpools/wasnorm_wordpool_less_exclusions.txt	LTP240	ltpFR	14	3	1	TERMITE	1451	n/a	1	n/a	0	0	0	n/a	n/a	n/a	n/a	n/a
625224	REC_WORD	wordpools/wasnorm_wordpool_less_exclusions.txt	LTP240	ltpFR	14	3	1	SWIMMER	1420	n/a	1	n/a	0	0	0	n/a	n/a	n/a	n/a	n/a
664830	REC_WORD	wordpools/wasnorm_wordpool_less_exclusions.txt	LTP240	ltpFR	14	3	1	FACTORY	548	n/a	0	n/a	0	0	0	n/a	n/a	n/a	n/a	n/a
681709	WORD	wordpools/wasnorm_wordpool_less_exclusions.txt	LTP240	ltpFR	14	4	0	BUCKLE	185	n/a	0	n/a	0	0	0	1	0.412841796875	0.57763671875	upper	../fonts/amplitud.ttf
685825	WORD	wordpools/wasnorm_wordpool_less_exclusions.txt	LTP240	ltpFR	14	4	0	SHEPHERD	1283	n/a	1	n/a	0	0	0	1	0.412841796875	0.57763671875	upper	../fonts/amplitud.ttf
689739	WORD	wordpools/wasnorm_wordpool_less_exclusions.txt	LTP240	ltpFR	14	4	0	HERD	705	n/a	1	n/a	0	0	0	1	0.412841796875	0.57763671875	upper	../fonts/amplitud.ttf
693955	WORD	wordpools/wasnorm_wordpool_less_exclusions.txt	LTP240	ltpFR	14	4	0	LOAF	835	n/a	0	n/a	0	0	0	1	0.412841796875	0.57763671875	upper	../fonts/amplitud.ttf
697903	WORD	wordpools/wasnorm_wordpool_less_exclusions.txt	LTP240	ltpFR	14	4	0	SWAMP	1416	n/a	1	n/a	0	0	0	1	0.412841796875	0.57763671875	upper	../fonts/amplitud.ttf
701969	WORD	wordpools/wasnorm_wordpool_less_exclusions.txt	LTP240	ltpFR	14	4	0	SALAD	1224	n/a	0	n/a	0	0	0	1	0.412841796875	0.57763671875	upper	../fonts/amplitud.ttf
705884	WORD	wordpools/wasnorm_wordpool_less_exclusions.txt	LTP240	ltpFR	14	4	0	CHAPEL	280	n/a	1	n/a	0	0	0	1	0.412841796875	0.57763671875	upper	../fonts/amplitud.ttf
709748	WORD	wordpools/wasnorm_wordpool_less_exclusions.txt	LTP240	ltpFR	14	4	0	BAKER	71	n/a	1	n/a	0	0	0	1	0.412841796875	0.57763671875	upper	../fonts/amplitud.ttf
713592	WORD	wordpools/wasnorm_wordpool_less_exclusions.txt	LTP240	ltpFR	14	4	0	VESSEL	1558	n/a	1	n/a	0	0	0	1	0.412841796875	0.57763671875	upper	../fonts/amplitud.ttf
717611	WORD	wordpools/wasnorm_wordpool_less_exclusions.txt	LTP240	ltpFR	14	4	0	CALENDAR	221	n/a	0	n/a	0	0	0	1	0.412841796875	0.57763671875	upper	../fonts/amplitud.ttf
721439	WORD	wordpools/wasnorm_wordpool_less_exclusions.txt	LTP240	ltpFR	14	4	0	MONGOOSE	909	n/a	1	n/a	0	0	0	1	0.412841796875	0.57763671875	upper	../fonts/amplitud.ttf
725608	WORD	wordpools/wasnorm_wordpool_less_exclusions.txt	LTP240	ltpFR	14	4	0	CAT	257	n/a	1	n/a	0	0	0	1	0.412841796875	0.57763671875	upper	../fonts/amplitud.ttf
729753	WORD	wordpools/wasnorm_wordpool_less_exclusions.txt	LTP240	ltpFR	14	4	0	CARDINAL	244	n/a	0	n/a	0	0	0	1	0.412841796875	0.57763671875	upper	../fonts/amplitud.ttf
733739	WORD	wordpools/wasnorm_wordpool_less_exclusions.txt	LTP240	ltpFR	14	4	0	DOVE	491	n/a	0	n/a	0	0	0	1	0.412841796875	0.57763671875	upper	../fonts/amplitud.ttf
737951	WORD	wordpools/wasnorm_wordpool_less_exclusions.txt	LTP240	ltpFR	14	4	0	DIVER	476	n/a	1	n/a	0	0	0	1	0.412841796875	0.57763671875	upper	../fonts/amplitud.ttf
742120	WORD	wordpools/wasnorm_wordpool_less_exclusions.txt	LTP240	ltpFR	14	4	0	LANDSCAPE	799	n/a	1	n/a	0	0	0	1	0.412841796875	0.57763671875	upper	../fonts/amplitud.ttf
745132	START	n/a	LTP240	ltpFR	14	n/a	n/a	n/a	n/a	n/a	n/a	n/a	n/a	n/a	n/a	n/a	n/a	n/a	n/a	n/a
746085	PROB	n/a	LTP240	ltpFR	14	n/a	n/a	n/a	n/a	n/a	n/a	18	3	7	8	n/a	n/a	n/a	n/a	n/a
747925	PROB	n/a	LTP240	ltpFR	14	n/a	n/a	n/a	n/a	n/a	n/a	20	7	4	9	n/a	n/a	n/a	n/a	n/a
750432	PROB	n/a	LTP240	ltpFR	14	n/a	n/a	n/a	n/a	n/a	n/a	12	6	2	4	n/a	n/a	n/a	n/a	n/a
752110	STOP	n/a	LTP240	ltpFR	14	n/a	n/a	n/a	n/a	n/a	n/a	n/a	n/a	n/a	n/a	n/a	n/a	n/a	n/a	n/a
754953	REC_START	n/a	LTP240	ltpFR	14	4	n/a	n/a	n/a	n/a	n/a	n/a	0	0	0	n/a	n/a	n/a	n/a	n/a
756434	REC_WORD	wordpools/wasnorm_wordpool_less_exclusions.txt	LTP240	ltpFR	14	4	0	LANDSCAPE	799	n/a	1	n/a	0	0	0	n/a	n/a	n/a	n/a	n/a
757497	REC_WORD	wordpools/wasnorm_wordpool_less_exclusions.txt	LTP240	ltpFR	14	4	0	DOVE	491	n/a	0	n/a	0	0	0	n/a	n/a	n/a	n/a	n/a
758325	REC_WORD	wordpools/wasnorm_wordpool_less_exclusions.txt	LTP240	ltpFR	14	4	0	CARDINAL	244	n/a	0	n/a	0	0	0	n/a	n/a	n/a	n/a	n/a
760695	REC_WORD	wordpools/wasnorm_wordpool_less_exclusions.txt	LTP240	ltpFR	14	4	0	DIVER	476	n/a	1	n/a	0	0	0	n/a	n/a	n/a	n/a	n/a
763573	REC_WORD	wordpools/wasnorm_wordpool_less_exclusions.txt	LTP240	ltpFR	14	4	0	CAT	257	n/a	1	n/a	0	0	0	n/a	n/a	n/a	n/a	n/a
782670	REC_WORD	wordpools/wasnorm_wordpool_less_exclusions.txt	LTP240	ltpFR	14	4	0	DOVE	491	n/a	0	n/a	0	0	0	n/a	n/a	n/a	n/a	n/a
798643	REC_WORD	wordpools/wasnorm_wordpool_less_exclusions.txt	LTP240	ltpFR	14	4	0	VESSEL	1558	n/a	1	n/a	0	0	0	n/a	n/a	n/a	n/a	n/a
820180	REC_WORD	wordpools/wasnorm_wordpool_less_exclusions.txt	LTP240	ltpFR	14	4	0	SHEPHERD	1283	n/a	1	n/a	0	0	0	n/a	n/a	n/a	n/a	n/a
821082	REC_WORD	wordpools/wasnorm_wordpool_less_exclusions.txt	LTP240	ltpFR	14	4	0	HERD	705	n/a	1	n/a	0	0	0	n/a	n/a	n/a	n/a	n/a
840273	WORD	wordpools/wasnorm_wordpool_less_exclusions.txt	LTP240	ltpFR	14	5	0	SAUSAGE	1238	n/a	0	n/a	0	0	0	1	0.412841796875	0.57763671875	upper	../fonts/amplitud.ttf
844322	WORD	wordpools/wasnorm_wordpool_less_exclusions.txt	LTP240	ltpFR	14	5	0	DOCK	477	n/a	1	n/a	0	0	0	1	0.412841796875	0.57763671875	upper	../fonts/amplitud.ttf
848454	WORD	wordpools/wasnorm_wordpool_less_exclusions.txt	LTP240	ltpFR	14	5	0	DECK	443	n/a	1	n/a	0	0	0	1	0.412841796875	0.57763671875	upper	../fonts/amplitud.ttf
852620	WORD	wordpools/wasnorm_wordpool_less_exclusions.txt	LTP240	ltpFR	14	5	0	VISITOR	1573	n/a	1	n/a	0	0	0	1	0.412841796875	0.57763671875	upper	../fonts/amplitud.ttf
856602	WORD	wordpools/wasnorm_wordpool_less_exclusions.txt	LTP240	ltpFR	14	5	0	COMMITTEE	355	n/a	1	n/a	0	0	0	1	0.412841796875	0.57763671875	upper	../fonts/amplitud.ttf
860667	WORD	wordpools/wasnorm_wordpool_less_exclusions.txt	LTP240	ltpFR	14	5	0	SAGE	1222	n/a	0	n/a	0	0	0	1	0.412841796875	0.57763671875	upper	../fonts/amplitud.ttf
864849	WORD	wordpools/wasnorm_wordpool_less_exclusions.txt	LTP240	ltpFR	14	5	0	COOKBOOK	373	n/a	1	n/a	0	0	0	1	0.412841796875	0.57763671875	upper	../fonts/amplitud.ttf
868844	WORD	wordpools/wasnorm_wordpool_less_exclusions.txt	LTP240	ltpFR	14	5	0	BROCCOLI	176	n/a	0	n/a	0	0	0	1	0.412841796875	0.57763671875	upper	../fonts/amplitud.ttf
872708	WORD	wordpools/wasnorm_wordpool_less_exclusions.txt	LTP240	ltpFR	14	5	0	CHEESE	289	n/a	0	n/a	0	0	0	1	0.412841796875	0.57763671875	upper	../fonts/amplitud.ttf
876577	WORD	wordpools/wasnorm_wordpool_less_exclusions.txt	LTP240	ltpFR	14	5	0	CYLINDER	432	n/a	0	n/a	0	0	0	1	0.412841796875	0.57763671875	upper	../fonts/amplitud.ttf
880793	WORD	wordpools/wasnorm_wordpool_less_exclusions.txt	LTP240	ltpFR	14	5	0	TRASH	1497	n/a	1	n/a	0	0	0	1	0.412841796875	0.57763671875	upper	../fonts/amplitud.ttf
884808	WORD	wordpools/wasnorm_wordpool_less_exclusions.txt	LTP240	ltpFR	14	5	0	PARSLEY	1016	n/a	0	n/a	0	0	0	1	0.412841796875	0.57763671875	upper	../fonts/amplitud.ttf
888789	WORD	wordpools/wasnorm_wordpool_less_exclusions.txt	LTP240	ltpFR	14	5	0	SWORD	1423	n/a	1	n/a	0	0	0	1	0.412841796875	0.57763671875	upper	../fonts/amplitud.ttf
892721	WORD	wordpools/wasnorm_wordpool_less_exclusions.txt	LTP240	ltpFR	14	5	0	HUT	729	n/a	1	n/a	0	0	0	1	0.412841796875	0.57763671875	upper	../fonts/amplitud.ttf
896636	WORD	wordpools/wasnorm_wordpool_less_exclusions.txt	LTP240	ltpFR	14	5	0	NEWSPAPER	948	n/a	0	n/a	0	0	0	1	0.412841796875	0.57763671875	upper	../fonts/amplitud.ttf
900831	WORD	wordpools/wasnorm_wordpool_less_exclusions.txt	LTP240	ltpFR	14	5	0	HOUND	724	n/a	1	n/a	0	0	0	1	0.412841796875	0.57763671875	upper	../fonts/amplitud.ttf
903847	START	n/a	LTP240	ltpFR	14	n/a	n/a	n/a	n/a	n/a	n/a	n/a	n/a	n/a	n/a	n/a	n/a	n/a	n/a	n/a
904766	PROB	n/a	LTP240	ltpFR	14	n/a	n/a	n/a	n/a	n/a	n/a	18	4	7	7	n/a	n/a	n/a	n/a	n/a
908159	PROB	n/a	LTP240	ltpFR	14	n/a	n/a	n/a	n/a	n/a	n/a	20	5	9	6	n/a	n/a	n/a	n/a	n/a
910367	PROB	n/a	LTP240	ltpFR	14	n/a	n/a	n/a	n/a	n/a	n/a	11	1	5	5	n/a	n/a	n/a	n/a	n/a
911488	PROB	n/a	LTP240	ltpFR	14	n/a	n/a	n/a	n/a	n/a	n/a	19	8	3	8	n/a	n/a	n/a	n/a	n/a
913111	PROB	n/a	LTP240	ltpFR	14	n/a	n/a	n/a	n/a	n/a	n/a	8	1	2	5	n/a	n/a	n/a	n/a	n/a
916424	PROB	n/a	LTP240	ltpFR	14	n/a	n/a	n/a	n/a	n/a	n/a	13	1	5	7	n/a	n/a	n/a	n/a	n/a
918590	STOP	n/a	LTP240	ltpFR	14	n/a	n/a	n/a	n/a	n/a	n/a	n/a	n/a	n/a	n/a	n/a	n/a	n/a	n/a	n/a
921681	REC_START	n/a	LTP240	ltpFR	14	5	n/a	n/a	n/a	n/a	n/a	n/a	0	0	0	n/a	n/a	n/a	n/a	n/a
923711	REC_WORD	wordpools/wasnorm_wordpool_less_exclusions.txt	LTP240	ltpFR	14	5	0	HOUND	724	n/a	1	n/a	0	0	0	n/a	n/a	n/a	n/a	n/a
924804	REC_WORD	wordpools/wasnorm_wordpool_less_exclusions.txt	LTP240	ltpFR	14	5	0	PARSLEY	1016	n/a	0	n/a	0	0	0	n/a	n/a	n/a	n/a	n/a
926166	REC_WORD	wordpools/wasnorm_wordpool_less_exclusions.txt	LTP240	ltpFR	14	5	0	BROCCOLI	176	n/a	0	n/a	0	0	0	n/a	n/a	n/a	n/a	n/a
936369	REC_WORD	wordpools/wasnorm_wordpool_less_exclusions.txt	LTP240	ltpFR	14	5	0	SAGE	1222	n/a	0	n/a	0	0	0	n/a	n/a	n/a	n/a	n/a
949398	REC_WORD	wordpools/wasnorm_wordpool_less_exclusions.txt	LTP240	ltpFR	14	5	0	COOKBOOK	373	n/a	1	n/a	0	0	0	n/a	n/a	n/a	n/a	n/a
951962	REC_WORD	wordpools/wasnorm_wordpool_less_exclusions.txt	LTP240	ltpFR	14	5	0	NEWSPAPER	948	n/a	0	n/a	0	0	0	n/a	n/a	n/a	n/a	n/a
979410	REC_WORD	wordpools/wasnorm_wordpool_less_exclusions.txt	LTP240	ltpFR	14	5	0	DECK	443	n/a	1	n/a	0	0	0	n/a	n/a	n/a	n/a	n/a
980627	REC_WORD	wordpools/wasnorm_wordpool_less_exclusions.txt	LTP240	ltpFR	14	5	0	DOCK	477	n/a	1	n/a	0	0	0	n/a	n/a	n/a	n/a	n/a
981583	REC_WORD	wordpools/wasnorm_wordpool_less_exclusions.txt	LTP240	ltpFR	14	5	0	SAUSAGE	1238	n/a	0	n/a	0	0	0	n/a	n/a	n/a	n/a	n/a
1020587	START	n/a	LTP240	ltpFR	14	n/a	n/a	n/a	n/a	n/a	n/a	n/a	n/a	n/a	n/a	n/a	n/a	n/a	n/a	n/a
1022092	PROB	n/a	LTP240	ltpFR	14	n/a	n/a	n/a	n/a	n/a	n/a	5	2	1	2	n/a	n/a	n/a	n/a	n/a
1024681	PROB	n/a	LTP240	ltpFR	14	n/a	n/a	n/a	n/a	n/a	n/a	8	4	3	1	n/a	n/a	n/a	n/a	n/a
1028586	STOP	n/a	LTP240	ltpFR	14	n/a	n/a	n/a	n/a	n/a	n/a	n/a	n/a	n/a	n/a	n/a	n/a	n/a	n/a	n/a
1029704	WORD	wordpools/wasnorm_wordpool_less_exclusions.txt	LTP240	ltpFR	14	6	0	CARROT	249	n/a	0	n/a	0	0	0	1	0.412841796875	0.57763671875	upper	../fonts/amplitud.ttf
1032729	START	n/a	LTP240	ltpFR	14	n/a	n/a	n/a	n/a	n/a	n/a	n/a	n/a	n/a	n/a	n/a	n/a	n/a	n/a	n/a
1033753	PROB	n/a	LTP240	ltpFR	14	n/a	n/a	n/a	n/a	n/a	n/a	8	3	3	2	n/a	n/a	n/a	n/a	n/a
1038031	PROB	n/a	LTP240	ltpFR	14	n/a	n/a	n/a	n/a	n/a	n/a	16	7	7	2	n/a	n/a	n/a	n/a	n/a
1039350	STOP	n/a	LTP240	ltpFR	14	n/a	n/a	n/a	n/a	n/a	n/a	n/a	n/a	n/a	n/a	n/a	n/a	n/a	n/a	n/a
1041582	WORD	wordpools/wasnorm_wordpool_less_exclusions.txt	LTP240	ltpFR	14	6	0	TROUT	1511	n/a	1	n/a	0	0	0	1	0.412841796875	0.57763671875	upper	../fonts/amplitud.ttf
1044594	START	n/a	LTP240	ltpFR	14	n/a	n/a	n/a	n/a	n/a	n/a	n/a	n/a	n/a	n/a	n/a	n/a	n/a	n/a	n/a
1045547	PROB	n/a	LTP240	ltpFR	14	n/a	n/a	n/a	n/a	n/a	n/a	10	1	5	4	n/a	n/a	n/a	n/a	n/a
1047086	PROB	n/a	LTP240	ltpFR	14	n/a	n/a	n/a	n/a	n/a	n/a	15	6	8	1	n/a	n/a	n/a	n/a	n/a
1049224	PROB	n/a	LTP240	ltpFR	14	n/a	n/a	n/a	n/a	n/a	n/a	7	2	4	1	n/a	n/a	n/a	n/a	n/a
1051630	STOP	n/a	LTP240	ltpFR	14	n/a	n/a	n/a	n/a	n/a	n/a	n/a	n/a	n/a	n/a	n/a	n/a	n/a	n/a	n/a
1053661	WORD	wordpools/wasnorm_wordpool_less_exclusions.txt	LTP240	ltpFR	14	6	1	THUMB	1462	n/a	0	n/a	0	0	0	0	0.5869140625	0.422607421875	lower	../fonts/zerothre.ttf
1056673	START	n/a	LTP240	ltpFR	14	n/a	n/a	n/a	n/a	n/a	n/a	n/a	n/a	n/a	n/a	n/a	n/a	n/a	n/a	n/a
1057826	PROB	n/a	LTP240	ltpFR	14	n/a	n/a	n/a	n/a	n/a	n/a	18	3	7	8	n/a	n/a	n/a	n/a	n/a
1059399	PROB	n/a	LTP240	ltpFR	14	n/a	n/a	n/a	n/a	n/a	n/a	13	1	8	4	n/a	n/a	n/a	n/a	n/a
1061273	PROB	n/a	LTP240	ltpFR	14	n/a	n/a	n/a	n/a	n/a	n/a	16	3	6	7	n/a	n/a	n/a	n/a	n/a
1063318	STOP	n/a	LTP240	ltpFR	14	n/a	n/a	n/a	n/a	n/a	n/a	n/a	n/a	n/a	n/a	n/a	n/a	n/a	n/a	n/a
1065740	WORD	wordpools/wasnorm_wordpool_less_exclusions.txt	LTP240	ltpFR	14	6	1	HAMMER	680	n/a	0	n/a	0	0	0	0	0.5869140625	0.422607421875	lower	../fonts/zerothre.ttf
1068752	START	n/a	LTP240	ltpFR	14	n/a	n/a	n/a	n/a	n/a	n/a	n/a	n/a	n/a	n/a	n/a	n/a	n/a	n/a	n/a
1069838	PROB	n/a	LTP240	ltpFR	14	n/a	n/a	n/a	n/a	n/a	n/a	13	3	6	4	n/a	n/a	n/a	n/a	n/a
1071712	PROB	n/a	LTP240	ltpFR	14	n/a	n/a	n/a	n/a	n/a	n/a	15	2	6	7	n/a	n/a	n/a	n/a	n/a
1076752	STOP	n/a	LTP240	ltpFR	14	n/a	n/a	n/a	n/a	n/a	n/a	n/a	n/a	n/a	n/a	n/a	n/a	n/a	n/a	n/a
1077635	WORD	wordpools/wasnorm_wordpool_less_exclusions.txt	LTP240	ltpFR	14	6	1	BLUEJAY	141	n/a	1	n/a	0	0	0	0	0.5869140625	0.422607421875	lower	../fonts/zerothre.ttf
1080647	START	n/a	LTP240	ltpFR	14	n/a	n/a	n/a	n/a	n/a	n/a	n/a	n/a	n/a	n/a	n/a	n/a	n/a	n/a	n/a
1081599	PROB	n/a	LTP240	ltpFR	14	n/a	n/a	n/a	n/a	n/a	n/a	12	3	2	7	n/a	n/a	n/a	n/a	n/a
1083205	PROB	n/a	LTP240	ltpFR	14	n/a	n/a	n/a	n/a	n/a	n/a	14	2	3	9	n/a	n/a	n/a	n/a	n/a
1085176	PROB	n/a	LTP240	ltpFR	14	n/a	n/a	n/a	n/a	n/a	n/a	7	2	4	1	n/a	n/a	n/a	n/a	n/a
1087390	STOP	n/a	LTP240	ltpFR	14	n/a	n/a	n/a	n/a	n/a	n/a	n/a	n/a	n/a	n/a	n/a	n/a	n/a	n/a	n/a
1089513	WORD	wordpools/wasnorm_wordpool_less_exclusions.txt	LTP240	ltpFR	14	6	1	ROBIN	1199	n/a	1	n/a	0	0	0	0	0.5869140625	0.422607421875	lower	../fonts/zerothre.ttf
1092525	START	n/a	LTP240	ltpFR	14	n/a	n/a	n/a	n/a	n/a	n/a	n/a	n/a	n/a	n/a	n/a	n/a	n/a	n/a	n/a
1093645	PROB	n/a	LTP240	ltpFR	14	n/a	n/a	n/a	n/a	n/a	n/a	10	4	3	3	n/a	n/a	n/a	n/a	n/a
1096837	PROB	n/a	LTP240	ltpFR	14	n/a	n/a	n/a	n/a	n/a	n/a	16	5	6	5	n/a	n/a	n/a	n/a	n/a
1098246	PROB	n/a	LTP240	ltpFR	14	n/a	n/a	n/a	n/a	n/a	n/a	16	1	6	9	n/a	n/a	n/a	n/a	n/a
1099526	STOP	n/a	LTP240	ltpFR	14	n/a	n/a	n/a	n/a	n/a	n/a	n/a	n/a	n/a	n/a	n/a	n/a	n/a	n/a	n/a
1101525	WORD	wordpools/wasnorm_wordpool_less_exclusions.txt	LTP240	ltpFR	14	6	1	COSTUME	383	n/a	0	n/a	0	0	0	0	0.5869140625	0.422607421875	lower	../fonts/zerothre.ttf
1104537	START	n/a	LTP240	ltpFR	14	n/a	n/a	n/a	n/a	n/a	n/a	n/a	n/a	n/a	n/a	n/a	n/a	n/a	n/a	n/a
1105556	PROB	n/a	LTP240	ltpFR	14	n/a	n/a	n/a	n/a	n/a	n/a	13	7	3	3	n/a	n/a	n/a	n/a	n/a
1106824	PROB	n/a	LTP240	ltpFR	14	n/a	n/a	n/a	n/a	n/a	n/a	17	6	3	8	n/a	n/a	n/a	n/a	n/a
1108581	PROB	n/a	LTP240	ltpFR	14	n/a	n/a	n/a	n/a	n/a	n/a	15	1	5	9	n/a	n/a	n/a	n/a	n/a
1110036	PROB	n/a	LTP240	ltpFR	14	n/a	n/a	n/a	n/a	n/a	n/a	11	4	4	3	n/a	n/a	n/a	n/a	n/a
1111622	STOP	n/a	LTP240	ltpFR	14	n/a	n/a	n/a	n/a	n/a	n/a	n/a	n/a	n/a	n/a	n/a	n/a	n/a	n/a	n/a
1113470	WORD	wordpools/wasnorm_wordpool_less_exclusions.txt	LTP240	ltpFR	14	6	0	CLOWN	330	n/a	1	n/a	0	0	0	1	0.412841796875	0.57763671875	upper	../fonts/amplitud.ttf
1116482	START	n/a	LTP240	ltpFR	14	n/a	n/a	n/a	n/a	n/a	n/a	n/a	n/a	n/a	n/a	n/a	n/a	n/a	n/a	n/a
1117481	PROB	n/a	LTP240	ltpFR	14	n/a	n/a	n/a	n/a	n/a	n/a	19	6	7	6	n/a	n/a	n/a	n/a	n/a
1120342	PROB	n/a	LTP240	ltpFR	14	n/a	n/a	n/a	n/a	n/a	n/a	9	1	7	1	n/a	n/a	n/a	n/a	n/a
1121847	PROB	n/a	LTP240	ltpFR	14	n/a	n/a	n/a	n/a	n/a	n/a	7	1	1	5	n/a	n/a	n/a	n/a	n/a
1123246	STOP	n/a	LTP240	ltpFR	14	n/a	n/a	n/a	n/a	n/a	n/a	n/a	n/a	n/a	n/a	n/a	n/a	n/a	n/a	n/a
1125498	WORD	wordpools/wasnorm_wordpool_less_exclusions.txt	LTP240	ltpFR	14	6	0	COLT	349	n/a	1	n/a	0	0	0	1	0.412841796875	0.57763671875	upper	../fonts/amplitud.ttf
1128510	START	n/a	LTP240	ltpFR	14	n/a	n/a	n/a	n/a	n/a	n/a	n/a	n/a	n/a	n/a	n/a	n/a	n/a	n/a	n/a
1129329	PROB	n/a	LTP240	ltpFR	14	n/a	n/a	n/a	n/a	n/a	n/a	20	3	8	9	n/a	n/a	n/a	n/a	n/a
1132002	PROB	n/a	LTP240	ltpFR	14	n/a	n/a	n/a	n/a	n/a	n/a	14	4	9	1	n/a	n/a	n/a	n/a	n/a
1133328	PROB	n/a	LTP240	ltpFR	14	n/a	n/a	n/a	n/a	n/a	n/a	11	4	4	3	n/a	n/a	n/a	n/a	n/a
1135174	STOP	n/a	LTP240	ltpFR	14	n/a	n/a	n/a	n/a	n/a	n/a	n/a	n/a	n/a	n/a	n/a	n/a	n/a	n/a	n/a
1137506	WORD	wordpools/wasnorm_wordpool_less_exclusions.txt	LTP240	ltpFR	14	6	0	SAND	1230	n/a	0	n/a	0	0	0	1	0.412841796875	0.57763671875	upper	../fonts/amplitud.ttf
1140522	START	n/a	LTP240	ltpFR	14	n/a	n/a	n/a	n/a	n/a	n/a	n/a	n/a	n/a	n/a	n/a	n/a	n/a	n/a	n/a
1141592	PROB	n/a	LTP240	ltpFR	14	n/a	n/a	n/a	n/a	n/a	n/a	12	9	1	2	n/a	n/a	n/a	n/a	n/a
1142864	PROB	n/a	LTP240	ltpFR	14	n/a	n/a	n/a	n/a	n/a	n/a	12	1	2	9	n/a	n/a	n/a	n/a	n/a
1145704	PROB	n/a	LTP240	ltpFR	14	n/a	n/a	n/a	n/a	n/a	n/a	20	8	5	7	n/a	n/a	n/a	n/a	n/a
1148102	STOP	n/a	LTP240	ltpFR	14	n/a	n/a	n/a	n/a	n/a	n/a	n/a	n/a	n/a	n/a	n/a	n/a	n/a	n/a	n/a
1149455	WORD	wordpools/wasnorm_wordpool_less_exclusions.txt	LTP240	ltpFR	14	6	0	SILVERWARE	1308	n/a	1	n/a	0	0	0	1	0.412841796875	0.57763671875	upper	../fonts/amplitud.ttf
1152467	START	n/a	LTP240	ltpFR	14	n/a	n/a	n/a	n/a	n/a	n/a	n/a	n/a	n/a	n/a	n/a	n/a	n/a	n/a	n/a
1153587	PROB	n/a	LTP240	ltpFR	14	n/a	n/a	n/a	n/a	n/a	n/a	17	8	3	6	n/a	n/a	n/a	n/a	n/a
1155561	PROB	n/a	LTP240	ltpFR	14	n/a	n/a	n/a	n/a	n/a	n/a	11	8	1	2	n/a	n/a	n/a	n/a	n/a
1157101	PROB	n/a	LTP240	ltpFR	14	n/a	n/a	n/a	n/a	n/a	n/a	14	2	4	8	n/a	n/a	n/a	n/a	n/a
1158486	PROB	n/a	LTP240	ltpFR	14	n/a	n/a	n/a	n/a	n/a	n/a	18	1	9	8	n/a	n/a	n/a	n/a	n/a
1159638	STOP	n/a	LTP240	ltpFR	14	n/a	n/a	n/a	n/a	n/a	n/a	n/a	n/a	n/a	n/a	n/a	n/a	n/a	n/a	n/a
1161517	WORD	wordpools/wasnorm_wordpool_less_exclusions.txt	LTP240	ltpFR	14	6	1	CUPBOARD	425	n/a	0	n/a	0	0	0	0	0.5869140625	0.422607421875	lower	../fonts/zerothre.ttf
1164530	START	n/a	LTP240	ltpFR	14	n/a	n/a	n/a	n/a	n/a	n/a	n/a	n/a	n/a	n/a	n/a	n/a	n/a	n/a	n/a
1165512	PROB	n/a	LTP240	ltpFR	14	n/a	n/a	n/a	n/a	n/a	n/a	8	1	1	6	n/a	n/a	n/a	n/a	n/a
1167088	PROB	n/a	LTP240	ltpFR	14	n/a	n/a	n/a	n/a	n/a	n/a	26	9	8	9	n/a	n/a	n/a	n/a	n/a
1170297	PROB	n/a	LTP240	ltpFR	14	n/a	n/a	n/a	n/a	n/a	n/a	11	4	3	4	n/a	n/a	n/a	n/a	n/a
1171878	STOP	n/a	LTP240	ltpFR	14	n/a	n/a	n/a	n/a	n/a	n/a	n/a	n/a	n/a	n/a	n/a	n/a	n/a	n/a	n/a
1173646	WORD	wordpools/wasnorm_wordpool_less_exclusions.txt	LTP240	ltpFR	14	6	1	TUXEDO	1525	n/a	0	n/a	0	0	0	0	0.5869140625	0.422607421875	lower	../fonts/zerothre.ttf
1176658	START	n/a	LTP240	ltpFR	14	n/a	n/a	n/a	n/a	n/a	n/a	n/a	n/a	n/a	n/a	n/a	n/a	n/a	n/a	n/a
1177762	PROB	n/a	LTP240	ltpFR	14	n/a	n/a	n/a	n/a	n/a	n/a	24	7	8	9	n/a	n/a	n/a	n/a	n/a
1180569	PROB	n/a	LTP240	ltpFR	14	n/a	n/a	n/a	n/a	n/a	n/a	23	6	9	8	n/a	n/a	n/a	n/a	n/a
1184158	STOP	n/a	LTP240	ltpFR	14	n/a	n/a	n/a	n/a	n/a	n/a	n/a	n/a	n/a	n/a	n/a	n/a	n/a	n/a	n/a
1185608	WORD	wordpools/wasnorm_wordpool_less_exclusions.txt	LTP240	ltpFR	14	6	1	TOOL	1480	n/a	0	n/a	0	0	0	0	0.5869140625	0.422607421875	lower	../fonts/zerothre.ttf
1188620	START	n/a	LTP240	ltpFR	14	n/a	n/a	n/a	n/a	n/a	n/a	n/a	n/a	n/a	n/a	n/a	n/a	n/a	n/a	n/a
1189519	PROB	n/a	LTP240	ltpFR	14	n/a	n/a	n/a	n/a	n/a	n/a	12	1	9	2	n/a	n/a	n/a	n/a	n/a
1190724	PROB	n/a	LTP240	ltpFR	14	n/a	n/a	n/a	n/a	n/a	n/a	13	9	1	3	n/a	n/a	n/a	n/a	n/a
1191978	PROB	n/a	LTP240	ltpFR	14	n/a	n/a	n/a	n/a	n/a	n/a	17	1	8	8	n/a	n/a	n/a	n/a	n/a
1193451	PROB	n/a	LTP240	ltpFR	14	n/a	n/a	n/a	n/a	n/a	n/a	9	5	1	3	n/a	n/a	n/a	n/a	n/a
1194809	PROB	n/a	LTP240	ltpFR	14	n/a	n/a	n/a	n/a	n/a	n/a	17	7	4	6	n/a	n/a	n/a	n/a	n/a
1196431	STOP	n/a	LTP240	ltpFR	14	n/a	n/a	n/a	n/a	n/a	n/a	n/a	n/a	n/a	n/a	n/a	n/a	n/a	n/a	n/a
1197720	WORD	wordpools/wasnorm_wordpool_less_exclusions.txt	LTP240	ltpFR	14	6	0	CRAB	397	n/a	0	n/a	0	0	0	1	0.412841796875	0.57763671875	upper	../fonts/amplitud.ttf
1200732	START	n/a	LTP240	ltpFR	14	n/a	n/a	n/a	n/a	n/a	n/a	n/a	n/a	n/a	n/a	n/a	n/a	n/a	n/a	n/a
1201869	PROB	n/a	LTP240	ltpFR	14	n/a	n/a	n/a	n/a	n/a	n/a	16	6	2	8	n/a	n/a	n/a	n/a	n/a
1203706	PROB	n/a	LTP240	ltpFR	14	n/a	n/a	n/a	n/a	n/a	n/a	12	4	4	4	n/a	n/a	n/a	n/a	n/a
1204981	PROB	n/a	LTP240	ltpFR	14	n/a	n/a	n/a	n/a	n/a	n/a	17	9	7	1	n/a	n/a	n/a	n/a	n/a
1206537	PROB	n/a	LTP240	ltpFR	14	n/a	n/a	n/a	n/a	n/a	n/a	14	4	3	7	n/a	n/a	n/a	n/a	n/a
1207702	STOP	n/a	LTP240	ltpFR	14	n/a	n/a	n/a	n/a	n/a	n/a	n/a	n/a	n/a	n/a	n/a	n/a	n/a	n/a	n/a
1209632	WORD	wordpools/wasnorm_wordpool_less_exclusions.txt	LTP240	ltpFR	14	6	0	RASPBERRY	1168	n/a	0	n/a	0	0	0	1	0.412841796875	0.57763671875	upper	../fonts/amplitud.ttf
1212644	START	n/a	LTP240	ltpFR	14	n/a	n/a	n/a	n/a	n/a	n/a	n/a	n/a	n/a	n/a	n/a	n/a	n/a	n/a	n/a
1213798	PROB	n/a	LTP240	ltpFR	14	n/a	n/a	n/a	n/a	n/a	n/a	26	8	9	9	n/a	n/a	n/a	n/a	n/a
1215418	PROB	n/a	LTP240	ltpFR	14	n/a	n/a	n/a	n/a	n/a	n/a	14	3	6	5	n/a	n/a	n/a	n/a	n/a
1218227	PROB	n/a	LTP240	ltpFR	14	n/a	n/a	n/a	n/a	n/a	n/a	12	1	5	6	n/a	n/a	n/a	n/a	n/a
1219462	STOP	n/a	LTP240	ltpFR	14	n/a	n/a	n/a	n/a	n/a	n/a	n/a	n/a	n/a	n/a	n/a	n/a	n/a	n/a	n/a
1222565	REC_START	n/a	LTP240	ltpFR	14	6	n/a	n/a	n/a	n/a	n/a	n/a	0	0	0	n/a	n/a	n/a	n/a	n/a
1223626	REC_WORD	wordpools/wasnorm_wordpool_less_exclusions.txt	LTP240	ltpFR	14	6	0	RASPBERRY	1168	n/a	0	n/a	0	0	0	n/a	n/a	n/a	n/a	n/a
1224934	REC_WORD	wordpools/wasnorm_wordpool_less_exclusions.txt	LTP240	ltpFR	14	6	1	TOOL	1480	n/a	0	n/a	0	0	0	n/a	n/a	n/a	n/a	n/a
1229299	REC_WORD	wordpools/wasnorm_wordpool_less_exclusions.txt	LTP240	ltpFR	14	6	1	HAMMER	680	n/a	0	n/a	0	0	0	n/a	n/a	n/a	n/a	n/a
1234842	REC_WORD	wordpools/wasnorm_wordpool_less_exclusions.txt	LTP240	ltpFR	14	6	1	BLUEJAY	141	n/a	1	n/a	0	0	0	n/a	n/a	n/a	n/a	n/a
1242276	REC_WORD	wordpools/wasnorm_wordpool_less_exclusions.txt	LTP240	ltpFR	14	6	0	CLOWN	330	n/a	1	n/a	0	0	0	n/a	n/a	n/a	n/a	n/a
1243148	REC_WORD	wordpools/wasnorm_wordpool_less_exclusions.txt	LTP240	ltpFR	14	6	1	COSTUME	383	n/a	0	n/a	0	0	0	n/a	n/a	n/a	n/a	n/a
1264120	REC_WORD	wordpools/wasnorm_wordpool_less_exclusions.txt	LTP240	ltpFR	14	6	0	TROUT	1511	n/a	1	n/a	0	0	0	n/a	n/a	n/a	n/a	n/a
1308689	START	n/a	LTP240	ltpFR	14	n/a	n/a	n/a	n/a	n/a	n/a	n/a	n/a	n/a	n/a	n/a	n/a	n/a	n/a	n/a
1310194	PROB	n/a	LTP240	ltpFR	14	n/a	n/a	n/a	n/a	n/a	n/a	15	6	3	6	n/a	n/a	n/a	n/a	n/a
1312403	PROB	n/a	LTP240	ltpFR	14	n/a	n/a	n/a	n/a	n/a	n/a	15	8	5	2	n/a	n/a	n/a	n/a	n/a
1314055	PROB	n/a	LTP240	ltpFR	14	n/a	n/a	n/a	n/a	n/a	n/a	17	7	2	8	n/a	n/a	n/a	n/a	n/a
1315347	PROB	n/a	LTP240	ltpFR	14	n/a	n/a	n/a	n/a	n/a	n/a	11	5	2	4	n/a	n/a	n/a	n/a	n/a
1318321	PROB	n/a	LTP240	ltpFR	14	n/a	n/a	n/a	n/a	n/a	n/a	18	4	6	8	n/a	n/a	n/a	n/a	n/a
1319626	PROB	n/a	LTP240	ltpFR	14	n/a	n/a	n/a	n/a	n/a	n/a	15	3	6	6	n/a	n/a	n/a	n/a	n/a
1322421	PROB	n/a	LTP240	ltpFR	14	n/a	n/a	n/a	n/a	n/a	n/a	12	5	3	4	n/a	n/a	n/a	n/a	n/a
1324470	STOP	n/a	LTP240	ltpFR	14	n/a	n/a	n/a	n/a	n/a	n/a	n/a	n/a	n/a	n/a	n/a	n/a	n/a	n/a	n/a
1325870	WORD	wordpools/wasnorm_wordpool_less_exclusions.txt	LTP240	ltpFR	14	7	1	REGISTER	1180	n/a	0	n/a	0	0	0	0	0.5869140625	0.422607421875	lower	../fonts/zerothre.ttf
1328882	START	n/a	LTP240	ltpFR	14	n/a	n/a	n/a	n/a	n/a	n/a	n/a	n/a	n/a	n/a	n/a	n/a	n/a	n/a	n/a
1330036	PROB	n/a	LTP240	ltpFR	14	n/a	n/a	n/a	n/a	n/a	n/a	7	3	1	3	n/a	n/a	n/a	n/a	n/a
1331521	PROB	n/a	LTP240	ltpFR	14	n/a	n/a	n/a	n/a	n/a	n/a	12	5	3	4	n/a	n/a	n/a	n/a	n/a
1333248	PROB	n/a	LTP240	ltpFR	14	n/a	n/a	n/a	n/a	n/a	n/a	12	4	7	1	n/a	n/a	n/a	n/a	n/a
1334984	PROB	n/a	LTP240	ltpFR	14	n/a	n/a	n/a	n/a	n/a	n/a	16	6	3	7	n/a	n/a	n/a	n/a	n/a
1336490	PROB	n/a	LTP240	ltpFR	14	n/a	n/a	n/a	n/a	n/a	n/a	14	3	5	6	n/a	n/a	n/a	n/a	n/a
1339685	PROB	n/a	LTP240	ltpFR	14	n/a	n/a	n/a	n/a	n/a	n/a	14	3	5	6	n/a	n/a	n/a	n/a	n/a
1342228	PROB	n/a	LTP240	ltpFR	14	n/a	n/a	n/a	n/a	n/a	n/a	14	9	2	3	n/a	n/a	n/a	n/a	n/a
1344062	STOP	n/a	LTP240	ltpFR	14	n/a	n/a	n/a	n/a	n/a	n/a	n/a	n/a	n/a	n/a	n/a	n/a	n/a	n/a	n/a
1345946	WORD	wordpools/wasnorm_wordpool_less_exclusions.txt	LTP240	ltpFR	14	7	1	WALRUS	1585	n/a	1	n/a	0	0	0	0	0.5869140625	0.422607421875	lower	../fonts/zerothre.ttf
1348958	START	n/a	LTP240	ltpFR	14	n/a	n/a	n/a	n/a	n/a	n/a	n/a	n/a	n/a	n/a	n/a	n/a	n/a	n/a	n/a
1349827	PROB	n/a	LTP240	ltpFR	14	n/a	n/a	n/a	n/a	n/a	n/a	6	1	1	4	n/a	n/a	n/a	n/a	n/a
1351111	PROB	n/a	LTP240	ltpFR	14	n/a	n/a	n/a	n/a	n/a	n/a	20	5	8	7	n/a	n/a	n/a	n/a	n/a
1353587	PROB	n/a	LTP240	ltpFR	14	n/a	n/a	n/a	n/a	n/a	n/a	22	8	8	6	n/a	n/a	n/a	n/a	n/a
1355114	PROB	n/a	LTP240	ltpFR	14	n/a	n/a	n/a	n/a	n/a	n/a	15	2	8	5	n/a	n/a	n/a	n/a	n/a
1356632	PROB	n/a	LTP240	ltpFR	14	n/a	n/a	n/a	n/a	n/a	n/a	11	4	2	5	n/a	n/a	n/a	n/a	n/a
1359664	PROB	n/a	LTP240	ltpFR	14	n/a	n/a	n/a	n/a	n/a	n/a	18	5	6	7	n/a	n/a	n/a	n/a	n/a
1362253	PROB	n/a	LTP240	ltpFR	14	n/a	n/a	n/a	n/a	n/a	n/a	8	1	2	5	n/a	n/a	n/a	n/a	n/a
1363646	STOP	n/a	LTP240	ltpFR	14	n/a	n/a	n/a	n/a	n/a	n/a	n/a	n/a	n/a	n/a	n/a	n/a	n/a	n/a	n/a
1366088	WORD	wordpools/wasnorm_wordpool_less_exclusions.txt	LTP240	ltpFR	14	7	1	GAZELLE	628	n/a	1	n/a	0	0	0	0	0.5869140625	0.422607421875	lower	../fonts/zerothre.ttf
1369100	START	n/a	LTP240	ltpFR	14	n/a	n/a	n/a	n/a	n/a	n/a	n/a	n/a	n/a	n/a	n/a	n/a	n/a	n/a	n/a
1370137	PROB	n/a	LTP240	ltpFR	14	n/a	n/a	n/a	n/a	n/a	n/a	25	7	9	9	n/a	n/a	n/a	n/a	n/a
1373044	PROB	n/a	LTP240	ltpFR	14	n/a	n/a	n/a	n/a	n/a	n/a	25	9	9	7	n/a	n/a	n/a	n/a	n/a
1376323	PROB	n/a	LTP240	ltpFR	14	n/a	n/a	n/a	n/a	n/a	n/a	22	9	9	4	n/a	n/a	n/a	n/a	n/a
1378820	PROB	n/a	LTP240	ltpFR	14	n/a	n/a	n/a	n/a	n/a	n/a	21	9	8	4	n/a	n/a	n/a	n/a	n/a
1381459	PROB	n/a	LTP240	ltpFR	14	n/a	n/a	n/a	n/a	n/a	n/a	9	5	2	2	n/a	n/a	n/a	n/a	n/a
1385100	STOP	n/a	LTP240	ltpFR	14	n/a	n/a	n/a	n/a	n/a	n/a	n/a	n/a	n/a	n/a	n/a	n/a	n/a	n/a	n/a
1386097	WORD	wordpools/wasnorm_wordpool_less_exclusions.txt	LTP240	ltpFR	14	7	1	CITRUS	313	n/a	0	n/a	0	0	0	0	0.5869140625	0.422607421875	lower	../fonts/zerothre.ttf
1389109	START	n/a	LTP240	ltpFR	14	n/a	n/a	n/a	n/a	n/a	n/a	n/a	n/a	n/a	n/a	n/a	n/a	n/a	n/a	n/a
1390246	PROB	n/a	LTP240	ltpFR	14	n/a	n/a	n/a	n/a	n/a	n/a	18	6	4	8	n/a	n/a	n/a	n/a	n/a
1392584	PROB	n/a	LTP240	ltpFR	14	n/a	n/a	n/a	n/a	n/a	n/a	3	1	1	1	n/a	n/a	n/a	n/a	n/a
1393676	PROB	n/a	LTP240	ltpFR	14	n/a	n/a	n/a	n/a	n/a	n/a	6	3	1	2	n/a	n/a	n/a	n/a	n/a
1397637	PROB	n/a	LTP240	ltpFR	14	n/a	n/a	n/a	n/a	n/a	n/a	17	7	2	8	n/a	n/a	n/a	n/a	n/a
1400886	PROB	n/a	LTP240	ltpFR	14	n/a	n/a	n/a	n/a	n/a	n/a	21	7	5	9	n/a	n/a	n/a	n/a	n/a
1402660	PROB	n/a	LTP240	ltpFR	14	n/a	n/a	n/a	n/a	n/a	n/a	22	8	8	6	n/a	n/a	n/a	n/a	n/a
1404614	STOP	n/a	LTP240	ltpFR	14	n/a	n/a	n/a	n/a	n/a	n/a	n/a	n/a	n/a	n/a	n/a	n/a	n/a	n/a	n/a
1406173	WORD	wordpools/wasnorm_wordpool_less_exclusions.txt	LTP240	ltpFR	14	7	1	KIWI	781	n/a	0	n/a	0	0	0	0	0.5869140625	0.422607421875	lower	../fonts/zerothre.ttf
1409185	START	n/a	LTP240	ltpFR	14	n/a	n/a	n/a	n/a	n/a	n/a	n/a	n/a	n/a	n/a	n/a	n/a	n/a	n/a	n/a
1410054	PROB	n/a	LTP240	ltpFR	14	n/a	n/a	n/a	n/a	n/a	n/a	13	2	9	2	n/a	n/a	n/a	n/a	n/a
1412024	PROB	n/a	LTP240	ltpFR	14	n/a	n/a	n/a	n/a	n/a	n/a	10	3	6	1	n/a	n/a	n/a	n/a	n/a
1414082	PROB	n/a	LTP240	ltpFR	14	n/a	n/a	n/a	n/a	n/a	n/a	20	9	6	5	n/a	n/a	n/a	n/a	n/a
1416442	PROB	n/a	LTP240	ltpFR	14	n/a	n/a	n/a	n/a	n/a	n/a	9	7	1	1	n/a	n/a	n/a	n/a	n/a
1417746	PROB	n/a	LTP240	ltpFR	14	n/a	n/a	n/a	n/a	n/a	n/a	17	7	8	2	n/a	n/a	n/a	n/a	n/a
1419319	PROB	n/a	LTP240	ltpFR	14	n/a	n/a	n/a	n/a	n/a	n/a	13	5	3	5	n/a	n/a	n/a	n/a	n/a
1420874	PROB	n/a	LTP240	ltpFR	14	n/a	n/a	n/a	n/a	n/a	n/a	17	3	8	6	n/a	n/a	n/a	n/a	n/a
1422769	PROB	n/a	LTP240	ltpFR	14	n/a	n/a	n/a	n/a	n/a	n/a	13	9	2	2	n/a	n/a	n/a	n/a	n/a
1424526	STOP	n/a	LTP240	ltpFR	14	n/a	n/a	n/a	n/a	n/a	n/a	n/a	n/a	n/a	n/a	n/a	n/a	n/a	n/a	n/a
1426382	WORD	wordpools/wasnorm_wordpool_less_exclusions.txt	LTP240	ltpFR	14	7	1	ELBOW	520	n/a	0	n/a	0	0	0	0	0.5869140625	0.422607421875	lower	../fonts/zerothre.ttf
1429394	START	n/a	LTP240	ltpFR	14	n/a	n/a	n/a	n/a	n/a	n/a	n/a	n/a	n/a	n/a	n/a	n/a	n/a	n/a	n/a
1430481	PROB	n/a	LTP240	ltpFR	14	n/a	n/a	n/a	n/a	n/a	n/a	12	1	3	8	n/a	n/a	n/a	n/a	n/a
1432150	PROB	n/a	LTP240	ltpFR	14	n/a	n/a	n/a	n/a	n/a	n/a	16	7	5	4	n/a	n/a	n/a	n/a	n/a
1434844	PROB	n/a	LTP240	ltpFR	14	n/a	n/a	n/a	n/a	n/a	n/a	13	3	3	7	n/a	n/a	n/a	n/a	n/a
1436202	PROB	n/a	LTP240	ltpFR	14	n/a	n/a	n/a	n/a	n/a	n/a	7	1	5	1	n/a	n/a	n/a	n/a	n/a
1437721	PROB	n/a	LTP240	ltpFR	14	n/a	n/a	n/a	n/a	n/a	n/a	12	4	3	5	n/a	n/a	n/a	n/a	n/a
1440632	PROB	n/a	LTP240	ltpFR	14	n/a	n/a	n/a	n/a	n/a	n/a	13	4	1	8	n/a	n/a	n/a	n/a	n/a
1442610	PROB	n/a	LTP240	ltpFR	14	n/a	n/a	n/a	n/a	n/a	n/a	7	2	2	3	n/a	n/a	n/a	n/a	n/a
1444494	STOP	n/a	LTP240	ltpFR	14	n/a	n/a	n/a	n/a	n/a	n/a	n/a	n/a	n/a	n/a	n/a	n/a	n/a	n/a	n/a
1446409	WORD	wordpools/wasnorm_wordpool_less_exclusions.txt	LTP240	ltpFR	14	7	1	WORKER	1621	n/a	1	n/a	0	0	0	0	0.5869140625	0.422607421875	lower	../fonts/zerothre.ttf
1449421	START	n/a	LTP240	ltpFR	14	n/a	n/a	n/a	n/a	n/a	n/a	n/a	n/a	n/a	n/a	n/a	n/a	n/a	n/a	n/a
1450306	PROB	n/a	LTP240	ltpFR	14	n/a	n/a	n/a	n/a	n/a	n/a	14	6	4	4	n/a	n/a	n/a	n/a	n/a
1451795	PROB	n/a	LTP240	ltpFR	14	n/a	n/a	n/a	n/a	n/a	n/a	12	7	3	2	n/a	n/a	n/a	n/a	n/a
1453016	PROB	n/a	LTP240	ltpFR	14	n/a	n/a	n/a	n/a	n/a	n/a	13	6	3	4	n/a	n/a	n/a	n/a	n/a
1455338	PROB	n/a	LTP240	ltpFR	14	n/a	n/a	n/a	n/a	n/a	n/a	17	4	5	8	n/a	n/a	n/a	n/a	n/a
1457128	PROB	n/a	LTP240	ltpFR	14	n/a	n/a	n/a	n/a	n/a	n/a	10	2	6	2	n/a	n/a	n/a	n/a	n/a
1459052	PROB	n/a	LTP240	ltpFR	14	n/a	n/a	n/a	n/a	n/a	n/a	16	7	7	2	n/a	n/a	n/a	n/a	n/a
1460394	PROB	n/a	LTP240	ltpFR	14	n/a	n/a	n/a	n/a	n/a	n/a	23	6	8	9	n/a	n/a	n/a	n/a	n/a
1463753	PROB	n/a	LTP240	ltpFR	14	n/a	n/a	n/a	n/a	n/a	n/a	6	2	2	2	n/a	n/a	n/a	n/a	n/a
1464902	STOP	n/a	LTP240	ltpFR	14	n/a	n/a	n/a	n/a	n/a	n/a	n/a	n/a	n/a	n/a	n/a	n/a	n/a	n/a	n/a
1466597	WORD	wordpools/wasnorm_wordpool_less_exclusions.txt	LTP240	ltpFR	14	7	1	MAILBOX	857	n/a	0	n/a	0	0	0	0	0.5869140625	0.422607421875	lower	../fonts/zerothre.ttf
1469612	START	n/a	LTP240	ltpFR	14	n/a	n/a	n/a	n/a	n/a	n/a	n/a	n/a	n/a	n/a	n/a	n/a	n/a	n/a	n/a
1470528	PROB	n/a	LTP240	ltpFR	14	n/a	n/a	n/a	n/a	n/a	n/a	18	2	8	8	n/a	n/a	n/a	n/a	n/a
1473138	PROB	n/a	LTP240	ltpFR	14	n/a	n/a	n/a	n/a	n/a	n/a	13	3	4	6	n/a	n/a	n/a	n/a	n/a
1474698	PROB	n/a	LTP240	ltpFR	14	n/a	n/a	n/a	n/a	n/a	n/a	14	5	1	8	n/a	n/a	n/a	n/a	n/a
1476651	PROB	n/a	LTP240	ltpFR	14	n/a	n/a	n/a	n/a	n/a	n/a	17	4	8	5	n/a	n/a	n/a	n/a	n/a
1478562	PROB	n/a	LTP240	ltpFR	14	n/a	n/a	n/a	n/a	n/a	n/a	17	5	9	3	n/a	n/a	n/a	n/a	n/a
1480700	PROB	n/a	LTP240	ltpFR	14	n/a	n/a	n/a	n/a	n/a	n/a	19	9	8	2	n/a	n/a	n/a	n/a	n/a
1482172	PROB	n/a	LTP240	ltpFR	14	n/a	n/a	n/a	n/a	n/a	n/a	10	4	5	1	n/a	n/a	n/a	n/a	n/a
1485611	STOP	n/a	LTP240	ltpFR	14	n/a	n/a	n/a	n/a	n/a	n/a	n/a	n/a	n/a	n/a	n/a	n/a	n/a	n/a	n/a
1486605	WORD	wordpools/wasnorm_wordpool_less_exclusions.txt	LTP240	ltpFR	14	7	1	DESK	452	n/a	0	n/a	0	0	0	0	0.5869140625	0.422607421875	lower	../fonts/zerothre.ttf
1489621	START	n/a	LTP240	ltpFR	14	n/a	n/a	n/a	n/a	n/a	n/a	n/a	n/a	n/a	n/a	n/a	n/a	n/a	n/a	n/a
1490490	PROB	n/a	LTP240	ltpFR	14	n/a	n/a	n/a	n/a	n/a	n/a	10	2	6	2	n/a	n/a	n/a	n/a	n/a
1492227	PROB	n/a	LTP240	ltpFR	14	n/a	n/a	n/a	n/a	n/a	n/a	21	5	7	9	n/a	n/a	n/a	n/a	n/a
1494121	PROB	n/a	LTP240	ltpFR	14	n/a	n/a	n/a	n/a	n/a	n/a	18	7	6	5	n/a	n/a	n/a	n/a	n/a
1497547	PROB	n/a	LTP240	ltpFR	14	n/a	n/a	n/a	n/a	n/a	n/a	17	2	9	6	n/a	n/a	n/a	n/a	n/a
1500896	PROB	n/a	LTP240	ltpFR	14	n/a	n/a	n/a	n/a	n/a	n/a	12	3	5	4	n/a	n/a	n/a	n/a	n/a
1502887	PROB	n/a	LTP240	ltpFR	14	n/a	n/a	n/a	n/a	n/a	n/a	19	9	1	9	n/a	n/a	n/a	n/a	n/a
1504070	STOP	n/a	LTP240	ltpFR	14	n/a	n/a	n/a	n/a	n/a	n/a	n/a	n/a	n/a	n/a	n/a	n/a	n/a	n/a	n/a
1506635	WORD	wordpools/wasnorm_wordpool_less_exclusions.txt	LTP240	ltpFR	14	7	1	BILL	126	n/a	0	n/a	0	0	0	0	0.5869140625	0.422607421875	lower	../fonts/zerothre.ttf
1509647	START	n/a	LTP240	ltpFR	14	n/a	n/a	n/a	n/a	n/a	n/a	n/a	n/a	n/a	n/a	n/a	n/a	n/a	n/a	n/a
1510730	PROB	n/a	LTP240	ltpFR	14	n/a	n/a	n/a	n/a	n/a	n/a	20	4	8	8	n/a	n/a	n/a	n/a	n/a
1512441	PROB	n/a	LTP240	ltpFR	14	n/a	n/a	n/a	n/a	n/a	n/a	19	9	5	5	n/a	n/a	n/a	n/a	n/a
1513724	PROB	n/a	LTP240	ltpFR	14	n/a	n/a	n/a	n/a	n/a	n/a	13	3	8	2	n/a	n/a	n/a	n/a	n/a
1515079	PROB	n/a	LTP240	ltpFR	14	n/a	n/a	n/a	n/a	n/a	n/a	18	3	6	9	n/a	n/a	n/a	n/a	n/a
1516819	PROB	n/a	LTP240	ltpFR	14	n/a	n/a	n/a	n/a	n/a	n/a	14	4	7	3	n/a	n/a	n/a	n/a	n/a
1518091	PROB	n/a	LTP240	ltpFR	14	n/a	n/a	n/a	n/a	n/a	n/a	14	3	2	9	n/a	n/a	n/a	n/a	n/a
1519801	PROB	n/a	LTP240	ltpFR	14	n/a	n/a	n/a	n/a	n/a	n/a	11	3	6	2	n/a	n/a	n/a	n/a	n/a
1522156	PROB	n/a	LTP240	ltpFR	14	n/a	n/a	n/a	n/a	n/a	n/a	8	1	6	1	n/a	n/a	n/a	n/a	n/a
1523361	PROB	n/a	LTP240	ltpFR	14	n/a	n/a	n/a	n/a	n/a	n/a	14	1	7	6	n/a	n/a	n/a	n/a	n/a
1524902	STOP	n/a	LTP240	ltpFR	14	n/a	n/a	n/a	n/a	n/a	n/a	n/a	n/a	n/a	n/a	n/a	n/a	n/a	n/a	n/a
1526643	WORD	wordpools/wasnorm_wordpool_less_exclusions.txt	LTP240	ltpFR	14	7	1	HAMMOCK	681	n/a	0	n/a	0	0	0	0	0.5869140625	0.422607421875	lower	../fonts/zerothre.ttf
1529656	START	n/a	LTP240	ltpFR	14	n/a	n/a	n/a	n/a	n/a	n/a	n/a	n/a	n/a	n/a	n/a	n/a	n/a	n/a	n/a
1530742	PROB	n/a	LTP240	ltpFR	14	n/a	n/a	n/a	n/a	n/a	n/a	19	8	3	8	n/a	n/a	n/a	n/a	n/a
1533164	PROB	n/a	LTP240	ltpFR	14	n/a	n/a	n/a	n/a	n/a	n/a	14	8	1	5	n/a	n/a	n/a	n/a	n/a
1535293	PROB	n/a	LTP240	ltpFR	14	n/a	n/a	n/a	n/a	n/a	n/a	14	2	3	9	n/a	n/a	n/a	n/a	n/a
1537447	PROB	n/a	LTP240	ltpFR	14	n/a	n/a	n/a	n/a	n/a	n/a	15	6	6	3	n/a	n/a	n/a	n/a	n/a
1539776	PROB	n/a	LTP240	ltpFR	14	n/a	n/a	n/a	n/a	n/a	n/a	15	7	1	7	n/a	n/a	n/a	n/a	n/a
1541763	PROB	n/a	LTP240	ltpFR	14	n/a	n/a	n/a	n/a	n/a	n/a	19	3	8	8	n/a	n/a	n/a	n/a	n/a
1545656	STOP	n/a	LTP240	ltpFR	14	n/a	n/a	n/a	n/a	n/a	n/a	n/a	n/a	n/a	n/a	n/a	n/a	n/a	n/a	n/a
1546585	WORD	wordpools/wasnorm_wordpool_less_exclusions.txt	LTP240	ltpFR	14	7	1	WASP	1593	n/a	1	n/a	0	0	0	0	0.5869140625	0.422607421875	lower	../fonts/zerothre.ttf
1549597	START	n/a	LTP240	ltpFR	14	n/a	n/a	n/a	n/a	n/a	n/a	n/a	n/a	n/a	n/a	n/a	n/a	n/a	n/a	n/a
1550533	PROB	n/a	LTP240	ltpFR	14	n/a	n/a	n/a	n/a	n/a	n/a	13	6	2	5	n/a	n/a	n/a	n/a	n/a
1553545	PROB	n/a	LTP240	ltpFR	14	n/a	n/a	n/a	n/a	n/a	n/a	10	1	3	6	n/a	n/a	n/a	n/a	n/a
1555034	PROB	n/a	LTP240	ltpFR	14	n/a	n/a	n/a	n/a	n/a	n/a	9	4	2	3	n/a	n/a	n/a	n/a	n/a
1557774	PROB	n/a	LTP240	ltpFR	14	n/a	n/a	n/a	n/a	n/a	n/a	12	3	3	6	n/a	n/a	n/a	n/a	n/a
1559547	PROB	n/a	LTP240	ltpFR	14	n/a	n/a	n/a	n/a	n/a	n/a	15	6	3	6	n/a	n/a	n/a	n/a	n/a
1561906	PROB	n/a	LTP240	ltpFR	14	n/a	n/a	n/a	n/a	n/a	n/a	19	6	7	6	n/a	n/a	n/a	n/a	n/a
1564086	STOP	n/a	LTP240	ltpFR	14	n/a	n/a	n/a	n/a	n/a	n/a	n/a	n/a	n/a	n/a	n/a	n/a	n/a	n/a	n/a
1566594	WORD	wordpools/wasnorm_wordpool_less_exclusions.txt	LTP240	ltpFR	14	7	1	WIRE	1616	n/a	0	n/a	0	0	0	0	0.5869140625	0.422607421875	lower	../fonts/zerothre.ttf
1569606	START	n/a	LTP240	ltpFR	14	n/a	n/a	n/a	n/a	n/a	n/a	n/a	n/a	n/a	n/a	n/a	n/a	n/a	n/a	n/a
1570709	PROB	n/a	LTP240	ltpFR	14	n/a	n/a	n/a	n/a	n/a	n/a	20	6	7	7	n/a	n/a	n/a	n/a	n/a
1573065	PROB	n/a	LTP240	ltpFR	14	n/a	n/a	n/a	n/a	n/a	n/a	6	1	3	2	n/a	n/a	n/a	n/a	n/a
1575009	PROB	n/a	LTP240	ltpFR	14	n/a	n/a	n/a	n/a	n/a	n/a	13	2	3	8	n/a	n/a	n/a	n/a	n/a
1576712	PROB	n/a	LTP240	ltpFR	14	n/a	n/a	n/a	n/a	n/a	n/a	10	1	8	1	n/a	n/a	n/a	n/a	n/a
1578050	PROB	n/a	LTP240	ltpFR	14	n/a	n/a	n/a	n/a	n/a	n/a	10	6	2	2	n/a	n/a	n/a	n/a	n/a
1580024	PROB	n/a	LTP240	ltpFR	14	n/a	n/a	n/a	n/a	n/a	n/a	11	5	2	4	n/a	n/a	n/a	n/a	n/a
1582504	PROB	n/a	LTP240	ltpFR	14	n/a	n/a	n/a	n/a	n/a	n/a	16	6	8	2	n/a	n/a	n/a	n/a	n/a
1583956	PROB	n/a	LTP240	ltpFR	14	n/a	n/a	n/a	n/a	n/a	n/a	9	5	2	2	n/a	n/a	n/a	n/a	n/a
1585150	STOP	n/a	LTP240	ltpFR	14	n/a	n/a	n/a	n/a	n/a	n/a	n/a	n/a	n/a	n/a	n/a	n/a	n/a	n/a	n/a
1586820	WORD	wordpools/wasnorm_wordpool_less_exclusions.txt	LTP240	ltpFR	14	7	1	CHAIN	273	n/a	0	n/a	0	0	0	0	0.5869140625	0.422607421875	lower	../fonts/zerothre.ttf
1589832	START	n/a	LTP240	ltpFR	14	n/a	n/a	n/a	n/a	n/a	n/a	n/a	n/a	n/a	n/a	n/a	n/a	n/a	n/a	n/a
1590685	PROB	n/a	LTP240	ltpFR	14	n/a	n/a	n/a	n/a	n/a	n/a	12	2	5	5	n/a	n/a	n/a	n/a	n/a
1592019	PROB	n/a	LTP240	ltpFR	14	n/a	n/a	n/a	n/a	n/a	n/a	15	1	9	5	n/a	n/a	n/a	n/a	n/a
1593190	PROB	n/a	LTP240	ltpFR	14	n/a	n/a	n/a	n/a	n/a	n/a	8	2	4	2	n/a	n/a	n/a	n/a	n/a
1594947	PROB	n/a	LTP240	ltpFR	14	n/a	n/a	n/a	n/a	n/a	n/a	11	1	7	3	n/a	n/a	n/a	n/a	n/a
1596219	PROB	n/a	LTP240	ltpFR	14	n/a	n/a	n/a	n/a	n/a	n/a	18	9	8	1	n/a	n/a	n/a	n/a	n/a
1597778	PROB	n/a	LTP240	ltpFR	14	n/a	n/a	n/a	n/a	n/a	n/a	21	8	6	7	n/a	n/a	n/a	n/a	n/a
1601756	PROB	n/a	LTP240	ltpFR	14	n/a	n/a	n/a	n/a	n/a	n/a	23	5	8	9	n/a	n/a	n/a	n/a	n/a
1604734	STOP	n/a	LTP240	ltpFR	14	n/a	n/a	n/a	n/a	n/a	n/a	n/a	n/a	n/a	n/a	n/a	n/a	n/a	n/a	n/a
1607009	WORD	wordpools/wasnorm_wordpool_less_exclusions.txt	LTP240	ltpFR	14	7	1	LIMB	822	n/a	0	n/a	0	0	0	0	0.5869140625	0.422607421875	lower	../fonts/zerothre.ttf
1610025	START	n/a	LTP240	ltpFR	14	n/a	n/a	n/a	n/a	n/a	n/a	n/a	n/a	n/a	n/a	n/a	n/a	n/a	n/a	n/a
1611145	PROB	n/a	LTP240	ltpFR	14	n/a	n/a	n/a	n/a	n/a	n/a	18	5	7	6	n/a	n/a	n/a	n/a	n/a
1613801	PROB	n/a	LTP240	ltpFR	14	n/a	n/a	n/a	n/a	n/a	n/a	18	8	7	3	n/a	n/a	n/a	n/a	n/a
1615261	PROB	n/a	LTP240	ltpFR	14	n/a	n/a	n/a	n/a	n/a	n/a	18	3	9	6	n/a	n/a	n/a	n/a	n/a
1617265	PROB	n/a	LTP240	ltpFR	14	n/a	n/a	n/a	n/a	n/a	n/a	22	9	6	7	n/a	n/a	n/a	n/a	n/a
1619824	PROB	n/a	LTP240	ltpFR	14	n/a	n/a	n/a	n/a	n/a	n/a	10	6	2	2	n/a	n/a	n/a	n/a	n/a
1621250	PROB	n/a	LTP240	ltpFR	14	n/a	n/a	n/a	n/a	n/a	n/a	22	8	7	7	n/a	n/a	n/a	n/a	n/a
1623810	PROB	n/a	LTP240	ltpFR	14	n/a	n/a	n/a	n/a	n/a	n/a	11	3	4	4	n/a	n/a	n/a	n/a	n/a
1625518	STOP	n/a	LTP240	ltpFR	14	n/a	n/a	n/a	n/a	n/a	n/a	n/a	n/a	n/a	n/a	n/a	n/a	n/a	n/a	n/a
1627156	WORD	wordpools/wasnorm_wordpool_less_exclusions.txt	LTP240	ltpFR	14	7	1	SHINGLE	1285	n/a	0	n/a	0	0	0	0	0.5869140625	0.422607421875	lower	../fonts/zerothre.ttf
1630167	START	n/a	LTP240	ltpFR	14	n/a	n/a	n/a	n/a	n/a	n/a	n/a	n/a	n/a	n/a	n/a	n/a	n/a	n/a	n/a
1631204	PROB	n/a	LTP240	ltpFR	14	n/a	n/a	n/a	n/a	n/a	n/a	22	9	9	4	n/a	n/a	n/a	n/a	n/a
1633074	PROB	n/a	LTP240	ltpFR	14	n/a	n/a	n/a	n/a	n/a	n/a	23	7	7	9	n/a	n/a	n/a	n/a	n/a
1635818	PROB	n/a	LTP240	ltpFR	14	n/a	n/a	n/a	n/a	n/a	n/a	12	6	4	2	n/a	n/a	n/a	n/a	n/a
1637173	PROB	n/a	LTP240	ltpFR	14	n/a	n/a	n/a	n/a	n/a	n/a	11	3	1	7	n/a	n/a	n/a	n/a	n/a
1638548	PROB	n/a	LTP240	ltpFR	14	n/a	n/a	n/a	n/a	n/a	n/a	19	9	2	8	n/a	n/a	n/a	n/a	n/a
1640000	PROB	n/a	LTP240	ltpFR	14	n/a	n/a	n/a	n/a	n/a	n/a	20	7	4	9	n/a	n/a	n/a	n/a	n/a
1642480	PROB	n/a	LTP240	ltpFR	14	n/a	n/a	n/a	n/a	n/a	n/a	9	4	4	1	n/a	n/a	n/a	n/a	n/a
1643848	PROB	n/a	LTP240	ltpFR	14	n/a	n/a	n/a	n/a	n/a	n/a	15	5	9	1	n/a	n/a	n/a	n/a	n/a
1645030	STOP	n/a	LTP240	ltpFR	14	n/a	n/a	n/a	n/a	n/a	n/a	n/a	n/a	n/a	n/a	n/a	n/a	n/a	n/a	n/a
1648085	REC_START	n/a	LTP240	ltpFR	14	7	n/a	n/a	n/a	n/a	n/a	n/a	0	0	0	n/a	n/a	n/a	n/a	n/a
1649517	REC_WORD	wordpools/wasnorm_wordpool_less_exclusions.txt	LTP240	ltpFR	14	7	1	SHINGLE	1285	n/a	0	n/a	0	0	0	n/a	n/a	n/a	n/a	n/a
1652026	REC_WORD	wordpools/wasnorm_wordpool_less_exclusions.txt	LTP240	ltpFR	14	7	1	WIRE	1616	n/a	0	n/a	0	0	0	n/a	n/a	n/a	n/a	n/a
1653807	REC_WORD	wordpools/wasnorm_wordpool_less_exclusions.txt	LTP240	ltpFR	14	7	1	CHAIN	273	n/a	0	n/a	0	0	0	n/a	n/a	n/a	n/a	n/a
1655902	REC_WORD	wordpools/wasnorm_wordpool_less_exclusions.txt	LTP240	ltpFR	14	7	1	HAMMOCK	681	n/a	0	n/a	0	0	0	n/a	n/a	n/a	n/a	n/a
1671821	REC_WORD	wordpools/wasnorm_wordpool_less_exclusions.txt	LTP240	ltpFR	14	7	1	WASP	1593	n/a	1	n/a	0	0	0	n/a	n/a	n/a	n/a	n/a
1736769	WORD	wordpools/wasnorm_wordpool_less_exclusions.txt	LTP240	ltpFR	14	8	1	CABOOSE	214	n/a	0	n/a	0	0	0	0	0.5869140625	0.422607421875	lower	../fonts/zerothre.ttf
1740717	WORD	wordpools/wasnorm_wordpool_less_exclusions.txt	LTP240	ltpFR	14	8	1	UNCLE	1536	n/a	1	n/a	0	0	0	0	0.5869140625	0.422607421875	lower	../fonts/zerothre.ttf
1744765	WORD	wordpools/wasnorm_wordpool_less_exclusions.txt	LTP240	ltpFR	14	8	1	COMMANDER	354	n/a	1	n/a	0	0	0	0	0.5869140625	0.422607421875	lower	../fonts/zerothre.ttf
1748931	WORD	wordpools/wasnorm_wordpool_less_exclusions.txt	LTP240	ltpFR	14	8	1	POLE	1097	n/a	0	n/a	0	0	0	0	0.5869140625	0.422607421875	lower	../fonts/zerothre.ttf
1752863	WORD	wordpools/wasnorm_wordpool_less_exclusions.txt	LTP240	ltpFR	14	8	0	TRAIN	1494	n/a	1	n/a	0	0	0	1	0.412841796875	0.57763671875	upper	../fonts/amplitud.ttf
1756861	WORD	wordpools/wasnorm_wordpool_less_exclusions.txt	LTP240	ltpFR	14	8	0	SHIRT	1287	n/a	0	n/a	0	0	0	1	0.412841796875	0.57763671875	upper	../fonts/amplitud.ttf
1760939	WORD	wordpools/wasnorm_wordpool_less_exclusions.txt	LTP240	ltpFR	14	8	0	CATERPILLAR	259	n/a	0	n/a	0	0	0	1	0.412841796875	0.57763671875	upper	../fonts/amplitud.ttf
1765021	WORD	wordpools/wasnorm_wordpool_less_exclusions.txt	LTP240	ltpFR	14	8	0	CAMERA	224	n/a	1	n/a	0	0	0	1	0.412841796875	0.57763671875	upper	../fonts/amplitud.ttf
1769057	WORD	wordpools/wasnorm_wordpool_less_exclusions.txt	LTP240	ltpFR	14	8	0	TOURIST	1488	n/a	1	n/a	0	0	0	1	0.412841796875	0.57763671875	upper	../fonts/amplitud.ttf
1772972	WORD	wordpools/wasnorm_wordpool_less_exclusions.txt	LTP240	ltpFR	14	8	1	SHACK	1273	n/a	0	n/a	0	0	0	0	0.5869140625	0.422607421875	lower	../fonts/zerothre.ttf
1777117	WORD	wordpools/wasnorm_wordpool_less_exclusions.txt	LTP240	ltpFR	14	8	1	PRAIRIE	1118	n/a	0	n/a	0	0	0	0	0.5869140625	0.422607421875	lower	../fonts/zerothre.ttf
1781169	WORD	wordpools/wasnorm_wordpool_less_exclusions.txt	LTP240	ltpFR	14	8	1	FLEA	577	n/a	1	n/a	0	0	0	0	0.5869140625	0.422607421875	lower	../fonts/zerothre.ttf
1785368	WORD	wordpools/wasnorm_wordpool_less_exclusions.txt	LTP240	ltpFR	14	8	1	RULER	1216	n/a	1	n/a	0	0	0	0	0.5869140625	0.422607421875	lower	../fonts/zerothre.ttf
1789350	WORD	wordpools/wasnorm_wordpool_less_exclusions.txt	LTP240	ltpFR	14	8	0	PATRIOT	1026	n/a	1	n/a	0	0	0	1	0.412841796875	0.57763671875	upper	../fonts/amplitud.ttf
1793549	WORD	wordpools/wasnorm_wordpool_less_exclusions.txt	LTP240	ltpFR	14	8	0	FOOT	590	n/a	0	n/a	0	0	0	1	0.412841796875	0.57763671875	upper	../fonts/amplitud.ttf
1797765	WORD	wordpools/wasnorm_wordpool_less_exclusions.txt	LTP240	ltpFR	14	8	0	SNEAKER	1334	n/a	0	n/a	0	0	0	1	0.412841796875	0.57763671875	upper	../fonts/amplitud.ttf
1803906	REC_START	n/a	LTP240	ltpFR	14	8	n/a	n/a	n/a	n/a	n/a	n/a	0	0	0	n/a	n/a	n/a	n/a	n/a
1804864	REC_WORD	wordpools/wasnorm_wordpool_less_exclusions.txt	LTP240	ltpFR	14	8	0	SNEAKER	1334	n/a	0	n/a	0	0	0	n/a	n/a	n/a	n/a	n/a
1805896	REC_WORD	wordpools/wasnorm_wordpool_less_exclusions.txt	LTP240	ltpFR	14	8	0	FOOT	590	n/a	0	n/a	0	0	0	n/a	n/a	n/a	n/a	n/a
1806959	REC_WORD	wordpools/wasnorm_wordpool_less_exclusions.txt	LTP240	ltpFR	14	8	0	PATRIOT	1026	n/a	1	n/a	0	0	0	n/a	n/a	n/a	n/a	n/a
1808855	REC_WORD	wordpools/wasnorm_wordpool_less_exclusions.txt	LTP240	ltpFR	14	8	1	RULER	1216	n/a	1	n/a	0	0	0	n/a	n/a	n/a	n/a	n/a
1812227	REC_WORD	wordpools/wasnorm_wordpool_less_exclusions.txt	LTP240	ltpFR	14	8	1	COMMANDER	354	n/a	1	n/a	0	0	0	n/a	n/a	n/a	n/a	n/a
1813878	REC_WORD	wordpools/wasnorm_wordpool_less_exclusions.txt	LTP240	ltpFR	14	8	1	UNCLE	1536	n/a	1	n/a	0	0	0	n/a	n/a	n/a	n/a	n/a
1820882	REC_WORD	wordpools/wasnorm_wordpool_less_exclusions.txt	LTP240	ltpFR	14	8	1	PRAIRIE	1118	n/a	0	n/a	0	0	0	n/a	n/a	n/a	n/a	n/a
1843173	REC_WORD	wordpools/wasnorm_wordpool_less_exclusions.txt	LTP240	ltpFR	14	8	1	CABOOSE	214	n/a	0	n/a	0	0	0	n/a	n/a	n/a	n/a	n/a
1858038	REC_WORD	wordpools/wasnorm_wordpool_less_exclusions.txt	LTP240	ltpFR	14	8	0	CATERPILLAR	259	n/a	0	n/a	0	0	0	n/a	n/a	n/a	n/a	n/a
1890498	START	n/a	LTP240	ltpFR	14	n/a	n/a	n/a	n/a	n/a	n/a	n/a	n/a	n/a	n/a	n/a	n/a	n/a	n/a	n/a
1892004	PROB	n/a	LTP240	ltpFR	14	n/a	n/a	n/a	n/a	n/a	n/a	16	4	3	9	n/a	n/a	n/a	n/a	n/a
1894978	PROB	n/a	LTP240	ltpFR	14	n/a	n/a	n/a	n/a	n/a	n/a	14	9	4	1	n/a	n/a	n/a	n/a	n/a
1898497	STOP	n/a	LTP240	ltpFR	14	n/a	n/a	n/a	n/a	n/a	n/a	n/a	n/a	n/a	n/a	n/a	n/a	n/a	n/a	n/a
1899398	WORD	wordpools/wasnorm_wordpool_less_exclusions.txt	LTP240	ltpFR	14	9	1	CAR	241	n/a	0	n/a	0	0	0	0	0.5869140625	0.422607421875	lower	../fonts/zerothre.ttf
1902411	START	n/a	LTP240	ltpFR	14	n/a	n/a	n/a	n/a	n/a	n/a	n/a	n/a	n/a	n/a	n/a	n/a	n/a	n/a	n/a
1903444	PROB	n/a	LTP240	ltpFR	14	n/a	n/a	n/a	n/a	n/a	n/a	12	7	2	3	n/a	n/a	n/a	n/a	n/a
1904832	PROB	n/a	LTP240	ltpFR	14	n/a	n/a	n/a	n/a	n/a	n/a	14	4	1	9	n/a	n/a	n/a	n/a	n/a
1906237	PROB	n/a	LTP240	ltpFR	14	n/a	n/a	n/a	n/a	n/a	n/a	19	6	9	4	n/a	n/a	n/a	n/a	n/a
1910410	STOP	n/a	LTP240	ltpFR	14	n/a	n/a	n/a	n/a	n/a	n/a	n/a	n/a	n/a	n/a	n/a	n/a	n/a	n/a	n/a
1911406	WORD	wordpools/wasnorm_wordpool_less_exclusions.txt	LTP240	ltpFR	14	9	1	DASHBOARD	441	n/a	0	n/a	0	0	0	0	0.5869140625	0.422607421875	lower	../fonts/zerothre.ttf
1914423	START	n/a	LTP240	ltpFR	14	n/a	n/a	n/a	n/a	n/a	n/a	n/a	n/a	n/a	n/a	n/a	n/a	n/a	n/a	n/a
1915355	PROB	n/a	LTP240	ltpFR	14	n/a	n/a	n/a	n/a	n/a	n/a	21	7	7	7	n/a	n/a	n/a	n/a	n/a
1916760	PROB	n/a	LTP240	ltpFR	14	n/a	n/a	n/a	n/a	n/a	n/a	11	1	5	5	n/a	n/a	n/a	n/a	n/a
1917964	PROB	n/a	LTP240	ltpFR	14	n/a	n/a	n/a	n/a	n/a	n/a	16	4	5	7	n/a	n/a	n/a	n/a	n/a
1920878	STOP	n/a	LTP240	ltpFR	14	n/a	n/a	n/a	n/a	n/a	n/a	n/a	n/a	n/a	n/a	n/a	n/a	n/a	n/a	n/a
1923569	WORD	wordpools/wasnorm_wordpool_less_exclusions.txt	LTP240	ltpFR	14	9	0	RAG	1160	n/a	0	n/a	0	0	0	1	0.412841796875	0.57763671875	upper	../fonts/amplitud.ttf
1926585	START	n/a	LTP240	ltpFR	14	n/a	n/a	n/a	n/a	n/a	n/a	n/a	n/a	n/a	n/a	n/a	n/a	n/a	n/a	n/a
1927668	PROB	n/a	LTP240	ltpFR	14	n/a	n/a	n/a	n/a	n/a	n/a	20	3	8	9	n/a	n/a	n/a	n/a	n/a
1929809	PROB	n/a	LTP240	ltpFR	14	n/a	n/a	n/a	n/a	n/a	n/a	23	9	7	7	n/a	n/a	n/a	n/a	n/a
1931549	PROB	n/a	LTP240	ltpFR	14	n/a	n/a	n/a	n/a	n/a	n/a	20	7	5	8	n/a	n/a	n/a	n/a	n/a
1933374	STOP	n/a	LTP240	ltpFR	14	n/a	n/a	n/a	n/a	n/a	n/a	n/a	n/a	n/a	n/a	n/a	n/a	n/a	n/a	n/a
1935631	WORD	wordpools/wasnorm_wordpool_less_exclusions.txt	LTP240	ltpFR	14	9	0	MEAL	882	n/a	1	n/a	0	0	0	1	0.412841796875	0.57763671875	upper	../fonts/amplitud.ttf
1938647	START	n/a	LTP240	ltpFR	14	n/a	n/a	n/a	n/a	n/a	n/a	n/a	n/a	n/a	n/a	n/a	n/a	n/a	n/a	n/a
1939683	PROB	n/a	LTP240	ltpFR	14	n/a	n/a	n/a	n/a	n/a	n/a	14	4	8	2	n/a	n/a	n/a	n/a	n/a
1941102	PROB	n/a	LTP240	ltpFR	14	n/a	n/a	n/a	n/a	n/a	n/a	22	9	7	6	n/a	n/a	n/a	n/a	n/a
1944816	PROB	n/a	LTP240	ltpFR	14	n/a	n/a	n/a	n/a	n/a	n/a	18	4	8	6	n/a	n/a	n/a	n/a	n/a
1946510	STOP	n/a	LTP240	ltpFR	14	n/a	n/a	n/a	n/a	n/a	n/a	n/a	n/a	n/a	n/a	n/a	n/a	n/a	n/a	n/a
1947814	WORD	wordpools/wasnorm_wordpool_less_exclusions.txt	LTP240	ltpFR	14	9	0	CHEST	295	n/a	1	n/a	0	0	0	1	0.412841796875	0.57763671875	upper	../fonts/amplitud.ttf
1950826	START	n/a	LTP240	ltpFR	14	n/a	n/a	n/a	n/a	n/a	n/a	n/a	n/a	n/a	n/a	n/a	n/a	n/a	n/a	n/a
1951692	PROB	n/a	LTP240	ltpFR	14	n/a	n/a	n/a	n/a	n/a	n/a	17	7	8	2	n/a	n/a	n/a	n/a	n/a
1954536	PROB	n/a	LTP240	ltpFR	14	n/a	n/a	n/a	n/a	n/a	n/a	20	2	9	9	n/a	n/a	n/a	n/a	n/a
1956543	PROB	n/a	LTP240	ltpFR	14	n/a	n/a	n/a	n/a	n/a	n/a	8	1	1	6	n/a	n/a	n/a	n/a	n/a
1957702	STOP	n/a	LTP240	ltpFR	14	n/a	n/a	n/a	n/a	n/a	n/a	n/a	n/a	n/a	n/a	n/a	n/a	n/a	n/a	n/a
1959755	WORD	wordpools/wasnorm_wordpool_less_exclusions.txt	LTP240	ltpFR	14	9	0	DAUGHTER	442	n/a	1	n/a	0	0	0	1	0.412841796875	0.57763671875	upper	../fonts/amplitud.ttf
1962771	START	n/a	LTP240	ltpFR	14	n/a	n/a	n/a	n/a	n/a	n/a	n/a	n/a	n/a	n/a	n/a	n/a	n/a	n/a	n/a
1963841	PROB	n/a	LTP240	ltpFR	14	n/a	n/a	n/a	n/a	n/a	n/a	20	7	8	5	n/a	n/a	n/a	n/a	n/a
1965849	PROB	n/a	LTP240	ltpFR	14	n/a	n/a	n/a	n/a	n/a	n/a	11	5	4	2	n/a	n/a	n/a	n/a	n/a
1967401	PROB	n/a	LTP240	ltpFR	14	n/a	n/a	n/a	n/a	n/a	n/a	15	7	2	6	n/a	n/a	n/a	n/a	n/a
1969878	STOP	n/a	LTP240	ltpFR	14	n/a	n/a	n/a	n/a	n/a	n/a	n/a	n/a	n/a	n/a	n/a	n/a	n/a	n/a	n/a
1971988	WORD	wordpools/wasnorm_wordpool_less_exclusions.txt	LTP240	ltpFR	14	9	1	TWISTER	1530	n/a	0	n/a	0	0	0	0	0.5869140625	0.422607421875	lower	../fonts/zerothre.ttf
1975000	START	n/a	LTP240	ltpFR	14	n/a	n/a	n/a	n/a	n/a	n/a	n/a	n/a	n/a	n/a	n/a	n/a	n/a	n/a	n/a
1975899	PROB	n/a	LTP240	ltpFR	14	n/a	n/a	n/a	n/a	n/a	n/a	11	8	2	1	n/a	n/a	n/a	n/a	n/a
1977037	PROB	n/a	LTP240	ltpFR	14	n/a	n/a	n/a	n/a	n/a	n/a	16	6	3	7	n/a	n/a	n/a	n/a	n/a
1978563	PROB	n/a	LTP240	ltpFR	14	n/a	n/a	n/a	n/a	n/a	n/a	7	1	3	3	n/a	n/a	n/a	n/a	n/a
1980132	PROB	n/a	LTP240	ltpFR	14	n/a	n/a	n/a	n/a	n/a	n/a	20	6	7	7	n/a	n/a	n/a	n/a	n/a
1981902	STOP	n/a	LTP240	ltpFR	14	n/a	n/a	n/a	n/a	n/a	n/a	n/a	n/a	n/a	n/a	n/a	n/a	n/a	n/a	n/a
1984051	WORD	wordpools/wasnorm_wordpool_less_exclusions.txt	LTP240	ltpFR	14	9	1	DESSERT	453	n/a	0	n/a	0	0	0	0	0.5869140625	0.422607421875	lower	../fonts/zerothre.ttf
1987063	START	n/a	LTP240	ltpFR	14	n/a	n/a	n/a	n/a	n/a	n/a	n/a	n/a	n/a	n/a	n/a	n/a	n/a	n/a	n/a
1987915	PROB	n/a	LTP240	ltpFR	14	n/a	n/a	n/a	n/a	n/a	n/a	16	6	4	6	n/a	n/a	n/a	n/a	n/a
1990960	PROB	n/a	LTP240	ltpFR	14	n/a	n/a	n/a	n/a	n/a	n/a	15	5	9	1	n/a	n/a	n/a	n/a	n/a
1992834	PROB	n/a	LTP240	ltpFR	14	n/a	n/a	n/a	n/a	n/a	n/a	26	9	8	9	n/a	n/a	n/a	n/a	n/a
1994510	STOP	n/a	LTP240	ltpFR	14	n/a	n/a	n/a	n/a	n/a	n/a	n/a	n/a	n/a	n/a	n/a	n/a	n/a	n/a	n/a
1996230	WORD	wordpools/wasnorm_wordpool_less_exclusions.txt	LTP240	ltpFR	14	9	0	PURSE	1145	n/a	1	n/a	0	0	0	1	0.412841796875	0.57763671875	upper	../fonts/amplitud.ttf
1999242	START	n/a	LTP240	ltpFR	14	n/a	n/a	n/a	n/a	n/a	n/a	n/a	n/a	n/a	n/a	n/a	n/a	n/a	n/a	n/a
2000107	PROB	n/a	LTP240	ltpFR	14	n/a	n/a	n/a	n/a	n/a	n/a	19	8	9	2	n/a	n/a	n/a	n/a	n/a
2001650	PROB	n/a	LTP240	ltpFR	14	n/a	n/a	n/a	n/a	n/a	n/a	12	4	2	6	n/a	n/a	n/a	n/a	n/a
2003604	PROB	n/a	LTP240	ltpFR	14	n/a	n/a	n/a	n/a	n/a	n/a	17	7	2	8	n/a	n/a	n/a	n/a	n/a
2005043	PROB	n/a	LTP240	ltpFR	14	n/a	n/a	n/a	n/a	n/a	n/a	14	1	6	7	n/a	n/a	n/a	n/a	n/a
2006590	STOP	n/a	LTP240	ltpFR	14	n/a	n/a	n/a	n/a	n/a	n/a	n/a	n/a	n/a	n/a	n/a	n/a	n/a	n/a	n/a
2008125	WORD	wordpools/wasnorm_wordpool_less_exclusions.txt	LTP240	ltpFR	14	9	0	ROOSTER	1209	n/a	1	n/a	0	0	0	1	0.412841796875	0.57763671875	upper	../fonts/amplitud.ttf
2011137	START	n/a	LTP240	ltpFR	14	n/a	n/a	n/a	n/a	n/a	n/a	n/a	n/a	n/a	n/a	n/a	n/a	n/a	n/a	n/a
2012073	PROB	n/a	LTP240	ltpFR	14	n/a	n/a	n/a	n/a	n/a	n/a	11	9	1	1	n/a	n/a	n/a	n/a	n/a
2013307	PROB	n/a	LTP240	ltpFR	14	n/a	n/a	n/a	n/a	n/a	n/a	13	2	5	6	n/a	n/a	n/a	n/a	n/a
2016335	PROB	n/a	LTP240	ltpFR	14	n/a	n/a	n/a	n/a	n/a	n/a	20	4	8	8	n/a	n/a	n/a	n/a	n/a
2017894	STOP	n/a	LTP240	ltpFR	14	n/a	n/a	n/a	n/a	n/a	n/a	n/a	n/a	n/a	n/a	n/a	n/a	n/a	n/a	n/a
2019969	WORD	wordpools/wasnorm_wordpool_less_exclusions.txt	LTP240	ltpFR	14	9	0	DETERGENT	455	n/a	1	n/a	0	0	0	1	0.412841796875	0.57763671875	upper	../fonts/amplitud.ttf
2022981	START	n/a	LTP240	ltpFR	14	n/a	n/a	n/a	n/a	n/a	n/a	n/a	n/a	n/a	n/a	n/a	n/a	n/a	n/a	n/a
2024014	PROB	n/a	LTP240	ltpFR	14	n/a	n/a	n/a	n/a	n/a	n/a	15	3	9	3	n/a	n/a	n/a	n/a	n/a
2025624	PROB	n/a	LTP240	ltpFR	14	n/a	n/a	n/a	n/a	n/a	n/a	10	1	7	2	n/a	n/a	n/a	n/a	n/a
2027210	PROB	n/a	LTP240	ltpFR	14	n/a	n/a	n/a	n/a	n/a	n/a	20	7	9	4	n/a	n/a	n/a	n/a	n/a
2030980	STOP	n/a	LTP240	ltpFR	14	n/a	n/a	n/a	n/a	n/a	n/a	n/a	n/a	n/a	n/a	n/a	n/a	n/a	n/a	n/a
2032232	WORD	wordpools/wasnorm_wordpool_less_exclusions.txt	LTP240	ltpFR	14	9	0	CLOTHES	327	n/a	1	n/a	0	0	0	1	0.412841796875	0.57763671875	upper	../fonts/amplitud.ttf
2035244	START	n/a	LTP240	ltpFR	14	n/a	n/a	n/a	n/a	n/a	n/a	n/a	n/a	n/a	n/a	n/a	n/a	n/a	n/a	n/a
2036247	PROB	n/a	LTP240	ltpFR	14	n/a	n/a	n/a	n/a	n/a	n/a	9	4	4	1	n/a	n/a	n/a	n/a	n/a
2037465	PROB	n/a	LTP240	ltpFR	14	n/a	n/a	n/a	n/a	n/a	n/a	18	4	9	5	n/a	n/a	n/a	n/a	n/a
2039874	PROB	n/a	LTP240	ltpFR	14	n/a	n/a	n/a	n/a	n/a	n/a	9	4	3	2	n/a	n/a	n/a	n/a	n/a
2041710	STOP	n/a	LTP240	ltpFR	14	n/a	n/a	n/a	n/a	n/a	n/a	n/a	n/a	n/a	n/a	n/a	n/a	n/a	n/a	n/a
2044144	WORD	wordpools/wasnorm_wordpool_less_exclusions.txt	LTP240	ltpFR	14	9	1	WORM	1623	n/a	1	n/a	0	0	0	0	0.5869140625	0.422607421875	lower	../fonts/zerothre.ttf
2047156	START	n/a	LTP240	ltpFR	14	n/a	n/a	n/a	n/a	n/a	n/a	n/a	n/a	n/a	n/a	n/a	n/a	n/a	n/a	n/a
2048309	PROB	n/a	LTP240	ltpFR	14	n/a	n/a	n/a	n/a	n/a	n/a	17	6	4	7	n/a	n/a	n/a	n/a	n/a
2049865	PROB	n/a	LTP240	ltpFR	14	n/a	n/a	n/a	n/a	n/a	n/a	21	8	7	6	n/a	n/a	n/a	n/a	n/a
2053982	STOP	n/a	LTP240	ltpFR	14	n/a	n/a	n/a	n/a	n/a	n/a	n/a	n/a	n/a	n/a	n/a	n/a	n/a	n/a	n/a
2056239	WORD	wordpools/wasnorm_wordpool_less_exclusions.txt	LTP240	ltpFR	14	9	1	CROCODILE	411	n/a	1	n/a	0	0	0	0	0.5869140625	0.422607421875	lower	../fonts/zerothre.ttf
2059251	START	n/a	LTP240	ltpFR	14	n/a	n/a	n/a	n/a	n/a	n/a	n/a	n/a	n/a	n/a	n/a	n/a	n/a	n/a	n/a
2060305	PROB	n/a	LTP240	ltpFR	14	n/a	n/a	n/a	n/a	n/a	n/a	13	5	7	1	n/a	n/a	n/a	n/a	n/a
2062308	PROB	n/a	LTP240	ltpFR	14	n/a	n/a	n/a	n/a	n/a	n/a	10	1	8	1	n/a	n/a	n/a	n/a	n/a
2067246	STOP	n/a	LTP240	ltpFR	14	n/a	n/a	n/a	n/a	n/a	n/a	n/a	n/a	n/a	n/a	n/a	n/a	n/a	n/a	n/a
2068231	WORD	wordpools/wasnorm_wordpool_less_exclusions.txt	LTP240	ltpFR	14	9	1	CHEF	290	n/a	1	n/a	0	0	0	0	0.5869140625	0.422607421875	lower	../fonts/zerothre.ttf
2071246	START	n/a	LTP240	ltpFR	14	n/a	n/a	n/a	n/a	n/a	n/a	n/a	n/a	n/a	n/a	n/a	n/a	n/a	n/a	n/a
2072313	PROB	n/a	LTP240	ltpFR	14	n/a	n/a	n/a	n/a	n/a	n/a	9	2	2	5	n/a	n/a	n/a	n/a	n/a
2073672	PROB	n/a	LTP240	ltpFR	14	n/a	n/a	n/a	n/a	n/a	n/a	24	9	6	9	n/a	n/a	n/a	n/a	n/a
2075843	PROB	n/a	LTP240	ltpFR	14	n/a	n/a	n/a	n/a	n/a	n/a	9	2	2	5	n/a	n/a	n/a	n/a	n/a
2077315	PROB	n/a	LTP240	ltpFR	14	n/a	n/a	n/a	n/a	n/a	n/a	18	5	8	5	n/a	n/a	n/a	n/a	n/a
2078702	STOP	n/a	LTP240	ltpFR	14	n/a	n/a	n/a	n/a	n/a	n/a	n/a	n/a	n/a	n/a	n/a	n/a	n/a	n/a	n/a
2080313	WORD	wordpools/wasnorm_wordpool_less_exclusions.txt	LTP240	ltpFR	14	9	1	GUARDIAN	668	n/a	1	n/a	0	0	0	0	0.5869140625	0.422607421875	lower	../fonts/zerothre.ttf
2083325	START	n/a	LTP240	ltpFR	14	n/a	n/a	n/a	n/a	n/a	n/a	n/a	n/a	n/a	n/a	n/a	n/a	n/a	n/a	n/a
2084512	PROB	n/a	LTP240	ltpFR	14	n/a	n/a	n/a	n/a	n/a	n/a	20	6	8	6	n/a	n/a	n/a	n/a	n/a
2086198	PROB	n/a	LTP240	ltpFR	14	n/a	n/a	n/a	n/a	n/a	n/a	18	9	8	1	n/a	n/a	n/a	n/a	n/a
2087386	PROB	n/a	LTP240	ltpFR	14	n/a	n/a	n/a	n/a	n/a	n/a	11	1	7	3	n/a	n/a	n/a	n/a	n/a
2088691	PROB	n/a	LTP240	ltpFR	14	n/a	n/a	n/a	n/a	n/a	n/a	12	5	3	4	n/a	n/a	n/a	n/a	n/a
2090342	STOP	n/a	LTP240	ltpFR	14	n/a	n/a	n/a	n/a	n/a	n/a	n/a	n/a	n/a	n/a	n/a	n/a	n/a	n/a	n/a
2093280	REC_START	n/a	LTP240	ltpFR	14	9	n/a	n/a	n/a	n/a	n/a	n/a	0	0	0	n/a	n/a	n/a	n/a	n/a
2096034	REC_WORD	wordpools/wasnorm_wordpool_less_exclusions.txt	LTP240	ltpFR	14	9	1	GUARDIAN	668	n/a	1	n/a	0	0	0	n/a	n/a	n/a	n/a	n/a
2112436	REC_WORD	wordpools/wasnorm_wordpool_less_exclusions.txt	LTP240	ltpFR	14	9	0	DAUGHTER	442	n/a	1	n/a	0	0	0	n/a	n/a	n/a	n/a	n/a
2121121	REC_WORD	wordpools/wasnorm_wordpool_less_exclusions.txt	LTP240	ltpFR	14	9	1	WORM	1623	n/a	1	n/a	0	0	0	n/a	n/a	n/a	n/a	n/a
2124878	REC_WORD	wordpools/wasnorm_wordpool_less_exclusions.txt	LTP240	ltpFR	14	9	0	ROOSTER	1209	n/a	1	n/a	0	0	0	n/a	n/a	n/a	n/a	n/a
2127497	REC_WORD	wordpools/wasnorm_wordpool_less_exclusions.txt	LTP240	ltpFR	14	9	0	CLOTHES	327	n/a	1	n/a	0	0	0	n/a	n/a	n/a	n/a	n/a
2166134	REC_WORD	wordpools/wasnorm_wordpool_less_exclusions.txt	LTP240	ltpFR	14	9	1	CROCODILE	411	n/a	1	n/a	0	0	0	n/a	n/a	n/a	n/a	n/a
2172394	WORD	wordpools/wasnorm_wordpool_less_exclusions.txt	LTP240	ltpFR	14	10	1	PAGE	1001	n/a	0	n/a	0	0	0	0	0.5869140625	0.422607421875	lower	../fonts/zerothre.ttf
2176338	WORD	wordpools/wasnorm_wordpool_less_exclusions.txt	LTP240	ltpFR	14	10	1	SCREW	1254	n/a	0	n/a	0	0	0	0	0.5869140625	0.422607421875	lower	../fonts/zerothre.ttf
2180273	WORD	wordpools/wasnorm_wordpool_less_exclusions.txt	LTP240	ltpFR	14	10	1	BAIT	70	n/a	0	n/a	0	0	0	0	0.5869140625	0.422607421875	lower	../fonts/zerothre.ttf
2184355	WORD	wordpools/wasnorm_wordpool_less_exclusions.txt	LTP240	ltpFR	14	10	1	FIN	566	n/a	0	n/a	0	0	0	0	0.5869140625	0.422607421875	lower	../fonts/zerothre.ttf
2188387	WORD	wordpools/wasnorm_wordpool_less_exclusions.txt	LTP240	ltpFR	14	10	1	SQUID	1361	n/a	1	n/a	0	0	0	0	0.5869140625	0.422607421875	lower	../fonts/zerothre.ttf
2192499	WORD	wordpools/wasnorm_wordpool_less_exclusions.txt	LTP240	ltpFR	14	10	1	NECK	939	n/a	0	n/a	0	0	0	0	0.5869140625	0.422607421875	lower	../fonts/zerothre.ttf
2196334	WORD	wordpools/wasnorm_wordpool_less_exclusions.txt	LTP240	ltpFR	14	10	1	ELF	525	n/a	1	n/a	0	0	0	0	0.5869140625	0.422607421875	lower	../fonts/zerothre.ttf
2200446	WORD	wordpools/wasnorm_wordpool_less_exclusions.txt	LTP240	ltpFR	14	10	1	SEAT	1264	n/a	0	n/a	0	0	0	0	0.5869140625	0.422607421875	lower	../fonts/zerothre.ttf
2204498	WORD	wordpools/wasnorm_wordpool_less_exclusions.txt	LTP240	ltpFR	14	10	1	SHRIMP	1297	n/a	1	n/a	0	0	0	0	0.5869140625	0.422607421875	lower	../fonts/zerothre.ttf
2208630	WORD	wordpools/wasnorm_wordpool_less_exclusions.txt	LTP240	ltpFR	14	10	1	SKIN	1318	n/a	0	n/a	0	0	0	0	0.5869140625	0.422607421875	lower	../fonts/zerothre.ttf
2212545	WORD	wordpools/wasnorm_wordpool_less_exclusions.txt	LTP240	ltpFR	14	10	1	BASKET	95	n/a	0	n/a	0	0	0	0	0.5869140625	0.422607421875	lower	../fonts/zerothre.ttf
2216727	WORD	wordpools/wasnorm_wordpool_less_exclusions.txt	LTP240	ltpFR	14	10	1	COUGAR	387	n/a	1	n/a	0	0	0	0	0.5869140625	0.422607421875	lower	../fonts/zerothre.ttf
2220889	WORD	wordpools/wasnorm_wordpool_less_exclusions.txt	LTP240	ltpFR	14	10	1	OTTER	986	n/a	1	n/a	0	0	0	0	0.5869140625	0.422607421875	lower	../fonts/zerothre.ttf
2224992	WORD	wordpools/wasnorm_wordpool_less_exclusions.txt	LTP240	ltpFR	14	10	1	TIGER	1467	n/a	1	n/a	0	0	0	0	0.5869140625	0.422607421875	lower	../fonts/zerothre.ttf
2228990	WORD	wordpools/wasnorm_wordpool_less_exclusions.txt	LTP240	ltpFR	14	10	1	WHISTLE	1606	n/a	0	n/a	0	0	0	0	0.5869140625	0.422607421875	lower	../fonts/zerothre.ttf
2233085	WORD	wordpools/wasnorm_wordpool_less_exclusions.txt	LTP240	ltpFR	14	10	1	MICROPHONE	890	n/a	0	n/a	0	0	0	0	0.5869140625	0.422607421875	lower	../fonts/zerothre.ttf
2236101	START	n/a	LTP240	ltpFR	14	n/a	n/a	n/a	n/a	n/a	n/a	n/a	n/a	n/a	n/a	n/a	n/a	n/a	n/a	n/a
2237104	PROB	n/a	LTP240	ltpFR	14	n/a	n/a	n/a	n/a	n/a	n/a	22	6	9	7	n/a	n/a	n/a	n/a	n/a
2241484	PROB	n/a	LTP240	ltpFR	14	n/a	n/a	n/a	n/a	n/a	n/a	13	9	3	1	n/a	n/a	n/a	n/a	n/a
2242750	STOP	n/a	LTP240	ltpFR	14	n/a	n/a	n/a	n/a	n/a	n/a	n/a	n/a	n/a	n/a	n/a	n/a	n/a	n/a	n/a
2245988	REC_START	n/a	LTP240	ltpFR	14	10	n/a	n/a	n/a	n/a	n/a	n/a	0	0	0	n/a	n/a	n/a	n/a	n/a
2248312	REC_WORD	wordpools/wasnorm_wordpool_less_exclusions.txt	LTP240	ltpFR	14	10	1	MICROPHONE	890	n/a	0	n/a	0	0	0	n/a	n/a	n/a	n/a	n/a
2250069	REC_WORD	wordpools/wasnorm_wordpool_less_exclusions.txt	LTP240	ltpFR	14	10	1	OTTER	986	n/a	1	n/a	0	0	0	n/a	n/a	n/a	n/a	n/a
2251271	REC_WORD	wordpools/wasnorm_wordpool_less_exclusions.txt	LTP240	ltpFR	14	10	1	TIGER	1467	n/a	1	n/a	0	0	0	n/a	n/a	n/a	n/a	n/a
2252453	REC_WORD	wordpools/wasnorm_wordpool_less_exclusions.txt	LTP240	ltpFR	14	10	1	COUGAR	387	n/a	1	n/a	0	0	0	n/a	n/a	n/a	n/a	n/a
2253765	REC_WORD	wordpools/wasnorm_wordpool_less_exclusions.txt	LTP240	ltpFR	14	10	1	BAIT	70	n/a	0	n/a	0	0	0	n/a	n/a	n/a	n/a	n/a
2304660	REC_WORD	wordpools/wasnorm_wordpool_less_exclusions.txt	LTP240	ltpFR	14	10	1	SKIN	1318	n/a	0	n/a	0	0	0	n/a	n/a	n/a	n/a	n/a
2306780	REC_WORD	wordpools/wasnorm_wordpool_less_exclusions.txt	LTP240	ltpFR	14	10	1	BASKET	95	n/a	0	n/a	0	0	0	n/a	n/a	n/a	n/a	n/a
2321656	REST_REWET	n/a	LTP240	ltpFR	14	10	n/a	n/a	n/a	n/a	n/a	n/a	0	0	0	n/a	n/a	n/a	n/a	n/a
2654594	WORD	wordpools/wasnorm_wordpool_less_exclusions.txt	LTP240	ltpFR	14	11	1	POLYESTER	1100	n/a	0	n/a	0	0	0	0	0.5869140625	0.422607421875	lower	../fonts/zerothre.ttf
2658576	WORD	wordpools/wasnorm_wordpool_less_exclusions.txt	LTP240	ltpFR	14	11	1	SHORTS	1293	n/a	0	n/a	0	0	0	0	0.5869140625	0.422607421875	lower	../fonts/zerothre.ttf
2662691	WORD	wordpools/wasnorm_wordpool_less_exclusions.txt	LTP240	ltpFR	14	11	1	PIER	1063	n/a	0	n/a	0	0	0	0	0.5869140625	0.422607421875	lower	../fonts/zerothre.ttf
2666824	WORD	wordpools/wasnorm_wordpool_less_exclusions.txt	LTP240	ltpFR	14	11	1	SHARK	1275	n/a	1	n/a	0	0	0	0	0.5869140625	0.422607421875	lower	../fonts/zerothre.ttf
2670969	WORD	wordpools/wasnorm_wordpool_less_exclusions.txt	LTP240	ltpFR	14	11	1	ACORN	3	n/a	0	n/a	0	0	0	0	0.5869140625	0.422607421875	lower	../fonts/zerothre.ttf
2675084	WORD	wordpools/wasnorm_wordpool_less_exclusions.txt	LTP240	ltpFR	14	11	1	COW	393	n/a	1	n/a	0	0	0	0	0.5869140625	0.422607421875	lower	../fonts/zerothre.ttf
2679103	WORD	wordpools/wasnorm_wordpool_less_exclusions.txt	LTP240	ltpFR	14	11	0	INSECT	740	n/a	0	n/a	0	0	0	1	0.412841796875	0.57763671875	upper	../fonts/amplitud.ttf
2682968	WORD	wordpools/wasnorm_wordpool_less_exclusions.txt	LTP240	ltpFR	14	11	0	COLESLAW	344	n/a	0	n/a	0	0	0	1	0.412841796875	0.57763671875	upper	../fonts/amplitud.ttf
2686832	WORD	wordpools/wasnorm_wordpool_less_exclusions.txt	LTP240	ltpFR	14	11	0	GIRL	637	n/a	1	n/a	0	0	0	1	0.412841796875	0.57763671875	upper	../fonts/amplitud.ttf
2690864	WORD	wordpools/wasnorm_wordpool_less_exclusions.txt	LTP240	ltpFR	14	11	0	CARAVAN	242	n/a	1	n/a	0	0	0	1	0.412841796875	0.57763671875	upper	../fonts/amplitud.ttf
2694792	WORD	wordpools/wasnorm_wordpool_less_exclusions.txt	LTP240	ltpFR	14	11	1	VEHICLE	1553	n/a	0	n/a	0	0	0	0	0.5869140625	0.422607421875	lower	../fonts/zerothre.ttf
2698727	WORD	wordpools/wasnorm_wordpool_less_exclusions.txt	LTP240	ltpFR	14	11	1	STALLION	1369	n/a	1	n/a	0	0	0	0	0.5869140625	0.422607421875	lower	../fonts/zerothre.ttf
2702859	WORD	wordpools/wasnorm_wordpool_less_exclusions.txt	LTP240	ltpFR	14	11	0	BASEBALL	93	n/a	1	n/a	0	0	0	1	0.412841796875	0.57763671875	upper	../fonts/amplitud.ttf
2707059	WORD	wordpools/wasnorm_wordpool_less_exclusions.txt	LTP240	ltpFR	14	11	0	INFANT	737	n/a	1	n/a	0	0	0	1	0.412841796875	0.57763671875	upper	../fonts/amplitud.ttf
2711241	WORD	wordpools/wasnorm_wordpool_less_exclusions.txt	LTP240	ltpFR	14	11	0	RESTAURANT	1187	n/a	1	n/a	0	0	0	1	0.412841796875	0.57763671875	upper	../fonts/amplitud.ttf
2715323	WORD	wordpools/wasnorm_wordpool_less_exclusions.txt	LTP240	ltpFR	14	11	0	CRICKET	408	n/a	0	n/a	0	0	0	1	0.412841796875	0.57763671875	upper	../fonts/amplitud.ttf
2718335	START	n/a	LTP240	ltpFR	14	n/a	n/a	n/a	n/a	n/a	n/a	n/a	n/a	n/a	n/a	n/a	n/a	n/a	n/a	n/a
2719472	PROB	n/a	LTP240	ltpFR	14	n/a	n/a	n/a	n/a	n/a	n/a	18	9	3	6	n/a	n/a	n/a	n/a	n/a
2721363	PROB	n/a	LTP240	ltpFR	14	n/a	n/a	n/a	n/a	n/a	n/a	12	4	3	5	n/a	n/a	n/a	n/a	n/a
2723216	PROB	n/a	LTP240	ltpFR	14	n/a	n/a	n/a	n/a	n/a	n/a	15	7	2	6	n/a	n/a	n/a	n/a	n/a
2725140	PROB	n/a	LTP240	ltpFR	14	n/a	n/a	n/a	n/a	n/a	n/a	12	4	2	6	n/a	n/a	n/a	n/a	n/a
2726813	PROB	n/a	LTP240	ltpFR	14	n/a	n/a	n/a	n/a	n/a	n/a	24	7	8	9	n/a	n/a	n/a	n/a	n/a
2729121	PROB	n/a	LTP240	ltpFR	14	n/a	n/a	n/a	n/a	n/a	n/a	10	1	3	6	n/a	n/a	n/a	n/a	n/a
2730463	PROB	n/a	LTP240	ltpFR	14	n/a	n/a	n/a	n/a	n/a	n/a	13	4	5	4	n/a	n/a	n/a	n/a	n/a
2733478	STOP	n/a	LTP240	ltpFR	14	n/a	n/a	n/a	n/a	n/a	n/a	n/a	n/a	n/a	n/a	n/a	n/a	n/a	n/a	n/a
2736253	REC_START	n/a	LTP240	ltpFR	14	11	n/a	n/a	n/a	n/a	n/a	n/a	0	0	0	n/a	n/a	n/a	n/a	n/a
2738139	REC_WORD	wordpools/wasnorm_wordpool_less_exclusions.txt	LTP240	ltpFR	14	11	0	CRICKET	408	n/a	0	n/a	0	0	0	n/a	n/a	n/a	n/a	n/a
2739725	REC_WORD	wordpools/wasnorm_wordpool_less_exclusions.txt	LTP240	ltpFR	14	11	0	INSECT	740	n/a	0	n/a	0	0	0	n/a	n/a	n/a	n/a	n/a
2742414	REC_WORD	wordpools/wasnorm_wordpool_less_exclusions.txt	LTP240	ltpFR	14	11	0	GIRL	637	n/a	1	n/a	0	0	0	n/a	n/a	n/a	n/a	n/a
2743227	REC_WORD	wordpools/wasnorm_wordpool_less_exclusions.txt	LTP240	ltpFR	14	11	0	INFANT	737	n/a	1	n/a	0	0	0	n/a	n/a	n/a	n/a	n/a
2744798	REC_WORD	wordpools/wasnorm_wordpool_less_exclusions.txt	LTP240	ltpFR	14	11	0	RESTAURANT	1187	n/a	1	n/a	0	0	0	n/a	n/a	n/a	n/a	n/a
2746385	REC_WORD	wordpools/wasnorm_wordpool_less_exclusions.txt	LTP240	ltpFR	14	11	1	PIER	1063	n/a	0	n/a	0	0	0	n/a	n/a	n/a	n/a	n/a
2749323	REC_WORD	wordpools/wasnorm_wordpool_less_exclusions.txt	LTP240	ltpFR	14	11	1	SHORTS	1293	n/a	0	n/a	0	0	0	n/a	n/a	n/a	n/a	n/a
2753997	REC_WORD	wordpools/wasnorm_wordpool_less_exclusions.txt	LTP240	ltpFR	14	11	1	STALLION	1369	n/a	1	n/a	0	0	0	n/a	n/a	n/a	n/a	n/a
2757953	REC_WORD	wordpools/wasnorm_wordpool_less_exclusions.txt	LTP240	ltpFR	14	11	1	SHARK	1275	n/a	1	n/a	0	0	0	n/a	n/a	n/a	n/a	n/a
2796072	REC_WORD	wordpools/wasnorm_wordpool_less_exclusions.txt	LTP240	ltpFR	14	11	1	ACORN	3	n/a	0	n/a	0	0	0	n/a	n/a	n/a	n/a	n/a
2813293	START	n/a	LTP240	ltpFR	14	n/a	n/a	n/a	n/a	n/a	n/a	n/a	n/a	n/a	n/a	n/a	n/a	n/a	n/a	n/a
2814798	PROB	n/a	LTP240	ltpFR	14	n/a	n/a	n/a	n/a	n/a	n/a	16	2	9	5	n/a	n/a	n/a	n/a	n/a
2816986	PROB	n/a	LTP240	ltpFR	14	n/a	n/a	n/a	n/a	n/a	n/a	19	9	3	7	n/a	n/a	n/a	n/a	n/a
2818324	PROB	n/a	LTP240	ltpFR	14	n/a	n/a	n/a	n/a	n/a	n/a	14	7	6	1	n/a	n/a	n/a	n/a	n/a
2820587	PROB	n/a	LTP240	ltpFR	14	n/a	n/a	n/a	n/a	n/a	n/a	18	6	3	9	n/a	n/a	n/a	n/a	n/a
2822457	PROB	n/a	LTP240	ltpFR	14	n/a	n/a	n/a	n/a	n/a	n/a	16	5	3	8	n/a	n/a	n/a	n/a	n/a
2824364	PROB	n/a	LTP240	ltpFR	14	n/a	n/a	n/a	n/a	n/a	n/a	13	3	1	9	n/a	n/a	n/a	n/a	n/a
2825635	PROB	n/a	LTP240	ltpFR	14	n/a	n/a	n/a	n/a	n/a	n/a	13	3	1	9	n/a	n/a	n/a	n/a	n/a
2826739	PROB	n/a	LTP240	ltpFR	14	n/a	n/a	n/a	n/a	n/a	n/a	6	1	3	2	n/a	n/a	n/a	n/a	n/a
2828390	STOP	n/a	LTP240	ltpFR	14	n/a	n/a	n/a	n/a	n/a	n/a	n/a	n/a	n/a	n/a	n/a	n/a	n/a	n/a	n/a
2830273	WORD	wordpools/wasnorm_wordpool_less_exclusions.txt	LTP240	ltpFR	14	12	0	KITE	779	n/a	0	n/a	0	0	0	1	0.412841796875	0.57763671875	upper	../fonts/amplitud.ttf
2833298	START	n/a	LTP240	ltpFR	14	n/a	n/a	n/a	n/a	n/a	n/a	n/a	n/a	n/a	n/a	n/a	n/a	n/a	n/a	n/a
2834472	PROB	n/a	LTP240	ltpFR	14	n/a	n/a	n/a	n/a	n/a	n/a	18	5	6	7	n/a	n/a	n/a	n/a	n/a
2838688	PROB	n/a	LTP240	ltpFR	14	n/a	n/a	n/a	n/a	n/a	n/a	20	5	7	8	n/a	n/a	n/a	n/a	n/a
2840826	PROB	n/a	LTP240	ltpFR	14	n/a	n/a	n/a	n/a	n/a	n/a	6	1	2	3	n/a	n/a	n/a	n/a	n/a
2842649	PROB	n/a	LTP240	ltpFR	14	n/a	n/a	n/a	n/a	n/a	n/a	12	4	1	7	n/a	n/a	n/a	n/a	n/a
2845058	PROB	n/a	LTP240	ltpFR	14	n/a	n/a	n/a	n/a	n/a	n/a	14	1	6	7	n/a	n/a	n/a	n/a	n/a
2846564	PROB	n/a	LTP240	ltpFR	14	n/a	n/a	n/a	n/a	n/a	n/a	20	9	9	2	n/a	n/a	n/a	n/a	n/a
2848502	STOP	n/a	LTP240	ltpFR	14	n/a	n/a	n/a	n/a	n/a	n/a	n/a	n/a	n/a	n/a	n/a	n/a	n/a	n/a	n/a
2850328	WORD	wordpools/wasnorm_wordpool_less_exclusions.txt	LTP240	ltpFR	14	12	0	MICROSCOPE	891	n/a	1	n/a	0	0	0	1	0.412841796875	0.57763671875	upper	../fonts/amplitud.ttf
2853344	START	n/a	LTP240	ltpFR	14	n/a	n/a	n/a	n/a	n/a	n/a	n/a	n/a	n/a	n/a	n/a	n/a	n/a	n/a	n/a
2854280	PROB	n/a	LTP240	ltpFR	14	n/a	n/a	n/a	n/a	n/a	n/a	13	3	1	9	n/a	n/a	n/a	n/a	n/a
2855585	PROB	n/a	LTP240	ltpFR	14	n/a	n/a	n/a	n/a	n/a	n/a	21	8	5	8	n/a	n/a	n/a	n/a	n/a
2857857	PROB	n/a	LTP240	ltpFR	14	n/a	n/a	n/a	n/a	n/a	n/a	8	2	2	4	n/a	n/a	n/a	n/a	n/a
2859413	PROB	n/a	LTP240	ltpFR	14	n/a	n/a	n/a	n/a	n/a	n/a	8	1	3	4	n/a	n/a	n/a	n/a	n/a
2861035	PROB	n/a	LTP240	ltpFR	14	n/a	n/a	n/a	n/a	n/a	n/a	14	7	4	3	n/a	n/a	n/a	n/a	n/a
2862574	PROB	n/a	LTP240	ltpFR	14	n/a	n/a	n/a	n/a	n/a	n/a	14	9	4	1	n/a	n/a	n/a	n/a	n/a
2864151	PROB	n/a	LTP240	ltpFR	14	n/a	n/a	n/a	n/a	n/a	n/a	22	8	7	7	n/a	n/a	n/a	n/a	n/a
2867766	STOP	n/a	LTP240	ltpFR	14	n/a	n/a	n/a	n/a	n/a	n/a	n/a	n/a	n/a	n/a	n/a	n/a	n/a	n/a	n/a
2870374	WORD	wordpools/wasnorm_wordpool_less_exclusions.txt	LTP240	ltpFR	14	12	0	DOG	480	n/a	1	n/a	0	0	0	1	0.412841796875	0.57763671875	upper	../fonts/amplitud.ttf
2873386	START	n/a	LTP240	ltpFR	14	n/a	n/a	n/a	n/a	n/a	n/a	n/a	n/a	n/a	n/a	n/a	n/a	n/a	n/a	n/a
2874239	PROB	n/a	LTP240	ltpFR	14	n/a	n/a	n/a	n/a	n/a	n/a	19	9	3	7	n/a	n/a	n/a	n/a	n/a
2875611	PROB	n/a	LTP240	ltpFR	14	n/a	n/a	n/a	n/a	n/a	n/a	19	7	7	5	n/a	n/a	n/a	n/a	n/a
2877233	PROB	n/a	LTP240	ltpFR	14	n/a	n/a	n/a	n/a	n/a	n/a	15	4	2	9	n/a	n/a	n/a	n/a	n/a
2878953	PROB	n/a	LTP240	ltpFR	14	n/a	n/a	n/a	n/a	n/a	n/a	9	2	4	3	n/a	n/a	n/a	n/a	n/a
2881312	PROB	n/a	LTP240	ltpFR	14	n/a	n/a	n/a	n/a	n/a	n/a	18	4	8	6	n/a	n/a	n/a	n/a	n/a
2882754	PROB	n/a	LTP240	ltpFR	14	n/a	n/a	n/a	n/a	n/a	n/a	11	3	2	6	n/a	n/a	n/a	n/a	n/a
2884775	PROB	n/a	LTP240	ltpFR	14	n/a	n/a	n/a	n/a	n/a	n/a	18	1	9	8	n/a	n/a	n/a	n/a	n/a
2886163	PROB	n/a	LTP240	ltpFR	14	n/a	n/a	n/a	n/a	n/a	n/a	22	6	8	8	n/a	n/a	n/a	n/a	n/a
2887846	STOP	n/a	LTP240	ltpFR	14	n/a	n/a	n/a	n/a	n/a	n/a	n/a	n/a	n/a	n/a	n/a	n/a	n/a	n/a	n/a
2890349	WORD	wordpools/wasnorm_wordpool_less_exclusions.txt	LTP240	ltpFR	14	12	0	BONE	148	n/a	0	n/a	0	0	0	1	0.412841796875	0.57763671875	upper	../fonts/amplitud.ttf
2893361	START	n/a	LTP240	ltpFR	14	n/a	n/a	n/a	n/a	n/a	n/a	n/a	n/a	n/a	n/a	n/a	n/a	n/a	n/a	n/a
2894298	PROB	n/a	LTP240	ltpFR	14	n/a	n/a	n/a	n/a	n/a	n/a	15	6	1	8	n/a	n/a	n/a	n/a	n/a
2896318	PROB	n/a	LTP240	ltpFR	14	n/a	n/a	n/a	n/a	n/a	n/a	11	4	1	6	n/a	n/a	n/a	n/a	n/a
2897690	PROB	n/a	LTP240	ltpFR	14	n/a	n/a	n/a	n/a	n/a	n/a	18	6	8	4	n/a	n/a	n/a	n/a	n/a
2899082	PROB	n/a	LTP240	ltpFR	14	n/a	n/a	n/a	n/a	n/a	n/a	14	1	9	4	n/a	n/a	n/a	n/a	n/a
2900418	PROB	n/a	LTP240	ltpFR	14	n/a	n/a	n/a	n/a	n/a	n/a	18	3	7	8	n/a	n/a	n/a	n/a	n/a
2901826	PROB	n/a	LTP240	ltpFR	14	n/a	n/a	n/a	n/a	n/a	n/a	12	5	3	4	n/a	n/a	n/a	n/a	n/a
2903596	PROB	n/a	LTP240	ltpFR	14	n/a	n/a	n/a	n/a	n/a	n/a	13	2	6	5	n/a	n/a	n/a	n/a	n/a
2909360	STOP	n/a	LTP240	ltpFR	14	n/a	n/a	n/a	n/a	n/a	n/a	n/a	n/a	n/a	n/a	n/a	n/a	n/a	n/a	n/a
2910555	WORD	wordpools/wasnorm_wordpool_less_exclusions.txt	LTP240	ltpFR	14	12	0	SWATTER	1418	n/a	0	n/a	0	0	0	1	0.412841796875	0.57763671875	upper	../fonts/amplitud.ttf
2913571	START	n/a	LTP240	ltpFR	14	n/a	n/a	n/a	n/a	n/a	n/a	n/a	n/a	n/a	n/a	n/a	n/a	n/a	n/a	n/a
2914425	PROB	n/a	LTP240	ltpFR	14	n/a	n/a	n/a	n/a	n/a	n/a	9	4	3	2	n/a	n/a	n/a	n/a	n/a
2916412	PROB	n/a	LTP240	ltpFR	14	n/a	n/a	n/a	n/a	n/a	n/a	14	7	1	6	n/a	n/a	n/a	n/a	n/a
2918184	PROB	n/a	LTP240	ltpFR	14	n/a	n/a	n/a	n/a	n/a	n/a	16	5	9	2	n/a	n/a	n/a	n/a	n/a
2921195	PROB	n/a	LTP240	ltpFR	14	n/a	n/a	n/a	n/a	n/a	n/a	22	8	6	8	n/a	n/a	n/a	n/a	n/a
2922684	PROB	n/a	LTP240	ltpFR	14	n/a	n/a	n/a	n/a	n/a	n/a	19	2	8	9	n/a	n/a	n/a	n/a	n/a
2923976	PROB	n/a	LTP240	ltpFR	14	n/a	n/a	n/a	n/a	n/a	n/a	15	3	5	7	n/a	n/a	n/a	n/a	n/a
2925227	PROB	n/a	LTP240	ltpFR	14	n/a	n/a	n/a	n/a	n/a	n/a	10	5	3	2	n/a	n/a	n/a	n/a	n/a
2927673	PROB	n/a	LTP240	ltpFR	14	n/a	n/a	n/a	n/a	n/a	n/a	15	2	9	4	n/a	n/a	n/a	n/a	n/a
2929534	STOP	n/a	LTP240	ltpFR	14	n/a	n/a	n/a	n/a	n/a	n/a	n/a	n/a	n/a	n/a	n/a	n/a	n/a	n/a	n/a
2930518	WORD	wordpools/wasnorm_wordpool_less_exclusions.txt	LTP240	ltpFR	14	12	0	BELL	118	n/a	0	n/a	0	0	0	1	0.412841796875	0.57763671875	upper	../fonts/amplitud.ttf
2933529	START	n/a	LTP240	ltpFR	14	n/a	n/a	n/a	n/a	n/a	n/a	n/a	n/a	n/a	n/a	n/a	n/a	n/a	n/a	n/a
2934399	PROB	n/a	LTP240	ltpFR	14	n/a	n/a	n/a	n/a	n/a	n/a	24	6	9	9	n/a	n/a	n/a	n/a	n/a
2936858	PROB	n/a	LTP240	ltpFR	14	n/a	n/a	n/a	n/a	n/a	n/a	15	3	4	8	n/a	n/a	n/a	n/a	n/a
2939163	PROB	n/a	LTP240	ltpFR	14	n/a	n/a	n/a	n/a	n/a	n/a	20	5	8	7	n/a	n/a	n/a	n/a	n/a
2941221	PROB	n/a	LTP240	ltpFR	14	n/a	n/a	n/a	n/a	n/a	n/a	22	7	6	9	n/a	n/a	n/a	n/a	n/a
2943964	PROB	n/a	LTP240	ltpFR	14	n/a	n/a	n/a	n/a	n/a	n/a	17	2	6	9	n/a	n/a	n/a	n/a	n/a
2947260	PROB	n/a	LTP240	ltpFR	14	n/a	n/a	n/a	n/a	n/a	n/a	9	4	1	4	n/a	n/a	n/a	n/a	n/a
2948486	STOP	n/a	LTP240	ltpFR	14	n/a	n/a	n/a	n/a	n/a	n/a	n/a	n/a	n/a	n/a	n/a	n/a	n/a	n/a	n/a
2950727	WORD	wordpools/wasnorm_wordpool_less_exclusions.txt	LTP240	ltpFR	14	12	0	AUDIENCE	59	n/a	1	n/a	0	0	0	1	0.412841796875	0.57763671875	upper	../fonts/amplitud.ttf
2953739	START	n/a	LTP240	ltpFR	14	n/a	n/a	n/a	n/a	n/a	n/a	n/a	n/a	n/a	n/a	n/a	n/a	n/a	n/a	n/a
2954792	PROB	n/a	LTP240	ltpFR	14	n/a	n/a	n/a	n/a	n/a	n/a	16	6	1	9	n/a	n/a	n/a	n/a	n/a
2956194	PROB	n/a	LTP240	ltpFR	14	n/a	n/a	n/a	n/a	n/a	n/a	16	7	4	5	n/a	n/a	n/a	n/a	n/a
2958151	PROB	n/a	LTP240	ltpFR	14	n/a	n/a	n/a	n/a	n/a	n/a	13	5	4	4	n/a	n/a	n/a	n/a	n/a
2960042	PROB	n/a	LTP240	ltpFR	14	n/a	n/a	n/a	n/a	n/a	n/a	21	7	9	5	n/a	n/a	n/a	n/a	n/a
2963475	PROB	n/a	LTP240	ltpFR	14	n/a	n/a	n/a	n/a	n/a	n/a	18	5	9	4	n/a	n/a	n/a	n/a	n/a
2965161	PROB	n/a	LTP240	ltpFR	14	n/a	n/a	n/a	n/a	n/a	n/a	19	6	5	8	n/a	n/a	n/a	n/a	n/a
2968226	PROB	n/a	LTP240	ltpFR	14	n/a	n/a	n/a	n/a	n/a	n/a	13	9	1	3	n/a	n/a	n/a	n/a	n/a
2969415	STOP	n/a	LTP240	ltpFR	14	n/a	n/a	n/a	n/a	n/a	n/a	n/a	n/a	n/a	n/a	n/a	n/a	n/a	n/a	n/a
2970615	WORD	wordpools/wasnorm_wordpool_less_exclusions.txt	LTP240	ltpFR	14	12	0	SHERIFF	1284	n/a	1	n/a	0	0	0	1	0.412841796875	0.57763671875	upper	../fonts/amplitud.ttf
2973631	START	n/a	LTP240	ltpFR	14	n/a	n/a	n/a	n/a	n/a	n/a	n/a	n/a	n/a	n/a	n/a	n/a	n/a	n/a	n/a
2974650	PROB	n/a	LTP240	ltpFR	14	n/a	n/a	n/a	n/a	n/a	n/a	16	8	4	4	n/a	n/a	n/a	n/a	n/a
2976571	PROB	n/a	LTP240	ltpFR	14	n/a	n/a	n/a	n/a	n/a	n/a	16	8	6	2	n/a	n/a	n/a	n/a	n/a
2978127	PROB	n/a	LTP240	ltpFR	14	n/a	n/a	n/a	n/a	n/a	n/a	20	8	6	6	n/a	n/a	n/a	n/a	n/a
2979904	PROB	n/a	LTP240	ltpFR	14	n/a	n/a	n/a	n/a	n/a	n/a	18	7	7	4	n/a	n/a	n/a	n/a	n/a
2981305	PROB	n/a	LTP240	ltpFR	14	n/a	n/a	n/a	n/a	n/a	n/a	21	5	8	8	n/a	n/a	n/a	n/a	n/a
2983012	PROB	n/a	LTP240	ltpFR	14	n/a	n/a	n/a	n/a	n/a	n/a	11	2	2	7	n/a	n/a	n/a	n/a	n/a
2984501	PROB	n/a	LTP240	ltpFR	14	n/a	n/a	n/a	n/a	n/a	n/a	20	5	9	6	n/a	n/a	n/a	n/a	n/a
2986742	PROB	n/a	LTP240	ltpFR	14	n/a	n/a	n/a	n/a	n/a	n/a	18	8	3	7	n/a	n/a	n/a	n/a	n/a
2989630	STOP	n/a	LTP240	ltpFR	14	n/a	n/a	n/a	n/a	n/a	n/a	n/a	n/a	n/a	n/a	n/a	n/a	n/a	n/a	n/a
2990577	WORD	wordpools/wasnorm_wordpool_less_exclusions.txt	LTP240	ltpFR	14	12	0	SMOG	1330	n/a	1	n/a	0	0	0	1	0.412841796875	0.57763671875	upper	../fonts/amplitud.ttf
2993589	START	n/a	LTP240	ltpFR	14	n/a	n/a	n/a	n/a	n/a	n/a	n/a	n/a	n/a	n/a	n/a	n/a	n/a	n/a	n/a
2994525	PROB	n/a	LTP240	ltpFR	14	n/a	n/a	n/a	n/a	n/a	n/a	16	5	3	8	n/a	n/a	n/a	n/a	n/a
2996513	PROB	n/a	LTP240	ltpFR	14	n/a	n/a	n/a	n/a	n/a	n/a	13	2	6	5	n/a	n/a	n/a	n/a	n/a
2998792	PROB	n/a	LTP240	ltpFR	14	n/a	n/a	n/a	n/a	n/a	n/a	11	1	4	6	n/a	n/a	n/a	n/a	n/a
3000678	PROB	n/a	LTP240	ltpFR	14	n/a	n/a	n/a	n/a	n/a	n/a	20	6	9	5	n/a	n/a	n/a	n/a	n/a
3002673	PROB	n/a	LTP240	ltpFR	14	n/a	n/a	n/a	n/a	n/a	n/a	8	3	1	4	n/a	n/a	n/a	n/a	n/a
3004697	PROB	n/a	LTP240	ltpFR	14	n/a	n/a	n/a	n/a	n/a	n/a	8	3	1	4	n/a	n/a	n/a	n/a	n/a
3006216	PROB	n/a	LTP240	ltpFR	14	n/a	n/a	n/a	n/a	n/a	n/a	11	7	2	2	n/a	n/a	n/a	n/a	n/a
3009589	STOP	n/a	LTP240	ltpFR	14	n/a	n/a	n/a	n/a	n/a	n/a	n/a	n/a	n/a	n/a	n/a	n/a	n/a	n/a	n/a
3010436	WORD	wordpools/wasnorm_wordpool_less_exclusions.txt	LTP240	ltpFR	14	12	0	SOAP	1337	n/a	0	n/a	0	0	0	1	0.412841796875	0.57763671875	upper	../fonts/amplitud.ttf
3013447	START	n/a	LTP240	ltpFR	14	n/a	n/a	n/a	n/a	n/a	n/a	n/a	n/a	n/a	n/a	n/a	n/a	n/a	n/a	n/a
3014534	PROB	n/a	LTP240	ltpFR	14	n/a	n/a	n/a	n/a	n/a	n/a	7	1	2	4	n/a	n/a	n/a	n/a	n/a
3016241	PROB	n/a	LTP240	ltpFR	14	n/a	n/a	n/a	n/a	n/a	n/a	12	1	8	3	n/a	n/a	n/a	n/a	n/a
3017876	PROB	n/a	LTP240	ltpFR	14	n/a	n/a	n/a	n/a	n/a	n/a	16	5	4	7	n/a	n/a	n/a	n/a	n/a
3019683	PROB	n/a	LTP240	ltpFR	14	n/a	n/a	n/a	n/a	n/a	n/a	13	2	5	6	n/a	n/a	n/a	n/a	n/a
3021929	PROB	n/a	LTP240	ltpFR	14	n/a	n/a	n/a	n/a	n/a	n/a	18	8	7	3	n/a	n/a	n/a	n/a	n/a
3023247	PROB	n/a	LTP240	ltpFR	14	n/a	n/a	n/a	n/a	n/a	n/a	19	9	4	6	n/a	n/a	n/a	n/a	n/a
3025254	PROB	n/a	LTP240	ltpFR	14	n/a	n/a	n/a	n/a	n/a	n/a	18	3	9	6	n/a	n/a	n/a	n/a	n/a
3027128	PROB	n/a	LTP240	ltpFR	14	n/a	n/a	n/a	n/a	n/a	n/a	19	8	9	2	n/a	n/a	n/a	n/a	n/a
3028815	STOP	n/a	LTP240	ltpFR	14	n/a	n/a	n/a	n/a	n/a	n/a	n/a	n/a	n/a	n/a	n/a	n/a	n/a	n/a	n/a
3030494	WORD	wordpools/wasnorm_wordpool_less_exclusions.txt	LTP240	ltpFR	14	12	0	PAIL	1002	n/a	1	n/a	0	0	0	1	0.412841796875	0.57763671875	upper	../fonts/amplitud.ttf
3033506	START	n/a	LTP240	ltpFR	14	n/a	n/a	n/a	n/a	n/a	n/a	n/a	n/a	n/a	n/a	n/a	n/a	n/a	n/a	n/a
3034593	PROB	n/a	LTP240	ltpFR	14	n/a	n/a	n/a	n/a	n/a	n/a	12	2	5	5	n/a	n/a	n/a	n/a	n/a
3035878	PROB	n/a	LTP240	ltpFR	14	n/a	n/a	n/a	n/a	n/a	n/a	15	8	1	6	n/a	n/a	n/a	n/a	n/a
3037985	PROB	n/a	LTP240	ltpFR	14	n/a	n/a	n/a	n/a	n/a	n/a	17	7	4	6	n/a	n/a	n/a	n/a	n/a
3039491	PROB	n/a	LTP240	ltpFR	14	n/a	n/a	n/a	n/a	n/a	n/a	13	5	6	2	n/a	n/a	n/a	n/a	n/a
3043172	PROB	n/a	LTP240	ltpFR	14	n/a	n/a	n/a	n/a	n/a	n/a	16	3	8	5	n/a	n/a	n/a	n/a	n/a
3045062	PROB	n/a	LTP240	ltpFR	14	n/a	n/a	n/a	n/a	n/a	n/a	10	2	6	2	n/a	n/a	n/a	n/a	n/a
3046521	PROB	n/a	LTP240	ltpFR	14	n/a	n/a	n/a	n/a	n/a	n/a	11	3	4	4	n/a	n/a	n/a	n/a	n/a
3048126	STOP	n/a	LTP240	ltpFR	14	n/a	n/a	n/a	n/a	n/a	n/a	n/a	n/a	n/a	n/a	n/a	n/a	n/a	n/a	n/a
3050503	WORD	wordpools/wasnorm_wordpool_less_exclusions.txt	LTP240	ltpFR	14	12	0	BIKE	125	n/a	1	n/a	0	0	0	1	0.412841796875	0.57763671875	upper	../fonts/amplitud.ttf
3053515	START	n/a	LTP240	ltpFR	14	n/a	n/a	n/a	n/a	n/a	n/a	n/a	n/a	n/a	n/a	n/a	n/a	n/a	n/a	n/a
3054685	PROB	n/a	LTP240	ltpFR	14	n/a	n/a	n/a	n/a	n/a	n/a	6	2	1	3	n/a	n/a	n/a	n/a	n/a
3057145	PROB	n/a	LTP240	ltpFR	14	n/a	n/a	n/a	n/a	n/a	n/a	14	1	7	6	n/a	n/a	n/a	n/a	n/a
3058898	PROB	n/a	LTP240	ltpFR	14	n/a	n/a	n/a	n/a	n/a	n/a	12	1	5	6	n/a	n/a	n/a	n/a	n/a
3060290	PROB	n/a	LTP240	ltpFR	14	n/a	n/a	n/a	n/a	n/a	n/a	16	5	9	2	n/a	n/a	n/a	n/a	n/a
3062026	PROB	n/a	LTP240	ltpFR	14	n/a	n/a	n/a	n/a	n/a	n/a	20	6	7	7	n/a	n/a	n/a	n/a	n/a
3063933	PROB	n/a	LTP240	ltpFR	14	n/a	n/a	n/a	n/a	n/a	n/a	16	1	6	9	n/a	n/a	n/a	n/a	n/a
3065694	PROB	n/a	LTP240	ltpFR	14	n/a	n/a	n/a	n/a	n/a	n/a	19	4	9	6	n/a	n/a	n/a	n/a	n/a
3067396	PROB	n/a	LTP240	ltpFR	14	n/a	n/a	n/a	n/a	n/a	n/a	17	6	4	7	n/a	n/a	n/a	n/a	n/a
3068806	STOP	n/a	LTP240	ltpFR	14	n/a	n/a	n/a	n/a	n/a	n/a	n/a	n/a	n/a	n/a	n/a	n/a	n/a	n/a	n/a
3070478	WORD	wordpools/wasnorm_wordpool_less_exclusions.txt	LTP240	ltpFR	14	12	0	MOTORCYCLE	923	n/a	1	n/a	0	0	0	1	0.412841796875	0.57763671875	upper	../fonts/amplitud.ttf
3073490	START	n/a	LTP240	ltpFR	14	n/a	n/a	n/a	n/a	n/a	n/a	n/a	n/a	n/a	n/a	n/a	n/a	n/a	n/a	n/a
3074343	PROB	n/a	LTP240	ltpFR	14	n/a	n/a	n/a	n/a	n/a	n/a	20	7	6	7	n/a	n/a	n/a	n/a	n/a
3077120	PROB	n/a	LTP240	ltpFR	14	n/a	n/a	n/a	n/a	n/a	n/a	18	9	1	8	n/a	n/a	n/a	n/a	n/a
3078338	PROB	n/a	LTP240	ltpFR	14	n/a	n/a	n/a	n/a	n/a	n/a	10	6	2	2	n/a	n/a	n/a	n/a	n/a
3079659	PROB	n/a	LTP240	ltpFR	14	n/a	n/a	n/a	n/a	n/a	n/a	18	8	5	5	n/a	n/a	n/a	n/a	n/a
3080998	PROB	n/a	LTP240	ltpFR	14	n/a	n/a	n/a	n/a	n/a	n/a	15	1	7	7	n/a	n/a	n/a	n/a	n/a
3082319	PROB	n/a	LTP240	ltpFR	14	n/a	n/a	n/a	n/a	n/a	n/a	8	5	1	2	n/a	n/a	n/a	n/a	n/a
3083795	PROB	n/a	LTP240	ltpFR	14	n/a	n/a	n/a	n/a	n/a	n/a	20	8	8	4	n/a	n/a	n/a	n/a	n/a
3085602	PROB	n/a	LTP240	ltpFR	14	n/a	n/a	n/a	n/a	n/a	n/a	10	3	4	3	n/a	n/a	n/a	n/a	n/a
3087926	STOP	n/a	LTP240	ltpFR	14	n/a	n/a	n/a	n/a	n/a	n/a	n/a	n/a	n/a	n/a	n/a	n/a	n/a	n/a	n/a
3090554	WORD	wordpools/wasnorm_wordpool_less_exclusions.txt	LTP240	ltpFR	14	12	0	FINGER	567	n/a	0	n/a	0	0	0	1	0.412841796875	0.57763671875	upper	../fonts/amplitud.ttf
3093566	START	n/a	LTP240	ltpFR	14	n/a	n/a	n/a	n/a	n/a	n/a	n/a	n/a	n/a	n/a	n/a	n/a	n/a	n/a	n/a
3094686	PROB	n/a	LTP240	ltpFR	14	n/a	n/a	n/a	n/a	n/a	n/a	9	2	1	6	n/a	n/a	n/a	n/a	n/a
3096807	PROB	n/a	LTP240	ltpFR	14	n/a	n/a	n/a	n/a	n/a	n/a	10	1	4	5	n/a	n/a	n/a	n/a	n/a
3098396	PROB	n/a	LTP240	ltpFR	14	n/a	n/a	n/a	n/a	n/a	n/a	22	5	8	9	n/a	n/a	n/a	n/a	n/a
3104456	PROB	n/a	LTP240	ltpFR	14	n/a	n/a	n/a	n/a	n/a	n/a	20	5	7	8	n/a	n/a	n/a	n/a	n/a
3106343	PROB	n/a	LTP240	ltpFR	14	n/a	n/a	n/a	n/a	n/a	n/a	12	5	2	5	n/a	n/a	n/a	n/a	n/a
3107748	PROB	n/a	LTP240	ltpFR	14	n/a	n/a	n/a	n/a	n/a	n/a	14	7	6	1	n/a	n/a	n/a	n/a	n/a
3109310	STOP	n/a	LTP240	ltpFR	14	n/a	n/a	n/a	n/a	n/a	n/a	n/a	n/a	n/a	n/a	n/a	n/a	n/a	n/a	n/a
3110709	WORD	wordpools/wasnorm_wordpool_less_exclusions.txt	LTP240	ltpFR	14	12	0	LID	817	n/a	0	n/a	0	0	0	1	0.412841796875	0.57763671875	upper	../fonts/amplitud.ttf
3113726	START	n/a	LTP240	ltpFR	14	n/a	n/a	n/a	n/a	n/a	n/a	n/a	n/a	n/a	n/a	n/a	n/a	n/a	n/a	n/a
3114691	PROB	n/a	LTP240	ltpFR	14	n/a	n/a	n/a	n/a	n/a	n/a	13	9	2	2	n/a	n/a	n/a	n/a	n/a
3116347	PROB	n/a	LTP240	ltpFR	14	n/a	n/a	n/a	n/a	n/a	n/a	10	2	3	5	n/a	n/a	n/a	n/a	n/a
3119627	PROB	n/a	LTP240	ltpFR	14	n/a	n/a	n/a	n/a	n/a	n/a	13	3	6	4	n/a	n/a	n/a	n/a	n/a
3121418	PROB	n/a	LTP240	ltpFR	14	n/a	n/a	n/a	n/a	n/a	n/a	17	2	6	9	n/a	n/a	n/a	n/a	n/a
3123412	PROB	n/a	LTP240	ltpFR	14	n/a	n/a	n/a	n/a	n/a	n/a	16	9	4	3	n/a	n/a	n/a	n/a	n/a
3125686	PROB	n/a	LTP240	ltpFR	14	n/a	n/a	n/a	n/a	n/a	n/a	10	3	3	4	n/a	n/a	n/a	n/a	n/a
3127623	PROB	n/a	LTP240	ltpFR	14	n/a	n/a	n/a	n/a	n/a	n/a	19	8	3	8	n/a	n/a	n/a	n/a	n/a
3129158	STOP	n/a	LTP240	ltpFR	14	n/a	n/a	n/a	n/a	n/a	n/a	n/a	n/a	n/a	n/a	n/a	n/a	n/a	n/a	n/a
3130906	WORD	wordpools/wasnorm_wordpool_less_exclusions.txt	LTP240	ltpFR	14	12	0	CHEMICAL	291	n/a	0	n/a	0	0	0	1	0.412841796875	0.57763671875	upper	../fonts/amplitud.ttf
3133918	START	n/a	LTP240	ltpFR	14	n/a	n/a	n/a	n/a	n/a	n/a	n/a	n/a	n/a	n/a	n/a	n/a	n/a	n/a	n/a
3134737	PROB	n/a	LTP240	ltpFR	14	n/a	n/a	n/a	n/a	n/a	n/a	15	5	9	1	n/a	n/a	n/a	n/a	n/a
3136038	PROB	n/a	LTP240	ltpFR	14	n/a	n/a	n/a	n/a	n/a	n/a	14	5	7	2	n/a	n/a	n/a	n/a	n/a
3137912	PROB	n/a	LTP240	ltpFR	14	n/a	n/a	n/a	n/a	n/a	n/a	7	1	5	1	n/a	n/a	n/a	n/a	n/a
3139752	PROB	n/a	LTP240	ltpFR	14	n/a	n/a	n/a	n/a	n/a	n/a	5	1	2	2	n/a	n/a	n/a	n/a	n/a
3141028	PROB	n/a	LTP240	ltpFR	14	n/a	n/a	n/a	n/a	n/a	n/a	14	9	4	1	n/a	n/a	n/a	n/a	n/a
3142533	PROB	n/a	LTP240	ltpFR	14	n/a	n/a	n/a	n/a	n/a	n/a	15	6	1	8	n/a	n/a	n/a	n/a	n/a
3144675	PROB	n/a	LTP240	ltpFR	14	n/a	n/a	n/a	n/a	n/a	n/a	12	3	7	2	n/a	n/a	n/a	n/a	n/a
3145963	PROB	n/a	LTP240	ltpFR	14	n/a	n/a	n/a	n/a	n/a	n/a	15	8	3	4	n/a	n/a	n/a	n/a	n/a
3148798	STOP	n/a	LTP240	ltpFR	14	n/a	n/a	n/a	n/a	n/a	n/a	n/a	n/a	n/a	n/a	n/a	n/a	n/a	n/a	n/a
3151852	REC_START	n/a	LTP240	ltpFR	14	12	n/a	n/a	n/a	n/a	n/a	n/a	0	0	0	n/a	n/a	n/a	n/a	n/a
