mstime	trial_type	stim_file	subject	experiment	session	trial	item_name	item_num	list	answer	test_x	test_y	test_z
0	SESS_START	n/a	LTP295	ltpFR2	2	n/a	n/a	n/a	n/a	n/a	0	0	0
31260	START	n/a	LTP295	ltpFR2	2	n/a	n/a	n/a	-1	n/a	n/a	n/a	n/a
31276	PROB	n/a	LTP295	ltpFR2	2	n/a	n/a	n/a	-1	18	5	8	5
33426	PROB	n/a	LTP295	ltpFR2	2	n/a	n/a	n/a	-1	4	1	1	2
34827	PROB	n/a	LTP295	ltpFR2	2	n/a	n/a	n/a	-1	5	1	2	2
36176	PROB	n/a	LTP295	ltpFR2	2	n/a	n/a	n/a	-1	14	9	1	4
37926	PROB	n/a	LTP295	ltpFR2	2	n/a	n/a	n/a	-1	17	1	8	8
39547	PROB	n/a	LTP295	ltpFR2	2	n/a	n/a	n/a	-1	17	9	5	3
41971	STOP	n/a	LTP295	ltpFR2	2	n/a	n/a	n/a	-1	n/a	n/a	n/a	n/a
101044	WORD	wordpools/wasnorm_wordpool_576.txt	LTP295	ltpFR2	2	1	INMATE	738	n/a	n/a	0	0	0
103615	WORD	wordpools/wasnorm_wordpool_576.txt	LTP295	ltpFR2	2	1	SALAD	1224	n/a	n/a	0	0	0
106166	WORD	wordpools/wasnorm_wordpool_576.txt	LTP295	ltpFR2	2	1	MILDEW	893	n/a	n/a	0	0	0
108601	WORD	wordpools/wasnorm_wordpool_576.txt	LTP295	ltpFR2	2	1	TREAT	1501	n/a	n/a	0	0	0
111219	WORD	wordpools/wasnorm_wordpool_576.txt	LTP295	ltpFR2	2	1	EUROPE	541	n/a	n/a	0	0	0
113971	WORD	wordpools/wasnorm_wordpool_576.txt	LTP295	ltpFR2	2	1	LACE	792	n/a	n/a	0	0	0
116457	WORD	wordpools/wasnorm_wordpool_576.txt	LTP295	ltpFR2	2	1	PUDDING	1139	n/a	n/a	0	0	0
119175	WORD	wordpools/wasnorm_wordpool_576.txt	LTP295	ltpFR2	2	1	JELLO	754	n/a	n/a	0	0	0
121610	WORD	wordpools/wasnorm_wordpool_576.txt	LTP295	ltpFR2	2	1	RAZOR	1171	n/a	n/a	0	0	0
124346	WORD	wordpools/wasnorm_wordpool_576.txt	LTP295	ltpFR2	2	1	PLAZA	1088	n/a	n/a	0	0	0
127014	WORD	wordpools/wasnorm_wordpool_576.txt	LTP295	ltpFR2	2	1	RAFT	1159	n/a	n/a	0	0	0
129721	WORD	wordpools/wasnorm_wordpool_576.txt	LTP295	ltpFR2	2	1	GALLON	618	n/a	n/a	0	0	0
132420	WORD	wordpools/wasnorm_wordpool_576.txt	LTP295	ltpFR2	2	1	HOOK	715	n/a	n/a	0	0	0
135124	WORD	wordpools/wasnorm_wordpool_576.txt	LTP295	ltpFR2	2	1	STAKE	1368	n/a	n/a	0	0	0
137843	WORD	wordpools/wasnorm_wordpool_576.txt	LTP295	ltpFR2	2	1	SHORTS	1293	n/a	n/a	0	0	0
140612	WORD	wordpools/wasnorm_wordpool_576.txt	LTP295	ltpFR2	2	1	GLOVE	642	n/a	n/a	0	0	0
143244	WORD	wordpools/wasnorm_wordpool_576.txt	LTP295	ltpFR2	2	1	PLIERS	1089	n/a	n/a	0	0	0
145700	WORD	wordpools/wasnorm_wordpool_576.txt	LTP295	ltpFR2	2	1	PARSLEY	1016	n/a	n/a	0	0	0
148365	WORD	wordpools/wasnorm_wordpool_576.txt	LTP295	ltpFR2	2	1	SOFTBALL	1343	n/a	n/a	0	0	0
150882	WORD	wordpools/wasnorm_wordpool_576.txt	LTP295	ltpFR2	2	1	RACKET	1155	n/a	n/a	0	0	0
153601	WORD	wordpools/wasnorm_wordpool_576.txt	LTP295	ltpFR2	2	1	SKIRT	1319	n/a	n/a	0	0	0
156276	WORD	wordpools/wasnorm_wordpool_576.txt	LTP295	ltpFR2	2	1	BEAVER	109	n/a	n/a	0	0	0
158972	WORD	wordpools/wasnorm_wordpool_576.txt	LTP295	ltpFR2	2	1	SCARECROW	1245	n/a	n/a	0	0	0
161448	WORD	wordpools/wasnorm_wordpool_576.txt	LTP295	ltpFR2	2	1	SEAFOOD	1260	n/a	n/a	0	0	0
163059	START	n/a	LTP295	ltpFR2	2	n/a	n/a	n/a	1	n/a	n/a	n/a	n/a
164221	DISTRACTOR	n/a	LTP295	ltpFR2	2	1	n/a	n/a	n/a	n/a	0	0	0
164227	PROB	n/a	LTP295	ltpFR2	2	n/a	n/a	n/a	1	14	8	1	5
166894	PROB	n/a	LTP295	ltpFR2	2	n/a	n/a	n/a	1	14	5	7	2
169546	PROB	n/a	LTP295	ltpFR2	2	n/a	n/a	n/a	1	19	9	6	4
171897	PROB	n/a	LTP295	ltpFR2	2	n/a	n/a	n/a	1	14	2	9	3
173568	PROB	n/a	LTP295	ltpFR2	2	n/a	n/a	n/a	1	19	4	8	7
176452	PROB	n/a	LTP295	ltpFR2	2	n/a	n/a	n/a	1	14	3	6	5
178503	PROB	n/a	LTP295	ltpFR2	2	n/a	n/a	n/a	1	19	1	9	9
180506	PROB	n/a	LTP295	ltpFR2	2	n/a	n/a	n/a	1	10	6	2	2
182425	PROB	n/a	LTP295	ltpFR2	2	n/a	n/a	n/a	1	15	7	7	1
183857	PROB	n/a	LTP295	ltpFR2	2	n/a	n/a	n/a	1	18	5	5	8
185360	PROB	n/a	LTP295	ltpFR2	2	n/a	n/a	n/a	1	17	9	1	7
186923	STOP	n/a	LTP295	ltpFR2	2	n/a	n/a	n/a	1	n/a	n/a	n/a	n/a
188795	REC_START	n/a	LTP295	ltpFR2	2	1	n/a	n/a	n/a	n/a	0	0	0
191607	REC_WORD	wordpools/wasnorm_wordpool_576.txt	LTP295	ltpFR2	2	1	INMATE	738	n/a	n/a	0	0	0
192543	REC_WORD	wordpools/wasnorm_wordpool_576.txt	LTP295	ltpFR2	2	1	SALAD	1224	n/a	n/a	0	0	0
193675	REC_WORD	wordpools/wasnorm_wordpool_576.txt	LTP295	ltpFR2	2	1	MILDEW	893	n/a	n/a	0	0	0
195209	REC_WORD	wordpools/wasnorm_wordpool_576.txt	LTP295	ltpFR2	2	1	PUDDING	1139	n/a	n/a	0	0	0
196199	REC_WORD	wordpools/wasnorm_wordpool_576.txt	LTP295	ltpFR2	2	1	JELLO	754	n/a	n/a	0	0	0
197171	REC_WORD	wordpools/wasnorm_wordpool_576.txt	LTP295	ltpFR2	2	1	TREAT	1501	n/a	n/a	0	0	0
198407	REC_WORD	wordpools/wasnorm_wordpool_576.txt	LTP295	ltpFR2	2	1	RAZOR	1171	n/a	n/a	0	0	0
199412	REC_WORD	wordpools/wasnorm_wordpool_576.txt	LTP295	ltpFR2	2	1	EUROPE	541	n/a	n/a	0	0	0
200502	REC_WORD	wordpools/wasnorm_wordpool_576.txt	LTP295	ltpFR2	2	1	PLIERS	1089	n/a	n/a	0	0	0
202225	REC_WORD	wordpools/wasnorm_wordpool_576.txt	LTP295	ltpFR2	2	1	SKIRT	1319	n/a	n/a	0	0	0
203487	REC_WORD	wordpools/wasnorm_wordpool_576.txt	LTP295	ltpFR2	2	1	SHORTS	1293	n/a	n/a	0	0	0
204864	REC_WORD	wordpools/wasnorm_wordpool_576.txt	LTP295	ltpFR2	2	1	GLOVE	642	n/a	n/a	0	0	0
206887	REC_WORD	wordpools/wasnorm_wordpool_576.txt	LTP295	ltpFR2	2	1	RAFT	1159	n/a	n/a	0	0	0
207931	REC_WORD	wordpools/wasnorm_wordpool_576.txt	LTP295	ltpFR2	2	1	BEAVER	109	n/a	n/a	0	0	0
208680	REC_WORD	wordpools/wasnorm_wordpool_576.txt	LTP295	ltpFR2	2	1	SCARECROW	1245	n/a	n/a	0	0	0
210069	REC_WORD	wordpools/wasnorm_wordpool_576.txt	LTP295	ltpFR2	2	1	GALLON	618	n/a	n/a	0	0	0
214054	REC_WORD	wordpools/wasnorm_wordpool_576.txt	LTP295	ltpFR2	2	1	PLAZA	1088	n/a	n/a	0	0	0
233283	REC_WORD	wordpools/wasnorm_wordpool_576.txt	LTP295	ltpFR2	2	1	STAKE	1368	n/a	n/a	0	0	0
279227	WORD	wordpools/wasnorm_wordpool_576.txt	LTP295	ltpFR2	2	2	BRICK	172	n/a	n/a	0	0	0
281846	WORD	wordpools/wasnorm_wordpool_576.txt	LTP295	ltpFR2	2	2	SILK	1307	n/a	n/a	0	0	0
284483	WORD	wordpools/wasnorm_wordpool_576.txt	LTP295	ltpFR2	2	2	DANCER	437	n/a	n/a	0	0	0
287287	WORD	wordpools/wasnorm_wordpool_576.txt	LTP295	ltpFR2	2	2	FRUIT	610	n/a	n/a	0	0	0
289937	WORD	wordpools/wasnorm_wordpool_576.txt	LTP295	ltpFR2	2	2	OX	994	n/a	n/a	0	0	0
292373	WORD	wordpools/wasnorm_wordpool_576.txt	LTP295	ltpFR2	2	2	VENUS	1557	n/a	n/a	0	0	0
295042	WORD	wordpools/wasnorm_wordpool_576.txt	LTP295	ltpFR2	2	2	CATCHER	258	n/a	n/a	0	0	0
297693	WORD	wordpools/wasnorm_wordpool_576.txt	LTP295	ltpFR2	2	2	CASKET	255	n/a	n/a	0	0	0
300447	WORD	wordpools/wasnorm_wordpool_576.txt	LTP295	ltpFR2	2	2	GRAVE	658	n/a	n/a	0	0	0
302947	WORD	wordpools/wasnorm_wordpool_576.txt	LTP295	ltpFR2	2	2	PARTNER	1017	n/a	n/a	0	0	0
305499	WORD	wordpools/wasnorm_wordpool_576.txt	LTP295	ltpFR2	2	2	HOSTESS	723	n/a	n/a	0	0	0
308253	WORD	wordpools/wasnorm_wordpool_576.txt	LTP295	ltpFR2	2	2	SIDEWALK	1303	n/a	n/a	0	0	0
311037	WORD	wordpools/wasnorm_wordpool_576.txt	LTP295	ltpFR2	2	2	BACON	67	n/a	n/a	0	0	0
313856	WORD	wordpools/wasnorm_wordpool_576.txt	LTP295	ltpFR2	2	2	SAUSAGE	1238	n/a	n/a	0	0	0
316376	WORD	wordpools/wasnorm_wordpool_576.txt	LTP295	ltpFR2	2	2	CAFE	216	n/a	n/a	0	0	0
318960	WORD	wordpools/wasnorm_wordpool_576.txt	LTP295	ltpFR2	2	2	OFFICE	972	n/a	n/a	0	0	0
321780	WORD	wordpools/wasnorm_wordpool_576.txt	LTP295	ltpFR2	2	2	BOYFRIEND	162	n/a	n/a	0	0	0
324548	WORD	wordpools/wasnorm_wordpool_576.txt	LTP295	ltpFR2	2	2	TUTU	1524	n/a	n/a	0	0	0
327034	WORD	wordpools/wasnorm_wordpool_576.txt	LTP295	ltpFR2	2	2	WOMAN	1620	n/a	n/a	0	0	0
329636	WORD	wordpools/wasnorm_wordpool_576.txt	LTP295	ltpFR2	2	2	COUNTY	389	n/a	n/a	0	0	0
332389	WORD	wordpools/wasnorm_wordpool_576.txt	LTP295	ltpFR2	2	2	MARINE	869	n/a	n/a	0	0	0
335157	WORD	wordpools/wasnorm_wordpool_576.txt	LTP295	ltpFR2	2	2	VALVE	1546	n/a	n/a	0	0	0
337658	WORD	wordpools/wasnorm_wordpool_576.txt	LTP295	ltpFR2	2	2	ORCHID	982	n/a	n/a	0	0	0
340143	WORD	wordpools/wasnorm_wordpool_576.txt	LTP295	ltpFR2	2	2	AIRPORT	13	n/a	n/a	0	0	0
341746	START	n/a	LTP295	ltpFR2	2	n/a	n/a	n/a	2	n/a	n/a	n/a	n/a
342663	DISTRACTOR	n/a	LTP295	ltpFR2	2	2	n/a	n/a	n/a	n/a	0	0	0
342678	PROB	n/a	LTP295	ltpFR2	2	n/a	n/a	n/a	2	17	3	6	8
345564	PROB	n/a	LTP295	ltpFR2	2	n/a	n/a	n/a	2	8	1	6	1
346832	PROB	n/a	LTP295	ltpFR2	2	n/a	n/a	n/a	2	10	3	2	5
348918	PROB	n/a	LTP295	ltpFR2	2	n/a	n/a	n/a	2	16	5	8	3
351068	PROB	n/a	LTP295	ltpFR2	2	n/a	n/a	n/a	2	21	7	6	8
353403	PROB	n/a	LTP295	ltpFR2	2	n/a	n/a	n/a	2	8	1	2	5
354905	PROB	n/a	LTP295	ltpFR2	2	n/a	n/a	n/a	2	17	4	6	7
356838	PROB	n/a	LTP295	ltpFR2	2	n/a	n/a	n/a	2	13	2	7	4
359159	PROB	n/a	LTP295	ltpFR2	2	n/a	n/a	n/a	2	9	1	6	2
361827	PROB	n/a	LTP295	ltpFR2	2	n/a	n/a	n/a	2	9	3	3	3
365746	STOP	n/a	LTP295	ltpFR2	2	n/a	n/a	n/a	2	n/a	n/a	n/a	n/a
367665	REC_START	n/a	LTP295	ltpFR2	2	2	n/a	n/a	n/a	n/a	0	0	0
370601	REC_WORD	wordpools/wasnorm_wordpool_576.txt	LTP295	ltpFR2	2	2	BRICK	172	n/a	n/a	0	0	0
374104	REC_WORD	wordpools/wasnorm_wordpool_576.txt	LTP295	ltpFR2	2	2	DANCER	437	n/a	n/a	0	0	0
375334	REC_WORD	wordpools/wasnorm_wordpool_576.txt	LTP295	ltpFR2	2	2	TUTU	1524	n/a	n/a	0	0	0
376744	REC_WORD	wordpools/wasnorm_wordpool_576.txt	LTP295	ltpFR2	2	2	WOMAN	1620	n/a	n/a	0	0	0
377655	REC_WORD	wordpools/wasnorm_wordpool_576.txt	LTP295	ltpFR2	2	2	HOSTESS	723	n/a	n/a	0	0	0
379308	REC_WORD	wordpools/wasnorm_wordpool_576.txt	LTP295	ltpFR2	2	2	PARTNER	1017	n/a	n/a	0	0	0
380216	REC_WORD	wordpools/wasnorm_wordpool_576.txt	LTP295	ltpFR2	2	2	BOYFRIEND	162	n/a	n/a	0	0	0
381895	REC_WORD	wordpools/wasnorm_wordpool_576.txt	LTP295	ltpFR2	2	2	OX	994	n/a	n/a	0	0	0
383056	REC_WORD	wordpools/wasnorm_wordpool_576.txt	LTP295	ltpFR2	2	2	VENUS	1557	n/a	n/a	0	0	0
386020	REC_WORD	wordpools/wasnorm_wordpool_576.txt	LTP295	ltpFR2	2	2	CATCHER	258	n/a	n/a	0	0	0
388128	REC_WORD	wordpools/wasnorm_wordpool_576.txt	LTP295	ltpFR2	2	2	CAFE	216	n/a	n/a	0	0	0
389396	REC_WORD	wordpools/wasnorm_wordpool_576.txt	LTP295	ltpFR2	2	2	OFFICE	972	n/a	n/a	0	0	0
390472	REC_WORD	wordpools/wasnorm_wordpool_576.txt	LTP295	ltpFR2	2	2	AIRPORT	13	n/a	n/a	0	0	0
393048	REC_WORD	wordpools/wasnorm_wordpool_576.txt	LTP295	ltpFR2	2	2	MARINE	869	n/a	n/a	0	0	0
394200	REC_WORD	wordpools/wasnorm_wordpool_576.txt	LTP295	ltpFR2	2	2	VALVE	1546	n/a	n/a	0	0	0
395319	REC_WORD	wordpools/wasnorm_wordpool_576.txt	LTP295	ltpFR2	2	2	ORCHID	982	n/a	n/a	0	0	0
397701	REC_WORD	wordpools/wasnorm_wordpool_576.txt	LTP295	ltpFR2	2	2	SIDEWALK	1303	n/a	n/a	0	0	0
398701	REC_WORD_VV	wordpools/wasnorm_wordpool_576.txt	LTP295	ltpFR2	2	2	<>	-1	n/a	n/a	0	0	0
441007	REC_WORD	wordpools/wasnorm_wordpool_576.txt	LTP295	ltpFR2	2	2	CASKET	255	n/a	n/a	0	0	0
442040	REC_WORD	wordpools/wasnorm_wordpool_576.txt	LTP295	ltpFR2	2	2	GRAVE	658	n/a	n/a	0	0	0
458099	WORD	wordpools/wasnorm_wordpool_576.txt	LTP295	ltpFR2	2	3	COCOON	339	n/a	n/a	0	0	0
460745	WORD	wordpools/wasnorm_wordpool_576.txt	LTP295	ltpFR2	2	3	PIMPLE	1071	n/a	n/a	0	0	0
463198	WORD	wordpools/wasnorm_wordpool_576.txt	LTP295	ltpFR2	2	3	COIN	343	n/a	n/a	0	0	0
465717	WORD	wordpools/wasnorm_wordpool_576.txt	LTP295	ltpFR2	2	3	STREAM	1392	n/a	n/a	0	0	0
468325	WORD	wordpools/wasnorm_wordpool_576.txt	LTP295	ltpFR2	2	3	CANYON	235	n/a	n/a	0	0	0
471105	WORD	wordpools/wasnorm_wordpool_576.txt	LTP295	ltpFR2	2	3	PUDDLE	1140	n/a	n/a	0	0	0
473528	WORD	wordpools/wasnorm_wordpool_576.txt	LTP295	ltpFR2	2	3	FLUTE	585	n/a	n/a	0	0	0
475959	WORD	wordpools/wasnorm_wordpool_576.txt	LTP295	ltpFR2	2	3	BANJO	82	n/a	n/a	0	0	0
478400	WORD	wordpools/wasnorm_wordpool_576.txt	LTP295	ltpFR2	2	3	GUARD	667	n/a	n/a	0	0	0
480850	WORD	wordpools/wasnorm_wordpool_576.txt	LTP295	ltpFR2	2	3	EGYPT	519	n/a	n/a	0	0	0
483632	WORD	wordpools/wasnorm_wordpool_576.txt	LTP295	ltpFR2	2	3	CORAL	378	n/a	n/a	0	0	0
486402	WORD	wordpools/wasnorm_wordpool_576.txt	LTP295	ltpFR2	2	3	SISTER	1312	n/a	n/a	0	0	0
488835	WORD	wordpools/wasnorm_wordpool_576.txt	LTP295	ltpFR2	2	3	GHETTO	633	n/a	n/a	0	0	0
491388	WORD	wordpools/wasnorm_wordpool_576.txt	LTP295	ltpFR2	2	3	PAIL	1002	n/a	n/a	0	0	0
493827	WORD	wordpools/wasnorm_wordpool_576.txt	LTP295	ltpFR2	2	3	PILOT	1070	n/a	n/a	0	0	0
496525	WORD	wordpools/wasnorm_wordpool_576.txt	LTP295	ltpFR2	2	3	PASSAGE	1019	n/a	n/a	0	0	0
499279	WORD	wordpools/wasnorm_wordpool_576.txt	LTP295	ltpFR2	2	3	MARSH	874	n/a	n/a	0	0	0
501930	WORD	wordpools/wasnorm_wordpool_576.txt	LTP295	ltpFR2	2	3	ATOM	55	n/a	n/a	0	0	0
504548	WORD	wordpools/wasnorm_wordpool_576.txt	LTP295	ltpFR2	2	3	PRINCESS	1125	n/a	n/a	0	0	0
507084	WORD	wordpools/wasnorm_wordpool_576.txt	LTP295	ltpFR2	2	3	SEAGULL	1261	n/a	n/a	0	0	0
509787	WORD	wordpools/wasnorm_wordpool_576.txt	LTP295	ltpFR2	2	3	CUPBOARD	425	n/a	n/a	0	0	0
512373	WORD	wordpools/wasnorm_wordpool_576.txt	LTP295	ltpFR2	2	3	DINER	467	n/a	n/a	0	0	0
514808	WORD	wordpools/wasnorm_wordpool_576.txt	LTP295	ltpFR2	2	3	ITEM	746	n/a	n/a	0	0	0
517430	WORD	wordpools/wasnorm_wordpool_576.txt	LTP295	ltpFR2	2	3	CRITIC	410	n/a	n/a	0	0	0
519045	START	n/a	LTP295	ltpFR2	2	n/a	n/a	n/a	3	n/a	n/a	n/a	n/a
519873	DISTRACTOR	n/a	LTP295	ltpFR2	2	3	n/a	n/a	n/a	n/a	0	0	0
519879	PROB	n/a	LTP295	ltpFR2	2	n/a	n/a	n/a	3	20	4	8	8
522364	PROB	n/a	LTP295	ltpFR2	2	n/a	n/a	n/a	3	12	4	5	3
524247	PROB	n/a	LTP295	ltpFR2	2	n/a	n/a	n/a	3	12	2	7	3
525933	PROB	n/a	LTP295	ltpFR2	2	n/a	n/a	n/a	3	14	5	2	7
528234	PROB	n/a	LTP295	ltpFR2	2	n/a	n/a	n/a	3	11	1	5	5
529618	PROB	n/a	LTP295	ltpFR2	2	n/a	n/a	n/a	3	13	2	9	2
532140	PROB	n/a	LTP295	ltpFR2	2	n/a	n/a	n/a	3	18	3	8	7
534189	PROB	n/a	LTP295	ltpFR2	2	n/a	n/a	n/a	3	17	3	8	6
536993	PROB	n/a	LTP295	ltpFR2	2	n/a	n/a	n/a	3	17	2	9	6
538779	PROB	n/a	LTP295	ltpFR2	2	n/a	n/a	n/a	3	16	5	8	3
543044	STOP	n/a	LTP295	ltpFR2	2	n/a	n/a	n/a	3	n/a	n/a	n/a	n/a
544985	REC_START	n/a	LTP295	ltpFR2	2	3	n/a	n/a	n/a	n/a	0	0	0
547578	REC_WORD	wordpools/wasnorm_wordpool_576.txt	LTP295	ltpFR2	2	3	COCOON	339	n/a	n/a	0	0	0
548943	REC_WORD	wordpools/wasnorm_wordpool_576.txt	LTP295	ltpFR2	2	3	COIN	343	n/a	n/a	0	0	0
556232	REC_WORD	wordpools/wasnorm_wordpool_576.txt	LTP295	ltpFR2	2	3	ATOM	55	n/a	n/a	0	0	0
557063	REC_WORD	wordpools/wasnorm_wordpool_576.txt	LTP295	ltpFR2	2	3	SISTER	1312	n/a	n/a	0	0	0
558074	REC_WORD	wordpools/wasnorm_wordpool_576.txt	LTP295	ltpFR2	2	3	PAIL	1002	n/a	n/a	0	0	0
559075	REC_WORD	wordpools/wasnorm_wordpool_576.txt	LTP295	ltpFR2	2	3	GHETTO	633	n/a	n/a	0	0	0
562412	REC_WORD	wordpools/wasnorm_wordpool_576.txt	LTP295	ltpFR2	2	3	STREAM	1392	n/a	n/a	0	0	0
563412	REC_WORD_VV	wordpools/wasnorm_wordpool_576.txt	LTP295	ltpFR2	2	3	<>	-1	n/a	n/a	0	0	0
563750	REC_WORD	wordpools/wasnorm_wordpool_576.txt	LTP295	ltpFR2	2	3	PUDDLE	1140	n/a	n/a	0	0	0
564744	REC_WORD	wordpools/wasnorm_wordpool_576.txt	LTP295	ltpFR2	2	3	CORAL	378	n/a	n/a	0	0	0
567430	REC_WORD	wordpools/wasnorm_wordpool_576.txt	LTP295	ltpFR2	2	3	ITEM	746	n/a	n/a	0	0	0
568418	REC_WORD	wordpools/wasnorm_wordpool_576.txt	LTP295	ltpFR2	2	3	CANYON	235	n/a	n/a	0	0	0
569527	REC_WORD	wordpools/wasnorm_wordpool_576.txt	LTP295	ltpFR2	2	3	PASSAGE	1019	n/a	n/a	0	0	0
570527	REC_WORD_VV	wordpools/wasnorm_wordpool_576.txt	LTP295	ltpFR2	2	3	<>	-1	n/a	n/a	0	0	0
572802	REC_WORD	wordpools/wasnorm_wordpool_576.txt	LTP295	ltpFR2	2	3	GUARD	667	n/a	n/a	0	0	0
579364	REC_WORD	wordpools/wasnorm_wordpool_576.txt	LTP295	ltpFR2	2	3	CRITIC	410	n/a	n/a	0	0	0
589991	REC_WORD	wordpools/wasnorm_wordpool_576.txt	LTP295	ltpFR2	2	3	PILOT	1070	n/a	n/a	0	0	0
595782	REC_WORD	wordpools/wasnorm_wordpool_576.txt	LTP295	ltpFR2	2	3	COUNTY	389	n/a	n/a	0	0	0
635392	DISTRACTOR	n/a	LTP295	ltpFR2	2	4	n/a	n/a	n/a	n/a	0	0	0
635392	START	n/a	LTP295	ltpFR2	2	n/a	n/a	n/a	4	n/a	n/a	n/a	n/a
635407	PROB	n/a	LTP295	ltpFR2	2	n/a	n/a	n/a	4	20	8	5	7
638821	PROB	n/a	LTP295	ltpFR2	2	n/a	n/a	n/a	4	11	5	2	4
642223	PROB	n/a	LTP295	ltpFR2	2	n/a	n/a	n/a	4	17	3	6	8
643992	PROB	n/a	LTP295	ltpFR2	2	n/a	n/a	n/a	4	14	7	4	3
645859	PROB	n/a	LTP295	ltpFR2	2	n/a	n/a	n/a	4	20	7	6	7
647561	PROB	n/a	LTP295	ltpFR2	2	n/a	n/a	n/a	4	10	2	2	6
649396	PROB	n/a	LTP295	ltpFR2	2	n/a	n/a	n/a	4	13	1	3	9
651997	PROB	n/a	LTP295	ltpFR2	2	n/a	n/a	n/a	4	23	8	6	9
654335	PROB	n/a	LTP295	ltpFR2	2	n/a	n/a	n/a	4	12	4	3	5
659392	STOP	n/a	LTP295	ltpFR2	2	n/a	n/a	n/a	4	n/a	n/a	n/a	n/a
660487	WORD	wordpools/wasnorm_wordpool_576.txt	LTP295	ltpFR2	2	4	FOOT	590	n/a	n/a	0	0	0
663265	WORD	wordpools/wasnorm_wordpool_576.txt	LTP295	ltpFR2	2	4	GLASS	639	n/a	n/a	0	0	0
665759	WORD	wordpools/wasnorm_wordpool_576.txt	LTP295	ltpFR2	2	4	CREVICE	405	n/a	n/a	0	0	0
668251	WORD	wordpools/wasnorm_wordpool_576.txt	LTP295	ltpFR2	2	4	UMPIRE	1535	n/a	n/a	0	0	0
670729	WORD	wordpools/wasnorm_wordpool_576.txt	LTP295	ltpFR2	2	4	POSTAGE	1113	n/a	n/a	0	0	0
673289	WORD	wordpools/wasnorm_wordpool_576.txt	LTP295	ltpFR2	2	4	MAILMAN	858	n/a	n/a	0	0	0
675857	WORD	wordpools/wasnorm_wordpool_576.txt	LTP295	ltpFR2	2	4	ROCKET	1202	n/a	n/a	0	0	0
678302	WORD	wordpools/wasnorm_wordpool_576.txt	LTP295	ltpFR2	2	4	TURNIP	1521	n/a	n/a	0	0	0
680769	WORD	wordpools/wasnorm_wordpool_576.txt	LTP295	ltpFR2	2	4	YOLK	1633	n/a	n/a	0	0	0
683565	WORD	wordpools/wasnorm_wordpool_576.txt	LTP295	ltpFR2	2	4	PRIMATE	1123	n/a	n/a	0	0	0
686284	WORD	wordpools/wasnorm_wordpool_576.txt	LTP295	ltpFR2	2	4	ARMY	39	n/a	n/a	0	0	0
688892	WORD	wordpools/wasnorm_wordpool_576.txt	LTP295	ltpFR2	2	4	NAPKIN	937	n/a	n/a	0	0	0
691529	WORD	wordpools/wasnorm_wordpool_576.txt	LTP295	ltpFR2	2	4	RIFLE	1192	n/a	n/a	0	0	0
694274	WORD	wordpools/wasnorm_wordpool_576.txt	LTP295	ltpFR2	2	4	CABIN	211	n/a	n/a	0	0	0
697025	WORD	wordpools/wasnorm_wordpool_576.txt	LTP295	ltpFR2	2	4	COUCH	386	n/a	n/a	0	0	0
699717	WORD	wordpools/wasnorm_wordpool_576.txt	LTP295	ltpFR2	2	4	BUBBLE	183	n/a	n/a	0	0	0
702320	WORD	wordpools/wasnorm_wordpool_576.txt	LTP295	ltpFR2	2	4	BATHTUB	100	n/a	n/a	0	0	0
704972	WORD	wordpools/wasnorm_wordpool_576.txt	LTP295	ltpFR2	2	4	DRINK	498	n/a	n/a	0	0	0
707641	WORD	wordpools/wasnorm_wordpool_576.txt	LTP295	ltpFR2	2	4	TABLE	1426	n/a	n/a	0	0	0
710209	WORD	wordpools/wasnorm_wordpool_576.txt	LTP295	ltpFR2	2	4	GANGSTER	620	n/a	n/a	0	0	0
712995	WORD	wordpools/wasnorm_wordpool_576.txt	LTP295	ltpFR2	2	4	ARM	38	n/a	n/a	0	0	0
715724	WORD	wordpools/wasnorm_wordpool_576.txt	LTP295	ltpFR2	2	4	PICTURE	1061	n/a	n/a	0	0	0
718261	WORD	wordpools/wasnorm_wordpool_576.txt	LTP295	ltpFR2	2	4	BALLOON	75	n/a	n/a	0	0	0
720829	WORD	wordpools/wasnorm_wordpool_576.txt	LTP295	ltpFR2	2	4	DIVER	476	n/a	n/a	0	0	0
722436	START	n/a	LTP295	ltpFR2	2	n/a	n/a	n/a	5	n/a	n/a	n/a	n/a
723616	DISTRACTOR	n/a	LTP295	ltpFR2	2	4	n/a	n/a	n/a	n/a	0	0	0
723619	PROB	n/a	LTP295	ltpFR2	2	n/a	n/a	n/a	5	21	7	8	6
726256	PROB	n/a	LTP295	ltpFR2	2	n/a	n/a	n/a	5	11	7	1	3
727889	PROB	n/a	LTP295	ltpFR2	2	n/a	n/a	n/a	5	12	1	6	5
729541	PROB	n/a	LTP295	ltpFR2	2	n/a	n/a	n/a	5	8	1	3	4
731276	PROB	n/a	LTP295	ltpFR2	2	n/a	n/a	n/a	5	23	6	9	8
733761	PROB	n/a	LTP295	ltpFR2	2	n/a	n/a	n/a	5	22	9	4	9
735513	PROB	n/a	LTP295	ltpFR2	2	n/a	n/a	n/a	5	12	4	4	4
737629	PROB	n/a	LTP295	ltpFR2	2	n/a	n/a	n/a	5	18	8	4	6
739998	PROB	n/a	LTP295	ltpFR2	2	n/a	n/a	n/a	5	19	2	8	9
742917	PROB	n/a	LTP295	ltpFR2	2	n/a	n/a	n/a	5	12	1	4	7
746435	STOP	n/a	LTP295	ltpFR2	2	n/a	n/a	n/a	5	n/a	n/a	n/a	n/a
748374	REC_START	n/a	LTP295	ltpFR2	2	4	n/a	n/a	n/a	n/a	0	0	0
749496	REC_WORD	wordpools/wasnorm_wordpool_576.txt	LTP295	ltpFR2	2	4	GLASS	639	n/a	n/a	0	0	0
750361	REC_WORD	wordpools/wasnorm_wordpool_576.txt	LTP295	ltpFR2	2	4	FOOT	590	n/a	n/a	0	0	0
751461	REC_WORD	wordpools/wasnorm_wordpool_576.txt	LTP295	ltpFR2	2	4	ARM	38	n/a	n/a	0	0	0
752575	REC_WORD	wordpools/wasnorm_wordpool_576.txt	LTP295	ltpFR2	2	4	UMPIRE	1535	n/a	n/a	0	0	0
753544	REC_WORD	wordpools/wasnorm_wordpool_576.txt	LTP295	ltpFR2	2	4	CREVICE	405	n/a	n/a	0	0	0
754953	REC_WORD	wordpools/wasnorm_wordpool_576.txt	LTP295	ltpFR2	2	4	ARMY	39	n/a	n/a	0	0	0
755851	REC_WORD	wordpools/wasnorm_wordpool_576.txt	LTP295	ltpFR2	2	4	NAPKIN	937	n/a	n/a	0	0	0
756814	REC_WORD	wordpools/wasnorm_wordpool_576.txt	LTP295	ltpFR2	2	4	RIFLE	1192	n/a	n/a	0	0	0
759820	REC_WORD	wordpools/wasnorm_wordpool_576.txt	LTP295	ltpFR2	2	4	CABIN	211	n/a	n/a	0	0	0
761176	REC_WORD	wordpools/wasnorm_wordpool_576.txt	LTP295	ltpFR2	2	4	COUCH	386	n/a	n/a	0	0	0
762211	REC_WORD	wordpools/wasnorm_wordpool_576.txt	LTP295	ltpFR2	2	4	PICTURE	1061	n/a	n/a	0	0	0
763232	REC_WORD	wordpools/wasnorm_wordpool_576.txt	LTP295	ltpFR2	2	4	DIVER	476	n/a	n/a	0	0	0
764155	REC_WORD	wordpools/wasnorm_wordpool_576.txt	LTP295	ltpFR2	2	4	BUBBLE	183	n/a	n/a	0	0	0
766821	REC_WORD	wordpools/wasnorm_wordpool_576.txt	LTP295	ltpFR2	2	4	BATHTUB	100	n/a	n/a	0	0	0
768169	REC_WORD	wordpools/wasnorm_wordpool_576.txt	LTP295	ltpFR2	2	4	DRINK	498	n/a	n/a	0	0	0
778891	REC_WORD	wordpools/wasnorm_wordpool_576.txt	LTP295	ltpFR2	2	4	BALLOON	75	n/a	n/a	0	0	0
797093	REC_WORD	wordpools/wasnorm_wordpool_576.txt	LTP295	ltpFR2	2	4	PRIMATE	1123	n/a	n/a	0	0	0
798093	REC_WORD_VV	wordpools/wasnorm_wordpool_576.txt	LTP295	ltpFR2	2	4	<>	-1	n/a	n/a	0	0	0
838823	WORD	wordpools/wasnorm_wordpool_576.txt	LTP295	ltpFR2	2	5	POPCORN	1104	n/a	n/a	0	0	0
841330	WORD	wordpools/wasnorm_wordpool_576.txt	LTP295	ltpFR2	2	5	FOX	598	n/a	n/a	0	0	0
843798	WORD	wordpools/wasnorm_wordpool_576.txt	LTP295	ltpFR2	2	5	HOUND	724	n/a	n/a	0	0	0
846480	WORD	wordpools/wasnorm_wordpool_576.txt	LTP295	ltpFR2	2	5	FEMALE	559	n/a	n/a	0	0	0
848918	WORD	wordpools/wasnorm_wordpool_576.txt	LTP295	ltpFR2	2	5	CREATURE	403	n/a	n/a	0	0	0
851421	WORD	wordpools/wasnorm_wordpool_576.txt	LTP295	ltpFR2	2	5	SWITCH	1422	n/a	n/a	0	0	0
853968	WORD	wordpools/wasnorm_wordpool_576.txt	LTP295	ltpFR2	2	5	GROUND	666	n/a	n/a	0	0	0
856720	WORD	wordpools/wasnorm_wordpool_576.txt	LTP295	ltpFR2	2	5	SCISSORS	1250	n/a	n/a	0	0	0
859161	WORD	wordpools/wasnorm_wordpool_576.txt	LTP295	ltpFR2	2	5	SUITCASE	1403	n/a	n/a	0	0	0
861592	WORD	wordpools/wasnorm_wordpool_576.txt	LTP295	ltpFR2	2	5	EMPIRE	530	n/a	n/a	0	0	0
864148	WORD	wordpools/wasnorm_wordpool_576.txt	LTP295	ltpFR2	2	5	SUSPECT	1415	n/a	n/a	0	0	0
866666	WORD	wordpools/wasnorm_wordpool_576.txt	LTP295	ltpFR2	2	5	DRAGON	492	n/a	n/a	0	0	0
869282	WORD	wordpools/wasnorm_wordpool_576.txt	LTP295	ltpFR2	2	5	DIME	466	n/a	n/a	0	0	0
871754	WORD	wordpools/wasnorm_wordpool_576.txt	LTP295	ltpFR2	2	5	CASHIER	254	n/a	n/a	0	0	0
874407	WORD	wordpools/wasnorm_wordpool_576.txt	LTP295	ltpFR2	2	5	SPARROW	1347	n/a	n/a	0	0	0
877102	WORD	wordpools/wasnorm_wordpool_576.txt	LTP295	ltpFR2	2	5	BRAKE	166	n/a	n/a	0	0	0
879621	WORD	wordpools/wasnorm_wordpool_576.txt	LTP295	ltpFR2	2	5	COLONEL	348	n/a	n/a	0	0	0
882174	WORD	wordpools/wasnorm_wordpool_576.txt	LTP295	ltpFR2	2	5	BLENDER	136	n/a	n/a	0	0	0
884692	WORD	wordpools/wasnorm_wordpool_576.txt	LTP295	ltpFR2	2	5	CLAM	315	n/a	n/a	0	0	0
887396	WORD	wordpools/wasnorm_wordpool_576.txt	LTP295	ltpFR2	2	5	WAITER	1580	n/a	n/a	0	0	0
890180	WORD	wordpools/wasnorm_wordpool_576.txt	LTP295	ltpFR2	2	5	JUGGLER	763	n/a	n/a	0	0	0
892922	WORD	wordpools/wasnorm_wordpool_576.txt	LTP295	ltpFR2	2	5	LOVER	846	n/a	n/a	0	0	0
895707	WORD	wordpools/wasnorm_wordpool_576.txt	LTP295	ltpFR2	2	5	POCKET	1093	n/a	n/a	0	0	0
898169	WORD	wordpools/wasnorm_wordpool_576.txt	LTP295	ltpFR2	2	5	LUGGAGE	847	n/a	n/a	0	0	0
899778	START	n/a	LTP295	ltpFR2	2	n/a	n/a	n/a	6	n/a	n/a	n/a	n/a
900789	DISTRACTOR	n/a	LTP295	ltpFR2	2	5	n/a	n/a	n/a	n/a	0	0	0
900794	PROB	n/a	LTP295	ltpFR2	2	n/a	n/a	n/a	6	13	9	3	1
903256	PROB	n/a	LTP295	ltpFR2	2	n/a	n/a	n/a	6	11	8	1	2
904856	PROB	n/a	LTP295	ltpFR2	2	n/a	n/a	n/a	6	12	4	5	4
908926	PROB	n/a	LTP295	ltpFR2	2	n/a	n/a	n/a	6	15	2	6	7
911279	PROB	n/a	LTP295	ltpFR2	2	n/a	n/a	n/a	6	6	1	4	1
913264	PROB	n/a	LTP295	ltpFR2	2	n/a	n/a	n/a	6	23	7	9	7
915882	PROB	n/a	LTP295	ltpFR2	2	n/a	n/a	n/a	6	11	3	2	5
919885	PROB	n/a	LTP295	ltpFR2	2	n/a	n/a	n/a	6	13	1	7	5
922771	STOP	n/a	LTP295	ltpFR2	2	n/a	n/a	n/a	6	n/a	n/a	n/a	n/a
925658	REC_START	n/a	LTP295	ltpFR2	2	5	n/a	n/a	n/a	n/a	0	0	0
930199	REC_WORD	wordpools/wasnorm_wordpool_576.txt	LTP295	ltpFR2	2	5	FOX	598	n/a	n/a	0	0	0
931245	REC_WORD	wordpools/wasnorm_wordpool_576.txt	LTP295	ltpFR2	2	5	FEMALE	559	n/a	n/a	0	0	0
932380	REC_WORD	wordpools/wasnorm_wordpool_576.txt	LTP295	ltpFR2	2	5	POPCORN	1104	n/a	n/a	0	0	0
933321	REC_WORD	wordpools/wasnorm_wordpool_576.txt	LTP295	ltpFR2	2	5	SWITCH	1422	n/a	n/a	0	0	0
934510	REC_WORD	wordpools/wasnorm_wordpool_576.txt	LTP295	ltpFR2	2	5	POCKET	1093	n/a	n/a	0	0	0
935475	REC_WORD	wordpools/wasnorm_wordpool_576.txt	LTP295	ltpFR2	2	5	HOUND	724	n/a	n/a	0	0	0
936411	REC_WORD	wordpools/wasnorm_wordpool_576.txt	LTP295	ltpFR2	2	5	SUITCASE	1403	n/a	n/a	0	0	0
937423	REC_WORD	wordpools/wasnorm_wordpool_576.txt	LTP295	ltpFR2	2	5	LUGGAGE	847	n/a	n/a	0	0	0
938483	REC_WORD	wordpools/wasnorm_wordpool_576.txt	LTP295	ltpFR2	2	5	DRAGON	492	n/a	n/a	0	0	0
939598	REC_WORD	wordpools/wasnorm_wordpool_576.txt	LTP295	ltpFR2	2	5	DIME	466	n/a	n/a	0	0	0
940360	REC_WORD	wordpools/wasnorm_wordpool_576.txt	LTP295	ltpFR2	2	5	CASHIER	254	n/a	n/a	0	0	0
941612	REC_WORD	wordpools/wasnorm_wordpool_576.txt	LTP295	ltpFR2	2	5	SPARROW	1347	n/a	n/a	0	0	0
946249	REC_WORD	wordpools/wasnorm_wordpool_576.txt	LTP295	ltpFR2	2	5	JUGGLER	763	n/a	n/a	0	0	0
947555	REC_WORD	wordpools/wasnorm_wordpool_576.txt	LTP295	ltpFR2	2	5	WAITER	1580	n/a	n/a	0	0	0
950783	REC_WORD	wordpools/wasnorm_wordpool_576.txt	LTP295	ltpFR2	2	5	BLENDER	136	n/a	n/a	0	0	0
951825	REC_WORD	wordpools/wasnorm_wordpool_576.txt	LTP295	ltpFR2	2	5	CLAM	315	n/a	n/a	0	0	0
954927	REC_WORD	wordpools/wasnorm_wordpool_576.txt	LTP295	ltpFR2	2	5	SUSPECT	1415	n/a	n/a	0	0	0
955927	REC_WORD_VV	wordpools/wasnorm_wordpool_576.txt	LTP295	ltpFR2	2	5	<>	-1	n/a	n/a	0	0	0
956406	REC_WORD	wordpools/wasnorm_wordpool_576.txt	LTP295	ltpFR2	2	5	LOVER	846	n/a	n/a	0	0	0
970065	REC_WORD	wordpools/wasnorm_wordpool_576.txt	LTP295	ltpFR2	2	5	BRAKE	166	n/a	n/a	0	0	0
1016092	WORD	wordpools/wasnorm_wordpool_576.txt	LTP295	ltpFR2	2	6	KIDNEY	776	n/a	n/a	0	0	0
1018659	WORD	wordpools/wasnorm_wordpool_576.txt	LTP295	ltpFR2	2	6	SANDWICH	1232	n/a	n/a	0	0	0
1021329	WORD	wordpools/wasnorm_wordpool_576.txt	LTP295	ltpFR2	2	6	CHIPMUNK	304	n/a	n/a	0	0	0
1024098	WORD	wordpools/wasnorm_wordpool_576.txt	LTP295	ltpFR2	2	6	BIKE	125	n/a	n/a	0	0	0
1026532	WORD	wordpools/wasnorm_wordpool_576.txt	LTP295	ltpFR2	2	6	RUST	1219	n/a	n/a	0	0	0
1029119	WORD	wordpools/wasnorm_wordpool_576.txt	LTP295	ltpFR2	2	6	PIANO	1057	n/a	n/a	0	0	0
1031854	WORD	wordpools/wasnorm_wordpool_576.txt	LTP295	ltpFR2	2	6	PORK	1108	n/a	n/a	0	0	0
1034572	WORD	wordpools/wasnorm_wordpool_576.txt	LTP295	ltpFR2	2	6	FILM	565	n/a	n/a	0	0	0
1037008	WORD	wordpools/wasnorm_wordpool_576.txt	LTP295	ltpFR2	2	6	HELMET	702	n/a	n/a	0	0	0
1039711	WORD	wordpools/wasnorm_wordpool_576.txt	LTP295	ltpFR2	2	6	CUSTARD	429	n/a	n/a	0	0	0
1042245	WORD	wordpools/wasnorm_wordpool_576.txt	LTP295	ltpFR2	2	6	TRENCH	1503	n/a	n/a	0	0	0
1044997	WORD	wordpools/wasnorm_wordpool_576.txt	LTP295	ltpFR2	2	6	ORANGE	980	n/a	n/a	0	0	0
1047467	WORD	wordpools/wasnorm_wordpool_576.txt	LTP295	ltpFR2	2	6	PATIENT	1024	n/a	n/a	0	0	0
1050118	WORD	wordpools/wasnorm_wordpool_576.txt	LTP295	ltpFR2	2	6	SCALPEL	1243	n/a	n/a	0	0	0
1052837	WORD	wordpools/wasnorm_wordpool_576.txt	LTP295	ltpFR2	2	6	NECKLACE	940	n/a	n/a	0	0	0
1055306	WORD	wordpools/wasnorm_wordpool_576.txt	LTP295	ltpFR2	2	6	OYSTER	995	n/a	n/a	0	0	0
1058007	WORD	wordpools/wasnorm_wordpool_576.txt	LTP295	ltpFR2	2	6	PANTHER	1009	n/a	n/a	0	0	0
1060809	WORD	wordpools/wasnorm_wordpool_576.txt	LTP295	ltpFR2	2	6	GRILL	661	n/a	n/a	0	0	0
1063495	WORD	wordpools/wasnorm_wordpool_576.txt	LTP295	ltpFR2	2	6	PEDAL	1037	n/a	n/a	0	0	0
1066132	WORD	wordpools/wasnorm_wordpool_576.txt	LTP295	ltpFR2	2	6	SHOULDER	1294	n/a	n/a	0	0	0
1068799	WORD	wordpools/wasnorm_wordpool_576.txt	LTP295	ltpFR2	2	6	ZIPPER	1636	n/a	n/a	0	0	0
1071552	WORD	wordpools/wasnorm_wordpool_576.txt	LTP295	ltpFR2	2	6	JEANS	752	n/a	n/a	0	0	0
1074203	WORD	wordpools/wasnorm_wordpool_576.txt	LTP295	ltpFR2	2	6	QUEEN	1149	n/a	n/a	0	0	0
1076938	WORD	wordpools/wasnorm_wordpool_576.txt	LTP295	ltpFR2	2	6	TILE	1468	n/a	n/a	0	0	0
1078543	START	n/a	LTP295	ltpFR2	2	n/a	n/a	n/a	7	n/a	n/a	n/a	n/a
1079687	DISTRACTOR	n/a	LTP295	ltpFR2	2	6	n/a	n/a	n/a	n/a	0	0	0
1079690	PROB	n/a	LTP295	ltpFR2	2	n/a	n/a	n/a	7	7	2	3	2
1082393	PROB	n/a	LTP295	ltpFR2	2	n/a	n/a	n/a	7	10	8	1	1
1083894	PROB	n/a	LTP295	ltpFR2	2	n/a	n/a	n/a	7	20	5	6	9
1085946	PROB	n/a	LTP295	ltpFR2	2	n/a	n/a	n/a	7	17	7	8	2
1088431	PROB	n/a	LTP295	ltpFR2	2	n/a	n/a	n/a	7	13	6	5	2
1091166	PROB	n/a	LTP295	ltpFR2	2	n/a	n/a	n/a	7	18	4	5	9
1093318	PROB	n/a	LTP295	ltpFR2	2	n/a	n/a	n/a	7	16	5	2	9
1095602	PROB	n/a	LTP295	ltpFR2	2	n/a	n/a	n/a	7	15	4	2	9
1097538	PROB	n/a	LTP295	ltpFR2	2	n/a	n/a	n/a	7	19	6	6	7
1099822	PROB	n/a	LTP295	ltpFR2	2	n/a	n/a	n/a	7	18	4	7	7
1101547	STOP	n/a	LTP295	ltpFR2	2	n/a	n/a	n/a	7	n/a	n/a	n/a	n/a
1104343	REC_START	n/a	LTP295	ltpFR2	2	6	n/a	n/a	n/a	n/a	0	0	0
1106178	REC_WORD	wordpools/wasnorm_wordpool_576.txt	LTP295	ltpFR2	2	6	CHIPMUNK	304	n/a	n/a	0	0	0
1107255	REC_WORD	wordpools/wasnorm_wordpool_576.txt	LTP295	ltpFR2	2	6	BIKE	125	n/a	n/a	0	0	0
1108151	REC_WORD	wordpools/wasnorm_wordpool_576.txt	LTP295	ltpFR2	2	6	PEDAL	1037	n/a	n/a	0	0	0
1109139	REC_WORD	wordpools/wasnorm_wordpool_576.txt	LTP295	ltpFR2	2	6	HELMET	702	n/a	n/a	0	0	0
1111478	REC_WORD	wordpools/wasnorm_wordpool_576.txt	LTP295	ltpFR2	2	6	JEANS	752	n/a	n/a	0	0	0
1112440	REC_WORD	wordpools/wasnorm_wordpool_576.txt	LTP295	ltpFR2	2	6	ZIPPER	1636	n/a	n/a	0	0	0
1113688	REC_WORD	wordpools/wasnorm_wordpool_576.txt	LTP295	ltpFR2	2	6	SHOULDER	1294	n/a	n/a	0	0	0
1117910	REC_WORD	wordpools/wasnorm_wordpool_576.txt	LTP295	ltpFR2	2	6	KIDNEY	776	n/a	n/a	0	0	0
1118842	REC_WORD	wordpools/wasnorm_wordpool_576.txt	LTP295	ltpFR2	2	6	SANDWICH	1232	n/a	n/a	0	0	0
1121173	REC_WORD	wordpools/wasnorm_wordpool_576.txt	LTP295	ltpFR2	2	6	PANTHER	1009	n/a	n/a	0	0	0
1122368	REC_WORD	wordpools/wasnorm_wordpool_576.txt	LTP295	ltpFR2	2	6	GRILL	661	n/a	n/a	0	0	0
1123974	REC_WORD	wordpools/wasnorm_wordpool_576.txt	LTP295	ltpFR2	2	6	CREVICE	405	n/a	n/a	0	0	0
1125115	REC_WORD	wordpools/wasnorm_wordpool_576.txt	LTP295	ltpFR2	2	6	ORANGE	980	n/a	n/a	0	0	0
1126148	REC_WORD	wordpools/wasnorm_wordpool_576.txt	LTP295	ltpFR2	2	6	PATIENT	1024	n/a	n/a	0	0	0
1127580	REC_WORD	wordpools/wasnorm_wordpool_576.txt	LTP295	ltpFR2	2	6	SCALPEL	1243	n/a	n/a	0	0	0
1132565	REC_WORD	wordpools/wasnorm_wordpool_576.txt	LTP295	ltpFR2	2	6	OYSTER	995	n/a	n/a	0	0	0
1142252	REC_WORD	wordpools/wasnorm_wordpool_576.txt	LTP295	ltpFR2	2	6	QUEEN	1149	n/a	n/a	0	0	0
1194762	WORD	wordpools/wasnorm_wordpool_576.txt	LTP295	ltpFR2	2	7	COSTUME	383	n/a	n/a	0	0	0
1197258	WORD	wordpools/wasnorm_wordpool_576.txt	LTP295	ltpFR2	2	7	GARDEN	623	n/a	n/a	0	0	0
1199876	WORD	wordpools/wasnorm_wordpool_576.txt	LTP295	ltpFR2	2	7	LIPSTICK	829	n/a	n/a	0	0	0
1202568	WORD	wordpools/wasnorm_wordpool_576.txt	LTP295	ltpFR2	2	7	BASEMENT	94	n/a	n/a	0	0	0
1205131	WORD	wordpools/wasnorm_wordpool_576.txt	LTP295	ltpFR2	2	7	WIDOW	1608	n/a	n/a	0	0	0
1207939	WORD	wordpools/wasnorm_wordpool_576.txt	LTP295	ltpFR2	2	7	CHURCH	307	n/a	n/a	0	0	0
1210502	WORD	wordpools/wasnorm_wordpool_576.txt	LTP295	ltpFR2	2	7	TABLET	1427	n/a	n/a	0	0	0
1213260	WORD	wordpools/wasnorm_wordpool_576.txt	LTP295	ltpFR2	2	7	CONTRACT	368	n/a	n/a	0	0	0
1216040	WORD	wordpools/wasnorm_wordpool_576.txt	LTP295	ltpFR2	2	7	NOTEBOOK	959	n/a	n/a	0	0	0
1218642	WORD	wordpools/wasnorm_wordpool_576.txt	LTP295	ltpFR2	2	7	BANQUET	86	n/a	n/a	0	0	0
1221177	WORD	wordpools/wasnorm_wordpool_576.txt	LTP295	ltpFR2	2	7	ROOSTER	1209	n/a	n/a	0	0	0
1223764	WORD	wordpools/wasnorm_wordpool_576.txt	LTP295	ltpFR2	2	7	BEAKER	104	n/a	n/a	0	0	0
1226465	WORD	wordpools/wasnorm_wordpool_576.txt	LTP295	ltpFR2	2	7	BANKER	84	n/a	n/a	0	0	0
1228904	WORD	wordpools/wasnorm_wordpool_576.txt	LTP295	ltpFR2	2	7	BREAST	171	n/a	n/a	0	0	0
1231354	WORD	wordpools/wasnorm_wordpool_576.txt	LTP295	ltpFR2	2	7	HERO	706	n/a	n/a	0	0	0
1233939	WORD	wordpools/wasnorm_wordpool_576.txt	LTP295	ltpFR2	2	7	TWISTER	1530	n/a	n/a	0	0	0
1236657	WORD	wordpools/wasnorm_wordpool_576.txt	LTP295	ltpFR2	2	7	CYCLONE	431	n/a	n/a	0	0	0
1239179	WORD	wordpools/wasnorm_wordpool_576.txt	LTP295	ltpFR2	2	7	TAXI	1438	n/a	n/a	0	0	0
1241861	WORD	wordpools/wasnorm_wordpool_576.txt	LTP295	ltpFR2	2	7	COMET	353	n/a	n/a	0	0	0
1244399	WORD	wordpools/wasnorm_wordpool_576.txt	LTP295	ltpFR2	2	7	IDOL	733	n/a	n/a	0	0	0
1247032	WORD	wordpools/wasnorm_wordpool_576.txt	LTP295	ltpFR2	2	7	KITCHEN	778	n/a	n/a	0	0	0
1249752	WORD	wordpools/wasnorm_wordpool_576.txt	LTP295	ltpFR2	2	7	ULCER	1533	n/a	n/a	0	0	0
1252323	WORD	wordpools/wasnorm_wordpool_576.txt	LTP295	ltpFR2	2	7	OUTFIT	988	n/a	n/a	0	0	0
1254956	WORD	wordpools/wasnorm_wordpool_576.txt	LTP295	ltpFR2	2	7	BUREAU	199	n/a	n/a	0	0	0
1256560	START	n/a	LTP295	ltpFR2	2	n/a	n/a	n/a	8	n/a	n/a	n/a	n/a
1257367	DISTRACTOR	n/a	LTP295	ltpFR2	2	7	n/a	n/a	n/a	n/a	0	0	0
1257376	PROB	n/a	LTP295	ltpFR2	2	n/a	n/a	n/a	8	18	8	1	9
1259477	PROB	n/a	LTP295	ltpFR2	2	n/a	n/a	n/a	8	10	5	3	2
1262045	PROB	n/a	LTP295	ltpFR2	2	n/a	n/a	n/a	8	12	3	1	8
1263814	PROB	n/a	LTP295	ltpFR2	2	n/a	n/a	n/a	8	21	9	5	7
1265800	PROB	n/a	LTP295	ltpFR2	2	n/a	n/a	n/a	8	20	4	9	7
1268651	PROB	n/a	LTP295	ltpFR2	2	n/a	n/a	n/a	8	19	1	9	9
1270168	PROB	n/a	LTP295	ltpFR2	2	n/a	n/a	n/a	8	18	9	6	3
1272322	PROB	n/a	LTP295	ltpFR2	2	n/a	n/a	n/a	8	22	9	4	9
1274071	PROB	n/a	LTP295	ltpFR2	2	n/a	n/a	n/a	8	16	7	4	5
1277925	PROB	n/a	LTP295	ltpFR2	2	n/a	n/a	n/a	8	8	3	1	4
1279547	STOP	n/a	LTP295	ltpFR2	2	n/a	n/a	n/a	8	n/a	n/a	n/a	n/a
1282379	REC_START	n/a	LTP295	ltpFR2	2	7	n/a	n/a	n/a	n/a	0	0	0
1284801	REC_WORD	wordpools/wasnorm_wordpool_576.txt	LTP295	ltpFR2	2	7	WIDOW	1608	n/a	n/a	0	0	0
1285748	REC_WORD	wordpools/wasnorm_wordpool_576.txt	LTP295	ltpFR2	2	7	COSTUME	383	n/a	n/a	0	0	0
1286945	REC_WORD	wordpools/wasnorm_wordpool_576.txt	LTP295	ltpFR2	2	7	OUTFIT	988	n/a	n/a	0	0	0
1287906	REC_WORD	wordpools/wasnorm_wordpool_576.txt	LTP295	ltpFR2	2	7	LIPSTICK	829	n/a	n/a	0	0	0
1289073	REC_WORD	wordpools/wasnorm_wordpool_576.txt	LTP295	ltpFR2	2	7	TABLET	1427	n/a	n/a	0	0	0
1290308	REC_WORD	wordpools/wasnorm_wordpool_576.txt	LTP295	ltpFR2	2	7	CONTRACT	368	n/a	n/a	0	0	0
1291633	REC_WORD	wordpools/wasnorm_wordpool_576.txt	LTP295	ltpFR2	2	7	BREAST	171	n/a	n/a	0	0	0
1292831	REC_WORD	wordpools/wasnorm_wordpool_576.txt	LTP295	ltpFR2	2	7	GARDEN	623	n/a	n/a	0	0	0
1293981	REC_WORD	wordpools/wasnorm_wordpool_576.txt	LTP295	ltpFR2	2	7	CHURCH	307	n/a	n/a	0	0	0
1295174	REC_WORD	wordpools/wasnorm_wordpool_576.txt	LTP295	ltpFR2	2	7	BASEMENT	94	n/a	n/a	0	0	0
1296283	REC_WORD	wordpools/wasnorm_wordpool_576.txt	LTP295	ltpFR2	2	7	KITCHEN	778	n/a	n/a	0	0	0
1297546	REC_WORD	wordpools/wasnorm_wordpool_576.txt	LTP295	ltpFR2	2	7	ROOSTER	1209	n/a	n/a	0	0	0
1298751	REC_WORD	wordpools/wasnorm_wordpool_576.txt	LTP295	ltpFR2	2	7	BANKER	84	n/a	n/a	0	0	0
1299879	REC_WORD	wordpools/wasnorm_wordpool_576.txt	LTP295	ltpFR2	2	7	HERO	706	n/a	n/a	0	0	0
1301374	REC_WORD	wordpools/wasnorm_wordpool_576.txt	LTP295	ltpFR2	2	7	BUREAU	199	n/a	n/a	0	0	0
1303421	REC_WORD	wordpools/wasnorm_wordpool_576.txt	LTP295	ltpFR2	2	7	TWISTER	1530	n/a	n/a	0	0	0
1304446	REC_WORD	wordpools/wasnorm_wordpool_576.txt	LTP295	ltpFR2	2	7	CYCLONE	431	n/a	n/a	0	0	0
1305948	REC_WORD	wordpools/wasnorm_wordpool_576.txt	LTP295	ltpFR2	2	7	TAXI	1438	n/a	n/a	0	0	0
1307258	REC_WORD	wordpools/wasnorm_wordpool_576.txt	LTP295	ltpFR2	2	7	IDOL	733	n/a	n/a	0	0	0
1308336	REC_WORD	wordpools/wasnorm_wordpool_576.txt	LTP295	ltpFR2	2	7	COMET	353	n/a	n/a	0	0	0
1309571	REC_WORD	wordpools/wasnorm_wordpool_576.txt	LTP295	ltpFR2	2	7	BANQUET	86	n/a	n/a	0	0	0
1372815	WORD	wordpools/wasnorm_wordpool_576.txt	LTP295	ltpFR2	2	8	CRAB	397	n/a	n/a	0	0	0
1375267	WORD	wordpools/wasnorm_wordpool_576.txt	LTP295	ltpFR2	2	8	TROMBONE	1508	n/a	n/a	0	0	0
1377718	WORD	wordpools/wasnorm_wordpool_576.txt	LTP295	ltpFR2	2	8	PLASTER	1085	n/a	n/a	0	0	0
1380455	WORD	wordpools/wasnorm_wordpool_576.txt	LTP295	ltpFR2	2	8	ZEBRA	1635	n/a	n/a	0	0	0
1382979	WORD	wordpools/wasnorm_wordpool_576.txt	LTP295	ltpFR2	2	8	STALLION	1369	n/a	n/a	0	0	0
1385432	WORD	wordpools/wasnorm_wordpool_576.txt	LTP295	ltpFR2	2	8	FOOTBALL	591	n/a	n/a	0	0	0
1387984	WORD	wordpools/wasnorm_wordpool_576.txt	LTP295	ltpFR2	2	8	JUNGLE	764	n/a	n/a	0	0	0
1390412	WORD	wordpools/wasnorm_wordpool_576.txt	LTP295	ltpFR2	2	8	BANK	83	n/a	n/a	0	0	0
1392979	WORD	wordpools/wasnorm_wordpool_576.txt	LTP295	ltpFR2	2	8	PARENT	1013	n/a	n/a	0	0	0
1395458	WORD	wordpools/wasnorm_wordpool_576.txt	LTP295	ltpFR2	2	8	OUTLAW	989	n/a	n/a	0	0	0
1398101	WORD	wordpools/wasnorm_wordpool_576.txt	LTP295	ltpFR2	2	8	TUBA	1515	n/a	n/a	0	0	0
1400594	WORD	wordpools/wasnorm_wordpool_576.txt	LTP295	ltpFR2	2	8	MILK	895	n/a	n/a	0	0	0
1403054	WORD	wordpools/wasnorm_wordpool_576.txt	LTP295	ltpFR2	2	8	BISON	131	n/a	n/a	0	0	0
1405723	WORD	wordpools/wasnorm_wordpool_576.txt	LTP295	ltpFR2	2	8	CATTLE	261	n/a	n/a	0	0	0
1408217	WORD	wordpools/wasnorm_wordpool_576.txt	LTP295	ltpFR2	2	8	SCULPTURE	1258	n/a	n/a	0	0	0
1410853	WORD	wordpools/wasnorm_wordpool_576.txt	LTP295	ltpFR2	2	8	WIFE	1609	n/a	n/a	0	0	0
1413279	WORD	wordpools/wasnorm_wordpool_576.txt	LTP295	ltpFR2	2	8	BLUEPRINT	142	n/a	n/a	0	0	0
1416097	WORD	wordpools/wasnorm_wordpool_576.txt	LTP295	ltpFR2	2	8	BUGGY	188	n/a	n/a	0	0	0
1418642	WORD	wordpools/wasnorm_wordpool_576.txt	LTP295	ltpFR2	2	8	ASIA	46	n/a	n/a	0	0	0
1421151	WORD	wordpools/wasnorm_wordpool_576.txt	LTP295	ltpFR2	2	8	CONVICT	371	n/a	n/a	0	0	0
1423603	WORD	wordpools/wasnorm_wordpool_576.txt	LTP295	ltpFR2	2	8	GRIZZLY	662	n/a	n/a	0	0	0
1426349	WORD	wordpools/wasnorm_wordpool_576.txt	LTP295	ltpFR2	2	8	DANDRUFF	439	n/a	n/a	0	0	0
1428784	WORD	wordpools/wasnorm_wordpool_576.txt	LTP295	ltpFR2	2	8	BARLEY	88	n/a	n/a	0	0	0
1431553	WORD	wordpools/wasnorm_wordpool_576.txt	LTP295	ltpFR2	2	8	YARN	1631	n/a	n/a	0	0	0
1433161	START	n/a	LTP295	ltpFR2	2	n/a	n/a	n/a	9	n/a	n/a	n/a	n/a
1434122	DISTRACTOR	n/a	LTP295	ltpFR2	2	8	n/a	n/a	n/a	n/a	0	0	0
1434127	PROB	n/a	LTP295	ltpFR2	2	n/a	n/a	n/a	9	10	1	1	8
1435711	PROB	n/a	LTP295	ltpFR2	2	n/a	n/a	n/a	9	12	1	2	9
1437698	PROB	n/a	LTP295	ltpFR2	2	n/a	n/a	n/a	9	13	6	5	2
1439748	PROB	n/a	LTP295	ltpFR2	2	n/a	n/a	n/a	9	22	9	7	6
1442533	PROB	n/a	LTP295	ltpFR2	2	n/a	n/a	n/a	9	16	4	9	3
1444819	PROB	n/a	LTP295	ltpFR2	2	n/a	n/a	n/a	9	14	9	4	2
1447471	PROB	n/a	LTP295	ltpFR2	2	n/a	n/a	n/a	9	18	5	9	4
1451542	PROB	n/a	LTP295	ltpFR2	2	n/a	n/a	n/a	9	19	8	2	9
1453310	PROB	n/a	LTP295	ltpFR2	2	n/a	n/a	n/a	9	13	2	9	2
1457161	STOP	n/a	LTP295	ltpFR2	2	n/a	n/a	n/a	9	n/a	n/a	n/a	n/a
1459048	REC_START	n/a	LTP295	ltpFR2	2	8	n/a	n/a	n/a	n/a	0	0	0
1461315	REC_WORD	wordpools/wasnorm_wordpool_576.txt	LTP295	ltpFR2	2	8	CRAB	397	n/a	n/a	0	0	0
1462120	REC_WORD	wordpools/wasnorm_wordpool_576.txt	LTP295	ltpFR2	2	8	TROMBONE	1508	n/a	n/a	0	0	0
1463443	REC_WORD	wordpools/wasnorm_wordpool_576.txt	LTP295	ltpFR2	2	8	TUBA	1515	n/a	n/a	0	0	0
1464461	REC_WORD	wordpools/wasnorm_wordpool_576.txt	LTP295	ltpFR2	2	8	PLASTER	1085	n/a	n/a	0	0	0
1465588	REC_WORD	wordpools/wasnorm_wordpool_576.txt	LTP295	ltpFR2	2	8	MILK	895	n/a	n/a	0	0	0
1467236	REC_WORD	wordpools/wasnorm_wordpool_576.txt	LTP295	ltpFR2	2	8	ZEBRA	1635	n/a	n/a	0	0	0
1468047	REC_WORD	wordpools/wasnorm_wordpool_576.txt	LTP295	ltpFR2	2	8	STALLION	1369	n/a	n/a	0	0	0
1469001	REC_WORD	wordpools/wasnorm_wordpool_576.txt	LTP295	ltpFR2	2	8	FOOTBALL	591	n/a	n/a	0	0	0
1470086	REC_WORD	wordpools/wasnorm_wordpool_576.txt	LTP295	ltpFR2	2	8	ASIA	46	n/a	n/a	0	0	0
1471046	REC_WORD	wordpools/wasnorm_wordpool_576.txt	LTP295	ltpFR2	2	8	PARENT	1013	n/a	n/a	0	0	0
1472132	REC_WORD	wordpools/wasnorm_wordpool_576.txt	LTP295	ltpFR2	2	8	OUTLAW	989	n/a	n/a	0	0	0
1474081	REC_WORD	wordpools/wasnorm_wordpool_576.txt	LTP295	ltpFR2	2	8	CONVICT	371	n/a	n/a	0	0	0
1475081	REC_WORD_VV	wordpools/wasnorm_wordpool_576.txt	LTP295	ltpFR2	2	8	<>	-1	n/a	n/a	0	0	0
1478395	REC_WORD	wordpools/wasnorm_wordpool_576.txt	LTP295	ltpFR2	2	8	BISON	131	n/a	n/a	0	0	0
1481010	REC_WORD	wordpools/wasnorm_wordpool_576.txt	LTP295	ltpFR2	2	8	SCULPTURE	1258	n/a	n/a	0	0	0
1482010	REC_WORD_VV	wordpools/wasnorm_wordpool_576.txt	LTP295	ltpFR2	2	8	<>	-1	n/a	n/a	0	0	0
1483113	REC_WORD	wordpools/wasnorm_wordpool_576.txt	LTP295	ltpFR2	2	8	CATTLE	261	n/a	n/a	0	0	0
1484918	REC_WORD	wordpools/wasnorm_wordpool_576.txt	LTP295	ltpFR2	2	8	WIFE	1609	n/a	n/a	0	0	0
1486324	REC_WORD	wordpools/wasnorm_wordpool_576.txt	LTP295	ltpFR2	2	8	JUNGLE	764	n/a	n/a	0	0	0
1487616	REC_WORD	wordpools/wasnorm_wordpool_576.txt	LTP295	ltpFR2	2	8	BANK	83	n/a	n/a	0	0	0
1527698	REC_WORD	wordpools/wasnorm_wordpool_576.txt	LTP295	ltpFR2	2	8	BUGGY	188	n/a	n/a	0	0	0
1535589	REST_REWET	n/a	LTP295	ltpFR2	2	8	n/a	n/a	n/a	n/a	0	0	0
1748032	DISTRACTOR	n/a	LTP295	ltpFR2	2	9	n/a	n/a	n/a	n/a	0	0	0
1748033	START	n/a	LTP295	ltpFR2	2	n/a	n/a	n/a	10	n/a	n/a	n/a	n/a
1748050	PROB	n/a	LTP295	ltpFR2	2	n/a	n/a	n/a	10	18	7	4	7
1749986	PROB	n/a	LTP295	ltpFR2	2	n/a	n/a	n/a	10	11	1	6	4
1751470	PROB	n/a	LTP295	ltpFR2	2	n/a	n/a	n/a	10	11	1	1	9
1753538	PROB	n/a	LTP295	ltpFR2	2	n/a	n/a	n/a	10	16	7	5	4
1756006	PROB	n/a	LTP295	ltpFR2	2	n/a	n/a	n/a	10	13	6	2	5
1759642	PROB	n/a	LTP295	ltpFR2	2	n/a	n/a	n/a	10	13	3	7	3
1761477	PROB	n/a	LTP295	ltpFR2	2	n/a	n/a	n/a	10	7	4	1	2
1763679	PROB	n/a	LTP295	ltpFR2	2	n/a	n/a	n/a	10	11	2	3	6
1765665	PROB	n/a	LTP295	ltpFR2	2	n/a	n/a	n/a	10	16	7	4	5
1767865	PROB	n/a	LTP295	ltpFR2	2	n/a	n/a	n/a	10	14	3	8	3
1771340	STOP	n/a	LTP295	ltpFR2	2	n/a	n/a	n/a	10	n/a	n/a	n/a	n/a
1773103	WORD	wordpools/wasnorm_wordpool_576.txt	LTP295	ltpFR2	2	9	DOLPHIN	483	n/a	n/a	0	0	0
1775704	WORD	wordpools/wasnorm_wordpool_576.txt	LTP295	ltpFR2	2	9	DRUG	501	n/a	n/a	0	0	0
1778424	WORD	wordpools/wasnorm_wordpool_576.txt	LTP295	ltpFR2	2	9	BLOUSE	139	n/a	n/a	0	0	0
1780993	WORD	wordpools/wasnorm_wordpool_576.txt	LTP295	ltpFR2	2	9	HORNET	718	n/a	n/a	0	0	0
1783761	WORD	wordpools/wasnorm_wordpool_576.txt	LTP295	ltpFR2	2	9	CHEMIST	292	n/a	n/a	0	0	0
1786179	WORD	wordpools/wasnorm_wordpool_576.txt	LTP295	ltpFR2	2	9	CIGAR	308	n/a	n/a	0	0	0
1788798	WORD	wordpools/wasnorm_wordpool_576.txt	LTP295	ltpFR2	2	9	CANAL	226	n/a	n/a	0	0	0
1791401	WORD	wordpools/wasnorm_wordpool_576.txt	LTP295	ltpFR2	2	9	BUCKET	184	n/a	n/a	0	0	0
1793868	WORD	wordpools/wasnorm_wordpool_576.txt	LTP295	ltpFR2	2	9	HONEY	713	n/a	n/a	0	0	0
1796455	WORD	wordpools/wasnorm_wordpool_576.txt	LTP295	ltpFR2	2	9	DRESS	495	n/a	n/a	0	0	0
1798875	WORD	wordpools/wasnorm_wordpool_576.txt	LTP295	ltpFR2	2	9	PASTRY	1022	n/a	n/a	0	0	0
1801592	WORD	wordpools/wasnorm_wordpool_576.txt	LTP295	ltpFR2	2	9	STOVE	1388	n/a	n/a	0	0	0
1804327	WORD	wordpools/wasnorm_wordpool_576.txt	LTP295	ltpFR2	2	9	REPORT	1184	n/a	n/a	0	0	0
1806928	WORD	wordpools/wasnorm_wordpool_576.txt	LTP295	ltpFR2	2	9	CEILING	265	n/a	n/a	0	0	0
1809584	WORD	wordpools/wasnorm_wordpool_576.txt	LTP295	ltpFR2	2	9	BULLET	194	n/a	n/a	0	0	0
1812033	WORD	wordpools/wasnorm_wordpool_576.txt	LTP295	ltpFR2	2	9	RELISH	1183	n/a	n/a	0	0	0
1814501	WORD	wordpools/wasnorm_wordpool_576.txt	LTP295	ltpFR2	2	9	NOVEL	960	n/a	n/a	0	0	0
1817288	WORD	wordpools/wasnorm_wordpool_576.txt	LTP295	ltpFR2	2	9	BEAST	108	n/a	n/a	0	0	0
1819855	WORD	wordpools/wasnorm_wordpool_576.txt	LTP295	ltpFR2	2	9	MISSILE	900	n/a	n/a	0	0	0
1822628	WORD	wordpools/wasnorm_wordpool_576.txt	LTP295	ltpFR2	2	9	KNAPSACK	783	n/a	n/a	0	0	0
1825427	WORD	wordpools/wasnorm_wordpool_576.txt	LTP295	ltpFR2	2	9	HANDBAG	684	n/a	n/a	0	0	0
1828161	WORD	wordpools/wasnorm_wordpool_576.txt	LTP295	ltpFR2	2	9	THIEF	1456	n/a	n/a	0	0	0
1830797	WORD	wordpools/wasnorm_wordpool_576.txt	LTP295	ltpFR2	2	9	NURSE	963	n/a	n/a	0	0	0
1833366	WORD	wordpools/wasnorm_wordpool_576.txt	LTP295	ltpFR2	2	9	DRIVER	499	n/a	n/a	0	0	0
1834972	START	n/a	LTP295	ltpFR2	2	n/a	n/a	n/a	11	n/a	n/a	n/a	n/a
1835832	DISTRACTOR	n/a	LTP295	ltpFR2	2	9	n/a	n/a	n/a	n/a	0	0	0
1835839	PROB	n/a	LTP295	ltpFR2	2	n/a	n/a	n/a	11	20	8	7	5
1839502	PROB	n/a	LTP295	ltpFR2	2	n/a	n/a	n/a	11	16	4	8	4
1842272	PROB	n/a	LTP295	ltpFR2	2	n/a	n/a	n/a	11	20	6	8	7
1844573	PROB	n/a	LTP295	ltpFR2	2	n/a	n/a	n/a	11	25	7	9	9
1848109	PROB	n/a	LTP295	ltpFR2	2	n/a	n/a	n/a	11	16	2	9	5
1850777	PROB	n/a	LTP295	ltpFR2	2	n/a	n/a	n/a	11	13	7	3	3
1852646	PROB	n/a	LTP295	ltpFR2	2	n/a	n/a	n/a	11	8	1	3	4
1854300	PROB	n/a	LTP295	ltpFR2	2	n/a	n/a	n/a	11	16	7	1	8
1856616	PROB	n/a	LTP295	ltpFR2	2	n/a	n/a	n/a	11	15	5	4	6
1858739	STOP	n/a	LTP295	ltpFR2	2	n/a	n/a	n/a	11	n/a	n/a	n/a	n/a
1860838	REC_START	n/a	LTP295	ltpFR2	2	9	n/a	n/a	n/a	n/a	0	0	0
1862755	REC_WORD	wordpools/wasnorm_wordpool_576.txt	LTP295	ltpFR2	2	9	DOLPHIN	483	n/a	n/a	0	0	0
1863720	REC_WORD	wordpools/wasnorm_wordpool_576.txt	LTP295	ltpFR2	2	9	BLOUSE	139	n/a	n/a	0	0	0
1864842	REC_WORD	wordpools/wasnorm_wordpool_576.txt	LTP295	ltpFR2	2	9	DRESS	495	n/a	n/a	0	0	0
1865849	REC_WORD	wordpools/wasnorm_wordpool_576.txt	LTP295	ltpFR2	2	9	HORNET	718	n/a	n/a	0	0	0
1866976	REC_WORD	wordpools/wasnorm_wordpool_576.txt	LTP295	ltpFR2	2	9	CHEMIST	292	n/a	n/a	0	0	0
1867976	REC_WORD	wordpools/wasnorm_wordpool_576.txt	LTP295	ltpFR2	2	9	DRUG	501	n/a	n/a	0	0	0
1874926	REC_WORD	wordpools/wasnorm_wordpool_576.txt	LTP295	ltpFR2	2	9	REPORT	1184	n/a	n/a	0	0	0
1876090	REC_WORD	wordpools/wasnorm_wordpool_576.txt	LTP295	ltpFR2	2	9	NOVEL	960	n/a	n/a	0	0	0
1876733	REC_WORD	wordpools/wasnorm_wordpool_576.txt	LTP295	ltpFR2	2	9	CIGAR	308	n/a	n/a	0	0	0
1878269	REC_WORD	wordpools/wasnorm_wordpool_576.txt	LTP295	ltpFR2	2	9	STOVE	1388	n/a	n/a	0	0	0
1879424	REC_WORD	wordpools/wasnorm_wordpool_576.txt	LTP295	ltpFR2	2	9	BUCKET	184	n/a	n/a	0	0	0
1880179	REC_WORD	wordpools/wasnorm_wordpool_576.txt	LTP295	ltpFR2	2	9	HONEY	713	n/a	n/a	0	0	0
1881223	REC_WORD	wordpools/wasnorm_wordpool_576.txt	LTP295	ltpFR2	2	9	PASTRY	1022	n/a	n/a	0	0	0
1882444	REC_WORD	wordpools/wasnorm_wordpool_576.txt	LTP295	ltpFR2	2	9	BULLET	194	n/a	n/a	0	0	0
1884236	REC_WORD	wordpools/wasnorm_wordpool_576.txt	LTP295	ltpFR2	2	9	CANAL	226	n/a	n/a	0	0	0
1886629	REC_WORD	wordpools/wasnorm_wordpool_576.txt	LTP295	ltpFR2	2	9	KNAPSACK	783	n/a	n/a	0	0	0
1887726	REC_WORD	wordpools/wasnorm_wordpool_576.txt	LTP295	ltpFR2	2	9	HANDBAG	684	n/a	n/a	0	0	0
1888915	REC_WORD	wordpools/wasnorm_wordpool_576.txt	LTP295	ltpFR2	2	9	THIEF	1456	n/a	n/a	0	0	0
1903851	REC_WORD	wordpools/wasnorm_wordpool_576.txt	LTP295	ltpFR2	2	9	BEAKER	104	n/a	n/a	0	0	0
1933678	REC_WORD	wordpools/wasnorm_wordpool_576.txt	LTP295	ltpFR2	2	9	MISSILE	900	n/a	n/a	0	0	0
1973653	DISTRACTOR	n/a	LTP295	ltpFR2	2	10	n/a	n/a	n/a	n/a	0	0	0
1973654	START	n/a	LTP295	ltpFR2	2	n/a	n/a	n/a	12	n/a	n/a	n/a	n/a
1973670	PROB	n/a	LTP295	ltpFR2	2	n/a	n/a	n/a	12	14	6	5	3
1977423	PROB	n/a	LTP295	ltpFR2	2	n/a	n/a	n/a	12	9	3	4	2
1979076	PROB	n/a	LTP295	ltpFR2	2	n/a	n/a	n/a	12	26	9	8	9
1981112	PROB	n/a	LTP295	ltpFR2	2	n/a	n/a	n/a	12	21	9	8	4
1983863	PROB	n/a	LTP295	ltpFR2	2	n/a	n/a	n/a	12	18	3	6	9
1985830	PROB	n/a	LTP295	ltpFR2	2	n/a	n/a	n/a	12	10	1	5	4
1987498	PROB	n/a	LTP295	ltpFR2	2	n/a	n/a	n/a	12	17	5	5	7
1989133	PROB	n/a	LTP295	ltpFR2	2	n/a	n/a	n/a	12	19	3	9	7
1991804	PROB	n/a	LTP295	ltpFR2	2	n/a	n/a	n/a	12	17	6	7	4
1994288	PROB	n/a	LTP295	ltpFR2	2	n/a	n/a	n/a	12	13	5	2	4
1996555	STOP	n/a	LTP295	ltpFR2	2	n/a	n/a	n/a	12	n/a	n/a	n/a	n/a
1998757	WORD	wordpools/wasnorm_wordpool_576.txt	LTP295	ltpFR2	2	10	HAWK	692	n/a	n/a	0	0	0
2001261	WORD	wordpools/wasnorm_wordpool_576.txt	LTP295	ltpFR2	2	10	ATLAS	53	n/a	n/a	0	0	0
2003879	WORD	wordpools/wasnorm_wordpool_576.txt	LTP295	ltpFR2	2	10	POWDER	1117	n/a	n/a	0	0	0
2006697	WORD	wordpools/wasnorm_wordpool_576.txt	LTP295	ltpFR2	2	10	CROWN	415	n/a	n/a	0	0	0
2009182	WORD	wordpools/wasnorm_wordpool_576.txt	LTP295	ltpFR2	2	10	THRONE	1461	n/a	n/a	0	0	0
2011634	WORD	wordpools/wasnorm_wordpool_576.txt	LTP295	ltpFR2	2	10	TOURIST	1488	n/a	n/a	0	0	0
2014288	WORD	wordpools/wasnorm_wordpool_576.txt	LTP295	ltpFR2	2	10	COOK	372	n/a	n/a	0	0	0
2016989	WORD	wordpools/wasnorm_wordpool_576.txt	LTP295	ltpFR2	2	10	SPONGE	1355	n/a	n/a	0	0	0
2019741	WORD	wordpools/wasnorm_wordpool_576.txt	LTP295	ltpFR2	2	10	GRAVEL	659	n/a	n/a	0	0	0
2022526	WORD	wordpools/wasnorm_wordpool_576.txt	LTP295	ltpFR2	2	10	PRINCE	1124	n/a	n/a	0	0	0
2025112	WORD	wordpools/wasnorm_wordpool_576.txt	LTP295	ltpFR2	2	10	SEAL	1262	n/a	n/a	0	0	0
2027597	WORD	wordpools/wasnorm_wordpool_576.txt	LTP295	ltpFR2	2	10	FINGER	567	n/a	n/a	0	0	0
2030082	WORD	wordpools/wasnorm_wordpool_576.txt	LTP295	ltpFR2	2	10	HIKER	708	n/a	n/a	0	0	0
2032535	WORD	wordpools/wasnorm_wordpool_576.txt	LTP295	ltpFR2	2	10	HUSBAND	728	n/a	n/a	0	0	0
2035120	WORD	wordpools/wasnorm_wordpool_576.txt	LTP295	ltpFR2	2	10	WARDROBE	1587	n/a	n/a	0	0	0
2037855	WORD	wordpools/wasnorm_wordpool_576.txt	LTP295	ltpFR2	2	10	PIGEON	1065	n/a	n/a	0	0	0
2040457	WORD	wordpools/wasnorm_wordpool_576.txt	LTP295	ltpFR2	2	10	SPOUSE	1358	n/a	n/a	0	0	0
2043092	WORD	wordpools/wasnorm_wordpool_576.txt	LTP295	ltpFR2	2	10	XEROX	1628	n/a	n/a	0	0	0
2045777	WORD	wordpools/wasnorm_wordpool_576.txt	LTP295	ltpFR2	2	10	MACHINE	852	n/a	n/a	0	0	0
2048364	WORD	wordpools/wasnorm_wordpool_576.txt	LTP295	ltpFR2	2	10	PALACE	1006	n/a	n/a	0	0	0
2050931	WORD	wordpools/wasnorm_wordpool_576.txt	LTP295	ltpFR2	2	10	FRIEND	606	n/a	n/a	0	0	0
2053683	WORD	wordpools/wasnorm_wordpool_576.txt	LTP295	ltpFR2	2	10	LION	827	n/a	n/a	0	0	0
2056320	WORD	wordpools/wasnorm_wordpool_576.txt	LTP295	ltpFR2	2	10	PLAID	1080	n/a	n/a	0	0	0
2058854	WORD	wordpools/wasnorm_wordpool_576.txt	LTP295	ltpFR2	2	10	REBEL	1172	n/a	n/a	0	0	0
2060461	START	n/a	LTP295	ltpFR2	2	n/a	n/a	n/a	13	n/a	n/a	n/a	n/a
2061341	DISTRACTOR	n/a	LTP295	ltpFR2	2	10	n/a	n/a	n/a	n/a	0	0	0
2061344	PROB	n/a	LTP295	ltpFR2	2	n/a	n/a	n/a	13	18	9	1	8
2063325	PROB	n/a	LTP295	ltpFR2	2	n/a	n/a	n/a	13	7	3	2	2
2065276	PROB	n/a	LTP295	ltpFR2	2	n/a	n/a	n/a	13	17	6	9	2
2067728	PROB	n/a	LTP295	ltpFR2	2	n/a	n/a	n/a	13	17	5	5	7
2069195	PROB	n/a	LTP295	ltpFR2	2	n/a	n/a	n/a	13	12	8	3	1
2071780	PROB	n/a	LTP295	ltpFR2	2	n/a	n/a	n/a	13	10	7	2	1
2073615	PROB	n/a	LTP295	ltpFR2	2	n/a	n/a	n/a	13	10	7	1	2
2075082	PROB	n/a	LTP295	ltpFR2	2	n/a	n/a	n/a	13	19	9	3	7
2077552	PROB	n/a	LTP295	ltpFR2	2	n/a	n/a	n/a	13	13	4	4	5
2080037	PROB	n/a	LTP295	ltpFR2	2	n/a	n/a	n/a	13	9	2	3	4
2082138	PROB	n/a	LTP295	ltpFR2	2	n/a	n/a	n/a	13	15	8	4	3
2083923	STOP	n/a	LTP295	ltpFR2	2	n/a	n/a	n/a	13	n/a	n/a	n/a	n/a
2086394	REC_START	n/a	LTP295	ltpFR2	2	10	n/a	n/a	n/a	n/a	0	0	0
2089269	REC_WORD	wordpools/wasnorm_wordpool_576.txt	LTP295	ltpFR2	2	10	HAWK	692	n/a	n/a	0	0	0
2090903	REC_WORD	wordpools/wasnorm_wordpool_576.txt	LTP295	ltpFR2	2	10	CROWN	415	n/a	n/a	0	0	0
2092317	REC_WORD	wordpools/wasnorm_wordpool_576.txt	LTP295	ltpFR2	2	10	THRONE	1461	n/a	n/a	0	0	0
2093439	REC_WORD	wordpools/wasnorm_wordpool_576.txt	LTP295	ltpFR2	2	10	ATLAS	53	n/a	n/a	0	0	0
2094385	REC_WORD	wordpools/wasnorm_wordpool_576.txt	LTP295	ltpFR2	2	10	POWDER	1117	n/a	n/a	0	0	0
2095712	REC_WORD	wordpools/wasnorm_wordpool_576.txt	LTP295	ltpFR2	2	10	REBEL	1172	n/a	n/a	0	0	0
2096443	REC_WORD	wordpools/wasnorm_wordpool_576.txt	LTP295	ltpFR2	2	10	LION	827	n/a	n/a	0	0	0
2097485	REC_WORD	wordpools/wasnorm_wordpool_576.txt	LTP295	ltpFR2	2	10	PLAID	1080	n/a	n/a	0	0	0
2098798	REC_WORD	wordpools/wasnorm_wordpool_576.txt	LTP295	ltpFR2	2	10	TOURIST	1488	n/a	n/a	0	0	0
2099819	REC_WORD	wordpools/wasnorm_wordpool_576.txt	LTP295	ltpFR2	2	10	HIKER	708	n/a	n/a	0	0	0
2101041	REC_WORD	wordpools/wasnorm_wordpool_576.txt	LTP295	ltpFR2	2	10	COOK	372	n/a	n/a	0	0	0
2102052	REC_WORD	wordpools/wasnorm_wordpool_576.txt	LTP295	ltpFR2	2	10	SPONGE	1355	n/a	n/a	0	0	0
2103262	REC_WORD	wordpools/wasnorm_wordpool_576.txt	LTP295	ltpFR2	2	10	HUSBAND	728	n/a	n/a	0	0	0
2107466	REC_WORD	wordpools/wasnorm_wordpool_576.txt	LTP295	ltpFR2	2	10	SPOUSE	1358	n/a	n/a	0	0	0
2108466	REC_WORD_VV	wordpools/wasnorm_wordpool_576.txt	LTP295	ltpFR2	2	10	<>	-1	n/a	n/a	0	0	0
2110514	REC_WORD	wordpools/wasnorm_wordpool_576.txt	LTP295	ltpFR2	2	10	SEAL	1262	n/a	n/a	0	0	0
2115418	REC_WORD	wordpools/wasnorm_wordpool_576.txt	LTP295	ltpFR2	2	10	FRIEND	606	n/a	n/a	0	0	0
2116700	REC_WORD	wordpools/wasnorm_wordpool_576.txt	LTP295	ltpFR2	2	10	WARDROBE	1587	n/a	n/a	0	0	0
2117647	REC_WORD	wordpools/wasnorm_wordpool_576.txt	LTP295	ltpFR2	2	10	XEROX	1628	n/a	n/a	0	0	0
2118693	REC_WORD	wordpools/wasnorm_wordpool_576.txt	LTP295	ltpFR2	2	10	MACHINE	852	n/a	n/a	0	0	0
2119971	REC_WORD	wordpools/wasnorm_wordpool_576.txt	LTP295	ltpFR2	2	10	PIGEON	1065	n/a	n/a	0	0	0
2120845	REC_WORD	wordpools/wasnorm_wordpool_576.txt	LTP295	ltpFR2	2	10	FINGER	567	n/a	n/a	0	0	0
2122541	REC_WORD	wordpools/wasnorm_wordpool_576.txt	LTP295	ltpFR2	2	10	PALACE	1006	n/a	n/a	0	0	0
2123669	REC_WORD	wordpools/wasnorm_wordpool_576.txt	LTP295	ltpFR2	2	10	GRAVEL	659	n/a	n/a	0	0	0
2158267	REC_WORD	wordpools/wasnorm_wordpool_576.txt	LTP295	ltpFR2	2	10	PRINCE	1124	n/a	n/a	0	0	0
2176806	DISTRACTOR	n/a	LTP295	ltpFR2	2	11	n/a	n/a	n/a	n/a	0	0	0
2176807	START	n/a	LTP295	ltpFR2	2	n/a	n/a	n/a	14	n/a	n/a	n/a	n/a
2176822	PROB	n/a	LTP295	ltpFR2	2	n/a	n/a	n/a	14	24	8	7	8
2181831	PROB	n/a	LTP295	ltpFR2	2	n/a	n/a	n/a	14	20	6	9	5
2184402	PROB	n/a	LTP295	ltpFR2	2	n/a	n/a	n/a	14	20	6	8	6
2186935	PROB	n/a	LTP295	ltpFR2	2	n/a	n/a	n/a	14	6	1	4	1
2188731	PROB	n/a	LTP295	ltpFR2	2	n/a	n/a	n/a	14	9	4	1	4
2190290	PROB	n/a	LTP295	ltpFR2	2	n/a	n/a	n/a	14	11	1	9	1
2192341	PROB	n/a	LTP295	ltpFR2	2	n/a	n/a	n/a	14	19	5	5	9
2193875	PROB	n/a	LTP295	ltpFR2	2	n/a	n/a	n/a	14	15	1	9	5
2195460	PROB	n/a	LTP295	ltpFR2	2	n/a	n/a	n/a	14	20	9	5	6
2197978	PROB	n/a	LTP295	ltpFR2	2	n/a	n/a	n/a	14	17	2	7	8
2200019	STOP	n/a	LTP295	ltpFR2	2	n/a	n/a	n/a	14	n/a	n/a	n/a	n/a
2201743	WORD	wordpools/wasnorm_wordpool_576.txt	LTP295	ltpFR2	2	11	MAILBOX	857	n/a	n/a	0	0	0
2204212	WORD	wordpools/wasnorm_wordpool_576.txt	LTP295	ltpFR2	2	11	COTTAGE	384	n/a	n/a	0	0	0
2207014	WORD	wordpools/wasnorm_wordpool_576.txt	LTP295	ltpFR2	2	11	BABY	64	n/a	n/a	0	0	0
2209616	WORD	wordpools/wasnorm_wordpool_576.txt	LTP295	ltpFR2	2	11	BARREL	91	n/a	n/a	0	0	0
2212403	WORD	wordpools/wasnorm_wordpool_576.txt	LTP295	ltpFR2	2	11	LONDON	843	n/a	n/a	0	0	0
2215038	WORD	wordpools/wasnorm_wordpool_576.txt	LTP295	ltpFR2	2	11	SMOG	1330	n/a	n/a	0	0	0
2217656	WORD	wordpools/wasnorm_wordpool_576.txt	LTP295	ltpFR2	2	11	PARROT	1015	n/a	n/a	0	0	0
2220091	WORD	wordpools/wasnorm_wordpool_576.txt	LTP295	ltpFR2	2	11	OINTMENT	974	n/a	n/a	0	0	0
2222610	WORD	wordpools/wasnorm_wordpool_576.txt	LTP295	ltpFR2	2	11	GIFT	635	n/a	n/a	0	0	0
2225380	WORD	wordpools/wasnorm_wordpool_576.txt	LTP295	ltpFR2	2	11	BROOK	177	n/a	n/a	0	0	0
2228198	WORD	wordpools/wasnorm_wordpool_576.txt	LTP295	ltpFR2	2	11	ISLAND	745	n/a	n/a	0	0	0
2230934	WORD	wordpools/wasnorm_wordpool_576.txt	LTP295	ltpFR2	2	11	SNACK	1331	n/a	n/a	0	0	0
2233454	WORD	wordpools/wasnorm_wordpool_576.txt	LTP295	ltpFR2	2	11	PEPPER	1047	n/a	n/a	0	0	0
2236172	WORD	wordpools/wasnorm_wordpool_576.txt	LTP295	ltpFR2	2	11	CRIB	407	n/a	n/a	0	0	0
2238757	WORD	wordpools/wasnorm_wordpool_576.txt	LTP295	ltpFR2	2	11	LAMP	798	n/a	n/a	0	0	0
2241277	WORD	wordpools/wasnorm_wordpool_576.txt	LTP295	ltpFR2	2	11	BURGLAR	200	n/a	n/a	0	0	0
2244112	WORD	wordpools/wasnorm_wordpool_576.txt	LTP295	ltpFR2	2	11	FRAGRANCE	599	n/a	n/a	0	0	0
2246798	WORD	wordpools/wasnorm_wordpool_576.txt	LTP295	ltpFR2	2	11	JAPAN	749	n/a	n/a	0	0	0
2249400	WORD	wordpools/wasnorm_wordpool_576.txt	LTP295	ltpFR2	2	11	SHERIFF	1284	n/a	n/a	0	0	0
2251984	WORD	wordpools/wasnorm_wordpool_576.txt	LTP295	ltpFR2	2	11	SHIRT	1287	n/a	n/a	0	0	0
2254804	WORD	wordpools/wasnorm_wordpool_576.txt	LTP295	ltpFR2	2	11	GARLIC	624	n/a	n/a	0	0	0
2257273	WORD	wordpools/wasnorm_wordpool_576.txt	LTP295	ltpFR2	2	11	DORM	488	n/a	n/a	0	0	0
2259774	WORD	wordpools/wasnorm_wordpool_576.txt	LTP295	ltpFR2	2	11	COD	340	n/a	n/a	0	0	0
2262310	WORD	wordpools/wasnorm_wordpool_576.txt	LTP295	ltpFR2	2	11	TROUT	1511	n/a	n/a	0	0	0
2263927	START	n/a	LTP295	ltpFR2	2	n/a	n/a	n/a	15	n/a	n/a	n/a	n/a
2264930	DISTRACTOR	n/a	LTP295	ltpFR2	2	11	n/a	n/a	n/a	n/a	0	0	0
2264945	PROB	n/a	LTP295	ltpFR2	2	n/a	n/a	n/a	15	23	9	7	7
2268147	PROB	n/a	LTP295	ltpFR2	2	n/a	n/a	n/a	15	11	1	2	8
2269999	PROB	n/a	LTP295	ltpFR2	2	n/a	n/a	n/a	15	16	7	7	2
2271849	PROB	n/a	LTP295	ltpFR2	2	n/a	n/a	n/a	15	13	3	8	2
2274536	PROB	n/a	LTP295	ltpFR2	2	n/a	n/a	n/a	15	8	1	6	1
2275885	PROB	n/a	LTP295	ltpFR2	2	n/a	n/a	n/a	15	11	3	3	5
2277737	PROB	n/a	LTP295	ltpFR2	2	n/a	n/a	n/a	15	13	1	4	8
2279654	PROB	n/a	LTP295	ltpFR2	2	n/a	n/a	n/a	15	13	4	7	4
2283474	PROB	n/a	LTP295	ltpFR2	2	n/a	n/a	n/a	15	11	6	3	2
2287927	STOP	n/a	LTP295	ltpFR2	2	n/a	n/a	n/a	15	n/a	n/a	n/a	n/a
2289764	REC_START	n/a	LTP295	ltpFR2	2	11	n/a	n/a	n/a	n/a	0	0	0
2291741	REC_WORD	wordpools/wasnorm_wordpool_576.txt	LTP295	ltpFR2	2	11	COD	340	n/a	n/a	0	0	0
2292647	REC_WORD	wordpools/wasnorm_wordpool_576.txt	LTP295	ltpFR2	2	11	TROUT	1511	n/a	n/a	0	0	0
2293465	REC_WORD	wordpools/wasnorm_wordpool_576.txt	LTP295	ltpFR2	2	11	SHERIFF	1284	n/a	n/a	0	0	0
2294642	REC_WORD	wordpools/wasnorm_wordpool_576.txt	LTP295	ltpFR2	2	11	BURGLAR	200	n/a	n/a	0	0	0
2295496	REC_WORD	wordpools/wasnorm_wordpool_576.txt	LTP295	ltpFR2	2	11	COTTAGE	384	n/a	n/a	0	0	0
2296472	REC_WORD	wordpools/wasnorm_wordpool_576.txt	LTP295	ltpFR2	2	11	ISLAND	745	n/a	n/a	0	0	0
2297335	REC_WORD	wordpools/wasnorm_wordpool_576.txt	LTP295	ltpFR2	2	11	BROOK	177	n/a	n/a	0	0	0
2298155	REC_WORD	wordpools/wasnorm_wordpool_576.txt	LTP295	ltpFR2	2	11	LAMP	798	n/a	n/a	0	0	0
2299037	REC_WORD	wordpools/wasnorm_wordpool_576.txt	LTP295	ltpFR2	2	11	FRAGRANCE	599	n/a	n/a	0	0	0
2300037	REC_WORD_VV	wordpools/wasnorm_wordpool_576.txt	LTP295	ltpFR2	2	11	<>	-1	n/a	n/a	0	0	0
2300469	REC_WORD	wordpools/wasnorm_wordpool_576.txt	LTP295	ltpFR2	2	11	CRIB	407	n/a	n/a	0	0	0
2302351	REC_WORD	wordpools/wasnorm_wordpool_576.txt	LTP295	ltpFR2	2	11	MAILBOX	857	n/a	n/a	0	0	0
2303954	REC_WORD	wordpools/wasnorm_wordpool_576.txt	LTP295	ltpFR2	2	11	BARREL	91	n/a	n/a	0	0	0
2305457	REC_WORD	wordpools/wasnorm_wordpool_576.txt	LTP295	ltpFR2	2	11	PARROT	1015	n/a	n/a	0	0	0
2306350	REC_WORD	wordpools/wasnorm_wordpool_576.txt	LTP295	ltpFR2	2	11	OINTMENT	974	n/a	n/a	0	0	0
2307264	REC_WORD	wordpools/wasnorm_wordpool_576.txt	LTP295	ltpFR2	2	11	BABY	64	n/a	n/a	0	0	0
2308465	REC_WORD	wordpools/wasnorm_wordpool_576.txt	LTP295	ltpFR2	2	11	GIFT	635	n/a	n/a	0	0	0
2309162	REC_WORD	wordpools/wasnorm_wordpool_576.txt	LTP295	ltpFR2	2	11	SNACK	1331	n/a	n/a	0	0	0
2310376	REC_WORD	wordpools/wasnorm_wordpool_576.txt	LTP295	ltpFR2	2	11	PEPPER	1047	n/a	n/a	0	0	0
2311410	REC_WORD	wordpools/wasnorm_wordpool_576.txt	LTP295	ltpFR2	2	11	GARLIC	624	n/a	n/a	0	0	0
2341575	REC_WORD	wordpools/wasnorm_wordpool_576.txt	LTP295	ltpFR2	2	11	BURGLAR	200	n/a	n/a	0	0	0
2357399	REC_WORD	wordpools/wasnorm_wordpool_576.txt	LTP295	ltpFR2	2	11	LONDON	843	n/a	n/a	0	0	0
2358183	REC_WORD	wordpools/wasnorm_wordpool_576.txt	LTP295	ltpFR2	2	11	SMOG	1330	n/a	n/a	0	0	0
2359104	REC_WORD	wordpools/wasnorm_wordpool_576.txt	LTP295	ltpFR2	2	11	JAPAN	749	n/a	n/a	0	0	0
2380199	WORD	wordpools/wasnorm_wordpool_576.txt	LTP295	ltpFR2	2	12	PEANUT	1032	n/a	n/a	0	0	0
2383001	WORD	wordpools/wasnorm_wordpool_576.txt	LTP295	ltpFR2	2	12	TOASTER	1472	n/a	n/a	0	0	0
2385420	WORD	wordpools/wasnorm_wordpool_576.txt	LTP295	ltpFR2	2	12	SNAIL	1332	n/a	n/a	0	0	0
2388148	WORD	wordpools/wasnorm_wordpool_576.txt	LTP295	ltpFR2	2	12	SCARF	1246	n/a	n/a	0	0	0
2390883	WORD	wordpools/wasnorm_wordpool_576.txt	LTP295	ltpFR2	2	12	COLLEGE	346	n/a	n/a	0	0	0
2393303	WORD	wordpools/wasnorm_wordpool_576.txt	LTP295	ltpFR2	2	12	TART	1436	n/a	n/a	0	0	0
2395904	WORD	wordpools/wasnorm_wordpool_576.txt	LTP295	ltpFR2	2	12	PASTA	1021	n/a	n/a	0	0	0
2398696	WORD	wordpools/wasnorm_wordpool_576.txt	LTP295	ltpFR2	2	12	TRIBE	1505	n/a	n/a	0	0	0
2401360	WORD	wordpools/wasnorm_wordpool_576.txt	LTP295	ltpFR2	2	12	STAPLE	1371	n/a	n/a	0	0	0
2404033	WORD	wordpools/wasnorm_wordpool_576.txt	LTP295	ltpFR2	2	12	SURVEY	1414	n/a	n/a	0	0	0
2406614	WORD	wordpools/wasnorm_wordpool_576.txt	LTP295	ltpFR2	2	12	SHELF	1280	n/a	n/a	0	0	0
2409133	WORD	wordpools/wasnorm_wordpool_576.txt	LTP295	ltpFR2	2	12	TORTOISE	1486	n/a	n/a	0	0	0
2411935	WORD	wordpools/wasnorm_wordpool_576.txt	LTP295	ltpFR2	2	12	MATTRESS	879	n/a	n/a	0	0	0
2414588	WORD	wordpools/wasnorm_wordpool_576.txt	LTP295	ltpFR2	2	12	SLUG	1329	n/a	n/a	0	0	0
2417205	WORD	wordpools/wasnorm_wordpool_576.txt	LTP295	ltpFR2	2	12	BLADE	134	n/a	n/a	0	0	0
2419962	WORD	wordpools/wasnorm_wordpool_576.txt	LTP295	ltpFR2	2	12	RUG	1215	n/a	n/a	0	0	0
2422649	WORD	wordpools/wasnorm_wordpool_576.txt	LTP295	ltpFR2	2	12	BRIEFCASE	175	n/a	n/a	0	0	0
2425264	WORD	wordpools/wasnorm_wordpool_576.txt	LTP295	ltpFR2	2	12	TEACHER	1440	n/a	n/a	0	0	0
2427764	WORD	wordpools/wasnorm_wordpool_576.txt	LTP295	ltpFR2	2	12	CRUTCH	417	n/a	n/a	0	0	0
2430384	WORD	wordpools/wasnorm_wordpool_576.txt	LTP295	ltpFR2	2	12	LEG	809	n/a	n/a	0	0	0
2433053	WORD	wordpools/wasnorm_wordpool_576.txt	LTP295	ltpFR2	2	12	LIGHTNING	820	n/a	n/a	0	0	0
2435704	WORD	wordpools/wasnorm_wordpool_576.txt	LTP295	ltpFR2	2	12	BROTHER	179	n/a	n/a	0	0	0
2438358	WORD	wordpools/wasnorm_wordpool_576.txt	LTP295	ltpFR2	2	12	HEART	697	n/a	n/a	0	0	0
2441092	WORD	wordpools/wasnorm_wordpool_576.txt	LTP295	ltpFR2	2	12	LIVER	833	n/a	n/a	0	0	0
2442697	START	n/a	LTP295	ltpFR2	2	n/a	n/a	n/a	16	n/a	n/a	n/a	n/a
2443700	DISTRACTOR	n/a	LTP295	ltpFR2	2	12	n/a	n/a	n/a	n/a	0	0	0
2443711	PROB	n/a	LTP295	ltpFR2	2	n/a	n/a	n/a	16	12	5	4	3
2446334	PROB	n/a	LTP295	ltpFR2	2	n/a	n/a	n/a	16	10	4	4	2
2448249	PROB	n/a	LTP295	ltpFR2	2	n/a	n/a	n/a	16	15	8	1	6
2451135	PROB	n/a	LTP295	ltpFR2	2	n/a	n/a	n/a	16	11	3	3	5
2453669	PROB	n/a	LTP295	ltpFR2	2	n/a	n/a	n/a	16	16	8	4	2
2455654	PROB	n/a	LTP295	ltpFR2	2	n/a	n/a	n/a	16	17	2	7	8
2459175	PROB	n/a	LTP295	ltpFR2	2	n/a	n/a	n/a	16	5	1	2	2
2460508	PROB	n/a	LTP295	ltpFR2	2	n/a	n/a	n/a	16	16	2	6	8
2462310	PROB	n/a	LTP295	ltpFR2	2	n/a	n/a	n/a	16	19	6	7	6
2464397	PROB	n/a	LTP295	ltpFR2	2	n/a	n/a	n/a	16	8	1	3	4
2466123	STOP	n/a	LTP295	ltpFR2	2	n/a	n/a	n/a	16	n/a	n/a	n/a	n/a
2468598	REC_START	n/a	LTP295	ltpFR2	2	12	n/a	n/a	n/a	n/a	0	0	0
2471092	REC_WORD	wordpools/wasnorm_wordpool_576.txt	LTP295	ltpFR2	2	12	MATTRESS	879	n/a	n/a	0	0	0
2472199	REC_WORD	wordpools/wasnorm_wordpool_576.txt	LTP295	ltpFR2	2	12	RUG	1215	n/a	n/a	0	0	0
2473361	REC_WORD	wordpools/wasnorm_wordpool_576.txt	LTP295	ltpFR2	2	12	BLADE	134	n/a	n/a	0	0	0
2474308	REC_WORD	wordpools/wasnorm_wordpool_576.txt	LTP295	ltpFR2	2	12	TURTLE	1522	n/a	n/a	0	0	0
2475525	REC_WORD	wordpools/wasnorm_wordpool_576.txt	LTP295	ltpFR2	2	12	TEACHER	1440	n/a	n/a	0	0	0
2476413	REC_WORD	wordpools/wasnorm_wordpool_576.txt	LTP295	ltpFR2	2	12	HEART	697	n/a	n/a	0	0	0
2477403	REC_WORD	wordpools/wasnorm_wordpool_576.txt	LTP295	ltpFR2	2	12	LIVER	833	n/a	n/a	0	0	0
2478368	REC_WORD	wordpools/wasnorm_wordpool_576.txt	LTP295	ltpFR2	2	12	CRUTCH	417	n/a	n/a	0	0	0
2479689	REC_WORD	wordpools/wasnorm_wordpool_576.txt	LTP295	ltpFR2	2	12	LEG	809	n/a	n/a	0	0	0
2482814	REC_WORD	wordpools/wasnorm_wordpool_576.txt	LTP295	ltpFR2	2	12	BRIEFCASE	175	n/a	n/a	0	0	0
2485264	REC_WORD	wordpools/wasnorm_wordpool_576.txt	LTP295	ltpFR2	2	12	PEANUT	1032	n/a	n/a	0	0	0
2486017	REC_WORD	wordpools/wasnorm_wordpool_576.txt	LTP295	ltpFR2	2	12	SCARF	1246	n/a	n/a	0	0	0
2486986	REC_WORD	wordpools/wasnorm_wordpool_576.txt	LTP295	ltpFR2	2	12	SURVEY	1414	n/a	n/a	0	0	0
2488158	REC_WORD	wordpools/wasnorm_wordpool_576.txt	LTP295	ltpFR2	2	12	TOASTER	1472	n/a	n/a	0	0	0
2489226	REC_WORD	wordpools/wasnorm_wordpool_576.txt	LTP295	ltpFR2	2	12	COLLEGE	346	n/a	n/a	0	0	0
2490185	REC_WORD	wordpools/wasnorm_wordpool_576.txt	LTP295	ltpFR2	2	12	PASTA	1021	n/a	n/a	0	0	0
2491279	REC_WORD	wordpools/wasnorm_wordpool_576.txt	LTP295	ltpFR2	2	12	TART	1436	n/a	n/a	0	0	0
2492090	REC_WORD	wordpools/wasnorm_wordpool_576.txt	LTP295	ltpFR2	2	12	SLUG	1329	n/a	n/a	0	0	0
2493110	REC_WORD	wordpools/wasnorm_wordpool_576.txt	LTP295	ltpFR2	2	12	SNAIL	1332	n/a	n/a	0	0	0
2495698	REC_WORD	wordpools/wasnorm_wordpool_576.txt	LTP295	ltpFR2	2	12	BROTHER	179	n/a	n/a	0	0	0
2510228	REC_WORD	wordpools/wasnorm_wordpool_576.txt	LTP295	ltpFR2	2	12	COLLEGE	346	n/a	n/a	0	0	0
2511228	REC_WORD_VV	wordpools/wasnorm_wordpool_576.txt	LTP295	ltpFR2	2	12	<>	-1	n/a	n/a	0	0	0
2522000	REC_WORD	wordpools/wasnorm_wordpool_576.txt	LTP295	ltpFR2	2	12	TRIBE	1505	n/a	n/a	0	0	0
2526424	REC_WORD	wordpools/wasnorm_wordpool_576.txt	LTP295	ltpFR2	2	12	SHELF	1280	n/a	n/a	0	0	0
2534747	REC_WORD	wordpools/wasnorm_wordpool_576.txt	LTP295	ltpFR2	2	12	LIGHTNING	820	n/a	n/a	0	0	0
2542100	REC_WORD	wordpools/wasnorm_wordpool_576.txt	LTP295	ltpFR2	2	12	STAPLE	1371	n/a	n/a	0	0	0
2559035	WORD	wordpools/wasnorm_wordpool_576.txt	LTP295	ltpFR2	2	13	COUSIN	392	n/a	n/a	0	0	0
2561620	WORD	wordpools/wasnorm_wordpool_576.txt	LTP295	ltpFR2	2	13	UNCLE	1536	n/a	n/a	0	0	0
2564407	WORD	wordpools/wasnorm_wordpool_576.txt	LTP295	ltpFR2	2	13	GREASE	660	n/a	n/a	0	0	0
2567041	WORD	wordpools/wasnorm_wordpool_576.txt	LTP295	ltpFR2	2	13	GYMNAST	675	n/a	n/a	0	0	0
2569510	WORD	wordpools/wasnorm_wordpool_576.txt	LTP295	ltpFR2	2	13	HOOD	714	n/a	n/a	0	0	0
2571928	WORD	wordpools/wasnorm_wordpool_576.txt	LTP295	ltpFR2	2	13	PATROL	1027	n/a	n/a	0	0	0
2574630	WORD	wordpools/wasnorm_wordpool_576.txt	LTP295	ltpFR2	2	13	STOMACH	1384	n/a	n/a	0	0	0
2577406	WORD	wordpools/wasnorm_wordpool_576.txt	LTP295	ltpFR2	2	13	EAGLE	512	n/a	n/a	0	0	0
2580057	WORD	wordpools/wasnorm_wordpool_576.txt	LTP295	ltpFR2	2	13	SUMMIT	1405	n/a	n/a	0	0	0
2582786	WORD	wordpools/wasnorm_wordpool_576.txt	LTP295	ltpFR2	2	13	GARBAGE	622	n/a	n/a	0	0	0
2585523	WORD	wordpools/wasnorm_wordpool_576.txt	LTP295	ltpFR2	2	13	PENGUIN	1044	n/a	n/a	0	0	0
2587957	WORD	wordpools/wasnorm_wordpool_576.txt	LTP295	ltpFR2	2	13	KLEENEX	782	n/a	n/a	0	0	0
2590592	WORD	wordpools/wasnorm_wordpool_576.txt	LTP295	ltpFR2	2	13	VIKING	1565	n/a	n/a	0	0	0
2593387	WORD	wordpools/wasnorm_wordpool_576.txt	LTP295	ltpFR2	2	13	CLOUD	328	n/a	n/a	0	0	0
2595972	WORD	wordpools/wasnorm_wordpool_576.txt	LTP295	ltpFR2	2	13	PISTON	1076	n/a	n/a	0	0	0
2598582	WORD	wordpools/wasnorm_wordpool_576.txt	LTP295	ltpFR2	2	13	BELLY	119	n/a	n/a	0	0	0
2601100	WORD	wordpools/wasnorm_wordpool_576.txt	LTP295	ltpFR2	2	13	STAR	1373	n/a	n/a	0	0	0
2603686	WORD	wordpools/wasnorm_wordpool_576.txt	LTP295	ltpFR2	2	13	MOTOR	922	n/a	n/a	0	0	0
2606488	WORD	wordpools/wasnorm_wordpool_576.txt	LTP295	ltpFR2	2	13	COBRA	336	n/a	n/a	0	0	0
2609283	WORD	wordpools/wasnorm_wordpool_576.txt	LTP295	ltpFR2	2	13	SPHINX	1349	n/a	n/a	0	0	0
2612051	WORD	wordpools/wasnorm_wordpool_576.txt	LTP295	ltpFR2	2	13	TEMPLE	1448	n/a	n/a	0	0	0
2614728	WORD	wordpools/wasnorm_wordpool_576.txt	LTP295	ltpFR2	2	13	MARS	873	n/a	n/a	0	0	0
2617447	WORD	wordpools/wasnorm_wordpool_576.txt	LTP295	ltpFR2	2	13	ROBBER	1197	n/a	n/a	0	0	0
2620241	WORD	wordpools/wasnorm_wordpool_576.txt	LTP295	ltpFR2	2	13	COUNTRY	388	n/a	n/a	0	0	0
2621851	START	n/a	LTP295	ltpFR2	2	n/a	n/a	n/a	17	n/a	n/a	n/a	n/a
2623027	DISTRACTOR	n/a	LTP295	ltpFR2	2	13	n/a	n/a	n/a	n/a	0	0	0
2623035	PROB	n/a	LTP295	ltpFR2	2	n/a	n/a	n/a	17	18	2	8	8
2625052	PROB	n/a	LTP295	ltpFR2	2	n/a	n/a	n/a	17	16	6	1	9
2628154	PROB	n/a	LTP295	ltpFR2	2	n/a	n/a	n/a	17	11	6	2	3
2630239	PROB	n/a	LTP295	ltpFR2	2	n/a	n/a	n/a	17	16	4	5	7
2633241	PROB	n/a	LTP295	ltpFR2	2	n/a	n/a	n/a	17	20	8	5	7
2635560	PROB	n/a	LTP295	ltpFR2	2	n/a	n/a	n/a	17	18	9	2	7
2637612	PROB	n/a	LTP295	ltpFR2	2	n/a	n/a	n/a	17	13	1	4	8
2641814	PROB	n/a	LTP295	ltpFR2	2	n/a	n/a	n/a	17	17	7	4	6
2645035	STOP	n/a	LTP295	ltpFR2	2	n/a	n/a	n/a	17	n/a	n/a	n/a	n/a
2647754	REC_START	n/a	LTP295	ltpFR2	2	13	n/a	n/a	n/a	n/a	0	0	0
2650404	REC_WORD	wordpools/wasnorm_wordpool_576.txt	LTP295	ltpFR2	2	13	COUSIN	392	n/a	n/a	0	0	0
2651326	REC_WORD	wordpools/wasnorm_wordpool_576.txt	LTP295	ltpFR2	2	13	UNCLE	1536	n/a	n/a	0	0	0
2652218	REC_WORD	wordpools/wasnorm_wordpool_576.txt	LTP295	ltpFR2	2	13	GREASE	660	n/a	n/a	0	0	0
2653275	REC_WORD	wordpools/wasnorm_wordpool_576.txt	LTP295	ltpFR2	2	13	GYMNAST	675	n/a	n/a	0	0	0
2654581	REC_WORD	wordpools/wasnorm_wordpool_576.txt	LTP295	ltpFR2	2	13	PATROL	1027	n/a	n/a	0	0	0
2657712	REC_WORD	wordpools/wasnorm_wordpool_576.txt	LTP295	ltpFR2	2	13	COBRA	336	n/a	n/a	0	0	0
2658588	REC_WORD	wordpools/wasnorm_wordpool_576.txt	LTP295	ltpFR2	2	13	SPHINX	1349	n/a	n/a	0	0	0
2659732	REC_WORD	wordpools/wasnorm_wordpool_576.txt	LTP295	ltpFR2	2	13	TEMPLE	1448	n/a	n/a	0	0	0
2660795	REC_WORD	wordpools/wasnorm_wordpool_576.txt	LTP295	ltpFR2	2	13	MARS	873	n/a	n/a	0	0	0
2661825	REC_WORD	wordpools/wasnorm_wordpool_576.txt	LTP295	ltpFR2	2	13	ROBBER	1197	n/a	n/a	0	0	0
2664268	REC_WORD	wordpools/wasnorm_wordpool_576.txt	LTP295	ltpFR2	2	13	PENGUIN	1044	n/a	n/a	0	0	0
2665134	REC_WORD	wordpools/wasnorm_wordpool_576.txt	LTP295	ltpFR2	2	13	STAR	1373	n/a	n/a	0	0	0
2666462	REC_WORD	wordpools/wasnorm_wordpool_576.txt	LTP295	ltpFR2	2	13	BELLY	119	n/a	n/a	0	0	0
2668438	REC_WORD	wordpools/wasnorm_wordpool_576.txt	LTP295	ltpFR2	2	13	ENGINE	535	n/a	n/a	0	0	0
2670499	REC_WORD	wordpools/wasnorm_wordpool_576.txt	LTP295	ltpFR2	2	13	PISTON	1076	n/a	n/a	0	0	0
2673790	REC_WORD	wordpools/wasnorm_wordpool_576.txt	LTP295	ltpFR2	2	13	CLOUD	328	n/a	n/a	0	0	0
2676050	REC_WORD	wordpools/wasnorm_wordpool_576.txt	LTP295	ltpFR2	2	13	HOOD	714	n/a	n/a	0	0	0
2738206	DISTRACTOR	n/a	LTP295	ltpFR2	2	14	n/a	n/a	n/a	n/a	0	0	0
2738206	START	n/a	LTP295	ltpFR2	2	n/a	n/a	n/a	18	n/a	n/a	n/a	n/a
2738221	PROB	n/a	LTP295	ltpFR2	2	n/a	n/a	n/a	18	17	1	7	9
2741090	PROB	n/a	LTP295	ltpFR2	2	n/a	n/a	n/a	18	8	6	1	1
2742493	PROB	n/a	LTP295	ltpFR2	2	n/a	n/a	n/a	18	13	1	9	3
2744328	PROB	n/a	LTP295	ltpFR2	2	n/a	n/a	n/a	18	17	3	5	9
2746677	PROB	n/a	LTP295	ltpFR2	2	n/a	n/a	n/a	18	19	9	1	9
2748614	PROB	n/a	LTP295	ltpFR2	2	n/a	n/a	n/a	18	5	2	2	1
2750415	PROB	n/a	LTP295	ltpFR2	2	n/a	n/a	n/a	18	14	1	7	6
2753065	PROB	n/a	LTP295	ltpFR2	2	n/a	n/a	n/a	18	18	4	6	8
2754852	PROB	n/a	LTP295	ltpFR2	2	n/a	n/a	n/a	18	16	5	8	3
2757653	PROB	n/a	LTP295	ltpFR2	2	n/a	n/a	n/a	18	16	2	7	7
2762206	STOP	n/a	LTP295	ltpFR2	2	n/a	n/a	n/a	18	n/a	n/a	n/a	n/a
2763392	WORD	wordpools/wasnorm_wordpool_576.txt	LTP295	ltpFR2	2	14	RIVER	1194	n/a	n/a	0	0	0
2765812	WORD	wordpools/wasnorm_wordpool_576.txt	LTP295	ltpFR2	2	14	SWAMP	1416	n/a	n/a	0	0	0
2768528	WORD	wordpools/wasnorm_wordpool_576.txt	LTP295	ltpFR2	2	14	TWEEZERS	1526	n/a	n/a	0	0	0
2771234	WORD	wordpools/wasnorm_wordpool_576.txt	LTP295	ltpFR2	2	14	SHORTCAKE	1292	n/a	n/a	0	0	0
2774017	WORD	wordpools/wasnorm_wordpool_576.txt	LTP295	ltpFR2	2	14	WRIST	1626	n/a	n/a	0	0	0
2776738	WORD	wordpools/wasnorm_wordpool_576.txt	LTP295	ltpFR2	2	14	JOURNAL	760	n/a	n/a	0	0	0
2779371	WORD	wordpools/wasnorm_wordpool_576.txt	LTP295	ltpFR2	2	14	AUTHOR	61	n/a	n/a	0	0	0
2782005	WORD	wordpools/wasnorm_wordpool_576.txt	LTP295	ltpFR2	2	14	LAVA	804	n/a	n/a	0	0	0
2784778	WORD	wordpools/wasnorm_wordpool_576.txt	LTP295	ltpFR2	2	14	SLOPE	1328	n/a	n/a	0	0	0
2787260	WORD	wordpools/wasnorm_wordpool_576.txt	LTP295	ltpFR2	2	14	LODGE	839	n/a	n/a	0	0	0
2789845	WORD	wordpools/wasnorm_wordpool_576.txt	LTP295	ltpFR2	2	14	LAKE	796	n/a	n/a	0	0	0
2792518	WORD	wordpools/wasnorm_wordpool_576.txt	LTP295	ltpFR2	2	14	RABBIT	1152	n/a	n/a	0	0	0
2795003	WORD	wordpools/wasnorm_wordpool_576.txt	LTP295	ltpFR2	2	14	APRON	35	n/a	n/a	0	0	0
2797522	WORD	wordpools/wasnorm_wordpool_576.txt	LTP295	ltpFR2	2	14	SUPPER	1411	n/a	n/a	0	0	0
2799940	WORD	wordpools/wasnorm_wordpool_576.txt	LTP295	ltpFR2	2	14	CARROT	249	n/a	n/a	0	0	0
2802709	WORD	wordpools/wasnorm_wordpool_576.txt	LTP295	ltpFR2	2	14	ICING	732	n/a	n/a	0	0	0
2805490	WORD	wordpools/wasnorm_wordpool_576.txt	LTP295	ltpFR2	2	14	PUPIL	1143	n/a	n/a	0	0	0
2808175	WORD	wordpools/wasnorm_wordpool_576.txt	LTP295	ltpFR2	2	14	TRANSPLANT	1496	n/a	n/a	0	0	0
2810900	WORD	wordpools/wasnorm_wordpool_576.txt	LTP295	ltpFR2	2	14	CHAMPAGNE	278	n/a	n/a	0	0	0
2813420	WORD	wordpools/wasnorm_wordpool_576.txt	LTP295	ltpFR2	2	14	SPOON	1357	n/a	n/a	0	0	0
2816049	WORD	wordpools/wasnorm_wordpool_576.txt	LTP295	ltpFR2	2	14	CRATER	400	n/a	n/a	0	0	0
2818666	WORD	wordpools/wasnorm_wordpool_576.txt	LTP295	ltpFR2	2	14	FLESH	579	n/a	n/a	0	0	0
2821336	WORD	wordpools/wasnorm_wordpool_576.txt	LTP295	ltpFR2	2	14	HIGHWAY	707	n/a	n/a	0	0	0
2823753	WORD	wordpools/wasnorm_wordpool_576.txt	LTP295	ltpFR2	2	14	DRAWING	494	n/a	n/a	0	0	0
2825356	START	n/a	LTP295	ltpFR2	2	n/a	n/a	n/a	19	n/a	n/a	n/a	n/a
2826327	DISTRACTOR	n/a	LTP295	ltpFR2	2	14	n/a	n/a	n/a	n/a	0	0	0
2826330	PROB	n/a	LTP295	ltpFR2	2	n/a	n/a	n/a	19	20	8	7	5
2829392	PROB	n/a	LTP295	ltpFR2	2	n/a	n/a	n/a	19	17	6	6	5
2831175	PROB	n/a	LTP295	ltpFR2	2	n/a	n/a	n/a	19	12	9	2	1
2832976	PROB	n/a	LTP295	ltpFR2	2	n/a	n/a	n/a	19	8	1	2	5
2834546	PROB	n/a	LTP295	ltpFR2	2	n/a	n/a	n/a	19	15	2	7	6
2837697	PROB	n/a	LTP295	ltpFR2	2	n/a	n/a	n/a	19	10	6	3	1
2839198	PROB	n/a	LTP295	ltpFR2	2	n/a	n/a	n/a	19	19	2	9	8
2841367	PROB	n/a	LTP295	ltpFR2	2	n/a	n/a	n/a	19	23	8	9	5
2844587	PROB	n/a	LTP295	ltpFR2	2	n/a	n/a	n/a	19	20	8	5	7
2847891	STOP	n/a	LTP295	ltpFR2	2	n/a	n/a	n/a	19	n/a	n/a	n/a	n/a
2851092	REC_START	n/a	LTP295	ltpFR2	2	14	n/a	n/a	n/a	n/a	0	0	0
2853868	REC_WORD	wordpools/wasnorm_wordpool_576.txt	LTP295	ltpFR2	2	14	LAVA	804	n/a	n/a	0	0	0
2854728	REC_WORD	wordpools/wasnorm_wordpool_576.txt	LTP295	ltpFR2	2	14	RIVER	1194	n/a	n/a	0	0	0
2855480	REC_WORD	wordpools/wasnorm_wordpool_576.txt	LTP295	ltpFR2	2	14	HIGHWAY	707	n/a	n/a	0	0	0
2856427	REC_WORD	wordpools/wasnorm_wordpool_576.txt	LTP295	ltpFR2	2	14	SWAMP	1416	n/a	n/a	0	0	0
2857458	REC_WORD	wordpools/wasnorm_wordpool_576.txt	LTP295	ltpFR2	2	14	LAKE	796	n/a	n/a	0	0	0
2858420	REC_WORD	wordpools/wasnorm_wordpool_576.txt	LTP295	ltpFR2	2	14	CRATER	400	n/a	n/a	0	0	0
2860562	REC_WORD	wordpools/wasnorm_wordpool_576.txt	LTP295	ltpFR2	2	14	TWEEZERS	1526	n/a	n/a	0	0	0
2861562	REC_WORD_VV	wordpools/wasnorm_wordpool_576.txt	LTP295	ltpFR2	2	14	<>	-1	n/a	n/a	0	0	0
2861722	REC_WORD	wordpools/wasnorm_wordpool_576.txt	LTP295	ltpFR2	2	14	SHORTCAKE	1292	n/a	n/a	0	0	0
2862722	REC_WORD_VV	wordpools/wasnorm_wordpool_576.txt	LTP295	ltpFR2	2	14	<>	-1	n/a	n/a	0	0	0
2863153	REC_WORD	wordpools/wasnorm_wordpool_576.txt	LTP295	ltpFR2	2	14	JOURNAL	760	n/a	n/a	0	0	0
2863972	REC_WORD	wordpools/wasnorm_wordpool_576.txt	LTP295	ltpFR2	2	14	AUTHOR	61	n/a	n/a	0	0	0
2864826	REC_WORD	wordpools/wasnorm_wordpool_576.txt	LTP295	ltpFR2	2	14	WRIST	1626	n/a	n/a	0	0	0
2865561	REC_WORD	wordpools/wasnorm_wordpool_576.txt	LTP295	ltpFR2	2	14	DRAWING	494	n/a	n/a	0	0	0
2866283	REC_WORD	wordpools/wasnorm_wordpool_576.txt	LTP295	ltpFR2	2	14	RABBIT	1152	n/a	n/a	0	0	0
2867127	REC_WORD	wordpools/wasnorm_wordpool_576.txt	LTP295	ltpFR2	2	14	APRON	35	n/a	n/a	0	0	0
2867936	REC_WORD	wordpools/wasnorm_wordpool_576.txt	LTP295	ltpFR2	2	14	CARROT	249	n/a	n/a	0	0	0
2869264	REC_WORD	wordpools/wasnorm_wordpool_576.txt	LTP295	ltpFR2	2	14	ICING	732	n/a	n/a	0	0	0
2872117	REC_WORD	wordpools/wasnorm_wordpool_576.txt	LTP295	ltpFR2	2	14	SPOON	1357	n/a	n/a	0	0	0
2872926	REC_WORD	wordpools/wasnorm_wordpool_576.txt	LTP295	ltpFR2	2	14	CHAMPAGNE	278	n/a	n/a	0	0	0
2873926	REC_WORD_VV	wordpools/wasnorm_wordpool_576.txt	LTP295	ltpFR2	2	14	<>	-1	n/a	n/a	0	0	0
2876230	REC_WORD	wordpools/wasnorm_wordpool_576.txt	LTP295	ltpFR2	2	14	LODGE	839	n/a	n/a	0	0	0
2888372	REC_WORD	wordpools/wasnorm_wordpool_576.txt	LTP295	ltpFR2	2	14	SUPPER	1411	n/a	n/a	0	0	0
2891475	REC_WORD	wordpools/wasnorm_wordpool_576.txt	LTP295	ltpFR2	2	14	PUPIL	1143	n/a	n/a	0	0	0
2892268	REC_WORD	wordpools/wasnorm_wordpool_576.txt	LTP295	ltpFR2	2	14	FLESH	579	n/a	n/a	0	0	0
2893331	REC_WORD	wordpools/wasnorm_wordpool_576.txt	LTP295	ltpFR2	2	14	TRANSPLANT	1496	n/a	n/a	0	0	0
2894331	REC_WORD_VV	wordpools/wasnorm_wordpool_576.txt	LTP295	ltpFR2	2	14	<>	-1	n/a	n/a	0	0	0
2941525	DISTRACTOR	n/a	LTP295	ltpFR2	2	15	n/a	n/a	n/a	n/a	0	0	0
2941526	START	n/a	LTP295	ltpFR2	2	n/a	n/a	n/a	20	n/a	n/a	n/a	n/a
2941542	PROB	n/a	LTP295	ltpFR2	2	n/a	n/a	n/a	20	17	9	5	3
2944130	PROB	n/a	LTP295	ltpFR2	2	n/a	n/a	n/a	20	12	6	3	3
2946128	PROB	n/a	LTP295	ltpFR2	2	n/a	n/a	n/a	20	14	8	4	2
2948316	PROB	n/a	LTP295	ltpFR2	2	n/a	n/a	n/a	20	18	9	2	8
2951069	PROB	n/a	LTP295	ltpFR2	2	n/a	n/a	n/a	20	15	8	4	3
2954720	PROB	n/a	LTP295	ltpFR2	2	n/a	n/a	n/a	20	19	4	9	6
2956522	PROB	n/a	LTP295	ltpFR2	2	n/a	n/a	n/a	20	14	1	8	5
2958390	PROB	n/a	LTP295	ltpFR2	2	n/a	n/a	n/a	20	12	1	8	2
2960776	PROB	n/a	LTP295	ltpFR2	2	n/a	n/a	n/a	20	14	3	9	2
2964059	STOP	n/a	LTP295	ltpFR2	2	n/a	n/a	n/a	20	n/a	n/a	n/a	n/a
2966479	WORD	wordpools/wasnorm_wordpool_576.txt	LTP295	ltpFR2	2	15	AGENT	10	n/a	n/a	0	0	0
2968964	WORD	wordpools/wasnorm_wordpool_576.txt	LTP295	ltpFR2	2	15	BADGE	68	n/a	n/a	0	0	0
2971435	WORD	wordpools/wasnorm_wordpool_576.txt	LTP295	ltpFR2	2	15	STICKER	1382	n/a	n/a	0	0	0
2973901	WORD	wordpools/wasnorm_wordpool_576.txt	LTP295	ltpFR2	2	15	FRANCE	601	n/a	n/a	0	0	0
2976422	WORD	wordpools/wasnorm_wordpool_576.txt	LTP295	ltpFR2	2	15	PAPER	1011	n/a	n/a	0	0	0
2979122	WORD	wordpools/wasnorm_wordpool_576.txt	LTP295	ltpFR2	2	15	HEDGE	699	n/a	n/a	0	0	0
2981757	WORD	wordpools/wasnorm_wordpool_576.txt	LTP295	ltpFR2	2	15	VALLEY	1545	n/a	n/a	0	0	0
2984460	WORD	wordpools/wasnorm_wordpool_576.txt	LTP295	ltpFR2	2	15	CRICKET	408	n/a	n/a	0	0	0
2987245	WORD	wordpools/wasnorm_wordpool_576.txt	LTP295	ltpFR2	2	15	DAISY	435	n/a	n/a	0	0	0
2989980	WORD	wordpools/wasnorm_wordpool_576.txt	LTP295	ltpFR2	2	15	BOX	159	n/a	n/a	0	0	0
2992682	WORD	wordpools/wasnorm_wordpool_576.txt	LTP295	ltpFR2	2	15	NEUTRON	947	n/a	n/a	0	0	0
2995352	WORD	wordpools/wasnorm_wordpool_576.txt	LTP295	ltpFR2	2	15	FREEZER	604	n/a	n/a	0	0	0
2997886	WORD	wordpools/wasnorm_wordpool_576.txt	LTP295	ltpFR2	2	15	LAGOON	795	n/a	n/a	0	0	0
3000373	WORD	wordpools/wasnorm_wordpool_576.txt	LTP295	ltpFR2	2	15	SWIMMER	1420	n/a	n/a	0	0	0
3002840	WORD	wordpools/wasnorm_wordpool_576.txt	LTP295	ltpFR2	2	15	CROSS	413	n/a	n/a	0	0	0
3005410	WORD	wordpools/wasnorm_wordpool_576.txt	LTP295	ltpFR2	2	15	SWORD	1423	n/a	n/a	0	0	0
3008228	WORD	wordpools/wasnorm_wordpool_576.txt	LTP295	ltpFR2	2	15	VIRUS	1572	n/a	n/a	0	0	0
3010846	WORD	wordpools/wasnorm_wordpool_576.txt	LTP295	ltpFR2	2	15	SALMON	1227	n/a	n/a	0	0	0
3013499	WORD	wordpools/wasnorm_wordpool_576.txt	LTP295	ltpFR2	2	15	ICEBERG	731	n/a	n/a	0	0	0
3016268	WORD	wordpools/wasnorm_wordpool_576.txt	LTP295	ltpFR2	2	15	FRIAR	605	n/a	n/a	0	0	0
3018703	WORD	wordpools/wasnorm_wordpool_576.txt	LTP295	ltpFR2	2	15	LILY	821	n/a	n/a	0	0	0
3021121	WORD	wordpools/wasnorm_wordpool_576.txt	LTP295	ltpFR2	2	15	LOFT	840	n/a	n/a	0	0	0
3023740	WORD	wordpools/wasnorm_wordpool_576.txt	LTP295	ltpFR2	2	15	LADDER	793	n/a	n/a	0	0	0
3026225	WORD	wordpools/wasnorm_wordpool_576.txt	LTP295	ltpFR2	2	15	MOP	916	n/a	n/a	0	0	0
3027831	START	n/a	LTP295	ltpFR2	2	n/a	n/a	n/a	21	n/a	n/a	n/a	n/a
3028658	DISTRACTOR	n/a	LTP295	ltpFR2	2	15	n/a	n/a	n/a	n/a	0	0	0
3028665	PROB	n/a	LTP295	ltpFR2	2	n/a	n/a	n/a	21	14	4	5	5
3030527	PROB	n/a	LTP295	ltpFR2	2	n/a	n/a	n/a	21	10	1	5	4
3033380	PROB	n/a	LTP295	ltpFR2	2	n/a	n/a	n/a	21	17	3	8	6
3036066	PROB	n/a	LTP295	ltpFR2	2	n/a	n/a	n/a	21	20	3	9	8
3038884	PROB	n/a	LTP295	ltpFR2	2	n/a	n/a	n/a	21	19	9	4	6
3040719	PROB	n/a	LTP295	ltpFR2	2	n/a	n/a	n/a	21	18	4	9	7
3043220	PROB	n/a	LTP295	ltpFR2	2	n/a	n/a	n/a	21	11	6	2	3
3047242	PROB	n/a	LTP295	ltpFR2	2	n/a	n/a	n/a	21	19	9	8	2
3051831	STOP	n/a	LTP295	ltpFR2	2	n/a	n/a	n/a	21	n/a	n/a	n/a	n/a
3053681	REC_START	n/a	LTP295	ltpFR2	2	15	n/a	n/a	n/a	n/a	0	0	0
3062137	REC_WORD	wordpools/wasnorm_wordpool_576.txt	LTP295	ltpFR2	2	15	AGENT	10	n/a	n/a	0	0	0
3063051	REC_WORD	wordpools/wasnorm_wordpool_576.txt	LTP295	ltpFR2	2	15	BADGE	68	n/a	n/a	0	0	0
3063837	REC_WORD	wordpools/wasnorm_wordpool_576.txt	LTP295	ltpFR2	2	15	STICKER	1382	n/a	n/a	0	0	0
3064859	REC_WORD	wordpools/wasnorm_wordpool_576.txt	LTP295	ltpFR2	2	15	FRANCE	601	n/a	n/a	0	0	0
3067002	REC_WORD	wordpools/wasnorm_wordpool_576.txt	LTP295	ltpFR2	2	15	PAPER	1011	n/a	n/a	0	0	0
3069632	REC_WORD	wordpools/wasnorm_wordpool_576.txt	LTP295	ltpFR2	2	15	DAISY	435	n/a	n/a	0	0	0
3070609	REC_WORD	wordpools/wasnorm_wordpool_576.txt	LTP295	ltpFR2	2	15	LILY	821	n/a	n/a	0	0	0
3071395	REC_WORD	wordpools/wasnorm_wordpool_576.txt	LTP295	ltpFR2	2	15	LOFT	840	n/a	n/a	0	0	0
3072260	REC_WORD	wordpools/wasnorm_wordpool_576.txt	LTP295	ltpFR2	2	15	FRIAR	605	n/a	n/a	0	0	0
3074359	REC_WORD	wordpools/wasnorm_wordpool_576.txt	LTP295	ltpFR2	2	15	BOX	159	n/a	n/a	0	0	0
3075401	REC_WORD	wordpools/wasnorm_wordpool_576.txt	LTP295	ltpFR2	2	15	NEUTRON	947	n/a	n/a	0	0	0
3076401	REC_WORD_VV	wordpools/wasnorm_wordpool_576.txt	LTP295	ltpFR2	2	15	<>	-1	n/a	n/a	0	0	0
3079174	REC_WORD	wordpools/wasnorm_wordpool_576.txt	LTP295	ltpFR2	2	15	FRIDGE	-1	n/a	n/a	0	0	0
3080174	REC_WORD_VV	wordpools/wasnorm_wordpool_576.txt	LTP295	ltpFR2	2	15	<>	-1	n/a	n/a	0	0	0
3080648	REC_WORD	wordpools/wasnorm_wordpool_576.txt	LTP295	ltpFR2	2	15	LAGOON	795	n/a	n/a	0	0	0
3081534	REC_WORD	wordpools/wasnorm_wordpool_576.txt	LTP295	ltpFR2	2	15	SWIMMER	1420	n/a	n/a	0	0	0
3082406	REC_WORD	wordpools/wasnorm_wordpool_576.txt	LTP295	ltpFR2	2	15	CROSS	413	n/a	n/a	0	0	0
3083151	REC_WORD	wordpools/wasnorm_wordpool_576.txt	LTP295	ltpFR2	2	15	SWORD	1423	n/a	n/a	0	0	0
3083953	REC_WORD	wordpools/wasnorm_wordpool_576.txt	LTP295	ltpFR2	2	15	SALMON	1227	n/a	n/a	0	0	0
3086187	REC_WORD	wordpools/wasnorm_wordpool_576.txt	LTP295	ltpFR2	2	15	VALLEY	1545	n/a	n/a	0	0	0
3089941	REC_WORD	wordpools/wasnorm_wordpool_576.txt	LTP295	ltpFR2	2	15	MOP	916	n/a	n/a	0	0	0
3093521	REC_WORD	wordpools/wasnorm_wordpool_576.txt	LTP295	ltpFR2	2	15	LADDER	793	n/a	n/a	0	0	0
3094456	REC_WORD	wordpools/wasnorm_wordpool_576.txt	LTP295	ltpFR2	2	15	HEDGE	699	n/a	n/a	0	0	0
3144094	DISTRACTOR	n/a	LTP295	ltpFR2	2	16	n/a	n/a	n/a	n/a	0	0	0
3144094	START	n/a	LTP295	ltpFR2	2	n/a	n/a	n/a	22	n/a	n/a	n/a	n/a
3144110	PROB	n/a	LTP295	ltpFR2	2	n/a	n/a	n/a	22	11	2	4	5
3146049	PROB	n/a	LTP295	ltpFR2	2	n/a	n/a	n/a	22	14	3	2	9
3148152	PROB	n/a	LTP295	ltpFR2	2	n/a	n/a	n/a	22	21	9	3	9
3149853	PROB	n/a	LTP295	ltpFR2	2	n/a	n/a	n/a	22	13	5	1	7
3151988	PROB	n/a	LTP295	ltpFR2	2	n/a	n/a	n/a	22	13	5	5	3
3153441	PROB	n/a	LTP295	ltpFR2	2	n/a	n/a	n/a	22	5	1	2	2
3155007	PROB	n/a	LTP295	ltpFR2	2	n/a	n/a	n/a	22	14	8	3	3
3156890	PROB	n/a	LTP295	ltpFR2	2	n/a	n/a	n/a	22	14	5	4	5
3158328	PROB	n/a	LTP295	ltpFR2	2	n/a	n/a	n/a	22	16	6	9	1
3160529	PROB	n/a	LTP295	ltpFR2	2	n/a	n/a	n/a	22	19	8	5	6
3162658	PROB	n/a	LTP295	ltpFR2	2	n/a	n/a	n/a	22	14	5	8	1
3165328	PROB	n/a	LTP295	ltpFR2	2	n/a	n/a	n/a	22	8	4	3	1
3167547	STOP	n/a	LTP295	ltpFR2	2	n/a	n/a	n/a	22	n/a	n/a	n/a	n/a
3169131	WORD	wordpools/wasnorm_wordpool_576.txt	LTP295	ltpFR2	2	16	MEAT	883	n/a	n/a	0	0	0
3171569	WORD	wordpools/wasnorm_wordpool_576.txt	LTP295	ltpFR2	2	16	LETTUCE	814	n/a	n/a	0	0	0
3174253	WORD	wordpools/wasnorm_wordpool_576.txt	LTP295	ltpFR2	2	16	MUSTARD	935	n/a	n/a	0	0	0
3177037	WORD	wordpools/wasnorm_wordpool_576.txt	LTP295	ltpFR2	2	16	BRANDY	169	n/a	n/a	0	0	0
3179825	WORD	wordpools/wasnorm_wordpool_576.txt	LTP295	ltpFR2	2	16	ROBOT	1200	n/a	n/a	0	0	0
3182475	WORD	wordpools/wasnorm_wordpool_576.txt	LTP295	ltpFR2	2	16	SUBWAY	1400	n/a	n/a	0	0	0
3185177	WORD	wordpools/wasnorm_wordpool_576.txt	LTP295	ltpFR2	2	16	TUNNEL	1519	n/a	n/a	0	0	0
3187913	WORD	wordpools/wasnorm_wordpool_576.txt	LTP295	ltpFR2	2	16	DASHBOARD	441	n/a	n/a	0	0	0
3190582	WORD	wordpools/wasnorm_wordpool_576.txt	LTP295	ltpFR2	2	16	COMPASS	358	n/a	n/a	0	0	0
3193385	WORD	wordpools/wasnorm_wordpool_576.txt	LTP295	ltpFR2	2	16	COFFEE	341	n/a	n/a	0	0	0
3195820	WORD	wordpools/wasnorm_wordpool_576.txt	LTP295	ltpFR2	2	16	RADISH	1158	n/a	n/a	0	0	0
3198605	WORD	wordpools/wasnorm_wordpool_576.txt	LTP295	ltpFR2	2	16	CABBAGE	210	n/a	n/a	0	0	0
3201242	WORD	wordpools/wasnorm_wordpool_576.txt	LTP295	ltpFR2	2	16	FLAG	573	n/a	n/a	0	0	0
3203860	WORD	wordpools/wasnorm_wordpool_576.txt	LTP295	ltpFR2	2	16	PACKAGE	997	n/a	n/a	0	0	0
3206679	WORD	wordpools/wasnorm_wordpool_576.txt	LTP295	ltpFR2	2	16	SKILLET	1317	n/a	n/a	0	0	0
3209332	WORD	wordpools/wasnorm_wordpool_576.txt	LTP295	ltpFR2	2	16	IGLOO	734	n/a	n/a	0	0	0
3211833	WORD	wordpools/wasnorm_wordpool_576.txt	LTP295	ltpFR2	2	16	MASK	876	n/a	n/a	0	0	0
3214568	WORD	wordpools/wasnorm_wordpool_576.txt	LTP295	ltpFR2	2	16	PUPPY	1144	n/a	n/a	0	0	0
3217220	WORD	wordpools/wasnorm_wordpool_576.txt	LTP295	ltpFR2	2	16	BOUQUET	157	n/a	n/a	0	0	0
3219689	WORD	wordpools/wasnorm_wordpool_576.txt	LTP295	ltpFR2	2	16	SHARK	1275	n/a	n/a	0	0	0
3222108	WORD	wordpools/wasnorm_wordpool_576.txt	LTP295	ltpFR2	2	16	KEEPER	769	n/a	n/a	0	0	0
3224927	WORD	wordpools/wasnorm_wordpool_576.txt	LTP295	ltpFR2	2	16	KETCHUP	771	n/a	n/a	0	0	0
3227495	WORD	wordpools/wasnorm_wordpool_576.txt	LTP295	ltpFR2	2	16	STAMP	1370	n/a	n/a	0	0	0
3230031	WORD	wordpools/wasnorm_wordpool_576.txt	LTP295	ltpFR2	2	16	MATCH	878	n/a	n/a	0	0	0
3231649	START	n/a	LTP295	ltpFR2	2	n/a	n/a	n/a	23	n/a	n/a	n/a	n/a
3232468	DISTRACTOR	n/a	LTP295	ltpFR2	2	16	n/a	n/a	n/a	n/a	0	0	0
3232482	PROB	n/a	LTP295	ltpFR2	2	n/a	n/a	n/a	23	7	2	3	2
3234566	PROB	n/a	LTP295	ltpFR2	2	n/a	n/a	n/a	23	12	1	9	2
3236386	PROB	n/a	LTP295	ltpFR2	2	n/a	n/a	n/a	23	11	4	2	5
3238454	PROB	n/a	LTP295	ltpFR2	2	n/a	n/a	n/a	23	17	9	2	6
3240537	PROB	n/a	LTP295	ltpFR2	2	n/a	n/a	n/a	23	18	4	7	7
3242156	PROB	n/a	LTP295	ltpFR2	2	n/a	n/a	n/a	23	9	1	4	4
3244074	PROB	n/a	LTP295	ltpFR2	2	n/a	n/a	n/a	23	20	4	7	9
3248628	PROB	n/a	LTP295	ltpFR2	2	n/a	n/a	n/a	23	17	7	3	7
3250779	PROB	n/a	LTP295	ltpFR2	2	n/a	n/a	n/a	23	16	5	6	5
3253180	PROB	n/a	LTP295	ltpFR2	2	n/a	n/a	n/a	23	24	9	9	6
3255316	STOP	n/a	LTP295	ltpFR2	2	n/a	n/a	n/a	23	n/a	n/a	n/a	n/a
3257503	REC_START	n/a	LTP295	ltpFR2	2	16	n/a	n/a	n/a	n/a	0	0	0
3260113	REC_WORD	wordpools/wasnorm_wordpool_576.txt	LTP295	ltpFR2	2	16	MEAT	883	n/a	n/a	0	0	0
3261227	REC_WORD	wordpools/wasnorm_wordpool_576.txt	LTP295	ltpFR2	2	16	LETTUCE	814	n/a	n/a	0	0	0
3262227	REC_WORD_VV	wordpools/wasnorm_wordpool_576.txt	LTP295	ltpFR2	2	16	<>	-1	n/a	n/a	0	0	0
3263528	REC_WORD	wordpools/wasnorm_wordpool_576.txt	LTP295	ltpFR2	2	16	KETCHUP	771	n/a	n/a	0	0	0
3264460	REC_WORD	wordpools/wasnorm_wordpool_576.txt	LTP295	ltpFR2	2	16	CABBAGE	210	n/a	n/a	0	0	0
3266492	REC_WORD	wordpools/wasnorm_wordpool_576.txt	LTP295	ltpFR2	2	16	PUPPY	1144	n/a	n/a	0	0	0
3267365	REC_WORD	wordpools/wasnorm_wordpool_576.txt	LTP295	ltpFR2	2	16	SUBWAY	1400	n/a	n/a	0	0	0
3268449	REC_WORD	wordpools/wasnorm_wordpool_576.txt	LTP295	ltpFR2	2	16	TUNNEL	1519	n/a	n/a	0	0	0
3270067	REC_WORD	wordpools/wasnorm_wordpool_576.txt	LTP295	ltpFR2	2	16	BOUQUET	157	n/a	n/a	0	0	0
3271014	REC_WORD	wordpools/wasnorm_wordpool_576.txt	LTP295	ltpFR2	2	16	SHARK	1275	n/a	n/a	0	0	0
3272035	REC_WORD	wordpools/wasnorm_wordpool_576.txt	LTP295	ltpFR2	2	16	KEEPER	769	n/a	n/a	0	0	0
3277984	REC_WORD	wordpools/wasnorm_wordpool_576.txt	LTP295	ltpFR2	2	16	SKILLET	1317	n/a	n/a	0	0	0
3286110	REC_WORD	wordpools/wasnorm_wordpool_576.txt	LTP295	ltpFR2	2	16	BRANDY	169	n/a	n/a	0	0	0
3286974	REC_WORD	wordpools/wasnorm_wordpool_576.txt	LTP295	ltpFR2	2	16	COFFEE	341	n/a	n/a	0	0	0
3287853	REC_WORD	wordpools/wasnorm_wordpool_576.txt	LTP295	ltpFR2	2	16	DASHBOARD	441	n/a	n/a	0	0	0
3288742	REC_WORD	wordpools/wasnorm_wordpool_576.txt	LTP295	ltpFR2	2	16	COMPASS	358	n/a	n/a	0	0	0
3334027	REST_REWET	n/a	LTP295	ltpFR2	2	16	n/a	n/a	n/a	n/a	0	0	0
3601731	WORD	wordpools/wasnorm_wordpool_576.txt	LTP295	ltpFR2	2	17	DUSTPAN	509	n/a	n/a	0	0	0
3604159	WORD	wordpools/wasnorm_wordpool_576.txt	LTP295	ltpFR2	2	17	PECAN	1036	n/a	n/a	0	0	0
3606601	WORD	wordpools/wasnorm_wordpool_576.txt	LTP295	ltpFR2	2	17	MARROW	872	n/a	n/a	0	0	0
3609265	WORD	wordpools/wasnorm_wordpool_576.txt	LTP295	ltpFR2	2	17	LUNCH	849	n/a	n/a	0	0	0
3611983	WORD	wordpools/wasnorm_wordpool_576.txt	LTP295	ltpFR2	2	17	CASHEW	253	n/a	n/a	0	0	0
3614473	WORD	wordpools/wasnorm_wordpool_576.txt	LTP295	ltpFR2	2	17	COWBOY	395	n/a	n/a	0	0	0
3617289	WORD	wordpools/wasnorm_wordpool_576.txt	LTP295	ltpFR2	2	17	HORSE	719	n/a	n/a	0	0	0
3619856	WORD	wordpools/wasnorm_wordpool_576.txt	LTP295	ltpFR2	2	17	MONEY	908	n/a	n/a	0	0	0
3622558	WORD	wordpools/wasnorm_wordpool_576.txt	LTP295	ltpFR2	2	17	POLICE	1098	n/a	n/a	0	0	0
3625361	WORD	wordpools/wasnorm_wordpool_576.txt	LTP295	ltpFR2	2	17	WORLD	1622	n/a	n/a	0	0	0
3628046	WORD	wordpools/wasnorm_wordpool_576.txt	LTP295	ltpFR2	2	17	HAND	683	n/a	n/a	0	0	0
3630819	WORD	wordpools/wasnorm_wordpool_576.txt	LTP295	ltpFR2	2	17	CANDY	230	n/a	n/a	0	0	0
3633237	WORD	wordpools/wasnorm_wordpool_576.txt	LTP295	ltpFR2	2	17	SPIDER	1351	n/a	n/a	0	0	0
3636020	WORD	wordpools/wasnorm_wordpool_576.txt	LTP295	ltpFR2	2	17	TERMITE	1451	n/a	n/a	0	0	0
3638688	WORD	wordpools/wasnorm_wordpool_576.txt	LTP295	ltpFR2	2	17	DUST	508	n/a	n/a	0	0	0
3641124	WORD	wordpools/wasnorm_wordpool_576.txt	LTP295	ltpFR2	2	17	SODA	1341	n/a	n/a	0	0	0
3643610	WORD	wordpools/wasnorm_wordpool_576.txt	LTP295	ltpFR2	2	17	FRAME	600	n/a	n/a	0	0	0
3646044	WORD	wordpools/wasnorm_wordpool_576.txt	LTP295	ltpFR2	2	17	BOARD	143	n/a	n/a	0	0	0
3648679	WORD	wordpools/wasnorm_wordpool_576.txt	LTP295	ltpFR2	2	17	LUMBER	848	n/a	n/a	0	0	0
3651267	WORD	wordpools/wasnorm_wordpool_576.txt	LTP295	ltpFR2	2	17	CHEST	295	n/a	n/a	0	0	0
3654018	WORD	wordpools/wasnorm_wordpool_576.txt	LTP295	ltpFR2	2	17	RECEIPT	1173	n/a	n/a	0	0	0
3656721	WORD	wordpools/wasnorm_wordpool_576.txt	LTP295	ltpFR2	2	17	FOREHEAD	592	n/a	n/a	0	0	0
3659505	WORD	wordpools/wasnorm_wordpool_576.txt	LTP295	ltpFR2	2	17	AIRPLANE	12	n/a	n/a	0	0	0
3661975	WORD	wordpools/wasnorm_wordpool_576.txt	LTP295	ltpFR2	2	17	WHISKERS	1605	n/a	n/a	0	0	0
3663578	START	n/a	LTP295	ltpFR2	2	n/a	n/a	n/a	24	n/a	n/a	n/a	n/a
3664602	DISTRACTOR	n/a	LTP295	ltpFR2	2	17	n/a	n/a	n/a	n/a	0	0	0
3664609	PROB	n/a	LTP295	ltpFR2	2	n/a	n/a	n/a	24	23	8	6	9
3669064	PROB	n/a	LTP295	ltpFR2	2	n/a	n/a	n/a	24	19	5	8	6
3671735	PROB	n/a	LTP295	ltpFR2	2	n/a	n/a	n/a	24	4	2	1	1
3672984	PROB	n/a	LTP295	ltpFR2	2	n/a	n/a	n/a	24	15	9	5	1
3675020	PROB	n/a	LTP295	ltpFR2	2	n/a	n/a	n/a	24	9	5	1	3
3676955	PROB	n/a	LTP295	ltpFR2	2	n/a	n/a	n/a	24	5	2	1	2
3678305	PROB	n/a	LTP295	ltpFR2	2	n/a	n/a	n/a	24	14	5	1	8
3681124	PROB	n/a	LTP295	ltpFR2	2	n/a	n/a	n/a	24	15	2	9	4
3684993	PROB	n/a	LTP295	ltpFR2	2	n/a	n/a	n/a	24	13	9	1	3
3686619	STOP	n/a	LTP295	ltpFR2	2	n/a	n/a	n/a	24	n/a	n/a	n/a	n/a
3689432	REC_START	n/a	LTP295	ltpFR2	2	17	n/a	n/a	n/a	n/a	0	0	0
3690840	REC_WORD	wordpools/wasnorm_wordpool_576.txt	LTP295	ltpFR2	2	17	COWBOY	395	n/a	n/a	0	0	0
3691910	REC_WORD	wordpools/wasnorm_wordpool_576.txt	LTP295	ltpFR2	2	17	HORSE	719	n/a	n/a	0	0	0
3693144	REC_WORD	wordpools/wasnorm_wordpool_576.txt	LTP295	ltpFR2	2	17	POLICE	1098	n/a	n/a	0	0	0
3695658	REC_WORD	wordpools/wasnorm_wordpool_576.txt	LTP295	ltpFR2	2	17	TERMITE	1451	n/a	n/a	0	0	0
3696483	REC_WORD	wordpools/wasnorm_wordpool_576.txt	LTP295	ltpFR2	2	17	SPIDER	1351	n/a	n/a	0	0	0
3697771	REC_WORD	wordpools/wasnorm_wordpool_576.txt	LTP295	ltpFR2	2	17	DUST	508	n/a	n/a	0	0	0
3698948	REC_WORD	wordpools/wasnorm_wordpool_576.txt	LTP295	ltpFR2	2	17	WHISKERS	1605	n/a	n/a	0	0	0
3700181	REC_WORD	wordpools/wasnorm_wordpool_576.txt	LTP295	ltpFR2	2	17	HAND	683	n/a	n/a	0	0	0
3701424	REC_WORD	wordpools/wasnorm_wordpool_576.txt	LTP295	ltpFR2	2	17	CANDY	230	n/a	n/a	0	0	0
3706510	REC_WORD	wordpools/wasnorm_wordpool_576.txt	LTP295	ltpFR2	2	17	DUSTPAN	509	n/a	n/a	0	0	0
3708460	REC_WORD	wordpools/wasnorm_wordpool_576.txt	LTP295	ltpFR2	2	17	PECAN	1036	n/a	n/a	0	0	0
3709696	REC_WORD	wordpools/wasnorm_wordpool_576.txt	LTP295	ltpFR2	2	17	CASHEW	253	n/a	n/a	0	0	0
3711563	REC_WORD	wordpools/wasnorm_wordpool_576.txt	LTP295	ltpFR2	2	17	LUNCH	849	n/a	n/a	0	0	0
3712729	REC_WORD	wordpools/wasnorm_wordpool_576.txt	LTP295	ltpFR2	2	17	MARROW	872	n/a	n/a	0	0	0
3720417	REC_WORD	wordpools/wasnorm_wordpool_576.txt	LTP295	ltpFR2	2	17	FRAME	600	n/a	n/a	0	0	0
3721417	REC_WORD_VV	wordpools/wasnorm_wordpool_576.txt	LTP295	ltpFR2	2	17	<>	-1	n/a	n/a	0	0	0
3724878	REC_WORD	wordpools/wasnorm_wordpool_576.txt	LTP295	ltpFR2	2	17	BOARD	143	n/a	n/a	0	0	0
3725483	REC_WORD	wordpools/wasnorm_wordpool_576.txt	LTP295	ltpFR2	2	17	LUMBER	848	n/a	n/a	0	0	0
3726238	REC_WORD	wordpools/wasnorm_wordpool_576.txt	LTP295	ltpFR2	2	17	RECEIPT	1173	n/a	n/a	0	0	0
3727004	REC_WORD	wordpools/wasnorm_wordpool_576.txt	LTP295	ltpFR2	2	17	FOREHEAD	592	n/a	n/a	0	0	0
3753808	REC_WORD	wordpools/wasnorm_wordpool_576.txt	LTP295	ltpFR2	2	17	WORLD	1622	n/a	n/a	0	0	0
3779849	DISTRACTOR	n/a	LTP295	ltpFR2	2	18	n/a	n/a	n/a	n/a	0	0	0
3779850	START	n/a	LTP295	ltpFR2	2	n/a	n/a	n/a	25	n/a	n/a	n/a	n/a
3779867	PROB	n/a	LTP295	ltpFR2	2	n/a	n/a	n/a	25	19	3	7	9
3781784	PROB	n/a	LTP295	ltpFR2	2	n/a	n/a	n/a	25	11	5	2	4
3784454	PROB	n/a	LTP295	ltpFR2	2	n/a	n/a	n/a	25	14	9	3	2
3786471	PROB	n/a	LTP295	ltpFR2	2	n/a	n/a	n/a	25	18	6	4	8
3787974	PROB	n/a	LTP295	ltpFR2	2	n/a	n/a	n/a	25	13	6	6	1
3790057	PROB	n/a	LTP295	ltpFR2	2	n/a	n/a	n/a	25	9	3	5	1
3791891	PROB	n/a	LTP295	ltpFR2	2	n/a	n/a	n/a	25	23	8	9	6
3794993	PROB	n/a	LTP295	ltpFR2	2	n/a	n/a	n/a	25	21	9	8	4
3797431	PROB	n/a	LTP295	ltpFR2	2	n/a	n/a	n/a	25	18	1	9	8
3799147	PROB	n/a	LTP295	ltpFR2	2	n/a	n/a	n/a	25	23	8	6	9
3801318	PROB	n/a	LTP295	ltpFR2	2	n/a	n/a	n/a	25	15	4	9	2
3803619	STOP	n/a	LTP295	ltpFR2	2	n/a	n/a	n/a	25	n/a	n/a	n/a	n/a
3804668	WORD	wordpools/wasnorm_wordpool_576.txt	LTP295	ltpFR2	2	18	BRANCH	168	n/a	n/a	0	0	0
3807271	WORD	wordpools/wasnorm_wordpool_576.txt	LTP295	ltpFR2	2	18	TWIG	1527	n/a	n/a	0	0	0
3809939	WORD	wordpools/wasnorm_wordpool_576.txt	LTP295	ltpFR2	2	18	WAGON	1578	n/a	n/a	0	0	0
3812474	WORD	wordpools/wasnorm_wordpool_576.txt	LTP295	ltpFR2	2	18	THREAD	1460	n/a	n/a	0	0	0
3815160	WORD	wordpools/wasnorm_wordpool_576.txt	LTP295	ltpFR2	2	18	COURSE	390	n/a	n/a	0	0	0
3817620	WORD	wordpools/wasnorm_wordpool_576.txt	LTP295	ltpFR2	2	18	QUAIL	1147	n/a	n/a	0	0	0
3820172	WORD	wordpools/wasnorm_wordpool_576.txt	LTP295	ltpFR2	2	18	LEOPARD	812	n/a	n/a	0	0	0
3822892	WORD	wordpools/wasnorm_wordpool_576.txt	LTP295	ltpFR2	2	18	CAPTIVE	240	n/a	n/a	0	0	0
3825402	WORD	wordpools/wasnorm_wordpool_576.txt	LTP295	ltpFR2	2	18	ROD	1203	n/a	n/a	0	0	0
3828204	WORD	wordpools/wasnorm_wordpool_576.txt	LTP295	ltpFR2	2	18	HAMPER	682	n/a	n/a	0	0	0
3830955	WORD	wordpools/wasnorm_wordpool_576.txt	LTP295	ltpFR2	2	18	SPOOL	1356	n/a	n/a	0	0	0
3833667	WORD	wordpools/wasnorm_wordpool_576.txt	LTP295	ltpFR2	2	18	MAMMAL	861	n/a	n/a	0	0	0
3836360	WORD	wordpools/wasnorm_wordpool_576.txt	LTP295	ltpFR2	2	18	WASP	1593	n/a	n/a	0	0	0
3838978	WORD	wordpools/wasnorm_wordpool_576.txt	LTP295	ltpFR2	2	18	CLOTHES	327	n/a	n/a	0	0	0
3841473	WORD	wordpools/wasnorm_wordpool_576.txt	LTP295	ltpFR2	2	18	POSSUM	1112	n/a	n/a	0	0	0
3844226	WORD	wordpools/wasnorm_wordpool_576.txt	LTP295	ltpFR2	2	18	COCKTAIL	338	n/a	n/a	0	0	0
3846911	WORD	wordpools/wasnorm_wordpool_576.txt	LTP295	ltpFR2	2	18	FLASK	576	n/a	n/a	0	0	0
3849531	WORD	wordpools/wasnorm_wordpool_576.txt	LTP295	ltpFR2	2	18	SLIDE	1326	n/a	n/a	0	0	0
3852306	WORD	wordpools/wasnorm_wordpool_576.txt	LTP295	ltpFR2	2	18	OUTDOORS	987	n/a	n/a	0	0	0
3855108	WORD	wordpools/wasnorm_wordpool_576.txt	LTP295	ltpFR2	2	18	FOREST	593	n/a	n/a	0	0	0
3857820	WORD	wordpools/wasnorm_wordpool_576.txt	LTP295	ltpFR2	2	18	SCALLOP	1242	n/a	n/a	0	0	0
3860463	WORD	wordpools/wasnorm_wordpool_576.txt	LTP295	ltpFR2	2	18	STUDENT	1395	n/a	n/a	0	0	0
3862909	WORD	wordpools/wasnorm_wordpool_576.txt	LTP295	ltpFR2	2	18	ACTOR	5	n/a	n/a	0	0	0
3865399	WORD	wordpools/wasnorm_wordpool_576.txt	LTP295	ltpFR2	2	18	JELLY	755	n/a	n/a	0	0	0
3867012	START	n/a	LTP295	ltpFR2	2	n/a	n/a	n/a	26	n/a	n/a	n/a	n/a
3868124	DISTRACTOR	n/a	LTP295	ltpFR2	2	18	n/a	n/a	n/a	n/a	0	0	0
3868129	PROB	n/a	LTP295	ltpFR2	2	n/a	n/a	n/a	26	17	4	9	4
3870953	PROB	n/a	LTP295	ltpFR2	2	n/a	n/a	n/a	26	16	5	7	4
3873705	PROB	n/a	LTP295	ltpFR2	2	n/a	n/a	n/a	26	9	2	4	3
3875507	PROB	n/a	LTP295	ltpFR2	2	n/a	n/a	n/a	26	12	6	4	2
3877340	PROB	n/a	LTP295	ltpFR2	2	n/a	n/a	n/a	26	17	5	3	9
3879339	PROB	n/a	LTP295	ltpFR2	2	n/a	n/a	n/a	26	11	5	4	2
3881089	PROB	n/a	LTP295	ltpFR2	2	n/a	n/a	n/a	26	18	6	8	4
3883314	PROB	n/a	LTP295	ltpFR2	2	n/a	n/a	n/a	26	4	1	2	1
3884547	PROB	n/a	LTP295	ltpFR2	2	n/a	n/a	n/a	26	13	6	4	3
3886110	PROB	n/a	LTP295	ltpFR2	2	n/a	n/a	n/a	26	13	6	6	1
3887581	PROB	n/a	LTP295	ltpFR2	2	n/a	n/a	n/a	26	18	9	6	3
3889715	STOP	n/a	LTP295	ltpFR2	2	n/a	n/a	n/a	26	n/a	n/a	n/a	n/a
3892784	REC_START	n/a	LTP295	ltpFR2	2	18	n/a	n/a	n/a	n/a	0	0	0
3894404	REC_WORD	wordpools/wasnorm_wordpool_576.txt	LTP295	ltpFR2	2	18	BRANCH	168	n/a	n/a	0	0	0
3895542	REC_WORD	wordpools/wasnorm_wordpool_576.txt	LTP295	ltpFR2	2	18	TWIG	1527	n/a	n/a	0	0	0
3897128	REC_WORD	wordpools/wasnorm_wordpool_576.txt	LTP295	ltpFR2	2	18	WAGON	1578	n/a	n/a	0	0	0
3898733	REC_WORD	wordpools/wasnorm_wordpool_576.txt	LTP295	ltpFR2	2	18	QUAIL	1147	n/a	n/a	0	0	0
3900251	REC_WORD	wordpools/wasnorm_wordpool_576.txt	LTP295	ltpFR2	2	18	COCKTAIL	338	n/a	n/a	0	0	0
3901457	REC_WORD	wordpools/wasnorm_wordpool_576.txt	LTP295	ltpFR2	2	18	FLASK	576	n/a	n/a	0	0	0
3902725	REC_WORD	wordpools/wasnorm_wordpool_576.txt	LTP295	ltpFR2	2	18	COURSE	390	n/a	n/a	0	0	0
3906387	REC_WORD	wordpools/wasnorm_wordpool_576.txt	LTP295	ltpFR2	2	18	STUDENT	1395	n/a	n/a	0	0	0
3907666	REC_WORD	wordpools/wasnorm_wordpool_576.txt	LTP295	ltpFR2	2	18	ACTOR	5	n/a	n/a	0	0	0
3908966	REC_WORD	wordpools/wasnorm_wordpool_576.txt	LTP295	ltpFR2	2	18	LEOPARD	812	n/a	n/a	0	0	0
3910713	REC_WORD	wordpools/wasnorm_wordpool_576.txt	LTP295	ltpFR2	2	18	HAMPER	682	n/a	n/a	0	0	0
3912017	REC_WORD	wordpools/wasnorm_wordpool_576.txt	LTP295	ltpFR2	2	18	ROD	1203	n/a	n/a	0	0	0
3912827	REC_WORD	wordpools/wasnorm_wordpool_576.txt	LTP295	ltpFR2	2	18	THREAD	1460	n/a	n/a	0	0	0
3913804	REC_WORD	wordpools/wasnorm_wordpool_576.txt	LTP295	ltpFR2	2	18	SPOOL	1356	n/a	n/a	0	0	0
3916643	REC_WORD	wordpools/wasnorm_wordpool_576.txt	LTP295	ltpFR2	2	18	SLIDE	1326	n/a	n/a	0	0	0
3917486	REC_WORD	wordpools/wasnorm_wordpool_576.txt	LTP295	ltpFR2	2	18	OUTDOORS	987	n/a	n/a	0	0	0
3918488	REC_WORD	wordpools/wasnorm_wordpool_576.txt	LTP295	ltpFR2	2	18	FOREST	593	n/a	n/a	0	0	0
3919488	REC_WORD_VV	wordpools/wasnorm_wordpool_576.txt	LTP295	ltpFR2	2	18	<>	-1	n/a	n/a	0	0	0
3921231	REC_WORD	wordpools/wasnorm_wordpool_576.txt	LTP295	ltpFR2	2	18	SCALLOP	1242	n/a	n/a	0	0	0
3946357	REC_WORD	wordpools/wasnorm_wordpool_576.txt	LTP295	ltpFR2	2	18	POSSUM	1112	n/a	n/a	0	0	0
3965111	REC_WORD	wordpools/wasnorm_wordpool_576.txt	LTP295	ltpFR2	2	18	CAPTIVE	240	n/a	n/a	0	0	0
3983205	DISTRACTOR	n/a	LTP295	ltpFR2	2	19	n/a	n/a	n/a	n/a	0	0	0
3983205	START	n/a	LTP295	ltpFR2	2	n/a	n/a	n/a	27	n/a	n/a	n/a	n/a
3983221	PROB	n/a	LTP295	ltpFR2	2	n/a	n/a	n/a	27	16	3	7	6
3985006	PROB	n/a	LTP295	ltpFR2	2	n/a	n/a	n/a	27	15	7	3	5
3986374	PROB	n/a	LTP295	ltpFR2	2	n/a	n/a	n/a	27	10	1	2	7
3988058	PROB	n/a	LTP295	ltpFR2	2	n/a	n/a	n/a	27	16	1	8	7
3990378	PROB	n/a	LTP295	ltpFR2	2	n/a	n/a	n/a	27	6	3	2	1
3991911	PROB	n/a	LTP295	ltpFR2	2	n/a	n/a	n/a	27	14	5	7	2
3994229	PROB	n/a	LTP295	ltpFR2	2	n/a	n/a	n/a	27	11	7	1	3
3996647	PROB	n/a	LTP295	ltpFR2	2	n/a	n/a	n/a	27	18	3	9	6
4001668	PROB	n/a	LTP295	ltpFR2	2	n/a	n/a	n/a	27	21	8	6	7
4004236	PROB	n/a	LTP295	ltpFR2	2	n/a	n/a	n/a	27	18	9	1	8
4005971	STOP	n/a	LTP295	ltpFR2	2	n/a	n/a	n/a	27	n/a	n/a	n/a	n/a
4008091	WORD	wordpools/wasnorm_wordpool_576.txt	LTP295	ltpFR2	2	19	ROBIN	1199	n/a	n/a	0	0	0
4010860	WORD	wordpools/wasnorm_wordpool_576.txt	LTP295	ltpFR2	2	19	GIRL	637	n/a	n/a	0	0	0
4013462	WORD	wordpools/wasnorm_wordpool_576.txt	LTP295	ltpFR2	2	19	HATCHET	691	n/a	n/a	0	0	0
4016135	WORD	wordpools/wasnorm_wordpool_576.txt	LTP295	ltpFR2	2	19	LASER	801	n/a	n/a	0	0	0
4018899	WORD	wordpools/wasnorm_wordpool_576.txt	LTP295	ltpFR2	2	19	HEADBAND	696	n/a	n/a	0	0	0
4021324	WORD	wordpools/wasnorm_wordpool_576.txt	LTP295	ltpFR2	2	19	CLAMP	316	n/a	n/a	0	0	0
4023875	WORD	wordpools/wasnorm_wordpool_576.txt	LTP295	ltpFR2	2	19	FIREPLACE	570	n/a	n/a	0	0	0
4026505	WORD	wordpools/wasnorm_wordpool_576.txt	LTP295	ltpFR2	2	19	CITRUS	313	n/a	n/a	0	0	0
4029290	WORD	wordpools/wasnorm_wordpool_576.txt	LTP295	ltpFR2	2	19	CHAUFFEUR	283	n/a	n/a	0	0	0
4032025	WORD	wordpools/wasnorm_wordpool_576.txt	LTP295	ltpFR2	2	19	BACKBONE	66	n/a	n/a	0	0	0
4034511	WORD	wordpools/wasnorm_wordpool_576.txt	LTP295	ltpFR2	2	19	PERCH	1048	n/a	n/a	0	0	0
4036969	WORD	wordpools/wasnorm_wordpool_576.txt	LTP295	ltpFR2	2	19	VAGRANT	1544	n/a	n/a	0	0	0
4039671	WORD	wordpools/wasnorm_wordpool_576.txt	LTP295	ltpFR2	2	19	PORTRAIT	1111	n/a	n/a	0	0	0
4042341	WORD	wordpools/wasnorm_wordpool_576.txt	LTP295	ltpFR2	2	19	RECORD	1176	n/a	n/a	0	0	0
4044969	WORD	wordpools/wasnorm_wordpool_576.txt	LTP295	ltpFR2	2	19	VELVET	1555	n/a	n/a	0	0	0
4047637	WORD	wordpools/wasnorm_wordpool_576.txt	LTP295	ltpFR2	2	19	FLASHLIGHT	575	n/a	n/a	0	0	0
4050063	WORD	wordpools/wasnorm_wordpool_576.txt	LTP295	ltpFR2	2	19	SADDLE	1221	n/a	n/a	0	0	0
4052591	WORD	wordpools/wasnorm_wordpool_576.txt	LTP295	ltpFR2	2	19	SCOTCH	1251	n/a	n/a	0	0	0
4055184	WORD	wordpools/wasnorm_wordpool_576.txt	LTP295	ltpFR2	2	19	PLATE	1086	n/a	n/a	0	0	0
4057904	WORD	wordpools/wasnorm_wordpool_576.txt	LTP295	ltpFR2	2	19	COOKBOOK	373	n/a	n/a	0	0	0
4060481	WORD	wordpools/wasnorm_wordpool_576.txt	LTP295	ltpFR2	2	19	PERFUME	1049	n/a	n/a	0	0	0
4063216	WORD	wordpools/wasnorm_wordpool_576.txt	LTP295	ltpFR2	2	19	KNIFE	785	n/a	n/a	0	0	0
4065911	WORD	wordpools/wasnorm_wordpool_576.txt	LTP295	ltpFR2	2	19	GLOBE	641	n/a	n/a	0	0	0
4068447	WORD	wordpools/wasnorm_wordpool_576.txt	LTP295	ltpFR2	2	19	PLUTO	1092	n/a	n/a	0	0	0
4070055	START	n/a	LTP295	ltpFR2	2	n/a	n/a	n/a	28	n/a	n/a	n/a	n/a
4070981	DISTRACTOR	n/a	LTP295	ltpFR2	2	19	n/a	n/a	n/a	n/a	0	0	0
4070988	PROB	n/a	LTP295	ltpFR2	2	n/a	n/a	n/a	28	13	5	7	1
4073808	PROB	n/a	LTP295	ltpFR2	2	n/a	n/a	n/a	28	23	8	6	9
4076460	PROB	n/a	LTP295	ltpFR2	2	n/a	n/a	n/a	28	19	6	6	7
4078843	PROB	n/a	LTP295	ltpFR2	2	n/a	n/a	n/a	28	21	5	7	8
4081146	PROB	n/a	LTP295	ltpFR2	2	n/a	n/a	n/a	28	13	1	8	4
4083180	PROB	n/a	LTP295	ltpFR2	2	n/a	n/a	n/a	28	18	7	2	9
4084983	PROB	n/a	LTP295	ltpFR2	2	n/a	n/a	n/a	28	25	9	7	9
4088418	PROB	n/a	LTP295	ltpFR2	2	n/a	n/a	n/a	28	17	8	2	7
4090203	PROB	n/a	LTP295	ltpFR2	2	n/a	n/a	n/a	28	18	6	7	5
4092138	PROB	n/a	LTP295	ltpFR2	2	n/a	n/a	n/a	28	17	8	2	7
4093643	STOP	n/a	LTP295	ltpFR2	2	n/a	n/a	n/a	28	n/a	n/a	n/a	n/a
4095841	REC_START	n/a	LTP295	ltpFR2	2	19	n/a	n/a	n/a	n/a	0	0	0
