onset	duration	trial_type	sample	stim_file	subject	experiment	session	trial	item_name	item_num	list	answer	test_x	test_y	test_z
216.734	n/a	SESS_START	108367	n/a	LTP250	ltpFR2	14	n/a	n/a	n/a	n/a	n/a	0	0	0
229.432	n/a	START	114716	n/a	LTP250	ltpFR2	14	n/a	n/a	n/a	-1	n/a	n/a	n/a	n/a
229.464	n/a	PROB	114732	n/a	LTP250	ltpFR2	14	n/a	n/a	n/a	-1	13	6	4	3
231.03	n/a	PROB	115515	n/a	LTP250	ltpFR2	14	n/a	n/a	n/a	-1	10	1	4	5
232.4	n/a	PROB	116200	n/a	LTP250	ltpFR2	14	n/a	n/a	n/a	-1	14	1	5	8
234.718	n/a	PROB	117359	n/a	LTP250	ltpFR2	14	n/a	n/a	n/a	-1	8	1	3	4
236.32	n/a	PROB	118160	n/a	LTP250	ltpFR2	14	n/a	n/a	n/a	-1	10	3	3	4
237.77	n/a	PROB	118885	n/a	LTP250	ltpFR2	14	n/a	n/a	n/a	-1	11	2	4	5
240.05	n/a	STOP	120025	n/a	LTP250	ltpFR2	14	n/a	n/a	n/a	-1	n/a	n/a	n/a	n/a
271.866	n/a	DISTRACTOR	135933	n/a	LTP250	ltpFR2	14	1	n/a	n/a	n/a	n/a	0	0	0
271.866	n/a	START	135933	n/a	LTP250	ltpFR2	14	n/a	n/a	n/a	1	n/a	n/a	n/a	n/a
271.898	n/a	PROB	135949	n/a	LTP250	ltpFR2	14	n/a	n/a	n/a	1	17	6	5	6
274.768	n/a	PROB	137384	n/a	LTP250	ltpFR2	14	n/a	n/a	n/a	1	20	6	5	9
277.37	n/a	PROB	138685	n/a	LTP250	ltpFR2	14	n/a	n/a	n/a	1	17	2	8	7
279.138	n/a	PROB	139569	n/a	LTP250	ltpFR2	14	n/a	n/a	n/a	1	10	4	2	4
280.956	n/a	PROB	140478	n/a	LTP250	ltpFR2	14	n/a	n/a	n/a	1	13	8	4	1
282.774	n/a	PROB	141387	n/a	LTP250	ltpFR2	14	n/a	n/a	n/a	1	22	9	8	5
285.008	n/a	PROB	142504	n/a	LTP250	ltpFR2	14	n/a	n/a	n/a	1	22	9	4	9
287.978	n/a	PROB	143989	n/a	LTP250	ltpFR2	14	n/a	n/a	n/a	1	15	4	9	2
291.148	n/a	PROB	145574	n/a	LTP250	ltpFR2	14	n/a	n/a	n/a	1	12	7	2	3
293.0	n/a	PROB	146500	n/a	LTP250	ltpFR2	14	n/a	n/a	n/a	1	16	6	8	2
294.364	n/a	STOP	147182	n/a	LTP250	ltpFR2	14	n/a	n/a	n/a	1	n/a	n/a	n/a	n/a
296.786	n/a	WORD	148393	wordpools/wasnorm_wordpool_576.txt	LTP250	ltpFR2	14	1	COUCH	386	n/a	n/a	0	0	0
299.304	n/a	WORD	149652	wordpools/wasnorm_wordpool_576.txt	LTP250	ltpFR2	14	1	DRESSER	496	n/a	n/a	0	0	0
302.14	n/a	WORD	151070	wordpools/wasnorm_wordpool_576.txt	LTP250	ltpFR2	14	1	PLUTO	1092	n/a	n/a	0	0	0
304.942	n/a	WORD	152471	wordpools/wasnorm_wordpool_576.txt	LTP250	ltpFR2	14	1	INMATE	738	n/a	n/a	0	0	0
307.762	n/a	WORD	153881	wordpools/wasnorm_wordpool_576.txt	LTP250	ltpFR2	14	1	DIVER	476	n/a	n/a	0	0	0
310.366	n/a	WORD	155183	wordpools/wasnorm_wordpool_576.txt	LTP250	ltpFR2	14	1	SLIDE	1326	n/a	n/a	0	0	0
313.016	n/a	WORD	156508	wordpools/wasnorm_wordpool_576.txt	LTP250	ltpFR2	14	1	ONION	977	n/a	n/a	0	0	0
315.586	n/a	WORD	157793	wordpools/wasnorm_wordpool_576.txt	LTP250	ltpFR2	14	1	GROUND	666	n/a	n/a	0	0	0
318.104	n/a	WORD	159052	wordpools/wasnorm_wordpool_576.txt	LTP250	ltpFR2	14	1	APRON	35	n/a	n/a	0	0	0
320.624	n/a	WORD	160312	wordpools/wasnorm_wordpool_576.txt	LTP250	ltpFR2	14	1	LABEL	790	n/a	n/a	0	0	0
323.192	n/a	WORD	161596	wordpools/wasnorm_wordpool_576.txt	LTP250	ltpFR2	14	1	OZONE	996	n/a	n/a	0	0	0
325.646	n/a	WORD	162823	wordpools/wasnorm_wordpool_576.txt	LTP250	ltpFR2	14	1	SHERIFF	1284	n/a	n/a	0	0	0
328.096	n/a	WORD	164048	wordpools/wasnorm_wordpool_576.txt	LTP250	ltpFR2	14	1	POLICE	1098	n/a	n/a	0	0	0
330.632	n/a	WORD	165316	wordpools/wasnorm_wordpool_576.txt	LTP250	ltpFR2	14	1	HAMPER	682	n/a	n/a	0	0	0
333.434	n/a	WORD	166717	wordpools/wasnorm_wordpool_576.txt	LTP250	ltpFR2	14	1	BUNNY	198	n/a	n/a	0	0	0
336.036	n/a	WORD	168018	wordpools/wasnorm_wordpool_576.txt	LTP250	ltpFR2	14	1	FRANCE	601	n/a	n/a	0	0	0
338.506	n/a	WORD	169253	wordpools/wasnorm_wordpool_576.txt	LTP250	ltpFR2	14	1	SUNRISE	1407	n/a	n/a	0	0	0
341.006	n/a	WORD	170503	wordpools/wasnorm_wordpool_576.txt	LTP250	ltpFR2	14	1	RUG	1215	n/a	n/a	0	0	0
343.494	n/a	WORD	171747	wordpools/wasnorm_wordpool_576.txt	LTP250	ltpFR2	14	1	SERVANT	1271	n/a	n/a	0	0	0
345.962	n/a	WORD	172981	wordpools/wasnorm_wordpool_576.txt	LTP250	ltpFR2	14	1	PLAYGROUND	1087	n/a	n/a	0	0	0
348.464	n/a	WORD	174232	wordpools/wasnorm_wordpool_576.txt	LTP250	ltpFR2	14	1	CLOTHES	327	n/a	n/a	0	0	0
351.216	n/a	WORD	175608	wordpools/wasnorm_wordpool_576.txt	LTP250	ltpFR2	14	1	GRAPE	654	n/a	n/a	0	0	0
353.868	n/a	WORD	176934	wordpools/wasnorm_wordpool_576.txt	LTP250	ltpFR2	14	1	BODY	145	n/a	n/a	0	0	0
356.604	n/a	WORD	178302	wordpools/wasnorm_wordpool_576.txt	LTP250	ltpFR2	14	1	MOP	916	n/a	n/a	0	0	0
358.222	n/a	START	179111	n/a	LTP250	ltpFR2	14	n/a	n/a	n/a	2	n/a	n/a	n/a	n/a
359.222	n/a	DISTRACTOR	179611	n/a	LTP250	ltpFR2	14	1	n/a	n/a	n/a	n/a	0	0	0
359.24	n/a	PROB	179620	n/a	LTP250	ltpFR2	14	n/a	n/a	n/a	2	8	2	5	1
362.776	n/a	PROB	181388	n/a	LTP250	ltpFR2	14	n/a	n/a	n/a	2	19	9	4	6
364.528	n/a	PROB	182264	n/a	LTP250	ltpFR2	14	n/a	n/a	n/a	2	22	9	8	5
369.198	n/a	PROB	184599	n/a	LTP250	ltpFR2	14	n/a	n/a	n/a	2	16	1	7	8
370.782	n/a	PROB	185391	n/a	LTP250	ltpFR2	14	n/a	n/a	n/a	2	7	2	3	2
372.902	n/a	PROB	186451	n/a	LTP250	ltpFR2	14	n/a	n/a	n/a	2	21	9	8	4
375.57	n/a	PROB	187785	n/a	LTP250	ltpFR2	14	n/a	n/a	n/a	2	19	1	9	9
377.288	n/a	PROB	188644	n/a	LTP250	ltpFR2	14	n/a	n/a	n/a	2	15	2	9	4
379.772	n/a	PROB	189886	n/a	LTP250	ltpFR2	14	n/a	n/a	n/a	2	12	1	5	6
381.14	n/a	STOP	190570	n/a	LTP250	ltpFR2	14	n/a	n/a	n/a	2	n/a	n/a	n/a	n/a
384.044	n/a	REC_START	192022	n/a	LTP250	ltpFR2	14	1	n/a	n/a	n/a	n/a	0	0	0
385.152	n/a	REC_WORD	192576	wordpools/wasnorm_wordpool_576.txt	LTP250	ltpFR2	14	1	BODY	145	n/a	n/a	0	0	0
385.788	n/a	REC_WORD	192894	wordpools/wasnorm_wordpool_576.txt	LTP250	ltpFR2	14	1	APRON	35	n/a	n/a	0	0	0
386.398	n/a	REC_WORD	193199	wordpools/wasnorm_wordpool_576.txt	LTP250	ltpFR2	14	1	CLOTHES	327	n/a	n/a	0	0	0
387.156	n/a	REC_WORD	193578	wordpools/wasnorm_wordpool_576.txt	LTP250	ltpFR2	14	1	SERVANT	1271	n/a	n/a	0	0	0
388.838	n/a	REC_WORD	194419	wordpools/wasnorm_wordpool_576.txt	LTP250	ltpFR2	14	1	MOP	916	n/a	n/a	0	0	0
389.658	n/a	REC_WORD	194829	wordpools/wasnorm_wordpool_576.txt	LTP250	ltpFR2	14	1	FLOOR	581	n/a	n/a	0	0	0
390.266	n/a	REC_WORD	195133	wordpools/wasnorm_wordpool_576.txt	LTP250	ltpFR2	14	1	RUG	1215	n/a	n/a	0	0	0
391.572	n/a	REC_WORD	195786	wordpools/wasnorm_wordpool_576.txt	LTP250	ltpFR2	14	1	COUCH	386	n/a	n/a	0	0	0
392.37	n/a	REC_WORD	196185	wordpools/wasnorm_wordpool_576.txt	LTP250	ltpFR2	14	1	DRESSER	496	n/a	n/a	0	0	0
393.01	n/a	REC_WORD	196505	wordpools/wasnorm_wordpool_576.txt	LTP250	ltpFR2	14	1	PLUTO	1092	n/a	n/a	0	0	0
393.608	n/a	REC_WORD	196804	wordpools/wasnorm_wordpool_576.txt	LTP250	ltpFR2	14	1	FRANCE	601	n/a	n/a	0	0	0
394.446	n/a	REC_WORD	197223	wordpools/wasnorm_wordpool_576.txt	LTP250	ltpFR2	14	1	GROUND	666	n/a	n/a	0	0	0
399.014	n/a	REC_WORD	199507	wordpools/wasnorm_wordpool_576.txt	LTP250	ltpFR2	14	1	ONION	977	n/a	n/a	0	0	0
399.668	n/a	REC_WORD	199834	wordpools/wasnorm_wordpool_576.txt	LTP250	ltpFR2	14	1	GRAPE	654	n/a	n/a	0	0	0
474.488	n/a	DISTRACTOR	237244	n/a	LTP250	ltpFR2	14	2	n/a	n/a	n/a	n/a	0	0	0
474.488	n/a	START	237244	n/a	LTP250	ltpFR2	14	n/a	n/a	n/a	3	n/a	n/a	n/a	n/a
474.504	n/a	PROB	237252	n/a	LTP250	ltpFR2	14	n/a	n/a	n/a	3	7	2	2	3
476.356	n/a	PROB	238178	n/a	LTP250	ltpFR2	14	n/a	n/a	n/a	3	13	5	8	1
478.424	n/a	PROB	239212	n/a	LTP250	ltpFR2	14	n/a	n/a	n/a	3	13	4	2	7
481.628	n/a	PROB	240814	n/a	LTP250	ltpFR2	14	n/a	n/a	n/a	3	16	2	7	7
483.378	n/a	PROB	241689	n/a	LTP250	ltpFR2	14	n/a	n/a	n/a	3	16	2	8	6
485.348	n/a	PROB	242674	n/a	LTP250	ltpFR2	14	n/a	n/a	n/a	3	9	2	6	1
487.298	n/a	PROB	243649	n/a	LTP250	ltpFR2	14	n/a	n/a	n/a	3	15	2	9	4
489.266	n/a	PROB	244633	n/a	LTP250	ltpFR2	14	n/a	n/a	n/a	3	10	1	7	2
492.57	n/a	PROB	246285	n/a	LTP250	ltpFR2	14	n/a	n/a	n/a	3	10	3	1	6
498.488	n/a	STOP	249244	n/a	LTP250	ltpFR2	14	n/a	n/a	n/a	3	n/a	n/a	n/a	n/a
499.644	n/a	WORD	249822	wordpools/wasnorm_wordpool_576.txt	LTP250	ltpFR2	14	2	CREATURE	403	n/a	n/a	0	0	0
502.294	n/a	WORD	251147	wordpools/wasnorm_wordpool_576.txt	LTP250	ltpFR2	14	2	TRIBE	1505	n/a	n/a	0	0	0
504.914	n/a	WORD	252457	wordpools/wasnorm_wordpool_576.txt	LTP250	ltpFR2	14	2	CONCERT	360	n/a	n/a	0	0	0
507.416	n/a	WORD	253708	wordpools/wasnorm_wordpool_576.txt	LTP250	ltpFR2	14	2	TEMPLE	1448	n/a	n/a	0	0	0
509.868	n/a	WORD	254934	wordpools/wasnorm_wordpool_576.txt	LTP250	ltpFR2	14	2	OFFICE	972	n/a	n/a	0	0	0
512.354	n/a	WORD	256177	wordpools/wasnorm_wordpool_576.txt	LTP250	ltpFR2	14	2	CRITIC	410	n/a	n/a	0	0	0
515.188	n/a	WORD	257594	wordpools/wasnorm_wordpool_576.txt	LTP250	ltpFR2	14	2	RIFLE	1192	n/a	n/a	0	0	0
518.008	n/a	WORD	259004	wordpools/wasnorm_wordpool_576.txt	LTP250	ltpFR2	14	2	EXPERT	543	n/a	n/a	0	0	0
520.51	n/a	WORD	260255	wordpools/wasnorm_wordpool_576.txt	LTP250	ltpFR2	14	2	CLIMBER	323	n/a	n/a	0	0	0
523.178	n/a	WORD	261589	wordpools/wasnorm_wordpool_576.txt	LTP250	ltpFR2	14	2	PISTOL	1075	n/a	n/a	0	0	0
525.948	n/a	WORD	262974	wordpools/wasnorm_wordpool_576.txt	LTP250	ltpFR2	14	2	ZEBRA	1635	n/a	n/a	0	0	0
528.766	n/a	WORD	264383	wordpools/wasnorm_wordpool_576.txt	LTP250	ltpFR2	14	2	OUTDOORS	987	n/a	n/a	0	0	0
531.252	n/a	WORD	265626	wordpools/wasnorm_wordpool_576.txt	LTP250	ltpFR2	14	2	UMPIRE	1535	n/a	n/a	0	0	0
533.704	n/a	WORD	266852	wordpools/wasnorm_wordpool_576.txt	LTP250	ltpFR2	14	2	GLOVE	642	n/a	n/a	0	0	0
536.358	n/a	WORD	268179	wordpools/wasnorm_wordpool_576.txt	LTP250	ltpFR2	14	2	BACON	67	n/a	n/a	0	0	0
539.142	n/a	WORD	269571	wordpools/wasnorm_wordpool_576.txt	LTP250	ltpFR2	14	2	SPHINX	1349	n/a	n/a	0	0	0
541.962	n/a	WORD	270981	wordpools/wasnorm_wordpool_576.txt	LTP250	ltpFR2	14	2	ATOM	55	n/a	n/a	0	0	0
544.482	n/a	WORD	272241	wordpools/wasnorm_wordpool_576.txt	LTP250	ltpFR2	14	2	NEUTRON	947	n/a	n/a	0	0	0
547.116	n/a	WORD	273558	wordpools/wasnorm_wordpool_576.txt	LTP250	ltpFR2	14	2	SWITCH	1422	n/a	n/a	0	0	0
549.902	n/a	WORD	274951	wordpools/wasnorm_wordpool_576.txt	LTP250	ltpFR2	14	2	MARSH	874	n/a	n/a	0	0	0
552.606	n/a	WORD	276303	wordpools/wasnorm_wordpool_576.txt	LTP250	ltpFR2	14	2	VICTIM	1562	n/a	n/a	0	0	0
555.34	n/a	WORD	277670	wordpools/wasnorm_wordpool_576.txt	LTP250	ltpFR2	14	2	OUTFIT	988	n/a	n/a	0	0	0
558.174	n/a	WORD	279087	wordpools/wasnorm_wordpool_576.txt	LTP250	ltpFR2	14	2	DRESS	495	n/a	n/a	0	0	0
560.96	n/a	WORD	280480	wordpools/wasnorm_wordpool_576.txt	LTP250	ltpFR2	14	2	BUGGY	188	n/a	n/a	0	0	0
562.58	n/a	START	281290	n/a	LTP250	ltpFR2	14	n/a	n/a	n/a	4	n/a	n/a	n/a	n/a
563.538	n/a	DISTRACTOR	281769	n/a	LTP250	ltpFR2	14	2	n/a	n/a	n/a	n/a	0	0	0
563.564	n/a	PROB	281782	n/a	LTP250	ltpFR2	14	n/a	n/a	n/a	4	8	1	3	4
566.748	n/a	PROB	283374	n/a	LTP250	ltpFR2	14	n/a	n/a	n/a	4	11	6	1	4
568.216	n/a	PROB	284108	n/a	LTP250	ltpFR2	14	n/a	n/a	n/a	4	14	3	4	7
570.068	n/a	PROB	285034	n/a	LTP250	ltpFR2	14	n/a	n/a	n/a	4	16	3	8	5
572.72	n/a	PROB	286360	n/a	LTP250	ltpFR2	14	n/a	n/a	n/a	4	14	5	5	4
574.34	n/a	PROB	287170	n/a	LTP250	ltpFR2	14	n/a	n/a	n/a	4	17	1	9	7
575.956	n/a	PROB	287978	n/a	LTP250	ltpFR2	14	n/a	n/a	n/a	4	12	1	7	5
580.194	n/a	PROB	290097	n/a	LTP250	ltpFR2	14	n/a	n/a	n/a	4	23	9	6	8
583.23	n/a	PROB	291615	n/a	LTP250	ltpFR2	14	n/a	n/a	n/a	4	12	6	2	4
586.08	n/a	STOP	293040	n/a	LTP250	ltpFR2	14	n/a	n/a	n/a	4	n/a	n/a	n/a	n/a
588.52	n/a	REC_START	294260	n/a	LTP250	ltpFR2	14	2	n/a	n/a	n/a	n/a	0	0	0
590.548	n/a	REC_WORD	295274	wordpools/wasnorm_wordpool_576.txt	LTP250	ltpFR2	14	2	CRITIC	410	n/a	n/a	0	0	0
591.21	n/a	REC_WORD	295605	wordpools/wasnorm_wordpool_576.txt	LTP250	ltpFR2	14	2	VICTIM	1562	n/a	n/a	0	0	0
592.008	n/a	REC_WORD	296004	wordpools/wasnorm_wordpool_576.txt	LTP250	ltpFR2	14	2	MARSH	874	n/a	n/a	0	0	0
592.824	n/a	REC_WORD	296412	wordpools/wasnorm_wordpool_576.txt	LTP250	ltpFR2	14	2	TEMPLE	1448	n/a	n/a	0	0	0
593.532	n/a	REC_WORD	296766	wordpools/wasnorm_wordpool_576.txt	LTP250	ltpFR2	14	2	BUGGY	188	n/a	n/a	0	0	0
594.182	n/a	REC_WORD	297091	wordpools/wasnorm_wordpool_576.txt	LTP250	ltpFR2	14	2	DRESS	495	n/a	n/a	0	0	0
594.892	n/a	REC_WORD	297446	wordpools/wasnorm_wordpool_576.txt	LTP250	ltpFR2	14	2	OUTFIT	988	n/a	n/a	0	0	0
596.364	n/a	REC_WORD	298182	wordpools/wasnorm_wordpool_576.txt	LTP250	ltpFR2	14	2	ATOM	55	n/a	n/a	0	0	0
597.162	n/a	REC_WORD	298581	wordpools/wasnorm_wordpool_576.txt	LTP250	ltpFR2	14	2	NEUTRON	947	n/a	n/a	0	0	0
602.97	n/a	REC_WORD	301485	wordpools/wasnorm_wordpool_576.txt	LTP250	ltpFR2	14	2	CONVICT	371	n/a	n/a	0	0	0
604.044	n/a	REC_WORD	302022	wordpools/wasnorm_wordpool_576.txt	LTP250	ltpFR2	14	2	CLIMBER	323	n/a	n/a	0	0	0
606.866	n/a	REC_WORD	303433	wordpools/wasnorm_wordpool_576.txt	LTP250	ltpFR2	14	2	PLAYGROUND	1087	n/a	n/a	0	0	0
607.718	n/a	REC_WORD	303859	wordpools/wasnorm_wordpool_576.txt	LTP250	ltpFR2	14	2	SLIDE	1326	n/a	n/a	0	0	0
678.978	n/a	WORD	339489	wordpools/wasnorm_wordpool_576.txt	LTP250	ltpFR2	14	3	BADGE	68	n/a	n/a	0	0	0
681.464	n/a	WORD	340732	wordpools/wasnorm_wordpool_576.txt	LTP250	ltpFR2	14	3	CANAL	226	n/a	n/a	0	0	0
684.166	n/a	WORD	342083	wordpools/wasnorm_wordpool_576.txt	LTP250	ltpFR2	14	3	HATCHET	691	n/a	n/a	0	0	0
686.918	n/a	WORD	343459	wordpools/wasnorm_wordpool_576.txt	LTP250	ltpFR2	14	3	STONE	1385	n/a	n/a	0	0	0
689.438	n/a	WORD	344719	wordpools/wasnorm_wordpool_576.txt	LTP250	ltpFR2	14	3	BRANCH	168	n/a	n/a	0	0	0
692.14	n/a	WORD	346070	wordpools/wasnorm_wordpool_576.txt	LTP250	ltpFR2	14	3	NIGHTGOWN	953	n/a	n/a	0	0	0
694.642	n/a	WORD	347321	wordpools/wasnorm_wordpool_576.txt	LTP250	ltpFR2	14	3	PEBBLE	1035	n/a	n/a	0	0	0
697.36	n/a	WORD	348680	wordpools/wasnorm_wordpool_576.txt	LTP250	ltpFR2	14	3	HEART	697	n/a	n/a	0	0	0
700.012	n/a	WORD	350006	wordpools/wasnorm_wordpool_576.txt	LTP250	ltpFR2	14	3	PARROT	1015	n/a	n/a	0	0	0
702.798	n/a	WORD	351399	wordpools/wasnorm_wordpool_576.txt	LTP250	ltpFR2	14	3	BACKBONE	66	n/a	n/a	0	0	0
705.45	n/a	WORD	352725	wordpools/wasnorm_wordpool_576.txt	LTP250	ltpFR2	14	3	LUMBER	848	n/a	n/a	0	0	0
708.168	n/a	WORD	354084	wordpools/wasnorm_wordpool_576.txt	LTP250	ltpFR2	14	3	RABBIT	1152	n/a	n/a	0	0	0
710.854	n/a	WORD	355427	wordpools/wasnorm_wordpool_576.txt	LTP250	ltpFR2	14	3	CLAMP	316	n/a	n/a	0	0	0
713.658	n/a	WORD	356829	wordpools/wasnorm_wordpool_576.txt	LTP250	ltpFR2	14	3	LEADER	807	n/a	n/a	0	0	0
716.11	n/a	WORD	358055	wordpools/wasnorm_wordpool_576.txt	LTP250	ltpFR2	14	3	WORKER	1621	n/a	n/a	0	0	0
718.794	n/a	WORD	359397	wordpools/wasnorm_wordpool_576.txt	LTP250	ltpFR2	14	3	HEADBAND	696	n/a	n/a	0	0	0
721.614	n/a	WORD	360807	wordpools/wasnorm_wordpool_576.txt	LTP250	ltpFR2	14	3	BUBBLE	183	n/a	n/a	0	0	0
724.368	n/a	WORD	362184	wordpools/wasnorm_wordpool_576.txt	LTP250	ltpFR2	14	3	BATHTUB	100	n/a	n/a	0	0	0
727.168	n/a	WORD	363584	wordpools/wasnorm_wordpool_576.txt	LTP250	ltpFR2	14	3	KITCHEN	778	n/a	n/a	0	0	0
729.972	n/a	WORD	364986	wordpools/wasnorm_wordpool_576.txt	LTP250	ltpFR2	14	3	COOK	372	n/a	n/a	0	0	0
732.706	n/a	WORD	366353	wordpools/wasnorm_wordpool_576.txt	LTP250	ltpFR2	14	3	CREVICE	405	n/a	n/a	0	0	0
735.176	n/a	WORD	367588	wordpools/wasnorm_wordpool_576.txt	LTP250	ltpFR2	14	3	SHELF	1280	n/a	n/a	0	0	0
737.928	n/a	WORD	368964	wordpools/wasnorm_wordpool_576.txt	LTP250	ltpFR2	14	3	BASEMENT	94	n/a	n/a	0	0	0
740.598	n/a	WORD	370299	wordpools/wasnorm_wordpool_576.txt	LTP250	ltpFR2	14	3	TORTOISE	1486	n/a	n/a	0	0	0
742.214	n/a	START	371107	n/a	LTP250	ltpFR2	14	n/a	n/a	n/a	5	n/a	n/a	n/a	n/a
743.194	n/a	DISTRACTOR	371597	n/a	LTP250	ltpFR2	14	3	n/a	n/a	n/a	n/a	0	0	0
743.216	n/a	PROB	371608	n/a	LTP250	ltpFR2	14	n/a	n/a	n/a	5	13	8	3	2
745.584	n/a	PROB	372792	n/a	LTP250	ltpFR2	14	n/a	n/a	n/a	5	10	3	2	5
747.386	n/a	PROB	373693	n/a	LTP250	ltpFR2	14	n/a	n/a	n/a	5	19	6	8	5
750.188	n/a	PROB	375094	n/a	LTP250	ltpFR2	14	n/a	n/a	n/a	5	19	5	6	8
753.358	n/a	PROB	376679	n/a	LTP250	ltpFR2	14	n/a	n/a	n/a	5	12	8	3	1
754.858	n/a	PROB	377429	n/a	LTP250	ltpFR2	14	n/a	n/a	n/a	5	22	7	6	9
761.298	n/a	PROB	380649	n/a	LTP250	ltpFR2	14	n/a	n/a	n/a	5	15	7	5	3
763.5	n/a	PROB	381750	n/a	LTP250	ltpFR2	14	n/a	n/a	n/a	5	17	7	1	9
765.084	n/a	STOP	382542	n/a	LTP250	ltpFR2	14	n/a	n/a	n/a	5	n/a	n/a	n/a	n/a
768.038	n/a	REC_START	384019	n/a	LTP250	ltpFR2	14	3	n/a	n/a	n/a	n/a	0	0	0
768.788	n/a	REC_WORD	384394	wordpools/wasnorm_wordpool_576.txt	LTP250	ltpFR2	14	3	BATHTUB	100	n/a	n/a	0	0	0
769.698	n/a	REC_WORD	384849	wordpools/wasnorm_wordpool_576.txt	LTP250	ltpFR2	14	3	TORTOISE	1486	n/a	n/a	0	0	0
770.676	n/a	REC_WORD	385338	wordpools/wasnorm_wordpool_576.txt	LTP250	ltpFR2	14	3	SHELF	1280	n/a	n/a	0	0	0
773.078	n/a	REC_WORD	386539	wordpools/wasnorm_wordpool_576.txt	LTP250	ltpFR2	14	3	PEBBLE	1035	n/a	n/a	0	0	0
773.748	n/a	REC_WORD	386874	wordpools/wasnorm_wordpool_576.txt	LTP250	ltpFR2	14	3	HEART	697	n/a	n/a	0	0	0
774.514	n/a	REC_WORD	387257	wordpools/wasnorm_wordpool_576.txt	LTP250	ltpFR2	14	3	BACKBONE	66	n/a	n/a	0	0	0
775.248	n/a	REC_WORD	387624	wordpools/wasnorm_wordpool_576.txt	LTP250	ltpFR2	14	3	LUMBER	848	n/a	n/a	0	0	0
777.222	n/a	REC_WORD	388611	wordpools/wasnorm_wordpool_576.txt	LTP250	ltpFR2	14	3	BUNNY	198	n/a	n/a	0	0	0
858.664	n/a	DISTRACTOR	429332	n/a	LTP250	ltpFR2	14	4	n/a	n/a	n/a	n/a	0	0	0
858.664	n/a	START	429332	n/a	LTP250	ltpFR2	14	n/a	n/a	n/a	6	n/a	n/a	n/a	n/a
858.698	n/a	PROB	429349	n/a	LTP250	ltpFR2	14	n/a	n/a	n/a	6	9	5	2	2
860.748	n/a	PROB	430374	n/a	LTP250	ltpFR2	14	n/a	n/a	n/a	6	10	3	1	6
862.268	n/a	PROB	431134	n/a	LTP250	ltpFR2	14	n/a	n/a	n/a	6	14	4	2	8
863.718	n/a	PROB	431859	n/a	LTP250	ltpFR2	14	n/a	n/a	n/a	6	18	4	5	9
865.688	n/a	PROB	432844	n/a	LTP250	ltpFR2	14	n/a	n/a	n/a	6	15	3	3	9
867.69	n/a	PROB	433845	n/a	LTP250	ltpFR2	14	n/a	n/a	n/a	6	14	8	3	3
870.808	n/a	PROB	435404	n/a	LTP250	ltpFR2	14	n/a	n/a	n/a	6	7	1	1	5
872.76	n/a	PROB	436380	n/a	LTP250	ltpFR2	14	n/a	n/a	n/a	6	13	5	3	5
874.646	n/a	PROB	437323	n/a	LTP250	ltpFR2	14	n/a	n/a	n/a	6	15	7	7	1
876.23	n/a	PROB	438115	n/a	LTP250	ltpFR2	14	n/a	n/a	n/a	6	8	5	1	2
878.464	n/a	PROB	439232	n/a	LTP250	ltpFR2	14	n/a	n/a	n/a	6	24	8	8	8
882.664	n/a	STOP	441332	n/a	LTP250	ltpFR2	14	n/a	n/a	n/a	6	n/a	n/a	n/a	n/a
883.486	n/a	WORD	441743	wordpools/wasnorm_wordpool_576.txt	LTP250	ltpFR2	14	4	FREEZER	604	n/a	n/a	0	0	0
885.986	n/a	WORD	442993	wordpools/wasnorm_wordpool_576.txt	LTP250	ltpFR2	14	4	BURGLAR	200	n/a	n/a	0	0	0
888.706	n/a	WORD	444353	wordpools/wasnorm_wordpool_576.txt	LTP250	ltpFR2	14	4	SUSPECT	1415	n/a	n/a	0	0	0
891.492	n/a	WORD	445746	wordpools/wasnorm_wordpool_576.txt	LTP250	ltpFR2	14	4	SNAIL	1332	n/a	n/a	0	0	0
893.96	n/a	WORD	446980	wordpools/wasnorm_wordpool_576.txt	LTP250	ltpFR2	14	4	MASK	876	n/a	n/a	0	0	0
896.646	n/a	WORD	448323	wordpools/wasnorm_wordpool_576.txt	LTP250	ltpFR2	14	4	TROUT	1511	n/a	n/a	0	0	0
899.432	n/a	WORD	449716	wordpools/wasnorm_wordpool_576.txt	LTP250	ltpFR2	14	4	CHURCH	307	n/a	n/a	0	0	0
901.968	n/a	WORD	450984	wordpools/wasnorm_wordpool_576.txt	LTP250	ltpFR2	14	4	FOREHEAD	592	n/a	n/a	0	0	0
904.752	n/a	WORD	452376	wordpools/wasnorm_wordpool_576.txt	LTP250	ltpFR2	14	4	GUARD	667	n/a	n/a	0	0	0
907.306	n/a	WORD	453653	wordpools/wasnorm_wordpool_576.txt	LTP250	ltpFR2	14	4	BANJO	82	n/a	n/a	0	0	0
909.808	n/a	WORD	454904	wordpools/wasnorm_wordpool_576.txt	LTP250	ltpFR2	14	4	FIREMAN	569	n/a	n/a	0	0	0
912.61	n/a	WORD	456305	wordpools/wasnorm_wordpool_576.txt	LTP250	ltpFR2	14	4	COSTUME	383	n/a	n/a	0	0	0
915.228	n/a	WORD	457614	wordpools/wasnorm_wordpool_576.txt	LTP250	ltpFR2	14	4	PIMPLE	1071	n/a	n/a	0	0	0
917.882	n/a	WORD	458941	wordpools/wasnorm_wordpool_576.txt	LTP250	ltpFR2	14	4	FINGER	567	n/a	n/a	0	0	0
920.634	n/a	WORD	460317	wordpools/wasnorm_wordpool_576.txt	LTP250	ltpFR2	14	4	DRAGON	492	n/a	n/a	0	0	0
923.152	n/a	WORD	461576	wordpools/wasnorm_wordpool_576.txt	LTP250	ltpFR2	14	4	PERMIT	1051	n/a	n/a	0	0	0
925.888	n/a	WORD	462944	wordpools/wasnorm_wordpool_576.txt	LTP250	ltpFR2	14	4	GRIZZLY	662	n/a	n/a	0	0	0
928.374	n/a	WORD	464187	wordpools/wasnorm_wordpool_576.txt	LTP250	ltpFR2	14	4	CRAB	397	n/a	n/a	0	0	0
931.074	n/a	WORD	465537	wordpools/wasnorm_wordpool_576.txt	LTP250	ltpFR2	14	4	CELLAR	267	n/a	n/a	0	0	0
933.878	n/a	WORD	466939	wordpools/wasnorm_wordpool_576.txt	LTP250	ltpFR2	14	4	COUNTRY	388	n/a	n/a	0	0	0
936.53	n/a	WORD	468265	wordpools/wasnorm_wordpool_576.txt	LTP250	ltpFR2	14	4	PERFUME	1049	n/a	n/a	0	0	0
939.016	n/a	WORD	469508	wordpools/wasnorm_wordpool_576.txt	LTP250	ltpFR2	14	4	FRAGRANCE	599	n/a	n/a	0	0	0
941.618	n/a	WORD	470809	wordpools/wasnorm_wordpool_576.txt	LTP250	ltpFR2	14	4	FILM	565	n/a	n/a	0	0	0
944.12	n/a	WORD	472060	wordpools/wasnorm_wordpool_576.txt	LTP250	ltpFR2	14	4	INFANT	737	n/a	n/a	0	0	0
945.738	n/a	START	472869	n/a	LTP250	ltpFR2	14	n/a	n/a	n/a	7	n/a	n/a	n/a	n/a
946.934	n/a	DISTRACTOR	473467	n/a	LTP250	ltpFR2	14	4	n/a	n/a	n/a	n/a	0	0	0
946.956	n/a	PROB	473478	n/a	LTP250	ltpFR2	14	n/a	n/a	n/a	7	13	5	6	2
951.06	n/a	PROB	475530	n/a	LTP250	ltpFR2	14	n/a	n/a	n/a	7	13	3	5	5
952.612	n/a	PROB	476306	n/a	LTP250	ltpFR2	14	n/a	n/a	n/a	7	8	5	1	2
954.596	n/a	PROB	477298	n/a	LTP250	ltpFR2	14	n/a	n/a	n/a	7	20	6	5	9
956.798	n/a	PROB	478399	n/a	LTP250	ltpFR2	14	n/a	n/a	n/a	7	11	2	4	5
964.704	n/a	PROB	482352	n/a	LTP250	ltpFR2	14	n/a	n/a	n/a	7	20	5	8	7
967.122	n/a	PROB	483561	n/a	LTP250	ltpFR2	14	n/a	n/a	n/a	7	20	7	6	7
969.184	n/a	STOP	484592	n/a	LTP250	ltpFR2	14	n/a	n/a	n/a	7	n/a	n/a	n/a	n/a
971.61	n/a	REC_START	485805	n/a	LTP250	ltpFR2	14	4	n/a	n/a	n/a	n/a	0	0	0
975.426	n/a	REC_WORD	487713	wordpools/wasnorm_wordpool_576.txt	LTP250	ltpFR2	14	4	INFANT	737	n/a	n/a	0	0	0
976.114	n/a	REC_WORD	488057	wordpools/wasnorm_wordpool_576.txt	LTP250	ltpFR2	14	4	FRAGRANT	-1	n/a	n/a	0	0	0
976.948	n/a	REC_WORD	488474	wordpools/wasnorm_wordpool_576.txt	LTP250	ltpFR2	14	4	FIELD	562	n/a	n/a	0	0	0
983.732	n/a	REC_WORD	491866	wordpools/wasnorm_wordpool_576.txt	LTP250	ltpFR2	14	4	CHURCH	307	n/a	n/a	0	0	0
987.846	n/a	REC_WORD	493923	wordpools/wasnorm_wordpool_576.txt	LTP250	ltpFR2	14	4	GROUND	666	n/a	n/a	0	0	0
1062.252	n/a	DISTRACTOR	531126	n/a	LTP250	ltpFR2	14	5	n/a	n/a	n/a	n/a	0	0	0
1062.254	n/a	START	531127	n/a	LTP250	ltpFR2	14	n/a	n/a	n/a	8	n/a	n/a	n/a	n/a
1062.286	n/a	PROB	531143	n/a	LTP250	ltpFR2	14	n/a	n/a	n/a	8	20	9	5	6
1064.822	n/a	PROB	532411	n/a	LTP250	ltpFR2	14	n/a	n/a	n/a	8	16	2	5	9
1067.742	n/a	PROB	533871	n/a	LTP250	ltpFR2	14	n/a	n/a	n/a	8	11	2	8	1
1069.394	n/a	PROB	534697	n/a	LTP250	ltpFR2	14	n/a	n/a	n/a	8	19	9	9	1
1086.254	n/a	STOP	543127	n/a	LTP250	ltpFR2	14	n/a	n/a	n/a	8	n/a	n/a	n/a	n/a
1087.326	n/a	WORD	543663	wordpools/wasnorm_wordpool_576.txt	LTP250	ltpFR2	14	5	IDOL	733	n/a	n/a	0	0	0
1089.978	n/a	WORD	544989	wordpools/wasnorm_wordpool_576.txt	LTP250	ltpFR2	14	5	TRACTOR	1493	n/a	n/a	0	0	0
1092.746	n/a	WORD	546373	wordpools/wasnorm_wordpool_576.txt	LTP250	ltpFR2	14	5	SCRIBBLE	1256	n/a	n/a	0	0	0
1095.45	n/a	WORD	547725	wordpools/wasnorm_wordpool_576.txt	LTP250	ltpFR2	14	5	MOTEL	919	n/a	n/a	0	0	0
1098.068	n/a	WORD	549034	wordpools/wasnorm_wordpool_576.txt	LTP250	ltpFR2	14	5	SPOOL	1356	n/a	n/a	0	0	0
1100.67	n/a	WORD	550335	wordpools/wasnorm_wordpool_576.txt	LTP250	ltpFR2	14	5	SLOPE	1328	n/a	n/a	0	0	0
1103.156	n/a	WORD	551578	wordpools/wasnorm_wordpool_576.txt	LTP250	ltpFR2	14	5	WARDROBE	1587	n/a	n/a	0	0	0
1105.706	n/a	WORD	552853	wordpools/wasnorm_wordpool_576.txt	LTP250	ltpFR2	14	5	COCKTAIL	338	n/a	n/a	0	0	0
1108.344	n/a	WORD	554172	wordpools/wasnorm_wordpool_576.txt	LTP250	ltpFR2	14	5	FLASK	576	n/a	n/a	0	0	0
1111.112	n/a	WORD	555556	wordpools/wasnorm_wordpool_576.txt	LTP250	ltpFR2	14	5	HERO	706	n/a	n/a	0	0	0
1113.746	n/a	WORD	556873	wordpools/wasnorm_wordpool_576.txt	LTP250	ltpFR2	14	5	POISON	1096	n/a	n/a	0	0	0
1116.166	n/a	WORD	558083	wordpools/wasnorm_wordpool_576.txt	LTP250	ltpFR2	14	5	SNAKE	1333	n/a	n/a	0	0	0
1118.684	n/a	WORD	559342	wordpools/wasnorm_wordpool_576.txt	LTP250	ltpFR2	14	5	LASER	801	n/a	n/a	0	0	0
1121.136	n/a	WORD	560568	wordpools/wasnorm_wordpool_576.txt	LTP250	ltpFR2	14	5	STAPLE	1371	n/a	n/a	0	0	0
1123.706	n/a	WORD	561853	wordpools/wasnorm_wordpool_576.txt	LTP250	ltpFR2	14	5	DAUGHTER	442	n/a	n/a	0	0	0
1126.224	n/a	WORD	563112	wordpools/wasnorm_wordpool_576.txt	LTP250	ltpFR2	14	5	BIKE	125	n/a	n/a	0	0	0
1129.026	n/a	WORD	564513	wordpools/wasnorm_wordpool_576.txt	LTP250	ltpFR2	14	5	LEG	809	n/a	n/a	0	0	0
1131.73	n/a	WORD	565865	wordpools/wasnorm_wordpool_576.txt	LTP250	ltpFR2	14	5	SISTER	1312	n/a	n/a	0	0	0
1134.248	n/a	WORD	567124	wordpools/wasnorm_wordpool_576.txt	LTP250	ltpFR2	14	5	WASHER	1592	n/a	n/a	0	0	0
1136.884	n/a	WORD	568442	wordpools/wasnorm_wordpool_576.txt	LTP250	ltpFR2	14	5	CATTLE	261	n/a	n/a	0	0	0
1139.604	n/a	WORD	569802	wordpools/wasnorm_wordpool_576.txt	LTP250	ltpFR2	14	5	MISTER	901	n/a	n/a	0	0	0
1142.422	n/a	WORD	571211	wordpools/wasnorm_wordpool_576.txt	LTP250	ltpFR2	14	5	JELLY	755	n/a	n/a	0	0	0
1145.192	n/a	WORD	572596	wordpools/wasnorm_wordpool_576.txt	LTP250	ltpFR2	14	5	CEILING	265	n/a	n/a	0	0	0
1147.71	n/a	WORD	573855	wordpools/wasnorm_wordpool_576.txt	LTP250	ltpFR2	14	5	ARM	38	n/a	n/a	0	0	0
1149.328	n/a	START	574664	n/a	LTP250	ltpFR2	14	n/a	n/a	n/a	9	n/a	n/a	n/a	n/a
1150.23	n/a	DISTRACTOR	575115	n/a	LTP250	ltpFR2	14	5	n/a	n/a	n/a	n/a	0	0	0
1150.244	n/a	PROB	575122	n/a	LTP250	ltpFR2	14	n/a	n/a	n/a	9	19	8	3	8
1152.996	n/a	PROB	576498	n/a	LTP250	ltpFR2	14	n/a	n/a	n/a	9	17	4	5	8
1156.468	n/a	PROB	578234	n/a	LTP250	ltpFR2	14	n/a	n/a	n/a	9	14	9	2	3
1158.952	n/a	PROB	579476	n/a	LTP250	ltpFR2	14	n/a	n/a	n/a	9	17	6	8	3
1161.872	n/a	PROB	580936	n/a	LTP250	ltpFR2	14	n/a	n/a	n/a	9	21	6	9	6
1164.34	n/a	PROB	582170	n/a	LTP250	ltpFR2	14	n/a	n/a	n/a	9	21	9	3	9
1167.46	n/a	PROB	583730	n/a	LTP250	ltpFR2	14	n/a	n/a	n/a	9	15	2	7	6
1169.778	n/a	PROB	584889	n/a	LTP250	ltpFR2	14	n/a	n/a	n/a	9	21	8	5	8
1171.924	n/a	STOP	585962	n/a	LTP250	ltpFR2	14	n/a	n/a	n/a	9	n/a	n/a	n/a	n/a
1175.25	n/a	REC_START	587625	n/a	LTP250	ltpFR2	14	5	n/a	n/a	n/a	n/a	0	0	0
1176.1	n/a	REC_WORD	588050	wordpools/wasnorm_wordpool_576.txt	LTP250	ltpFR2	14	5	CEILING	265	n/a	n/a	0	0	0
1176.824	n/a	REC_WORD	588412	wordpools/wasnorm_wordpool_576.txt	LTP250	ltpFR2	14	5	ARM	38	n/a	n/a	0	0	0
1177.426	n/a	REC_WORD	588713	wordpools/wasnorm_wordpool_576.txt	LTP250	ltpFR2	14	5	JELLY	755	n/a	n/a	0	0	0
1178.096	n/a	REC_WORD	589048	wordpools/wasnorm_wordpool_576.txt	LTP250	ltpFR2	14	5	LEG	809	n/a	n/a	0	0	0
1180.622	n/a	REC_WORD	590311	wordpools/wasnorm_wordpool_576.txt	LTP250	ltpFR2	14	5	CYCLE	-1	n/a	n/a	0	0	0
1192.536	n/a	REC_WORD	596268	wordpools/wasnorm_wordpool_576.txt	LTP250	ltpFR2	14	5	GORILLA	650	n/a	n/a	0	0	0
1265.876	n/a	DISTRACTOR	632938	n/a	LTP250	ltpFR2	14	6	n/a	n/a	n/a	n/a	0	0	0
1265.876	n/a	START	632938	n/a	LTP250	ltpFR2	14	n/a	n/a	n/a	10	n/a	n/a	n/a	n/a
1265.91	n/a	PROB	632955	n/a	LTP250	ltpFR2	14	n/a	n/a	n/a	10	16	5	9	2
1269.598	n/a	PROB	634799	n/a	LTP250	ltpFR2	14	n/a	n/a	n/a	10	11	2	7	2
1272.032	n/a	PROB	636016	n/a	LTP250	ltpFR2	14	n/a	n/a	n/a	10	15	6	8	1
1275.352	n/a	PROB	637676	n/a	LTP250	ltpFR2	14	n/a	n/a	n/a	10	9	2	1	6
1277.37	n/a	PROB	638685	n/a	LTP250	ltpFR2	14	n/a	n/a	n/a	10	14	8	5	1
1284.042	n/a	PROB	642021	n/a	LTP250	ltpFR2	14	n/a	n/a	n/a	10	17	5	9	3
1289.876	n/a	STOP	644938	n/a	LTP250	ltpFR2	14	n/a	n/a	n/a	10	n/a	n/a	n/a	n/a
1290.78	n/a	WORD	645390	wordpools/wasnorm_wordpool_576.txt	LTP250	ltpFR2	14	6	WRIST	1626	n/a	n/a	0	0	0
1293.434	n/a	WORD	646717	wordpools/wasnorm_wordpool_576.txt	LTP250	ltpFR2	14	6	MOTOR	922	n/a	n/a	0	0	0
1296.002	n/a	WORD	648001	wordpools/wasnorm_wordpool_576.txt	LTP250	ltpFR2	14	6	SLUG	1329	n/a	n/a	0	0	0
1298.488	n/a	WORD	649244	wordpools/wasnorm_wordpool_576.txt	LTP250	ltpFR2	14	6	LIZARD	834	n/a	n/a	0	0	0
1301.19	n/a	WORD	650595	wordpools/wasnorm_wordpool_576.txt	LTP250	ltpFR2	14	6	CHAPEL	280	n/a	n/a	0	0	0
1303.992	n/a	WORD	651996	wordpools/wasnorm_wordpool_576.txt	LTP250	ltpFR2	14	6	BANQUET	86	n/a	n/a	0	0	0
1306.662	n/a	WORD	653331	wordpools/wasnorm_wordpool_576.txt	LTP250	ltpFR2	14	6	WAITRESS	1581	n/a	n/a	0	0	0
1309.246	n/a	WORD	654623	wordpools/wasnorm_wordpool_576.txt	LTP250	ltpFR2	14	6	BOX	159	n/a	n/a	0	0	0
1311.932	n/a	WORD	655966	wordpools/wasnorm_wordpool_576.txt	LTP250	ltpFR2	14	6	HANDBAG	684	n/a	n/a	0	0	0
1314.552	n/a	WORD	657276	wordpools/wasnorm_wordpool_576.txt	LTP250	ltpFR2	14	6	CAMEL	223	n/a	n/a	0	0	0
1317.236	n/a	WORD	658618	wordpools/wasnorm_wordpool_576.txt	LTP250	ltpFR2	14	6	CIGAR	308	n/a	n/a	0	0	0
1319.806	n/a	WORD	659903	wordpools/wasnorm_wordpool_576.txt	LTP250	ltpFR2	14	6	WAGON	1578	n/a	n/a	0	0	0
1322.258	n/a	WORD	661129	wordpools/wasnorm_wordpool_576.txt	LTP250	ltpFR2	14	6	LOVER	846	n/a	n/a	0	0	0
1324.876	n/a	WORD	662438	wordpools/wasnorm_wordpool_576.txt	LTP250	ltpFR2	14	6	DASHBOARD	441	n/a	n/a	0	0	0
1327.314	n/a	WORD	663657	wordpools/wasnorm_wordpool_576.txt	LTP250	ltpFR2	14	6	ITEM	746	n/a	n/a	0	0	0
1330.114	n/a	WORD	665057	wordpools/wasnorm_wordpool_576.txt	LTP250	ltpFR2	14	6	HOOD	714	n/a	n/a	0	0	0
1332.85	n/a	WORD	666425	wordpools/wasnorm_wordpool_576.txt	LTP250	ltpFR2	14	6	PARTNER	1017	n/a	n/a	0	0	0
1335.302	n/a	WORD	667651	wordpools/wasnorm_wordpool_576.txt	LTP250	ltpFR2	14	6	CONTRACT	368	n/a	n/a	0	0	0
1337.888	n/a	WORD	668944	wordpools/wasnorm_wordpool_576.txt	LTP250	ltpFR2	14	6	SADDLE	1221	n/a	n/a	0	0	0
1340.524	n/a	WORD	670262	wordpools/wasnorm_wordpool_576.txt	LTP250	ltpFR2	14	6	SPOUSE	1358	n/a	n/a	0	0	0
1343.36	n/a	WORD	671680	wordpools/wasnorm_wordpool_576.txt	LTP250	ltpFR2	14	6	BEAVER	109	n/a	n/a	0	0	0
1345.96	n/a	WORD	672980	wordpools/wasnorm_wordpool_576.txt	LTP250	ltpFR2	14	6	CHEMIST	292	n/a	n/a	0	0	0
1348.598	n/a	WORD	674299	wordpools/wasnorm_wordpool_576.txt	LTP250	ltpFR2	14	6	SUITCASE	1403	n/a	n/a	0	0	0
1351.366	n/a	WORD	675683	wordpools/wasnorm_wordpool_576.txt	LTP250	ltpFR2	14	6	UNCLE	1536	n/a	n/a	0	0	0
1352.984	n/a	START	676492	n/a	LTP250	ltpFR2	14	n/a	n/a	n/a	11	n/a	n/a	n/a	n/a
1354.178	n/a	DISTRACTOR	677089	n/a	LTP250	ltpFR2	14	6	n/a	n/a	n/a	n/a	0	0	0
1354.184	n/a	PROB	677092	n/a	LTP250	ltpFR2	14	n/a	n/a	n/a	11	13	2	6	5
1357.472	n/a	PROB	678736	n/a	LTP250	ltpFR2	14	n/a	n/a	n/a	11	5	1	3	1
1359.006	n/a	PROB	679503	n/a	LTP250	ltpFR2	14	n/a	n/a	n/a	11	12	2	3	7
1360.608	n/a	PROB	680304	n/a	LTP250	ltpFR2	14	n/a	n/a	n/a	11	16	8	4	4
1362.96	n/a	PROB	681480	n/a	LTP250	ltpFR2	14	n/a	n/a	n/a	11	16	6	1	9
1364.844	n/a	PROB	682422	n/a	LTP250	ltpFR2	14	n/a	n/a	n/a	11	14	4	5	5
1366.43	n/a	PROB	683215	n/a	LTP250	ltpFR2	14	n/a	n/a	n/a	11	9	2	6	1
1368.414	n/a	PROB	684207	n/a	LTP250	ltpFR2	14	n/a	n/a	n/a	11	22	6	9	7
1370.35	n/a	PROB	685175	n/a	LTP250	ltpFR2	14	n/a	n/a	n/a	11	9	3	5	1
1372.684	n/a	PROB	686342	n/a	LTP250	ltpFR2	14	n/a	n/a	n/a	11	17	8	4	5
1376.982	n/a	STOP	688491	n/a	LTP250	ltpFR2	14	n/a	n/a	n/a	11	n/a	n/a	n/a	n/a
1378.756	n/a	REC_START	689378	n/a	LTP250	ltpFR2	14	6	n/a	n/a	n/a	n/a	0	0	0
1379.558	n/a	REC_WORD	689779	wordpools/wasnorm_wordpool_576.txt	LTP250	ltpFR2	14	6	CONVICT	371	n/a	n/a	0	0	0
1380.288	n/a	REC_WORD	690144	wordpools/wasnorm_wordpool_576.txt	LTP250	ltpFR2	14	6	SPOUSE	1358	n/a	n/a	0	0	0
1381.188	n/a	REC_WORD	690594	wordpools/wasnorm_wordpool_576.txt	LTP250	ltpFR2	14	6	BEAVER	109	n/a	n/a	0	0	0
1381.954	n/a	REC_WORD	690977	wordpools/wasnorm_wordpool_576.txt	LTP250	ltpFR2	14	6	UNCLE	1536	n/a	n/a	0	0	0
1383.258	n/a	REC_WORD	691629	wordpools/wasnorm_wordpool_576.txt	LTP250	ltpFR2	14	6	CHEMIST	292	n/a	n/a	0	0	0
1392.12	n/a	REC_WORD	696060	wordpools/wasnorm_wordpool_576.txt	LTP250	ltpFR2	14	6	RANCH	1166	n/a	n/a	0	0	0
1397.584	n/a	REC_WORD	698792	wordpools/wasnorm_wordpool_576.txt	LTP250	ltpFR2	14	6	LOVER	846	n/a	n/a	0	0	0
1469.316	n/a	WORD	734658	wordpools/wasnorm_wordpool_576.txt	LTP250	ltpFR2	14	7	RAZOR	1171	n/a	n/a	0	0	0
1471.918	n/a	WORD	735959	wordpools/wasnorm_wordpool_576.txt	LTP250	ltpFR2	14	7	IGLOO	734	n/a	n/a	0	0	0
1474.438	n/a	WORD	737219	wordpools/wasnorm_wordpool_576.txt	LTP250	ltpFR2	14	7	KLEENEX	782	n/a	n/a	0	0	0
1477.106	n/a	WORD	738553	wordpools/wasnorm_wordpool_576.txt	LTP250	ltpFR2	14	7	CONVICT	371	n/a	n/a	0	0	0
1479.642	n/a	WORD	739821	wordpools/wasnorm_wordpool_576.txt	LTP250	ltpFR2	14	7	KNIFE	785	n/a	n/a	0	0	0
1482.444	n/a	WORD	741222	wordpools/wasnorm_wordpool_576.txt	LTP250	ltpFR2	14	7	SHOVEL	1295	n/a	n/a	0	0	0
1485.012	n/a	WORD	742506	wordpools/wasnorm_wordpool_576.txt	LTP250	ltpFR2	14	7	FARMER	553	n/a	n/a	0	0	0
1487.6	n/a	WORD	743800	wordpools/wasnorm_wordpool_576.txt	LTP250	ltpFR2	14	7	FLAG	573	n/a	n/a	0	0	0
1490.034	n/a	WORD	745017	wordpools/wasnorm_wordpool_576.txt	LTP250	ltpFR2	14	7	MISSILE	900	n/a	n/a	0	0	0
1492.654	n/a	WORD	746327	wordpools/wasnorm_wordpool_576.txt	LTP250	ltpFR2	14	7	CATCHER	258	n/a	n/a	0	0	0
1495.306	n/a	WORD	747653	wordpools/wasnorm_wordpool_576.txt	LTP250	ltpFR2	14	7	REBEL	1172	n/a	n/a	0	0	0
1498.124	n/a	WORD	749062	wordpools/wasnorm_wordpool_576.txt	LTP250	ltpFR2	14	7	HONEY	713	n/a	n/a	0	0	0
1500.692	n/a	WORD	750346	wordpools/wasnorm_wordpool_576.txt	LTP250	ltpFR2	14	7	COIN	343	n/a	n/a	0	0	0
1503.462	n/a	WORD	751731	wordpools/wasnorm_wordpool_576.txt	LTP250	ltpFR2	14	7	CAPTIVE	240	n/a	n/a	0	0	0
1505.948	n/a	WORD	752974	wordpools/wasnorm_wordpool_576.txt	LTP250	ltpFR2	14	7	WAITER	1580	n/a	n/a	0	0	0
1508.484	n/a	WORD	754242	wordpools/wasnorm_wordpool_576.txt	LTP250	ltpFR2	14	7	COOKBOOK	373	n/a	n/a	0	0	0
1511.052	n/a	WORD	755526	wordpools/wasnorm_wordpool_576.txt	LTP250	ltpFR2	14	7	TUTU	1524	n/a	n/a	0	0	0
1513.504	n/a	WORD	756752	wordpools/wasnorm_wordpool_576.txt	LTP250	ltpFR2	14	7	TRENCH	1503	n/a	n/a	0	0	0
1516.256	n/a	WORD	758128	wordpools/wasnorm_wordpool_576.txt	LTP250	ltpFR2	14	7	WHISTLE	1606	n/a	n/a	0	0	0
1518.824	n/a	WORD	759412	wordpools/wasnorm_wordpool_576.txt	LTP250	ltpFR2	14	7	MARKET	871	n/a	n/a	0	0	0
1521.444	n/a	WORD	760722	wordpools/wasnorm_wordpool_576.txt	LTP250	ltpFR2	14	7	TREAT	1501	n/a	n/a	0	0	0
1524.096	n/a	WORD	762048	wordpools/wasnorm_wordpool_576.txt	LTP250	ltpFR2	14	7	CANDY	230	n/a	n/a	0	0	0
1526.732	n/a	WORD	763366	wordpools/wasnorm_wordpool_576.txt	LTP250	ltpFR2	14	7	ROCKET	1202	n/a	n/a	0	0	0
1529.418	n/a	WORD	764709	wordpools/wasnorm_wordpool_576.txt	LTP250	ltpFR2	14	7	PUDDLE	1140	n/a	n/a	0	0	0
1531.036	n/a	START	765518	n/a	LTP250	ltpFR2	14	n/a	n/a	n/a	12	n/a	n/a	n/a	n/a
1532.202	n/a	DISTRACTOR	766101	n/a	LTP250	ltpFR2	14	7	n/a	n/a	n/a	n/a	0	0	0
1532.22	n/a	PROB	766110	n/a	LTP250	ltpFR2	14	n/a	n/a	n/a	12	15	7	2	6
1535.524	n/a	PROB	767762	n/a	LTP250	ltpFR2	14	n/a	n/a	n/a	12	15	9	5	1
1537.09	n/a	PROB	768545	n/a	LTP250	ltpFR2	14	n/a	n/a	n/a	12	22	6	9	7
1539.992	n/a	PROB	769996	n/a	LTP250	ltpFR2	14	n/a	n/a	n/a	12	14	4	2	8
1541.578	n/a	PROB	770789	n/a	LTP250	ltpFR2	14	n/a	n/a	n/a	12	6	1	3	2
1543.83	n/a	PROB	771915	n/a	LTP250	ltpFR2	14	n/a	n/a	n/a	12	17	9	4	4
1546.916	n/a	PROB	773458	n/a	LTP250	ltpFR2	14	n/a	n/a	n/a	12	18	8	5	5
1548.868	n/a	PROB	774434	n/a	LTP250	ltpFR2	14	n/a	n/a	n/a	12	16	3	7	6
1550.52	n/a	PROB	775260	n/a	LTP250	ltpFR2	14	n/a	n/a	n/a	12	11	2	2	7
1555.036	n/a	STOP	777518	n/a	LTP250	ltpFR2	14	n/a	n/a	n/a	12	n/a	n/a	n/a	n/a
1556.926	n/a	REC_START	778463	n/a	LTP250	ltpFR2	14	7	n/a	n/a	n/a	n/a	0	0	0
1559.292	n/a	REC_WORD	779646	wordpools/wasnorm_wordpool_576.txt	LTP250	ltpFR2	14	7	WHISTLE	1606	n/a	n/a	0	0	0
1559.872	n/a	REC_WORD	779936	wordpools/wasnorm_wordpool_576.txt	LTP250	ltpFR2	14	7	TRENCH	1503	n/a	n/a	0	0	0
1565.052	n/a	REC_WORD	782526	wordpools/wasnorm_wordpool_576.txt	LTP250	ltpFR2	14	7	CAPTIVE	240	n/a	n/a	0	0	0
1567.862	n/a	REC_WORD	783931	wordpools/wasnorm_wordpool_576.txt	LTP250	ltpFR2	14	7	TREAT	1501	n/a	n/a	0	0	0
1647.386	n/a	WORD	823693	wordpools/wasnorm_wordpool_576.txt	LTP250	ltpFR2	14	8	SCARECROW	1245	n/a	n/a	0	0	0
1649.97	n/a	WORD	824985	wordpools/wasnorm_wordpool_576.txt	LTP250	ltpFR2	14	8	TWIG	1527	n/a	n/a	0	0	0
1652.556	n/a	WORD	826278	wordpools/wasnorm_wordpool_576.txt	LTP250	ltpFR2	14	8	PRIMATE	1123	n/a	n/a	0	0	0
1655.342	n/a	WORD	827671	wordpools/wasnorm_wordpool_576.txt	LTP250	ltpFR2	14	8	SCOTCH	1251	n/a	n/a	0	0	0
1657.792	n/a	WORD	828896	wordpools/wasnorm_wordpool_576.txt	LTP250	ltpFR2	14	8	ORANGE	980	n/a	n/a	0	0	0
1660.53	n/a	WORD	830265	wordpools/wasnorm_wordpool_576.txt	LTP250	ltpFR2	14	8	PASTA	1021	n/a	n/a	0	0	0
1663.014	n/a	WORD	831507	wordpools/wasnorm_wordpool_576.txt	LTP250	ltpFR2	14	8	CROWN	415	n/a	n/a	0	0	0
1665.766	n/a	WORD	832883	wordpools/wasnorm_wordpool_576.txt	LTP250	ltpFR2	14	8	COD	340	n/a	n/a	0	0	0
1668.486	n/a	WORD	834243	wordpools/wasnorm_wordpool_576.txt	LTP250	ltpFR2	14	8	BINDER	127	n/a	n/a	0	0	0
1671.02	n/a	WORD	835510	wordpools/wasnorm_wordpool_576.txt	LTP250	ltpFR2	14	8	REPORT	1184	n/a	n/a	0	0	0
1673.674	n/a	WORD	836837	wordpools/wasnorm_wordpool_576.txt	LTP250	ltpFR2	14	8	CASHIER	254	n/a	n/a	0	0	0
1676.208	n/a	WORD	838104	wordpools/wasnorm_wordpool_576.txt	LTP250	ltpFR2	14	8	BANKER	84	n/a	n/a	0	0	0
1678.828	n/a	WORD	839414	wordpools/wasnorm_wordpool_576.txt	LTP250	ltpFR2	14	8	COMPASS	358	n/a	n/a	0	0	0
1681.63	n/a	WORD	840815	wordpools/wasnorm_wordpool_576.txt	LTP250	ltpFR2	14	8	FOREST	593	n/a	n/a	0	0	0
1684.132	n/a	WORD	842066	wordpools/wasnorm_wordpool_576.txt	LTP250	ltpFR2	14	8	RELISH	1183	n/a	n/a	0	0	0
1686.734	n/a	WORD	843367	wordpools/wasnorm_wordpool_576.txt	LTP250	ltpFR2	14	8	PEPPER	1047	n/a	n/a	0	0	0
1689.288	n/a	WORD	844644	wordpools/wasnorm_wordpool_576.txt	LTP250	ltpFR2	14	8	LIVER	833	n/a	n/a	0	0	0
1692.122	n/a	WORD	846061	wordpools/wasnorm_wordpool_576.txt	LTP250	ltpFR2	14	8	STUDENT	1395	n/a	n/a	0	0	0
1694.874	n/a	WORD	847437	wordpools/wasnorm_wordpool_576.txt	LTP250	ltpFR2	14	8	WIFE	1609	n/a	n/a	0	0	0
1697.644	n/a	WORD	848822	wordpools/wasnorm_wordpool_576.txt	LTP250	ltpFR2	14	8	GANGSTER	620	n/a	n/a	0	0	0
1700.346	n/a	WORD	850173	wordpools/wasnorm_wordpool_576.txt	LTP250	ltpFR2	14	8	BULLET	194	n/a	n/a	0	0	0
1702.83	n/a	WORD	851415	wordpools/wasnorm_wordpool_576.txt	LTP250	ltpFR2	14	8	HUSBAND	728	n/a	n/a	0	0	0
1705.384	n/a	WORD	852692	wordpools/wasnorm_wordpool_576.txt	LTP250	ltpFR2	14	8	COLLEGE	346	n/a	n/a	0	0	0
1707.886	n/a	WORD	853943	wordpools/wasnorm_wordpool_576.txt	LTP250	ltpFR2	14	8	SANDWICH	1232	n/a	n/a	0	0	0
1709.504	n/a	START	854752	n/a	LTP250	ltpFR2	14	n/a	n/a	n/a	13	n/a	n/a	n/a	n/a
1710.534	n/a	DISTRACTOR	855267	n/a	LTP250	ltpFR2	14	8	n/a	n/a	n/a	n/a	0	0	0
1710.556	n/a	PROB	855278	n/a	LTP250	ltpFR2	14	n/a	n/a	n/a	13	12	4	3	5
1713.408	n/a	PROB	856704	n/a	LTP250	ltpFR2	14	n/a	n/a	n/a	13	22	7	7	8
1715.46	n/a	PROB	857730	n/a	LTP250	ltpFR2	14	n/a	n/a	n/a	13	10	3	5	2
1717.528	n/a	PROB	858764	n/a	LTP250	ltpFR2	14	n/a	n/a	n/a	13	11	6	3	2
1719.828	n/a	PROB	859914	n/a	LTP250	ltpFR2	14	n/a	n/a	n/a	13	18	8	4	6
1721.548	n/a	PROB	860774	n/a	LTP250	ltpFR2	14	n/a	n/a	n/a	13	17	9	3	5
1723.748	n/a	PROB	861874	n/a	LTP250	ltpFR2	14	n/a	n/a	n/a	13	15	8	5	2
1726.586	n/a	PROB	863293	n/a	LTP250	ltpFR2	14	n/a	n/a	n/a	13	5	3	1	1
1727.702	n/a	PROB	863851	n/a	LTP250	ltpFR2	14	n/a	n/a	n/a	13	18	7	3	8
1729.404	n/a	PROB	864702	n/a	LTP250	ltpFR2	14	n/a	n/a	n/a	13	20	6	9	7
1732.422	n/a	STOP	866211	n/a	LTP250	ltpFR2	14	n/a	n/a	n/a	13	n/a	n/a	n/a	n/a
1735.394	n/a	REC_START	867697	n/a	LTP250	ltpFR2	14	8	n/a	n/a	n/a	n/a	0	0	0
1736.622	n/a	REC_WORD	868311	wordpools/wasnorm_wordpool_576.txt	LTP250	ltpFR2	14	8	BINDER	127	n/a	n/a	0	0	0
1737.134	n/a	REC_WORD	868567	wordpools/wasnorm_wordpool_576.txt	LTP250	ltpFR2	14	8	STUDENT	1395	n/a	n/a	0	0	0
1737.758	n/a	REC_WORD	868879	wordpools/wasnorm_wordpool_576.txt	LTP250	ltpFR2	14	8	COLLEGE	346	n/a	n/a	0	0	0
1738.292	n/a	REC_WORD	869146	wordpools/wasnorm_wordpool_576.txt	LTP250	ltpFR2	14	8	REPORT	1184	n/a	n/a	0	0	0
1739.194	n/a	REC_WORD	869597	wordpools/wasnorm_wordpool_576.txt	LTP250	ltpFR2	14	8	BANKER	84	n/a	n/a	0	0	0
1741.31	n/a	REC_WORD	870655	wordpools/wasnorm_wordpool_576.txt	LTP250	ltpFR2	14	8	HUSBAND	728	n/a	n/a	0	0	0
1742.032	n/a	REC_WORD	871016	wordpools/wasnorm_wordpool_576.txt	LTP250	ltpFR2	14	8	WIFE	1609	n/a	n/a	0	0	0
1742.938	n/a	REC_WORD	871469	wordpools/wasnorm_wordpool_576.txt	LTP250	ltpFR2	14	8	LIVER	833	n/a	n/a	0	0	0
1743.454	n/a	REC_WORD	871727	wordpools/wasnorm_wordpool_576.txt	LTP250	ltpFR2	14	8	PEPPER	1047	n/a	n/a	0	0	0
1744.176	n/a	REC_WORD	872088	wordpools/wasnorm_wordpool_576.txt	LTP250	ltpFR2	14	8	RELISH	1183	n/a	n/a	0	0	0
1744.816	n/a	REC_WORD	872408	wordpools/wasnorm_wordpool_576.txt	LTP250	ltpFR2	14	8	SANDWICH	1232	n/a	n/a	0	0	0
1746.386	n/a	REC_WORD	873193	wordpools/wasnorm_wordpool_576.txt	LTP250	ltpFR2	14	8	SCARECROW	1245	n/a	n/a	0	0	0
1747.552	n/a	REC_WORD	873776	wordpools/wasnorm_wordpool_576.txt	LTP250	ltpFR2	14	8	TWIG	1527	n/a	n/a	0	0	0
1748.134	n/a	REC_WORD	874067	wordpools/wasnorm_wordpool_576.txt	LTP250	ltpFR2	14	8	FOREST	593	n/a	n/a	0	0	0
1811.958	n/a	REST_REWET	905979	n/a	LTP250	ltpFR2	14	8	n/a	n/a	n/a	n/a	0	0	0
2101.904	n/a	DISTRACTOR	1050952	n/a	LTP250	ltpFR2	14	9	n/a	n/a	n/a	n/a	0	0	0
2101.904	n/a	START	1050952	n/a	LTP250	ltpFR2	14	n/a	n/a	n/a	14	n/a	n/a	n/a	n/a
2101.92	n/a	PROB	1050960	n/a	LTP250	ltpFR2	14	n/a	n/a	n/a	14	16	6	7	3
2103.906	n/a	PROB	1051953	n/a	LTP250	ltpFR2	14	n/a	n/a	n/a	14	22	9	6	7
2107.058	n/a	PROB	1053529	n/a	LTP250	ltpFR2	14	n/a	n/a	n/a	14	13	2	3	8
2108.66	n/a	PROB	1054330	n/a	LTP250	ltpFR2	14	n/a	n/a	n/a	14	12	7	2	3
2111.144	n/a	PROB	1055572	n/a	LTP250	ltpFR2	14	n/a	n/a	n/a	14	18	7	6	3
2114.03	n/a	PROB	1057015	n/a	LTP250	ltpFR2	14	n/a	n/a	n/a	14	23	8	6	9
2117.534	n/a	PROB	1058767	n/a	LTP250	ltpFR2	14	n/a	n/a	n/a	14	15	6	1	8
2120.836	n/a	PROB	1060418	n/a	LTP250	ltpFR2	14	n/a	n/a	n/a	14	11	2	8	1
2122.854	n/a	PROB	1061427	n/a	LTP250	ltpFR2	14	n/a	n/a	n/a	14	17	7	5	5
2124.676	n/a	STOP	1062338	n/a	LTP250	ltpFR2	14	n/a	n/a	n/a	14	n/a	n/a	n/a	n/a
2126.924	n/a	WORD	1063462	wordpools/wasnorm_wordpool_576.txt	LTP250	ltpFR2	14	9	BEAKER	104	n/a	n/a	0	0	0
2129.728	n/a	WORD	1064864	wordpools/wasnorm_wordpool_576.txt	LTP250	ltpFR2	14	9	JUGGLER	763	n/a	n/a	0	0	0
2132.53	n/a	WORD	1066265	wordpools/wasnorm_wordpool_576.txt	LTP250	ltpFR2	14	9	RACKET	1155	n/a	n/a	0	0	0
2135.032	n/a	WORD	1067516	wordpools/wasnorm_wordpool_576.txt	LTP250	ltpFR2	14	9	GUITAR	670	n/a	n/a	0	0	0
2137.85	n/a	WORD	1068925	wordpools/wasnorm_wordpool_576.txt	LTP250	ltpFR2	14	9	SERVER	1272	n/a	n/a	0	0	0
2140.454	n/a	WORD	1070227	wordpools/wasnorm_wordpool_576.txt	LTP250	ltpFR2	14	9	CARROT	249	n/a	n/a	0	0	0
2143.138	n/a	WORD	1071569	wordpools/wasnorm_wordpool_576.txt	LTP250	ltpFR2	14	9	VIRUS	1572	n/a	n/a	0	0	0
2145.642	n/a	WORD	1072821	wordpools/wasnorm_wordpool_576.txt	LTP250	ltpFR2	14	9	DRAWING	494	n/a	n/a	0	0	0
2148.226	n/a	WORD	1074113	wordpools/wasnorm_wordpool_576.txt	LTP250	ltpFR2	14	9	HIGHWAY	707	n/a	n/a	0	0	0
2150.728	n/a	WORD	1075364	wordpools/wasnorm_wordpool_576.txt	LTP250	ltpFR2	14	9	PATROL	1027	n/a	n/a	0	0	0
2153.532	n/a	WORD	1076766	wordpools/wasnorm_wordpool_576.txt	LTP250	ltpFR2	14	9	FRECKLE	602	n/a	n/a	0	0	0
2156.3	n/a	WORD	1078150	wordpools/wasnorm_wordpool_576.txt	LTP250	ltpFR2	14	9	TUBA	1515	n/a	n/a	0	0	0
2158.734	n/a	WORD	1079367	wordpools/wasnorm_wordpool_576.txt	LTP250	ltpFR2	14	9	BOARD	143	n/a	n/a	0	0	0
2161.186	n/a	WORD	1080593	wordpools/wasnorm_wordpool_576.txt	LTP250	ltpFR2	14	9	BLACKBOARD	133	n/a	n/a	0	0	0
2163.856	n/a	WORD	1081928	wordpools/wasnorm_wordpool_576.txt	LTP250	ltpFR2	14	9	DOLPHIN	483	n/a	n/a	0	0	0
2166.56	n/a	WORD	1083280	wordpools/wasnorm_wordpool_576.txt	LTP250	ltpFR2	14	9	PATIENT	1024	n/a	n/a	0	0	0
2169.16	n/a	WORD	1084580	wordpools/wasnorm_wordpool_576.txt	LTP250	ltpFR2	14	9	LADY	794	n/a	n/a	0	0	0
2171.98	n/a	WORD	1085990	wordpools/wasnorm_wordpool_576.txt	LTP250	ltpFR2	14	9	RUST	1219	n/a	n/a	0	0	0
2174.616	n/a	WORD	1087308	wordpools/wasnorm_wordpool_576.txt	LTP250	ltpFR2	14	9	BARREL	91	n/a	n/a	0	0	0
2177.436	n/a	WORD	1088718	wordpools/wasnorm_wordpool_576.txt	LTP250	ltpFR2	14	9	LUNCH	849	n/a	n/a	0	0	0
2179.97	n/a	WORD	1089985	wordpools/wasnorm_wordpool_576.txt	LTP250	ltpFR2	14	9	SPOON	1357	n/a	n/a	0	0	0
2182.606	n/a	WORD	1091303	wordpools/wasnorm_wordpool_576.txt	LTP250	ltpFR2	14	9	LIPSTICK	829	n/a	n/a	0	0	0
2185.31	n/a	WORD	1092655	wordpools/wasnorm_wordpool_576.txt	LTP250	ltpFR2	14	9	SHARK	1275	n/a	n/a	0	0	0
2187.81	n/a	WORD	1093905	wordpools/wasnorm_wordpool_576.txt	LTP250	ltpFR2	14	9	AWARD	63	n/a	n/a	0	0	0
2189.43	n/a	START	1094715	n/a	LTP250	ltpFR2	14	n/a	n/a	n/a	15	n/a	n/a	n/a	n/a
2190.508	n/a	DISTRACTOR	1095254	n/a	LTP250	ltpFR2	14	9	n/a	n/a	n/a	n/a	0	0	0
2190.53	n/a	PROB	1095265	n/a	LTP250	ltpFR2	14	n/a	n/a	n/a	15	13	4	1	8
2192.948	n/a	PROB	1096474	n/a	LTP250	ltpFR2	14	n/a	n/a	n/a	15	16	5	9	2
2195.868	n/a	PROB	1097934	n/a	LTP250	ltpFR2	14	n/a	n/a	n/a	15	8	1	3	4
2197.618	n/a	PROB	1098809	n/a	LTP250	ltpFR2	14	n/a	n/a	n/a	15	19	8	6	5
2199.486	n/a	PROB	1099743	n/a	LTP250	ltpFR2	14	n/a	n/a	n/a	15	13	4	5	4
2203.308	n/a	PROB	1101654	n/a	LTP250	ltpFR2	14	n/a	n/a	n/a	15	22	8	5	9
2206.96	n/a	PROB	1103480	n/a	LTP250	ltpFR2	14	n/a	n/a	n/a	15	11	3	2	6
2209.496	n/a	PROB	1104748	n/a	LTP250	ltpFR2	14	n/a	n/a	n/a	15	7	3	2	2
2212.352	n/a	STOP	1106176	n/a	LTP250	ltpFR2	14	n/a	n/a	n/a	15	n/a	n/a	n/a	n/a
2215.368	n/a	REC_START	1107684	n/a	LTP250	ltpFR2	14	9	n/a	n/a	n/a	n/a	0	0	0
2215.948	n/a	REC_WORD	1107974	wordpools/wasnorm_wordpool_576.txt	LTP250	ltpFR2	14	9	LUNCH	849	n/a	n/a	0	0	0
2216.472	n/a	REC_WORD	1108236	wordpools/wasnorm_wordpool_576.txt	LTP250	ltpFR2	14	9	SPOON	1357	n/a	n/a	0	0	0
2217.07	n/a	REC_WORD	1108535	wordpools/wasnorm_wordpool_576.txt	LTP250	ltpFR2	14	9	LIPSTICK	829	n/a	n/a	0	0	0
2217.916	n/a	REC_WORD	1108958	wordpools/wasnorm_wordpool_576.txt	LTP250	ltpFR2	14	9	BEAKER	104	n/a	n/a	0	0	0
2270.536	n/a	REC_WORD	1135268	wordpools/wasnorm_wordpool_576.txt	LTP250	ltpFR2	14	9	GARAGE	621	n/a	n/a	0	0	0
2306.026	n/a	WORD	1153013	wordpools/wasnorm_wordpool_576.txt	LTP250	ltpFR2	14	10	TABLE	1426	n/a	n/a	0	0	0
2308.846	n/a	WORD	1154423	wordpools/wasnorm_wordpool_576.txt	LTP250	ltpFR2	14	10	COLONEL	348	n/a	n/a	0	0	0
2311.632	n/a	WORD	1155816	wordpools/wasnorm_wordpool_576.txt	LTP250	ltpFR2	14	10	MARINE	869	n/a	n/a	0	0	0
2314.234	n/a	WORD	1157117	wordpools/wasnorm_wordpool_576.txt	LTP250	ltpFR2	14	10	BREAST	171	n/a	n/a	0	0	0
2316.836	n/a	WORD	1158418	wordpools/wasnorm_wordpool_576.txt	LTP250	ltpFR2	14	10	JOURNAL	760	n/a	n/a	0	0	0
2319.54	n/a	WORD	1159770	wordpools/wasnorm_wordpool_576.txt	LTP250	ltpFR2	14	10	SKETCH	1315	n/a	n/a	0	0	0
2322.09	n/a	WORD	1161045	wordpools/wasnorm_wordpool_576.txt	LTP250	ltpFR2	14	10	POSSUM	1112	n/a	n/a	0	0	0
2324.81	n/a	WORD	1162405	wordpools/wasnorm_wordpool_576.txt	LTP250	ltpFR2	14	10	SCULPTURE	1258	n/a	n/a	0	0	0
2327.43	n/a	WORD	1163715	wordpools/wasnorm_wordpool_576.txt	LTP250	ltpFR2	14	10	RADISH	1158	n/a	n/a	0	0	0
2329.864	n/a	WORD	1164932	wordpools/wasnorm_wordpool_576.txt	LTP250	ltpFR2	14	10	LEOPARD	812	n/a	n/a	0	0	0
2332.318	n/a	WORD	1166159	wordpools/wasnorm_wordpool_576.txt	LTP250	ltpFR2	14	10	ORCHID	982	n/a	n/a	0	0	0
2335.068	n/a	WORD	1167534	wordpools/wasnorm_wordpool_576.txt	LTP250	ltpFR2	14	10	VIKING	1565	n/a	n/a	0	0	0
2337.638	n/a	WORD	1168819	wordpools/wasnorm_wordpool_576.txt	LTP250	ltpFR2	14	10	QUEEN	1149	n/a	n/a	0	0	0
2340.39	n/a	WORD	1170195	wordpools/wasnorm_wordpool_576.txt	LTP250	ltpFR2	14	10	CUPBOARD	425	n/a	n/a	0	0	0
2343.208	n/a	WORD	1171604	wordpools/wasnorm_wordpool_576.txt	LTP250	ltpFR2	14	10	OUTLAW	989	n/a	n/a	0	0	0
2345.894	n/a	WORD	1172947	wordpools/wasnorm_wordpool_576.txt	LTP250	ltpFR2	14	10	THIEF	1456	n/a	n/a	0	0	0
2348.38	n/a	WORD	1174190	wordpools/wasnorm_wordpool_576.txt	LTP250	ltpFR2	14	10	GAZELLE	628	n/a	n/a	0	0	0
2351.132	n/a	WORD	1175566	wordpools/wasnorm_wordpool_576.txt	LTP250	ltpFR2	14	10	COURSE	390	n/a	n/a	0	0	0
2353.584	n/a	WORD	1176792	wordpools/wasnorm_wordpool_576.txt	LTP250	ltpFR2	14	10	PANTHER	1009	n/a	n/a	0	0	0
2356.152	n/a	WORD	1178076	wordpools/wasnorm_wordpool_576.txt	LTP250	ltpFR2	14	10	PORK	1108	n/a	n/a	0	0	0
2358.838	n/a	WORD	1179419	wordpools/wasnorm_wordpool_576.txt	LTP250	ltpFR2	14	10	PAIL	1002	n/a	n/a	0	0	0
2361.492	n/a	WORD	1180746	wordpools/wasnorm_wordpool_576.txt	LTP250	ltpFR2	14	10	VELVET	1555	n/a	n/a	0	0	0
2364.176	n/a	WORD	1182088	wordpools/wasnorm_wordpool_576.txt	LTP250	ltpFR2	14	10	PERCH	1048	n/a	n/a	0	0	0
2366.728	n/a	WORD	1183364	wordpools/wasnorm_wordpool_576.txt	LTP250	ltpFR2	14	10	FRUIT	610	n/a	n/a	0	0	0
2368.348	n/a	START	1184174	n/a	LTP250	ltpFR2	14	n/a	n/a	n/a	16	n/a	n/a	n/a	n/a
2369.364	n/a	DISTRACTOR	1184682	n/a	LTP250	ltpFR2	14	10	n/a	n/a	n/a	n/a	0	0	0
2369.382	n/a	PROB	1184691	n/a	LTP250	ltpFR2	14	n/a	n/a	n/a	16	17	4	8	5
2372.768	n/a	PROB	1186384	n/a	LTP250	ltpFR2	14	n/a	n/a	n/a	16	15	9	2	4
2375.954	n/a	PROB	1187977	n/a	LTP250	ltpFR2	14	n/a	n/a	n/a	16	21	8	9	4
2379.172	n/a	PROB	1189586	n/a	LTP250	ltpFR2	14	n/a	n/a	n/a	16	14	3	2	9
2382.258	n/a	PROB	1191129	n/a	LTP250	ltpFR2	14	n/a	n/a	n/a	16	7	2	3	2
2384.21	n/a	PROB	1192105	n/a	LTP250	ltpFR2	14	n/a	n/a	n/a	16	15	5	8	2
2385.828	n/a	PROB	1192914	n/a	LTP250	ltpFR2	14	n/a	n/a	n/a	16	19	1	9	9
2387.464	n/a	PROB	1193732	n/a	LTP250	ltpFR2	14	n/a	n/a	n/a	16	12	1	5	6
2392.346	n/a	STOP	1196173	n/a	LTP250	ltpFR2	14	n/a	n/a	n/a	16	n/a	n/a	n/a	n/a
2394.268	n/a	REC_START	1197134	n/a	LTP250	ltpFR2	14	10	n/a	n/a	n/a	n/a	0	0	0
2395.508	n/a	REC_WORD	1197754	wordpools/wasnorm_wordpool_576.txt	LTP250	ltpFR2	14	10	PERCH	1048	n/a	n/a	0	0	0
2401.076	n/a	REC_WORD	1200538	wordpools/wasnorm_wordpool_576.txt	LTP250	ltpFR2	14	10	GOLD	647	n/a	n/a	0	0	0
2401.746	n/a	REC_WORD	1200873	wordpools/wasnorm_wordpool_576.txt	LTP250	ltpFR2	14	10	BRANCH	168	n/a	n/a	0	0	0
2484.912	n/a	WORD	1242456	wordpools/wasnorm_wordpool_576.txt	LTP250	ltpFR2	14	11	COWBOY	395	n/a	n/a	0	0	0
2487.516	n/a	WORD	1243758	wordpools/wasnorm_wordpool_576.txt	LTP250	ltpFR2	14	11	PROTON	1132	n/a	n/a	0	0	0
2490.166	n/a	WORD	1245083	wordpools/wasnorm_wordpool_576.txt	LTP250	ltpFR2	14	11	DANCER	437	n/a	n/a	0	0	0
2492.702	n/a	WORD	1246351	wordpools/wasnorm_wordpool_576.txt	LTP250	ltpFR2	14	11	WHISKERS	1605	n/a	n/a	0	0	0
2495.154	n/a	WORD	1247577	wordpools/wasnorm_wordpool_576.txt	LTP250	ltpFR2	14	11	SHORTS	1293	n/a	n/a	0	0	0
2497.824	n/a	WORD	1248912	wordpools/wasnorm_wordpool_576.txt	LTP250	ltpFR2	14	11	YARN	1631	n/a	n/a	0	0	0
2500.51	n/a	WORD	1250255	wordpools/wasnorm_wordpool_576.txt	LTP250	ltpFR2	14	11	SPONGE	1355	n/a	n/a	0	0	0
2503.094	n/a	WORD	1251547	wordpools/wasnorm_wordpool_576.txt	LTP250	ltpFR2	14	11	RIVER	1194	n/a	n/a	0	0	0
2505.78	n/a	WORD	1252890	wordpools/wasnorm_wordpool_576.txt	LTP250	ltpFR2	14	11	OYSTER	995	n/a	n/a	0	0	0
2508.434	n/a	WORD	1254217	wordpools/wasnorm_wordpool_576.txt	LTP250	ltpFR2	14	11	SKIRT	1319	n/a	n/a	0	0	0
2511.168	n/a	WORD	1255584	wordpools/wasnorm_wordpool_576.txt	LTP250	ltpFR2	14	11	STOMACH	1384	n/a	n/a	0	0	0
2513.838	n/a	WORD	1256919	wordpools/wasnorm_wordpool_576.txt	LTP250	ltpFR2	14	11	BELLY	119	n/a	n/a	0	0	0
2516.574	n/a	WORD	1258287	wordpools/wasnorm_wordpool_576.txt	LTP250	ltpFR2	14	11	EUROPE	541	n/a	n/a	0	0	0
2519.04	n/a	WORD	1259520	wordpools/wasnorm_wordpool_576.txt	LTP250	ltpFR2	14	11	CROSS	413	n/a	n/a	0	0	0
2521.876	n/a	WORD	1260938	wordpools/wasnorm_wordpool_576.txt	LTP250	ltpFR2	14	11	FLEET	578	n/a	n/a	0	0	0
2524.614	n/a	WORD	1262307	wordpools/wasnorm_wordpool_576.txt	LTP250	ltpFR2	14	11	LADDER	793	n/a	n/a	0	0	0
2527.214	n/a	WORD	1263607	wordpools/wasnorm_wordpool_576.txt	LTP250	ltpFR2	14	11	SEAFOOD	1260	n/a	n/a	0	0	0
2529.866	n/a	WORD	1264933	wordpools/wasnorm_wordpool_576.txt	LTP250	ltpFR2	14	11	SUMMIT	1405	n/a	n/a	0	0	0
2532.354	n/a	WORD	1266177	wordpools/wasnorm_wordpool_576.txt	LTP250	ltpFR2	14	11	PEDAL	1037	n/a	n/a	0	0	0
2535.072	n/a	WORD	1267536	wordpools/wasnorm_wordpool_576.txt	LTP250	ltpFR2	14	11	DENIM	446	n/a	n/a	0	0	0
2537.758	n/a	WORD	1268879	wordpools/wasnorm_wordpool_576.txt	LTP250	ltpFR2	14	11	ARMY	39	n/a	n/a	0	0	0
2540.528	n/a	WORD	1270264	wordpools/wasnorm_wordpool_576.txt	LTP250	ltpFR2	14	11	BARLEY	88	n/a	n/a	0	0	0
2543.078	n/a	WORD	1271539	wordpools/wasnorm_wordpool_576.txt	LTP250	ltpFR2	14	11	WOMAN	1620	n/a	n/a	0	0	0
2545.698	n/a	WORD	1272849	wordpools/wasnorm_wordpool_576.txt	LTP250	ltpFR2	14	11	LION	827	n/a	n/a	0	0	0
2547.316	n/a	START	1273658	n/a	LTP250	ltpFR2	14	n/a	n/a	n/a	17	n/a	n/a	n/a	n/a
2548.222	n/a	DISTRACTOR	1274111	n/a	LTP250	ltpFR2	14	11	n/a	n/a	n/a	n/a	0	0	0
2548.25	n/a	PROB	1274125	n/a	LTP250	ltpFR2	14	n/a	n/a	n/a	17	14	7	1	6
2550.552	n/a	PROB	1275276	n/a	LTP250	ltpFR2	14	n/a	n/a	n/a	17	9	4	3	2
2553.306	n/a	PROB	1276653	n/a	LTP250	ltpFR2	14	n/a	n/a	n/a	17	14	9	3	2
2555.34	n/a	PROB	1277670	n/a	LTP250	ltpFR2	14	n/a	n/a	n/a	17	22	9	7	6
2557.808	n/a	PROB	1278904	n/a	LTP250	ltpFR2	14	n/a	n/a	n/a	17	19	9	1	9
2559.578	n/a	PROB	1279789	n/a	LTP250	ltpFR2	14	n/a	n/a	n/a	17	11	3	1	7
2561.512	n/a	PROB	1280756	n/a	LTP250	ltpFR2	14	n/a	n/a	n/a	17	9	1	6	2
2563.646	n/a	PROB	1281823	n/a	LTP250	ltpFR2	14	n/a	n/a	n/a	17	11	7	4	2
2566.282	n/a	PROB	1283141	n/a	LTP250	ltpFR2	14	n/a	n/a	n/a	17	19	7	9	3
2568.25	n/a	PROB	1284125	n/a	LTP250	ltpFR2	14	n/a	n/a	n/a	17	11	4	4	3
2570.812	n/a	STOP	1285406	n/a	LTP250	ltpFR2	14	n/a	n/a	n/a	17	n/a	n/a	n/a	n/a
2573.138	n/a	REC_START	1286569	n/a	LTP250	ltpFR2	14	11	n/a	n/a	n/a	n/a	0	0	0
2574.1	n/a	REC_WORD	1287050	wordpools/wasnorm_wordpool_576.txt	LTP250	ltpFR2	14	11	BARLEY	88	n/a	n/a	0	0	0
2574.694	n/a	REC_WORD	1287347	wordpools/wasnorm_wordpool_576.txt	LTP250	ltpFR2	14	11	WOMAN	1620	n/a	n/a	0	0	0
2575.264	n/a	REC_WORD	1287632	wordpools/wasnorm_wordpool_576.txt	LTP250	ltpFR2	14	11	LION	827	n/a	n/a	0	0	0
2663.616	n/a	WORD	1331808	wordpools/wasnorm_wordpool_576.txt	LTP250	ltpFR2	14	12	PORTRAIT	1111	n/a	n/a	0	0	0
2666.284	n/a	WORD	1333142	wordpools/wasnorm_wordpool_576.txt	LTP250	ltpFR2	14	12	BLOCKADE	137	n/a	n/a	0	0	0
2669.102	n/a	WORD	1334551	wordpools/wasnorm_wordpool_576.txt	LTP250	ltpFR2	14	12	SHRUB	1299	n/a	n/a	0	0	0
2671.904	n/a	WORD	1335952	wordpools/wasnorm_wordpool_576.txt	LTP250	ltpFR2	14	12	LACE	792	n/a	n/a	0	0	0
2674.408	n/a	WORD	1337204	wordpools/wasnorm_wordpool_576.txt	LTP250	ltpFR2	14	12	TURNIP	1521	n/a	n/a	0	0	0
2677.008	n/a	WORD	1338504	wordpools/wasnorm_wordpool_576.txt	LTP250	ltpFR2	14	12	PLATE	1086	n/a	n/a	0	0	0
2679.728	n/a	WORD	1339864	wordpools/wasnorm_wordpool_576.txt	LTP250	ltpFR2	14	12	ACTRESS	6	n/a	n/a	0	0	0
2682.448	n/a	WORD	1341224	wordpools/wasnorm_wordpool_576.txt	LTP250	ltpFR2	14	12	DRILL	497	n/a	n/a	0	0	0
2685.166	n/a	WORD	1342583	wordpools/wasnorm_wordpool_576.txt	LTP250	ltpFR2	14	12	LETTUCE	814	n/a	n/a	0	0	0
2687.652	n/a	WORD	1343826	wordpools/wasnorm_wordpool_576.txt	LTP250	ltpFR2	14	12	SAUSAGE	1238	n/a	n/a	0	0	0
2690.288	n/a	WORD	1345144	wordpools/wasnorm_wordpool_576.txt	LTP250	ltpFR2	14	12	CHIPMUNK	304	n/a	n/a	0	0	0
2692.806	n/a	WORD	1346403	wordpools/wasnorm_wordpool_576.txt	LTP250	ltpFR2	14	12	BLOUSE	139	n/a	n/a	0	0	0
2695.542	n/a	WORD	1347771	wordpools/wasnorm_wordpool_576.txt	LTP250	ltpFR2	14	12	TERMITE	1451	n/a	n/a	0	0	0
2698.078	n/a	WORD	1349039	wordpools/wasnorm_wordpool_576.txt	LTP250	ltpFR2	14	12	CAFE	216	n/a	n/a	0	0	0
2700.746	n/a	WORD	1350373	wordpools/wasnorm_wordpool_576.txt	LTP250	ltpFR2	14	12	PIGEON	1065	n/a	n/a	0	0	0
2703.282	n/a	WORD	1351641	wordpools/wasnorm_wordpool_576.txt	LTP250	ltpFR2	14	12	YACHT	1629	n/a	n/a	0	0	0
2705.984	n/a	WORD	1352992	wordpools/wasnorm_wordpool_576.txt	LTP250	ltpFR2	14	12	PADDLE	1000	n/a	n/a	0	0	0
2708.652	n/a	WORD	1354326	wordpools/wasnorm_wordpool_576.txt	LTP250	ltpFR2	14	12	JAPAN	749	n/a	n/a	0	0	0
2711.306	n/a	WORD	1355653	wordpools/wasnorm_wordpool_576.txt	LTP250	ltpFR2	14	12	JEANS	752	n/a	n/a	0	0	0
2713.806	n/a	WORD	1356903	wordpools/wasnorm_wordpool_576.txt	LTP250	ltpFR2	14	12	TOMBSTONE	1478	n/a	n/a	0	0	0
2716.494	n/a	WORD	1358247	wordpools/wasnorm_wordpool_576.txt	LTP250	ltpFR2	14	12	PIZZA	1079	n/a	n/a	0	0	0
2719.028	n/a	WORD	1359514	wordpools/wasnorm_wordpool_576.txt	LTP250	ltpFR2	14	12	FEMALE	559	n/a	n/a	0	0	0
2721.848	n/a	WORD	1360924	wordpools/wasnorm_wordpool_576.txt	LTP250	ltpFR2	14	12	POPCORN	1104	n/a	n/a	0	0	0
2724.6	n/a	WORD	1362300	wordpools/wasnorm_wordpool_576.txt	LTP250	ltpFR2	14	12	CABBAGE	210	n/a	n/a	0	0	0
2726.218	n/a	START	1363109	n/a	LTP250	ltpFR2	14	n/a	n/a	n/a	18	n/a	n/a	n/a	n/a
2727.192	n/a	DISTRACTOR	1363596	n/a	LTP250	ltpFR2	14	12	n/a	n/a	n/a	n/a	0	0	0
2727.218	n/a	PROB	1363609	n/a	LTP250	ltpFR2	14	n/a	n/a	n/a	18	15	2	6	7
2730.07	n/a	PROB	1365035	n/a	LTP250	ltpFR2	14	n/a	n/a	n/a	18	12	3	7	2
2731.474	n/a	PROB	1365737	n/a	LTP250	ltpFR2	14	n/a	n/a	n/a	18	9	4	3	2
2733.492	n/a	PROB	1366746	n/a	LTP250	ltpFR2	14	n/a	n/a	n/a	18	9	1	5	2
2735.792	n/a	PROB	1367896	n/a	LTP250	ltpFR2	14	n/a	n/a	n/a	18	14	8	4	2
2738.678	n/a	PROB	1369339	n/a	LTP250	ltpFR2	14	n/a	n/a	n/a	18	18	8	1	9
2740.746	n/a	PROB	1370373	n/a	LTP250	ltpFR2	14	n/a	n/a	n/a	18	15	9	3	3
2742.698	n/a	PROB	1371349	n/a	LTP250	ltpFR2	14	n/a	n/a	n/a	18	23	9	9	5
2748.27	n/a	PROB	1374135	n/a	LTP250	ltpFR2	14	n/a	n/a	n/a	18	12	4	1	7
2750.152	n/a	STOP	1375076	n/a	LTP250	ltpFR2	14	n/a	n/a	n/a	18	n/a	n/a	n/a	n/a
2752.14	n/a	REC_START	1376070	n/a	LTP250	ltpFR2	14	12	n/a	n/a	n/a	n/a	0	0	0
2752.668	n/a	REC_WORD	1376334	wordpools/wasnorm_wordpool_576.txt	LTP250	ltpFR2	14	12	PIGEON	1065	n/a	n/a	0	0	0
2753.292	n/a	REC_WORD	1376646	wordpools/wasnorm_wordpool_576.txt	LTP250	ltpFR2	14	12	FEMALE	559	n/a	n/a	0	0	0
2754.664	n/a	REC_WORD	1377332	wordpools/wasnorm_wordpool_576.txt	LTP250	ltpFR2	14	12	CABBAGE	210	n/a	n/a	0	0	0
2756.84	n/a	REC_WORD	1378420	wordpools/wasnorm_wordpool_576.txt	LTP250	ltpFR2	14	12	PIZZA	1079	n/a	n/a	0	0	0
2757.71	n/a	REC_WORD	1378855	wordpools/wasnorm_wordpool_576.txt	LTP250	ltpFR2	14	12	LETTUCE	814	n/a	n/a	0	0	0
2796.764	n/a	REC_WORD	1398382	wordpools/wasnorm_wordpool_576.txt	LTP250	ltpFR2	14	12	CAFE	216	n/a	n/a	0	0	0
2842.618	n/a	WORD	1421309	wordpools/wasnorm_wordpool_576.txt	LTP250	ltpFR2	14	13	PARENT	1013	n/a	n/a	0	0	0
2845.352	n/a	WORD	1422676	wordpools/wasnorm_wordpool_576.txt	LTP250	ltpFR2	14	13	BLENDER	136	n/a	n/a	0	0	0
2847.854	n/a	WORD	1423927	wordpools/wasnorm_wordpool_576.txt	LTP250	ltpFR2	14	13	TWEEZERS	1526	n/a	n/a	0	0	0
2850.608	n/a	WORD	1425304	wordpools/wasnorm_wordpool_576.txt	LTP250	ltpFR2	14	13	LODGE	839	n/a	n/a	0	0	0
2853.426	n/a	WORD	1426713	wordpools/wasnorm_wordpool_576.txt	LTP250	ltpFR2	14	13	LAMP	798	n/a	n/a	0	0	0
2856.162	n/a	WORD	1428081	wordpools/wasnorm_wordpool_576.txt	LTP250	ltpFR2	14	13	COFFEE	341	n/a	n/a	0	0	0
2858.98	n/a	WORD	1429490	wordpools/wasnorm_wordpool_576.txt	LTP250	ltpFR2	14	13	PLASTER	1085	n/a	n/a	0	0	0
2861.534	n/a	WORD	1430767	wordpools/wasnorm_wordpool_576.txt	LTP250	ltpFR2	14	13	DENTIST	447	n/a	n/a	0	0	0
2864.352	n/a	WORD	1432176	wordpools/wasnorm_wordpool_576.txt	LTP250	ltpFR2	14	13	SWIMMER	1420	n/a	n/a	0	0	0
2867.088	n/a	WORD	1433544	wordpools/wasnorm_wordpool_576.txt	LTP250	ltpFR2	14	13	AIRPLANE	12	n/a	n/a	0	0	0
2869.84	n/a	WORD	1434920	wordpools/wasnorm_wordpool_576.txt	LTP250	ltpFR2	14	13	POCKET	1093	n/a	n/a	0	0	0
2872.476	n/a	WORD	1436238	wordpools/wasnorm_wordpool_576.txt	LTP250	ltpFR2	14	13	XEROX	1628	n/a	n/a	0	0	0
2875.094	n/a	WORD	1437547	wordpools/wasnorm_wordpool_576.txt	LTP250	ltpFR2	14	13	PUDDING	1139	n/a	n/a	0	0	0
2877.696	n/a	WORD	1438848	wordpools/wasnorm_wordpool_576.txt	LTP250	ltpFR2	14	13	WRENCH	1625	n/a	n/a	0	0	0
2880.198	n/a	WORD	1440099	wordpools/wasnorm_wordpool_576.txt	LTP250	ltpFR2	14	13	STAR	1373	n/a	n/a	0	0	0
2882.866	n/a	WORD	1441433	wordpools/wasnorm_wordpool_576.txt	LTP250	ltpFR2	14	13	COMET	353	n/a	n/a	0	0	0
2885.536	n/a	WORD	1442768	wordpools/wasnorm_wordpool_576.txt	LTP250	ltpFR2	14	13	SEAGULL	1261	n/a	n/a	0	0	0
2888.306	n/a	WORD	1444153	wordpools/wasnorm_wordpool_576.txt	LTP250	ltpFR2	14	13	ROD	1203	n/a	n/a	0	0	0
2890.774	n/a	WORD	1445387	wordpools/wasnorm_wordpool_576.txt	LTP250	ltpFR2	14	13	CURTAIN	427	n/a	n/a	0	0	0
2893.294	n/a	WORD	1446647	wordpools/wasnorm_wordpool_576.txt	LTP250	ltpFR2	14	13	LIGHTNING	820	n/a	n/a	0	0	0
2895.828	n/a	WORD	1447914	wordpools/wasnorm_wordpool_576.txt	LTP250	ltpFR2	14	13	JELLO	754	n/a	n/a	0	0	0
2898.564	n/a	WORD	1449282	wordpools/wasnorm_wordpool_576.txt	LTP250	ltpFR2	14	13	PAPER	1011	n/a	n/a	0	0	0
2901.318	n/a	WORD	1450659	wordpools/wasnorm_wordpool_576.txt	LTP250	ltpFR2	14	13	TABLET	1427	n/a	n/a	0	0	0
2904.052	n/a	WORD	1452026	wordpools/wasnorm_wordpool_576.txt	LTP250	ltpFR2	14	13	QUARTER	1148	n/a	n/a	0	0	0
2905.67	n/a	START	1452835	n/a	LTP250	ltpFR2	14	n/a	n/a	n/a	19	n/a	n/a	n/a	n/a
2906.494	n/a	DISTRACTOR	1453247	n/a	LTP250	ltpFR2	14	13	n/a	n/a	n/a	n/a	0	0	0
2906.506	n/a	PROB	1453253	n/a	LTP250	ltpFR2	14	n/a	n/a	n/a	19	10	3	5	2
2908.256	n/a	PROB	1454128	n/a	LTP250	ltpFR2	14	n/a	n/a	n/a	19	15	6	3	6
2910.024	n/a	PROB	1455012	n/a	LTP250	ltpFR2	14	n/a	n/a	n/a	19	15	3	6	6
2912.042	n/a	PROB	1456021	n/a	LTP250	ltpFR2	14	n/a	n/a	n/a	19	13	6	2	5
2915.396	n/a	PROB	1457698	n/a	LTP250	ltpFR2	14	n/a	n/a	n/a	19	10	6	2	2
2917.164	n/a	PROB	1458582	n/a	LTP250	ltpFR2	14	n/a	n/a	n/a	19	9	2	2	5
2918.948	n/a	PROB	1459474	n/a	LTP250	ltpFR2	14	n/a	n/a	n/a	19	17	1	9	7
2920.45	n/a	PROB	1460225	n/a	LTP250	ltpFR2	14	n/a	n/a	n/a	19	22	7	8	9
2922.768	n/a	PROB	1461384	n/a	LTP250	ltpFR2	14	n/a	n/a	n/a	19	12	5	6	1
2924.32	n/a	PROB	1462160	n/a	LTP250	ltpFR2	14	n/a	n/a	n/a	19	15	6	8	1
2929.67	n/a	STOP	1464835	n/a	LTP250	ltpFR2	14	n/a	n/a	n/a	19	n/a	n/a	n/a	n/a
2931.594	n/a	REC_START	1465797	n/a	LTP250	ltpFR2	14	13	n/a	n/a	n/a	n/a	0	0	0
2932.188	n/a	REC_WORD	1466094	wordpools/wasnorm_wordpool_576.txt	LTP250	ltpFR2	14	13	COMET	353	n/a	n/a	0	0	0
2932.738	n/a	REC_WORD	1466369	wordpools/wasnorm_wordpool_576.txt	LTP250	ltpFR2	14	13	SEAGULL	1261	n/a	n/a	0	0	0
2934.366	n/a	REC_WORD	1467183	wordpools/wasnorm_wordpool_576.txt	LTP250	ltpFR2	14	13	LIGHTNING	820	n/a	n/a	0	0	0
2935.162	n/a	REC_WORD	1467581	wordpools/wasnorm_wordpool_576.txt	LTP250	ltpFR2	14	13	CURTAIN	427	n/a	n/a	0	0	0
2935.904	n/a	REC_WORD	1467952	wordpools/wasnorm_wordpool_576.txt	LTP250	ltpFR2	14	13	ROD	1203	n/a	n/a	0	0	0
2936.646	n/a	REC_WORD	1468323	wordpools/wasnorm_wordpool_576.txt	LTP250	ltpFR2	14	13	JELLO	754	n/a	n/a	0	0	0
2937.388	n/a	REC_WORD	1468694	wordpools/wasnorm_wordpool_576.txt	LTP250	ltpFR2	14	13	TABLET	1427	n/a	n/a	0	0	0
2938.278	n/a	REC_WORD	1469139	wordpools/wasnorm_wordpool_576.txt	LTP250	ltpFR2	14	13	PAPER	1011	n/a	n/a	0	0	0
2939.848	n/a	REC_WORD	1469924	wordpools/wasnorm_wordpool_576.txt	LTP250	ltpFR2	14	13	QUARTER	1148	n/a	n/a	0	0	0
3022.252	n/a	WORD	1511126	wordpools/wasnorm_wordpool_576.txt	LTP250	ltpFR2	14	14	HORSE	719	n/a	n/a	0	0	0
3024.704	n/a	WORD	1512352	wordpools/wasnorm_wordpool_576.txt	LTP250	ltpFR2	14	14	GAVEL	627	n/a	n/a	0	0	0
3027.458	n/a	WORD	1513729	wordpools/wasnorm_wordpool_576.txt	LTP250	ltpFR2	14	14	PICTURE	1061	n/a	n/a	0	0	0
3030.242	n/a	WORD	1515121	wordpools/wasnorm_wordpool_576.txt	LTP250	ltpFR2	14	14	RECORD	1176	n/a	n/a	0	0	0
3032.862	n/a	WORD	1516431	wordpools/wasnorm_wordpool_576.txt	LTP250	ltpFR2	14	14	PIGMENT	1066	n/a	n/a	0	0	0
3035.414	n/a	WORD	1517707	wordpools/wasnorm_wordpool_576.txt	LTP250	ltpFR2	14	14	GHETTO	633	n/a	n/a	0	0	0
3038.116	n/a	WORD	1519058	wordpools/wasnorm_wordpool_576.txt	LTP250	ltpFR2	14	14	FOOT	590	n/a	n/a	0	0	0
3040.818	n/a	WORD	1520409	wordpools/wasnorm_wordpool_576.txt	LTP250	ltpFR2	14	14	HEDGE	699	n/a	n/a	0	0	0
3043.554	n/a	WORD	1521777	wordpools/wasnorm_wordpool_576.txt	LTP250	ltpFR2	14	14	PLAID	1080	n/a	n/a	0	0	0
3046.156	n/a	WORD	1523078	wordpools/wasnorm_wordpool_576.txt	LTP250	ltpFR2	14	14	RECEIPT	1173	n/a	n/a	0	0	0
3048.842	n/a	WORD	1524421	wordpools/wasnorm_wordpool_576.txt	LTP250	ltpFR2	14	14	VAGRANT	1544	n/a	n/a	0	0	0
3051.412	n/a	WORD	1525706	wordpools/wasnorm_wordpool_576.txt	LTP250	ltpFR2	14	14	HOUND	724	n/a	n/a	0	0	0
3054.114	n/a	WORD	1527057	wordpools/wasnorm_wordpool_576.txt	LTP250	ltpFR2	14	14	FRAME	600	n/a	n/a	0	0	0
3056.616	n/a	WORD	1528308	wordpools/wasnorm_wordpool_576.txt	LTP250	ltpFR2	14	14	WASP	1593	n/a	n/a	0	0	0
3059.218	n/a	WORD	1529609	wordpools/wasnorm_wordpool_576.txt	LTP250	ltpFR2	14	14	TWISTER	1530	n/a	n/a	0	0	0
3061.854	n/a	WORD	1530927	wordpools/wasnorm_wordpool_576.txt	LTP250	ltpFR2	14	14	HELMET	702	n/a	n/a	0	0	0
3064.556	n/a	WORD	1532278	wordpools/wasnorm_wordpool_576.txt	LTP250	ltpFR2	14	14	FOOTBALL	591	n/a	n/a	0	0	0
3067.124	n/a	WORD	1533562	wordpools/wasnorm_wordpool_576.txt	LTP250	ltpFR2	14	14	TART	1436	n/a	n/a	0	0	0
3069.658	n/a	WORD	1534829	wordpools/wasnorm_wordpool_576.txt	LTP250	ltpFR2	14	14	PUPPY	1144	n/a	n/a	0	0	0
3072.296	n/a	WORD	1536148	wordpools/wasnorm_wordpool_576.txt	LTP250	ltpFR2	14	14	PEACH	1031	n/a	n/a	0	0	0
3074.83	n/a	WORD	1537415	wordpools/wasnorm_wordpool_576.txt	LTP250	ltpFR2	14	14	SCALPEL	1243	n/a	n/a	0	0	0
3077.366	n/a	WORD	1538683	wordpools/wasnorm_wordpool_576.txt	LTP250	ltpFR2	14	14	EAGLE	512	n/a	n/a	0	0	0
3079.984	n/a	WORD	1539992	wordpools/wasnorm_wordpool_576.txt	LTP250	ltpFR2	14	14	QUAIL	1147	n/a	n/a	0	0	0
3082.77	n/a	WORD	1541385	wordpools/wasnorm_wordpool_576.txt	LTP250	ltpFR2	14	14	ZIPPER	1636	n/a	n/a	0	0	0
3084.39	n/a	START	1542195	n/a	LTP250	ltpFR2	14	n/a	n/a	n/a	20	n/a	n/a	n/a	n/a
3085.516	n/a	DISTRACTOR	1542758	n/a	LTP250	ltpFR2	14	14	n/a	n/a	n/a	n/a	0	0	0
3085.524	n/a	PROB	1542762	n/a	LTP250	ltpFR2	14	n/a	n/a	n/a	20	22	9	5	7
3087.792	n/a	PROB	1543896	n/a	LTP250	ltpFR2	14	n/a	n/a	n/a	20	15	8	1	6
3090.126	n/a	PROB	1545063	n/a	LTP250	ltpFR2	14	n/a	n/a	n/a	20	23	8	5	9
3092.414	n/a	PROB	1546207	n/a	LTP250	ltpFR2	14	n/a	n/a	n/a	20	12	9	1	2
3094.13	n/a	PROB	1547065	n/a	LTP250	ltpFR2	14	n/a	n/a	n/a	20	14	3	6	5
3096.232	n/a	PROB	1548116	n/a	LTP250	ltpFR2	14	n/a	n/a	n/a	20	19	5	9	5
3097.716	n/a	PROB	1548858	n/a	LTP250	ltpFR2	14	n/a	n/a	n/a	20	18	9	8	1
3099.62	n/a	PROB	1549810	n/a	LTP250	ltpFR2	14	n/a	n/a	n/a	20	15	4	7	4
3101.87	n/a	PROB	1550935	n/a	LTP250	ltpFR2	14	n/a	n/a	n/a	20	11	5	3	3
3103.29	n/a	PROB	1551645	n/a	LTP250	ltpFR2	14	n/a	n/a	n/a	20	15	6	5	4
3104.89	n/a	PROB	1552445	n/a	LTP250	ltpFR2	14	n/a	n/a	n/a	20	13	3	9	1
3108.388	n/a	STOP	1554194	n/a	LTP250	ltpFR2	14	n/a	n/a	n/a	20	n/a	n/a	n/a	n/a
3110.344	n/a	REC_START	1555172	n/a	LTP250	ltpFR2	14	14	n/a	n/a	n/a	n/a	0	0	0
3110.97	n/a	REC_WORD	1555485	wordpools/wasnorm_wordpool_576.txt	LTP250	ltpFR2	14	14	PEACH	1031	n/a	n/a	0	0	0
3111.564	n/a	REC_WORD	1555782	wordpools/wasnorm_wordpool_576.txt	LTP250	ltpFR2	14	14	TART	1436	n/a	n/a	0	0	0
3112.12	n/a	REC_WORD	1556060	wordpools/wasnorm_wordpool_576.txt	LTP250	ltpFR2	14	14	PUPPY	1144	n/a	n/a	0	0	0
3112.764	n/a	REC_WORD	1556382	wordpools/wasnorm_wordpool_576.txt	LTP250	ltpFR2	14	14	SCALPEL	1243	n/a	n/a	0	0	0
3115.964	n/a	REC_WORD	1557982	wordpools/wasnorm_wordpool_576.txt	LTP250	ltpFR2	14	14	ZIPPER	1636	n/a	n/a	0	0	0
3116.764	n/a	REC_WORD	1558382	wordpools/wasnorm_wordpool_576.txt	LTP250	ltpFR2	14	14	QUAIL	1147	n/a	n/a	0	0	0
3117.67	n/a	REC_WORD	1558835	wordpools/wasnorm_wordpool_576.txt	LTP250	ltpFR2	14	14	EAGLE	512	n/a	n/a	0	0	0
3200.97	n/a	DISTRACTOR	1600485	n/a	LTP250	ltpFR2	14	15	n/a	n/a	n/a	n/a	0	0	0
3200.97	n/a	START	1600485	n/a	LTP250	ltpFR2	14	n/a	n/a	n/a	21	n/a	n/a	n/a	n/a
3201.004	n/a	PROB	1600502	n/a	LTP250	ltpFR2	14	n/a	n/a	n/a	21	7	1	2	4
3202.722	n/a	PROB	1601361	n/a	LTP250	ltpFR2	14	n/a	n/a	n/a	21	12	1	9	2
3203.974	n/a	PROB	1601987	n/a	LTP250	ltpFR2	14	n/a	n/a	n/a	21	20	7	8	5
3206.41	n/a	PROB	1603205	n/a	LTP250	ltpFR2	14	n/a	n/a	n/a	21	14	2	3	9
3211.914	n/a	PROB	1605957	n/a	LTP250	ltpFR2	14	n/a	n/a	n/a	21	16	6	8	2
3213.616	n/a	PROB	1606808	n/a	LTP250	ltpFR2	14	n/a	n/a	n/a	21	19	9	2	8
3215.05	n/a	PROB	1607525	n/a	LTP250	ltpFR2	14	n/a	n/a	n/a	21	13	1	7	5
3217.602	n/a	PROB	1608801	n/a	LTP250	ltpFR2	14	n/a	n/a	n/a	21	15	3	5	7
3219.622	n/a	PROB	1609811	n/a	LTP250	ltpFR2	14	n/a	n/a	n/a	21	13	3	6	4
3221.122	n/a	PROB	1610561	n/a	LTP250	ltpFR2	14	n/a	n/a	n/a	21	17	6	2	9
3223.442	n/a	STOP	1611721	n/a	LTP250	ltpFR2	14	n/a	n/a	n/a	21	n/a	n/a	n/a	n/a
3226.11	n/a	WORD	1613055	wordpools/wasnorm_wordpool_576.txt	LTP250	ltpFR2	14	15	SLIME	1327	n/a	n/a	0	0	0
3228.744	n/a	WORD	1614372	wordpools/wasnorm_wordpool_576.txt	LTP250	ltpFR2	14	15	MILDEW	893	n/a	n/a	0	0	0
3231.348	n/a	WORD	1615674	wordpools/wasnorm_wordpool_576.txt	LTP250	ltpFR2	14	15	MUFFIN	929	n/a	n/a	0	0	0
3233.9	n/a	WORD	1616950	wordpools/wasnorm_wordpool_576.txt	LTP250	ltpFR2	14	15	CORAL	378	n/a	n/a	0	0	0
3236.47	n/a	WORD	1618235	wordpools/wasnorm_wordpool_576.txt	LTP250	ltpFR2	14	15	WORLD	1622	n/a	n/a	0	0	0
3239.204	n/a	WORD	1619602	wordpools/wasnorm_wordpool_576.txt	LTP250	ltpFR2	14	15	ICING	732	n/a	n/a	0	0	0
3242.022	n/a	WORD	1621011	wordpools/wasnorm_wordpool_576.txt	LTP250	ltpFR2	14	15	SODA	1341	n/a	n/a	0	0	0
3244.492	n/a	WORD	1622246	wordpools/wasnorm_wordpool_576.txt	LTP250	ltpFR2	14	15	TOASTER	1472	n/a	n/a	0	0	0
3247.278	n/a	WORD	1623639	wordpools/wasnorm_wordpool_576.txt	LTP250	ltpFR2	14	15	PARSLEY	1016	n/a	n/a	0	0	0
3249.812	n/a	WORD	1624906	wordpools/wasnorm_wordpool_576.txt	LTP250	ltpFR2	14	15	SHIRT	1287	n/a	n/a	0	0	0
3252.332	n/a	WORD	1626166	wordpools/wasnorm_wordpool_576.txt	LTP250	ltpFR2	14	15	HOOK	715	n/a	n/a	0	0	0
3254.816	n/a	WORD	1627408	wordpools/wasnorm_wordpool_576.txt	LTP250	ltpFR2	14	15	FUNGUS	614	n/a	n/a	0	0	0
3257.554	n/a	WORD	1628777	wordpools/wasnorm_wordpool_576.txt	LTP250	ltpFR2	14	15	DONOR	485	n/a	n/a	0	0	0
3260.02	n/a	WORD	1630010	wordpools/wasnorm_wordpool_576.txt	LTP250	ltpFR2	14	15	TURTLE	1522	n/a	n/a	0	0	0
3262.724	n/a	WORD	1631362	wordpools/wasnorm_wordpool_576.txt	LTP250	ltpFR2	14	15	CLAM	315	n/a	n/a	0	0	0
3265.36	n/a	WORD	1632680	wordpools/wasnorm_wordpool_576.txt	LTP250	ltpFR2	14	15	STAKE	1368	n/a	n/a	0	0	0
3268.178	n/a	WORD	1634089	wordpools/wasnorm_wordpool_576.txt	LTP250	ltpFR2	14	15	LOFT	840	n/a	n/a	0	0	0
3270.964	n/a	WORD	1635482	wordpools/wasnorm_wordpool_576.txt	LTP250	ltpFR2	14	15	SALAD	1224	n/a	n/a	0	0	0
3273.484	n/a	WORD	1636742	wordpools/wasnorm_wordpool_576.txt	LTP250	ltpFR2	14	15	BOUQUET	157	n/a	n/a	0	0	0
3276.168	n/a	WORD	1638084	wordpools/wasnorm_wordpool_576.txt	LTP250	ltpFR2	14	15	BRANDY	169	n/a	n/a	0	0	0
3278.888	n/a	WORD	1639444	wordpools/wasnorm_wordpool_576.txt	LTP250	ltpFR2	14	15	THREAD	1460	n/a	n/a	0	0	0
3281.324	n/a	WORD	1640662	wordpools/wasnorm_wordpool_576.txt	LTP250	ltpFR2	14	15	MONSTER	912	n/a	n/a	0	0	0
3284.126	n/a	WORD	1642063	wordpools/wasnorm_wordpool_576.txt	LTP250	ltpFR2	14	15	BROOK	177	n/a	n/a	0	0	0
3286.562	n/a	WORD	1643281	wordpools/wasnorm_wordpool_576.txt	LTP250	ltpFR2	14	15	SMOG	1330	n/a	n/a	0	0	0
3288.18	n/a	START	1644090	n/a	LTP250	ltpFR2	14	n/a	n/a	n/a	22	n/a	n/a	n/a	n/a
3289.358	n/a	DISTRACTOR	1644679	n/a	LTP250	ltpFR2	14	15	n/a	n/a	n/a	n/a	0	0	0
3289.364	n/a	PROB	1644682	n/a	LTP250	ltpFR2	14	n/a	n/a	n/a	22	12	3	5	4
3292.114	n/a	PROB	1646057	n/a	LTP250	ltpFR2	14	n/a	n/a	n/a	22	17	3	9	5
3295.318	n/a	PROB	1647659	n/a	LTP250	ltpFR2	14	n/a	n/a	n/a	22	7	2	1	4
3297.604	n/a	PROB	1648802	n/a	LTP250	ltpFR2	14	n/a	n/a	n/a	22	16	7	3	6
3299.204	n/a	PROB	1649602	n/a	LTP250	ltpFR2	14	n/a	n/a	n/a	22	14	2	7	5
3301.506	n/a	PROB	1650753	n/a	LTP250	ltpFR2	14	n/a	n/a	n/a	22	18	3	9	6
3305.31	n/a	PROB	1652655	n/a	LTP250	ltpFR2	14	n/a	n/a	n/a	22	22	8	7	6
3307.044	n/a	PROB	1653522	n/a	LTP250	ltpFR2	14	n/a	n/a	n/a	22	22	2	9	6
3308.262	n/a	PROB	1654131	n/a	LTP250	ltpFR2	14	n/a	n/a	n/a	22	18	7	7	4
3312.17	n/a	STOP	1656085	n/a	LTP250	ltpFR2	14	n/a	n/a	n/a	22	n/a	n/a	n/a	n/a
3314.018	n/a	REC_START	1657009	n/a	LTP250	ltpFR2	14	15	n/a	n/a	n/a	n/a	0	0	0
3314.998	n/a	REC_WORD	1657499	wordpools/wasnorm_wordpool_576.txt	LTP250	ltpFR2	14	15	BROOK	177	n/a	n/a	0	0	0
3315.658	n/a	REC_WORD	1657829	wordpools/wasnorm_wordpool_576.txt	LTP250	ltpFR2	14	15	SMOG	1330	n/a	n/a	0	0	0
3319.01	n/a	REC_WORD	1659505	wordpools/wasnorm_wordpool_576.txt	LTP250	ltpFR2	14	15	WATER	1594	n/a	n/a	0	0	0
3404.612	n/a	DISTRACTOR	1702306	n/a	LTP250	ltpFR2	14	16	n/a	n/a	n/a	n/a	0	0	0
3404.612	n/a	START	1702306	n/a	LTP250	ltpFR2	14	n/a	n/a	n/a	23	n/a	n/a	n/a	n/a
3404.644	n/a	PROB	1702322	n/a	LTP250	ltpFR2	14	n/a	n/a	n/a	23	9	3	3	3
3406.63	n/a	PROB	1703315	n/a	LTP250	ltpFR2	14	n/a	n/a	n/a	23	6	1	2	3
3408.148	n/a	PROB	1704074	n/a	LTP250	ltpFR2	14	n/a	n/a	n/a	23	15	3	7	5
3409.732	n/a	PROB	1704866	n/a	LTP250	ltpFR2	14	n/a	n/a	n/a	23	14	5	2	7
3411.884	n/a	PROB	1705942	n/a	LTP250	ltpFR2	14	n/a	n/a	n/a	23	8	3	3	2
3413.852	n/a	PROB	1706926	n/a	LTP250	ltpFR2	14	n/a	n/a	n/a	23	8	3	4	1
3416.188	n/a	PROB	1708094	n/a	LTP250	ltpFR2	14	n/a	n/a	n/a	23	11	6	3	2
3418.558	n/a	PROB	1709279	n/a	LTP250	ltpFR2	14	n/a	n/a	n/a	23	13	1	4	8
3420.158	n/a	PROB	1710079	n/a	LTP250	ltpFR2	14	n/a	n/a	n/a	23	18	5	4	9
3428.61	n/a	STOP	1714305	n/a	LTP250	ltpFR2	14	n/a	n/a	n/a	23	n/a	n/a	n/a	n/a
3429.714	n/a	WORD	1714857	wordpools/wasnorm_wordpool_576.txt	LTP250	ltpFR2	14	16	STALLION	1369	n/a	n/a	0	0	0
3432.552	n/a	WORD	1716276	wordpools/wasnorm_wordpool_576.txt	LTP250	ltpFR2	14	16	HAND	683	n/a	n/a	0	0	0
3435.152	n/a	WORD	1717576	wordpools/wasnorm_wordpool_576.txt	LTP250	ltpFR2	14	16	POSTAGE	1113	n/a	n/a	0	0	0
3437.656	n/a	WORD	1718828	wordpools/wasnorm_wordpool_576.txt	LTP250	ltpFR2	14	16	NOTEBOOK	959	n/a	n/a	0	0	0
3440.426	n/a	WORD	1720213	wordpools/wasnorm_wordpool_576.txt	LTP250	ltpFR2	14	16	CLOCK	325	n/a	n/a	0	0	0
3443.126	n/a	WORD	1721563	wordpools/wasnorm_wordpool_576.txt	LTP250	ltpFR2	14	16	ROBOT	1200	n/a	n/a	0	0	0
3445.828	n/a	WORD	1722914	wordpools/wasnorm_wordpool_576.txt	LTP250	ltpFR2	14	16	TEACHER	1440	n/a	n/a	0	0	0
3448.416	n/a	WORD	1724208	wordpools/wasnorm_wordpool_576.txt	LTP250	ltpFR2	14	16	GIRL	637	n/a	n/a	0	0	0
3450.934	n/a	WORD	1725467	wordpools/wasnorm_wordpool_576.txt	LTP250	ltpFR2	14	16	FRIEND	606	n/a	n/a	0	0	0
3453.686	n/a	WORD	1726843	wordpools/wasnorm_wordpool_576.txt	LTP250	ltpFR2	14	16	BOYFRIEND	162	n/a	n/a	0	0	0
3456.322	n/a	WORD	1728161	wordpools/wasnorm_wordpool_576.txt	LTP250	ltpFR2	14	16	FIDDLE	561	n/a	n/a	0	0	0
3459.108	n/a	WORD	1729554	wordpools/wasnorm_wordpool_576.txt	LTP250	ltpFR2	14	16	HARP	689	n/a	n/a	0	0	0
3461.892	n/a	WORD	1730946	wordpools/wasnorm_wordpool_576.txt	LTP250	ltpFR2	14	16	HOSTESS	723	n/a	n/a	0	0	0
3464.728	n/a	WORD	1732364	wordpools/wasnorm_wordpool_576.txt	LTP250	ltpFR2	14	16	PICNIC	1060	n/a	n/a	0	0	0
3467.282	n/a	WORD	1733641	wordpools/wasnorm_wordpool_576.txt	LTP250	ltpFR2	14	16	SHORTCAKE	1292	n/a	n/a	0	0	0
3469.734	n/a	WORD	1734867	wordpools/wasnorm_wordpool_576.txt	LTP250	ltpFR2	14	16	GOBLIN	645	n/a	n/a	0	0	0
3472.202	n/a	WORD	1736101	wordpools/wasnorm_wordpool_576.txt	LTP250	ltpFR2	14	16	GARBAGE	622	n/a	n/a	0	0	0
3475.036	n/a	WORD	1737518	wordpools/wasnorm_wordpool_576.txt	LTP250	ltpFR2	14	16	SURVEY	1414	n/a	n/a	0	0	0
3477.74	n/a	WORD	1738870	wordpools/wasnorm_wordpool_576.txt	LTP250	ltpFR2	14	16	TUNNEL	1519	n/a	n/a	0	0	0
3480.308	n/a	WORD	1740154	wordpools/wasnorm_wordpool_576.txt	LTP250	ltpFR2	14	16	ELBOW	520	n/a	n/a	0	0	0
3483.076	n/a	WORD	1741538	wordpools/wasnorm_wordpool_576.txt	LTP250	ltpFR2	14	16	STAMP	1370	n/a	n/a	0	0	0
3485.614	n/a	WORD	1742807	wordpools/wasnorm_wordpool_576.txt	LTP250	ltpFR2	14	16	SCALLOP	1242	n/a	n/a	0	0	0
3488.266	n/a	WORD	1744133	wordpools/wasnorm_wordpool_576.txt	LTP250	ltpFR2	14	16	PECAN	1036	n/a	n/a	0	0	0
3490.784	n/a	WORD	1745392	wordpools/wasnorm_wordpool_576.txt	LTP250	ltpFR2	14	16	NAPKIN	937	n/a	n/a	0	0	0
3492.402	n/a	START	1746201	n/a	LTP250	ltpFR2	14	n/a	n/a	n/a	24	n/a	n/a	n/a	n/a
3493.362	n/a	DISTRACTOR	1746681	n/a	LTP250	ltpFR2	14	16	n/a	n/a	n/a	n/a	0	0	0
3493.386	n/a	PROB	1746693	n/a	LTP250	ltpFR2	14	n/a	n/a	n/a	24	10	5	4	1
3495.438	n/a	PROB	1747719	n/a	LTP250	ltpFR2	14	n/a	n/a	n/a	24	11	3	2	6
3498.19	n/a	PROB	1749095	n/a	LTP250	ltpFR2	14	n/a	n/a	n/a	24	13	3	5	5
3499.508	n/a	PROB	1749754	n/a	LTP250	ltpFR2	14	n/a	n/a	n/a	24	17	8	3	6
3502.076	n/a	PROB	1751038	n/a	LTP250	ltpFR2	14	n/a	n/a	n/a	24	13	1	5	7
3504.162	n/a	PROB	1752081	n/a	LTP250	ltpFR2	14	n/a	n/a	n/a	24	15	1	5	9
3507.082	n/a	PROB	1753541	n/a	LTP250	ltpFR2	14	n/a	n/a	n/a	24	18	9	8	1
3509.384	n/a	PROB	1754692	n/a	LTP250	ltpFR2	14	n/a	n/a	n/a	24	18	9	1	8
3516.402	n/a	STOP	1758201	n/a	LTP250	ltpFR2	14	n/a	n/a	n/a	24	n/a	n/a	n/a	n/a
3518.308	n/a	REC_START	1759154	n/a	LTP250	ltpFR2	14	16	n/a	n/a	n/a	n/a	0	0	0
3519.17	n/a	REC_WORD	1759585	wordpools/wasnorm_wordpool_576.txt	LTP250	ltpFR2	14	16	SURVEY	1414	n/a	n/a	0	0	0
3519.938	n/a	REC_WORD	1759969	wordpools/wasnorm_wordpool_576.txt	LTP250	ltpFR2	14	16	SCALLOP	1242	n/a	n/a	0	0	0
3522.086	n/a	REC_WORD	1761043	wordpools/wasnorm_wordpool_576.txt	LTP250	ltpFR2	14	16	TEACHER	1440	n/a	n/a	0	0	0
3522.738	n/a	REC_WORD	1761369	wordpools/wasnorm_wordpool_576.txt	LTP250	ltpFR2	14	16	GIRL	637	n/a	n/a	0	0	0
3523.292	n/a	REC_WORD	1761646	wordpools/wasnorm_wordpool_576.txt	LTP250	ltpFR2	14	16	BOYFRIEND	162	n/a	n/a	0	0	0
3524.114	n/a	REC_WORD	1762057	wordpools/wasnorm_wordpool_576.txt	LTP250	ltpFR2	14	16	ROBOT	1200	n/a	n/a	0	0	0
3594.856	n/a	REST_REWET	1797428	n/a	LTP250	ltpFR2	14	16	n/a	n/a	n/a	n/a	0	0	0
3775.876	n/a	DISTRACTOR	1887938	n/a	LTP250	ltpFR2	14	17	n/a	n/a	n/a	n/a	0	0	0
3775.876	n/a	START	1887938	n/a	LTP250	ltpFR2	14	n/a	n/a	n/a	25	n/a	n/a	n/a	n/a
3775.892	n/a	PROB	1887946	n/a	LTP250	ltpFR2	14	n/a	n/a	n/a	25	19	7	5	7
3777.778	n/a	PROB	1888889	n/a	LTP250	ltpFR2	14	n/a	n/a	n/a	25	17	8	9	8
3780.714	n/a	PROB	1890357	n/a	LTP250	ltpFR2	14	n/a	n/a	n/a	25	4	1	1	2
3782.732	n/a	PROB	1891366	n/a	LTP250	ltpFR2	14	n/a	n/a	n/a	25	17	8	1	8
3787.82	n/a	PROB	1893910	n/a	LTP250	ltpFR2	14	n/a	n/a	n/a	25	9	4	4	1
3791.022	n/a	PROB	1895511	n/a	LTP250	ltpFR2	14	n/a	n/a	n/a	25	18	6	6	6
3794.842	n/a	PROB	1897421	n/a	LTP250	ltpFR2	14	n/a	n/a	n/a	25	19	8	9	2
3796.894	n/a	PROB	1898447	n/a	LTP250	ltpFR2	14	n/a	n/a	n/a	25	14	4	7	3
3798.556	n/a	STOP	1899278	n/a	LTP250	ltpFR2	14	n/a	n/a	n/a	25	n/a	n/a	n/a	n/a
3800.714	n/a	WORD	1900357	wordpools/wasnorm_wordpool_576.txt	LTP250	ltpFR2	14	17	ULCER	1533	n/a	n/a	0	0	0
3803.3	n/a	WORD	1901650	wordpools/wasnorm_wordpool_576.txt	LTP250	ltpFR2	14	17	BEAST	108	n/a	n/a	0	0	0
3806.068	n/a	WORD	1903034	wordpools/wasnorm_wordpool_576.txt	LTP250	ltpFR2	14	17	FOX	598	n/a	n/a	0	0	0
3808.77	n/a	WORD	1904385	wordpools/wasnorm_wordpool_576.txt	LTP250	ltpFR2	14	17	DANDRUFF	439	n/a	n/a	0	0	0
3811.358	n/a	WORD	1905679	wordpools/wasnorm_wordpool_576.txt	LTP250	ltpFR2	14	17	COUSIN	392	n/a	n/a	0	0	0
3813.842	n/a	WORD	1906921	wordpools/wasnorm_wordpool_576.txt	LTP250	ltpFR2	14	17	GRAVE	658	n/a	n/a	0	0	0
3816.378	n/a	WORD	1908189	wordpools/wasnorm_wordpool_576.txt	LTP250	ltpFR2	14	17	CASKET	255	n/a	n/a	0	0	0
3819.162	n/a	WORD	1909581	wordpools/wasnorm_wordpool_576.txt	LTP250	ltpFR2	14	17	FLOWER	584	n/a	n/a	0	0	0
3821.982	n/a	WORD	1910991	wordpools/wasnorm_wordpool_576.txt	LTP250	ltpFR2	14	17	FLIPPER	580	n/a	n/a	0	0	0
3824.552	n/a	WORD	1912276	wordpools/wasnorm_wordpool_576.txt	LTP250	ltpFR2	14	17	PLIERS	1089	n/a	n/a	0	0	0
3827.304	n/a	WORD	1913652	wordpools/wasnorm_wordpool_576.txt	LTP250	ltpFR2	14	17	SKILLET	1317	n/a	n/a	0	0	0
3830.072	n/a	WORD	1915036	wordpools/wasnorm_wordpool_576.txt	LTP250	ltpFR2	14	17	BRICK	172	n/a	n/a	0	0	0
3832.842	n/a	WORD	1916421	wordpools/wasnorm_wordpool_576.txt	LTP250	ltpFR2	14	17	FLESH	579	n/a	n/a	0	0	0
3835.444	n/a	WORD	1917722	wordpools/wasnorm_wordpool_576.txt	LTP250	ltpFR2	14	17	SALMON	1227	n/a	n/a	0	0	0
3838.128	n/a	WORD	1919064	wordpools/wasnorm_wordpool_576.txt	LTP250	ltpFR2	14	17	SPIDER	1351	n/a	n/a	0	0	0
3840.78	n/a	WORD	1920390	wordpools/wasnorm_wordpool_576.txt	LTP250	ltpFR2	14	17	SPACE	1345	n/a	n/a	0	0	0
3843.6	n/a	WORD	1921800	wordpools/wasnorm_wordpool_576.txt	LTP250	ltpFR2	14	17	ANKLE	24	n/a	n/a	0	0	0
3846.136	n/a	WORD	1923068	wordpools/wasnorm_wordpool_576.txt	LTP250	ltpFR2	14	17	DUSTPAN	509	n/a	n/a	0	0	0
3848.838	n/a	WORD	1924419	wordpools/wasnorm_wordpool_576.txt	LTP250	ltpFR2	14	17	TILE	1468	n/a	n/a	0	0	0
3851.408	n/a	WORD	1925704	wordpools/wasnorm_wordpool_576.txt	LTP250	ltpFR2	14	17	CRATER	400	n/a	n/a	0	0	0
3853.858	n/a	WORD	1926929	wordpools/wasnorm_wordpool_576.txt	LTP250	ltpFR2	14	17	DAISY	435	n/a	n/a	0	0	0
3856.694	n/a	WORD	1928347	wordpools/wasnorm_wordpool_576.txt	LTP250	ltpFR2	14	17	HUMAN	726	n/a	n/a	0	0	0
3859.248	n/a	WORD	1929624	wordpools/wasnorm_wordpool_576.txt	LTP250	ltpFR2	14	17	PEANUT	1032	n/a	n/a	0	0	0
3861.832	n/a	WORD	1930916	wordpools/wasnorm_wordpool_576.txt	LTP250	ltpFR2	14	17	KETCHUP	771	n/a	n/a	0	0	0
3863.452	n/a	START	1931726	n/a	LTP250	ltpFR2	14	n/a	n/a	n/a	26	n/a	n/a	n/a	n/a
3864.568	n/a	DISTRACTOR	1932284	n/a	LTP250	ltpFR2	14	17	n/a	n/a	n/a	n/a	0	0	0
3864.586	n/a	PROB	1932293	n/a	LTP250	ltpFR2	14	n/a	n/a	n/a	26	14	4	7	3
3867.154	n/a	PROB	1933577	n/a	LTP250	ltpFR2	14	n/a	n/a	n/a	26	20	4	7	9
3871.624	n/a	PROB	1935812	n/a	LTP250	ltpFR2	14	n/a	n/a	n/a	26	21	7	7	7
3873.36	n/a	PROB	1936680	n/a	LTP250	ltpFR2	14	n/a	n/a	n/a	26	16	5	2	9
3875.512	n/a	PROB	1937756	n/a	LTP250	ltpFR2	14	n/a	n/a	n/a	26	17	5	9	3
3879.932	n/a	PROB	1939966	n/a	LTP250	ltpFR2	14	n/a	n/a	n/a	26	22	7	7	8
3881.784	n/a	PROB	1940892	n/a	LTP250	ltpFR2	14	n/a	n/a	n/a	26	20	7	9	4
3886.582	n/a	STOP	1943291	n/a	LTP250	ltpFR2	14	n/a	n/a	n/a	26	n/a	n/a	n/a	n/a
3889.39	n/a	REC_START	1944695	n/a	LTP250	ltpFR2	14	17	n/a	n/a	n/a	n/a	0	0	0
3894.21	n/a	REC_WORD	1947105	wordpools/wasnorm_wordpool_576.txt	LTP250	ltpFR2	14	17	CASKET	255	n/a	n/a	0	0	0
3894.944	n/a	REC_WORD	1947472	wordpools/wasnorm_wordpool_576.txt	LTP250	ltpFR2	14	17	COUSIN	392	n/a	n/a	0	0	0
3895.552	n/a	REC_WORD	1947776	wordpools/wasnorm_wordpool_576.txt	LTP250	ltpFR2	14	17	FLESH	579	n/a	n/a	0	0	0
3898.514	n/a	REC_WORD	1949257	wordpools/wasnorm_wordpool_576.txt	LTP250	ltpFR2	14	17	GRAVE	658	n/a	n/a	0	0	0
3899.456	n/a	REC_WORD	1949728	wordpools/wasnorm_wordpool_576.txt	LTP250	ltpFR2	14	17	PLIERS	1089	n/a	n/a	0	0	0
3900.224	n/a	REC_WORD	1950112	wordpools/wasnorm_wordpool_576.txt	LTP250	ltpFR2	14	17	FLOWER	584	n/a	n/a	0	0	0
3901.05	n/a	REC_WORD	1950525	wordpools/wasnorm_wordpool_576.txt	LTP250	ltpFR2	14	17	DAISY	435	n/a	n/a	0	0	0
3902.394	n/a	REC_WORD	1951197	wordpools/wasnorm_wordpool_576.txt	LTP250	ltpFR2	14	17	KETCHUP	771	n/a	n/a	0	0	0
3903.126	n/a	REC_WORD	1951563	wordpools/wasnorm_wordpool_576.txt	LTP250	ltpFR2	14	17	PEANUT	1032	n/a	n/a	0	0	0
3904.93	n/a	REC_WORD	1952465	wordpools/wasnorm_wordpool_576.txt	LTP250	ltpFR2	14	17	FOX	598	n/a	n/a	0	0	0
3905.732	n/a	REC_WORD	1952866	wordpools/wasnorm_wordpool_576.txt	LTP250	ltpFR2	14	17	BEAST	108	n/a	n/a	0	0	0
3980.05	n/a	WORD	1990025	wordpools/wasnorm_wordpool_576.txt	LTP250	ltpFR2	14	18	DRINK	498	n/a	n/a	0	0	0
3982.734	n/a	WORD	1991367	wordpools/wasnorm_wordpool_576.txt	LTP250	ltpFR2	14	18	GALLON	618	n/a	n/a	0	0	0
3985.186	n/a	WORD	1992593	wordpools/wasnorm_wordpool_576.txt	LTP250	ltpFR2	14	18	HIKER	708	n/a	n/a	0	0	0
3987.722	n/a	WORD	1993861	wordpools/wasnorm_wordpool_576.txt	LTP250	ltpFR2	14	18	JURY	766	n/a	n/a	0	0	0
3990.192	n/a	WORD	1995096	wordpools/wasnorm_wordpool_576.txt	LTP250	ltpFR2	14	18	FIREPLACE	570	n/a	n/a	0	0	0
3992.826	n/a	WORD	1996413	wordpools/wasnorm_wordpool_576.txt	LTP250	ltpFR2	14	18	JUDGE	761	n/a	n/a	0	0	0
3995.48	n/a	WORD	1997740	wordpools/wasnorm_wordpool_576.txt	LTP250	ltpFR2	14	18	WINDOW	1611	n/a	n/a	0	0	0
3997.982	n/a	WORD	1998991	wordpools/wasnorm_wordpool_576.txt	LTP250	ltpFR2	14	18	FLASHLIGHT	575	n/a	n/a	0	0	0
4000.716	n/a	WORD	2000358	wordpools/wasnorm_wordpool_576.txt	LTP250	ltpFR2	14	18	MACHINE	852	n/a	n/a	0	0	0
4003.37	n/a	WORD	2001685	wordpools/wasnorm_wordpool_576.txt	LTP250	ltpFR2	14	18	LAGOON	795	n/a	n/a	0	0	0
4006.138	n/a	WORD	2003069	wordpools/wasnorm_wordpool_576.txt	LTP250	ltpFR2	14	18	ISLAND	745	n/a	n/a	0	0	0
4008.608	n/a	WORD	2004304	wordpools/wasnorm_wordpool_576.txt	LTP250	ltpFR2	14	18	COBRA	336	n/a	n/a	0	0	0
4011.126	n/a	WORD	2005563	wordpools/wasnorm_wordpool_576.txt	LTP250	ltpFR2	14	18	PUPIL	1143	n/a	n/a	0	0	0
4013.662	n/a	WORD	2006831	wordpools/wasnorm_wordpool_576.txt	LTP250	ltpFR2	14	18	COCOON	339	n/a	n/a	0	0	0
4016.416	n/a	WORD	2008208	wordpools/wasnorm_wordpool_576.txt	LTP250	ltpFR2	14	18	CITRUS	313	n/a	n/a	0	0	0
4019.016	n/a	WORD	2009508	wordpools/wasnorm_wordpool_576.txt	LTP250	ltpFR2	14	18	BRIEFCASE	175	n/a	n/a	0	0	0
4021.668	n/a	WORD	2010834	wordpools/wasnorm_wordpool_576.txt	LTP250	ltpFR2	14	18	PREACHER	1119	n/a	n/a	0	0	0
4024.254	n/a	WORD	2012127	wordpools/wasnorm_wordpool_576.txt	LTP250	ltpFR2	14	18	FRIAR	605	n/a	n/a	0	0	0
4026.856	n/a	WORD	2013428	wordpools/wasnorm_wordpool_576.txt	LTP250	ltpFR2	14	18	HAWK	692	n/a	n/a	0	0	0
4029.592	n/a	WORD	2014796	wordpools/wasnorm_wordpool_576.txt	LTP250	ltpFR2	14	18	SUNSET	1408	n/a	n/a	0	0	0
4032.294	n/a	WORD	2016147	wordpools/wasnorm_wordpool_576.txt	LTP250	ltpFR2	14	18	BUG	187	n/a	n/a	0	0	0
4034.896	n/a	WORD	2017448	wordpools/wasnorm_wordpool_576.txt	LTP250	ltpFR2	14	18	SWAMP	1416	n/a	n/a	0	0	0
4037.5	n/a	WORD	2018750	wordpools/wasnorm_wordpool_576.txt	LTP250	ltpFR2	14	18	CHILD	299	n/a	n/a	0	0	0
4040.118	n/a	WORD	2020059	wordpools/wasnorm_wordpool_576.txt	LTP250	ltpFR2	14	18	CANYON	235	n/a	n/a	0	0	0
4041.736	n/a	START	2020868	n/a	LTP250	ltpFR2	14	n/a	n/a	n/a	27	n/a	n/a	n/a	n/a
4042.728	n/a	DISTRACTOR	2021364	n/a	LTP250	ltpFR2	14	18	n/a	n/a	n/a	n/a	0	0	0
4042.736	n/a	PROB	2021368	n/a	LTP250	ltpFR2	14	n/a	n/a	n/a	27	17	1	9	7
4045.038	n/a	PROB	2022519	n/a	LTP250	ltpFR2	14	n/a	n/a	n/a	27	18	4	8	6
4048.258	n/a	PROB	2024129	n/a	LTP250	ltpFR2	14	n/a	n/a	n/a	27	22	7	6	9
4053.962	n/a	PROB	2026981	n/a	LTP250	ltpFR2	14	n/a	n/a	n/a	27	19	4	9	6
4056.416	n/a	PROB	2028208	n/a	LTP250	ltpFR2	14	n/a	n/a	n/a	27	15	5	4	6
4057.766	n/a	PROB	2028883	n/a	LTP250	ltpFR2	14	n/a	n/a	n/a	27	7	1	3	3
4059.418	n/a	PROB	2029709	n/a	LTP250	ltpFR2	14	n/a	n/a	n/a	27	12	2	1	9
4061.42	n/a	PROB	2030710	n/a	LTP250	ltpFR2	14	n/a	n/a	n/a	27	16	7	6	3
4065.734	n/a	STOP	2032867	n/a	LTP250	ltpFR2	14	n/a	n/a	n/a	27	n/a	n/a	n/a	n/a
4067.542	n/a	REC_START	2033771	n/a	LTP250	ltpFR2	14	18	n/a	n/a	n/a	n/a	0	0	0
4075.04	n/a	REC_WORD	2037520	wordpools/wasnorm_wordpool_576.txt	LTP250	ltpFR2	14	18	FRIAR	605	n/a	n/a	0	0	0
4076.254	n/a	REC_WORD	2038127	wordpools/wasnorm_wordpool_576.txt	LTP250	ltpFR2	14	18	FRIED	-1	n/a	n/a	0	0	0
4081.84	n/a	REC_WORD	2040920	wordpools/wasnorm_wordpool_576.txt	LTP250	ltpFR2	14	18	GANGSTER	620	n/a	n/a	0	0	0
4082.664	n/a	REC_WORD	2041332	wordpools/wasnorm_wordpool_576.txt	LTP250	ltpFR2	14	18	BROOK	177	n/a	n/a	0	0	0
4158.166	n/a	DISTRACTOR	2079083	n/a	LTP250	ltpFR2	14	19	n/a	n/a	n/a	n/a	0	0	0
4158.168	n/a	START	2079084	n/a	LTP250	ltpFR2	14	n/a	n/a	n/a	28	n/a	n/a	n/a	n/a
4158.2	n/a	PROB	2079100	n/a	LTP250	ltpFR2	14	n/a	n/a	n/a	28	17	7	8	2
4160.068	n/a	PROB	2080034	n/a	LTP250	ltpFR2	14	n/a	n/a	n/a	28	16	4	9	3
4163.356	n/a	PROB	2081678	n/a	LTP250	ltpFR2	14	n/a	n/a	n/a	28	15	4	6	5
4165.358	n/a	PROB	2082679	n/a	LTP250	ltpFR2	14	n/a	n/a	n/a	28	19	8	5	6
4168.976	n/a	PROB	2084488	n/a	LTP250	ltpFR2	14	n/a	n/a	n/a	28	19	6	7	6
4171.962	n/a	PROB	2085981	n/a	LTP250	ltpFR2	14	n/a	n/a	n/a	28	8	6	1	1
4173.282	n/a	PROB	2086641	n/a	LTP250	ltpFR2	14	n/a	n/a	n/a	28	14	8	3	3
4176.016	n/a	PROB	2088008	n/a	LTP250	ltpFR2	14	n/a	n/a	n/a	28	18	6	7	2
4182.168	n/a	STOP	2091084	n/a	LTP250	ltpFR2	14	n/a	n/a	n/a	28	n/a	n/a	n/a	n/a
4183.374	n/a	WORD	2091687	wordpools/wasnorm_wordpool_576.txt	LTP250	ltpFR2	14	19	SHOULDER	1294	n/a	n/a	0	0	0
4186.058	n/a	WORD	2093029	wordpools/wasnorm_wordpool_576.txt	LTP250	ltpFR2	14	19	CUSTARD	429	n/a	n/a	0	0	0
4188.71	n/a	WORD	2094355	wordpools/wasnorm_wordpool_576.txt	LTP250	ltpFR2	14	19	MUSTARD	935	n/a	n/a	0	0	0
4191.196	n/a	WORD	2095598	wordpools/wasnorm_wordpool_576.txt	LTP250	ltpFR2	14	19	GRILL	661	n/a	n/a	0	0	0
4193.982	n/a	WORD	2096991	wordpools/wasnorm_wordpool_576.txt	LTP250	ltpFR2	14	19	MARROW	872	n/a	n/a	0	0	0
4196.634	n/a	WORD	2098317	wordpools/wasnorm_wordpool_576.txt	LTP250	ltpFR2	14	19	BUTCHER	203	n/a	n/a	0	0	0
4199.202	n/a	WORD	2099601	wordpools/wasnorm_wordpool_576.txt	LTP250	ltpFR2	14	19	AGENT	10	n/a	n/a	0	0	0
4201.854	n/a	WORD	2100927	wordpools/wasnorm_wordpool_576.txt	LTP250	ltpFR2	14	19	BUREAU	199	n/a	n/a	0	0	0
4204.574	n/a	WORD	2102287	wordpools/wasnorm_wordpool_576.txt	LTP250	ltpFR2	14	19	CHAMPAGNE	278	n/a	n/a	0	0	0
4207.276	n/a	WORD	2103638	wordpools/wasnorm_wordpool_576.txt	LTP250	ltpFR2	14	19	GARDEN	623	n/a	n/a	0	0	0
4210.028	n/a	WORD	2105014	wordpools/wasnorm_wordpool_576.txt	LTP250	ltpFR2	14	19	EYELASH	546	n/a	n/a	0	0	0
4212.564	n/a	WORD	2106282	wordpools/wasnorm_wordpool_576.txt	LTP250	ltpFR2	14	19	PISTON	1076	n/a	n/a	0	0	0
4215.15	n/a	WORD	2107575	wordpools/wasnorm_wordpool_576.txt	LTP250	ltpFR2	14	19	TRUCK	1512	n/a	n/a	0	0	0
4217.752	n/a	WORD	2108876	wordpools/wasnorm_wordpool_576.txt	LTP250	ltpFR2	14	19	MILK	895	n/a	n/a	0	0	0
4220.22	n/a	WORD	2110110	wordpools/wasnorm_wordpool_576.txt	LTP250	ltpFR2	14	19	MARKER	870	n/a	n/a	0	0	0
4222.822	n/a	WORD	2111411	wordpools/wasnorm_wordpool_576.txt	LTP250	ltpFR2	14	19	CABIN	211	n/a	n/a	0	0	0
4225.358	n/a	WORD	2112679	wordpools/wasnorm_wordpool_576.txt	LTP250	ltpFR2	14	19	CRAYON	401	n/a	n/a	0	0	0
4228.044	n/a	WORD	2114022	wordpools/wasnorm_wordpool_576.txt	LTP250	ltpFR2	14	19	CRUTCH	417	n/a	n/a	0	0	0
4230.846	n/a	WORD	2115423	wordpools/wasnorm_wordpool_576.txt	LTP250	ltpFR2	14	19	BLUEPRINT	142	n/a	n/a	0	0	0
4233.35	n/a	WORD	2116675	wordpools/wasnorm_wordpool_576.txt	LTP250	ltpFR2	14	19	MEAT	883	n/a	n/a	0	0	0
4236.034	n/a	WORD	2118017	wordpools/wasnorm_wordpool_576.txt	LTP250	ltpFR2	14	19	CHEST	295	n/a	n/a	0	0	0
4238.486	n/a	WORD	2119243	wordpools/wasnorm_wordpool_576.txt	LTP250	ltpFR2	14	19	DUST	508	n/a	n/a	0	0	0
4241.138	n/a	WORD	2120569	wordpools/wasnorm_wordpool_576.txt	LTP250	ltpFR2	14	19	CYCLONE	431	n/a	n/a	0	0	0
4243.758	n/a	WORD	2121879	wordpools/wasnorm_wordpool_576.txt	LTP250	ltpFR2	14	19	GLASS	639	n/a	n/a	0	0	0
4245.36	n/a	START	2122680	n/a	LTP250	ltpFR2	14	n/a	n/a	n/a	29	n/a	n/a	n/a	n/a
4246.356	n/a	DISTRACTOR	2123178	n/a	LTP250	ltpFR2	14	19	n/a	n/a	n/a	n/a	0	0	0
4246.36	n/a	PROB	2123180	n/a	LTP250	ltpFR2	14	n/a	n/a	n/a	29	10	2	3	5
4254.866	n/a	PROB	2127433	n/a	LTP250	ltpFR2	14	n/a	n/a	n/a	29	10	1	1	8
4257.452	n/a	PROB	2128726	n/a	LTP250	ltpFR2	14	n/a	n/a	n/a	29	14	5	2	7
4259.82	n/a	PROB	2129910	n/a	LTP250	ltpFR2	14	n/a	n/a	n/a	29	20	6	9	5
4262.138	n/a	PROB	2131069	n/a	LTP250	ltpFR2	14	n/a	n/a	n/a	29	19	5	5	9
4263.508	n/a	PROB	2131754	n/a	LTP250	ltpFR2	14	n/a	n/a	n/a	29	15	4	2	9
4265.46	n/a	PROB	2132730	n/a	LTP250	ltpFR2	14	n/a	n/a	n/a	29	16	2	9	5
4268.412	n/a	STOP	2134206	n/a	LTP250	ltpFR2	14	n/a	n/a	n/a	29	n/a	n/a	n/a	n/a
4271.298	n/a	REC_START	2135649	n/a	LTP250	ltpFR2	14	19	n/a	n/a	n/a	n/a	0	0	0
4274.776	n/a	REC_WORD	2137388	wordpools/wasnorm_wordpool_576.txt	LTP250	ltpFR2	14	19	CUSTARD	429	n/a	n/a	0	0	0
4276.016	n/a	REC_WORD	2138008	wordpools/wasnorm_wordpool_576.txt	LTP250	ltpFR2	14	19	CHAMPAGNE	278	n/a	n/a	0	0	0
4277.764	n/a	REC_WORD	2138882	wordpools/wasnorm_wordpool_576.txt	LTP250	ltpFR2	14	19	GARDEN	623	n/a	n/a	0	0	0
4285.326	n/a	REC_WORD	2142663	wordpools/wasnorm_wordpool_576.txt	LTP250	ltpFR2	14	19	BUTCHER	203	n/a	n/a	0	0	0
4361.824	n/a	WORD	2180912	wordpools/wasnorm_wordpool_576.txt	LTP250	ltpFR2	14	20	SWORD	1423	n/a	n/a	0	0	0
4364.276	n/a	WORD	2182138	wordpools/wasnorm_wordpool_576.txt	LTP250	ltpFR2	14	20	PRINCESS	1125	n/a	n/a	0	0	0
4366.844	n/a	WORD	2183422	wordpools/wasnorm_wordpool_576.txt	LTP250	ltpFR2	14	20	BANK	83	n/a	n/a	0	0	0
4369.548	n/a	WORD	2184774	wordpools/wasnorm_wordpool_576.txt	LTP250	ltpFR2	14	20	BLADE	134	n/a	n/a	0	0	0
4372.082	n/a	WORD	2186041	wordpools/wasnorm_wordpool_576.txt	LTP250	ltpFR2	14	20	SCISSORS	1250	n/a	n/a	0	0	0
4374.634	n/a	WORD	2187317	wordpools/wasnorm_wordpool_576.txt	LTP250	ltpFR2	14	20	AUTHOR	61	n/a	n/a	0	0	0
4377.272	n/a	WORD	2188636	wordpools/wasnorm_wordpool_576.txt	LTP250	ltpFR2	14	20	POET	1095	n/a	n/a	0	0	0
4379.79	n/a	WORD	2189895	wordpools/wasnorm_wordpool_576.txt	LTP250	ltpFR2	14	20	NOVEL	960	n/a	n/a	0	0	0
4382.542	n/a	WORD	2191271	wordpools/wasnorm_wordpool_576.txt	LTP250	ltpFR2	14	20	MONEY	908	n/a	n/a	0	0	0
4385.31	n/a	WORD	2192655	wordpools/wasnorm_wordpool_576.txt	LTP250	ltpFR2	14	20	STICKER	1382	n/a	n/a	0	0	0
4388.13	n/a	WORD	2194065	wordpools/wasnorm_wordpool_576.txt	LTP250	ltpFR2	14	20	WIDOW	1608	n/a	n/a	0	0	0
4390.598	n/a	WORD	2195299	wordpools/wasnorm_wordpool_576.txt	LTP250	ltpFR2	14	20	RAFT	1159	n/a	n/a	0	0	0
4393.268	n/a	WORD	2196634	wordpools/wasnorm_wordpool_576.txt	LTP250	ltpFR2	14	20	NOMAD	955	n/a	n/a	0	0	0
4395.87	n/a	WORD	2197935	wordpools/wasnorm_wordpool_576.txt	LTP250	ltpFR2	14	20	OINTMENT	974	n/a	n/a	0	0	0
4398.688	n/a	WORD	2199344	wordpools/wasnorm_wordpool_576.txt	LTP250	ltpFR2	14	20	JUNGLE	764	n/a	n/a	0	0	0
4401.156	n/a	WORD	2200578	wordpools/wasnorm_wordpool_576.txt	LTP250	ltpFR2	14	20	EGYPT	519	n/a	n/a	0	0	0
4403.926	n/a	WORD	2201963	wordpools/wasnorm_wordpool_576.txt	LTP250	ltpFR2	14	20	MUMMY	932	n/a	n/a	0	0	0
4406.396	n/a	WORD	2203198	wordpools/wasnorm_wordpool_576.txt	LTP250	ltpFR2	14	20	MATCH	878	n/a	n/a	0	0	0
4408.848	n/a	WORD	2204424	wordpools/wasnorm_wordpool_576.txt	LTP250	ltpFR2	14	20	THRONE	1461	n/a	n/a	0	0	0
4411.65	n/a	WORD	2205825	wordpools/wasnorm_wordpool_576.txt	LTP250	ltpFR2	14	20	HORNET	718	n/a	n/a	0	0	0
4414.202	n/a	WORD	2207101	wordpools/wasnorm_wordpool_576.txt	LTP250	ltpFR2	14	20	PRINCE	1124	n/a	n/a	0	0	0
4416.654	n/a	WORD	2208327	wordpools/wasnorm_wordpool_576.txt	LTP250	ltpFR2	14	20	CLOUD	328	n/a	n/a	0	0	0
4419.358	n/a	WORD	2209679	wordpools/wasnorm_wordpool_576.txt	LTP250	ltpFR2	14	20	ACTOR	5	n/a	n/a	0	0	0
4422.076	n/a	WORD	2211038	wordpools/wasnorm_wordpool_576.txt	LTP250	ltpFR2	14	20	BRAKE	166	n/a	n/a	0	0	0
4423.694	n/a	START	2211847	n/a	LTP250	ltpFR2	14	n/a	n/a	n/a	30	n/a	n/a	n/a	n/a
4424.538	n/a	DISTRACTOR	2212269	n/a	LTP250	ltpFR2	14	20	n/a	n/a	n/a	n/a	0	0	0
4424.562	n/a	PROB	2212281	n/a	LTP250	ltpFR2	14	n/a	n/a	n/a	30	12	9	2	1
4429.164	n/a	PROB	2214582	n/a	LTP250	ltpFR2	14	n/a	n/a	n/a	30	9	3	2	4
4431.866	n/a	PROB	2215933	n/a	LTP250	ltpFR2	14	n/a	n/a	n/a	30	19	9	5	5
4433.236	n/a	PROB	2216618	n/a	LTP250	ltpFR2	14	n/a	n/a	n/a	30	21	8	8	5
4436.604	n/a	PROB	2218302	n/a	LTP250	ltpFR2	14	n/a	n/a	n/a	30	22	7	8	9
4439.622	n/a	PROB	2219811	n/a	LTP250	ltpFR2	14	n/a	n/a	n/a	30	18	3	6	9
4442.56	n/a	PROB	2221280	n/a	LTP250	ltpFR2	14	n/a	n/a	n/a	30	14	7	2	5
4446.384	n/a	STOP	2223192	n/a	LTP250	ltpFR2	14	n/a	n/a	n/a	30	n/a	n/a	n/a	n/a
4449.632	n/a	REC_START	2224816	n/a	LTP250	ltpFR2	14	20	n/a	n/a	n/a	n/a	0	0	0
4475.69	n/a	REC_WORD	2237845	wordpools/wasnorm_wordpool_576.txt	LTP250	ltpFR2	14	20	ROCKET	1202	n/a	n/a	0	0	0
4540.092	n/a	WORD	2270046	wordpools/wasnorm_wordpool_576.txt	LTP250	ltpFR2	14	21	CASHEW	253	n/a	n/a	0	0	0
4542.71	n/a	WORD	2271355	wordpools/wasnorm_wordpool_576.txt	LTP250	ltpFR2	14	21	MAILMAN	858	n/a	n/a	0	0	0
4545.53	n/a	WORD	2272765	wordpools/wasnorm_wordpool_576.txt	LTP250	ltpFR2	14	21	STATUE	1374	n/a	n/a	0	0	0
4548.234	n/a	WORD	2274117	wordpools/wasnorm_wordpool_576.txt	LTP250	ltpFR2	14	21	ICEBERG	731	n/a	n/a	0	0	0
4550.952	n/a	WORD	2275476	wordpools/wasnorm_wordpool_576.txt	LTP250	ltpFR2	14	21	GLOBE	641	n/a	n/a	0	0	0
4553.754	n/a	WORD	2276877	wordpools/wasnorm_wordpool_576.txt	LTP250	ltpFR2	14	21	SEAL	1262	n/a	n/a	0	0	0
4556.306	n/a	WORD	2278153	wordpools/wasnorm_wordpool_576.txt	LTP250	ltpFR2	14	21	DIME	466	n/a	n/a	0	0	0
4559.092	n/a	WORD	2279546	wordpools/wasnorm_wordpool_576.txt	LTP250	ltpFR2	14	21	OMELET	976	n/a	n/a	0	0	0
4561.678	n/a	WORD	2280839	wordpools/wasnorm_wordpool_576.txt	LTP250	ltpFR2	14	21	SIBLING	1301	n/a	n/a	0	0	0
4564.414	n/a	WORD	2282207	wordpools/wasnorm_wordpool_576.txt	LTP250	ltpFR2	14	21	GIFT	635	n/a	n/a	0	0	0
4566.998	n/a	WORD	2283499	wordpools/wasnorm_wordpool_576.txt	LTP250	ltpFR2	14	21	LAPEL	800	n/a	n/a	0	0	0
4569.518	n/a	WORD	2284759	wordpools/wasnorm_wordpool_576.txt	LTP250	ltpFR2	14	21	LILY	821	n/a	n/a	0	0	0
4572.186	n/a	WORD	2286093	wordpools/wasnorm_wordpool_576.txt	LTP250	ltpFR2	14	21	BABY	64	n/a	n/a	0	0	0
4574.738	n/a	WORD	2287369	wordpools/wasnorm_wordpool_576.txt	LTP250	ltpFR2	14	21	DONKEY	484	n/a	n/a	0	0	0
4577.19	n/a	WORD	2288595	wordpools/wasnorm_wordpool_576.txt	LTP250	ltpFR2	14	21	LUGGAGE	847	n/a	n/a	0	0	0
4579.958	n/a	WORD	2289979	wordpools/wasnorm_wordpool_576.txt	LTP250	ltpFR2	14	21	TOURIST	1488	n/a	n/a	0	0	0
4582.596	n/a	WORD	2291298	wordpools/wasnorm_wordpool_576.txt	LTP250	ltpFR2	14	21	PASSAGE	1019	n/a	n/a	0	0	0
4585.364	n/a	WORD	2292682	wordpools/wasnorm_wordpool_576.txt	LTP250	ltpFR2	14	21	KNAPSACK	783	n/a	n/a	0	0	0
4588.116	n/a	WORD	2294058	wordpools/wasnorm_wordpool_576.txt	LTP250	ltpFR2	14	21	BROTHER	179	n/a	n/a	0	0	0
4590.802	n/a	WORD	2295401	wordpools/wasnorm_wordpool_576.txt	LTP250	ltpFR2	14	21	PLAZA	1088	n/a	n/a	0	0	0
4593.588	n/a	WORD	2296794	wordpools/wasnorm_wordpool_576.txt	LTP250	ltpFR2	14	21	FLUTE	585	n/a	n/a	0	0	0
4596.156	n/a	WORD	2298078	wordpools/wasnorm_wordpool_576.txt	LTP250	ltpFR2	14	21	PIANO	1057	n/a	n/a	0	0	0
4598.658	n/a	WORD	2299329	wordpools/wasnorm_wordpool_576.txt	LTP250	ltpFR2	14	21	ASIA	46	n/a	n/a	0	0	0
4601.378	n/a	WORD	2300689	wordpools/wasnorm_wordpool_576.txt	LTP250	ltpFR2	14	21	CRIB	407	n/a	n/a	0	0	0
4602.996	n/a	START	2301498	n/a	LTP250	ltpFR2	14	n/a	n/a	n/a	31	n/a	n/a	n/a	n/a
4603.95	n/a	DISTRACTOR	2301975	n/a	LTP250	ltpFR2	14	21	n/a	n/a	n/a	n/a	0	0	0
4603.964	n/a	PROB	2301982	n/a	LTP250	ltpFR2	14	n/a	n/a	n/a	31	10	1	3	6
4605.714	n/a	PROB	2302857	n/a	LTP250	ltpFR2	14	n/a	n/a	n/a	31	9	1	3	5
4607.916	n/a	PROB	2303958	n/a	LTP250	ltpFR2	14	n/a	n/a	n/a	31	16	6	9	1
4609.336	n/a	PROB	2304668	n/a	LTP250	ltpFR2	14	n/a	n/a	n/a	31	14	2	8	4
4611.136	n/a	PROB	2305568	n/a	LTP250	ltpFR2	14	n/a	n/a	n/a	31	19	5	5	9
4612.388	n/a	PROB	2306194	n/a	LTP250	ltpFR2	14	n/a	n/a	n/a	31	19	6	8	5
4616.74	n/a	PROB	2308370	n/a	LTP250	ltpFR2	14	n/a	n/a	n/a	31	6	3	1	2
4618.51	n/a	PROB	2309255	n/a	LTP250	ltpFR2	14	n/a	n/a	n/a	31	9	1	5	3
4621.362	n/a	PROB	2310681	n/a	LTP250	ltpFR2	14	n/a	n/a	n/a	31	10	5	4	1
4623.096	n/a	PROB	2311548	n/a	LTP250	ltpFR2	14	n/a	n/a	n/a	31	18	7	5	6
4625.578	n/a	STOP	2312789	n/a	LTP250	ltpFR2	14	n/a	n/a	n/a	31	n/a	n/a	n/a	n/a
4628.868	n/a	REC_START	2314434	n/a	LTP250	ltpFR2	14	21	n/a	n/a	n/a	n/a	0	0	0
4630.446	n/a	REC_WORD	2315223	wordpools/wasnorm_wordpool_576.txt	LTP250	ltpFR2	14	21	TOURIST	1488	n/a	n/a	0	0	0
4631.144	n/a	REC_WORD	2315572	wordpools/wasnorm_wordpool_576.txt	LTP250	ltpFR2	14	21	PLAZA	1088	n/a	n/a	0	0	0
4631.814	n/a	REC_WORD	2315907	wordpools/wasnorm_wordpool_576.txt	LTP250	ltpFR2	14	21	KNAPSACK	783	n/a	n/a	0	0	0
4719.528	n/a	WORD	2359764	wordpools/wasnorm_wordpool_576.txt	LTP250	ltpFR2	14	22	SILK	1307	n/a	n/a	0	0	0
4722.18	n/a	WORD	2361090	wordpools/wasnorm_wordpool_576.txt	LTP250	ltpFR2	14	22	WITNESS	1618	n/a	n/a	0	0	0
4724.766	n/a	WORD	2362383	wordpools/wasnorm_wordpool_576.txt	LTP250	ltpFR2	14	22	BRACES	164	n/a	n/a	0	0	0
4727.568	n/a	WORD	2363784	wordpools/wasnorm_wordpool_576.txt	LTP250	ltpFR2	14	22	STOVE	1388	n/a	n/a	0	0	0
4730.136	n/a	WORD	2365068	wordpools/wasnorm_wordpool_576.txt	LTP250	ltpFR2	14	22	BISON	131	n/a	n/a	0	0	0
4732.74	n/a	WORD	2366370	wordpools/wasnorm_wordpool_576.txt	LTP250	ltpFR2	14	22	OX	994	n/a	n/a	0	0	0
4735.376	n/a	WORD	2367688	wordpools/wasnorm_wordpool_576.txt	LTP250	ltpFR2	14	22	SHELTER	1282	n/a	n/a	0	0	0
4737.894	n/a	WORD	2368947	wordpools/wasnorm_wordpool_576.txt	LTP250	ltpFR2	14	22	PASTRY	1022	n/a	n/a	0	0	0
4740.48	n/a	WORD	2370240	wordpools/wasnorm_wordpool_576.txt	LTP250	ltpFR2	14	22	PALACE	1006	n/a	n/a	0	0	0
4742.914	n/a	WORD	2371457	wordpools/wasnorm_wordpool_576.txt	LTP250	ltpFR2	14	22	DRIVER	499	n/a	n/a	0	0	0
4745.35	n/a	WORD	2372675	wordpools/wasnorm_wordpool_576.txt	LTP250	ltpFR2	14	22	TROMBONE	1508	n/a	n/a	0	0	0
4748.118	n/a	WORD	2374059	wordpools/wasnorm_wordpool_576.txt	LTP250	ltpFR2	14	22	APPLE	33	n/a	n/a	0	0	0
4750.588	n/a	WORD	2375294	wordpools/wasnorm_wordpool_576.txt	LTP250	ltpFR2	14	22	NECKLACE	940	n/a	n/a	0	0	0
4753.24	n/a	WORD	2376620	wordpools/wasnorm_wordpool_576.txt	LTP250	ltpFR2	14	22	PENGUIN	1044	n/a	n/a	0	0	0
4756.008	n/a	WORD	2378004	wordpools/wasnorm_wordpool_576.txt	LTP250	ltpFR2	14	22	MAMMAL	861	n/a	n/a	0	0	0
4758.494	n/a	WORD	2379247	wordpools/wasnorm_wordpool_576.txt	LTP250	ltpFR2	14	22	DINER	467	n/a	n/a	0	0	0
4760.962	n/a	WORD	2380481	wordpools/wasnorm_wordpool_576.txt	LTP250	ltpFR2	14	22	TURKEY	1520	n/a	n/a	0	0	0
4763.482	n/a	WORD	2381741	wordpools/wasnorm_wordpool_576.txt	LTP250	ltpFR2	14	22	SUBWAY	1400	n/a	n/a	0	0	0
4766.268	n/a	WORD	2383134	wordpools/wasnorm_wordpool_576.txt	LTP250	ltpFR2	14	22	ROBIN	1199	n/a	n/a	0	0	0
4768.72	n/a	WORD	2384360	wordpools/wasnorm_wordpool_576.txt	LTP250	ltpFR2	14	22	KEEPER	769	n/a	n/a	0	0	0
4771.222	n/a	WORD	2385611	wordpools/wasnorm_wordpool_576.txt	LTP250	ltpFR2	14	22	POWDER	1117	n/a	n/a	0	0	0
4773.974	n/a	WORD	2386987	wordpools/wasnorm_wordpool_576.txt	LTP250	ltpFR2	14	22	RATTLE	1170	n/a	n/a	0	0	0
4776.56	n/a	WORD	2388280	wordpools/wasnorm_wordpool_576.txt	LTP250	ltpFR2	14	22	SPARROW	1347	n/a	n/a	0	0	0
4779.062	n/a	WORD	2389531	wordpools/wasnorm_wordpool_576.txt	LTP250	ltpFR2	14	22	MESSAGE	888	n/a	n/a	0	0	0
4780.68	n/a	START	2390340	n/a	LTP250	ltpFR2	14	n/a	n/a	n/a	32	n/a	n/a	n/a	n/a
4781.748	n/a	DISTRACTOR	2390874	n/a	LTP250	ltpFR2	14	22	n/a	n/a	n/a	n/a	0	0	0
4781.764	n/a	PROB	2390882	n/a	LTP250	ltpFR2	14	n/a	n/a	n/a	32	18	4	8	6
4783.7	n/a	PROB	2391850	n/a	LTP250	ltpFR2	14	n/a	n/a	n/a	32	12	5	2	5
4785.15	n/a	PROB	2392575	n/a	LTP250	ltpFR2	14	n/a	n/a	n/a	32	13	5	1	7
4787.354	n/a	PROB	2393677	n/a	LTP250	ltpFR2	14	n/a	n/a	n/a	32	13	6	1	6
4788.786	n/a	PROB	2394393	n/a	LTP250	ltpFR2	14	n/a	n/a	n/a	32	17	9	5	3
4791.574	n/a	PROB	2395787	n/a	LTP250	ltpFR2	14	n/a	n/a	n/a	32	18	8	9	1
4794.442	n/a	PROB	2397221	n/a	LTP250	ltpFR2	14	n/a	n/a	n/a	32	8	2	1	5
4797.294	n/a	PROB	2398647	n/a	LTP250	ltpFR2	14	n/a	n/a	n/a	32	16	8	4	4
4799.696	n/a	PROB	2399848	n/a	LTP250	ltpFR2	14	n/a	n/a	n/a	32	17	4	4	9
4804.68	n/a	STOP	2402340	n/a	LTP250	ltpFR2	14	n/a	n/a	n/a	32	n/a	n/a	n/a	n/a
4806.652	n/a	REC_START	2403326	n/a	LTP250	ltpFR2	14	22	n/a	n/a	n/a	n/a	0	0	0
4807.96	n/a	REC_WORD	2403980	wordpools/wasnorm_wordpool_576.txt	LTP250	ltpFR2	14	22	KEEPER	769	n/a	n/a	0	0	0
4808.786	n/a	REC_WORD	2404393	wordpools/wasnorm_wordpool_576.txt	LTP250	ltpFR2	14	22	RATTLE	1170	n/a	n/a	0	0	0
4897.28	n/a	DISTRACTOR	2448640	n/a	LTP250	ltpFR2	14	23	n/a	n/a	n/a	n/a	0	0	0
4897.28	n/a	START	2448640	n/a	LTP250	ltpFR2	14	n/a	n/a	n/a	33	n/a	n/a	n/a	n/a
4897.312	n/a	PROB	2448656	n/a	LTP250	ltpFR2	14	n/a	n/a	n/a	33	14	9	7	6
4903.9	n/a	PROB	2451950	n/a	LTP250	ltpFR2	14	n/a	n/a	n/a	33	18	5	9	4
