onset	duration	trial_type	sample	stim_file	subject	experiment	session	trial	item_name	item_num	list	answer	test_x	test_y	test_z
383.17	n/a	SESS_START	191585	n/a	LTP302	ltpFR2	0	n/a	n/a	n/a	n/a	n/a	0	0	0
441.878	n/a	START	220939	n/a	LTP302	ltpFR2	0	n/a	n/a	n/a	-1	n/a	n/a	n/a	n/a
441.892	n/a	PROB	220946	n/a	LTP302	ltpFR2	0	n/a	n/a	n/a	-1	12	1	8	3
446.412	n/a	PROB	223206	n/a	LTP302	ltpFR2	0	n/a	n/a	n/a	-1	3	1	1	1
448.62	n/a	PROB	224310	n/a	LTP302	ltpFR2	0	n/a	n/a	n/a	-1	12	3	1	8
452.87	n/a	STOP	226435	n/a	LTP302	ltpFR2	0	n/a	n/a	n/a	-1	n/a	n/a	n/a	n/a
543.594	n/a	WORD	271797	wordpools/wasnorm_wordpool_576.txt	LTP302	ltpFR2	0	1	PLATE	1086	n/a	n/a	0	0	0
546.362	n/a	WORD	273181	wordpools/wasnorm_wordpool_576.txt	LTP302	ltpFR2	0	1	SUBWAY	1400	n/a	n/a	0	0	0
549.01	n/a	WORD	274505	wordpools/wasnorm_wordpool_576.txt	LTP302	ltpFR2	0	1	FRIAR	605	n/a	n/a	0	0	0
551.652	n/a	WORD	275826	wordpools/wasnorm_wordpool_576.txt	LTP302	ltpFR2	0	1	WIDOW	1608	n/a	n/a	0	0	0
554.226	n/a	WORD	277113	wordpools/wasnorm_wordpool_576.txt	LTP302	ltpFR2	0	1	LIGHTNING	820	n/a	n/a	0	0	0
556.68	n/a	WORD	278340	wordpools/wasnorm_wordpool_576.txt	LTP302	ltpFR2	0	1	PLUTO	1092	n/a	n/a	0	0	0
559.192	n/a	WORD	279596	wordpools/wasnorm_wordpool_576.txt	LTP302	ltpFR2	0	1	PLAID	1080	n/a	n/a	0	0	0
561.83	n/a	WORD	280915	wordpools/wasnorm_wordpool_576.txt	LTP302	ltpFR2	0	1	MONEY	908	n/a	n/a	0	0	0
564.392	n/a	WORD	282196	wordpools/wasnorm_wordpool_576.txt	LTP302	ltpFR2	0	1	QUARTER	1148	n/a	n/a	0	0	0
566.812	n/a	WORD	283406	wordpools/wasnorm_wordpool_576.txt	LTP302	ltpFR2	0	1	SNAKE	1333	n/a	n/a	0	0	0
569.506	n/a	WORD	284753	wordpools/wasnorm_wordpool_576.txt	LTP302	ltpFR2	0	1	PADDLE	1000	n/a	n/a	0	0	0
571.998	n/a	WORD	285999	wordpools/wasnorm_wordpool_576.txt	LTP302	ltpFR2	0	1	SIBLING	1301	n/a	n/a	0	0	0
574.638	n/a	WORD	287319	wordpools/wasnorm_wordpool_576.txt	LTP302	ltpFR2	0	1	PREACHER	1119	n/a	n/a	0	0	0
577.13	n/a	WORD	288565	wordpools/wasnorm_wordpool_576.txt	LTP302	ltpFR2	0	1	FUNGUS	614	n/a	n/a	0	0	0
579.922	n/a	WORD	289961	wordpools/wasnorm_wordpool_576.txt	LTP302	ltpFR2	0	1	BLENDER	136	n/a	n/a	0	0	0
582.398	n/a	WORD	291199	wordpools/wasnorm_wordpool_576.txt	LTP302	ltpFR2	0	1	WORKER	1621	n/a	n/a	0	0	0
585.104	n/a	WORD	292552	wordpools/wasnorm_wordpool_576.txt	LTP302	ltpFR2	0	1	OFFICE	972	n/a	n/a	0	0	0
587.514	n/a	WORD	293757	wordpools/wasnorm_wordpool_576.txt	LTP302	ltpFR2	0	1	GRAVE	658	n/a	n/a	0	0	0
590.006	n/a	WORD	295003	wordpools/wasnorm_wordpool_576.txt	LTP302	ltpFR2	0	1	NURSE	963	n/a	n/a	0	0	0
592.582	n/a	WORD	296291	wordpools/wasnorm_wordpool_576.txt	LTP302	ltpFR2	0	1	DAISY	435	n/a	n/a	0	0	0
595.056	n/a	WORD	297528	wordpools/wasnorm_wordpool_576.txt	LTP302	ltpFR2	0	1	RUG	1215	n/a	n/a	0	0	0
597.83	n/a	WORD	298915	wordpools/wasnorm_wordpool_576.txt	LTP302	ltpFR2	0	1	THRONE	1461	n/a	n/a	0	0	0
600.588	n/a	WORD	300294	wordpools/wasnorm_wordpool_576.txt	LTP302	ltpFR2	0	1	PIGMENT	1066	n/a	n/a	0	0	0
603.012	n/a	WORD	301506	wordpools/wasnorm_wordpool_576.txt	LTP302	ltpFR2	0	1	MILDEW	893	n/a	n/a	0	0	0
604.612	n/a	START	302306	n/a	LTP302	ltpFR2	0	n/a	n/a	n/a	1	n/a	n/a	n/a	n/a
605.764	n/a	DISTRACTOR	302882	n/a	LTP302	ltpFR2	0	1	n/a	n/a	n/a	n/a	0	0	0
605.772	n/a	PROB	302886	n/a	LTP302	ltpFR2	0	n/a	n/a	n/a	1	4	2	1	1
608.25	n/a	PROB	304125	n/a	LTP302	ltpFR2	0	n/a	n/a	n/a	1	19	9	6	4
611.086	n/a	PROB	305543	n/a	LTP302	ltpFR2	0	n/a	n/a	n/a	1	17	3	6	8
614.212	n/a	PROB	307106	n/a	LTP302	ltpFR2	0	n/a	n/a	n/a	1	18	7	3	8
617.052	n/a	PROB	308526	n/a	LTP302	ltpFR2	0	n/a	n/a	n/a	1	20	9	9	2
619.478	n/a	PROB	309739	n/a	LTP302	ltpFR2	0	n/a	n/a	n/a	1	19	5	7	7
622.8	n/a	PROB	311400	n/a	LTP302	ltpFR2	0	n/a	n/a	n/a	1	19	7	5	7
628.514	n/a	STOP	314257	n/a	LTP302	ltpFR2	0	n/a	n/a	n/a	1	n/a	n/a	n/a	n/a
630.36	n/a	REC_START	315180	n/a	LTP302	ltpFR2	0	1	n/a	n/a	n/a	n/a	0	0	0
633.288	n/a	REC_WORD	316644	wordpools/wasnorm_wordpool_576.txt	LTP302	ltpFR2	0	1	PLAID	1080	n/a	n/a	0	0	0
635.012	n/a	REC_WORD	317506	wordpools/wasnorm_wordpool_576.txt	LTP302	ltpFR2	0	1	LIGHTNING	820	n/a	n/a	0	0	0
637.094	n/a	REC_WORD	318547	wordpools/wasnorm_wordpool_576.txt	LTP302	ltpFR2	0	1	FRIAR	605	n/a	n/a	0	0	0
639.528	n/a	REC_WORD	319764	wordpools/wasnorm_wordpool_576.txt	LTP302	ltpFR2	0	1	MILDEW	893	n/a	n/a	0	0	0
648.668	n/a	REC_WORD	324334	wordpools/wasnorm_wordpool_576.txt	LTP302	ltpFR2	0	1	PLATE	1086	n/a	n/a	0	0	0
650.622	n/a	REC_WORD	325311	wordpools/wasnorm_wordpool_576.txt	LTP302	ltpFR2	0	1	MONEY	908	n/a	n/a	0	0	0
656.51	n/a	REC_WORD	328255	wordpools/wasnorm_wordpool_576.txt	LTP302	ltpFR2	0	1	THRONE	1461	n/a	n/a	0	0	0
663.376	n/a	REC_WORD	331688	wordpools/wasnorm_wordpool_576.txt	LTP302	ltpFR2	0	1	PADDLE	1000	n/a	n/a	0	0	0
670.646	n/a	REC_WORD	335323	wordpools/wasnorm_wordpool_576.txt	LTP302	ltpFR2	0	1	WIDOW	1608	n/a	n/a	0	0	0
756.264	n/a	WORD	378132	wordpools/wasnorm_wordpool_576.txt	LTP302	ltpFR2	0	2	DANDRUFF	439	n/a	n/a	0	0	0
758.898	n/a	WORD	379449	wordpools/wasnorm_wordpool_576.txt	LTP302	ltpFR2	0	2	PEBBLE	1035	n/a	n/a	0	0	0
761.462	n/a	WORD	380731	wordpools/wasnorm_wordpool_576.txt	LTP302	ltpFR2	0	2	HEDGE	699	n/a	n/a	0	0	0
764.164	n/a	WORD	382082	wordpools/wasnorm_wordpool_576.txt	LTP302	ltpFR2	0	2	BLOCKADE	137	n/a	n/a	0	0	0
766.954	n/a	WORD	383477	wordpools/wasnorm_wordpool_576.txt	LTP302	ltpFR2	0	2	STOVE	1388	n/a	n/a	0	0	0
769.404	n/a	WORD	384702	wordpools/wasnorm_wordpool_576.txt	LTP302	ltpFR2	0	2	DINER	467	n/a	n/a	0	0	0
772.022	n/a	WORD	386011	wordpools/wasnorm_wordpool_576.txt	LTP302	ltpFR2	0	2	BARREL	91	n/a	n/a	0	0	0
774.486	n/a	WORD	387243	wordpools/wasnorm_wordpool_576.txt	LTP302	ltpFR2	0	2	PANTHER	1009	n/a	n/a	0	0	0
777.162	n/a	WORD	388581	wordpools/wasnorm_wordpool_576.txt	LTP302	ltpFR2	0	2	BRAKE	166	n/a	n/a	0	0	0
779.582	n/a	WORD	389791	wordpools/wasnorm_wordpool_576.txt	LTP302	ltpFR2	0	2	BRICK	172	n/a	n/a	0	0	0
782.212	n/a	WORD	391106	wordpools/wasnorm_wordpool_576.txt	LTP302	ltpFR2	0	2	SURVEY	1414	n/a	n/a	0	0	0
784.98	n/a	WORD	392490	wordpools/wasnorm_wordpool_576.txt	LTP302	ltpFR2	0	2	LION	827	n/a	n/a	0	0	0
787.556	n/a	WORD	393778	wordpools/wasnorm_wordpool_576.txt	LTP302	ltpFR2	0	2	COURSE	390	n/a	n/a	0	0	0
789.982	n/a	WORD	394991	wordpools/wasnorm_wordpool_576.txt	LTP302	ltpFR2	0	2	DOLPHIN	483	n/a	n/a	0	0	0
792.772	n/a	WORD	396386	wordpools/wasnorm_wordpool_576.txt	LTP302	ltpFR2	0	2	BROOK	177	n/a	n/a	0	0	0
795.414	n/a	WORD	397707	wordpools/wasnorm_wordpool_576.txt	LTP302	ltpFR2	0	2	MACHINE	852	n/a	n/a	0	0	0
798.122	n/a	WORD	399061	wordpools/wasnorm_wordpool_576.txt	LTP302	ltpFR2	0	2	WASHER	1592	n/a	n/a	0	0	0
800.73	n/a	WORD	400365	wordpools/wasnorm_wordpool_576.txt	LTP302	ltpFR2	0	2	CLIMBER	323	n/a	n/a	0	0	0
803.292	n/a	WORD	401646	wordpools/wasnorm_wordpool_576.txt	LTP302	ltpFR2	0	2	FOREHEAD	592	n/a	n/a	0	0	0
805.98	n/a	WORD	402990	wordpools/wasnorm_wordpool_576.txt	LTP302	ltpFR2	0	2	LACE	792	n/a	n/a	0	0	0
808.72	n/a	WORD	404360	wordpools/wasnorm_wordpool_576.txt	LTP302	ltpFR2	0	2	DRESS	495	n/a	n/a	0	0	0
811.478	n/a	WORD	405739	wordpools/wasnorm_wordpool_576.txt	LTP302	ltpFR2	0	2	INFANT	737	n/a	n/a	0	0	0
814.27	n/a	WORD	407135	wordpools/wasnorm_wordpool_576.txt	LTP302	ltpFR2	0	2	POWDER	1117	n/a	n/a	0	0	0
816.944	n/a	WORD	408472	wordpools/wasnorm_wordpool_576.txt	LTP302	ltpFR2	0	2	TURTLE	1522	n/a	n/a	0	0	0
818.544	n/a	START	409272	n/a	LTP302	ltpFR2	0	n/a	n/a	n/a	2	n/a	n/a	n/a	n/a
819.432	n/a	DISTRACTOR	409716	n/a	LTP302	ltpFR2	0	2	n/a	n/a	n/a	n/a	0	0	0
819.436	n/a	PROB	409718	n/a	LTP302	ltpFR2	0	n/a	n/a	n/a	2	8	5	1	2
822.492	n/a	PROB	411246	n/a	LTP302	ltpFR2	0	n/a	n/a	n/a	2	11	6	4	1
824.088	n/a	PROB	412044	n/a	LTP302	ltpFR2	0	n/a	n/a	n/a	2	10	2	3	5
826.296	n/a	PROB	413148	n/a	LTP302	ltpFR2	0	n/a	n/a	n/a	2	21	6	9	6
829.97	n/a	PROB	414985	n/a	LTP302	ltpFR2	0	n/a	n/a	n/a	2	19	9	9	1
832.528	n/a	PROB	416264	n/a	LTP302	ltpFR2	0	n/a	n/a	n/a	2	22	8	9	5
837.946	n/a	PROB	418973	n/a	LTP302	ltpFR2	0	n/a	n/a	n/a	2	12	6	3	3
842.446	n/a	STOP	421223	n/a	LTP302	ltpFR2	0	n/a	n/a	n/a	2	n/a	n/a	n/a	n/a
844.292	n/a	REC_START	422146	n/a	LTP302	ltpFR2	0	2	n/a	n/a	n/a	n/a	0	0	0
848.724	n/a	REC_WORD	424362	wordpools/wasnorm_wordpool_576.txt	LTP302	ltpFR2	0	2	WASHER	1592	n/a	n/a	0	0	0
850.69	n/a	REC_WORD	425345	wordpools/wasnorm_wordpool_576.txt	LTP302	ltpFR2	0	2	CLIMBER	323	n/a	n/a	0	0	0
852.886	n/a	REC_WORD	426443	wordpools/wasnorm_wordpool_576.txt	LTP302	ltpFR2	0	2	MACHINE	852	n/a	n/a	0	0	0
855.524	n/a	REC_WORD	427762	wordpools/wasnorm_wordpool_576.txt	LTP302	ltpFR2	0	2	BARREL	91	n/a	n/a	0	0	0
863.476	n/a	REC_WORD	431738	wordpools/wasnorm_wordpool_576.txt	LTP302	ltpFR2	0	2	STOVE	1388	n/a	n/a	0	0	0
866.8	n/a	REC_WORD	433400	wordpools/wasnorm_wordpool_576.txt	LTP302	ltpFR2	0	2	DANDRUFF	439	n/a	n/a	0	0	0
869.006	n/a	REC_WORD	434503	wordpools/wasnorm_wordpool_576.txt	LTP302	ltpFR2	0	2	FOREHEAD	592	n/a	n/a	0	0	0
886.73	n/a	REC_WORD	443365	wordpools/wasnorm_wordpool_576.txt	LTP302	ltpFR2	0	2	BRICK	172	n/a	n/a	0	0	0
889.16	n/a	REC_WORD	444580	wordpools/wasnorm_wordpool_576.txt	LTP302	ltpFR2	0	2	BRAKE	166	n/a	n/a	0	0	0
901.314	n/a	REC_WORD	450657	wordpools/wasnorm_wordpool_576.txt	LTP302	ltpFR2	0	2	INFANT	737	n/a	n/a	0	0	0
904.06	n/a	REC_WORD	452030	wordpools/wasnorm_wordpool_576.txt	LTP302	ltpFR2	0	2	DRESS	495	n/a	n/a	0	0	0
905.87	n/a	REC_WORD	452935	wordpools/wasnorm_wordpool_576.txt	LTP302	ltpFR2	0	2	LACE	792	n/a	n/a	0	0	0
934.364	n/a	DISTRACTOR	467182	n/a	LTP302	ltpFR2	0	3	n/a	n/a	n/a	n/a	0	0	0
934.364	n/a	START	467182	n/a	LTP302	ltpFR2	0	n/a	n/a	n/a	3	n/a	n/a	n/a	n/a
934.378	n/a	PROB	467189	n/a	LTP302	ltpFR2	0	n/a	n/a	n/a	3	13	5	2	6
938.366	n/a	PROB	469183	n/a	LTP302	ltpFR2	0	n/a	n/a	n/a	3	10	4	5	1
940.426	n/a	PROB	470213	n/a	LTP302	ltpFR2	0	n/a	n/a	n/a	3	12	5	4	3
943.036	n/a	PROB	471518	n/a	LTP302	ltpFR2	0	n/a	n/a	n/a	3	24	8	7	9
948.864	n/a	PROB	474432	n/a	LTP302	ltpFR2	0	n/a	n/a	n/a	3	16	6	9	1
951.19	n/a	PROB	475595	n/a	LTP302	ltpFR2	0	n/a	n/a	n/a	3	12	3	2	7
952.734	n/a	PROB	476367	n/a	LTP302	ltpFR2	0	n/a	n/a	n/a	3	14	3	6	5
955.244	n/a	PROB	477622	n/a	LTP302	ltpFR2	0	n/a	n/a	n/a	3	14	4	9	1
957.016	n/a	STOP	478508	n/a	LTP302	ltpFR2	0	n/a	n/a	n/a	3	n/a	n/a	n/a	n/a
959.282	n/a	WORD	479641	wordpools/wasnorm_wordpool_576.txt	LTP302	ltpFR2	0	3	TUTU	1524	n/a	n/a	0	0	0
961.94	n/a	WORD	480970	wordpools/wasnorm_wordpool_576.txt	LTP302	ltpFR2	0	3	SKIRT	1319	n/a	n/a	0	0	0
964.67	n/a	WORD	482335	wordpools/wasnorm_wordpool_576.txt	LTP302	ltpFR2	0	3	STONE	1385	n/a	n/a	0	0	0
967.112	n/a	WORD	483556	wordpools/wasnorm_wordpool_576.txt	LTP302	ltpFR2	0	3	COIN	343	n/a	n/a	0	0	0
969.896	n/a	WORD	484948	wordpools/wasnorm_wordpool_576.txt	LTP302	ltpFR2	0	3	SLIDE	1326	n/a	n/a	0	0	0
972.644	n/a	WORD	486322	wordpools/wasnorm_wordpool_576.txt	LTP302	ltpFR2	0	3	GLASS	639	n/a	n/a	0	0	0
975.33	n/a	WORD	487665	wordpools/wasnorm_wordpool_576.txt	LTP302	ltpFR2	0	3	SPARROW	1347	n/a	n/a	0	0	0
977.986	n/a	WORD	488993	wordpools/wasnorm_wordpool_576.txt	LTP302	ltpFR2	0	3	PUPPY	1144	n/a	n/a	0	0	0
980.602	n/a	WORD	490301	wordpools/wasnorm_wordpool_576.txt	LTP302	ltpFR2	0	3	SUITCASE	1403	n/a	n/a	0	0	0
983.31	n/a	WORD	491655	wordpools/wasnorm_wordpool_576.txt	LTP302	ltpFR2	0	3	STOMACH	1384	n/a	n/a	0	0	0
985.994	n/a	WORD	492997	wordpools/wasnorm_wordpool_576.txt	LTP302	ltpFR2	0	3	CHILD	299	n/a	n/a	0	0	0
988.476	n/a	WORD	494238	wordpools/wasnorm_wordpool_576.txt	LTP302	ltpFR2	0	3	DIME	466	n/a	n/a	0	0	0
990.91	n/a	WORD	495455	wordpools/wasnorm_wordpool_576.txt	LTP302	ltpFR2	0	3	BEEF	113	n/a	n/a	0	0	0
993.644	n/a	WORD	496822	wordpools/wasnorm_wordpool_576.txt	LTP302	ltpFR2	0	3	MEDAL	885	n/a	n/a	0	0	0
996.076	n/a	WORD	498038	wordpools/wasnorm_wordpool_576.txt	LTP302	ltpFR2	0	3	FLEET	578	n/a	n/a	0	0	0
998.794	n/a	WORD	499397	wordpools/wasnorm_wordpool_576.txt	LTP302	ltpFR2	0	3	CIGAR	308	n/a	n/a	0	0	0
1001.26	n/a	WORD	500630	wordpools/wasnorm_wordpool_576.txt	LTP302	ltpFR2	0	3	CAMEL	223	n/a	n/a	0	0	0
1003.968	n/a	WORD	501984	wordpools/wasnorm_wordpool_576.txt	LTP302	ltpFR2	0	3	FRAME	600	n/a	n/a	0	0	0
1006.536	n/a	WORD	503268	wordpools/wasnorm_wordpool_576.txt	LTP302	ltpFR2	0	3	COUNTY	389	n/a	n/a	0	0	0
1009.31	n/a	WORD	504655	wordpools/wasnorm_wordpool_576.txt	LTP302	ltpFR2	0	3	BACKBONE	66	n/a	n/a	0	0	0
1011.984	n/a	WORD	505992	wordpools/wasnorm_wordpool_576.txt	LTP302	ltpFR2	0	3	POET	1095	n/a	n/a	0	0	0
1014.644	n/a	WORD	507322	wordpools/wasnorm_wordpool_576.txt	LTP302	ltpFR2	0	3	NOVEL	960	n/a	n/a	0	0	0
1017.118	n/a	WORD	508559	wordpools/wasnorm_wordpool_576.txt	LTP302	ltpFR2	0	3	DRAWING	494	n/a	n/a	0	0	0
1019.644	n/a	WORD	509822	wordpools/wasnorm_wordpool_576.txt	LTP302	ltpFR2	0	3	KITCHEN	778	n/a	n/a	0	0	0
1021.246	n/a	START	510623	n/a	LTP302	ltpFR2	0	n/a	n/a	n/a	4	n/a	n/a	n/a	n/a
1022.11	n/a	DISTRACTOR	511055	n/a	LTP302	ltpFR2	0	3	n/a	n/a	n/a	n/a	0	0	0
1022.12	n/a	PROB	511060	n/a	LTP302	ltpFR2	0	n/a	n/a	n/a	4	17	7	1	9
1025.098	n/a	PROB	512549	n/a	LTP302	ltpFR2	0	n/a	n/a	n/a	4	18	6	8	4
1028.77	n/a	PROB	514385	n/a	LTP302	ltpFR2	0	n/a	n/a	n/a	4	15	4	2	9
1032.69	n/a	PROB	516345	n/a	LTP302	ltpFR2	0	n/a	n/a	n/a	4	17	2	9	6
1035.314	n/a	PROB	517657	n/a	LTP302	ltpFR2	0	n/a	n/a	n/a	4	18	1	8	9
1037.092	n/a	PROB	518546	n/a	LTP302	ltpFR2	0	n/a	n/a	n/a	4	13	5	6	2
1040.766	n/a	PROB	520383	n/a	LTP302	ltpFR2	0	n/a	n/a	n/a	4	13	7	3	3
1045.148	n/a	STOP	522574	n/a	LTP302	ltpFR2	0	n/a	n/a	n/a	4	n/a	n/a	n/a	n/a
1047.06	n/a	REC_START	523530	n/a	LTP302	ltpFR2	0	3	n/a	n/a	n/a	n/a	0	0	0
1048.448	n/a	REC_WORD	524224	wordpools/wasnorm_wordpool_576.txt	LTP302	ltpFR2	0	3	SUITCASE	1403	n/a	n/a	0	0	0
1049.444	n/a	REC_WORD_VV	524722	wordpools/wasnorm_wordpool_576.txt	LTP302	ltpFR2	0	3	<>	-1	n/a	n/a	0	0	0
1051.94	n/a	REC_WORD	525970	wordpools/wasnorm_wordpool_576.txt	LTP302	ltpFR2	0	3	BEEF	113	n/a	n/a	0	0	0
1057.178	n/a	REC_WORD	528589	wordpools/wasnorm_wordpool_576.txt	LTP302	ltpFR2	0	3	STOMACH	1384	n/a	n/a	0	0	0
1059.458	n/a	REC_WORD	529729	wordpools/wasnorm_wordpool_576.txt	LTP302	ltpFR2	0	3	CHILD	299	n/a	n/a	0	0	0
1061.712	n/a	REC_WORD	530856	wordpools/wasnorm_wordpool_576.txt	LTP302	ltpFR2	0	3	STONE	1385	n/a	n/a	0	0	0
1070.762	n/a	REC_WORD	535381	wordpools/wasnorm_wordpool_576.txt	LTP302	ltpFR2	0	3	COIN	343	n/a	n/a	0	0	0
1083.234	n/a	REC_WORD	541617	wordpools/wasnorm_wordpool_576.txt	LTP302	ltpFR2	0	3	SPARROW	1347	n/a	n/a	0	0	0
1084.23	n/a	REC_WORD_VV	542115	wordpools/wasnorm_wordpool_576.txt	LTP302	ltpFR2	0	3	<>	-1	n/a	n/a	0	0	0
1137.148	n/a	WORD	568574	wordpools/wasnorm_wordpool_576.txt	LTP302	ltpFR2	0	4	VIRUS	1572	n/a	n/a	0	0	0
1139.822	n/a	WORD	569911	wordpools/wasnorm_wordpool_576.txt	LTP302	ltpFR2	0	4	TRACTOR	1493	n/a	n/a	0	0	0
1142.248	n/a	WORD	571124	wordpools/wasnorm_wordpool_576.txt	LTP302	ltpFR2	0	4	SALMON	1227	n/a	n/a	0	0	0
1145.022	n/a	WORD	572511	wordpools/wasnorm_wordpool_576.txt	LTP302	ltpFR2	0	4	ISLAND	745	n/a	n/a	0	0	0
1147.598	n/a	WORD	573799	wordpools/wasnorm_wordpool_576.txt	LTP302	ltpFR2	0	4	GRAPE	654	n/a	n/a	0	0	0
1150.072	n/a	WORD	575036	wordpools/wasnorm_wordpool_576.txt	LTP302	ltpFR2	0	4	EMPIRE	530	n/a	n/a	0	0	0
1152.598	n/a	WORD	576299	wordpools/wasnorm_wordpool_576.txt	LTP302	ltpFR2	0	4	FARMER	553	n/a	n/a	0	0	0
1155.124	n/a	WORD	577562	wordpools/wasnorm_wordpool_576.txt	LTP302	ltpFR2	0	4	RECORD	1176	n/a	n/a	0	0	0
1157.598	n/a	WORD	578799	wordpools/wasnorm_wordpool_576.txt	LTP302	ltpFR2	0	4	PUPIL	1143	n/a	n/a	0	0	0
1160.206	n/a	WORD	580103	wordpools/wasnorm_wordpool_576.txt	LTP302	ltpFR2	0	4	FILM	565	n/a	n/a	0	0	0
1162.93	n/a	WORD	581465	wordpools/wasnorm_wordpool_576.txt	LTP302	ltpFR2	0	4	COCOON	339	n/a	n/a	0	0	0
1165.674	n/a	WORD	582837	wordpools/wasnorm_wordpool_576.txt	LTP302	ltpFR2	0	4	BANK	83	n/a	n/a	0	0	0
1168.146	n/a	WORD	584073	wordpools/wasnorm_wordpool_576.txt	LTP302	ltpFR2	0	4	YOLK	1633	n/a	n/a	0	0	0
1170.804	n/a	WORD	585402	wordpools/wasnorm_wordpool_576.txt	LTP302	ltpFR2	0	4	DUSTPAN	509	n/a	n/a	0	0	0
1173.48	n/a	WORD	586740	wordpools/wasnorm_wordpool_576.txt	LTP302	ltpFR2	0	4	SPONGE	1355	n/a	n/a	0	0	0
1176.004	n/a	WORD	588002	wordpools/wasnorm_wordpool_576.txt	LTP302	ltpFR2	0	4	SHELF	1280	n/a	n/a	0	0	0
1178.794	n/a	WORD	589397	wordpools/wasnorm_wordpool_576.txt	LTP302	ltpFR2	0	4	SKETCH	1315	n/a	n/a	0	0	0
1181.458	n/a	WORD	590729	wordpools/wasnorm_wordpool_576.txt	LTP302	ltpFR2	0	4	MUFFIN	929	n/a	n/a	0	0	0
1184.2	n/a	WORD	592100	wordpools/wasnorm_wordpool_576.txt	LTP302	ltpFR2	0	4	SNACK	1331	n/a	n/a	0	0	0
1186.784	n/a	WORD	593392	wordpools/wasnorm_wordpool_576.txt	LTP302	ltpFR2	0	4	POISON	1096	n/a	n/a	0	0	0
1189.31	n/a	WORD	594655	wordpools/wasnorm_wordpool_576.txt	LTP302	ltpFR2	0	4	CASHIER	254	n/a	n/a	0	0	0
1191.802	n/a	WORD	595901	wordpools/wasnorm_wordpool_576.txt	LTP302	ltpFR2	0	4	LOFT	840	n/a	n/a	0	0	0
1194.394	n/a	WORD	597197	wordpools/wasnorm_wordpool_576.txt	LTP302	ltpFR2	0	4	NIGHTGOWN	953	n/a	n/a	0	0	0
1197.168	n/a	WORD	598584	wordpools/wasnorm_wordpool_576.txt	LTP302	ltpFR2	0	4	MEAT	883	n/a	n/a	0	0	0
1198.77	n/a	START	599385	n/a	LTP302	ltpFR2	0	n/a	n/a	n/a	5	n/a	n/a	n/a	n/a
1199.832	n/a	DISTRACTOR	599916	n/a	LTP302	ltpFR2	0	4	n/a	n/a	n/a	n/a	0	0	0
1199.842	n/a	PROB	599921	n/a	LTP302	ltpFR2	0	n/a	n/a	n/a	5	14	2	8	4
1202.45	n/a	PROB	601225	n/a	LTP302	ltpFR2	0	n/a	n/a	n/a	5	16	5	4	7
1205.654	n/a	PROB	602827	n/a	LTP302	ltpFR2	0	n/a	n/a	n/a	5	18	5	9	4
1209.326	n/a	PROB	604663	n/a	LTP302	ltpFR2	0	n/a	n/a	n/a	5	15	7	1	7
1211.404	n/a	PROB	605702	n/a	LTP302	ltpFR2	0	n/a	n/a	n/a	5	14	2	8	4
1214.046	n/a	PROB	607023	n/a	LTP302	ltpFR2	0	n/a	n/a	n/a	5	24	7	9	8
1217.932	n/a	PROB	608966	n/a	LTP302	ltpFR2	0	n/a	n/a	n/a	5	20	8	8	4
1222.672	n/a	STOP	611336	n/a	LTP302	ltpFR2	0	n/a	n/a	n/a	5	n/a	n/a	n/a	n/a
1224.562	n/a	REC_START	612281	n/a	LTP302	ltpFR2	0	4	n/a	n/a	n/a	n/a	0	0	0
1226.902	n/a	REC_WORD	613451	wordpools/wasnorm_wordpool_576.txt	LTP302	ltpFR2	0	4	DUSTPAN	509	n/a	n/a	0	0	0
1229.38	n/a	REC_WORD	614690	wordpools/wasnorm_wordpool_576.txt	LTP302	ltpFR2	0	4	NIGHTGOWN	953	n/a	n/a	0	0	0
1230.376	n/a	REC_WORD_VV	615188	wordpools/wasnorm_wordpool_576.txt	LTP302	ltpFR2	0	4	<>	-1	n/a	n/a	0	0	0
1233.382	n/a	REC_WORD	616691	wordpools/wasnorm_wordpool_576.txt	LTP302	ltpFR2	0	4	MEAT	883	n/a	n/a	0	0	0
1236.158	n/a	REC_WORD	618079	wordpools/wasnorm_wordpool_576.txt	LTP302	ltpFR2	0	4	SALMON	1227	n/a	n/a	0	0	0
1238.782	n/a	REC_WORD	619391	wordpools/wasnorm_wordpool_576.txt	LTP302	ltpFR2	0	4	RECORD	1176	n/a	n/a	0	0	0
1241.076	n/a	REC_WORD	620538	wordpools/wasnorm_wordpool_576.txt	LTP302	ltpFR2	0	4	PUPIL	1143	n/a	n/a	0	0	0
1245.306	n/a	REC_WORD	622653	wordpools/wasnorm_wordpool_576.txt	LTP302	ltpFR2	0	4	EMPIRE	530	n/a	n/a	0	0	0
1265.88	n/a	REC_WORD	632940	wordpools/wasnorm_wordpool_576.txt	LTP302	ltpFR2	0	4	MUFFIN	929	n/a	n/a	0	0	0
1268.226	n/a	REC_WORD	634113	wordpools/wasnorm_wordpool_576.txt	LTP302	ltpFR2	0	4	SNACK	1331	n/a	n/a	0	0	0
1314.632	n/a	WORD	657316	wordpools/wasnorm_wordpool_576.txt	LTP302	ltpFR2	0	5	CELLAR	267	n/a	n/a	0	0	0
1317.306	n/a	WORD	658653	wordpools/wasnorm_wordpool_576.txt	LTP302	ltpFR2	0	5	BLUEPRINT	142	n/a	n/a	0	0	0
1319.848	n/a	WORD	659924	wordpools/wasnorm_wordpool_576.txt	LTP302	ltpFR2	0	5	HEART	697	n/a	n/a	0	0	0
1322.658	n/a	WORD	661329	wordpools/wasnorm_wordpool_576.txt	LTP302	ltpFR2	0	5	ULCER	1533	n/a	n/a	0	0	0
1325.264	n/a	WORD	662632	wordpools/wasnorm_wordpool_576.txt	LTP302	ltpFR2	0	5	CITRUS	313	n/a	n/a	0	0	0
1327.754	n/a	WORD	663877	wordpools/wasnorm_wordpool_576.txt	LTP302	ltpFR2	0	5	GRAVEL	659	n/a	n/a	0	0	0
1330.546	n/a	WORD	665273	wordpools/wasnorm_wordpool_576.txt	LTP302	ltpFR2	0	5	ANKLE	24	n/a	n/a	0	0	0
1333.22	n/a	WORD	666610	wordpools/wasnorm_wordpool_576.txt	LTP302	ltpFR2	0	5	LEG	809	n/a	n/a	0	0	0
1335.978	n/a	WORD	667989	wordpools/wasnorm_wordpool_576.txt	LTP302	ltpFR2	0	5	GROUND	666	n/a	n/a	0	0	0
1338.438	n/a	WORD	669219	wordpools/wasnorm_wordpool_576.txt	LTP302	ltpFR2	0	5	SHIRT	1287	n/a	n/a	0	0	0
1341.094	n/a	WORD	670547	wordpools/wasnorm_wordpool_576.txt	LTP302	ltpFR2	0	5	COMET	353	n/a	n/a	0	0	0
1343.82	n/a	WORD	671910	wordpools/wasnorm_wordpool_576.txt	LTP302	ltpFR2	0	5	RUST	1219	n/a	n/a	0	0	0
1346.512	n/a	WORD	673256	wordpools/wasnorm_wordpool_576.txt	LTP302	ltpFR2	0	5	COLLEGE	346	n/a	n/a	0	0	0
1349.152	n/a	WORD	674576	wordpools/wasnorm_wordpool_576.txt	LTP302	ltpFR2	0	5	PENGUIN	1044	n/a	n/a	0	0	0
1351.696	n/a	WORD	675848	wordpools/wasnorm_wordpool_576.txt	LTP302	ltpFR2	0	5	ROBOT	1200	n/a	n/a	0	0	0
1354.386	n/a	WORD	677193	wordpools/wasnorm_wordpool_576.txt	LTP302	ltpFR2	0	5	CROWN	415	n/a	n/a	0	0	0
1356.96	n/a	WORD	678480	wordpools/wasnorm_wordpool_576.txt	LTP302	ltpFR2	0	5	DRAGON	492	n/a	n/a	0	0	0
1359.602	n/a	WORD	679801	wordpools/wasnorm_wordpool_576.txt	LTP302	ltpFR2	0	5	DRUG	501	n/a	n/a	0	0	0
1362.344	n/a	WORD	681172	wordpools/wasnorm_wordpool_576.txt	LTP302	ltpFR2	0	5	MOP	916	n/a	n/a	0	0	0
1364.884	n/a	WORD	682442	wordpools/wasnorm_wordpool_576.txt	LTP302	ltpFR2	0	5	FIREMAN	569	n/a	n/a	0	0	0
1367.494	n/a	WORD	683747	wordpools/wasnorm_wordpool_576.txt	LTP302	ltpFR2	0	5	RIVER	1194	n/a	n/a	0	0	0
1370.168	n/a	WORD	685084	wordpools/wasnorm_wordpool_576.txt	LTP302	ltpFR2	0	5	RAZOR	1171	n/a	n/a	0	0	0
1372.89	n/a	WORD	686445	wordpools/wasnorm_wordpool_576.txt	LTP302	ltpFR2	0	5	KNIFE	785	n/a	n/a	0	0	0
1375.302	n/a	WORD	687651	wordpools/wasnorm_wordpool_576.txt	LTP302	ltpFR2	0	5	BULLET	194	n/a	n/a	0	0	0
1376.912	n/a	START	688456	n/a	LTP302	ltpFR2	0	n/a	n/a	n/a	6	n/a	n/a	n/a	n/a
1377.814	n/a	DISTRACTOR	688907	n/a	LTP302	ltpFR2	0	5	n/a	n/a	n/a	n/a	0	0	0
1377.824	n/a	PROB	688912	n/a	LTP302	ltpFR2	0	n/a	n/a	n/a	6	18	9	4	5
1381.064	n/a	PROB	690532	n/a	LTP302	ltpFR2	0	n/a	n/a	n/a	6	12	5	3	4
1384.686	n/a	PROB	692343	n/a	LTP302	ltpFR2	0	n/a	n/a	n/a	6	19	9	1	9
1386.614	n/a	PROB	693307	n/a	LTP302	ltpFR2	0	n/a	n/a	n/a	6	13	4	1	8
1388.904	n/a	PROB	694452	n/a	LTP302	ltpFR2	0	n/a	n/a	n/a	6	18	8	9	1
1391.744	n/a	PROB	695872	n/a	LTP302	ltpFR2	0	n/a	n/a	n/a	6	16	4	5	7
1394.62	n/a	PROB	697310	n/a	LTP302	ltpFR2	0	n/a	n/a	n/a	6	13	5	4	4
1399.96	n/a	STOP	699980	n/a	LTP302	ltpFR2	0	n/a	n/a	n/a	6	n/a	n/a	n/a	n/a
1402.726	n/a	REC_START	701363	n/a	LTP302	ltpFR2	0	5	n/a	n/a	n/a	n/a	0	0	0
1405.158	n/a	REC_WORD	702579	wordpools/wasnorm_wordpool_576.txt	LTP302	ltpFR2	0	5	DRAGON	492	n/a	n/a	0	0	0
1407.212	n/a	REC_WORD	703606	wordpools/wasnorm_wordpool_576.txt	LTP302	ltpFR2	0	5	DRUG	501	n/a	n/a	0	0	0
1409.324	n/a	REC_WORD	704662	wordpools/wasnorm_wordpool_576.txt	LTP302	ltpFR2	0	5	COLLEGE	346	n/a	n/a	0	0	0
1412.352	n/a	REC_WORD	706176	wordpools/wasnorm_wordpool_576.txt	LTP302	ltpFR2	0	5	ANKLE	24	n/a	n/a	0	0	0
1415.118	n/a	REC_WORD	707559	wordpools/wasnorm_wordpool_576.txt	LTP302	ltpFR2	0	5	LEG	809	n/a	n/a	0	0	0
1417.808	n/a	REC_WORD	708904	wordpools/wasnorm_wordpool_576.txt	LTP302	ltpFR2	0	5	SHIRT	1287	n/a	n/a	0	0	0
1425.112	n/a	REC_WORD	712556	wordpools/wasnorm_wordpool_576.txt	LTP302	ltpFR2	0	5	RUST	1219	n/a	n/a	0	0	0
1438.944	n/a	REC_WORD	719472	wordpools/wasnorm_wordpool_576.txt	LTP302	ltpFR2	0	5	GRAVEL	659	n/a	n/a	0	0	0
1492.798	n/a	WORD	746399	wordpools/wasnorm_wordpool_576.txt	LTP302	ltpFR2	0	6	TORTOISE	1486	n/a	n/a	0	0	0
1495.44	n/a	WORD	747720	wordpools/wasnorm_wordpool_576.txt	LTP302	ltpFR2	0	6	BLACKBOARD	133	n/a	n/a	0	0	0
1498.008	n/a	WORD	749004	wordpools/wasnorm_wordpool_576.txt	LTP302	ltpFR2	0	6	CLOUD	328	n/a	n/a	0	0	0
1500.666	n/a	WORD	750333	wordpools/wasnorm_wordpool_576.txt	LTP302	ltpFR2	0	6	PASSAGE	1019	n/a	n/a	0	0	0
1503.324	n/a	WORD	751662	wordpools/wasnorm_wordpool_576.txt	LTP302	ltpFR2	0	6	BACON	67	n/a	n/a	0	0	0
1506.066	n/a	WORD	753033	wordpools/wasnorm_wordpool_576.txt	LTP302	ltpFR2	0	6	CRIB	407	n/a	n/a	0	0	0
1508.558	n/a	WORD	754279	wordpools/wasnorm_wordpool_576.txt	LTP302	ltpFR2	0	6	EXPERT	543	n/a	n/a	0	0	0
1510.984	n/a	WORD	755492	wordpools/wasnorm_wordpool_576.txt	LTP302	ltpFR2	0	6	RACKET	1155	n/a	n/a	0	0	0
1513.746	n/a	WORD	756873	wordpools/wasnorm_wordpool_576.txt	LTP302	ltpFR2	0	6	GUARD	667	n/a	n/a	0	0	0
1516.466	n/a	WORD	758233	wordpools/wasnorm_wordpool_576.txt	LTP302	ltpFR2	0	6	MARROW	872	n/a	n/a	0	0	0
1518.942	n/a	WORD	759471	wordpools/wasnorm_wordpool_576.txt	LTP302	ltpFR2	0	6	SNAIL	1332	n/a	n/a	0	0	0
1521.434	n/a	WORD	760717	wordpools/wasnorm_wordpool_576.txt	LTP302	ltpFR2	0	6	PARSLEY	1016	n/a	n/a	0	0	0
1524.228	n/a	WORD	762114	wordpools/wasnorm_wordpool_576.txt	LTP302	ltpFR2	0	6	PORTRAIT	1111	n/a	n/a	0	0	0
1526.734	n/a	WORD	763367	wordpools/wasnorm_wordpool_576.txt	LTP302	ltpFR2	0	6	LUMBER	848	n/a	n/a	0	0	0
1529.258	n/a	WORD	764629	wordpools/wasnorm_wordpool_576.txt	LTP302	ltpFR2	0	6	PEANUT	1032	n/a	n/a	0	0	0
1531.934	n/a	WORD	765967	wordpools/wasnorm_wordpool_576.txt	LTP302	ltpFR2	0	6	CASHEW	253	n/a	n/a	0	0	0
1534.376	n/a	WORD	767188	wordpools/wasnorm_wordpool_576.txt	LTP302	ltpFR2	0	6	RATTLE	1170	n/a	n/a	0	0	0
1537.1	n/a	WORD	768550	wordpools/wasnorm_wordpool_576.txt	LTP302	ltpFR2	0	6	PORK	1108	n/a	n/a	0	0	0
1539.592	n/a	WORD	769796	wordpools/wasnorm_wordpool_576.txt	LTP302	ltpFR2	0	6	BLADE	134	n/a	n/a	0	0	0
1542.382	n/a	WORD	771191	wordpools/wasnorm_wordpool_576.txt	LTP302	ltpFR2	0	6	SCALPEL	1243	n/a	n/a	0	0	0
1545.04	n/a	WORD	772520	wordpools/wasnorm_wordpool_576.txt	LTP302	ltpFR2	0	6	STALLION	1369	n/a	n/a	0	0	0
1547.766	n/a	WORD	773883	wordpools/wasnorm_wordpool_576.txt	LTP302	ltpFR2	0	6	PICNIC	1060	n/a	n/a	0	0	0
1550.34	n/a	WORD	775170	wordpools/wasnorm_wordpool_576.txt	LTP302	ltpFR2	0	6	COSTUME	383	n/a	n/a	0	0	0
1553.148	n/a	WORD	776574	wordpools/wasnorm_wordpool_576.txt	LTP302	ltpFR2	0	6	CHEST	295	n/a	n/a	0	0	0
1554.746	n/a	START	777373	n/a	LTP302	ltpFR2	0	n/a	n/a	n/a	7	n/a	n/a	n/a	n/a
1555.572	n/a	DISTRACTOR	777786	n/a	LTP302	ltpFR2	0	6	n/a	n/a	n/a	n/a	0	0	0
1555.59	n/a	PROB	777795	n/a	LTP302	ltpFR2	0	n/a	n/a	n/a	7	13	9	2	2
1558.212	n/a	PROB	779106	n/a	LTP302	ltpFR2	0	n/a	n/a	n/a	7	24	9	6	9
1565.342	n/a	PROB	782671	n/a	LTP302	ltpFR2	0	n/a	n/a	n/a	7	25	8	9	8
1569.03	n/a	PROB	784515	n/a	LTP302	ltpFR2	0	n/a	n/a	n/a	7	19	5	5	9
1570.86	n/a	PROB	785430	n/a	LTP302	ltpFR2	0	n/a	n/a	n/a	7	10	1	2	7
1572.754	n/a	PROB	786377	n/a	LTP302	ltpFR2	0	n/a	n/a	n/a	7	13	3	1	9
1574.364	n/a	PROB	787182	n/a	LTP302	ltpFR2	0	n/a	n/a	n/a	7	21	8	6	7
1578.65	n/a	STOP	789325	n/a	LTP302	ltpFR2	0	n/a	n/a	n/a	7	n/a	n/a	n/a	n/a
1580.462	n/a	REC_START	790231	n/a	LTP302	ltpFR2	0	6	n/a	n/a	n/a	n/a	0	0	0
1592.976	n/a	REC_WORD	796488	wordpools/wasnorm_wordpool_576.txt	LTP302	ltpFR2	0	6	CHEST	295	n/a	n/a	0	0	0
1599.956	n/a	REC_WORD	799978	wordpools/wasnorm_wordpool_576.txt	LTP302	ltpFR2	0	6	PORK	1108	n/a	n/a	0	0	0
1602.876	n/a	REC_WORD	801438	wordpools/wasnorm_wordpool_576.txt	LTP302	ltpFR2	0	6	BACON	67	n/a	n/a	0	0	0
1607.456	n/a	REC_WORD	803728	wordpools/wasnorm_wordpool_576.txt	LTP302	ltpFR2	0	6	COSTUME	383	n/a	n/a	0	0	0
1616.632	n/a	REC_WORD	808316	wordpools/wasnorm_wordpool_576.txt	LTP302	ltpFR2	0	6	CLOUD	328	n/a	n/a	0	0	0
1626.622	n/a	REC_WORD	813311	wordpools/wasnorm_wordpool_576.txt	LTP302	ltpFR2	0	6	GUARD	667	n/a	n/a	0	0	0
1649.92	n/a	REC_WORD	824960	wordpools/wasnorm_wordpool_576.txt	LTP302	ltpFR2	0	6	BLACKBOARD	133	n/a	n/a	0	0	0
1670.516	n/a	DISTRACTOR	835258	n/a	LTP302	ltpFR2	0	7	n/a	n/a	n/a	n/a	0	0	0
1670.518	n/a	START	835259	n/a	LTP302	ltpFR2	0	n/a	n/a	n/a	8	n/a	n/a	n/a	n/a
1670.532	n/a	PROB	835266	n/a	LTP302	ltpFR2	0	n/a	n/a	n/a	8	19	3	9	7
1674.336	n/a	PROB	837168	n/a	LTP302	ltpFR2	0	n/a	n/a	n/a	8	16	6	7	3
1676.612	n/a	PROB	838306	n/a	LTP302	ltpFR2	0	n/a	n/a	n/a	8	20	6	7	7
1680.866	n/a	PROB	840433	n/a	LTP302	ltpFR2	0	n/a	n/a	n/a	8	17	1	7	9
1683.076	n/a	PROB	841538	n/a	LTP302	ltpFR2	0	n/a	n/a	n/a	8	15	9	4	2
1685.366	n/a	PROB	842683	n/a	LTP302	ltpFR2	0	n/a	n/a	n/a	8	21	4	8	9
1688.158	n/a	PROB	844079	n/a	LTP302	ltpFR2	0	n/a	n/a	n/a	8	16	6	2	8
1690.682	n/a	PROB	845341	n/a	LTP302	ltpFR2	0	n/a	n/a	n/a	8	18	2	9	7
1693.65	n/a	STOP	846825	n/a	LTP302	ltpFR2	0	n/a	n/a	n/a	8	n/a	n/a	n/a	n/a
1695.386	n/a	WORD	847693	wordpools/wasnorm_wordpool_576.txt	LTP302	ltpFR2	0	7	STATUE	1374	n/a	n/a	0	0	0
1697.91	n/a	WORD	848955	wordpools/wasnorm_wordpool_576.txt	LTP302	ltpFR2	0	7	LUGGAGE	847	n/a	n/a	0	0	0
1700.41	n/a	WORD	850205	wordpools/wasnorm_wordpool_576.txt	LTP302	ltpFR2	0	7	BRIEFCASE	175	n/a	n/a	0	0	0
1702.944	n/a	WORD	851472	wordpools/wasnorm_wordpool_576.txt	LTP302	ltpFR2	0	7	BURGLAR	200	n/a	n/a	0	0	0
1705.376	n/a	WORD	852688	wordpools/wasnorm_wordpool_576.txt	LTP302	ltpFR2	0	7	LIPSTICK	829	n/a	n/a	0	0	0
1707.952	n/a	WORD	853976	wordpools/wasnorm_wordpool_576.txt	LTP302	ltpFR2	0	7	MASK	876	n/a	n/a	0	0	0
1710.734	n/a	WORD	855367	wordpools/wasnorm_wordpool_576.txt	LTP302	ltpFR2	0	7	KEEPER	769	n/a	n/a	0	0	0
1713.286	n/a	WORD	856643	wordpools/wasnorm_wordpool_576.txt	LTP302	ltpFR2	0	7	GALLON	618	n/a	n/a	0	0	0
1715.728	n/a	WORD	857864	wordpools/wasnorm_wordpool_576.txt	LTP302	ltpFR2	0	7	ROBBER	1197	n/a	n/a	0	0	0
1718.236	n/a	WORD	859118	wordpools/wasnorm_wordpool_576.txt	LTP302	ltpFR2	0	7	TUBA	1515	n/a	n/a	0	0	0
1720.984	n/a	WORD	860492	wordpools/wasnorm_wordpool_576.txt	LTP302	ltpFR2	0	7	BRACES	164	n/a	n/a	0	0	0
1723.768	n/a	WORD	861884	wordpools/wasnorm_wordpool_576.txt	LTP302	ltpFR2	0	7	COUCH	386	n/a	n/a	0	0	0
1726.318	n/a	WORD	863159	wordpools/wasnorm_wordpool_576.txt	LTP302	ltpFR2	0	7	PARENT	1013	n/a	n/a	0	0	0
1728.984	n/a	WORD	864492	wordpools/wasnorm_wordpool_576.txt	LTP302	ltpFR2	0	7	BUG	187	n/a	n/a	0	0	0
1731.458	n/a	WORD	865729	wordpools/wasnorm_wordpool_576.txt	LTP302	ltpFR2	0	7	COLONEL	348	n/a	n/a	0	0	0
1734.124	n/a	WORD	867062	wordpools/wasnorm_wordpool_576.txt	LTP302	ltpFR2	0	7	DENIM	446	n/a	n/a	0	0	0
1736.876	n/a	WORD	868438	wordpools/wasnorm_wordpool_576.txt	LTP302	ltpFR2	0	7	ZIPPER	1636	n/a	n/a	0	0	0
1739.624	n/a	WORD	869812	wordpools/wasnorm_wordpool_576.txt	LTP302	ltpFR2	0	7	GRILL	661	n/a	n/a	0	0	0
1742.114	n/a	WORD	871057	wordpools/wasnorm_wordpool_576.txt	LTP302	ltpFR2	0	7	THIEF	1456	n/a	n/a	0	0	0
1744.882	n/a	WORD	872441	wordpools/wasnorm_wordpool_576.txt	LTP302	ltpFR2	0	7	ONION	977	n/a	n/a	0	0	0
1747.478	n/a	WORD	873739	wordpools/wasnorm_wordpool_576.txt	LTP302	ltpFR2	0	7	CRAB	397	n/a	n/a	0	0	0
1750.0	n/a	WORD	875000	wordpools/wasnorm_wordpool_576.txt	LTP302	ltpFR2	0	7	SEAGULL	1261	n/a	n/a	0	0	0
1752.598	n/a	WORD	876299	wordpools/wasnorm_wordpool_576.txt	LTP302	ltpFR2	0	7	ANTLER	29	n/a	n/a	0	0	0
1755.234	n/a	WORD	877617	wordpools/wasnorm_wordpool_576.txt	LTP302	ltpFR2	0	7	MARINE	869	n/a	n/a	0	0	0
1756.834	n/a	START	878417	n/a	LTP302	ltpFR2	0	n/a	n/a	n/a	9	n/a	n/a	n/a	n/a
1757.97	n/a	DISTRACTOR	878985	n/a	LTP302	ltpFR2	0	7	n/a	n/a	n/a	n/a	0	0	0
1757.974	n/a	PROB	878987	n/a	LTP302	ltpFR2	0	n/a	n/a	n/a	9	21	9	7	5
1760.72	n/a	PROB	880360	n/a	LTP302	ltpFR2	0	n/a	n/a	n/a	9	15	7	7	1
1763.392	n/a	PROB	881696	n/a	LTP302	ltpFR2	0	n/a	n/a	n/a	9	13	3	3	7
1765.09	n/a	PROB	882545	n/a	LTP302	ltpFR2	0	n/a	n/a	n/a	9	12	2	6	4
1767.166	n/a	PROB	883583	n/a	LTP302	ltpFR2	0	n/a	n/a	n/a	9	17	9	3	5
1770.238	n/a	PROB	885119	n/a	LTP302	ltpFR2	0	n/a	n/a	n/a	9	21	5	7	9
1775.418	n/a	PROB	887709	n/a	LTP302	ltpFR2	0	n/a	n/a	n/a	9	14	6	4	4
1777.16	n/a	PROB	888580	n/a	LTP302	ltpFR2	0	n/a	n/a	n/a	9	12	2	9	1
1779.288	n/a	STOP	889644	n/a	LTP302	ltpFR2	0	n/a	n/a	n/a	9	n/a	n/a	n/a	n/a
1782.666	n/a	REC_START	891333	n/a	LTP302	ltpFR2	0	7	n/a	n/a	n/a	n/a	0	0	0
1785.346	n/a	REC_WORD	892673	wordpools/wasnorm_wordpool_576.txt	LTP302	ltpFR2	0	7	DENIM	446	n/a	n/a	0	0	0
1787.492	n/a	REC_WORD	893746	wordpools/wasnorm_wordpool_576.txt	LTP302	ltpFR2	0	7	ZIPPER	1636	n/a	n/a	0	0	0
1789.868	n/a	REC_WORD	894934	wordpools/wasnorm_wordpool_576.txt	LTP302	ltpFR2	0	7	COLONEL	348	n/a	n/a	0	0	0
1793.564	n/a	REC_WORD	896782	wordpools/wasnorm_wordpool_576.txt	LTP302	ltpFR2	0	7	THIEF	1456	n/a	n/a	0	0	0
1796.774	n/a	REC_WORD	898387	wordpools/wasnorm_wordpool_576.txt	LTP302	ltpFR2	0	7	ROBBER	1197	n/a	n/a	0	0	0
1800.248	n/a	REC_WORD	900124	wordpools/wasnorm_wordpool_576.txt	LTP302	ltpFR2	0	7	BURGLAR	200	n/a	n/a	0	0	0
1803.05	n/a	REC_WORD	901525	wordpools/wasnorm_wordpool_576.txt	LTP302	ltpFR2	0	7	BRIEFCASE	175	n/a	n/a	0	0	0
1804.046	n/a	REC_WORD_VV	902023	wordpools/wasnorm_wordpool_576.txt	LTP302	ltpFR2	0	7	<>	-1	n/a	n/a	0	0	0
1805.696	n/a	REC_WORD	902848	wordpools/wasnorm_wordpool_576.txt	LTP302	ltpFR2	0	7	LUGGAGE	847	n/a	n/a	0	0	0
1809.714	n/a	REC_WORD	904857	wordpools/wasnorm_wordpool_576.txt	LTP302	ltpFR2	0	7	COUCH	386	n/a	n/a	0	0	0
1812.792	n/a	REC_WORD	906396	wordpools/wasnorm_wordpool_576.txt	LTP302	ltpFR2	0	7	BRACES	164	n/a	n/a	0	0	0
1817.128	n/a	REC_WORD	908564	wordpools/wasnorm_wordpool_576.txt	LTP302	ltpFR2	0	7	GRILL	661	n/a	n/a	0	0	0
1872.74	n/a	DISTRACTOR	936370	n/a	LTP302	ltpFR2	0	8	n/a	n/a	n/a	n/a	0	0	0
1872.74	n/a	START	936370	n/a	LTP302	ltpFR2	0	n/a	n/a	n/a	10	n/a	n/a	n/a	n/a
1872.752	n/a	PROB	936376	n/a	LTP302	ltpFR2	0	n/a	n/a	n/a	10	6	2	3	1
1875.462	n/a	PROB	937731	n/a	LTP302	ltpFR2	0	n/a	n/a	n/a	10	15	7	2	6
1878.186	n/a	PROB	939093	n/a	LTP302	ltpFR2	0	n/a	n/a	n/a	10	11	7	1	3
1879.712	n/a	PROB	939856	n/a	LTP302	ltpFR2	0	n/a	n/a	n/a	10	23	9	6	8
1884.746	n/a	PROB	942373	n/a	LTP302	ltpFR2	0	n/a	n/a	n/a	10	18	8	8	2
1886.924	n/a	PROB	943462	n/a	LTP302	ltpFR2	0	n/a	n/a	n/a	10	16	7	6	3
1888.584	n/a	PROB	944292	n/a	LTP302	ltpFR2	0	n/a	n/a	n/a	10	11	8	2	1
1890.36	n/a	PROB	945180	n/a	LTP302	ltpFR2	0	n/a	n/a	n/a	10	9	5	2	2
1892.604	n/a	PROB	946302	n/a	LTP302	ltpFR2	0	n/a	n/a	n/a	10	5	3	1	1
1896.642	n/a	STOP	948321	n/a	LTP302	ltpFR2	0	n/a	n/a	n/a	10	n/a	n/a	n/a	n/a
1897.522	n/a	WORD	948761	wordpools/wasnorm_wordpool_576.txt	LTP302	ltpFR2	0	8	FRAGRANCE	599	n/a	n/a	0	0	0
1900.12	n/a	WORD	950060	wordpools/wasnorm_wordpool_576.txt	LTP302	ltpFR2	0	8	BINDER	127	n/a	n/a	0	0	0
1902.76	n/a	WORD	951380	wordpools/wasnorm_wordpool_576.txt	LTP302	ltpFR2	0	8	LAMP	798	n/a	n/a	0	0	0
1905.298	n/a	WORD	952649	wordpools/wasnorm_wordpool_576.txt	LTP302	ltpFR2	0	8	PAPER	1011	n/a	n/a	0	0	0
1907.772	n/a	WORD	953886	wordpools/wasnorm_wordpool_576.txt	LTP302	ltpFR2	0	8	SKILLET	1317	n/a	n/a	0	0	0
1910.514	n/a	WORD	955257	wordpools/wasnorm_wordpool_576.txt	LTP302	ltpFR2	0	8	OUTDOORS	987	n/a	n/a	0	0	0
1913.138	n/a	WORD	956569	wordpools/wasnorm_wordpool_576.txt	LTP302	ltpFR2	0	8	NEUTRON	947	n/a	n/a	0	0	0
1915.718	n/a	WORD	957859	wordpools/wasnorm_wordpool_576.txt	LTP302	ltpFR2	0	8	GRIZZLY	662	n/a	n/a	0	0	0
1918.194	n/a	WORD	959097	wordpools/wasnorm_wordpool_576.txt	LTP302	ltpFR2	0	8	PISTOL	1075	n/a	n/a	0	0	0
1920.802	n/a	WORD	960401	wordpools/wasnorm_wordpool_576.txt	LTP302	ltpFR2	0	8	RECEIPT	1173	n/a	n/a	0	0	0
1923.276	n/a	WORD	961638	wordpools/wasnorm_wordpool_576.txt	LTP302	ltpFR2	0	8	LUNCH	849	n/a	n/a	0	0	0
1925.854	n/a	WORD	962927	wordpools/wasnorm_wordpool_576.txt	LTP302	ltpFR2	0	8	TRENCH	1503	n/a	n/a	0	0	0
1928.322	n/a	WORD	964161	wordpools/wasnorm_wordpool_576.txt	LTP302	ltpFR2	0	8	WITNESS	1618	n/a	n/a	0	0	0
1931.036	n/a	WORD	965518	wordpools/wasnorm_wordpool_576.txt	LTP302	ltpFR2	0	8	JUDGE	761	n/a	n/a	0	0	0
1933.504	n/a	WORD	966752	wordpools/wasnorm_wordpool_576.txt	LTP302	ltpFR2	0	8	NAPKIN	937	n/a	n/a	0	0	0
1936.302	n/a	WORD	968151	wordpools/wasnorm_wordpool_576.txt	LTP302	ltpFR2	0	8	CRITIC	410	n/a	n/a	0	0	0
1938.802	n/a	WORD	969401	wordpools/wasnorm_wordpool_576.txt	LTP302	ltpFR2	0	8	SWORD	1423	n/a	n/a	0	0	0
1941.578	n/a	WORD	970789	wordpools/wasnorm_wordpool_576.txt	LTP302	ltpFR2	0	8	HATCHET	691	n/a	n/a	0	0	0
1944.094	n/a	WORD	972047	wordpools/wasnorm_wordpool_576.txt	LTP302	ltpFR2	0	8	ROOSTER	1209	n/a	n/a	0	0	0
1946.66	n/a	WORD	973330	wordpools/wasnorm_wordpool_576.txt	LTP302	ltpFR2	0	8	REPORT	1184	n/a	n/a	0	0	0
1949.41	n/a	WORD	974705	wordpools/wasnorm_wordpool_576.txt	LTP302	ltpFR2	0	8	POPCORN	1104	n/a	n/a	0	0	0
1952.176	n/a	WORD	976088	wordpools/wasnorm_wordpool_576.txt	LTP302	ltpFR2	0	8	WARDROBE	1587	n/a	n/a	0	0	0
1954.768	n/a	WORD	977384	wordpools/wasnorm_wordpool_576.txt	LTP302	ltpFR2	0	8	SAUSAGE	1238	n/a	n/a	0	0	0
1957.402	n/a	WORD	978701	wordpools/wasnorm_wordpool_576.txt	LTP302	ltpFR2	0	8	WAITRESS	1581	n/a	n/a	0	0	0
1959.004	n/a	START	979502	n/a	LTP302	ltpFR2	0	n/a	n/a	n/a	11	n/a	n/a	n/a	n/a
1959.888	n/a	DISTRACTOR	979944	n/a	LTP302	ltpFR2	0	8	n/a	n/a	n/a	n/a	0	0	0
1959.894	n/a	PROB	979947	n/a	LTP302	ltpFR2	0	n/a	n/a	n/a	11	17	2	9	6
1964.368	n/a	PROB	982184	n/a	LTP302	ltpFR2	0	n/a	n/a	n/a	11	22	8	7	7
1968.106	n/a	PROB	984053	n/a	LTP302	ltpFR2	0	n/a	n/a	n/a	11	16	3	4	9
1971.362	n/a	PROB	985681	n/a	LTP302	ltpFR2	0	n/a	n/a	n/a	11	19	8	7	4
1974.752	n/a	PROB	987376	n/a	LTP302	ltpFR2	0	n/a	n/a	n/a	11	12	3	3	6
1976.878	n/a	PROB	988439	n/a	LTP302	ltpFR2	0	n/a	n/a	n/a	11	16	4	4	8
1980.814	n/a	PROB	990407	n/a	LTP302	ltpFR2	0	n/a	n/a	n/a	11	16	6	1	9
1982.578	n/a	STOP	991289	n/a	LTP302	ltpFR2	0	n/a	n/a	n/a	11	n/a	n/a	n/a	n/a
1984.768	n/a	REC_START	992384	n/a	LTP302	ltpFR2	0	8	n/a	n/a	n/a	n/a	0	0	0
1988.188	n/a	REC_WORD	994094	wordpools/wasnorm_wordpool_576.txt	LTP302	ltpFR2	0	8	SAUSAGE	1238	n/a	n/a	0	0	0
1990.968	n/a	REC_WORD	995484	wordpools/wasnorm_wordpool_576.txt	LTP302	ltpFR2	0	8	SKILLET	1317	n/a	n/a	0	0	0
1995.174	n/a	REC_WORD	997587	wordpools/wasnorm_wordpool_576.txt	LTP302	ltpFR2	0	8	BINDER	127	n/a	n/a	0	0	0
2002.468	n/a	REC_WORD	1001234	wordpools/wasnorm_wordpool_576.txt	LTP302	ltpFR2	0	8	OUTDOORS	987	n/a	n/a	0	0	0
2003.464	n/a	REC_WORD_VV	1001732	wordpools/wasnorm_wordpool_576.txt	LTP302	ltpFR2	0	8	<>	-1	n/a	n/a	0	0	0
2006.008	n/a	REC_WORD	1003004	wordpools/wasnorm_wordpool_576.txt	LTP302	ltpFR2	0	8	GRIZZLY	662	n/a	n/a	0	0	0
2014.254	n/a	REC_WORD	1007127	wordpools/wasnorm_wordpool_576.txt	LTP302	ltpFR2	0	8	NEUTRON	947	n/a	n/a	0	0	0
2020.962	n/a	REC_WORD	1010481	wordpools/wasnorm_wordpool_576.txt	LTP302	ltpFR2	0	8	RECEIPT	1173	n/a	n/a	0	0	0
2023.57	n/a	REC_WORD	1011785	wordpools/wasnorm_wordpool_576.txt	LTP302	ltpFR2	0	8	REPORT	1184	n/a	n/a	0	0	0
2035.772	n/a	REC_WORD	1017886	wordpools/wasnorm_wordpool_576.txt	LTP302	ltpFR2	0	8	TRENCH	1503	n/a	n/a	0	0	0
2061.002	n/a	REST_REWET	1030501	n/a	LTP302	ltpFR2	0	8	n/a	n/a	n/a	n/a	0	0	0
2183.036	n/a	WORD	1091518	wordpools/wasnorm_wordpool_576.txt	LTP302	ltpFR2	0	9	CYCLONE	431	n/a	n/a	0	0	0
2185.518	n/a	WORD	1092759	wordpools/wasnorm_wordpool_576.txt	LTP302	ltpFR2	0	9	TWISTER	1530	n/a	n/a	0	0	0
2188.32	n/a	WORD	1094160	wordpools/wasnorm_wordpool_576.txt	LTP302	ltpFR2	0	9	CABBAGE	210	n/a	n/a	0	0	0
2190.802	n/a	WORD	1095401	wordpools/wasnorm_wordpool_576.txt	LTP302	ltpFR2	0	9	SLUG	1329	n/a	n/a	0	0	0
2193.494	n/a	WORD	1096747	wordpools/wasnorm_wordpool_576.txt	LTP302	ltpFR2	0	9	SUSPECT	1415	n/a	n/a	0	0	0
2195.926	n/a	WORD	1097963	wordpools/wasnorm_wordpool_576.txt	LTP302	ltpFR2	0	9	ROBIN	1199	n/a	n/a	0	0	0
2198.568	n/a	WORD	1099284	wordpools/wasnorm_wordpool_576.txt	LTP302	ltpFR2	0	9	TURKEY	1520	n/a	n/a	0	0	0
2200.986	n/a	WORD	1100493	wordpools/wasnorm_wordpool_576.txt	LTP302	ltpFR2	0	9	VELVET	1555	n/a	n/a	0	0	0
2203.626	n/a	WORD	1101813	wordpools/wasnorm_wordpool_576.txt	LTP302	ltpFR2	0	9	LASER	801	n/a	n/a	0	0	0
2206.086	n/a	WORD	1103043	wordpools/wasnorm_wordpool_576.txt	LTP302	ltpFR2	0	9	HIKER	708	n/a	n/a	0	0	0
2208.712	n/a	WORD	1104356	wordpools/wasnorm_wordpool_576.txt	LTP302	ltpFR2	0	9	SUMMIT	1405	n/a	n/a	0	0	0
2211.418	n/a	WORD	1105709	wordpools/wasnorm_wordpool_576.txt	LTP302	ltpFR2	0	9	SISTER	1312	n/a	n/a	0	0	0
2214.144	n/a	WORD	1107072	wordpools/wasnorm_wordpool_576.txt	LTP302	ltpFR2	0	9	SCARECROW	1245	n/a	n/a	0	0	0
2216.592	n/a	WORD	1108296	wordpools/wasnorm_wordpool_576.txt	LTP302	ltpFR2	0	9	HUSBAND	728	n/a	n/a	0	0	0
2219.328	n/a	WORD	1109664	wordpools/wasnorm_wordpool_576.txt	LTP302	ltpFR2	0	9	VALVE	1546	n/a	n/a	0	0	0
2221.976	n/a	WORD	1110988	wordpools/wasnorm_wordpool_576.txt	LTP302	ltpFR2	0	9	RABBIT	1152	n/a	n/a	0	0	0
2224.532	n/a	WORD	1112266	wordpools/wasnorm_wordpool_576.txt	LTP302	ltpFR2	0	9	AGENT	10	n/a	n/a	0	0	0
2227.322	n/a	WORD	1113661	wordpools/wasnorm_wordpool_576.txt	LTP302	ltpFR2	0	9	EAGLE	512	n/a	n/a	0	0	0
2230.01	n/a	WORD	1115005	wordpools/wasnorm_wordpool_576.txt	LTP302	ltpFR2	0	9	BUGGY	188	n/a	n/a	0	0	0
2232.8	n/a	WORD	1116400	wordpools/wasnorm_wordpool_576.txt	LTP302	ltpFR2	0	9	LABEL	790	n/a	n/a	0	0	0
2235.326	n/a	WORD	1117663	wordpools/wasnorm_wordpool_576.txt	LTP302	ltpFR2	0	9	PARROT	1015	n/a	n/a	0	0	0
2237.934	n/a	WORD	1118967	wordpools/wasnorm_wordpool_576.txt	LTP302	ltpFR2	0	9	LETTUCE	814	n/a	n/a	0	0	0
2240.512	n/a	WORD	1120256	wordpools/wasnorm_wordpool_576.txt	LTP302	ltpFR2	0	9	PUDDLE	1140	n/a	n/a	0	0	0
2243.304	n/a	WORD	1121652	wordpools/wasnorm_wordpool_576.txt	LTP302	ltpFR2	0	9	BEAKER	104	n/a	n/a	0	0	0
2244.914	n/a	START	1122457	n/a	LTP302	ltpFR2	0	n/a	n/a	n/a	12	n/a	n/a	n/a	n/a
2245.814	n/a	DISTRACTOR	1122907	n/a	LTP302	ltpFR2	0	9	n/a	n/a	n/a	n/a	0	0	0
2245.826	n/a	PROB	1122913	n/a	LTP302	ltpFR2	0	n/a	n/a	n/a	12	14	3	6	5
2249.07	n/a	PROB	1124535	n/a	LTP302	ltpFR2	0	n/a	n/a	n/a	12	15	1	7	7
2251.062	n/a	PROB	1125531	n/a	LTP302	ltpFR2	0	n/a	n/a	n/a	12	14	9	2	3
2253.404	n/a	PROB	1126702	n/a	LTP302	ltpFR2	0	n/a	n/a	n/a	12	15	3	5	7
2255.05	n/a	PROB	1127525	n/a	LTP302	ltpFR2	0	n/a	n/a	n/a	12	6	3	2	1
2256.96	n/a	PROB	1128480	n/a	LTP302	ltpFR2	0	n/a	n/a	n/a	12	20	9	2	9
2259.436	n/a	PROB	1129718	n/a	LTP302	ltpFR2	0	n/a	n/a	n/a	12	17	9	5	3
2268.814	n/a	STOP	1134407	n/a	LTP302	ltpFR2	0	n/a	n/a	n/a	12	n/a	n/a	n/a	n/a
2270.65	n/a	REC_START	1135325	n/a	LTP302	ltpFR2	0	9	n/a	n/a	n/a	n/a	0	0	0
2274.262	n/a	REC_WORD	1137131	wordpools/wasnorm_wordpool_576.txt	LTP302	ltpFR2	0	9	BEAKER	104	n/a	n/a	0	0	0
2279.218	n/a	REC_WORD	1139609	wordpools/wasnorm_wordpool_576.txt	LTP302	ltpFR2	0	9	PARROT	1015	n/a	n/a	0	0	0
2281.486	n/a	REC_WORD	1140743	wordpools/wasnorm_wordpool_576.txt	LTP302	ltpFR2	0	9	EAGLE	512	n/a	n/a	0	0	0
2284.454	n/a	REC_WORD	1142227	wordpools/wasnorm_wordpool_576.txt	LTP302	ltpFR2	0	9	LETTUCE	814	n/a	n/a	0	0	0
2286.506	n/a	REC_WORD	1143253	wordpools/wasnorm_wordpool_576.txt	LTP302	ltpFR2	0	9	CABBAGE	210	n/a	n/a	0	0	0
2288.462	n/a	REC_WORD	1144231	wordpools/wasnorm_wordpool_576.txt	LTP302	ltpFR2	0	9	SLUG	1329	n/a	n/a	0	0	0
2296.734	n/a	REC_WORD	1148367	wordpools/wasnorm_wordpool_576.txt	LTP302	ltpFR2	0	9	TURKEY	1520	n/a	n/a	0	0	0
2304.768	n/a	REC_WORD	1152384	wordpools/wasnorm_wordpool_576.txt	LTP302	ltpFR2	0	9	RABBIT	1152	n/a	n/a	0	0	0
2308.366	n/a	REC_WORD	1154183	wordpools/wasnorm_wordpool_576.txt	LTP302	ltpFR2	0	9	CYCLONE	431	n/a	n/a	0	0	0
2311.002	n/a	REC_WORD	1155501	wordpools/wasnorm_wordpool_576.txt	LTP302	ltpFR2	0	9	TWISTER	1530	n/a	n/a	0	0	0
2315.672	n/a	REC_WORD	1157836	wordpools/wasnorm_wordpool_576.txt	LTP302	ltpFR2	0	9	AGENT	10	n/a	n/a	0	0	0
2326.558	n/a	REC_WORD	1163279	wordpools/wasnorm_wordpool_576.txt	LTP302	ltpFR2	0	9	SISTER	1312	n/a	n/a	0	0	0
2329.108	n/a	REC_WORD	1164554	wordpools/wasnorm_wordpool_576.txt	LTP302	ltpFR2	0	9	HUSBAND	728	n/a	n/a	0	0	0
2360.724	n/a	DISTRACTOR	1180362	n/a	LTP302	ltpFR2	0	10	n/a	n/a	n/a	n/a	0	0	0
2360.724	n/a	START	1180362	n/a	LTP302	ltpFR2	0	n/a	n/a	n/a	13	n/a	n/a	n/a	n/a
2360.74	n/a	PROB	1180370	n/a	LTP302	ltpFR2	0	n/a	n/a	n/a	13	11	2	7	2
2364.124	n/a	PROB	1182062	n/a	LTP302	ltpFR2	0	n/a	n/a	n/a	13	18	5	5	8
2367.214	n/a	PROB	1183607	n/a	LTP302	ltpFR2	0	n/a	n/a	n/a	13	18	8	3	7
2368.926	n/a	PROB	1184463	n/a	LTP302	ltpFR2	0	n/a	n/a	n/a	13	12	3	3	3
2371.93	n/a	PROB	1185965	n/a	LTP302	ltpFR2	0	n/a	n/a	n/a	13	19	9	7	3
2378.194	n/a	PROB	1189097	n/a	LTP302	ltpFR2	0	n/a	n/a	n/a	13	9	2	2	5
2381.252	n/a	PROB	1190626	n/a	LTP302	ltpFR2	0	n/a	n/a	n/a	13	13	9	3	1
2383.328	n/a	STOP	1191664	n/a	LTP302	ltpFR2	0	n/a	n/a	n/a	13	n/a	n/a	n/a	n/a
2385.704	n/a	WORD	1192852	wordpools/wasnorm_wordpool_576.txt	LTP302	ltpFR2	0	10	STAR	1373	n/a	n/a	0	0	0
2388.478	n/a	WORD	1194239	wordpools/wasnorm_wordpool_576.txt	LTP302	ltpFR2	0	10	IDOL	733	n/a	n/a	0	0	0
2391.254	n/a	WORD	1195627	wordpools/wasnorm_wordpool_576.txt	LTP302	ltpFR2	0	10	COMPASS	358	n/a	n/a	0	0	0
2393.884	n/a	WORD	1196942	wordpools/wasnorm_wordpool_576.txt	LTP302	ltpFR2	0	10	CURTAIN	427	n/a	n/a	0	0	0
2396.558	n/a	WORD	1198279	wordpools/wasnorm_wordpool_576.txt	LTP302	ltpFR2	0	10	HONEY	713	n/a	n/a	0	0	0
2399.11	n/a	WORD	1199555	wordpools/wasnorm_wordpool_576.txt	LTP302	ltpFR2	0	10	MAMMAL	861	n/a	n/a	0	0	0
2401.874	n/a	WORD	1200937	wordpools/wasnorm_wordpool_576.txt	LTP302	ltpFR2	0	10	GIRL	637	n/a	n/a	0	0	0
2404.534	n/a	WORD	1202267	wordpools/wasnorm_wordpool_576.txt	LTP302	ltpFR2	0	10	BALLOON	75	n/a	n/a	0	0	0
2407.018	n/a	WORD	1203509	wordpools/wasnorm_wordpool_576.txt	LTP302	ltpFR2	0	10	HOSTESS	723	n/a	n/a	0	0	0
2409.476	n/a	WORD	1204738	wordpools/wasnorm_wordpool_576.txt	LTP302	ltpFR2	0	10	WINDOW	1611	n/a	n/a	0	0	0
2412.118	n/a	WORD	1206059	wordpools/wasnorm_wordpool_576.txt	LTP302	ltpFR2	0	10	HARP	689	n/a	n/a	0	0	0
2414.826	n/a	WORD	1207413	wordpools/wasnorm_wordpool_576.txt	LTP302	ltpFR2	0	10	CUSTARD	429	n/a	n/a	0	0	0
2417.434	n/a	WORD	1208717	wordpools/wasnorm_wordpool_576.txt	LTP302	ltpFR2	0	10	JELLO	754	n/a	n/a	0	0	0
2420.0	n/a	WORD	1210000	wordpools/wasnorm_wordpool_576.txt	LTP302	ltpFR2	0	10	ATLAS	53	n/a	n/a	0	0	0
2422.6	n/a	WORD	1211300	wordpools/wasnorm_wordpool_576.txt	LTP302	ltpFR2	0	10	STAMP	1370	n/a	n/a	0	0	0
2425.226	n/a	WORD	1212613	wordpools/wasnorm_wordpool_576.txt	LTP302	ltpFR2	0	10	TEACHER	1440	n/a	n/a	0	0	0
2427.682	n/a	WORD	1213841	wordpools/wasnorm_wordpool_576.txt	LTP302	ltpFR2	0	10	INMATE	738	n/a	n/a	0	0	0
2430.118	n/a	WORD	1215059	wordpools/wasnorm_wordpool_576.txt	LTP302	ltpFR2	0	10	STREAM	1392	n/a	n/a	0	0	0
2432.692	n/a	WORD	1216346	wordpools/wasnorm_wordpool_576.txt	LTP302	ltpFR2	0	10	MESSAGE	888	n/a	n/a	0	0	0
2435.21	n/a	WORD	1217605	wordpools/wasnorm_wordpool_576.txt	LTP302	ltpFR2	0	10	OMELET	976	n/a	n/a	0	0	0
2437.844	n/a	WORD	1218922	wordpools/wasnorm_wordpool_576.txt	LTP302	ltpFR2	0	10	PIGEON	1065	n/a	n/a	0	0	0
2440.286	n/a	WORD	1220143	wordpools/wasnorm_wordpool_576.txt	LTP302	ltpFR2	0	10	KETCHUP	771	n/a	n/a	0	0	0
2442.878	n/a	WORD	1221439	wordpools/wasnorm_wordpool_576.txt	LTP302	ltpFR2	0	10	CHEMIST	292	n/a	n/a	0	0	0
2445.684	n/a	WORD	1222842	wordpools/wasnorm_wordpool_576.txt	LTP302	ltpFR2	0	10	PROTON	1132	n/a	n/a	0	0	0
2447.288	n/a	START	1223644	n/a	LTP302	ltpFR2	0	n/a	n/a	n/a	14	n/a	n/a	n/a	n/a
2448.31	n/a	DISTRACTOR	1224155	n/a	LTP302	ltpFR2	0	10	n/a	n/a	n/a	n/a	0	0	0
2448.316	n/a	PROB	1224158	n/a	LTP302	ltpFR2	0	n/a	n/a	n/a	14	16	7	2	7
2452.004	n/a	PROB	1226002	n/a	LTP302	ltpFR2	0	n/a	n/a	n/a	14	21	9	4	8
2455.824	n/a	PROB	1227912	n/a	LTP302	ltpFR2	0	n/a	n/a	n/a	14	14	7	3	4
2458.166	n/a	PROB	1229083	n/a	LTP302	ltpFR2	0	n/a	n/a	n/a	14	15	7	3	5
2459.776	n/a	PROB	1229888	n/a	LTP302	ltpFR2	0	n/a	n/a	n/a	14	14	2	4	8
2466.258	n/a	PROB	1233129	n/a	LTP302	ltpFR2	0	n/a	n/a	n/a	14	20	4	8	8
2471.19	n/a	STOP	1235595	n/a	LTP302	ltpFR2	0	n/a	n/a	n/a	14	n/a	n/a	n/a	n/a
2472.954	n/a	REC_START	1236477	n/a	LTP302	ltpFR2	0	10	n/a	n/a	n/a	n/a	0	0	0
2475.034	n/a	REC_WORD	1237517	wordpools/wasnorm_wordpool_576.txt	LTP302	ltpFR2	0	10	STAR	1373	n/a	n/a	0	0	0
2478.032	n/a	REC_WORD	1239016	wordpools/wasnorm_wordpool_576.txt	LTP302	ltpFR2	0	10	IDOL	733	n/a	n/a	0	0	0
2481.618	n/a	REC_WORD	1240809	wordpools/wasnorm_wordpool_576.txt	LTP302	ltpFR2	0	10	PIGEON	1065	n/a	n/a	0	0	0
2484.968	n/a	REC_WORD	1242484	wordpools/wasnorm_wordpool_576.txt	LTP302	ltpFR2	0	10	ATLAS	53	n/a	n/a	0	0	0
2488.034	n/a	REC_WORD	1244017	wordpools/wasnorm_wordpool_576.txt	LTP302	ltpFR2	0	10	CHEMIST	292	n/a	n/a	0	0	0
2490.614	n/a	REC_WORD	1245307	wordpools/wasnorm_wordpool_576.txt	LTP302	ltpFR2	0	10	PROTON	1132	n/a	n/a	0	0	0
2495.69	n/a	REC_WORD	1247845	wordpools/wasnorm_wordpool_576.txt	LTP302	ltpFR2	0	10	CUSTARD	429	n/a	n/a	0	0	0
2498.498	n/a	REC_WORD	1249249	wordpools/wasnorm_wordpool_576.txt	LTP302	ltpFR2	0	10	JELLO	754	n/a	n/a	0	0	0
2501.294	n/a	REC_WORD	1250647	wordpools/wasnorm_wordpool_576.txt	LTP302	ltpFR2	0	10	GIRL	637	n/a	n/a	0	0	0
2503.596	n/a	REC_WORD	1251798	wordpools/wasnorm_wordpool_576.txt	LTP302	ltpFR2	0	10	HOSTESS	723	n/a	n/a	0	0	0
2516.276	n/a	REC_WORD	1258138	wordpools/wasnorm_wordpool_576.txt	LTP302	ltpFR2	0	10	STREAM	1392	n/a	n/a	0	0	0
2518.89	n/a	REC_WORD	1259445	wordpools/wasnorm_wordpool_576.txt	LTP302	ltpFR2	0	10	INMATE	738	n/a	n/a	0	0	0
2539.25	n/a	REC_WORD	1269625	wordpools/wasnorm_wordpool_576.txt	LTP302	ltpFR2	0	10	WINDOW	1611	n/a	n/a	0	0	0
2563.054	n/a	WORD	1281527	wordpools/wasnorm_wordpool_576.txt	LTP302	ltpFR2	0	11	LAGOON	795	n/a	n/a	0	0	0
2565.782	n/a	WORD	1282891	wordpools/wasnorm_wordpool_576.txt	LTP302	ltpFR2	0	11	BISON	131	n/a	n/a	0	0	0
2568.356	n/a	WORD	1284178	wordpools/wasnorm_wordpool_576.txt	LTP302	ltpFR2	0	11	TREAT	1501	n/a	n/a	0	0	0
2571.146	n/a	WORD	1285573	wordpools/wasnorm_wordpool_576.txt	LTP302	ltpFR2	0	11	TART	1436	n/a	n/a	0	0	0
2573.92	n/a	WORD	1286960	wordpools/wasnorm_wordpool_576.txt	LTP302	ltpFR2	0	11	CANDY	230	n/a	n/a	0	0	0
2576.696	n/a	WORD	1288348	wordpools/wasnorm_wordpool_576.txt	LTP302	ltpFR2	0	11	CAFE	216	n/a	n/a	0	0	0
2579.252	n/a	WORD	1289626	wordpools/wasnorm_wordpool_576.txt	LTP302	ltpFR2	0	11	FINGER	567	n/a	n/a	0	0	0
2582.044	n/a	WORD	1291022	wordpools/wasnorm_wordpool_576.txt	LTP302	ltpFR2	0	11	CARROT	249	n/a	n/a	0	0	0
2584.604	n/a	WORD	1292302	wordpools/wasnorm_wordpool_576.txt	LTP302	ltpFR2	0	11	BUNNY	198	n/a	n/a	0	0	0
2587.246	n/a	WORD	1293623	wordpools/wasnorm_wordpool_576.txt	LTP302	ltpFR2	0	11	STAPLE	1371	n/a	n/a	0	0	0
2589.786	n/a	WORD	1294893	wordpools/wasnorm_wordpool_576.txt	LTP302	ltpFR2	0	11	CONTRACT	368	n/a	n/a	0	0	0
2592.344	n/a	WORD	1296172	wordpools/wasnorm_wordpool_576.txt	LTP302	ltpFR2	0	11	WAITER	1580	n/a	n/a	0	0	0
2594.918	n/a	WORD	1297459	wordpools/wasnorm_wordpool_576.txt	LTP302	ltpFR2	0	11	JELLY	755	n/a	n/a	0	0	0
2597.378	n/a	WORD	1298689	wordpools/wasnorm_wordpool_576.txt	LTP302	ltpFR2	0	11	LAPEL	800	n/a	n/a	0	0	0
2600.068	n/a	WORD	1300034	wordpools/wasnorm_wordpool_576.txt	LTP302	ltpFR2	0	11	XEROX	1628	n/a	n/a	0	0	0
2602.578	n/a	WORD	1301289	wordpools/wasnorm_wordpool_576.txt	LTP302	ltpFR2	0	11	DENTIST	447	n/a	n/a	0	0	0
2605.286	n/a	WORD	1302643	wordpools/wasnorm_wordpool_576.txt	LTP302	ltpFR2	0	11	CREATURE	403	n/a	n/a	0	0	0
2607.874	n/a	WORD	1303937	wordpools/wasnorm_wordpool_576.txt	LTP302	ltpFR2	0	11	GLOVE	642	n/a	n/a	0	0	0
2610.302	n/a	WORD	1305151	wordpools/wasnorm_wordpool_576.txt	LTP302	ltpFR2	0	11	ASIA	46	n/a	n/a	0	0	0
2612.732	n/a	WORD	1306366	wordpools/wasnorm_wordpool_576.txt	LTP302	ltpFR2	0	11	VIKING	1565	n/a	n/a	0	0	0
2615.384	n/a	WORD	1307692	wordpools/wasnorm_wordpool_576.txt	LTP302	ltpFR2	0	11	MAPLE	866	n/a	n/a	0	0	0
2618.044	n/a	WORD	1309022	wordpools/wasnorm_wordpool_576.txt	LTP302	ltpFR2	0	11	WAGON	1578	n/a	n/a	0	0	0
2620.674	n/a	WORD	1310337	wordpools/wasnorm_wordpool_576.txt	LTP302	ltpFR2	0	11	FLIPPER	580	n/a	n/a	0	0	0
2623.464	n/a	WORD	1311732	wordpools/wasnorm_wordpool_576.txt	LTP302	ltpFR2	0	11	NOTEBOOK	959	n/a	n/a	0	0	0
2625.07	n/a	START	1312535	n/a	LTP302	ltpFR2	0	n/a	n/a	n/a	15	n/a	n/a	n/a	n/a
2626.04	n/a	DISTRACTOR	1313020	n/a	LTP302	ltpFR2	0	11	n/a	n/a	n/a	n/a	0	0	0
2626.05	n/a	PROB	1313025	n/a	LTP302	ltpFR2	0	n/a	n/a	n/a	15	19	6	5	8
2629.836	n/a	PROB	1314918	n/a	LTP302	ltpFR2	0	n/a	n/a	n/a	15	6	4	1	1
2631.6	n/a	PROB	1315800	n/a	LTP302	ltpFR2	0	n/a	n/a	n/a	15	24	9	6	9
2636.2	n/a	PROB	1318100	n/a	LTP302	ltpFR2	0	n/a	n/a	n/a	15	23	9	9	5
2639.986	n/a	PROB	1319993	n/a	LTP302	ltpFR2	0	n/a	n/a	n/a	15	17	3	6	8
2643.474	n/a	PROB	1321737	n/a	LTP302	ltpFR2	0	n/a	n/a	n/a	15	13	5	3	5
2645.154	n/a	PROB	1322577	n/a	LTP302	ltpFR2	0	n/a	n/a	n/a	15	8	1	6	1
2648.974	n/a	STOP	1324487	n/a	LTP302	ltpFR2	0	n/a	n/a	n/a	15	n/a	n/a	n/a	n/a
2650.902	n/a	REC_START	1325451	n/a	LTP302	ltpFR2	0	11	n/a	n/a	n/a	n/a	0	0	0
2653.848	n/a	REC_WORD	1326924	wordpools/wasnorm_wordpool_576.txt	LTP302	ltpFR2	0	11	LAPEL	800	n/a	n/a	0	0	0
2656.992	n/a	REC_WORD	1328496	wordpools/wasnorm_wordpool_576.txt	LTP302	ltpFR2	0	11	ASIA	46	n/a	n/a	0	0	0
2659.338	n/a	REC_WORD	1329669	wordpools/wasnorm_wordpool_576.txt	LTP302	ltpFR2	0	11	FLIPPER	580	n/a	n/a	0	0	0
2662.084	n/a	REC_WORD	1331042	wordpools/wasnorm_wordpool_576.txt	LTP302	ltpFR2	0	11	LAGOON	795	n/a	n/a	0	0	0
2667.508	n/a	REC_WORD	1333754	wordpools/wasnorm_wordpool_576.txt	LTP302	ltpFR2	0	11	WAITER	1580	n/a	n/a	0	0	0
2670.312	n/a	REC_WORD	1335156	wordpools/wasnorm_wordpool_576.txt	LTP302	ltpFR2	0	11	DENTIST	447	n/a	n/a	0	0	0
2680.176	n/a	REC_WORD	1340088	wordpools/wasnorm_wordpool_576.txt	LTP302	ltpFR2	0	11	FINGER	567	n/a	n/a	0	0	0
2688.106	n/a	REC_WORD	1344053	wordpools/wasnorm_wordpool_576.txt	LTP302	ltpFR2	0	11	CAFE	216	n/a	n/a	0	0	0
2691.16	n/a	REC_WORD	1345580	wordpools/wasnorm_wordpool_576.txt	LTP302	ltpFR2	0	11	TREAT	1501	n/a	n/a	0	0	0
2693.394	n/a	REC_WORD	1346697	wordpools/wasnorm_wordpool_576.txt	LTP302	ltpFR2	0	11	TART	1436	n/a	n/a	0	0	0
2695.878	n/a	REC_WORD	1347939	wordpools/wasnorm_wordpool_576.txt	LTP302	ltpFR2	0	11	CARROT	249	n/a	n/a	0	0	0
2698.004	n/a	REC_WORD	1349002	wordpools/wasnorm_wordpool_576.txt	LTP302	ltpFR2	0	11	BUNNY	198	n/a	n/a	0	0	0
2699.794	n/a	REC_WORD	1349897	wordpools/wasnorm_wordpool_576.txt	LTP302	ltpFR2	0	11	CANDY	230	n/a	n/a	0	0	0
2708.644	n/a	REC_WORD	1354322	wordpools/wasnorm_wordpool_576.txt	LTP302	ltpFR2	0	11	NOTEBOOK	959	n/a	n/a	0	0	0
2740.988	n/a	WORD	1370494	wordpools/wasnorm_wordpool_576.txt	LTP302	ltpFR2	0	12	FRUIT	610	n/a	n/a	0	0	0
2743.528	n/a	WORD	1371764	wordpools/wasnorm_wordpool_576.txt	LTP302	ltpFR2	0	12	BRANDY	169	n/a	n/a	0	0	0
2746.27	n/a	WORD	1373135	wordpools/wasnorm_wordpool_576.txt	LTP302	ltpFR2	0	12	OX	994	n/a	n/a	0	0	0
2748.68	n/a	WORD	1374340	wordpools/wasnorm_wordpool_576.txt	LTP302	ltpFR2	0	12	GYMNAST	675	n/a	n/a	0	0	0
2751.17	n/a	WORD	1375585	wordpools/wasnorm_wordpool_576.txt	LTP302	ltpFR2	0	12	MUSTARD	935	n/a	n/a	0	0	0
2753.962	n/a	WORD	1376981	wordpools/wasnorm_wordpool_576.txt	LTP302	ltpFR2	0	12	PATIENT	1024	n/a	n/a	0	0	0
2756.436	n/a	WORD	1378218	wordpools/wasnorm_wordpool_576.txt	LTP302	ltpFR2	0	12	OUTFIT	988	n/a	n/a	0	0	0
2759.226	n/a	WORD	1379613	wordpools/wasnorm_wordpool_576.txt	LTP302	ltpFR2	0	12	SUNSET	1408	n/a	n/a	0	0	0
2761.84	n/a	WORD	1380920	wordpools/wasnorm_wordpool_576.txt	LTP302	ltpFR2	0	12	SWIMMER	1420	n/a	n/a	0	0	0
2764.262	n/a	WORD	1382131	wordpools/wasnorm_wordpool_576.txt	LTP302	ltpFR2	0	12	RADISH	1158	n/a	n/a	0	0	0
2766.672	n/a	WORD	1383336	wordpools/wasnorm_wordpool_576.txt	LTP302	ltpFR2	0	12	BEAST	108	n/a	n/a	0	0	0
2769.278	n/a	WORD	1384639	wordpools/wasnorm_wordpool_576.txt	LTP302	ltpFR2	0	12	CLOCK	325	n/a	n/a	0	0	0
2771.82	n/a	WORD	1385910	wordpools/wasnorm_wordpool_576.txt	LTP302	ltpFR2	0	12	SEAL	1262	n/a	n/a	0	0	0
2774.496	n/a	WORD	1387248	wordpools/wasnorm_wordpool_576.txt	LTP302	ltpFR2	0	12	CLOTHES	327	n/a	n/a	0	0	0
2776.956	n/a	WORD	1388478	wordpools/wasnorm_wordpool_576.txt	LTP302	ltpFR2	0	12	PRINCE	1124	n/a	n/a	0	0	0
2779.596	n/a	WORD	1389798	wordpools/wasnorm_wordpool_576.txt	LTP302	ltpFR2	0	12	PALACE	1006	n/a	n/a	0	0	0
2782.188	n/a	WORD	1391094	wordpools/wasnorm_wordpool_576.txt	LTP302	ltpFR2	0	12	MAILBOX	857	n/a	n/a	0	0	0
2784.73	n/a	WORD	1392365	wordpools/wasnorm_wordpool_576.txt	LTP302	ltpFR2	0	12	TRANSPLANT	1496	n/a	n/a	0	0	0
2787.522	n/a	WORD	1393761	wordpools/wasnorm_wordpool_576.txt	LTP302	ltpFR2	0	12	MUMMY	932	n/a	n/a	0	0	0
2789.946	n/a	WORD	1394973	wordpools/wasnorm_wordpool_576.txt	LTP302	ltpFR2	0	12	SPHINX	1349	n/a	n/a	0	0	0
2792.388	n/a	WORD	1396194	wordpools/wasnorm_wordpool_576.txt	LTP302	ltpFR2	0	12	HAND	683	n/a	n/a	0	0	0
2794.962	n/a	WORD	1397481	wordpools/wasnorm_wordpool_576.txt	LTP302	ltpFR2	0	12	BREAST	171	n/a	n/a	0	0	0
2797.438	n/a	WORD	1398719	wordpools/wasnorm_wordpool_576.txt	LTP302	ltpFR2	0	12	LIVER	833	n/a	n/a	0	0	0
2800.112	n/a	WORD	1400056	wordpools/wasnorm_wordpool_576.txt	LTP302	ltpFR2	0	12	COD	340	n/a	n/a	0	0	0
2801.726	n/a	START	1400863	n/a	LTP302	ltpFR2	0	n/a	n/a	n/a	16	n/a	n/a	n/a	n/a
2802.652	n/a	DISTRACTOR	1401326	n/a	LTP302	ltpFR2	0	12	n/a	n/a	n/a	n/a	0	0	0
2802.656	n/a	PROB	1401328	n/a	LTP302	ltpFR2	0	n/a	n/a	n/a	16	13	4	6	3
2805.114	n/a	PROB	1402557	n/a	LTP302	ltpFR2	0	n/a	n/a	n/a	16	19	9	3	7
2807.656	n/a	PROB	1403828	n/a	LTP302	ltpFR2	0	n/a	n/a	n/a	16	21	9	9	3
2810.394	n/a	PROB	1405197	n/a	LTP302	ltpFR2	0	n/a	n/a	n/a	16	9	1	1	7
2812.22	n/a	PROB	1406110	n/a	LTP302	ltpFR2	0	n/a	n/a	n/a	16	10	4	6	6
2814.182	n/a	PROB	1407091	n/a	LTP302	ltpFR2	0	n/a	n/a	n/a	16	16	9	5	2
2822.638	n/a	PROB	1411319	n/a	LTP302	ltpFR2	0	n/a	n/a	n/a	16	12	4	6	2
2824.272	n/a	STOP	1412136	n/a	LTP302	ltpFR2	0	n/a	n/a	n/a	16	n/a	n/a	n/a	n/a
2827.458	n/a	REC_START	1413729	n/a	LTP302	ltpFR2	0	12	n/a	n/a	n/a	n/a	0	0	0
2832.236	n/a	REC_WORD	1416118	wordpools/wasnorm_wordpool_576.txt	LTP302	ltpFR2	0	12	GYMNAST	675	n/a	n/a	0	0	0
2834.608	n/a	REC_WORD	1417304	wordpools/wasnorm_wordpool_576.txt	LTP302	ltpFR2	0	12	SWIMMER	1420	n/a	n/a	0	0	0
2839.5	n/a	REC_WORD	1419750	wordpools/wasnorm_wordpool_576.txt	LTP302	ltpFR2	0	12	TRANSPLANT	1496	n/a	n/a	0	0	0
2840.496	n/a	REC_WORD_VV	1420248	wordpools/wasnorm_wordpool_576.txt	LTP302	ltpFR2	0	12	<>	-1	n/a	n/a	0	0	0
2846.442	n/a	REC_WORD	1423221	wordpools/wasnorm_wordpool_576.txt	LTP302	ltpFR2	0	12	MUMMY	932	n/a	n/a	0	0	0
2849.082	n/a	REC_WORD	1424541	wordpools/wasnorm_wordpool_576.txt	LTP302	ltpFR2	0	12	SPHINX	1349	n/a	n/a	0	0	0
2852.254	n/a	REC_WORD	1426127	wordpools/wasnorm_wordpool_576.txt	LTP302	ltpFR2	0	12	HAND	683	n/a	n/a	0	0	0
2854.986	n/a	REC_WORD	1427493	wordpools/wasnorm_wordpool_576.txt	LTP302	ltpFR2	0	12	BREAST	171	n/a	n/a	0	0	0
2860.202	n/a	REC_WORD	1430101	wordpools/wasnorm_wordpool_576.txt	LTP302	ltpFR2	0	12	FRUIT	610	n/a	n/a	0	0	0
2878.702	n/a	REC_WORD	1439351	wordpools/wasnorm_wordpool_576.txt	LTP302	ltpFR2	0	12	BEAST	108	n/a	n/a	0	0	0
2881.774	n/a	REC_WORD	1440887	wordpools/wasnorm_wordpool_576.txt	LTP302	ltpFR2	0	12	PRINCE	1124	n/a	n/a	0	0	0
2917.51	n/a	DISTRACTOR	1458755	n/a	LTP302	ltpFR2	0	13	n/a	n/a	n/a	n/a	0	0	0
2917.51	n/a	START	1458755	n/a	LTP302	ltpFR2	0	n/a	n/a	n/a	17	n/a	n/a	n/a	n/a
2917.528	n/a	PROB	1458764	n/a	LTP302	ltpFR2	0	n/a	n/a	n/a	17	18	1	9	8
2920.65	n/a	PROB	1460325	n/a	LTP302	ltpFR2	0	n/a	n/a	n/a	17	20	6	6	8
2923.622	n/a	PROB	1461811	n/a	LTP302	ltpFR2	0	n/a	n/a	n/a	17	9	5	3	1
2926.962	n/a	PROB	1463481	n/a	LTP302	ltpFR2	0	n/a	n/a	n/a	17	22	6	9	7
2931.034	n/a	PROB	1465517	n/a	LTP302	ltpFR2	0	n/a	n/a	n/a	17	12	3	2	7
2932.56	n/a	PROB	1466280	n/a	LTP302	ltpFR2	0	n/a	n/a	n/a	17	14	7	2	5
2935.004	n/a	PROB	1467502	n/a	LTP302	ltpFR2	0	n/a	n/a	n/a	17	22	9	6	7
2941.412	n/a	STOP	1470706	n/a	LTP302	ltpFR2	0	n/a	n/a	n/a	17	n/a	n/a	n/a	n/a
2942.49	n/a	WORD	1471245	wordpools/wasnorm_wordpool_576.txt	LTP302	ltpFR2	0	13	THREAD	1460	n/a	n/a	0	0	0
2945.082	n/a	WORD	1472541	wordpools/wasnorm_wordpool_576.txt	LTP302	ltpFR2	0	13	OUTLAW	989	n/a	n/a	0	0	0
2947.512	n/a	WORD	1473756	wordpools/wasnorm_wordpool_576.txt	LTP302	ltpFR2	0	13	SADDLE	1221	n/a	n/a	0	0	0
2950.25	n/a	WORD	1475125	wordpools/wasnorm_wordpool_576.txt	LTP302	ltpFR2	0	13	SPOOL	1356	n/a	n/a	0	0	0
2952.878	n/a	WORD	1476439	wordpools/wasnorm_wordpool_576.txt	LTP302	ltpFR2	0	13	ACTRESS	6	n/a	n/a	0	0	0
2955.58	n/a	WORD	1477790	wordpools/wasnorm_wordpool_576.txt	LTP302	ltpFR2	0	13	WHISKERS	1605	n/a	n/a	0	0	0
2957.99	n/a	WORD	1478995	wordpools/wasnorm_wordpool_576.txt	LTP302	ltpFR2	0	13	MISTER	901	n/a	n/a	0	0	0
2960.502	n/a	WORD	1480251	wordpools/wasnorm_wordpool_576.txt	LTP302	ltpFR2	0	13	SCOTCH	1251	n/a	n/a	0	0	0
2963.108	n/a	WORD	1481554	wordpools/wasnorm_wordpool_576.txt	LTP302	ltpFR2	0	13	HERO	706	n/a	n/a	0	0	0
2965.882	n/a	WORD	1482941	wordpools/wasnorm_wordpool_576.txt	LTP302	ltpFR2	0	13	BIKE	125	n/a	n/a	0	0	0
2968.572	n/a	WORD	1484286	wordpools/wasnorm_wordpool_576.txt	LTP302	ltpFR2	0	13	MISSILE	900	n/a	n/a	0	0	0
2971.154	n/a	WORD	1485577	wordpools/wasnorm_wordpool_576.txt	LTP302	ltpFR2	0	13	QUEEN	1149	n/a	n/a	0	0	0
2973.69	n/a	WORD	1486845	wordpools/wasnorm_wordpool_576.txt	LTP302	ltpFR2	0	13	SILK	1307	n/a	n/a	0	0	0
2976.464	n/a	WORD	1488232	wordpools/wasnorm_wordpool_576.txt	LTP302	ltpFR2	0	13	WIFE	1609	n/a	n/a	0	0	0
2979.088	n/a	WORD	1489544	wordpools/wasnorm_wordpool_576.txt	LTP302	ltpFR2	0	13	SPOUSE	1358	n/a	n/a	0	0	0
2981.85	n/a	WORD	1490925	wordpools/wasnorm_wordpool_576.txt	LTP302	ltpFR2	0	13	TUNNEL	1519	n/a	n/a	0	0	0
2984.554	n/a	WORD	1492277	wordpools/wasnorm_wordpool_576.txt	LTP302	ltpFR2	0	13	BOYFRIEND	162	n/a	n/a	0	0	0
2987.148	n/a	WORD	1493574	wordpools/wasnorm_wordpool_576.txt	LTP302	ltpFR2	0	13	CHURCH	307	n/a	n/a	0	0	0
2989.938	n/a	WORD	1494969	wordpools/wasnorm_wordpool_576.txt	LTP302	ltpFR2	0	13	PADDING	999	n/a	n/a	0	0	0
2992.446	n/a	WORD	1496223	wordpools/wasnorm_wordpool_576.txt	LTP302	ltpFR2	0	13	SPACE	1345	n/a	n/a	0	0	0
2994.988	n/a	WORD	1497494	wordpools/wasnorm_wordpool_576.txt	LTP302	ltpFR2	0	13	ACTOR	5	n/a	n/a	0	0	0
2997.58	n/a	WORD	1498790	wordpools/wasnorm_wordpool_576.txt	LTP302	ltpFR2	0	13	GHETTO	633	n/a	n/a	0	0	0
3000.22	n/a	WORD	1500110	wordpools/wasnorm_wordpool_576.txt	LTP302	ltpFR2	0	13	TROMBONE	1508	n/a	n/a	0	0	0
3002.88	n/a	WORD	1501440	wordpools/wasnorm_wordpool_576.txt	LTP302	ltpFR2	0	13	FLESH	579	n/a	n/a	0	0	0
3004.492	n/a	START	1502246	n/a	LTP302	ltpFR2	0	n/a	n/a	n/a	18	n/a	n/a	n/a	n/a
3005.292	n/a	DISTRACTOR	1502646	n/a	LTP302	ltpFR2	0	13	n/a	n/a	n/a	n/a	0	0	0
3005.304	n/a	PROB	1502652	n/a	LTP302	ltpFR2	0	n/a	n/a	n/a	18	14	8	5	1
3008.048	n/a	PROB	1504024	n/a	LTP302	ltpFR2	0	n/a	n/a	n/a	18	16	8	1	7
3010.124	n/a	PROB	1505062	n/a	LTP302	ltpFR2	0	n/a	n/a	n/a	18	12	3	8	1
3015.906	n/a	PROB	1507953	n/a	LTP302	ltpFR2	0	n/a	n/a	n/a	18	13	5	1	7
3019.078	n/a	PROB	1509539	n/a	LTP302	ltpFR2	0	n/a	n/a	n/a	18	20	8	8	4
3021.736	n/a	PROB	1510868	n/a	LTP302	ltpFR2	0	n/a	n/a	n/a	18	22	7	9	6
3026.586	n/a	PROB	1513293	n/a	LTP302	ltpFR2	0	n/a	n/a	n/a	18	14	4	3	7
3028.246	n/a	STOP	1514123	n/a	LTP302	ltpFR2	0	n/a	n/a	n/a	18	n/a	n/a	n/a	n/a
3030.342	n/a	REC_START	1515171	n/a	LTP302	ltpFR2	0	13	n/a	n/a	n/a	n/a	0	0	0
3033.06	n/a	REC_WORD	1516530	wordpools/wasnorm_wordpool_576.txt	LTP302	ltpFR2	0	13	FLESH	579	n/a	n/a	0	0	0
3037.188	n/a	REC_WORD	1518594	wordpools/wasnorm_wordpool_576.txt	LTP302	ltpFR2	0	13	SPOUSE	1358	n/a	n/a	0	0	0
3040.282	n/a	REC_WORD	1520141	wordpools/wasnorm_wordpool_576.txt	LTP302	ltpFR2	0	13	BOYFRIEND	162	n/a	n/a	0	0	0
3044.128	n/a	REC_WORD	1522064	wordpools/wasnorm_wordpool_576.txt	LTP302	ltpFR2	0	13	QUEEN	1149	n/a	n/a	0	0	0
3047.13	n/a	REC_WORD	1523565	wordpools/wasnorm_wordpool_576.txt	LTP302	ltpFR2	0	13	WIFE	1609	n/a	n/a	0	0	0
3050.174	n/a	REC_WORD	1525087	wordpools/wasnorm_wordpool_576.txt	LTP302	ltpFR2	0	13	TROMBONE	1508	n/a	n/a	0	0	0
3053.28	n/a	REC_WORD	1526640	wordpools/wasnorm_wordpool_576.txt	LTP302	ltpFR2	0	13	ACTOR	5	n/a	n/a	0	0	0
3056.09	n/a	REC_WORD	1528045	wordpools/wasnorm_wordpool_576.txt	LTP302	ltpFR2	0	13	GHETTO	633	n/a	n/a	0	0	0
3120.398	n/a	DISTRACTOR	1560199	n/a	LTP302	ltpFR2	0	14	n/a	n/a	n/a	n/a	0	0	0
3120.398	n/a	START	1560199	n/a	LTP302	ltpFR2	0	n/a	n/a	n/a	19	n/a	n/a	n/a	n/a
3120.412	n/a	PROB	1560206	n/a	LTP302	ltpFR2	0	n/a	n/a	n/a	19	11	3	7	1
3122.622	n/a	PROB	1561311	n/a	LTP302	ltpFR2	0	n/a	n/a	n/a	19	8	3	3	2
3124.748	n/a	PROB	1562374	n/a	LTP302	ltpFR2	0	n/a	n/a	n/a	19	20	4	7	9
3128.02	n/a	PROB	1564010	n/a	LTP302	ltpFR2	0	n/a	n/a	n/a	19	23	9	6	8
3135.81	n/a	PROB	1567905	n/a	LTP302	ltpFR2	0	n/a	n/a	n/a	19	21	6	9	6
3138.902	n/a	PROB	1569451	n/a	LTP302	ltpFR2	0	n/a	n/a	n/a	19	6	3	2	1
3141.178	n/a	PROB	1570589	n/a	LTP302	ltpFR2	0	n/a	n/a	n/a	19	19	4	7	8
3144.036	n/a	STOP	1572018	n/a	LTP302	ltpFR2	0	n/a	n/a	n/a	19	n/a	n/a	n/a	n/a
3145.224	n/a	WORD	1572612	wordpools/wasnorm_wordpool_576.txt	LTP302	ltpFR2	0	14	MILK	895	n/a	n/a	0	0	0
3147.906	n/a	WORD	1573953	wordpools/wasnorm_wordpool_576.txt	LTP302	ltpFR2	0	14	APPLE	33	n/a	n/a	0	0	0
3150.34	n/a	WORD	1575170	wordpools/wasnorm_wordpool_576.txt	LTP302	ltpFR2	0	14	COOKBOOK	373	n/a	n/a	0	0	0
3153.014	n/a	WORD	1576507	wordpools/wasnorm_wordpool_576.txt	LTP302	ltpFR2	0	14	CATTLE	261	n/a	n/a	0	0	0
3155.524	n/a	WORD	1577762	wordpools/wasnorm_wordpool_576.txt	LTP302	ltpFR2	0	14	ROCKET	1202	n/a	n/a	0	0	0
3158.106	n/a	WORD	1579053	wordpools/wasnorm_wordpool_576.txt	LTP302	ltpFR2	0	14	GANGSTER	620	n/a	n/a	0	0	0
3160.778	n/a	WORD	1580389	wordpools/wasnorm_wordpool_576.txt	LTP302	ltpFR2	0	14	BUTCHER	203	n/a	n/a	0	0	0
3163.316	n/a	WORD	1581658	wordpools/wasnorm_wordpool_576.txt	LTP302	ltpFR2	0	14	BANQUET	86	n/a	n/a	0	0	0
3166.03	n/a	WORD	1583015	wordpools/wasnorm_wordpool_576.txt	LTP302	ltpFR2	0	14	PIANO	1057	n/a	n/a	0	0	0
3168.498	n/a	WORD	1584249	wordpools/wasnorm_wordpool_576.txt	LTP302	ltpFR2	0	14	DUST	508	n/a	n/a	0	0	0
3171.04	n/a	WORD	1585520	wordpools/wasnorm_wordpool_576.txt	LTP302	ltpFR2	0	14	WRENCH	1625	n/a	n/a	0	0	0
3173.488	n/a	WORD	1586744	wordpools/wasnorm_wordpool_576.txt	LTP302	ltpFR2	0	14	WRIST	1626	n/a	n/a	0	0	0
3175.898	n/a	WORD	1587949	wordpools/wasnorm_wordpool_576.txt	LTP302	ltpFR2	0	14	FOOT	590	n/a	n/a	0	0	0
3178.368	n/a	WORD	1589184	wordpools/wasnorm_wordpool_576.txt	LTP302	ltpFR2	0	14	AIRPLANE	12	n/a	n/a	0	0	0
3180.992	n/a	WORD	1590496	wordpools/wasnorm_wordpool_576.txt	LTP302	ltpFR2	0	14	VALLEY	1545	n/a	n/a	0	0	0
3183.548	n/a	WORD	1591774	wordpools/wasnorm_wordpool_576.txt	LTP302	ltpFR2	0	14	BABY	64	n/a	n/a	0	0	0
3186.192	n/a	WORD	1593096	wordpools/wasnorm_wordpool_576.txt	LTP302	ltpFR2	0	14	PLASTER	1085	n/a	n/a	0	0	0
3188.64	n/a	WORD	1594320	wordpools/wasnorm_wordpool_576.txt	LTP302	ltpFR2	0	14	YACHT	1629	n/a	n/a	0	0	0
3191.342	n/a	WORD	1595671	wordpools/wasnorm_wordpool_576.txt	LTP302	ltpFR2	0	14	BANJO	82	n/a	n/a	0	0	0
3193.922	n/a	WORD	1596961	wordpools/wasnorm_wordpool_576.txt	LTP302	ltpFR2	0	14	PACKAGE	997	n/a	n/a	0	0	0
3196.524	n/a	WORD	1598262	wordpools/wasnorm_wordpool_576.txt	LTP302	ltpFR2	0	14	BOX	159	n/a	n/a	0	0	0
3199.332	n/a	WORD	1599666	wordpools/wasnorm_wordpool_576.txt	LTP302	ltpFR2	0	14	JOURNAL	760	n/a	n/a	0	0	0
3202.08	n/a	WORD	1601040	wordpools/wasnorm_wordpool_576.txt	LTP302	ltpFR2	0	14	SCRIBBLE	1256	n/a	n/a	0	0	0
3204.732	n/a	WORD	1602366	wordpools/wasnorm_wordpool_576.txt	LTP302	ltpFR2	0	14	SERVANT	1271	n/a	n/a	0	0	0
3206.33	n/a	START	1603165	n/a	LTP302	ltpFR2	0	n/a	n/a	n/a	20	n/a	n/a	n/a	n/a
3207.272	n/a	DISTRACTOR	1603636	n/a	LTP302	ltpFR2	0	14	n/a	n/a	n/a	n/a	0	0	0
3207.28	n/a	PROB	1603640	n/a	LTP302	ltpFR2	0	n/a	n/a	n/a	20	15	9	1	5
3210.202	n/a	PROB	1605101	n/a	LTP302	ltpFR2	0	n/a	n/a	n/a	20	16	8	2	6
3212.712	n/a	PROB	1606356	n/a	LTP302	ltpFR2	0	n/a	n/a	n/a	20	19	6	6	7
3214.688	n/a	PROB	1607344	n/a	LTP302	ltpFR2	0	n/a	n/a	n/a	20	13	8	1	4
3217.092	n/a	PROB	1608546	n/a	LTP302	ltpFR2	0	n/a	n/a	n/a	20	17	8	5	4
3219.982	n/a	PROB	1609991	n/a	LTP302	ltpFR2	0	n/a	n/a	n/a	20	16	5	8	3
3222.424	n/a	PROB	1611212	n/a	LTP302	ltpFR2	0	n/a	n/a	n/a	20	16	6	7	3
3224.4	n/a	PROB	1612200	n/a	LTP302	ltpFR2	0	n/a	n/a	n/a	20	17	7	1	9
3226.132	n/a	PROB	1613066	n/a	LTP302	ltpFR2	0	n/a	n/a	n/a	20	15	3	3	9
3229.02	n/a	STOP	1614510	n/a	LTP302	ltpFR2	0	n/a	n/a	n/a	20	n/a	n/a	n/a	n/a
3232.18	n/a	REC_START	1616090	n/a	LTP302	ltpFR2	0	14	n/a	n/a	n/a	n/a	0	0	0
3236.22	n/a	REC_WORD	1618110	wordpools/wasnorm_wordpool_576.txt	LTP302	ltpFR2	0	14	SCRIBBLE	1256	n/a	n/a	0	0	0
3238.618	n/a	REC_WORD	1619309	wordpools/wasnorm_wordpool_576.txt	LTP302	ltpFR2	0	14	JOURNAL	760	n/a	n/a	0	0	0
3241.102	n/a	REC_WORD	1620551	wordpools/wasnorm_wordpool_576.txt	LTP302	ltpFR2	0	14	MILK	895	n/a	n/a	0	0	0
3243.842	n/a	REC_WORD	1621921	wordpools/wasnorm_wordpool_576.txt	LTP302	ltpFR2	0	14	APPLE	33	n/a	n/a	0	0	0
3255.242	n/a	REC_WORD	1627621	wordpools/wasnorm_wordpool_576.txt	LTP302	ltpFR2	0	14	WRIST	1626	n/a	n/a	0	0	0
3322.256	n/a	DISTRACTOR	1661128	n/a	LTP302	ltpFR2	0	15	n/a	n/a	n/a	n/a	0	0	0
3322.256	n/a	START	1661128	n/a	LTP302	ltpFR2	0	n/a	n/a	n/a	21	n/a	n/a	n/a	n/a
3322.268	n/a	PROB	1661134	n/a	LTP302	ltpFR2	0	n/a	n/a	n/a	21	12	5	6	1
3325.072	n/a	PROB	1662536	n/a	LTP302	ltpFR2	0	n/a	n/a	n/a	21	20	7	9	4
3327.83	n/a	PROB	1663915	n/a	LTP302	ltpFR2	0	n/a	n/a	n/a	21	18	3	8	7
3330.108	n/a	PROB	1665054	n/a	LTP302	ltpFR2	0	n/a	n/a	n/a	21	8	2	4	2
3335.094	n/a	PROB	1667547	n/a	LTP302	ltpFR2	0	n/a	n/a	n/a	21	12	1	9	2
3336.654	n/a	PROB	1668327	n/a	LTP302	ltpFR2	0	n/a	n/a	n/a	21	11	7	1	3
3338.182	n/a	PROB	1669091	n/a	LTP302	ltpFR2	0	n/a	n/a	n/a	21	19	9	9	1
3340.126	n/a	PROB	1670063	n/a	LTP302	ltpFR2	0	n/a	n/a	n/a	21	8	2	2	4
3342.9	n/a	PROB	1671450	n/a	LTP302	ltpFR2	0	n/a	n/a	n/a	21	9	2	2	5
3344.886	n/a	STOP	1672443	n/a	LTP302	ltpFR2	0	n/a	n/a	n/a	21	n/a	n/a	n/a	n/a
3347.002	n/a	WORD	1673501	wordpools/wasnorm_wordpool_576.txt	LTP302	ltpFR2	0	15	FLUTE	585	n/a	n/a	0	0	0
3349.478	n/a	WORD	1674739	wordpools/wasnorm_wordpool_576.txt	LTP302	ltpFR2	0	15	JUGGLER	763	n/a	n/a	0	0	0
3351.908	n/a	WORD	1675954	wordpools/wasnorm_wordpool_576.txt	LTP302	ltpFR2	0	15	BUBBLE	183	n/a	n/a	0	0	0
3354.43	n/a	WORD	1677215	wordpools/wasnorm_wordpool_576.txt	LTP302	ltpFR2	0	15	CHAMPAGNE	278	n/a	n/a	0	0	0
3357.004	n/a	WORD	1678502	wordpools/wasnorm_wordpool_576.txt	LTP302	ltpFR2	0	15	SALAD	1224	n/a	n/a	0	0	0
3359.696	n/a	WORD	1679848	wordpools/wasnorm_wordpool_576.txt	LTP302	ltpFR2	0	15	BRANCH	168	n/a	n/a	0	0	0
3362.444	n/a	WORD	1681222	wordpools/wasnorm_wordpool_576.txt	LTP302	ltpFR2	0	15	DRIVER	499	n/a	n/a	0	0	0
3365.152	n/a	WORD	1682576	wordpools/wasnorm_wordpool_576.txt	LTP302	ltpFR2	0	15	HOOD	714	n/a	n/a	0	0	0
3367.69	n/a	WORD	1683845	wordpools/wasnorm_wordpool_576.txt	LTP302	ltpFR2	0	15	WASP	1593	n/a	n/a	0	0	0
3370.194	n/a	WORD	1685097	wordpools/wasnorm_wordpool_576.txt	LTP302	ltpFR2	0	15	DONKEY	484	n/a	n/a	0	0	0
3372.742	n/a	WORD	1686371	wordpools/wasnorm_wordpool_576.txt	LTP302	ltpFR2	0	15	CRAYON	401	n/a	n/a	0	0	0
3375.378	n/a	WORD	1687689	wordpools/wasnorm_wordpool_576.txt	LTP302	ltpFR2	0	15	MARKER	870	n/a	n/a	0	0	0
3377.842	n/a	WORD	1688921	wordpools/wasnorm_wordpool_576.txt	LTP302	ltpFR2	0	15	PATROL	1027	n/a	n/a	0	0	0
3380.602	n/a	WORD	1690301	wordpools/wasnorm_wordpool_576.txt	LTP302	ltpFR2	0	15	MARS	873	n/a	n/a	0	0	0
3383.134	n/a	WORD	1691567	wordpools/wasnorm_wordpool_576.txt	LTP302	ltpFR2	0	15	DASHBOARD	441	n/a	n/a	0	0	0
3385.568	n/a	WORD	1692784	wordpools/wasnorm_wordpool_576.txt	LTP302	ltpFR2	0	15	TOASTER	1472	n/a	n/a	0	0	0
3388.31	n/a	WORD	1694155	wordpools/wasnorm_wordpool_576.txt	LTP302	ltpFR2	0	15	DRESSER	496	n/a	n/a	0	0	0
3391.084	n/a	WORD	1695542	wordpools/wasnorm_wordpool_576.txt	LTP302	ltpFR2	0	15	PEDAL	1037	n/a	n/a	0	0	0
3393.674	n/a	WORD	1696837	wordpools/wasnorm_wordpool_576.txt	LTP302	ltpFR2	0	15	PISTON	1076	n/a	n/a	0	0	0
3396.4	n/a	WORD	1698200	wordpools/wasnorm_wordpool_576.txt	LTP302	ltpFR2	0	15	TOURIST	1488	n/a	n/a	0	0	0
3398.992	n/a	WORD	1699496	wordpools/wasnorm_wordpool_576.txt	LTP302	ltpFR2	0	15	WOMAN	1620	n/a	n/a	0	0	0
3401.534	n/a	WORD	1700767	wordpools/wasnorm_wordpool_576.txt	LTP302	ltpFR2	0	15	MOTOR	922	n/a	n/a	0	0	0
3404.144	n/a	WORD	1702072	wordpools/wasnorm_wordpool_576.txt	LTP302	ltpFR2	0	15	LODGE	839	n/a	n/a	0	0	0
3406.658	n/a	WORD	1703329	wordpools/wasnorm_wordpool_576.txt	LTP302	ltpFR2	0	15	CABIN	211	n/a	n/a	0	0	0
3408.264	n/a	START	1704132	n/a	LTP302	ltpFR2	0	n/a	n/a	n/a	22	n/a	n/a	n/a	n/a
3409.232	n/a	DISTRACTOR	1704616	n/a	LTP302	ltpFR2	0	15	n/a	n/a	n/a	n/a	0	0	0
3409.244	n/a	PROB	1704622	n/a	LTP302	ltpFR2	0	n/a	n/a	n/a	22	15	6	6	3
3411.858	n/a	PROB	1705929	n/a	LTP302	ltpFR2	0	n/a	n/a	n/a	22	12	6	1	5
3413.818	n/a	PROB	1706909	n/a	LTP302	ltpFR2	0	n/a	n/a	n/a	22	18	8	3	7
3416.028	n/a	PROB	1708014	n/a	LTP302	ltpFR2	0	n/a	n/a	n/a	22	19	6	4	9
3418.354	n/a	PROB	1709177	n/a	LTP302	ltpFR2	0	n/a	n/a	n/a	22	17	6	9	2
3422.008	n/a	PROB	1711004	n/a	LTP302	ltpFR2	0	n/a	n/a	n/a	22	15	6	3	6
3424.266	n/a	PROB	1712133	n/a	LTP302	ltpFR2	0	n/a	n/a	n/a	22	14	3	7	4
3425.862	n/a	PROB	1712931	n/a	LTP302	ltpFR2	0	n/a	n/a	n/a	22	21	9	6	6
3428.618	n/a	PROB	1714309	n/a	LTP302	ltpFR2	0	n/a	n/a	n/a	22	14	1	9	4
3430.214	n/a	PROB	1715107	n/a	LTP302	ltpFR2	0	n/a	n/a	n/a	22	9	6	1	2
3432.086	n/a	STOP	1716043	n/a	LTP302	ltpFR2	0	n/a	n/a	n/a	22	n/a	n/a	n/a	n/a
3433.952	n/a	REC_START	1716976	n/a	LTP302	ltpFR2	0	15	n/a	n/a	n/a	n/a	0	0	0
3436.7	n/a	REC_WORD	1718350	wordpools/wasnorm_wordpool_576.txt	LTP302	ltpFR2	0	15	LODGE	839	n/a	n/a	0	0	0
3438.98	n/a	REC_WORD	1719490	wordpools/wasnorm_wordpool_576.txt	LTP302	ltpFR2	0	15	CABIN	211	n/a	n/a	0	0	0
3441.882	n/a	REC_WORD	1720941	wordpools/wasnorm_wordpool_576.txt	LTP302	ltpFR2	0	15	BUBBLE	183	n/a	n/a	0	0	0
3445.596	n/a	REC_WORD	1722798	wordpools/wasnorm_wordpool_576.txt	LTP302	ltpFR2	0	15	WOMAN	1620	n/a	n/a	0	0	0
3448.59	n/a	REC_WORD	1724295	wordpools/wasnorm_wordpool_576.txt	LTP302	ltpFR2	0	15	HOOD	714	n/a	n/a	0	0	0
3451.286	n/a	REC_WORD	1725643	wordpools/wasnorm_wordpool_576.txt	LTP302	ltpFR2	0	15	DRIVER	499	n/a	n/a	0	0	0
3524.056	n/a	WORD	1762028	wordpools/wasnorm_wordpool_576.txt	LTP302	ltpFR2	0	16	HUMAN	726	n/a	n/a	0	0	0
3526.664	n/a	WORD	1763332	wordpools/wasnorm_wordpool_576.txt	LTP302	ltpFR2	0	16	CHAUFFEUR	283	n/a	n/a	0	0	0
3529.306	n/a	WORD	1764653	wordpools/wasnorm_wordpool_576.txt	LTP302	ltpFR2	0	16	HAMPER	682	n/a	n/a	0	0	0
3531.88	n/a	WORD	1765940	wordpools/wasnorm_wordpool_576.txt	LTP302	ltpFR2	0	16	COOK	372	n/a	n/a	0	0	0
3534.34	n/a	WORD	1767170	wordpools/wasnorm_wordpool_576.txt	LTP302	ltpFR2	0	16	LOVER	846	n/a	n/a	0	0	0
3536.914	n/a	WORD	1768457	wordpools/wasnorm_wordpool_576.txt	LTP302	ltpFR2	0	16	FLOWER	584	n/a	n/a	0	0	0
3539.506	n/a	WORD	1769753	wordpools/wasnorm_wordpool_576.txt	LTP302	ltpFR2	0	16	BUREAU	199	n/a	n/a	0	0	0
3542.196	n/a	WORD	1771098	wordpools/wasnorm_wordpool_576.txt	LTP302	ltpFR2	0	16	GAZELLE	628	n/a	n/a	0	0	0
3544.906	n/a	WORD	1772453	wordpools/wasnorm_wordpool_576.txt	LTP302	ltpFR2	0	16	CASKET	255	n/a	n/a	0	0	0
3547.464	n/a	WORD	1773732	wordpools/wasnorm_wordpool_576.txt	LTP302	ltpFR2	0	16	MATTRESS	879	n/a	n/a	0	0	0
3550.19	n/a	WORD	1775095	wordpools/wasnorm_wordpool_576.txt	LTP302	ltpFR2	0	16	PECAN	1036	n/a	n/a	0	0	0
3552.664	n/a	WORD	1776332	wordpools/wasnorm_wordpool_576.txt	LTP302	ltpFR2	0	16	PRINCESS	1125	n/a	n/a	0	0	0
3555.104	n/a	WORD	1777552	wordpools/wasnorm_wordpool_576.txt	LTP302	ltpFR2	0	16	SPIDER	1351	n/a	n/a	0	0	0
3557.682	n/a	WORD	1778841	wordpools/wasnorm_wordpool_576.txt	LTP302	ltpFR2	0	16	BUCKET	184	n/a	n/a	0	0	0
3560.47	n/a	WORD	1780235	wordpools/wasnorm_wordpool_576.txt	LTP302	ltpFR2	0	16	RAFT	1159	n/a	n/a	0	0	0
3563.016	n/a	WORD	1781508	wordpools/wasnorm_wordpool_576.txt	LTP302	ltpFR2	0	16	GIFT	635	n/a	n/a	0	0	0
3565.77	n/a	WORD	1782885	wordpools/wasnorm_wordpool_576.txt	LTP302	ltpFR2	0	16	DIVER	476	n/a	n/a	0	0	0
3568.532	n/a	WORD	1784266	wordpools/wasnorm_wordpool_576.txt	LTP302	ltpFR2	0	16	QUAIL	1147	n/a	n/a	0	0	0
3571.136	n/a	WORD	1785568	wordpools/wasnorm_wordpool_576.txt	LTP302	ltpFR2	0	16	LONDON	843	n/a	n/a	0	0	0
3573.748	n/a	WORD	1786874	wordpools/wasnorm_wordpool_576.txt	LTP302	ltpFR2	0	16	JAPAN	749	n/a	n/a	0	0	0
3576.534	n/a	WORD	1788267	wordpools/wasnorm_wordpool_576.txt	LTP302	ltpFR2	0	16	TERMITE	1451	n/a	n/a	0	0	0
3579.26	n/a	WORD	1789630	wordpools/wasnorm_wordpool_576.txt	LTP302	ltpFR2	0	16	ICING	732	n/a	n/a	0	0	0
3581.9	n/a	WORD	1790950	wordpools/wasnorm_wordpool_576.txt	LTP302	ltpFR2	0	16	SHORTCAKE	1292	n/a	n/a	0	0	0
3584.408	n/a	WORD	1792204	wordpools/wasnorm_wordpool_576.txt	LTP302	ltpFR2	0	16	PAIL	1002	n/a	n/a	0	0	0
3586.01	n/a	START	1793005	n/a	LTP302	ltpFR2	0	n/a	n/a	n/a	23	n/a	n/a	n/a	n/a
3586.812	n/a	DISTRACTOR	1793406	n/a	LTP302	ltpFR2	0	16	n/a	n/a	n/a	n/a	0	0	0
3586.822	n/a	PROB	1793411	n/a	LTP302	ltpFR2	0	n/a	n/a	n/a	23	14	5	3	6
3589.726	n/a	PROB	1794863	n/a	LTP302	ltpFR2	0	n/a	n/a	n/a	23	14	5	4	5
3591.584	n/a	PROB	1795792	n/a	LTP302	ltpFR2	0	n/a	n/a	n/a	23	10	1	5	4
3593.792	n/a	PROB	1796896	n/a	LTP302	ltpFR2	0	n/a	n/a	n/a	23	15	4	8	3
3595.572	n/a	PROB	1797786	n/a	LTP302	ltpFR2	0	n/a	n/a	n/a	23	21	7	6	8
3597.862	n/a	PROB	1798931	n/a	LTP302	ltpFR2	0	n/a	n/a	n/a	23	22	9	6	7
3603.328	n/a	PROB	1801664	n/a	LTP302	ltpFR2	0	n/a	n/a	n/a	23	12	3	4	5
3606.286	n/a	PROB	1803143	n/a	LTP302	ltpFR2	0	n/a	n/a	n/a	23	12	5	1	6
3608.754	n/a	STOP	1804377	n/a	LTP302	ltpFR2	0	n/a	n/a	n/a	23	n/a	n/a	n/a	n/a
3611.718	n/a	REC_START	1805859	n/a	LTP302	ltpFR2	0	16	n/a	n/a	n/a	n/a	0	0	0
3614.006	n/a	REC_WORD	1807003	wordpools/wasnorm_wordpool_576.txt	LTP302	ltpFR2	0	16	QUAIL	1147	n/a	n/a	0	0	0
3616.19	n/a	REC_WORD	1808095	wordpools/wasnorm_wordpool_576.txt	LTP302	ltpFR2	0	16	LONDON	843	n/a	n/a	0	0	0
3618.302	n/a	REC_WORD	1809151	wordpools/wasnorm_wordpool_576.txt	LTP302	ltpFR2	0	16	JAPAN	749	n/a	n/a	0	0	0
3620.96	n/a	REC_WORD	1810480	wordpools/wasnorm_wordpool_576.txt	LTP302	ltpFR2	0	16	MATTRESS	879	n/a	n/a	0	0	0
3623.442	n/a	REC_WORD	1811721	wordpools/wasnorm_wordpool_576.txt	LTP302	ltpFR2	0	16	PAIL	1002	n/a	n/a	0	0	0
3626.348	n/a	REC_WORD	1813174	wordpools/wasnorm_wordpool_576.txt	LTP302	ltpFR2	0	16	PRINCESS	1125	n/a	n/a	0	0	0
3629.36	n/a	REC_WORD	1814680	wordpools/wasnorm_wordpool_576.txt	LTP302	ltpFR2	0	16	FLOWER	584	n/a	n/a	0	0	0
3632.286	n/a	REC_WORD	1816143	wordpools/wasnorm_wordpool_576.txt	LTP302	ltpFR2	0	16	LOVER	846	n/a	n/a	0	0	0
3634.568	n/a	REC_WORD	1817284	wordpools/wasnorm_wordpool_576.txt	LTP302	ltpFR2	0	16	COOK	372	n/a	n/a	0	0	0
3644.9	n/a	REC_WORD	1822450	wordpools/wasnorm_wordpool_576.txt	LTP302	ltpFR2	0	16	CHAUFFEUR	283	n/a	n/a	0	0	0
3652.8	n/a	REC_WORD	1826400	wordpools/wasnorm_wordpool_576.txt	LTP302	ltpFR2	0	16	BUREAU	199	n/a	n/a	0	0	0
3656.638	n/a	REC_WORD	1828319	wordpools/wasnorm_wordpool_576.txt	LTP302	ltpFR2	0	16	DIVER	476	n/a	n/a	0	0	0
3687.936	n/a	REST_REWET	1843968	n/a	LTP302	ltpFR2	0	16	n/a	n/a	n/a	n/a	0	0	0
3866.236	n/a	DISTRACTOR	1933118	n/a	LTP302	ltpFR2	0	17	n/a	n/a	n/a	n/a	0	0	0
3866.236	n/a	START	1933118	n/a	LTP302	ltpFR2	0	n/a	n/a	n/a	24	n/a	n/a	n/a	n/a
3866.25	n/a	PROB	1933125	n/a	LTP302	ltpFR2	0	n/a	n/a	n/a	24	14	2	4	8
3868.776	n/a	PROB	1934388	n/a	LTP302	ltpFR2	0	n/a	n/a	n/a	24	14	4	5	5
3870.42	n/a	PROB	1935210	n/a	LTP302	ltpFR2	0	n/a	n/a	n/a	24	15	6	8	1
3873.642	n/a	PROB	1936821	n/a	LTP302	ltpFR2	0	n/a	n/a	n/a	24	14	6	4	4
3875.57	n/a	PROB	1937785	n/a	LTP302	ltpFR2	0	n/a	n/a	n/a	24	17	6	9	2
3877.598	n/a	PROB	1938799	n/a	LTP302	ltpFR2	0	n/a	n/a	n/a	24	10	7	1	2
3879.34	n/a	PROB	1939670	n/a	LTP302	ltpFR2	0	n/a	n/a	n/a	24	20	4	8	8
3881.402	n/a	PROB	1940701	n/a	LTP302	ltpFR2	0	n/a	n/a	n/a	24	16	3	7	6
3884.46	n/a	PROB	1942230	n/a	LTP302	ltpFR2	0	n/a	n/a	n/a	24	13	8	1	4
3887.98	n/a	PROB	1943990	n/a	LTP302	ltpFR2	0	n/a	n/a	n/a	24	18	8	7	3
3889.762	n/a	STOP	1944881	n/a	LTP302	ltpFR2	0	n/a	n/a	n/a	24	n/a	n/a	n/a	n/a
3890.964	n/a	WORD	1945482	wordpools/wasnorm_wordpool_576.txt	LTP302	ltpFR2	0	17	WHISTLE	1606	n/a	n/a	0	0	0
3893.644	n/a	WORD	1946822	wordpools/wasnorm_wordpool_576.txt	LTP302	ltpFR2	0	17	SALT	1229	n/a	n/a	0	0	0
3896.22	n/a	WORD	1948110	wordpools/wasnorm_wordpool_576.txt	LTP302	ltpFR2	0	17	ELBOW	520	n/a	n/a	0	0	0
3898.712	n/a	WORD	1949356	wordpools/wasnorm_wordpool_576.txt	LTP302	ltpFR2	0	17	GOBLIN	645	n/a	n/a	0	0	0
3901.348	n/a	WORD	1950674	wordpools/wasnorm_wordpool_576.txt	LTP302	ltpFR2	0	17	SHOULDER	1294	n/a	n/a	0	0	0
3903.904	n/a	WORD	1951952	wordpools/wasnorm_wordpool_576.txt	LTP302	ltpFR2	0	17	TWIG	1527	n/a	n/a	0	0	0
3906.452	n/a	WORD	1953226	wordpools/wasnorm_wordpool_576.txt	LTP302	ltpFR2	0	17	FEMALE	559	n/a	n/a	0	0	0
3908.956	n/a	WORD	1954478	wordpools/wasnorm_wordpool_576.txt	LTP302	ltpFR2	0	17	PARTNER	1017	n/a	n/a	0	0	0
3911.58	n/a	WORD	1955790	wordpools/wasnorm_wordpool_576.txt	LTP302	ltpFR2	0	17	CRUTCH	417	n/a	n/a	0	0	0
3914.372	n/a	WORD	1957186	wordpools/wasnorm_wordpool_576.txt	LTP302	ltpFR2	0	17	ARM	38	n/a	n/a	0	0	0
3917.162	n/a	WORD	1958581	wordpools/wasnorm_wordpool_576.txt	LTP302	ltpFR2	0	17	TILE	1468	n/a	n/a	0	0	0
3919.67	n/a	WORD	1959835	wordpools/wasnorm_wordpool_576.txt	LTP302	ltpFR2	0	17	GARLIC	624	n/a	n/a	0	0	0
3922.364	n/a	WORD	1961182	wordpools/wasnorm_wordpool_576.txt	LTP302	ltpFR2	0	17	EGYPT	519	n/a	n/a	0	0	0
3924.772	n/a	WORD	1962386	wordpools/wasnorm_wordpool_576.txt	LTP302	ltpFR2	0	17	ORANGE	980	n/a	n/a	0	0	0
3927.314	n/a	WORD	1963657	wordpools/wasnorm_wordpool_576.txt	LTP302	ltpFR2	0	17	CLAM	315	n/a	n/a	0	0	0
3929.988	n/a	WORD	1964994	wordpools/wasnorm_wordpool_576.txt	LTP302	ltpFR2	0	17	OYSTER	995	n/a	n/a	0	0	0
3932.446	n/a	WORD	1966223	wordpools/wasnorm_wordpool_576.txt	LTP302	ltpFR2	0	17	BATHTUB	100	n/a	n/a	0	0	0
3934.94	n/a	WORD	1967470	wordpools/wasnorm_wordpool_576.txt	LTP302	ltpFR2	0	17	BODY	145	n/a	n/a	0	0	0
3937.648	n/a	WORD	1968824	wordpools/wasnorm_wordpool_576.txt	LTP302	ltpFR2	0	17	PASTRY	1022	n/a	n/a	0	0	0
3940.226	n/a	WORD	1970113	wordpools/wasnorm_wordpool_576.txt	LTP302	ltpFR2	0	17	PERFUME	1049	n/a	n/a	0	0	0
3942.998	n/a	WORD	1971499	wordpools/wasnorm_wordpool_576.txt	LTP302	ltpFR2	0	17	FOREST	593	n/a	n/a	0	0	0
3945.722	n/a	WORD	1972861	wordpools/wasnorm_wordpool_576.txt	LTP302	ltpFR2	0	17	GLOBE	641	n/a	n/a	0	0	0
3948.164	n/a	WORD	1974082	wordpools/wasnorm_wordpool_576.txt	LTP302	ltpFR2	0	17	CREVICE	405	n/a	n/a	0	0	0
3950.772	n/a	WORD	1975386	wordpools/wasnorm_wordpool_576.txt	LTP302	ltpFR2	0	17	SOFTBALL	1343	n/a	n/a	0	0	0
3952.384	n/a	START	1976192	n/a	LTP302	ltpFR2	0	n/a	n/a	n/a	25	n/a	n/a	n/a	n/a
3953.43	n/a	DISTRACTOR	1976715	n/a	LTP302	ltpFR2	0	17	n/a	n/a	n/a	n/a	0	0	0
3953.444	n/a	PROB	1976722	n/a	LTP302	ltpFR2	0	n/a	n/a	n/a	25	20	2	9	9
3956.436	n/a	PROB	1978218	n/a	LTP302	ltpFR2	0	n/a	n/a	n/a	25	17	4	7	6
3959.778	n/a	PROB	1979889	n/a	LTP302	ltpFR2	0	n/a	n/a	n/a	25	13	3	1	9
3961.736	n/a	PROB	1980868	n/a	LTP302	ltpFR2	0	n/a	n/a	n/a	25	20	7	5	8
3963.998	n/a	PROB	1981999	n/a	LTP302	ltpFR2	0	n/a	n/a	n/a	25	21	7	9	5
3967.036	n/a	PROB	1983518	n/a	LTP302	ltpFR2	0	n/a	n/a	n/a	25	17	1	8	8
3969.596	n/a	PROB	1984798	n/a	LTP302	ltpFR2	0	n/a	n/a	n/a	25	10	2	3	5
3971.888	n/a	PROB	1985944	n/a	LTP302	ltpFR2	0	n/a	n/a	n/a	25	14	7	3	4
3976.286	n/a	STOP	1988143	n/a	LTP302	ltpFR2	0	n/a	n/a	n/a	25	n/a	n/a	n/a	n/a
3978.152	n/a	REC_START	1989076	n/a	LTP302	ltpFR2	0	17	n/a	n/a	n/a	n/a	0	0	0
3979.898	n/a	REC_WORD	1989949	wordpools/wasnorm_wordpool_576.txt	LTP302	ltpFR2	0	17	CREVICE	405	n/a	n/a	0	0	0
3981.99	n/a	REC_WORD	1990995	wordpools/wasnorm_wordpool_576.txt	LTP302	ltpFR2	0	17	CLAM	315	n/a	n/a	0	0	0
3984.05	n/a	REC_WORD	1992025	wordpools/wasnorm_wordpool_576.txt	LTP302	ltpFR2	0	17	OYSTER	995	n/a	n/a	0	0	0
3986.18	n/a	REC_WORD	1993090	wordpools/wasnorm_wordpool_576.txt	LTP302	ltpFR2	0	17	FEMALE	559	n/a	n/a	0	0	0
3988.542	n/a	REC_WORD	1994271	wordpools/wasnorm_wordpool_576.txt	LTP302	ltpFR2	0	17	PARTNER	1017	n/a	n/a	0	0	0
3990.736	n/a	REC_WORD	1995368	wordpools/wasnorm_wordpool_576.txt	LTP302	ltpFR2	0	17	BATHTUB	100	n/a	n/a	0	0	0
3993.116	n/a	REC_WORD	1996558	wordpools/wasnorm_wordpool_576.txt	LTP302	ltpFR2	0	17	BODY	145	n/a	n/a	0	0	0
3995.4	n/a	REC_WORD	1997700	wordpools/wasnorm_wordpool_576.txt	LTP302	ltpFR2	0	17	CRUTCH	417	n/a	n/a	0	0	0
3997.588	n/a	REC_WORD	1998794	wordpools/wasnorm_wordpool_576.txt	LTP302	ltpFR2	0	17	ARM	38	n/a	n/a	0	0	0
3999.758	n/a	REC_WORD	1999879	wordpools/wasnorm_wordpool_576.txt	LTP302	ltpFR2	0	17	ELBOW	520	n/a	n/a	0	0	0
4001.758	n/a	REC_WORD	2000879	wordpools/wasnorm_wordpool_576.txt	LTP302	ltpFR2	0	17	SHOULDER	1294	n/a	n/a	0	0	0
4008.622	n/a	REC_WORD	2004311	wordpools/wasnorm_wordpool_576.txt	LTP302	ltpFR2	0	17	TILE	1468	n/a	n/a	0	0	0
4068.22	n/a	WORD	2034110	wordpools/wasnorm_wordpool_576.txt	LTP302	ltpFR2	0	18	ZEBRA	1635	n/a	n/a	0	0	0
4070.73	n/a	WORD	2035365	wordpools/wasnorm_wordpool_576.txt	LTP302	ltpFR2	0	18	TROUT	1511	n/a	n/a	0	0	0
4073.344	n/a	WORD	2036672	wordpools/wasnorm_wordpool_576.txt	LTP302	ltpFR2	0	18	PERCH	1048	n/a	n/a	0	0	0
4076.012	n/a	WORD	2038006	wordpools/wasnorm_wordpool_576.txt	LTP302	ltpFR2	0	18	CONCERT	360	n/a	n/a	0	0	0
4078.612	n/a	WORD	2039306	wordpools/wasnorm_wordpool_576.txt	LTP302	ltpFR2	0	18	VAGRANT	1544	n/a	n/a	0	0	0
4081.23	n/a	WORD	2040615	wordpools/wasnorm_wordpool_576.txt	LTP302	ltpFR2	0	18	HORNET	718	n/a	n/a	0	0	0
4083.638	n/a	WORD	2041819	wordpools/wasnorm_wordpool_576.txt	LTP302	ltpFR2	0	18	STAKE	1368	n/a	n/a	0	0	0
4086.264	n/a	WORD	2043132	wordpools/wasnorm_wordpool_576.txt	LTP302	ltpFR2	0	18	CARRIAGE	248	n/a	n/a	0	0	0
4088.738	n/a	WORD	2044369	wordpools/wasnorm_wordpool_576.txt	LTP302	ltpFR2	0	18	FIREPLACE	570	n/a	n/a	0	0	0
4091.172	n/a	WORD	2045586	wordpools/wasnorm_wordpool_576.txt	LTP302	ltpFR2	0	18	EUROPE	541	n/a	n/a	0	0	0
4093.754	n/a	WORD	2046877	wordpools/wasnorm_wordpool_576.txt	LTP302	ltpFR2	0	18	FRANCE	601	n/a	n/a	0	0	0
4096.538	n/a	WORD	2048269	wordpools/wasnorm_wordpool_576.txt	LTP302	ltpFR2	0	18	BOARD	143	n/a	n/a	0	0	0
4098.996	n/a	WORD	2049498	wordpools/wasnorm_wordpool_576.txt	LTP302	ltpFR2	0	18	DRILL	497	n/a	n/a	0	0	0
4101.728	n/a	WORD	2050864	wordpools/wasnorm_wordpool_576.txt	LTP302	ltpFR2	0	18	LEADER	807	n/a	n/a	0	0	0
4104.196	n/a	WORD	2052098	wordpools/wasnorm_wordpool_576.txt	LTP302	ltpFR2	0	18	SWITCH	1422	n/a	n/a	0	0	0
4106.92	n/a	WORD	2053460	wordpools/wasnorm_wordpool_576.txt	LTP302	ltpFR2	0	18	OINTMENT	974	n/a	n/a	0	0	0
4109.686	n/a	WORD	2054843	wordpools/wasnorm_wordpool_576.txt	LTP302	ltpFR2	0	18	TABLET	1427	n/a	n/a	0	0	0
4112.146	n/a	WORD	2056073	wordpools/wasnorm_wordpool_576.txt	LTP302	ltpFR2	0	18	SUNRISE	1407	n/a	n/a	0	0	0
4114.712	n/a	WORD	2057356	wordpools/wasnorm_wordpool_576.txt	LTP302	ltpFR2	0	18	PUDDING	1139	n/a	n/a	0	0	0
4117.328	n/a	WORD	2058664	wordpools/wasnorm_wordpool_576.txt	LTP302	ltpFR2	0	18	JEANS	752	n/a	n/a	0	0	0
4120.112	n/a	WORD	2060056	wordpools/wasnorm_wordpool_576.txt	LTP302	ltpFR2	0	18	HOUND	724	n/a	n/a	0	0	0
4122.868	n/a	WORD	2061434	wordpools/wasnorm_wordpool_576.txt	LTP302	ltpFR2	0	18	DAUGHTER	442	n/a	n/a	0	0	0
4125.496	n/a	WORD	2062748	wordpools/wasnorm_wordpool_576.txt	LTP302	ltpFR2	0	18	SPOON	1357	n/a	n/a	0	0	0
4128.01	n/a	WORD	2064005	wordpools/wasnorm_wordpool_576.txt	LTP302	ltpFR2	0	18	TRIBE	1505	n/a	n/a	0	0	0
4129.614	n/a	START	2064807	n/a	LTP302	ltpFR2	0	n/a	n/a	n/a	26	n/a	n/a	n/a	n/a
4130.426	n/a	DISTRACTOR	2065213	n/a	LTP302	ltpFR2	0	18	n/a	n/a	n/a	n/a	0	0	0
4130.436	n/a	PROB	2065218	n/a	LTP302	ltpFR2	0	n/a	n/a	n/a	26	12	2	1	9
4133.01	n/a	PROB	2066505	n/a	LTP302	ltpFR2	0	n/a	n/a	n/a	26	16	9	4	3
4135.534	n/a	PROB	2067767	n/a	LTP302	ltpFR2	0	n/a	n/a	n/a	26	21	7	7	7
4137.28	n/a	PROB	2068640	n/a	LTP302	ltpFR2	0	n/a	n/a	n/a	26	11	4	3	4
4142.446	n/a	PROB	2071223	n/a	LTP302	ltpFR2	0	n/a	n/a	n/a	26	5	1	1	3
4143.906	n/a	PROB	2071953	n/a	LTP302	ltpFR2	0	n/a	n/a	n/a	26	15	4	8	3
4145.968	n/a	PROB	2072984	n/a	LTP302	ltpFR2	0	n/a	n/a	n/a	26	19	6	6	7
4148.806	n/a	PROB	2074403	n/a	LTP302	ltpFR2	0	n/a	n/a	n/a	26	22	8	7	7
4152.326	n/a	STOP	2076163	n/a	LTP302	ltpFR2	0	n/a	n/a	n/a	26	n/a	n/a	n/a	n/a
4155.404	n/a	REC_START	2077702	n/a	LTP302	ltpFR2	0	18	n/a	n/a	n/a	n/a	0	0	0
4157.68	n/a	REC_WORD	2078840	wordpools/wasnorm_wordpool_576.txt	LTP302	ltpFR2	0	18	TRIBE	1505	n/a	n/a	0	0	0
4160.632	n/a	REC_WORD	2080316	wordpools/wasnorm_wordpool_576.txt	LTP302	ltpFR2	0	18	DAUGHTER	442	n/a	n/a	0	0	0
4166.426	n/a	REC_WORD	2083213	wordpools/wasnorm_wordpool_576.txt	LTP302	ltpFR2	0	18	ZEBRA	1635	n/a	n/a	0	0	0
4169.33	n/a	REC_WORD	2084665	wordpools/wasnorm_wordpool_576.txt	LTP302	ltpFR2	0	18	TROUT	1511	n/a	n/a	0	0	0
4172.482	n/a	REC_WORD	2086241	wordpools/wasnorm_wordpool_576.txt	LTP302	ltpFR2	0	18	PERCH	1048	n/a	n/a	0	0	0
4177.448	n/a	REC_WORD	2088724	wordpools/wasnorm_wordpool_576.txt	LTP302	ltpFR2	0	18	CARRIAGE	248	n/a	n/a	0	0	0
4181.454	n/a	REC_WORD	2090727	wordpools/wasnorm_wordpool_576.txt	LTP302	ltpFR2	0	18	FIREPLACE	570	n/a	n/a	0	0	0
4182.45	n/a	REC_WORD_VV	2091225	wordpools/wasnorm_wordpool_576.txt	LTP302	ltpFR2	0	18	<>	-1	n/a	n/a	0	0	0
4192.892	n/a	REC_WORD	2096446	wordpools/wasnorm_wordpool_576.txt	LTP302	ltpFR2	0	18	EUROPE	541	n/a	n/a	0	0	0
4195.934	n/a	REC_WORD	2097967	wordpools/wasnorm_wordpool_576.txt	LTP302	ltpFR2	0	18	FRANCE	601	n/a	n/a	0	0	0
4245.492	n/a	DISTRACTOR	2122746	n/a	LTP302	ltpFR2	0	19	n/a	n/a	n/a	n/a	0	0	0
4245.492	n/a	START	2122746	n/a	LTP302	ltpFR2	0	n/a	n/a	n/a	27	n/a	n/a	n/a	n/a
4245.506	n/a	PROB	2122753	n/a	LTP302	ltpFR2	0	n/a	n/a	n/a	27	13	3	9	1
4247.782	n/a	PROB	2123891	n/a	LTP302	ltpFR2	0	n/a	n/a	n/a	27	24	9	7	8
4250.658	n/a	PROB	2125329	n/a	LTP302	ltpFR2	0	n/a	n/a	n/a	27	12	1	9	2
4252.616	n/a	PROB	2126308	n/a	LTP302	ltpFR2	0	n/a	n/a	n/a	27	18	3	9	6
4256.82	n/a	PROB	2128410	n/a	LTP302	ltpFR2	0	n/a	n/a	n/a	27	18	8	6	4
4258.532	n/a	PROB	2129266	n/a	LTP302	ltpFR2	0	n/a	n/a	n/a	27	18	7	8	3
4260.806	n/a	PROB	2130403	n/a	LTP302	ltpFR2	0	n/a	n/a	n/a	27	17	1	7	9
4263.482	n/a	PROB	2131741	n/a	LTP302	ltpFR2	0	n/a	n/a	n/a	27	13	1	4	8
4265.642	n/a	PROB	2132821	n/a	LTP302	ltpFR2	0	n/a	n/a	n/a	27	22	8	7	7
4268.838	n/a	STOP	2134419	n/a	LTP302	ltpFR2	0	n/a	n/a	n/a	27	n/a	n/a	n/a	n/a
4270.36	n/a	WORD	2135180	wordpools/wasnorm_wordpool_576.txt	LTP302	ltpFR2	0	19	HAWK	692	n/a	n/a	0	0	0
4272.918	n/a	WORD	2136459	wordpools/wasnorm_wordpool_576.txt	LTP302	ltpFR2	0	19	JURY	766	n/a	n/a	0	0	0
4275.596	n/a	WORD	2137798	wordpools/wasnorm_wordpool_576.txt	LTP302	ltpFR2	0	19	HIGHWAY	707	n/a	n/a	0	0	0
4278.4	n/a	WORD	2139200	wordpools/wasnorm_wordpool_576.txt	LTP302	ltpFR2	0	19	GARDEN	623	n/a	n/a	0	0	0
4281.208	n/a	WORD	2140604	wordpools/wasnorm_wordpool_576.txt	LTP302	ltpFR2	0	19	MATCH	878	n/a	n/a	0	0	0
4283.832	n/a	WORD	2141916	wordpools/wasnorm_wordpool_576.txt	LTP302	ltpFR2	0	19	MONSTER	912	n/a	n/a	0	0	0
4286.362	n/a	WORD	2143181	wordpools/wasnorm_wordpool_576.txt	LTP302	ltpFR2	0	19	COFFEE	341	n/a	n/a	0	0	0
4289.064	n/a	WORD	2144532	wordpools/wasnorm_wordpool_576.txt	LTP302	ltpFR2	0	19	RIFLE	1192	n/a	n/a	0	0	0
4291.612	n/a	WORD	2145806	wordpools/wasnorm_wordpool_576.txt	LTP302	ltpFR2	0	19	PIZZA	1079	n/a	n/a	0	0	0
4294.064	n/a	WORD	2147032	wordpools/wasnorm_wordpool_576.txt	LTP302	ltpFR2	0	19	TOMBSTONE	1478	n/a	n/a	0	0	0
4296.74	n/a	WORD	2148370	wordpools/wasnorm_wordpool_576.txt	LTP302	ltpFR2	0	19	PICTURE	1061	n/a	n/a	0	0	0
4299.154	n/a	WORD	2149577	wordpools/wasnorm_wordpool_576.txt	LTP302	ltpFR2	0	19	UNCLE	1536	n/a	n/a	0	0	0
4301.86	n/a	WORD	2150930	wordpools/wasnorm_wordpool_576.txt	LTP302	ltpFR2	0	19	PRIMATE	1123	n/a	n/a	0	0	0
4304.554	n/a	WORD	2152277	wordpools/wasnorm_wordpool_576.txt	LTP302	ltpFR2	0	19	POSSUM	1112	n/a	n/a	0	0	0
4307.14	n/a	WORD	2153570	wordpools/wasnorm_wordpool_576.txt	LTP302	ltpFR2	0	19	FLASHLIGHT	575	n/a	n/a	0	0	0
4309.748	n/a	WORD	2154874	wordpools/wasnorm_wordpool_576.txt	LTP302	ltpFR2	0	19	DRINK	498	n/a	n/a	0	0	0
4312.206	n/a	WORD	2156103	wordpools/wasnorm_wordpool_576.txt	LTP302	ltpFR2	0	19	COCKTAIL	338	n/a	n/a	0	0	0
4314.812	n/a	WORD	2157406	wordpools/wasnorm_wordpool_576.txt	LTP302	ltpFR2	0	19	SCULPTURE	1258	n/a	n/a	0	0	0
4317.422	n/a	WORD	2158711	wordpools/wasnorm_wordpool_576.txt	LTP302	ltpFR2	0	19	SLOPE	1328	n/a	n/a	0	0	0
4319.838	n/a	WORD	2159919	wordpools/wasnorm_wordpool_576.txt	LTP302	ltpFR2	0	19	STUDENT	1395	n/a	n/a	0	0	0
4322.306	n/a	WORD	2161153	wordpools/wasnorm_wordpool_576.txt	LTP302	ltpFR2	0	19	CUPBOARD	425	n/a	n/a	0	0	0
4324.848	n/a	WORD	2162424	wordpools/wasnorm_wordpool_576.txt	LTP302	ltpFR2	0	19	SLIME	1327	n/a	n/a	0	0	0
4327.512	n/a	WORD	2163756	wordpools/wasnorm_wordpool_576.txt	LTP302	ltpFR2	0	19	COUSIN	392	n/a	n/a	0	0	0
4330.264	n/a	WORD	2165132	wordpools/wasnorm_wordpool_576.txt	LTP302	ltpFR2	0	19	WORLD	1622	n/a	n/a	0	0	0
4331.866	n/a	START	2165933	n/a	LTP302	ltpFR2	0	n/a	n/a	n/a	28	n/a	n/a	n/a	n/a
4332.9	n/a	DISTRACTOR	2166450	n/a	LTP302	ltpFR2	0	19	n/a	n/a	n/a	n/a	0	0	0
4332.912	n/a	PROB	2166456	n/a	LTP302	ltpFR2	0	n/a	n/a	n/a	28	17	8	5	4
4335.712	n/a	PROB	2167856	n/a	LTP302	ltpFR2	0	n/a	n/a	n/a	28	14	7	5	2
4338.536	n/a	PROB	2169268	n/a	LTP302	ltpFR2	0	n/a	n/a	n/a	28	20	9	2	9
4340.496	n/a	PROB	2170248	n/a	LTP302	ltpFR2	0	n/a	n/a	n/a	28	16	1	8	7
4342.87	n/a	PROB	2171435	n/a	LTP302	ltpFR2	0	n/a	n/a	n/a	28	19	5	7	7
4345.412	n/a	PROB	2172706	n/a	LTP302	ltpFR2	0	n/a	n/a	n/a	28	13	2	3	8
4347.49	n/a	PROB	2173745	n/a	LTP302	ltpFR2	0	n/a	n/a	n/a	28	10	1	7	2
4349.234	n/a	PROB	2174617	n/a	LTP302	ltpFR2	0	n/a	n/a	n/a	28	22	7	7	8
4354.962	n/a	STOP	2177481	n/a	LTP302	ltpFR2	0	n/a	n/a	n/a	28	n/a	n/a	n/a	n/a
4357.592	n/a	REC_START	2178796	n/a	LTP302	ltpFR2	0	19	n/a	n/a	n/a	n/a	0	0	0
4359.504	n/a	REC_WORD	2179752	wordpools/wasnorm_wordpool_576.txt	LTP302	ltpFR2	0	19	UNCLE	1536	n/a	n/a	0	0	0
4361.84	n/a	REC_WORD	2180920	wordpools/wasnorm_wordpool_576.txt	LTP302	ltpFR2	0	19	COUSIN	392	n/a	n/a	0	0	0
4364.586	n/a	REC_WORD	2182293	wordpools/wasnorm_wordpool_576.txt	LTP302	ltpFR2	0	19	SLIME	1327	n/a	n/a	0	0	0
4369.884	n/a	REC_WORD	2184942	wordpools/wasnorm_wordpool_576.txt	LTP302	ltpFR2	0	19	FLASHLIGHT	575	n/a	n/a	0	0	0
4377.022	n/a	REC_WORD	2188511	wordpools/wasnorm_wordpool_576.txt	LTP302	ltpFR2	0	19	GARDEN	623	n/a	n/a	0	0	0
4379.718	n/a	REC_WORD	2189859	wordpools/wasnorm_wordpool_576.txt	LTP302	ltpFR2	0	19	HIGHWAY	707	n/a	n/a	0	0	0
4382.522	n/a	REC_WORD	2191261	wordpools/wasnorm_wordpool_576.txt	LTP302	ltpFR2	0	19	JURY	766	n/a	n/a	0	0	0
4447.678	n/a	DISTRACTOR	2223839	n/a	LTP302	ltpFR2	0	20	n/a	n/a	n/a	n/a	0	0	0
4447.678	n/a	START	2223839	n/a	LTP302	ltpFR2	0	n/a	n/a	n/a	29	n/a	n/a	n/a	n/a
4447.696	n/a	PROB	2223848	n/a	LTP302	ltpFR2	0	n/a	n/a	n/a	29	12	5	1	6
4450.104	n/a	PROB	2225052	n/a	LTP302	ltpFR2	0	n/a	n/a	n/a	29	22	5	9	8
4455.834	n/a	PROB	2227917	n/a	LTP302	ltpFR2	0	n/a	n/a	n/a	29	12	2	3	7
4457.796	n/a	PROB	2228898	n/a	LTP302	ltpFR2	0	n/a	n/a	n/a	29	16	9	6	1
4459.322	n/a	PROB	2229661	n/a	LTP302	ltpFR2	0	n/a	n/a	n/a	29	14	8	2	4
4461.282	n/a	PROB	2230641	n/a	LTP302	ltpFR2	0	n/a	n/a	n/a	29	15	4	6	5
4463.16	n/a	PROB	2231580	n/a	LTP302	ltpFR2	0	n/a	n/a	n/a	29	21	5	9	7
4467.23	n/a	PROB	2233615	n/a	LTP302	ltpFR2	0	n/a	n/a	n/a	29	15	4	8	3
4470.472	n/a	STOP	2235236	n/a	LTP302	ltpFR2	0	n/a	n/a	n/a	29	n/a	n/a	n/a	n/a
4472.73	n/a	WORD	2236365	wordpools/wasnorm_wordpool_576.txt	LTP302	ltpFR2	0	20	SCISSORS	1250	n/a	n/a	0	0	0
4475.288	n/a	WORD	2237644	wordpools/wasnorm_wordpool_576.txt	LTP302	ltpFR2	0	20	POSTAGE	1113	n/a	n/a	0	0	0
4477.73	n/a	WORD	2238865	wordpools/wasnorm_wordpool_576.txt	LTP302	ltpFR2	0	20	PEACH	1031	n/a	n/a	0	0	0
4480.204	n/a	WORD	2240102	wordpools/wasnorm_wordpool_576.txt	LTP302	ltpFR2	0	20	SHORTS	1293	n/a	n/a	0	0	0
4482.83	n/a	WORD	2241415	wordpools/wasnorm_wordpool_576.txt	LTP302	ltpFR2	0	20	CANAL	226	n/a	n/a	0	0	0
4485.322	n/a	WORD	2242661	wordpools/wasnorm_wordpool_576.txt	LTP302	ltpFR2	0	20	SERVER	1272	n/a	n/a	0	0	0
4488.096	n/a	WORD	2244048	wordpools/wasnorm_wordpool_576.txt	LTP302	ltpFR2	0	20	APRON	35	n/a	n/a	0	0	0
4490.588	n/a	WORD	2245294	wordpools/wasnorm_wordpool_576.txt	LTP302	ltpFR2	0	20	SUPPER	1411	n/a	n/a	0	0	0
4493.046	n/a	WORD	2246523	wordpools/wasnorm_wordpool_576.txt	LTP302	ltpFR2	0	20	SHELTER	1282	n/a	n/a	0	0	0
4495.772	n/a	WORD	2247886	wordpools/wasnorm_wordpool_576.txt	LTP302	ltpFR2	0	20	VICTIM	1562	n/a	n/a	0	0	0
4498.346	n/a	WORD	2249173	wordpools/wasnorm_wordpool_576.txt	LTP302	ltpFR2	0	20	HANDBAG	684	n/a	n/a	0	0	0
4501.136	n/a	WORD	2250568	wordpools/wasnorm_wordpool_576.txt	LTP302	ltpFR2	0	20	SEAFOOD	1260	n/a	n/a	0	0	0
4503.848	n/a	WORD	2251924	wordpools/wasnorm_wordpool_576.txt	LTP302	ltpFR2	0	20	SHARK	1275	n/a	n/a	0	0	0
4506.386	n/a	WORD	2253193	wordpools/wasnorm_wordpool_576.txt	LTP302	ltpFR2	0	20	CEILING	265	n/a	n/a	0	0	0
4509.11	n/a	WORD	2254555	wordpools/wasnorm_wordpool_576.txt	LTP302	ltpFR2	0	20	FRIEND	606	n/a	n/a	0	0	0
4511.768	n/a	WORD	2255884	wordpools/wasnorm_wordpool_576.txt	LTP302	ltpFR2	0	20	SWAMP	1416	n/a	n/a	0	0	0
4514.496	n/a	WORD	2257248	wordpools/wasnorm_wordpool_576.txt	LTP302	ltpFR2	0	20	SMOG	1330	n/a	n/a	0	0	0
4517.2	n/a	WORD	2258600	wordpools/wasnorm_wordpool_576.txt	LTP302	ltpFR2	0	20	GARBAGE	622	n/a	n/a	0	0	0
4519.826	n/a	WORD	2259913	wordpools/wasnorm_wordpool_576.txt	LTP302	ltpFR2	0	20	MAILMAN	858	n/a	n/a	0	0	0
4522.634	n/a	WORD	2261317	wordpools/wasnorm_wordpool_576.txt	LTP302	ltpFR2	0	20	MOTEL	919	n/a	n/a	0	0	0
4525.14	n/a	WORD	2262570	wordpools/wasnorm_wordpool_576.txt	LTP302	ltpFR2	0	20	EYELASH	546	n/a	n/a	0	0	0
4527.832	n/a	WORD	2263916	wordpools/wasnorm_wordpool_576.txt	LTP302	ltpFR2	0	20	HEADBAND	696	n/a	n/a	0	0	0
4530.474	n/a	WORD	2265237	wordpools/wasnorm_wordpool_576.txt	LTP302	ltpFR2	0	20	CONVICT	371	n/a	n/a	0	0	0
4533.08	n/a	WORD	2266540	wordpools/wasnorm_wordpool_576.txt	LTP302	ltpFR2	0	20	CAPTIVE	240	n/a	n/a	0	0	0
4534.682	n/a	START	2267341	n/a	LTP302	ltpFR2	0	n/a	n/a	n/a	30	n/a	n/a	n/a	n/a
4535.636	n/a	DISTRACTOR	2267818	n/a	LTP302	ltpFR2	0	20	n/a	n/a	n/a	n/a	0	0	0
4535.656	n/a	PROB	2267828	n/a	LTP302	ltpFR2	0	n/a	n/a	n/a	30	6	1	4	1
4537.832	n/a	PROB	2268916	n/a	LTP302	ltpFR2	0	n/a	n/a	n/a	30	17	6	7	4
4540.208	n/a	PROB	2270104	n/a	LTP302	ltpFR2	0	n/a	n/a	n/a	30	16	8	2	6
4542.898	n/a	PROB	2271449	n/a	LTP302	ltpFR2	0	n/a	n/a	n/a	30	13	5	5	3
4546.372	n/a	PROB	2273186	n/a	LTP302	ltpFR2	0	n/a	n/a	n/a	30	15	4	3	8
4548.944	n/a	PROB	2274472	n/a	LTP302	ltpFR2	0	n/a	n/a	n/a	30	16	6	6	4
4551.936	n/a	PROB	2275968	n/a	LTP302	ltpFR2	0	n/a	n/a	n/a	30	22	6	8	8
4554.728	n/a	PROB	2277364	n/a	LTP302	ltpFR2	0	n/a	n/a	n/a	30	12	6	2	4
4557.828	n/a	STOP	2278914	n/a	LTP302	ltpFR2	0	n/a	n/a	n/a	30	n/a	n/a	n/a	n/a
4560.474	n/a	REC_START	2280237	n/a	LTP302	ltpFR2	0	20	n/a	n/a	n/a	n/a	0	0	0
4563.274	n/a	REC_WORD	2281637	wordpools/wasnorm_wordpool_576.txt	LTP302	ltpFR2	0	20	CAPTIVE	240	n/a	n/a	0	0	0
4566.666	n/a	REC_WORD	2283333	wordpools/wasnorm_wordpool_576.txt	LTP302	ltpFR2	0	20	CEILING	265	n/a	n/a	0	0	0
4569.352	n/a	REC_WORD	2284676	wordpools/wasnorm_wordpool_576.txt	LTP302	ltpFR2	0	20	SCISSORS	1250	n/a	n/a	0	0	0
4570.348	n/a	REC_WORD_VV	2285174	wordpools/wasnorm_wordpool_576.txt	LTP302	ltpFR2	0	20	<>	-1	n/a	n/a	0	0	0
4572.504	n/a	REC_WORD	2286252	wordpools/wasnorm_wordpool_576.txt	LTP302	ltpFR2	0	20	APRON	35	n/a	n/a	0	0	0
4574.754	n/a	REC_WORD	2287377	wordpools/wasnorm_wordpool_576.txt	LTP302	ltpFR2	0	20	SHORTS	1293	n/a	n/a	0	0	0
4590.448	n/a	REC_WORD	2295224	wordpools/wasnorm_wordpool_576.txt	LTP302	ltpFR2	0	20	HANDBAG	684	n/a	n/a	0	0	0
4591.444	n/a	REC_WORD_VV	2295722	wordpools/wasnorm_wordpool_576.txt	LTP302	ltpFR2	0	20	<>	-1	n/a	n/a	0	0	0
4593.51	n/a	REC_WORD	2296755	wordpools/wasnorm_wordpool_576.txt	LTP302	ltpFR2	0	20	SEAFOOD	1260	n/a	n/a	0	0	0
4594.506	n/a	REC_WORD_VV	2297253	wordpools/wasnorm_wordpool_576.txt	LTP302	ltpFR2	0	20	<>	-1	n/a	n/a	0	0	0
4596.646	n/a	REC_WORD	2298323	wordpools/wasnorm_wordpool_576.txt	LTP302	ltpFR2	0	20	SHARK	1275	n/a	n/a	0	0	0
4599.002	n/a	REC_WORD	2299501	wordpools/wasnorm_wordpool_576.txt	LTP302	ltpFR2	0	20	SWAMP	1416	n/a	n/a	0	0	0
4601.292	n/a	REC_WORD	2300646	wordpools/wasnorm_wordpool_576.txt	LTP302	ltpFR2	0	20	SMOG	1330	n/a	n/a	0	0	0
4650.542	n/a	WORD	2325271	wordpools/wasnorm_wordpool_576.txt	LTP302	ltpFR2	0	21	BLOUSE	139	n/a	n/a	0	0	0
4653.184	n/a	WORD	2326592	wordpools/wasnorm_wordpool_576.txt	LTP302	ltpFR2	0	21	BELLY	119	n/a	n/a	0	0	0
4655.71	n/a	WORD	2327855	wordpools/wasnorm_wordpool_576.txt	LTP302	ltpFR2	0	21	NOMAD	955	n/a	n/a	0	0	0
4658.156	n/a	WORD	2329078	wordpools/wasnorm_wordpool_576.txt	LTP302	ltpFR2	0	21	DORM	488	n/a	n/a	0	0	0
4660.678	n/a	WORD	2330339	wordpools/wasnorm_wordpool_576.txt	LTP302	ltpFR2	0	21	CATCHER	258	n/a	n/a	0	0	0
4663.322	n/a	WORD	2331661	wordpools/wasnorm_wordpool_576.txt	LTP302	ltpFR2	0	21	UMPIRE	1535	n/a	n/a	0	0	0
4666.126	n/a	WORD	2333063	wordpools/wasnorm_wordpool_576.txt	LTP302	ltpFR2	0	21	LEOPARD	812	n/a	n/a	0	0	0
4668.55	n/a	WORD	2334275	wordpools/wasnorm_wordpool_576.txt	LTP302	ltpFR2	0	21	PASTA	1021	n/a	n/a	0	0	0
4671.244	n/a	WORD	2335622	wordpools/wasnorm_wordpool_576.txt	LTP302	ltpFR2	0	21	COTTAGE	384	n/a	n/a	0	0	0
4673.918	n/a	WORD	2336959	wordpools/wasnorm_wordpool_576.txt	LTP302	ltpFR2	0	21	SCALLOP	1242	n/a	n/a	0	0	0
4676.442	n/a	WORD	2338221	wordpools/wasnorm_wordpool_576.txt	LTP302	ltpFR2	0	21	COUNTRY	388	n/a	n/a	0	0	0
4679.086	n/a	WORD	2339543	wordpools/wasnorm_wordpool_576.txt	LTP302	ltpFR2	0	21	FLASK	576	n/a	n/a	0	0	0
4681.858	n/a	WORD	2340929	wordpools/wasnorm_wordpool_576.txt	LTP302	ltpFR2	0	21	TEMPLE	1448	n/a	n/a	0	0	0
4684.334	n/a	WORD	2342167	wordpools/wasnorm_wordpool_576.txt	LTP302	ltpFR2	0	21	BEAVER	109	n/a	n/a	0	0	0
4686.976	n/a	WORD	2343488	wordpools/wasnorm_wordpool_576.txt	LTP302	ltpFR2	0	21	FOX	598	n/a	n/a	0	0	0
4689.484	n/a	WORD	2344742	wordpools/wasnorm_wordpool_576.txt	LTP302	ltpFR2	0	21	CHIPMUNK	304	n/a	n/a	0	0	0
4692.01	n/a	WORD	2346005	wordpools/wasnorm_wordpool_576.txt	LTP302	ltpFR2	0	21	GUITAR	670	n/a	n/a	0	0	0
4694.502	n/a	WORD	2347251	wordpools/wasnorm_wordpool_576.txt	LTP302	ltpFR2	0	21	CHAPEL	280	n/a	n/a	0	0	0
4697.144	n/a	WORD	2348572	wordpools/wasnorm_wordpool_576.txt	LTP302	ltpFR2	0	21	HOOK	715	n/a	n/a	0	0	0
4699.636	n/a	WORD	2349818	wordpools/wasnorm_wordpool_576.txt	LTP302	ltpFR2	0	21	ATOM	55	n/a	n/a	0	0	0
4702.244	n/a	WORD	2351122	wordpools/wasnorm_wordpool_576.txt	LTP302	ltpFR2	0	21	ROD	1203	n/a	n/a	0	0	0
4704.702	n/a	WORD	2352351	wordpools/wasnorm_wordpool_576.txt	LTP302	ltpFR2	0	21	PERMIT	1051	n/a	n/a	0	0	0
4707.228	n/a	WORD	2353614	wordpools/wasnorm_wordpool_576.txt	LTP302	ltpFR2	0	21	STICKER	1382	n/a	n/a	0	0	0
4709.686	n/a	WORD	2354843	wordpools/wasnorm_wordpool_576.txt	LTP302	ltpFR2	0	21	MARSH	874	n/a	n/a	0	0	0
4711.298	n/a	START	2355649	n/a	LTP302	ltpFR2	0	n/a	n/a	n/a	31	n/a	n/a	n/a	n/a
4712.276	n/a	DISTRACTOR	2356138	n/a	LTP302	ltpFR2	0	21	n/a	n/a	n/a	n/a	0	0	0
4712.294	n/a	PROB	2356147	n/a	LTP302	ltpFR2	0	n/a	n/a	n/a	31	15	8	4	3
4715.666	n/a	PROB	2357833	n/a	LTP302	ltpFR2	0	n/a	n/a	n/a	31	16	6	3	7
4717.544	n/a	PROB	2358772	n/a	LTP302	ltpFR2	0	n/a	n/a	n/a	31	22	6	8	8
4720.534	n/a	PROB	2360267	n/a	LTP302	ltpFR2	0	n/a	n/a	n/a	31	18	8	9	1
4722.476	n/a	PROB	2361238	n/a	LTP302	ltpFR2	0	n/a	n/a	n/a	31	19	7	6	6
4725.534	n/a	PROB	2362767	n/a	LTP302	ltpFR2	0	n/a	n/a	n/a	31	18	9	5	4
4727.444	n/a	PROB	2363722	n/a	LTP302	ltpFR2	0	n/a	n/a	n/a	31	19	4	8	7
4730.7	n/a	PROB	2365350	n/a	LTP302	ltpFR2	0	n/a	n/a	n/a	31	4	1	2	2
