mstime	trial_type	stim_file	subject	experiment	session	trial	item_name	item_num	list	answer	test_x	test_y	test_z
0	SESS_START	n/a	LTP389	ltpFR2	17	n/a	n/a	n/a	n/a	n/a	0	0	0
11286	START	n/a	LTP389	ltpFR2	17	n/a	n/a	n/a	-1	n/a	n/a	n/a	n/a
11317	PROB	n/a	LTP389	ltpFR2	17	n/a	n/a	n/a	-1	21	9	3	9
13950	PROB	n/a	LTP389	ltpFR2	17	n/a	n/a	n/a	-1	20	4	8	8
15649	PROB	n/a	LTP389	ltpFR2	17	n/a	n/a	n/a	-1	12	4	1	7
18000	PROB	n/a	LTP389	ltpFR2	17	n/a	n/a	n/a	-1	17	7	6	4
19616	PROB	n/a	LTP389	ltpFR2	17	n/a	n/a	n/a	-1	11	1	4	6
21100	PROB	n/a	LTP389	ltpFR2	17	n/a	n/a	n/a	-1	16	6	7	3
22564	STOP	n/a	LTP389	ltpFR2	17	n/a	n/a	n/a	-1	n/a	n/a	n/a	n/a
53482	DISTRACTOR	n/a	LTP389	ltpFR2	17	1	n/a	n/a	n/a	n/a	0	0	0
53482	START	n/a	LTP389	ltpFR2	17	n/a	n/a	n/a	1	n/a	n/a	n/a	n/a
53498	PROB	n/a	LTP389	ltpFR2	17	n/a	n/a	n/a	1	19	5	8	6
56648	PROB	n/a	LTP389	ltpFR2	17	n/a	n/a	n/a	1	23	8	6	9
58515	PROB	n/a	LTP389	ltpFR2	17	n/a	n/a	n/a	1	13	2	4	7
59966	PROB	n/a	LTP389	ltpFR2	17	n/a	n/a	n/a	1	8	1	4	3
61382	PROB	n/a	LTP389	ltpFR2	17	n/a	n/a	n/a	1	15	2	5	8
63465	PROB	n/a	LTP389	ltpFR2	17	n/a	n/a	n/a	1	11	4	2	5
65016	PROB	n/a	LTP389	ltpFR2	17	n/a	n/a	n/a	1	15	2	8	5
66249	PROB	n/a	LTP389	ltpFR2	17	n/a	n/a	n/a	1	13	8	3	2
67816	PROB	n/a	LTP389	ltpFR2	17	n/a	n/a	n/a	1	12	1	2	9
69166	PROB	n/a	LTP389	ltpFR2	17	n/a	n/a	n/a	1	15	9	4	2
70498	PROB	n/a	LTP389	ltpFR2	17	n/a	n/a	n/a	1	20	8	9	3
72249	PROB	n/a	LTP389	ltpFR2	17	n/a	n/a	n/a	1	15	5	5	5
73431	PROB	n/a	LTP389	ltpFR2	17	n/a	n/a	n/a	1	15	6	6	3
75149	PROB	n/a	LTP389	ltpFR2	17	n/a	n/a	n/a	1	18	1	8	9
76255	STOP	n/a	LTP389	ltpFR2	17	n/a	n/a	n/a	1	n/a	n/a	n/a	n/a
78431	WORD	wordpools/wasnorm_wordpool_576.txt	LTP389	ltpFR2	17	1	FILM	565	n/a	n/a	0	0	0
81149	WORD	wordpools/wasnorm_wordpool_576.txt	LTP389	ltpFR2	17	1	ACTRESS	6	n/a	n/a	0	0	0
83765	WORD	wordpools/wasnorm_wordpool_576.txt	LTP389	ltpFR2	17	1	TORTOISE	1486	n/a	n/a	0	0	0
86249	WORD	wordpools/wasnorm_wordpool_576.txt	LTP389	ltpFR2	17	1	SCISSORS	1250	n/a	n/a	0	0	0
88949	WORD	wordpools/wasnorm_wordpool_576.txt	LTP389	ltpFR2	17	1	TILE	1468	n/a	n/a	0	0	0
91648	WORD	wordpools/wasnorm_wordpool_576.txt	LTP389	ltpFR2	17	1	EAGLE	512	n/a	n/a	0	0	0
94232	WORD	wordpools/wasnorm_wordpool_576.txt	LTP389	ltpFR2	17	1	CRAB	397	n/a	n/a	0	0	0
96849	WORD	wordpools/wasnorm_wordpool_576.txt	LTP389	ltpFR2	17	1	COCKTAIL	338	n/a	n/a	0	0	0
99631	WORD	wordpools/wasnorm_wordpool_576.txt	LTP389	ltpFR2	17	1	ANKLE	24	n/a	n/a	0	0	0
102299	WORD	wordpools/wasnorm_wordpool_576.txt	LTP389	ltpFR2	17	1	LACE	792	n/a	n/a	0	0	0
105049	WORD	wordpools/wasnorm_wordpool_576.txt	LTP389	ltpFR2	17	1	SEAGULL	1261	n/a	n/a	0	0	0
107498	WORD	wordpools/wasnorm_wordpool_576.txt	LTP389	ltpFR2	17	1	FLASK	576	n/a	n/a	0	0	0
109998	WORD	wordpools/wasnorm_wordpool_576.txt	LTP389	ltpFR2	17	1	BRAKE	166	n/a	n/a	0	0	0
112697	WORD	wordpools/wasnorm_wordpool_576.txt	LTP389	ltpFR2	17	1	MOP	916	n/a	n/a	0	0	0
115282	WORD	wordpools/wasnorm_wordpool_576.txt	LTP389	ltpFR2	17	1	PAIL	1002	n/a	n/a	0	0	0
118065	WORD	wordpools/wasnorm_wordpool_576.txt	LTP389	ltpFR2	17	1	CASHEW	253	n/a	n/a	0	0	0
120764	WORD	wordpools/wasnorm_wordpool_576.txt	LTP389	ltpFR2	17	1	PAPER	1011	n/a	n/a	0	0	0
123248	WORD	wordpools/wasnorm_wordpool_576.txt	LTP389	ltpFR2	17	1	DRINK	498	n/a	n/a	0	0	0
125998	WORD	wordpools/wasnorm_wordpool_576.txt	LTP389	ltpFR2	17	1	GLASS	639	n/a	n/a	0	0	0
128581	WORD	wordpools/wasnorm_wordpool_576.txt	LTP389	ltpFR2	17	1	GOBLIN	645	n/a	n/a	0	0	0
131365	WORD	wordpools/wasnorm_wordpool_576.txt	LTP389	ltpFR2	17	1	LAMP	798	n/a	n/a	0	0	0
133981	WORD	wordpools/wasnorm_wordpool_576.txt	LTP389	ltpFR2	17	1	FLASHLIGHT	575	n/a	n/a	0	0	0
136447	WORD	wordpools/wasnorm_wordpool_576.txt	LTP389	ltpFR2	17	1	LUGGAGE	847	n/a	n/a	0	0	0
139115	WORD	wordpools/wasnorm_wordpool_576.txt	LTP389	ltpFR2	17	1	SURVEY	1414	n/a	n/a	0	0	0
140731	START	n/a	LTP389	ltpFR2	17	n/a	n/a	n/a	2	n/a	n/a	n/a	n/a
141696	DISTRACTOR	n/a	LTP389	ltpFR2	17	1	n/a	n/a	n/a	n/a	0	0	0
141714	PROB	n/a	LTP389	ltpFR2	17	n/a	n/a	n/a	2	12	5	6	1
143298	PROB	n/a	LTP389	ltpFR2	17	n/a	n/a	n/a	2	23	9	7	8
145414	PROB	n/a	LTP389	ltpFR2	17	n/a	n/a	n/a	2	6	1	2	3
146580	PROB	n/a	LTP389	ltpFR2	17	n/a	n/a	n/a	2	14	5	2	7
147797	PROB	n/a	LTP389	ltpFR2	17	n/a	n/a	n/a	2	13	1	6	6
148898	PROB	n/a	LTP389	ltpFR2	17	n/a	n/a	n/a	2	8	3	1	4
150430	PROB	n/a	LTP389	ltpFR2	17	n/a	n/a	n/a	2	13	9	1	3
151663	PROB	n/a	LTP389	ltpFR2	17	n/a	n/a	n/a	2	11	3	5	3
153231	PROB	n/a	LTP389	ltpFR2	17	n/a	n/a	n/a	2	16	2	7	7
154563	PROB	n/a	LTP389	ltpFR2	17	n/a	n/a	n/a	2	16	6	5	5
155914	PROB	n/a	LTP389	ltpFR2	17	n/a	n/a	n/a	2	24	8	7	9
158597	PROB	n/a	LTP389	ltpFR2	17	n/a	n/a	n/a	2	9	6	2	1
159848	PROB	n/a	LTP389	ltpFR2	17	n/a	n/a	n/a	2	8	1	4	3
161064	PROB	n/a	LTP389	ltpFR2	17	n/a	n/a	n/a	2	8	3	3	2
162430	PROB	n/a	LTP389	ltpFR2	17	n/a	n/a	n/a	2	13	9	3	1
163994	STOP	n/a	LTP389	ltpFR2	17	n/a	n/a	n/a	2	n/a	n/a	n/a	n/a
166614	REC_START	n/a	LTP389	ltpFR2	17	1	n/a	n/a	n/a	n/a	0	0	0
168490	REC_WORD	wordpools/wasnorm_wordpool_576.txt	LTP389	ltpFR2	17	1	FILM	565	n/a	n/a	0	0	0
169456	REC_WORD	wordpools/wasnorm_wordpool_576.txt	LTP389	ltpFR2	17	1	ACTRESS	6	n/a	n/a	0	0	0
170274	REC_WORD	wordpools/wasnorm_wordpool_576.txt	LTP389	ltpFR2	17	1	TORTOISE	1486	n/a	n/a	0	0	0
171017	REC_WORD	wordpools/wasnorm_wordpool_576.txt	LTP389	ltpFR2	17	1	CRAB	397	n/a	n/a	0	0	0
171664	REC_WORD	wordpools/wasnorm_wordpool_576.txt	LTP389	ltpFR2	17	1	SCISSORS	1250	n/a	n/a	0	0	0
172837	REC_WORD	wordpools/wasnorm_wordpool_576.txt	LTP389	ltpFR2	17	1	LEG	809	n/a	n/a	0	0	0
173479	REC_WORD	wordpools/wasnorm_wordpool_576.txt	LTP389	ltpFR2	17	1	SILK	1307	n/a	n/a	0	0	0
174475	REC_WORD	wordpools/wasnorm_wordpool_576.txt	LTP389	ltpFR2	17	1	BRAKE	166	n/a	n/a	0	0	0
176174	REC_WORD	wordpools/wasnorm_wordpool_576.txt	LTP389	ltpFR2	17	1	COCKTAIL	338	n/a	n/a	0	0	0
176968	REC_WORD	wordpools/wasnorm_wordpool_576.txt	LTP389	ltpFR2	17	1	PAPER	1011	n/a	n/a	0	0	0
177789	REC_WORD	wordpools/wasnorm_wordpool_576.txt	LTP389	ltpFR2	17	1	GLASS	639	n/a	n/a	0	0	0
178548	REC_WORD	wordpools/wasnorm_wordpool_576.txt	LTP389	ltpFR2	17	1	GOBLIN	645	n/a	n/a	0	0	0
179295	REC_WORD	wordpools/wasnorm_wordpool_576.txt	LTP389	ltpFR2	17	1	FLASHLIGHT	575	n/a	n/a	0	0	0
180872	REC_WORD	wordpools/wasnorm_wordpool_576.txt	LTP389	ltpFR2	17	1	FLASHLIGHT	575	n/a	n/a	0	0	0
182552	REC_WORD	wordpools/wasnorm_wordpool_576.txt	LTP389	ltpFR2	17	1	SEAGULL	1261	n/a	n/a	0	0	0
187832	REC_WORD	wordpools/wasnorm_wordpool_576.txt	LTP389	ltpFR2	17	1	TILE	1468	n/a	n/a	0	0	0
191581	REC_WORD	wordpools/wasnorm_wordpool_576.txt	LTP389	ltpFR2	17	1	TORTOISE	1486	n/a	n/a	0	0	0
215326	REC_WORD	wordpools/wasnorm_wordpool_576.txt	LTP389	ltpFR2	17	1	CASHEW	253	n/a	n/a	0	0	0
257029	DISTRACTOR	n/a	LTP389	ltpFR2	17	2	n/a	n/a	n/a	n/a	0	0	0
257030	START	n/a	LTP389	ltpFR2	17	n/a	n/a	n/a	3	n/a	n/a	n/a	n/a
257046	PROB	n/a	LTP389	ltpFR2	17	n/a	n/a	n/a	3	14	2	5	7
258246	PROB	n/a	LTP389	ltpFR2	17	n/a	n/a	n/a	3	15	3	5	7
259595	PROB	n/a	LTP389	ltpFR2	17	n/a	n/a	n/a	3	10	4	2	4
260979	PROB	n/a	LTP389	ltpFR2	17	n/a	n/a	n/a	3	15	5	6	4
262229	PROB	n/a	LTP389	ltpFR2	17	n/a	n/a	n/a	3	12	5	2	5
263445	PROB	n/a	LTP389	ltpFR2	17	n/a	n/a	n/a	3	14	5	1	8
265445	PROB	n/a	LTP389	ltpFR2	17	n/a	n/a	n/a	3	22	9	8	5
268196	PROB	n/a	LTP389	ltpFR2	17	n/a	n/a	n/a	3	25	8	7	8
270996	PROB	n/a	LTP389	ltpFR2	17	n/a	n/a	n/a	3	21	7	6	8
274561	PROB	n/a	LTP389	ltpFR2	17	n/a	n/a	n/a	3	18	7	4	7
276112	PROB	n/a	LTP389	ltpFR2	17	n/a	n/a	n/a	3	7	1	1	5
277212	PROB	n/a	LTP389	ltpFR2	17	n/a	n/a	n/a	3	12	3	8	1
278711	PROB	n/a	LTP389	ltpFR2	17	n/a	n/a	n/a	3	12	1	3	7
280253	STOP	n/a	LTP389	ltpFR2	17	n/a	n/a	n/a	3	n/a	n/a	n/a	n/a
282262	WORD	wordpools/wasnorm_wordpool_576.txt	LTP389	ltpFR2	17	2	PATROL	1027	n/a	n/a	0	0	0
284862	WORD	wordpools/wasnorm_wordpool_576.txt	LTP389	ltpFR2	17	2	SCRIBBLE	1256	n/a	n/a	0	0	0
287578	WORD	wordpools/wasnorm_wordpool_576.txt	LTP389	ltpFR2	17	2	FLESH	579	n/a	n/a	0	0	0
290378	WORD	wordpools/wasnorm_wordpool_576.txt	LTP389	ltpFR2	17	2	POWDER	1117	n/a	n/a	0	0	0
293129	WORD	wordpools/wasnorm_wordpool_576.txt	LTP389	ltpFR2	17	2	OUTLAW	989	n/a	n/a	0	0	0
295929	WORD	wordpools/wasnorm_wordpool_576.txt	LTP389	ltpFR2	17	2	PUDDLE	1140	n/a	n/a	0	0	0
298494	WORD	wordpools/wasnorm_wordpool_576.txt	LTP389	ltpFR2	17	2	SWIMMER	1420	n/a	n/a	0	0	0
300962	WORD	wordpools/wasnorm_wordpool_576.txt	LTP389	ltpFR2	17	2	TERMITE	1451	n/a	n/a	0	0	0
303678	WORD	wordpools/wasnorm_wordpool_576.txt	LTP389	ltpFR2	17	2	DENTIST	447	n/a	n/a	0	0	0
306112	WORD	wordpools/wasnorm_wordpool_576.txt	LTP389	ltpFR2	17	2	GIFT	635	n/a	n/a	0	0	0
308644	WORD	wordpools/wasnorm_wordpool_576.txt	LTP389	ltpFR2	17	2	BOX	159	n/a	n/a	0	0	0
311162	WORD	wordpools/wasnorm_wordpool_576.txt	LTP389	ltpFR2	17	2	ORCHID	982	n/a	n/a	0	0	0
313828	WORD	wordpools/wasnorm_wordpool_576.txt	LTP389	ltpFR2	17	2	PIZZA	1079	n/a	n/a	0	0	0
316477	WORD	wordpools/wasnorm_wordpool_576.txt	LTP389	ltpFR2	17	2	MUMMY	932	n/a	n/a	0	0	0
319145	WORD	wordpools/wasnorm_wordpool_576.txt	LTP389	ltpFR2	17	2	PLAYGROUND	1087	n/a	n/a	0	0	0
321594	WORD	wordpools/wasnorm_wordpool_576.txt	LTP389	ltpFR2	17	2	BADGE	68	n/a	n/a	0	0	0
324212	WORD	wordpools/wasnorm_wordpool_576.txt	LTP389	ltpFR2	17	2	LEADER	807	n/a	n/a	0	0	0
326862	WORD	wordpools/wasnorm_wordpool_576.txt	LTP389	ltpFR2	17	2	JELLO	754	n/a	n/a	0	0	0
329627	WORD	wordpools/wasnorm_wordpool_576.txt	LTP389	ltpFR2	17	2	XEROX	1628	n/a	n/a	0	0	0
332410	WORD	wordpools/wasnorm_wordpool_576.txt	LTP389	ltpFR2	17	2	COUCH	386	n/a	n/a	0	0	0
335178	WORD	wordpools/wasnorm_wordpool_576.txt	LTP389	ltpFR2	17	2	COMPASS	358	n/a	n/a	0	0	0
337861	WORD	wordpools/wasnorm_wordpool_576.txt	LTP389	ltpFR2	17	2	FRUIT	610	n/a	n/a	0	0	0
340560	WORD	wordpools/wasnorm_wordpool_576.txt	LTP389	ltpFR2	17	2	PADDING	999	n/a	n/a	0	0	0
343161	WORD	wordpools/wasnorm_wordpool_576.txt	LTP389	ltpFR2	17	2	CUSTARD	429	n/a	n/a	0	0	0
344777	START	n/a	LTP389	ltpFR2	17	n/a	n/a	n/a	4	n/a	n/a	n/a	n/a
345748	DISTRACTOR	n/a	LTP389	ltpFR2	17	2	n/a	n/a	n/a	n/a	0	0	0
345760	PROB	n/a	LTP389	ltpFR2	17	n/a	n/a	n/a	4	7	4	2	1
347845	PROB	n/a	LTP389	ltpFR2	17	n/a	n/a	n/a	4	21	8	7	6
349494	PROB	n/a	LTP389	ltpFR2	17	n/a	n/a	n/a	4	10	5	1	4
350760	PROB	n/a	LTP389	ltpFR2	17	n/a	n/a	n/a	4	21	8	9	4
353394	PROB	n/a	LTP389	ltpFR2	17	n/a	n/a	n/a	4	9	2	6	1
354543	PROB	n/a	LTP389	ltpFR2	17	n/a	n/a	n/a	4	15	5	1	9
355727	PROB	n/a	LTP389	ltpFR2	17	n/a	n/a	n/a	4	8	2	4	2
356961	PROB	n/a	LTP389	ltpFR2	17	n/a	n/a	n/a	4	14	8	1	5
358994	PROB	n/a	LTP389	ltpFR2	17	n/a	n/a	n/a	4	10	1	4	5
360311	PROB	n/a	LTP389	ltpFR2	17	n/a	n/a	n/a	4	10	3	3	4
361593	PROB	n/a	LTP389	ltpFR2	17	n/a	n/a	n/a	4	18	8	5	5
362727	PROB	n/a	LTP389	ltpFR2	17	n/a	n/a	n/a	4	17	7	3	7
364094	PROB	n/a	LTP389	ltpFR2	17	n/a	n/a	n/a	4	15	6	1	8
366111	PROB	n/a	LTP389	ltpFR2	17	n/a	n/a	n/a	4	13	6	3	4
368080	STOP	n/a	LTP389	ltpFR2	17	n/a	n/a	n/a	4	n/a	n/a	n/a	n/a
370610	REC_START	n/a	LTP389	ltpFR2	17	2	n/a	n/a	n/a	n/a	0	0	0
371632	REC_WORD	wordpools/wasnorm_wordpool_576.txt	LTP389	ltpFR2	17	2	PATROL	1027	n/a	n/a	0	0	0
372777	REC_WORD	wordpools/wasnorm_wordpool_576.txt	LTP389	ltpFR2	17	2	BADGE	68	n/a	n/a	0	0	0
374156	REC_WORD	wordpools/wasnorm_wordpool_576.txt	LTP389	ltpFR2	17	2	PUDDLE	1140	n/a	n/a	0	0	0
374830	REC_WORD	wordpools/wasnorm_wordpool_576.txt	LTP389	ltpFR2	17	2	PLAYGROUND	1087	n/a	n/a	0	0	0
375585	REC_WORD	wordpools/wasnorm_wordpool_576.txt	LTP389	ltpFR2	17	2	POWDER	1117	n/a	n/a	0	0	0
376360	REC_WORD	wordpools/wasnorm_wordpool_576.txt	LTP389	ltpFR2	17	2	PADDING	999	n/a	n/a	0	0	0
377866	REC_WORD	wordpools/wasnorm_wordpool_576.txt	LTP389	ltpFR2	17	2	LEADER	807	n/a	n/a	0	0	0
378863	REC_WORD	wordpools/wasnorm_wordpool_576.txt	LTP389	ltpFR2	17	2	FRUIT	610	n/a	n/a	0	0	0
381269	REC_WORD	wordpools/wasnorm_wordpool_576.txt	LTP389	ltpFR2	17	2	SWIMMER	1420	n/a	n/a	0	0	0
389213	REC_WORD	wordpools/wasnorm_wordpool_576.txt	LTP389	ltpFR2	17	2	PIZZA	1079	n/a	n/a	0	0	0
391074	REC_WORD	wordpools/wasnorm_wordpool_576.txt	LTP389	ltpFR2	17	2	DENTIST	447	n/a	n/a	0	0	0
392003	REC_WORD	wordpools/wasnorm_wordpool_576.txt	LTP389	ltpFR2	17	2	GIFT	635	n/a	n/a	0	0	0
392789	REC_WORD	wordpools/wasnorm_wordpool_576.txt	LTP389	ltpFR2	17	2	BOX	159	n/a	n/a	0	0	0
395984	REC_WORD	wordpools/wasnorm_wordpool_576.txt	LTP389	ltpFR2	17	2	COUCH	386	n/a	n/a	0	0	0
461059	DISTRACTOR	n/a	LTP389	ltpFR2	17	3	n/a	n/a	n/a	n/a	0	0	0
461060	START	n/a	LTP389	ltpFR2	17	n/a	n/a	n/a	5	n/a	n/a	n/a	n/a
461076	PROB	n/a	LTP389	ltpFR2	17	n/a	n/a	n/a	5	18	4	5	9
462375	PROB	n/a	LTP389	ltpFR2	17	n/a	n/a	n/a	5	9	1	3	5
464009	PROB	n/a	LTP389	ltpFR2	17	n/a	n/a	n/a	5	23	5	9	9
465542	PROB	n/a	LTP389	ltpFR2	17	n/a	n/a	n/a	5	12	1	7	4
466809	PROB	n/a	LTP389	ltpFR2	17	n/a	n/a	n/a	5	15	2	9	4
468043	PROB	n/a	LTP389	ltpFR2	17	n/a	n/a	n/a	5	16	2	5	9
470176	PROB	n/a	LTP389	ltpFR2	17	n/a	n/a	n/a	5	10	1	8	1
471309	PROB	n/a	LTP389	ltpFR2	17	n/a	n/a	n/a	5	19	6	6	7
472893	PROB	n/a	LTP389	ltpFR2	17	n/a	n/a	n/a	5	15	6	1	8
475076	PROB	n/a	LTP389	ltpFR2	17	n/a	n/a	n/a	5	24	7	9	6
477026	PROB	n/a	LTP389	ltpFR2	17	n/a	n/a	n/a	5	23	9	8	6
479691	PROB	n/a	LTP389	ltpFR2	17	n/a	n/a	n/a	5	17	3	5	9
481059	PROB	n/a	LTP389	ltpFR2	17	n/a	n/a	n/a	5	13	3	2	8
482276	PROB	n/a	LTP389	ltpFR2	17	n/a	n/a	n/a	5	12	2	9	1
483441	PROB	n/a	LTP389	ltpFR2	17	n/a	n/a	n/a	5	12	6	1	5
484546	STOP	n/a	LTP389	ltpFR2	17	n/a	n/a	n/a	5	n/a	n/a	n/a	n/a
485992	WORD	wordpools/wasnorm_wordpool_576.txt	LTP389	ltpFR2	17	3	ITEM	746	n/a	n/a	0	0	0
488708	WORD	wordpools/wasnorm_wordpool_576.txt	LTP389	ltpFR2	17	3	JOURNAL	760	n/a	n/a	0	0	0
491458	WORD	wordpools/wasnorm_wordpool_576.txt	LTP389	ltpFR2	17	3	TWEEZERS	1526	n/a	n/a	0	0	0
494159	WORD	wordpools/wasnorm_wordpool_576.txt	LTP389	ltpFR2	17	3	JUNGLE	764	n/a	n/a	0	0	0
496909	WORD	wordpools/wasnorm_wordpool_576.txt	LTP389	ltpFR2	17	3	RUG	1215	n/a	n/a	0	0	0
499458	WORD	wordpools/wasnorm_wordpool_576.txt	LTP389	ltpFR2	17	3	ROBIN	1199	n/a	n/a	0	0	0
501992	WORD	wordpools/wasnorm_wordpool_576.txt	LTP389	ltpFR2	17	3	DINER	467	n/a	n/a	0	0	0
504541	WORD	wordpools/wasnorm_wordpool_576.txt	LTP389	ltpFR2	17	3	PEACH	1031	n/a	n/a	0	0	0
507292	WORD	wordpools/wasnorm_wordpool_576.txt	LTP389	ltpFR2	17	3	FOOTBALL	591	n/a	n/a	0	0	0
509892	WORD	wordpools/wasnorm_wordpool_576.txt	LTP389	ltpFR2	17	3	PLASTER	1085	n/a	n/a	0	0	0
512624	WORD	wordpools/wasnorm_wordpool_576.txt	LTP389	ltpFR2	17	3	COWBOY	395	n/a	n/a	0	0	0
515092	WORD	wordpools/wasnorm_wordpool_576.txt	LTP389	ltpFR2	17	3	WAGON	1578	n/a	n/a	0	0	0
517557	WORD	wordpools/wasnorm_wordpool_576.txt	LTP389	ltpFR2	17	3	PASTRY	1022	n/a	n/a	0	0	0
520325	WORD	wordpools/wasnorm_wordpool_576.txt	LTP389	ltpFR2	17	3	VALVE	1546	n/a	n/a	0	0	0
523108	WORD	wordpools/wasnorm_wordpool_576.txt	LTP389	ltpFR2	17	3	DRIVER	499	n/a	n/a	0	0	0
525691	WORD	wordpools/wasnorm_wordpool_576.txt	LTP389	ltpFR2	17	3	CLIMBER	323	n/a	n/a	0	0	0
528457	WORD	wordpools/wasnorm_wordpool_576.txt	LTP389	ltpFR2	17	3	LIPSTICK	829	n/a	n/a	0	0	0
531258	WORD	wordpools/wasnorm_wordpool_576.txt	LTP389	ltpFR2	17	3	FOREHEAD	592	n/a	n/a	0	0	0
533925	WORD	wordpools/wasnorm_wordpool_576.txt	LTP389	ltpFR2	17	3	COLLEGE	346	n/a	n/a	0	0	0
536374	WORD	wordpools/wasnorm_wordpool_576.txt	LTP389	ltpFR2	17	3	PICNIC	1060	n/a	n/a	0	0	0
539208	WORD	wordpools/wasnorm_wordpool_576.txt	LTP389	ltpFR2	17	3	PIGMENT	1066	n/a	n/a	0	0	0
541707	WORD	wordpools/wasnorm_wordpool_576.txt	LTP389	ltpFR2	17	3	JURY	766	n/a	n/a	0	0	0
544225	WORD	wordpools/wasnorm_wordpool_576.txt	LTP389	ltpFR2	17	3	VALLEY	1545	n/a	n/a	0	0	0
546690	WORD	wordpools/wasnorm_wordpool_576.txt	LTP389	ltpFR2	17	3	DUSTPAN	509	n/a	n/a	0	0	0
548291	START	n/a	LTP389	ltpFR2	17	n/a	n/a	n/a	6	n/a	n/a	n/a	n/a
549486	DISTRACTOR	n/a	LTP389	ltpFR2	17	3	n/a	n/a	n/a	n/a	0	0	0
549490	PROB	n/a	LTP389	ltpFR2	17	n/a	n/a	n/a	6	8	1	3	4
551075	PROB	n/a	LTP389	ltpFR2	17	n/a	n/a	n/a	6	21	9	7	5
553174	PROB	n/a	LTP389	ltpFR2	17	n/a	n/a	n/a	6	18	8	1	9
554358	PROB	n/a	LTP389	ltpFR2	17	n/a	n/a	n/a	6	12	3	2	7
555808	PROB	n/a	LTP389	ltpFR2	17	n/a	n/a	n/a	6	18	8	5	5
556908	PROB	n/a	LTP389	ltpFR2	17	n/a	n/a	n/a	6	21	4	9	8
559124	PROB	n/a	LTP389	ltpFR2	17	n/a	n/a	n/a	6	10	5	4	1
560224	PROB	n/a	LTP389	ltpFR2	17	n/a	n/a	n/a	6	15	1	9	5
561373	PROB	n/a	LTP389	ltpFR2	17	n/a	n/a	n/a	6	7	1	4	2
563640	PROB	n/a	LTP389	ltpFR2	17	n/a	n/a	n/a	6	26	9	8	9
565874	PROB	n/a	LTP389	ltpFR2	17	n/a	n/a	n/a	6	17	3	7	7
567790	PROB	n/a	LTP389	ltpFR2	17	n/a	n/a	n/a	6	3	1	1	1
568824	PROB	n/a	LTP389	ltpFR2	17	n/a	n/a	n/a	6	19	7	4	8
570971	STOP	n/a	LTP389	ltpFR2	17	n/a	n/a	n/a	6	n/a	n/a	n/a	n/a
574125	REC_START	n/a	LTP389	ltpFR2	17	3	n/a	n/a	n/a	n/a	0	0	0
578143	REC_WORD	wordpools/wasnorm_wordpool_576.txt	LTP389	ltpFR2	17	3	ITEM	746	n/a	n/a	0	0	0
579569	REC_WORD	wordpools/wasnorm_wordpool_576.txt	LTP389	ltpFR2	17	3	TWEEZERS	1526	n/a	n/a	0	0	0
581245	REC_WORD	wordpools/wasnorm_wordpool_576.txt	LTP389	ltpFR2	17	3	JOURNAL	760	n/a	n/a	0	0	0
582173	REC_WORD	wordpools/wasnorm_wordpool_576.txt	LTP389	ltpFR2	17	3	NOTEBOOK	959	n/a	n/a	0	0	0
583181	REC_WORD	wordpools/wasnorm_wordpool_576.txt	LTP389	ltpFR2	17	3	ROBIN	1199	n/a	n/a	0	0	0
584124	REC_WORD	wordpools/wasnorm_wordpool_576.txt	LTP389	ltpFR2	17	3	RUG	1215	n/a	n/a	0	0	0
584853	REC_WORD	wordpools/wasnorm_wordpool_576.txt	LTP389	ltpFR2	17	3	JUNGLE	764	n/a	n/a	0	0	0
586046	REC_WORD	wordpools/wasnorm_wordpool_576.txt	LTP389	ltpFR2	17	3	PIGMENT	1066	n/a	n/a	0	0	0
586994	REC_WORD	wordpools/wasnorm_wordpool_576.txt	LTP389	ltpFR2	17	3	COWBOY	395	n/a	n/a	0	0	0
587834	REC_WORD	wordpools/wasnorm_wordpool_576.txt	LTP389	ltpFR2	17	3	WAGON	1578	n/a	n/a	0	0	0
588694	REC_WORD	wordpools/wasnorm_wordpool_576.txt	LTP389	ltpFR2	17	3	DRIVER	499	n/a	n/a	0	0	0
589528	REC_WORD	wordpools/wasnorm_wordpool_576.txt	LTP389	ltpFR2	17	3	CLIMBER	323	n/a	n/a	0	0	0
591260	REC_WORD	wordpools/wasnorm_wordpool_576.txt	LTP389	ltpFR2	17	3	PASTRY	1022	n/a	n/a	0	0	0
592175	REC_WORD	wordpools/wasnorm_wordpool_576.txt	LTP389	ltpFR2	17	3	PICNIC	1060	n/a	n/a	0	0	0
611672	REC_WORD	wordpools/wasnorm_wordpool_576.txt	LTP389	ltpFR2	17	3	COLLEGE	346	n/a	n/a	0	0	0
612663	REC_WORD	wordpools/wasnorm_wordpool_576.txt	LTP389	ltpFR2	17	3	FOOTBALL	591	n/a	n/a	0	0	0
664588	WORD	wordpools/wasnorm_wordpool_576.txt	LTP389	ltpFR2	17	4	COIN	343	n/a	n/a	0	0	0
667206	WORD	wordpools/wasnorm_wordpool_576.txt	LTP389	ltpFR2	17	4	DAISY	435	n/a	n/a	0	0	0
669672	WORD	wordpools/wasnorm_wordpool_576.txt	LTP389	ltpFR2	17	4	SCARF	1246	n/a	n/a	0	0	0
672388	WORD	wordpools/wasnorm_wordpool_576.txt	LTP389	ltpFR2	17	4	BISON	131	n/a	n/a	0	0	0
674939	WORD	wordpools/wasnorm_wordpool_576.txt	LTP389	ltpFR2	17	4	JUDGE	761	n/a	n/a	0	0	0
677388	WORD	wordpools/wasnorm_wordpool_576.txt	LTP389	ltpFR2	17	4	SIBLING	1301	n/a	n/a	0	0	0
680022	WORD	wordpools/wasnorm_wordpool_576.txt	LTP389	ltpFR2	17	4	MESSAGE	888	n/a	n/a	0	0	0
682771	WORD	wordpools/wasnorm_wordpool_576.txt	LTP389	ltpFR2	17	4	SHELTER	1282	n/a	n/a	0	0	0
685538	WORD	wordpools/wasnorm_wordpool_576.txt	LTP389	ltpFR2	17	4	QUARTER	1148	n/a	n/a	0	0	0
688322	WORD	wordpools/wasnorm_wordpool_576.txt	LTP389	ltpFR2	17	4	HATCHET	691	n/a	n/a	0	0	0
691106	WORD	wordpools/wasnorm_wordpool_576.txt	LTP389	ltpFR2	17	4	CAMEL	223	n/a	n/a	0	0	0
693906	WORD	wordpools/wasnorm_wordpool_576.txt	LTP389	ltpFR2	17	4	CLOUD	328	n/a	n/a	0	0	0
696688	WORD	wordpools/wasnorm_wordpool_576.txt	LTP389	ltpFR2	17	4	FRIEND	606	n/a	n/a	0	0	0
699122	WORD	wordpools/wasnorm_wordpool_576.txt	LTP389	ltpFR2	17	4	OX	994	n/a	n/a	0	0	0
701654	WORD	wordpools/wasnorm_wordpool_576.txt	LTP389	ltpFR2	17	4	RIFLE	1192	n/a	n/a	0	0	0
704205	WORD	wordpools/wasnorm_wordpool_576.txt	LTP389	ltpFR2	17	4	BULLET	194	n/a	n/a	0	0	0
707022	WORD	wordpools/wasnorm_wordpool_576.txt	LTP389	ltpFR2	17	4	MAILBOX	857	n/a	n/a	0	0	0
709571	WORD	wordpools/wasnorm_wordpool_576.txt	LTP389	ltpFR2	17	4	MARROW	872	n/a	n/a	0	0	0
712139	WORD	wordpools/wasnorm_wordpool_576.txt	LTP389	ltpFR2	17	4	BODY	145	n/a	n/a	0	0	0
714638	WORD	wordpools/wasnorm_wordpool_576.txt	LTP389	ltpFR2	17	4	QUAIL	1147	n/a	n/a	0	0	0
717421	WORD	wordpools/wasnorm_wordpool_576.txt	LTP389	ltpFR2	17	4	GAZELLE	628	n/a	n/a	0	0	0
720055	WORD	wordpools/wasnorm_wordpool_576.txt	LTP389	ltpFR2	17	4	FREEZER	604	n/a	n/a	0	0	0
722754	WORD	wordpools/wasnorm_wordpool_576.txt	LTP389	ltpFR2	17	4	WITNESS	1618	n/a	n/a	0	0	0
725521	WORD	wordpools/wasnorm_wordpool_576.txt	LTP389	ltpFR2	17	4	DAUGHTER	442	n/a	n/a	0	0	0
727139	START	n/a	LTP389	ltpFR2	17	n/a	n/a	n/a	7	n/a	n/a	n/a	n/a
728066	DISTRACTOR	n/a	LTP389	ltpFR2	17	4	n/a	n/a	n/a	n/a	0	0	0
728072	PROB	n/a	LTP389	ltpFR2	17	n/a	n/a	n/a	7	23	8	7	8
730288	PROB	n/a	LTP389	ltpFR2	17	n/a	n/a	n/a	7	13	1	9	3
731421	PROB	n/a	LTP389	ltpFR2	17	n/a	n/a	n/a	7	20	2	9	9
732737	PROB	n/a	LTP389	ltpFR2	17	n/a	n/a	n/a	7	11	3	7	1
734188	PROB	n/a	LTP389	ltpFR2	17	n/a	n/a	n/a	7	12	2	7	3
735604	PROB	n/a	LTP389	ltpFR2	17	n/a	n/a	n/a	7	17	7	5	5
736922	PROB	n/a	LTP389	ltpFR2	17	n/a	n/a	n/a	7	20	8	6	6
738704	PROB	n/a	LTP389	ltpFR2	17	n/a	n/a	n/a	7	18	9	4	5
740255	PROB	n/a	LTP389	ltpFR2	17	n/a	n/a	n/a	7	12	4	6	2
741770	PROB	n/a	LTP389	ltpFR2	17	n/a	n/a	n/a	7	10	4	2	4
743171	PROB	n/a	LTP389	ltpFR2	17	n/a	n/a	n/a	7	16	2	7	7
744404	PROB	n/a	LTP389	ltpFR2	17	n/a	n/a	n/a	7	14	3	5	6
747687	PROB	n/a	LTP389	ltpFR2	17	n/a	n/a	n/a	7	16	5	4	7
749138	PROB	n/a	LTP389	ltpFR2	17	n/a	n/a	n/a	7	13	2	6	5
750666	STOP	n/a	LTP389	ltpFR2	17	n/a	n/a	n/a	7	n/a	n/a	n/a	n/a
752938	REC_START	n/a	LTP389	ltpFR2	17	4	n/a	n/a	n/a	n/a	0	0	0
753838	REC_WORD	wordpools/wasnorm_wordpool_576.txt	LTP389	ltpFR2	17	4	COIN	343	n/a	n/a	0	0	0
754640	REC_WORD	wordpools/wasnorm_wordpool_576.txt	LTP389	ltpFR2	17	4	SCARF	1246	n/a	n/a	0	0	0
755953	REC_WORD	wordpools/wasnorm_wordpool_576.txt	LTP389	ltpFR2	17	4	BISON	131	n/a	n/a	0	0	0
761163	REC_WORD	wordpools/wasnorm_wordpool_576.txt	LTP389	ltpFR2	17	4	DAISY	435	n/a	n/a	0	0	0
763080	REC_WORD	wordpools/wasnorm_wordpool_576.txt	LTP389	ltpFR2	17	4	SHELTER	1282	n/a	n/a	0	0	0
763869	REC_WORD	wordpools/wasnorm_wordpool_576.txt	LTP389	ltpFR2	17	4	HATCHET	691	n/a	n/a	0	0	0
764712	REC_WORD	wordpools/wasnorm_wordpool_576.txt	LTP389	ltpFR2	17	4	BULLET	194	n/a	n/a	0	0	0
765432	REC_WORD	wordpools/wasnorm_wordpool_576.txt	LTP389	ltpFR2	17	4	RIFLE	1192	n/a	n/a	0	0	0
766515	REC_WORD	wordpools/wasnorm_wordpool_576.txt	LTP389	ltpFR2	17	4	SIBLING	1301	n/a	n/a	0	0	0
767447	REC_WORD	wordpools/wasnorm_wordpool_576.txt	LTP389	ltpFR2	17	4	DAUGHTER	442	n/a	n/a	0	0	0
768891	REC_WORD	wordpools/wasnorm_wordpool_576.txt	LTP389	ltpFR2	17	4	CLOUD	328	n/a	n/a	0	0	0
772364	REC_WORD	wordpools/wasnorm_wordpool_576.txt	LTP389	ltpFR2	17	4	OX	994	n/a	n/a	0	0	0
774544	REC_WORD	wordpools/wasnorm_wordpool_576.txt	LTP389	ltpFR2	17	4	QUARTER	1148	n/a	n/a	0	0	0
775523	REC_WORD	wordpools/wasnorm_wordpool_576.txt	LTP389	ltpFR2	17	4	MAILBOX	857	n/a	n/a	0	0	0
785184	REC_WORD	wordpools/wasnorm_wordpool_576.txt	LTP389	ltpFR2	17	4	CLOUD	328	n/a	n/a	0	0	0
790888	REC_WORD	wordpools/wasnorm_wordpool_576.txt	LTP389	ltpFR2	17	4	MARROW	872	n/a	n/a	0	0	0
792807	REC_WORD	wordpools/wasnorm_wordpool_576.txt	LTP389	ltpFR2	17	4	BODY	145	n/a	n/a	0	0	0
793589	REC_WORD	wordpools/wasnorm_wordpool_576.txt	LTP389	ltpFR2	17	4	QUAIL	1147	n/a	n/a	0	0	0
794427	REC_WORD	wordpools/wasnorm_wordpool_576.txt	LTP389	ltpFR2	17	4	GAZELLE	628	n/a	n/a	0	0	0
843385	DISTRACTOR	n/a	LTP389	ltpFR2	17	5	n/a	n/a	n/a	n/a	0	0	0
843386	START	n/a	LTP389	ltpFR2	17	n/a	n/a	n/a	8	n/a	n/a	n/a	n/a
843402	PROB	n/a	LTP389	ltpFR2	17	n/a	n/a	n/a	8	19	5	6	8
844836	PROB	n/a	LTP389	ltpFR2	17	n/a	n/a	n/a	8	20	6	7	7
846485	PROB	n/a	LTP389	ltpFR2	17	n/a	n/a	n/a	8	18	9	2	7
847870	PROB	n/a	LTP389	ltpFR2	17	n/a	n/a	n/a	8	8	1	1	6
849053	PROB	n/a	LTP389	ltpFR2	17	n/a	n/a	n/a	8	17	7	7	3
852320	PROB	n/a	LTP389	ltpFR2	17	n/a	n/a	n/a	8	24	8	8	6
853920	PROB	n/a	LTP389	ltpFR2	17	n/a	n/a	n/a	8	16	6	2	8
855752	PROB	n/a	LTP389	ltpFR2	17	n/a	n/a	n/a	8	12	1	6	5
856936	PROB	n/a	LTP389	ltpFR2	17	n/a	n/a	n/a	8	21	9	7	5
859153	PROB	n/a	LTP389	ltpFR2	17	n/a	n/a	n/a	8	17	3	8	6
860552	PROB	n/a	LTP389	ltpFR2	17	n/a	n/a	n/a	8	24	8	7	7
864485	PROB	n/a	LTP389	ltpFR2	17	n/a	n/a	n/a	8	9	1	1	7
865602	PROB	n/a	LTP389	ltpFR2	17	n/a	n/a	n/a	8	13	2	5	6
866998	STOP	n/a	LTP389	ltpFR2	17	n/a	n/a	n/a	8	n/a	n/a	n/a	n/a
868418	WORD	wordpools/wasnorm_wordpool_576.txt	LTP389	ltpFR2	17	5	NOMAD	955	n/a	n/a	0	0	0
871003	WORD	wordpools/wasnorm_wordpool_576.txt	LTP389	ltpFR2	17	5	BLADE	134	n/a	n/a	0	0	0
873819	WORD	wordpools/wasnorm_wordpool_576.txt	LTP389	ltpFR2	17	5	NECKLACE	940	n/a	n/a	0	0	0
876369	WORD	wordpools/wasnorm_wordpool_576.txt	LTP389	ltpFR2	17	5	MEDAL	885	n/a	n/a	0	0	0
878986	WORD	wordpools/wasnorm_wordpool_576.txt	LTP389	ltpFR2	17	5	DRAWING	494	n/a	n/a	0	0	0
881518	WORD	wordpools/wasnorm_wordpool_576.txt	LTP389	ltpFR2	17	5	VAGRANT	1544	n/a	n/a	0	0	0
884019	WORD	wordpools/wasnorm_wordpool_576.txt	LTP389	ltpFR2	17	5	PARROT	1015	n/a	n/a	0	0	0
886451	WORD	wordpools/wasnorm_wordpool_576.txt	LTP389	ltpFR2	17	5	ISLAND	745	n/a	n/a	0	0	0
889036	WORD	wordpools/wasnorm_wordpool_576.txt	LTP389	ltpFR2	17	5	GARDEN	623	n/a	n/a	0	0	0
891785	WORD	wordpools/wasnorm_wordpool_576.txt	LTP389	ltpFR2	17	5	HAWK	692	n/a	n/a	0	0	0
894286	WORD	wordpools/wasnorm_wordpool_576.txt	LTP389	ltpFR2	17	5	ATLAS	53	n/a	n/a	0	0	0
896836	WORD	wordpools/wasnorm_wordpool_576.txt	LTP389	ltpFR2	17	5	GLOBE	641	n/a	n/a	0	0	0
899352	WORD	wordpools/wasnorm_wordpool_576.txt	LTP389	ltpFR2	17	5	STREAM	1392	n/a	n/a	0	0	0
901785	WORD	wordpools/wasnorm_wordpool_576.txt	LTP389	ltpFR2	17	5	SWAMP	1416	n/a	n/a	0	0	0
904451	WORD	wordpools/wasnorm_wordpool_576.txt	LTP389	ltpFR2	17	5	EXPERT	543	n/a	n/a	0	0	0
907269	WORD	wordpools/wasnorm_wordpool_576.txt	LTP389	ltpFR2	17	5	COUNTY	389	n/a	n/a	0	0	0
910052	WORD	wordpools/wasnorm_wordpool_576.txt	LTP389	ltpFR2	17	5	SODA	1341	n/a	n/a	0	0	0
912751	WORD	wordpools/wasnorm_wordpool_576.txt	LTP389	ltpFR2	17	5	GRAPE	654	n/a	n/a	0	0	0
915302	WORD	wordpools/wasnorm_wordpool_576.txt	LTP389	ltpFR2	17	5	WIFE	1609	n/a	n/a	0	0	0
917835	WORD	wordpools/wasnorm_wordpool_576.txt	LTP389	ltpFR2	17	5	CROWN	415	n/a	n/a	0	0	0
920368	WORD	wordpools/wasnorm_wordpool_576.txt	LTP389	ltpFR2	17	5	LETTUCE	814	n/a	n/a	0	0	0
923068	WORD	wordpools/wasnorm_wordpool_576.txt	LTP389	ltpFR2	17	5	MASK	876	n/a	n/a	0	0	0
925667	WORD	wordpools/wasnorm_wordpool_576.txt	LTP389	ltpFR2	17	5	DANCER	437	n/a	n/a	0	0	0
928085	WORD	wordpools/wasnorm_wordpool_576.txt	LTP389	ltpFR2	17	5	CONCERT	360	n/a	n/a	0	0	0
929701	START	n/a	LTP389	ltpFR2	17	n/a	n/a	n/a	9	n/a	n/a	n/a	n/a
930840	DISTRACTOR	n/a	LTP389	ltpFR2	17	5	n/a	n/a	n/a	n/a	0	0	0
930852	PROB	n/a	LTP389	ltpFR2	17	n/a	n/a	n/a	9	16	1	8	7
932935	PROB	n/a	LTP389	ltpFR2	17	n/a	n/a	n/a	9	13	6	6	1
934135	PROB	n/a	LTP389	ltpFR2	17	n/a	n/a	n/a	9	22	9	9	6
938701	PROB	n/a	LTP389	ltpFR2	17	n/a	n/a	n/a	9	14	7	6	1
940185	PROB	n/a	LTP389	ltpFR2	17	n/a	n/a	n/a	9	9	1	5	3
941617	PROB	n/a	LTP389	ltpFR2	17	n/a	n/a	n/a	9	11	1	6	4
942852	PROB	n/a	LTP389	ltpFR2	17	n/a	n/a	n/a	9	13	2	9	2
944201	PROB	n/a	LTP389	ltpFR2	17	n/a	n/a	n/a	9	12	6	5	1
945251	PROB	n/a	LTP389	ltpFR2	17	n/a	n/a	n/a	9	13	5	7	1
946901	PROB	n/a	LTP389	ltpFR2	17	n/a	n/a	n/a	9	10	6	3	1
948567	PROB	n/a	LTP389	ltpFR2	17	n/a	n/a	n/a	9	15	6	2	7
950251	PROB	n/a	LTP389	ltpFR2	17	n/a	n/a	n/a	9	9	4	4	1
951268	PROB	n/a	LTP389	ltpFR2	17	n/a	n/a	n/a	9	14	3	9	2
953137	STOP	n/a	LTP389	ltpFR2	17	n/a	n/a	n/a	9	n/a	n/a	n/a	n/a
955501	REC_START	n/a	LTP389	ltpFR2	17	5	n/a	n/a	n/a	n/a	0	0	0
959357	REC_WORD	wordpools/wasnorm_wordpool_576.txt	LTP389	ltpFR2	17	5	NOMAD	955	n/a	n/a	0	0	0
960377	REC_WORD	wordpools/wasnorm_wordpool_576.txt	LTP389	ltpFR2	17	5	VAGRANT	1544	n/a	n/a	0	0	0
961431	REC_WORD	wordpools/wasnorm_wordpool_576.txt	LTP389	ltpFR2	17	5	NECKLACE	940	n/a	n/a	0	0	0
962498	REC_WORD	wordpools/wasnorm_wordpool_576.txt	LTP389	ltpFR2	17	5	MEDAL	885	n/a	n/a	0	0	0
964153	REC_WORD	wordpools/wasnorm_wordpool_576.txt	LTP389	ltpFR2	17	5	BLADE	134	n/a	n/a	0	0	0
967717	REC_WORD	wordpools/wasnorm_wordpool_576.txt	LTP389	ltpFR2	17	5	STREAM	1392	n/a	n/a	0	0	0
969878	REC_WORD	wordpools/wasnorm_wordpool_576.txt	LTP389	ltpFR2	17	5	SWAMP	1416	n/a	n/a	0	0	0
971351	REC_WORD	wordpools/wasnorm_wordpool_576.txt	LTP389	ltpFR2	17	5	ISLAND	745	n/a	n/a	0	0	0
972783	REC_WORD	wordpools/wasnorm_wordpool_576.txt	LTP389	ltpFR2	17	5	GARDEN	623	n/a	n/a	0	0	0
974540	REC_WORD	wordpools/wasnorm_wordpool_576.txt	LTP389	ltpFR2	17	5	GLOBE	641	n/a	n/a	0	0	0
975800	REC_WORD	wordpools/wasnorm_wordpool_576.txt	LTP389	ltpFR2	17	5	ATLAS	53	n/a	n/a	0	0	0
978381	REC_WORD	wordpools/wasnorm_wordpool_576.txt	LTP389	ltpFR2	17	5	CONCERT	360	n/a	n/a	0	0	0
981968	REC_WORD	wordpools/wasnorm_wordpool_576.txt	LTP389	ltpFR2	17	5	DANCER	437	n/a	n/a	0	0	0
982887	REC_WORD	wordpools/wasnorm_wordpool_576.txt	LTP389	ltpFR2	17	5	WIFE	1609	n/a	n/a	0	0	0
983798	REC_WORD	wordpools/wasnorm_wordpool_576.txt	LTP389	ltpFR2	17	5	GRAPE	654	n/a	n/a	0	0	0
984547	REC_WORD	wordpools/wasnorm_wordpool_576.txt	LTP389	ltpFR2	17	5	SODA	1341	n/a	n/a	0	0	0
988405	REC_WORD	wordpools/wasnorm_wordpool_576.txt	LTP389	ltpFR2	17	5	MASK	876	n/a	n/a	0	0	0
1045933	DISTRACTOR	n/a	LTP389	ltpFR2	17	6	n/a	n/a	n/a	n/a	0	0	0
1045933	START	n/a	LTP389	ltpFR2	17	n/a	n/a	n/a	10	n/a	n/a	n/a	n/a
1045950	PROB	n/a	LTP389	ltpFR2	17	n/a	n/a	n/a	10	10	2	6	2
1047283	PROB	n/a	LTP389	ltpFR2	17	n/a	n/a	n/a	10	8	6	1	1
1048449	PROB	n/a	LTP389	ltpFR2	17	n/a	n/a	n/a	10	15	2	5	8
1050083	PROB	n/a	LTP389	ltpFR2	17	n/a	n/a	n/a	10	9	3	2	4
1052316	PROB	n/a	LTP389	ltpFR2	17	n/a	n/a	n/a	10	11	2	7	2
1053499	PROB	n/a	LTP389	ltpFR2	17	n/a	n/a	n/a	10	9	2	1	6
1055150	PROB	n/a	LTP389	ltpFR2	17	n/a	n/a	n/a	10	18	6	3	9
1057316	PROB	n/a	LTP389	ltpFR2	17	n/a	n/a	n/a	10	19	6	6	7
1058799	PROB	n/a	LTP389	ltpFR2	17	n/a	n/a	n/a	10	18	7	9	2
1060432	PROB	n/a	LTP389	ltpFR2	17	n/a	n/a	n/a	10	7	2	4	1
1061599	PROB	n/a	LTP389	ltpFR2	17	n/a	n/a	n/a	10	15	5	3	7
1062883	PROB	n/a	LTP389	ltpFR2	17	n/a	n/a	n/a	10	15	1	6	8
1065565	PROB	n/a	LTP389	ltpFR2	17	n/a	n/a	n/a	10	17	5	3	9
1066949	PROB	n/a	LTP389	ltpFR2	17	n/a	n/a	n/a	10	9	1	6	2
1068049	PROB	n/a	LTP389	ltpFR2	17	n/a	n/a	n/a	10	15	6	7	2
1069619	STOP	n/a	LTP389	ltpFR2	17	n/a	n/a	n/a	10	n/a	n/a	n/a	n/a
1070798	WORD	wordpools/wasnorm_wordpool_576.txt	LTP389	ltpFR2	17	6	CHIPMUNK	304	n/a	n/a	0	0	0
1073398	WORD	wordpools/wasnorm_wordpool_576.txt	LTP389	ltpFR2	17	6	SHOVEL	1295	n/a	n/a	0	0	0
1075933	WORD	wordpools/wasnorm_wordpool_576.txt	LTP389	ltpFR2	17	6	OUTFIT	988	n/a	n/a	0	0	0
1078598	WORD	wordpools/wasnorm_wordpool_576.txt	LTP389	ltpFR2	17	6	BREAST	171	n/a	n/a	0	0	0
1081316	WORD	wordpools/wasnorm_wordpool_576.txt	LTP389	ltpFR2	17	6	GRILL	661	n/a	n/a	0	0	0
1083982	WORD	wordpools/wasnorm_wordpool_576.txt	LTP389	ltpFR2	17	6	HOUND	724	n/a	n/a	0	0	0
1086415	WORD	wordpools/wasnorm_wordpool_576.txt	LTP389	ltpFR2	17	6	PUDDING	1139	n/a	n/a	0	0	0
1089016	WORD	wordpools/wasnorm_wordpool_576.txt	LTP389	ltpFR2	17	6	DRUG	501	n/a	n/a	0	0	0
1091731	WORD	wordpools/wasnorm_wordpool_576.txt	LTP389	ltpFR2	17	6	PREACHER	1119	n/a	n/a	0	0	0
1094381	WORD	wordpools/wasnorm_wordpool_576.txt	LTP389	ltpFR2	17	6	CYCLONE	431	n/a	n/a	0	0	0
1097132	WORD	wordpools/wasnorm_wordpool_576.txt	LTP389	ltpFR2	17	6	PLATE	1086	n/a	n/a	0	0	0
1099648	WORD	wordpools/wasnorm_wordpool_576.txt	LTP389	ltpFR2	17	6	BANQUET	86	n/a	n/a	0	0	0
1102249	WORD	wordpools/wasnorm_wordpool_576.txt	LTP389	ltpFR2	17	6	PATIENT	1024	n/a	n/a	0	0	0
1104815	WORD	wordpools/wasnorm_wordpool_576.txt	LTP389	ltpFR2	17	6	SIDEWALK	1303	n/a	n/a	0	0	0
1107614	WORD	wordpools/wasnorm_wordpool_576.txt	LTP389	ltpFR2	17	6	BLOCKADE	137	n/a	n/a	0	0	0
1110115	WORD	wordpools/wasnorm_wordpool_576.txt	LTP389	ltpFR2	17	6	BATHTUB	100	n/a	n/a	0	0	0
1112664	WORD	wordpools/wasnorm_wordpool_576.txt	LTP389	ltpFR2	17	6	BUBBLE	183	n/a	n/a	0	0	0
1115149	WORD	wordpools/wasnorm_wordpool_576.txt	LTP389	ltpFR2	17	6	BEAVER	109	n/a	n/a	0	0	0
1117832	WORD	wordpools/wasnorm_wordpool_576.txt	LTP389	ltpFR2	17	6	TWISTER	1530	n/a	n/a	0	0	0
1120648	WORD	wordpools/wasnorm_wordpool_576.txt	LTP389	ltpFR2	17	6	FIDDLE	561	n/a	n/a	0	0	0
1123481	WORD	wordpools/wasnorm_wordpool_576.txt	LTP389	ltpFR2	17	6	INFANT	737	n/a	n/a	0	0	0
1125999	WORD	wordpools/wasnorm_wordpool_576.txt	LTP389	ltpFR2	17	6	TROUT	1511	n/a	n/a	0	0	0
1128681	WORD	wordpools/wasnorm_wordpool_576.txt	LTP389	ltpFR2	17	6	DIVER	476	n/a	n/a	0	0	0
1131248	WORD	wordpools/wasnorm_wordpool_576.txt	LTP389	ltpFR2	17	6	WRENCH	1625	n/a	n/a	0	0	0
1132865	START	n/a	LTP389	ltpFR2	17	n/a	n/a	n/a	11	n/a	n/a	n/a	n/a
1133846	DISTRACTOR	n/a	LTP389	ltpFR2	17	6	n/a	n/a	n/a	n/a	0	0	0
1133848	PROB	n/a	LTP389	ltpFR2	17	n/a	n/a	n/a	11	15	5	1	9
1135514	PROB	n/a	LTP389	ltpFR2	17	n/a	n/a	n/a	11	12	3	4	5
1137332	PROB	n/a	LTP389	ltpFR2	17	n/a	n/a	n/a	11	16	1	7	8
1138797	PROB	n/a	LTP389	ltpFR2	17	n/a	n/a	n/a	11	17	9	4	4
1140447	PROB	n/a	LTP389	ltpFR2	17	n/a	n/a	n/a	11	16	6	6	4
1142132	PROB	n/a	LTP389	ltpFR2	17	n/a	n/a	n/a	11	16	2	5	9
1143447	PROB	n/a	LTP389	ltpFR2	17	n/a	n/a	n/a	11	8	4	1	3
1144780	PROB	n/a	LTP389	ltpFR2	17	n/a	n/a	n/a	11	19	2	8	9
1146514	PROB	n/a	LTP389	ltpFR2	17	n/a	n/a	n/a	11	27	9	9	9
1148447	PROB	n/a	LTP389	ltpFR2	17	n/a	n/a	n/a	11	13	2	8	3
1149614	PROB	n/a	LTP389	ltpFR2	17	n/a	n/a	n/a	11	11	2	8	1
1151265	PROB	n/a	LTP389	ltpFR2	17	n/a	n/a	n/a	11	18	6	7	5
1153348	PROB	n/a	LTP389	ltpFR2	17	n/a	n/a	n/a	11	18	2	9	7
1154730	PROB	n/a	LTP389	ltpFR2	17	n/a	n/a	n/a	11	12	9	2	1
1155879	STOP	n/a	LTP389	ltpFR2	17	n/a	n/a	n/a	11	n/a	n/a	n/a	n/a
1158731	REC_START	n/a	LTP389	ltpFR2	17	6	n/a	n/a	n/a	n/a	0	0	0
1160672	REC_WORD	wordpools/wasnorm_wordpool_576.txt	LTP389	ltpFR2	17	6	CHIPMUNK	304	n/a	n/a	0	0	0
1162084	REC_WORD	wordpools/wasnorm_wordpool_576.txt	LTP389	ltpFR2	17	6	BEAVER	109	n/a	n/a	0	0	0
1163474	REC_WORD	wordpools/wasnorm_wordpool_576.txt	LTP389	ltpFR2	17	6	SHOVEL	1295	n/a	n/a	0	0	0
1166259	REC_WORD	wordpools/wasnorm_wordpool_576.txt	LTP389	ltpFR2	17	6	OUTFIT	988	n/a	n/a	0	0	0
1167815	REC_WORD	wordpools/wasnorm_wordpool_576.txt	LTP389	ltpFR2	17	6	BREAST	171	n/a	n/a	0	0	0
1168830	REC_WORD	wordpools/wasnorm_wordpool_576.txt	LTP389	ltpFR2	17	6	GRILL	661	n/a	n/a	0	0	0
1169852	REC_WORD	wordpools/wasnorm_wordpool_576.txt	LTP389	ltpFR2	17	6	HOUND	724	n/a	n/a	0	0	0
1171885	REC_WORD	wordpools/wasnorm_wordpool_576.txt	LTP389	ltpFR2	17	6	PUDDING	1139	n/a	n/a	0	0	0
1175565	REC_WORD	wordpools/wasnorm_wordpool_576.txt	LTP389	ltpFR2	17	6	BLOCKADE	137	n/a	n/a	0	0	0
1182853	REC_WORD	wordpools/wasnorm_wordpool_576.txt	LTP389	ltpFR2	17	6	TWISTER	1530	n/a	n/a	0	0	0
1183632	REC_WORD	wordpools/wasnorm_wordpool_576.txt	LTP389	ltpFR2	17	6	TORNADO	1485	n/a	n/a	0	0	0
1187743	REC_WORD	wordpools/wasnorm_wordpool_576.txt	LTP389	ltpFR2	17	6	PREACHER	1119	n/a	n/a	0	0	0
1205294	REC_WORD	wordpools/wasnorm_wordpool_576.txt	LTP389	ltpFR2	17	6	PATIENT	1024	n/a	n/a	0	0	0
1249163	WORD	wordpools/wasnorm_wordpool_576.txt	LTP389	ltpFR2	17	7	SHARK	1275	n/a	n/a	0	0	0
1251980	WORD	wordpools/wasnorm_wordpool_576.txt	LTP389	ltpFR2	17	7	COD	340	n/a	n/a	0	0	0
1254562	WORD	wordpools/wasnorm_wordpool_576.txt	LTP389	ltpFR2	17	7	IDOL	733	n/a	n/a	0	0	0
1257113	WORD	wordpools/wasnorm_wordpool_576.txt	LTP389	ltpFR2	17	7	RELISH	1183	n/a	n/a	0	0	0
1259830	WORD	wordpools/wasnorm_wordpool_576.txt	LTP389	ltpFR2	17	7	SANDWICH	1232	n/a	n/a	0	0	0
1262512	WORD	wordpools/wasnorm_wordpool_576.txt	LTP389	ltpFR2	17	7	RIVER	1194	n/a	n/a	0	0	0
1265213	WORD	wordpools/wasnorm_wordpool_576.txt	LTP389	ltpFR2	17	7	PRINCE	1124	n/a	n/a	0	0	0
1267946	WORD	wordpools/wasnorm_wordpool_576.txt	LTP389	ltpFR2	17	7	GIRL	637	n/a	n/a	0	0	0
1270662	WORD	wordpools/wasnorm_wordpool_576.txt	LTP389	ltpFR2	17	7	BUG	187	n/a	n/a	0	0	0
1273179	WORD	wordpools/wasnorm_wordpool_576.txt	LTP389	ltpFR2	17	7	WASP	1593	n/a	n/a	0	0	0
1275929	WORD	wordpools/wasnorm_wordpool_576.txt	LTP389	ltpFR2	17	7	BLUEPRINT	142	n/a	n/a	0	0	0
1278678	WORD	wordpools/wasnorm_wordpool_576.txt	LTP389	ltpFR2	17	7	CAFE	216	n/a	n/a	0	0	0
1281412	WORD	wordpools/wasnorm_wordpool_576.txt	LTP389	ltpFR2	17	7	BOYFRIEND	162	n/a	n/a	0	0	0
1283879	WORD	wordpools/wasnorm_wordpool_576.txt	LTP389	ltpFR2	17	7	PROTON	1132	n/a	n/a	0	0	0
1286662	WORD	wordpools/wasnorm_wordpool_576.txt	LTP389	ltpFR2	17	7	POPCORN	1104	n/a	n/a	0	0	0
1289362	WORD	wordpools/wasnorm_wordpool_576.txt	LTP389	ltpFR2	17	7	COURSE	390	n/a	n/a	0	0	0
1292029	WORD	wordpools/wasnorm_wordpool_576.txt	LTP389	ltpFR2	17	7	RECEIPT	1173	n/a	n/a	0	0	0
1294795	WORD	wordpools/wasnorm_wordpool_576.txt	LTP389	ltpFR2	17	7	COCOON	339	n/a	n/a	0	0	0
1297329	WORD	wordpools/wasnorm_wordpool_576.txt	LTP389	ltpFR2	17	7	PASTA	1021	n/a	n/a	0	0	0
1299946	WORD	wordpools/wasnorm_wordpool_576.txt	LTP389	ltpFR2	17	7	BLACKBOARD	133	n/a	n/a	0	0	0
1302528	WORD	wordpools/wasnorm_wordpool_576.txt	LTP389	ltpFR2	17	7	RAFT	1159	n/a	n/a	0	0	0
1304962	WORD	wordpools/wasnorm_wordpool_576.txt	LTP389	ltpFR2	17	7	LAVA	804	n/a	n/a	0	0	0
1307495	WORD	wordpools/wasnorm_wordpool_576.txt	LTP389	ltpFR2	17	7	FRAGRANCE	599	n/a	n/a	0	0	0
1310045	WORD	wordpools/wasnorm_wordpool_576.txt	LTP389	ltpFR2	17	7	QUEEN	1149	n/a	n/a	0	0	0
1311661	START	n/a	LTP389	ltpFR2	17	n/a	n/a	n/a	12	n/a	n/a	n/a	n/a
1312825	DISTRACTOR	n/a	LTP389	ltpFR2	17	7	n/a	n/a	n/a	n/a	0	0	0
1312829	PROB	n/a	LTP389	ltpFR2	17	n/a	n/a	n/a	12	12	2	9	1
1314095	PROB	n/a	LTP389	ltpFR2	17	n/a	n/a	n/a	12	18	3	7	8
1315494	PROB	n/a	LTP389	ltpFR2	17	n/a	n/a	n/a	12	15	1	5	9
1316945	PROB	n/a	LTP389	ltpFR2	17	n/a	n/a	n/a	12	11	1	8	2
1318444	PROB	n/a	LTP389	ltpFR2	17	n/a	n/a	n/a	12	11	2	7	2
1319862	PROB	n/a	LTP389	ltpFR2	17	n/a	n/a	n/a	12	20	7	9	4
1321979	PROB	n/a	LTP389	ltpFR2	17	n/a	n/a	n/a	12	12	9	1	2
1323295	PROB	n/a	LTP389	ltpFR2	17	n/a	n/a	n/a	12	20	6	5	9
1326329	PROB	n/a	LTP389	ltpFR2	17	n/a	n/a	n/a	12	12	3	1	8
1328362	PROB	n/a	LTP389	ltpFR2	17	n/a	n/a	n/a	12	8	2	3	3
1329711	PROB	n/a	LTP389	ltpFR2	17	n/a	n/a	n/a	12	9	7	1	1
1330794	PROB	n/a	LTP389	ltpFR2	17	n/a	n/a	n/a	12	12	8	4	2
1332828	PROB	n/a	LTP389	ltpFR2	17	n/a	n/a	n/a	12	10	1	2	7
1334252	STOP	n/a	LTP389	ltpFR2	17	n/a	n/a	n/a	12	n/a	n/a	n/a	n/a
1337461	REC_START	n/a	LTP389	ltpFR2	17	7	n/a	n/a	n/a	n/a	0	0	0
1339785	REC_WORD	wordpools/wasnorm_wordpool_576.txt	LTP389	ltpFR2	17	7	SHARK	1275	n/a	n/a	0	0	0
1340746	REC_WORD	wordpools/wasnorm_wordpool_576.txt	LTP389	ltpFR2	17	7	COD	340	n/a	n/a	0	0	0
1341967	REC_WORD	wordpools/wasnorm_wordpool_576.txt	LTP389	ltpFR2	17	7	RELISH	1183	n/a	n/a	0	0	0
1342823	REC_WORD	wordpools/wasnorm_wordpool_576.txt	LTP389	ltpFR2	17	7	SANDWICH	1232	n/a	n/a	0	0	0
1344402	REC_WORD	wordpools/wasnorm_wordpool_576.txt	LTP389	ltpFR2	17	7	PRINCE	1124	n/a	n/a	0	0	0
1345685	REC_WORD	wordpools/wasnorm_wordpool_576.txt	LTP389	ltpFR2	17	7	GIRL	637	n/a	n/a	0	0	0
1346485	REC_WORD	wordpools/wasnorm_wordpool_576.txt	LTP389	ltpFR2	17	7	BUG	187	n/a	n/a	0	0	0
1347284	REC_WORD	wordpools/wasnorm_wordpool_576.txt	LTP389	ltpFR2	17	7	RAFT	1159	n/a	n/a	0	0	0
1348197	REC_WORD	wordpools/wasnorm_wordpool_576.txt	LTP389	ltpFR2	17	7	RIVER	1194	n/a	n/a	0	0	0
1350138	REC_WORD	wordpools/wasnorm_wordpool_576.txt	LTP389	ltpFR2	17	7	QUEEN	1149	n/a	n/a	0	0	0
1353071	REC_WORD	wordpools/wasnorm_wordpool_576.txt	LTP389	ltpFR2	17	7	BOYFRIEND	162	n/a	n/a	0	0	0
1353956	REC_WORD	wordpools/wasnorm_wordpool_576.txt	LTP389	ltpFR2	17	7	POPCORN	1104	n/a	n/a	0	0	0
1354899	REC_WORD	wordpools/wasnorm_wordpool_576.txt	LTP389	ltpFR2	17	7	PROTON	1132	n/a	n/a	0	0	0
1356969	REC_WORD	wordpools/wasnorm_wordpool_576.txt	LTP389	ltpFR2	17	7	CAFE	216	n/a	n/a	0	0	0
1359045	REC_WORD	wordpools/wasnorm_wordpool_576.txt	LTP389	ltpFR2	17	7	FRAGRANCE	599	n/a	n/a	0	0	0
1361084	REC_WORD	wordpools/wasnorm_wordpool_576.txt	LTP389	ltpFR2	17	7	PERFUME	1049	n/a	n/a	0	0	0
1404468	REC_WORD	wordpools/wasnorm_wordpool_576.txt	LTP389	ltpFR2	17	7	PLAZA	1088	n/a	n/a	0	0	0
1427927	WORD	wordpools/wasnorm_wordpool_576.txt	LTP389	ltpFR2	17	8	SUMMIT	1405	n/a	n/a	0	0	0
1430442	WORD	wordpools/wasnorm_wordpool_576.txt	LTP389	ltpFR2	17	8	BUGGY	188	n/a	n/a	0	0	0
1433210	WORD	wordpools/wasnorm_wordpool_576.txt	LTP389	ltpFR2	17	8	ROCKET	1202	n/a	n/a	0	0	0
1435993	WORD	wordpools/wasnorm_wordpool_576.txt	LTP389	ltpFR2	17	8	CITRUS	313	n/a	n/a	0	0	0
1438609	WORD	wordpools/wasnorm_wordpool_576.txt	LTP389	ltpFR2	17	8	SHORTCAKE	1292	n/a	n/a	0	0	0
1441310	WORD	wordpools/wasnorm_wordpool_576.txt	LTP389	ltpFR2	17	8	FLEET	578	n/a	n/a	0	0	0
1443860	WORD	wordpools/wasnorm_wordpool_576.txt	LTP389	ltpFR2	17	8	BRANCH	168	n/a	n/a	0	0	0
1446526	WORD	wordpools/wasnorm_wordpool_576.txt	LTP389	ltpFR2	17	8	CEILING	265	n/a	n/a	0	0	0
1449293	WORD	wordpools/wasnorm_wordpool_576.txt	LTP389	ltpFR2	17	8	LADDER	793	n/a	n/a	0	0	0
1451810	WORD	wordpools/wasnorm_wordpool_576.txt	LTP389	ltpFR2	17	8	ZIPPER	1636	n/a	n/a	0	0	0
1454425	WORD	wordpools/wasnorm_wordpool_576.txt	LTP389	ltpFR2	17	8	FLOWER	584	n/a	n/a	0	0	0
1457010	WORD	wordpools/wasnorm_wordpool_576.txt	LTP389	ltpFR2	17	8	ROD	1203	n/a	n/a	0	0	0
1459542	WORD	wordpools/wasnorm_wordpool_576.txt	LTP389	ltpFR2	17	8	PALACE	1006	n/a	n/a	0	0	0
1462210	WORD	wordpools/wasnorm_wordpool_576.txt	LTP389	ltpFR2	17	8	FIREMAN	569	n/a	n/a	0	0	0
1464976	WORD	wordpools/wasnorm_wordpool_576.txt	LTP389	ltpFR2	17	8	FARMER	553	n/a	n/a	0	0	0
1467775	WORD	wordpools/wasnorm_wordpool_576.txt	LTP389	ltpFR2	17	8	POCKET	1093	n/a	n/a	0	0	0
1470592	WORD	wordpools/wasnorm_wordpool_576.txt	LTP389	ltpFR2	17	8	BANJO	82	n/a	n/a	0	0	0
1473109	WORD	wordpools/wasnorm_wordpool_576.txt	LTP389	ltpFR2	17	8	NOTEBOOK	959	n/a	n/a	0	0	0
1475642	WORD	wordpools/wasnorm_wordpool_576.txt	LTP389	ltpFR2	17	8	HORNET	718	n/a	n/a	0	0	0
1478359	WORD	wordpools/wasnorm_wordpool_576.txt	LTP389	ltpFR2	17	8	SALT	1229	n/a	n/a	0	0	0
1480976	WORD	wordpools/wasnorm_wordpool_576.txt	LTP389	ltpFR2	17	8	COMET	353	n/a	n/a	0	0	0
1483758	WORD	wordpools/wasnorm_wordpool_576.txt	LTP389	ltpFR2	17	8	STAR	1373	n/a	n/a	0	0	0
1486408	WORD	wordpools/wasnorm_wordpool_576.txt	LTP389	ltpFR2	17	8	LONDON	843	n/a	n/a	0	0	0
1489126	WORD	wordpools/wasnorm_wordpool_576.txt	LTP389	ltpFR2	17	8	PEPPER	1047	n/a	n/a	0	0	0
1490742	START	n/a	LTP389	ltpFR2	17	n/a	n/a	n/a	13	n/a	n/a	n/a	n/a
1491910	DISTRACTOR	n/a	LTP389	ltpFR2	17	8	n/a	n/a	n/a	n/a	0	0	0
1491926	PROB	n/a	LTP389	ltpFR2	17	n/a	n/a	n/a	13	18	6	5	7
1493342	PROB	n/a	LTP389	ltpFR2	17	n/a	n/a	n/a	13	7	1	4	2
1494826	PROB	n/a	LTP389	ltpFR2	17	n/a	n/a	n/a	13	11	5	3	3
1496192	PROB	n/a	LTP389	ltpFR2	17	n/a	n/a	n/a	13	13	1	9	3
1497359	PROB	n/a	LTP389	ltpFR2	17	n/a	n/a	n/a	13	20	9	3	8
1499359	PROB	n/a	LTP389	ltpFR2	17	n/a	n/a	n/a	13	6	4	1	1
1500491	PROB	n/a	LTP389	ltpFR2	17	n/a	n/a	n/a	13	10	8	1	1
1501826	PROB	n/a	LTP389	ltpFR2	17	n/a	n/a	n/a	13	18	6	5	7
1503009	PROB	n/a	LTP389	ltpFR2	17	n/a	n/a	n/a	13	11	3	4	4
1504558	PROB	n/a	LTP389	ltpFR2	17	n/a	n/a	n/a	13	14	1	8	5
1505959	PROB	n/a	LTP389	ltpFR2	17	n/a	n/a	n/a	13	20	6	7	7
1507959	PROB	n/a	LTP389	ltpFR2	17	n/a	n/a	n/a	13	14	4	3	7
1509292	PROB	n/a	LTP389	ltpFR2	17	n/a	n/a	n/a	13	25	8	9	6
1511408	PROB	n/a	LTP389	ltpFR2	17	n/a	n/a	n/a	13	9	2	1	6
1512892	PROB	n/a	LTP389	ltpFR2	17	n/a	n/a	n/a	13	18	3	8	7
1514049	STOP	n/a	LTP389	ltpFR2	17	n/a	n/a	n/a	13	n/a	n/a	n/a	n/a
1516508	REC_START	n/a	LTP389	ltpFR2	17	8	n/a	n/a	n/a	n/a	0	0	0
1517541	REC_WORD	wordpools/wasnorm_wordpool_576.txt	LTP389	ltpFR2	17	8	SUMMIT	1405	n/a	n/a	0	0	0
1518595	REC_WORD	wordpools/wasnorm_wordpool_576.txt	LTP389	ltpFR2	17	8	BUGGY	188	n/a	n/a	0	0	0
1519520	REC_WORD	wordpools/wasnorm_wordpool_576.txt	LTP389	ltpFR2	17	8	ROCKET	1202	n/a	n/a	0	0	0
1521340	REC_WORD	wordpools/wasnorm_wordpool_576.txt	LTP389	ltpFR2	17	8	FLEET	578	n/a	n/a	0	0	0
1522499	REC_WORD	wordpools/wasnorm_wordpool_576.txt	LTP389	ltpFR2	17	8	FARMER	553	n/a	n/a	0	0	0
1528870	REC_WORD	wordpools/wasnorm_wordpool_576.txt	LTP389	ltpFR2	17	8	CITRUS	313	n/a	n/a	0	0	0
1530082	REC_WORD	wordpools/wasnorm_wordpool_576.txt	LTP389	ltpFR2	17	8	LEMON	810	n/a	n/a	0	0	0
1531360	REC_WORD	wordpools/wasnorm_wordpool_576.txt	LTP389	ltpFR2	17	8	SHORTCAKE	1292	n/a	n/a	0	0	0
1532787	REC_WORD	wordpools/wasnorm_wordpool_576.txt	LTP389	ltpFR2	17	8	LADDER	793	n/a	n/a	0	0	0
1533692	REC_WORD	wordpools/wasnorm_wordpool_576.txt	LTP389	ltpFR2	17	8	ROD	1203	n/a	n/a	0	0	0
1535082	REC_WORD	wordpools/wasnorm_wordpool_576.txt	LTP389	ltpFR2	17	8	PALACE	1006	n/a	n/a	0	0	0
1536060	REC_WORD	wordpools/wasnorm_wordpool_576.txt	LTP389	ltpFR2	17	8	FIREMAN	569	n/a	n/a	0	0	0
1542484	REC_WORD	wordpools/wasnorm_wordpool_576.txt	LTP389	ltpFR2	17	8	COMET	353	n/a	n/a	0	0	0
1560531	REC_WORD	wordpools/wasnorm_wordpool_576.txt	LTP389	ltpFR2	17	8	CEILING	265	n/a	n/a	0	0	0
1562650	REC_WORD	wordpools/wasnorm_wordpool_576.txt	LTP389	ltpFR2	17	8	NOTEBOOK	959	n/a	n/a	0	0	0
1569261	REC_WORD	wordpools/wasnorm_wordpool_576.txt	LTP389	ltpFR2	17	8	BANJO	82	n/a	n/a	0	0	0
1593041	REST_REWET	n/a	LTP389	ltpFR2	17	8	n/a	n/a	n/a	n/a	0	0	0
1741704	DISTRACTOR	n/a	LTP389	ltpFR2	17	9	n/a	n/a	n/a	n/a	0	0	0
1741704	START	n/a	LTP389	ltpFR2	17	n/a	n/a	n/a	14	n/a	n/a	n/a	n/a
1741721	PROB	n/a	LTP389	ltpFR2	17	n/a	n/a	n/a	14	17	7	6	4
1743088	PROB	n/a	LTP389	ltpFR2	17	n/a	n/a	n/a	14	14	7	1	6
1744955	PROB	n/a	LTP389	ltpFR2	17	n/a	n/a	n/a	14	18	7	2	9
1746238	PROB	n/a	LTP389	ltpFR2	17	n/a	n/a	n/a	14	12	6	1	5
1747604	PROB	n/a	LTP389	ltpFR2	17	n/a	n/a	n/a	14	19	4	7	8
1749687	PROB	n/a	LTP389	ltpFR2	17	n/a	n/a	n/a	14	8	2	5	1
1751205	PROB	n/a	LTP389	ltpFR2	17	n/a	n/a	n/a	14	20	2	9	9
1752554	PROB	n/a	LTP389	ltpFR2	17	n/a	n/a	n/a	14	22	6	9	7
1754338	PROB	n/a	LTP389	ltpFR2	17	n/a	n/a	n/a	14	12	1	9	2
1755437	PROB	n/a	LTP389	ltpFR2	17	n/a	n/a	n/a	14	14	3	6	5
1756754	PROB	n/a	LTP389	ltpFR2	17	n/a	n/a	n/a	14	21	9	7	5
1758971	PROB	n/a	LTP389	ltpFR2	17	n/a	n/a	n/a	14	16	3	9	4
1761338	PROB	n/a	LTP389	ltpFR2	17	n/a	n/a	n/a	14	18	8	2	8
1762821	PROB	n/a	LTP389	ltpFR2	17	n/a	n/a	n/a	14	24	9	8	7
1764520	STOP	n/a	LTP389	ltpFR2	17	n/a	n/a	n/a	14	n/a	n/a	n/a	n/a
1766855	WORD	wordpools/wasnorm_wordpool_576.txt	LTP389	ltpFR2	17	9	FLUTE	585	n/a	n/a	0	0	0
1769554	WORD	wordpools/wasnorm_wordpool_576.txt	LTP389	ltpFR2	17	9	MUFFIN	929	n/a	n/a	0	0	0
1772305	WORD	wordpools/wasnorm_wordpool_576.txt	LTP389	ltpFR2	17	9	BROTHER	179	n/a	n/a	0	0	0
1775071	WORD	wordpools/wasnorm_wordpool_576.txt	LTP389	ltpFR2	17	9	PARENT	1013	n/a	n/a	0	0	0
1777620	WORD	wordpools/wasnorm_wordpool_576.txt	LTP389	ltpFR2	17	9	OFFICE	972	n/a	n/a	0	0	0
1780304	WORD	wordpools/wasnorm_wordpool_576.txt	LTP389	ltpFR2	17	9	TYPIST	1532	n/a	n/a	0	0	0
1783054	WORD	wordpools/wasnorm_wordpool_576.txt	LTP389	ltpFR2	17	9	SHRUB	1299	n/a	n/a	0	0	0
1785770	WORD	wordpools/wasnorm_wordpool_576.txt	LTP389	ltpFR2	17	9	MAPLE	866	n/a	n/a	0	0	0
1788254	WORD	wordpools/wasnorm_wordpool_576.txt	LTP389	ltpFR2	17	9	CURTAIN	427	n/a	n/a	0	0	0
1790838	WORD	wordpools/wasnorm_wordpool_576.txt	LTP389	ltpFR2	17	9	NURSE	963	n/a	n/a	0	0	0
1793570	WORD	wordpools/wasnorm_wordpool_576.txt	LTP389	ltpFR2	17	9	SUNRISE	1407	n/a	n/a	0	0	0
1796104	WORD	wordpools/wasnorm_wordpool_576.txt	LTP389	ltpFR2	17	9	PUPPY	1144	n/a	n/a	0	0	0
1798703	WORD	wordpools/wasnorm_wordpool_576.txt	LTP389	ltpFR2	17	9	PRIMATE	1123	n/a	n/a	0	0	0
1801354	WORD	wordpools/wasnorm_wordpool_576.txt	LTP389	ltpFR2	17	9	LEOPARD	812	n/a	n/a	0	0	0
1804021	WORD	wordpools/wasnorm_wordpool_576.txt	LTP389	ltpFR2	17	9	GUITAR	670	n/a	n/a	0	0	0
1806821	WORD	wordpools/wasnorm_wordpool_576.txt	LTP389	ltpFR2	17	9	AIRPLANE	12	n/a	n/a	0	0	0
1809486	WORD	wordpools/wasnorm_wordpool_576.txt	LTP389	ltpFR2	17	9	SUNSET	1408	n/a	n/a	0	0	0
1811904	WORD	wordpools/wasnorm_wordpool_576.txt	LTP389	ltpFR2	17	9	WARDROBE	1587	n/a	n/a	0	0	0
1814354	WORD	wordpools/wasnorm_wordpool_576.txt	LTP389	ltpFR2	17	9	SCARECROW	1245	n/a	n/a	0	0	0
1817137	WORD	wordpools/wasnorm_wordpool_576.txt	LTP389	ltpFR2	17	9	LIVER	833	n/a	n/a	0	0	0
1819821	WORD	wordpools/wasnorm_wordpool_576.txt	LTP389	ltpFR2	17	9	CLOCK	325	n/a	n/a	0	0	0
1822453	WORD	wordpools/wasnorm_wordpool_576.txt	LTP389	ltpFR2	17	9	WIDOW	1608	n/a	n/a	0	0	0
1825154	WORD	wordpools/wasnorm_wordpool_576.txt	LTP389	ltpFR2	17	9	STOMACH	1384	n/a	n/a	0	0	0
1827820	WORD	wordpools/wasnorm_wordpool_576.txt	LTP389	ltpFR2	17	9	TEACHER	1440	n/a	n/a	0	0	0
1829436	START	n/a	LTP389	ltpFR2	17	n/a	n/a	n/a	15	n/a	n/a	n/a	n/a
1830544	DISTRACTOR	n/a	LTP389	ltpFR2	17	9	n/a	n/a	n/a	n/a	0	0	0
1830553	PROB	n/a	LTP389	ltpFR2	17	n/a	n/a	n/a	15	20	9	6	5
1832287	PROB	n/a	LTP389	ltpFR2	17	n/a	n/a	n/a	15	16	6	3	7
1833586	PROB	n/a	LTP389	ltpFR2	17	n/a	n/a	n/a	15	14	9	1	4
1834736	PROB	n/a	LTP389	ltpFR2	17	n/a	n/a	n/a	15	10	8	1	1
1836020	PROB	n/a	LTP389	ltpFR2	17	n/a	n/a	n/a	15	19	9	3	7
1837837	PROB	n/a	LTP389	ltpFR2	17	n/a	n/a	n/a	15	17	6	2	9
1839220	PROB	n/a	LTP389	ltpFR2	17	n/a	n/a	n/a	15	24	7	8	9
1840987	PROB	n/a	LTP389	ltpFR2	17	n/a	n/a	n/a	15	8	3	2	3
1842337	PROB	n/a	LTP389	ltpFR2	17	n/a	n/a	n/a	15	16	7	1	8
1843502	PROB	n/a	LTP389	ltpFR2	17	n/a	n/a	n/a	15	17	8	3	6
1844987	PROB	n/a	LTP389	ltpFR2	17	n/a	n/a	n/a	15	22	5	9	8
1847003	PROB	n/a	LTP389	ltpFR2	17	n/a	n/a	n/a	15	14	2	4	8
1848469	PROB	n/a	LTP389	ltpFR2	17	n/a	n/a	n/a	15	6	1	3	2
1850053	PROB	n/a	LTP389	ltpFR2	17	n/a	n/a	n/a	15	16	7	6	3
1853436	STOP	n/a	LTP389	ltpFR2	17	n/a	n/a	n/a	15	n/a	n/a	n/a	n/a
1855386	REC_START	n/a	LTP389	ltpFR2	17	9	n/a	n/a	n/a	n/a	0	0	0
1858430	REC_WORD	wordpools/wasnorm_wordpool_576.txt	LTP389	ltpFR2	17	9	FLUTE	585	n/a	n/a	0	0	0
1859316	REC_WORD	wordpools/wasnorm_wordpool_576.txt	LTP389	ltpFR2	17	9	MUFFIN	929	n/a	n/a	0	0	0
1860252	REC_WORD	wordpools/wasnorm_wordpool_576.txt	LTP389	ltpFR2	17	9	BROTHER	179	n/a	n/a	0	0	0
1861071	REC_WORD	wordpools/wasnorm_wordpool_576.txt	LTP389	ltpFR2	17	9	PARENT	1013	n/a	n/a	0	0	0
1865384	REC_WORD	wordpools/wasnorm_wordpool_576.txt	LTP389	ltpFR2	17	9	TYPIST	1532	n/a	n/a	0	0	0
1866509	REC_WORD	wordpools/wasnorm_wordpool_576.txt	LTP389	ltpFR2	17	9	OFFICE	972	n/a	n/a	0	0	0
1867614	REC_WORD	wordpools/wasnorm_wordpool_576.txt	LTP389	ltpFR2	17	9	NURSE	963	n/a	n/a	0	0	0
1868818	REC_WORD	wordpools/wasnorm_wordpool_576.txt	LTP389	ltpFR2	17	9	SUNRISE	1407	n/a	n/a	0	0	0
1869823	REC_WORD	wordpools/wasnorm_wordpool_576.txt	LTP389	ltpFR2	17	9	SUNSET	1408	n/a	n/a	0	0	0
1870990	REC_WORD	wordpools/wasnorm_wordpool_576.txt	LTP389	ltpFR2	17	9	AIRPLANE	12	n/a	n/a	0	0	0
1871879	REC_WORD	wordpools/wasnorm_wordpool_576.txt	LTP389	ltpFR2	17	9	GUITAR	670	n/a	n/a	0	0	0
1872875	REC_WORD	wordpools/wasnorm_wordpool_576.txt	LTP389	ltpFR2	17	9	LEOPARD	812	n/a	n/a	0	0	0
1873935	REC_WORD	wordpools/wasnorm_wordpool_576.txt	LTP389	ltpFR2	17	9	SHRUB	1299	n/a	n/a	0	0	0
1875010	REC_WORD	wordpools/wasnorm_wordpool_576.txt	LTP389	ltpFR2	17	9	CURTAIN	427	n/a	n/a	0	0	0
1892361	REC_WORD	wordpools/wasnorm_wordpool_576.txt	LTP389	ltpFR2	17	9	STOMACH	1384	n/a	n/a	0	0	0
1893734	REC_WORD	wordpools/wasnorm_wordpool_576.txt	LTP389	ltpFR2	17	9	WIDOW	1608	n/a	n/a	0	0	0
1908965	REC_WORD	wordpools/wasnorm_wordpool_576.txt	LTP389	ltpFR2	17	9	SHRUB	1299	n/a	n/a	0	0	0
1945852	WORD	wordpools/wasnorm_wordpool_576.txt	LTP389	ltpFR2	17	10	TREAT	1501	n/a	n/a	0	0	0
1948651	WORD	wordpools/wasnorm_wordpool_576.txt	LTP389	ltpFR2	17	10	JAPAN	749	n/a	n/a	0	0	0
1951085	WORD	wordpools/wasnorm_wordpool_576.txt	LTP389	ltpFR2	17	10	GYMNAST	675	n/a	n/a	0	0	0
1953852	WORD	wordpools/wasnorm_wordpool_576.txt	LTP389	ltpFR2	17	10	KEEPER	769	n/a	n/a	0	0	0
1956368	WORD	wordpools/wasnorm_wordpool_576.txt	LTP389	ltpFR2	17	10	FEMALE	559	n/a	n/a	0	0	0
1959101	WORD	wordpools/wasnorm_wordpool_576.txt	LTP389	ltpFR2	17	10	TART	1436	n/a	n/a	0	0	0
1961734	WORD	wordpools/wasnorm_wordpool_576.txt	LTP389	ltpFR2	17	10	ANTLER	29	n/a	n/a	0	0	0
1964168	WORD	wordpools/wasnorm_wordpool_576.txt	LTP389	ltpFR2	17	10	DUST	508	n/a	n/a	0	0	0
1966617	WORD	wordpools/wasnorm_wordpool_576.txt	LTP389	ltpFR2	17	10	SMOG	1330	n/a	n/a	0	0	0
1969035	WORD	wordpools/wasnorm_wordpool_576.txt	LTP389	ltpFR2	17	10	ORANGE	980	n/a	n/a	0	0	0
1971851	WORD	wordpools/wasnorm_wordpool_576.txt	LTP389	ltpFR2	17	10	APPLE	33	n/a	n/a	0	0	0
1974500	WORD	wordpools/wasnorm_wordpool_576.txt	LTP389	ltpFR2	17	10	COSTUME	383	n/a	n/a	0	0	0
1977168	WORD	wordpools/wasnorm_wordpool_576.txt	LTP389	ltpFR2	17	10	SHORTS	1293	n/a	n/a	0	0	0
1979700	WORD	wordpools/wasnorm_wordpool_576.txt	LTP389	ltpFR2	17	10	LAGOON	795	n/a	n/a	0	0	0
1982334	WORD	wordpools/wasnorm_wordpool_576.txt	LTP389	ltpFR2	17	10	TUTU	1524	n/a	n/a	0	0	0
1984818	WORD	wordpools/wasnorm_wordpool_576.txt	LTP389	ltpFR2	17	10	GUARD	667	n/a	n/a	0	0	0
1987251	WORD	wordpools/wasnorm_wordpool_576.txt	LTP389	ltpFR2	17	10	SKIRT	1319	n/a	n/a	0	0	0
1989884	WORD	wordpools/wasnorm_wordpool_576.txt	LTP389	ltpFR2	17	10	SCOTCH	1251	n/a	n/a	0	0	0
1992500	WORD	wordpools/wasnorm_wordpool_576.txt	LTP389	ltpFR2	17	10	CROSS	413	n/a	n/a	0	0	0
1994984	WORD	wordpools/wasnorm_wordpool_576.txt	LTP389	ltpFR2	17	10	ASIA	46	n/a	n/a	0	0	0
1997616	WORD	wordpools/wasnorm_wordpool_576.txt	LTP389	ltpFR2	17	10	VIRUS	1572	n/a	n/a	0	0	0
2000101	WORD	wordpools/wasnorm_wordpool_576.txt	LTP389	ltpFR2	17	10	LIZARD	834	n/a	n/a	0	0	0
2002583	WORD	wordpools/wasnorm_wordpool_576.txt	LTP389	ltpFR2	17	10	POISON	1096	n/a	n/a	0	0	0
2005267	WORD	wordpools/wasnorm_wordpool_576.txt	LTP389	ltpFR2	17	10	HUMAN	726	n/a	n/a	0	0	0
2006884	START	n/a	LTP389	ltpFR2	17	n/a	n/a	n/a	16	n/a	n/a	n/a	n/a
2007790	DISTRACTOR	n/a	LTP389	ltpFR2	17	10	n/a	n/a	n/a	n/a	0	0	0
2007801	PROB	n/a	LTP389	ltpFR2	17	n/a	n/a	n/a	16	15	8	1	6
2009383	PROB	n/a	LTP389	ltpFR2	17	n/a	n/a	n/a	16	16	9	2	5
2010683	PROB	n/a	LTP389	ltpFR2	17	n/a	n/a	n/a	16	19	3	9	7
2013666	PROB	n/a	LTP389	ltpFR2	17	n/a	n/a	n/a	16	15	7	3	5
2015383	PROB	n/a	LTP389	ltpFR2	17	n/a	n/a	n/a	16	19	4	8	6
2017167	PROB	n/a	LTP389	ltpFR2	17	n/a	n/a	n/a	16	13	4	2	7
2018616	PROB	n/a	LTP389	ltpFR2	17	n/a	n/a	n/a	16	18	9	5	4
2019967	PROB	n/a	LTP389	ltpFR2	17	n/a	n/a	n/a	16	10	1	1	8
2021101	PROB	n/a	LTP389	ltpFR2	17	n/a	n/a	n/a	16	16	7	1	8
2022800	PROB	n/a	LTP389	ltpFR2	17	n/a	n/a	n/a	16	17	4	6	7
2024167	PROB	n/a	LTP389	ltpFR2	17	n/a	n/a	n/a	16	7	4	2	1
2027984	PROB	n/a	LTP389	ltpFR2	17	n/a	n/a	n/a	16	11	7	3	1
2029400	STOP	n/a	LTP389	ltpFR2	17	n/a	n/a	n/a	16	n/a	n/a	n/a	n/a
2032683	REC_START	n/a	LTP389	ltpFR2	17	10	n/a	n/a	n/a	n/a	0	0	0
2033708	REC_WORD	wordpools/wasnorm_wordpool_576.txt	LTP389	ltpFR2	17	10	TREAT	1501	n/a	n/a	0	0	0
2036070	REC_WORD	wordpools/wasnorm_wordpool_576.txt	LTP389	ltpFR2	17	10	JAPAN	749	n/a	n/a	0	0	0
2044274	REC_WORD	wordpools/wasnorm_wordpool_576.txt	LTP389	ltpFR2	17	10	TART	1436	n/a	n/a	0	0	0
2049261	REC_WORD	wordpools/wasnorm_wordpool_576.txt	LTP389	ltpFR2	17	10	GIRL	637	n/a	n/a	0	0	0
2051365	REC_WORD	wordpools/wasnorm_wordpool_576.txt	LTP389	ltpFR2	17	10	DUST	508	n/a	n/a	0	0	0
2052201	REC_WORD	wordpools/wasnorm_wordpool_576.txt	LTP389	ltpFR2	17	10	ANTLER	29	n/a	n/a	0	0	0
2053337	REC_WORD	wordpools/wasnorm_wordpool_576.txt	LTP389	ltpFR2	17	10	OUTFIT	988	n/a	n/a	0	0	0
2054972	REC_WORD	wordpools/wasnorm_wordpool_576.txt	LTP389	ltpFR2	17	10	TUTU	1524	n/a	n/a	0	0	0
2056006	REC_WORD	wordpools/wasnorm_wordpool_576.txt	LTP389	ltpFR2	17	10	SKIRT	1319	n/a	n/a	0	0	0
2062246	REC_WORD	wordpools/wasnorm_wordpool_576.txt	LTP389	ltpFR2	17	10	ASIA	46	n/a	n/a	0	0	0
2065549	REC_WORD	wordpools/wasnorm_wordpool_576.txt	LTP389	ltpFR2	17	10	POISON	1096	n/a	n/a	0	0	0
2102888	REC_WORD	wordpools/wasnorm_wordpool_576.txt	LTP389	ltpFR2	17	10	GYMNAST	675	n/a	n/a	0	0	0
2123149	WORD	wordpools/wasnorm_wordpool_576.txt	LTP389	ltpFR2	17	11	GARLIC	624	n/a	n/a	0	0	0
2125765	WORD	wordpools/wasnorm_wordpool_576.txt	LTP389	ltpFR2	17	11	STATUE	1374	n/a	n/a	0	0	0
2128448	WORD	wordpools/wasnorm_wordpool_576.txt	LTP389	ltpFR2	17	11	SCULPTURE	1258	n/a	n/a	0	0	0
2131165	WORD	wordpools/wasnorm_wordpool_576.txt	LTP389	ltpFR2	17	11	SHELF	1280	n/a	n/a	0	0	0
2133849	WORD	wordpools/wasnorm_wordpool_576.txt	LTP389	ltpFR2	17	11	SNAKE	1333	n/a	n/a	0	0	0
2136648	WORD	wordpools/wasnorm_wordpool_576.txt	LTP389	ltpFR2	17	11	RATTLE	1170	n/a	n/a	0	0	0
2139282	WORD	wordpools/wasnorm_wordpool_576.txt	LTP389	ltpFR2	17	11	TWIG	1527	n/a	n/a	0	0	0
2142032	WORD	wordpools/wasnorm_wordpool_576.txt	LTP389	ltpFR2	17	11	BANKER	84	n/a	n/a	0	0	0
2144531	WORD	wordpools/wasnorm_wordpool_576.txt	LTP389	ltpFR2	17	11	CABBAGE	210	n/a	n/a	0	0	0
2147198	WORD	wordpools/wasnorm_wordpool_576.txt	LTP389	ltpFR2	17	11	SKETCH	1315	n/a	n/a	0	0	0
2149832	WORD	wordpools/wasnorm_wordpool_576.txt	LTP389	ltpFR2	17	11	GALLON	618	n/a	n/a	0	0	0
2152631	WORD	wordpools/wasnorm_wordpool_576.txt	LTP389	ltpFR2	17	11	HEART	697	n/a	n/a	0	0	0
2155115	WORD	wordpools/wasnorm_wordpool_576.txt	LTP389	ltpFR2	17	11	HEDGE	699	n/a	n/a	0	0	0
2157697	WORD	wordpools/wasnorm_wordpool_576.txt	LTP389	ltpFR2	17	11	STOVE	1388	n/a	n/a	0	0	0
2160414	WORD	wordpools/wasnorm_wordpool_576.txt	LTP389	ltpFR2	17	11	APRON	35	n/a	n/a	0	0	0
2163131	WORD	wordpools/wasnorm_wordpool_576.txt	LTP389	ltpFR2	17	11	BUTCHER	203	n/a	n/a	0	0	0
2165580	WORD	wordpools/wasnorm_wordpool_576.txt	LTP389	ltpFR2	17	11	STAPLE	1371	n/a	n/a	0	0	0
2168365	WORD	wordpools/wasnorm_wordpool_576.txt	LTP389	ltpFR2	17	11	TABLE	1426	n/a	n/a	0	0	0
2170998	WORD	wordpools/wasnorm_wordpool_576.txt	LTP389	ltpFR2	17	11	STUDENT	1395	n/a	n/a	0	0	0
2173614	WORD	wordpools/wasnorm_wordpool_576.txt	LTP389	ltpFR2	17	11	WINDOW	1611	n/a	n/a	0	0	0
2176098	WORD	wordpools/wasnorm_wordpool_576.txt	LTP389	ltpFR2	17	11	ATOM	55	n/a	n/a	0	0	0
2178564	WORD	wordpools/wasnorm_wordpool_576.txt	LTP389	ltpFR2	17	11	BLENDER	136	n/a	n/a	0	0	0
2181298	WORD	wordpools/wasnorm_wordpool_576.txt	LTP389	ltpFR2	17	11	ICING	732	n/a	n/a	0	0	0
2184098	WORD	wordpools/wasnorm_wordpool_576.txt	LTP389	ltpFR2	17	11	DONOR	485	n/a	n/a	0	0	0
2185714	START	n/a	LTP389	ltpFR2	17	n/a	n/a	n/a	17	n/a	n/a	n/a	n/a
2186690	DISTRACTOR	n/a	LTP389	ltpFR2	17	11	n/a	n/a	n/a	n/a	0	0	0
2186697	PROB	n/a	LTP389	ltpFR2	17	n/a	n/a	n/a	17	15	7	3	5
2188848	PROB	n/a	LTP389	ltpFR2	17	n/a	n/a	n/a	17	16	5	3	8
2190181	PROB	n/a	LTP389	ltpFR2	17	n/a	n/a	n/a	17	16	4	7	5
2192281	PROB	n/a	LTP389	ltpFR2	17	n/a	n/a	n/a	17	14	1	4	9
2194597	PROB	n/a	LTP389	ltpFR2	17	n/a	n/a	n/a	17	15	6	4	5
2195881	PROB	n/a	LTP389	ltpFR2	17	n/a	n/a	n/a	17	20	7	9	4
2197780	PROB	n/a	LTP389	ltpFR2	17	n/a	n/a	n/a	17	16	9	3	4
2199931	PROB	n/a	LTP389	ltpFR2	17	n/a	n/a	n/a	17	11	7	2	2
2201048	PROB	n/a	LTP389	ltpFR2	17	n/a	n/a	n/a	17	16	7	7	2
2202264	PROB	n/a	LTP389	ltpFR2	17	n/a	n/a	n/a	17	18	7	2	9
2203914	PROB	n/a	LTP389	ltpFR2	17	n/a	n/a	n/a	17	21	9	5	7
2206596	PROB	n/a	LTP389	ltpFR2	17	n/a	n/a	n/a	17	14	2	6	6
2209713	STOP	n/a	LTP389	ltpFR2	17	n/a	n/a	n/a	17	n/a	n/a	n/a	n/a
2211581	REC_START	n/a	LTP389	ltpFR2	17	11	n/a	n/a	n/a	n/a	0	0	0
2222076	REC_WORD	wordpools/wasnorm_wordpool_576.txt	LTP389	ltpFR2	17	11	SCULPTURE	1258	n/a	n/a	0	0	0
2222863	REC_WORD	wordpools/wasnorm_wordpool_576.txt	LTP389	ltpFR2	17	11	STATUE	1374	n/a	n/a	0	0	0
2223805	REC_WORD	wordpools/wasnorm_wordpool_576.txt	LTP389	ltpFR2	17	11	GARLIC	624	n/a	n/a	0	0	0
2224742	REC_WORD	wordpools/wasnorm_wordpool_576.txt	LTP389	ltpFR2	17	11	RATTLE	1170	n/a	n/a	0	0	0
2225411	REC_WORD	wordpools/wasnorm_wordpool_576.txt	LTP389	ltpFR2	17	11	SNAKE	1333	n/a	n/a	0	0	0
2226348	REC_WORD	wordpools/wasnorm_wordpool_576.txt	LTP389	ltpFR2	17	11	TWIG	1527	n/a	n/a	0	0	0
2227511	REC_WORD	wordpools/wasnorm_wordpool_576.txt	LTP389	ltpFR2	17	11	BANKER	84	n/a	n/a	0	0	0
2228416	REC_WORD	wordpools/wasnorm_wordpool_576.txt	LTP389	ltpFR2	17	11	BUTCHER	203	n/a	n/a	0	0	0
2229254	REC_WORD	wordpools/wasnorm_wordpool_576.txt	LTP389	ltpFR2	17	11	BLENDER	136	n/a	n/a	0	0	0
2230988	REC_WORD	wordpools/wasnorm_wordpool_576.txt	LTP389	ltpFR2	17	11	SHELF	1280	n/a	n/a	0	0	0
2245034	REC_WORD	wordpools/wasnorm_wordpool_576.txt	LTP389	ltpFR2	17	11	OVEN	991	n/a	n/a	0	0	0
2259548	REC_WORD	wordpools/wasnorm_wordpool_576.txt	LTP389	ltpFR2	17	11	SHRUB	1299	n/a	n/a	0	0	0
2260624	REC_WORD	wordpools/wasnorm_wordpool_576.txt	LTP389	ltpFR2	17	11	HEDGE	699	n/a	n/a	0	0	0
2302046	WORD	wordpools/wasnorm_wordpool_576.txt	LTP389	ltpFR2	17	12	DORM	488	n/a	n/a	0	0	0
2304846	WORD	wordpools/wasnorm_wordpool_576.txt	LTP389	ltpFR2	17	12	STONE	1385	n/a	n/a	0	0	0
2307395	WORD	wordpools/wasnorm_wordpool_576.txt	LTP389	ltpFR2	17	12	CHAMPAGNE	278	n/a	n/a	0	0	0
2309896	WORD	wordpools/wasnorm_wordpool_576.txt	LTP389	ltpFR2	17	12	SEAFOOD	1260	n/a	n/a	0	0	0
2312611	WORD	wordpools/wasnorm_wordpool_576.txt	LTP389	ltpFR2	17	12	PERCH	1048	n/a	n/a	0	0	0
2315212	WORD	wordpools/wasnorm_wordpool_576.txt	LTP389	ltpFR2	17	12	KIDNEY	776	n/a	n/a	0	0	0
2317745	WORD	wordpools/wasnorm_wordpool_576.txt	LTP389	ltpFR2	17	12	JEANS	752	n/a	n/a	0	0	0
2320478	WORD	wordpools/wasnorm_wordpool_576.txt	LTP389	ltpFR2	17	12	COBRA	336	n/a	n/a	0	0	0
2323262	WORD	wordpools/wasnorm_wordpool_576.txt	LTP389	ltpFR2	17	12	CONVICT	371	n/a	n/a	0	0	0
2325711	WORD	wordpools/wasnorm_wordpool_576.txt	LTP389	ltpFR2	17	12	MARKET	871	n/a	n/a	0	0	0
2328179	WORD	wordpools/wasnorm_wordpool_576.txt	LTP389	ltpFR2	17	12	PASSAGE	1019	n/a	n/a	0	0	0
2330794	WORD	wordpools/wasnorm_wordpool_576.txt	LTP389	ltpFR2	17	12	MARS	873	n/a	n/a	0	0	0
2333394	WORD	wordpools/wasnorm_wordpool_576.txt	LTP389	ltpFR2	17	12	NEUTRON	947	n/a	n/a	0	0	0
2336179	WORD	wordpools/wasnorm_wordpool_576.txt	LTP389	ltpFR2	17	12	MOTEL	919	n/a	n/a	0	0	0
2338711	WORD	wordpools/wasnorm_wordpool_576.txt	LTP389	ltpFR2	17	12	LODGE	839	n/a	n/a	0	0	0
2341245	WORD	wordpools/wasnorm_wordpool_576.txt	LTP389	ltpFR2	17	12	GARBAGE	622	n/a	n/a	0	0	0
2343678	WORD	wordpools/wasnorm_wordpool_576.txt	LTP389	ltpFR2	17	12	SALMON	1227	n/a	n/a	0	0	0
2346128	WORD	wordpools/wasnorm_wordpool_576.txt	LTP389	ltpFR2	17	12	MILDEW	893	n/a	n/a	0	0	0
2348694	WORD	wordpools/wasnorm_wordpool_576.txt	LTP389	ltpFR2	17	12	STAKE	1368	n/a	n/a	0	0	0
2351162	WORD	wordpools/wasnorm_wordpool_576.txt	LTP389	ltpFR2	17	12	OINTMENT	974	n/a	n/a	0	0	0
2353978	WORD	wordpools/wasnorm_wordpool_576.txt	LTP389	ltpFR2	17	12	SHIRT	1287	n/a	n/a	0	0	0
2356561	WORD	wordpools/wasnorm_wordpool_576.txt	LTP389	ltpFR2	17	12	DRESS	495	n/a	n/a	0	0	0
2359345	WORD	wordpools/wasnorm_wordpool_576.txt	LTP389	ltpFR2	17	12	TAXI	1438	n/a	n/a	0	0	0
2361995	WORD	wordpools/wasnorm_wordpool_576.txt	LTP389	ltpFR2	17	12	HOOK	715	n/a	n/a	0	0	0
2363611	START	n/a	LTP389	ltpFR2	17	n/a	n/a	n/a	18	n/a	n/a	n/a	n/a
2364496	DISTRACTOR	n/a	LTP389	ltpFR2	17	12	n/a	n/a	n/a	n/a	0	0	0
2364510	PROB	n/a	LTP389	ltpFR2	17	n/a	n/a	n/a	18	11	5	1	5
2365677	PROB	n/a	LTP389	ltpFR2	17	n/a	n/a	n/a	18	19	4	9	6
2367660	PROB	n/a	LTP389	ltpFR2	17	n/a	n/a	n/a	18	22	9	6	7
2369377	PROB	n/a	LTP389	ltpFR2	17	n/a	n/a	n/a	18	8	3	2	3
2370794	PROB	n/a	LTP389	ltpFR2	17	n/a	n/a	n/a	18	18	5	5	8
2372045	PROB	n/a	LTP389	ltpFR2	17	n/a	n/a	n/a	18	10	1	5	4
2373494	PROB	n/a	LTP389	ltpFR2	17	n/a	n/a	n/a	18	13	6	6	1
2374710	PROB	n/a	LTP389	ltpFR2	17	n/a	n/a	n/a	18	13	7	1	5
2376128	PROB	n/a	LTP389	ltpFR2	17	n/a	n/a	n/a	18	9	1	5	3
2377527	PROB	n/a	LTP389	ltpFR2	17	n/a	n/a	n/a	18	19	7	9	3
2379444	PROB	n/a	LTP389	ltpFR2	17	n/a	n/a	n/a	18	17	9	6	2
2381211	PROB	n/a	LTP389	ltpFR2	17	n/a	n/a	n/a	18	24	9	6	9
2383961	PROB	n/a	LTP389	ltpFR2	17	n/a	n/a	n/a	18	13	6	5	2
2385345	PROB	n/a	LTP389	ltpFR2	17	n/a	n/a	n/a	18	10	2	1	7
2386722	STOP	n/a	LTP389	ltpFR2	17	n/a	n/a	n/a	18	n/a	n/a	n/a	n/a
2389494	REC_START	n/a	LTP389	ltpFR2	17	12	n/a	n/a	n/a	n/a	0	0	0
2390682	REC_WORD	wordpools/wasnorm_wordpool_576.txt	LTP389	ltpFR2	17	12	DORM	488	n/a	n/a	0	0	0
2391407	REC_WORD	wordpools/wasnorm_wordpool_576.txt	LTP389	ltpFR2	17	12	STONE	1385	n/a	n/a	0	0	0
2392684	REC_WORD	wordpools/wasnorm_wordpool_576.txt	LTP389	ltpFR2	17	12	SEAFOOD	1260	n/a	n/a	0	0	0
2393605	REC_WORD	wordpools/wasnorm_wordpool_576.txt	LTP389	ltpFR2	17	12	CHAMPAGNE	278	n/a	n/a	0	0	0
2396870	REC_WORD	wordpools/wasnorm_wordpool_576.txt	LTP389	ltpFR2	17	12	SHELF	1280	n/a	n/a	0	0	0
2400045	REC_WORD	wordpools/wasnorm_wordpool_576.txt	LTP389	ltpFR2	17	12	PERCH	1048	n/a	n/a	0	0	0
2402994	REC_WORD	wordpools/wasnorm_wordpool_576.txt	LTP389	ltpFR2	17	12	SALMON	1227	n/a	n/a	0	0	0
2404022	REC_WORD	wordpools/wasnorm_wordpool_576.txt	LTP389	ltpFR2	17	12	STAKE	1368	n/a	n/a	0	0	0
2408386	REC_WORD	wordpools/wasnorm_wordpool_576.txt	LTP389	ltpFR2	17	12	CONVICT	371	n/a	n/a	0	0	0
2412426	REC_WORD	wordpools/wasnorm_wordpool_576.txt	LTP389	ltpFR2	17	12	PLAZA	1088	n/a	n/a	0	0	0
2414694	REC_WORD	wordpools/wasnorm_wordpool_576.txt	LTP389	ltpFR2	17	12	TAXI	1438	n/a	n/a	0	0	0
2415813	REC_WORD	wordpools/wasnorm_wordpool_576.txt	LTP389	ltpFR2	17	12	DRESS	495	n/a	n/a	0	0	0
2419169	REC_WORD	wordpools/wasnorm_wordpool_576.txt	LTP389	ltpFR2	17	12	JEANS	752	n/a	n/a	0	0	0
2426885	REC_WORD	wordpools/wasnorm_wordpool_576.txt	LTP389	ltpFR2	17	12	LODGE	839	n/a	n/a	0	0	0
2427968	REC_WORD	wordpools/wasnorm_wordpool_576.txt	LTP389	ltpFR2	17	12	MOTEL	919	n/a	n/a	0	0	0
2461868	REC_WORD	wordpools/wasnorm_wordpool_576.txt	LTP389	ltpFR2	17	12	KIDNEY	776	n/a	n/a	0	0	0
2479943	WORD	wordpools/wasnorm_wordpool_576.txt	LTP389	ltpFR2	17	13	DRILL	497	n/a	n/a	0	0	0
2482609	WORD	wordpools/wasnorm_wordpool_576.txt	LTP389	ltpFR2	17	13	JELLY	755	n/a	n/a	0	0	0
2485375	WORD	wordpools/wasnorm_wordpool_576.txt	LTP389	ltpFR2	17	13	GHETTO	633	n/a	n/a	0	0	0
2487876	WORD	wordpools/wasnorm_wordpool_576.txt	LTP389	ltpFR2	17	13	LAKE	796	n/a	n/a	0	0	0
2490508	WORD	wordpools/wasnorm_wordpool_576.txt	LTP389	ltpFR2	17	13	SLOPE	1328	n/a	n/a	0	0	0
2493176	WORD	wordpools/wasnorm_wordpool_576.txt	LTP389	ltpFR2	17	13	POSTAGE	1113	n/a	n/a	0	0	0
2495909	WORD	wordpools/wasnorm_wordpool_576.txt	LTP389	ltpFR2	17	13	CABIN	211	n/a	n/a	0	0	0
2498625	WORD	wordpools/wasnorm_wordpool_576.txt	LTP389	ltpFR2	17	13	RABBIT	1152	n/a	n/a	0	0	0
2501109	WORD	wordpools/wasnorm_wordpool_576.txt	LTP389	ltpFR2	17	13	ACTOR	5	n/a	n/a	0	0	0
2503558	WORD	wordpools/wasnorm_wordpool_576.txt	LTP389	ltpFR2	17	13	MAILMAN	858	n/a	n/a	0	0	0
2506076	WORD	wordpools/wasnorm_wordpool_576.txt	LTP389	ltpFR2	17	13	CHEMIST	292	n/a	n/a	0	0	0
2508826	WORD	wordpools/wasnorm_wordpool_576.txt	LTP389	ltpFR2	17	13	PLIERS	1089	n/a	n/a	0	0	0
2511625	WORD	wordpools/wasnorm_wordpool_576.txt	LTP389	ltpFR2	17	13	PACKAGE	997	n/a	n/a	0	0	0
2514392	WORD	wordpools/wasnorm_wordpool_576.txt	LTP389	ltpFR2	17	13	FRANCE	601	n/a	n/a	0	0	0
2517176	WORD	wordpools/wasnorm_wordpool_576.txt	LTP389	ltpFR2	17	13	COUNTRY	388	n/a	n/a	0	0	0
2519859	WORD	wordpools/wasnorm_wordpool_576.txt	LTP389	ltpFR2	17	13	BOARD	143	n/a	n/a	0	0	0
2522658	WORD	wordpools/wasnorm_wordpool_576.txt	LTP389	ltpFR2	17	13	NOVEL	960	n/a	n/a	0	0	0
2525209	WORD	wordpools/wasnorm_wordpool_576.txt	LTP389	ltpFR2	17	13	MACHINE	852	n/a	n/a	0	0	0
2527859	WORD	wordpools/wasnorm_wordpool_576.txt	LTP389	ltpFR2	17	13	THREAD	1460	n/a	n/a	0	0	0
2530375	WORD	wordpools/wasnorm_wordpool_576.txt	LTP389	ltpFR2	17	13	SALAD	1224	n/a	n/a	0	0	0
2532809	WORD	wordpools/wasnorm_wordpool_576.txt	LTP389	ltpFR2	17	13	CHILD	299	n/a	n/a	0	0	0
2535491	WORD	wordpools/wasnorm_wordpool_576.txt	LTP389	ltpFR2	17	13	CRIB	407	n/a	n/a	0	0	0
2538075	WORD	wordpools/wasnorm_wordpool_576.txt	LTP389	ltpFR2	17	13	SKILLET	1317	n/a	n/a	0	0	0
2540524	WORD	wordpools/wasnorm_wordpool_576.txt	LTP389	ltpFR2	17	13	YOLK	1633	n/a	n/a	0	0	0
2542125	START	n/a	LTP389	ltpFR2	17	n/a	n/a	n/a	19	n/a	n/a	n/a	n/a
2543213	DISTRACTOR	n/a	LTP389	ltpFR2	17	13	n/a	n/a	n/a	n/a	0	0	0
2543225	PROB	n/a	LTP389	ltpFR2	17	n/a	n/a	n/a	19	15	1	7	7
2545059	PROB	n/a	LTP389	ltpFR2	17	n/a	n/a	n/a	19	10	4	5	1
2546325	PROB	n/a	LTP389	ltpFR2	17	n/a	n/a	n/a	19	10	7	1	2
2547558	PROB	n/a	LTP389	ltpFR2	17	n/a	n/a	n/a	19	11	2	6	3
2550309	PROB	n/a	LTP389	ltpFR2	17	n/a	n/a	n/a	19	22	7	7	8
2552225	PROB	n/a	LTP389	ltpFR2	17	n/a	n/a	n/a	19	11	6	2	3
2553607	PROB	n/a	LTP389	ltpFR2	17	n/a	n/a	n/a	19	18	5	9	4
2555125	PROB	n/a	LTP389	ltpFR2	17	n/a	n/a	n/a	19	16	3	4	9
2556424	PROB	n/a	LTP389	ltpFR2	17	n/a	n/a	n/a	19	8	6	1	1
2557524	PROB	n/a	LTP389	ltpFR2	17	n/a	n/a	n/a	19	16	9	3	4
2559042	PROB	n/a	LTP389	ltpFR2	17	n/a	n/a	n/a	19	14	1	8	5
2560557	PROB	n/a	LTP389	ltpFR2	17	n/a	n/a	n/a	19	23	8	8	7
2562925	PROB	n/a	LTP389	ltpFR2	17	n/a	n/a	n/a	19	6	1	3	2
2564108	PROB	n/a	LTP389	ltpFR2	17	n/a	n/a	n/a	19	11	7	3	1
2565392	STOP	n/a	LTP389	ltpFR2	17	n/a	n/a	n/a	19	n/a	n/a	n/a	n/a
2568009	REC_START	n/a	LTP389	ltpFR2	17	13	n/a	n/a	n/a	n/a	0	0	0
2570973	REC_WORD	wordpools/wasnorm_wordpool_576.txt	LTP389	ltpFR2	17	13	SKILLET	1317	n/a	n/a	0	0	0
2572100	REC_WORD	wordpools/wasnorm_wordpool_576.txt	LTP389	ltpFR2	17	13	YOLK	1633	n/a	n/a	0	0	0
2576180	REC_WORD	wordpools/wasnorm_wordpool_576.txt	LTP389	ltpFR2	17	13	GARAGE	621	n/a	n/a	0	0	0
2578951	REC_WORD	wordpools/wasnorm_wordpool_576.txt	LTP389	ltpFR2	17	13	MAILMAN	858	n/a	n/a	0	0	0
2579843	REC_WORD	wordpools/wasnorm_wordpool_576.txt	LTP389	ltpFR2	17	13	MACHINE	852	n/a	n/a	0	0	0
2580765	REC_WORD	wordpools/wasnorm_wordpool_576.txt	LTP389	ltpFR2	17	13	NOVEL	960	n/a	n/a	0	0	0
2581543	REC_WORD	wordpools/wasnorm_wordpool_576.txt	LTP389	ltpFR2	17	13	SLOPE	1328	n/a	n/a	0	0	0
2582593	REC_WORD	wordpools/wasnorm_wordpool_576.txt	LTP389	ltpFR2	17	13	BOARD	143	n/a	n/a	0	0	0
2584281	REC_WORD	wordpools/wasnorm_wordpool_576.txt	LTP389	ltpFR2	17	13	CHILD	299	n/a	n/a	0	0	0
2588093	REC_WORD	wordpools/wasnorm_wordpool_576.txt	LTP389	ltpFR2	17	13	CHEMIST	292	n/a	n/a	0	0	0
2593784	REC_WORD	wordpools/wasnorm_wordpool_576.txt	LTP389	ltpFR2	17	13	PACKAGE	997	n/a	n/a	0	0	0
2594794	REC_WORD	wordpools/wasnorm_wordpool_576.txt	LTP389	ltpFR2	17	13	POSTAGE	1113	n/a	n/a	0	0	0
2614882	REC_WORD	wordpools/wasnorm_wordpool_576.txt	LTP389	ltpFR2	17	13	PLIERS	1089	n/a	n/a	0	0	0
2630215	REC_WORD	wordpools/wasnorm_wordpool_576.txt	LTP389	ltpFR2	17	13	THREAD	1460	n/a	n/a	0	0	0
2658456	DISTRACTOR	n/a	LTP389	ltpFR2	17	14	n/a	n/a	n/a	n/a	0	0	0
2658456	START	n/a	LTP389	ltpFR2	17	n/a	n/a	n/a	20	n/a	n/a	n/a	n/a
2658472	PROB	n/a	LTP389	ltpFR2	17	n/a	n/a	n/a	20	12	2	8	2
2659722	PROB	n/a	LTP389	ltpFR2	17	n/a	n/a	n/a	20	24	9	7	6
2661940	PROB	n/a	LTP389	ltpFR2	17	n/a	n/a	n/a	20	17	8	6	3
2663406	PROB	n/a	LTP389	ltpFR2	17	n/a	n/a	n/a	20	22	6	7	9
2665140	PROB	n/a	LTP389	ltpFR2	17	n/a	n/a	n/a	20	18	7	5	6
2667107	PROB	n/a	LTP389	ltpFR2	17	n/a	n/a	n/a	20	9	2	4	3
2668422	PROB	n/a	LTP389	ltpFR2	17	n/a	n/a	n/a	20	19	9	6	4
2669907	PROB	n/a	LTP389	ltpFR2	17	n/a	n/a	n/a	20	22	7	8	7
2672290	PROB	n/a	LTP389	ltpFR2	17	n/a	n/a	n/a	20	12	7	1	4
2673605	PROB	n/a	LTP389	ltpFR2	17	n/a	n/a	n/a	20	15	3	6	6
2675572	PROB	n/a	LTP389	ltpFR2	17	n/a	n/a	n/a	20	23	9	7	7
2677090	PROB	n/a	LTP389	ltpFR2	17	n/a	n/a	n/a	20	15	4	7	4
2678472	PROB	n/a	LTP389	ltpFR2	17	n/a	n/a	n/a	20	12	8	1	3
2679722	PROB	n/a	LTP389	ltpFR2	17	n/a	n/a	n/a	20	5	2	1	2
2680823	PROB	n/a	LTP389	ltpFR2	17	n/a	n/a	n/a	20	15	7	3	5
2682020	STOP	n/a	LTP389	ltpFR2	17	n/a	n/a	n/a	20	n/a	n/a	n/a	n/a
2683306	WORD	wordpools/wasnorm_wordpool_576.txt	LTP389	ltpFR2	17	14	COOKBOOK	373	n/a	n/a	0	0	0
2686123	WORD	wordpools/wasnorm_wordpool_576.txt	LTP389	ltpFR2	17	14	CREATURE	403	n/a	n/a	0	0	0
2688739	WORD	wordpools/wasnorm_wordpool_576.txt	LTP389	ltpFR2	17	14	VICTIM	1562	n/a	n/a	0	0	0
2691372	WORD	wordpools/wasnorm_wordpool_576.txt	LTP389	ltpFR2	17	14	ELBOW	520	n/a	n/a	0	0	0
2694023	WORD	wordpools/wasnorm_wordpool_576.txt	LTP389	ltpFR2	17	14	BLOUSE	139	n/a	n/a	0	0	0
2696688	WORD	wordpools/wasnorm_wordpool_576.txt	LTP389	ltpFR2	17	14	BALLOON	75	n/a	n/a	0	0	0
2699488	WORD	wordpools/wasnorm_wordpool_576.txt	LTP389	ltpFR2	17	14	MILK	895	n/a	n/a	0	0	0
2702273	WORD	wordpools/wasnorm_wordpool_576.txt	LTP389	ltpFR2	17	14	CASKET	255	n/a	n/a	0	0	0
2704923	WORD	wordpools/wasnorm_wordpool_576.txt	LTP389	ltpFR2	17	14	CONTRACT	368	n/a	n/a	0	0	0
2707438	WORD	wordpools/wasnorm_wordpool_576.txt	LTP389	ltpFR2	17	14	SCALLOP	1242	n/a	n/a	0	0	0
2710089	WORD	wordpools/wasnorm_wordpool_576.txt	LTP389	ltpFR2	17	14	CLAM	315	n/a	n/a	0	0	0
2712522	WORD	wordpools/wasnorm_wordpool_576.txt	LTP389	ltpFR2	17	14	FRECKLE	602	n/a	n/a	0	0	0
2715206	WORD	wordpools/wasnorm_wordpool_576.txt	LTP389	ltpFR2	17	14	SERVANT	1271	n/a	n/a	0	0	0
2717755	WORD	wordpools/wasnorm_wordpool_576.txt	LTP389	ltpFR2	17	14	ULCER	1533	n/a	n/a	0	0	0
2720289	WORD	wordpools/wasnorm_wordpool_576.txt	LTP389	ltpFR2	17	14	DRESSER	496	n/a	n/a	0	0	0
2723006	WORD	wordpools/wasnorm_wordpool_576.txt	LTP389	ltpFR2	17	14	WASHER	1592	n/a	n/a	0	0	0
2725771	WORD	wordpools/wasnorm_wordpool_576.txt	LTP389	ltpFR2	17	14	LILY	821	n/a	n/a	0	0	0
2728588	WORD	wordpools/wasnorm_wordpool_576.txt	LTP389	ltpFR2	17	14	KITCHEN	778	n/a	n/a	0	0	0
2731239	WORD	wordpools/wasnorm_wordpool_576.txt	LTP389	ltpFR2	17	14	BRANDY	169	n/a	n/a	0	0	0
2733872	WORD	wordpools/wasnorm_wordpool_576.txt	LTP389	ltpFR2	17	14	OZONE	996	n/a	n/a	0	0	0
2736322	WORD	wordpools/wasnorm_wordpool_576.txt	LTP389	ltpFR2	17	14	CREVICE	405	n/a	n/a	0	0	0
2738955	WORD	wordpools/wasnorm_wordpool_576.txt	LTP389	ltpFR2	17	14	DANDRUFF	439	n/a	n/a	0	0	0
2741404	WORD	wordpools/wasnorm_wordpool_576.txt	LTP389	ltpFR2	17	14	DENIM	446	n/a	n/a	0	0	0
2744055	WORD	wordpools/wasnorm_wordpool_576.txt	LTP389	ltpFR2	17	14	EMPIRE	530	n/a	n/a	0	0	0
2745671	START	n/a	LTP389	ltpFR2	17	n/a	n/a	n/a	21	n/a	n/a	n/a	n/a
2746826	DISTRACTOR	n/a	LTP389	ltpFR2	17	14	n/a	n/a	n/a	n/a	0	0	0
2746839	PROB	n/a	LTP389	ltpFR2	17	n/a	n/a	n/a	21	18	5	7	6
2748654	PROB	n/a	LTP389	ltpFR2	17	n/a	n/a	n/a	21	21	9	5	7
2751338	PROB	n/a	LTP389	ltpFR2	17	n/a	n/a	n/a	21	15	5	3	7
2752571	PROB	n/a	LTP389	ltpFR2	17	n/a	n/a	n/a	21	17	6	8	3
2754471	PROB	n/a	LTP389	ltpFR2	17	n/a	n/a	n/a	21	15	5	5	5
2755488	PROB	n/a	LTP389	ltpFR2	17	n/a	n/a	n/a	21	15	4	2	9
2756637	PROB	n/a	LTP389	ltpFR2	17	n/a	n/a	n/a	21	18	8	6	4
2757938	PROB	n/a	LTP389	ltpFR2	17	n/a	n/a	n/a	21	9	7	1	1
2758988	PROB	n/a	LTP389	ltpFR2	17	n/a	n/a	n/a	21	12	4	7	1
2760754	PROB	n/a	LTP389	ltpFR2	17	n/a	n/a	n/a	21	12	9	2	1
2762105	PROB	n/a	LTP389	ltpFR2	17	n/a	n/a	n/a	21	16	5	2	9
2763771	PROB	n/a	LTP389	ltpFR2	17	n/a	n/a	n/a	21	17	4	8	5
2765888	PROB	n/a	LTP389	ltpFR2	17	n/a	n/a	n/a	21	16	2	5	9
2767155	PROB	n/a	LTP389	ltpFR2	17	n/a	n/a	n/a	21	7	4	1	2
2768486	STOP	n/a	LTP389	ltpFR2	17	n/a	n/a	n/a	21	n/a	n/a	n/a	n/a
2771621	REC_START	n/a	LTP389	ltpFR2	17	14	n/a	n/a	n/a	n/a	0	0	0
2774675	REC_WORD	wordpools/wasnorm_wordpool_576.txt	LTP389	ltpFR2	17	14	COOKBOOK	373	n/a	n/a	0	0	0
2775710	REC_WORD	wordpools/wasnorm_wordpool_576.txt	LTP389	ltpFR2	17	14	MONSTER	912	n/a	n/a	0	0	0
2776832	REC_WORD	wordpools/wasnorm_wordpool_576.txt	LTP389	ltpFR2	17	14	MILK	895	n/a	n/a	0	0	0
2777586	REC_WORD	wordpools/wasnorm_wordpool_576.txt	LTP389	ltpFR2	17	14	BALLOON	75	n/a	n/a	0	0	0
2778999	REC_WORD	wordpools/wasnorm_wordpool_576.txt	LTP389	ltpFR2	17	14	SCALLOP	1242	n/a	n/a	0	0	0
2781411	REC_WORD	wordpools/wasnorm_wordpool_576.txt	LTP389	ltpFR2	17	14	KITCHEN	778	n/a	n/a	0	0	0
2782339	REC_WORD	wordpools/wasnorm_wordpool_576.txt	LTP389	ltpFR2	17	14	DRESSER	496	n/a	n/a	0	0	0
2784153	REC_WORD	wordpools/wasnorm_wordpool_576.txt	LTP389	ltpFR2	17	14	CASKET	255	n/a	n/a	0	0	0
2785395	REC_WORD	wordpools/wasnorm_wordpool_576.txt	LTP389	ltpFR2	17	14	LILY	821	n/a	n/a	0	0	0
2786358	REC_WORD	wordpools/wasnorm_wordpool_576.txt	LTP389	ltpFR2	17	14	DENIM	446	n/a	n/a	0	0	0
2787187	REC_WORD	wordpools/wasnorm_wordpool_576.txt	LTP389	ltpFR2	17	14	BLOUSE	139	n/a	n/a	0	0	0
2788048	REC_WORD	wordpools/wasnorm_wordpool_576.txt	LTP389	ltpFR2	17	14	ELBOW	520	n/a	n/a	0	0	0
2805512	REC_WORD	wordpools/wasnorm_wordpool_576.txt	LTP389	ltpFR2	17	14	CREVICE	405	n/a	n/a	0	0	0
2820410	REC_WORD	wordpools/wasnorm_wordpool_576.txt	LTP389	ltpFR2	17	14	CONTRACT	368	n/a	n/a	0	0	0
2833571	REC_WORD	wordpools/wasnorm_wordpool_576.txt	LTP389	ltpFR2	17	14	VICTIM	1562	n/a	n/a	0	0	0
2862070	WORD	wordpools/wasnorm_wordpool_576.txt	LTP389	ltpFR2	17	15	CHEST	295	n/a	n/a	0	0	0
2864887	WORD	wordpools/wasnorm_wordpool_576.txt	LTP389	ltpFR2	17	15	RAZOR	1171	n/a	n/a	0	0	0
2867702	WORD	wordpools/wasnorm_wordpool_576.txt	LTP389	ltpFR2	17	15	TRENCH	1503	n/a	n/a	0	0	0
2870253	WORD	wordpools/wasnorm_wordpool_576.txt	LTP389	ltpFR2	17	15	HOOD	714	n/a	n/a	0	0	0
2872886	WORD	wordpools/wasnorm_wordpool_576.txt	LTP389	ltpFR2	17	15	TABLET	1427	n/a	n/a	0	0	0
2875535	WORD	wordpools/wasnorm_wordpool_576.txt	LTP389	ltpFR2	17	15	COOK	372	n/a	n/a	0	0	0
2878220	WORD	wordpools/wasnorm_wordpool_576.txt	LTP389	ltpFR2	17	15	BASEMENT	94	n/a	n/a	0	0	0
2880870	WORD	wordpools/wasnorm_wordpool_576.txt	LTP389	ltpFR2	17	15	COTTAGE	384	n/a	n/a	0	0	0
2883353	WORD	wordpools/wasnorm_wordpool_576.txt	LTP389	ltpFR2	17	15	WHISKERS	1605	n/a	n/a	0	0	0
2885903	WORD	wordpools/wasnorm_wordpool_576.txt	LTP389	ltpFR2	17	15	UMPIRE	1535	n/a	n/a	0	0	0
2888635	WORD	wordpools/wasnorm_wordpool_576.txt	LTP389	ltpFR2	17	15	INMATE	738	n/a	n/a	0	0	0
2891320	WORD	wordpools/wasnorm_wordpool_576.txt	LTP389	ltpFR2	17	15	TOASTER	1472	n/a	n/a	0	0	0
2893886	WORD	wordpools/wasnorm_wordpool_576.txt	LTP389	ltpFR2	17	15	SCALPEL	1243	n/a	n/a	0	0	0
2896435	WORD	wordpools/wasnorm_wordpool_576.txt	LTP389	ltpFR2	17	15	WORKER	1621	n/a	n/a	0	0	0
2899236	WORD	wordpools/wasnorm_wordpool_576.txt	LTP389	ltpFR2	17	15	HOSTESS	723	n/a	n/a	0	0	0
2902019	WORD	wordpools/wasnorm_wordpool_576.txt	LTP389	ltpFR2	17	15	BEEF	113	n/a	n/a	0	0	0
2904518	WORD	wordpools/wasnorm_wordpool_576.txt	LTP389	ltpFR2	17	15	SPHINX	1349	n/a	n/a	0	0	0
2907003	WORD	wordpools/wasnorm_wordpool_576.txt	LTP389	ltpFR2	17	15	EGYPT	519	n/a	n/a	0	0	0
2909452	WORD	wordpools/wasnorm_wordpool_576.txt	LTP389	ltpFR2	17	15	PORTRAIT	1111	n/a	n/a	0	0	0
2912203	WORD	wordpools/wasnorm_wordpool_576.txt	LTP389	ltpFR2	17	15	CANDY	230	n/a	n/a	0	0	0
2914986	WORD	wordpools/wasnorm_wordpool_576.txt	LTP389	ltpFR2	17	15	TRANSPLANT	1496	n/a	n/a	0	0	0
2917468	WORD	wordpools/wasnorm_wordpool_576.txt	LTP389	ltpFR2	17	15	KLEENEX	782	n/a	n/a	0	0	0
2919903	WORD	wordpools/wasnorm_wordpool_576.txt	LTP389	ltpFR2	17	15	KNIFE	785	n/a	n/a	0	0	0
2922485	WORD	wordpools/wasnorm_wordpool_576.txt	LTP389	ltpFR2	17	15	HONEY	713	n/a	n/a	0	0	0
2924103	START	n/a	LTP389	ltpFR2	17	n/a	n/a	n/a	22	n/a	n/a	n/a	n/a
2925207	DISTRACTOR	n/a	LTP389	ltpFR2	17	15	n/a	n/a	n/a	n/a	0	0	0
2925219	PROB	n/a	LTP389	ltpFR2	17	n/a	n/a	n/a	22	24	5	9	6
2927086	PROB	n/a	LTP389	ltpFR2	17	n/a	n/a	n/a	22	21	6	6	9
2928952	PROB	n/a	LTP389	ltpFR2	17	n/a	n/a	n/a	22	18	9	6	3
2930701	PROB	n/a	LTP389	ltpFR2	17	n/a	n/a	n/a	22	10	3	6	1
2932052	PROB	n/a	LTP389	ltpFR2	17	n/a	n/a	n/a	22	14	9	1	4
2933252	PROB	n/a	LTP389	ltpFR2	17	n/a	n/a	n/a	22	6	1	4	1
2934418	PROB	n/a	LTP389	ltpFR2	17	n/a	n/a	n/a	22	23	7	9	7
2935986	PROB	n/a	LTP389	ltpFR2	17	n/a	n/a	n/a	22	14	9	3	2
2937535	PROB	n/a	LTP389	ltpFR2	17	n/a	n/a	n/a	22	21	6	9	5
2939035	PROB	n/a	LTP389	ltpFR2	17	n/a	n/a	n/a	22	18	9	7	2
2940734	PROB	n/a	LTP389	ltpFR2	17	n/a	n/a	n/a	22	13	6	3	4
2942152	PROB	n/a	LTP389	ltpFR2	17	n/a	n/a	n/a	22	22	7	7	8
2944484	PROB	n/a	LTP389	ltpFR2	17	n/a	n/a	n/a	22	15	4	2	9
2946035	PROB	n/a	LTP389	ltpFR2	17	n/a	n/a	n/a	22	14	5	1	8
2947667	STOP	n/a	LTP389	ltpFR2	17	n/a	n/a	n/a	22	n/a	n/a	n/a	n/a
2949952	REC_START	n/a	LTP389	ltpFR2	17	15	n/a	n/a	n/a	n/a	0	0	0
2952196	REC_WORD	wordpools/wasnorm_wordpool_576.txt	LTP389	ltpFR2	17	15	SCALPEL	1243	n/a	n/a	0	0	0
2953371	REC_WORD	wordpools/wasnorm_wordpool_576.txt	LTP389	ltpFR2	17	15	RAZOR	1171	n/a	n/a	0	0	0
2954199	REC_WORD	wordpools/wasnorm_wordpool_576.txt	LTP389	ltpFR2	17	15	CHEST	295	n/a	n/a	0	0	0
2955058	REC_WORD	wordpools/wasnorm_wordpool_576.txt	LTP389	ltpFR2	17	15	WHISKERS	1605	n/a	n/a	0	0	0
2955935	REC_WORD	wordpools/wasnorm_wordpool_576.txt	LTP389	ltpFR2	17	15	TRENCH	1503	n/a	n/a	0	0	0
2960884	REC_WORD	wordpools/wasnorm_wordpool_576.txt	LTP389	ltpFR2	17	15	COTTAGE	384	n/a	n/a	0	0	0
2967350	REC_WORD	wordpools/wasnorm_wordpool_576.txt	LTP389	ltpFR2	17	15	SHELTER	1282	n/a	n/a	0	0	0
2968279	REC_WORD	wordpools/wasnorm_wordpool_576.txt	LTP389	ltpFR2	17	15	SPHINX	1349	n/a	n/a	0	0	0
2969100	REC_WORD	wordpools/wasnorm_wordpool_576.txt	LTP389	ltpFR2	17	15	EGYPT	519	n/a	n/a	0	0	0
2969945	REC_WORD	wordpools/wasnorm_wordpool_576.txt	LTP389	ltpFR2	17	15	BEEF	113	n/a	n/a	0	0	0
2970493	REC_WORD	wordpools/wasnorm_wordpool_576.txt	LTP389	ltpFR2	17	15	HOSTESS	723	n/a	n/a	0	0	0
2972243	REC_WORD	wordpools/wasnorm_wordpool_576.txt	LTP389	ltpFR2	17	15	KLEENEX	782	n/a	n/a	0	0	0
2973570	REC_WORD	wordpools/wasnorm_wordpool_576.txt	LTP389	ltpFR2	17	15	HONEY	713	n/a	n/a	0	0	0
2975894	REC_WORD	wordpools/wasnorm_wordpool_576.txt	LTP389	ltpFR2	17	15	HOOD	714	n/a	n/a	0	0	0
2977482	REC_WORD	wordpools/wasnorm_wordpool_576.txt	LTP389	ltpFR2	17	15	TABLET	1427	n/a	n/a	0	0	0
2993725	REC_WORD	wordpools/wasnorm_wordpool_576.txt	LTP389	ltpFR2	17	15	TRANSPLANT	1496	n/a	n/a	0	0	0
3005299	REC_WORD	wordpools/wasnorm_wordpool_576.txt	LTP389	ltpFR2	17	15	SHELTER	1282	n/a	n/a	0	0	0
3040399	DISTRACTOR	n/a	LTP389	ltpFR2	17	16	n/a	n/a	n/a	n/a	0	0	0
3040400	START	n/a	LTP389	ltpFR2	17	n/a	n/a	n/a	23	n/a	n/a	n/a	n/a
3040416	PROB	n/a	LTP389	ltpFR2	17	n/a	n/a	n/a	23	15	5	8	2
3042383	PROB	n/a	LTP389	ltpFR2	17	n/a	n/a	n/a	23	18	8	3	7
3043917	PROB	n/a	LTP389	ltpFR2	17	n/a	n/a	n/a	23	11	4	3	4
3045533	PROB	n/a	LTP389	ltpFR2	17	n/a	n/a	n/a	23	20	7	9	4
3047150	PROB	n/a	LTP389	ltpFR2	17	n/a	n/a	n/a	23	19	3	7	9
3048666	PROB	n/a	LTP389	ltpFR2	17	n/a	n/a	n/a	23	20	4	9	7
3051666	PROB	n/a	LTP389	ltpFR2	17	n/a	n/a	n/a	23	14	9	4	1
3053134	PROB	n/a	LTP389	ltpFR2	17	n/a	n/a	n/a	23	12	2	6	4
3054716	PROB	n/a	LTP389	ltpFR2	17	n/a	n/a	n/a	23	13	3	3	7
3056449	PROB	n/a	LTP389	ltpFR2	17	n/a	n/a	n/a	23	19	8	8	3
3057934	PROB	n/a	LTP389	ltpFR2	17	n/a	n/a	n/a	23	18	6	9	3
3059466	PROB	n/a	LTP389	ltpFR2	17	n/a	n/a	n/a	23	15	5	5	5
3060532	PROB	n/a	LTP389	ltpFR2	17	n/a	n/a	n/a	23	18	7	2	9
3061782	PROB	n/a	LTP389	ltpFR2	17	n/a	n/a	n/a	23	23	7	7	9
3063398	STOP	n/a	LTP389	ltpFR2	17	n/a	n/a	n/a	23	n/a	n/a	n/a	n/a
3065616	WORD	wordpools/wasnorm_wordpool_576.txt	LTP389	ltpFR2	17	16	REBEL	1172	n/a	n/a	0	0	0
3068416	WORD	wordpools/wasnorm_wordpool_576.txt	LTP389	ltpFR2	17	16	HIGHWAY	707	n/a	n/a	0	0	0
3071200	WORD	wordpools/wasnorm_wordpool_576.txt	LTP389	ltpFR2	17	16	YACHT	1629	n/a	n/a	0	0	0
3073900	WORD	wordpools/wasnorm_wordpool_576.txt	LTP389	ltpFR2	17	16	MARINE	869	n/a	n/a	0	0	0
3076432	WORD	wordpools/wasnorm_wordpool_576.txt	LTP389	ltpFR2	17	16	COUSIN	392	n/a	n/a	0	0	0
3079166	WORD	wordpools/wasnorm_wordpool_576.txt	LTP389	ltpFR2	17	16	UNCLE	1536	n/a	n/a	0	0	0
3081615	WORD	wordpools/wasnorm_wordpool_576.txt	LTP389	ltpFR2	17	16	AGENT	10	n/a	n/a	0	0	0
3084100	WORD	wordpools/wasnorm_wordpool_576.txt	LTP389	ltpFR2	17	16	AIRPORT	13	n/a	n/a	0	0	0
3086799	WORD	wordpools/wasnorm_wordpool_576.txt	LTP389	ltpFR2	17	16	OMELET	976	n/a	n/a	0	0	0
3089399	WORD	wordpools/wasnorm_wordpool_576.txt	LTP389	ltpFR2	17	16	MISSILE	900	n/a	n/a	0	0	0
3092166	WORD	wordpools/wasnorm_wordpool_576.txt	LTP389	ltpFR2	17	16	CHAUFFEUR	283	n/a	n/a	0	0	0
3094933	WORD	wordpools/wasnorm_wordpool_576.txt	LTP389	ltpFR2	17	16	PICTURE	1061	n/a	n/a	0	0	0
3097449	WORD	wordpools/wasnorm_wordpool_576.txt	LTP389	ltpFR2	17	16	SUSPECT	1415	n/a	n/a	0	0	0
3099900	WORD	wordpools/wasnorm_wordpool_576.txt	LTP389	ltpFR2	17	16	PLAZA	1088	n/a	n/a	0	0	0
3102448	WORD	wordpools/wasnorm_wordpool_576.txt	LTP389	ltpFR2	17	16	MONEY	908	n/a	n/a	0	0	0
3105133	WORD	wordpools/wasnorm_wordpool_576.txt	LTP389	ltpFR2	17	16	THIEF	1456	n/a	n/a	0	0	0
3107665	WORD	wordpools/wasnorm_wordpool_576.txt	LTP389	ltpFR2	17	16	SPIDER	1351	n/a	n/a	0	0	0
3110116	WORD	wordpools/wasnorm_wordpool_576.txt	LTP389	ltpFR2	17	16	CASHIER	254	n/a	n/a	0	0	0
3112883	WORD	wordpools/wasnorm_wordpool_576.txt	LTP389	ltpFR2	17	16	STAMP	1370	n/a	n/a	0	0	0
3115448	WORD	wordpools/wasnorm_wordpool_576.txt	LTP389	ltpFR2	17	16	STICKER	1382	n/a	n/a	0	0	0
3118032	WORD	wordpools/wasnorm_wordpool_576.txt	LTP389	ltpFR2	17	16	PIANO	1057	n/a	n/a	0	0	0
3120798	WORD	wordpools/wasnorm_wordpool_576.txt	LTP389	ltpFR2	17	16	SLIME	1327	n/a	n/a	0	0	0
3123448	WORD	wordpools/wasnorm_wordpool_576.txt	LTP389	ltpFR2	17	16	ROBOT	1200	n/a	n/a	0	0	0
3126082	WORD	wordpools/wasnorm_wordpool_576.txt	LTP389	ltpFR2	17	16	BANK	83	n/a	n/a	0	0	0
3127698	START	n/a	LTP389	ltpFR2	17	n/a	n/a	n/a	24	n/a	n/a	n/a	n/a
3128736	DISTRACTOR	n/a	LTP389	ltpFR2	17	16	n/a	n/a	n/a	n/a	0	0	0
3128748	PROB	n/a	LTP389	ltpFR2	17	n/a	n/a	n/a	24	22	9	4	9
3130866	PROB	n/a	LTP389	ltpFR2	17	n/a	n/a	n/a	24	25	8	9	8
3132598	PROB	n/a	LTP389	ltpFR2	17	n/a	n/a	n/a	24	11	1	1	9
3133765	PROB	n/a	LTP389	ltpFR2	17	n/a	n/a	n/a	24	11	4	5	2
3134932	PROB	n/a	LTP389	ltpFR2	17	n/a	n/a	n/a	24	16	7	4	5
3136515	PROB	n/a	LTP389	ltpFR2	17	n/a	n/a	n/a	24	19	9	6	4
3137999	PROB	n/a	LTP389	ltpFR2	17	n/a	n/a	n/a	24	17	4	4	9
3139564	PROB	n/a	LTP389	ltpFR2	17	n/a	n/a	n/a	24	24	9	9	6
3141215	PROB	n/a	LTP389	ltpFR2	17	n/a	n/a	n/a	24	20	9	9	2
3142714	PROB	n/a	LTP389	ltpFR2	17	n/a	n/a	n/a	24	10	1	4	5
3143882	PROB	n/a	LTP389	ltpFR2	17	n/a	n/a	n/a	24	10	1	6	3
3145498	PROB	n/a	LTP389	ltpFR2	17	n/a	n/a	n/a	24	21	7	7	7
3146664	PROB	n/a	LTP389	ltpFR2	17	n/a	n/a	n/a	24	11	4	3	4
3148598	PROB	n/a	LTP389	ltpFR2	17	n/a	n/a	n/a	24	11	8	2	1
3149681	PROB	n/a	LTP389	ltpFR2	17	n/a	n/a	n/a	24	19	4	8	7
3151210	STOP	n/a	LTP389	ltpFR2	17	n/a	n/a	n/a	24	n/a	n/a	n/a	n/a
3153581	REC_START	n/a	LTP389	ltpFR2	17	16	n/a	n/a	n/a	n/a	0	0	0
3155487	REC_WORD	wordpools/wasnorm_wordpool_576.txt	LTP389	ltpFR2	17	16	REBEL	1172	n/a	n/a	0	0	0
3156263	REC_WORD	wordpools/wasnorm_wordpool_576.txt	LTP389	ltpFR2	17	16	HIGHWAY	707	n/a	n/a	0	0	0
3157317	REC_WORD	wordpools/wasnorm_wordpool_576.txt	LTP389	ltpFR2	17	16	YACHT	1629	n/a	n/a	0	0	0
3158426	REC_WORD	wordpools/wasnorm_wordpool_576.txt	LTP389	ltpFR2	17	16	CHAUFFEUR	283	n/a	n/a	0	0	0
3159840	REC_WORD	wordpools/wasnorm_wordpool_576.txt	LTP389	ltpFR2	17	16	MARINE	869	n/a	n/a	0	0	0
3161729	REC_WORD	wordpools/wasnorm_wordpool_576.txt	LTP389	ltpFR2	17	16	SUSPECT	1415	n/a	n/a	0	0	0
3162776	REC_WORD	wordpools/wasnorm_wordpool_576.txt	LTP389	ltpFR2	17	16	UNCLE	1536	n/a	n/a	0	0	0
3163490	REC_WORD	wordpools/wasnorm_wordpool_576.txt	LTP389	ltpFR2	17	16	COUSIN	392	n/a	n/a	0	0	0
3164224	REC_WORD	wordpools/wasnorm_wordpool_576.txt	LTP389	ltpFR2	17	16	SLIME	1327	n/a	n/a	0	0	0
3165238	REC_WORD	wordpools/wasnorm_wordpool_576.txt	LTP389	ltpFR2	17	16	ROBOT	1200	n/a	n/a	0	0	0
3166197	REC_WORD	wordpools/wasnorm_wordpool_576.txt	LTP389	ltpFR2	17	16	BANK	83	n/a	n/a	0	0	0
3169055	REC_WORD	wordpools/wasnorm_wordpool_576.txt	LTP389	ltpFR2	17	16	PIANO	1057	n/a	n/a	0	0	0
3169991	REC_WORD	wordpools/wasnorm_wordpool_576.txt	LTP389	ltpFR2	17	16	STICKER	1382	n/a	n/a	0	0	0
3171511	REC_WORD	wordpools/wasnorm_wordpool_576.txt	LTP389	ltpFR2	17	16	PLAZA	1088	n/a	n/a	0	0	0
3173823	REC_WORD	wordpools/wasnorm_wordpool_576.txt	LTP389	ltpFR2	17	16	STAMP	1370	n/a	n/a	0	0	0
3230114	REST_REWET	n/a	LTP389	ltpFR2	17	16	n/a	n/a	n/a	n/a	0	0	0
3365444	WORD	wordpools/wasnorm_wordpool_576.txt	LTP389	ltpFR2	17	17	MUSTARD	935	n/a	n/a	0	0	0
3367978	WORD	wordpools/wasnorm_wordpool_576.txt	LTP389	ltpFR2	17	17	CRAYON	401	n/a	n/a	0	0	0
3370644	WORD	wordpools/wasnorm_wordpool_576.txt	LTP389	ltpFR2	17	17	PLAID	1080	n/a	n/a	0	0	0
3373162	WORD	wordpools/wasnorm_wordpool_576.txt	LTP389	ltpFR2	17	17	CARROT	249	n/a	n/a	0	0	0
3375694	WORD	wordpools/wasnorm_wordpool_576.txt	LTP389	ltpFR2	17	17	CAPTIVE	240	n/a	n/a	0	0	0
3378411	WORD	wordpools/wasnorm_wordpool_576.txt	LTP389	ltpFR2	17	17	TUNNEL	1519	n/a	n/a	0	0	0
3380845	WORD	wordpools/wasnorm_wordpool_576.txt	LTP389	ltpFR2	17	17	BUNNY	198	n/a	n/a	0	0	0
3383594	WORD	wordpools/wasnorm_wordpool_576.txt	LTP389	ltpFR2	17	17	PERMIT	1051	n/a	n/a	0	0	0
3386295	WORD	wordpools/wasnorm_wordpool_576.txt	LTP389	ltpFR2	17	17	ONION	977	n/a	n/a	0	0	0
3388895	WORD	wordpools/wasnorm_wordpool_576.txt	LTP389	ltpFR2	17	17	PERFUME	1049	n/a	n/a	0	0	0
3391594	WORD	wordpools/wasnorm_wordpool_576.txt	LTP389	ltpFR2	17	17	THRONE	1461	n/a	n/a	0	0	0
3394361	WORD	wordpools/wasnorm_wordpool_576.txt	LTP389	ltpFR2	17	17	BRACES	164	n/a	n/a	0	0	0
3397128	WORD	wordpools/wasnorm_wordpool_576.txt	LTP389	ltpFR2	17	17	MATCH	878	n/a	n/a	0	0	0
3399677	WORD	wordpools/wasnorm_wordpool_576.txt	LTP389	ltpFR2	17	17	HUSBAND	728	n/a	n/a	0	0	0
3402377	WORD	wordpools/wasnorm_wordpool_576.txt	LTP389	ltpFR2	17	17	BINDER	127	n/a	n/a	0	0	0
3405145	WORD	wordpools/wasnorm_wordpool_576.txt	LTP389	ltpFR2	17	17	AUTHOR	61	n/a	n/a	0	0	0
3407878	WORD	wordpools/wasnorm_wordpool_576.txt	LTP389	ltpFR2	17	17	AWARD	63	n/a	n/a	0	0	0
3410660	WORD	wordpools/wasnorm_wordpool_576.txt	LTP389	ltpFR2	17	17	CRUTCH	417	n/a	n/a	0	0	0
3413078	WORD	wordpools/wasnorm_wordpool_576.txt	LTP389	ltpFR2	17	17	SADDLE	1221	n/a	n/a	0	0	0
3415894	WORD	wordpools/wasnorm_wordpool_576.txt	LTP389	ltpFR2	17	17	CLAMP	316	n/a	n/a	0	0	0
3418677	WORD	wordpools/wasnorm_wordpool_576.txt	LTP389	ltpFR2	17	17	SHOULDER	1294	n/a	n/a	0	0	0
3421443	WORD	wordpools/wasnorm_wordpool_576.txt	LTP389	ltpFR2	17	17	PUPIL	1143	n/a	n/a	0	0	0
3424144	WORD	wordpools/wasnorm_wordpool_576.txt	LTP389	ltpFR2	17	17	OUTDOORS	987	n/a	n/a	0	0	0
3426710	WORD	wordpools/wasnorm_wordpool_576.txt	LTP389	ltpFR2	17	17	PRINCESS	1125	n/a	n/a	0	0	0
3428328	START	n/a	LTP389	ltpFR2	17	n/a	n/a	n/a	25	n/a	n/a	n/a	n/a
3429199	DISTRACTOR	n/a	LTP389	ltpFR2	17	17	n/a	n/a	n/a	n/a	0	0	0
3429211	PROB	n/a	LTP389	ltpFR2	17	n/a	n/a	n/a	25	17	6	6	5
3431294	PROB	n/a	LTP389	ltpFR2	17	n/a	n/a	n/a	25	13	2	3	8
3432576	PROB	n/a	LTP389	ltpFR2	17	n/a	n/a	n/a	25	8	5	2	1
3433693	PROB	n/a	LTP389	ltpFR2	17	n/a	n/a	n/a	25	9	4	3	2
3435194	PROB	n/a	LTP389	ltpFR2	17	n/a	n/a	n/a	25	26	9	9	8
3436844	PROB	n/a	LTP389	ltpFR2	17	n/a	n/a	n/a	25	9	6	1	2
3438077	PROB	n/a	LTP389	ltpFR2	17	n/a	n/a	n/a	25	16	8	3	5
3440361	PROB	n/a	LTP389	ltpFR2	17	n/a	n/a	n/a	25	14	8	5	1
3441894	PROB	n/a	LTP389	ltpFR2	17	n/a	n/a	n/a	25	12	5	1	6
3443177	PROB	n/a	LTP389	ltpFR2	17	n/a	n/a	n/a	25	14	7	3	4
3444311	PROB	n/a	LTP389	ltpFR2	17	n/a	n/a	n/a	25	18	9	7	4
3447393	PROB	n/a	LTP389	ltpFR2	17	n/a	n/a	n/a	25	19	6	5	6
3450110	PROB	n/a	LTP389	ltpFR2	17	n/a	n/a	n/a	25	24	9	8	7
3451851	STOP	n/a	LTP389	ltpFR2	17	n/a	n/a	n/a	25	n/a	n/a	n/a	n/a
3454227	REC_START	n/a	LTP389	ltpFR2	17	17	n/a	n/a	n/a	n/a	0	0	0
3458454	REC_WORD	wordpools/wasnorm_wordpool_576.txt	LTP389	ltpFR2	17	17	MUSTARD	935	n/a	n/a	0	0	0
3459564	REC_WORD	wordpools/wasnorm_wordpool_576.txt	LTP389	ltpFR2	17	17	PLAID	1080	n/a	n/a	0	0	0
3460571	REC_WORD	wordpools/wasnorm_wordpool_576.txt	LTP389	ltpFR2	17	17	CRAYON	401	n/a	n/a	0	0	0
3461784	REC_WORD	wordpools/wasnorm_wordpool_576.txt	LTP389	ltpFR2	17	17	CAPTIVE	240	n/a	n/a	0	0	0
3462815	REC_WORD	wordpools/wasnorm_wordpool_576.txt	LTP389	ltpFR2	17	17	TUNNEL	1519	n/a	n/a	0	0	0
3463890	REC_WORD	wordpools/wasnorm_wordpool_576.txt	LTP389	ltpFR2	17	17	BUNNY	198	n/a	n/a	0	0	0
3464539	REC_WORD	wordpools/wasnorm_wordpool_576.txt	LTP389	ltpFR2	17	17	PERFUME	1049	n/a	n/a	0	0	0
3465728	REC_WORD	wordpools/wasnorm_wordpool_576.txt	LTP389	ltpFR2	17	17	HUSBAND	728	n/a	n/a	0	0	0
3467032	REC_WORD	wordpools/wasnorm_wordpool_576.txt	LTP389	ltpFR2	17	17	BINDER	127	n/a	n/a	0	0	0
3468024	REC_WORD	wordpools/wasnorm_wordpool_576.txt	LTP389	ltpFR2	17	17	CLAMP	316	n/a	n/a	0	0	0
3469053	REC_WORD	wordpools/wasnorm_wordpool_576.txt	LTP389	ltpFR2	17	17	SHOULDER	1294	n/a	n/a	0	0	0
3481362	REC_WORD	wordpools/wasnorm_wordpool_576.txt	LTP389	ltpFR2	17	17	THRONE	1461	n/a	n/a	0	0	0
3487121	REC_WORD	wordpools/wasnorm_wordpool_576.txt	LTP389	ltpFR2	17	17	PRINCESS	1125	n/a	n/a	0	0	0
3499225	REC_WORD	wordpools/wasnorm_wordpool_576.txt	LTP389	ltpFR2	17	17	CARROT	249	n/a	n/a	0	0	0
3525756	REC_WORD	wordpools/wasnorm_wordpool_576.txt	LTP389	ltpFR2	17	17	CROWN	415	n/a	n/a	0	0	0
3544708	WORD	wordpools/wasnorm_wordpool_576.txt	LTP389	ltpFR2	17	18	LIGHTNING	820	n/a	n/a	0	0	0
3547391	WORD	wordpools/wasnorm_wordpool_576.txt	LTP389	ltpFR2	17	18	ARM	38	n/a	n/a	0	0	0
3549875	WORD	wordpools/wasnorm_wordpool_576.txt	LTP389	ltpFR2	17	18	PARTNER	1017	n/a	n/a	0	0	0
3552525	WORD	wordpools/wasnorm_wordpool_576.txt	LTP389	ltpFR2	17	18	HAND	683	n/a	n/a	0	0	0
3555109	WORD	wordpools/wasnorm_wordpool_576.txt	LTP389	ltpFR2	17	18	HAMPER	682	n/a	n/a	0	0	0
3557859	WORD	wordpools/wasnorm_wordpool_576.txt	LTP389	ltpFR2	17	18	TRACTOR	1493	n/a	n/a	0	0	0
3560541	WORD	wordpools/wasnorm_wordpool_576.txt	LTP389	ltpFR2	17	18	FOOT	590	n/a	n/a	0	0	0
3563175	WORD	wordpools/wasnorm_wordpool_576.txt	LTP389	ltpFR2	17	18	MOTOR	922	n/a	n/a	0	0	0
3565658	WORD	wordpools/wasnorm_wordpool_576.txt	LTP389	ltpFR2	17	18	SLIDE	1326	n/a	n/a	0	0	0
3568391	WORD	wordpools/wasnorm_wordpool_576.txt	LTP389	ltpFR2	17	18	SNACK	1331	n/a	n/a	0	0	0
3571075	WORD	wordpools/wasnorm_wordpool_576.txt	LTP389	ltpFR2	17	18	MARSH	874	n/a	n/a	0	0	0
3573541	WORD	wordpools/wasnorm_wordpool_576.txt	LTP389	ltpFR2	17	18	CLOTHES	327	n/a	n/a	0	0	0
3576092	WORD	wordpools/wasnorm_wordpool_576.txt	LTP389	ltpFR2	17	18	BUREAU	199	n/a	n/a	0	0	0
3578624	WORD	wordpools/wasnorm_wordpool_576.txt	LTP389	ltpFR2	17	18	PISTON	1076	n/a	n/a	0	0	0
3581142	WORD	wordpools/wasnorm_wordpool_576.txt	LTP389	ltpFR2	17	18	SUBWAY	1400	n/a	n/a	0	0	0
3583641	WORD	wordpools/wasnorm_wordpool_576.txt	LTP389	ltpFR2	17	18	LOVER	846	n/a	n/a	0	0	0
3586358	WORD	wordpools/wasnorm_wordpool_576.txt	LTP389	ltpFR2	17	18	ROOSTER	1209	n/a	n/a	0	0	0
3589141	WORD	wordpools/wasnorm_wordpool_576.txt	LTP389	ltpFR2	17	18	BIKE	125	n/a	n/a	0	0	0
3591574	WORD	wordpools/wasnorm_wordpool_576.txt	LTP389	ltpFR2	17	18	CRICKET	408	n/a	n/a	0	0	0
3594241	WORD	wordpools/wasnorm_wordpool_576.txt	LTP389	ltpFR2	17	18	HERO	706	n/a	n/a	0	0	0
3596875	WORD	wordpools/wasnorm_wordpool_576.txt	LTP389	ltpFR2	17	18	BUCKET	184	n/a	n/a	0	0	0
3599657	WORD	wordpools/wasnorm_wordpool_576.txt	LTP389	ltpFR2	17	18	CHAPEL	280	n/a	n/a	0	0	0
3602358	WORD	wordpools/wasnorm_wordpool_576.txt	LTP389	ltpFR2	17	18	CHURCH	307	n/a	n/a	0	0	0
3604958	WORD	wordpools/wasnorm_wordpool_576.txt	LTP389	ltpFR2	17	18	LOFT	840	n/a	n/a	0	0	0
3606574	START	n/a	LTP389	ltpFR2	17	n/a	n/a	n/a	26	n/a	n/a	n/a	n/a
3607624	DISTRACTOR	n/a	LTP389	ltpFR2	17	18	n/a	n/a	n/a	n/a	0	0	0
3607640	PROB	n/a	LTP389	ltpFR2	17	n/a	n/a	n/a	26	21	6	9	6
3609424	PROB	n/a	LTP389	ltpFR2	17	n/a	n/a	n/a	26	22	7	8	7
3612507	PROB	n/a	LTP389	ltpFR2	17	n/a	n/a	n/a	26	20	4	9	7
3614673	PROB	n/a	LTP389	ltpFR2	17	n/a	n/a	n/a	26	19	6	7	6
3616590	PROB	n/a	LTP389	ltpFR2	17	n/a	n/a	n/a	26	11	9	1	1
3617607	PROB	n/a	LTP389	ltpFR2	17	n/a	n/a	n/a	26	21	7	5	9
3619390	PROB	n/a	LTP389	ltpFR2	17	n/a	n/a	n/a	26	12	9	1	2
3620740	PROB	n/a	LTP389	ltpFR2	17	n/a	n/a	n/a	26	20	9	9	2
3622008	PROB	n/a	LTP389	ltpFR2	17	n/a	n/a	n/a	26	16	9	2	5
3623457	PROB	n/a	LTP389	ltpFR2	17	n/a	n/a	n/a	26	8	3	3	2
3624707	PROB	n/a	LTP389	ltpFR2	17	n/a	n/a	n/a	26	15	9	5	1
3626158	PROB	n/a	LTP389	ltpFR2	17	n/a	n/a	n/a	26	10	3	2	5
3628357	PROB	n/a	LTP389	ltpFR2	17	n/a	n/a	n/a	26	14	3	6	5
3629719	STOP	n/a	LTP389	ltpFR2	17	n/a	n/a	n/a	26	n/a	n/a	n/a	n/a
3632473	REC_START	n/a	LTP389	ltpFR2	17	18	n/a	n/a	n/a	n/a	0	0	0
3637454	REC_WORD	wordpools/wasnorm_wordpool_576.txt	LTP389	ltpFR2	17	18	LIGHTNING	820	n/a	n/a	0	0	0
3638461	REC_WORD	wordpools/wasnorm_wordpool_576.txt	LTP389	ltpFR2	17	18	ARM	38	n/a	n/a	0	0	0
3639377	REC_WORD	wordpools/wasnorm_wordpool_576.txt	LTP389	ltpFR2	17	18	HAND	683	n/a	n/a	0	0	0
3641346	REC_WORD	wordpools/wasnorm_wordpool_576.txt	LTP389	ltpFR2	17	18	FOOT	590	n/a	n/a	0	0	0
3642763	REC_WORD	wordpools/wasnorm_wordpool_576.txt	LTP389	ltpFR2	17	18	PARTNER	1017	n/a	n/a	0	0	0
3644165	REC_WORD	wordpools/wasnorm_wordpool_576.txt	LTP389	ltpFR2	17	18	BUREAU	199	n/a	n/a	0	0	0
3645224	REC_WORD	wordpools/wasnorm_wordpool_576.txt	LTP389	ltpFR2	17	18	HERO	706	n/a	n/a	0	0	0
3646969	REC_WORD	wordpools/wasnorm_wordpool_576.txt	LTP389	ltpFR2	17	18	PISTON	1076	n/a	n/a	0	0	0
3648345	REC_WORD	wordpools/wasnorm_wordpool_576.txt	LTP389	ltpFR2	17	18	MOTOR	922	n/a	n/a	0	0	0
3649351	REC_WORD	wordpools/wasnorm_wordpool_576.txt	LTP389	ltpFR2	17	18	TRACTOR	1493	n/a	n/a	0	0	0
3651894	REC_WORD	wordpools/wasnorm_wordpool_576.txt	LTP389	ltpFR2	17	18	CHAPEL	280	n/a	n/a	0	0	0
3652880	REC_WORD	wordpools/wasnorm_wordpool_576.txt	LTP389	ltpFR2	17	18	CHURCH	307	n/a	n/a	0	0	0
3653968	REC_WORD	wordpools/wasnorm_wordpool_576.txt	LTP389	ltpFR2	17	18	LOFT	840	n/a	n/a	0	0	0
3658839	REC_WORD	wordpools/wasnorm_wordpool_576.txt	LTP389	ltpFR2	17	18	SNACK	1331	n/a	n/a	0	0	0
3659795	REC_WORD	wordpools/wasnorm_wordpool_576.txt	LTP389	ltpFR2	17	18	SUBWAY	1400	n/a	n/a	0	0	0
3660896	REC_WORD	wordpools/wasnorm_wordpool_576.txt	LTP389	ltpFR2	17	18	MARSH	874	n/a	n/a	0	0	0
3666669	REC_WORD	wordpools/wasnorm_wordpool_576.txt	LTP389	ltpFR2	17	18	HAMPER	682	n/a	n/a	0	0	0
3681264	REC_WORD	wordpools/wasnorm_wordpool_576.txt	LTP389	ltpFR2	17	18	CLOTHES	327	n/a	n/a	0	0	0
3687912	REC_WORD	wordpools/wasnorm_wordpool_576.txt	LTP389	ltpFR2	17	18	BUCKET	184	n/a	n/a	0	0	0
3722939	WORD	wordpools/wasnorm_wordpool_576.txt	LTP389	ltpFR2	17	19	WOMAN	1620	n/a	n/a	0	0	0
3725572	WORD	wordpools/wasnorm_wordpool_576.txt	LTP389	ltpFR2	17	19	MISTER	901	n/a	n/a	0	0	0
3728139	WORD	wordpools/wasnorm_wordpool_576.txt	LTP389	ltpFR2	17	19	OYSTER	995	n/a	n/a	0	0	0
3730906	WORD	wordpools/wasnorm_wordpool_576.txt	LTP389	ltpFR2	17	19	GRAVEL	659	n/a	n/a	0	0	0
3733372	WORD	wordpools/wasnorm_wordpool_576.txt	LTP389	ltpFR2	17	19	RECORD	1176	n/a	n/a	0	0	0
3736106	WORD	wordpools/wasnorm_wordpool_576.txt	LTP389	ltpFR2	17	19	TROMBONE	1508	n/a	n/a	0	0	0
3738889	WORD	wordpools/wasnorm_wordpool_576.txt	LTP389	ltpFR2	17	19	CIGAR	308	n/a	n/a	0	0	0
3741521	WORD	wordpools/wasnorm_wordpool_576.txt	LTP389	ltpFR2	17	19	DOUGHNUT	490	n/a	n/a	0	0	0
3744122	WORD	wordpools/wasnorm_wordpool_576.txt	LTP389	ltpFR2	17	19	GLOVE	642	n/a	n/a	0	0	0
3746922	WORD	wordpools/wasnorm_wordpool_576.txt	LTP389	ltpFR2	17	19	FIREPLACE	570	n/a	n/a	0	0	0
3749605	WORD	wordpools/wasnorm_wordpool_576.txt	LTP389	ltpFR2	17	19	SWITCH	1422	n/a	n/a	0	0	0
3752056	WORD	wordpools/wasnorm_wordpool_576.txt	LTP389	ltpFR2	17	19	LASER	801	n/a	n/a	0	0	0
3754771	WORD	wordpools/wasnorm_wordpool_576.txt	LTP389	ltpFR2	17	19	KNAPSACK	783	n/a	n/a	0	0	0
3757222	WORD	wordpools/wasnorm_wordpool_576.txt	LTP389	ltpFR2	17	19	DIME	466	n/a	n/a	0	0	0
3759688	WORD	wordpools/wasnorm_wordpool_576.txt	LTP389	ltpFR2	17	19	TOURIST	1488	n/a	n/a	0	0	0
3762388	WORD	wordpools/wasnorm_wordpool_576.txt	LTP389	ltpFR2	17	19	FOX	598	n/a	n/a	0	0	0
3764922	WORD	wordpools/wasnorm_wordpool_576.txt	LTP389	ltpFR2	17	19	BRICK	172	n/a	n/a	0	0	0
3767421	WORD	wordpools/wasnorm_wordpool_576.txt	LTP389	ltpFR2	17	19	SOFTBALL	1343	n/a	n/a	0	0	0
3770222	WORD	wordpools/wasnorm_wordpool_576.txt	LTP389	ltpFR2	17	19	PEANUT	1032	n/a	n/a	0	0	0
3772738	WORD	wordpools/wasnorm_wordpool_576.txt	LTP389	ltpFR2	17	19	WRIST	1626	n/a	n/a	0	0	0
3775222	WORD	wordpools/wasnorm_wordpool_576.txt	LTP389	ltpFR2	17	19	CATCHER	258	n/a	n/a	0	0	0
3777855	WORD	wordpools/wasnorm_wordpool_576.txt	LTP389	ltpFR2	17	19	FLAG	573	n/a	n/a	0	0	0
3780571	WORD	wordpools/wasnorm_wordpool_576.txt	LTP389	ltpFR2	17	19	PILOT	1070	n/a	n/a	0	0	0
3783022	WORD	wordpools/wasnorm_wordpool_576.txt	LTP389	ltpFR2	17	19	NAPKIN	937	n/a	n/a	0	0	0
3784637	START	n/a	LTP389	ltpFR2	17	n/a	n/a	n/a	27	n/a	n/a	n/a	n/a
3785745	DISTRACTOR	n/a	LTP389	ltpFR2	17	19	n/a	n/a	n/a	n/a	0	0	0
3785754	PROB	n/a	LTP389	ltpFR2	17	n/a	n/a	n/a	27	10	1	1	8
3787005	PROB	n/a	LTP389	ltpFR2	17	n/a	n/a	n/a	27	14	6	2	6
3788654	PROB	n/a	LTP389	ltpFR2	17	n/a	n/a	n/a	27	15	2	6	7
3790122	PROB	n/a	LTP389	ltpFR2	17	n/a	n/a	n/a	27	16	6	3	7
3792554	PROB	n/a	LTP389	ltpFR2	17	n/a	n/a	n/a	27	10	6	2	2
3793855	PROB	n/a	LTP389	ltpFR2	17	n/a	n/a	n/a	27	15	3	9	3
3795288	PROB	n/a	LTP389	ltpFR2	17	n/a	n/a	n/a	27	15	9	1	5
3796338	PROB	n/a	LTP389	ltpFR2	17	n/a	n/a	n/a	27	16	5	6	5
3797938	PROB	n/a	LTP389	ltpFR2	17	n/a	n/a	n/a	27	10	5	4	1
3799105	PROB	n/a	LTP389	ltpFR2	17	n/a	n/a	n/a	27	18	5	4	9
3800520	PROB	n/a	LTP389	ltpFR2	17	n/a	n/a	n/a	27	10	1	2	7
3801855	PROB	n/a	LTP389	ltpFR2	17	n/a	n/a	n/a	27	16	4	6	4
3803537	PROB	n/a	LTP389	ltpFR2	17	n/a	n/a	n/a	27	5	2	2	1
3804654	PROB	n/a	LTP389	ltpFR2	17	n/a	n/a	n/a	27	11	4	6	1
3805805	PROB	n/a	LTP389	ltpFR2	17	n/a	n/a	n/a	27	14	3	6	5
3807133	STOP	n/a	LTP389	ltpFR2	17	n/a	n/a	n/a	27	n/a	n/a	n/a	n/a
3810554	REC_START	n/a	LTP389	ltpFR2	17	19	n/a	n/a	n/a	n/a	0	0	0
3813255	REC_WORD	wordpools/wasnorm_wordpool_576.txt	LTP389	ltpFR2	17	19	WOMAN	1620	n/a	n/a	0	0	0
3814157	REC_WORD	wordpools/wasnorm_wordpool_576.txt	LTP389	ltpFR2	17	19	MISTER	901	n/a	n/a	0	0	0
3816188	REC_WORD	wordpools/wasnorm_wordpool_576.txt	LTP389	ltpFR2	17	19	GLOVE	642	n/a	n/a	0	0	0
3817450	REC_WORD	wordpools/wasnorm_wordpool_576.txt	LTP389	ltpFR2	17	19	OYSTER	995	n/a	n/a	0	0	0
3818217	REC_WORD	wordpools/wasnorm_wordpool_576.txt	LTP389	ltpFR2	17	19	GRAVEL	659	n/a	n/a	0	0	0
3819184	REC_WORD	wordpools/wasnorm_wordpool_576.txt	LTP389	ltpFR2	17	19	KNAPSACK	783	n/a	n/a	0	0	0
3820314	REC_WORD	wordpools/wasnorm_wordpool_576.txt	LTP389	ltpFR2	17	19	LASER	801	n/a	n/a	0	0	0
3821132	REC_WORD	wordpools/wasnorm_wordpool_576.txt	LTP389	ltpFR2	17	19	SWITCH	1422	n/a	n/a	0	0	0
3823962	REC_WORD	wordpools/wasnorm_wordpool_576.txt	LTP389	ltpFR2	17	19	SOFTBALL	1343	n/a	n/a	0	0	0
3825184	REC_WORD	wordpools/wasnorm_wordpool_576.txt	LTP389	ltpFR2	17	19	WRIST	1626	n/a	n/a	0	0	0
3826017	REC_WORD	wordpools/wasnorm_wordpool_576.txt	LTP389	ltpFR2	17	19	PEANUT	1032	n/a	n/a	0	0	0
3837625	REC_WORD	wordpools/wasnorm_wordpool_576.txt	LTP389	ltpFR2	17	19	DIME	466	n/a	n/a	0	0	0
3845637	REC_WORD	wordpools/wasnorm_wordpool_576.txt	LTP389	ltpFR2	17	19	TOURIST	1488	n/a	n/a	0	0	0
3858652	REC_WORD	wordpools/wasnorm_wordpool_576.txt	LTP389	ltpFR2	17	19	FOX	598	n/a	n/a	0	0	0
3900986	DISTRACTOR	n/a	LTP389	ltpFR2	17	20	n/a	n/a	n/a	n/a	0	0	0
3900987	START	n/a	LTP389	ltpFR2	17	n/a	n/a	n/a	28	n/a	n/a	n/a	n/a
3901003	PROB	n/a	LTP389	ltpFR2	17	n/a	n/a	n/a	28	20	8	3	9
3903353	PROB	n/a	LTP389	ltpFR2	17	n/a	n/a	n/a	28	14	2	4	8
3904719	PROB	n/a	LTP389	ltpFR2	17	n/a	n/a	n/a	28	19	3	7	9
3906003	PROB	n/a	LTP389	ltpFR2	17	n/a	n/a	n/a	28	18	3	8	7
3907452	PROB	n/a	LTP389	ltpFR2	17	n/a	n/a	n/a	28	7	3	2	2
3909370	PROB	n/a	LTP389	ltpFR2	17	n/a	n/a	n/a	28	18	8	9	1
3910719	PROB	n/a	LTP389	ltpFR2	17	n/a	n/a	n/a	28	13	2	6	5
3913270	PROB	n/a	LTP389	ltpFR2	17	n/a	n/a	n/a	28	8	5	2	1
