mstime	trial_type	stim_file	subject	experiment	session	trial	task	item_name	item_num	recog_conf	resp	answer	test_x	test_y	test_z	color_b	color_g	color_r	case	font
0	SESS_START	n/a	LTP293	ltpFR	13	n/a	n/a	n/a	n/a	3	n/a	n/a	0	0	0	n/a	n/a	n/a	n/a	n/a
24679	START	n/a	LTP293	ltpFR	13	n/a	n/a	n/a	n/a	n/a	n/a	n/a	n/a	n/a	n/a	n/a	n/a	n/a	n/a	n/a
24712	PROB	n/a	LTP293	ltpFR	13	n/a	n/a	n/a	n/a	n/a	n/a	12	2	6	4	n/a	n/a	n/a	n/a	n/a
26977	PROB	n/a	LTP293	ltpFR	13	n/a	n/a	n/a	n/a	n/a	n/a	18	9	4	5	n/a	n/a	n/a	n/a	n/a
28374	PROB	n/a	LTP293	ltpFR	13	n/a	n/a	n/a	n/a	n/a	n/a	17	6	9	2	n/a	n/a	n/a	n/a	n/a
29855	PROB	n/a	LTP293	ltpFR	13	n/a	n/a	n/a	n/a	n/a	n/a	17	3	9	5	n/a	n/a	n/a	n/a	n/a
31204	PROB	n/a	LTP293	ltpFR	13	n/a	n/a	n/a	n/a	n/a	n/a	7	4	2	1	n/a	n/a	n/a	n/a	n/a
32584	PROB	n/a	LTP293	ltpFR	13	n/a	n/a	n/a	n/a	n/a	n/a	19	6	7	6	n/a	n/a	n/a	n/a	n/a
35563	PROB	n/a	LTP293	ltpFR	13	n/a	n/a	n/a	n/a	n/a	n/a	16	9	3	4	n/a	n/a	n/a	n/a	n/a
36844	PROB	n/a	LTP293	ltpFR	13	n/a	n/a	n/a	n/a	n/a	n/a	18	5	7	6	n/a	n/a	n/a	n/a	n/a
38675	PROB	n/a	LTP293	ltpFR	13	n/a	n/a	n/a	n/a	n/a	n/a	16	9	2	5	n/a	n/a	n/a	n/a	n/a
39840	PROB	n/a	LTP293	ltpFR	13	n/a	n/a	n/a	n/a	n/a	n/a	14	3	7	4	n/a	n/a	n/a	n/a	n/a
41687	PROB	n/a	LTP293	ltpFR	13	n/a	n/a	n/a	n/a	n/a	n/a	19	7	4	8	n/a	n/a	n/a	n/a	n/a
44338	STOP	n/a	LTP293	ltpFR	13	n/a	n/a	n/a	n/a	n/a	n/a	n/a	n/a	n/a	n/a	n/a	n/a	n/a	n/a	n/a
81380	START	n/a	LTP293	ltpFR	13	n/a	n/a	n/a	n/a	n/a	n/a	n/a	n/a	n/a	n/a	n/a	n/a	n/a	n/a	n/a
82892	PROB	n/a	LTP293	ltpFR	13	n/a	n/a	n/a	n/a	n/a	n/a	7	1	3	3	n/a	n/a	n/a	n/a	n/a
84573	PROB	n/a	LTP293	ltpFR	13	n/a	n/a	n/a	n/a	n/a	n/a	16	6	3	7	n/a	n/a	n/a	n/a	n/a
86438	PROB	n/a	LTP293	ltpFR	13	n/a	n/a	n/a	n/a	n/a	n/a	17	7	3	7	n/a	n/a	n/a	n/a	n/a
88370	STOP	n/a	LTP293	ltpFR	13	n/a	n/a	n/a	n/a	n/a	n/a	n/a	n/a	n/a	n/a	n/a	n/a	n/a	n/a	n/a
90249	WORD	wordpools/wasnorm_wordpool_less_exclusions.txt	LTP293	ltpFR	13	1	0	SCAPEGOAT	1244	n/a	1	n/a	0	0	0	0	0.5869140625	0.422607421875	lower	../fonts/zerothre.ttf
93261	START	n/a	LTP293	ltpFR	13	n/a	n/a	n/a	n/a	n/a	n/a	n/a	n/a	n/a	n/a	n/a	n/a	n/a	n/a	n/a
94076	PROB	n/a	LTP293	ltpFR	13	n/a	n/a	n/a	n/a	n/a	n/a	12	3	5	4	n/a	n/a	n/a	n/a	n/a
95556	PROB	n/a	LTP293	ltpFR	13	n/a	n/a	n/a	n/a	n/a	n/a	16	6	1	9	n/a	n/a	n/a	n/a	n/a
96671	PROB	n/a	LTP293	ltpFR	13	n/a	n/a	n/a	n/a	n/a	n/a	16	6	5	5	n/a	n/a	n/a	n/a	n/a
97687	PROB	n/a	LTP293	ltpFR	13	n/a	n/a	n/a	n/a	n/a	n/a	4	2	1	1	n/a	n/a	n/a	n/a	n/a
98785	PROB	n/a	LTP293	ltpFR	13	n/a	n/a	n/a	n/a	n/a	n/a	15	9	3	3	n/a	n/a	n/a	n/a	n/a
100242	STOP	n/a	LTP293	ltpFR	13	n/a	n/a	n/a	n/a	n/a	n/a	n/a	n/a	n/a	n/a	n/a	n/a	n/a	n/a	n/a
102314	WORD	wordpools/wasnorm_wordpool_less_exclusions.txt	LTP293	ltpFR	13	1	0	AUTOMOBILE	62	n/a	1	n/a	0	0	0	0	0.5869140625	0.422607421875	lower	../fonts/zerothre.ttf
105327	START	n/a	LTP293	ltpFR	13	n/a	n/a	n/a	n/a	n/a	n/a	n/a	n/a	n/a	n/a	n/a	n/a	n/a	n/a	n/a
106458	PROB	n/a	LTP293	ltpFR	13	n/a	n/a	n/a	n/a	n/a	n/a	13	3	9	1	n/a	n/a	n/a	n/a	n/a
107989	PROB	n/a	LTP293	ltpFR	13	n/a	n/a	n/a	n/a	n/a	n/a	14	4	3	7	n/a	n/a	n/a	n/a	n/a
109585	PROB	n/a	LTP293	ltpFR	13	n/a	n/a	n/a	n/a	n/a	n/a	23	8	6	9	n/a	n/a	n/a	n/a	n/a
111809	STOP	n/a	LTP293	ltpFR	13	n/a	n/a	n/a	n/a	n/a	n/a	n/a	n/a	n/a	n/a	n/a	n/a	n/a	n/a	n/a
114379	WORD	wordpools/wasnorm_wordpool_less_exclusions.txt	LTP293	ltpFR	13	1	0	SCALE	1241	n/a	0	n/a	0	0	0	0	0.5869140625	0.422607421875	lower	../fonts/zerothre.ttf
117392	START	n/a	LTP293	ltpFR	13	n/a	n/a	n/a	n/a	n/a	n/a	n/a	n/a	n/a	n/a	n/a	n/a	n/a	n/a	n/a
118572	PROB	n/a	LTP293	ltpFR	13	n/a	n/a	n/a	n/a	n/a	n/a	8	2	5	1	n/a	n/a	n/a	n/a	n/a
120437	PROB	n/a	LTP293	ltpFR	13	n/a	n/a	n/a	n/a	n/a	n/a	18	6	9	3	n/a	n/a	n/a	n/a	n/a
122466	PROB	n/a	LTP293	ltpFR	13	n/a	n/a	n/a	n/a	n/a	n/a	15	8	4	3	n/a	n/a	n/a	n/a	n/a
125378	STOP	n/a	LTP293	ltpFR	13	n/a	n/a	n/a	n/a	n/a	n/a	n/a	n/a	n/a	n/a	n/a	n/a	n/a	n/a	n/a
126543	WORD	wordpools/wasnorm_wordpool_less_exclusions.txt	LTP293	ltpFR	13	1	0	SYRUP	1425	n/a	0	n/a	0	0	0	0	0.5869140625	0.422607421875	lower	../fonts/zerothre.ttf
129556	START	n/a	LTP293	ltpFR	13	n/a	n/a	n/a	n/a	n/a	n/a	n/a	n/a	n/a	n/a	n/a	n/a	n/a	n/a	n/a
130587	PROB	n/a	LTP293	ltpFR	13	n/a	n/a	n/a	n/a	n/a	n/a	17	6	7	4	n/a	n/a	n/a	n/a	n/a
133434	PROB	n/a	LTP293	ltpFR	13	n/a	n/a	n/a	n/a	n/a	n/a	18	9	6	3	n/a	n/a	n/a	n/a	n/a
134748	PROB	n/a	LTP293	ltpFR	13	n/a	n/a	n/a	n/a	n/a	n/a	16	6	7	3	n/a	n/a	n/a	n/a	n/a
135880	PROB	n/a	LTP293	ltpFR	13	n/a	n/a	n/a	n/a	n/a	n/a	9	4	4	1	n/a	n/a	n/a	n/a	n/a
137058	STOP	n/a	LTP293	ltpFR	13	n/a	n/a	n/a	n/a	n/a	n/a	n/a	n/a	n/a	n/a	n/a	n/a	n/a	n/a	n/a
138460	WORD	wordpools/wasnorm_wordpool_less_exclusions.txt	LTP293	ltpFR	13	1	0	TOWN	1491	n/a	1	n/a	0	0	0	0	0.5869140625	0.422607421875	lower	../fonts/zerothre.ttf
141472	START	n/a	LTP293	ltpFR	13	n/a	n/a	n/a	n/a	n/a	n/a	n/a	n/a	n/a	n/a	n/a	n/a	n/a	n/a	n/a
142321	PROB	n/a	LTP293	ltpFR	13	n/a	n/a	n/a	n/a	n/a	n/a	10	2	1	7	n/a	n/a	n/a	n/a	n/a
143535	PROB	n/a	LTP293	ltpFR	13	n/a	n/a	n/a	n/a	n/a	n/a	10	6	1	3	n/a	n/a	n/a	n/a	n/a
145000	PROB	n/a	LTP293	ltpFR	13	n/a	n/a	n/a	n/a	n/a	n/a	14	5	2	7	n/a	n/a	n/a	n/a	n/a
146149	PROB	n/a	LTP293	ltpFR	13	n/a	n/a	n/a	n/a	n/a	n/a	6	3	1	2	n/a	n/a	n/a	n/a	n/a
148010	STOP	n/a	LTP293	ltpFR	13	n/a	n/a	n/a	n/a	n/a	n/a	n/a	n/a	n/a	n/a	n/a	n/a	n/a	n/a	n/a
150608	WORD	wordpools/wasnorm_wordpool_less_exclusions.txt	LTP293	ltpFR	13	1	0	FACTORY	548	n/a	1	n/a	0	0	0	0	0.5869140625	0.422607421875	lower	../fonts/zerothre.ttf
153620	START	n/a	LTP293	ltpFR	13	n/a	n/a	n/a	n/a	n/a	n/a	n/a	n/a	n/a	n/a	n/a	n/a	n/a	n/a	n/a
154835	PROB	n/a	LTP293	ltpFR	13	n/a	n/a	n/a	n/a	n/a	n/a	16	6	6	4	n/a	n/a	n/a	n/a	n/a
156499	PROB	n/a	LTP293	ltpFR	13	n/a	n/a	n/a	n/a	n/a	n/a	12	3	5	4	n/a	n/a	n/a	n/a	n/a
157714	PROB	n/a	LTP293	ltpFR	13	n/a	n/a	n/a	n/a	n/a	n/a	23	6	9	8	n/a	n/a	n/a	n/a	n/a
161601	STOP	n/a	LTP293	ltpFR	13	n/a	n/a	n/a	n/a	n/a	n/a	n/a	n/a	n/a	n/a	n/a	n/a	n/a	n/a	n/a
162773	WORD	wordpools/wasnorm_wordpool_less_exclusions.txt	LTP293	ltpFR	13	1	0	TRUCK	1512	n/a	1	n/a	0	0	0	0	0.5869140625	0.422607421875	lower	../fonts/zerothre.ttf
165785	START	n/a	LTP293	ltpFR	13	n/a	n/a	n/a	n/a	n/a	n/a	n/a	n/a	n/a	n/a	n/a	n/a	n/a	n/a	n/a
166883	PROB	n/a	LTP293	ltpFR	13	n/a	n/a	n/a	n/a	n/a	n/a	12	1	7	4	n/a	n/a	n/a	n/a	n/a
168166	PROB	n/a	LTP293	ltpFR	13	n/a	n/a	n/a	n/a	n/a	n/a	10	2	5	3	n/a	n/a	n/a	n/a	n/a
170861	PROB	n/a	LTP293	ltpFR	13	n/a	n/a	n/a	n/a	n/a	n/a	10	1	6	3	n/a	n/a	n/a	n/a	n/a
172458	STOP	n/a	LTP293	ltpFR	13	n/a	n/a	n/a	n/a	n/a	n/a	n/a	n/a	n/a	n/a	n/a	n/a	n/a	n/a	n/a
174954	WORD	wordpools/wasnorm_wordpool_less_exclusions.txt	LTP293	ltpFR	13	1	0	ARTICLE	42	n/a	0	n/a	0	0	0	0	0.5869140625	0.422607421875	lower	../fonts/zerothre.ttf
177968	START	n/a	LTP293	ltpFR	13	n/a	n/a	n/a	n/a	n/a	n/a	n/a	n/a	n/a	n/a	n/a	n/a	n/a	n/a	n/a
179066	PROB	n/a	LTP293	ltpFR	13	n/a	n/a	n/a	n/a	n/a	n/a	15	7	6	2	n/a	n/a	n/a	n/a	n/a
181146	PROB	n/a	LTP293	ltpFR	13	n/a	n/a	n/a	n/a	n/a	n/a	8	5	1	3	n/a	n/a	n/a	n/a	n/a
182893	PROB	n/a	LTP293	ltpFR	13	n/a	n/a	n/a	n/a	n/a	n/a	13	1	6	6	n/a	n/a	n/a	n/a	n/a
184225	PROB	n/a	LTP293	ltpFR	13	n/a	n/a	n/a	n/a	n/a	n/a	12	5	1	6	n/a	n/a	n/a	n/a	n/a
185497	STOP	n/a	LTP293	ltpFR	13	n/a	n/a	n/a	n/a	n/a	n/a	n/a	n/a	n/a	n/a	n/a	n/a	n/a	n/a	n/a
187037	WORD	wordpools/wasnorm_wordpool_less_exclusions.txt	LTP293	ltpFR	13	1	0	SHELF	1280	n/a	1	n/a	0	0	0	0	0.5869140625	0.422607421875	lower	../fonts/zerothre.ttf
190050	START	n/a	LTP293	ltpFR	13	n/a	n/a	n/a	n/a	n/a	n/a	n/a	n/a	n/a	n/a	n/a	n/a	n/a	n/a	n/a
190947	PROB	n/a	LTP293	ltpFR	13	n/a	n/a	n/a	n/a	n/a	n/a	8	2	2	4	n/a	n/a	n/a	n/a	n/a
192147	PROB	n/a	LTP293	ltpFR	13	n/a	n/a	n/a	n/a	n/a	n/a	26	9	9	8	n/a	n/a	n/a	n/a	n/a
194575	PROB	n/a	LTP293	ltpFR	13	n/a	n/a	n/a	n/a	n/a	n/a	7	3	2	2	n/a	n/a	n/a	n/a	n/a
196697	STOP	n/a	LTP293	ltpFR	13	n/a	n/a	n/a	n/a	n/a	n/a	n/a	n/a	n/a	n/a	n/a	n/a	n/a	n/a	n/a
199070	WORD	wordpools/wasnorm_wordpool_less_exclusions.txt	LTP293	ltpFR	13	1	0	TICK	1463	n/a	0	n/a	0	0	0	0	0.5869140625	0.422607421875	lower	../fonts/zerothre.ttf
202082	START	n/a	LTP293	ltpFR	13	n/a	n/a	n/a	n/a	n/a	n/a	n/a	n/a	n/a	n/a	n/a	n/a	n/a	n/a	n/a
203130	PROB	n/a	LTP293	ltpFR	13	n/a	n/a	n/a	n/a	n/a	n/a	19	8	2	9	n/a	n/a	n/a	n/a	n/a
204395	PROB	n/a	LTP293	ltpFR	13	n/a	n/a	n/a	n/a	n/a	n/a	22	6	7	9	n/a	n/a	n/a	n/a	n/a
205925	PROB	n/a	LTP293	ltpFR	13	n/a	n/a	n/a	n/a	n/a	n/a	13	4	4	5	n/a	n/a	n/a	n/a	n/a
207855	PROB	n/a	LTP293	ltpFR	13	n/a	n/a	n/a	n/a	n/a	n/a	11	2	2	7	n/a	n/a	n/a	n/a	n/a
209466	STOP	n/a	LTP293	ltpFR	13	n/a	n/a	n/a	n/a	n/a	n/a	n/a	n/a	n/a	n/a	n/a	n/a	n/a	n/a	n/a
211118	WORD	wordpools/wasnorm_wordpool_less_exclusions.txt	LTP293	ltpFR	13	1	0	HOUND	724	n/a	1	n/a	0	0	0	0	0.5869140625	0.422607421875	lower	../fonts/zerothre.ttf
214131	START	n/a	LTP293	ltpFR	13	n/a	n/a	n/a	n/a	n/a	n/a	n/a	n/a	n/a	n/a	n/a	n/a	n/a	n/a	n/a
215295	PROB	n/a	LTP293	ltpFR	13	n/a	n/a	n/a	n/a	n/a	n/a	14	7	1	6	n/a	n/a	n/a	n/a	n/a
217524	PROB	n/a	LTP293	ltpFR	13	n/a	n/a	n/a	n/a	n/a	n/a	17	9	7	1	n/a	n/a	n/a	n/a	n/a
219754	PROB	n/a	LTP293	ltpFR	13	n/a	n/a	n/a	n/a	n/a	n/a	10	1	2	7	n/a	n/a	n/a	n/a	n/a
220913	STOP	n/a	LTP293	ltpFR	13	n/a	n/a	n/a	n/a	n/a	n/a	n/a	n/a	n/a	n/a	n/a	n/a	n/a	n/a	n/a
223100	WORD	wordpools/wasnorm_wordpool_less_exclusions.txt	LTP293	ltpFR	13	1	0	TILE	1468	n/a	0	n/a	0	0	0	0	0.5869140625	0.422607421875	lower	../fonts/zerothre.ttf
226113	START	n/a	LTP293	ltpFR	13	n/a	n/a	n/a	n/a	n/a	n/a	n/a	n/a	n/a	n/a	n/a	n/a	n/a	n/a	n/a
227161	PROB	n/a	LTP293	ltpFR	13	n/a	n/a	n/a	n/a	n/a	n/a	24	8	8	6	n/a	n/a	n/a	n/a	n/a
228957	PROB	n/a	LTP293	ltpFR	13	n/a	n/a	n/a	n/a	n/a	n/a	17	8	8	1	n/a	n/a	n/a	n/a	n/a
230771	PROB	n/a	LTP293	ltpFR	13	n/a	n/a	n/a	n/a	n/a	n/a	13	9	2	2	n/a	n/a	n/a	n/a	n/a
232929	STOP	n/a	LTP293	ltpFR	13	n/a	n/a	n/a	n/a	n/a	n/a	n/a	n/a	n/a	n/a	n/a	n/a	n/a	n/a	n/a
235315	WORD	wordpools/wasnorm_wordpool_less_exclusions.txt	LTP293	ltpFR	13	1	0	STUDENT	1395	n/a	1	n/a	0	0	0	0	0.5869140625	0.422607421875	lower	../fonts/zerothre.ttf
238328	START	n/a	LTP293	ltpFR	13	n/a	n/a	n/a	n/a	n/a	n/a	n/a	n/a	n/a	n/a	n/a	n/a	n/a	n/a	n/a
239309	PROB	n/a	LTP293	ltpFR	13	n/a	n/a	n/a	n/a	n/a	n/a	12	3	8	1	n/a	n/a	n/a	n/a	n/a
240523	PROB	n/a	LTP293	ltpFR	13	n/a	n/a	n/a	n/a	n/a	n/a	20	6	9	5	n/a	n/a	n/a	n/a	n/a
242455	PROB	n/a	LTP293	ltpFR	13	n/a	n/a	n/a	n/a	n/a	n/a	11	1	7	3	n/a	n/a	n/a	n/a	n/a
243685	PROB	n/a	LTP293	ltpFR	13	n/a	n/a	n/a	n/a	n/a	n/a	18	7	7	4	n/a	n/a	n/a	n/a	n/a
245058	STOP	n/a	LTP293	ltpFR	13	n/a	n/a	n/a	n/a	n/a	n/a	n/a	n/a	n/a	n/a	n/a	n/a	n/a	n/a	n/a
247464	WORD	wordpools/wasnorm_wordpool_less_exclusions.txt	LTP293	ltpFR	13	1	0	INSTRUCTOR	741	n/a	1	n/a	0	0	0	0	0.5869140625	0.422607421875	lower	../fonts/zerothre.ttf
250475	START	n/a	LTP293	ltpFR	13	n/a	n/a	n/a	n/a	n/a	n/a	n/a	n/a	n/a	n/a	n/a	n/a	n/a	n/a	n/a
251358	PROB	n/a	LTP293	ltpFR	13	n/a	n/a	n/a	n/a	n/a	n/a	18	6	8	4	n/a	n/a	n/a	n/a	n/a
252972	PROB	n/a	LTP293	ltpFR	13	n/a	n/a	n/a	n/a	n/a	n/a	23	8	7	8	n/a	n/a	n/a	n/a	n/a
255601	PROB	n/a	LTP293	ltpFR	13	n/a	n/a	n/a	n/a	n/a	n/a	6	1	4	1	n/a	n/a	n/a	n/a	n/a
256766	PROB	n/a	LTP293	ltpFR	13	n/a	n/a	n/a	n/a	n/a	n/a	21	4	8	9	n/a	n/a	n/a	n/a	n/a
258010	STOP	n/a	LTP293	ltpFR	13	n/a	n/a	n/a	n/a	n/a	n/a	n/a	n/a	n/a	n/a	n/a	n/a	n/a	n/a	n/a
259396	WORD	wordpools/wasnorm_wordpool_less_exclusions.txt	LTP293	ltpFR	13	1	0	WALL	1582	n/a	1	n/a	0	0	0	0	0.5869140625	0.422607421875	lower	../fonts/zerothre.ttf
262409	START	n/a	LTP293	ltpFR	13	n/a	n/a	n/a	n/a	n/a	n/a	n/a	n/a	n/a	n/a	n/a	n/a	n/a	n/a	n/a
263423	PROB	n/a	LTP293	ltpFR	13	n/a	n/a	n/a	n/a	n/a	n/a	13	5	1	7	n/a	n/a	n/a	n/a	n/a
264587	PROB	n/a	LTP293	ltpFR	13	n/a	n/a	n/a	n/a	n/a	n/a	17	4	5	8	n/a	n/a	n/a	n/a	n/a
266053	PROB	n/a	LTP293	ltpFR	13	n/a	n/a	n/a	n/a	n/a	n/a	12	5	5	2	n/a	n/a	n/a	n/a	n/a
267101	PROB	n/a	LTP293	ltpFR	13	n/a	n/a	n/a	n/a	n/a	n/a	7	1	1	5	n/a	n/a	n/a	n/a	n/a
268250	PROB	n/a	LTP293	ltpFR	13	n/a	n/a	n/a	n/a	n/a	n/a	16	9	3	4	n/a	n/a	n/a	n/a	n/a
269338	STOP	n/a	LTP293	ltpFR	13	n/a	n/a	n/a	n/a	n/a	n/a	n/a	n/a	n/a	n/a	n/a	n/a	n/a	n/a	n/a
271262	WORD	wordpools/wasnorm_wordpool_less_exclusions.txt	LTP293	ltpFR	13	1	0	CLOVE	329	n/a	0	n/a	0	0	0	0	0.5869140625	0.422607421875	lower	../fonts/zerothre.ttf
274274	START	n/a	LTP293	ltpFR	13	n/a	n/a	n/a	n/a	n/a	n/a	n/a	n/a	n/a	n/a	n/a	n/a	n/a	n/a	n/a
275422	PROB	n/a	LTP293	ltpFR	13	n/a	n/a	n/a	n/a	n/a	n/a	20	6	5	9	n/a	n/a	n/a	n/a	n/a
276653	PROB	n/a	LTP293	ltpFR	13	n/a	n/a	n/a	n/a	n/a	n/a	10	3	4	3	n/a	n/a	n/a	n/a	n/a
278816	PROB	n/a	LTP293	ltpFR	13	n/a	n/a	n/a	n/a	n/a	n/a	9	3	1	5	n/a	n/a	n/a	n/a	n/a
280198	PROB	n/a	LTP293	ltpFR	13	n/a	n/a	n/a	n/a	n/a	n/a	6	2	2	2	n/a	n/a	n/a	n/a	n/a
281154	STOP	n/a	LTP293	ltpFR	13	n/a	n/a	n/a	n/a	n/a	n/a	n/a	n/a	n/a	n/a	n/a	n/a	n/a	n/a	n/a
284160	REC_START	n/a	LTP293	ltpFR	13	1	n/a	n/a	n/a	n/a	n/a	n/a	0	0	0	n/a	n/a	n/a	n/a	n/a
284862	REC_WORD	wordpools/wasnorm_wordpool_less_exclusions.txt	LTP293	ltpFR	13	1	0	CLOVE	329	n/a	0	n/a	0	0	0	n/a	n/a	n/a	n/a	n/a
285842	REC_WORD	wordpools/wasnorm_wordpool_less_exclusions.txt	LTP293	ltpFR	13	1	0	WALL	1582	n/a	1	n/a	0	0	0	n/a	n/a	n/a	n/a	n/a
289392	REC_WORD	wordpools/wasnorm_wordpool_less_exclusions.txt	LTP293	ltpFR	13	1	0	AUTOMOBILE	62	n/a	1	n/a	0	0	0	n/a	n/a	n/a	n/a	n/a
290437	REC_WORD	wordpools/wasnorm_wordpool_less_exclusions.txt	LTP293	ltpFR	13	1	0	TRUCK	1512	n/a	1	n/a	0	0	0	n/a	n/a	n/a	n/a	n/a
291784	REC_WORD	wordpools/wasnorm_wordpool_less_exclusions.txt	LTP293	ltpFR	13	1	0	SHELF	1280	n/a	1	n/a	0	0	0	n/a	n/a	n/a	n/a	n/a
293740	REC_WORD	wordpools/wasnorm_wordpool_less_exclusions.txt	LTP293	ltpFR	13	1	0	SCAPEGOAT	1244	n/a	1	n/a	0	0	0	n/a	n/a	n/a	n/a	n/a
295108	REC_WORD	wordpools/wasnorm_wordpool_less_exclusions.txt	LTP293	ltpFR	13	1	0	TICK	1463	n/a	0	n/a	0	0	0	n/a	n/a	n/a	n/a	n/a
381131	WORD	wordpools/wasnorm_wordpool_less_exclusions.txt	LTP293	ltpFR	13	2	0	CLOWN	330	n/a	1	n/a	0	0	0	0	0.5869140625	0.422607421875	lower	../fonts/zerothre.ttf
384975	WORD	wordpools/wasnorm_wordpool_less_exclusions.txt	LTP293	ltpFR	13	2	0	AIRPORT	13	n/a	1	n/a	0	0	0	0	0.5869140625	0.422607421875	lower	../fonts/zerothre.ttf
388835	WORD	wordpools/wasnorm_wordpool_less_exclusions.txt	LTP293	ltpFR	13	2	1	SNACK	1331	n/a	0	n/a	0	0	0	1	0.412841796875	0.57763671875	upper	../fonts/amplitud.ttf
392679	WORD	wordpools/wasnorm_wordpool_less_exclusions.txt	LTP293	ltpFR	13	2	1	BOLT	146	n/a	1	n/a	0	0	0	1	0.412841796875	0.57763671875	upper	../fonts/amplitud.ttf
396657	WORD	wordpools/wasnorm_wordpool_less_exclusions.txt	LTP293	ltpFR	13	2	1	PUB	1135	n/a	1	n/a	0	0	0	1	0.412841796875	0.57763671875	upper	../fonts/amplitud.ttf
400651	WORD	wordpools/wasnorm_wordpool_less_exclusions.txt	LTP293	ltpFR	13	2	1	JOKER	759	n/a	1	n/a	0	0	0	1	0.412841796875	0.57763671875	upper	../fonts/amplitud.ttf
404778	WORD	wordpools/wasnorm_wordpool_less_exclusions.txt	LTP293	ltpFR	13	2	1	COTTAGE	384	n/a	0	n/a	0	0	0	1	0.412841796875	0.57763671875	upper	../fonts/amplitud.ttf
408639	WORD	wordpools/wasnorm_wordpool_less_exclusions.txt	LTP293	ltpFR	13	2	0	TICKET	1464	n/a	0	n/a	0	0	0	0	0.5869140625	0.422607421875	lower	../fonts/zerothre.ttf
412500	WORD	wordpools/wasnorm_wordpool_less_exclusions.txt	LTP293	ltpFR	13	2	0	CHESS	294	n/a	1	n/a	0	0	0	0	0.5869140625	0.422607421875	lower	../fonts/zerothre.ttf
416395	WORD	wordpools/wasnorm_wordpool_less_exclusions.txt	LTP293	ltpFR	13	2	0	MARGARINE	868	n/a	1	n/a	0	0	0	0	0.5869140625	0.422607421875	lower	../fonts/zerothre.ttf
420406	WORD	wordpools/wasnorm_wordpool_less_exclusions.txt	LTP293	ltpFR	13	2	0	SANDWICH	1232	n/a	1	n/a	0	0	0	0	0.5869140625	0.422607421875	lower	../fonts/zerothre.ttf
424615	WORD	wordpools/wasnorm_wordpool_less_exclusions.txt	LTP293	ltpFR	13	2	1	WORKER	1621	n/a	1	n/a	0	0	0	1	0.412841796875	0.57763671875	upper	../fonts/amplitud.ttf
428825	WORD	wordpools/wasnorm_wordpool_less_exclusions.txt	LTP293	ltpFR	13	2	1	ASSISTANT	48	n/a	1	n/a	0	0	0	1	0.412841796875	0.57763671875	upper	../fonts/amplitud.ttf
432936	WORD	wordpools/wasnorm_wordpool_less_exclusions.txt	LTP293	ltpFR	13	2	1	SPARROW	1347	n/a	1	n/a	0	0	0	1	0.412841796875	0.57763671875	upper	../fonts/amplitud.ttf
437131	WORD	wordpools/wasnorm_wordpool_less_exclusions.txt	LTP293	ltpFR	13	2	0	HAWK	692	n/a	1	n/a	0	0	0	0	0.5869140625	0.422607421875	lower	../fonts/zerothre.ttf
441274	WORD	wordpools/wasnorm_wordpool_less_exclusions.txt	LTP293	ltpFR	13	2	0	DICE	461	n/a	0	n/a	0	0	0	0	0.5869140625	0.422607421875	lower	../fonts/zerothre.ttf
444287	START	n/a	LTP293	ltpFR	13	n/a	n/a	n/a	n/a	n/a	n/a	n/a	n/a	n/a	n/a	n/a	n/a	n/a	n/a	n/a
445285	PROB	n/a	LTP293	ltpFR	13	n/a	n/a	n/a	n/a	n/a	n/a	16	7	7	2	n/a	n/a	n/a	n/a	n/a
447399	PROB	n/a	LTP293	ltpFR	13	n/a	n/a	n/a	n/a	n/a	n/a	12	1	3	8	n/a	n/a	n/a	n/a	n/a
448579	PROB	n/a	LTP293	ltpFR	13	n/a	n/a	n/a	n/a	n/a	n/a	12	7	3	2	n/a	n/a	n/a	n/a	n/a
450144	PROB	n/a	LTP293	ltpFR	13	n/a	n/a	n/a	n/a	n/a	n/a	17	9	4	4	n/a	n/a	n/a	n/a	n/a
451817	STOP	n/a	LTP293	ltpFR	13	n/a	n/a	n/a	n/a	n/a	n/a	n/a	n/a	n/a	n/a	n/a	n/a	n/a	n/a	n/a
454122	REC_START	n/a	LTP293	ltpFR	13	2	n/a	n/a	n/a	n/a	n/a	n/a	0	0	0	n/a	n/a	n/a	n/a	n/a
454698	REC_WORD	wordpools/wasnorm_wordpool_less_exclusions.txt	LTP293	ltpFR	13	2	0	HAWK	692	n/a	1	n/a	0	0	0	n/a	n/a	n/a	n/a	n/a
455539	REC_WORD	wordpools/wasnorm_wordpool_less_exclusions.txt	LTP293	ltpFR	13	2	1	SPARROW	1347	n/a	1	n/a	0	0	0	n/a	n/a	n/a	n/a	n/a
456938	REC_WORD	wordpools/wasnorm_wordpool_less_exclusions.txt	LTP293	ltpFR	13	2	0	MARGARINE	868	n/a	1	n/a	0	0	0	n/a	n/a	n/a	n/a	n/a
457868	REC_WORD	wordpools/wasnorm_wordpool_less_exclusions.txt	LTP293	ltpFR	13	2	0	SANDWICH	1232	n/a	1	n/a	0	0	0	n/a	n/a	n/a	n/a	n/a
459572	REC_WORD	wordpools/wasnorm_wordpool_less_exclusions.txt	LTP293	ltpFR	13	2	1	WORKER	1621	n/a	1	n/a	0	0	0	n/a	n/a	n/a	n/a	n/a
460286	REC_WORD	wordpools/wasnorm_wordpool_less_exclusions.txt	LTP293	ltpFR	13	2	1	ASSISTANT	48	n/a	1	n/a	0	0	0	n/a	n/a	n/a	n/a	n/a
463884	REC_WORD	wordpools/wasnorm_wordpool_less_exclusions.txt	LTP293	ltpFR	13	2	0	AIRPORT	13	n/a	1	n/a	0	0	0	n/a	n/a	n/a	n/a	n/a
464883	REC_WORD	wordpools/wasnorm_wordpool_less_exclusions.txt	LTP293	ltpFR	13	2	1	COTTAGE	384	n/a	0	n/a	0	0	0	n/a	n/a	n/a	n/a	n/a
468523	REC_WORD	wordpools/wasnorm_wordpool_less_exclusions.txt	LTP293	ltpFR	13	2	1	SNACK	1331	n/a	0	n/a	0	0	0	n/a	n/a	n/a	n/a	n/a
494332	REC_WORD	wordpools/wasnorm_wordpool_less_exclusions.txt	LTP293	ltpFR	13	2	1	PUB	1135	n/a	1	n/a	0	0	0	n/a	n/a	n/a	n/a	n/a
547299	WORD	wordpools/wasnorm_wordpool_less_exclusions.txt	LTP293	ltpFR	13	3	1	TROUT	1511	n/a	1	n/a	0	0	0	1	0.412841796875	0.57763671875	upper	../fonts/amplitud.ttf
551260	WORD	wordpools/wasnorm_wordpool_less_exclusions.txt	LTP293	ltpFR	13	3	1	STRAWBERRY	1391	n/a	0	n/a	0	0	0	1	0.412841796875	0.57763671875	upper	../fonts/amplitud.ttf
555121	WORD	wordpools/wasnorm_wordpool_less_exclusions.txt	LTP293	ltpFR	13	3	1	WASP	1593	n/a	1	n/a	0	0	0	1	0.412841796875	0.57763671875	upper	../fonts/amplitud.ttf
559032	WORD	wordpools/wasnorm_wordpool_less_exclusions.txt	LTP293	ltpFR	13	3	1	SHACK	1273	n/a	0	n/a	0	0	0	1	0.412841796875	0.57763671875	upper	../fonts/amplitud.ttf
562925	WORD	wordpools/wasnorm_wordpool_less_exclusions.txt	LTP293	ltpFR	13	3	0	SHRIMP	1297	n/a	0	n/a	0	0	0	0	0.5869140625	0.422607421875	lower	../fonts/zerothre.ttf
566936	WORD	wordpools/wasnorm_wordpool_less_exclusions.txt	LTP293	ltpFR	13	3	0	MAPLE	866	n/a	1	n/a	0	0	0	0	0.5869140625	0.422607421875	lower	../fonts/zerothre.ttf
570913	WORD	wordpools/wasnorm_wordpool_less_exclusions.txt	LTP293	ltpFR	13	3	1	CREEK	404	n/a	0	n/a	0	0	0	1	0.412841796875	0.57763671875	upper	../fonts/amplitud.ttf
574857	WORD	wordpools/wasnorm_wordpool_less_exclusions.txt	LTP293	ltpFR	13	3	1	VALVE	1546	n/a	0	n/a	0	0	0	1	0.412841796875	0.57763671875	upper	../fonts/amplitud.ttf
578934	WORD	wordpools/wasnorm_wordpool_less_exclusions.txt	LTP293	ltpFR	13	3	1	PIKE	1067	n/a	1	n/a	0	0	0	1	0.412841796875	0.57763671875	upper	../fonts/amplitud.ttf
582762	WORD	wordpools/wasnorm_wordpool_less_exclusions.txt	LTP293	ltpFR	13	3	1	ROOF	1205	n/a	0	n/a	0	0	0	1	0.412841796875	0.57763671875	upper	../fonts/amplitud.ttf
586606	WORD	wordpools/wasnorm_wordpool_less_exclusions.txt	LTP293	ltpFR	13	3	0	ZUCCHINI	1638	n/a	1	n/a	0	0	0	0	0.5869140625	0.422607421875	lower	../fonts/zerothre.ttf
590550	WORD	wordpools/wasnorm_wordpool_less_exclusions.txt	LTP293	ltpFR	13	3	0	DOVE	491	n/a	0	n/a	0	0	0	0	0.5869140625	0.422607421875	lower	../fonts/zerothre.ttf
594511	WORD	wordpools/wasnorm_wordpool_less_exclusions.txt	LTP293	ltpFR	13	3	0	CARDINAL	244	n/a	1	n/a	0	0	0	0	0.5869140625	0.422607421875	lower	../fonts/zerothre.ttf
598622	WORD	wordpools/wasnorm_wordpool_less_exclusions.txt	LTP293	ltpFR	13	3	0	FLY	586	n/a	0	n/a	0	0	0	0	0.5869140625	0.422607421875	lower	../fonts/zerothre.ttf
602799	WORD	wordpools/wasnorm_wordpool_less_exclusions.txt	LTP293	ltpFR	13	3	0	BUG	187	n/a	0	n/a	0	0	0	0	0.5869140625	0.422607421875	lower	../fonts/zerothre.ttf
606959	WORD	wordpools/wasnorm_wordpool_less_exclusions.txt	LTP293	ltpFR	13	3	0	ROD	1203	n/a	1	n/a	0	0	0	0	0.5869140625	0.422607421875	lower	../fonts/zerothre.ttf
612651	REC_START	n/a	LTP293	ltpFR	13	3	n/a	n/a	n/a	n/a	n/a	n/a	0	0	0	n/a	n/a	n/a	n/a	n/a
613465	REC_WORD	wordpools/wasnorm_wordpool_less_exclusions.txt	LTP293	ltpFR	13	3	0	ROD	1203	n/a	1	n/a	0	0	0	n/a	n/a	n/a	n/a	n/a
614275	REC_WORD	wordpools/wasnorm_wordpool_less_exclusions.txt	LTP293	ltpFR	13	3	0	FLY	586	n/a	0	n/a	0	0	0	n/a	n/a	n/a	n/a	n/a
615646	REC_WORD	wordpools/wasnorm_wordpool_less_exclusions.txt	LTP293	ltpFR	13	3	0	BUG	187	n/a	0	n/a	0	0	0	n/a	n/a	n/a	n/a	n/a
617728	REC_WORD	wordpools/wasnorm_wordpool_less_exclusions.txt	LTP293	ltpFR	13	3	1	SHACK	1273	n/a	0	n/a	0	0	0	n/a	n/a	n/a	n/a	n/a
619896	REC_WORD	wordpools/wasnorm_wordpool_less_exclusions.txt	LTP293	ltpFR	13	3	1	ROOF	1205	n/a	0	n/a	0	0	0	n/a	n/a	n/a	n/a	n/a
622330	REC_WORD	wordpools/wasnorm_wordpool_less_exclusions.txt	LTP293	ltpFR	13	3	1	TROUT	1511	n/a	1	n/a	0	0	0	n/a	n/a	n/a	n/a	n/a
623444	REC_WORD	wordpools/wasnorm_wordpool_less_exclusions.txt	LTP293	ltpFR	13	3	1	PIKE	1067	n/a	1	n/a	0	0	0	n/a	n/a	n/a	n/a	n/a
628768	REC_WORD	wordpools/wasnorm_wordpool_less_exclusions.txt	LTP293	ltpFR	13	3	1	STRAWBERRY	1391	n/a	0	n/a	0	0	0	n/a	n/a	n/a	n/a	n/a
630187	REC_WORD	wordpools/wasnorm_wordpool_less_exclusions.txt	LTP293	ltpFR	13	3	1	WASP	1593	n/a	1	n/a	0	0	0	n/a	n/a	n/a	n/a	n/a
698208	START	n/a	LTP293	ltpFR	13	n/a	n/a	n/a	n/a	n/a	n/a	n/a	n/a	n/a	n/a	n/a	n/a	n/a	n/a	n/a
699721	PROB	n/a	LTP293	ltpFR	13	n/a	n/a	n/a	n/a	n/a	n/a	22	8	6	8	n/a	n/a	n/a	n/a	n/a
702002	PROB	n/a	LTP293	ltpFR	13	n/a	n/a	n/a	n/a	n/a	n/a	14	6	1	7	n/a	n/a	n/a	n/a	n/a
703466	PROB	n/a	LTP293	ltpFR	13	n/a	n/a	n/a	n/a	n/a	n/a	15	8	4	3	n/a	n/a	n/a	n/a	n/a
704929	STOP	n/a	LTP293	ltpFR	13	n/a	n/a	n/a	n/a	n/a	n/a	n/a	n/a	n/a	n/a	n/a	n/a	n/a	n/a	n/a
707044	WORD	wordpools/wasnorm_wordpool_less_exclusions.txt	LTP293	ltpFR	13	4	1	LAWYER	806	n/a	1	n/a	0	0	0	1	0.412841796875	0.57763671875	upper	../fonts/amplitud.ttf
710057	START	n/a	LTP293	ltpFR	13	n/a	n/a	n/a	n/a	n/a	n/a	n/a	n/a	n/a	n/a	n/a	n/a	n/a	n/a	n/a
711022	PROB	n/a	LTP293	ltpFR	13	n/a	n/a	n/a	n/a	n/a	n/a	11	2	6	3	n/a	n/a	n/a	n/a	n/a
712270	PROB	n/a	LTP293	ltpFR	13	n/a	n/a	n/a	n/a	n/a	n/a	17	9	3	5	n/a	n/a	n/a	n/a	n/a
713833	PROB	n/a	LTP293	ltpFR	13	n/a	n/a	n/a	n/a	n/a	n/a	14	3	8	3	n/a	n/a	n/a	n/a	n/a
715614	PROB	n/a	LTP293	ltpFR	13	n/a	n/a	n/a	n/a	n/a	n/a	14	2	4	8	n/a	n/a	n/a	n/a	n/a
716913	STOP	n/a	LTP293	ltpFR	13	n/a	n/a	n/a	n/a	n/a	n/a	n/a	n/a	n/a	n/a	n/a	n/a	n/a	n/a	n/a
719010	WORD	wordpools/wasnorm_wordpool_less_exclusions.txt	LTP293	ltpFR	13	4	1	ATTORNEY	58	n/a	1	n/a	0	0	0	1	0.412841796875	0.57763671875	upper	../fonts/amplitud.ttf
722022	START	n/a	LTP293	ltpFR	13	n/a	n/a	n/a	n/a	n/a	n/a	n/a	n/a	n/a	n/a	n/a	n/a	n/a	n/a	n/a
723220	PROB	n/a	LTP293	ltpFR	13	n/a	n/a	n/a	n/a	n/a	n/a	11	6	4	1	n/a	n/a	n/a	n/a	n/a
724900	PROB	n/a	LTP293	ltpFR	13	n/a	n/a	n/a	n/a	n/a	n/a	15	2	6	7	n/a	n/a	n/a	n/a	n/a
726581	PROB	n/a	LTP293	ltpFR	13	n/a	n/a	n/a	n/a	n/a	n/a	21	9	5	8	n/a	n/a	n/a	n/a	n/a
729505	STOP	n/a	LTP293	ltpFR	13	n/a	n/a	n/a	n/a	n/a	n/a	n/a	n/a	n/a	n/a	n/a	n/a	n/a	n/a	n/a
730874	WORD	wordpools/wasnorm_wordpool_less_exclusions.txt	LTP293	ltpFR	13	4	1	CEREAL	272	n/a	0	n/a	0	0	0	1	0.412841796875	0.57763671875	upper	../fonts/amplitud.ttf
733887	START	n/a	LTP293	ltpFR	13	n/a	n/a	n/a	n/a	n/a	n/a	n/a	n/a	n/a	n/a	n/a	n/a	n/a	n/a	n/a
734868	PROB	n/a	LTP293	ltpFR	13	n/a	n/a	n/a	n/a	n/a	n/a	14	7	3	4	n/a	n/a	n/a	n/a	n/a
736101	PROB	n/a	LTP293	ltpFR	13	n/a	n/a	n/a	n/a	n/a	n/a	13	5	1	7	n/a	n/a	n/a	n/a	n/a
737731	PROB	n/a	LTP293	ltpFR	13	n/a	n/a	n/a	n/a	n/a	n/a	19	7	8	5	n/a	n/a	n/a	n/a	n/a
741314	STOP	n/a	LTP293	ltpFR	13	n/a	n/a	n/a	n/a	n/a	n/a	n/a	n/a	n/a	n/a	n/a	n/a	n/a	n/a	n/a
742740	WORD	wordpools/wasnorm_wordpool_less_exclusions.txt	LTP293	ltpFR	13	4	1	DINNER	468	n/a	0	n/a	0	0	0	1	0.412841796875	0.57763671875	upper	../fonts/amplitud.ttf
745752	START	n/a	LTP293	ltpFR	13	n/a	n/a	n/a	n/a	n/a	n/a	n/a	n/a	n/a	n/a	n/a	n/a	n/a	n/a	n/a
746950	PROB	n/a	LTP293	ltpFR	13	n/a	n/a	n/a	n/a	n/a	n/a	10	7	2	1	n/a	n/a	n/a	n/a	n/a
748399	PROB	n/a	LTP293	ltpFR	13	n/a	n/a	n/a	n/a	n/a	n/a	17	9	5	3	n/a	n/a	n/a	n/a	n/a
750628	PROB	n/a	LTP293	ltpFR	13	n/a	n/a	n/a	n/a	n/a	n/a	17	7	1	9	n/a	n/a	n/a	n/a	n/a
752410	STOP	n/a	LTP293	ltpFR	13	n/a	n/a	n/a	n/a	n/a	n/a	n/a	n/a	n/a	n/a	n/a	n/a	n/a	n/a	n/a
754572	WORD	wordpools/wasnorm_wordpool_less_exclusions.txt	LTP293	ltpFR	13	4	1	SEED	1266	n/a	0	n/a	0	0	0	1	0.412841796875	0.57763671875	upper	../fonts/amplitud.ttf
757585	START	n/a	LTP293	ltpFR	13	n/a	n/a	n/a	n/a	n/a	n/a	n/a	n/a	n/a	n/a	n/a	n/a	n/a	n/a	n/a
758749	PROB	n/a	LTP293	ltpFR	13	n/a	n/a	n/a	n/a	n/a	n/a	17	3	5	9	n/a	n/a	n/a	n/a	n/a
760331	PROB	n/a	LTP293	ltpFR	13	n/a	n/a	n/a	n/a	n/a	n/a	12	4	5	3	n/a	n/a	n/a	n/a	n/a
763127	PROB	n/a	LTP293	ltpFR	13	n/a	n/a	n/a	n/a	n/a	n/a	21	8	8	5	n/a	n/a	n/a	n/a	n/a
764857	STOP	n/a	LTP293	ltpFR	13	n/a	n/a	n/a	n/a	n/a	n/a	n/a	n/a	n/a	n/a	n/a	n/a	n/a	n/a	n/a
766504	WORD	wordpools/wasnorm_wordpool_less_exclusions.txt	LTP293	ltpFR	13	4	1	NEPHEW	942	n/a	1	n/a	0	0	0	1	0.412841796875	0.57763671875	upper	../fonts/amplitud.ttf
769517	START	n/a	LTP293	ltpFR	13	n/a	n/a	n/a	n/a	n/a	n/a	n/a	n/a	n/a	n/a	n/a	n/a	n/a	n/a	n/a
770698	PROB	n/a	LTP293	ltpFR	13	n/a	n/a	n/a	n/a	n/a	n/a	5	1	2	2	n/a	n/a	n/a	n/a	n/a
772047	PROB	n/a	LTP293	ltpFR	13	n/a	n/a	n/a	n/a	n/a	n/a	13	9	3	1	n/a	n/a	n/a	n/a	n/a
773511	PROB	n/a	LTP293	ltpFR	13	n/a	n/a	n/a	n/a	n/a	n/a	10	1	3	6	n/a	n/a	n/a	n/a	n/a
775674	PROB	n/a	LTP293	ltpFR	13	n/a	n/a	n/a	n/a	n/a	n/a	22	9	9	4	n/a	n/a	n/a	n/a	n/a
777458	STOP	n/a	LTP293	ltpFR	13	n/a	n/a	n/a	n/a	n/a	n/a	n/a	n/a	n/a	n/a	n/a	n/a	n/a	n/a	n/a
778371	WORD	wordpools/wasnorm_wordpool_less_exclusions.txt	LTP293	ltpFR	13	4	1	WAREHOUSE	1588	n/a	0	n/a	0	0	0	1	0.412841796875	0.57763671875	upper	../fonts/amplitud.ttf
781383	START	n/a	LTP293	ltpFR	13	n/a	n/a	n/a	n/a	n/a	n/a	n/a	n/a	n/a	n/a	n/a	n/a	n/a	n/a	n/a
782480	PROB	n/a	LTP293	ltpFR	13	n/a	n/a	n/a	n/a	n/a	n/a	22	8	5	9	n/a	n/a	n/a	n/a	n/a
784462	PROB	n/a	LTP293	ltpFR	13	n/a	n/a	n/a	n/a	n/a	n/a	10	4	4	2	n/a	n/a	n/a	n/a	n/a
785742	PROB	n/a	LTP293	ltpFR	13	n/a	n/a	n/a	n/a	n/a	n/a	13	1	8	4	n/a	n/a	n/a	n/a	n/a
787075	PROB	n/a	LTP293	ltpFR	13	n/a	n/a	n/a	n/a	n/a	n/a	17	4	7	6	n/a	n/a	n/a	n/a	n/a
788681	STOP	n/a	LTP293	ltpFR	13	n/a	n/a	n/a	n/a	n/a	n/a	n/a	n/a	n/a	n/a	n/a	n/a	n/a	n/a	n/a
790336	WORD	wordpools/wasnorm_wordpool_less_exclusions.txt	LTP293	ltpFR	13	4	1	BANQUET	86	n/a	0	n/a	0	0	0	1	0.412841796875	0.57763671875	upper	../fonts/amplitud.ttf
793349	START	n/a	LTP293	ltpFR	13	n/a	n/a	n/a	n/a	n/a	n/a	n/a	n/a	n/a	n/a	n/a	n/a	n/a	n/a	n/a
794264	PROB	n/a	LTP293	ltpFR	13	n/a	n/a	n/a	n/a	n/a	n/a	13	5	3	5	n/a	n/a	n/a	n/a	n/a
795429	PROB	n/a	LTP293	ltpFR	13	n/a	n/a	n/a	n/a	n/a	n/a	9	2	1	6	n/a	n/a	n/a	n/a	n/a
796792	PROB	n/a	LTP293	ltpFR	13	n/a	n/a	n/a	n/a	n/a	n/a	15	2	8	5	n/a	n/a	n/a	n/a	n/a
798175	PROB	n/a	LTP293	ltpFR	13	n/a	n/a	n/a	n/a	n/a	n/a	12	4	6	2	n/a	n/a	n/a	n/a	n/a
801349	STOP	n/a	LTP293	ltpFR	13	n/a	n/a	n/a	n/a	n/a	n/a	n/a	n/a	n/a	n/a	n/a	n/a	n/a	n/a	n/a
802235	WORD	wordpools/wasnorm_wordpool_less_exclusions.txt	LTP293	ltpFR	13	4	1	WITNESS	1618	n/a	0	n/a	0	0	0	1	0.412841796875	0.57763671875	upper	../fonts/amplitud.ttf
805248	START	n/a	LTP293	ltpFR	13	n/a	n/a	n/a	n/a	n/a	n/a	n/a	n/a	n/a	n/a	n/a	n/a	n/a	n/a	n/a
806163	PROB	n/a	LTP293	ltpFR	13	n/a	n/a	n/a	n/a	n/a	n/a	14	5	5	4	n/a	n/a	n/a	n/a	n/a
807793	PROB	n/a	LTP293	ltpFR	13	n/a	n/a	n/a	n/a	n/a	n/a	10	7	2	1	n/a	n/a	n/a	n/a	n/a
809225	PROB	n/a	LTP293	ltpFR	13	n/a	n/a	n/a	n/a	n/a	n/a	13	8	2	3	n/a	n/a	n/a	n/a	n/a
810605	PROB	n/a	LTP293	ltpFR	13	n/a	n/a	n/a	n/a	n/a	n/a	18	9	4	5	n/a	n/a	n/a	n/a	n/a
812186	STOP	n/a	LTP293	ltpFR	13	n/a	n/a	n/a	n/a	n/a	n/a	n/a	n/a	n/a	n/a	n/a	n/a	n/a	n/a	n/a
814434	WORD	wordpools/wasnorm_wordpool_less_exclusions.txt	LTP293	ltpFR	13	4	1	ZIPPER	1636	n/a	0	n/a	0	0	0	1	0.412841796875	0.57763671875	upper	../fonts/amplitud.ttf
817446	START	n/a	LTP293	ltpFR	13	n/a	n/a	n/a	n/a	n/a	n/a	n/a	n/a	n/a	n/a	n/a	n/a	n/a	n/a	n/a
818378	PROB	n/a	LTP293	ltpFR	13	n/a	n/a	n/a	n/a	n/a	n/a	22	7	8	7	n/a	n/a	n/a	n/a	n/a
822438	PROB	n/a	LTP293	ltpFR	13	n/a	n/a	n/a	n/a	n/a	n/a	17	8	3	6	n/a	n/a	n/a	n/a	n/a
825446	STOP	n/a	LTP293	ltpFR	13	n/a	n/a	n/a	n/a	n/a	n/a	n/a	n/a	n/a	n/a	n/a	n/a	n/a	n/a	n/a
826333	WORD	wordpools/wasnorm_wordpool_less_exclusions.txt	LTP293	ltpFR	13	4	1	POCKET	1093	n/a	0	n/a	0	0	0	1	0.412841796875	0.57763671875	upper	../fonts/amplitud.ttf
829345	START	n/a	LTP293	ltpFR	13	n/a	n/a	n/a	n/a	n/a	n/a	n/a	n/a	n/a	n/a	n/a	n/a	n/a	n/a	n/a
830260	PROB	n/a	LTP293	ltpFR	13	n/a	n/a	n/a	n/a	n/a	n/a	15	8	3	4	n/a	n/a	n/a	n/a	n/a
831408	PROB	n/a	LTP293	ltpFR	13	n/a	n/a	n/a	n/a	n/a	n/a	18	5	6	7	n/a	n/a	n/a	n/a	n/a
833422	PROB	n/a	LTP293	ltpFR	13	n/a	n/a	n/a	n/a	n/a	n/a	12	5	4	3	n/a	n/a	n/a	n/a	n/a
834836	PROB	n/a	LTP293	ltpFR	13	n/a	n/a	n/a	n/a	n/a	n/a	18	9	7	2	n/a	n/a	n/a	n/a	n/a
836865	STOP	n/a	LTP293	ltpFR	13	n/a	n/a	n/a	n/a	n/a	n/a	n/a	n/a	n/a	n/a	n/a	n/a	n/a	n/a	n/a
838431	WORD	wordpools/wasnorm_wordpool_less_exclusions.txt	LTP293	ltpFR	13	4	1	COACH	331	n/a	1	n/a	0	0	0	1	0.412841796875	0.57763671875	upper	../fonts/amplitud.ttf
841444	START	n/a	LTP293	ltpFR	13	n/a	n/a	n/a	n/a	n/a	n/a	n/a	n/a	n/a	n/a	n/a	n/a	n/a	n/a	n/a
842292	PROB	n/a	LTP293	ltpFR	13	n/a	n/a	n/a	n/a	n/a	n/a	19	7	5	7	n/a	n/a	n/a	n/a	n/a
844139	PROB	n/a	LTP293	ltpFR	13	n/a	n/a	n/a	n/a	n/a	n/a	9	2	5	2	n/a	n/a	n/a	n/a	n/a
845586	PROB	n/a	LTP293	ltpFR	13	n/a	n/a	n/a	n/a	n/a	n/a	20	5	7	8	n/a	n/a	n/a	n/a	n/a
847068	PROB	n/a	LTP293	ltpFR	13	n/a	n/a	n/a	n/a	n/a	n/a	17	8	6	3	n/a	n/a	n/a	n/a	n/a
849226	STOP	n/a	LTP293	ltpFR	13	n/a	n/a	n/a	n/a	n/a	n/a	n/a	n/a	n/a	n/a	n/a	n/a	n/a	n/a	n/a
850363	WORD	wordpools/wasnorm_wordpool_less_exclusions.txt	LTP293	ltpFR	13	4	1	JAW	751	n/a	0	n/a	0	0	0	1	0.412841796875	0.57763671875	upper	../fonts/amplitud.ttf
853376	START	n/a	LTP293	ltpFR	13	n/a	n/a	n/a	n/a	n/a	n/a	n/a	n/a	n/a	n/a	n/a	n/a	n/a	n/a	n/a
854489	PROB	n/a	LTP293	ltpFR	13	n/a	n/a	n/a	n/a	n/a	n/a	22	7	7	8	n/a	n/a	n/a	n/a	n/a
855921	PROB	n/a	LTP293	ltpFR	13	n/a	n/a	n/a	n/a	n/a	n/a	22	9	8	5	n/a	n/a	n/a	n/a	n/a
857951	PROB	n/a	LTP293	ltpFR	13	n/a	n/a	n/a	n/a	n/a	n/a	7	3	2	2	n/a	n/a	n/a	n/a	n/a
859832	PROB	n/a	LTP293	ltpFR	13	n/a	n/a	n/a	n/a	n/a	n/a	14	8	1	5	n/a	n/a	n/a	n/a	n/a
860937	STOP	n/a	LTP293	ltpFR	13	n/a	n/a	n/a	n/a	n/a	n/a	n/a	n/a	n/a	n/a	n/a	n/a	n/a	n/a	n/a
862478	WORD	wordpools/wasnorm_wordpool_less_exclusions.txt	LTP293	ltpFR	13	4	1	RESTAURANT	1187	n/a	0	n/a	0	0	0	1	0.412841796875	0.57763671875	upper	../fonts/amplitud.ttf
865490	START	n/a	LTP293	ltpFR	13	n/a	n/a	n/a	n/a	n/a	n/a	n/a	n/a	n/a	n/a	n/a	n/a	n/a	n/a	n/a
866605	PROB	n/a	LTP293	ltpFR	13	n/a	n/a	n/a	n/a	n/a	n/a	12	5	4	3	n/a	n/a	n/a	n/a	n/a
868087	PROB	n/a	LTP293	ltpFR	13	n/a	n/a	n/a	n/a	n/a	n/a	20	5	8	7	n/a	n/a	n/a	n/a	n/a
869984	PROB	n/a	LTP293	ltpFR	13	n/a	n/a	n/a	n/a	n/a	n/a	12	2	4	6	n/a	n/a	n/a	n/a	n/a
873490	STOP	n/a	LTP293	ltpFR	13	n/a	n/a	n/a	n/a	n/a	n/a	n/a	n/a	n/a	n/a	n/a	n/a	n/a	n/a	n/a
874576	WORD	wordpools/wasnorm_wordpool_less_exclusions.txt	LTP293	ltpFR	13	4	1	CACTUS	215	n/a	1	n/a	0	0	0	1	0.412841796875	0.57763671875	upper	../fonts/amplitud.ttf
877589	START	n/a	LTP293	ltpFR	13	n/a	n/a	n/a	n/a	n/a	n/a	n/a	n/a	n/a	n/a	n/a	n/a	n/a	n/a	n/a
878504	PROB	n/a	LTP293	ltpFR	13	n/a	n/a	n/a	n/a	n/a	n/a	16	6	9	1	n/a	n/a	n/a	n/a	n/a
879868	PROB	n/a	LTP293	ltpFR	13	n/a	n/a	n/a	n/a	n/a	n/a	16	4	3	9	n/a	n/a	n/a	n/a	n/a
881167	PROB	n/a	LTP293	ltpFR	13	n/a	n/a	n/a	n/a	n/a	n/a	10	2	7	1	n/a	n/a	n/a	n/a	n/a
883298	PROB	n/a	LTP293	ltpFR	13	n/a	n/a	n/a	n/a	n/a	n/a	13	3	1	9	n/a	n/a	n/a	n/a	n/a
884785	STOP	n/a	LTP293	ltpFR	13	n/a	n/a	n/a	n/a	n/a	n/a	n/a	n/a	n/a	n/a	n/a	n/a	n/a	n/a	n/a
886791	WORD	wordpools/wasnorm_wordpool_less_exclusions.txt	LTP293	ltpFR	13	4	1	CABOOSE	214	n/a	0	n/a	0	0	0	1	0.412841796875	0.57763671875	upper	../fonts/amplitud.ttf
889804	START	n/a	LTP293	ltpFR	13	n/a	n/a	n/a	n/a	n/a	n/a	n/a	n/a	n/a	n/a	n/a	n/a	n/a	n/a	n/a
890735	PROB	n/a	LTP293	ltpFR	13	n/a	n/a	n/a	n/a	n/a	n/a	18	7	7	4	n/a	n/a	n/a	n/a	n/a
892084	PROB	n/a	LTP293	ltpFR	13	n/a	n/a	n/a	n/a	n/a	n/a	14	4	6	4	n/a	n/a	n/a	n/a	n/a
893432	PROB	n/a	LTP293	ltpFR	13	n/a	n/a	n/a	n/a	n/a	n/a	13	6	4	3	n/a	n/a	n/a	n/a	n/a
895030	PROB	n/a	LTP293	ltpFR	13	n/a	n/a	n/a	n/a	n/a	n/a	24	9	9	6	n/a	n/a	n/a	n/a	n/a
897018	STOP	n/a	LTP293	ltpFR	13	n/a	n/a	n/a	n/a	n/a	n/a	n/a	n/a	n/a	n/a	n/a	n/a	n/a	n/a	n/a
899573	REC_START	n/a	LTP293	ltpFR	13	4	n/a	n/a	n/a	n/a	n/a	n/a	0	0	0	n/a	n/a	n/a	n/a	n/a
901024	REC_WORD	wordpools/wasnorm_wordpool_less_exclusions.txt	LTP293	ltpFR	13	4	1	CABOOSE	214	n/a	0	n/a	0	0	0	n/a	n/a	n/a	n/a	n/a
903030	REC_WORD	wordpools/wasnorm_wordpool_less_exclusions.txt	LTP293	ltpFR	13	4	1	ATTORNEY	58	n/a	1	n/a	0	0	0	n/a	n/a	n/a	n/a	n/a
904024	REC_WORD	wordpools/wasnorm_wordpool_less_exclusions.txt	LTP293	ltpFR	13	4	1	LAWYER	806	n/a	1	n/a	0	0	0	n/a	n/a	n/a	n/a	n/a
905825	REC_WORD	wordpools/wasnorm_wordpool_less_exclusions.txt	LTP293	ltpFR	13	4	1	BANQUET	86	n/a	0	n/a	0	0	0	n/a	n/a	n/a	n/a	n/a
907773	REC_WORD	wordpools/wasnorm_wordpool_less_exclusions.txt	LTP293	ltpFR	13	4	1	CEREAL	272	n/a	0	n/a	0	0	0	n/a	n/a	n/a	n/a	n/a
911365	REC_WORD	wordpools/wasnorm_wordpool_less_exclusions.txt	LTP293	ltpFR	13	4	1	DINNER	468	n/a	0	n/a	0	0	0	n/a	n/a	n/a	n/a	n/a
917170	REC_WORD	wordpools/wasnorm_wordpool_less_exclusions.txt	LTP293	ltpFR	13	4	1	WITNESS	1618	n/a	0	n/a	0	0	0	n/a	n/a	n/a	n/a	n/a
928716	REC_WORD	wordpools/wasnorm_wordpool_less_exclusions.txt	LTP293	ltpFR	13	4	1	NEPHEW	942	n/a	1	n/a	0	0	0	n/a	n/a	n/a	n/a	n/a
996212	START	n/a	LTP293	ltpFR	13	n/a	n/a	n/a	n/a	n/a	n/a	n/a	n/a	n/a	n/a	n/a	n/a	n/a	n/a	n/a
997726	PROB	n/a	LTP293	ltpFR	13	n/a	n/a	n/a	n/a	n/a	n/a	18	8	5	5	n/a	n/a	n/a	n/a	n/a
998957	PROB	n/a	LTP293	ltpFR	13	n/a	n/a	n/a	n/a	n/a	n/a	19	7	6	6	n/a	n/a	n/a	n/a	n/a
1000937	PROB	n/a	LTP293	ltpFR	13	n/a	n/a	n/a	n/a	n/a	n/a	11	6	2	3	n/a	n/a	n/a	n/a	n/a
1002568	PROB	n/a	LTP293	ltpFR	13	n/a	n/a	n/a	n/a	n/a	n/a	16	7	8	1	n/a	n/a	n/a	n/a	n/a
1003667	PROB	n/a	LTP293	ltpFR	13	n/a	n/a	n/a	n/a	n/a	n/a	13	4	5	4	n/a	n/a	n/a	n/a	n/a
1005215	PROB	n/a	LTP293	ltpFR	13	n/a	n/a	n/a	n/a	n/a	n/a	19	6	7	6	n/a	n/a	n/a	n/a	n/a
1007412	PROB	n/a	LTP293	ltpFR	13	n/a	n/a	n/a	n/a	n/a	n/a	16	1	9	7	n/a	n/a	n/a	n/a	n/a
1008792	PROB	n/a	LTP293	ltpFR	13	n/a	n/a	n/a	n/a	n/a	n/a	16	6	7	3	n/a	n/a	n/a	n/a	n/a
1009857	PROB	n/a	LTP293	ltpFR	13	n/a	n/a	n/a	n/a	n/a	n/a	15	5	1	9	n/a	n/a	n/a	n/a	n/a
1011713	STOP	n/a	LTP293	ltpFR	13	n/a	n/a	n/a	n/a	n/a	n/a	n/a	n/a	n/a	n/a	n/a	n/a	n/a	n/a	n/a
1013137	WORD	wordpools/wasnorm_wordpool_less_exclusions.txt	LTP293	ltpFR	13	5	1	ALLIGATOR	16	n/a	1	n/a	0	0	0	1	0.412841796875	0.57763671875	upper	../fonts/amplitud.ttf
1016150	START	n/a	LTP293	ltpFR	13	n/a	n/a	n/a	n/a	n/a	n/a	n/a	n/a	n/a	n/a	n/a	n/a	n/a	n/a	n/a
1017064	PROB	n/a	LTP293	ltpFR	13	n/a	n/a	n/a	n/a	n/a	n/a	9	2	6	1	n/a	n/a	n/a	n/a	n/a
1019493	PROB	n/a	LTP293	ltpFR	13	n/a	n/a	n/a	n/a	n/a	n/a	8	2	2	4	n/a	n/a	n/a	n/a	n/a
1020625	PROB	n/a	LTP293	ltpFR	13	n/a	n/a	n/a	n/a	n/a	n/a	16	7	8	1	n/a	n/a	n/a	n/a	n/a
1021974	PROB	n/a	LTP293	ltpFR	13	n/a	n/a	n/a	n/a	n/a	n/a	14	1	5	8	n/a	n/a	n/a	n/a	n/a
1023305	PROB	n/a	LTP293	ltpFR	13	n/a	n/a	n/a	n/a	n/a	n/a	22	5	9	7	n/a	n/a	n/a	n/a	n/a
1025684	PROB	n/a	LTP293	ltpFR	13	n/a	n/a	n/a	n/a	n/a	n/a	10	6	1	3	n/a	n/a	n/a	n/a	n/a
1027266	PROB	n/a	LTP293	ltpFR	13	n/a	n/a	n/a	n/a	n/a	n/a	11	3	2	6	n/a	n/a	n/a	n/a	n/a
1029463	PROB	n/a	LTP293	ltpFR	13	n/a	n/a	n/a	n/a	n/a	n/a	22	9	6	7	n/a	n/a	n/a	n/a	n/a
1031466	STOP	n/a	LTP293	ltpFR	13	n/a	n/a	n/a	n/a	n/a	n/a	n/a	n/a	n/a	n/a	n/a	n/a	n/a	n/a	n/a
1033107	WORD	wordpools/wasnorm_wordpool_less_exclusions.txt	LTP293	ltpFR	13	5	1	MONGOOSE	909	n/a	1	n/a	0	0	0	1	0.412841796875	0.57763671875	upper	../fonts/amplitud.ttf
1036120	START	n/a	LTP293	ltpFR	13	n/a	n/a	n/a	n/a	n/a	n/a	n/a	n/a	n/a	n/a	n/a	n/a	n/a	n/a	n/a
1037301	PROB	n/a	LTP293	ltpFR	13	n/a	n/a	n/a	n/a	n/a	n/a	18	6	4	8	n/a	n/a	n/a	n/a	n/a
1038781	PROB	n/a	LTP293	ltpFR	13	n/a	n/a	n/a	n/a	n/a	n/a	14	1	6	7	n/a	n/a	n/a	n/a	n/a
1040578	PROB	n/a	LTP293	ltpFR	13	n/a	n/a	n/a	n/a	n/a	n/a	17	9	4	4	n/a	n/a	n/a	n/a	n/a
1042725	PROB	n/a	LTP293	ltpFR	13	n/a	n/a	n/a	n/a	n/a	n/a	14	6	2	6	n/a	n/a	n/a	n/a	n/a
1044340	PROB	n/a	LTP293	ltpFR	13	n/a	n/a	n/a	n/a	n/a	n/a	14	6	5	3	n/a	n/a	n/a	n/a	n/a
1045737	PROB	n/a	LTP293	ltpFR	13	n/a	n/a	n/a	n/a	n/a	n/a	17	2	8	7	n/a	n/a	n/a	n/a	n/a
1047286	PROB	n/a	LTP293	ltpFR	13	n/a	n/a	n/a	n/a	n/a	n/a	17	9	5	3	n/a	n/a	n/a	n/a	n/a
1049000	PROB	n/a	LTP293	ltpFR	13	n/a	n/a	n/a	n/a	n/a	n/a	12	4	5	3	n/a	n/a	n/a	n/a	n/a
1050649	STOP	n/a	LTP293	ltpFR	13	n/a	n/a	n/a	n/a	n/a	n/a	n/a	n/a	n/a	n/a	n/a	n/a	n/a	n/a	n/a
1053277	WORD	wordpools/wasnorm_wordpool_less_exclusions.txt	LTP293	ltpFR	13	5	1	CHIMNEY	301	n/a	0	n/a	0	0	0	1	0.412841796875	0.57763671875	upper	../fonts/amplitud.ttf
1056290	START	n/a	LTP293	ltpFR	13	n/a	n/a	n/a	n/a	n/a	n/a	n/a	n/a	n/a	n/a	n/a	n/a	n/a	n/a	n/a
1057221	PROB	n/a	LTP293	ltpFR	13	n/a	n/a	n/a	n/a	n/a	n/a	13	2	7	4	n/a	n/a	n/a	n/a	n/a
1059933	PROB	n/a	LTP293	ltpFR	13	n/a	n/a	n/a	n/a	n/a	n/a	22	9	9	4	n/a	n/a	n/a	n/a	n/a
1061431	PROB	n/a	LTP293	ltpFR	13	n/a	n/a	n/a	n/a	n/a	n/a	16	5	9	2	n/a	n/a	n/a	n/a	n/a
1062795	PROB	n/a	LTP293	ltpFR	13	n/a	n/a	n/a	n/a	n/a	n/a	11	2	2	7	n/a	n/a	n/a	n/a	n/a
1064492	PROB	n/a	LTP293	ltpFR	13	n/a	n/a	n/a	n/a	n/a	n/a	13	3	2	8	n/a	n/a	n/a	n/a	n/a
1065774	PROB	n/a	LTP293	ltpFR	13	n/a	n/a	n/a	n/a	n/a	n/a	8	6	1	1	n/a	n/a	n/a	n/a	n/a
1066990	PROB	n/a	LTP293	ltpFR	13	n/a	n/a	n/a	n/a	n/a	n/a	11	2	7	2	n/a	n/a	n/a	n/a	n/a
1068238	PROB	n/a	LTP293	ltpFR	13	n/a	n/a	n/a	n/a	n/a	n/a	21	8	7	6	n/a	n/a	n/a	n/a	n/a
1070801	STOP	n/a	LTP293	ltpFR	13	n/a	n/a	n/a	n/a	n/a	n/a	n/a	n/a	n/a	n/a	n/a	n/a	n/a	n/a	n/a
1073164	WORD	wordpools/wasnorm_wordpool_less_exclusions.txt	LTP293	ltpFR	13	5	1	SWING	1421	n/a	0	n/a	0	0	0	1	0.412841796875	0.57763671875	upper	../fonts/amplitud.ttf
1076176	START	n/a	LTP293	ltpFR	13	n/a	n/a	n/a	n/a	n/a	n/a	n/a	n/a	n/a	n/a	n/a	n/a	n/a	n/a	n/a
1077175	PROB	n/a	LTP293	ltpFR	13	n/a	n/a	n/a	n/a	n/a	n/a	16	3	7	6	n/a	n/a	n/a	n/a	n/a
1079222	PROB	n/a	LTP293	ltpFR	13	n/a	n/a	n/a	n/a	n/a	n/a	16	7	5	4	n/a	n/a	n/a	n/a	n/a
1080453	PROB	n/a	LTP293	ltpFR	13	n/a	n/a	n/a	n/a	n/a	n/a	18	4	6	8	n/a	n/a	n/a	n/a	n/a
1081767	PROB	n/a	LTP293	ltpFR	13	n/a	n/a	n/a	n/a	n/a	n/a	12	5	5	2	n/a	n/a	n/a	n/a	n/a
1082865	PROB	n/a	LTP293	ltpFR	13	n/a	n/a	n/a	n/a	n/a	n/a	17	4	7	6	n/a	n/a	n/a	n/a	n/a
1084430	PROB	n/a	LTP293	ltpFR	13	n/a	n/a	n/a	n/a	n/a	n/a	19	3	7	9	n/a	n/a	n/a	n/a	n/a
1085711	PROB	n/a	LTP293	ltpFR	13	n/a	n/a	n/a	n/a	n/a	n/a	18	4	9	5	n/a	n/a	n/a	n/a	n/a
1087076	PROB	n/a	LTP293	ltpFR	13	n/a	n/a	n/a	n/a	n/a	n/a	10	1	4	5	n/a	n/a	n/a	n/a	n/a
1088308	PROB	n/a	LTP293	ltpFR	13	n/a	n/a	n/a	n/a	n/a	n/a	13	1	6	6	n/a	n/a	n/a	n/a	n/a
1089522	PROB	n/a	LTP293	ltpFR	13	n/a	n/a	n/a	n/a	n/a	n/a	18	8	1	9	n/a	n/a	n/a	n/a	n/a
1090665	STOP	n/a	LTP293	ltpFR	13	n/a	n/a	n/a	n/a	n/a	n/a	n/a	n/a	n/a	n/a	n/a	n/a	n/a	n/a	n/a
1093117	WORD	wordpools/wasnorm_wordpool_less_exclusions.txt	LTP293	ltpFR	13	5	1	LUMBER	848	n/a	0	n/a	0	0	0	1	0.412841796875	0.57763671875	upper	../fonts/amplitud.ttf
1096130	START	n/a	LTP293	ltpFR	13	n/a	n/a	n/a	n/a	n/a	n/a	n/a	n/a	n/a	n/a	n/a	n/a	n/a	n/a	n/a
1097161	PROB	n/a	LTP293	ltpFR	13	n/a	n/a	n/a	n/a	n/a	n/a	16	9	1	6	n/a	n/a	n/a	n/a	n/a
1098459	PROB	n/a	LTP293	ltpFR	13	n/a	n/a	n/a	n/a	n/a	n/a	17	8	5	4	n/a	n/a	n/a	n/a	n/a
1100057	PROB	n/a	LTP293	ltpFR	13	n/a	n/a	n/a	n/a	n/a	n/a	11	4	1	6	n/a	n/a	n/a	n/a	n/a
1101670	PROB	n/a	LTP293	ltpFR	13	n/a	n/a	n/a	n/a	n/a	n/a	13	3	3	7	n/a	n/a	n/a	n/a	n/a
1104434	PROB	n/a	LTP293	ltpFR	13	n/a	n/a	n/a	n/a	n/a	n/a	19	9	6	4	n/a	n/a	n/a	n/a	n/a
1105982	PROB	n/a	LTP293	ltpFR	13	n/a	n/a	n/a	n/a	n/a	n/a	19	3	8	8	n/a	n/a	n/a	n/a	n/a
1107578	PROB	n/a	LTP293	ltpFR	13	n/a	n/a	n/a	n/a	n/a	n/a	10	3	2	5	n/a	n/a	n/a	n/a	n/a
1108826	PROB	n/a	LTP293	ltpFR	13	n/a	n/a	n/a	n/a	n/a	n/a	16	5	7	4	n/a	n/a	n/a	n/a	n/a
1110607	PROB	n/a	LTP293	ltpFR	13	n/a	n/a	n/a	n/a	n/a	n/a	10	3	1	6	n/a	n/a	n/a	n/a	n/a
1112106	STOP	n/a	LTP293	ltpFR	13	n/a	n/a	n/a	n/a	n/a	n/a	n/a	n/a	n/a	n/a	n/a	n/a	n/a	n/a	n/a
1113154	WORD	wordpools/wasnorm_wordpool_less_exclusions.txt	LTP293	ltpFR	13	5	1	SNAKE	1333	n/a	1	n/a	0	0	0	1	0.412841796875	0.57763671875	upper	../fonts/amplitud.ttf
1116167	START	n/a	LTP293	ltpFR	13	n/a	n/a	n/a	n/a	n/a	n/a	n/a	n/a	n/a	n/a	n/a	n/a	n/a	n/a	n/a
1117048	PROB	n/a	LTP293	ltpFR	13	n/a	n/a	n/a	n/a	n/a	n/a	10	1	7	2	n/a	n/a	n/a	n/a	n/a
1118712	PROB	n/a	LTP293	ltpFR	13	n/a	n/a	n/a	n/a	n/a	n/a	20	3	8	9	n/a	n/a	n/a	n/a	n/a
1122789	PROB	n/a	LTP293	ltpFR	13	n/a	n/a	n/a	n/a	n/a	n/a	11	2	5	4	n/a	n/a	n/a	n/a	n/a
1124437	PROB	n/a	LTP293	ltpFR	13	n/a	n/a	n/a	n/a	n/a	n/a	17	3	9	5	n/a	n/a	n/a	n/a	n/a
1126185	PROB	n/a	LTP293	ltpFR	13	n/a	n/a	n/a	n/a	n/a	n/a	17	8	5	4	n/a	n/a	n/a	n/a	n/a
1128165	PROB	n/a	LTP293	ltpFR	13	n/a	n/a	n/a	n/a	n/a	n/a	14	2	3	9	n/a	n/a	n/a	n/a	n/a
1129330	PROB	n/a	LTP293	ltpFR	13	n/a	n/a	n/a	n/a	n/a	n/a	15	4	4	7	n/a	n/a	n/a	n/a	n/a
1130594	PROB	n/a	LTP293	ltpFR	13	n/a	n/a	n/a	n/a	n/a	n/a	8	6	1	1	n/a	n/a	n/a	n/a	n/a
1131641	STOP	n/a	LTP293	ltpFR	13	n/a	n/a	n/a	n/a	n/a	n/a	n/a	n/a	n/a	n/a	n/a	n/a	n/a	n/a	n/a
1133108	WORD	wordpools/wasnorm_wordpool_less_exclusions.txt	LTP293	ltpFR	13	5	1	POT	1114	n/a	0	n/a	0	0	0	1	0.412841796875	0.57763671875	upper	../fonts/amplitud.ttf
1136120	START	n/a	LTP293	ltpFR	13	n/a	n/a	n/a	n/a	n/a	n/a	n/a	n/a	n/a	n/a	n/a	n/a	n/a	n/a	n/a
1136951	PROB	n/a	LTP293	ltpFR	13	n/a	n/a	n/a	n/a	n/a	n/a	13	8	2	3	n/a	n/a	n/a	n/a	n/a
1138250	PROB	n/a	LTP293	ltpFR	13	n/a	n/a	n/a	n/a	n/a	n/a	8	1	3	4	n/a	n/a	n/a	n/a	n/a
1139714	PROB	n/a	LTP293	ltpFR	13	n/a	n/a	n/a	n/a	n/a	n/a	12	1	5	6	n/a	n/a	n/a	n/a	n/a
1141860	PROB	n/a	LTP293	ltpFR	13	n/a	n/a	n/a	n/a	n/a	n/a	13	2	9	2	n/a	n/a	n/a	n/a	n/a
1143624	PROB	n/a	LTP293	ltpFR	13	n/a	n/a	n/a	n/a	n/a	n/a	17	3	9	5	n/a	n/a	n/a	n/a	n/a
1145605	PROB	n/a	LTP293	ltpFR	13	n/a	n/a	n/a	n/a	n/a	n/a	12	6	7	1	n/a	n/a	n/a	n/a	n/a
1146953	PROB	n/a	LTP293	ltpFR	13	n/a	n/a	n/a	n/a	n/a	n/a	17	3	8	6	n/a	n/a	n/a	n/a	n/a
1149134	PROB	n/a	LTP293	ltpFR	13	n/a	n/a	n/a	n/a	n/a	n/a	5	2	2	1	n/a	n/a	n/a	n/a	n/a
1150432	PROB	n/a	LTP293	ltpFR	13	n/a	n/a	n/a	n/a	n/a	n/a	14	5	1	8	n/a	n/a	n/a	n/a	n/a
1151777	STOP	n/a	LTP293	ltpFR	13	n/a	n/a	n/a	n/a	n/a	n/a	n/a	n/a	n/a	n/a	n/a	n/a	n/a	n/a	n/a
1153028	WORD	wordpools/wasnorm_wordpool_less_exclusions.txt	LTP293	ltpFR	13	5	1	COLT	349	n/a	1	n/a	0	0	0	1	0.412841796875	0.57763671875	upper	../fonts/amplitud.ttf
1156041	START	n/a	LTP293	ltpFR	13	n/a	n/a	n/a	n/a	n/a	n/a	n/a	n/a	n/a	n/a	n/a	n/a	n/a	n/a	n/a
1157155	PROB	n/a	LTP293	ltpFR	13	n/a	n/a	n/a	n/a	n/a	n/a	15	3	8	4	n/a	n/a	n/a	n/a	n/a
1159452	PROB	n/a	LTP293	ltpFR	13	n/a	n/a	n/a	n/a	n/a	n/a	14	2	8	4	n/a	n/a	n/a	n/a	n/a
1161182	PROB	n/a	LTP293	ltpFR	13	n/a	n/a	n/a	n/a	n/a	n/a	17	7	4	6	n/a	n/a	n/a	n/a	n/a
1162846	PROB	n/a	LTP293	ltpFR	13	n/a	n/a	n/a	n/a	n/a	n/a	12	5	6	1	n/a	n/a	n/a	n/a	n/a
1164311	PROB	n/a	LTP293	ltpFR	13	n/a	n/a	n/a	n/a	n/a	n/a	13	3	2	8	n/a	n/a	n/a	n/a	n/a
1165475	PROB	n/a	LTP293	ltpFR	13	n/a	n/a	n/a	n/a	n/a	n/a	13	8	4	1	n/a	n/a	n/a	n/a	n/a
1167373	PROB	n/a	LTP293	ltpFR	13	n/a	n/a	n/a	n/a	n/a	n/a	6	4	1	1	n/a	n/a	n/a	n/a	n/a
1168355	PROB	n/a	LTP293	ltpFR	13	n/a	n/a	n/a	n/a	n/a	n/a	13	2	2	9	n/a	n/a	n/a	n/a	n/a
1169902	PROB	n/a	LTP293	ltpFR	13	n/a	n/a	n/a	n/a	n/a	n/a	10	1	8	1	n/a	n/a	n/a	n/a	n/a
1171066	STOP	n/a	LTP293	ltpFR	13	n/a	n/a	n/a	n/a	n/a	n/a	n/a	n/a	n/a	n/a	n/a	n/a	n/a	n/a	n/a
1173131	WORD	wordpools/wasnorm_wordpool_less_exclusions.txt	LTP293	ltpFR	13	5	1	TAPE	1433	n/a	0	n/a	0	0	0	1	0.412841796875	0.57763671875	upper	../fonts/amplitud.ttf
1176144	START	n/a	LTP293	ltpFR	13	n/a	n/a	n/a	n/a	n/a	n/a	n/a	n/a	n/a	n/a	n/a	n/a	n/a	n/a	n/a
1177109	PROB	n/a	LTP293	ltpFR	13	n/a	n/a	n/a	n/a	n/a	n/a	22	8	5	9	n/a	n/a	n/a	n/a	n/a
1178639	PROB	n/a	LTP293	ltpFR	13	n/a	n/a	n/a	n/a	n/a	n/a	21	4	8	9	n/a	n/a	n/a	n/a	n/a
1179887	PROB	n/a	LTP293	ltpFR	13	n/a	n/a	n/a	n/a	n/a	n/a	12	6	4	2	n/a	n/a	n/a	n/a	n/a
1181252	PROB	n/a	LTP293	ltpFR	13	n/a	n/a	n/a	n/a	n/a	n/a	12	2	7	3	n/a	n/a	n/a	n/a	n/a
1183349	PROB	n/a	LTP293	ltpFR	13	n/a	n/a	n/a	n/a	n/a	n/a	17	6	3	8	n/a	n/a	n/a	n/a	n/a
1185197	PROB	n/a	LTP293	ltpFR	13	n/a	n/a	n/a	n/a	n/a	n/a	3	1	1	1	n/a	n/a	n/a	n/a	n/a
1186195	PROB	n/a	LTP293	ltpFR	13	n/a	n/a	n/a	n/a	n/a	n/a	22	7	9	6	n/a	n/a	n/a	n/a	n/a
1188474	PROB	n/a	LTP293	ltpFR	13	n/a	n/a	n/a	n/a	n/a	n/a	17	9	5	3	n/a	n/a	n/a	n/a	n/a
1192144	STOP	n/a	LTP293	ltpFR	13	n/a	n/a	n/a	n/a	n/a	n/a	n/a	n/a	n/a	n/a	n/a	n/a	n/a	n/a	n/a
1193035	WORD	wordpools/wasnorm_wordpool_less_exclusions.txt	LTP293	ltpFR	13	5	1	RAM	1165	n/a	1	n/a	0	0	0	1	0.412841796875	0.57763671875	upper	../fonts/amplitud.ttf
1196047	START	n/a	LTP293	ltpFR	13	n/a	n/a	n/a	n/a	n/a	n/a	n/a	n/a	n/a	n/a	n/a	n/a	n/a	n/a	n/a
1197229	PROB	n/a	LTP293	ltpFR	13	n/a	n/a	n/a	n/a	n/a	n/a	13	5	3	5	n/a	n/a	n/a	n/a	n/a
1198410	PROB	n/a	LTP293	ltpFR	13	n/a	n/a	n/a	n/a	n/a	n/a	11	3	4	2	n/a	n/a	n/a	n/a	n/a
1200973	PROB	n/a	LTP293	ltpFR	13	n/a	n/a	n/a	n/a	n/a	n/a	23	6	9	8	n/a	n/a	n/a	n/a	n/a
1202719	PROB	n/a	LTP293	ltpFR	13	n/a	n/a	n/a	n/a	n/a	n/a	21	6	6	9	n/a	n/a	n/a	n/a	n/a
1205183	PROB	n/a	LTP293	ltpFR	13	n/a	n/a	n/a	n/a	n/a	n/a	18	8	7	3	n/a	n/a	n/a	n/a	n/a
1206730	PROB	n/a	LTP293	ltpFR	13	n/a	n/a	n/a	n/a	n/a	n/a	19	6	7	6	n/a	n/a	n/a	n/a	n/a
1209410	PROB	n/a	LTP293	ltpFR	13	n/a	n/a	n/a	n/a	n/a	n/a	13	4	3	6	n/a	n/a	n/a	n/a	n/a
1211146	STOP	n/a	LTP293	ltpFR	13	n/a	n/a	n/a	n/a	n/a	n/a	n/a	n/a	n/a	n/a	n/a	n/a	n/a	n/a	n/a
1212888	WORD	wordpools/wasnorm_wordpool_less_exclusions.txt	LTP293	ltpFR	13	5	1	KNOB	787	n/a	0	n/a	0	0	0	1	0.412841796875	0.57763671875	upper	../fonts/amplitud.ttf
1215900	START	n/a	LTP293	ltpFR	13	n/a	n/a	n/a	n/a	n/a	n/a	n/a	n/a	n/a	n/a	n/a	n/a	n/a	n/a	n/a
1216748	PROB	n/a	LTP293	ltpFR	13	n/a	n/a	n/a	n/a	n/a	n/a	20	7	5	8	n/a	n/a	n/a	n/a	n/a
1218512	PROB	n/a	LTP293	ltpFR	13	n/a	n/a	n/a	n/a	n/a	n/a	13	7	4	2	n/a	n/a	n/a	n/a	n/a
1220742	PROB	n/a	LTP293	ltpFR	13	n/a	n/a	n/a	n/a	n/a	n/a	13	8	4	1	n/a	n/a	n/a	n/a	n/a
1222158	PROB	n/a	LTP293	ltpFR	13	n/a	n/a	n/a	n/a	n/a	n/a	18	5	6	7	n/a	n/a	n/a	n/a	n/a
1223871	PROB	n/a	LTP293	ltpFR	13	n/a	n/a	n/a	n/a	n/a	n/a	21	7	6	8	n/a	n/a	n/a	n/a	n/a
1225785	PROB	n/a	LTP293	ltpFR	13	n/a	n/a	n/a	n/a	n/a	n/a	18	9	2	7	n/a	n/a	n/a	n/a	n/a
1227699	PROB	n/a	LTP293	ltpFR	13	n/a	n/a	n/a	n/a	n/a	n/a	12	2	4	6	n/a	n/a	n/a	n/a	n/a
1228864	PROB	n/a	LTP293	ltpFR	13	n/a	n/a	n/a	n/a	n/a	n/a	13	3	6	2	n/a	n/a	n/a	n/a	n/a
1230545	STOP	n/a	LTP293	ltpFR	13	n/a	n/a	n/a	n/a	n/a	n/a	n/a	n/a	n/a	n/a	n/a	n/a	n/a	n/a	n/a
1232958	WORD	wordpools/wasnorm_wordpool_less_exclusions.txt	LTP293	ltpFR	13	5	1	KEY	773	n/a	0	n/a	0	0	0	1	0.412841796875	0.57763671875	upper	../fonts/amplitud.ttf
1235971	START	n/a	LTP293	ltpFR	13	n/a	n/a	n/a	n/a	n/a	n/a	n/a	n/a	n/a	n/a	n/a	n/a	n/a	n/a	n/a
1236802	PROB	n/a	LTP293	ltpFR	13	n/a	n/a	n/a	n/a	n/a	n/a	19	8	7	4	n/a	n/a	n/a	n/a	n/a
1238832	PROB	n/a	LTP293	ltpFR	13	n/a	n/a	n/a	n/a	n/a	n/a	20	9	9	2	n/a	n/a	n/a	n/a	n/a
1240397	PROB	n/a	LTP293	ltpFR	13	n/a	n/a	n/a	n/a	n/a	n/a	13	3	4	6	n/a	n/a	n/a	n/a	n/a
1242228	PROB	n/a	LTP293	ltpFR	13	n/a	n/a	n/a	n/a	n/a	n/a	19	8	3	8	n/a	n/a	n/a	n/a	n/a
1244092	PROB	n/a	LTP293	ltpFR	13	n/a	n/a	n/a	n/a	n/a	n/a	14	8	5	1	n/a	n/a	n/a	n/a	n/a
1245689	PROB	n/a	LTP293	ltpFR	13	n/a	n/a	n/a	n/a	n/a	n/a	18	4	9	5	n/a	n/a	n/a	n/a	n/a
1247736	PROB	n/a	LTP293	ltpFR	13	n/a	n/a	n/a	n/a	n/a	n/a	17	6	3	8	n/a	n/a	n/a	n/a	n/a
1250016	PROB	n/a	LTP293	ltpFR	13	n/a	n/a	n/a	n/a	n/a	n/a	4	1	1	2	n/a	n/a	n/a	n/a	n/a
1251809	STOP	n/a	LTP293	ltpFR	13	n/a	n/a	n/a	n/a	n/a	n/a	n/a	n/a	n/a	n/a	n/a	n/a	n/a	n/a	n/a
1252995	WORD	wordpools/wasnorm_wordpool_less_exclusions.txt	LTP293	ltpFR	13	5	1	BARN	89	n/a	0	n/a	0	0	0	1	0.412841796875	0.57763671875	upper	../fonts/amplitud.ttf
1256008	START	n/a	LTP293	ltpFR	13	n/a	n/a	n/a	n/a	n/a	n/a	n/a	n/a	n/a	n/a	n/a	n/a	n/a	n/a	n/a
1256839	PROB	n/a	LTP293	ltpFR	13	n/a	n/a	n/a	n/a	n/a	n/a	12	3	7	2	n/a	n/a	n/a	n/a	n/a
1258337	PROB	n/a	LTP293	ltpFR	13	n/a	n/a	n/a	n/a	n/a	n/a	14	5	7	2	n/a	n/a	n/a	n/a	n/a
1261250	PROB	n/a	LTP293	ltpFR	13	n/a	n/a	n/a	n/a	n/a	n/a	20	9	8	3	n/a	n/a	n/a	n/a	n/a
1262830	PROB	n/a	LTP293	ltpFR	13	n/a	n/a	n/a	n/a	n/a	n/a	12	2	4	5	n/a	n/a	n/a	n/a	n/a
1264312	PROB	n/a	LTP293	ltpFR	13	n/a	n/a	n/a	n/a	n/a	n/a	15	4	9	2	n/a	n/a	n/a	n/a	n/a
1266342	PROB	n/a	LTP293	ltpFR	13	n/a	n/a	n/a	n/a	n/a	n/a	14	7	5	2	n/a	n/a	n/a	n/a	n/a
1268322	PROB	n/a	LTP293	ltpFR	13	n/a	n/a	n/a	n/a	n/a	n/a	25	8	8	9	n/a	n/a	n/a	n/a	n/a
1272008	STOP	n/a	LTP293	ltpFR	13	n/a	n/a	n/a	n/a	n/a	n/a	n/a	n/a	n/a	n/a	n/a	n/a	n/a	n/a	n/a
1273032	WORD	wordpools/wasnorm_wordpool_less_exclusions.txt	LTP293	ltpFR	13	5	1	JAM	748	n/a	0	n/a	0	0	0	1	0.412841796875	0.57763671875	upper	../fonts/amplitud.ttf
1276045	START	n/a	LTP293	ltpFR	13	n/a	n/a	n/a	n/a	n/a	n/a	n/a	n/a	n/a	n/a	n/a	n/a	n/a	n/a	n/a
1277192	PROB	n/a	LTP293	ltpFR	13	n/a	n/a	n/a	n/a	n/a	n/a	17	8	3	6	n/a	n/a	n/a	n/a	n/a
1279223	PROB	n/a	LTP293	ltpFR	13	n/a	n/a	n/a	n/a	n/a	n/a	18	6	8	4	n/a	n/a	n/a	n/a	n/a
1280753	PROB	n/a	LTP293	ltpFR	13	n/a	n/a	n/a	n/a	n/a	n/a	15	7	1	7	n/a	n/a	n/a	n/a	n/a
1283317	PROB	n/a	LTP293	ltpFR	13	n/a	n/a	n/a	n/a	n/a	n/a	16	2	6	8	n/a	n/a	n/a	n/a	n/a
1284398	PROB	n/a	LTP293	ltpFR	13	n/a	n/a	n/a	n/a	n/a	n/a	24	8	8	8	n/a	n/a	n/a	n/a	n/a
1285795	PROB	n/a	LTP293	ltpFR	13	n/a	n/a	n/a	n/a	n/a	n/a	13	1	8	4	n/a	n/a	n/a	n/a	n/a
1287128	PROB	n/a	LTP293	ltpFR	13	n/a	n/a	n/a	n/a	n/a	n/a	18	4	6	8	n/a	n/a	n/a	n/a	n/a
1290769	STOP	n/a	LTP293	ltpFR	13	n/a	n/a	n/a	n/a	n/a	n/a	n/a	n/a	n/a	n/a	n/a	n/a	n/a	n/a	n/a
1293185	WORD	wordpools/wasnorm_wordpool_less_exclusions.txt	LTP293	ltpFR	13	5	1	SUPERMARKET	1409	n/a	0	n/a	0	0	0	1	0.412841796875	0.57763671875	upper	../fonts/amplitud.ttf
1296198	START	n/a	LTP293	ltpFR	13	n/a	n/a	n/a	n/a	n/a	n/a	n/a	n/a	n/a	n/a	n/a	n/a	n/a	n/a	n/a
1297379	PROB	n/a	LTP293	ltpFR	13	n/a	n/a	n/a	n/a	n/a	n/a	14	3	8	3	n/a	n/a	n/a	n/a	n/a
1299010	PROB	n/a	LTP293	ltpFR	13	n/a	n/a	n/a	n/a	n/a	n/a	21	6	7	8	n/a	n/a	n/a	n/a	n/a
1301373	PROB	n/a	LTP293	ltpFR	13	n/a	n/a	n/a	n/a	n/a	n/a	23	8	6	9	n/a	n/a	n/a	n/a	n/a
1303486	PROB	n/a	LTP293	ltpFR	13	n/a	n/a	n/a	n/a	n/a	n/a	15	3	6	6	n/a	n/a	n/a	n/a	n/a
1305217	PROB	n/a	LTP293	ltpFR	13	n/a	n/a	n/a	n/a	n/a	n/a	20	4	8	8	n/a	n/a	n/a	n/a	n/a
1307264	PROB	n/a	LTP293	ltpFR	13	n/a	n/a	n/a	n/a	n/a	n/a	13	8	3	2	n/a	n/a	n/a	n/a	n/a
1312198	STOP	n/a	LTP293	ltpFR	13	n/a	n/a	n/a	n/a	n/a	n/a	n/a	n/a	n/a	n/a	n/a	n/a	n/a	n/a	n/a
1313239	WORD	wordpools/wasnorm_wordpool_less_exclusions.txt	LTP293	ltpFR	13	5	1	STORE	1387	n/a	0	n/a	0	0	0	1	0.412841796875	0.57763671875	upper	../fonts/amplitud.ttf
1316251	START	n/a	LTP293	ltpFR	13	n/a	n/a	n/a	n/a	n/a	n/a	n/a	n/a	n/a	n/a	n/a	n/a	n/a	n/a	n/a
1317133	PROB	n/a	LTP293	ltpFR	13	n/a	n/a	n/a	n/a	n/a	n/a	18	4	6	6	n/a	n/a	n/a	n/a	n/a
1318829	PROB	n/a	LTP293	ltpFR	13	n/a	n/a	n/a	n/a	n/a	n/a	9	4	3	2	n/a	n/a	n/a	n/a	n/a
1320660	PROB	n/a	LTP293	ltpFR	13	n/a	n/a	n/a	n/a	n/a	n/a	14	8	1	5	n/a	n/a	n/a	n/a	n/a
1321925	PROB	n/a	LTP293	ltpFR	13	n/a	n/a	n/a	n/a	n/a	n/a	9	4	2	3	n/a	n/a	n/a	n/a	n/a
1324222	PROB	n/a	LTP293	ltpFR	13	n/a	n/a	n/a	n/a	n/a	n/a	22	7	8	7	n/a	n/a	n/a	n/a	n/a
1326801	PROB	n/a	LTP293	ltpFR	13	n/a	n/a	n/a	n/a	n/a	n/a	17	8	8	1	n/a	n/a	n/a	n/a	n/a
1328748	PROB	n/a	LTP293	ltpFR	13	n/a	n/a	n/a	n/a	n/a	n/a	16	8	3	5	n/a	n/a	n/a	n/a	n/a
1329830	PROB	n/a	LTP293	ltpFR	13	n/a	n/a	n/a	n/a	n/a	n/a	18	8	6	4	n/a	n/a	n/a	n/a	n/a
1331002	STOP	n/a	LTP293	ltpFR	13	n/a	n/a	n/a	n/a	n/a	n/a	n/a	n/a	n/a	n/a	n/a	n/a	n/a	n/a	n/a
1334125	REC_START	n/a	LTP293	ltpFR	13	5	n/a	n/a	n/a	n/a	n/a	n/a	0	0	0	n/a	n/a	n/a	n/a	n/a
1339475	REC_WORD	wordpools/wasnorm_wordpool_less_exclusions.txt	LTP293	ltpFR	13	5	1	ALLIGATOR	16	n/a	1	n/a	0	0	0	n/a	n/a	n/a	n/a	n/a
1340545	REC_WORD	wordpools/wasnorm_wordpool_less_exclusions.txt	LTP293	ltpFR	13	5	1	MONGOOSE	909	n/a	1	n/a	0	0	0	n/a	n/a	n/a	n/a	n/a
1341764	REC_WORD	wordpools/wasnorm_wordpool_less_exclusions.txt	LTP293	ltpFR	13	5	1	SNAKE	1333	n/a	1	n/a	0	0	0	n/a	n/a	n/a	n/a	n/a
1343810	REC_WORD	wordpools/wasnorm_wordpool_less_exclusions.txt	LTP293	ltpFR	13	5	1	KNOB	787	n/a	0	n/a	0	0	0	n/a	n/a	n/a	n/a	n/a
1344943	REC_WORD	wordpools/wasnorm_wordpool_less_exclusions.txt	LTP293	ltpFR	13	5	1	KEY	773	n/a	0	n/a	0	0	0	n/a	n/a	n/a	n/a	n/a
1346504	REC_WORD	wordpools/wasnorm_wordpool_less_exclusions.txt	LTP293	ltpFR	13	5	1	BARN	89	n/a	0	n/a	0	0	0	n/a	n/a	n/a	n/a	n/a
1422392	WORD	wordpools/wasnorm_wordpool_less_exclusions.txt	LTP293	ltpFR	13	6	1	MARINE	869	n/a	1	n/a	0	0	0	1	0.412841796875	0.57763671875	upper	../fonts/amplitud.ttf
1426518	WORD	wordpools/wasnorm_wordpool_less_exclusions.txt	LTP293	ltpFR	13	6	1	ICEBERG	731	n/a	0	n/a	0	0	0	1	0.412841796875	0.57763671875	upper	../fonts/amplitud.ttf
1430380	WORD	wordpools/wasnorm_wordpool_less_exclusions.txt	LTP293	ltpFR	13	6	1	RADISH	1158	n/a	0	n/a	0	0	0	1	0.412841796875	0.57763671875	upper	../fonts/amplitud.ttf
1434374	WORD	wordpools/wasnorm_wordpool_less_exclusions.txt	LTP293	ltpFR	13	6	0	PATROL	1027	n/a	1	n/a	0	0	0	0	0.5869140625	0.422607421875	lower	../fonts/zerothre.ttf
1438235	WORD	wordpools/wasnorm_wordpool_less_exclusions.txt	LTP293	ltpFR	13	6	0	PONY	1102	n/a	1	n/a	0	0	0	0	0.5869140625	0.422607421875	lower	../fonts/zerothre.ttf
1442196	WORD	wordpools/wasnorm_wordpool_less_exclusions.txt	LTP293	ltpFR	13	6	1	NIGHTGOWN	953	n/a	0	n/a	0	0	0	1	0.412841796875	0.57763671875	upper	../fonts/amplitud.ttf
1446024	WORD	wordpools/wasnorm_wordpool_less_exclusions.txt	LTP293	ltpFR	13	6	1	CLOTHES	327	n/a	0	n/a	0	0	0	1	0.412841796875	0.57763671875	upper	../fonts/amplitud.ttf
1450101	WORD	wordpools/wasnorm_wordpool_less_exclusions.txt	LTP293	ltpFR	13	6	1	FORK	594	n/a	0	n/a	0	0	0	1	0.412841796875	0.57763671875	upper	../fonts/amplitud.ttf
1454261	WORD	wordpools/wasnorm_wordpool_less_exclusions.txt	LTP293	ltpFR	13	6	0	BROOK	177	n/a	0	n/a	0	0	0	0	0.5869140625	0.422607421875	lower	../fonts/zerothre.ttf
1458139	WORD	wordpools/wasnorm_wordpool_less_exclusions.txt	LTP293	ltpFR	13	6	0	DEPARTMENT	449	n/a	1	n/a	0	0	0	0	0.5869140625	0.422607421875	lower	../fonts/zerothre.ttf
1462166	WORD	wordpools/wasnorm_wordpool_less_exclusions.txt	LTP293	ltpFR	13	6	0	PALM	1007	n/a	0	n/a	0	0	0	0	0.5869140625	0.422607421875	lower	../fonts/zerothre.ttf
1466227	WORD	wordpools/wasnorm_wordpool_less_exclusions.txt	LTP293	ltpFR	13	6	0	ELM	527	n/a	1	n/a	0	0	0	0	0.5869140625	0.422607421875	lower	../fonts/zerothre.ttf
1470354	WORD	wordpools/wasnorm_wordpool_less_exclusions.txt	LTP293	ltpFR	13	6	0	VEGETABLE	1552	n/a	1	n/a	0	0	0	0	0.5869140625	0.422607421875	lower	../fonts/zerothre.ttf
1474281	WORD	wordpools/wasnorm_wordpool_less_exclusions.txt	LTP293	ltpFR	13	6	0	OFFICER	973	n/a	1	n/a	0	0	0	0	0.5869140625	0.422607421875	lower	../fonts/zerothre.ttf
1478392	WORD	wordpools/wasnorm_wordpool_less_exclusions.txt	LTP293	ltpFR	13	6	1	TRUMPET	1513	n/a	0	n/a	0	0	0	1	0.412841796875	0.57763671875	upper	../fonts/amplitud.ttf
1482419	WORD	wordpools/wasnorm_wordpool_less_exclusions.txt	LTP293	ltpFR	13	6	1	TROMBONE	1508	n/a	0	n/a	0	0	0	1	0.412841796875	0.57763671875	upper	../fonts/amplitud.ttf
1485432	START	n/a	LTP293	ltpFR	13	n/a	n/a	n/a	n/a	n/a	n/a	n/a	n/a	n/a	n/a	n/a	n/a	n/a	n/a	n/a
1486413	PROB	n/a	LTP293	ltpFR	13	n/a	n/a	n/a	n/a	n/a	n/a	10	6	2	2	n/a	n/a	n/a	n/a	n/a
1488327	PROB	n/a	LTP293	ltpFR	13	n/a	n/a	n/a	n/a	n/a	n/a	20	8	4	4	n/a	n/a	n/a	n/a	n/a
1489674	PROB	n/a	LTP293	ltpFR	13	n/a	n/a	n/a	n/a	n/a	n/a	12	2	6	4	n/a	n/a	n/a	n/a	n/a
1490990	PROB	n/a	LTP293	ltpFR	13	n/a	n/a	n/a	n/a	n/a	n/a	16	2	7	7	n/a	n/a	n/a	n/a	n/a
1492421	PROB	n/a	LTP293	ltpFR	13	n/a	n/a	n/a	n/a	n/a	n/a	13	2	2	9	n/a	n/a	n/a	n/a	n/a
1494002	PROB	n/a	LTP293	ltpFR	13	n/a	n/a	n/a	n/a	n/a	n/a	19	7	9	3	n/a	n/a	n/a	n/a	n/a
1495250	PROB	n/a	LTP293	ltpFR	13	n/a	n/a	n/a	n/a	n/a	n/a	5	1	1	3	n/a	n/a	n/a	n/a	n/a
1496597	PROB	n/a	LTP293	ltpFR	13	n/a	n/a	n/a	n/a	n/a	n/a	13	7	1	5	n/a	n/a	n/a	n/a	n/a
1498345	PROB	n/a	LTP293	ltpFR	13	n/a	n/a	n/a	n/a	n/a	n/a	23	5	9	9	n/a	n/a	n/a	n/a	n/a
1500362	STOP	n/a	LTP293	ltpFR	13	n/a	n/a	n/a	n/a	n/a	n/a	n/a	n/a	n/a	n/a	n/a	n/a	n/a	n/a	n/a
1503355	REC_START	n/a	LTP293	ltpFR	13	6	n/a	n/a	n/a	n/a	n/a	n/a	0	0	0	n/a	n/a	n/a	n/a	n/a
1504103	REC_WORD	wordpools/wasnorm_wordpool_less_exclusions.txt	LTP293	ltpFR	13	6	1	MARINE	869	n/a	1	n/a	0	0	0	n/a	n/a	n/a	n/a	n/a
1505213	REC_WORD	wordpools/wasnorm_wordpool_less_exclusions.txt	LTP293	ltpFR	13	6	1	ICEBERG	731	n/a	0	n/a	0	0	0	n/a	n/a	n/a	n/a	n/a
1506907	REC_WORD	wordpools/wasnorm_wordpool_less_exclusions.txt	LTP293	ltpFR	13	6	0	PATROL	1027	n/a	1	n/a	0	0	0	n/a	n/a	n/a	n/a	n/a
1508935	REC_WORD	wordpools/wasnorm_wordpool_less_exclusions.txt	LTP293	ltpFR	13	6	1	RADISH	1158	n/a	0	n/a	0	0	0	n/a	n/a	n/a	n/a	n/a
1510048	REC_WORD	wordpools/wasnorm_wordpool_less_exclusions.txt	LTP293	ltpFR	13	6	1	FORK	594	n/a	0	n/a	0	0	0	n/a	n/a	n/a	n/a	n/a
1511406	REC_WORD	wordpools/wasnorm_wordpool_less_exclusions.txt	LTP293	ltpFR	13	6	1	NIGHTGOWN	953	n/a	0	n/a	0	0	0	n/a	n/a	n/a	n/a	n/a
1514853	REC_WORD	wordpools/wasnorm_wordpool_less_exclusions.txt	LTP293	ltpFR	13	6	0	OFFICER	973	n/a	1	n/a	0	0	0	n/a	n/a	n/a	n/a	n/a
1518098	REC_WORD	wordpools/wasnorm_wordpool_less_exclusions.txt	LTP293	ltpFR	13	6	0	DEPARTMENT	449	n/a	1	n/a	0	0	0	n/a	n/a	n/a	n/a	n/a
1519644	REC_WORD	wordpools/wasnorm_wordpool_less_exclusions.txt	LTP293	ltpFR	13	6	0	PALM	1007	n/a	0	n/a	0	0	0	n/a	n/a	n/a	n/a	n/a
1521514	REC_WORD	wordpools/wasnorm_wordpool_less_exclusions.txt	LTP293	ltpFR	13	6	0	VEGETABLE	1552	n/a	1	n/a	0	0	0	n/a	n/a	n/a	n/a	n/a
1532556	REC_WORD	wordpools/wasnorm_wordpool_less_exclusions.txt	LTP293	ltpFR	13	6	1	TRUMPET	1513	n/a	0	n/a	0	0	0	n/a	n/a	n/a	n/a	n/a
1533497	REC_WORD	wordpools/wasnorm_wordpool_less_exclusions.txt	LTP293	ltpFR	13	6	1	TROMBONE	1508	n/a	0	n/a	0	0	0	n/a	n/a	n/a	n/a	n/a
1578975	REST_REWET	n/a	LTP293	ltpFR	13	6	n/a	n/a	n/a	n/a	n/a	n/a	0	0	0	n/a	n/a	n/a	n/a	n/a
2325976	WORD	wordpools/wasnorm_wordpool_less_exclusions.txt	LTP293	ltpFR	13	7	1	SWORD	1423	n/a	0	n/a	0	0	0	1	0.412841796875	0.57763671875	upper	../fonts/amplitud.ttf
2330053	WORD	wordpools/wasnorm_wordpool_less_exclusions.txt	LTP293	ltpFR	13	7	1	SARDINE	1235	n/a	1	n/a	0	0	0	1	0.412841796875	0.57763671875	upper	../fonts/amplitud.ttf
2333930	WORD	wordpools/wasnorm_wordpool_less_exclusions.txt	LTP293	ltpFR	13	7	1	NET	946	n/a	0	n/a	0	0	0	1	0.412841796875	0.57763671875	upper	../fonts/amplitud.ttf
2337824	WORD	wordpools/wasnorm_wordpool_less_exclusions.txt	LTP293	ltpFR	13	7	0	LETTUCE	814	n/a	1	n/a	0	0	0	0	0.5869140625	0.422607421875	lower	../fonts/zerothre.ttf
2341801	WORD	wordpools/wasnorm_wordpool_less_exclusions.txt	LTP293	ltpFR	13	7	0	CYCLONE	431	n/a	1	n/a	0	0	0	0	0.5869140625	0.422607421875	lower	../fonts/zerothre.ttf
2345879	WORD	wordpools/wasnorm_wordpool_less_exclusions.txt	LTP293	ltpFR	13	7	0	MULE	931	n/a	1	n/a	0	0	0	0	0.5869140625	0.422607421875	lower	../fonts/zerothre.ttf
2349974	WORD	wordpools/wasnorm_wordpool_less_exclusions.txt	LTP293	ltpFR	13	7	0	VICTOR	1563	n/a	1	n/a	0	0	0	0	0.5869140625	0.422607421875	lower	../fonts/zerothre.ttf
2353867	WORD	wordpools/wasnorm_wordpool_less_exclusions.txt	LTP293	ltpFR	13	7	0	BEAST	108	n/a	1	n/a	0	0	0	0	0.5869140625	0.422607421875	lower	../fonts/zerothre.ttf
2357778	WORD	wordpools/wasnorm_wordpool_less_exclusions.txt	LTP293	ltpFR	13	7	0	UNDERWEAR	1537	n/a	0	n/a	0	0	0	0	0.5869140625	0.422607421875	lower	../fonts/zerothre.ttf
2361855	WORD	wordpools/wasnorm_wordpool_less_exclusions.txt	LTP293	ltpFR	13	7	1	FEMALE	559	n/a	1	n/a	0	0	0	1	0.412841796875	0.57763671875	upper	../fonts/amplitud.ttf
2365983	WORD	wordpools/wasnorm_wordpool_less_exclusions.txt	LTP293	ltpFR	13	7	1	GROUND	666	n/a	0	n/a	0	0	0	1	0.412841796875	0.57763671875	upper	../fonts/amplitud.ttf
2370193	WORD	wordpools/wasnorm_wordpool_less_exclusions.txt	LTP293	ltpFR	13	7	1	LIPSTICK	829	n/a	0	n/a	0	0	0	1	0.412841796875	0.57763671875	upper	../fonts/amplitud.ttf
2374137	WORD	wordpools/wasnorm_wordpool_less_exclusions.txt	LTP293	ltpFR	13	7	1	EYELASH	546	n/a	0	n/a	0	0	0	1	0.412841796875	0.57763671875	upper	../fonts/amplitud.ttf
2378198	WORD	wordpools/wasnorm_wordpool_less_exclusions.txt	LTP293	ltpFR	13	7	1	PICKLE	1059	n/a	0	n/a	0	0	0	1	0.412841796875	0.57763671875	upper	../fonts/amplitud.ttf
2382408	WORD	wordpools/wasnorm_wordpool_less_exclusions.txt	LTP293	ltpFR	13	7	0	CHEST	295	n/a	1	n/a	0	0	0	0	0.5869140625	0.422607421875	lower	../fonts/zerothre.ttf
2386369	WORD	wordpools/wasnorm_wordpool_less_exclusions.txt	LTP293	ltpFR	13	7	0	HURRICANE	727	n/a	1	n/a	0	0	0	0	0.5869140625	0.422607421875	lower	../fonts/zerothre.ttf
2389382	START	n/a	LTP293	ltpFR	13	n/a	n/a	n/a	n/a	n/a	n/a	n/a	n/a	n/a	n/a	n/a	n/a	n/a	n/a	n/a
2390579	PROB	n/a	LTP293	ltpFR	13	n/a	n/a	n/a	n/a	n/a	n/a	9	1	3	5	n/a	n/a	n/a	n/a	n/a
2392526	PROB	n/a	LTP293	ltpFR	13	n/a	n/a	n/a	n/a	n/a	n/a	18	3	9	6	n/a	n/a	n/a	n/a	n/a
2394374	PROB	n/a	LTP293	ltpFR	13	n/a	n/a	n/a	n/a	n/a	n/a	18	7	5	6	n/a	n/a	n/a	n/a	n/a
2396034	STOP	n/a	LTP293	ltpFR	13	n/a	n/a	n/a	n/a	n/a	n/a	n/a	n/a	n/a	n/a	n/a	n/a	n/a	n/a	n/a
2399151	REC_START	n/a	LTP293	ltpFR	13	7	n/a	n/a	n/a	n/a	n/a	n/a	0	0	0	n/a	n/a	n/a	n/a	n/a
2399750	REC_WORD	wordpools/wasnorm_wordpool_less_exclusions.txt	LTP293	ltpFR	13	7	0	CYCLONE	431	n/a	1	n/a	0	0	0	n/a	n/a	n/a	n/a	n/a
2400745	REC_WORD	wordpools/wasnorm_wordpool_less_exclusions.txt	LTP293	ltpFR	13	7	0	HURRICANE	727	n/a	1	n/a	0	0	0	n/a	n/a	n/a	n/a	n/a
2402394	REC_WORD	wordpools/wasnorm_wordpool_less_exclusions.txt	LTP293	ltpFR	13	7	1	PICKLE	1059	n/a	0	n/a	0	0	0	n/a	n/a	n/a	n/a	n/a
2403277	REC_WORD	wordpools/wasnorm_wordpool_less_exclusions.txt	LTP293	ltpFR	13	7	0	LETTUCE	814	n/a	1	n/a	0	0	0	n/a	n/a	n/a	n/a	n/a
2404228	REC_WORD	wordpools/wasnorm_wordpool_less_exclusions.txt	LTP293	ltpFR	13	7	1	FEMALE	559	n/a	1	n/a	0	0	0	n/a	n/a	n/a	n/a	n/a
2405518	REC_WORD	wordpools/wasnorm_wordpool_less_exclusions.txt	LTP293	ltpFR	13	7	1	LIPSTICK	829	n/a	0	n/a	0	0	0	n/a	n/a	n/a	n/a	n/a
2406427	REC_WORD	wordpools/wasnorm_wordpool_less_exclusions.txt	LTP293	ltpFR	13	7	1	EYELASH	546	n/a	0	n/a	0	0	0	n/a	n/a	n/a	n/a	n/a
2410293	REC_WORD	wordpools/wasnorm_wordpool_less_exclusions.txt	LTP293	ltpFR	13	7	0	BEAST	108	n/a	1	n/a	0	0	0	n/a	n/a	n/a	n/a	n/a
2411361	REC_WORD	wordpools/wasnorm_wordpool_less_exclusions.txt	LTP293	ltpFR	13	7	0	MULE	931	n/a	1	n/a	0	0	0	n/a	n/a	n/a	n/a	n/a
2421403	REC_WORD	wordpools/wasnorm_wordpool_less_exclusions.txt	LTP293	ltpFR	13	7	1	SWORD	1423	n/a	0	n/a	0	0	0	n/a	n/a	n/a	n/a	n/a
2458564	REC_WORD	wordpools/wasnorm_wordpool_less_exclusions.txt	LTP293	ltpFR	13	7	1	GROUND	666	n/a	0	n/a	0	0	0	n/a	n/a	n/a	n/a	n/a
2484024	START	n/a	LTP293	ltpFR	13	n/a	n/a	n/a	n/a	n/a	n/a	n/a	n/a	n/a	n/a	n/a	n/a	n/a	n/a	n/a
2485537	PROB	n/a	LTP293	ltpFR	13	n/a	n/a	n/a	n/a	n/a	n/a	13	3	1	9	n/a	n/a	n/a	n/a	n/a
2487169	PROB	n/a	LTP293	ltpFR	13	n/a	n/a	n/a	n/a	n/a	n/a	25	7	9	9	n/a	n/a	n/a	n/a	n/a
2490064	PROB	n/a	LTP293	ltpFR	13	n/a	n/a	n/a	n/a	n/a	n/a	15	2	5	8	n/a	n/a	n/a	n/a	n/a
2491697	STOP	n/a	LTP293	ltpFR	13	n/a	n/a	n/a	n/a	n/a	n/a	n/a	n/a	n/a	n/a	n/a	n/a	n/a	n/a	n/a
2493110	WORD	wordpools/wasnorm_wordpool_less_exclusions.txt	LTP293	ltpFR	13	8	0	FIST	572	n/a	0	n/a	0	0	0	0	0.5869140625	0.422607421875	lower	../fonts/zerothre.ttf
2496122	START	n/a	LTP293	ltpFR	13	n/a	n/a	n/a	n/a	n/a	n/a	n/a	n/a	n/a	n/a	n/a	n/a	n/a	n/a	n/a
2497021	PROB	n/a	LTP293	ltpFR	13	n/a	n/a	n/a	n/a	n/a	n/a	12	3	2	7	n/a	n/a	n/a	n/a	n/a
2498385	PROB	n/a	LTP293	ltpFR	13	n/a	n/a	n/a	n/a	n/a	n/a	14	7	6	1	n/a	n/a	n/a	n/a	n/a
2500099	PROB	n/a	LTP293	ltpFR	13	n/a	n/a	n/a	n/a	n/a	n/a	15	2	4	9	n/a	n/a	n/a	n/a	n/a
2501347	PROB	n/a	LTP293	ltpFR	13	n/a	n/a	n/a	n/a	n/a	n/a	17	2	7	8	n/a	n/a	n/a	n/a	n/a
2503018	STOP	n/a	LTP293	ltpFR	13	n/a	n/a	n/a	n/a	n/a	n/a	n/a	n/a	n/a	n/a	n/a	n/a	n/a	n/a	n/a
2505009	WORD	wordpools/wasnorm_wordpool_less_exclusions.txt	LTP293	ltpFR	13	8	0	HOOP	716	n/a	1	n/a	0	0	0	0	0.5869140625	0.422607421875	lower	../fonts/zerothre.ttf
2508021	START	n/a	LTP293	ltpFR	13	n/a	n/a	n/a	n/a	n/a	n/a	n/a	n/a	n/a	n/a	n/a	n/a	n/a	n/a	n/a
2508935	PROB	n/a	LTP293	ltpFR	13	n/a	n/a	n/a	n/a	n/a	n/a	17	2	9	6	n/a	n/a	n/a	n/a	n/a
2511116	PROB	n/a	LTP293	ltpFR	13	n/a	n/a	n/a	n/a	n/a	n/a	19	6	8	5	n/a	n/a	n/a	n/a	n/a
2513330	PROB	n/a	LTP293	ltpFR	13	n/a	n/a	n/a	n/a	n/a	n/a	13	3	4	6	n/a	n/a	n/a	n/a	n/a
2514537	STOP	n/a	LTP293	ltpFR	13	n/a	n/a	n/a	n/a	n/a	n/a	n/a	n/a	n/a	n/a	n/a	n/a	n/a	n/a	n/a
2517057	WORD	wordpools/wasnorm_wordpool_less_exclusions.txt	LTP293	ltpFR	13	8	0	RUBY	1214	n/a	0	n/a	0	0	0	0	0.5869140625	0.422607421875	lower	../fonts/zerothre.ttf
2520070	START	n/a	LTP293	ltpFR	13	n/a	n/a	n/a	n/a	n/a	n/a	n/a	n/a	n/a	n/a	n/a	n/a	n/a	n/a	n/a
2521035	PROB	n/a	LTP293	ltpFR	13	n/a	n/a	n/a	n/a	n/a	n/a	14	5	8	1	n/a	n/a	n/a	n/a	n/a
2522416	PROB	n/a	LTP293	ltpFR	13	n/a	n/a	n/a	n/a	n/a	n/a	12	1	9	2	n/a	n/a	n/a	n/a	n/a
2524330	PROB	n/a	LTP293	ltpFR	13	n/a	n/a	n/a	n/a	n/a	n/a	13	5	7	1	n/a	n/a	n/a	n/a	n/a
2528070	STOP	n/a	LTP293	ltpFR	13	n/a	n/a	n/a	n/a	n/a	n/a	n/a	n/a	n/a	n/a	n/a	n/a	n/a	n/a	n/a
2528922	WORD	wordpools/wasnorm_wordpool_less_exclusions.txt	LTP293	ltpFR	13	8	0	SCULPTURE	1258	n/a	1	n/a	0	0	0	0	0.5869140625	0.422607421875	lower	../fonts/zerothre.ttf
2531935	START	n/a	LTP293	ltpFR	13	n/a	n/a	n/a	n/a	n/a	n/a	n/a	n/a	n/a	n/a	n/a	n/a	n/a	n/a	n/a
2532783	PROB	n/a	LTP293	ltpFR	13	n/a	n/a	n/a	n/a	n/a	n/a	19	8	5	6	n/a	n/a	n/a	n/a	n/a
2534747	PROB	n/a	LTP293	ltpFR	13	n/a	n/a	n/a	n/a	n/a	n/a	19	5	5	9	n/a	n/a	n/a	n/a	n/a
2536079	PROB	n/a	LTP293	ltpFR	13	n/a	n/a	n/a	n/a	n/a	n/a	13	1	9	3	n/a	n/a	n/a	n/a	n/a
2537559	PROB	n/a	LTP293	ltpFR	13	n/a	n/a	n/a	n/a	n/a	n/a	13	2	9	2	n/a	n/a	n/a	n/a	n/a
2539785	STOP	n/a	LTP293	ltpFR	13	n/a	n/a	n/a	n/a	n/a	n/a	n/a	n/a	n/a	n/a	n/a	n/a	n/a	n/a	n/a
2541138	WORD	wordpools/wasnorm_wordpool_less_exclusions.txt	LTP293	ltpFR	13	8	0	SUBURB	1399	n/a	1	n/a	0	0	0	0	0.5869140625	0.422607421875	lower	../fonts/zerothre.ttf
2544151	START	n/a	LTP293	ltpFR	13	n/a	n/a	n/a	n/a	n/a	n/a	n/a	n/a	n/a	n/a	n/a	n/a	n/a	n/a	n/a
2545049	PROB	n/a	LTP293	ltpFR	13	n/a	n/a	n/a	n/a	n/a	n/a	24	9	6	9	n/a	n/a	n/a	n/a	n/a
2547362	PROB	n/a	LTP293	ltpFR	13	n/a	n/a	n/a	n/a	n/a	n/a	11	4	4	3	n/a	n/a	n/a	n/a	n/a
2549176	PROB	n/a	LTP293	ltpFR	13	n/a	n/a	n/a	n/a	n/a	n/a	9	5	3	1	n/a	n/a	n/a	n/a	n/a
2550573	PROB	n/a	LTP293	ltpFR	13	n/a	n/a	n/a	n/a	n/a	n/a	15	9	2	4	n/a	n/a	n/a	n/a	n/a
2552090	STOP	n/a	LTP293	ltpFR	13	n/a	n/a	n/a	n/a	n/a	n/a	n/a	n/a	n/a	n/a	n/a	n/a	n/a	n/a	n/a
2553153	WORD	wordpools/wasnorm_wordpool_less_exclusions.txt	LTP293	ltpFR	13	8	0	LAWN	805	n/a	1	n/a	0	0	0	0	0.5869140625	0.422607421875	lower	../fonts/zerothre.ttf
2556166	START	n/a	LTP293	ltpFR	13	n/a	n/a	n/a	n/a	n/a	n/a	n/a	n/a	n/a	n/a	n/a	n/a	n/a	n/a	n/a
2557081	PROB	n/a	LTP293	ltpFR	13	n/a	n/a	n/a	n/a	n/a	n/a	14	1	4	9	n/a	n/a	n/a	n/a	n/a
2558678	PROB	n/a	LTP293	ltpFR	13	n/a	n/a	n/a	n/a	n/a	n/a	18	2	8	8	n/a	n/a	n/a	n/a	n/a
2559942	PROB	n/a	LTP293	ltpFR	13	n/a	n/a	n/a	n/a	n/a	n/a	19	9	6	4	n/a	n/a	n/a	n/a	n/a
2561458	PROB	n/a	LTP293	ltpFR	13	n/a	n/a	n/a	n/a	n/a	n/a	11	5	4	2	n/a	n/a	n/a	n/a	n/a
2562753	STOP	n/a	LTP293	ltpFR	13	n/a	n/a	n/a	n/a	n/a	n/a	n/a	n/a	n/a	n/a	n/a	n/a	n/a	n/a	n/a
2565036	WORD	wordpools/wasnorm_wordpool_less_exclusions.txt	LTP293	ltpFR	13	8	0	ENGINE	535	n/a	1	n/a	0	0	0	0	0.5869140625	0.422607421875	lower	../fonts/zerothre.ttf
2568048	START	n/a	LTP293	ltpFR	13	n/a	n/a	n/a	n/a	n/a	n/a	n/a	n/a	n/a	n/a	n/a	n/a	n/a	n/a	n/a
2569130	PROB	n/a	LTP293	ltpFR	13	n/a	n/a	n/a	n/a	n/a	n/a	8	1	1	6	n/a	n/a	n/a	n/a	n/a
2570428	PROB	n/a	LTP293	ltpFR	13	n/a	n/a	n/a	n/a	n/a	n/a	12	3	2	7	n/a	n/a	n/a	n/a	n/a
2572275	PROB	n/a	LTP293	ltpFR	13	n/a	n/a	n/a	n/a	n/a	n/a	13	3	6	4	n/a	n/a	n/a	n/a	n/a
2573390	PROB	n/a	LTP293	ltpFR	13	n/a	n/a	n/a	n/a	n/a	n/a	17	7	1	9	n/a	n/a	n/a	n/a	n/a
2575362	STOP	n/a	LTP293	ltpFR	13	n/a	n/a	n/a	n/a	n/a	n/a	n/a	n/a	n/a	n/a	n/a	n/a	n/a	n/a	n/a
2577034	WORD	wordpools/wasnorm_wordpool_less_exclusions.txt	LTP293	ltpFR	13	8	0	TOAD	1470	n/a	0	n/a	0	0	0	0	0.5869140625	0.422607421875	lower	../fonts/zerothre.ttf
2580047	START	n/a	LTP293	ltpFR	13	n/a	n/a	n/a	n/a	n/a	n/a	n/a	n/a	n/a	n/a	n/a	n/a	n/a	n/a	n/a
2580962	PROB	n/a	LTP293	ltpFR	13	n/a	n/a	n/a	n/a	n/a	n/a	6	4	1	1	n/a	n/a	n/a	n/a	n/a
2582475	PROB	n/a	LTP293	ltpFR	13	n/a	n/a	n/a	n/a	n/a	n/a	23	7	7	9	n/a	n/a	n/a	n/a	n/a
2583923	PROB	n/a	LTP293	ltpFR	13	n/a	n/a	n/a	n/a	n/a	n/a	14	4	7	3	n/a	n/a	n/a	n/a	n/a
2585305	PROB	n/a	LTP293	ltpFR	13	n/a	n/a	n/a	n/a	n/a	n/a	17	5	8	4	n/a	n/a	n/a	n/a	n/a
2586913	STOP	n/a	LTP293	ltpFR	13	n/a	n/a	n/a	n/a	n/a	n/a	n/a	n/a	n/a	n/a	n/a	n/a	n/a	n/a	n/a
2588932	WORD	wordpools/wasnorm_wordpool_less_exclusions.txt	LTP293	ltpFR	13	8	0	RIVER	1194	n/a	1	n/a	0	0	0	0	0.5869140625	0.422607421875	lower	../fonts/zerothre.ttf
2591945	START	n/a	LTP293	ltpFR	13	n/a	n/a	n/a	n/a	n/a	n/a	n/a	n/a	n/a	n/a	n/a	n/a	n/a	n/a	n/a
2593111	PROB	n/a	LTP293	ltpFR	13	n/a	n/a	n/a	n/a	n/a	n/a	15	5	8	2	n/a	n/a	n/a	n/a	n/a
2594242	PROB	n/a	LTP293	ltpFR	13	n/a	n/a	n/a	n/a	n/a	n/a	10	5	1	4	n/a	n/a	n/a	n/a	n/a
2595689	PROB	n/a	LTP293	ltpFR	13	n/a	n/a	n/a	n/a	n/a	n/a	19	9	1	9	n/a	n/a	n/a	n/a	n/a
2598286	PROB	n/a	LTP293	ltpFR	13	n/a	n/a	n/a	n/a	n/a	n/a	7	1	2	4	n/a	n/a	n/a	n/a	n/a
2599729	STOP	n/a	LTP293	ltpFR	13	n/a	n/a	n/a	n/a	n/a	n/a	n/a	n/a	n/a	n/a	n/a	n/a	n/a	n/a	n/a
2600948	WORD	wordpools/wasnorm_wordpool_less_exclusions.txt	LTP293	ltpFR	13	8	0	DAM	436	n/a	1	n/a	0	0	0	0	0.5869140625	0.422607421875	lower	../fonts/zerothre.ttf
2603960	START	n/a	LTP293	ltpFR	13	n/a	n/a	n/a	n/a	n/a	n/a	n/a	n/a	n/a	n/a	n/a	n/a	n/a	n/a	n/a
2605043	PROB	n/a	LTP293	ltpFR	13	n/a	n/a	n/a	n/a	n/a	n/a	17	4	6	7	n/a	n/a	n/a	n/a	n/a
2606391	PROB	n/a	LTP293	ltpFR	13	n/a	n/a	n/a	n/a	n/a	n/a	16	5	5	6	n/a	n/a	n/a	n/a	n/a
2607306	PROB	n/a	LTP293	ltpFR	13	n/a	n/a	n/a	n/a	n/a	n/a	21	8	9	4	n/a	n/a	n/a	n/a	n/a
2609236	PROB	n/a	LTP293	ltpFR	13	n/a	n/a	n/a	n/a	n/a	n/a	14	9	1	4	n/a	n/a	n/a	n/a	n/a
2610451	PROB	n/a	LTP293	ltpFR	13	n/a	n/a	n/a	n/a	n/a	n/a	21	7	7	7	n/a	n/a	n/a	n/a	n/a
2611450	STOP	n/a	LTP293	ltpFR	13	n/a	n/a	n/a	n/a	n/a	n/a	n/a	n/a	n/a	n/a	n/a	n/a	n/a	n/a	n/a
2612997	WORD	wordpools/wasnorm_wordpool_less_exclusions.txt	LTP293	ltpFR	13	8	0	COOKBOOK	373	n/a	1	n/a	0	0	0	0	0.5869140625	0.422607421875	lower	../fonts/zerothre.ttf
2616010	START	n/a	LTP293	ltpFR	13	n/a	n/a	n/a	n/a	n/a	n/a	n/a	n/a	n/a	n/a	n/a	n/a	n/a	n/a	n/a
2616891	PROB	n/a	LTP293	ltpFR	13	n/a	n/a	n/a	n/a	n/a	n/a	14	9	4	1	n/a	n/a	n/a	n/a	n/a
2618073	PROB	n/a	LTP293	ltpFR	13	n/a	n/a	n/a	n/a	n/a	n/a	10	4	4	2	n/a	n/a	n/a	n/a	n/a
2619371	PROB	n/a	LTP293	ltpFR	13	n/a	n/a	n/a	n/a	n/a	n/a	7	3	1	3	n/a	n/a	n/a	n/a	n/a
2621152	PROB	n/a	LTP293	ltpFR	13	n/a	n/a	n/a	n/a	n/a	n/a	22	8	8	6	n/a	n/a	n/a	n/a	n/a
2622761	STOP	n/a	LTP293	ltpFR	13	n/a	n/a	n/a	n/a	n/a	n/a	n/a	n/a	n/a	n/a	n/a	n/a	n/a	n/a	n/a
2625029	WORD	wordpools/wasnorm_wordpool_less_exclusions.txt	LTP293	ltpFR	13	8	0	SAUSAGE	1238	n/a	1	n/a	0	0	0	0	0.5869140625	0.422607421875	lower	../fonts/zerothre.ttf
2628042	START	n/a	LTP293	ltpFR	13	n/a	n/a	n/a	n/a	n/a	n/a	n/a	n/a	n/a	n/a	n/a	n/a	n/a	n/a	n/a
2629223	PROB	n/a	LTP293	ltpFR	13	n/a	n/a	n/a	n/a	n/a	n/a	22	7	6	9	n/a	n/a	n/a	n/a	n/a
2630953	PROB	n/a	LTP293	ltpFR	13	n/a	n/a	n/a	n/a	n/a	n/a	17	8	7	2	n/a	n/a	n/a	n/a	n/a
2632352	PROB	n/a	LTP293	ltpFR	13	n/a	n/a	n/a	n/a	n/a	n/a	14	5	2	7	n/a	n/a	n/a	n/a	n/a
2634166	PROB	n/a	LTP293	ltpFR	13	n/a	n/a	n/a	n/a	n/a	n/a	18	4	6	6	n/a	n/a	n/a	n/a	n/a
2635970	STOP	n/a	LTP293	ltpFR	13	n/a	n/a	n/a	n/a	n/a	n/a	n/a	n/a	n/a	n/a	n/a	n/a	n/a	n/a	n/a
2637061	WORD	wordpools/wasnorm_wordpool_less_exclusions.txt	LTP293	ltpFR	13	8	0	BOXER	160	n/a	1	n/a	0	0	0	0	0.5869140625	0.422607421875	lower	../fonts/zerothre.ttf
2640074	START	n/a	LTP293	ltpFR	13	n/a	n/a	n/a	n/a	n/a	n/a	n/a	n/a	n/a	n/a	n/a	n/a	n/a	n/a	n/a
2641122	PROB	n/a	LTP293	ltpFR	13	n/a	n/a	n/a	n/a	n/a	n/a	15	5	1	9	n/a	n/a	n/a	n/a	n/a
2642669	PROB	n/a	LTP293	ltpFR	13	n/a	n/a	n/a	n/a	n/a	n/a	22	3	9	9	n/a	n/a	n/a	n/a	n/a
2644051	PROB	n/a	LTP293	ltpFR	13	n/a	n/a	n/a	n/a	n/a	n/a	19	7	5	7	n/a	n/a	n/a	n/a	n/a
2645598	PROB	n/a	LTP293	ltpFR	13	n/a	n/a	n/a	n/a	n/a	n/a	11	1	5	5	n/a	n/a	n/a	n/a	n/a
2646649	STOP	n/a	LTP293	ltpFR	13	n/a	n/a	n/a	n/a	n/a	n/a	n/a	n/a	n/a	n/a	n/a	n/a	n/a	n/a	n/a
2648909	WORD	wordpools/wasnorm_wordpool_less_exclusions.txt	LTP293	ltpFR	13	8	0	HOME	712	n/a	1	n/a	0	0	0	0	0.5869140625	0.422607421875	lower	../fonts/zerothre.ttf
2651922	START	n/a	LTP293	ltpFR	13	n/a	n/a	n/a	n/a	n/a	n/a	n/a	n/a	n/a	n/a	n/a	n/a	n/a	n/a	n/a
2652904	PROB	n/a	LTP293	ltpFR	13	n/a	n/a	n/a	n/a	n/a	n/a	14	3	3	8	n/a	n/a	n/a	n/a	n/a
2654751	PROB	n/a	LTP293	ltpFR	13	n/a	n/a	n/a	n/a	n/a	n/a	14	2	7	5	n/a	n/a	n/a	n/a	n/a
2656150	PROB	n/a	LTP293	ltpFR	13	n/a	n/a	n/a	n/a	n/a	n/a	12	1	8	3	n/a	n/a	n/a	n/a	n/a
2657414	PROB	n/a	LTP293	ltpFR	13	n/a	n/a	n/a	n/a	n/a	n/a	20	9	7	4	n/a	n/a	n/a	n/a	n/a
2659298	STOP	n/a	LTP293	ltpFR	13	n/a	n/a	n/a	n/a	n/a	n/a	n/a	n/a	n/a	n/a	n/a	n/a	n/a	n/a	n/a
2660758	WORD	wordpools/wasnorm_wordpool_less_exclusions.txt	LTP293	ltpFR	13	8	0	DIAGRAM	456	n/a	0	n/a	0	0	0	0	0.5869140625	0.422607421875	lower	../fonts/zerothre.ttf
2663771	START	n/a	LTP293	ltpFR	13	n/a	n/a	n/a	n/a	n/a	n/a	n/a	n/a	n/a	n/a	n/a	n/a	n/a	n/a	n/a
2664886	PROB	n/a	LTP293	ltpFR	13	n/a	n/a	n/a	n/a	n/a	n/a	15	3	9	3	n/a	n/a	n/a	n/a	n/a
2666916	PROB	n/a	LTP293	ltpFR	13	n/a	n/a	n/a	n/a	n/a	n/a	17	2	6	9	n/a	n/a	n/a	n/a	n/a
2668730	PROB	n/a	LTP293	ltpFR	13	n/a	n/a	n/a	n/a	n/a	n/a	17	4	8	5	n/a	n/a	n/a	n/a	n/a
2670561	STOP	n/a	LTP293	ltpFR	13	n/a	n/a	n/a	n/a	n/a	n/a	n/a	n/a	n/a	n/a	n/a	n/a	n/a	n/a	n/a
2672824	WORD	wordpools/wasnorm_wordpool_less_exclusions.txt	LTP293	ltpFR	13	8	0	CHAUFFEUR	283	n/a	1	n/a	0	0	0	0	0.5869140625	0.422607421875	lower	../fonts/zerothre.ttf
2675836	START	n/a	LTP293	ltpFR	13	n/a	n/a	n/a	n/a	n/a	n/a	n/a	n/a	n/a	n/a	n/a	n/a	n/a	n/a	n/a
2676701	PROB	n/a	LTP293	ltpFR	13	n/a	n/a	n/a	n/a	n/a	n/a	9	5	1	3	n/a	n/a	n/a	n/a	n/a
2678067	PROB	n/a	LTP293	ltpFR	13	n/a	n/a	n/a	n/a	n/a	n/a	7	1	5	1	n/a	n/a	n/a	n/a	n/a
2679199	PROB	n/a	LTP293	ltpFR	13	n/a	n/a	n/a	n/a	n/a	n/a	18	5	4	9	n/a	n/a	n/a	n/a	n/a
2680496	PROB	n/a	LTP293	ltpFR	13	n/a	n/a	n/a	n/a	n/a	n/a	11	1	6	4	n/a	n/a	n/a	n/a	n/a
2682294	PROB	n/a	LTP293	ltpFR	13	n/a	n/a	n/a	n/a	n/a	n/a	17	1	9	7	n/a	n/a	n/a	n/a	n/a
2683713	STOP	n/a	LTP293	ltpFR	13	n/a	n/a	n/a	n/a	n/a	n/a	n/a	n/a	n/a	n/a	n/a	n/a	n/a	n/a	n/a
2685605	REC_START	n/a	LTP293	ltpFR	13	8	n/a	n/a	n/a	n/a	n/a	n/a	0	0	0	n/a	n/a	n/a	n/a	n/a
2686479	REC_WORD	wordpools/wasnorm_wordpool_less_exclusions.txt	LTP293	ltpFR	13	8	0	CHAUFFEUR	283	n/a	1	n/a	0	0	0	n/a	n/a	n/a	n/a	n/a
2688212	REC_WORD	wordpools/wasnorm_wordpool_less_exclusions.txt	LTP293	ltpFR	13	8	0	SUBURB	1399	n/a	1	n/a	0	0	0	n/a	n/a	n/a	n/a	n/a
2691584	REC_WORD	wordpools/wasnorm_wordpool_less_exclusions.txt	LTP293	ltpFR	13	8	0	COOKBOOK	373	n/a	1	n/a	0	0	0	n/a	n/a	n/a	n/a	n/a
2693983	REC_WORD	wordpools/wasnorm_wordpool_less_exclusions.txt	LTP293	ltpFR	13	8	0	LAWN	805	n/a	1	n/a	0	0	0	n/a	n/a	n/a	n/a	n/a
2697954	REC_WORD	wordpools/wasnorm_wordpool_less_exclusions.txt	LTP293	ltpFR	13	8	0	HOME	712	n/a	1	n/a	0	0	0	n/a	n/a	n/a	n/a	n/a
2719970	REC_WORD	wordpools/wasnorm_wordpool_less_exclusions.txt	LTP293	ltpFR	13	8	0	DAM	436	n/a	1	n/a	0	0	0	n/a	n/a	n/a	n/a	n/a
2771627	START	n/a	LTP293	ltpFR	13	n/a	n/a	n/a	n/a	n/a	n/a	n/a	n/a	n/a	n/a	n/a	n/a	n/a	n/a	n/a
2773142	PROB	n/a	LTP293	ltpFR	13	n/a	n/a	n/a	n/a	n/a	n/a	14	5	8	1	n/a	n/a	n/a	n/a	n/a
2774855	PROB	n/a	LTP293	ltpFR	13	n/a	n/a	n/a	n/a	n/a	n/a	9	1	5	3	n/a	n/a	n/a	n/a	n/a
2776502	PROB	n/a	LTP293	ltpFR	13	n/a	n/a	n/a	n/a	n/a	n/a	17	5	7	7	n/a	n/a	n/a	n/a	n/a
2778001	PROB	n/a	LTP293	ltpFR	13	n/a	n/a	n/a	n/a	n/a	n/a	13	2	6	5	n/a	n/a	n/a	n/a	n/a
2779366	PROB	n/a	LTP293	ltpFR	13	n/a	n/a	n/a	n/a	n/a	n/a	12	1	6	5	n/a	n/a	n/a	n/a	n/a
2780579	PROB	n/a	LTP293	ltpFR	13	n/a	n/a	n/a	n/a	n/a	n/a	14	3	6	5	n/a	n/a	n/a	n/a	n/a
2782178	PROB	n/a	LTP293	ltpFR	13	n/a	n/a	n/a	n/a	n/a	n/a	15	9	5	1	n/a	n/a	n/a	n/a	n/a
2784142	PROB	n/a	LTP293	ltpFR	13	n/a	n/a	n/a	n/a	n/a	n/a	19	7	4	8	n/a	n/a	n/a	n/a	n/a
2787617	STOP	n/a	LTP293	ltpFR	13	n/a	n/a	n/a	n/a	n/a	n/a	n/a	n/a	n/a	n/a	n/a	n/a	n/a	n/a	n/a
2788651	WORD	wordpools/wasnorm_wordpool_less_exclusions.txt	LTP293	ltpFR	13	9	0	PICNIC	1060	n/a	1	n/a	0	0	0	0	0.5869140625	0.422607421875	lower	../fonts/zerothre.ttf
2791663	START	n/a	LTP293	ltpFR	13	n/a	n/a	n/a	n/a	n/a	n/a	n/a	n/a	n/a	n/a	n/a	n/a	n/a	n/a	n/a
2792545	PROB	n/a	LTP293	ltpFR	13	n/a	n/a	n/a	n/a	n/a	n/a	6	3	2	1	n/a	n/a	n/a	n/a	n/a
2793510	PROB	n/a	LTP293	ltpFR	13	n/a	n/a	n/a	n/a	n/a	n/a	16	9	4	3	n/a	n/a	n/a	n/a	n/a
2794692	PROB	n/a	LTP293	ltpFR	13	n/a	n/a	n/a	n/a	n/a	n/a	18	9	3	6	n/a	n/a	n/a	n/a	n/a
2795890	PROB	n/a	LTP293	ltpFR	13	n/a	n/a	n/a	n/a	n/a	n/a	17	4	4	9	n/a	n/a	n/a	n/a	n/a
2797139	PROB	n/a	LTP293	ltpFR	13	n/a	n/a	n/a	n/a	n/a	n/a	17	8	3	6	n/a	n/a	n/a	n/a	n/a
2798469	PROB	n/a	LTP293	ltpFR	13	n/a	n/a	n/a	n/a	n/a	n/a	13	5	6	2	n/a	n/a	n/a	n/a	n/a
2800384	PROB	n/a	LTP293	ltpFR	13	n/a	n/a	n/a	n/a	n/a	n/a	16	5	4	7	n/a	n/a	n/a	n/a	n/a
2801781	PROB	n/a	LTP293	ltpFR	13	n/a	n/a	n/a	n/a	n/a	n/a	17	2	6	9	n/a	n/a	n/a	n/a	n/a
2803147	PROB	n/a	LTP293	ltpFR	13	n/a	n/a	n/a	n/a	n/a	n/a	9	1	3	5	n/a	n/a	n/a	n/a	n/a
2804877	PROB	n/a	LTP293	ltpFR	13	n/a	n/a	n/a	n/a	n/a	n/a	18	6	6	6	n/a	n/a	n/a	n/a	n/a
2807663	STOP	n/a	LTP293	ltpFR	13	n/a	n/a	n/a	n/a	n/a	n/a	n/a	n/a	n/a	n/a	n/a	n/a	n/a	n/a	n/a
2808687	WORD	wordpools/wasnorm_wordpool_less_exclusions.txt	LTP293	ltpFR	13	9	0	WAITER	1580	n/a	1	n/a	0	0	0	0	0.5869140625	0.422607421875	lower	../fonts/zerothre.ttf
2811700	START	n/a	LTP293	ltpFR	13	n/a	n/a	n/a	n/a	n/a	n/a	n/a	n/a	n/a	n/a	n/a	n/a	n/a	n/a	n/a
2812831	PROB	n/a	LTP293	ltpFR	13	n/a	n/a	n/a	n/a	n/a	n/a	11	3	2	6	n/a	n/a	n/a	n/a	n/a
2814413	PROB	n/a	LTP293	ltpFR	13	n/a	n/a	n/a	n/a	n/a	n/a	20	6	7	7	n/a	n/a	n/a	n/a	n/a
2816277	PROB	n/a	LTP293	ltpFR	13	n/a	n/a	n/a	n/a	n/a	n/a	12	1	8	3	n/a	n/a	n/a	n/a	n/a
2817459	PROB	n/a	LTP293	ltpFR	13	n/a	n/a	n/a	n/a	n/a	n/a	15	8	6	1	n/a	n/a	n/a	n/a	n/a
2818973	PROB	n/a	LTP293	ltpFR	13	n/a	n/a	n/a	n/a	n/a	n/a	14	1	9	4	n/a	n/a	n/a	n/a	n/a
2820205	PROB	n/a	LTP293	ltpFR	13	n/a	n/a	n/a	n/a	n/a	n/a	18	9	1	8	n/a	n/a	n/a	n/a	n/a
2821485	PROB	n/a	LTP293	ltpFR	13	n/a	n/a	n/a	n/a	n/a	n/a	12	1	2	9	n/a	n/a	n/a	n/a	n/a
2822783	PROB	n/a	LTP293	ltpFR	13	n/a	n/a	n/a	n/a	n/a	n/a	19	6	9	4	n/a	n/a	n/a	n/a	n/a
2824282	PROB	n/a	LTP293	ltpFR	13	n/a	n/a	n/a	n/a	n/a	n/a	15	2	9	4	n/a	n/a	n/a	n/a	n/a
2825879	PROB	n/a	LTP293	ltpFR	13	n/a	n/a	n/a	n/a	n/a	n/a	22	9	8	5	n/a	n/a	n/a	n/a	n/a
2827681	STOP	n/a	LTP293	ltpFR	13	n/a	n/a	n/a	n/a	n/a	n/a	n/a	n/a	n/a	n/a	n/a	n/a	n/a	n/a	n/a
2828708	WORD	wordpools/wasnorm_wordpool_less_exclusions.txt	LTP293	ltpFR	13	9	0	ENEMY	534	n/a	1	n/a	0	0	0	0	0.5869140625	0.422607421875	lower	../fonts/zerothre.ttf
2831720	START	n/a	LTP293	ltpFR	13	n/a	n/a	n/a	n/a	n/a	n/a	n/a	n/a	n/a	n/a	n/a	n/a	n/a	n/a	n/a
2832785	PROB	n/a	LTP293	ltpFR	13	n/a	n/a	n/a	n/a	n/a	n/a	12	5	6	1	n/a	n/a	n/a	n/a	n/a
2834051	PROB	n/a	LTP293	ltpFR	13	n/a	n/a	n/a	n/a	n/a	n/a	9	1	5	2	n/a	n/a	n/a	n/a	n/a
2835730	PROB	n/a	LTP293	ltpFR	13	n/a	n/a	n/a	n/a	n/a	n/a	15	4	7	4	n/a	n/a	n/a	n/a	n/a
2837113	PROB	n/a	LTP293	ltpFR	13	n/a	n/a	n/a	n/a	n/a	n/a	19	1	9	9	n/a	n/a	n/a	n/a	n/a
2839060	PROB	n/a	LTP293	ltpFR	13	n/a	n/a	n/a	n/a	n/a	n/a	18	3	9	6	n/a	n/a	n/a	n/a	n/a
2840773	PROB	n/a	LTP293	ltpFR	13	n/a	n/a	n/a	n/a	n/a	n/a	11	4	1	6	n/a	n/a	n/a	n/a	n/a
2842105	PROB	n/a	LTP293	ltpFR	13	n/a	n/a	n/a	n/a	n/a	n/a	8	4	3	1	n/a	n/a	n/a	n/a	n/a
2844467	PROB	n/a	LTP293	ltpFR	13	n/a	n/a	n/a	n/a	n/a	n/a	12	3	2	7	n/a	n/a	n/a	n/a	n/a
2845715	PROB	n/a	LTP293	ltpFR	13	n/a	n/a	n/a	n/a	n/a	n/a	13	4	4	5	n/a	n/a	n/a	n/a	n/a
2847314	STOP	n/a	LTP293	ltpFR	13	n/a	n/a	n/a	n/a	n/a	n/a	n/a	n/a	n/a	n/a	n/a	n/a	n/a	n/a	n/a
2848728	WORD	wordpools/wasnorm_wordpool_less_exclusions.txt	LTP293	ltpFR	13	9	0	CAFETERIA	217	n/a	1	n/a	0	0	0	0	0.5869140625	0.422607421875	lower	../fonts/zerothre.ttf
2851740	START	n/a	LTP293	ltpFR	13	n/a	n/a	n/a	n/a	n/a	n/a	n/a	n/a	n/a	n/a	n/a	n/a	n/a	n/a	n/a
2852888	PROB	n/a	LTP293	ltpFR	13	n/a	n/a	n/a	n/a	n/a	n/a	14	4	6	4	n/a	n/a	n/a	n/a	n/a
2854287	PROB	n/a	LTP293	ltpFR	13	n/a	n/a	n/a	n/a	n/a	n/a	7	4	2	1	n/a	n/a	n/a	n/a	n/a
2856034	PROB	n/a	LTP293	ltpFR	13	n/a	n/a	n/a	n/a	n/a	n/a	9	7	2	1	n/a	n/a	n/a	n/a	n/a
2857781	PROB	n/a	LTP293	ltpFR	13	n/a	n/a	n/a	n/a	n/a	n/a	18	7	4	7	n/a	n/a	n/a	n/a	n/a
2859878	PROB	n/a	LTP293	ltpFR	13	n/a	n/a	n/a	n/a	n/a	n/a	10	8	1	1	n/a	n/a	n/a	n/a	n/a
2861127	PROB	n/a	LTP293	ltpFR	13	n/a	n/a	n/a	n/a	n/a	n/a	13	5	2	6	n/a	n/a	n/a	n/a	n/a
2862524	PROB	n/a	LTP293	ltpFR	13	n/a	n/a	n/a	n/a	n/a	n/a	15	3	5	7	n/a	n/a	n/a	n/a	n/a
2867740	STOP	n/a	LTP293	ltpFR	13	n/a	n/a	n/a	n/a	n/a	n/a	n/a	n/a	n/a	n/a	n/a	n/a	n/a	n/a	n/a
2868598	WORD	wordpools/wasnorm_wordpool_less_exclusions.txt	LTP293	ltpFR	13	9	0	DOUGH	489	n/a	1	n/a	0	0	0	0	0.5869140625	0.422607421875	lower	../fonts/zerothre.ttf
2871611	START	n/a	LTP293	ltpFR	13	n/a	n/a	n/a	n/a	n/a	n/a	n/a	n/a	n/a	n/a	n/a	n/a	n/a	n/a	n/a
2872742	PROB	n/a	LTP293	ltpFR	13	n/a	n/a	n/a	n/a	n/a	n/a	15	5	2	8	n/a	n/a	n/a	n/a	n/a
2873991	PROB	n/a	LTP293	ltpFR	13	n/a	n/a	n/a	n/a	n/a	n/a	17	7	4	6	n/a	n/a	n/a	n/a	n/a
2876404	PROB	n/a	LTP293	ltpFR	13	n/a	n/a	n/a	n/a	n/a	n/a	14	3	9	2	n/a	n/a	n/a	n/a	n/a
2877884	PROB	n/a	LTP293	ltpFR	13	n/a	n/a	n/a	n/a	n/a	n/a	23	9	9	5	n/a	n/a	n/a	n/a	n/a
2879366	PROB	n/a	LTP293	ltpFR	13	n/a	n/a	n/a	n/a	n/a	n/a	24	8	9	7	n/a	n/a	n/a	n/a	n/a
2881928	PROB	n/a	LTP293	ltpFR	13	n/a	n/a	n/a	n/a	n/a	n/a	18	3	7	8	n/a	n/a	n/a	n/a	n/a
2883227	PROB	n/a	LTP293	ltpFR	13	n/a	n/a	n/a	n/a	n/a	n/a	11	2	4	5	n/a	n/a	n/a	n/a	n/a
2884425	PROB	n/a	LTP293	ltpFR	13	n/a	n/a	n/a	n/a	n/a	n/a	19	9	8	2	n/a	n/a	n/a	n/a	n/a
2886426	STOP	n/a	LTP293	ltpFR	13	n/a	n/a	n/a	n/a	n/a	n/a	n/a	n/a	n/a	n/a	n/a	n/a	n/a	n/a	n/a
2888668	WORD	wordpools/wasnorm_wordpool_less_exclusions.txt	LTP293	ltpFR	13	9	0	COUSIN	392	n/a	1	n/a	0	0	0	0	0.5869140625	0.422607421875	lower	../fonts/zerothre.ttf
2891681	START	n/a	LTP293	ltpFR	13	n/a	n/a	n/a	n/a	n/a	n/a	n/a	n/a	n/a	n/a	n/a	n/a	n/a	n/a	n/a
2892762	PROB	n/a	LTP293	ltpFR	13	n/a	n/a	n/a	n/a	n/a	n/a	19	5	7	7	n/a	n/a	n/a	n/a	n/a
2895392	PROB	n/a	LTP293	ltpFR	13	n/a	n/a	n/a	n/a	n/a	n/a	17	8	7	2	n/a	n/a	n/a	n/a	n/a
2897040	PROB	n/a	LTP293	ltpFR	13	n/a	n/a	n/a	n/a	n/a	n/a	24	8	8	8	n/a	n/a	n/a	n/a	n/a
2898404	PROB	n/a	LTP293	ltpFR	13	n/a	n/a	n/a	n/a	n/a	n/a	14	1	7	6	n/a	n/a	n/a	n/a	n/a
2899885	PROB	n/a	LTP293	ltpFR	13	n/a	n/a	n/a	n/a	n/a	n/a	19	4	8	7	n/a	n/a	n/a	n/a	n/a
2901615	PROB	n/a	LTP293	ltpFR	13	n/a	n/a	n/a	n/a	n/a	n/a	16	9	5	2	n/a	n/a	n/a	n/a	n/a
2904063	PROB	n/a	LTP293	ltpFR	13	n/a	n/a	n/a	n/a	n/a	n/a	21	9	8	5	n/a	n/a	n/a	n/a	n/a
2905909	PROB	n/a	LTP293	ltpFR	13	n/a	n/a	n/a	n/a	n/a	n/a	13	3	9	1	n/a	n/a	n/a	n/a	n/a
2907010	STOP	n/a	LTP293	ltpFR	13	n/a	n/a	n/a	n/a	n/a	n/a	n/a	n/a	n/a	n/a	n/a	n/a	n/a	n/a	n/a
2908705	WORD	wordpools/wasnorm_wordpool_less_exclusions.txt	LTP293	ltpFR	13	9	1	FAN	551	n/a	1	n/a	0	0	0	1	0.412841796875	0.57763671875	upper	../fonts/amplitud.ttf
2911718	START	n/a	LTP293	ltpFR	13	n/a	n/a	n/a	n/a	n/a	n/a	n/a	n/a	n/a	n/a	n/a	n/a	n/a	n/a	n/a
2912582	PROB	n/a	LTP293	ltpFR	13	n/a	n/a	n/a	n/a	n/a	n/a	9	4	3	2	n/a	n/a	n/a	n/a	n/a
2914963	PROB	n/a	LTP293	ltpFR	13	n/a	n/a	n/a	n/a	n/a	n/a	14	3	5	6	n/a	n/a	n/a	n/a	n/a
2916660	PROB	n/a	LTP293	ltpFR	13	n/a	n/a	n/a	n/a	n/a	n/a	19	8	6	5	n/a	n/a	n/a	n/a	n/a
2918441	PROB	n/a	LTP293	ltpFR	13	n/a	n/a	n/a	n/a	n/a	n/a	18	7	7	4	n/a	n/a	n/a	n/a	n/a
2919888	PROB	n/a	LTP293	ltpFR	13	n/a	n/a	n/a	n/a	n/a	n/a	18	6	3	9	n/a	n/a	n/a	n/a	n/a
2921054	PROB	n/a	LTP293	ltpFR	13	n/a	n/a	n/a	n/a	n/a	n/a	17	8	8	1	n/a	n/a	n/a	n/a	n/a
2922567	PROB	n/a	LTP293	ltpFR	13	n/a	n/a	n/a	n/a	n/a	n/a	21	8	8	5	n/a	n/a	n/a	n/a	n/a
2924965	PROB	n/a	LTP293	ltpFR	13	n/a	n/a	n/a	n/a	n/a	n/a	15	1	6	8	n/a	n/a	n/a	n/a	n/a
2926196	PROB	n/a	LTP293	ltpFR	13	n/a	n/a	n/a	n/a	n/a	n/a	17	8	8	1	n/a	n/a	n/a	n/a	n/a
2927489	STOP	n/a	LTP293	ltpFR	13	n/a	n/a	n/a	n/a	n/a	n/a	n/a	n/a	n/a	n/a	n/a	n/a	n/a	n/a	n/a
2928841	WORD	wordpools/wasnorm_wordpool_less_exclusions.txt	LTP293	ltpFR	13	9	1	WORM	1623	n/a	1	n/a	0	0	0	1	0.412841796875	0.57763671875	upper	../fonts/amplitud.ttf
2931854	START	n/a	LTP293	ltpFR	13	n/a	n/a	n/a	n/a	n/a	n/a	n/a	n/a	n/a	n/a	n/a	n/a	n/a	n/a	n/a
2932819	PROB	n/a	LTP293	ltpFR	13	n/a	n/a	n/a	n/a	n/a	n/a	19	9	5	5	n/a	n/a	n/a	n/a	n/a
2934168	PROB	n/a	LTP293	ltpFR	13	n/a	n/a	n/a	n/a	n/a	n/a	19	5	9	5	n/a	n/a	n/a	n/a	n/a
2935781	PROB	n/a	LTP293	ltpFR	13	n/a	n/a	n/a	n/a	n/a	n/a	14	3	6	5	n/a	n/a	n/a	n/a	n/a
2937695	PROB	n/a	LTP293	ltpFR	13	n/a	n/a	n/a	n/a	n/a	n/a	12	2	4	6	n/a	n/a	n/a	n/a	n/a
2939427	PROB	n/a	LTP293	ltpFR	13	n/a	n/a	n/a	n/a	n/a	n/a	19	9	8	3	n/a	n/a	n/a	n/a	n/a
2942089	PROB	n/a	LTP293	ltpFR	13	n/a	n/a	n/a	n/a	n/a	n/a	18	5	8	5	n/a	n/a	n/a	n/a	n/a
2943337	PROB	n/a	LTP293	ltpFR	13	n/a	n/a	n/a	n/a	n/a	n/a	15	4	7	7	n/a	n/a	n/a	n/a	n/a
2944634	PROB	n/a	LTP293	ltpFR	13	n/a	n/a	n/a	n/a	n/a	n/a	16	8	2	6	n/a	n/a	n/a	n/a	n/a
2946937	STOP	n/a	LTP293	ltpFR	13	n/a	n/a	n/a	n/a	n/a	n/a	n/a	n/a	n/a	n/a	n/a	n/a	n/a	n/a	n/a
2949046	WORD	wordpools/wasnorm_wordpool_less_exclusions.txt	LTP293	ltpFR	13	9	1	CAFE	216	n/a	1	n/a	0	0	0	1	0.412841796875	0.57763671875	upper	../fonts/amplitud.ttf
2952058	START	n/a	LTP293	ltpFR	13	n/a	n/a	n/a	n/a	n/a	n/a	n/a	n/a	n/a	n/a	n/a	n/a	n/a	n/a	n/a
2952973	PROB	n/a	LTP293	ltpFR	13	n/a	n/a	n/a	n/a	n/a	n/a	21	9	9	3	n/a	n/a	n/a	n/a	n/a
2954970	PROB	n/a	LTP293	ltpFR	13	n/a	n/a	n/a	n/a	n/a	n/a	10	6	3	1	n/a	n/a	n/a	n/a	n/a
2956683	PROB	n/a	LTP293	ltpFR	13	n/a	n/a	n/a	n/a	n/a	n/a	22	8	7	7	n/a	n/a	n/a	n/a	n/a
2962059	PROB	n/a	LTP293	ltpFR	13	n/a	n/a	n/a	n/a	n/a	n/a	21	8	5	8	n/a	n/a	n/a	n/a	n/a
2963889	PROB	n/a	LTP293	ltpFR	13	n/a	n/a	n/a	n/a	n/a	n/a	12	6	1	5	n/a	n/a	n/a	n/a	n/a
2965470	PROB	n/a	LTP293	ltpFR	13	n/a	n/a	n/a	n/a	n/a	n/a	14	5	6	3	n/a	n/a	n/a	n/a	n/a
2967210	STOP	n/a	LTP293	ltpFR	13	n/a	n/a	n/a	n/a	n/a	n/a	n/a	n/a	n/a	n/a	n/a	n/a	n/a	n/a	n/a
2969165	WORD	wordpools/wasnorm_wordpool_less_exclusions.txt	LTP293	ltpFR	13	9	1	BLANKET	135	n/a	0	n/a	0	0	0	1	0.412841796875	0.57763671875	upper	../fonts/amplitud.ttf
2972178	START	n/a	LTP293	ltpFR	13	n/a	n/a	n/a	n/a	n/a	n/a	n/a	n/a	n/a	n/a	n/a	n/a	n/a	n/a	n/a
2973026	PROB	n/a	LTP293	ltpFR	13	n/a	n/a	n/a	n/a	n/a	n/a	9	5	1	3	n/a	n/a	n/a	n/a	n/a
2974341	PROB	n/a	LTP293	ltpFR	13	n/a	n/a	n/a	n/a	n/a	n/a	19	8	3	8	n/a	n/a	n/a	n/a	n/a
2976587	PROB	n/a	LTP293	ltpFR	13	n/a	n/a	n/a	n/a	n/a	n/a	23	9	7	7	n/a	n/a	n/a	n/a	n/a
2977986	PROB	n/a	LTP293	ltpFR	13	n/a	n/a	n/a	n/a	n/a	n/a	16	6	3	7	n/a	n/a	n/a	n/a	n/a
2979184	PROB	n/a	LTP293	ltpFR	13	n/a	n/a	n/a	n/a	n/a	n/a	16	6	6	4	n/a	n/a	n/a	n/a	n/a
2980597	PROB	n/a	LTP293	ltpFR	13	n/a	n/a	n/a	n/a	n/a	n/a	5	2	1	2	n/a	n/a	n/a	n/a	n/a
2982179	PROB	n/a	LTP293	ltpFR	13	n/a	n/a	n/a	n/a	n/a	n/a	22	9	5	8	n/a	n/a	n/a	n/a	n/a
2983809	PROB	n/a	LTP293	ltpFR	13	n/a	n/a	n/a	n/a	n/a	n/a	19	7	6	6	n/a	n/a	n/a	n/a	n/a
2986090	PROB	n/a	LTP293	ltpFR	13	n/a	n/a	n/a	n/a	n/a	n/a	16	7	7	2	n/a	n/a	n/a	n/a	n/a
2988154	STOP	n/a	LTP293	ltpFR	13	n/a	n/a	n/a	n/a	n/a	n/a	n/a	n/a	n/a	n/a	n/a	n/a	n/a	n/a	n/a
2989169	WORD	wordpools/wasnorm_wordpool_less_exclusions.txt	LTP293	ltpFR	13	9	1	BUGLE	189	n/a	0	n/a	0	0	0	1	0.412841796875	0.57763671875	upper	../fonts/amplitud.ttf
2992182	START	n/a	LTP293	ltpFR	13	n/a	n/a	n/a	n/a	n/a	n/a	n/a	n/a	n/a	n/a	n/a	n/a	n/a	n/a	n/a
2993030	PROB	n/a	LTP293	ltpFR	13	n/a	n/a	n/a	n/a	n/a	n/a	18	4	8	6	n/a	n/a	n/a	n/a	n/a
2995276	PROB	n/a	LTP293	ltpFR	13	n/a	n/a	n/a	n/a	n/a	n/a	16	7	6	3	n/a	n/a	n/a	n/a	n/a
2996757	PROB	n/a	LTP293	ltpFR	13	n/a	n/a	n/a	n/a	n/a	n/a	19	7	3	9	n/a	n/a	n/a	n/a	n/a
2998122	PROB	n/a	LTP293	ltpFR	13	n/a	n/a	n/a	n/a	n/a	n/a	22	7	8	7	n/a	n/a	n/a	n/a	n/a
3000103	PROB	n/a	LTP293	ltpFR	13	n/a	n/a	n/a	n/a	n/a	n/a	14	4	8	2	n/a	n/a	n/a	n/a	n/a
3001599	PROB	n/a	LTP293	ltpFR	13	n/a	n/a	n/a	n/a	n/a	n/a	16	3	7	6	n/a	n/a	n/a	n/a	n/a
3002698	PROB	n/a	LTP293	ltpFR	13	n/a	n/a	n/a	n/a	n/a	n/a	10	2	5	3	n/a	n/a	n/a	n/a	n/a
3004130	PROB	n/a	LTP293	ltpFR	13	n/a	n/a	n/a	n/a	n/a	n/a	15	4	9	4	n/a	n/a	n/a	n/a	n/a
3005544	PROB	n/a	LTP293	ltpFR	13	n/a	n/a	n/a	n/a	n/a	n/a	12	3	4	5	n/a	n/a	n/a	n/a	n/a
3006785	STOP	n/a	LTP293	ltpFR	13	n/a	n/a	n/a	n/a	n/a	n/a	n/a	n/a	n/a	n/a	n/a	n/a	n/a	n/a	n/a
3009372	WORD	wordpools/wasnorm_wordpool_less_exclusions.txt	LTP293	ltpFR	13	9	0	FLUTE	585	n/a	1	n/a	0	0	0	0	0.5869140625	0.422607421875	lower	../fonts/zerothre.ttf
3012385	START	n/a	LTP293	ltpFR	13	n/a	n/a	n/a	n/a	n/a	n/a	n/a	n/a	n/a	n/a	n/a	n/a	n/a	n/a	n/a
3013449	PROB	n/a	LTP293	ltpFR	13	n/a	n/a	n/a	n/a	n/a	n/a	16	9	7	1	n/a	n/a	n/a	n/a	n/a
3015413	PROB	n/a	LTP293	ltpFR	13	n/a	n/a	n/a	n/a	n/a	n/a	16	4	4	8	n/a	n/a	n/a	n/a	n/a
3016477	PROB	n/a	LTP293	ltpFR	13	n/a	n/a	n/a	n/a	n/a	n/a	12	1	5	6	n/a	n/a	n/a	n/a	n/a
3017908	PROB	n/a	LTP293	ltpFR	13	n/a	n/a	n/a	n/a	n/a	n/a	25	9	7	9	n/a	n/a	n/a	n/a	n/a
3022336	PROB	n/a	LTP293	ltpFR	13	n/a	n/a	n/a	n/a	n/a	n/a	24	9	9	6	n/a	n/a	n/a	n/a	n/a
3025182	PROB	n/a	LTP293	ltpFR	13	n/a	n/a	n/a	n/a	n/a	n/a	14	6	1	7	n/a	n/a	n/a	n/a	n/a
3028385	STOP	n/a	LTP293	ltpFR	13	n/a	n/a	n/a	n/a	n/a	n/a	n/a	n/a	n/a	n/a	n/a	n/a	n/a	n/a	n/a
3029442	WORD	wordpools/wasnorm_wordpool_less_exclusions.txt	LTP293	ltpFR	13	9	0	CARPENTER	246	n/a	1	n/a	0	0	0	0	0.5869140625	0.422607421875	lower	../fonts/zerothre.ttf
3032455	START	n/a	LTP293	ltpFR	13	n/a	n/a	n/a	n/a	n/a	n/a	n/a	n/a	n/a	n/a	n/a	n/a	n/a	n/a	n/a
3033353	PROB	n/a	LTP293	ltpFR	13	n/a	n/a	n/a	n/a	n/a	n/a	20	7	9	4	n/a	n/a	n/a	n/a	n/a
3036082	PROB	n/a	LTP293	ltpFR	13	n/a	n/a	n/a	n/a	n/a	n/a	13	2	8	3	n/a	n/a	n/a	n/a	n/a
3037745	PROB	n/a	LTP293	ltpFR	13	n/a	n/a	n/a	n/a	n/a	n/a	9	2	5	2	n/a	n/a	n/a	n/a	n/a
3039061	PROB	n/a	LTP293	ltpFR	13	n/a	n/a	n/a	n/a	n/a	n/a	18	8	1	9	n/a	n/a	n/a	n/a	n/a
3040376	PROB	n/a	LTP293	ltpFR	13	n/a	n/a	n/a	n/a	n/a	n/a	10	3	3	4	n/a	n/a	n/a	n/a	n/a
3041706	PROB	n/a	LTP293	ltpFR	13	n/a	n/a	n/a	n/a	n/a	n/a	19	2	9	7	n/a	n/a	n/a	n/a	n/a
3043039	PROB	n/a	LTP293	ltpFR	13	n/a	n/a	n/a	n/a	n/a	n/a	8	2	3	3	n/a	n/a	n/a	n/a	n/a
3045019	PROB	n/a	LTP293	ltpFR	13	n/a	n/a	n/a	n/a	n/a	n/a	14	8	2	4	n/a	n/a	n/a	n/a	n/a
3046200	PROB	n/a	LTP293	ltpFR	13	n/a	n/a	n/a	n/a	n/a	n/a	13	6	3	4	n/a	n/a	n/a	n/a	n/a
3047585	STOP	n/a	LTP293	ltpFR	13	n/a	n/a	n/a	n/a	n/a	n/a	n/a	n/a	n/a	n/a	n/a	n/a	n/a	n/a	n/a
3049329	WORD	wordpools/wasnorm_wordpool_less_exclusions.txt	LTP293	ltpFR	13	9	1	PLIERS	1089	n/a	0	n/a	0	0	0	1	0.412841796875	0.57763671875	upper	../fonts/amplitud.ttf
3052342	START	n/a	LTP293	ltpFR	13	n/a	n/a	n/a	n/a	n/a	n/a	n/a	n/a	n/a	n/a	n/a	n/a	n/a	n/a	n/a
3053157	PROB	n/a	LTP293	ltpFR	13	n/a	n/a	n/a	n/a	n/a	n/a	14	4	3	7	n/a	n/a	n/a	n/a	n/a
3054886	PROB	n/a	LTP293	ltpFR	13	n/a	n/a	n/a	n/a	n/a	n/a	20	8	7	5	n/a	n/a	n/a	n/a	n/a
3056634	PROB	n/a	LTP293	ltpFR	13	n/a	n/a	n/a	n/a	n/a	n/a	20	2	9	9	n/a	n/a	n/a	n/a	n/a
3058914	PROB	n/a	LTP293	ltpFR	13	n/a	n/a	n/a	n/a	n/a	n/a	18	2	7	9	n/a	n/a	n/a	n/a	n/a
3060811	PROB	n/a	LTP293	ltpFR	13	n/a	n/a	n/a	n/a	n/a	n/a	9	2	6	2	n/a	n/a	n/a	n/a	n/a
3062542	PROB	n/a	LTP293	ltpFR	13	n/a	n/a	n/a	n/a	n/a	n/a	19	7	8	4	n/a	n/a	n/a	n/a	n/a
3064805	PROB	n/a	LTP293	ltpFR	13	n/a	n/a	n/a	n/a	n/a	n/a	16	4	4	8	n/a	n/a	n/a	n/a	n/a
3065870	PROB	n/a	LTP293	ltpFR	13	n/a	n/a	n/a	n/a	n/a	n/a	13	8	1	4	n/a	n/a	n/a	n/a	n/a
3067442	STOP	n/a	LTP293	ltpFR	13	n/a	n/a	n/a	n/a	n/a	n/a	n/a	n/a	n/a	n/a	n/a	n/a	n/a	n/a	n/a
3069399	WORD	wordpools/wasnorm_wordpool_less_exclusions.txt	LTP293	ltpFR	13	9	1	DUCK	504	n/a	1	n/a	0	0	0	1	0.412841796875	0.57763671875	upper	../fonts/amplitud.ttf
3072412	START	n/a	LTP293	ltpFR	13	n/a	n/a	n/a	n/a	n/a	n/a	n/a	n/a	n/a	n/a	n/a	n/a	n/a	n/a	n/a
3073260	PROB	n/a	LTP293	ltpFR	13	n/a	n/a	n/a	n/a	n/a	n/a	14	7	6	1	n/a	n/a	n/a	n/a	n/a
3074425	PROB	n/a	LTP293	ltpFR	13	n/a	n/a	n/a	n/a	n/a	n/a	15	5	1	9	n/a	n/a	n/a	n/a	n/a
3076920	PROB	n/a	LTP293	ltpFR	13	n/a	n/a	n/a	n/a	n/a	n/a	9	3	1	5	n/a	n/a	n/a	n/a	n/a
3078302	PROB	n/a	LTP293	ltpFR	13	n/a	n/a	n/a	n/a	n/a	n/a	17	1	7	9	n/a	n/a	n/a	n/a	n/a
3080100	PROB	n/a	LTP293	ltpFR	13	n/a	n/a	n/a	n/a	n/a	n/a	20	7	7	6	n/a	n/a	n/a	n/a	n/a
3081730	PROB	n/a	LTP293	ltpFR	13	n/a	n/a	n/a	n/a	n/a	n/a	15	6	2	7	n/a	n/a	n/a	n/a	n/a
3083045	PROB	n/a	LTP293	ltpFR	13	n/a	n/a	n/a	n/a	n/a	n/a	6	1	2	3	n/a	n/a	n/a	n/a	n/a
3084210	PROB	n/a	LTP293	ltpFR	13	n/a	n/a	n/a	n/a	n/a	n/a	9	6	1	2	n/a	n/a	n/a	n/a	n/a
3088412	STOP	n/a	LTP293	ltpFR	13	n/a	n/a	n/a	n/a	n/a	n/a	n/a	n/a	n/a	n/a	n/a	n/a	n/a	n/a	n/a
3089369	WORD	wordpools/wasnorm_wordpool_less_exclusions.txt	LTP293	ltpFR	13	9	1	SWATTER	1418	n/a	0	n/a	0	0	0	1	0.412841796875	0.57763671875	upper	../fonts/amplitud.ttf
3092382	START	n/a	LTP293	ltpFR	13	n/a	n/a	n/a	n/a	n/a	n/a	n/a	n/a	n/a	n/a	n/a	n/a	n/a	n/a	n/a
3093447	PROB	n/a	LTP293	ltpFR	13	n/a	n/a	n/a	n/a	n/a	n/a	12	1	5	6	n/a	n/a	n/a	n/a	n/a
3094527	PROB	n/a	LTP293	ltpFR	13	n/a	n/a	n/a	n/a	n/a	n/a	11	9	1	1	n/a	n/a	n/a	n/a	n/a
3095726	PROB	n/a	LTP293	ltpFR	13	n/a	n/a	n/a	n/a	n/a	n/a	17	4	8	5	n/a	n/a	n/a	n/a	n/a
3097689	PROB	n/a	LTP293	ltpFR	13	n/a	n/a	n/a	n/a	n/a	n/a	15	6	6	3	n/a	n/a	n/a	n/a	n/a
3099072	PROB	n/a	LTP293	ltpFR	13	n/a	n/a	n/a	n/a	n/a	n/a	20	8	7	5	n/a	n/a	n/a	n/a	n/a
3102200	PROB	n/a	LTP293	ltpFR	13	n/a	n/a	n/a	n/a	n/a	n/a	20	9	6	5	n/a	n/a	n/a	n/a	n/a
3103597	PROB	n/a	LTP293	ltpFR	13	n/a	n/a	n/a	n/a	n/a	n/a	19	4	9	5	n/a	n/a	n/a	n/a	n/a
3107058	STOP	n/a	LTP293	ltpFR	13	n/a	n/a	n/a	n/a	n/a	n/a	n/a	n/a	n/a	n/a	n/a	n/a	n/a	n/a	n/a
3110172	REC_START	n/a	LTP293	ltpFR	13	9	n/a	n/a	n/a	n/a	n/a	n/a	0	0	0	n/a	n/a	n/a	n/a	n/a
3111211	REC_WORD	wordpools/wasnorm_wordpool_less_exclusions.txt	LTP293	ltpFR	13	9	1	SWATTER	1418	n/a	0	n/a	0	0	0	n/a	n/a	n/a	n/a	n/a
3113469	REC_WORD	wordpools/wasnorm_wordpool_less_exclusions.txt	LTP293	ltpFR	13	9	0	CARPENTER	246	n/a	1	n/a	0	0	0	n/a	n/a	n/a	n/a	n/a
3116195	REC_WORD	wordpools/wasnorm_wordpool_less_exclusions.txt	LTP293	ltpFR	13	9	1	DUCK	504	n/a	1	n/a	0	0	0	n/a	n/a	n/a	n/a	n/a
3119575	REC_WORD	wordpools/wasnorm_wordpool_less_exclusions.txt	LTP293	ltpFR	13	9	0	CAFETERIA	217	n/a	1	n/a	0	0	0	n/a	n/a	n/a	n/a	n/a
3121271	REC_WORD	wordpools/wasnorm_wordpool_less_exclusions.txt	LTP293	ltpFR	13	9	1	CAFE	216	n/a	1	n/a	0	0	0	n/a	n/a	n/a	n/a	n/a
3122770	REC_WORD	wordpools/wasnorm_wordpool_less_exclusions.txt	LTP293	ltpFR	13	9	0	PICNIC	1060	n/a	1	n/a	0	0	0	n/a	n/a	n/a	n/a	n/a
3123966	REC_WORD	wordpools/wasnorm_wordpool_less_exclusions.txt	LTP293	ltpFR	13	9	1	BLANKET	135	n/a	0	n/a	0	0	0	n/a	n/a	n/a	n/a	n/a
3125159	REC_WORD	wordpools/wasnorm_wordpool_less_exclusions.txt	LTP293	ltpFR	13	9	0	ENEMY	534	n/a	1	n/a	0	0	0	n/a	n/a	n/a	n/a	n/a
3130268	REC_WORD	wordpools/wasnorm_wordpool_less_exclusions.txt	LTP293	ltpFR	13	9	1	PLIERS	1089	n/a	0	n/a	0	0	0	n/a	n/a	n/a	n/a	n/a
3144929	REC_WORD	wordpools/wasnorm_wordpool_less_exclusions.txt	LTP293	ltpFR	13	9	1	FAN	551	n/a	1	n/a	0	0	0	n/a	n/a	n/a	n/a	n/a
3199520	WORD	wordpools/wasnorm_wordpool_less_exclusions.txt	LTP293	ltpFR	13	10	0	POLYESTER	1100	n/a	1	n/a	0	0	0	0	0.5869140625	0.422607421875	lower	../fonts/zerothre.ttf
3203614	WORD	wordpools/wasnorm_wordpool_less_exclusions.txt	LTP293	ltpFR	13	10	0	COOKIE	374	n/a	0	n/a	0	0	0	0	0.5869140625	0.422607421875	lower	../fonts/zerothre.ttf
3207558	WORD	wordpools/wasnorm_wordpool_less_exclusions.txt	LTP293	ltpFR	13	10	0	BUCKET	184	n/a	1	n/a	0	0	0	0	0.5869140625	0.422607421875	lower	../fonts/zerothre.ttf
3211454	WORD	wordpools/wasnorm_wordpool_less_exclusions.txt	LTP293	ltpFR	13	10	0	SEA	1259	n/a	1	n/a	0	0	0	0	0.5869140625	0.422607421875	lower	../fonts/zerothre.ttf
3215530	WORD	wordpools/wasnorm_wordpool_less_exclusions.txt	LTP293	ltpFR	13	10	0	WARDROBE	1587	n/a	1	n/a	0	0	0	0	0.5869140625	0.422607421875	lower	../fonts/zerothre.ttf
3219574	WORD	wordpools/wasnorm_wordpool_less_exclusions.txt	LTP293	ltpFR	13	10	0	MARKER	870	n/a	0	n/a	0	0	0	0	0.5869140625	0.422607421875	lower	../fonts/zerothre.ttf
3223518	WORD	wordpools/wasnorm_wordpool_less_exclusions.txt	LTP293	ltpFR	13	10	0	BLACKBERRY	132	n/a	0	n/a	0	0	0	0	0.5869140625	0.422607421875	lower	../fonts/zerothre.ttf
3227463	WORD	wordpools/wasnorm_wordpool_less_exclusions.txt	LTP293	ltpFR	13	10	0	KIWI	781	n/a	0	n/a	0	0	0	0	0.5869140625	0.422607421875	lower	../fonts/zerothre.ttf
3231307	WORD	wordpools/wasnorm_wordpool_less_exclusions.txt	LTP293	ltpFR	13	10	0	PURSE	1145	n/a	1	n/a	0	0	0	0	0.5869140625	0.422607421875	lower	../fonts/zerothre.ttf
3235500	WORD	wordpools/wasnorm_wordpool_less_exclusions.txt	LTP293	ltpFR	13	10	0	MESSAGE	888	n/a	0	n/a	0	0	0	0	0.5869140625	0.422607421875	lower	../fonts/zerothre.ttf
3239445	WORD	wordpools/wasnorm_wordpool_less_exclusions.txt	LTP293	ltpFR	13	10	0	BRIEFCASE	175	n/a	1	n/a	0	0	0	0	0.5869140625	0.422607421875	lower	../fonts/zerothre.ttf
3243571	WORD	wordpools/wasnorm_wordpool_less_exclusions.txt	LTP293	ltpFR	13	10	0	CARD	243	n/a	0	n/a	0	0	0	0	0.5869140625	0.422607421875	lower	../fonts/zerothre.ttf
3247649	WORD	wordpools/wasnorm_wordpool_less_exclusions.txt	LTP293	ltpFR	13	10	0	DOG	480	n/a	1	n/a	0	0	0	0	0.5869140625	0.422607421875	lower	../fonts/zerothre.ttf
3251543	WORD	wordpools/wasnorm_wordpool_less_exclusions.txt	LTP293	ltpFR	13	10	0	SHORTS	1293	n/a	0	n/a	0	0	0	0	0.5869140625	0.422607421875	lower	../fonts/zerothre.ttf
3255687	WORD	wordpools/wasnorm_wordpool_less_exclusions.txt	LTP293	ltpFR	13	10	0	DECK	443	n/a	1	n/a	0	0	0	0	0.5869140625	0.422607421875	lower	../fonts/zerothre.ttf
3259880	WORD	wordpools/wasnorm_wordpool_less_exclusions.txt	LTP293	ltpFR	13	10	0	PASTRY	1022	n/a	0	n/a	0	0	0	0	0.5869140625	0.422607421875	lower	../fonts/zerothre.ttf
3262893	START	n/a	LTP293	ltpFR	13	n/a	n/a	n/a	n/a	n/a	n/a	n/a	n/a	n/a	n/a	n/a	n/a	n/a	n/a	n/a
3263941	PROB	n/a	LTP293	ltpFR	13	n/a	n/a	n/a	n/a	n/a	n/a	21	8	8	5	n/a	n/a	n/a	n/a	n/a
3265456	PROB	n/a	LTP293	ltpFR	13	n/a	n/a	n/a	n/a	n/a	n/a	17	7	5	5	n/a	n/a	n/a	n/a	n/a
3266803	PROB	n/a	LTP293	ltpFR	13	n/a	n/a	n/a	n/a	n/a	n/a	21	6	6	9	n/a	n/a	n/a	n/a	n/a
3268202	PROB	n/a	LTP293	ltpFR	13	n/a	n/a	n/a	n/a	n/a	n/a	20	8	8	4	n/a	n/a	n/a	n/a	n/a
3269483	PROB	n/a	LTP293	ltpFR	13	n/a	n/a	n/a	n/a	n/a	n/a	6	6	2	3	n/a	n/a	n/a	n/a	n/a
3270864	PROB	n/a	LTP293	ltpFR	13	n/a	n/a	n/a	n/a	n/a	n/a	17	5	7	5	n/a	n/a	n/a	n/a	n/a
3272246	PROB	n/a	LTP293	ltpFR	13	n/a	n/a	n/a	n/a	n/a	n/a	19	6	7	6	n/a	n/a	n/a	n/a	n/a
3274542	PROB	n/a	LTP293	ltpFR	13	n/a	n/a	n/a	n/a	n/a	n/a	19	9	9	1	n/a	n/a	n/a	n/a	n/a
3276489	PROB	n/a	LTP293	ltpFR	13	n/a	n/a	n/a	n/a	n/a	n/a	7	1	5	1	n/a	n/a	n/a	n/a	n/a
3277665	STOP	n/a	LTP293	ltpFR	13	n/a	n/a	n/a	n/a	n/a	n/a	n/a	n/a	n/a	n/a	n/a	n/a	n/a	n/a	n/a
3280683	REC_START	n/a	LTP293	ltpFR	13	10	n/a	n/a	n/a	n/a	n/a	n/a	0	0	0	n/a	n/a	n/a	n/a	n/a
3281966	REC_WORD	wordpools/wasnorm_wordpool_less_exclusions.txt	LTP293	ltpFR	13	10	0	POLYESTER	1100	n/a	1	n/a	0	0	0	n/a	n/a	n/a	n/a	n/a
3283324	REC_WORD	wordpools/wasnorm_wordpool_less_exclusions.txt	LTP293	ltpFR	13	10	0	COOKIE	374	n/a	0	n/a	0	0	0	n/a	n/a	n/a	n/a	n/a
3284554	REC_WORD	wordpools/wasnorm_wordpool_less_exclusions.txt	LTP293	ltpFR	13	10	0	PASTRY	1022	n/a	0	n/a	0	0	0	n/a	n/a	n/a	n/a	n/a
3285968	REC_WORD	wordpools/wasnorm_wordpool_less_exclusions.txt	LTP293	ltpFR	13	10	0	DOG	480	n/a	1	n/a	0	0	0	n/a	n/a	n/a	n/a	n/a
3287694	REC_WORD	wordpools/wasnorm_wordpool_less_exclusions.txt	LTP293	ltpFR	13	10	0	DECK	443	n/a	1	n/a	0	0	0	n/a	n/a	n/a	n/a	n/a
3290134	REC_WORD	wordpools/wasnorm_wordpool_less_exclusions.txt	LTP293	ltpFR	13	10	0	BUCKET	184	n/a	1	n/a	0	0	0	n/a	n/a	n/a	n/a	n/a
3291781	REC_WORD	wordpools/wasnorm_wordpool_less_exclusions.txt	LTP293	ltpFR	13	10	0	KIWI	781	n/a	0	n/a	0	0	0	n/a	n/a	n/a	n/a	n/a
3292863	REC_WORD	wordpools/wasnorm_wordpool_less_exclusions.txt	LTP293	ltpFR	13	10	0	BLACKBERRY	132	n/a	0	n/a	0	0	0	n/a	n/a	n/a	n/a	n/a
3294814	REC_WORD	wordpools/wasnorm_wordpool_less_exclusions.txt	LTP293	ltpFR	13	10	0	BRIEFCASE	175	n/a	1	n/a	0	0	0	n/a	n/a	n/a	n/a	n/a
3295903	REC_WORD	wordpools/wasnorm_wordpool_less_exclusions.txt	LTP293	ltpFR	13	10	0	PURSE	1145	n/a	1	n/a	0	0	0	n/a	n/a	n/a	n/a	n/a
3299494	REC_WORD	wordpools/wasnorm_wordpool_less_exclusions.txt	LTP293	ltpFR	13	10	0	SEA	1259	n/a	1	n/a	0	0	0	n/a	n/a	n/a	n/a	n/a
3325322	REC_WORD	wordpools/wasnorm_wordpool_less_exclusions.txt	LTP293	ltpFR	13	10	0	SHORTS	1293	n/a	0	n/a	0	0	0	n/a	n/a	n/a	n/a	n/a
3372130	WORD	wordpools/wasnorm_wordpool_less_exclusions.txt	LTP293	ltpFR	13	11	0	DEPUTY	450	n/a	1	n/a	0	0	0	0	0.5869140625	0.422607421875	lower	../fonts/zerothre.ttf
3376058	WORD	wordpools/wasnorm_wordpool_less_exclusions.txt	LTP293	ltpFR	13	11	0	KNIGHT	786	n/a	1	n/a	0	0	0	0	0.5869140625	0.422607421875	lower	../fonts/zerothre.ttf
3379969	WORD	wordpools/wasnorm_wordpool_less_exclusions.txt	LTP293	ltpFR	13	11	1	MAILMAN	858	n/a	1	n/a	0	0	0	1	0.412841796875	0.57763671875	upper	../fonts/amplitud.ttf
3383963	WORD	wordpools/wasnorm_wordpool_less_exclusions.txt	LTP293	ltpFR	13	11	1	STAMP	1370	n/a	0	n/a	0	0	0	1	0.412841796875	0.57763671875	upper	../fonts/amplitud.ttf
3387939	WORD	wordpools/wasnorm_wordpool_less_exclusions.txt	LTP293	ltpFR	13	11	1	BEAN	105	n/a	0	n/a	0	0	0	1	0.412841796875	0.57763671875	upper	../fonts/amplitud.ttf
