onset	duration	trial_type	sample	stim_file	subject	experiment	session	trial	task	item_name	item_num	recog_conf	resp	color_b	color_g	color_r	case	font
323.3125	n/a	SESS_START	331072	n/a	LTP339	ltpFR	3	n/a	n/a	n/a	n/a	5	n/a	n/a	n/a	n/a	n/a	n/a
358.478515625	n/a	WORD	367082	wordpools/wasnorm_wordpool_less_exclusions.txt	LTP339	ltpFR	3	1	1	SWAN	1417	n/a	1	1	0.412841796875	0.57763671875	upper	../fonts/amplitud.ttf
362.34375	n/a	WORD	371040	wordpools/wasnorm_wordpool_less_exclusions.txt	LTP339	ltpFR	3	1	1	COOK	372	n/a	0	1	0.412841796875	0.57763671875	upper	../fonts/amplitud.ttf
366.5244140625	n/a	WORD	375321	wordpools/wasnorm_wordpool_less_exclusions.txt	LTP339	ltpFR	3	1	1	COOKBOOK	373	n/a	0	1	0.412841796875	0.57763671875	upper	../fonts/amplitud.ttf
370.6396484375	n/a	WORD	379535	wordpools/wasnorm_wordpool_less_exclusions.txt	LTP339	ltpFR	3	1	0	EAGLE	512	n/a	1	0	0.5869140625	0.422607421875	lower	../fonts/zerothre.ttf
374.5712890625	n/a	WORD	383561	wordpools/wasnorm_wordpool_less_exclusions.txt	LTP339	ltpFR	3	1	0	RESTAURANT	1187	n/a	1	0	0.5869140625	0.422607421875	lower	../fonts/zerothre.ttf
378.5859375	n/a	WORD	387672	wordpools/wasnorm_wordpool_less_exclusions.txt	LTP339	ltpFR	3	1	0	ANTELOPE	27	n/a	1	0	0.5869140625	0.422607421875	lower	../fonts/zerothre.ttf
382.583984375	n/a	WORD	391766	wordpools/wasnorm_wordpool_less_exclusions.txt	LTP339	ltpFR	3	1	0	WALRUS	1585	n/a	1	0	0.5869140625	0.422607421875	lower	../fonts/zerothre.ttf
386.7138671875	n/a	WORD	395995	wordpools/wasnorm_wordpool_less_exclusions.txt	LTP339	ltpFR	3	1	1	BATHROOM	99	n/a	0	1	0.412841796875	0.57763671875	upper	../fonts/amplitud.ttf
390.845703125	n/a	WORD	400226	wordpools/wasnorm_wordpool_less_exclusions.txt	LTP339	ltpFR	3	1	1	RELISH	1183	n/a	0	1	0.412841796875	0.57763671875	upper	../fonts/amplitud.ttf
394.9931640625	n/a	WORD	404473	wordpools/wasnorm_wordpool_less_exclusions.txt	LTP339	ltpFR	3	1	1	FAUCET	555	n/a	0	1	0.412841796875	0.57763671875	upper	../fonts/amplitud.ttf
398.8740234375	n/a	WORD	408447	wordpools/wasnorm_wordpool_less_exclusions.txt	LTP339	ltpFR	3	1	0	MOUTH	926	n/a	0	0	0.5869140625	0.422607421875	lower	../fonts/zerothre.ttf
402.7890625	n/a	WORD	412456	wordpools/wasnorm_wordpool_less_exclusions.txt	LTP339	ltpFR	3	1	0	NAPKIN	937	n/a	0	0	0.5869140625	0.422607421875	lower	../fonts/zerothre.ttf
406.88671875	n/a	WORD	416652	wordpools/wasnorm_wordpool_less_exclusions.txt	LTP339	ltpFR	3	1	0	NOTEBOOK	959	n/a	0	0	0.5869140625	0.422607421875	lower	../fonts/zerothre.ttf
410.8193359375	n/a	WORD	420679	wordpools/wasnorm_wordpool_less_exclusions.txt	LTP339	ltpFR	3	1	0	COUCH	386	n/a	1	0	0.5869140625	0.422607421875	lower	../fonts/zerothre.ttf
414.8505859375	n/a	WORD	424807	wordpools/wasnorm_wordpool_less_exclusions.txt	LTP339	ltpFR	3	1	1	ALLEY	15	n/a	0	1	0.412841796875	0.57763671875	upper	../fonts/amplitud.ttf
419.033203125	n/a	WORD	429090	wordpools/wasnorm_wordpool_less_exclusions.txt	LTP339	ltpFR	3	1	1	LAGOON	795	n/a	0	1	0.412841796875	0.57763671875	upper	../fonts/amplitud.ttf
424.6962890625	n/a	REC_START	434889	n/a	LTP339	ltpFR	3	1	n/a	n/a	n/a	n/a	n/a	n/a	n/a	n/a	n/a	n/a
425.435546875	n/a	REC_WORD	435646	wordpools/wasnorm_wordpool_less_exclusions.txt	LTP339	ltpFR	3	1	1	SWAN	1417	n/a	1	n/a	n/a	n/a	n/a	n/a
426.326171875	n/a	REC_WORD	436558	wordpools/wasnorm_wordpool_less_exclusions.txt	LTP339	ltpFR	3	1	1	COOK	372	n/a	0	n/a	n/a	n/a	n/a	n/a
426.9833984375	n/a	REC_WORD	437231	wordpools/wasnorm_wordpool_less_exclusions.txt	LTP339	ltpFR	3	1	1	COOKBOOK	373	n/a	0	n/a	n/a	n/a	n/a	n/a
427.7529296875	n/a	REC_WORD	438019	wordpools/wasnorm_wordpool_less_exclusions.txt	LTP339	ltpFR	3	1	0	ANTELOPE	27	n/a	1	n/a	n/a	n/a	n/a	n/a
428.5185546875	n/a	REC_WORD	438803	wordpools/wasnorm_wordpool_less_exclusions.txt	LTP339	ltpFR	3	1	0	WALRUS	1585	n/a	1	n/a	n/a	n/a	n/a	n/a
431.1337890625	n/a	REC_WORD	441481	wordpools/wasnorm_wordpool_less_exclusions.txt	LTP339	ltpFR	3	1	0	RESTAURANT	1187	n/a	1	n/a	n/a	n/a	n/a	n/a
432.3994140625	n/a	REC_WORD	442777	wordpools/wasnorm_wordpool_less_exclusions.txt	LTP339	ltpFR	3	1	0	NAPKIN	937	n/a	0	n/a	n/a	n/a	n/a	n/a
433.11328125	n/a	REC_WORD	443508	wordpools/wasnorm_wordpool_less_exclusions.txt	LTP339	ltpFR	3	1	0	NOTEBOOK	959	n/a	0	n/a	n/a	n/a	n/a	n/a
440.27734375	n/a	REC_WORD	450844	wordpools/wasnorm_wordpool_less_exclusions.txt	LTP339	ltpFR	3	1	1	FAUCET	555	n/a	0	n/a	n/a	n/a	n/a	n/a
444.4033203125	n/a	REC_WORD	455069	wordpools/wasnorm_wordpool_less_exclusions.txt	LTP339	ltpFR	3	1	1	BATHROOM	99	n/a	0	n/a	n/a	n/a	n/a	n/a
447.505859375	n/a	REC_WORD	458246	wordpools/wasnorm_wordpool_less_exclusions.txt	LTP339	ltpFR	3	1	1	ALLEY	15	n/a	0	n/a	n/a	n/a	n/a	n/a
449.283203125	n/a	REC_WORD	460066	wordpools/wasnorm_wordpool_less_exclusions.txt	LTP339	ltpFR	3	1	1	LAGOON	795	n/a	0	n/a	n/a	n/a	n/a	n/a
451.8916015625	n/a	REC_WORD	462737	wordpools/wasnorm_wordpool_less_exclusions.txt	LTP339	ltpFR	3	1	0	EAGLE	512	n/a	1	n/a	n/a	n/a	n/a	n/a
454.591796875	n/a	REC_WORD	465502	wordpools/wasnorm_wordpool_less_exclusions.txt	LTP339	ltpFR	3	1	0	MOUTH	926	n/a	0	n/a	n/a	n/a	n/a	n/a
503.158203125	n/a	WORD	515234	wordpools/wasnorm_wordpool_less_exclusions.txt	LTP339	ltpFR	3	2	0	ASTRONAUT	51	n/a	1	0	0.5869140625	0.422607421875	lower	../fonts/zerothre.ttf
507.0400390625	n/a	WORD	519209	wordpools/wasnorm_wordpool_less_exclusions.txt	LTP339	ltpFR	3	2	0	BULLY	196	n/a	1	0	0.5869140625	0.422607421875	lower	../fonts/zerothre.ttf
510.8701171875	n/a	WORD	523131	wordpools/wasnorm_wordpool_less_exclusions.txt	LTP339	ltpFR	3	2	0	CASH	252	n/a	0	0	0.5869140625	0.422607421875	lower	../fonts/zerothre.ttf
515.0029296875	n/a	WORD	527363	wordpools/wasnorm_wordpool_less_exclusions.txt	LTP339	ltpFR	3	2	1	MOON	914	n/a	0	1	0.412841796875	0.57763671875	upper	../fonts/amplitud.ttf
519.05078125	n/a	WORD	531508	wordpools/wasnorm_wordpool_less_exclusions.txt	LTP339	ltpFR	3	2	1	SALESMAN	1225	n/a	1	1	0.412841796875	0.57763671875	upper	../fonts/amplitud.ttf
523.166015625	n/a	WORD	535722	wordpools/wasnorm_wordpool_less_exclusions.txt	LTP339	ltpFR	3	2	1	MECHANIC	884	n/a	1	1	0.412841796875	0.57763671875	upper	../fonts/amplitud.ttf
527.296875	n/a	WORD	539952	wordpools/wasnorm_wordpool_less_exclusions.txt	LTP339	ltpFR	3	2	1	ENGINE	535	n/a	0	1	0.412841796875	0.57763671875	upper	../fonts/amplitud.ttf
531.12890625	n/a	WORD	543876	wordpools/wasnorm_wordpool_less_exclusions.txt	LTP339	ltpFR	3	2	1	CONSUMER	365	n/a	1	1	0.412841796875	0.57763671875	upper	../fonts/amplitud.ttf
535.09375	n/a	WORD	547936	wordpools/wasnorm_wordpool_less_exclusions.txt	LTP339	ltpFR	3	2	0	FIST	572	n/a	0	0	0.5869140625	0.422607421875	lower	../fonts/zerothre.ttf
539.19140625	n/a	WORD	552132	wordpools/wasnorm_wordpool_less_exclusions.txt	LTP339	ltpFR	3	2	0	SODA	1341	n/a	0	0	0.5869140625	0.422607421875	lower	../fonts/zerothre.ttf
543.0234375	n/a	WORD	556056	wordpools/wasnorm_wordpool_less_exclusions.txt	LTP339	ltpFR	3	2	0	BALLOON	75	n/a	0	0	0.5869140625	0.422607421875	lower	../fonts/zerothre.ttf
547.2041015625	n/a	WORD	560337	wordpools/wasnorm_wordpool_less_exclusions.txt	LTP339	ltpFR	3	2	1	CARRIAGE	248	n/a	0	1	0.412841796875	0.57763671875	upper	../fonts/amplitud.ttf
551.21875	n/a	WORD	564448	wordpools/wasnorm_wordpool_less_exclusions.txt	LTP339	ltpFR	3	2	1	PALACE	1006	n/a	0	1	0.412841796875	0.57763671875	upper	../fonts/amplitud.ttf
555.2333984375	n/a	WORD	568559	wordpools/wasnorm_wordpool_less_exclusions.txt	LTP339	ltpFR	3	2	1	CAMERA	224	n/a	0	1	0.412841796875	0.57763671875	upper	../fonts/amplitud.ttf
559.431640625	n/a	WORD	572858	wordpools/wasnorm_wordpool_less_exclusions.txt	LTP339	ltpFR	3	2	0	CELERY	266	n/a	0	0	0.5869140625	0.422607421875	lower	../fonts/zerothre.ttf
563.49609375	n/a	WORD	577020	wordpools/wasnorm_wordpool_less_exclusions.txt	LTP339	ltpFR	3	2	0	SCARECROW	1245	n/a	1	0	0.5869140625	0.422607421875	lower	../fonts/zerothre.ttf
569.361328125	n/a	REC_START	583026	n/a	LTP339	ltpFR	3	2	n/a	n/a	n/a	n/a	n/a	n/a	n/a	n/a	n/a	n/a
570.0185546875	n/a	REC_WORD	583699	wordpools/wasnorm_wordpool_less_exclusions.txt	LTP339	ltpFR	3	2	1	CONSUMER	365	n/a	1	n/a	n/a	n/a	n/a	n/a
570.9736328125	n/a	REC_WORD	584677	wordpools/wasnorm_wordpool_less_exclusions.txt	LTP339	ltpFR	3	2	1	CARRIAGE	248	n/a	0	n/a	n/a	n/a	n/a	n/a
571.849609375	n/a	REC_WORD	585574	wordpools/wasnorm_wordpool_less_exclusions.txt	LTP339	ltpFR	3	2	0	BALLOON	75	n/a	0	n/a	n/a	n/a	n/a	n/a
574.18359375	n/a	REC_WORD	587964	wordpools/wasnorm_wordpool_less_exclusions.txt	LTP339	ltpFR	3	2	0	SCARECROW	1245	n/a	1	n/a	n/a	n/a	n/a	n/a
578.8427734375	n/a	REC_WORD	592735	wordpools/wasnorm_wordpool_less_exclusions.txt	LTP339	ltpFR	3	2	1	MECHANIC	884	n/a	1	n/a	n/a	n/a	n/a	n/a
604.54296875	n/a	REC_WORD	619052	wordpools/wasnorm_wordpool_less_exclusions.txt	LTP339	ltpFR	3	2	0	CELERY	266	n/a	0	n/a	n/a	n/a	n/a	n/a
628.787109375	n/a	REC_WORD	643878	wordpools/wasnorm_wordpool_less_exclusions.txt	LTP339	ltpFR	3	2	1	SALESMAN	1225	n/a	1	n/a	n/a	n/a	n/a	n/a
631.4775390625	n/a	REC_WORD	646633	wordpools/wasnorm_wordpool_less_exclusions.txt	LTP339	ltpFR	3	2	0	BULLY	196	n/a	1	n/a	n/a	n/a	n/a	n/a
634.7939453125	n/a	REC_WORD	650029	wordpools/wasnorm_wordpool_less_exclusions.txt	LTP339	ltpFR	3	2	0	ASTRONAUT	51	n/a	1	n/a	n/a	n/a	n/a	n/a
652.6201171875	n/a	WORD	668283	wordpools/wasnorm_wordpool_less_exclusions.txt	LTP339	ltpFR	3	3	-1	TOWER	1490	n/a	-1	1	1.0	1.0	upper	../fonts/Verdana.ttf
656.6181640625	n/a	WORD	672377	wordpools/wasnorm_wordpool_less_exclusions.txt	LTP339	ltpFR	3	3	-1	MAGNET	855	n/a	-1	1	1.0	1.0	upper	../fonts/Verdana.ttf
660.7314453125	n/a	WORD	676589	wordpools/wasnorm_wordpool_less_exclusions.txt	LTP339	ltpFR	3	3	-1	BRANCH	168	n/a	-1	1	1.0	1.0	upper	../fonts/Verdana.ttf
664.830078125	n/a	WORD	680786	wordpools/wasnorm_wordpool_less_exclusions.txt	LTP339	ltpFR	3	3	-1	CUSTOMER	430	n/a	-1	1	1.0	1.0	upper	../fonts/Verdana.ttf
668.744140625	n/a	WORD	684794	wordpools/wasnorm_wordpool_less_exclusions.txt	LTP339	ltpFR	3	3	-1	STEM	1376	n/a	-1	1	1.0	1.0	upper	../fonts/Verdana.ttf
672.8427734375	n/a	WORD	688991	wordpools/wasnorm_wordpool_less_exclusions.txt	LTP339	ltpFR	3	3	-1	PRIMATE	1123	n/a	-1	1	1.0	1.0	upper	../fonts/Verdana.ttf
676.740234375	n/a	WORD	692982	wordpools/wasnorm_wordpool_less_exclusions.txt	LTP339	ltpFR	3	3	-1	MONKEY	911	n/a	-1	1	1.0	1.0	upper	../fonts/Verdana.ttf
680.6552734375	n/a	WORD	696991	wordpools/wasnorm_wordpool_less_exclusions.txt	LTP339	ltpFR	3	3	-1	RECEPTIONIST	1174	n/a	-1	1	1.0	1.0	upper	../fonts/Verdana.ttf
684.685546875	n/a	WORD	701118	wordpools/wasnorm_wordpool_less_exclusions.txt	LTP339	ltpFR	3	3	-1	WHALE	1601	n/a	-1	1	1.0	1.0	upper	../fonts/Verdana.ttf
688.6513671875	n/a	WORD	705179	wordpools/wasnorm_wordpool_less_exclusions.txt	LTP339	ltpFR	3	3	-1	CLAM	315	n/a	-1	1	1.0	1.0	upper	../fonts/Verdana.ttf
692.783203125	n/a	WORD	709410	wordpools/wasnorm_wordpool_less_exclusions.txt	LTP339	ltpFR	3	3	-1	ASH	44	n/a	-1	1	1.0	1.0	upper	../fonts/Verdana.ttf
696.6318359375	n/a	WORD	713351	wordpools/wasnorm_wordpool_less_exclusions.txt	LTP339	ltpFR	3	3	-1	DOCUMENT	479	n/a	-1	1	1.0	1.0	upper	../fonts/Verdana.ttf
700.6953125	n/a	WORD	717512	wordpools/wasnorm_wordpool_less_exclusions.txt	LTP339	ltpFR	3	3	-1	TABLET	1427	n/a	-1	1	1.0	1.0	upper	../fonts/Verdana.ttf
704.826171875	n/a	WORD	721742	wordpools/wasnorm_wordpool_less_exclusions.txt	LTP339	ltpFR	3	3	-1	GAZELLE	628	n/a	-1	1	1.0	1.0	upper	../fonts/Verdana.ttf
709.025390625	n/a	WORD	726042	wordpools/wasnorm_wordpool_less_exclusions.txt	LTP339	ltpFR	3	3	-1	FIG	563	n/a	-1	1	1.0	1.0	upper	../fonts/Verdana.ttf
713.107421875	n/a	WORD	730222	wordpools/wasnorm_wordpool_less_exclusions.txt	LTP339	ltpFR	3	3	-1	EMPLOYER	532	n/a	-1	1	1.0	1.0	upper	../fonts/Verdana.ttf
718.8701171875	n/a	REC_START	736123	n/a	LTP339	ltpFR	3	3	n/a	n/a	n/a	n/a	n/a	n/a	n/a	n/a	n/a	n/a
719.677734375	n/a	REC_WORD	736950	wordpools/wasnorm_wordpool_less_exclusions.txt	LTP339	ltpFR	3	3	-1	ASH	44	n/a	-1	n/a	n/a	n/a	n/a	n/a
720.546875	n/a	REC_WORD	737840	wordpools/wasnorm_wordpool_less_exclusions.txt	LTP339	ltpFR	3	3	-1	DOCUMENT	479	n/a	-1	n/a	n/a	n/a	n/a	n/a
721.71484375	n/a	REC_WORD	739036	wordpools/wasnorm_wordpool_less_exclusions.txt	LTP339	ltpFR	3	3	-1	GAZELLE	628	n/a	-1	n/a	n/a	n/a	n/a	n/a
722.4375	n/a	REC_WORD	739776	wordpools/wasnorm_wordpool_less_exclusions.txt	LTP339	ltpFR	3	3	-1	PRIMATE	1123	n/a	-1	n/a	n/a	n/a	n/a	n/a
723.197265625	n/a	REC_WORD	740554	wordpools/wasnorm_wordpool_less_exclusions.txt	LTP339	ltpFR	3	3	-1	MONKEY	911	n/a	-1	n/a	n/a	n/a	n/a	n/a
726.07421875	n/a	REC_WORD	743500	wordpools/wasnorm_wordpool_less_exclusions.txt	LTP339	ltpFR	3	3	-1	WHALE	1601	n/a	-1	n/a	n/a	n/a	n/a	n/a
728.5068359375	n/a	REC_WORD	745991	wordpools/wasnorm_wordpool_less_exclusions.txt	LTP339	ltpFR	3	3	-1	TOWER	1490	n/a	-1	n/a	n/a	n/a	n/a	n/a
736.2978515625	n/a	REC_WORD	753969	wordpools/wasnorm_wordpool_less_exclusions.txt	LTP339	ltpFR	3	3	-1	CUSTOMER	430	n/a	-1	n/a	n/a	n/a	n/a	n/a
738.1123046875	n/a	REC_WORD	755827	wordpools/wasnorm_wordpool_less_exclusions.txt	LTP339	ltpFR	3	3	-1	RECEPTIONIST	1174	n/a	-1	n/a	n/a	n/a	n/a	n/a
739.1123046875	n/a	REC_WORD_VV	756851	wordpools/wasnorm_wordpool_less_exclusions.txt	LTP339	ltpFR	3	3	n/a	<>	-1	n/a	n/a	n/a	n/a	n/a	n/a	n/a
748.546875	n/a	REC_WORD	766512	wordpools/wasnorm_wordpool_less_exclusions.txt	LTP339	ltpFR	3	3	-1	FIG	563	n/a	-1	n/a	n/a	n/a	n/a	n/a
759.2890625	n/a	REC_WORD	777512	wordpools/wasnorm_wordpool_less_exclusions.txt	LTP339	ltpFR	3	3	-1	BRANCH	168	n/a	-1	n/a	n/a	n/a	n/a	n/a
779.2509765625	n/a	REC_WORD	797953	wordpools/wasnorm_wordpool_less_exclusions.txt	LTP339	ltpFR	3	3	-1	MAGNET	855	n/a	-1	n/a	n/a	n/a	n/a	n/a
797.1171875	n/a	WORD	816248	wordpools/wasnorm_wordpool_less_exclusions.txt	LTP339	ltpFR	3	4	1	HOOK	715	n/a	0	1	0.412841796875	0.57763671875	upper	../fonts/amplitud.ttf
801.3310546875	n/a	WORD	820563	wordpools/wasnorm_wordpool_less_exclusions.txt	LTP339	ltpFR	3	4	1	SIGNATURE	1306	n/a	0	1	0.412841796875	0.57763671875	upper	../fonts/amplitud.ttf
805.2958984375	n/a	WORD	824623	wordpools/wasnorm_wordpool_less_exclusions.txt	LTP339	ltpFR	3	4	1	WASHCLOTH	1591	n/a	0	1	0.412841796875	0.57763671875	upper	../fonts/amplitud.ttf
809.3271484375	n/a	WORD	828751	wordpools/wasnorm_wordpool_less_exclusions.txt	LTP339	ltpFR	3	4	1	POSSUM	1112	n/a	1	1	0.412841796875	0.57763671875	upper	../fonts/amplitud.ttf
813.341796875	n/a	WORD	832862	wordpools/wasnorm_wordpool_less_exclusions.txt	LTP339	ltpFR	3	4	0	INFANT	737	n/a	0	0	0.5869140625	0.422607421875	lower	../fonts/zerothre.ttf
817.5400390625	n/a	WORD	837161	wordpools/wasnorm_wordpool_less_exclusions.txt	LTP339	ltpFR	3	4	0	CHICK	296	n/a	0	0	0.5869140625	0.422607421875	lower	../fonts/zerothre.ttf
821.4052734375	n/a	WORD	841119	wordpools/wasnorm_wordpool_less_exclusions.txt	LTP339	ltpFR	3	4	0	QUILL	1150	n/a	0	0	0.5869140625	0.422607421875	lower	../fonts/zerothre.ttf
825.236328125	n/a	WORD	845042	wordpools/wasnorm_wordpool_less_exclusions.txt	LTP339	ltpFR	3	4	0	SWEATER	1419	n/a	0	0	0.5869140625	0.422607421875	lower	../fonts/zerothre.ttf
829.1005859375	n/a	WORD	848999	wordpools/wasnorm_wordpool_less_exclusions.txt	LTP339	ltpFR	3	4	1	VET	1560	n/a	1	1	0.412841796875	0.57763671875	upper	../fonts/amplitud.ttf
833.0830078125	n/a	WORD	853077	wordpools/wasnorm_wordpool_less_exclusions.txt	LTP339	ltpFR	3	4	1	TOWEL	1489	n/a	0	1	0.412841796875	0.57763671875	upper	../fonts/amplitud.ttf
837.130859375	n/a	WORD	857222	wordpools/wasnorm_wordpool_less_exclusions.txt	LTP339	ltpFR	3	4	1	HAMPER	682	n/a	0	1	0.412841796875	0.57763671875	upper	../fonts/amplitud.ttf
841.12890625	n/a	WORD	861316	wordpools/wasnorm_wordpool_less_exclusions.txt	LTP339	ltpFR	3	4	1	DESIGNER	451	n/a	1	1	0.412841796875	0.57763671875	upper	../fonts/amplitud.ttf
845.193359375	n/a	WORD	865478	wordpools/wasnorm_wordpool_less_exclusions.txt	LTP339	ltpFR	3	4	0	TOOTH	1481	n/a	0	0	0.5869140625	0.422607421875	lower	../fonts/zerothre.ttf
849.3740234375	n/a	WORD	869759	wordpools/wasnorm_wordpool_less_exclusions.txt	LTP339	ltpFR	3	4	0	PEPPER	1047	n/a	0	0	0.5869140625	0.422607421875	lower	../fonts/zerothre.ttf
853.505859375	n/a	WORD	873990	wordpools/wasnorm_wordpool_less_exclusions.txt	LTP339	ltpFR	3	4	0	CROCODILE	411	n/a	1	0	0.5869140625	0.422607421875	lower	../fonts/zerothre.ttf
857.353515625	n/a	WORD	877930	wordpools/wasnorm_wordpool_less_exclusions.txt	LTP339	ltpFR	3	4	0	ANIMAL	23	n/a	1	0	0.5869140625	0.422607421875	lower	../fonts/zerothre.ttf
863.267578125	n/a	REC_START	883986	n/a	LTP339	ltpFR	3	4	n/a	n/a	n/a	n/a	n/a	n/a	n/a	n/a	n/a	n/a
863.9462890625	n/a	REC_WORD	884681	wordpools/wasnorm_wordpool_less_exclusions.txt	LTP339	ltpFR	3	4	0	ANIMAL	23	n/a	1	n/a	n/a	n/a	n/a	n/a
864.5029296875	n/a	REC_WORD	885251	wordpools/wasnorm_wordpool_less_exclusions.txt	LTP339	ltpFR	3	4	0	CROCODILE	411	n/a	1	n/a	n/a	n/a	n/a	n/a
866.0419921875	n/a	REC_WORD	886827	wordpools/wasnorm_wordpool_less_exclusions.txt	LTP339	ltpFR	3	4	1	TOWEL	1489	n/a	0	n/a	n/a	n/a	n/a	n/a
866.8525390625	n/a	REC_WORD	887657	wordpools/wasnorm_wordpool_less_exclusions.txt	LTP339	ltpFR	3	4	n/a	QUAIL	1147	n/a	n/a	n/a	n/a	n/a	n/a	n/a
881.0830078125	n/a	REC_WORD	902229	wordpools/wasnorm_wordpool_less_exclusions.txt	LTP339	ltpFR	3	4	0	PEPPER	1047	n/a	0	n/a	n/a	n/a	n/a	n/a
883.3935546875	n/a	REC_WORD	904595	wordpools/wasnorm_wordpool_less_exclusions.txt	LTP339	ltpFR	3	4	1	POSSUM	1112	n/a	1	n/a	n/a	n/a	n/a	n/a
898.669921875	n/a	REC_WORD	920238	wordpools/wasnorm_wordpool_less_exclusions.txt	LTP339	ltpFR	3	4	1	HOOK	715	n/a	0	n/a	n/a	n/a	n/a	n/a
900.611328125	n/a	REC_WORD	922226	wordpools/wasnorm_wordpool_less_exclusions.txt	LTP339	ltpFR	3	4	1	DESIGNER	451	n/a	1	n/a	n/a	n/a	n/a	n/a
919.154296875	n/a	REC_WORD	941214	wordpools/wasnorm_wordpool_less_exclusions.txt	LTP339	ltpFR	3	4	0	ANIMAL	23	n/a	1	n/a	n/a	n/a	n/a	n/a
934.8798828125	n/a	REC_WORD	957317	wordpools/wasnorm_wordpool_less_exclusions.txt	LTP339	ltpFR	3	4	0	INFANT	737	n/a	0	n/a	n/a	n/a	n/a	n/a
941.861328125	n/a	WORD	964466	wordpools/wasnorm_wordpool_less_exclusions.txt	LTP339	ltpFR	3	5	0	ROOMMATE	1207	n/a	1	0	0.5869140625	0.422607421875	lower	../fonts/zerothre.ttf
945.8935546875	n/a	WORD	968595	wordpools/wasnorm_wordpool_less_exclusions.txt	LTP339	ltpFR	3	5	0	SOFA	1342	n/a	1	0	0.5869140625	0.422607421875	lower	../fonts/zerothre.ttf
949.7255859375	n/a	WORD	972519	wordpools/wasnorm_wordpool_less_exclusions.txt	LTP339	ltpFR	3	5	0	BULB	192	n/a	0	0	0.5869140625	0.422607421875	lower	../fonts/zerothre.ttf
953.65625	n/a	WORD	976544	wordpools/wasnorm_wordpool_less_exclusions.txt	LTP339	ltpFR	3	5	0	TORCH	1484	n/a	0	0	0.5869140625	0.422607421875	lower	../fonts/zerothre.ttf
957.8212890625	n/a	WORD	980809	wordpools/wasnorm_wordpool_less_exclusions.txt	LTP339	ltpFR	3	5	1	GRADUATE	653	n/a	1	1	0.412841796875	0.57763671875	upper	../fonts/amplitud.ttf
961.751953125	n/a	WORD	984834	wordpools/wasnorm_wordpool_less_exclusions.txt	LTP339	ltpFR	3	5	1	SPINE	1353	n/a	0	1	0.412841796875	0.57763671875	upper	../fonts/amplitud.ttf
965.701171875	n/a	WORD	988878	wordpools/wasnorm_wordpool_less_exclusions.txt	LTP339	ltpFR	3	5	1	LIEUTENANT	818	n/a	1	1	0.412841796875	0.57763671875	upper	../fonts/amplitud.ttf
969.8818359375	n/a	WORD	993159	wordpools/wasnorm_wordpool_less_exclusions.txt	LTP339	ltpFR	3	5	1	VISITOR	1573	n/a	1	1	0.412841796875	0.57763671875	upper	../fonts/amplitud.ttf
974.064453125	n/a	WORD	997442	wordpools/wasnorm_wordpool_less_exclusions.txt	LTP339	ltpFR	3	5	0	STOVE	1388	n/a	1	0	0.5869140625	0.422607421875	lower	../fonts/zerothre.ttf
978.162109375	n/a	WORD	1001638	wordpools/wasnorm_wordpool_less_exclusions.txt	LTP339	ltpFR	3	5	0	BRACES	164	n/a	0	0	0.5869140625	0.422607421875	lower	../fonts/zerothre.ttf
982.16015625	n/a	WORD	1005732	wordpools/wasnorm_wordpool_less_exclusions.txt	LTP339	ltpFR	3	5	1	SUN	1406	n/a	0	1	0.412841796875	0.57763671875	upper	../fonts/amplitud.ttf
986.375	n/a	WORD	1010048	wordpools/wasnorm_wordpool_less_exclusions.txt	LTP339	ltpFR	3	5	1	QUILT	1151	n/a	0	1	0.412841796875	0.57763671875	upper	../fonts/amplitud.ttf
990.2734375	n/a	WORD	1014040	wordpools/wasnorm_wordpool_less_exclusions.txt	LTP339	ltpFR	3	5	1	SPIT	1354	n/a	0	1	0.412841796875	0.57763671875	upper	../fonts/amplitud.ttf
994.48828125	n/a	WORD	1018356	wordpools/wasnorm_wordpool_less_exclusions.txt	LTP339	ltpFR	3	5	1	LOAF	835	n/a	0	1	0.412841796875	0.57763671875	upper	../fonts/amplitud.ttf
998.5859375	n/a	WORD	1022552	wordpools/wasnorm_wordpool_less_exclusions.txt	LTP339	ltpFR	3	5	0	SNAIL	1332	n/a	0	0	0.5869140625	0.422607421875	lower	../fonts/zerothre.ttf
1002.6005859375	n/a	WORD	1026663	wordpools/wasnorm_wordpool_less_exclusions.txt	LTP339	ltpFR	3	5	0	SLUG	1329	n/a	0	0	0.5869140625	0.422607421875	lower	../fonts/zerothre.ttf
1008.6318359375	n/a	REC_START	1032839	n/a	LTP339	ltpFR	3	5	n/a	n/a	n/a	n/a	n/a	n/a	n/a	n/a	n/a	n/a
1009.22265625	n/a	REC_WORD	1033444	wordpools/wasnorm_wordpool_less_exclusions.txt	LTP339	ltpFR	3	5	0	SNAIL	1332	n/a	0	n/a	n/a	n/a	n/a	n/a
1009.9462890625	n/a	REC_WORD	1034185	wordpools/wasnorm_wordpool_less_exclusions.txt	LTP339	ltpFR	3	5	0	SLUG	1329	n/a	0	n/a	n/a	n/a	n/a	n/a
1010.7783203125	n/a	REC_WORD	1035037	wordpools/wasnorm_wordpool_less_exclusions.txt	LTP339	ltpFR	3	5	1	QUILT	1151	n/a	0	n/a	n/a	n/a	n/a	n/a
1011.44140625	n/a	REC_WORD	1035716	wordpools/wasnorm_wordpool_less_exclusions.txt	LTP339	ltpFR	3	5	1	LOAF	835	n/a	0	n/a	n/a	n/a	n/a	n/a
1017.9111328125	n/a	REC_WORD_VV	1042341	wordpools/wasnorm_wordpool_less_exclusions.txt	LTP339	ltpFR	3	5	n/a	<>	-1	n/a	n/a	n/a	n/a	n/a	n/a	n/a
1046.462890625	n/a	REC_WORD_VV	1071578	wordpools/wasnorm_wordpool_less_exclusions.txt	LTP339	ltpFR	3	5	n/a	<>	-1	n/a	n/a	n/a	n/a	n/a	n/a	n/a
1059.2294921875	n/a	REC_WORD_VV	1084651	wordpools/wasnorm_wordpool_less_exclusions.txt	LTP339	ltpFR	3	5	n/a	<>	-1	n/a	n/a	n/a	n/a	n/a	n/a	n/a
1061.93359375	n/a	REC_WORD	1087420	wordpools/wasnorm_wordpool_less_exclusions.txt	LTP339	ltpFR	3	5	0	SOFA	1342	n/a	1	n/a	n/a	n/a	n/a	n/a
1079.9140625	n/a	REC_WORD	1105832	wordpools/wasnorm_wordpool_less_exclusions.txt	LTP339	ltpFR	3	5	0	BRACES	164	n/a	0	n/a	n/a	n/a	n/a	n/a
1088.8408203125	n/a	WORD	1114973	wordpools/wasnorm_wordpool_less_exclusions.txt	LTP339	ltpFR	3	6	0	UTENSIL	1542	n/a	0	0	0.5869140625	0.422607421875	lower	../fonts/zerothre.ttf
1092.7724609375	n/a	WORD	1118999	wordpools/wasnorm_wordpool_less_exclusions.txt	LTP339	ltpFR	3	6	0	FORK	594	n/a	0	0	0.5869140625	0.422607421875	lower	../fonts/zerothre.ttf
1096.904296875	n/a	WORD	1123230	wordpools/wasnorm_wordpool_less_exclusions.txt	LTP339	ltpFR	3	6	0	OX	994	n/a	1	0	0.5869140625	0.422607421875	lower	../fonts/zerothre.ttf
1100.751953125	n/a	WORD	1127170	wordpools/wasnorm_wordpool_less_exclusions.txt	LTP339	ltpFR	3	6	0	SHEEP	1278	n/a	1	0	0.5869140625	0.422607421875	lower	../fonts/zerothre.ttf
1104.7998046875	n/a	WORD	1131315	wordpools/wasnorm_wordpool_less_exclusions.txt	LTP339	ltpFR	3	6	0	SALAD	1224	n/a	0	0	0.5869140625	0.422607421875	lower	../fonts/zerothre.ttf
1108.8818359375	n/a	WORD	1135495	wordpools/wasnorm_wordpool_less_exclusions.txt	LTP339	ltpFR	3	6	0	BASEMENT	94	n/a	1	0	0.5869140625	0.422607421875	lower	../fonts/zerothre.ttf
1112.98046875	n/a	WORD	1139692	wordpools/wasnorm_wordpool_less_exclusions.txt	LTP339	ltpFR	3	6	0	SHEET	1279	n/a	1	0	0.5869140625	0.422607421875	lower	../fonts/zerothre.ttf
1116.9599609375	n/a	WORD	1143767	wordpools/wasnorm_wordpool_less_exclusions.txt	LTP339	ltpFR	3	6	0	COPIER	377	n/a	1	0	0.5869140625	0.422607421875	lower	../fonts/zerothre.ttf
1120.875	n/a	WORD	1147776	wordpools/wasnorm_wordpool_less_exclusions.txt	LTP339	ltpFR	3	6	0	PASTRY	1022	n/a	0	0	0.5869140625	0.422607421875	lower	../fonts/zerothre.ttf
1125.0908203125	n/a	WORD	1152093	wordpools/wasnorm_wordpool_less_exclusions.txt	LTP339	ltpFR	3	6	0	BLUEJAY	141	n/a	0	0	0.5869140625	0.422607421875	lower	../fonts/zerothre.ttf
1129.15625	n/a	WORD	1156256	wordpools/wasnorm_wordpool_less_exclusions.txt	LTP339	ltpFR	3	6	0	TAPIOCA	1434	n/a	0	0	0.5869140625	0.422607421875	lower	../fonts/zerothre.ttf
1133.1201171875	n/a	WORD	1160315	wordpools/wasnorm_wordpool_less_exclusions.txt	LTP339	ltpFR	3	6	0	BUTTERFLY	206	n/a	0	0	0.5869140625	0.422607421875	lower	../fonts/zerothre.ttf
1137.1015625	n/a	WORD	1164392	wordpools/wasnorm_wordpool_less_exclusions.txt	LTP339	ltpFR	3	6	0	FELLOW	558	n/a	1	0	0.5869140625	0.422607421875	lower	../fonts/zerothre.ttf
1141.0166015625	n/a	WORD	1168401	wordpools/wasnorm_wordpool_less_exclusions.txt	LTP339	ltpFR	3	6	0	QUAIL	1147	n/a	0	0	0.5869140625	0.422607421875	lower	../fonts/zerothre.ttf
1144.8466796875	n/a	WORD	1172323	wordpools/wasnorm_wordpool_less_exclusions.txt	LTP339	ltpFR	3	6	0	BLACKBERRY	132	n/a	0	0	0.5869140625	0.422607421875	lower	../fonts/zerothre.ttf
1148.7783203125	n/a	WORD	1176349	wordpools/wasnorm_wordpool_less_exclusions.txt	LTP339	ltpFR	3	6	0	CELLAR	267	n/a	1	0	0.5869140625	0.422607421875	lower	../fonts/zerothre.ttf
1154.4599609375	n/a	REC_START	1182167	n/a	LTP339	ltpFR	3	6	n/a	n/a	n/a	n/a	n/a	n/a	n/a	n/a	n/a	n/a
1154.900390625	n/a	REC_WORD	1182618	wordpools/wasnorm_wordpool_less_exclusions.txt	LTP339	ltpFR	3	6	0	CELLAR	267	n/a	1	n/a	n/a	n/a	n/a	n/a
1155.93359375	n/a	REC_WORD	1183676	wordpools/wasnorm_wordpool_less_exclusions.txt	LTP339	ltpFR	3	6	0	BASEMENT	94	n/a	1	n/a	n/a	n/a	n/a	n/a
1158.0400390625	n/a	REC_WORD	1185833	wordpools/wasnorm_wordpool_less_exclusions.txt	LTP339	ltpFR	3	6	0	FORK	594	n/a	0	n/a	n/a	n/a	n/a	n/a
1158.626953125	n/a	REC_WORD	1186434	wordpools/wasnorm_wordpool_less_exclusions.txt	LTP339	ltpFR	3	6	0	UTENSIL	1542	n/a	0	n/a	n/a	n/a	n/a	n/a
1233.720703125	n/a	WORD	1263330	wordpools/wasnorm_wordpool_less_exclusions.txt	LTP339	ltpFR	3	7	-1	HIKER	708	n/a	-1	1	1.0	1.0	upper	../fonts/Verdana.ttf
1237.6689453125	n/a	WORD	1267373	wordpools/wasnorm_wordpool_less_exclusions.txt	LTP339	ltpFR	3	7	-1	CLIMBER	323	n/a	-1	1	1.0	1.0	upper	../fonts/Verdana.ttf
1241.53515625	n/a	WORD	1271332	wordpools/wasnorm_wordpool_less_exclusions.txt	LTP339	ltpFR	3	7	-1	SCREEN	1253	n/a	-1	1	1.0	1.0	upper	../fonts/Verdana.ttf
1245.6982421875	n/a	WORD	1275595	wordpools/wasnorm_wordpool_less_exclusions.txt	LTP339	ltpFR	3	7	-1	TEAM	1441	n/a	-1	1	1.0	1.0	upper	../fonts/Verdana.ttf
1249.7294921875	n/a	WORD	1279723	wordpools/wasnorm_wordpool_less_exclusions.txt	LTP339	ltpFR	3	7	-1	ASSISTANT	48	n/a	-1	1	1.0	1.0	upper	../fonts/Verdana.ttf
1253.595703125	n/a	WORD	1283682	wordpools/wasnorm_wordpool_less_exclusions.txt	LTP339	ltpFR	3	7	-1	SPY	1360	n/a	-1	1	1.0	1.0	upper	../fonts/Verdana.ttf
1257.52734375	n/a	WORD	1287708	wordpools/wasnorm_wordpool_less_exclusions.txt	LTP339	ltpFR	3	7	-1	PUCK	1138	n/a	-1	1	1.0	1.0	upper	../fonts/Verdana.ttf
1261.3916015625	n/a	WORD	1291665	wordpools/wasnorm_wordpool_less_exclusions.txt	LTP339	ltpFR	3	7	-1	BERRY	122	n/a	-1	1	1.0	1.0	upper	../fonts/Verdana.ttf
1265.373046875	n/a	WORD	1295742	wordpools/wasnorm_wordpool_less_exclusions.txt	LTP339	ltpFR	3	7	-1	ROOM	1206	n/a	-1	1	1.0	1.0	upper	../fonts/Verdana.ttf
1269.3876953125	n/a	WORD	1299853	wordpools/wasnorm_wordpool_less_exclusions.txt	LTP339	ltpFR	3	7	-1	BATH	98	n/a	-1	1	1.0	1.0	upper	../fonts/Verdana.ttf
1273.2861328125	n/a	WORD	1303845	wordpools/wasnorm_wordpool_less_exclusions.txt	LTP339	ltpFR	3	7	-1	GROCERIES	663	n/a	-1	1	1.0	1.0	upper	../fonts/Verdana.ttf
1277.333984375	n/a	WORD	1307990	wordpools/wasnorm_wordpool_less_exclusions.txt	LTP339	ltpFR	3	7	-1	BEAR	106	n/a	-1	1	1.0	1.0	upper	../fonts/Verdana.ttf
1281.515625	n/a	WORD	1312272	wordpools/wasnorm_wordpool_less_exclusions.txt	LTP339	ltpFR	3	7	-1	PIER	1063	n/a	-1	1	1.0	1.0	upper	../fonts/Verdana.ttf
1285.728515625	n/a	WORD	1316586	wordpools/wasnorm_wordpool_less_exclusions.txt	LTP339	ltpFR	3	7	-1	MARINE	869	n/a	-1	1	1.0	1.0	upper	../fonts/Verdana.ttf
1289.66015625	n/a	WORD	1320612	wordpools/wasnorm_wordpool_less_exclusions.txt	LTP339	ltpFR	3	7	-1	PRUNE	1134	n/a	-1	1	1.0	1.0	upper	../fonts/Verdana.ttf
1293.54296875	n/a	WORD	1324588	wordpools/wasnorm_wordpool_less_exclusions.txt	LTP339	ltpFR	3	7	-1	IDOL	733	n/a	-1	1	1.0	1.0	upper	../fonts/Verdana.ttf
1299.2900390625	n/a	REC_START	1330473	n/a	LTP339	ltpFR	3	7	n/a	n/a	n/a	n/a	n/a	n/a	n/a	n/a	n/a	n/a
1299.7841796875	n/a	REC_WORD	1330979	wordpools/wasnorm_wordpool_less_exclusions.txt	LTP339	ltpFR	3	7	-1	PRUNE	1134	n/a	-1	n/a	n/a	n/a	n/a	n/a
1300.5302734375	n/a	REC_WORD	1331743	wordpools/wasnorm_wordpool_less_exclusions.txt	LTP339	ltpFR	3	7	-1	IDOL	733	n/a	-1	n/a	n/a	n/a	n/a	n/a
1300.92578125	n/a	REC_WORD	1332148	wordpools/wasnorm_wordpool_less_exclusions.txt	LTP339	ltpFR	3	7	-1	HIKER	708	n/a	-1	n/a	n/a	n/a	n/a	n/a
1301.525390625	n/a	REC_WORD	1332762	wordpools/wasnorm_wordpool_less_exclusions.txt	LTP339	ltpFR	3	7	-1	CLIMBER	323	n/a	-1	n/a	n/a	n/a	n/a	n/a
1302.50390625	n/a	REC_WORD	1333764	wordpools/wasnorm_wordpool_less_exclusions.txt	LTP339	ltpFR	3	7	-1	SCREEN	1253	n/a	-1	n/a	n/a	n/a	n/a	n/a
1303.4150390625	n/a	REC_WORD	1334697	wordpools/wasnorm_wordpool_less_exclusions.txt	LTP339	ltpFR	3	7	-1	ROOM	1206	n/a	-1	n/a	n/a	n/a	n/a	n/a
1341.6328125	n/a	REC_WORD	1373832	wordpools/wasnorm_wordpool_less_exclusions.txt	LTP339	ltpFR	3	7	-1	ASSISTANT	48	n/a	-1	n/a	n/a	n/a	n/a	n/a
1344.09375	n/a	REC_WORD	1376352	wordpools/wasnorm_wordpool_less_exclusions.txt	LTP339	ltpFR	3	7	n/a	FLY	586	n/a	n/a	n/a	n/a	n/a	n/a	n/a
1354.5361328125	n/a	REC_WORD	1387045	wordpools/wasnorm_wordpool_less_exclusions.txt	LTP339	ltpFR	3	7	-1	BERRY	122	n/a	-1	n/a	n/a	n/a	n/a	n/a
1361.4423828125	n/a	REC_WORD_VV	1394117	wordpools/wasnorm_wordpool_less_exclusions.txt	LTP339	ltpFR	3	7	n/a	<>	-1	n/a	n/a	n/a	n/a	n/a	n/a	n/a
1377.66796875	n/a	WORD	1410732	wordpools/wasnorm_wordpool_less_exclusions.txt	LTP339	ltpFR	3	8	-1	RUM	1217	n/a	-1	1	1.0	1.0	upper	../fonts/Verdana.ttf
1381.5341796875	n/a	WORD	1414691	wordpools/wasnorm_wordpool_less_exclusions.txt	LTP339	ltpFR	3	8	-1	VOLLEYBALL	1576	n/a	-1	1	1.0	1.0	upper	../fonts/Verdana.ttf
1385.4482421875	n/a	WORD	1418699	wordpools/wasnorm_wordpool_less_exclusions.txt	LTP339	ltpFR	3	8	-1	COMEDIAN	352	n/a	-1	1	1.0	1.0	upper	../fonts/Verdana.ttf
1389.36328125	n/a	WORD	1422708	wordpools/wasnorm_wordpool_less_exclusions.txt	LTP339	ltpFR	3	8	-1	CUBE	420	n/a	-1	1	1.0	1.0	upper	../fonts/Verdana.ttf
1393.376953125	n/a	WORD	1426818	wordpools/wasnorm_wordpool_less_exclusions.txt	LTP339	ltpFR	3	8	-1	JEANS	752	n/a	-1	1	1.0	1.0	upper	../fonts/Verdana.ttf
1397.359375	n/a	WORD	1430896	wordpools/wasnorm_wordpool_less_exclusions.txt	LTP339	ltpFR	3	8	-1	BLOUSE	139	n/a	-1	1	1.0	1.0	upper	../fonts/Verdana.ttf
1401.5400390625	n/a	WORD	1435177	wordpools/wasnorm_wordpool_less_exclusions.txt	LTP339	ltpFR	3	8	-1	DART	440	n/a	-1	1	1.0	1.0	upper	../fonts/Verdana.ttf
1405.572265625	n/a	WORD	1439306	wordpools/wasnorm_wordpool_less_exclusions.txt	LTP339	ltpFR	3	8	-1	PATRIOT	1026	n/a	-1	1	1.0	1.0	upper	../fonts/Verdana.ttf
1409.736328125	n/a	WORD	1443570	wordpools/wasnorm_wordpool_less_exclusions.txt	LTP339	ltpFR	3	8	-1	ZIPPER	1636	n/a	-1	1	1.0	1.0	upper	../fonts/Verdana.ttf
1413.7333984375	n/a	WORD	1447663	wordpools/wasnorm_wordpool_less_exclusions.txt	LTP339	ltpFR	3	8	-1	CUP	424	n/a	-1	1	1.0	1.0	upper	../fonts/Verdana.ttf
1417.6318359375	n/a	WORD	1451655	wordpools/wasnorm_wordpool_less_exclusions.txt	LTP339	ltpFR	3	8	-1	SAUCER	1237	n/a	-1	1	1.0	1.0	upper	../fonts/Verdana.ttf
1421.6142578125	n/a	WORD	1455733	wordpools/wasnorm_wordpool_less_exclusions.txt	LTP339	ltpFR	3	8	-1	TROUSERS	1510	n/a	-1	1	1.0	1.0	upper	../fonts/Verdana.ttf
1425.744140625	n/a	WORD	1459962	wordpools/wasnorm_wordpool_less_exclusions.txt	LTP339	ltpFR	3	8	-1	SWAMP	1416	n/a	-1	1	1.0	1.0	upper	../fonts/Verdana.ttf
1429.7421875	n/a	WORD	1464056	wordpools/wasnorm_wordpool_less_exclusions.txt	LTP339	ltpFR	3	8	-1	ALLIGATOR	16	n/a	-1	1	1.0	1.0	upper	../fonts/Verdana.ttf
1433.70703125	n/a	WORD	1468116	wordpools/wasnorm_wordpool_less_exclusions.txt	LTP339	ltpFR	3	8	-1	AWARD	63	n/a	-1	1	1.0	1.0	upper	../fonts/Verdana.ttf
1437.7724609375	n/a	WORD	1472279	wordpools/wasnorm_wordpool_less_exclusions.txt	LTP339	ltpFR	3	8	-1	COOLER	375	n/a	-1	1	1.0	1.0	upper	../fonts/Verdana.ttf
1443.736328125	n/a	REC_START	1478386	n/a	LTP339	ltpFR	3	8	n/a	n/a	n/a	n/a	n/a	n/a	n/a	n/a	n/a	n/a
1445.3310546875	n/a	REC_WORD	1480019	wordpools/wasnorm_wordpool_less_exclusions.txt	LTP339	ltpFR	3	8	-1	RUM	1217	n/a	-1	n/a	n/a	n/a	n/a	n/a
1446.1689453125	n/a	REC_WORD	1480877	wordpools/wasnorm_wordpool_less_exclusions.txt	LTP339	ltpFR	3	8	-1	VOLLEYBALL	1576	n/a	-1	n/a	n/a	n/a	n/a	n/a
1447.28125	n/a	REC_WORD	1482016	wordpools/wasnorm_wordpool_less_exclusions.txt	LTP339	ltpFR	3	8	-1	TROUSERS	1510	n/a	-1	n/a	n/a	n/a	n/a	n/a
1448.2607421875	n/a	REC_WORD	1483019	wordpools/wasnorm_wordpool_less_exclusions.txt	LTP339	ltpFR	3	8	-1	JEANS	752	n/a	-1	n/a	n/a	n/a	n/a	n/a
1453.39453125	n/a	REC_WORD	1488276	wordpools/wasnorm_wordpool_less_exclusions.txt	LTP339	ltpFR	3	8	-1	CUP	424	n/a	-1	n/a	n/a	n/a	n/a	n/a
1453.6591796875	n/a	REC_WORD	1488547	wordpools/wasnorm_wordpool_less_exclusions.txt	LTP339	ltpFR	3	8	-1	SAUCER	1237	n/a	-1	n/a	n/a	n/a	n/a	n/a
1456.6845703125	n/a	REC_WORD	1491645	wordpools/wasnorm_wordpool_less_exclusions.txt	LTP339	ltpFR	3	8	-1	ALLIGATOR	16	n/a	-1	n/a	n/a	n/a	n/a	n/a
1457.3193359375	n/a	REC_WORD	1492295	wordpools/wasnorm_wordpool_less_exclusions.txt	LTP339	ltpFR	3	8	-1	SWAMP	1416	n/a	-1	n/a	n/a	n/a	n/a	n/a
1481.97265625	n/a	REC_WORD	1517540	wordpools/wasnorm_wordpool_less_exclusions.txt	LTP339	ltpFR	3	8	-1	BLOUSE	139	n/a	-1	n/a	n/a	n/a	n/a	n/a
1482.78515625	n/a	REC_WORD	1518372	wordpools/wasnorm_wordpool_less_exclusions.txt	LTP339	ltpFR	3	8	-1	ZIPPER	1636	n/a	-1	n/a	n/a	n/a	n/a	n/a
1519.30078125	n/a	REST_REWET	1555764	n/a	LTP339	ltpFR	3	8	n/a	n/a	n/a	n/a	n/a	n/a	n/a	n/a	n/a	n/a
1621.7666015625	n/a	WORD	1660689	wordpools/wasnorm_wordpool_less_exclusions.txt	LTP339	ltpFR	3	9	0	COLT	349	n/a	n/a	0	0.5869140625	0.422607421875	lower	../fonts/zerothre.ttf
1624.7978515625	n/a	SLOW_MSG	1663793	n/a	LTP339	ltpFR	3	9	n/a	n/a	n/a	n/a	n/a	n/a	n/a	n/a	n/a	n/a
1627.2978515625	n/a	WORD	1666353	wordpools/wasnorm_wordpool_less_exclusions.txt	LTP339	ltpFR	3	9	0	VINE	1568	n/a	1	0	0.5869140625	0.422607421875	lower	../fonts/zerothre.ttf
1631.212890625	n/a	WORD	1670362	wordpools/wasnorm_wordpool_less_exclusions.txt	LTP339	ltpFR	3	9	0	SHERIFF	1284	n/a	1	0	0.5869140625	0.422607421875	lower	../fonts/zerothre.ttf
1635.41015625	n/a	WORD	1674660	wordpools/wasnorm_wordpool_less_exclusions.txt	LTP339	ltpFR	3	9	0	BARK	87	n/a	0	0	0.5869140625	0.422607421875	lower	../fonts/zerothre.ttf
1639.6240234375	n/a	WORD	1678975	wordpools/wasnorm_wordpool_less_exclusions.txt	LTP339	ltpFR	3	9	0	SHED	1277	n/a	1	0	0.5869140625	0.422607421875	lower	../fonts/zerothre.ttf
1643.47265625	n/a	WORD	1682916	wordpools/wasnorm_wordpool_less_exclusions.txt	LTP339	ltpFR	3	9	1	WALNUT	1584	n/a	0	1	0.412841796875	0.57763671875	upper	../fonts/amplitud.ttf
1647.5546875	n/a	WORD	1687096	wordpools/wasnorm_wordpool_less_exclusions.txt	LTP339	ltpFR	3	9	1	BRACELET	163	n/a	0	1	0.412841796875	0.57763671875	upper	../fonts/amplitud.ttf
1651.486328125	n/a	WORD	1691122	wordpools/wasnorm_wordpool_less_exclusions.txt	LTP339	ltpFR	3	9	1	LEG	809	n/a	0	1	0.412841796875	0.57763671875	upper	../fonts/amplitud.ttf
1655.5341796875	n/a	WORD	1695267	wordpools/wasnorm_wordpool_less_exclusions.txt	LTP339	ltpFR	3	9	1	PORT	1110	n/a	0	1	0.412841796875	0.57763671875	upper	../fonts/amplitud.ttf
1659.3994140625	n/a	WORD	1699225	wordpools/wasnorm_wordpool_less_exclusions.txt	LTP339	ltpFR	3	9	0	DINER	467	n/a	1	0	0.5869140625	0.422607421875	lower	../fonts/zerothre.ttf
1663.580078125	n/a	WORD	1703506	wordpools/wasnorm_wordpool_less_exclusions.txt	LTP339	ltpFR	3	9	0	TACK	1428	n/a	0	0	0.5869140625	0.422607421875	lower	../fonts/zerothre.ttf
1667.5283203125	n/a	WORD	1707549	wordpools/wasnorm_wordpool_less_exclusions.txt	LTP339	ltpFR	3	9	0	FINGER	567	n/a	0	0	0.5869140625	0.422607421875	lower	../fonts/zerothre.ttf
1671.6923828125	n/a	WORD	1711813	wordpools/wasnorm_wordpool_less_exclusions.txt	LTP339	ltpFR	3	9	1	ACORN	3	n/a	0	1	0.412841796875	0.57763671875	upper	../fonts/amplitud.ttf
1675.7900390625	n/a	WORD	1716009	wordpools/wasnorm_wordpool_less_exclusions.txt	LTP339	ltpFR	3	9	1	VIKING	1565	n/a	1	1	0.412841796875	0.57763671875	upper	../fonts/amplitud.ttf
1679.9208984375	n/a	WORD	1720239	wordpools/wasnorm_wordpool_less_exclusions.txt	LTP339	ltpFR	3	9	1	SKIN	1318	n/a	1	1	0.412841796875	0.57763671875	upper	../fonts/amplitud.ttf
1683.8359375	n/a	WORD	1724248	wordpools/wasnorm_wordpool_less_exclusions.txt	LTP339	ltpFR	3	9	1	OUTLAW	989	n/a	1	1	0.412841796875	0.57763671875	upper	../fonts/amplitud.ttf
1689.8837890625	n/a	REC_START	1730441	n/a	LTP339	ltpFR	3	9	n/a	n/a	n/a	n/a	n/a	n/a	n/a	n/a	n/a	n/a
1690.5419921875	n/a	REC_WORD	1731115	wordpools/wasnorm_wordpool_less_exclusions.txt	LTP339	ltpFR	3	9	0	COLT	349	n/a	n/a	n/a	n/a	n/a	n/a	n/a
1691.212890625	n/a	REC_WORD	1731802	wordpools/wasnorm_wordpool_less_exclusions.txt	LTP339	ltpFR	3	9	0	VINE	1568	n/a	1	n/a	n/a	n/a	n/a	n/a
1691.7470703125	n/a	REC_WORD	1732349	wordpools/wasnorm_wordpool_less_exclusions.txt	LTP339	ltpFR	3	9	0	SHERIFF	1284	n/a	1	n/a	n/a	n/a	n/a	n/a
1692.7353515625	n/a	REC_WORD	1733361	wordpools/wasnorm_wordpool_less_exclusions.txt	LTP339	ltpFR	3	9	0	BARK	87	n/a	0	n/a	n/a	n/a	n/a	n/a
1693.59765625	n/a	REC_WORD	1734244	wordpools/wasnorm_wordpool_less_exclusions.txt	LTP339	ltpFR	3	9	1	SKIN	1318	n/a	1	n/a	n/a	n/a	n/a	n/a
1694.3408203125	n/a	REC_WORD	1735005	wordpools/wasnorm_wordpool_less_exclusions.txt	LTP339	ltpFR	3	9	1	LEG	809	n/a	0	n/a	n/a	n/a	n/a	n/a
1694.90625	n/a	REC_WORD	1735584	wordpools/wasnorm_wordpool_less_exclusions.txt	LTP339	ltpFR	3	9	1	OUTLAW	989	n/a	1	n/a	n/a	n/a	n/a	n/a
1698.2998046875	n/a	REC_WORD	1739059	wordpools/wasnorm_wordpool_less_exclusions.txt	LTP339	ltpFR	3	9	0	FINGER	567	n/a	0	n/a	n/a	n/a	n/a	n/a
1768.6787109375	n/a	WORD	1811127	wordpools/wasnorm_wordpool_less_exclusions.txt	LTP339	ltpFR	3	10	0	MARROW	872	n/a	0	0	0.5869140625	0.422607421875	lower	../fonts/zerothre.ttf
1772.52734375	n/a	WORD	1815068	wordpools/wasnorm_wordpool_less_exclusions.txt	LTP339	ltpFR	3	10	0	COUNTRY	388	n/a	0	0	0.5869140625	0.422607421875	lower	../fonts/zerothre.ttf
1776.359375	n/a	WORD	1818992	wordpools/wasnorm_wordpool_less_exclusions.txt	LTP339	ltpFR	3	10	0	VILLAGE	1566	n/a	1	0	0.5869140625	0.422607421875	lower	../fonts/zerothre.ttf
1780.33984375	n/a	WORD	1823068	wordpools/wasnorm_wordpool_less_exclusions.txt	LTP339	ltpFR	3	10	0	KNEE	784	n/a	0	0	0.5869140625	0.422607421875	lower	../fonts/zerothre.ttf
1784.205078125	n/a	WORD	1827026	wordpools/wasnorm_wordpool_less_exclusions.txt	LTP339	ltpFR	3	10	0	SAW	1239	n/a	0	0	0.5869140625	0.422607421875	lower	../fonts/zerothre.ttf
1788.0703125	n/a	WORD	1830984	wordpools/wasnorm_wordpool_less_exclusions.txt	LTP339	ltpFR	3	10	0	DIAMOND	458	n/a	0	0	0.5869140625	0.422607421875	lower	../fonts/zerothre.ttf
1791.93359375	n/a	WORD	1834940	wordpools/wasnorm_wordpool_less_exclusions.txt	LTP339	ltpFR	3	10	0	CHEST	295	n/a	1	0	0.5869140625	0.422607421875	lower	../fonts/zerothre.ttf
1795.8984375	n/a	WORD	1839000	wordpools/wasnorm_wordpool_less_exclusions.txt	LTP339	ltpFR	3	10	0	WAND	1586	n/a	0	0	0.5869140625	0.422607421875	lower	../fonts/zerothre.ttf
1799.9462890625	n/a	WORD	1843145	wordpools/wasnorm_wordpool_less_exclusions.txt	LTP339	ltpFR	3	10	0	GRATE	657	n/a	1	0	0.5869140625	0.422607421875	lower	../fonts/zerothre.ttf
1804.0625	n/a	WORD	1847360	wordpools/wasnorm_wordpool_less_exclusions.txt	LTP339	ltpFR	3	10	0	TOAST	1471	n/a	0	0	0.5869140625	0.422607421875	lower	../fonts/zerothre.ttf
1808.2431640625	n/a	WORD	1851641	wordpools/wasnorm_wordpool_less_exclusions.txt	LTP339	ltpFR	3	10	0	MAGICIAN	854	n/a	1	0	0.5869140625	0.422607421875	lower	../fonts/zerothre.ttf
1812.30859375	n/a	WORD	1855804	wordpools/wasnorm_wordpool_less_exclusions.txt	LTP339	ltpFR	3	10	0	COTTAGE	384	n/a	1	0	0.5869140625	0.422607421875	lower	../fonts/zerothre.ttf
1816.1904296875	n/a	WORD	1859779	wordpools/wasnorm_wordpool_less_exclusions.txt	LTP339	ltpFR	3	10	0	TAPE	1433	n/a	0	0	0.5869140625	0.422607421875	lower	../fonts/zerothre.ttf
1820.1552734375	n/a	WORD	1863839	wordpools/wasnorm_wordpool_less_exclusions.txt	LTP339	ltpFR	3	10	0	CONCERT	360	n/a	1	0	0.5869140625	0.422607421875	lower	../fonts/zerothre.ttf
1824.169921875	n/a	WORD	1867950	wordpools/wasnorm_wordpool_less_exclusions.txt	LTP339	ltpFR	3	10	0	ROOF	1205	n/a	1	0	0.5869140625	0.422607421875	lower	../fonts/zerothre.ttf
1828.3505859375	n/a	WORD	1872231	wordpools/wasnorm_wordpool_less_exclusions.txt	LTP339	ltpFR	3	10	0	SIDING	1304	n/a	1	0	0.5869140625	0.422607421875	lower	../fonts/zerothre.ttf
1833.9814453125	n/a	REC_START	1877997	n/a	LTP339	ltpFR	3	10	n/a	n/a	n/a	n/a	n/a	n/a	n/a	n/a	n/a	n/a
1834.65625	n/a	REC_WORD	1878688	wordpools/wasnorm_wordpool_less_exclusions.txt	LTP339	ltpFR	3	10	0	MARROW	872	n/a	0	n/a	n/a	n/a	n/a	n/a
1835.3798828125	n/a	REC_WORD	1879429	wordpools/wasnorm_wordpool_less_exclusions.txt	LTP339	ltpFR	3	10	0	COUNTRY	388	n/a	0	n/a	n/a	n/a	n/a	n/a
1836.017578125	n/a	REC_WORD	1880082	wordpools/wasnorm_wordpool_less_exclusions.txt	LTP339	ltpFR	3	10	0	VILLAGE	1566	n/a	1	n/a	n/a	n/a	n/a	n/a
1836.7119140625	n/a	REC_WORD	1880793	wordpools/wasnorm_wordpool_less_exclusions.txt	LTP339	ltpFR	3	10	0	KNEE	784	n/a	0	n/a	n/a	n/a	n/a	n/a
1837.35546875	n/a	REC_WORD	1881452	wordpools/wasnorm_wordpool_less_exclusions.txt	LTP339	ltpFR	3	10	0	SAW	1239	n/a	0	n/a	n/a	n/a	n/a	n/a
1840.90234375	n/a	REC_WORD	1885084	wordpools/wasnorm_wordpool_less_exclusions.txt	LTP339	ltpFR	3	10	0	COTTAGE	384	n/a	1	n/a	n/a	n/a	n/a	n/a
1847.3125	n/a	REC_WORD	1891648	wordpools/wasnorm_wordpool_less_exclusions.txt	LTP339	ltpFR	3	10	0	CHEST	295	n/a	1	n/a	n/a	n/a	n/a	n/a
1895.462890625	n/a	REC_WORD	1940954	wordpools/wasnorm_wordpool_less_exclusions.txt	LTP339	ltpFR	3	10	0	MAGICIAN	854	n/a	1	n/a	n/a	n/a	n/a	n/a
1905.830078125	n/a	REC_WORD	1951570	wordpools/wasnorm_wordpool_less_exclusions.txt	LTP339	ltpFR	3	10	1	ACORN	3	n/a	0	n/a	n/a	n/a	n/a	n/a
1912.9765625	n/a	WORD	1958888	wordpools/wasnorm_wordpool_less_exclusions.txt	LTP339	ltpFR	3	11	-1	BUCKLE	185	n/a	-1	1	1.0	1.0	upper	../fonts/Verdana.ttf
1916.9912109375	n/a	WORD	1962999	wordpools/wasnorm_wordpool_less_exclusions.txt	LTP339	ltpFR	3	11	-1	SHOELACE	1289	n/a	-1	1	1.0	1.0	upper	../fonts/Verdana.ttf
1920.921875	n/a	WORD	1967024	wordpools/wasnorm_wordpool_less_exclusions.txt	LTP339	ltpFR	3	11	-1	SEED	1266	n/a	-1	1	1.0	1.0	upper	../fonts/Verdana.ttf
1924.7861328125	n/a	WORD	1970981	wordpools/wasnorm_wordpool_less_exclusions.txt	LTP339	ltpFR	3	11	-1	HONEY	713	n/a	-1	1	1.0	1.0	upper	../fonts/Verdana.ttf
1928.951171875	n/a	WORD	1975246	wordpools/wasnorm_wordpool_less_exclusions.txt	LTP339	ltpFR	3	11	-1	FLESH	579	n/a	-1	1	1.0	1.0	upper	../fonts/Verdana.ttf
1932.8486328125	n/a	WORD	1979237	wordpools/wasnorm_wordpool_less_exclusions.txt	LTP339	ltpFR	3	11	-1	DEPARTMENT	449	n/a	-1	1	1.0	1.0	upper	../fonts/Verdana.ttf
1936.9306640625	n/a	WORD	1983417	wordpools/wasnorm_wordpool_less_exclusions.txt	LTP339	ltpFR	3	11	-1	TYPIST	1532	n/a	-1	1	1.0	1.0	upper	../fonts/Verdana.ttf
1940.87890625	n/a	WORD	1987460	wordpools/wasnorm_wordpool_less_exclusions.txt	LTP339	ltpFR	3	11	-1	BINDER	127	n/a	-1	1	1.0	1.0	upper	../fonts/Verdana.ttf
1944.943359375	n/a	WORD	1991622	wordpools/wasnorm_wordpool_less_exclusions.txt	LTP339	ltpFR	3	11	-1	WRITER	1627	n/a	-1	1	1.0	1.0	upper	../fonts/Verdana.ttf
1949.0419921875	n/a	WORD	1995819	wordpools/wasnorm_wordpool_less_exclusions.txt	LTP339	ltpFR	3	11	-1	BEE	112	n/a	-1	1	1.0	1.0	upper	../fonts/Verdana.ttf
1953.107421875	n/a	WORD	1999982	wordpools/wasnorm_wordpool_less_exclusions.txt	LTP339	ltpFR	3	11	-1	PASSENGER	1020	n/a	-1	1	1.0	1.0	upper	../fonts/Verdana.ttf
1957.2548828125	n/a	WORD	2004229	wordpools/wasnorm_wordpool_less_exclusions.txt	LTP339	ltpFR	3	11	-1	VAMPIRE	1547	n/a	-1	1	1.0	1.0	upper	../fonts/Verdana.ttf
1961.26953125	n/a	WORD	2008340	wordpools/wasnorm_wordpool_less_exclusions.txt	LTP339	ltpFR	3	11	-1	ACTOR	5	n/a	-1	1	1.0	1.0	upper	../fonts/Verdana.ttf
1965.267578125	n/a	WORD	2012434	wordpools/wasnorm_wordpool_less_exclusions.txt	LTP339	ltpFR	3	11	-1	HORNET	718	n/a	-1	1	1.0	1.0	upper	../fonts/Verdana.ttf
1969.4658203125	n/a	WORD	2016733	wordpools/wasnorm_wordpool_less_exclusions.txt	LTP339	ltpFR	3	11	-1	RAIL	1161	n/a	-1	1	1.0	1.0	upper	../fonts/Verdana.ttf
1973.5478515625	n/a	WORD	2020913	wordpools/wasnorm_wordpool_less_exclusions.txt	LTP339	ltpFR	3	11	-1	MIRROR	899	n/a	-1	1	1.0	1.0	upper	../fonts/Verdana.ttf
1979.4951171875	n/a	REC_START	2027003	n/a	LTP339	ltpFR	3	11	n/a	n/a	n/a	n/a	n/a	n/a	n/a	n/a	n/a	n/a
1979.826171875	n/a	REC_WORD	2027342	wordpools/wasnorm_wordpool_less_exclusions.txt	LTP339	ltpFR	3	11	0	SIDING	1304	n/a	1	n/a	n/a	n/a	n/a	n/a
1980.5751953125	n/a	REC_WORD	2028109	wordpools/wasnorm_wordpool_less_exclusions.txt	LTP339	ltpFR	3	11	n/a	RAILING	-1	n/a	n/a	n/a	n/a	n/a	n/a	n/a
1981.2900390625	n/a	REC_WORD	2028841	wordpools/wasnorm_wordpool_less_exclusions.txt	LTP339	ltpFR	3	11	-1	BEE	112	n/a	-1	n/a	n/a	n/a	n/a	n/a
1982.0400390625	n/a	REC_WORD	2029609	wordpools/wasnorm_wordpool_less_exclusions.txt	LTP339	ltpFR	3	11	-1	HORNET	718	n/a	-1	n/a	n/a	n/a	n/a	n/a
1983.0634765625	n/a	REC_WORD	2030657	wordpools/wasnorm_wordpool_less_exclusions.txt	LTP339	ltpFR	3	11	-1	HONEY	713	n/a	-1	n/a	n/a	n/a	n/a	n/a
1983.9814453125	n/a	REC_WORD	2031597	wordpools/wasnorm_wordpool_less_exclusions.txt	LTP339	ltpFR	3	11	-1	SHOELACE	1289	n/a	-1	n/a	n/a	n/a	n/a	n/a
1987.767578125	n/a	REC_WORD	2035474	wordpools/wasnorm_wordpool_less_exclusions.txt	LTP339	ltpFR	3	11	-1	DEPARTMENT	449	n/a	-1	n/a	n/a	n/a	n/a	n/a
1997.0029296875	n/a	REC_WORD	2044931	wordpools/wasnorm_wordpool_less_exclusions.txt	LTP339	ltpFR	3	11	-1	BUCKLE	185	n/a	-1	n/a	n/a	n/a	n/a	n/a
2006.6162109375	n/a	REC_WORD	2054775	wordpools/wasnorm_wordpool_less_exclusions.txt	LTP339	ltpFR	3	11	-1	SEED	1266	n/a	-1	n/a	n/a	n/a	n/a	n/a
2014.1474609375	n/a	REC_WORD	2062487	wordpools/wasnorm_wordpool_less_exclusions.txt	LTP339	ltpFR	3	11	-1	ACTOR	5	n/a	-1	n/a	n/a	n/a	n/a	n/a
2026.833984375	n/a	REC_WORD	2075478	wordpools/wasnorm_wordpool_less_exclusions.txt	LTP339	ltpFR	3	11	0	SIDING	1304	n/a	1	n/a	n/a	n/a	n/a	n/a
2027.4423828125	n/a	REC_WORD	2076101	wordpools/wasnorm_wordpool_less_exclusions.txt	LTP339	ltpFR	3	11	n/a	RAILING	-1	n/a	n/a	n/a	n/a	n/a	n/a	n/a
2057.85546875	n/a	WORD	2107244	wordpools/wasnorm_wordpool_less_exclusions.txt	LTP339	ltpFR	3	12	0	TIDE	1465	n/a	1	0	0.5869140625	0.422607421875	lower	../fonts/zerothre.ttf
2062.0712890625	n/a	WORD	2111561	wordpools/wasnorm_wordpool_less_exclusions.txt	LTP339	ltpFR	3	12	0	GLASSES	640	n/a	1	0	0.5869140625	0.422607421875	lower	../fonts/zerothre.ttf
2066.2861328125	n/a	WORD	2115877	wordpools/wasnorm_wordpool_less_exclusions.txt	LTP339	ltpFR	3	12	0	FLOWER	584	n/a	1	0	0.5869140625	0.422607421875	lower	../fonts/zerothre.ttf
2070.1171875	n/a	WORD	2119800	wordpools/wasnorm_wordpool_less_exclusions.txt	LTP339	ltpFR	3	12	0	WILDERNESS	1610	n/a	n/a	0	0.5869140625	0.422607421875	lower	../fonts/zerothre.ttf
2073.1484375	n/a	SLOW_MSG	2122904	n/a	LTP339	ltpFR	3	12	n/a	n/a	n/a	n/a	n/a	n/a	n/a	n/a	n/a	n/a
2075.779296875	n/a	WORD	2125598	wordpools/wasnorm_wordpool_less_exclusions.txt	LTP339	ltpFR	3	12	0	ELM	527	n/a	1	0	0.5869140625	0.422607421875	lower	../fonts/zerothre.ttf
2079.89453125	n/a	WORD	2129812	wordpools/wasnorm_wordpool_less_exclusions.txt	LTP339	ltpFR	3	12	0	SCALPEL	1243	n/a	0	0	0.5869140625	0.422607421875	lower	../fonts/zerothre.ttf
2084.09375	n/a	WORD	2134112	wordpools/wasnorm_wordpool_less_exclusions.txt	LTP339	ltpFR	3	12	0	STAKE	1368	n/a	1	0	0.5869140625	0.422607421875	lower	../fonts/zerothre.ttf
2088.2578125	n/a	WORD	2138376	wordpools/wasnorm_wordpool_less_exclusions.txt	LTP339	ltpFR	3	12	0	CONTRACT	368	n/a	1	0	0.5869140625	0.422607421875	lower	../fonts/zerothre.ttf
2092.08984375	n/a	WORD	2142300	wordpools/wasnorm_wordpool_less_exclusions.txt	LTP339	ltpFR	3	12	0	SURF	1412	n/a	0	0	0.5869140625	0.422607421875	lower	../fonts/zerothre.ttf
2096.1044921875	n/a	WORD	2146411	wordpools/wasnorm_wordpool_less_exclusions.txt	LTP339	ltpFR	3	12	0	DISC	473	n/a	0	0	0.5869140625	0.422607421875	lower	../fonts/zerothre.ttf
2100.0029296875	n/a	WORD	2150403	wordpools/wasnorm_wordpool_less_exclusions.txt	LTP339	ltpFR	3	12	0	COMPUTER	359	n/a	1	0	0.5869140625	0.422607421875	lower	../fonts/zerothre.ttf
2104.18359375	n/a	WORD	2154684	wordpools/wasnorm_wordpool_less_exclusions.txt	LTP339	ltpFR	3	12	0	LIST	830	n/a	0	0	0.5869140625	0.422607421875	lower	../fonts/zerothre.ttf
2108.0986328125	n/a	WORD	2158693	wordpools/wasnorm_wordpool_less_exclusions.txt	LTP339	ltpFR	3	12	0	WORM	1623	n/a	0	0	0.5869140625	0.422607421875	lower	../fonts/zerothre.ttf
2112.11328125	n/a	WORD	2162804	wordpools/wasnorm_wordpool_less_exclusions.txt	LTP339	ltpFR	3	12	0	POLE	1097	n/a	0	0	0.5869140625	0.422607421875	lower	../fonts/zerothre.ttf
2116.078125	n/a	WORD	2166864	wordpools/wasnorm_wordpool_less_exclusions.txt	LTP339	ltpFR	3	12	0	PUBLISHER	1137	n/a	0	0	0.5869140625	0.422607421875	lower	../fonts/zerothre.ttf
2119.908203125	n/a	WORD	2170786	wordpools/wasnorm_wordpool_less_exclusions.txt	LTP339	ltpFR	3	12	0	RAZOR	1171	n/a	0	0	0.5869140625	0.422607421875	lower	../fonts/zerothre.ttf
2125.8056640625	n/a	REC_START	2176825	n/a	LTP339	ltpFR	3	12	n/a	n/a	n/a	n/a	n/a	n/a	n/a	n/a	n/a	n/a
2126.30859375	n/a	REC_WORD	2177340	wordpools/wasnorm_wordpool_less_exclusions.txt	LTP339	ltpFR	3	12	0	TIDE	1465	n/a	1	n/a	n/a	n/a	n/a	n/a
2126.974609375	n/a	REC_WORD	2178022	wordpools/wasnorm_wordpool_less_exclusions.txt	LTP339	ltpFR	3	12	0	GLASSES	640	n/a	1	n/a	n/a	n/a	n/a	n/a
2127.67578125	n/a	REC_WORD	2178740	wordpools/wasnorm_wordpool_less_exclusions.txt	LTP339	ltpFR	3	12	0	WILDERNESS	1610	n/a	n/a	n/a	n/a	n/a	n/a	n/a
2128.4716796875	n/a	REC_WORD	2179555	wordpools/wasnorm_wordpool_less_exclusions.txt	LTP339	ltpFR	3	12	0	ELM	527	n/a	1	n/a	n/a	n/a	n/a	n/a
2129.6748046875	n/a	REC_WORD	2180787	wordpools/wasnorm_wordpool_less_exclusions.txt	LTP339	ltpFR	3	12	0	STAKE	1368	n/a	1	n/a	n/a	n/a	n/a	n/a
2130.7548828125	n/a	REC_WORD	2181893	wordpools/wasnorm_wordpool_less_exclusions.txt	LTP339	ltpFR	3	12	0	RAZOR	1171	n/a	0	n/a	n/a	n/a	n/a	n/a
2147.0869140625	n/a	REC_WORD	2198617	wordpools/wasnorm_wordpool_less_exclusions.txt	LTP339	ltpFR	3	12	0	SURF	1412	n/a	0	n/a	n/a	n/a	n/a	n/a
2172.8564453125	n/a	REC_WORD	2225005	wordpools/wasnorm_wordpool_less_exclusions.txt	LTP339	ltpFR	3	12	-1	TYPIST	1532	n/a	-1	n/a	n/a	n/a	n/a	n/a
2205.517578125	n/a	WORD	2258450	wordpools/wasnorm_wordpool_less_exclusions.txt	LTP339	ltpFR	3	13	1	DOCK	477	n/a	0	1	0.412841796875	0.57763671875	upper	../fonts/amplitud.ttf
2209.681640625	n/a	WORD	2262714	wordpools/wasnorm_wordpool_less_exclusions.txt	LTP339	ltpFR	3	13	1	MAJOR	859	n/a	0	1	0.412841796875	0.57763671875	upper	../fonts/amplitud.ttf
2213.5146484375	n/a	WORD	2266639	wordpools/wasnorm_wordpool_less_exclusions.txt	LTP339	ltpFR	3	13	1	GOOSE	649	n/a	1	1	0.412841796875	0.57763671875	upper	../fonts/amplitud.ttf
2217.5126953125	n/a	WORD	2270733	wordpools/wasnorm_wordpool_less_exclusions.txt	LTP339	ltpFR	3	13	1	COTTON	385	n/a	0	1	0.412841796875	0.57763671875	upper	../fonts/amplitud.ttf
2221.494140625	n/a	WORD	2274810	wordpools/wasnorm_wordpool_less_exclusions.txt	LTP339	ltpFR	3	13	1	COMMANDER	354	n/a	1	1	0.412841796875	0.57763671875	upper	../fonts/amplitud.ttf
2225.5419921875	n/a	WORD	2278955	wordpools/wasnorm_wordpool_less_exclusions.txt	LTP339	ltpFR	3	13	1	BROOK	177	n/a	0	1	0.412841796875	0.57763671875	upper	../fonts/amplitud.ttf
2229.638671875	n/a	WORD	2283150	wordpools/wasnorm_wordpool_less_exclusions.txt	LTP339	ltpFR	3	13	1	COMMITTEE	355	n/a	0	1	0.412841796875	0.57763671875	upper	../fonts/amplitud.ttf
2233.76953125	n/a	WORD	2287380	wordpools/wasnorm_wordpool_less_exclusions.txt	LTP339	ltpFR	3	13	1	ATOM	55	n/a	0	1	0.412841796875	0.57763671875	upper	../fonts/amplitud.ttf
2237.734375	n/a	WORD	2291440	wordpools/wasnorm_wordpool_less_exclusions.txt	LTP339	ltpFR	3	13	1	SWIMMER	1420	n/a	1	1	0.412841796875	0.57763671875	upper	../fonts/amplitud.ttf
2241.7001953125	n/a	WORD	2295501	wordpools/wasnorm_wordpool_less_exclusions.txt	LTP339	ltpFR	3	13	1	CARDINAL	244	n/a	1	1	0.412841796875	0.57763671875	upper	../fonts/amplitud.ttf
2245.548828125	n/a	WORD	2299442	wordpools/wasnorm_wordpool_less_exclusions.txt	LTP339	ltpFR	3	13	1	PREACHER	1119	n/a	1	1	0.412841796875	0.57763671875	upper	../fonts/amplitud.ttf
2249.396484375	n/a	WORD	2303382	wordpools/wasnorm_wordpool_less_exclusions.txt	LTP339	ltpFR	3	13	1	GUARD	667	n/a	1	1	0.412841796875	0.57763671875	upper	../fonts/amplitud.ttf
2253.4609375	n/a	WORD	2307544	wordpools/wasnorm_wordpool_less_exclusions.txt	LTP339	ltpFR	3	13	1	DEPUTY	450	n/a	1	1	0.412841796875	0.57763671875	upper	../fonts/amplitud.ttf
2257.625	n/a	WORD	2311808	wordpools/wasnorm_wordpool_less_exclusions.txt	LTP339	ltpFR	3	13	1	GAVEL	627	n/a	0	1	0.412841796875	0.57763671875	upper	../fonts/amplitud.ttf
2261.8232421875	n/a	WORD	2316107	wordpools/wasnorm_wordpool_less_exclusions.txt	LTP339	ltpFR	3	13	1	LAWYER	806	n/a	1	1	0.412841796875	0.57763671875	upper	../fonts/amplitud.ttf
2265.9560546875	n/a	WORD	2320339	wordpools/wasnorm_wordpool_less_exclusions.txt	LTP339	ltpFR	3	13	1	COURSE	390	n/a	0	1	0.412841796875	0.57763671875	upper	../fonts/amplitud.ttf
2271.935546875	n/a	REC_START	2326462	n/a	LTP339	ltpFR	3	13	n/a	n/a	n/a	n/a	n/a	n/a	n/a	n/a	n/a	n/a
2272.365234375	n/a	REC_WORD	2326902	wordpools/wasnorm_wordpool_less_exclusions.txt	LTP339	ltpFR	3	13	1	LAWYER	806	n/a	1	n/a	n/a	n/a	n/a	n/a
2273.005859375	n/a	REC_WORD	2327558	wordpools/wasnorm_wordpool_less_exclusions.txt	LTP339	ltpFR	3	13	1	COURSE	390	n/a	0	n/a	n/a	n/a	n/a	n/a
2273.8173828125	n/a	REC_WORD	2328389	wordpools/wasnorm_wordpool_less_exclusions.txt	LTP339	ltpFR	3	13	1	DOCK	477	n/a	0	n/a	n/a	n/a	n/a	n/a
2274.3359375	n/a	REC_WORD	2328920	wordpools/wasnorm_wordpool_less_exclusions.txt	LTP339	ltpFR	3	13	1	MAJOR	859	n/a	0	n/a	n/a	n/a	n/a	n/a
2275.080078125	n/a	REC_WORD	2329682	wordpools/wasnorm_wordpool_less_exclusions.txt	LTP339	ltpFR	3	13	1	GOOSE	649	n/a	1	n/a	n/a	n/a	n/a	n/a
2275.7216796875	n/a	REC_WORD	2330339	wordpools/wasnorm_wordpool_less_exclusions.txt	LTP339	ltpFR	3	13	1	ATOM	55	n/a	0	n/a	n/a	n/a	n/a	n/a
2293.916015625	n/a	REC_WORD	2348970	wordpools/wasnorm_wordpool_less_exclusions.txt	LTP339	ltpFR	3	13	1	PREACHER	1119	n/a	1	n/a	n/a	n/a	n/a	n/a
2307.3916015625	n/a	REC_WORD	2362769	wordpools/wasnorm_wordpool_less_exclusions.txt	LTP339	ltpFR	3	13	1	SWIMMER	1420	n/a	1	n/a	n/a	n/a	n/a	n/a
2335.12890625	n/a	REC_WORD	2391172	wordpools/wasnorm_wordpool_less_exclusions.txt	LTP339	ltpFR	3	13	1	COMMANDER	354	n/a	1	n/a	n/a	n/a	n/a	n/a
2351.46484375	n/a	WORD	2407900	wordpools/wasnorm_wordpool_less_exclusions.txt	LTP339	ltpFR	3	14	1	LEOPARD	812	n/a	1	1	0.412841796875	0.57763671875	upper	../fonts/amplitud.ttf
2355.3955078125	n/a	WORD	2411925	wordpools/wasnorm_wordpool_less_exclusions.txt	LTP339	ltpFR	3	14	1	CEREAL	272	n/a	0	1	0.412841796875	0.57763671875	upper	../fonts/amplitud.ttf
2359.5771484375	n/a	WORD	2416207	wordpools/wasnorm_wordpool_less_exclusions.txt	LTP339	ltpFR	3	14	1	ROPE	1211	n/a	0	1	0.412841796875	0.57763671875	upper	../fonts/amplitud.ttf
2363.607421875	n/a	WORD	2420334	wordpools/wasnorm_wordpool_less_exclusions.txt	LTP339	ltpFR	3	14	1	NECK	939	n/a	1	1	0.412841796875	0.57763671875	upper	../fonts/amplitud.ttf
2367.60546875	n/a	WORD	2424428	wordpools/wasnorm_wordpool_less_exclusions.txt	LTP339	ltpFR	3	14	1	MOB	904	n/a	1	1	0.412841796875	0.57763671875	upper	../fonts/amplitud.ttf
2371.76953125	n/a	WORD	2428692	wordpools/wasnorm_wordpool_less_exclusions.txt	LTP339	ltpFR	3	14	1	AUDIENCE	59	n/a	1	1	0.412841796875	0.57763671875	upper	../fonts/amplitud.ttf
2375.7177734375	n/a	WORD	2432735	wordpools/wasnorm_wordpool_less_exclusions.txt	LTP339	ltpFR	3	14	1	MARKER	870	n/a	0	1	0.412841796875	0.57763671875	upper	../fonts/amplitud.ttf
2379.583984375	n/a	WORD	2436694	wordpools/wasnorm_wordpool_less_exclusions.txt	LTP339	ltpFR	3	14	1	BUILDING	191	n/a	0	1	0.412841796875	0.57763671875	upper	../fonts/amplitud.ttf
2383.6806640625	n/a	WORD	2440889	wordpools/wasnorm_wordpool_less_exclusions.txt	LTP339	ltpFR	3	14	1	GLASS	639	n/a	0	1	0.412841796875	0.57763671875	upper	../fonts/amplitud.ttf
2387.546875	n/a	WORD	2444848	wordpools/wasnorm_wordpool_less_exclusions.txt	LTP339	ltpFR	3	14	1	ELECTRICIAN	521	n/a	1	1	0.412841796875	0.57763671875	upper	../fonts/amplitud.ttf
2391.7607421875	n/a	WORD	2449163	wordpools/wasnorm_wordpool_less_exclusions.txt	LTP339	ltpFR	3	14	1	ATTIC	56	n/a	0	1	0.412841796875	0.57763671875	upper	../fonts/amplitud.ttf
2395.7919921875	n/a	WORD	2453291	wordpools/wasnorm_wordpool_less_exclusions.txt	LTP339	ltpFR	3	14	1	PENCIL	1042	n/a	0	1	0.412841796875	0.57763671875	upper	../fonts/amplitud.ttf
2399.9228515625	n/a	WORD	2457521	wordpools/wasnorm_wordpool_less_exclusions.txt	LTP339	ltpFR	3	14	1	FISH	571	n/a	1	1	0.412841796875	0.57763671875	upper	../fonts/amplitud.ttf
2404.0048828125	n/a	WORD	2461701	wordpools/wasnorm_wordpool_less_exclusions.txt	LTP339	ltpFR	3	14	1	GARAGE	621	n/a	0	1	0.412841796875	0.57763671875	upper	../fonts/amplitud.ttf
2407.9033203125	n/a	WORD	2465693	wordpools/wasnorm_wordpool_less_exclusions.txt	LTP339	ltpFR	3	14	1	CHAMBER	277	n/a	0	1	0.412841796875	0.57763671875	upper	../fonts/amplitud.ttf
2412.001953125	n/a	WORD	2469890	wordpools/wasnorm_wordpool_less_exclusions.txt	LTP339	ltpFR	3	14	1	SWITCH	1422	n/a	0	1	0.412841796875	0.57763671875	upper	../fonts/amplitud.ttf
2417.798828125	n/a	REC_START	2475826	n/a	LTP339	ltpFR	3	14	n/a	n/a	n/a	n/a	n/a	n/a	n/a	n/a	n/a	n/a
2418.234375	n/a	REC_WORD	2476272	wordpools/wasnorm_wordpool_less_exclusions.txt	LTP339	ltpFR	3	14	1	LEOPARD	812	n/a	1	n/a	n/a	n/a	n/a	n/a
2418.7744140625	n/a	REC_WORD	2476825	wordpools/wasnorm_wordpool_less_exclusions.txt	LTP339	ltpFR	3	14	1	CEREAL	272	n/a	0	n/a	n/a	n/a	n/a	n/a
2419.576171875	n/a	REC_WORD	2477646	wordpools/wasnorm_wordpool_less_exclusions.txt	LTP339	ltpFR	3	14	1	ROPE	1211	n/a	0	n/a	n/a	n/a	n/a	n/a
2420.1806640625	n/a	REC_WORD	2478265	wordpools/wasnorm_wordpool_less_exclusions.txt	LTP339	ltpFR	3	14	1	SWITCH	1422	n/a	0	n/a	n/a	n/a	n/a	n/a
2424.80859375	n/a	REC_WORD	2483004	wordpools/wasnorm_wordpool_less_exclusions.txt	LTP339	ltpFR	3	14	1	AUDIENCE	59	n/a	1	n/a	n/a	n/a	n/a	n/a
2425.8603515625	n/a	REC_WORD	2484081	wordpools/wasnorm_wordpool_less_exclusions.txt	LTP339	ltpFR	3	14	1	MOB	904	n/a	1	n/a	n/a	n/a	n/a	n/a
2436.4912109375	n/a	REC_WORD	2494967	wordpools/wasnorm_wordpool_less_exclusions.txt	LTP339	ltpFR	3	14	n/a	TECHNICIAN	1443	n/a	n/a	n/a	n/a	n/a	n/a	n/a
2440.4765625	n/a	REC_WORD	2499048	wordpools/wasnorm_wordpool_less_exclusions.txt	LTP339	ltpFR	3	14	1	GLASS	639	n/a	0	n/a	n/a	n/a	n/a	n/a
2451.8876953125	n/a	REC_WORD	2510733	wordpools/wasnorm_wordpool_less_exclusions.txt	LTP339	ltpFR	3	14	1	PENCIL	1042	n/a	0	n/a	n/a	n/a	n/a	n/a
2474.72265625	n/a	REC_WORD	2534116	wordpools/wasnorm_wordpool_less_exclusions.txt	LTP339	ltpFR	3	14	1	NECK	939	n/a	1	n/a	n/a	n/a	n/a	n/a
2496.4599609375	n/a	WORD	2556375	wordpools/wasnorm_wordpool_less_exclusions.txt	LTP339	ltpFR	3	15	1	POWDER	1117	n/a	0	1	0.412841796875	0.57763671875	upper	../fonts/amplitud.ttf
2500.392578125	n/a	WORD	2560402	wordpools/wasnorm_wordpool_less_exclusions.txt	LTP339	ltpFR	3	15	1	SKYSCRAPER	1322	n/a	0	1	0.412841796875	0.57763671875	upper	../fonts/amplitud.ttf
2504.4404296875	n/a	WORD	2564547	wordpools/wasnorm_wordpool_less_exclusions.txt	LTP339	ltpFR	3	15	1	ARCHITECT	36	n/a	0	1	0.412841796875	0.57763671875	upper	../fonts/amplitud.ttf
2508.5546875	n/a	WORD	2568760	wordpools/wasnorm_wordpool_less_exclusions.txt	LTP339	ltpFR	3	15	1	BOYFRIEND	162	n/a	1	1	0.412841796875	0.57763671875	upper	../fonts/amplitud.ttf
2512.7685546875	n/a	WORD	2573075	wordpools/wasnorm_wordpool_less_exclusions.txt	LTP339	ltpFR	3	15	1	LIPSTICK	829	n/a	0	1	0.412841796875	0.57763671875	upper	../fonts/amplitud.ttf
2516.7001953125	n/a	WORD	2577101	wordpools/wasnorm_wordpool_less_exclusions.txt	LTP339	ltpFR	3	15	1	LOBSTER	837	n/a	1	1	0.412841796875	0.57763671875	upper	../fonts/amplitud.ttf
2520.83203125	n/a	WORD	2581332	wordpools/wasnorm_wordpool_less_exclusions.txt	LTP339	ltpFR	3	15	1	SHORE	1291	n/a	0	1	0.412841796875	0.57763671875	upper	../fonts/amplitud.ttf
2524.98046875	n/a	WORD	2585580	wordpools/wasnorm_wordpool_less_exclusions.txt	LTP339	ltpFR	3	15	1	BARN	89	n/a	0	1	0.412841796875	0.57763671875	upper	../fonts/amplitud.ttf
2528.8603515625	n/a	WORD	2589553	wordpools/wasnorm_wordpool_less_exclusions.txt	LTP339	ltpFR	3	15	1	BUFFALO	186	n/a	0	1	0.412841796875	0.57763671875	upper	../fonts/amplitud.ttf
2532.943359375	n/a	WORD	2593734	wordpools/wasnorm_wordpool_less_exclusions.txt	LTP339	ltpFR	3	15	1	SPONGE	1355	n/a	0	1	0.412841796875	0.57763671875	upper	../fonts/amplitud.ttf
2537.041015625	n/a	WORD	2597930	wordpools/wasnorm_wordpool_less_exclusions.txt	LTP339	ltpFR	3	15	1	HAIL	676	n/a	0	1	0.412841796875	0.57763671875	upper	../fonts/amplitud.ttf
2541.072265625	n/a	WORD	2602058	wordpools/wasnorm_wordpool_less_exclusions.txt	LTP339	ltpFR	3	15	1	MAMMAL	861	n/a	1	1	0.412841796875	0.57763671875	upper	../fonts/amplitud.ttf
2545.2373046875	n/a	WORD	2606323	wordpools/wasnorm_wordpool_less_exclusions.txt	LTP339	ltpFR	3	15	1	SCREWDRIVER	1255	n/a	0	1	0.412841796875	0.57763671875	upper	../fonts/amplitud.ttf
2549.4013671875	n/a	WORD	2610587	wordpools/wasnorm_wordpool_less_exclusions.txt	LTP339	ltpFR	3	15	1	CANVAS	234	n/a	0	1	0.412841796875	0.57763671875	upper	../fonts/amplitud.ttf
2553.5830078125	n/a	WORD	2614869	wordpools/wasnorm_wordpool_less_exclusions.txt	LTP339	ltpFR	3	15	1	MANSION	864	n/a	0	1	0.412841796875	0.57763671875	upper	../fonts/amplitud.ttf
2557.763671875	n/a	WORD	2619150	wordpools/wasnorm_wordpool_less_exclusions.txt	LTP339	ltpFR	3	15	1	HAMMER	680	n/a	0	1	0.412841796875	0.57763671875	upper	../fonts/amplitud.ttf
2563.611328125	n/a	REC_START	2625138	n/a	LTP339	ltpFR	3	15	n/a	n/a	n/a	n/a	n/a	n/a	n/a	n/a	n/a	n/a
2564.201171875	n/a	REC_WORD	2625742	wordpools/wasnorm_wordpool_less_exclusions.txt	LTP339	ltpFR	3	15	1	MANSION	864	n/a	0	n/a	n/a	n/a	n/a	n/a
2564.8818359375	n/a	REC_WORD	2626439	wordpools/wasnorm_wordpool_less_exclusions.txt	LTP339	ltpFR	3	15	1	SCREWDRIVER	1255	n/a	0	n/a	n/a	n/a	n/a	n/a
2565.873046875	n/a	REC_WORD	2627454	wordpools/wasnorm_wordpool_less_exclusions.txt	LTP339	ltpFR	3	15	1	HAMMER	680	n/a	0	n/a	n/a	n/a	n/a	n/a
2566.970703125	n/a	REC_WORD	2628578	wordpools/wasnorm_wordpool_less_exclusions.txt	LTP339	ltpFR	3	15	1	ARCHITECT	36	n/a	0	n/a	n/a	n/a	n/a	n/a
2567.87109375	n/a	REC_WORD	2629500	wordpools/wasnorm_wordpool_less_exclusions.txt	LTP339	ltpFR	3	15	1	BOYFRIEND	162	n/a	1	n/a	n/a	n/a	n/a	n/a
2576.234375	n/a	REC_WORD	2638064	wordpools/wasnorm_wordpool_less_exclusions.txt	LTP339	ltpFR	3	15	1	SKYSCRAPER	1322	n/a	0	n/a	n/a	n/a	n/a	n/a
2593.0244140625	n/a	REC_WORD	2655257	wordpools/wasnorm_wordpool_less_exclusions.txt	LTP339	ltpFR	3	15	1	POWDER	1117	n/a	0	n/a	n/a	n/a	n/a	n/a
2594.330078125	n/a	REC_WORD	2656594	wordpools/wasnorm_wordpool_less_exclusions.txt	LTP339	ltpFR	3	15	1	LIPSTICK	829	n/a	0	n/a	n/a	n/a	n/a	n/a
2642.7890625	n/a	WORD	2706216	wordpools/wasnorm_wordpool_less_exclusions.txt	LTP339	ltpFR	3	16	1	ABDOMEN	1	n/a	0	1	0.412841796875	0.57763671875	upper	../fonts/amplitud.ttf
2646.8369140625	n/a	WORD	2710361	wordpools/wasnorm_wordpool_less_exclusions.txt	LTP339	ltpFR	3	16	1	LOUNGE	845	n/a	0	1	0.412841796875	0.57763671875	upper	../fonts/amplitud.ttf
2650.884765625	n/a	WORD	2714506	wordpools/wasnorm_wordpool_less_exclusions.txt	LTP339	ltpFR	3	16	1	LANDSCAPE	799	n/a	0	1	0.412841796875	0.57763671875	upper	../fonts/amplitud.ttf
2654.716796875	n/a	WORD	2718430	wordpools/wasnorm_wordpool_less_exclusions.txt	LTP339	ltpFR	3	16	0	JOURNAL	760	n/a	0	0	0.5869140625	0.422607421875	lower	../fonts/zerothre.ttf
2658.5830078125	n/a	WORD	2722389	wordpools/wasnorm_wordpool_less_exclusions.txt	LTP339	ltpFR	3	16	0	PAD	998	n/a	0	0	0.5869140625	0.422607421875	lower	../fonts/zerothre.ttf
2662.7626953125	n/a	WORD	2726669	wordpools/wasnorm_wordpool_less_exclusions.txt	LTP339	ltpFR	3	16	0	COLESLAW	344	n/a	0	0	0.5869140625	0.422607421875	lower	../fonts/zerothre.ttf
2666.810546875	n/a	WORD	2730814	wordpools/wasnorm_wordpool_less_exclusions.txt	LTP339	ltpFR	3	16	0	SALMON	1227	n/a	0	0	0.5869140625	0.422607421875	lower	../fonts/zerothre.ttf
2670.7919921875	n/a	WORD	2734891	wordpools/wasnorm_wordpool_less_exclusions.txt	LTP339	ltpFR	3	16	1	EGG	518	n/a	0	1	0.412841796875	0.57763671875	upper	../fonts/amplitud.ttf
2674.70703125	n/a	WORD	2738900	wordpools/wasnorm_wordpool_less_exclusions.txt	LTP339	ltpFR	3	16	1	WINNER	1615	n/a	1	1	0.412841796875	0.57763671875	upper	../fonts/amplitud.ttf
2678.85546875	n/a	WORD	2743148	wordpools/wasnorm_wordpool_less_exclusions.txt	LTP339	ltpFR	3	16	1	UNCLE	1536	n/a	1	1	0.412841796875	0.57763671875	upper	../fonts/amplitud.ttf
2682.970703125	n/a	WORD	2747362	wordpools/wasnorm_wordpool_less_exclusions.txt	LTP339	ltpFR	3	16	0	EMPLOYEE	531	n/a	1	0	0.5869140625	0.422607421875	lower	../fonts/zerothre.ttf
2686.984375	n/a	WORD	2751472	wordpools/wasnorm_wordpool_less_exclusions.txt	LTP339	ltpFR	3	16	0	MANAGER	863	n/a	1	0	0.5869140625	0.422607421875	lower	../fonts/zerothre.ttf
2690.93359375	n/a	WORD	2755516	wordpools/wasnorm_wordpool_less_exclusions.txt	LTP339	ltpFR	3	16	0	BEVERAGE	123	n/a	0	0	0.5869140625	0.422607421875	lower	../fonts/zerothre.ttf
2695.0478515625	n/a	WORD	2759729	wordpools/wasnorm_wordpool_less_exclusions.txt	LTP339	ltpFR	3	16	0	ACTRESS	6	n/a	1	0	0.5869140625	0.422607421875	lower	../fonts/zerothre.ttf
2699.1123046875	n/a	WORD	2763891	wordpools/wasnorm_wordpool_less_exclusions.txt	LTP339	ltpFR	3	16	1	COCOON	339	n/a	0	1	0.412841796875	0.57763671875	upper	../fonts/amplitud.ttf
2703.0771484375	n/a	WORD	2767951	wordpools/wasnorm_wordpool_less_exclusions.txt	LTP339	ltpFR	3	16	1	SARDINE	1235	n/a	0	1	0.412841796875	0.57763671875	upper	../fonts/amplitud.ttf
2709.025390625	n/a	REC_START	2774042	n/a	LTP339	ltpFR	3	16	n/a	n/a	n/a	n/a	n/a	n/a	n/a	n/a	n/a	n/a
2709.63671875	n/a	REC_WORD	2774668	wordpools/wasnorm_wordpool_less_exclusions.txt	LTP339	ltpFR	3	16	1	COCOON	339	n/a	0	n/a	n/a	n/a	n/a	n/a
2710.4033203125	n/a	REC_WORD	2775453	wordpools/wasnorm_wordpool_less_exclusions.txt	LTP339	ltpFR	3	16	0	EMPLOYEE	531	n/a	1	n/a	n/a	n/a	n/a	n/a
2711.1572265625	n/a	REC_WORD	2776225	wordpools/wasnorm_wordpool_less_exclusions.txt	LTP339	ltpFR	3	16	1	SARDINE	1235	n/a	0	n/a	n/a	n/a	n/a	n/a
2712.271484375	n/a	REC_WORD	2777366	wordpools/wasnorm_wordpool_less_exclusions.txt	LTP339	ltpFR	3	16	0	ACTRESS	6	n/a	1	n/a	n/a	n/a	n/a	n/a
2735.8232421875	n/a	REC_WORD	2801483	wordpools/wasnorm_wordpool_less_exclusions.txt	LTP339	ltpFR	3	16	1	EGG	518	n/a	0	n/a	n/a	n/a	n/a	n/a
2786.4873046875	n/a	REST_REWET	2853363	n/a	LTP339	ltpFR	3	16	n/a	n/a	n/a	n/a	n/a	n/a	n/a	n/a	n/a	n/a
3037.951171875	n/a	REC_START	3110862	n/a	LTP339	ltpFR	3	1	n/a	n/a	n/a	n/a	n/a	n/a	n/a	n/a	n/a	n/a
3037.982421875	n/a	RECOG_TARGET	3110894	n/a	LTP339	ltpFR	3	1	1	SWITCH	1422	1	0	n/a	n/a	n/a	n/a	n/a
3040.595703125	n/a	RECOG_RESP	3113570	n/a	LTP339	ltpFR	3	1	1	SWITCH	1422	n/a	0	n/a	n/a	n/a	n/a	n/a
3042.203125	n/a	RECOG_CONF	3115216	n/a	LTP339	ltpFR	3	1	1	SWITCH	1422	1	0	n/a	n/a	n/a	n/a	n/a
3043.861328125	n/a	RECOG_LURE	3116914	n/a	LTP339	ltpFR	3	1	n/a	FEAST	556	5	n/a	n/a	n/a	n/a	n/a	n/a
3044.8740234375	n/a	RECOG_RESP	3117951	n/a	LTP339	ltpFR	3	1	n/a	FEAST	556	n/a	n/a	n/a	n/a	n/a	n/a	n/a
3045.587890625	n/a	RECOG_CONF	3118682	n/a	LTP339	ltpFR	3	1	n/a	FEAST	556	5	n/a	n/a	n/a	n/a	n/a	n/a
3047.0615234375	n/a	RECOG_LURE	3120191	n/a	LTP339	ltpFR	3	1	n/a	LABYRINTH	791	5	n/a	n/a	n/a	n/a	n/a	n/a
3048.0244140625	n/a	RECOG_RESP	3121177	n/a	LTP339	ltpFR	3	1	n/a	LABYRINTH	791	n/a	n/a	n/a	n/a	n/a	n/a	n/a
3048.748046875	n/a	RECOG_CONF	3121918	n/a	LTP339	ltpFR	3	1	n/a	LABYRINTH	791	5	n/a	n/a	n/a	n/a	n/a	n/a
3050.2431640625	n/a	RECOG_LURE	3123449	n/a	LTP339	ltpFR	3	1	n/a	COLLEGE	346	4	n/a	n/a	n/a	n/a	n/a	n/a
3051.14453125	n/a	RECOG_RESP	3124372	n/a	LTP339	ltpFR	3	1	n/a	COLLEGE	346	n/a	n/a	n/a	n/a	n/a	n/a	n/a
3051.8984375	n/a	RECOG_CONF	3125144	n/a	LTP339	ltpFR	3	1	n/a	COLLEGE	346	4	n/a	n/a	n/a	n/a	n/a	n/a
3053.58984375	n/a	RECOG_TARGET	3126876	n/a	LTP339	ltpFR	3	1	1	CAMERA	224	2	0	n/a	n/a	n/a	n/a	n/a
3055.0849609375	n/a	RECOG_RESP	3128407	n/a	LTP339	ltpFR	3	1	1	CAMERA	224	n/a	0	n/a	n/a	n/a	n/a	n/a
3055.8525390625	n/a	RECOG_CONF	3129193	n/a	LTP339	ltpFR	3	1	1	CAMERA	224	2	0	n/a	n/a	n/a	n/a	n/a
3057.4892578125	n/a	RECOG_TARGET	3130869	n/a	LTP339	ltpFR	3	1	-1	MONKEY	911	5	-1	n/a	n/a	n/a	n/a	n/a
3058.3046875	n/a	RECOG_RESP	3131704	n/a	LTP339	ltpFR	3	1	-1	MONKEY	911	n/a	-1	n/a	n/a	n/a	n/a	n/a
3058.9775390625	n/a	RECOG_CONF	3132393	n/a	LTP339	ltpFR	3	1	-1	MONKEY	911	5	-1	n/a	n/a	n/a	n/a	n/a
3060.5546875	n/a	RECOG_TARGET	3134008	n/a	LTP339	ltpFR	3	1	0	BULB	192	4	0	n/a	n/a	n/a	n/a	n/a
3061.224609375	n/a	RECOG_RESP	3134694	n/a	LTP339	ltpFR	3	1	0	BULB	192	n/a	0	n/a	n/a	n/a	n/a	n/a
3061.8974609375	n/a	RECOG_CONF	3135383	n/a	LTP339	ltpFR	3	1	0	BULB	192	4	0	n/a	n/a	n/a	n/a	n/a
3063.3369140625	n/a	RECOG_LURE	3136857	n/a	LTP339	ltpFR	3	1	n/a	CUSHION	428	3	n/a	n/a	n/a	n/a	n/a	n/a
3064.1533203125	n/a	RECOG_RESP	3137693	n/a	LTP339	ltpFR	3	1	n/a	CUSHION	428	n/a	n/a	n/a	n/a	n/a	n/a	n/a
3064.8154296875	n/a	RECOG_CONF	3138371	n/a	LTP339	ltpFR	3	1	n/a	CUSHION	428	3	n/a	n/a	n/a	n/a	n/a	n/a
3066.4013671875	n/a	RECOG_LURE	3139995	n/a	LTP339	ltpFR	3	1	n/a	ANTEATER	26	3	n/a	n/a	n/a	n/a	n/a	n/a
3068.2646484375	n/a	RECOG_RESP	3141903	n/a	LTP339	ltpFR	3	1	n/a	ANTEATER	26	n/a	n/a	n/a	n/a	n/a	n/a	n/a
3068.9560546875	n/a	RECOG_CONF	3142611	n/a	LTP339	ltpFR	3	1	n/a	ANTEATER	26	3	n/a	n/a	n/a	n/a	n/a	n/a
3070.4169921875	n/a	RECOG_LURE	3144107	n/a	LTP339	ltpFR	3	1	n/a	FRIES	607	5	n/a	n/a	n/a	n/a	n/a	n/a
3071.2236328125	n/a	RECOG_RESP	3144933	n/a	LTP339	ltpFR	3	1	n/a	FRIES	607	n/a	n/a	n/a	n/a	n/a	n/a	n/a
3071.837890625	n/a	RECOG_CONF	3145562	n/a	LTP339	ltpFR	3	1	n/a	FRIES	607	5	n/a	n/a	n/a	n/a	n/a	n/a
3073.46484375	n/a	RECOG_TARGET	3147228	n/a	LTP339	ltpFR	3	1	0	CROCODILE	411	5	1	n/a	n/a	n/a	n/a	n/a
3074.14453125	n/a	RECOG_RESP	3147924	n/a	LTP339	ltpFR	3	1	0	CROCODILE	411	n/a	1	n/a	n/a	n/a	n/a	n/a
3074.767578125	n/a	RECOG_CONF	3148562	n/a	LTP339	ltpFR	3	1	0	CROCODILE	411	5	1	n/a	n/a	n/a	n/a	n/a
3076.23046875	n/a	RECOG_TARGET	3150060	n/a	LTP339	ltpFR	3	1	-1	BINDER	127	3	-1	n/a	n/a	n/a	n/a	n/a
3077.033203125	n/a	RECOG_RESP_VV	3150882	n/a	LTP339	ltpFR	3	1	-1	BINDER	127	n/a	-1	n/a	n/a	n/a	n/a	n/a
3077.814453125	n/a	RECOG_RESP	3151682	n/a	LTP339	ltpFR	3	1	-1	BINDER	127	n/a	-1	n/a	n/a	n/a	n/a	n/a
3078.580078125	n/a	RECOG_CONF	3152466	n/a	LTP339	ltpFR	3	1	-1	BINDER	127	3	-1	n/a	n/a	n/a	n/a	n/a
3080.095703125	n/a	RECOG_TARGET	3154018	n/a	LTP339	ltpFR	3	1	1	UNCLE	1536	5	1	n/a	n/a	n/a	n/a	n/a
3081.00390625	n/a	RECOG_RESP	3154948	n/a	LTP339	ltpFR	3	1	1	UNCLE	1536	n/a	1	n/a	n/a	n/a	n/a	n/a
3081.607421875	n/a	RECOG_CONF	3155566	n/a	LTP339	ltpFR	3	1	1	UNCLE	1536	5	1	n/a	n/a	n/a	n/a	n/a
3082.9267578125	n/a	RECOG_TARGET	3156917	n/a	LTP339	ltpFR	3	1	0	SOFA	1342	5	1	n/a	n/a	n/a	n/a	n/a
3083.423828125	n/a	RECOG_RESP	3157426	n/a	LTP339	ltpFR	3	1	0	SOFA	1342	n/a	1	n/a	n/a	n/a	n/a	n/a
3083.88671875	n/a	RECOG_CONF	3157900	n/a	LTP339	ltpFR	3	1	0	SOFA	1342	5	1	n/a	n/a	n/a	n/a	n/a
3085.42578125	n/a	RECOG_TARGET	3159476	n/a	LTP339	ltpFR	3	1	1	HAMMER	680	5	0	n/a	n/a	n/a	n/a	n/a
3086.083984375	n/a	RECOG_RESP	3160150	n/a	LTP339	ltpFR	3	1	1	HAMMER	680	n/a	0	n/a	n/a	n/a	n/a	n/a
3086.4970703125	n/a	RECOG_CONF	3160573	n/a	LTP339	ltpFR	3	1	1	HAMMER	680	5	0	n/a	n/a	n/a	n/a	n/a
3087.83984375	n/a	RECOG_LURE	3161948	n/a	LTP339	ltpFR	3	1	n/a	BEER	114	1	n/a	n/a	n/a	n/a	n/a	n/a
3090.0234375	n/a	RECOG_RESP	3164184	n/a	LTP339	ltpFR	3	1	n/a	BEER	114	n/a	n/a	n/a	n/a	n/a	n/a	n/a
3090.8623046875	n/a	RECOG_CONF	3165043	n/a	LTP339	ltpFR	3	1	n/a	BEER	114	1	n/a	n/a	n/a	n/a	n/a	n/a
3092.388671875	n/a	RECOG_TARGET	3166606	n/a	LTP339	ltpFR	3	1	1	PREACHER	1119	5	1	n/a	n/a	n/a	n/a	n/a
3093.0439453125	n/a	RECOG_RESP	3167277	n/a	LTP339	ltpFR	3	1	1	PREACHER	1119	n/a	1	n/a	n/a	n/a	n/a	n/a
3093.5166015625	n/a	RECOG_CONF	3167761	n/a	LTP339	ltpFR	3	1	1	PREACHER	1119	5	1	n/a	n/a	n/a	n/a	n/a
3094.9208984375	n/a	RECOG_LURE	3169199	n/a	LTP339	ltpFR	3	1	n/a	SKULL	1320	2	n/a	n/a	n/a	n/a	n/a	n/a
3096.6337890625	n/a	RECOG_RESP	3170953	n/a	LTP339	ltpFR	3	1	n/a	SKULL	1320	n/a	n/a	n/a	n/a	n/a	n/a	n/a
3097.271484375	n/a	RECOG_CONF	3171606	n/a	LTP339	ltpFR	3	1	n/a	SKULL	1320	2	n/a	n/a	n/a	n/a	n/a	n/a
3098.8515625	n/a	RECOG_LURE	3173224	n/a	LTP339	ltpFR	3	1	n/a	JAM	748	4	n/a	n/a	n/a	n/a	n/a	n/a
3099.982421875	n/a	RECOG_RESP	3174382	n/a	LTP339	ltpFR	3	1	n/a	JAM	748	n/a	n/a	n/a	n/a	n/a	n/a	n/a
3100.6962890625	n/a	RECOG_CONF	3175113	n/a	LTP339	ltpFR	3	1	n/a	JAM	748	4	n/a	n/a	n/a	n/a	n/a	n/a
3102.150390625	n/a	RECOG_TARGET	3176602	n/a	LTP339	ltpFR	3	1	-1	TYPIST	1532	5	-1	n/a	n/a	n/a	n/a	n/a
3103.09375	n/a	RECOG_RESP	3177568	n/a	LTP339	ltpFR	3	1	-1	TYPIST	1532	n/a	-1	n/a	n/a	n/a	n/a	n/a
3103.5869140625	n/a	RECOG_CONF	3178073	n/a	LTP339	ltpFR	3	1	-1	TYPIST	1532	5	-1	n/a	n/a	n/a	n/a	n/a
3106.9970703125	n/a	REC_START	3181565	n/a	LTP339	ltpFR	3	2	n/a	n/a	n/a	n/a	n/a	n/a	n/a	n/a	n/a	n/a
3107.015625	n/a	RECOG_LURE	3181584	n/a	LTP339	ltpFR	3	2	n/a	SEA	1259	2	n/a	n/a	n/a	n/a	n/a	n/a
3108.421875	n/a	RECOG_RESP	3183024	n/a	LTP339	ltpFR	3	2	n/a	SEA	1259	n/a	n/a	n/a	n/a	n/a	n/a	n/a
3109.619140625	n/a	RECOG_CONF	3184250	n/a	LTP339	ltpFR	3	2	n/a	SEA	1259	2	n/a	n/a	n/a	n/a	n/a	n/a
3111.046875	n/a	RECOG_LURE	3185712	n/a	LTP339	ltpFR	3	2	n/a	SWATTER	1418	2	n/a	n/a	n/a	n/a	n/a	n/a
3112.2314453125	n/a	RECOG_RESP	3186925	n/a	LTP339	ltpFR	3	2	n/a	SWATTER	1418	n/a	n/a	n/a	n/a	n/a	n/a	n/a
3113.0791015625	n/a	RECOG_CONF	3187793	n/a	LTP339	ltpFR	3	2	n/a	SWATTER	1418	2	n/a	n/a	n/a	n/a	n/a	n/a
3114.5283203125	n/a	RECOG_LURE	3189277	n/a	LTP339	ltpFR	3	2	n/a	MINK	897	5	n/a	n/a	n/a	n/a	n/a	n/a
3115.4599609375	n/a	RECOG_RESP	3190231	n/a	LTP339	ltpFR	3	2	n/a	MINK	897	n/a	n/a	n/a	n/a	n/a	n/a	n/a
3116.314453125	n/a	RECOG_CONF	3191106	n/a	LTP339	ltpFR	3	2	n/a	MINK	897	5	n/a	n/a	n/a	n/a	n/a	n/a
3117.7421875	n/a	RECOG_TARGET	3192568	n/a	LTP339	ltpFR	3	2	-1	JEANS	752	5	-1	n/a	n/a	n/a	n/a	n/a
3118.4208984375	n/a	RECOG_RESP	3193263	n/a	LTP339	ltpFR	3	2	-1	JEANS	752	n/a	-1	n/a	n/a	n/a	n/a	n/a
3118.904296875	n/a	RECOG_CONF	3193758	n/a	LTP339	ltpFR	3	2	-1	JEANS	752	5	-1	n/a	n/a	n/a	n/a	n/a
3120.1748046875	n/a	RECOG_LURE	3195059	n/a	LTP339	ltpFR	3	2	n/a	FRAME	600	1	n/a	n/a	n/a	n/a	n/a	n/a
3120.7509765625	n/a	RECOG_RESP	3195649	n/a	LTP339	ltpFR	3	2	n/a	FRAME	600	n/a	n/a	n/a	n/a	n/a	n/a	n/a
3121.5693359375	n/a	RECOG_CONF	3196487	n/a	LTP339	ltpFR	3	2	n/a	FRAME	600	1	n/a	n/a	n/a	n/a	n/a	n/a
3123.07421875	n/a	RECOG_LURE	3198028	n/a	LTP339	ltpFR	3	2	n/a	GROOM	665	5	n/a	n/a	n/a	n/a	n/a	n/a
3124.41015625	n/a	RECOG_RESP	3199396	n/a	LTP339	ltpFR	3	2	n/a	GROOM	665	n/a	n/a	n/a	n/a	n/a	n/a	n/a
3125.1337890625	n/a	RECOG_CONF	3200137	n/a	LTP339	ltpFR	3	2	n/a	GROOM	665	5	n/a	n/a	n/a	n/a	n/a	n/a
3126.5234375	n/a	RECOG_TARGET	3201560	n/a	LTP339	ltpFR	3	2	1	SUN	1406	5	0	n/a	n/a	n/a	n/a	n/a
3128.111328125	n/a	RECOG_RESP	3203186	n/a	LTP339	ltpFR	3	2	1	SUN	1406	n/a	0	n/a	n/a	n/a	n/a	n/a
3128.6240234375	n/a	RECOG_CONF	3203711	n/a	LTP339	ltpFR	3	2	1	SUN	1406	5	0	n/a	n/a	n/a	n/a	n/a
3130.0205078125	n/a	RECOG_TARGET	3205141	n/a	LTP339	ltpFR	3	2	1	SARDINE	1235	5	0	n/a	n/a	n/a	n/a	n/a
3130.640625	n/a	RECOG_RESP	3205776	n/a	LTP339	ltpFR	3	2	1	SARDINE	1235	n/a	0	n/a	n/a	n/a	n/a	n/a
3131.083984375	n/a	RECOG_CONF	3206230	n/a	LTP339	ltpFR	3	2	1	SARDINE	1235	5	0	n/a	n/a	n/a	n/a	n/a
3132.4697265625	n/a	RECOG_TARGET	3207649	n/a	LTP339	ltpFR	3	2	1	POWDER	1117	5	0	n/a	n/a	n/a	n/a	n/a
3133.630859375	n/a	RECOG_RESP	3208838	n/a	LTP339	ltpFR	3	2	1	POWDER	1117	n/a	0	n/a	n/a	n/a	n/a	n/a
3134.07421875	n/a	RECOG_CONF	3209292	n/a	LTP339	ltpFR	3	2	1	POWDER	1117	5	0	n/a	n/a	n/a	n/a	n/a
3135.484375	n/a	RECOG_TARGET	3210736	n/a	LTP339	ltpFR	3	2	0	NOTEBOOK	959	5	0	n/a	n/a	n/a	n/a	n/a
3136.1103515625	n/a	RECOG_RESP	3211377	n/a	LTP339	ltpFR	3	2	0	NOTEBOOK	959	n/a	0	n/a	n/a	n/a	n/a	n/a
3136.5732421875	n/a	RECOG_CONF	3211851	n/a	LTP339	ltpFR	3	2	0	NOTEBOOK	959	5	0	n/a	n/a	n/a	n/a	n/a
3137.93359375	n/a	RECOG_LURE	3213244	n/a	LTP339	ltpFR	3	2	n/a	TOMATO	1476	5	n/a	n/a	n/a	n/a	n/a	n/a
3138.7294921875	n/a	RECOG_RESP	3214059	n/a	LTP339	ltpFR	3	2	n/a	TOMATO	1476	n/a	n/a	n/a	n/a	n/a	n/a	n/a
3139.1337890625	n/a	RECOG_CONF	3214473	n/a	LTP339	ltpFR	3	2	n/a	TOMATO	1476	5	n/a	n/a	n/a	n/a	n/a	n/a
3140.7978515625	n/a	RECOG_TARGET	3216177	n/a	LTP339	ltpFR	3	2	1	PALACE	1006	1	0	n/a	n/a	n/a	n/a	n/a
3141.7802734375	n/a	RECOG_RESP	3217183	n/a	LTP339	ltpFR	3	2	1	PALACE	1006	n/a	0	n/a	n/a	n/a	n/a	n/a
3142.5986328125	n/a	RECOG_CONF	3218021	n/a	LTP339	ltpFR	3	2	1	PALACE	1006	1	0	n/a	n/a	n/a	n/a	n/a
3144.0302734375	n/a	RECOG_TARGET	3219487	n/a	LTP339	ltpFR	3	2	1	QUILT	1151	5	0	n/a	n/a	n/a	n/a	n/a
3145.0302734375	n/a	RECOG_RESP	3220511	n/a	LTP339	ltpFR	3	2	1	QUILT	1151	n/a	0	n/a	n/a	n/a	n/a	n/a
3145.513671875	n/a	RECOG_CONF	3221006	n/a	LTP339	ltpFR	3	2	1	QUILT	1151	5	0	n/a	n/a	n/a	n/a	n/a
3147.0458984375	n/a	RECOG_LURE	3222575	n/a	LTP339	ltpFR	3	2	n/a	SEAT	1264	4	n/a	n/a	n/a	n/a	n/a	n/a
3147.8896484375	n/a	RECOG_RESP	3223439	n/a	LTP339	ltpFR	3	2	n/a	SEAT	1264	n/a	n/a	n/a	n/a	n/a	n/a	n/a
3148.29296875	n/a	RECOG_CONF	3223852	n/a	LTP339	ltpFR	3	2	n/a	SEAT	1264	4	n/a	n/a	n/a	n/a	n/a	n/a
3149.978515625	n/a	RECOG_LURE	3225578	n/a	LTP339	ltpFR	3	2	n/a	TWIN	1528	5	n/a	n/a	n/a	n/a	n/a	n/a
3150.849609375	n/a	RECOG_RESP	3226470	n/a	LTP339	ltpFR	3	2	n/a	TWIN	1528	n/a	n/a	n/a	n/a	n/a	n/a	n/a
3151.2236328125	n/a	RECOG_CONF	3226853	n/a	LTP339	ltpFR	3	2	n/a	TWIN	1528	5	n/a	n/a	n/a	n/a	n/a	n/a
3152.8095703125	n/a	RECOG_TARGET	3228477	n/a	LTP339	ltpFR	3	2	-1	PRIMATE	1123	5	-1	n/a	n/a	n/a	n/a	n/a
3153.4306640625	n/a	RECOG_RESP	3229113	n/a	LTP339	ltpFR	3	2	-1	PRIMATE	1123	n/a	-1	n/a	n/a	n/a	n/a	n/a
3153.8828125	n/a	RECOG_CONF	3229576	n/a	LTP339	ltpFR	3	2	-1	PRIMATE	1123	5	-1	n/a	n/a	n/a	n/a	n/a
3155.2919921875	n/a	RECOG_TARGET	3231019	n/a	LTP339	ltpFR	3	2	0	VINE	1568	5	1	n/a	n/a	n/a	n/a	n/a
3155.830078125	n/a	RECOG_RESP	3231570	n/a	LTP339	ltpFR	3	2	0	VINE	1568	n/a	1	n/a	n/a	n/a	n/a	n/a
3156.29296875	n/a	RECOG_CONF	3232044	n/a	LTP339	ltpFR	3	2	0	VINE	1568	5	1	n/a	n/a	n/a	n/a	n/a
3157.72265625	n/a	RECOG_TARGET	3233508	n/a	LTP339	ltpFR	3	2	0	BRACES	164	5	0	n/a	n/a	n/a	n/a	n/a
3158.25	n/a	RECOG_RESP	3234048	n/a	LTP339	ltpFR	3	2	0	BRACES	164	n/a	0	n/a	n/a	n/a	n/a	n/a
3158.712890625	n/a	RECOG_CONF	3234522	n/a	LTP339	ltpFR	3	2	0	BRACES	164	5	0	n/a	n/a	n/a	n/a	n/a
3160.123046875	n/a	RECOG_LURE	3235966	n/a	LTP339	ltpFR	3	2	n/a	NUN	962	3	n/a	n/a	n/a	n/a	n/a	n/a
3161.7294921875	n/a	RECOG_RESP	3237611	n/a	LTP339	ltpFR	3	2	n/a	NUN	962	n/a	n/a	n/a	n/a	n/a	n/a	n/a
3162.28125	n/a	RECOG_CONF	3238176	n/a	LTP339	ltpFR	3	2	n/a	NUN	962	3	n/a	n/a	n/a	n/a	n/a	n/a
3163.669921875	n/a	RECOG_TARGET	3239598	n/a	LTP339	ltpFR	3	2	0	SHEET	1279	5	1	n/a	n/a	n/a	n/a	n/a
3164.849609375	n/a	RECOG_RESP	3240806	n/a	LTP339	ltpFR	3	2	0	SHEET	1279	n/a	1	n/a	n/a	n/a	n/a	n/a
3165.29296875	n/a	RECOG_CONF	3241260	n/a	LTP339	ltpFR	3	2	0	SHEET	1279	5	1	n/a	n/a	n/a	n/a	n/a
3168.2880859375	n/a	REC_START	3244327	n/a	LTP339	ltpFR	3	3	n/a	n/a	n/a	n/a	n/a	n/a	n/a	n/a	n/a	n/a
3168.302734375	n/a	RECOG_TARGET	3244342	n/a	LTP339	ltpFR	3	3	1	GUARD	667	4	1	n/a	n/a	n/a	n/a	n/a
3169.1318359375	n/a	RECOG_RESP	3245191	n/a	LTP339	ltpFR	3	3	1	GUARD	667	n/a	1	n/a	n/a	n/a	n/a	n/a
3169.6845703125	n/a	RECOG_CONF	3245757	n/a	LTP339	ltpFR	3	3	1	GUARD	667	4	1	n/a	n/a	n/a	n/a	n/a
3171.1171875	n/a	RECOG_TARGET	3247224	n/a	LTP339	ltpFR	3	3	1	BARN	89	5	0	n/a	n/a	n/a	n/a	n/a
3171.8115234375	n/a	RECOG_RESP	3247935	n/a	LTP339	ltpFR	3	3	1	BARN	89	n/a	0	n/a	n/a	n/a	n/a	n/a
3172.2451171875	n/a	RECOG_CONF	3248379	n/a	LTP339	ltpFR	3	3	1	BARN	89	5	0	n/a	n/a	n/a	n/a	n/a
3173.6826171875	n/a	RECOG_LURE	3249851	n/a	LTP339	ltpFR	3	3	n/a	SKILLET	1317	1	n/a	n/a	n/a	n/a	n/a	n/a
3174.9609375	n/a	RECOG_RESP	3251160	n/a	LTP339	ltpFR	3	3	n/a	SKILLET	1317	n/a	n/a	n/a	n/a	n/a	n/a	n/a
3175.359375	n/a	RECOG_CONF	3251568	n/a	LTP339	ltpFR	3	3	n/a	SKILLET	1317	1	n/a	n/a	n/a	n/a	n/a	n/a
3176.998046875	n/a	RECOG_TARGET	3253246	n/a	LTP339	ltpFR	3	3	-1	CLAM	315	5	-1	n/a	n/a	n/a	n/a	n/a
3177.4814453125	n/a	RECOG_RESP	3253741	n/a	LTP339	ltpFR	3	3	-1	CLAM	315	n/a	-1	n/a	n/a	n/a	n/a	n/a
3177.9248046875	n/a	RECOG_CONF	3254195	n/a	LTP339	ltpFR	3	3	-1	CLAM	315	5	-1	n/a	n/a	n/a	n/a	n/a
3179.263671875	n/a	RECOG_TARGET	3255566	n/a	LTP339	ltpFR	3	3	1	CARDINAL	244	5	1	n/a	n/a	n/a	n/a	n/a
3179.791015625	n/a	RECOG_RESP	3256106	n/a	LTP339	ltpFR	3	3	1	CARDINAL	244	n/a	1	n/a	n/a	n/a	n/a	n/a
3180.2744140625	n/a	RECOG_CONF	3256601	n/a	LTP339	ltpFR	3	3	1	CARDINAL	244	5	1	n/a	n/a	n/a	n/a	n/a
3181.6611328125	n/a	RECOG_LURE	3258021	n/a	LTP339	ltpFR	3	3	n/a	LIGHTNING	820	5	n/a	n/a	n/a	n/a	n/a	n/a
3182.5400390625	n/a	RECOG_RESP	3258921	n/a	LTP339	ltpFR	3	3	n/a	LIGHTNING	820	n/a	n/a	n/a	n/a	n/a	n/a	n/a
3182.9638671875	n/a	RECOG_CONF	3259355	n/a	LTP339	ltpFR	3	3	n/a	LIGHTNING	820	5	n/a	n/a	n/a	n/a	n/a	n/a
3184.6259765625	n/a	RECOG_LURE	3261057	n/a	LTP339	ltpFR	3	3	n/a	PERISCOPE	1050	5	n/a	n/a	n/a	n/a	n/a	n/a
3185.5498046875	n/a	RECOG_RESP	3262003	n/a	LTP339	ltpFR	3	3	n/a	PERISCOPE	1050	n/a	n/a	n/a	n/a	n/a	n/a	n/a
3185.9443359375	n/a	RECOG_CONF	3262407	n/a	LTP339	ltpFR	3	3	n/a	PERISCOPE	1050	5	n/a	n/a	n/a	n/a	n/a	n/a
3187.6083984375	n/a	RECOG_LURE	3264111	n/a	LTP339	ltpFR	3	3	n/a	PISTON	1076	5	n/a	n/a	n/a	n/a	n/a	n/a
3188.5205078125	n/a	RECOG_RESP	3265045	n/a	LTP339	ltpFR	3	3	n/a	PISTON	1076	n/a	n/a	n/a	n/a	n/a	n/a	n/a
3188.994140625	n/a	RECOG_CONF	3265530	n/a	LTP339	ltpFR	3	3	n/a	PISTON	1076	5	n/a	n/a	n/a	n/a	n/a	n/a
3190.4755859375	n/a	RECOG_TARGET	3267047	n/a	LTP339	ltpFR	3	3	-1	PASSENGER	1020	5	-1	n/a	n/a	n/a	n/a	n/a
3191.4697265625	n/a	RECOG_RESP	3268065	n/a	LTP339	ltpFR	3	3	-1	PASSENGER	1020	n/a	-1	n/a	n/a	n/a	n/a	n/a
3192.064453125	n/a	RECOG_CONF	3268674	n/a	LTP339	ltpFR	3	3	-1	PASSENGER	1020	5	-1	n/a	n/a	n/a	n/a	n/a
3193.5068359375	n/a	RECOG_LURE	3270151	n/a	LTP339	ltpFR	3	3	n/a	CANNON	232	3	n/a	n/a	n/a	n/a	n/a	n/a
3195.0712890625	n/a	RECOG_RESP	3271753	n/a	LTP339	ltpFR	3	3	n/a	CANNON	232	n/a	n/a	n/a	n/a	n/a	n/a	n/a
3195.8193359375	n/a	RECOG_CONF	3272519	n/a	LTP339	ltpFR	3	3	n/a	CANNON	232	3	n/a	n/a	n/a	n/a	n/a	n/a
3197.322265625	n/a	RECOG_LURE	3274058	n/a	LTP339	ltpFR	3	3	n/a	DOORBELL	487	5	n/a	n/a	n/a	n/a	n/a	n/a
3198.580078125	n/a	RECOG_RESP	3275346	n/a	LTP339	ltpFR	3	3	n/a	DOORBELL	487	n/a	n/a	n/a	n/a	n/a	n/a	n/a
3199.1640625	n/a	RECOG_CONF	3275944	n/a	LTP339	ltpFR	3	3	n/a	DOORBELL	487	5	n/a	n/a	n/a	n/a	n/a	n/a
3200.4697265625	n/a	RECOG_TARGET	3277281	n/a	LTP339	ltpFR	3	3	1	ATOM	55	5	0	n/a	n/a	n/a	n/a	n/a
3201.140625	n/a	RECOG_RESP	3277968	n/a	LTP339	ltpFR	3	3	1	ATOM	55	n/a	0	n/a	n/a	n/a	n/a	n/a
3201.57421875	n/a	RECOG_CONF	3278412	n/a	LTP339	ltpFR	3	3	1	ATOM	55	5	0	n/a	n/a	n/a	n/a	n/a
3203.0185546875	n/a	RECOG_LURE	3279891	n/a	LTP339	ltpFR	3	3	n/a	PLANT	1083	3	n/a	n/a	n/a	n/a	n/a	n/a
3204.3701171875	n/a	RECOG_RESP	3281275	n/a	LTP339	ltpFR	3	3	n/a	PLANT	1083	n/a	n/a	n/a	n/a	n/a	n/a	n/a
3205.01171875	n/a	RECOG_CONF	3281932	n/a	LTP339	ltpFR	3	3	n/a	PLANT	1083	3	n/a	n/a	n/a	n/a	n/a	n/a
3206.533203125	n/a	RECOG_LURE	3283490	n/a	LTP339	ltpFR	3	3	n/a	BRIDGE	174	4	n/a	n/a	n/a	n/a	n/a	n/a
3207.3828125	n/a	RECOG_RESP	3284360	n/a	LTP339	ltpFR	3	3	n/a	BRIDGE	174	n/a	n/a	n/a	n/a	n/a	n/a	n/a
3208.263671875	n/a	RECOG_CONF	3285262	n/a	LTP339	ltpFR	3	3	n/a	BRIDGE	174	4	n/a	n/a	n/a	n/a	n/a	n/a
3209.84765625	n/a	RECOG_TARGET	3286884	n/a	LTP339	ltpFR	3	3	1	EGG	518	5	0	n/a	n/a	n/a	n/a	n/a
3210.490234375	n/a	RECOG_RESP	3287542	n/a	LTP339	ltpFR	3	3	1	EGG	518	n/a	0	n/a	n/a	n/a	n/a	n/a
3210.9130859375	n/a	RECOG_CONF	3287975	n/a	LTP339	ltpFR	3	3	1	EGG	518	5	0	n/a	n/a	n/a	n/a	n/a
3212.3974609375	n/a	RECOG_TARGET	3289495	n/a	LTP339	ltpFR	3	3	0	MOUTH	926	5	0	n/a	n/a	n/a	n/a	n/a
3213.0	n/a	RECOG_RESP	3290112	n/a	LTP339	ltpFR	3	3	0	MOUTH	926	n/a	0	n/a	n/a	n/a	n/a	n/a
3213.453125	n/a	RECOG_CONF	3290576	n/a	LTP339	ltpFR	3	3	0	MOUTH	926	5	0	n/a	n/a	n/a	n/a	n/a
3214.845703125	n/a	RECOG_LURE	3292002	n/a	LTP339	ltpFR	3	3	n/a	COB	334	4	n/a	n/a	n/a	n/a	n/a	n/a
3215.6689453125	n/a	RECOG_RESP	3292845	n/a	LTP339	ltpFR	3	3	n/a	COB	334	n/a	n/a	n/a	n/a	n/a	n/a	n/a
3216.033203125	n/a	RECOG_CONF	3293218	n/a	LTP339	ltpFR	3	3	n/a	COB	334	4	n/a	n/a	n/a	n/a	n/a	n/a
3217.64453125	n/a	RECOG_TARGET	3294868	n/a	LTP339	ltpFR	3	3	-1	EMPLOYER	532	5	-1	n/a	n/a	n/a	n/a	n/a
3218.2998046875	n/a	RECOG_RESP	3295539	n/a	LTP339	ltpFR	3	3	-1	EMPLOYER	532	n/a	-1	n/a	n/a	n/a	n/a	n/a
3218.7529296875	n/a	RECOG_CONF	3296003	n/a	LTP339	ltpFR	3	3	-1	EMPLOYER	532	5	-1	n/a	n/a	n/a	n/a	n/a
3220.2939453125	n/a	RECOG_LURE	3297581	n/a	LTP339	ltpFR	3	3	n/a	TULIP	1517	5	n/a	n/a	n/a	n/a	n/a	n/a
3221.12890625	n/a	RECOG_RESP	3298436	n/a	LTP339	ltpFR	3	3	n/a	TULIP	1517	n/a	n/a	n/a	n/a	n/a	n/a	n/a
3221.54296875	n/a	RECOG_CONF	3298860	n/a	LTP339	ltpFR	3	3	n/a	TULIP	1517	5	n/a	n/a	n/a	n/a	n/a	n/a
3223.0419921875	n/a	RECOG_TARGET	3300395	n/a	LTP339	ltpFR	3	3	1	MOB	904	5	1	n/a	n/a	n/a	n/a	n/a
3223.6005859375	n/a	RECOG_RESP	3300967	n/a	LTP339	ltpFR	3	3	1	MOB	904	n/a	1	n/a	n/a	n/a	n/a	n/a
3224.0234375	n/a	RECOG_CONF	3301400	n/a	LTP339	ltpFR	3	3	1	MOB	904	5	1	n/a	n/a	n/a	n/a	n/a
3226.978515625	n/a	REC_START	3304426	n/a	LTP339	ltpFR	3	4	n/a	n/a	n/a	n/a	n/a	n/a	n/a	n/a	n/a	n/a
3226.9912109375	n/a	RECOG_LURE	3304439	n/a	LTP339	ltpFR	3	4	n/a	CONTAINER	366	1	n/a	n/a	n/a	n/a	n/a	n/a
3228.681640625	n/a	RECOG_RESP	3306170	n/a	LTP339	ltpFR	3	4	n/a	CONTAINER	366	n/a	n/a	n/a	n/a	n/a	n/a	n/a
3229.1904296875	n/a	RECOG_CONF	3306691	n/a	LTP339	ltpFR	3	4	n/a	CONTAINER	366	1	n/a	n/a	n/a	n/a	n/a	n/a
3230.7548828125	n/a	RECOG_TARGET	3308293	n/a	LTP339	ltpFR	3	4	1	COURSE	390	4	0	n/a	n/a	n/a	n/a	n/a
3231.4521484375	n/a	RECOG_RESP	3309007	n/a	LTP339	ltpFR	3	4	1	COURSE	390	n/a	0	n/a	n/a	n/a	n/a	n/a
3231.9150390625	n/a	RECOG_CONF	3309481	n/a	LTP339	ltpFR	3	4	1	COURSE	390	4	0	n/a	n/a	n/a	n/a	n/a
3233.50390625	n/a	RECOG_TARGET	3311108	n/a	LTP339	ltpFR	3	4	0	CONCERT	360	5	1	n/a	n/a	n/a	n/a	n/a
3233.931640625	n/a	RECOG_RESP	3311546	n/a	LTP339	ltpFR	3	4	0	CONCERT	360	n/a	1	n/a	n/a	n/a	n/a	n/a
3234.365234375	n/a	RECOG_CONF	3311990	n/a	LTP339	ltpFR	3	4	0	CONCERT	360	5	1	n/a	n/a	n/a	n/a	n/a
3235.8857421875	n/a	RECOG_TARGET	3313547	n/a	LTP339	ltpFR	3	4	0	TOAST	1471	1	0	n/a	n/a	n/a	n/a	n/a
3236.44140625	n/a	RECOG_RESP	3314116	n/a	LTP339	ltpFR	3	4	0	TOAST	1471	n/a	0	n/a	n/a	n/a	n/a	n/a
3237.3095703125	n/a	RECOG_CONF	3315005	n/a	LTP339	ltpFR	3	4	0	TOAST	1471	1	0	n/a	n/a	n/a	n/a	n/a
3238.833984375	n/a	RECOG_TARGET	3316566	n/a	LTP339	ltpFR	3	4	-1	PRUNE	1134	5	-1	n/a	n/a	n/a	n/a	n/a
3239.4501953125	n/a	RECOG_RESP	3317197	n/a	LTP339	ltpFR	3	4	-1	PRUNE	1134	n/a	-1	n/a	n/a	n/a	n/a	n/a
3239.875	n/a	RECOG_CONF	3317632	n/a	LTP339	ltpFR	3	4	-1	PRUNE	1134	5	-1	n/a	n/a	n/a	n/a	n/a
3241.43359375	n/a	RECOG_TARGET	3319228	n/a	LTP339	ltpFR	3	4	-1	MAGNET	855	4	-1	n/a	n/a	n/a	n/a	n/a
3242.01171875	n/a	RECOG_RESP	3319820	n/a	LTP339	ltpFR	3	4	-1	MAGNET	855	n/a	-1	n/a	n/a	n/a	n/a	n/a
3242.6650390625	n/a	RECOG_CONF	3320489	n/a	LTP339	ltpFR	3	4	-1	MAGNET	855	4	-1	n/a	n/a	n/a	n/a	n/a
3244.1328125	n/a	RECOG_TARGET	3321992	n/a	LTP339	ltpFR	3	4	1	CONSUMER	365	5	1	n/a	n/a	n/a	n/a	n/a
3244.7119140625	n/a	RECOG_RESP	3322585	n/a	LTP339	ltpFR	3	4	1	CONSUMER	365	n/a	1	n/a	n/a	n/a	n/a	n/a
3245.224609375	n/a	RECOG_CONF	3323110	n/a	LTP339	ltpFR	3	4	1	CONSUMER	365	5	1	n/a	n/a	n/a	n/a	n/a
3246.8134765625	n/a	RECOG_TARGET	3324737	n/a	LTP339	ltpFR	3	4	1	VISITOR	1573	3	1	n/a	n/a	n/a	n/a	n/a
3247.900390625	n/a	RECOG_RESP	3325850	n/a	LTP339	ltpFR	3	4	1	VISITOR	1573	n/a	1	n/a	n/a	n/a	n/a	n/a
3248.5927734375	n/a	RECOG_CONF	3326559	n/a	LTP339	ltpFR	3	4	1	VISITOR	1573	3	1	n/a	n/a	n/a	n/a	n/a
3250.0791015625	n/a	RECOG_LURE	3328081	n/a	LTP339	ltpFR	3	4	n/a	OPERA	978	1	n/a	n/a	n/a	n/a	n/a	n/a
3250.4814453125	n/a	RECOG_RESP	3328493	n/a	LTP339	ltpFR	3	4	n/a	OPERA	978	n/a	n/a	n/a	n/a	n/a	n/a	n/a
3252.1591796875	n/a	RECOG_CONF	3330211	n/a	LTP339	ltpFR	3	4	n/a	OPERA	978	1	n/a	n/a	n/a	n/a	n/a	n/a
3253.4443359375	n/a	RECOG_TARGET	3331527	n/a	LTP339	ltpFR	3	4	-1	SWAMP	1416	5	-1	n/a	n/a	n/a	n/a	n/a
3254.2509765625	n/a	RECOG_RESP	3332353	n/a	LTP339	ltpFR	3	4	-1	SWAMP	1416	n/a	-1	n/a	n/a	n/a	n/a	n/a
3254.7041015625	n/a	RECOG_CONF	3332817	n/a	LTP339	ltpFR	3	4	-1	SWAMP	1416	5	-1	n/a	n/a	n/a	n/a	n/a
3256.1103515625	n/a	RECOG_TARGET	3334257	n/a	LTP339	ltpFR	3	4	0	SALMON	1227	5	0	n/a	n/a	n/a	n/a	n/a
3256.8310546875	n/a	RECOG_RESP	3334995	n/a	LTP339	ltpFR	3	4	0	SALMON	1227	n/a	0	n/a	n/a	n/a	n/a	n/a
3257.2939453125	n/a	RECOG_CONF	3335469	n/a	LTP339	ltpFR	3	4	0	SALMON	1227	5	0	n/a	n/a	n/a	n/a	n/a
3258.6416015625	n/a	RECOG_TARGET	3336849	n/a	LTP339	ltpFR	3	4	1	WALNUT	1584	4	0	n/a	n/a	n/a	n/a	n/a
3259.3310546875	n/a	RECOG_RESP	3337555	n/a	LTP339	ltpFR	3	4	1	WALNUT	1584	n/a	0	n/a	n/a	n/a	n/a	n/a
3259.833984375	n/a	RECOG_CONF	3338070	n/a	LTP339	ltpFR	3	4	1	WALNUT	1584	4	0	n/a	n/a	n/a	n/a	n/a
3261.2568359375	n/a	RECOG_TARGET	3339527	n/a	LTP339	ltpFR	3	4	1	CANVAS	234	5	0	n/a	n/a	n/a	n/a	n/a
3262.0009765625	n/a	RECOG_RESP	3340289	n/a	LTP339	ltpFR	3	4	1	CANVAS	234	n/a	0	n/a	n/a	n/a	n/a	n/a
3262.4541015625	n/a	RECOG_CONF	3340753	n/a	LTP339	ltpFR	3	4	1	CANVAS	234	5	0	n/a	n/a	n/a	n/a	n/a
3264.0234375	n/a	RECOG_TARGET	3342360	n/a	LTP339	ltpFR	3	4	1	WINNER	1615	5	1	n/a	n/a	n/a	n/a	n/a
3264.5712890625	n/a	RECOG_RESP	3342921	n/a	LTP339	ltpFR	3	4	1	WINNER	1615	n/a	1	n/a	n/a	n/a	n/a	n/a
3265.0439453125	n/a	RECOG_CONF	3343405	n/a	LTP339	ltpFR	3	4	1	WINNER	1615	5	1	n/a	n/a	n/a	n/a	n/a
3266.603515625	n/a	RECOG_LURE	3345002	n/a	LTP339	ltpFR	3	4	n/a	DIRT	472	4	n/a	n/a	n/a	n/a	n/a	n/a
3267.3798828125	n/a	RECOG_RESP	3345797	n/a	LTP339	ltpFR	3	4	n/a	DIRT	472	n/a	n/a	n/a	n/a	n/a	n/a	n/a
3267.8134765625	n/a	RECOG_CONF	3346241	n/a	LTP339	ltpFR	3	4	n/a	DIRT	472	4	n/a	n/a	n/a	n/a	n/a	n/a
3269.4365234375	n/a	RECOG_TARGET	3347903	n/a	LTP339	ltpFR	3	4	-1	TABLET	1427	4	-1	n/a	n/a	n/a	n/a	n/a
3270.791015625	n/a	RECOG_RESP	3349290	n/a	LTP339	ltpFR	3	4	-1	TABLET	1427	n/a	-1	n/a	n/a	n/a	n/a	n/a
3271.3740234375	n/a	RECOG_CONF	3349887	n/a	LTP339	ltpFR	3	4	-1	TABLET	1427	4	-1	n/a	n/a	n/a	n/a	n/a
3272.8173828125	n/a	RECOG_LURE	3351365	n/a	LTP339	ltpFR	3	4	n/a	FLORIDA	582	5	n/a	n/a	n/a	n/a	n/a	n/a
3273.556640625	n/a	RECOG_RESP	3352122	n/a	LTP339	ltpFR	3	4	n/a	FLORIDA	582	n/a	n/a	n/a	n/a	n/a	n/a	n/a
3273.9638671875	n/a	RECOG_CONF	3352539	n/a	LTP339	ltpFR	3	4	n/a	FLORIDA	582	5	n/a	n/a	n/a	n/a	n/a	n/a
3275.5166015625	n/a	RECOG_LURE	3354129	n/a	LTP339	ltpFR	3	4	n/a	DANDRUFF	439	5	n/a	n/a	n/a	n/a	n/a	n/a
3276.19921875	n/a	RECOG_RESP	3354828	n/a	LTP339	ltpFR	3	4	n/a	DANDRUFF	439	n/a	n/a	n/a	n/a	n/a	n/a	n/a
3276.583984375	n/a	RECOG_CONF	3355222	n/a	LTP339	ltpFR	3	4	n/a	DANDRUFF	439	5	n/a	n/a	n/a	n/a	n/a	n/a
3278.2158203125	n/a	RECOG_TARGET	3356893	n/a	LTP339	ltpFR	3	4	0	DINER	467	3	1	n/a	n/a	n/a	n/a	n/a
3279.0009765625	n/a	RECOG_RESP	3357697	n/a	LTP339	ltpFR	3	4	0	DINER	467	n/a	1	n/a	n/a	n/a	n/a	n/a
3279.62109375	n/a	RECOG_CONF	3358332	n/a	LTP339	ltpFR	3	4	0	DINER	467	3	1	n/a	n/a	n/a	n/a	n/a
3281.1474609375	n/a	RECOG_LURE	3359895	n/a	LTP339	ltpFR	3	4	n/a	BANDANNA	80	3	n/a	n/a	n/a	n/a	n/a	n/a
3282.3408203125	n/a	RECOG_RESP	3361117	n/a	LTP339	ltpFR	3	4	n/a	BANDANNA	80	n/a	n/a	n/a	n/a	n/a	n/a	n/a
3283.0615234375	n/a	RECOG_CONF	3361855	n/a	LTP339	ltpFR	3	4	n/a	BANDANNA	80	3	n/a	n/a	n/a	n/a	n/a	n/a
3286.087890625	n/a	REC_START	3364954	n/a	LTP339	ltpFR	3	5	n/a	n/a	n/a	n/a	n/a	n/a	n/a	n/a	n/a	n/a
3286.1123046875	n/a	RECOG_TARGET	3364979	n/a	LTP339	ltpFR	3	5	-1	FLESH	579	4	-1	n/a	n/a	n/a	n/a	n/a
3286.8720703125	n/a	RECOG_RESP	3365757	n/a	LTP339	ltpFR	3	5	-1	FLESH	579	n/a	-1	n/a	n/a	n/a	n/a	n/a
3287.3349609375	n/a	RECOG_CONF	3366231	n/a	LTP339	ltpFR	3	5	-1	FLESH	579	4	-1	n/a	n/a	n/a	n/a	n/a
3288.7431640625	n/a	RECOG_LURE	3367673	n/a	LTP339	ltpFR	3	5	n/a	GERM	632	5	n/a	n/a	n/a	n/a	n/a	n/a
3289.5009765625	n/a	RECOG_RESP	3368449	n/a	LTP339	ltpFR	3	5	n/a	GERM	632	n/a	n/a	n/a	n/a	n/a	n/a	n/a
3289.875	n/a	RECOG_CONF	3368832	n/a	LTP339	ltpFR	3	5	n/a	GERM	632	5	n/a	n/a	n/a	n/a	n/a	n/a
3291.42578125	n/a	RECOG_TARGET	3370420	n/a	LTP339	ltpFR	3	5	0	WAND	1586	5	0	n/a	n/a	n/a	n/a	n/a
3292.2724609375	n/a	RECOG_RESP	3371287	n/a	LTP339	ltpFR	3	5	0	WAND	1586	n/a	0	n/a	n/a	n/a	n/a	n/a
3292.6953125	n/a	RECOG_CONF	3371720	n/a	LTP339	ltpFR	3	5	0	WAND	1586	5	0	n/a	n/a	n/a	n/a	n/a
3294.158203125	n/a	RECOG_TARGET	3373218	n/a	LTP339	ltpFR	3	5	1	SKYSCRAPER	1322	5	0	n/a	n/a	n/a	n/a	n/a
3294.8125	n/a	RECOG_RESP	3373888	n/a	LTP339	ltpFR	3	5	1	SKYSCRAPER	1322	n/a	0	n/a	n/a	n/a	n/a	n/a
3295.2353515625	n/a	RECOG_CONF	3374321	n/a	LTP339	ltpFR	3	5	1	SKYSCRAPER	1322	5	0	n/a	n/a	n/a	n/a	n/a
3296.65625	n/a	RECOG_LURE	3375776	n/a	LTP339	ltpFR	3	5	n/a	DIAL	457	5	n/a	n/a	n/a	n/a	n/a	n/a
3297.3310546875	n/a	RECOG_RESP	3376467	n/a	LTP339	ltpFR	3	5	n/a	DIAL	457	n/a	n/a	n/a	n/a	n/a	n/a	n/a
3297.705078125	n/a	RECOG_CONF	3376850	n/a	LTP339	ltpFR	3	5	n/a	DIAL	457	5	n/a	n/a	n/a	n/a	n/a	n/a
3299.421875	n/a	RECOG_TARGET	3378608	n/a	LTP339	ltpFR	3	5	0	PEPPER	1047	5	0	n/a	n/a	n/a	n/a	n/a
3300.0615234375	n/a	RECOG_RESP	3379263	n/a	LTP339	ltpFR	3	5	0	PEPPER	1047	n/a	0	n/a	n/a	n/a	n/a	n/a
3300.4951171875	n/a	RECOG_CONF	3379707	n/a	LTP339	ltpFR	3	5	0	PEPPER	1047	5	0	n/a	n/a	n/a	n/a	n/a
3301.9208984375	n/a	RECOG_LURE	3381167	n/a	LTP339	ltpFR	3	5	n/a	BULL	193	4	n/a	n/a	n/a	n/a	n/a	n/a
3302.3515625	n/a	RECOG_RESP	3381608	n/a	LTP339	ltpFR	3	5	n/a	BULL	193	n/a	n/a	n/a	n/a	n/a	n/a	n/a
3302.884765625	n/a	RECOG_CONF	3382154	n/a	LTP339	ltpFR	3	5	n/a	BULL	193	4	n/a	n/a	n/a	n/a	n/a	n/a
3304.5029296875	n/a	RECOG_TARGET	3383811	n/a	LTP339	ltpFR	3	5	0	PUBLISHER	1137	1	0	n/a	n/a	n/a	n/a	n/a
3305.111328125	n/a	RECOG_RESP	3384434	n/a	LTP339	ltpFR	3	5	0	PUBLISHER	1137	n/a	0	n/a	n/a	n/a	n/a	n/a
3305.8701171875	n/a	RECOG_CONF	3385211	n/a	LTP339	ltpFR	3	5	0	PUBLISHER	1137	1	0	n/a	n/a	n/a	n/a	n/a
3307.4189453125	n/a	RECOG_TARGET	3386797	n/a	LTP339	ltpFR	3	5	0	COUCH	386	5	1	n/a	n/a	n/a	n/a	n/a
3307.8818359375	n/a	RECOG_RESP	3387271	n/a	LTP339	ltpFR	3	5	0	COUCH	386	n/a	1	n/a	n/a	n/a	n/a	n/a
3308.6044921875	n/a	RECOG_CONF	3388011	n/a	LTP339	ltpFR	3	5	0	COUCH	386	5	1	n/a	n/a	n/a	n/a	n/a
3310.0009765625	n/a	RECOG_TARGET	3389441	n/a	LTP339	ltpFR	3	5	1	MANSION	864	5	0	n/a	n/a	n/a	n/a	n/a
3310.6220703125	n/a	RECOG_RESP	3390077	n/a	LTP339	ltpFR	3	5	1	MANSION	864	n/a	0	n/a	n/a	n/a	n/a	n/a
3311.07421875	n/a	RECOG_CONF	3390540	n/a	LTP339	ltpFR	3	5	1	MANSION	864	5	0	n/a	n/a	n/a	n/a	n/a
3312.5322265625	n/a	RECOG_TARGET	3392033	n/a	LTP339	ltpFR	3	5	1	SIGNATURE	1306	5	0	n/a	n/a	n/a	n/a	n/a
3313.0712890625	n/a	RECOG_RESP	3392585	n/a	LTP339	ltpFR	3	5	1	SIGNATURE	1306	n/a	0	n/a	n/a	n/a	n/a	n/a
3313.544921875	n/a	RECOG_CONF	3393070	n/a	LTP339	ltpFR	3	5	1	SIGNATURE	1306	5	0	n/a	n/a	n/a	n/a	n/a
3314.96484375	n/a	RECOG_LURE	3394524	n/a	LTP339	ltpFR	3	5	n/a	COBBLER	335	5	n/a	n/a	n/a	n/a	n/a	n/a
3315.6640625	n/a	RECOG_RESP	3395240	n/a	LTP339	ltpFR	3	5	n/a	COBBLER	335	n/a	n/a	n/a	n/a	n/a	n/a	n/a
3316.0947265625	n/a	RECOG_CONF	3395681	n/a	LTP339	ltpFR	3	5	n/a	COBBLER	335	5	n/a	n/a	n/a	n/a	n/a	n/a
3317.7119140625	n/a	RECOG_TARGET	3397337	n/a	LTP339	ltpFR	3	5	0	BARK	87	5	0	n/a	n/a	n/a	n/a	n/a
3318.8115234375	n/a	RECOG_RESP	3398463	n/a	LTP339	ltpFR	3	5	0	BARK	87	n/a	0	n/a	n/a	n/a	n/a	n/a
3319.25390625	n/a	RECOG_CONF	3398916	n/a	LTP339	ltpFR	3	5	0	BARK	87	5	0	n/a	n/a	n/a	n/a	n/a
3320.677734375	n/a	RECOG_TARGET	3400374	n/a	LTP339	ltpFR	3	5	-1	BUCKLE	185	5	-1	n/a	n/a	n/a	n/a	n/a
3321.37109375	n/a	RECOG_RESP	3401084	n/a	LTP339	ltpFR	3	5	-1	BUCKLE	185	n/a	-1	n/a	n/a	n/a	n/a	n/a
3321.7744140625	n/a	RECOG_CONF	3401497	n/a	LTP339	ltpFR	3	5	-1	BUCKLE	185	5	-1	n/a	n/a	n/a	n/a	n/a
3323.1943359375	n/a	RECOG_LURE	3402951	n/a	LTP339	ltpFR	3	5	n/a	SUNSET	1408	5	n/a	n/a	n/a	n/a	n/a	n/a
3323.900390625	n/a	RECOG_RESP	3403674	n/a	LTP339	ltpFR	3	5	n/a	SUNSET	1408	n/a	n/a	n/a	n/a	n/a	n/a	n/a
3324.404296875	n/a	RECOG_CONF	3404190	n/a	LTP339	ltpFR	3	5	n/a	SUNSET	1408	5	n/a	n/a	n/a	n/a	n/a	n/a
3325.8251953125	n/a	RECOG_TARGET	3405645	n/a	LTP339	ltpFR	3	5	0	UTENSIL	1542	5	0	n/a	n/a	n/a	n/a	n/a
3326.5712890625	n/a	RECOG_RESP	3406409	n/a	LTP339	ltpFR	3	5	0	UTENSIL	1542	n/a	0	n/a	n/a	n/a	n/a	n/a
3327.00390625	n/a	RECOG_CONF	3406852	n/a	LTP339	ltpFR	3	5	0	UTENSIL	1542	5	0	n/a	n/a	n/a	n/a	n/a
3328.5576171875	n/a	RECOG_TARGET	3408443	n/a	LTP339	ltpFR	3	5	1	LANDSCAPE	799	5	0	n/a	n/a	n/a	n/a	n/a
3329.0908203125	n/a	RECOG_RESP	3408989	n/a	LTP339	ltpFR	3	5	1	LANDSCAPE	799	n/a	0	n/a	n/a	n/a	n/a	n/a
3329.513671875	n/a	RECOG_CONF	3409422	n/a	LTP339	ltpFR	3	5	1	LANDSCAPE	799	5	0	n/a	n/a	n/a	n/a	n/a
3331.0400390625	n/a	RECOG_TARGET	3410985	n/a	LTP339	ltpFR	3	5	-1	HIKER	708	5	-1	n/a	n/a	n/a	n/a	n/a
3331.7412109375	n/a	RECOG_RESP	3411703	n/a	LTP339	ltpFR	3	5	-1	HIKER	708	n/a	-1	n/a	n/a	n/a	n/a	n/a
3332.154296875	n/a	RECOG_CONF	3412126	n/a	LTP339	ltpFR	3	5	-1	HIKER	708	5	-1	n/a	n/a	n/a	n/a	n/a
3333.6044921875	n/a	RECOG_TARGET	3413611	n/a	LTP339	ltpFR	3	5	0	WALRUS	1585	5	1	n/a	n/a	n/a	n/a	n/a
3334.1611328125	n/a	RECOG_RESP	3414181	n/a	LTP339	ltpFR	3	5	0	WALRUS	1585	n/a	1	n/a	n/a	n/a	n/a	n/a
3334.6142578125	n/a	RECOG_CONF	3414645	n/a	LTP339	ltpFR	3	5	0	WALRUS	1585	5	1	n/a	n/a	n/a	n/a	n/a
3336.1376953125	n/a	RECOG_TARGET	3416205	n/a	LTP339	ltpFR	3	5	-1	GROCERIES	663	5	-1	n/a	n/a	n/a	n/a	n/a
3336.7607421875	n/a	RECOG_RESP	3416843	n/a	LTP339	ltpFR	3	5	-1	GROCERIES	663	n/a	-1	n/a	n/a	n/a	n/a	n/a
3337.162109375	n/a	RECOG_CONF	3417254	n/a	LTP339	ltpFR	3	5	-1	GROCERIES	663	5	-1	n/a	n/a	n/a	n/a	n/a
3340.4267578125	n/a	REC_START	3420597	n/a	LTP339	ltpFR	3	6	n/a	n/a	n/a	n/a	n/a	n/a	n/a	n/a	n/a	n/a
3340.453125	n/a	RECOG_LURE	3420624	n/a	LTP339	ltpFR	3	6	n/a	PARSLEY	1016	4	n/a	n/a	n/a	n/a	n/a	n/a
3341.3203125	n/a	RECOG_RESP_VV	3421512	n/a	LTP339	ltpFR	3	6	n/a	PARSLEY	1016	n/a	n/a	n/a	n/a	n/a	n/a	n/a
3341.8798828125	n/a	RECOG_RESP	3422085	n/a	LTP339	ltpFR	3	6	n/a	PARSLEY	1016	n/a	n/a	n/a	n/a	n/a	n/a	n/a
3342.6240234375	n/a	RECOG_CONF	3422847	n/a	LTP339	ltpFR	3	6	n/a	PARSLEY	1016	4	n/a	n/a	n/a	n/a	n/a	n/a
3344.150390625	n/a	RECOG_TARGET	3424410	n/a	LTP339	ltpFR	3	6	1	ABDOMEN	1	1	0	n/a	n/a	n/a	n/a	n/a
3344.7509765625	n/a	RECOG_RESP	3425025	n/a	LTP339	ltpFR	3	6	1	ABDOMEN	1	n/a	0	n/a	n/a	n/a	n/a	n/a
3345.5888671875	n/a	RECOG_CONF	3425883	n/a	LTP339	ltpFR	3	6	1	ABDOMEN	1	1	0	n/a	n/a	n/a	n/a	n/a
3346.9326171875	n/a	RECOG_TARGET	3427259	n/a	LTP339	ltpFR	3	6	-1	VOLLEYBALL	1576	5	-1	n/a	n/a	n/a	n/a	n/a
3347.5107421875	n/a	RECOG_RESP	3427851	n/a	LTP339	ltpFR	3	6	-1	VOLLEYBALL	1576	n/a	-1	n/a	n/a	n/a	n/a	n/a
3347.9931640625	n/a	RECOG_CONF	3428345	n/a	LTP339	ltpFR	3	6	-1	VOLLEYBALL	1576	5	-1	n/a	n/a	n/a	n/a	n/a
3349.5146484375	n/a	RECOG_LURE	3429903	n/a	LTP339	ltpFR	3	6	n/a	CURB	426	5	n/a	n/a	n/a	n/a	n/a	n/a
3350.1787109375	n/a	RECOG_RESP	3430583	n/a	LTP339	ltpFR	3	6	n/a	CURB	426	n/a	n/a	n/a	n/a	n/a	n/a	n/a
3350.673828125	n/a	RECOG_CONF	3431090	n/a	LTP339	ltpFR	3	6	n/a	CURB	426	5	n/a	n/a	n/a	n/a	n/a	n/a
3352.0302734375	n/a	RECOG_LURE	3432479	n/a	LTP339	ltpFR	3	6	n/a	PADDLE	1000	n/a	n/a	n/a	n/a	n/a	n/a	n/a
3354.2294921875	n/a	RECOG_TARGET	3434731	n/a	LTP339	ltpFR	3	6	0	COPIER	377	4	1	n/a	n/a	n/a	n/a	n/a
3358.6201171875	n/a	RECOG_RESP	3439227	n/a	LTP339	ltpFR	3	6	0	COPIER	377	n/a	1	n/a	n/a	n/a	n/a	n/a
3359.373046875	n/a	RECOG_CONF	3439998	n/a	LTP339	ltpFR	3	6	0	COPIER	377	4	1	n/a	n/a	n/a	n/a	n/a
3360.7255859375	n/a	RECOG_TARGET	3441383	n/a	LTP339	ltpFR	3	6	0	DISC	473	5	0	n/a	n/a	n/a	n/a	n/a
3361.740234375	n/a	RECOG_RESP	3442422	n/a	LTP339	ltpFR	3	6	0	DISC	473	n/a	0	n/a	n/a	n/a	n/a	n/a
3362.1826171875	n/a	RECOG_CONF	3442875	n/a	LTP339	ltpFR	3	6	0	DISC	473	5	0	n/a	n/a	n/a	n/a	n/a
3363.5244140625	n/a	RECOG_TARGET	3444249	n/a	LTP339	ltpFR	3	6	0	SHEEP	1278	5	1	n/a	n/a	n/a	n/a	n/a
3364.1201171875	n/a	RECOG_RESP	3444859	n/a	LTP339	ltpFR	3	6	0	SHEEP	1278	n/a	1	n/a	n/a	n/a	n/a	n/a
3364.5234375	n/a	RECOG_CONF	3445272	n/a	LTP339	ltpFR	3	6	0	SHEEP	1278	5	1	n/a	n/a	n/a	n/a	n/a
3365.9404296875	n/a	RECOG_LURE	3446723	n/a	LTP339	ltpFR	3	6	n/a	DRIVER	499	1	n/a	n/a	n/a	n/a	n/a	n/a
3366.740234375	n/a	RECOG_RESP	3447542	n/a	LTP339	ltpFR	3	6	n/a	DRIVER	499	n/a	n/a	n/a	n/a	n/a	n/a	n/a
3367.3876953125	n/a	RECOG_CONF	3448205	n/a	LTP339	ltpFR	3	6	n/a	DRIVER	499	1	n/a	n/a	n/a	n/a	n/a	n/a
3368.7705078125	n/a	RECOG_LURE	3449621	n/a	LTP339	ltpFR	3	6	n/a	DWARF	510	5	n/a	n/a	n/a	n/a	n/a	n/a
3369.779296875	n/a	RECOG_RESP	3450654	n/a	LTP339	ltpFR	3	6	n/a	DWARF	510	n/a	n/a	n/a	n/a	n/a	n/a	n/a
3370.142578125	n/a	RECOG_CONF	3451026	n/a	LTP339	ltpFR	3	6	n/a	DWARF	510	5	n/a	n/a	n/a	n/a	n/a	n/a
3371.685546875	n/a	RECOG_LURE	3452606	n/a	LTP339	ltpFR	3	6	n/a	CARROT	249	4	n/a	n/a	n/a	n/a	n/a	n/a
3372.6884765625	n/a	RECOG_RESP	3453633	n/a	LTP339	ltpFR	3	6	n/a	CARROT	249	n/a	n/a	n/a	n/a	n/a	n/a	n/a
3373.1123046875	n/a	RECOG_CONF	3454067	n/a	LTP339	ltpFR	3	6	n/a	CARROT	249	4	n/a	n/a	n/a	n/a	n/a	n/a
3374.8017578125	n/a	RECOG_TARGET	3455797	n/a	LTP339	ltpFR	3	6	0	CELLAR	267	5	1	n/a	n/a	n/a	n/a	n/a
3375.529296875	n/a	RECOG_RESP	3456542	n/a	LTP339	ltpFR	3	6	0	CELLAR	267	n/a	1	n/a	n/a	n/a	n/a	n/a
