onset	duration	trial_type	sample	stim_file	subject	experiment	session	trial	task	item_name	item_num	recog_conf	resp	color_b	color_g	color_r	case	font
244.362	n/a	SESS_START	122181	n/a	LTP110	ltpFR	16	n/a	n/a	n/a	n/a	4	n/a	n/a	n/a	n/a	n/a	n/a
275.338	n/a	WORD	137669	wordpools/wasnorm_wordpool.txt	LTP110	ltpFR	16	1	1	VICTIM	1562	n/a	1	1	0.412841796875	0.57763671875	upper	../fonts/amplitud.ttf
279.22	n/a	WORD	139610	wordpools/wasnorm_wordpool.txt	LTP110	ltpFR	16	1	1	BUTTON	207	n/a	0	1	0.412841796875	0.57763671875	upper	../fonts/amplitud.ttf
283.118	n/a	WORD	141559	wordpools/wasnorm_wordpool.txt	LTP110	ltpFR	16	1	1	RESTAURANT	1187	n/a	0	1	0.412841796875	0.57763671875	upper	../fonts/amplitud.ttf
287.192	n/a	WORD	143596	wordpools/wasnorm_wordpool.txt	LTP110	ltpFR	16	1	1	BEET	115	n/a	0	1	0.412841796875	0.57763671875	upper	../fonts/amplitud.ttf
291.016	n/a	WORD	145508	wordpools/wasnorm_wordpool.txt	LTP110	ltpFR	16	1	1	AMBULANCE	19	n/a	0	1	0.412841796875	0.57763671875	upper	../fonts/amplitud.ttf
295.214	n/a	WORD	147607	wordpools/wasnorm_wordpool.txt	LTP110	ltpFR	16	1	0	MAILBOX	857	n/a	1	0	0.5869140625	0.422607421875	lower	../fonts/zerothre.ttf
299.354	n/a	WORD	149677	wordpools/wasnorm_wordpool.txt	LTP110	ltpFR	16	1	0	CUPBOARD	425	n/a	1	0	0.5869140625	0.422607421875	lower	../fonts/zerothre.ttf
303.428	n/a	WORD	151714	wordpools/wasnorm_wordpool.txt	LTP110	ltpFR	16	1	0	PICKLE	1059	n/a	0	0	0.5869140625	0.422607421875	lower	../fonts/zerothre.ttf
307.394	n/a	WORD	153697	wordpools/wasnorm_wordpool.txt	LTP110	ltpFR	16	1	0	TART	1436	n/a	0	0	0.5869140625	0.422607421875	lower	../fonts/zerothre.ttf
311.518	n/a	WORD	155759	wordpools/wasnorm_wordpool.txt	LTP110	ltpFR	16	1	1	SUPPER	1411	n/a	0	1	0.412841796875	0.57763671875	upper	../fonts/amplitud.ttf
315.566	n/a	WORD	157783	wordpools/wasnorm_wordpool.txt	LTP110	ltpFR	16	1	1	PORCUPINE	1107	n/a	1	1	0.412841796875	0.57763671875	upper	../fonts/amplitud.ttf
319.774	n/a	WORD	159887	wordpools/wasnorm_wordpool.txt	LTP110	ltpFR	16	1	1	PENNY	1045	n/a	0	1	0.412841796875	0.57763671875	upper	../fonts/amplitud.ttf
323.914	n/a	WORD	161957	wordpools/wasnorm_wordpool.txt	LTP110	ltpFR	16	1	0	CUFF	423	n/a	0	0	0.5869140625	0.422607421875	lower	../fonts/zerothre.ttf
328.012	n/a	WORD	164006	wordpools/wasnorm_wordpool.txt	LTP110	ltpFR	16	1	0	MARINE	869	n/a	1	0	0.5869140625	0.422607421875	lower	../fonts/zerothre.ttf
332.104	n/a	WORD	166052	wordpools/wasnorm_wordpool.txt	LTP110	ltpFR	16	1	0	TEENAGER	1444	n/a	1	0	0.5869140625	0.422607421875	lower	../fonts/zerothre.ttf
335.994	n/a	WORD	167997	wordpools/wasnorm_wordpool.txt	LTP110	ltpFR	16	1	0	KID	775	n/a	1	0	0.5869140625	0.422607421875	lower	../fonts/zerothre.ttf
341.818	n/a	REC_START	170909	n/a	LTP110	ltpFR	16	1	n/a	n/a	n/a	n/a	n/a	n/a	n/a	n/a	n/a	n/a
342.49	n/a	REC_WORD	171245	wordpools/wasnorm_wordpool.txt	LTP110	ltpFR	16	1	0	MARINE	869	n/a	1	n/a	n/a	n/a	n/a	n/a
344.73	n/a	REC_WORD	172365	wordpools/wasnorm_wordpool.txt	LTP110	ltpFR	16	1	0	TEENAGER	1444	n/a	1	n/a	n/a	n/a	n/a	n/a
345.698	n/a	REC_WORD	172849	wordpools/wasnorm_wordpool.txt	LTP110	ltpFR	16	1	0	KID	775	n/a	1	n/a	n/a	n/a	n/a	n/a
347.186	n/a	REC_WORD	173593	wordpools/wasnorm_wordpool.txt	LTP110	ltpFR	16	1	1	VICTIM	1562	n/a	1	n/a	n/a	n/a	n/a	n/a
348.158	n/a	REC_WORD	174079	wordpools/wasnorm_wordpool.txt	LTP110	ltpFR	16	1	1	BUTTON	207	n/a	0	n/a	n/a	n/a	n/a	n/a
350.468	n/a	REC_WORD	175234	wordpools/wasnorm_wordpool.txt	LTP110	ltpFR	16	1	1	RESTAURANT	1187	n/a	0	n/a	n/a	n/a	n/a	n/a
351.562	n/a	REC_WORD	175781	wordpools/wasnorm_wordpool.txt	LTP110	ltpFR	16	1	1	BEET	115	n/a	0	n/a	n/a	n/a	n/a	n/a
353.85	n/a	REC_WORD	176925	wordpools/wasnorm_wordpool.txt	LTP110	ltpFR	16	1	0	MAILBOX	857	n/a	1	n/a	n/a	n/a	n/a	n/a
354.768	n/a	REC_WORD	177384	wordpools/wasnorm_wordpool.txt	LTP110	ltpFR	16	1	0	CUPBOARD	425	n/a	1	n/a	n/a	n/a	n/a	n/a
355.962	n/a	REC_WORD	177981	wordpools/wasnorm_wordpool.txt	LTP110	ltpFR	16	1	0	PICKLE	1059	n/a	0	n/a	n/a	n/a	n/a	n/a
356.954	n/a	REC_WORD	178477	wordpools/wasnorm_wordpool.txt	LTP110	ltpFR	16	1	0	TART	1436	n/a	0	n/a	n/a	n/a	n/a	n/a
381.924	n/a	REC_WORD	190962	wordpools/wasnorm_wordpool.txt	LTP110	ltpFR	16	1	0	CUFF	423	n/a	0	n/a	n/a	n/a	n/a	n/a
385.994	n/a	REC_WORD	192997	wordpools/wasnorm_wordpool.txt	LTP110	ltpFR	16	1	1	PENNY	1045	n/a	0	n/a	n/a	n/a	n/a	n/a
395.988	n/a	REC_WORD	197994	wordpools/wasnorm_wordpool.txt	LTP110	ltpFR	16	1	0	KID	775	n/a	1	n/a	n/a	n/a	n/a	n/a
420.226	n/a	WORD	210113	wordpools/wasnorm_wordpool.txt	LTP110	ltpFR	16	2	0	NEUTRON	947	n/a	0	0	0.5869140625	0.422607421875	lower	../fonts/zerothre.ttf
424.184	n/a	WORD	212092	wordpools/wasnorm_wordpool.txt	LTP110	ltpFR	16	2	0	APRON	35	n/a	1	0	0.5869140625	0.422607421875	lower	../fonts/zerothre.ttf
428.024	n/a	WORD	214012	wordpools/wasnorm_wordpool.txt	LTP110	ltpFR	16	2	0	WHEEL	1603	n/a	1	0	0.5869140625	0.422607421875	lower	../fonts/zerothre.ttf
431.972	n/a	WORD	215986	wordpools/wasnorm_wordpool.txt	LTP110	ltpFR	16	2	1	SALESMAN	1225	n/a	1	1	0.412841796875	0.57763671875	upper	../fonts/amplitud.ttf
436.004	n/a	WORD	218002	wordpools/wasnorm_wordpool.txt	LTP110	ltpFR	16	2	1	RUST	1219	n/a	0	1	0.412841796875	0.57763671875	upper	../fonts/amplitud.ttf
440.112	n/a	WORD	220056	wordpools/wasnorm_wordpool.txt	LTP110	ltpFR	16	2	1	MINER	896	n/a	1	1	0.412841796875	0.57763671875	upper	../fonts/amplitud.ttf
444.32	n/a	WORD	222160	wordpools/wasnorm_wordpool.txt	LTP110	ltpFR	16	2	1	BAKER	71	n/a	1	1	0.412841796875	0.57763671875	upper	../fonts/amplitud.ttf
448.494	n/a	WORD	224247	wordpools/wasnorm_wordpool.txt	LTP110	ltpFR	16	2	0	GAUZE	626	n/a	0	0	0.5869140625	0.422607421875	lower	../fonts/zerothre.ttf
452.658	n/a	WORD	226329	wordpools/wasnorm_wordpool.txt	LTP110	ltpFR	16	2	0	PITCHFORK	1078	n/a	1	0	0.5869140625	0.422607421875	lower	../fonts/zerothre.ttf
456.766	n/a	WORD	228383	wordpools/wasnorm_wordpool.txt	LTP110	ltpFR	16	2	1	ROACH	1195	n/a	1	1	0.412841796875	0.57763671875	upper	../fonts/amplitud.ttf
460.722	n/a	WORD	230361	wordpools/wasnorm_wordpool.txt	LTP110	ltpFR	16	2	1	REFEREE	1178	n/a	1	1	0.412841796875	0.57763671875	upper	../fonts/amplitud.ttf
464.696	n/a	WORD	232348	wordpools/wasnorm_wordpool.txt	LTP110	ltpFR	16	2	1	PLANT	1083	n/a	0	1	0.412841796875	0.57763671875	upper	../fonts/amplitud.ttf
468.586	n/a	WORD	234293	wordpools/wasnorm_wordpool.txt	LTP110	ltpFR	16	2	1	SYRINGE	1424	n/a	0	1	0.412841796875	0.57763671875	upper	../fonts/amplitud.ttf
472.51	n/a	WORD	236255	wordpools/wasnorm_wordpool.txt	LTP110	ltpFR	16	2	0	TUB	1514	n/a	1	0	0.5869140625	0.422607421875	lower	../fonts/zerothre.ttf
476.634	n/a	WORD	238317	wordpools/wasnorm_wordpool.txt	LTP110	ltpFR	16	2	0	LAGOON	795	n/a	1	0	0.5869140625	0.422607421875	lower	../fonts/zerothre.ttf
480.818	n/a	WORD	240409	wordpools/wasnorm_wordpool.txt	LTP110	ltpFR	16	2	0	NUCLEUS	961	n/a	0	0	0.5869140625	0.422607421875	lower	../fonts/zerothre.ttf
486.658	n/a	REC_START	243329	n/a	LTP110	ltpFR	16	2	n/a	n/a	n/a	n/a	n/a	n/a	n/a	n/a	n/a	n/a
487.092	n/a	REC_WORD	243546	wordpools/wasnorm_wordpool.txt	LTP110	ltpFR	16	2	0	NUCLEUS	961	n/a	0	n/a	n/a	n/a	n/a	n/a
487.96	n/a	REC_WORD	243980	wordpools/wasnorm_wordpool.txt	LTP110	ltpFR	16	2	0	NEUTRON	947	n/a	0	n/a	n/a	n/a	n/a	n/a
489.746	n/a	REC_WORD	244873	wordpools/wasnorm_wordpool.txt	LTP110	ltpFR	16	2	0	APRON	35	n/a	1	n/a	n/a	n/a	n/a	n/a
490.424	n/a	REC_WORD	245212	wordpools/wasnorm_wordpool.txt	LTP110	ltpFR	16	2	0	WHEEL	1603	n/a	1	n/a	n/a	n/a	n/a	n/a
491.282	n/a	REC_WORD	245641	wordpools/wasnorm_wordpool.txt	LTP110	ltpFR	16	2	1	RUST	1219	n/a	0	n/a	n/a	n/a	n/a	n/a
492.554	n/a	REC_WORD	246277	wordpools/wasnorm_wordpool.txt	LTP110	ltpFR	16	2	1	SALESMAN	1225	n/a	1	n/a	n/a	n/a	n/a	n/a
494.146	n/a	REC_WORD	247073	wordpools/wasnorm_wordpool.txt	LTP110	ltpFR	16	2	1	BAKER	71	n/a	1	n/a	n/a	n/a	n/a	n/a
495.118	n/a	REC_WORD	247559	wordpools/wasnorm_wordpool.txt	LTP110	ltpFR	16	2	1	MINER	896	n/a	1	n/a	n/a	n/a	n/a	n/a
496.91	n/a	REC_WORD	248455	wordpools/wasnorm_wordpool.txt	LTP110	ltpFR	16	2	0	GAUZE	626	n/a	0	n/a	n/a	n/a	n/a	n/a
498.106	n/a	REC_WORD	249053	wordpools/wasnorm_wordpool.txt	LTP110	ltpFR	16	2	0	PITCHFORK	1078	n/a	1	n/a	n/a	n/a	n/a	n/a
503.016	n/a	REC_WORD	251508	wordpools/wasnorm_wordpool.txt	LTP110	ltpFR	16	2	0	LAGOON	795	n/a	1	n/a	n/a	n/a	n/a	n/a
504.174	n/a	REC_WORD	252087	wordpools/wasnorm_wordpool.txt	LTP110	ltpFR	16	2	0	TUB	1514	n/a	1	n/a	n/a	n/a	n/a	n/a
515.244	n/a	REC_WORD	257622	wordpools/wasnorm_wordpool.txt	LTP110	ltpFR	16	2	n/a	KITCHEN	778	n/a	n/a	n/a	n/a	n/a	n/a	n/a
520.832	n/a	REC_WORD	260416	wordpools/wasnorm_wordpool.txt	LTP110	ltpFR	16	2	1	PLANT	1083	n/a	0	n/a	n/a	n/a	n/a	n/a
535.948	n/a	REC_WORD	267974	wordpools/wasnorm_wordpool.txt	LTP110	ltpFR	16	2	n/a	PORCH	1106	n/a	n/a	n/a	n/a	n/a	n/a	n/a
565.64	n/a	WORD	282820	wordpools/wasnorm_wordpool.txt	LTP110	ltpFR	16	3	1	COBBLER	335	n/a	0	1	0.412841796875	0.57763671875	upper	../fonts/amplitud.ttf
569.832	n/a	WORD	284916	wordpools/wasnorm_wordpool.txt	LTP110	ltpFR	16	3	1	DASHBOARD	441	n/a	0	1	0.412841796875	0.57763671875	upper	../fonts/amplitud.ttf
573.704	n/a	WORD	286852	wordpools/wasnorm_wordpool.txt	LTP110	ltpFR	16	3	1	CARAVAN	242	n/a	0	1	0.412841796875	0.57763671875	upper	../fonts/amplitud.ttf
577.888	n/a	WORD	288944	wordpools/wasnorm_wordpool.txt	LTP110	ltpFR	16	3	0	DENTIST	447	n/a	1	0	0.5869140625	0.422607421875	lower	../fonts/zerothre.ttf
582.036	n/a	WORD	291018	wordpools/wasnorm_wordpool.txt	LTP110	ltpFR	16	3	0	PILLOW	1069	n/a	1	0	0.5869140625	0.422607421875	lower	../fonts/zerothre.ttf
586.118	n/a	WORD	293059	wordpools/wasnorm_wordpool.txt	LTP110	ltpFR	16	3	0	CREAM	402	n/a	0	0	0.5869140625	0.422607421875	lower	../fonts/zerothre.ttf
590.084	n/a	WORD	295042	wordpools/wasnorm_wordpool.txt	LTP110	ltpFR	16	3	0	DOLL	481	n/a	0	0	0.5869140625	0.422607421875	lower	../fonts/zerothre.ttf
594.132	n/a	WORD	297066	wordpools/wasnorm_wordpool.txt	LTP110	ltpFR	16	3	0	SHACK	1273	n/a	1	0	0.5869140625	0.422607421875	lower	../fonts/zerothre.ttf
598.056	n/a	WORD	299028	wordpools/wasnorm_wordpool.txt	LTP110	ltpFR	16	3	0	CARDINAL	244	n/a	0	0	0.5869140625	0.422607421875	lower	../fonts/zerothre.ttf
602.014	n/a	WORD	301007	wordpools/wasnorm_wordpool.txt	LTP110	ltpFR	16	3	1	ASSISTANT	48	n/a	1	1	0.412841796875	0.57763671875	upper	../fonts/amplitud.ttf
606.046	n/a	WORD	303023	wordpools/wasnorm_wordpool.txt	LTP110	ltpFR	16	3	1	CHIPMUNK	304	n/a	1	1	0.412841796875	0.57763671875	upper	../fonts/amplitud.ttf
609.978	n/a	WORD	304989	wordpools/wasnorm_wordpool.txt	LTP110	ltpFR	16	3	0	SCAPEGOAT	1244	n/a	1	0	0.5869140625	0.422607421875	lower	../fonts/zerothre.ttf
613.826	n/a	WORD	306913	wordpools/wasnorm_wordpool.txt	LTP110	ltpFR	16	3	0	CLERK	321	n/a	1	0	0.5869140625	0.422607421875	lower	../fonts/zerothre.ttf
617.776	n/a	WORD	308888	wordpools/wasnorm_wordpool.txt	LTP110	ltpFR	16	3	1	PELICAN	1039	n/a	1	1	0.412841796875	0.57763671875	upper	../fonts/amplitud.ttf
621.898	n/a	WORD	310949	wordpools/wasnorm_wordpool.txt	LTP110	ltpFR	16	3	1	PATRIOT	1026	n/a	1	1	0.412841796875	0.57763671875	upper	../fonts/amplitud.ttf
625.906	n/a	WORD	312953	wordpools/wasnorm_wordpool.txt	LTP110	ltpFR	16	3	1	PLATE	1086	n/a	0	1	0.412841796875	0.57763671875	upper	../fonts/amplitud.ttf
631.638	n/a	REC_START	315819	n/a	LTP110	ltpFR	16	3	n/a	n/a	n/a	n/a	n/a	n/a	n/a	n/a	n/a	n/a
632.59	n/a	REC_WORD	316295	wordpools/wasnorm_wordpool.txt	LTP110	ltpFR	16	3	1	PATRIOT	1026	n/a	1	n/a	n/a	n/a	n/a	n/a
633.608	n/a	REC_WORD	316804	wordpools/wasnorm_wordpool.txt	LTP110	ltpFR	16	3	1	PLATE	1086	n/a	0	n/a	n/a	n/a	n/a	n/a
650.036	n/a	REC_WORD	325018	wordpools/wasnorm_wordpool.txt	LTP110	ltpFR	16	3	0	CUPBOARD	425	n/a	1	n/a	n/a	n/a	n/a	n/a
664.37	n/a	REC_WORD	332185	wordpools/wasnorm_wordpool.txt	LTP110	ltpFR	16	3	1	CHIPMUNK	304	n/a	1	n/a	n/a	n/a	n/a	n/a
669.618	n/a	REC_WORD	334809	wordpools/wasnorm_wordpool.txt	LTP110	ltpFR	16	3	1	DASHBOARD	441	n/a	0	n/a	n/a	n/a	n/a	n/a
670.716	n/a	REC_WORD	335358	wordpools/wasnorm_wordpool.txt	LTP110	ltpFR	16	3	0	DENTIST	447	n/a	1	n/a	n/a	n/a	n/a	n/a
671.66	n/a	REC_WORD	335830	wordpools/wasnorm_wordpool.txt	LTP110	ltpFR	16	3	0	PILLOW	1069	n/a	1	n/a	n/a	n/a	n/a	n/a
673.146	n/a	REC_WORD	336573	wordpools/wasnorm_wordpool.txt	LTP110	ltpFR	16	3	1	COBBLER	335	n/a	0	n/a	n/a	n/a	n/a	n/a
676.024	n/a	REC_WORD	338012	wordpools/wasnorm_wordpool.txt	LTP110	ltpFR	16	3	0	DOLL	481	n/a	0	n/a	n/a	n/a	n/a	n/a
676.822	n/a	REC_WORD	338411	wordpools/wasnorm_wordpool.txt	LTP110	ltpFR	16	3	0	CREAM	402	n/a	0	n/a	n/a	n/a	n/a	n/a
681.856	n/a	REC_WORD	340928	wordpools/wasnorm_wordpool.txt	LTP110	ltpFR	16	3	1	CARAVAN	242	n/a	0	n/a	n/a	n/a	n/a	n/a
683.562	n/a	REC_WORD	341781	wordpools/wasnorm_wordpool.txt	LTP110	ltpFR	16	3	0	SHACK	1273	n/a	1	n/a	n/a	n/a	n/a	n/a
687.16	n/a	REC_WORD	343580	wordpools/wasnorm_wordpool.txt	LTP110	ltpFR	16	3	0	CARDINAL	244	n/a	0	n/a	n/a	n/a	n/a	n/a
709.522	n/a	WORD	354761	wordpools/wasnorm_wordpool.txt	LTP110	ltpFR	16	4	0	MUSEUM	933	n/a	1	0	0.5869140625	0.422607421875	lower	../fonts/zerothre.ttf
713.68	n/a	WORD	356840	wordpools/wasnorm_wordpool.txt	LTP110	ltpFR	16	4	0	ANCESTOR	20	n/a	1	0	0.5869140625	0.422607421875	lower	../fonts/zerothre.ttf
717.794	n/a	WORD	358897	wordpools/wasnorm_wordpool.txt	LTP110	ltpFR	16	4	0	CLOVE	329	n/a	0	0	0.5869140625	0.422607421875	lower	../fonts/zerothre.ttf
721.986	n/a	WORD	360993	wordpools/wasnorm_wordpool.txt	LTP110	ltpFR	16	4	0	DIAPER	459	n/a	1	0	0.5869140625	0.422607421875	lower	../fonts/zerothre.ttf
725.858	n/a	WORD	362929	wordpools/wasnorm_wordpool.txt	LTP110	ltpFR	16	4	0	JELLO	754	n/a	0	0	0.5869140625	0.422607421875	lower	../fonts/zerothre.ttf
730.0	n/a	WORD	365000	wordpools/wasnorm_wordpool.txt	LTP110	ltpFR	16	4	0	VEHICLE	1553	n/a	1	0	0.5869140625	0.422607421875	lower	../fonts/zerothre.ttf
733.956	n/a	WORD	366978	wordpools/wasnorm_wordpool.txt	LTP110	ltpFR	16	4	0	TOOTHPASTE	1483	n/a	0	0	0.5869140625	0.422607421875	lower	../fonts/zerothre.ttf
737.78	n/a	WORD	368890	wordpools/wasnorm_wordpool.txt	LTP110	ltpFR	16	4	0	OATS	968	n/a	1	0	0.5869140625	0.422607421875	lower	../fonts/zerothre.ttf
741.988	n/a	WORD	370994	wordpools/wasnorm_wordpool.txt	LTP110	ltpFR	16	4	0	RADIATOR	1156	n/a	1	0	0.5869140625	0.422607421875	lower	../fonts/zerothre.ttf
746.044	n/a	WORD	373022	wordpools/wasnorm_wordpool.txt	LTP110	ltpFR	16	4	0	CHART	282	n/a	0	0	0.5869140625	0.422607421875	lower	../fonts/zerothre.ttf
750.144	n/a	WORD	375072	wordpools/wasnorm_wordpool.txt	LTP110	ltpFR	16	4	0	PICTURE	1061	n/a	0	0	0.5869140625	0.422607421875	lower	../fonts/zerothre.ttf
753.968	n/a	WORD	376984	wordpools/wasnorm_wordpool.txt	LTP110	ltpFR	16	4	0	ACTOR	5	n/a	1	0	0.5869140625	0.422607421875	lower	../fonts/zerothre.ttf
758.042	n/a	WORD	379021	wordpools/wasnorm_wordpool.txt	LTP110	ltpFR	16	4	0	TONGUE	1479	n/a	0	0	0.5869140625	0.422607421875	lower	../fonts/zerothre.ttf
761.898	n/a	WORD	380949	wordpools/wasnorm_wordpool.txt	LTP110	ltpFR	16	4	0	MOWER	928	n/a	1	0	0.5869140625	0.422607421875	lower	../fonts/zerothre.ttf
765.798	n/a	WORD	382899	wordpools/wasnorm_wordpool.txt	LTP110	ltpFR	16	4	0	LAWN	805	n/a	1	0	0.5869140625	0.422607421875	lower	../fonts/zerothre.ttf
769.68	n/a	WORD	384840	wordpools/wasnorm_wordpool.txt	LTP110	ltpFR	16	4	0	AGENT	10	n/a	1	0	0.5869140625	0.422607421875	lower	../fonts/zerothre.ttf
775.412	n/a	REC_START	387706	n/a	LTP110	ltpFR	16	4	n/a	n/a	n/a	n/a	n/a	n/a	n/a	n/a	n/a	n/a
776.36	n/a	REC_WORD	388180	wordpools/wasnorm_wordpool.txt	LTP110	ltpFR	16	4	0	AGENT	10	n/a	1	n/a	n/a	n/a	n/a	n/a
777.372	n/a	REC_WORD	388686	wordpools/wasnorm_wordpool.txt	LTP110	ltpFR	16	4	0	ACTOR	5	n/a	1	n/a	n/a	n/a	n/a	n/a
779.278	n/a	REC_WORD	389639	wordpools/wasnorm_wordpool.txt	LTP110	ltpFR	16	4	0	ANCESTOR	20	n/a	1	n/a	n/a	n/a	n/a	n/a
780.834	n/a	REC_WORD	390417	wordpools/wasnorm_wordpool.txt	LTP110	ltpFR	16	4	0	VEHICLE	1553	n/a	1	n/a	n/a	n/a	n/a	n/a
783.334	n/a	REC_WORD	391667	wordpools/wasnorm_wordpool.txt	LTP110	ltpFR	16	4	0	MOWER	928	n/a	1	n/a	n/a	n/a	n/a	n/a
784.276	n/a	REC_WORD	392138	wordpools/wasnorm_wordpool.txt	LTP110	ltpFR	16	4	0	LAWN	805	n/a	1	n/a	n/a	n/a	n/a	n/a
786.088	n/a	REC_WORD	393044	wordpools/wasnorm_wordpool.txt	LTP110	ltpFR	16	4	0	MUSEUM	933	n/a	1	n/a	n/a	n/a	n/a	n/a
788.288	n/a	REC_WORD	394144	wordpools/wasnorm_wordpool.txt	LTP110	ltpFR	16	4	0	CLOVE	329	n/a	0	n/a	n/a	n/a	n/a	n/a
790.274	n/a	REC_WORD	395137	wordpools/wasnorm_wordpool.txt	LTP110	ltpFR	16	4	0	DIAPER	459	n/a	1	n/a	n/a	n/a	n/a	n/a
791.77	n/a	REC_WORD	395885	wordpools/wasnorm_wordpool.txt	LTP110	ltpFR	16	4	0	TOOTHPASTE	1483	n/a	0	n/a	n/a	n/a	n/a	n/a
799.358	n/a	REC_WORD	399679	wordpools/wasnorm_wordpool.txt	LTP110	ltpFR	16	4	0	OATS	968	n/a	1	n/a	n/a	n/a	n/a	n/a
832.544	n/a	REC_WORD	416272	wordpools/wasnorm_wordpool.txt	LTP110	ltpFR	16	4	0	MUSEUM	933	n/a	1	n/a	n/a	n/a	n/a	n/a
857.336	n/a	WORD	428668	wordpools/wasnorm_wordpool.txt	LTP110	ltpFR	16	5	1	LITTER	832	n/a	0	1	0.412841796875	0.57763671875	upper	../fonts/amplitud.ttf
861.328	n/a	WORD	430664	wordpools/wasnorm_wordpool.txt	LTP110	ltpFR	16	5	1	CAFETERIA	217	n/a	0	1	0.412841796875	0.57763671875	upper	../fonts/amplitud.ttf
865.2	n/a	WORD	432600	wordpools/wasnorm_wordpool.txt	LTP110	ltpFR	16	5	1	CHEF	290	n/a	1	1	0.412841796875	0.57763671875	upper	../fonts/amplitud.ttf
869.032	n/a	WORD	434516	wordpools/wasnorm_wordpool.txt	LTP110	ltpFR	16	5	1	BULL	193	n/a	1	1	0.412841796875	0.57763671875	upper	../fonts/amplitud.ttf
872.906	n/a	WORD	436453	wordpools/wasnorm_wordpool.txt	LTP110	ltpFR	16	5	1	ASTRONAUT	51	n/a	1	1	0.412841796875	0.57763671875	upper	../fonts/amplitud.ttf
876.738	n/a	WORD	438369	wordpools/wasnorm_wordpool.txt	LTP110	ltpFR	16	5	1	COMPUTER	359	n/a	0	1	0.412841796875	0.57763671875	upper	../fonts/amplitud.ttf
880.696	n/a	WORD	440348	wordpools/wasnorm_wordpool.txt	LTP110	ltpFR	16	5	1	BERRY	122	n/a	1	1	0.412841796875	0.57763671875	upper	../fonts/amplitud.ttf
884.894	n/a	WORD	442447	wordpools/wasnorm_wordpool.txt	LTP110	ltpFR	16	5	1	SALAD	1224	n/a	0	1	0.412841796875	0.57763671875	upper	../fonts/amplitud.ttf
888.76	n/a	WORD	444380	wordpools/wasnorm_wordpool.txt	LTP110	ltpFR	16	5	1	GOVERNOR	651	n/a	1	1	0.412841796875	0.57763671875	upper	../fonts/amplitud.ttf
892.742	n/a	WORD	446371	wordpools/wasnorm_wordpool.txt	LTP110	ltpFR	16	5	1	TELESCOPE	1446	n/a	0	1	0.412841796875	0.57763671875	upper	../fonts/amplitud.ttf
896.808	n/a	WORD	448404	wordpools/wasnorm_wordpool.txt	LTP110	ltpFR	16	5	1	MEADOW	881	n/a	0	1	0.412841796875	0.57763671875	upper	../fonts/amplitud.ttf
900.782	n/a	WORD	450391	wordpools/wasnorm_wordpool.txt	LTP110	ltpFR	16	5	1	SENATOR	1268	n/a	1	1	0.412841796875	0.57763671875	upper	../fonts/amplitud.ttf
904.856	n/a	WORD	452428	wordpools/wasnorm_wordpool.txt	LTP110	ltpFR	16	5	1	CUSTOMER	430	n/a	1	1	0.412841796875	0.57763671875	upper	../fonts/amplitud.ttf
908.812	n/a	WORD	454406	wordpools/wasnorm_wordpool.txt	LTP110	ltpFR	16	5	1	RECEIPT	1173	n/a	0	1	0.412841796875	0.57763671875	upper	../fonts/amplitud.ttf
912.702	n/a	WORD	456351	wordpools/wasnorm_wordpool.txt	LTP110	ltpFR	16	5	1	HAMMER	680	n/a	0	1	0.412841796875	0.57763671875	upper	../fonts/amplitud.ttf
916.81	n/a	WORD	458405	wordpools/wasnorm_wordpool.txt	LTP110	ltpFR	16	5	1	NUN	962	n/a	1	1	0.412841796875	0.57763671875	upper	../fonts/amplitud.ttf
922.634	n/a	REC_START	461317	n/a	LTP110	ltpFR	16	5	n/a	n/a	n/a	n/a	n/a	n/a	n/a	n/a	n/a	n/a
923.382	n/a	REC_WORD	461691	wordpools/wasnorm_wordpool.txt	LTP110	ltpFR	16	5	1	NUN	962	n/a	1	n/a	n/a	n/a	n/a	n/a
924.05	n/a	REC_WORD	462025	wordpools/wasnorm_wordpool.txt	LTP110	ltpFR	16	5	1	SENATOR	1268	n/a	1	n/a	n/a	n/a	n/a	n/a
925.696	n/a	REC_WORD	462848	wordpools/wasnorm_wordpool.txt	LTP110	ltpFR	16	5	1	GOVERNOR	651	n/a	1	n/a	n/a	n/a	n/a	n/a
926.434	n/a	REC_WORD	463217	wordpools/wasnorm_wordpool.txt	LTP110	ltpFR	16	5	1	CUSTOMER	430	n/a	1	n/a	n/a	n/a	n/a	n/a
927.292	n/a	REC_WORD	463646	wordpools/wasnorm_wordpool.txt	LTP110	ltpFR	16	5	1	CHEF	290	n/a	1	n/a	n/a	n/a	n/a	n/a
928.594	n/a	REC_WORD	464297	wordpools/wasnorm_wordpool.txt	LTP110	ltpFR	16	5	1	BULL	193	n/a	1	n/a	n/a	n/a	n/a	n/a
932.226	n/a	REC_WORD	466113	wordpools/wasnorm_wordpool.txt	LTP110	ltpFR	16	5	1	LITTER	832	n/a	0	n/a	n/a	n/a	n/a	n/a
933.284	n/a	REC_WORD	466642	wordpools/wasnorm_wordpool.txt	LTP110	ltpFR	16	5	1	CAFETERIA	217	n/a	0	n/a	n/a	n/a	n/a	n/a
935.368	n/a	REC_WORD	467684	wordpools/wasnorm_wordpool.txt	LTP110	ltpFR	16	5	1	SALAD	1224	n/a	0	n/a	n/a	n/a	n/a	n/a
936.378	n/a	REC_WORD	468189	wordpools/wasnorm_wordpool.txt	LTP110	ltpFR	16	5	1	BERRY	122	n/a	1	n/a	n/a	n/a	n/a	n/a
942.768	n/a	REC_WORD	471384	wordpools/wasnorm_wordpool.txt	LTP110	ltpFR	16	5	1	COMPUTER	359	n/a	0	n/a	n/a	n/a	n/a	n/a
995.342	n/a	REC_WORD	497671	wordpools/wasnorm_wordpool.txt	LTP110	ltpFR	16	5	0	JELLO	754	n/a	0	n/a	n/a	n/a	n/a	n/a
1001.018	n/a	WORD	500509	wordpools/wasnorm_wordpool.txt	LTP110	ltpFR	16	6	1	PROFESSIONAL	1130	n/a	1	1	0.412841796875	0.57763671875	upper	../fonts/amplitud.ttf
1004.966	n/a	WORD	502483	wordpools/wasnorm_wordpool.txt	LTP110	ltpFR	16	6	1	CANDLE	229	n/a	0	1	0.412841796875	0.57763671875	upper	../fonts/amplitud.ttf
1009.098	n/a	WORD	504549	wordpools/wasnorm_wordpool.txt	LTP110	ltpFR	16	6	1	MEDAL	885	n/a	0	1	0.412841796875	0.57763671875	upper	../fonts/amplitud.ttf
1013.122	n/a	WORD	506561	wordpools/wasnorm_wordpool.txt	LTP110	ltpFR	16	6	0	BEAD	103	n/a	0	0	0.5869140625	0.422607421875	lower	../fonts/zerothre.ttf
1017.064	n/a	WORD	508532	wordpools/wasnorm_wordpool.txt	LTP110	ltpFR	16	6	0	STADIUM	1364	n/a	1	0	0.5869140625	0.422607421875	lower	../fonts/zerothre.ttf
1021.078	n/a	WORD	510539	wordpools/wasnorm_wordpool.txt	LTP110	ltpFR	16	6	0	CHAUFFEUR	283	n/a	1	0	0.5869140625	0.422607421875	lower	../fonts/zerothre.ttf
1025.086	n/a	WORD	512543	wordpools/wasnorm_wordpool.txt	LTP110	ltpFR	16	6	0	BRANCH	168	n/a	0	0	0.5869140625	0.422607421875	lower	../fonts/zerothre.ttf
1029.192	n/a	WORD	514596	wordpools/wasnorm_wordpool.txt	LTP110	ltpFR	16	6	1	PORCH	1106	n/a	0	1	0.412841796875	0.57763671875	upper	../fonts/amplitud.ttf
1033.092	n/a	WORD	516546	wordpools/wasnorm_wordpool.txt	LTP110	ltpFR	16	6	1	SUPERMARKET	1409	n/a	0	1	0.412841796875	0.57763671875	upper	../fonts/amplitud.ttf
1036.998	n/a	WORD	518499	wordpools/wasnorm_wordpool.txt	LTP110	ltpFR	16	6	1	THICKET	1455	n/a	0	1	0.412841796875	0.57763671875	upper	../fonts/amplitud.ttf
1041.03	n/a	WORD	520515	wordpools/wasnorm_wordpool.txt	LTP110	ltpFR	16	6	1	NECK	939	n/a	0	1	0.412841796875	0.57763671875	upper	../fonts/amplitud.ttf
1045.096	n/a	WORD	522548	wordpools/wasnorm_wordpool.txt	LTP110	ltpFR	16	6	1	SALIVA	1226	n/a	0	1	0.412841796875	0.57763671875	upper	../fonts/amplitud.ttf
1049.012	n/a	WORD	524506	wordpools/wasnorm_wordpool.txt	LTP110	ltpFR	16	6	0	REFRIGERATOR	1179	n/a	1	0	0.5869140625	0.422607421875	lower	../fonts/zerothre.ttf
1052.944	n/a	WORD	526472	wordpools/wasnorm_wordpool.txt	LTP110	ltpFR	16	6	0	FLEA	577	n/a	0	0	0.5869140625	0.422607421875	lower	../fonts/zerothre.ttf
1057.118	n/a	WORD	528559	wordpools/wasnorm_wordpool.txt	LTP110	ltpFR	16	6	0	WOLF	1619	n/a	1	0	0.5869140625	0.422607421875	lower	../fonts/zerothre.ttf
1060.984	n/a	WORD	530492	wordpools/wasnorm_wordpool.txt	LTP110	ltpFR	16	6	0	COMPANION	357	n/a	1	0	0.5869140625	0.422607421875	lower	../fonts/zerothre.ttf
1066.898	n/a	REC_START	533449	n/a	LTP110	ltpFR	16	6	n/a	n/a	n/a	n/a	n/a	n/a	n/a	n/a	n/a	n/a
1067.702	n/a	REC_WORD	533851	wordpools/wasnorm_wordpool.txt	LTP110	ltpFR	16	6	0	WOLF	1619	n/a	1	n/a	n/a	n/a	n/a	n/a
1068.544	n/a	REC_WORD	534272	wordpools/wasnorm_wordpool.txt	LTP110	ltpFR	16	6	0	COMPANION	357	n/a	1	n/a	n/a	n/a	n/a	n/a
1069.532	n/a	REC_WORD	534766	wordpools/wasnorm_wordpool.txt	LTP110	ltpFR	16	6	1	PROFESSIONAL	1130	n/a	1	n/a	n/a	n/a	n/a	n/a
1072.422	n/a	REC_WORD	536211	wordpools/wasnorm_wordpool.txt	LTP110	ltpFR	16	6	1	CANDLE	229	n/a	0	n/a	n/a	n/a	n/a	n/a
1073.13	n/a	REC_WORD	536565	wordpools/wasnorm_wordpool.txt	LTP110	ltpFR	16	6	1	MEDAL	885	n/a	0	n/a	n/a	n/a	n/a	n/a
1073.944	n/a	REC_WORD	536972	wordpools/wasnorm_wordpool.txt	LTP110	ltpFR	16	6	0	FLEA	577	n/a	0	n/a	n/a	n/a	n/a	n/a
1077.042	n/a	REC_WORD	538521	wordpools/wasnorm_wordpool.txt	LTP110	ltpFR	16	6	0	BEAD	103	n/a	0	n/a	n/a	n/a	n/a	n/a
1079.934	n/a	REC_WORD	539967	wordpools/wasnorm_wordpool.txt	LTP110	ltpFR	16	6	0	STADIUM	1364	n/a	1	n/a	n/a	n/a	n/a	n/a
1101.97	n/a	REC_WORD	550985	wordpools/wasnorm_wordpool.txt	LTP110	ltpFR	16	6	0	REFRIGERATOR	1179	n/a	1	n/a	n/a	n/a	n/a	n/a
1147.35	n/a	WORD	573675	wordpools/wasnorm_wordpool.txt	LTP110	ltpFR	16	7	-1	CATCHER	258	n/a	-1	1	1.0	1.0	upper	../fonts/Verdana.ttf
1151.49	n/a	WORD	575745	wordpools/wasnorm_wordpool.txt	LTP110	ltpFR	16	7	-1	CONTRACT	368	n/a	-1	1	1.0	1.0	upper	../fonts/Verdana.ttf
1155.562	n/a	WORD	577781	wordpools/wasnorm_wordpool.txt	LTP110	ltpFR	16	7	-1	TEAM	1441	n/a	-1	1	1.0	1.0	upper	../fonts/Verdana.ttf
1159.652	n/a	WORD	579826	wordpools/wasnorm_wordpool.txt	LTP110	ltpFR	16	7	-1	COP	376	n/a	-1	1	1.0	1.0	upper	../fonts/Verdana.ttf
1163.734	n/a	WORD	581867	wordpools/wasnorm_wordpool.txt	LTP110	ltpFR	16	7	-1	BOTTLE	153	n/a	-1	1	1.0	1.0	upper	../fonts/Verdana.ttf
1167.842	n/a	WORD	583921	wordpools/wasnorm_wordpool.txt	LTP110	ltpFR	16	7	-1	ISLAND	745	n/a	-1	1	1.0	1.0	upper	../fonts/Verdana.ttf
1171.716	n/a	WORD	585858	wordpools/wasnorm_wordpool.txt	LTP110	ltpFR	16	7	-1	CREW	406	n/a	-1	1	1.0	1.0	upper	../fonts/Verdana.ttf
1175.89	n/a	WORD	587945	wordpools/wasnorm_wordpool.txt	LTP110	ltpFR	16	7	-1	TUBE	1516	n/a	-1	1	1.0	1.0	upper	../fonts/Verdana.ttf
1179.914	n/a	WORD	589957	wordpools/wasnorm_wordpool.txt	LTP110	ltpFR	16	7	-1	VAMPIRE	1547	n/a	-1	1	1.0	1.0	upper	../fonts/Verdana.ttf
1184.088	n/a	WORD	592044	wordpools/wasnorm_wordpool.txt	LTP110	ltpFR	16	7	-1	STEAM	1375	n/a	-1	1	1.0	1.0	upper	../fonts/Verdana.ttf
1187.986	n/a	WORD	593993	wordpools/wasnorm_wordpool.txt	LTP110	ltpFR	16	7	-1	ICING	732	n/a	-1	1	1.0	1.0	upper	../fonts/Verdana.ttf
1192.06	n/a	WORD	596030	wordpools/wasnorm_wordpool.txt	LTP110	ltpFR	16	7	-1	CHOCOLATE	306	n/a	-1	1	1.0	1.0	upper	../fonts/Verdana.ttf
1196.158	n/a	WORD	598079	wordpools/wasnorm_wordpool.txt	LTP110	ltpFR	16	7	-1	PATROL	1027	n/a	-1	1	1.0	1.0	upper	../fonts/Verdana.ttf
1200.358	n/a	WORD	600179	wordpools/wasnorm_wordpool.txt	LTP110	ltpFR	16	7	-1	KETTLE	772	n/a	-1	1	1.0	1.0	upper	../fonts/Verdana.ttf
1204.54	n/a	WORD	602270	wordpools/wasnorm_wordpool.txt	LTP110	ltpFR	16	7	-1	COFFEE	341	n/a	-1	1	1.0	1.0	upper	../fonts/Verdana.ttf
1208.406	n/a	WORD	604203	wordpools/wasnorm_wordpool.txt	LTP110	ltpFR	16	7	-1	PICNIC	1060	n/a	-1	1	1.0	1.0	upper	../fonts/Verdana.ttf
1214.054	n/a	REC_START	607027	n/a	LTP110	ltpFR	16	7	n/a	n/a	n/a	n/a	n/a	n/a	n/a	n/a	n/a	n/a
1214.812	n/a	REC_WORD	607406	wordpools/wasnorm_wordpool.txt	LTP110	ltpFR	16	7	-1	COFFEE	341	n/a	-1	n/a	n/a	n/a	n/a	n/a
1215.66	n/a	REC_WORD	607830	wordpools/wasnorm_wordpool.txt	LTP110	ltpFR	16	7	-1	CHOCOLATE	306	n/a	-1	n/a	n/a	n/a	n/a	n/a
1217.132	n/a	REC_WORD	608566	wordpools/wasnorm_wordpool.txt	LTP110	ltpFR	16	7	-1	KETTLE	772	n/a	-1	n/a	n/a	n/a	n/a	n/a
1226.292	n/a	REC_WORD	613146	wordpools/wasnorm_wordpool.txt	LTP110	ltpFR	16	7	-1	CATCHER	258	n/a	-1	n/a	n/a	n/a	n/a	n/a
1227.2	n/a	REC_WORD	613600	wordpools/wasnorm_wordpool.txt	LTP110	ltpFR	16	7	-1	CONTRACT	368	n/a	-1	n/a	n/a	n/a	n/a	n/a
1228.2	n/a	REC_WORD_VV	614100	wordpools/wasnorm_wordpool.txt	LTP110	ltpFR	16	7	n/a	<>	-1	n/a	n/a	n/a	n/a	n/a	n/a	n/a
1229.416	n/a	REC_WORD	614708	wordpools/wasnorm_wordpool.txt	LTP110	ltpFR	16	7	-1	TEAM	1441	n/a	-1	n/a	n/a	n/a	n/a	n/a
1231.98	n/a	REC_WORD	615990	wordpools/wasnorm_wordpool.txt	LTP110	ltpFR	16	7	-1	COP	376	n/a	-1	n/a	n/a	n/a	n/a	n/a
1232.982	n/a	REC_WORD	616491	wordpools/wasnorm_wordpool.txt	LTP110	ltpFR	16	7	-1	CREW	406	n/a	-1	n/a	n/a	n/a	n/a	n/a
1234.922	n/a	REC_WORD	617461	wordpools/wasnorm_wordpool.txt	LTP110	ltpFR	16	7	-1	TUBE	1516	n/a	-1	n/a	n/a	n/a	n/a	n/a
1237.312	n/a	REC_WORD	618656	wordpools/wasnorm_wordpool.txt	LTP110	ltpFR	16	7	-1	PATROL	1027	n/a	-1	n/a	n/a	n/a	n/a	n/a
1267.056	n/a	REC_WORD	633528	wordpools/wasnorm_wordpool.txt	LTP110	ltpFR	16	7	-1	COFFEE	341	n/a	-1	n/a	n/a	n/a	n/a	n/a
1292.562	n/a	WORD	646281	wordpools/wasnorm_wordpool.txt	LTP110	ltpFR	16	8	0	CHAMBER	277	n/a	1	0	0.5869140625	0.422607421875	lower	../fonts/zerothre.ttf
1296.652	n/a	WORD	648326	wordpools/wasnorm_wordpool.txt	LTP110	ltpFR	16	8	0	CRIMINAL	409	n/a	1	0	0.5869140625	0.422607421875	lower	../fonts/zerothre.ttf
1300.744	n/a	WORD	650372	wordpools/wasnorm_wordpool.txt	LTP110	ltpFR	16	8	0	EMERALD	528	n/a	0	0	0.5869140625	0.422607421875	lower	../fonts/zerothre.ttf
1304.592	n/a	WORD	652296	wordpools/wasnorm_wordpool.txt	LTP110	ltpFR	16	8	0	JEWEL	757	n/a	0	0	0.5869140625	0.422607421875	lower	../fonts/zerothre.ttf
1308.484	n/a	WORD	654242	wordpools/wasnorm_wordpool.txt	LTP110	ltpFR	16	8	0	FLOWER	584	n/a	0	0	0.5869140625	0.422607421875	lower	../fonts/zerothre.ttf
1312.524	n/a	WORD	656262	wordpools/wasnorm_wordpool.txt	LTP110	ltpFR	16	8	0	PEDAL	1037	n/a	0	0	0.5869140625	0.422607421875	lower	../fonts/zerothre.ttf
1316.696	n/a	WORD	658348	wordpools/wasnorm_wordpool.txt	LTP110	ltpFR	16	8	0	BELT	120	n/a	0	0	0.5869140625	0.422607421875	lower	../fonts/zerothre.ttf
1320.572	n/a	WORD	660286	wordpools/wasnorm_wordpool.txt	LTP110	ltpFR	16	8	0	SCIENTIST	1249	n/a	1	0	0.5869140625	0.422607421875	lower	../fonts/zerothre.ttf
1324.404	n/a	WORD	662202	wordpools/wasnorm_wordpool.txt	LTP110	ltpFR	16	8	0	CLIPPERS	324	n/a	n/a	0	0.5869140625	0.422607421875	lower	../fonts/zerothre.ttf
1327.428	n/a	SLOW_MSG	663714	n/a	LTP110	ltpFR	16	8	n/a	n/a	n/a	n/a	n/a	n/a	n/a	n/a	n/a	n/a
1329.802	n/a	WORD	664901	wordpools/wasnorm_wordpool.txt	LTP110	ltpFR	16	8	0	MANSION	864	n/a	1	0	0.5869140625	0.422607421875	lower	../fonts/zerothre.ttf
1333.676	n/a	WORD	666838	wordpools/wasnorm_wordpool.txt	LTP110	ltpFR	16	8	0	HURRICANE	727	n/a	1	0	0.5869140625	0.422607421875	lower	../fonts/zerothre.ttf
1337.766	n/a	WORD	668883	wordpools/wasnorm_wordpool.txt	LTP110	ltpFR	16	8	0	CLOCK	325	n/a	1	0	0.5869140625	0.422607421875	lower	../fonts/zerothre.ttf
1341.606	n/a	WORD	670803	wordpools/wasnorm_wordpool.txt	LTP110	ltpFR	16	8	0	BANKER	84	n/a	1	0	0.5869140625	0.422607421875	lower	../fonts/zerothre.ttf
1345.556	n/a	WORD	672778	wordpools/wasnorm_wordpool.txt	LTP110	ltpFR	16	8	0	CYCLONE	431	n/a	1	0	0.5869140625	0.422607421875	lower	../fonts/zerothre.ttf
1349.438	n/a	WORD	674719	wordpools/wasnorm_wordpool.txt	LTP110	ltpFR	16	8	0	RAZOR	1171	n/a	0	0	0.5869140625	0.422607421875	lower	../fonts/zerothre.ttf
1353.32	n/a	WORD	676660	wordpools/wasnorm_wordpool.txt	LTP110	ltpFR	16	8	0	SEA	1259	n/a	1	0	0.5869140625	0.422607421875	lower	../fonts/zerothre.ttf
1359.26	n/a	REC_START	679630	n/a	LTP110	ltpFR	16	8	n/a	n/a	n/a	n/a	n/a	n/a	n/a	n/a	n/a	n/a
1361.734	n/a	REC_WORD	680867	wordpools/wasnorm_wordpool.txt	LTP110	ltpFR	16	8	0	CYCLONE	431	n/a	1	n/a	n/a	n/a	n/a	n/a
1362.556	n/a	REC_WORD	681278	wordpools/wasnorm_wordpool.txt	LTP110	ltpFR	16	8	0	HURRICANE	727	n/a	1	n/a	n/a	n/a	n/a	n/a
1363.524	n/a	REC_WORD	681762	wordpools/wasnorm_wordpool.txt	LTP110	ltpFR	16	8	0	MANSION	864	n/a	1	n/a	n/a	n/a	n/a	n/a
1364.912	n/a	REC_WORD	682456	wordpools/wasnorm_wordpool.txt	LTP110	ltpFR	16	8	0	CHAMBER	277	n/a	1	n/a	n/a	n/a	n/a	n/a
1365.646	n/a	REC_WORD	682823	wordpools/wasnorm_wordpool.txt	LTP110	ltpFR	16	8	0	CRIMINAL	409	n/a	1	n/a	n/a	n/a	n/a	n/a
1366.508	n/a	REC_WORD	683254	wordpools/wasnorm_wordpool.txt	LTP110	ltpFR	16	8	0	EMERALD	528	n/a	0	n/a	n/a	n/a	n/a	n/a
1367.252	n/a	REC_WORD	683626	wordpools/wasnorm_wordpool.txt	LTP110	ltpFR	16	8	0	JEWEL	757	n/a	0	n/a	n/a	n/a	n/a	n/a
1369.118	n/a	REC_WORD	684559	wordpools/wasnorm_wordpool.txt	LTP110	ltpFR	16	8	0	CLIPPERS	324	n/a	n/a	n/a	n/a	n/a	n/a	n/a
1371.184	n/a	REC_WORD	685592	wordpools/wasnorm_wordpool.txt	LTP110	ltpFR	16	8	0	BANKER	84	n/a	1	n/a	n/a	n/a	n/a	n/a
1375.874	n/a	REC_WORD	687937	wordpools/wasnorm_wordpool.txt	LTP110	ltpFR	16	8	0	FLOWER	584	n/a	0	n/a	n/a	n/a	n/a	n/a
1398.09	n/a	REC_WORD	699045	wordpools/wasnorm_wordpool.txt	LTP110	ltpFR	16	8	0	BANKER	84	n/a	1	n/a	n/a	n/a	n/a	n/a
1426.78	n/a	REC_WORD	713390	wordpools/wasnorm_wordpool.txt	LTP110	ltpFR	16	8	n/a	CAVE	263	n/a	n/a	n/a	n/a	n/a	n/a	n/a
1438.302	n/a	WORD	719151	wordpools/wasnorm_wordpool.txt	LTP110	ltpFR	16	9	0	DILL	465	n/a	0	0	0.5869140625	0.422607421875	lower	../fonts/zerothre.ttf
1442.402	n/a	WORD	721201	wordpools/wasnorm_wordpool.txt	LTP110	ltpFR	16	9	0	SHRINE	1298	n/a	1	0	0.5869140625	0.422607421875	lower	../fonts/zerothre.ttf
1446.324	n/a	WORD	723162	wordpools/wasnorm_wordpool.txt	LTP110	ltpFR	16	9	0	STAFF	1365	n/a	1	0	0.5869140625	0.422607421875	lower	../fonts/zerothre.ttf
1450.324	n/a	WORD	725162	wordpools/wasnorm_wordpool.txt	LTP110	ltpFR	16	9	1	FOOT	590	n/a	0	1	0.412841796875	0.57763671875	upper	../fonts/amplitud.ttf
1454.232	n/a	WORD	727116	wordpools/wasnorm_wordpool.txt	LTP110	ltpFR	16	9	1	LOBSTER	837	n/a	0	1	0.412841796875	0.57763671875	upper	../fonts/amplitud.ttf
1458.264	n/a	WORD	729132	wordpools/wasnorm_wordpool.txt	LTP110	ltpFR	16	9	1	SAUSAGE	1238	n/a	0	1	0.412841796875	0.57763671875	upper	../fonts/amplitud.ttf
1462.328	n/a	WORD	731164	wordpools/wasnorm_wordpool.txt	LTP110	ltpFR	16	9	1	PIG	1064	n/a	1	1	0.412841796875	0.57763671875	upper	../fonts/amplitud.ttf
1466.46	n/a	WORD	733230	wordpools/wasnorm_wordpool.txt	LTP110	ltpFR	16	9	0	ELBOW	520	n/a	0	0	0.5869140625	0.422607421875	lower	../fonts/zerothre.ttf
1470.41	n/a	WORD	735205	wordpools/wasnorm_wordpool.txt	LTP110	ltpFR	16	9	0	KNEE	784	n/a	0	0	0.5869140625	0.422607421875	lower	../fonts/zerothre.ttf
1474.334	n/a	WORD	737167	wordpools/wasnorm_wordpool.txt	LTP110	ltpFR	16	9	0	GRADUATE	653	n/a	1	0	0.5869140625	0.422607421875	lower	../fonts/zerothre.ttf
1478.34	n/a	WORD	739170	wordpools/wasnorm_wordpool.txt	LTP110	ltpFR	16	9	0	PAGE	1001	n/a	0	0	0.5869140625	0.422607421875	lower	../fonts/zerothre.ttf
1482.248	n/a	WORD	741124	wordpools/wasnorm_wordpool.txt	LTP110	ltpFR	16	9	0	CAB	209	n/a	1	0	0.5869140625	0.422607421875	lower	../fonts/zerothre.ttf
1486.254	n/a	WORD	743127	wordpools/wasnorm_wordpool.txt	LTP110	ltpFR	16	9	1	SQUID	1361	n/a	1	1	0.412841796875	0.57763671875	upper	../fonts/amplitud.ttf
1490.42	n/a	WORD	745210	wordpools/wasnorm_wordpool.txt	LTP110	ltpFR	16	9	1	CUSTARD	429	n/a	0	1	0.412841796875	0.57763671875	upper	../fonts/amplitud.ttf
1494.32	n/a	WORD	747160	wordpools/wasnorm_wordpool.txt	LTP110	ltpFR	16	9	1	SHORTCAKE	1292	n/a	0	1	0.412841796875	0.57763671875	upper	../fonts/amplitud.ttf
1498.442	n/a	WORD	749221	wordpools/wasnorm_wordpool.txt	LTP110	ltpFR	16	9	1	NAPKIN	937	n/a	0	1	0.412841796875	0.57763671875	upper	../fonts/amplitud.ttf
1504.166	n/a	REC_START	752083	n/a	LTP110	ltpFR	16	9	n/a	n/a	n/a	n/a	n/a	n/a	n/a	n/a	n/a	n/a
1504.75	n/a	REC_WORD	752375	wordpools/wasnorm_wordpool.txt	LTP110	ltpFR	16	9	n/a	CUPCAKE	-1	n/a	n/a	n/a	n/a	n/a	n/a	n/a
1506.376	n/a	REC_WORD_VV	753188	wordpools/wasnorm_wordpool.txt	LTP110	ltpFR	16	9	n/a	<>	-1	n/a	n/a	n/a	n/a	n/a	n/a	n/a
1508.034	n/a	REC_WORD	754017	wordpools/wasnorm_wordpool.txt	LTP110	ltpFR	16	9	1	SHORTCAKE	1292	n/a	0	n/a	n/a	n/a	n/a	n/a
1516.734	n/a	REC_WORD	758367	wordpools/wasnorm_wordpool.txt	LTP110	ltpFR	16	9	1	SQUID	1361	n/a	1	n/a	n/a	n/a	n/a	n/a
1519.418	n/a	REC_WORD	759709	wordpools/wasnorm_wordpool.txt	LTP110	ltpFR	16	9	1	LOBSTER	837	n/a	0	n/a	n/a	n/a	n/a	n/a
1528.552	n/a	REC_WORD	764276	wordpools/wasnorm_wordpool.txt	LTP110	ltpFR	16	9	0	DILL	465	n/a	0	n/a	n/a	n/a	n/a	n/a
1530.738	n/a	REC_WORD	765369	wordpools/wasnorm_wordpool.txt	LTP110	ltpFR	16	9	0	SHRINE	1298	n/a	1	n/a	n/a	n/a	n/a	n/a
1531.914	n/a	REC_WORD	765957	wordpools/wasnorm_wordpool.txt	LTP110	ltpFR	16	9	1	FOOT	590	n/a	0	n/a	n/a	n/a	n/a	n/a
1534.524	n/a	REC_WORD	767262	wordpools/wasnorm_wordpool.txt	LTP110	ltpFR	16	9	1	PIG	1064	n/a	1	n/a	n/a	n/a	n/a	n/a
1535.272	n/a	REC_WORD	767636	wordpools/wasnorm_wordpool.txt	LTP110	ltpFR	16	9	1	SAUSAGE	1238	n/a	0	n/a	n/a	n/a	n/a	n/a
1536.272	n/a	REC_WORD_VV	768136	wordpools/wasnorm_wordpool.txt	LTP110	ltpFR	16	9	n/a	<>	-1	n/a	n/a	n/a	n/a	n/a	n/a	n/a
1544.526	n/a	REC_WORD	772263	wordpools/wasnorm_wordpool.txt	LTP110	ltpFR	16	9	0	STAFF	1365	n/a	1	n/a	n/a	n/a	n/a	n/a
1582.166	n/a	WORD	791083	wordpools/wasnorm_wordpool.txt	LTP110	ltpFR	16	10	0	SPATULA	1348	n/a	0	0	0.5869140625	0.422607421875	lower	../fonts/zerothre.ttf
1586.05	n/a	WORD	793025	wordpools/wasnorm_wordpool.txt	LTP110	ltpFR	16	10	0	VET	1560	n/a	1	0	0.5869140625	0.422607421875	lower	../fonts/zerothre.ttf
1590.066	n/a	WORD	795033	wordpools/wasnorm_wordpool.txt	LTP110	ltpFR	16	10	1	PHYSICIAN	1056	n/a	1	1	0.412841796875	0.57763671875	upper	../fonts/amplitud.ttf
1594.148	n/a	WORD	797074	wordpools/wasnorm_wordpool.txt	LTP110	ltpFR	16	10	1	SEAL	1262	n/a	1	1	0.412841796875	0.57763671875	upper	../fonts/amplitud.ttf
1598.088	n/a	WORD	799044	wordpools/wasnorm_wordpool.txt	LTP110	ltpFR	16	10	1	BRANDY	169	n/a	0	1	0.412841796875	0.57763671875	upper	../fonts/amplitud.ttf
1601.978	n/a	WORD	800989	wordpools/wasnorm_wordpool.txt	LTP110	ltpFR	16	10	1	HOME	712	n/a	0	1	0.412841796875	0.57763671875	upper	../fonts/amplitud.ttf
1605.836	n/a	WORD	802918	wordpools/wasnorm_wordpool.txt	LTP110	ltpFR	16	10	1	KEEPER	769	n/a	1	1	0.412841796875	0.57763671875	upper	../fonts/amplitud.ttf
1609.76	n/a	WORD	804880	wordpools/wasnorm_wordpool.txt	LTP110	ltpFR	16	10	0	HOE	711	n/a	1	0	0.5869140625	0.422607421875	lower	../fonts/zerothre.ttf
1613.958	n/a	WORD	806979	wordpools/wasnorm_wordpool.txt	LTP110	ltpFR	16	10	0	TIE	1466	n/a	0	0	0.5869140625	0.422607421875	lower	../fonts/zerothre.ttf
1618.056	n/a	WORD	809028	wordpools/wasnorm_wordpool.txt	LTP110	ltpFR	16	10	1	VOLCANO	1575	n/a	0	1	0.412841796875	0.57763671875	upper	../fonts/amplitud.ttf
1622.122	n/a	WORD	811061	wordpools/wasnorm_wordpool.txt	LTP110	ltpFR	16	10	1	SEAGULL	1261	n/a	1	1	0.412841796875	0.57763671875	upper	../fonts/amplitud.ttf
1626.312	n/a	WORD	813156	wordpools/wasnorm_wordpool.txt	LTP110	ltpFR	16	10	1	FEATHER	557	n/a	0	1	0.412841796875	0.57763671875	upper	../fonts/amplitud.ttf
1630.286	n/a	WORD	815143	wordpools/wasnorm_wordpool.txt	LTP110	ltpFR	16	10	0	DINER	467	n/a	1	0	0.5869140625	0.422607421875	lower	../fonts/zerothre.ttf
1634.344	n/a	WORD	817172	wordpools/wasnorm_wordpool.txt	LTP110	ltpFR	16	10	0	GROUND	666	n/a	1	0	0.5869140625	0.422607421875	lower	../fonts/zerothre.ttf
1638.434	n/a	WORD	819217	wordpools/wasnorm_wordpool.txt	LTP110	ltpFR	16	10	0	STRING	1394	n/a	0	0	0.5869140625	0.422607421875	lower	../fonts/zerothre.ttf
1642.532	n/a	WORD	821266	wordpools/wasnorm_wordpool.txt	LTP110	ltpFR	16	10	0	NUT	965	n/a	0	0	0.5869140625	0.422607421875	lower	../fonts/zerothre.ttf
1648.456	n/a	REC_START	824228	n/a	LTP110	ltpFR	16	10	n/a	n/a	n/a	n/a	n/a	n/a	n/a	n/a	n/a	n/a
1649.588	n/a	REC_WORD	824794	wordpools/wasnorm_wordpool.txt	LTP110	ltpFR	16	10	0	STRING	1394	n/a	0	n/a	n/a	n/a	n/a	n/a
1650.404	n/a	REC_WORD	825202	wordpools/wasnorm_wordpool.txt	LTP110	ltpFR	16	10	0	NUT	965	n/a	0	n/a	n/a	n/a	n/a	n/a
1651.354	n/a	REC_WORD	825677	wordpools/wasnorm_wordpool.txt	LTP110	ltpFR	16	10	0	DINER	467	n/a	1	n/a	n/a	n/a	n/a	n/a
1655.012	n/a	REC_WORD	827506	wordpools/wasnorm_wordpool.txt	LTP110	ltpFR	16	10	1	VOLCANO	1575	n/a	0	n/a	n/a	n/a	n/a	n/a
1656.012	n/a	REC_WORD_VV	828006	wordpools/wasnorm_wordpool.txt	LTP110	ltpFR	16	10	n/a	<>	-1	n/a	n/a	n/a	n/a	n/a	n/a	n/a
1657.616	n/a	REC_WORD	828808	wordpools/wasnorm_wordpool.txt	LTP110	ltpFR	16	10	1	FEATHER	557	n/a	0	n/a	n/a	n/a	n/a	n/a
1658.312	n/a	REC_WORD	829156	wordpools/wasnorm_wordpool.txt	LTP110	ltpFR	16	10	1	SEAGULL	1261	n/a	1	n/a	n/a	n/a	n/a	n/a
1661.294	n/a	REC_WORD	830647	wordpools/wasnorm_wordpool.txt	LTP110	ltpFR	16	10	1	SEAL	1262	n/a	1	n/a	n/a	n/a	n/a	n/a
1663.278	n/a	REC_WORD	831639	wordpools/wasnorm_wordpool.txt	LTP110	ltpFR	16	10	0	VET	1560	n/a	1	n/a	n/a	n/a	n/a	n/a
1664.296	n/a	REC_WORD	832148	wordpools/wasnorm_wordpool.txt	LTP110	ltpFR	16	10	1	PHYSICIAN	1056	n/a	1	n/a	n/a	n/a	n/a	n/a
1666.262	n/a	REC_WORD	833131	wordpools/wasnorm_wordpool.txt	LTP110	ltpFR	16	10	1	KEEPER	769	n/a	1	n/a	n/a	n/a	n/a	n/a
1678.16	n/a	REC_WORD	839080	wordpools/wasnorm_wordpool.txt	LTP110	ltpFR	16	10	0	SEA	1259	n/a	1	n/a	n/a	n/a	n/a	n/a
1691.914	n/a	REC_WORD	845957	wordpools/wasnorm_wordpool.txt	LTP110	ltpFR	16	10	n/a	ZOO	1637	n/a	n/a	n/a	n/a	n/a	n/a	n/a
1712.08	n/a	REC_WORD	856040	wordpools/wasnorm_wordpool.txt	LTP110	ltpFR	16	10	0	GROUND	666	n/a	1	n/a	n/a	n/a	n/a	n/a
1728.056	n/a	WORD	864028	wordpools/wasnorm_wordpool.txt	LTP110	ltpFR	16	11	0	PILL	1068	n/a	0	0	0.5869140625	0.422607421875	lower	../fonts/zerothre.ttf
1732.096	n/a	WORD	866048	wordpools/wasnorm_wordpool.txt	LTP110	ltpFR	16	11	0	CROWN	415	n/a	0	0	0.5869140625	0.422607421875	lower	../fonts/zerothre.ttf
1736.238	n/a	WORD	868119	wordpools/wasnorm_wordpool.txt	LTP110	ltpFR	16	11	0	EMPEROR	529	n/a	1	0	0.5869140625	0.422607421875	lower	../fonts/zerothre.ttf
1740.104	n/a	WORD	870052	wordpools/wasnorm_wordpool.txt	LTP110	ltpFR	16	11	0	FRAGRANCE	599	n/a	0	0	0.5869140625	0.422607421875	lower	../fonts/zerothre.ttf
1744.094	n/a	WORD	872047	wordpools/wasnorm_wordpool.txt	LTP110	ltpFR	16	11	0	MARBLE	867	n/a	1	0	0.5869140625	0.422607421875	lower	../fonts/zerothre.ttf
1748.126	n/a	WORD	874063	wordpools/wasnorm_wordpool.txt	LTP110	ltpFR	16	11	0	ONION	977	n/a	0	0	0.5869140625	0.422607421875	lower	../fonts/zerothre.ttf
1752.124	n/a	WORD	876062	wordpools/wasnorm_wordpool.txt	LTP110	ltpFR	16	11	0	CIGAR	308	n/a	0	0	0.5869140625	0.422607421875	lower	../fonts/zerothre.ttf
1756.282	n/a	WORD	878141	wordpools/wasnorm_wordpool.txt	LTP110	ltpFR	16	11	0	OWNER	993	n/a	1	0	0.5869140625	0.422607421875	lower	../fonts/zerothre.ttf
1760.198	n/a	WORD	880099	wordpools/wasnorm_wordpool.txt	LTP110	ltpFR	16	11	0	AUNT	60	n/a	1	0	0.5869140625	0.422607421875	lower	../fonts/zerothre.ttf
1764.12	n/a	WORD	882060	wordpools/wasnorm_wordpool.txt	LTP110	ltpFR	16	11	0	NEPHEW	942	n/a	1	0	0.5869140625	0.422607421875	lower	../fonts/zerothre.ttf
1768.31	n/a	WORD	884155	wordpools/wasnorm_wordpool.txt	LTP110	ltpFR	16	11	0	TABLET	1427	n/a	0	0	0.5869140625	0.422607421875	lower	../fonts/zerothre.ttf
1772.302	n/a	WORD	886151	wordpools/wasnorm_wordpool.txt	LTP110	ltpFR	16	11	0	DRUM	502	n/a	1	0	0.5869140625	0.422607421875	lower	../fonts/zerothre.ttf
1776.418	n/a	WORD	888209	wordpools/wasnorm_wordpool.txt	LTP110	ltpFR	16	11	0	ANIMAL	23	n/a	1	0	0.5869140625	0.422607421875	lower	../fonts/zerothre.ttf
1780.616	n/a	WORD	890308	wordpools/wasnorm_wordpool.txt	LTP110	ltpFR	16	11	0	CASHIER	254	n/a	1	0	0.5869140625	0.422607421875	lower	../fonts/zerothre.ttf
1784.456	n/a	WORD	892228	wordpools/wasnorm_wordpool.txt	LTP110	ltpFR	16	11	0	GLUE	643	n/a	0	0	0.5869140625	0.422607421875	lower	../fonts/zerothre.ttf
1788.522	n/a	WORD	894261	wordpools/wasnorm_wordpool.txt	LTP110	ltpFR	16	11	0	NURSE	963	n/a	1	0	0.5869140625	0.422607421875	lower	../fonts/zerothre.ttf
1794.33	n/a	REC_START	897165	n/a	LTP110	ltpFR	16	11	n/a	n/a	n/a	n/a	n/a	n/a	n/a	n/a	n/a	n/a
1795.052	n/a	REC_WORD	897526	wordpools/wasnorm_wordpool.txt	LTP110	ltpFR	16	11	0	DRUM	502	n/a	1	n/a	n/a	n/a	n/a	n/a
1795.682	n/a	REC_WORD	897841	wordpools/wasnorm_wordpool.txt	LTP110	ltpFR	16	11	0	CASHIER	254	n/a	1	n/a	n/a	n/a	n/a	n/a
1796.582	n/a	REC_WORD	898291	wordpools/wasnorm_wordpool.txt	LTP110	ltpFR	16	11	0	NURSE	963	n/a	1	n/a	n/a	n/a	n/a	n/a
1797.448	n/a	REC_WORD	898724	wordpools/wasnorm_wordpool.txt	LTP110	ltpFR	16	11	0	GLUE	643	n/a	0	n/a	n/a	n/a	n/a	n/a
1799.538	n/a	REC_WORD	899769	wordpools/wasnorm_wordpool.txt	LTP110	ltpFR	16	11	0	MARBLE	867	n/a	1	n/a	n/a	n/a	n/a	n/a
1800.39	n/a	REC_WORD	900195	wordpools/wasnorm_wordpool.txt	LTP110	ltpFR	16	11	0	OWNER	993	n/a	1	n/a	n/a	n/a	n/a	n/a
1801.274	n/a	REC_WORD	900637	wordpools/wasnorm_wordpool.txt	LTP110	ltpFR	16	11	0	EMPEROR	529	n/a	1	n/a	n/a	n/a	n/a	n/a
1802.85	n/a	REC_WORD	901425	wordpools/wasnorm_wordpool.txt	LTP110	ltpFR	16	11	0	CROWN	415	n/a	0	n/a	n/a	n/a	n/a	n/a
1804.586	n/a	REC_WORD	902293	wordpools/wasnorm_wordpool.txt	LTP110	ltpFR	16	11	0	CIGAR	308	n/a	0	n/a	n/a	n/a	n/a	n/a
1805.754	n/a	REC_WORD	902877	wordpools/wasnorm_wordpool.txt	LTP110	ltpFR	16	11	0	PILL	1068	n/a	0	n/a	n/a	n/a	n/a	n/a
1807.26	n/a	REC_WORD	903630	wordpools/wasnorm_wordpool.txt	LTP110	ltpFR	16	11	0	TABLET	1427	n/a	0	n/a	n/a	n/a	n/a	n/a
1823.18	n/a	REC_WORD	911590	wordpools/wasnorm_wordpool.txt	LTP110	ltpFR	16	11	0	PILL	1068	n/a	0	n/a	n/a	n/a	n/a	n/a
1831.816	n/a	REC_WORD	915908	wordpools/wasnorm_wordpool.txt	LTP110	ltpFR	16	11	0	PILLOW	1069	n/a	1	n/a	n/a	n/a	n/a	n/a
1854.276	n/a	REC_WORD	927138	wordpools/wasnorm_wordpool.txt	LTP110	ltpFR	16	11	0	AUNT	60	n/a	1	n/a	n/a	n/a	n/a	n/a
1854.954	n/a	REC_WORD	927477	wordpools/wasnorm_wordpool.txt	LTP110	ltpFR	16	11	0	NEPHEW	942	n/a	1	n/a	n/a	n/a	n/a	n/a
1875.012	n/a	WORD	937506	wordpools/wasnorm_wordpool.txt	LTP110	ltpFR	16	12	-1	ANTEATER	26	n/a	-1	1	1.0	1.0	upper	../fonts/Verdana.ttf
1879.152	n/a	WORD	939576	wordpools/wasnorm_wordpool.txt	LTP110	ltpFR	16	12	-1	BUG	187	n/a	-1	1	1.0	1.0	upper	../fonts/Verdana.ttf
1883.118	n/a	WORD	941559	wordpools/wasnorm_wordpool.txt	LTP110	ltpFR	16	12	-1	DAISY	435	n/a	-1	1	1.0	1.0	upper	../fonts/Verdana.ttf
1887.25	n/a	WORD	943625	wordpools/wasnorm_wordpool.txt	LTP110	ltpFR	16	12	-1	YOUTH	1634	n/a	-1	1	1.0	1.0	upper	../fonts/Verdana.ttf
1891.224	n/a	WORD	945612	wordpools/wasnorm_wordpool.txt	LTP110	ltpFR	16	12	-1	INSECT	740	n/a	-1	1	1.0	1.0	upper	../fonts/Verdana.ttf
1895.332	n/a	WORD	947666	wordpools/wasnorm_wordpool.txt	LTP110	ltpFR	16	12	-1	PAW	1029	n/a	-1	1	1.0	1.0	upper	../fonts/Verdana.ttf
1899.18	n/a	WORD	949590	wordpools/wasnorm_wordpool.txt	LTP110	ltpFR	16	12	-1	PELT	1040	n/a	-1	1	1.0	1.0	upper	../fonts/Verdana.ttf
1903.012	n/a	WORD	951506	wordpools/wasnorm_wordpool.txt	LTP110	ltpFR	16	12	-1	SHEEP	1278	n/a	-1	1	1.0	1.0	upper	../fonts/Verdana.ttf
1907.086	n/a	WORD	953543	wordpools/wasnorm_wordpool.txt	LTP110	ltpFR	16	12	-1	HAND	683	n/a	-1	1	1.0	1.0	upper	../fonts/Verdana.ttf
1911.102	n/a	WORD	955551	wordpools/wasnorm_wordpool.txt	LTP110	ltpFR	16	12	-1	CACTUS	215	n/a	-1	1	1.0	1.0	upper	../fonts/Verdana.ttf
1915.134	n/a	WORD	957567	wordpools/wasnorm_wordpool.txt	LTP110	ltpFR	16	12	-1	THREAD	1460	n/a	-1	1	1.0	1.0	upper	../fonts/Verdana.ttf
1919.198	n/a	WORD	959599	wordpools/wasnorm_wordpool.txt	LTP110	ltpFR	16	12	-1	SPOOL	1356	n/a	-1	1	1.0	1.0	upper	../fonts/Verdana.ttf
1923.156	n/a	WORD	961578	wordpools/wasnorm_wordpool.txt	LTP110	ltpFR	16	12	-1	SPIDER	1351	n/a	-1	1	1.0	1.0	upper	../fonts/Verdana.ttf
1927.33	n/a	WORD	963665	wordpools/wasnorm_wordpool.txt	LTP110	ltpFR	16	12	-1	COYOTE	396	n/a	-1	1	1.0	1.0	upper	../fonts/Verdana.ttf
1931.254	n/a	WORD	965627	wordpools/wasnorm_wordpool.txt	LTP110	ltpFR	16	12	-1	PREDATOR	1120	n/a	-1	1	1.0	1.0	upper	../fonts/Verdana.ttf
1935.368	n/a	WORD	967684	wordpools/wasnorm_wordpool.txt	LTP110	ltpFR	16	12	-1	OCTOPUS	971	n/a	-1	1	1.0	1.0	upper	../fonts/Verdana.ttf
1941.176	n/a	REC_START	970588	n/a	LTP110	ltpFR	16	12	n/a	n/a	n/a	n/a	n/a	n/a	n/a	n/a	n/a	n/a
1943.202	n/a	REC_WORD	971601	wordpools/wasnorm_wordpool.txt	LTP110	ltpFR	16	12	-1	THREAD	1460	n/a	-1	n/a	n/a	n/a	n/a	n/a
1943.926	n/a	REC_WORD	971963	wordpools/wasnorm_wordpool.txt	LTP110	ltpFR	16	12	-1	SPOOL	1356	n/a	-1	n/a	n/a	n/a	n/a	n/a
1945.508	n/a	REC_WORD	972754	wordpools/wasnorm_wordpool.txt	LTP110	ltpFR	16	12	-1	OCTOPUS	971	n/a	-1	n/a	n/a	n/a	n/a	n/a
1947.084	n/a	REC_WORD	973542	wordpools/wasnorm_wordpool.txt	LTP110	ltpFR	16	12	-1	COYOTE	396	n/a	-1	n/a	n/a	n/a	n/a	n/a
1947.892	n/a	REC_WORD	973946	wordpools/wasnorm_wordpool.txt	LTP110	ltpFR	16	12	-1	PREDATOR	1120	n/a	-1	n/a	n/a	n/a	n/a	n/a
1949.274	n/a	REC_WORD	974637	wordpools/wasnorm_wordpool.txt	LTP110	ltpFR	16	12	-1	CACTUS	215	n/a	-1	n/a	n/a	n/a	n/a	n/a
1951.16	n/a	REC_WORD	975580	wordpools/wasnorm_wordpool.txt	LTP110	ltpFR	16	12	-1	DAISY	435	n/a	-1	n/a	n/a	n/a	n/a	n/a
1951.952	n/a	REC_WORD	975976	wordpools/wasnorm_wordpool.txt	LTP110	ltpFR	16	12	-1	INSECT	740	n/a	-1	n/a	n/a	n/a	n/a	n/a
1953.02	n/a	REC_WORD	976510	wordpools/wasnorm_wordpool.txt	LTP110	ltpFR	16	12	-1	BUG	187	n/a	-1	n/a	n/a	n/a	n/a	n/a
1954.088	n/a	REC_WORD	977044	wordpools/wasnorm_wordpool.txt	LTP110	ltpFR	16	12	-1	PAW	1029	n/a	-1	n/a	n/a	n/a	n/a	n/a
1954.646	n/a	REC_WORD	977323	wordpools/wasnorm_wordpool.txt	LTP110	ltpFR	16	12	-1	HAND	683	n/a	-1	n/a	n/a	n/a	n/a	n/a
1956.128	n/a	REC_WORD	978064	wordpools/wasnorm_wordpool.txt	LTP110	ltpFR	16	12	-1	PELT	1040	n/a	-1	n/a	n/a	n/a	n/a	n/a
1956.886	n/a	REC_WORD	978443	wordpools/wasnorm_wordpool.txt	LTP110	ltpFR	16	12	-1	SHEEP	1278	n/a	-1	n/a	n/a	n/a	n/a	n/a
1961.776	n/a	REC_WORD	980888	wordpools/wasnorm_wordpool.txt	LTP110	ltpFR	16	12	-1	ANTEATER	26	n/a	-1	n/a	n/a	n/a	n/a	n/a
1963.772	n/a	REC_WORD	981886	wordpools/wasnorm_wordpool.txt	LTP110	ltpFR	16	12	-1	YOUTH	1634	n/a	-1	n/a	n/a	n/a	n/a	n/a
1991.75	n/a	REC_WORD	995875	wordpools/wasnorm_wordpool.txt	LTP110	ltpFR	16	12	n/a	DESERT	-1	n/a	n/a	n/a	n/a	n/a	n/a	n/a
2016.778	n/a	REST_REWET	1008389	n/a	LTP110	ltpFR	16	12	n/a	n/a	n/a	n/a	n/a	n/a	n/a	n/a	n/a	n/a
2356.9	n/a	WORD	1178450	wordpools/wasnorm_wordpool.txt	LTP110	ltpFR	16	13	-1	FRIAR	605	n/a	-1	1	1.0	1.0	upper	../fonts/Verdana.ttf
2360.982	n/a	WORD	1180491	wordpools/wasnorm_wordpool.txt	LTP110	ltpFR	16	13	-1	CUP	424	n/a	-1	1	1.0	1.0	upper	../fonts/Verdana.ttf
2365.132	n/a	WORD	1182566	wordpools/wasnorm_wordpool.txt	LTP110	ltpFR	16	13	-1	CAPITAL	238	n/a	-1	1	1.0	1.0	upper	../fonts/Verdana.ttf
2369.172	n/a	WORD	1184586	wordpools/wasnorm_wordpool.txt	LTP110	ltpFR	16	13	-1	CENT	270	n/a	-1	1	1.0	1.0	upper	../fonts/Verdana.ttf
2373.37	n/a	WORD	1186685	wordpools/wasnorm_wordpool.txt	LTP110	ltpFR	16	13	-1	SWAMP	1416	n/a	-1	1	1.0	1.0	upper	../fonts/Verdana.ttf
2377.486	n/a	WORD	1188743	wordpools/wasnorm_wordpool.txt	LTP110	ltpFR	16	13	-1	MARSH	874	n/a	-1	1	1.0	1.0	upper	../fonts/Verdana.ttf
2381.318	n/a	WORD	1190659	wordpools/wasnorm_wordpool.txt	LTP110	ltpFR	16	13	-1	DISH	474	n/a	-1	1	1.0	1.0	upper	../fonts/Verdana.ttf
2385.516	n/a	WORD	1192758	wordpools/wasnorm_wordpool.txt	LTP110	ltpFR	16	13	-1	BREAD	170	n/a	-1	1	1.0	1.0	upper	../fonts/Verdana.ttf
2389.69	n/a	WORD	1194845	wordpools/wasnorm_wordpool.txt	LTP110	ltpFR	16	13	-1	UNICORN	1538	n/a	-1	1	1.0	1.0	upper	../fonts/Verdana.ttf
2393.712	n/a	WORD	1196856	wordpools/wasnorm_wordpool.txt	LTP110	ltpFR	16	13	-1	EAGLE	512	n/a	-1	1	1.0	1.0	upper	../fonts/Verdana.ttf
2397.562	n/a	WORD	1198781	wordpools/wasnorm_wordpool.txt	LTP110	ltpFR	16	13	-1	CAGE	218	n/a	-1	1	1.0	1.0	upper	../fonts/Verdana.ttf
2401.378	n/a	WORD	1200689	wordpools/wasnorm_wordpool.txt	LTP110	ltpFR	16	13	-1	CYLINDER	432	n/a	-1	1	1.0	1.0	upper	../fonts/Verdana.ttf
2405.336	n/a	WORD	1202668	wordpools/wasnorm_wordpool.txt	LTP110	ltpFR	16	13	-1	LOG	841	n/a	-1	1	1.0	1.0	upper	../fonts/Verdana.ttf
2409.242	n/a	WORD	1204621	wordpools/wasnorm_wordpool.txt	LTP110	ltpFR	16	13	-1	CHAPEL	280	n/a	-1	1	1.0	1.0	upper	../fonts/Verdana.ttf
2413.308	n/a	WORD	1206654	wordpools/wasnorm_wordpool.txt	LTP110	ltpFR	16	13	-1	WEED	1599	n/a	-1	1	1.0	1.0	upper	../fonts/Verdana.ttf
2417.364	n/a	WORD	1208682	wordpools/wasnorm_wordpool.txt	LTP110	ltpFR	16	13	-1	SHINGLE	1285	n/a	-1	1	1.0	1.0	upper	../fonts/Verdana.ttf
2423.222	n/a	REC_START	1211611	n/a	LTP110	ltpFR	16	13	n/a	n/a	n/a	n/a	n/a	n/a	n/a	n/a	n/a	n/a
2424.594	n/a	REC_WORD	1212297	wordpools/wasnorm_wordpool.txt	LTP110	ltpFR	16	13	-1	SHINGLE	1285	n/a	-1	n/a	n/a	n/a	n/a	n/a
2425.462	n/a	REC_WORD	1212731	wordpools/wasnorm_wordpool.txt	LTP110	ltpFR	16	13	-1	WEED	1599	n/a	-1	n/a	n/a	n/a	n/a	n/a
2426.316	n/a	REC_WORD	1213158	wordpools/wasnorm_wordpool.txt	LTP110	ltpFR	16	13	-1	CHAPEL	280	n/a	-1	n/a	n/a	n/a	n/a	n/a
2427.316	n/a	REC_WORD_VV	1213658	wordpools/wasnorm_wordpool.txt	LTP110	ltpFR	16	13	n/a	<>	-1	n/a	n/a	n/a	n/a	n/a	n/a	n/a
2429.064	n/a	REC_WORD	1214532	wordpools/wasnorm_wordpool.txt	LTP110	ltpFR	16	13	-1	FRIAR	605	n/a	-1	n/a	n/a	n/a	n/a	n/a
2429.938	n/a	REC_WORD	1214969	wordpools/wasnorm_wordpool.txt	LTP110	ltpFR	16	13	-1	CUP	424	n/a	-1	n/a	n/a	n/a	n/a	n/a
2431.882	n/a	REC_WORD	1215941	wordpools/wasnorm_wordpool.txt	LTP110	ltpFR	16	13	-1	CENT	270	n/a	-1	n/a	n/a	n/a	n/a	n/a
2432.696	n/a	REC_WORD	1216348	wordpools/wasnorm_wordpool.txt	LTP110	ltpFR	16	13	-1	CAPITAL	238	n/a	-1	n/a	n/a	n/a	n/a	n/a
2434.562	n/a	REC_WORD	1217281	wordpools/wasnorm_wordpool.txt	LTP110	ltpFR	16	13	-1	DISH	474	n/a	-1	n/a	n/a	n/a	n/a	n/a
2436.152	n/a	REC_WORD	1218076	wordpools/wasnorm_wordpool.txt	LTP110	ltpFR	16	13	-1	BREAD	170	n/a	-1	n/a	n/a	n/a	n/a	n/a
2438.12	n/a	REC_WORD	1219060	wordpools/wasnorm_wordpool.txt	LTP110	ltpFR	16	13	-1	CAGE	218	n/a	-1	n/a	n/a	n/a	n/a	n/a
2438.844	n/a	REC_WORD	1219422	wordpools/wasnorm_wordpool.txt	LTP110	ltpFR	16	13	-1	UNICORN	1538	n/a	-1	n/a	n/a	n/a	n/a	n/a
2442.394	n/a	REC_WORD	1221197	wordpools/wasnorm_wordpool.txt	LTP110	ltpFR	16	13	-1	SWAMP	1416	n/a	-1	n/a	n/a	n/a	n/a	n/a
2443.368	n/a	REC_WORD	1221684	wordpools/wasnorm_wordpool.txt	LTP110	ltpFR	16	13	-1	MARSH	874	n/a	-1	n/a	n/a	n/a	n/a	n/a
2460.33	n/a	REC_WORD	1230165	wordpools/wasnorm_wordpool.txt	LTP110	ltpFR	16	13	0	ANIMAL	23	n/a	1	n/a	n/a	n/a	n/a	n/a
2487.046	n/a	REC_WORD	1243523	wordpools/wasnorm_wordpool.txt	LTP110	ltpFR	16	13	-1	EAGLE	512	n/a	-1	n/a	n/a	n/a	n/a	n/a
2501.898	n/a	WORD	1250949	wordpools/wasnorm_wordpool.txt	LTP110	ltpFR	16	14	1	FUNGUS	614	n/a	0	1	0.412841796875	0.57763671875	upper	../fonts/amplitud.ttf
2506.046	n/a	WORD	1253023	wordpools/wasnorm_wordpool.txt	LTP110	ltpFR	16	14	1	BLANKET	135	n/a	0	1	0.412841796875	0.57763671875	upper	../fonts/amplitud.ttf
2509.862	n/a	WORD	1254931	wordpools/wasnorm_wordpool.txt	LTP110	ltpFR	16	14	1	MATTRESS	879	n/a	0	1	0.412841796875	0.57763671875	upper	../fonts/amplitud.ttf
2513.77	n/a	WORD	1256885	wordpools/wasnorm_wordpool.txt	LTP110	ltpFR	16	14	1	LIMB	822	n/a	0	1	0.412841796875	0.57763671875	upper	../fonts/amplitud.ttf
2517.718	n/a	WORD	1258859	wordpools/wasnorm_wordpool.txt	LTP110	ltpFR	16	14	1	SENATE	1267	n/a	0	1	0.412841796875	0.57763671875	upper	../fonts/amplitud.ttf
2521.834	n/a	WORD	1260917	wordpools/wasnorm_wordpool.txt	LTP110	ltpFR	16	14	1	SPY	1360	n/a	1	1	0.412841796875	0.57763671875	upper	../fonts/amplitud.ttf
2525.706	n/a	WORD	1262853	wordpools/wasnorm_wordpool.txt	LTP110	ltpFR	16	14	1	SURF	1412	n/a	0	1	0.412841796875	0.57763671875	upper	../fonts/amplitud.ttf
2529.756	n/a	WORD	1264878	wordpools/wasnorm_wordpool.txt	LTP110	ltpFR	16	14	1	CORN	381	n/a	0	1	0.412841796875	0.57763671875	upper	../fonts/amplitud.ttf
2533.748	n/a	WORD	1266874	wordpools/wasnorm_wordpool.txt	LTP110	ltpFR	16	14	1	SYRUP	1425	n/a	0	1	0.412841796875	0.57763671875	upper	../fonts/amplitud.ttf
2537.896	n/a	WORD	1268948	wordpools/wasnorm_wordpool.txt	LTP110	ltpFR	16	14	1	MAPLE	866	n/a	0	1	0.412841796875	0.57763671875	upper	../fonts/amplitud.ttf
2541.736	n/a	WORD	1270868	wordpools/wasnorm_wordpool.txt	LTP110	ltpFR	16	14	1	STREAM	1392	n/a	0	1	0.412841796875	0.57763671875	upper	../fonts/amplitud.ttf
2545.668	n/a	WORD	1272834	wordpools/wasnorm_wordpool.txt	LTP110	ltpFR	16	14	1	PORPOISE	1109	n/a	1	1	0.412841796875	0.57763671875	upper	../fonts/amplitud.ttf
2549.592	n/a	WORD	1274796	wordpools/wasnorm_wordpool.txt	LTP110	ltpFR	16	14	1	SURVEY	1414	n/a	0	1	0.412841796875	0.57763671875	upper	../fonts/amplitud.ttf
2553.458	n/a	WORD	1276729	wordpools/wasnorm_wordpool.txt	LTP110	ltpFR	16	14	1	GIRL	637	n/a	1	1	0.412841796875	0.57763671875	upper	../fonts/amplitud.ttf
2557.598	n/a	WORD	1278799	wordpools/wasnorm_wordpool.txt	LTP110	ltpFR	16	14	1	JOKER	759	n/a	1	1	0.412841796875	0.57763671875	upper	../fonts/amplitud.ttf
2561.496	n/a	WORD	1280748	wordpools/wasnorm_wordpool.txt	LTP110	ltpFR	16	14	1	APPENDAGE	32	n/a	0	1	0.412841796875	0.57763671875	upper	../fonts/amplitud.ttf
2567.404	n/a	REC_START	1283702	n/a	LTP110	ltpFR	16	14	n/a	n/a	n/a	n/a	n/a	n/a	n/a	n/a	n/a	n/a
2568.39	n/a	REC_WORD	1284195	wordpools/wasnorm_wordpool.txt	LTP110	ltpFR	16	14	1	APPENDAGE	32	n/a	0	n/a	n/a	n/a	n/a	n/a
2569.236	n/a	REC_WORD	1284618	wordpools/wasnorm_wordpool.txt	LTP110	ltpFR	16	14	1	LIMB	822	n/a	0	n/a	n/a	n/a	n/a	n/a
2569.932	n/a	REC_WORD	1284966	wordpools/wasnorm_wordpool.txt	LTP110	ltpFR	16	14	1	MATTRESS	879	n/a	0	n/a	n/a	n/a	n/a	n/a
2571.66	n/a	REC_WORD	1285830	wordpools/wasnorm_wordpool.txt	LTP110	ltpFR	16	14	1	FUNGUS	614	n/a	0	n/a	n/a	n/a	n/a	n/a
2572.642	n/a	REC_WORD	1286321	wordpools/wasnorm_wordpool.txt	LTP110	ltpFR	16	14	1	BLANKET	135	n/a	0	n/a	n/a	n/a	n/a	n/a
2574.344	n/a	REC_WORD	1287172	wordpools/wasnorm_wordpool.txt	LTP110	ltpFR	16	14	1	SENATE	1267	n/a	0	n/a	n/a	n/a	n/a	n/a
2576.178	n/a	REC_WORD	1288089	wordpools/wasnorm_wordpool.txt	LTP110	ltpFR	16	14	1	SPY	1360	n/a	1	n/a	n/a	n/a	n/a	n/a
2577.726	n/a	REC_WORD	1288863	wordpools/wasnorm_wordpool.txt	LTP110	ltpFR	16	14	1	SURF	1412	n/a	0	n/a	n/a	n/a	n/a	n/a
2579.696	n/a	REC_WORD	1289848	wordpools/wasnorm_wordpool.txt	LTP110	ltpFR	16	14	1	GIRL	637	n/a	1	n/a	n/a	n/a	n/a	n/a
2595.048	n/a	REC_WORD	1297524	wordpools/wasnorm_wordpool.txt	LTP110	ltpFR	16	14	1	STREAM	1392	n/a	0	n/a	n/a	n/a	n/a	n/a
2617.822	n/a	REC_WORD	1308911	wordpools/wasnorm_wordpool.txt	LTP110	ltpFR	16	14	1	JOKER	759	n/a	1	n/a	n/a	n/a	n/a	n/a
2648.546	n/a	WORD	1324273	wordpools/wasnorm_wordpool.txt	LTP110	ltpFR	16	15	-1	HATCHET	691	n/a	-1	1	1.0	1.0	upper	../fonts/Verdana.ttf
2652.744	n/a	WORD	1326372	wordpools/wasnorm_wordpool.txt	LTP110	ltpFR	16	15	-1	BEE	112	n/a	-1	1	1.0	1.0	upper	../fonts/Verdana.ttf
2656.71	n/a	WORD	1328355	wordpools/wasnorm_wordpool.txt	LTP110	ltpFR	16	15	-1	BUSH	202	n/a	-1	1	1.0	1.0	upper	../fonts/Verdana.ttf
2660.574	n/a	WORD	1330287	wordpools/wasnorm_wordpool.txt	LTP110	ltpFR	16	15	-1	SHRUB	1299	n/a	-1	1	1.0	1.0	upper	../fonts/Verdana.ttf
2664.616	n/a	WORD	1332308	wordpools/wasnorm_wordpool.txt	LTP110	ltpFR	16	15	-1	DRINK	498	n/a	-1	1	1.0	1.0	upper	../fonts/Verdana.ttf
2668.582	n/a	WORD	1334291	wordpools/wasnorm_wordpool.txt	LTP110	ltpFR	16	15	-1	KEG	770	n/a	-1	1	1.0	1.0	upper	../fonts/Verdana.ttf
2672.714	n/a	WORD	1336357	wordpools/wasnorm_wordpool.txt	LTP110	ltpFR	16	15	-1	TEACHER	1440	n/a	-1	1	1.0	1.0	upper	../fonts/Verdana.ttf
2676.904	n/a	WORD	1338452	wordpools/wasnorm_wordpool.txt	LTP110	ltpFR	16	15	-1	SHRIMP	1297	n/a	-1	1	1.0	1.0	upper	../fonts/Verdana.ttf
2680.852	n/a	WORD	1340426	wordpools/wasnorm_wordpool.txt	LTP110	ltpFR	16	15	-1	MICROWAVE	892	n/a	-1	1	1.0	1.0	upper	../fonts/Verdana.ttf
2684.676	n/a	WORD	1342338	wordpools/wasnorm_wordpool.txt	LTP110	ltpFR	16	15	-1	HORNET	718	n/a	-1	1	1.0	1.0	upper	../fonts/Verdana.ttf
2688.676	n/a	WORD	1344338	wordpools/wasnorm_wordpool.txt	LTP110	ltpFR	16	15	-1	SPOON	1357	n/a	-1	1	1.0	1.0	upper	../fonts/Verdana.ttf
2692.722	n/a	WORD	1346361	wordpools/wasnorm_wordpool.txt	LTP110	ltpFR	16	15	-1	RIDER	1191	n/a	-1	1	1.0	1.0	upper	../fonts/Verdana.ttf
2696.888	n/a	WORD	1348444	wordpools/wasnorm_wordpool.txt	LTP110	ltpFR	16	15	-1	NICKEL	950	n/a	-1	1	1.0	1.0	upper	../fonts/Verdana.ttf
2700.92	n/a	WORD	1350460	wordpools/wasnorm_wordpool.txt	LTP110	ltpFR	16	15	-1	TAG	1429	n/a	-1	1	1.0	1.0	upper	../fonts/Verdana.ttf
2704.846	n/a	WORD	1352423	wordpools/wasnorm_wordpool.txt	LTP110	ltpFR	16	15	-1	TRICYCLE	1506	n/a	-1	1	1.0	1.0	upper	../fonts/Verdana.ttf
2708.878	n/a	WORD	1354439	wordpools/wasnorm_wordpool.txt	LTP110	ltpFR	16	15	-1	THIEF	1456	n/a	-1	1	1.0	1.0	upper	../fonts/Verdana.ttf
2714.634	n/a	REC_START	1357317	n/a	LTP110	ltpFR	16	15	n/a	n/a	n/a	n/a	n/a	n/a	n/a	n/a	n/a	n/a
2715.248	n/a	REC_WORD	1357624	wordpools/wasnorm_wordpool.txt	LTP110	ltpFR	16	15	-1	NICKEL	950	n/a	-1	n/a	n/a	n/a	n/a	n/a
2716.326	n/a	REC_WORD	1358163	wordpools/wasnorm_wordpool.txt	LTP110	ltpFR	16	15	-1	TAG	1429	n/a	-1	n/a	n/a	n/a	n/a	n/a
2717.114	n/a	REC_WORD	1358557	wordpools/wasnorm_wordpool.txt	LTP110	ltpFR	16	15	-1	TRICYCLE	1506	n/a	-1	n/a	n/a	n/a	n/a	n/a
2718.106	n/a	REC_WORD	1359053	wordpools/wasnorm_wordpool.txt	LTP110	ltpFR	16	15	-1	THIEF	1456	n/a	-1	n/a	n/a	n/a	n/a	n/a
2719.344	n/a	REC_WORD	1359672	wordpools/wasnorm_wordpool.txt	LTP110	ltpFR	16	15	-1	HATCHET	691	n/a	-1	n/a	n/a	n/a	n/a	n/a
2720.436	n/a	REC_WORD	1360218	wordpools/wasnorm_wordpool.txt	LTP110	ltpFR	16	15	-1	BUSH	202	n/a	-1	n/a	n/a	n/a	n/a	n/a
2721.09	n/a	REC_WORD	1360545	wordpools/wasnorm_wordpool.txt	LTP110	ltpFR	16	15	-1	SHRUB	1299	n/a	-1	n/a	n/a	n/a	n/a	n/a
2723.216	n/a	REC_WORD	1361608	wordpools/wasnorm_wordpool.txt	LTP110	ltpFR	16	15	-1	BEE	112	n/a	-1	n/a	n/a	n/a	n/a	n/a
2724.314	n/a	REC_WORD	1362157	wordpools/wasnorm_wordpool.txt	LTP110	ltpFR	16	15	-1	HORNET	718	n/a	-1	n/a	n/a	n/a	n/a	n/a
2727.302	n/a	REC_WORD	1363651	wordpools/wasnorm_wordpool.txt	LTP110	ltpFR	16	15	-1	SHRIMP	1297	n/a	-1	n/a	n/a	n/a	n/a	n/a
2728.16	n/a	REC_WORD	1364080	wordpools/wasnorm_wordpool.txt	LTP110	ltpFR	16	15	-1	MICROWAVE	892	n/a	-1	n/a	n/a	n/a	n/a	n/a
2730.938	n/a	REC_WORD	1365469	wordpools/wasnorm_wordpool.txt	LTP110	ltpFR	16	15	-1	TEACHER	1440	n/a	-1	n/a	n/a	n/a	n/a	n/a
2784.908	n/a	REC_WORD	1392454	wordpools/wasnorm_wordpool.txt	LTP110	ltpFR	16	15	1	STREAM	1392	n/a	0	n/a	n/a	n/a	n/a	n/a
2793.776	n/a	WORD	1396888	wordpools/wasnorm_wordpool.txt	LTP110	ltpFR	16	16	1	VEST	1559	n/a	0	1	0.412841796875	0.57763671875	upper	../fonts/amplitud.ttf
2797.958	n/a	WORD	1398979	wordpools/wasnorm_wordpool.txt	LTP110	ltpFR	16	16	1	FARM	552	n/a	0	1	0.412841796875	0.57763671875	upper	../fonts/amplitud.ttf
2801.916	n/a	WORD	1400958	wordpools/wasnorm_wordpool.txt	LTP110	ltpFR	16	16	1	SWATTER	1418	n/a	0	1	0.412841796875	0.57763671875	upper	../fonts/amplitud.ttf
2806.072	n/a	WORD	1403036	wordpools/wasnorm_wordpool.txt	LTP110	ltpFR	16	16	1	TACK	1428	n/a	0	1	0.412841796875	0.57763671875	upper	../fonts/amplitud.ttf
2810.154	n/a	WORD	1405077	wordpools/wasnorm_wordpool.txt	LTP110	ltpFR	16	16	1	DIRECTOR	471	n/a	1	1	0.412841796875	0.57763671875	upper	../fonts/amplitud.ttf
2814.354	n/a	WORD	1407177	wordpools/wasnorm_wordpool.txt	LTP110	ltpFR	16	16	1	PAINTER	1004	n/a	1	1	0.412841796875	0.57763671875	upper	../fonts/amplitud.ttf
2818.328	n/a	WORD	1409164	wordpools/wasnorm_wordpool.txt	LTP110	ltpFR	16	16	1	CRICKET	408	n/a	0	1	0.412841796875	0.57763671875	upper	../fonts/amplitud.ttf
2822.476	n/a	WORD	1411238	wordpools/wasnorm_wordpool.txt	LTP110	ltpFR	16	16	1	RADIO	1157	n/a	0	1	0.412841796875	0.57763671875	upper	../fonts/amplitud.ttf
2826.45	n/a	WORD	1413225	wordpools/wasnorm_wordpool.txt	LTP110	ltpFR	16	16	1	CONCERT	360	n/a	0	1	0.412841796875	0.57763671875	upper	../fonts/amplitud.ttf
2830.34	n/a	WORD	1415170	wordpools/wasnorm_wordpool.txt	LTP110	ltpFR	16	16	1	CRITIC	410	n/a	1	1	0.412841796875	0.57763671875	upper	../fonts/amplitud.ttf
2834.206	n/a	WORD	1417103	wordpools/wasnorm_wordpool.txt	LTP110	ltpFR	16	16	1	FRAME	600	n/a	0	1	0.412841796875	0.57763671875	upper	../fonts/amplitud.ttf
2838.18	n/a	WORD	1419090	wordpools/wasnorm_wordpool.txt	LTP110	ltpFR	16	16	1	FEMALE	559	n/a	1	1	0.412841796875	0.57763671875	upper	../fonts/amplitud.ttf
2842.328	n/a	WORD	1421164	wordpools/wasnorm_wordpool.txt	LTP110	ltpFR	16	16	1	SCOUT	1252	n/a	1	1	0.412841796875	0.57763671875	upper	../fonts/amplitud.ttf
2846.194	n/a	WORD	1423097	wordpools/wasnorm_wordpool.txt	LTP110	ltpFR	16	16	1	BLOSSOM	138	n/a	0	1	0.412841796875	0.57763671875	upper	../fonts/amplitud.ttf
2850.384	n/a	WORD	1425192	wordpools/wasnorm_wordpool.txt	LTP110	ltpFR	16	16	1	BROOK	177	n/a	0	1	0.412841796875	0.57763671875	upper	../fonts/amplitud.ttf
2854.582	n/a	WORD	1427291	wordpools/wasnorm_wordpool.txt	LTP110	ltpFR	16	16	1	WATER	1594	n/a	0	1	0.412841796875	0.57763671875	upper	../fonts/amplitud.ttf
2860.3	n/a	REC_START	1430150	n/a	LTP110	ltpFR	16	16	n/a	n/a	n/a	n/a	n/a	n/a	n/a	n/a	n/a	n/a
2861.336	n/a	REC_WORD	1430668	wordpools/wasnorm_wordpool.txt	LTP110	ltpFR	16	16	1	BROOK	177	n/a	0	n/a	n/a	n/a	n/a	n/a
2863.188	n/a	REC_WORD	1431594	wordpools/wasnorm_wordpool.txt	LTP110	ltpFR	16	16	1	FRAME	600	n/a	0	n/a	n/a	n/a	n/a	n/a
2864.46	n/a	REC_WORD	1432230	wordpools/wasnorm_wordpool.txt	LTP110	ltpFR	16	16	1	WATER	1594	n/a	0	n/a	n/a	n/a	n/a	n/a
2867.334	n/a	REC_WORD	1433667	wordpools/wasnorm_wordpool.txt	LTP110	ltpFR	16	16	1	DIRECTOR	471	n/a	1	n/a	n/a	n/a	n/a	n/a
2868.208	n/a	REC_WORD	1434104	wordpools/wasnorm_wordpool.txt	LTP110	ltpFR	16	16	1	VEST	1559	n/a	0	n/a	n/a	n/a	n/a	n/a
2869.05	n/a	REC_WORD	1434525	wordpools/wasnorm_wordpool.txt	LTP110	ltpFR	16	16	1	FARM	552	n/a	0	n/a	n/a	n/a	n/a	n/a
2873.07	n/a	REC_WORD	1436535	wordpools/wasnorm_wordpool.txt	LTP110	ltpFR	16	16	1	TACK	1428	n/a	0	n/a	n/a	n/a	n/a	n/a
2924.112	n/a	REC_WORD	1462056	wordpools/wasnorm_wordpool.txt	LTP110	ltpFR	16	16	1	DIRECTOR	471	n/a	1	n/a	n/a	n/a	n/a	n/a
2941.9	n/a	REC_START	1470950	n/a	LTP110	ltpFR	16	1	n/a	n/a	n/a	n/a	n/a	n/a	n/a	n/a	n/a	n/a
2941.932	n/a	RECOG_LURE	1470966	n/a	LTP110	ltpFR	16	1	n/a	ICEBERG	731	5	n/a	n/a	n/a	n/a	n/a	n/a
2943.242	n/a	RECOG_RESP	1471621	n/a	LTP110	ltpFR	16	1	n/a	ICEBERG	731	n/a	n/a	n/a	n/a	n/a	n/a	n/a
2944.338	n/a	RECOG_CONF	1472169	n/a	LTP110	ltpFR	16	1	n/a	ICEBERG	731	5	n/a	n/a	n/a	n/a	n/a	n/a
2945.872	n/a	RECOG_LURE	1472936	n/a	LTP110	ltpFR	16	1	n/a	SEAFOOD	1260	5	n/a	n/a	n/a	n/a	n/a	n/a
2946.524	n/a	RECOG_RESP	1473262	n/a	LTP110	ltpFR	16	1	n/a	SEAFOOD	1260	n/a	n/a	n/a	n/a	n/a	n/a	n/a
2947.132	n/a	RECOG_CONF	1473566	n/a	LTP110	ltpFR	16	1	n/a	SEAFOOD	1260	5	n/a	n/a	n/a	n/a	n/a	n/a
2948.496	n/a	RECOG_LURE	1474248	n/a	LTP110	ltpFR	16	1	n/a	ULCER	1533	5	n/a	n/a	n/a	n/a	n/a	n/a
2949.048	n/a	RECOG_RESP	1474524	n/a	LTP110	ltpFR	16	1	n/a	ULCER	1533	n/a	n/a	n/a	n/a	n/a	n/a	n/a
2949.518	n/a	RECOG_CONF	1474759	n/a	LTP110	ltpFR	16	1	n/a	ULCER	1533	5	n/a	n/a	n/a	n/a	n/a	n/a
2950.954	n/a	RECOG_LURE	1475477	n/a	LTP110	ltpFR	16	1	n/a	JAR	750	5	n/a	n/a	n/a	n/a	n/a	n/a
2951.508	n/a	RECOG_RESP	1475754	n/a	LTP110	ltpFR	16	1	n/a	JAR	750	n/a	n/a	n/a	n/a	n/a	n/a	n/a
2952.122	n/a	RECOG_CONF	1476061	n/a	LTP110	ltpFR	16	1	n/a	JAR	750	5	n/a	n/a	n/a	n/a	n/a	n/a
2953.396	n/a	RECOG_TARGET	1476698	n/a	LTP110	ltpFR	16	1	0	ACTOR	5	4	1	n/a	n/a	n/a	n/a	n/a
2954.118	n/a	RECOG_RESP	1477059	n/a	LTP110	ltpFR	16	1	0	ACTOR	5	n/a	1	n/a	n/a	n/a	n/a	n/a
2954.776	n/a	RECOG_CONF	1477388	n/a	LTP110	ltpFR	16	1	0	ACTOR	5	4	1	n/a	n/a	n/a	n/a	n/a
2956.152	n/a	RECOG_TARGET	1478076	n/a	LTP110	ltpFR	16	1	-1	SPIDER	1351	1	-1	n/a	n/a	n/a	n/a	n/a
2956.986	n/a	RECOG_RESP	1478493	n/a	LTP110	ltpFR	16	1	-1	SPIDER	1351	n/a	-1	n/a	n/a	n/a	n/a	n/a
2957.918	n/a	RECOG_CONF	1478959	n/a	LTP110	ltpFR	16	1	-1	SPIDER	1351	1	-1	n/a	n/a	n/a	n/a	n/a
2959.294	n/a	RECOG_LURE	1479647	n/a	LTP110	ltpFR	16	1	n/a	CIGARETTE	309	5	n/a	n/a	n/a	n/a	n/a	n/a
2960.03	n/a	RECOG_RESP	1480015	n/a	LTP110	ltpFR	16	1	n/a	CIGARETTE	309	n/a	n/a	n/a	n/a	n/a	n/a	n/a
2960.514	n/a	RECOG_CONF	1480257	n/a	LTP110	ltpFR	16	1	n/a	CIGARETTE	309	5	n/a	n/a	n/a	n/a	n/a	n/a
2962.008	n/a	RECOG_LURE	1481004	n/a	LTP110	ltpFR	16	1	n/a	REBEL	1172	4	n/a	n/a	n/a	n/a	n/a	n/a
2962.548	n/a	RECOG_RESP	1481274	n/a	LTP110	ltpFR	16	1	n/a	REBEL	1172	n/a	n/a	n/a	n/a	n/a	n/a	n/a
2963.176	n/a	RECOG_CONF	1481588	n/a	LTP110	ltpFR	16	1	n/a	REBEL	1172	4	n/a	n/a	n/a	n/a	n/a	n/a
2964.542	n/a	RECOG_LURE	1482271	n/a	LTP110	ltpFR	16	1	n/a	LEMON	810	5	n/a	n/a	n/a	n/a	n/a	n/a
2965.038	n/a	RECOG_RESP	1482519	n/a	LTP110	ltpFR	16	1	n/a	LEMON	810	n/a	n/a	n/a	n/a	n/a	n/a	n/a
2965.532	n/a	RECOG_CONF	1482766	n/a	LTP110	ltpFR	16	1	n/a	LEMON	810	5	n/a	n/a	n/a	n/a	n/a	n/a
2967.008	n/a	RECOG_TARGET	1483504	n/a	LTP110	ltpFR	16	1	1	CUSTARD	429	4	0	n/a	n/a	n/a	n/a	n/a
2967.458	n/a	RECOG_RESP	1483729	n/a	LTP110	ltpFR	16	1	1	CUSTARD	429	n/a	0	n/a	n/a	n/a	n/a	n/a
2968.126	n/a	RECOG_CONF	1484063	n/a	LTP110	ltpFR	16	1	1	CUSTARD	429	4	0	n/a	n/a	n/a	n/a	n/a
2969.498	n/a	RECOG_LURE	1484749	n/a	LTP110	ltpFR	16	1	n/a	MOOSE	915	5	n/a	n/a	n/a	n/a	n/a	n/a
2970.616	n/a	RECOG_RESP	1485308	n/a	LTP110	ltpFR	16	1	n/a	MOOSE	915	n/a	n/a	n/a	n/a	n/a	n/a	n/a
2971.26	n/a	RECOG_CONF	1485630	n/a	LTP110	ltpFR	16	1	n/a	MOOSE	915	5	n/a	n/a	n/a	n/a	n/a	n/a
2972.648	n/a	RECOG_TARGET	1486324	n/a	LTP110	ltpFR	16	1	1	DASHBOARD	441	5	0	n/a	n/a	n/a	n/a	n/a
2973.744	n/a	RECOG_RESP	1486872	n/a	LTP110	ltpFR	16	1	1	DASHBOARD	441	n/a	0	n/a	n/a	n/a	n/a	n/a
2974.362	n/a	RECOG_CONF	1487181	n/a	LTP110	ltpFR	16	1	1	DASHBOARD	441	5	0	n/a	n/a	n/a	n/a	n/a
2975.738	n/a	RECOG_LURE	1487869	n/a	LTP110	ltpFR	16	1	n/a	BEER	114	4	n/a	n/a	n/a	n/a	n/a	n/a
2976.278	n/a	RECOG_RESP	1488139	n/a	LTP110	ltpFR	16	1	n/a	BEER	114	n/a	n/a	n/a	n/a	n/a	n/a	n/a
2976.902	n/a	RECOG_CONF	1488451	n/a	LTP110	ltpFR	16	1	n/a	BEER	114	4	n/a	n/a	n/a	n/a	n/a	n/a
2978.312	n/a	RECOG_TARGET	1489156	n/a	LTP110	ltpFR	16	1	1	SEAGULL	1261	5	1	n/a	n/a	n/a	n/a	n/a
2978.852	n/a	RECOG_RESP	1489426	n/a	LTP110	ltpFR	16	1	1	SEAGULL	1261	n/a	1	n/a	n/a	n/a	n/a	n/a
2979.422	n/a	RECOG_CONF	1489711	n/a	LTP110	ltpFR	16	1	1	SEAGULL	1261	5	1	n/a	n/a	n/a	n/a	n/a
2980.82	n/a	RECOG_TARGET	1490410	n/a	LTP110	ltpFR	16	1	0	MARINE	869	5	1	n/a	n/a	n/a	n/a	n/a
2981.316	n/a	RECOG_RESP	1490658	n/a	LTP110	ltpFR	16	1	0	MARINE	869	n/a	1	n/a	n/a	n/a	n/a	n/a
2981.886	n/a	RECOG_CONF	1490943	n/a	LTP110	ltpFR	16	1	0	MARINE	869	5	1	n/a	n/a	n/a	n/a	n/a
2983.236	n/a	RECOG_TARGET	1491618	n/a	LTP110	ltpFR	16	1	-1	MICROWAVE	892	5	-1	n/a	n/a	n/a	n/a	n/a
2983.742	n/a	RECOG_RESP	1491871	n/a	LTP110	ltpFR	16	1	-1	MICROWAVE	892	n/a	-1	n/a	n/a	n/a	n/a	n/a
2984.28	n/a	RECOG_CONF	1492140	n/a	LTP110	ltpFR	16	1	-1	MICROWAVE	892	5	-1	n/a	n/a	n/a	n/a	n/a
2985.826	n/a	RECOG_TARGET	1492913	n/a	LTP110	ltpFR	16	1	1	AMBULANCE	19	5	0	n/a	n/a	n/a	n/a	n/a
2986.26	n/a	RECOG_RESP	1493130	n/a	LTP110	ltpFR	16	1	1	AMBULANCE	19	n/a	0	n/a	n/a	n/a	n/a	n/a
2986.794	n/a	RECOG_CONF	1493397	n/a	LTP110	ltpFR	16	1	1	AMBULANCE	19	5	0	n/a	n/a	n/a	n/a	n/a
2988.15	n/a	RECOG_TARGET	1494075	n/a	LTP110	ltpFR	16	1	-1	THIEF	1456	5	-1	n/a	n/a	n/a	n/a	n/a
2988.656	n/a	RECOG_RESP	1494328	n/a	LTP110	ltpFR	16	1	-1	THIEF	1456	n/a	-1	n/a	n/a	n/a	n/a	n/a
2989.2	n/a	RECOG_CONF	1494600	n/a	LTP110	ltpFR	16	1	-1	THIEF	1456	5	-1	n/a	n/a	n/a	n/a	n/a
2990.66	n/a	RECOG_TARGET	1495330	n/a	LTP110	ltpFR	16	1	1	GIRL	637	5	1	n/a	n/a	n/a	n/a	n/a
2991.146	n/a	RECOG_RESP	1495573	n/a	LTP110	ltpFR	16	1	1	GIRL	637	n/a	1	n/a	n/a	n/a	n/a	n/a
2991.624	n/a	RECOG_CONF	1495812	n/a	LTP110	ltpFR	16	1	1	GIRL	637	5	1	n/a	n/a	n/a	n/a	n/a
2993.134	n/a	RECOG_TARGET	1496567	n/a	LTP110	ltpFR	16	1	0	NUCLEUS	961	5	0	n/a	n/a	n/a	n/a	n/a
2993.624	n/a	RECOG_RESP	1496812	n/a	LTP110	ltpFR	16	1	0	NUCLEUS	961	n/a	0	n/a	n/a	n/a	n/a	n/a
2994.138	n/a	RECOG_CONF	1497069	n/a	LTP110	ltpFR	16	1	0	NUCLEUS	961	5	0	n/a	n/a	n/a	n/a	n/a
2997.314	n/a	REC_START	1498657	n/a	LTP110	ltpFR	16	2	n/a	n/a	n/a	n/a	n/a	n/a	n/a	n/a	n/a	n/a
2997.348	n/a	RECOG_LURE	1498674	n/a	LTP110	ltpFR	16	2	n/a	JEANS	752	4	n/a	n/a	n/a	n/a	n/a	n/a
2997.978	n/a	RECOG_RESP	1498989	n/a	LTP110	ltpFR	16	2	n/a	JEANS	752	n/a	n/a	n/a	n/a	n/a	n/a	n/a
2998.496	n/a	RECOG_CONF	1499248	n/a	LTP110	ltpFR	16	2	n/a	JEANS	752	4	n/a	n/a	n/a	n/a	n/a	n/a
2999.738	n/a	RECOG_TARGET	1499869	n/a	LTP110	ltpFR	16	2	-1	PREDATOR	1120	5	-1	n/a	n/a	n/a	n/a	n/a
3000.232	n/a	RECOG_RESP	1500116	n/a	LTP110	ltpFR	16	2	-1	PREDATOR	1120	n/a	-1	n/a	n/a	n/a	n/a	n/a
3000.672	n/a	RECOG_CONF	1500336	n/a	LTP110	ltpFR	16	2	-1	PREDATOR	1120	5	-1	n/a	n/a	n/a	n/a	n/a
3002.306	n/a	RECOG_TARGET	1501153	n/a	LTP110	ltpFR	16	2	0	PILLOW	1069	5	1	n/a	n/a	n/a	n/a	n/a
3002.862	n/a	RECOG_RESP	1501431	n/a	LTP110	ltpFR	16	2	0	PILLOW	1069	n/a	1	n/a	n/a	n/a	n/a	n/a
3003.376	n/a	RECOG_CONF	1501688	n/a	LTP110	ltpFR	16	2	0	PILLOW	1069	5	1	n/a	n/a	n/a	n/a	n/a
3004.638	n/a	RECOG_TARGET	1502319	n/a	LTP110	ltpFR	16	2	0	MOWER	928	5	1	n/a	n/a	n/a	n/a	n/a
3005.186	n/a	RECOG_RESP	1502593	n/a	LTP110	ltpFR	16	2	0	MOWER	928	n/a	1	n/a	n/a	n/a	n/a	n/a
3005.61	n/a	RECOG_CONF	1502805	n/a	LTP110	ltpFR	16	2	0	MOWER	928	5	1	n/a	n/a	n/a	n/a	n/a
3007.036	n/a	RECOG_LURE	1503518	n/a	LTP110	ltpFR	16	2	n/a	POLICE	1098	5	n/a	n/a	n/a	n/a	n/a	n/a
3007.596	n/a	RECOG_RESP	1503798	n/a	LTP110	ltpFR	16	2	n/a	POLICE	1098	n/a	n/a	n/a	n/a	n/a	n/a	n/a
3008.096	n/a	RECOG_CONF	1504048	n/a	LTP110	ltpFR	16	2	n/a	POLICE	1098	5	n/a	n/a	n/a	n/a	n/a	n/a
3009.396	n/a	RECOG_LURE	1504698	n/a	LTP110	ltpFR	16	2	n/a	STEM	1376	4	n/a	n/a	n/a	n/a	n/a	n/a
3012.086	n/a	RECOG_RESP	1506043	n/a	LTP110	ltpFR	16	2	n/a	STEM	1376	n/a	n/a	n/a	n/a	n/a	n/a	n/a
3012.874	n/a	RECOG_CONF	1506437	n/a	LTP110	ltpFR	16	2	n/a	STEM	1376	4	n/a	n/a	n/a	n/a	n/a	n/a
3014.21	n/a	RECOG_LURE	1507105	n/a	LTP110	ltpFR	16	2	n/a	CHIMPANZEE	302	5	n/a	n/a	n/a	n/a	n/a	n/a
3014.946	n/a	RECOG_RESP	1507473	n/a	LTP110	ltpFR	16	2	n/a	CHIMPANZEE	302	n/a	n/a	n/a	n/a	n/a	n/a	n/a
3015.488	n/a	RECOG_CONF	1507744	n/a	LTP110	ltpFR	16	2	n/a	CHIMPANZEE	302	5	n/a	n/a	n/a	n/a	n/a	n/a
3016.7	n/a	RECOG_TARGET	1508350	n/a	LTP110	ltpFR	16	2	1	BEET	115	5	0	n/a	n/a	n/a	n/a	n/a
3017.414	n/a	RECOG_RESP	1508707	n/a	LTP110	ltpFR	16	2	1	BEET	115	n/a	0	n/a	n/a	n/a	n/a	n/a
3017.898	n/a	RECOG_CONF	1508949	n/a	LTP110	ltpFR	16	2	1	BEET	115	5	0	n/a	n/a	n/a	n/a	n/a
3019.684	n/a	RECOG_TARGET	1509842	n/a	LTP110	ltpFR	16	2	0	PICKLE	1059	1	0	n/a	n/a	n/a	n/a	n/a
3025.856	n/a	RECOG_RESP	1512928	n/a	LTP110	ltpFR	16	2	0	PICKLE	1059	n/a	0	n/a	n/a	n/a	n/a	n/a
3026.634	n/a	RECOG_CONF	1513317	n/a	LTP110	ltpFR	16	2	0	PICKLE	1059	1	0	n/a	n/a	n/a	n/a	n/a
3028.164	n/a	RECOG_LURE	1514082	n/a	LTP110	ltpFR	16	2	n/a	COCOON	339	5	n/a	n/a	n/a	n/a	n/a	n/a
3029.09	n/a	RECOG_RESP	1514545	n/a	LTP110	ltpFR	16	2	n/a	COCOON	339	n/a	n/a	n/a	n/a	n/a	n/a	n/a
3029.498	n/a	RECOG_CONF	1514749	n/a	LTP110	ltpFR	16	2	n/a	COCOON	339	5	n/a	n/a	n/a	n/a	n/a	n/a
3030.996	n/a	RECOG_LURE	1515498	n/a	LTP110	ltpFR	16	2	n/a	FLEET	578	4	n/a	n/a	n/a	n/a	n/a	n/a
3032.078	n/a	RECOG_RESP	1516039	n/a	LTP110	ltpFR	16	2	n/a	FLEET	578	n/a	n/a	n/a	n/a	n/a	n/a	n/a
3032.616	n/a	RECOG_CONF	1516308	n/a	LTP110	ltpFR	16	2	n/a	FLEET	578	4	n/a	n/a	n/a	n/a	n/a	n/a
3033.962	n/a	RECOG_LURE	1516981	n/a	LTP110	ltpFR	16	2	n/a	CREATURE	403	5	n/a	n/a	n/a	n/a	n/a	n/a
3034.572	n/a	RECOG_RESP	1517286	n/a	LTP110	ltpFR	16	2	n/a	CREATURE	403	n/a	n/a	n/a	n/a	n/a	n/a	n/a
3034.976	n/a	RECOG_CONF	1517488	n/a	LTP110	ltpFR	16	2	n/a	CREATURE	403	5	n/a	n/a	n/a	n/a	n/a	n/a
3036.32	n/a	RECOG_TARGET	1518160	n/a	LTP110	ltpFR	16	2	0	CRIMINAL	409	5	1	n/a	n/a	n/a	n/a	n/a
3037.336	n/a	RECOG_RESP	1518668	n/a	LTP110	ltpFR	16	2	0	CRIMINAL	409	n/a	1	n/a	n/a	n/a	n/a	n/a
3037.77	n/a	RECOG_CONF	1518885	n/a	LTP110	ltpFR	16	2	0	CRIMINAL	409	5	1	n/a	n/a	n/a	n/a	n/a
3039.228	n/a	RECOG_LURE	1519614	n/a	LTP110	ltpFR	16	2	n/a	BRUISE	180	5	n/a	n/a	n/a	n/a	n/a	n/a
3039.82	n/a	RECOG_RESP	1519910	n/a	LTP110	ltpFR	16	2	n/a	BRUISE	180	n/a	n/a	n/a	n/a	n/a	n/a	n/a
3040.258	n/a	RECOG_CONF	1520129	n/a	LTP110	ltpFR	16	2	n/a	BRUISE	180	5	n/a	n/a	n/a	n/a	n/a	n/a
3041.61	n/a	RECOG_TARGET	1520805	n/a	LTP110	ltpFR	16	2	1	ASSISTANT	48	4	1	n/a	n/a	n/a	n/a	n/a
3042.27	n/a	RECOG_RESP	1521135	n/a	LTP110	ltpFR	16	2	1	ASSISTANT	48	n/a	1	n/a	n/a	n/a	n/a	n/a
3042.798	n/a	RECOG_CONF	1521399	n/a	LTP110	ltpFR	16	2	1	ASSISTANT	48	4	1	n/a	n/a	n/a	n/a	n/a
3044.15	n/a	RECOG_TARGET	1522075	n/a	LTP110	ltpFR	16	2	1	CARAVAN	242	5	0	n/a	n/a	n/a	n/a	n/a
3044.764	n/a	RECOG_RESP	1522382	n/a	LTP110	ltpFR	16	2	1	CARAVAN	242	n/a	0	n/a	n/a	n/a	n/a	n/a
3045.202	n/a	RECOG_CONF	1522601	n/a	LTP110	ltpFR	16	2	1	CARAVAN	242	5	0	n/a	n/a	n/a	n/a	n/a
3046.518	n/a	RECOG_LURE	1523259	n/a	LTP110	ltpFR	16	2	n/a	DOOR	486	4	n/a	n/a	n/a	n/a	n/a	n/a
3047.198	n/a	RECOG_RESP	1523599	n/a	LTP110	ltpFR	16	2	n/a	DOOR	486	n/a	n/a	n/a	n/a	n/a	n/a	n/a
3047.714	n/a	RECOG_CONF	1523857	n/a	LTP110	ltpFR	16	2	n/a	DOOR	486	4	n/a	n/a	n/a	n/a	n/a	n/a
3049.008	n/a	RECOG_TARGET	1524504	n/a	LTP110	ltpFR	16	2	1	MINER	896	5	1	n/a	n/a	n/a	n/a	n/a
3049.718	n/a	RECOG_RESP	1524859	n/a	LTP110	ltpFR	16	2	1	MINER	896	n/a	1	n/a	n/a	n/a	n/a	n/a
3050.172	n/a	RECOG_CONF	1525086	n/a	LTP110	ltpFR	16	2	1	MINER	896	5	1	n/a	n/a	n/a	n/a	n/a
3051.54	n/a	RECOG_TARGET	1525770	n/a	LTP110	ltpFR	16	2	0	CLOCK	325	5	1	n/a	n/a	n/a	n/a	n/a
3052.028	n/a	RECOG_RESP	1526014	n/a	LTP110	ltpFR	16	2	0	CLOCK	325	n/a	1	n/a	n/a	n/a	n/a	n/a
3052.466	n/a	RECOG_CONF	1526233	n/a	LTP110	ltpFR	16	2	0	CLOCK	325	5	1	n/a	n/a	n/a	n/a	n/a
3053.738	n/a	RECOG_TARGET	1526869	n/a	LTP110	ltpFR	16	2	-1	ANTEATER	26	5	-1	n/a	n/a	n/a	n/a	n/a
3054.212	n/a	RECOG_RESP	1527106	n/a	LTP110	ltpFR	16	2	-1	ANTEATER	26	n/a	-1	n/a	n/a	n/a	n/a	n/a
3054.642	n/a	RECOG_CONF	1527321	n/a	LTP110	ltpFR	16	2	-1	ANTEATER	26	5	-1	n/a	n/a	n/a	n/a	n/a
3057.468	n/a	REC_START	1528734	n/a	LTP110	ltpFR	16	3	n/a	n/a	n/a	n/a	n/a	n/a	n/a	n/a	n/a	n/a
3057.506	n/a	RECOG_LURE	1528753	n/a	LTP110	ltpFR	16	3	n/a	COCKTAIL	338	4	n/a	n/a	n/a	n/a	n/a	n/a
3058.08	n/a	RECOG_RESP	1529040	n/a	LTP110	ltpFR	16	3	n/a	COCKTAIL	338	n/a	n/a	n/a	n/a	n/a	n/a	n/a
3058.59	n/a	RECOG_CONF	1529295	n/a	LTP110	ltpFR	16	3	n/a	COCKTAIL	338	4	n/a	n/a	n/a	n/a	n/a	n/a
3059.83	n/a	RECOG_LURE	1529915	n/a	LTP110	ltpFR	16	3	n/a	CARTON	251	4	n/a	n/a	n/a	n/a	n/a	n/a
3060.566	n/a	RECOG_RESP	1530283	n/a	LTP110	ltpFR	16	3	n/a	CARTON	251	n/a	n/a	n/a	n/a	n/a	n/a	n/a
3061.044	n/a	RECOG_CONF	1530522	n/a	LTP110	ltpFR	16	3	n/a	CARTON	251	4	n/a	n/a	n/a	n/a	n/a	n/a
3062.27	n/a	RECOG_TARGET	1531135	n/a	LTP110	ltpFR	16	3	-1	PAW	1029	5	-1	n/a	n/a	n/a	n/a	n/a
3062.85	n/a	RECOG_RESP	1531425	n/a	LTP110	ltpFR	16	3	-1	PAW	1029	n/a	-1	n/a	n/a	n/a	n/a	n/a
3063.31	n/a	RECOG_CONF	1531655	n/a	LTP110	ltpFR	16	3	-1	PAW	1029	5	-1	n/a	n/a	n/a	n/a	n/a
3064.586	n/a	RECOG_LURE	1532293	n/a	LTP110	ltpFR	16	3	n/a	NOTEBOOK	959	4	n/a	n/a	n/a	n/a	n/a	n/a
3065.26	n/a	RECOG_RESP	1532630	n/a	LTP110	ltpFR	16	3	n/a	NOTEBOOK	959	n/a	n/a	n/a	n/a	n/a	n/a	n/a
3065.744	n/a	RECOG_CONF	1532872	n/a	LTP110	ltpFR	16	3	n/a	NOTEBOOK	959	4	n/a	n/a	n/a	n/a	n/a	n/a
3067.036	n/a	RECOG_TARGET	1533518	n/a	LTP110	ltpFR	16	3	0	SHACK	1273	5	1	n/a	n/a	n/a	n/a	n/a
3067.71	n/a	RECOG_RESP	1533855	n/a	LTP110	ltpFR	16	3	0	SHACK	1273	n/a	1	n/a	n/a	n/a	n/a	n/a
3068.178	n/a	RECOG_CONF	1534089	n/a	LTP110	ltpFR	16	3	0	SHACK	1273	5	1	n/a	n/a	n/a	n/a	n/a
3069.526	n/a	RECOG_LURE	1534763	n/a	LTP110	ltpFR	16	3	n/a	POSSUM	1112	1	n/a	n/a	n/a	n/a	n/a	n/a
3069.984	n/a	RECOG_RESP	1534992	n/a	LTP110	ltpFR	16	3	n/a	POSSUM	1112	n/a	n/a	n/a	n/a	n/a	n/a	n/a
3071.502	n/a	RECOG_CONF	1535751	n/a	LTP110	ltpFR	16	3	n/a	POSSUM	1112	1	n/a	n/a	n/a	n/a	n/a	n/a
3072.834	n/a	RECOG_TARGET	1536417	n/a	LTP110	ltpFR	16	3	0	CASHIER	254	5	1	n/a	n/a	n/a	n/a	n/a
3073.926	n/a	RECOG_RESP	1536963	n/a	LTP110	ltpFR	16	3	0	CASHIER	254	n/a	1	n/a	n/a	n/a	n/a	n/a
3074.524	n/a	RECOG_CONF	1537262	n/a	LTP110	ltpFR	16	3	0	CASHIER	254	5	1	n/a	n/a	n/a	n/a	n/a
3075.924	n/a	RECOG_LURE	1537962	n/a	LTP110	ltpFR	16	3	n/a	SCULPTURE	1258	4	n/a	n/a	n/a	n/a	n/a	n/a
3076.5	n/a	RECOG_RESP	1538250	n/a	LTP110	ltpFR	16	3	n/a	SCULPTURE	1258	n/a	n/a	n/a	n/a	n/a	n/a	n/a
3076.97	n/a	RECOG_CONF	1538485	n/a	LTP110	ltpFR	16	3	n/a	SCULPTURE	1258	4	n/a	n/a	n/a	n/a	n/a	n/a
3078.348	n/a	RECOG_TARGET	1539174	n/a	LTP110	ltpFR	16	3	0	MAILBOX	857	5	1	n/a	n/a	n/a	n/a	n/a
3079.334	n/a	RECOG_RESP	1539667	n/a	LTP110	ltpFR	16	3	0	MAILBOX	857	n/a	1	n/a	n/a	n/a	n/a	n/a
3080.082	n/a	RECOG_CONF	1540041	n/a	LTP110	ltpFR	16	3	0	MAILBOX	857	5	1	n/a	n/a	n/a	n/a	n/a
3081.406	n/a	RECOG_LURE	1540703	n/a	LTP110	ltpFR	16	3	n/a	FREEZER	604	4	n/a	n/a	n/a	n/a	n/a	n/a
3082.018	n/a	RECOG_RESP	1541009	n/a	LTP110	ltpFR	16	3	n/a	FREEZER	604	n/a	n/a	n/a	n/a	n/a	n/a	n/a
3082.486	n/a	RECOG_CONF	1541243	n/a	LTP110	ltpFR	16	3	n/a	FREEZER	604	4	n/a	n/a	n/a	n/a	n/a	n/a
3083.814	n/a	RECOG_TARGET	1541907	n/a	LTP110	ltpFR	16	3	1	LOBSTER	837	5	0	n/a	n/a	n/a	n/a	n/a
3084.532	n/a	RECOG_RESP	1542266	n/a	LTP110	ltpFR	16	3	1	LOBSTER	837	n/a	0	n/a	n/a	n/a	n/a	n/a
3085.002	n/a	RECOG_CONF	1542501	n/a	LTP110	ltpFR	16	3	1	LOBSTER	837	5	0	n/a	n/a	n/a	n/a	n/a
3086.28	n/a	RECOG_TARGET	1543140	n/a	LTP110	ltpFR	16	3	0	GROUND	666	5	1	n/a	n/a	n/a	n/a	n/a
3086.842	n/a	RECOG_RESP	1543421	n/a	LTP110	ltpFR	16	3	0	GROUND	666	n/a	1	n/a	n/a	n/a	n/a	n/a
3087.286	n/a	RECOG_CONF	1543643	n/a	LTP110	ltpFR	16	3	0	GROUND	666	5	1	n/a	n/a	n/a	n/a	n/a
3089.054	n/a	RECOG_TARGET	1544527	n/a	LTP110	ltpFR	16	3	1	PLANT	1083	5	0	n/a	n/a	n/a	n/a	n/a
3089.586	n/a	RECOG_RESP	1544793	n/a	LTP110	ltpFR	16	3	1	PLANT	1083	n/a	0	n/a	n/a	n/a	n/a	n/a
3090.02	n/a	RECOG_CONF	1545010	n/a	LTP110	ltpFR	16	3	1	PLANT	1083	5	0	n/a	n/a	n/a	n/a	n/a
3091.378	n/a	RECOG_TARGET	1545689	n/a	LTP110	ltpFR	16	3	0	COMPANION	357	5	1	n/a	n/a	n/a	n/a	n/a
3092.006	n/a	RECOG_RESP	1546003	n/a	LTP110	ltpFR	16	3	0	COMPANION	357	n/a	1	n/a	n/a	n/a	n/a	n/a
3092.414	n/a	RECOG_CONF	1546207	n/a	LTP110	ltpFR	16	3	0	COMPANION	357	5	1	n/a	n/a	n/a	n/a	n/a
3093.802	n/a	RECOG_TARGET	1546901	n/a	LTP110	ltpFR	16	3	0	WOLF	1619	5	1	n/a	n/a	n/a	n/a	n/a
3094.316	n/a	RECOG_RESP	1547158	n/a	LTP110	ltpFR	16	3	0	WOLF	1619	n/a	1	n/a	n/a	n/a	n/a	n/a
3094.736	n/a	RECOG_CONF	1547368	n/a	LTP110	ltpFR	16	3	0	WOLF	1619	5	1	n/a	n/a	n/a	n/a	n/a
3096.06	n/a	RECOG_TARGET	1548030	n/a	LTP110	ltpFR	16	3	1	PAINTER	1004	5	1	n/a	n/a	n/a	n/a	n/a
3096.54	n/a	RECOG_RESP	1548270	n/a	LTP110	ltpFR	16	3	1	PAINTER	1004	n/a	1	n/a	n/a	n/a	n/a	n/a
3096.984	n/a	RECOG_CONF	1548492	n/a	LTP110	ltpFR	16	3	1	PAINTER	1004	5	1	n/a	n/a	n/a	n/a	n/a
3098.326	n/a	RECOG_TARGET	1549163	n/a	LTP110	ltpFR	16	3	1	MAPLE	866	5	0	n/a	n/a	n/a	n/a	n/a
3098.79	n/a	RECOG_RESP	1549395	n/a	LTP110	ltpFR	16	3	1	MAPLE	866	n/a	0	n/a	n/a	n/a	n/a	n/a
3099.18	n/a	RECOG_CONF	1549590	n/a	LTP110	ltpFR	16	3	1	MAPLE	866	5	0	n/a	n/a	n/a	n/a	n/a
3100.516	n/a	RECOG_LURE	1550258	n/a	LTP110	ltpFR	16	3	n/a	TOOL	1480	4	n/a	n/a	n/a	n/a	n/a	n/a
3101.046	n/a	RECOG_RESP	1550523	n/a	LTP110	ltpFR	16	3	n/a	TOOL	1480	n/a	n/a	n/a	n/a	n/a	n/a	n/a
3101.534	n/a	RECOG_CONF	1550767	n/a	LTP110	ltpFR	16	3	n/a	TOOL	1480	4	n/a	n/a	n/a	n/a	n/a	n/a
3102.908	n/a	RECOG_LURE	1551454	n/a	LTP110	ltpFR	16	3	n/a	MALL	860	5	n/a	n/a	n/a	n/a	n/a	n/a
3103.46	n/a	RECOG_RESP	1551730	n/a	LTP110	ltpFR	16	3	n/a	MALL	860	n/a	n/a	n/a	n/a	n/a	n/a	n/a
3103.904	n/a	RECOG_CONF	1551952	n/a	LTP110	ltpFR	16	3	n/a	MALL	860	5	n/a	n/a	n/a	n/a	n/a	n/a
3105.208	n/a	RECOG_LURE	1552604	n/a	LTP110	ltpFR	16	3	n/a	NITROGEN	954	5	n/a	n/a	n/a	n/a	n/a	n/a
3105.856	n/a	RECOG_RESP	1552928	n/a	LTP110	ltpFR	16	3	n/a	NITROGEN	954	n/a	n/a	n/a	n/a	n/a	n/a	n/a
3106.272	n/a	RECOG_CONF	1553136	n/a	LTP110	ltpFR	16	3	n/a	NITROGEN	954	5	n/a	n/a	n/a	n/a	n/a	n/a
3108.972	n/a	REC_START	1554486	n/a	LTP110	ltpFR	16	4	n/a	n/a	n/a	n/a	n/a	n/a	n/a	n/a	n/a	n/a
3109.006	n/a	RECOG_TARGET	1554503	n/a	LTP110	ltpFR	16	4	0	SPATULA	1348	5	0	n/a	n/a	n/a	n/a	n/a
3109.65	n/a	RECOG_RESP	1554825	n/a	LTP110	ltpFR	16	4	0	SPATULA	1348	n/a	0	n/a	n/a	n/a	n/a	n/a
3110.074	n/a	RECOG_CONF	1555037	n/a	LTP110	ltpFR	16	4	0	SPATULA	1348	5	0	n/a	n/a	n/a	n/a	n/a
3111.338	n/a	RECOG_LURE	1555669	n/a	LTP110	ltpFR	16	4	n/a	BATTERY	101	4	n/a	n/a	n/a	n/a	n/a	n/a
3111.92	n/a	RECOG_RESP	1555960	n/a	LTP110	ltpFR	16	4	n/a	BATTERY	101	n/a	n/a	n/a	n/a	n/a	n/a	n/a
3112.366	n/a	RECOG_CONF	1556183	n/a	LTP110	ltpFR	16	4	n/a	BATTERY	101	4	n/a	n/a	n/a	n/a	n/a	n/a
3113.672	n/a	RECOG_TARGET	1556836	n/a	LTP110	ltpFR	16	4	-1	CATCHER	258	5	-1	n/a	n/a	n/a	n/a	n/a
3114.29	n/a	RECOG_RESP	1557145	n/a	LTP110	ltpFR	16	4	-1	CATCHER	258	n/a	-1	n/a	n/a	n/a	n/a	n/a
3114.714	n/a	RECOG_CONF	1557357	n/a	LTP110	ltpFR	16	4	-1	CATCHER	258	5	-1	n/a	n/a	n/a	n/a	n/a
3116.096	n/a	RECOG_TARGET	1558048	n/a	LTP110	ltpFR	16	4	0	CHART	282	5	0	n/a	n/a	n/a	n/a	n/a
3116.834	n/a	RECOG_RESP	1558417	n/a	LTP110	ltpFR	16	4	0	CHART	282	n/a	0	n/a	n/a	n/a	n/a	n/a
3117.268	n/a	RECOG_CONF	1558634	n/a	LTP110	ltpFR	16	4	0	CHART	282	5	0	n/a	n/a	n/a	n/a	n/a
3118.562	n/a	RECOG_TARGET	1559281	n/a	LTP110	ltpFR	16	4	1	SYRINGE	1424	5	0	n/a	n/a	n/a	n/a	n/a
3119.068	n/a	RECOG_RESP	1559534	n/a	LTP110	ltpFR	16	4	1	SYRINGE	1424	n/a	0	n/a	n/a	n/a	n/a	n/a
3119.484	n/a	RECOG_CONF	1559742	n/a	LTP110	ltpFR	16	4	1	SYRINGE	1424	5	0	n/a	n/a	n/a	n/a	n/a
3120.886	n/a	RECOG_TARGET	1560443	n/a	LTP110	ltpFR	16	4	0	CYCLONE	431	5	1	n/a	n/a	n/a	n/a	n/a
3121.404	n/a	RECOG_RESP	1560702	n/a	LTP110	ltpFR	16	4	0	CYCLONE	431	n/a	1	n/a	n/a	n/a	n/a	n/a
3121.848	n/a	RECOG_CONF	1560924	n/a	LTP110	ltpFR	16	4	0	CYCLONE	431	5	1	n/a	n/a	n/a	n/a	n/a
3123.228	n/a	RECOG_LURE	1561614	n/a	LTP110	ltpFR	16	4	n/a	ZUCCHINI	1638	4	n/a	n/a	n/a	n/a	n/a	n/a
3123.808	n/a	RECOG_RESP	1561904	n/a	LTP110	ltpFR	16	4	n/a	ZUCCHINI	1638	n/a	n/a	n/a	n/a	n/a	n/a	n/a
3124.272	n/a	RECOG_CONF	1562136	n/a	LTP110	ltpFR	16	4	n/a	ZUCCHINI	1638	4	n/a	n/a	n/a	n/a	n/a	n/a
3125.626	n/a	RECOG_LURE	1562813	n/a	LTP110	ltpFR	16	4	n/a	SUGAR	1401	4	n/a	n/a	n/a	n/a	n/a	n/a
3126.618	n/a	RECOG_RESP	1563309	n/a	LTP110	ltpFR	16	4	n/a	SUGAR	1401	n/a	n/a	n/a	n/a	n/a	n/a	n/a
3127.156	n/a	RECOG_CONF	1563578	n/a	LTP110	ltpFR	16	4	n/a	SUGAR	1401	4	n/a	n/a	n/a	n/a	n/a	n/a
3128.476	n/a	RECOG_TARGET	1564238	n/a	LTP110	ltpFR	16	4	-1	SHEEP	1278	5	-1	n/a	n/a	n/a	n/a	n/a
3129.026	n/a	RECOG_RESP	1564513	n/a	LTP110	ltpFR	16	4	-1	SHEEP	1278	n/a	-1	n/a	n/a	n/a	n/a	n/a
3129.516	n/a	RECOG_CONF	1564758	n/a	LTP110	ltpFR	16	4	-1	SHEEP	1278	5	-1	n/a	n/a	n/a	n/a	n/a
3130.916	n/a	RECOG_TARGET	1565458	n/a	LTP110	ltpFR	16	4	-1	BUSH	202	5	-1	n/a	n/a	n/a	n/a	n/a
3131.396	n/a	RECOG_RESP	1565698	n/a	LTP110	ltpFR	16	4	-1	BUSH	202	n/a	-1	n/a	n/a	n/a	n/a	n/a
3131.806	n/a	RECOG_CONF	1565903	n/a	LTP110	ltpFR	16	4	-1	BUSH	202	5	-1	n/a	n/a	n/a	n/a	n/a
3133.14	n/a	RECOG_LURE	1566570	n/a	LTP110	ltpFR	16	4	n/a	TAR	1435	4	n/a	n/a	n/a	n/a	n/a	n/a
3133.666	n/a	RECOG_RESP	1566833	n/a	LTP110	ltpFR	16	4	n/a	TAR	1435	n/a	n/a	n/a	n/a	n/a	n/a	n/a
3134.048	n/a	RECOG_CONF	1567024	n/a	LTP110	ltpFR	16	4	n/a	TAR	1435	4	n/a	n/a	n/a	n/a	n/a	n/a
3135.482	n/a	RECOG_TARGET	1567741	n/a	LTP110	ltpFR	16	4	0	SEA	1259	1	1	n/a	n/a	n/a	n/a	n/a
3136.17	n/a	RECOG_RESP	1568085	n/a	LTP110	ltpFR	16	4	0	SEA	1259	n/a	1	n/a	n/a	n/a	n/a	n/a
3137.004	n/a	RECOG_CONF	1568502	n/a	LTP110	ltpFR	16	4	0	SEA	1259	1	1	n/a	n/a	n/a	n/a	n/a
3138.322	n/a	RECOG_TARGET	1569161	n/a	LTP110	ltpFR	16	4	0	HURRICANE	727	5	1	n/a	n/a	n/a	n/a	n/a
3139.0	n/a	RECOG_RESP	1569500	n/a	LTP110	ltpFR	16	4	0	HURRICANE	727	n/a	1	n/a	n/a	n/a	n/a	n/a
3139.442	n/a	RECOG_CONF	1569721	n/a	LTP110	ltpFR	16	4	0	HURRICANE	727	5	1	n/a	n/a	n/a	n/a	n/a
3140.704	n/a	RECOG_TARGET	1570352	n/a	LTP110	ltpFR	16	4	-1	SHRIMP	1297	5	-1	n/a	n/a	n/a	n/a	n/a
3141.206	n/a	RECOG_RESP	1570603	n/a	LTP110	ltpFR	16	4	-1	SHRIMP	1297	n/a	-1	n/a	n/a	n/a	n/a	n/a
3141.634	n/a	RECOG_CONF	1570817	n/a	LTP110	ltpFR	16	4	-1	SHRIMP	1297	5	-1	n/a	n/a	n/a	n/a	n/a
3142.996	n/a	RECOG_LURE	1571498	n/a	LTP110	ltpFR	16	4	n/a	KEYBOARD	774	4	n/a	n/a	n/a	n/a	n/a	n/a
3143.594	n/a	RECOG_RESP	1571797	n/a	LTP110	ltpFR	16	4	n/a	KEYBOARD	774	n/a	n/a	n/a	n/a	n/a	n/a	n/a
3144.068	n/a	RECOG_CONF	1572034	n/a	LTP110	ltpFR	16	4	n/a	KEYBOARD	774	4	n/a	n/a	n/a	n/a	n/a	n/a
3145.412	n/a	RECOG_TARGET	1572706	n/a	LTP110	ltpFR	16	4	0	OATS	968	5	1	n/a	n/a	n/a	n/a	n/a
3146.084	n/a	RECOG_RESP	1573042	n/a	LTP110	ltpFR	16	4	0	OATS	968	n/a	1	n/a	n/a	n/a	n/a	n/a
3146.514	n/a	RECOG_CONF	1573257	n/a	LTP110	ltpFR	16	4	0	OATS	968	5	1	n/a	n/a	n/a	n/a	n/a
3147.912	n/a	RECOG_LURE	1573956	n/a	LTP110	ltpFR	16	4	n/a	ARENA	37	4	n/a	n/a	n/a	n/a	n/a	n/a
3148.478	n/a	RECOG_RESP	1574239	n/a	LTP110	ltpFR	16	4	n/a	ARENA	37	n/a	n/a	n/a	n/a	n/a	n/a	n/a
3148.928	n/a	RECOG_CONF	1574464	n/a	LTP110	ltpFR	16	4	n/a	ARENA	37	4	n/a	n/a	n/a	n/a	n/a	n/a
3150.194	n/a	RECOG_TARGET	1575097	n/a	LTP110	ltpFR	16	4	-1	MARSH	874	5	-1	n/a	n/a	n/a	n/a	n/a
3150.972	n/a	RECOG_RESP	1575486	n/a	LTP110	ltpFR	16	4	-1	MARSH	874	n/a	-1	n/a	n/a	n/a	n/a	n/a
3151.458	n/a	RECOG_CONF	1575729	n/a	LTP110	ltpFR	16	4	-1	MARSH	874	5	-1	n/a	n/a	n/a	n/a	n/a
3152.784	n/a	RECOG_TARGET	1576392	n/a	LTP110	ltpFR	16	4	1	PORPOISE	1109	5	1	n/a	n/a	n/a	n/a	n/a
3153.352	n/a	RECOG_RESP	1576676	n/a	LTP110	ltpFR	16	4	1	PORPOISE	1109	n/a	1	n/a	n/a	n/a	n/a	n/a
3153.766	n/a	RECOG_CONF	1576883	n/a	LTP110	ltpFR	16	4	1	PORPOISE	1109	5	1	n/a	n/a	n/a	n/a	n/a
3155.1	n/a	RECOG_TARGET	1577550	n/a	LTP110	ltpFR	16	4	0	EMERALD	528	5	0	n/a	n/a	n/a	n/a	n/a
3155.668	n/a	RECOG_RESP	1577834	n/a	LTP110	ltpFR	16	4	0	EMERALD	528	n/a	0	n/a	n/a	n/a	n/a	n/a
3156.092	n/a	RECOG_CONF	1578046	n/a	LTP110	ltpFR	16	4	0	EMERALD	528	5	0	n/a	n/a	n/a	n/a	n/a
3159.484	n/a	REC_START	1579742	n/a	LTP110	ltpFR	16	5	n/a	n/a	n/a	n/a	n/a	n/a	n/a	n/a	n/a	n/a
3159.516	n/a	RECOG_TARGET	1579758	n/a	LTP110	ltpFR	16	5	-1	ISLAND	745	4	-1	n/a	n/a	n/a	n/a	n/a
3160.148	n/a	RECOG_RESP	1580074	n/a	LTP110	ltpFR	16	5	-1	ISLAND	745	n/a	-1	n/a	n/a	n/a	n/a	n/a
3160.588	n/a	RECOG_CONF	1580294	n/a	LTP110	ltpFR	16	5	-1	ISLAND	745	4	-1	n/a	n/a	n/a	n/a	n/a
3161.916	n/a	RECOG_TARGET	1580958	n/a	LTP110	ltpFR	16	5	1	SUPPER	1411	5	0	n/a	n/a	n/a	n/a	n/a
3164.044	n/a	RECOG_RESP	1582022	n/a	LTP110	ltpFR	16	5	1	SUPPER	1411	n/a	0	n/a	n/a	n/a	n/a	n/a
3164.518	n/a	RECOG_CONF	1582259	n/a	LTP110	ltpFR	16	5	1	SUPPER	1411	5	0	n/a	n/a	n/a	n/a	n/a
3165.99	n/a	RECOG_LURE	1582995	n/a	LTP110	ltpFR	16	5	n/a	WHISKERS	1605	4	n/a	n/a	n/a	n/a	n/a	n/a
3166.484	n/a	RECOG_RESP	1583242	n/a	LTP110	ltpFR	16	5	n/a	WHISKERS	1605	n/a	n/a	n/a	n/a	n/a	n/a	n/a
3166.934	n/a	RECOG_CONF	1583467	n/a	LTP110	ltpFR	16	5	n/a	WHISKERS	1605	4	n/a	n/a	n/a	n/a	n/a	n/a
3168.246	n/a	RECOG_LURE	1584123	n/a	LTP110	ltpFR	16	5	n/a	MASCARA	875	4	n/a	n/a	n/a	n/a	n/a	n/a
3168.78	n/a	RECOG_RESP	1584390	n/a	LTP110	ltpFR	16	5	n/a	MASCARA	875	n/a	n/a	n/a	n/a	n/a	n/a	n/a
3169.192	n/a	RECOG_CONF	1584596	n/a	LTP110	ltpFR	16	5	n/a	MASCARA	875	4	n/a	n/a	n/a	n/a	n/a	n/a
3170.57	n/a	RECOG_LURE	1585285	n/a	LTP110	ltpFR	16	5	n/a	COOKBOOK	373	5	n/a	n/a	n/a	n/a	n/a	n/a
3171.114	n/a	RECOG_RESP	1585557	n/a	LTP110	ltpFR	16	5	n/a	COOKBOOK	373	n/a	n/a	n/a	n/a	n/a	n/a	n/a
3171.522	n/a	RECOG_CONF	1585761	n/a	LTP110	ltpFR	16	5	n/a	COOKBOOK	373	5	n/a	n/a	n/a	n/a	n/a	n/a
3172.886	n/a	RECOG_LURE	1586443	n/a	LTP110	ltpFR	16	5	n/a	MICROSCOPE	891	4	n/a	n/a	n/a	n/a	n/a	n/a
3173.464	n/a	RECOG_RESP	1586732	n/a	LTP110	ltpFR	16	5	n/a	MICROSCOPE	891	n/a	n/a	n/a	n/a	n/a	n/a	n/a
3173.926	n/a	RECOG_CONF	1586963	n/a	LTP110	ltpFR	16	5	n/a	MICROSCOPE	891	4	n/a	n/a	n/a	n/a	n/a	n/a
3175.236	n/a	RECOG_LURE	1587618	n/a	LTP110	ltpFR	16	5	n/a	HANDBAG	684	5	n/a	n/a	n/a	n/a	n/a	n/a
3175.778	n/a	RECOG_RESP	1587889	n/a	LTP110	ltpFR	16	5	n/a	HANDBAG	684	n/a	n/a	n/a	n/a	n/a	n/a	n/a
3176.172	n/a	RECOG_CONF	1588086	n/a	LTP110	ltpFR	16	5	n/a	HANDBAG	684	5	n/a	n/a	n/a	n/a	n/a	n/a
3177.576	n/a	RECOG_LURE	1588788	n/a	LTP110	ltpFR	16	5	n/a	QUAIL	1147	5	n/a	n/a	n/a	n/a	n/a	n/a
3178.064	n/a	RECOG_RESP	1589032	n/a	LTP110	ltpFR	16	5	n/a	QUAIL	1147	n/a	n/a	n/a	n/a	n/a	n/a	n/a
3178.504	n/a	RECOG_CONF	1589252	n/a	LTP110	ltpFR	16	5	n/a	QUAIL	1147	5	n/a	n/a	n/a	n/a	n/a	n/a
3179.794	n/a	RECOG_TARGET	1589897	n/a	LTP110	ltpFR	16	5	0	BANKER	84	5	1	n/a	n/a	n/a	n/a	n/a
3180.358	n/a	RECOG_RESP	1590179	n/a	LTP110	ltpFR	16	5	0	BANKER	84	n/a	1	n/a	n/a	n/a	n/a	n/a
3180.796	n/a	RECOG_CONF	1590398	n/a	LTP110	ltpFR	16	5	0	BANKER	84	5	1	n/a	n/a	n/a	n/a	n/a
3182.16	n/a	RECOG_TARGET	1591080	n/a	LTP110	ltpFR	16	5	-1	BUG	187	5	-1	n/a	n/a	n/a	n/a	n/a
3182.808	n/a	RECOG_RESP	1591404	n/a	LTP110	ltpFR	16	5	-1	BUG	187	n/a	-1	n/a	n/a	n/a	n/a	n/a
3183.268	n/a	RECOG_CONF	1591634	n/a	LTP110	ltpFR	16	5	-1	BUG	187	5	-1	n/a	n/a	n/a	n/a	n/a
3184.608	n/a	RECOG_TARGET	1592304	n/a	LTP110	ltpFR	16	5	0	SCIENTIST	1249	4	1	n/a	n/a	n/a	n/a	n/a
3185.168	n/a	RECOG_RESP	1592584	n/a	LTP110	ltpFR	16	5	0	SCIENTIST	1249	n/a	1	n/a	n/a	n/a	n/a	n/a
3185.602	n/a	RECOG_CONF	1592801	n/a	LTP110	ltpFR	16	5	0	SCIENTIST	1249	4	1	n/a	n/a	n/a	n/a	n/a
3186.882	n/a	RECOG_TARGET	1593441	n/a	LTP110	ltpFR	16	5	0	VEHICLE	1553	5	1	n/a	n/a	n/a	n/a	n/a
3187.846	n/a	RECOG_RESP	1593923	n/a	LTP110	ltpFR	16	5	0	VEHICLE	1553	n/a	1	n/a	n/a	n/a	n/a	n/a
3188.226	n/a	RECOG_CONF	1594113	n/a	LTP110	ltpFR	16	5	0	VEHICLE	1553	5	1	n/a	n/a	n/a	n/a	n/a
3189.648	n/a	RECOG_TARGET	1594824	n/a	LTP110	ltpFR	16	5	0	JEWEL	757	5	0	n/a	n/a	n/a	n/a	n/a
3190.212	n/a	RECOG_RESP	1595106	n/a	LTP110	ltpFR	16	5	0	JEWEL	757	n/a	0	n/a	n/a	n/a	n/a	n/a
3190.654	n/a	RECOG_CONF	1595327	n/a	LTP110	ltpFR	16	5	0	JEWEL	757	5	0	n/a	n/a	n/a	n/a	n/a
3191.998	n/a	RECOG_TARGET	1595999	n/a	LTP110	ltpFR	16	5	0	PICTURE	1061	4	0	n/a	n/a	n/a	n/a	n/a
3192.696	n/a	RECOG_RESP	1596348	n/a	LTP110	ltpFR	16	5	0	PICTURE	1061	n/a	0	n/a	n/a	n/a	n/a	n/a
3193.484	n/a	RECOG_CONF	1596742	n/a	LTP110	ltpFR	16	5	0	PICTURE	1061	4	0	n/a	n/a	n/a	n/a	n/a
3194.83	n/a	RECOG_TARGET	1597415	n/a	LTP110	ltpFR	16	5	1	SENATOR	1268	5	1	n/a	n/a	n/a	n/a	n/a
3195.44	n/a	RECOG_RESP	1597720	n/a	LTP110	ltpFR	16	5	1	SENATOR	1268	n/a	1	n/a	n/a	n/a	n/a	n/a
3195.86	n/a	RECOG_CONF	1597930	n/a	LTP110	ltpFR	16	5	1	SENATOR	1268	5	1	n/a	n/a	n/a	n/a	n/a
3197.212	n/a	RECOG_TARGET	1598606	n/a	LTP110	ltpFR	16	5	1	CHEF	290	5	1	n/a	n/a	n/a	n/a	n/a
3197.714	n/a	RECOG_RESP	1598857	n/a	LTP110	ltpFR	16	5	1	CHEF	290	n/a	1	n/a	n/a	n/a	n/a	n/a
3198.154	n/a	RECOG_CONF	1599077	n/a	LTP110	ltpFR	16	5	1	CHEF	290	5	1	n/a	n/a	n/a	n/a	n/a
3199.48	n/a	RECOG_TARGET	1599740	n/a	LTP110	ltpFR	16	5	0	TEENAGER	1444	1	1	n/a	n/a	n/a	n/a	n/a
3200.504	n/a	RECOG_RESP_VV	1600252	n/a	LTP110	ltpFR	16	5	0	TEENAGER	1444	n/a	1	n/a	n/a	n/a	n/a	n/a
3202.0	n/a	RECOG_RESP	1601000	n/a	LTP110	ltpFR	16	5	0	TEENAGER	1444	n/a	1	n/a	n/a	n/a	n/a	n/a
3202.704	n/a	RECOG_CONF	1601352	n/a	LTP110	ltpFR	16	5	0	TEENAGER	1444	1	1	n/a	n/a	n/a	n/a	n/a
3204.128	n/a	RECOG_LURE	1602064	n/a	LTP110	ltpFR	16	5	n/a	LID	817	4	n/a	n/a	n/a	n/a	n/a	n/a
3204.934	n/a	RECOG_RESP	1602467	n/a	LTP110	ltpFR	16	5	n/a	LID	817	n/a	n/a	n/a	n/a	n/a	n/a	n/a
3205.428	n/a	RECOG_CONF	1602714	n/a	LTP110	ltpFR	16	5	n/a	LID	817	4	n/a	n/a	n/a	n/a	n/a	n/a
3206.81	n/a	RECOG_TARGET	1603405	n/a	LTP110	ltpFR	16	5	0	DENTIST	447	5	1	n/a	n/a	n/a	n/a	n/a
3207.534	n/a	RECOG_RESP	1603767	n/a	LTP110	ltpFR	16	5	0	DENTIST	447	n/a	1	n/a	n/a	n/a	n/a	n/a
3208.0	n/a	RECOG_CONF	1604000	n/a	LTP110	ltpFR	16	5	0	DENTIST	447	5	1	n/a	n/a	n/a	n/a	n/a
3209.284	n/a	RECOG_TARGET	1604642	n/a	LTP110	ltpFR	16	5	0	MARBLE	867	5	1	n/a	n/a	n/a	n/a	n/a
3209.862	n/a	RECOG_RESP	1604931	n/a	LTP110	ltpFR	16	5	0	MARBLE	867	n/a	1	n/a	n/a	n/a	n/a	n/a
3210.278	n/a	RECOG_CONF	1605139	n/a	LTP110	ltpFR	16	5	0	MARBLE	867	5	1	n/a	n/a	n/a	n/a	n/a
3214.106	n/a	REC_START	1607053	n/a	LTP110	ltpFR	16	6	n/a	n/a	n/a	n/a	n/a	n/a	n/a	n/a	n/a	n/a
3214.14	n/a	RECOG_TARGET	1607070	n/a	LTP110	ltpFR	16	6	1	WATER	1594	5	0	n/a	n/a	n/a	n/a	n/a
3214.688	n/a	RECOG_RESP	1607344	n/a	LTP110	ltpFR	16	6	1	WATER	1594	n/a	0	n/a	n/a	n/a	n/a	n/a
3215.218	n/a	RECOG_CONF	1607609	n/a	LTP110	ltpFR	16	6	1	WATER	1594	5	0	n/a	n/a	n/a	n/a	n/a
3216.548	n/a	RECOG_TARGET	1608274	n/a	LTP110	ltpFR	16	6	1	NAPKIN	937	5	0	n/a	n/a	n/a	n/a	n/a
3217.154	n/a	RECOG_RESP	1608577	n/a	LTP110	ltpFR	16	6	1	NAPKIN	937	n/a	0	n/a	n/a	n/a	n/a	n/a
3217.604	n/a	RECOG_CONF	1608802	n/a	LTP110	ltpFR	16	6	1	NAPKIN	937	5	0	n/a	n/a	n/a	n/a	n/a
3218.906	n/a	RECOG_LURE	1609453	n/a	LTP110	ltpFR	16	6	n/a	PRINTER	1126	4	n/a	n/a	n/a	n/a	n/a	n/a
3219.538	n/a	RECOG_RESP	1609769	n/a	LTP110	ltpFR	16	6	n/a	PRINTER	1126	n/a	n/a	n/a	n/a	n/a	n/a	n/a
3219.936	n/a	RECOG_CONF	1609968	n/a	LTP110	ltpFR	16	6	n/a	PRINTER	1126	4	n/a	n/a	n/a	n/a	n/a	n/a
3221.322	n/a	RECOG_TARGET	1610661	n/a	LTP110	ltpFR	16	6	-1	CAPITAL	238	5	-1	n/a	n/a	n/a	n/a	n/a
3221.838	n/a	RECOG_RESP	1610919	n/a	LTP110	ltpFR	16	6	-1	CAPITAL	238	n/a	-1	n/a	n/a	n/a	n/a	n/a
3222.262	n/a	RECOG_CONF	1611131	n/a	LTP110	ltpFR	16	6	-1	CAPITAL	238	5	-1	n/a	n/a	n/a	n/a	n/a
3223.664	n/a	RECOG_LURE	1611832	n/a	LTP110	ltpFR	16	6	n/a	WARRIOR	1589	4	n/a	n/a	n/a	n/a	n/a	n/a
3224.218	n/a	RECOG_RESP	1612109	n/a	LTP110	ltpFR	16	6	n/a	WARRIOR	1589	n/a	n/a	n/a	n/a	n/a	n/a	n/a
3224.59	n/a	RECOG_CONF	1612295	n/a	LTP110	ltpFR	16	6	n/a	WARRIOR	1589	4	n/a	n/a	n/a	n/a	n/a	n/a
3225.98	n/a	RECOG_TARGET	1612990	n/a	LTP110	ltpFR	16	6	-1	CUP	424	5	-1	n/a	n/a	n/a	n/a	n/a
3226.588	n/a	RECOG_RESP	1613294	n/a	LTP110	ltpFR	16	6	-1	CUP	424	n/a	-1	n/a	n/a	n/a	n/a	n/a
3226.992	n/a	RECOG_CONF	1613496	n/a	LTP110	ltpFR	16	6	-1	CUP	424	5	-1	n/a	n/a	n/a	n/a	n/a
3228.386	n/a	RECOG_LURE	1614193	n/a	LTP110	ltpFR	16	6	n/a	PISTOL	1075	4	n/a	n/a	n/a	n/a	n/a	n/a
3229.526	n/a	RECOG_RESP	1614763	n/a	LTP110	ltpFR	16	6	n/a	PISTOL	1075	n/a	n/a	n/a	n/a	n/a	n/a	n/a
3229.992	n/a	RECOG_CONF	1614996	n/a	LTP110	ltpFR	16	6	n/a	PISTOL	1075	4	n/a	n/a	n/a	n/a	n/a	n/a
3231.344	n/a	RECOG_TARGET	1615672	n/a	LTP110	ltpFR	16	6	-1	HORNET	718	5	-1	n/a	n/a	n/a	n/a	n/a
3231.966	n/a	RECOG_RESP	1615983	n/a	LTP110	ltpFR	16	6	-1	HORNET	718	n/a	-1	n/a	n/a	n/a	n/a	n/a
3232.4	n/a	RECOG_CONF	1616200	n/a	LTP110	ltpFR	16	6	-1	HORNET	718	5	-1	n/a	n/a	n/a	n/a	n/a
3233.776	n/a	RECOG_LURE	1616888	n/a	LTP110	ltpFR	16	6	n/a	DAGGER	434	5	n/a	n/a	n/a	n/a	n/a	n/a
3234.336	n/a	RECOG_RESP	1617168	n/a	LTP110	ltpFR	16	6	n/a	DAGGER	434	n/a	n/a	n/a	n/a	n/a	n/a	n/a
3234.728	n/a	RECOG_CONF	1617364	n/a	LTP110	ltpFR	16	6	n/a	DAGGER	434	5	n/a	n/a	n/a	n/a	n/a	n/a
3236.16	n/a	RECOG_TARGET	1618080	n/a	LTP110	ltpFR	16	6	1	PENNY	1045	5	0	n/a	n/a	n/a	n/a	n/a
3236.76	n/a	RECOG_RESP	1618380	n/a	LTP110	ltpFR	16	6	1	PENNY	1045	n/a	0	n/a	n/a	n/a	n/a	n/a
3237.15	n/a	RECOG_CONF	1618575	n/a	LTP110	ltpFR	16	6	1	PENNY	1045	5	0	n/a	n/a	n/a	n/a	n/a
3238.5	n/a	RECOG_LURE	1619250	n/a	LTP110	ltpFR	16	6	n/a	CANARY	227	4	n/a	n/a	n/a	n/a	n/a	n/a
3239.316	n/a	RECOG_RESP	1619658	n/a	LTP110	ltpFR	16	6	n/a	CANARY	227	n/a	n/a	n/a	n/a	n/a	n/a	n/a
3239.708	n/a	RECOG_CONF	1619854	n/a	LTP110	ltpFR	16	6	n/a	CANARY	227	4	n/a	n/a	n/a	n/a	n/a	n/a
3241.092	n/a	RECOG_TARGET	1620546	n/a	LTP110	ltpFR	16	6	0	PITCHFORK	1078	5	1	n/a	n/a	n/a	n/a	n/a
3241.65	n/a	RECOG_RESP	1620825	n/a	LTP110	ltpFR	16	6	0	PITCHFORK	1078	n/a	1	n/a	n/a	n/a	n/a	n/a
3242.068	n/a	RECOG_CONF	1621034	n/a	LTP110	ltpFR	16	6	0	PITCHFORK	1078	5	1	n/a	n/a	n/a	n/a	n/a
3243.44	n/a	RECOG_LURE	1621720	n/a	LTP110	ltpFR	16	6	n/a	DIVER	476	4	n/a	n/a	n/a	n/a	n/a	n/a
3244.064	n/a	RECOG_RESP	1622032	n/a	LTP110	ltpFR	16	6	n/a	DIVER	476	n/a	n/a	n/a	n/a	n/a	n/a	n/a
3244.458	n/a	RECOG_CONF	1622229	n/a	LTP110	ltpFR	16	6	n/a	DIVER	476	4	n/a	n/a	n/a	n/a	n/a	n/a
3245.824	n/a	RECOG_LURE	1622912	n/a	LTP110	ltpFR	16	6	n/a	BLUEBERRY	140	5	n/a	n/a	n/a	n/a	n/a	n/a
3246.424	n/a	RECOG_RESP	1623212	n/a	LTP110	ltpFR	16	6	n/a	BLUEBERRY	140	n/a	n/a	n/a	n/a	n/a	n/a	n/a
3246.862	n/a	RECOG_CONF	1623431	n/a	LTP110	ltpFR	16	6	n/a	BLUEBERRY	140	5	n/a	n/a	n/a	n/a	n/a	n/a
3248.19	n/a	RECOG_TARGET	1624095	n/a	LTP110	ltpFR	16	6	1	NECK	939	5	0	n/a	n/a	n/a	n/a	n/a
3248.784	n/a	RECOG_RESP	1624392	n/a	LTP110	ltpFR	16	6	1	NECK	939	n/a	0	n/a	n/a	n/a	n/a	n/a
3249.226	n/a	RECOG_CONF	1624613	n/a	LTP110	ltpFR	16	6	1	NECK	939	5	0	n/a	n/a	n/a	n/a	n/a
3250.58	n/a	RECOG_LURE	1625290	n/a	LTP110	ltpFR	16	6	n/a	FLAG	573	4	n/a	n/a	n/a	n/a	n/a	n/a
3251.154	n/a	RECOG_RESP	1625577	n/a	LTP110	ltpFR	16	6	n/a	FLAG	573	n/a	n/a	n/a	n/a	n/a	n/a	n/a
3251.572	n/a	RECOG_CONF	1625786	n/a	LTP110	ltpFR	16	6	n/a	FLAG	573	4	n/a	n/a	n/a	n/a	n/a	n/a
3252.97	n/a	RECOG_TARGET	1626485	n/a	LTP110	ltpFR	16	6	-1	CONTRACT	368	5	-1	n/a	n/a	n/a	n/a	n/a
3253.632	n/a	RECOG_RESP	1626816	n/a	LTP110	ltpFR	16	6	-1	CONTRACT	368	n/a	-1	n/a	n/a	n/a	n/a	n/a
3254.102	n/a	RECOG_CONF	1627051	n/a	LTP110	ltpFR	16	6	-1	CONTRACT	368	5	-1	n/a	n/a	n/a	n/a	n/a
3255.462	n/a	RECOG_TARGET	1627731	n/a	LTP110	ltpFR	16	6	1	RESTAURANT	1187	5	0	n/a	n/a	n/a	n/a	n/a
3256.052	n/a	RECOG_RESP	1628026	n/a	LTP110	ltpFR	16	6	1	RESTAURANT	1187	n/a	0	n/a	n/a	n/a	n/a	n/a
3256.46	n/a	RECOG_CONF	1628230	n/a	LTP110	ltpFR	16	6	1	RESTAURANT	1187	5	0	n/a	n/a	n/a	n/a	n/a
3258.262	n/a	RECOG_TARGET	1629131	n/a	LTP110	ltpFR	16	6	1	PELICAN	1039	4	1	n/a	n/a	n/a	n/a	n/a
3258.856	n/a	RECOG_RESP	1629428	n/a	LTP110	ltpFR	16	6	1	PELICAN	1039	n/a	1	n/a	n/a	n/a	n/a	n/a
3259.29	n/a	RECOG_CONF	1629645	n/a	LTP110	ltpFR	16	6	1	PELICAN	1039	4	1	n/a	n/a	n/a	n/a	n/a
3260.57	n/a	RECOG_TARGET	1630285	n/a	LTP110	ltpFR	16	6	0	CLERK	321	5	1	n/a	n/a	n/a	n/a	n/a
3261.616	n/a	RECOG_RESP	1630808	n/a	LTP110	ltpFR	16	6	0	CLERK	321	n/a	1	n/a	n/a	n/a	n/a	n/a
3261.984	n/a	RECOG_CONF	1630992	n/a	LTP110	ltpFR	16	6	0	CLERK	321	5	1	n/a	n/a	n/a	n/a	n/a
3264.948	n/a	REC_START	1632474	n/a	LTP110	ltpFR	16	7	n/a	n/a	n/a	n/a	n/a	n/a	n/a	n/a	n/a	n/a
3264.976	n/a	RECOG_TARGET	1632488	n/a	LTP110	ltpFR	16	7	0	KID	775	5	1	n/a	n/a	n/a	n/a	n/a
3265.666	n/a	RECOG_RESP	1632833	n/a	LTP110	ltpFR	16	7	0	KID	775	n/a	1	n/a	n/a	n/a	n/a	n/a
3266.09	n/a	RECOG_CONF	1633045	n/a	LTP110	ltpFR	16	7	0	KID	775	5	1	n/a	n/a	n/a	n/a	n/a
3267.424	n/a	RECOG_LURE	1633712	n/a	LTP110	ltpFR	16	7	n/a	MAGICIAN	854	4	n/a	n/a	n/a	n/a	n/a	n/a
3267.976	n/a	RECOG_RESP	1633988	n/a	LTP110	ltpFR	16	7	n/a	MAGICIAN	854	n/a	n/a	n/a	n/a	n/a	n/a	n/a
3268.394	n/a	RECOG_CONF	1634197	n/a	LTP110	ltpFR	16	7	n/a	MAGICIAN	854	4	n/a	n/a	n/a	n/a	n/a	n/a
3269.724	n/a	RECOG_TARGET	1634862	n/a	LTP110	ltpFR	16	7	0	DIAPER	459	5	1	n/a	n/a	n/a	n/a	n/a
3270.37	n/a	RECOG_RESP	1635185	n/a	LTP110	ltpFR	16	7	0	DIAPER	459	n/a	1	n/a	n/a	n/a	n/a	n/a
3270.79	n/a	RECOG_CONF	1635395	n/a	LTP110	ltpFR	16	7	0	DIAPER	459	5	1	n/a	n/a	n/a	n/a	n/a
3272.598	n/a	RECOG_LURE	1636299	n/a	LTP110	ltpFR	16	7	n/a	DINOSAUR	469	4	n/a	n/a	n/a	n/a	n/a	n/a
3274.566	n/a	RECOG_RESP	1637283	n/a	LTP110	ltpFR	16	7	n/a	DINOSAUR	469	n/a	n/a	n/a	n/a	n/a	n/a	n/a
3275.04	n/a	RECOG_CONF	1637520	n/a	LTP110	ltpFR	16	7	n/a	DINOSAUR	469	4	n/a	n/a	n/a	n/a	n/a	n/a
3276.456	n/a	RECOG_TARGET	1638228	n/a	LTP110	ltpFR	16	7	1	FARM	552	5	0	n/a	n/a	n/a	n/a	n/a
3276.956	n/a	RECOG_RESP	1638478	n/a	LTP110	ltpFR	16	7	1	FARM	552	n/a	0	n/a	n/a	n/a	n/a	n/a
3277.414	n/a	RECOG_CONF	1638707	n/a	LTP110	ltpFR	16	7	1	FARM	552	5	0	n/a	n/a	n/a	n/a	n/a
3278.754	n/a	RECOG_LURE	1639377	n/a	LTP110	ltpFR	16	7	n/a	MOON	914	4	n/a	n/a	n/a	n/a	n/a	n/a
3279.28	n/a	RECOG_RESP	1639640	n/a	LTP110	ltpFR	16	7	n/a	MOON	914	n/a	n/a	n/a	n/a	n/a	n/a	n/a
3279.676	n/a	RECOG_CONF	1639838	n/a	LTP110	ltpFR	16	7	n/a	MOON	914	4	n/a	n/a	n/a	n/a	n/a	n/a
