onset	duration	trial_type	sample	stim_file	subject	experiment	session	trial	item_name	item_num	list	answer	test_x	test_y	test_z
220.828	n/a	SESS_START	110414	n/a	LTP283	ltpFR2	23	n/a	n/a	n/a	n/a	n/a	0	0	0
240.926	n/a	START	120463	n/a	LTP283	ltpFR2	23	n/a	n/a	n/a	-1	n/a	n/a	n/a	n/a
240.94	n/a	PROB	120470	n/a	LTP283	ltpFR2	23	n/a	n/a	n/a	-1	13	6	1	6
243.274	n/a	PROB	121637	n/a	LTP283	ltpFR2	23	n/a	n/a	n/a	-1	16	8	6	2
244.892	n/a	PROB	122446	n/a	LTP283	ltpFR2	23	n/a	n/a	n/a	-1	15	8	6	1
246.892	n/a	PROB	123446	n/a	LTP283	ltpFR2	23	n/a	n/a	n/a	-1	14	5	6	3
248.878	n/a	PROB	124439	n/a	LTP283	ltpFR2	23	n/a	n/a	n/a	-1	18	5	7	6
251.474	n/a	STOP	125737	n/a	LTP283	ltpFR2	23	n/a	n/a	n/a	-1	n/a	n/a	n/a	n/a
284.83	n/a	DISTRACTOR	142415	n/a	LTP283	ltpFR2	23	1	n/a	n/a	n/a	n/a	0	0	0
284.83	n/a	START	142415	n/a	LTP283	ltpFR2	23	n/a	n/a	n/a	1	n/a	n/a	n/a	n/a
284.846	n/a	PROB	142423	n/a	LTP283	ltpFR2	23	n/a	n/a	n/a	1	17	7	9	1
286.28	n/a	PROB	143140	n/a	LTP283	ltpFR2	23	n/a	n/a	n/a	1	17	3	8	6
287.892	n/a	PROB	143946	n/a	LTP283	ltpFR2	23	n/a	n/a	n/a	1	13	3	5	5
289.028	n/a	PROB	144514	n/a	LTP283	ltpFR2	23	n/a	n/a	n/a	1	15	6	7	2
290.912	n/a	PROB	145456	n/a	LTP283	ltpFR2	23	n/a	n/a	n/a	1	25	8	8	9
292.964	n/a	PROB	146482	n/a	LTP283	ltpFR2	23	n/a	n/a	n/a	1	10	7	1	2
294.198	n/a	PROB	147099	n/a	LTP283	ltpFR2	23	n/a	n/a	n/a	1	21	8	9	4
295.602	n/a	PROB	147801	n/a	LTP283	ltpFR2	23	n/a	n/a	n/a	1	23	8	6	9
297.986	n/a	PROB	148993	n/a	LTP283	ltpFR2	23	n/a	n/a	n/a	1	18	5	7	6
299.484	n/a	PROB	149742	n/a	LTP283	ltpFR2	23	n/a	n/a	n/a	1	5	1	1	3
300.536	n/a	PROB	150268	n/a	LTP283	ltpFR2	23	n/a	n/a	n/a	1	16	9	2	5
302.072	n/a	PROB	151036	n/a	LTP283	ltpFR2	23	n/a	n/a	n/a	1	21	4	9	8
303.74	n/a	PROB	151870	n/a	LTP283	ltpFR2	23	n/a	n/a	n/a	1	17	7	4	6
305.39	n/a	PROB	152695	n/a	LTP283	ltpFR2	23	n/a	n/a	n/a	1	14	2	5	7
306.824	n/a	PROB	153412	n/a	LTP283	ltpFR2	23	n/a	n/a	n/a	1	22	9	9	4
308.084	n/a	STOP	154042	n/a	LTP283	ltpFR2	23	n/a	n/a	n/a	1	n/a	n/a	n/a	n/a
309.798	n/a	WORD	154899	wordpools/wasnorm_wordpool_576.txt	LTP283	ltpFR2	23	1	SHIRT	1287	n/a	n/a	0	0	0
312.45	n/a	WORD	156225	wordpools/wasnorm_wordpool_576.txt	LTP283	ltpFR2	23	1	BIKE	125	n/a	n/a	0	0	0
315.286	n/a	WORD	157643	wordpools/wasnorm_wordpool_576.txt	LTP283	ltpFR2	23	1	SCARECROW	1245	n/a	n/a	0	0	0
318.074	n/a	WORD	159037	wordpools/wasnorm_wordpool_576.txt	LTP283	ltpFR2	23	1	HEEL	700	n/a	n/a	0	0	0
320.708	n/a	WORD	160354	wordpools/wasnorm_wordpool_576.txt	LTP283	ltpFR2	23	1	GUITAR	670	n/a	n/a	0	0	0
323.328	n/a	WORD	161664	wordpools/wasnorm_wordpool_576.txt	LTP283	ltpFR2	23	1	TUBA	1515	n/a	n/a	0	0	0
325.996	n/a	WORD	162998	wordpools/wasnorm_wordpool_576.txt	LTP283	ltpFR2	23	1	TULIP	1517	n/a	n/a	0	0	0
328.564	n/a	WORD	164282	wordpools/wasnorm_wordpool_576.txt	LTP283	ltpFR2	23	1	SQUID	1361	n/a	n/a	0	0	0
331.066	n/a	WORD	165533	wordpools/wasnorm_wordpool_576.txt	LTP283	ltpFR2	23	1	HELMET	702	n/a	n/a	0	0	0
333.604	n/a	WORD	166802	wordpools/wasnorm_wordpool_576.txt	LTP283	ltpFR2	23	1	CONVENT	370	n/a	n/a	0	0	0
336.088	n/a	WORD	168044	wordpools/wasnorm_wordpool_576.txt	LTP283	ltpFR2	23	1	CRADLE	399	n/a	n/a	0	0	0
338.556	n/a	WORD	169278	wordpools/wasnorm_wordpool_576.txt	LTP283	ltpFR2	23	1	HOOK	715	n/a	n/a	0	0	0
341.34	n/a	WORD	170670	wordpools/wasnorm_wordpool_576.txt	LTP283	ltpFR2	23	1	ELK	526	n/a	n/a	0	0	0
344.112	n/a	WORD	172056	wordpools/wasnorm_wordpool_576.txt	LTP283	ltpFR2	23	1	FATHER	554	n/a	n/a	0	0	0
346.846	n/a	WORD	173423	wordpools/wasnorm_wordpool_576.txt	LTP283	ltpFR2	23	1	CANYON	235	n/a	n/a	0	0	0
349.614	n/a	WORD	174807	wordpools/wasnorm_wordpool_576.txt	LTP283	ltpFR2	23	1	LOFT	840	n/a	n/a	0	0	0
352.25	n/a	WORD	176125	wordpools/wasnorm_wordpool_576.txt	LTP283	ltpFR2	23	1	DRESS	495	n/a	n/a	0	0	0
354.938	n/a	WORD	177469	wordpools/wasnorm_wordpool_576.txt	LTP283	ltpFR2	23	1	HERO	706	n/a	n/a	0	0	0
357.436	n/a	WORD	178718	wordpools/wasnorm_wordpool_576.txt	LTP283	ltpFR2	23	1	PENCIL	1042	n/a	n/a	0	0	0
360.056	n/a	WORD	180028	wordpools/wasnorm_wordpool_576.txt	LTP283	ltpFR2	23	1	PORK	1108	n/a	n/a	0	0	0
362.724	n/a	WORD	181362	wordpools/wasnorm_wordpool_576.txt	LTP283	ltpFR2	23	1	SAUSAGE	1238	n/a	n/a	0	0	0
365.244	n/a	WORD	182622	wordpools/wasnorm_wordpool_576.txt	LTP283	ltpFR2	23	1	FLAG	573	n/a	n/a	0	0	0
367.846	n/a	WORD	183923	wordpools/wasnorm_wordpool_576.txt	LTP283	ltpFR2	23	1	EAGLE	512	n/a	n/a	0	0	0
370.314	n/a	WORD	185157	wordpools/wasnorm_wordpool_576.txt	LTP283	ltpFR2	23	1	TURKEY	1520	n/a	n/a	0	0	0
371.934	n/a	START	185967	n/a	LTP283	ltpFR2	23	n/a	n/a	n/a	2	n/a	n/a	n/a	n/a
372.954	n/a	DISTRACTOR	186477	n/a	LTP283	ltpFR2	23	1	n/a	n/a	n/a	n/a	0	0	0
372.968	n/a	PROB	186484	n/a	LTP283	ltpFR2	23	n/a	n/a	n/a	2	18	5	6	7
376.498	n/a	PROB	188249	n/a	LTP283	ltpFR2	23	n/a	n/a	n/a	2	16	1	8	7
377.748	n/a	PROB	188874	n/a	LTP283	ltpFR2	23	n/a	n/a	n/a	2	13	3	9	1
378.85	n/a	PROB	189425	n/a	LTP283	ltpFR2	23	n/a	n/a	n/a	2	17	5	8	4
380.768	n/a	PROB	190384	n/a	LTP283	ltpFR2	23	n/a	n/a	n/a	2	14	1	8	5
382.538	n/a	PROB	191269	n/a	LTP283	ltpFR2	23	n/a	n/a	n/a	2	26	8	9	9
383.886	n/a	PROB	191943	n/a	LTP283	ltpFR2	23	n/a	n/a	n/a	2	10	5	1	4
385.022	n/a	PROB	192511	n/a	LTP283	ltpFR2	23	n/a	n/a	n/a	2	14	3	5	6
386.84	n/a	PROB	193420	n/a	LTP283	ltpFR2	23	n/a	n/a	n/a	2	11	3	3	5
388.206	n/a	PROB	194103	n/a	LTP283	ltpFR2	23	n/a	n/a	n/a	2	15	3	3	9
389.642	n/a	PROB	194821	n/a	LTP283	ltpFR2	23	n/a	n/a	n/a	2	13	7	1	5
391.226	n/a	PROB	195613	n/a	LTP283	ltpFR2	23	n/a	n/a	n/a	2	14	2	5	7
392.462	n/a	PROB	196231	n/a	LTP283	ltpFR2	23	n/a	n/a	n/a	2	6	4	1	1
393.728	n/a	PROB	196864	n/a	LTP283	ltpFR2	23	n/a	n/a	n/a	2	18	9	6	3
395.184	n/a	STOP	197592	n/a	LTP283	ltpFR2	23	n/a	n/a	n/a	2	n/a	n/a	n/a	n/a
397.834	n/a	REC_START	198917	n/a	LTP283	ltpFR2	23	1	n/a	n/a	n/a	n/a	0	0	0
400.898	n/a	REC_WORD	200449	wordpools/wasnorm_wordpool_576.txt	LTP283	ltpFR2	23	1	EAGLE	512	n/a	n/a	0	0	0
401.352	n/a	REC_WORD	200676	wordpools/wasnorm_wordpool_576.txt	LTP283	ltpFR2	23	1	FLAG	573	n/a	n/a	0	0	0
403.618	n/a	REC_WORD	201809	wordpools/wasnorm_wordpool_576.txt	LTP283	ltpFR2	23	1	FATHER	554	n/a	n/a	0	0	0
404.758	n/a	REC_WORD	202379	wordpools/wasnorm_wordpool_576.txt	LTP283	ltpFR2	23	1	CANYON	235	n/a	n/a	0	0	0
405.23	n/a	REC_WORD	202615	wordpools/wasnorm_wordpool_576.txt	LTP283	ltpFR2	23	1	LOFT	840	n/a	n/a	0	0	0
407.136	n/a	REC_WORD	203568	wordpools/wasnorm_wordpool_576.txt	LTP283	ltpFR2	23	1	CONVENT	370	n/a	n/a	0	0	0
408.314	n/a	REC_WORD	204157	wordpools/wasnorm_wordpool_576.txt	LTP283	ltpFR2	23	1	SHIRT	1287	n/a	n/a	0	0	0
410.07	n/a	REC_WORD	205035	wordpools/wasnorm_wordpool_576.txt	LTP283	ltpFR2	23	1	BIKE	125	n/a	n/a	0	0	0
410.666	n/a	REC_WORD	205333	wordpools/wasnorm_wordpool_576.txt	LTP283	ltpFR2	23	1	SCARECROW	1245	n/a	n/a	0	0	0
411.666	n/a	REC_WORD_VV	205833	wordpools/wasnorm_wordpool_576.txt	LTP283	ltpFR2	23	1	<>	-1	n/a	n/a	0	0	0
412.844	n/a	REC_WORD	206422	wordpools/wasnorm_wordpool_576.txt	LTP283	ltpFR2	23	1	TUBA	1515	n/a	n/a	0	0	0
413.266	n/a	REC_WORD	206633	wordpools/wasnorm_wordpool_576.txt	LTP283	ltpFR2	23	1	SQUID	1361	n/a	n/a	0	0	0
414.602	n/a	REC_WORD	207301	wordpools/wasnorm_wordpool_576.txt	LTP283	ltpFR2	23	1	ELK	526	n/a	n/a	0	0	0
414.97	n/a	REC_WORD	207485	wordpools/wasnorm_wordpool_576.txt	LTP283	ltpFR2	23	1	HOOK	715	n/a	n/a	0	0	0
419.528	n/a	REC_WORD	209764	wordpools/wasnorm_wordpool_576.txt	LTP283	ltpFR2	23	1	CRADLE	399	n/a	n/a	0	0	0
436.43	n/a	REC_WORD	218215	wordpools/wasnorm_wordpool_576.txt	LTP283	ltpFR2	23	1	HELMET	702	n/a	n/a	0	0	0
440.516	n/a	REC_WORD	220258	wordpools/wasnorm_wordpool_576.txt	LTP283	ltpFR2	23	1	HEEL	700	n/a	n/a	0	0	0
488.306	n/a	WORD	244153	wordpools/wasnorm_wordpool_576.txt	LTP283	ltpFR2	23	2	DENIM	446	n/a	n/a	0	0	0
490.862	n/a	WORD	245431	wordpools/wasnorm_wordpool_576.txt	LTP283	ltpFR2	23	2	BUILDING	191	n/a	n/a	0	0	0
493.396	n/a	WORD	246698	wordpools/wasnorm_wordpool_576.txt	LTP283	ltpFR2	23	2	DRAWER	493	n/a	n/a	0	0	0
495.984	n/a	WORD	247992	wordpools/wasnorm_wordpool_576.txt	LTP283	ltpFR2	23	2	COFFIN	342	n/a	n/a	0	0	0
498.584	n/a	WORD	249292	wordpools/wasnorm_wordpool_576.txt	LTP283	ltpFR2	23	2	BUILDER	190	n/a	n/a	0	0	0
501.286	n/a	WORD	250643	wordpools/wasnorm_wordpool_576.txt	LTP283	ltpFR2	23	2	SALESMAN	1225	n/a	n/a	0	0	0
503.788	n/a	WORD	251894	wordpools/wasnorm_wordpool_576.txt	LTP283	ltpFR2	23	2	CHURCH	307	n/a	n/a	0	0	0
506.458	n/a	WORD	253229	wordpools/wasnorm_wordpool_576.txt	LTP283	ltpFR2	23	2	OUTFIT	988	n/a	n/a	0	0	0
509.128	n/a	WORD	254564	wordpools/wasnorm_wordpool_576.txt	LTP283	ltpFR2	23	2	RUST	1219	n/a	n/a	0	0	0
511.88	n/a	WORD	255940	wordpools/wasnorm_wordpool_576.txt	LTP283	ltpFR2	23	2	WARDROBE	1587	n/a	n/a	0	0	0
514.364	n/a	WORD	257182	wordpools/wasnorm_wordpool_576.txt	LTP283	ltpFR2	23	2	SHERIFF	1284	n/a	n/a	0	0	0
516.884	n/a	WORD	258442	wordpools/wasnorm_wordpool_576.txt	LTP283	ltpFR2	23	2	PATROL	1027	n/a	n/a	0	0	0
519.384	n/a	WORD	259692	wordpools/wasnorm_wordpool_576.txt	LTP283	ltpFR2	23	2	REBEL	1172	n/a	n/a	0	0	0
521.852	n/a	WORD	260926	wordpools/wasnorm_wordpool_576.txt	LTP283	ltpFR2	23	2	EUROPE	541	n/a	n/a	0	0	0
524.606	n/a	WORD	262303	wordpools/wasnorm_wordpool_576.txt	LTP283	ltpFR2	23	2	DRIVEWAY	500	n/a	n/a	0	0	0
527.224	n/a	WORD	263612	wordpools/wasnorm_wordpool_576.txt	LTP283	ltpFR2	23	2	DART	440	n/a	n/a	0	0	0
529.876	n/a	WORD	264938	wordpools/wasnorm_wordpool_576.txt	LTP283	ltpFR2	23	2	JOKER	759	n/a	n/a	0	0	0
532.444	n/a	WORD	266222	wordpools/wasnorm_wordpool_576.txt	LTP283	ltpFR2	23	2	DECK	443	n/a	n/a	0	0	0
535.18	n/a	WORD	267590	wordpools/wasnorm_wordpool_576.txt	LTP283	ltpFR2	23	2	FLASHLIGHT	575	n/a	n/a	0	0	0
537.934	n/a	WORD	268967	wordpools/wasnorm_wordpool_576.txt	LTP283	ltpFR2	23	2	MATCH	878	n/a	n/a	0	0	0
540.534	n/a	WORD	270267	wordpools/wasnorm_wordpool_576.txt	LTP283	ltpFR2	23	2	CONCRETE	361	n/a	n/a	0	0	0
543.204	n/a	WORD	271602	wordpools/wasnorm_wordpool_576.txt	LTP283	ltpFR2	23	2	KNUCKLE	789	n/a	n/a	0	0	0
545.99	n/a	WORD	272995	wordpools/wasnorm_wordpool_576.txt	LTP283	ltpFR2	23	2	BUREAU	199	n/a	n/a	0	0	0
548.608	n/a	WORD	274304	wordpools/wasnorm_wordpool_576.txt	LTP283	ltpFR2	23	2	MAGNET	855	n/a	n/a	0	0	0
550.228	n/a	START	275114	n/a	LTP283	ltpFR2	23	n/a	n/a	n/a	3	n/a	n/a	n/a	n/a
551.382	n/a	DISTRACTOR	275691	n/a	LTP283	ltpFR2	23	2	n/a	n/a	n/a	n/a	0	0	0
551.394	n/a	PROB	275697	n/a	LTP283	ltpFR2	23	n/a	n/a	n/a	3	13	5	3	5
552.894	n/a	PROB	276447	n/a	LTP283	ltpFR2	23	n/a	n/a	n/a	3	14	6	5	3
555.876	n/a	PROB	277938	n/a	LTP283	ltpFR2	23	n/a	n/a	n/a	3	20	6	5	9
557.36	n/a	PROB	278680	n/a	LTP283	ltpFR2	23	n/a	n/a	n/a	3	10	2	6	2
558.578	n/a	PROB	279289	n/a	LTP283	ltpFR2	23	n/a	n/a	n/a	3	16	9	3	4
560.014	n/a	PROB	280007	n/a	LTP283	ltpFR2	23	n/a	n/a	n/a	3	14	1	9	4
561.212	n/a	PROB	280606	n/a	LTP283	ltpFR2	23	n/a	n/a	n/a	3	24	6	9	9
563.382	n/a	PROB	281691	n/a	LTP283	ltpFR2	23	n/a	n/a	n/a	3	19	9	9	1
564.95	n/a	PROB	282475	n/a	LTP283	ltpFR2	23	n/a	n/a	n/a	3	12	6	3	3
566.518	n/a	PROB	283259	n/a	LTP283	ltpFR2	23	n/a	n/a	n/a	3	20	7	4	9
567.752	n/a	PROB	283876	n/a	LTP283	ltpFR2	23	n/a	n/a	n/a	3	19	9	4	6
569.17	n/a	PROB	284585	n/a	LTP283	ltpFR2	23	n/a	n/a	n/a	3	21	9	6	6
570.542	n/a	PROB	285271	n/a	LTP283	ltpFR2	23	n/a	n/a	n/a	3	16	3	5	8
571.906	n/a	PROB	285953	n/a	LTP283	ltpFR2	23	n/a	n/a	n/a	3	19	8	8	3
573.158	n/a	STOP	286579	n/a	LTP283	ltpFR2	23	n/a	n/a	n/a	3	n/a	n/a	n/a	n/a
576.18	n/a	REC_START	288090	n/a	LTP283	ltpFR2	23	2	n/a	n/a	n/a	n/a	0	0	0
577.502	n/a	REC_WORD	288751	wordpools/wasnorm_wordpool_576.txt	LTP283	ltpFR2	23	2	SHERIFF	1284	n/a	n/a	0	0	0
578.416	n/a	REC_WORD	289208	wordpools/wasnorm_wordpool_576.txt	LTP283	ltpFR2	23	2	FLASHLIGHT	575	n/a	n/a	0	0	0
579.072	n/a	REC_WORD	289536	wordpools/wasnorm_wordpool_576.txt	LTP283	ltpFR2	23	2	RUST	1219	n/a	n/a	0	0	0
579.556	n/a	REC_WORD	289778	wordpools/wasnorm_wordpool_576.txt	LTP283	ltpFR2	23	2	WARDROBE	1587	n/a	n/a	0	0	0
580.358	n/a	REC_WORD	290179	wordpools/wasnorm_wordpool_576.txt	LTP283	ltpFR2	23	2	BUREAU	199	n/a	n/a	0	0	0
582.334	n/a	REC_WORD_VV	291167	wordpools/wasnorm_wordpool_576.txt	LTP283	ltpFR2	23	2	<>	-1	n/a	n/a	0	0	0
583.536	n/a	REC_WORD	291768	wordpools/wasnorm_wordpool_576.txt	LTP283	ltpFR2	23	2	OUTFIT	988	n/a	n/a	0	0	0
584.536	n/a	REC_WORD_VV	292268	wordpools/wasnorm_wordpool_576.txt	LTP283	ltpFR2	23	2	<>	-1	n/a	n/a	0	0	0
585.318	n/a	REC_WORD	292659	wordpools/wasnorm_wordpool_576.txt	LTP283	ltpFR2	23	2	CHURCH	307	n/a	n/a	0	0	0
586.162	n/a	REC_WORD	293081	wordpools/wasnorm_wordpool_576.txt	LTP283	ltpFR2	23	2	DENIM	446	n/a	n/a	0	0	0
601.934	n/a	REC_WORD	300967	wordpools/wasnorm_wordpool_576.txt	LTP283	ltpFR2	23	2	RUST	1219	n/a	n/a	0	0	0
602.934	n/a	REC_WORD_VV	301467	wordpools/wasnorm_wordpool_576.txt	LTP283	ltpFR2	23	2	<>	-1	n/a	n/a	0	0	0
646.09	n/a	REC_WORD	323045	wordpools/wasnorm_wordpool_576.txt	LTP283	ltpFR2	23	2	SALESMAN	1225	n/a	n/a	0	0	0
666.638	n/a	DISTRACTOR	333319	n/a	LTP283	ltpFR2	23	3	n/a	n/a	n/a	n/a	0	0	0
666.638	n/a	START	333319	n/a	LTP283	ltpFR2	23	n/a	n/a	n/a	4	n/a	n/a	n/a	n/a
666.67	n/a	PROB	333335	n/a	LTP283	ltpFR2	23	n/a	n/a	n/a	4	17	5	7	5
668.466	n/a	PROB	334233	n/a	LTP283	ltpFR2	23	n/a	n/a	n/a	4	13	1	9	3
669.65	n/a	PROB	334825	n/a	LTP283	ltpFR2	23	n/a	n/a	n/a	4	19	9	5	5
670.834	n/a	PROB	335417	n/a	LTP283	ltpFR2	23	n/a	n/a	n/a	4	12	4	4	4
672.02	n/a	PROB	336010	n/a	LTP283	ltpFR2	23	n/a	n/a	n/a	4	21	4	9	8
673.454	n/a	PROB	336727	n/a	LTP283	ltpFR2	23	n/a	n/a	n/a	4	10	5	1	4
674.654	n/a	PROB	337327	n/a	LTP283	ltpFR2	23	n/a	n/a	n/a	4	20	6	9	5
676.19	n/a	PROB	338095	n/a	LTP283	ltpFR2	23	n/a	n/a	n/a	4	15	8	3	4
677.658	n/a	PROB	338829	n/a	LTP283	ltpFR2	23	n/a	n/a	n/a	4	13	3	7	3
678.842	n/a	PROB	339421	n/a	LTP283	ltpFR2	23	n/a	n/a	n/a	4	15	3	8	4
680.31	n/a	PROB	340155	n/a	LTP283	ltpFR2	23	n/a	n/a	n/a	4	14	6	7	1
681.812	n/a	PROB	340906	n/a	LTP283	ltpFR2	23	n/a	n/a	n/a	4	12	4	3	5
684.178	n/a	PROB	342089	n/a	LTP283	ltpFR2	23	n/a	n/a	n/a	4	16	3	6	7
686.532	n/a	PROB	343266	n/a	LTP283	ltpFR2	23	n/a	n/a	n/a	4	20	9	5	6
687.766	n/a	PROB	343883	n/a	LTP283	ltpFR2	23	n/a	n/a	n/a	4	11	2	4	5
689.268	n/a	STOP	344634	n/a	LTP283	ltpFR2	23	n/a	n/a	n/a	4	n/a	n/a	n/a	n/a
691.474	n/a	WORD	345737	wordpools/wasnorm_wordpool_576.txt	LTP283	ltpFR2	23	3	ACTRESS	6	n/a	n/a	0	0	0
694.126	n/a	WORD	347063	wordpools/wasnorm_wordpool_576.txt	LTP283	ltpFR2	23	3	TABLET	1427	n/a	n/a	0	0	0
696.946	n/a	WORD	348473	wordpools/wasnorm_wordpool_576.txt	LTP283	ltpFR2	23	3	FLOWER	584	n/a	n/a	0	0	0
699.546	n/a	WORD	349773	wordpools/wasnorm_wordpool_576.txt	LTP283	ltpFR2	23	3	FRUIT	610	n/a	n/a	0	0	0
702.332	n/a	WORD	351166	wordpools/wasnorm_wordpool_576.txt	LTP283	ltpFR2	23	3	STICKER	1382	n/a	n/a	0	0	0
705.018	n/a	WORD	352509	wordpools/wasnorm_wordpool_576.txt	LTP283	ltpFR2	23	3	BRIEFCASE	175	n/a	n/a	0	0	0
707.686	n/a	WORD	353843	wordpools/wasnorm_wordpool_576.txt	LTP283	ltpFR2	23	3	TILE	1468	n/a	n/a	0	0	0
710.204	n/a	WORD	355102	wordpools/wasnorm_wordpool_576.txt	LTP283	ltpFR2	23	3	HAMMER	680	n/a	n/a	0	0	0
712.958	n/a	WORD	356479	wordpools/wasnorm_wordpool_576.txt	LTP283	ltpFR2	23	3	CHISEL	305	n/a	n/a	0	0	0
715.458	n/a	WORD	357729	wordpools/wasnorm_wordpool_576.txt	LTP283	ltpFR2	23	3	CASHIER	254	n/a	n/a	0	0	0
718.228	n/a	WORD	359114	wordpools/wasnorm_wordpool_576.txt	LTP283	ltpFR2	23	3	TIGER	1467	n/a	n/a	0	0	0
720.846	n/a	WORD	360423	wordpools/wasnorm_wordpool_576.txt	LTP283	ltpFR2	23	3	FILM	565	n/a	n/a	0	0	0
723.548	n/a	WORD	361774	wordpools/wasnorm_wordpool_576.txt	LTP283	ltpFR2	23	3	SEASHORE	1263	n/a	n/a	0	0	0
726.068	n/a	WORD	363034	wordpools/wasnorm_wordpool_576.txt	LTP283	ltpFR2	23	3	SERPENT	1270	n/a	n/a	0	0	0
728.854	n/a	WORD	364427	wordpools/wasnorm_wordpool_576.txt	LTP283	ltpFR2	23	3	MAJOR	859	n/a	n/a	0	0	0
731.588	n/a	WORD	365794	wordpools/wasnorm_wordpool_576.txt	LTP283	ltpFR2	23	3	ROACH	1195	n/a	n/a	0	0	0
734.174	n/a	WORD	367087	wordpools/wasnorm_wordpool_576.txt	LTP283	ltpFR2	23	3	ATHLETE	52	n/a	n/a	0	0	0
736.66	n/a	WORD	368330	wordpools/wasnorm_wordpool_576.txt	LTP283	ltpFR2	23	3	DUNGEON	507	n/a	n/a	0	0	0
739.228	n/a	WORD	369614	wordpools/wasnorm_wordpool_576.txt	LTP283	ltpFR2	23	3	CAPTAIN	239	n/a	n/a	0	0	0
741.998	n/a	WORD	370999	wordpools/wasnorm_wordpool_576.txt	LTP283	ltpFR2	23	3	DAISY	435	n/a	n/a	0	0	0
744.8	n/a	WORD	372400	wordpools/wasnorm_wordpool_576.txt	LTP283	ltpFR2	23	3	HANDCUFFS	685	n/a	n/a	0	0	0
747.234	n/a	WORD	373617	wordpools/wasnorm_wordpool_576.txt	LTP283	ltpFR2	23	3	PRISON	1127	n/a	n/a	0	0	0
749.836	n/a	WORD	374918	wordpools/wasnorm_wordpool_576.txt	LTP283	ltpFR2	23	3	SANDWICH	1232	n/a	n/a	0	0	0
752.456	n/a	WORD	376228	wordpools/wasnorm_wordpool_576.txt	LTP283	ltpFR2	23	3	TART	1436	n/a	n/a	0	0	0
754.076	n/a	START	377038	n/a	LTP283	ltpFR2	23	n/a	n/a	n/a	5	n/a	n/a	n/a	n/a
754.956	n/a	DISTRACTOR	377478	n/a	LTP283	ltpFR2	23	3	n/a	n/a	n/a	n/a	0	0	0
754.976	n/a	PROB	377488	n/a	LTP283	ltpFR2	23	n/a	n/a	n/a	5	9	1	4	4
756.688	n/a	PROB	378344	n/a	LTP283	ltpFR2	23	n/a	n/a	n/a	5	24	7	9	8
759.808	n/a	PROB	379904	n/a	LTP283	ltpFR2	23	n/a	n/a	n/a	5	13	3	7	3
761.16	n/a	PROB	380580	n/a	LTP283	ltpFR2	23	n/a	n/a	n/a	5	16	6	9	1
762.394	n/a	PROB	381197	n/a	LTP283	ltpFR2	23	n/a	n/a	n/a	5	14	7	5	2
763.794	n/a	PROB	381897	n/a	LTP283	ltpFR2	23	n/a	n/a	n/a	5	13	4	1	8
765.512	n/a	PROB	382756	n/a	LTP283	ltpFR2	23	n/a	n/a	n/a	5	14	5	7	2
766.93	n/a	PROB	383465	n/a	LTP283	ltpFR2	23	n/a	n/a	n/a	5	22	8	5	9
769.248	n/a	PROB	384624	n/a	LTP283	ltpFR2	23	n/a	n/a	n/a	5	12	3	3	6
770.688	n/a	PROB	385344	n/a	LTP283	ltpFR2	23	n/a	n/a	n/a	5	11	3	4	4
772.068	n/a	PROB	386034	n/a	LTP283	ltpFR2	23	n/a	n/a	n/a	5	9	1	3	5
773.436	n/a	PROB	386718	n/a	LTP283	ltpFR2	23	n/a	n/a	n/a	5	13	1	7	5
775.186	n/a	PROB	387593	n/a	LTP283	ltpFR2	23	n/a	n/a	n/a	5	15	5	6	4
776.554	n/a	PROB	388277	n/a	LTP283	ltpFR2	23	n/a	n/a	n/a	5	20	7	5	8
778.018	n/a	STOP	389009	n/a	LTP283	ltpFR2	23	n/a	n/a	n/a	5	n/a	n/a	n/a	n/a
780.026	n/a	REC_START	390013	n/a	LTP283	ltpFR2	23	3	n/a	n/a	n/a	n/a	0	0	0
782.784	n/a	REC_WORD	391392	wordpools/wasnorm_wordpool_576.txt	LTP283	ltpFR2	23	3	ROACH	1195	n/a	n/a	0	0	0
783.26	n/a	REC_WORD	391630	wordpools/wasnorm_wordpool_576.txt	LTP283	ltpFR2	23	3	SANDWICH	1232	n/a	n/a	0	0	0
784.056	n/a	REC_WORD	392028	wordpools/wasnorm_wordpool_576.txt	LTP283	ltpFR2	23	3	TART	1436	n/a	n/a	0	0	0
784.756	n/a	REC_WORD	392378	wordpools/wasnorm_wordpool_576.txt	LTP283	ltpFR2	23	3	PRISON	1127	n/a	n/a	0	0	0
785.846	n/a	REC_WORD	392923	wordpools/wasnorm_wordpool_576.txt	LTP283	ltpFR2	23	3	HANDCUFFS	685	n/a	n/a	0	0	0
788.392	n/a	REC_WORD	394196	wordpools/wasnorm_wordpool_576.txt	LTP283	ltpFR2	23	3	CASHIER	254	n/a	n/a	0	0	0
790.252	n/a	REC_WORD	395126	wordpools/wasnorm_wordpool_576.txt	LTP283	ltpFR2	23	3	MAJOR	859	n/a	n/a	0	0	0
792.852	n/a	REC_WORD	396426	wordpools/wasnorm_wordpool_576.txt	LTP283	ltpFR2	23	3	DUNGEON	507	n/a	n/a	0	0	0
795.324	n/a	REC_WORD	397662	wordpools/wasnorm_wordpool_576.txt	LTP283	ltpFR2	23	3	DAISY	435	n/a	n/a	0	0	0
797.886	n/a	REC_WORD	398943	wordpools/wasnorm_wordpool_576.txt	LTP283	ltpFR2	23	3	CAPTAIN	239	n/a	n/a	0	0	0
870.496	n/a	WORD	435248	wordpools/wasnorm_wordpool_576.txt	LTP283	ltpFR2	23	4	TURNIP	1521	n/a	n/a	0	0	0
872.986	n/a	WORD	436493	wordpools/wasnorm_wordpool_576.txt	LTP283	ltpFR2	23	4	SIRLOIN	1311	n/a	n/a	0	0	0
875.688	n/a	WORD	437844	wordpools/wasnorm_wordpool_576.txt	LTP283	ltpFR2	23	4	STONE	1385	n/a	n/a	0	0	0
878.29	n/a	WORD	439145	wordpools/wasnorm_wordpool_576.txt	LTP283	ltpFR2	23	4	STABLE	1363	n/a	n/a	0	0	0
880.81	n/a	WORD	440405	wordpools/wasnorm_wordpool_576.txt	LTP283	ltpFR2	23	4	GAUZE	626	n/a	n/a	0	0	0
883.628	n/a	WORD	441814	wordpools/wasnorm_wordpool_576.txt	LTP283	ltpFR2	23	4	SERVANT	1271	n/a	n/a	0	0	0
886.43	n/a	WORD	443215	wordpools/wasnorm_wordpool_576.txt	LTP283	ltpFR2	23	4	PASTRY	1022	n/a	n/a	0	0	0
889.034	n/a	WORD	444517	wordpools/wasnorm_wordpool_576.txt	LTP283	ltpFR2	23	4	BOUILLON	154	n/a	n/a	0	0	0
891.75	n/a	WORD	445875	wordpools/wasnorm_wordpool_576.txt	LTP283	ltpFR2	23	4	POPCORN	1104	n/a	n/a	0	0	0
894.502	n/a	WORD	447251	wordpools/wasnorm_wordpool_576.txt	LTP283	ltpFR2	23	4	COCOON	339	n/a	n/a	0	0	0
897.306	n/a	WORD	448653	wordpools/wasnorm_wordpool_576.txt	LTP283	ltpFR2	23	4	PONY	1102	n/a	n/a	0	0	0
899.892	n/a	WORD	449946	wordpools/wasnorm_wordpool_576.txt	LTP283	ltpFR2	23	4	COLESLAW	344	n/a	n/a	0	0	0
902.36	n/a	WORD	451180	wordpools/wasnorm_wordpool_576.txt	LTP283	ltpFR2	23	4	JAR	750	n/a	n/a	0	0	0
905.014	n/a	WORD	452507	wordpools/wasnorm_wordpool_576.txt	LTP283	ltpFR2	23	4	EMPIRE	530	n/a	n/a	0	0	0
907.664	n/a	WORD	453832	wordpools/wasnorm_wordpool_576.txt	LTP283	ltpFR2	23	4	VAMPIRE	1547	n/a	n/a	0	0	0
910.15	n/a	WORD	455075	wordpools/wasnorm_wordpool_576.txt	LTP283	ltpFR2	23	4	WALNUT	1584	n/a	n/a	0	0	0
912.868	n/a	WORD	456434	wordpools/wasnorm_wordpool_576.txt	LTP283	ltpFR2	23	4	ALMOND	18	n/a	n/a	0	0	0
915.622	n/a	WORD	457811	wordpools/wasnorm_wordpool_576.txt	LTP283	ltpFR2	23	4	TWEEZERS	1526	n/a	n/a	0	0	0
918.14	n/a	WORD	459070	wordpools/wasnorm_wordpool_576.txt	LTP283	ltpFR2	23	4	CHICKEN	297	n/a	n/a	0	0	0
920.776	n/a	WORD	460388	wordpools/wasnorm_wordpool_576.txt	LTP283	ltpFR2	23	4	PLUM	1090	n/a	n/a	0	0	0
923.444	n/a	WORD	461722	wordpools/wasnorm_wordpool_576.txt	LTP283	ltpFR2	23	4	COBBLER	335	n/a	n/a	0	0	0
926.246	n/a	WORD	463123	wordpools/wasnorm_wordpool_576.txt	LTP283	ltpFR2	23	4	LEAF	808	n/a	n/a	0	0	0
928.898	n/a	WORD	464449	wordpools/wasnorm_wordpool_576.txt	LTP283	ltpFR2	23	4	SQUIRREL	1362	n/a	n/a	0	0	0
931.434	n/a	WORD	465717	wordpools/wasnorm_wordpool_576.txt	LTP283	ltpFR2	23	4	PRIEST	1122	n/a	n/a	0	0	0
933.054	n/a	START	466527	n/a	LTP283	ltpFR2	23	n/a	n/a	n/a	6	n/a	n/a	n/a	n/a
933.984	n/a	DISTRACTOR	466992	n/a	LTP283	ltpFR2	23	4	n/a	n/a	n/a	n/a	0	0	0
934.004	n/a	PROB	467002	n/a	LTP283	ltpFR2	23	n/a	n/a	n/a	6	21	6	8	5
935.884	n/a	PROB	467942	n/a	LTP283	ltpFR2	23	n/a	n/a	n/a	6	21	5	7	9
939.302	n/a	PROB	469651	n/a	LTP283	ltpFR2	23	n/a	n/a	n/a	6	18	9	2	7
940.77	n/a	PROB	470385	n/a	LTP283	ltpFR2	23	n/a	n/a	n/a	6	17	6	9	2
944.64	n/a	PROB	472320	n/a	LTP283	ltpFR2	23	n/a	n/a	n/a	6	6	2	2	2
945.89	n/a	PROB	472945	n/a	LTP283	ltpFR2	23	n/a	n/a	n/a	6	10	5	1	4
947.11	n/a	PROB	473555	n/a	LTP283	ltpFR2	23	n/a	n/a	n/a	6	5	2	1	2
948.128	n/a	PROB	474064	n/a	LTP283	ltpFR2	23	n/a	n/a	n/a	6	23	7	7	9
949.514	n/a	PROB	474757	n/a	LTP283	ltpFR2	23	n/a	n/a	n/a	6	10	3	1	6
950.66	n/a	PROB	475330	n/a	LTP283	ltpFR2	23	n/a	n/a	n/a	6	11	1	3	7
951.862	n/a	PROB	475931	n/a	LTP283	ltpFR2	23	n/a	n/a	n/a	6	17	7	5	5
953.196	n/a	PROB	476598	n/a	LTP283	ltpFR2	23	n/a	n/a	n/a	6	22	5	8	9
955.512	n/a	STOP	477756	n/a	LTP283	ltpFR2	23	n/a	n/a	n/a	6	n/a	n/a	n/a	n/a
958.89	n/a	REC_START	479445	n/a	LTP283	ltpFR2	23	4	n/a	n/a	n/a	n/a	0	0	0
963.366	n/a	REC_WORD	481683	wordpools/wasnorm_wordpool_576.txt	LTP283	ltpFR2	23	4	PONY	1102	n/a	n/a	0	0	0
963.896	n/a	REC_WORD	481948	wordpools/wasnorm_wordpool_576.txt	LTP283	ltpFR2	23	4	WALNUT	1584	n/a	n/a	0	0	0
964.5	n/a	REC_WORD	482250	wordpools/wasnorm_wordpool_576.txt	LTP283	ltpFR2	23	4	ALMOND	18	n/a	n/a	0	0	0
966.7	n/a	REC_WORD	483350	wordpools/wasnorm_wordpool_576.txt	LTP283	ltpFR2	23	4	COLESLAW	344	n/a	n/a	0	0	0
974.414	n/a	REC_WORD	487207	wordpools/wasnorm_wordpool_576.txt	LTP283	ltpFR2	23	4	POPCORN	1104	n/a	n/a	0	0	0
978.936	n/a	REC_WORD	489468	wordpools/wasnorm_wordpool_576.txt	LTP283	ltpFR2	23	4	POTATO	1115	n/a	n/a	0	0	0
979.486	n/a	REC_WORD	489743	wordpools/wasnorm_wordpool_576.txt	LTP283	ltpFR2	23	4	STAKE	1368	n/a	n/a	0	0	0
981.904	n/a	REC_WORD	490952	wordpools/wasnorm_wordpool_576.txt	LTP283	ltpFR2	23	4	SIRLOIN	1311	n/a	n/a	0	0	0
986.18	n/a	REC_WORD	493090	wordpools/wasnorm_wordpool_576.txt	LTP283	ltpFR2	23	4	COCOON	339	n/a	n/a	0	0	0
987.372	n/a	REC_WORD	493686	wordpools/wasnorm_wordpool_576.txt	LTP283	ltpFR2	23	4	STABLE	1363	n/a	n/a	0	0	0
1049.358	n/a	WORD	524679	wordpools/wasnorm_wordpool_576.txt	LTP283	ltpFR2	23	5	PUPPY	1144	n/a	n/a	0	0	0
1052.048	n/a	WORD	526024	wordpools/wasnorm_wordpool_576.txt	LTP283	ltpFR2	23	5	ADULT	8	n/a	n/a	0	0	0
1054.582	n/a	WORD	527291	wordpools/wasnorm_wordpool_576.txt	LTP283	ltpFR2	23	5	PLAQUE	1084	n/a	n/a	0	0	0
1057.334	n/a	WORD	528667	wordpools/wasnorm_wordpool_576.txt	LTP283	ltpFR2	23	5	PAINTING	1005	n/a	n/a	0	0	0
1059.972	n/a	WORD	529986	wordpools/wasnorm_wordpool_576.txt	LTP283	ltpFR2	23	5	STUMP	1396	n/a	n/a	0	0	0
1062.424	n/a	WORD	531212	wordpools/wasnorm_wordpool_576.txt	LTP283	ltpFR2	23	5	NEPTUNE	943	n/a	n/a	0	0	0
1065.026	n/a	WORD	532513	wordpools/wasnorm_wordpool_576.txt	LTP283	ltpFR2	23	5	SEAGULL	1261	n/a	n/a	0	0	0
1067.676	n/a	WORD	533838	wordpools/wasnorm_wordpool_576.txt	LTP283	ltpFR2	23	5	DUST	508	n/a	n/a	0	0	0
1070.346	n/a	WORD	535173	wordpools/wasnorm_wordpool_576.txt	LTP283	ltpFR2	23	5	WAITRESS	1581	n/a	n/a	0	0	0
1073.114	n/a	WORD	536557	wordpools/wasnorm_wordpool_576.txt	LTP283	ltpFR2	23	5	CIRCUS	311	n/a	n/a	0	0	0
1075.7	n/a	WORD	537850	wordpools/wasnorm_wordpool_576.txt	LTP283	ltpFR2	23	5	SATURN	1236	n/a	n/a	0	0	0
1078.202	n/a	WORD	539101	wordpools/wasnorm_wordpool_576.txt	LTP283	ltpFR2	23	5	AIRCRAFT	11	n/a	n/a	0	0	0
1080.888	n/a	WORD	540444	wordpools/wasnorm_wordpool_576.txt	LTP283	ltpFR2	23	5	FIGHTER	564	n/a	n/a	0	0	0
1083.622	n/a	WORD	541811	wordpools/wasnorm_wordpool_576.txt	LTP283	ltpFR2	23	5	NICKEL	950	n/a	n/a	0	0	0
1086.308	n/a	WORD	543154	wordpools/wasnorm_wordpool_576.txt	LTP283	ltpFR2	23	5	LITTER	832	n/a	n/a	0	0	0
1089.112	n/a	WORD	544556	wordpools/wasnorm_wordpool_576.txt	LTP283	ltpFR2	23	5	BASKET	95	n/a	n/a	0	0	0
1091.546	n/a	WORD	545773	wordpools/wasnorm_wordpool_576.txt	LTP283	ltpFR2	23	5	TROMBONE	1508	n/a	n/a	0	0	0
1094.364	n/a	WORD	547182	wordpools/wasnorm_wordpool_576.txt	LTP283	ltpFR2	23	5	LOBSTER	837	n/a	n/a	0	0	0
1096.918	n/a	WORD	548459	wordpools/wasnorm_wordpool_576.txt	LTP283	ltpFR2	23	5	CREEK	404	n/a	n/a	0	0	0
1099.47	n/a	WORD	549735	wordpools/wasnorm_wordpool_576.txt	LTP283	ltpFR2	23	5	CANAL	226	n/a	n/a	0	0	0
1102.004	n/a	WORD	551002	wordpools/wasnorm_wordpool_576.txt	LTP283	ltpFR2	23	5	PLANT	1083	n/a	n/a	0	0	0
1104.556	n/a	WORD	552278	wordpools/wasnorm_wordpool_576.txt	LTP283	ltpFR2	23	5	MAILMAN	858	n/a	n/a	0	0	0
1107.324	n/a	WORD	553662	wordpools/wasnorm_wordpool_576.txt	LTP283	ltpFR2	23	5	ATOM	55	n/a	n/a	0	0	0
1110.078	n/a	WORD	555039	wordpools/wasnorm_wordpool_576.txt	LTP283	ltpFR2	23	5	DAD	433	n/a	n/a	0	0	0
1111.696	n/a	START	555848	n/a	LTP283	ltpFR2	23	n/a	n/a	n/a	7	n/a	n/a	n/a	n/a
1112.586	n/a	DISTRACTOR	556293	n/a	LTP283	ltpFR2	23	5	n/a	n/a	n/a	n/a	0	0	0
1112.596	n/a	PROB	556298	n/a	LTP283	ltpFR2	23	n/a	n/a	n/a	7	10	5	2	3
1114.376	n/a	PROB	557188	n/a	LTP283	ltpFR2	23	n/a	n/a	n/a	7	23	9	8	6
1117.03	n/a	PROB	558515	n/a	LTP283	ltpFR2	23	n/a	n/a	n/a	7	17	7	6	4
1118.496	n/a	PROB	559248	n/a	LTP283	ltpFR2	23	n/a	n/a	n/a	7	17	9	4	4
1120.738	n/a	PROB	560369	n/a	LTP283	ltpFR2	23	n/a	n/a	n/a	7	12	5	1	6
1122.084	n/a	PROB	561042	n/a	LTP283	ltpFR2	23	n/a	n/a	n/a	7	14	2	4	8
1123.5	n/a	PROB	561750	n/a	LTP283	ltpFR2	23	n/a	n/a	n/a	7	18	5	7	6
1125.152	n/a	PROB	562576	n/a	LTP283	ltpFR2	23	n/a	n/a	n/a	7	10	1	6	3
1126.268	n/a	PROB	563134	n/a	LTP283	ltpFR2	23	n/a	n/a	n/a	7	4	1	2	1
1127.47	n/a	PROB	563735	n/a	LTP283	ltpFR2	23	n/a	n/a	n/a	7	19	9	3	7
1128.77	n/a	PROB	564385	n/a	LTP283	ltpFR2	23	n/a	n/a	n/a	7	11	3	2	6
1130.062	n/a	PROB	565031	n/a	LTP283	ltpFR2	23	n/a	n/a	n/a	7	14	6	2	6
1131.562	n/a	PROB	565781	n/a	LTP283	ltpFR2	23	n/a	n/a	n/a	7	8	2	1	5
1132.74	n/a	PROB	566370	n/a	LTP283	ltpFR2	23	n/a	n/a	n/a	7	18	5	5	8
1134.01	n/a	PROB	567005	n/a	LTP283	ltpFR2	23	n/a	n/a	n/a	7	14	8	5	1
1135.56	n/a	STOP	567780	n/a	LTP283	ltpFR2	23	n/a	n/a	n/a	7	n/a	n/a	n/a	n/a
1137.65	n/a	REC_START	568825	n/a	LTP283	ltpFR2	23	5	n/a	n/a	n/a	n/a	0	0	0
1139.882	n/a	REC_WORD	569941	wordpools/wasnorm_wordpool_576.txt	LTP283	ltpFR2	23	5	DAD	433	n/a	n/a	0	0	0
1140.452	n/a	REC_WORD	570226	wordpools/wasnorm_wordpool_576.txt	LTP283	ltpFR2	23	5	ATOM	55	n/a	n/a	0	0	0
1141.18	n/a	REC_WORD	570590	wordpools/wasnorm_wordpool_576.txt	LTP283	ltpFR2	23	5	MAILMAN	858	n/a	n/a	0	0	0
1143.648	n/a	REC_WORD	571824	wordpools/wasnorm_wordpool_576.txt	LTP283	ltpFR2	23	5	CANAL	226	n/a	n/a	0	0	0
1144.206	n/a	REC_WORD	572103	wordpools/wasnorm_wordpool_576.txt	LTP283	ltpFR2	23	5	CREEK	404	n/a	n/a	0	0	0
1150.362	n/a	REC_WORD	575181	wordpools/wasnorm_wordpool_576.txt	LTP283	ltpFR2	23	5	PLAQUE	1084	n/a	n/a	0	0	0
1151.092	n/a	REC_WORD	575546	wordpools/wasnorm_wordpool_576.txt	LTP283	ltpFR2	23	5	PAINTING	1005	n/a	n/a	0	0	0
1152.26	n/a	REC_WORD	576130	wordpools/wasnorm_wordpool_576.txt	LTP283	ltpFR2	23	5	DUST	508	n/a	n/a	0	0	0
1154.776	n/a	REC_WORD	577388	wordpools/wasnorm_wordpool_576.txt	LTP283	ltpFR2	23	5	PUPPY	1144	n/a	n/a	0	0	0
1155.284	n/a	REC_WORD	577642	wordpools/wasnorm_wordpool_576.txt	LTP283	ltpFR2	23	5	ADULT	8	n/a	n/a	0	0	0
1159.038	n/a	REC_WORD_VV	579519	wordpools/wasnorm_wordpool_576.txt	LTP283	ltpFR2	23	5	<>	-1	n/a	n/a	0	0	0
1160.038	n/a	REC_WORD_VV	580019	wordpools/wasnorm_wordpool_576.txt	LTP283	ltpFR2	23	5	<>	-1	n/a	n/a	0	0	0
1161.082	n/a	REC_WORD	580541	wordpools/wasnorm_wordpool_576.txt	LTP283	ltpFR2	23	5	JUPITER	765	n/a	n/a	0	0	0
1161.632	n/a	REC_WORD_VV	580816	wordpools/wasnorm_wordpool_576.txt	LTP283	ltpFR2	23	5	<>	-1	n/a	n/a	0	0	0
1162.416	n/a	REC_WORD	581208	wordpools/wasnorm_wordpool_576.txt	LTP283	ltpFR2	23	5	NEPTUNE	943	n/a	n/a	0	0	0
1162.996	n/a	REC_WORD	581498	wordpools/wasnorm_wordpool_576.txt	LTP283	ltpFR2	23	5	SATURN	1236	n/a	n/a	0	0	0
1166.01	n/a	REC_WORD	583005	wordpools/wasnorm_wordpool_576.txt	LTP283	ltpFR2	23	5	CIRCUS	311	n/a	n/a	0	0	0
1168.33	n/a	REC_WORD	584165	wordpools/wasnorm_wordpool_576.txt	LTP283	ltpFR2	23	5	AIRPLANE	12	n/a	n/a	0	0	0
1168.968	n/a	REC_WORD	584484	wordpools/wasnorm_wordpool_576.txt	LTP283	ltpFR2	23	5	FIGHTER	564	n/a	n/a	0	0	0
1169.836	n/a	REC_WORD	584918	wordpools/wasnorm_wordpool_576.txt	LTP283	ltpFR2	23	5	NICKEL	950	n/a	n/a	0	0	0
1171.414	n/a	REC_WORD	585707	wordpools/wasnorm_wordpool_576.txt	LTP283	ltpFR2	23	5	LITTER	832	n/a	n/a	0	0	0
1175.37	n/a	REC_WORD	587685	wordpools/wasnorm_wordpool_576.txt	LTP283	ltpFR2	23	5	WAITRESS	1581	n/a	n/a	0	0	0
1201.606	n/a	REC_WORD	600803	wordpools/wasnorm_wordpool_576.txt	LTP283	ltpFR2	23	5	PLANT	1083	n/a	n/a	0	0	0
1203.616	n/a	REC_WORD	601808	wordpools/wasnorm_wordpool_576.txt	LTP283	ltpFR2	23	5	LOBSTER	837	n/a	n/a	0	0	0
1228.118	n/a	WORD	614059	wordpools/wasnorm_wordpool_576.txt	LTP283	ltpFR2	23	6	RODENT	1204	n/a	n/a	0	0	0
1230.792	n/a	WORD	615396	wordpools/wasnorm_wordpool_576.txt	LTP283	ltpFR2	23	6	KITTEN	780	n/a	n/a	0	0	0
1233.46	n/a	WORD	616730	wordpools/wasnorm_wordpool_576.txt	LTP283	ltpFR2	23	6	SHEPHERD	1283	n/a	n/a	0	0	0
1235.896	n/a	WORD	617948	wordpools/wasnorm_wordpool_576.txt	LTP283	ltpFR2	23	6	SCRIBBLE	1256	n/a	n/a	0	0	0
1238.682	n/a	WORD	619341	wordpools/wasnorm_wordpool_576.txt	LTP283	ltpFR2	23	6	BELLY	119	n/a	n/a	0	0	0
1241.234	n/a	WORD	620617	wordpools/wasnorm_wordpool_576.txt	LTP283	ltpFR2	23	6	HOUSE	725	n/a	n/a	0	0	0
1244.02	n/a	WORD	622010	wordpools/wasnorm_wordpool_576.txt	LTP283	ltpFR2	23	6	PEOPLE	1046	n/a	n/a	0	0	0
1246.72	n/a	WORD	623360	wordpools/wasnorm_wordpool_576.txt	LTP283	ltpFR2	23	6	STRANGER	1389	n/a	n/a	0	0	0
1249.356	n/a	WORD	624678	wordpools/wasnorm_wordpool_576.txt	LTP283	ltpFR2	23	6	KEYBOARD	774	n/a	n/a	0	0	0
1252.076	n/a	WORD	626038	wordpools/wasnorm_wordpool_576.txt	LTP283	ltpFR2	23	6	BIBLE	124	n/a	n/a	0	0	0
1254.712	n/a	WORD	627356	wordpools/wasnorm_wordpool_576.txt	LTP283	ltpFR2	23	6	SLIDE	1326	n/a	n/a	0	0	0
1257.446	n/a	WORD	628723	wordpools/wasnorm_wordpool_576.txt	LTP283	ltpFR2	23	6	SWATTER	1418	n/a	n/a	0	0	0
1260.248	n/a	WORD	630124	wordpools/wasnorm_wordpool_576.txt	LTP283	ltpFR2	23	6	ANCHOR	21	n/a	n/a	0	0	0
1262.834	n/a	WORD	631417	wordpools/wasnorm_wordpool_576.txt	LTP283	ltpFR2	23	6	SMOG	1330	n/a	n/a	0	0	0
1265.586	n/a	WORD	632793	wordpools/wasnorm_wordpool_576.txt	LTP283	ltpFR2	23	6	CANVAS	234	n/a	n/a	0	0	0
1268.106	n/a	WORD	634053	wordpools/wasnorm_wordpool_576.txt	LTP283	ltpFR2	23	6	ACORN	3	n/a	n/a	0	0	0
1270.574	n/a	WORD	635287	wordpools/wasnorm_wordpool_576.txt	LTP283	ltpFR2	23	6	GODDESS	646	n/a	n/a	0	0	0
1273.044	n/a	WORD	636522	wordpools/wasnorm_wordpool_576.txt	LTP283	ltpFR2	23	6	CLOSET	326	n/a	n/a	0	0	0
1275.644	n/a	WORD	637822	wordpools/wasnorm_wordpool_576.txt	LTP283	ltpFR2	23	6	HANGER	687	n/a	n/a	0	0	0
1278.38	n/a	WORD	639190	wordpools/wasnorm_wordpool_576.txt	LTP283	ltpFR2	23	6	HOSTESS	723	n/a	n/a	0	0	0
1281.05	n/a	WORD	640525	wordpools/wasnorm_wordpool_576.txt	LTP283	ltpFR2	23	6	PASTA	1021	n/a	n/a	0	0	0
1283.834	n/a	WORD	641917	wordpools/wasnorm_wordpool_576.txt	LTP283	ltpFR2	23	6	CORAL	378	n/a	n/a	0	0	0
1286.57	n/a	WORD	643285	wordpools/wasnorm_wordpool_576.txt	LTP283	ltpFR2	23	6	CAMEL	223	n/a	n/a	0	0	0
1289.106	n/a	WORD	644553	wordpools/wasnorm_wordpool_576.txt	LTP283	ltpFR2	23	6	ORGAN	984	n/a	n/a	0	0	0
1290.724	n/a	START	645362	n/a	LTP283	ltpFR2	23	n/a	n/a	n/a	8	n/a	n/a	n/a	n/a
1291.722	n/a	DISTRACTOR	645861	n/a	LTP283	ltpFR2	23	6	n/a	n/a	n/a	n/a	0	0	0
1291.74	n/a	PROB	645870	n/a	LTP283	ltpFR2	23	n/a	n/a	n/a	8	15	7	7	1
1293.238	n/a	PROB	646619	n/a	LTP283	ltpFR2	23	n/a	n/a	n/a	8	10	1	6	3
1294.41	n/a	PROB	647205	n/a	LTP283	ltpFR2	23	n/a	n/a	n/a	8	15	4	8	3
1295.924	n/a	PROB	647962	n/a	LTP283	ltpFR2	23	n/a	n/a	n/a	8	12	1	4	7
1297.24	n/a	PROB	648620	n/a	LTP283	ltpFR2	23	n/a	n/a	n/a	8	17	3	8	6
1298.964	n/a	PROB	649482	n/a	LTP283	ltpFR2	23	n/a	n/a	n/a	8	18	6	4	8
1300.276	n/a	PROB	650138	n/a	LTP283	ltpFR2	23	n/a	n/a	n/a	8	14	7	6	1
1301.628	n/a	PROB	650814	n/a	LTP283	ltpFR2	23	n/a	n/a	n/a	8	17	9	2	6
1303.678	n/a	PROB	651839	n/a	LTP283	ltpFR2	23	n/a	n/a	n/a	8	14	1	8	5
1306.886	n/a	PROB	653443	n/a	LTP283	ltpFR2	23	n/a	n/a	n/a	8	20	9	9	2
1308.3	n/a	PROB	654150	n/a	LTP283	ltpFR2	23	n/a	n/a	n/a	8	12	9	1	2
1309.934	n/a	PROB	654967	n/a	LTP283	ltpFR2	23	n/a	n/a	n/a	8	16	1	6	9
1311.384	n/a	PROB	655692	n/a	LTP283	ltpFR2	23	n/a	n/a	n/a	8	15	4	8	3
1312.89	n/a	PROB	656445	n/a	LTP283	ltpFR2	23	n/a	n/a	n/a	8	18	8	5	5
1314.312	n/a	STOP	657156	n/a	LTP283	ltpFR2	23	n/a	n/a	n/a	8	n/a	n/a	n/a	n/a
1316.628	n/a	REC_START	658314	n/a	LTP283	ltpFR2	23	6	n/a	n/a	n/a	n/a	0	0	0
1318.142	n/a	REC_WORD	659071	wordpools/wasnorm_wordpool_576.txt	LTP283	ltpFR2	23	6	CAMEL	223	n/a	n/a	0	0	0
1318.786	n/a	REC_WORD	659393	wordpools/wasnorm_wordpool_576.txt	LTP283	ltpFR2	23	6	ORGAN	984	n/a	n/a	0	0	0
1319.242	n/a	REC_WORD	659621	wordpools/wasnorm_wordpool_576.txt	LTP283	ltpFR2	23	6	HOSTESS	723	n/a	n/a	0	0	0
1320.242	n/a	REC_WORD_VV	660121	wordpools/wasnorm_wordpool_576.txt	LTP283	ltpFR2	23	6	<>	-1	n/a	n/a	0	0	0
1323.654	n/a	REC_WORD_VV	661827	wordpools/wasnorm_wordpool_576.txt	LTP283	ltpFR2	23	6	<>	-1	n/a	n/a	0	0	0
1328.436	n/a	REC_WORD	664218	wordpools/wasnorm_wordpool_576.txt	LTP283	ltpFR2	23	6	ACORN	3	n/a	n/a	0	0	0
1329.134	n/a	REC_WORD	664567	wordpools/wasnorm_wordpool_576.txt	LTP283	ltpFR2	23	6	CANVAS	234	n/a	n/a	0	0	0
1331.364	n/a	REC_WORD	665682	wordpools/wasnorm_wordpool_576.txt	LTP283	ltpFR2	23	6	ANCHOR	21	n/a	n/a	0	0	0
1331.76	n/a	REC_WORD	665880	wordpools/wasnorm_wordpool_576.txt	LTP283	ltpFR2	23	6	SMOG	1330	n/a	n/a	0	0	0
1335.954	n/a	REC_WORD	667977	wordpools/wasnorm_wordpool_576.txt	LTP283	ltpFR2	23	6	STRANGER	1389	n/a	n/a	0	0	0
1336.954	n/a	REC_WORD_VV	668477	wordpools/wasnorm_wordpool_576.txt	LTP283	ltpFR2	23	6	<>	-1	n/a	n/a	0	0	0
1338.868	n/a	REC_WORD	669434	wordpools/wasnorm_wordpool_576.txt	LTP283	ltpFR2	23	6	PEOPLE	1046	n/a	n/a	0	0	0
1344.0	n/a	REC_WORD	672000	wordpools/wasnorm_wordpool_576.txt	LTP283	ltpFR2	23	6	RODENT	1204	n/a	n/a	0	0	0
1344.574	n/a	REC_WORD	672287	wordpools/wasnorm_wordpool_576.txt	LTP283	ltpFR2	23	6	SCRIBBLE	1256	n/a	n/a	0	0	0
1345.332	n/a	REC_WORD	672666	wordpools/wasnorm_wordpool_576.txt	LTP283	ltpFR2	23	6	BELLY	119	n/a	n/a	0	0	0
1353.024	n/a	REC_WORD	676512	wordpools/wasnorm_wordpool_576.txt	LTP283	ltpFR2	23	6	GODDESS	646	n/a	n/a	0	0	0
1407.096	n/a	WORD	703548	wordpools/wasnorm_wordpool_576.txt	LTP283	ltpFR2	23	7	DAGGER	434	n/a	n/a	0	0	0
1409.752	n/a	WORD	704876	wordpools/wasnorm_wordpool_576.txt	LTP283	ltpFR2	23	7	SHELTER	1282	n/a	n/a	0	0	0
1412.388	n/a	WORD	706194	wordpools/wasnorm_wordpool_576.txt	LTP283	ltpFR2	23	7	BLUEPRINT	142	n/a	n/a	0	0	0
1415.174	n/a	WORD	707587	wordpools/wasnorm_wordpool_576.txt	LTP283	ltpFR2	23	7	DRAGON	492	n/a	n/a	0	0	0
1417.742	n/a	WORD	708871	wordpools/wasnorm_wordpool_576.txt	LTP283	ltpFR2	23	7	ATTIRE	57	n/a	n/a	0	0	0
1420.512	n/a	WORD	710256	wordpools/wasnorm_wordpool_576.txt	LTP283	ltpFR2	23	7	BEETLE	116	n/a	n/a	0	0	0
1423.23	n/a	WORD	711615	wordpools/wasnorm_wordpool_576.txt	LTP283	ltpFR2	23	7	FIREPLACE	570	n/a	n/a	0	0	0
1425.882	n/a	WORD	712941	wordpools/wasnorm_wordpool_576.txt	LTP283	ltpFR2	23	7	PLANET	1082	n/a	n/a	0	0	0
1428.484	n/a	WORD	714242	wordpools/wasnorm_wordpool_576.txt	LTP283	ltpFR2	23	7	OZONE	996	n/a	n/a	0	0	0
1431.088	n/a	WORD	715544	wordpools/wasnorm_wordpool_576.txt	LTP283	ltpFR2	23	7	SWIMMER	1420	n/a	n/a	0	0	0
1433.854	n/a	WORD	716927	wordpools/wasnorm_wordpool_576.txt	LTP283	ltpFR2	23	7	FLIPPER	580	n/a	n/a	0	0	0
1436.374	n/a	WORD	718187	wordpools/wasnorm_wordpool_576.txt	LTP283	ltpFR2	23	7	BUSH	202	n/a	n/a	0	0	0
1438.994	n/a	WORD	719497	wordpools/wasnorm_wordpool_576.txt	LTP283	ltpFR2	23	7	CHIPMUNK	304	n/a	n/a	0	0	0
1441.428	n/a	WORD	720714	wordpools/wasnorm_wordpool_576.txt	LTP283	ltpFR2	23	7	BEAVER	109	n/a	n/a	0	0	0
1444.212	n/a	WORD	722106	wordpools/wasnorm_wordpool_576.txt	LTP283	ltpFR2	23	7	COD	340	n/a	n/a	0	0	0
1446.782	n/a	WORD	723391	wordpools/wasnorm_wordpool_576.txt	LTP283	ltpFR2	23	7	TWISTER	1530	n/a	n/a	0	0	0
1449.25	n/a	WORD	724625	wordpools/wasnorm_wordpool_576.txt	LTP283	ltpFR2	23	7	NAPKIN	937	n/a	n/a	0	0	0
1451.954	n/a	WORD	725977	wordpools/wasnorm_wordpool_576.txt	LTP283	ltpFR2	23	7	CRAB	397	n/a	n/a	0	0	0
1454.772	n/a	WORD	727386	wordpools/wasnorm_wordpool_576.txt	LTP283	ltpFR2	23	7	SHAMPOO	1274	n/a	n/a	0	0	0
1457.208	n/a	WORD	728604	wordpools/wasnorm_wordpool_576.txt	LTP283	ltpFR2	23	7	TOURIST	1488	n/a	n/a	0	0	0
1459.96	n/a	WORD	729980	wordpools/wasnorm_wordpool_576.txt	LTP283	ltpFR2	23	7	LAUNDRY	803	n/a	n/a	0	0	0
1462.662	n/a	WORD	731331	wordpools/wasnorm_wordpool_576.txt	LTP283	ltpFR2	23	7	SUSPECT	1415	n/a	n/a	0	0	0
1465.114	n/a	WORD	732557	wordpools/wasnorm_wordpool_576.txt	LTP283	ltpFR2	23	7	PARCEL	1012	n/a	n/a	0	0	0
1467.632	n/a	WORD	733816	wordpools/wasnorm_wordpool_576.txt	LTP283	ltpFR2	23	7	PICTURE	1061	n/a	n/a	0	0	0
1469.25	n/a	START	734625	n/a	LTP283	ltpFR2	23	n/a	n/a	n/a	9	n/a	n/a	n/a	n/a
1470.3	n/a	DISTRACTOR	735150	n/a	LTP283	ltpFR2	23	7	n/a	n/a	n/a	n/a	0	0	0
1470.318	n/a	PROB	735159	n/a	LTP283	ltpFR2	23	n/a	n/a	n/a	9	10	1	6	3
1472.02	n/a	PROB	736010	n/a	LTP283	ltpFR2	23	n/a	n/a	n/a	9	17	9	3	5
1473.666	n/a	PROB	736833	n/a	LTP283	ltpFR2	23	n/a	n/a	n/a	9	13	5	2	6
1475.516	n/a	PROB	737758	n/a	LTP283	ltpFR2	23	n/a	n/a	n/a	9	21	6	6	9
1477.502	n/a	PROB	738751	n/a	LTP283	ltpFR2	23	n/a	n/a	n/a	9	18	9	3	6
1478.976	n/a	PROB	739488	n/a	LTP283	ltpFR2	23	n/a	n/a	n/a	9	15	5	6	4
1480.438	n/a	PROB	740219	n/a	LTP283	ltpFR2	23	n/a	n/a	n/a	9	13	5	6	2
1482.108	n/a	PROB	741054	n/a	LTP283	ltpFR2	23	n/a	n/a	n/a	9	19	5	8	6
1484.58	n/a	PROB	742290	n/a	LTP283	ltpFR2	23	n/a	n/a	n/a	9	18	4	6	8
1485.978	n/a	PROB	742989	n/a	LTP283	ltpFR2	23	n/a	n/a	n/a	9	7	2	3	2
1487.71	n/a	PROB	743855	n/a	LTP283	ltpFR2	23	n/a	n/a	n/a	9	4	1	1	2
1488.846	n/a	PROB	744423	n/a	LTP283	ltpFR2	23	n/a	n/a	n/a	9	8	2	2	4
1490.23	n/a	PROB	745115	n/a	LTP283	ltpFR2	23	n/a	n/a	n/a	9	21	9	7	5
1492.04	n/a	STOP	746020	n/a	LTP283	ltpFR2	23	n/a	n/a	n/a	9	n/a	n/a	n/a	n/a
1495.156	n/a	REC_START	747578	n/a	LTP283	ltpFR2	23	7	n/a	n/a	n/a	n/a	0	0	0
1496.818	n/a	REC_WORD	748409	wordpools/wasnorm_wordpool_576.txt	LTP283	ltpFR2	23	7	SUSPECT	1415	n/a	n/a	0	0	0
1498.042	n/a	REC_WORD	749021	wordpools/wasnorm_wordpool_576.txt	LTP283	ltpFR2	23	7	PARCEL	1012	n/a	n/a	0	0	0
1500.228	n/a	REC_WORD	750114	wordpools/wasnorm_wordpool_576.txt	LTP283	ltpFR2	23	7	PICTURE	1061	n/a	n/a	0	0	0
1521.214	n/a	REC_WORD	760607	wordpools/wasnorm_wordpool_576.txt	LTP283	ltpFR2	23	7	DAGGER	434	n/a	n/a	0	0	0
1522.186	n/a	REC_WORD	761093	wordpools/wasnorm_wordpool_576.txt	LTP283	ltpFR2	23	7	SHELTER	1282	n/a	n/a	0	0	0
1523.396	n/a	REC_WORD	761698	wordpools/wasnorm_wordpool_576.txt	LTP283	ltpFR2	23	7	BLUEPRINT	142	n/a	n/a	0	0	0
1525.886	n/a	REC_WORD	762943	wordpools/wasnorm_wordpool_576.txt	LTP283	ltpFR2	23	7	TWISTER	1530	n/a	n/a	0	0	0
1526.978	n/a	REC_WORD	763489	wordpools/wasnorm_wordpool_576.txt	LTP283	ltpFR2	23	7	COD	340	n/a	n/a	0	0	0
1530.87	n/a	REC_WORD	765435	wordpools/wasnorm_wordpool_576.txt	LTP283	ltpFR2	23	7	NAPKIN	937	n/a	n/a	0	0	0
1537.592	n/a	REC_WORD	768796	wordpools/wasnorm_wordpool_576.txt	LTP283	ltpFR2	23	7	DRAGON	492	n/a	n/a	0	0	0
1538.486	n/a	REC_WORD	769243	wordpools/wasnorm_wordpool_576.txt	LTP283	ltpFR2	23	7	ATTIRE	57	n/a	n/a	0	0	0
1542.052	n/a	REC_WORD	771026	wordpools/wasnorm_wordpool_576.txt	LTP283	ltpFR2	23	7	BEETLE	116	n/a	n/a	0	0	0
1547.228	n/a	REC_WORD	773614	wordpools/wasnorm_wordpool_576.txt	LTP283	ltpFR2	23	7	CRAB	397	n/a	n/a	0	0	0
1585.612	n/a	DISTRACTOR	792806	n/a	LTP283	ltpFR2	23	8	n/a	n/a	n/a	n/a	0	0	0
1585.612	n/a	START	792806	n/a	LTP283	ltpFR2	23	n/a	n/a	n/a	10	n/a	n/a	n/a	n/a
1585.644	n/a	PROB	792822	n/a	LTP283	ltpFR2	23	n/a	n/a	n/a	10	10	6	1	3
1586.908	n/a	PROB	793454	n/a	LTP283	ltpFR2	23	n/a	n/a	n/a	10	13	8	1	4
1588.876	n/a	PROB	794438	n/a	LTP283	ltpFR2	23	n/a	n/a	n/a	10	12	3	4	5
1590.41	n/a	PROB	795205	n/a	LTP283	ltpFR2	23	n/a	n/a	n/a	10	15	3	5	7
1591.796	n/a	PROB	795898	n/a	LTP283	ltpFR2	23	n/a	n/a	n/a	10	23	9	5	9
1593.878	n/a	PROB	796939	n/a	LTP283	ltpFR2	23	n/a	n/a	n/a	10	14	4	4	6
1595.33	n/a	PROB	797665	n/a	LTP283	ltpFR2	23	n/a	n/a	n/a	10	24	9	9	6
1596.966	n/a	PROB	798483	n/a	LTP283	ltpFR2	23	n/a	n/a	n/a	10	20	3	9	8
1598.666	n/a	PROB	799333	n/a	LTP283	ltpFR2	23	n/a	n/a	n/a	10	12	5	4	3
1600.152	n/a	PROB	800076	n/a	LTP283	ltpFR2	23	n/a	n/a	n/a	10	10	2	2	6
1601.368	n/a	PROB	800684	n/a	LTP283	ltpFR2	23	n/a	n/a	n/a	10	24	9	9	6
1602.886	n/a	PROB	801443	n/a	LTP283	ltpFR2	23	n/a	n/a	n/a	10	15	1	7	7
1604.188	n/a	PROB	802094	n/a	LTP283	ltpFR2	23	n/a	n/a	n/a	10	16	4	9	3
1605.772	n/a	PROB	802886	n/a	LTP283	ltpFR2	23	n/a	n/a	n/a	10	19	6	7	6
1608.142	n/a	STOP	804071	n/a	LTP283	ltpFR2	23	n/a	n/a	n/a	10	n/a	n/a	n/a	n/a
1610.448	n/a	WORD	805224	wordpools/wasnorm_wordpool_576.txt	LTP283	ltpFR2	23	8	THIMBLE	1458	n/a	n/a	0	0	0
1613.034	n/a	WORD	806517	wordpools/wasnorm_wordpool_576.txt	LTP283	ltpFR2	23	8	CARROT	249	n/a	n/a	0	0	0
1615.552	n/a	WORD	807776	wordpools/wasnorm_wordpool_576.txt	LTP283	ltpFR2	23	8	DESSERT	453	n/a	n/a	0	0	0
1617.988	n/a	WORD	808994	wordpools/wasnorm_wordpool_576.txt	LTP283	ltpFR2	23	8	BANDIT	81	n/a	n/a	0	0	0
1620.504	n/a	WORD	810252	wordpools/wasnorm_wordpool_576.txt	LTP283	ltpFR2	23	8	HOSTAGE	722	n/a	n/a	0	0	0
1623.274	n/a	WORD	811637	wordpools/wasnorm_wordpool_576.txt	LTP283	ltpFR2	23	8	BRIDGE	174	n/a	n/a	0	0	0
1626.096	n/a	WORD	813048	wordpools/wasnorm_wordpool_576.txt	LTP283	ltpFR2	23	8	OCEAN	970	n/a	n/a	0	0	0
1628.764	n/a	WORD	814382	wordpools/wasnorm_wordpool_576.txt	LTP283	ltpFR2	23	8	HATCHET	691	n/a	n/a	0	0	0
1631.482	n/a	WORD	815741	wordpools/wasnorm_wordpool_576.txt	LTP283	ltpFR2	23	8	TREASURE	1500	n/a	n/a	0	0	0
1634.05	n/a	WORD	817025	wordpools/wasnorm_wordpool_576.txt	LTP283	ltpFR2	23	8	BRACELET	163	n/a	n/a	0	0	0
1636.502	n/a	WORD	818251	wordpools/wasnorm_wordpool_576.txt	LTP283	ltpFR2	23	8	COBRA	336	n/a	n/a	0	0	0
1639.072	n/a	WORD	819536	wordpools/wasnorm_wordpool_576.txt	LTP283	ltpFR2	23	8	CONSOLE	364	n/a	n/a	0	0	0
1641.556	n/a	WORD	820778	wordpools/wasnorm_wordpool_576.txt	LTP283	ltpFR2	23	8	BUTLER	204	n/a	n/a	0	0	0
1644.094	n/a	WORD	822047	wordpools/wasnorm_wordpool_576.txt	LTP283	ltpFR2	23	8	QUILT	1151	n/a	n/a	0	0	0
1646.526	n/a	WORD	823263	wordpools/wasnorm_wordpool_576.txt	LTP283	ltpFR2	23	8	COTTAGE	384	n/a	n/a	0	0	0
1649.262	n/a	WORD	824631	wordpools/wasnorm_wordpool_576.txt	LTP283	ltpFR2	23	8	PARROT	1015	n/a	n/a	0	0	0
1651.714	n/a	WORD	825857	wordpools/wasnorm_wordpool_576.txt	LTP283	ltpFR2	23	8	SHEARS	1276	n/a	n/a	0	0	0
1654.5	n/a	WORD	827250	wordpools/wasnorm_wordpool_576.txt	LTP283	ltpFR2	23	8	PERFUME	1049	n/a	n/a	0	0	0
1657.088	n/a	WORD	828544	wordpools/wasnorm_wordpool_576.txt	LTP283	ltpFR2	23	8	ISLAND	745	n/a	n/a	0	0	0
1659.554	n/a	WORD	829777	wordpools/wasnorm_wordpool_576.txt	LTP283	ltpFR2	23	8	PLUTO	1092	n/a	n/a	0	0	0
1662.256	n/a	WORD	831128	wordpools/wasnorm_wordpool_576.txt	LTP283	ltpFR2	23	8	TROPHY	1509	n/a	n/a	0	0	0
1664.892	n/a	WORD	832446	wordpools/wasnorm_wordpool_576.txt	LTP283	ltpFR2	23	8	BENCH	121	n/a	n/a	0	0	0
1667.394	n/a	WORD	833697	wordpools/wasnorm_wordpool_576.txt	LTP283	ltpFR2	23	8	SOFA	1342	n/a	n/a	0	0	0
1669.962	n/a	WORD	834981	wordpools/wasnorm_wordpool_576.txt	LTP283	ltpFR2	23	8	COOKIE	374	n/a	n/a	0	0	0
1671.582	n/a	START	835791	n/a	LTP283	ltpFR2	23	n/a	n/a	n/a	11	n/a	n/a	n/a	n/a
1672.436	n/a	DISTRACTOR	836218	n/a	LTP283	ltpFR2	23	8	n/a	n/a	n/a	n/a	0	0	0
1672.448	n/a	PROB	836224	n/a	LTP283	ltpFR2	23	n/a	n/a	n/a	11	21	5	8	8
1674.702	n/a	PROB	837351	n/a	LTP283	ltpFR2	23	n/a	n/a	n/a	11	9	1	5	3
1676.002	n/a	PROB	838001	n/a	LTP283	ltpFR2	23	n/a	n/a	n/a	11	18	3	6	9
1677.302	n/a	PROB	838651	n/a	LTP283	ltpFR2	23	n/a	n/a	n/a	11	22	9	5	8
1681.134	n/a	PROB	840567	n/a	LTP283	ltpFR2	23	n/a	n/a	n/a	11	20	9	8	3
1682.622	n/a	PROB	841311	n/a	LTP283	ltpFR2	23	n/a	n/a	n/a	11	10	1	3	6
1684.112	n/a	PROB	842056	n/a	LTP283	ltpFR2	23	n/a	n/a	n/a	11	19	6	7	6
1685.552	n/a	PROB	842776	n/a	LTP283	ltpFR2	23	n/a	n/a	n/a	11	21	4	9	8
1687.072	n/a	PROB	843536	n/a	LTP283	ltpFR2	23	n/a	n/a	n/a	11	14	6	5	3
1689.206	n/a	PROB	844603	n/a	LTP283	ltpFR2	23	n/a	n/a	n/a	11	17	3	9	5
1690.824	n/a	PROB	845412	n/a	LTP283	ltpFR2	23	n/a	n/a	n/a	11	8	1	2	5
1692.158	n/a	PROB	846079	n/a	LTP283	ltpFR2	23	n/a	n/a	n/a	11	20	7	8	5
1693.51	n/a	PROB	846755	n/a	LTP283	ltpFR2	23	n/a	n/a	n/a	11	11	5	1	5
1694.608	n/a	STOP	847304	n/a	LTP283	ltpFR2	23	n/a	n/a	n/a	11	n/a	n/a	n/a	n/a
1697.38	n/a	REC_START	848690	n/a	LTP283	ltpFR2	23	8	n/a	n/a	n/a	n/a	0	0	0
1702.238	n/a	REC_WORD	851119	wordpools/wasnorm_wordpool_576.txt	LTP283	ltpFR2	23	8	ISLAND	745	n/a	n/a	0	0	0
1702.794	n/a	REC_WORD	851397	wordpools/wasnorm_wordpool_576.txt	LTP283	ltpFR2	23	8	SOFA	1342	n/a	n/a	0	0	0
1703.362	n/a	REC_WORD	851681	wordpools/wasnorm_wordpool_576.txt	LTP283	ltpFR2	23	8	COUCH	386	n/a	n/a	0	0	0
1704.142	n/a	REC_WORD	852071	wordpools/wasnorm_wordpool_576.txt	LTP283	ltpFR2	23	8	TREASURE	1500	n/a	n/a	0	0	0
1712.496	n/a	REC_WORD	856248	wordpools/wasnorm_wordpool_576.txt	LTP283	ltpFR2	23	8	OCEAN	970	n/a	n/a	0	0	0
1713.022	n/a	REC_WORD	856511	wordpools/wasnorm_wordpool_576.txt	LTP283	ltpFR2	23	8	BRIDGE	174	n/a	n/a	0	0	0
1756.108	n/a	REC_WORD	878054	wordpools/wasnorm_wordpool_576.txt	LTP283	ltpFR2	23	8	CARROT	249	n/a	n/a	0	0	0
1756.78	n/a	REC_WORD	878390	wordpools/wasnorm_wordpool_576.txt	LTP283	ltpFR2	23	8	THIMBLE	1458	n/a	n/a	0	0	0
1759.704	n/a	REC_WORD	879852	wordpools/wasnorm_wordpool_576.txt	LTP283	ltpFR2	23	8	BANDIT	81	n/a	n/a	0	0	0
1763.572	n/a	REC_WORD	881786	wordpools/wasnorm_wordpool_576.txt	LTP283	ltpFR2	23	8	HOSTAGE	722	n/a	n/a	0	0	0
1773.93	n/a	REST_REWET	886965	n/a	LTP283	ltpFR2	23	8	n/a	n/a	n/a	n/a	0	0	0
2173.352	n/a	DISTRACTOR	1086676	n/a	LTP283	ltpFR2	23	9	n/a	n/a	n/a	n/a	0	0	0
2173.352	n/a	START	1086676	n/a	LTP283	ltpFR2	23	n/a	n/a	n/a	12	n/a	n/a	n/a	n/a
2173.384	n/a	PROB	1086692	n/a	LTP283	ltpFR2	23	n/a	n/a	n/a	12	16	7	3	6
2175.48	n/a	PROB	1087740	n/a	LTP283	ltpFR2	23	n/a	n/a	n/a	12	9	1	7	1
2176.798	n/a	PROB	1088399	n/a	LTP283	ltpFR2	23	n/a	n/a	n/a	12	18	3	8	7
2178.168	n/a	PROB	1089084	n/a	LTP283	ltpFR2	23	n/a	n/a	n/a	12	14	5	7	2
2180.07	n/a	PROB	1090035	n/a	LTP283	ltpFR2	23	n/a	n/a	n/a	12	6	4	1	1
2181.222	n/a	PROB	1090611	n/a	LTP283	ltpFR2	23	n/a	n/a	n/a	12	10	6	1	3
2182.47	n/a	PROB	1091235	n/a	LTP283	ltpFR2	23	n/a	n/a	n/a	12	16	8	1	7
2184.072	n/a	PROB	1092036	n/a	LTP283	ltpFR2	23	n/a	n/a	n/a	12	12	3	7	2
2185.34	n/a	PROB	1092670	n/a	LTP283	ltpFR2	23	n/a	n/a	n/a	12	8	4	2	2
2186.54	n/a	PROB	1093270	n/a	LTP283	ltpFR2	23	n/a	n/a	n/a	12	14	5	4	5
2187.73	n/a	PROB	1093865	n/a	LTP283	ltpFR2	23	n/a	n/a	n/a	12	16	7	7	2
2188.916	n/a	PROB	1094458	n/a	LTP283	ltpFR2	23	n/a	n/a	n/a	12	12	1	4	7
2190.228	n/a	PROB	1095114	n/a	LTP283	ltpFR2	23	n/a	n/a	n/a	12	10	6	1	3
2191.244	n/a	PROB	1095622	n/a	LTP283	ltpFR2	23	n/a	n/a	n/a	12	12	6	4	2
2192.328	n/a	PROB	1096164	n/a	LTP283	ltpFR2	23	n/a	n/a	n/a	12	16	6	7	3
2193.652	n/a	PROB	1096826	n/a	LTP283	ltpFR2	23	n/a	n/a	n/a	12	16	1	8	7
2195.68	n/a	PROB	1097840	n/a	LTP283	ltpFR2	23	n/a	n/a	n/a	12	15	3	7	5
2196.878	n/a	STOP	1098439	n/a	LTP283	ltpFR2	23	n/a	n/a	n/a	12	n/a	n/a	n/a	n/a
2198.374	n/a	WORD	1099187	wordpools/wasnorm_wordpool_576.txt	LTP283	ltpFR2	23	9	CHARCOAL	281	n/a	n/a	0	0	0
2200.89	n/a	WORD	1100445	wordpools/wasnorm_wordpool_576.txt	LTP283	ltpFR2	23	9	RIBBON	1189	n/a	n/a	0	0	0
2203.658	n/a	WORD	1101829	wordpools/wasnorm_wordpool_576.txt	LTP283	ltpFR2	23	9	WAREHOUSE	1588	n/a	n/a	0	0	0
2206.396	n/a	WORD	1103198	wordpools/wasnorm_wordpool_576.txt	LTP283	ltpFR2	23	9	PRAIRIE	1118	n/a	n/a	0	0	0
2208.914	n/a	WORD	1104457	wordpools/wasnorm_wordpool_576.txt	LTP283	ltpFR2	23	9	GRASS	655	n/a	n/a	0	0	0
2211.582	n/a	WORD	1105791	wordpools/wasnorm_wordpool_576.txt	LTP283	ltpFR2	23	9	BRUNETTE	181	n/a	n/a	0	0	0
2214.402	n/a	WORD	1107201	wordpools/wasnorm_wordpool_576.txt	LTP283	ltpFR2	23	9	MONEY	908	n/a	n/a	0	0	0
2217.17	n/a	WORD	1108585	wordpools/wasnorm_wordpool_576.txt	LTP283	ltpFR2	23	9	MEADOW	881	n/a	n/a	0	0	0
2219.672	n/a	WORD	1109836	wordpools/wasnorm_wordpool_576.txt	LTP283	ltpFR2	23	9	YARD	1630	n/a	n/a	0	0	0
2222.424	n/a	WORD	1111212	wordpools/wasnorm_wordpool_576.txt	LTP283	ltpFR2	23	9	CASHEW	253	n/a	n/a	0	0	0
2225.044	n/a	WORD	1112522	wordpools/wasnorm_wordpool_576.txt	LTP283	ltpFR2	23	9	THREAD	1460	n/a	n/a	0	0	0
2227.612	n/a	WORD	1113806	wordpools/wasnorm_wordpool_576.txt	LTP283	ltpFR2	23	9	BLOSSOM	138	n/a	n/a	0	0	0
2230.164	n/a	WORD	1115082	wordpools/wasnorm_wordpool_576.txt	LTP283	ltpFR2	23	9	CACTUS	215	n/a	n/a	0	0	0
2232.816	n/a	WORD	1116408	wordpools/wasnorm_wordpool_576.txt	LTP283	ltpFR2	23	9	BACON	67	n/a	n/a	0	0	0
2235.302	n/a	WORD	1117651	wordpools/wasnorm_wordpool_576.txt	LTP283	ltpFR2	23	9	SUNSET	1408	n/a	n/a	0	0	0
2238.122	n/a	WORD	1119061	wordpools/wasnorm_wordpool_576.txt	LTP283	ltpFR2	23	9	CRYSTAL	418	n/a	n/a	0	0	0
2240.872	n/a	WORD	1120436	wordpools/wasnorm_wordpool_576.txt	LTP283	ltpFR2	23	9	TOOTHPASTE	1483	n/a	n/a	0	0	0
2243.474	n/a	WORD	1121737	wordpools/wasnorm_wordpool_576.txt	LTP283	ltpFR2	23	9	SHOELACE	1289	n/a	n/a	0	0	0
2246.096	n/a	WORD	1123048	wordpools/wasnorm_wordpool_576.txt	LTP283	ltpFR2	23	9	SNAKE	1333	n/a	n/a	0	0	0
2248.596	n/a	WORD	1124298	wordpools/wasnorm_wordpool_576.txt	LTP283	ltpFR2	23	9	JEANS	752	n/a	n/a	0	0	0
2251.28	n/a	WORD	1125640	wordpools/wasnorm_wordpool_576.txt	LTP283	ltpFR2	23	9	ELBOW	520	n/a	n/a	0	0	0
2253.934	n/a	WORD	1126967	wordpools/wasnorm_wordpool_576.txt	LTP283	ltpFR2	23	9	PITCHFORK	1078	n/a	n/a	0	0	0
2256.436	n/a	WORD	1128218	wordpools/wasnorm_wordpool_576.txt	LTP283	ltpFR2	23	9	ANGEL	22	n/a	n/a	0	0	0
2259.038	n/a	WORD	1129519	wordpools/wasnorm_wordpool_576.txt	LTP283	ltpFR2	23	9	CLIPPERS	324	n/a	n/a	0	0	0
2260.656	n/a	START	1130328	n/a	LTP283	ltpFR2	23	n/a	n/a	n/a	13	n/a	n/a	n/a	n/a
2261.696	n/a	DISTRACTOR	1130848	n/a	LTP283	ltpFR2	23	9	n/a	n/a	n/a	n/a	0	0	0
2261.706	n/a	PROB	1130853	n/a	LTP283	ltpFR2	23	n/a	n/a	n/a	13	16	6	8	2
2263.436	n/a	PROB	1131718	n/a	LTP283	ltpFR2	23	n/a	n/a	n/a	13	17	7	2	8
2265.044	n/a	PROB	1132522	n/a	LTP283	ltpFR2	23	n/a	n/a	n/a	13	8	2	3	3
2266.41	n/a	PROB	1133205	n/a	LTP283	ltpFR2	23	n/a	n/a	n/a	13	20	9	4	7
2267.64	n/a	PROB	1133820	n/a	LTP283	ltpFR2	23	n/a	n/a	n/a	13	19	6	7	6
2269.126	n/a	PROB	1134563	n/a	LTP283	ltpFR2	23	n/a	n/a	n/a	13	11	1	5	5
2270.158	n/a	PROB	1135079	n/a	LTP283	ltpFR2	23	n/a	n/a	n/a	13	19	3	9	7
2271.658	n/a	PROB	1135829	n/a	LTP283	ltpFR2	23	n/a	n/a	n/a	13	23	7	7	9
2273.01	n/a	PROB	1136505	n/a	LTP283	ltpFR2	23	n/a	n/a	n/a	13	16	8	1	7
2274.2	n/a	PROB	1137100	n/a	LTP283	ltpFR2	23	n/a	n/a	n/a	13	13	7	3	3
2275.28	n/a	PROB	1137640	n/a	LTP283	ltpFR2	23	n/a	n/a	n/a	13	12	1	8	3
2276.352	n/a	PROB	1138176	n/a	LTP283	ltpFR2	23	n/a	n/a	n/a	13	10	3	6	1
2277.432	n/a	PROB	1138716	n/a	LTP283	ltpFR2	23	n/a	n/a	n/a	13	7	3	3	1
2278.62	n/a	PROB	1139310	n/a	LTP283	ltpFR2	23	n/a	n/a	n/a	13	9	4	2	3
2281.118	n/a	PROB	1140559	n/a	LTP283	ltpFR2	23	n/a	n/a	n/a	13	19	2	9	8
2283.036	n/a	PROB	1141518	n/a	LTP283	ltpFR2	23	n/a	n/a	n/a	13	21	8	4	9
2284.538	n/a	STOP	1142269	n/a	LTP283	ltpFR2	23	n/a	n/a	n/a	13	n/a	n/a	n/a	n/a
2286.506	n/a	REC_START	1143253	n/a	LTP283	ltpFR2	23	9	n/a	n/a	n/a	n/a	0	0	0
2288.192	n/a	REC_WORD	1144096	wordpools/wasnorm_wordpool_576.txt	LTP283	ltpFR2	23	9	CLIPPERS	324	n/a	n/a	0	0	0
2289.018	n/a	REC_WORD	1144509	wordpools/wasnorm_wordpool_576.txt	LTP283	ltpFR2	23	9	ANGEL	22	n/a	n/a	0	0	0
2291.974	n/a	REC_WORD	1145987	wordpools/wasnorm_wordpool_576.txt	LTP283	ltpFR2	23	9	CHARCOAL	281	n/a	n/a	0	0	0
2292.504	n/a	REC_WORD	1146252	wordpools/wasnorm_wordpool_576.txt	LTP283	ltpFR2	23	9	RIBBON	1189	n/a	n/a	0	0	0
2293.066	n/a	REC_WORD	1146533	wordpools/wasnorm_wordpool_576.txt	LTP283	ltpFR2	23	9	THREAD	1460	n/a	n/a	0	0	0
2296.474	n/a	REC_WORD	1148237	wordpools/wasnorm_wordpool_576.txt	LTP283	ltpFR2	23	9	TOOTHPASTE	1483	n/a	n/a	0	0	0
2297.022	n/a	REC_WORD	1148511	wordpools/wasnorm_wordpool_576.txt	LTP283	ltpFR2	23	9	SHOELACE	1289	n/a	n/a	0	0	0
2301.476	n/a	REC_WORD	1150738	wordpools/wasnorm_wordpool_576.txt	LTP283	ltpFR2	23	9	PRAIRIE	1118	n/a	n/a	0	0	0
2302.052	n/a	REC_WORD	1151026	wordpools/wasnorm_wordpool_576.txt	LTP283	ltpFR2	23	9	GRASS	655	n/a	n/a	0	0	0
2302.624	n/a	REC_WORD	1151312	wordpools/wasnorm_wordpool_576.txt	LTP283	ltpFR2	23	9	MEADOW	881	n/a	n/a	0	0	0
2303.154	n/a	REC_WORD	1151577	wordpools/wasnorm_wordpool_576.txt	LTP283	ltpFR2	23	9	YARD	1630	n/a	n/a	0	0	0
2307.132	n/a	REC_WORD	1153566	wordpools/wasnorm_wordpool_576.txt	LTP283	ltpFR2	23	9	MONEY	908	n/a	n/a	0	0	0
2307.7	n/a	REC_WORD	1153850	wordpools/wasnorm_wordpool_576.txt	LTP283	ltpFR2	23	9	BRUNETTE	181	n/a	n/a	0	0	0
2315.808	n/a	REC_WORD	1157904	wordpools/wasnorm_wordpool_576.txt	LTP283	ltpFR2	23	9	CASHEW	253	n/a	n/a	0	0	0
2318.35	n/a	REC_WORD	1159175	wordpools/wasnorm_wordpool_576.txt	LTP283	ltpFR2	23	9	BLOSSOM	138	n/a	n/a	0	0	0
2325.908	n/a	REC_WORD	1162954	wordpools/wasnorm_wordpool_576.txt	LTP283	ltpFR2	23	9	ELBOW	520	n/a	n/a	0	0	0
2326.356	n/a	REC_WORD	1163178	wordpools/wasnorm_wordpool_576.txt	LTP283	ltpFR2	23	9	SNAKE	1333	n/a	n/a	0	0	0
2327.12	n/a	REC_WORD	1163560	wordpools/wasnorm_wordpool_576.txt	LTP283	ltpFR2	23	9	CRYSTAL	418	n/a	n/a	0	0	0
2327.728	n/a	REC_WORD	1163864	wordpools/wasnorm_wordpool_576.txt	LTP283	ltpFR2	23	9	SUNSET	1408	n/a	n/a	0	0	0
2331.016	n/a	REC_WORD	1165508	wordpools/wasnorm_wordpool_576.txt	LTP283	ltpFR2	23	9	JEANS	752	n/a	n/a	0	0	0
2334.554	n/a	REC_WORD	1167277	wordpools/wasnorm_wordpool_576.txt	LTP283	ltpFR2	23	9	PITCHFORK	1078	n/a	n/a	0	0	0
2349.892	n/a	REC_WORD	1174946	wordpools/wasnorm_wordpool_576.txt	LTP283	ltpFR2	23	9	BACON	67	n/a	n/a	0	0	0
2376.98	n/a	WORD	1188490	wordpools/wasnorm_wordpool_576.txt	LTP283	ltpFR2	23	10	COUNTY	389	n/a	n/a	0	0	0
2379.568	n/a	WORD	1189784	wordpools/wasnorm_wordpool_576.txt	LTP283	ltpFR2	23	10	KEEPER	769	n/a	n/a	0	0	0
2382.004	n/a	WORD	1191002	wordpools/wasnorm_wordpool_576.txt	LTP283	ltpFR2	23	10	BRICK	172	n/a	n/a	0	0	0
2384.672	n/a	WORD	1192336	wordpools/wasnorm_wordpool_576.txt	LTP283	ltpFR2	23	10	NOVEL	960	n/a	n/a	0	0	0
2387.192	n/a	WORD	1193596	wordpools/wasnorm_wordpool_576.txt	LTP283	ltpFR2	23	10	SUBURB	1399	n/a	n/a	0	0	0
2389.994	n/a	WORD	1194997	wordpools/wasnorm_wordpool_576.txt	LTP283	ltpFR2	23	10	ARMY	39	n/a	n/a	0	0	0
2392.562	n/a	WORD	1196281	wordpools/wasnorm_wordpool_576.txt	LTP283	ltpFR2	23	10	COLONEL	348	n/a	n/a	0	0	0
2395.232	n/a	WORD	1197616	wordpools/wasnorm_wordpool_576.txt	LTP283	ltpFR2	23	10	THIEF	1456	n/a	n/a	0	0	0
2397.718	n/a	WORD	1198859	wordpools/wasnorm_wordpool_576.txt	LTP283	ltpFR2	23	10	BANK	83	n/a	n/a	0	0	0
2400.402	n/a	WORD	1200201	wordpools/wasnorm_wordpool_576.txt	LTP283	ltpFR2	23	10	BUCKLE	185	n/a	n/a	0	0	0
2402.886	n/a	WORD	1201443	wordpools/wasnorm_wordpool_576.txt	LTP283	ltpFR2	23	10	TOOTHBRUSH	1482	n/a	n/a	0	0	0
2405.556	n/a	WORD	1202778	wordpools/wasnorm_wordpool_576.txt	LTP283	ltpFR2	23	10	PORPOISE	1109	n/a	n/a	0	0	0
2408.292	n/a	WORD	1204146	wordpools/wasnorm_wordpool_576.txt	LTP283	ltpFR2	23	10	CUSTARD	429	n/a	n/a	0	0	0
2411.044	n/a	WORD	1205522	wordpools/wasnorm_wordpool_576.txt	LTP283	ltpFR2	23	10	BOUQUET	157	n/a	n/a	0	0	0
2413.562	n/a	WORD	1206781	wordpools/wasnorm_wordpool_576.txt	LTP283	ltpFR2	23	10	PASSAGE	1019	n/a	n/a	0	0	0
2416.164	n/a	WORD	1208082	wordpools/wasnorm_wordpool_576.txt	LTP283	ltpFR2	23	10	RAZOR	1171	n/a	n/a	0	0	0
2418.6	n/a	WORD	1209300	wordpools/wasnorm_wordpool_576.txt	LTP283	ltpFR2	23	10	JOURNAL	760	n/a	n/a	0	0	0
2421.252	n/a	WORD	1210626	wordpools/wasnorm_wordpool_576.txt	LTP283	ltpFR2	23	10	GARAGE	621	n/a	n/a	0	0	0
2424.054	n/a	WORD	1212027	wordpools/wasnorm_wordpool_576.txt	LTP283	ltpFR2	23	10	SPIDER	1351	n/a	n/a	0	0	0
2426.824	n/a	WORD	1213412	wordpools/wasnorm_wordpool_576.txt	LTP283	ltpFR2	23	10	CHECKERS	285	n/a	n/a	0	0	0
2429.642	n/a	WORD	1214821	wordpools/wasnorm_wordpool_576.txt	LTP283	ltpFR2	23	10	MOTHER	921	n/a	n/a	0	0	0
2432.41	n/a	WORD	1216205	wordpools/wasnorm_wordpool_576.txt	LTP283	ltpFR2	23	10	FRANCE	601	n/a	n/a	0	0	0
2434.862	n/a	WORD	1217431	wordpools/wasnorm_wordpool_576.txt	LTP283	ltpFR2	23	10	JELLO	754	n/a	n/a	0	0	0
2437.598	n/a	WORD	1218799	wordpools/wasnorm_wordpool_576.txt	LTP283	ltpFR2	23	10	LETTER	813	n/a	n/a	0	0	0
2439.216	n/a	START	1219608	n/a	LTP283	ltpFR2	23	n/a	n/a	n/a	14	n/a	n/a	n/a	n/a
2440.392	n/a	DISTRACTOR	1220196	n/a	LTP283	ltpFR2	23	10	n/a	n/a	n/a	n/a	0	0	0
2440.4	n/a	PROB	1220200	n/a	LTP283	ltpFR2	23	n/a	n/a	n/a	14	22	8	8	6
2442.532	n/a	PROB	1221266	n/a	LTP283	ltpFR2	23	n/a	n/a	n/a	14	22	9	7	6
2444.288	n/a	PROB	1222144	n/a	LTP283	ltpFR2	23	n/a	n/a	n/a	14	20	9	2	9
2445.798	n/a	PROB	1222899	n/a	LTP283	ltpFR2	23	n/a	n/a	n/a	14	8	2	2	4
2447.086	n/a	PROB	1223543	n/a	LTP283	ltpFR2	23	n/a	n/a	n/a	14	10	6	2	2
2448.206	n/a	PROB	1224103	n/a	LTP283	ltpFR2	23	n/a	n/a	n/a	14	19	1	9	9
2449.474	n/a	PROB	1224737	n/a	LTP283	ltpFR2	23	n/a	n/a	n/a	14	20	2	9	9
2450.91	n/a	PROB	1225455	n/a	LTP283	ltpFR2	23	n/a	n/a	n/a	14	19	5	8	6
2452.744	n/a	PROB	1226372	n/a	LTP283	ltpFR2	23	n/a	n/a	n/a	14	14	2	7	5
2454.124	n/a	PROB	1227062	n/a	LTP283	ltpFR2	23	n/a	n/a	n/a	14	22	9	4	9
2455.792	n/a	PROB	1227896	n/a	LTP283	ltpFR2	23	n/a	n/a	n/a	14	13	4	2	7
2457.998	n/a	PROB	1228999	n/a	LTP283	ltpFR2	23	n/a	n/a	n/a	14	9	3	5	1
2459.316	n/a	PROB	1229658	n/a	LTP283	ltpFR2	23	n/a	n/a	n/a	14	14	5	7	2
2461.994	n/a	STOP	1230997	n/a	LTP283	ltpFR2	23	n/a	n/a	n/a	14	n/a	n/a	n/a	n/a
2465.054	n/a	REC_START	1232527	n/a	LTP283	ltpFR2	23	10	n/a	n/a	n/a	n/a	0	0	0
2466.208	n/a	REC_WORD	1233104	wordpools/wasnorm_wordpool_576.txt	LTP283	ltpFR2	23	10	COUNTY	389	n/a	n/a	0	0	0
2466.918	n/a	REC_WORD	1233459	wordpools/wasnorm_wordpool_576.txt	LTP283	ltpFR2	23	10	KEEPER	769	n/a	n/a	0	0	0
2467.716	n/a	REC_WORD	1233858	wordpools/wasnorm_wordpool_576.txt	LTP283	ltpFR2	23	10	BRICK	172	n/a	n/a	0	0	0
2468.378	n/a	REC_WORD	1234189	wordpools/wasnorm_wordpool_576.txt	LTP283	ltpFR2	23	10	NOVEL	960	n/a	n/a	0	0	0
2469.144	n/a	REC_WORD	1234572	wordpools/wasnorm_wordpool_576.txt	LTP283	ltpFR2	23	10	JOURNAL	760	n/a	n/a	0	0	0
2471.986	n/a	REC_WORD	1235993	wordpools/wasnorm_wordpool_576.txt	LTP283	ltpFR2	23	10	BANK	83	n/a	n/a	0	0	0
2472.526	n/a	REC_WORD	1236263	wordpools/wasnorm_wordpool_576.txt	LTP283	ltpFR2	23	10	THIEF	1456	n/a	n/a	0	0	0
2480.064	n/a	REC_WORD	1240032	wordpools/wasnorm_wordpool_576.txt	LTP283	ltpFR2	23	10	PORPOISE	1109	n/a	n/a	0	0	0
2480.814	n/a	REC_WORD	1240407	wordpools/wasnorm_wordpool_576.txt	LTP283	ltpFR2	23	10	CUSTARD	429	n/a	n/a	0	0	0
2481.66	n/a	REC_WORD	1240830	wordpools/wasnorm_wordpool_576.txt	LTP283	ltpFR2	23	10	PUDDING	1139	n/a	n/a	0	0	0
2482.264	n/a	REC_WORD	1241132	wordpools/wasnorm_wordpool_576.txt	LTP283	ltpFR2	23	10	JELLO	754	n/a	n/a	0	0	0
2488.846	n/a	REC_WORD	1244423	wordpools/wasnorm_wordpool_576.txt	LTP283	ltpFR2	23	10	BOUQUET	157	n/a	n/a	0	0	0
2489.504	n/a	REC_WORD	1244752	wordpools/wasnorm_wordpool_576.txt	LTP283	ltpFR2	23	10	RAZOR	1171	n/a	n/a	0	0	0
2493.314	n/a	REC_WORD	1246657	wordpools/wasnorm_wordpool_576.txt	LTP283	ltpFR2	23	10	MOTHER	921	n/a	n/a	0	0	0
2493.868	n/a	REC_WORD	1246934	wordpools/wasnorm_wordpool_576.txt	LTP283	ltpFR2	23	10	FRANCE	601	n/a	n/a	0	0	0
2494.552	n/a	REC_WORD	1247276	wordpools/wasnorm_wordpool_576.txt	LTP283	ltpFR2	23	10	LETTER	813	n/a	n/a	0	0	0
2555.528	n/a	DISTRACTOR	1277764	n/a	LTP283	ltpFR2	23	11	n/a	n/a	n/a	n/a	0	0	0
2555.528	n/a	START	1277764	n/a	LTP283	ltpFR2	23	n/a	n/a	n/a	15	n/a	n/a	n/a	n/a
2555.56	n/a	PROB	1277780	n/a	LTP283	ltpFR2	23	n/a	n/a	n/a	15	18	5	8	5
2557.112	n/a	PROB	1278556	n/a	LTP283	ltpFR2	23	n/a	n/a	n/a	15	12	3	6	3
2558.842	n/a	PROB	1279421	n/a	LTP283	ltpFR2	23	n/a	n/a	n/a	15	12	7	2	3
2560.278	n/a	PROB	1280139	n/a	LTP283	ltpFR2	23	n/a	n/a	n/a	15	13	8	2	3
2562.232	n/a	PROB	1281116	n/a	LTP283	ltpFR2	23	n/a	n/a	n/a	15	21	8	5	8
2564.002	n/a	PROB	1282001	n/a	LTP283	ltpFR2	23	n/a	n/a	n/a	15	18	4	8	6
2565.312	n/a	PROB	1282656	n/a	LTP283	ltpFR2	23	n/a	n/a	n/a	15	14	1	5	8
2566.864	n/a	PROB	1283432	n/a	LTP283	ltpFR2	23	n/a	n/a	n/a	15	10	4	4	2
2568.186	n/a	PROB	1284093	n/a	LTP283	ltpFR2	23	n/a	n/a	n/a	15	10	5	1	4
2569.372	n/a	PROB	1284686	n/a	LTP283	ltpFR2	23	n/a	n/a	n/a	15	23	9	6	8
2572.354	n/a	PROB	1286177	n/a	LTP283	ltpFR2	23	n/a	n/a	n/a	15	11	3	6	2
2573.988	n/a	PROB	1286994	n/a	LTP283	ltpFR2	23	n/a	n/a	n/a	15	16	3	4	9
2575.31	n/a	PROB	1287655	n/a	LTP283	ltpFR2	23	n/a	n/a	n/a	15	10	5	3	2
2576.76	n/a	PROB	1288380	n/a	LTP283	ltpFR2	23	n/a	n/a	n/a	15	19	6	4	9
2579.526	n/a	STOP	1289763	n/a	LTP283	ltpFR2	23	n/a	n/a	n/a	15	n/a	n/a	n/a	n/a
2580.396	n/a	WORD	1290198	wordpools/wasnorm_wordpool_576.txt	LTP283	ltpFR2	23	11	SHINGLE	1285	n/a	n/a	0	0	0
2582.95	n/a	WORD	1291475	wordpools/wasnorm_wordpool_576.txt	LTP283	ltpFR2	23	11	MILDEW	893	n/a	n/a	0	0	0
2585.768	n/a	WORD	1292884	wordpools/wasnorm_wordpool_576.txt	LTP283	ltpFR2	23	11	SUITCASE	1403	n/a	n/a	0	0	0
2588.52	n/a	WORD	1294260	wordpools/wasnorm_wordpool_576.txt	LTP283	ltpFR2	23	11	HAWK	692	n/a	n/a	0	0	0
2591.206	n/a	WORD	1295603	wordpools/wasnorm_wordpool_576.txt	LTP283	ltpFR2	23	11	SPINACH	1352	n/a	n/a	0	0	0
2593.806	n/a	WORD	1296903	wordpools/wasnorm_wordpool_576.txt	LTP283	ltpFR2	23	11	ROOSTER	1209	n/a	n/a	0	0	0
2596.408	n/a	WORD	1298204	wordpools/wasnorm_wordpool_576.txt	LTP283	ltpFR2	23	11	DASHBOARD	441	n/a	n/a	0	0	0
2599.196	n/a	WORD	1299598	wordpools/wasnorm_wordpool_576.txt	LTP283	ltpFR2	23	11	BUGGY	188	n/a	n/a	0	0	0
2601.664	n/a	WORD	1300832	wordpools/wasnorm_wordpool_576.txt	LTP283	ltpFR2	23	11	FROG	608	n/a	n/a	0	0	0
2604.432	n/a	WORD	1302216	wordpools/wasnorm_wordpool_576.txt	LTP283	ltpFR2	23	11	BASEBALL	93	n/a	n/a	0	0	0
2606.902	n/a	WORD	1303451	wordpools/wasnorm_wordpool_576.txt	LTP283	ltpFR2	23	11	GLOBE	641	n/a	n/a	0	0	0
2609.436	n/a	WORD	1304718	wordpools/wasnorm_wordpool_576.txt	LTP283	ltpFR2	23	11	ATLAS	53	n/a	n/a	0	0	0
2611.99	n/a	WORD	1305995	wordpools/wasnorm_wordpool_576.txt	LTP283	ltpFR2	23	11	JUNGLE	764	n/a	n/a	0	0	0
2614.54	n/a	WORD	1307270	wordpools/wasnorm_wordpool_576.txt	LTP283	ltpFR2	23	11	RESORT	1186	n/a	n/a	0	0	0
2617.192	n/a	WORD	1308596	wordpools/wasnorm_wordpool_576.txt	LTP283	ltpFR2	23	11	CAPTIVE	240	n/a	n/a	0	0	0
2619.76	n/a	WORD	1309880	wordpools/wasnorm_wordpool_576.txt	LTP283	ltpFR2	23	11	VICTIM	1562	n/a	n/a	0	0	0
2622.346	n/a	WORD	1311173	wordpools/wasnorm_wordpool_576.txt	LTP283	ltpFR2	23	11	SUITE	1404	n/a	n/a	0	0	0
2624.882	n/a	WORD	1312441	wordpools/wasnorm_wordpool_576.txt	LTP283	ltpFR2	23	11	MISSILE	900	n/a	n/a	0	0	0
2627.534	n/a	WORD	1313767	wordpools/wasnorm_wordpool_576.txt	LTP283	ltpFR2	23	11	CABLE	213	n/a	n/a	0	0	0
2630.038	n/a	WORD	1315019	wordpools/wasnorm_wordpool_576.txt	LTP283	ltpFR2	23	11	FEATHER	557	n/a	n/a	0	0	0
2632.504	n/a	WORD	1316252	wordpools/wasnorm_wordpool_576.txt	LTP283	ltpFR2	23	11	BRIDE	173	n/a	n/a	0	0	0
2635.306	n/a	WORD	1317653	wordpools/wasnorm_wordpool_576.txt	LTP283	ltpFR2	23	11	CARPET	247	n/a	n/a	0	0	0
2638.06	n/a	WORD	1319030	wordpools/wasnorm_wordpool_576.txt	LTP283	ltpFR2	23	11	SAILOR	1223	n/a	n/a	0	0	0
2640.612	n/a	WORD	1320306	wordpools/wasnorm_wordpool_576.txt	LTP283	ltpFR2	23	11	CAPE	237	n/a	n/a	0	0	0
2642.23	n/a	START	1321115	n/a	LTP283	ltpFR2	23	n/a	n/a	n/a	16	n/a	n/a	n/a	n/a
2643.106	n/a	DISTRACTOR	1321553	n/a	LTP283	ltpFR2	23	11	n/a	n/a	n/a	n/a	0	0	0
2643.114	n/a	PROB	1321557	n/a	LTP283	ltpFR2	23	n/a	n/a	n/a	16	11	3	2	6
2644.778	n/a	PROB	1322389	n/a	LTP283	ltpFR2	23	n/a	n/a	n/a	16	19	9	9	1
2646.012	n/a	PROB	1323006	n/a	LTP283	ltpFR2	23	n/a	n/a	n/a	16	17	5	6	6
2647.668	n/a	PROB	1323834	n/a	LTP283	ltpFR2	23	n/a	n/a	n/a	16	16	3	8	5
2649.132	n/a	PROB	1324566	n/a	LTP283	ltpFR2	23	n/a	n/a	n/a	16	19	6	6	7
2650.772	n/a	PROB	1325386	n/a	LTP283	ltpFR2	23	n/a	n/a	n/a	16	18	9	3	6
2652.016	n/a	PROB	1326008	n/a	LTP283	ltpFR2	23	n/a	n/a	n/a	16	19	9	1	9
2653.234	n/a	PROB	1326617	n/a	LTP283	ltpFR2	23	n/a	n/a	n/a	16	23	9	6	8
2655.954	n/a	PROB	1327977	n/a	LTP283	ltpFR2	23	n/a	n/a	n/a	16	16	6	1	9
2657.526	n/a	PROB	1328763	n/a	LTP283	ltpFR2	23	n/a	n/a	n/a	16	18	9	4	5
2658.872	n/a	PROB	1329436	n/a	LTP283	ltpFR2	23	n/a	n/a	n/a	16	20	5	4	7
2660.24	n/a	PROB	1330120	n/a	LTP283	ltpFR2	23	n/a	n/a	n/a	16	12	8	1	3
2661.774	n/a	PROB	1330887	n/a	LTP283	ltpFR2	23	n/a	n/a	n/a	16	7	4	2	1
2662.944	n/a	PROB	1331472	n/a	LTP283	ltpFR2	23	n/a	n/a	n/a	16	17	6	2	9
2664.644	n/a	PROB	1332322	n/a	LTP283	ltpFR2	23	n/a	n/a	n/a	16	13	9	3	1
2665.636	n/a	STOP	1332818	n/a	LTP283	ltpFR2	23	n/a	n/a	n/a	16	n/a	n/a	n/a	n/a
2668.186	n/a	REC_START	1334093	n/a	LTP283	ltpFR2	23	11	n/a	n/a	n/a	n/a	0	0	0
2670.374	n/a	REC_WORD	1335187	wordpools/wasnorm_wordpool_576.txt	LTP283	ltpFR2	23	11	CAPE	237	n/a	n/a	0	0	0
2671.374	n/a	REC_WORD_VV	1335687	wordpools/wasnorm_wordpool_576.txt	LTP283	ltpFR2	23	11	<>	-1	n/a	n/a	0	0	0
2671.774	n/a	REC_WORD_VV	1335887	wordpools/wasnorm_wordpool_576.txt	LTP283	ltpFR2	23	11	<>	-1	n/a	n/a	0	0	0
2674.506	n/a	REC_WORD	1337253	wordpools/wasnorm_wordpool_576.txt	LTP283	ltpFR2	23	11	SHINGLE	1285	n/a	n/a	0	0	0
2675.156	n/a	REC_WORD	1337578	wordpools/wasnorm_wordpool_576.txt	LTP283	ltpFR2	23	11	MILDEW	893	n/a	n/a	0	0	0
2677.03	n/a	REC_WORD	1338515	wordpools/wasnorm_wordpool_576.txt	LTP283	ltpFR2	23	11	SUITCASE	1403	n/a	n/a	0	0	0
2678.03	n/a	REC_WORD_VV	1339015	wordpools/wasnorm_wordpool_576.txt	LTP283	ltpFR2	23	11	<>	-1	n/a	n/a	0	0	0
2680.358	n/a	REC_WORD	1340179	wordpools/wasnorm_wordpool_576.txt	LTP283	ltpFR2	23	11	ROOSTER	1209	n/a	n/a	0	0	0
2680.868	n/a	REC_WORD	1340434	wordpools/wasnorm_wordpool_576.txt	LTP283	ltpFR2	23	11	HAWK	692	n/a	n/a	0	0	0
2682.878	n/a	REC_WORD	1341439	wordpools/wasnorm_wordpool_576.txt	LTP283	ltpFR2	23	11	FROG	608	n/a	n/a	0	0	0
2687.804	n/a	REC_WORD	1343902	wordpools/wasnorm_wordpool_576.txt	LTP283	ltpFR2	23	11	DASHBOARD	441	n/a	n/a	0	0	0
2688.438	n/a	REC_WORD	1344219	wordpools/wasnorm_wordpool_576.txt	LTP283	ltpFR2	23	11	BUGGY	188	n/a	n/a	0	0	0
2690.114	n/a	REC_WORD_VV	1345057	wordpools/wasnorm_wordpool_576.txt	LTP283	ltpFR2	23	11	<>	-1	n/a	n/a	0	0	0
2690.754	n/a	REC_WORD_VV	1345377	wordpools/wasnorm_wordpool_576.txt	LTP283	ltpFR2	23	11	<>	-1	n/a	n/a	0	0	0
2691.092	n/a	REC_WORD	1345546	wordpools/wasnorm_wordpool_576.txt	LTP283	ltpFR2	23	11	JUNGLE	764	n/a	n/a	0	0	0
2692.052	n/a	REC_WORD	1346026	wordpools/wasnorm_wordpool_576.txt	LTP283	ltpFR2	23	11	LODGE	839	n/a	n/a	0	0	0
2698.568	n/a	REC_WORD	1349284	wordpools/wasnorm_wordpool_576.txt	LTP283	ltpFR2	23	11	CAPTIVE	240	n/a	n/a	0	0	0
2699.1	n/a	REC_WORD	1349550	wordpools/wasnorm_wordpool_576.txt	LTP283	ltpFR2	23	11	VICTIM	1562	n/a	n/a	0	0	0
2699.71	n/a	REC_WORD	1349855	wordpools/wasnorm_wordpool_576.txt	LTP283	ltpFR2	23	11	FEATHER	557	n/a	n/a	0	0	0
2710.692	n/a	REC_WORD	1355346	wordpools/wasnorm_wordpool_576.txt	LTP283	ltpFR2	23	11	SAILOR	1223	n/a	n/a	0	0	0
2712.814	n/a	REC_WORD	1356407	wordpools/wasnorm_wordpool_576.txt	LTP283	ltpFR2	23	11	BRIDE	173	n/a	n/a	0	0	0
2714.612	n/a	REC_WORD	1357306	wordpools/wasnorm_wordpool_576.txt	LTP283	ltpFR2	23	11	SUITE	1404	n/a	n/a	0	0	0
2730.426	n/a	REC_WORD	1365213	wordpools/wasnorm_wordpool_576.txt	LTP283	ltpFR2	23	11	FEATHER	557	n/a	n/a	0	0	0
2758.652	n/a	WORD	1379326	wordpools/wasnorm_wordpool_576.txt	LTP283	ltpFR2	23	12	SWAMP	1416	n/a	n/a	0	0	0
2761.492	n/a	WORD	1380746	wordpools/wasnorm_wordpool_576.txt	LTP283	ltpFR2	23	12	PICNIC	1060	n/a	n/a	0	0	0
2764.114	n/a	WORD	1382057	wordpools/wasnorm_wordpool_576.txt	LTP283	ltpFR2	23	12	TORCH	1484	n/a	n/a	0	0	0
2766.578	n/a	WORD	1383289	wordpools/wasnorm_wordpool_576.txt	LTP283	ltpFR2	23	12	MAILBOX	857	n/a	n/a	0	0	0
2769.25	n/a	WORD	1384625	wordpools/wasnorm_wordpool_576.txt	LTP283	ltpFR2	23	12	GRAVEL	659	n/a	n/a	0	0	0
2771.85	n/a	WORD	1385925	wordpools/wasnorm_wordpool_576.txt	LTP283	ltpFR2	23	12	DORM	488	n/a	n/a	0	0	0
2774.652	n/a	WORD	1387326	wordpools/wasnorm_wordpool_576.txt	LTP283	ltpFR2	23	12	CRICKET	408	n/a	n/a	0	0	0
2777.338	n/a	WORD	1388669	wordpools/wasnorm_wordpool_576.txt	LTP283	ltpFR2	23	12	BUGLE	189	n/a	n/a	0	0	0
2780.092	n/a	WORD	1390046	wordpools/wasnorm_wordpool_576.txt	LTP283	ltpFR2	23	12	YACHT	1629	n/a	n/a	0	0	0
2782.592	n/a	WORD	1391296	wordpools/wasnorm_wordpool_576.txt	LTP283	ltpFR2	23	12	PORCH	1106	n/a	n/a	0	0	0
2785.062	n/a	WORD	1392531	wordpools/wasnorm_wordpool_576.txt	LTP283	ltpFR2	23	12	MANSION	864	n/a	n/a	0	0	0
2787.798	n/a	WORD	1393899	wordpools/wasnorm_wordpool_576.txt	LTP283	ltpFR2	23	12	MUSHROOM	934	n/a	n/a	0	0	0
2790.6	n/a	WORD	1395300	wordpools/wasnorm_wordpool_576.txt	LTP283	ltpFR2	23	12	VESSEL	1558	n/a	n/a	0	0	0
2793.352	n/a	WORD	1396676	wordpools/wasnorm_wordpool_576.txt	LTP283	ltpFR2	23	12	DOCK	477	n/a	n/a	0	0	0
2796.072	n/a	WORD	1398036	wordpools/wasnorm_wordpool_576.txt	LTP283	ltpFR2	23	12	PLAID	1080	n/a	n/a	0	0	0
2798.672	n/a	WORD	1399336	wordpools/wasnorm_wordpool_576.txt	LTP283	ltpFR2	23	12	VILLAGE	1566	n/a	n/a	0	0	0
2801.226	n/a	WORD	1400613	wordpools/wasnorm_wordpool_576.txt	LTP283	ltpFR2	23	12	ATTIC	56	n/a	n/a	0	0	0
2803.994	n/a	WORD	1401997	wordpools/wasnorm_wordpool_576.txt	LTP283	ltpFR2	23	12	LAPEL	800	n/a	n/a	0	0	0
2806.746	n/a	WORD	1403373	wordpools/wasnorm_wordpool_576.txt	LTP283	ltpFR2	23	12	PLASTER	1085	n/a	n/a	0	0	0
2809.182	n/a	WORD	1404591	wordpools/wasnorm_wordpool_576.txt	LTP283	ltpFR2	23	12	MEAT	883	n/a	n/a	0	0	0
2812.0	n/a	WORD	1406000	wordpools/wasnorm_wordpool_576.txt	LTP283	ltpFR2	23	12	CABOOSE	214	n/a	n/a	0	0	0
2814.652	n/a	WORD	1407326	wordpools/wasnorm_wordpool_576.txt	LTP283	ltpFR2	23	12	VIKING	1565	n/a	n/a	0	0	0
2817.122	n/a	WORD	1408561	wordpools/wasnorm_wordpool_576.txt	LTP283	ltpFR2	23	12	ARTIST	43	n/a	n/a	0	0	0
2819.674	n/a	WORD	1409837	wordpools/wasnorm_wordpool_576.txt	LTP283	ltpFR2	23	12	WATER	1594	n/a	n/a	0	0	0
2821.292	n/a	START	1410646	n/a	LTP283	ltpFR2	23	n/a	n/a	n/a	17	n/a	n/a	n/a	n/a
2822.368	n/a	DISTRACTOR	1411184	n/a	LTP283	ltpFR2	23	12	n/a	n/a	n/a	n/a	0	0	0
2822.376	n/a	PROB	1411188	n/a	LTP283	ltpFR2	23	n/a	n/a	n/a	17	14	4	6	4
2823.922	n/a	PROB	1411961	n/a	LTP283	ltpFR2	23	n/a	n/a	n/a	17	14	2	8	4
2825.222	n/a	PROB	1412611	n/a	LTP283	ltpFR2	23	n/a	n/a	n/a	17	11	4	2	5
2827.06	n/a	PROB	1413530	n/a	LTP283	ltpFR2	23	n/a	n/a	n/a	17	7	2	2	3
2828.676	n/a	PROB	1414338	n/a	LTP283	ltpFR2	23	n/a	n/a	n/a	17	17	1	9	7
2829.86	n/a	PROB	1414930	n/a	LTP283	ltpFR2	23	n/a	n/a	n/a	17	19	9	4	6
2831.116	n/a	PROB	1415558	n/a	LTP283	ltpFR2	23	n/a	n/a	n/a	17	16	4	7	5
2833.112	n/a	PROB	1416556	n/a	LTP283	ltpFR2	23	n/a	n/a	n/a	17	17	8	6	3
2834.648	n/a	PROB	1417324	n/a	LTP283	ltpFR2	23	n/a	n/a	n/a	17	17	6	6	5
2836.148	n/a	PROB	1418074	n/a	LTP283	ltpFR2	23	n/a	n/a	n/a	17	18	7	8	3
2837.55	n/a	PROB	1418775	n/a	LTP283	ltpFR2	23	n/a	n/a	n/a	17	16	8	5	3
2839.24	n/a	PROB	1419620	n/a	LTP283	ltpFR2	23	n/a	n/a	n/a	17	14	6	7	1
2840.518	n/a	PROB	1420259	n/a	LTP283	ltpFR2	23	n/a	n/a	n/a	17	23	8	9	6
2841.79	n/a	PROB	1420895	n/a	LTP283	ltpFR2	23	n/a	n/a	n/a	17	8	2	5	1
2842.858	n/a	PROB	1421429	n/a	LTP283	ltpFR2	23	n/a	n/a	n/a	17	11	2	3	6
2844.61	n/a	STOP	1422305	n/a	LTP283	ltpFR2	23	n/a	n/a	n/a	17	n/a	n/a	n/a	n/a
2847.13	n/a	REC_START	1423565	n/a	LTP283	ltpFR2	23	12	n/a	n/a	n/a	n/a	0	0	0
2848.16	n/a	REC_WORD	1424080	wordpools/wasnorm_wordpool_576.txt	LTP283	ltpFR2	23	12	ARTIST	43	n/a	n/a	0	0	0
2848.998	n/a	REC_WORD	1424499	wordpools/wasnorm_wordpool_576.txt	LTP283	ltpFR2	23	12	WATER	1594	n/a	n/a	0	0	0
2851.432	n/a	REC_WORD	1425716	wordpools/wasnorm_wordpool_576.txt	LTP283	ltpFR2	23	12	PICNIC	1060	n/a	n/a	0	0	0
2851.81	n/a	REC_WORD	1425905	wordpools/wasnorm_wordpool_576.txt	LTP283	ltpFR2	23	12	SWAMP	1416	n/a	n/a	0	0	0
2852.424	n/a	REC_WORD	1426212	wordpools/wasnorm_wordpool_576.txt	LTP283	ltpFR2	23	12	GRAVEL	659	n/a	n/a	0	0	0
2853.078	n/a	REC_WORD	1426539	wordpools/wasnorm_wordpool_576.txt	LTP283	ltpFR2	23	12	MAILBOX	857	n/a	n/a	0	0	0
2853.66	n/a	REC_WORD	1426830	wordpools/wasnorm_wordpool_576.txt	LTP283	ltpFR2	23	12	TORCH	1484	n/a	n/a	0	0	0
2856.648	n/a	REC_WORD	1428324	wordpools/wasnorm_wordpool_576.txt	LTP283	ltpFR2	23	12	MANSION	864	n/a	n/a	0	0	0
2858.006	n/a	REC_WORD	1429003	wordpools/wasnorm_wordpool_576.txt	LTP283	ltpFR2	23	12	YACHT	1629	n/a	n/a	0	0	0
2858.468	n/a	REC_WORD	1429234	wordpools/wasnorm_wordpool_576.txt	LTP283	ltpFR2	23	12	VESSEL	1558	n/a	n/a	0	0	0
2859.874	n/a	REC_WORD	1429937	wordpools/wasnorm_wordpool_576.txt	LTP283	ltpFR2	23	12	PORCH	1106	n/a	n/a	0	0	0
2860.688	n/a	REC_WORD	1430344	wordpools/wasnorm_wordpool_576.txt	LTP283	ltpFR2	23	12	DECK	443	n/a	n/a	0	0	0
2862.274	n/a	REC_WORD	1431137	wordpools/wasnorm_wordpool_576.txt	LTP283	ltpFR2	23	12	ATTIC	56	n/a	n/a	0	0	0
2862.678	n/a	REC_WORD	1431339	wordpools/wasnorm_wordpool_576.txt	LTP283	ltpFR2	23	12	LAPEL	800	n/a	n/a	0	0	0
2864.52	n/a	REC_WORD	1432260	wordpools/wasnorm_wordpool_576.txt	LTP283	ltpFR2	23	12	MEAT	883	n/a	n/a	0	0	0
2869.156	n/a	REC_WORD	1434578	wordpools/wasnorm_wordpool_576.txt	LTP283	ltpFR2	23	12	VILLAGE	1566	n/a	n/a	0	0	0
2870.104	n/a	REC_WORD	1435052	wordpools/wasnorm_wordpool_576.txt	LTP283	ltpFR2	23	12	PLAID	1080	n/a	n/a	0	0	0
2876.242	n/a	REC_WORD	1438121	wordpools/wasnorm_wordpool_576.txt	LTP283	ltpFR2	23	12	VIKING	1565	n/a	n/a	0	0	0
2876.706	n/a	REC_WORD	1438353	wordpools/wasnorm_wordpool_576.txt	LTP283	ltpFR2	23	12	CABOOSE	214	n/a	n/a	0	0	0
2937.586	n/a	DISTRACTOR	1468793	n/a	LTP283	ltpFR2	23	13	n/a	n/a	n/a	n/a	0	0	0
2937.586	n/a	START	1468793	n/a	LTP283	ltpFR2	23	n/a	n/a	n/a	18	n/a	n/a	n/a	n/a
2937.602	n/a	PROB	1468801	n/a	LTP283	ltpFR2	23	n/a	n/a	n/a	18	10	4	4	2
2938.87	n/a	PROB	1469435	n/a	LTP283	ltpFR2	23	n/a	n/a	n/a	18	10	7	1	2
2940.072	n/a	PROB	1470036	n/a	LTP283	ltpFR2	23	n/a	n/a	n/a	18	16	3	4	9
2941.438	n/a	PROB	1470719	n/a	LTP283	ltpFR2	23	n/a	n/a	n/a	18	20	4	9	7
2942.69	n/a	PROB	1471345	n/a	LTP283	ltpFR2	23	n/a	n/a	n/a	18	12	2	5	5
2944.076	n/a	PROB	1472038	n/a	LTP283	ltpFR2	23	n/a	n/a	n/a	18	12	2	8	2
2945.304	n/a	PROB	1472652	n/a	LTP283	ltpFR2	23	n/a	n/a	n/a	18	12	4	5	3
2946.994	n/a	PROB	1473497	n/a	LTP283	ltpFR2	23	n/a	n/a	n/a	18	10	4	5	1
2948.172	n/a	PROB	1474086	n/a	LTP283	ltpFR2	23	n/a	n/a	n/a	18	14	2	8	4
2949.574	n/a	PROB	1474787	n/a	LTP283	ltpFR2	23	n/a	n/a	n/a	18	7	2	2	3
2950.828	n/a	PROB	1475414	n/a	LTP283	ltpFR2	23	n/a	n/a	n/a	18	16	1	9	6
2952.064	n/a	PROB	1476032	n/a	LTP283	ltpFR2	23	n/a	n/a	n/a	18	9	6	2	1
2953.248	n/a	PROB	1476624	n/a	LTP283	ltpFR2	23	n/a	n/a	n/a	18	9	4	2	3
2955.236	n/a	PROB	1477618	n/a	LTP283	ltpFR2	23	n/a	n/a	n/a	18	18	7	5	6
2956.896	n/a	PROB	1478448	n/a	LTP283	ltpFR2	23	n/a	n/a	n/a	18	15	5	2	8
2958.12	n/a	PROB	1479060	n/a	LTP283	ltpFR2	23	n/a	n/a	n/a	18	12	6	5	1
2959.214	n/a	PROB	1479607	n/a	LTP283	ltpFR2	23	n/a	n/a	n/a	18	16	7	4	5
2961.184	n/a	STOP	1480592	n/a	LTP283	ltpFR2	23	n/a	n/a	n/a	18	n/a	n/a	n/a	n/a
2962.572	n/a	WORD	1481286	wordpools/wasnorm_wordpool_576.txt	LTP283	ltpFR2	23	13	PANTS	1010	n/a	n/a	0	0	0
2965.042	n/a	WORD	1482521	wordpools/wasnorm_wordpool_576.txt	LTP283	ltpFR2	23	13	BELT	120	n/a	n/a	0	0	0
2967.76	n/a	WORD	1483880	wordpools/wasnorm_wordpool_576.txt	LTP283	ltpFR2	23	13	STRING	1394	n/a	n/a	0	0	0
2970.578	n/a	WORD	1485289	wordpools/wasnorm_wordpool_576.txt	LTP283	ltpFR2	23	13	SENATE	1267	n/a	n/a	0	0	0
2973.212	n/a	WORD	1486606	wordpools/wasnorm_wordpool_576.txt	LTP283	ltpFR2	23	13	THICKET	1455	n/a	n/a	0	0	0
2976.016	n/a	WORD	1488008	wordpools/wasnorm_wordpool_576.txt	LTP283	ltpFR2	23	13	SHOULDER	1294	n/a	n/a	0	0	0
2978.518	n/a	WORD	1489259	wordpools/wasnorm_wordpool_576.txt	LTP283	ltpFR2	23	13	KIWI	781	n/a	n/a	0	0	0
2981.138	n/a	WORD	1490569	wordpools/wasnorm_wordpool_576.txt	LTP283	ltpFR2	23	13	REPTILE	1185	n/a	n/a	0	0	0
2983.722	n/a	WORD	1491861	wordpools/wasnorm_wordpool_576.txt	LTP283	ltpFR2	23	13	SEAFOOD	1260	n/a	n/a	0	0	0
2986.24	n/a	WORD	1493120	wordpools/wasnorm_wordpool_576.txt	LTP283	ltpFR2	23	13	RAISIN	1163	n/a	n/a	0	0	0
2988.96	n/a	WORD	1494480	wordpools/wasnorm_wordpool_576.txt	LTP283	ltpFR2	23	13	TRUMPET	1513	n/a	n/a	0	0	0
2991.412	n/a	WORD	1495706	wordpools/wasnorm_wordpool_576.txt	LTP283	ltpFR2	23	13	SCOUT	1252	n/a	n/a	0	0	0
2994.132	n/a	WORD	1497066	wordpools/wasnorm_wordpool_576.txt	LTP283	ltpFR2	23	13	PAVEMENT	1028	n/a	n/a	0	0	0
2996.75	n/a	WORD	1498375	wordpools/wasnorm_wordpool_576.txt	LTP283	ltpFR2	23	13	STREET	1393	n/a	n/a	0	0	0
2999.284	n/a	WORD	1499642	wordpools/wasnorm_wordpool_576.txt	LTP283	ltpFR2	23	13	CATTLE	261	n/a	n/a	0	0	0
3001.736	n/a	WORD	1500868	wordpools/wasnorm_wordpool_576.txt	LTP283	ltpFR2	23	13	SPOON	1357	n/a	n/a	0	0	0
3004.256	n/a	WORD	1502128	wordpools/wasnorm_wordpool_576.txt	LTP283	ltpFR2	23	13	SARDINE	1235	n/a	n/a	0	0	0
3006.69	n/a	WORD	1503345	wordpools/wasnorm_wordpool_576.txt	LTP283	ltpFR2	23	13	NEWSSTAND	949	n/a	n/a	0	0	0
3009.392	n/a	WORD	1504696	wordpools/wasnorm_wordpool_576.txt	LTP283	ltpFR2	23	13	DOUGHNUT	490	n/a	n/a	0	0	0
3011.91	n/a	WORD	1505955	wordpools/wasnorm_wordpool_576.txt	LTP283	ltpFR2	23	13	SHRIMP	1297	n/a	n/a	0	0	0
3014.346	n/a	WORD	1507173	wordpools/wasnorm_wordpool_576.txt	LTP283	ltpFR2	23	13	PRIMATE	1123	n/a	n/a	0	0	0
3016.814	n/a	WORD	1508407	wordpools/wasnorm_wordpool_576.txt	LTP283	ltpFR2	23	13	TIMBER	1469	n/a	n/a	0	0	0
3019.416	n/a	WORD	1509708	wordpools/wasnorm_wordpool_576.txt	LTP283	ltpFR2	23	13	PLATE	1086	n/a	n/a	0	0	0
3021.868	n/a	WORD	1510934	wordpools/wasnorm_wordpool_576.txt	LTP283	ltpFR2	23	13	DANDRUFF	439	n/a	n/a	0	0	0
3023.488	n/a	START	1511744	n/a	LTP283	ltpFR2	23	n/a	n/a	n/a	19	n/a	n/a	n/a	n/a
3024.35	n/a	DISTRACTOR	1512175	n/a	LTP283	ltpFR2	23	13	n/a	n/a	n/a	n/a	0	0	0
3024.37	n/a	PROB	1512185	n/a	LTP283	ltpFR2	23	n/a	n/a	n/a	19	22	4	9	9
3026.008	n/a	PROB	1513004	n/a	LTP283	ltpFR2	23	n/a	n/a	n/a	19	15	6	3	6
3027.49	n/a	PROB	1513745	n/a	LTP283	ltpFR2	23	n/a	n/a	n/a	19	17	8	4	5
3029.352	n/a	PROB	1514676	n/a	LTP283	ltpFR2	23	n/a	n/a	n/a	19	18	7	6	5
3030.888	n/a	PROB	1515444	n/a	LTP283	ltpFR2	23	n/a	n/a	n/a	19	20	7	6	7
3032.924	n/a	PROB	1516462	n/a	LTP283	ltpFR2	23	n/a	n/a	n/a	19	18	6	8	4
3035.076	n/a	PROB	1517538	n/a	LTP283	ltpFR2	23	n/a	n/a	n/a	19	17	8	3	6
3036.626	n/a	PROB	1518313	n/a	LTP283	ltpFR2	23	n/a	n/a	n/a	19	17	5	8	4
3038.862	n/a	PROB	1519431	n/a	LTP283	ltpFR2	23	n/a	n/a	n/a	19	10	3	1	6
3039.996	n/a	PROB	1519998	n/a	LTP283	ltpFR2	23	n/a	n/a	n/a	19	23	5	9	9
3042.036	n/a	PROB	1521018	n/a	LTP283	ltpFR2	23	n/a	n/a	n/a	19	19	8	5	6
3043.638	n/a	PROB	1521819	n/a	LTP283	ltpFR2	23	n/a	n/a	n/a	19	20	9	4	7
3044.934	n/a	PROB	1522467	n/a	LTP283	ltpFR2	23	n/a	n/a	n/a	19	10	4	3	3
3046.26	n/a	STOP	1523130	n/a	LTP283	ltpFR2	23	n/a	n/a	n/a	19	n/a	n/a	n/a	n/a
3049.336	n/a	REC_START	1524668	n/a	LTP283	ltpFR2	23	13	n/a	n/a	n/a	n/a	0	0	0
3052.978	n/a	REC_WORD	1526489	wordpools/wasnorm_wordpool_576.txt	LTP283	ltpFR2	23	13	NEWSSTAND	949	n/a	n/a	0	0	0
3053.766	n/a	REC_WORD	1526883	wordpools/wasnorm_wordpool_576.txt	LTP283	ltpFR2	23	13	PAVEMENT	1028	n/a	n/a	0	0	0
3054.342	n/a	REC_WORD	1527171	wordpools/wasnorm_wordpool_576.txt	LTP283	ltpFR2	23	13	STREET	1393	n/a	n/a	0	0	0
3055.528	n/a	REC_WORD	1527764	wordpools/wasnorm_wordpool_576.txt	LTP283	ltpFR2	23	13	CATTLE	261	n/a	n/a	0	0	0
3055.948	n/a	REC_WORD	1527974	wordpools/wasnorm_wordpool_576.txt	LTP283	ltpFR2	23	13	SPOON	1357	n/a	n/a	0	0	0
3060.234	n/a	REC_WORD	1530117	wordpools/wasnorm_wordpool_576.txt	LTP283	ltpFR2	23	13	PANTS	1010	n/a	n/a	0	0	0
3061.428	n/a	REC_WORD	1530714	wordpools/wasnorm_wordpool_576.txt	LTP283	ltpFR2	23	13	BELT	120	n/a	n/a	0	0	0
3061.93	n/a	REC_WORD	1530965	wordpools/wasnorm_wordpool_576.txt	LTP283	ltpFR2	23	13	THREAD	1460	n/a	n/a	0	0	0
3063.086	n/a	REC_WORD	1531543	wordpools/wasnorm_wordpool_576.txt	LTP283	ltpFR2	23	13	STRING	1394	n/a	n/a	0	0	0
3067.49	n/a	REC_WORD	1533745	wordpools/wasnorm_wordpool_576.txt	LTP283	ltpFR2	23	13	SENATE	1267	n/a	n/a	0	0	0
3068.104	n/a	REC_WORD	1534052	wordpools/wasnorm_wordpool_576.txt	LTP283	ltpFR2	23	13	SHOULDER	1294	n/a	n/a	0	0	0
3069.198	n/a	REC_WORD	1534599	wordpools/wasnorm_wordpool_576.txt	LTP283	ltpFR2	23	13	KIWI	781	n/a	n/a	0	0	0
3073.758	n/a	REC_WORD	1536879	wordpools/wasnorm_wordpool_576.txt	LTP283	ltpFR2	23	13	REPTILE	1185	n/a	n/a	0	0	0
3074.36	n/a	REC_WORD	1537180	wordpools/wasnorm_wordpool_576.txt	LTP283	ltpFR2	23	13	SEAFOOD	1260	n/a	n/a	0	0	0
3088.986	n/a	REC_WORD	1544493	wordpools/wasnorm_wordpool_576.txt	LTP283	ltpFR2	23	13	PRIMATE	1123	n/a	n/a	0	0	0
3089.986	n/a	REC_WORD_VV	1544993	wordpools/wasnorm_wordpool_576.txt	LTP283	ltpFR2	23	13	<>	-1	n/a	n/a	0	0	0
3095.664	n/a	REC_WORD	1547832	wordpools/wasnorm_wordpool_576.txt	LTP283	ltpFR2	23	13	DOUGHNUT	490	n/a	n/a	0	0	0
3139.814	n/a	DISTRACTOR	1569907	n/a	LTP283	ltpFR2	23	14	n/a	n/a	n/a	n/a	0	0	0
3139.814	n/a	START	1569907	n/a	LTP283	ltpFR2	23	n/a	n/a	n/a	20	n/a	n/a	n/a	n/a
3139.848	n/a	PROB	1569924	n/a	LTP283	ltpFR2	23	n/a	n/a	n/a	20	11	4	6	1
3141.01	n/a	PROB	1570505	n/a	LTP283	ltpFR2	23	n/a	n/a	n/a	20	13	3	1	9
3143.064	n/a	PROB	1571532	n/a	LTP283	ltpFR2	23	n/a	n/a	n/a	20	17	9	7	1
3144.364	n/a	PROB	1572182	n/a	LTP283	ltpFR2	23	n/a	n/a	n/a	20	16	6	6	4
3145.932	n/a	PROB	1572966	n/a	LTP283	ltpFR2	23	n/a	n/a	n/a	20	12	4	5	3
3148.15	n/a	PROB	1574075	n/a	LTP283	ltpFR2	23	n/a	n/a	n/a	20	18	3	6	9
3149.94	n/a	PROB	1574970	n/a	LTP283	ltpFR2	23	n/a	n/a	n/a	20	11	2	1	8
3151.092	n/a	PROB	1575546	n/a	LTP283	ltpFR2	23	n/a	n/a	n/a	20	16	5	3	8
3152.486	n/a	PROB	1576243	n/a	LTP283	ltpFR2	23	n/a	n/a	n/a	20	11	4	2	5
3154.154	n/a	PROB	1577077	n/a	LTP283	ltpFR2	23	n/a	n/a	n/a	20	15	5	7	3
3155.422	n/a	PROB	1577711	n/a	LTP283	ltpFR2	23	n/a	n/a	n/a	20	22	8	5	9
3157.964	n/a	PROB	1578982	n/a	LTP283	ltpFR2	23	n/a	n/a	n/a	20	13	5	6	2
3159.68	n/a	PROB	1579840	n/a	LTP283	ltpFR2	23	n/a	n/a	n/a	20	13	6	1	6
3160.842	n/a	PROB	1580421	n/a	LTP283	ltpFR2	23	n/a	n/a	n/a	20	14	7	4	3
3162.44	n/a	STOP	1581220	n/a	LTP283	ltpFR2	23	n/a	n/a	n/a	20	n/a	n/a	n/a	n/a
3165.036	n/a	WORD	1582518	wordpools/wasnorm_wordpool_576.txt	LTP283	ltpFR2	23	14	MOUNTAIN	924	n/a	n/a	0	0	0
3167.654	n/a	WORD	1583827	wordpools/wasnorm_wordpool_576.txt	LTP283	ltpFR2	23	14	COCKTAIL	338	n/a	n/a	0	0	0
3170.288	n/a	WORD	1585144	wordpools/wasnorm_wordpool_576.txt	LTP283	ltpFR2	23	14	BARREL	91	n/a	n/a	0	0	0
3172.992	n/a	WORD	1586496	wordpools/wasnorm_wordpool_576.txt	LTP283	ltpFR2	23	14	FACE	547	n/a	n/a	0	0	0
3175.76	n/a	WORD	1587880	wordpools/wasnorm_wordpool_576.txt	LTP283	ltpFR2	23	14	KIDNEY	776	n/a	n/a	0	0	0
3178.396	n/a	WORD	1589198	wordpools/wasnorm_wordpool_576.txt	LTP283	ltpFR2	23	14	PEBBLE	1035	n/a	n/a	0	0	0
3180.864	n/a	WORD	1590432	wordpools/wasnorm_wordpool_576.txt	LTP283	ltpFR2	23	14	SAPPHIRE	1234	n/a	n/a	0	0	0
3183.616	n/a	WORD	1591808	wordpools/wasnorm_wordpool_576.txt	LTP283	ltpFR2	23	14	CROSS	413	n/a	n/a	0	0	0
3186.068	n/a	WORD	1593034	wordpools/wasnorm_wordpool_576.txt	LTP283	ltpFR2	23	14	DWARF	510	n/a	n/a	0	0	0
3188.788	n/a	WORD	1594394	wordpools/wasnorm_wordpool_576.txt	LTP283	ltpFR2	23	14	LAKE	796	n/a	n/a	0	0	0
3191.556	n/a	WORD	1595778	wordpools/wasnorm_wordpool_576.txt	LTP283	ltpFR2	23	14	PALACE	1006	n/a	n/a	0	0	0
3194.108	n/a	WORD	1597054	wordpools/wasnorm_wordpool_576.txt	LTP283	ltpFR2	23	14	WRITER	1627	n/a	n/a	0	0	0
3196.76	n/a	WORD	1598380	wordpools/wasnorm_wordpool_576.txt	LTP283	ltpFR2	23	14	BANQUET	86	n/a	n/a	0	0	0
3199.346	n/a	WORD	1599673	wordpools/wasnorm_wordpool_576.txt	LTP283	ltpFR2	23	14	POSTAGE	1113	n/a	n/a	0	0	0
3202.132	n/a	WORD	1601066	wordpools/wasnorm_wordpool_576.txt	LTP283	ltpFR2	23	14	STAMP	1370	n/a	n/a	0	0	0
3204.716	n/a	WORD	1602358	wordpools/wasnorm_wordpool_576.txt	LTP283	ltpFR2	23	14	FARM	552	n/a	n/a	0	0	0
3207.168	n/a	WORD	1603584	wordpools/wasnorm_wordpool_576.txt	LTP283	ltpFR2	23	14	PRINCE	1124	n/a	n/a	0	0	0
3209.754	n/a	WORD	1604877	wordpools/wasnorm_wordpool_576.txt	LTP283	ltpFR2	23	14	WORLD	1622	n/a	n/a	0	0	0
3212.238	n/a	WORD	1606119	wordpools/wasnorm_wordpool_576.txt	LTP283	ltpFR2	23	14	EYELASH	546	n/a	n/a	0	0	0
3215.042	n/a	WORD	1607521	wordpools/wasnorm_wordpool_576.txt	LTP283	ltpFR2	23	14	INSECT	740	n/a	n/a	0	0	0
3217.844	n/a	WORD	1608922	wordpools/wasnorm_wordpool_576.txt	LTP283	ltpFR2	23	14	GIRAFFE	636	n/a	n/a	0	0	0
3220.396	n/a	WORD	1610198	wordpools/wasnorm_wordpool_576.txt	LTP283	ltpFR2	23	14	SIDEWALK	1303	n/a	n/a	0	0	0
3223.084	n/a	WORD	1611542	wordpools/wasnorm_wordpool_576.txt	LTP283	ltpFR2	23	14	LUNCH	849	n/a	n/a	0	0	0
3225.552	n/a	WORD	1612776	wordpools/wasnorm_wordpool_576.txt	LTP283	ltpFR2	23	14	TAXI	1438	n/a	n/a	0	0	0
3227.17	n/a	START	1613585	n/a	LTP283	ltpFR2	23	n/a	n/a	n/a	21	n/a	n/a	n/a	n/a
3228.168	n/a	DISTRACTOR	1614084	n/a	LTP283	ltpFR2	23	14	n/a	n/a	n/a	n/a	0	0	0
3228.186	n/a	PROB	1614093	n/a	LTP283	ltpFR2	23	n/a	n/a	n/a	21	9	2	3	4
3230.222	n/a	PROB	1615111	n/a	LTP283	ltpFR2	23	n/a	n/a	n/a	21	23	7	9	7
3231.8	n/a	PROB	1615900	n/a	LTP283	ltpFR2	23	n/a	n/a	n/a	21	18	4	5	9
3233.186	n/a	PROB	1616593	n/a	LTP283	ltpFR2	23	n/a	n/a	n/a	21	13	1	6	6
3234.402	n/a	PROB	1617201	n/a	LTP283	ltpFR2	23	n/a	n/a	n/a	21	17	9	7	1
3235.742	n/a	PROB	1617871	n/a	LTP283	ltpFR2	23	n/a	n/a	n/a	21	16	9	5	2
3237.478	n/a	PROB	1618739	n/a	LTP283	ltpFR2	23	n/a	n/a	n/a	21	17	7	9	1
3238.806	n/a	PROB	1619403	n/a	LTP283	ltpFR2	23	n/a	n/a	n/a	21	18	9	3	6
3240.53	n/a	PROB	1620265	n/a	LTP283	ltpFR2	23	n/a	n/a	n/a	21	12	4	2	6
3241.918	n/a	PROB	1620959	n/a	LTP283	ltpFR2	23	n/a	n/a	n/a	21	15	2	6	7
3244.566	n/a	PROB	1622283	n/a	LTP283	ltpFR2	23	n/a	n/a	n/a	21	21	8	7	6
3246.136	n/a	PROB	1623068	n/a	LTP283	ltpFR2	23	n/a	n/a	n/a	21	15	7	1	7
3247.536	n/a	PROB	1623768	n/a	LTP283	ltpFR2	23	n/a	n/a	n/a	21	17	3	9	5
3248.92	n/a	PROB	1624460	n/a	LTP283	ltpFR2	23	n/a	n/a	n/a	21	1	3	4	9
3250.142	n/a	STOP	1625071	n/a	LTP283	ltpFR2	23	n/a	n/a	n/a	21	n/a	n/a	n/a	n/a
3253.018	n/a	REC_START	1626509	n/a	LTP283	ltpFR2	23	14	n/a	n/a	n/a	n/a	0	0	0
3256.514	n/a	REC_WORD	1628257	wordpools/wasnorm_wordpool_576.txt	LTP283	ltpFR2	23	14	SIDEWALK	1303	n/a	n/a	0	0	0
3257.204	n/a	REC_WORD	1628602	wordpools/wasnorm_wordpool_576.txt	LTP283	ltpFR2	23	14	GIRAFFE	636	n/a	n/a	0	0	0
3257.99	n/a	REC_WORD	1628995	wordpools/wasnorm_wordpool_576.txt	LTP283	ltpFR2	23	14	EYELASH	546	n/a	n/a	0	0	0
3259.958	n/a	REC_WORD	1629979	wordpools/wasnorm_wordpool_576.txt	LTP283	ltpFR2	23	14	INSECT	740	n/a	n/a	0	0	0
3262.866	n/a	REC_WORD	1631433	wordpools/wasnorm_wordpool_576.txt	LTP283	ltpFR2	23	14	MOUNTAIN	924	n/a	n/a	0	0	0
3263.354	n/a	REC_WORD	1631677	wordpools/wasnorm_wordpool_576.txt	LTP283	ltpFR2	23	14	COCKTAIL	338	n/a	n/a	0	0	0
3264.026	n/a	REC_WORD	1632013	wordpools/wasnorm_wordpool_576.txt	LTP283	ltpFR2	23	14	BARREL	91	n/a	n/a	0	0	0
3264.744	n/a	REC_WORD	1632372	wordpools/wasnorm_wordpool_576.txt	LTP283	ltpFR2	23	14	KIDNEY	776	n/a	n/a	0	0	0
3265.5	n/a	REC_WORD	1632750	wordpools/wasnorm_wordpool_576.txt	LTP283	ltpFR2	23	14	PEBBLE	1035	n/a	n/a	0	0	0
3265.89	n/a	REC_WORD	1632945	wordpools/wasnorm_wordpool_576.txt	LTP283	ltpFR2	23	14	SAPPHIRE	1234	n/a	n/a	0	0	0
3268.608	n/a	REC_WORD	1634304	wordpools/wasnorm_wordpool_576.txt	LTP283	ltpFR2	23	14	DWARF	510	n/a	n/a	0	0	0
3269.068	n/a	REC_WORD	1634534	wordpools/wasnorm_wordpool_576.txt	LTP283	ltpFR2	23	14	WRITER	1627	n/a	n/a	0	0	0
3272.308	n/a	REC_WORD	1636154	wordpools/wasnorm_wordpool_576.txt	LTP283	ltpFR2	23	14	LAKE	796	n/a	n/a	0	0	0
3272.902	n/a	REC_WORD	1636451	wordpools/wasnorm_wordpool_576.txt	LTP283	ltpFR2	23	14	PALACE	1006	n/a	n/a	0	0	0
3282.676	n/a	REC_WORD	1641338	wordpools/wasnorm_wordpool_576.txt	LTP283	ltpFR2	23	14	TAXI	1438	n/a	n/a	0	0	0
3343.496	n/a	DISTRACTOR	1671748	n/a	LTP283	ltpFR2	23	15	n/a	n/a	n/a	n/a	0	0	0
3343.496	n/a	START	1671748	n/a	LTP283	ltpFR2	23	n/a	n/a	n/a	22	n/a	n/a	n/a	n/a
3343.514	n/a	PROB	1671757	n/a	LTP283	ltpFR2	23	n/a	n/a	n/a	22	15	7	5	3
3345.224	n/a	PROB	1672612	n/a	LTP283	ltpFR2	23	n/a	n/a	n/a	22	14	6	6	2
3346.51	n/a	PROB	1673255	n/a	LTP283	ltpFR2	23	n/a	n/a	n/a	22	17	8	7	2
3348.198	n/a	PROB	1674099	n/a	LTP283	ltpFR2	23	n/a	n/a	n/a	22	21	9	4	8
3349.58	n/a	PROB	1674790	n/a	LTP283	ltpFR2	23	n/a	n/a	n/a	22	14	5	6	3
3351.136	n/a	PROB	1675568	n/a	LTP283	ltpFR2	23	n/a	n/a	n/a	22	11	1	3	7
3352.264	n/a	PROB	1676132	n/a	LTP283	ltpFR2	23	n/a	n/a	n/a	22	14	8	4	2
3353.586	n/a	PROB	1676793	n/a	LTP283	ltpFR2	23	n/a	n/a	n/a	22	5	2	2	1
3354.514	n/a	PROB	1677257	n/a	LTP283	ltpFR2	23	n/a	n/a	n/a	22	19	5	9	5
3355.766	n/a	PROB	1677883	n/a	LTP283	ltpFR2	23	n/a	n/a	n/a	22	9	6	2	1
3356.986	n/a	PROB	1678493	n/a	LTP283	ltpFR2	23	n/a	n/a	n/a	22	18	9	6	3
3358.286	n/a	PROB	1679143	n/a	LTP283	ltpFR2	23	n/a	n/a	n/a	22	15	6	1	8
3360.17	n/a	PROB	1680085	n/a	LTP283	ltpFR2	23	n/a	n/a	n/a	22	12	7	1	4
3361.638	n/a	PROB	1680819	n/a	LTP283	ltpFR2	23	n/a	n/a	n/a	22	17	8	1	8
3363.006	n/a	PROB	1681503	n/a	LTP283	ltpFR2	23	n/a	n/a	n/a	22	17	8	3	6
3364.374	n/a	PROB	1682187	n/a	LTP283	ltpFR2	23	n/a	n/a	n/a	22	21	5	8	8
3365.908	n/a	PROB	1682954	n/a	LTP283	ltpFR2	23	n/a	n/a	n/a	22	6	1	3	2
3367.034	n/a	STOP	1683517	n/a	LTP283	ltpFR2	23	n/a	n/a	n/a	22	n/a	n/a	n/a	n/a
3368.616	n/a	WORD	1684308	wordpools/wasnorm_wordpool_576.txt	LTP283	ltpFR2	23	15	BAKER	71	n/a	n/a	0	0	0
3371.184	n/a	WORD	1685592	wordpools/wasnorm_wordpool_576.txt	LTP283	ltpFR2	23	15	SLACKS	1323	n/a	n/a	0	0	0
3373.87	n/a	WORD	1686935	wordpools/wasnorm_wordpool_576.txt	LTP283	ltpFR2	23	15	CRACKER	398	n/a	n/a	0	0	0
3376.506	n/a	WORD	1688253	wordpools/wasnorm_wordpool_576.txt	LTP283	ltpFR2	23	15	HAMMOCK	681	n/a	n/a	0	0	0
3379.324	n/a	WORD	1689662	wordpools/wasnorm_wordpool_576.txt	LTP283	ltpFR2	23	15	MASK	876	n/a	n/a	0	0	0
3381.944	n/a	WORD	1690972	wordpools/wasnorm_wordpool_576.txt	LTP283	ltpFR2	23	15	SCARF	1246	n/a	n/a	0	0	0
3384.578	n/a	WORD	1692289	wordpools/wasnorm_wordpool_576.txt	LTP283	ltpFR2	23	15	BINDER	127	n/a	n/a	0	0	0
3387.38	n/a	WORD	1693690	wordpools/wasnorm_wordpool_576.txt	LTP283	ltpFR2	23	15	CABBAGE	210	n/a	n/a	0	0	0
3390.002	n/a	WORD	1695001	wordpools/wasnorm_wordpool_576.txt	LTP283	ltpFR2	23	15	CREATURE	403	n/a	n/a	0	0	0
3392.77	n/a	WORD	1696385	wordpools/wasnorm_wordpool_576.txt	LTP283	ltpFR2	23	15	WAIST	1579	n/a	n/a	0	0	0
3395.386	n/a	WORD	1697693	wordpools/wasnorm_wordpool_576.txt	LTP283	ltpFR2	23	15	LETTUCE	814	n/a	n/a	0	0	0
3398.058	n/a	WORD	1699029	wordpools/wasnorm_wordpool_576.txt	LTP283	ltpFR2	23	15	CROOK	412	n/a	n/a	0	0	0
3400.692	n/a	WORD	1700346	wordpools/wasnorm_wordpool_576.txt	LTP283	ltpFR2	23	15	COFFEE	341	n/a	n/a	0	0	0
3403.494	n/a	WORD	1701747	wordpools/wasnorm_wordpool_576.txt	LTP283	ltpFR2	23	15	SCAPEGOAT	1244	n/a	n/a	0	0	0
3406.314	n/a	WORD	1703157	wordpools/wasnorm_wordpool_576.txt	LTP283	ltpFR2	23	15	STUDENT	1395	n/a	n/a	0	0	0
3408.982	n/a	WORD	1704491	wordpools/wasnorm_wordpool_576.txt	LTP283	ltpFR2	23	15	TEACHER	1440	n/a	n/a	0	0	0
3411.484	n/a	WORD	1705742	wordpools/wasnorm_wordpool_576.txt	LTP283	ltpFR2	23	15	OX	994	n/a	n/a	0	0	0
3414.302	n/a	WORD	1707151	wordpools/wasnorm_wordpool_576.txt	LTP283	ltpFR2	23	15	BABY	64	n/a	n/a	0	0	0
3416.772	n/a	WORD	1708386	wordpools/wasnorm_wordpool_576.txt	LTP283	ltpFR2	23	15	RATTLE	1170	n/a	n/a	0	0	0
3419.208	n/a	WORD	1709604	wordpools/wasnorm_wordpool_576.txt	LTP283	ltpFR2	23	15	LUGGAGE	847	n/a	n/a	0	0	0
3421.792	n/a	WORD	1710896	wordpools/wasnorm_wordpool_576.txt	LTP283	ltpFR2	23	15	YARN	1631	n/a	n/a	0	0	0
3424.344	n/a	WORD	1712172	wordpools/wasnorm_wordpool_576.txt	LTP283	ltpFR2	23	15	WINGS	1614	n/a	n/a	0	0	0
3426.862	n/a	WORD	1713431	wordpools/wasnorm_wordpool_576.txt	LTP283	ltpFR2	23	15	CYCLONE	431	n/a	n/a	0	0	0
3429.332	n/a	WORD	1714666	wordpools/wasnorm_wordpool_576.txt	LTP283	ltpFR2	23	15	WHISTLE	1606	n/a	n/a	0	0	0
3430.95	n/a	START	1715475	n/a	LTP283	ltpFR2	23	n/a	n/a	n/a	23	n/a	n/a	n/a	n/a
3432.108	n/a	DISTRACTOR	1716054	n/a	LTP283	ltpFR2	23	15	n/a	n/a	n/a	n/a	0	0	0
3432.118	n/a	PROB	1716059	n/a	LTP283	ltpFR2	23	n/a	n/a	n/a	23	22	6	9	7
3434.552	n/a	PROB	1717276	n/a	LTP283	ltpFR2	23	n/a	n/a	n/a	23	13	4	3	6
3435.808	n/a	PROB	1717904	n/a	LTP283	ltpFR2	23	n/a	n/a	n/a	23	25	9	8	8
3438.084	n/a	PROB	1719042	n/a	LTP283	ltpFR2	23	n/a	n/a	n/a	23	18	8	7	3
3439.3	n/a	PROB	1719650	n/a	LTP283	ltpFR2	23	n/a	n/a	n/a	23	20	7	9	4
3440.558	n/a	PROB	1720279	n/a	LTP283	ltpFR2	23	n/a	n/a	n/a	23	15	9	4	2
3442.072	n/a	PROB	1721036	n/a	LTP283	ltpFR2	23	n/a	n/a	n/a	23	12	2	1	9
3443.376	n/a	PROB	1721688	n/a	LTP283	ltpFR2	23	n/a	n/a	n/a	23	15	7	6	2
3445.056	n/a	PROB	1722528	n/a	LTP283	ltpFR2	23	n/a	n/a	n/a	23	22	9	6	7
3448.042	n/a	PROB	1724021	n/a	LTP283	ltpFR2	23	n/a	n/a	n/a	23	16	8	6	2
3449.342	n/a	PROB	1724671	n/a	LTP283	ltpFR2	23	n/a	n/a	n/a	23	17	7	3	7
3450.616	n/a	PROB	1725308	n/a	LTP283	ltpFR2	23	n/a	n/a	n/a	23	10	2	4	4
3451.846	n/a	PROB	1725923	n/a	LTP283	ltpFR2	23	n/a	n/a	n/a	23	6	2	1	3
3452.946	n/a	PROB	1726473	n/a	LTP283	ltpFR2	23	n/a	n/a	n/a	23	19	8	2	9
3454.294	n/a	STOP	1727147	n/a	LTP283	ltpFR2	23	n/a	n/a	n/a	23	n/a	n/a	n/a	n/a
3456.888	n/a	REC_START	1728444	n/a	LTP283	ltpFR2	23	15	n/a	n/a	n/a	n/a	0	0	0
3459.022	n/a	REC_WORD	1729511	wordpools/wasnorm_wordpool_576.txt	LTP283	ltpFR2	23	15	YARN	1631	n/a	n/a	0	0	0
3459.532	n/a	REC_WORD	1729766	wordpools/wasnorm_wordpool_576.txt	LTP283	ltpFR2	23	15	WHISTLE	1606	n/a	n/a	0	0	0
3461.22	n/a	REC_WORD_VV	1730610	wordpools/wasnorm_wordpool_576.txt	LTP283	ltpFR2	23	15	<>	-1	n/a	n/a	0	0	0
3462.194	n/a	REC_WORD	1731097	wordpools/wasnorm_wordpool_576.txt	LTP283	ltpFR2	23	15	CYCLONE	431	n/a	n/a	0	0	0
3462.874	n/a	REC_WORD	1731437	wordpools/wasnorm_wordpool_576.txt	LTP283	ltpFR2	23	15	TWISTER	1530	n/a	n/a	0	0	0
3465.826	n/a	REC_WORD	1732913	wordpools/wasnorm_wordpool_576.txt	LTP283	ltpFR2	23	15	BAKER	71	n/a	n/a	0	0	0
3467.568	n/a	REC_WORD_VV	1733784	wordpools/wasnorm_wordpool_576.txt	LTP283	ltpFR2	23	15	<>	-1	n/a	n/a	0	0	0
3468.568	n/a	REC_WORD_VV	1734284	wordpools/wasnorm_wordpool_576.txt	LTP283	ltpFR2	23	15	<>	-1	n/a	n/a	0	0	0
3469.718	n/a	REC_WORD	1734859	wordpools/wasnorm_wordpool_576.txt	LTP283	ltpFR2	23	15	HAMMOCK	681	n/a	n/a	0	0	0
3473.524	n/a	REC_WORD	1736762	wordpools/wasnorm_wordpool_576.txt	LTP283	ltpFR2	23	15	BINDER	127	n/a	n/a	0	0	0
3476.106	n/a	REC_WORD	1738053	wordpools/wasnorm_wordpool_576.txt	LTP283	ltpFR2	23	15	LETTUCE	814	n/a	n/a	0	0	0
3476.49	n/a	REC_WORD	1738245	wordpools/wasnorm_wordpool_576.txt	LTP283	ltpFR2	23	15	CABBAGE	210	n/a	n/a	0	0	0
3476.974	n/a	REC_WORD	1738487	wordpools/wasnorm_wordpool_576.txt	LTP283	ltpFR2	23	15	CROOK	412	n/a	n/a	0	0	0
3480.32	n/a	REC_WORD	1740160	wordpools/wasnorm_wordpool_576.txt	LTP283	ltpFR2	23	15	SLACKS	1323	n/a	n/a	0	0	0
3485.764	n/a	REC_WORD	1742882	wordpools/wasnorm_wordpool_576.txt	LTP283	ltpFR2	23	15	LUGGAGE	847	n/a	n/a	0	0	0
3492.176	n/a	REC_WORD	1746088	wordpools/wasnorm_wordpool_576.txt	LTP283	ltpFR2	23	15	STUDENT	1395	n/a	n/a	0	0	0
3493.002	n/a	REC_WORD	1746501	wordpools/wasnorm_wordpool_576.txt	LTP283	ltpFR2	23	15	TEACHER	1440	n/a	n/a	0	0	0
3493.796	n/a	REC_WORD	1746898	wordpools/wasnorm_wordpool_576.txt	LTP283	ltpFR2	23	15	OX	994	n/a	n/a	0	0	0
3496.156	n/a	REC_WORD	1748078	wordpools/wasnorm_wordpool_576.txt	LTP283	ltpFR2	23	15	BABY	64	n/a	n/a	0	0	0
3496.58	n/a	REC_WORD	1748290	wordpools/wasnorm_wordpool_576.txt	LTP283	ltpFR2	23	15	RATTLE	1170	n/a	n/a	0	0	0
3503.444	n/a	REC_WORD	1751722	wordpools/wasnorm_wordpool_576.txt	LTP283	ltpFR2	23	15	SCAPEGOAT	1244	n/a	n/a	0	0	0
3547.36	n/a	DISTRACTOR	1773680	n/a	LTP283	ltpFR2	23	16	n/a	n/a	n/a	n/a	0	0	0
3547.362	n/a	START	1773681	n/a	LTP283	ltpFR2	23	n/a	n/a	n/a	24	n/a	n/a	n/a	n/a
3547.394	n/a	PROB	1773697	n/a	LTP283	ltpFR2	23	n/a	n/a	n/a	24	22	8	6	8
3549.992	n/a	PROB	1774996	n/a	LTP283	ltpFR2	23	n/a	n/a	n/a	24	12	1	4	7
3551.242	n/a	PROB	1775621	n/a	LTP283	ltpFR2	23	n/a	n/a	n/a	24	23	8	9	6
3554.644	n/a	PROB	1777322	n/a	LTP283	ltpFR2	23	n/a	n/a	n/a	24	17	8	2	7
3556.178	n/a	PROB	1778089	n/a	LTP283	ltpFR2	23	n/a	n/a	n/a	24	13	7	3	3
3557.296	n/a	PROB	1778648	n/a	LTP283	ltpFR2	23	n/a	n/a	n/a	24	22	9	8	5
3559.066	n/a	PROB	1779533	n/a	LTP283	ltpFR2	23	n/a	n/a	n/a	24	19	7	4	8
3561.682	n/a	PROB	1780841	n/a	LTP283	ltpFR2	23	n/a	n/a	n/a	24	17	3	6	8
3563.3	n/a	PROB	1781650	n/a	LTP283	ltpFR2	23	n/a	n/a	n/a	24	13	3	7	3
3564.502	n/a	PROB	1782251	n/a	LTP283	ltpFR2	23	n/a	n/a	n/a	24	22	9	9	4
3565.786	n/a	PROB	1782893	n/a	LTP283	ltpFR2	23	n/a	n/a	n/a	24	18	3	6	9
3567.354	n/a	PROB	1783677	n/a	LTP283	ltpFR2	23	n/a	n/a	n/a	24	15	5	9	1
3568.47	n/a	PROB	1784235	n/a	LTP283	ltpFR2	23	n/a	n/a	n/a	24	17	7	7	3
3569.708	n/a	PROB	1784854	n/a	LTP283	ltpFR2	23	n/a	n/a	n/a	24	10	1	8	1
3570.858	n/a	STOP	1785429	n/a	LTP283	ltpFR2	23	n/a	n/a	n/a	24	n/a	n/a	n/a	n/a
3572.564	n/a	WORD	1786282	wordpools/wasnorm_wordpool_576.txt	LTP283	ltpFR2	23	16	PUMPKIN	1142	n/a	n/a	0	0	0
3575.084	n/a	WORD	1787542	wordpools/wasnorm_wordpool_576.txt	LTP283	ltpFR2	23	16	WALRUS	1585	n/a	n/a	0	0	0
3577.684	n/a	WORD	1788842	wordpools/wasnorm_wordpool_576.txt	LTP283	ltpFR2	23	16	RACCOON	1153	n/a	n/a	0	0	0
3580.22	n/a	WORD	1790110	wordpools/wasnorm_wordpool_576.txt	LTP283	ltpFR2	23	16	RACKET	1155	n/a	n/a	0	0	0
3582.94	n/a	WORD	1791470	wordpools/wasnorm_wordpool_576.txt	LTP283	ltpFR2	23	16	LOUNGE	845	n/a	n/a	0	0	0
3585.658	n/a	WORD	1792829	wordpools/wasnorm_wordpool_576.txt	LTP283	ltpFR2	23	16	PARTY	1018	n/a	n/a	0	0	0
3588.444	n/a	WORD	1794222	wordpools/wasnorm_wordpool_576.txt	LTP283	ltpFR2	23	16	DOORBELL	487	n/a	n/a	0	0	0
3591.162	n/a	WORD	1795581	wordpools/wasnorm_wordpool_576.txt	LTP283	ltpFR2	23	16	WITNESS	1618	n/a	n/a	0	0	0
3593.848	n/a	WORD	1796924	wordpools/wasnorm_wordpool_576.txt	LTP283	ltpFR2	23	16	BLANKET	135	n/a	n/a	0	0	0
3596.382	n/a	WORD	1798191	wordpools/wasnorm_wordpool_576.txt	LTP283	ltpFR2	23	16	SWEATER	1419	n/a	n/a	0	0	0
3599.086	n/a	WORD	1799543	wordpools/wasnorm_wordpool_576.txt	LTP283	ltpFR2	23	16	SISTER	1312	n/a	n/a	0	0	0
3601.802	n/a	WORD	1800901	wordpools/wasnorm_wordpool_576.txt	LTP283	ltpFR2	23	16	FROST	609	n/a	n/a	0	0	0
3604.472	n/a	WORD	1802236	wordpools/wasnorm_wordpool_576.txt	LTP283	ltpFR2	23	16	SHACK	1273	n/a	n/a	0	0	0
3607.174	n/a	WORD	1803587	wordpools/wasnorm_wordpool_576.txt	LTP283	ltpFR2	23	16	FEAST	556	n/a	n/a	0	0	0
3609.676	n/a	WORD	1804838	wordpools/wasnorm_wordpool_576.txt	LTP283	ltpFR2	23	16	GLACIER	638	n/a	n/a	0	0	0
3612.114	n/a	WORD	1806057	wordpools/wasnorm_wordpool_576.txt	LTP283	ltpFR2	23	16	DESK	452	n/a	n/a	0	0	0
3614.582	n/a	WORD	1807291	wordpools/wasnorm_wordpool_576.txt	LTP283	ltpFR2	23	16	STAIRS	1367	n/a	n/a	0	0	0
3617.348	n/a	WORD	1808674	wordpools/wasnorm_wordpool_576.txt	LTP283	ltpFR2	23	16	BEDROOM	111	n/a	n/a	0	0	0
3619.952	n/a	WORD	1809976	wordpools/wasnorm_wordpool_576.txt	LTP283	ltpFR2	23	16	SUNRISE	1407	n/a	n/a	0	0	0
3622.586	n/a	WORD	1811293	wordpools/wasnorm_wordpool_576.txt	LTP283	ltpFR2	23	16	TRIBE	1505	n/a	n/a	0	0	0
3625.222	n/a	WORD	1812611	wordpools/wasnorm_wordpool_576.txt	LTP283	ltpFR2	23	16	DAUGHTER	442	n/a	n/a	0	0	0
3627.958	n/a	WORD	1813979	wordpools/wasnorm_wordpool_576.txt	LTP283	ltpFR2	23	16	DIVER	476	n/a	n/a	0	0	0
3630.41	n/a	WORD	1815205	wordpools/wasnorm_wordpool_576.txt	LTP283	ltpFR2	23	16	OATMEAL	967	n/a	n/a	0	0	0
3633.228	n/a	WORD	1816614	wordpools/wasnorm_wordpool_576.txt	LTP283	ltpFR2	23	16	SKIRT	1319	n/a	n/a	0	0	0
3634.848	n/a	START	1817424	n/a	LTP283	ltpFR2	23	n/a	n/a	n/a	25	n/a	n/a	n/a	n/a
3635.994	n/a	DISTRACTOR	1817997	n/a	LTP283	ltpFR2	23	16	n/a	n/a	n/a	n/a	0	0	0
3636.014	n/a	PROB	1818007	n/a	LTP283	ltpFR2	23	n/a	n/a	n/a	25	17	7	3	7
3638.316	n/a	PROB	1819158	n/a	LTP283	ltpFR2	23	n/a	n/a	n/a	25	19	7	8	4
3640.78	n/a	PROB	1820390	n/a	LTP283	ltpFR2	23	n/a	n/a	n/a	25	9	4	4	1
3642.598	n/a	PROB	1821299	n/a	LTP283	ltpFR2	23	n/a	n/a	n/a	25	18	2	7	9
3643.988	n/a	PROB	1821994	n/a	LTP283	ltpFR2	23	n/a	n/a	n/a	25	13	1	4	8
3645.322	n/a	PROB	1822661	n/a	LTP283	ltpFR2	23	n/a	n/a	n/a	25	24	9	9	7
3648.926	n/a	PROB	1824463	n/a	LTP283	ltpFR2	23	n/a	n/a	n/a	25	21	8	4	9
3650.436	n/a	PROB	1825218	n/a	LTP283	ltpFR2	23	n/a	n/a	n/a	25	4	2	1	1
3651.556	n/a	PROB	1825778	n/a	LTP283	ltpFR2	23	n/a	n/a	n/a	25	9	2	1	6
3652.99	n/a	PROB	1826495	n/a	LTP283	ltpFR2	23	n/a	n/a	n/a	25	10	1	2	7
3654.156	n/a	PROB	1827078	n/a	LTP283	ltpFR2	23	n/a	n/a	n/a	25	18	5	7	6
3656.46	n/a	PROB	1828230	n/a	LTP283	ltpFR2	23	n/a	n/a	n/a	25	10	2	3	5
3657.734	n/a	STOP	1828867	n/a	LTP283	ltpFR2	23	n/a	n/a	n/a	25	n/a	n/a	n/a	n/a
3660.802	n/a	REC_START	1830401	n/a	LTP283	ltpFR2	23	16	n/a	n/a	n/a	n/a	0	0	0
3674.238	n/a	REC_WORD	1837119	wordpools/wasnorm_wordpool_576.txt	LTP283	ltpFR2	23	16	WALRUS	1585	n/a	n/a	0	0	0
3675.238	n/a	REC_WORD_VV	1837619	wordpools/wasnorm_wordpool_576.txt	LTP283	ltpFR2	23	16	<>	-1	n/a	n/a	0	0	0
