onset	duration	trial_type	sample	stim_file	subject	experiment	session	trial	task	item_name	item_num	recog_conf	resp	answer	test_x	test_y	test_z	color_b	color_g	color_r	case	font
288.822	n/a	SESS_START	144411	n/a	LTP188	ltpFR	9	n/a	n/a	n/a	n/a	5	n/a	n/a	0	0	0	n/a	n/a	n/a	n/a	n/a
317.33	n/a	START	158665	n/a	LTP188	ltpFR	9	n/a	n/a	n/a	n/a	n/a	n/a	n/a	n/a	n/a	n/a	n/a	n/a	n/a	n/a	n/a
317.364	n/a	PROB	158682	n/a	LTP188	ltpFR	9	n/a	n/a	n/a	n/a	n/a	n/a	17	5	8	4	n/a	n/a	n/a	n/a	n/a
320.71	n/a	PROB	160355	n/a	LTP188	ltpFR	9	n/a	n/a	n/a	n/a	n/a	n/a	19	2	9	8	n/a	n/a	n/a	n/a	n/a
322.636	n/a	PROB	161318	n/a	LTP188	ltpFR	9	n/a	n/a	n/a	n/a	n/a	n/a	14	9	3	2	n/a	n/a	n/a	n/a	n/a
324.66	n/a	PROB	162330	n/a	LTP188	ltpFR	9	n/a	n/a	n/a	n/a	n/a	n/a	16	6	6	4	n/a	n/a	n/a	n/a	n/a
326.314	n/a	PROB	163157	n/a	LTP188	ltpFR	9	n/a	n/a	n/a	n/a	n/a	n/a	13	3	2	8	n/a	n/a	n/a	n/a	n/a
327.654	n/a	PROB	163827	n/a	LTP188	ltpFR	9	n/a	n/a	n/a	n/a	n/a	n/a	25	7	9	9	n/a	n/a	n/a	n/a	n/a
330.146	n/a	PROB	165073	n/a	LTP188	ltpFR	9	n/a	n/a	n/a	n/a	n/a	n/a	15	2	7	6	n/a	n/a	n/a	n/a	n/a
332.422	n/a	PROB	166211	n/a	LTP188	ltpFR	9	n/a	n/a	n/a	n/a	n/a	n/a	15	6	1	8	n/a	n/a	n/a	n/a	n/a
334.244	n/a	PROB	167122	n/a	LTP188	ltpFR	9	n/a	n/a	n/a	n/a	n/a	n/a	20	7	8	5	n/a	n/a	n/a	n/a	n/a
336.468	n/a	STOP	168234	n/a	LTP188	ltpFR	9	n/a	n/a	n/a	n/a	n/a	n/a	n/a	n/a	n/a	n/a	n/a	n/a	n/a	n/a	n/a
370.518	n/a	START	185259	n/a	LTP188	ltpFR	9	n/a	n/a	n/a	n/a	n/a	n/a	n/a	n/a	n/a	n/a	n/a	n/a	n/a	n/a	n/a
372.024	n/a	PROB	186012	n/a	LTP188	ltpFR	9	n/a	n/a	n/a	n/a	n/a	n/a	17	4	6	7	n/a	n/a	n/a	n/a	n/a
374.398	n/a	PROB	187199	n/a	LTP188	ltpFR	9	n/a	n/a	n/a	n/a	n/a	n/a	19	5	7	7	n/a	n/a	n/a	n/a	n/a
376.54	n/a	PROB	188270	n/a	LTP188	ltpFR	9	n/a	n/a	n/a	n/a	n/a	n/a	11	3	6	1	n/a	n/a	n/a	n/a	n/a
378.286	n/a	STOP	189143	n/a	LTP188	ltpFR	9	n/a	n/a	n/a	n/a	n/a	n/a	n/a	n/a	n/a	n/a	n/a	n/a	n/a	n/a	n/a
379.552	n/a	WORD	189776	wordpools/wasnorm_wordpool_less_exclusions.txt	LTP188	ltpFR	9	1	0	CASH	252	n/a	0	n/a	0	0	0	0	0.5869140625	0.422607421875	upper	../fonts/zerothre.ttf
382.564	n/a	START	191282	n/a	LTP188	ltpFR	9	n/a	n/a	n/a	n/a	n/a	n/a	n/a	n/a	n/a	n/a	n/a	n/a	n/a	n/a	n/a
383.568	n/a	PROB	191784	n/a	LTP188	ltpFR	9	n/a	n/a	n/a	n/a	n/a	n/a	14	4	5	5	n/a	n/a	n/a	n/a	n/a
385.006	n/a	PROB	192503	n/a	LTP188	ltpFR	9	n/a	n/a	n/a	n/a	n/a	n/a	10	1	1	8	n/a	n/a	n/a	n/a	n/a
387.03	n/a	PROB	193515	n/a	LTP188	ltpFR	9	n/a	n/a	n/a	n/a	n/a	n/a	19	6	6	7	n/a	n/a	n/a	n/a	n/a
390.564	n/a	STOP	195282	n/a	LTP188	ltpFR	9	n/a	n/a	n/a	n/a	n/a	n/a	n/a	n/a	n/a	n/a	n/a	n/a	n/a	n/a	n/a
391.716	n/a	WORD	195858	wordpools/wasnorm_wordpool_less_exclusions.txt	LTP188	ltpFR	9	1	0	PURSE	1145	n/a	1	n/a	0	0	0	0	0.5869140625	0.422607421875	upper	../fonts/zerothre.ttf
394.728	n/a	START	197364	n/a	LTP188	ltpFR	9	n/a	n/a	n/a	n/a	n/a	n/a	n/a	n/a	n/a	n/a	n/a	n/a	n/a	n/a	n/a
395.646	n/a	PROB	197823	n/a	LTP188	ltpFR	9	n/a	n/a	n/a	n/a	n/a	n/a	13	3	5	5	n/a	n/a	n/a	n/a	n/a
396.968	n/a	PROB	198484	n/a	LTP188	ltpFR	9	n/a	n/a	n/a	n/a	n/a	n/a	15	9	1	5	n/a	n/a	n/a	n/a	n/a
398.306	n/a	PROB	199153	n/a	LTP188	ltpFR	9	n/a	n/a	n/a	n/a	n/a	n/a	20	7	5	9	n/a	n/a	n/a	n/a	n/a
402.728	n/a	STOP	201364	n/a	LTP188	ltpFR	9	n/a	n/a	n/a	n/a	n/a	n/a	n/a	n/a	n/a	n/a	n/a	n/a	n/a	n/a	n/a
403.794	n/a	WORD	201897	wordpools/wasnorm_wordpool_less_exclusions.txt	LTP188	ltpFR	9	1	0	SHELTER	1282	n/a	1	n/a	0	0	0	0	0.5869140625	0.422607421875	upper	../fonts/zerothre.ttf
406.806	n/a	START	203403	n/a	LTP188	ltpFR	9	n/a	n/a	n/a	n/a	n/a	n/a	n/a	n/a	n/a	n/a	n/a	n/a	n/a	n/a	n/a
407.744	n/a	PROB	203872	n/a	LTP188	ltpFR	9	n/a	n/a	n/a	n/a	n/a	n/a	17	9	7	1	n/a	n/a	n/a	n/a	n/a
409.75	n/a	PROB	204875	n/a	LTP188	ltpFR	9	n/a	n/a	n/a	n/a	n/a	n/a	15	7	1	7	n/a	n/a	n/a	n/a	n/a
411.306	n/a	PROB	205653	n/a	LTP188	ltpFR	9	n/a	n/a	n/a	n/a	n/a	n/a	9	4	4	1	n/a	n/a	n/a	n/a	n/a
412.544	n/a	PROB	206272	n/a	LTP188	ltpFR	9	n/a	n/a	n/a	n/a	n/a	n/a	7	2	3	2	n/a	n/a	n/a	n/a	n/a
414.632	n/a	STOP	207316	n/a	LTP188	ltpFR	9	n/a	n/a	n/a	n/a	n/a	n/a	n/a	n/a	n/a	n/a	n/a	n/a	n/a	n/a	n/a
415.756	n/a	WORD	207878	wordpools/wasnorm_wordpool_less_exclusions.txt	LTP188	ltpFR	9	1	0	SWEATER	1419	n/a	1	n/a	0	0	0	0	0.5869140625	0.422607421875	upper	../fonts/zerothre.ttf
418.77	n/a	START	209385	n/a	LTP188	ltpFR	9	n/a	n/a	n/a	n/a	n/a	n/a	n/a	n/a	n/a	n/a	n/a	n/a	n/a	n/a	n/a
419.722	n/a	PROB	209861	n/a	LTP188	ltpFR	9	n/a	n/a	n/a	n/a	n/a	n/a	15	2	6	7	n/a	n/a	n/a	n/a	n/a
421.614	n/a	PROB	210807	n/a	LTP188	ltpFR	9	n/a	n/a	n/a	n/a	n/a	n/a	16	6	7	3	n/a	n/a	n/a	n/a	n/a
423.0	n/a	PROB	211500	n/a	LTP188	ltpFR	9	n/a	n/a	n/a	n/a	n/a	n/a	17	7	2	8	n/a	n/a	n/a	n/a	n/a
426.77	n/a	STOP	213385	n/a	LTP188	ltpFR	9	n/a	n/a	n/a	n/a	n/a	n/a	n/a	n/a	n/a	n/a	n/a	n/a	n/a	n/a	n/a
427.702	n/a	WORD	213851	wordpools/wasnorm_wordpool_less_exclusions.txt	LTP188	ltpFR	9	1	0	LAMB	797	n/a	1	n/a	0	0	0	0	0.5869140625	0.422607421875	upper	../fonts/zerothre.ttf
430.714	n/a	START	215357	n/a	LTP188	ltpFR	9	n/a	n/a	n/a	n/a	n/a	n/a	n/a	n/a	n/a	n/a	n/a	n/a	n/a	n/a	n/a
431.6	n/a	PROB	215800	n/a	LTP188	ltpFR	9	n/a	n/a	n/a	n/a	n/a	n/a	18	7	8	3	n/a	n/a	n/a	n/a	n/a
434.01	n/a	PROB	217005	n/a	LTP188	ltpFR	9	n/a	n/a	n/a	n/a	n/a	n/a	15	6	4	5	n/a	n/a	n/a	n/a	n/a
436.202	n/a	PROB	218101	n/a	LTP188	ltpFR	9	n/a	n/a	n/a	n/a	n/a	n/a	10	8	1	1	n/a	n/a	n/a	n/a	n/a
437.41	n/a	STOP	218705	n/a	LTP188	ltpFR	9	n/a	n/a	n/a	n/a	n/a	n/a	n/a	n/a	n/a	n/a	n/a	n/a	n/a	n/a	n/a
439.564	n/a	WORD	219782	wordpools/wasnorm_wordpool_less_exclusions.txt	LTP188	ltpFR	9	1	0	BEETLE	116	n/a	0	n/a	0	0	0	0	0.5869140625	0.422607421875	upper	../fonts/zerothre.ttf
442.576	n/a	START	221288	n/a	LTP188	ltpFR	9	n/a	n/a	n/a	n/a	n/a	n/a	n/a	n/a	n/a	n/a	n/a	n/a	n/a	n/a	n/a
443.752	n/a	PROB	221876	n/a	LTP188	ltpFR	9	n/a	n/a	n/a	n/a	n/a	n/a	12	7	4	1	n/a	n/a	n/a	n/a	n/a
445.972	n/a	PROB	222986	n/a	LTP188	ltpFR	9	n/a	n/a	n/a	n/a	n/a	n/a	13	2	5	6	n/a	n/a	n/a	n/a	n/a
448.114	n/a	PROB	224057	n/a	LTP188	ltpFR	9	n/a	n/a	n/a	n/a	n/a	n/a	10	2	2	6	n/a	n/a	n/a	n/a	n/a
450.01	n/a	STOP	225005	n/a	LTP188	ltpFR	9	n/a	n/a	n/a	n/a	n/a	n/a	n/a	n/a	n/a	n/a	n/a	n/a	n/a	n/a	n/a
451.666	n/a	WORD	225833	wordpools/wasnorm_wordpool_less_exclusions.txt	LTP188	ltpFR	9	1	0	CHAMPAGNE	278	n/a	1	n/a	0	0	0	0	0.5869140625	0.422607421875	upper	../fonts/zerothre.ttf
454.674	n/a	START	227337	n/a	LTP188	ltpFR	9	n/a	n/a	n/a	n/a	n/a	n/a	n/a	n/a	n/a	n/a	n/a	n/a	n/a	n/a	n/a
455.644	n/a	PROB	227822	n/a	LTP188	ltpFR	9	n/a	n/a	n/a	n/a	n/a	n/a	16	7	4	5	n/a	n/a	n/a	n/a	n/a
457.4	n/a	PROB	228700	n/a	LTP188	ltpFR	9	n/a	n/a	n/a	n/a	n/a	n/a	16	7	8	1	n/a	n/a	n/a	n/a	n/a
458.938	n/a	PROB	229469	n/a	LTP188	ltpFR	9	n/a	n/a	n/a	n/a	n/a	n/a	15	7	2	6	n/a	n/a	n/a	n/a	n/a
462.13	n/a	STOP	231065	n/a	LTP188	ltpFR	9	n/a	n/a	n/a	n/a	n/a	n/a	n/a	n/a	n/a	n/a	n/a	n/a	n/a	n/a	n/a
463.724	n/a	WORD	231862	wordpools/wasnorm_wordpool_less_exclusions.txt	LTP188	ltpFR	9	1	0	RANCH	1166	n/a	1	n/a	0	0	0	0	0.5869140625	0.422607421875	upper	../fonts/zerothre.ttf
466.736	n/a	START	233368	n/a	LTP188	ltpFR	9	n/a	n/a	n/a	n/a	n/a	n/a	n/a	n/a	n/a	n/a	n/a	n/a	n/a	n/a	n/a
467.57	n/a	PROB	233785	n/a	LTP188	ltpFR	9	n/a	n/a	n/a	n/a	n/a	n/a	13	3	8	2	n/a	n/a	n/a	n/a	n/a
468.892	n/a	PROB	234446	n/a	LTP188	ltpFR	9	n/a	n/a	n/a	n/a	n/a	n/a	20	5	7	8	n/a	n/a	n/a	n/a	n/a
473.956	n/a	STOP	236978	n/a	LTP188	ltpFR	9	n/a	n/a	n/a	n/a	n/a	n/a	n/a	n/a	n/a	n/a	n/a	n/a	n/a	n/a	n/a
475.72	n/a	WORD	237860	wordpools/wasnorm_wordpool_less_exclusions.txt	LTP188	ltpFR	9	1	0	CABIN	211	n/a	1	n/a	0	0	0	0	0.5869140625	0.422607421875	upper	../fonts/zerothre.ttf
478.732	n/a	START	239366	n/a	LTP188	ltpFR	9	n/a	n/a	n/a	n/a	n/a	n/a	n/a	n/a	n/a	n/a	n/a	n/a	n/a	n/a	n/a
479.686	n/a	PROB	239843	n/a	LTP188	ltpFR	9	n/a	n/a	n/a	n/a	n/a	n/a	20	8	5	7	n/a	n/a	n/a	n/a	n/a
481.96	n/a	PROB	240980	n/a	LTP188	ltpFR	9	n/a	n/a	n/a	n/a	n/a	n/a	5	1	1	3	n/a	n/a	n/a	n/a	n/a
483.382	n/a	PROB	241691	n/a	LTP188	ltpFR	9	n/a	n/a	n/a	n/a	n/a	n/a	19	4	7	8	n/a	n/a	n/a	n/a	n/a
485.372	n/a	STOP	242686	n/a	LTP188	ltpFR	9	n/a	n/a	n/a	n/a	n/a	n/a	n/a	n/a	n/a	n/a	n/a	n/a	n/a	n/a	n/a
487.848	n/a	WORD	243924	wordpools/wasnorm_wordpool_less_exclusions.txt	LTP188	ltpFR	9	1	0	SHEET	1279	n/a	0	n/a	0	0	0	0	0.5869140625	0.422607421875	upper	../fonts/zerothre.ttf
490.86	n/a	START	245430	n/a	LTP188	ltpFR	9	n/a	n/a	n/a	n/a	n/a	n/a	n/a	n/a	n/a	n/a	n/a	n/a	n/a	n/a	n/a
491.748	n/a	PROB	245874	n/a	LTP188	ltpFR	9	n/a	n/a	n/a	n/a	n/a	n/a	9	2	2	5	n/a	n/a	n/a	n/a	n/a
493.47	n/a	PROB	246735	n/a	LTP188	ltpFR	9	n/a	n/a	n/a	n/a	n/a	n/a	15	6	3	6	n/a	n/a	n/a	n/a	n/a
496.784	n/a	PROB	248392	n/a	LTP188	ltpFR	9	n/a	n/a	n/a	n/a	n/a	n/a	18	3	6	9	n/a	n/a	n/a	n/a	n/a
498.726	n/a	STOP	249363	n/a	LTP188	ltpFR	9	n/a	n/a	n/a	n/a	n/a	n/a	n/a	n/a	n/a	n/a	n/a	n/a	n/a	n/a	n/a
499.978	n/a	WORD	249989	wordpools/wasnorm_wordpool_less_exclusions.txt	LTP188	ltpFR	9	1	0	NOTEBOOK	959	n/a	0	n/a	0	0	0	0	0.5869140625	0.422607421875	upper	../fonts/zerothre.ttf
502.99	n/a	START	251495	n/a	LTP188	ltpFR	9	n/a	n/a	n/a	n/a	n/a	n/a	n/a	n/a	n/a	n/a	n/a	n/a	n/a	n/a	n/a
503.944	n/a	PROB	251972	n/a	LTP188	ltpFR	9	n/a	n/a	n/a	n/a	n/a	n/a	14	3	7	4	n/a	n/a	n/a	n/a	n/a
506.052	n/a	PROB	253026	n/a	LTP188	ltpFR	9	n/a	n/a	n/a	n/a	n/a	n/a	23	7	8	8	n/a	n/a	n/a	n/a	n/a
509.524	n/a	STOP	254762	n/a	LTP188	ltpFR	9	n/a	n/a	n/a	n/a	n/a	n/a	n/a	n/a	n/a	n/a	n/a	n/a	n/a	n/a	n/a
512.142	n/a	WORD	256071	wordpools/wasnorm_wordpool_less_exclusions.txt	LTP188	ltpFR	9	1	0	DUNE	506	n/a	1	n/a	0	0	0	0	0.5869140625	0.422607421875	upper	../fonts/zerothre.ttf
515.154	n/a	START	257577	n/a	LTP188	ltpFR	9	n/a	n/a	n/a	n/a	n/a	n/a	n/a	n/a	n/a	n/a	n/a	n/a	n/a	n/a	n/a
516.024	n/a	PROB	258012	n/a	LTP188	ltpFR	9	n/a	n/a	n/a	n/a	n/a	n/a	18	2	9	7	n/a	n/a	n/a	n/a	n/a
517.83	n/a	PROB	258915	n/a	LTP188	ltpFR	9	n/a	n/a	n/a	n/a	n/a	n/a	17	9	7	1	n/a	n/a	n/a	n/a	n/a
519.638	n/a	PROB	259819	n/a	LTP188	ltpFR	9	n/a	n/a	n/a	n/a	n/a	n/a	14	3	4	7	n/a	n/a	n/a	n/a	n/a
523.152	n/a	STOP	261576	n/a	LTP188	ltpFR	9	n/a	n/a	n/a	n/a	n/a	n/a	n/a	n/a	n/a	n/a	n/a	n/a	n/a	n/a	n/a
524.074	n/a	WORD	262037	wordpools/wasnorm_wordpool_less_exclusions.txt	LTP188	ltpFR	9	1	0	WASP	1593	n/a	0	n/a	0	0	0	0	0.5869140625	0.422607421875	upper	../fonts/zerothre.ttf
527.082	n/a	START	263541	n/a	LTP188	ltpFR	9	n/a	n/a	n/a	n/a	n/a	n/a	n/a	n/a	n/a	n/a	n/a	n/a	n/a	n/a	n/a
528.186	n/a	PROB	264093	n/a	LTP188	ltpFR	9	n/a	n/a	n/a	n/a	n/a	n/a	19	3	9	7	n/a	n/a	n/a	n/a	n/a
530.578	n/a	PROB	265289	n/a	LTP188	ltpFR	9	n/a	n/a	n/a	n/a	n/a	n/a	6	1	1	4	n/a	n/a	n/a	n/a	n/a
535.084	n/a	STOP	267542	n/a	LTP188	ltpFR	9	n/a	n/a	n/a	n/a	n/a	n/a	n/a	n/a	n/a	n/a	n/a	n/a	n/a	n/a	n/a
535.952	n/a	WORD	267976	wordpools/wasnorm_wordpool_less_exclusions.txt	LTP188	ltpFR	9	1	0	SALOON	1228	n/a	1	n/a	0	0	0	0	0.5869140625	0.422607421875	upper	../fonts/zerothre.ttf
538.962	n/a	START	269481	n/a	LTP188	ltpFR	9	n/a	n/a	n/a	n/a	n/a	n/a	n/a	n/a	n/a	n/a	n/a	n/a	n/a	n/a	n/a
539.93	n/a	PROB	269965	n/a	LTP188	ltpFR	9	n/a	n/a	n/a	n/a	n/a	n/a	16	5	4	7	n/a	n/a	n/a	n/a	n/a
542.122	n/a	PROB	271061	n/a	LTP188	ltpFR	9	n/a	n/a	n/a	n/a	n/a	n/a	14	6	7	1	n/a	n/a	n/a	n/a	n/a
544.314	n/a	PROB	272157	n/a	LTP188	ltpFR	9	n/a	n/a	n/a	n/a	n/a	n/a	17	8	1	8	n/a	n/a	n/a	n/a	n/a
546.23	n/a	STOP	273115	n/a	LTP188	ltpFR	9	n/a	n/a	n/a	n/a	n/a	n/a	n/a	n/a	n/a	n/a	n/a	n/a	n/a	n/a	n/a
547.978	n/a	WORD	273989	wordpools/wasnorm_wordpool_less_exclusions.txt	LTP188	ltpFR	9	1	0	MATTRESS	879	n/a	1	n/a	0	0	0	0	0.5869140625	0.422607421875	upper	../fonts/zerothre.ttf
550.99	n/a	START	275495	n/a	LTP188	ltpFR	9	n/a	n/a	n/a	n/a	n/a	n/a	n/a	n/a	n/a	n/a	n/a	n/a	n/a	n/a	n/a
551.86	n/a	PROB	275930	n/a	LTP188	ltpFR	9	n/a	n/a	n/a	n/a	n/a	n/a	17	8	7	2	n/a	n/a	n/a	n/a	n/a
553.534	n/a	PROB	276767	n/a	LTP188	ltpFR	9	n/a	n/a	n/a	n/a	n/a	n/a	20	5	9	6	n/a	n/a	n/a	n/a	n/a
556.042	n/a	PROB	278021	n/a	LTP188	ltpFR	9	n/a	n/a	n/a	n/a	n/a	n/a	13	3	1	9	n/a	n/a	n/a	n/a	n/a
557.768	n/a	STOP	278884	n/a	LTP188	ltpFR	9	n/a	n/a	n/a	n/a	n/a	n/a	n/a	n/a	n/a	n/a	n/a	n/a	n/a	n/a	n/a
559.874	n/a	WORD	279937	wordpools/wasnorm_wordpool_less_exclusions.txt	LTP188	ltpFR	9	1	0	GOO	648	n/a	0	n/a	0	0	0	0	0.5869140625	0.422607421875	upper	../fonts/zerothre.ttf
562.886	n/a	START	281443	n/a	LTP188	ltpFR	9	n/a	n/a	n/a	n/a	n/a	n/a	n/a	n/a	n/a	n/a	n/a	n/a	n/a	n/a	n/a
563.722	n/a	PROB	281861	n/a	LTP188	ltpFR	9	n/a	n/a	n/a	n/a	n/a	n/a	17	9	3	5	n/a	n/a	n/a	n/a	n/a
566.298	n/a	PROB	283149	n/a	LTP188	ltpFR	9	n/a	n/a	n/a	n/a	n/a	n/a	11	8	1	2	n/a	n/a	n/a	n/a	n/a
567.604	n/a	PROB	283802	n/a	LTP188	ltpFR	9	n/a	n/a	n/a	n/a	n/a	n/a	15	3	7	5	n/a	n/a	n/a	n/a	n/a
570.886	n/a	STOP	285443	n/a	LTP188	ltpFR	9	n/a	n/a	n/a	n/a	n/a	n/a	n/a	n/a	n/a	n/a	n/a	n/a	n/a	n/a	n/a
572.642	n/a	REC_START	286321	n/a	LTP188	ltpFR	9	1	n/a	n/a	n/a	n/a	n/a	n/a	0	0	0	n/a	n/a	n/a	n/a	n/a
574.222	n/a	REC_WORD	287111	wordpools/wasnorm_wordpool_less_exclusions.txt	LTP188	ltpFR	9	1	0	PURSE	1145	n/a	1	n/a	0	0	0	n/a	n/a	n/a	n/a	n/a
576.138	n/a	REC_WORD	288069	wordpools/wasnorm_wordpool_less_exclusions.txt	LTP188	ltpFR	9	1	0	DUNE	506	n/a	1	n/a	0	0	0	n/a	n/a	n/a	n/a	n/a
580.164	n/a	REC_WORD	290082	wordpools/wasnorm_wordpool_less_exclusions.txt	LTP188	ltpFR	9	1	0	GOO	648	n/a	0	n/a	0	0	0	n/a	n/a	n/a	n/a	n/a
584.794	n/a	REC_WORD	292397	wordpools/wasnorm_wordpool_less_exclusions.txt	LTP188	ltpFR	9	1	n/a	WRENCH	1625	n/a	n/a	n/a	0	0	0	n/a	n/a	n/a	n/a	n/a
625.554	n/a	REC_WORD	312777	wordpools/wasnorm_wordpool_less_exclusions.txt	LTP188	ltpFR	9	1	0	CASH	252	n/a	0	n/a	0	0	0	n/a	n/a	n/a	n/a	n/a
651.908	n/a	WORD	325954	wordpools/wasnorm_wordpool_less_exclusions.txt	LTP188	ltpFR	9	2	0	HAND	683	n/a	n/a	n/a	0	0	0	0	0.5869140625	0.422607421875	upper	../fonts/zerothre.ttf
654.94	n/a	SLOW_MSG	327470	n/a	LTP188	ltpFR	9	2	n/a	n/a	n/a	n/a	n/a	n/a	0	0	0	n/a	n/a	n/a	n/a	n/a
657.362	n/a	WORD	328681	wordpools/wasnorm_wordpool_less_exclusions.txt	LTP188	ltpFR	9	2	0	MOTH	920	n/a	n/a	n/a	0	0	0	0	0.5869140625	0.422607421875	upper	../fonts/zerothre.ttf
660.408	n/a	SLOW_MSG	330204	n/a	LTP188	ltpFR	9	2	n/a	n/a	n/a	n/a	n/a	n/a	0	0	0	n/a	n/a	n/a	n/a	n/a
662.85	n/a	WORD	331425	wordpools/wasnorm_wordpool_less_exclusions.txt	LTP188	ltpFR	9	2	0	DIVER	476	n/a	1	n/a	0	0	0	0	0.5869140625	0.422607421875	upper	../fonts/zerothre.ttf
666.7	n/a	WORD	333350	wordpools/wasnorm_wordpool_less_exclusions.txt	LTP188	ltpFR	9	2	1	JUG	762	n/a	0	n/a	0	0	0	1	0.412841796875	0.57763671875	lower	../fonts/amplitud.ttf
670.514	n/a	WORD	335257	wordpools/wasnorm_wordpool_less_exclusions.txt	LTP188	ltpFR	9	2	1	KNOT	788	n/a	2	n/a	0	0	0	1	0.412841796875	0.57763671875	lower	../fonts/amplitud.ttf
670.648	n/a	KEY_MSG	335324	n/a	LTP188	ltpFR	9	2	n/a	n/a	n/a	n/a	n/a	n/a	0	0	0	n/a	n/a	n/a	n/a	n/a
674.512	n/a	WORD	337256	wordpools/wasnorm_wordpool_less_exclusions.txt	LTP188	ltpFR	9	2	1	WITCH	1617	n/a	1	n/a	0	0	0	1	0.412841796875	0.57763671875	lower	../fonts/amplitud.ttf
678.612	n/a	WORD	339306	wordpools/wasnorm_wordpool_less_exclusions.txt	LTP188	ltpFR	9	2	1	SEA	1259	n/a	0	n/a	0	0	0	1	0.412841796875	0.57763671875	lower	../fonts/amplitud.ttf
682.542	n/a	WORD	341271	wordpools/wasnorm_wordpool_less_exclusions.txt	LTP188	ltpFR	9	2	0	PUDDLE	1140	n/a	0	n/a	0	0	0	0	0.5869140625	0.422607421875	upper	../fonts/zerothre.ttf
686.592	n/a	WORD	343296	wordpools/wasnorm_wordpool_less_exclusions.txt	LTP188	ltpFR	9	2	0	GRATE	657	n/a	1	n/a	0	0	0	0	0.5869140625	0.422607421875	upper	../fonts/zerothre.ttf
690.59	n/a	WORD	345295	wordpools/wasnorm_wordpool_less_exclusions.txt	LTP188	ltpFR	9	2	0	BUG	187	n/a	0	n/a	0	0	0	0	0.5869140625	0.422607421875	upper	../fonts/zerothre.ttf
694.774	n/a	WORD	347387	wordpools/wasnorm_wordpool_less_exclusions.txt	LTP188	ltpFR	9	2	0	PADDING	999	n/a	1	n/a	0	0	0	0	0.5869140625	0.422607421875	upper	../fonts/zerothre.ttf
698.672	n/a	WORD	349336	wordpools/wasnorm_wordpool_less_exclusions.txt	LTP188	ltpFR	9	2	0	VEGETABLE	1552	n/a	0	n/a	0	0	0	0	0.5869140625	0.422607421875	upper	../fonts/zerothre.ttf
702.788	n/a	WORD	351394	wordpools/wasnorm_wordpool_less_exclusions.txt	LTP188	ltpFR	9	2	1	TRIBE	1505	n/a	1	n/a	0	0	0	1	0.412841796875	0.57763671875	lower	../fonts/amplitud.ttf
706.92	n/a	WORD	353460	wordpools/wasnorm_wordpool_less_exclusions.txt	LTP188	ltpFR	9	2	1	BENCH	121	n/a	0	n/a	0	0	0	1	0.412841796875	0.57763671875	lower	../fonts/amplitud.ttf
710.834	n/a	WORD	355417	wordpools/wasnorm_wordpool_less_exclusions.txt	LTP188	ltpFR	9	2	1	SKETCH	1315	n/a	0	n/a	0	0	0	1	0.412841796875	0.57763671875	lower	../fonts/amplitud.ttf
714.666	n/a	WORD	357333	wordpools/wasnorm_wordpool_less_exclusions.txt	LTP188	ltpFR	9	2	1	PAINT	1003	n/a	0	n/a	0	0	0	1	0.412841796875	0.57763671875	lower	../fonts/amplitud.ttf
717.678	n/a	START	358839	n/a	LTP188	ltpFR	9	n/a	n/a	n/a	n/a	n/a	n/a	n/a	n/a	n/a	n/a	n/a	n/a	n/a	n/a	n/a
718.6	n/a	PROB	359300	n/a	LTP188	ltpFR	9	n/a	n/a	n/a	n/a	n/a	n/a	18	4	6	8	n/a	n/a	n/a	n/a	n/a
720.738	n/a	PROB	360369	n/a	LTP188	ltpFR	9	n/a	n/a	n/a	n/a	n/a	n/a	17	7	5	5	n/a	n/a	n/a	n/a	n/a
725.678	n/a	STOP	362839	n/a	LTP188	ltpFR	9	n/a	n/a	n/a	n/a	n/a	n/a	n/a	n/a	n/a	n/a	n/a	n/a	n/a	n/a	n/a
727.498	n/a	REC_START	363749	n/a	LTP188	ltpFR	9	2	n/a	n/a	n/a	n/a	n/a	n/a	0	0	0	n/a	n/a	n/a	n/a	n/a
728.62	n/a	REC_WORD	364310	wordpools/wasnorm_wordpool_less_exclusions.txt	LTP188	ltpFR	9	2	1	TRIBE	1505	n/a	1	n/a	0	0	0	n/a	n/a	n/a	n/a	n/a
729.614	n/a	REC_WORD	364807	wordpools/wasnorm_wordpool_less_exclusions.txt	LTP188	ltpFR	9	2	1	BENCH	121	n/a	0	n/a	0	0	0	n/a	n/a	n/a	n/a	n/a
730.496	n/a	REC_WORD	365248	wordpools/wasnorm_wordpool_less_exclusions.txt	LTP188	ltpFR	9	2	0	BUG	187	n/a	0	n/a	0	0	0	n/a	n/a	n/a	n/a	n/a
736.488	n/a	REC_WORD	368244	wordpools/wasnorm_wordpool_less_exclusions.txt	LTP188	ltpFR	9	2	0	VEGETABLE	1552	n/a	0	n/a	0	0	0	n/a	n/a	n/a	n/a	n/a
903.688	n/a	WORD	451844	wordpools/wasnorm_wordpool_less_exclusions.txt	LTP188	ltpFR	9	3	1	HEDGE	699	n/a	0	n/a	0	0	0	1	0.412841796875	0.57763671875	lower	../fonts/amplitud.ttf
907.636	n/a	WORD	453818	wordpools/wasnorm_wordpool_less_exclusions.txt	LTP188	ltpFR	9	3	1	FISH	571	n/a	1	n/a	0	0	0	1	0.412841796875	0.57763671875	lower	../fonts/amplitud.ttf
911.584	n/a	WORD	455792	wordpools/wasnorm_wordpool_less_exclusions.txt	LTP188	ltpFR	9	3	1	RAG	1160	n/a	0	n/a	0	0	0	1	0.412841796875	0.57763671875	lower	../fonts/amplitud.ttf
915.684	n/a	WORD	457842	wordpools/wasnorm_wordpool_less_exclusions.txt	LTP188	ltpFR	9	3	1	BIRD	129	n/a	1	n/a	0	0	0	1	0.412841796875	0.57763671875	lower	../fonts/amplitud.ttf
919.85	n/a	WORD	459925	wordpools/wasnorm_wordpool_less_exclusions.txt	LTP188	ltpFR	9	3	1	DOVE	491	n/a	1	n/a	0	0	0	1	0.412841796875	0.57763671875	lower	../fonts/amplitud.ttf
923.898	n/a	WORD	461949	wordpools/wasnorm_wordpool_less_exclusions.txt	LTP188	ltpFR	9	3	1	GRAPE	654	n/a	0	n/a	0	0	0	1	0.412841796875	0.57763671875	lower	../fonts/amplitud.ttf
927.818	n/a	WORD	463909	wordpools/wasnorm_wordpool_less_exclusions.txt	LTP188	ltpFR	9	3	0	PLANT	1083	n/a	1	n/a	0	0	0	0	0.5869140625	0.422607421875	upper	../fonts/zerothre.ttf
931.73	n/a	WORD	465865	wordpools/wasnorm_wordpool_less_exclusions.txt	LTP188	ltpFR	9	3	0	HEN	703	n/a	1	n/a	0	0	0	0	0.5869140625	0.422607421875	upper	../fonts/zerothre.ttf
935.878	n/a	WORD	467939	wordpools/wasnorm_wordpool_less_exclusions.txt	LTP188	ltpFR	9	3	0	DRAWER	493	n/a	1	n/a	0	0	0	0	0.5869140625	0.422607421875	upper	../fonts/zerothre.ttf
939.812	n/a	WORD	469906	wordpools/wasnorm_wordpool_less_exclusions.txt	LTP188	ltpFR	9	3	0	BANANA	77	n/a	0	n/a	0	0	0	0	0.5869140625	0.422607421875	upper	../fonts/zerothre.ttf
943.758	n/a	WORD	471879	wordpools/wasnorm_wordpool_less_exclusions.txt	LTP188	ltpFR	9	3	0	ROOST	1208	n/a	1	n/a	0	0	0	0	0.5869140625	0.422607421875	upper	../fonts/zerothre.ttf
947.922	n/a	WORD	473961	wordpools/wasnorm_wordpool_less_exclusions.txt	LTP188	ltpFR	9	3	1	SUGAR	1401	n/a	1	n/a	0	0	0	1	0.412841796875	0.57763671875	lower	../fonts/amplitud.ttf
952.122	n/a	WORD	476061	wordpools/wasnorm_wordpool_less_exclusions.txt	LTP188	ltpFR	9	3	1	VINEGAR	1569	n/a	0	n/a	0	0	0	1	0.412841796875	0.57763671875	lower	../fonts/amplitud.ttf
956.122	n/a	WORD	478061	wordpools/wasnorm_wordpool_less_exclusions.txt	LTP188	ltpFR	9	3	0	WAVE	1596	n/a	1	n/a	0	0	0	0	0.5869140625	0.422607421875	upper	../fonts/zerothre.ttf
960.286	n/a	WORD	480143	wordpools/wasnorm_wordpool_less_exclusions.txt	LTP188	ltpFR	9	3	0	SHOWER	1296	n/a	1	n/a	0	0	0	0	0.5869140625	0.422607421875	upper	../fonts/zerothre.ttf
964.374	n/a	WORD	482187	wordpools/wasnorm_wordpool_less_exclusions.txt	LTP188	ltpFR	9	3	0	LOOP	844	n/a	0	n/a	0	0	0	0	0.5869140625	0.422607421875	upper	../fonts/zerothre.ttf
967.38	n/a	START	483690	n/a	LTP188	ltpFR	9	n/a	n/a	n/a	n/a	n/a	n/a	n/a	n/a	n/a	n/a	n/a	n/a	n/a	n/a	n/a
968.354	n/a	PROB	484177	n/a	LTP188	ltpFR	9	n/a	n/a	n/a	n/a	n/a	n/a	9	6	1	2	n/a	n/a	n/a	n/a	n/a
970.31	n/a	PROB	485155	n/a	LTP188	ltpFR	9	n/a	n/a	n/a	n/a	n/a	n/a	15	7	2	6	n/a	n/a	n/a	n/a	n/a
972.316	n/a	PROB	486158	n/a	LTP188	ltpFR	9	n/a	n/a	n/a	n/a	n/a	n/a	11	5	5	1	n/a	n/a	n/a	n/a	n/a
973.522	n/a	PROB	486761	n/a	LTP188	ltpFR	9	n/a	n/a	n/a	n/a	n/a	n/a	23	5	9	9	n/a	n/a	n/a	n/a	n/a
975.328	n/a	PROB	487664	n/a	LTP188	ltpFR	9	n/a	n/a	n/a	n/a	n/a	n/a	19	6	8	5	n/a	n/a	n/a	n/a	n/a
978.138	n/a	PROB	489069	n/a	LTP188	ltpFR	9	n/a	n/a	n/a	n/a	n/a	n/a	13	6	2	5	n/a	n/a	n/a	n/a	n/a
979.896	n/a	PROB	489948	n/a	LTP188	ltpFR	9	n/a	n/a	n/a	n/a	n/a	n/a	24	8	8	6	n/a	n/a	n/a	n/a	n/a
982.078	n/a	STOP	491039	n/a	LTP188	ltpFR	9	n/a	n/a	n/a	n/a	n/a	n/a	n/a	n/a	n/a	n/a	n/a	n/a	n/a	n/a	n/a
985.334	n/a	REC_START	492667	n/a	LTP188	ltpFR	9	3	n/a	n/a	n/a	n/a	n/a	n/a	0	0	0	n/a	n/a	n/a	n/a	n/a
991.166	n/a	REC_WORD	495583	wordpools/wasnorm_wordpool_less_exclusions.txt	LTP188	ltpFR	9	3	1	HEDGE	699	n/a	0	n/a	0	0	0	n/a	n/a	n/a	n/a	n/a
994.688	n/a	REC_WORD	497344	wordpools/wasnorm_wordpool_less_exclusions.txt	LTP188	ltpFR	9	3	0	BANANA	77	n/a	0	n/a	0	0	0	n/a	n/a	n/a	n/a	n/a
1003.098	n/a	REC_WORD	501549	wordpools/wasnorm_wordpool_less_exclusions.txt	LTP188	ltpFR	9	3	1	GRAPE	654	n/a	0	n/a	0	0	0	n/a	n/a	n/a	n/a	n/a
1025.714	n/a	REC_WORD	512857	wordpools/wasnorm_wordpool_less_exclusions.txt	LTP188	ltpFR	9	3	1	VINEGAR	1569	n/a	0	n/a	0	0	0	n/a	n/a	n/a	n/a	n/a
1072.416	n/a	WORD	536208	wordpools/wasnorm_wordpool_less_exclusions.txt	LTP188	ltpFR	9	4	0	SUBWAY	1400	n/a	1	n/a	0	0	0	0	0.5869140625	0.422607421875	upper	../fonts/zerothre.ttf
1076.364	n/a	WORD	538182	wordpools/wasnorm_wordpool_less_exclusions.txt	LTP188	ltpFR	9	4	0	DOCUMENT	479	n/a	1	n/a	0	0	0	0	0.5869140625	0.422607421875	upper	../fonts/zerothre.ttf
1080.412	n/a	WORD	540206	wordpools/wasnorm_wordpool_less_exclusions.txt	LTP188	ltpFR	9	4	1	CRYSTAL	418	n/a	0	n/a	0	0	0	1	0.412841796875	0.57763671875	lower	../fonts/amplitud.ttf
1084.446	n/a	WORD	542223	wordpools/wasnorm_wordpool_less_exclusions.txt	LTP188	ltpFR	9	4	1	BEAD	103	n/a	0	n/a	0	0	0	1	0.412841796875	0.57763671875	lower	../fonts/amplitud.ttf
1088.292	n/a	WORD	544146	wordpools/wasnorm_wordpool_less_exclusions.txt	LTP188	ltpFR	9	4	1	OX	994	n/a	1	n/a	0	0	0	1	0.412841796875	0.57763671875	lower	../fonts/amplitud.ttf
1092.292	n/a	WORD	546146	wordpools/wasnorm_wordpool_less_exclusions.txt	LTP188	ltpFR	9	4	1	STAPLER	1372	n/a	0	n/a	0	0	0	1	0.412841796875	0.57763671875	lower	../fonts/amplitud.ttf
1096.222	n/a	WORD	548111	wordpools/wasnorm_wordpool_less_exclusions.txt	LTP188	ltpFR	9	4	0	HEART	697	n/a	0	n/a	0	0	0	0	0.5869140625	0.422607421875	upper	../fonts/zerothre.ttf
1100.16	n/a	WORD	550080	wordpools/wasnorm_wordpool_less_exclusions.txt	LTP188	ltpFR	9	4	0	VEIN	1554	n/a	0	n/a	0	0	0	0	0.5869140625	0.422607421875	upper	../fonts/zerothre.ttf
1104.322	n/a	WORD	552161	wordpools/wasnorm_wordpool_less_exclusions.txt	LTP188	ltpFR	9	4	0	CREATURE	403	n/a	1	n/a	0	0	0	0	0.5869140625	0.422607421875	upper	../fonts/zerothre.ttf
1108.22	n/a	WORD	554110	wordpools/wasnorm_wordpool_less_exclusions.txt	LTP188	ltpFR	9	4	0	MINK	897	n/a	1	n/a	0	0	0	0	0.5869140625	0.422607421875	upper	../fonts/zerothre.ttf
1112.318	n/a	WORD	556159	wordpools/wasnorm_wordpool_less_exclusions.txt	LTP188	ltpFR	9	4	1	TOOTHBRUSH	1482	n/a	0	n/a	0	0	0	1	0.412841796875	0.57763671875	lower	../fonts/amplitud.ttf
1116.216	n/a	WORD	558108	wordpools/wasnorm_wordpool_less_exclusions.txt	LTP188	ltpFR	9	4	1	WORKER	1621	n/a	1	n/a	0	0	0	1	0.412841796875	0.57763671875	lower	../fonts/amplitud.ttf
1120.354	n/a	WORD	560177	wordpools/wasnorm_wordpool_less_exclusions.txt	LTP188	ltpFR	9	4	1	KEY	773	n/a	0	n/a	0	0	0	1	0.412841796875	0.57763671875	lower	../fonts/amplitud.ttf
1124.18	n/a	WORD	562090	wordpools/wasnorm_wordpool_less_exclusions.txt	LTP188	ltpFR	9	4	1	HALL	677	n/a	0	n/a	0	0	0	1	0.412841796875	0.57763671875	lower	../fonts/amplitud.ttf
1128.262	n/a	WORD	564131	wordpools/wasnorm_wordpool_less_exclusions.txt	LTP188	ltpFR	9	4	0	PLATE	1086	n/a	0	n/a	0	0	0	0	0.5869140625	0.422607421875	upper	../fonts/zerothre.ttf
1132.278	n/a	WORD	566139	wordpools/wasnorm_wordpool_less_exclusions.txt	LTP188	ltpFR	9	4	0	CONDUCTOR	362	n/a	1	n/a	0	0	0	0	0.5869140625	0.422607421875	upper	../fonts/zerothre.ttf
1135.29	n/a	START	567645	n/a	LTP188	ltpFR	9	n/a	n/a	n/a	n/a	n/a	n/a	n/a	n/a	n/a	n/a	n/a	n/a	n/a	n/a	n/a
1136.494	n/a	PROB	568247	n/a	LTP188	ltpFR	9	n/a	n/a	n/a	n/a	n/a	n/a	20	2	9	9	n/a	n/a	n/a	n/a	n/a
1138.334	n/a	PROB	569167	n/a	LTP188	ltpFR	9	n/a	n/a	n/a	n/a	n/a	n/a	9	3	2	4	n/a	n/a	n/a	n/a	n/a
1140.894	n/a	PROB	570447	n/a	LTP188	ltpFR	9	n/a	n/a	n/a	n/a	n/a	n/a	15	6	2	7	n/a	n/a	n/a	n/a	n/a
1142.55	n/a	STOP	571275	n/a	LTP188	ltpFR	9	n/a	n/a	n/a	n/a	n/a	n/a	n/a	n/a	n/a	n/a	n/a	n/a	n/a	n/a	n/a
1145.212	n/a	REC_START	572606	n/a	LTP188	ltpFR	9	4	n/a	n/a	n/a	n/a	n/a	n/a	0	0	0	n/a	n/a	n/a	n/a	n/a
1146.812	n/a	REC_WORD	573406	wordpools/wasnorm_wordpool_less_exclusions.txt	LTP188	ltpFR	9	4	0	MINK	897	n/a	1	n/a	0	0	0	n/a	n/a	n/a	n/a	n/a
1148.044	n/a	REC_WORD	574022	wordpools/wasnorm_wordpool_less_exclusions.txt	LTP188	ltpFR	9	4	0	CONDUCTOR	362	n/a	1	n/a	0	0	0	n/a	n/a	n/a	n/a	n/a
1166.694	n/a	REC_WORD	583347	wordpools/wasnorm_wordpool_less_exclusions.txt	LTP188	ltpFR	9	4	0	HEART	697	n/a	0	n/a	0	0	0	n/a	n/a	n/a	n/a	n/a
1167.472	n/a	REC_WORD	583736	wordpools/wasnorm_wordpool_less_exclusions.txt	LTP188	ltpFR	9	4	0	VEIN	1554	n/a	0	n/a	0	0	0	n/a	n/a	n/a	n/a	n/a
1178.732	n/a	REC_WORD	589366	wordpools/wasnorm_wordpool_less_exclusions.txt	LTP188	ltpFR	9	4	1	WORKER	1621	n/a	1	n/a	0	0	0	n/a	n/a	n/a	n/a	n/a
1264.198	n/a	WORD	632099	wordpools/wasnorm_wordpool_less_exclusions.txt	LTP188	ltpFR	9	5	0	PORT	1110	n/a	1	n/a	0	0	0	0	0.5869140625	0.422607421875	upper	../fonts/zerothre.ttf
1268.032	n/a	WORD	634016	wordpools/wasnorm_wordpool_less_exclusions.txt	LTP188	ltpFR	9	5	0	DRESS	495	n/a	1	n/a	0	0	0	0	0.5869140625	0.422607421875	upper	../fonts/zerothre.ttf
1272.146	n/a	WORD	636073	wordpools/wasnorm_wordpool_less_exclusions.txt	LTP188	ltpFR	9	5	0	TROUSERS	1510	n/a	0	n/a	0	0	0	0	0.5869140625	0.422607421875	upper	../fonts/zerothre.ttf
1276.298	n/a	WORD	638149	wordpools/wasnorm_wordpool_less_exclusions.txt	LTP188	ltpFR	9	5	0	ANTENNA	28	n/a	0	n/a	0	0	0	0	0.5869140625	0.422607421875	upper	../fonts/zerothre.ttf
1280.16	n/a	WORD	640080	wordpools/wasnorm_wordpool_less_exclusions.txt	LTP188	ltpFR	9	5	0	EMERALD	528	n/a	0	n/a	0	0	0	0	0.5869140625	0.422607421875	upper	../fonts/zerothre.ttf
1284.008	n/a	WORD	642004	wordpools/wasnorm_wordpool_less_exclusions.txt	LTP188	ltpFR	9	5	0	SLEEVE	1324	n/a	0	n/a	0	0	0	0	0.5869140625	0.422607421875	upper	../fonts/zerothre.ttf
1287.992	n/a	WORD	643996	wordpools/wasnorm_wordpool_less_exclusions.txt	LTP188	ltpFR	9	5	0	MOTHER	921	n/a	1	n/a	0	0	0	0	0.5869140625	0.422607421875	upper	../fonts/zerothre.ttf
1291.872	n/a	WORD	645936	wordpools/wasnorm_wordpool_less_exclusions.txt	LTP188	ltpFR	9	5	0	KNUCKLE	789	n/a	0	n/a	0	0	0	0	0.5869140625	0.422607421875	upper	../fonts/zerothre.ttf
1295.954	n/a	WORD	647977	wordpools/wasnorm_wordpool_less_exclusions.txt	LTP188	ltpFR	9	5	0	LACE	792	n/a	0	n/a	0	0	0	0	0.5869140625	0.422607421875	upper	../fonts/zerothre.ttf
1299.97	n/a	WORD	649985	wordpools/wasnorm_wordpool_less_exclusions.txt	LTP188	ltpFR	9	5	0	SKIRT	1319	n/a	0	n/a	0	0	0	0	0.5869140625	0.422607421875	upper	../fonts/zerothre.ttf
1303.9	n/a	WORD	651950	wordpools/wasnorm_wordpool_less_exclusions.txt	LTP188	ltpFR	9	5	0	ZIPPER	1636	n/a	0	n/a	0	0	0	0	0.5869140625	0.422607421875	upper	../fonts/zerothre.ttf
1307.816	n/a	WORD	653908	wordpools/wasnorm_wordpool_less_exclusions.txt	LTP188	ltpFR	9	5	0	TRUMPET	1513	n/a	1	n/a	0	0	0	0	0.5869140625	0.422607421875	upper	../fonts/zerothre.ttf
1311.714	n/a	WORD	655857	wordpools/wasnorm_wordpool_less_exclusions.txt	LTP188	ltpFR	9	5	0	FIDDLE	561	n/a	1	n/a	0	0	0	0	0.5869140625	0.422607421875	upper	../fonts/zerothre.ttf
1315.83	n/a	WORD	657915	wordpools/wasnorm_wordpool_less_exclusions.txt	LTP188	ltpFR	9	5	0	FREEWAY	603	n/a	1	n/a	0	0	0	0	0.5869140625	0.422607421875	upper	../fonts/zerothre.ttf
1319.998	n/a	WORD	659999	wordpools/wasnorm_wordpool_less_exclusions.txt	LTP188	ltpFR	9	5	0	BEAR	106	n/a	1	n/a	0	0	0	0	0.5869140625	0.422607421875	upper	../fonts/zerothre.ttf
1324.026	n/a	WORD	662013	wordpools/wasnorm_wordpool_less_exclusions.txt	LTP188	ltpFR	9	5	0	CAVE	263	n/a	1	n/a	0	0	0	0	0.5869140625	0.422607421875	upper	../fonts/zerothre.ttf
1329.818	n/a	REC_START	664909	n/a	LTP188	ltpFR	9	5	n/a	n/a	n/a	n/a	n/a	n/a	0	0	0	n/a	n/a	n/a	n/a	n/a
1330.542	n/a	REC_WORD	665271	wordpools/wasnorm_wordpool_less_exclusions.txt	LTP188	ltpFR	9	5	0	CAVE	263	n/a	1	n/a	0	0	0	n/a	n/a	n/a	n/a	n/a
1331.404	n/a	REC_WORD	665702	wordpools/wasnorm_wordpool_less_exclusions.txt	LTP188	ltpFR	9	5	0	TRUMPET	1513	n/a	1	n/a	0	0	0	n/a	n/a	n/a	n/a	n/a
1332.302	n/a	REC_WORD	666151	wordpools/wasnorm_wordpool_less_exclusions.txt	LTP188	ltpFR	9	5	0	FIDDLE	561	n/a	1	n/a	0	0	0	n/a	n/a	n/a	n/a	n/a
1338.768	n/a	REC_WORD	669384	wordpools/wasnorm_wordpool_less_exclusions.txt	LTP188	ltpFR	9	5	0	EMERALD	528	n/a	0	n/a	0	0	0	n/a	n/a	n/a	n/a	n/a
1339.416	n/a	REC_WORD	669708	wordpools/wasnorm_wordpool_less_exclusions.txt	LTP188	ltpFR	9	5	0	SLEEVE	1324	n/a	0	n/a	0	0	0	n/a	n/a	n/a	n/a	n/a
1340.34	n/a	REC_WORD	670170	wordpools/wasnorm_wordpool_less_exclusions.txt	LTP188	ltpFR	9	5	0	TROUSERS	1510	n/a	0	n/a	0	0	0	n/a	n/a	n/a	n/a	n/a
1341.412	n/a	REC_WORD	670706	wordpools/wasnorm_wordpool_less_exclusions.txt	LTP188	ltpFR	9	5	0	DRESS	495	n/a	1	n/a	0	0	0	n/a	n/a	n/a	n/a	n/a
1375.656	n/a	REC_WORD	687828	wordpools/wasnorm_wordpool_less_exclusions.txt	LTP188	ltpFR	9	5	0	MOTHER	921	n/a	1	n/a	0	0	0	n/a	n/a	n/a	n/a	n/a
1422.504	n/a	START	711252	n/a	LTP188	ltpFR	9	n/a	n/a	n/a	n/a	n/a	n/a	n/a	n/a	n/a	n/a	n/a	n/a	n/a	n/a	n/a
1424.01	n/a	PROB	712005	n/a	LTP188	ltpFR	9	n/a	n/a	n/a	n/a	n/a	n/a	7	1	1	5	n/a	n/a	n/a	n/a	n/a
1427.256	n/a	PROB	713628	n/a	LTP188	ltpFR	9	n/a	n/a	n/a	n/a	n/a	n/a	12	2	2	8	n/a	n/a	n/a	n/a	n/a
1428.626	n/a	PROB	714313	n/a	LTP188	ltpFR	9	n/a	n/a	n/a	n/a	n/a	n/a	12	9	1	2	n/a	n/a	n/a	n/a	n/a
1429.704	n/a	STOP	714852	n/a	LTP188	ltpFR	9	n/a	n/a	n/a	n/a	n/a	n/a	n/a	n/a	n/a	n/a	n/a	n/a	n/a	n/a	n/a
1431.478	n/a	WORD	715739	wordpools/wasnorm_wordpool_less_exclusions.txt	LTP188	ltpFR	9	6	1	SUBMARINE	1398	n/a	0	n/a	0	0	0	1	0.412841796875	0.57763671875	lower	../fonts/amplitud.ttf
1434.482	n/a	START	717241	n/a	LTP188	ltpFR	9	n/a	n/a	n/a	n/a	n/a	n/a	n/a	n/a	n/a	n/a	n/a	n/a	n/a	n/a	n/a
1435.436	n/a	PROB	717718	n/a	LTP188	ltpFR	9	n/a	n/a	n/a	n/a	n/a	n/a	15	4	3	8	n/a	n/a	n/a	n/a	n/a
1437.242	n/a	PROB	718621	n/a	LTP188	ltpFR	9	n/a	n/a	n/a	n/a	n/a	n/a	16	5	9	2	n/a	n/a	n/a	n/a	n/a
1438.832	n/a	PROB	719416	n/a	LTP188	ltpFR	9	n/a	n/a	n/a	n/a	n/a	n/a	18	1	8	9	n/a	n/a	n/a	n/a	n/a
1440.204	n/a	PROB	720102	n/a	LTP188	ltpFR	9	n/a	n/a	n/a	n/a	n/a	n/a	20	9	9	2	n/a	n/a	n/a	n/a	n/a
1441.582	n/a	STOP	720791	n/a	LTP188	ltpFR	9	n/a	n/a	n/a	n/a	n/a	n/a	n/a	n/a	n/a	n/a	n/a	n/a	n/a	n/a	n/a
1443.438	n/a	WORD	721719	wordpools/wasnorm_wordpool_less_exclusions.txt	LTP188	ltpFR	9	6	1	RIVER	1194	n/a	0	n/a	0	0	0	1	0.412841796875	0.57763671875	lower	../fonts/amplitud.ttf
1446.446	n/a	START	723223	n/a	LTP188	ltpFR	9	n/a	n/a	n/a	n/a	n/a	n/a	n/a	n/a	n/a	n/a	n/a	n/a	n/a	n/a	n/a
1447.448	n/a	PROB	723724	n/a	LTP188	ltpFR	9	n/a	n/a	n/a	n/a	n/a	n/a	17	7	3	7	n/a	n/a	n/a	n/a	n/a
1450.544	n/a	PROB	725272	n/a	LTP188	ltpFR	9	n/a	n/a	n/a	n/a	n/a	n/a	6	1	4	1	n/a	n/a	n/a	n/a	n/a
1451.782	n/a	PROB	725891	n/a	LTP188	ltpFR	9	n/a	n/a	n/a	n/a	n/a	n/a	8	1	2	5	n/a	n/a	n/a	n/a	n/a
1453.136	n/a	STOP	726568	n/a	LTP188	ltpFR	9	n/a	n/a	n/a	n/a	n/a	n/a	n/a	n/a	n/a	n/a	n/a	n/a	n/a	n/a	n/a
1455.312	n/a	WORD	727656	wordpools/wasnorm_wordpool_less_exclusions.txt	LTP188	ltpFR	9	6	1	TURNIP	1521	n/a	1	n/a	0	0	0	1	0.412841796875	0.57763671875	lower	../fonts/amplitud.ttf
1458.324	n/a	START	729162	n/a	LTP188	ltpFR	9	n/a	n/a	n/a	n/a	n/a	n/a	n/a	n/a	n/a	n/a	n/a	n/a	n/a	n/a	n/a
1459.312	n/a	PROB	729656	n/a	LTP188	ltpFR	9	n/a	n/a	n/a	n/a	n/a	n/a	16	8	1	7	n/a	n/a	n/a	n/a	n/a
1461.05	n/a	PROB	730525	n/a	LTP188	ltpFR	9	n/a	n/a	n/a	n/a	n/a	n/a	13	4	3	6	n/a	n/a	n/a	n/a	n/a
1463.696	n/a	PROB	731848	n/a	LTP188	ltpFR	9	n/a	n/a	n/a	n/a	n/a	n/a	11	1	7	3	n/a	n/a	n/a	n/a	n/a
1465.0	n/a	STOP	732500	n/a	LTP188	ltpFR	9	n/a	n/a	n/a	n/a	n/a	n/a	n/a	n/a	n/a	n/a	n/a	n/a	n/a	n/a	n/a
1467.392	n/a	WORD	733696	wordpools/wasnorm_wordpool_less_exclusions.txt	LTP188	ltpFR	9	6	1	LINT	826	n/a	0	n/a	0	0	0	1	0.412841796875	0.57763671875	lower	../fonts/amplitud.ttf
1470.404	n/a	START	735202	n/a	LTP188	ltpFR	9	n/a	n/a	n/a	n/a	n/a	n/a	n/a	n/a	n/a	n/a	n/a	n/a	n/a	n/a	n/a
1471.356	n/a	PROB	735678	n/a	LTP188	ltpFR	9	n/a	n/a	n/a	n/a	n/a	n/a	12	4	5	3	n/a	n/a	n/a	n/a	n/a
1473.734	n/a	PROB	736867	n/a	LTP188	ltpFR	9	n/a	n/a	n/a	n/a	n/a	n/a	15	7	3	5	n/a	n/a	n/a	n/a	n/a
1475.556	n/a	PROB	737778	n/a	LTP188	ltpFR	9	n/a	n/a	n/a	n/a	n/a	n/a	21	3	9	9	n/a	n/a	n/a	n/a	n/a
1477.36	n/a	STOP	738680	n/a	LTP188	ltpFR	9	n/a	n/a	n/a	n/a	n/a	n/a	n/a	n/a	n/a	n/a	n/a	n/a	n/a	n/a	n/a
1479.588	n/a	WORD	739794	wordpools/wasnorm_wordpool_less_exclusions.txt	LTP188	ltpFR	9	6	0	CELLO	268	n/a	0	n/a	0	0	0	0	0.5869140625	0.422607421875	upper	../fonts/zerothre.ttf
1482.6	n/a	START	741300	n/a	LTP188	ltpFR	9	n/a	n/a	n/a	n/a	n/a	n/a	n/a	n/a	n/a	n/a	n/a	n/a	n/a	n/a	n/a
1483.626	n/a	PROB	741813	n/a	LTP188	ltpFR	9	n/a	n/a	n/a	n/a	n/a	n/a	15	7	9	9	n/a	n/a	n/a	n/a	n/a
1486.75	n/a	PROB	743375	n/a	LTP188	ltpFR	9	n/a	n/a	n/a	n/a	n/a	n/a	16	8	8	1	n/a	n/a	n/a	n/a	n/a
1488.254	n/a	PROB	744127	n/a	LTP188	ltpFR	9	n/a	n/a	n/a	n/a	n/a	n/a	11	6	2	3	n/a	n/a	n/a	n/a	n/a
1490.072	n/a	STOP	745036	n/a	LTP188	ltpFR	9	n/a	n/a	n/a	n/a	n/a	n/a	n/a	n/a	n/a	n/a	n/a	n/a	n/a	n/a	n/a
1491.618	n/a	WORD	745809	wordpools/wasnorm_wordpool_less_exclusions.txt	LTP188	ltpFR	9	6	0	STOMACH	1384	n/a	1	n/a	0	0	0	0	0.5869140625	0.422607421875	upper	../fonts/zerothre.ttf
1494.63	n/a	START	747315	n/a	LTP188	ltpFR	9	n/a	n/a	n/a	n/a	n/a	n/a	n/a	n/a	n/a	n/a	n/a	n/a	n/a	n/a	n/a
1495.654	n/a	PROB	747827	n/a	LTP188	ltpFR	9	n/a	n/a	n/a	n/a	n/a	n/a	17	9	7	1	n/a	n/a	n/a	n/a	n/a
1497.306	n/a	PROB	748653	n/a	LTP188	ltpFR	9	n/a	n/a	n/a	n/a	n/a	n/a	13	5	2	6	n/a	n/a	n/a	n/a	n/a
1501.346	n/a	STOP	750673	n/a	LTP188	ltpFR	9	n/a	n/a	n/a	n/a	n/a	n/a	n/a	n/a	n/a	n/a	n/a	n/a	n/a	n/a	n/a
1503.57	n/a	WORD	751785	wordpools/wasnorm_wordpool_less_exclusions.txt	LTP188	ltpFR	9	6	0	MOON	914	n/a	1	n/a	0	0	0	0	0.5869140625	0.422607421875	upper	../fonts/zerothre.ttf
1506.576	n/a	START	753288	n/a	LTP188	ltpFR	9	n/a	n/a	n/a	n/a	n/a	n/a	n/a	n/a	n/a	n/a	n/a	n/a	n/a	n/a	n/a
1507.562	n/a	PROB	753781	n/a	LTP188	ltpFR	9	n/a	n/a	n/a	n/a	n/a	n/a	15	8	5	2	n/a	n/a	n/a	n/a	n/a
1508.984	n/a	PROB	754492	n/a	LTP188	ltpFR	9	n/a	n/a	n/a	n/a	n/a	n/a	11	2	4	5	n/a	n/a	n/a	n/a	n/a
1510.522	n/a	PROB	755261	n/a	LTP188	ltpFR	9	n/a	n/a	n/a	n/a	n/a	n/a	16	5	9	2	n/a	n/a	n/a	n/a	n/a
1512.046	n/a	PROB	756023	n/a	LTP188	ltpFR	9	n/a	n/a	n/a	n/a	n/a	n/a	11	4	1	6	n/a	n/a	n/a	n/a	n/a
1513.41	n/a	STOP	756705	n/a	LTP188	ltpFR	9	n/a	n/a	n/a	n/a	n/a	n/a	n/a	n/a	n/a	n/a	n/a	n/a	n/a	n/a	n/a
1515.526	n/a	WORD	757763	wordpools/wasnorm_wordpool_less_exclusions.txt	LTP188	ltpFR	9	6	1	HEATER	698	n/a	0	n/a	0	0	0	1	0.412841796875	0.57763671875	lower	../fonts/amplitud.ttf
1518.536	n/a	START	759268	n/a	LTP188	ltpFR	9	n/a	n/a	n/a	n/a	n/a	n/a	n/a	n/a	n/a	n/a	n/a	n/a	n/a	n/a	n/a
1519.626	n/a	PROB	759813	n/a	LTP188	ltpFR	9	n/a	n/a	n/a	n/a	n/a	n/a	9	1	1	7	n/a	n/a	n/a	n/a	n/a
1521.114	n/a	PROB	760557	n/a	LTP188	ltpFR	9	n/a	n/a	n/a	n/a	n/a	n/a	13	9	1	3	n/a	n/a	n/a	n/a	n/a
1522.368	n/a	PROB	761184	n/a	LTP188	ltpFR	9	n/a	n/a	n/a	n/a	n/a	n/a	14	5	6	3	n/a	n/a	n/a	n/a	n/a
1524.594	n/a	PROB	762297	n/a	LTP188	ltpFR	9	n/a	n/a	n/a	n/a	n/a	n/a	12	5	2	5	n/a	n/a	n/a	n/a	n/a
1526.002	n/a	STOP	763001	n/a	LTP188	ltpFR	9	n/a	n/a	n/a	n/a	n/a	n/a	n/a	n/a	n/a	n/a	n/a	n/a	n/a	n/a	n/a
1527.724	n/a	WORD	763862	wordpools/wasnorm_wordpool_less_exclusions.txt	LTP188	ltpFR	9	6	1	CLOTHES	327	n/a	0	n/a	0	0	0	1	0.412841796875	0.57763671875	lower	../fonts/amplitud.ttf
1530.734	n/a	START	765367	n/a	LTP188	ltpFR	9	n/a	n/a	n/a	n/a	n/a	n/a	n/a	n/a	n/a	n/a	n/a	n/a	n/a	n/a	n/a
1531.62	n/a	PROB	765810	n/a	LTP188	ltpFR	9	n/a	n/a	n/a	n/a	n/a	n/a	22	9	6	7	n/a	n/a	n/a	n/a	n/a
1535.15	n/a	PROB	767575	n/a	LTP188	ltpFR	9	n/a	n/a	n/a	n/a	n/a	n/a	18	1	9	8	n/a	n/a	n/a	n/a	n/a
1537.18	n/a	STOP	768590	n/a	LTP188	ltpFR	9	n/a	n/a	n/a	n/a	n/a	n/a	n/a	n/a	n/a	n/a	n/a	n/a	n/a	n/a	n/a
1539.688	n/a	WORD	769844	wordpools/wasnorm_wordpool_less_exclusions.txt	LTP188	ltpFR	9	6	0	MAN	862	n/a	1	n/a	0	0	0	0	0.5869140625	0.422607421875	upper	../fonts/zerothre.ttf
1542.698	n/a	START	771349	n/a	LTP188	ltpFR	9	n/a	n/a	n/a	n/a	n/a	n/a	n/a	n/a	n/a	n/a	n/a	n/a	n/a	n/a	n/a
1543.582	n/a	PROB	771791	n/a	LTP188	ltpFR	9	n/a	n/a	n/a	n/a	n/a	n/a	22	4	9	9	n/a	n/a	n/a	n/a	n/a
1545.34	n/a	PROB	772670	n/a	LTP188	ltpFR	9	n/a	n/a	n/a	n/a	n/a	n/a	17	7	2	8	n/a	n/a	n/a	n/a	n/a
1546.978	n/a	PROB	773489	n/a	LTP188	ltpFR	9	n/a	n/a	n/a	n/a	n/a	n/a	20	9	6	5	n/a	n/a	n/a	n/a	n/a
1549.516	n/a	STOP	774758	n/a	LTP188	ltpFR	9	n/a	n/a	n/a	n/a	n/a	n/a	n/a	n/a	n/a	n/a	n/a	n/a	n/a	n/a	n/a
1551.764	n/a	WORD	775882	wordpools/wasnorm_wordpool_less_exclusions.txt	LTP188	ltpFR	9	6	0	VIOLIN	1571	n/a	0	n/a	0	0	0	0	0.5869140625	0.422607421875	upper	../fonts/zerothre.ttf
1554.776	n/a	START	777388	n/a	LTP188	ltpFR	9	n/a	n/a	n/a	n/a	n/a	n/a	n/a	n/a	n/a	n/a	n/a	n/a	n/a	n/a	n/a
1555.814	n/a	PROB	777907	n/a	LTP188	ltpFR	9	n/a	n/a	n/a	n/a	n/a	n/a	16	6	1	9	n/a	n/a	n/a	n/a	n/a
1557.152	n/a	PROB	778576	n/a	LTP188	ltpFR	9	n/a	n/a	n/a	n/a	n/a	n/a	13	1	9	3	n/a	n/a	n/a	n/a	n/a
1558.49	n/a	PROB	779245	n/a	LTP188	ltpFR	9	n/a	n/a	n/a	n/a	n/a	n/a	19	7	6	6	n/a	n/a	n/a	n/a	n/a
1561.532	n/a	STOP	780766	n/a	LTP188	ltpFR	9	n/a	n/a	n/a	n/a	n/a	n/a	n/a	n/a	n/a	n/a	n/a	n/a	n/a	n/a	n/a
1563.95	n/a	WORD	781975	wordpools/wasnorm_wordpool_less_exclusions.txt	LTP188	ltpFR	9	6	0	SALMON	1227	n/a	1	n/a	0	0	0	0	0.5869140625	0.422607421875	upper	../fonts/zerothre.ttf
1566.956	n/a	START	783478	n/a	LTP188	ltpFR	9	n/a	n/a	n/a	n/a	n/a	n/a	n/a	n/a	n/a	n/a	n/a	n/a	n/a	n/a	n/a
1567.81	n/a	PROB	783905	n/a	LTP188	ltpFR	9	n/a	n/a	n/a	n/a	n/a	n/a	7	2	3	2	n/a	n/a	n/a	n/a	n/a
1570.016	n/a	PROB	785008	n/a	LTP188	ltpFR	9	n/a	n/a	n/a	n/a	n/a	n/a	15	1	9	5	n/a	n/a	n/a	n/a	n/a
1571.506	n/a	PROB	785753	n/a	LTP188	ltpFR	9	n/a	n/a	n/a	n/a	n/a	n/a	26	9	8	9	n/a	n/a	n/a	n/a	n/a
1574.268	n/a	STOP	787134	n/a	LTP188	ltpFR	9	n/a	n/a	n/a	n/a	n/a	n/a	n/a	n/a	n/a	n/a	n/a	n/a	n/a	n/a	n/a
1576.076	n/a	WORD	788038	wordpools/wasnorm_wordpool_less_exclusions.txt	LTP188	ltpFR	9	6	0	LION	827	n/a	1	n/a	0	0	0	0	0.5869140625	0.422607421875	upper	../fonts/zerothre.ttf
1579.086	n/a	START	789543	n/a	LTP188	ltpFR	9	n/a	n/a	n/a	n/a	n/a	n/a	n/a	n/a	n/a	n/a	n/a	n/a	n/a	n/a	n/a
1579.904	n/a	PROB	789952	n/a	LTP188	ltpFR	9	n/a	n/a	n/a	n/a	n/a	n/a	10	3	1	6	n/a	n/a	n/a	n/a	n/a
1581.562	n/a	PROB	790781	n/a	LTP188	ltpFR	9	n/a	n/a	n/a	n/a	n/a	n/a	15	9	5	1	n/a	n/a	n/a	n/a	n/a
1582.85	n/a	PROB	791425	n/a	LTP188	ltpFR	9	n/a	n/a	n/a	n/a	n/a	n/a	15	6	3	6	n/a	n/a	n/a	n/a	n/a
1587.086	n/a	STOP	793543	n/a	LTP188	ltpFR	9	n/a	n/a	n/a	n/a	n/a	n/a	n/a	n/a	n/a	n/a	n/a	n/a	n/a	n/a	n/a
1587.986	n/a	WORD	793993	wordpools/wasnorm_wordpool_less_exclusions.txt	LTP188	ltpFR	9	6	0	CUCUMBER	421	n/a	0	n/a	0	0	0	0	0.5869140625	0.422607421875	upper	../fonts/zerothre.ttf
1591.014	n/a	START	795507	n/a	LTP188	ltpFR	9	n/a	n/a	n/a	n/a	n/a	n/a	n/a	n/a	n/a	n/a	n/a	n/a	n/a	n/a	n/a
1592.118	n/a	PROB	796059	n/a	LTP188	ltpFR	9	n/a	n/a	n/a	n/a	n/a	n/a	16	7	1	8	n/a	n/a	n/a	n/a	n/a
1593.942	n/a	PROB	796971	n/a	LTP188	ltpFR	9	n/a	n/a	n/a	n/a	n/a	n/a	15	1	5	9	n/a	n/a	n/a	n/a	n/a
1595.23	n/a	PROB	797615	n/a	LTP188	ltpFR	9	n/a	n/a	n/a	n/a	n/a	n/a	14	4	4	6	n/a	n/a	n/a	n/a	n/a
1596.654	n/a	PROB	798327	n/a	LTP188	ltpFR	9	n/a	n/a	n/a	n/a	n/a	n/a	13	8	4	1	n/a	n/a	n/a	n/a	n/a
1598.776	n/a	STOP	799388	n/a	LTP188	ltpFR	9	n/a	n/a	n/a	n/a	n/a	n/a	n/a	n/a	n/a	n/a	n/a	n/a	n/a	n/a	n/a
1599.882	n/a	WORD	799941	wordpools/wasnorm_wordpool_less_exclusions.txt	LTP188	ltpFR	9	6	1	BOUQUET	157	n/a	1	n/a	0	0	0	1	0.412841796875	0.57763671875	lower	../fonts/amplitud.ttf
1602.894	n/a	START	801447	n/a	LTP188	ltpFR	9	n/a	n/a	n/a	n/a	n/a	n/a	n/a	n/a	n/a	n/a	n/a	n/a	n/a	n/a	n/a
1603.964	n/a	PROB	801982	n/a	LTP188	ltpFR	9	n/a	n/a	n/a	n/a	n/a	n/a	12	3	3	6	n/a	n/a	n/a	n/a	n/a
1605.536	n/a	PROB	802768	n/a	LTP188	ltpFR	9	n/a	n/a	n/a	n/a	n/a	n/a	18	9	5	4	n/a	n/a	n/a	n/a	n/a
1607.828	n/a	PROB	803914	n/a	LTP188	ltpFR	9	n/a	n/a	n/a	n/a	n/a	n/a	17	6	5	6	n/a	n/a	n/a	n/a	n/a
1610.416	n/a	STOP	805208	n/a	LTP188	ltpFR	9	n/a	n/a	n/a	n/a	n/a	n/a	n/a	n/a	n/a	n/a	n/a	n/a	n/a	n/a	n/a
1611.86	n/a	WORD	805930	wordpools/wasnorm_wordpool_less_exclusions.txt	LTP188	ltpFR	9	6	1	SCENERY	1247	n/a	0	n/a	0	0	0	1	0.412841796875	0.57763671875	lower	../fonts/amplitud.ttf
1614.872	n/a	START	807436	n/a	LTP188	ltpFR	9	n/a	n/a	n/a	n/a	n/a	n/a	n/a	n/a	n/a	n/a	n/a	n/a	n/a	n/a	n/a
1615.914	n/a	PROB	807957	n/a	LTP188	ltpFR	9	n/a	n/a	n/a	n/a	n/a	n/a	19	8	5	6	n/a	n/a	n/a	n/a	n/a
1618.838	n/a	PROB	809419	n/a	LTP188	ltpFR	9	n/a	n/a	n/a	n/a	n/a	n/a	14	3	3	8	n/a	n/a	n/a	n/a	n/a
1621.36	n/a	STOP	810680	n/a	LTP188	ltpFR	9	n/a	n/a	n/a	n/a	n/a	n/a	n/a	n/a	n/a	n/a	n/a	n/a	n/a	n/a	n/a
1624.762	n/a	REC_START	812381	n/a	LTP188	ltpFR	9	6	n/a	n/a	n/a	n/a	n/a	n/a	0	0	0	n/a	n/a	n/a	n/a	n/a
1625.44	n/a	REC_WORD	812720	wordpools/wasnorm_wordpool_less_exclusions.txt	LTP188	ltpFR	9	6	1	SCENERY	1247	n/a	0	n/a	0	0	0	n/a	n/a	n/a	n/a	n/a
1626.358	n/a	REC_WORD	813179	wordpools/wasnorm_wordpool_less_exclusions.txt	LTP188	ltpFR	9	6	0	SALMON	1227	n/a	1	n/a	0	0	0	n/a	n/a	n/a	n/a	n/a
1628.672	n/a	REC_WORD	814336	wordpools/wasnorm_wordpool_less_exclusions.txt	LTP188	ltpFR	9	6	0	LION	827	n/a	1	n/a	0	0	0	n/a	n/a	n/a	n/a	n/a
1722.082	n/a	START	861041	n/a	LTP188	ltpFR	9	n/a	n/a	n/a	n/a	n/a	n/a	n/a	n/a	n/a	n/a	n/a	n/a	n/a	n/a	n/a
1723.59	n/a	PROB	861795	n/a	LTP188	ltpFR	9	n/a	n/a	n/a	n/a	n/a	n/a	21	8	5	8	n/a	n/a	n/a	n/a	n/a
1726.164	n/a	PROB	863082	n/a	LTP188	ltpFR	9	n/a	n/a	n/a	n/a	n/a	n/a	21	7	9	5	n/a	n/a	n/a	n/a	n/a
1728.506	n/a	PROB	864253	n/a	LTP188	ltpFR	9	n/a	n/a	n/a	n/a	n/a	n/a	12	2	3	7	n/a	n/a	n/a	n/a	n/a
1731.45	n/a	PROB	865725	n/a	LTP188	ltpFR	9	n/a	n/a	n/a	n/a	n/a	n/a	19	8	5	6	n/a	n/a	n/a	n/a	n/a
1733.844	n/a	PROB	866922	n/a	LTP188	ltpFR	9	n/a	n/a	n/a	n/a	n/a	n/a	19	8	8	3	n/a	n/a	n/a	n/a	n/a
1735.516	n/a	PROB	867758	n/a	LTP188	ltpFR	9	n/a	n/a	n/a	n/a	n/a	n/a	13	5	2	6	n/a	n/a	n/a	n/a	n/a
1737.59	n/a	STOP	868795	n/a	LTP188	ltpFR	9	n/a	n/a	n/a	n/a	n/a	n/a	n/a	n/a	n/a	n/a	n/a	n/a	n/a	n/a	n/a
1739.264	n/a	WORD	869632	wordpools/wasnorm_wordpool_less_exclusions.txt	LTP188	ltpFR	9	7	1	WASHER	1592	n/a	0	n/a	0	0	0	1	0.412841796875	0.57763671875	lower	../fonts/amplitud.ttf
1742.276	n/a	START	871138	n/a	LTP188	ltpFR	9	n/a	n/a	n/a	n/a	n/a	n/a	n/a	n/a	n/a	n/a	n/a	n/a	n/a	n/a	n/a
1743.15	n/a	PROB	871575	n/a	LTP188	ltpFR	9	n/a	n/a	n/a	n/a	n/a	n/a	18	8	5	5	n/a	n/a	n/a	n/a	n/a
1744.852	n/a	PROB	872426	n/a	LTP188	ltpFR	9	n/a	n/a	n/a	n/a	n/a	n/a	18	1	9	8	n/a	n/a	n/a	n/a	n/a
1746.29	n/a	PROB	873145	n/a	LTP188	ltpFR	9	n/a	n/a	n/a	n/a	n/a	n/a	13	4	1	8	n/a	n/a	n/a	n/a	n/a
1748.014	n/a	PROB	874007	n/a	LTP188	ltpFR	9	n/a	n/a	n/a	n/a	n/a	n/a	16	2	5	9	n/a	n/a	n/a	n/a	n/a
1750.138	n/a	PROB	875069	n/a	LTP188	ltpFR	9	n/a	n/a	n/a	n/a	n/a	n/a	16	3	5	8	n/a	n/a	n/a	n/a	n/a
1752.096	n/a	PROB	876048	n/a	LTP188	ltpFR	9	n/a	n/a	n/a	n/a	n/a	n/a	14	1	9	4	n/a	n/a	n/a	n/a	n/a
1753.704	n/a	PROB	876852	n/a	LTP188	ltpFR	9	n/a	n/a	n/a	n/a	n/a	n/a	11	5	1	5	n/a	n/a	n/a	n/a	n/a
1754.906	n/a	PROB	877453	n/a	LTP188	ltpFR	9	n/a	n/a	n/a	n/a	n/a	n/a	14	6	4	4	n/a	n/a	n/a	n/a	n/a
1758.276	n/a	STOP	879138	n/a	LTP188	ltpFR	9	n/a	n/a	n/a	n/a	n/a	n/a	n/a	n/a	n/a	n/a	n/a	n/a	n/a	n/a	n/a
1759.49	n/a	WORD	879745	wordpools/wasnorm_wordpool_less_exclusions.txt	LTP188	ltpFR	9	7	1	NUN	962	n/a	1	n/a	0	0	0	1	0.412841796875	0.57763671875	lower	../fonts/amplitud.ttf
1762.502	n/a	START	881251	n/a	LTP188	ltpFR	9	n/a	n/a	n/a	n/a	n/a	n/a	n/a	n/a	n/a	n/a	n/a	n/a	n/a	n/a	n/a
1763.54	n/a	PROB	881770	n/a	LTP188	ltpFR	9	n/a	n/a	n/a	n/a	n/a	n/a	10	1	6	3	n/a	n/a	n/a	n/a	n/a
1765.58	n/a	PROB	882790	n/a	LTP188	ltpFR	9	n/a	n/a	n/a	n/a	n/a	n/a	12	3	3	6	n/a	n/a	n/a	n/a	n/a
1767.088	n/a	PROB	883544	n/a	LTP188	ltpFR	9	n/a	n/a	n/a	n/a	n/a	n/a	13	5	3	5	n/a	n/a	n/a	n/a	n/a
1768.66	n/a	PROB	884330	n/a	LTP188	ltpFR	9	n/a	n/a	n/a	n/a	n/a	n/a	17	6	5	6	n/a	n/a	n/a	n/a	n/a
1771.872	n/a	PROB	885936	n/a	LTP188	ltpFR	9	n/a	n/a	n/a	n/a	n/a	n/a	13	1	4	8	n/a	n/a	n/a	n/a	n/a
1773.746	n/a	PROB	886873	n/a	LTP188	ltpFR	9	n/a	n/a	n/a	n/a	n/a	n/a	15	7	6	2	n/a	n/a	n/a	n/a	n/a
1775.62	n/a	PROB	887810	n/a	LTP188	ltpFR	9	n/a	n/a	n/a	n/a	n/a	n/a	23	9	5	9	n/a	n/a	n/a	n/a	n/a
1777.632	n/a	STOP	888816	n/a	LTP188	ltpFR	9	n/a	n/a	n/a	n/a	n/a	n/a	n/a	n/a	n/a	n/a	n/a	n/a	n/a	n/a	n/a
1779.686	n/a	WORD	889843	wordpools/wasnorm_wordpool_less_exclusions.txt	LTP188	ltpFR	9	7	1	MONARCH	906	n/a	1	n/a	0	0	0	1	0.412841796875	0.57763671875	lower	../fonts/amplitud.ttf
1782.698	n/a	START	891349	n/a	LTP188	ltpFR	9	n/a	n/a	n/a	n/a	n/a	n/a	n/a	n/a	n/a	n/a	n/a	n/a	n/a	n/a	n/a
1783.516	n/a	PROB	891758	n/a	LTP188	ltpFR	9	n/a	n/a	n/a	n/a	n/a	n/a	18	9	5	4	n/a	n/a	n/a	n/a	n/a
1785.926	n/a	PROB	892963	n/a	LTP188	ltpFR	9	n/a	n/a	n/a	n/a	n/a	n/a	10	6	2	2	n/a	n/a	n/a	n/a	n/a
1787.566	n/a	PROB	893783	n/a	LTP188	ltpFR	9	n/a	n/a	n/a	n/a	n/a	n/a	16	4	3	9	n/a	n/a	n/a	n/a	n/a
1789.908	n/a	PROB	894954	n/a	LTP188	ltpFR	9	n/a	n/a	n/a	n/a	n/a	n/a	15	4	2	9	n/a	n/a	n/a	n/a	n/a
1791.948	n/a	PROB	895974	n/a	LTP188	ltpFR	9	n/a	n/a	n/a	n/a	n/a	n/a	15	1	5	9	n/a	n/a	n/a	n/a	n/a
1793.706	n/a	PROB	896853	n/a	LTP188	ltpFR	9	n/a	n/a	n/a	n/a	n/a	n/a	22	9	4	9	n/a	n/a	n/a	n/a	n/a
1795.412	n/a	PROB	897706	n/a	LTP188	ltpFR	9	n/a	n/a	n/a	n/a	n/a	n/a	12	4	1	7	n/a	n/a	n/a	n/a	n/a
1798.698	n/a	STOP	899349	n/a	LTP188	ltpFR	9	n/a	n/a	n/a	n/a	n/a	n/a	n/a	n/a	n/a	n/a	n/a	n/a	n/a	n/a	n/a
1799.61	n/a	WORD	899805	wordpools/wasnorm_wordpool_less_exclusions.txt	LTP188	ltpFR	9	7	1	POLYESTER	1100	n/a	0	n/a	0	0	0	1	0.412841796875	0.57763671875	lower	../fonts/amplitud.ttf
1802.622	n/a	START	901311	n/a	LTP188	ltpFR	9	n/a	n/a	n/a	n/a	n/a	n/a	n/a	n/a	n/a	n/a	n/a	n/a	n/a	n/a	n/a
1803.476	n/a	PROB	901738	n/a	LTP188	ltpFR	9	n/a	n/a	n/a	n/a	n/a	n/a	25	7	9	9	n/a	n/a	n/a	n/a	n/a
1806.02	n/a	PROB	903010	n/a	LTP188	ltpFR	9	n/a	n/a	n/a	n/a	n/a	n/a	16	4	7	5	n/a	n/a	n/a	n/a	n/a
1808.478	n/a	PROB	904239	n/a	LTP188	ltpFR	9	n/a	n/a	n/a	n/a	n/a	n/a	11	9	1	1	n/a	n/a	n/a	n/a	n/a
1809.834	n/a	PROB	904917	n/a	LTP188	ltpFR	9	n/a	n/a	n/a	n/a	n/a	n/a	13	7	2	4	n/a	n/a	n/a	n/a	n/a
1813.43	n/a	PROB	906715	n/a	LTP188	ltpFR	9	n/a	n/a	n/a	n/a	n/a	n/a	14	3	4	7	n/a	n/a	n/a	n/a	n/a
1815.422	n/a	PROB	907711	n/a	LTP188	ltpFR	9	n/a	n/a	n/a	n/a	n/a	n/a	22	8	7	7	n/a	n/a	n/a	n/a	n/a
1818.282	n/a	STOP	909141	n/a	LTP188	ltpFR	9	n/a	n/a	n/a	n/a	n/a	n/a	n/a	n/a	n/a	n/a	n/a	n/a	n/a	n/a	n/a
1819.62	n/a	WORD	909810	wordpools/wasnorm_wordpool_less_exclusions.txt	LTP188	ltpFR	9	7	1	SAUSAGE	1238	n/a	0	n/a	0	0	0	1	0.412841796875	0.57763671875	lower	../fonts/amplitud.ttf
1822.632	n/a	START	911316	n/a	LTP188	ltpFR	9	n/a	n/a	n/a	n/a	n/a	n/a	n/a	n/a	n/a	n/a	n/a	n/a	n/a	n/a	n/a
1823.692	n/a	PROB	911846	n/a	LTP188	ltpFR	9	n/a	n/a	n/a	n/a	n/a	n/a	19	5	6	8	n/a	n/a	n/a	n/a	n/a
1826.364	n/a	PROB	913182	n/a	LTP188	ltpFR	9	n/a	n/a	n/a	n/a	n/a	n/a	9	1	7	1	n/a	n/a	n/a	n/a	n/a
1827.97	n/a	PROB	913985	n/a	LTP188	ltpFR	9	n/a	n/a	n/a	n/a	n/a	n/a	19	4	7	8	n/a	n/a	n/a	n/a	n/a
1830.596	n/a	PROB	915298	n/a	LTP188	ltpFR	9	n/a	n/a	n/a	n/a	n/a	n/a	7	1	3	3	n/a	n/a	n/a	n/a	n/a
1832.772	n/a	PROB	916386	n/a	LTP188	ltpFR	9	n/a	n/a	n/a	n/a	n/a	n/a	19	5	8	6	n/a	n/a	n/a	n/a	n/a
1836.034	n/a	PROB	918017	n/a	LTP188	ltpFR	9	n/a	n/a	n/a	n/a	n/a	n/a	14	5	3	6	n/a	n/a	n/a	n/a	n/a
1838.132	n/a	STOP	919066	n/a	LTP188	ltpFR	9	n/a	n/a	n/a	n/a	n/a	n/a	n/a	n/a	n/a	n/a	n/a	n/a	n/a	n/a	n/a
1839.596	n/a	WORD	919798	wordpools/wasnorm_wordpool_less_exclusions.txt	LTP188	ltpFR	9	7	1	TOILET	1475	n/a	0	n/a	0	0	0	1	0.412841796875	0.57763671875	lower	../fonts/amplitud.ttf
1842.61	n/a	START	921305	n/a	LTP188	ltpFR	9	n/a	n/a	n/a	n/a	n/a	n/a	n/a	n/a	n/a	n/a	n/a	n/a	n/a	n/a	n/a
1843.73	n/a	PROB	921865	n/a	LTP188	ltpFR	9	n/a	n/a	n/a	n/a	n/a	n/a	17	7	4	6	n/a	n/a	n/a	n/a	n/a
1845.336	n/a	PROB	922668	n/a	LTP188	ltpFR	9	n/a	n/a	n/a	n/a	n/a	n/a	15	1	5	9	n/a	n/a	n/a	n/a	n/a
1847.276	n/a	PROB	923638	n/a	LTP188	ltpFR	9	n/a	n/a	n/a	n/a	n/a	n/a	19	5	6	8	n/a	n/a	n/a	n/a	n/a
1849.368	n/a	PROB	924684	n/a	LTP188	ltpFR	9	n/a	n/a	n/a	n/a	n/a	n/a	15	4	2	9	n/a	n/a	n/a	n/a	n/a
1851.844	n/a	PROB	925922	n/a	LTP188	ltpFR	9	n/a	n/a	n/a	n/a	n/a	n/a	17	8	4	5	n/a	n/a	n/a	n/a	n/a
1854.79	n/a	PROB	927395	n/a	LTP188	ltpFR	9	n/a	n/a	n/a	n/a	n/a	n/a	23	9	5	9	n/a	n/a	n/a	n/a	n/a
1858.61	n/a	STOP	929305	n/a	LTP188	ltpFR	9	n/a	n/a	n/a	n/a	n/a	n/a	n/a	n/a	n/a	n/a	n/a	n/a	n/a	n/a	n/a
1859.59	n/a	WORD	929795	wordpools/wasnorm_wordpool_less_exclusions.txt	LTP188	ltpFR	9	7	1	SEAT	1264	n/a	0	n/a	0	0	0	1	0.412841796875	0.57763671875	lower	../fonts/amplitud.ttf
1862.602	n/a	START	931301	n/a	LTP188	ltpFR	9	n/a	n/a	n/a	n/a	n/a	n/a	n/a	n/a	n/a	n/a	n/a	n/a	n/a	n/a	n/a
1863.708	n/a	PROB	931854	n/a	LTP188	ltpFR	9	n/a	n/a	n/a	n/a	n/a	n/a	15	4	5	6	n/a	n/a	n/a	n/a	n/a
1864.994	n/a	PROB	932497	n/a	LTP188	ltpFR	9	n/a	n/a	n/a	n/a	n/a	n/a	18	6	7	5	n/a	n/a	n/a	n/a	n/a
1867.152	n/a	PROB	933576	n/a	LTP188	ltpFR	9	n/a	n/a	n/a	n/a	n/a	n/a	15	5	7	3	n/a	n/a	n/a	n/a	n/a
1868.408	n/a	PROB	934204	n/a	LTP188	ltpFR	9	n/a	n/a	n/a	n/a	n/a	n/a	20	5	9	6	n/a	n/a	n/a	n/a	n/a
1870.516	n/a	PROB	935258	n/a	LTP188	ltpFR	9	n/a	n/a	n/a	n/a	n/a	n/a	20	6	8	6	n/a	n/a	n/a	n/a	n/a
1873.242	n/a	PROB	936621	n/a	LTP188	ltpFR	9	n/a	n/a	n/a	n/a	n/a	n/a	14	1	5	8	n/a	n/a	n/a	n/a	n/a
1875.016	n/a	PROB	937508	n/a	LTP188	ltpFR	9	n/a	n/a	n/a	n/a	n/a	n/a	13	3	3	7	n/a	n/a	n/a	n/a	n/a
1876.638	n/a	PROB	938319	n/a	LTP188	ltpFR	9	n/a	n/a	n/a	n/a	n/a	n/a	15	8	6	1	n/a	n/a	n/a	n/a	n/a
1878.198	n/a	STOP	939099	n/a	LTP188	ltpFR	9	n/a	n/a	n/a	n/a	n/a	n/a	n/a	n/a	n/a	n/a	n/a	n/a	n/a	n/a	n/a
1879.516	n/a	WORD	939758	wordpools/wasnorm_wordpool_less_exclusions.txt	LTP188	ltpFR	9	7	1	ANTLER	29	n/a	0	n/a	0	0	0	1	0.412841796875	0.57763671875	lower	../fonts/amplitud.ttf
1882.528	n/a	START	941264	n/a	LTP188	ltpFR	9	n/a	n/a	n/a	n/a	n/a	n/a	n/a	n/a	n/a	n/a	n/a	n/a	n/a	n/a	n/a
1883.616	n/a	PROB	941808	n/a	LTP188	ltpFR	9	n/a	n/a	n/a	n/a	n/a	n/a	21	9	6	6	n/a	n/a	n/a	n/a	n/a
1886.944	n/a	PROB	943472	n/a	LTP188	ltpFR	9	n/a	n/a	n/a	n/a	n/a	n/a	19	8	8	3	n/a	n/a	n/a	n/a	n/a
1889.02	n/a	PROB	944510	n/a	LTP188	ltpFR	9	n/a	n/a	n/a	n/a	n/a	n/a	21	6	6	7	n/a	n/a	n/a	n/a	n/a
1892.064	n/a	PROB	946032	n/a	LTP188	ltpFR	9	n/a	n/a	n/a	n/a	n/a	n/a	18	8	4	6	n/a	n/a	n/a	n/a	n/a
1893.654	n/a	PROB	946827	n/a	LTP188	ltpFR	9	n/a	n/a	n/a	n/a	n/a	n/a	22	8	7	7	n/a	n/a	n/a	n/a	n/a
1896.982	n/a	PROB	948491	n/a	LTP188	ltpFR	9	n/a	n/a	n/a	n/a	n/a	n/a	15	1	6	7	n/a	n/a	n/a	n/a	n/a
1898.438	n/a	STOP	949219	n/a	LTP188	ltpFR	9	n/a	n/a	n/a	n/a	n/a	n/a	n/a	n/a	n/a	n/a	n/a	n/a	n/a	n/a	n/a
1899.576	n/a	WORD	949788	wordpools/wasnorm_wordpool_less_exclusions.txt	LTP188	ltpFR	9	7	1	GAZELLE	628	n/a	1	n/a	0	0	0	1	0.412841796875	0.57763671875	lower	../fonts/amplitud.ttf
1902.588	n/a	START	951294	n/a	LTP188	ltpFR	9	n/a	n/a	n/a	n/a	n/a	n/a	n/a	n/a	n/a	n/a	n/a	n/a	n/a	n/a	n/a
1903.492	n/a	PROB	951746	n/a	LTP188	ltpFR	9	n/a	n/a	n/a	n/a	n/a	n/a	6	1	1	4	n/a	n/a	n/a	n/a	n/a
1904.98	n/a	PROB	952490	n/a	LTP188	ltpFR	9	n/a	n/a	n/a	n/a	n/a	n/a	12	9	1	2	n/a	n/a	n/a	n/a	n/a
1906.184	n/a	PROB	953092	n/a	LTP188	ltpFR	9	n/a	n/a	n/a	n/a	n/a	n/a	17	4	5	8	n/a	n/a	n/a	n/a	n/a
1908.962	n/a	PROB	954481	n/a	LTP188	ltpFR	9	n/a	n/a	n/a	n/a	n/a	n/a	7	5	1	1	n/a	n/a	n/a	n/a	n/a
1910.902	n/a	PROB	955451	n/a	LTP188	ltpFR	9	n/a	n/a	n/a	n/a	n/a	n/a	3	1	1	1	n/a	n/a	n/a	n/a	n/a
1912.04	n/a	PROB	956020	n/a	LTP188	ltpFR	9	n/a	n/a	n/a	n/a	n/a	n/a	18	1	9	8	n/a	n/a	n/a	n/a	n/a
1913.562	n/a	PROB	956781	n/a	LTP188	ltpFR	9	n/a	n/a	n/a	n/a	n/a	n/a	15	3	8	4	n/a	n/a	n/a	n/a	n/a
1915.972	n/a	PROB	957986	n/a	LTP188	ltpFR	9	n/a	n/a	n/a	n/a	n/a	n/a	13	6	6	1	n/a	n/a	n/a	n/a	n/a
1917.416	n/a	STOP	958708	n/a	LTP188	ltpFR	9	n/a	n/a	n/a	n/a	n/a	n/a	n/a	n/a	n/a	n/a	n/a	n/a	n/a	n/a	n/a
1919.54	n/a	WORD	959770	wordpools/wasnorm_wordpool_less_exclusions.txt	LTP188	ltpFR	9	7	1	TICKET	1464	n/a	0	n/a	0	0	0	1	0.412841796875	0.57763671875	lower	../fonts/amplitud.ttf
1922.548	n/a	START	961274	n/a	LTP188	ltpFR	9	n/a	n/a	n/a	n/a	n/a	n/a	n/a	n/a	n/a	n/a	n/a	n/a	n/a	n/a	n/a
1923.4	n/a	PROB	961700	n/a	LTP188	ltpFR	9	n/a	n/a	n/a	n/a	n/a	n/a	22	8	5	9	n/a	n/a	n/a	n/a	n/a
1925.91	n/a	PROB	962955	n/a	LTP188	ltpFR	9	n/a	n/a	n/a	n/a	n/a	n/a	15	9	5	1	n/a	n/a	n/a	n/a	n/a
1927.316	n/a	PROB	963658	n/a	LTP188	ltpFR	9	n/a	n/a	n/a	n/a	n/a	n/a	15	1	6	8	n/a	n/a	n/a	n/a	n/a
1929.056	n/a	PROB	964528	n/a	LTP188	ltpFR	9	n/a	n/a	n/a	n/a	n/a	n/a	14	6	7	1	n/a	n/a	n/a	n/a	n/a
1932.066	n/a	PROB	966033	n/a	LTP188	ltpFR	9	n/a	n/a	n/a	n/a	n/a	n/a	15	8	1	6	n/a	n/a	n/a	n/a	n/a
1933.708	n/a	PROB	966854	n/a	LTP188	ltpFR	9	n/a	n/a	n/a	n/a	n/a	n/a	26	8	9	9	n/a	n/a	n/a	n/a	n/a
1938.55	n/a	STOP	969275	n/a	LTP188	ltpFR	9	n/a	n/a	n/a	n/a	n/a	n/a	n/a	n/a	n/a	n/a	n/a	n/a	n/a	n/a	n/a
1939.53	n/a	WORD	969765	wordpools/wasnorm_wordpool_less_exclusions.txt	LTP188	ltpFR	9	7	1	GARBAGE	622	n/a	0	n/a	0	0	0	1	0.412841796875	0.57763671875	lower	../fonts/amplitud.ttf
1942.542	n/a	START	971271	n/a	LTP188	ltpFR	9	n/a	n/a	n/a	n/a	n/a	n/a	n/a	n/a	n/a	n/a	n/a	n/a	n/a	n/a	n/a
1943.612	n/a	PROB	971806	n/a	LTP188	ltpFR	9	n/a	n/a	n/a	n/a	n/a	n/a	16	9	4	3	n/a	n/a	n/a	n/a	n/a
1945.82	n/a	PROB	972910	n/a	LTP188	ltpFR	9	n/a	n/a	n/a	n/a	n/a	n/a	19	7	7	5	n/a	n/a	n/a	n/a	n/a
1949.082	n/a	PROB	974541	n/a	LTP188	ltpFR	9	n/a	n/a	n/a	n/a	n/a	n/a	22	6	7	9	n/a	n/a	n/a	n/a	n/a
1951.29	n/a	PROB	975645	n/a	LTP188	ltpFR	9	n/a	n/a	n/a	n/a	n/a	n/a	14	1	5	8	n/a	n/a	n/a	n/a	n/a
1953.148	n/a	PROB	976574	n/a	LTP188	ltpFR	9	n/a	n/a	n/a	n/a	n/a	n/a	18	9	5	4	n/a	n/a	n/a	n/a	n/a
1955.44	n/a	PROB	977720	n/a	LTP188	ltpFR	9	n/a	n/a	n/a	n/a	n/a	n/a	16	7	5	4	n/a	n/a	n/a	n/a	n/a
1957.934	n/a	STOP	978967	n/a	LTP188	ltpFR	9	n/a	n/a	n/a	n/a	n/a	n/a	n/a	n/a	n/a	n/a	n/a	n/a	n/a	n/a	n/a
1959.522	n/a	WORD	979761	wordpools/wasnorm_wordpool_less_exclusions.txt	LTP188	ltpFR	9	7	1	FARMER	553	n/a	1	n/a	0	0	0	1	0.412841796875	0.57763671875	lower	../fonts/amplitud.ttf
1962.534	n/a	START	981267	n/a	LTP188	ltpFR	9	n/a	n/a	n/a	n/a	n/a	n/a	n/a	n/a	n/a	n/a	n/a	n/a	n/a	n/a	n/a
1963.436	n/a	PROB	981718	n/a	LTP188	ltpFR	9	n/a	n/a	n/a	n/a	n/a	n/a	16	7	5	4	n/a	n/a	n/a	n/a	n/a
1965.494	n/a	PROB	982747	n/a	LTP188	ltpFR	9	n/a	n/a	n/a	n/a	n/a	n/a	12	1	2	9	n/a	n/a	n/a	n/a	n/a
1967.284	n/a	PROB	983642	n/a	LTP188	ltpFR	9	n/a	n/a	n/a	n/a	n/a	n/a	10	2	3	5	n/a	n/a	n/a	n/a	n/a
1970.932	n/a	PROB	985466	n/a	LTP188	ltpFR	9	n/a	n/a	n/a	n/a	n/a	n/a	18	8	7	3	n/a	n/a	n/a	n/a	n/a
1972.74	n/a	PROB	986370	n/a	LTP188	ltpFR	9	n/a	n/a	n/a	n/a	n/a	n/a	26	8	6	8	n/a	n/a	n/a	n/a	n/a
1975.232	n/a	PROB	987616	n/a	LTP188	ltpFR	9	n/a	n/a	n/a	n/a	n/a	n/a	12	5	4	3	n/a	n/a	n/a	n/a	n/a
1977.924	n/a	STOP	988962	n/a	LTP188	ltpFR	9	n/a	n/a	n/a	n/a	n/a	n/a	n/a	n/a	n/a	n/a	n/a	n/a	n/a	n/a	n/a
1979.598	n/a	WORD	989799	wordpools/wasnorm_wordpool_less_exclusions.txt	LTP188	ltpFR	9	7	1	CUFF	423	n/a	0	n/a	0	0	0	1	0.412841796875	0.57763671875	lower	../fonts/amplitud.ttf
1982.61	n/a	START	991305	n/a	LTP188	ltpFR	9	n/a	n/a	n/a	n/a	n/a	n/a	n/a	n/a	n/a	n/a	n/a	n/a	n/a	n/a	n/a
1983.732	n/a	PROB	991866	n/a	LTP188	ltpFR	9	n/a	n/a	n/a	n/a	n/a	n/a	16	6	8	2	n/a	n/a	n/a	n/a	n/a
1985.036	n/a	PROB	992518	n/a	LTP188	ltpFR	9	n/a	n/a	n/a	n/a	n/a	n/a	20	9	3	8	n/a	n/a	n/a	n/a	n/a
1986.91	n/a	PROB	993455	n/a	LTP188	ltpFR	9	n/a	n/a	n/a	n/a	n/a	n/a	17	8	3	6	n/a	n/a	n/a	n/a	n/a
1989.102	n/a	PROB	994551	n/a	LTP188	ltpFR	9	n/a	n/a	n/a	n/a	n/a	n/a	18	3	8	7	n/a	n/a	n/a	n/a	n/a
1990.726	n/a	PROB	995363	n/a	LTP188	ltpFR	9	n/a	n/a	n/a	n/a	n/a	n/a	17	6	4	7	n/a	n/a	n/a	n/a	n/a
1992.314	n/a	PROB	996157	n/a	LTP188	ltpFR	9	n/a	n/a	n/a	n/a	n/a	n/a	22	6	7	9	n/a	n/a	n/a	n/a	n/a
1994.824	n/a	PROB	997412	n/a	LTP188	ltpFR	9	n/a	n/a	n/a	n/a	n/a	n/a	25	9	8	8	n/a	n/a	n/a	n/a	n/a
1997.644	n/a	STOP	998822	n/a	LTP188	ltpFR	9	n/a	n/a	n/a	n/a	n/a	n/a	n/a	n/a	n/a	n/a	n/a	n/a	n/a	n/a	n/a
1999.542	n/a	WORD	999771	wordpools/wasnorm_wordpool_less_exclusions.txt	LTP188	ltpFR	9	7	1	OTTER	986	n/a	1	n/a	0	0	0	1	0.412841796875	0.57763671875	lower	../fonts/amplitud.ttf
2002.554	n/a	START	1001277	n/a	LTP188	ltpFR	9	n/a	n/a	n/a	n/a	n/a	n/a	n/a	n/a	n/a	n/a	n/a	n/a	n/a	n/a	n/a
2003.558	n/a	PROB	1001779	n/a	LTP188	ltpFR	9	n/a	n/a	n/a	n/a	n/a	n/a	16	1	9	6	n/a	n/a	n/a	n/a	n/a
2005.346	n/a	PROB	1002673	n/a	LTP188	ltpFR	9	n/a	n/a	n/a	n/a	n/a	n/a	20	5	6	9	n/a	n/a	n/a	n/a	n/a
2009.078	n/a	PROB	1004539	n/a	LTP188	ltpFR	9	n/a	n/a	n/a	n/a	n/a	n/a	15	2	7	6	n/a	n/a	n/a	n/a	n/a
2011.386	n/a	PROB	1005693	n/a	LTP188	ltpFR	9	n/a	n/a	n/a	n/a	n/a	n/a	16	8	1	7	n/a	n/a	n/a	n/a	n/a
2012.826	n/a	PROB	1006413	n/a	LTP188	ltpFR	9	n/a	n/a	n/a	n/a	n/a	n/a	12	8	3	1	n/a	n/a	n/a	n/a	n/a
2014.632	n/a	PROB	1007316	n/a	LTP188	ltpFR	9	n/a	n/a	n/a	n/a	n/a	n/a	14	5	6	3	n/a	n/a	n/a	n/a	n/a
2016.306	n/a	PROB	1008153	n/a	LTP188	ltpFR	9	n/a	n/a	n/a	n/a	n/a	n/a	15	5	7	3	n/a	n/a	n/a	n/a	n/a
2017.494	n/a	STOP	1008747	n/a	LTP188	ltpFR	9	n/a	n/a	n/a	n/a	n/a	n/a	n/a	n/a	n/a	n/a	n/a	n/a	n/a	n/a	n/a
2019.736	n/a	WORD	1009868	wordpools/wasnorm_wordpool_less_exclusions.txt	LTP188	ltpFR	9	7	1	CROCODILE	411	n/a	1	n/a	0	0	0	1	0.412841796875	0.57763671875	lower	../fonts/amplitud.ttf
2022.748	n/a	START	1011374	n/a	LTP188	ltpFR	9	n/a	n/a	n/a	n/a	n/a	n/a	n/a	n/a	n/a	n/a	n/a	n/a	n/a	n/a	n/a
2023.584	n/a	PROB	1011792	n/a	LTP188	ltpFR	9	n/a	n/a	n/a	n/a	n/a	n/a	13	2	5	6	n/a	n/a	n/a	n/a	n/a
2025.976	n/a	PROB	1012988	n/a	LTP188	ltpFR	9	n/a	n/a	n/a	n/a	n/a	n/a	17	2	7	8	n/a	n/a	n/a	n/a	n/a
2028.704	n/a	PROB	1014352	n/a	LTP188	ltpFR	9	n/a	n/a	n/a	n/a	n/a	n/a	13	6	3	4	n/a	n/a	n/a	n/a	n/a
2030.678	n/a	PROB	1015339	n/a	LTP188	ltpFR	9	n/a	n/a	n/a	n/a	n/a	n/a	19	7	6	6	n/a	n/a	n/a	n/a	n/a
2032.902	n/a	PROB	1016451	n/a	LTP188	ltpFR	9	n/a	n/a	n/a	n/a	n/a	n/a	23	8	8	7	n/a	n/a	n/a	n/a	n/a
2038.736	n/a	STOP	1019368	n/a	LTP188	ltpFR	9	n/a	n/a	n/a	n/a	n/a	n/a	n/a	n/a	n/a	n/a	n/a	n/a	n/a	n/a	n/a
2039.628	n/a	WORD	1019814	wordpools/wasnorm_wordpool_less_exclusions.txt	LTP188	ltpFR	9	7	1	THRONE	1461	n/a	1	n/a	0	0	0	1	0.412841796875	0.57763671875	lower	../fonts/amplitud.ttf
2042.64	n/a	START	1021320	n/a	LTP188	ltpFR	9	n/a	n/a	n/a	n/a	n/a	n/a	n/a	n/a	n/a	n/a	n/a	n/a	n/a	n/a	n/a
2043.662	n/a	PROB	1021831	n/a	LTP188	ltpFR	9	n/a	n/a	n/a	n/a	n/a	n/a	13	4	6	3	n/a	n/a	n/a	n/a	n/a
2045.736	n/a	PROB	1022868	n/a	LTP188	ltpFR	9	n/a	n/a	n/a	n/a	n/a	n/a	13	2	3	8	n/a	n/a	n/a	n/a	n/a
2048.044	n/a	PROB	1024022	n/a	LTP188	ltpFR	9	n/a	n/a	n/a	n/a	n/a	n/a	17	9	1	7	n/a	n/a	n/a	n/a	n/a
2050.084	n/a	PROB	1025042	n/a	LTP188	ltpFR	9	n/a	n/a	n/a	n/a	n/a	n/a	17	1	9	7	n/a	n/a	n/a	n/a	n/a
2051.658	n/a	PROB	1025829	n/a	LTP188	ltpFR	9	n/a	n/a	n/a	n/a	n/a	n/a	14	4	4	6	n/a	n/a	n/a	n/a	n/a
2053.414	n/a	PROB	1026707	n/a	LTP188	ltpFR	9	n/a	n/a	n/a	n/a	n/a	n/a	8	4	1	2	n/a	n/a	n/a	n/a	n/a
2055.59	n/a	PROB	1027795	n/a	LTP188	ltpFR	9	n/a	n/a	n/a	n/a	n/a	n/a	18	8	6	4	n/a	n/a	n/a	n/a	n/a
2057.112	n/a	STOP	1028556	n/a	LTP188	ltpFR	9	n/a	n/a	n/a	n/a	n/a	n/a	n/a	n/a	n/a	n/a	n/a	n/a	n/a	n/a	n/a
2060.542	n/a	REC_START	1030271	n/a	LTP188	ltpFR	9	7	n/a	n/a	n/a	n/a	n/a	n/a	0	0	0	n/a	n/a	n/a	n/a	n/a
2061.446	n/a	REC_WORD	1030723	wordpools/wasnorm_wordpool_less_exclusions.txt	LTP188	ltpFR	9	7	1	THRONE	1461	n/a	1	n/a	0	0	0	n/a	n/a	n/a	n/a	n/a
2062.712	n/a	REC_WORD	1031356	wordpools/wasnorm_wordpool_less_exclusions.txt	LTP188	ltpFR	9	7	1	CROCODILE	411	n/a	1	n/a	0	0	0	n/a	n/a	n/a	n/a	n/a
2068.25	n/a	REC_WORD	1034125	wordpools/wasnorm_wordpool_less_exclusions.txt	LTP188	ltpFR	9	7	0	SALMON	1227	n/a	1	n/a	0	0	0	n/a	n/a	n/a	n/a	n/a
2149.6	n/a	START	1074800	n/a	LTP188	ltpFR	9	n/a	n/a	n/a	n/a	n/a	n/a	n/a	n/a	n/a	n/a	n/a	n/a	n/a	n/a	n/a
2151.106	n/a	PROB	1075553	n/a	LTP188	ltpFR	9	n/a	n/a	n/a	n/a	n/a	n/a	17	6	3	8	n/a	n/a	n/a	n/a	n/a
2154.634	n/a	PROB	1077317	n/a	LTP188	ltpFR	9	n/a	n/a	n/a	n/a	n/a	n/a	24	6	8	8	n/a	n/a	n/a	n/a	n/a
2156.794	n/a	PROB	1078397	n/a	LTP188	ltpFR	9	n/a	n/a	n/a	n/a	n/a	n/a	16	3	5	8	n/a	n/a	n/a	n/a	n/a
2158.548	n/a	PROB	1079274	n/a	LTP188	ltpFR	9	n/a	n/a	n/a	n/a	n/a	n/a	7	1	2	4	n/a	n/a	n/a	n/a	n/a
2160.924	n/a	PROB	1080462	n/a	LTP188	ltpFR	9	n/a	n/a	n/a	n/a	n/a	n/a	18	4	7	7	n/a	n/a	n/a	n/a	n/a
2163.184	n/a	PROB	1081592	n/a	LTP188	ltpFR	9	n/a	n/a	n/a	n/a	n/a	n/a	15	1	9	5	n/a	n/a	n/a	n/a	n/a
2164.34	n/a	STOP	1082170	n/a	LTP188	ltpFR	9	n/a	n/a	n/a	n/a	n/a	n/a	n/a	n/a	n/a	n/a	n/a	n/a	n/a	n/a	n/a
2166.496	n/a	WORD	1083248	wordpools/wasnorm_wordpool_less_exclusions.txt	LTP188	ltpFR	9	8	1	SALESMAN	1225	n/a	1	n/a	0	0	0	1	0.412841796875	0.57763671875	lower	../fonts/amplitud.ttf
2169.508	n/a	START	1084754	n/a	LTP188	ltpFR	9	n/a	n/a	n/a	n/a	n/a	n/a	n/a	n/a	n/a	n/a	n/a	n/a	n/a	n/a	n/a
2170.512	n/a	PROB	1085256	n/a	LTP188	ltpFR	9	n/a	n/a	n/a	n/a	n/a	n/a	16	5	3	8	n/a	n/a	n/a	n/a	n/a
2172.954	n/a	PROB	1086477	n/a	LTP188	ltpFR	9	n/a	n/a	n/a	n/a	n/a	n/a	23	9	7	7	n/a	n/a	n/a	n/a	n/a
2175.414	n/a	PROB	1087707	n/a	LTP188	ltpFR	9	n/a	n/a	n/a	n/a	n/a	n/a	12	4	2	6	n/a	n/a	n/a	n/a	n/a
2177.07	n/a	PROB	1088535	n/a	LTP188	ltpFR	9	n/a	n/a	n/a	n/a	n/a	n/a	21	8	7	6	n/a	n/a	n/a	n/a	n/a
2179.478	n/a	PROB	1089739	n/a	LTP188	ltpFR	9	n/a	n/a	n/a	n/a	n/a	n/a	23	8	6	9	n/a	n/a	n/a	n/a	n/a
2181.62	n/a	PROB	1090810	n/a	LTP188	ltpFR	9	n/a	n/a	n/a	n/a	n/a	n/a	16	3	6	7	n/a	n/a	n/a	n/a	n/a
2184.182	n/a	STOP	1092091	n/a	LTP188	ltpFR	9	n/a	n/a	n/a	n/a	n/a	n/a	n/a	n/a	n/a	n/a	n/a	n/a	n/a	n/a	n/a
2186.374	n/a	WORD	1093187	wordpools/wasnorm_wordpool_less_exclusions.txt	LTP188	ltpFR	9	8	1	SHOP	1290	n/a	0	n/a	0	0	0	1	0.412841796875	0.57763671875	lower	../fonts/amplitud.ttf
2189.384	n/a	START	1094692	n/a	LTP188	ltpFR	9	n/a	n/a	n/a	n/a	n/a	n/a	n/a	n/a	n/a	n/a	n/a	n/a	n/a	n/a	n/a
2190.22	n/a	PROB	1095110	n/a	LTP188	ltpFR	9	n/a	n/a	n/a	n/a	n/a	n/a	20	5	6	9	n/a	n/a	n/a	n/a	n/a
2192.278	n/a	PROB	1096139	n/a	LTP188	ltpFR	9	n/a	n/a	n/a	n/a	n/a	n/a	21	9	7	5	n/a	n/a	n/a	n/a	n/a
2196.444	n/a	PROB	1098222	n/a	LTP188	ltpFR	9	n/a	n/a	n/a	n/a	n/a	n/a	19	7	4	8	n/a	n/a	n/a	n/a	n/a
2198.854	n/a	PROB	1099427	n/a	LTP188	ltpFR	9	n/a	n/a	n/a	n/a	n/a	n/a	18	5	7	6	n/a	n/a	n/a	n/a	n/a
2201.848	n/a	PROB	1100924	n/a	LTP188	ltpFR	9	n/a	n/a	n/a	n/a	n/a	n/a	15	3	8	4	n/a	n/a	n/a	n/a	n/a
2205.072	n/a	STOP	1102536	n/a	LTP188	ltpFR	9	n/a	n/a	n/a	n/a	n/a	n/a	n/a	n/a	n/a	n/a	n/a	n/a	n/a	n/a	n/a
2206.332	n/a	WORD	1103166	wordpools/wasnorm_wordpool_less_exclusions.txt	LTP188	ltpFR	9	8	1	STADIUM	1364	n/a	0	n/a	0	0	0	1	0.412841796875	0.57763671875	lower	../fonts/amplitud.ttf
2209.344	n/a	START	1104672	n/a	LTP188	ltpFR	9	n/a	n/a	n/a	n/a	n/a	n/a	n/a	n/a	n/a	n/a	n/a	n/a	n/a	n/a	n/a
2210.504	n/a	PROB	1105252	n/a	LTP188	ltpFR	9	n/a	n/a	n/a	n/a	n/a	n/a	19	4	8	7	n/a	n/a	n/a	n/a	n/a
2213.778	n/a	PROB	1106889	n/a	LTP188	ltpFR	9	n/a	n/a	n/a	n/a	n/a	n/a	17	4	8	5	n/a	n/a	n/a	n/a	n/a
2217.24	n/a	PROB	1108620	n/a	LTP188	ltpFR	9	n/a	n/a	n/a	n/a	n/a	n/a	16	8	5	1	n/a	n/a	n/a	n/a	n/a
2219.314	n/a	PROB	1109657	n/a	LTP188	ltpFR	9	n/a	n/a	n/a	n/a	n/a	n/a	20	8	5	7	n/a	n/a	n/a	n/a	n/a
2225.344	n/a	STOP	1112672	n/a	LTP188	ltpFR	9	n/a	n/a	n/a	n/a	n/a	n/a	n/a	n/a	n/a	n/a	n/a	n/a	n/a	n/a	n/a
2226.174	n/a	WORD	1113087	wordpools/wasnorm_wordpool_less_exclusions.txt	LTP188	ltpFR	9	8	1	VICTOR	1563	n/a	1	n/a	0	0	0	1	0.412841796875	0.57763671875	lower	../fonts/amplitud.ttf
2229.186	n/a	START	1114593	n/a	LTP188	ltpFR	9	n/a	n/a	n/a	n/a	n/a	n/a	n/a	n/a	n/a	n/a	n/a	n/a	n/a	n/a	n/a
2230.24	n/a	PROB	1115120	n/a	LTP188	ltpFR	9	n/a	n/a	n/a	n/a	n/a	n/a	21	6	8	7	n/a	n/a	n/a	n/a	n/a
2234.522	n/a	PROB	1117261	n/a	LTP188	ltpFR	9	n/a	n/a	n/a	n/a	n/a	n/a	13	6	1	6	n/a	n/a	n/a	n/a	n/a
2236.028	n/a	PROB	1118014	n/a	LTP188	ltpFR	9	n/a	n/a	n/a	n/a	n/a	n/a	23	9	6	8	n/a	n/a	n/a	n/a	n/a
2238.79	n/a	PROB	1119395	n/a	LTP188	ltpFR	9	n/a	n/a	n/a	n/a	n/a	n/a	20	9	7	4	n/a	n/a	n/a	n/a	n/a
2240.896	n/a	PROB	1120448	n/a	LTP188	ltpFR	9	n/a	n/a	n/a	n/a	n/a	n/a	17	8	8	1	n/a	n/a	n/a	n/a	n/a
2242.706	n/a	PROB	1121353	n/a	LTP188	ltpFR	9	n/a	n/a	n/a	n/a	n/a	n/a	16	5	9	2	n/a	n/a	n/a	n/a	n/a
2244.346	n/a	STOP	1122173	n/a	LTP188	ltpFR	9	n/a	n/a	n/a	n/a	n/a	n/a	n/a	n/a	n/a	n/a	n/a	n/a	n/a	n/a	n/a
2246.352	n/a	WORD	1123176	wordpools/wasnorm_wordpool_less_exclusions.txt	LTP188	ltpFR	9	8	1	SWIMMER	1420	n/a	1	n/a	0	0	0	1	0.412841796875	0.57763671875	lower	../fonts/amplitud.ttf
2249.364	n/a	START	1124682	n/a	LTP188	ltpFR	9	n/a	n/a	n/a	n/a	n/a	n/a	n/a	n/a	n/a	n/a	n/a	n/a	n/a	n/a	n/a
2250.35	n/a	PROB	1125175	n/a	LTP188	ltpFR	9	n/a	n/a	n/a	n/a	n/a	n/a	16	9	2	5	n/a	n/a	n/a	n/a	n/a
2251.888	n/a	PROB	1125944	n/a	LTP188	ltpFR	9	n/a	n/a	n/a	n/a	n/a	n/a	17	8	5	4	n/a	n/a	n/a	n/a	n/a
2254.148	n/a	PROB	1127074	n/a	LTP188	ltpFR	9	n/a	n/a	n/a	n/a	n/a	n/a	8	4	2	2	n/a	n/a	n/a	n/a	n/a
2256.222	n/a	PROB	1128111	n/a	LTP188	ltpFR	9	n/a	n/a	n/a	n/a	n/a	n/a	21	7	8	6	n/a	n/a	n/a	n/a	n/a
2260.036	n/a	PROB	1130018	n/a	LTP188	ltpFR	9	n/a	n/a	n/a	n/a	n/a	n/a	9	2	5	2	n/a	n/a	n/a	n/a	n/a
2262.28	n/a	PROB	1131140	n/a	LTP188	ltpFR	9	n/a	n/a	n/a	n/a	n/a	n/a	12	2	4	6	n/a	n/a	n/a	n/a	n/a
2263.668	n/a	PROB	1131834	n/a	LTP188	ltpFR	9	n/a	n/a	n/a	n/a	n/a	n/a	3	1	1	1	n/a	n/a	n/a	n/a	n/a
2264.578	n/a	STOP	1132289	n/a	LTP188	ltpFR	9	n/a	n/a	n/a	n/a	n/a	n/a	n/a	n/a	n/a	n/a	n/a	n/a	n/a	n/a	n/a
2266.564	n/a	WORD	1133282	wordpools/wasnorm_wordpool_less_exclusions.txt	LTP188	ltpFR	9	8	1	CRUMB	416	n/a	0	n/a	0	0	0	1	0.412841796875	0.57763671875	lower	../fonts/amplitud.ttf
2269.574	n/a	START	1134787	n/a	LTP188	ltpFR	9	n/a	n/a	n/a	n/a	n/a	n/a	n/a	n/a	n/a	n/a	n/a	n/a	n/a	n/a	n/a
2270.444	n/a	PROB	1135222	n/a	LTP188	ltpFR	9	n/a	n/a	n/a	n/a	n/a	n/a	21	6	8	7	n/a	n/a	n/a	n/a	n/a
2274.308	n/a	PROB	1137154	n/a	LTP188	ltpFR	9	n/a	n/a	n/a	n/a	n/a	n/a	16	4	4	8	n/a	n/a	n/a	n/a	n/a
2277.352	n/a	PROB	1138676	n/a	LTP188	ltpFR	9	n/a	n/a	n/a	n/a	n/a	n/a	13	4	4	5	n/a	n/a	n/a	n/a	n/a
2279.21	n/a	PROB	1139605	n/a	LTP188	ltpFR	9	n/a	n/a	n/a	n/a	n/a	n/a	10	4	2	4	n/a	n/a	n/a	n/a	n/a
2281.184	n/a	PROB	1140592	n/a	LTP188	ltpFR	9	n/a	n/a	n/a	n/a	n/a	n/a	17	5	7	5	n/a	n/a	n/a	n/a	n/a
2283.092	n/a	PROB	1141546	n/a	LTP188	ltpFR	9	n/a	n/a	n/a	n/a	n/a	n/a	15	2	9	4	n/a	n/a	n/a	n/a	n/a
2284.836	n/a	STOP	1142418	n/a	LTP188	ltpFR	9	n/a	n/a	n/a	n/a	n/a	n/a	n/a	n/a	n/a	n/a	n/a	n/a	n/a	n/a	n/a
2286.708	n/a	WORD	1143354	wordpools/wasnorm_wordpool_less_exclusions.txt	LTP188	ltpFR	9	8	1	FOOTBALL	591	n/a	0	n/a	0	0	0	1	0.412841796875	0.57763671875	lower	../fonts/amplitud.ttf
2289.718	n/a	START	1144859	n/a	LTP188	ltpFR	9	n/a	n/a	n/a	n/a	n/a	n/a	n/a	n/a	n/a	n/a	n/a	n/a	n/a	n/a	n/a
2290.586	n/a	PROB	1145293	n/a	LTP188	ltpFR	9	n/a	n/a	n/a	n/a	n/a	n/a	14	7	4	3	n/a	n/a	n/a	n/a	n/a
2292.36	n/a	PROB	1146180	n/a	LTP188	ltpFR	9	n/a	n/a	n/a	n/a	n/a	n/a	17	7	5	5	n/a	n/a	n/a	n/a	n/a
2294.368	n/a	PROB	1147184	n/a	LTP188	ltpFR	9	n/a	n/a	n/a	n/a	n/a	n/a	11	4	1	6	n/a	n/a	n/a	n/a	n/a
2296.208	n/a	PROB	1148104	n/a	LTP188	ltpFR	9	n/a	n/a	n/a	n/a	n/a	n/a	15	5	9	1	n/a	n/a	n/a	n/a	n/a
2297.546	n/a	PROB	1148773	n/a	LTP188	ltpFR	9	n/a	n/a	n/a	n/a	n/a	n/a	21	6	7	8	n/a	n/a	n/a	n/a	n/a
2300.258	n/a	PROB	1150129	n/a	LTP188	ltpFR	9	n/a	n/a	n/a	n/a	n/a	n/a	24	9	8	7	n/a	n/a	n/a	n/a	n/a
2305.72	n/a	STOP	1152860	n/a	LTP188	ltpFR	9	n/a	n/a	n/a	n/a	n/a	n/a	n/a	n/a	n/a	n/a	n/a	n/a	n/a	n/a	n/a
2306.918	n/a	WORD	1153459	wordpools/wasnorm_wordpool_less_exclusions.txt	LTP188	ltpFR	9	8	1	GOAT	644	n/a	1	n/a	0	0	0	1	0.412841796875	0.57763671875	lower	../fonts/amplitud.ttf
2309.928	n/a	START	1154964	n/a	LTP188	ltpFR	9	n/a	n/a	n/a	n/a	n/a	n/a	n/a	n/a	n/a	n/a	n/a	n/a	n/a	n/a	n/a
2311.048	n/a	PROB	1155524	n/a	LTP188	ltpFR	9	n/a	n/a	n/a	n/a	n/a	n/a	14	4	5	5	n/a	n/a	n/a	n/a	n/a
2313.624	n/a	PROB	1156812	n/a	LTP188	ltpFR	9	n/a	n/a	n/a	n/a	n/a	n/a	16	4	3	9	n/a	n/a	n/a	n/a	n/a
2316.77	n/a	PROB	1158385	n/a	LTP188	ltpFR	9	n/a	n/a	n/a	n/a	n/a	n/a	16	4	6	6	n/a	n/a	n/a	n/a	n/a
2319.966	n/a	PROB	1159983	n/a	LTP188	ltpFR	9	n/a	n/a	n/a	n/a	n/a	n/a	16	6	3	7	n/a	n/a	n/a	n/a	n/a
2321.906	n/a	PROB	1160953	n/a	LTP188	ltpFR	9	n/a	n/a	n/a	n/a	n/a	n/a	17	8	4	5	n/a	n/a	n/a	n/a	n/a
2324.148	n/a	PROB	1162074	n/a	LTP188	ltpFR	9	n/a	n/a	n/a	n/a	n/a	n/a	9	4	4	1	n/a	n/a	n/a	n/a	n/a
2325.67	n/a	STOP	1162835	n/a	LTP188	ltpFR	9	n/a	n/a	n/a	n/a	n/a	n/a	n/a	n/a	n/a	n/a	n/a	n/a	n/a	n/a	n/a
2326.876	n/a	WORD	1163438	wordpools/wasnorm_wordpool_less_exclusions.txt	LTP188	ltpFR	9	8	1	EWE	542	n/a	1	n/a	0	0	0	1	0.412841796875	0.57763671875	lower	../fonts/amplitud.ttf
2329.888	n/a	START	1164944	n/a	LTP188	ltpFR	9	n/a	n/a	n/a	n/a	n/a	n/a	n/a	n/a	n/a	n/a	n/a	n/a	n/a	n/a	n/a
2330.892	n/a	PROB	1165446	n/a	LTP188	ltpFR	9	n/a	n/a	n/a	n/a	n/a	n/a	4	1	1	2	n/a	n/a	n/a	n/a	n/a
2332.38	n/a	PROB	1166190	n/a	LTP188	ltpFR	9	n/a	n/a	n/a	n/a	n/a	n/a	9	5	2	2	n/a	n/a	n/a	n/a	n/a
2334.036	n/a	PROB	1167018	n/a	LTP188	ltpFR	9	n/a	n/a	n/a	n/a	n/a	n/a	23	9	9	5	n/a	n/a	n/a	n/a	n/a
2336.044	n/a	PROB	1168022	n/a	LTP188	ltpFR	9	n/a	n/a	n/a	n/a	n/a	n/a	14	9	4	1	n/a	n/a	n/a	n/a	n/a
2337.802	n/a	PROB	1168901	n/a	LTP188	ltpFR	9	n/a	n/a	n/a	n/a	n/a	n/a	16	7	8	1	n/a	n/a	n/a	n/a	n/a
2339.574	n/a	PROB	1169787	n/a	LTP188	ltpFR	9	n/a	n/a	n/a	n/a	n/a	n/a	20	7	9	4	n/a	n/a	n/a	n/a	n/a
2342.0	n/a	PROB	1171000	n/a	LTP188	ltpFR	9	n/a	n/a	n/a	n/a	n/a	n/a	9	6	1	2	n/a	n/a	n/a	n/a	n/a
2345.89	n/a	STOP	1172945	n/a	LTP188	ltpFR	9	n/a	n/a	n/a	n/a	n/a	n/a	n/a	n/a	n/a	n/a	n/a	n/a	n/a	n/a	n/a
2347.104	n/a	WORD	1173552	wordpools/wasnorm_wordpool_less_exclusions.txt	LTP188	ltpFR	9	8	1	SKI	1316	n/a	0	n/a	0	0	0	1	0.412841796875	0.57763671875	lower	../fonts/amplitud.ttf
2350.114	n/a	START	1175057	n/a	LTP188	ltpFR	9	n/a	n/a	n/a	n/a	n/a	n/a	n/a	n/a	n/a	n/a	n/a	n/a	n/a	n/a	n/a
2350.95	n/a	PROB	1175475	n/a	LTP188	ltpFR	9	n/a	n/a	n/a	n/a	n/a	n/a	12	7	3	2	n/a	n/a	n/a	n/a	n/a
2352.372	n/a	PROB	1176186	n/a	LTP188	ltpFR	9	n/a	n/a	n/a	n/a	n/a	n/a	14	3	5	6	n/a	n/a	n/a	n/a	n/a
2355.452	n/a	PROB	1177726	n/a	LTP188	ltpFR	9	n/a	n/a	n/a	n/a	n/a	n/a	14	9	2	3	n/a	n/a	n/a	n/a	n/a
2357.576	n/a	PROB	1178788	n/a	LTP188	ltpFR	9	n/a	n/a	n/a	n/a	n/a	n/a	6	1	3	2	n/a	n/a	n/a	n/a	n/a
2359.066	n/a	PROB	1179533	n/a	LTP188	ltpFR	9	n/a	n/a	n/a	n/a	n/a	n/a	11	1	5	5	n/a	n/a	n/a	n/a	n/a
2360.254	n/a	PROB	1180127	n/a	LTP188	ltpFR	9	n/a	n/a	n/a	n/a	n/a	n/a	8	1	2	5	n/a	n/a	n/a	n/a	n/a
2362.428	n/a	PROB	1181214	n/a	LTP188	ltpFR	9	n/a	n/a	n/a	n/a	n/a	n/a	16	5	3	8	n/a	n/a	n/a	n/a	n/a
2364.896	n/a	STOP	1182448	n/a	LTP188	ltpFR	9	n/a	n/a	n/a	n/a	n/a	n/a	n/a	n/a	n/a	n/a	n/a	n/a	n/a	n/a	n/a
2367.032	n/a	WORD	1183516	wordpools/wasnorm_wordpool_less_exclusions.txt	LTP188	ltpFR	9	8	1	TROPHY	1509	n/a	0	n/a	0	0	0	1	0.412841796875	0.57763671875	lower	../fonts/amplitud.ttf
2370.04	n/a	START	1185020	n/a	LTP188	ltpFR	9	n/a	n/a	n/a	n/a	n/a	n/a	n/a	n/a	n/a	n/a	n/a	n/a	n/a	n/a	n/a
2371.028	n/a	PROB	1185514	n/a	LTP188	ltpFR	9	n/a	n/a	n/a	n/a	n/a	n/a	10	2	2	6	n/a	n/a	n/a	n/a	n/a
2372.516	n/a	PROB	1186258	n/a	LTP188	ltpFR	9	n/a	n/a	n/a	n/a	n/a	n/a	22	6	8	8	n/a	n/a	n/a	n/a	n/a
2374.76	n/a	PROB	1187380	n/a	LTP188	ltpFR	9	n/a	n/a	n/a	n/a	n/a	n/a	17	6	4	7	n/a	n/a	n/a	n/a	n/a
2376.466	n/a	PROB	1188233	n/a	LTP188	ltpFR	9	n/a	n/a	n/a	n/a	n/a	n/a	17	2	6	9	n/a	n/a	n/a	n/a	n/a
2378.876	n/a	PROB	1189438	n/a	LTP188	ltpFR	9	n/a	n/a	n/a	n/a	n/a	n/a	18	8	7	3	n/a	n/a	n/a	n/a	n/a
2380.43	n/a	PROB	1190215	n/a	LTP188	ltpFR	9	n/a	n/a	n/a	n/a	n/a	n/a	14	4	7	3	n/a	n/a	n/a	n/a	n/a
2382.054	n/a	PROB	1191027	n/a	LTP188	ltpFR	9	n/a	n/a	n/a	n/a	n/a	n/a	18	6	7	5	n/a	n/a	n/a	n/a	n/a
2385.08	n/a	STOP	1192540	n/a	LTP188	ltpFR	9	n/a	n/a	n/a	n/a	n/a	n/a	n/a	n/a	n/a	n/a	n/a	n/a	n/a	n/a	n/a
2386.956	n/a	WORD	1193478	wordpools/wasnorm_wordpool_less_exclusions.txt	LTP188	ltpFR	9	8	1	ATHLETE	52	n/a	1	n/a	0	0	0	1	0.412841796875	0.57763671875	lower	../fonts/amplitud.ttf
2389.966	n/a	START	1194983	n/a	LTP188	ltpFR	9	n/a	n/a	n/a	n/a	n/a	n/a	n/a	n/a	n/a	n/a	n/a	n/a	n/a	n/a	n/a
2390.788	n/a	PROB	1195394	n/a	LTP188	ltpFR	9	n/a	n/a	n/a	n/a	n/a	n/a	17	8	2	7	n/a	n/a	n/a	n/a	n/a
2393.144	n/a	PROB	1196572	n/a	LTP188	ltpFR	9	n/a	n/a	n/a	n/a	n/a	n/a	13	8	4	1	n/a	n/a	n/a	n/a	n/a
2394.97	n/a	PROB	1197485	n/a	LTP188	ltpFR	9	n/a	n/a	n/a	n/a	n/a	n/a	19	5	7	6	n/a	n/a	n/a	n/a	n/a
2398.6	n/a	PROB	1199300	n/a	LTP188	ltpFR	9	n/a	n/a	n/a	n/a	n/a	n/a	13	2	3	8	n/a	n/a	n/a	n/a	n/a
2400.272	n/a	PROB	1200136	n/a	LTP188	ltpFR	9	n/a	n/a	n/a	n/a	n/a	n/a	14	6	5	3	n/a	n/a	n/a	n/a	n/a
2403.168	n/a	PROB	1201584	n/a	LTP188	ltpFR	9	n/a	n/a	n/a	n/a	n/a	n/a	18	9	7	1	n/a	n/a	n/a	n/a	n/a
2405.25	n/a	STOP	1202625	n/a	LTP188	ltpFR	9	n/a	n/a	n/a	n/a	n/a	n/a	n/a	n/a	n/a	n/a	n/a	n/a	n/a	n/a	n/a
2406.802	n/a	WORD	1203401	wordpools/wasnorm_wordpool_less_exclusions.txt	LTP188	ltpFR	9	8	1	BULLY	196	n/a	1	n/a	0	0	0	1	0.412841796875	0.57763671875	lower	../fonts/amplitud.ttf
2409.81	n/a	START	1204905	n/a	LTP188	ltpFR	9	n/a	n/a	n/a	n/a	n/a	n/a	n/a	n/a	n/a	n/a	n/a	n/a	n/a	n/a	n/a
2410.964	n/a	PROB	1205482	n/a	LTP188	ltpFR	9	n/a	n/a	n/a	n/a	n/a	n/a	12	4	4	4	n/a	n/a	n/a	n/a	n/a
2412.284	n/a	PROB	1206142	n/a	LTP188	ltpFR	9	n/a	n/a	n/a	n/a	n/a	n/a	15	2	8	5	n/a	n/a	n/a	n/a	n/a
2413.758	n/a	PROB	1206879	n/a	LTP188	ltpFR	9	n/a	n/a	n/a	n/a	n/a	n/a	15	3	9	3	n/a	n/a	n/a	n/a	n/a
2416.586	n/a	PROB	1208293	n/a	LTP188	ltpFR	9	n/a	n/a	n/a	n/a	n/a	n/a	18	6	4	8	n/a	n/a	n/a	n/a	n/a
2418.224	n/a	PROB	1209112	n/a	LTP188	ltpFR	9	n/a	n/a	n/a	n/a	n/a	n/a	12	4	6	2	n/a	n/a	n/a	n/a	n/a
2420.048	n/a	PROB	1210024	n/a	LTP188	ltpFR	9	n/a	n/a	n/a	n/a	n/a	n/a	8	2	4	2	n/a	n/a	n/a	n/a	n/a
2421.988	n/a	PROB	1210994	n/a	LTP188	ltpFR	9	n/a	n/a	n/a	n/a	n/a	n/a	27	9	9	9	n/a	n/a	n/a	n/a	n/a
2424.93	n/a	STOP	1212465	n/a	LTP188	ltpFR	9	n/a	n/a	n/a	n/a	n/a	n/a	n/a	n/a	n/a	n/a	n/a	n/a	n/a	n/a	n/a
2427.008	n/a	WORD	1213504	wordpools/wasnorm_wordpool_less_exclusions.txt	LTP188	ltpFR	9	8	1	LIGHTNING	820	n/a	0	n/a	0	0	0	1	0.412841796875	0.57763671875	lower	../fonts/amplitud.ttf
2430.02	n/a	START	1215010	n/a	LTP188	ltpFR	9	n/a	n/a	n/a	n/a	n/a	n/a	n/a	n/a	n/a	n/a	n/a	n/a	n/a	n/a	n/a
2431.174	n/a	PROB	1215587	n/a	LTP188	ltpFR	9	n/a	n/a	n/a	n/a	n/a	n/a	18	7	5	6	n/a	n/a	n/a	n/a	n/a
2434.152	n/a	PROB	1217076	n/a	LTP188	ltpFR	9	n/a	n/a	n/a	n/a	n/a	n/a	25	7	9	9	n/a	n/a	n/a	n/a	n/a
2436.562	n/a	PROB	1218281	n/a	LTP188	ltpFR	9	n/a	n/a	n/a	n/a	n/a	n/a	14	1	7	6	n/a	n/a	n/a	n/a	n/a
2438.854	n/a	PROB	1219427	n/a	LTP188	ltpFR	9	n/a	n/a	n/a	n/a	n/a	n/a	15	2	8	5	n/a	n/a	n/a	n/a	n/a
2440.426	n/a	PROB	1220213	n/a	LTP188	ltpFR	9	n/a	n/a	n/a	n/a	n/a	n/a	15	5	1	9	n/a	n/a	n/a	n/a	n/a
2441.614	n/a	PROB	1220807	n/a	LTP188	ltpFR	9	n/a	n/a	n/a	n/a	n/a	n/a	10	1	7	2	n/a	n/a	n/a	n/a	n/a
2443.42	n/a	PROB	1221710	n/a	LTP188	ltpFR	9	n/a	n/a	n/a	n/a	n/a	n/a	18	5	8	5	n/a	n/a	n/a	n/a	n/a
2445.188	n/a	STOP	1222594	n/a	LTP188	ltpFR	9	n/a	n/a	n/a	n/a	n/a	n/a	n/a	n/a	n/a	n/a	n/a	n/a	n/a	n/a	n/a
2447.0	n/a	WORD	1223500	wordpools/wasnorm_wordpool_less_exclusions.txt	LTP188	ltpFR	9	8	1	DISC	473	n/a	0	n/a	0	0	0	1	0.412841796875	0.57763671875	lower	../fonts/amplitud.ttf
2450.012	n/a	START	1225006	n/a	LTP188	ltpFR	9	n/a	n/a	n/a	n/a	n/a	n/a	n/a	n/a	n/a	n/a	n/a	n/a	n/a	n/a	n/a
2451.084	n/a	PROB	1225542	n/a	LTP188	ltpFR	9	n/a	n/a	n/a	n/a	n/a	n/a	16	4	9	3	n/a	n/a	n/a	n/a	n/a
2454.648	n/a	PROB	1227324	n/a	LTP188	ltpFR	9	n/a	n/a	n/a	n/a	n/a	n/a	24	8	9	7	n/a	n/a	n/a	n/a	n/a
2459.566	n/a	PROB	1229783	n/a	LTP188	ltpFR	9	n/a	n/a	n/a	n/a	n/a	n/a	23	9	8	6	n/a	n/a	n/a	n/a	n/a
2463.7	n/a	PROB	1231850	n/a	LTP188	ltpFR	9	n/a	n/a	n/a	n/a	n/a	n/a	12	3	6	3	n/a	n/a	n/a	n/a	n/a
2465.66	n/a	STOP	1232830	n/a	LTP188	ltpFR	9	n/a	n/a	n/a	n/a	n/a	n/a	n/a	n/a	n/a	n/a	n/a	n/a	n/a	n/a	n/a
2466.894	n/a	WORD	1233447	wordpools/wasnorm_wordpool_less_exclusions.txt	LTP188	ltpFR	9	8	1	BANJO	82	n/a	0	n/a	0	0	0	1	0.412841796875	0.57763671875	lower	../fonts/amplitud.ttf
2469.906	n/a	START	1234953	n/a	LTP188	ltpFR	9	n/a	n/a	n/a	n/a	n/a	n/a	n/a	n/a	n/a	n/a	n/a	n/a	n/a	n/a	n/a
2470.814	n/a	PROB	1235407	n/a	LTP188	ltpFR	9	n/a	n/a	n/a	n/a	n/a	n/a	11	1	8	2	n/a	n/a	n/a	n/a	n/a
2472.08	n/a	PROB	1236040	n/a	LTP188	ltpFR	9	n/a	n/a	n/a	n/a	n/a	n/a	21	7	5	9	n/a	n/a	n/a	n/a	n/a
2475.41	n/a	PROB	1237705	n/a	LTP188	ltpFR	9	n/a	n/a	n/a	n/a	n/a	n/a	19	9	5	5	n/a	n/a	n/a	n/a	n/a
2476.832	n/a	PROB	1238416	n/a	LTP188	ltpFR	9	n/a	n/a	n/a	n/a	n/a	n/a	27	9	9	9	n/a	n/a	n/a	n/a	n/a
2478.588	n/a	PROB	1239294	n/a	LTP188	ltpFR	9	n/a	n/a	n/a	n/a	n/a	n/a	13	4	4	5	n/a	n/a	n/a	n/a	n/a
2480.68	n/a	PROB	1240340	n/a	LTP188	ltpFR	9	n/a	n/a	n/a	n/a	n/a	n/a	9	2	5	2	n/a	n/a	n/a	n/a	n/a
2483.106	n/a	PROB	1241553	n/a	LTP188	ltpFR	9	n/a	n/a	n/a	n/a	n/a	n/a	12	1	7	4	n/a	n/a	n/a	n/a	n/a
2485.102	n/a	STOP	1242551	n/a	LTP188	ltpFR	9	n/a	n/a	n/a	n/a	n/a	n/a	n/a	n/a	n/a	n/a	n/a	n/a	n/a	n/a	n/a
2487.758	n/a	REC_START	1243879	n/a	LTP188	ltpFR	9	8	n/a	n/a	n/a	n/a	n/a	n/a	0	0	0	n/a	n/a	n/a	n/a	n/a
2489.032	n/a	REC_WORD	1244516	wordpools/wasnorm_wordpool_less_exclusions.txt	LTP188	ltpFR	9	8	1	BANJO	82	n/a	0	n/a	0	0	0	n/a	n/a	n/a	n/a	n/a
2498.15	n/a	REC_WORD	1249075	wordpools/wasnorm_wordpool_less_exclusions.txt	LTP188	ltpFR	9	8	1	SALESMAN	1225	n/a	1	n/a	0	0	0	n/a	n/a	n/a	n/a	n/a
2499.338	n/a	REC_WORD	1249669	wordpools/wasnorm_wordpool_less_exclusions.txt	LTP188	ltpFR	9	8	1	ATHLETE	52	n/a	1	n/a	0	0	0	n/a	n/a	n/a	n/a	n/a
2500.226	n/a	REC_WORD	1250113	wordpools/wasnorm_wordpool_less_exclusions.txt	LTP188	ltpFR	9	8	1	SWIMMER	1420	n/a	1	n/a	0	0	0	n/a	n/a	n/a	n/a	n/a
2580.678	n/a	WORD	1290339	wordpools/wasnorm_wordpool_less_exclusions.txt	LTP188	ltpFR	9	9	0	SLUG	1329	n/a	0	n/a	0	0	0	0	0.5869140625	0.422607421875	upper	../fonts/zerothre.ttf
2584.528	n/a	WORD	1292264	wordpools/wasnorm_wordpool_less_exclusions.txt	LTP188	ltpFR	9	9	0	MARINE	869	n/a	1	n/a	0	0	0	0	0.5869140625	0.422607421875	upper	../fonts/zerothre.ttf
2588.592	n/a	WORD	1294296	wordpools/wasnorm_wordpool_less_exclusions.txt	LTP188	ltpFR	9	9	0	SURF	1412	n/a	1	n/a	0	0	0	0	0.5869140625	0.422607421875	upper	../fonts/zerothre.ttf
2592.59	n/a	WORD	1296295	wordpools/wasnorm_wordpool_less_exclusions.txt	LTP188	ltpFR	9	9	0	BROCCOLI	176	n/a	0	n/a	0	0	0	0	0.5869140625	0.422607421875	upper	../fonts/zerothre.ttf
2596.472	n/a	WORD	1298236	wordpools/wasnorm_wordpool_less_exclusions.txt	LTP188	ltpFR	9	9	0	VITAMIN	1574	n/a	0	n/a	0	0	0	0	0.5869140625	0.422607421875	upper	../fonts/zerothre.ttf
2600.504	n/a	WORD	1300252	wordpools/wasnorm_wordpool_less_exclusions.txt	LTP188	ltpFR	9	9	0	ANTELOPE	27	n/a	1	n/a	0	0	0	0	0.5869140625	0.422607421875	upper	../fonts/zerothre.ttf
2604.352	n/a	WORD	1302176	wordpools/wasnorm_wordpool_less_exclusions.txt	LTP188	ltpFR	9	9	0	FIN	566	n/a	1	n/a	0	0	0	0	0.5869140625	0.422607421875	upper	../fonts/zerothre.ttf
2608.204	n/a	WORD	1304102	wordpools/wasnorm_wordpool_less_exclusions.txt	LTP188	ltpFR	9	9	0	OINTMENT	974	n/a	0	n/a	0	0	0	0	0.5869140625	0.422607421875	upper	../fonts/zerothre.ttf
2612.29	n/a	WORD	1306145	wordpools/wasnorm_wordpool_less_exclusions.txt	LTP188	ltpFR	9	9	0	BANQUET	86	n/a	1	n/a	0	0	0	0	0.5869140625	0.422607421875	upper	../fonts/zerothre.ttf
2616.214	n/a	WORD	1308107	wordpools/wasnorm_wordpool_less_exclusions.txt	LTP188	ltpFR	9	9	0	IGLOO	734	n/a	1	n/a	0	0	0	0	0.5869140625	0.422607421875	upper	../fonts/zerothre.ttf
2620.414	n/a	WORD	1310207	wordpools/wasnorm_wordpool_less_exclusions.txt	LTP188	ltpFR	9	9	0	SODA	1341	n/a	0	n/a	0	0	0	0	0.5869140625	0.422607421875	upper	../fonts/zerothre.ttf
2624.53	n/a	WORD	1312265	wordpools/wasnorm_wordpool_less_exclusions.txt	LTP188	ltpFR	9	9	0	WAND	1586	n/a	0	n/a	0	0	0	0	0.5869140625	0.422607421875	upper	../fonts/zerothre.ttf
2628.58	n/a	WORD	1314290	wordpools/wasnorm_wordpool_less_exclusions.txt	LTP188	ltpFR	9	9	0	MAGICIAN	854	n/a	1	n/a	0	0	0	0	0.5869140625	0.422607421875	upper	../fonts/zerothre.ttf
2632.46	n/a	WORD	1316230	wordpools/wasnorm_wordpool_less_exclusions.txt	LTP188	ltpFR	9	9	0	NET	946	n/a	0	n/a	0	0	0	0	0.5869140625	0.422607421875	upper	../fonts/zerothre.ttf
2636.528	n/a	WORD	1318264	wordpools/wasnorm_wordpool_less_exclusions.txt	LTP188	ltpFR	9	9	0	TWIG	1527	n/a	0	n/a	0	0	0	0	0.5869140625	0.422607421875	upper	../fonts/zerothre.ttf
2640.608	n/a	WORD	1320304	wordpools/wasnorm_wordpool_less_exclusions.txt	LTP188	ltpFR	9	9	0	MAGNET	855	n/a	0	n/a	0	0	0	0	0.5869140625	0.422607421875	upper	../fonts/zerothre.ttf
2643.62	n/a	START	1321810	n/a	LTP188	ltpFR	9	n/a	n/a	n/a	n/a	n/a	n/a	n/a	n/a	n/a	n/a	n/a	n/a	n/a	n/a	n/a
2644.64	n/a	PROB	1322320	n/a	LTP188	ltpFR	9	n/a	n/a	n/a	n/a	n/a	n/a	10	8	1	1	n/a	n/a	n/a	n/a	n/a
2648.22	n/a	PROB	1324110	n/a	LTP188	ltpFR	9	n/a	n/a	n/a	n/a	n/a	n/a	18	5	7	6	n/a	n/a	n/a	n/a	n/a
2650.714	n/a	PROB	1325357	n/a	LTP188	ltpFR	9	n/a	n/a	n/a	n/a	n/a	n/a	16	7	1	8	n/a	n/a	n/a	n/a	n/a
2652.486	n/a	PROB	1326243	n/a	LTP188	ltpFR	9	n/a	n/a	n/a	n/a	n/a	n/a	10	4	3	3	n/a	n/a	n/a	n/a	n/a
2654.344	n/a	PROB	1327172	n/a	LTP188	ltpFR	9	n/a	n/a	n/a	n/a	n/a	n/a	11	3	6	2	n/a	n/a	n/a	n/a	n/a
2656.284	n/a	PROB	1328142	n/a	LTP188	ltpFR	9	n/a	n/a	n/a	n/a	n/a	n/a	19	9	8	2	n/a	n/a	n/a	n/a	n/a
2659.62	n/a	STOP	1329810	n/a	LTP188	ltpFR	9	n/a	n/a	n/a	n/a	n/a	n/a	n/a	n/a	n/a	n/a	n/a	n/a	n/a	n/a	n/a
2661.406	n/a	REC_START	1330703	n/a	LTP188	ltpFR	9	9	n/a	n/a	n/a	n/a	n/a	n/a	0	0	0	n/a	n/a	n/a	n/a	n/a
2663.38	n/a	REC_WORD	1331690	wordpools/wasnorm_wordpool_less_exclusions.txt	LTP188	ltpFR	9	9	0	MAGNET	855	n/a	0	n/a	0	0	0	n/a	n/a	n/a	n/a	n/a
2666.534	n/a	REC_WORD	1333267	wordpools/wasnorm_wordpool_less_exclusions.txt	LTP188	ltpFR	9	9	0	SLUG	1329	n/a	0	n/a	0	0	0	n/a	n/a	n/a	n/a	n/a
2675.174	n/a	REC_WORD	1337587	wordpools/wasnorm_wordpool_less_exclusions.txt	LTP188	ltpFR	9	9	0	BROCCOLI	176	n/a	0	n/a	0	0	0	n/a	n/a	n/a	n/a	n/a
2676.406	n/a	REC_WORD	1338203	wordpools/wasnorm_wordpool_less_exclusions.txt	LTP188	ltpFR	9	9	0	SURF	1412	n/a	1	n/a	0	0	0	n/a	n/a	n/a	n/a	n/a
2712.99	n/a	REC_WORD	1356495	wordpools/wasnorm_wordpool_less_exclusions.txt	LTP188	ltpFR	9	9	0	ANTELOPE	27	n/a	1	n/a	0	0	0	n/a	n/a	n/a	n/a	n/a
2780.442	n/a	WORD	1390221	wordpools/wasnorm_wordpool_less_exclusions.txt	LTP188	ltpFR	9	10	0	COURSE	390	n/a	0	n/a	0	0	0	0	0.5869140625	0.422607421875	upper	../fonts/zerothre.ttf
2784.474	n/a	WORD	1392237	wordpools/wasnorm_wordpool_less_exclusions.txt	LTP188	ltpFR	9	10	0	WITNESS	1618	n/a	1	n/a	0	0	0	0	0.5869140625	0.422607421875	upper	../fonts/zerothre.ttf
2788.322	n/a	WORD	1394161	wordpools/wasnorm_wordpool_less_exclusions.txt	LTP188	ltpFR	9	10	1	IDOL	733	n/a	1	n/a	0	0	0	1	0.412841796875	0.57763671875	lower	../fonts/amplitud.ttf
2792.538	n/a	WORD	1396269	wordpools/wasnorm_wordpool_less_exclusions.txt	LTP188	ltpFR	9	10	1	PERISCOPE	1050	n/a	0	n/a	0	0	0	1	0.412841796875	0.57763671875	lower	../fonts/amplitud.ttf
2796.42	n/a	WORD	1398210	wordpools/wasnorm_wordpool_less_exclusions.txt	LTP188	ltpFR	9	10	1	ANIMAL	23	n/a	1	n/a	0	0	0	1	0.412841796875	0.57763671875	lower	../fonts/amplitud.ttf
2800.518	n/a	WORD	1400259	wordpools/wasnorm_wordpool_less_exclusions.txt	LTP188	ltpFR	9	10	1	EMPLOYEE	531	n/a	1	n/a	0	0	0	1	0.412841796875	0.57763671875	lower	../fonts/amplitud.ttf
2804.402	n/a	WORD	1402201	wordpools/wasnorm_wordpool_less_exclusions.txt	LTP188	ltpFR	9	10	1	BOY	161	n/a	1	n/a	0	0	0	1	0.412841796875	0.57763671875	lower	../fonts/amplitud.ttf
2808.356	n/a	WORD	1404178	wordpools/wasnorm_wordpool_less_exclusions.txt	LTP188	ltpFR	9	10	1	JAW	751	n/a	0	n/a	0	0	0	1	0.412841796875	0.57763671875	lower	../fonts/amplitud.ttf
2812.502	n/a	WORD	1406251	wordpools/wasnorm_wordpool_less_exclusions.txt	LTP188	ltpFR	9	10	0	SAW	1239	n/a	1	n/a	0	0	0	0	0.5869140625	0.422607421875	upper	../fonts/zerothre.ttf
2816.48	n/a	WORD	1408240	wordpools/wasnorm_wordpool_less_exclusions.txt	LTP188	ltpFR	9	10	0	CLASS	318	n/a	1	n/a	0	0	0	0	0.5869140625	0.422607421875	upper	../fonts/zerothre.ttf
2820.496	n/a	WORD	1410248	wordpools/wasnorm_wordpool_less_exclusions.txt	LTP188	ltpFR	9	10	1	CAT	257	n/a	1	n/a	0	0	0	1	0.412841796875	0.57763671875	lower	../fonts/amplitud.ttf
2824.612	n/a	WORD	1412306	wordpools/wasnorm_wordpool_less_exclusions.txt	LTP188	ltpFR	9	10	1	CIRCUS	311	n/a	1	n/a	0	0	0	1	0.412841796875	0.57763671875	lower	../fonts/amplitud.ttf
2828.75	n/a	WORD	1414375	wordpools/wasnorm_wordpool_less_exclusions.txt	LTP188	ltpFR	9	10	0	QUAIL	1147	n/a	0	n/a	0	0	0	0	0.5869140625	0.422607421875	upper	../fonts/zerothre.ttf
2832.944	n/a	WORD	1416472	wordpools/wasnorm_wordpool_less_exclusions.txt	LTP188	ltpFR	9	10	0	BLUEJAY	141	n/a	0	n/a	0	0	0	0	0.5869140625	0.422607421875	upper	../fonts/zerothre.ttf
2836.866	n/a	WORD	1418433	wordpools/wasnorm_wordpool_less_exclusions.txt	LTP188	ltpFR	9	10	0	CATTLE	261	n/a	0	n/a	0	0	0	0	0.5869140625	0.422607421875	upper	../fonts/zerothre.ttf
2840.688	n/a	WORD	1420344	wordpools/wasnorm_wordpool_less_exclusions.txt	LTP188	ltpFR	9	10	0	BARN	89	n/a	1	n/a	0	0	0	0	0.5869140625	0.422607421875	upper	../fonts/zerothre.ttf
2846.378	n/a	REC_START	1423189	n/a	LTP188	ltpFR	9	10	n/a	n/a	n/a	n/a	n/a	n/a	0	0	0	n/a	n/a	n/a	n/a	n/a
2846.782	n/a	REC_WORD	1423391	wordpools/wasnorm_wordpool_less_exclusions.txt	LTP188	ltpFR	9	10	0	CATTLE	261	n/a	0	n/a	0	0	0	n/a	n/a	n/a	n/a	n/a
2847.6	n/a	REC_WORD	1423800	wordpools/wasnorm_wordpool_less_exclusions.txt	LTP188	ltpFR	9	10	0	BARN	89	n/a	1	n/a	0	0	0	n/a	n/a	n/a	n/a	n/a
2848.442	n/a	REC_WORD	1424221	wordpools/wasnorm_wordpool_less_exclusions.txt	LTP188	ltpFR	9	10	0	BLUEJAY	141	n/a	0	n/a	0	0	0	n/a	n/a	n/a	n/a	n/a
2858.69	n/a	REC_WORD	1429345	wordpools/wasnorm_wordpool_less_exclusions.txt	LTP188	ltpFR	9	10	1	PERISCOPE	1050	n/a	0	n/a	0	0	0	n/a	n/a	n/a	n/a	n/a
2922.016	n/a	REST_REWET	1461008	n/a	LTP188	ltpFR	9	10	n/a	n/a	n/a	n/a	n/a	n/a	0	0	0	n/a	n/a	n/a	n/a	n/a
3187.682	n/a	START	1593841	n/a	LTP188	ltpFR	9	n/a	n/a	n/a	n/a	n/a	n/a	n/a	n/a	n/a	n/a	n/a	n/a	n/a	n/a	n/a
3189.19	n/a	PROB	1594595	n/a	LTP188	ltpFR	9	n/a	n/a	n/a	n/a	n/a	n/a	15	8	1	6	n/a	n/a	n/a	n/a	n/a
3190.944	n/a	PROB	1595472	n/a	LTP188	ltpFR	9	n/a	n/a	n/a	n/a	n/a	n/a	13	1	9	3	n/a	n/a	n/a	n/a	n/a
3192.332	n/a	PROB	1596166	n/a	LTP188	ltpFR	9	n/a	n/a	n/a	n/a	n/a	n/a	15	4	5	6	n/a	n/a	n/a	n/a	n/a
3194.324	n/a	STOP	1597162	n/a	LTP188	ltpFR	9	n/a	n/a	n/a	n/a	n/a	n/a	n/a	n/a	n/a	n/a	n/a	n/a	n/a	n/a	n/a
3196.534	n/a	WORD	1598267	wordpools/wasnorm_wordpool_less_exclusions.txt	LTP188	ltpFR	9	11	1	CIGAR	308	n/a	0	n/a	0	0	0	1	0.412841796875	0.57763671875	lower	../fonts/amplitud.ttf
3199.544	n/a	START	1599772	n/a	LTP188	ltpFR	9	n/a	n/a	n/a	n/a	n/a	n/a	n/a	n/a	n/a	n/a	n/a	n/a	n/a	n/a	n/a
3200.364	n/a	PROB	1600182	n/a	LTP188	ltpFR	9	n/a	n/a	n/a	n/a	n/a	n/a	12	2	3	7	n/a	n/a	n/a	n/a	n/a
3201.77	n/a	PROB	1600885	n/a	LTP188	ltpFR	9	n/a	n/a	n/a	n/a	n/a	n/a	23	7	8	8	n/a	n/a	n/a	n/a	n/a
3204.596	n/a	PROB	1602298	n/a	LTP188	ltpFR	9	n/a	n/a	n/a	n/a	n/a	n/a	13	3	9	1	n/a	n/a	n/a	n/a	n/a
3207.544	n/a	STOP	1603772	n/a	LTP188	ltpFR	9	n/a	n/a	n/a	n/a	n/a	n/a	n/a	n/a	n/a	n/a	n/a	n/a	n/a	n/a	n/a
3208.394	n/a	WORD	1604197	wordpools/wasnorm_wordpool_less_exclusions.txt	LTP188	ltpFR	9	11	1	ROOT	1210	n/a	1	n/a	0	0	0	1	0.412841796875	0.57763671875	lower	../fonts/amplitud.ttf
3211.406	n/a	START	1605703	n/a	LTP188	ltpFR	9	n/a	n/a	n/a	n/a	n/a	n/a	n/a	n/a	n/a	n/a	n/a	n/a	n/a	n/a	n/a
3212.598	n/a	PROB	1606299	n/a	LTP188	ltpFR	9	n/a	n/a	n/a	n/a	n/a	n/a	14	2	7	5	n/a	n/a	n/a	n/a	n/a
3215.622	n/a	PROB	1607811	n/a	LTP188	ltpFR	9	n/a	n/a	n/a	n/a	n/a	n/a	12	1	2	9	n/a	n/a	n/a	n/a	n/a
3219.406	n/a	STOP	1609703	n/a	LTP188	ltpFR	9	n/a	n/a	n/a	n/a	n/a	n/a	n/a	n/a	n/a	n/a	n/a	n/a	n/a	n/a	n/a
3220.558	n/a	WORD	1610279	wordpools/wasnorm_wordpool_less_exclusions.txt	LTP188	ltpFR	9	11	1	THICKET	1455	n/a	0	n/a	0	0	0	1	0.412841796875	0.57763671875	lower	../fonts/amplitud.ttf
3223.568	n/a	START	1611784	n/a	LTP188	ltpFR	9	n/a	n/a	n/a	n/a	n/a	n/a	n/a	n/a	n/a	n/a	n/a	n/a	n/a	n/a	n/a
3224.476	n/a	PROB	1612238	n/a	LTP188	ltpFR	9	n/a	n/a	n/a	n/a	n/a	n/a	12	6	3	3	n/a	n/a	n/a	n/a	n/a
3228.988	n/a	PROB	1614494	n/a	LTP188	ltpFR	9	n/a	n/a	n/a	n/a	n/a	n/a	12	9	1	2	n/a	n/a	n/a	n/a	n/a
3230.142	n/a	STOP	1615071	n/a	LTP188	ltpFR	9	n/a	n/a	n/a	n/a	n/a	n/a	n/a	n/a	n/a	n/a	n/a	n/a	n/a	n/a	n/a
3232.688	n/a	WORD	1616344	wordpools/wasnorm_wordpool_less_exclusions.txt	LTP188	ltpFR	9	11	1	CALENDAR	221	n/a	0	n/a	0	0	0	1	0.412841796875	0.57763671875	lower	../fonts/amplitud.ttf
3235.7	n/a	START	1617850	n/a	LTP188	ltpFR	9	n/a	n/a	n/a	n/a	n/a	n/a	n/a	n/a	n/a	n/a	n/a	n/a	n/a	n/a	n/a
3236.738	n/a	PROB	1618369	n/a	LTP188	ltpFR	9	n/a	n/a	n/a	n/a	n/a	n/a	16	9	3	4	n/a	n/a	n/a	n/a	n/a
3239.546	n/a	PROB	1619773	n/a	LTP188	ltpFR	9	n/a	n/a	n/a	n/a	n/a	n/a	18	5	4	9	n/a	n/a	n/a	n/a	n/a
3241.404	n/a	PROB	1620702	n/a	LTP188	ltpFR	9	n/a	n/a	n/a	n/a	n/a	n/a	12	1	9	1	n/a	n/a	n/a	n/a	n/a
3242.51	n/a	STOP	1621255	n/a	LTP188	ltpFR	9	n/a	n/a	n/a	n/a	n/a	n/a	n/a	n/a	n/a	n/a	n/a	n/a	n/a	n/a	n/a
3244.532	n/a	WORD	1622266	wordpools/wasnorm_wordpool_less_exclusions.txt	LTP188	ltpFR	9	11	0	GORILLA	650	n/a	1	n/a	0	0	0	0	0.5869140625	0.422607421875	upper	../fonts/zerothre.ttf
3247.544	n/a	START	1623772	n/a	LTP188	ltpFR	9	n/a	n/a	n/a	n/a	n/a	n/a	n/a	n/a	n/a	n/a	n/a	n/a	n/a	n/a	n/a
3248.596	n/a	PROB	1624298	n/a	LTP188	ltpFR	9	n/a	n/a	n/a	n/a	n/a	n/a	16	1	8	7	n/a	n/a	n/a	n/a	n/a
3250.456	n/a	PROB	1625228	n/a	LTP188	ltpFR	9	n/a	n/a	n/a	n/a	n/a	n/a	19	6	8	5	n/a	n/a	n/a	n/a	n/a
3252.932	n/a	PROB	1626466	n/a	LTP188	ltpFR	9	n/a	n/a	n/a	n/a	n/a	n/a	18	8	6	4	n/a	n/a	n/a	n/a	n/a
3254.486	n/a	STOP	1627243	n/a	LTP188	ltpFR	9	n/a	n/a	n/a	n/a	n/a	n/a	n/a	n/a	n/a	n/a	n/a	n/a	n/a	n/a	n/a
3256.48	n/a	WORD	1628240	wordpools/wasnorm_wordpool_less_exclusions.txt	LTP188	ltpFR	9	11	0	WILDERNESS	1610	n/a	1	n/a	0	0	0	0	0.5869140625	0.422607421875	upper	../fonts/zerothre.ttf
3259.49	n/a	START	1629745	n/a	LTP188	ltpFR	9	n/a	n/a	n/a	n/a	n/a	n/a	n/a	n/a	n/a	n/a	n/a	n/a	n/a	n/a	n/a
3260.36	n/a	PROB	1630180	n/a	LTP188	ltpFR	9	n/a	n/a	n/a	n/a	n/a	n/a	14	2	9	3	n/a	n/a	n/a	n/a	n/a
3262.718	n/a	PROB	1631359	n/a	LTP188	ltpFR	9	n/a	n/a	n/a	n/a	n/a	n/a	14	5	3	6	n/a	n/a	n/a	n/a	n/a
3265.998	n/a	STOP	1632999	n/a	LTP188	ltpFR	9	n/a	n/a	n/a	n/a	n/a	n/a	n/a	n/a	n/a	n/a	n/a	n/a	n/a	n/a	n/a
3268.592	n/a	WORD	1634296	wordpools/wasnorm_wordpool_less_exclusions.txt	LTP188	ltpFR	9	11	0	HOUND	724	n/a	1	n/a	0	0	0	0	0.5869140625	0.422607421875	upper	../fonts/zerothre.ttf
3271.602	n/a	START	1635801	n/a	LTP188	ltpFR	9	n/a	n/a	n/a	n/a	n/a	n/a	n/a	n/a	n/a	n/a	n/a	n/a	n/a	n/a	n/a
3272.456	n/a	PROB	1636228	n/a	LTP188	ltpFR	9	n/a	n/a	n/a	n/a	n/a	n/a	26	7	7	8	n/a	n/a	n/a	n/a	n/a
3274.948	n/a	PROB	1637474	n/a	LTP188	ltpFR	9	n/a	n/a	n/a	n/a	n/a	n/a	7	3	2	2	n/a	n/a	n/a	n/a	n/a
3277.174	n/a	PROB	1638587	n/a	LTP188	ltpFR	9	n/a	n/a	n/a	n/a	n/a	n/a	16	6	5	5	n/a	n/a	n/a	n/a	n/a
3278.416	n/a	STOP	1639208	n/a	LTP188	ltpFR	9	n/a	n/a	n/a	n/a	n/a	n/a	n/a	n/a	n/a	n/a	n/a	n/a	n/a	n/a	n/a
3280.61	n/a	WORD	1640305	wordpools/wasnorm_wordpool_less_exclusions.txt	LTP188	ltpFR	9	11	0	WALRUS	1585	n/a	1	n/a	0	0	0	0	0.5869140625	0.422607421875	upper	../fonts/zerothre.ttf
3283.616	n/a	START	1641808	n/a	LTP188	ltpFR	9	n/a	n/a	n/a	n/a	n/a	n/a	n/a	n/a	n/a	n/a	n/a	n/a	n/a	n/a	n/a
3284.756	n/a	PROB	1642378	n/a	LTP188	ltpFR	9	n/a	n/a	n/a	n/a	n/a	n/a	19	7	8	4	n/a	n/a	n/a	n/a	n/a
3287.648	n/a	PROB	1643824	n/a	LTP188	ltpFR	9	n/a	n/a	n/a	n/a	n/a	n/a	23	9	8	6	n/a	n/a	n/a	n/a	n/a
3289.79	n/a	PROB	1644895	n/a	LTP188	ltpFR	9	n/a	n/a	n/a	n/a	n/a	n/a	6	1	2	3	n/a	n/a	n/a	n/a	n/a
3291.224	n/a	STOP	1645612	n/a	LTP188	ltpFR	9	n/a	n/a	n/a	n/a	n/a	n/a	n/a	n/a	n/a	n/a	n/a	n/a	n/a	n/a	n/a
3292.75	n/a	WORD	1646375	wordpools/wasnorm_wordpool_less_exclusions.txt	LTP188	ltpFR	9	11	1	BRANCH	168	n/a	0	n/a	0	0	0	1	0.412841796875	0.57763671875	lower	../fonts/amplitud.ttf
3295.762	n/a	START	1647881	n/a	LTP188	ltpFR	9	n/a	n/a	n/a	n/a	n/a	n/a	n/a	n/a	n/a	n/a	n/a	n/a	n/a	n/a	n/a
3296.7	n/a	PROB	1648350	n/a	LTP188	ltpFR	9	n/a	n/a	n/a	n/a	n/a	n/a	13	1	7	5	n/a	n/a	n/a	n/a	n/a
3299.542	n/a	PROB	1649771	n/a	LTP188	ltpFR	9	n/a	n/a	n/a	n/a	n/a	n/a	18	2	9	7	n/a	n/a	n/a	n/a	n/a
3302.794	n/a	STOP	1651397	n/a	LTP188	ltpFR	9	n/a	n/a	n/a	n/a	n/a	n/a	n/a	n/a	n/a	n/a	n/a	n/a	n/a	n/a	n/a
3304.644	n/a	WORD	1652322	wordpools/wasnorm_wordpool_less_exclusions.txt	LTP188	ltpFR	9	11	1	COMMANDER	354	n/a	1	n/a	0	0	0	1	0.412841796875	0.57763671875	lower	../fonts/amplitud.ttf
3307.658	n/a	START	1653829	n/a	LTP188	ltpFR	9	n/a	n/a	n/a	n/a	n/a	n/a	n/a	n/a	n/a	n/a	n/a	n/a	n/a	n/a	n/a
3308.544	n/a	PROB	1654272	n/a	LTP188	ltpFR	9	n/a	n/a	n/a	n/a	n/a	n/a	13	5	4	4	n/a	n/a	n/a	n/a	n/a
3310.552	n/a	PROB	1655276	n/a	LTP188	ltpFR	9	n/a	n/a	n/a	n/a	n/a	n/a	13	5	2	6	n/a	n/a	n/a	n/a	n/a
3314.618	n/a	STOP	1657309	n/a	LTP188	ltpFR	9	n/a	n/a	n/a	n/a	n/a	n/a	n/a	n/a	n/a	n/a	n/a	n/a	n/a	n/a	n/a
3316.724	n/a	WORD	1658362	wordpools/wasnorm_wordpool_less_exclusions.txt	LTP188	ltpFR	9	11	0	CHAIRPERSON	275	n/a	1	n/a	0	0	0	0	0.5869140625	0.422607421875	upper	../fonts/zerothre.ttf
3319.738	n/a	START	1659869	n/a	LTP188	ltpFR	9	n/a	n/a	n/a	n/a	n/a	n/a	n/a	n/a	n/a	n/a	n/a	n/a	n/a	n/a	n/a
3320.64	n/a	PROB	1660320	n/a	LTP188	ltpFR	9	n/a	n/a	n/a	n/a	n/a	n/a	10	2	7	1	n/a	n/a	n/a	n/a	n/a
3322.178	n/a	PROB	1661089	n/a	LTP188	ltpFR	9	n/a	n/a	n/a	n/a	n/a	n/a	9	3	5	1	n/a	n/a	n/a	n/a	n/a
3323.768	n/a	PROB	1661884	n/a	LTP188	ltpFR	9	n/a	n/a	n/a	n/a	n/a	n/a	10	6	2	2	n/a	n/a	n/a	n/a	n/a
3325.09	n/a	PROB	1662545	n/a	LTP188	ltpFR	9	n/a	n/a	n/a	n/a	n/a	n/a	13	9	3	1	n/a	n/a	n/a	n/a	n/a
3326.194	n/a	STOP	1663097	n/a	LTP188	ltpFR	9	n/a	n/a	n/a	n/a	n/a	n/a	n/a	n/a	n/a	n/a	n/a	n/a	n/a	n/a	n/a
3328.856	n/a	WORD	1664428	wordpools/wasnorm_wordpool_less_exclusions.txt	LTP188	ltpFR	9	11	0	WOLF	1619	n/a	1	n/a	0	0	0	0	0.5869140625	0.422607421875	upper	../fonts/zerothre.ttf
3331.868	n/a	START	1665934	n/a	LTP188	ltpFR	9	n/a	n/a	n/a	n/a	n/a	n/a	n/a	n/a	n/a	n/a	n/a	n/a	n/a	n/a	n/a
3332.91	n/a	PROB	1666455	n/a	LTP188	ltpFR	9	n/a	n/a	n/a	n/a	n/a	n/a	15	1	9	5	n/a	n/a	n/a	n/a	n/a
3334.174	n/a	PROB	1667087	n/a	LTP188	ltpFR	9	n/a	n/a	n/a	n/a	n/a	n/a	17	5	5	7	n/a	n/a	n/a	n/a	n/a
3335.782	n/a	PROB	1667891	n/a	LTP188	ltpFR	9	n/a	n/a	n/a	n/a	n/a	n/a	18	8	7	3	n/a	n/a	n/a	n/a	n/a
3337.12	n/a	PROB	1668560	n/a	LTP188	ltpFR	9	n/a	n/a	n/a	n/a	n/a	n/a	19	7	4	8	n/a	n/a	n/a	n/a	n/a
3339.066	n/a	STOP	1669533	n/a	LTP188	ltpFR	9	n/a	n/a	n/a	n/a	n/a	n/a	n/a	n/a	n/a	n/a	n/a	n/a	n/a	n/a	n/a
3340.8	n/a	WORD	1670400	wordpools/wasnorm_wordpool_less_exclusions.txt	LTP188	ltpFR	9	11	0	GARAGE	621	n/a	1	n/a	0	0	0	0	0.5869140625	0.422607421875	upper	../fonts/zerothre.ttf
3343.812	n/a	START	1671906	n/a	LTP188	ltpFR	9	n/a	n/a	n/a	n/a	n/a	n/a	n/a	n/a	n/a	n/a	n/a	n/a	n/a	n/a	n/a
3344.9	n/a	PROB	1672450	n/a	LTP188	ltpFR	9	n/a	n/a	n/a	n/a	n/a	n/a	17	7	9	1	n/a	n/a	n/a	n/a	n/a
3346.422	n/a	PROB	1673211	n/a	LTP188	ltpFR	9	n/a	n/a	n/a	n/a	n/a	n/a	14	1	5	8	n/a	n/a	n/a	n/a	n/a
3348.512	n/a	PROB	1674256	n/a	LTP188	ltpFR	9	n/a	n/a	n/a	n/a	n/a	n/a	14	1	5	8	n/a	n/a	n/a	n/a	n/a
3349.952	n/a	PROB	1674976	n/a	LTP188	ltpFR	9	n/a	n/a	n/a	n/a	n/a	n/a	5	1	1	3	n/a	n/a	n/a	n/a	n/a
3351.356	n/a	STOP	1675678	n/a	LTP188	ltpFR	9	n/a	n/a	n/a	n/a	n/a	n/a	n/a	n/a	n/a	n/a	n/a	n/a	n/a	n/a	n/a
3352.964	n/a	WORD	1676482	wordpools/wasnorm_wordpool_less_exclusions.txt	LTP188	ltpFR	9	11	0	SWING	1421	n/a	1	n/a	0	0	0	0	0.5869140625	0.422607421875	upper	../fonts/zerothre.ttf
3355.974	n/a	START	1677987	n/a	LTP188	ltpFR	9	n/a	n/a	n/a	n/a	n/a	n/a	n/a	n/a	n/a	n/a	n/a	n/a	n/a	n/a	n/a
3356.932	n/a	PROB	1678466	n/a	LTP188	ltpFR	9	n/a	n/a	n/a	n/a	n/a	n/a	13	8	2	3	n/a	n/a	n/a	n/a	n/a
3359.052	n/a	PROB	1679526	n/a	LTP188	ltpFR	9	n/a	n/a	n/a	n/a	n/a	n/a	12	6	5	1	n/a	n/a	n/a	n/a	n/a
3362.918	n/a	STOP	1681459	n/a	LTP188	ltpFR	9	n/a	n/a	n/a	n/a	n/a	n/a	n/a	n/a	n/a	n/a	n/a	n/a	n/a	n/a	n/a
3364.932	n/a	WORD	1682466	wordpools/wasnorm_wordpool_less_exclusions.txt	LTP188	ltpFR	9	11	1	BEAVER	109	n/a	1	n/a	0	0	0	1	0.412841796875	0.57763671875	lower	../fonts/amplitud.ttf
3367.938	n/a	START	1683969	n/a	LTP188	ltpFR	9	n/a	n/a	n/a	n/a	n/a	n/a	n/a	n/a	n/a	n/a	n/a	n/a	n/a	n/a	n/a
3368.842	n/a	PROB	1684421	n/a	LTP188	ltpFR	9	n/a	n/a	n/a	n/a	n/a	n/a	14	5	1	8	n/a	n/a	n/a	n/a	n/a
3370.63	n/a	PROB	1685315	n/a	LTP188	ltpFR	9	n/a	n/a	n/a	n/a	n/a	n/a	11	3	2	6	n/a	n/a	n/a	n/a	n/a
3372.572	n/a	PROB	1686286	n/a	LTP188	ltpFR	9	n/a	n/a	n/a	n/a	n/a	n/a	16	4	4	8	n/a	n/a	n/a	n/a	n/a
3375.938	n/a	STOP	1687969	n/a	LTP188	ltpFR	9	n/a	n/a	n/a	n/a	n/a	n/a	n/a	n/a	n/a	n/a	n/a	n/a	n/a	n/a	n/a
3376.854	n/a	WORD	1688427	wordpools/wasnorm_wordpool_less_exclusions.txt	LTP188	ltpFR	9	11	1	BRACES	164	n/a	0	n/a	0	0	0	1	0.412841796875	0.57763671875	lower	../fonts/amplitud.ttf
3379.866	n/a	START	1689933	n/a	LTP188	ltpFR	9	n/a	n/a	n/a	n/a	n/a	n/a	n/a	n/a	n/a	n/a	n/a	n/a	n/a	n/a	n/a
3380.804	n/a	PROB	1690402	n/a	LTP188	ltpFR	9	n/a	n/a	n/a	n/a	n/a	n/a	13	8	4	1	n/a	n/a	n/a	n/a	n/a
3382.276	n/a	PROB	1691138	n/a	LTP188	ltpFR	9	n/a	n/a	n/a	n/a	n/a	n/a	13	6	1	6	n/a	n/a	n/a	n/a	n/a
3383.63	n/a	PROB	1691815	n/a	LTP188	ltpFR	9	n/a	n/a	n/a	n/a	n/a	n/a	10	2	7	1	n/a	n/a	n/a	n/a	n/a
3385.404	n/a	PROB	1692702	n/a	LTP188	ltpFR	9	n/a	n/a	n/a	n/a	n/a	n/a	6	2	1	3	n/a	n/a	n/a	n/a	n/a
3386.822	n/a	STOP	1693411	n/a	LTP188	ltpFR	9	n/a	n/a	n/a	n/a	n/a	n/a	n/a	n/a	n/a	n/a	n/a	n/a	n/a	n/a	n/a
3389.704	n/a	REC_START	1694852	n/a	LTP188	ltpFR	9	11	n/a	n/a	n/a	n/a	n/a	n/a	0	0	0	n/a	n/a	n/a	n/a	n/a
3390.886	n/a	REC_WORD	1695443	wordpools/wasnorm_wordpool_less_exclusions.txt	LTP188	ltpFR	9	11	1	THICKET	1455	n/a	0	n/a	0	0	0	n/a	n/a	n/a	n/a	n/a
3391.674	n/a	REC_WORD	1695837	wordpools/wasnorm_wordpool_less_exclusions.txt	LTP188	ltpFR	9	11	1	BRACES	164	n/a	0	n/a	0	0	0	n/a	n/a	n/a	n/a	n/a
3395.906	n/a	REC_WORD	1697953	wordpools/wasnorm_wordpool_less_exclusions.txt	LTP188	ltpFR	9	11	1	BEAVER	109	n/a	1	n/a	0	0	0	n/a	n/a	n/a	n/a	n/a
3475.714	n/a	WORD	1737857	wordpools/wasnorm_wordpool_less_exclusions.txt	LTP188	ltpFR	9	12	1	SISTER	1312	n/a	1	n/a	0	0	0	1	0.412841796875	0.57763671875	lower	../fonts/amplitud.ttf
3479.682	n/a	WORD	1739841	wordpools/wasnorm_wordpool_less_exclusions.txt	LTP188	ltpFR	9	12	1	WEED	1599	n/a	1	n/a	0	0	0	1	0.412841796875	0.57763671875	lower	../fonts/amplitud.ttf
3483.662	n/a	WORD	1741831	wordpools/wasnorm_wordpool_less_exclusions.txt	LTP188	ltpFR	9	12	1	CANARY	227	n/a	1	n/a	0	0	0	1	0.412841796875	0.57763671875	lower	../fonts/amplitud.ttf
3487.51	n/a	WORD	1743755	wordpools/wasnorm_wordpool_less_exclusions.txt	LTP188	ltpFR	9	12	1	ROBIN	1199	n/a	1	n/a	0	0	0	1	0.412841796875	0.57763671875	lower	../fonts/amplitud.ttf
3491.508	n/a	WORD	1745754	wordpools/wasnorm_wordpool_less_exclusions.txt	LTP188	ltpFR	9	12	1	PLASTER	1085	n/a	0	n/a	0	0	0	1	0.412841796875	0.57763671875	lower	../fonts/amplitud.ttf
3495.456	n/a	WORD	1747728	wordpools/wasnorm_wordpool_less_exclusions.txt	LTP188	ltpFR	9	12	1	PRINTER	1126	n/a	0	n/a	0	0	0	1	0.412841796875	0.57763671875	lower	../fonts/amplitud.ttf
3499.508	n/a	WORD	1749754	wordpools/wasnorm_wordpool_less_exclusions.txt	LTP188	ltpFR	9	12	1	LUMBER	848	n/a	0	n/a	0	0	0	1	0.412841796875	0.57763671875	lower	../fonts/amplitud.ttf
3503.404	n/a	WORD	1751702	wordpools/wasnorm_wordpool_less_exclusions.txt	LTP188	ltpFR	9	12	1	TWIN	1528	n/a	1	n/a	0	0	0	1	0.412841796875	0.57763671875	lower	../fonts/amplitud.ttf
3507.54	n/a	WORD	1753770	wordpools/wasnorm_wordpool_less_exclusions.txt	LTP188	ltpFR	9	12	1	SANDWICH	1232	n/a	0	n/a	0	0	0	1	0.412841796875	0.57763671875	lower	../fonts/amplitud.ttf
3511.37	n/a	WORD	1755685	wordpools/wasnorm_wordpool_less_exclusions.txt	LTP188	ltpFR	9	12	1	FLEA	577	n/a	1	n/a	0	0	0	1	0.412841796875	0.57763671875	lower	../fonts/amplitud.ttf
3515.434	n/a	WORD	1757717	wordpools/wasnorm_wordpool_less_exclusions.txt	LTP188	ltpFR	9	12	1	CATCHER	258	n/a	1	n/a	0	0	0	1	0.412841796875	0.57763671875	lower	../fonts/amplitud.ttf
3519.418	n/a	WORD	1759709	wordpools/wasnorm_wordpool_less_exclusions.txt	LTP188	ltpFR	9	12	1	CARPET	247	n/a	0	n/a	0	0	0	1	0.412841796875	0.57763671875	lower	../fonts/amplitud.ttf
3523.564	n/a	WORD	1761782	wordpools/wasnorm_wordpool_less_exclusions.txt	LTP188	ltpFR	9	12	1	CAFETERIA	217	n/a	0	n/a	0	0	0	1	0.412841796875	0.57763671875	lower	../fonts/amplitud.ttf
3527.462	n/a	WORD	1763731	wordpools/wasnorm_wordpool_less_exclusions.txt	LTP188	ltpFR	9	12	1	BOOK	149	n/a	0	n/a	0	0	0	1	0.412841796875	0.57763671875	lower	../fonts/amplitud.ttf
3531.344	n/a	WORD	1765672	wordpools/wasnorm_wordpool_less_exclusions.txt	LTP188	ltpFR	9	12	1	SCULPTURE	1258	n/a	0	n/a	0	0	0	1	0.412841796875	0.57763671875	lower	../fonts/amplitud.ttf
3535.294	n/a	WORD	1767647	wordpools/wasnorm_wordpool_less_exclusions.txt	LTP188	ltpFR	9	12	1	POTTERY	1116	n/a	0	n/a	0	0	0	1	0.412841796875	0.57763671875	lower	../fonts/amplitud.ttf
3538.306	n/a	START	1769153	n/a	LTP188	ltpFR	9	n/a	n/a	n/a	n/a	n/a	n/a	n/a	n/a	n/a	n/a	n/a	n/a	n/a	n/a	n/a
3539.396	n/a	PROB	1769698	n/a	LTP188	ltpFR	9	n/a	n/a	n/a	n/a	n/a	n/a	16	2	7	7	n/a	n/a	n/a	n/a	n/a
3542.588	n/a	PROB	1771294	n/a	LTP188	ltpFR	9	n/a	n/a	n/a	n/a	n/a	n/a	21	9	3	9	n/a	n/a	n/a	n/a	n/a
3546.306	n/a	STOP	1773153	n/a	LTP188	ltpFR	9	n/a	n/a	n/a	n/a	n/a	n/a	n/a	n/a	n/a	n/a	n/a	n/a	n/a	n/a	n/a
3548.192	n/a	REC_START	1774096	n/a	LTP188	ltpFR	9	12	n/a	n/a	n/a	n/a	n/a	n/a	0	0	0	n/a	n/a	n/a	n/a	n/a
