onset	duration	trial_type	sample	stim_file	subject	experiment	session	trial	task	item_name	item_num	recog_conf	resp	color_b	color_g	color_r	case	font
228.592	n/a	SESS_START	114296	n/a	LTP085	ltpFR	16	n/a	n/a	n/a	n/a	4	n/a	n/a	n/a	n/a	n/a	n/a
282.006	n/a	WORD	141003	wordpools/wasnorm_wordpool.txt	LTP085	ltpFR	16	1	0	MARINE	869	n/a	0	0	0.5869140625	0.422607421875	lower	../fonts/amplitud.ttf
285.882	n/a	WORD	142941	wordpools/wasnorm_wordpool.txt	LTP085	ltpFR	16	1	0	SEASHORE	1263	n/a	1	0	0.5869140625	0.422607421875	lower	../fonts/amplitud.ttf
289.882	n/a	WORD	144941	wordpools/wasnorm_wordpool.txt	LTP085	ltpFR	16	1	0	MONSTER	912	n/a	1	0	0.5869140625	0.422607421875	lower	../fonts/amplitud.ttf
293.898	n/a	WORD	146949	wordpools/wasnorm_wordpool.txt	LTP085	ltpFR	16	1	0	GODDESS	646	n/a	1	0	0.5869140625	0.422607421875	lower	../fonts/amplitud.ttf
297.89	n/a	WORD	148945	wordpools/wasnorm_wordpool.txt	LTP085	ltpFR	16	1	0	HOUND	724	n/a	0	0	0.5869140625	0.422607421875	lower	../fonts/amplitud.ttf
301.806	n/a	WORD	150903	wordpools/wasnorm_wordpool.txt	LTP085	ltpFR	16	1	1	STAKE	1368	n/a	0	1	0.412841796875	0.57763671875	upper	../fonts/zerothre.ttf
305.906	n/a	WORD	152953	wordpools/wasnorm_wordpool.txt	LTP085	ltpFR	16	1	1	BAG	69	n/a	0	1	0.412841796875	0.57763671875	upper	../fonts/zerothre.ttf
310.032	n/a	WORD	155016	wordpools/wasnorm_wordpool.txt	LTP085	ltpFR	16	1	1	SACK	1220	n/a	0	1	0.412841796875	0.57763671875	upper	../fonts/zerothre.ttf
313.94	n/a	WORD	156970	wordpools/wasnorm_wordpool.txt	LTP085	ltpFR	16	1	1	SOFTBALL	1343	n/a	0	1	0.412841796875	0.57763671875	upper	../fonts/zerothre.ttf
317.78	n/a	WORD	158890	wordpools/wasnorm_wordpool.txt	LTP085	ltpFR	16	1	0	DICE	461	n/a	0	0	0.5869140625	0.422607421875	lower	../fonts/amplitud.ttf
321.714	n/a	WORD	160857	wordpools/wasnorm_wordpool.txt	LTP085	ltpFR	16	1	0	LIEUTENANT	818	n/a	1	0	0.5869140625	0.422607421875	lower	../fonts/amplitud.ttf
325.698	n/a	WORD	162849	wordpools/wasnorm_wordpool.txt	LTP085	ltpFR	16	1	0	CLIFF	322	n/a	1	0	0.5869140625	0.422607421875	lower	../fonts/amplitud.ttf
329.806	n/a	WORD	164903	wordpools/wasnorm_wordpool.txt	LTP085	ltpFR	16	1	1	BUTLER	204	n/a	1	1	0.412841796875	0.57763671875	upper	../fonts/zerothre.ttf
333.806	n/a	WORD	166903	wordpools/wasnorm_wordpool.txt	LTP085	ltpFR	16	1	1	PUPPY	1144	n/a	1	1	0.412841796875	0.57763671875	upper	../fonts/zerothre.ttf
337.738	n/a	WORD	168869	wordpools/wasnorm_wordpool.txt	LTP085	ltpFR	16	1	1	CREATURE	403	n/a	1	1	0.412841796875	0.57763671875	upper	../fonts/zerothre.ttf
341.562	n/a	WORD	170781	wordpools/wasnorm_wordpool.txt	LTP085	ltpFR	16	1	1	STEW	1380	n/a	0	1	0.412841796875	0.57763671875	upper	../fonts/zerothre.ttf
347.53	n/a	REC_START	173765	n/a	LTP085	ltpFR	16	1	n/a	n/a	n/a	n/a	n/a	n/a	n/a	n/a	n/a	n/a
348.976	n/a	REC_WORD_VV	174488	wordpools/wasnorm_wordpool.txt	LTP085	ltpFR	16	1	n/a	<>	-1	n/a	n/a	n/a	n/a	n/a	n/a	n/a
349.5	n/a	REC_WORD	174750	wordpools/wasnorm_wordpool.txt	LTP085	ltpFR	16	1	0	MARINE	869	n/a	0	n/a	n/a	n/a	n/a	n/a
350.438	n/a	REC_WORD	175219	wordpools/wasnorm_wordpool.txt	LTP085	ltpFR	16	1	0	SEASHORE	1263	n/a	1	n/a	n/a	n/a	n/a	n/a
352.484	n/a	REC_WORD	176242	wordpools/wasnorm_wordpool.txt	LTP085	ltpFR	16	1	0	LIEUTENANT	818	n/a	1	n/a	n/a	n/a	n/a	n/a
354.016	n/a	REC_WORD	177008	wordpools/wasnorm_wordpool.txt	LTP085	ltpFR	16	1	1	BAG	69	n/a	0	n/a	n/a	n/a	n/a	n/a
355.282	n/a	REC_WORD	177641	wordpools/wasnorm_wordpool.txt	LTP085	ltpFR	16	1	1	SACK	1220	n/a	0	n/a	n/a	n/a	n/a	n/a
357.038	n/a	REC_WORD	178519	wordpools/wasnorm_wordpool.txt	LTP085	ltpFR	16	1	1	PUPPY	1144	n/a	1	n/a	n/a	n/a	n/a	n/a
358.476	n/a	REC_WORD	179238	wordpools/wasnorm_wordpool.txt	LTP085	ltpFR	16	1	0	GODDESS	646	n/a	1	n/a	n/a	n/a	n/a	n/a
360.162	n/a	REC_WORD	180081	wordpools/wasnorm_wordpool.txt	LTP085	ltpFR	16	1	0	HOUND	724	n/a	0	n/a	n/a	n/a	n/a	n/a
363.954	n/a	REC_WORD	181977	wordpools/wasnorm_wordpool.txt	LTP085	ltpFR	16	1	n/a	DOG	480	n/a	n/a	n/a	n/a	n/a	n/a	n/a
371.622	n/a	REC_WORD	185811	wordpools/wasnorm_wordpool.txt	LTP085	ltpFR	16	1	n/a	FISH	571	n/a	n/a	n/a	n/a	n/a	n/a	n/a
379.618	n/a	REC_WORD	189809	wordpools/wasnorm_wordpool.txt	LTP085	ltpFR	16	1	0	LIEUTENANT	818	n/a	1	n/a	n/a	n/a	n/a	n/a
383.376	n/a	REC_WORD	191688	wordpools/wasnorm_wordpool.txt	LTP085	ltpFR	16	1	1	STAKE	1368	n/a	0	n/a	n/a	n/a	n/a	n/a
384.314	n/a	REC_WORD_VV	192157	wordpools/wasnorm_wordpool.txt	LTP085	ltpFR	16	1	n/a	<>	-1	n/a	n/a	n/a	n/a	n/a	n/a	n/a
385.74	n/a	REC_WORD	192870	wordpools/wasnorm_wordpool.txt	LTP085	ltpFR	16	1	n/a	VAMPIRE	1547	n/a	n/a	n/a	n/a	n/a	n/a	n/a
391.752	n/a	REC_WORD	195876	wordpools/wasnorm_wordpool.txt	LTP085	ltpFR	16	1	1	CREATURE	403	n/a	1	n/a	n/a	n/a	n/a	n/a
393.044	n/a	REC_WORD	196522	wordpools/wasnorm_wordpool.txt	LTP085	ltpFR	16	1	0	MONSTER	912	n/a	1	n/a	n/a	n/a	n/a	n/a
399.106	n/a	REC_WORD	199553	wordpools/wasnorm_wordpool.txt	LTP085	ltpFR	16	1	n/a	GENIUS	-1	n/a	n/a	n/a	n/a	n/a	n/a	n/a
406.294	n/a	REC_WORD	203147	wordpools/wasnorm_wordpool.txt	LTP085	ltpFR	16	1	n/a	SPRINKLE	1359	n/a	n/a	n/a	n/a	n/a	n/a	n/a
431.054	n/a	WORD	215527	wordpools/wasnorm_wordpool.txt	LTP085	ltpFR	16	2	1	BUNNY	198	n/a	1	1	0.412841796875	0.57763671875	upper	../fonts/zerothre.ttf
434.962	n/a	WORD	217481	wordpools/wasnorm_wordpool.txt	LTP085	ltpFR	16	2	1	MICROSCOPE	891	n/a	0	1	0.412841796875	0.57763671875	upper	../fonts/zerothre.ttf
439.17	n/a	WORD	219585	wordpools/wasnorm_wordpool.txt	LTP085	ltpFR	16	2	1	SPICE	1350	n/a	0	1	0.412841796875	0.57763671875	upper	../fonts/zerothre.ttf
443.296	n/a	WORD	221648	wordpools/wasnorm_wordpool.txt	LTP085	ltpFR	16	2	1	SQUID	1361	n/a	1	1	0.412841796875	0.57763671875	upper	../fonts/zerothre.ttf
447.22	n/a	WORD	223610	wordpools/wasnorm_wordpool.txt	LTP085	ltpFR	16	2	0	BARRACUDA	90	n/a	1	0	0.5869140625	0.422607421875	lower	../fonts/amplitud.ttf
451.328	n/a	WORD	225664	wordpools/wasnorm_wordpool.txt	LTP085	ltpFR	16	2	0	HERB	704	n/a	0	0	0.5869140625	0.422607421875	lower	../fonts/amplitud.ttf
455.46	n/a	WORD	227730	wordpools/wasnorm_wordpool.txt	LTP085	ltpFR	16	2	0	WINNER	1615	n/a	0	0	0.5869140625	0.422607421875	lower	../fonts/amplitud.ttf
459.584	n/a	WORD	229792	wordpools/wasnorm_wordpool.txt	LTP085	ltpFR	16	2	1	CACTUS	215	n/a	1	1	0.412841796875	0.57763671875	upper	../fonts/zerothre.ttf
463.444	n/a	WORD	231722	wordpools/wasnorm_wordpool.txt	LTP085	ltpFR	16	2	1	PALM	1007	n/a	0	1	0.412841796875	0.57763671875	upper	../fonts/zerothre.ttf
467.526	n/a	WORD	233763	wordpools/wasnorm_wordpool.txt	LTP085	ltpFR	16	2	1	JACKET	747	n/a	0	1	0.412841796875	0.57763671875	upper	../fonts/zerothre.ttf
471.344	n/a	WORD	235672	wordpools/wasnorm_wordpool.txt	LTP085	ltpFR	16	2	1	BOOTH	151	n/a	0	1	0.412841796875	0.57763671875	upper	../fonts/zerothre.ttf
475.252	n/a	WORD	237626	wordpools/wasnorm_wordpool.txt	LTP085	ltpFR	16	2	0	MESSAGE	888	n/a	0	0	0.5869140625	0.422607421875	lower	../fonts/amplitud.ttf
479.394	n/a	WORD	239697	wordpools/wasnorm_wordpool.txt	LTP085	ltpFR	16	2	0	FLEET	578	n/a	0	0	0.5869140625	0.422607421875	lower	../fonts/amplitud.ttf
483.584	n/a	WORD	241792	wordpools/wasnorm_wordpool.txt	LTP085	ltpFR	16	2	0	PUCK	1138	n/a	0	0	0.5869140625	0.422607421875	lower	../fonts/amplitud.ttf
487.492	n/a	WORD	243746	wordpools/wasnorm_wordpool.txt	LTP085	ltpFR	16	2	0	SCARF	1246	n/a	0	0	0.5869140625	0.422607421875	lower	../fonts/amplitud.ttf
491.626	n/a	WORD	245813	wordpools/wasnorm_wordpool.txt	LTP085	ltpFR	16	2	0	CHEST	295	n/a	0	0	0.5869140625	0.422607421875	lower	../fonts/amplitud.ttf
497.442	n/a	REC_START	248721	n/a	LTP085	ltpFR	16	2	n/a	n/a	n/a	n/a	n/a	n/a	n/a	n/a	n/a	n/a
498.64	n/a	REC_WORD	249320	wordpools/wasnorm_wordpool.txt	LTP085	ltpFR	16	2	0	CHEST	295	n/a	0	n/a	n/a	n/a	n/a	n/a
499.458	n/a	REC_WORD_VV	249729	wordpools/wasnorm_wordpool.txt	LTP085	ltpFR	16	2	n/a	<>	-1	n/a	n/a	n/a	n/a	n/a	n/a	n/a
499.916	n/a	REC_WORD	249958	wordpools/wasnorm_wordpool.txt	LTP085	ltpFR	16	2	0	SCARF	1246	n/a	0	n/a	n/a	n/a	n/a	n/a
502.986	n/a	REC_WORD	251493	wordpools/wasnorm_wordpool.txt	LTP085	ltpFR	16	2	0	HERB	704	n/a	0	n/a	n/a	n/a	n/a	n/a
505.68	n/a	REC_WORD	252840	wordpools/wasnorm_wordpool.txt	LTP085	ltpFR	16	2	0	MONSTER	912	n/a	1	n/a	n/a	n/a	n/a	n/a
507.33	n/a	REC_WORD	253665	wordpools/wasnorm_wordpool.txt	LTP085	ltpFR	16	2	0	DICE	461	n/a	0	n/a	n/a	n/a	n/a	n/a
509.9	n/a	REC_WORD	254950	wordpools/wasnorm_wordpool.txt	LTP085	ltpFR	16	2	0	CLIFF	322	n/a	1	n/a	n/a	n/a	n/a	n/a
515.492	n/a	REC_WORD	257746	wordpools/wasnorm_wordpool.txt	LTP085	ltpFR	16	2	n/a	RABBIT	1152	n/a	n/a	n/a	n/a	n/a	n/a	n/a
516.574	n/a	REC_WORD	258287	wordpools/wasnorm_wordpool.txt	LTP085	ltpFR	16	2	1	MICROSCOPE	891	n/a	0	n/a	n/a	n/a	n/a	n/a
518.506	n/a	REC_WORD	259253	wordpools/wasnorm_wordpool.txt	LTP085	ltpFR	16	2	1	SQUID	1361	n/a	1	n/a	n/a	n/a	n/a	n/a
519.992	n/a	REC_WORD	259996	wordpools/wasnorm_wordpool.txt	LTP085	ltpFR	16	2	0	BARRACUDA	90	n/a	1	n/a	n/a	n/a	n/a	n/a
524.498	n/a	REC_WORD	262249	wordpools/wasnorm_wordpool.txt	LTP085	ltpFR	16	2	n/a	OCEAN	970	n/a	n/a	n/a	n/a	n/a	n/a	n/a
526.728	n/a	REC_WORD	263364	wordpools/wasnorm_wordpool.txt	LTP085	ltpFR	16	2	n/a	LAGOON	795	n/a	n/a	n/a	n/a	n/a	n/a	n/a
538.57	n/a	REC_WORD	269285	wordpools/wasnorm_wordpool.txt	LTP085	ltpFR	16	2	1	JACKET	747	n/a	0	n/a	n/a	n/a	n/a	n/a
544.678	n/a	REC_WORD	272339	wordpools/wasnorm_wordpool.txt	LTP085	ltpFR	16	2	1	PALM	1007	n/a	0	n/a	n/a	n/a	n/a	n/a
547.676	n/a	REC_WORD	273838	wordpools/wasnorm_wordpool.txt	LTP085	ltpFR	16	2	1	CACTUS	215	n/a	1	n/a	n/a	n/a	n/a	n/a
549.652	n/a	REC_WORD	274826	wordpools/wasnorm_wordpool.txt	LTP085	ltpFR	16	2	n/a	DESERT	-1	n/a	n/a	n/a	n/a	n/a	n/a	n/a
551.462	n/a	REC_WORD	275731	wordpools/wasnorm_wordpool.txt	LTP085	ltpFR	16	2	n/a	HAND	683	n/a	n/a	n/a	n/a	n/a	n/a	n/a
595.408	n/a	WORD	297704	wordpools/wasnorm_wordpool.txt	LTP085	ltpFR	16	3	0	TREASURE	1500	n/a	0	0	0.5869140625	0.422607421875	lower	../fonts/amplitud.ttf
599.606	n/a	WORD	299803	wordpools/wasnorm_wordpool.txt	LTP085	ltpFR	16	3	0	FIG	563	n/a	0	0	0.5869140625	0.422607421875	lower	../fonts/amplitud.ttf
603.64	n/a	WORD	301820	wordpools/wasnorm_wordpool.txt	LTP085	ltpFR	16	3	0	HANDBAG	684	n/a	0	0	0.5869140625	0.422607421875	lower	../fonts/amplitud.ttf
607.572	n/a	WORD	303786	wordpools/wasnorm_wordpool.txt	LTP085	ltpFR	16	3	0	BATH	98	n/a	1	0	0.5869140625	0.422607421875	lower	../fonts/amplitud.ttf
611.698	n/a	WORD	305849	wordpools/wasnorm_wordpool.txt	LTP085	ltpFR	16	3	0	CHIP	303	n/a	0	0	0.5869140625	0.422607421875	lower	../fonts/amplitud.ttf
615.764	n/a	WORD	307882	wordpools/wasnorm_wordpool.txt	LTP085	ltpFR	16	3	0	BEEF	113	n/a	1	0	0.5869140625	0.422607421875	lower	../fonts/amplitud.ttf
619.74	n/a	WORD	309870	wordpools/wasnorm_wordpool.txt	LTP085	ltpFR	16	3	0	BULLY	196	n/a	1	0	0.5869140625	0.422607421875	lower	../fonts/amplitud.ttf
623.666	n/a	WORD	311833	wordpools/wasnorm_wordpool.txt	LTP085	ltpFR	16	3	0	FAUCET	555	n/a	0	0	0.5869140625	0.422607421875	lower	../fonts/amplitud.ttf
627.59	n/a	WORD	313795	wordpools/wasnorm_wordpool.txt	LTP085	ltpFR	16	3	0	DRESS	495	n/a	0	0	0.5869140625	0.422607421875	lower	../fonts/amplitud.ttf
631.798	n/a	WORD	315899	wordpools/wasnorm_wordpool.txt	LTP085	ltpFR	16	3	0	ROBE	1198	n/a	0	0	0.5869140625	0.422607421875	lower	../fonts/amplitud.ttf
635.672	n/a	WORD	317836	wordpools/wasnorm_wordpool.txt	LTP085	ltpFR	16	3	0	BRIDGE	174	n/a	1	0	0.5869140625	0.422607421875	lower	../fonts/amplitud.ttf
639.83	n/a	WORD	319915	wordpools/wasnorm_wordpool.txt	LTP085	ltpFR	16	3	0	SUBMARINE	1398	n/a	1	0	0.5869140625	0.422607421875	lower	../fonts/amplitud.ttf
644.006	n/a	WORD	322003	wordpools/wasnorm_wordpool.txt	LTP085	ltpFR	16	3	0	BILL	126	n/a	0	0	0.5869140625	0.422607421875	lower	../fonts/amplitud.ttf
648.098	n/a	WORD	324049	wordpools/wasnorm_wordpool.txt	LTP085	ltpFR	16	3	0	DESK	452	n/a	1	0	0.5869140625	0.422607421875	lower	../fonts/amplitud.ttf
652.272	n/a	WORD	326136	wordpools/wasnorm_wordpool.txt	LTP085	ltpFR	16	3	0	TIMBER	1469	n/a	0	0	0.5869140625	0.422607421875	lower	../fonts/amplitud.ttf
656.114	n/a	WORD	328057	wordpools/wasnorm_wordpool.txt	LTP085	ltpFR	16	3	0	COIN	343	n/a	0	0	0.5869140625	0.422607421875	lower	../fonts/amplitud.ttf
662.014	n/a	REC_START	331007	n/a	LTP085	ltpFR	16	3	n/a	n/a	n/a	n/a	n/a	n/a	n/a	n/a	n/a	n/a
662.854	n/a	REC_WORD	331427	wordpools/wasnorm_wordpool.txt	LTP085	ltpFR	16	3	0	TIMBER	1469	n/a	0	n/a	n/a	n/a	n/a	n/a
664.156	n/a	REC_WORD	332078	wordpools/wasnorm_wordpool.txt	LTP085	ltpFR	16	3	n/a	LUMBER	848	n/a	n/a	n/a	n/a	n/a	n/a	n/a
665.548	n/a	REC_WORD	332774	wordpools/wasnorm_wordpool.txt	LTP085	ltpFR	16	3	0	COIN	343	n/a	0	n/a	n/a	n/a	n/a	n/a
666.87	n/a	REC_WORD	333435	wordpools/wasnorm_wordpool.txt	LTP085	ltpFR	16	3	0	BRIDGE	174	n/a	1	n/a	n/a	n/a	n/a	n/a
668.376	n/a	REC_WORD	334188	wordpools/wasnorm_wordpool.txt	LTP085	ltpFR	16	3	n/a	LONDON	843	n/a	n/a	n/a	n/a	n/a	n/a	n/a
671.704	n/a	REC_WORD	335852	wordpools/wasnorm_wordpool.txt	LTP085	ltpFR	16	3	0	DRESS	495	n/a	0	n/a	n/a	n/a	n/a	n/a
672.716	n/a	REC_WORD	336358	wordpools/wasnorm_wordpool.txt	LTP085	ltpFR	16	3	0	ROBE	1198	n/a	0	n/a	n/a	n/a	n/a	n/a
677.844	n/a	REC_WORD	338922	wordpools/wasnorm_wordpool.txt	LTP085	ltpFR	16	3	0	BULLY	196	n/a	1	n/a	n/a	n/a	n/a	n/a
681.116	n/a	REC_WORD	340558	wordpools/wasnorm_wordpool.txt	LTP085	ltpFR	16	3	n/a	CHILDREN	-1	n/a	n/a	n/a	n/a	n/a	n/a	n/a
753.468	n/a	WORD	376734	wordpools/wasnorm_wordpool.txt	LTP085	ltpFR	16	4	1	SEED	1266	n/a	0	1	0.412841796875	0.57763671875	upper	../fonts/zerothre.ttf
757.378	n/a	WORD	378689	wordpools/wasnorm_wordpool.txt	LTP085	ltpFR	16	4	1	HEDGE	699	n/a	0	1	0.412841796875	0.57763671875	upper	../fonts/zerothre.ttf
761.444	n/a	WORD	380722	wordpools/wasnorm_wordpool.txt	LTP085	ltpFR	16	4	1	DRIVER	499	n/a	1	1	0.412841796875	0.57763671875	upper	../fonts/zerothre.ttf
765.56	n/a	WORD	382780	wordpools/wasnorm_wordpool.txt	LTP085	ltpFR	16	4	1	OFFICE	972	n/a	0	1	0.412841796875	0.57763671875	upper	../fonts/zerothre.ttf
769.42	n/a	WORD	384710	wordpools/wasnorm_wordpool.txt	LTP085	ltpFR	16	4	1	NET	946	n/a	0	1	0.412841796875	0.57763671875	upper	../fonts/zerothre.ttf
773.262	n/a	WORD	386631	wordpools/wasnorm_wordpool.txt	LTP085	ltpFR	16	4	1	MANSION	864	n/a	0	1	0.412841796875	0.57763671875	upper	../fonts/zerothre.ttf
777.27	n/a	WORD	388635	wordpools/wasnorm_wordpool.txt	LTP085	ltpFR	16	4	1	BANKER	84	n/a	1	1	0.412841796875	0.57763671875	upper	../fonts/zerothre.ttf
781.152	n/a	WORD	390576	wordpools/wasnorm_wordpool.txt	LTP085	ltpFR	16	4	1	TIGER	1467	n/a	1	1	0.412841796875	0.57763671875	upper	../fonts/zerothre.ttf
785.27	n/a	WORD	392635	wordpools/wasnorm_wordpool.txt	LTP085	ltpFR	16	4	1	BLOCKADE	137	n/a	0	1	0.412841796875	0.57763671875	upper	../fonts/zerothre.ttf
789.152	n/a	WORD	394576	wordpools/wasnorm_wordpool.txt	LTP085	ltpFR	16	4	1	LOUNGE	845	n/a	0	1	0.412841796875	0.57763671875	upper	../fonts/zerothre.ttf
793.26	n/a	WORD	396630	wordpools/wasnorm_wordpool.txt	LTP085	ltpFR	16	4	1	TECHNICIAN	1443	n/a	1	1	0.412841796875	0.57763671875	upper	../fonts/zerothre.ttf
797.102	n/a	WORD	398551	wordpools/wasnorm_wordpool.txt	LTP085	ltpFR	16	4	1	BUGGY	188	n/a	0	1	0.412841796875	0.57763671875	upper	../fonts/zerothre.ttf
801.152	n/a	WORD	400576	wordpools/wasnorm_wordpool.txt	LTP085	ltpFR	16	4	1	FIN	566	n/a	0	1	0.412841796875	0.57763671875	upper	../fonts/zerothre.ttf
805.31	n/a	WORD	402655	wordpools/wasnorm_wordpool.txt	LTP085	ltpFR	16	4	1	SWORD	1423	n/a	0	1	0.412841796875	0.57763671875	upper	../fonts/zerothre.ttf
809.202	n/a	WORD	404601	wordpools/wasnorm_wordpool.txt	LTP085	ltpFR	16	4	1	SHINGLE	1285	n/a	0	1	0.412841796875	0.57763671875	upper	../fonts/zerothre.ttf
813.16	n/a	WORD	406580	wordpools/wasnorm_wordpool.txt	LTP085	ltpFR	16	4	1	CEILING	265	n/a	0	1	0.412841796875	0.57763671875	upper	../fonts/zerothre.ttf
819.036	n/a	REC_START	409518	n/a	LTP085	ltpFR	16	4	n/a	n/a	n/a	n/a	n/a	n/a	n/a	n/a	n/a	n/a
819.894	n/a	REC_WORD	409947	wordpools/wasnorm_wordpool.txt	LTP085	ltpFR	16	4	1	SHINGLE	1285	n/a	0	n/a	n/a	n/a	n/a	n/a
820.856	n/a	REC_WORD	410428	wordpools/wasnorm_wordpool.txt	LTP085	ltpFR	16	4	1	CEILING	265	n/a	0	n/a	n/a	n/a	n/a	n/a
822.144	n/a	REC_WORD	411072	wordpools/wasnorm_wordpool.txt	LTP085	ltpFR	16	4	1	DRIVER	499	n/a	1	n/a	n/a	n/a	n/a	n/a
823.576	n/a	REC_WORD	411788	wordpools/wasnorm_wordpool.txt	LTP085	ltpFR	16	4	1	TECHNICIAN	1443	n/a	1	n/a	n/a	n/a	n/a	n/a
826.21	n/a	REC_WORD	413105	wordpools/wasnorm_wordpool.txt	LTP085	ltpFR	16	4	1	BLOCKADE	137	n/a	0	n/a	n/a	n/a	n/a	n/a
827.93	n/a	REC_WORD	413965	wordpools/wasnorm_wordpool.txt	LTP085	ltpFR	16	4	0	FLEET	578	n/a	0	n/a	n/a	n/a	n/a	n/a
830.81	n/a	REC_WORD	415405	wordpools/wasnorm_wordpool.txt	LTP085	ltpFR	16	4	1	TIGER	1467	n/a	1	n/a	n/a	n/a	n/a	n/a
832.36	n/a	REC_WORD	416180	wordpools/wasnorm_wordpool.txt	LTP085	ltpFR	16	4	1	LOUNGE	845	n/a	0	n/a	n/a	n/a	n/a	n/a
835.528	n/a	REC_WORD	417764	wordpools/wasnorm_wordpool.txt	LTP085	ltpFR	16	4	1	SHINGLE	1285	n/a	0	n/a	n/a	n/a	n/a	n/a
841.136	n/a	REC_WORD	420568	wordpools/wasnorm_wordpool.txt	LTP085	ltpFR	16	4	1	MANSION	864	n/a	0	n/a	n/a	n/a	n/a	n/a
842.788	n/a	REC_WORD	421394	wordpools/wasnorm_wordpool.txt	LTP085	ltpFR	16	4	1	NET	946	n/a	0	n/a	n/a	n/a	n/a	n/a
844.474	n/a	REC_WORD	422237	wordpools/wasnorm_wordpool.txt	LTP085	ltpFR	16	4	n/a	FISH	571	n/a	n/a	n/a	n/a	n/a	n/a	n/a
852.122	n/a	REC_WORD	426061	wordpools/wasnorm_wordpool.txt	LTP085	ltpFR	16	4	n/a	LAWN	805	n/a	n/a	n/a	n/a	n/a	n/a	n/a
857.824	n/a	REC_WORD	428912	wordpools/wasnorm_wordpool.txt	LTP085	ltpFR	16	4	1	BANKER	84	n/a	1	n/a	n/a	n/a	n/a	n/a
859.724	n/a	REC_WORD	429862	wordpools/wasnorm_wordpool.txt	LTP085	ltpFR	16	4	n/a	MONEY	908	n/a	n/a	n/a	n/a	n/a	n/a	n/a
870.606	n/a	REC_WORD	435303	wordpools/wasnorm_wordpool.txt	LTP085	ltpFR	16	4	1	BAG	69	n/a	0	n/a	n/a	n/a	n/a	n/a
906.742	n/a	WORD	453371	wordpools/wasnorm_wordpool.txt	LTP085	ltpFR	16	5	-1	SCREEN	1253	n/a	-1	1	1.0	1.0	upper	../fonts/Verdana.ttf
910.59	n/a	WORD	455295	wordpools/wasnorm_wordpool.txt	LTP085	ltpFR	16	5	-1	BEAVER	109	n/a	-1	1	1.0	1.0	upper	../fonts/Verdana.ttf
914.59	n/a	WORD	457295	wordpools/wasnorm_wordpool.txt	LTP085	ltpFR	16	5	-1	HOSE	720	n/a	-1	1	1.0	1.0	upper	../fonts/Verdana.ttf
918.598	n/a	WORD	459299	wordpools/wasnorm_wordpool.txt	LTP085	ltpFR	16	5	-1	NAIL	936	n/a	-1	1	1.0	1.0	upper	../fonts/Verdana.ttf
922.474	n/a	WORD	461237	wordpools/wasnorm_wordpool.txt	LTP085	ltpFR	16	5	-1	HALL	677	n/a	-1	1	1.0	1.0	upper	../fonts/Verdana.ttf
926.324	n/a	WORD	463162	wordpools/wasnorm_wordpool.txt	LTP085	ltpFR	16	5	-1	CHART	282	n/a	-1	1	1.0	1.0	upper	../fonts/Verdana.ttf
930.258	n/a	WORD	465129	wordpools/wasnorm_wordpool.txt	LTP085	ltpFR	16	5	-1	BASEBALL	93	n/a	-1	1	1.0	1.0	upper	../fonts/Verdana.ttf
934.166	n/a	WORD	467083	wordpools/wasnorm_wordpool.txt	LTP085	ltpFR	16	5	-1	FOOTBALL	591	n/a	-1	1	1.0	1.0	upper	../fonts/Verdana.ttf
938.232	n/a	WORD	469116	wordpools/wasnorm_wordpool.txt	LTP085	ltpFR	16	5	-1	DRAWING	494	n/a	-1	1	1.0	1.0	upper	../fonts/Verdana.ttf
942.066	n/a	WORD	471033	wordpools/wasnorm_wordpool.txt	LTP085	ltpFR	16	5	-1	HAMMER	680	n/a	-1	1	1.0	1.0	upper	../fonts/Verdana.ttf
946.224	n/a	WORD	473112	wordpools/wasnorm_wordpool.txt	LTP085	ltpFR	16	5	-1	SIGNATURE	1306	n/a	-1	1	1.0	1.0	upper	../fonts/Verdana.ttf
950.266	n/a	WORD	475133	wordpools/wasnorm_wordpool.txt	LTP085	ltpFR	16	5	-1	SHARK	1275	n/a	-1	1	1.0	1.0	upper	../fonts/Verdana.ttf
954.324	n/a	WORD	477162	wordpools/wasnorm_wordpool.txt	LTP085	ltpFR	16	5	-1	BOOT	150	n/a	-1	1	1.0	1.0	upper	../fonts/Verdana.ttf
958.53	n/a	WORD	479265	wordpools/wasnorm_wordpool.txt	LTP085	ltpFR	16	5	-1	TOMATO	1476	n/a	-1	1	1.0	1.0	upper	../fonts/Verdana.ttf
962.74	n/a	WORD	481370	wordpools/wasnorm_wordpool.txt	LTP085	ltpFR	16	5	-1	TUBA	1515	n/a	-1	1	1.0	1.0	upper	../fonts/Verdana.ttf
966.924	n/a	WORD	483462	wordpools/wasnorm_wordpool.txt	LTP085	ltpFR	16	5	-1	PIANO	1057	n/a	-1	1	1.0	1.0	upper	../fonts/Verdana.ttf
972.674	n/a	REC_START	486337	n/a	LTP085	ltpFR	16	5	n/a	n/a	n/a	n/a	n/a	n/a	n/a	n/a	n/a	n/a
973.836	n/a	REC_WORD	486918	wordpools/wasnorm_wordpool.txt	LTP085	ltpFR	16	5	-1	SCREEN	1253	n/a	-1	n/a	n/a	n/a	n/a	n/a
975.328	n/a	REC_WORD	487664	wordpools/wasnorm_wordpool.txt	LTP085	ltpFR	16	5	-1	BEAVER	109	n/a	-1	n/a	n/a	n/a	n/a	n/a
977.906	n/a	REC_WORD	488953	wordpools/wasnorm_wordpool.txt	LTP085	ltpFR	16	5	n/a	HOOVES	-1	n/a	n/a	n/a	n/a	n/a	n/a	n/a
980.69	n/a	REC_WORD	490345	wordpools/wasnorm_wordpool.txt	LTP085	ltpFR	16	5	n/a	DANCER	437	n/a	n/a	n/a	n/a	n/a	n/a	n/a
983.354	n/a	REC_WORD	491677	wordpools/wasnorm_wordpool.txt	LTP085	ltpFR	16	5	-1	NAIL	936	n/a	-1	n/a	n/a	n/a	n/a	n/a
985.3	n/a	REC_WORD	492650	wordpools/wasnorm_wordpool.txt	LTP085	ltpFR	16	5	-1	HALL	677	n/a	-1	n/a	n/a	n/a	n/a	n/a
988.768	n/a	REC_WORD	494384	wordpools/wasnorm_wordpool.txt	LTP085	ltpFR	16	5	n/a	AUDIENCE	59	n/a	n/a	n/a	n/a	n/a	n/a	n/a
992.728	n/a	REC_WORD	496364	wordpools/wasnorm_wordpool.txt	LTP085	ltpFR	16	5	-1	CHART	282	n/a	-1	n/a	n/a	n/a	n/a	n/a
994.974	n/a	REC_WORD	497487	wordpools/wasnorm_wordpool.txt	LTP085	ltpFR	16	5	-1	DRAWING	494	n/a	-1	n/a	n/a	n/a	n/a	n/a
996.68	n/a	REC_WORD	498340	wordpools/wasnorm_wordpool.txt	LTP085	ltpFR	16	5	-1	SIGNATURE	1306	n/a	-1	n/a	n/a	n/a	n/a	n/a
999.972	n/a	REC_WORD	499986	wordpools/wasnorm_wordpool.txt	LTP085	ltpFR	16	5	-1	BASEBALL	93	n/a	-1	n/a	n/a	n/a	n/a	n/a
1001.298	n/a	REC_WORD	500649	wordpools/wasnorm_wordpool.txt	LTP085	ltpFR	16	5	-1	FOOTBALL	591	n/a	-1	n/a	n/a	n/a	n/a	n/a
1004.048	n/a	REC_WORD	502024	wordpools/wasnorm_wordpool.txt	LTP085	ltpFR	16	5	0	PUCK	1138	n/a	0	n/a	n/a	n/a	n/a	n/a
1006.308	n/a	REC_WORD	503154	wordpools/wasnorm_wordpool.txt	LTP085	ltpFR	16	5	1	FIN	566	n/a	0	n/a	n/a	n/a	n/a	n/a
1010.524	n/a	REC_WORD	505262	wordpools/wasnorm_wordpool.txt	LTP085	ltpFR	16	5	-1	SHARK	1275	n/a	-1	n/a	n/a	n/a	n/a	n/a
1012.65	n/a	REC_WORD	506325	wordpools/wasnorm_wordpool.txt	LTP085	ltpFR	16	5	-1	HAMMER	680	n/a	-1	n/a	n/a	n/a	n/a	n/a
1015.588	n/a	REC_WORD	507794	wordpools/wasnorm_wordpool.txt	LTP085	ltpFR	16	5	-1	TOMATO	1476	n/a	-1	n/a	n/a	n/a	n/a	n/a
1017.598	n/a	REC_WORD	508799	wordpools/wasnorm_wordpool.txt	LTP085	ltpFR	16	5	-1	BOOT	150	n/a	-1	n/a	n/a	n/a	n/a	n/a
1019.748	n/a	REC_WORD	509874	wordpools/wasnorm_wordpool.txt	LTP085	ltpFR	16	5	-1	TUBA	1515	n/a	-1	n/a	n/a	n/a	n/a	n/a
1038.97	n/a	REC_WORD	519485	wordpools/wasnorm_wordpool.txt	LTP085	ltpFR	16	5	1	SQUID	1361	n/a	1	n/a	n/a	n/a	n/a	n/a
1045.426	n/a	REC_WORD	522713	wordpools/wasnorm_wordpool.txt	LTP085	ltpFR	16	5	-1	SIGNATURE	1306	n/a	-1	n/a	n/a	n/a	n/a	n/a
1056.452	n/a	WORD	528226	wordpools/wasnorm_wordpool.txt	LTP085	ltpFR	16	6	-1	KETCHUP	771	n/a	-1	1	1.0	1.0	upper	../fonts/Verdana.ttf
1060.552	n/a	WORD	530276	wordpools/wasnorm_wordpool.txt	LTP085	ltpFR	16	6	-1	LIPSTICK	829	n/a	-1	1	1.0	1.0	upper	../fonts/Verdana.ttf
1064.738	n/a	WORD	532369	wordpools/wasnorm_wordpool.txt	LTP085	ltpFR	16	6	-1	DIARY	460	n/a	-1	1	1.0	1.0	upper	../fonts/Verdana.ttf
1068.788	n/a	WORD	534394	wordpools/wasnorm_wordpool.txt	LTP085	ltpFR	16	6	-1	OWL	992	n/a	-1	1	1.0	1.0	upper	../fonts/Verdana.ttf
1072.82	n/a	WORD	536410	wordpools/wasnorm_wordpool.txt	LTP085	ltpFR	16	6	-1	VIDEO	1564	n/a	-1	1	1.0	1.0	upper	../fonts/Verdana.ttf
1076.67	n/a	WORD	538335	wordpools/wasnorm_wordpool.txt	LTP085	ltpFR	16	6	-1	PRODUCER	1129	n/a	-1	1	1.0	1.0	upper	../fonts/Verdana.ttf
1080.56	n/a	WORD	540280	wordpools/wasnorm_wordpool.txt	LTP085	ltpFR	16	6	-1	PACKAGE	997	n/a	-1	1	1.0	1.0	upper	../fonts/Verdana.ttf
1084.494	n/a	WORD	542247	wordpools/wasnorm_wordpool.txt	LTP085	ltpFR	16	6	-1	RELISH	1183	n/a	-1	1	1.0	1.0	upper	../fonts/Verdana.ttf
1088.67	n/a	WORD	544335	wordpools/wasnorm_wordpool.txt	LTP085	ltpFR	16	6	-1	PRAIRIE	1118	n/a	-1	1	1.0	1.0	upper	../fonts/Verdana.ttf
1092.502	n/a	WORD	546251	wordpools/wasnorm_wordpool.txt	LTP085	ltpFR	16	6	-1	KEY	773	n/a	-1	1	1.0	1.0	upper	../fonts/Verdana.ttf
1096.344	n/a	WORD	548172	wordpools/wasnorm_wordpool.txt	LTP085	ltpFR	16	6	-1	WHIP	1604	n/a	-1	1	1.0	1.0	upper	../fonts/Verdana.ttf
1100.46	n/a	WORD	550230	wordpools/wasnorm_wordpool.txt	LTP085	ltpFR	16	6	-1	NUN	962	n/a	-1	1	1.0	1.0	upper	../fonts/Verdana.ttf
1104.594	n/a	WORD	552297	wordpools/wasnorm_wordpool.txt	LTP085	ltpFR	16	6	-1	BRUSH	182	n/a	-1	1	1.0	1.0	upper	../fonts/Verdana.ttf
1108.46	n/a	WORD	554230	wordpools/wasnorm_wordpool.txt	LTP085	ltpFR	16	6	-1	TWEEZERS	1526	n/a	-1	1	1.0	1.0	upper	../fonts/Verdana.ttf
1112.61	n/a	WORD	556305	wordpools/wasnorm_wordpool.txt	LTP085	ltpFR	16	6	-1	PREACHER	1119	n/a	-1	1	1.0	1.0	upper	../fonts/Verdana.ttf
1116.518	n/a	WORD	558259	wordpools/wasnorm_wordpool.txt	LTP085	ltpFR	16	6	-1	LETTER	813	n/a	-1	1	1.0	1.0	upper	../fonts/Verdana.ttf
1122.486	n/a	REC_START	561243	n/a	LTP085	ltpFR	16	6	n/a	n/a	n/a	n/a	n/a	n/a	n/a	n/a	n/a	n/a
1126.242	n/a	REC_WORD	563121	wordpools/wasnorm_wordpool.txt	LTP085	ltpFR	16	6	-1	KETCHUP	771	n/a	-1	n/a	n/a	n/a	n/a	n/a
1126.99	n/a	REC_WORD_VV	563495	wordpools/wasnorm_wordpool.txt	LTP085	ltpFR	16	6	n/a	<>	-1	n/a	n/a	n/a	n/a	n/a	n/a	n/a
1127.588	n/a	REC_WORD	563794	wordpools/wasnorm_wordpool.txt	LTP085	ltpFR	16	6	-1	LIPSTICK	829	n/a	-1	n/a	n/a	n/a	n/a	n/a
1129.264	n/a	REC_WORD	564632	wordpools/wasnorm_wordpool.txt	LTP085	ltpFR	16	6	-1	DIARY	460	n/a	-1	n/a	n/a	n/a	n/a	n/a
1130.686	n/a	REC_WORD	565343	wordpools/wasnorm_wordpool.txt	LTP085	ltpFR	16	6	-1	OWL	992	n/a	-1	n/a	n/a	n/a	n/a	n/a
1133.216	n/a	REC_WORD	566608	wordpools/wasnorm_wordpool.txt	LTP085	ltpFR	16	6	-1	PRODUCER	1129	n/a	-1	n/a	n/a	n/a	n/a	n/a
1134.802	n/a	REC_WORD	567401	wordpools/wasnorm_wordpool.txt	LTP085	ltpFR	16	6	-1	RELISH	1183	n/a	-1	n/a	n/a	n/a	n/a	n/a
1136.752	n/a	REC_WORD	568376	wordpools/wasnorm_wordpool.txt	LTP085	ltpFR	16	6	n/a	TELEVISION	1447	n/a	n/a	n/a	n/a	n/a	n/a	n/a
1140.006	n/a	REC_WORD	570003	wordpools/wasnorm_wordpool.txt	LTP085	ltpFR	16	6	-1	PRAIRIE	1118	n/a	-1	n/a	n/a	n/a	n/a	n/a
1141.678	n/a	REC_WORD	570839	wordpools/wasnorm_wordpool.txt	LTP085	ltpFR	16	6	-1	KEY	773	n/a	-1	n/a	n/a	n/a	n/a	n/a
1144.586	n/a	REC_WORD	572293	wordpools/wasnorm_wordpool.txt	LTP085	ltpFR	16	6	-1	WHIP	1604	n/a	-1	n/a	n/a	n/a	n/a	n/a
1145.924	n/a	REC_WORD	572962	wordpools/wasnorm_wordpool.txt	LTP085	ltpFR	16	6	-1	HAMMER	680	n/a	-1	n/a	n/a	n/a	n/a	n/a
1150.412	n/a	REC_WORD	575206	wordpools/wasnorm_wordpool.txt	LTP085	ltpFR	16	6	-1	NUN	962	n/a	-1	n/a	n/a	n/a	n/a	n/a
1155.756	n/a	REC_WORD	577878	wordpools/wasnorm_wordpool.txt	LTP085	ltpFR	16	6	-1	TWEEZERS	1526	n/a	-1	n/a	n/a	n/a	n/a	n/a
1157.686	n/a	REC_WORD	578843	wordpools/wasnorm_wordpool.txt	LTP085	ltpFR	16	6	-1	BRUSH	182	n/a	-1	n/a	n/a	n/a	n/a	n/a
1179.548	n/a	REC_WORD	589774	wordpools/wasnorm_wordpool.txt	LTP085	ltpFR	16	6	1	CREATURE	403	n/a	1	n/a	n/a	n/a	n/a	n/a
1183.424	n/a	REC_WORD	591712	wordpools/wasnorm_wordpool.txt	LTP085	ltpFR	16	6	-1	LETTER	813	n/a	-1	n/a	n/a	n/a	n/a	n/a
1197.154	n/a	REC_WORD_VV	598577	wordpools/wasnorm_wordpool.txt	LTP085	ltpFR	16	6	n/a	<>	-1	n/a	n/a	n/a	n/a	n/a	n/a	n/a
1211.358	n/a	WORD	605679	wordpools/wasnorm_wordpool.txt	LTP085	ltpFR	16	7	0	CASH	252	n/a	0	0	0.5869140625	0.422607421875	lower	../fonts/amplitud.ttf
1215.3	n/a	WORD	607650	wordpools/wasnorm_wordpool.txt	LTP085	ltpFR	16	7	0	WALLET	1583	n/a	0	0	0.5869140625	0.422607421875	lower	../fonts/amplitud.ttf
1219.242	n/a	WORD	609621	wordpools/wasnorm_wordpool.txt	LTP085	ltpFR	16	7	0	HAT	690	n/a	1	0	0.5869140625	0.422607421875	lower	../fonts/amplitud.ttf
1223.092	n/a	WORD	611546	wordpools/wasnorm_wordpool.txt	LTP085	ltpFR	16	7	0	FIDDLE	561	n/a	0	0	0.5869140625	0.422607421875	lower	../fonts/amplitud.ttf
1226.924	n/a	WORD	613462	wordpools/wasnorm_wordpool.txt	LTP085	ltpFR	16	7	0	SKUNK	1321	n/a	0	0	0.5869140625	0.422607421875	lower	../fonts/amplitud.ttf
1231.124	n/a	WORD	615562	wordpools/wasnorm_wordpool.txt	LTP085	ltpFR	16	7	0	SLEEVE	1324	n/a	0	0	0.5869140625	0.422607421875	lower	../fonts/amplitud.ttf
1235.024	n/a	WORD	617512	wordpools/wasnorm_wordpool.txt	LTP085	ltpFR	16	7	0	PIKE	1067	n/a	1	0	0.5869140625	0.422607421875	lower	../fonts/amplitud.ttf
1238.882	n/a	WORD	619441	wordpools/wasnorm_wordpool.txt	LTP085	ltpFR	16	7	0	ONION	977	n/a	0	0	0.5869140625	0.422607421875	lower	../fonts/amplitud.ttf
1242.742	n/a	WORD	621371	wordpools/wasnorm_wordpool.txt	LTP085	ltpFR	16	7	0	CHOCOLATE	306	n/a	0	0	0.5869140625	0.422607421875	lower	../fonts/amplitud.ttf
1246.816	n/a	WORD	623408	wordpools/wasnorm_wordpool.txt	LTP085	ltpFR	16	7	0	LADDER	793	n/a	1	0	0.5869140625	0.422607421875	lower	../fonts/amplitud.ttf
1250.774	n/a	WORD	625387	wordpools/wasnorm_wordpool.txt	LTP085	ltpFR	16	7	0	CONCERT	360	n/a	1	0	0.5869140625	0.422607421875	lower	../fonts/amplitud.ttf
1254.674	n/a	WORD	627337	wordpools/wasnorm_wordpool.txt	LTP085	ltpFR	16	7	0	MARS	873	n/a	1	0	0.5869140625	0.422607421875	lower	../fonts/amplitud.ttf
1258.648	n/a	WORD	629324	wordpools/wasnorm_wordpool.txt	LTP085	ltpFR	16	7	0	TEMPLE	1448	n/a	1	0	0.5869140625	0.422607421875	lower	../fonts/amplitud.ttf
1262.69	n/a	WORD	631345	wordpools/wasnorm_wordpool.txt	LTP085	ltpFR	16	7	0	FRIAR	605	n/a	1	0	0.5869140625	0.422607421875	lower	../fonts/amplitud.ttf
1266.708	n/a	WORD	633354	wordpools/wasnorm_wordpool.txt	LTP085	ltpFR	16	7	0	STAPLE	1371	n/a	0	0	0.5869140625	0.422607421875	lower	../fonts/amplitud.ttf
1270.848	n/a	WORD	635424	wordpools/wasnorm_wordpool.txt	LTP085	ltpFR	16	7	0	CANNON	232	n/a	1	0	0.5869140625	0.422607421875	lower	../fonts/amplitud.ttf
1276.582	n/a	REC_START	638291	n/a	LTP085	ltpFR	16	7	n/a	n/a	n/a	n/a	n/a	n/a	n/a	n/a	n/a	n/a
1277.888	n/a	REC_WORD	638944	wordpools/wasnorm_wordpool.txt	LTP085	ltpFR	16	7	0	SLEEVE	1324	n/a	0	n/a	n/a	n/a	n/a	n/a
1279.39	n/a	REC_WORD	639695	wordpools/wasnorm_wordpool.txt	LTP085	ltpFR	16	7	0	ONION	977	n/a	0	n/a	n/a	n/a	n/a	n/a
1280.798	n/a	REC_WORD	640399	wordpools/wasnorm_wordpool.txt	LTP085	ltpFR	16	7	0	HAT	690	n/a	1	n/a	n/a	n/a	n/a	n/a
1282.194	n/a	REC_WORD	641097	wordpools/wasnorm_wordpool.txt	LTP085	ltpFR	16	7	0	SKUNK	1321	n/a	0	n/a	n/a	n/a	n/a	n/a
1284.294	n/a	REC_WORD	642147	wordpools/wasnorm_wordpool.txt	LTP085	ltpFR	16	7	0	CANNON	232	n/a	1	n/a	n/a	n/a	n/a	n/a
1286.968	n/a	REC_WORD	643484	wordpools/wasnorm_wordpool.txt	LTP085	ltpFR	16	7	0	WALLET	1583	n/a	0	n/a	n/a	n/a	n/a	n/a
1288.406	n/a	REC_WORD	644203	wordpools/wasnorm_wordpool.txt	LTP085	ltpFR	16	7	0	CASH	252	n/a	0	n/a	n/a	n/a	n/a	n/a
1290.236	n/a	REC_WORD	645118	wordpools/wasnorm_wordpool.txt	LTP085	ltpFR	16	7	n/a	MONEY	908	n/a	n/a	n/a	n/a	n/a	n/a	n/a
1294.742	n/a	REC_WORD	647371	wordpools/wasnorm_wordpool.txt	LTP085	ltpFR	16	7	n/a	TROUSERS	1510	n/a	n/a	n/a	n/a	n/a	n/a	n/a
1314.936	n/a	REC_WORD	657468	wordpools/wasnorm_wordpool.txt	LTP085	ltpFR	16	7	n/a	BALL	73	n/a	n/a	n/a	n/a	n/a	n/a	n/a
1321.402	n/a	REC_WORD	660701	wordpools/wasnorm_wordpool.txt	LTP085	ltpFR	16	7	0	PIKE	1067	n/a	1	n/a	n/a	n/a	n/a	n/a
1324.814	n/a	REC_WORD	662407	wordpools/wasnorm_wordpool.txt	LTP085	ltpFR	16	7	n/a	AVENUE	-1	n/a	n/a	n/a	n/a	n/a	n/a	n/a
1350.238	n/a	REC_WORD	675119	wordpools/wasnorm_wordpool.txt	LTP085	ltpFR	16	7	n/a	FORT	595	n/a	n/a	n/a	n/a	n/a	n/a	n/a
1365.922	n/a	WORD	682961	wordpools/wasnorm_wordpool.txt	LTP085	ltpFR	16	8	0	GALLON	618	n/a	1	0	0.5869140625	0.422607421875	lower	../fonts/amplitud.ttf
1369.912	n/a	WORD	684956	wordpools/wasnorm_wordpool.txt	LTP085	ltpFR	16	8	0	JOURNAL	760	n/a	0	0	0.5869140625	0.422607421875	lower	../fonts/amplitud.ttf
1373.946	n/a	WORD	686973	wordpools/wasnorm_wordpool.txt	LTP085	ltpFR	16	8	0	ENVELOPE	537	n/a	0	0	0.5869140625	0.422607421875	lower	../fonts/amplitud.ttf
1377.928	n/a	WORD	688964	wordpools/wasnorm_wordpool.txt	LTP085	ltpFR	16	8	0	ROOT	1210	n/a	0	0	0.5869140625	0.422607421875	lower	../fonts/amplitud.ttf
1382.03	n/a	WORD	691015	wordpools/wasnorm_wordpool.txt	LTP085	ltpFR	16	8	0	GOAT	644	n/a	1	0	0.5869140625	0.422607421875	lower	../fonts/amplitud.ttf
1386.012	n/a	WORD	693006	wordpools/wasnorm_wordpool.txt	LTP085	ltpFR	16	8	0	BEVERAGE	123	n/a	0	0	0.5869140625	0.422607421875	lower	../fonts/amplitud.ttf
1390.07	n/a	WORD	695035	wordpools/wasnorm_wordpool.txt	LTP085	ltpFR	16	8	0	STRAW	1390	n/a	0	0	0.5869140625	0.422607421875	lower	../fonts/amplitud.ttf
1393.912	n/a	WORD	696956	wordpools/wasnorm_wordpool.txt	LTP085	ltpFR	16	8	0	SANDWICH	1232	n/a	0	0	0.5869140625	0.422607421875	lower	../fonts/amplitud.ttf
1397.786	n/a	WORD	698893	wordpools/wasnorm_wordpool.txt	LTP085	ltpFR	16	8	0	CANYON	235	n/a	1	0	0.5869140625	0.422607421875	lower	../fonts/amplitud.ttf
1401.628	n/a	WORD	700814	wordpools/wasnorm_wordpool.txt	LTP085	ltpFR	16	8	0	SPOON	1357	n/a	0	0	0.5869140625	0.422607421875	lower	../fonts/amplitud.ttf
1405.562	n/a	WORD	702781	wordpools/wasnorm_wordpool.txt	LTP085	ltpFR	16	8	0	PELICAN	1039	n/a	1	0	0.5869140625	0.422607421875	lower	../fonts/amplitud.ttf
1409.646	n/a	WORD	704823	wordpools/wasnorm_wordpool.txt	LTP085	ltpFR	16	8	0	SCALLOP	1242	n/a	0	0	0.5869140625	0.422607421875	lower	../fonts/amplitud.ttf
1413.61	n/a	WORD	706805	wordpools/wasnorm_wordpool.txt	LTP085	ltpFR	16	8	0	SPINACH	1352	n/a	0	0	0.5869140625	0.422607421875	lower	../fonts/amplitud.ttf
1417.56	n/a	WORD	708780	wordpools/wasnorm_wordpool.txt	LTP085	ltpFR	16	8	0	MOUNTAIN	924	n/a	1	0	0.5869140625	0.422607421875	lower	../fonts/amplitud.ttf
1421.404	n/a	WORD	710702	wordpools/wasnorm_wordpool.txt	LTP085	ltpFR	16	8	0	ESSAY	540	n/a	0	0	0.5869140625	0.422607421875	lower	../fonts/amplitud.ttf
1425.536	n/a	WORD	712768	wordpools/wasnorm_wordpool.txt	LTP085	ltpFR	16	8	0	NEWSSTAND	949	n/a	1	0	0.5869140625	0.422607421875	lower	../fonts/amplitud.ttf
1431.404	n/a	REC_START	715702	n/a	LTP085	ltpFR	16	8	n/a	n/a	n/a	n/a	n/a	n/a	n/a	n/a	n/a	n/a
1432.934	n/a	REC_WORD	716467	wordpools/wasnorm_wordpool.txt	LTP085	ltpFR	16	8	0	NEWSSTAND	949	n/a	1	n/a	n/a	n/a	n/a	n/a
1434.302	n/a	REC_WORD	717151	wordpools/wasnorm_wordpool.txt	LTP085	ltpFR	16	8	0	CANYON	235	n/a	1	n/a	n/a	n/a	n/a	n/a
1436.332	n/a	REC_WORD	718166	wordpools/wasnorm_wordpool.txt	LTP085	ltpFR	16	8	0	GOAT	644	n/a	1	n/a	n/a	n/a	n/a	n/a
1437.688	n/a	REC_WORD	718844	wordpools/wasnorm_wordpool.txt	LTP085	ltpFR	16	8	0	BEVERAGE	123	n/a	0	n/a	n/a	n/a	n/a	n/a
1439.01	n/a	REC_WORD	719505	wordpools/wasnorm_wordpool.txt	LTP085	ltpFR	16	8	0	STRAW	1390	n/a	0	n/a	n/a	n/a	n/a	n/a
1440.628	n/a	REC_WORD	720314	wordpools/wasnorm_wordpool.txt	LTP085	ltpFR	16	8	0	SANDWICH	1232	n/a	0	n/a	n/a	n/a	n/a	n/a
1444.934	n/a	REC_WORD	722467	wordpools/wasnorm_wordpool.txt	LTP085	ltpFR	16	8	0	ENVELOPE	537	n/a	0	n/a	n/a	n/a	n/a	n/a
1446.504	n/a	REC_WORD	723252	wordpools/wasnorm_wordpool.txt	LTP085	ltpFR	16	8	0	CASH	252	n/a	0	n/a	n/a	n/a	n/a	n/a
1449.054	n/a	REC_WORD	724527	wordpools/wasnorm_wordpool.txt	LTP085	ltpFR	16	8	n/a	MONEY	908	n/a	n/a	n/a	n/a	n/a	n/a	n/a
1456.058	n/a	REC_WORD	728029	wordpools/wasnorm_wordpool.txt	LTP085	ltpFR	16	8	0	MARS	873	n/a	1	n/a	n/a	n/a	n/a	n/a
1457.844	n/a	REC_WORD	728922	wordpools/wasnorm_wordpool.txt	LTP085	ltpFR	16	8	n/a	SATURN	1236	n/a	n/a	n/a	n/a	n/a	n/a	n/a
1463.168	n/a	REC_WORD	731584	wordpools/wasnorm_wordpool.txt	LTP085	ltpFR	16	8	0	ROOT	1210	n/a	0	n/a	n/a	n/a	n/a	n/a
1464.954	n/a	REC_WORD	732477	wordpools/wasnorm_wordpool.txt	LTP085	ltpFR	16	8	n/a	POTATO	1115	n/a	n/a	n/a	n/a	n/a	n/a	n/a
1467.822	n/a	REC_WORD	733911	wordpools/wasnorm_wordpool.txt	LTP085	ltpFR	16	8	0	ONION	977	n/a	0	n/a	n/a	n/a	n/a	n/a
1471.234	n/a	REC_WORD	735617	wordpools/wasnorm_wordpool.txt	LTP085	ltpFR	16	8	n/a	TURNIP	1521	n/a	n/a	n/a	n/a	n/a	n/a	n/a
1534.976	n/a	WORD	767488	wordpools/wasnorm_wordpool.txt	LTP085	ltpFR	16	9	1	SHED	1277	n/a	0	1	0.412841796875	0.57763671875	upper	../fonts/zerothre.ttf
1539.124	n/a	WORD	769562	wordpools/wasnorm_wordpool.txt	LTP085	ltpFR	16	9	1	RAG	1160	n/a	0	1	0.412841796875	0.57763671875	upper	../fonts/zerothre.ttf
1543.05	n/a	WORD	771525	wordpools/wasnorm_wordpool.txt	LTP085	ltpFR	16	9	1	NEUTRON	947	n/a	0	1	0.412841796875	0.57763671875	upper	../fonts/zerothre.ttf
1547.026	n/a	WORD	773513	wordpools/wasnorm_wordpool.txt	LTP085	ltpFR	16	9	1	OCTOPUS	971	n/a	1	1	0.412841796875	0.57763671875	upper	../fonts/zerothre.ttf
1550.892	n/a	WORD	775446	wordpools/wasnorm_wordpool.txt	LTP085	ltpFR	16	9	1	PIGEON	1065	n/a	1	1	0.412841796875	0.57763671875	upper	../fonts/zerothre.ttf
1555.092	n/a	WORD	777546	wordpools/wasnorm_wordpool.txt	LTP085	ltpFR	16	9	1	PREDATOR	1120	n/a	1	1	0.412841796875	0.57763671875	upper	../fonts/zerothre.ttf
1559.124	n/a	WORD	779562	wordpools/wasnorm_wordpool.txt	LTP085	ltpFR	16	9	1	CORK	380	n/a	0	1	0.412841796875	0.57763671875	upper	../fonts/zerothre.ttf
1563.292	n/a	WORD	781646	wordpools/wasnorm_wordpool.txt	LTP085	ltpFR	16	9	1	BRANDY	169	n/a	0	1	0.412841796875	0.57763671875	upper	../fonts/zerothre.ttf
1567.332	n/a	WORD	783666	wordpools/wasnorm_wordpool.txt	LTP085	ltpFR	16	9	1	PANTS	1010	n/a	0	1	0.412841796875	0.57763671875	upper	../fonts/zerothre.ttf
1571.424	n/a	WORD	785712	wordpools/wasnorm_wordpool.txt	LTP085	ltpFR	16	9	1	UNIVERSE	1540	n/a	0	1	0.412841796875	0.57763671875	upper	../fonts/zerothre.ttf
1575.432	n/a	WORD	787716	wordpools/wasnorm_wordpool.txt	LTP085	ltpFR	16	9	1	PROTRACTOR	1133	n/a	0	1	0.412841796875	0.57763671875	upper	../fonts/zerothre.ttf
1579.606	n/a	WORD	789803	wordpools/wasnorm_wordpool.txt	LTP085	ltpFR	16	9	1	PENGUIN	1044	n/a	1	1	0.412841796875	0.57763671875	upper	../fonts/zerothre.ttf
1583.624	n/a	WORD	791812	wordpools/wasnorm_wordpool.txt	LTP085	ltpFR	16	9	1	TROUT	1511	n/a	1	1	0.412841796875	0.57763671875	upper	../fonts/zerothre.ttf
1587.808	n/a	WORD	793904	wordpools/wasnorm_wordpool.txt	LTP085	ltpFR	16	9	1	CHIMPANZEE	302	n/a	1	1	0.412841796875	0.57763671875	upper	../fonts/zerothre.ttf
1591.716	n/a	WORD	795858	wordpools/wasnorm_wordpool.txt	LTP085	ltpFR	16	9	1	HELICOPTER	701	n/a	0	1	0.412841796875	0.57763671875	upper	../fonts/zerothre.ttf
1595.54	n/a	WORD	797770	wordpools/wasnorm_wordpool.txt	LTP085	ltpFR	16	9	1	PLANE	1081	n/a	0	1	0.412841796875	0.57763671875	upper	../fonts/zerothre.ttf
1601.25	n/a	REC_START	800625	n/a	LTP085	ltpFR	16	9	n/a	n/a	n/a	n/a	n/a	n/a	n/a	n/a	n/a	n/a
1604.108	n/a	REC_WORD	802054	wordpools/wasnorm_wordpool.txt	LTP085	ltpFR	16	9	1	OCTOPUS	971	n/a	1	n/a	n/a	n/a	n/a	n/a
1605.336	n/a	REC_WORD	802668	wordpools/wasnorm_wordpool.txt	LTP085	ltpFR	16	9	1	PIGEON	1065	n/a	1	n/a	n/a	n/a	n/a	n/a
1606.562	n/a	REC_WORD	803281	wordpools/wasnorm_wordpool.txt	LTP085	ltpFR	16	9	1	SQUID	1361	n/a	1	n/a	n/a	n/a	n/a	n/a
1608.738	n/a	REC_WORD	804369	wordpools/wasnorm_wordpool.txt	LTP085	ltpFR	16	9	1	CHIMPANZEE	302	n/a	1	n/a	n/a	n/a	n/a	n/a
1610.318	n/a	REC_WORD	805159	wordpools/wasnorm_wordpool.txt	LTP085	ltpFR	16	9	1	PENGUIN	1044	n/a	1	n/a	n/a	n/a	n/a	n/a
1611.96	n/a	REC_WORD	805980	wordpools/wasnorm_wordpool.txt	LTP085	ltpFR	16	9	1	HELICOPTER	701	n/a	0	n/a	n/a	n/a	n/a	n/a
1613.386	n/a	REC_WORD	806693	wordpools/wasnorm_wordpool.txt	LTP085	ltpFR	16	9	1	PLANE	1081	n/a	0	n/a	n/a	n/a	n/a	n/a
1618.9	n/a	REC_WORD	809450	wordpools/wasnorm_wordpool.txt	LTP085	ltpFR	16	9	1	UNIVERSE	1540	n/a	0	n/a	n/a	n/a	n/a	n/a
1620.846	n/a	REC_WORD	810423	wordpools/wasnorm_wordpool.txt	LTP085	ltpFR	16	9	1	PROTRACTOR	1133	n/a	0	n/a	n/a	n/a	n/a	n/a
1622.662	n/a	REC_WORD	811331	wordpools/wasnorm_wordpool.txt	LTP085	ltpFR	16	9	1	PREDATOR	1120	n/a	1	n/a	n/a	n/a	n/a	n/a
1624.672	n/a	REC_WORD	812336	wordpools/wasnorm_wordpool.txt	LTP085	ltpFR	16	9	1	TIGER	1467	n/a	1	n/a	n/a	n/a	n/a	n/a
1631.636	n/a	REC_WORD	815818	wordpools/wasnorm_wordpool.txt	LTP085	ltpFR	16	9	1	SHED	1277	n/a	0	n/a	n/a	n/a	n/a	n/a
1633.192	n/a	REC_WORD	816596	wordpools/wasnorm_wordpool.txt	LTP085	ltpFR	16	9	1	RAG	1160	n/a	0	n/a	n/a	n/a	n/a	n/a
1635.822	n/a	REC_WORD	817911	wordpools/wasnorm_wordpool.txt	LTP085	ltpFR	16	9	n/a	SHACK	1273	n/a	n/a	n/a	n/a	n/a	n/a	n/a
1658.302	n/a	REC_WORD	829151	wordpools/wasnorm_wordpool.txt	LTP085	ltpFR	16	9	1	PANTS	1010	n/a	0	n/a	n/a	n/a	n/a	n/a
1660.402	n/a	REC_WORD	830201	wordpools/wasnorm_wordpool.txt	LTP085	ltpFR	16	9	0	WALLET	1583	n/a	0	n/a	n/a	n/a	n/a	n/a
1714.428	n/a	WORD	857214	wordpools/wasnorm_wordpool.txt	LTP085	ltpFR	16	10	1	DRUM	502	n/a	0	1	0.412841796875	0.57763671875	upper	../fonts/zerothre.ttf
1718.396	n/a	WORD	859198	wordpools/wasnorm_wordpool.txt	LTP085	ltpFR	16	10	1	VIOLIN	1571	n/a	0	1	0.412841796875	0.57763671875	upper	../fonts/zerothre.ttf
1722.254	n/a	WORD	861127	wordpools/wasnorm_wordpool.txt	LTP085	ltpFR	16	10	0	SYRINGE	1424	n/a	0	0	0.5869140625	0.422607421875	lower	../fonts/amplitud.ttf
1726.296	n/a	WORD	863148	wordpools/wasnorm_wordpool.txt	LTP085	ltpFR	16	10	0	PUDDING	1139	n/a	0	0	0.5869140625	0.422607421875	lower	../fonts/amplitud.ttf
1730.304	n/a	WORD	865152	wordpools/wasnorm_wordpool.txt	LTP085	ltpFR	16	10	0	GROUND	666	n/a	0	0	0.5869140625	0.422607421875	lower	../fonts/amplitud.ttf
1734.454	n/a	WORD	867227	wordpools/wasnorm_wordpool.txt	LTP085	ltpFR	16	10	0	CHIPMUNK	304	n/a	0	0	0.5869140625	0.422607421875	lower	../fonts/amplitud.ttf
1738.386	n/a	WORD	869193	wordpools/wasnorm_wordpool.txt	LTP085	ltpFR	16	10	0	STRAWBERRY	1391	n/a	0	0	0.5869140625	0.422607421875	lower	../fonts/amplitud.ttf
1742.56	n/a	WORD	871280	wordpools/wasnorm_wordpool.txt	LTP085	ltpFR	16	10	0	GLASSES	640	n/a	0	0	0.5869140625	0.422607421875	lower	../fonts/amplitud.ttf
1746.578	n/a	WORD	873289	wordpools/wasnorm_wordpool.txt	LTP085	ltpFR	16	10	1	TAG	1429	n/a	0	1	0.412841796875	0.57763671875	upper	../fonts/zerothre.ttf
1750.636	n/a	WORD	875318	wordpools/wasnorm_wordpool.txt	LTP085	ltpFR	16	10	1	PERSONNEL	1053	n/a	1	1	0.412841796875	0.57763671875	upper	../fonts/zerothre.ttf
1754.686	n/a	WORD	877343	wordpools/wasnorm_wordpool.txt	LTP085	ltpFR	16	10	1	SHORTCAKE	1292	n/a	0	1	0.412841796875	0.57763671875	upper	../fonts/zerothre.ttf
1758.67	n/a	WORD	879335	wordpools/wasnorm_wordpool.txt	LTP085	ltpFR	16	10	1	MAILBOX	857	n/a	0	1	0.412841796875	0.57763671875	upper	../fonts/zerothre.ttf
1762.828	n/a	WORD	881414	wordpools/wasnorm_wordpool.txt	LTP085	ltpFR	16	10	1	TYPIST	1532	n/a	0	1	0.412841796875	0.57763671875	upper	../fonts/zerothre.ttf
1766.736	n/a	WORD	883368	wordpools/wasnorm_wordpool.txt	LTP085	ltpFR	16	10	1	GIRAFFE	636	n/a	1	1	0.412841796875	0.57763671875	upper	../fonts/zerothre.ttf
1770.902	n/a	WORD	885451	wordpools/wasnorm_wordpool.txt	LTP085	ltpFR	16	10	0	OX	994	n/a	0	0	0.5869140625	0.422607421875	lower	../fonts/amplitud.ttf
1774.918	n/a	WORD	887459	wordpools/wasnorm_wordpool.txt	LTP085	ltpFR	16	10	0	BEAST	108	n/a	1	0	0.5869140625	0.422607421875	lower	../fonts/amplitud.ttf
1780.62	n/a	REC_START	890310	n/a	LTP085	ltpFR	16	10	n/a	n/a	n/a	n/a	n/a	n/a	n/a	n/a	n/a	n/a
1782.84	n/a	REC_WORD	891420	wordpools/wasnorm_wordpool.txt	LTP085	ltpFR	16	10	0	OX	994	n/a	0	n/a	n/a	n/a	n/a	n/a
1783.916	n/a	REC_WORD	891958	wordpools/wasnorm_wordpool.txt	LTP085	ltpFR	16	10	0	BEAST	108	n/a	1	n/a	n/a	n/a	n/a	n/a
1785.264	n/a	REC_WORD	892632	wordpools/wasnorm_wordpool.txt	LTP085	ltpFR	16	10	1	TAG	1429	n/a	0	n/a	n/a	n/a	n/a	n/a
1786.914	n/a	REC_WORD	893457	wordpools/wasnorm_wordpool.txt	LTP085	ltpFR	16	10	0	STRAWBERRY	1391	n/a	0	n/a	n/a	n/a	n/a	n/a
1788.512	n/a	REC_WORD	894256	wordpools/wasnorm_wordpool.txt	LTP085	ltpFR	16	10	1	SHORTCAKE	1292	n/a	0	n/a	n/a	n/a	n/a	n/a
1790.302	n/a	REC_WORD	895151	wordpools/wasnorm_wordpool.txt	LTP085	ltpFR	16	10	1	RAG	1160	n/a	0	n/a	n/a	n/a	n/a	n/a
1795.84	n/a	REC_WORD	897920	wordpools/wasnorm_wordpool.txt	LTP085	ltpFR	16	10	0	GLASSES	640	n/a	0	n/a	n/a	n/a	n/a	n/a
1801.144	n/a	REC_WORD	900572	wordpools/wasnorm_wordpool.txt	LTP085	ltpFR	16	10	1	TYPIST	1532	n/a	0	n/a	n/a	n/a	n/a	n/a
1803.514	n/a	REC_WORD	901757	wordpools/wasnorm_wordpool.txt	LTP085	ltpFR	16	10	1	PERSONNEL	1053	n/a	1	n/a	n/a	n/a	n/a	n/a
1809.868	n/a	REC_WORD	904934	wordpools/wasnorm_wordpool.txt	LTP085	ltpFR	16	10	0	GROUND	666	n/a	0	n/a	n/a	n/a	n/a	n/a
1811.72	n/a	REC_WORD	905860	wordpools/wasnorm_wordpool.txt	LTP085	ltpFR	16	10	0	CHIPMUNK	304	n/a	0	n/a	n/a	n/a	n/a	n/a
1813.656	n/a	REC_WORD	906828	wordpools/wasnorm_wordpool.txt	LTP085	ltpFR	16	10	1	CEILING	265	n/a	0	n/a	n/a	n/a	n/a	n/a
1815.79	n/a	REC_WORD	907895	wordpools/wasnorm_wordpool.txt	LTP085	ltpFR	16	10	1	SHINGLE	1285	n/a	0	n/a	n/a	n/a	n/a	n/a
1818.364	n/a	REC_WORD	909182	wordpools/wasnorm_wordpool.txt	LTP085	ltpFR	16	10	n/a	FLOOR	581	n/a	n/a	n/a	n/a	n/a	n/a	n/a
1824.042	n/a	REC_WORD	912021	wordpools/wasnorm_wordpool.txt	LTP085	ltpFR	16	10	n/a	SQUIRREL	1362	n/a	n/a	n/a	n/a	n/a	n/a	n/a
1852.026	n/a	REC_WORD	926013	wordpools/wasnorm_wordpool.txt	LTP085	ltpFR	16	10	0	PUDDING	1139	n/a	0	n/a	n/a	n/a	n/a	n/a
1874.524	n/a	WORD	937262	wordpools/wasnorm_wordpool.txt	LTP085	ltpFR	16	11	-1	SALESMAN	1225	n/a	-1	1	1.0	1.0	upper	../fonts/Verdana.ttf
1878.566	n/a	WORD	939283	wordpools/wasnorm_wordpool.txt	LTP085	ltpFR	16	11	-1	TUNNEL	1519	n/a	-1	1	1.0	1.0	upper	../fonts/Verdana.ttf
1882.624	n/a	WORD	941312	wordpools/wasnorm_wordpool.txt	LTP085	ltpFR	16	11	-1	MULE	931	n/a	-1	1	1.0	1.0	upper	../fonts/Verdana.ttf
1886.558	n/a	WORD	943279	wordpools/wasnorm_wordpool.txt	LTP085	ltpFR	16	11	-1	BUTTER	205	n/a	-1	1	1.0	1.0	upper	../fonts/Verdana.ttf
1890.656	n/a	WORD	945328	wordpools/wasnorm_wordpool.txt	LTP085	ltpFR	16	11	-1	WHEAT	1602	n/a	-1	1	1.0	1.0	upper	../fonts/Verdana.ttf
1894.8	n/a	WORD	947400	wordpools/wasnorm_wordpool.txt	LTP085	ltpFR	16	11	-1	DOOR	486	n/a	-1	1	1.0	1.0	upper	../fonts/Verdana.ttf
1898.848	n/a	WORD	949424	wordpools/wasnorm_wordpool.txt	LTP085	ltpFR	16	11	-1	SISTER	1312	n/a	-1	1	1.0	1.0	upper	../fonts/Verdana.ttf
1902.716	n/a	WORD	951358	wordpools/wasnorm_wordpool.txt	LTP085	ltpFR	16	11	-1	CHAPEL	280	n/a	-1	1	1.0	1.0	upper	../fonts/Verdana.ttf
1906.908	n/a	WORD	953454	wordpools/wasnorm_wordpool.txt	LTP085	ltpFR	16	11	-1	PORTRAIT	1111	n/a	-1	1	1.0	1.0	upper	../fonts/Verdana.ttf
1910.958	n/a	WORD	955479	wordpools/wasnorm_wordpool.txt	LTP085	ltpFR	16	11	-1	SHEPHERD	1283	n/a	-1	1	1.0	1.0	upper	../fonts/Verdana.ttf
1914.966	n/a	WORD	957483	wordpools/wasnorm_wordpool.txt	LTP085	ltpFR	16	11	-1	MAT	877	n/a	-1	1	1.0	1.0	upper	../fonts/Verdana.ttf
1918.832	n/a	WORD	959416	wordpools/wasnorm_wordpool.txt	LTP085	ltpFR	16	11	-1	MOTH	920	n/a	-1	1	1.0	1.0	upper	../fonts/Verdana.ttf
1922.908	n/a	WORD	961454	wordpools/wasnorm_wordpool.txt	LTP085	ltpFR	16	11	-1	SPIDER	1351	n/a	-1	1	1.0	1.0	upper	../fonts/Verdana.ttf
1927.048	n/a	WORD	963524	wordpools/wasnorm_wordpool.txt	LTP085	ltpFR	16	11	-1	CATCHER	258	n/a	-1	1	1.0	1.0	upper	../fonts/Verdana.ttf
1930.99	n/a	WORD	965495	wordpools/wasnorm_wordpool.txt	LTP085	ltpFR	16	11	-1	PEANUT	1032	n/a	-1	1	1.0	1.0	upper	../fonts/Verdana.ttf
1934.924	n/a	WORD	967462	wordpools/wasnorm_wordpool.txt	LTP085	ltpFR	16	11	-1	ENGINE	535	n/a	-1	1	1.0	1.0	upper	../fonts/Verdana.ttf
1940.758	n/a	REC_START	970379	n/a	LTP085	ltpFR	16	11	n/a	n/a	n/a	n/a	n/a	n/a	n/a	n/a	n/a	n/a
1942.622	n/a	REC_WORD	971311	wordpools/wasnorm_wordpool.txt	LTP085	ltpFR	16	11	-1	SALESMAN	1225	n/a	-1	n/a	n/a	n/a	n/a	n/a
1943.896	n/a	REC_WORD	971948	wordpools/wasnorm_wordpool.txt	LTP085	ltpFR	16	11	-1	TUNNEL	1519	n/a	-1	n/a	n/a	n/a	n/a	n/a
1945.602	n/a	REC_WORD	972801	wordpools/wasnorm_wordpool.txt	LTP085	ltpFR	16	11	-1	MULE	931	n/a	-1	n/a	n/a	n/a	n/a	n/a
1947.526	n/a	REC_WORD	973763	wordpools/wasnorm_wordpool.txt	LTP085	ltpFR	16	11	-1	BUTTER	205	n/a	-1	n/a	n/a	n/a	n/a	n/a
1949.138	n/a	REC_WORD	974569	wordpools/wasnorm_wordpool.txt	LTP085	ltpFR	16	11	-1	WHEAT	1602	n/a	-1	n/a	n/a	n/a	n/a	n/a
1951.058	n/a	REC_WORD	975529	wordpools/wasnorm_wordpool.txt	LTP085	ltpFR	16	11	-1	DOOR	486	n/a	-1	n/a	n/a	n/a	n/a	n/a
1953.004	n/a	REC_WORD	976502	wordpools/wasnorm_wordpool.txt	LTP085	ltpFR	16	11	-1	SISTER	1312	n/a	-1	n/a	n/a	n/a	n/a	n/a
1954.656	n/a	REC_WORD	977328	wordpools/wasnorm_wordpool.txt	LTP085	ltpFR	16	11	-1	CHAPEL	280	n/a	-1	n/a	n/a	n/a	n/a	n/a
1956.816	n/a	REC_WORD	978408	wordpools/wasnorm_wordpool.txt	LTP085	ltpFR	16	11	-1	PORTRAIT	1111	n/a	-1	n/a	n/a	n/a	n/a	n/a
1960.318	n/a	REC_WORD	980159	wordpools/wasnorm_wordpool.txt	LTP085	ltpFR	16	11	-1	SHEPHERD	1283	n/a	-1	n/a	n/a	n/a	n/a	n/a
1962.314	n/a	REC_WORD	981157	wordpools/wasnorm_wordpool.txt	LTP085	ltpFR	16	11	-1	MAT	877	n/a	-1	n/a	n/a	n/a	n/a	n/a
1964.764	n/a	REC_WORD	982382	wordpools/wasnorm_wordpool.txt	LTP085	ltpFR	16	11	-1	MOTH	920	n/a	-1	n/a	n/a	n/a	n/a	n/a
1966.306	n/a	REC_WORD	983153	wordpools/wasnorm_wordpool.txt	LTP085	ltpFR	16	11	-1	SPIDER	1351	n/a	-1	n/a	n/a	n/a	n/a	n/a
1968.914	n/a	REC_WORD	984457	wordpools/wasnorm_wordpool.txt	LTP085	ltpFR	16	11	-1	CATCHER	258	n/a	-1	n/a	n/a	n/a	n/a	n/a
1970.824	n/a	REC_WORD	985412	wordpools/wasnorm_wordpool.txt	LTP085	ltpFR	16	11	-1	PEANUT	1032	n/a	-1	n/a	n/a	n/a	n/a	n/a
1981.392	n/a	REC_WORD	990696	wordpools/wasnorm_wordpool.txt	LTP085	ltpFR	16	11	-1	ENGINE	535	n/a	-1	n/a	n/a	n/a	n/a	n/a
1984.614	n/a	REC_WORD	992307	wordpools/wasnorm_wordpool.txt	LTP085	ltpFR	16	11	n/a	AUTOMOBILE	62	n/a	n/a	n/a	n/a	n/a	n/a	n/a
1988.366	n/a	REC_WORD	994183	wordpools/wasnorm_wordpool.txt	LTP085	ltpFR	16	11	1	TECHNICIAN	1443	n/a	1	n/a	n/a	n/a	n/a	n/a
1994.242	n/a	REC_WORD	997121	wordpools/wasnorm_wordpool.txt	LTP085	ltpFR	16	11	-1	PREACHER	1119	n/a	-1	n/a	n/a	n/a	n/a	n/a
1996.776	n/a	REC_WORD	998388	wordpools/wasnorm_wordpool.txt	LTP085	ltpFR	16	11	n/a	ARTIST	43	n/a	n/a	n/a	n/a	n/a	n/a	n/a
2032.162	n/a	WORD	1016081	wordpools/wasnorm_wordpool.txt	LTP085	ltpFR	16	12	1	STEM	1376	n/a	0	1	0.412841796875	0.57763671875	upper	../fonts/zerothre.ttf
2036.104	n/a	WORD	1018052	wordpools/wasnorm_wordpool.txt	LTP085	ltpFR	16	12	1	REPORT	1184	n/a	0	1	0.412841796875	0.57763671875	upper	../fonts/zerothre.ttf
2039.912	n/a	WORD	1019956	wordpools/wasnorm_wordpool.txt	LTP085	ltpFR	16	12	1	ROPE	1211	n/a	0	1	0.412841796875	0.57763671875	upper	../fonts/zerothre.ttf
2043.98	n/a	WORD	1021990	wordpools/wasnorm_wordpool.txt	LTP085	ltpFR	16	12	0	ATTIRE	57	n/a	0	0	0.5869140625	0.422607421875	lower	../fonts/amplitud.ttf
2048.012	n/a	WORD	1024006	wordpools/wasnorm_wordpool.txt	LTP085	ltpFR	16	12	0	ORANGE	980	n/a	0	0	0.5869140625	0.422607421875	lower	../fonts/amplitud.ttf
2052.17	n/a	WORD	1026085	wordpools/wasnorm_wordpool.txt	LTP085	ltpFR	16	12	0	BRAN	167	n/a	0	0	0.5869140625	0.422607421875	lower	../fonts/amplitud.ttf
2056.112	n/a	WORD	1028056	wordpools/wasnorm_wordpool.txt	LTP085	ltpFR	16	12	0	PIER	1063	n/a	1	0	0.5869140625	0.422607421875	lower	../fonts/amplitud.ttf
2060.104	n/a	WORD	1030052	wordpools/wasnorm_wordpool.txt	LTP085	ltpFR	16	12	0	BROOK	177	n/a	0	0	0.5869140625	0.422607421875	lower	../fonts/amplitud.ttf
2064.296	n/a	WORD	1032148	wordpools/wasnorm_wordpool.txt	LTP085	ltpFR	16	12	0	TIE	1466	n/a	0	0	0.5869140625	0.422607421875	lower	../fonts/amplitud.ttf
2068.378	n/a	WORD	1034189	wordpools/wasnorm_wordpool.txt	LTP085	ltpFR	16	12	1	GULL	671	n/a	1	1	0.412841796875	0.57763671875	upper	../fonts/zerothre.ttf
2072.412	n/a	WORD	1036206	wordpools/wasnorm_wordpool.txt	LTP085	ltpFR	16	12	1	HAWK	692	n/a	1	1	0.412841796875	0.57763671875	upper	../fonts/zerothre.ttf
2076.618	n/a	WORD	1038309	wordpools/wasnorm_wordpool.txt	LTP085	ltpFR	16	12	1	VAGRANT	1544	n/a	0	1	0.412841796875	0.57763671875	upper	../fonts/zerothre.ttf
2080.746	n/a	WORD	1040373	wordpools/wasnorm_wordpool.txt	LTP085	ltpFR	16	12	0	SAPPHIRE	1234	n/a	0	0	0.5869140625	0.422607421875	lower	../fonts/amplitud.ttf
2084.794	n/a	WORD	1042397	wordpools/wasnorm_wordpool.txt	LTP085	ltpFR	16	12	0	PUBLISHER	1137	n/a	1	0	0.5869140625	0.422607421875	lower	../fonts/amplitud.ttf
2088.728	n/a	WORD	1044364	wordpools/wasnorm_wordpool.txt	LTP085	ltpFR	16	12	1	MONKEY	911	n/a	1	1	0.412841796875	0.57763671875	upper	../fonts/zerothre.ttf
2092.534	n/a	WORD	1046267	wordpools/wasnorm_wordpool.txt	LTP085	ltpFR	16	12	1	RACK	1154	n/a	0	1	0.412841796875	0.57763671875	upper	../fonts/zerothre.ttf
2098.536	n/a	REC_START	1049268	n/a	LTP085	ltpFR	16	12	n/a	n/a	n/a	n/a	n/a	n/a	n/a	n/a	n/a	n/a
2099.978	n/a	REC_WORD	1049989	wordpools/wasnorm_wordpool.txt	LTP085	ltpFR	16	12	1	MONKEY	911	n/a	1	n/a	n/a	n/a	n/a	n/a
2101.06	n/a	REC_WORD	1050530	wordpools/wasnorm_wordpool.txt	LTP085	ltpFR	16	12	1	RACK	1154	n/a	0	n/a	n/a	n/a	n/a	n/a
2102.572	n/a	REC_WORD	1051286	wordpools/wasnorm_wordpool.txt	LTP085	ltpFR	16	12	1	VAGRANT	1544	n/a	0	n/a	n/a	n/a	n/a	n/a
2106.284	n/a	REC_WORD	1053142	wordpools/wasnorm_wordpool.txt	LTP085	ltpFR	16	12	0	BROOK	177	n/a	0	n/a	n/a	n/a	n/a	n/a
2108.948	n/a	REC_WORD	1054474	wordpools/wasnorm_wordpool.txt	LTP085	ltpFR	16	12	n/a	STREAM	1392	n/a	n/a	n/a	n/a	n/a	n/a	n/a
2111.068	n/a	REC_WORD	1055534	wordpools/wasnorm_wordpool.txt	LTP085	ltpFR	16	12	n/a	RIVER	1194	n/a	n/a	n/a	n/a	n/a	n/a	n/a
2113.732	n/a	REC_WORD	1056866	wordpools/wasnorm_wordpool.txt	LTP085	ltpFR	16	12	0	ATTIRE	57	n/a	0	n/a	n/a	n/a	n/a	n/a
2135.08	n/a	REC_WORD	1067540	wordpools/wasnorm_wordpool.txt	LTP085	ltpFR	16	12	1	CHIMPANZEE	302	n/a	1	n/a	n/a	n/a	n/a	n/a
2153.588	n/a	REC_WORD	1076794	wordpools/wasnorm_wordpool.txt	LTP085	ltpFR	16	12	0	SAPPHIRE	1234	n/a	0	n/a	n/a	n/a	n/a	n/a
2156.032	n/a	REC_WORD	1078016	wordpools/wasnorm_wordpool.txt	LTP085	ltpFR	16	12	n/a	DIAMOND	458	n/a	n/a	n/a	n/a	n/a	n/a	n/a
2174.15	n/a	REST_REWET	1087075	n/a	LTP085	ltpFR	16	12	n/a	n/a	n/a	n/a	n/a	n/a	n/a	n/a	n/a	n/a
2541.334	n/a	WORD	1270667	wordpools/wasnorm_wordpool.txt	LTP085	ltpFR	16	13	0	SNAKE	1333	n/a	1	0	0.5869140625	0.422607421875	lower	../fonts/amplitud.ttf
2545.25	n/a	WORD	1272625	wordpools/wasnorm_wordpool.txt	LTP085	ltpFR	16	13	0	PORK	1108	n/a	0	0	0.5869140625	0.422607421875	lower	../fonts/amplitud.ttf
2549.342	n/a	WORD	1274671	wordpools/wasnorm_wordpool.txt	LTP085	ltpFR	16	13	0	TACK	1428	n/a	0	0	0.5869140625	0.422607421875	lower	../fonts/amplitud.ttf
2553.232	n/a	WORD	1276616	wordpools/wasnorm_wordpool.txt	LTP085	ltpFR	16	13	0	MOOSE	915	n/a	1	0	0.5869140625	0.422607421875	lower	../fonts/amplitud.ttf
2557.29	n/a	WORD	1278645	wordpools/wasnorm_wordpool.txt	LTP085	ltpFR	16	13	0	CASTLE	256	n/a	1	0	0.5869140625	0.422607421875	lower	../fonts/amplitud.ttf
2561.432	n/a	WORD	1280716	wordpools/wasnorm_wordpool.txt	LTP085	ltpFR	16	13	0	RANCH	1166	n/a	1	0	0.5869140625	0.422607421875	lower	../fonts/amplitud.ttf
2565.648	n/a	WORD	1282824	wordpools/wasnorm_wordpool.txt	LTP085	ltpFR	16	13	1	HAIL	676	n/a	0	1	0.412841796875	0.57763671875	upper	../fonts/zerothre.ttf
2569.606	n/a	WORD	1284803	wordpools/wasnorm_wordpool.txt	LTP085	ltpFR	16	13	1	BRANCH	168	n/a	0	1	0.412841796875	0.57763671875	upper	../fonts/zerothre.ttf
2573.664	n/a	WORD	1286832	wordpools/wasnorm_wordpool.txt	LTP085	ltpFR	16	13	1	CLIMBER	323	n/a	1	1	0.412841796875	0.57763671875	upper	../fonts/zerothre.ttf
2577.832	n/a	WORD	1288916	wordpools/wasnorm_wordpool.txt	LTP085	ltpFR	16	13	1	LOBSTER	837	n/a	1	1	0.412841796875	0.57763671875	upper	../fonts/zerothre.ttf
2581.94	n/a	WORD	1290970	wordpools/wasnorm_wordpool.txt	LTP085	ltpFR	16	13	1	CRAB	397	n/a	1	1	0.412841796875	0.57763671875	upper	../fonts/zerothre.ttf
2585.756	n/a	WORD	1292878	wordpools/wasnorm_wordpool.txt	LTP085	ltpFR	16	13	1	CHECK	284	n/a	0	1	0.412841796875	0.57763671875	upper	../fonts/zerothre.ttf
2589.932	n/a	WORD	1294966	wordpools/wasnorm_wordpool.txt	LTP085	ltpFR	16	13	0	PALACE	1006	n/a	1	0	0.5869140625	0.422607421875	lower	../fonts/amplitud.ttf
2594.006	n/a	WORD	1297003	wordpools/wasnorm_wordpool.txt	LTP085	ltpFR	16	13	0	LIGHTNING	820	n/a	0	0	0.5869140625	0.422607421875	lower	../fonts/amplitud.ttf
2598.008	n/a	WORD	1299004	wordpools/wasnorm_wordpool.txt	LTP085	ltpFR	16	13	1	GARAGE	621	n/a	0	1	0.412841796875	0.57763671875	upper	../fonts/zerothre.ttf
2602.206	n/a	WORD	1301103	wordpools/wasnorm_wordpool.txt	LTP085	ltpFR	16	13	1	PASSENGER	1020	n/a	1	1	0.412841796875	0.57763671875	upper	../fonts/zerothre.ttf
2607.948	n/a	REC_START	1303974	n/a	LTP085	ltpFR	16	13	n/a	n/a	n/a	n/a	n/a	n/a	n/a	n/a	n/a	n/a
2611.076	n/a	REC_WORD	1305538	wordpools/wasnorm_wordpool.txt	LTP085	ltpFR	16	13	0	LIGHTNING	820	n/a	0	n/a	n/a	n/a	n/a	n/a
2612.074	n/a	REC_WORD	1306037	wordpools/wasnorm_wordpool.txt	LTP085	ltpFR	16	13	1	GARAGE	621	n/a	0	n/a	n/a	n/a	n/a	n/a
2615.63	n/a	REC_WORD	1307815	wordpools/wasnorm_wordpool.txt	LTP085	ltpFR	16	13	1	PASSENGER	1020	n/a	1	n/a	n/a	n/a	n/a	n/a
2618.38	n/a	REC_WORD	1309190	wordpools/wasnorm_wordpool.txt	LTP085	ltpFR	16	13	1	DRIVER	499	n/a	1	n/a	n/a	n/a	n/a	n/a
2620.136	n/a	REC_WORD	1310068	wordpools/wasnorm_wordpool.txt	LTP085	ltpFR	16	13	-1	ENGINE	535	n/a	-1	n/a	n/a	n/a	n/a	n/a
2625.56	n/a	REC_WORD	1312780	wordpools/wasnorm_wordpool.txt	LTP085	ltpFR	16	13	1	HAIL	676	n/a	0	n/a	n/a	n/a	n/a	n/a
2632.238	n/a	REC_WORD	1316119	wordpools/wasnorm_wordpool.txt	LTP085	ltpFR	16	13	1	SHINGLE	1285	n/a	0	n/a	n/a	n/a	n/a	n/a
2634.454	n/a	REC_WORD	1317227	wordpools/wasnorm_wordpool.txt	LTP085	ltpFR	16	13	1	BRANCH	168	n/a	0	n/a	n/a	n/a	n/a	n/a
2636.574	n/a	REC_WORD	1318287	wordpools/wasnorm_wordpool.txt	LTP085	ltpFR	16	13	n/a	LIMB	822	n/a	n/a	n/a	n/a	n/a	n/a	n/a
2641.09	n/a	REC_WORD	1320545	wordpools/wasnorm_wordpool.txt	LTP085	ltpFR	16	13	n/a	TREE	1502	n/a	n/a	n/a	n/a	n/a	n/a	n/a
2647.346	n/a	REC_WORD	1323673	wordpools/wasnorm_wordpool.txt	LTP085	ltpFR	16	13	1	CLIMBER	323	n/a	1	n/a	n/a	n/a	n/a	n/a
2658.66	n/a	REC_WORD	1329330	wordpools/wasnorm_wordpool.txt	LTP085	ltpFR	16	13	0	RANCH	1166	n/a	1	n/a	n/a	n/a	n/a	n/a
2660.456	n/a	REC_WORD	1330228	wordpools/wasnorm_wordpool.txt	LTP085	ltpFR	16	13	0	MOOSE	915	n/a	1	n/a	n/a	n/a	n/a	n/a
2697.312	n/a	WORD	1348656	wordpools/wasnorm_wordpool.txt	LTP085	ltpFR	16	14	1	ASSOCIATE	49	n/a	1	1	0.412841796875	0.57763671875	upper	../fonts/zerothre.ttf
2701.438	n/a	WORD	1350719	wordpools/wasnorm_wordpool.txt	LTP085	ltpFR	16	14	1	DOVE	491	n/a	1	1	0.412841796875	0.57763671875	upper	../fonts/zerothre.ttf
2705.544	n/a	WORD	1352772	wordpools/wasnorm_wordpool.txt	LTP085	ltpFR	16	14	1	NEST	945	n/a	0	1	0.412841796875	0.57763671875	upper	../fonts/zerothre.ttf
2709.56	n/a	WORD	1354780	wordpools/wasnorm_wordpool.txt	LTP085	ltpFR	16	14	1	RACCOON	1153	n/a	1	1	0.412841796875	0.57763671875	upper	../fonts/zerothre.ttf
2713.52	n/a	WORD	1356760	wordpools/wasnorm_wordpool.txt	LTP085	ltpFR	16	14	1	MONGOOSE	909	n/a	1	1	0.412841796875	0.57763671875	upper	../fonts/zerothre.ttf
2717.72	n/a	WORD	1358860	wordpools/wasnorm_wordpool.txt	LTP085	ltpFR	16	14	1	CRATER	400	n/a	0	1	0.412841796875	0.57763671875	upper	../fonts/zerothre.ttf
2721.586	n/a	WORD	1360793	wordpools/wasnorm_wordpool.txt	LTP085	ltpFR	16	14	1	CASHIER	254	n/a	1	1	0.412841796875	0.57763671875	upper	../fonts/zerothre.ttf
2725.628	n/a	WORD	1362814	wordpools/wasnorm_wordpool.txt	LTP085	ltpFR	16	14	1	DOCUMENT	479	n/a	0	1	0.412841796875	0.57763671875	upper	../fonts/zerothre.ttf
2729.454	n/a	WORD	1364727	wordpools/wasnorm_wordpool.txt	LTP085	ltpFR	16	14	1	TOURIST	1488	n/a	1	1	0.412841796875	0.57763671875	upper	../fonts/zerothre.ttf
2733.344	n/a	WORD	1366672	wordpools/wasnorm_wordpool.txt	LTP085	ltpFR	16	14	1	ANKLE	24	n/a	0	1	0.412841796875	0.57763671875	upper	../fonts/zerothre.ttf
2737.278	n/a	WORD	1368639	wordpools/wasnorm_wordpool.txt	LTP085	ltpFR	16	14	1	GROCERIES	663	n/a	0	1	0.412841796875	0.57763671875	upper	../fonts/zerothre.ttf
2741.112	n/a	WORD	1370556	wordpools/wasnorm_wordpool.txt	LTP085	ltpFR	16	14	1	LAUNDRY	803	n/a	0	1	0.412841796875	0.57763671875	upper	../fonts/zerothre.ttf
2745.12	n/a	WORD	1372560	wordpools/wasnorm_wordpool.txt	LTP085	ltpFR	16	14	1	SHRUB	1299	n/a	0	1	0.412841796875	0.57763671875	upper	../fonts/zerothre.ttf
2749.236	n/a	WORD	1374618	wordpools/wasnorm_wordpool.txt	LTP085	ltpFR	16	14	1	WALNUT	1584	n/a	0	1	0.412841796875	0.57763671875	upper	../fonts/zerothre.ttf
2753.21	n/a	WORD	1376605	wordpools/wasnorm_wordpool.txt	LTP085	ltpFR	16	14	1	PIT	1077	n/a	0	1	0.412841796875	0.57763671875	upper	../fonts/zerothre.ttf
2757.086	n/a	WORD	1378543	wordpools/wasnorm_wordpool.txt	LTP085	ltpFR	16	14	1	PAD	998	n/a	0	1	0.412841796875	0.57763671875	upper	../fonts/zerothre.ttf
2763.028	n/a	REC_START	1381514	n/a	LTP085	ltpFR	16	14	n/a	n/a	n/a	n/a	n/a	n/a	n/a	n/a	n/a	n/a
2765.408	n/a	REC_WORD	1382704	wordpools/wasnorm_wordpool.txt	LTP085	ltpFR	16	14	1	DOVE	491	n/a	1	n/a	n/a	n/a	n/a	n/a
2766.286	n/a	REC_WORD_VV	1383143	wordpools/wasnorm_wordpool.txt	LTP085	ltpFR	16	14	n/a	<>	-1	n/a	n/a	n/a	n/a	n/a	n/a	n/a
2766.88	n/a	REC_WORD	1383440	wordpools/wasnorm_wordpool.txt	LTP085	ltpFR	16	14	1	ASSOCIATE	49	n/a	1	n/a	n/a	n/a	n/a	n/a
2768.75	n/a	REC_WORD	1384375	wordpools/wasnorm_wordpool.txt	LTP085	ltpFR	16	14	1	NEST	945	n/a	0	n/a	n/a	n/a	n/a	n/a
2770.182	n/a	REC_WORD	1385091	wordpools/wasnorm_wordpool.txt	LTP085	ltpFR	16	14	1	RACCOON	1153	n/a	1	n/a	n/a	n/a	n/a	n/a
2772.078	n/a	REC_WORD	1386039	wordpools/wasnorm_wordpool.txt	LTP085	ltpFR	16	14	n/a	TREE	1502	n/a	n/a	n/a	n/a	n/a	n/a	n/a
2774.058	n/a	REC_WORD	1387029	wordpools/wasnorm_wordpool.txt	LTP085	ltpFR	16	14	1	MONGOOSE	909	n/a	1	n/a	n/a	n/a	n/a	n/a
2775.84	n/a	REC_WORD	1387920	wordpools/wasnorm_wordpool.txt	LTP085	ltpFR	16	14	n/a	EGG	518	n/a	n/a	n/a	n/a	n/a	n/a	n/a
2777.916	n/a	REC_WORD	1388958	wordpools/wasnorm_wordpool.txt	LTP085	ltpFR	16	14	1	CASHIER	254	n/a	1	n/a	n/a	n/a	n/a	n/a
2779.672	n/a	REC_WORD	1389836	wordpools/wasnorm_wordpool.txt	LTP085	ltpFR	16	14	1	CRATER	400	n/a	0	n/a	n/a	n/a	n/a	n/a
2781.382	n/a	REC_WORD	1390691	wordpools/wasnorm_wordpool.txt	LTP085	ltpFR	16	14	1	WALNUT	1584	n/a	0	n/a	n/a	n/a	n/a	n/a
2782.964	n/a	REC_WORD	1391482	wordpools/wasnorm_wordpool.txt	LTP085	ltpFR	16	14	1	SHRUB	1299	n/a	0	n/a	n/a	n/a	n/a	n/a
2784.87	n/a	REC_WORD	1392435	wordpools/wasnorm_wordpool.txt	LTP085	ltpFR	16	14	1	PIT	1077	n/a	0	n/a	n/a	n/a	n/a	n/a
2786.396	n/a	REC_WORD	1393198	wordpools/wasnorm_wordpool.txt	LTP085	ltpFR	16	14	1	GROCERIES	663	n/a	0	n/a	n/a	n/a	n/a	n/a
2788.426	n/a	REC_WORD	1394213	wordpools/wasnorm_wordpool.txt	LTP085	ltpFR	16	14	1	LAUNDRY	803	n/a	0	n/a	n/a	n/a	n/a	n/a
2791.056	n/a	REC_WORD	1395528	wordpools/wasnorm_wordpool.txt	LTP085	ltpFR	16	14	1	BRANCH	168	n/a	0	n/a	n/a	n/a	n/a	n/a
2795.106	n/a	REC_WORD	1397553	wordpools/wasnorm_wordpool.txt	LTP085	ltpFR	16	14	n/a	MANAGER	863	n/a	n/a	n/a	n/a	n/a	n/a	n/a
2809.998	n/a	REC_WORD	1404999	wordpools/wasnorm_wordpool.txt	LTP085	ltpFR	16	14	1	PIT	1077	n/a	0	n/a	n/a	n/a	n/a	n/a
2810.578	n/a	REC_WORD_VV	1405289	wordpools/wasnorm_wordpool.txt	LTP085	ltpFR	16	14	n/a	<>	-1	n/a	n/a	n/a	n/a	n/a	n/a	n/a
2811.206	n/a	REC_WORD	1405603	wordpools/wasnorm_wordpool.txt	LTP085	ltpFR	16	14	1	PAD	998	n/a	0	n/a	n/a	n/a	n/a	n/a
2819.512	n/a	REC_WORD	1409756	wordpools/wasnorm_wordpool.txt	LTP085	ltpFR	16	14	0	SNAKE	1333	n/a	1	n/a	n/a	n/a	n/a	n/a
2823.448	n/a	REC_WORD	1411724	wordpools/wasnorm_wordpool.txt	LTP085	ltpFR	16	14	n/a	PYTHON	-1	n/a	n/a	n/a	n/a	n/a	n/a	n/a
2836.934	n/a	REC_WORD	1418467	wordpools/wasnorm_wordpool.txt	LTP085	ltpFR	16	14	n/a	BUSH	202	n/a	n/a	n/a	n/a	n/a	n/a	n/a
2894.082	n/a	WORD	1447041	wordpools/wasnorm_wordpool.txt	LTP085	ltpFR	16	15	-1	TUB	1514	n/a	-1	1	1.0	1.0	upper	../fonts/Verdana.ttf
2897.992	n/a	WORD	1448996	wordpools/wasnorm_wordpool.txt	LTP085	ltpFR	16	15	-1	CHAMPAGNE	278	n/a	-1	1	1.0	1.0	upper	../fonts/Verdana.ttf
2902.19	n/a	WORD	1451095	wordpools/wasnorm_wordpool.txt	LTP085	ltpFR	16	15	-1	ESCALATOR	539	n/a	-1	1	1.0	1.0	upper	../fonts/Verdana.ttf
2906.108	n/a	WORD	1453054	wordpools/wasnorm_wordpool.txt	LTP085	ltpFR	16	15	-1	ELEVATOR	524	n/a	-1	1	1.0	1.0	upper	../fonts/Verdana.ttf
2910.056	n/a	WORD	1455028	wordpools/wasnorm_wordpool.txt	LTP085	ltpFR	16	15	-1	UNICORN	1538	n/a	-1	1	1.0	1.0	upper	../fonts/Verdana.ttf
2913.964	n/a	WORD	1456982	wordpools/wasnorm_wordpool.txt	LTP085	ltpFR	16	15	-1	CHEDDAR	286	n/a	-1	1	1.0	1.0	upper	../fonts/Verdana.ttf
2917.908	n/a	WORD	1458954	wordpools/wasnorm_wordpool.txt	LTP085	ltpFR	16	15	-1	BOYFRIEND	162	n/a	-1	1	1.0	1.0	upper	../fonts/Verdana.ttf
2922.056	n/a	WORD	1461028	wordpools/wasnorm_wordpool.txt	LTP085	ltpFR	16	15	-1	PADDING	999	n/a	-1	1	1.0	1.0	upper	../fonts/Verdana.ttf
2926.056	n/a	WORD	1463028	wordpools/wasnorm_wordpool.txt	LTP085	ltpFR	16	15	-1	TAVERN	1437	n/a	-1	1	1.0	1.0	upper	../fonts/Verdana.ttf
2929.94	n/a	WORD	1464970	wordpools/wasnorm_wordpool.txt	LTP085	ltpFR	16	15	-1	ZEBRA	1635	n/a	-1	1	1.0	1.0	upper	../fonts/Verdana.ttf
2934.08	n/a	WORD	1467040	wordpools/wasnorm_wordpool.txt	LTP085	ltpFR	16	15	-1	CAULIFLOWER	262	n/a	-1	1	1.0	1.0	upper	../fonts/Verdana.ttf
2938.264	n/a	WORD	1469132	wordpools/wasnorm_wordpool.txt	LTP085	ltpFR	16	15	-1	KNIFE	785	n/a	-1	1	1.0	1.0	upper	../fonts/Verdana.ttf
2942.182	n/a	WORD	1471091	wordpools/wasnorm_wordpool.txt	LTP085	ltpFR	16	15	-1	SCOTCH	1251	n/a	-1	1	1.0	1.0	upper	../fonts/Verdana.ttf
2946.24	n/a	WORD	1473120	wordpools/wasnorm_wordpool.txt	LTP085	ltpFR	16	15	-1	HEADBAND	696	n/a	-1	1	1.0	1.0	upper	../fonts/Verdana.ttf
2950.214	n/a	WORD	1475107	wordpools/wasnorm_wordpool.txt	LTP085	ltpFR	16	15	-1	FOREHEAD	592	n/a	-1	1	1.0	1.0	upper	../fonts/Verdana.ttf
2954.398	n/a	WORD	1477199	wordpools/wasnorm_wordpool.txt	LTP085	ltpFR	16	15	-1	LIP	828	n/a	-1	1	1.0	1.0	upper	../fonts/Verdana.ttf
2960.106	n/a	REC_START	1480053	n/a	LTP085	ltpFR	16	15	n/a	n/a	n/a	n/a	n/a	n/a	n/a	n/a	n/a	n/a
2961.818	n/a	REC_WORD	1480909	wordpools/wasnorm_wordpool.txt	LTP085	ltpFR	16	15	-1	TUB	1514	n/a	-1	n/a	n/a	n/a	n/a	n/a
2962.86	n/a	REC_WORD	1481430	wordpools/wasnorm_wordpool.txt	LTP085	ltpFR	16	15	-1	CHAMPAGNE	278	n/a	-1	n/a	n/a	n/a	n/a	n/a
2965.0	n/a	REC_WORD	1482500	wordpools/wasnorm_wordpool.txt	LTP085	ltpFR	16	15	-1	ELEVATOR	524	n/a	-1	n/a	n/a	n/a	n/a	n/a
2966.412	n/a	REC_WORD	1483206	wordpools/wasnorm_wordpool.txt	LTP085	ltpFR	16	15	-1	ESCALATOR	539	n/a	-1	n/a	n/a	n/a	n/a	n/a
2968.488	n/a	REC_WORD	1484244	wordpools/wasnorm_wordpool.txt	LTP085	ltpFR	16	15	-1	UNICORN	1538	n/a	-1	n/a	n/a	n/a	n/a	n/a
2971.486	n/a	REC_WORD	1485743	wordpools/wasnorm_wordpool.txt	LTP085	ltpFR	16	15	-1	CHEDDAR	286	n/a	-1	n/a	n/a	n/a	n/a	n/a
2973.546	n/a	REC_WORD	1486773	wordpools/wasnorm_wordpool.txt	LTP085	ltpFR	16	15	-1	BOYFRIEND	162	n/a	-1	n/a	n/a	n/a	n/a	n/a
2977.268	n/a	REC_WORD	1488634	wordpools/wasnorm_wordpool.txt	LTP085	ltpFR	16	15	n/a	STAIRS	1367	n/a	n/a	n/a	n/a	n/a	n/a	n/a
2980.7	n/a	REC_WORD	1490350	wordpools/wasnorm_wordpool.txt	LTP085	ltpFR	16	15	-1	TAVERN	1437	n/a	-1	n/a	n/a	n/a	n/a	n/a
2982.432	n/a	REC_WORD	1491216	wordpools/wasnorm_wordpool.txt	LTP085	ltpFR	16	15	-1	PADDING	999	n/a	-1	n/a	n/a	n/a	n/a	n/a
2984.288	n/a	REC_WORD	1492144	wordpools/wasnorm_wordpool.txt	LTP085	ltpFR	16	15	n/a	ALCOHOL	-1	n/a	n/a	n/a	n/a	n/a	n/a	n/a
2986.572	n/a	REC_WORD	1493286	wordpools/wasnorm_wordpool.txt	LTP085	ltpFR	16	15	-1	ZEBRA	1635	n/a	-1	n/a	n/a	n/a	n/a	n/a
2988.748	n/a	REC_WORD	1494374	wordpools/wasnorm_wordpool.txt	LTP085	ltpFR	16	15	-1	CAULIFLOWER	262	n/a	-1	n/a	n/a	n/a	n/a	n/a
2992.734	n/a	REC_WORD	1496367	wordpools/wasnorm_wordpool.txt	LTP085	ltpFR	16	15	-1	KNIFE	785	n/a	-1	n/a	n/a	n/a	n/a	n/a
2994.504	n/a	REC_WORD	1497252	wordpools/wasnorm_wordpool.txt	LTP085	ltpFR	16	15	-1	SCOTCH	1251	n/a	-1	n/a	n/a	n/a	n/a	n/a
2996.724	n/a	REC_WORD	1498362	wordpools/wasnorm_wordpool.txt	LTP085	ltpFR	16	15	n/a	WHISKEY	-1	n/a	n/a	n/a	n/a	n/a	n/a	n/a
3002.058	n/a	REC_WORD	1501029	wordpools/wasnorm_wordpool.txt	LTP085	ltpFR	16	15	-1	FOREHEAD	592	n/a	-1	n/a	n/a	n/a	n/a	n/a
3003.914	n/a	REC_WORD	1501957	wordpools/wasnorm_wordpool.txt	LTP085	ltpFR	16	15	-1	HEADBAND	696	n/a	-1	n/a	n/a	n/a	n/a	n/a
3006.304	n/a	REC_WORD	1503152	wordpools/wasnorm_wordpool.txt	LTP085	ltpFR	16	15	n/a	POUCH	-1	n/a	n/a	n/a	n/a	n/a	n/a	n/a
3015.048	n/a	REC_WORD	1507524	wordpools/wasnorm_wordpool.txt	LTP085	ltpFR	16	15	-1	LIP	828	n/a	-1	n/a	n/a	n/a	n/a	n/a
3019.564	n/a	REC_WORD	1509782	wordpools/wasnorm_wordpool.txt	LTP085	ltpFR	16	15	n/a	HOOF	-1	n/a	n/a	n/a	n/a	n/a	n/a	n/a
3022.408	n/a	REC_WORD	1511204	wordpools/wasnorm_wordpool.txt	LTP085	ltpFR	16	15	n/a	HORSE	719	n/a	n/a	n/a	n/a	n/a	n/a	n/a
3055.144	n/a	WORD	1527572	wordpools/wasnorm_wordpool.txt	LTP085	ltpFR	16	16	0	LANDSCAPE	799	n/a	1	0	0.5869140625	0.422607421875	lower	../fonts/amplitud.ttf
3059.02	n/a	WORD	1529510	wordpools/wasnorm_wordpool.txt	LTP085	ltpFR	16	16	0	GUM	672	n/a	0	0	0.5869140625	0.422607421875	lower	../fonts/amplitud.ttf
3063.22	n/a	WORD	1531610	wordpools/wasnorm_wordpool.txt	LTP085	ltpFR	16	16	1	BARK	87	n/a	0	1	0.412841796875	0.57763671875	upper	../fonts/zerothre.ttf
3067.278	n/a	WORD	1533639	wordpools/wasnorm_wordpool.txt	LTP085	ltpFR	16	16	1	SENATOR	1268	n/a	1	1	0.412841796875	0.57763671875	upper	../fonts/zerothre.ttf
3071.202	n/a	WORD	1535601	wordpools/wasnorm_wordpool.txt	LTP085	ltpFR	16	16	1	MEAL	882	n/a	0	1	0.412841796875	0.57763671875	upper	../fonts/zerothre.ttf
3075.26	n/a	WORD	1537630	wordpools/wasnorm_wordpool.txt	LTP085	ltpFR	16	16	1	WEED	1599	n/a	0	1	0.412841796875	0.57763671875	upper	../fonts/zerothre.ttf
3079.202	n/a	WORD	1539601	wordpools/wasnorm_wordpool.txt	LTP085	ltpFR	16	16	0	COYOTE	396	n/a	0	0	0.5869140625	0.422607421875	lower	../fonts/amplitud.ttf
3083.244	n/a	WORD	1541622	wordpools/wasnorm_wordpool.txt	LTP085	ltpFR	16	16	0	FLESH	579	n/a	0	0	0.5869140625	0.422607421875	lower	../fonts/amplitud.ttf
3087.228	n/a	WORD	1543614	wordpools/wasnorm_wordpool.txt	LTP085	ltpFR	16	16	0	CYLINDER	432	n/a	0	0	0.5869140625	0.422607421875	lower	../fonts/amplitud.ttf
3091.068	n/a	WORD	1545534	wordpools/wasnorm_wordpool.txt	LTP085	ltpFR	16	16	0	LOOP	844	n/a	0	0	0.5869140625	0.422607421875	lower	../fonts/amplitud.ttf
3095.194	n/a	WORD	1547597	wordpools/wasnorm_wordpool.txt	LTP085	ltpFR	16	16	1	SWITCH	1422	n/a	0	1	0.412841796875	0.57763671875	upper	../fonts/zerothre.ttf
3099.386	n/a	WORD	1549693	wordpools/wasnorm_wordpool.txt	LTP085	ltpFR	16	16	1	GANG	619	n/a	1	1	0.412841796875	0.57763671875	upper	../fonts/zerothre.ttf
3103.36	n/a	WORD	1551680	wordpools/wasnorm_wordpool.txt	LTP085	ltpFR	16	16	1	BIRD	129	n/a	1	1	0.412841796875	0.57763671875	upper	../fonts/zerothre.ttf
3107.536	n/a	WORD	1553768	wordpools/wasnorm_wordpool.txt	LTP085	ltpFR	16	16	1	BLUEJAY	141	n/a	1	1	0.412841796875	0.57763671875	upper	../fonts/zerothre.ttf
3111.51	n/a	WORD	1555755	wordpools/wasnorm_wordpool.txt	LTP085	ltpFR	16	16	0	CAP	236	n/a	0	0	0.5869140625	0.422607421875	lower	../fonts/amplitud.ttf
3115.484	n/a	WORD	1557742	wordpools/wasnorm_wordpool.txt	LTP085	ltpFR	16	16	0	CHAIRPERSON	275	n/a	1	0	0.5869140625	0.422607421875	lower	../fonts/amplitud.ttf
3121.412	n/a	REC_START	1560706	n/a	LTP085	ltpFR	16	16	n/a	n/a	n/a	n/a	n/a	n/a	n/a	n/a	n/a	n/a
3122.424	n/a	REC_WORD	1561212	wordpools/wasnorm_wordpool.txt	LTP085	ltpFR	16	16	1	SENATOR	1268	n/a	1	n/a	n/a	n/a	n/a	n/a
3123.92	n/a	REC_WORD	1561960	wordpools/wasnorm_wordpool.txt	LTP085	ltpFR	16	16	0	CHAIRPERSON	275	n/a	1	n/a	n/a	n/a	n/a	n/a
3126.22	n/a	REC_WORD	1563110	wordpools/wasnorm_wordpool.txt	LTP085	ltpFR	16	16	0	LOOP	844	n/a	0	n/a	n/a	n/a	n/a	n/a
3127.796	n/a	REC_WORD	1563898	wordpools/wasnorm_wordpool.txt	LTP085	ltpFR	16	16	n/a	EMERALD	528	n/a	n/a	n/a	n/a	n/a	n/a	n/a
3129.942	n/a	REC_WORD	1564971	wordpools/wasnorm_wordpool.txt	LTP085	ltpFR	16	16	1	BLUEJAY	141	n/a	1	n/a	n/a	n/a	n/a	n/a
3131.378	n/a	REC_WORD	1565689	wordpools/wasnorm_wordpool.txt	LTP085	ltpFR	16	16	1	GANG	619	n/a	1	n/a	n/a	n/a	n/a	n/a
3133.05	n/a	REC_WORD	1566525	wordpools/wasnorm_wordpool.txt	LTP085	ltpFR	16	16	1	BIRD	129	n/a	1	n/a	n/a	n/a	n/a	n/a
3134.702	n/a	REC_WORD	1567351	wordpools/wasnorm_wordpool.txt	LTP085	ltpFR	16	16	1	DOVE	491	n/a	1	n/a	n/a	n/a	n/a	n/a
3137.736	n/a	REC_WORD	1568868	wordpools/wasnorm_wordpool.txt	LTP085	ltpFR	16	16	1	WEED	1599	n/a	0	n/a	n/a	n/a	n/a	n/a
3140.534	n/a	REC_WORD	1570267	wordpools/wasnorm_wordpool.txt	LTP085	ltpFR	16	16	n/a	ALCOVE	-1	n/a	n/a	n/a	n/a	n/a	n/a	n/a
3173.28	n/a	REC_WORD	1586640	wordpools/wasnorm_wordpool.txt	LTP085	ltpFR	16	16	0	CYLINDER	432	n/a	0	n/a	n/a	n/a	n/a	n/a
3176.958	n/a	REC_WORD	1588479	wordpools/wasnorm_wordpool.txt	LTP085	ltpFR	16	16	0	CHIPMUNK	304	n/a	0	n/a	n/a	n/a	n/a	n/a
3182.202	n/a	REC_WORD	1591101	wordpools/wasnorm_wordpool.txt	LTP085	ltpFR	16	16	0	LANDSCAPE	799	n/a	1	n/a	n/a	n/a	n/a	n/a
3185.12	n/a	REC_WORD	1592560	wordpools/wasnorm_wordpool.txt	LTP085	ltpFR	16	16	1	SWITCH	1422	n/a	0	n/a	n/a	n/a	n/a	n/a
3190.622	n/a	REC_WORD	1595311	wordpools/wasnorm_wordpool.txt	LTP085	ltpFR	16	16	n/a	LIGHT	-1	n/a	n/a	n/a	n/a	n/a	n/a	n/a
3216.334	n/a	REC_START	1608167	n/a	LTP085	ltpFR	16	n/a	n/a	n/a	n/a	n/a	n/a	n/a	n/a	n/a	n/a	n/a
3217.37	n/a	FFR_REC_WORD	1608685	wordpools/wasnorm_wordpool.txt	LTP085	ltpFR	16	n/a	1	NEUTRON	947	n/a	0	n/a	n/a	n/a	n/a	n/a
3218.334	n/a	FFR_REC_WORD	1609167	wordpools/wasnorm_wordpool.txt	LTP085	ltpFR	16	n/a	1	SENATOR	1268	n/a	1	n/a	n/a	n/a	n/a	n/a
3220.698	n/a	FFR_REC_WORD	1610349	wordpools/wasnorm_wordpool.txt	LTP085	ltpFR	16	n/a	1	TIGER	1467	n/a	1	n/a	n/a	n/a	n/a	n/a
3221.726	n/a	FFR_REC_WORD	1610863	wordpools/wasnorm_wordpool.txt	LTP085	ltpFR	16	n/a	1	DOVE	491	n/a	1	n/a	n/a	n/a	n/a	n/a
3223.088	n/a	FFR_REC_WORD	1611544	wordpools/wasnorm_wordpool.txt	LTP085	ltpFR	16	n/a	1	CHIMPANZEE	302	n/a	1	n/a	n/a	n/a	n/a	n/a
3226.654	n/a	FFR_REC_WORD	1613327	wordpools/wasnorm_wordpool.txt	LTP085	ltpFR	16	n/a	-1	ZEBRA	1635	n/a	-1	n/a	n/a	n/a	n/a	n/a
3229.204	n/a	FFR_REC_WORD	1614602	wordpools/wasnorm_wordpool.txt	LTP085	ltpFR	16	n/a	-1	MULE	931	n/a	-1	n/a	n/a	n/a	n/a	n/a
3231.788	n/a	FFR_REC_WORD	1615894	wordpools/wasnorm_wordpool.txt	LTP085	ltpFR	16	n/a	1	BLUEJAY	141	n/a	1	n/a	n/a	n/a	n/a	n/a
3233.344	n/a	FFR_REC_WORD	1616672	wordpools/wasnorm_wordpool.txt	LTP085	ltpFR	16	n/a	1	BIRD	129	n/a	1	n/a	n/a	n/a	n/a	n/a
3238.998	n/a	FFR_REC_WORD	1619499	wordpools/wasnorm_wordpool.txt	LTP085	ltpFR	16	n/a	0	MOOSE	915	n/a	1	n/a	n/a	n/a	n/a	n/a
3241.652	n/a	FFR_REC_WORD	1620826	wordpools/wasnorm_wordpool.txt	LTP085	ltpFR	16	n/a	1	MONGOOSE	909	n/a	1	n/a	n/a	n/a	n/a	n/a
3243.148	n/a	FFR_REC_WORD	1621574	wordpools/wasnorm_wordpool.txt	LTP085	ltpFR	16	n/a	1	RACCOON	1153	n/a	1	n/a	n/a	n/a	n/a	n/a
3246.406	n/a	FFR_REC_WORD	1623203	wordpools/wasnorm_wordpool.txt	LTP085	ltpFR	16	n/a	1	NEST	945	n/a	0	n/a	n/a	n/a	n/a	n/a
3248.356	n/a	FFR_REC_WORD	1624178	wordpools/wasnorm_wordpool.txt	LTP085	ltpFR	16	n/a	1	PIT	1077	n/a	0	n/a	n/a	n/a	n/a	n/a
3249.874	n/a	FFR_REC_WORD	1624937	wordpools/wasnorm_wordpool.txt	LTP085	ltpFR	16	n/a	1	CRATER	400	n/a	0	n/a	n/a	n/a	n/a	n/a
3251.2	n/a	FFR_REC_WORD	1625600	wordpools/wasnorm_wordpool.txt	LTP085	ltpFR	16	n/a	1	SHRUB	1299	n/a	0	n/a	n/a	n/a	n/a	n/a
3252.876	n/a	FFR_REC_WORD	1626438	wordpools/wasnorm_wordpool.txt	LTP085	ltpFR	16	n/a	0	GROUND	666	n/a	0	n/a	n/a	n/a	n/a	n/a
3254.352	n/a	FFR_REC_WORD	1627176	wordpools/wasnorm_wordpool.txt	LTP085	ltpFR	16	n/a	0	CHIPMUNK	304	n/a	0	n/a	n/a	n/a	n/a	n/a
3256.32	n/a	FFR_REC_WORD	1628160	wordpools/wasnorm_wordpool.txt	LTP085	ltpFR	16	n/a	-1	ELEVATOR	524	n/a	-1	n/a	n/a	n/a	n/a	n/a
3257.492	n/a	FFR_REC_WORD	1628746	wordpools/wasnorm_wordpool.txt	LTP085	ltpFR	16	n/a	-1	ESCALATOR	539	n/a	-1	n/a	n/a	n/a	n/a	n/a
3261.612	n/a	FFR_REC_WORD	1630806	wordpools/wasnorm_wordpool.txt	LTP085	ltpFR	16	n/a	-1	TUB	1514	n/a	-1	n/a	n/a	n/a	n/a	n/a
3263.014	n/a	FFR_REC_WORD	1631507	wordpools/wasnorm_wordpool.txt	LTP085	ltpFR	16	n/a	0	BATH	98	n/a	1	n/a	n/a	n/a	n/a	n/a
3264.536	n/a	FFR_REC_WORD	1632268	wordpools/wasnorm_wordpool.txt	LTP085	ltpFR	16	n/a	-1	CHAMPAGNE	278	n/a	-1	n/a	n/a	n/a	n/a	n/a
3266.008	n/a	FFR_REC_WORD	1633004	wordpools/wasnorm_wordpool.txt	LTP085	ltpFR	16	n/a	-1	SCOTCH	1251	n/a	-1	n/a	n/a	n/a	n/a	n/a
3267.668	n/a	FFR_REC_WORD	1633834	wordpools/wasnorm_wordpool.txt	LTP085	ltpFR	16	n/a	-1	BOYFRIEND	162	n/a	-1	n/a	n/a	n/a	n/a	n/a
3268.886	n/a	FFR_REC_WORD	1634443	wordpools/wasnorm_wordpool.txt	LTP085	ltpFR	16	n/a	-1	UNICORN	1538	n/a	-1	n/a	n/a	n/a	n/a	n/a
3270.702	n/a	FFR_REC_WORD	1635351	wordpools/wasnorm_wordpool.txt	LTP085	ltpFR	16	n/a	1	SHINGLE	1285	n/a	0	n/a	n/a	n/a	n/a	n/a
3272.014	n/a	FFR_REC_WORD	1636007	wordpools/wasnorm_wordpool.txt	LTP085	ltpFR	16	n/a	1	CEILING	265	n/a	0	n/a	n/a	n/a	n/a	n/a
3275.026	n/a	FFR_REC_WORD	1637513	wordpools/wasnorm_wordpool.txt	LTP085	ltpFR	16	n/a	-1	CHEDDAR	286	n/a	-1	n/a	n/a	n/a	n/a	n/a
3277.882	n/a	FFR_REC_WORD	1638941	wordpools/wasnorm_wordpool.txt	LTP085	ltpFR	16	n/a	0	ATTIRE	57	n/a	0	n/a	n/a	n/a	n/a	n/a
3279.108	n/a	FFR_REC_WORD	1639554	wordpools/wasnorm_wordpool.txt	LTP085	ltpFR	16	n/a	0	DRESS	495	n/a	0	n/a	n/a	n/a	n/a	n/a
3280.096	n/a	FFR_REC_WORD	1640048	wordpools/wasnorm_wordpool.txt	LTP085	ltpFR	16	n/a	0	ROBE	1198	n/a	0	n/a	n/a	n/a	n/a	n/a
3281.428	n/a	FFR_REC_WORD	1640714	wordpools/wasnorm_wordpool.txt	LTP085	ltpFR	16	n/a	1	PANTS	1010	n/a	0	n/a	n/a	n/a	n/a	n/a
3282.61	n/a	FFR_REC_WORD	1641305	wordpools/wasnorm_wordpool.txt	LTP085	ltpFR	16	n/a	0	WALLET	1583	n/a	0	n/a	n/a	n/a	n/a	n/a
3284.72	n/a	FFR_REC_WORD	1642360	wordpools/wasnorm_wordpool.txt	LTP085	ltpFR	16	n/a	0	CASH	252	n/a	0	n/a	n/a	n/a	n/a	n/a
3286.038	n/a	FFR_REC_WORD	1643019	wordpools/wasnorm_wordpool.txt	LTP085	ltpFR	16	n/a	1	GANG	619	n/a	1	n/a	n/a	n/a	n/a	n/a
3287.68	n/a	FFR_REC_WORD	1643840	wordpools/wasnorm_wordpool.txt	LTP085	ltpFR	16	n/a	-1	TUNNEL	1519	n/a	-1	n/a	n/a	n/a	n/a	n/a
3289.436	n/a	FFR_REC_WORD	1644718	wordpools/wasnorm_wordpool.txt	LTP085	ltpFR	16	n/a	-1	SALESMAN	1225	n/a	-1	n/a	n/a	n/a	n/a	n/a
3290.562	n/a	FFR_REC_WORD	1645281	wordpools/wasnorm_wordpool.txt	LTP085	ltpFR	16	n/a	1	TECHNICIAN	1443	n/a	1	n/a	n/a	n/a	n/a	n/a
3292.428	n/a	FFR_REC_WORD	1646214	wordpools/wasnorm_wordpool.txt	LTP085	ltpFR	16	n/a	1	PERSONNEL	1053	n/a	1	n/a	n/a	n/a	n/a	n/a
3295.746	n/a	FFR_REC_WORD	1647873	wordpools/wasnorm_wordpool.txt	LTP085	ltpFR	16	n/a	1	DRIVER	499	n/a	1	n/a	n/a	n/a	n/a	n/a
3298.326	n/a	FFR_REC_WORD	1649163	wordpools/wasnorm_wordpool.txt	LTP085	ltpFR	16	n/a	1	BANKER	84	n/a	1	n/a	n/a	n/a	n/a	n/a
3303.668	n/a	FFR_REC_WORD	1651834	wordpools/wasnorm_wordpool.txt	LTP085	ltpFR	16	n/a	0	TIMBER	1469	n/a	0	n/a	n/a	n/a	n/a	n/a
3306.134	n/a	FFR_REC_WORD	1653067	wordpools/wasnorm_wordpool.txt	LTP085	ltpFR	16	n/a	-1	CHAPEL	280	n/a	-1	n/a	n/a	n/a	n/a	n/a
3307.246	n/a	FFR_REC_WORD	1653623	wordpools/wasnorm_wordpool.txt	LTP085	ltpFR	16	n/a	-1	SISTER	1312	n/a	-1	n/a	n/a	n/a	n/a	n/a
3308.822	n/a	FFR_REC_WORD	1654411	wordpools/wasnorm_wordpool.txt	LTP085	ltpFR	16	n/a	-1	DOOR	486	n/a	-1	n/a	n/a	n/a	n/a	n/a
3313.72	n/a	FFR_REC_WORD	1656860	wordpools/wasnorm_wordpool.txt	LTP085	ltpFR	16	n/a	-1	SPIDER	1351	n/a	-1	n/a	n/a	n/a	n/a	n/a
3317.14	n/a	FFR_REC_WORD	1658570	wordpools/wasnorm_wordpool.txt	LTP085	ltpFR	16	n/a	-1	MOTH	920	n/a	-1	n/a	n/a	n/a	n/a	n/a
3317.998	n/a	FFR_REC_WORD	1658999	wordpools/wasnorm_wordpool.txt	LTP085	ltpFR	16	n/a	-1	SHEPHERD	1283	n/a	-1	n/a	n/a	n/a	n/a	n/a
3319.434	n/a	FFR_REC_WORD	1659717	wordpools/wasnorm_wordpool.txt	LTP085	ltpFR	16	n/a	-1	PORTRAIT	1111	n/a	-1	n/a	n/a	n/a	n/a	n/a
3320.586	n/a	FFR_REC_WORD	1660293	wordpools/wasnorm_wordpool.txt	LTP085	ltpFR	16	n/a	-1	CATCHER	258	n/a	-1	n/a	n/a	n/a	n/a	n/a
3321.798	n/a	FFR_REC_WORD	1660899	wordpools/wasnorm_wordpool.txt	LTP085	ltpFR	16	n/a	-1	PEANUT	1032	n/a	-1	n/a	n/a	n/a	n/a	n/a
3327.55	n/a	FFR_REC_WORD	1663775	wordpools/wasnorm_wordpool.txt	LTP085	ltpFR	16	n/a	-1	LIP	828	n/a	-1	n/a	n/a	n/a	n/a	n/a
3328.608	n/a	FFR_REC_WORD	1664304	wordpools/wasnorm_wordpool.txt	LTP085	ltpFR	16	n/a	-1	FOREHEAD	592	n/a	-1	n/a	n/a	n/a	n/a	n/a
3329.566	n/a	FFR_REC_WORD	1664783	wordpools/wasnorm_wordpool.txt	LTP085	ltpFR	16	n/a	-1	HEADBAND	696	n/a	-1	n/a	n/a	n/a	n/a	n/a
3331.366	n/a	FFR_REC_WORD	1665683	wordpools/wasnorm_wordpool.txt	LTP085	ltpFR	16	n/a	-1	KNIFE	785	n/a	-1	n/a	n/a	n/a	n/a	n/a
3332.544	n/a	FFR_REC_WORD	1666272	wordpools/wasnorm_wordpool.txt	LTP085	ltpFR	16	n/a	-1	CAULIFLOWER	262	n/a	-1	n/a	n/a	n/a	n/a	n/a
3338.222	n/a	FFR_REC_WORD	1669111	wordpools/wasnorm_wordpool.txt	LTP085	ltpFR	16	n/a	-1	BEAVER	109	n/a	-1	n/a	n/a	n/a	n/a	n/a
3339.126	n/a	FFR_REC_WORD	1669563	wordpools/wasnorm_wordpool.txt	LTP085	ltpFR	16	n/a	-1	HOSE	720	n/a	-1	n/a	n/a	n/a	n/a	n/a
3340.088	n/a	FFR_REC_WORD	1670044	wordpools/wasnorm_wordpool.txt	LTP085	ltpFR	16	n/a	-1	SCREEN	1253	n/a	-1	n/a	n/a	n/a	n/a	n/a
3342.982	n/a	FFR_REC_WORD	1671491	wordpools/wasnorm_wordpool.txt	LTP085	ltpFR	16	n/a	-1	CHART	282	n/a	-1	n/a	n/a	n/a	n/a	n/a
3343.84	n/a	FFR_REC_WORD	1671920	wordpools/wasnorm_wordpool.txt	LTP085	ltpFR	16	n/a	-1	SIGNATURE	1306	n/a	-1	n/a	n/a	n/a	n/a	n/a
3344.912	n/a	FFR_REC_WORD	1672456	wordpools/wasnorm_wordpool.txt	LTP085	ltpFR	16	n/a	n/a	SKETCH	1315	n/a	n/a	n/a	n/a	n/a	n/a	n/a
3348.948	n/a	FFR_REC_WORD	1674474	wordpools/wasnorm_wordpool.txt	LTP085	ltpFR	16	n/a	-1	NAIL	936	n/a	-1	n/a	n/a	n/a	n/a	n/a
3349.622	n/a	FFR_REC_WORD	1674811	wordpools/wasnorm_wordpool.txt	LTP085	ltpFR	16	n/a	-1	HAMMER	680	n/a	-1	n/a	n/a	n/a	n/a	n/a
3352.604	n/a	FFR_REC_WORD	1676302	wordpools/wasnorm_wordpool.txt	LTP085	ltpFR	16	n/a	-1	FOOTBALL	591	n/a	-1	n/a	n/a	n/a	n/a	n/a
3353.422	n/a	FFR_REC_WORD	1676711	wordpools/wasnorm_wordpool.txt	LTP085	ltpFR	16	n/a	-1	BASEBALL	93	n/a	-1	n/a	n/a	n/a	n/a	n/a
3354.556	n/a	FFR_REC_WORD	1677278	wordpools/wasnorm_wordpool.txt	LTP085	ltpFR	16	n/a	-1	TOMATO	1476	n/a	-1	n/a	n/a	n/a	n/a	n/a
3355.688	n/a	FFR_REC_WORD	1677844	wordpools/wasnorm_wordpool.txt	LTP085	ltpFR	16	n/a	-1	TUBA	1515	n/a	-1	n/a	n/a	n/a	n/a	n/a
3356.96	n/a	FFR_REC_WORD	1678480	wordpools/wasnorm_wordpool.txt	LTP085	ltpFR	16	n/a	-1	PIANO	1057	n/a	-1	n/a	n/a	n/a	n/a	n/a
3358.058	n/a	FFR_REC_WORD	1679029	wordpools/wasnorm_wordpool.txt	LTP085	ltpFR	16	n/a	-1	SHARK	1275	n/a	-1	n/a	n/a	n/a	n/a	n/a
3359.156	n/a	FFR_REC_WORD	1679578	wordpools/wasnorm_wordpool.txt	LTP085	ltpFR	16	n/a	1	FIN	566	n/a	0	n/a	n/a	n/a	n/a	n/a
3360.732	n/a	FFR_REC_WORD	1680366	wordpools/wasnorm_wordpool.txt	LTP085	ltpFR	16	n/a	1	SQUID	1361	n/a	1	n/a	n/a	n/a	n/a	n/a
3361.864	n/a	FFR_REC_WORD	1680932	wordpools/wasnorm_wordpool.txt	LTP085	ltpFR	16	n/a	1	OCTOPUS	971	n/a	1	n/a	n/a	n/a	n/a	n/a
3363.43	n/a	FFR_REC_WORD	1681715	wordpools/wasnorm_wordpool.txt	LTP085	ltpFR	16	n/a	-1	BOOT	150	n/a	-1	n/a	n/a	n/a	n/a	n/a
3366.036	n/a	FFR_REC_WORD	1683018	wordpools/wasnorm_wordpool.txt	LTP085	ltpFR	16	n/a	0	LANDSCAPE	799	n/a	1	n/a	n/a	n/a	n/a	n/a
3371.562	n/a	FFR_REC_WORD	1685781	wordpools/wasnorm_wordpool.txt	LTP085	ltpFR	16	n/a	0	MARINE	869	n/a	0	n/a	n/a	n/a	n/a	n/a
3375.22	n/a	FFR_REC_WORD	1687610	wordpools/wasnorm_wordpool.txt	LTP085	ltpFR	16	n/a	0	MARS	873	n/a	1	n/a	n/a	n/a	n/a	n/a
3377.47	n/a	FFR_REC_WORD	1688735	wordpools/wasnorm_wordpool.txt	LTP085	ltpFR	16	n/a	1	UNIVERSE	1540	n/a	0	n/a	n/a	n/a	n/a	n/a
3382.754	n/a	FFR_REC_WORD	1691377	wordpools/wasnorm_wordpool.txt	LTP085	ltpFR	16	n/a	0	SLEEVE	1324	n/a	0	n/a	n/a	n/a	n/a	n/a
3383.906	n/a	FFR_REC_WORD	1691953	wordpools/wasnorm_wordpool.txt	LTP085	ltpFR	16	n/a	0	ONION	977	n/a	0	n/a	n/a	n/a	n/a	n/a
3386.206	n/a	FFR_REC_WORD	1693103	wordpools/wasnorm_wordpool.txt	LTP085	ltpFR	16	n/a	1	RAG	1160	n/a	0	n/a	n/a	n/a	n/a	n/a
3387.488	n/a	FFR_REC_WORD	1693744	wordpools/wasnorm_wordpool.txt	LTP085	ltpFR	16	n/a	1	TAG	1429	n/a	0	n/a	n/a	n/a	n/a	n/a
3399.062	n/a	FFR_REC_WORD	1699531	wordpools/wasnorm_wordpool.txt	LTP085	ltpFR	16	n/a	1	RAG	1160	n/a	0	n/a	n/a	n/a	n/a	n/a
3418.36	n/a	FFR_REC_WORD	1709180	wordpools/wasnorm_wordpool.txt	LTP085	ltpFR	16	n/a	0	RANCH	1166	n/a	1	n/a	n/a	n/a	n/a	n/a
3422.09	n/a	FFR_REC_WORD	1711045	wordpools/wasnorm_wordpool.txt	LTP085	ltpFR	16	n/a	0	GODDESS	646	n/a	1	n/a	n/a	n/a	n/a	n/a
3424.34	n/a	FFR_REC_WORD	1712170	wordpools/wasnorm_wordpool.txt	LTP085	ltpFR	16	n/a	1	SWITCH	1422	n/a	0	n/a	n/a	n/a	n/a	n/a
3427.364	n/a	FFR_REC_WORD	1713682	wordpools/wasnorm_wordpool.txt	LTP085	ltpFR	16	n/a	1	PALM	1007	n/a	0	n/a	n/a	n/a	n/a	n/a
3429.654	n/a	FFR_REC_WORD	1714827	wordpools/wasnorm_wordpool.txt	LTP085	ltpFR	16	n/a	0	PIKE	1067	n/a	1	n/a	n/a	n/a	n/a	n/a
3439.088	n/a	FFR_REC_WORD	1719544	wordpools/wasnorm_wordpool.txt	LTP085	ltpFR	16	n/a	1	HAIL	676	n/a	0	n/a	n/a	n/a	n/a	n/a
3469.55	n/a	FFR_REC_WORD	1734775	wordpools/wasnorm_wordpool.txt	LTP085	ltpFR	16	n/a	1	GROCERIES	663	n/a	0	n/a	n/a	n/a	n/a	n/a
3470.622	n/a	FFR_REC_WORD	1735311	wordpools/wasnorm_wordpool.txt	LTP085	ltpFR	16	n/a	1	CASHIER	254	n/a	1	n/a	n/a	n/a	n/a	n/a
3472.958	n/a	FFR_REC_WORD	1736479	wordpools/wasnorm_wordpool.txt	LTP085	ltpFR	16	n/a	1	LAUNDRY	803	n/a	0	n/a	n/a	n/a	n/a	n/a
3484.626	n/a	FFR_REC_WORD	1742313	wordpools/wasnorm_wordpool.txt	LTP085	ltpFR	16	n/a	1	CLIMBER	323	n/a	1	n/a	n/a	n/a	n/a	n/a
3531.632	n/a	REC_START	1765816	n/a	LTP085	ltpFR	16	1	n/a	n/a	n/a	n/a	n/a	n/a	n/a	n/a	n/a	n/a
3531.664	n/a	RECOG_TARGET	1765832	n/a	LTP085	ltpFR	16	1	-1	VIDEO	1564	2	-1	n/a	n/a	n/a	n/a	n/a
3532.92	n/a	RECOG_RESP	1766460	n/a	LTP085	ltpFR	16	1	-1	VIDEO	1564	n/a	-1	n/a	n/a	n/a	n/a	n/a
3533.858	n/a	RECOG_CONF	1766929	n/a	LTP085	ltpFR	16	1	-1	VIDEO	1564	2	-1	n/a	n/a	n/a	n/a	n/a
3535.29	n/a	RECOG_TARGET	1767645	n/a	LTP085	ltpFR	16	1	-1	ZEBRA	1635	4	-1	n/a	n/a	n/a	n/a	n/a
3535.844	n/a	RECOG_RESP	1767922	n/a	LTP085	ltpFR	16	1	-1	ZEBRA	1635	n/a	-1	n/a	n/a	n/a	n/a	n/a
3536.636	n/a	RECOG_CONF	1768318	n/a	LTP085	ltpFR	16	1	-1	ZEBRA	1635	4	-1	n/a	n/a	n/a	n/a	n/a
3538.024	n/a	RECOG_TARGET	1769012	n/a	LTP085	ltpFR	16	1	-1	BUTTER	205	4	-1	n/a	n/a	n/a	n/a	n/a
3538.668	n/a	RECOG_RESP	1769334	n/a	LTP085	ltpFR	16	1	-1	BUTTER	205	n/a	-1	n/a	n/a	n/a	n/a	n/a
3539.346	n/a	RECOG_CONF	1769673	n/a	LTP085	ltpFR	16	1	-1	BUTTER	205	4	-1	n/a	n/a	n/a	n/a	n/a
3540.666	n/a	RECOG_TARGET	1770333	n/a	LTP085	ltpFR	16	1	1	WALNUT	1584	5	0	n/a	n/a	n/a	n/a	n/a
3541.25	n/a	RECOG_RESP	1770625	n/a	LTP085	ltpFR	16	1	1	WALNUT	1584	n/a	0	n/a	n/a	n/a	n/a	n/a
3541.984	n/a	RECOG_CONF	1770992	n/a	LTP085	ltpFR	16	1	1	WALNUT	1584	5	0	n/a	n/a	n/a	n/a	n/a
3543.382	n/a	RECOG_TARGET	1771691	n/a	LTP085	ltpFR	16	1	0	MOOSE	915	5	1	n/a	n/a	n/a	n/a	n/a
3543.954	n/a	RECOG_RESP	1771977	n/a	LTP085	ltpFR	16	1	0	MOOSE	915	n/a	1	n/a	n/a	n/a	n/a	n/a
3544.698	n/a	RECOG_CONF	1772349	n/a	LTP085	ltpFR	16	1	0	MOOSE	915	5	1	n/a	n/a	n/a	n/a	n/a
3546.024	n/a	RECOG_LURE	1773012	n/a	LTP085	ltpFR	16	1	n/a	SERVER	1272	1	n/a	n/a	n/a	n/a	n/a	n/a
3546.71	n/a	RECOG_RESP	1773355	n/a	LTP085	ltpFR	16	1	n/a	SERVER	1272	n/a	n/a	n/a	n/a	n/a	n/a	n/a
3547.398	n/a	RECOG_CONF	1773699	n/a	LTP085	ltpFR	16	1	n/a	SERVER	1272	1	n/a	n/a	n/a	n/a	n/a	n/a
3548.69	n/a	RECOG_TARGET	1774345	n/a	LTP085	ltpFR	16	1	1	MAILBOX	857	2	0	n/a	n/a	n/a	n/a	n/a
3549.272	n/a	RECOG_RESP	1774636	n/a	LTP085	ltpFR	16	1	1	MAILBOX	857	n/a	0	n/a	n/a	n/a	n/a	n/a
3549.956	n/a	RECOG_CONF	1774978	n/a	LTP085	ltpFR	16	1	1	MAILBOX	857	2	0	n/a	n/a	n/a	n/a	n/a
3551.324	n/a	RECOG_TARGET	1775662	n/a	LTP085	ltpFR	16	1	0	CASTLE	256	2	1	n/a	n/a	n/a	n/a	n/a
3551.904	n/a	RECOG_RESP	1775952	n/a	LTP085	ltpFR	16	1	0	CASTLE	256	n/a	1	n/a	n/a	n/a	n/a	n/a
3552.624	n/a	RECOG_CONF	1776312	n/a	LTP085	ltpFR	16	1	0	CASTLE	256	2	1	n/a	n/a	n/a	n/a	n/a
3553.982	n/a	RECOG_TARGET	1776991	n/a	LTP085	ltpFR	16	1	-1	BRUSH	182	3	-1	n/a	n/a	n/a	n/a	n/a
3554.518	n/a	RECOG_RESP	1777259	n/a	LTP085	ltpFR	16	1	-1	BRUSH	182	n/a	-1	n/a	n/a	n/a	n/a	n/a
3555.24	n/a	RECOG_CONF	1777620	n/a	LTP085	ltpFR	16	1	-1	BRUSH	182	3	-1	n/a	n/a	n/a	n/a	n/a
3556.524	n/a	RECOG_LURE	1778262	n/a	LTP085	ltpFR	16	1	n/a	VILLAGE	1566	1	n/a	n/a	n/a	n/a	n/a	n/a
3557.958	n/a	RECOG_RESP	1778979	n/a	LTP085	ltpFR	16	1	n/a	VILLAGE	1566	n/a	n/a	n/a	n/a	n/a	n/a	n/a
3558.684	n/a	RECOG_CONF	1779342	n/a	LTP085	ltpFR	16	1	n/a	VILLAGE	1566	1	n/a	n/a	n/a	n/a	n/a	n/a
3560.074	n/a	RECOG_TARGET	1780037	n/a	LTP085	ltpFR	16	1	1	GULL	671	2	1	n/a	n/a	n/a	n/a	n/a
3560.876	n/a	RECOG_RESP	1780438	n/a	LTP085	ltpFR	16	1	1	GULL	671	n/a	1	n/a	n/a	n/a	n/a	n/a
3561.542	n/a	RECOG_CONF	1780771	n/a	LTP085	ltpFR	16	1	1	GULL	671	2	1	n/a	n/a	n/a	n/a	n/a
3562.824	n/a	RECOG_TARGET	1781412	n/a	LTP085	ltpFR	16	1	0	BATH	98	3	1	n/a	n/a	n/a	n/a	n/a
3563.342	n/a	RECOG_RESP	1781671	n/a	LTP085	ltpFR	16	1	0	BATH	98	n/a	1	n/a	n/a	n/a	n/a	n/a
3564.052	n/a	RECOG_CONF	1782026	n/a	LTP085	ltpFR	16	1	0	BATH	98	3	1	n/a	n/a	n/a	n/a	n/a
3565.332	n/a	RECOG_TARGET	1782666	n/a	LTP085	ltpFR	16	1	0	CHIPMUNK	304	5	0	n/a	n/a	n/a	n/a	n/a
3565.82	n/a	RECOG_RESP	1782910	n/a	LTP085	ltpFR	16	1	0	CHIPMUNK	304	n/a	0	n/a	n/a	n/a	n/a	n/a
3566.54	n/a	RECOG_CONF	1783270	n/a	LTP085	ltpFR	16	1	0	CHIPMUNK	304	5	0	n/a	n/a	n/a	n/a	n/a
3567.848	n/a	RECOG_TARGET	1783924	n/a	LTP085	ltpFR	16	1	-1	MOTH	920	5	-1	n/a	n/a	n/a	n/a	n/a
3568.308	n/a	RECOG_RESP	1784154	n/a	LTP085	ltpFR	16	1	-1	MOTH	920	n/a	-1	n/a	n/a	n/a	n/a	n/a
3568.986	n/a	RECOG_CONF	1784493	n/a	LTP085	ltpFR	16	1	-1	MOTH	920	5	-1	n/a	n/a	n/a	n/a	n/a
3570.314	n/a	RECOG_TARGET	1785157	n/a	LTP085	ltpFR	16	1	1	SWITCH	1422	5	0	n/a	n/a	n/a	n/a	n/a
3570.818	n/a	RECOG_RESP	1785409	n/a	LTP085	ltpFR	16	1	1	SWITCH	1422	n/a	0	n/a	n/a	n/a	n/a	n/a
3571.548	n/a	RECOG_CONF	1785774	n/a	LTP085	ltpFR	16	1	1	SWITCH	1422	5	0	n/a	n/a	n/a	n/a	n/a
3572.874	n/a	RECOG_TARGET	1786437	n/a	LTP085	ltpFR	16	1	0	PELICAN	1039	1	1	n/a	n/a	n/a	n/a	n/a
3573.376	n/a	RECOG_RESP	1786688	n/a	LTP085	ltpFR	16	1	0	PELICAN	1039	n/a	1	n/a	n/a	n/a	n/a	n/a
3574.146	n/a	RECOG_CONF	1787073	n/a	LTP085	ltpFR	16	1	0	PELICAN	1039	1	1	n/a	n/a	n/a	n/a	n/a
3575.532	n/a	RECOG_TARGET	1787766	n/a	LTP085	ltpFR	16	1	-1	TOMATO	1476	4	-1	n/a	n/a	n/a	n/a	n/a
3576.02	n/a	RECOG_RESP	1788010	n/a	LTP085	ltpFR	16	1	-1	TOMATO	1476	n/a	-1	n/a	n/a	n/a	n/a	n/a
3576.654	n/a	RECOG_CONF	1788327	n/a	LTP085	ltpFR	16	1	-1	TOMATO	1476	4	-1	n/a	n/a	n/a	n/a	n/a
3578.066	n/a	RECOG_TARGET	1789033	n/a	LTP085	ltpFR	16	1	0	ROOT	1210	3	0	n/a	n/a	n/a	n/a	n/a
3578.526	n/a	RECOG_RESP	1789263	n/a	LTP085	ltpFR	16	1	0	ROOT	1210	n/a	0	n/a	n/a	n/a	n/a	n/a
3579.228	n/a	RECOG_CONF	1789614	n/a	LTP085	ltpFR	16	1	0	ROOT	1210	3	0	n/a	n/a	n/a	n/a	n/a
3580.556	n/a	RECOG_TARGET	1790278	n/a	LTP085	ltpFR	16	1	1	CREATURE	403	5	1	n/a	n/a	n/a	n/a	n/a
3581.048	n/a	RECOG_RESP	1790524	n/a	LTP085	ltpFR	16	1	1	CREATURE	403	n/a	1	n/a	n/a	n/a	n/a	n/a
3581.708	n/a	RECOG_CONF	1790854	n/a	LTP085	ltpFR	16	1	1	CREATURE	403	5	1	n/a	n/a	n/a	n/a	n/a
3583.006	n/a	RECOG_TARGET	1791503	n/a	LTP085	ltpFR	16	1	-1	SHEPHERD	1283	5	-1	n/a	n/a	n/a	n/a	n/a
3583.574	n/a	RECOG_RESP	1791787	n/a	LTP085	ltpFR	16	1	-1	SHEPHERD	1283	n/a	-1	n/a	n/a	n/a	n/a	n/a
3584.28	n/a	RECOG_CONF	1792140	n/a	LTP085	ltpFR	16	1	-1	SHEPHERD	1283	5	-1	n/a	n/a	n/a	n/a	n/a
3588.266	n/a	REC_START	1794133	n/a	LTP085	ltpFR	16	2	n/a	n/a	n/a	n/a	n/a	n/a	n/a	n/a	n/a	n/a
3588.298	n/a	RECOG_TARGET	1794149	n/a	LTP085	ltpFR	16	2	-1	MULE	931	5	-1	n/a	n/a	n/a	n/a	n/a
3589.122	n/a	RECOG_RESP	1794561	n/a	LTP085	ltpFR	16	2	-1	MULE	931	n/a	-1	n/a	n/a	n/a	n/a	n/a
3589.828	n/a	RECOG_CONF	1794914	n/a	LTP085	ltpFR	16	2	-1	MULE	931	5	-1	n/a	n/a	n/a	n/a	n/a
3591.198	n/a	RECOG_LURE	1795599	n/a	LTP085	ltpFR	16	2	n/a	BUTTERFLY	206	1	n/a	n/a	n/a	n/a	n/a	n/a
3592.262	n/a	RECOG_RESP	1796131	n/a	LTP085	ltpFR	16	2	n/a	BUTTERFLY	206	n/a	n/a	n/a	n/a	n/a	n/a	n/a
3592.966	n/a	RECOG_CONF	1796483	n/a	LTP085	ltpFR	16	2	n/a	BUTTERFLY	206	1	n/a	n/a	n/a	n/a	n/a	n/a
3594.264	n/a	RECOG_TARGET	1797132	n/a	LTP085	ltpFR	16	2	0	CHAIRPERSON	275	2	1	n/a	n/a	n/a	n/a	n/a
3594.948	n/a	RECOG_RESP	1797474	n/a	LTP085	ltpFR	16	2	0	CHAIRPERSON	275	n/a	1	n/a	n/a	n/a	n/a	n/a
3595.598	n/a	RECOG_CONF	1797799	n/a	LTP085	ltpFR	16	2	0	CHAIRPERSON	275	2	1	n/a	n/a	n/a	n/a	n/a
3596.94	n/a	RECOG_TARGET	1798470	n/a	LTP085	ltpFR	16	2	0	NEWSSTAND	949	3	1	n/a	n/a	n/a	n/a	n/a
3597.544	n/a	RECOG_RESP	1798772	n/a	LTP085	ltpFR	16	2	0	NEWSSTAND	949	n/a	1	n/a	n/a	n/a	n/a	n/a
3598.232	n/a	RECOG_CONF	1799116	n/a	LTP085	ltpFR	16	2	0	NEWSSTAND	949	3	1	n/a	n/a	n/a	n/a	n/a
3599.588	n/a	RECOG_LURE	1799794	n/a	LTP085	ltpFR	16	2	n/a	PERFUME	1049	2	n/a	n/a	n/a	n/a	n/a	n/a
3600.184	n/a	RECOG_RESP	1800092	n/a	LTP085	ltpFR	16	2	n/a	PERFUME	1049	n/a	n/a	n/a	n/a	n/a	n/a	n/a
3600.844	n/a	RECOG_CONF	1800422	n/a	LTP085	ltpFR	16	2	n/a	PERFUME	1049	2	n/a	n/a	n/a	n/a	n/a	n/a
3602.214	n/a	RECOG_TARGET	1801107	n/a	LTP085	ltpFR	16	2	-1	SALESMAN	1225	3	-1	n/a	n/a	n/a	n/a	n/a
3602.986	n/a	RECOG_RESP	1801493	n/a	LTP085	ltpFR	16	2	-1	SALESMAN	1225	n/a	-1	n/a	n/a	n/a	n/a	n/a
3603.654	n/a	RECOG_CONF	1801827	n/a	LTP085	ltpFR	16	2	-1	SALESMAN	1225	3	-1	n/a	n/a	n/a	n/a	n/a
3604.956	n/a	RECOG_TARGET	1802478	n/a	LTP085	ltpFR	16	2	0	PIER	1063	2	1	n/a	n/a	n/a	n/a	n/a
3605.558	n/a	RECOG_RESP	1802779	n/a	LTP085	ltpFR	16	2	0	PIER	1063	n/a	1	n/a	n/a	n/a	n/a	n/a
3606.196	n/a	RECOG_CONF	1803098	n/a	LTP085	ltpFR	16	2	0	PIER	1063	2	1	n/a	n/a	n/a	n/a	n/a
3607.522	n/a	RECOG_TARGET	1803761	n/a	LTP085	ltpFR	16	2	-1	KEY	773	2	-1	n/a	n/a	n/a	n/a	n/a
3608.364	n/a	RECOG_RESP	1804182	n/a	LTP085	ltpFR	16	2	-1	KEY	773	n/a	-1	n/a	n/a	n/a	n/a	n/a
3609.018	n/a	RECOG_CONF	1804509	n/a	LTP085	ltpFR	16	2	-1	KEY	773	2	-1	n/a	n/a	n/a	n/a	n/a
3610.338	n/a	RECOG_TARGET	1805169	n/a	LTP085	ltpFR	16	2	-1	BASEBALL	93	3	-1	n/a	n/a	n/a	n/a	n/a
3610.902	n/a	RECOG_RESP	1805451	n/a	LTP085	ltpFR	16	2	-1	BASEBALL	93	n/a	-1	n/a	n/a	n/a	n/a	n/a
3611.602	n/a	RECOG_CONF	1805801	n/a	LTP085	ltpFR	16	2	-1	BASEBALL	93	3	-1	n/a	n/a	n/a	n/a	n/a
3612.864	n/a	RECOG_TARGET	1806432	n/a	LTP085	ltpFR	16	2	1	BRANDY	169	3	0	n/a	n/a	n/a	n/a	n/a
3613.37	n/a	RECOG_RESP	1806685	n/a	LTP085	ltpFR	16	2	1	BRANDY	169	n/a	0	n/a	n/a	n/a	n/a	n/a
3614.05	n/a	RECOG_CONF	1807025	n/a	LTP085	ltpFR	16	2	1	BRANDY	169	3	0	n/a	n/a	n/a	n/a	n/a
3615.388	n/a	RECOG_TARGET	1807694	n/a	LTP085	ltpFR	16	2	1	VAGRANT	1544	4	0	n/a	n/a	n/a	n/a	n/a
3616.108	n/a	RECOG_RESP	1808054	n/a	LTP085	ltpFR	16	2	1	VAGRANT	1544	n/a	0	n/a	n/a	n/a	n/a	n/a
3616.774	n/a	RECOG_CONF	1808387	n/a	LTP085	ltpFR	16	2	1	VAGRANT	1544	4	0	n/a	n/a	n/a	n/a	n/a
3618.13	n/a	RECOG_TARGET	1809065	n/a	LTP085	ltpFR	16	2	0	PUBLISHER	1137	2	1	n/a	n/a	n/a	n/a	n/a
3619.232	n/a	RECOG_RESP	1809616	n/a	LTP085	ltpFR	16	2	0	PUBLISHER	1137	n/a	1	n/a	n/a	n/a	n/a	n/a
3619.886	n/a	RECOG_CONF	1809943	n/a	LTP085	ltpFR	16	2	0	PUBLISHER	1137	2	1	n/a	n/a	n/a	n/a	n/a
3621.248	n/a	RECOG_LURE	1810624	n/a	LTP085	ltpFR	16	2	n/a	VENT	1556	2	n/a	n/a	n/a	n/a	n/a	n/a
3621.878	n/a	RECOG_RESP	1810939	n/a	LTP085	ltpFR	16	2	n/a	VENT	1556	n/a	n/a	n/a	n/a	n/a	n/a	n/a
3622.552	n/a	RECOG_CONF	1811276	n/a	LTP085	ltpFR	16	2	n/a	VENT	1556	2	n/a	n/a	n/a	n/a	n/a	n/a
3623.922	n/a	RECOG_TARGET	1811961	n/a	LTP085	ltpFR	16	2	1	BLUEJAY	141	5	1	n/a	n/a	n/a	n/a	n/a
3624.454	n/a	RECOG_RESP	1812227	n/a	LTP085	ltpFR	16	2	1	BLUEJAY	141	n/a	1	n/a	n/a	n/a	n/a	n/a
3625.12	n/a	RECOG_CONF	1812560	n/a	LTP085	ltpFR	16	2	1	BLUEJAY	141	5	1	n/a	n/a	n/a	n/a	n/a
3626.556	n/a	RECOG_TARGET	1813278	n/a	LTP085	ltpFR	16	2	0	CHIP	303	1	0	n/a	n/a	n/a	n/a	n/a
3627.218	n/a	RECOG_RESP	1813609	n/a	LTP085	ltpFR	16	2	0	CHIP	303	n/a	0	n/a	n/a	n/a	n/a	n/a
3627.862	n/a	RECOG_CONF	1813931	n/a	LTP085	ltpFR	16	2	0	CHIP	303	1	0	n/a	n/a	n/a	n/a	n/a
3629.296	n/a	RECOG_LURE	1814648	n/a	LTP085	ltpFR	16	2	n/a	OAR	966	3	n/a	n/a	n/a	n/a	n/a	n/a
3629.92	n/a	RECOG_RESP	1814960	n/a	LTP085	ltpFR	16	2	n/a	OAR	966	n/a	n/a	n/a	n/a	n/a	n/a	n/a
3630.624	n/a	RECOG_CONF	1815312	n/a	LTP085	ltpFR	16	2	n/a	OAR	966	3	n/a	n/a	n/a	n/a	n/a	n/a
3631.922	n/a	RECOG_TARGET	1815961	n/a	LTP085	ltpFR	16	2	-1	CATCHER	258	4	-1	n/a	n/a	n/a	n/a	n/a
3632.462	n/a	RECOG_RESP	1816231	n/a	LTP085	ltpFR	16	2	-1	CATCHER	258	n/a	-1	n/a	n/a	n/a	n/a	n/a
3633.108	n/a	RECOG_CONF	1816554	n/a	LTP085	ltpFR	16	2	-1	CATCHER	258	4	-1	n/a	n/a	n/a	n/a	n/a
3634.546	n/a	RECOG_TARGET	1817273	n/a	LTP085	ltpFR	16	2	1	HAWK	692	1	1	n/a	n/a	n/a	n/a	n/a
3635.618	n/a	RECOG_RESP	1817809	n/a	LTP085	ltpFR	16	2	1	HAWK	692	n/a	1	n/a	n/a	n/a	n/a	n/a
3636.278	n/a	RECOG_CONF	1818139	n/a	LTP085	ltpFR	16	2	1	HAWK	692	1	1	n/a	n/a	n/a	n/a	n/a
3637.638	n/a	RECOG_TARGET	1818819	n/a	LTP085	ltpFR	16	2	0	CASH	252	5	0	n/a	n/a	n/a	n/a	n/a
3638.21	n/a	RECOG_RESP	1819105	n/a	LTP085	ltpFR	16	2	0	CASH	252	n/a	0	n/a	n/a	n/a	n/a	n/a
3638.9	n/a	RECOG_CONF	1819450	n/a	LTP085	ltpFR	16	2	0	CASH	252	5	0	n/a	n/a	n/a	n/a	n/a
3640.196	n/a	RECOG_TARGET	1820098	n/a	LTP085	ltpFR	16	2	0	SAPPHIRE	1234	5	0	n/a	n/a	n/a	n/a	n/a
3640.744	n/a	RECOG_RESP	1820372	n/a	LTP085	ltpFR	16	2	0	SAPPHIRE	1234	n/a	0	n/a	n/a	n/a	n/a	n/a
3641.434	n/a	RECOG_CONF	1820717	n/a	LTP085	ltpFR	16	2	0	SAPPHIRE	1234	5	0	n/a	n/a	n/a	n/a	n/a
3644.538	n/a	REC_START	1822269	n/a	LTP085	ltpFR	16	3	n/a	n/a	n/a	n/a	n/a	n/a	n/a	n/a	n/a	n/a
3644.572	n/a	RECOG_LURE	1822286	n/a	LTP085	ltpFR	16	3	n/a	COB	334	3	n/a	n/a	n/a	n/a	n/a	n/a
3645.106	n/a	RECOG_RESP	1822553	n/a	LTP085	ltpFR	16	3	n/a	COB	334	n/a	n/a	n/a	n/a	n/a	n/a	n/a
3645.784	n/a	RECOG_CONF	1822892	n/a	LTP085	ltpFR	16	3	n/a	COB	334	3	n/a	n/a	n/a	n/a	n/a	n/a
3647.23	n/a	RECOG_TARGET	1823615	n/a	LTP085	ltpFR	16	3	-1	WHIP	1604	3	-1	n/a	n/a	n/a	n/a	n/a
3647.916	n/a	RECOG_RESP	1823958	n/a	LTP085	ltpFR	16	3	-1	WHIP	1604	n/a	-1	n/a	n/a	n/a	n/a	n/a
3648.57	n/a	RECOG_CONF	1824285	n/a	LTP085	ltpFR	16	3	-1	WHIP	1604	3	-1	n/a	n/a	n/a	n/a	n/a
3650.004	n/a	RECOG_TARGET	1825002	n/a	LTP085	ltpFR	16	3	1	STEM	1376	3	0	n/a	n/a	n/a	n/a	n/a
3650.566	n/a	RECOG_RESP	1825283	n/a	LTP085	ltpFR	16	3	1	STEM	1376	n/a	0	n/a	n/a	n/a	n/a	n/a
3651.262	n/a	RECOG_CONF	1825631	n/a	LTP085	ltpFR	16	3	1	STEM	1376	3	0	n/a	n/a	n/a	n/a	n/a
3652.612	n/a	RECOG_TARGET	1826306	n/a	LTP085	ltpFR	16	3	0	FIG	563	2	0	n/a	n/a	n/a	n/a	n/a
3653.232	n/a	RECOG_RESP	1826616	n/a	LTP085	ltpFR	16	3	0	FIG	563	n/a	0	n/a	n/a	n/a	n/a	n/a
3653.91	n/a	RECOG_CONF	1826955	n/a	LTP085	ltpFR	16	3	0	FIG	563	2	0	n/a	n/a	n/a	n/a	n/a
3655.28	n/a	RECOG_TARGET	1827640	n/a	LTP085	ltpFR	16	3	1	PLANE	1081	4	0	n/a	n/a	n/a	n/a	n/a
3655.77	n/a	RECOG_RESP	1827885	n/a	LTP085	ltpFR	16	3	1	PLANE	1081	n/a	0	n/a	n/a	n/a	n/a	n/a
3656.418	n/a	RECOG_CONF	1828209	n/a	LTP085	ltpFR	16	3	1	PLANE	1081	4	0	n/a	n/a	n/a	n/a	n/a
3657.78	n/a	RECOG_TARGET	1828890	n/a	LTP085	ltpFR	16	3	0	STRAW	1390	3	0	n/a	n/a	n/a	n/a	n/a
3658.348	n/a	RECOG_RESP	1829174	n/a	LTP085	ltpFR	16	3	0	STRAW	1390	n/a	0	n/a	n/a	n/a	n/a	n/a
3659.004	n/a	RECOG_CONF	1829502	n/a	LTP085	ltpFR	16	3	0	STRAW	1390	3	0	n/a	n/a	n/a	n/a	n/a
3660.322	n/a	RECOG_TARGET	1830161	n/a	LTP085	ltpFR	16	3	1	REPORT	1184	4	0	n/a	n/a	n/a	n/a	n/a
3661.06	n/a	RECOG_RESP	1830530	n/a	LTP085	ltpFR	16	3	1	REPORT	1184	n/a	0	n/a	n/a	n/a	n/a	n/a
3661.844	n/a	RECOG_CONF	1830922	n/a	LTP085	ltpFR	16	3	1	REPORT	1184	4	0	n/a	n/a	n/a	n/a	n/a
3663.112	n/a	RECOG_LURE	1831556	n/a	LTP085	ltpFR	16	3	n/a	CAMEL	223	3	n/a	n/a	n/a	n/a	n/a	n/a
3663.724	n/a	RECOG_RESP	1831862	n/a	LTP085	ltpFR	16	3	n/a	CAMEL	223	n/a	n/a	n/a	n/a	n/a	n/a	n/a
3664.392	n/a	RECOG_CONF	1832196	n/a	LTP085	ltpFR	16	3	n/a	CAMEL	223	3	n/a	n/a	n/a	n/a	n/a	n/a
3665.77	n/a	RECOG_TARGET	1832885	n/a	LTP085	ltpFR	16	3	1	PUPPY	1144	4	1	n/a	n/a	n/a	n/a	n/a
3666.318	n/a	RECOG_RESP	1833159	n/a	LTP085	ltpFR	16	3	1	PUPPY	1144	n/a	1	n/a	n/a	n/a	n/a	n/a
3666.948	n/a	RECOG_CONF	1833474	n/a	LTP085	ltpFR	16	3	1	PUPPY	1144	4	1	n/a	n/a	n/a	n/a	n/a
3668.296	n/a	RECOG_TARGET	1834148	n/a	LTP085	ltpFR	16	3	-1	SCOTCH	1251	4	-1	n/a	n/a	n/a	n/a	n/a
3668.852	n/a	RECOG_RESP	1834426	n/a	LTP085	ltpFR	16	3	-1	SCOTCH	1251	n/a	-1	n/a	n/a	n/a	n/a	n/a
3669.528	n/a	RECOG_CONF	1834764	n/a	LTP085	ltpFR	16	3	-1	SCOTCH	1251	4	-1	n/a	n/a	n/a	n/a	n/a
3670.796	n/a	RECOG_LURE	1835398	n/a	LTP085	ltpFR	16	3	n/a	CARTON	251	3	n/a	n/a	n/a	n/a	n/a	n/a
3671.456	n/a	RECOG_RESP	1835728	n/a	LTP085	ltpFR	16	3	n/a	CARTON	251	n/a	n/a	n/a	n/a	n/a	n/a	n/a
3672.124	n/a	RECOG_CONF	1836062	n/a	LTP085	ltpFR	16	3	n/a	CARTON	251	3	n/a	n/a	n/a	n/a	n/a	n/a
3673.462	n/a	RECOG_LURE	1836731	n/a	LTP085	ltpFR	16	3	n/a	LAMP	798	1	n/a	n/a	n/a	n/a	n/a	n/a
3674.132	n/a	RECOG_RESP	1837066	n/a	LTP085	ltpFR	16	3	n/a	LAMP	798	n/a	n/a	n/a	n/a	n/a	n/a	n/a
3674.766	n/a	RECOG_CONF	1837383	n/a	LTP085	ltpFR	16	3	n/a	LAMP	798	1	n/a	n/a	n/a	n/a	n/a	n/a
3676.104	n/a	RECOG_TARGET	1838052	n/a	LTP085	ltpFR	16	3	1	CRAB	397	1	1	n/a	n/a	n/a	n/a	n/a
3676.788	n/a	RECOG_RESP	1838394	n/a	LTP085	ltpFR	16	3	1	CRAB	397	n/a	1	n/a	n/a	n/a	n/a	n/a
3677.428	n/a	RECOG_CONF	1838714	n/a	LTP085	ltpFR	16	3	1	CRAB	397	1	1	n/a	n/a	n/a	n/a	n/a
3678.788	n/a	RECOG_TARGET	1839394	n/a	LTP085	ltpFR	16	3	-1	DIARY	460	3	-1	n/a	n/a	n/a	n/a	n/a
3679.334	n/a	RECOG_RESP	1839667	n/a	LTP085	ltpFR	16	3	-1	DIARY	460	n/a	-1	n/a	n/a	n/a	n/a	n/a
3680.006	n/a	RECOG_CONF	1840003	n/a	LTP085	ltpFR	16	3	-1	DIARY	460	3	-1	n/a	n/a	n/a	n/a	n/a
3681.362	n/a	RECOG_LURE	1840681	n/a	LTP085	ltpFR	16	3	n/a	DOLLAR	482	1	n/a	n/a	n/a	n/a	n/a	n/a
3681.846	n/a	RECOG_RESP	1840923	n/a	LTP085	ltpFR	16	3	n/a	DOLLAR	482	n/a	n/a	n/a	n/a	n/a	n/a	n/a
3682.518	n/a	RECOG_CONF	1841259	n/a	LTP085	ltpFR	16	3	n/a	DOLLAR	482	1	n/a	n/a	n/a	n/a	n/a	n/a
3683.854	n/a	RECOG_TARGET	1841927	n/a	LTP085	ltpFR	16	3	1	MICROSCOPE	891	2	0	n/a	n/a	n/a	n/a	n/a
3684.534	n/a	RECOG_RESP	1842267	n/a	LTP085	ltpFR	16	3	1	MICROSCOPE	891	n/a	0	n/a	n/a	n/a	n/a	n/a
3685.174	n/a	RECOG_CONF	1842587	n/a	LTP085	ltpFR	16	3	1	MICROSCOPE	891	2	0	n/a	n/a	n/a	n/a	n/a
3686.562	n/a	RECOG_TARGET	1843281	n/a	LTP085	ltpFR	16	3	1	DRIVER	499	3	1	n/a	n/a	n/a	n/a	n/a
3687.056	n/a	RECOG_RESP	1843528	n/a	LTP085	ltpFR	16	3	1	DRIVER	499	n/a	1	n/a	n/a	n/a	n/a	n/a
3687.832	n/a	RECOG_CONF	1843916	n/a	LTP085	ltpFR	16	3	1	DRIVER	499	3	1	n/a	n/a	n/a	n/a	n/a
3689.162	n/a	RECOG_TARGET	1844581	n/a	LTP085	ltpFR	16	3	1	BUNNY	198	4	1	n/a	n/a	n/a	n/a	n/a
3689.682	n/a	RECOG_RESP	1844841	n/a	LTP085	ltpFR	16	3	1	BUNNY	198	n/a	1	n/a	n/a	n/a	n/a	n/a
3690.342	n/a	RECOG_CONF	1845171	n/a	LTP085	ltpFR	16	3	1	BUNNY	198	4	1	n/a	n/a	n/a	n/a	n/a
3691.686	n/a	RECOG_TARGET	1845843	n/a	LTP085	ltpFR	16	3	0	FLESH	579	3	0	n/a	n/a	n/a	n/a	n/a
3692.328	n/a	RECOG_RESP	1846164	n/a	LTP085	ltpFR	16	3	0	FLESH	579	n/a	0	n/a	n/a	n/a	n/a	n/a
3692.982	n/a	RECOG_CONF	1846491	n/a	LTP085	ltpFR	16	3	0	FLESH	579	3	0	n/a	n/a	n/a	n/a	n/a
3694.32	n/a	RECOG_TARGET	1847160	n/a	LTP085	ltpFR	16	3	1	PANTS	1010	3	0	n/a	n/a	n/a	n/a	n/a
3694.868	n/a	RECOG_RESP	1847434	n/a	LTP085	ltpFR	16	3	1	PANTS	1010	n/a	0	n/a	n/a	n/a	n/a	n/a
3695.524	n/a	RECOG_CONF	1847762	n/a	LTP085	ltpFR	16	3	1	PANTS	1010	3	0	n/a	n/a	n/a	n/a	n/a
3702.27	n/a	REC_START	1851135	n/a	LTP085	ltpFR	16	4	n/a	n/a	n/a	n/a	n/a	n/a	n/a	n/a	n/a	n/a
