mstime	trial_type	stim_file	subject	experiment	session	trial	task	item_name	item_num	recog_resp	recog_conf	resp	color_r	color_g	color_b	case	font
0	SESS_START	n/a	LTP150	ltpFR	18	n/a	n/a	n/a	n/a	1	1	n/a	n/a	n/a	n/a	n/a	n/a
36437	WORD	wordpools/wasnorm_wordpool.txt	LTP150	ltpFR	18	1	0	OTTER	986	0	n/a	1	0.422607421875	0.5869140625	0	lower	zerothre.ttf
40618	WORD	wordpools/wasnorm_wordpool.txt	LTP150	ltpFR	18	1	0	HUMAN	726	n/a	n/a	1	0.422607421875	0.5869140625	0	lower	zerothre.ttf
44642	WORD	wordpools/wasnorm_wordpool.txt	LTP150	ltpFR	18	1	0	LETTUCE	814	n/a	n/a	0	0.422607421875	0.5869140625	0	lower	zerothre.ttf
48716	WORD	wordpools/wasnorm_wordpool.txt	LTP150	ltpFR	18	1	0	UNDERWEAR	1537	n/a	n/a	0	0.422607421875	0.5869140625	0	lower	zerothre.ttf
52855	WORD	wordpools/wasnorm_wordpool.txt	LTP150	ltpFR	18	1	1	PUDDLE	1140	n/a	n/a	0	0.57763671875	0.412841796875	1	upper	amplitud.ttf
56853	WORD	wordpools/wasnorm_wordpool.txt	LTP150	ltpFR	18	1	1	HAIL	676	n/a	n/a	0	0.57763671875	0.412841796875	1	upper	amplitud.ttf
60744	WORD	wordpools/wasnorm_wordpool.txt	LTP150	ltpFR	18	1	1	NECK	939	n/a	n/a	0	0.57763671875	0.412841796875	1	upper	amplitud.ttf
64568	WORD	wordpools/wasnorm_wordpool.txt	LTP150	ltpFR	18	1	1	DORM	488	n/a	n/a	1	0.57763671875	0.412841796875	1	upper	amplitud.ttf
68442	WORD	wordpools/wasnorm_wordpool.txt	LTP150	ltpFR	18	1	1	CLOSET	326	n/a	n/a	0	0.57763671875	0.412841796875	1	upper	amplitud.ttf
72474	WORD	wordpools/wasnorm_wordpool.txt	LTP150	ltpFR	18	1	0	PICTURE	1061	n/a	n/a	0	0.422607421875	0.5869140625	0	lower	zerothre.ttf
76439	WORD	wordpools/wasnorm_wordpool.txt	LTP150	ltpFR	18	1	0	SHORTCAKE	1292	n/a	n/a	0	0.422607421875	0.5869140625	0	lower	zerothre.ttf
80463	WORD	wordpools/wasnorm_wordpool.txt	LTP150	ltpFR	18	1	0	TWIN	1528	n/a	n/a	0	0.422607421875	0.5869140625	0	lower	zerothre.ttf
84495	WORD	wordpools/wasnorm_wordpool.txt	LTP150	ltpFR	18	1	0	SISTER	1312	n/a	n/a	1	0.422607421875	0.5869140625	0	lower	zerothre.ttf
88518	WORD	wordpools/wasnorm_wordpool.txt	LTP150	ltpFR	18	1	1	NECKLACE	940	n/a	n/a	0	0.57763671875	0.412841796875	1	upper	amplitud.ttf
92342	WORD	wordpools/wasnorm_wordpool.txt	LTP150	ltpFR	18	1	1	PRIMATE	1123	n/a	n/a	1	0.57763671875	0.412841796875	1	upper	amplitud.ttf
96532	WORD	wordpools/wasnorm_wordpool.txt	LTP150	ltpFR	18	1	1	INN	739	n/a	n/a	0	0.57763671875	0.412841796875	1	upper	amplitud.ttf
102264	REC_START	n/a	LTP150	ltpFR	18	1	n/a	n/a	n/a	n/a	n/a	n/a	n/a	n/a	n/a	n/a	n/a
103671	REC_WORD	wordpools/wasnorm_wordpool.txt	LTP150	ltpFR	18	1	1	NECKLACE	940	n/a	n/a	0	n/a	n/a	n/a	n/a	n/a
104768	REC_WORD	wordpools/wasnorm_wordpool.txt	LTP150	ltpFR	18	1	1	PRIMATE	1123	n/a	n/a	1	n/a	n/a	n/a	n/a	n/a
106105	REC_WORD	wordpools/wasnorm_wordpool.txt	LTP150	ltpFR	18	1	1	INN	739	n/a	n/a	0	n/a	n/a	n/a	n/a	n/a
107188	REC_WORD	wordpools/wasnorm_wordpool.txt	LTP150	ltpFR	18	1	0	SISTER	1312	n/a	n/a	1	n/a	n/a	n/a	n/a	n/a
108669	REC_WORD	wordpools/wasnorm_wordpool.txt	LTP150	ltpFR	18	1	0	TWIN	1528	n/a	n/a	0	n/a	n/a	n/a	n/a	n/a
109986	REC_WORD	wordpools/wasnorm_wordpool.txt	LTP150	ltpFR	18	1	0	PICTURE	1061	n/a	n/a	0	n/a	n/a	n/a	n/a	n/a
111393	REC_WORD	wordpools/wasnorm_wordpool.txt	LTP150	ltpFR	18	1	1	CLOSET	326	n/a	n/a	0	n/a	n/a	n/a	n/a	n/a
112740	REC_WORD	wordpools/wasnorm_wordpool.txt	LTP150	ltpFR	18	1	1	DORM	488	n/a	n/a	1	n/a	n/a	n/a	n/a	n/a
113907	REC_WORD	wordpools/wasnorm_wordpool.txt	LTP150	ltpFR	18	1	1	PUDDLE	1140	n/a	n/a	0	n/a	n/a	n/a	n/a	n/a
115075	REC_WORD	wordpools/wasnorm_wordpool.txt	LTP150	ltpFR	18	1	1	HAIL	676	n/a	n/a	0	n/a	n/a	n/a	n/a	n/a
116352	REC_WORD	wordpools/wasnorm_wordpool.txt	LTP150	ltpFR	18	1	1	NECK	939	n/a	n/a	0	n/a	n/a	n/a	n/a	n/a
120767	REC_WORD	wordpools/wasnorm_wordpool.txt	LTP150	ltpFR	18	1	0	OTTER	986	n/a	n/a	1	n/a	n/a	n/a	n/a	n/a
121939	REC_WORD	wordpools/wasnorm_wordpool.txt	LTP150	ltpFR	18	1	0	HUMAN	726	n/a	n/a	1	n/a	n/a	n/a	n/a	n/a
123825	REC_WORD	wordpools/wasnorm_wordpool.txt	LTP150	ltpFR	18	1	0	LETTUCE	814	n/a	n/a	0	n/a	n/a	n/a	n/a	n/a
125242	REC_WORD	wordpools/wasnorm_wordpool.txt	LTP150	ltpFR	18	1	0	UNDERWEAR	1537	n/a	n/a	0	n/a	n/a	n/a	n/a	n/a
180410	WORD	wordpools/wasnorm_wordpool.txt	LTP150	ltpFR	18	2	1	TERMITE	1451	n/a	n/a	1	0.57763671875	0.412841796875	1	upper	amplitud.ttf
184459	WORD	wordpools/wasnorm_wordpool.txt	LTP150	ltpFR	18	2	1	TURKEY	1520	n/a	n/a	1	0.57763671875	0.412841796875	1	upper	amplitud.ttf
188524	WORD	wordpools/wasnorm_wordpool.txt	LTP150	ltpFR	18	2	1	LOBSTER	837	n/a	n/a	1	0.57763671875	0.412841796875	1	upper	amplitud.ttf
192481	WORD	wordpools/wasnorm_wordpool.txt	LTP150	ltpFR	18	2	0	CASKET	255	n/a	n/a	1	0.422607421875	0.5869140625	0	lower	zerothre.ttf
196546	WORD	wordpools/wasnorm_wordpool.txt	LTP150	ltpFR	18	2	0	SKULL	1320	n/a	n/a	1	0.422607421875	0.5869140625	0	lower	zerothre.ttf
200395	WORD	wordpools/wasnorm_wordpool.txt	LTP150	ltpFR	18	2	0	FOREHEAD	592	n/a	n/a	0	0.422607421875	0.5869140625	0	lower	zerothre.ttf
204252	WORD	wordpools/wasnorm_wordpool.txt	LTP150	ltpFR	18	2	0	FACE	547	n/a	n/a	0	0.422607421875	0.5869140625	0	lower	zerothre.ttf
208142	WORD	wordpools/wasnorm_wordpool.txt	LTP150	ltpFR	18	2	0	GROCERIES	663	n/a	n/a	1	0.422607421875	0.5869140625	0	lower	zerothre.ttf
212015	WORD	wordpools/wasnorm_wordpool.txt	LTP150	ltpFR	18	2	0	PRODUCER	1129	n/a	n/a	1	0.422607421875	0.5869140625	0	lower	zerothre.ttf
216098	WORD	wordpools/wasnorm_wordpool.txt	LTP150	ltpFR	18	2	1	EMPIRE	530	n/a	n/a	0	0.57763671875	0.412841796875	1	upper	amplitud.ttf
220071	WORD	wordpools/wasnorm_wordpool.txt	LTP150	ltpFR	18	2	1	PLATE	1086	n/a	n/a	0	0.57763671875	0.412841796875	1	upper	amplitud.ttf
223902	WORD	wordpools/wasnorm_wordpool.txt	LTP150	ltpFR	18	2	1	SUPERMARKET	1409	n/a	n/a	1	0.57763671875	0.412841796875	1	upper	amplitud.ttf
228068	WORD	wordpools/wasnorm_wordpool.txt	LTP150	ltpFR	18	2	1	WAND	1586	n/a	n/a	0	0.57763671875	0.412841796875	1	upper	amplitud.ttf
232117	WORD	wordpools/wasnorm_wordpool.txt	LTP150	ltpFR	18	2	1	NET	946	n/a	n/a	0	0.57763671875	0.412841796875	1	upper	amplitud.ttf
236274	WORD	wordpools/wasnorm_wordpool.txt	LTP150	ltpFR	18	2	0	CRUMB	416	n/a	n/a	0	0.422607421875	0.5869140625	0	lower	zerothre.ttf
240281	WORD	wordpools/wasnorm_wordpool.txt	LTP150	ltpFR	18	2	0	FLY	586	n/a	n/a	0	0.422607421875	0.5869140625	0	lower	zerothre.ttf
246163	REC_START	n/a	LTP150	ltpFR	18	2	n/a	n/a	n/a	n/a	n/a	n/a	n/a	n/a	n/a	n/a	n/a
246687	REC_WORD	wordpools/wasnorm_wordpool.txt	LTP150	ltpFR	18	2	0	CRUMB	416	n/a	n/a	0	n/a	n/a	n/a	n/a	n/a
247948	REC_WORD	wordpools/wasnorm_wordpool.txt	LTP150	ltpFR	18	2	0	FLY	586	n/a	n/a	0	n/a	n/a	n/a	n/a	n/a
249695	REC_WORD	wordpools/wasnorm_wordpool.txt	LTP150	ltpFR	18	2	1	NET	946	n/a	n/a	0	n/a	n/a	n/a	n/a	n/a
251536	REC_WORD	wordpools/wasnorm_wordpool.txt	LTP150	ltpFR	18	2	1	WAND	1586	n/a	n/a	0	n/a	n/a	n/a	n/a	n/a
253162	REC_WORD	wordpools/wasnorm_wordpool.txt	LTP150	ltpFR	18	2	1	SUPERMARKET	1409	n/a	n/a	1	n/a	n/a	n/a	n/a	n/a
270991	REC_WORD	wordpools/wasnorm_wordpool.txt	LTP150	ltpFR	18	2	0	PRODUCER	1129	n/a	n/a	1	n/a	n/a	n/a	n/a	n/a
272328	REC_WORD	wordpools/wasnorm_wordpool.txt	LTP150	ltpFR	18	2	1	EMPIRE	530	n/a	n/a	0	n/a	n/a	n/a	n/a	n/a
273660	REC_WORD	wordpools/wasnorm_wordpool.txt	LTP150	ltpFR	18	2	1	PLATE	1086	n/a	n/a	0	n/a	n/a	n/a	n/a	n/a
276963	REC_WORD	wordpools/wasnorm_wordpool.txt	LTP150	ltpFR	18	2	0	CASKET	255	n/a	n/a	1	n/a	n/a	n/a	n/a	n/a
277666	REC_WORD	wordpools/wasnorm_wordpool.txt	LTP150	ltpFR	18	2	0	SKULL	1320	n/a	n/a	1	n/a	n/a	n/a	n/a	n/a
278305	REC_WORD	wordpools/wasnorm_wordpool.txt	LTP150	ltpFR	18	2	0	FOREHEAD	592	n/a	n/a	0	n/a	n/a	n/a	n/a	n/a
279202	REC_WORD	wordpools/wasnorm_wordpool.txt	LTP150	ltpFR	18	2	0	FACE	547	n/a	n/a	0	n/a	n/a	n/a	n/a	n/a
282535	REC_WORD	wordpools/wasnorm_wordpool.txt	LTP150	ltpFR	18	2	0	OTTER	986	n/a	n/a	1	n/a	n/a	n/a	n/a	n/a
286282	REC_WORD	wordpools/wasnorm_wordpool.txt	LTP150	ltpFR	18	2	1	NECKLACE	940	n/a	n/a	0	n/a	n/a	n/a	n/a	n/a
293076	REC_WORD	wordpools/wasnorm_wordpool.txt	LTP150	ltpFR	18	2	1	LOBSTER	837	n/a	n/a	1	n/a	n/a	n/a	n/a	n/a
294209	REC_WORD	wordpools/wasnorm_wordpool.txt	LTP150	ltpFR	18	2	1	TERMITE	1451	n/a	n/a	1	n/a	n/a	n/a	n/a	n/a
301876	REC_WORD	wordpools/wasnorm_wordpool.txt	LTP150	ltpFR	18	2	1	TURKEY	1520	n/a	n/a	1	n/a	n/a	n/a	n/a	n/a
309599	REC_WORD	wordpools/wasnorm_wordpool.txt	LTP150	ltpFR	18	2	0	GROCERIES	663	n/a	n/a	1	n/a	n/a	n/a	n/a	n/a
324351	WORD	wordpools/wasnorm_wordpool.txt	LTP150	ltpFR	18	3	1	GLACIER	638	n/a	n/a	0	0.57763671875	0.412841796875	1	upper	amplitud.ttf
328216	WORD	wordpools/wasnorm_wordpool.txt	LTP150	ltpFR	18	3	1	ATOM	55	n/a	n/a	0	0.57763671875	0.412841796875	1	upper	amplitud.ttf
332030	WORD	wordpools/wasnorm_wordpool.txt	LTP150	ltpFR	18	3	1	STRAW	1390	n/a	n/a	0	0.57763671875	0.412841796875	1	upper	amplitud.ttf
335954	WORD	wordpools/wasnorm_wordpool.txt	LTP150	ltpFR	18	3	1	BARTENDER	92	n/a	n/a	1	0.57763671875	0.412841796875	1	upper	amplitud.ttf
339794	WORD	wordpools/wasnorm_wordpool.txt	LTP150	ltpFR	18	3	1	WOUND	1624	n/a	n/a	0	0.57763671875	0.412841796875	1	upper	amplitud.ttf
343669	WORD	wordpools/wasnorm_wordpool.txt	LTP150	ltpFR	18	3	1	KNIFE	785	n/a	n/a	0	0.57763671875	0.412841796875	1	upper	amplitud.ttf
347750	WORD	wordpools/wasnorm_wordpool.txt	LTP150	ltpFR	18	3	1	DINOSAUR	469	n/a	n/a	1	0.57763671875	0.412841796875	1	upper	amplitud.ttf
351740	WORD	wordpools/wasnorm_wordpool.txt	LTP150	ltpFR	18	3	1	SERGEANT	1269	n/a	n/a	1	0.57763671875	0.412841796875	1	upper	amplitud.ttf
355889	WORD	wordpools/wasnorm_wordpool.txt	LTP150	ltpFR	18	3	1	COMMANDER	354	n/a	n/a	1	0.57763671875	0.412841796875	1	upper	amplitud.ttf
359837	WORD	wordpools/wasnorm_wordpool.txt	LTP150	ltpFR	18	3	1	UNIVERSE	1540	n/a	n/a	1	0.57763671875	0.412841796875	1	upper	amplitud.ttf
364019	WORD	wordpools/wasnorm_wordpool.txt	LTP150	ltpFR	18	3	1	ELECTRON	522	n/a	n/a	0	0.57763671875	0.412841796875	1	upper	amplitud.ttf
368102	WORD	wordpools/wasnorm_wordpool.txt	LTP150	ltpFR	18	3	1	BRAN	167	n/a	n/a	0	0.57763671875	0.412841796875	1	upper	amplitud.ttf
372225	WORD	wordpools/wasnorm_wordpool.txt	LTP150	ltpFR	18	3	1	JUPITER	765	n/a	n/a	0	0.57763671875	0.412841796875	1	upper	amplitud.ttf
376349	WORD	wordpools/wasnorm_wordpool.txt	LTP150	ltpFR	18	3	1	SHUTTER	1300	n/a	n/a	0	0.57763671875	0.412841796875	1	upper	amplitud.ttf
380348	WORD	wordpools/wasnorm_wordpool.txt	LTP150	ltpFR	18	3	1	PEN	1041	n/a	n/a	0	0.57763671875	0.412841796875	1	upper	amplitud.ttf
384363	WORD	wordpools/wasnorm_wordpool.txt	LTP150	ltpFR	18	3	1	CHAMBER	277	n/a	n/a	0	0.57763671875	0.412841796875	1	upper	amplitud.ttf
390228	REC_START	n/a	LTP150	ltpFR	18	3	n/a	n/a	n/a	n/a	n/a	n/a	n/a	n/a	n/a	n/a	n/a
391255	REC_WORD	wordpools/wasnorm_wordpool.txt	LTP150	ltpFR	18	3	1	SHUTTER	1300	n/a	n/a	0	n/a	n/a	n/a	n/a	n/a
392393	REC_WORD	wordpools/wasnorm_wordpool.txt	LTP150	ltpFR	18	3	1	PEN	1041	n/a	n/a	0	n/a	n/a	n/a	n/a	n/a
393391	REC_WORD	wordpools/wasnorm_wordpool.txt	LTP150	ltpFR	18	3	1	CHAMBER	277	n/a	n/a	0	n/a	n/a	n/a	n/a	n/a
396075	REC_WORD	wordpools/wasnorm_wordpool.txt	LTP150	ltpFR	18	3	1	DINOSAUR	469	n/a	n/a	1	n/a	n/a	n/a	n/a	n/a
396774	REC_WORD	wordpools/wasnorm_wordpool.txt	LTP150	ltpFR	18	3	1	SERGEANT	1269	n/a	n/a	1	n/a	n/a	n/a	n/a	n/a
397726	REC_WORD	wordpools/wasnorm_wordpool.txt	LTP150	ltpFR	18	3	1	COMMANDER	354	n/a	n/a	1	n/a	n/a	n/a	n/a	n/a
398908	REC_WORD	wordpools/wasnorm_wordpool.txt	LTP150	ltpFR	18	3	1	UNIVERSE	1540	n/a	n/a	1	n/a	n/a	n/a	n/a	n/a
402116	REC_WORD	wordpools/wasnorm_wordpool.txt	LTP150	ltpFR	18	3	1	ELECTRON	522	n/a	n/a	0	n/a	n/a	n/a	n/a	n/a
403642	REC_WORD	wordpools/wasnorm_wordpool.txt	LTP150	ltpFR	18	3	1	BRAN	167	n/a	n/a	0	n/a	n/a	n/a	n/a	n/a
404680	REC_WORD	wordpools/wasnorm_wordpool.txt	LTP150	ltpFR	18	3	1	JUPITER	765	n/a	n/a	0	n/a	n/a	n/a	n/a	n/a
408900	REC_WORD	wordpools/wasnorm_wordpool.txt	LTP150	ltpFR	18	3	1	GLACIER	638	n/a	n/a	0	n/a	n/a	n/a	n/a	n/a
410332	REC_WORD	wordpools/wasnorm_wordpool.txt	LTP150	ltpFR	18	3	1	ATOM	55	n/a	n/a	0	n/a	n/a	n/a	n/a	n/a
411350	REC_WORD	wordpools/wasnorm_wordpool.txt	LTP150	ltpFR	18	3	1	STRAW	1390	n/a	n/a	0	n/a	n/a	n/a	n/a	n/a
412687	REC_WORD	wordpools/wasnorm_wordpool.txt	LTP150	ltpFR	18	3	1	BARTENDER	92	n/a	n/a	1	n/a	n/a	n/a	n/a	n/a
414667	REC_WORD	wordpools/wasnorm_wordpool.txt	LTP150	ltpFR	18	3	1	WOUND	1624	n/a	n/a	0	n/a	n/a	n/a	n/a	n/a
415680	REC_WORD	wordpools/wasnorm_wordpool.txt	LTP150	ltpFR	18	3	1	KNIFE	785	n/a	n/a	0	n/a	n/a	n/a	n/a	n/a
468525	WORD	wordpools/wasnorm_wordpool.txt	LTP150	ltpFR	18	4	0	SUIT	1402	n/a	n/a	0	0.422607421875	0.5869140625	0	lower	zerothre.ttf
472656	WORD	wordpools/wasnorm_wordpool.txt	LTP150	ltpFR	18	4	0	HOOP	716	n/a	n/a	0	0.422607421875	0.5869140625	0	lower	zerothre.ttf
476638	WORD	wordpools/wasnorm_wordpool.txt	LTP150	ltpFR	18	4	0	VIRUS	1572	n/a	n/a	0	0.422607421875	0.5869140625	0	lower	zerothre.ttf
480852	WORD	wordpools/wasnorm_wordpool.txt	LTP150	ltpFR	18	4	0	PEARL	1034	n/a	n/a	0	0.422607421875	0.5869140625	0	lower	zerothre.ttf
484677	WORD	wordpools/wasnorm_wordpool.txt	LTP150	ltpFR	18	4	0	LEAF	808	n/a	n/a	0	0.422607421875	0.5869140625	0	lower	zerothre.ttf
488559	WORD	wordpools/wasnorm_wordpool.txt	LTP150	ltpFR	18	4	0	FROST	609	n/a	n/a	0	0.422607421875	0.5869140625	0	lower	zerothre.ttf
492458	WORD	wordpools/wasnorm_wordpool.txt	LTP150	ltpFR	18	4	0	SMOG	1330	n/a	n/a	0	0.422607421875	0.5869140625	0	lower	zerothre.ttf
496448	WORD	wordpools/wasnorm_wordpool.txt	LTP150	ltpFR	18	4	0	FREEWAY	603	n/a	n/a	1	0.422607421875	0.5869140625	0	lower	zerothre.ttf
500513	WORD	wordpools/wasnorm_wordpool.txt	LTP150	ltpFR	18	4	0	TRUCK	1512	n/a	n/a	1	0.422607421875	0.5869140625	0	lower	zerothre.ttf
504528	WORD	wordpools/wasnorm_wordpool.txt	LTP150	ltpFR	18	4	0	SQUIRREL	1362	n/a	n/a	1	0.422607421875	0.5869140625	0	lower	zerothre.ttf
508585	WORD	wordpools/wasnorm_wordpool.txt	LTP150	ltpFR	18	4	0	SHORTS	1293	n/a	n/a	0	0.422607421875	0.5869140625	0	lower	zerothre.ttf
512749	WORD	wordpools/wasnorm_wordpool.txt	LTP150	ltpFR	18	4	0	DIAMOND	458	n/a	n/a	0	0.422607421875	0.5869140625	0	lower	zerothre.ttf
516956	WORD	wordpools/wasnorm_wordpool.txt	LTP150	ltpFR	18	4	0	COLT	349	n/a	n/a	1	0.422607421875	0.5869140625	0	lower	zerothre.ttf
521147	WORD	wordpools/wasnorm_wordpool.txt	LTP150	ltpFR	18	4	0	DONKEY	484	n/a	n/a	1	0.422607421875	0.5869140625	0	lower	zerothre.ttf
525046	WORD	wordpools/wasnorm_wordpool.txt	LTP150	ltpFR	18	4	0	DAGGER	434	n/a	n/a	0	0.422607421875	0.5869140625	0	lower	zerothre.ttf
529236	WORD	wordpools/wasnorm_wordpool.txt	LTP150	ltpFR	18	4	0	THICKET	1455	n/a	n/a	0	0.422607421875	0.5869140625	0	lower	zerothre.ttf
535235	REC_START	n/a	LTP150	ltpFR	18	4	n/a	n/a	n/a	n/a	n/a	n/a	n/a	n/a	n/a	n/a	n/a
536557	REC_WORD	wordpools/wasnorm_wordpool.txt	LTP150	ltpFR	18	4	0	THICKET	1455	n/a	n/a	0	n/a	n/a	n/a	n/a	n/a
537894	REC_WORD	wordpools/wasnorm_wordpool.txt	LTP150	ltpFR	18	4	0	COLT	349	n/a	n/a	1	n/a	n/a	n/a	n/a	n/a
539121	REC_WORD	wordpools/wasnorm_wordpool.txt	LTP150	ltpFR	18	4	0	DIAMOND	458	n/a	n/a	0	n/a	n/a	n/a	n/a	n/a
540109	REC_WORD	wordpools/wasnorm_wordpool.txt	LTP150	ltpFR	18	4	0	SHORTS	1293	n/a	n/a	0	n/a	n/a	n/a	n/a	n/a
542897	REC_WORD	wordpools/wasnorm_wordpool.txt	LTP150	ltpFR	18	4	0	DONKEY	484	n/a	n/a	1	n/a	n/a	n/a	n/a	n/a
548849	REC_WORD	wordpools/wasnorm_wordpool.txt	LTP150	ltpFR	18	4	0	SUIT	1402	n/a	n/a	0	n/a	n/a	n/a	n/a	n/a
550216	REC_WORD	wordpools/wasnorm_wordpool.txt	LTP150	ltpFR	18	4	0	HOOP	716	n/a	n/a	0	n/a	n/a	n/a	n/a	n/a
551383	REC_WORD	wordpools/wasnorm_wordpool.txt	LTP150	ltpFR	18	4	0	VIRUS	1572	n/a	n/a	0	n/a	n/a	n/a	n/a	n/a
553039	REC_WORD	wordpools/wasnorm_wordpool.txt	LTP150	ltpFR	18	4	0	PEARL	1034	n/a	n/a	0	n/a	n/a	n/a	n/a	n/a
560083	REC_WORD	wordpools/wasnorm_wordpool.txt	LTP150	ltpFR	18	4	0	FROST	609	n/a	n/a	0	n/a	n/a	n/a	n/a	n/a
575094	REC_WORD	wordpools/wasnorm_wordpool.txt	LTP150	ltpFR	18	4	0	DAGGER	434	n/a	n/a	0	n/a	n/a	n/a	n/a	n/a
594091	REC_WORD	wordpools/wasnorm_wordpool.txt	LTP150	ltpFR	18	4	n/a	PONY	1102	n/a	n/a	n/a	n/a	n/a	n/a	n/a	n/a
597982	REC_WORD	wordpools/wasnorm_wordpool.txt	LTP150	ltpFR	18	4	n/a	APPLE	33	n/a	n/a	n/a	n/a	n/a	n/a	n/a	n/a
613465	WORD	wordpools/wasnorm_wordpool.txt	LTP150	ltpFR	18	5	1	LOUNGE	845	n/a	n/a	0	0.57763671875	0.412841796875	1	upper	amplitud.ttf
617538	WORD	wordpools/wasnorm_wordpool.txt	LTP150	ltpFR	18	5	1	PERCH	1048	n/a	n/a	0	0.57763671875	0.412841796875	1	upper	amplitud.ttf
621503	WORD	wordpools/wasnorm_wordpool.txt	LTP150	ltpFR	18	5	1	CASH	252	n/a	n/a	0	0.57763671875	0.412841796875	1	upper	amplitud.ttf
625485	WORD	wordpools/wasnorm_wordpool.txt	LTP150	ltpFR	18	5	1	CART	250	n/a	n/a	0	0.57763671875	0.412841796875	1	upper	amplitud.ttf
629326	WORD	wordpools/wasnorm_wordpool.txt	LTP150	ltpFR	18	5	1	KNAPSACK	783	n/a	n/a	0	0.57763671875	0.412841796875	1	upper	amplitud.ttf
633499	WORD	wordpools/wasnorm_wordpool.txt	LTP150	ltpFR	18	5	1	GIRAFFE	636	n/a	n/a	1	0.57763671875	0.412841796875	1	upper	amplitud.ttf
637489	WORD	wordpools/wasnorm_wordpool.txt	LTP150	ltpFR	18	5	1	GAZELLE	628	n/a	n/a	1	0.57763671875	0.412841796875	1	upper	amplitud.ttf
641563	WORD	wordpools/wasnorm_wordpool.txt	LTP150	ltpFR	18	5	1	BONE	148	n/a	n/a	0	0.57763671875	0.412841796875	1	upper	amplitud.ttf
645403	WORD	wordpools/wasnorm_wordpool.txt	LTP150	ltpFR	18	5	1	MAT	877	n/a	n/a	0	0.57763671875	0.412841796875	1	upper	amplitud.ttf
649227	WORD	wordpools/wasnorm_wordpool.txt	LTP150	ltpFR	18	5	1	PROFESSIONAL	1130	n/a	n/a	1	0.57763671875	0.412841796875	1	upper	amplitud.ttf
653292	WORD	wordpools/wasnorm_wordpool.txt	LTP150	ltpFR	18	5	1	CENT	270	n/a	n/a	0	0.57763671875	0.412841796875	1	upper	amplitud.ttf
657391	WORD	wordpools/wasnorm_wordpool.txt	LTP150	ltpFR	18	5	1	SAXOPHONE	1240	n/a	n/a	0	0.57763671875	0.412841796875	1	upper	amplitud.ttf
661447	WORD	wordpools/wasnorm_wordpool.txt	LTP150	ltpFR	18	5	1	DUNGEON	507	n/a	n/a	0	0.57763671875	0.412841796875	1	upper	amplitud.ttf
665263	WORD	wordpools/wasnorm_wordpool.txt	LTP150	ltpFR	18	5	1	FUGITIVE	612	n/a	n/a	1	0.57763671875	0.412841796875	1	upper	amplitud.ttf
669170	WORD	wordpools/wasnorm_wordpool.txt	LTP150	ltpFR	18	5	1	WALL	1582	n/a	n/a	0	0.57763671875	0.412841796875	1	upper	amplitud.ttf
672984	WORD	wordpools/wasnorm_wordpool.txt	LTP150	ltpFR	18	5	1	PHYSICIAN	1056	n/a	n/a	1	0.57763671875	0.412841796875	1	upper	amplitud.ttf
678999	REC_START	n/a	LTP150	ltpFR	18	5	n/a	n/a	n/a	n/a	n/a	n/a	n/a	n/a	n/a	n/a	n/a
680386	REC_WORD	wordpools/wasnorm_wordpool.txt	LTP150	ltpFR	18	5	1	LOUNGE	845	n/a	n/a	0	n/a	n/a	n/a	n/a	n/a
682032	REC_WORD	wordpools/wasnorm_wordpool.txt	LTP150	ltpFR	18	5	1	PERCH	1048	n/a	n/a	0	n/a	n/a	n/a	n/a	n/a
683703	REC_WORD	wordpools/wasnorm_wordpool.txt	LTP150	ltpFR	18	5	1	CASH	252	n/a	n/a	0	n/a	n/a	n/a	n/a	n/a
685080	REC_WORD	wordpools/wasnorm_wordpool.txt	LTP150	ltpFR	18	5	1	CART	250	n/a	n/a	0	n/a	n/a	n/a	n/a	n/a
687310	REC_WORD	wordpools/wasnorm_wordpool.txt	LTP150	ltpFR	18	5	1	KNAPSACK	783	n/a	n/a	0	n/a	n/a	n/a	n/a	n/a
689969	REC_WORD	wordpools/wasnorm_wordpool.txt	LTP150	ltpFR	18	5	1	GIRAFFE	636	n/a	n/a	1	n/a	n/a	n/a	n/a	n/a
691236	REC_WORD	wordpools/wasnorm_wordpool.txt	LTP150	ltpFR	18	5	1	GAZELLE	628	n/a	n/a	1	n/a	n/a	n/a	n/a	n/a
693306	REC_WORD	wordpools/wasnorm_wordpool.txt	LTP150	ltpFR	18	5	1	BONE	148	n/a	n/a	0	n/a	n/a	n/a	n/a	n/a
694743	REC_WORD	wordpools/wasnorm_wordpool.txt	LTP150	ltpFR	18	5	1	MAT	877	n/a	n/a	0	n/a	n/a	n/a	n/a	n/a
697442	REC_WORD	wordpools/wasnorm_wordpool.txt	LTP150	ltpFR	18	5	1	PROFESSIONAL	1130	n/a	n/a	1	n/a	n/a	n/a	n/a	n/a
698678	REC_WORD	wordpools/wasnorm_wordpool.txt	LTP150	ltpFR	18	5	1	CENT	270	n/a	n/a	0	n/a	n/a	n/a	n/a	n/a
699662	REC_WORD	wordpools/wasnorm_wordpool.txt	LTP150	ltpFR	18	5	1	SAXOPHONE	1240	n/a	n/a	0	n/a	n/a	n/a	n/a	n/a
701478	REC_WORD	wordpools/wasnorm_wordpool.txt	LTP150	ltpFR	18	5	1	DUNGEON	507	n/a	n/a	0	n/a	n/a	n/a	n/a	n/a
704057	REC_WORD	wordpools/wasnorm_wordpool.txt	LTP150	ltpFR	18	5	1	WALL	1582	n/a	n/a	0	n/a	n/a	n/a	n/a	n/a
706760	REC_WORD	wordpools/wasnorm_wordpool.txt	LTP150	ltpFR	18	5	1	PHYSICIAN	1056	n/a	n/a	1	n/a	n/a	n/a	n/a	n/a
714857	REC_WORD	wordpools/wasnorm_wordpool.txt	LTP150	ltpFR	18	5	1	FUGITIVE	612	n/a	n/a	1	n/a	n/a	n/a	n/a	n/a
757163	WORD	wordpools/wasnorm_wordpool.txt	LTP150	ltpFR	18	6	1	MOUSE	925	n/a	n/a	1	0.57763671875	0.412841796875	1	upper	amplitud.ttf
761320	WORD	wordpools/wasnorm_wordpool.txt	LTP150	ltpFR	18	6	1	DOUGH	489	n/a	n/a	0	0.57763671875	0.412841796875	1	upper	amplitud.ttf
765310	WORD	wordpools/wasnorm_wordpool.txt	LTP150	ltpFR	18	6	1	ICING	732	n/a	n/a	0	0.57763671875	0.412841796875	1	upper	amplitud.ttf
769126	WORD	wordpools/wasnorm_wordpool.txt	LTP150	ltpFR	18	6	1	TOMBSTONE	1478	n/a	n/a	0	0.57763671875	0.412841796875	1	upper	amplitud.ttf
772998	WORD	wordpools/wasnorm_wordpool.txt	LTP150	ltpFR	18	6	1	COFFIN	342	n/a	n/a	0	0.57763671875	0.412841796875	1	upper	amplitud.ttf
776989	WORD	wordpools/wasnorm_wordpool.txt	LTP150	ltpFR	18	6	1	DUST	508	n/a	n/a	0	0.57763671875	0.412841796875	1	upper	amplitud.ttf
780896	WORD	wordpools/wasnorm_wordpool.txt	LTP150	ltpFR	18	6	1	CAKE	219	n/a	n/a	0	0.57763671875	0.412841796875	1	upper	amplitud.ttf
784986	WORD	wordpools/wasnorm_wordpool.txt	LTP150	ltpFR	18	6	1	CASHIER	254	n/a	n/a	1	0.57763671875	0.412841796875	1	upper	amplitud.ttf
789001	WORD	wordpools/wasnorm_wordpool.txt	LTP150	ltpFR	18	6	1	LINT	826	n/a	n/a	0	0.57763671875	0.412841796875	1	upper	amplitud.ttf
793000	WORD	wordpools/wasnorm_wordpool.txt	LTP150	ltpFR	18	6	1	LIST	830	n/a	n/a	0	0.57763671875	0.412841796875	1	upper	amplitud.ttf
797007	WORD	wordpools/wasnorm_wordpool.txt	LTP150	ltpFR	18	6	1	SECRETARY	1265	n/a	n/a	1	0.57763671875	0.412841796875	1	upper	amplitud.ttf
801164	WORD	wordpools/wasnorm_wordpool.txt	LTP150	ltpFR	18	6	1	EMPLOYER	532	n/a	n/a	1	0.57763671875	0.412841796875	1	upper	amplitud.ttf
805321	WORD	wordpools/wasnorm_wordpool.txt	LTP150	ltpFR	18	6	1	EMPLOYEE	531	n/a	n/a	1	0.57763671875	0.412841796875	1	upper	amplitud.ttf
809453	WORD	wordpools/wasnorm_wordpool.txt	LTP150	ltpFR	18	6	1	DIME	466	n/a	n/a	0	0.57763671875	0.412841796875	1	upper	amplitud.ttf
813402	WORD	wordpools/wasnorm_wordpool.txt	LTP150	ltpFR	18	6	1	PAINTING	1005	n/a	n/a	0	0.57763671875	0.412841796875	1	upper	amplitud.ttf
817317	WORD	wordpools/wasnorm_wordpool.txt	LTP150	ltpFR	18	6	1	SCRIBBLE	1256	n/a	n/a	0	0.57763671875	0.412841796875	1	upper	amplitud.ttf
823082	REC_START	n/a	LTP150	ltpFR	18	6	n/a	n/a	n/a	n/a	n/a	n/a	n/a	n/a	n/a	n/a	n/a
825087	REC_WORD	wordpools/wasnorm_wordpool.txt	LTP150	ltpFR	18	6	1	EMPLOYEE	531	n/a	n/a	1	n/a	n/a	n/a	n/a	n/a
826848	REC_WORD	wordpools/wasnorm_wordpool.txt	LTP150	ltpFR	18	6	1	DIME	466	n/a	n/a	0	n/a	n/a	n/a	n/a	n/a
828130	REC_WORD	wordpools/wasnorm_wordpool.txt	LTP150	ltpFR	18	6	1	PAINTING	1005	n/a	n/a	0	n/a	n/a	n/a	n/a	n/a
830834	REC_WORD	wordpools/wasnorm_wordpool.txt	LTP150	ltpFR	18	6	1	SCRIBBLE	1256	n/a	n/a	0	n/a	n/a	n/a	n/a	n/a
837075	REC_WORD	wordpools/wasnorm_wordpool.txt	LTP150	ltpFR	18	6	1	CASHIER	254	n/a	n/a	1	n/a	n/a	n/a	n/a	n/a
838631	REC_WORD	wordpools/wasnorm_wordpool.txt	LTP150	ltpFR	18	6	1	LINT	826	n/a	n/a	0	n/a	n/a	n/a	n/a	n/a
839714	REC_WORD	wordpools/wasnorm_wordpool.txt	LTP150	ltpFR	18	6	1	LIST	830	n/a	n/a	0	n/a	n/a	n/a	n/a	n/a
840617	REC_WORD	wordpools/wasnorm_wordpool.txt	LTP150	ltpFR	18	6	1	SECRETARY	1265	n/a	n/a	1	n/a	n/a	n/a	n/a	n/a
845341	REC_WORD	wordpools/wasnorm_wordpool.txt	LTP150	ltpFR	18	6	1	MOUSE	925	n/a	n/a	1	n/a	n/a	n/a	n/a	n/a
846479	REC_WORD	wordpools/wasnorm_wordpool.txt	LTP150	ltpFR	18	6	1	DOUGH	489	n/a	n/a	0	n/a	n/a	n/a	n/a	n/a
847821	REC_WORD	wordpools/wasnorm_wordpool.txt	LTP150	ltpFR	18	6	1	ICING	732	n/a	n/a	0	n/a	n/a	n/a	n/a	n/a
849113	REC_WORD	wordpools/wasnorm_wordpool.txt	LTP150	ltpFR	18	6	1	TOMBSTONE	1478	n/a	n/a	0	n/a	n/a	n/a	n/a	n/a
850524	REC_WORD	wordpools/wasnorm_wordpool.txt	LTP150	ltpFR	18	6	1	COFFIN	342	n/a	n/a	0	n/a	n/a	n/a	n/a	n/a
852261	REC_WORD	wordpools/wasnorm_wordpool.txt	LTP150	ltpFR	18	6	1	DUST	508	n/a	n/a	0	n/a	n/a	n/a	n/a	n/a
854755	REC_WORD	wordpools/wasnorm_wordpool.txt	LTP150	ltpFR	18	6	1	CAKE	219	n/a	n/a	0	n/a	n/a	n/a	n/a	n/a
892629	REC_WORD	wordpools/wasnorm_wordpool.txt	LTP150	ltpFR	18	6	1	PEN	1041	n/a	n/a	0	n/a	n/a	n/a	n/a	n/a
901137	WORD	wordpools/wasnorm_wordpool.txt	LTP150	ltpFR	18	7	-1	PUCK	1138	n/a	n/a	-1	1.0	1.0	1	upper	Verdana.ttf
905227	WORD	wordpools/wasnorm_wordpool.txt	LTP150	ltpFR	18	7	-1	BINDER	127	n/a	n/a	-1	1.0	1.0	1	upper	Verdana.ttf
909276	WORD	wordpools/wasnorm_wordpool.txt	LTP150	ltpFR	18	7	-1	MICROWAVE	892	n/a	n/a	-1	1.0	1.0	1	upper	Verdana.ttf
913199	WORD	wordpools/wasnorm_wordpool.txt	LTP150	ltpFR	18	7	-1	FREEZER	604	n/a	n/a	-1	1.0	1.0	1	upper	Verdana.ttf
917106	WORD	wordpools/wasnorm_wordpool.txt	LTP150	ltpFR	18	7	-1	CAMERA	224	n/a	n/a	-1	1.0	1.0	1	upper	Verdana.ttf
920996	WORD	wordpools/wasnorm_wordpool.txt	LTP150	ltpFR	18	7	-1	FRAME	600	n/a	n/a	-1	1.0	1.0	1	upper	Verdana.ttf
925062	WORD	wordpools/wasnorm_wordpool.txt	LTP150	ltpFR	18	7	-1	OZONE	996	n/a	n/a	-1	1.0	1.0	1	upper	Verdana.ttf
928985	WORD	wordpools/wasnorm_wordpool.txt	LTP150	ltpFR	18	7	-1	PAGE	1001	n/a	n/a	-1	1.0	1.0	1	upper	Verdana.ttf
933126	WORD	wordpools/wasnorm_wordpool.txt	LTP150	ltpFR	18	7	-1	BELLY	119	n/a	n/a	-1	1.0	1.0	1	upper	Verdana.ttf
936940	WORD	wordpools/wasnorm_wordpool.txt	LTP150	ltpFR	18	7	-1	GARBAGE	622	n/a	n/a	-1	1.0	1.0	1	upper	Verdana.ttf
940880	WORD	wordpools/wasnorm_wordpool.txt	LTP150	ltpFR	18	7	-1	RACCOON	1153	n/a	n/a	-1	1.0	1.0	1	upper	Verdana.ttf
944945	WORD	wordpools/wasnorm_wordpool.txt	LTP150	ltpFR	18	7	-1	PERSON	1052	n/a	n/a	-1	1.0	1.0	1	upper	Verdana.ttf
948802	WORD	wordpools/wasnorm_wordpool.txt	LTP150	ltpFR	18	7	-1	SWEATER	1419	n/a	n/a	-1	1.0	1.0	1	upper	Verdana.ttf
952734	WORD	wordpools/wasnorm_wordpool.txt	LTP150	ltpFR	18	7	-1	CHIP	303	n/a	n/a	-1	1.0	1.0	1	upper	Verdana.ttf
956551	WORD	wordpools/wasnorm_wordpool.txt	LTP150	ltpFR	18	7	-1	ANIMAL	23	n/a	n/a	-1	1.0	1.0	1	upper	Verdana.ttf
960499	WORD	wordpools/wasnorm_wordpool.txt	LTP150	ltpFR	18	7	-1	PANTHER	1009	n/a	n/a	-1	1.0	1.0	1	upper	Verdana.ttf
966356	REC_START	n/a	LTP150	ltpFR	18	7	n/a	n/a	n/a	n/a	n/a	n/a	n/a	n/a	n/a	n/a	n/a
967034	REC_WORD	wordpools/wasnorm_wordpool.txt	LTP150	ltpFR	18	7	-1	PANTHER	1009	n/a	n/a	-1	n/a	n/a	n/a	n/a	n/a
968346	REC_WORD	wordpools/wasnorm_wordpool.txt	LTP150	ltpFR	18	7	-1	ANIMAL	23	n/a	n/a	-1	n/a	n/a	n/a	n/a	n/a
970302	REC_WORD	wordpools/wasnorm_wordpool.txt	LTP150	ltpFR	18	7	-1	SWEATER	1419	n/a	n/a	-1	n/a	n/a	n/a	n/a	n/a
971559	REC_WORD	wordpools/wasnorm_wordpool.txt	LTP150	ltpFR	18	7	-1	CHIP	303	n/a	n/a	-1	n/a	n/a	n/a	n/a	n/a
977041	REC_WORD	wordpools/wasnorm_wordpool.txt	LTP150	ltpFR	18	7	-1	PAGE	1001	n/a	n/a	-1	n/a	n/a	n/a	n/a	n/a
978049	REC_WORD	wordpools/wasnorm_wordpool.txt	LTP150	ltpFR	18	7	-1	BELLY	119	n/a	n/a	-1	n/a	n/a	n/a	n/a	n/a
979067	REC_WORD	wordpools/wasnorm_wordpool.txt	LTP150	ltpFR	18	7	-1	GARBAGE	622	n/a	n/a	-1	n/a	n/a	n/a	n/a	n/a
980169	REC_WORD	wordpools/wasnorm_wordpool.txt	LTP150	ltpFR	18	7	-1	RACCOON	1153	n/a	n/a	-1	n/a	n/a	n/a	n/a	n/a
981267	REC_WORD	wordpools/wasnorm_wordpool.txt	LTP150	ltpFR	18	7	-1	PERSON	1052	n/a	n/a	-1	n/a	n/a	n/a	n/a	n/a
984794	REC_WORD	wordpools/wasnorm_wordpool.txt	LTP150	ltpFR	18	7	0	HUMAN	726	n/a	n/a	1	n/a	n/a	n/a	n/a	n/a
994088	REC_WORD	wordpools/wasnorm_wordpool.txt	LTP150	ltpFR	18	7	-1	PUCK	1138	n/a	n/a	-1	n/a	n/a	n/a	n/a	n/a
995375	REC_WORD	wordpools/wasnorm_wordpool.txt	LTP150	ltpFR	18	7	-1	BINDER	127	n/a	n/a	-1	n/a	n/a	n/a	n/a	n/a
996517	REC_WORD	wordpools/wasnorm_wordpool.txt	LTP150	ltpFR	18	7	-1	MICROWAVE	892	n/a	n/a	-1	n/a	n/a	n/a	n/a	n/a
997595	REC_WORD	wordpools/wasnorm_wordpool.txt	LTP150	ltpFR	18	7	-1	FREEZER	604	n/a	n/a	-1	n/a	n/a	n/a	n/a	n/a
998802	REC_WORD	wordpools/wasnorm_wordpool.txt	LTP150	ltpFR	18	7	-1	CAMERA	224	n/a	n/a	-1	n/a	n/a	n/a	n/a	n/a
999879	REC_WORD	wordpools/wasnorm_wordpool.txt	LTP150	ltpFR	18	7	-1	FRAME	600	n/a	n/a	-1	n/a	n/a	n/a	n/a	n/a
1044653	WORD	wordpools/wasnorm_wordpool.txt	LTP150	ltpFR	18	8	0	SAUSAGE	1238	n/a	n/a	0	0.422607421875	0.5869140625	0	lower	zerothre.ttf
1048501	WORD	wordpools/wasnorm_wordpool.txt	LTP150	ltpFR	18	8	0	MEAL	882	n/a	n/a	0	0.422607421875	0.5869140625	0	lower	zerothre.ttf
1052408	WORD	wordpools/wasnorm_wordpool.txt	LTP150	ltpFR	18	8	0	LOVER	846	n/a	n/a	0	0.422607421875	0.5869140625	0	lower	zerothre.ttf
1056615	WORD	wordpools/wasnorm_wordpool.txt	LTP150	ltpFR	18	8	0	FRIEND	606	n/a	n/a	1	0.422607421875	0.5869140625	0	lower	zerothre.ttf
1060514	WORD	wordpools/wasnorm_wordpool.txt	LTP150	ltpFR	18	8	0	HUT	729	n/a	n/a	1	0.422607421875	0.5869140625	0	lower	zerothre.ttf
1064412	WORD	wordpools/wasnorm_wordpool.txt	LTP150	ltpFR	18	8	0	LIVER	833	n/a	n/a	0	0.422607421875	0.5869140625	0	lower	zerothre.ttf
1068378	WORD	wordpools/wasnorm_wordpool.txt	LTP150	ltpFR	18	8	0	PECAN	1036	n/a	n/a	0	0.422607421875	0.5869140625	0	lower	zerothre.ttf
1072276	WORD	wordpools/wasnorm_wordpool.txt	LTP150	ltpFR	18	8	0	BATH	98	n/a	n/a	1	0.422607421875	0.5869140625	0	lower	zerothre.ttf
1076441	WORD	wordpools/wasnorm_wordpool.txt	LTP150	ltpFR	18	8	0	BALCONY	72	n/a	n/a	1	0.422607421875	0.5869140625	0	lower	zerothre.ttf
1080398	WORD	wordpools/wasnorm_wordpool.txt	LTP150	ltpFR	18	8	0	CASHEW	253	n/a	n/a	0	0.422607421875	0.5869140625	0	lower	zerothre.ttf
1084389	WORD	wordpools/wasnorm_wordpool.txt	LTP150	ltpFR	18	8	0	DOCTOR	478	n/a	n/a	1	0.422607421875	0.5869140625	0	lower	zerothre.ttf
1088345	WORD	wordpools/wasnorm_wordpool.txt	LTP150	ltpFR	18	8	0	STOMACH	1384	n/a	n/a	0	0.422607421875	0.5869140625	0	lower	zerothre.ttf
1092452	WORD	wordpools/wasnorm_wordpool.txt	LTP150	ltpFR	18	8	0	WASHCLOTH	1591	n/a	n/a	0	0.422607421875	0.5869140625	0	lower	zerothre.ttf
1096501	WORD	wordpools/wasnorm_wordpool.txt	LTP150	ltpFR	18	8	0	STEAM	1375	n/a	n/a	0	0.422607421875	0.5869140625	0	lower	zerothre.ttf
1100499	WORD	wordpools/wasnorm_wordpool.txt	LTP150	ltpFR	18	8	0	GRIZZLY	662	n/a	n/a	1	0.422607421875	0.5869140625	0	lower	zerothre.ttf
1104556	WORD	wordpools/wasnorm_wordpool.txt	LTP150	ltpFR	18	8	0	REINDEER	1181	n/a	n/a	1	0.422607421875	0.5869140625	0	lower	zerothre.ttf
1110247	REC_START	n/a	LTP150	ltpFR	18	8	n/a	n/a	n/a	n/a	n/a	n/a	n/a	n/a	n/a	n/a	n/a
1111359	REC_WORD	wordpools/wasnorm_wordpool.txt	LTP150	ltpFR	18	8	0	GRIZZLY	662	n/a	n/a	1	n/a	n/a	n/a	n/a	n/a
1112322	REC_WORD	wordpools/wasnorm_wordpool.txt	LTP150	ltpFR	18	8	0	REINDEER	1181	n/a	n/a	1	n/a	n/a	n/a	n/a	n/a
1113614	REC_WORD	wordpools/wasnorm_wordpool.txt	LTP150	ltpFR	18	8	0	DOCTOR	478	n/a	n/a	1	n/a	n/a	n/a	n/a	n/a
1114497	REC_WORD	wordpools/wasnorm_wordpool.txt	LTP150	ltpFR	18	8	0	STOMACH	1384	n/a	n/a	0	n/a	n/a	n/a	n/a	n/a
1116148	REC_WORD	wordpools/wasnorm_wordpool.txt	LTP150	ltpFR	18	8	0	WASHCLOTH	1591	n/a	n/a	0	n/a	n/a	n/a	n/a	n/a
1124275	REC_WORD	wordpools/wasnorm_wordpool.txt	LTP150	ltpFR	18	8	0	SAUSAGE	1238	n/a	n/a	0	n/a	n/a	n/a	n/a	n/a
1125647	REC_WORD	wordpools/wasnorm_wordpool.txt	LTP150	ltpFR	18	8	0	MEAL	882	n/a	n/a	0	n/a	n/a	n/a	n/a	n/a
1126724	REC_WORD	wordpools/wasnorm_wordpool.txt	LTP150	ltpFR	18	8	0	LOVER	846	n/a	n/a	0	n/a	n/a	n/a	n/a	n/a
1127817	REC_WORD	wordpools/wasnorm_wordpool.txt	LTP150	ltpFR	18	8	0	FRIEND	606	n/a	n/a	1	n/a	n/a	n/a	n/a	n/a
1129024	REC_WORD	wordpools/wasnorm_wordpool.txt	LTP150	ltpFR	18	8	0	HUT	729	n/a	n/a	1	n/a	n/a	n/a	n/a	n/a
1135958	REC_WORD	wordpools/wasnorm_wordpool.txt	LTP150	ltpFR	18	8	0	PECAN	1036	n/a	n/a	0	n/a	n/a	n/a	n/a	n/a
1137520	REC_WORD	wordpools/wasnorm_wordpool.txt	LTP150	ltpFR	18	8	0	BATH	98	n/a	n/a	1	n/a	n/a	n/a	n/a	n/a
1138827	REC_WORD	wordpools/wasnorm_wordpool.txt	LTP150	ltpFR	18	8	0	BALCONY	72	n/a	n/a	1	n/a	n/a	n/a	n/a	n/a
1140204	REC_WORD	wordpools/wasnorm_wordpool.txt	LTP150	ltpFR	18	8	0	CASHEW	253	n/a	n/a	0	n/a	n/a	n/a	n/a	n/a
1148934	REC_WORD	wordpools/wasnorm_wordpool.txt	LTP150	ltpFR	18	8	0	LIVER	833	n/a	n/a	0	n/a	n/a	n/a	n/a	n/a
1188077	WORD	wordpools/wasnorm_wordpool.txt	LTP150	ltpFR	18	9	-1	SERPENT	1270	n/a	n/a	-1	1.0	1.0	1	upper	Verdana.ttf
1192133	WORD	wordpools/wasnorm_wordpool.txt	LTP150	ltpFR	18	9	-1	LEADER	807	n/a	n/a	-1	1.0	1.0	1	upper	Verdana.ttf
1196132	WORD	wordpools/wasnorm_wordpool.txt	LTP150	ltpFR	18	9	-1	PRISON	1127	n/a	n/a	-1	1.0	1.0	1	upper	Verdana.ttf
1200097	WORD	wordpools/wasnorm_wordpool.txt	LTP150	ltpFR	18	9	-1	CAPITAL	238	n/a	n/a	-1	1.0	1.0	1	upper	Verdana.ttf
1204262	WORD	wordpools/wasnorm_wordpool.txt	LTP150	ltpFR	18	9	-1	PAWN	1030	n/a	n/a	-1	1.0	1.0	1	upper	Verdana.ttf
1208469	WORD	wordpools/wasnorm_wordpool.txt	LTP150	ltpFR	18	9	-1	SOFA	1342	n/a	n/a	-1	1.0	1.0	1	upper	Verdana.ttf
1212560	WORD	wordpools/wasnorm_wordpool.txt	LTP150	ltpFR	18	9	-1	MACHINE	852	n/a	n/a	-1	1.0	1.0	1	upper	Verdana.ttf
1216691	WORD	wordpools/wasnorm_wordpool.txt	LTP150	ltpFR	18	9	-1	SCALLOP	1242	n/a	n/a	-1	1.0	1.0	1	upper	Verdana.ttf
1220673	WORD	wordpools/wasnorm_wordpool.txt	LTP150	ltpFR	18	9	-1	SLIDE	1326	n/a	n/a	-1	1.0	1.0	1	upper	Verdana.ttf
1224779	WORD	wordpools/wasnorm_wordpool.txt	LTP150	ltpFR	18	9	-1	FURNITURE	616	n/a	n/a	-1	1.0	1.0	1	upper	Verdana.ttf
1228753	WORD	wordpools/wasnorm_wordpool.txt	LTP150	ltpFR	18	9	-1	COLLAR	345	n/a	n/a	-1	1.0	1.0	1	upper	Verdana.ttf
1232586	WORD	wordpools/wasnorm_wordpool.txt	LTP150	ltpFR	18	9	-1	TROUT	1511	n/a	n/a	-1	1.0	1.0	1	upper	Verdana.ttf
1236451	WORD	wordpools/wasnorm_wordpool.txt	LTP150	ltpFR	18	9	-1	TURNIP	1521	n/a	n/a	-1	1.0	1.0	1	upper	Verdana.ttf
1240525	WORD	wordpools/wasnorm_wordpool.txt	LTP150	ltpFR	18	9	-1	TOMATO	1476	n/a	n/a	-1	1.0	1.0	1	upper	Verdana.ttf
1244498	WORD	wordpools/wasnorm_wordpool.txt	LTP150	ltpFR	18	9	-1	BAND	78	n/a	n/a	-1	1.0	1.0	1	upper	Verdana.ttf
1248647	WORD	wordpools/wasnorm_wordpool.txt	LTP150	ltpFR	18	9	-1	CONCERT	360	n/a	n/a	-1	1.0	1.0	1	upper	Verdana.ttf
1254362	REC_START	n/a	LTP150	ltpFR	18	9	n/a	n/a	n/a	n/a	n/a	n/a	n/a	n/a	n/a	n/a	n/a
1255749	REC_WORD	wordpools/wasnorm_wordpool.txt	LTP150	ltpFR	18	9	-1	TURNIP	1521	n/a	n/a	-1	n/a	n/a	n/a	n/a	n/a
1256756	REC_WORD	wordpools/wasnorm_wordpool.txt	LTP150	ltpFR	18	9	-1	TOMATO	1476	n/a	n/a	-1	n/a	n/a	n/a	n/a	n/a
1257944	REC_WORD	wordpools/wasnorm_wordpool.txt	LTP150	ltpFR	18	9	-1	BAND	78	n/a	n/a	-1	n/a	n/a	n/a	n/a	n/a
1259181	REC_WORD	wordpools/wasnorm_wordpool.txt	LTP150	ltpFR	18	9	-1	CONCERT	360	n/a	n/a	-1	n/a	n/a	n/a	n/a	n/a
1261700	REC_WORD	wordpools/wasnorm_wordpool.txt	LTP150	ltpFR	18	9	-1	SERPENT	1270	n/a	n/a	-1	n/a	n/a	n/a	n/a	n/a
1263042	REC_WORD	wordpools/wasnorm_wordpool.txt	LTP150	ltpFR	18	9	-1	LEADER	807	n/a	n/a	-1	n/a	n/a	n/a	n/a	n/a
1264444	REC_WORD	wordpools/wasnorm_wordpool.txt	LTP150	ltpFR	18	9	-1	PRISON	1127	n/a	n/a	-1	n/a	n/a	n/a	n/a	n/a
1265776	REC_WORD	wordpools/wasnorm_wordpool.txt	LTP150	ltpFR	18	9	-1	CAPITAL	238	n/a	n/a	-1	n/a	n/a	n/a	n/a	n/a
1267073	REC_WORD	wordpools/wasnorm_wordpool.txt	LTP150	ltpFR	18	9	-1	PAWN	1030	n/a	n/a	-1	n/a	n/a	n/a	n/a	n/a
1268200	REC_WORD	wordpools/wasnorm_wordpool.txt	LTP150	ltpFR	18	9	-1	SOFA	1342	n/a	n/a	-1	n/a	n/a	n/a	n/a	n/a
1275229	REC_WORD	wordpools/wasnorm_wordpool.txt	LTP150	ltpFR	18	9	-1	SLIDE	1326	n/a	n/a	-1	n/a	n/a	n/a	n/a	n/a
1279469	REC_WORD	wordpools/wasnorm_wordpool.txt	LTP150	ltpFR	18	9	-1	FURNITURE	616	n/a	n/a	-1	n/a	n/a	n/a	n/a	n/a
1281036	REC_WORD	wordpools/wasnorm_wordpool.txt	LTP150	ltpFR	18	9	-1	SCALLOP	1242	n/a	n/a	-1	n/a	n/a	n/a	n/a	n/a
1282997	REC_WORD	wordpools/wasnorm_wordpool.txt	LTP150	ltpFR	18	9	-1	TROUT	1511	n/a	n/a	-1	n/a	n/a	n/a	n/a	n/a
1302283	REC_WORD	wordpools/wasnorm_wordpool.txt	LTP150	ltpFR	18	9	-1	MACHINE	852	n/a	n/a	-1	n/a	n/a	n/a	n/a	n/a
1332791	WORD	wordpools/wasnorm_wordpool.txt	LTP150	ltpFR	18	10	1	LION	827	n/a	n/a	n/a	0.57763671875	0.412841796875	1	upper	amplitud.ttf
1335815	SLOW_MSG	n/a	LTP150	ltpFR	18	10	n/a	n/a	n/a	n/a	n/a	n/a	n/a	n/a	n/a	n/a	n/a
1338390	WORD	wordpools/wasnorm_wordpool.txt	LTP150	ltpFR	18	10	1	CERAMICS	271	n/a	n/a	0	0.57763671875	0.412841796875	1	upper	amplitud.ttf
1342497	WORD	wordpools/wasnorm_wordpool.txt	LTP150	ltpFR	18	10	1	ROBIN	1199	n/a	n/a	1	0.57763671875	0.412841796875	1	upper	amplitud.ttf
1346562	WORD	wordpools/wasnorm_wordpool.txt	LTP150	ltpFR	18	10	0	JOINT	758	n/a	n/a	0	0.422607421875	0.5869140625	0	lower	zerothre.ttf
1350419	WORD	wordpools/wasnorm_wordpool.txt	LTP150	ltpFR	18	10	0	VASE	1549	n/a	n/a	0	0.422607421875	0.5869140625	0	lower	zerothre.ttf
1354242	WORD	wordpools/wasnorm_wordpool.txt	LTP150	ltpFR	18	10	1	STEM	1376	n/a	n/a	0	0.57763671875	0.412841796875	1	upper	amplitud.ttf
1358174	WORD	wordpools/wasnorm_wordpool.txt	LTP150	ltpFR	18	10	1	WHIP	1604	n/a	n/a	0	0.57763671875	0.412841796875	1	upper	amplitud.ttf
1362290	WORD	wordpools/wasnorm_wordpool.txt	LTP150	ltpFR	18	10	0	PRAIRIE	1118	n/a	n/a	1	0.422607421875	0.5869140625	0	lower	zerothre.ttf
1366138	WORD	wordpools/wasnorm_wordpool.txt	LTP150	ltpFR	18	10	0	SEAFOOD	1260	n/a	n/a	0	0.422607421875	0.5869140625	0	lower	zerothre.ttf
1370195	WORD	wordpools/wasnorm_wordpool.txt	LTP150	ltpFR	18	10	0	ANCESTOR	20	n/a	n/a	1	0.422607421875	0.5869140625	0	lower	zerothre.ttf
1374052	WORD	wordpools/wasnorm_wordpool.txt	LTP150	ltpFR	18	10	0	CANE	231	n/a	n/a	0	0.422607421875	0.5869140625	0	lower	zerothre.ttf
1378259	WORD	wordpools/wasnorm_wordpool.txt	LTP150	ltpFR	18	10	0	MOAT	903	n/a	n/a	1	0.422607421875	0.5869140625	0	lower	zerothre.ttf
1382382	WORD	wordpools/wasnorm_wordpool.txt	LTP150	ltpFR	18	10	0	TEAPOT	1442	n/a	n/a	0	0.422607421875	0.5869140625	0	lower	zerothre.ttf
1386348	WORD	wordpools/wasnorm_wordpool.txt	LTP150	ltpFR	18	10	1	HOUND	724	n/a	n/a	1	0.57763671875	0.412841796875	1	upper	amplitud.ttf
1390538	WORD	wordpools/wasnorm_wordpool.txt	LTP150	ltpFR	18	10	1	GORILLA	650	n/a	n/a	1	0.57763671875	0.412841796875	1	upper	amplitud.ttf
1394653	WORD	wordpools/wasnorm_wordpool.txt	LTP150	ltpFR	18	10	1	WINGS	1614	n/a	n/a	0	0.57763671875	0.412841796875	1	upper	amplitud.ttf
1400302	REC_START	n/a	LTP150	ltpFR	18	10	n/a	n/a	n/a	n/a	n/a	n/a	n/a	n/a	n/a	n/a	n/a
1402646	REC_WORD	wordpools/wasnorm_wordpool.txt	LTP150	ltpFR	18	10	0	ANCESTOR	20	n/a	n/a	1	n/a	n/a	n/a	n/a	n/a
1403973	REC_WORD	wordpools/wasnorm_wordpool.txt	LTP150	ltpFR	18	10	0	CANE	231	n/a	n/a	0	n/a	n/a	n/a	n/a	n/a
1405171	REC_WORD	wordpools/wasnorm_wordpool.txt	LTP150	ltpFR	18	10	0	MOAT	903	n/a	n/a	1	n/a	n/a	n/a	n/a	n/a
1408648	REC_WORD	wordpools/wasnorm_wordpool.txt	LTP150	ltpFR	18	10	1	HOUND	724	n/a	n/a	1	n/a	n/a	n/a	n/a	n/a
1410194	REC_WORD	wordpools/wasnorm_wordpool.txt	LTP150	ltpFR	18	10	1	GORILLA	650	n/a	n/a	1	n/a	n/a	n/a	n/a	n/a
1413876	REC_WORD	wordpools/wasnorm_wordpool.txt	LTP150	ltpFR	18	10	0	TEAPOT	1442	n/a	n/a	0	n/a	n/a	n/a	n/a	n/a
1424387	REC_WORD	wordpools/wasnorm_wordpool.txt	LTP150	ltpFR	18	10	1	WHIP	1604	n/a	n/a	0	n/a	n/a	n/a	n/a	n/a
1426338	REC_WORD	wordpools/wasnorm_wordpool.txt	LTP150	ltpFR	18	10	0	PRAIRIE	1118	n/a	n/a	1	n/a	n/a	n/a	n/a	n/a
1478847	WORD	wordpools/wasnorm_wordpool.txt	LTP150	ltpFR	18	11	0	HARE	688	n/a	n/a	0	0.422607421875	0.5869140625	0	lower	zerothre.ttf
1483021	WORD	wordpools/wasnorm_wordpool.txt	LTP150	ltpFR	18	11	0	BASKET	95	n/a	n/a	0	0.422607421875	0.5869140625	0	lower	zerothre.ttf
1486853	WORD	wordpools/wasnorm_wordpool.txt	LTP150	ltpFR	18	11	0	JELLY	755	n/a	n/a	0	0.422607421875	0.5869140625	0	lower	zerothre.ttf
1490868	WORD	wordpools/wasnorm_wordpool.txt	LTP150	ltpFR	18	11	0	NOVEL	960	n/a	n/a	0	0.422607421875	0.5869140625	0	lower	zerothre.ttf
1494933	WORD	wordpools/wasnorm_wordpool.txt	LTP150	ltpFR	18	11	0	COYOTE	396	n/a	n/a	1	0.422607421875	0.5869140625	0	lower	zerothre.ttf
1498923	WORD	wordpools/wasnorm_wordpool.txt	LTP150	ltpFR	18	11	0	BARK	87	n/a	n/a	0	0.422607421875	0.5869140625	0	lower	zerothre.ttf
1503148	WORD	wordpools/wasnorm_wordpool.txt	LTP150	ltpFR	18	11	0	PIT	1077	n/a	n/a	0	0.422607421875	0.5869140625	0	lower	zerothre.ttf
1507004	WORD	wordpools/wasnorm_wordpool.txt	LTP150	ltpFR	18	11	0	KEY	773	n/a	n/a	0	0.422607421875	0.5869140625	0	lower	zerothre.ttf
1511178	WORD	wordpools/wasnorm_wordpool.txt	LTP150	ltpFR	18	11	0	THORN	1459	n/a	n/a	0	0.422607421875	0.5869140625	0	lower	zerothre.ttf
1515118	WORD	wordpools/wasnorm_wordpool.txt	LTP150	ltpFR	18	11	0	FLOWER	584	n/a	n/a	0	0.422607421875	0.5869140625	0	lower	zerothre.ttf
1519184	WORD	wordpools/wasnorm_wordpool.txt	LTP150	ltpFR	18	11	0	BUNNY	198	n/a	n/a	0	0.422607421875	0.5869140625	0	lower	zerothre.ttf
1523116	WORD	wordpools/wasnorm_wordpool.txt	LTP150	ltpFR	18	11	0	SIBLING	1301	n/a	n/a	0	0.422607421875	0.5869140625	0	lower	zerothre.ttf
1527030	WORD	wordpools/wasnorm_wordpool.txt	LTP150	ltpFR	18	11	0	SPHINX	1349	n/a	n/a	1	0.422607421875	0.5869140625	0	lower	zerothre.ttf
1530937	WORD	wordpools/wasnorm_wordpool.txt	LTP150	ltpFR	18	11	0	TOAST	1471	n/a	n/a	0	0.422607421875	0.5869140625	0	lower	zerothre.ttf
1535120	WORD	wordpools/wasnorm_wordpool.txt	LTP150	ltpFR	18	11	0	FAIRY	549	n/a	n/a	0	0.422607421875	0.5869140625	0	lower	zerothre.ttf
1538967	WORD	wordpools/wasnorm_wordpool.txt	LTP150	ltpFR	18	11	0	MAN	862	n/a	n/a	1	0.422607421875	0.5869140625	0	lower	zerothre.ttf
1544634	REC_START	n/a	LTP150	ltpFR	18	11	n/a	n/a	n/a	n/a	n/a	n/a	n/a	n/a	n/a	n/a	n/a
1546240	REC_WORD	wordpools/wasnorm_wordpool.txt	LTP150	ltpFR	18	11	0	TOAST	1471	n/a	n/a	0	n/a	n/a	n/a	n/a	n/a
1547662	REC_WORD	wordpools/wasnorm_wordpool.txt	LTP150	ltpFR	18	11	0	FAIRY	549	n/a	n/a	0	n/a	n/a	n/a	n/a	n/a
1549588	REC_WORD	wordpools/wasnorm_wordpool.txt	LTP150	ltpFR	18	11	0	MAN	862	n/a	n/a	1	n/a	n/a	n/a	n/a	n/a
1550974	REC_WORD	wordpools/wasnorm_wordpool.txt	LTP150	ltpFR	18	11	0	SPHINX	1349	n/a	n/a	1	n/a	n/a	n/a	n/a	n/a
1552720	REC_WORD	wordpools/wasnorm_wordpool.txt	LTP150	ltpFR	18	11	0	SIBLING	1301	n/a	n/a	0	n/a	n/a	n/a	n/a	n/a
1554671	REC_WORD	wordpools/wasnorm_wordpool.txt	LTP150	ltpFR	18	11	0	BUNNY	198	n/a	n/a	0	n/a	n/a	n/a	n/a	n/a
1556157	REC_WORD	wordpools/wasnorm_wordpool.txt	LTP150	ltpFR	18	11	0	THORN	1459	n/a	n/a	0	n/a	n/a	n/a	n/a	n/a
1557858	REC_WORD	wordpools/wasnorm_wordpool.txt	LTP150	ltpFR	18	11	0	FLOWER	584	n/a	n/a	0	n/a	n/a	n/a	n/a	n/a
1559819	REC_WORD	wordpools/wasnorm_wordpool.txt	LTP150	ltpFR	18	11	0	HARE	688	n/a	n/a	0	n/a	n/a	n/a	n/a	n/a
1561555	REC_WORD	wordpools/wasnorm_wordpool.txt	LTP150	ltpFR	18	11	0	BASKET	95	n/a	n/a	0	n/a	n/a	n/a	n/a	n/a
1563341	REC_WORD	wordpools/wasnorm_wordpool.txt	LTP150	ltpFR	18	11	0	JELLY	755	n/a	n/a	0	n/a	n/a	n/a	n/a	n/a
1566394	REC_WORD	wordpools/wasnorm_wordpool.txt	LTP150	ltpFR	18	11	0	COYOTE	396	n/a	n/a	1	n/a	n/a	n/a	n/a	n/a
1568046	REC_WORD	wordpools/wasnorm_wordpool.txt	LTP150	ltpFR	18	11	0	BARK	87	n/a	n/a	0	n/a	n/a	n/a	n/a	n/a
1569742	REC_WORD	wordpools/wasnorm_wordpool.txt	LTP150	ltpFR	18	11	0	PIT	1077	n/a	n/a	0	n/a	n/a	n/a	n/a	n/a
1571338	REC_WORD	wordpools/wasnorm_wordpool.txt	LTP150	ltpFR	18	11	0	KEY	773	n/a	n/a	0	n/a	n/a	n/a	n/a	n/a
1581874	REC_WORD	wordpools/wasnorm_wordpool.txt	LTP150	ltpFR	18	11	0	NOVEL	960	n/a	n/a	0	n/a	n/a	n/a	n/a	n/a
1622622	WORD	wordpools/wasnorm_wordpool.txt	LTP150	ltpFR	18	12	0	DISC	473	n/a	n/a	0	0.422607421875	0.5869140625	0	lower	zerothre.ttf
1626612	WORD	wordpools/wasnorm_wordpool.txt	LTP150	ltpFR	18	12	0	AUDIENCE	59	n/a	n/a	1	0.422607421875	0.5869140625	0	lower	zerothre.ttf
1630577	WORD	wordpools/wasnorm_wordpool.txt	LTP150	ltpFR	18	12	1	VACUUM	1543	n/a	n/a	0	0.57763671875	0.412841796875	1	upper	amplitud.ttf
1634509	WORD	wordpools/wasnorm_wordpool.txt	LTP150	ltpFR	18	12	1	BEDROOM	111	n/a	n/a	0	0.57763671875	0.412841796875	1	upper	amplitud.ttf
1638333	WORD	wordpools/wasnorm_wordpool.txt	LTP150	ltpFR	18	12	1	MATTRESS	879	n/a	n/a	0	0.57763671875	0.412841796875	1	upper	amplitud.ttf
1642481	WORD	wordpools/wasnorm_wordpool.txt	LTP150	ltpFR	18	12	0	TUBA	1515	n/a	n/a	1	0.422607421875	0.5869140625	0	lower	zerothre.ttf
1646313	WORD	wordpools/wasnorm_wordpool.txt	LTP150	ltpFR	18	12	0	CHAUFFEUR	283	n/a	n/a	1	0.422607421875	0.5869140625	0	lower	zerothre.ttf
1650170	WORD	wordpools/wasnorm_wordpool.txt	LTP150	ltpFR	18	12	0	NAPKIN	937	n/a	n/a	0	0.422607421875	0.5869140625	0	lower	zerothre.ttf
1654061	WORD	wordpools/wasnorm_wordpool.txt	LTP150	ltpFR	18	12	1	WAITER	1580	n/a	n/a	1	0.57763671875	0.412841796875	1	upper	amplitud.ttf
1658059	WORD	wordpools/wasnorm_wordpool.txt	LTP150	ltpFR	18	12	1	FROG	608	n/a	n/a	1	0.57763671875	0.412841796875	1	upper	amplitud.ttf
1662099	WORD	wordpools/wasnorm_wordpool.txt	LTP150	ltpFR	18	12	1	CAR	241	n/a	n/a	0	0.57763671875	0.412841796875	1	upper	amplitud.ttf
1666148	WORD	wordpools/wasnorm_wordpool.txt	LTP150	ltpFR	18	12	1	SERVANT	1271	n/a	n/a	1	0.57763671875	0.412841796875	1	upper	amplitud.ttf
1670347	WORD	wordpools/wasnorm_wordpool.txt	LTP150	ltpFR	18	12	1	FINGERNAIL	568	n/a	n/a	0	0.57763671875	0.412841796875	1	upper	amplitud.ttf
1674195	WORD	wordpools/wasnorm_wordpool.txt	LTP150	ltpFR	18	12	0	ANKLE	24	n/a	n/a	0	0.422607421875	0.5869140625	0	lower	zerothre.ttf
1678219	WORD	wordpools/wasnorm_wordpool.txt	LTP150	ltpFR	18	12	0	STOVE	1388	n/a	n/a	1	0.422607421875	0.5869140625	0	lower	zerothre.ttf
1682384	WORD	wordpools/wasnorm_wordpool.txt	LTP150	ltpFR	18	12	0	DINER	467	n/a	n/a	1	0.422607421875	0.5869140625	0	lower	zerothre.ttf
1688333	REC_START	n/a	LTP150	ltpFR	18	12	n/a	n/a	n/a	n/a	n/a	n/a	n/a	n/a	n/a	n/a	n/a
1689236	REC_WORD	wordpools/wasnorm_wordpool.txt	LTP150	ltpFR	18	12	0	STOVE	1388	n/a	n/a	1	n/a	n/a	n/a	n/a	n/a
1690947	REC_WORD	wordpools/wasnorm_wordpool.txt	LTP150	ltpFR	18	12	0	DINER	467	n/a	n/a	1	n/a	n/a	n/a	n/a	n/a
1692189	REC_WORD	wordpools/wasnorm_wordpool.txt	LTP150	ltpFR	18	12	0	NAPKIN	937	n/a	n/a	0	n/a	n/a	n/a	n/a	n/a
1693591	REC_WORD	wordpools/wasnorm_wordpool.txt	LTP150	ltpFR	18	12	1	WAITER	1580	n/a	n/a	1	n/a	n/a	n/a	n/a	n/a
1694708	REC_WORD	wordpools/wasnorm_wordpool.txt	LTP150	ltpFR	18	12	1	FROG	608	n/a	n/a	1	n/a	n/a	n/a	n/a	n/a
1695950	REC_WORD	wordpools/wasnorm_wordpool.txt	LTP150	ltpFR	18	12	1	CAR	241	n/a	n/a	0	n/a	n/a	n/a	n/a	n/a
1697098	REC_WORD	wordpools/wasnorm_wordpool.txt	LTP150	ltpFR	18	12	1	SERVANT	1271	n/a	n/a	1	n/a	n/a	n/a	n/a	n/a
1698220	REC_WORD	wordpools/wasnorm_wordpool.txt	LTP150	ltpFR	18	12	1	FINGERNAIL	568	n/a	n/a	0	n/a	n/a	n/a	n/a	n/a
1699672	REC_WORD	wordpools/wasnorm_wordpool.txt	LTP150	ltpFR	18	12	0	ANKLE	24	n/a	n/a	0	n/a	n/a	n/a	n/a	n/a
1702466	REC_WORD	wordpools/wasnorm_wordpool.txt	LTP150	ltpFR	18	12	0	DISC	473	n/a	n/a	0	n/a	n/a	n/a	n/a	n/a
1703573	REC_WORD	wordpools/wasnorm_wordpool.txt	LTP150	ltpFR	18	12	0	AUDIENCE	59	n/a	n/a	1	n/a	n/a	n/a	n/a	n/a
1704770	REC_WORD	wordpools/wasnorm_wordpool.txt	LTP150	ltpFR	18	12	1	VACUUM	1543	n/a	n/a	0	n/a	n/a	n/a	n/a	n/a
1706207	REC_WORD	wordpools/wasnorm_wordpool.txt	LTP150	ltpFR	18	12	1	BEDROOM	111	n/a	n/a	0	n/a	n/a	n/a	n/a	n/a
1707479	REC_WORD	wordpools/wasnorm_wordpool.txt	LTP150	ltpFR	18	12	1	MATTRESS	879	n/a	n/a	0	n/a	n/a	n/a	n/a	n/a
1708761	REC_WORD	wordpools/wasnorm_wordpool.txt	LTP150	ltpFR	18	12	0	TUBA	1515	n/a	n/a	1	n/a	n/a	n/a	n/a	n/a
1709555	REC_WORD	wordpools/wasnorm_wordpool.txt	LTP150	ltpFR	18	12	0	CHAUFFEUR	283	n/a	n/a	1	n/a	n/a	n/a	n/a	n/a
1763937	REST_REWET	n/a	LTP150	ltpFR	18	12	n/a	n/a	n/a	n/a	n/a	n/a	n/a	n/a	n/a	n/a	n/a
1959842	WORD	wordpools/wasnorm_wordpool.txt	LTP150	ltpFR	18	13	-1	CARRIAGE	248	n/a	n/a	-1	1.0	1.0	1	upper	Verdana.ttf
1963799	WORD	wordpools/wasnorm_wordpool.txt	LTP150	ltpFR	18	13	-1	PELT	1040	n/a	n/a	-1	1.0	1.0	1	upper	Verdana.ttf
1967716	WORD	wordpools/wasnorm_wordpool.txt	LTP150	ltpFR	18	13	-1	SNORKEL	1336	n/a	n/a	-1	1.0	1.0	1	upper	Verdana.ttf
1971863	WORD	wordpools/wasnorm_wordpool.txt	LTP150	ltpFR	18	13	-1	KEG	770	n/a	n/a	-1	1.0	1.0	1	upper	Verdana.ttf
1975820	WORD	wordpools/wasnorm_wordpool.txt	LTP150	ltpFR	18	13	-1	PLUM	1090	n/a	n/a	-1	1.0	1.0	1	upper	Verdana.ttf
1979944	WORD	wordpools/wasnorm_wordpool.txt	LTP150	ltpFR	18	13	-1	ELECTRICIAN	521	n/a	n/a	-1	1.0	1.0	1	upper	Verdana.ttf
1984060	WORD	wordpools/wasnorm_wordpool.txt	LTP150	ltpFR	18	13	-1	WICK	1607	n/a	n/a	-1	1.0	1.0	1	upper	Verdana.ttf
1988016	WORD	wordpools/wasnorm_wordpool.txt	LTP150	ltpFR	18	13	-1	SHIRT	1287	n/a	n/a	-1	1.0	1.0	1	upper	Verdana.ttf
1992107	WORD	wordpools/wasnorm_wordpool.txt	LTP150	ltpFR	18	13	-1	RAFT	1159	n/a	n/a	-1	1.0	1.0	1	upper	Verdana.ttf
1996172	WORD	wordpools/wasnorm_wordpool.txt	LTP150	ltpFR	18	13	-1	TANK	1432	n/a	n/a	-1	1.0	1.0	1	upper	Verdana.ttf
2000112	WORD	wordpools/wasnorm_wordpool.txt	LTP150	ltpFR	18	13	-1	PORCUPINE	1107	n/a	n/a	-1	1.0	1.0	1	upper	Verdana.ttf
2004161	WORD	wordpools/wasnorm_wordpool.txt	LTP150	ltpFR	18	13	-1	SLACKS	1323	n/a	n/a	-1	1.0	1.0	1	upper	Verdana.ttf
2008160	WORD	wordpools/wasnorm_wordpool.txt	LTP150	ltpFR	18	13	-1	GRAVEL	659	n/a	n/a	-1	1.0	1.0	1	upper	Verdana.ttf
2012141	WORD	wordpools/wasnorm_wordpool.txt	LTP150	ltpFR	18	13	-1	NURSERY	964	n/a	n/a	-1	1.0	1.0	1	upper	Verdana.ttf
2016340	WORD	wordpools/wasnorm_wordpool.txt	LTP150	ltpFR	18	13	-1	CONTINENT	367	n/a	n/a	-1	1.0	1.0	1	upper	Verdana.ttf
2020222	WORD	wordpools/wasnorm_wordpool.txt	LTP150	ltpFR	18	13	-1	ASIA	46	n/a	n/a	-1	1.0	1.0	1	upper	Verdana.ttf
2025778	REC_START	n/a	LTP150	ltpFR	18	13	n/a	n/a	n/a	n/a	n/a	n/a	n/a	n/a	n/a	n/a	n/a
2029330	REC_WORD	wordpools/wasnorm_wordpool.txt	LTP150	ltpFR	18	13	-1	NURSERY	964	n/a	n/a	-1	n/a	n/a	n/a	n/a	n/a
2030442	REC_WORD	wordpools/wasnorm_wordpool.txt	LTP150	ltpFR	18	13	-1	CONTINENT	367	n/a	n/a	-1	n/a	n/a	n/a	n/a	n/a
2031515	REC_WORD	wordpools/wasnorm_wordpool.txt	LTP150	ltpFR	18	13	-1	ASIA	46	n/a	n/a	-1	n/a	n/a	n/a	n/a	n/a
2032722	REC_WORD	wordpools/wasnorm_wordpool.txt	LTP150	ltpFR	18	13	-1	GRAVEL	659	n/a	n/a	-1	n/a	n/a	n/a	n/a	n/a
2042929	REC_WORD	wordpools/wasnorm_wordpool.txt	LTP150	ltpFR	18	13	-1	CARRIAGE	248	n/a	n/a	-1	n/a	n/a	n/a	n/a	n/a
2044216	REC_WORD	wordpools/wasnorm_wordpool.txt	LTP150	ltpFR	18	13	-1	PELT	1040	n/a	n/a	-1	n/a	n/a	n/a	n/a	n/a
2045248	REC_WORD	wordpools/wasnorm_wordpool.txt	LTP150	ltpFR	18	13	-1	SNORKEL	1336	n/a	n/a	-1	n/a	n/a	n/a	n/a	n/a
2047439	REC_WORD	wordpools/wasnorm_wordpool.txt	LTP150	ltpFR	18	13	-1	KEG	770	n/a	n/a	-1	n/a	n/a	n/a	n/a	n/a
2048815	REC_WORD	wordpools/wasnorm_wordpool.txt	LTP150	ltpFR	18	13	n/a	WINE	1613	n/a	n/a	n/a	n/a	n/a	n/a	n/a	n/a
2050786	REC_WORD	wordpools/wasnorm_wordpool.txt	LTP150	ltpFR	18	13	-1	ELECTRICIAN	521	n/a	n/a	-1	n/a	n/a	n/a	n/a	n/a
2054742	REC_WORD	wordpools/wasnorm_wordpool.txt	LTP150	ltpFR	18	13	-1	SLACKS	1323	n/a	n/a	-1	n/a	n/a	n/a	n/a	n/a
2059386	REC_WORD	wordpools/wasnorm_wordpool.txt	LTP150	ltpFR	18	13	-1	WICK	1607	n/a	n/a	-1	n/a	n/a	n/a	n/a	n/a
2064106	REC_WORD	wordpools/wasnorm_wordpool.txt	LTP150	ltpFR	18	13	-1	SHIRT	1287	n/a	n/a	-1	n/a	n/a	n/a	n/a	n/a
2070676	REC_WORD	wordpools/wasnorm_wordpool.txt	LTP150	ltpFR	18	13	-1	TANK	1432	n/a	n/a	-1	n/a	n/a	n/a	n/a	n/a
2073803	REC_WORD	wordpools/wasnorm_wordpool.txt	LTP150	ltpFR	18	13	-1	PORCUPINE	1107	n/a	n/a	-1	n/a	n/a	n/a	n/a	n/a
2082374	REC_WORD	wordpools/wasnorm_wordpool.txt	LTP150	ltpFR	18	13	-1	PLUM	1090	n/a	n/a	-1	n/a	n/a	n/a	n/a	n/a
2093668	REC_WORD	wordpools/wasnorm_wordpool.txt	LTP150	ltpFR	18	13	-1	GRAVEL	659	n/a	n/a	-1	n/a	n/a	n/a	n/a	n/a
2096038	REC_WORD	wordpools/wasnorm_wordpool.txt	LTP150	ltpFR	18	13	-1	SLACKS	1323	n/a	n/a	-1	n/a	n/a	n/a	n/a	n/a
2103883	WORD	wordpools/wasnorm_wordpool.txt	LTP150	ltpFR	18	14	-1	GARAGE	621	n/a	n/a	-1	1.0	1.0	1	upper	Verdana.ttf
2107906	WORD	wordpools/wasnorm_wordpool.txt	LTP150	ltpFR	18	14	-1	UNIFORM	1539	n/a	n/a	-1	1.0	1.0	1	upper	Verdana.ttf
2111880	WORD	wordpools/wasnorm_wordpool.txt	LTP150	ltpFR	18	14	-1	GREASE	660	n/a	n/a	-1	1.0	1.0	1	upper	Verdana.ttf
2115804	WORD	wordpools/wasnorm_wordpool.txt	LTP150	ltpFR	18	14	-1	AUTOMOBILE	62	n/a	n/a	-1	1.0	1.0	1	upper	Verdana.ttf
2119952	WORD	wordpools/wasnorm_wordpool.txt	LTP150	ltpFR	18	14	-1	CLAM	315	n/a	n/a	-1	1.0	1.0	1	upper	Verdana.ttf
2123926	WORD	wordpools/wasnorm_wordpool.txt	LTP150	ltpFR	18	14	-1	BRACES	164	n/a	n/a	-1	1.0	1.0	1	upper	Verdana.ttf
2127899	WORD	wordpools/wasnorm_wordpool.txt	LTP150	ltpFR	18	14	-1	CRICKET	408	n/a	n/a	-1	1.0	1.0	1	upper	Verdana.ttf
2132006	WORD	wordpools/wasnorm_wordpool.txt	LTP150	ltpFR	18	14	-1	CHIPMUNK	304	n/a	n/a	-1	1.0	1.0	1	upper	Verdana.ttf
2136139	WORD	wordpools/wasnorm_wordpool.txt	LTP150	ltpFR	18	14	-1	BUS	201	n/a	n/a	-1	1.0	1.0	1	upper	Verdana.ttf
2140196	WORD	wordpools/wasnorm_wordpool.txt	LTP150	ltpFR	18	14	-1	LASER	801	n/a	n/a	-1	1.0	1.0	1	upper	Verdana.ttf
2144027	WORD	wordpools/wasnorm_wordpool.txt	LTP150	ltpFR	18	14	-1	CHARCOAL	281	n/a	n/a	-1	1.0	1.0	1	upper	Verdana.ttf
2147984	WORD	wordpools/wasnorm_wordpool.txt	LTP150	ltpFR	18	14	-1	SUBMARINE	1398	n/a	n/a	-1	1.0	1.0	1	upper	Verdana.ttf
2151882	WORD	wordpools/wasnorm_wordpool.txt	LTP150	ltpFR	18	14	-1	FOUNTAIN	597	n/a	n/a	-1	1.0	1.0	1	upper	Verdana.ttf
2155998	WORD	wordpools/wasnorm_wordpool.txt	LTP150	ltpFR	18	14	-1	COP	376	n/a	n/a	-1	1.0	1.0	1	upper	Verdana.ttf
2160155	WORD	wordpools/wasnorm_wordpool.txt	LTP150	ltpFR	18	14	-1	SPOON	1357	n/a	n/a	-1	1.0	1.0	1	upper	Verdana.ttf
2164112	WORD	wordpools/wasnorm_wordpool.txt	LTP150	ltpFR	18	14	-1	CACTUS	215	n/a	n/a	-1	1.0	1.0	1	upper	Verdana.ttf
2169793	REC_START	n/a	LTP150	ltpFR	18	14	n/a	n/a	n/a	n/a	n/a	n/a	n/a	n/a	n/a	n/a	n/a
2170870	REC_WORD	wordpools/wasnorm_wordpool.txt	LTP150	ltpFR	18	14	-1	CHARCOAL	281	n/a	n/a	-1	n/a	n/a	n/a	n/a	n/a
2172137	REC_WORD	wordpools/wasnorm_wordpool.txt	LTP150	ltpFR	18	14	-1	SUBMARINE	1398	n/a	n/a	-1	n/a	n/a	n/a	n/a	n/a
2176473	REC_WORD	wordpools/wasnorm_wordpool.txt	LTP150	ltpFR	18	14	-1	COP	376	n/a	n/a	-1	n/a	n/a	n/a	n/a	n/a
2178613	REC_WORD	wordpools/wasnorm_wordpool.txt	LTP150	ltpFR	18	14	-1	CACTUS	215	n/a	n/a	-1	n/a	n/a	n/a	n/a	n/a
2180394	REC_WORD	wordpools/wasnorm_wordpool.txt	LTP150	ltpFR	18	14	-1	SPOON	1357	n/a	n/a	-1	n/a	n/a	n/a	n/a	n/a
2184993	REC_WORD	wordpools/wasnorm_wordpool.txt	LTP150	ltpFR	18	14	-1	BUS	201	n/a	n/a	-1	n/a	n/a	n/a	n/a	n/a
2186235	REC_WORD	wordpools/wasnorm_wordpool.txt	LTP150	ltpFR	18	14	-1	LASER	801	n/a	n/a	-1	n/a	n/a	n/a	n/a	n/a
2187358	REC_WORD	wordpools/wasnorm_wordpool.txt	LTP150	ltpFR	18	14	-1	GARAGE	621	n/a	n/a	-1	n/a	n/a	n/a	n/a	n/a
2188515	REC_WORD	wordpools/wasnorm_wordpool.txt	LTP150	ltpFR	18	14	-1	UNIFORM	1539	n/a	n/a	-1	n/a	n/a	n/a	n/a	n/a
2189847	REC_WORD	wordpools/wasnorm_wordpool.txt	LTP150	ltpFR	18	14	-1	GREASE	660	n/a	n/a	-1	n/a	n/a	n/a	n/a	n/a
2190935	REC_WORD	wordpools/wasnorm_wordpool.txt	LTP150	ltpFR	18	14	-1	AUTOMOBILE	62	n/a	n/a	-1	n/a	n/a	n/a	n/a	n/a
2194407	REC_WORD	wordpools/wasnorm_wordpool.txt	LTP150	ltpFR	18	14	-1	CLAM	315	n/a	n/a	-1	n/a	n/a	n/a	n/a	n/a
2195634	REC_WORD	wordpools/wasnorm_wordpool.txt	LTP150	ltpFR	18	14	-1	BRACES	164	n/a	n/a	-1	n/a	n/a	n/a	n/a	n/a
2197265	REC_WORD	wordpools/wasnorm_wordpool.txt	LTP150	ltpFR	18	14	-1	CHIPMUNK	304	n/a	n/a	-1	n/a	n/a	n/a	n/a	n/a
2214386	REC_WORD	wordpools/wasnorm_wordpool.txt	LTP150	ltpFR	18	14	-1	SPOON	1357	n/a	n/a	-1	n/a	n/a	n/a	n/a	n/a
2230724	REC_WORD	wordpools/wasnorm_wordpool.txt	LTP150	ltpFR	18	14	-1	CLAM	315	n/a	n/a	-1	n/a	n/a	n/a	n/a	n/a
2247982	WORD	wordpools/wasnorm_wordpool.txt	LTP150	ltpFR	18	15	1	OPERATOR	979	n/a	n/a	1	0.57763671875	0.412841796875	1	upper	amplitud.ttf
2251997	WORD	wordpools/wasnorm_wordpool.txt	LTP150	ltpFR	18	15	1	DIAL	457	n/a	n/a	0	0.57763671875	0.412841796875	1	upper	amplitud.ttf
2256046	WORD	wordpools/wasnorm_wordpool.txt	LTP150	ltpFR	18	15	1	SCREWDRIVER	1255	n/a	n/a	0	0.57763671875	0.412841796875	1	upper	amplitud.ttf
2260036	WORD	wordpools/wasnorm_wordpool.txt	LTP150	ltpFR	18	15	1	SAW	1239	n/a	n/a	0	0.57763671875	0.412841796875	1	upper	amplitud.ttf
2263884	WORD	wordpools/wasnorm_wordpool.txt	LTP150	ltpFR	18	15	0	YOLK	1633	n/a	n/a	0	0.422607421875	0.5869140625	0	lower	zerothre.ttf
2268092	WORD	wordpools/wasnorm_wordpool.txt	LTP150	ltpFR	18	15	0	DOLLAR	482	n/a	n/a	0	0.422607421875	0.5869140625	0	lower	zerothre.ttf
2272107	WORD	wordpools/wasnorm_wordpool.txt	LTP150	ltpFR	18	15	0	SCREEN	1253	n/a	n/a	0	0.422607421875	0.5869140625	0	lower	zerothre.ttf
2276056	WORD	wordpools/wasnorm_wordpool.txt	LTP150	ltpFR	18	15	0	DUCK	504	n/a	n/a	1	0.422607421875	0.5869140625	0	lower	zerothre.ttf
2280012	WORD	wordpools/wasnorm_wordpool.txt	LTP150	ltpFR	18	15	0	REFEREE	1178	n/a	n/a	1	0.422607421875	0.5869140625	0	lower	zerothre.ttf
2284153	WORD	wordpools/wasnorm_wordpool.txt	LTP150	ltpFR	18	15	1	LID	817	n/a	n/a	0	0.57763671875	0.412841796875	1	upper	amplitud.ttf
2288034	WORD	wordpools/wasnorm_wordpool.txt	LTP150	ltpFR	18	15	1	REPORT	1184	n/a	n/a	0	0.57763671875	0.412841796875	1	upper	amplitud.ttf
2292067	WORD	wordpools/wasnorm_wordpool.txt	LTP150	ltpFR	18	15	1	MONEY	908	n/a	n/a	0	0.57763671875	0.412841796875	1	upper	amplitud.ttf
2296157	WORD	wordpools/wasnorm_wordpool.txt	LTP150	ltpFR	18	15	1	ANTENNA	28	n/a	n/a	0	0.57763671875	0.412841796875	1	upper	amplitud.ttf
2299996	WORD	wordpools/wasnorm_wordpool.txt	LTP150	ltpFR	18	15	0	CUPBOARD	425	n/a	n/a	1	0.422607421875	0.5869140625	0	lower	zerothre.ttf
2303820	WORD	wordpools/wasnorm_wordpool.txt	LTP150	ltpFR	18	15	0	CRITIC	410	n/a	n/a	1	0.422607421875	0.5869140625	0	lower	zerothre.ttf
2307760	WORD	wordpools/wasnorm_wordpool.txt	LTP150	ltpFR	18	15	0	SPY	1360	n/a	n/a	1	0.422607421875	0.5869140625	0	lower	zerothre.ttf
2313710	REC_START	n/a	LTP150	ltpFR	18	15	n/a	n/a	n/a	n/a	n/a	n/a	n/a	n/a	n/a	n/a	n/a
2314643	REC_WORD	wordpools/wasnorm_wordpool.txt	LTP150	ltpFR	18	15	1	LID	817	n/a	n/a	0	n/a	n/a	n/a	n/a	n/a
2315954	REC_WORD	wordpools/wasnorm_wordpool.txt	LTP150	ltpFR	18	15	1	REPORT	1184	n/a	n/a	0	n/a	n/a	n/a	n/a	n/a
2317297	REC_WORD	wordpools/wasnorm_wordpool.txt	LTP150	ltpFR	18	15	1	MONEY	908	n/a	n/a	0	n/a	n/a	n/a	n/a	n/a
2318644	REC_WORD	wordpools/wasnorm_wordpool.txt	LTP150	ltpFR	18	15	1	ANTENNA	28	n/a	n/a	0	n/a	n/a	n/a	n/a	n/a
2320360	REC_WORD	wordpools/wasnorm_wordpool.txt	LTP150	ltpFR	18	15	0	CUPBOARD	425	n/a	n/a	1	n/a	n/a	n/a	n/a	n/a
2321796	REC_WORD_VV	wordpools/wasnorm_wordpool.txt	LTP150	ltpFR	18	15	n/a	<>	-1	n/a	n/a	n/a	n/a	n/a	n/a	n/a	n/a
2323413	REC_WORD	wordpools/wasnorm_wordpool.txt	LTP150	ltpFR	18	15	0	CRITIC	410	n/a	n/a	1	n/a	n/a	n/a	n/a	n/a
2324625	REC_WORD	wordpools/wasnorm_wordpool.txt	LTP150	ltpFR	18	15	0	SPY	1360	n/a	n/a	1	n/a	n/a	n/a	n/a	n/a
2326950	REC_WORD	wordpools/wasnorm_wordpool.txt	LTP150	ltpFR	18	15	-1	CRICKET	408	n/a	n/a	-1	n/a	n/a	n/a	n/a	n/a
2335435	REC_WORD	wordpools/wasnorm_wordpool.txt	LTP150	ltpFR	18	15	0	DOLLAR	482	n/a	n/a	0	n/a	n/a	n/a	n/a	n/a
2336224	REC_WORD	wordpools/wasnorm_wordpool.txt	LTP150	ltpFR	18	15	0	SCREEN	1253	n/a	n/a	0	n/a	n/a	n/a	n/a	n/a
2337516	REC_WORD	wordpools/wasnorm_wordpool.txt	LTP150	ltpFR	18	15	0	DUCK	504	n/a	n/a	1	n/a	n/a	n/a	n/a	n/a
2338419	REC_WORD	wordpools/wasnorm_wordpool.txt	LTP150	ltpFR	18	15	0	YOLK	1633	n/a	n/a	0	n/a	n/a	n/a	n/a	n/a
2359481	REC_WORD	wordpools/wasnorm_wordpool.txt	LTP150	ltpFR	18	15	-1	CARRIAGE	248	n/a	n/a	-1	n/a	n/a	n/a	n/a	n/a
2360538	REC_WORD	wordpools/wasnorm_wordpool.txt	LTP150	ltpFR	18	15	-1	GARAGE	621	n/a	n/a	-1	n/a	n/a	n/a	n/a	n/a
2385761	REC_WORD	wordpools/wasnorm_wordpool.txt	LTP150	ltpFR	18	15	1	SCREWDRIVER	1255	n/a	n/a	0	n/a	n/a	n/a	n/a	n/a
2387303	REC_WORD	wordpools/wasnorm_wordpool.txt	LTP150	ltpFR	18	15	1	SAW	1239	n/a	n/a	0	n/a	n/a	n/a	n/a	n/a
2388610	REC_WORD_VV	wordpools/wasnorm_wordpool.txt	LTP150	ltpFR	18	15	n/a	<>	-1	n/a	n/a	n/a	n/a	n/a	n/a	n/a	n/a
2392564	WORD	wordpools/wasnorm_wordpool.txt	LTP150	ltpFR	18	16	0	LUMBER	848	n/a	n/a	1	0.422607421875	0.5869140625	0	lower	zerothre.ttf
2396630	WORD	wordpools/wasnorm_wordpool.txt	LTP150	ltpFR	18	16	0	PLAID	1080	n/a	n/a	0	0.422607421875	0.5869140625	0	lower	zerothre.ttf
2400785	WORD	wordpools/wasnorm_wordpool.txt	LTP150	ltpFR	18	16	0	CRATER	400	n/a	n/a	0	0.422607421875	0.5869140625	0	lower	zerothre.ttf
2404926	WORD	wordpools/wasnorm_wordpool.txt	LTP150	ltpFR	18	16	0	RECEPTIONIST	1174	n/a	n/a	1	0.422607421875	0.5869140625	0	lower	zerothre.ttf
2408991	WORD	wordpools/wasnorm_wordpool.txt	LTP150	ltpFR	18	16	1	WORKER	1621	n/a	n/a	1	0.57763671875	0.412841796875	1	upper	amplitud.ttf
2412906	WORD	wordpools/wasnorm_wordpool.txt	LTP150	ltpFR	18	16	1	LAPEL	800	n/a	n/a	0	0.57763671875	0.412841796875	1	upper	amplitud.ttf
2416963	WORD	wordpools/wasnorm_wordpool.txt	LTP150	ltpFR	18	16	1	CLOTHES	327	n/a	n/a	0	0.57763671875	0.412841796875	1	upper	amplitud.ttf
2420903	WORD	wordpools/wasnorm_wordpool.txt	LTP150	ltpFR	18	16	1	BEAR	106	n/a	n/a	1	0.57763671875	0.412841796875	1	upper	amplitud.ttf
2424927	WORD	wordpools/wasnorm_wordpool.txt	LTP150	ltpFR	18	16	1	SHRUB	1299	n/a	n/a	0	0.57763671875	0.412841796875	1	upper	amplitud.ttf
2428975	WORD	wordpools/wasnorm_wordpool.txt	LTP150	ltpFR	18	16	0	LAWYER	806	n/a	n/a	1	0.422607421875	0.5869140625	0	lower	zerothre.ttf
2432941	WORD	wordpools/wasnorm_wordpool.txt	LTP150	ltpFR	18	16	0	LEOPARD	812	n/a	n/a	1	0.422607421875	0.5869140625	0	lower	zerothre.ttf
2437123	WORD	wordpools/wasnorm_wordpool.txt	LTP150	ltpFR	18	16	0	FLANNEL	574	n/a	n/a	0	0.422607421875	0.5869140625	0	lower	zerothre.ttf
2440963	WORD	wordpools/wasnorm_wordpool.txt	LTP150	ltpFR	18	16	0	DIPLOMA	470	n/a	n/a	0	0.422607421875	0.5869140625	0	lower	zerothre.ttf
2444786	WORD	wordpools/wasnorm_wordpool.txt	LTP150	ltpFR	18	16	1	UNIVERSITY	1541	n/a	n/a	0	0.57763671875	0.412841796875	1	upper	amplitud.ttf
2448818	WORD	wordpools/wasnorm_wordpool.txt	LTP150	ltpFR	18	16	1	SILVERWARE	1308	n/a	n/a	0	0.57763671875	0.412841796875	1	upper	amplitud.ttf
2453008	WORD	wordpools/wasnorm_wordpool.txt	LTP150	ltpFR	18	16	1	MARBLE	867	n/a	n/a	0	0.57763671875	0.412841796875	1	upper	amplitud.ttf
2459007	REC_START	n/a	LTP150	ltpFR	18	16	n/a	n/a	n/a	n/a	n/a	n/a	n/a	n/a	n/a	n/a	n/a
2459955	REC_WORD	wordpools/wasnorm_wordpool.txt	LTP150	ltpFR	18	16	1	MARBLE	867	n/a	n/a	0	n/a	n/a	n/a	n/a	n/a
2463566	REC_WORD	wordpools/wasnorm_wordpool.txt	LTP150	ltpFR	18	16	1	SILVERWARE	1308	n/a	n/a	0	n/a	n/a	n/a	n/a	n/a
2468620	REC_WORD	wordpools/wasnorm_wordpool.txt	LTP150	ltpFR	18	16	0	LUMBER	848	n/a	n/a	1	n/a	n/a	n/a	n/a	n/a
2470116	REC_WORD	wordpools/wasnorm_wordpool.txt	LTP150	ltpFR	18	16	0	PLAID	1080	n/a	n/a	0	n/a	n/a	n/a	n/a	n/a
2471922	REC_WORD	wordpools/wasnorm_wordpool.txt	LTP150	ltpFR	18	16	0	CRATER	400	n/a	n/a	0	n/a	n/a	n/a	n/a	n/a
2473738	REC_WORD	wordpools/wasnorm_wordpool.txt	LTP150	ltpFR	18	16	0	RECEPTIONIST	1174	n/a	n/a	1	n/a	n/a	n/a	n/a	n/a
2475345	REC_WORD	wordpools/wasnorm_wordpool.txt	LTP150	ltpFR	18	16	1	WORKER	1621	n/a	n/a	1	n/a	n/a	n/a	n/a	n/a
2476487	REC_WORD	wordpools/wasnorm_wordpool.txt	LTP150	ltpFR	18	16	1	LAPEL	800	n/a	n/a	0	n/a	n/a	n/a	n/a	n/a
2477939	REC_WORD	wordpools/wasnorm_wordpool.txt	LTP150	ltpFR	18	16	1	CLOTHES	327	n/a	n/a	0	n/a	n/a	n/a	n/a	n/a
2479485	REC_WORD	wordpools/wasnorm_wordpool.txt	LTP150	ltpFR	18	16	1	BEAR	106	n/a	n/a	1	n/a	n/a	n/a	n/a	n/a
2480772	REC_WORD	wordpools/wasnorm_wordpool.txt	LTP150	ltpFR	18	16	1	SHRUB	1299	n/a	n/a	0	n/a	n/a	n/a	n/a	n/a
2484264	REC_WORD	wordpools/wasnorm_wordpool.txt	LTP150	ltpFR	18	16	0	LAWYER	806	n/a	n/a	1	n/a	n/a	n/a	n/a	n/a
2485566	REC_WORD	wordpools/wasnorm_wordpool.txt	LTP150	ltpFR	18	16	0	LEOPARD	812	n/a	n/a	1	n/a	n/a	n/a	n/a	n/a
2486743	REC_WORD	wordpools/wasnorm_wordpool.txt	LTP150	ltpFR	18	16	0	FLANNEL	574	n/a	n/a	0	n/a	n/a	n/a	n/a	n/a
2488125	REC_WORD	wordpools/wasnorm_wordpool.txt	LTP150	ltpFR	18	16	0	DIPLOMA	470	n/a	n/a	0	n/a	n/a	n/a	n/a	n/a
2489253	REC_WORD	wordpools/wasnorm_wordpool.txt	LTP150	ltpFR	18	16	1	UNIVERSITY	1541	n/a	n/a	0	n/a	n/a	n/a	n/a	n/a
2549051	REC_START	n/a	LTP150	ltpFR	18	1	n/a	n/a	n/a	n/a	n/a	n/a	n/a	n/a	n/a	n/a	n/a
2549084	RECOG_TARGET	n/a	LTP150	ltpFR	18	1	-1	SHIRT	1287	1	3	-1	n/a	n/a	n/a	n/a	n/a
2550892	RECOG_RESP	n/a	LTP150	ltpFR	18	1	-1	SHIRT	1287	1	n/a	-1	n/a	n/a	n/a	n/a	n/a
2552568	RECOG_CONF	n/a	LTP150	ltpFR	18	1	-1	SHIRT	1287	n/a	3	-1	n/a	n/a	n/a	n/a	n/a
2554090	RECOG_TARGET	n/a	LTP150	ltpFR	18	1	1	WOUND	1624	1	5	0	n/a	n/a	n/a	n/a	n/a
2554703	RECOG_RESP	n/a	LTP150	ltpFR	18	1	1	WOUND	1624	1	n/a	0	n/a	n/a	n/a	n/a	n/a
2555810	RECOG_CONF	n/a	LTP150	ltpFR	18	1	1	WOUND	1624	n/a	5	0	n/a	n/a	n/a	n/a	n/a
2557131	RECOG_TARGET	n/a	LTP150	ltpFR	18	1	-1	SERPENT	1270	1	5	-1	n/a	n/a	n/a	n/a	n/a
2557636	RECOG_RESP	n/a	LTP150	ltpFR	18	1	-1	SERPENT	1270	1	n/a	-1	n/a	n/a	n/a	n/a	n/a
2558444	RECOG_CONF	n/a	LTP150	ltpFR	18	1	-1	SERPENT	1270	n/a	5	-1	n/a	n/a	n/a	n/a	n/a
2559713	RECOG_TARGET	n/a	LTP150	ltpFR	18	1	1	CASH	252	0	3	0	n/a	n/a	n/a	n/a	n/a
2560600	RECOG_RESP	n/a	LTP150	ltpFR	18	1	1	CASH	252	0	n/a	0	n/a	n/a	n/a	n/a	n/a
2561408	RECOG_CONF	n/a	LTP150	ltpFR	18	1	1	CASH	252	n/a	3	0	n/a	n/a	n/a	n/a	n/a
2562720	RECOG_TARGET	n/a	LTP150	ltpFR	18	1	1	CERAMICS	271	1	5	0	n/a	n/a	n/a	n/a	n/a
2563493	RECOG_RESP	n/a	LTP150	ltpFR	18	1	1	CERAMICS	271	1	n/a	0	n/a	n/a	n/a	n/a	n/a
2564221	RECOG_CONF	n/a	LTP150	ltpFR	18	1	1	CERAMICS	271	n/a	5	0	n/a	n/a	n/a	n/a	n/a
2565619	RECOG_TARGET	n/a	LTP150	ltpFR	18	1	0	TUBA	1515	1	5	1	n/a	n/a	n/a	n/a	n/a
2566187	RECOG_RESP	n/a	LTP150	ltpFR	18	1	0	TUBA	1515	1	n/a	1	n/a	n/a	n/a	n/a	n/a
2566865	RECOG_CONF	n/a	LTP150	ltpFR	18	1	0	TUBA	1515	n/a	5	1	n/a	n/a	n/a	n/a	n/a
2568227	RECOG_TARGET	n/a	LTP150	ltpFR	18	1	1	DIME	466	1	5	0	n/a	n/a	n/a	n/a	n/a
2568741	RECOG_RESP	n/a	LTP150	ltpFR	18	1	1	DIME	466	1	n/a	0	n/a	n/a	n/a	n/a	n/a
2569449	RECOG_CONF	n/a	LTP150	ltpFR	18	1	1	DIME	466	n/a	5	0	n/a	n/a	n/a	n/a	n/a
2570866	RECOG_TARGET	n/a	LTP150	ltpFR	18	1	1	SAW	1239	1	5	0	n/a	n/a	n/a	n/a	n/a
2571305	RECOG_RESP	n/a	LTP150	ltpFR	18	1	1	SAW	1239	1	n/a	0	n/a	n/a	n/a	n/a	n/a
2572064	RECOG_CONF	n/a	LTP150	ltpFR	18	1	1	SAW	1239	n/a	5	0	n/a	n/a	n/a	n/a	n/a
2573450	RECOG_TARGET	n/a	LTP150	ltpFR	18	1	0	PECAN	1036	1	5	0	n/a	n/a	n/a	n/a	n/a
2573919	RECOG_RESP	n/a	LTP150	ltpFR	18	1	0	PECAN	1036	1	n/a	0	n/a	n/a	n/a	n/a	n/a
2574688	RECOG_CONF	n/a	LTP150	ltpFR	18	1	0	PECAN	1036	n/a	5	0	n/a	n/a	n/a	n/a	n/a
2576040	RECOG_TARGET	n/a	LTP150	ltpFR	18	1	0	BATH	98	1	5	1	n/a	n/a	n/a	n/a	n/a
2576483	RECOG_RESP	n/a	LTP150	ltpFR	18	1	0	BATH	98	1	n/a	1	n/a	n/a	n/a	n/a	n/a
2577162	RECOG_CONF	n/a	LTP150	ltpFR	18	1	0	BATH	98	n/a	5	1	n/a	n/a	n/a	n/a	n/a
2578498	RECOG_TARGET	n/a	LTP150	ltpFR	18	1	0	CHAUFFEUR	283	1	5	1	n/a	n/a	n/a	n/a	n/a
2579078	RECOG_RESP	n/a	LTP150	ltpFR	18	1	0	CHAUFFEUR	283	1	n/a	1	n/a	n/a	n/a	n/a	n/a
2579776	RECOG_CONF	n/a	LTP150	ltpFR	18	1	0	CHAUFFEUR	283	n/a	5	1	n/a	n/a	n/a	n/a	n/a
2581081	RECOG_LURE	n/a	LTP150	ltpFR	18	1	n/a	TREAD	1499	0	1	n/a	n/a	n/a	n/a	n/a	n/a
2581761	RECOG_RESP	n/a	LTP150	ltpFR	18	1	n/a	TREAD	1499	0	n/a	n/a	n/a	n/a	n/a	n/a	n/a
2582540	RECOG_CONF	n/a	LTP150	ltpFR	18	1	n/a	TREAD	1499	n/a	1	n/a	n/a	n/a	n/a	n/a	n/a
2583928	RECOG_TARGET	n/a	LTP150	ltpFR	18	1	0	PRAIRIE	1118	1	5	1	n/a	n/a	n/a	n/a	n/a
2584585	RECOG_RESP	n/a	LTP150	ltpFR	18	1	0	PRAIRIE	1118	1	n/a	1	n/a	n/a	n/a	n/a	n/a
2585273	RECOG_CONF	n/a	LTP150	ltpFR	18	1	0	PRAIRIE	1118	n/a	5	1	n/a	n/a	n/a	n/a	n/a
2586620	RECOG_TARGET	n/a	LTP150	ltpFR	18	1	1	MAT	877	1	5	0	n/a	n/a	n/a	n/a	n/a
2587129	RECOG_RESP	n/a	LTP150	ltpFR	18	1	1	MAT	877	1	n/a	0	n/a	n/a	n/a	n/a	n/a
2587868	RECOG_CONF	n/a	LTP150	ltpFR	18	1	1	MAT	877	n/a	5	0	n/a	n/a	n/a	n/a	n/a
2589261	RECOG_TARGET	n/a	LTP150	ltpFR	18	1	1	MOUSE	925	1	5	1	n/a	n/a	n/a	n/a	n/a
2589743	RECOG_RESP	n/a	LTP150	ltpFR	18	1	1	MOUSE	925	1	n/a	1	n/a	n/a	n/a	n/a	n/a
2590452	RECOG_CONF	n/a	LTP150	ltpFR	18	1	1	MOUSE	925	n/a	5	1	n/a	n/a	n/a	n/a	n/a
2591884	RECOG_TARGET	n/a	LTP150	ltpFR	18	1	1	NECK	939	1	5	0	n/a	n/a	n/a	n/a	n/a
2592377	RECOG_RESP	n/a	LTP150	ltpFR	18	1	1	NECK	939	1	n/a	0	n/a	n/a	n/a	n/a	n/a
2593066	RECOG_CONF	n/a	LTP150	ltpFR	18	1	1	NECK	939	n/a	5	0	n/a	n/a	n/a	n/a	n/a
2594459	RECOG_TARGET	n/a	LTP150	ltpFR	18	1	1	EMPIRE	530	1	5	0	n/a	n/a	n/a	n/a	n/a
2594842	RECOG_RESP	n/a	LTP150	ltpFR	18	1	1	EMPIRE	530	1	n/a	0	n/a	n/a	n/a	n/a	n/a
2595590	RECOG_CONF	n/a	LTP150	ltpFR	18	1	1	EMPIRE	530	n/a	5	0	n/a	n/a	n/a	n/a	n/a
2596982	RECOG_TARGET	n/a	LTP150	ltpFR	18	1	1	CLOSET	326	1	5	0	n/a	n/a	n/a	n/a	n/a
2597426	RECOG_RESP	n/a	LTP150	ltpFR	18	1	1	CLOSET	326	1	n/a	0	n/a	n/a	n/a	n/a	n/a
2598094	RECOG_CONF	n/a	LTP150	ltpFR	18	1	1	CLOSET	326	n/a	5	0	n/a	n/a	n/a	n/a	n/a
2599416	RECOG_TARGET	n/a	LTP150	ltpFR	18	1	0	MEAL	882	1	5	0	n/a	n/a	n/a	n/a	n/a
2599960	RECOG_RESP	n/a	LTP150	ltpFR	18	1	0	MEAL	882	1	n/a	0	n/a	n/a	n/a	n/a	n/a
2600688	RECOG_CONF	n/a	LTP150	ltpFR	18	1	0	MEAL	882	n/a	5	0	n/a	n/a	n/a	n/a	n/a
2601980	RECOG_LURE	n/a	LTP150	ltpFR	18	1	n/a	BANDANNA	80	0	5	n/a	n/a	n/a	n/a	n/a	n/a
2602574	RECOG_RESP	n/a	LTP150	ltpFR	18	1	n/a	BANDANNA	80	0	n/a	n/a	n/a	n/a	n/a	n/a	n/a
2603263	RECOG_CONF	n/a	LTP150	ltpFR	18	1	n/a	BANDANNA	80	n/a	5	n/a	n/a	n/a	n/a	n/a	n/a
2606066	REC_START	n/a	LTP150	ltpFR	18	2	n/a	n/a	n/a	n/a	n/a	n/a	n/a	n/a	n/a	n/a	n/a
2606105	RECOG_TARGET	n/a	LTP150	ltpFR	18	2	1	ANTENNA	28	1	5	0	n/a	n/a	n/a	n/a	n/a
2606610	RECOG_RESP	n/a	LTP150	ltpFR	18	2	1	ANTENNA	28	1	n/a	0	n/a	n/a	n/a	n/a	n/a
2607318	RECOG_CONF	n/a	LTP150	ltpFR	18	2	1	ANTENNA	28	n/a	5	0	n/a	n/a	n/a	n/a	n/a
2608604	RECOG_LURE	n/a	LTP150	ltpFR	18	2	n/a	PLIERS	1089	0	5	n/a	n/a	n/a	n/a	n/a	n/a
2609204	RECOG_RESP	n/a	LTP150	ltpFR	18	2	n/a	PLIERS	1089	0	n/a	n/a	n/a	n/a	n/a	n/a	n/a
2609902	RECOG_CONF	n/a	LTP150	ltpFR	18	2	n/a	PLIERS	1089	n/a	5	n/a	n/a	n/a	n/a	n/a	n/a
2611186	RECOG_LURE	n/a	LTP150	ltpFR	18	2	n/a	EAGLE	512	0	5	n/a	n/a	n/a	n/a	n/a	n/a
2611798	RECOG_RESP	n/a	LTP150	ltpFR	18	2	n/a	EAGLE	512	0	n/a	n/a	n/a	n/a	n/a	n/a	n/a
2612496	RECOG_CONF	n/a	LTP150	ltpFR	18	2	n/a	EAGLE	512	n/a	5	n/a	n/a	n/a	n/a	n/a	n/a
2613876	RECOG_TARGET	n/a	LTP150	ltpFR	18	2	0	LETTUCE	814	1	5	0	n/a	n/a	n/a	n/a	n/a
2614432	RECOG_RESP	n/a	LTP150	ltpFR	18	2	0	LETTUCE	814	1	n/a	0	n/a	n/a	n/a	n/a	n/a
2615160	RECOG_CONF	n/a	LTP150	ltpFR	18	2	0	LETTUCE	814	n/a	5	0	n/a	n/a	n/a	n/a	n/a
2616418	RECOG_TARGET	n/a	LTP150	ltpFR	18	2	1	SHUTTER	1300	1	5	0	n/a	n/a	n/a	n/a	n/a
2616956	RECOG_RESP	n/a	LTP150	ltpFR	18	2	1	SHUTTER	1300	1	n/a	0	n/a	n/a	n/a	n/a	n/a
2617625	RECOG_CONF	n/a	LTP150	ltpFR	18	2	1	SHUTTER	1300	n/a	5	0	n/a	n/a	n/a	n/a	n/a
2618983	RECOG_TARGET	n/a	LTP150	ltpFR	18	2	1	UNIVERSITY	1541	1	5	0	n/a	n/a	n/a	n/a	n/a
2619450	RECOG_RESP	n/a	LTP150	ltpFR	18	2	1	UNIVERSITY	1541	1	n/a	0	n/a	n/a	n/a	n/a	n/a
2620169	RECOG_CONF	n/a	LTP150	ltpFR	18	2	1	UNIVERSITY	1541	n/a	5	0	n/a	n/a	n/a	n/a	n/a
2621458	RECOG_TARGET	n/a	LTP150	ltpFR	18	2	0	DOCTOR	478	1	5	1	n/a	n/a	n/a	n/a	n/a
2621905	RECOG_RESP	n/a	LTP150	ltpFR	18	2	0	DOCTOR	478	1	n/a	1	n/a	n/a	n/a	n/a	n/a
2622633	RECOG_CONF	n/a	LTP150	ltpFR	18	2	0	DOCTOR	478	n/a	5	1	n/a	n/a	n/a	n/a	n/a
2623973	RECOG_TARGET	n/a	LTP150	ltpFR	18	2	0	STOMACH	1384	1	5	0	n/a	n/a	n/a	n/a	n/a
2624469	RECOG_RESP	n/a	LTP150	ltpFR	18	2	0	STOMACH	1384	1	n/a	0	n/a	n/a	n/a	n/a	n/a
2625177	RECOG_CONF	n/a	LTP150	ltpFR	18	2	0	STOMACH	1384	n/a	5	0	n/a	n/a	n/a	n/a	n/a
2626548	RECOG_LURE	n/a	LTP150	ltpFR	18	2	n/a	CLOCK	325	0	3	n/a	n/a	n/a	n/a	n/a	n/a
2627113	RECOG_RESP	n/a	LTP150	ltpFR	18	2	n/a	CLOCK	325	0	n/a	n/a	n/a	n/a	n/a	n/a	n/a
2627871	RECOG_CONF	n/a	LTP150	ltpFR	18	2	n/a	CLOCK	325	n/a	3	n/a	n/a	n/a	n/a	n/a	n/a
2629255	RECOG_TARGET	n/a	LTP150	ltpFR	18	2	-1	BELLY	119	1	3	-1	n/a	n/a	n/a	n/a	n/a
2629887	RECOG_RESP	n/a	LTP150	ltpFR	18	2	-1	BELLY	119	1	n/a	-1	n/a	n/a	n/a	n/a	n/a
2630665	RECOG_CONF	n/a	LTP150	ltpFR	18	2	-1	BELLY	119	n/a	3	-1	n/a	n/a	n/a	n/a	n/a
2632020	RECOG_TARGET	n/a	LTP150	ltpFR	18	2	-1	AUTOMOBILE	62	1	5	-1	n/a	n/a	n/a	n/a	n/a
2632630	RECOG_RESP	n/a	LTP150	ltpFR	18	2	-1	AUTOMOBILE	62	1	n/a	-1	n/a	n/a	n/a	n/a	n/a
2633339	RECOG_CONF	n/a	LTP150	ltpFR	18	2	-1	AUTOMOBILE	62	n/a	5	-1	n/a	n/a	n/a	n/a	n/a
2634661	RECOG_LURE	n/a	LTP150	ltpFR	18	2	n/a	GAUZE	626	0	3	n/a	n/a	n/a	n/a	n/a	n/a
2635264	RECOG_RESP	n/a	LTP150	ltpFR	18	2	n/a	GAUZE	626	0	n/a	n/a	n/a	n/a	n/a	n/a	n/a
2636093	RECOG_CONF	n/a	LTP150	ltpFR	18	2	n/a	GAUZE	626	n/a	3	n/a	n/a	n/a	n/a	n/a	n/a
2637402	RECOG_TARGET	n/a	LTP150	ltpFR	18	2	1	ROBIN	1199	1	5	1	n/a	n/a	n/a	n/a	n/a
2638048	RECOG_RESP	n/a	LTP150	ltpFR	18	2	1	ROBIN	1199	1	n/a	1	n/a	n/a	n/a	n/a	n/a
2638757	RECOG_CONF	n/a	LTP150	ltpFR	18	2	1	ROBIN	1199	n/a	5	1	n/a	n/a	n/a	n/a	n/a
2640017	RECOG_LURE	n/a	LTP150	ltpFR	18	2	n/a	CLARINET	317	0	5	n/a	n/a	n/a	n/a	n/a	n/a
2640642	RECOG_RESP	n/a	LTP150	ltpFR	18	2	n/a	CLARINET	317	0	n/a	n/a	n/a	n/a	n/a	n/a	n/a
2641381	RECOG_CONF	n/a	LTP150	ltpFR	18	2	n/a	CLARINET	317	n/a	5	n/a	n/a	n/a	n/a	n/a	n/a
2642642	RECOG_TARGET	n/a	LTP150	ltpFR	18	2	1	WAITER	1580	1	5	1	n/a	n/a	n/a	n/a	n/a
2643396	RECOG_RESP_VV	n/a	LTP150	ltpFR	18	2	1	WAITER	1580	0	n/a	1	n/a	n/a	n/a	n/a	n/a
2643795	RECOG_RESP	n/a	LTP150	ltpFR	18	2	1	WAITER	1580	1	n/a	1	n/a	n/a	n/a	n/a	n/a
2644573	RECOG_CONF	n/a	LTP150	ltpFR	18	2	1	WAITER	1580	n/a	5	1	n/a	n/a	n/a	n/a	n/a
2645990	RECOG_LURE	n/a	LTP150	ltpFR	18	2	n/a	BLOSSOM	138	0	1	n/a	n/a	n/a	n/a	n/a	n/a
2646698	RECOG_RESP	n/a	LTP150	ltpFR	18	2	n/a	BLOSSOM	138	0	n/a	n/a	n/a	n/a	n/a	n/a	n/a
2647397	RECOG_CONF	n/a	LTP150	ltpFR	18	2	n/a	BLOSSOM	138	n/a	1	n/a	n/a	n/a	n/a	n/a	n/a
2648722	RECOG_TARGET	n/a	LTP150	ltpFR	18	2	0	NAPKIN	937	1	5	0	n/a	n/a	n/a	n/a	n/a
2649382	RECOG_RESP	n/a	LTP150	ltpFR	18	2	0	NAPKIN	937	1	n/a	0	n/a	n/a	n/a	n/a	n/a
2650131	RECOG_CONF	n/a	LTP150	ltpFR	18	2	0	NAPKIN	937	n/a	5	0	n/a	n/a	n/a	n/a	n/a
2651489	RECOG_TARGET	n/a	LTP150	ltpFR	18	2	1	DINOSAUR	469	1	5	1	n/a	n/a	n/a	n/a	n/a
2652026	RECOG_RESP	n/a	LTP150	ltpFR	18	2	1	DINOSAUR	469	1	n/a	1	n/a	n/a	n/a	n/a	n/a
2652735	RECOG_CONF	n/a	LTP150	ltpFR	18	2	1	DINOSAUR	469	n/a	5	1	n/a	n/a	n/a	n/a	n/a
2654121	RECOG_TARGET	n/a	LTP150	ltpFR	18	2	1	SERVANT	1271	1	5	1	n/a	n/a	n/a	n/a	n/a
2654700	RECOG_RESP	n/a	LTP150	ltpFR	18	2	1	SERVANT	1271	1	n/a	1	n/a	n/a	n/a	n/a	n/a
2655429	RECOG_CONF	n/a	LTP150	ltpFR	18	2	1	SERVANT	1271	n/a	5	1	n/a	n/a	n/a	n/a	n/a
2656811	RECOG_TARGET	n/a	LTP150	ltpFR	18	2	0	BASKET	95	1	5	0	n/a	n/a	n/a	n/a	n/a
2657344	RECOG_RESP	n/a	LTP150	ltpFR	18	2	0	BASKET	95	1	n/a	0	n/a	n/a	n/a	n/a	n/a
2658033	RECOG_CONF	n/a	LTP150	ltpFR	18	2	0	BASKET	95	n/a	5	0	n/a	n/a	n/a	n/a	n/a
2660934	REC_START	n/a	LTP150	ltpFR	18	3	n/a	n/a	n/a	n/a	n/a	n/a	n/a	n/a	n/a	n/a	n/a
2660968	RECOG_TARGET	n/a	LTP150	ltpFR	18	3	0	FRIEND	606	1	5	1	n/a	n/a	n/a	n/a	n/a
2661607	RECOG_RESP	n/a	LTP150	ltpFR	18	3	0	FRIEND	606	1	n/a	1	n/a	n/a	n/a	n/a	n/a
2662296	RECOG_CONF	n/a	LTP150	ltpFR	18	3	0	FRIEND	606	n/a	5	1	n/a	n/a	n/a	n/a	n/a
2663668	RECOG_TARGET	n/a	LTP150	ltpFR	18	3	-1	CACTUS	215	1	5	-1	n/a	n/a	n/a	n/a	n/a
2664191	RECOG_RESP	n/a	LTP150	ltpFR	18	3	-1	CACTUS	215	1	n/a	-1	n/a	n/a	n/a	n/a	n/a
2664900	RECOG_CONF	n/a	LTP150	ltpFR	18	3	-1	CACTUS	215	n/a	5	-1	n/a	n/a	n/a	n/a	n/a
2666242	RECOG_TARGET	n/a	LTP150	ltpFR	18	3	0	DIAMOND	458	1	5	0	n/a	n/a	n/a	n/a	n/a
2666756	RECOG_RESP	n/a	LTP150	ltpFR	18	3	0	DIAMOND	458	1	n/a	0	n/a	n/a	n/a	n/a	n/a
2667434	RECOG_CONF	n/a	LTP150	ltpFR	18	3	0	DIAMOND	458	n/a	5	0	n/a	n/a	n/a	n/a	n/a
2668865	RECOG_LURE	n/a	LTP150	ltpFR	18	3	n/a	BALLOON	75	0	5	n/a	n/a	n/a	n/a	n/a	n/a
2669439	RECOG_RESP	n/a	LTP150	ltpFR	18	3	n/a	BALLOON	75	0	n/a	n/a	n/a	n/a	n/a	n/a	n/a
2670178	RECOG_CONF	n/a	LTP150	ltpFR	18	3	n/a	BALLOON	75	n/a	5	n/a	n/a	n/a	n/a	n/a	n/a
2671582	RECOG_TARGET	n/a	LTP150	ltpFR	18	3	0	CRATER	400	1	5	0	n/a	n/a	n/a	n/a	n/a
2672203	RECOG_RESP	n/a	LTP150	ltpFR	18	3	0	CRATER	400	1	n/a	0	n/a	n/a	n/a	n/a	n/a
2672922	RECOG_CONF	n/a	LTP150	ltpFR	18	3	0	CRATER	400	n/a	5	0	n/a	n/a	n/a	n/a	n/a
2674239	RECOG_LURE	n/a	LTP150	ltpFR	18	3	n/a	GOO	648	0	5	n/a	n/a	n/a	n/a	n/a	n/a
2674827	RECOG_RESP	n/a	LTP150	ltpFR	18	3	n/a	GOO	648	0	n/a	n/a	n/a	n/a	n/a	n/a	n/a
2675496	RECOG_CONF	n/a	LTP150	ltpFR	18	3	n/a	GOO	648	n/a	5	n/a	n/a	n/a	n/a	n/a	n/a
2676920	RECOG_LURE	n/a	LTP150	ltpFR	18	3	n/a	RAZOR	1171	0	5	n/a	n/a	n/a	n/a	n/a	n/a
2677601	RECOG_RESP	n/a	LTP150	ltpFR	18	3	n/a	RAZOR	1171	0	n/a	n/a	n/a	n/a	n/a	n/a	n/a
2678299	RECOG_CONF	n/a	LTP150	ltpFR	18	3	n/a	RAZOR	1171	n/a	5	n/a	n/a	n/a	n/a	n/a	n/a
2679720	RECOG_LURE	n/a	LTP150	ltpFR	18	3	n/a	LOG	841	0	5	n/a	n/a	n/a	n/a	n/a	n/a
2680514	RECOG_RESP	n/a	LTP150	ltpFR	18	3	n/a	LOG	841	0	n/a	n/a	n/a	n/a	n/a	n/a	n/a
2681243	RECOG_CONF	n/a	LTP150	ltpFR	18	3	n/a	LOG	841	n/a	5	n/a	n/a	n/a	n/a	n/a	n/a
2682569	RECOG_TARGET	n/a	LTP150	ltpFR	18	3	-1	BRACES	164	1	5	-1	n/a	n/a	n/a	n/a	n/a
2683148	RECOG_RESP	n/a	LTP150	ltpFR	18	3	-1	BRACES	164	1	n/a	-1	n/a	n/a	n/a	n/a	n/a
2683857	RECOG_CONF	n/a	LTP150	ltpFR	18	3	-1	BRACES	164	n/a	5	-1	n/a	n/a	n/a	n/a	n/a
2685243	RECOG_TARGET	n/a	LTP150	ltpFR	18	3	1	PHYSICIAN	1056	1	1	1	n/a	n/a	n/a	n/a	n/a
2685892	RECOG_RESP_VV	n/a	LTP150	ltpFR	18	3	1	PHYSICIAN	1056	0	n/a	1	n/a	n/a	n/a	n/a	n/a
2686241	RECOG_RESP	n/a	LTP150	ltpFR	18	3	1	PHYSICIAN	1056	1	n/a	1	n/a	n/a	n/a	n/a	n/a
2687039	RECOG_CONF	n/a	LTP150	ltpFR	18	3	1	PHYSICIAN	1056	n/a	1	1	n/a	n/a	n/a	n/a	n/a
2688367	RECOG_TARGET	n/a	LTP150	ltpFR	18	3	-1	WICK	1607	1	5	-1	n/a	n/a	n/a	n/a	n/a
2689065	RECOG_RESP	n/a	LTP150	ltpFR	18	3	-1	WICK	1607	1	n/a	-1	n/a	n/a	n/a	n/a	n/a
2689763	RECOG_CONF	n/a	LTP150	ltpFR	18	3	-1	WICK	1607	n/a	5	-1	n/a	n/a	n/a	n/a	n/a
2691125	RECOG_TARGET	n/a	LTP150	ltpFR	18	3	0	SKULL	1320	1	5	1	n/a	n/a	n/a	n/a	n/a
2691599	RECOG_RESP	n/a	LTP150	ltpFR	18	3	0	SKULL	1320	1	n/a	1	n/a	n/a	n/a	n/a	n/a
2692317	RECOG_CONF	n/a	LTP150	ltpFR	18	3	0	SKULL	1320	n/a	5	1	n/a	n/a	n/a	n/a	n/a
2693640	RECOG_TARGET	n/a	LTP150	ltpFR	18	3	-1	CRICKET	408	1	5	-1	n/a	n/a	n/a	n/a	n/a
2694103	RECOG_RESP	n/a	LTP150	ltpFR	18	3	-1	CRICKET	408	1	n/a	-1	n/a	n/a	n/a	n/a	n/a
2694852	RECOG_CONF	n/a	LTP150	ltpFR	18	3	-1	CRICKET	408	n/a	5	-1	n/a	n/a	n/a	n/a	n/a
2696198	RECOG_LURE	n/a	LTP150	ltpFR	18	3	n/a	PADDING	999	0	2	n/a	n/a	n/a	n/a	n/a	n/a
2697017	RECOG_RESP	n/a	LTP150	ltpFR	18	3	n/a	PADDING	999	0	n/a	n/a	n/a	n/a	n/a	n/a	n/a
2698094	RECOG_CONF	n/a	LTP150	ltpFR	18	3	n/a	PADDING	999	n/a	2	n/a	n/a	n/a	n/a	n/a	n/a
2699455	RECOG_TARGET	n/a	LTP150	ltpFR	18	3	0	UNDERWEAR	1537	1	5	0	n/a	n/a	n/a	n/a	n/a
2700100	RECOG_RESP	n/a	LTP150	ltpFR	18	3	0	UNDERWEAR	1537	1	n/a	0	n/a	n/a	n/a	n/a	n/a
2700828	RECOG_CONF	n/a	LTP150	ltpFR	18	3	0	UNDERWEAR	1537	n/a	5	0	n/a	n/a	n/a	n/a	n/a
2702246	RECOG_LURE	n/a	LTP150	ltpFR	18	3	n/a	CHEMICAL	291	0	1	n/a	n/a	n/a	n/a	n/a	n/a
2702714	RECOG_RESP_VV	n/a	LTP150	ltpFR	18	3	n/a	CHEMICAL	291	1	n/a	n/a	n/a	n/a	n/a	n/a	n/a
2703482	RECOG_RESP	n/a	LTP150	ltpFR	18	3	n/a	CHEMICAL	291	0	n/a	n/a	n/a	n/a	n/a	n/a	n/a
2704460	RECOG_CONF	n/a	LTP150	ltpFR	18	3	n/a	CHEMICAL	291	n/a	1	n/a	n/a	n/a	n/a	n/a	n/a
2705843	RECOG_TARGET	n/a	LTP150	ltpFR	18	3	0	SIBLING	1301	1	5	0	n/a	n/a	n/a	n/a	n/a
2706535	RECOG_RESP	n/a	LTP150	ltpFR	18	3	0	SIBLING	1301	1	n/a	0	n/a	n/a	n/a	n/a	n/a
2707244	RECOG_CONF	n/a	LTP150	ltpFR	18	3	0	SIBLING	1301	n/a	5	0	n/a	n/a	n/a	n/a	n/a
2708585	RECOG_TARGET	n/a	LTP150	ltpFR	18	3	1	DIAL	457	1	5	0	n/a	n/a	n/a	n/a	n/a
2709249	RECOG_RESP	n/a	LTP150	ltpFR	18	3	1	DIAL	457	1	n/a	0	n/a	n/a	n/a	n/a	n/a
2709947	RECOG_CONF	n/a	LTP150	ltpFR	18	3	1	DIAL	457	n/a	5	0	n/a	n/a	n/a	n/a	n/a
2711334	RECOG_TARGET	n/a	LTP150	ltpFR	18	3	-1	GREASE	660	1	5	-1	n/a	n/a	n/a	n/a	n/a
2711903	RECOG_RESP	n/a	LTP150	ltpFR	18	3	-1	GREASE	660	1	n/a	-1	n/a	n/a	n/a	n/a	n/a
2712581	RECOG_CONF	n/a	LTP150	ltpFR	18	3	-1	GREASE	660	n/a	5	-1	n/a	n/a	n/a	n/a	n/a
2713924	RECOG_TARGET	n/a	LTP150	ltpFR	18	3	0	PLAID	1080	1	5	0	n/a	n/a	n/a	n/a	n/a
2714407	RECOG_RESP	n/a	LTP150	ltpFR	18	3	0	PLAID	1080	1	n/a	0	n/a	n/a	n/a	n/a	n/a
2715106	RECOG_CONF	n/a	LTP150	ltpFR	18	3	0	PLAID	1080	n/a	5	0	n/a	n/a	n/a	n/a	n/a
2718160	REC_START	n/a	LTP150	ltpFR	18	4	n/a	n/a	n/a	n/a	n/a	n/a	n/a	n/a	n/a	n/a	n/a
2718198	RECOG_TARGET	n/a	LTP150	ltpFR	18	4	1	ELECTRON	522	1	5	0	n/a	n/a	n/a	n/a	n/a
2718853	RECOG_RESP	n/a	LTP150	ltpFR	18	4	1	ELECTRON	522	1	n/a	0	n/a	n/a	n/a	n/a	n/a
2719785	RECOG_CONF	n/a	LTP150	ltpFR	18	4	1	ELECTRON	522	n/a	5	0	n/a	n/a	n/a	n/a	n/a
2720838	RECOG_TARGET	n/a	LTP150	ltpFR	18	4	1	DUNGEON	507	1	5	0	n/a	n/a	n/a	n/a	n/a
2721387	RECOG_RESP	n/a	LTP150	ltpFR	18	4	1	DUNGEON	507	1	n/a	0	n/a	n/a	n/a	n/a	n/a
2722046	RECOG_CONF	n/a	LTP150	ltpFR	18	4	1	DUNGEON	507	n/a	5	0	n/a	n/a	n/a	n/a	n/a
2723347	RECOG_TARGET	n/a	LTP150	ltpFR	18	4	0	JOINT	758	1	5	0	n/a	n/a	n/a	n/a	n/a
2723792	RECOG_RESP	n/a	LTP150	ltpFR	18	4	0	JOINT	758	1	n/a	0	n/a	n/a	n/a	n/a	n/a
2724515	RECOG_CONF	n/a	LTP150	ltpFR	18	4	0	JOINT	758	n/a	5	0	n/a	n/a	n/a	n/a	n/a
2725696	RECOG_TARGET	n/a	LTP150	ltpFR	18	4	-1	SOFA	1342	1	5	-1	n/a	n/a	n/a	n/a	n/a
2726147	RECOG_RESP	n/a	LTP150	ltpFR	18	4	-1	SOFA	1342	1	n/a	-1	n/a	n/a	n/a	n/a	n/a
2726795	RECOG_CONF	n/a	LTP150	ltpFR	18	4	-1	SOFA	1342	n/a	5	-1	n/a	n/a	n/a	n/a	n/a
2728145	RECOG_TARGET	n/a	LTP150	ltpFR	18	4	1	WHIP	1604	1	5	0	n/a	n/a	n/a	n/a	n/a
2728641	RECOG_RESP	n/a	LTP150	ltpFR	18	4	1	WHIP	1604	1	n/a	0	n/a	n/a	n/a	n/a	n/a
2729260	RECOG_CONF	n/a	LTP150	ltpFR	18	4	1	WHIP	1604	n/a	5	0	n/a	n/a	n/a	n/a	n/a
2730461	RECOG_TARGET	n/a	LTP150	ltpFR	18	4	0	SHORTCAKE	1292	1	5	0	n/a	n/a	n/a	n/a	n/a
2731046	RECOG_RESP	n/a	LTP150	ltpFR	18	4	0	SHORTCAKE	1292	1	n/a	0	n/a	n/a	n/a	n/a	n/a
2731684	RECOG_CONF	n/a	LTP150	ltpFR	18	4	0	SHORTCAKE	1292	n/a	5	0	n/a	n/a	n/a	n/a	n/a
2732992	RECOG_LURE	n/a	LTP150	ltpFR	18	4	n/a	KLEENEX	782	0	5	n/a	n/a	n/a	n/a	n/a	n/a
2733610	RECOG_RESP	n/a	LTP150	ltpFR	18	4	n/a	KLEENEX	782	0	n/a	n/a	n/a	n/a	n/a	n/a	n/a
2734218	RECOG_CONF	n/a	LTP150	ltpFR	18	4	n/a	KLEENEX	782	n/a	5	n/a	n/a	n/a	n/a	n/a	n/a
2735534	RECOG_TARGET	n/a	LTP150	ltpFR	18	4	-1	GARAGE	621	1	5	-1	n/a	n/a	n/a	n/a	n/a
2736144	RECOG_RESP	n/a	LTP150	ltpFR	18	4	-1	GARAGE	621	1	n/a	-1	n/a	n/a	n/a	n/a	n/a
2736753	RECOG_CONF	n/a	LTP150	ltpFR	18	4	-1	GARAGE	621	n/a	5	-1	n/a	n/a	n/a	n/a	n/a
2738032	RECOG_LURE	n/a	LTP150	ltpFR	18	4	n/a	LOCK	838	0	1	n/a	n/a	n/a	n/a	n/a	n/a
2738918	RECOG_RESP	n/a	LTP150	ltpFR	18	4	n/a	LOCK	838	0	n/a	n/a	n/a	n/a	n/a	n/a	n/a
2739626	RECOG_CONF	n/a	LTP150	ltpFR	18	4	n/a	LOCK	838	n/a	1	n/a	n/a	n/a	n/a	n/a	n/a
2740989	RECOG_TARGET	n/a	LTP150	ltpFR	18	4	-1	TURNIP	1521	1	5	-1	n/a	n/a	n/a	n/a	n/a
2741532	RECOG_RESP	n/a	LTP150	ltpFR	18	4	-1	TURNIP	1521	1	n/a	-1	n/a	n/a	n/a	n/a	n/a
2742180	RECOG_CONF	n/a	LTP150	ltpFR	18	4	-1	TURNIP	1521	n/a	5	-1	n/a	n/a	n/a	n/a	n/a
2743448	RECOG_TARGET	n/a	LTP150	ltpFR	18	4	1	WINGS	1614	1	5	0	n/a	n/a	n/a	n/a	n/a
2743996	RECOG_RESP	n/a	LTP150	ltpFR	18	4	1	WINGS	1614	1	n/a	0	n/a	n/a	n/a	n/a	n/a
2744685	RECOG_CONF	n/a	LTP150	ltpFR	18	4	1	WINGS	1614	n/a	5	0	n/a	n/a	n/a	n/a	n/a
2745987	RECOG_TARGET	n/a	LTP150	ltpFR	18	4	0	SAUSAGE	1238	1	5	0	n/a	n/a	n/a	n/a	n/a
2746500	RECOG_RESP	n/a	LTP150	ltpFR	18	4	0	SAUSAGE	1238	1	n/a	0	n/a	n/a	n/a	n/a	n/a
2747159	RECOG_CONF	n/a	LTP150	ltpFR	18	4	0	SAUSAGE	1238	n/a	5	0	n/a	n/a	n/a	n/a	n/a
2748504	RECOG_TARGET	n/a	LTP150	ltpFR	18	4	-1	TOMATO	1476	1	5	-1	n/a	n/a	n/a	n/a	n/a
2749025	RECOG_RESP	n/a	LTP150	ltpFR	18	4	-1	TOMATO	1476	1	n/a	-1	n/a	n/a	n/a	n/a	n/a
2749703	RECOG_CONF	n/a	LTP150	ltpFR	18	4	-1	TOMATO	1476	n/a	5	-1	n/a	n/a	n/a	n/a	n/a
2751045	RECOG_TARGET	n/a	LTP150	ltpFR	18	4	0	YOLK	1633	1	5	0	n/a	n/a	n/a	n/a	n/a
2751569	RECOG_RESP	n/a	LTP150	ltpFR	18	4	0	YOLK	1633	1	n/a	0	n/a	n/a	n/a	n/a	n/a
2752297	RECOG_CONF	n/a	LTP150	ltpFR	18	4	0	YOLK	1633	n/a	5	0	n/a	n/a	n/a	n/a	n/a
2753661	RECOG_TARGET	n/a	LTP150	ltpFR	18	4	1	CAKE	219	1	3	0	n/a	n/a	n/a	n/a	n/a
2754103	RECOG_RESP	n/a	LTP150	ltpFR	18	4	1	CAKE	219	1	n/a	0	n/a	n/a	n/a	n/a	n/a
2754851	RECOG_CONF	n/a	LTP150	ltpFR	18	4	1	CAKE	219	n/a	3	0	n/a	n/a	n/a	n/a	n/a
2756243	RECOG_TARGET	n/a	LTP150	ltpFR	18	4	1	LIST	830	1	3	0	n/a	n/a	n/a	n/a	n/a
2756827	RECOG_RESP	n/a	LTP150	ltpFR	18	4	1	LIST	830	1	n/a	0	n/a	n/a	n/a	n/a	n/a
2757495	RECOG_CONF	n/a	LTP150	ltpFR	18	4	1	LIST	830	n/a	3	0	n/a	n/a	n/a	n/a	n/a
2758766	RECOG_TARGET	n/a	LTP150	ltpFR	18	4	0	LIVER	833	1	5	0	n/a	n/a	n/a	n/a	n/a
2759351	RECOG_RESP	n/a	LTP150	ltpFR	18	4	0	LIVER	833	1	n/a	0	n/a	n/a	n/a	n/a	n/a
2760000	RECOG_CONF	n/a	LTP150	ltpFR	18	4	0	LIVER	833	n/a	5	0	n/a	n/a	n/a	n/a	n/a
2761300	RECOG_TARGET	n/a	LTP150	ltpFR	18	4	1	PRIMATE	1123	1	3	1	n/a	n/a	n/a	n/a	n/a
2761806	RECOG_RESP	n/a	LTP150	ltpFR	18	4	1	PRIMATE	1123	1	n/a	1	n/a	n/a	n/a	n/a	n/a
2762474	RECOG_CONF	n/a	LTP150	ltpFR	18	4	1	PRIMATE	1123	n/a	3	1	n/a	n/a	n/a	n/a	n/a
2763723	RECOG_TARGET	n/a	LTP150	ltpFR	18	4	-1	TROUT	1511	1	5	-1	n/a	n/a	n/a	n/a	n/a
2764280	RECOG_RESP	n/a	LTP150	ltpFR	18	4	-1	TROUT	1511	1	n/a	-1	n/a	n/a	n/a	n/a	n/a
2765088	RECOG_CONF	n/a	LTP150	ltpFR	18	4	-1	TROUT	1511	n/a	5	-1	n/a	n/a	n/a	n/a	n/a
2766448	RECOG_TARGET	n/a	LTP150	ltpFR	18	4	0	SEAFOOD	1260	1	3	0	n/a	n/a	n/a	n/a	n/a
2766984	RECOG_RESP	n/a	LTP150	ltpFR	18	4	0	SEAFOOD	1260	1	n/a	0	n/a	n/a	n/a	n/a	n/a
2767672	RECOG_CONF	n/a	LTP150	ltpFR	18	4	0	SEAFOOD	1260	n/a	3	0	n/a	n/a	n/a	n/a	n/a
2770650	REC_START	n/a	LTP150	ltpFR	18	5	n/a	n/a	n/a	n/a	n/a	n/a	n/a	n/a	n/a	n/a	n/a
2770688	RECOG_LURE	n/a	LTP150	ltpFR	18	5	n/a	CROCODILE	411	0	5	n/a	n/a	n/a	n/a	n/a	n/a
2771363	RECOG_RESP	n/a	LTP150	ltpFR	18	5	n/a	CROCODILE	411	0	n/a	n/a	n/a	n/a	n/a	n/a	n/a
2772082	RECOG_CONF	n/a	LTP150	ltpFR	18	5	n/a	CROCODILE	411	n/a	5	n/a	n/a	n/a	n/a	n/a	n/a
2773479	RECOG_TARGET	n/a	LTP150	ltpFR	18	5	1	BEDROOM	111	1	3	0	n/a	n/a	n/a	n/a	n/a
2774197	RECOG_RESP	n/a	LTP150	ltpFR	18	5	1	BEDROOM	111	1	n/a	0	n/a	n/a	n/a	n/a	n/a
2774915	RECOG_CONF	n/a	LTP150	ltpFR	18	5	1	BEDROOM	111	n/a	3	0	n/a	n/a	n/a	n/a	n/a
2776253	RECOG_TARGET	n/a	LTP150	ltpFR	18	5	1	UNIVERSE	1540	1	3	1	n/a	n/a	n/a	n/a	n/a
2776861	RECOG_RESP	n/a	LTP150	ltpFR	18	5	1	UNIVERSE	1540	1	n/a	1	n/a	n/a	n/a	n/a	n/a
2777539	RECOG_CONF	n/a	LTP150	ltpFR	18	5	1	UNIVERSE	1540	n/a	3	1	n/a	n/a	n/a	n/a	n/a
2778826	RECOG_TARGET	n/a	LTP150	ltpFR	18	5	1	BARTENDER	92	0	1	1	n/a	n/a	n/a	n/a	n/a
2780143	RECOG_RESP	n/a	LTP150	ltpFR	18	5	1	BARTENDER	92	0	n/a	1	n/a	n/a	n/a	n/a	n/a
2781021	RECOG_CONF	n/a	LTP150	ltpFR	18	5	1	BARTENDER	92	n/a	1	1	n/a	n/a	n/a	n/a	n/a
2782400	RECOG_TARGET	n/a	LTP150	ltpFR	18	5	0	LEOPARD	812	1	5	1	n/a	n/a	n/a	n/a	n/a
2783027	RECOG_RESP	n/a	LTP150	ltpFR	18	5	0	LEOPARD	812	1	n/a	1	n/a	n/a	n/a	n/a	n/a
2783765	RECOG_CONF	n/a	LTP150	ltpFR	18	5	0	LEOPARD	812	n/a	5	1	n/a	n/a	n/a	n/a	n/a
2785099	RECOG_LURE	n/a	LTP150	ltpFR	18	5	n/a	PEAR	1033	0	1	n/a	n/a	n/a	n/a	n/a	n/a
2786040	RECOG_RESP	n/a	LTP150	ltpFR	18	5	n/a	PEAR	1033	0	n/a	n/a	n/a	n/a	n/a	n/a	n/a
2786788	RECOG_CONF	n/a	LTP150	ltpFR	18	5	n/a	PEAR	1033	n/a	1	n/a	n/a	n/a	n/a	n/a	n/a
2788090	RECOG_TARGET	n/a	LTP150	ltpFR	18	5	0	SISTER	1312	1	5	1	n/a	n/a	n/a	n/a	n/a
2788654	RECOG_RESP	n/a	LTP150	ltpFR	18	5	0	SISTER	1312	1	n/a	1	n/a	n/a	n/a	n/a	n/a
2789372	RECOG_CONF	n/a	LTP150	ltpFR	18	5	0	SISTER	1312	n/a	5	1	n/a	n/a	n/a	n/a	n/a
2790614	RECOG_LURE	n/a	LTP150	ltpFR	18	5	n/a	GOBLIN	645	0	5	n/a	n/a	n/a	n/a	n/a	n/a
2791268	RECOG_RESP	n/a	LTP150	ltpFR	18	5	n/a	GOBLIN	645	0	n/a	n/a	n/a	n/a	n/a	n/a	n/a
2791996	RECOG_CONF	n/a	LTP150	ltpFR	18	5	n/a	GOBLIN	645	n/a	5	n/a	n/a	n/a	n/a	n/a	n/a
2793338	RECOG_TARGET	n/a	LTP150	ltpFR	18	5	-1	FOUNTAIN	597	1	3	-1	n/a	n/a	n/a	n/a	n/a
2793972	RECOG_RESP	n/a	LTP150	ltpFR	18	5	-1	FOUNTAIN	597	1	n/a	-1	n/a	n/a	n/a	n/a	n/a
2794780	RECOG_CONF	n/a	LTP150	ltpFR	18	5	-1	FOUNTAIN	597	n/a	3	-1	n/a	n/a	n/a	n/a	n/a
2796104	RECOG_TARGET	n/a	LTP150	ltpFR	18	5	1	DORM	488	1	5	1	n/a	n/a	n/a	n/a	n/a
2796746	RECOG_RESP	n/a	LTP150	ltpFR	18	5	1	DORM	488	1	n/a	1	n/a	n/a	n/a	n/a	n/a
2797434	RECOG_CONF	n/a	LTP150	ltpFR	18	5	1	DORM	488	n/a	5	1	n/a	n/a	n/a	n/a	n/a
2798794	RECOG_TARGET	n/a	LTP150	ltpFR	18	5	-1	PANTHER	1009	1	1	-1	n/a	n/a	n/a	n/a	n/a
2799429	RECOG_RESP	n/a	LTP150	ltpFR	18	5	-1	PANTHER	1009	1	n/a	-1	n/a	n/a	n/a	n/a	n/a
2800248	RECOG_CONF	n/a	LTP150	ltpFR	18	5	-1	PANTHER	1009	n/a	1	-1	n/a	n/a	n/a	n/a	n/a
2801577	RECOG_TARGET	n/a	LTP150	ltpFR	18	5	0	OTTER	986	1	3	1	n/a	n/a	n/a	n/a	n/a
2802063	RECOG_RESP	n/a	LTP150	ltpFR	18	5	0	OTTER	986	1	n/a	1	n/a	n/a	n/a	n/a	n/a
2802832	RECOG_CONF	n/a	LTP150	ltpFR	18	5	0	OTTER	986	n/a	3	1	n/a	n/a	n/a	n/a	n/a
2804101	RECOG_TARGET	n/a	LTP150	ltpFR	18	5	-1	COLLAR	345	1	5	-1	n/a	n/a	n/a	n/a	n/a
2804578	RECOG_RESP	n/a	LTP150	ltpFR	18	5	-1	COLLAR	345	1	n/a	-1	n/a	n/a	n/a	n/a	n/a
2805216	RECOG_CONF	n/a	LTP150	ltpFR	18	5	-1	COLLAR	345	n/a	5	-1	n/a	n/a	n/a	n/a	n/a
2806409	RECOG_TARGET	n/a	LTP150	ltpFR	18	5	1	SUPERMARKET	1409	1	5	1	n/a	n/a	n/a	n/a	n/a
2806952	RECOG_RESP	n/a	LTP150	ltpFR	18	5	1	SUPERMARKET	1409	1	n/a	1	n/a	n/a	n/a	n/a	n/a
2807571	RECOG_CONF	n/a	LTP150	ltpFR	18	5	1	SUPERMARKET	1409	n/a	5	1	n/a	n/a	n/a	n/a	n/a
2808873	RECOG_TARGET	n/a	LTP150	ltpFR	18	5	0	REINDEER	1181	1	5	1	n/a	n/a	n/a	n/a	n/a
2809387	RECOG_RESP	n/a	LTP150	ltpFR	18	5	0	REINDEER	1181	1	n/a	1	n/a	n/a	n/a	n/a	n/a
2810065	RECOG_CONF	n/a	LTP150	ltpFR	18	5	0	REINDEER	1181	n/a	5	1	n/a	n/a	n/a	n/a	n/a
2811340	RECOG_TARGET	n/a	LTP150	ltpFR	18	5	0	TWIN	1528	1	5	0	n/a	n/a	n/a	n/a	n/a
2811831	RECOG_RESP	n/a	LTP150	ltpFR	18	5	0	TWIN	1528	1	n/a	0	n/a	n/a	n/a	n/a	n/a
2812490	RECOG_CONF	n/a	LTP150	ltpFR	18	5	0	TWIN	1528	n/a	5	0	n/a	n/a	n/a	n/a	n/a
2813730	RECOG_TARGET	n/a	LTP150	ltpFR	18	5	1	VACUUM	1543	1	5	0	n/a	n/a	n/a	n/a	n/a
2814286	RECOG_RESP	n/a	LTP150	ltpFR	18	5	1	VACUUM	1543	1	n/a	0	n/a	n/a	n/a	n/a	n/a
2815004	RECOG_CONF	n/a	LTP150	ltpFR	18	5	1	VACUUM	1543	n/a	5	0	n/a	n/a	n/a	n/a	n/a
2816388	RECOG_TARGET	n/a	LTP150	ltpFR	18	5	1	HAIL	676	1	5	0	n/a	n/a	n/a	n/a	n/a
2816950	RECOG_RESP	n/a	LTP150	ltpFR	18	5	1	HAIL	676	1	n/a	0	n/a	n/a	n/a	n/a	n/a
2817716	RECOG_CONF	n/a	LTP150	ltpFR	18	5	1	HAIL	676	n/a	5	0	n/a	n/a	n/a	n/a	n/a
2819011	RECOG_TARGET	n/a	LTP150	ltpFR	18	5	0	PEARL	1034	1	5	0	n/a	n/a	n/a	n/a	n/a
2819434	RECOG_RESP	n/a	LTP150	ltpFR	18	5	0	PEARL	1034	1	n/a	0	n/a	n/a	n/a	n/a	n/a
2820172	RECOG_CONF	n/a	LTP150	ltpFR	18	5	0	PEARL	1034	n/a	5	0	n/a	n/a	n/a	n/a	n/a
2821495	RECOG_LURE	n/a	LTP150	ltpFR	18	5	n/a	FLESH	579	0	3	n/a	n/a	n/a	n/a	n/a	n/a
2822108	RECOG_RESP_VV	n/a	LTP150	ltpFR	18	5	n/a	FLESH	579	1	n/a	n/a	n/a	n/a	n/a	n/a	n/a
2822926	RECOG_RESP	n/a	LTP150	ltpFR	18	5	n/a	FLESH	579	0	n/a	n/a	n/a	n/a	n/a	n/a	n/a
2823984	RECOG_CONF	n/a	LTP150	ltpFR	18	5	n/a	FLESH	579	n/a	3	n/a	n/a	n/a	n/a	n/a	n/a
2826833	REC_START	n/a	LTP150	ltpFR	18	6	n/a	n/a	n/a	n/a	n/a	n/a	n/a	n/a	n/a	n/a	n/a
2826867	RECOG_TARGET	n/a	LTP150	ltpFR	18	6	0	NOVEL	960	1	5	0	n/a	n/a	n/a	n/a	n/a
2828364	RECOG_RESP	n/a	LTP150	ltpFR	18	6	0	NOVEL	960	1	n/a	0	n/a	n/a	n/a	n/a	n/a
2829083	RECOG_CONF	n/a	LTP150	ltpFR	18	6	0	NOVEL	960	n/a	5	0	n/a	n/a	n/a	n/a	n/a
2830517	RECOG_LURE	n/a	LTP150	ltpFR	18	6	n/a	CAMEL	223	0	5	n/a	n/a	n/a	n/a	n/a	n/a
2831178	RECOG_RESP	n/a	LTP150	ltpFR	18	6	n/a	CAMEL	223	0	n/a	n/a	n/a	n/a	n/a	n/a	n/a
2831876	RECOG_CONF	n/a	LTP150	ltpFR	18	6	n/a	CAMEL	223	n/a	5	n/a	n/a	n/a	n/a	n/a	n/a
2833257	RECOG_TARGET	n/a	LTP150	ltpFR	18	6	0	FOREHEAD	592	1	5	0	n/a	n/a	n/a	n/a	n/a
2834002	RECOG_RESP	n/a	LTP150	ltpFR	18	6	0	FOREHEAD	592	1	n/a	0	n/a	n/a	n/a	n/a	n/a
2834690	RECOG_CONF	n/a	LTP150	ltpFR	18	6	0	FOREHEAD	592	n/a	5	0	n/a	n/a	n/a	n/a	n/a
2836039	RECOG_TARGET	n/a	LTP150	ltpFR	18	6	-1	CARRIAGE	248	1	5	-1	n/a	n/a	n/a	n/a	n/a
2836665	RECOG_RESP	n/a	LTP150	ltpFR	18	6	-1	CARRIAGE	248	1	n/a	-1	n/a	n/a	n/a	n/a	n/a
2837354	RECOG_CONF	n/a	LTP150	ltpFR	18	6	-1	CARRIAGE	248	n/a	5	-1	n/a	n/a	n/a	n/a	n/a
2838622	RECOG_TARGET	n/a	LTP150	ltpFR	18	6	1	GLACIER	638	1	5	0	n/a	n/a	n/a	n/a	n/a
2839210	RECOG_RESP	n/a	LTP150	ltpFR	18	6	1	GLACIER	638	1	n/a	0	n/a	n/a	n/a	n/a	n/a
2839878	RECOG_CONF	n/a	LTP150	ltpFR	18	6	1	GLACIER	638	n/a	5	0	n/a	n/a	n/a	n/a	n/a
2841121	RECOG_TARGET	n/a	LTP150	ltpFR	18	6	1	LOUNGE	845	1	5	0	n/a	n/a	n/a	n/a	n/a
2841694	RECOG_RESP	n/a	LTP150	ltpFR	18	6	1	LOUNGE	845	1	n/a	0	n/a	n/a	n/a	n/a	n/a
2842353	RECOG_CONF	n/a	LTP150	ltpFR	18	6	1	LOUNGE	845	n/a	5	0	n/a	n/a	n/a	n/a	n/a
2843712	RECOG_LURE	n/a	LTP150	ltpFR	18	6	n/a	BUTCHER	203	0	1	n/a	n/a	n/a	n/a	n/a	n/a
2844448	RECOG_RESP_VV	n/a	LTP150	ltpFR	18	6	n/a	BUTCHER	203	1	n/a	n/a	n/a	n/a	n/a	n/a	n/a
2844787	RECOG_RESP	n/a	LTP150	ltpFR	18	6	n/a	BUTCHER	203	0	n/a	n/a	n/a	n/a	n/a	n/a	n/a
2845695	RECOG_CONF	n/a	LTP150	ltpFR	18	6	n/a	BUTCHER	203	n/a	1	n/a	n/a	n/a	n/a	n/a	n/a
2847035	RECOG_TARGET	n/a	LTP150	ltpFR	18	6	0	WASHCLOTH	1591	1	5	0	n/a	n/a	n/a	n/a	n/a
2847800	RECOG_RESP	n/a	LTP150	ltpFR	18	6	0	WASHCLOTH	1591	1	n/a	0	n/a	n/a	n/a	n/a	n/a
2848479	RECOG_CONF	n/a	LTP150	ltpFR	18	6	0	WASHCLOTH	1591	n/a	5	0	n/a	n/a	n/a	n/a	n/a
2849834	RECOG_LURE	n/a	LTP150	ltpFR	18	6	n/a	SKELETON	1314	0	3	n/a	n/a	n/a	n/a	n/a	n/a
2850524	RECOG_RESP_VV	n/a	LTP150	ltpFR	18	6	n/a	SKELETON	1314	1	n/a	n/a	n/a	n/a	n/a	n/a	n/a
2850883	RECOG_RESP	n/a	LTP150	ltpFR	18	6	n/a	SKELETON	1314	0	n/a	n/a	n/a	n/a	n/a	n/a	n/a
2851711	RECOG_CONF	n/a	LTP150	ltpFR	18	6	n/a	SKELETON	1314	n/a	3	n/a	n/a	n/a	n/a	n/a	n/a
2853024	RECOG_TARGET	n/a	LTP150	ltpFR	18	6	0	CASHEW	253	1	5	0	n/a	n/a	n/a	n/a	n/a
2853667	RECOG_RESP	n/a	LTP150	ltpFR	18	6	0	CASHEW	253	1	n/a	0	n/a	n/a	n/a	n/a	n/a
2854345	RECOG_CONF	n/a	LTP150	ltpFR	18	6	0	CASHEW	253	n/a	5	0	n/a	n/a	n/a	n/a	n/a
2855699	RECOG_TARGET	n/a	LTP150	ltpFR	18	6	-1	SUBMARINE	1398	1	3	-1	n/a	n/a	n/a	n/a	n/a
2856580	RECOG_RESP	n/a	LTP150	ltpFR	18	6	-1	SUBMARINE	1398	1	n/a	-1	n/a	n/a	n/a	n/a	n/a
2857348	RECOG_CONF	n/a	LTP150	ltpFR	18	6	-1	SUBMARINE	1398	n/a	3	-1	n/a	n/a	n/a	n/a	n/a
2858682	RECOG_TARGET	n/a	LTP150	ltpFR	18	6	1	DOUGH	489	1	5	0	n/a	n/a	n/a	n/a	n/a
2859234	RECOG_RESP	n/a	LTP150	ltpFR	18	6	1	DOUGH	489	1	n/a	0	n/a	n/a	n/a	n/a	n/a
2859893	RECOG_CONF	n/a	LTP150	ltpFR	18	6	1	DOUGH	489	n/a	5	0	n/a	n/a	n/a	n/a	n/a
2861231	RECOG_LURE	n/a	LTP150	ltpFR	18	6	n/a	HERD	705	0	5	n/a	n/a	n/a	n/a	n/a	n/a
2861918	RECOG_RESP	n/a	LTP150	ltpFR	18	6	n/a	HERD	705	0	n/a	n/a	n/a	n/a	n/a	n/a	n/a
2862497	RECOG_CONF	n/a	LTP150	ltpFR	18	6	n/a	HERD	705	n/a	5	n/a	n/a	n/a	n/a	n/a	n/a
2863812	RECOG_TARGET	n/a	LTP150	ltpFR	18	6	1	FINGERNAIL	568	1	5	0	n/a	n/a	n/a	n/a	n/a
2864582	RECOG_RESP	n/a	LTP150	ltpFR	18	6	1	FINGERNAIL	568	1	n/a	0	n/a	n/a	n/a	n/a	n/a
2865350	RECOG_CONF	n/a	LTP150	ltpFR	18	6	1	FINGERNAIL	568	n/a	5	0	n/a	n/a	n/a	n/a	n/a
2866778	RECOG_TARGET	n/a	LTP150	ltpFR	18	6	-1	CHIP	303	1	5	-1	n/a	n/a	n/a	n/a	n/a
2867386	RECOG_RESP	n/a	LTP150	ltpFR	18	6	-1	CHIP	303	1	n/a	-1	n/a	n/a	n/a	n/a	n/a
2868104	RECOG_CONF	n/a	LTP150	ltpFR	18	6	-1	CHIP	303	n/a	5	-1	n/a	n/a	n/a	n/a	n/a
2869403	RECOG_TARGET	n/a	LTP150	ltpFR	18	6	0	FACE	547	1	5	0	n/a	n/a	n/a	n/a	n/a
2869900	RECOG_RESP	n/a	LTP150	ltpFR	18	6	0	FACE	547	1	n/a	0	n/a	n/a	n/a	n/a	n/a
2870588	RECOG_CONF	n/a	LTP150	ltpFR	18	6	0	FACE	547	n/a	5	0	n/a	n/a	n/a	n/a	n/a
2871909	RECOG_TARGET	n/a	LTP150	ltpFR	18	6	0	PICTURE	1061	1	5	0	n/a	n/a	n/a	n/a	n/a
2872434	RECOG_RESP	n/a	LTP150	ltpFR	18	6	0	PICTURE	1061	1	n/a	0	n/a	n/a	n/a	n/a	n/a
2873252	RECOG_CONF	n/a	LTP150	ltpFR	18	6	0	PICTURE	1061	n/a	5	0	n/a	n/a	n/a	n/a	n/a
2874618	RECOG_TARGET	n/a	LTP150	ltpFR	18	6	1	PERCH	1048	1	5	0	n/a	n/a	n/a	n/a	n/a
2875118	RECOG_RESP	n/a	LTP150	ltpFR	18	6	1	PERCH	1048	1	n/a	0	n/a	n/a	n/a	n/a	n/a
2875876	RECOG_CONF	n/a	LTP150	ltpFR	18	6	1	PERCH	1048	n/a	5	0	n/a	n/a	n/a	n/a	n/a
2877158	RECOG_LURE	n/a	LTP150	ltpFR	18	6	n/a	BRUSH	182	0	1	n/a	n/a	n/a	n/a	n/a	n/a
2877952	RECOG_RESP	n/a	LTP150	ltpFR	18	6	n/a	BRUSH	182	0	n/a	n/a	n/a	n/a	n/a	n/a	n/a
2878650	RECOG_CONF	n/a	LTP150	ltpFR	18	6	n/a	BRUSH	182	n/a	1	n/a	n/a	n/a	n/a	n/a	n/a
2879998	RECOG_TARGET	n/a	LTP150	ltpFR	18	6	-1	KEG	770	1	5	-1	n/a	n/a	n/a	n/a	n/a
2880556	RECOG_RESP	n/a	LTP150	ltpFR	18	6	-1	KEG	770	1	n/a	-1	n/a	n/a	n/a	n/a	n/a
2881234	RECOG_CONF	n/a	LTP150	ltpFR	18	6	-1	KEG	770	n/a	5	-1	n/a	n/a	n/a	n/a	n/a
2884154	REC_START	n/a	LTP150	ltpFR	18	7	n/a	n/a	n/a	n/a	n/a	n/a	n/a	n/a	n/a	n/a	n/a
2884189	RECOG_LURE	n/a	LTP150	ltpFR	18	7	n/a	ANTLER	29	0	5	n/a	n/a	n/a	n/a	n/a	n/a
2885017	RECOG_RESP	n/a	LTP150	ltpFR	18	7	n/a	ANTLER	29	0	n/a	n/a	n/a	n/a	n/a	n/a	n/a
2885645	RECOG_CONF	n/a	LTP150	ltpFR	18	7	n/a	ANTLER	29	n/a	5	n/a	n/a	n/a	n/a	n/a	n/a
2887088	RECOG_TARGET	n/a	LTP150	ltpFR	18	7	-1	ELECTRICIAN	521	1	5	-1	n/a	n/a	n/a	n/a	n/a
2887701	RECOG_RESP	n/a	LTP150	ltpFR	18	7	-1	ELECTRICIAN	521	1	n/a	-1	n/a	n/a	n/a	n/a	n/a
2888389	RECOG_CONF	n/a	LTP150	ltpFR	18	7	-1	ELECTRICIAN	521	n/a	5	-1	n/a	n/a	n/a	n/a	n/a
2889629	RECOG_TARGET	n/a	LTP150	ltpFR	18	7	1	LAPEL	800	1	5	0	n/a	n/a	n/a	n/a	n/a
2890175	RECOG_RESP	n/a	LTP150	ltpFR	18	7	1	LAPEL	800	1	n/a	0	n/a	n/a	n/a	n/a	n/a
2890724	RECOG_CONF	n/a	LTP150	ltpFR	18	7	1	LAPEL	800	n/a	5	0	n/a	n/a	n/a	n/a	n/a
2892061	RECOG_LURE	n/a	LTP150	ltpFR	18	7	n/a	MOP	916	0	5	n/a	n/a	n/a	n/a	n/a	n/a
2892659	RECOG_RESP	n/a	LTP150	ltpFR	18	7	n/a	MOP	916	0	n/a	n/a	n/a	n/a	n/a	n/a	n/a
2893188	RECOG_CONF	n/a	LTP150	ltpFR	18	7	n/a	MOP	916	n/a	5	n/a	n/a	n/a	n/a	n/a	n/a
2894577	RECOG_TARGET	n/a	LTP150	ltpFR	18	7	0	SHORTS	1293	1	5	0	n/a	n/a	n/a	n/a	n/a
2895154	RECOG_RESP	n/a	LTP150	ltpFR	18	7	0	SHORTS	1293	1	n/a	0	n/a	n/a	n/a	n/a	n/a
2895812	RECOG_CONF	n/a	LTP150	ltpFR	18	7	0	SHORTS	1293	n/a	5	0	n/a	n/a	n/a	n/a	n/a
2897143	RECOG_TARGET	n/a	LTP150	ltpFR	18	7	0	DOLLAR	482	1	5	0	n/a	n/a	n/a	n/a	n/a
2897688	RECOG_RESP	n/a	LTP150	ltpFR	18	7	0	DOLLAR	482	1	n/a	0	n/a	n/a	n/a	n/a	n/a
2898307	RECOG_CONF	n/a	LTP150	ltpFR	18	7	0	DOLLAR	482	n/a	5	0	n/a	n/a	n/a	n/a	n/a
2899584	RECOG_TARGET	n/a	LTP150	ltpFR	18	7	1	PLATE	1086	1	5	0	n/a	n/a	n/a	n/a	n/a
2900342	RECOG_RESP	n/a	LTP150	ltpFR	18	7	1	PLATE	1086	1	n/a	0	n/a	n/a	n/a	n/a	n/a
2900961	RECOG_CONF	n/a	LTP150	ltpFR	18	7	1	PLATE	1086	n/a	5	0	n/a	n/a	n/a	n/a	n/a
2902241	RECOG_TARGET	n/a	LTP150	ltpFR	18	7	0	FREEWAY	603	1	5	1	n/a	n/a	n/a	n/a	n/a
2902776	RECOG_RESP	n/a	LTP150	ltpFR	18	7	0	FREEWAY	603	1	n/a	1	n/a	n/a	n/a	n/a	n/a
2903415	RECOG_CONF	n/a	LTP150	ltpFR	18	7	0	FREEWAY	603	n/a	5	1	n/a	n/a	n/a	n/a	n/a
2904665	RECOG_LURE	n/a	LTP150	ltpFR	18	7	n/a	ATMOSPHERE	54	0	5	n/a	n/a	n/a	n/a	n/a	n/a
2905201	RECOG_RESP_VV	n/a	LTP150	ltpFR	18	7	n/a	ATMOSPHERE	54	1	n/a	n/a	n/a	n/a	n/a	n/a	n/a
2905550	RECOG_RESP	n/a	LTP150	ltpFR	18	7	n/a	ATMOSPHERE	54	0	n/a	n/a	n/a	n/a	n/a	n/a	n/a
2906259	RECOG_CONF	n/a	LTP150	ltpFR	18	7	n/a	ATMOSPHERE	54	n/a	5	n/a	n/a	n/a	n/a	n/a	n/a
2907714	RECOG_TARGET	n/a	LTP150	ltpFR	18	7	-1	CHIPMUNK	304	1	5	-1	n/a	n/a	n/a	n/a	n/a
2908264	RECOG_RESP	n/a	LTP150	ltpFR	18	7	-1	CHIPMUNK	304	1	n/a	-1	n/a	n/a	n/a	n/a	n/a
2908942	RECOG_CONF	n/a	LTP150	ltpFR	18	7	-1	CHIPMUNK	304	n/a	5	-1	n/a	n/a	n/a	n/a	n/a
2910122	RECOG_TARGET	n/a	LTP150	ltpFR	18	7	-1	MICROWAVE	892	1	5	-1	n/a	n/a	n/a	n/a	n/a
2910718	RECOG_RESP	n/a	LTP150	ltpFR	18	7	-1	MICROWAVE	892	1	n/a	-1	n/a	n/a	n/a	n/a	n/a
2911387	RECOG_CONF	n/a	LTP150	ltpFR	18	7	-1	MICROWAVE	892	n/a	5	-1	n/a	n/a	n/a	n/a	n/a
2912696	RECOG_TARGET	n/a	LTP150	ltpFR	18	7	1	COFFIN	342	1	5	0	n/a	n/a	n/a	n/a	n/a
2913203	RECOG_RESP	n/a	LTP150	ltpFR	18	7	1	COFFIN	342	1	n/a	0	n/a	n/a	n/a	n/a	n/a
2913871	RECOG_CONF	n/a	LTP150	ltpFR	18	7	1	COFFIN	342	n/a	5	0	n/a	n/a	n/a	n/a	n/a
2915136	RECOG_LURE	n/a	LTP150	ltpFR	18	7	n/a	BEGGAR	117	0	5	n/a	n/a	n/a	n/a	n/a	n/a
2915667	RECOG_RESP	n/a	LTP150	ltpFR	18	7	n/a	BEGGAR	117	0	n/a	n/a	n/a	n/a	n/a	n/a	n/a
2916286	RECOG_CONF	n/a	LTP150	ltpFR	18	7	n/a	BEGGAR	117	n/a	5	n/a	n/a	n/a	n/a	n/a	n/a
2917594	RECOG_TARGET	n/a	LTP150	ltpFR	18	7	0	ANCESTOR	20	1	5	1	n/a	n/a	n/a	n/a	n/a
2918142	RECOG_RESP	n/a	LTP150	ltpFR	18	7	0	ANCESTOR	20	1	n/a	1	n/a	n/a	n/a	n/a	n/a
2918780	RECOG_CONF	n/a	LTP150	ltpFR	18	7	0	ANCESTOR	20	n/a	5	1	n/a	n/a	n/a	n/a	n/a
2920017	RECOG_TARGET	n/a	LTP150	ltpFR	18	7	0	CUPBOARD	425	1	5	1	n/a	n/a	n/a	n/a	n/a
2920536	RECOG_RESP	n/a	LTP150	ltpFR	18	7	0	CUPBOARD	425	1	n/a	1	n/a	n/a	n/a	n/a	n/a
2921205	RECOG_CONF	n/a	LTP150	ltpFR	18	7	0	CUPBOARD	425	n/a	5	1	n/a	n/a	n/a	n/a	n/a
2922509	RECOG_TARGET	n/a	LTP150	ltpFR	18	7	0	STOVE	1388	1	5	1	n/a	n/a	n/a	n/a	n/a
2923180	RECOG_RESP	n/a	LTP150	ltpFR	18	7	0	STOVE	1388	1	n/a	1	n/a	n/a	n/a	n/a	n/a
2923859	RECOG_CONF	n/a	LTP150	ltpFR	18	7	0	STOVE	1388	n/a	5	1	n/a	n/a	n/a	n/a	n/a
2925225	RECOG_TARGET	n/a	LTP150	ltpFR	18	7	-1	GRAVEL	659	1	5	-1	n/a	n/a	n/a	n/a	n/a
2925744	RECOG_RESP	n/a	LTP150	ltpFR	18	7	-1	GRAVEL	659	1	n/a	-1	n/a	n/a	n/a	n/a	n/a
2926413	RECOG_CONF	n/a	LTP150	ltpFR	18	7	-1	GRAVEL	659	n/a	5	-1	n/a	n/a	n/a	n/a	n/a
2927699	RECOG_TARGET	n/a	LTP150	ltpFR	18	7	0	DIPLOMA	470	1	5	0	n/a	n/a	n/a	n/a	n/a
2928139	RECOG_RESP	n/a	LTP150	ltpFR	18	7	0	DIPLOMA	470	1	n/a	0	n/a	n/a	n/a	n/a	n/a
2928807	RECOG_CONF	n/a	LTP150	ltpFR	18	7	0	DIPLOMA	470	n/a	5	0	n/a	n/a	n/a	n/a	n/a
2930039	RECOG_TARGET	n/a	LTP150	ltpFR	18	7	1	SCRIBBLE	1256	1	5	0	n/a	n/a	n/a	n/a	n/a
2930583	RECOG_RESP	n/a	LTP150	ltpFR	18	7	1	SCRIBBLE	1256	1	n/a	0	n/a	n/a	n/a	n/a	n/a
2931192	RECOG_CONF	n/a	LTP150	ltpFR	18	7	1	SCRIBBLE	1256	n/a	5	0	n/a	n/a	n/a	n/a	n/a
2932530	RECOG_TARGET	n/a	LTP150	ltpFR	18	7	0	AUDIENCE	59	1	5	1	n/a	n/a	n/a	n/a	n/a
2932918	RECOG_RESP	n/a	LTP150	ltpFR	18	7	0	AUDIENCE	59	1	n/a	1	n/a	n/a	n/a	n/a	n/a
2933537	RECOG_CONF	n/a	LTP150	ltpFR	18	7	0	AUDIENCE	59	n/a	5	1	n/a	n/a	n/a	n/a	n/a
2936402	REC_START	n/a	LTP150	ltpFR	18	8	n/a	n/a	n/a	n/a	n/a	n/a	n/a	n/a	n/a	n/a	n/a
2936437	RECOG_LURE	n/a	LTP150	ltpFR	18	8	n/a	INCENSE	735	0	5	n/a	n/a	n/a	n/a	n/a	n/a
2937265	RECOG_RESP	n/a	LTP150	ltpFR	18	8	n/a	INCENSE	735	0	n/a	n/a	n/a	n/a	n/a	n/a	n/a
2937913	RECOG_CONF	n/a	LTP150	ltpFR	18	8	n/a	INCENSE	735	n/a	5	n/a	n/a	n/a	n/a	n/a	n/a
2939211	RECOG_TARGET	n/a	LTP150	ltpFR	18	8	1	CHAMBER	277	1	3	0	n/a	n/a	n/a	n/a	n/a
2939929	RECOG_RESP	n/a	LTP150	ltpFR	18	8	1	CHAMBER	277	1	n/a	0	n/a	n/a	n/a	n/a	n/a
2940597	RECOG_CONF	n/a	LTP150	ltpFR	18	8	1	CHAMBER	277	n/a	3	0	n/a	n/a	n/a	n/a	n/a
2941843	RECOG_LURE	n/a	LTP150	ltpFR	18	8	n/a	PEACH	1031	0	1	n/a	n/a	n/a	n/a	n/a	n/a
2942583	RECOG_RESP	n/a	LTP150	ltpFR	18	8	n/a	PEACH	1031	0	n/a	n/a	n/a	n/a	n/a	n/a	n/a
2943181	RECOG_CONF	n/a	LTP150	ltpFR	18	8	n/a	PEACH	1031	n/a	1	n/a	n/a	n/a	n/a	n/a	n/a
2944426	RECOG_TARGET	n/a	LTP150	ltpFR	18	8	1	KNIFE	785	0	1	0	n/a	n/a	n/a	n/a	n/a
2945087	RECOG_RESP	n/a	LTP150	ltpFR	18	8	1	KNIFE	785	0	n/a	0	n/a	n/a	n/a	n/a	n/a
2945696	RECOG_CONF	n/a	LTP150	ltpFR	18	8	1	KNIFE	785	n/a	1	0	n/a	n/a	n/a	n/a	n/a
2946991	RECOG_TARGET	n/a	LTP150	ltpFR	18	8	1	WAND	1586	1	5	0	n/a	n/a	n/a	n/a	n/a
2947661	RECOG_RESP	n/a	LTP150	ltpFR	18	8	1	WAND	1586	1	n/a	0	n/a	n/a	n/a	n/a	n/a
2948290	RECOG_CONF	n/a	LTP150	ltpFR	18	8	1	WAND	1586	n/a	5	0	n/a	n/a	n/a	n/a	n/a
2949616	RECOG_TARGET	n/a	LTP150	ltpFR	18	8	0	DAGGER	434	1	5	0	n/a	n/a	n/a	n/a	n/a
