mstime	trial_type	stim_file	subject	experiment	session	trial	task	item_name	item_num	recog_conf	resp	color_b	color_g	color_r	case	font
0	SESS_START	n/a	LTP175	ltpFR	4	n/a	n/a	n/a	n/a	n/a	n/a	n/a	n/a	n/a	n/a	n/a
175773	WORD	wordpools/wasnorm_wordpool_less_exclusions.txt	LTP175	ltpFR	4	1	1	CINNAMON	310	n/a	0	1	0.412841796875	0.57763671875	upper	../fonts/zerothre.ttf
179690	WORD	wordpools/wasnorm_wordpool_less_exclusions.txt	LTP175	ltpFR	4	1	1	MOTOR	922	5	0	1	0.412841796875	0.57763671875	upper	../fonts/zerothre.ttf
183771	WORD	wordpools/wasnorm_wordpool_less_exclusions.txt	LTP175	ltpFR	4	1	1	PASSENGER	1020	n/a	1	1	0.412841796875	0.57763671875	upper	../fonts/zerothre.ttf
187886	WORD	wordpools/wasnorm_wordpool_less_exclusions.txt	LTP175	ltpFR	4	1	1	VIOLIN	1571	n/a	0	1	0.412841796875	0.57763671875	upper	../fonts/zerothre.ttf
191993	WORD	wordpools/wasnorm_wordpool_less_exclusions.txt	LTP175	ltpFR	4	1	0	BUCKET	184	n/a	1	0	0.5869140625	0.422607421875	lower	../fonts/amplitud.ttf
196183	WORD	wordpools/wasnorm_wordpool_less_exclusions.txt	LTP175	ltpFR	4	1	0	CASHIER	254	n/a	1	0	0.5869140625	0.422607421875	lower	../fonts/amplitud.ttf
200006	WORD	wordpools/wasnorm_wordpool_less_exclusions.txt	LTP175	ltpFR	4	1	0	RECEPTIONIST	1174	n/a	1	0	0.5869140625	0.422607421875	lower	../fonts/amplitud.ttf
203838	WORD	wordpools/wasnorm_wordpool_less_exclusions.txt	LTP175	ltpFR	4	1	1	TROUT	1511	n/a	1	1	0.412841796875	0.57763671875	upper	../fonts/zerothre.ttf
207995	WORD	wordpools/wasnorm_wordpool_less_exclusions.txt	LTP175	ltpFR	4	1	1	MARKET	871	n/a	0	1	0.412841796875	0.57763671875	upper	../fonts/zerothre.ttf
212119	WORD	wordpools/wasnorm_wordpool_less_exclusions.txt	LTP175	ltpFR	4	1	1	ATTIC	56	n/a	0	1	0.412841796875	0.57763671875	upper	../fonts/zerothre.ttf
216267	WORD	wordpools/wasnorm_wordpool_less_exclusions.txt	LTP175	ltpFR	4	1	1	LIME	823	n/a	1	1	0.412841796875	0.57763671875	upper	../fonts/zerothre.ttf
220283	WORD	wordpools/wasnorm_wordpool_less_exclusions.txt	LTP175	ltpFR	4	1	0	SWAMP	1416	n/a	1	0	0.5869140625	0.422607421875	lower	../fonts/amplitud.ttf
224339	WORD	wordpools/wasnorm_wordpool_less_exclusions.txt	LTP175	ltpFR	4	1	0	SUGAR	1401	n/a	0	0	0.5869140625	0.422607421875	lower	../fonts/amplitud.ttf
228246	WORD	wordpools/wasnorm_wordpool_less_exclusions.txt	LTP175	ltpFR	4	1	0	CASH	252	n/a	0	0	0.5869140625	0.422607421875	lower	../fonts/amplitud.ttf
232295	WORD	wordpools/wasnorm_wordpool_less_exclusions.txt	LTP175	ltpFR	4	1	0	CHAUFFEUR	283	n/a	1	0	0.5869140625	0.422607421875	lower	../fonts/amplitud.ttf
236495	WORD	wordpools/wasnorm_wordpool_less_exclusions.txt	LTP175	ltpFR	4	1	0	AUTOMOBILE	62	n/a	1	0	0.5869140625	0.422607421875	lower	../fonts/amplitud.ttf
242267	REC_START	n/a	LTP175	ltpFR	4	1	n/a	n/a	n/a	n/a	n/a	n/a	n/a	n/a	n/a	n/a
242830	REC_WORD	wordpools/wasnorm_wordpool_less_exclusions.txt	LTP175	ltpFR	4	1	1	CINNAMON	310	n/a	0	n/a	n/a	n/a	n/a	n/a
243693	REC_WORD	wordpools/wasnorm_wordpool_less_exclusions.txt	LTP175	ltpFR	4	1	0	SUGAR	1401	n/a	0	n/a	n/a	n/a	n/a	n/a
244641	REC_WORD	wordpools/wasnorm_wordpool_less_exclusions.txt	LTP175	ltpFR	4	1	1	MOTOR	922	n/a	0	n/a	n/a	n/a	n/a	n/a
245779	REC_WORD	wordpools/wasnorm_wordpool_less_exclusions.txt	LTP175	ltpFR	4	1	1	PASSENGER	1020	n/a	1	n/a	n/a	n/a	n/a	n/a
247016	REC_WORD	wordpools/wasnorm_wordpool_less_exclusions.txt	LTP175	ltpFR	4	1	0	AUTOMOBILE	62	n/a	1	n/a	n/a	n/a	n/a	n/a
248952	REC_WORD	wordpools/wasnorm_wordpool_less_exclusions.txt	LTP175	ltpFR	4	1	1	LIME	823	n/a	1	n/a	n/a	n/a	n/a	n/a
274055	REC_WORD	wordpools/wasnorm_wordpool_less_exclusions.txt	LTP175	ltpFR	4	1	1	ATTIC	56	n/a	0	n/a	n/a	n/a	n/a	n/a
283882	REC_WORD	wordpools/wasnorm_wordpool_less_exclusions.txt	LTP175	ltpFR	4	1	0	SWAMP	1416	n/a	1	n/a	n/a	n/a	n/a	n/a
313549	REC_WORD	wordpools/wasnorm_wordpool_less_exclusions.txt	LTP175	ltpFR	4	1	0	BUCKET	184	n/a	1	n/a	n/a	n/a	n/a	n/a
329186	WORD	wordpools/wasnorm_wordpool_less_exclusions.txt	LTP175	ltpFR	4	2	0	TIMBER	1469	n/a	1	0	0.5869140625	0.422607421875	lower	../fonts/amplitud.ttf
333018	WORD	wordpools/wasnorm_wordpool_less_exclusions.txt	LTP175	ltpFR	4	2	0	LEAF	808	n/a	0	0	0.5869140625	0.422607421875	lower	../fonts/amplitud.ttf
336899	WORD	wordpools/wasnorm_wordpool_less_exclusions.txt	LTP175	ltpFR	4	2	0	POSSUM	1112	n/a	1	0	0.5869140625	0.422607421875	lower	../fonts/amplitud.ttf
340990	WORD	wordpools/wasnorm_wordpool_less_exclusions.txt	LTP175	ltpFR	4	2	1	POT	1114	n/a	0	1	0.412841796875	0.57763671875	upper	../fonts/zerothre.ttf
344980	WORD	wordpools/wasnorm_wordpool_less_exclusions.txt	LTP175	ltpFR	4	2	1	MOTH	920	n/a	1	1	0.412841796875	0.57763671875	upper	../fonts/zerothre.ttf
348837	WORD	wordpools/wasnorm_wordpool_less_exclusions.txt	LTP175	ltpFR	4	2	1	BOXER	160	n/a	1	1	0.412841796875	0.57763671875	upper	../fonts/zerothre.ttf
352894	WORD	wordpools/wasnorm_wordpool_less_exclusions.txt	LTP175	ltpFR	4	2	1	DIARY	460	n/a	0	1	0.412841796875	0.57763671875	upper	../fonts/zerothre.ttf
357051	WORD	wordpools/wasnorm_wordpool_less_exclusions.txt	LTP175	ltpFR	4	2	0	PUBLISHER	1137	n/a	1	0	0.5869140625	0.422607421875	lower	../fonts/amplitud.ttf
361183	WORD	wordpools/wasnorm_wordpool_less_exclusions.txt	LTP175	ltpFR	4	2	0	SICKLE	1302	n/a	0	0	0.5869140625	0.422607421875	lower	../fonts/amplitud.ttf
365364	WORD	wordpools/wasnorm_wordpool_less_exclusions.txt	LTP175	ltpFR	4	2	0	WOLF	1619	n/a	1	0	0.5869140625	0.422607421875	lower	../fonts/amplitud.ttf
369363	WORD	wordpools/wasnorm_wordpool_less_exclusions.txt	LTP175	ltpFR	4	2	0	SMOG	1330	n/a	1	0	0.5869140625	0.422607421875	lower	../fonts/amplitud.ttf
373571	WORD	wordpools/wasnorm_wordpool_less_exclusions.txt	LTP175	ltpFR	4	2	0	CIGARETTE	309	n/a	0	0	0.5869140625	0.422607421875	lower	../fonts/amplitud.ttf
377561	WORD	wordpools/wasnorm_wordpool_less_exclusions.txt	LTP175	ltpFR	4	2	1	CHEMICAL	291	n/a	0	1	0.412841796875	0.57763671875	upper	../fonts/zerothre.ttf
381635	WORD	wordpools/wasnorm_wordpool_less_exclusions.txt	LTP175	ltpFR	4	2	1	FUR	615	n/a	0	1	0.412841796875	0.57763671875	upper	../fonts/zerothre.ttf
385508	WORD	wordpools/wasnorm_wordpool_less_exclusions.txt	LTP175	ltpFR	4	2	1	CAT	257	n/a	1	1	0.412841796875	0.57763671875	upper	../fonts/zerothre.ttf
389364	WORD	wordpools/wasnorm_wordpool_less_exclusions.txt	LTP175	ltpFR	4	2	1	VINEGAR	1569	n/a	0	1	0.412841796875	0.57763671875	upper	../fonts/zerothre.ttf
395238	REC_START	n/a	LTP175	ltpFR	4	2	n/a	n/a	n/a	n/a	n/a	n/a	n/a	n/a	n/a	n/a
395926	REC_WORD	wordpools/wasnorm_wordpool_less_exclusions.txt	LTP175	ltpFR	4	2	1	VINEGAR	1569	n/a	0	n/a	n/a	n/a	n/a	n/a
396784	REC_WORD	wordpools/wasnorm_wordpool_less_exclusions.txt	LTP175	ltpFR	4	2	0	TIMBER	1469	n/a	1	n/a	n/a	n/a	n/a	n/a
397722	REC_WORD	wordpools/wasnorm_wordpool_less_exclusions.txt	LTP175	ltpFR	4	2	0	LEAF	808	n/a	0	n/a	n/a	n/a	n/a	n/a
412788	REC_WORD	wordpools/wasnorm_wordpool_less_exclusions.txt	LTP175	ltpFR	4	2	1	CAT	257	n/a	1	n/a	n/a	n/a	n/a	n/a
417846	REC_WORD	wordpools/wasnorm_wordpool_less_exclusions.txt	LTP175	ltpFR	4	2	1	FUR	615	n/a	0	n/a	n/a	n/a	n/a	n/a
428562	REC_WORD	wordpools/wasnorm_wordpool_less_exclusions.txt	LTP175	ltpFR	4	2	0	POSSUM	1112	n/a	1	n/a	n/a	n/a	n/a	n/a
432613	REC_WORD	wordpools/wasnorm_wordpool_less_exclusions.txt	LTP175	ltpFR	4	2	n/a	PRESSURE	-1	n/a	n/a	n/a	n/a	n/a	n/a	n/a
439128	REC_WORD	wordpools/wasnorm_wordpool_less_exclusions.txt	LTP175	ltpFR	4	2	0	CIGARETTE	309	n/a	0	n/a	n/a	n/a	n/a	n/a
478716	WORD	wordpools/wasnorm_wordpool_less_exclusions.txt	LTP175	ltpFR	4	3	-1	TUBE	1516	n/a	-1	1	1.0	1.0	upper	../fonts/Verdana.ttf
482599	WORD	wordpools/wasnorm_wordpool_less_exclusions.txt	LTP175	ltpFR	4	3	-1	BUILDING	191	n/a	-1	1	1.0	1.0	upper	../fonts/Verdana.ttf
486447	WORD	wordpools/wasnorm_wordpool_less_exclusions.txt	LTP175	ltpFR	4	3	-1	BEAST	108	n/a	-1	1	1.0	1.0	upper	../fonts/Verdana.ttf
490370	WORD	wordpools/wasnorm_wordpool_less_exclusions.txt	LTP175	ltpFR	4	3	-1	SCREEN	1253	n/a	-1	1	1.0	1.0	upper	../fonts/Verdana.ttf
494386	WORD	wordpools/wasnorm_wordpool_less_exclusions.txt	LTP175	ltpFR	4	3	-1	TECHNICIAN	1443	n/a	-1	1	1.0	1.0	upper	../fonts/Verdana.ttf
498334	WORD	wordpools/wasnorm_wordpool_less_exclusions.txt	LTP175	ltpFR	4	3	-1	POOL	1103	n/a	-1	1	1.0	1.0	upper	../fonts/Verdana.ttf
502425	WORD	wordpools/wasnorm_wordpool_less_exclusions.txt	LTP175	ltpFR	4	3	-1	RIVER	1194	n/a	-1	1	1.0	1.0	upper	../fonts/Verdana.ttf
506432	WORD	wordpools/wasnorm_wordpool_less_exclusions.txt	LTP175	ltpFR	4	3	-1	PAIL	1002	n/a	-1	1	1.0	1.0	upper	../fonts/Verdana.ttf
510639	WORD	wordpools/wasnorm_wordpool_less_exclusions.txt	LTP175	ltpFR	4	3	-1	BUILDER	190	n/a	-1	1	1.0	1.0	upper	../fonts/Verdana.ttf
514745	WORD	wordpools/wasnorm_wordpool_less_exclusions.txt	LTP175	ltpFR	4	3	-1	STRAW	1390	n/a	-1	1	1.0	1.0	upper	../fonts/Verdana.ttf
518578	WORD	wordpools/wasnorm_wordpool_less_exclusions.txt	LTP175	ltpFR	4	3	-1	SKILLET	1317	n/a	-1	1	1.0	1.0	upper	../fonts/Verdana.ttf
522710	WORD	wordpools/wasnorm_wordpool_less_exclusions.txt	LTP175	ltpFR	4	3	-1	BRACELET	163	n/a	-1	1	1.0	1.0	upper	../fonts/Verdana.ttf
526683	WORD	wordpools/wasnorm_wordpool_less_exclusions.txt	LTP175	ltpFR	4	3	-1	DRILL	497	n/a	-1	1	1.0	1.0	upper	../fonts/Verdana.ttf
530573	WORD	wordpools/wasnorm_wordpool_less_exclusions.txt	LTP175	ltpFR	4	3	-1	MATCH	878	n/a	-1	1	1.0	1.0	upper	../fonts/Verdana.ttf
534622	WORD	wordpools/wasnorm_wordpool_less_exclusions.txt	LTP175	ltpFR	4	3	-1	POPE	1105	n/a	-1	1	1.0	1.0	upper	../fonts/Verdana.ttf
538696	WORD	wordpools/wasnorm_wordpool_less_exclusions.txt	LTP175	ltpFR	4	3	-1	PLANT	1083	n/a	-1	1	1.0	1.0	upper	../fonts/Verdana.ttf
544619	REC_START	n/a	LTP175	ltpFR	4	3	n/a	n/a	n/a	n/a	n/a	n/a	n/a	n/a	n/a	n/a
545287	REC_WORD	wordpools/wasnorm_wordpool_less_exclusions.txt	LTP175	ltpFR	4	3	-1	BRACELET	163	n/a	-1	n/a	n/a	n/a	n/a	n/a
546080	REC_WORD	wordpools/wasnorm_wordpool_less_exclusions.txt	LTP175	ltpFR	4	3	-1	SKILLET	1317	n/a	-1	n/a	n/a	n/a	n/a	n/a
547218	REC_WORD	wordpools/wasnorm_wordpool_less_exclusions.txt	LTP175	ltpFR	4	3	-1	POPE	1105	n/a	-1	n/a	n/a	n/a	n/a	n/a
548076	REC_WORD	wordpools/wasnorm_wordpool_less_exclusions.txt	LTP175	ltpFR	4	3	-1	MATCH	878	n/a	-1	n/a	n/a	n/a	n/a	n/a
550780	REC_WORD	wordpools/wasnorm_wordpool_less_exclusions.txt	LTP175	ltpFR	4	3	-1	RIVER	1194	n/a	-1	n/a	n/a	n/a	n/a	n/a
556926	REC_WORD	wordpools/wasnorm_wordpool_less_exclusions.txt	LTP175	ltpFR	4	3	-1	TUBE	1516	n/a	-1	n/a	n/a	n/a	n/a	n/a
568360	REC_WORD	wordpools/wasnorm_wordpool_less_exclusions.txt	LTP175	ltpFR	4	3	1	VINEGAR	1569	n/a	0	n/a	n/a	n/a	n/a	n/a
590684	REC_WORD	wordpools/wasnorm_wordpool_less_exclusions.txt	LTP175	ltpFR	4	3	-1	BRACELET	163	n/a	-1	n/a	n/a	n/a	n/a	n/a
597728	REC_WORD	wordpools/wasnorm_wordpool_less_exclusions.txt	LTP175	ltpFR	4	3	-1	POOL	1103	n/a	-1	n/a	n/a	n/a	n/a	n/a
619555	REC_WORD_VV	wordpools/wasnorm_wordpool_less_exclusions.txt	LTP175	ltpFR	4	3	n/a	<>	-1	n/a	n/a	n/a	n/a	n/a	n/a	n/a
629630	WORD	wordpools/wasnorm_wordpool_less_exclusions.txt	LTP175	ltpFR	4	4	-1	NUN	962	n/a	-1	1	1.0	1.0	upper	../fonts/Verdana.ttf
633703	WORD	wordpools/wasnorm_wordpool_less_exclusions.txt	LTP175	ltpFR	4	4	-1	TRIANGLE	1504	n/a	-1	1	1.0	1.0	upper	../fonts/Verdana.ttf
637669	WORD	wordpools/wasnorm_wordpool_less_exclusions.txt	LTP175	ltpFR	4	4	-1	FIREMAN	569	n/a	-1	1	1.0	1.0	upper	../fonts/Verdana.ttf
641642	WORD	wordpools/wasnorm_wordpool_less_exclusions.txt	LTP175	ltpFR	4	4	-1	MEAL	882	n/a	-1	1	1.0	1.0	upper	../fonts/Verdana.ttf
645508	WORD	wordpools/wasnorm_wordpool_less_exclusions.txt	LTP175	ltpFR	4	4	-1	OCTOPUS	971	n/a	-1	1	1.0	1.0	upper	../fonts/Verdana.ttf
649606	WORD	wordpools/wasnorm_wordpool_less_exclusions.txt	LTP175	ltpFR	4	4	-1	EMPLOYER	532	n/a	-1	1	1.0	1.0	upper	../fonts/Verdana.ttf
653630	WORD	wordpools/wasnorm_wordpool_less_exclusions.txt	LTP175	ltpFR	4	4	-1	HEATER	698	n/a	-1	1	1.0	1.0	upper	../fonts/Verdana.ttf
657744	WORD	wordpools/wasnorm_wordpool_less_exclusions.txt	LTP175	ltpFR	4	4	-1	ICE	730	n/a	-1	1	1.0	1.0	upper	../fonts/Verdana.ttf
661742	WORD	wordpools/wasnorm_wordpool_less_exclusions.txt	LTP175	ltpFR	4	4	-1	DINNER	468	n/a	-1	1	1.0	1.0	upper	../fonts/Verdana.ttf
665933	WORD	wordpools/wasnorm_wordpool_less_exclusions.txt	LTP175	ltpFR	4	4	-1	SUPPER	1411	n/a	-1	1	1.0	1.0	upper	../fonts/Verdana.ttf
669765	WORD	wordpools/wasnorm_wordpool_less_exclusions.txt	LTP175	ltpFR	4	4	-1	TYPEWRITER	1531	n/a	-1	1	1.0	1.0	upper	../fonts/Verdana.ttf
673673	WORD	wordpools/wasnorm_wordpool_less_exclusions.txt	LTP175	ltpFR	4	4	-1	PALM	1007	n/a	-1	1	1.0	1.0	upper	../fonts/Verdana.ttf
677688	WORD	wordpools/wasnorm_wordpool_less_exclusions.txt	LTP175	ltpFR	4	4	-1	SWATTER	1418	n/a	-1	1	1.0	1.0	upper	../fonts/Verdana.ttf
681611	WORD	wordpools/wasnorm_wordpool_less_exclusions.txt	LTP175	ltpFR	4	4	-1	CROW	414	n/a	-1	1	1.0	1.0	upper	../fonts/Verdana.ttf
685809	WORD	wordpools/wasnorm_wordpool_less_exclusions.txt	LTP175	ltpFR	4	4	-1	ACORN	3	n/a	-1	1	1.0	1.0	upper	../fonts/Verdana.ttf
689924	WORD	wordpools/wasnorm_wordpool_less_exclusions.txt	LTP175	ltpFR	4	4	-1	RECIPE	1175	n/a	-1	1	1.0	1.0	upper	../fonts/Verdana.ttf
695699	REC_START	n/a	LTP175	ltpFR	4	4	n/a	n/a	n/a	n/a	n/a	n/a	n/a	n/a	n/a	n/a
696387	REC_WORD	wordpools/wasnorm_wordpool_less_exclusions.txt	LTP175	ltpFR	4	4	-1	NUN	962	n/a	-1	n/a	n/a	n/a	n/a	n/a
697525	REC_WORD	wordpools/wasnorm_wordpool_less_exclusions.txt	LTP175	ltpFR	4	4	-1	TRIANGLE	1504	n/a	-1	n/a	n/a	n/a	n/a	n/a
698408	REC_WORD	wordpools/wasnorm_wordpool_less_exclusions.txt	LTP175	ltpFR	4	4	-1	SWATTER	1418	n/a	-1	n/a	n/a	n/a	n/a	n/a
717330	REC_WORD	wordpools/wasnorm_wordpool_less_exclusions.txt	LTP175	ltpFR	4	4	-1	SUPPER	1411	n/a	-1	n/a	n/a	n/a	n/a	n/a
721899	REC_WORD	wordpools/wasnorm_wordpool_less_exclusions.txt	LTP175	ltpFR	4	4	-1	MEAL	882	n/a	-1	n/a	n/a	n/a	n/a	n/a
725101	REC_WORD	wordpools/wasnorm_wordpool_less_exclusions.txt	LTP175	ltpFR	4	4	-1	DINNER	468	n/a	-1	n/a	n/a	n/a	n/a	n/a
730624	REC_WORD	wordpools/wasnorm_wordpool_less_exclusions.txt	LTP175	ltpFR	4	4	-1	FIREMAN	569	n/a	-1	n/a	n/a	n/a	n/a	n/a
732216	REC_WORD	wordpools/wasnorm_wordpool_less_exclusions.txt	LTP175	ltpFR	4	4	-1	HEATER	698	n/a	-1	n/a	n/a	n/a	n/a	n/a
781158	WORD	wordpools/wasnorm_wordpool_less_exclusions.txt	LTP175	ltpFR	4	5	0	CENT	270	n/a	0	0	0.5869140625	0.422607421875	lower	../fonts/amplitud.ttf
785157	WORD	wordpools/wasnorm_wordpool_less_exclusions.txt	LTP175	ltpFR	4	5	0	MONEY	908	n/a	0	0	0.5869140625	0.422607421875	lower	../fonts/amplitud.ttf
789197	WORD	wordpools/wasnorm_wordpool_less_exclusions.txt	LTP175	ltpFR	4	5	0	CANOE	233	n/a	0	0	0.5869140625	0.422607421875	lower	../fonts/amplitud.ttf
793371	WORD	wordpools/wasnorm_wordpool_less_exclusions.txt	LTP175	ltpFR	4	5	0	BANDANNA	80	n/a	0	0	0.5869140625	0.422607421875	lower	../fonts/amplitud.ttf
797269	WORD	wordpools/wasnorm_wordpool_less_exclusions.txt	LTP175	ltpFR	4	5	0	PLASTER	1085	n/a	1	0	0.5869140625	0.422607421875	lower	../fonts/amplitud.ttf
801402	WORD	wordpools/wasnorm_wordpool_less_exclusions.txt	LTP175	ltpFR	4	5	0	ALLEY	15	n/a	1	0	0.5869140625	0.422607421875	lower	../fonts/amplitud.ttf
805551	WORD	wordpools/wasnorm_wordpool_less_exclusions.txt	LTP175	ltpFR	4	5	0	LIMOUSINE	824	n/a	1	0	0.5869140625	0.422607421875	lower	../fonts/amplitud.ttf
809699	WORD	wordpools/wasnorm_wordpool_less_exclusions.txt	LTP175	ltpFR	4	5	0	STAPLE	1371	n/a	0	0	0.5869140625	0.422607421875	lower	../fonts/amplitud.ttf
813698	WORD	wordpools/wasnorm_wordpool_less_exclusions.txt	LTP175	ltpFR	4	5	0	SHORTCAKE	1292	n/a	0	0	0.5869140625	0.422607421875	lower	../fonts/amplitud.ttf
817596	WORD	wordpools/wasnorm_wordpool_less_exclusions.txt	LTP175	ltpFR	4	5	0	PEANUT	1032	n/a	0	0	0.5869140625	0.422607421875	lower	../fonts/amplitud.ttf
821752	WORD	wordpools/wasnorm_wordpool_less_exclusions.txt	LTP175	ltpFR	4	5	0	RIBBON	1189	n/a	0	0	0.5869140625	0.422607421875	lower	../fonts/amplitud.ttf
825751	WORD	wordpools/wasnorm_wordpool_less_exclusions.txt	LTP175	ltpFR	4	5	0	COOKBOOK	373	n/a	1	0	0.5869140625	0.422607421875	lower	../fonts/amplitud.ttf
829650	WORD	wordpools/wasnorm_wordpool_less_exclusions.txt	LTP175	ltpFR	4	5	0	TOWN	1491	n/a	1	0	0.5869140625	0.422607421875	lower	../fonts/amplitud.ttf
833591	WORD	wordpools/wasnorm_wordpool_less_exclusions.txt	LTP175	ltpFR	4	5	0	CASHEW	253	n/a	0	0	0.5869140625	0.422607421875	lower	../fonts/amplitud.ttf
837763	WORD	wordpools/wasnorm_wordpool_less_exclusions.txt	LTP175	ltpFR	4	5	0	COW	393	n/a	1	0	0.5869140625	0.422607421875	lower	../fonts/amplitud.ttf
841638	WORD	wordpools/wasnorm_wordpool_less_exclusions.txt	LTP175	ltpFR	4	5	0	FARM	552	n/a	1	0	0.5869140625	0.422607421875	lower	../fonts/amplitud.ttf
847369	REC_START	n/a	LTP175	ltpFR	4	5	n/a	n/a	n/a	n/a	n/a	n/a	n/a	n/a	n/a	n/a
848357	REC_WORD	wordpools/wasnorm_wordpool_less_exclusions.txt	LTP175	ltpFR	4	5	0	COW	393	n/a	1	n/a	n/a	n/a	n/a	n/a
849010	REC_WORD	wordpools/wasnorm_wordpool_less_exclusions.txt	LTP175	ltpFR	4	5	0	FARM	552	n/a	1	n/a	n/a	n/a	n/a	n/a
849828	REC_WORD	wordpools/wasnorm_wordpool_less_exclusions.txt	LTP175	ltpFR	4	5	0	CENT	270	n/a	0	n/a	n/a	n/a	n/a	n/a
850731	REC_WORD	wordpools/wasnorm_wordpool_less_exclusions.txt	LTP175	ltpFR	4	5	0	MONEY	908	n/a	0	n/a	n/a	n/a	n/a	n/a
851714	REC_WORD	wordpools/wasnorm_wordpool_less_exclusions.txt	LTP175	ltpFR	4	5	0	ALLEY	15	n/a	1	n/a	n/a	n/a	n/a	n/a
852986	REC_WORD	wordpools/wasnorm_wordpool_less_exclusions.txt	LTP175	ltpFR	4	5	0	SHORTCAKE	1292	n/a	0	n/a	n/a	n/a	n/a	n/a
857067	REC_WORD	wordpools/wasnorm_wordpool_less_exclusions.txt	LTP175	ltpFR	4	5	0	CANOE	233	n/a	0	n/a	n/a	n/a	n/a	n/a
870631	REC_WORD	wordpools/wasnorm_wordpool_less_exclusions.txt	LTP175	ltpFR	4	5	0	CASHEW	253	n/a	0	n/a	n/a	n/a	n/a	n/a
871993	REC_WORD	wordpools/wasnorm_wordpool_less_exclusions.txt	LTP175	ltpFR	4	5	0	PEANUT	1032	n/a	0	n/a	n/a	n/a	n/a	n/a
895290	REC_WORD	wordpools/wasnorm_wordpool_less_exclusions.txt	LTP175	ltpFR	4	5	0	COW	393	n/a	1	n/a	n/a	n/a	n/a	n/a
896148	REC_WORD	wordpools/wasnorm_wordpool_less_exclusions.txt	LTP175	ltpFR	4	5	0	FARM	552	n/a	1	n/a	n/a	n/a	n/a	n/a
938662	WORD	wordpools/wasnorm_wordpool_less_exclusions.txt	LTP175	ltpFR	4	6	1	UMBRELLA	1534	n/a	0	1	0.412841796875	0.57763671875	upper	../fonts/zerothre.ttf
942494	WORD	wordpools/wasnorm_wordpool_less_exclusions.txt	LTP175	ltpFR	4	6	1	ORCHESTRA	981	n/a	1	1	0.412841796875	0.57763671875	upper	../fonts/zerothre.ttf
946350	WORD	wordpools/wasnorm_wordpool_less_exclusions.txt	LTP175	ltpFR	4	6	1	ANIMAL	23	n/a	1	1	0.412841796875	0.57763671875	upper	../fonts/zerothre.ttf
950340	WORD	wordpools/wasnorm_wordpool_less_exclusions.txt	LTP175	ltpFR	4	6	1	MARINE	869	n/a	1	1	0.412841796875	0.57763671875	upper	../fonts/zerothre.ttf
954305	WORD	wordpools/wasnorm_wordpool_less_exclusions.txt	LTP175	ltpFR	4	6	1	DIVER	476	n/a	1	1	0.412841796875	0.57763671875	upper	../fonts/zerothre.ttf
958295	WORD	wordpools/wasnorm_wordpool_less_exclusions.txt	LTP175	ltpFR	4	6	1	AWARD	63	n/a	0	1	0.412841796875	0.57763671875	upper	../fonts/zerothre.ttf
962403	WORD	wordpools/wasnorm_wordpool_less_exclusions.txt	LTP175	ltpFR	4	6	1	RESTAURANT	1187	n/a	0	1	0.412841796875	0.57763671875	upper	../fonts/zerothre.ttf
966385	WORD	wordpools/wasnorm_wordpool_less_exclusions.txt	LTP175	ltpFR	4	6	1	SINK	1309	n/a	0	1	0.412841796875	0.57763671875	upper	../fonts/zerothre.ttf
970308	WORD	wordpools/wasnorm_wordpool_less_exclusions.txt	LTP175	ltpFR	4	6	1	PIRATE	1074	n/a	1	1	0.412841796875	0.57763671875	upper	../fonts/zerothre.ttf
974298	WORD	wordpools/wasnorm_wordpool_less_exclusions.txt	LTP175	ltpFR	4	6	1	KNOB	787	n/a	0	1	0.412841796875	0.57763671875	upper	../fonts/zerothre.ttf
978472	WORD	wordpools/wasnorm_wordpool_less_exclusions.txt	LTP175	ltpFR	4	6	1	PORCUPINE	1107	n/a	1	1	0.412841796875	0.57763671875	upper	../fonts/zerothre.ttf
982337	WORD	wordpools/wasnorm_wordpool_less_exclusions.txt	LTP175	ltpFR	4	6	1	DWARF	510	n/a	1	1	0.412841796875	0.57763671875	upper	../fonts/zerothre.ttf
986461	WORD	wordpools/wasnorm_wordpool_less_exclusions.txt	LTP175	ltpFR	4	6	1	ELF	525	n/a	1	1	0.412841796875	0.57763671875	upper	../fonts/zerothre.ttf
990643	WORD	wordpools/wasnorm_wordpool_less_exclusions.txt	LTP175	ltpFR	4	6	1	WINDOW	1611	n/a	0	1	0.412841796875	0.57763671875	upper	../fonts/zerothre.ttf
994741	WORD	wordpools/wasnorm_wordpool_less_exclusions.txt	LTP175	ltpFR	4	6	1	TAPE	1433	n/a	0	1	0.412841796875	0.57763671875	upper	../fonts/zerothre.ttf
998914	WORD	wordpools/wasnorm_wordpool_less_exclusions.txt	LTP175	ltpFR	4	6	1	ACTOR	5	n/a	1	1	0.412841796875	0.57763671875	upper	../fonts/zerothre.ttf
1004796	REC_START	n/a	LTP175	ltpFR	4	6	n/a	n/a	n/a	n/a	n/a	n/a	n/a	n/a	n/a	n/a
1005290	REC_WORD	wordpools/wasnorm_wordpool_less_exclusions.txt	LTP175	ltpFR	4	6	1	ANIMAL	23	n/a	1	n/a	n/a	n/a	n/a	n/a
1006781	REC_WORD	wordpools/wasnorm_wordpool_less_exclusions.txt	LTP175	ltpFR	4	6	1	ACTOR	5	n/a	1	n/a	n/a	n/a	n/a	n/a
1007824	REC_WORD	wordpools/wasnorm_wordpool_less_exclusions.txt	LTP175	ltpFR	4	6	1	DWARF	510	n/a	1	n/a	n/a	n/a	n/a	n/a
1009231	REC_WORD	wordpools/wasnorm_wordpool_less_exclusions.txt	LTP175	ltpFR	4	6	1	ELF	525	n/a	1	n/a	n/a	n/a	n/a	n/a
1019856	REC_WORD	wordpools/wasnorm_wordpool_less_exclusions.txt	LTP175	ltpFR	4	6	1	PORCUPINE	1107	n/a	1	n/a	n/a	n/a	n/a	n/a
1028552	REC_WORD	wordpools/wasnorm_wordpool_less_exclusions.txt	LTP175	ltpFR	4	6	1	ORCHESTRA	981	n/a	1	n/a	n/a	n/a	n/a	n/a
1029415	REC_WORD	wordpools/wasnorm_wordpool_less_exclusions.txt	LTP175	ltpFR	4	6	1	UMBRELLA	1534	n/a	0	n/a	n/a	n/a	n/a	n/a
1079102	REC_WORD	wordpools/wasnorm_wordpool_less_exclusions.txt	LTP175	ltpFR	4	6	1	RESTAURANT	1187	n/a	0	n/a	n/a	n/a	n/a	n/a
1089924	WORD	wordpools/wasnorm_wordpool_less_exclusions.txt	LTP175	ltpFR	4	7	-1	SUMMIT	1405	n/a	-1	1	1.0	1.0	upper	../fonts/Verdana.ttf
1093814	WORD	wordpools/wasnorm_wordpool_less_exclusions.txt	LTP175	ltpFR	4	7	-1	MOUNTAIN	924	n/a	-1	1	1.0	1.0	upper	../fonts/Verdana.ttf
1097937	WORD	wordpools/wasnorm_wordpool_less_exclusions.txt	LTP175	ltpFR	4	7	-1	EWE	542	n/a	-1	1	1.0	1.0	upper	../fonts/Verdana.ttf
1101836	WORD	wordpools/wasnorm_wordpool_less_exclusions.txt	LTP175	ltpFR	4	7	-1	QUILT	1151	n/a	-1	1	1.0	1.0	upper	../fonts/Verdana.ttf
1105860	WORD	wordpools/wasnorm_wordpool_less_exclusions.txt	LTP175	ltpFR	4	7	-1	CHAPEL	280	n/a	-1	1	1.0	1.0	upper	../fonts/Verdana.ttf
1109817	WORD	wordpools/wasnorm_wordpool_less_exclusions.txt	LTP175	ltpFR	4	7	-1	LIVER	833	n/a	-1	1	1.0	1.0	upper	../fonts/Verdana.ttf
1113882	WORD	wordpools/wasnorm_wordpool_less_exclusions.txt	LTP175	ltpFR	4	7	-1	SAUSAGE	1238	n/a	-1	1	1.0	1.0	upper	../fonts/Verdana.ttf
1117855	WORD	wordpools/wasnorm_wordpool_less_exclusions.txt	LTP175	ltpFR	4	7	-1	PLIERS	1089	n/a	-1	1	1.0	1.0	upper	../fonts/Verdana.ttf
1122029	WORD	wordpools/wasnorm_wordpool_less_exclusions.txt	LTP175	ltpFR	4	7	-1	HAMMER	680	n/a	-1	1	1.0	1.0	upper	../fonts/Verdana.ttf
1126061	WORD	wordpools/wasnorm_wordpool_less_exclusions.txt	LTP175	ltpFR	4	7	-1	SALIVA	1226	n/a	-1	1	1.0	1.0	upper	../fonts/Verdana.ttf
1130143	WORD	wordpools/wasnorm_wordpool_less_exclusions.txt	LTP175	ltpFR	4	7	-1	REEF	1177	n/a	-1	1	1.0	1.0	upper	../fonts/Verdana.ttf
1134108	WORD	wordpools/wasnorm_wordpool_less_exclusions.txt	LTP175	ltpFR	4	7	-1	SILVERWARE	1308	n/a	-1	1	1.0	1.0	upper	../fonts/Verdana.ttf
1138106	WORD	wordpools/wasnorm_wordpool_less_exclusions.txt	LTP175	ltpFR	4	7	-1	WATER	1594	n/a	-1	1	1.0	1.0	upper	../fonts/Verdana.ttf
1142305	WORD	wordpools/wasnorm_wordpool_less_exclusions.txt	LTP175	ltpFR	4	7	-1	PUB	1135	n/a	-1	1	1.0	1.0	upper	../fonts/Verdana.ttf
1146438	WORD	wordpools/wasnorm_wordpool_less_exclusions.txt	LTP175	ltpFR	4	7	-1	TEMPLE	1448	n/a	-1	1	1.0	1.0	upper	../fonts/Verdana.ttf
1150586	WORD	wordpools/wasnorm_wordpool_less_exclusions.txt	LTP175	ltpFR	4	7	-1	SEA	1259	n/a	-1	1	1.0	1.0	upper	../fonts/Verdana.ttf
1156585	REC_START	n/a	LTP175	ltpFR	4	7	n/a	n/a	n/a	n/a	n/a	n/a	n/a	n/a	n/a	n/a
1157168	REC_WORD	wordpools/wasnorm_wordpool_less_exclusions.txt	LTP175	ltpFR	4	7	-1	SUMMIT	1405	n/a	-1	n/a	n/a	n/a	n/a	n/a
1158081	REC_WORD	wordpools/wasnorm_wordpool_less_exclusions.txt	LTP175	ltpFR	4	7	-1	MOUNTAIN	924	n/a	-1	n/a	n/a	n/a	n/a	n/a
1159129	REC_WORD	wordpools/wasnorm_wordpool_less_exclusions.txt	LTP175	ltpFR	4	7	-1	EWE	542	n/a	-1	n/a	n/a	n/a	n/a	n/a
1162162	REC_WORD	wordpools/wasnorm_wordpool_less_exclusions.txt	LTP175	ltpFR	4	7	-1	SEA	1259	n/a	-1	n/a	n/a	n/a	n/a	n/a
1172339	REC_WORD	wordpools/wasnorm_wordpool_less_exclusions.txt	LTP175	ltpFR	4	7	-1	PUB	1135	n/a	-1	n/a	n/a	n/a	n/a	n/a
1178744	REC_WORD	wordpools/wasnorm_wordpool_less_exclusions.txt	LTP175	ltpFR	4	7	-1	LIVER	833	n/a	-1	n/a	n/a	n/a	n/a	n/a
1205045	REC_WORD	wordpools/wasnorm_wordpool_less_exclusions.txt	LTP175	ltpFR	4	7	-1	PLIERS	1089	n/a	-1	n/a	n/a	n/a	n/a	n/a
1206591	REC_WORD	wordpools/wasnorm_wordpool_less_exclusions.txt	LTP175	ltpFR	4	7	-1	HAMMER	680	n/a	-1	n/a	n/a	n/a	n/a	n/a
1223273	REC_WORD	wordpools/wasnorm_wordpool_less_exclusions.txt	LTP175	ltpFR	4	7	1	DIVER	476	n/a	1	n/a	n/a	n/a	n/a	n/a
1238879	WORD	wordpools/wasnorm_wordpool_less_exclusions.txt	LTP175	ltpFR	4	8	1	FLASHLIGHT	575	n/a	0	1	0.412841796875	0.57763671875	upper	../fonts/zerothre.ttf
1243044	WORD	wordpools/wasnorm_wordpool_less_exclusions.txt	LTP175	ltpFR	4	8	1	LASER	801	n/a	0	1	0.412841796875	0.57763671875	upper	../fonts/zerothre.ttf
1247243	WORD	wordpools/wasnorm_wordpool_less_exclusions.txt	LTP175	ltpFR	4	8	1	MAP	865	n/a	0	1	0.412841796875	0.57763671875	upper	../fonts/zerothre.ttf
1251316	WORD	wordpools/wasnorm_wordpool_less_exclusions.txt	LTP175	ltpFR	4	8	1	QUAIL	1147	n/a	1	1	0.412841796875	0.57763671875	upper	../fonts/zerothre.ttf
1255231	WORD	wordpools/wasnorm_wordpool_less_exclusions.txt	LTP175	ltpFR	4	8	1	MOUTH	926	n/a	1	1	0.412841796875	0.57763671875	upper	../fonts/zerothre.ttf
1259213	WORD	wordpools/wasnorm_wordpool_less_exclusions.txt	LTP175	ltpFR	4	8	1	ARTERY	41	n/a	0	1	0.412841796875	0.57763671875	upper	../fonts/zerothre.ttf
1263087	WORD	wordpools/wasnorm_wordpool_less_exclusions.txt	LTP175	ltpFR	4	8	1	PENGUIN	1044	n/a	1	1	0.412841796875	0.57763671875	upper	../fonts/zerothre.ttf
1267152	WORD	wordpools/wasnorm_wordpool_less_exclusions.txt	LTP175	ltpFR	4	8	1	SWEATER	1419	n/a	0	1	0.412841796875	0.57763671875	upper	../fonts/zerothre.ttf
1271126	WORD	wordpools/wasnorm_wordpool_less_exclusions.txt	LTP175	ltpFR	4	8	1	VAN	1548	n/a	0	1	0.412841796875	0.57763671875	upper	../fonts/zerothre.ttf
1275216	WORD	wordpools/wasnorm_wordpool_less_exclusions.txt	LTP175	ltpFR	4	8	1	HOOD	714	n/a	0	1	0.412841796875	0.57763671875	upper	../fonts/zerothre.ttf
1279131	WORD	wordpools/wasnorm_wordpool_less_exclusions.txt	LTP175	ltpFR	4	8	1	LAMP	798	n/a	0	1	0.412841796875	0.57763671875	upper	../fonts/zerothre.ttf
1283180	WORD	wordpools/wasnorm_wordpool_less_exclusions.txt	LTP175	ltpFR	4	8	1	CHARCOAL	281	n/a	0	1	0.412841796875	0.57763671875	upper	../fonts/zerothre.ttf
1287370	WORD	wordpools/wasnorm_wordpool_less_exclusions.txt	LTP175	ltpFR	4	8	1	VAMPIRE	1547	n/a	1	1	0.412841796875	0.57763671875	upper	../fonts/zerothre.ttf
1291461	WORD	wordpools/wasnorm_wordpool_less_exclusions.txt	LTP175	ltpFR	4	8	1	FROST	609	n/a	0	1	0.412841796875	0.57763671875	upper	../fonts/zerothre.ttf
1295284	WORD	wordpools/wasnorm_wordpool_less_exclusions.txt	LTP175	ltpFR	4	8	1	KNIGHT	786	n/a	0	1	0.412841796875	0.57763671875	upper	../fonts/zerothre.ttf
1299332	WORD	wordpools/wasnorm_wordpool_less_exclusions.txt	LTP175	ltpFR	4	8	1	SCALLOP	1242	n/a	0	1	0.412841796875	0.57763671875	upper	../fonts/zerothre.ttf
1305248	REC_START	n/a	LTP175	ltpFR	4	8	n/a	n/a	n/a	n/a	n/a	n/a	n/a	n/a	n/a	n/a
1305797	REC_WORD	wordpools/wasnorm_wordpool_less_exclusions.txt	LTP175	ltpFR	4	8	1	SCALLOP	1242	n/a	0	n/a	n/a	n/a	n/a	n/a
1306759	REC_WORD	wordpools/wasnorm_wordpool_less_exclusions.txt	LTP175	ltpFR	4	8	1	FLASHLIGHT	575	n/a	0	n/a	n/a	n/a	n/a	n/a
1307647	REC_WORD	wordpools/wasnorm_wordpool_less_exclusions.txt	LTP175	ltpFR	4	8	1	LASER	801	n/a	0	n/a	n/a	n/a	n/a	n/a
1308450	REC_WORD	wordpools/wasnorm_wordpool_less_exclusions.txt	LTP175	ltpFR	4	8	1	MAP	865	n/a	0	n/a	n/a	n/a	n/a	n/a
1309423	REC_WORD	wordpools/wasnorm_wordpool_less_exclusions.txt	LTP175	ltpFR	4	8	1	CHARCOAL	281	n/a	0	n/a	n/a	n/a	n/a	n/a
1362622	REC_WORD	wordpools/wasnorm_wordpool_less_exclusions.txt	LTP175	ltpFR	4	8	-1	WATER	1594	n/a	-1	n/a	n/a	n/a	n/a	n/a
1390059	WORD	wordpools/wasnorm_wordpool_less_exclusions.txt	LTP175	ltpFR	4	9	0	VELVET	1555	n/a	0	0	0.5869140625	0.422607421875	lower	../fonts/amplitud.ttf
1393949	WORD	wordpools/wasnorm_wordpool_less_exclusions.txt	LTP175	ltpFR	4	9	0	CAN	225	n/a	0	0	0.5869140625	0.422607421875	lower	../fonts/amplitud.ttf
1398106	WORD	wordpools/wasnorm_wordpool_less_exclusions.txt	LTP175	ltpFR	4	9	0	BRAN	167	n/a	0	0	0.5869140625	0.422607421875	lower	../fonts/amplitud.ttf
1402163	WORD	wordpools/wasnorm_wordpool_less_exclusions.txt	LTP175	ltpFR	4	9	0	SOFA	1342	n/a	1	0	0.5869140625	0.422607421875	lower	../fonts/amplitud.ttf
1406169	WORD	wordpools/wasnorm_wordpool_less_exclusions.txt	LTP175	ltpFR	4	9	0	UNCLE	1536	n/a	1	0	0.5869140625	0.422607421875	lower	../fonts/amplitud.ttf
1410101	WORD	wordpools/wasnorm_wordpool_less_exclusions.txt	LTP175	ltpFR	4	9	0	HERD	705	n/a	1	0	0.5869140625	0.422607421875	lower	../fonts/amplitud.ttf
1414192	WORD	wordpools/wasnorm_wordpool_less_exclusions.txt	LTP175	ltpFR	4	9	0	TURTLE	1522	n/a	0	0	0.5869140625	0.422607421875	lower	../fonts/amplitud.ttf
1418240	WORD	wordpools/wasnorm_wordpool_less_exclusions.txt	LTP175	ltpFR	4	9	0	SNAIL	1332	n/a	0	0	0.5869140625	0.422607421875	lower	../fonts/amplitud.ttf
1422230	WORD	wordpools/wasnorm_wordpool_less_exclusions.txt	LTP175	ltpFR	4	9	0	PAD	998	n/a	1	0	0.5869140625	0.422607421875	lower	../fonts/amplitud.ttf
1426413	WORD	wordpools/wasnorm_wordpool_less_exclusions.txt	LTP175	ltpFR	4	9	0	KEG	770	n/a	1	0	0.5869140625	0.422607421875	lower	../fonts/amplitud.ttf
1430378	WORD	wordpools/wasnorm_wordpool_less_exclusions.txt	LTP175	ltpFR	4	9	0	LOUNGE	845	n/a	1	0	0.5869140625	0.422607421875	lower	../fonts/amplitud.ttf
1434444	WORD	wordpools/wasnorm_wordpool_less_exclusions.txt	LTP175	ltpFR	4	9	0	SPONGE	1355	n/a	0	0	0.5869140625	0.422607421875	lower	../fonts/amplitud.ttf
1438384	WORD	wordpools/wasnorm_wordpool_less_exclusions.txt	LTP175	ltpFR	4	9	0	CUE	422	n/a	1	0	0.5869140625	0.422607421875	lower	../fonts/amplitud.ttf
1442491	WORD	wordpools/wasnorm_wordpool_less_exclusions.txt	LTP175	ltpFR	4	9	0	COPIER	377	n/a	1	0	0.5869140625	0.422607421875	lower	../fonts/amplitud.ttf
1446440	WORD	wordpools/wasnorm_wordpool_less_exclusions.txt	LTP175	ltpFR	4	9	0	LIBRARY	816	n/a	1	0	0.5869140625	0.422607421875	lower	../fonts/amplitud.ttf
1450421	WORD	wordpools/wasnorm_wordpool_less_exclusions.txt	LTP175	ltpFR	4	9	0	CEREAL	272	n/a	1	0	0.5869140625	0.422607421875	lower	../fonts/amplitud.ttf
1456252	REC_START	n/a	LTP175	ltpFR	4	9	n/a	n/a	n/a	n/a	n/a	n/a	n/a	n/a	n/a	n/a
1456681	REC_WORD	wordpools/wasnorm_wordpool_less_exclusions.txt	LTP175	ltpFR	4	9	0	CEREAL	272	n/a	1	n/a	n/a	n/a	n/a	n/a
1457733	REC_WORD	wordpools/wasnorm_wordpool_less_exclusions.txt	LTP175	ltpFR	4	9	0	VELVET	1555	n/a	0	n/a	n/a	n/a	n/a	n/a
1458891	REC_WORD	wordpools/wasnorm_wordpool_less_exclusions.txt	LTP175	ltpFR	4	9	0	CAN	225	n/a	0	n/a	n/a	n/a	n/a	n/a
1459893	REC_WORD	wordpools/wasnorm_wordpool_less_exclusions.txt	LTP175	ltpFR	4	9	0	BRAN	167	n/a	0	n/a	n/a	n/a	n/a	n/a
1464812	REC_WORD	wordpools/wasnorm_wordpool_less_exclusions.txt	LTP175	ltpFR	4	9	0	LIBRARY	816	n/a	1	n/a	n/a	n/a	n/a	n/a
1481150	REC_WORD	wordpools/wasnorm_wordpool_less_exclusions.txt	LTP175	ltpFR	4	9	1	QUAIL	1147	n/a	1	n/a	n/a	n/a	n/a	n/a
1491896	REC_WORD	wordpools/wasnorm_wordpool_less_exclusions.txt	LTP175	ltpFR	4	9	1	FROST	609	n/a	0	n/a	n/a	n/a	n/a	n/a
1520990	REC_WORD	wordpools/wasnorm_wordpool_less_exclusions.txt	LTP175	ltpFR	4	9	0	CEREAL	272	n/a	1	n/a	n/a	n/a	n/a	n/a
1539440	WORD	wordpools/wasnorm_wordpool_less_exclusions.txt	LTP175	ltpFR	4	10	0	DOG	480	n/a	1	0	0.5869140625	0.422607421875	lower	../fonts/amplitud.ttf
1543405	WORD	wordpools/wasnorm_wordpool_less_exclusions.txt	LTP175	ltpFR	4	10	0	CHIPMUNK	304	n/a	1	0	0.5869140625	0.422607421875	lower	../fonts/amplitud.ttf
1547604	WORD	wordpools/wasnorm_wordpool_less_exclusions.txt	LTP175	ltpFR	4	10	1	PURSE	1145	n/a	0	1	0.412841796875	0.57763671875	upper	../fonts/zerothre.ttf
1551619	WORD	wordpools/wasnorm_wordpool_less_exclusions.txt	LTP175	ltpFR	4	10	1	HINGE	709	n/a	0	1	0.412841796875	0.57763671875	upper	../fonts/zerothre.ttf
1555741	WORD	wordpools/wasnorm_wordpool_less_exclusions.txt	LTP175	ltpFR	4	10	1	TEACHER	1440	n/a	1	1	0.412841796875	0.57763671875	upper	../fonts/zerothre.ttf
1559574	WORD	wordpools/wasnorm_wordpool_less_exclusions.txt	LTP175	ltpFR	4	10	1	MANSION	864	n/a	0	1	0.412841796875	0.57763671875	upper	../fonts/zerothre.ttf
1563565	WORD	wordpools/wasnorm_wordpool_less_exclusions.txt	LTP175	ltpFR	4	10	0	BEE	112	n/a	0	0	0.5869140625	0.422607421875	lower	../fonts/amplitud.ttf
1567563	WORD	wordpools/wasnorm_wordpool_less_exclusions.txt	LTP175	ltpFR	4	10	0	HONEY	713	n/a	0	0	0.5869140625	0.422607421875	lower	../fonts/amplitud.ttf
1571678	WORD	wordpools/wasnorm_wordpool_less_exclusions.txt	LTP175	ltpFR	4	10	0	DOCK	477	n/a	1	0	0.5869140625	0.422607421875	lower	../fonts/amplitud.ttf
1575784	WORD	wordpools/wasnorm_wordpool_less_exclusions.txt	LTP175	ltpFR	4	10	1	APARTMENT	30	n/a	0	1	0.412841796875	0.57763671875	upper	../fonts/zerothre.ttf
1579933	WORD	wordpools/wasnorm_wordpool_less_exclusions.txt	LTP175	ltpFR	4	10	1	DOLL	481	n/a	0	1	0.412841796875	0.57763671875	upper	../fonts/zerothre.ttf
1584006	WORD	wordpools/wasnorm_wordpool_less_exclusions.txt	LTP175	ltpFR	4	10	1	DORM	488	n/a	0	1	0.412841796875	0.57763671875	upper	../fonts/zerothre.ttf
1588155	WORD	wordpools/wasnorm_wordpool_less_exclusions.txt	LTP175	ltpFR	4	10	1	CABIN	211	n/a	0	1	0.412841796875	0.57763671875	upper	../fonts/zerothre.ttf
1592303	WORD	wordpools/wasnorm_wordpool_less_exclusions.txt	LTP175	ltpFR	4	10	0	BARK	87	n/a	2	0	0.5869140625	0.422607421875	lower	../fonts/amplitud.ttf
1592345	KEY_MSG	n/a	LTP175	ltpFR	4	10	n/a	n/a	n/a	n/a	n/a	n/a	n/a	n/a	n/a	n/a
1596335	WORD	wordpools/wasnorm_wordpool_less_exclusions.txt	LTP175	ltpFR	4	10	0	DICTATOR	462	n/a	1	0	0.5869140625	0.422607421875	lower	../fonts/amplitud.ttf
1600326	WORD	wordpools/wasnorm_wordpool_less_exclusions.txt	LTP175	ltpFR	4	10	0	SHACK	1273	n/a	1	0	0.5869140625	0.422607421875	lower	../fonts/amplitud.ttf
1606091	REC_START	n/a	LTP175	ltpFR	4	10	n/a	n/a	n/a	n/a	n/a	n/a	n/a	n/a	n/a	n/a
1607428	REC_WORD	wordpools/wasnorm_wordpool_less_exclusions.txt	LTP175	ltpFR	4	10	0	DOG	480	n/a	1	n/a	n/a	n/a	n/a	n/a
1609518	REC_WORD	wordpools/wasnorm_wordpool_less_exclusions.txt	LTP175	ltpFR	4	10	0	BEE	112	n/a	0	n/a	n/a	n/a	n/a	n/a
1610137	REC_WORD	wordpools/wasnorm_wordpool_less_exclusions.txt	LTP175	ltpFR	4	10	0	HONEY	713	n/a	0	n/a	n/a	n/a	n/a	n/a
1611174	REC_WORD	wordpools/wasnorm_wordpool_less_exclusions.txt	LTP175	ltpFR	4	10	1	APARTMENT	30	n/a	0	n/a	n/a	n/a	n/a	n/a
1617250	REC_WORD	wordpools/wasnorm_wordpool_less_exclusions.txt	LTP175	ltpFR	4	10	0	SHACK	1273	n/a	1	n/a	n/a	n/a	n/a	n/a
1626494	REC_WORD	wordpools/wasnorm_wordpool_less_exclusions.txt	LTP175	ltpFR	4	10	0	CHIPMUNK	304	n/a	1	n/a	n/a	n/a	n/a	n/a
1632740	REC_WORD	wordpools/wasnorm_wordpool_less_exclusions.txt	LTP175	ltpFR	4	10	1	DORM	488	n/a	0	n/a	n/a	n/a	n/a	n/a
1669447	REC_WORD	wordpools/wasnorm_wordpool_less_exclusions.txt	LTP175	ltpFR	4	10	0	SNAIL	1332	n/a	0	n/a	n/a	n/a	n/a	n/a
1689620	WORD	wordpools/wasnorm_wordpool_less_exclusions.txt	LTP175	ltpFR	4	11	0	TIGER	1467	n/a	1	0	0.5869140625	0.422607421875	lower	../fonts/amplitud.ttf
1693485	WORD	wordpools/wasnorm_wordpool_less_exclusions.txt	LTP175	ltpFR	4	11	0	DANCER	437	n/a	1	0	0.5869140625	0.422607421875	lower	../fonts/amplitud.ttf
1697434	WORD	wordpools/wasnorm_wordpool_less_exclusions.txt	LTP175	ltpFR	4	11	0	BALLERINA	74	n/a	1	0	0.5869140625	0.422607421875	lower	../fonts/amplitud.ttf
1701549	WORD	wordpools/wasnorm_wordpool_less_exclusions.txt	LTP175	ltpFR	4	11	0	UNDERWEAR	1537	n/a	0	0	0.5869140625	0.422607421875	lower	../fonts/amplitud.ttf
1705514	WORD	wordpools/wasnorm_wordpool_less_exclusions.txt	LTP175	ltpFR	4	11	0	SPHINX	1349	n/a	1	0	0.5869140625	0.422607421875	lower	../fonts/amplitud.ttf
1709638	WORD	wordpools/wasnorm_wordpool_less_exclusions.txt	LTP175	ltpFR	4	11	1	BEAKER	104	n/a	1	1	0.412841796875	0.57763671875	upper	../fonts/zerothre.ttf
1713453	WORD	wordpools/wasnorm_wordpool_less_exclusions.txt	LTP175	ltpFR	4	11	1	PERSONNEL	1053	n/a	0	1	0.412841796875	0.57763671875	upper	../fonts/zerothre.ttf
1717292	WORD	wordpools/wasnorm_wordpool_less_exclusions.txt	LTP175	ltpFR	4	11	0	CHAIRPERSON	275	n/a	1	0	0.5869140625	0.422607421875	lower	../fonts/amplitud.ttf
1721500	WORD	wordpools/wasnorm_wordpool_less_exclusions.txt	LTP175	ltpFR	4	11	0	WAGON	1578	n/a	1	0	0.5869140625	0.422607421875	lower	../fonts/amplitud.ttf
1725314	WORD	wordpools/wasnorm_wordpool_less_exclusions.txt	LTP175	ltpFR	4	11	0	COBBLER	335	n/a	1	0	0.5869140625	0.422607421875	lower	../fonts/amplitud.ttf
1729389	WORD	wordpools/wasnorm_wordpool_less_exclusions.txt	LTP175	ltpFR	4	11	1	RASPBERRY	1168	n/a	n/a	1	0.412841796875	0.57763671875	upper	../fonts/zerothre.ttf
1732413	SLOW_MSG	n/a	LTP175	ltpFR	4	11	n/a	n/a	n/a	n/a	n/a	n/a	n/a	n/a	n/a	n/a
1734978	WORD	wordpools/wasnorm_wordpool_less_exclusions.txt	LTP175	ltpFR	4	11	1	DASHBOARD	441	n/a	0	1	0.412841796875	0.57763671875	upper	../fonts/zerothre.ttf
1739043	WORD	wordpools/wasnorm_wordpool_less_exclusions.txt	LTP175	ltpFR	4	11	1	FLASK	576	n/a	0	1	0.412841796875	0.57763671875	upper	../fonts/zerothre.ttf
1742858	WORD	wordpools/wasnorm_wordpool_less_exclusions.txt	LTP175	ltpFR	4	11	1	BENCH	121	n/a	0	1	0.412841796875	0.57763671875	upper	../fonts/zerothre.ttf
1746848	WORD	wordpools/wasnorm_wordpool_less_exclusions.txt	LTP175	ltpFR	4	11	1	CHIMNEY	301	n/a	0	1	0.412841796875	0.57763671875	upper	../fonts/zerothre.ttf
1751039	WORD	wordpools/wasnorm_wordpool_less_exclusions.txt	LTP175	ltpFR	4	11	1	CHICK	296	n/a	1	1	0.412841796875	0.57763671875	upper	../fonts/zerothre.ttf
1756737	REC_START	n/a	LTP175	ltpFR	4	11	n/a	n/a	n/a	n/a	n/a	n/a	n/a	n/a	n/a	n/a
1757385	REC_WORD	wordpools/wasnorm_wordpool_less_exclusions.txt	LTP175	ltpFR	4	11	-1	DINNER	468	n/a	-1	n/a	n/a	n/a	n/a	n/a
1758238	REC_WORD	wordpools/wasnorm_wordpool_less_exclusions.txt	LTP175	ltpFR	4	11	1	FLASK	576	n/a	0	n/a	n/a	n/a	n/a	n/a
1759750	REC_WORD	wordpools/wasnorm_wordpool_less_exclusions.txt	LTP175	ltpFR	4	11	1	CHIMNEY	301	n/a	0	n/a	n/a	n/a	n/a	n/a
1771368	REC_WORD	wordpools/wasnorm_wordpool_less_exclusions.txt	LTP175	ltpFR	4	11	0	WAGON	1578	n/a	1	n/a	n/a	n/a	n/a	n/a
1772666	REC_WORD	wordpools/wasnorm_wordpool_less_exclusions.txt	LTP175	ltpFR	4	11	0	COBBLER	335	n/a	1	n/a	n/a	n/a	n/a	n/a
1776811	REC_WORD	wordpools/wasnorm_wordpool_less_exclusions.txt	LTP175	ltpFR	4	11	0	BALLERINA	74	n/a	1	n/a	n/a	n/a	n/a	n/a
1778248	REC_WORD	wordpools/wasnorm_wordpool_less_exclusions.txt	LTP175	ltpFR	4	11	0	DANCER	437	n/a	1	n/a	n/a	n/a	n/a	n/a
1820741	REC_WORD	wordpools/wasnorm_wordpool_less_exclusions.txt	LTP175	ltpFR	4	11	1	DOLL	481	n/a	0	n/a	n/a	n/a	n/a	n/a
1841281	WORD	wordpools/wasnorm_wordpool_less_exclusions.txt	LTP175	ltpFR	4	12	1	JELLO	754	n/a	0	1	0.412841796875	0.57763671875	upper	../fonts/zerothre.ttf
1845147	WORD	wordpools/wasnorm_wordpool_less_exclusions.txt	LTP175	ltpFR	4	12	1	CUSTARD	429	n/a	0	1	0.412841796875	0.57763671875	upper	../fonts/zerothre.ttf
1849054	WORD	wordpools/wasnorm_wordpool_less_exclusions.txt	LTP175	ltpFR	4	12	1	TRAITOR	1495	n/a	1	1	0.412841796875	0.57763671875	upper	../fonts/zerothre.ttf
1853019	WORD	wordpools/wasnorm_wordpool_less_exclusions.txt	LTP175	ltpFR	4	12	1	OZONE	996	n/a	0	1	0.412841796875	0.57763671875	upper	../fonts/zerothre.ttf
1857192	WORD	wordpools/wasnorm_wordpool_less_exclusions.txt	LTP175	ltpFR	4	12	0	CHESS	294	n/a	0	0	0.5869140625	0.422607421875	lower	../fonts/amplitud.ttf
1861074	WORD	wordpools/wasnorm_wordpool_less_exclusions.txt	LTP175	ltpFR	4	12	0	COCKTAIL	338	n/a	0	0	0.5869140625	0.422607421875	lower	../fonts/amplitud.ttf
1865090	WORD	wordpools/wasnorm_wordpool_less_exclusions.txt	LTP175	ltpFR	4	12	1	NECKLACE	940	n/a	0	1	0.412841796875	0.57763671875	upper	../fonts/zerothre.ttf
1868938	WORD	wordpools/wasnorm_wordpool_less_exclusions.txt	LTP175	ltpFR	4	12	1	TOMATO	1476	n/a	0	1	0.412841796875	0.57763671875	upper	../fonts/zerothre.ttf
1872987	WORD	wordpools/wasnorm_wordpool_less_exclusions.txt	LTP175	ltpFR	4	12	1	TWIG	1527	n/a	0	1	0.412841796875	0.57763671875	upper	../fonts/zerothre.ttf
1876869	WORD	wordpools/wasnorm_wordpool_less_exclusions.txt	LTP175	ltpFR	4	12	1	JUNGLE	764	n/a	0	1	0.412841796875	0.57763671875	upper	../fonts/zerothre.ttf
1880976	WORD	wordpools/wasnorm_wordpool_less_exclusions.txt	LTP175	ltpFR	4	12	0	ATTORNEY	58	n/a	1	0	0.5869140625	0.422607421875	lower	../fonts/amplitud.ttf
1884958	WORD	wordpools/wasnorm_wordpool_less_exclusions.txt	LTP175	ltpFR	4	12	0	GEM	629	n/a	1	0	0.5869140625	0.422607421875	lower	../fonts/amplitud.ttf
1888848	WORD	wordpools/wasnorm_wordpool_less_exclusions.txt	LTP175	ltpFR	4	12	0	COWBOY	395	n/a	1	0	0.5869140625	0.422607421875	lower	../fonts/amplitud.ttf
1893030	WORD	wordpools/wasnorm_wordpool_less_exclusions.txt	LTP175	ltpFR	4	12	0	HORSE	719	n/a	1	0	0.5869140625	0.422607421875	lower	../fonts/amplitud.ttf
1896995	WORD	wordpools/wasnorm_wordpool_less_exclusions.txt	LTP175	ltpFR	4	12	0	LAGOON	795	n/a	1	0	0.5869140625	0.422607421875	lower	../fonts/amplitud.ttf
1900919	WORD	wordpools/wasnorm_wordpool_less_exclusions.txt	LTP175	ltpFR	4	12	0	ATMOSPHERE	54	n/a	1	0	0.5869140625	0.422607421875	lower	../fonts/amplitud.ttf
1906750	REC_START	n/a	LTP175	ltpFR	4	12	n/a	n/a	n/a	n/a	n/a	n/a	n/a	n/a	n/a	n/a
1907393	REC_WORD	wordpools/wasnorm_wordpool_less_exclusions.txt	LTP175	ltpFR	4	12	0	COWBOY	395	n/a	1	n/a	n/a	n/a	n/a	n/a
1908311	REC_WORD	wordpools/wasnorm_wordpool_less_exclusions.txt	LTP175	ltpFR	4	12	0	GEM	629	n/a	1	n/a	n/a	n/a	n/a	n/a
1909583	REC_WORD	wordpools/wasnorm_wordpool_less_exclusions.txt	LTP175	ltpFR	4	12	0	ATMOSPHERE	54	n/a	1	n/a	n/a	n/a	n/a	n/a
1910606	REC_WORD	wordpools/wasnorm_wordpool_less_exclusions.txt	LTP175	ltpFR	4	12	1	JUNGLE	764	n/a	0	n/a	n/a	n/a	n/a	n/a
1938782	REC_WORD	wordpools/wasnorm_wordpool_less_exclusions.txt	LTP175	ltpFR	4	12	1	OZONE	996	n/a	0	n/a	n/a	n/a	n/a	n/a
1972515	REC_WORD	wordpools/wasnorm_wordpool_less_exclusions.txt	LTP175	ltpFR	4	12	0	CHESS	294	n/a	0	n/a	n/a	n/a	n/a	n/a
1979624	REC_WORD	wordpools/wasnorm_wordpool_less_exclusions.txt	LTP175	ltpFR	4	12	1	JELLO	754	n/a	0	n/a	n/a	n/a	n/a	n/a
1980402	REC_WORD	wordpools/wasnorm_wordpool_less_exclusions.txt	LTP175	ltpFR	4	12	1	CUSTARD	429	n/a	0	n/a	n/a	n/a	n/a	n/a
1982331	REST_REWET	n/a	LTP175	ltpFR	4	12	n/a	n/a	n/a	n/a	n/a	n/a	n/a	n/a	n/a	n/a
2479729	WORD	wordpools/wasnorm_wordpool_less_exclusions.txt	LTP175	ltpFR	4	13	1	HORNET	718	n/a	1	1	0.412841796875	0.57763671875	upper	../fonts/zerothre.ttf
2483604	WORD	wordpools/wasnorm_wordpool_less_exclusions.txt	LTP175	ltpFR	4	13	1	CALF	222	n/a	1	1	0.412841796875	0.57763671875	upper	../fonts/zerothre.ttf
2487428	WORD	wordpools/wasnorm_wordpool_less_exclusions.txt	LTP175	ltpFR	4	13	0	SHOULDER	1294	n/a	1	0	0.5869140625	0.422607421875	lower	../fonts/amplitud.ttf
2491518	WORD	wordpools/wasnorm_wordpool_less_exclusions.txt	LTP175	ltpFR	4	13	0	ANKLE	24	n/a	1	0	0.5869140625	0.422607421875	lower	../fonts/amplitud.ttf
2495533	WORD	wordpools/wasnorm_wordpool_less_exclusions.txt	LTP175	ltpFR	4	13	0	FINGERNAIL	568	n/a	0	0	0.5869140625	0.422607421875	lower	../fonts/amplitud.ttf
2499473	WORD	wordpools/wasnorm_wordpool_less_exclusions.txt	LTP175	ltpFR	4	13	0	LADY	794	n/a	1	0	0.5869140625	0.422607421875	lower	../fonts/amplitud.ttf
2503321	WORD	wordpools/wasnorm_wordpool_less_exclusions.txt	LTP175	ltpFR	4	13	1	SHEARS	1276	n/a	0	1	0.412841796875	0.57763671875	upper	../fonts/zerothre.ttf
2507328	WORD	wordpools/wasnorm_wordpool_less_exclusions.txt	LTP175	ltpFR	4	13	1	WASP	1593	n/a	1	1	0.412841796875	0.57763671875	upper	../fonts/zerothre.ttf
2511427	WORD	wordpools/wasnorm_wordpool_less_exclusions.txt	LTP175	ltpFR	4	13	0	SCENERY	1247	n/a	1	0	0.5869140625	0.422607421875	lower	../fonts/amplitud.ttf
2515384	WORD	wordpools/wasnorm_wordpool_less_exclusions.txt	LTP175	ltpFR	4	13	0	WHEAT	1602	n/a	1	0	0.5869140625	0.422607421875	lower	../fonts/amplitud.ttf
2519257	WORD	wordpools/wasnorm_wordpool_less_exclusions.txt	LTP175	ltpFR	4	13	0	SPICE	1350	n/a	1	0	0.5869140625	0.422607421875	lower	../fonts/amplitud.ttf
2523440	WORD	wordpools/wasnorm_wordpool_less_exclusions.txt	LTP175	ltpFR	4	13	0	ARM	38	n/a	1	0	0.5869140625	0.422607421875	lower	../fonts/amplitud.ttf
2527588	WORD	wordpools/wasnorm_wordpool_less_exclusions.txt	LTP175	ltpFR	4	13	1	COMMANDER	354	n/a	1	1	0.412841796875	0.57763671875	upper	../fonts/zerothre.ttf
2531728	WORD	wordpools/wasnorm_wordpool_less_exclusions.txt	LTP175	ltpFR	4	13	1	FOLLOWER	589	n/a	1	1	0.412841796875	0.57763671875	upper	../fonts/zerothre.ttf
2535884	WORD	wordpools/wasnorm_wordpool_less_exclusions.txt	LTP175	ltpFR	4	13	1	DIAGRAM	456	n/a	0	1	0.412841796875	0.57763671875	upper	../fonts/zerothre.ttf
2539775	WORD	wordpools/wasnorm_wordpool_less_exclusions.txt	LTP175	ltpFR	4	13	1	PONY	1102	n/a	1	1	0.412841796875	0.57763671875	upper	../fonts/zerothre.ttf
2545433	REC_START	n/a	LTP175	ltpFR	4	13	n/a	n/a	n/a	n/a	n/a	n/a	n/a	n/a	n/a	n/a
2546166	REC_WORD	wordpools/wasnorm_wordpool_less_exclusions.txt	LTP175	ltpFR	4	13	1	HORNET	718	n/a	1	n/a	n/a	n/a	n/a	n/a
2547049	REC_WORD	wordpools/wasnorm_wordpool_less_exclusions.txt	LTP175	ltpFR	4	13	1	COMMANDER	354	n/a	1	n/a	n/a	n/a	n/a	n/a
2547937	REC_WORD	wordpools/wasnorm_wordpool_less_exclusions.txt	LTP175	ltpFR	4	13	1	FOLLOWER	589	n/a	1	n/a	n/a	n/a	n/a	n/a
2549239	REC_WORD	wordpools/wasnorm_wordpool_less_exclusions.txt	LTP175	ltpFR	4	13	1	PONY	1102	n/a	1	n/a	n/a	n/a	n/a	n/a
2554272	REC_WORD	wordpools/wasnorm_wordpool_less_exclusions.txt	LTP175	ltpFR	4	13	0	FINGERNAIL	568	n/a	0	n/a	n/a	n/a	n/a	n/a
2555664	REC_WORD	wordpools/wasnorm_wordpool_less_exclusions.txt	LTP175	ltpFR	4	13	0	SHOULDER	1294	n/a	1	n/a	n/a	n/a	n/a	n/a
2557076	REC_WORD	wordpools/wasnorm_wordpool_less_exclusions.txt	LTP175	ltpFR	4	13	0	ANKLE	24	n/a	1	n/a	n/a	n/a	n/a	n/a
2560917	REC_WORD	wordpools/wasnorm_wordpool_less_exclusions.txt	LTP175	ltpFR	4	13	1	WASP	1593	n/a	1	n/a	n/a	n/a	n/a	n/a
2628627	WORD	wordpools/wasnorm_wordpool_less_exclusions.txt	LTP175	ltpFR	4	14	-1	SWIMMER	1420	n/a	-1	1	1.0	1.0	upper	../fonts/Verdana.ttf
2632750	WORD	wordpools/wasnorm_wordpool_less_exclusions.txt	LTP175	ltpFR	4	14	-1	MARSH	874	n/a	-1	1	1.0	1.0	upper	../fonts/Verdana.ttf
2636625	WORD	wordpools/wasnorm_wordpool_less_exclusions.txt	LTP175	ltpFR	4	14	-1	MACHINE	852	n/a	-1	1	1.0	1.0	upper	../fonts/Verdana.ttf
2640665	WORD	wordpools/wasnorm_wordpool_less_exclusions.txt	LTP175	ltpFR	4	14	-1	REGISTER	1180	n/a	-1	1	1.0	1.0	upper	../fonts/Verdana.ttf
2644737	WORD	wordpools/wasnorm_wordpool_less_exclusions.txt	LTP175	ltpFR	4	14	-1	VESSEL	1558	n/a	-1	1	1.0	1.0	upper	../fonts/Verdana.ttf
2648944	WORD	wordpools/wasnorm_wordpool_less_exclusions.txt	LTP175	ltpFR	4	14	-1	ANCHOR	21	n/a	-1	1	1.0	1.0	upper	../fonts/Verdana.ttf
2653018	WORD	wordpools/wasnorm_wordpool_less_exclusions.txt	LTP175	ltpFR	4	14	-1	FARMER	553	n/a	-1	1	1.0	1.0	upper	../fonts/Verdana.ttf
2656916	WORD	wordpools/wasnorm_wordpool_less_exclusions.txt	LTP175	ltpFR	4	14	-1	FLOOR	581	n/a	-1	1	1.0	1.0	upper	../fonts/Verdana.ttf
2661065	WORD	wordpools/wasnorm_wordpool_less_exclusions.txt	LTP175	ltpFR	4	14	-1	MINK	897	n/a	-1	1	1.0	1.0	upper	../fonts/Verdana.ttf
2665272	WORD	wordpools/wasnorm_wordpool_less_exclusions.txt	LTP175	ltpFR	4	14	-1	CLERK	321	n/a	-1	1	1.0	1.0	upper	../fonts/Verdana.ttf
2669455	WORD	wordpools/wasnorm_wordpool_less_exclusions.txt	LTP175	ltpFR	4	14	-1	HANDKERCHIEF	686	n/a	-1	1	1.0	1.0	upper	../fonts/Verdana.ttf
2673611	WORD	wordpools/wasnorm_wordpool_less_exclusions.txt	LTP175	ltpFR	4	14	-1	MEAT	883	n/a	-1	1	1.0	1.0	upper	../fonts/Verdana.ttf
2677751	WORD	wordpools/wasnorm_wordpool_less_exclusions.txt	LTP175	ltpFR	4	14	-1	GORILLA	650	n/a	-1	1	1.0	1.0	upper	../fonts/Verdana.ttf
2681774	WORD	wordpools/wasnorm_wordpool_less_exclusions.txt	LTP175	ltpFR	4	14	-1	VINE	1568	n/a	-1	1	1.0	1.0	upper	../fonts/Verdana.ttf
2685773	WORD	wordpools/wasnorm_wordpool_less_exclusions.txt	LTP175	ltpFR	4	14	-1	TYPIST	1532	n/a	-1	1	1.0	1.0	upper	../fonts/Verdana.ttf
2689697	WORD	wordpools/wasnorm_wordpool_less_exclusions.txt	LTP175	ltpFR	4	14	-1	RACCOON	1153	n/a	-1	1	1.0	1.0	upper	../fonts/Verdana.ttf
2695362	REC_START	n/a	LTP175	ltpFR	4	14	n/a	n/a	n/a	n/a	n/a	n/a	n/a	n/a	n/a	n/a
2695881	REC_WORD	wordpools/wasnorm_wordpool_less_exclusions.txt	LTP175	ltpFR	4	14	-1	SWIMMER	1420	n/a	-1	n/a	n/a	n/a	n/a	n/a
2696617	REC_WORD	wordpools/wasnorm_wordpool_less_exclusions.txt	LTP175	ltpFR	4	14	-1	MARSH	874	n/a	-1	n/a	n/a	n/a	n/a	n/a
2697532	REC_WORD	wordpools/wasnorm_wordpool_less_exclusions.txt	LTP175	ltpFR	4	14	-1	RACCOON	1153	n/a	-1	n/a	n/a	n/a	n/a	n/a
2702850	REC_WORD	wordpools/wasnorm_wordpool_less_exclusions.txt	LTP175	ltpFR	4	14	-1	REGISTER	1180	n/a	-1	n/a	n/a	n/a	n/a	n/a
2704626	REC_WORD	wordpools/wasnorm_wordpool_less_exclusions.txt	LTP175	ltpFR	4	14	-1	MINK	897	n/a	-1	n/a	n/a	n/a	n/a	n/a
2705244	REC_WORD	wordpools/wasnorm_wordpool_less_exclusions.txt	LTP175	ltpFR	4	14	-1	FARMER	553	n/a	-1	n/a	n/a	n/a	n/a	n/a
2716913	REC_WORD	wordpools/wasnorm_wordpool_less_exclusions.txt	LTP175	ltpFR	4	14	-1	VESSEL	1558	n/a	-1	n/a	n/a	n/a	n/a	n/a
2717771	REC_WORD	wordpools/wasnorm_wordpool_less_exclusions.txt	LTP175	ltpFR	4	14	-1	ANCHOR	21	n/a	-1	n/a	n/a	n/a	n/a	n/a
2749923	REC_WORD	wordpools/wasnorm_wordpool_less_exclusions.txt	LTP175	ltpFR	4	14	-1	GORILLA	650	n/a	-1	n/a	n/a	n/a	n/a	n/a
2774584	WORD	wordpools/wasnorm_wordpool_less_exclusions.txt	LTP175	ltpFR	4	15	1	UNIVERSE	1540	n/a	0	1	0.412841796875	0.57763671875	upper	../fonts/zerothre.ttf
2778748	WORD	wordpools/wasnorm_wordpool_less_exclusions.txt	LTP175	ltpFR	4	15	1	BREAD	170	n/a	0	1	0.412841796875	0.57763671875	upper	../fonts/zerothre.ttf
2782930	WORD	wordpools/wasnorm_wordpool_less_exclusions.txt	LTP175	ltpFR	4	15	1	MERMAID	887	n/a	1	1	0.412841796875	0.57763671875	upper	../fonts/zerothre.ttf
2787137	WORD	wordpools/wasnorm_wordpool_less_exclusions.txt	LTP175	ltpFR	4	15	1	CORPORATION	382	n/a	1	1	0.412841796875	0.57763671875	upper	../fonts/zerothre.ttf
2790985	WORD	wordpools/wasnorm_wordpool_less_exclusions.txt	LTP175	ltpFR	4	15	1	BUREAU	199	n/a	0	1	0.412841796875	0.57763671875	upper	../fonts/zerothre.ttf
2795109	WORD	wordpools/wasnorm_wordpool_less_exclusions.txt	LTP175	ltpFR	4	15	1	ENCYCLOPEDIA	533	n/a	0	1	0.412841796875	0.57763671875	upper	../fonts/zerothre.ttf
2799132	WORD	wordpools/wasnorm_wordpool_less_exclusions.txt	LTP175	ltpFR	4	15	1	BULLY	196	n/a	1	1	0.412841796875	0.57763671875	upper	../fonts/zerothre.ttf
2802964	WORD	wordpools/wasnorm_wordpool_less_exclusions.txt	LTP175	ltpFR	4	15	1	COOKIE	374	n/a	0	1	0.412841796875	0.57763671875	upper	../fonts/zerothre.ttf
2807055	WORD	wordpools/wasnorm_wordpool_less_exclusions.txt	LTP175	ltpFR	4	15	1	CRAB	397	n/a	1	1	0.412841796875	0.57763671875	upper	../fonts/zerothre.ttf
2811212	WORD	wordpools/wasnorm_wordpool_less_exclusions.txt	LTP175	ltpFR	4	15	1	ALMANAC	17	n/a	0	1	0.412841796875	0.57763671875	upper	../fonts/zerothre.ttf
2815394	WORD	wordpools/wasnorm_wordpool_less_exclusions.txt	LTP175	ltpFR	4	15	1	CANAL	226	n/a	1	1	0.412841796875	0.57763671875	upper	../fonts/zerothre.ttf
2819342	WORD	wordpools/wasnorm_wordpool_less_exclusions.txt	LTP175	ltpFR	4	15	1	BROOK	177	n/a	1	1	0.412841796875	0.57763671875	upper	../fonts/zerothre.ttf
2823508	WORD	wordpools/wasnorm_wordpool_less_exclusions.txt	LTP175	ltpFR	4	15	1	KLEENEX	782	n/a	0	1	0.412841796875	0.57763671875	upper	../fonts/zerothre.ttf
2827465	WORD	wordpools/wasnorm_wordpool_less_exclusions.txt	LTP175	ltpFR	4	15	1	DISH	474	n/a	0	1	0.412841796875	0.57763671875	upper	../fonts/zerothre.ttf
2831464	WORD	wordpools/wasnorm_wordpool_less_exclusions.txt	LTP175	ltpFR	4	15	1	GOVERNOR	651	n/a	1	1	0.412841796875	0.57763671875	upper	../fonts/zerothre.ttf
2835479	WORD	wordpools/wasnorm_wordpool_less_exclusions.txt	LTP175	ltpFR	4	15	1	SENATE	1267	n/a	1	1	0.412841796875	0.57763671875	upper	../fonts/zerothre.ttf
2841118	REC_START	n/a	LTP175	ltpFR	4	15	n/a	n/a	n/a	n/a	n/a	n/a	n/a	n/a	n/a	n/a
2841686	REC_WORD	wordpools/wasnorm_wordpool_less_exclusions.txt	LTP175	ltpFR	4	15	1	ENCYCLOPEDIA	533	n/a	0	n/a	n/a	n/a	n/a	n/a
2842686	REC_WORD_VV	wordpools/wasnorm_wordpool_less_exclusions.txt	LTP175	ltpFR	4	15	n/a	<>	-1	n/a	n/a	n/a	n/a	n/a	n/a	n/a
2843088	REC_WORD	wordpools/wasnorm_wordpool_less_exclusions.txt	LTP175	ltpFR	4	15	1	BROOK	177	n/a	1	n/a	n/a	n/a	n/a	n/a
2855006	REC_WORD	wordpools/wasnorm_wordpool_less_exclusions.txt	LTP175	ltpFR	4	15	1	CANAL	226	n/a	1	n/a	n/a	n/a	n/a	n/a
2861626	REC_WORD	wordpools/wasnorm_wordpool_less_exclusions.txt	LTP175	ltpFR	4	15	1	ALMANAC	17	n/a	0	n/a	n/a	n/a	n/a	n/a
2869763	REC_WORD	wordpools/wasnorm_wordpool_less_exclusions.txt	LTP175	ltpFR	4	15	1	DISH	474	n/a	0	n/a	n/a	n/a	n/a	n/a
2880798	REC_WORD	wordpools/wasnorm_wordpool_less_exclusions.txt	LTP175	ltpFR	4	15	1	UNIVERSE	1540	n/a	0	n/a	n/a	n/a	n/a	n/a
2899565	REC_WORD	wordpools/wasnorm_wordpool_less_exclusions.txt	LTP175	ltpFR	4	15	-1	CLERK	321	n/a	-1	n/a	n/a	n/a	n/a	n/a
2900872	REC_WORD	wordpools/wasnorm_wordpool_less_exclusions.txt	LTP175	ltpFR	4	15	-1	TYPIST	1532	n/a	-1	n/a	n/a	n/a	n/a	n/a
2927912	WORD	wordpools/wasnorm_wordpool_less_exclusions.txt	LTP175	ltpFR	4	16	0	MAID	856	n/a	1	0	0.5869140625	0.422607421875	lower	../fonts/amplitud.ttf
2931860	WORD	wordpools/wasnorm_wordpool_less_exclusions.txt	LTP175	ltpFR	4	16	0	LETTUCE	814	n/a	1	0	0.5869140625	0.422607421875	lower	../fonts/amplitud.ttf
2935742	WORD	wordpools/wasnorm_wordpool_less_exclusions.txt	LTP175	ltpFR	4	16	0	BASEMENT	94	n/a	1	0	0.5869140625	0.422607421875	lower	../fonts/amplitud.ttf
2939684	WORD	wordpools/wasnorm_wordpool_less_exclusions.txt	LTP175	ltpFR	4	16	0	STAIRS	1367	n/a	1	0	0.5869140625	0.422607421875	lower	../fonts/amplitud.ttf
2943640	WORD	wordpools/wasnorm_wordpool_less_exclusions.txt	LTP175	ltpFR	4	16	0	SUN	1406	n/a	1	0	0.5869140625	0.422607421875	lower	../fonts/amplitud.ttf
2947664	WORD	wordpools/wasnorm_wordpool_less_exclusions.txt	LTP175	ltpFR	4	16	0	CARDINAL	244	n/a	1	0	0.5869140625	0.422607421875	lower	../fonts/amplitud.ttf
2951663	WORD	wordpools/wasnorm_wordpool_less_exclusions.txt	LTP175	ltpFR	4	16	0	ROBIN	1199	n/a	1	0	0.5869140625	0.422607421875	lower	../fonts/amplitud.ttf
2955669	WORD	wordpools/wasnorm_wordpool_less_exclusions.txt	LTP175	ltpFR	4	16	0	PENDULUM	1043	n/a	1	0	0.5869140625	0.422607421875	lower	../fonts/amplitud.ttf
2959809	WORD	wordpools/wasnorm_wordpool_less_exclusions.txt	LTP175	ltpFR	4	16	0	BUTLER	204	n/a	1	0	0.5869140625	0.422607421875	lower	../fonts/amplitud.ttf
2963782	WORD	wordpools/wasnorm_wordpool_less_exclusions.txt	LTP175	ltpFR	4	16	0	BEET	115	n/a	1	0	0.5869140625	0.422607421875	lower	../fonts/amplitud.ttf
2967623	WORD	wordpools/wasnorm_wordpool_less_exclusions.txt	LTP175	ltpFR	4	16	0	DOORBELL	487	n/a	1	0	0.5869140625	0.422607421875	lower	../fonts/amplitud.ttf
2971589	WORD	wordpools/wasnorm_wordpool_less_exclusions.txt	LTP175	ltpFR	4	16	0	COMPUTER	359	n/a	1	0	0.5869140625	0.422607421875	lower	../fonts/amplitud.ttf
2975604	WORD	wordpools/wasnorm_wordpool_less_exclusions.txt	LTP175	ltpFR	4	16	0	CHEMIST	292	n/a	1	0	0.5869140625	0.422607421875	lower	../fonts/amplitud.ttf
2979419	WORD	wordpools/wasnorm_wordpool_less_exclusions.txt	LTP175	ltpFR	4	16	0	PERISCOPE	1050	n/a	1	0	0.5869140625	0.422607421875	lower	../fonts/amplitud.ttf
2983601	WORD	wordpools/wasnorm_wordpool_less_exclusions.txt	LTP175	ltpFR	4	16	0	CAULIFLOWER	262	n/a	1	0	0.5869140625	0.422607421875	lower	../fonts/amplitud.ttf
2987491	WORD	wordpools/wasnorm_wordpool_less_exclusions.txt	LTP175	ltpFR	4	16	0	TAR	1435	n/a	1	0	0.5869140625	0.422607421875	lower	../fonts/amplitud.ttf
2993239	REC_START	n/a	LTP175	ltpFR	4	16	n/a	n/a	n/a	n/a	n/a	n/a	n/a	n/a	n/a	n/a
2993977	REC_WORD	wordpools/wasnorm_wordpool_less_exclusions.txt	LTP175	ltpFR	4	16	0	MAID	856	n/a	1	n/a	n/a	n/a	n/a	n/a
2994760	REC_WORD	wordpools/wasnorm_wordpool_less_exclusions.txt	LTP175	ltpFR	4	16	0	DOORBELL	487	n/a	1	n/a	n/a	n/a	n/a	n/a
2995703	REC_WORD	wordpools/wasnorm_wordpool_less_exclusions.txt	LTP175	ltpFR	4	16	0	CAULIFLOWER	262	n/a	1	n/a	n/a	n/a	n/a	n/a
2996851	REC_WORD	wordpools/wasnorm_wordpool_less_exclusions.txt	LTP175	ltpFR	4	16	0	TAR	1435	n/a	1	n/a	n/a	n/a	n/a	n/a
3060192	REC_WORD	wordpools/wasnorm_wordpool_less_exclusions.txt	LTP175	ltpFR	4	16	0	COMPUTER	359	n/a	1	n/a	n/a	n/a	n/a	n/a
3137938	REC_START	n/a	LTP175	ltpFR	4	1	n/a	n/a	n/a	n/a	n/a	n/a	n/a	n/a	n/a	n/a
3137970	RECOG_LURE	n/a	LTP175	ltpFR	4	1	n/a	VIKING	1565	3	n/a	n/a	n/a	n/a	n/a	n/a
3141579	RECOG_RESP	n/a	LTP175	ltpFR	4	1	n/a	VIKING	1565	n/a	n/a	n/a	n/a	n/a	n/a	n/a
3143939	RECOG_CONF	n/a	LTP175	ltpFR	4	1	n/a	VIKING	1565	3	n/a	n/a	n/a	n/a	n/a	n/a
3145843	RECOG_LURE	n/a	LTP175	ltpFR	4	1	n/a	TELESCOPE	1446	5	n/a	n/a	n/a	n/a	n/a	n/a
3148288	RECOG_RESP	n/a	LTP175	ltpFR	4	1	n/a	TELESCOPE	1446	n/a	n/a	n/a	n/a	n/a	n/a	n/a
3150564	RECOG_CONF	n/a	LTP175	ltpFR	4	1	n/a	TELESCOPE	1446	5	n/a	n/a	n/a	n/a	n/a	n/a
3152391	RECOG_LURE	n/a	LTP175	ltpFR	4	1	n/a	PASTRY	1022	2	n/a	n/a	n/a	n/a	n/a	n/a
3153978	RECOG_RESP	n/a	LTP175	ltpFR	4	1	n/a	PASTRY	1022	n/a	n/a	n/a	n/a	n/a	n/a	n/a
3155314	RECOG_CONF	n/a	LTP175	ltpFR	4	1	n/a	PASTRY	1022	2	n/a	n/a	n/a	n/a	n/a	n/a
3157122	RECOG_LURE	n/a	LTP175	ltpFR	4	1	n/a	LEVER	815	3	n/a	n/a	n/a	n/a	n/a	n/a
3158771	RECOG_RESP	n/a	LTP175	ltpFR	4	1	n/a	LEVER	815	n/a	n/a	n/a	n/a	n/a	n/a	n/a
3160432	RECOG_CONF	n/a	LTP175	ltpFR	4	1	n/a	LEVER	815	3	n/a	n/a	n/a	n/a	n/a	n/a
3162145	RECOG_TARGET	n/a	LTP175	ltpFR	4	1	1	TAPE	1433	2	0	n/a	n/a	n/a	n/a	n/a
3165093	RECOG_RESP	n/a	LTP175	ltpFR	4	1	1	TAPE	1433	n/a	0	n/a	n/a	n/a	n/a	n/a
3166417	RECOG_CONF	n/a	LTP175	ltpFR	4	1	1	TAPE	1433	2	0	n/a	n/a	n/a	n/a	n/a
3168110	RECOG_TARGET	n/a	LTP175	ltpFR	4	1	0	CHEMIST	292	5	1	n/a	n/a	n/a	n/a	n/a
3169427	RECOG_RESP	n/a	LTP175	ltpFR	4	1	0	CHEMIST	292	n/a	1	n/a	n/a	n/a	n/a	n/a
3170738	RECOG_CONF	n/a	LTP175	ltpFR	4	1	0	CHEMIST	292	5	1	n/a	n/a	n/a	n/a	n/a
3172609	RECOG_LURE	n/a	LTP175	ltpFR	4	1	n/a	HAWK	692	2	n/a	n/a	n/a	n/a	n/a	n/a
3175410	RECOG_RESP	n/a	LTP175	ltpFR	4	1	n/a	HAWK	692	n/a	n/a	n/a	n/a	n/a	n/a	n/a
3176667	RECOG_CONF	n/a	LTP175	ltpFR	4	1	n/a	HAWK	692	2	n/a	n/a	n/a	n/a	n/a	n/a
3178399	RECOG_LURE	n/a	LTP175	ltpFR	4	1	n/a	MOOSE	915	5	n/a	n/a	n/a	n/a	n/a	n/a
3179630	RECOG_RESP	n/a	LTP175	ltpFR	4	1	n/a	MOOSE	915	n/a	n/a	n/a	n/a	n/a	n/a	n/a
3180975	RECOG_CONF	n/a	LTP175	ltpFR	4	1	n/a	MOOSE	915	5	n/a	n/a	n/a	n/a	n/a	n/a
3182721	RECOG_LURE	n/a	LTP175	ltpFR	4	1	n/a	SKYSCRAPER	1322	5	n/a	n/a	n/a	n/a	n/a	n/a
3184323	RECOG_RESP	n/a	LTP175	ltpFR	4	1	n/a	SKYSCRAPER	1322	n/a	n/a	n/a	n/a	n/a	n/a	n/a
3185654	RECOG_CONF	n/a	LTP175	ltpFR	4	1	n/a	SKYSCRAPER	1322	5	n/a	n/a	n/a	n/a	n/a	n/a
3187211	RECOG_LURE	n/a	LTP175	ltpFR	4	1	n/a	COLOGNE	347	5	n/a	n/a	n/a	n/a	n/a	n/a
3188391	RECOG_RESP	n/a	LTP175	ltpFR	4	1	n/a	COLOGNE	347	n/a	n/a	n/a	n/a	n/a	n/a	n/a
3189695	RECOG_CONF	n/a	LTP175	ltpFR	4	1	n/a	COLOGNE	347	5	n/a	n/a	n/a	n/a	n/a	n/a
3191376	RECOG_LURE	n/a	LTP175	ltpFR	4	1	n/a	DRESSER	496	5	n/a	n/a	n/a	n/a	n/a	n/a
3192313	RECOG_RESP	n/a	LTP175	ltpFR	4	1	n/a	DRESSER	496	n/a	n/a	n/a	n/a	n/a	n/a	n/a
3193596	RECOG_CONF	n/a	LTP175	ltpFR	4	1	n/a	DRESSER	496	5	n/a	n/a	n/a	n/a	n/a	n/a
3195242	RECOG_LURE	n/a	LTP175	ltpFR	4	1	n/a	TUB	1514	5	n/a	n/a	n/a	n/a	n/a	n/a
3196368	RECOG_RESP	n/a	LTP175	ltpFR	4	1	n/a	TUB	1514	n/a	n/a	n/a	n/a	n/a	n/a	n/a
3197647	RECOG_CONF	n/a	LTP175	ltpFR	4	1	n/a	TUB	1514	5	n/a	n/a	n/a	n/a	n/a	n/a
3199433	RECOG_LURE	n/a	LTP175	ltpFR	4	1	n/a	WHISKERS	1605	5	n/a	n/a	n/a	n/a	n/a	n/a
3200485	RECOG_RESP	n/a	LTP175	ltpFR	4	1	n/a	WHISKERS	1605	n/a	n/a	n/a	n/a	n/a	n/a	n/a
3201718	RECOG_CONF	n/a	LTP175	ltpFR	4	1	n/a	WHISKERS	1605	5	n/a	n/a	n/a	n/a	n/a	n/a
3203398	RECOG_TARGET	n/a	LTP175	ltpFR	4	1	-1	CHAPEL	280	5	-1	n/a	n/a	n/a	n/a	n/a
3205399	RECOG_RESP	n/a	LTP175	ltpFR	4	1	-1	CHAPEL	280	n/a	-1	n/a	n/a	n/a	n/a	n/a
3206717	RECOG_CONF	n/a	LTP175	ltpFR	4	1	-1	CHAPEL	280	5	-1	n/a	n/a	n/a	n/a	n/a
3208362	RECOG_LURE	n/a	LTP175	ltpFR	4	1	n/a	THERMOMETER	1453	5	n/a	n/a	n/a	n/a	n/a	n/a
3209373	RECOG_RESP	n/a	LTP175	ltpFR	4	1	n/a	THERMOMETER	1453	n/a	n/a	n/a	n/a	n/a	n/a	n/a
3210598	RECOG_CONF	n/a	LTP175	ltpFR	4	1	n/a	THERMOMETER	1453	5	n/a	n/a	n/a	n/a	n/a	n/a
3212285	RECOG_LURE	n/a	LTP175	ltpFR	4	1	n/a	AFRICA	9	5	n/a	n/a	n/a	n/a	n/a	n/a
3213431	RECOG_RESP	n/a	LTP175	ltpFR	4	1	n/a	AFRICA	9	n/a	n/a	n/a	n/a	n/a	n/a	n/a
3214609	RECOG_CONF	n/a	LTP175	ltpFR	4	1	n/a	AFRICA	9	5	n/a	n/a	n/a	n/a	n/a	n/a
3216367	RECOG_LURE	n/a	LTP175	ltpFR	4	1	n/a	TOAST	1471	5	n/a	n/a	n/a	n/a	n/a	n/a
3217269	RECOG_RESP	n/a	LTP175	ltpFR	4	1	n/a	TOAST	1471	n/a	n/a	n/a	n/a	n/a	n/a	n/a
3218520	RECOG_CONF	n/a	LTP175	ltpFR	4	1	n/a	TOAST	1471	5	n/a	n/a	n/a	n/a	n/a	n/a
3220316	RECOG_LURE	n/a	LTP175	ltpFR	4	1	n/a	AMBULANCE	19	5	n/a	n/a	n/a	n/a	n/a	n/a
3221277	RECOG_RESP	n/a	LTP175	ltpFR	4	1	n/a	AMBULANCE	19	n/a	n/a	n/a	n/a	n/a	n/a	n/a
3222570	RECOG_CONF	n/a	LTP175	ltpFR	4	1	n/a	AMBULANCE	19	5	n/a	n/a	n/a	n/a	n/a	n/a
3224131	RECOG_LURE	n/a	LTP175	ltpFR	4	1	n/a	MAGICIAN	854	5	n/a	n/a	n/a	n/a	n/a	n/a
3225122	RECOG_RESP	n/a	LTP175	ltpFR	4	1	n/a	MAGICIAN	854	n/a	n/a	n/a	n/a	n/a	n/a	n/a
3226342	RECOG_CONF	n/a	LTP175	ltpFR	4	1	n/a	MAGICIAN	854	5	n/a	n/a	n/a	n/a	n/a	n/a
3228013	RECOG_LURE	n/a	LTP175	ltpFR	4	1	n/a	HUT	729	3	n/a	n/a	n/a	n/a	n/a	n/a
3229003	RECOG_RESP	n/a	LTP175	ltpFR	4	1	n/a	HUT	729	n/a	n/a	n/a	n/a	n/a	n/a	n/a
3230273	RECOG_CONF	n/a	LTP175	ltpFR	4	1	n/a	HUT	729	3	n/a	n/a	n/a	n/a	n/a	n/a
3243013	REC_START	n/a	LTP175	ltpFR	4	2	n/a	n/a	n/a	n/a	n/a	n/a	n/a	n/a	n/a	n/a
3243050	RECOG_TARGET	n/a	LTP175	ltpFR	4	2	-1	PAIL	1002	5	-1	n/a	n/a	n/a	n/a	n/a
3244494	RECOG_RESP	n/a	LTP175	ltpFR	4	2	-1	PAIL	1002	n/a	-1	n/a	n/a	n/a	n/a	n/a
3246530	RECOG_CONF	n/a	LTP175	ltpFR	4	2	-1	PAIL	1002	5	-1	n/a	n/a	n/a	n/a	n/a
3248399	RECOG_TARGET	n/a	LTP175	ltpFR	4	2	0	TOWN	1491	3	1	n/a	n/a	n/a	n/a	n/a
3249369	RECOG_RESP	n/a	LTP175	ltpFR	4	2	0	TOWN	1491	n/a	1	n/a	n/a	n/a	n/a	n/a
3250644	RECOG_CONF	n/a	LTP175	ltpFR	4	2	0	TOWN	1491	3	1	n/a	n/a	n/a	n/a	n/a
3252514	RECOG_LURE	n/a	LTP175	ltpFR	4	2	n/a	PEAR	1033	5	n/a	n/a	n/a	n/a	n/a	n/a
3254563	RECOG_RESP	n/a	LTP175	ltpFR	4	2	n/a	PEAR	1033	n/a	n/a	n/a	n/a	n/a	n/a	n/a
3256108	RECOG_CONF	n/a	LTP175	ltpFR	4	2	n/a	PEAR	1033	5	n/a	n/a	n/a	n/a	n/a	n/a
3258027	RECOG_TARGET	n/a	LTP175	ltpFR	4	2	0	CHAIRPERSON	275	5	1	n/a	n/a	n/a	n/a	n/a
3259590	RECOG_RESP	n/a	LTP175	ltpFR	4	2	0	CHAIRPERSON	275	n/a	1	n/a	n/a	n/a	n/a	n/a
3261097	RECOG_CONF	n/a	LTP175	ltpFR	4	2	0	CHAIRPERSON	275	5	1	n/a	n/a	n/a	n/a	n/a
3262726	RECOG_LURE	n/a	LTP175	ltpFR	4	2	n/a	TOOL	1480	2	n/a	n/a	n/a	n/a	n/a	n/a
3265125	RECOG_RESP	n/a	LTP175	ltpFR	4	2	n/a	TOOL	1480	n/a	n/a	n/a	n/a	n/a	n/a	n/a
3266492	RECOG_CONF	n/a	LTP175	ltpFR	4	2	n/a	TOOL	1480	2	n/a	n/a	n/a	n/a	n/a	n/a
3268166	RECOG_LURE	n/a	LTP175	ltpFR	4	2	n/a	TUBA	1515	5	n/a	n/a	n/a	n/a	n/a	n/a
3269762	RECOG_RESP	n/a	LTP175	ltpFR	4	2	n/a	TUBA	1515	n/a	n/a	n/a	n/a	n/a	n/a	n/a
3271174	RECOG_CONF	n/a	LTP175	ltpFR	4	2	n/a	TUBA	1515	5	n/a	n/a	n/a	n/a	n/a	n/a
3272839	RECOG_TARGET	n/a	LTP175	ltpFR	4	2	-1	SCREEN	1253	5	-1	n/a	n/a	n/a	n/a	n/a
3274352	RECOG_RESP	n/a	LTP175	ltpFR	4	2	-1	SCREEN	1253	n/a	-1	n/a	n/a	n/a	n/a	n/a
3275873	RECOG_CONF	n/a	LTP175	ltpFR	4	2	-1	SCREEN	1253	5	-1	n/a	n/a	n/a	n/a	n/a
3277688	RECOG_TARGET	n/a	LTP175	ltpFR	4	2	1	TRAITOR	1495	5	1	n/a	n/a	n/a	n/a	n/a
3278872	RECOG_RESP	n/a	LTP175	ltpFR	4	2	1	TRAITOR	1495	n/a	1	n/a	n/a	n/a	n/a	n/a
3280253	RECOG_CONF	n/a	LTP175	ltpFR	4	2	1	TRAITOR	1495	5	1	n/a	n/a	n/a	n/a	n/a
3281952	RECOG_LURE	n/a	LTP175	ltpFR	4	2	n/a	MICROWAVE	892	5	n/a	n/a	n/a	n/a	n/a	n/a
3283245	RECOG_RESP	n/a	LTP175	ltpFR	4	2	n/a	MICROWAVE	892	n/a	n/a	n/a	n/a	n/a	n/a	n/a
3284743	RECOG_CONF	n/a	LTP175	ltpFR	4	2	n/a	MICROWAVE	892	5	n/a	n/a	n/a	n/a	n/a	n/a
3286726	RECOG_LURE	n/a	LTP175	ltpFR	4	2	n/a	KEEPER	769	4	n/a	n/a	n/a	n/a	n/a	n/a
3288069	RECOG_RESP	n/a	LTP175	ltpFR	4	2	n/a	KEEPER	769	n/a	n/a	n/a	n/a	n/a	n/a	n/a
3289602	RECOG_CONF	n/a	LTP175	ltpFR	4	2	n/a	KEEPER	769	4	n/a	n/a	n/a	n/a	n/a	n/a
3291349	RECOG_TARGET	n/a	LTP175	ltpFR	4	2	1	SINK	1309	5	0	n/a	n/a	n/a	n/a	n/a
3292370	RECOG_RESP	n/a	LTP175	ltpFR	4	2	1	SINK	1309	n/a	0	n/a	n/a	n/a	n/a	n/a
3293852	RECOG_CONF	n/a	LTP175	ltpFR	4	2	1	SINK	1309	5	0	n/a	n/a	n/a	n/a	n/a
3295582	RECOG_LURE	n/a	LTP175	ltpFR	4	2	n/a	DONOR	485	4	n/a	n/a	n/a	n/a	n/a	n/a
3297117	RECOG_RESP	n/a	LTP175	ltpFR	4	2	n/a	DONOR	485	n/a	n/a	n/a	n/a	n/a	n/a	n/a
3298601	RECOG_CONF	n/a	LTP175	ltpFR	4	2	n/a	DONOR	485	4	n/a	n/a	n/a	n/a	n/a	n/a
3300438	RECOG_TARGET	n/a	LTP175	ltpFR	4	2	0	COW	393	5	1	n/a	n/a	n/a	n/a	n/a
3301511	RECOG_RESP	n/a	LTP175	ltpFR	4	2	0	COW	393	n/a	1	n/a	n/a	n/a	n/a	n/a
3303261	RECOG_CONF	n/a	LTP175	ltpFR	4	2	0	COW	393	5	1	n/a	n/a	n/a	n/a	n/a
3304936	RECOG_TARGET	n/a	LTP175	ltpFR	4	2	1	WASP	1593	5	1	n/a	n/a	n/a	n/a	n/a
3305994	RECOG_RESP	n/a	LTP175	ltpFR	4	2	1	WASP	1593	n/a	1	n/a	n/a	n/a	n/a	n/a
3307581	RECOG_CONF	n/a	LTP175	ltpFR	4	2	1	WASP	1593	5	1	n/a	n/a	n/a	n/a	n/a
3309268	RECOG_TARGET	n/a	LTP175	ltpFR	4	2	1	ELF	525	5	1	n/a	n/a	n/a	n/a	n/a
3310231	RECOG_RESP	n/a	LTP175	ltpFR	4	2	1	ELF	525	n/a	1	n/a	n/a	n/a	n/a	n/a
3311732	RECOG_CONF	n/a	LTP175	ltpFR	4	2	1	ELF	525	5	1	n/a	n/a	n/a	n/a	n/a
3313358	RECOG_LURE	n/a	LTP175	ltpFR	4	2	n/a	PIZZA	1079	5	n/a	n/a	n/a	n/a	n/a	n/a
3314522	RECOG_RESP	n/a	LTP175	ltpFR	4	2	n/a	PIZZA	1079	n/a	n/a	n/a	n/a	n/a	n/a	n/a
3315912	RECOG_CONF	n/a	LTP175	ltpFR	4	2	n/a	PIZZA	1079	5	n/a	n/a	n/a	n/a	n/a	n/a
3317566	RECOG_LURE	n/a	LTP175	ltpFR	4	2	n/a	GOO	648	5	n/a	n/a	n/a	n/a	n/a	n/a
3319232	RECOG_RESP	n/a	LTP175	ltpFR	4	2	n/a	GOO	648	n/a	n/a	n/a	n/a	n/a	n/a	n/a
3320552	RECOG_CONF	n/a	LTP175	ltpFR	4	2	n/a	GOO	648	5	n/a	n/a	n/a	n/a	n/a	n/a
3322238	RECOG_TARGET	n/a	LTP175	ltpFR	4	2	0	RIBBON	1189	5	0	n/a	n/a	n/a	n/a	n/a
3323371	RECOG_RESP	n/a	LTP175	ltpFR	4	2	0	RIBBON	1189	n/a	0	n/a	n/a	n/a	n/a	n/a
3324962	RECOG_CONF	n/a	LTP175	ltpFR	4	2	0	RIBBON	1189	5	0	n/a	n/a	n/a	n/a	n/a
3326612	RECOG_LURE	n/a	LTP175	ltpFR	4	2	n/a	DAD	433	5	n/a	n/a	n/a	n/a	n/a	n/a
3327650	RECOG_RESP	n/a	LTP175	ltpFR	4	2	n/a	DAD	433	n/a	n/a	n/a	n/a	n/a	n/a	n/a
3329112	RECOG_CONF	n/a	LTP175	ltpFR	4	2	n/a	DAD	433	5	n/a	n/a	n/a	n/a	n/a	n/a
3330727	RECOG_TARGET	n/a	LTP175	ltpFR	4	2	-1	QUILT	1151	5	-1	n/a	n/a	n/a	n/a	n/a
3331886	RECOG_RESP	n/a	LTP175	ltpFR	4	2	-1	QUILT	1151	n/a	-1	n/a	n/a	n/a	n/a	n/a
3333233	RECOG_CONF	n/a	LTP175	ltpFR	4	2	-1	QUILT	1151	5	-1	n/a	n/a	n/a	n/a	n/a
3347289	REC_START	n/a	LTP175	ltpFR	4	3	n/a	n/a	n/a	n/a	n/a	n/a	n/a	n/a	n/a	n/a
3347329	RECOG_TARGET	n/a	LTP175	ltpFR	4	3	0	LIMOUSINE	824	5	1	n/a	n/a	n/a	n/a	n/a
3348945	RECOG_RESP	n/a	LTP175	ltpFR	4	3	0	LIMOUSINE	824	n/a	1	n/a	n/a	n/a	n/a	n/a
3350526	RECOG_CONF	n/a	LTP175	ltpFR	4	3	0	LIMOUSINE	824	5	1	n/a	n/a	n/a	n/a	n/a
3352302	RECOG_LURE	n/a	LTP175	ltpFR	4	3	n/a	STAKE	1368	5	n/a	n/a	n/a	n/a	n/a	n/a
3353316	RECOG_RESP	n/a	LTP175	ltpFR	4	3	n/a	STAKE	1368	n/a	n/a	n/a	n/a	n/a	n/a	n/a
3354707	RECOG_CONF	n/a	LTP175	ltpFR	4	3	n/a	STAKE	1368	5	n/a	n/a	n/a	n/a	n/a	n/a
3356226	RECOG_LURE	n/a	LTP175	ltpFR	4	3	n/a	COP	376	5	n/a	n/a	n/a	n/a	n/a	n/a
3357175	RECOG_RESP	n/a	LTP175	ltpFR	4	3	n/a	COP	376	n/a	n/a	n/a	n/a	n/a	n/a	n/a
3358598	RECOG_CONF	n/a	LTP175	ltpFR	4	3	n/a	COP	376	5	n/a	n/a	n/a	n/a	n/a	n/a
3360250	RECOG_TARGET	n/a	LTP175	ltpFR	4	3	-1	BUILDING	191	5	-1	n/a	n/a	n/a	n/a	n/a
3361835	RECOG_RESP	n/a	LTP175	ltpFR	4	3	-1	BUILDING	191	n/a	-1	n/a	n/a	n/a	n/a	n/a
3363048	RECOG_CONF	n/a	LTP175	ltpFR	4	3	-1	BUILDING	191	5	-1	n/a	n/a	n/a	n/a	n/a
3364691	RECOG_LURE	n/a	LTP175	ltpFR	4	3	n/a	CERAMICS	271	5	n/a	n/a	n/a	n/a	n/a	n/a
3365729	RECOG_RESP	n/a	LTP175	ltpFR	4	3	n/a	CERAMICS	271	n/a	n/a	n/a	n/a	n/a	n/a	n/a
3367159	RECOG_CONF	n/a	LTP175	ltpFR	4	3	n/a	CERAMICS	271	5	n/a	n/a	n/a	n/a	n/a	n/a
3368648	RECOG_TARGET	n/a	LTP175	ltpFR	4	3	-1	BRACELET	163	5	-1	n/a	n/a	n/a	n/a	n/a
3369756	RECOG_RESP	n/a	LTP175	ltpFR	4	3	-1	BRACELET	163	n/a	-1	n/a	n/a	n/a	n/a	n/a
3371130	RECOG_CONF	n/a	LTP175	ltpFR	4	3	-1	BRACELET	163	5	-1	n/a	n/a	n/a	n/a	n/a
3372812	RECOG_TARGET	n/a	LTP175	ltpFR	4	3	0	CANOE	233	5	0	n/a	n/a	n/a	n/a	n/a
3373710	RECOG_RESP	n/a	LTP175	ltpFR	4	3	0	CANOE	233	n/a	0	n/a	n/a	n/a	n/a	n/a
3375031	RECOG_CONF	n/a	LTP175	ltpFR	4	3	0	CANOE	233	5	0	n/a	n/a	n/a	n/a	n/a
3376661	RECOG_LURE	n/a	LTP175	ltpFR	4	3	n/a	MOLECULE	905	5	n/a	n/a	n/a	n/a	n/a	n/a
3377760	RECOG_RESP	n/a	LTP175	ltpFR	4	3	n/a	MOLECULE	905	n/a	n/a	n/a	n/a	n/a	n/a	n/a
3379082	RECOG_CONF	n/a	LTP175	ltpFR	4	3	n/a	MOLECULE	905	5	n/a	n/a	n/a	n/a	n/a	n/a
3380585	RECOG_TARGET	n/a	LTP175	ltpFR	4	3	1	TWIG	1527	5	0	n/a	n/a	n/a	n/a	n/a
3381585	RECOG_RESP	n/a	LTP175	ltpFR	4	3	1	TWIG	1527	n/a	0	n/a	n/a	n/a	n/a	n/a
3383043	RECOG_CONF	n/a	LTP175	ltpFR	4	3	1	TWIG	1527	5	0	n/a	n/a	n/a	n/a	n/a
3384675	RECOG_LURE	n/a	LTP175	ltpFR	4	3	n/a	APRON	35	5	n/a	n/a	n/a	n/a	n/a	n/a
3385780	RECOG_RESP	n/a	LTP175	ltpFR	4	3	n/a	APRON	35	n/a	n/a	n/a	n/a	n/a	n/a	n/a
3387123	RECOG_CONF	n/a	LTP175	ltpFR	4	3	n/a	APRON	35	5	n/a	n/a	n/a	n/a	n/a	n/a
3388682	RECOG_TARGET	n/a	LTP175	ltpFR	4	3	0	LEAF	808	5	0	n/a	n/a	n/a	n/a	n/a
3389962	RECOG_RESP	n/a	LTP175	ltpFR	4	3	0	LEAF	808	n/a	0	n/a	n/a	n/a	n/a	n/a
3391384	RECOG_CONF	n/a	LTP175	ltpFR	4	3	0	LEAF	808	5	0	n/a	n/a	n/a	n/a	n/a
3393030	RECOG_TARGET	n/a	LTP175	ltpFR	4	3	1	JUNGLE	764	5	0	n/a	n/a	n/a	n/a	n/a
3394053	RECOG_RESP	n/a	LTP175	ltpFR	4	3	1	JUNGLE	764	n/a	0	n/a	n/a	n/a	n/a	n/a
3395464	RECOG_CONF	n/a	LTP175	ltpFR	4	3	1	JUNGLE	764	5	0	n/a	n/a	n/a	n/a	n/a
3397161	RECOG_TARGET	n/a	LTP175	ltpFR	4	3	1	DORM	488	5	0	n/a	n/a	n/a	n/a	n/a
3398181	RECOG_RESP	n/a	LTP175	ltpFR	4	3	1	DORM	488	n/a	0	n/a	n/a	n/a	n/a	n/a
3399665	RECOG_CONF	n/a	LTP175	ltpFR	4	3	1	DORM	488	5	0	n/a	n/a	n/a	n/a	n/a
3401193	RECOG_LURE	n/a	LTP175	ltpFR	4	3	n/a	PLAYGROUND	1087	3	n/a	n/a	n/a	n/a	n/a	n/a
3404254	RECOG_RESP	n/a	LTP175	ltpFR	4	3	n/a	PLAYGROUND	1087	n/a	n/a	n/a	n/a	n/a	n/a	n/a
3405921	RECOG_CONF	n/a	LTP175	ltpFR	4	3	n/a	PLAYGROUND	1087	3	n/a	n/a	n/a	n/a	n/a	n/a
3407559	RECOG_LURE	n/a	LTP175	ltpFR	4	3	n/a	THUMB	1462	3	n/a	n/a	n/a	n/a	n/a	n/a
3408828	RECOG_RESP	n/a	LTP175	ltpFR	4	3	n/a	THUMB	1462	n/a	n/a	n/a	n/a	n/a	n/a	n/a
3410520	RECOG_CONF	n/a	LTP175	ltpFR	4	3	n/a	THUMB	1462	3	n/a	n/a	n/a	n/a	n/a	n/a
3412114	RECOG_LURE	n/a	LTP175	ltpFR	4	3	n/a	PIANO	1057	3	n/a	n/a	n/a	n/a	n/a	n/a
3413328	RECOG_RESP	n/a	LTP175	ltpFR	4	3	n/a	PIANO	1057	n/a	n/a	n/a	n/a	n/a	n/a	n/a
3415318	RECOG_CONF	n/a	LTP175	ltpFR	4	3	n/a	PIANO	1057	3	n/a	n/a	n/a	n/a	n/a	n/a
3416913	RECOG_LURE	n/a	LTP175	ltpFR	4	3	n/a	MISSILE	900	5	n/a	n/a	n/a	n/a	n/a	n/a
3418042	RECOG_RESP	n/a	LTP175	ltpFR	4	3	n/a	MISSILE	900	n/a	n/a	n/a	n/a	n/a	n/a	n/a
3419659	RECOG_CONF	n/a	LTP175	ltpFR	4	3	n/a	MISSILE	900	5	n/a	n/a	n/a	n/a	n/a	n/a
3421328	RECOG_TARGET	n/a	LTP175	ltpFR	4	3	1	MARKET	871	5	0	n/a	n/a	n/a	n/a	n/a
3422515	RECOG_RESP	n/a	LTP175	ltpFR	4	3	1	MARKET	871	n/a	0	n/a	n/a	n/a	n/a	n/a
3423960	RECOG_CONF	n/a	LTP175	ltpFR	4	3	1	MARKET	871	5	0	n/a	n/a	n/a	n/a	n/a
3425602	RECOG_TARGET	n/a	LTP175	ltpFR	4	3	-1	DRILL	497	5	-1	n/a	n/a	n/a	n/a	n/a
3426651	RECOG_RESP	n/a	LTP175	ltpFR	4	3	-1	DRILL	497	n/a	-1	n/a	n/a	n/a	n/a	n/a
3428030	RECOG_CONF	n/a	LTP175	ltpFR	4	3	-1	DRILL	497	5	-1	n/a	n/a	n/a	n/a	n/a
3429534	RECOG_TARGET	n/a	LTP175	ltpFR	4	3	1	NECKLACE	940	5	0	n/a	n/a	n/a	n/a	n/a
3433151	RECOG_RESP	n/a	LTP175	ltpFR	4	3	1	NECKLACE	940	n/a	0	n/a	n/a	n/a	n/a	n/a
3434575	RECOG_CONF	n/a	LTP175	ltpFR	4	3	1	NECKLACE	940	5	0	n/a	n/a	n/a	n/a	n/a
3446815	REC_START	n/a	LTP175	ltpFR	4	4	n/a	n/a	n/a	n/a	n/a	n/a	n/a	n/a	n/a	n/a
3446852	RECOG_TARGET	n/a	LTP175	ltpFR	4	4	0	BUTLER	204	5	1	n/a	n/a	n/a	n/a	n/a
3448189	RECOG_RESP	n/a	LTP175	ltpFR	4	4	0	BUTLER	204	n/a	1	n/a	n/a	n/a	n/a	n/a
3449723	RECOG_CONF	n/a	LTP175	ltpFR	4	4	0	BUTLER	204	5	1	n/a	n/a	n/a	n/a	n/a
3451460	RECOG_TARGET	n/a	LTP175	ltpFR	4	4	0	KEG	770	5	1	n/a	n/a	n/a	n/a	n/a
3452371	RECOG_RESP	n/a	LTP175	ltpFR	4	4	0	KEG	770	n/a	1	n/a	n/a	n/a	n/a	n/a
3453954	RECOG_CONF	n/a	LTP175	ltpFR	4	4	0	KEG	770	5	1	n/a	n/a	n/a	n/a	n/a
3455849	RECOG_LURE	n/a	LTP175	ltpFR	4	4	n/a	PRIEST	1122	5	n/a	n/a	n/a	n/a	n/a	n/a
3457168	RECOG_RESP_VV	n/a	LTP175	ltpFR	4	4	n/a	PRIEST	1122	n/a	n/a	n/a	n/a	n/a	n/a	n/a
3459565	RECOG_RESP_VV	n/a	LTP175	ltpFR	4	4	n/a	PRIEST	1122	n/a	n/a	n/a	n/a	n/a	n/a	n/a
3459914	RECOG_RESP_VV	n/a	LTP175	ltpFR	4	4	n/a	PRIEST	1122	n/a	n/a	n/a	n/a	n/a	n/a	n/a
3460864	RECOG_RESP	n/a	LTP175	ltpFR	4	4	n/a	PRIEST	1122	n/a	n/a	n/a	n/a	n/a	n/a	n/a
3462853	RECOG_CONF	n/a	LTP175	ltpFR	4	4	n/a	PRIEST	1122	5	n/a	n/a	n/a	n/a	n/a	n/a
3464530	RECOG_TARGET	n/a	LTP175	ltpFR	4	4	0	CASHIER	254	5	1	n/a	n/a	n/a	n/a	n/a
3465558	RECOG_RESP	n/a	LTP175	ltpFR	4	4	0	CASHIER	254	n/a	1	n/a	n/a	n/a	n/a	n/a
3466685	RECOG_CONF	n/a	LTP175	ltpFR	4	4	0	CASHIER	254	5	1	n/a	n/a	n/a	n/a	n/a
3468344	RECOG_TARGET	n/a	LTP175	ltpFR	4	4	0	SPICE	1350	5	1	n/a	n/a	n/a	n/a	n/a
3469387	RECOG_RESP	n/a	LTP175	ltpFR	4	4	0	SPICE	1350	n/a	1	n/a	n/a	n/a	n/a	n/a
3470536	RECOG_CONF	n/a	LTP175	ltpFR	4	4	0	SPICE	1350	5	1	n/a	n/a	n/a	n/a	n/a
3472085	RECOG_TARGET	n/a	LTP175	ltpFR	4	4	0	SUN	1406	5	1	n/a	n/a	n/a	n/a	n/a
3472930	RECOG_RESP	n/a	LTP175	ltpFR	4	4	0	SUN	1406	n/a	1	n/a	n/a	n/a	n/a	n/a
3474098	RECOG_CONF	n/a	LTP175	ltpFR	4	4	0	SUN	1406	5	1	n/a	n/a	n/a	n/a	n/a
3475626	RECOG_LURE	n/a	LTP175	ltpFR	4	4	n/a	EAGLE	512	3	n/a	n/a	n/a	n/a	n/a	n/a
3476901	RECOG_RESP	n/a	LTP175	ltpFR	4	4	n/a	EAGLE	512	n/a	n/a	n/a	n/a	n/a	n/a	n/a
3478438	RECOG_CONF	n/a	LTP175	ltpFR	4	4	n/a	EAGLE	512	3	n/a	n/a	n/a	n/a	n/a	n/a
3480032	RECOG_LURE	n/a	LTP175	ltpFR	4	4	n/a	MULE	931	2	n/a	n/a	n/a	n/a	n/a	n/a
3481442	RECOG_RESP	n/a	LTP175	ltpFR	4	4	n/a	MULE	931	n/a	n/a	n/a	n/a	n/a	n/a	n/a
3482893	RECOG_CONF	n/a	LTP175	ltpFR	4	4	n/a	MULE	931	2	n/a	n/a	n/a	n/a	n/a	n/a
3484440	RECOG_LURE	n/a	LTP175	ltpFR	4	4	n/a	CLIPPERS	324	1	n/a	n/a	n/a	n/a	n/a	n/a
3486665	RECOG_RESP	n/a	LTP175	ltpFR	4	4	n/a	CLIPPERS	324	n/a	n/a	n/a	n/a	n/a	n/a	n/a
3488106	RECOG_CONF	n/a	LTP175	ltpFR	4	4	n/a	CLIPPERS	324	1	n/a	n/a	n/a	n/a	n/a	n/a
3489762	RECOG_LURE	n/a	LTP175	ltpFR	4	4	n/a	SHUTTER	1300	2	n/a	n/a	n/a	n/a	n/a	n/a
3492162	RECOG_RESP	n/a	LTP175	ltpFR	4	4	n/a	SHUTTER	1300	n/a	n/a	n/a	n/a	n/a	n/a	n/a
3493526	RECOG_CONF	n/a	LTP175	ltpFR	4	4	n/a	SHUTTER	1300	2	n/a	n/a	n/a	n/a	n/a	n/a
3495151	RECOG_TARGET	n/a	LTP175	ltpFR	4	4	0	PENDULUM	1043	2	1	n/a	n/a	n/a	n/a	n/a
3497272	RECOG_RESP	n/a	LTP175	ltpFR	4	4	0	PENDULUM	1043	n/a	1	n/a	n/a	n/a	n/a	n/a
3498500	RECOG_CONF	n/a	LTP175	ltpFR	4	4	0	PENDULUM	1043	2	1	n/a	n/a	n/a	n/a	n/a
3500125	RECOG_LURE	n/a	LTP175	ltpFR	4	4	n/a	LONDON	843	5	n/a	n/a	n/a	n/a	n/a	n/a
3501159	RECOG_RESP	n/a	LTP175	ltpFR	4	4	n/a	LONDON	843	n/a	n/a	n/a	n/a	n/a	n/a	n/a
3502753	RECOG_CONF	n/a	LTP175	ltpFR	4	4	n/a	LONDON	843	5	n/a	n/a	n/a	n/a	n/a	n/a
3504441	RECOG_TARGET	n/a	LTP175	ltpFR	4	4	1	SENATE	1267	5	1	n/a	n/a	n/a	n/a	n/a
3505516	RECOG_RESP	n/a	LTP175	ltpFR	4	4	1	SENATE	1267	n/a	1	n/a	n/a	n/a	n/a	n/a
3506843	RECOG_CONF	n/a	LTP175	ltpFR	4	4	1	SENATE	1267	5	1	n/a	n/a	n/a	n/a	n/a
3508431	RECOG_LURE	n/a	LTP175	ltpFR	4	4	n/a	GUARDIAN	668	2	n/a	n/a	n/a	n/a	n/a	n/a
3510732	RECOG_RESP	n/a	LTP175	ltpFR	4	4	n/a	GUARDIAN	668	n/a	n/a	n/a	n/a	n/a	n/a	n/a
3511979	RECOG_CONF	n/a	LTP175	ltpFR	4	4	n/a	GUARDIAN	668	2	n/a	n/a	n/a	n/a	n/a	n/a
3513496	RECOG_TARGET	n/a	LTP175	ltpFR	4	4	0	TIGER	1467	5	1	n/a	n/a	n/a	n/a	n/a
3514722	RECOG_RESP	n/a	LTP175	ltpFR	4	4	0	TIGER	1467	n/a	1	n/a	n/a	n/a	n/a	n/a
3515933	RECOG_CONF	n/a	LTP175	ltpFR	4	4	0	TIGER	1467	5	1	n/a	n/a	n/a	n/a	n/a
3517578	RECOG_LURE	n/a	LTP175	ltpFR	4	4	n/a	BEVERAGE	123	5	n/a	n/a	n/a	n/a	n/a	n/a
3518816	RECOG_RESP	n/a	LTP175	ltpFR	4	4	n/a	BEVERAGE	123	n/a	n/a	n/a	n/a	n/a	n/a	n/a
3520013	RECOG_CONF	n/a	LTP175	ltpFR	4	4	n/a	BEVERAGE	123	5	n/a	n/a	n/a	n/a	n/a	n/a
3521676	RECOG_LURE	n/a	LTP175	ltpFR	4	4	n/a	BARRACUDA	90	3	n/a	n/a	n/a	n/a	n/a	n/a
3523560	RECOG_RESP	n/a	LTP175	ltpFR	4	4	n/a	BARRACUDA	90	n/a	n/a	n/a	n/a	n/a	n/a	n/a
3525152	RECOG_CONF	n/a	LTP175	ltpFR	4	4	n/a	BARRACUDA	90	3	n/a	n/a	n/a	n/a	n/a	n/a
3526857	RECOG_TARGET	n/a	LTP175	ltpFR	4	4	-1	TUBE	1516	5	-1	n/a	n/a	n/a	n/a	n/a
3527890	RECOG_RESP	n/a	LTP175	ltpFR	4	4	-1	TUBE	1516	n/a	-1	n/a	n/a	n/a	n/a	n/a
3529392	RECOG_CONF	n/a	LTP175	ltpFR	4	4	-1	TUBE	1516	5	-1	n/a	n/a	n/a	n/a	n/a
3531155	RECOG_LURE	n/a	LTP175	ltpFR	4	4	n/a	EDITOR	516	5	n/a	n/a	n/a	n/a	n/a	n/a
3532239	RECOG_RESP	n/a	LTP175	ltpFR	4	4	n/a	EDITOR	516	n/a	n/a	n/a	n/a	n/a	n/a	n/a
3533523	RECOG_CONF	n/a	LTP175	ltpFR	4	4	n/a	EDITOR	516	5	n/a	n/a	n/a	n/a	n/a	n/a
3535237	RECOG_LURE	n/a	LTP175	ltpFR	4	4	n/a	VACUUM	1543	5	n/a	n/a	n/a	n/a	n/a	n/a
3536476	RECOG_RESP	n/a	LTP175	ltpFR	4	4	n/a	VACUUM	1543	n/a	n/a	n/a	n/a	n/a	n/a	n/a
3537943	RECOG_CONF	n/a	LTP175	ltpFR	4	4	n/a	VACUUM	1543	5	n/a	n/a	n/a	n/a	n/a	n/a
3550192	REC_START	n/a	LTP175	ltpFR	4	5	n/a	n/a	n/a	n/a	n/a	n/a	n/a	n/a	n/a	n/a
3550224	RECOG_LURE	n/a	LTP175	ltpFR	4	5	n/a	STADIUM	1364	5	n/a	n/a	n/a	n/a	n/a	n/a
3551498	RECOG_RESP	n/a	LTP175	ltpFR	4	5	n/a	STADIUM	1364	n/a	n/a	n/a	n/a	n/a	n/a	n/a
3553220	RECOG_CONF	n/a	LTP175	ltpFR	4	5	n/a	STADIUM	1364	5	n/a	n/a	n/a	n/a	n/a	n/a
3554889	RECOG_TARGET	n/a	LTP175	ltpFR	4	5	0	COMPUTER	359	5	1	n/a	n/a	n/a	n/a	n/a
3556022	RECOG_RESP	n/a	LTP175	ltpFR	4	5	0	COMPUTER	359	n/a	1	n/a	n/a	n/a	n/a	n/a
3557410	RECOG_CONF	n/a	LTP175	ltpFR	4	5	0	COMPUTER	359	5	1	n/a	n/a	n/a	n/a	n/a
3559062	RECOG_TARGET	n/a	LTP175	ltpFR	4	5	1	PIRATE	1074	5	1	n/a	n/a	n/a	n/a	n/a
3560071	RECOG_RESP	n/a	LTP175	ltpFR	4	5	1	PIRATE	1074	n/a	1	n/a	n/a	n/a	n/a	n/a
3561431	RECOG_CONF	n/a	LTP175	ltpFR	4	5	1	PIRATE	1074	5	1	n/a	n/a	n/a	n/a	n/a
3563027	RECOG_TARGET	n/a	LTP175	ltpFR	4	5	1	PENGUIN	1044	5	1	n/a	n/a	n/a	n/a	n/a
3563986	RECOG_RESP	n/a	LTP175	ltpFR	4	5	1	PENGUIN	1044	n/a	1	n/a	n/a	n/a	n/a	n/a
3565302	RECOG_CONF	n/a	LTP175	ltpFR	4	5	1	PENGUIN	1044	5	1	n/a	n/a	n/a	n/a	n/a
3566909	RECOG_TARGET	n/a	LTP175	ltpFR	4	5	0	CIGARETTE	309	5	0	n/a	n/a	n/a	n/a	n/a
3567819	RECOG_RESP	n/a	LTP175	ltpFR	4	5	0	CIGARETTE	309	n/a	0	n/a	n/a	n/a	n/a	n/a
3569004	RECOG_CONF	n/a	LTP175	ltpFR	4	5	0	CIGARETTE	309	5	0	n/a	n/a	n/a	n/a	n/a
3570576	RECOG_LURE	n/a	LTP175	ltpFR	4	5	n/a	SENATOR	1268	5	n/a	n/a	n/a	n/a	n/a	n/a
3571387	RECOG_RESP	n/a	LTP175	ltpFR	4	5	n/a	SENATOR	1268	n/a	n/a	n/a	n/a	n/a	n/a	n/a
3572646	RECOG_CONF	n/a	LTP175	ltpFR	4	5	n/a	SENATOR	1268	5	n/a	n/a	n/a	n/a	n/a	n/a
3574057	RECOG_LURE	n/a	LTP175	ltpFR	4	5	n/a	ROUGE	1213	5	n/a	n/a	n/a	n/a	n/a	n/a
3576169	RECOG_RESP	n/a	LTP175	ltpFR	4	5	n/a	ROUGE	1213	n/a	n/a	n/a	n/a	n/a	n/a	n/a
3577455	RECOG_CONF	n/a	LTP175	ltpFR	4	5	n/a	ROUGE	1213	5	n/a	n/a	n/a	n/a	n/a	n/a
3579005	RECOG_TARGET	n/a	LTP175	ltpFR	4	5	1	WINDOW	1611	5	0	n/a	n/a	n/a	n/a	n/a
3579938	RECOG_RESP	n/a	LTP175	ltpFR	4	5	1	WINDOW	1611	n/a	0	n/a	n/a	n/a	n/a	n/a
3582394	RECOG_CONF	n/a	LTP175	ltpFR	4	5	1	WINDOW	1611	5	0	n/a	n/a	n/a	n/a	n/a
3584028	RECOG_TARGET	n/a	LTP175	ltpFR	4	5	0	MONEY	908	5	0	n/a	n/a	n/a	n/a	n/a
3584884	RECOG_RESP	n/a	LTP175	ltpFR	4	5	0	MONEY	908	n/a	0	n/a	n/a	n/a	n/a	n/a
3585995	RECOG_CONF	n/a	LTP175	ltpFR	4	5	0	MONEY	908	5	0	n/a	n/a	n/a	n/a	n/a
3587620	RECOG_TARGET	n/a	LTP175	ltpFR	4	5	-1	WATER	1594	5	-1	n/a	n/a	n/a	n/a	n/a
3588499	RECOG_RESP	n/a	LTP175	ltpFR	4	5	-1	WATER	1594	n/a	-1	n/a	n/a	n/a	n/a	n/a
3589697	RECOG_CONF	n/a	LTP175	ltpFR	4	5	-1	WATER	1594	5	-1	n/a	n/a	n/a	n/a	n/a
3591435	RECOG_TARGET	n/a	LTP175	ltpFR	4	5	-1	REGISTER	1180	5	-1	n/a	n/a	n/a	n/a	n/a
3592257	RECOG_RESP	n/a	LTP175	ltpFR	4	5	-1	REGISTER	1180	n/a	-1	n/a	n/a	n/a	n/a	n/a
3593468	RECOG_CONF	n/a	LTP175	ltpFR	4	5	-1	REGISTER	1180	5	-1	n/a	n/a	n/a	n/a	n/a
3595500	RECOG_LURE	n/a	LTP175	ltpFR	4	5	n/a	FEATHER	557	2	n/a	n/a	n/a	n/a	n/a	n/a
3597907	RECOG_RESP	n/a	LTP175	ltpFR	4	5	n/a	FEATHER	557	n/a	n/a	n/a	n/a	n/a	n/a	n/a
3599150	RECOG_CONF	n/a	LTP175	ltpFR	4	5	n/a	FEATHER	557	2	n/a	n/a	n/a	n/a	n/a	n/a
3600673	RECOG_TARGET	n/a	LTP175	ltpFR	4	5	0	CHAUFFEUR	283	5	1	n/a	n/a	n/a	n/a	n/a
3601724	RECOG_RESP	n/a	LTP175	ltpFR	4	5	0	CHAUFFEUR	283	n/a	1	n/a	n/a	n/a	n/a	n/a
3602927	RECOG_CONF	n/a	LTP175	ltpFR	4	5	0	CHAUFFEUR	283	5	1	n/a	n/a	n/a	n/a	n/a
3604530	RECOG_TARGET	n/a	LTP175	ltpFR	4	5	1	CHARCOAL	281	5	0	n/a	n/a	n/a	n/a	n/a
3605451	RECOG_RESP	n/a	LTP175	ltpFR	4	5	1	CHARCOAL	281	n/a	0	n/a	n/a	n/a	n/a	n/a
3606958	RECOG_CONF	n/a	LTP175	ltpFR	4	5	1	CHARCOAL	281	5	0	n/a	n/a	n/a	n/a	n/a
3608645	RECOG_TARGET	n/a	LTP175	ltpFR	4	5	0	CARDINAL	244	5	1	n/a	n/a	n/a	n/a	n/a
3609523	RECOG_RESP	n/a	LTP175	ltpFR	4	5	0	CARDINAL	244	n/a	1	n/a	n/a	n/a	n/a	n/a
3610829	RECOG_CONF	n/a	LTP175	ltpFR	4	5	0	CARDINAL	244	5	1	n/a	n/a	n/a	n/a	n/a
3612343	RECOG_TARGET	n/a	LTP175	ltpFR	4	5	0	PAD	998	5	1	n/a	n/a	n/a	n/a	n/a
3613426	RECOG_RESP	n/a	LTP175	ltpFR	4	5	0	PAD	998	n/a	1	n/a	n/a	n/a	n/a	n/a
3614600	RECOG_CONF	n/a	LTP175	ltpFR	4	5	0	PAD	998	5	1	n/a	n/a	n/a	n/a	n/a
3616233	RECOG_TARGET	n/a	LTP175	ltpFR	4	5	-1	SEA	1259	5	-1	n/a	n/a	n/a	n/a	n/a
3616956	RECOG_RESP	n/a	LTP175	ltpFR	4	5	-1	SEA	1259	n/a	-1	n/a	n/a	n/a	n/a	n/a
3618083	RECOG_CONF	n/a	LTP175	ltpFR	4	5	-1	SEA	1259	5	-1	n/a	n/a	n/a	n/a	n/a
3619417	RECOG_TARGET	n/a	LTP175	ltpFR	4	5	-1	SUPPER	1411	5	-1	n/a	n/a	n/a	n/a	n/a
3620161	RECOG_RESP	n/a	LTP175	ltpFR	4	5	-1	SUPPER	1411	n/a	-1	n/a	n/a	n/a	n/a	n/a
3621305	RECOG_CONF	n/a	LTP175	ltpFR	4	5	-1	SUPPER	1411	5	-1	n/a	n/a	n/a	n/a	n/a
3622814	RECOG_TARGET	n/a	LTP175	ltpFR	4	5	0	ANKLE	24	5	1	n/a	n/a	n/a	n/a	n/a
3623614	RECOG_RESP	n/a	LTP175	ltpFR	4	5	0	ANKLE	24	n/a	1	n/a	n/a	n/a	n/a	n/a
3624697	RECOG_CONF	n/a	LTP175	ltpFR	4	5	0	ANKLE	24	5	1	n/a	n/a	n/a	n/a	n/a
3626238	RECOG_LURE	n/a	LTP175	ltpFR	4	5	n/a	BEARD	107	1	n/a	n/a	n/a	n/a	n/a	n/a
3628588	RECOG_RESP	n/a	LTP175	ltpFR	4	5	n/a	BEARD	107	n/a	n/a	n/a	n/a	n/a	n/a	n/a
3629975	RECOG_CONF	n/a	LTP175	ltpFR	4	5	n/a	BEARD	107	1	n/a	n/a	n/a	n/a	n/a	n/a
3639365	REC_START	n/a	LTP175	ltpFR	4	6	n/a	n/a	n/a	n/a	n/a	n/a	n/a	n/a	n/a	n/a
3639401	RECOG_LURE	n/a	LTP175	ltpFR	4	6	n/a	PHYSICIAN	1056	3	n/a	n/a	n/a	n/a	n/a	n/a
3640468	RECOG_RESP	n/a	LTP175	ltpFR	4	6	n/a	PHYSICIAN	1056	n/a	n/a	n/a	n/a	n/a	n/a	n/a
3642283	RECOG_CONF	n/a	LTP175	ltpFR	4	6	n/a	PHYSICIAN	1056	3	n/a	n/a	n/a	n/a	n/a	n/a
3643899	RECOG_LURE	n/a	LTP175	ltpFR	4	6	n/a	RADIATOR	1156	3	n/a	n/a	n/a	n/a	n/a	n/a
3645035	RECOG_RESP	n/a	LTP175	ltpFR	4	6	n/a	RADIATOR	1156	n/a	n/a	n/a	n/a	n/a	n/a	n/a
3646723	RECOG_CONF	n/a	LTP175	ltpFR	4	6	n/a	RADIATOR	1156	3	n/a	n/a	n/a	n/a	n/a	n/a
3648205	RECOG_LURE	n/a	LTP175	ltpFR	4	6	n/a	TUNA	1518	5	n/a	n/a	n/a	n/a	n/a	n/a
3649340	RECOG_RESP	n/a	LTP175	ltpFR	4	6	n/a	TUNA	1518	n/a	n/a	n/a	n/a	n/a	n/a	n/a
3650654	RECOG_CONF	n/a	LTP175	ltpFR	4	6	n/a	TUNA	1518	5	n/a	n/a	n/a	n/a	n/a	n/a
3652346	RECOG_LURE	n/a	LTP175	ltpFR	4	6	n/a	SHELF	1280	2	n/a	n/a	n/a	n/a	n/a	n/a
3655463	RECOG_RESP	n/a	LTP175	ltpFR	4	6	n/a	SHELF	1280	n/a	n/a	n/a	n/a	n/a	n/a	n/a
3656901	RECOG_CONF	n/a	LTP175	ltpFR	4	6	n/a	SHELF	1280	2	n/a	n/a	n/a	n/a	n/a	n/a
3658594	RECOG_LURE	n/a	LTP175	ltpFR	4	6	n/a	WAIST	1579	2	n/a	n/a	n/a	n/a	n/a	n/a
3659885	RECOG_RESP	n/a	LTP175	ltpFR	4	6	n/a	WAIST	1579	n/a	n/a	n/a	n/a	n/a	n/a	n/a
3661254	RECOG_CONF	n/a	LTP175	ltpFR	4	6	n/a	WAIST	1579	2	n/a	n/a	n/a	n/a	n/a	n/a
3662759	RECOG_TARGET	n/a	LTP175	ltpFR	4	6	1	MARINE	869	5	1	n/a	n/a	n/a	n/a	n/a
3663782	RECOG_RESP	n/a	LTP175	ltpFR	4	6	1	MARINE	869	n/a	1	n/a	n/a	n/a	n/a	n/a
3665081	RECOG_CONF	n/a	LTP175	ltpFR	4	6	1	MARINE	869	5	1	n/a	n/a	n/a	n/a	n/a
3666865	RECOG_TARGET	n/a	LTP175	ltpFR	4	6	1	BEAKER	104	5	1	n/a	n/a	n/a	n/a	n/a
3668187	RECOG_RESP	n/a	LTP175	ltpFR	4	6	1	BEAKER	104	n/a	1	n/a	n/a	n/a	n/a	n/a
3669342	RECOG_CONF	n/a	LTP175	ltpFR	4	6	1	BEAKER	104	5	1	n/a	n/a	n/a	n/a	n/a
3670989	RECOG_LURE	n/a	LTP175	ltpFR	4	6	n/a	DANDELION	438	4	n/a	n/a	n/a	n/a	n/a	n/a
3673976	RECOG_RESP	n/a	LTP175	ltpFR	4	6	n/a	DANDELION	438	n/a	n/a	n/a	n/a	n/a	n/a	n/a
3675687	RECOG_CONF	n/a	LTP175	ltpFR	4	6	n/a	DANDELION	438	4	n/a	n/a	n/a	n/a	n/a	n/a
3677195	RECOG_TARGET	n/a	LTP175	ltpFR	4	6	0	SHOULDER	1294	5	1	n/a	n/a	n/a	n/a	n/a
3678153	RECOG_RESP	n/a	LTP175	ltpFR	4	6	0	SHOULDER	1294	n/a	1	n/a	n/a	n/a	n/a	n/a
3679519	RECOG_CONF	n/a	LTP175	ltpFR	4	6	0	SHOULDER	1294	5	1	n/a	n/a	n/a	n/a	n/a
3681210	RECOG_TARGET	n/a	LTP175	ltpFR	4	6	1	DIARY	460	5	0	n/a	n/a	n/a	n/a	n/a
3682353	RECOG_RESP	n/a	LTP175	ltpFR	4	6	1	DIARY	460	n/a	0	n/a	n/a	n/a	n/a	n/a
3683539	RECOG_CONF	n/a	LTP175	ltpFR	4	6	1	DIARY	460	5	0	n/a	n/a	n/a	n/a	n/a
3685184	RECOG_LURE	n/a	LTP175	ltpFR	4	6	n/a	TOASTER	1472	3	n/a	n/a	n/a	n/a	n/a	n/a
3686674	RECOG_RESP	n/a	LTP175	ltpFR	4	6	n/a	TOASTER	1472	n/a	n/a	n/a	n/a	n/a	n/a	n/a
3688099	RECOG_CONF	n/a	LTP175	ltpFR	4	6	n/a	TOASTER	1472	3	n/a	n/a	n/a	n/a	n/a	n/a
3689849	RECOG_LURE	n/a	LTP175	ltpFR	4	6	n/a	GARLIC	624	5	n/a	n/a	n/a	n/a	n/a	n/a
3691129	RECOG_RESP	n/a	LTP175	ltpFR	4	6	n/a	GARLIC	624	n/a	n/a	n/a	n/a	n/a	n/a	n/a
3692329	RECOG_CONF	n/a	LTP175	ltpFR	4	6	n/a	GARLIC	624	5	n/a	n/a	n/a	n/a	n/a	n/a
3693814	RECOG_TARGET	n/a	LTP175	ltpFR	4	6	0	PLASTER	1085	5	1	n/a	n/a	n/a	n/a	n/a
3694890	RECOG_RESP	n/a	LTP175	ltpFR	4	6	0	PLASTER	1085	n/a	1	n/a	n/a	n/a	n/a	n/a
3696460	RECOG_CONF	n/a	LTP175	ltpFR	4	6	0	PLASTER	1085	5	1	n/a	n/a	n/a	n/a	n/a
3698071	RECOG_TARGET	n/a	LTP175	ltpFR	4	6	1	UNIVERSE	1540	5	0	n/a	n/a	n/a	n/a	n/a
3699066	RECOG_RESP	n/a	LTP175	ltpFR	4	6	1	UNIVERSE	1540	n/a	0	n/a	n/a	n/a	n/a	n/a
3700321	RECOG_CONF	n/a	LTP175	ltpFR	4	6	1	UNIVERSE	1540	5	0	n/a	n/a	n/a	n/a	n/a
3701953	RECOG_LURE	n/a	LTP175	ltpFR	4	6	n/a	ROCK	1201	3	n/a	n/a	n/a	n/a	n/a	n/a
3704095	RECOG_RESP	n/a	LTP175	ltpFR	4	6	n/a	ROCK	1201	n/a	n/a	n/a	n/a	n/a	n/a	n/a
3705325	RECOG_CONF	n/a	LTP175	ltpFR	4	6	n/a	ROCK	1201	3	n/a	n/a	n/a	n/a	n/a	n/a
3707259	RECOG_TARGET	n/a	LTP175	ltpFR	4	6	1	PERSONNEL	1053	5	0	n/a	n/a	n/a	n/a	n/a
3708300	RECOG_RESP	n/a	LTP175	ltpFR	4	6	1	PERSONNEL	1053	n/a	0	n/a	n/a	n/a	n/a	n/a
3709530	RECOG_CONF	n/a	LTP175	ltpFR	4	6	1	PERSONNEL	1053	5	0	n/a	n/a	n/a	n/a	n/a
3711075	RECOG_LURE	n/a	LTP175	ltpFR	4	6	n/a	BILL	126	5	n/a	n/a	n/a	n/a	n/a	n/a
3713105	RECOG_RESP	n/a	LTP175	ltpFR	4	6	n/a	BILL	126	n/a	n/a	n/a	n/a	n/a	n/a	n/a
3714270	RECOG_CONF	n/a	LTP175	ltpFR	4	6	n/a	BILL	126	5	n/a	n/a	n/a	n/a	n/a	n/a
3715806	RECOG_LURE	n/a	LTP175	ltpFR	4	6	n/a	CART	250	5	n/a	n/a	n/a	n/a	n/a	n/a
3716825	RECOG_RESP	n/a	LTP175	ltpFR	4	6	n/a	CART	250	n/a	n/a	n/a	n/a	n/a	n/a	n/a
3717971	RECOG_CONF	n/a	LTP175	ltpFR	4	6	n/a	CART	250	5	n/a	n/a	n/a	n/a	n/a	n/a
3719614	RECOG_LURE	n/a	LTP175	ltpFR	4	6	n/a	RIB	1188	5	n/a	n/a	n/a	n/a	n/a	n/a
3720586	RECOG_RESP	n/a	LTP175	ltpFR	4	6	n/a	RIB	1188	n/a	n/a	n/a	n/a	n/a	n/a	n/a
3721763	RECOG_CONF	n/a	LTP175	ltpFR	4	6	n/a	RIB	1188	5	n/a	n/a	n/a	n/a	n/a	n/a
3723438	RECOG_LURE	n/a	LTP175	ltpFR	4	6	n/a	PLAQUE	1084	5	n/a	n/a	n/a	n/a	n/a	n/a
3724576	RECOG_RESP	n/a	LTP175	ltpFR	4	6	n/a	PLAQUE	1084	n/a	n/a	n/a	n/a	n/a	n/a	n/a
3725803	RECOG_CONF	n/a	LTP175	ltpFR	4	6	n/a	PLAQUE	1084	5	n/a	n/a	n/a	n/a	n/a	n/a
3736841	REC_START	n/a	LTP175	ltpFR	4	7	n/a	n/a	n/a	n/a	n/a	n/a	n/a	n/a	n/a	n/a
3736874	RECOG_TARGET	n/a	LTP175	ltpFR	4	7	0	ARM	38	3	1	n/a	n/a	n/a	n/a	n/a
3738211	RECOG_RESP	n/a	LTP175	ltpFR	4	7	0	ARM	38	n/a	1	n/a	n/a	n/a	n/a	n/a
3741066	RECOG_CONF	n/a	LTP175	ltpFR	4	7	0	ARM	38	3	1	n/a	n/a	n/a	n/a	n/a
3742763	RECOG_LURE	n/a	LTP175	ltpFR	4	7	n/a	PARTY	1018	4	n/a	n/a	n/a	n/a	n/a	n/a
3744067	RECOG_RESP	n/a	LTP175	ltpFR	4	7	n/a	PARTY	1018	n/a	n/a	n/a	n/a	n/a	n/a	n/a
3745696	RECOG_CONF	n/a	LTP175	ltpFR	4	7	n/a	PARTY	1018	4	n/a	n/a	n/a	n/a	n/a	n/a
3747212	RECOG_LURE	n/a	LTP175	ltpFR	4	7	n/a	FAUCET	555	5	n/a	n/a	n/a	n/a	n/a	n/a
3748596	RECOG_RESP	n/a	LTP175	ltpFR	4	7	n/a	FAUCET	555	n/a	n/a	n/a	n/a	n/a	n/a	n/a
3750255	RECOG_CONF	n/a	LTP175	ltpFR	4	7	n/a	FAUCET	555	5	n/a	n/a	n/a	n/a	n/a	n/a
3751802	RECOG_TARGET	n/a	LTP175	ltpFR	4	7	1	MAP	865	5	0	n/a	n/a	n/a	n/a	n/a
3752953	RECOG_RESP	n/a	LTP175	ltpFR	4	7	1	MAP	865	n/a	0	n/a	n/a	n/a	n/a	n/a
3754476	RECOG_CONF	n/a	LTP175	ltpFR	4	7	1	MAP	865	5	0	n/a	n/a	n/a	n/a	n/a
3756025	RECOG_LURE	n/a	LTP175	ltpFR	4	7	n/a	SHIP	1286	5	n/a	n/a	n/a	n/a	n/a	n/a
3757049	RECOG_RESP	n/a	LTP175	ltpFR	4	7	n/a	SHIP	1286	n/a	n/a	n/a	n/a	n/a	n/a	n/a
3758277	RECOG_CONF	n/a	LTP175	ltpFR	4	7	n/a	SHIP	1286	5	n/a	n/a	n/a	n/a	n/a	n/a
3760066	RECOG_LURE	n/a	LTP175	ltpFR	4	7	n/a	FUGITIVE	612	5	n/a	n/a	n/a	n/a	n/a	n/a
3761084	RECOG_RESP	n/a	LTP175	ltpFR	4	7	n/a	FUGITIVE	612	n/a	n/a	n/a	n/a	n/a	n/a	n/a
3762218	RECOG_CONF	n/a	LTP175	ltpFR	4	7	n/a	FUGITIVE	612	5	n/a	n/a	n/a	n/a	n/a	n/a
3763798	RECOG_TARGET	n/a	LTP175	ltpFR	4	7	-1	MEAL	882	5	-1	n/a	n/a	n/a	n/a	n/a
3765080	RECOG_RESP	n/a	LTP175	ltpFR	4	7	-1	MEAL	882	n/a	-1	n/a	n/a	n/a	n/a	n/a
3766299	RECOG_CONF	n/a	LTP175	ltpFR	4	7	-1	MEAL	882	5	-1	n/a	n/a	n/a	n/a	n/a
3767938	RECOG_LURE	n/a	LTP175	ltpFR	4	7	n/a	FORK	594	5	n/a	n/a	n/a	n/a	n/a	n/a
3768981	RECOG_RESP	n/a	LTP175	ltpFR	4	7	n/a	FORK	594	n/a	n/a	n/a	n/a	n/a	n/a	n/a
3770220	RECOG_CONF	n/a	LTP175	ltpFR	4	7	n/a	FORK	594	5	n/a	n/a	n/a	n/a	n/a	n/a
3771803	RECOG_TARGET	n/a	LTP175	ltpFR	4	7	1	ACTOR	5	5	1	n/a	n/a	n/a	n/a	n/a
3772939	RECOG_RESP	n/a	LTP175	ltpFR	4	7	1	ACTOR	5	n/a	1	n/a	n/a	n/a	n/a	n/a
3774241	RECOG_CONF	n/a	LTP175	ltpFR	4	7	1	ACTOR	5	5	1	n/a	n/a	n/a	n/a	n/a
3775827	RECOG_LURE	n/a	LTP175	ltpFR	4	7	n/a	PASSAGE	1019	5	n/a	n/a	n/a	n/a	n/a	n/a
3777385	RECOG_RESP	n/a	LTP175	ltpFR	4	7	n/a	PASSAGE	1019	n/a	n/a	n/a	n/a	n/a	n/a	n/a
3778591	RECOG_CONF	n/a	LTP175	ltpFR	4	7	n/a	PASSAGE	1019	5	n/a	n/a	n/a	n/a	n/a	n/a
3780308	RECOG_TARGET	n/a	LTP175	ltpFR	4	7	-1	TEMPLE	1448	5	-1	n/a	n/a	n/a	n/a	n/a
3781615	RECOG_RESP	n/a	LTP175	ltpFR	4	7	-1	TEMPLE	1448	n/a	-1	n/a	n/a	n/a	n/a	n/a
3782891	RECOG_CONF	n/a	LTP175	ltpFR	4	7	-1	TEMPLE	1448	5	-1	n/a	n/a	n/a	n/a	n/a
3784441	RECOG_LURE	n/a	LTP175	ltpFR	4	7	n/a	CELLAR	267	4	n/a	n/a	n/a	n/a	n/a	n/a
3785986	RECOG_RESP	n/a	LTP175	ltpFR	4	7	n/a	CELLAR	267	n/a	n/a	n/a	n/a	n/a	n/a	n/a
3787650	RECOG_CONF	n/a	LTP175	ltpFR	4	7	n/a	CELLAR	267	4	n/a	n/a	n/a	n/a	n/a	n/a
3789297	RECOG_TARGET	n/a	LTP175	ltpFR	4	7	1	MERMAID	887	5	1	n/a	n/a	n/a	n/a	n/a
3790380	RECOG_RESP	n/a	LTP175	ltpFR	4	7	1	MERMAID	887	n/a	1	n/a	n/a	n/a	n/a	n/a
3791751	RECOG_CONF	n/a	LTP175	ltpFR	4	7	1	MERMAID	887	5	1	n/a	n/a	n/a	n/a	n/a
3793446	RECOG_LURE	n/a	LTP175	ltpFR	4	7	n/a	BERRY	122	5	n/a	n/a	n/a	n/a	n/a	n/a
3794958	RECOG_RESP	n/a	LTP175	ltpFR	4	7	n/a	BERRY	122	n/a	n/a	n/a	n/a	n/a	n/a	n/a
3796121	RECOG_CONF	n/a	LTP175	ltpFR	4	7	n/a	BERRY	122	5	n/a	n/a	n/a	n/a	n/a	n/a
3797794	RECOG_TARGET	n/a	LTP175	ltpFR	4	7	0	BANDANNA	80	5	0	n/a	n/a	n/a	n/a	n/a
3798976	RECOG_RESP	n/a	LTP175	ltpFR	4	7	0	BANDANNA	80	n/a	0	n/a	n/a	n/a	n/a	n/a
3800202	RECOG_CONF	n/a	LTP175	ltpFR	4	7	0	BANDANNA	80	5	0	n/a	n/a	n/a	n/a	n/a
3801867	RECOG_TARGET	n/a	LTP175	ltpFR	4	7	1	VINEGAR	1569	5	0	n/a	n/a	n/a	n/a	n/a
3803214	RECOG_RESP	n/a	LTP175	ltpFR	4	7	1	VINEGAR	1569	n/a	0	n/a	n/a	n/a	n/a	n/a
3804452	RECOG_CONF	n/a	LTP175	ltpFR	4	7	1	VINEGAR	1569	5	0	n/a	n/a	n/a	n/a	n/a
3806058	RECOG_LURE	n/a	LTP175	ltpFR	4	7	n/a	BADGE	68	5	n/a	n/a	n/a	n/a	n/a	n/a
3807063	RECOG_RESP	n/a	LTP175	ltpFR	4	7	n/a	BADGE	68	n/a	n/a	n/a	n/a	n/a	n/a	n/a
3808293	RECOG_CONF	n/a	LTP175	ltpFR	4	7	n/a	BADGE	68	5	n/a	n/a	n/a	n/a	n/a	n/a
3809956	RECOG_TARGET	n/a	LTP175	ltpFR	4	7	0	COOKBOOK	373	4	1	n/a	n/a	n/a	n/a	n/a
3811822	RECOG_RESP	n/a	LTP175	ltpFR	4	7	0	COOKBOOK	373	n/a	1	n/a	n/a	n/a	n/a	n/a
3813492	RECOG_CONF	n/a	LTP175	ltpFR	4	7	0	COOKBOOK	373	4	1	n/a	n/a	n/a	n/a	n/a
3815138	RECOG_TARGET	n/a	LTP175	ltpFR	4	7	1	DIAGRAM	456	5	0	n/a	n/a	n/a	n/a	n/a
3816276	RECOG_RESP	n/a	LTP175	ltpFR	4	7	1	DIAGRAM	456	n/a	0	n/a	n/a	n/a	n/a	n/a
3817502	RECOG_CONF	n/a	LTP175	ltpFR	4	7	1	DIAGRAM	456	5	0	n/a	n/a	n/a	n/a	n/a
3819078	RECOG_LURE	n/a	LTP175	ltpFR	4	7	n/a	SAW	1239	5	n/a	n/a	n/a	n/a	n/a	n/a
3820499	RECOG_RESP	n/a	LTP175	ltpFR	4	7	n/a	SAW	1239	n/a	n/a	n/a	n/a	n/a	n/a	n/a
3821623	RECOG_CONF	n/a	LTP175	ltpFR	4	7	n/a	SAW	1239	5	n/a	n/a	n/a	n/a	n/a	n/a
3831330	REC_START	n/a	LTP175	ltpFR	4	8	n/a	n/a	n/a	n/a	n/a	n/a	n/a	n/a	n/a	n/a
3831365	RECOG_TARGET	n/a	LTP175	ltpFR	4	8	-1	NUN	962	5	-1	n/a	n/a	n/a	n/a	n/a
3832465	RECOG_RESP	n/a	LTP175	ltpFR	4	8	-1	NUN	962	n/a	-1	n/a	n/a	n/a	n/a	n/a
3833709	RECOG_CONF	n/a	LTP175	ltpFR	4	8	-1	NUN	962	5	-1	n/a	n/a	n/a	n/a	n/a
3835540	RECOG_LURE	n/a	LTP175	ltpFR	4	8	n/a	CLIMBER	323	5	n/a	n/a	n/a	n/a	n/a	n/a
3836614	RECOG_RESP	n/a	LTP175	ltpFR	4	8	n/a	CLIMBER	323	n/a	n/a	n/a	n/a	n/a	n/a	n/a
3837980	RECOG_CONF	n/a	LTP175	ltpFR	4	8	n/a	CLIMBER	323	5	n/a	n/a	n/a	n/a	n/a	n/a
3839388	RECOG_TARGET	n/a	LTP175	ltpFR	4	8	0	SCENERY	1247	5	1	n/a	n/a	n/a	n/a	n/a
3840677	RECOG_RESP	n/a	LTP175	ltpFR	4	8	0	SCENERY	1247	n/a	1	n/a	n/a	n/a	n/a	n/a
3842001	RECOG_CONF	n/a	LTP175	ltpFR	4	8	0	SCENERY	1247	5	1	n/a	n/a	n/a	n/a	n/a
3843645	RECOG_LURE	n/a	LTP175	ltpFR	4	8	n/a	SHRINE	1298	5	n/a	n/a	n/a	n/a	n/a	n/a
3844645	RECOG_RESP	n/a	LTP175	ltpFR	4	8	n/a	SHRINE	1298	n/a	n/a	n/a	n/a	n/a	n/a	n/a
3846121	RECOG_CONF	n/a	LTP175	ltpFR	4	8	n/a	SHRINE	1298	5	n/a	n/a	n/a	n/a	n/a	n/a
3847751	RECOG_TARGET	n/a	LTP175	ltpFR	4	8	0	DOG	480	5	1	n/a	n/a	n/a	n/a	n/a
3848763	RECOG_RESP	n/a	LTP175	ltpFR	4	8	0	DOG	480	n/a	1	n/a	n/a	n/a	n/a	n/a
3850082	RECOG_CONF	n/a	LTP175	ltpFR	4	8	0	DOG	480	5	1	n/a	n/a	n/a	n/a	n/a
3851808	RECOG_LURE	n/a	LTP175	ltpFR	4	8	n/a	NIGHTGOWN	953	5	n/a	n/a	n/a	n/a	n/a	n/a
3852805	RECOG_RESP	n/a	LTP175	ltpFR	4	8	n/a	NIGHTGOWN	953	n/a	n/a	n/a	n/a	n/a	n/a	n/a
3854213	RECOG_CONF	n/a	LTP175	ltpFR	4	8	n/a	NIGHTGOWN	953	5	n/a	n/a	n/a	n/a	n/a	n/a
3855857	RECOG_LURE	n/a	LTP175	ltpFR	4	8	n/a	CRUTCH	417	5	n/a	n/a	n/a	n/a	n/a	n/a
3856949	RECOG_RESP	n/a	LTP175	ltpFR	4	8	n/a	CRUTCH	417	n/a	n/a	n/a	n/a	n/a	n/a	n/a
3858184	RECOG_CONF	n/a	LTP175	ltpFR	4	8	n/a	CRUTCH	417	5	n/a	n/a	n/a	n/a	n/a	n/a
3859772	RECOG_LURE	n/a	LTP175	ltpFR	4	8	n/a	HUMAN	726	3	n/a	n/a	n/a	n/a	n/a	n/a
3861166	RECOG_RESP	n/a	LTP175	ltpFR	4	8	n/a	HUMAN	726	n/a	n/a	n/a	n/a	n/a	n/a	n/a
3862604	RECOG_CONF	n/a	LTP175	ltpFR	4	8	n/a	HUMAN	726	3	n/a	n/a	n/a	n/a	n/a	n/a
3864162	RECOG_LURE	n/a	LTP175	ltpFR	4	8	n/a	NEWSPAPER	948	3	n/a	n/a	n/a	n/a	n/a	n/a
3865694	RECOG_RESP	n/a	LTP175	ltpFR	4	8	n/a	NEWSPAPER	948	n/a	n/a	n/a	n/a	n/a	n/a	n/a
3867034	RECOG_CONF	n/a	LTP175	ltpFR	4	8	n/a	NEWSPAPER	948	3	n/a	n/a	n/a	n/a	n/a	n/a
3868603	RECOG_LURE	n/a	LTP175	ltpFR	4	8	n/a	YACHT	1629	5	n/a	n/a	n/a	n/a	n/a	n/a
3870010	RECOG_RESP	n/a	LTP175	ltpFR	4	8	n/a	YACHT	1629	n/a	n/a	n/a	n/a	n/a	n/a	n/a
3871364	RECOG_CONF	n/a	LTP175	ltpFR	4	8	n/a	YACHT	1629	5	n/a	n/a	n/a	n/a	n/a	n/a
3873025	RECOG_TARGET	n/a	LTP175	ltpFR	4	8	1	SHEARS	1276	5	0	n/a	n/a	n/a	n/a	n/a
3874408	RECOG_RESP	n/a	LTP175	ltpFR	4	8	1	SHEARS	1276	n/a	0	n/a	n/a	n/a	n/a	n/a
3876123	RECOG_CONF	n/a	LTP175	ltpFR	4	8	1	SHEARS	1276	5	0	n/a	n/a	n/a	n/a	n/a
3877990	RECOG_TARGET	n/a	LTP175	ltpFR	4	8	-1	POOL	1103	5	-1	n/a	n/a	n/a	n/a	n/a
3879032	RECOG_RESP	n/a	LTP175	ltpFR	4	8	-1	POOL	1103	n/a	-1	n/a	n/a	n/a	n/a	n/a
3880423	RECOG_CONF	n/a	LTP175	ltpFR	4	8	-1	POOL	1103	5	-1	n/a	n/a	n/a	n/a	n/a
3882031	RECOG_LURE	n/a	LTP175	ltpFR	4	8	n/a	PENNY	1045	5	n/a	n/a	n/a	n/a	n/a	n/a
3883024	RECOG_RESP	n/a	LTP175	ltpFR	4	8	n/a	PENNY	1045	n/a	n/a	n/a	n/a	n/a	n/a	n/a
3884534	RECOG_CONF	n/a	LTP175	ltpFR	4	8	n/a	PENNY	1045	5	n/a	n/a	n/a	n/a	n/a	n/a
3886146	RECOG_TARGET	n/a	LTP175	ltpFR	4	8	1	HINGE	709	5	0	n/a	n/a	n/a	n/a	n/a
3887234	RECOG_RESP	n/a	LTP175	ltpFR	4	8	1	HINGE	709	n/a	0	n/a	n/a	n/a	n/a	n/a
3888834	RECOG_CONF	n/a	LTP175	ltpFR	4	8	1	HINGE	709	5	0	n/a	n/a	n/a	n/a	n/a
3890495	RECOG_LURE	n/a	LTP175	ltpFR	4	8	n/a	TOOTHPASTE	1483	5	n/a	n/a	n/a	n/a	n/a	n/a
3891675	RECOG_RESP	n/a	LTP175	ltpFR	4	8	n/a	TOOTHPASTE	1483	n/a	n/a	n/a	n/a	n/a	n/a	n/a
3893144	RECOG_CONF	n/a	LTP175	ltpFR	4	8	n/a	TOOTHPASTE	1483	5	n/a	n/a	n/a	n/a	n/a	n/a
3894918	RECOG_TARGET	n/a	LTP175	ltpFR	4	8	-1	PUB	1135	5	-1	n/a	n/a	n/a	n/a	n/a
3896391	RECOG_RESP	n/a	LTP175	ltpFR	4	8	-1	PUB	1135	n/a	-1	n/a	n/a	n/a	n/a	n/a
3897744	RECOG_CONF	n/a	LTP175	ltpFR	4	8	-1	PUB	1135	5	-1	n/a	n/a	n/a	n/a	n/a
3899442	RECOG_TARGET	n/a	LTP175	ltpFR	4	8	0	ALLEY	15	5	1	n/a	n/a	n/a	n/a	n/a
3900453	RECOG_RESP	n/a	LTP175	ltpFR	4	8	0	ALLEY	15	n/a	1	n/a	n/a	n/a	n/a	n/a
3901785	RECOG_CONF	n/a	LTP175	ltpFR	4	8	0	ALLEY	15	5	1	n/a	n/a	n/a	n/a	n/a
3903474	RECOG_LURE	n/a	LTP175	ltpFR	4	8	n/a	ENVELOPE	537	3	n/a	n/a	n/a	n/a	n/a	n/a
3906238	RECOG_RESP	n/a	LTP175	ltpFR	4	8	n/a	ENVELOPE	537	n/a	n/a	n/a	n/a	n/a	n/a	n/a
3907621	RECOG_CONF	n/a	LTP175	ltpFR	4	8	n/a	ENVELOPE	537	3	n/a	n/a	n/a	n/a	n/a	n/a
3909171	RECOG_TARGET	n/a	LTP175	ltpFR	4	8	0	PERISCOPE	1050	5	1	n/a	n/a	n/a	n/a	n/a
3910398	RECOG_RESP	n/a	LTP175	ltpFR	4	8	0	PERISCOPE	1050	n/a	1	n/a	n/a	n/a	n/a	n/a
3911732	RECOG_CONF	n/a	LTP175	ltpFR	4	8	0	PERISCOPE	1050	5	1	n/a	n/a	n/a	n/a	n/a
3913579	RECOG_LURE	n/a	LTP175	ltpFR	4	8	n/a	BATHTUB	100	2	n/a	n/a	n/a	n/a	n/a	n/a
3915295	RECOG_RESP	n/a	LTP175	ltpFR	4	8	n/a	BATHTUB	100	n/a	n/a	n/a	n/a	n/a	n/a	n/a
3916661	RECOG_CONF	n/a	LTP175	ltpFR	4	8	n/a	BATHTUB	100	2	n/a	n/a	n/a	n/a	n/a	n/a
3930588	REC_START	n/a	LTP175	ltpFR	4	9	n/a	n/a	n/a	n/a	n/a	n/a	n/a	n/a	n/a	n/a
3930623	RECOG_TARGET	n/a	LTP175	ltpFR	4	9	0	WAGON	1578	n/a	1	n/a	n/a	n/a	n/a	n/a
3931728	RECOG_RESP	n/a	LTP175	ltpFR	4	9	0	WAGON	1578	n/a	1	n/a	n/a	n/a	n/a	n/a
3934304	RECOG_LURE	n/a	LTP175	ltpFR	4	9	n/a	SLOPE	1328	4	n/a	n/a	n/a	n/a	n/a	n/a
3938249	RECOG_RESP	n/a	LTP175	ltpFR	4	9	n/a	SLOPE	1328	n/a	n/a	n/a	n/a	n/a	n/a	n/a
3940440	RECOG_CONF	n/a	LTP175	ltpFR	4	9	n/a	SLOPE	1328	4	n/a	n/a	n/a	n/a	n/a	n/a
3942051	RECOG_TARGET	n/a	LTP175	ltpFR	4	9	1	PURSE	1145	5	0	n/a	n/a	n/a	n/a	n/a
3943070	RECOG_RESP	n/a	LTP175	ltpFR	4	9	1	PURSE	1145	n/a	0	n/a	n/a	n/a	n/a	n/a
3945279	RECOG_CONF	n/a	LTP175	ltpFR	4	9	1	PURSE	1145	5	0	n/a	n/a	n/a	n/a	n/a
3947066	RECOG_TARGET	n/a	LTP175	ltpFR	4	9	0	COPIER	377	5	1	n/a	n/a	n/a	n/a	n/a
3948405	RECOG_RESP	n/a	LTP175	ltpFR	4	9	0	COPIER	377	n/a	1	n/a	n/a	n/a	n/a	n/a
3949859	RECOG_CONF	n/a	LTP175	ltpFR	4	9	0	COPIER	377	5	1	n/a	n/a	n/a	n/a	n/a
3951690	RECOG_TARGET	n/a	LTP175	ltpFR	4	9	1	CORPORATION	382	5	1	n/a	n/a	n/a	n/a	n/a
3952780	RECOG_RESP	n/a	LTP175	ltpFR	4	9	1	CORPORATION	382	n/a	1	n/a	n/a	n/a	n/a	n/a
3954678	RECOG_CONF	n/a	LTP175	ltpFR	4	9	1	CORPORATION	382	5	1	n/a	n/a	n/a	n/a	n/a
3956588	RECOG_TARGET	n/a	LTP175	ltpFR	4	9	-1	SWATTER	1418	5	-1	n/a	n/a	n/a	n/a	n/a
3957515	RECOG_RESP	n/a	LTP175	ltpFR	4	9	-1	SWATTER	1418	n/a	-1	n/a	n/a	n/a	n/a	n/a
3959088	RECOG_CONF	n/a	LTP175	ltpFR	4	9	-1	SWATTER	1418	5	-1	n/a	n/a	n/a	n/a	n/a
3960861	RECOG_LURE	n/a	LTP175	ltpFR	4	9	n/a	LIP	828	1	n/a	n/a	n/a	n/a	n/a	n/a
3964827	RECOG_RESP	n/a	LTP175	ltpFR	4	9	n/a	LIP	828	n/a	n/a	n/a	n/a	n/a	n/a	n/a
3966761	RECOG_CONF	n/a	LTP175	ltpFR	4	9	n/a	LIP	828	1	n/a	n/a	n/a	n/a	n/a	n/a
3968542	RECOG_LURE	n/a	LTP175	ltpFR	4	9	n/a	CORN	381	4	n/a	n/a	n/a	n/a	n/a	n/a
3970143	RECOG_RESP	n/a	LTP175	ltpFR	4	9	n/a	CORN	381	n/a	n/a	n/a	n/a	n/a	n/a	n/a
3971659	RECOG_CONF	n/a	LTP175	ltpFR	4	9	n/a	CORN	381	4	n/a	n/a	n/a	n/a	n/a	n/a
3973240	RECOG_LURE	n/a	LTP175	ltpFR	4	9	n/a	MONGOOSE	909	5	n/a	n/a	n/a	n/a	n/a	n/a
3975144	RECOG_RESP	n/a	LTP175	ltpFR	4	9	n/a	MONGOOSE	909	n/a	n/a	n/a	n/a	n/a	n/a	n/a
3976488	RECOG_CONF	n/a	LTP175	ltpFR	4	9	n/a	MONGOOSE	909	5	n/a	n/a	n/a	n/a	n/a	n/a
3978013	RECOG_TARGET	n/a	LTP175	ltpFR	4	9	1	CABIN	211	2	0	n/a	n/a	n/a	n/a	n/a
3980422	RECOG_RESP	n/a	LTP175	ltpFR	4	9	1	CABIN	211	n/a	0	n/a	n/a	n/a	n/a	n/a
3981837	RECOG_CONF	n/a	LTP175	ltpFR	4	9	1	CABIN	211	2	0	n/a	n/a	n/a	n/a	n/a
3983570	RECOG_LURE	n/a	LTP175	ltpFR	4	9	n/a	FAIRY	549	5	n/a	n/a	n/a	n/a	n/a	n/a
3984724	RECOG_RESP	n/a	LTP175	ltpFR	4	9	n/a	FAIRY	549	n/a	n/a	n/a	n/a	n/a	n/a	n/a
3986067	RECOG_CONF	n/a	LTP175	ltpFR	4	9	n/a	FAIRY	549	5	n/a	n/a	n/a	n/a	n/a	n/a
3987661	RECOG_TARGET	n/a	LTP175	ltpFR	4	9	-1	FARMER	553	5	-1	n/a	n/a	n/a	n/a	n/a
3988747	RECOG_RESP	n/a	LTP175	ltpFR	4	9	-1	FARMER	553	n/a	-1	n/a	n/a	n/a	n/a	n/a
3990187	RECOG_CONF	n/a	LTP175	ltpFR	4	9	-1	FARMER	553	5	-1	n/a	n/a	n/a	n/a	n/a
3992108	RECOG_LURE	n/a	LTP175	ltpFR	4	9	n/a	COOLER	375	5	n/a	n/a	n/a	n/a	n/a	n/a
3993294	RECOG_RESP	n/a	LTP175	ltpFR	4	9	n/a	COOLER	375	n/a	n/a	n/a	n/a	n/a	n/a	n/a
3994737	RECOG_CONF	n/a	LTP175	ltpFR	4	9	n/a	COOLER	375	5	n/a	n/a	n/a	n/a	n/a	n/a
3996408	RECOG_TARGET	n/a	LTP175	ltpFR	4	9	1	ANIMAL	23	5	1	n/a	n/a	n/a	n/a	n/a
3997753	RECOG_RESP	n/a	LTP175	ltpFR	4	9	1	ANIMAL	23	n/a	1	n/a	n/a	n/a	n/a	n/a
3999945	RECOG_CONF	n/a	LTP175	ltpFR	4	9	1	ANIMAL	23	5	1	n/a	n/a	n/a	n/a	n/a
4001547	RECOG_TARGET	n/a	LTP175	ltpFR	4	9	0	AUTOMOBILE	62	5	1	n/a	n/a	n/a	n/a	n/a
4002688	RECOG_RESP	n/a	LTP175	ltpFR	4	9	0	AUTOMOBILE	62	n/a	1	n/a	n/a	n/a	n/a	n/a
4004116	RECOG_CONF	n/a	LTP175	ltpFR	4	9	0	AUTOMOBILE	62	5	1	n/a	n/a	n/a	n/a	n/a
4005911	RECOG_TARGET	n/a	LTP175	ltpFR	4	9	1	TOMATO	1476	5	0	n/a	n/a	n/a	n/a	n/a
4006877	RECOG_RESP	n/a	LTP175	ltpFR	4	9	1	TOMATO	1476	n/a	0	n/a	n/a	n/a	n/a	n/a
4008266	RECOG_CONF	n/a	LTP175	ltpFR	4	9	1	TOMATO	1476	5	0	n/a	n/a	n/a	n/a	n/a
4009927	RECOG_LURE	n/a	LTP175	ltpFR	4	9	n/a	ELEPHANT	523	5	n/a	n/a	n/a	n/a	n/a	n/a
4011192	RECOG_RESP	n/a	LTP175	ltpFR	4	9	n/a	ELEPHANT	523	n/a	n/a	n/a	n/a	n/a	n/a	n/a
4012756	RECOG_CONF	n/a	LTP175	ltpFR	4	9	n/a	ELEPHANT	523	5	n/a	n/a	n/a	n/a	n/a	n/a
4014317	RECOG_TARGET	n/a	LTP175	ltpFR	4	9	0	ROBIN	1199	5	1	n/a	n/a	n/a	n/a	n/a
4015428	RECOG_RESP	n/a	LTP175	ltpFR	4	9	0	ROBIN	1199	n/a	1	n/a	n/a	n/a	n/a	n/a
