mstime	trial_type	stim_file	subject	experiment	session	trial	task	item_name	item_num	recog_resp	recog_conf	resp	color_r	color_g	color_b	case	font
0	SESS_START	n/a	LTP220	ltpFR	0	n/a	n/a	n/a	n/a	1	n/a	n/a	n/a	n/a	n/a	n/a	n/a
648706	WORD	wordpools/wasnorm_wordpool_less_exclusions.txt	LTP220	ltpFR	0	1	-1	BRUNETTE	181	1	5	-1	1.0	1.0	1	upper	Verdana.ttf
652872	WORD	wordpools/wasnorm_wordpool_less_exclusions.txt	LTP220	ltpFR	0	1	-1	GRAVEL	659	n/a	n/a	-1	1.0	1.0	1	upper	Verdana.ttf
657036	WORD	wordpools/wasnorm_wordpool_less_exclusions.txt	LTP220	ltpFR	0	1	-1	ROAD	1196	n/a	n/a	-1	1.0	1.0	1	upper	Verdana.ttf
661152	WORD	wordpools/wasnorm_wordpool_less_exclusions.txt	LTP220	ltpFR	0	1	-1	DUMP	505	n/a	n/a	-1	1.0	1.0	1	upper	Verdana.ttf
665107	WORD	wordpools/wasnorm_wordpool_less_exclusions.txt	LTP220	ltpFR	0	1	-1	WORKER	1621	n/a	n/a	-1	1.0	1.0	1	upper	Verdana.ttf
669172	WORD	wordpools/wasnorm_wordpool_less_exclusions.txt	LTP220	ltpFR	0	1	-1	BULB	192	n/a	n/a	-1	1.0	1.0	1	upper	Verdana.ttf
673121	WORD	wordpools/wasnorm_wordpool_less_exclusions.txt	LTP220	ltpFR	0	1	-1	NUT	965	n/a	n/a	-1	1.0	1.0	1	upper	Verdana.ttf
676969	WORD	wordpools/wasnorm_wordpool_less_exclusions.txt	LTP220	ltpFR	0	1	-1	POND	1101	n/a	n/a	-1	1.0	1.0	1	upper	Verdana.ttf
680861	WORD	wordpools/wasnorm_wordpool_less_exclusions.txt	LTP220	ltpFR	0	1	-1	TIDE	1465	n/a	n/a	-1	1.0	1.0	1	upper	Verdana.ttf
684826	WORD	wordpools/wasnorm_wordpool_less_exclusions.txt	LTP220	ltpFR	0	1	-1	OBOE	969	n/a	n/a	-1	1.0	1.0	1	upper	Verdana.ttf
688874	WORD	wordpools/wasnorm_wordpool_less_exclusions.txt	LTP220	ltpFR	0	1	-1	BANJO	82	n/a	n/a	-1	1.0	1.0	1	upper	Verdana.ttf
693089	WORD	wordpools/wasnorm_wordpool_less_exclusions.txt	LTP220	ltpFR	0	1	-1	HAMPER	682	n/a	n/a	-1	1.0	1.0	1	upper	Verdana.ttf
697195	WORD	wordpools/wasnorm_wordpool_less_exclusions.txt	LTP220	ltpFR	0	1	-1	HARE	688	n/a	n/a	-1	1.0	1.0	1	upper	Verdana.ttf
701311	WORD	wordpools/wasnorm_wordpool_less_exclusions.txt	LTP220	ltpFR	0	1	-1	BUILDING	191	n/a	n/a	-1	1.0	1.0	1	upper	Verdana.ttf
705503	WORD	wordpools/wasnorm_wordpool_less_exclusions.txt	LTP220	ltpFR	0	1	-1	DESIGNER	451	n/a	n/a	-1	1.0	1.0	1	upper	Verdana.ttf
709401	WORD	wordpools/wasnorm_wordpool_less_exclusions.txt	LTP220	ltpFR	0	1	-1	BANDANNA	80	n/a	n/a	-1	1.0	1.0	1	upper	Verdana.ttf
715482	REC_START	n/a	LTP220	ltpFR	0	1	n/a	n/a	n/a	n/a	n/a	n/a	n/a	n/a	n/a	n/a	n/a
717158	REC_WORD	wordpools/wasnorm_wordpool_less_exclusions.txt	LTP220	ltpFR	0	1	-1	GRAVEL	659	n/a	n/a	-1	n/a	n/a	n/a	n/a	n/a
717911	REC_WORD	wordpools/wasnorm_wordpool_less_exclusions.txt	LTP220	ltpFR	0	1	-1	ROAD	1196	n/a	n/a	-1	n/a	n/a	n/a	n/a	n/a
719134	REC_WORD	wordpools/wasnorm_wordpool_less_exclusions.txt	LTP220	ltpFR	0	1	n/a	BUILDER	190	n/a	n/a	n/a	n/a	n/a	n/a	n/a	n/a
720131	REC_WORD	wordpools/wasnorm_wordpool_less_exclusions.txt	LTP220	ltpFR	0	1	n/a	DESIGN	-1	n/a	n/a	n/a	n/a	n/a	n/a	n/a	n/a
721159	REC_WORD	wordpools/wasnorm_wordpool_less_exclusions.txt	LTP220	ltpFR	0	1	-1	BRUNETTE	181	n/a	n/a	-1	n/a	n/a	n/a	n/a	n/a
728101	REC_WORD	wordpools/wasnorm_wordpool_less_exclusions.txt	LTP220	ltpFR	0	1	-1	HARE	688	n/a	n/a	-1	n/a	n/a	n/a	n/a	n/a
738759	REC_WORD	wordpools/wasnorm_wordpool_less_exclusions.txt	LTP220	ltpFR	0	1	-1	POND	1101	n/a	n/a	-1	n/a	n/a	n/a	n/a	n/a
742199	REC_WORD	wordpools/wasnorm_wordpool_less_exclusions.txt	LTP220	ltpFR	0	1	n/a	WAVE	1596	n/a	n/a	n/a	n/a	n/a	n/a	n/a	n/a
746776	REC_WORD	wordpools/wasnorm_wordpool_less_exclusions.txt	LTP220	ltpFR	0	1	-1	TIDE	1465	n/a	n/a	-1	n/a	n/a	n/a	n/a	n/a
754473	REC_WORD	wordpools/wasnorm_wordpool_less_exclusions.txt	LTP220	ltpFR	0	1	-1	NUT	965	n/a	n/a	-1	n/a	n/a	n/a	n/a	n/a
763523	REC_WORD	wordpools/wasnorm_wordpool_less_exclusions.txt	LTP220	ltpFR	0	1	-1	BUILDING	191	n/a	n/a	-1	n/a	n/a	n/a	n/a	n/a
803296	WORD	wordpools/wasnorm_wordpool_less_exclusions.txt	LTP220	ltpFR	0	2	-1	PRUNE	1134	n/a	n/a	-1	1.0	1.0	1	upper	Verdana.ttf
807261	WORD	wordpools/wasnorm_wordpool_less_exclusions.txt	LTP220	ltpFR	0	2	-1	SAPPHIRE	1234	n/a	n/a	-1	1.0	1.0	1	upper	Verdana.ttf
811426	WORD	wordpools/wasnorm_wordpool_less_exclusions.txt	LTP220	ltpFR	0	2	-1	TOWER	1490	n/a	n/a	-1	1.0	1.0	1	upper	Verdana.ttf
815618	WORD	wordpools/wasnorm_wordpool_less_exclusions.txt	LTP220	ltpFR	0	2	-1	COUSIN	392	n/a	n/a	-1	1.0	1.0	1	upper	Verdana.ttf
819700	WORD	wordpools/wasnorm_wordpool_less_exclusions.txt	LTP220	ltpFR	0	2	-1	FLIPPER	580	n/a	n/a	-1	1.0	1.0	1	upper	Verdana.ttf
823907	WORD	wordpools/wasnorm_wordpool_less_exclusions.txt	LTP220	ltpFR	0	2	-1	CABINET	212	n/a	n/a	-1	1.0	1.0	1	upper	Verdana.ttf
828131	WORD	wordpools/wasnorm_wordpool_less_exclusions.txt	LTP220	ltpFR	0	2	-1	GANG	619	n/a	n/a	-1	1.0	1.0	1	upper	Verdana.ttf
832264	WORD	wordpools/wasnorm_wordpool_less_exclusions.txt	LTP220	ltpFR	0	2	-1	COMMITTEE	355	n/a	n/a	-1	1.0	1.0	1	upper	Verdana.ttf
836280	WORD	wordpools/wasnorm_wordpool_less_exclusions.txt	LTP220	ltpFR	0	2	-1	RACCOON	1153	n/a	n/a	-1	1.0	1.0	1	upper	Verdana.ttf
840261	WORD	wordpools/wasnorm_wordpool_less_exclusions.txt	LTP220	ltpFR	0	2	-1	COPIER	377	n/a	n/a	-1	1.0	1.0	1	upper	Verdana.ttf
844300	WORD	wordpools/wasnorm_wordpool_less_exclusions.txt	LTP220	ltpFR	0	2	-1	SNEAKER	1334	n/a	n/a	-1	1.0	1.0	1	upper	Verdana.ttf
848492	WORD	wordpools/wasnorm_wordpool_less_exclusions.txt	LTP220	ltpFR	0	2	-1	TURNIP	1521	n/a	n/a	-1	1.0	1.0	1	upper	Verdana.ttf
852397	WORD	wordpools/wasnorm_wordpool_less_exclusions.txt	LTP220	ltpFR	0	2	-1	SPINACH	1352	n/a	n/a	-1	1.0	1.0	1	upper	Verdana.ttf
856396	WORD	wordpools/wasnorm_wordpool_less_exclusions.txt	LTP220	ltpFR	0	2	-1	DRILL	497	n/a	n/a	-1	1.0	1.0	1	upper	Verdana.ttf
860327	WORD	wordpools/wasnorm_wordpool_less_exclusions.txt	LTP220	ltpFR	0	2	-1	NIECE	952	n/a	n/a	-1	1.0	1.0	1	upper	Verdana.ttf
864326	WORD	wordpools/wasnorm_wordpool_less_exclusions.txt	LTP220	ltpFR	0	2	-1	GRAPE	654	n/a	n/a	-1	1.0	1.0	1	upper	Verdana.ttf
870455	REC_START	n/a	LTP220	ltpFR	0	2	n/a	n/a	n/a	n/a	n/a	n/a	n/a	n/a	n/a	n/a	n/a
872051	REC_WORD	wordpools/wasnorm_wordpool_less_exclusions.txt	LTP220	ltpFR	0	2	-1	GRAPE	654	n/a	n/a	-1	n/a	n/a	n/a	n/a	n/a
873543	REC_WORD	wordpools/wasnorm_wordpool_less_exclusions.txt	LTP220	ltpFR	0	2	-1	NIECE	952	n/a	n/a	-1	n/a	n/a	n/a	n/a	n/a
874521	REC_WORD	wordpools/wasnorm_wordpool_less_exclusions.txt	LTP220	ltpFR	0	2	-1	COUSIN	392	n/a	n/a	-1	n/a	n/a	n/a	n/a	n/a
876676	REC_WORD	wordpools/wasnorm_wordpool_less_exclusions.txt	LTP220	ltpFR	0	2	-1	TURNIP	1521	n/a	n/a	-1	n/a	n/a	n/a	n/a	n/a
879950	REC_WORD_VV	wordpools/wasnorm_wordpool_less_exclusions.txt	LTP220	ltpFR	0	2	n/a	<>	-1	n/a	n/a	n/a	n/a	n/a	n/a	n/a	n/a
880972	REC_WORD_VV	wordpools/wasnorm_wordpool_less_exclusions.txt	LTP220	ltpFR	0	2	n/a	<>	-1	n/a	n/a	n/a	n/a	n/a	n/a	n/a	n/a
887596	REC_WORD	wordpools/wasnorm_wordpool_less_exclusions.txt	LTP220	ltpFR	0	2	-1	DRILL	497	n/a	n/a	-1	n/a	n/a	n/a	n/a	n/a
939842	REC_WORD	wordpools/wasnorm_wordpool_less_exclusions.txt	LTP220	ltpFR	0	2	-1	RACCOON	1153	n/a	n/a	-1	n/a	n/a	n/a	n/a	n/a
955980	WORD	wordpools/wasnorm_wordpool_less_exclusions.txt	LTP220	ltpFR	0	3	-1	DESK	452	n/a	n/a	-1	1.0	1.0	1	upper	Verdana.ttf
960078	WORD	wordpools/wasnorm_wordpool_less_exclusions.txt	LTP220	ltpFR	0	3	-1	OUTLAW	989	n/a	n/a	-1	1.0	1.0	1	upper	Verdana.ttf
963911	WORD	wordpools/wasnorm_wordpool_less_exclusions.txt	LTP220	ltpFR	0	3	-1	DUNGEON	507	n/a	n/a	-1	1.0	1.0	1	upper	Verdana.ttf
967799	WORD	wordpools/wasnorm_wordpool_less_exclusions.txt	LTP220	ltpFR	0	3	-1	ZIPPER	1636	n/a	n/a	-1	1.0	1.0	1	upper	Verdana.ttf
971680	WORD	wordpools/wasnorm_wordpool_less_exclusions.txt	LTP220	ltpFR	0	3	-1	TIE	1466	n/a	n/a	-1	1.0	1.0	1	upper	Verdana.ttf
975789	WORD	wordpools/wasnorm_wordpool_less_exclusions.txt	LTP220	ltpFR	0	3	-1	CROWN	415	n/a	n/a	-1	1.0	1.0	1	upper	Verdana.ttf
979670	WORD	wordpools/wasnorm_wordpool_less_exclusions.txt	LTP220	ltpFR	0	3	-1	QUEEN	1149	n/a	n/a	-1	1.0	1.0	1	upper	Verdana.ttf
983802	WORD	wordpools/wasnorm_wordpool_less_exclusions.txt	LTP220	ltpFR	0	3	-1	ANCHOR	21	n/a	n/a	-1	1.0	1.0	1	upper	Verdana.ttf
987657	WORD	wordpools/wasnorm_wordpool_less_exclusions.txt	LTP220	ltpFR	0	3	-1	NAPKIN	937	n/a	n/a	-1	1.0	1.0	1	upper	Verdana.ttf
991715	WORD	wordpools/wasnorm_wordpool_less_exclusions.txt	LTP220	ltpFR	0	3	-1	HELICOPTER	701	n/a	n/a	-1	1.0	1.0	1	upper	Verdana.ttf
995788	WORD	wordpools/wasnorm_wordpool_less_exclusions.txt	LTP220	ltpFR	0	3	-1	CYLINDER	432	n/a	n/a	-1	1.0	1.0	1	upper	Verdana.ttf
999946	WORD	wordpools/wasnorm_wordpool_less_exclusions.txt	LTP220	ltpFR	0	3	-1	TROUSERS	1510	n/a	n/a	-1	1.0	1.0	1	upper	Verdana.ttf
1003785	WORD	wordpools/wasnorm_wordpool_less_exclusions.txt	LTP220	ltpFR	0	3	-1	WINGS	1614	n/a	n/a	-1	1.0	1.0	1	upper	Verdana.ttf
1007917	WORD	wordpools/wasnorm_wordpool_less_exclusions.txt	LTP220	ltpFR	0	3	-1	PATIO	1025	n/a	n/a	-1	1.0	1.0	1	upper	Verdana.ttf
1012081	WORD	wordpools/wasnorm_wordpool_less_exclusions.txt	LTP220	ltpFR	0	3	-1	STEW	1380	n/a	n/a	-1	1.0	1.0	1	upper	Verdana.ttf
1016013	WORD	wordpools/wasnorm_wordpool_less_exclusions.txt	LTP220	ltpFR	0	3	-1	SPATULA	1348	n/a	n/a	-1	1.0	1.0	1	upper	Verdana.ttf
1021954	REC_START	n/a	LTP220	ltpFR	0	3	n/a	n/a	n/a	n/a	n/a	n/a	n/a	n/a	n/a	n/a	n/a
1023371	REC_WORD	wordpools/wasnorm_wordpool_less_exclusions.txt	LTP220	ltpFR	0	3	-1	SPATULA	1348	n/a	n/a	-1	n/a	n/a	n/a	n/a	n/a
1024431	REC_WORD	wordpools/wasnorm_wordpool_less_exclusions.txt	LTP220	ltpFR	0	3	-1	STEW	1380	n/a	n/a	-1	n/a	n/a	n/a	n/a	n/a
1025551	REC_WORD	wordpools/wasnorm_wordpool_less_exclusions.txt	LTP220	ltpFR	0	3	-1	PATIO	1025	n/a	n/a	-1	n/a	n/a	n/a	n/a	n/a
1026546	REC_WORD_VV	wordpools/wasnorm_wordpool_less_exclusions.txt	LTP220	ltpFR	0	3	n/a	<>	-1	n/a	n/a	n/a	n/a	n/a	n/a	n/a	n/a
1026967	REC_WORD	wordpools/wasnorm_wordpool_less_exclusions.txt	LTP220	ltpFR	0	3	-1	WINGS	1614	n/a	n/a	-1	n/a	n/a	n/a	n/a	n/a
1027880	REC_WORD	wordpools/wasnorm_wordpool_less_exclusions.txt	LTP220	ltpFR	0	3	-1	TROUSERS	1510	n/a	n/a	-1	n/a	n/a	n/a	n/a	n/a
1028889	REC_WORD_VV	wordpools/wasnorm_wordpool_less_exclusions.txt	LTP220	ltpFR	0	3	n/a	<>	-1	n/a	n/a	n/a	n/a	n/a	n/a	n/a	n/a
1030023	REC_WORD	wordpools/wasnorm_wordpool_less_exclusions.txt	LTP220	ltpFR	0	3	-1	ZIPPER	1636	n/a	n/a	-1	n/a	n/a	n/a	n/a	n/a
1031028	REC_WORD_VV	wordpools/wasnorm_wordpool_less_exclusions.txt	LTP220	ltpFR	0	3	n/a	<>	-1	n/a	n/a	n/a	n/a	n/a	n/a	n/a	n/a
1032668	REC_WORD_VV	wordpools/wasnorm_wordpool_less_exclusions.txt	LTP220	ltpFR	0	3	n/a	<>	-1	n/a	n/a	n/a	n/a	n/a	n/a	n/a	n/a
1033681	REC_WORD_VV	wordpools/wasnorm_wordpool_less_exclusions.txt	LTP220	ltpFR	0	3	n/a	<>	-1	n/a	n/a	n/a	n/a	n/a	n/a	n/a	n/a
1060202	REC_WORD	wordpools/wasnorm_wordpool_less_exclusions.txt	LTP220	ltpFR	0	3	-1	NAPKIN	937	n/a	n/a	-1	n/a	n/a	n/a	n/a	n/a
1075367	REC_WORD	wordpools/wasnorm_wordpool_less_exclusions.txt	LTP220	ltpFR	0	3	-1	COUSIN	392	n/a	n/a	-1	n/a	n/a	n/a	n/a	n/a
1076262	REC_WORD	wordpools/wasnorm_wordpool_less_exclusions.txt	LTP220	ltpFR	0	3	-1	NIECE	952	n/a	n/a	-1	n/a	n/a	n/a	n/a	n/a
1141881	WORD	wordpools/wasnorm_wordpool_less_exclusions.txt	LTP220	ltpFR	0	4	-1	PLIERS	1089	n/a	n/a	-1	1.0	1.0	1	upper	Verdana.ttf
1145803	WORD	wordpools/wasnorm_wordpool_less_exclusions.txt	LTP220	ltpFR	0	4	-1	JOURNAL	760	n/a	n/a	-1	1.0	1.0	1	upper	Verdana.ttf
1149751	WORD	wordpools/wasnorm_wordpool_less_exclusions.txt	LTP220	ltpFR	0	4	-1	FIELD	562	n/a	n/a	-1	1.0	1.0	1	upper	Verdana.ttf
1153633	WORD	wordpools/wasnorm_wordpool_less_exclusions.txt	LTP220	ltpFR	0	4	-1	SAILOR	1223	n/a	n/a	-1	1.0	1.0	1	upper	Verdana.ttf
1157631	WORD	wordpools/wasnorm_wordpool_less_exclusions.txt	LTP220	ltpFR	0	4	-1	DECK	443	n/a	n/a	-1	1.0	1.0	1	upper	Verdana.ttf
1161546	WORD	wordpools/wasnorm_wordpool_less_exclusions.txt	LTP220	ltpFR	0	4	-1	BARK	87	n/a	n/a	-1	1.0	1.0	1	upper	Verdana.ttf
1165494	WORD	wordpools/wasnorm_wordpool_less_exclusions.txt	LTP220	ltpFR	0	4	-1	FOX	598	n/a	n/a	-1	1.0	1.0	1	upper	Verdana.ttf
1169452	WORD	wordpools/wasnorm_wordpool_less_exclusions.txt	LTP220	ltpFR	0	4	-1	LITERATURE	831	n/a	n/a	-1	1.0	1.0	1	upper	Verdana.ttf
1173524	WORD	wordpools/wasnorm_wordpool_less_exclusions.txt	LTP220	ltpFR	0	4	-1	MOTOR	922	n/a	n/a	-1	1.0	1.0	1	upper	Verdana.ttf
1177650	WORD	wordpools/wasnorm_wordpool_less_exclusions.txt	LTP220	ltpFR	0	4	-1	MACHINE	852	n/a	n/a	-1	1.0	1.0	1	upper	Verdana.ttf
1181856	WORD	wordpools/wasnorm_wordpool_less_exclusions.txt	LTP220	ltpFR	0	4	-1	CUSTOMER	430	n/a	n/a	-1	1.0	1.0	1	upper	Verdana.ttf
1185871	WORD	wordpools/wasnorm_wordpool_less_exclusions.txt	LTP220	ltpFR	0	4	-1	CASHIER	254	n/a	n/a	-1	1.0	1.0	1	upper	Verdana.ttf
1189819	WORD	wordpools/wasnorm_wordpool_less_exclusions.txt	LTP220	ltpFR	0	4	-1	WHEAT	1602	n/a	n/a	-1	1.0	1.0	1	upper	Verdana.ttf
1193911	WORD	wordpools/wasnorm_wordpool_less_exclusions.txt	LTP220	ltpFR	0	4	-1	BARRACUDA	90	n/a	n/a	-1	1.0	1.0	1	upper	Verdana.ttf
1198049	WORD	wordpools/wasnorm_wordpool_less_exclusions.txt	LTP220	ltpFR	0	4	-1	WEB	1598	n/a	n/a	-1	1.0	1.0	1	upper	Verdana.ttf
1202198	WORD	wordpools/wasnorm_wordpool_less_exclusions.txt	LTP220	ltpFR	0	4	-1	BEAVER	109	n/a	n/a	-1	1.0	1.0	1	upper	Verdana.ttf
1207914	REC_START	n/a	LTP220	ltpFR	0	4	n/a	n/a	n/a	n/a	n/a	n/a	n/a	n/a	n/a	n/a	n/a
1209450	REC_WORD	wordpools/wasnorm_wordpool_less_exclusions.txt	LTP220	ltpFR	0	4	-1	BEAVER	109	n/a	n/a	-1	n/a	n/a	n/a	n/a	n/a
1210702	REC_WORD	wordpools/wasnorm_wordpool_less_exclusions.txt	LTP220	ltpFR	0	4	-1	WEB	1598	n/a	n/a	-1	n/a	n/a	n/a	n/a	n/a
1211795	REC_WORD	wordpools/wasnorm_wordpool_less_exclusions.txt	LTP220	ltpFR	0	4	-1	BARRACUDA	90	n/a	n/a	-1	n/a	n/a	n/a	n/a	n/a
1212928	REC_WORD	wordpools/wasnorm_wordpool_less_exclusions.txt	LTP220	ltpFR	0	4	-1	SAILOR	1223	n/a	n/a	-1	n/a	n/a	n/a	n/a	n/a
1215485	REC_WORD	wordpools/wasnorm_wordpool_less_exclusions.txt	LTP220	ltpFR	0	4	-1	DECK	443	n/a	n/a	-1	n/a	n/a	n/a	n/a	n/a
1221660	REC_WORD	wordpools/wasnorm_wordpool_less_exclusions.txt	LTP220	ltpFR	0	4	-1	MOTOR	922	n/a	n/a	-1	n/a	n/a	n/a	n/a	n/a
1222132	REC_WORD	wordpools/wasnorm_wordpool_less_exclusions.txt	LTP220	ltpFR	0	4	-1	MACHINE	852	n/a	n/a	-1	n/a	n/a	n/a	n/a	n/a
1229959	REC_WORD	wordpools/wasnorm_wordpool_less_exclusions.txt	LTP220	ltpFR	0	4	-1	WHEAT	1602	n/a	n/a	-1	n/a	n/a	n/a	n/a	n/a
1236244	REC_WORD	wordpools/wasnorm_wordpool_less_exclusions.txt	LTP220	ltpFR	0	4	-1	BARK	87	n/a	n/a	-1	n/a	n/a	n/a	n/a	n/a
1237302	REC_WORD	wordpools/wasnorm_wordpool_less_exclusions.txt	LTP220	ltpFR	0	4	-1	FOX	598	n/a	n/a	-1	n/a	n/a	n/a	n/a	n/a
1797944	WORD	wordpools/wasnorm_wordpool_less_exclusions.txt	LTP220	ltpFR	0	5	0	LIVER	833	n/a	n/a	n/a	0.57763671875	0.412841796875	1	lower	amplitud.ttf
1800988	SLOW_MSG	n/a	LTP220	ltpFR	0	5	n/a	n/a	n/a	n/a	n/a	n/a	n/a	n/a	n/a	n/a	n/a
1803716	WORD	wordpools/wasnorm_wordpool_less_exclusions.txt	LTP220	ltpFR	0	5	0	SEAGULL	1261	n/a	n/a	0	0.57763671875	0.412841796875	1	lower	amplitud.ttf
1807858	WORD	wordpools/wasnorm_wordpool_less_exclusions.txt	LTP220	ltpFR	0	5	0	LUMBER	848	n/a	n/a	2	0.57763671875	0.412841796875	1	lower	amplitud.ttf
1810241	KEY_MSG	n/a	LTP220	ltpFR	0	5	n/a	n/a	n/a	n/a	n/a	n/a	n/a	n/a	n/a	n/a	n/a
1812843	WORD	wordpools/wasnorm_wordpool_less_exclusions.txt	LTP220	ltpFR	0	5	0	DART	440	n/a	n/a	n/a	0.57763671875	0.412841796875	1	lower	amplitud.ttf
1815895	SLOW_MSG	n/a	LTP220	ltpFR	0	5	n/a	n/a	n/a	n/a	n/a	n/a	n/a	n/a	n/a	n/a	n/a
1818355	WORD	wordpools/wasnorm_wordpool_less_exclusions.txt	LTP220	ltpFR	0	5	0	FIST	572	n/a	n/a	1	0.57763671875	0.412841796875	1	lower	amplitud.ttf
1822303	WORD	wordpools/wasnorm_wordpool_less_exclusions.txt	LTP220	ltpFR	0	5	0	BERRY	122	n/a	n/a	n/a	0.57763671875	0.412841796875	1	lower	amplitud.ttf
1825348	SLOW_MSG	n/a	LTP220	ltpFR	0	5	n/a	n/a	n/a	n/a	n/a	n/a	n/a	n/a	n/a	n/a	n/a
1828090	WORD	wordpools/wasnorm_wordpool_less_exclusions.txt	LTP220	ltpFR	0	5	0	TANGERINE	1431	n/a	n/a	3	0.57763671875	0.412841796875	1	lower	amplitud.ttf
1830198	KEY_MSG	n/a	LTP220	ltpFR	0	5	n/a	n/a	n/a	n/a	n/a	n/a	n/a	n/a	n/a	n/a	n/a
1832926	WORD	wordpools/wasnorm_wordpool_less_exclusions.txt	LTP220	ltpFR	0	5	0	BULLY	196	n/a	n/a	n/a	0.57763671875	0.412841796875	1	lower	amplitud.ttf
1835971	SLOW_MSG	n/a	LTP220	ltpFR	0	5	n/a	n/a	n/a	n/a	n/a	n/a	n/a	n/a	n/a	n/a	n/a
1838423	WORD	wordpools/wasnorm_wordpool_less_exclusions.txt	LTP220	ltpFR	0	5	0	RIB	1188	n/a	n/a	1	0.57763671875	0.412841796875	1	lower	amplitud.ttf
1842311	WORD	wordpools/wasnorm_wordpool_less_exclusions.txt	LTP220	ltpFR	0	5	0	CAKE	219	n/a	n/a	0	0.57763671875	0.412841796875	1	lower	amplitud.ttf
1846410	WORD	wordpools/wasnorm_wordpool_less_exclusions.txt	LTP220	ltpFR	0	5	0	BIRD	129	n/a	n/a	0	0.57763671875	0.412841796875	1	lower	amplitud.ttf
1850418	WORD	wordpools/wasnorm_wordpool_less_exclusions.txt	LTP220	ltpFR	0	5	0	FIREMAN	569	n/a	n/a	3	0.57763671875	0.412841796875	1	lower	amplitud.ttf
1851546	KEY_MSG	n/a	LTP220	ltpFR	0	5	n/a	n/a	n/a	n/a	n/a	n/a	n/a	n/a	n/a	n/a	n/a
1854434	WORD	wordpools/wasnorm_wordpool_less_exclusions.txt	LTP220	ltpFR	0	5	0	COUCH	386	n/a	n/a	1	0.57763671875	0.412841796875	1	lower	amplitud.ttf
1858566	WORD	wordpools/wasnorm_wordpool_less_exclusions.txt	LTP220	ltpFR	0	5	0	CHAIN	273	n/a	n/a	0	0.57763671875	0.412841796875	1	lower	amplitud.ttf
1862621	WORD	wordpools/wasnorm_wordpool_less_exclusions.txt	LTP220	ltpFR	0	5	0	PEARL	1034	n/a	n/a	0	0.57763671875	0.412841796875	1	lower	amplitud.ttf
1866687	WORD	wordpools/wasnorm_wordpool_less_exclusions.txt	LTP220	ltpFR	0	5	0	SIGN	1305	n/a	n/a	n/a	0.57763671875	0.412841796875	1	lower	amplitud.ttf
1869731	SLOW_MSG	n/a	LTP220	ltpFR	0	5	n/a	n/a	n/a	n/a	n/a	n/a	n/a	n/a	n/a	n/a	n/a
1874283	REC_START	n/a	LTP220	ltpFR	0	5	n/a	n/a	n/a	n/a	n/a	n/a	n/a	n/a	n/a	n/a	n/a
1884006	REC_WORD_VV	wordpools/wasnorm_wordpool_less_exclusions.txt	LTP220	ltpFR	0	5	n/a	<>	-1	n/a	n/a	n/a	n/a	n/a	n/a	n/a	n/a
1885021	REC_WORD_VV	wordpools/wasnorm_wordpool_less_exclusions.txt	LTP220	ltpFR	0	5	n/a	<>	-1	n/a	n/a	n/a	n/a	n/a	n/a	n/a	n/a
1886043	REC_WORD_VV	wordpools/wasnorm_wordpool_less_exclusions.txt	LTP220	ltpFR	0	5	n/a	<>	-1	n/a	n/a	n/a	n/a	n/a	n/a	n/a	n/a
1886859	REC_WORD_VV	wordpools/wasnorm_wordpool_less_exclusions.txt	LTP220	ltpFR	0	5	n/a	<>	-1	n/a	n/a	n/a	n/a	n/a	n/a	n/a	n/a
1889763	REC_WORD	wordpools/wasnorm_wordpool_less_exclusions.txt	LTP220	ltpFR	0	5	0	PEARL	1034	n/a	n/a	0	n/a	n/a	n/a	n/a	n/a
1891054	REC_WORD	wordpools/wasnorm_wordpool_less_exclusions.txt	LTP220	ltpFR	0	5	0	RIB	1188	n/a	n/a	1	n/a	n/a	n/a	n/a	n/a
1903506	REC_WORD	wordpools/wasnorm_wordpool_less_exclusions.txt	LTP220	ltpFR	0	5	0	FIST	572	n/a	n/a	1	n/a	n/a	n/a	n/a	n/a
1904968	REC_WORD	wordpools/wasnorm_wordpool_less_exclusions.txt	LTP220	ltpFR	0	5	0	CHAIN	273	n/a	n/a	0	n/a	n/a	n/a	n/a	n/a
1906704	REC_WORD	wordpools/wasnorm_wordpool_less_exclusions.txt	LTP220	ltpFR	0	5	0	BULLY	196	n/a	n/a	n/a	n/a	n/a	n/a	n/a	n/a
1908315	REC_WORD	wordpools/wasnorm_wordpool_less_exclusions.txt	LTP220	ltpFR	0	5	0	CAKE	219	n/a	n/a	0	n/a	n/a	n/a	n/a	n/a
1911239	REC_WORD	wordpools/wasnorm_wordpool_less_exclusions.txt	LTP220	ltpFR	0	5	0	LIVER	833	n/a	n/a	n/a	n/a	n/a	n/a	n/a	n/a
1921700	REC_WORD	wordpools/wasnorm_wordpool_less_exclusions.txt	LTP220	ltpFR	0	5	0	SEAGULL	1261	n/a	n/a	0	n/a	n/a	n/a	n/a	n/a
1924394	REC_WORD	wordpools/wasnorm_wordpool_less_exclusions.txt	LTP220	ltpFR	0	5	0	BIRD	129	n/a	n/a	0	n/a	n/a	n/a	n/a	n/a
1946913	REC_WORD	wordpools/wasnorm_wordpool_less_exclusions.txt	LTP220	ltpFR	0	5	0	COUCH	386	n/a	n/a	1	n/a	n/a	n/a	n/a	n/a
1978843	WORD	wordpools/wasnorm_wordpool_less_exclusions.txt	LTP220	ltpFR	0	6	0	HOME	712	n/a	n/a	1	0.57763671875	0.412841796875	1	lower	amplitud.ttf
1982875	WORD	wordpools/wasnorm_wordpool_less_exclusions.txt	LTP220	ltpFR	0	6	0	FRECKLE	602	n/a	n/a	0	0.57763671875	0.412841796875	1	lower	amplitud.ttf
1986699	WORD	wordpools/wasnorm_wordpool_less_exclusions.txt	LTP220	ltpFR	0	6	0	FACE	547	n/a	n/a	0	0.57763671875	0.412841796875	1	lower	amplitud.ttf
1990570	WORD	wordpools/wasnorm_wordpool_less_exclusions.txt	LTP220	ltpFR	0	6	0	MANSION	864	n/a	n/a	1	0.57763671875	0.412841796875	1	lower	amplitud.ttf
1994552	WORD	wordpools/wasnorm_wordpool_less_exclusions.txt	LTP220	ltpFR	0	6	0	BLUEPRINT	142	n/a	n/a	0	0.57763671875	0.412841796875	1	lower	amplitud.ttf
1998410	WORD	wordpools/wasnorm_wordpool_less_exclusions.txt	LTP220	ltpFR	0	6	0	DESSERT	453	n/a	n/a	0	0.57763671875	0.412841796875	1	lower	amplitud.ttf
2002492	WORD	wordpools/wasnorm_wordpool_less_exclusions.txt	LTP220	ltpFR	0	6	0	BEARD	107	n/a	n/a	0	0.57763671875	0.412841796875	1	lower	amplitud.ttf
2006557	WORD	wordpools/wasnorm_wordpool_less_exclusions.txt	LTP220	ltpFR	0	6	0	FELLOW	558	n/a	n/a	0	0.57763671875	0.412841796875	1	lower	amplitud.ttf
2010672	WORD	wordpools/wasnorm_wordpool_less_exclusions.txt	LTP220	ltpFR	0	6	0	COLLAR	345	n/a	n/a	0	0.57763671875	0.412841796875	1	lower	amplitud.ttf
2014577	WORD	wordpools/wasnorm_wordpool_less_exclusions.txt	LTP220	ltpFR	0	6	0	REGISTER	1180	n/a	n/a	0	0.57763671875	0.412841796875	1	lower	amplitud.ttf
2018636	WORD	wordpools/wasnorm_wordpool_less_exclusions.txt	LTP220	ltpFR	0	6	0	BILL	126	n/a	n/a	0	0.57763671875	0.412841796875	1	lower	amplitud.ttf
2022691	WORD	wordpools/wasnorm_wordpool_less_exclusions.txt	LTP220	ltpFR	0	6	0	RAM	1165	n/a	n/a	1	0.57763671875	0.412841796875	1	lower	amplitud.ttf
2026640	WORD	wordpools/wasnorm_wordpool_less_exclusions.txt	LTP220	ltpFR	0	6	0	BOY	161	n/a	n/a	0	0.57763671875	0.412841796875	1	lower	amplitud.ttf
2030805	WORD	wordpools/wasnorm_wordpool_less_exclusions.txt	LTP220	ltpFR	0	6	0	LOFT	840	n/a	n/a	1	0.57763671875	0.412841796875	1	lower	amplitud.ttf
2034971	WORD	wordpools/wasnorm_wordpool_less_exclusions.txt	LTP220	ltpFR	0	6	0	WHISKERS	1605	n/a	n/a	0	0.57763671875	0.412841796875	1	lower	amplitud.ttf
2039035	WORD	wordpools/wasnorm_wordpool_less_exclusions.txt	LTP220	ltpFR	0	6	0	DRESS	495	n/a	n/a	0	0.57763671875	0.412841796875	1	lower	amplitud.ttf
2044735	REC_START	n/a	LTP220	ltpFR	0	6	n/a	n/a	n/a	n/a	n/a	n/a	n/a	n/a	n/a	n/a	n/a
2047424	REC_WORD	wordpools/wasnorm_wordpool_less_exclusions.txt	LTP220	ltpFR	0	6	0	DRESS	495	n/a	n/a	0	n/a	n/a	n/a	n/a	n/a
2048292	REC_WORD	wordpools/wasnorm_wordpool_less_exclusions.txt	LTP220	ltpFR	0	6	0	WHISKERS	1605	n/a	n/a	0	n/a	n/a	n/a	n/a	n/a
2049260	REC_WORD	wordpools/wasnorm_wordpool_less_exclusions.txt	LTP220	ltpFR	0	6	0	BOY	161	n/a	n/a	0	n/a	n/a	n/a	n/a	n/a
2050876	REC_WORD	wordpools/wasnorm_wordpool_less_exclusions.txt	LTP220	ltpFR	0	6	0	FELLOW	558	n/a	n/a	0	n/a	n/a	n/a	n/a	n/a
2068291	REC_WORD	wordpools/wasnorm_wordpool_less_exclusions.txt	LTP220	ltpFR	0	6	0	BILL	126	n/a	n/a	0	n/a	n/a	n/a	n/a	n/a
2069863	REC_WORD	wordpools/wasnorm_wordpool_less_exclusions.txt	LTP220	ltpFR	0	6	0	RAM	1165	n/a	n/a	1	n/a	n/a	n/a	n/a	n/a
2077820	REC_WORD	wordpools/wasnorm_wordpool_less_exclusions.txt	LTP220	ltpFR	0	6	0	BEARD	107	n/a	n/a	0	n/a	n/a	n/a	n/a	n/a
2082235	REC_WORD	wordpools/wasnorm_wordpool_less_exclusions.txt	LTP220	ltpFR	0	6	0	WHISKERS	1605	n/a	n/a	0	n/a	n/a	n/a	n/a	n/a
2082868	REC_WORD_VV	wordpools/wasnorm_wordpool_less_exclusions.txt	LTP220	ltpFR	0	6	n/a	<>	-1	n/a	n/a	n/a	n/a	n/a	n/a	n/a	n/a
2086515	REC_WORD	wordpools/wasnorm_wordpool_less_exclusions.txt	LTP220	ltpFR	0	6	0	FACE	547	n/a	n/a	0	n/a	n/a	n/a	n/a	n/a
2090780	REC_WORD	wordpools/wasnorm_wordpool_less_exclusions.txt	LTP220	ltpFR	0	6	0	FIST	572	n/a	n/a	1	n/a	n/a	n/a	n/a	n/a
2133602	WORD	wordpools/wasnorm_wordpool_less_exclusions.txt	LTP220	ltpFR	0	7	0	PIRATE	1074	n/a	n/a	1	0.57763671875	0.412841796875	1	lower	amplitud.ttf
2137558	WORD	wordpools/wasnorm_wordpool_less_exclusions.txt	LTP220	ltpFR	0	7	0	BURGLAR	200	n/a	n/a	1	0.57763671875	0.412841796875	1	lower	amplitud.ttf
2141398	WORD	wordpools/wasnorm_wordpool_less_exclusions.txt	LTP220	ltpFR	0	7	0	SKETCH	1315	n/a	n/a	0	0.57763671875	0.412841796875	1	lower	amplitud.ttf
2145437	WORD	wordpools/wasnorm_wordpool_less_exclusions.txt	LTP220	ltpFR	0	7	0	PENCIL	1042	n/a	n/a	1	0.57763671875	0.412841796875	1	lower	amplitud.ttf
2149345	WORD	wordpools/wasnorm_wordpool_less_exclusions.txt	LTP220	ltpFR	0	7	0	CHAMPAGNE	278	n/a	n/a	1	0.57763671875	0.412841796875	1	lower	amplitud.ttf
2153327	WORD	wordpools/wasnorm_wordpool_less_exclusions.txt	LTP220	ltpFR	0	7	0	OX	994	n/a	n/a	n/a	0.57763671875	0.412841796875	1	lower	amplitud.ttf
2156371	SLOW_MSG	n/a	LTP220	ltpFR	0	7	n/a	n/a	n/a	n/a	n/a	n/a	n/a	n/a	n/a	n/a	n/a
2158821	WORD	wordpools/wasnorm_wordpool_less_exclusions.txt	LTP220	ltpFR	0	7	0	FARM	552	n/a	n/a	1	0.57763671875	0.412841796875	1	lower	amplitud.ttf
2162769	WORD	wordpools/wasnorm_wordpool_less_exclusions.txt	LTP220	ltpFR	0	7	0	TABLET	1427	n/a	n/a	0	0.57763671875	0.412841796875	1	lower	amplitud.ttf
2166918	WORD	wordpools/wasnorm_wordpool_less_exclusions.txt	LTP220	ltpFR	0	7	0	ESSAY	540	n/a	n/a	1	0.57763671875	0.412841796875	1	lower	amplitud.ttf
2170766	WORD	wordpools/wasnorm_wordpool_less_exclusions.txt	LTP220	ltpFR	0	7	0	BLOCKADE	137	n/a	n/a	1	0.57763671875	0.412841796875	1	lower	amplitud.ttf
2174757	WORD	wordpools/wasnorm_wordpool_less_exclusions.txt	LTP220	ltpFR	0	7	0	KEG	770	n/a	n/a	0	0.57763671875	0.412841796875	1	lower	amplitud.ttf
2178930	WORD	wordpools/wasnorm_wordpool_less_exclusions.txt	LTP220	ltpFR	0	7	0	ZUCCHINI	1638	n/a	n/a	0	0.57763671875	0.412841796875	1	lower	amplitud.ttf
2182938	WORD	wordpools/wasnorm_wordpool_less_exclusions.txt	LTP220	ltpFR	0	7	0	SPONGE	1355	n/a	n/a	0	0.57763671875	0.412841796875	1	lower	amplitud.ttf
2186810	WORD	wordpools/wasnorm_wordpool_less_exclusions.txt	LTP220	ltpFR	0	7	0	TWIG	1527	n/a	n/a	0	0.57763671875	0.412841796875	1	lower	amplitud.ttf
2190991	WORD	wordpools/wasnorm_wordpool_less_exclusions.txt	LTP220	ltpFR	0	7	0	FRAME	600	n/a	n/a	0	0.57763671875	0.412841796875	1	lower	amplitud.ttf
2195157	WORD	wordpools/wasnorm_wordpool_less_exclusions.txt	LTP220	ltpFR	0	7	0	SUPERMARKET	1409	n/a	n/a	1	0.57763671875	0.412841796875	1	lower	amplitud.ttf
2201064	REC_START	n/a	LTP220	ltpFR	0	7	n/a	n/a	n/a	n/a	n/a	n/a	n/a	n/a	n/a	n/a	n/a
2202520	REC_WORD	wordpools/wasnorm_wordpool_less_exclusions.txt	LTP220	ltpFR	0	7	0	SUPERMARKET	1409	n/a	n/a	1	n/a	n/a	n/a	n/a	n/a
2203527	REC_WORD_VV	wordpools/wasnorm_wordpool_less_exclusions.txt	LTP220	ltpFR	0	7	n/a	<>	-1	n/a	n/a	n/a	n/a	n/a	n/a	n/a	n/a
2203892	REC_WORD	wordpools/wasnorm_wordpool_less_exclusions.txt	LTP220	ltpFR	0	7	0	TWIG	1527	n/a	n/a	0	n/a	n/a	n/a	n/a	n/a
2211161	REC_WORD	wordpools/wasnorm_wordpool_less_exclusions.txt	LTP220	ltpFR	0	7	0	ESSAY	540	n/a	n/a	1	n/a	n/a	n/a	n/a	n/a
2219926	REC_WORD	wordpools/wasnorm_wordpool_less_exclusions.txt	LTP220	ltpFR	0	7	0	BLOCKADE	137	n/a	n/a	1	n/a	n/a	n/a	n/a	n/a
2231185	REC_WORD	wordpools/wasnorm_wordpool_less_exclusions.txt	LTP220	ltpFR	0	7	0	FARM	552	n/a	n/a	1	n/a	n/a	n/a	n/a	n/a
2236139	REC_WORD	wordpools/wasnorm_wordpool_less_exclusions.txt	LTP220	ltpFR	0	7	0	CHAMPAGNE	278	n/a	n/a	1	n/a	n/a	n/a	n/a	n/a
2237141	REC_WORD_VV	wordpools/wasnorm_wordpool_less_exclusions.txt	LTP220	ltpFR	0	7	n/a	<>	-1	n/a	n/a	n/a	n/a	n/a	n/a	n/a	n/a
2245533	REC_WORD	wordpools/wasnorm_wordpool_less_exclusions.txt	LTP220	ltpFR	0	7	0	BLUEPRINT	142	n/a	n/a	0	n/a	n/a	n/a	n/a	n/a
2265906	REC_WORD	wordpools/wasnorm_wordpool_less_exclusions.txt	LTP220	ltpFR	0	7	0	OX	994	n/a	n/a	n/a	n/a	n/a	n/a	n/a	n/a
2289272	WORD	wordpools/wasnorm_wordpool_less_exclusions.txt	LTP220	ltpFR	0	8	0	CHAIRPERSON	275	n/a	n/a	1	0.57763671875	0.412841796875	1	lower	amplitud.ttf
2293093	WORD	wordpools/wasnorm_wordpool_less_exclusions.txt	LTP220	ltpFR	0	8	0	LOUNGE	845	n/a	n/a	1	0.57763671875	0.412841796875	1	lower	amplitud.ttf
2297192	WORD	wordpools/wasnorm_wordpool_less_exclusions.txt	LTP220	ltpFR	0	8	0	NOVEL	960	n/a	n/a	0	0.57763671875	0.412841796875	1	lower	amplitud.ttf
2301073	WORD	wordpools/wasnorm_wordpool_less_exclusions.txt	LTP220	ltpFR	0	8	0	POET	1095	n/a	n/a	1	0.57763671875	0.412841796875	1	lower	amplitud.ttf
2305256	WORD	wordpools/wasnorm_wordpool_less_exclusions.txt	LTP220	ltpFR	0	8	0	STOOL	1386	n/a	n/a	0	0.57763671875	0.412841796875	1	lower	amplitud.ttf
2309204	WORD	wordpools/wasnorm_wordpool_less_exclusions.txt	LTP220	ltpFR	0	8	0	ANTEATER	26	n/a	n/a	1	0.57763671875	0.412841796875	1	lower	amplitud.ttf
2313397	WORD	wordpools/wasnorm_wordpool_less_exclusions.txt	LTP220	ltpFR	0	8	0	PERSONNEL	1053	n/a	n/a	n/a	0.57763671875	0.412841796875	1	lower	amplitud.ttf
2316448	SLOW_MSG	n/a	LTP220	ltpFR	0	8	n/a	n/a	n/a	n/a	n/a	n/a	n/a	n/a	n/a	n/a	n/a
2319191	WORD	wordpools/wasnorm_wordpool_less_exclusions.txt	LTP220	ltpFR	0	8	0	FLANNEL	574	n/a	n/a	0	0.57763671875	0.412841796875	1	lower	amplitud.ttf
2323116	WORD	wordpools/wasnorm_wordpool_less_exclusions.txt	LTP220	ltpFR	0	8	0	LAPEL	800	n/a	n/a	0	0.57763671875	0.412841796875	1	lower	amplitud.ttf
2327205	WORD	wordpools/wasnorm_wordpool_less_exclusions.txt	LTP220	ltpFR	0	8	0	UNIVERSE	1540	n/a	n/a	1	0.57763671875	0.412841796875	1	lower	amplitud.ttf
2331364	WORD	wordpools/wasnorm_wordpool_less_exclusions.txt	LTP220	ltpFR	0	8	0	JEWEL	757	n/a	n/a	0	0.57763671875	0.412841796875	1	lower	amplitud.ttf
2335537	WORD	wordpools/wasnorm_wordpool_less_exclusions.txt	LTP220	ltpFR	0	8	0	MANAGER	863	n/a	n/a	0	0.57763671875	0.412841796875	1	lower	amplitud.ttf
2339686	WORD	wordpools/wasnorm_wordpool_less_exclusions.txt	LTP220	ltpFR	0	8	0	CLAMP	316	n/a	n/a	0	0.57763671875	0.412841796875	1	lower	amplitud.ttf
2343661	WORD	wordpools/wasnorm_wordpool_less_exclusions.txt	LTP220	ltpFR	0	8	0	BUS	201	n/a	n/a	1	0.57763671875	0.412841796875	1	lower	amplitud.ttf
2347592	WORD	wordpools/wasnorm_wordpool_less_exclusions.txt	LTP220	ltpFR	0	8	0	TUBA	1515	n/a	n/a	1	0.57763671875	0.412841796875	1	lower	amplitud.ttf
2351691	WORD	wordpools/wasnorm_wordpool_less_exclusions.txt	LTP220	ltpFR	0	8	0	BUG	187	n/a	n/a	0	0.57763671875	0.412841796875	1	lower	amplitud.ttf
2357296	REC_START	n/a	LTP220	ltpFR	0	8	n/a	n/a	n/a	n/a	n/a	n/a	n/a	n/a	n/a	n/a	n/a
2357761	REC_WORD_VV	wordpools/wasnorm_wordpool_less_exclusions.txt	LTP220	ltpFR	0	8	n/a	<>	-1	n/a	n/a	n/a	n/a	n/a	n/a	n/a	n/a
2359102	REC_WORD	wordpools/wasnorm_wordpool_less_exclusions.txt	LTP220	ltpFR	0	8	0	BUG	187	n/a	n/a	0	n/a	n/a	n/a	n/a	n/a
2360234	REC_WORD	wordpools/wasnorm_wordpool_less_exclusions.txt	LTP220	ltpFR	0	8	0	TUBA	1515	n/a	n/a	1	n/a	n/a	n/a	n/a	n/a
2373858	REC_WORD	wordpools/wasnorm_wordpool_less_exclusions.txt	LTP220	ltpFR	0	8	0	JEWEL	757	n/a	n/a	0	n/a	n/a	n/a	n/a	n/a
2379685	REC_WORD	wordpools/wasnorm_wordpool_less_exclusions.txt	LTP220	ltpFR	0	8	0	MANAGER	863	n/a	n/a	0	n/a	n/a	n/a	n/a	n/a
2385128	REC_WORD	wordpools/wasnorm_wordpool_less_exclusions.txt	LTP220	ltpFR	0	8	0	TUBA	1515	n/a	n/a	1	n/a	n/a	n/a	n/a	n/a
2390166	REC_WORD	wordpools/wasnorm_wordpool_less_exclusions.txt	LTP220	ltpFR	0	8	0	PENCIL	1042	n/a	n/a	1	n/a	n/a	n/a	n/a	n/a
2397769	REC_WORD	wordpools/wasnorm_wordpool_less_exclusions.txt	LTP220	ltpFR	0	8	0	ESSAY	540	n/a	n/a	1	n/a	n/a	n/a	n/a	n/a
2401495	REC_WORD	wordpools/wasnorm_wordpool_less_exclusions.txt	LTP220	ltpFR	0	8	0	POET	1095	n/a	n/a	1	n/a	n/a	n/a	n/a	n/a
2442641	WORD	wordpools/wasnorm_wordpool_less_exclusions.txt	LTP220	ltpFR	0	9	1	CANOE	233	n/a	n/a	0	0.422607421875	0.5869140625	0	upper	zerothre.ttf
2446699	WORD	wordpools/wasnorm_wordpool_less_exclusions.txt	LTP220	ltpFR	0	9	1	CROCODILE	411	n/a	n/a	1	0.422607421875	0.5869140625	0	upper	zerothre.ttf
2450671	WORD	wordpools/wasnorm_wordpool_less_exclusions.txt	LTP220	ltpFR	0	9	1	REINDEER	1181	n/a	n/a	1	0.422607421875	0.5869140625	0	upper	zerothre.ttf
2454830	WORD	wordpools/wasnorm_wordpool_less_exclusions.txt	LTP220	ltpFR	0	9	1	ZEBRA	1635	n/a	n/a	1	0.422607421875	0.5869140625	0	upper	zerothre.ttf
2458685	WORD	wordpools/wasnorm_wordpool_less_exclusions.txt	LTP220	ltpFR	0	9	1	CREATURE	403	n/a	n/a	1	0.422607421875	0.5869140625	0	upper	zerothre.ttf
2462793	WORD	wordpools/wasnorm_wordpool_less_exclusions.txt	LTP220	ltpFR	0	9	1	GRASS	655	n/a	n/a	1	0.422607421875	0.5869140625	0	upper	zerothre.ttf
2466959	WORD	wordpools/wasnorm_wordpool_less_exclusions.txt	LTP220	ltpFR	0	9	1	BEAN	105	n/a	n/a	1	0.422607421875	0.5869140625	0	upper	zerothre.ttf
2470947	WORD	wordpools/wasnorm_wordpool_less_exclusions.txt	LTP220	ltpFR	0	9	1	GIRAFFE	636	n/a	n/a	1	0.422607421875	0.5869140625	0	upper	zerothre.ttf
2474805	WORD	wordpools/wasnorm_wordpool_less_exclusions.txt	LTP220	ltpFR	0	9	1	SWORD	1423	n/a	n/a	0	0.422607421875	0.5869140625	0	upper	zerothre.ttf
2478827	WORD	wordpools/wasnorm_wordpool_less_exclusions.txt	LTP220	ltpFR	0	9	1	VIKING	1565	n/a	n/a	1	0.422607421875	0.5869140625	0	upper	zerothre.ttf
2483001	WORD	wordpools/wasnorm_wordpool_less_exclusions.txt	LTP220	ltpFR	0	9	1	CAB	209	n/a	n/a	0	0.422607421875	0.5869140625	0	upper	zerothre.ttf
2486874	WORD	wordpools/wasnorm_wordpool_less_exclusions.txt	LTP220	ltpFR	0	9	1	SHRIMP	1297	n/a	n/a	1	0.422607421875	0.5869140625	0	upper	zerothre.ttf
2491089	WORD	wordpools/wasnorm_wordpool_less_exclusions.txt	LTP220	ltpFR	0	9	1	PASTRY	1022	n/a	n/a	0	0.422607421875	0.5869140625	0	upper	zerothre.ttf
2495064	WORD	wordpools/wasnorm_wordpool_less_exclusions.txt	LTP220	ltpFR	0	9	1	SNACK	1331	n/a	n/a	0	0.422607421875	0.5869140625	0	upper	zerothre.ttf
2499062	WORD	wordpools/wasnorm_wordpool_less_exclusions.txt	LTP220	ltpFR	0	9	1	RECIPE	1175	n/a	n/a	0	0.422607421875	0.5869140625	0	upper	zerothre.ttf
2503151	WORD	wordpools/wasnorm_wordpool_less_exclusions.txt	LTP220	ltpFR	0	9	1	KITCHEN	778	n/a	n/a	0	0.422607421875	0.5869140625	0	upper	zerothre.ttf
2508851	REC_START	n/a	LTP220	ltpFR	0	9	n/a	n/a	n/a	n/a	n/a	n/a	n/a	n/a	n/a	n/a	n/a
2510048	REC_WORD	wordpools/wasnorm_wordpool_less_exclusions.txt	LTP220	ltpFR	0	9	1	KITCHEN	778	n/a	n/a	0	n/a	n/a	n/a	n/a	n/a
2510668	REC_WORD	wordpools/wasnorm_wordpool_less_exclusions.txt	LTP220	ltpFR	0	9	1	RECIPE	1175	n/a	n/a	0	n/a	n/a	n/a	n/a	n/a
2512078	REC_WORD	wordpools/wasnorm_wordpool_less_exclusions.txt	LTP220	ltpFR	0	9	1	PASTRY	1022	n/a	n/a	0	n/a	n/a	n/a	n/a	n/a
2513500	REC_WORD	wordpools/wasnorm_wordpool_less_exclusions.txt	LTP220	ltpFR	0	9	1	BEAN	105	n/a	n/a	1	n/a	n/a	n/a	n/a	n/a
2519003	REC_WORD	wordpools/wasnorm_wordpool_less_exclusions.txt	LTP220	ltpFR	0	9	1	GIRAFFE	636	n/a	n/a	1	n/a	n/a	n/a	n/a	n/a
2521823	REC_WORD	wordpools/wasnorm_wordpool_less_exclusions.txt	LTP220	ltpFR	0	9	1	ZEBRA	1635	n/a	n/a	1	n/a	n/a	n/a	n/a	n/a
2540464	REC_WORD	wordpools/wasnorm_wordpool_less_exclusions.txt	LTP220	ltpFR	0	9	-1	SAILOR	1223	n/a	n/a	-1	n/a	n/a	n/a	n/a	n/a
2558384	REC_WORD	wordpools/wasnorm_wordpool_less_exclusions.txt	LTP220	ltpFR	0	9	-1	FOX	598	n/a	n/a	-1	n/a	n/a	n/a	n/a	n/a
2559247	REC_WORD	wordpools/wasnorm_wordpool_less_exclusions.txt	LTP220	ltpFR	0	9	-1	RACCOON	1153	n/a	n/a	-1	n/a	n/a	n/a	n/a	n/a
2569998	REC_WORD	wordpools/wasnorm_wordpool_less_exclusions.txt	LTP220	ltpFR	0	9	1	KITCHEN	778	n/a	n/a	0	n/a	n/a	n/a	n/a	n/a
2572287	REC_WORD	wordpools/wasnorm_wordpool_less_exclusions.txt	LTP220	ltpFR	0	9	1	RECIPE	1175	n/a	n/a	0	n/a	n/a	n/a	n/a	n/a
2599733	WORD	wordpools/wasnorm_wordpool_less_exclusions.txt	LTP220	ltpFR	0	10	1	OCEAN	970	n/a	n/a	1	0.422607421875	0.5869140625	0	upper	zerothre.ttf
2603640	WORD	wordpools/wasnorm_wordpool_less_exclusions.txt	LTP220	ltpFR	0	10	1	UNIFORM	1539	n/a	n/a	0	0.422607421875	0.5869140625	0	upper	zerothre.ttf
2607605	WORD	wordpools/wasnorm_wordpool_less_exclusions.txt	LTP220	ltpFR	0	10	1	CITRUS	313	n/a	n/a	1	0.422607421875	0.5869140625	0	upper	zerothre.ttf
2611761	WORD	wordpools/wasnorm_wordpool_less_exclusions.txt	LTP220	ltpFR	0	10	1	CHICK	296	n/a	n/a	1	0.422607421875	0.5869140625	0	upper	zerothre.ttf
2615910	WORD	wordpools/wasnorm_wordpool_less_exclusions.txt	LTP220	ltpFR	0	10	1	SLEEVE	1324	n/a	n/a	0	0.422607421875	0.5869140625	0	upper	zerothre.ttf
2620008	WORD	wordpools/wasnorm_wordpool_less_exclusions.txt	LTP220	ltpFR	0	10	1	CHEF	290	n/a	n/a	1	0.422607421875	0.5869140625	0	upper	zerothre.ttf
2624016	WORD	wordpools/wasnorm_wordpool_less_exclusions.txt	LTP220	ltpFR	0	10	1	PRODUCER	1129	n/a	n/a	1	0.422607421875	0.5869140625	0	upper	zerothre.ttf
2627922	WORD	wordpools/wasnorm_wordpool_less_exclusions.txt	LTP220	ltpFR	0	10	1	ROOT	1210	n/a	n/a	1	0.422607421875	0.5869140625	0	upper	zerothre.ttf
2631837	WORD	wordpools/wasnorm_wordpool_less_exclusions.txt	LTP220	ltpFR	0	10	1	BUSH	202	n/a	n/a	n/a	0.422607421875	0.5869140625	0	upper	zerothre.ttf
2634882	SLOW_MSG	n/a	LTP220	ltpFR	0	10	n/a	n/a	n/a	n/a	n/a	n/a	n/a	n/a	n/a	n/a	n/a
2637626	WORD	wordpools/wasnorm_wordpool_less_exclusions.txt	LTP220	ltpFR	0	10	1	STAFF	1365	n/a	n/a	1	0.422607421875	0.5869140625	0	upper	zerothre.ttf
2641667	WORD	wordpools/wasnorm_wordpool_less_exclusions.txt	LTP220	ltpFR	0	10	1	SWIMMER	1420	n/a	n/a	1	0.422607421875	0.5869140625	0	upper	zerothre.ttf
2645539	WORD	wordpools/wasnorm_wordpool_less_exclusions.txt	LTP220	ltpFR	0	10	1	CHERRY	293	n/a	n/a	1	0.422607421875	0.5869140625	0	upper	zerothre.ttf
2649688	WORD	wordpools/wasnorm_wordpool_less_exclusions.txt	LTP220	ltpFR	0	10	1	PORPOISE	1109	n/a	n/a	1	0.422607421875	0.5869140625	0	upper	zerothre.ttf
2653686	WORD	wordpools/wasnorm_wordpool_less_exclusions.txt	LTP220	ltpFR	0	10	1	ANIMAL	23	n/a	n/a	1	0.422607421875	0.5869140625	0	upper	zerothre.ttf
2657761	WORD	wordpools/wasnorm_wordpool_less_exclusions.txt	LTP220	ltpFR	0	10	1	SERGEANT	1269	n/a	n/a	1	0.422607421875	0.5869140625	0	upper	zerothre.ttf
2661733	WORD	wordpools/wasnorm_wordpool_less_exclusions.txt	LTP220	ltpFR	0	10	1	TANK	1432	n/a	n/a	0	0.422607421875	0.5869140625	0	upper	zerothre.ttf
2667699	REC_START	n/a	LTP220	ltpFR	0	10	n/a	n/a	n/a	n/a	n/a	n/a	n/a	n/a	n/a	n/a	n/a
2669654	REC_WORD	wordpools/wasnorm_wordpool_less_exclusions.txt	LTP220	ltpFR	0	10	1	TANK	1432	n/a	n/a	0	n/a	n/a	n/a	n/a	n/a
2671021	REC_WORD	wordpools/wasnorm_wordpool_less_exclusions.txt	LTP220	ltpFR	0	10	1	SERGEANT	1269	n/a	n/a	1	n/a	n/a	n/a	n/a	n/a
2672687	REC_WORD	wordpools/wasnorm_wordpool_less_exclusions.txt	LTP220	ltpFR	0	10	1	STAFF	1365	n/a	n/a	1	n/a	n/a	n/a	n/a	n/a
2676219	REC_WORD	wordpools/wasnorm_wordpool_less_exclusions.txt	LTP220	ltpFR	0	10	1	CREATURE	403	n/a	n/a	1	n/a	n/a	n/a	n/a	n/a
2677221	REC_WORD_VV	wordpools/wasnorm_wordpool_less_exclusions.txt	LTP220	ltpFR	0	10	n/a	<>	-1	n/a	n/a	n/a	n/a	n/a	n/a	n/a	n/a
2699507	REC_WORD	wordpools/wasnorm_wordpool_less_exclusions.txt	LTP220	ltpFR	0	10	0	MANAGER	863	n/a	n/a	0	n/a	n/a	n/a	n/a	n/a
2751949	WORD	wordpools/wasnorm_wordpool_less_exclusions.txt	LTP220	ltpFR	0	11	1	HINGE	709	n/a	n/a	0	0.422607421875	0.5869140625	0	upper	zerothre.ttf
2755905	WORD	wordpools/wasnorm_wordpool_less_exclusions.txt	LTP220	ltpFR	0	11	1	LOCK	838	n/a	n/a	0	0.422607421875	0.5869140625	0	upper	zerothre.ttf
2759896	WORD	wordpools/wasnorm_wordpool_less_exclusions.txt	LTP220	ltpFR	0	11	1	FINGER	567	n/a	n/a	1	0.422607421875	0.5869140625	0	upper	zerothre.ttf
2763801	WORD	wordpools/wasnorm_wordpool_less_exclusions.txt	LTP220	ltpFR	0	11	1	BISON	131	n/a	n/a	1	0.422607421875	0.5869140625	0	upper	zerothre.ttf
2767799	WORD	wordpools/wasnorm_wordpool_less_exclusions.txt	LTP220	ltpFR	0	11	1	SUBURB	1399	n/a	n/a	1	0.422607421875	0.5869140625	0	upper	zerothre.ttf
2771932	WORD	wordpools/wasnorm_wordpool_less_exclusions.txt	LTP220	ltpFR	0	11	1	DISH	474	n/a	n/a	0	0.422607421875	0.5869140625	0	upper	zerothre.ttf
2776030	WORD	wordpools/wasnorm_wordpool_less_exclusions.txt	LTP220	ltpFR	0	11	1	MAGICIAN	854	n/a	n/a	1	0.422607421875	0.5869140625	0	upper	zerothre.ttf
2780212	WORD	wordpools/wasnorm_wordpool_less_exclusions.txt	LTP220	ltpFR	0	11	1	WRIST	1626	n/a	n/a	1	0.422607421875	0.5869140625	0	upper	zerothre.ttf
2784093	WORD	wordpools/wasnorm_wordpool_less_exclusions.txt	LTP220	ltpFR	0	11	1	BRUSH	182	n/a	n/a	0	0.422607421875	0.5869140625	0	upper	zerothre.ttf
2788042	WORD	wordpools/wasnorm_wordpool_less_exclusions.txt	LTP220	ltpFR	0	11	1	DRYER	503	n/a	n/a	0	0.422607421875	0.5869140625	0	upper	zerothre.ttf
2792200	WORD	wordpools/wasnorm_wordpool_less_exclusions.txt	LTP220	ltpFR	0	11	1	TURKEY	1520	n/a	n/a	1	0.422607421875	0.5869140625	0	upper	zerothre.ttf
2796367	WORD	wordpools/wasnorm_wordpool_less_exclusions.txt	LTP220	ltpFR	0	11	1	BOUILLON	154	n/a	n/a	0	0.422607421875	0.5869140625	0	upper	zerothre.ttf
2800506	WORD	wordpools/wasnorm_wordpool_less_exclusions.txt	LTP220	ltpFR	0	11	1	CONTRACTOR	369	n/a	n/a	1	0.422607421875	0.5869140625	0	upper	zerothre.ttf
2804622	WORD	wordpools/wasnorm_wordpool_less_exclusions.txt	LTP220	ltpFR	0	11	1	BOWL	158	n/a	n/a	0	0.422607421875	0.5869140625	0	upper	zerothre.ttf
2808754	WORD	wordpools/wasnorm_wordpool_less_exclusions.txt	LTP220	ltpFR	0	11	1	MOUSE	925	n/a	n/a	1	0.422607421875	0.5869140625	0	upper	zerothre.ttf
2812862	WORD	wordpools/wasnorm_wordpool_less_exclusions.txt	LTP220	ltpFR	0	11	1	RUST	1219	n/a	n/a	n/a	0.422607421875	0.5869140625	0	upper	zerothre.ttf
2815914	SLOW_MSG	n/a	LTP220	ltpFR	0	11	n/a	n/a	n/a	n/a	n/a	n/a	n/a	n/a	n/a	n/a	n/a
2820241	REC_START	n/a	LTP220	ltpFR	0	11	n/a	n/a	n/a	n/a	n/a	n/a	n/a	n/a	n/a	n/a	n/a
2821892	REC_WORD	wordpools/wasnorm_wordpool_less_exclusions.txt	LTP220	ltpFR	0	11	1	RUST	1219	n/a	n/a	n/a	n/a	n/a	n/a	n/a	n/a
2822835	REC_WORD	wordpools/wasnorm_wordpool_less_exclusions.txt	LTP220	ltpFR	0	11	1	MOUSE	925	n/a	n/a	1	n/a	n/a	n/a	n/a	n/a
2827993	REC_WORD	wordpools/wasnorm_wordpool_less_exclusions.txt	LTP220	ltpFR	0	11	1	CONTRACTOR	369	n/a	n/a	1	n/a	n/a	n/a	n/a	n/a
2834743	REC_WORD_VV	wordpools/wasnorm_wordpool_less_exclusions.txt	LTP220	ltpFR	0	11	n/a	<>	-1	n/a	n/a	n/a	n/a	n/a	n/a	n/a	n/a
2853560	REC_WORD	wordpools/wasnorm_wordpool_less_exclusions.txt	LTP220	ltpFR	0	11	1	CITRUS	313	n/a	n/a	1	n/a	n/a	n/a	n/a	n/a
2859576	REC_WORD	wordpools/wasnorm_wordpool_less_exclusions.txt	LTP220	ltpFR	0	11	n/a	DOOR	486	n/a	n/a	n/a	n/a	n/a	n/a	n/a	n/a
2860247	REC_WORD	wordpools/wasnorm_wordpool_less_exclusions.txt	LTP220	ltpFR	0	11	1	LOCK	838	n/a	n/a	0	n/a	n/a	n/a	n/a	n/a
2863338	REC_WORD	wordpools/wasnorm_wordpool_less_exclusions.txt	LTP220	ltpFR	0	11	1	HINGE	709	n/a	n/a	0	n/a	n/a	n/a	n/a	n/a
2904196	WORD	wordpools/wasnorm_wordpool_less_exclusions.txt	LTP220	ltpFR	0	12	1	FLASK	576	n/a	n/a	0	0.422607421875	0.5869140625	0	upper	zerothre.ttf
2908127	WORD	wordpools/wasnorm_wordpool_less_exclusions.txt	LTP220	ltpFR	0	12	1	COCKTAIL	338	n/a	n/a	0	0.422607421875	0.5869140625	0	upper	zerothre.ttf
2912294	WORD	wordpools/wasnorm_wordpool_less_exclusions.txt	LTP220	ltpFR	0	12	1	CHAUFFEUR	283	n/a	n/a	1	0.422607421875	0.5869140625	0	upper	zerothre.ttf
2916393	WORD	wordpools/wasnorm_wordpool_less_exclusions.txt	LTP220	ltpFR	0	12	1	STICKER	1382	n/a	n/a	0	0.422607421875	0.5869140625	0	upper	zerothre.ttf
2920418	WORD	wordpools/wasnorm_wordpool_less_exclusions.txt	LTP220	ltpFR	0	12	1	BOULDER	155	n/a	n/a	0	0.422607421875	0.5869140625	0	upper	zerothre.ttf
2924406	WORD	wordpools/wasnorm_wordpool_less_exclusions.txt	LTP220	ltpFR	0	12	1	SLIDE	1326	n/a	n/a	0	0.422607421875	0.5869140625	0	upper	zerothre.ttf
2928355	WORD	wordpools/wasnorm_wordpool_less_exclusions.txt	LTP220	ltpFR	0	12	1	BLENDER	136	n/a	n/a	0	0.422607421875	0.5869140625	0	upper	zerothre.ttf
2932537	WORD	wordpools/wasnorm_wordpool_less_exclusions.txt	LTP220	ltpFR	0	12	1	BAKER	71	n/a	n/a	1	0.422607421875	0.5869140625	0	upper	zerothre.ttf
2936428	WORD	wordpools/wasnorm_wordpool_less_exclusions.txt	LTP220	ltpFR	0	12	1	WAITRESS	1581	n/a	n/a	1	0.422607421875	0.5869140625	0	upper	zerothre.ttf
2940500	WORD	wordpools/wasnorm_wordpool_less_exclusions.txt	LTP220	ltpFR	0	12	1	HOSTESS	723	n/a	n/a	1	0.422607421875	0.5869140625	0	upper	zerothre.ttf
2944331	WORD	wordpools/wasnorm_wordpool_less_exclusions.txt	LTP220	ltpFR	0	12	1	HUT	729	n/a	n/a	0	0.422607421875	0.5869140625	0	upper	zerothre.ttf
2948397	WORD	wordpools/wasnorm_wordpool_less_exclusions.txt	LTP220	ltpFR	0	12	1	QUARTER	1148	n/a	n/a	0	0.422607421875	0.5869140625	0	upper	zerothre.ttf
2952405	WORD	wordpools/wasnorm_wordpool_less_exclusions.txt	LTP220	ltpFR	0	12	1	REEF	1177	n/a	n/a	1	0.422607421875	0.5869140625	0	upper	zerothre.ttf
2956537	WORD	wordpools/wasnorm_wordpool_less_exclusions.txt	LTP220	ltpFR	0	12	1	CORAL	378	n/a	n/a	1	0.422607421875	0.5869140625	0	upper	zerothre.ttf
2960385	WORD	wordpools/wasnorm_wordpool_less_exclusions.txt	LTP220	ltpFR	0	12	1	LADDER	793	n/a	n/a	0	0.422607421875	0.5869140625	0	upper	zerothre.ttf
2964534	WORD	wordpools/wasnorm_wordpool_less_exclusions.txt	LTP220	ltpFR	0	12	1	LOAF	835	n/a	n/a	1	0.422607421875	0.5869140625	0	upper	zerothre.ttf
2970481	REC_START	n/a	LTP220	ltpFR	0	12	n/a	n/a	n/a	n/a	n/a	n/a	n/a	n/a	n/a	n/a	n/a
2976133	REC_WORD	wordpools/wasnorm_wordpool_less_exclusions.txt	LTP220	ltpFR	0	12	1	CORAL	378	n/a	n/a	1	n/a	n/a	n/a	n/a	n/a
2978942	REC_WORD	wordpools/wasnorm_wordpool_less_exclusions.txt	LTP220	ltpFR	0	12	1	REEF	1177	n/a	n/a	1	n/a	n/a	n/a	n/a	n/a
2980089	REC_WORD	wordpools/wasnorm_wordpool_less_exclusions.txt	LTP220	ltpFR	0	12	1	LOAF	835	n/a	n/a	1	n/a	n/a	n/a	n/a	n/a
2985197	REC_WORD	wordpools/wasnorm_wordpool_less_exclusions.txt	LTP220	ltpFR	0	12	1	WAITRESS	1581	n/a	n/a	1	n/a	n/a	n/a	n/a	n/a
2986340	REC_WORD	wordpools/wasnorm_wordpool_less_exclusions.txt	LTP220	ltpFR	0	12	1	BAKER	71	n/a	n/a	1	n/a	n/a	n/a	n/a	n/a
2988944	REC_WORD	wordpools/wasnorm_wordpool_less_exclusions.txt	LTP220	ltpFR	0	12	1	HOSTESS	723	n/a	n/a	1	n/a	n/a	n/a	n/a	n/a
2989942	REC_WORD_VV	wordpools/wasnorm_wordpool_less_exclusions.txt	LTP220	ltpFR	0	12	n/a	<>	-1	n/a	n/a	n/a	n/a	n/a	n/a	n/a	n/a
3006508	REC_WORD_VV	wordpools/wasnorm_wordpool_less_exclusions.txt	LTP220	ltpFR	0	12	n/a	<>	-1	n/a	n/a	n/a	n/a	n/a	n/a	n/a	n/a
3046131	REST_REWET	n/a	LTP220	ltpFR	0	12	n/a	n/a	n/a	n/a	n/a	n/a	n/a	n/a	n/a	n/a	n/a
3503012	WORD	wordpools/wasnorm_wordpool_less_exclusions.txt	LTP220	ltpFR	0	13	0	ORNAMENT	985	n/a	n/a	n/a	0.57763671875	0.412841796875	1	lower	amplitud.ttf
3506057	SLOW_MSG	n/a	LTP220	ltpFR	0	13	n/a	n/a	n/a	n/a	n/a	n/a	n/a	n/a	n/a	n/a	n/a
3508792	WORD	wordpools/wasnorm_wordpool_less_exclusions.txt	LTP220	ltpFR	0	13	0	PUDDLE	1140	n/a	n/a	0	0.57763671875	0.412841796875	1	lower	amplitud.ttf
3512983	WORD	wordpools/wasnorm_wordpool_less_exclusions.txt	LTP220	ltpFR	0	13	0	ICE	730	n/a	n/a	0	0.57763671875	0.412841796875	1	lower	amplitud.ttf
3517199	WORD	wordpools/wasnorm_wordpool_less_exclusions.txt	LTP220	ltpFR	0	13	0	GUARDIAN	668	n/a	n/a	n/a	0.57763671875	0.412841796875	1	lower	amplitud.ttf
3520245	SLOW_MSG	n/a	LTP220	ltpFR	0	13	n/a	n/a	n/a	n/a	n/a	n/a	n/a	n/a	n/a	n/a	n/a
3522728	WORD	wordpools/wasnorm_wordpool_less_exclusions.txt	LTP220	ltpFR	0	13	1	LUNCH	849	n/a	n/a	n/a	0.422607421875	0.5869140625	0	upper	zerothre.ttf
3525773	SLOW_MSG	n/a	LTP220	ltpFR	0	13	n/a	n/a	n/a	n/a	n/a	n/a	n/a	n/a	n/a	n/a	n/a
3528147	WORD	wordpools/wasnorm_wordpool_less_exclusions.txt	LTP220	ltpFR	0	13	1	VETERAN	1561	n/a	n/a	1	0.422607421875	0.5869140625	0	upper	zerothre.ttf
3532281	WORD	wordpools/wasnorm_wordpool_less_exclusions.txt	LTP220	ltpFR	0	13	1	COLONEL	348	n/a	n/a	1	0.422607421875	0.5869140625	0	upper	zerothre.ttf
3536473	WORD	wordpools/wasnorm_wordpool_less_exclusions.txt	LTP220	ltpFR	0	13	1	LIST	830	n/a	n/a	0	0.422607421875	0.5869140625	0	upper	zerothre.ttf
3540595	WORD	wordpools/wasnorm_wordpool_less_exclusions.txt	LTP220	ltpFR	0	13	0	STALLION	1369	n/a	n/a	3	0.57763671875	0.412841796875	1	lower	amplitud.ttf
3542837	KEY_MSG	n/a	LTP220	ltpFR	0	13	n/a	n/a	n/a	n/a	n/a	n/a	n/a	n/a	n/a	n/a	n/a
3545195	WORD	wordpools/wasnorm_wordpool_less_exclusions.txt	LTP220	ltpFR	0	13	0	HAY	693	n/a	n/a	2	0.57763671875	0.412841796875	1	lower	amplitud.ttf
3546902	KEY_MSG	n/a	LTP220	ltpFR	0	13	n/a	n/a	n/a	n/a	n/a	n/a	n/a	n/a	n/a	n/a	n/a
3549522	WORD	wordpools/wasnorm_wordpool_less_exclusions.txt	LTP220	ltpFR	0	13	1	DINER	467	n/a	n/a	n/a	0.422607421875	0.5869140625	0	upper	zerothre.ttf
3552567	SLOW_MSG	n/a	LTP220	ltpFR	0	13	n/a	n/a	n/a	n/a	n/a	n/a	n/a	n/a	n/a	n/a	n/a
3554916	WORD	wordpools/wasnorm_wordpool_less_exclusions.txt	LTP220	ltpFR	0	13	1	MAPLE	866	n/a	n/a	1	0.422607421875	0.5869140625	0	upper	zerothre.ttf
3559057	WORD	wordpools/wasnorm_wordpool_less_exclusions.txt	LTP220	ltpFR	0	13	1	SCROLL	1257	n/a	n/a	0	0.422607421875	0.5869140625	0	upper	zerothre.ttf
3563240	WORD	wordpools/wasnorm_wordpool_less_exclusions.txt	LTP220	ltpFR	0	13	1	EDITORIAL	517	n/a	n/a	0	0.422607421875	0.5869140625	0	upper	zerothre.ttf
3567239	WORD	wordpools/wasnorm_wordpool_less_exclusions.txt	LTP220	ltpFR	0	13	0	CAN	225	n/a	n/a	1	0.57763671875	0.412841796875	1	lower	amplitud.ttf
3571404	WORD	wordpools/wasnorm_wordpool_less_exclusions.txt	LTP220	ltpFR	0	13	0	ICING	732	n/a	n/a	n/a	0.57763671875	0.412841796875	1	lower	amplitud.ttf
3574456	SLOW_MSG	n/a	LTP220	ltpFR	0	13	n/a	n/a	n/a	n/a	n/a	n/a	n/a	n/a	n/a	n/a	n/a
3578840	REC_START	n/a	LTP220	ltpFR	0	13	n/a	n/a	n/a	n/a	n/a	n/a	n/a	n/a	n/a	n/a	n/a
3581329	REC_WORD_VV	wordpools/wasnorm_wordpool_less_exclusions.txt	LTP220	ltpFR	0	13	n/a	<>	-1	n/a	n/a	n/a	n/a	n/a	n/a	n/a	n/a
3582372	REC_WORD	wordpools/wasnorm_wordpool_less_exclusions.txt	LTP220	ltpFR	0	13	0	ICING	732	n/a	n/a	n/a	n/a	n/a	n/a	n/a	n/a
3609039	REC_WORD	wordpools/wasnorm_wordpool_less_exclusions.txt	LTP220	ltpFR	0	13	0	ICE	730	n/a	n/a	0	n/a	n/a	n/a	n/a	n/a
3609921	REC_WORD_VV	wordpools/wasnorm_wordpool_less_exclusions.txt	LTP220	ltpFR	0	13	n/a	<>	-1	n/a	n/a	n/a	n/a	n/a	n/a	n/a	n/a
3680733	WORD	wordpools/wasnorm_wordpool_less_exclusions.txt	LTP220	ltpFR	0	14	1	CHIMPANZEE	302	n/a	n/a	1	0.422607421875	0.5869140625	0	upper	zerothre.ttf
3684738	WORD	wordpools/wasnorm_wordpool_less_exclusions.txt	LTP220	ltpFR	0	14	1	CHICKEN	297	n/a	n/a	1	0.422607421875	0.5869140625	0	upper	zerothre.ttf
3688763	WORD	wordpools/wasnorm_wordpool_less_exclusions.txt	LTP220	ltpFR	0	14	1	SEED	1266	n/a	n/a	1	0.422607421875	0.5869140625	0	upper	zerothre.ttf
3692962	WORD	wordpools/wasnorm_wordpool_less_exclusions.txt	LTP220	ltpFR	0	14	1	MONKEY	911	n/a	n/a	1	0.422607421875	0.5869140625	0	upper	zerothre.ttf
3696901	WORD	wordpools/wasnorm_wordpool_less_exclusions.txt	LTP220	ltpFR	0	14	0	SCALLOP	1242	n/a	n/a	3	0.57763671875	0.412841796875	1	lower	amplitud.ttf
3698071	KEY_MSG	n/a	LTP220	ltpFR	0	14	n/a	n/a	n/a	n/a	n/a	n/a	n/a	n/a	n/a	n/a	n/a
3701015	WORD	wordpools/wasnorm_wordpool_less_exclusions.txt	LTP220	ltpFR	0	14	0	MICROWAVE	892	n/a	n/a	0	0.57763671875	0.412841796875	1	lower	amplitud.ttf
3705057	WORD	wordpools/wasnorm_wordpool_less_exclusions.txt	LTP220	ltpFR	0	14	0	LAKE	796	n/a	n/a	1	0.57763671875	0.412841796875	1	lower	amplitud.ttf
3708995	WORD	wordpools/wasnorm_wordpool_less_exclusions.txt	LTP220	ltpFR	0	14	0	BRANCH	168	n/a	n/a	1	0.57763671875	0.412841796875	1	lower	amplitud.ttf
3712911	WORD	wordpools/wasnorm_wordpool_less_exclusions.txt	LTP220	ltpFR	0	14	0	TIMBER	1469	n/a	n/a	1	0.57763671875	0.412841796875	1	lower	amplitud.ttf
3716985	WORD	wordpools/wasnorm_wordpool_less_exclusions.txt	LTP220	ltpFR	0	14	1	SWAMP	1416	n/a	n/a	1	0.422607421875	0.5869140625	0	upper	zerothre.ttf
3720824	WORD	wordpools/wasnorm_wordpool_less_exclusions.txt	LTP220	ltpFR	0	14	1	GRASSHOPPER	656	n/a	n/a	1	0.422607421875	0.5869140625	0	upper	zerothre.ttf
3725006	WORD	wordpools/wasnorm_wordpool_less_exclusions.txt	LTP220	ltpFR	0	14	0	TUNA	1518	n/a	n/a	3	0.57763671875	0.412841796875	1	lower	amplitud.ttf
3726076	KEY_MSG	n/a	LTP220	ltpFR	0	14	n/a	n/a	n/a	n/a	n/a	n/a	n/a	n/a	n/a	n/a	n/a
3728938	WORD	wordpools/wasnorm_wordpool_less_exclusions.txt	LTP220	ltpFR	0	14	0	PIKE	1067	n/a	n/a	1	0.57763671875	0.412841796875	1	lower	amplitud.ttf
3733003	WORD	wordpools/wasnorm_wordpool_less_exclusions.txt	LTP220	ltpFR	0	14	0	INN	739	n/a	n/a	1	0.57763671875	0.412841796875	1	lower	amplitud.ttf
3737085	WORD	wordpools/wasnorm_wordpool_less_exclusions.txt	LTP220	ltpFR	0	14	1	JOKER	759	n/a	n/a	n/a	0.422607421875	0.5869140625	0	upper	zerothre.ttf
3740129	SLOW_MSG	n/a	LTP220	ltpFR	0	14	n/a	n/a	n/a	n/a	n/a	n/a	n/a	n/a	n/a	n/a	n/a
3742549	WORD	wordpools/wasnorm_wordpool_less_exclusions.txt	LTP220	ltpFR	0	14	1	WALRUS	1585	n/a	n/a	1	0.422607421875	0.5869140625	0	upper	zerothre.ttf
3748673	REC_START	n/a	LTP220	ltpFR	0	14	n/a	n/a	n/a	n/a	n/a	n/a	n/a	n/a	n/a	n/a	n/a
3750144	REC_WORD	wordpools/wasnorm_wordpool_less_exclusions.txt	LTP220	ltpFR	0	14	1	WALRUS	1585	n/a	n/a	1	n/a	n/a	n/a	n/a	n/a
3751122	REC_WORD	wordpools/wasnorm_wordpool_less_exclusions.txt	LTP220	ltpFR	0	14	1	JOKER	759	n/a	n/a	n/a	n/a	n/a	n/a	n/a	n/a
3753457	REC_WORD	wordpools/wasnorm_wordpool_less_exclusions.txt	LTP220	ltpFR	0	14	0	PIKE	1067	n/a	n/a	1	n/a	n/a	n/a	n/a	n/a
3755956	REC_WORD_VV	wordpools/wasnorm_wordpool_less_exclusions.txt	LTP220	ltpFR	0	14	n/a	<>	-1	n/a	n/a	n/a	n/a	n/a	n/a	n/a	n/a
3756942	REC_WORD_VV	wordpools/wasnorm_wordpool_less_exclusions.txt	LTP220	ltpFR	0	14	n/a	<>	-1	n/a	n/a	n/a	n/a	n/a	n/a	n/a	n/a
3801411	REC_WORD	wordpools/wasnorm_wordpool_less_exclusions.txt	LTP220	ltpFR	0	14	1	MONKEY	911	n/a	n/a	1	n/a	n/a	n/a	n/a	n/a
3803069	REC_WORD	wordpools/wasnorm_wordpool_less_exclusions.txt	LTP220	ltpFR	0	14	1	SEED	1266	n/a	n/a	1	n/a	n/a	n/a	n/a	n/a
3811520	REC_WORD	wordpools/wasnorm_wordpool_less_exclusions.txt	LTP220	ltpFR	0	14	1	WALRUS	1585	n/a	n/a	1	n/a	n/a	n/a	n/a	n/a
3833977	WORD	wordpools/wasnorm_wordpool_less_exclusions.txt	LTP220	ltpFR	0	15	1	WAVE	1596	n/a	n/a	3	0.422607421875	0.5869140625	0	upper	zerothre.ttf
3835356	KEY_MSG	n/a	LTP220	ltpFR	0	15	n/a	n/a	n/a	n/a	n/a	n/a	n/a	n/a	n/a	n/a	n/a
3837966	WORD	wordpools/wasnorm_wordpool_less_exclusions.txt	LTP220	ltpFR	0	15	1	ISLAND	745	n/a	n/a	1	0.422607421875	0.5869140625	0	upper	zerothre.ttf
3841797	WORD	wordpools/wasnorm_wordpool_less_exclusions.txt	LTP220	ltpFR	0	15	0	CUE	422	n/a	n/a	0	0.57763671875	0.412841796875	1	lower	amplitud.ttf
3845879	WORD	wordpools/wasnorm_wordpool_less_exclusions.txt	LTP220	ltpFR	0	15	0	HERD	705	n/a	n/a	1	0.57763671875	0.412841796875	1	lower	amplitud.ttf
3850010	WORD	wordpools/wasnorm_wordpool_less_exclusions.txt	LTP220	ltpFR	0	15	0	ROSE	1212	n/a	n/a	0	0.57763671875	0.412841796875	1	lower	amplitud.ttf
3854193	WORD	wordpools/wasnorm_wordpool_less_exclusions.txt	LTP220	ltpFR	0	15	1	ATTIC	56	n/a	n/a	0	0.422607421875	0.5869140625	0	upper	zerothre.ttf
3858292	WORD	wordpools/wasnorm_wordpool_less_exclusions.txt	LTP220	ltpFR	0	15	1	CALF	222	n/a	n/a	1	0.422607421875	0.5869140625	0	upper	zerothre.ttf
3862156	WORD	wordpools/wasnorm_wordpool_less_exclusions.txt	LTP220	ltpFR	0	15	1	FEATHER	557	n/a	n/a	0	0.422607421875	0.5869140625	0	upper	zerothre.ttf
3866188	WORD	wordpools/wasnorm_wordpool_less_exclusions.txt	LTP220	ltpFR	0	15	1	DOVE	491	n/a	n/a	1	0.422607421875	0.5869140625	0	upper	zerothre.ttf
3870414	WORD	wordpools/wasnorm_wordpool_less_exclusions.txt	LTP220	ltpFR	0	15	1	BOTTLE	153	n/a	n/a	0	0.422607421875	0.5869140625	0	upper	zerothre.ttf
3874470	WORD	wordpools/wasnorm_wordpool_less_exclusions.txt	LTP220	ltpFR	0	15	1	COLLEGE	346	n/a	n/a	1	0.422607421875	0.5869140625	0	upper	zerothre.ttf
3878318	WORD	wordpools/wasnorm_wordpool_less_exclusions.txt	LTP220	ltpFR	0	15	0	PELICAN	1039	n/a	n/a	n/a	0.57763671875	0.412841796875	1	lower	amplitud.ttf
3881363	SLOW_MSG	n/a	LTP220	ltpFR	0	15	n/a	n/a	n/a	n/a	n/a	n/a	n/a	n/a	n/a	n/a	n/a
3883815	WORD	wordpools/wasnorm_wordpool_less_exclusions.txt	LTP220	ltpFR	0	15	0	SCARECROW	1245	n/a	n/a	1	0.57763671875	0.412841796875	1	lower	amplitud.ttf
3888030	WORD	wordpools/wasnorm_wordpool_less_exclusions.txt	LTP220	ltpFR	0	15	0	TILE	1468	n/a	n/a	0	0.57763671875	0.412841796875	1	lower	amplitud.ttf
3891962	WORD	wordpools/wasnorm_wordpool_less_exclusions.txt	LTP220	ltpFR	0	15	0	POWDER	1117	n/a	n/a	0	0.57763671875	0.412841796875	1	lower	amplitud.ttf
3895851	WORD	wordpools/wasnorm_wordpool_less_exclusions.txt	LTP220	ltpFR	0	15	0	CACTUS	215	n/a	n/a	1	0.57763671875	0.412841796875	1	lower	amplitud.ttf
3901673	REC_START	n/a	LTP220	ltpFR	0	15	n/a	n/a	n/a	n/a	n/a	n/a	n/a	n/a	n/a	n/a	n/a
3903783	REC_WORD	wordpools/wasnorm_wordpool_less_exclusions.txt	LTP220	ltpFR	0	15	0	CACTUS	215	n/a	n/a	1	n/a	n/a	n/a	n/a	n/a
3904786	REC_WORD	wordpools/wasnorm_wordpool_less_exclusions.txt	LTP220	ltpFR	0	15	0	POWDER	1117	n/a	n/a	0	n/a	n/a	n/a	n/a	n/a
3907730	REC_WORD_VV	wordpools/wasnorm_wordpool_less_exclusions.txt	LTP220	ltpFR	0	15	n/a	<>	-1	n/a	n/a	n/a	n/a	n/a	n/a	n/a	n/a
3908718	REC_WORD_VV	wordpools/wasnorm_wordpool_less_exclusions.txt	LTP220	ltpFR	0	15	n/a	<>	-1	n/a	n/a	n/a	n/a	n/a	n/a	n/a	n/a
3915000	REC_WORD	wordpools/wasnorm_wordpool_less_exclusions.txt	LTP220	ltpFR	0	15	1	CALF	222	n/a	n/a	1	n/a	n/a	n/a	n/a	n/a
3925432	REC_WORD	wordpools/wasnorm_wordpool_less_exclusions.txt	LTP220	ltpFR	0	15	0	ROSE	1212	n/a	n/a	0	n/a	n/a	n/a	n/a	n/a
3942814	REC_WORD	wordpools/wasnorm_wordpool_less_exclusions.txt	LTP220	ltpFR	0	15	0	TILE	1468	n/a	n/a	0	n/a	n/a	n/a	n/a	n/a
3954467	REC_WORD	wordpools/wasnorm_wordpool_less_exclusions.txt	LTP220	ltpFR	0	15	1	FEATHER	557	n/a	n/a	0	n/a	n/a	n/a	n/a	n/a
3962385	REC_WORD	wordpools/wasnorm_wordpool_less_exclusions.txt	LTP220	ltpFR	0	15	0	PELICAN	1039	n/a	n/a	n/a	n/a	n/a	n/a	n/a	n/a
3968303	REC_WORD_VV	wordpools/wasnorm_wordpool_less_exclusions.txt	LTP220	ltpFR	0	15	n/a	<>	-1	n/a	n/a	n/a	n/a	n/a	n/a	n/a	n/a
3969300	REC_WORD_VV	wordpools/wasnorm_wordpool_less_exclusions.txt	LTP220	ltpFR	0	15	n/a	<>	-1	n/a	n/a	n/a	n/a	n/a	n/a	n/a	n/a
3988376	WORD	wordpools/wasnorm_wordpool_less_exclusions.txt	LTP220	ltpFR	0	16	0	TUB	1514	n/a	n/a	1	0.57763671875	0.412841796875	1	lower	amplitud.ttf
3992415	WORD	wordpools/wasnorm_wordpool_less_exclusions.txt	LTP220	ltpFR	0	16	0	BUTTERFLY	206	n/a	n/a	0	0.57763671875	0.412841796875	1	lower	amplitud.ttf
3996547	WORD	wordpools/wasnorm_wordpool_less_exclusions.txt	LTP220	ltpFR	0	16	0	TACK	1428	n/a	n/a	0	0.57763671875	0.412841796875	1	lower	amplitud.ttf
4000595	WORD	wordpools/wasnorm_wordpool_less_exclusions.txt	LTP220	ltpFR	0	16	0	STRANGER	1389	n/a	n/a	1	0.57763671875	0.412841796875	1	lower	amplitud.ttf
4004560	WORD	wordpools/wasnorm_wordpool_less_exclusions.txt	LTP220	ltpFR	0	16	1	VOLUNTEER	1577	n/a	n/a	1	0.422607421875	0.5869140625	0	upper	zerothre.ttf
4008759	WORD	wordpools/wasnorm_wordpool_less_exclusions.txt	LTP220	ltpFR	0	16	1	BOAT	144	n/a	n/a	0	0.422607421875	0.5869140625	0	upper	zerothre.ttf
4012875	WORD	wordpools/wasnorm_wordpool_less_exclusions.txt	LTP220	ltpFR	0	16	0	RIVER	1194	n/a	n/a	3	0.57763671875	0.412841796875	1	lower	amplitud.ttf
4015234	KEY_MSG	n/a	LTP220	ltpFR	0	16	n/a	n/a	n/a	n/a	n/a	n/a	n/a	n/a	n/a	n/a	n/a
4017602	WORD	wordpools/wasnorm_wordpool_less_exclusions.txt	LTP220	ltpFR	0	16	0	AFRICA	9	n/a	n/a	1	0.57763671875	0.412841796875	1	lower	amplitud.ttf
4021692	WORD	wordpools/wasnorm_wordpool_less_exclusions.txt	LTP220	ltpFR	0	16	0	LOG	841	n/a	n/a	1	0.57763671875	0.412841796875	1	lower	amplitud.ttf
4025666	WORD	wordpools/wasnorm_wordpool_less_exclusions.txt	LTP220	ltpFR	0	16	0	MATCH	878	n/a	n/a	0	0.57763671875	0.412841796875	1	lower	amplitud.ttf
4029805	WORD	wordpools/wasnorm_wordpool_less_exclusions.txt	LTP220	ltpFR	0	16	1	PARENT	1013	n/a	n/a	1	0.422607421875	0.5869140625	0	upper	zerothre.ttf
4033887	WORD	wordpools/wasnorm_wordpool_less_exclusions.txt	LTP220	ltpFR	0	16	1	MOTHER	921	n/a	n/a	1	0.422607421875	0.5869140625	0	upper	zerothre.ttf
4037752	WORD	wordpools/wasnorm_wordpool_less_exclusions.txt	LTP220	ltpFR	0	16	1	VISITOR	1573	n/a	n/a	1	0.422607421875	0.5869140625	0	upper	zerothre.ttf
4041633	WORD	wordpools/wasnorm_wordpool_less_exclusions.txt	LTP220	ltpFR	0	16	1	TOMATO	1476	n/a	n/a	1	0.422607421875	0.5869140625	0	upper	zerothre.ttf
4045742	WORD	wordpools/wasnorm_wordpool_less_exclusions.txt	LTP220	ltpFR	0	16	1	RASH	1167	n/a	n/a	0	0.422607421875	0.5869140625	0	upper	zerothre.ttf
4049941	WORD	wordpools/wasnorm_wordpool_less_exclusions.txt	LTP220	ltpFR	0	16	1	JUG	762	n/a	n/a	0	0.422607421875	0.5869140625	0	upper	zerothre.ttf
4055680	REC_START	n/a	LTP220	ltpFR	0	16	n/a	n/a	n/a	n/a	n/a	n/a	n/a	n/a	n/a	n/a	n/a
4057531	REC_WORD	wordpools/wasnorm_wordpool_less_exclusions.txt	LTP220	ltpFR	0	16	1	JUG	762	n/a	n/a	0	n/a	n/a	n/a	n/a	n/a
4059486	REC_WORD	wordpools/wasnorm_wordpool_less_exclusions.txt	LTP220	ltpFR	0	16	1	RASH	1167	n/a	n/a	0	n/a	n/a	n/a	n/a	n/a
4062230	REC_WORD	wordpools/wasnorm_wordpool_less_exclusions.txt	LTP220	ltpFR	0	16	1	MOTHER	921	n/a	n/a	1	n/a	n/a	n/a	n/a	n/a
4096687	REC_WORD	wordpools/wasnorm_wordpool_less_exclusions.txt	LTP220	ltpFR	0	16	0	MATCH	878	n/a	n/a	0	n/a	n/a	n/a	n/a	n/a
4097313	REC_WORD	wordpools/wasnorm_wordpool_less_exclusions.txt	LTP220	ltpFR	0	16	0	LOG	841	n/a	n/a	1	n/a	n/a	n/a	n/a	n/a
4104284	REC_WORD	wordpools/wasnorm_wordpool_less_exclusions.txt	LTP220	ltpFR	0	16	0	TWIG	1527	n/a	n/a	0	n/a	n/a	n/a	n/a	n/a
4117035	REC_WORD	wordpools/wasnorm_wordpool_less_exclusions.txt	LTP220	ltpFR	0	16	1	HUT	729	n/a	n/a	0	n/a	n/a	n/a	n/a	n/a
4225437	REC_START	n/a	LTP220	ltpFR	0	n/a	n/a	n/a	n/a	n/a	n/a	n/a	n/a	n/a	n/a	n/a	n/a
4227028	FFR_REC_WORD	wordpools/wasnorm_wordpool_less_exclusions.txt	LTP220	ltpFR	0	n/a	1	MONKEY	911	n/a	n/a	1	n/a	n/a	n/a	n/a	n/a
4228031	FFR_REC_WORD_VV	wordpools/wasnorm_wordpool_less_exclusions.txt	LTP220	ltpFR	0	n/a	n/a	<>	-1	n/a	n/a	n/a	n/a	n/a	n/a	n/a	n/a
4228749	FFR_REC_WORD	wordpools/wasnorm_wordpool_less_exclusions.txt	LTP220	ltpFR	0	n/a	1	GIRAFFE	636	n/a	n/a	1	n/a	n/a	n/a	n/a	n/a
4230445	FFR_REC_WORD	wordpools/wasnorm_wordpool_less_exclusions.txt	LTP220	ltpFR	0	n/a	0	OX	994	n/a	n/a	n/a	n/a	n/a	n/a	n/a	n/a
4231435	FFR_REC_WORD_VV	wordpools/wasnorm_wordpool_less_exclusions.txt	LTP220	ltpFR	0	n/a	n/a	<>	-1	n/a	n/a	n/a	n/a	n/a	n/a	n/a	n/a
4234571	FFR_REC_WORD	wordpools/wasnorm_wordpool_less_exclusions.txt	LTP220	ltpFR	0	n/a	1	FEATHER	557	n/a	n/a	0	n/a	n/a	n/a	n/a	n/a
4235597	FFR_REC_WORD_VV	wordpools/wasnorm_wordpool_less_exclusions.txt	LTP220	ltpFR	0	n/a	n/a	<>	-1	n/a	n/a	n/a	n/a	n/a	n/a	n/a	n/a
4241974	FFR_REC_WORD	wordpools/wasnorm_wordpool_less_exclusions.txt	LTP220	ltpFR	0	n/a	0	PELICAN	1039	n/a	n/a	n/a	n/a	n/a	n/a	n/a	n/a
4243880	FFR_REC_WORD	wordpools/wasnorm_wordpool_less_exclusions.txt	LTP220	ltpFR	0	n/a	1	CORAL	378	n/a	n/a	1	n/a	n/a	n/a	n/a	n/a
4244623	FFR_REC_WORD	wordpools/wasnorm_wordpool_less_exclusions.txt	LTP220	ltpFR	0	n/a	1	REEF	1177	n/a	n/a	1	n/a	n/a	n/a	n/a	n/a
4249263	FFR_REC_WORD	wordpools/wasnorm_wordpool_less_exclusions.txt	LTP220	ltpFR	0	n/a	-1	TIDE	1465	n/a	n/a	-1	n/a	n/a	n/a	n/a	n/a
4250146	FFR_REC_WORD	wordpools/wasnorm_wordpool_less_exclusions.txt	LTP220	ltpFR	0	n/a	n/a	PAWN	1030	n/a	n/a	n/a	n/a	n/a	n/a	n/a	n/a
4258542	FFR_REC_WORD	wordpools/wasnorm_wordpool_less_exclusions.txt	LTP220	ltpFR	0	n/a	1	SERGEANT	1269	n/a	n/a	1	n/a	n/a	n/a	n/a	n/a
4261285	FFR_REC_WORD	wordpools/wasnorm_wordpool_less_exclusions.txt	LTP220	ltpFR	0	n/a	0	MANAGER	863	n/a	n/a	0	n/a	n/a	n/a	n/a	n/a
4262463	FFR_REC_WORD	wordpools/wasnorm_wordpool_less_exclusions.txt	LTP220	ltpFR	0	n/a	1	STAFF	1365	n/a	n/a	1	n/a	n/a	n/a	n/a	n/a
4270045	FFR_REC_WORD	wordpools/wasnorm_wordpool_less_exclusions.txt	LTP220	ltpFR	0	n/a	0	ESSAY	540	n/a	n/a	1	n/a	n/a	n/a	n/a	n/a
4274480	FFR_REC_WORD	wordpools/wasnorm_wordpool_less_exclusions.txt	LTP220	ltpFR	0	n/a	1	KITCHEN	778	n/a	n/a	0	n/a	n/a	n/a	n/a	n/a
4275363	FFR_REC_WORD	wordpools/wasnorm_wordpool_less_exclusions.txt	LTP220	ltpFR	0	n/a	1	RECIPE	1175	n/a	n/a	0	n/a	n/a	n/a	n/a	n/a
4281519	FFR_REC_WORD	wordpools/wasnorm_wordpool_less_exclusions.txt	LTP220	ltpFR	0	n/a	n/a	BOLT	146	n/a	n/a	n/a	n/a	n/a	n/a	n/a	n/a
4281969	FFR_REC_WORD	wordpools/wasnorm_wordpool_less_exclusions.txt	LTP220	ltpFR	0	n/a	1	HINGE	709	n/a	n/a	0	n/a	n/a	n/a	n/a	n/a
4291786	FFR_REC_WORD	wordpools/wasnorm_wordpool_less_exclusions.txt	LTP220	ltpFR	0	n/a	1	MOUSE	925	n/a	n/a	1	n/a	n/a	n/a	n/a	n/a
4302581	FFR_REC_WORD	wordpools/wasnorm_wordpool_less_exclusions.txt	LTP220	ltpFR	0	n/a	1	MOTHER	921	n/a	n/a	1	n/a	n/a	n/a	n/a	n/a
4308483	FFR_REC_WORD	wordpools/wasnorm_wordpool_less_exclusions.txt	LTP220	ltpFR	0	n/a	0	BULLY	196	n/a	n/a	n/a	n/a	n/a	n/a	n/a	n/a
4321089	FFR_REC_WORD	wordpools/wasnorm_wordpool_less_exclusions.txt	LTP220	ltpFR	0	n/a	-1	GRAVEL	659	n/a	n/a	-1	n/a	n/a	n/a	n/a	n/a
4321928	FFR_REC_WORD	wordpools/wasnorm_wordpool_less_exclusions.txt	LTP220	ltpFR	0	n/a	-1	ROAD	1196	n/a	n/a	-1	n/a	n/a	n/a	n/a	n/a
4322561	FFR_REC_WORD	wordpools/wasnorm_wordpool_less_exclusions.txt	LTP220	ltpFR	0	n/a	-1	BUILDING	191	n/a	n/a	-1	n/a	n/a	n/a	n/a	n/a
4324671	FFR_REC_WORD	wordpools/wasnorm_wordpool_less_exclusions.txt	LTP220	ltpFR	0	n/a	-1	DESIGNER	451	n/a	n/a	-1	n/a	n/a	n/a	n/a	n/a
4333835	FFR_REC_WORD	wordpools/wasnorm_wordpool_less_exclusions.txt	LTP220	ltpFR	0	n/a	1	SEED	1266	n/a	n/a	1	n/a	n/a	n/a	n/a	n/a
4335706	FFR_REC_WORD	wordpools/wasnorm_wordpool_less_exclusions.txt	LTP220	ltpFR	0	n/a	0	ROSE	1212	n/a	n/a	0	n/a	n/a	n/a	n/a	n/a
4340418	FFR_REC_WORD	wordpools/wasnorm_wordpool_less_exclusions.txt	LTP220	ltpFR	0	n/a	1	PORPOISE	1109	n/a	n/a	1	n/a	n/a	n/a	n/a	n/a
4356604	FFR_REC_WORD	wordpools/wasnorm_wordpool_less_exclusions.txt	LTP220	ltpFR	0	n/a	0	CAKE	219	n/a	n/a	0	n/a	n/a	n/a	n/a	n/a
4377177	FFR_REC_WORD	wordpools/wasnorm_wordpool_less_exclusions.txt	LTP220	ltpFR	0	n/a	-1	NAPKIN	937	n/a	n/a	-1	n/a	n/a	n/a	n/a	n/a
4396458	FFR_REC_WORD	wordpools/wasnorm_wordpool_less_exclusions.txt	LTP220	ltpFR	0	n/a	0	TILE	1468	n/a	n/a	0	n/a	n/a	n/a	n/a	n/a
4440947	FFR_REC_WORD	wordpools/wasnorm_wordpool_less_exclusions.txt	LTP220	ltpFR	0	n/a	0	LIVER	833	n/a	n/a	n/a	n/a	n/a	n/a	n/a	n/a
4459814	FFR_REC_WORD	wordpools/wasnorm_wordpool_less_exclusions.txt	LTP220	ltpFR	0	n/a	0	MANAGER	863	n/a	n/a	0	n/a	n/a	n/a	n/a	n/a
4465197	FFR_REC_WORD	wordpools/wasnorm_wordpool_less_exclusions.txt	LTP220	ltpFR	0	n/a	1	COLLEGE	346	n/a	n/a	1	n/a	n/a	n/a	n/a	n/a
4475648	FFR_REC_WORD	wordpools/wasnorm_wordpool_less_exclusions.txt	LTP220	ltpFR	0	n/a	0	INN	739	n/a	n/a	1	n/a	n/a	n/a	n/a	n/a
4488549	FFR_REC_WORD	wordpools/wasnorm_wordpool_less_exclusions.txt	LTP220	ltpFR	0	n/a	-1	ANCHOR	21	n/a	n/a	-1	n/a	n/a	n/a	n/a	n/a
4489327	FFR_REC_WORD	wordpools/wasnorm_wordpool_less_exclusions.txt	LTP220	ltpFR	0	n/a	-1	SAILOR	1223	n/a	n/a	-1	n/a	n/a	n/a	n/a	n/a
4491427	FFR_REC_WORD	wordpools/wasnorm_wordpool_less_exclusions.txt	LTP220	ltpFR	0	n/a	-1	DECK	443	n/a	n/a	-1	n/a	n/a	n/a	n/a	n/a
4494171	FFR_REC_WORD	wordpools/wasnorm_wordpool_less_exclusions.txt	LTP220	ltpFR	0	n/a	-1	BARK	87	n/a	n/a	-1	n/a	n/a	n/a	n/a	n/a
4513901	FFR_REC_WORD	wordpools/wasnorm_wordpool_less_exclusions.txt	LTP220	ltpFR	0	n/a	1	WAVE	1596	n/a	n/a	3	n/a	n/a	n/a	n/a	n/a
4523318	FFR_REC_WORD	wordpools/wasnorm_wordpool_less_exclusions.txt	LTP220	ltpFR	0	n/a	0	MATCH	878	n/a	n/a	0	n/a	n/a	n/a	n/a	n/a
4854792	REC_START	n/a	LTP220	ltpFR	0	1	n/a	n/a	n/a	n/a	n/a	n/a	n/a	n/a	n/a	n/a	n/a
4854848	RECOG_TARGET	n/a	LTP220	ltpFR	0	1	0	ANTEATER	26	0	5	1	n/a	n/a	n/a	n/a	n/a
4857361	RECOG_RESP	n/a	LTP220	ltpFR	0	1	0	ANTEATER	26	0	n/a	1	n/a	n/a	n/a	n/a	n/a
4862200	RECOG_CONF	n/a	LTP220	ltpFR	0	1	0	ANTEATER	26	n/a	5	1	n/a	n/a	n/a	n/a	n/a
4866418	RECOG_TARGET	n/a	LTP220	ltpFR	0	1	-1	HELICOPTER	701	1	5	-1	n/a	n/a	n/a	n/a	n/a
4869114	RECOG_RESP	n/a	LTP220	ltpFR	0	1	-1	HELICOPTER	701	1	n/a	-1	n/a	n/a	n/a	n/a	n/a
4875629	RECOG_RESP_VV	n/a	LTP220	ltpFR	0	1	-1	HELICOPTER	701	n/a	5	-1	n/a	n/a	n/a	n/a	n/a
4879660	RECOG_CONF	n/a	LTP220	ltpFR	0	1	-1	HELICOPTER	701	n/a	5	-1	n/a	n/a	n/a	n/a	n/a
4883690	RECOG_TARGET	n/a	LTP220	ltpFR	0	1	1	QUARTER	1148	1	4	0	n/a	n/a	n/a	n/a	n/a
4888560	RECOG_RESP	n/a	LTP220	ltpFR	0	1	1	QUARTER	1148	1	n/a	0	n/a	n/a	n/a	n/a	n/a
4895584	RECOG_CONF	n/a	LTP220	ltpFR	0	1	1	QUARTER	1148	n/a	4	0	n/a	n/a	n/a	n/a	n/a
4898814	RECOG_LURE	n/a	LTP220	ltpFR	0	1	n/a	DICE	461	0	5	n/a	n/a	n/a	n/a	n/a	n/a
4900707	RECOG_RESP	n/a	LTP220	ltpFR	0	1	n/a	DICE	461	0	n/a	n/a	n/a	n/a	n/a	n/a	n/a
4906429	RECOG_CONF	n/a	LTP220	ltpFR	0	1	n/a	DICE	461	n/a	5	n/a	n/a	n/a	n/a	n/a	n/a
4909320	RECOG_TARGET	n/a	LTP220	ltpFR	0	1	-1	ROAD	1196	1	5	-1	n/a	n/a	n/a	n/a	n/a
4913029	RECOG_RESP	n/a	LTP220	ltpFR	0	1	-1	ROAD	1196	1	n/a	-1	n/a	n/a	n/a	n/a	n/a
4917554	RECOG_CONF	n/a	LTP220	ltpFR	0	1	-1	ROAD	1196	n/a	5	-1	n/a	n/a	n/a	n/a	n/a
4919719	RECOG_TARGET	n/a	LTP220	ltpFR	0	1	0	PIRATE	1074	1	5	1	n/a	n/a	n/a	n/a	n/a
4921760	RECOG_RESP	n/a	LTP220	ltpFR	0	1	0	PIRATE	1074	1	n/a	1	n/a	n/a	n/a	n/a	n/a
4924518	RECOG_CONF	n/a	LTP220	ltpFR	0	1	0	PIRATE	1074	n/a	5	1	n/a	n/a	n/a	n/a	n/a
4926769	RECOG_TARGET	n/a	LTP220	ltpFR	0	1	1	ROOT	1210	1	5	1	n/a	n/a	n/a	n/a	n/a
4928454	RECOG_RESP	n/a	LTP220	ltpFR	0	1	1	ROOT	1210	1	n/a	1	n/a	n/a	n/a	n/a	n/a
4932261	RECOG_CONF	n/a	LTP220	ltpFR	0	1	1	ROOT	1210	n/a	5	1	n/a	n/a	n/a	n/a	n/a
4935093	RECOG_TARGET	n/a	LTP220	ltpFR	0	1	1	MONKEY	911	1	5	1	n/a	n/a	n/a	n/a	n/a
4936516	RECOG_RESP	n/a	LTP220	ltpFR	0	1	1	MONKEY	911	1	n/a	1	n/a	n/a	n/a	n/a	n/a
4939953	RECOG_CONF	n/a	LTP220	ltpFR	0	1	1	MONKEY	911	n/a	5	1	n/a	n/a	n/a	n/a	n/a
4942210	RECOG_TARGET	n/a	LTP220	ltpFR	0	1	0	TANGERINE	1431	1	3	3	n/a	n/a	n/a	n/a	n/a
4946828	RECOG_RESP	n/a	LTP220	ltpFR	0	1	0	TANGERINE	1431	1	n/a	3	n/a	n/a	n/a	n/a	n/a
4951008	RECOG_CONF	n/a	LTP220	ltpFR	0	1	0	TANGERINE	1431	n/a	3	3	n/a	n/a	n/a	n/a	n/a
4953161	RECOG_LURE	n/a	LTP220	ltpFR	0	1	n/a	MAN	862	0	3	n/a	n/a	n/a	n/a	n/a	n/a
4959873	RECOG_RESP	n/a	LTP220	ltpFR	0	1	n/a	MAN	862	0	n/a	n/a	n/a	n/a	n/a	n/a	n/a
4963939	RECOG_CONF	n/a	LTP220	ltpFR	0	1	n/a	MAN	862	n/a	3	n/a	n/a	n/a	n/a	n/a	n/a
4966026	RECOG_TARGET	n/a	LTP220	ltpFR	0	1	-1	DUNGEON	507	0	4	-1	n/a	n/a	n/a	n/a	n/a
4968723	RECOG_RESP	n/a	LTP220	ltpFR	0	1	-1	DUNGEON	507	0	n/a	-1	n/a	n/a	n/a	n/a	n/a
4972250	RECOG_CONF	n/a	LTP220	ltpFR	0	1	-1	DUNGEON	507	n/a	4	-1	n/a	n/a	n/a	n/a	n/a
4974408	RECOG_TARGET	n/a	LTP220	ltpFR	0	1	1	WRIST	1626	1	5	1	n/a	n/a	n/a	n/a	n/a
4976151	RECOG_RESP	n/a	LTP220	ltpFR	0	1	1	WRIST	1626	1	n/a	1	n/a	n/a	n/a	n/a	n/a
4978735	RECOG_CONF	n/a	LTP220	ltpFR	0	1	1	WRIST	1626	n/a	5	1	n/a	n/a	n/a	n/a	n/a
4981140	RECOG_TARGET	n/a	LTP220	ltpFR	0	1	1	TURKEY	1520	1	4	1	n/a	n/a	n/a	n/a	n/a
4982711	RECOG_RESP	n/a	LTP220	ltpFR	0	1	1	TURKEY	1520	1	n/a	1	n/a	n/a	n/a	n/a	n/a
4985500	RECOG_CONF	n/a	LTP220	ltpFR	0	1	1	TURKEY	1520	n/a	4	1	n/a	n/a	n/a	n/a	n/a
4987742	RECOG_LURE	n/a	LTP220	ltpFR	0	1	n/a	LAMB	797	0	5	n/a	n/a	n/a	n/a	n/a	n/a
4989296	RECOG_RESP	n/a	LTP220	ltpFR	0	1	n/a	LAMB	797	0	n/a	n/a	n/a	n/a	n/a	n/a	n/a
4992035	RECOG_CONF	n/a	LTP220	ltpFR	0	1	n/a	LAMB	797	n/a	5	n/a	n/a	n/a	n/a	n/a	n/a
4993988	RECOG_TARGET	n/a	LTP220	ltpFR	0	1	0	TUB	1514	1	5	1	n/a	n/a	n/a	n/a	n/a
4996465	RECOG_RESP	n/a	LTP220	ltpFR	0	1	0	TUB	1514	1	n/a	1	n/a	n/a	n/a	n/a	n/a
5000426	RECOG_CONF	n/a	LTP220	ltpFR	0	1	0	TUB	1514	n/a	5	1	n/a	n/a	n/a	n/a	n/a
5002297	RECOG_TARGET	n/a	LTP220	ltpFR	0	1	-1	MACHINE	852	1	5	-1	n/a	n/a	n/a	n/a	n/a
5003758	RECOG_RESP	n/a	LTP220	ltpFR	0	1	-1	MACHINE	852	1	n/a	-1	n/a	n/a	n/a	n/a	n/a
5006722	RECOG_CONF	n/a	LTP220	ltpFR	0	1	-1	MACHINE	852	n/a	5	-1	n/a	n/a	n/a	n/a	n/a
5008041	RECOG_TARGET	n/a	LTP220	ltpFR	0	1	0	PIKE	1067	1	4	1	n/a	n/a	n/a	n/a	n/a
5011755	RECOG_RESP	n/a	LTP220	ltpFR	0	1	0	PIKE	1067	1	n/a	1	n/a	n/a	n/a	n/a	n/a
5013646	RECOG_CONF	n/a	LTP220	ltpFR	0	1	0	PIKE	1067	n/a	4	1	n/a	n/a	n/a	n/a	n/a
5015865	RECOG_TARGET	n/a	LTP220	ltpFR	0	1	-1	SPINACH	1352	0	2	-1	n/a	n/a	n/a	n/a	n/a
5020984	RECOG_RESP	n/a	LTP220	ltpFR	0	1	-1	SPINACH	1352	0	n/a	-1	n/a	n/a	n/a	n/a	n/a
5023982	RECOG_CONF	n/a	LTP220	ltpFR	0	1	-1	SPINACH	1352	n/a	2	-1	n/a	n/a	n/a	n/a	n/a
5026019	RECOG_TARGET	n/a	LTP220	ltpFR	0	1	0	BLUEPRINT	142	1	5	0	n/a	n/a	n/a	n/a	n/a
5027684	RECOG_RESP	n/a	LTP220	ltpFR	0	1	0	BLUEPRINT	142	1	n/a	0	n/a	n/a	n/a	n/a	n/a
5029939	RECOG_CONF	n/a	LTP220	ltpFR	0	1	0	BLUEPRINT	142	n/a	5	0	n/a	n/a	n/a	n/a	n/a
5032099	RECOG_TARGET	n/a	LTP220	ltpFR	0	1	-1	POND	1101	1	5	-1	n/a	n/a	n/a	n/a	n/a
5033441	RECOG_RESP	n/a	LTP220	ltpFR	0	1	-1	POND	1101	1	n/a	-1	n/a	n/a	n/a	n/a	n/a
5036055	RECOG_CONF	n/a	LTP220	ltpFR	0	1	-1	POND	1101	n/a	5	-1	n/a	n/a	n/a	n/a	n/a
5094997	REC_START	n/a	LTP220	ltpFR	0	2	n/a	n/a	n/a	n/a	n/a	n/a	n/a	n/a	n/a	n/a	n/a
5095052	RECOG_TARGET	n/a	LTP220	ltpFR	0	2	0	GUARDIAN	668	0	4	n/a	n/a	n/a	n/a	n/a	n/a
5097232	RECOG_RESP	n/a	LTP220	ltpFR	0	2	0	GUARDIAN	668	0	n/a	n/a	n/a	n/a	n/a	n/a	n/a
5100270	RECOG_CONF	n/a	LTP220	ltpFR	0	2	0	GUARDIAN	668	n/a	4	n/a	n/a	n/a	n/a	n/a	n/a
5102331	RECOG_LURE	n/a	LTP220	ltpFR	0	2	n/a	AUTOMOBILE	62	0	4	n/a	n/a	n/a	n/a	n/a	n/a
5104685	RECOG_RESP	n/a	LTP220	ltpFR	0	2	n/a	AUTOMOBILE	62	0	n/a	n/a	n/a	n/a	n/a	n/a	n/a
5109190	RECOG_CONF	n/a	LTP220	ltpFR	0	2	n/a	AUTOMOBILE	62	n/a	4	n/a	n/a	n/a	n/a	n/a	n/a
5111733	RECOG_TARGET	n/a	LTP220	ltpFR	0	2	1	MOTHER	921	1	5	1	n/a	n/a	n/a	n/a	n/a
5113540	RECOG_RESP	n/a	LTP220	ltpFR	0	2	1	MOTHER	921	1	n/a	1	n/a	n/a	n/a	n/a	n/a
5116104	RECOG_CONF	n/a	LTP220	ltpFR	0	2	1	MOTHER	921	n/a	5	1	n/a	n/a	n/a	n/a	n/a
5118384	RECOG_TARGET	n/a	LTP220	ltpFR	0	2	-1	DESK	452	1	4	-1	n/a	n/a	n/a	n/a	n/a
5121975	RECOG_RESP	n/a	LTP220	ltpFR	0	2	-1	DESK	452	1	n/a	-1	n/a	n/a	n/a	n/a	n/a
5124225	RECOG_CONF	n/a	LTP220	ltpFR	0	2	-1	DESK	452	n/a	4	-1	n/a	n/a	n/a	n/a	n/a
5126555	RECOG_TARGET	n/a	LTP220	ltpFR	0	2	-1	WINGS	1614	1	4	-1	n/a	n/a	n/a	n/a	n/a
5128371	RECOG_RESP	n/a	LTP220	ltpFR	0	2	-1	WINGS	1614	1	n/a	-1	n/a	n/a	n/a	n/a	n/a
5131678	RECOG_CONF	n/a	LTP220	ltpFR	0	2	-1	WINGS	1614	n/a	4	-1	n/a	n/a	n/a	n/a	n/a
5133599	RECOG_TARGET	n/a	LTP220	ltpFR	0	2	0	DART	440	1	n/a	n/a	n/a	n/a	n/a	n/a	n/a
5135400	RECOG_RESP	n/a	LTP220	ltpFR	0	2	0	DART	440	1	n/a	n/a	n/a	n/a	n/a	n/a	n/a
5138527	RECOG_TARGET	n/a	LTP220	ltpFR	0	2	0	STOOL	1386	0	3	0	n/a	n/a	n/a	n/a	n/a
5142838	RECOG_RESP	n/a	LTP220	ltpFR	0	2	0	STOOL	1386	0	n/a	0	n/a	n/a	n/a	n/a	n/a
5145786	RECOG_CONF	n/a	LTP220	ltpFR	0	2	0	STOOL	1386	n/a	3	0	n/a	n/a	n/a	n/a	n/a
5147929	RECOG_TARGET	n/a	LTP220	ltpFR	0	2	0	FRECKLE	602	1	5	0	n/a	n/a	n/a	n/a	n/a
5149503	RECOG_RESP	n/a	LTP220	ltpFR	0	2	0	FRECKLE	602	1	n/a	0	n/a	n/a	n/a	n/a	n/a
5151863	RECOG_CONF	n/a	LTP220	ltpFR	0	2	0	FRECKLE	602	n/a	5	0	n/a	n/a	n/a	n/a	n/a
5153808	RECOG_LURE	n/a	LTP220	ltpFR	0	2	n/a	CLERK	321	1	3	n/a	n/a	n/a	n/a	n/a	n/a
5160353	RECOG_RESP	n/a	LTP220	ltpFR	0	2	n/a	CLERK	321	1	n/a	n/a	n/a	n/a	n/a	n/a	n/a
5162578	RECOG_CONF	n/a	LTP220	ltpFR	0	2	n/a	CLERK	321	n/a	3	n/a	n/a	n/a	n/a	n/a	n/a
5164883	RECOG_TARGET	n/a	LTP220	ltpFR	0	2	0	TIMBER	1469	1	5	1	n/a	n/a	n/a	n/a	n/a
5168460	RECOG_RESP	n/a	LTP220	ltpFR	0	2	0	TIMBER	1469	1	n/a	1	n/a	n/a	n/a	n/a	n/a
5172645	RECOG_CONF	n/a	LTP220	ltpFR	0	2	0	TIMBER	1469	n/a	5	1	n/a	n/a	n/a	n/a	n/a
5174637	RECOG_TARGET	n/a	LTP220	ltpFR	0	2	0	INN	739	1	5	1	n/a	n/a	n/a	n/a	n/a
5175828	RECOG_RESP	n/a	LTP220	ltpFR	0	2	0	INN	739	1	n/a	1	n/a	n/a	n/a	n/a	n/a
5178392	RECOG_CONF	n/a	LTP220	ltpFR	0	2	0	INN	739	n/a	5	1	n/a	n/a	n/a	n/a	n/a
5180183	RECOG_TARGET	n/a	LTP220	ltpFR	0	2	-1	BARK	87	1	4	-1	n/a	n/a	n/a	n/a	n/a
5182034	RECOG_RESP	n/a	LTP220	ltpFR	0	2	-1	BARK	87	1	n/a	-1	n/a	n/a	n/a	n/a	n/a
5184498	RECOG_CONF	n/a	LTP220	ltpFR	0	2	-1	BARK	87	n/a	4	-1	n/a	n/a	n/a	n/a	n/a
5186508	RECOG_TARGET	n/a	LTP220	ltpFR	0	2	-1	JOURNAL	760	1	4	-1	n/a	n/a	n/a	n/a	n/a
5187731	RECOG_RESP	n/a	LTP220	ltpFR	0	2	-1	JOURNAL	760	1	n/a	-1	n/a	n/a	n/a	n/a	n/a
5190225	RECOG_CONF	n/a	LTP220	ltpFR	0	2	-1	JOURNAL	760	n/a	4	-1	n/a	n/a	n/a	n/a	n/a
5192161	RECOG_TARGET	n/a	LTP220	ltpFR	0	2	0	STALLION	1369	1	3	3	n/a	n/a	n/a	n/a	n/a
5196152	RECOG_RESP	n/a	LTP220	ltpFR	0	2	0	STALLION	1369	1	n/a	3	n/a	n/a	n/a	n/a	n/a
5198556	RECOG_CONF	n/a	LTP220	ltpFR	0	2	0	STALLION	1369	n/a	3	3	n/a	n/a	n/a	n/a	n/a
5200828	RECOG_LURE	n/a	LTP220	ltpFR	0	2	n/a	COFFEE	341	0	3	n/a	n/a	n/a	n/a	n/a	n/a
5204982	RECOG_RESP	n/a	LTP220	ltpFR	0	2	n/a	COFFEE	341	0	n/a	n/a	n/a	n/a	n/a	n/a	n/a
5207337	RECOG_CONF	n/a	LTP220	ltpFR	0	2	n/a	COFFEE	341	n/a	3	n/a	n/a	n/a	n/a	n/a	n/a
5209494	RECOG_TARGET	n/a	LTP220	ltpFR	0	2	0	FLANNEL	574	1	3	0	n/a	n/a	n/a	n/a	n/a
5212784	RECOG_RESP	n/a	LTP220	ltpFR	0	2	0	FLANNEL	574	1	n/a	0	n/a	n/a	n/a	n/a	n/a
5215957	RECOG_CONF	n/a	LTP220	ltpFR	0	2	0	FLANNEL	574	n/a	3	0	n/a	n/a	n/a	n/a	n/a
5217992	RECOG_TARGET	n/a	LTP220	ltpFR	0	2	0	PERSONNEL	1053	1	4	n/a	n/a	n/a	n/a	n/a	n/a
5220217	RECOG_RESP	n/a	LTP220	ltpFR	0	2	0	PERSONNEL	1053	1	n/a	n/a	n/a	n/a	n/a	n/a	n/a
5222642	RECOG_CONF	n/a	LTP220	ltpFR	0	2	0	PERSONNEL	1053	n/a	4	n/a	n/a	n/a	n/a	n/a	n/a
5224601	RECOG_TARGET	n/a	LTP220	ltpFR	0	2	-1	ZIPPER	1636	1	5	-1	n/a	n/a	n/a	n/a	n/a
5225839	RECOG_RESP	n/a	LTP220	ltpFR	0	2	-1	ZIPPER	1636	1	n/a	-1	n/a	n/a	n/a	n/a	n/a
5229247	RECOG_CONF	n/a	LTP220	ltpFR	0	2	-1	ZIPPER	1636	n/a	5	-1	n/a	n/a	n/a	n/a	n/a
5231511	RECOG_TARGET	n/a	LTP220	ltpFR	0	2	0	LAPEL	800	1	5	0	n/a	n/a	n/a	n/a	n/a
5232674	RECOG_RESP	n/a	LTP220	ltpFR	0	2	0	LAPEL	800	1	n/a	0	n/a	n/a	n/a	n/a	n/a
5235463	RECOG_CONF	n/a	LTP220	ltpFR	0	2	0	LAPEL	800	n/a	5	0	n/a	n/a	n/a	n/a	n/a
5237450	RECOG_LURE	n/a	LTP220	ltpFR	0	2	n/a	GAUZE	626	0	2	n/a	n/a	n/a	n/a	n/a	n/a
5240471	RECOG_RESP	n/a	LTP220	ltpFR	0	2	n/a	GAUZE	626	0	n/a	n/a	n/a	n/a	n/a	n/a	n/a
5243055	RECOG_CONF	n/a	LTP220	ltpFR	0	2	n/a	GAUZE	626	n/a	2	n/a	n/a	n/a	n/a	n/a	n/a
5257233	REC_START	n/a	LTP220	ltpFR	0	3	n/a	n/a	n/a	n/a	n/a	n/a	n/a	n/a	n/a	n/a	n/a
5257282	RECOG_LURE	n/a	LTP220	ltpFR	0	3	n/a	FREEZER	604	0	2	n/a	n/a	n/a	n/a	n/a	n/a
5259423	RECOG_RESP	n/a	LTP220	ltpFR	0	3	n/a	FREEZER	604	0	n/a	n/a	n/a	n/a	n/a	n/a	n/a
5261388	RECOG_CONF	n/a	LTP220	ltpFR	0	3	n/a	FREEZER	604	n/a	2	n/a	n/a	n/a	n/a	n/a	n/a
5263153	RECOG_TARGET	n/a	LTP220	ltpFR	0	3	0	RIB	1188	1	5	1	n/a	n/a	n/a	n/a	n/a
5264965	RECOG_RESP	n/a	LTP220	ltpFR	0	3	0	RIB	1188	1	n/a	1	n/a	n/a	n/a	n/a	n/a
5266786	RECOG_CONF	n/a	LTP220	ltpFR	0	3	0	RIB	1188	n/a	5	1	n/a	n/a	n/a	n/a	n/a
5268758	RECOG_TARGET	n/a	LTP220	ltpFR	0	3	1	REINDEER	1181	1	4	1	n/a	n/a	n/a	n/a	n/a
5270094	RECOG_RESP	n/a	LTP220	ltpFR	0	3	1	REINDEER	1181	1	n/a	1	n/a	n/a	n/a	n/a	n/a
5272234	RECOG_CONF	n/a	LTP220	ltpFR	0	3	1	REINDEER	1181	n/a	4	1	n/a	n/a	n/a	n/a	n/a
5274647	RECOG_TARGET	n/a	LTP220	ltpFR	0	3	-1	FLIPPER	580	1	3	-1	n/a	n/a	n/a	n/a	n/a
5278026	RECOG_RESP	n/a	LTP220	ltpFR	0	3	-1	FLIPPER	580	1	n/a	-1	n/a	n/a	n/a	n/a	n/a
5280096	RECOG_CONF	n/a	LTP220	ltpFR	0	3	-1	FLIPPER	580	n/a	3	-1	n/a	n/a	n/a	n/a	n/a
5282653	RECOG_TARGET	n/a	LTP220	ltpFR	0	3	1	GRASSHOPPER	656	1	4	1	n/a	n/a	n/a	n/a	n/a
5283782	RECOG_RESP	n/a	LTP220	ltpFR	0	3	1	GRASSHOPPER	656	1	n/a	1	n/a	n/a	n/a	n/a	n/a
5286222	RECOG_CONF	n/a	LTP220	ltpFR	0	3	1	GRASSHOPPER	656	n/a	4	1	n/a	n/a	n/a	n/a	n/a
5288173	RECOG_LURE	n/a	LTP220	ltpFR	0	3	n/a	COMPUTER	359	0	2	n/a	n/a	n/a	n/a	n/a	n/a
5291694	RECOG_RESP	n/a	LTP220	ltpFR	0	3	n/a	COMPUTER	359	0	n/a	n/a	n/a	n/a	n/a	n/a	n/a
5293675	RECOG_CONF	n/a	LTP220	ltpFR	0	3	n/a	COMPUTER	359	n/a	2	n/a	n/a	n/a	n/a	n/a	n/a
5296479	RECOG_LURE	n/a	LTP220	ltpFR	0	3	n/a	INSECT	740	1	4	n/a	n/a	n/a	n/a	n/a	n/a
5298205	RECOG_RESP	n/a	LTP220	ltpFR	0	3	n/a	INSECT	740	1	n/a	n/a	n/a	n/a	n/a	n/a	n/a
5300879	RECOG_CONF	n/a	LTP220	ltpFR	0	3	n/a	INSECT	740	n/a	4	n/a	n/a	n/a	n/a	n/a	n/a
5302703	RECOG_LURE	n/a	LTP220	ltpFR	0	3	n/a	SAUCER	1237	0	3	n/a	n/a	n/a	n/a	n/a	n/a
5305877	RECOG_RESP	n/a	LTP220	ltpFR	0	3	n/a	SAUCER	1237	0	n/a	n/a	n/a	n/a	n/a	n/a	n/a
5307693	RECOG_CONF	n/a	LTP220	ltpFR	0	3	n/a	SAUCER	1237	n/a	3	n/a	n/a	n/a	n/a	n/a	n/a
5309588	RECOG_TARGET	n/a	LTP220	ltpFR	0	3	1	VIKING	1565	1	5	1	n/a	n/a	n/a	n/a	n/a
5310886	RECOG_RESP	n/a	LTP220	ltpFR	0	3	1	VIKING	1565	1	n/a	1	n/a	n/a	n/a	n/a	n/a
5312692	RECOG_CONF	n/a	LTP220	ltpFR	0	3	1	VIKING	1565	n/a	5	1	n/a	n/a	n/a	n/a	n/a
5314724	RECOG_TARGET	n/a	LTP220	ltpFR	0	3	0	FIREMAN	569	1	5	3	n/a	n/a	n/a	n/a	n/a
5316084	RECOG_RESP	n/a	LTP220	ltpFR	0	3	0	FIREMAN	569	1	n/a	3	n/a	n/a	n/a	n/a	n/a
5317740	RECOG_CONF	n/a	LTP220	ltpFR	0	3	0	FIREMAN	569	n/a	5	3	n/a	n/a	n/a	n/a	n/a
5320027	RECOG_TARGET	n/a	LTP220	ltpFR	0	3	-1	FOX	598	1	5	-1	n/a	n/a	n/a	n/a	n/a
5321068	RECOG_RESP	n/a	LTP220	ltpFR	0	3	-1	FOX	598	1	n/a	-1	n/a	n/a	n/a	n/a	n/a
5323078	RECOG_CONF	n/a	LTP220	ltpFR	0	3	-1	FOX	598	n/a	5	-1	n/a	n/a	n/a	n/a	n/a
5325381	RECOG_TARGET	n/a	LTP220	ltpFR	0	3	0	SEAGULL	1261	1	5	0	n/a	n/a	n/a	n/a	n/a
5326535	RECOG_RESP	n/a	LTP220	ltpFR	0	3	0	SEAGULL	1261	1	n/a	0	n/a	n/a	n/a	n/a	n/a
5328366	RECOG_CONF	n/a	LTP220	ltpFR	0	3	0	SEAGULL	1261	n/a	5	0	n/a	n/a	n/a	n/a	n/a
5330869	RECOG_TARGET	n/a	LTP220	ltpFR	0	3	1	VISITOR	1573	1	5	1	n/a	n/a	n/a	n/a	n/a
5331898	RECOG_RESP	n/a	LTP220	ltpFR	0	3	1	VISITOR	1573	1	n/a	1	n/a	n/a	n/a	n/a	n/a
5333714	RECOG_CONF	n/a	LTP220	ltpFR	0	3	1	VISITOR	1573	n/a	5	1	n/a	n/a	n/a	n/a	n/a
5335794	RECOG_TARGET	n/a	LTP220	ltpFR	0	3	1	COLONEL	348	1	5	1	n/a	n/a	n/a	n/a	n/a
5336897	RECOG_RESP	n/a	LTP220	ltpFR	0	3	1	COLONEL	348	1	n/a	1	n/a	n/a	n/a	n/a	n/a
5338763	RECOG_CONF	n/a	LTP220	ltpFR	0	3	1	COLONEL	348	n/a	5	1	n/a	n/a	n/a	n/a	n/a
5340672	RECOG_LURE	n/a	LTP220	ltpFR	0	3	n/a	ELECTRICIAN	521	1	3	n/a	n/a	n/a	n/a	n/a	n/a
5344784	RECOG_RESP	n/a	LTP220	ltpFR	0	3	n/a	ELECTRICIAN	521	1	n/a	n/a	n/a	n/a	n/a	n/a	n/a
5346475	RECOG_CONF	n/a	LTP220	ltpFR	0	3	n/a	ELECTRICIAN	521	n/a	3	n/a	n/a	n/a	n/a	n/a	n/a
5348525	RECOG_LURE	n/a	LTP220	ltpFR	0	3	n/a	RABBIT	1152	0	3	n/a	n/a	n/a	n/a	n/a	n/a
5353050	RECOG_RESP	n/a	LTP220	ltpFR	0	3	n/a	RABBIT	1152	0	n/a	n/a	n/a	n/a	n/a	n/a	n/a
5354736	RECOG_CONF	n/a	LTP220	ltpFR	0	3	n/a	RABBIT	1152	n/a	3	n/a	n/a	n/a	n/a	n/a	n/a
5356833	RECOG_TARGET	n/a	LTP220	ltpFR	0	3	-1	TIE	1466	1	5	-1	n/a	n/a	n/a	n/a	n/a
5358687	RECOG_RESP	n/a	LTP220	ltpFR	0	3	-1	TIE	1466	1	n/a	-1	n/a	n/a	n/a	n/a	n/a
5360483	RECOG_CONF	n/a	LTP220	ltpFR	0	3	-1	TIE	1466	n/a	5	-1	n/a	n/a	n/a	n/a	n/a
5362404	RECOG_TARGET	n/a	LTP220	ltpFR	0	3	0	CLAMP	316	1	5	0	n/a	n/a	n/a	n/a	n/a
5364005	RECOG_RESP	n/a	LTP220	ltpFR	0	3	0	CLAMP	316	1	n/a	0	n/a	n/a	n/a	n/a	n/a
5365612	RECOG_CONF	n/a	LTP220	ltpFR	0	3	0	CLAMP	316	n/a	5	0	n/a	n/a	n/a	n/a	n/a
5367875	RECOG_TARGET	n/a	LTP220	ltpFR	0	3	1	BOWL	158	1	4	0	n/a	n/a	n/a	n/a	n/a
5369822	RECOG_RESP	n/a	LTP220	ltpFR	0	3	1	BOWL	158	1	n/a	0	n/a	n/a	n/a	n/a	n/a
5372127	RECOG_CONF	n/a	LTP220	ltpFR	0	3	1	BOWL	158	n/a	4	0	n/a	n/a	n/a	n/a	n/a
5374037	RECOG_TARGET	n/a	LTP220	ltpFR	0	3	1	LUNCH	849	1	4	n/a	n/a	n/a	n/a	n/a	n/a
5375349	RECOG_RESP	n/a	LTP220	ltpFR	0	3	1	LUNCH	849	1	n/a	n/a	n/a	n/a	n/a	n/a	n/a
5377664	RECOG_CONF	n/a	LTP220	ltpFR	0	3	1	LUNCH	849	n/a	4	n/a	n/a	n/a	n/a	n/a	n/a
5431319	REC_START	n/a	LTP220	ltpFR	0	4	n/a	n/a	n/a	n/a	n/a	n/a	n/a	n/a	n/a	n/a	n/a
5431371	RECOG_LURE	n/a	LTP220	ltpFR	0	4	n/a	WALL	1582	1	3	n/a	n/a	n/a	n/a	n/a	n/a
5435255	RECOG_RESP	n/a	LTP220	ltpFR	0	4	n/a	WALL	1582	1	n/a	n/a	n/a	n/a	n/a	n/a	n/a
5437610	RECOG_CONF	n/a	LTP220	ltpFR	0	4	n/a	WALL	1582	n/a	3	n/a	n/a	n/a	n/a	n/a	n/a
5439652	RECOG_TARGET	n/a	LTP220	ltpFR	0	4	0	POWDER	1117	1	5	0	n/a	n/a	n/a	n/a	n/a
5441072	RECOG_RESP	n/a	LTP220	ltpFR	0	4	0	POWDER	1117	1	n/a	0	n/a	n/a	n/a	n/a	n/a
5442838	RECOG_CONF	n/a	LTP220	ltpFR	0	4	0	POWDER	1117	n/a	5	0	n/a	n/a	n/a	n/a	n/a
5444822	RECOG_TARGET	n/a	LTP220	ltpFR	0	4	1	DINER	467	1	4	n/a	n/a	n/a	n/a	n/a	n/a
5445776	RECOG_RESP	n/a	LTP220	ltpFR	0	4	1	DINER	467	1	n/a	n/a	n/a	n/a	n/a	n/a	n/a
5447607	RECOG_CONF	n/a	LTP220	ltpFR	0	4	1	DINER	467	n/a	4	n/a	n/a	n/a	n/a	n/a	n/a
5449516	RECOG_TARGET	n/a	LTP220	ltpFR	0	4	0	FELLOW	558	1	4	0	n/a	n/a	n/a	n/a	n/a
5450755	RECOG_RESP	n/a	LTP220	ltpFR	0	4	0	FELLOW	558	1	n/a	0	n/a	n/a	n/a	n/a	n/a
5452426	RECOG_CONF	n/a	LTP220	ltpFR	0	4	0	FELLOW	558	n/a	4	0	n/a	n/a	n/a	n/a	n/a
5454592	RECOG_TARGET	n/a	LTP220	ltpFR	0	4	1	HINGE	709	1	5	0	n/a	n/a	n/a	n/a	n/a
5455619	RECOG_RESP	n/a	LTP220	ltpFR	0	4	1	HINGE	709	1	n/a	0	n/a	n/a	n/a	n/a	n/a
5457365	RECOG_CONF	n/a	LTP220	ltpFR	0	4	1	HINGE	709	n/a	5	0	n/a	n/a	n/a	n/a	n/a
5459319	RECOG_TARGET	n/a	LTP220	ltpFR	0	4	1	ANIMAL	23	1	5	1	n/a	n/a	n/a	n/a	n/a
5460577	RECOG_RESP	n/a	LTP220	ltpFR	0	4	1	ANIMAL	23	1	n/a	1	n/a	n/a	n/a	n/a	n/a
5462433	RECOG_CONF	n/a	LTP220	ltpFR	0	4	1	ANIMAL	23	n/a	5	1	n/a	n/a	n/a	n/a	n/a
5464646	RECOG_TARGET	n/a	LTP220	ltpFR	0	4	0	CHAMPAGNE	278	1	5	1	n/a	n/a	n/a	n/a	n/a
5465676	RECOG_RESP	n/a	LTP220	ltpFR	0	4	0	CHAMPAGNE	278	1	n/a	1	n/a	n/a	n/a	n/a	n/a
5467422	RECOG_CONF	n/a	LTP220	ltpFR	0	4	0	CHAMPAGNE	278	n/a	5	1	n/a	n/a	n/a	n/a	n/a
5469508	RECOG_TARGET	n/a	LTP220	ltpFR	0	4	0	HERD	705	1	5	1	n/a	n/a	n/a	n/a	n/a
5470664	RECOG_RESP	n/a	LTP220	ltpFR	0	4	0	HERD	705	1	n/a	1	n/a	n/a	n/a	n/a	n/a
5472371	RECOG_CONF	n/a	LTP220	ltpFR	0	4	0	HERD	705	n/a	5	1	n/a	n/a	n/a	n/a	n/a
5474417	RECOG_TARGET	n/a	LTP220	ltpFR	0	4	1	LOCK	838	1	4	0	n/a	n/a	n/a	n/a	n/a
5475344	RECOG_RESP	n/a	LTP220	ltpFR	0	4	1	LOCK	838	1	n/a	0	n/a	n/a	n/a	n/a	n/a
5476900	RECOG_CONF	n/a	LTP220	ltpFR	0	4	1	LOCK	838	n/a	4	0	n/a	n/a	n/a	n/a	n/a
5478927	RECOG_LURE	n/a	LTP220	ltpFR	0	4	n/a	TRUCK	1512	1	3	n/a	n/a	n/a	n/a	n/a	n/a
5480322	RECOG_RESP	n/a	LTP220	ltpFR	0	4	n/a	TRUCK	1512	1	n/a	n/a	n/a	n/a	n/a	n/a	n/a
5483046	RECOG_CONF	n/a	LTP220	ltpFR	0	4	n/a	TRUCK	1512	n/a	3	n/a	n/a	n/a	n/a	n/a	n/a
5485099	RECOG_TARGET	n/a	LTP220	ltpFR	0	4	-1	GRAPE	654	1	3	-1	n/a	n/a	n/a	n/a	n/a
5489601	RECOG_RESP	n/a	LTP220	ltpFR	0	4	-1	GRAPE	654	1	n/a	-1	n/a	n/a	n/a	n/a	n/a
5491886	RECOG_CONF	n/a	LTP220	ltpFR	0	4	-1	GRAPE	654	n/a	3	-1	n/a	n/a	n/a	n/a	n/a
5493883	RECOG_TARGET	n/a	LTP220	ltpFR	0	4	1	BISON	131	1	4	1	n/a	n/a	n/a	n/a	n/a
5495867	RECOG_RESP	n/a	LTP220	ltpFR	0	4	1	BISON	131	1	n/a	1	n/a	n/a	n/a	n/a	n/a
5497653	RECOG_CONF	n/a	LTP220	ltpFR	0	4	1	BISON	131	n/a	4	1	n/a	n/a	n/a	n/a	n/a
5499695	RECOG_TARGET	n/a	LTP220	ltpFR	0	4	0	RIVER	1194	1	5	3	n/a	n/a	n/a	n/a	n/a
5500846	RECOG_RESP	n/a	LTP220	ltpFR	0	4	0	RIVER	1194	1	n/a	3	n/a	n/a	n/a	n/a	n/a
5502801	RECOG_CONF	n/a	LTP220	ltpFR	0	4	0	RIVER	1194	n/a	5	3	n/a	n/a	n/a	n/a	n/a
5504724	RECOG_TARGET	n/a	LTP220	ltpFR	0	4	-1	BARRACUDA	90	1	5	-1	n/a	n/a	n/a	n/a	n/a
5505725	RECOG_RESP	n/a	LTP220	ltpFR	0	4	-1	BARRACUDA	90	1	n/a	-1	n/a	n/a	n/a	n/a	n/a
5507580	RECOG_CONF	n/a	LTP220	ltpFR	0	4	-1	BARRACUDA	90	n/a	5	-1	n/a	n/a	n/a	n/a	n/a
5509532	RECOG_LURE	n/a	LTP220	ltpFR	0	4	n/a	WINNER	1615	1	4	n/a	n/a	n/a	n/a	n/a	n/a
5511167	RECOG_RESP	n/a	LTP220	ltpFR	0	4	n/a	WINNER	1615	1	n/a	n/a	n/a	n/a	n/a	n/a	n/a
5512699	RECOG_CONF	n/a	LTP220	ltpFR	0	4	n/a	WINNER	1615	n/a	4	n/a	n/a	n/a	n/a	n/a	n/a
5514812	RECOG_TARGET	n/a	LTP220	ltpFR	0	4	1	CANOE	233	0	3	0	n/a	n/a	n/a	n/a	n/a
5518915	RECOG_RESP	n/a	LTP220	ltpFR	0	4	1	CANOE	233	0	n/a	0	n/a	n/a	n/a	n/a	n/a
5520810	RECOG_CONF	n/a	LTP220	ltpFR	0	4	1	CANOE	233	n/a	3	0	n/a	n/a	n/a	n/a	n/a
5522758	RECOG_TARGET	n/a	LTP220	ltpFR	0	4	0	FIST	572	1	5	1	n/a	n/a	n/a	n/a	n/a
5524751	RECOG_RESP	n/a	LTP220	ltpFR	0	4	0	FIST	572	1	n/a	1	n/a	n/a	n/a	n/a	n/a
5526328	RECOG_CONF	n/a	LTP220	ltpFR	0	4	0	FIST	572	n/a	5	1	n/a	n/a	n/a	n/a	n/a
5528279	RECOG_TARGET	n/a	LTP220	ltpFR	0	4	0	MATCH	878	1	5	0	n/a	n/a	n/a	n/a	n/a
5529211	RECOG_RESP	n/a	LTP220	ltpFR	0	4	0	MATCH	878	1	n/a	0	n/a	n/a	n/a	n/a	n/a
5530711	RECOG_CONF	n/a	LTP220	ltpFR	0	4	0	MATCH	878	n/a	5	0	n/a	n/a	n/a	n/a	n/a
5532763	RECOG_TARGET	n/a	LTP220	ltpFR	0	4	1	JUG	762	1	5	0	n/a	n/a	n/a	n/a	n/a
5533711	RECOG_RESP	n/a	LTP220	ltpFR	0	4	1	JUG	762	1	n/a	0	n/a	n/a	n/a	n/a	n/a
5535497	RECOG_CONF	n/a	LTP220	ltpFR	0	4	1	JUG	762	n/a	5	0	n/a	n/a	n/a	n/a	n/a
5537514	RECOG_TARGET	n/a	LTP220	ltpFR	0	4	1	STICKER	1382	1	4	0	n/a	n/a	n/a	n/a	n/a
5539189	RECOG_RESP	n/a	LTP220	ltpFR	0	4	1	STICKER	1382	1	n/a	0	n/a	n/a	n/a	n/a	n/a
5540695	RECOG_CONF	n/a	LTP220	ltpFR	0	4	1	STICKER	1382	n/a	4	0	n/a	n/a	n/a	n/a	n/a
5548312	REC_START	n/a	LTP220	ltpFR	0	5	n/a	n/a	n/a	n/a	n/a	n/a	n/a	n/a	n/a	n/a	n/a
5548362	RECOG_TARGET	n/a	LTP220	ltpFR	0	5	-1	QUEEN	1149	1	5	-1	n/a	n/a	n/a	n/a	n/a
5549803	RECOG_RESP	n/a	LTP220	ltpFR	0	5	-1	QUEEN	1149	1	n/a	-1	n/a	n/a	n/a	n/a	n/a
5551470	RECOG_CONF	n/a	LTP220	ltpFR	0	5	-1	QUEEN	1149	n/a	5	-1	n/a	n/a	n/a	n/a	n/a
5553257	RECOG_LURE	n/a	LTP220	ltpFR	0	5	n/a	HOSTAGE	722	1	4	n/a	n/a	n/a	n/a	n/a	n/a
5554802	RECOG_RESP	n/a	LTP220	ltpFR	0	5	n/a	HOSTAGE	722	1	n/a	n/a	n/a	n/a	n/a	n/a	n/a
5556279	RECOG_CONF	n/a	LTP220	ltpFR	0	5	n/a	HOSTAGE	722	n/a	4	n/a	n/a	n/a	n/a	n/a	n/a
5558309	RECOG_TARGET	n/a	LTP220	ltpFR	0	5	0	WHISKERS	1605	1	5	0	n/a	n/a	n/a	n/a	n/a
5559861	RECOG_RESP	n/a	LTP220	ltpFR	0	5	0	WHISKERS	1605	1	n/a	0	n/a	n/a	n/a	n/a	n/a
5561946	RECOG_CONF	n/a	LTP220	ltpFR	0	5	0	WHISKERS	1605	n/a	5	0	n/a	n/a	n/a	n/a	n/a
5563803	RECOG_TARGET	n/a	LTP220	ltpFR	0	5	0	LIVER	833	1	5	n/a	n/a	n/a	n/a	n/a	n/a
5564690	RECOG_RESP	n/a	LTP220	ltpFR	0	5	0	LIVER	833	1	n/a	n/a	n/a	n/a	n/a	n/a	n/a
5566286	RECOG_CONF	n/a	LTP220	ltpFR	0	5	0	LIVER	833	n/a	5	n/a	n/a	n/a	n/a	n/a	n/a
5568337	RECOG_LURE	n/a	LTP220	ltpFR	0	5	n/a	STEAM	1375	0	3	n/a	n/a	n/a	n/a	n/a	n/a
5571754	RECOG_RESP	n/a	LTP220	ltpFR	0	5	n/a	STEAM	1375	0	n/a	n/a	n/a	n/a	n/a	n/a	n/a
5573270	RECOG_CONF	n/a	LTP220	ltpFR	0	5	n/a	STEAM	1375	n/a	3	n/a	n/a	n/a	n/a	n/a	n/a
5575380	RECOG_TARGET	n/a	LTP220	ltpFR	0	5	-1	MOTOR	922	1	5	-1	n/a	n/a	n/a	n/a	n/a
5576513	RECOG_RESP	n/a	LTP220	ltpFR	0	5	-1	MOTOR	922	1	n/a	-1	n/a	n/a	n/a	n/a	n/a
5578049	RECOG_CONF	n/a	LTP220	ltpFR	0	5	-1	MOTOR	922	n/a	5	-1	n/a	n/a	n/a	n/a	n/a
5580006	RECOG_TARGET	n/a	LTP220	ltpFR	0	5	0	ROSE	1212	1	5	0	n/a	n/a	n/a	n/a	n/a
5581042	RECOG_RESP	n/a	LTP220	ltpFR	0	5	0	ROSE	1212	1	n/a	0	n/a	n/a	n/a	n/a	n/a
5582788	RECOG_CONF	n/a	LTP220	ltpFR	0	5	0	ROSE	1212	n/a	5	0	n/a	n/a	n/a	n/a	n/a
5584548	RECOG_TARGET	n/a	LTP220	ltpFR	0	5	1	CHAUFFEUR	283	1	4	1	n/a	n/a	n/a	n/a	n/a
5586061	RECOG_RESP	n/a	LTP220	ltpFR	0	5	1	CHAUFFEUR	283	1	n/a	1	n/a	n/a	n/a	n/a	n/a
5588316	RECOG_CONF	n/a	LTP220	ltpFR	0	5	1	CHAUFFEUR	283	n/a	4	1	n/a	n/a	n/a	n/a	n/a
5590220	RECOG_TARGET	n/a	LTP220	ltpFR	0	5	0	JEWEL	757	1	5	0	n/a	n/a	n/a	n/a	n/a
5591100	RECOG_RESP	n/a	LTP220	ltpFR	0	5	0	JEWEL	757	1	n/a	0	n/a	n/a	n/a	n/a	n/a
5592786	RECOG_CONF	n/a	LTP220	ltpFR	0	5	0	JEWEL	757	n/a	5	0	n/a	n/a	n/a	n/a	n/a
5595255	RECOG_LURE	n/a	LTP220	ltpFR	0	5	n/a	PELT	1040	0	2	n/a	n/a	n/a	n/a	n/a	n/a
5597046	RECOG_RESP	n/a	LTP220	ltpFR	0	5	n/a	PELT	1040	0	n/a	n/a	n/a	n/a	n/a	n/a	n/a
5598732	RECOG_CONF	n/a	LTP220	ltpFR	0	5	n/a	PELT	1040	n/a	2	n/a	n/a	n/a	n/a	n/a	n/a
5601069	RECOG_TARGET	n/a	LTP220	ltpFR	0	5	1	CHERRY	293	1	5	1	n/a	n/a	n/a	n/a	n/a
5602284	RECOG_RESP	n/a	LTP220	ltpFR	0	5	1	CHERRY	293	1	n/a	1	n/a	n/a	n/a	n/a	n/a
5604439	RECOG_CONF	n/a	LTP220	ltpFR	0	5	1	CHERRY	293	n/a	5	1	n/a	n/a	n/a	n/a	n/a
5606498	RECOG_TARGET	n/a	LTP220	ltpFR	0	5	1	HOSTESS	723	1	5	1	n/a	n/a	n/a	n/a	n/a
5607383	RECOG_RESP	n/a	LTP220	ltpFR	0	5	1	HOSTESS	723	1	n/a	1	n/a	n/a	n/a	n/a	n/a
5609198	RECOG_CONF	n/a	LTP220	ltpFR	0	5	1	HOSTESS	723	n/a	5	1	n/a	n/a	n/a	n/a	n/a
5611325	RECOG_LURE	n/a	LTP220	ltpFR	0	5	n/a	FUNERAL	613	0	2	n/a	n/a	n/a	n/a	n/a	n/a
5613569	RECOG_RESP	n/a	LTP220	ltpFR	0	5	n/a	FUNERAL	613	0	n/a	n/a	n/a	n/a	n/a	n/a	n/a
5615773	RECOG_CONF	n/a	LTP220	ltpFR	0	5	n/a	FUNERAL	613	n/a	2	n/a	n/a	n/a	n/a	n/a	n/a
5617556	RECOG_TARGET	n/a	LTP220	ltpFR	0	5	-1	COUSIN	392	1	5	-1	n/a	n/a	n/a	n/a	n/a
5618817	RECOG_RESP	n/a	LTP220	ltpFR	0	5	-1	COUSIN	392	1	n/a	-1	n/a	n/a	n/a	n/a	n/a
5620513	RECOG_CONF	n/a	LTP220	ltpFR	0	5	-1	COUSIN	392	n/a	5	-1	n/a	n/a	n/a	n/a	n/a
5622685	RECOG_TARGET	n/a	LTP220	ltpFR	0	5	-1	GRAVEL	659	1	5	-1	n/a	n/a	n/a	n/a	n/a
5623646	RECOG_RESP	n/a	LTP220	ltpFR	0	5	-1	GRAVEL	659	1	n/a	-1	n/a	n/a	n/a	n/a	n/a
5625282	RECOG_CONF	n/a	LTP220	ltpFR	0	5	-1	GRAVEL	659	n/a	5	-1	n/a	n/a	n/a	n/a	n/a
5627460	RECOG_TARGET	n/a	LTP220	ltpFR	0	5	1	CORAL	378	1	5	1	n/a	n/a	n/a	n/a	n/a
5628385	RECOG_RESP	n/a	LTP220	ltpFR	0	5	1	CORAL	378	1	n/a	1	n/a	n/a	n/a	n/a	n/a
5630181	RECOG_CONF	n/a	LTP220	ltpFR	0	5	1	CORAL	378	n/a	5	1	n/a	n/a	n/a	n/a	n/a
5632221	RECOG_TARGET	n/a	LTP220	ltpFR	0	5	0	SIGN	1305	1	5	n/a	n/a	n/a	n/a	n/a	n/a
5633543	RECOG_RESP	n/a	LTP220	ltpFR	0	5	0	SIGN	1305	1	n/a	n/a	n/a	n/a	n/a	n/a	n/a
5635269	RECOG_CONF	n/a	LTP220	ltpFR	0	5	0	SIGN	1305	n/a	5	n/a	n/a	n/a	n/a	n/a	n/a
5637441	RECOG_LURE	n/a	LTP220	ltpFR	0	5	n/a	RESTAURANT	1187	0	2	n/a	n/a	n/a	n/a	n/a	n/a
5640767	RECOG_RESP	n/a	LTP220	ltpFR	0	5	n/a	RESTAURANT	1187	0	n/a	n/a	n/a	n/a	n/a	n/a	n/a
5642483	RECOG_CONF	n/a	LTP220	ltpFR	0	5	n/a	RESTAURANT	1187	n/a	2	n/a	n/a	n/a	n/a	n/a	n/a
5644424	RECOG_TARGET	n/a	LTP220	ltpFR	0	5	1	JOKER	759	1	5	n/a	n/a	n/a	n/a	n/a	n/a
5645526	RECOG_RESP	n/a	LTP220	ltpFR	0	5	1	JOKER	759	1	n/a	n/a	n/a	n/a	n/a	n/a	n/a
5647052	RECOG_CONF	n/a	LTP220	ltpFR	0	5	1	JOKER	759	n/a	5	n/a	n/a	n/a	n/a	n/a	n/a
5649460	RECOG_TARGET	n/a	LTP220	ltpFR	0	5	0	ESSAY	540	1	5	1	n/a	n/a	n/a	n/a	n/a
5650544	RECOG_RESP	n/a	LTP220	ltpFR	0	5	0	ESSAY	540	1	n/a	1	n/a	n/a	n/a	n/a	n/a
5652151	RECOG_CONF	n/a	LTP220	ltpFR	0	5	0	ESSAY	540	n/a	5	1	n/a	n/a	n/a	n/a	n/a
5658691	REC_START	n/a	LTP220	ltpFR	0	6	n/a	n/a	n/a	n/a	n/a	n/a	n/a	n/a	n/a	n/a	n/a
5658754	RECOG_TARGET	n/a	LTP220	ltpFR	0	6	0	PEARL	1034	1	5	0	n/a	n/a	n/a	n/a	n/a
5660083	RECOG_RESP	n/a	LTP220	ltpFR	0	6	0	PEARL	1034	1	n/a	0	n/a	n/a	n/a	n/a	n/a
5661779	RECOG_CONF	n/a	LTP220	ltpFR	0	6	0	PEARL	1034	n/a	5	0	n/a	n/a	n/a	n/a	n/a
5663572	RECOG_TARGET	n/a	LTP220	ltpFR	0	6	1	WAITRESS	1581	1	5	1	n/a	n/a	n/a	n/a	n/a
5664632	RECOG_RESP	n/a	LTP220	ltpFR	0	6	1	WAITRESS	1581	1	n/a	1	n/a	n/a	n/a	n/a	n/a
5666358	RECOG_CONF	n/a	LTP220	ltpFR	0	6	1	WAITRESS	1581	n/a	5	1	n/a	n/a	n/a	n/a	n/a
5668766	RECOG_TARGET	n/a	LTP220	ltpFR	0	6	0	SUPERMARKET	1409	1	5	1	n/a	n/a	n/a	n/a	n/a
5670339	RECOG_RESP	n/a	LTP220	ltpFR	0	6	0	SUPERMARKET	1409	1	n/a	1	n/a	n/a	n/a	n/a	n/a
5671906	RECOG_CONF	n/a	LTP220	ltpFR	0	6	0	SUPERMARKET	1409	n/a	5	1	n/a	n/a	n/a	n/a	n/a
5674430	RECOG_TARGET	n/a	LTP220	ltpFR	0	6	0	NOVEL	960	1	5	0	n/a	n/a	n/a	n/a	n/a
5675607	RECOG_RESP	n/a	LTP220	ltpFR	0	6	0	NOVEL	960	1	n/a	0	n/a	n/a	n/a	n/a	n/a
5678032	RECOG_CONF	n/a	LTP220	ltpFR	0	6	0	NOVEL	960	n/a	5	0	n/a	n/a	n/a	n/a	n/a
5680024	RECOG_LURE	n/a	LTP220	ltpFR	0	6	n/a	ASTEROID	50	0	1	n/a	n/a	n/a	n/a	n/a	n/a
5681743	RECOG_RESP	n/a	LTP220	ltpFR	0	6	n/a	ASTEROID	50	0	n/a	n/a	n/a	n/a	n/a	n/a	n/a
5684068	RECOG_CONF	n/a	LTP220	ltpFR	0	6	n/a	ASTEROID	50	n/a	1	n/a	n/a	n/a	n/a	n/a	n/a
5686080	RECOG_TARGET	n/a	LTP220	ltpFR	0	6	1	STAFF	1365	1	5	1	n/a	n/a	n/a	n/a	n/a
5687440	RECOG_RESP	n/a	LTP220	ltpFR	0	6	1	STAFF	1365	1	n/a	1	n/a	n/a	n/a	n/a	n/a
5689177	RECOG_CONF	n/a	LTP220	ltpFR	0	6	1	STAFF	1365	n/a	5	1	n/a	n/a	n/a	n/a	n/a
5691099	RECOG_TARGET	n/a	LTP220	ltpFR	0	6	-1	CYLINDER	432	1	3	-1	n/a	n/a	n/a	n/a	n/a
5695472	RECOG_RESP	n/a	LTP220	ltpFR	0	6	-1	CYLINDER	432	1	n/a	-1	n/a	n/a	n/a	n/a	n/a
5697827	RECOG_CONF	n/a	LTP220	ltpFR	0	6	-1	CYLINDER	432	n/a	3	-1	n/a	n/a	n/a	n/a	n/a
5700150	RECOG_TARGET	n/a	LTP220	ltpFR	0	6	1	DISH	474	1	4	0	n/a	n/a	n/a	n/a	n/a
5701459	RECOG_RESP	n/a	LTP220	ltpFR	0	6	1	DISH	474	1	n/a	0	n/a	n/a	n/a	n/a	n/a
5703893	RECOG_CONF	n/a	LTP220	ltpFR	0	6	1	DISH	474	n/a	4	0	n/a	n/a	n/a	n/a	n/a
5705932	RECOG_TARGET	n/a	LTP220	ltpFR	0	6	-1	NUT	965	1	5	-1	n/a	n/a	n/a	n/a	n/a
5706906	RECOG_RESP	n/a	LTP220	ltpFR	0	6	-1	NUT	965	1	n/a	-1	n/a	n/a	n/a	n/a	n/a
5708513	RECOG_CONF	n/a	LTP220	ltpFR	0	6	-1	NUT	965	n/a	5	-1	n/a	n/a	n/a	n/a	n/a
5710824	RECOG_LURE	n/a	LTP220	ltpFR	0	6	n/a	GOOSE	649	1	3	n/a	n/a	n/a	n/a	n/a	n/a
5715866	RECOG_RESP	n/a	LTP220	ltpFR	0	6	n/a	GOOSE	649	1	n/a	n/a	n/a	n/a	n/a	n/a	n/a
5717382	RECOG_CONF	n/a	LTP220	ltpFR	0	6	n/a	GOOSE	649	n/a	3	n/a	n/a	n/a	n/a	n/a	n/a
5719440	RECOG_TARGET	n/a	LTP220	ltpFR	0	6	-1	OBOE	969	1	5	-1	n/a	n/a	n/a	n/a	n/a
5721104	RECOG_RESP	n/a	LTP220	ltpFR	0	6	-1	OBOE	969	1	n/a	-1	n/a	n/a	n/a	n/a	n/a
5723489	RECOG_CONF	n/a	LTP220	ltpFR	0	6	-1	OBOE	969	n/a	5	-1	n/a	n/a	n/a	n/a	n/a
5725640	RECOG_TARGET	n/a	LTP220	ltpFR	0	6	0	BURGLAR	200	1	3	1	n/a	n/a	n/a	n/a	n/a
5726961	RECOG_RESP	n/a	LTP220	ltpFR	0	6	0	BURGLAR	200	1	n/a	1	n/a	n/a	n/a	n/a	n/a
5728537	RECOG_CONF	n/a	LTP220	ltpFR	0	6	0	BURGLAR	200	n/a	3	1	n/a	n/a	n/a	n/a	n/a
5730666	RECOG_TARGET	n/a	LTP220	ltpFR	0	6	0	UNIVERSE	1540	1	5	1	n/a	n/a	n/a	n/a	n/a
5731820	RECOG_RESP	n/a	LTP220	ltpFR	0	6	0	UNIVERSE	1540	1	n/a	1	n/a	n/a	n/a	n/a	n/a
5733685	RECOG_CONF	n/a	LTP220	ltpFR	0	6	0	UNIVERSE	1540	n/a	5	1	n/a	n/a	n/a	n/a	n/a
5735577	RECOG_TARGET	n/a	LTP220	ltpFR	0	6	0	TUBA	1515	1	5	1	n/a	n/a	n/a	n/a	n/a
5736669	RECOG_RESP	n/a	LTP220	ltpFR	0	6	0	TUBA	1515	1	n/a	1	n/a	n/a	n/a	n/a	n/a
5738654	RECOG_CONF	n/a	LTP220	ltpFR	0	6	0	TUBA	1515	n/a	5	1	n/a	n/a	n/a	n/a	n/a
5740586	RECOG_TARGET	n/a	LTP220	ltpFR	0	6	-1	TOWER	1490	1	4	-1	n/a	n/a	n/a	n/a	n/a
5742286	RECOG_RESP	n/a	LTP220	ltpFR	0	6	-1	TOWER	1490	1	n/a	-1	n/a	n/a	n/a	n/a	n/a
5743832	RECOG_CONF	n/a	LTP220	ltpFR	0	6	-1	TOWER	1490	n/a	4	-1	n/a	n/a	n/a	n/a	n/a
5746224	RECOG_TARGET	n/a	LTP220	ltpFR	0	6	0	BILL	126	1	5	0	n/a	n/a	n/a	n/a	n/a
5747265	RECOG_RESP	n/a	LTP220	ltpFR	0	6	0	BILL	126	1	n/a	0	n/a	n/a	n/a	n/a	n/a
5748941	RECOG_CONF	n/a	LTP220	ltpFR	0	6	0	BILL	126	n/a	5	0	n/a	n/a	n/a	n/a	n/a
5750991	RECOG_TARGET	n/a	LTP220	ltpFR	0	6	0	ICE	730	1	4	0	n/a	n/a	n/a	n/a	n/a
5751894	RECOG_RESP	n/a	LTP220	ltpFR	0	6	0	ICE	730	1	n/a	0	n/a	n/a	n/a	n/a	n/a
5753490	RECOG_CONF	n/a	LTP220	ltpFR	0	6	0	ICE	730	n/a	4	0	n/a	n/a	n/a	n/a	n/a
5755435	RECOG_TARGET	n/a	LTP220	ltpFR	0	6	0	LOFT	840	1	4	1	n/a	n/a	n/a	n/a	n/a
5756513	RECOG_RESP	n/a	LTP220	ltpFR	0	6	0	LOFT	840	1	n/a	1	n/a	n/a	n/a	n/a	n/a
5758180	RECOG_CONF	n/a	LTP220	ltpFR	0	6	0	LOFT	840	n/a	4	1	n/a	n/a	n/a	n/a	n/a
5760237	RECOG_TARGET	n/a	LTP220	ltpFR	0	6	-1	HARE	688	1	5	-1	n/a	n/a	n/a	n/a	n/a
5761143	RECOG_RESP	n/a	LTP220	ltpFR	0	6	-1	HARE	688	1	n/a	-1	n/a	n/a	n/a	n/a	n/a
5762679	RECOG_CONF	n/a	LTP220	ltpFR	0	6	-1	HARE	688	n/a	5	-1	n/a	n/a	n/a	n/a	n/a
5764637	RECOG_TARGET	n/a	LTP220	ltpFR	0	6	0	BOY	161	1	4	0	n/a	n/a	n/a	n/a	n/a
5766601	RECOG_RESP	n/a	LTP220	ltpFR	0	6	0	BOY	161	1	n/a	0	n/a	n/a	n/a	n/a	n/a
5768007	RECOG_CONF	n/a	LTP220	ltpFR	0	6	0	BOY	161	n/a	4	0	n/a	n/a	n/a	n/a	n/a
5773871	REC_START	n/a	LTP220	ltpFR	0	7	n/a	n/a	n/a	n/a	n/a	n/a	n/a	n/a	n/a	n/a	n/a
5773922	RECOG_TARGET	n/a	LTP220	ltpFR	0	7	-1	BUILDING	191	1	5	-1	n/a	n/a	n/a	n/a	n/a
5774963	RECOG_RESP	n/a	LTP220	ltpFR	0	7	-1	BUILDING	191	1	n/a	-1	n/a	n/a	n/a	n/a	n/a
5776320	RECOG_CONF	n/a	LTP220	ltpFR	0	7	-1	BUILDING	191	n/a	5	-1	n/a	n/a	n/a	n/a	n/a
5778228	RECOG_TARGET	n/a	LTP220	ltpFR	0	7	0	TILE	1468	1	5	0	n/a	n/a	n/a	n/a	n/a
5779199	RECOG_RESP	n/a	LTP220	ltpFR	0	7	0	TILE	1468	1	n/a	0	n/a	n/a	n/a	n/a	n/a
5780680	RECOG_CONF	n/a	LTP220	ltpFR	0	7	0	TILE	1468	n/a	5	0	n/a	n/a	n/a	n/a	n/a
5782621	RECOG_TARGET	n/a	LTP220	ltpFR	0	7	0	PENCIL	1042	1	5	1	n/a	n/a	n/a	n/a	n/a
5783649	RECOG_RESP	n/a	LTP220	ltpFR	0	7	0	PENCIL	1042	1	n/a	1	n/a	n/a	n/a	n/a	n/a
5785330	RECOG_CONF	n/a	LTP220	ltpFR	0	7	0	PENCIL	1042	n/a	5	1	n/a	n/a	n/a	n/a	n/a
5787363	RECOG_TARGET	n/a	LTP220	ltpFR	0	7	-1	HAMPER	682	0	1	-1	n/a	n/a	n/a	n/a	n/a
5789031	RECOG_RESP	n/a	LTP220	ltpFR	0	7	-1	HAMPER	682	0	n/a	-1	n/a	n/a	n/a	n/a	n/a
5791266	RECOG_CONF	n/a	LTP220	ltpFR	0	7	-1	HAMPER	682	n/a	1	-1	n/a	n/a	n/a	n/a	n/a
5793126	RECOG_TARGET	n/a	LTP220	ltpFR	0	7	0	REGISTER	1180	1	5	0	n/a	n/a	n/a	n/a	n/a
5794529	RECOG_RESP	n/a	LTP220	ltpFR	0	7	0	REGISTER	1180	1	n/a	0	n/a	n/a	n/a	n/a	n/a
5796085	RECOG_CONF	n/a	LTP220	ltpFR	0	7	0	REGISTER	1180	n/a	5	0	n/a	n/a	n/a	n/a	n/a
5797886	RECOG_LURE	n/a	LTP220	ltpFR	0	7	n/a	FURNITURE	616	1	4	n/a	n/a	n/a	n/a	n/a	n/a
5800785	RECOG_RESP	n/a	LTP220	ltpFR	0	7	n/a	FURNITURE	616	1	n/a	n/a	n/a	n/a	n/a	n/a	n/a
5802311	RECOG_CONF	n/a	LTP220	ltpFR	0	7	n/a	FURNITURE	616	n/a	4	n/a	n/a	n/a	n/a	n/a	n/a
5804477	RECOG_TARGET	n/a	LTP220	ltpFR	0	7	1	COLLEGE	346	1	5	1	n/a	n/a	n/a	n/a	n/a
5805773	RECOG_RESP	n/a	LTP220	ltpFR	0	7	1	COLLEGE	346	1	n/a	1	n/a	n/a	n/a	n/a	n/a
5807290	RECOG_CONF	n/a	LTP220	ltpFR	0	7	1	COLLEGE	346	n/a	5	1	n/a	n/a	n/a	n/a	n/a
5809271	RECOG_TARGET	n/a	LTP220	ltpFR	0	7	0	TACK	1428	1	5	0	n/a	n/a	n/a	n/a	n/a
5811041	RECOG_RESP	n/a	LTP220	ltpFR	0	7	0	TACK	1428	1	n/a	0	n/a	n/a	n/a	n/a	n/a
5812548	RECOG_CONF	n/a	LTP220	ltpFR	0	7	0	TACK	1428	n/a	5	0	n/a	n/a	n/a	n/a	n/a
5814424	RECOG_LURE	n/a	LTP220	ltpFR	0	7	n/a	SHIP	1286	1	4	n/a	n/a	n/a	n/a	n/a	n/a
5816639	RECOG_RESP	n/a	LTP220	ltpFR	0	7	n/a	SHIP	1286	1	n/a	n/a	n/a	n/a	n/a	n/a	n/a
5818345	RECOG_CONF	n/a	LTP220	ltpFR	0	7	n/a	SHIP	1286	n/a	4	n/a	n/a	n/a	n/a	n/a	n/a
5820303	RECOG_LURE	n/a	LTP220	ltpFR	0	7	n/a	LOVER	846	0	5	n/a	n/a	n/a	n/a	n/a	n/a
5824770	RECOG_RESP	n/a	LTP220	ltpFR	0	7	n/a	LOVER	846	0	n/a	n/a	n/a	n/a	n/a	n/a	n/a
5828093	RECOG_CONF	n/a	LTP220	ltpFR	0	7	n/a	LOVER	846	n/a	5	n/a	n/a	n/a	n/a	n/a	n/a
5829799	RECOG_TARGET	n/a	LTP220	ltpFR	0	7	-1	BEAVER	109	1	4	-1	n/a	n/a	n/a	n/a	n/a
5831974	RECOG_RESP	n/a	LTP220	ltpFR	0	7	-1	BEAVER	109	1	n/a	-1	n/a	n/a	n/a	n/a	n/a
5833570	RECOG_CONF	n/a	LTP220	ltpFR	0	7	-1	BEAVER	109	n/a	4	-1	n/a	n/a	n/a	n/a	n/a
5835637	RECOG_LURE	n/a	LTP220	ltpFR	0	7	n/a	GUM	672	0	5	n/a	n/a	n/a	n/a	n/a	n/a
5837681	RECOG_RESP	n/a	LTP220	ltpFR	0	7	n/a	GUM	672	0	n/a	n/a	n/a	n/a	n/a	n/a	n/a
5840445	RECOG_CONF	n/a	LTP220	ltpFR	0	7	n/a	GUM	672	n/a	5	n/a	n/a	n/a	n/a	n/a	n/a
5842262	RECOG_TARGET	n/a	LTP220	ltpFR	0	7	-1	FIELD	562	0	3	-1	n/a	n/a	n/a	n/a	n/a
5845144	RECOG_RESP	n/a	LTP220	ltpFR	0	7	-1	FIELD	562	0	n/a	-1	n/a	n/a	n/a	n/a	n/a
5847498	RECOG_CONF	n/a	LTP220	ltpFR	0	7	-1	FIELD	562	n/a	3	-1	n/a	n/a	n/a	n/a	n/a
5849239	RECOG_TARGET	n/a	LTP220	ltpFR	0	7	0	STRANGER	1389	1	5	1	n/a	n/a	n/a	n/a	n/a
5851624	RECOG_RESP	n/a	LTP220	ltpFR	0	7	0	STRANGER	1389	1	n/a	1	n/a	n/a	n/a	n/a	n/a
5853645	RECOG_CONF	n/a	LTP220	ltpFR	0	7	0	STRANGER	1389	n/a	5	1	n/a	n/a	n/a	n/a	n/a
5855613	RECOG_LURE	n/a	LTP220	ltpFR	0	7	n/a	BLOUSE	139	0	5	n/a	n/a	n/a	n/a	n/a	n/a
5857037	RECOG_RESP	n/a	LTP220	ltpFR	0	7	n/a	BLOUSE	139	0	n/a	n/a	n/a	n/a	n/a	n/a	n/a
5858992	RECOG_CONF	n/a	LTP220	ltpFR	0	7	n/a	BLOUSE	139	n/a	5	n/a	n/a	n/a	n/a	n/a	n/a
5860906	RECOG_TARGET	n/a	LTP220	ltpFR	0	7	0	HAY	693	1	5	2	n/a	n/a	n/a	n/a	n/a
5863921	RECOG_RESP	n/a	LTP220	ltpFR	0	7	0	HAY	693	1	n/a	2	n/a	n/a	n/a	n/a	n/a
5865607	RECOG_CONF	n/a	LTP220	ltpFR	0	7	0	HAY	693	n/a	5	2	n/a	n/a	n/a	n/a	n/a
5867531	RECOG_TARGET	n/a	LTP220	ltpFR	0	7	-1	DUMP	505	1	5	-1	n/a	n/a	n/a	n/a	n/a
5869050	RECOG_RESP	n/a	LTP220	ltpFR	0	7	-1	DUMP	505	1	n/a	-1	n/a	n/a	n/a	n/a	n/a
5870516	RECOG_CONF	n/a	LTP220	ltpFR	0	7	-1	DUMP	505	n/a	5	-1	n/a	n/a	n/a	n/a	n/a
5872584	RECOG_TARGET	n/a	LTP220	ltpFR	0	7	1	ATTIC	56	1	5	0	n/a	n/a	n/a	n/a	n/a
5873759	RECOG_RESP	n/a	LTP220	ltpFR	0	7	1	ATTIC	56	1	n/a	0	n/a	n/a	n/a	n/a	n/a
5875295	RECOG_CONF	n/a	LTP220	ltpFR	0	7	1	ATTIC	56	n/a	5	0	n/a	n/a	n/a	n/a	n/a
