onset	duration	trial_type	sample	stim_file	subject	experiment	session	trial	item_name	item_num	list	answer	test_x	test_y	test_z
339.1103515625	n/a	SESS_START	694498	n/a	LTP388	ltpFR2	0	n/a	n/a	n/a	n/a	n/a	0	0	0
410.99462890625	n/a	START	841717	n/a	LTP388	ltpFR2	0	n/a	n/a	n/a	-1	n/a	n/a	n/a	n/a
411.0087890625	n/a	PROB	841746	n/a	LTP388	ltpFR2	0	n/a	n/a	n/a	-1	3	1	1	1
415.5234375	n/a	PROB	850992	n/a	LTP388	ltpFR2	0	n/a	n/a	n/a	-1	22	8	6	6
422.994140625	n/a	STOP	866292	n/a	LTP388	ltpFR2	0	n/a	n/a	n/a	-1	n/a	n/a	n/a	n/a
493.3564453125	n/a	DISTRACTOR	1010394	n/a	LTP388	ltpFR2	0	1	n/a	n/a	n/a	n/a	0	0	0
493.3564453125	n/a	START	1010394	n/a	LTP388	ltpFR2	0	n/a	n/a	n/a	1	n/a	n/a	n/a	n/a
493.37353515625	n/a	PROB	1010429	n/a	LTP388	ltpFR2	0	n/a	n/a	n/a	1	15	2	8	5
496.71728515625	n/a	PROB	1017277	n/a	LTP388	ltpFR2	0	n/a	n/a	n/a	1	13	3	8	2
499.0244140625	n/a	PROB	1022002	n/a	LTP388	ltpFR2	0	n/a	n/a	n/a	1	17	2	9	6
501.49951171875	n/a	PROB	1027071	n/a	LTP388	ltpFR2	0	n/a	n/a	n/a	1	19	7	4	8
503.740234375	n/a	PROB	1031660	n/a	LTP388	ltpFR2	0	n/a	n/a	n/a	1	9	3	4	2
505.93017578125	n/a	PROB	1036145	n/a	LTP388	ltpFR2	0	n/a	n/a	n/a	1	14	8	2	4
507.76904296875	n/a	PROB	1039911	n/a	LTP388	ltpFR2	0	n/a	n/a	n/a	1	14	2	8	4
509.34130859375	n/a	PROB	1043131	n/a	LTP388	ltpFR2	0	n/a	n/a	n/a	1	15	1	7	4
512.40087890625	n/a	PROB	1049397	n/a	LTP388	ltpFR2	0	n/a	n/a	n/a	1	8	2	3	3
514.69189453125	n/a	PROB	1054089	n/a	LTP388	ltpFR2	0	n/a	n/a	n/a	1	13	7	1	5
517.3330078125	n/a	STOP	1059498	n/a	LTP388	ltpFR2	0	n/a	n/a	n/a	1	n/a	n/a	n/a	n/a
518.5380859375	n/a	WORD	1061966	wordpools/wasnorm_wordpool_576.txt	LTP388	ltpFR2	0	1	BLOCKADE	137	n/a	n/a	0	0	0
521.2470703125	n/a	WORD	1067514	wordpools/wasnorm_wordpool_576.txt	LTP388	ltpFR2	0	1	BRAKE	166	n/a	n/a	0	0	0
523.921875	n/a	WORD	1072992	wordpools/wasnorm_wordpool_576.txt	LTP388	ltpFR2	0	1	HOOK	715	n/a	n/a	0	0	0
526.4794921875	n/a	WORD	1078230	wordpools/wasnorm_wordpool_576.txt	LTP388	ltpFR2	0	1	NURSE	963	n/a	n/a	0	0	0
529.23876953125	n/a	WORD	1083881	wordpools/wasnorm_wordpool_576.txt	LTP388	ltpFR2	0	1	KIDNEY	776	n/a	n/a	0	0	0
531.86376953125	n/a	WORD	1089257	wordpools/wasnorm_wordpool_576.txt	LTP388	ltpFR2	0	1	LOVER	846	n/a	n/a	0	0	0
534.58935546875	n/a	WORD	1094839	wordpools/wasnorm_wordpool_576.txt	LTP388	ltpFR2	0	1	FEMALE	559	n/a	n/a	0	0	0
537.13037109375	n/a	WORD	1100043	wordpools/wasnorm_wordpool_576.txt	LTP388	ltpFR2	0	1	PEBBLE	1035	n/a	n/a	0	0	0
539.55517578125	n/a	WORD	1105009	wordpools/wasnorm_wordpool_576.txt	LTP388	ltpFR2	0	1	CORAL	378	n/a	n/a	0	0	0
542.21337890625	n/a	WORD	1110453	wordpools/wasnorm_wordpool_576.txt	LTP388	ltpFR2	0	1	COUNTRY	388	n/a	n/a	0	0	0
544.72119140625	n/a	WORD	1115589	wordpools/wasnorm_wordpool_576.txt	LTP388	ltpFR2	0	1	MESSAGE	888	n/a	n/a	0	0	0
547.46435546875	n/a	WORD	1121207	wordpools/wasnorm_wordpool_576.txt	LTP388	ltpFR2	0	1	PIANO	1057	n/a	n/a	0	0	0
550.02197265625	n/a	WORD	1126445	wordpools/wasnorm_wordpool_576.txt	LTP388	ltpFR2	0	1	TUTU	1524	n/a	n/a	0	0	0
552.59716796875	n/a	WORD	1131719	wordpools/wasnorm_wordpool_576.txt	LTP388	ltpFR2	0	1	FLOWER	584	n/a	n/a	0	0	0
555.1220703125	n/a	WORD	1136890	wordpools/wasnorm_wordpool_576.txt	LTP388	ltpFR2	0	1	PACKAGE	997	n/a	n/a	0	0	0
557.580078125	n/a	WORD	1141924	wordpools/wasnorm_wordpool_576.txt	LTP388	ltpFR2	0	1	PLAID	1080	n/a	n/a	0	0	0
560.2548828125	n/a	WORD	1147402	wordpools/wasnorm_wordpool_576.txt	LTP388	ltpFR2	0	1	FRANCE	601	n/a	n/a	0	0	0
562.77978515625	n/a	WORD	1152573	wordpools/wasnorm_wordpool_576.txt	LTP388	ltpFR2	0	1	LAMP	798	n/a	n/a	0	0	0
565.5048828125	n/a	WORD	1158154	wordpools/wasnorm_wordpool_576.txt	LTP388	ltpFR2	0	1	TUNNEL	1519	n/a	n/a	0	0	0
568.11376953125	n/a	WORD	1163497	wordpools/wasnorm_wordpool_576.txt	LTP388	ltpFR2	0	1	CRATER	400	n/a	n/a	0	0	0
570.57177734375	n/a	WORD	1168531	wordpools/wasnorm_wordpool_576.txt	LTP388	ltpFR2	0	1	COWBOY	395	n/a	n/a	0	0	0
573.2294921875	n/a	WORD	1173974	wordpools/wasnorm_wordpool_576.txt	LTP388	ltpFR2	0	1	TROUT	1511	n/a	n/a	0	0	0
576.03955078125	n/a	WORD	1179729	wordpools/wasnorm_wordpool_576.txt	LTP388	ltpFR2	0	1	TOURIST	1488	n/a	n/a	0	0	0
578.78125	n/a	WORD	1185344	wordpools/wasnorm_wordpool_576.txt	LTP388	ltpFR2	0	1	COIN	343	n/a	n/a	0	0	0
580.38623046875	n/a	START	1188631	n/a	LTP388	ltpFR2	0	n/a	n/a	n/a	2	n/a	n/a	n/a	n/a
581.4423828125	n/a	DISTRACTOR	1190794	n/a	LTP388	ltpFR2	0	1	n/a	n/a	n/a	n/a	0	0	0
581.45654296875	n/a	PROB	1190823	n/a	LTP388	ltpFR2	0	n/a	n/a	n/a	2	21	8	5	8
584.54931640625	n/a	PROB	1197157	n/a	LTP388	ltpFR2	0	n/a	n/a	n/a	2	12	3	7	2
586.30517578125	n/a	PROB	1200753	n/a	LTP388	ltpFR2	0	n/a	n/a	n/a	2	9	3	4	2
587.84423828125	n/a	PROB	1203905	n/a	LTP388	ltpFR2	0	n/a	n/a	n/a	2	10	4	4	2
589.365234375	n/a	PROB	1207020	n/a	LTP388	ltpFR2	0	n/a	n/a	n/a	2	13	6	1	6
591.2548828125	n/a	PROB	1210890	n/a	LTP388	ltpFR2	0	n/a	n/a	n/a	2	8	2	1	5
593.9130859375	n/a	PROB	1216334	n/a	LTP388	ltpFR2	0	n/a	n/a	n/a	2	17	7	5	5
595.65087890625	n/a	PROB	1219893	n/a	LTP388	ltpFR2	0	n/a	n/a	n/a	2	21	4	8	9
599.1640625	n/a	PROB	1227088	n/a	LTP388	ltpFR2	0	n/a	n/a	n/a	2	13	2	7	4
604.384765625	n/a	STOP	1237780	n/a	LTP388	ltpFR2	0	n/a	n/a	n/a	2	n/a	n/a	n/a	n/a
606.23681640625	n/a	REC_START	1241573	n/a	LTP388	ltpFR2	0	1	n/a	n/a	n/a	n/a	0	0	0
609.1513671875	n/a	REC_WORD_VV	1247542	wordpools/wasnorm_wordpool_576.txt	LTP388	ltpFR2	0	1	<>	-1	n/a	n/a	0	0	0
610.32861328125	n/a	REC_WORD_VV	1249953	wordpools/wasnorm_wordpool_576.txt	LTP388	ltpFR2	0	1	<>	-1	n/a	n/a	0	0	0
610.79833984375	n/a	REC_WORD	1250915	wordpools/wasnorm_wordpool_576.txt	LTP388	ltpFR2	0	1	BLOCKADE	137	n/a	n/a	0	0	0
612.056640625	n/a	REC_WORD	1253492	wordpools/wasnorm_wordpool_576.txt	LTP388	ltpFR2	0	1	BRAKE	166	n/a	n/a	0	0	0
613.0107421875	n/a	REC_WORD	1255446	wordpools/wasnorm_wordpool_576.txt	LTP388	ltpFR2	0	1	NURSE	963	n/a	n/a	0	0	0
614.3115234375	n/a	REC_WORD	1258110	wordpools/wasnorm_wordpool_576.txt	LTP388	ltpFR2	0	1	LIVER	833	n/a	n/a	0	0	0
615.37451171875	n/a	REC_WORD	1260287	wordpools/wasnorm_wordpool_576.txt	LTP388	ltpFR2	0	1	FRANCE	601	n/a	n/a	0	0	0
616.59228515625	n/a	REC_WORD	1262781	wordpools/wasnorm_wordpool_576.txt	LTP388	ltpFR2	0	1	TUTU	1524	n/a	n/a	0	0	0
617.74951171875	n/a	REC_WORD	1265151	wordpools/wasnorm_wordpool_576.txt	LTP388	ltpFR2	0	1	LOVER	846	n/a	n/a	0	0	0
628.52197265625	n/a	REC_WORD	1287213	wordpools/wasnorm_wordpool_576.txt	LTP388	ltpFR2	0	1	PEBBLE	1035	n/a	n/a	0	0	0
629.65625	n/a	REC_WORD	1289536	wordpools/wasnorm_wordpool_576.txt	LTP388	ltpFR2	0	1	COWBOY	395	n/a	n/a	0	0	0
636.0810546875	n/a	REC_WORD	1302694	wordpools/wasnorm_wordpool_576.txt	LTP388	ltpFR2	0	1	TUNNEL	1519	n/a	n/a	0	0	0
660.39306640625	n/a	REC_WORD	1352485	wordpools/wasnorm_wordpool_576.txt	LTP388	ltpFR2	0	1	TROUT	1511	n/a	n/a	0	0	0
661.50244140625	n/a	REC_WORD	1354757	wordpools/wasnorm_wordpool_576.txt	LTP388	ltpFR2	0	1	TOURIST	1488	n/a	n/a	0	0	0
667.8193359375	n/a	REC_WORD	1367694	wordpools/wasnorm_wordpool_576.txt	LTP388	ltpFR2	0	1	PIANO	1057	n/a	n/a	0	0	0
742.92529296875	n/a	DISTRACTOR	1521511	n/a	LTP388	ltpFR2	0	2	n/a	n/a	n/a	n/a	0	0	0
742.92529296875	n/a	START	1521511	n/a	LTP388	ltpFR2	0	n/a	n/a	n/a	3	n/a	n/a	n/a	n/a
742.9423828125	n/a	PROB	1521546	n/a	LTP388	ltpFR2	0	n/a	n/a	n/a	3	17	5	5	7
744.98193359375	n/a	PROB	1525723	n/a	LTP388	ltpFR2	0	n/a	n/a	n/a	3	16	7	1	8
747.52294921875	n/a	PROB	1530927	n/a	LTP388	ltpFR2	0	n/a	n/a	n/a	3	15	1	6	8
749.37890625	n/a	PROB	1534728	n/a	LTP388	ltpFR2	0	n/a	n/a	n/a	3	13	3	1	9
751.23486328125	n/a	PROB	1538529	n/a	LTP388	ltpFR2	0	n/a	n/a	n/a	3	19	7	9	3
753.6259765625	n/a	PROB	1543426	n/a	LTP388	ltpFR2	0	n/a	n/a	n/a	3	17	5	3	9
756.4189453125	n/a	PROB	1549146	n/a	LTP388	ltpFR2	0	n/a	n/a	n/a	3	13	1	6	6
758.24169921875	n/a	PROB	1552879	n/a	LTP388	ltpFR2	0	n/a	n/a	n/a	3	25	8	8	9
761.25048828125	n/a	PROB	1559041	n/a	LTP388	ltpFR2	0	n/a	n/a	n/a	3	20	9	6	5
763.892578125	n/a	PROB	1564452	n/a	LTP388	ltpFR2	0	n/a	n/a	n/a	3	12	5	6	1
765.60546875	n/a	STOP	1567960	n/a	LTP388	ltpFR2	0	n/a	n/a	n/a	3	n/a	n/a	n/a	n/a
767.87255859375	n/a	WORD	1572603	wordpools/wasnorm_wordpool_576.txt	LTP388	ltpFR2	0	2	MAILMAN	858	n/a	n/a	0	0	0
770.5302734375	n/a	WORD	1578046	wordpools/wasnorm_wordpool_576.txt	LTP388	ltpFR2	0	2	THIEF	1456	n/a	n/a	0	0	0
773.3232421875	n/a	WORD	1583766	wordpools/wasnorm_wordpool_576.txt	LTP388	ltpFR2	0	2	TRANSPLANT	1496	n/a	n/a	0	0	0
775.84814453125	n/a	WORD	1588937	wordpools/wasnorm_wordpool_576.txt	LTP388	ltpFR2	0	2	HEART	697	n/a	n/a	0	0	0
778.6220703125	n/a	WORD	1594618	wordpools/wasnorm_wordpool_576.txt	LTP388	ltpFR2	0	2	BANK	83	n/a	n/a	0	0	0
781.115234375	n/a	WORD	1599724	wordpools/wasnorm_wordpool_576.txt	LTP388	ltpFR2	0	2	BUTCHER	203	n/a	n/a	0	0	0
783.80712890625	n/a	WORD	1605237	wordpools/wasnorm_wordpool_576.txt	LTP388	ltpFR2	0	2	BLADE	134	n/a	n/a	0	0	0
786.43212890625	n/a	WORD	1610613	wordpools/wasnorm_wordpool_576.txt	LTP388	ltpFR2	0	2	CAPTIVE	240	n/a	n/a	0	0	0
789.19091796875	n/a	WORD	1616263	wordpools/wasnorm_wordpool_576.txt	LTP388	ltpFR2	0	2	MARKET	871	n/a	n/a	0	0	0
791.7490234375	n/a	WORD	1621502	wordpools/wasnorm_wordpool_576.txt	LTP388	ltpFR2	0	2	BASEMENT	94	n/a	n/a	0	0	0
794.23974609375	n/a	WORD	1626603	wordpools/wasnorm_wordpool_576.txt	LTP388	ltpFR2	0	2	GYMNAST	675	n/a	n/a	0	0	0
796.81494140625	n/a	WORD	1631877	wordpools/wasnorm_wordpool_576.txt	LTP388	ltpFR2	0	2	JUGGLER	763	n/a	n/a	0	0	0
799.60791015625	n/a	WORD	1637597	wordpools/wasnorm_wordpool_576.txt	LTP388	ltpFR2	0	2	CLAMP	316	n/a	n/a	0	0	0
802.1484375	n/a	WORD	1642800	wordpools/wasnorm_wordpool_576.txt	LTP388	ltpFR2	0	2	STAMP	1370	n/a	n/a	0	0	0
804.7578125	n/a	WORD	1648144	wordpools/wasnorm_wordpool_576.txt	LTP388	ltpFR2	0	2	SOFTBALL	1343	n/a	n/a	0	0	0
807.349609375	n/a	WORD	1653452	wordpools/wasnorm_wordpool_576.txt	LTP388	ltpFR2	0	2	TEMPLE	1448	n/a	n/a	0	0	0
809.95751953125	n/a	WORD	1658793	wordpools/wasnorm_wordpool_576.txt	LTP388	ltpFR2	0	2	IDOL	733	n/a	n/a	0	0	0
812.482421875	n/a	WORD	1663964	wordpools/wasnorm_wordpool_576.txt	LTP388	ltpFR2	0	2	SEAGULL	1261	n/a	n/a	0	0	0
815.20751953125	n/a	WORD	1669545	wordpools/wasnorm_wordpool_576.txt	LTP388	ltpFR2	0	2	COFFEE	341	n/a	n/a	0	0	0
817.84912109375	n/a	WORD	1674955	wordpools/wasnorm_wordpool_576.txt	LTP388	ltpFR2	0	2	GLOBE	641	n/a	n/a	0	0	0
820.39111328125	n/a	WORD	1680161	wordpools/wasnorm_wordpool_576.txt	LTP388	ltpFR2	0	2	FARMER	553	n/a	n/a	0	0	0
822.98291015625	n/a	WORD	1685469	wordpools/wasnorm_wordpool_576.txt	LTP388	ltpFR2	0	2	LEOPARD	812	n/a	n/a	0	0	0
825.42431640625	n/a	WORD	1690469	wordpools/wasnorm_wordpool_576.txt	LTP388	ltpFR2	0	2	LADY	794	n/a	n/a	0	0	0
828.19921875	n/a	WORD	1696152	wordpools/wasnorm_wordpool_576.txt	LTP388	ltpFR2	0	2	RACKET	1155	n/a	n/a	0	0	0
829.80517578125	n/a	START	1699441	n/a	LTP388	ltpFR2	0	n/a	n/a	n/a	4	n/a	n/a	n/a	n/a
830.86181640625	n/a	DISTRACTOR	1701605	n/a	LTP388	ltpFR2	0	2	n/a	n/a	n/a	n/a	0	0	0
830.875	n/a	PROB	1701632	n/a	LTP388	ltpFR2	0	n/a	n/a	n/a	4	14	3	4	7
833.0146484375	n/a	PROB	1706014	n/a	LTP388	ltpFR2	0	n/a	n/a	n/a	4	22	6	7	9
835.94091796875	n/a	PROB	1712007	n/a	LTP388	ltpFR2	0	n/a	n/a	n/a	4	19	6	5	8
838.03076171875	n/a	PROB	1716287	n/a	LTP388	ltpFR2	0	n/a	n/a	n/a	4	18	9	3	6
840.806640625	n/a	PROB	1721972	n/a	LTP388	ltpFR2	0	n/a	n/a	n/a	4	22	9	6	7
843.2646484375	n/a	PROB	1727006	n/a	LTP388	ltpFR2	0	n/a	n/a	n/a	4	17	8	2	7
844.75244140625	n/a	PROB	1730053	n/a	LTP388	ltpFR2	0	n/a	n/a	n/a	4	22	8	8	6
846.2744140625	n/a	PROB	1733170	n/a	LTP388	ltpFR2	0	n/a	n/a	n/a	4	5	3	1	1
847.845703125	n/a	PROB	1736388	n/a	LTP388	ltpFR2	0	n/a	n/a	n/a	4	5	3	1	1
848.71533203125	n/a	PROB	1738169	n/a	LTP388	ltpFR2	0	n/a	n/a	n/a	4	17	6	5	6
853.80419921875	n/a	STOP	1748591	n/a	LTP388	ltpFR2	0	n/a	n/a	n/a	4	n/a	n/a	n/a	n/a
855.55419921875	n/a	REC_START	1752175	n/a	LTP388	ltpFR2	0	2	n/a	n/a	n/a	n/a	0	0	0
856.748046875	n/a	REC_WORD	1754620	wordpools/wasnorm_wordpool_576.txt	LTP388	ltpFR2	0	2	BUTCHER	203	n/a	n/a	0	0	0
857.783203125	n/a	REC_WORD	1756740	wordpools/wasnorm_wordpool_576.txt	LTP388	ltpFR2	0	2	BLADE	134	n/a	n/a	0	0	0
858.85302734375	n/a	REC_WORD	1758931	wordpools/wasnorm_wordpool_576.txt	LTP388	ltpFR2	0	2	MAILMAN	858	n/a	n/a	0	0	0
859.92041015625	n/a	REC_WORD	1761117	wordpools/wasnorm_wordpool_576.txt	LTP388	ltpFR2	0	2	THIEF	1456	n/a	n/a	0	0	0
861.2890625	n/a	REC_WORD	1763920	wordpools/wasnorm_wordpool_576.txt	LTP388	ltpFR2	0	2	TRANSPLANT	1496	n/a	n/a	0	0	0
863.4560546875	n/a	REC_WORD	1768358	wordpools/wasnorm_wordpool_576.txt	LTP388	ltpFR2	0	2	BANK	83	n/a	n/a	0	0	0
880.02587890625	n/a	REC_WORD	1802293	wordpools/wasnorm_wordpool_576.txt	LTP388	ltpFR2	0	2	HEART	697	n/a	n/a	0	0	0
896.6630859375	n/a	REC_WORD	1836366	wordpools/wasnorm_wordpool_576.txt	LTP388	ltpFR2	0	2	SEAGULL	1261	n/a	n/a	0	0	0
898.1162109375	n/a	REC_WORD	1839342	wordpools/wasnorm_wordpool_576.txt	LTP388	ltpFR2	0	2	GYMNAST	675	n/a	n/a	0	0	0
908.77978515625	n/a	REC_WORD	1861181	wordpools/wasnorm_wordpool_576.txt	LTP388	ltpFR2	0	2	LEOPARD	812	n/a	n/a	0	0	0
909.7978515625	n/a	REC_WORD	1863266	wordpools/wasnorm_wordpool_576.txt	LTP388	ltpFR2	0	2	LADY	794	n/a	n/a	0	0	0
945.9951171875	n/a	DISTRACTOR	1937398	n/a	LTP388	ltpFR2	0	3	n/a	n/a	n/a	n/a	0	0	0
945.9951171875	n/a	START	1937398	n/a	LTP388	ltpFR2	0	n/a	n/a	n/a	5	n/a	n/a	n/a	n/a
946.01123046875	n/a	PROB	1937431	n/a	LTP388	ltpFR2	0	n/a	n/a	n/a	5	16	4	8	4
948.82080078125	n/a	PROB	1943185	n/a	LTP388	ltpFR2	0	n/a	n/a	n/a	5	16	5	5	6
952.23193359375	n/a	PROB	1950171	n/a	LTP388	ltpFR2	0	n/a	n/a	n/a	5	11	2	8	1
953.970703125	n/a	PROB	1953732	n/a	LTP388	ltpFR2	0	n/a	n/a	n/a	5	24	9	9	6
956.16064453125	n/a	PROB	1958217	n/a	LTP388	ltpFR2	0	n/a	n/a	n/a	5	12	3	1	8
958.5185546875	n/a	PROB	1963046	n/a	LTP388	ltpFR2	0	n/a	n/a	n/a	5	14	4	2	8
960.4248046875	n/a	PROB	1966950	n/a	LTP388	ltpFR2	0	n/a	n/a	n/a	5	14	2	7	5
962.91552734375	n/a	PROB	1972051	n/a	LTP388	ltpFR2	0	n/a	n/a	n/a	5	19	6	4	7
969.99462890625	n/a	STOP	1986549	n/a	LTP388	ltpFR2	0	n/a	n/a	n/a	5	n/a	n/a	n/a	n/a
970.8583984375	n/a	WORD	1988318	wordpools/wasnorm_wordpool_576.txt	LTP388	ltpFR2	0	3	WASHER	1592	n/a	n/a	0	0	0
973.55029296875	n/a	WORD	1993831	wordpools/wasnorm_wordpool_576.txt	LTP388	ltpFR2	0	3	CITRUS	313	n/a	n/a	0	0	0
976.09130859375	n/a	WORD	1999035	wordpools/wasnorm_wordpool_576.txt	LTP388	ltpFR2	0	3	NAPKIN	937	n/a	n/a	0	0	0
978.59912109375	n/a	WORD	2004171	wordpools/wasnorm_wordpool_576.txt	LTP388	ltpFR2	0	3	PORTRAIT	1111	n/a	n/a	0	0	0
981.02392578125	n/a	WORD	2009137	wordpools/wasnorm_wordpool_576.txt	LTP388	ltpFR2	0	3	SODA	1341	n/a	n/a	0	0	0
983.498046875	n/a	WORD	2014204	wordpools/wasnorm_wordpool_576.txt	LTP388	ltpFR2	0	3	CROWN	415	n/a	n/a	0	0	0
986.0400390625	n/a	WORD	2019410	wordpools/wasnorm_wordpool_576.txt	LTP388	ltpFR2	0	3	VICTIM	1562	n/a	n/a	0	0	0
988.56494140625	n/a	WORD	2024581	wordpools/wasnorm_wordpool_576.txt	LTP388	ltpFR2	0	3	OUTLAW	989	n/a	n/a	0	0	0
991.20703125	n/a	WORD	2029992	wordpools/wasnorm_wordpool_576.txt	LTP388	ltpFR2	0	3	PIGEON	1065	n/a	n/a	0	0	0
993.99853515625	n/a	WORD	2035709	wordpools/wasnorm_wordpool_576.txt	LTP388	ltpFR2	0	3	TURKEY	1520	n/a	n/a	0	0	0
996.49072265625	n/a	WORD	2040813	wordpools/wasnorm_wordpool_576.txt	LTP388	ltpFR2	0	3	PLIERS	1089	n/a	n/a	0	0	0
999.11572265625	n/a	WORD	2046189	wordpools/wasnorm_wordpool_576.txt	LTP388	ltpFR2	0	3	SCRIBBLE	1256	n/a	n/a	0	0	0
1001.58935546875	n/a	WORD	2051255	wordpools/wasnorm_wordpool_576.txt	LTP388	ltpFR2	0	3	LASER	801	n/a	n/a	0	0	0
1004.19873046875	n/a	WORD	2056599	wordpools/wasnorm_wordpool_576.txt	LTP388	ltpFR2	0	3	COURSE	390	n/a	n/a	0	0	0
1006.6064453125	n/a	WORD	2061530	wordpools/wasnorm_wordpool_576.txt	LTP388	ltpFR2	0	3	TWISTER	1530	n/a	n/a	0	0	0
1009.064453125	n/a	WORD	2066564	wordpools/wasnorm_wordpool_576.txt	LTP388	ltpFR2	0	3	SLUG	1329	n/a	n/a	0	0	0
1011.53857421875	n/a	WORD	2071631	wordpools/wasnorm_wordpool_576.txt	LTP388	ltpFR2	0	3	TOMBSTONE	1478	n/a	n/a	0	0	0
1014.01318359375	n/a	WORD	2076699	wordpools/wasnorm_wordpool_576.txt	LTP388	ltpFR2	0	3	PALACE	1006	n/a	n/a	0	0	0
1016.77197265625	n/a	WORD	2082349	wordpools/wasnorm_wordpool_576.txt	LTP388	ltpFR2	0	3	POET	1095	n/a	n/a	0	0	0
1019.53125	n/a	WORD	2088000	wordpools/wasnorm_wordpool_576.txt	LTP388	ltpFR2	0	3	GUARD	667	n/a	n/a	0	0	0
1022.0390625	n/a	WORD	2093136	wordpools/wasnorm_wordpool_576.txt	LTP388	ltpFR2	0	3	VALVE	1546	n/a	n/a	0	0	0
1024.44677734375	n/a	WORD	2098067	wordpools/wasnorm_wordpool_576.txt	LTP388	ltpFR2	0	3	DASHBOARD	441	n/a	n/a	0	0	0
1027.18896484375	n/a	WORD	2103683	wordpools/wasnorm_wordpool_576.txt	LTP388	ltpFR2	0	3	DRESSER	496	n/a	n/a	0	0	0
1029.78076171875	n/a	WORD	2108991	wordpools/wasnorm_wordpool_576.txt	LTP388	ltpFR2	0	3	LONDON	843	n/a	n/a	0	0	0
1031.3857421875	n/a	START	2112278	n/a	LTP388	ltpFR2	0	n/a	n/a	n/a	6	n/a	n/a	n/a	n/a
1032.35595703125	n/a	DISTRACTOR	2114265	n/a	LTP388	ltpFR2	0	3	n/a	n/a	n/a	n/a	0	0	0
1032.37255859375	n/a	PROB	2114299	n/a	LTP388	ltpFR2	0	n/a	n/a	n/a	6	12	3	7	2
1035.03076171875	n/a	PROB	2119743	n/a	LTP388	ltpFR2	0	n/a	n/a	n/a	6	12	2	2	8
1037.72265625	n/a	PROB	2125256	n/a	LTP388	ltpFR2	0	n/a	n/a	n/a	6	16	4	8	4
1039.62744140625	n/a	PROB	2129157	n/a	LTP388	ltpFR2	0	n/a	n/a	n/a	6	12	8	3	1
1041.8193359375	n/a	PROB	2133646	n/a	LTP388	ltpFR2	0	n/a	n/a	n/a	6	15	7	4	4
1045.0634765625	n/a	PROB	2140290	n/a	LTP388	ltpFR2	0	n/a	n/a	n/a	6	8	1	1	6
1046.517578125	n/a	PROB	2143268	n/a	LTP388	ltpFR2	0	n/a	n/a	n/a	6	12	8	3	1
1048.69140625	n/a	PROB	2147720	n/a	LTP388	ltpFR2	0	n/a	n/a	n/a	6	17	7	9	1
1050.17919921875	n/a	PROB	2150767	n/a	LTP388	ltpFR2	0	n/a	n/a	n/a	6	5	2	1	2
1051.650390625	n/a	PROB	2153780	n/a	LTP388	ltpFR2	0	n/a	n/a	n/a	6	16	5	5	6
1053.3564453125	n/a	PROB	2157274	n/a	LTP388	ltpFR2	0	n/a	n/a	n/a	6	10	3	1	6
1055.21533203125	n/a	STOP	2161081	n/a	LTP388	ltpFR2	0	n/a	n/a	n/a	6	n/a	n/a	n/a	n/a
1057.236328125	n/a	REC_START	2165220	n/a	LTP388	ltpFR2	0	3	n/a	n/a	n/a	n/a	0	0	0
1057.96435546875	n/a	REC_WORD	2166711	wordpools/wasnorm_wordpool_576.txt	LTP388	ltpFR2	0	3	WASHER	1592	n/a	n/a	0	0	0
1059.34228515625	n/a	REC_WORD	2169533	wordpools/wasnorm_wordpool_576.txt	LTP388	ltpFR2	0	3	OUTLAW	989	n/a	n/a	0	0	0
1060.63916015625	n/a	REC_WORD	2172189	wordpools/wasnorm_wordpool_576.txt	LTP388	ltpFR2	0	3	VICTIM	1562	n/a	n/a	0	0	0
1071.7939453125	n/a	REC_WORD	2195034	wordpools/wasnorm_wordpool_576.txt	LTP388	ltpFR2	0	3	SCRIBBLE	1256	n/a	n/a	0	0	0
1075.99658203125	n/a	REC_WORD	2203641	wordpools/wasnorm_wordpool_576.txt	LTP388	ltpFR2	0	3	SLUG	1329	n/a	n/a	0	0	0
1084.7373046875	n/a	REC_WORD	2221542	wordpools/wasnorm_wordpool_576.txt	LTP388	ltpFR2	0	3	POET	1095	n/a	n/a	0	0	0
1090.29150390625	n/a	REC_WORD	2232917	wordpools/wasnorm_wordpool_576.txt	LTP388	ltpFR2	0	3	PALACE	1006	n/a	n/a	0	0	0
1092.1455078125	n/a	REC_WORD	2236714	wordpools/wasnorm_wordpool_576.txt	LTP388	ltpFR2	0	3	CROWN	415	n/a	n/a	0	0	0
1097.92724609375	n/a	REC_WORD	2248555	wordpools/wasnorm_wordpool_576.txt	LTP388	ltpFR2	0	3	TOMBSTONE	1478	n/a	n/a	0	0	0
1123.41357421875	n/a	REC_WORD	2300751	wordpools/wasnorm_wordpool_576.txt	LTP388	ltpFR2	0	3	CITRUS	313	n/a	n/a	0	0	0
1147.69287109375	n/a	WORD	2350475	wordpools/wasnorm_wordpool_576.txt	LTP388	ltpFR2	0	4	CLAM	315	n/a	n/a	0	0	0
1150.2509765625	n/a	WORD	2355714	wordpools/wasnorm_wordpool_576.txt	LTP388	ltpFR2	0	4	DANCER	437	n/a	n/a	0	0	0
1152.876953125	n/a	WORD	2361092	wordpools/wasnorm_wordpool_576.txt	LTP388	ltpFR2	0	4	ATLAS	53	n/a	n/a	0	0	0
1155.41748046875	n/a	WORD	2366295	wordpools/wasnorm_wordpool_576.txt	LTP388	ltpFR2	0	4	WORLD	1622	n/a	n/a	0	0	0
1158.0263671875	n/a	WORD	2371638	wordpools/wasnorm_wordpool_576.txt	LTP388	ltpFR2	0	4	CIGAR	308	n/a	n/a	0	0	0
1160.63330078125	n/a	WORD	2376977	wordpools/wasnorm_wordpool_576.txt	LTP388	ltpFR2	0	4	ATOM	55	n/a	n/a	0	0	0
1163.0595703125	n/a	WORD	2381946	wordpools/wasnorm_wordpool_576.txt	LTP388	ltpFR2	0	4	ACTOR	5	n/a	n/a	0	0	0
1165.55029296875	n/a	WORD	2387047	wordpools/wasnorm_wordpool_576.txt	LTP388	ltpFR2	0	4	ONION	977	n/a	n/a	0	0	0
1168.12548828125	n/a	WORD	2392321	wordpools/wasnorm_wordpool_576.txt	LTP388	ltpFR2	0	4	PATIENT	1024	n/a	n/a	0	0	0
1170.66650390625	n/a	WORD	2397525	wordpools/wasnorm_wordpool_576.txt	LTP388	ltpFR2	0	4	EMPIRE	530	n/a	n/a	0	0	0
1173.4423828125	n/a	WORD	2403210	wordpools/wasnorm_wordpool_576.txt	LTP388	ltpFR2	0	4	RUG	1215	n/a	n/a	0	0	0
1175.93408203125	n/a	WORD	2408313	wordpools/wasnorm_wordpool_576.txt	LTP388	ltpFR2	0	4	MOP	916	n/a	n/a	0	0	0
1178.50927734375	n/a	WORD	2413587	wordpools/wasnorm_wordpool_576.txt	LTP388	ltpFR2	0	4	HUSBAND	728	n/a	n/a	0	0	0
1181.1669921875	n/a	WORD	2419030	wordpools/wasnorm_wordpool_576.txt	LTP388	ltpFR2	0	4	WITNESS	1618	n/a	n/a	0	0	0
1183.85888671875	n/a	WORD	2424543	wordpools/wasnorm_wordpool_576.txt	LTP388	ltpFR2	0	4	BUREAU	199	n/a	n/a	0	0	0
1186.55078125	n/a	WORD	2430056	wordpools/wasnorm_wordpool_576.txt	LTP388	ltpFR2	0	4	APRON	35	n/a	n/a	0	0	0
1189.142578125	n/a	WORD	2435364	wordpools/wasnorm_wordpool_576.txt	LTP388	ltpFR2	0	4	COCOON	339	n/a	n/a	0	0	0
1191.6005859375	n/a	WORD	2440398	wordpools/wasnorm_wordpool_576.txt	LTP388	ltpFR2	0	4	LILY	821	n/a	n/a	0	0	0
1194.12548828125	n/a	WORD	2445569	wordpools/wasnorm_wordpool_576.txt	LTP388	ltpFR2	0	4	PERCH	1048	n/a	n/a	0	0	0
1196.78369140625	n/a	WORD	2451013	wordpools/wasnorm_wordpool_576.txt	LTP388	ltpFR2	0	4	PADDLE	1000	n/a	n/a	0	0	0
1199.59375	n/a	WORD	2456768	wordpools/wasnorm_wordpool_576.txt	LTP388	ltpFR2	0	4	MEAT	883	n/a	n/a	0	0	0
1202.25146484375	n/a	WORD	2462211	wordpools/wasnorm_wordpool_576.txt	LTP388	ltpFR2	0	4	CRICKET	408	n/a	n/a	0	0	0
1204.91015625	n/a	WORD	2467656	wordpools/wasnorm_wordpool_576.txt	LTP388	ltpFR2	0	4	OYSTER	995	n/a	n/a	0	0	0
1207.53515625	n/a	WORD	2473032	wordpools/wasnorm_wordpool_576.txt	LTP388	ltpFR2	0	4	CASHIER	254	n/a	n/a	0	0	0
1209.14013671875	n/a	START	2476319	n/a	LTP388	ltpFR2	0	n/a	n/a	n/a	7	n/a	n/a	n/a	n/a
1209.9560546875	n/a	DISTRACTOR	2477990	n/a	LTP388	ltpFR2	0	4	n/a	n/a	n/a	n/a	0	0	0
1209.95947265625	n/a	PROB	2477997	n/a	LTP388	ltpFR2	0	n/a	n/a	n/a	7	21	8	7	5
1215.16015625	n/a	PROB	2488648	n/a	LTP388	ltpFR2	0	n/a	n/a	n/a	7	18	4	9	5
1219.22314453125	n/a	PROB	2496969	n/a	LTP388	ltpFR2	0	n/a	n/a	n/a	7	7	3	3	1
1221.52978515625	n/a	PROB	2501693	n/a	LTP388	ltpFR2	0	n/a	n/a	n/a	7	24	7	9	8
1226.2119140625	n/a	PROB	2511282	n/a	LTP388	ltpFR2	0	n/a	n/a	n/a	7	21	6	7	8
1229.388671875	n/a	PROB	2517788	n/a	LTP388	ltpFR2	0	n/a	n/a	n/a	7	17	9	3	5
1233.064453125	n/a	STOP	2525316	n/a	LTP388	ltpFR2	0	n/a	n/a	n/a	7	n/a	n/a	n/a	n/a
1235.0078125	n/a	REC_START	2529296	n/a	LTP388	ltpFR2	0	4	n/a	n/a	n/a	n/a	0	0	0
1235.91552734375	n/a	REC_WORD	2531155	wordpools/wasnorm_wordpool_576.txt	LTP388	ltpFR2	0	4	LILY	821	n/a	n/a	0	0	0
1236.8974609375	n/a	REC_WORD	2533166	wordpools/wasnorm_wordpool_576.txt	LTP388	ltpFR2	0	4	CASHIER	254	n/a	n/a	0	0	0
1238.474609375	n/a	REC_WORD	2536396	wordpools/wasnorm_wordpool_576.txt	LTP388	ltpFR2	0	4	PERCH	1048	n/a	n/a	0	0	0
1239.59375	n/a	REC_WORD	2538688	wordpools/wasnorm_wordpool_576.txt	LTP388	ltpFR2	0	4	HUSBAND	728	n/a	n/a	0	0	0
1244.5576171875	n/a	REC_WORD	2548854	wordpools/wasnorm_wordpool_576.txt	LTP388	ltpFR2	0	4	OYSTER	995	n/a	n/a	0	0	0
1251.115234375	n/a	REC_WORD	2562284	wordpools/wasnorm_wordpool_576.txt	LTP388	ltpFR2	0	4	ATLAS	53	n/a	n/a	0	0	0
1252.2744140625	n/a	REC_WORD	2564658	wordpools/wasnorm_wordpool_576.txt	LTP388	ltpFR2	0	4	WORLD	1622	n/a	n/a	0	0	0
1253.6162109375	n/a	REC_WORD	2567406	wordpools/wasnorm_wordpool_576.txt	LTP388	ltpFR2	0	4	ONION	977	n/a	n/a	0	0	0
1256.01904296875	n/a	REC_WORD	2572327	wordpools/wasnorm_wordpool_576.txt	LTP388	ltpFR2	0	4	BUREAU	199	n/a	n/a	0	0	0
1273.11767578125	n/a	REC_WORD	2607345	wordpools/wasnorm_wordpool_576.txt	LTP388	ltpFR2	0	4	CLAM	315	n/a	n/a	0	0	0
1325.447265625	n/a	DISTRACTOR	2714516	n/a	LTP388	ltpFR2	0	5	n/a	n/a	n/a	n/a	0	0	0
1325.4482421875	n/a	START	2714518	n/a	LTP388	ltpFR2	0	n/a	n/a	n/a	8	n/a	n/a	n/a	n/a
1325.46435546875	n/a	PROB	2714551	n/a	LTP388	ltpFR2	0	n/a	n/a	n/a	8	13	4	5	4
1329.2431640625	n/a	PROB	2722290	n/a	LTP388	ltpFR2	0	n/a	n/a	n/a	8	18	6	8	4
1330.982421875	n/a	PROB	2725852	n/a	LTP388	ltpFR2	0	n/a	n/a	n/a	8	13	1	3	9
1332.7880859375	n/a	PROB	2729550	n/a	LTP388	ltpFR2	0	n/a	n/a	n/a	8	21	8	9	4
1338.1220703125	n/a	PROB	2740474	n/a	LTP388	ltpFR2	0	n/a	n/a	n/a	8	14	4	3	7
1339.69287109375	n/a	PROB	2743691	n/a	LTP388	ltpFR2	0	n/a	n/a	n/a	8	18	9	4	5
1341.85009765625	n/a	PROB	2748109	n/a	LTP388	ltpFR2	0	n/a	n/a	n/a	8	13	9	2	2
1343.43896484375	n/a	PROB	2751363	n/a	LTP388	ltpFR2	0	n/a	n/a	n/a	8	18	7	7	4
1345.0107421875	n/a	PROB	2754582	n/a	LTP388	ltpFR2	0	n/a	n/a	n/a	8	21	5	8	8
1349.44775390625	n/a	STOP	2763669	n/a	LTP388	ltpFR2	0	n/a	n/a	n/a	8	n/a	n/a	n/a	n/a
1350.36083984375	n/a	WORD	2765539	wordpools/wasnorm_wordpool_576.txt	LTP388	ltpFR2	0	5	GRIZZLY	662	n/a	n/a	0	0	0
1352.86865234375	n/a	WORD	2770675	wordpools/wasnorm_wordpool_576.txt	LTP388	ltpFR2	0	5	JUDGE	761	n/a	n/a	0	0	0
1355.49462890625	n/a	WORD	2776053	wordpools/wasnorm_wordpool_576.txt	LTP388	ltpFR2	0	5	SLIME	1327	n/a	n/a	0	0	0
1357.9853515625	n/a	WORD	2781154	wordpools/wasnorm_wordpool_576.txt	LTP388	ltpFR2	0	5	GRAVEL	659	n/a	n/a	0	0	0
1360.74462890625	n/a	WORD	2786805	wordpools/wasnorm_wordpool_576.txt	LTP388	ltpFR2	0	5	GHETTO	633	n/a	n/a	0	0	0
1363.21923828125	n/a	WORD	2791873	wordpools/wasnorm_wordpool_576.txt	LTP388	ltpFR2	0	5	SURVEY	1414	n/a	n/a	0	0	0
1365.978515625	n/a	WORD	2797524	wordpools/wasnorm_wordpool_576.txt	LTP388	ltpFR2	0	5	MISSILE	900	n/a	n/a	0	0	0
1368.6181640625	n/a	WORD	2802930	wordpools/wasnorm_wordpool_576.txt	LTP388	ltpFR2	0	5	SCISSORS	1250	n/a	n/a	0	0	0
1371.3623046875	n/a	WORD	2808550	wordpools/wasnorm_wordpool_576.txt	LTP388	ltpFR2	0	5	LIVER	833	n/a	n/a	0	0	0
1373.7861328125	n/a	WORD	2813514	wordpools/wasnorm_wordpool_576.txt	LTP388	ltpFR2	0	5	GARBAGE	622	n/a	n/a	0	0	0
1376.328125	n/a	WORD	2818720	wordpools/wasnorm_wordpool_576.txt	LTP388	ltpFR2	0	5	CHIPMUNK	304	n/a	n/a	0	0	0
1379.0869140625	n/a	WORD	2824370	wordpools/wasnorm_wordpool_576.txt	LTP388	ltpFR2	0	5	QUARTER	1148	n/a	n/a	0	0	0
1381.76171875	n/a	WORD	2829848	wordpools/wasnorm_wordpool_576.txt	LTP388	ltpFR2	0	5	ARMY	39	n/a	n/a	0	0	0
1384.38671875	n/a	WORD	2835224	wordpools/wasnorm_wordpool_576.txt	LTP388	ltpFR2	0	5	FOOT	590	n/a	n/a	0	0	0
1387.19580078125	n/a	WORD	2840977	wordpools/wasnorm_wordpool_576.txt	LTP388	ltpFR2	0	5	BARREL	91	n/a	n/a	0	0	0
1389.921875	n/a	WORD	2846560	wordpools/wasnorm_wordpool_576.txt	LTP388	ltpFR2	0	5	NOVEL	960	n/a	n/a	0	0	0
1392.3955078125	n/a	WORD	2851626	wordpools/wasnorm_wordpool_576.txt	LTP388	ltpFR2	0	5	JOURNAL	760	n/a	n/a	0	0	0
1395.0546875	n/a	WORD	2857072	wordpools/wasnorm_wordpool_576.txt	LTP388	ltpFR2	0	5	SCALPEL	1243	n/a	n/a	0	0	0
1397.79638671875	n/a	WORD	2862687	wordpools/wasnorm_wordpool_576.txt	LTP388	ltpFR2	0	5	PORK	1108	n/a	n/a	0	0	0
1400.3212890625	n/a	WORD	2867858	wordpools/wasnorm_wordpool_576.txt	LTP388	ltpFR2	0	5	BANQUET	86	n/a	n/a	0	0	0
1402.82958984375	n/a	WORD	2872995	wordpools/wasnorm_wordpool_576.txt	LTP388	ltpFR2	0	5	GRILL	661	n/a	n/a	0	0	0
1405.404296875	n/a	WORD	2878268	wordpools/wasnorm_wordpool_576.txt	LTP388	ltpFR2	0	5	COUSIN	392	n/a	n/a	0	0	0
1408.197265625	n/a	WORD	2883988	wordpools/wasnorm_wordpool_576.txt	LTP388	ltpFR2	0	5	GAVEL	627	n/a	n/a	0	0	0
1410.83935546875	n/a	WORD	2889399	wordpools/wasnorm_wordpool_576.txt	LTP388	ltpFR2	0	5	GAZELLE	628	n/a	n/a	0	0	0
1412.4443359375	n/a	START	2892686	n/a	LTP388	ltpFR2	0	n/a	n/a	n/a	9	n/a	n/a	n/a	n/a
1413.38525390625	n/a	DISTRACTOR	2894613	n/a	LTP388	ltpFR2	0	5	n/a	n/a	n/a	n/a	0	0	0
1413.39697265625	n/a	PROB	2894637	n/a	LTP388	ltpFR2	0	n/a	n/a	n/a	9	16	9	2	5
1416.15625	n/a	PROB	2900288	n/a	LTP388	ltpFR2	0	n/a	n/a	n/a	9	18	8	3	7
1417.52685546875	n/a	PROB	2903095	n/a	LTP388	ltpFR2	0	n/a	n/a	n/a	9	18	9	4	5
1420.0517578125	n/a	PROB	2908266	n/a	LTP388	ltpFR2	0	n/a	n/a	n/a	9	25	8	8	9
1423.998046875	n/a	PROB	2916348	n/a	LTP388	ltpFR2	0	n/a	n/a	n/a	9	9	4	2	3
1427.0576171875	n/a	PROB	2922614	n/a	LTP388	ltpFR2	0	n/a	n/a	n/a	9	19	5	6	8
1429.431640625	n/a	PROB	2927476	n/a	LTP388	ltpFR2	0	n/a	n/a	n/a	9	20	9	5	6
1431.45458984375	n/a	PROB	2931619	n/a	LTP388	ltpFR2	0	n/a	n/a	n/a	9	11	1	3	7
1436.443359375	n/a	STOP	2941836	n/a	LTP388	ltpFR2	0	n/a	n/a	n/a	9	n/a	n/a	n/a	n/a
1438.24365234375	n/a	REC_START	2945523	n/a	LTP388	ltpFR2	0	5	n/a	n/a	n/a	n/a	0	0	0
1439.84716796875	n/a	REC_WORD	2948807	wordpools/wasnorm_wordpool_576.txt	LTP388	ltpFR2	0	5	GRIZZLY	662	n/a	n/a	0	0	0
1441.47021484375	n/a	REC_WORD	2952131	wordpools/wasnorm_wordpool_576.txt	LTP388	ltpFR2	0	5	GAVEL	627	n/a	n/a	0	0	0
1442.83154296875	n/a	REC_WORD	2954919	wordpools/wasnorm_wordpool_576.txt	LTP388	ltpFR2	0	5	GAZELLE	628	n/a	n/a	0	0	0
1444.4072265625	n/a	REC_WORD	2958146	wordpools/wasnorm_wordpool_576.txt	LTP388	ltpFR2	0	5	SLIME	1327	n/a	n/a	0	0	0
1446.275390625	n/a	REC_WORD	2961972	wordpools/wasnorm_wordpool_576.txt	LTP388	ltpFR2	0	5	GHETTO	633	n/a	n/a	0	0	0
1447.8671875	n/a	REC_WORD	2965232	wordpools/wasnorm_wordpool_576.txt	LTP388	ltpFR2	0	5	JUDGE	761	n/a	n/a	0	0	0
1449.73193359375	n/a	REC_WORD	2969051	wordpools/wasnorm_wordpool_576.txt	LTP388	ltpFR2	0	5	FOOT	590	n/a	n/a	0	0	0
1451.31689453125	n/a	REC_WORD	2972297	wordpools/wasnorm_wordpool_576.txt	LTP388	ltpFR2	0	5	SCALPEL	1243	n/a	n/a	0	0	0
1550.48779296875	n/a	WORD	3175399	wordpools/wasnorm_wordpool_576.txt	LTP388	ltpFR2	0	6	PARROT	1015	n/a	n/a	0	0	0
1553.04541015625	n/a	WORD	3180637	wordpools/wasnorm_wordpool_576.txt	LTP388	ltpFR2	0	6	BUBBLE	183	n/a	n/a	0	0	0
1555.6025390625	n/a	WORD	3185874	wordpools/wasnorm_wordpool_576.txt	LTP388	ltpFR2	0	6	FREEZER	604	n/a	n/a	0	0	0
1558.04541015625	n/a	WORD	3190877	wordpools/wasnorm_wordpool_576.txt	LTP388	ltpFR2	0	6	WAITRESS	1581	n/a	n/a	0	0	0
1560.6025390625	n/a	WORD	3196114	wordpools/wasnorm_wordpool_576.txt	LTP388	ltpFR2	0	6	CAFE	216	n/a	n/a	0	0	0
1563.111328125	n/a	WORD	3201252	wordpools/wasnorm_wordpool_576.txt	LTP388	ltpFR2	0	6	QUAIL	1147	n/a	n/a	0	0	0
1565.736328125	n/a	WORD	3206628	wordpools/wasnorm_wordpool_576.txt	LTP388	ltpFR2	0	6	NIGHTGOWN	953	n/a	n/a	0	0	0
1568.2783203125	n/a	WORD	3211834	wordpools/wasnorm_wordpool_576.txt	LTP388	ltpFR2	0	6	SISTER	1312	n/a	n/a	0	0	0
1570.7021484375	n/a	WORD	3216798	wordpools/wasnorm_wordpool_576.txt	LTP388	ltpFR2	0	6	DINER	467	n/a	n/a	0	0	0
1573.244140625	n/a	WORD	3222004	wordpools/wasnorm_wordpool_576.txt	LTP388	ltpFR2	0	6	HANDBAG	684	n/a	n/a	0	0	0
1575.96875	n/a	WORD	3227584	wordpools/wasnorm_wordpool_576.txt	LTP388	ltpFR2	0	6	MONEY	908	n/a	n/a	0	0	0
1578.41064453125	n/a	WORD	3232585	wordpools/wasnorm_wordpool_576.txt	LTP388	ltpFR2	0	6	PANTHER	1009	n/a	n/a	0	0	0
1580.8515625	n/a	WORD	3237584	wordpools/wasnorm_wordpool_576.txt	LTP388	ltpFR2	0	6	CHAUFFEUR	283	n/a	n/a	0	0	0
1583.5107421875	n/a	WORD	3243030	wordpools/wasnorm_wordpool_576.txt	LTP388	ltpFR2	0	6	CLOTHES	327	n/a	n/a	0	0	0
1586.1357421875	n/a	WORD	3248406	wordpools/wasnorm_wordpool_576.txt	LTP388	ltpFR2	0	6	OUTFIT	988	n/a	n/a	0	0	0
1588.5595703125	n/a	WORD	3253370	wordpools/wasnorm_wordpool_576.txt	LTP388	ltpFR2	0	6	CHILD	299	n/a	n/a	0	0	0
1591.2685546875	n/a	WORD	3258918	wordpools/wasnorm_wordpool_576.txt	LTP388	ltpFR2	0	6	CRAB	397	n/a	n/a	0	0	0
1593.87646484375	n/a	WORD	3264259	wordpools/wasnorm_wordpool_576.txt	LTP388	ltpFR2	0	6	SALMON	1227	n/a	n/a	0	0	0
1596.36865234375	n/a	WORD	3269363	wordpools/wasnorm_wordpool_576.txt	LTP388	ltpFR2	0	6	GIFT	635	n/a	n/a	0	0	0
1598.87646484375	n/a	WORD	3274499	wordpools/wasnorm_wordpool_576.txt	LTP388	ltpFR2	0	6	JELLO	754	n/a	n/a	0	0	0
1601.53515625	n/a	WORD	3279944	wordpools/wasnorm_wordpool_576.txt	LTP388	ltpFR2	0	6	REBEL	1172	n/a	n/a	0	0	0
1604.0263671875	n/a	WORD	3285046	wordpools/wasnorm_wordpool_576.txt	LTP388	ltpFR2	0	6	EXPERT	543	n/a	n/a	0	0	0
1606.5009765625	n/a	WORD	3290114	wordpools/wasnorm_wordpool_576.txt	LTP388	ltpFR2	0	6	SHARK	1275	n/a	n/a	0	0	0
1609.17626953125	n/a	WORD	3295593	wordpools/wasnorm_wordpool_576.txt	LTP388	ltpFR2	0	6	SANDWICH	1232	n/a	n/a	0	0	0
1610.78125	n/a	START	3298880	n/a	LTP388	ltpFR2	0	n/a	n/a	n/a	10	n/a	n/a	n/a	n/a
1611.93115234375	n/a	DISTRACTOR	3301235	n/a	LTP388	ltpFR2	0	6	n/a	n/a	n/a	n/a	0	0	0
1611.93505859375	n/a	PROB	3301243	n/a	LTP388	ltpFR2	0	n/a	n/a	n/a	10	11	1	3	7
1613.85791015625	n/a	PROB	3305181	n/a	LTP388	ltpFR2	0	n/a	n/a	n/a	10	19	3	7	9
1615.86376953125	n/a	PROB	3309289	n/a	LTP388	ltpFR2	0	n/a	n/a	n/a	10	10	1	6	3
1617.53564453125	n/a	PROB	3312713	n/a	LTP388	ltpFR2	0	n/a	n/a	n/a	10	18	9	1	8
1618.90673828125	n/a	PROB	3315521	n/a	LTP388	ltpFR2	0	n/a	n/a	n/a	10	13	4	3	5
1621.5986328125	n/a	PROB	3321034	n/a	LTP388	ltpFR2	0	n/a	n/a	n/a	10	9	3	4	2
1625.6787109375	n/a	PROB	3329390	n/a	LTP388	ltpFR2	0	n/a	n/a	n/a	10	12	8	3	1
1628.13671875	n/a	PROB	3334424	n/a	LTP388	ltpFR2	0	n/a	n/a	n/a	10	21	8	5	8
1630.16064453125	n/a	PROB	3338569	n/a	LTP388	ltpFR2	0	n/a	n/a	n/a	10	11	4	5	2
1632.400390625	n/a	PROB	3343156	n/a	LTP388	ltpFR2	0	n/a	n/a	n/a	10	5	2	2	3
1633.53857421875	n/a	STOP	3345487	n/a	LTP388	ltpFR2	0	n/a	n/a	n/a	10	n/a	n/a	n/a	n/a
1636.51416015625	n/a	REC_START	3351581	n/a	LTP388	ltpFR2	0	6	n/a	n/a	n/a	n/a	0	0	0
1637.46337890625	n/a	REC_WORD	3353525	wordpools/wasnorm_wordpool_576.txt	LTP388	ltpFR2	0	6	PARROT	1015	n/a	n/a	0	0	0
1640.71826171875	n/a	REC_WORD	3360191	wordpools/wasnorm_wordpool_576.txt	LTP388	ltpFR2	0	6	SHARK	1275	n/a	n/a	0	0	0
1642.92626953125	n/a	REC_WORD	3364713	wordpools/wasnorm_wordpool_576.txt	LTP388	ltpFR2	0	6	BUBBLE	183	n/a	n/a	0	0	0
1649.97998046875	n/a	REC_WORD	3379159	wordpools/wasnorm_wordpool_576.txt	LTP388	ltpFR2	0	6	JELLO	754	n/a	n/a	0	0	0
1651.37890625	n/a	REC_WORD	3382024	wordpools/wasnorm_wordpool_576.txt	LTP388	ltpFR2	0	6	SANDWICH	1232	n/a	n/a	0	0	0
1656.61767578125	n/a	REC_WORD	3392753	wordpools/wasnorm_wordpool_576.txt	LTP388	ltpFR2	0	6	OUTFIT	988	n/a	n/a	0	0	0
1658.19873046875	n/a	REC_WORD	3395991	wordpools/wasnorm_wordpool_576.txt	LTP388	ltpFR2	0	6	HANDBAG	684	n/a	n/a	0	0	0
1659.931640625	n/a	REC_WORD	3399540	wordpools/wasnorm_wordpool_576.txt	LTP388	ltpFR2	0	6	CLOTHES	327	n/a	n/a	0	0	0
1661.5439453125	n/a	REC_WORD	3402842	wordpools/wasnorm_wordpool_576.txt	LTP388	ltpFR2	0	6	MONEY	908	n/a	n/a	0	0	0
1663.49755859375	n/a	REC_WORD	3406843	wordpools/wasnorm_wordpool_576.txt	LTP388	ltpFR2	0	6	DINER	467	n/a	n/a	0	0	0
1665.138671875	n/a	REC_WORD	3410204	wordpools/wasnorm_wordpool_576.txt	LTP388	ltpFR2	0	6	WAITRESS	1581	n/a	n/a	0	0	0
1710.90625	n/a	REC_WORD	3503936	wordpools/wasnorm_wordpool_576.txt	LTP388	ltpFR2	0	6	PORK	1108	n/a	n/a	0	0	0
1743.7587890625	n/a	DISTRACTOR	3571218	n/a	LTP388	ltpFR2	0	7	n/a	n/a	n/a	n/a	0	0	0
1743.7587890625	n/a	START	3571218	n/a	LTP388	ltpFR2	0	n/a	n/a	n/a	11	n/a	n/a	n/a	n/a
1743.77587890625	n/a	PROB	3571253	n/a	LTP388	ltpFR2	0	n/a	n/a	n/a	11	18	7	3	8
1746.0654296875	n/a	PROB	3575942	n/a	LTP388	ltpFR2	0	n/a	n/a	n/a	11	11	2	3	6
1748.2734375	n/a	PROB	3580464	n/a	LTP388	ltpFR2	0	n/a	n/a	n/a	11	11	1	8	2
1750.2294921875	n/a	PROB	3584470	n/a	LTP388	ltpFR2	0	n/a	n/a	n/a	11	22	9	8	5
1755.17822265625	n/a	PROB	3594605	n/a	LTP388	ltpFR2	0	n/a	n/a	n/a	11	17	9	7	1
1757.9541015625	n/a	PROB	3600290	n/a	LTP388	ltpFR2	0	n/a	n/a	n/a	11	15	9	4	2
1760.39501953125	n/a	PROB	3605289	n/a	LTP388	ltpFR2	0	n/a	n/a	n/a	11	20	5	7	8
1765.39501953125	n/a	PROB	3615529	n/a	LTP388	ltpFR2	0	n/a	n/a	n/a	11	21	9	3	9
1767.283203125	n/a	STOP	3619396	n/a	LTP388	ltpFR2	0	n/a	n/a	n/a	11	n/a	n/a	n/a	n/a
1768.755859375	n/a	WORD	3622412	wordpools/wasnorm_wordpool_576.txt	LTP388	ltpFR2	0	7	HOUND	724	n/a	n/a	0	0	0
1771.3310546875	n/a	WORD	3627686	wordpools/wasnorm_wordpool_576.txt	LTP388	ltpFR2	0	7	FOX	598	n/a	n/a	0	0	0
1774.005859375	n/a	WORD	3633164	wordpools/wasnorm_wordpool_576.txt	LTP388	ltpFR2	0	7	RECEIPT	1173	n/a	n/a	0	0	0
1776.71484375	n/a	WORD	3638712	wordpools/wasnorm_wordpool_576.txt	LTP388	ltpFR2	0	7	DRINK	498	n/a	n/a	0	0	0
1779.32275390625	n/a	WORD	3644053	wordpools/wasnorm_wordpool_576.txt	LTP388	ltpFR2	0	7	FLAG	573	n/a	n/a	0	0	0
1781.7978515625	n/a	WORD	3649122	wordpools/wasnorm_wordpool_576.txt	LTP388	ltpFR2	0	7	COBRA	336	n/a	n/a	0	0	0
1784.48974609375	n/a	WORD	3654635	wordpools/wasnorm_wordpool_576.txt	LTP388	ltpFR2	0	7	LODGE	839	n/a	n/a	0	0	0
1786.9306640625	n/a	WORD	3659634	wordpools/wasnorm_wordpool_576.txt	LTP388	ltpFR2	0	7	COCKTAIL	338	n/a	n/a	0	0	0
1789.6044921875	n/a	WORD	3665110	wordpools/wasnorm_wordpool_576.txt	LTP388	ltpFR2	0	7	PLUTO	1092	n/a	n/a	0	0	0
1792.3486328125	n/a	WORD	3670730	wordpools/wasnorm_wordpool_576.txt	LTP388	ltpFR2	0	7	WOMAN	1620	n/a	n/a	0	0	0
1795.107421875	n/a	WORD	3676380	wordpools/wasnorm_wordpool_576.txt	LTP388	ltpFR2	0	7	FLESH	579	n/a	n/a	0	0	0
1797.91650390625	n/a	WORD	3682133	wordpools/wasnorm_wordpool_576.txt	LTP388	ltpFR2	0	7	LEG	809	n/a	n/a	0	0	0
1800.67529296875	n/a	WORD	3687783	wordpools/wasnorm_wordpool_576.txt	LTP388	ltpFR2	0	7	ZEBRA	1635	n/a	n/a	0	0	0
1803.30029296875	n/a	WORD	3693159	wordpools/wasnorm_wordpool_576.txt	LTP388	ltpFR2	0	7	TAXI	1438	n/a	n/a	0	0	0
1805.9921875	n/a	WORD	3698672	wordpools/wasnorm_wordpool_576.txt	LTP388	ltpFR2	0	7	HIGHWAY	707	n/a	n/a	0	0	0
1808.64990234375	n/a	WORD	3704115	wordpools/wasnorm_wordpool_576.txt	LTP388	ltpFR2	0	7	FILM	565	n/a	n/a	0	0	0
1811.19189453125	n/a	WORD	3709321	wordpools/wasnorm_wordpool_576.txt	LTP388	ltpFR2	0	7	CRITIC	410	n/a	n/a	0	0	0
1813.85107421875	n/a	WORD	3714767	wordpools/wasnorm_wordpool_576.txt	LTP388	ltpFR2	0	7	BRACES	164	n/a	n/a	0	0	0
1816.42578125	n/a	WORD	3720040	wordpools/wasnorm_wordpool_576.txt	LTP388	ltpFR2	0	7	MISTER	901	n/a	n/a	0	0	0
1818.93359375	n/a	WORD	3725176	wordpools/wasnorm_wordpool_576.txt	LTP388	ltpFR2	0	7	BLUEPRINT	142	n/a	n/a	0	0	0
1821.62451171875	n/a	WORD	3730687	wordpools/wasnorm_wordpool_576.txt	LTP388	ltpFR2	0	7	SHELTER	1282	n/a	n/a	0	0	0
1824.28369140625	n/a	WORD	3736133	wordpools/wasnorm_wordpool_576.txt	LTP388	ltpFR2	0	7	ANTLER	29	n/a	n/a	0	0	0
1826.7255859375	n/a	WORD	3741134	wordpools/wasnorm_wordpool_576.txt	LTP388	ltpFR2	0	7	SCULPTURE	1258	n/a	n/a	0	0	0
1829.4345703125	n/a	WORD	3746682	wordpools/wasnorm_wordpool_576.txt	LTP388	ltpFR2	0	7	DONOR	485	n/a	n/a	0	0	0
1831.03955078125	n/a	START	3749969	n/a	LTP388	ltpFR2	0	n/a	n/a	n/a	12	n/a	n/a	n/a	n/a
1831.95751953125	n/a	DISTRACTOR	3751849	n/a	LTP388	ltpFR2	0	7	n/a	n/a	n/a	n/a	0	0	0
1831.95849609375	n/a	PROB	3751851	n/a	LTP388	ltpFR2	0	n/a	n/a	n/a	12	12	3	8	1
1834.50048828125	n/a	PROB	3757057	n/a	LTP388	ltpFR2	0	n/a	n/a	n/a	12	22	8	7	9
1839.650390625	n/a	PROB	3767604	n/a	LTP388	ltpFR2	0	n/a	n/a	n/a	12	17	8	2	7
1843.2451171875	n/a	PROB	3774966	n/a	LTP388	ltpFR2	0	n/a	n/a	n/a	12	19	5	5	9
1844.64892578125	n/a	PROB	3777841	n/a	LTP388	ltpFR2	0	n/a	n/a	n/a	12	14	9	4	1
1847.14111328125	n/a	PROB	3782945	n/a	LTP388	ltpFR2	0	n/a	n/a	n/a	12	20	6	9	5
1855.03759765625	n/a	STOP	3799117	n/a	LTP388	ltpFR2	0	n/a	n/a	n/a	12	n/a	n/a	n/a	n/a
1856.97265625	n/a	REC_START	3803080	n/a	LTP388	ltpFR2	0	7	n/a	n/a	n/a	n/a	0	0	0
1858.16259765625	n/a	REC_WORD	3805517	wordpools/wasnorm_wordpool_576.txt	LTP388	ltpFR2	0	7	FOX	598	n/a	n/a	0	0	0
1859.46875	n/a	REC_WORD	3808192	wordpools/wasnorm_wordpool_576.txt	LTP388	ltpFR2	0	7	HOUND	724	n/a	n/a	0	0	0
1861.005859375	n/a	REC_WORD	3811340	wordpools/wasnorm_wordpool_576.txt	LTP388	ltpFR2	0	7	COBRA	336	n/a	n/a	0	0	0
1862.7626953125	n/a	REC_WORD	3814938	wordpools/wasnorm_wordpool_576.txt	LTP388	ltpFR2	0	7	DONOR	485	n/a	n/a	0	0	0
1863.98974609375	n/a	REC_WORD	3817451	wordpools/wasnorm_wordpool_576.txt	LTP388	ltpFR2	0	7	HIGHWAY	707	n/a	n/a	0	0	0
1865.41650390625	n/a	REC_WORD	3820373	wordpools/wasnorm_wordpool_576.txt	LTP388	ltpFR2	0	7	SCULPTURE	1258	n/a	n/a	0	0	0
1866.92041015625	n/a	REC_WORD	3823453	wordpools/wasnorm_wordpool_576.txt	LTP388	ltpFR2	0	7	FILM	565	n/a	n/a	0	0	0
1868.55859375	n/a	REC_WORD	3826808	wordpools/wasnorm_wordpool_576.txt	LTP388	ltpFR2	0	7	CRITIC	410	n/a	n/a	0	0	0
1897.24072265625	n/a	REC_WORD	3885549	wordpools/wasnorm_wordpool_576.txt	LTP388	ltpFR2	0	7	LODGE	839	n/a	n/a	0	0	0
1913.88232421875	n/a	REC_WORD	3919631	wordpools/wasnorm_wordpool_576.txt	LTP388	ltpFR2	0	7	BRACES	164	n/a	n/a	0	0	0
1954.75341796875	n/a	DISTRACTOR	4003335	n/a	LTP388	ltpFR2	0	8	n/a	n/a	n/a	n/a	0	0	0
1954.75341796875	n/a	START	4003335	n/a	LTP388	ltpFR2	0	n/a	n/a	n/a	13	n/a	n/a	n/a	n/a
1954.7705078125	n/a	PROB	4003370	n/a	LTP388	ltpFR2	0	n/a	n/a	n/a	13	11	1	5	5
1956.4423828125	n/a	PROB	4006794	n/a	LTP388	ltpFR2	0	n/a	n/a	n/a	13	8	1	4	3
1960.22119140625	n/a	PROB	4014533	n/a	LTP388	ltpFR2	0	n/a	n/a	n/a	13	22	9	5	8
1963.798828125	n/a	PROB	4021860	n/a	LTP388	ltpFR2	0	n/a	n/a	n/a	13	1	8	3	2
1965.7548828125	n/a	PROB	4025866	n/a	LTP388	ltpFR2	0	n/a	n/a	n/a	13	10	6	1	3
1969.90185546875	n/a	PROB	4034359	n/a	LTP388	ltpFR2	0	n/a	n/a	n/a	13	23	9	8	6
1974.95166015625	n/a	PROB	4044701	n/a	LTP388	ltpFR2	0	n/a	n/a	n/a	13	10	4	2	4
1978.64453125	n/a	STOP	4052264	n/a	LTP388	ltpFR2	0	n/a	n/a	n/a	13	n/a	n/a	n/a	n/a
1979.61572265625	n/a	WORD	4054253	wordpools/wasnorm_wordpool_576.txt	LTP388	ltpFR2	0	8	BACKBONE	66	n/a	n/a	0	0	0
1982.24169921875	n/a	WORD	4059631	wordpools/wasnorm_wordpool_576.txt	LTP388	ltpFR2	0	8	TORTOISE	1486	n/a	n/a	0	0	0
1985.05029296875	n/a	WORD	4065383	wordpools/wasnorm_wordpool_576.txt	LTP388	ltpFR2	0	8	CURTAIN	427	n/a	n/a	0	0	0
1987.4912109375	n/a	WORD	4070382	wordpools/wasnorm_wordpool_576.txt	LTP388	ltpFR2	0	8	SUNRISE	1407	n/a	n/a	0	0	0
1989.94921875	n/a	WORD	4075416	wordpools/wasnorm_wordpool_576.txt	LTP388	ltpFR2	0	8	SKILLET	1317	n/a	n/a	0	0	0
1992.47412109375	n/a	WORD	4080587	wordpools/wasnorm_wordpool_576.txt	LTP388	ltpFR2	0	8	CAMEL	223	n/a	n/a	0	0	0
1995.2333984375	n/a	WORD	4086238	wordpools/wasnorm_wordpool_576.txt	LTP388	ltpFR2	0	8	CHAPEL	280	n/a	n/a	0	0	0
1997.7412109375	n/a	WORD	4091374	wordpools/wasnorm_wordpool_576.txt	LTP388	ltpFR2	0	8	STALLION	1369	n/a	n/a	0	0	0
2000.30029296875	n/a	WORD	4096615	wordpools/wasnorm_wordpool_576.txt	LTP388	ltpFR2	0	8	CONVICT	371	n/a	n/a	0	0	0
2002.8408203125	n/a	WORD	4101818	wordpools/wasnorm_wordpool_576.txt	LTP388	ltpFR2	0	8	PARTNER	1017	n/a	n/a	0	0	0
2005.3828125	n/a	WORD	4107024	wordpools/wasnorm_wordpool_576.txt	LTP388	ltpFR2	0	8	GIRL	637	n/a	n/a	0	0	0
2008.041015625	n/a	WORD	4112468	wordpools/wasnorm_wordpool_576.txt	LTP388	ltpFR2	0	8	BARLEY	88	n/a	n/a	0	0	0
2010.56591796875	n/a	WORD	4117639	wordpools/wasnorm_wordpool_576.txt	LTP388	ltpFR2	0	8	ICING	732	n/a	n/a	0	0	0
2013.2919921875	n/a	WORD	4123222	wordpools/wasnorm_wordpool_576.txt	LTP388	ltpFR2	0	8	SHORTCAKE	1292	n/a	n/a	0	0	0
2016.05078125	n/a	WORD	4128872	wordpools/wasnorm_wordpool_576.txt	LTP388	ltpFR2	0	8	GREASE	660	n/a	n/a	0	0	0
2018.8427734375	n/a	WORD	4134590	wordpools/wasnorm_wordpool_576.txt	LTP388	ltpFR2	0	8	PREACHER	1119	n/a	n/a	0	0	0
2021.484375	n/a	WORD	4140000	wordpools/wasnorm_wordpool_576.txt	LTP388	ltpFR2	0	8	FRIAR	605	n/a	n/a	0	0	0
2024.26025390625	n/a	WORD	4145685	wordpools/wasnorm_wordpool_576.txt	LTP388	ltpFR2	0	8	PRIMATE	1123	n/a	n/a	0	0	0
2027.01953125	n/a	WORD	4151336	wordpools/wasnorm_wordpool_576.txt	LTP388	ltpFR2	0	8	CARROT	249	n/a	n/a	0	0	0
2029.4765625	n/a	WORD	4156368	wordpools/wasnorm_wordpool_576.txt	LTP388	ltpFR2	0	8	LAPEL	800	n/a	n/a	0	0	0
2032.2861328125	n/a	WORD	4162122	wordpools/wasnorm_wordpool_576.txt	LTP388	ltpFR2	0	8	CEILING	265	n/a	n/a	0	0	0
2034.9443359375	n/a	WORD	4167566	wordpools/wasnorm_wordpool_576.txt	LTP388	ltpFR2	0	8	SADDLE	1221	n/a	n/a	0	0	0
2037.43603515625	n/a	WORD	4172669	wordpools/wasnorm_wordpool_576.txt	LTP388	ltpFR2	0	8	WINDOW	1611	n/a	n/a	0	0	0
2040.0771484375	n/a	WORD	4178078	wordpools/wasnorm_wordpool_576.txt	LTP388	ltpFR2	0	8	COLONEL	348	n/a	n/a	0	0	0
2041.68310546875	n/a	START	4181367	n/a	LTP388	ltpFR2	0	n/a	n/a	n/a	14	n/a	n/a	n/a	n/a
2042.72412109375	n/a	DISTRACTOR	4183499	n/a	LTP388	ltpFR2	0	8	n/a	n/a	n/a	n/a	0	0	0
2042.73583984375	n/a	PROB	4183523	n/a	LTP388	ltpFR2	0	n/a	n/a	n/a	14	17	6	4	7
2046.18115234375	n/a	PROB	4190579	n/a	LTP388	ltpFR2	0	n/a	n/a	n/a	14	13	9	1	3
2047.751953125	n/a	PROB	4193796	n/a	LTP388	ltpFR2	0	n/a	n/a	n/a	14	8	4	2	2
2049.40771484375	n/a	PROB	4197187	n/a	LTP388	ltpFR2	0	n/a	n/a	n/a	14	18	7	5	6
2054.8076171875	n/a	PROB	4208246	n/a	LTP388	ltpFR2	0	n/a	n/a	n/a	14	7	4	2	1
2056.99853515625	n/a	PROB	4212733	n/a	LTP388	ltpFR2	0	n/a	n/a	n/a	14	12	9	2	1
2060.32568359375	n/a	PROB	4219547	n/a	LTP388	ltpFR2	0	n/a	n/a	n/a	14	7	5	1	1
2061.931640625	n/a	PROB	4222836	n/a	LTP388	ltpFR2	0	n/a	n/a	n/a	14	14	7	4	3
2065.6826171875	n/a	STOP	4230518	n/a	LTP388	ltpFR2	0	n/a	n/a	n/a	14	n/a	n/a	n/a	n/a
2067.58740234375	n/a	REC_START	4234419	n/a	LTP388	ltpFR2	0	8	n/a	n/a	n/a	n/a	0	0	0
2068.51123046875	n/a	REC_WORD	4236311	wordpools/wasnorm_wordpool_576.txt	LTP388	ltpFR2	0	8	LAPEL	800	n/a	n/a	0	0	0
2070.1025390625	n/a	REC_WORD	4239570	wordpools/wasnorm_wordpool_576.txt	LTP388	ltpFR2	0	8	COLONEL	348	n/a	n/a	0	0	0
2071.607421875	n/a	REC_WORD	4242652	wordpools/wasnorm_wordpool_576.txt	LTP388	ltpFR2	0	8	TORTOISE	1486	n/a	n/a	0	0	0
2073.09912109375	n/a	REC_WORD	4245707	wordpools/wasnorm_wordpool_576.txt	LTP388	ltpFR2	0	8	WINDOW	1611	n/a	n/a	0	0	0
2074.7880859375	n/a	REC_WORD	4249166	wordpools/wasnorm_wordpool_576.txt	LTP388	ltpFR2	0	8	GIRL	637	n/a	n/a	0	0	0
2076.30517578125	n/a	REC_WORD	4252273	wordpools/wasnorm_wordpool_576.txt	LTP388	ltpFR2	0	8	GREASE	660	n/a	n/a	0	0	0
2097.33740234375	n/a	REC_WORD	4295347	wordpools/wasnorm_wordpool_576.txt	LTP388	ltpFR2	0	8	BACKBONE	66	n/a	n/a	0	0	0
2118.46533203125	n/a	REC_WORD	4338617	wordpools/wasnorm_wordpool_576.txt	LTP388	ltpFR2	0	8	FRIAR	605	n/a	n/a	0	0	0
2124.69482421875	n/a	REC_WORD	4351375	wordpools/wasnorm_wordpool_576.txt	LTP388	ltpFR2	0	8	CHURCH	307	n/a	n/a	0	0	0
2137.4326171875	n/a	REC_WORD	4377462	wordpools/wasnorm_wordpool_576.txt	LTP388	ltpFR2	0	8	SHORTCAKE	1292	n/a	n/a	0	0	0
2138.5126953125	n/a	REC_WORD	4379674	wordpools/wasnorm_wordpool_576.txt	LTP388	ltpFR2	0	8	ICING	732	n/a	n/a	0	0	0
2144.111328125	n/a	REST_REWET	4391140	n/a	LTP388	ltpFR2	0	8	n/a	n/a	n/a	n/a	0	0	0
2289.86376953125	n/a	WORD	4689641	wordpools/wasnorm_wordpool_576.txt	LTP388	ltpFR2	0	9	SLOPE	1328	n/a	n/a	0	0	0
2292.3046875	n/a	WORD	4694640	wordpools/wasnorm_wordpool_576.txt	LTP388	ltpFR2	0	9	DENIM	446	n/a	n/a	0	0	0
2294.74560546875	n/a	WORD	4699639	wordpools/wasnorm_wordpool_576.txt	LTP388	ltpFR2	0	9	ORANGE	980	n/a	n/a	0	0	0
2297.25341796875	n/a	WORD	4704775	wordpools/wasnorm_wordpool_576.txt	LTP388	ltpFR2	0	9	ELBOW	520	n/a	n/a	0	0	0
2300.029296875	n/a	WORD	4710460	wordpools/wasnorm_wordpool_576.txt	LTP388	ltpFR2	0	9	OMELET	976	n/a	n/a	0	0	0
2302.53759765625	n/a	WORD	4715597	wordpools/wasnorm_wordpool_576.txt	LTP388	ltpFR2	0	9	SWORD	1423	n/a	n/a	0	0	0
2304.9951171875	n/a	WORD	4720630	wordpools/wasnorm_wordpool_576.txt	LTP388	ltpFR2	0	9	MOTEL	919	n/a	n/a	0	0	0
2307.60302734375	n/a	WORD	4725971	wordpools/wasnorm_wordpool_576.txt	LTP388	ltpFR2	0	9	LOFT	840	n/a	n/a	0	0	0
2310.09521484375	n/a	WORD	4731075	wordpools/wasnorm_wordpool_576.txt	LTP388	ltpFR2	0	9	DAUGHTER	442	n/a	n/a	0	0	0
2312.6533203125	n/a	WORD	4736314	wordpools/wasnorm_wordpool_576.txt	LTP388	ltpFR2	0	9	SHIRT	1287	n/a	n/a	0	0	0
2315.3623046875	n/a	WORD	4741862	wordpools/wasnorm_wordpool_576.txt	LTP388	ltpFR2	0	9	TART	1436	n/a	n/a	0	0	0
2317.98681640625	n/a	WORD	4747237	wordpools/wasnorm_wordpool_576.txt	LTP388	ltpFR2	0	9	PASTRY	1022	n/a	n/a	0	0	0
2320.69580078125	n/a	WORD	4752785	wordpools/wasnorm_wordpool_576.txt	LTP388	ltpFR2	0	9	CASKET	255	n/a	n/a	0	0	0
2323.32080078125	n/a	WORD	4758161	wordpools/wasnorm_wordpool_576.txt	LTP388	ltpFR2	0	9	BABY	64	n/a	n/a	0	0	0
2325.81298828125	n/a	WORD	4763265	wordpools/wasnorm_wordpool_576.txt	LTP388	ltpFR2	0	9	HOSTESS	723	n/a	n/a	0	0	0
2328.5546875	n/a	WORD	4768880	wordpools/wasnorm_wordpool_576.txt	LTP388	ltpFR2	0	9	BRICK	172	n/a	n/a	0	0	0
2331.07958984375	n/a	WORD	4774051	wordpools/wasnorm_wordpool_576.txt	LTP388	ltpFR2	0	9	WASP	1593	n/a	n/a	0	0	0
2333.5205078125	n/a	WORD	4779050	wordpools/wasnorm_wordpool_576.txt	LTP388	ltpFR2	0	9	TRENCH	1503	n/a	n/a	0	0	0
2336.29638671875	n/a	WORD	4784735	wordpools/wasnorm_wordpool_576.txt	LTP388	ltpFR2	0	9	HELMET	702	n/a	n/a	0	0	0
2338.7373046875	n/a	WORD	4789734	wordpools/wasnorm_wordpool_576.txt	LTP388	ltpFR2	0	9	SPOOL	1356	n/a	n/a	0	0	0
2341.228515625	n/a	WORD	4794836	wordpools/wasnorm_wordpool_576.txt	LTP388	ltpFR2	0	9	CARRIAGE	248	n/a	n/a	0	0	0
2343.80322265625	n/a	WORD	4800109	wordpools/wasnorm_wordpool_576.txt	LTP388	ltpFR2	0	9	HAMPER	682	n/a	n/a	0	0	0
2346.29541015625	n/a	WORD	4805213	wordpools/wasnorm_wordpool_576.txt	LTP388	ltpFR2	0	9	FIREMAN	569	n/a	n/a	0	0	0
2349.08740234375	n/a	WORD	4810931	wordpools/wasnorm_wordpool_576.txt	LTP388	ltpFR2	0	9	DRAGON	492	n/a	n/a	0	0	0
2350.6923828125	n/a	START	4814218	n/a	LTP388	ltpFR2	0	n/a	n/a	n/a	15	n/a	n/a	n/a	n/a
2351.55810546875	n/a	DISTRACTOR	4815991	n/a	LTP388	ltpFR2	0	9	n/a	n/a	n/a	n/a	0	0	0
2351.56201171875	n/a	PROB	4815999	n/a	LTP388	ltpFR2	0	n/a	n/a	n/a	15	13	4	7	2
2354.48828125	n/a	PROB	4821992	n/a	LTP388	ltpFR2	0	n/a	n/a	n/a	15	6	1	1	4
2356.31005859375	n/a	PROB	4825723	n/a	LTP388	ltpFR2	0	n/a	n/a	n/a	15	17	8	1	8
2358.216796875	n/a	PROB	4829628	n/a	LTP388	ltpFR2	0	n/a	n/a	n/a	15	18	6	4	8
2360.23974609375	n/a	PROB	4833771	n/a	LTP388	ltpFR2	0	n/a	n/a	n/a	15	8	4	3	1
2362.9990234375	n/a	PROB	4839422	n/a	LTP388	ltpFR2	0	n/a	n/a	n/a	15	14	7	4	3
2364.82080078125	n/a	PROB	4843153	n/a	LTP388	ltpFR2	0	n/a	n/a	n/a	15	15	9	2	4
2366.66064453125	n/a	PROB	4846921	n/a	LTP388	ltpFR2	0	n/a	n/a	n/a	15	22	7	5	9
2371.392578125	n/a	PROB	4856612	n/a	LTP388	ltpFR2	0	n/a	n/a	n/a	15	10	1	8	1
2373.646484375	n/a	STOP	4861228	n/a	LTP388	ltpFR2	0	n/a	n/a	n/a	15	n/a	n/a	n/a	n/a
2376.49365234375	n/a	REC_START	4867059	n/a	LTP388	ltpFR2	0	9	n/a	n/a	n/a	n/a	0	0	0
2377.4736328125	n/a	REC_WORD	4869066	wordpools/wasnorm_wordpool_576.txt	LTP388	ltpFR2	0	9	DAUGHTER	442	n/a	n/a	0	0	0
2378.79931640625	n/a	REC_WORD	4871781	wordpools/wasnorm_wordpool_576.txt	LTP388	ltpFR2	0	9	SPOOL	1356	n/a	n/a	0	0	0
2380.57421875	n/a	REC_WORD	4875416	wordpools/wasnorm_wordpool_576.txt	LTP388	ltpFR2	0	9	BABY	64	n/a	n/a	0	0	0
2381.83251953125	n/a	REC_WORD	4877993	wordpools/wasnorm_wordpool_576.txt	LTP388	ltpFR2	0	9	CASKET	255	n/a	n/a	0	0	0
2382.978515625	n/a	REC_WORD	4880340	wordpools/wasnorm_wordpool_576.txt	LTP388	ltpFR2	0	9	SLOPE	1328	n/a	n/a	0	0	0
2384.818359375	n/a	REC_WORD	4884108	wordpools/wasnorm_wordpool_576.txt	LTP388	ltpFR2	0	9	DRAGON	492	n/a	n/a	0	0	0
2485.4755859375	n/a	WORD	5090254	wordpools/wasnorm_wordpool_576.txt	LTP388	ltpFR2	0	10	GANGSTER	620	n/a	n/a	0	0	0
2488.11767578125	n/a	WORD	5095665	wordpools/wasnorm_wordpool_576.txt	LTP388	ltpFR2	0	10	PUDDING	1139	n/a	n/a	0	0	0
2490.87646484375	n/a	WORD	5101315	wordpools/wasnorm_wordpool_576.txt	LTP388	ltpFR2	0	10	DRIVER	499	n/a	n/a	0	0	0
2493.568359375	n/a	WORD	5106828	wordpools/wasnorm_wordpool_576.txt	LTP388	ltpFR2	0	10	SPARROW	1347	n/a	n/a	0	0	0
2496.32763671875	n/a	WORD	5112479	wordpools/wasnorm_wordpool_576.txt	LTP388	ltpFR2	0	10	ORCHID	982	n/a	n/a	0	0	0
2499.05224609375	n/a	WORD	5118059	wordpools/wasnorm_wordpool_576.txt	LTP388	ltpFR2	0	10	FLASK	576	n/a	n/a	0	0	0
2501.64453125	n/a	WORD	5123368	wordpools/wasnorm_wordpool_576.txt	LTP388	ltpFR2	0	10	TRIBE	1505	n/a	n/a	0	0	0
2504.16943359375	n/a	WORD	5128539	wordpools/wasnorm_wordpool_576.txt	LTP388	ltpFR2	0	10	NOMAD	955	n/a	n/a	0	0	0
2506.8271484375	n/a	WORD	5133982	wordpools/wasnorm_wordpool_576.txt	LTP388	ltpFR2	0	10	COLLEGE	346	n/a	n/a	0	0	0
2509.43603515625	n/a	WORD	5139325	wordpools/wasnorm_wordpool_576.txt	LTP388	ltpFR2	0	10	POLICE	1098	n/a	n/a	0	0	0
2512.0439453125	n/a	WORD	5144666	wordpools/wasnorm_wordpool_576.txt	LTP388	ltpFR2	0	10	ROOSTER	1209	n/a	n/a	0	0	0
2514.85302734375	n/a	WORD	5150419	wordpools/wasnorm_wordpool_576.txt	LTP388	ltpFR2	0	10	SCARF	1246	n/a	n/a	0	0	0
2517.4951171875	n/a	WORD	5155830	wordpools/wasnorm_wordpool_576.txt	LTP388	ltpFR2	0	10	CROSS	413	n/a	n/a	0	0	0
2520.23681640625	n/a	WORD	5161445	wordpools/wasnorm_wordpool_576.txt	LTP388	ltpFR2	0	10	SEAL	1262	n/a	n/a	0	0	0
2523.046875	n/a	WORD	5167200	wordpools/wasnorm_wordpool_576.txt	LTP388	ltpFR2	0	10	PENGUIN	1044	n/a	n/a	0	0	0
2525.7216796875	n/a	WORD	5172678	wordpools/wasnorm_wordpool_576.txt	LTP388	ltpFR2	0	10	PISTOL	1075	n/a	n/a	0	0	0
2528.48046875	n/a	WORD	5178328	wordpools/wasnorm_wordpool_576.txt	LTP388	ltpFR2	0	10	CLOCK	325	n/a	n/a	0	0	0
2531.08837890625	n/a	WORD	5183669	wordpools/wasnorm_wordpool_576.txt	LTP388	ltpFR2	0	10	CHURCH	307	n/a	n/a	0	0	0
2533.84765625	n/a	WORD	5189320	wordpools/wasnorm_wordpool_576.txt	LTP388	ltpFR2	0	10	BREAST	171	n/a	n/a	0	0	0
2536.60546875	n/a	WORD	5194968	wordpools/wasnorm_wordpool_576.txt	LTP388	ltpFR2	0	10	PADDING	999	n/a	n/a	0	0	0
2539.3154296875	n/a	WORD	5200518	wordpools/wasnorm_wordpool_576.txt	LTP388	ltpFR2	0	10	VELVET	1555	n/a	n/a	0	0	0
2541.9404296875	n/a	WORD	5205894	wordpools/wasnorm_wordpool_576.txt	LTP388	ltpFR2	0	10	MILK	895	n/a	n/a	0	0	0
2544.54833984375	n/a	WORD	5211235	wordpools/wasnorm_wordpool_576.txt	LTP388	ltpFR2	0	10	BISON	131	n/a	n/a	0	0	0
2547.27392578125	n/a	WORD	5216817	wordpools/wasnorm_wordpool_576.txt	LTP388	ltpFR2	0	10	MEDAL	885	n/a	n/a	0	0	0
2548.87890625	n/a	START	5220104	n/a	LTP388	ltpFR2	0	n/a	n/a	n/a	16	n/a	n/a	n/a	n/a
2550.03515625	n/a	DISTRACTOR	5222472	n/a	LTP388	ltpFR2	0	10	n/a	n/a	n/a	n/a	0	0	0
2550.05029296875	n/a	PROB	5222503	n/a	LTP388	ltpFR2	0	n/a	n/a	n/a	16	11	5	4	2
2552.45703125	n/a	PROB	5227432	n/a	LTP388	ltpFR2	0	n/a	n/a	n/a	16	7	5	1	1
2554.18017578125	n/a	PROB	5230961	n/a	LTP388	ltpFR2	0	n/a	n/a	n/a	16	20	5	9	6
2560.19873046875	n/a	PROB	5243287	n/a	LTP388	ltpFR2	0	n/a	n/a	n/a	16	18	9	7	2
2563.9609375	n/a	PROB	5250992	n/a	LTP388	ltpFR2	0	n/a	n/a	n/a	16	14	1	8	5
2567.3388671875	n/a	PROB	5257910	n/a	LTP388	ltpFR2	0	n/a	n/a	n/a	16	14	4	4	6
2569.82958984375	n/a	PROB	5263011	n/a	LTP388	ltpFR2	0	n/a	n/a	n/a	16	9	6	2	1
2572.53564453125	n/a	STOP	5268553	n/a	LTP388	ltpFR2	0	n/a	n/a	n/a	16	n/a	n/a	n/a	n/a
2574.6962890625	n/a	REC_START	5272978	n/a	LTP388	ltpFR2	0	10	n/a	n/a	n/a	n/a	0	0	0
2575.99462890625	n/a	REC_WORD	5275637	wordpools/wasnorm_wordpool_576.txt	LTP388	ltpFR2	0	10	GANGSTER	620	n/a	n/a	0	0	0
2577.5166015625	n/a	REC_WORD	5278754	wordpools/wasnorm_wordpool_576.txt	LTP388	ltpFR2	0	10	TRIBE	1505	n/a	n/a	0	0	0
2578.986328125	n/a	REC_WORD	5281764	wordpools/wasnorm_wordpool_576.txt	LTP388	ltpFR2	0	10	NOMAD	955	n/a	n/a	0	0	0
2580.55517578125	n/a	REC_WORD	5284977	wordpools/wasnorm_wordpool_576.txt	LTP388	ltpFR2	0	10	MILK	895	n/a	n/a	0	0	0
2582.314453125	n/a	REC_WORD	5288580	wordpools/wasnorm_wordpool_576.txt	LTP388	ltpFR2	0	10	VELVET	1555	n/a	n/a	0	0	0
2585.67919921875	n/a	REC_WORD	5295471	wordpools/wasnorm_wordpool_576.txt	LTP388	ltpFR2	0	10	COLLEGE	346	n/a	n/a	0	0	0
2587.2353515625	n/a	REC_WORD	5298658	wordpools/wasnorm_wordpool_576.txt	LTP388	ltpFR2	0	10	POLICE	1098	n/a	n/a	0	0	0
2588.9619140625	n/a	REC_WORD	5302194	wordpools/wasnorm_wordpool_576.txt	LTP388	ltpFR2	0	10	PUDDING	1139	n/a	n/a	0	0	0
2598.31787109375	n/a	REC_WORD	5321355	wordpools/wasnorm_wordpool_576.txt	LTP388	ltpFR2	0	10	SPARROW	1347	n/a	n/a	0	0	0
2600.33984375	n/a	REC_WORD	5325496	wordpools/wasnorm_wordpool_576.txt	LTP388	ltpFR2	0	10	BISON	131	n/a	n/a	0	0	0
2602.99853515625	n/a	REC_WORD	5330941	wordpools/wasnorm_wordpool_576.txt	LTP388	ltpFR2	0	10	CLOCK	325	n/a	n/a	0	0	0
2604.890625	n/a	REC_WORD	5334816	wordpools/wasnorm_wordpool_576.txt	LTP388	ltpFR2	0	10	CHURCH	307	n/a	n/a	0	0	0
2607.8828125	n/a	REC_WORD	5340944	wordpools/wasnorm_wordpool_576.txt	LTP388	ltpFR2	0	10	PISTOL	1075	n/a	n/a	0	0	0
2638.69970703125	n/a	REC_WORD	5404057	wordpools/wasnorm_wordpool_576.txt	LTP388	ltpFR2	0	10	SCARF	1246	n/a	n/a	0	0	0
2665.1533203125	n/a	WORD	5458234	wordpools/wasnorm_wordpool_576.txt	LTP388	ltpFR2	0	11	CATTLE	261	n/a	n/a	0	0	0
2667.76123046875	n/a	WORD	5463575	wordpools/wasnorm_wordpool_576.txt	LTP388	ltpFR2	0	11	JEANS	752	n/a	n/a	0	0	0
2670.537109375	n/a	WORD	5469260	wordpools/wasnorm_wordpool_576.txt	LTP388	ltpFR2	0	11	TRUCK	1512	n/a	n/a	0	0	0
2673.044921875	n/a	WORD	5474396	wordpools/wasnorm_wordpool_576.txt	LTP388	ltpFR2	0	11	CONTRACT	368	n/a	n/a	0	0	0
2675.7197265625	n/a	WORD	5479874	wordpools/wasnorm_wordpool_576.txt	LTP388	ltpFR2	0	11	TABLET	1427	n/a	n/a	0	0	0
2678.49560546875	n/a	WORD	5485559	wordpools/wasnorm_wordpool_576.txt	LTP388	ltpFR2	0	11	STAKE	1368	n/a	n/a	0	0	0
2680.9208984375	n/a	WORD	5490526	wordpools/wasnorm_wordpool_576.txt	LTP388	ltpFR2	0	11	LIZARD	834	n/a	n/a	0	0	0
2683.52880859375	n/a	WORD	5495867	wordpools/wasnorm_wordpool_576.txt	LTP388	ltpFR2	0	11	FOREHEAD	592	n/a	n/a	0	0	0
2686.08642578125	n/a	WORD	5501105	wordpools/wasnorm_wordpool_576.txt	LTP388	ltpFR2	0	11	PLASTER	1085	n/a	n/a	0	0	0
2688.74560546875	n/a	WORD	5506551	wordpools/wasnorm_wordpool_576.txt	LTP388	ltpFR2	0	11	LEADER	807	n/a	n/a	0	0	0
2691.353515625	n/a	WORD	5511892	wordpools/wasnorm_wordpool_576.txt	LTP388	ltpFR2	0	11	WORKER	1621	n/a	n/a	0	0	0
2694.12939453125	n/a	WORD	5517577	wordpools/wasnorm_wordpool_576.txt	LTP388	ltpFR2	0	11	STREAM	1392	n/a	n/a	0	0	0
2696.72119140625	n/a	WORD	5522885	wordpools/wasnorm_wordpool_576.txt	LTP388	ltpFR2	0	11	CHEST	295	n/a	n/a	0	0	0
2699.48046875	n/a	WORD	5528536	wordpools/wasnorm_wordpool_576.txt	LTP388	ltpFR2	0	11	SLIDE	1326	n/a	n/a	0	0	0
2702.02099609375	n/a	WORD	5533739	wordpools/wasnorm_wordpool_576.txt	LTP388	ltpFR2	0	11	BUGGY	188	n/a	n/a	0	0	0
2704.68017578125	n/a	WORD	5539185	wordpools/wasnorm_wordpool_576.txt	LTP388	ltpFR2	0	11	MUFFIN	929	n/a	n/a	0	0	0
2707.10400390625	n/a	WORD	5544149	wordpools/wasnorm_wordpool_576.txt	LTP388	ltpFR2	0	11	PAIL	1002	n/a	n/a	0	0	0
2709.69580078125	n/a	WORD	5549457	wordpools/wasnorm_wordpool_576.txt	LTP388	ltpFR2	0	11	OFFICE	972	n/a	n/a	0	0	0
2712.10400390625	n/a	WORD	5554389	wordpools/wasnorm_wordpool_576.txt	LTP388	ltpFR2	0	11	BRIEFCASE	175	n/a	n/a	0	0	0
2714.56201171875	n/a	WORD	5559423	wordpools/wasnorm_wordpool_576.txt	LTP388	ltpFR2	0	11	BULLET	194	n/a	n/a	0	0	0
2717.18701171875	n/a	WORD	5564799	wordpools/wasnorm_wordpool_576.txt	LTP388	ltpFR2	0	11	LAGOON	795	n/a	n/a	0	0	0
2719.728515625	n/a	WORD	5570004	wordpools/wasnorm_wordpool_576.txt	LTP388	ltpFR2	0	11	CREVICE	405	n/a	n/a	0	0	0
2722.4208984375	n/a	WORD	5575518	wordpools/wasnorm_wordpool_576.txt	LTP388	ltpFR2	0	11	TABLE	1426	n/a	n/a	0	0	0
2725.07861328125	n/a	WORD	5580961	wordpools/wasnorm_wordpool_576.txt	LTP388	ltpFR2	0	11	COUCH	386	n/a	n/a	0	0	0
2726.6845703125	n/a	START	5584250	n/a	LTP388	ltpFR2	0	n/a	n/a	n/a	17	n/a	n/a	n/a	n/a
2727.58837890625	n/a	DISTRACTOR	5586101	n/a	LTP388	ltpFR2	0	11	n/a	n/a	n/a	n/a	0	0	0
2727.6025390625	n/a	PROB	5586130	n/a	LTP388	ltpFR2	0	n/a	n/a	n/a	17	23	9	9	5
2731.482421875	n/a	PROB	5594076	n/a	LTP388	ltpFR2	0	n/a	n/a	n/a	17	28	9	6	1
2735.111328125	n/a	PROB	5601508	n/a	LTP388	ltpFR2	0	n/a	n/a	n/a	17	17	7	7	3
2736.783203125	n/a	PROB	5604932	n/a	LTP388	ltpFR2	0	n/a	n/a	n/a	17	15	3	9	3
2739.17431640625	n/a	PROB	5609829	n/a	LTP388	ltpFR2	0	n/a	n/a	n/a	17	12	1	3	8
2741.5322265625	n/a	PROB	5614658	n/a	LTP388	ltpFR2	0	n/a	n/a	n/a	17	22	6	6	8
2750.68408203125	n/a	STOP	5633401	n/a	LTP388	ltpFR2	0	n/a	n/a	n/a	17	n/a	n/a	n/a	n/a
2752.4521484375	n/a	REC_START	5637022	n/a	LTP388	ltpFR2	0	11	n/a	n/a	n/a	n/a	0	0	0
2753.0908203125	n/a	REC_WORD	5638330	wordpools/wasnorm_wordpool_576.txt	LTP388	ltpFR2	0	11	TABLE	1426	n/a	n/a	0	0	0
2754.52978515625	n/a	REC_WORD	5641277	wordpools/wasnorm_wordpool_576.txt	LTP388	ltpFR2	0	11	TABLET	1427	n/a	n/a	0	0	0
2755.69775390625	n/a	REC_WORD	5643669	wordpools/wasnorm_wordpool_576.txt	LTP388	ltpFR2	0	11	STREAM	1392	n/a	n/a	0	0	0
2757.5009765625	n/a	REC_WORD	5647362	wordpools/wasnorm_wordpool_576.txt	LTP388	ltpFR2	0	11	LAGOON	795	n/a	n/a	0	0	0
2759.19287109375	n/a	REC_WORD	5650827	wordpools/wasnorm_wordpool_576.txt	LTP388	ltpFR2	0	11	CHEST	295	n/a	n/a	0	0	0
2760.6435546875	n/a	REC_WORD	5653798	wordpools/wasnorm_wordpool_576.txt	LTP388	ltpFR2	0	11	FOREHEAD	592	n/a	n/a	0	0	0
2786.02490234375	n/a	REC_WORD_VV	5705779	wordpools/wasnorm_wordpool_576.txt	LTP388	ltpFR2	0	11	<>	-1	n/a	n/a	0	0	0
2786.2421875	n/a	REC_WORD	5706224	wordpools/wasnorm_wordpool_576.txt	LTP388	ltpFR2	0	11	LEADER	807	n/a	n/a	0	0	0
2787.8671875	n/a	REC_WORD	5709552	wordpools/wasnorm_wordpool_576.txt	LTP388	ltpFR2	0	11	WORKER	1621	n/a	n/a	0	0	0
2814.6103515625	n/a	REC_WORD	5764322	wordpools/wasnorm_wordpool_576.txt	LTP388	ltpFR2	0	11	CATTLE	261	n/a	n/a	0	0	0
2820.17822265625	n/a	REC_WORD	5775725	wordpools/wasnorm_wordpool_576.txt	LTP388	ltpFR2	0	11	TRUCK	1512	n/a	n/a	0	0	0
2855.080078125	n/a	WORD	5847204	wordpools/wasnorm_wordpool_576.txt	LTP388	ltpFR2	0	12	JELLY	755	n/a	n/a	0	0	0
2857.58740234375	n/a	WORD	5852339	wordpools/wasnorm_wordpool_576.txt	LTP388	ltpFR2	0	12	JURY	766	n/a	n/a	0	0	0
2860.0791015625	n/a	WORD	5857442	wordpools/wasnorm_wordpool_576.txt	LTP388	ltpFR2	0	12	STICKER	1382	n/a	n/a	0	0	0
2862.77099609375	n/a	WORD	5862955	wordpools/wasnorm_wordpool_576.txt	LTP388	ltpFR2	0	12	CLIMBER	323	n/a	n/a	0	0	0
2865.546875	n/a	WORD	5868640	wordpools/wasnorm_wordpool_576.txt	LTP388	ltpFR2	0	12	CABIN	211	n/a	n/a	0	0	0
2868.2890625	n/a	WORD	5874256	wordpools/wasnorm_wordpool_576.txt	LTP388	ltpFR2	0	12	TEACHER	1440	n/a	n/a	0	0	0
2871.06494140625	n/a	WORD	5879941	wordpools/wasnorm_wordpool_576.txt	LTP388	ltpFR2	0	12	PUPIL	1143	n/a	n/a	0	0	0
2873.8740234375	n/a	WORD	5885694	wordpools/wasnorm_wordpool_576.txt	LTP388	ltpFR2	0	12	SKIRT	1319	n/a	n/a	0	0	0
2876.44873046875	n/a	WORD	5890967	wordpools/wasnorm_wordpool_576.txt	LTP388	ltpFR2	0	12	BADGE	68	n/a	n/a	0	0	0
2878.95654296875	n/a	WORD	5896103	wordpools/wasnorm_wordpool_576.txt	LTP388	ltpFR2	0	12	AGENT	10	n/a	n/a	0	0	0
2881.6484375	n/a	WORD	5901616	wordpools/wasnorm_wordpool_576.txt	LTP388	ltpFR2	0	12	LETTUCE	814	n/a	n/a	0	0	0
2884.37451171875	n/a	WORD	5907199	wordpools/wasnorm_wordpool_576.txt	LTP388	ltpFR2	0	12	SEAFOOD	1260	n/a	n/a	0	0	0
2886.982421875	n/a	WORD	5912540	wordpools/wasnorm_wordpool_576.txt	LTP388	ltpFR2	0	12	DRAWING	494	n/a	n/a	0	0	0
2889.62451171875	n/a	WORD	5917951	wordpools/wasnorm_wordpool_576.txt	LTP388	ltpFR2	0	12	TWEEZERS	1526	n/a	n/a	0	0	0
2892.16552734375	n/a	WORD	5923155	wordpools/wasnorm_wordpool_576.txt	LTP388	ltpFR2	0	12	PILOT	1070	n/a	n/a	0	0	0
2894.6904296875	n/a	WORD	5928326	wordpools/wasnorm_wordpool_576.txt	LTP388	ltpFR2	0	12	TWIG	1527	n/a	n/a	0	0	0
2897.34912109375	n/a	WORD	5933771	wordpools/wasnorm_wordpool_576.txt	LTP388	ltpFR2	0	12	PICTURE	1061	n/a	n/a	0	0	0
2900.10791015625	n/a	WORD	5939421	wordpools/wasnorm_wordpool_576.txt	LTP388	ltpFR2	0	12	EYELASH	546	n/a	n/a	0	0	0
2902.56494140625	n/a	WORD	5944453	wordpools/wasnorm_wordpool_576.txt	LTP388	ltpFR2	0	12	PRINCE	1124	n/a	n/a	0	0	0
2905.2578125	n/a	WORD	5949968	wordpools/wasnorm_wordpool_576.txt	LTP388	ltpFR2	0	12	ZIPPER	1636	n/a	n/a	0	0	0
2907.69873046875	n/a	WORD	5954967	wordpools/wasnorm_wordpool_576.txt	LTP388	ltpFR2	0	12	POISON	1096	n/a	n/a	0	0	0
2910.44091796875	n/a	WORD	5960583	wordpools/wasnorm_wordpool_576.txt	LTP388	ltpFR2	0	12	SPHINX	1349	n/a	n/a	0	0	0
2913.1669921875	n/a	WORD	5966166	wordpools/wasnorm_wordpool_576.txt	LTP388	ltpFR2	0	12	SNACK	1331	n/a	n/a	0	0	0
2915.65771484375	n/a	WORD	5971267	wordpools/wasnorm_wordpool_576.txt	LTP388	ltpFR2	0	12	PROTON	1132	n/a	n/a	0	0	0
2917.263671875	n/a	START	5974556	n/a	LTP388	ltpFR2	0	n/a	n/a	n/a	18	n/a	n/a	n/a	n/a
2918.24072265625	n/a	DISTRACTOR	5976557	n/a	LTP388	ltpFR2	0	12	n/a	n/a	n/a	n/a	0	0	0
2918.24951171875	n/a	PROB	5976575	n/a	LTP388	ltpFR2	0	n/a	n/a	n/a	18	12	3	6	3
2920.87451171875	n/a	PROB	5981951	n/a	LTP388	ltpFR2	0	n/a	n/a	n/a	18	11	1	9	1
2923.24853515625	n/a	PROB	5986813	n/a	LTP388	ltpFR2	0	n/a	n/a	n/a	18	17	5	7	5
2925.4892578125	n/a	PROB	5991402	n/a	LTP388	ltpFR2	0	n/a	n/a	n/a	18	22	9	4	9
2929.435546875	n/a	PROB	5999484	n/a	LTP388	ltpFR2	0	n/a	n/a	n/a	18	18	5	4	9
2931.62646484375	n/a	PROB	6003971	n/a	LTP388	ltpFR2	0	n/a	n/a	n/a	18	13	1	3	9
2933.85009765625	n/a	PROB	6008525	n/a	LTP388	ltpFR2	0	n/a	n/a	n/a	18	15	3	7	5
2935.6220703125	n/a	PROB	6012154	n/a	LTP388	ltpFR2	0	n/a	n/a	n/a	18	18	4	7	7
2941.26318359375	n/a	STOP	6023707	n/a	LTP388	ltpFR2	0	n/a	n/a	n/a	18	n/a	n/a	n/a	n/a
2943.080078125	n/a	REC_START	6027428	n/a	LTP388	ltpFR2	0	12	n/a	n/a	n/a	n/a	0	0	0
2944.35986328125	n/a	REC_WORD	6030049	wordpools/wasnorm_wordpool_576.txt	LTP388	ltpFR2	0	12	PROTON	1132	n/a	n/a	0	0	0
2947.841796875	n/a	REC_WORD_VV	6037180	wordpools/wasnorm_wordpool_576.txt	LTP388	ltpFR2	0	12	<>	-1	n/a	n/a	0	0	0
2955.53955078125	n/a	REC_WORD	6052945	wordpools/wasnorm_wordpool_576.txt	LTP388	ltpFR2	0	12	CABIN	211	n/a	n/a	0	0	0
2961.33349609375	n/a	REC_WORD	6064811	wordpools/wasnorm_wordpool_576.txt	LTP388	ltpFR2	0	12	SKIRT	1319	n/a	n/a	0	0	0
2963.3515625	n/a	REC_WORD	6068944	wordpools/wasnorm_wordpool_576.txt	LTP388	ltpFR2	0	12	PUPIL	1143	n/a	n/a	0	0	0
2964.69970703125	n/a	REC_WORD	6071705	wordpools/wasnorm_wordpool_576.txt	LTP388	ltpFR2	0	12	TEACHER	1440	n/a	n/a	0	0	0
2971.22021484375	n/a	REC_WORD	6085059	wordpools/wasnorm_wordpool_576.txt	LTP388	ltpFR2	0	12	EYELASH	546	n/a	n/a	0	0	0
2972.7333984375	n/a	REC_WORD	6088158	wordpools/wasnorm_wordpool_576.txt	LTP388	ltpFR2	0	12	TWEEZERS	1526	n/a	n/a	0	0	0
3000.55078125	n/a	REC_WORD	6145128	wordpools/wasnorm_wordpool_576.txt	LTP388	ltpFR2	0	12	PILOT	1070	n/a	n/a	0	0	0
3001.720703125	n/a	REC_WORD	6147524	wordpools/wasnorm_wordpool_576.txt	LTP388	ltpFR2	0	12	TWIG	1527	n/a	n/a	0	0	0
3015.79736328125	n/a	REC_WORD	6176353	wordpools/wasnorm_wordpool_576.txt	LTP388	ltpFR2	0	12	LETTUCE	814	n/a	n/a	0	0	0
3033.51953125	n/a	DISTRACTOR	6212648	n/a	LTP388	ltpFR2	0	13	n/a	n/a	n/a	n/a	0	0	0
3033.5205078125	n/a	START	6212650	n/a	LTP388	ltpFR2	0	n/a	n/a	n/a	19	n/a	n/a	n/a	n/a
3033.53662109375	n/a	PROB	6212683	n/a	LTP388	ltpFR2	0	n/a	n/a	n/a	19	15	1	8	6
3036.52978515625	n/a	PROB	6218813	n/a	LTP388	ltpFR2	0	n/a	n/a	n/a	19	22	9	8	5
3040.82666015625	n/a	PROB	6227613	n/a	LTP388	ltpFR2	0	n/a	n/a	n/a	19	10	5	2	3
3043.88671875	n/a	PROB	6233880	n/a	LTP388	ltpFR2	0	n/a	n/a	n/a	19	15	1	6	8
3045.5576171875	n/a	PROB	6237302	n/a	LTP388	ltpFR2	0	n/a	n/a	n/a	19	13	6	4	3
3048.033203125	n/a	PROB	6242372	n/a	LTP388	ltpFR2	0	n/a	n/a	n/a	19	15	4	4	7
3051.31005859375	n/a	PROB	6249083	n/a	LTP388	ltpFR2	0	n/a	n/a	n/a	19	19	8	7	4
3054.8720703125	n/a	PROB	6256378	n/a	LTP388	ltpFR2	0	n/a	n/a	n/a	19	12	4	4	4
3056.4501953125	n/a	STOP	6259610	n/a	LTP388	ltpFR2	0	n/a	n/a	n/a	19	n/a	n/a	n/a	n/a
3058.48388671875	n/a	WORD	6263775	wordpools/wasnorm_wordpool_576.txt	LTP388	ltpFR2	0	13	SNAIL	1332	n/a	n/a	0	0	0
3061.0419921875	n/a	WORD	6269014	wordpools/wasnorm_wordpool_576.txt	LTP388	ltpFR2	0	13	TILE	1468	n/a	n/a	0	0	0
3063.5498046875	n/a	WORD	6274150	wordpools/wasnorm_wordpool_576.txt	LTP388	ltpFR2	0	13	GARLIC	624	n/a	n/a	0	0	0
3066.2919921875	n/a	WORD	6279766	wordpools/wasnorm_wordpool_576.txt	LTP388	ltpFR2	0	13	HORSE	719	n/a	n/a	0	0	0
3069.10107421875	n/a	WORD	6285519	wordpools/wasnorm_wordpool_576.txt	LTP388	ltpFR2	0	13	GARDEN	623	n/a	n/a	0	0	0
3071.84375	n/a	WORD	6291136	wordpools/wasnorm_wordpool_576.txt	LTP388	ltpFR2	0	13	GRAVE	658	n/a	n/a	0	0	0
3074.45166015625	n/a	WORD	6296477	wordpools/wasnorm_wordpool_576.txt	LTP388	ltpFR2	0	13	MARINE	869	n/a	n/a	0	0	0
3077.11083984375	n/a	WORD	6301923	wordpools/wasnorm_wordpool_576.txt	LTP388	ltpFR2	0	13	OINTMENT	974	n/a	n/a	0	0	0
3079.6005859375	n/a	WORD	6307022	wordpools/wasnorm_wordpool_576.txt	LTP388	ltpFR2	0	13	TURTLE	1522	n/a	n/a	0	0	0
3082.15966796875	n/a	WORD	6312263	wordpools/wasnorm_wordpool_576.txt	LTP388	ltpFR2	0	13	RABBIT	1152	n/a	n/a	0	0	0
3084.83544921875	n/a	WORD	6317743	wordpools/wasnorm_wordpool_576.txt	LTP388	ltpFR2	0	13	FIDDLE	561	n/a	n/a	0	0	0
3087.2763671875	n/a	WORD	6322742	wordpools/wasnorm_wordpool_576.txt	LTP388	ltpFR2	0	13	TUBA	1515	n/a	n/a	0	0	0
3089.85107421875	n/a	WORD	6328015	wordpools/wasnorm_wordpool_576.txt	LTP388	ltpFR2	0	13	NOTEBOOK	959	n/a	n/a	0	0	0
3092.62744140625	n/a	WORD	6333701	wordpools/wasnorm_wordpool_576.txt	LTP388	ltpFR2	0	13	SCALLOP	1242	n/a	n/a	0	0	0
3095.369140625	n/a	WORD	6339316	wordpools/wasnorm_wordpool_576.txt	LTP388	ltpFR2	0	13	COD	340	n/a	n/a	0	0	0
3097.85986328125	n/a	WORD	6344417	wordpools/wasnorm_wordpool_576.txt	LTP388	ltpFR2	0	13	CHAMPAGNE	278	n/a	n/a	0	0	0
3100.3349609375	n/a	WORD	6349486	wordpools/wasnorm_wordpool_576.txt	LTP388	ltpFR2	0	13	COOK	372	n/a	n/a	0	0	0
3102.826171875	n/a	WORD	6354588	wordpools/wasnorm_wordpool_576.txt	LTP388	ltpFR2	0	13	ROD	1203	n/a	n/a	0	0	0
3105.28369140625	n/a	WORD	6359621	wordpools/wasnorm_wordpool_576.txt	LTP388	ltpFR2	0	13	PASTA	1021	n/a	n/a	0	0	0
3107.99267578125	n/a	WORD	6365169	wordpools/wasnorm_wordpool_576.txt	LTP388	ltpFR2	0	13	CABBAGE	210	n/a	n/a	0	0	0
3110.78466796875	n/a	WORD	6370887	wordpools/wasnorm_wordpool_576.txt	LTP388	ltpFR2	0	13	RECORD	1176	n/a	n/a	0	0	0
3113.34375	n/a	WORD	6376128	wordpools/wasnorm_wordpool_576.txt	LTP388	ltpFR2	0	13	SCOTCH	1251	n/a	n/a	0	0	0
3115.83447265625	n/a	WORD	6381229	wordpools/wasnorm_wordpool_576.txt	LTP388	ltpFR2	0	13	SALT	1229	n/a	n/a	0	0	0
3118.4765625	n/a	WORD	6386640	wordpools/wasnorm_wordpool_576.txt	LTP388	ltpFR2	0	13	GLOVE	642	n/a	n/a	0	0	0
3120.08154296875	n/a	START	6389927	n/a	LTP388	ltpFR2	0	n/a	n/a	n/a	20	n/a	n/a	n/a	n/a
3121.04638671875	n/a	DISTRACTOR	6391903	n/a	LTP388	ltpFR2	0	13	n/a	n/a	n/a	n/a	0	0	0
3121.05126953125	n/a	PROB	6391913	n/a	LTP388	ltpFR2	0	n/a	n/a	n/a	20	10	5	4	1
3123.275390625	n/a	PROB	6396468	n/a	LTP388	ltpFR2	0	n/a	n/a	n/a	20	17	9	5	3
3127.47216796875	n/a	PROB	6405063	n/a	LTP388	ltpFR2	0	n/a	n/a	n/a	20	21	9	4	8
3131.55224609375	n/a	PROB	6413419	n/a	LTP388	ltpFR2	0	n/a	n/a	n/a	20	11	5	5	1
3132.7890625	n/a	PROB	6415952	n/a	LTP388	ltpFR2	0	n/a	n/a	n/a	20	7	2	4	1
3136.14990234375	n/a	PROB	6422835	n/a	LTP388	ltpFR2	0	n/a	n/a	n/a	20	12	4	2	6
3137.822265625	n/a	PROB	6426260	n/a	LTP388	ltpFR2	0	n/a	n/a	n/a	20	10	3	6	1
3139.2431640625	n/a	PROB	6429170	n/a	LTP388	ltpFR2	0	n/a	n/a	n/a	20	10	3	3	4
3144.0810546875	n/a	STOP	6439078	n/a	LTP388	ltpFR2	0	n/a	n/a	n/a	20	n/a	n/a	n/a	n/a
3145.9990234375	n/a	REC_START	6443006	n/a	LTP388	ltpFR2	0	13	n/a	n/a	n/a	n/a	0	0	0
3146.84765625	n/a	REC_WORD	6444744	wordpools/wasnorm_wordpool_576.txt	LTP388	ltpFR2	0	13	RABBIT	1152	n/a	n/a	0	0	0
3147.86767578125	n/a	REC_WORD	6446833	wordpools/wasnorm_wordpool_576.txt	LTP388	ltpFR2	0	13	SCOTCH	1251	n/a	n/a	0	0	0
3149.48876953125	n/a	REC_WORD	6450153	wordpools/wasnorm_wordpool_576.txt	LTP388	ltpFR2	0	13	COD	340	n/a	n/a	0	0	0
3151.970703125	n/a	REC_WORD	6455236	wordpools/wasnorm_wordpool_576.txt	LTP388	ltpFR2	0	13	CHAMPAGNE	278	n/a	n/a	0	0	0
3153.73291015625	n/a	REC_WORD	6458845	wordpools/wasnorm_wordpool_576.txt	LTP388	ltpFR2	0	13	COOK	372	n/a	n/a	0	0	0
3155.29150390625	n/a	REC_WORD	6462037	wordpools/wasnorm_wordpool_576.txt	LTP388	ltpFR2	0	13	SNAIL	1332	n/a	n/a	0	0	0
3156.89453125	n/a	REC_WORD	6465320	wordpools/wasnorm_wordpool_576.txt	LTP388	ltpFR2	0	13	TILE	1468	n/a	n/a	0	0	0
3162.84423828125	n/a	REC_WORD	6477505	wordpools/wasnorm_wordpool_576.txt	LTP388	ltpFR2	0	13	SCALLOP	1242	n/a	n/a	0	0	0
3178.4208984375	n/a	REC_WORD	6509406	wordpools/wasnorm_wordpool_576.txt	LTP388	ltpFR2	0	13	MARINE	869	n/a	n/a	0	0	0
3236.45556640625	n/a	WORD	6628261	wordpools/wasnorm_wordpool_576.txt	LTP388	ltpFR2	0	14	CATCHER	258	n/a	n/a	0	0	0
3239.21435546875	n/a	WORD	6633911	wordpools/wasnorm_wordpool_576.txt	LTP388	ltpFR2	0	14	PIZZA	1079	n/a	n/a	0	0	0
3241.822265625	n/a	WORD	6639252	wordpools/wasnorm_wordpool_576.txt	LTP388	ltpFR2	0	14	CREATURE	403	n/a	n/a	0	0	0
3244.3974609375	n/a	WORD	6644526	wordpools/wasnorm_wordpool_576.txt	LTP388	ltpFR2	0	14	RATTLE	1170	n/a	n/a	0	0	0
3246.939453125	n/a	WORD	6649732	wordpools/wasnorm_wordpool_576.txt	LTP388	ltpFR2	0	14	CRIB	407	n/a	n/a	0	0	0
3249.54833984375	n/a	WORD	6655075	wordpools/wasnorm_wordpool_576.txt	LTP388	ltpFR2	0	14	OX	994	n/a	n/a	0	0	0
3252.3232421875	n/a	WORD	6660758	wordpools/wasnorm_wordpool_576.txt	LTP388	ltpFR2	0	14	SUBWAY	1400	n/a	n/a	0	0	0
3254.93212890625	n/a	WORD	6666101	wordpools/wasnorm_wordpool_576.txt	LTP388	ltpFR2	0	14	YARN	1631	n/a	n/a	0	0	0
3257.373046875	n/a	WORD	6671100	wordpools/wasnorm_wordpool_576.txt	LTP388	ltpFR2	0	14	CYCLONE	431	n/a	n/a	0	0	0
3259.880859375	n/a	WORD	6676236	wordpools/wasnorm_wordpool_576.txt	LTP388	ltpFR2	0	14	FRAME	600	n/a	n/a	0	0	0
3262.623046875	n/a	WORD	6681852	wordpools/wasnorm_wordpool_576.txt	LTP388	ltpFR2	0	14	BALLOON	75	n/a	n/a	0	0	0
3265.1806640625	n/a	WORD	6687090	wordpools/wasnorm_wordpool_576.txt	LTP388	ltpFR2	0	14	CLOUD	328	n/a	n/a	0	0	0
3267.87353515625	n/a	WORD	6692605	wordpools/wasnorm_wordpool_576.txt	LTP388	ltpFR2	0	14	PUPPY	1144	n/a	n/a	0	0	0
3270.41455078125	n/a	WORD	6697809	wordpools/wasnorm_wordpool_576.txt	LTP388	ltpFR2	0	14	CRAYON	401	n/a	n/a	0	0	0
3272.90576171875	n/a	WORD	6702911	wordpools/wasnorm_wordpool_576.txt	LTP388	ltpFR2	0	14	MARKER	870	n/a	n/a	0	0	0
3275.36474609375	n/a	WORD	6707947	wordpools/wasnorm_wordpool_576.txt	LTP388	ltpFR2	0	14	THREAD	1460	n/a	n/a	0	0	0
3278.0556640625	n/a	WORD	6713458	wordpools/wasnorm_wordpool_576.txt	LTP388	ltpFR2	0	14	PUDDLE	1140	n/a	n/a	0	0	0
3280.57958984375	n/a	WORD	6718627	wordpools/wasnorm_wordpool_576.txt	LTP388	ltpFR2	0	14	SUITCASE	1403	n/a	n/a	0	0	0
3283.37353515625	n/a	WORD	6724349	wordpools/wasnorm_wordpool_576.txt	LTP388	ltpFR2	0	14	SERVER	1272	n/a	n/a	0	0	0
3285.88134765625	n/a	WORD	6729485	wordpools/wasnorm_wordpool_576.txt	LTP388	ltpFR2	0	14	LADDER	793	n/a	n/a	0	0	0
3288.70703125	n/a	WORD	6735272	wordpools/wasnorm_wordpool_576.txt	LTP388	ltpFR2	0	14	SALAD	1224	n/a	n/a	0	0	0
3291.1650390625	n/a	WORD	6740306	wordpools/wasnorm_wordpool_576.txt	LTP388	ltpFR2	0	14	XEROX	1628	n/a	n/a	0	0	0
3293.93994140625	n/a	WORD	6745989	wordpools/wasnorm_wordpool_576.txt	LTP388	ltpFR2	0	14	WAGON	1578	n/a	n/a	0	0	0
3296.365234375	n/a	WORD	6750956	wordpools/wasnorm_wordpool_576.txt	LTP388	ltpFR2	0	14	HARP	689	n/a	n/a	0	0	0
3297.97021484375	n/a	START	6754243	n/a	LTP388	ltpFR2	0	n/a	n/a	n/a	21	n/a	n/a	n/a	n/a
3299.11181640625	n/a	DISTRACTOR	6756581	n/a	LTP388	ltpFR2	0	14	n/a	n/a	n/a	n/a	0	0	0
3299.1240234375	n/a	PROB	6756606	n/a	LTP388	ltpFR2	0	n/a	n/a	n/a	21	14	2	9	3
3301.5810546875	n/a	PROB	6761638	n/a	LTP388	ltpFR2	0	n/a	n/a	n/a	21	10	2	2	6
3303.18701171875	n/a	PROB	6764927	n/a	LTP388	ltpFR2	0	n/a	n/a	n/a	21	13	3	2	8
3304.9267578125	n/a	PROB	6768490	n/a	LTP388	ltpFR2	0	n/a	n/a	n/a	21	19	6	4	9
3306.32958984375	n/a	PROB	6771363	n/a	LTP388	ltpFR2	0	n/a	n/a	n/a	21	14	1	8	5
3307.8349609375	n/a	PROB	6774446	n/a	LTP388	ltpFR2	0	n/a	n/a	n/a	21	16	4	6	6
3309.423828125	n/a	PROB	6777700	n/a	LTP388	ltpFR2	0	n/a	n/a	n/a	21	11	2	6	3
3312.53369140625	n/a	PROB	6784069	n/a	LTP388	ltpFR2	0	n/a	n/a	n/a	21	11	4	6	1
3314.10546875	n/a	PROB	6787288	n/a	LTP388	ltpFR2	0	n/a	n/a	n/a	21	15	2	9	4
3316.7802734375	n/a	PROB	6792766	n/a	LTP388	ltpFR2	0	n/a	n/a	n/a	21	14	7	1	6
3321.96923828125	n/a	STOP	6803393	n/a	LTP388	ltpFR2	0	n/a	n/a	n/a	21	n/a	n/a	n/a	n/a
3323.83740234375	n/a	REC_START	6807219	n/a	LTP388	ltpFR2	0	14	n/a	n/a	n/a	n/a	0	0	0
3324.8193359375	n/a	REC_WORD	6809230	wordpools/wasnorm_wordpool_576.txt	LTP388	ltpFR2	0	14	XEROX	1628	n/a	n/a	0	0	0
3326.1162109375	n/a	REC_WORD	6811886	wordpools/wasnorm_wordpool_576.txt	LTP388	ltpFR2	0	14	CRAYON	401	n/a	n/a	0	0	0
3327.51123046875	n/a	REC_WORD	6814743	wordpools/wasnorm_wordpool_576.txt	LTP388	ltpFR2	0	14	MARKER	870	n/a	n/a	0	0	0
3329.01416015625	n/a	REC_WORD	6817821	wordpools/wasnorm_wordpool_576.txt	LTP388	ltpFR2	0	14	CYCLONE	431	n/a	n/a	0	0	0
3330.84814453125	n/a	REC_WORD	6821577	wordpools/wasnorm_wordpool_576.txt	LTP388	ltpFR2	0	14	PUPPY	1144	n/a	n/a	0	0	0
3333.33203125	n/a	REC_WORD	6826664	wordpools/wasnorm_wordpool_576.txt	LTP388	ltpFR2	0	14	CATCHER	258	n/a	n/a	0	0	0
3334.828125	n/a	REC_WORD	6829728	wordpools/wasnorm_wordpool_576.txt	LTP388	ltpFR2	0	14	PIZZA	1079	n/a	n/a	0	0	0
3345.587890625	n/a	REC_WORD	6851764	wordpools/wasnorm_wordpool_576.txt	LTP388	ltpFR2	0	14	SALAD	1224	n/a	n/a	0	0	0
3347.1865234375	n/a	REC_WORD	6855038	wordpools/wasnorm_wordpool_576.txt	LTP388	ltpFR2	0	14	SERVER	1272	n/a	n/a	0	0	0
3372.35205078125	n/a	REC_WORD	6906577	wordpools/wasnorm_wordpool_576.txt	LTP388	ltpFR2	0	14	RATTLE	1170	n/a	n/a	0	0	0
3414.2939453125	n/a	WORD	6992474	wordpools/wasnorm_wordpool_576.txt	LTP388	ltpFR2	0	15	SCARECROW	1245	n/a	n/a	0	0	0
3416.7177734375	n/a	WORD	6997438	wordpools/wasnorm_wordpool_576.txt	LTP388	ltpFR2	0	15	SHORTS	1293	n/a	n/a	0	0	0
3419.39404296875	n/a	WORD	7002919	wordpools/wasnorm_wordpool_576.txt	LTP388	ltpFR2	0	15	BLOUSE	139	n/a	n/a	0	0	0
3422.1689453125	n/a	WORD	7008602	wordpools/wasnorm_wordpool_576.txt	LTP388	ltpFR2	0	15	MUSTARD	935	n/a	n/a	0	0	0
3424.7275390625	n/a	WORD	7013842	wordpools/wasnorm_wordpool_576.txt	LTP388	ltpFR2	0	15	KNAPSACK	783	n/a	n/a	0	0	0
3427.5029296875	n/a	WORD	7019526	wordpools/wasnorm_wordpool_576.txt	LTP388	ltpFR2	0	15	CUPBOARD	425	n/a	n/a	0	0	0
3429.927734375	n/a	WORD	7024492	wordpools/wasnorm_wordpool_576.txt	LTP388	ltpFR2	0	15	PECAN	1036	n/a	n/a	0	0	0
3432.50244140625	n/a	WORD	7029765	wordpools/wasnorm_wordpool_576.txt	LTP388	ltpFR2	0	15	SPACE	1345	n/a	n/a	0	0	0
3435.0107421875	n/a	WORD	7034902	wordpools/wasnorm_wordpool_576.txt	LTP388	ltpFR2	0	15	PAPER	1011	n/a	n/a	0	0	0
3437.55029296875	n/a	WORD	7040103	wordpools/wasnorm_wordpool_576.txt	LTP388	ltpFR2	0	15	SIBLING	1301	n/a	n/a	0	0	0
3440.26025390625	n/a	WORD	7045653	wordpools/wasnorm_wordpool_576.txt	LTP388	ltpFR2	0	15	LUNCH	849	n/a	n/a	0	0	0
3442.93505859375	n/a	WORD	7051131	wordpools/wasnorm_wordpool_576.txt	LTP388	ltpFR2	0	15	PEPPER	1047	n/a	n/a	0	0	0
3445.611328125	n/a	WORD	7056612	wordpools/wasnorm_wordpool_576.txt	LTP388	ltpFR2	0	15	BOUQUET	157	n/a	n/a	0	0	0
3448.419921875	n/a	WORD	7062364	wordpools/wasnorm_wordpool_576.txt	LTP388	ltpFR2	0	15	FLIPPER	580	n/a	n/a	0	0	0
3451.01220703125	n/a	WORD	7067673	wordpools/wasnorm_wordpool_576.txt	LTP388	ltpFR2	0	15	POPCORN	1104	n/a	n/a	0	0	0
3453.80419921875	n/a	WORD	7073391	wordpools/wasnorm_wordpool_576.txt	LTP388	ltpFR2	0	15	FINGER	567	n/a	n/a	0	0	0
3456.22900390625	n/a	WORD	7078357	wordpools/wasnorm_wordpool_576.txt	LTP388	ltpFR2	0	15	AIRPORT	13	n/a	n/a	0	0	0
3458.85400390625	n/a	WORD	7083733	wordpools/wasnorm_wordpool_576.txt	LTP388	ltpFR2	0	15	PEANUT	1032	n/a	n/a	0	0	0
3461.37890625	n/a	WORD	7088904	wordpools/wasnorm_wordpool_576.txt	LTP388	ltpFR2	0	15	SHOULDER	1294	n/a	n/a	0	0	0
3463.95361328125	n/a	WORD	7094177	wordpools/wasnorm_wordpool_576.txt	LTP388	ltpFR2	0	15	SHOVEL	1295	n/a	n/a	0	0	0
3466.728515625	n/a	WORD	7099860	wordpools/wasnorm_wordpool_576.txt	LTP388	ltpFR2	0	15	SWAMP	1416	n/a	n/a	0	0	0
3469.220703125	n/a	WORD	7104964	wordpools/wasnorm_wordpool_576.txt	LTP388	ltpFR2	0	15	WRIST	1626	n/a	n/a	0	0	0
3471.8115234375	n/a	WORD	7110270	wordpools/wasnorm_wordpool_576.txt	LTP388	ltpFR2	0	15	DRUG	501	n/a	n/a	0	0	0
3474.3037109375	n/a	WORD	7115374	wordpools/wasnorm_wordpool_576.txt	LTP388	ltpFR2	0	15	COOKBOOK	373	n/a	n/a	0	0	0
3475.90869140625	n/a	START	7118661	n/a	LTP388	ltpFR2	0	n/a	n/a	n/a	22	n/a	n/a	n/a	n/a
3476.9814453125	n/a	DISTRACTOR	7120858	n/a	LTP388	ltpFR2	0	15	n/a	n/a	n/a	n/a	0	0	0
3476.99560546875	n/a	PROB	7120887	n/a	LTP388	ltpFR2	0	n/a	n/a	n/a	22	11	6	2	3
3479.97119140625	n/a	PROB	7126981	n/a	LTP388	ltpFR2	0	n/a	n/a	n/a	22	17	8	9	8
3482.279296875	n/a	PROB	7131708	n/a	LTP388	ltpFR2	0	n/a	n/a	n/a	22	21	6	7	8
3485.47216796875	n/a	PROB	7138247	n/a	LTP388	ltpFR2	0	n/a	n/a	n/a	22	6	1	1	4
3486.81005859375	n/a	PROB	7140987	n/a	LTP388	ltpFR2	0	n/a	n/a	n/a	22	19	9	9	1
3490.6220703125	n/a	PROB	7148794	n/a	LTP388	ltpFR2	0	n/a	n/a	n/a	22	17	7	3	7
3492.42822265625	n/a	PROB	7152493	n/a	LTP388	ltpFR2	0	n/a	n/a	n/a	22	23	6	9	8
3497.544921875	n/a	PROB	7162972	n/a	LTP388	ltpFR2	0	n/a	n/a	n/a	22	13	9	2	2
3499.22802734375	n/a	STOP	7166419	n/a	LTP388	ltpFR2	0	n/a	n/a	n/a	22	n/a	n/a	n/a	n/a
3501.77587890625	n/a	REC_START	7171637	n/a	LTP388	ltpFR2	0	15	n/a	n/a	n/a	n/a	0	0	0
3502.86572265625	n/a	REC_WORD	7173869	wordpools/wasnorm_wordpool_576.txt	LTP388	ltpFR2	0	15	WRIST	1626	n/a	n/a	0	0	0
3504.24365234375	n/a	REC_WORD	7176691	wordpools/wasnorm_wordpool_576.txt	LTP388	ltpFR2	0	15	FINGER	567	n/a	n/a	0	0	0
3505.76953125	n/a	REC_WORD	7179816	wordpools/wasnorm_wordpool_576.txt	LTP388	ltpFR2	0	15	DRUG	501	n/a	n/a	0	0	0
3507.32861328125	n/a	REC_WORD	7183009	wordpools/wasnorm_wordpool_576.txt	LTP388	ltpFR2	0	15	COOKBOOK	373	n/a	n/a	0	0	0
3508.65673828125	n/a	REC_WORD	7185729	wordpools/wasnorm_wordpool_576.txt	LTP388	ltpFR2	0	15	FLIPPER	580	n/a	n/a	0	0	0
3517.4033203125	n/a	REC_WORD	7203642	wordpools/wasnorm_wordpool_576.txt	LTP388	ltpFR2	0	15	BOUQUET	157	n/a	n/a	0	0	0
3524.330078125	n/a	REC_WORD	7217828	wordpools/wasnorm_wordpool_576.txt	LTP388	ltpFR2	0	15	SCARECROW	1245	n/a	n/a	0	0	0
3526.0693359375	n/a	REC_WORD	7221390	wordpools/wasnorm_wordpool_576.txt	LTP388	ltpFR2	0	15	SHORTS	1293	n/a	n/a	0	0	0
3527.73291015625	n/a	REC_WORD	7224797	wordpools/wasnorm_wordpool_576.txt	LTP388	ltpFR2	0	15	BLOUSE	139	n/a	n/a	0	0	0
3544.392578125	n/a	REC_WORD	7258916	wordpools/wasnorm_wordpool_576.txt	LTP388	ltpFR2	0	15	FILE	-1	n/a	n/a	0	0	0
3592.232421875	n/a	WORD	7356892	wordpools/wasnorm_wordpool_576.txt	LTP388	ltpFR2	0	16	OUTDOORS	987	n/a	n/a	0	0	0
3594.974609375	n/a	WORD	7362508	wordpools/wasnorm_wordpool_576.txt	LTP388	ltpFR2	0	16	KITCHEN	778	n/a	n/a	0	0	0
3597.482421875	n/a	WORD	7367644	wordpools/wasnorm_wordpool_576.txt	LTP388	ltpFR2	0	16	ACTRESS	6	n/a	n/a	0	0	0
3600.12451171875	n/a	WORD	7373055	wordpools/wasnorm_wordpool_576.txt	LTP388	ltpFR2	0	16	WARDROBE	1587	n/a	n/a	0	0	0
3602.68212890625	n/a	WORD	7378293	wordpools/wasnorm_wordpool_576.txt	LTP388	ltpFR2	0	16	BANJO	82	n/a	n/a	0	0	0
3605.291015625	n/a	WORD	7383636	wordpools/wasnorm_wordpool_576.txt	LTP388	ltpFR2	0	16	SWIMMER	1420	n/a	n/a	0	0	0
3607.73193359375	n/a	WORD	7388635	wordpools/wasnorm_wordpool_576.txt	LTP388	ltpFR2	0	16	BRANDY	169	n/a	n/a	0	0	0
3610.33984375	n/a	WORD	7393976	wordpools/wasnorm_wordpool_576.txt	LTP388	ltpFR2	0	16	GLASS	639	n/a	n/a	0	0	0
3612.96484375	n/a	WORD	7399352	wordpools/wasnorm_wordpool_576.txt	LTP388	ltpFR2	0	16	SHELF	1280	n/a	n/a	0	0	0
3615.60693359375	n/a	WORD	7404763	wordpools/wasnorm_wordpool_576.txt	LTP388	ltpFR2	0	16	PLAYGROUND	1087	n/a	n/a	0	0	0
3618.181640625	n/a	WORD	7410036	wordpools/wasnorm_wordpool_576.txt	LTP388	ltpFR2	0	16	BEEF	113	n/a	n/a	0	0	0
3620.82373046875	n/a	WORD	7415447	wordpools/wasnorm_wordpool_576.txt	LTP388	ltpFR2	0	16	SAUSAGE	1238	n/a	n/a	0	0	0
3623.3828125	n/a	WORD	7420688	wordpools/wasnorm_wordpool_576.txt	LTP388	ltpFR2	0	16	FOOTBALL	591	n/a	n/a	0	0	0
3625.8564453125	n/a	WORD	7425754	wordpools/wasnorm_wordpool_576.txt	LTP388	ltpFR2	0	16	MAILBOX	857	n/a	n/a	0	0	0
3628.28173828125	n/a	WORD	7430721	wordpools/wasnorm_wordpool_576.txt	LTP388	ltpFR2	0	16	POSTAGE	1113	n/a	n/a	0	0	0
3630.8896484375	n/a	WORD	7436062	wordpools/wasnorm_wordpool_576.txt	LTP388	ltpFR2	0	16	SPONGE	1355	n/a	n/a	0	0	0
3633.5634765625	n/a	WORD	7441538	wordpools/wasnorm_wordpool_576.txt	LTP388	ltpFR2	0	16	SUSPECT	1415	n/a	n/a	0	0	0
3636.05615234375	n/a	WORD	7446643	wordpools/wasnorm_wordpool_576.txt	LTP388	ltpFR2	0	16	INFANT	737	n/a	n/a	0	0	0
3638.5634765625	n/a	WORD	7451778	wordpools/wasnorm_wordpool_576.txt	LTP388	ltpFR2	0	16	BURGLAR	200	n/a	n/a	0	0	0
3641.17236328125	n/a	WORD	7457121	wordpools/wasnorm_wordpool_576.txt	LTP388	ltpFR2	0	16	PICNIC	1060	n/a	n/a	0	0	0
3643.8310546875	n/a	WORD	7462566	wordpools/wasnorm_wordpool_576.txt	LTP388	ltpFR2	0	16	MONSTER	912	n/a	n/a	0	0	0
3646.5400390625	n/a	WORD	7468114	wordpools/wasnorm_wordpool_576.txt	LTP388	ltpFR2	0	16	JAPAN	749	n/a	n/a	0	0	0
3649.09814453125	n/a	WORD	7473353	wordpools/wasnorm_wordpool_576.txt	LTP388	ltpFR2	0	16	HATCHET	691	n/a	n/a	0	0	0
3651.89111328125	n/a	WORD	7479073	wordpools/wasnorm_wordpool_576.txt	LTP388	ltpFR2	0	16	FLUTE	585	n/a	n/a	0	0	0
3653.49609375	n/a	START	7482360	n/a	LTP388	ltpFR2	0	n/a	n/a	n/a	23	n/a	n/a	n/a	n/a
3654.5888671875	n/a	DISTRACTOR	7484598	n/a	LTP388	ltpFR2	0	16	n/a	n/a	n/a	n/a	0	0	0
3654.59912109375	n/a	PROB	7484619	n/a	LTP388	ltpFR2	0	n/a	n/a	n/a	23	18	6	3	9
3658.74560546875	n/a	PROB	7493111	n/a	LTP388	ltpFR2	0	n/a	n/a	n/a	23	17	3	8	6
3662.40771484375	n/a	PROB	7500611	n/a	LTP388	ltpFR2	0	n/a	n/a	n/a	23	13	7	4	2
3664.3134765625	n/a	PROB	7504514	n/a	LTP388	ltpFR2	0	n/a	n/a	n/a	23	16	8	5	3
3666.353515625	n/a	PROB	7508692	n/a	LTP388	ltpFR2	0	n/a	n/a	n/a	23	8	4	1	3
3668.259765625	n/a	PROB	7512596	n/a	LTP388	ltpFR2	0	n/a	n/a	n/a	23	14	2	3	9
3672.33935546875	n/a	PROB	7520951	n/a	LTP388	ltpFR2	0	n/a	n/a	n/a	23	18	4	7	7
3677.4951171875	n/a	STOP	7531510	n/a	LTP388	ltpFR2	0	n/a	n/a	n/a	23	n/a	n/a	n/a	n/a
3679.34619140625	n/a	REC_START	7535301	n/a	LTP388	ltpFR2	0	16	n/a	n/a	n/a	n/a	0	0	0
3680.84912109375	n/a	REC_WORD	7538379	wordpools/wasnorm_wordpool_576.txt	LTP388	ltpFR2	0	16	FLUTE	585	n/a	n/a	0	0	0
3681.8623046875	n/a	REC_WORD	7540454	wordpools/wasnorm_wordpool_576.txt	LTP388	ltpFR2	0	16	HATCHET	691	n/a	n/a	0	0	0
3683.2001953125	n/a	REC_WORD	7543194	wordpools/wasnorm_wordpool_576.txt	LTP388	ltpFR2	0	16	MONSTER	912	n/a	n/a	0	0	0
3684.4189453125	n/a	REC_WORD	7545690	wordpools/wasnorm_wordpool_576.txt	LTP388	ltpFR2	0	16	JAPAN	749	n/a	n/a	0	0	0
3685.75830078125	n/a	REC_WORD	7548433	wordpools/wasnorm_wordpool_576.txt	LTP388	ltpFR2	0	16	OUTDOORS	987	n/a	n/a	0	0	0
3687.09521484375	n/a	REC_WORD	7551171	wordpools/wasnorm_wordpool_576.txt	LTP388	ltpFR2	0	16	KITCHEN	778	n/a	n/a	0	0	0
3689.39892578125	n/a	REC_WORD	7555889	wordpools/wasnorm_wordpool_576.txt	LTP388	ltpFR2	0	16	CUPBOARD	425	n/a	n/a	0	0	0
3690.630859375	n/a	REC_WORD	7558412	wordpools/wasnorm_wordpool_576.txt	LTP388	ltpFR2	0	16	GLASS	639	n/a	n/a	0	0	0
3691.89794921875	n/a	REC_WORD	7561007	wordpools/wasnorm_wordpool_576.txt	LTP388	ltpFR2	0	16	SHELF	1280	n/a	n/a	0	0	0
3694.6796875	n/a	REC_WORD	7566704	wordpools/wasnorm_wordpool_576.txt	LTP388	ltpFR2	0	16	WARDROBE	1587	n/a	n/a	0	0	0
3702.4248046875	n/a	REC_WORD	7582566	wordpools/wasnorm_wordpool_576.txt	LTP388	ltpFR2	0	16	INFANT	737	n/a	n/a	0	0	0
3712.00830078125	n/a	REC_WORD	7602193	wordpools/wasnorm_wordpool_576.txt	LTP388	ltpFR2	0	16	MAILBOX	857	n/a	n/a	0	0	0
3713.17919921875	n/a	REC_WORD	7604591	wordpools/wasnorm_wordpool_576.txt	LTP388	ltpFR2	0	16	POSTAGE	1113	n/a	n/a	0	0	0
3746.2734375	n/a	REC_WORD	7672368	wordpools/wasnorm_wordpool_576.txt	LTP388	ltpFR2	0	16	PICNIC	1060	n/a	n/a	0	0	0
3755.87451171875	n/a	REST_REWET	7692031	n/a	LTP388	ltpFR2	0	16	n/a	n/a	n/a	n/a	0	0	0
3982.45263671875	n/a	DISTRACTOR	8156063	n/a	LTP388	ltpFR2	0	17	n/a	n/a	n/a	n/a	0	0	0
3982.45263671875	n/a	START	8156063	n/a	LTP388	ltpFR2	0	n/a	n/a	n/a	24	n/a	n/a	n/a	n/a
3982.4697265625	n/a	PROB	8156098	n/a	LTP388	ltpFR2	0	n/a	n/a	n/a	24	19	8	6	5
3985.54443359375	n/a	PROB	8162395	n/a	LTP388	ltpFR2	0	n/a	n/a	n/a	24	15	9	5	1
3988.22119140625	n/a	PROB	8167877	n/a	LTP388	ltpFR2	0	n/a	n/a	n/a	24	17	5	5	7
3989.6923828125	n/a	PROB	8170890	n/a	LTP388	ltpFR2	0	n/a	n/a	n/a	24	15	1	9	5
3991.080078125	n/a	PROB	8173732	n/a	LTP388	ltpFR2	0	n/a	n/a	n/a	24	16	4	9	3
3993.62109375	n/a	PROB	8178936	n/a	LTP388	ltpFR2	0	n/a	n/a	n/a	24	20	6	9	5
3995.96240234375	n/a	PROB	8183731	n/a	LTP388	ltpFR2	0	n/a	n/a	n/a	24	15	5	1	9
3997.4169921875	n/a	PROB	8186710	n/a	LTP388	ltpFR2	0	n/a	n/a	n/a	24	8	1	2	5
3999.67431640625	n/a	PROB	8191333	n/a	LTP388	ltpFR2	0	n/a	n/a	n/a	24	11	5	4	2
4002.90087890625	n/a	PROB	8197941	n/a	LTP388	ltpFR2	0	n/a	n/a	n/a	24	5	3	1	1
4003.98779296875	n/a	PROB	8200167	n/a	LTP388	ltpFR2	0	n/a	n/a	n/a	24	15	8	1	6
4005.44580078125	n/a	STOP	8203153	n/a	LTP388	ltpFR2	0	n/a	n/a	n/a	24	n/a	n/a	n/a	n/a
4007.6669921875	n/a	WORD	8207702	wordpools/wasnorm_wordpool_576.txt	LTP388	ltpFR2	0	17	COMET	353	n/a	n/a	0	0	0
4010.3759765625	n/a	WORD	8213250	wordpools/wasnorm_wordpool_576.txt	LTP388	ltpFR2	0	17	STAR	1373	n/a	n/a	0	0	0
4013.017578125	n/a	WORD	8218660	wordpools/wasnorm_wordpool_576.txt	LTP388	ltpFR2	0	17	DOLPHIN	483	n/a	n/a	0	0	0
4015.77587890625	n/a	WORD	8224309	wordpools/wasnorm_wordpool_576.txt	LTP388	ltpFR2	0	17	IGLOO	734	n/a	n/a	0	0	0
4018.484375	n/a	WORD	8229856	wordpools/wasnorm_wordpool_576.txt	LTP388	ltpFR2	0	17	TRACTOR	1493	n/a	n/a	0	0	0
4020.99267578125	n/a	WORD	8234993	wordpools/wasnorm_wordpool_576.txt	LTP388	ltpFR2	0	17	STUDENT	1395	n/a	n/a	0	0	0
4023.53369140625	n/a	WORD	8240197	wordpools/wasnorm_wordpool_576.txt	LTP388	ltpFR2	0	17	MAMMAL	861	n/a	n/a	0	0	0
4026.0595703125	n/a	WORD	8245370	wordpools/wasnorm_wordpool_576.txt	LTP388	ltpFR2	0	17	BEAVER	109	n/a	n/a	0	0	0
4028.71728515625	n/a	WORD	8250813	wordpools/wasnorm_wordpool_576.txt	LTP388	ltpFR2	0	17	STATUE	1374	n/a	n/a	0	0	0
4031.2421875	n/a	WORD	8255984	wordpools/wasnorm_wordpool_576.txt	LTP388	ltpFR2	0	17	KLEENEX	782	n/a	n/a	0	0	0
4033.9013671875	n/a	WORD	8261430	wordpools/wasnorm_wordpool_576.txt	LTP388	ltpFR2	0	17	BRANCH	168	n/a	n/a	0	0	0
4036.34228515625	n/a	WORD	8266429	wordpools/wasnorm_wordpool_576.txt	LTP388	ltpFR2	0	17	RIFLE	1192	n/a	n/a	0	0	0
4038.8671875	n/a	WORD	8271600	wordpools/wasnorm_wordpool_576.txt	LTP388	ltpFR2	0	17	HOOD	714	n/a	n/a	0	0	0
4041.341796875	n/a	WORD	8276668	wordpools/wasnorm_wordpool_576.txt	LTP388	ltpFR2	0	17	KNIFE	785	n/a	n/a	0	0	0
4044.1337890625	n/a	WORD	8282386	wordpools/wasnorm_wordpool_576.txt	LTP388	ltpFR2	0	17	AUTHOR	61	n/a	n/a	0	0	0
4046.65869140625	n/a	WORD	8287557	wordpools/wasnorm_wordpool_576.txt	LTP388	ltpFR2	0	17	STAPLE	1371	n/a	n/a	0	0	0
4049.40087890625	n/a	WORD	8293173	wordpools/wasnorm_wordpool_576.txt	LTP388	ltpFR2	0	17	LION	827	n/a	n/a	0	0	0
4052.15966796875	n/a	WORD	8298823	wordpools/wasnorm_wordpool_576.txt	LTP388	ltpFR2	0	17	MACHINE	852	n/a	n/a	0	0	0
4054.7177734375	n/a	WORD	8304062	wordpools/wasnorm_wordpool_576.txt	LTP388	ltpFR2	0	17	PEACH	1031	n/a	n/a	0	0	0
4057.24267578125	n/a	WORD	8309233	wordpools/wasnorm_wordpool_576.txt	LTP388	ltpFR2	0	17	LABEL	790	n/a	n/a	0	0	0
4059.734375	n/a	WORD	8314336	wordpools/wasnorm_wordpool_576.txt	LTP388	ltpFR2	0	17	POCKET	1093	n/a	n/a	0	0	0
4062.17529296875	n/a	WORD	8319335	wordpools/wasnorm_wordpool_576.txt	LTP388	ltpFR2	0	17	COTTAGE	384	n/a	n/a	0	0	0
4064.8505859375	n/a	WORD	8324814	wordpools/wasnorm_wordpool_576.txt	LTP388	ltpFR2	0	17	DORM	488	n/a	n/a	0	0	0
4067.42529296875	n/a	WORD	8330087	wordpools/wasnorm_wordpool_576.txt	LTP388	ltpFR2	0	17	FIREPLACE	570	n/a	n/a	0	0	0
4069.03125	n/a	START	8333376	n/a	LTP388	ltpFR2	0	n/a	n/a	n/a	25	n/a	n/a	n/a	n/a
4070.037109375	n/a	DISTRACTOR	8335436	n/a	LTP388	ltpFR2	0	17	n/a	n/a	n/a	n/a	0	0	0
4070.05029296875	n/a	PROB	8335463	n/a	LTP388	ltpFR2	0	n/a	n/a	n/a	25	14	4	4	6
4072.84326171875	n/a	PROB	8341183	n/a	LTP388	ltpFR2	0	n/a	n/a	n/a	25	20	9	3	8
4076.97314453125	n/a	PROB	8349641	n/a	LTP388	ltpFR2	0	n/a	n/a	n/a	25	16	2	9	5
4079.43115234375	n/a	PROB	8354675	n/a	LTP388	ltpFR2	0	n/a	n/a	n/a	25	16	8	4	4
4081.5361328125	n/a	PROB	8358986	n/a	LTP388	ltpFR2	0	n/a	n/a	n/a	25	19	7	7	5
4083.494140625	n/a	PROB	8362996	n/a	LTP388	ltpFR2	0	n/a	n/a	n/a	25	9	2	4	3
4087.33984375	n/a	PROB	8370872	n/a	LTP388	ltpFR2	0	n/a	n/a	n/a	25	19	2	9	8
4089.19580078125	n/a	PROB	8374673	n/a	LTP388	ltpFR2	0	n/a	n/a	n/a	25	6	1	1	4
4093.02978515625	n/a	STOP	8382525	n/a	LTP388	ltpFR2	0	n/a	n/a	n/a	25	n/a	n/a	n/a	n/a
4094.9306640625	n/a	REC_START	8386418	n/a	LTP388	ltpFR2	0	17	n/a	n/a	n/a	n/a	0	0	0
4095.79541015625	n/a	REC_WORD	8388189	wordpools/wasnorm_wordpool_576.txt	LTP388	ltpFR2	0	17	COTTAGE	384	n/a	n/a	0	0	0
4097.21142578125	n/a	REC_WORD	8391089	wordpools/wasnorm_wordpool_576.txt	LTP388	ltpFR2	0	17	DORM	488	n/a	n/a	0	0	0
4098.53662109375	n/a	REC_WORD	8393803	wordpools/wasnorm_wordpool_576.txt	LTP388	ltpFR2	0	17	FIREPLACE	570	n/a	n/a	0	0	0
4101.904296875	n/a	REC_WORD	8400700	wordpools/wasnorm_wordpool_576.txt	LTP388	ltpFR2	0	17	COMET	353	n/a	n/a	0	0	0
4103.1982421875	n/a	REC_WORD	8403350	wordpools/wasnorm_wordpool_576.txt	LTP388	ltpFR2	0	17	STAR	1373	n/a	n/a	0	0	0
4104.6943359375	n/a	REC_WORD	8406414	wordpools/wasnorm_wordpool_576.txt	LTP388	ltpFR2	0	17	DOLPHIN	483	n/a	n/a	0	0	0
4106.03759765625	n/a	REC_WORD	8409165	wordpools/wasnorm_wordpool_576.txt	LTP388	ltpFR2	0	17	TRACTOR	1493	n/a	n/a	0	0	0
4107.34033203125	n/a	REC_WORD	8411833	wordpools/wasnorm_wordpool_576.txt	LTP388	ltpFR2	0	17	STUDENT	1395	n/a	n/a	0	0	0
4109.4033203125	n/a	REC_WORD	8416058	wordpools/wasnorm_wordpool_576.txt	LTP388	ltpFR2	0	17	BRANCH	168	n/a	n/a	0	0	0
4110.85009765625	n/a	REC_WORD	8419021	wordpools/wasnorm_wordpool_576.txt	LTP388	ltpFR2	0	17	RIFLE	1192	n/a	n/a	0	0	0
4112.46826171875	n/a	REC_WORD	8422335	wordpools/wasnorm_wordpool_576.txt	LTP388	ltpFR2	0	17	STATUE	1374	n/a	n/a	0	0	0
4114.14501953125	n/a	REC_WORD	8425769	wordpools/wasnorm_wordpool_576.txt	LTP388	ltpFR2	0	17	LION	827	n/a	n/a	0	0	0
4139.8935546875	n/a	REC_WORD	8478502	wordpools/wasnorm_wordpool_576.txt	LTP388	ltpFR2	0	17	HOOD	714	n/a	n/a	0	0	0
4185.37158203125	n/a	DISTRACTOR	8571641	n/a	LTP388	ltpFR2	0	18	n/a	n/a	n/a	n/a	0	0	0
4185.37158203125	n/a	START	8571641	n/a	LTP388	ltpFR2	0	n/a	n/a	n/a	26	n/a	n/a	n/a	n/a
4185.38818359375	n/a	PROB	8571675	n/a	LTP388	ltpFR2	0	n/a	n/a	n/a	26	11	6	3	2
4187.59521484375	n/a	PROB	8576195	n/a	LTP388	ltpFR2	0	n/a	n/a	n/a	26	13	4	7	2
4189.63525390625	n/a	PROB	8580373	n/a	LTP388	ltpFR2	0	n/a	n/a	n/a	26	15	7	7	1
4191.1064453125	n/a	PROB	8583386	n/a	LTP388	ltpFR2	0	n/a	n/a	n/a	26	9	3	5	1
4192.99609375	n/a	PROB	8587256	n/a	LTP388	ltpFR2	0	n/a	n/a	n/a	26	15	5	9	1
4194.48388671875	n/a	PROB	8590303	n/a	LTP388	ltpFR2	0	n/a	n/a	n/a	26	13	7	3	3
4195.88818359375	n/a	PROB	8593179	n/a	LTP388	ltpFR2	0	n/a	n/a	n/a	26	14	7	4	3
4197.34326171875	n/a	PROB	8596159	n/a	LTP388	ltpFR2	0	n/a	n/a	n/a	26	9	1	5	3
4199.4501953125	n/a	PROB	8600474	n/a	LTP388	ltpFR2	0	n/a	n/a	n/a	26	24	8	8	8
4201.18896484375	n/a	PROB	8604035	n/a	LTP388	ltpFR2	0	n/a	n/a	n/a	26	6	1	2	3
4203.36181640625	n/a	PROB	8608485	n/a	LTP388	ltpFR2	0	n/a	n/a	n/a	26	11	3	6	2
4209.37060546875	n/a	STOP	8620791	n/a	LTP388	ltpFR2	0	n/a	n/a	n/a	26	n/a	n/a	n/a	n/a
4210.25048828125	n/a	WORD	8622593	wordpools/wasnorm_wordpool_576.txt	LTP388	ltpFR2	0	18	GRAPE	654	n/a	n/a	0	0	0
4212.7255859375	n/a	WORD	8627662	wordpools/wasnorm_wordpool_576.txt	LTP388	ltpFR2	0	18	FLASHLIGHT	575	n/a	n/a	0	0	0
4215.484375	n/a	WORD	8633312	wordpools/wasnorm_wordpool_576.txt	LTP388	ltpFR2	0	18	MATCH	878	n/a	n/a	0	0	0
4218.04248046875	n/a	WORD	8638551	wordpools/wasnorm_wordpool_576.txt	LTP388	ltpFR2	0	18	LUMBER	848	n/a	n/a	0	0	0
4220.78466796875	n/a	WORD	8644167	wordpools/wasnorm_wordpool_576.txt	LTP388	ltpFR2	0	18	BOARD	143	n/a	n/a	0	0	0
4223.326171875	n/a	WORD	8649372	wordpools/wasnorm_wordpool_576.txt	LTP388	ltpFR2	0	18	BEAST	108	n/a	n/a	0	0	0
4225.8681640625	n/a	WORD	8654578	wordpools/wasnorm_wordpool_576.txt	LTP388	ltpFR2	0	18	BATHTUB	100	n/a	n/a	0	0	0
4228.59326171875	n/a	WORD	8660159	wordpools/wasnorm_wordpool_576.txt	LTP388	ltpFR2	0	18	DIME	466	n/a	n/a	0	0	0
4231.0341796875	n/a	WORD	8665158	wordpools/wasnorm_wordpool_576.txt	LTP388	ltpFR2	0	18	MARROW	872	n/a	n/a	0	0	0
4233.6259765625	n/a	WORD	8670466	wordpools/wasnorm_wordpool_576.txt	LTP388	ltpFR2	0	18	SIDEWALK	1303	n/a	n/a	0	0	0
4236.41796875	n/a	WORD	8676184	wordpools/wasnorm_wordpool_576.txt	LTP388	ltpFR2	0	18	KETCHUP	771	n/a	n/a	0	0	0
4239.14404296875	n/a	WORD	8681767	wordpools/wasnorm_wordpool_576.txt	LTP388	ltpFR2	0	18	DONKEY	484	n/a	n/a	0	0	0
4241.90283203125	n/a	WORD	8687417	wordpools/wasnorm_wordpool_576.txt	LTP388	ltpFR2	0	18	SWITCH	1422	n/a	n/a	0	0	0
4244.3779296875	n/a	WORD	8692486	wordpools/wasnorm_wordpool_576.txt	LTP388	ltpFR2	0	18	BIKE	125	n/a	n/a	0	0	0
4246.935546875	n/a	WORD	8697724	wordpools/wasnorm_wordpool_576.txt	LTP388	ltpFR2	0	18	COSTUME	383	n/a	n/a	0	0	0
4249.66064453125	n/a	WORD	8703305	wordpools/wasnorm_wordpool_576.txt	LTP388	ltpFR2	0	18	DAISY	435	n/a	n/a	0	0	0
4252.302734375	n/a	WORD	8708716	wordpools/wasnorm_wordpool_576.txt	LTP388	ltpFR2	0	18	SNAKE	1333	n/a	n/a	0	0	0
4254.7607421875	n/a	WORD	8713750	wordpools/wasnorm_wordpool_576.txt	LTP388	ltpFR2	0	18	FRUIT	610	n/a	n/a	0	0	0
4257.21875	n/a	WORD	8718784	wordpools/wasnorm_wordpool_576.txt	LTP388	ltpFR2	0	18	QUEEN	1149	n/a	n/a	0	0	0
4259.7265625	n/a	WORD	8723920	wordpools/wasnorm_wordpool_576.txt	LTP388	ltpFR2	0	18	BROOK	177	n/a	n/a	0	0	0
4262.16748046875	n/a	WORD	8728919	wordpools/wasnorm_wordpool_576.txt	LTP388	ltpFR2	0	18	RIVER	1194	n/a	n/a	0	0	0
4264.92626953125	n/a	WORD	8734569	wordpools/wasnorm_wordpool_576.txt	LTP388	ltpFR2	0	18	PEDAL	1037	n/a	n/a	0	0	0
4267.65234375	n/a	WORD	8740152	wordpools/wasnorm_wordpool_576.txt	LTP388	ltpFR2	0	18	RELISH	1183	n/a	n/a	0	0	0
4270.31103515625	n/a	WORD	8745597	wordpools/wasnorm_wordpool_576.txt	LTP388	ltpFR2	0	18	OZONE	996	n/a	n/a	0	0	0
4271.916015625	n/a	START	8748884	n/a	LTP388	ltpFR2	0	n/a	n/a	n/a	27	n/a	n/a	n/a	n/a
4272.89013671875	n/a	DISTRACTOR	8750879	n/a	LTP388	ltpFR2	0	18	n/a	n/a	n/a	n/a	0	0	0
4272.90234375	n/a	PROB	8750904	n/a	LTP388	ltpFR2	0	n/a	n/a	n/a	27	13	2	6	5
4276.5302734375	n/a	PROB	8758334	n/a	LTP388	ltpFR2	0	n/a	n/a	n/a	27	9	5	1	3
4278.203125	n/a	PROB	8761760	n/a	LTP388	ltpFR2	0	n/a	n/a	n/a	27	14	4	6	4
4279.673828125	n/a	PROB	8764772	n/a	LTP388	ltpFR2	0	n/a	n/a	n/a	27	15	8	3	4
4282.583984375	n/a	PROB	8770732	n/a	LTP388	ltpFR2	0	n/a	n/a	n/a	27	17	9	6	2
4284.6396484375	n/a	PROB	8774942	n/a	LTP388	ltpFR2	0	n/a	n/a	n/a	27	23	9	8	5
4287.3818359375	n/a	PROB	8780558	n/a	LTP388	ltpFR2	0	n/a	n/a	n/a	27	11	2	3	6
4289.0205078125	n/a	PROB	8783914	n/a	LTP388	ltpFR2	0	n/a	n/a	n/a	27	16	6	8	2
4295.91552734375	n/a	STOP	8798035	n/a	LTP388	ltpFR2	0	n/a	n/a	n/a	27	n/a	n/a	n/a	n/a
4297.78271484375	n/a	REC_START	8801859	n/a	LTP388	ltpFR2	0	18	n/a	n/a	n/a	n/a	0	0	0
4298.7724609375	n/a	REC_WORD	8803886	wordpools/wasnorm_wordpool_576.txt	LTP388	ltpFR2	0	18	GRAPE	654	n/a	n/a	0	0	0
4300.029296875	n/a	REC_WORD	8806460	wordpools/wasnorm_wordpool_576.txt	LTP388	ltpFR2	0	18	FRUIT	610	n/a	n/a	0	0	0
4301.6982421875	n/a	REC_WORD	8809878	wordpools/wasnorm_wordpool_576.txt	LTP388	ltpFR2	0	18	BROOK	177	n/a	n/a	0	0	0
4302.88232421875	n/a	REC_WORD	8812303	wordpools/wasnorm_wordpool_576.txt	LTP388	ltpFR2	0	18	STREAM	1392	n/a	n/a	0	0	0
4304.5771484375	n/a	REC_WORD	8815774	wordpools/wasnorm_wordpool_576.txt	LTP388	ltpFR2	0	18	QUEEN	1149	n/a	n/a	0	0	0
4306.3291015625	n/a	REC_WORD	8819362	wordpools/wasnorm_wordpool_576.txt	LTP388	ltpFR2	0	18	BOARD	143	n/a	n/a	0	0	0
4307.787109375	n/a	REC_WORD	8822348	wordpools/wasnorm_wordpool_576.txt	LTP388	ltpFR2	0	18	MATCH	878	n/a	n/a	0	0	0
4309.2392578125	n/a	REC_WORD	8825322	wordpools/wasnorm_wordpool_576.txt	LTP388	ltpFR2	0	18	FLASHLIGHT	575	n/a	n/a	0	0	0
4310.97998046875	n/a	REC_WORD	8828887	wordpools/wasnorm_wordpool_576.txt	LTP388	ltpFR2	0	18	SIDEWALK	1303	n/a	n/a	0	0	0
4312.8212890625	n/a	REC_WORD	8832658	wordpools/wasnorm_wordpool_576.txt	LTP388	ltpFR2	0	18	KETCHUP	771	n/a	n/a	0	0	0
4314.833984375	n/a	REC_WORD	8836780	wordpools/wasnorm_wordpool_576.txt	LTP388	ltpFR2	0	18	RELISH	1183	n/a	n/a	0	0	0
4317.9140625	n/a	REC_WORD	8843088	wordpools/wasnorm_wordpool_576.txt	LTP388	ltpFR2	0	18	DONKEY	484	n/a	n/a	0	0	0
4320.36279296875	n/a	REC_WORD	8848103	wordpools/wasnorm_wordpool_576.txt	LTP388	ltpFR2	0	18	OZONE	996	n/a	n/a	0	0	0
4336.4873046875	n/a	REC_WORD	8881126	wordpools/wasnorm_wordpool_576.txt	LTP388	ltpFR2	0	18	DAISY	435	n/a	n/a	0	0	0
4388.2392578125	n/a	WORD	8987114	wordpools/wasnorm_wordpool_576.txt	LTP388	ltpFR2	0	19	BLACKBOARD	133	n/a	n/a	0	0	0
4390.68115234375	n/a	WORD	8992115	wordpools/wasnorm_wordpool_576.txt	LTP388	ltpFR2	0	19	WHISTLE	1606	n/a	n/a	0	0	0
4393.27197265625	n/a	WORD	8997421	wordpools/wasnorm_wordpool_576.txt	LTP388	ltpFR2	0	19	CONCERT	360	n/a	n/a	0	0	0
4395.998046875	n/a	WORD	9003004	wordpools/wasnorm_wordpool_576.txt	LTP388	ltpFR2	0	19	CHEMIST	292	n/a	n/a	0	0	0
4398.77392578125	n/a	WORD	9008689	wordpools/wasnorm_wordpool_576.txt	LTP388	ltpFR2	0	19	KEEPER	769	n/a	n/a	0	0	0
4401.34765625	n/a	WORD	9013960	wordpools/wasnorm_wordpool_576.txt	LTP388	ltpFR2	0	19	BANKER	84	n/a	n/a	0	0	0
4404.15771484375	n/a	WORD	9019715	wordpools/wasnorm_wordpool_576.txt	LTP388	ltpFR2	0	19	FUNGUS	614	n/a	n/a	0	0	0
4406.61572265625	n/a	WORD	9024749	wordpools/wasnorm_wordpool_576.txt	LTP388	ltpFR2	0	19	TURNIP	1521	n/a	n/a	0	0	0
4409.07373046875	n/a	WORD	9029783	wordpools/wasnorm_wordpool_576.txt	LTP388	ltpFR2	0	19	HAND	683	n/a	n/a	0	0	0
4411.66455078125	n/a	WORD	9035089	wordpools/wasnorm_wordpool_576.txt	LTP388	ltpFR2	0	19	BOX	159	n/a	n/a	0	0	0
4414.3564453125	n/a	WORD	9040602	wordpools/wasnorm_wordpool_576.txt	LTP388	ltpFR2	0	19	NECKLACE	940	n/a	n/a	0	0	0
4416.91552734375	n/a	WORD	9045843	wordpools/wasnorm_wordpool_576.txt	LTP388	ltpFR2	0	19	EGYPT	519	n/a	n/a	0	0	0
4419.724609375	n/a	WORD	9051596	wordpools/wasnorm_wordpool_576.txt	LTP388	ltpFR2	0	19	CANAL	226	n/a	n/a	0	0	0
4422.29931640625	n/a	WORD	9056869	wordpools/wasnorm_wordpool_576.txt	LTP388	ltpFR2	0	19	BELLY	119	n/a	n/a	0	0	0
4425.00732421875	n/a	WORD	9062415	wordpools/wasnorm_wordpool_576.txt	LTP388	ltpFR2	0	19	STOMACH	1384	n/a	n/a	0	0	0
4427.783203125	n/a	WORD	9068100	wordpools/wasnorm_wordpool_576.txt	LTP388	ltpFR2	0	19	BUNNY	198	n/a	n/a	0	0	0
4430.2412109375	n/a	WORD	9073134	wordpools/wasnorm_wordpool_576.txt	LTP388	ltpFR2	0	19	YOLK	1633	n/a	n/a	0	0	0
4432.9501953125	n/a	WORD	9078682	wordpools/wasnorm_wordpool_576.txt	LTP388	ltpFR2	0	19	ITEM	746	n/a	n/a	0	0	0
4435.708984375	n/a	WORD	9084332	wordpools/wasnorm_wordpool_576.txt	LTP388	ltpFR2	0	19	BEAKER	104	n/a	n/a	0	0	0
4438.48388671875	n/a	WORD	9090015	wordpools/wasnorm_wordpool_576.txt	LTP388	ltpFR2	0	19	SUNSET	1408	n/a	n/a	0	0	0
