onset	duration	trial_type	sample	stim_file	subject	experiment	session	trial	task	item_name	item_num	recog_resp	recog_conf	resp	color_r	color_g	color_b	case	font
368.272	n/a	SESS_START	184136	n/a	LTP116	ltpFR	0	n/a	n/a	n/a	n/a	1	3	n/a	n/a	n/a	n/a	n/a	n/a
512.958	n/a	WORD	256479	wordpools/wasnorm_wordpool.txt	LTP116	ltpFR	0	1	-1	TAVERN	1437	0	1	-1	1.0	1.0	1	upper	Verdana.ttf
517.032	n/a	WORD	258516	wordpools/wasnorm_wordpool.txt	LTP116	ltpFR	0	1	-1	MOAT	903	1	n/a	-1	1.0	1.0	1	upper	Verdana.ttf
521.156	n/a	WORD	260578	wordpools/wasnorm_wordpool.txt	LTP116	ltpFR	0	1	-1	MANSION	864	n/a	n/a	-1	1.0	1.0	1	upper	Verdana.ttf
525.088	n/a	WORD	262544	wordpools/wasnorm_wordpool.txt	LTP116	ltpFR	0	1	-1	COTTAGE	384	n/a	n/a	-1	1.0	1.0	1	upper	Verdana.ttf
529.204	n/a	WORD	264602	wordpools/wasnorm_wordpool.txt	LTP116	ltpFR	0	1	-1	EWE	542	n/a	n/a	-1	1.0	1.0	1	upper	Verdana.ttf
533.118	n/a	WORD	266559	wordpools/wasnorm_wordpool.txt	LTP116	ltpFR	0	1	-1	STOOL	1386	n/a	n/a	-1	1.0	1.0	1	upper	Verdana.ttf
537.018	n/a	WORD	268509	wordpools/wasnorm_wordpool.txt	LTP116	ltpFR	0	1	-1	STEREO	1378	n/a	n/a	-1	1.0	1.0	1	upper	Verdana.ttf
541.166	n/a	WORD	270583	wordpools/wasnorm_wordpool.txt	LTP116	ltpFR	0	1	-1	FRECKLE	602	n/a	n/a	-1	1.0	1.0	1	upper	Verdana.ttf
545.016	n/a	WORD	272508	wordpools/wasnorm_wordpool.txt	LTP116	ltpFR	0	1	-1	NOSE	957	n/a	n/a	-1	1.0	1.0	1	upper	Verdana.ttf
548.98	n/a	WORD	274490	wordpools/wasnorm_wordpool.txt	LTP116	ltpFR	0	1	-1	FIDDLE	561	n/a	n/a	-1	1.0	1.0	1	upper	Verdana.ttf
553.004	n/a	WORD	276502	wordpools/wasnorm_wordpool.txt	LTP116	ltpFR	0	1	-1	SURGEON	1413	n/a	n/a	-1	1.0	1.0	1	upper	Verdana.ttf
557.012	n/a	WORD	278506	wordpools/wasnorm_wordpool.txt	LTP116	ltpFR	0	1	-1	COLUMN	350	n/a	n/a	-1	1.0	1.0	1	upper	Verdana.ttf
561.078	n/a	WORD	280539	wordpools/wasnorm_wordpool.txt	LTP116	ltpFR	0	1	-1	CHICK	296	n/a	n/a	-1	1.0	1.0	1	upper	Verdana.ttf
565.034	n/a	WORD	282517	wordpools/wasnorm_wordpool.txt	LTP116	ltpFR	0	1	-1	MUFFIN	929	n/a	n/a	-1	1.0	1.0	1	upper	Verdana.ttf
569.032	n/a	WORD	284516	wordpools/wasnorm_wordpool.txt	LTP116	ltpFR	0	1	-1	ELF	525	n/a	n/a	-1	1.0	1.0	1	upper	Verdana.ttf
573.014	n/a	WORD	286507	wordpools/wasnorm_wordpool.txt	LTP116	ltpFR	0	1	-1	BATHTUB	100	n/a	n/a	-1	1.0	1.0	1	upper	Verdana.ttf
578.84	n/a	REC_START	289420	n/a	LTP116	ltpFR	0	1	n/a	n/a	n/a	n/a	n/a	n/a	n/a	n/a	n/a	n/a	n/a
581.502	n/a	REC_WORD	290751	wordpools/wasnorm_wordpool.txt	LTP116	ltpFR	0	1	-1	TAVERN	1437	n/a	n/a	-1	n/a	n/a	n/a	n/a	n/a
582.792	n/a	REC_WORD	291396	wordpools/wasnorm_wordpool.txt	LTP116	ltpFR	0	1	-1	MOAT	903	n/a	n/a	-1	n/a	n/a	n/a	n/a	n/a
584.434	n/a	REC_WORD	292217	wordpools/wasnorm_wordpool.txt	LTP116	ltpFR	0	1	-1	EWE	542	n/a	n/a	-1	n/a	n/a	n/a	n/a	n/a
585.72	n/a	REC_WORD	292860	wordpools/wasnorm_wordpool.txt	LTP116	ltpFR	0	1	-1	STOOL	1386	n/a	n/a	-1	n/a	n/a	n/a	n/a	n/a
587.356	n/a	REC_WORD	293678	wordpools/wasnorm_wordpool.txt	LTP116	ltpFR	0	1	-1	COTTAGE	384	n/a	n/a	-1	n/a	n/a	n/a	n/a	n/a
588.844	n/a	REC_WORD	294422	wordpools/wasnorm_wordpool.txt	LTP116	ltpFR	0	1	-1	BATHTUB	100	n/a	n/a	-1	n/a	n/a	n/a	n/a	n/a
590.67	n/a	REC_WORD	295335	wordpools/wasnorm_wordpool.txt	LTP116	ltpFR	0	1	-1	NOSE	957	n/a	n/a	-1	n/a	n/a	n/a	n/a	n/a
592.676	n/a	REC_WORD	296338	wordpools/wasnorm_wordpool.txt	LTP116	ltpFR	0	1	-1	FRECKLE	602	n/a	n/a	-1	n/a	n/a	n/a	n/a	n/a
594.016	n/a	REC_WORD	297008	wordpools/wasnorm_wordpool.txt	LTP116	ltpFR	0	1	-1	SURGEON	1413	n/a	n/a	-1	n/a	n/a	n/a	n/a	n/a
596.278	n/a	REC_WORD	298139	wordpools/wasnorm_wordpool.txt	LTP116	ltpFR	0	1	-1	MUFFIN	929	n/a	n/a	-1	n/a	n/a	n/a	n/a	n/a
616.828	n/a	REC_WORD	308414	wordpools/wasnorm_wordpool.txt	LTP116	ltpFR	0	1	-1	MOAT	903	n/a	n/a	-1	n/a	n/a	n/a	n/a	n/a
690.27	n/a	WORD	345135	wordpools/wasnorm_wordpool.txt	LTP116	ltpFR	0	2	-1	COLLAR	345	n/a	n/a	-1	1.0	1.0	1	upper	Verdana.ttf
694.262	n/a	WORD	347131	wordpools/wasnorm_wordpool.txt	LTP116	ltpFR	0	2	-1	SATURN	1236	n/a	n/a	-1	1.0	1.0	1	upper	Verdana.ttf
698.368	n/a	WORD	349184	wordpools/wasnorm_wordpool.txt	LTP116	ltpFR	0	2	-1	IGLOO	734	n/a	n/a	-1	1.0	1.0	1	upper	Verdana.ttf
702.458	n/a	WORD	351229	wordpools/wasnorm_wordpool.txt	LTP116	ltpFR	0	2	-1	TUNA	1518	n/a	n/a	-1	1.0	1.0	1	upper	Verdana.ttf
706.348	n/a	WORD	353174	wordpools/wasnorm_wordpool.txt	LTP116	ltpFR	0	2	-1	BALLOT	76	n/a	n/a	-1	1.0	1.0	1	upper	Verdana.ttf
710.498	n/a	WORD	355249	wordpools/wasnorm_wordpool.txt	LTP116	ltpFR	0	2	-1	MAJOR	859	n/a	n/a	-1	1.0	1.0	1	upper	Verdana.ttf
714.314	n/a	WORD	357157	wordpools/wasnorm_wordpool.txt	LTP116	ltpFR	0	2	-1	PARENT	1013	n/a	n/a	-1	1.0	1.0	1	upper	Verdana.ttf
718.188	n/a	WORD	359094	wordpools/wasnorm_wordpool.txt	LTP116	ltpFR	0	2	-1	ORGAN	984	n/a	n/a	-1	1.0	1.0	1	upper	Verdana.ttf
722.318	n/a	WORD	361159	wordpools/wasnorm_wordpool.txt	LTP116	ltpFR	0	2	-1	STOMACH	1384	n/a	n/a	-1	1.0	1.0	1	upper	Verdana.ttf
726.136	n/a	WORD	363068	wordpools/wasnorm_wordpool.txt	LTP116	ltpFR	0	2	-1	SCRIBBLE	1256	n/a	n/a	-1	1.0	1.0	1	upper	Verdana.ttf
729.976	n/a	WORD	364988	wordpools/wasnorm_wordpool.txt	LTP116	ltpFR	0	2	-1	ESSAY	540	n/a	n/a	-1	1.0	1.0	1	upper	Verdana.ttf
733.934	n/a	WORD	366967	wordpools/wasnorm_wordpool.txt	LTP116	ltpFR	0	2	-1	BUGGY	188	n/a	n/a	-1	1.0	1.0	1	upper	Verdana.ttf
738.132	n/a	WORD	369066	wordpools/wasnorm_wordpool.txt	LTP116	ltpFR	0	2	-1	MILITARY	894	n/a	n/a	-1	1.0	1.0	1	upper	Verdana.ttf
742.18	n/a	WORD	371090	wordpools/wasnorm_wordpool.txt	LTP116	ltpFR	0	2	-1	BLOUSE	139	n/a	n/a	-1	1.0	1.0	1	upper	Verdana.ttf
746.328	n/a	WORD	373164	wordpools/wasnorm_wordpool.txt	LTP116	ltpFR	0	2	-1	CHIEF	298	n/a	n/a	-1	1.0	1.0	1	upper	Verdana.ttf
750.368	n/a	WORD	375184	wordpools/wasnorm_wordpool.txt	LTP116	ltpFR	0	2	-1	CHAIRPERSON	275	n/a	n/a	-1	1.0	1.0	1	upper	Verdana.ttf
756.284	n/a	REC_START	378142	n/a	LTP116	ltpFR	0	2	n/a	n/a	n/a	n/a	n/a	n/a	n/a	n/a	n/a	n/a	n/a
759.002	n/a	REC_WORD	379501	wordpools/wasnorm_wordpool.txt	LTP116	ltpFR	0	2	-1	CHIEF	298	n/a	n/a	-1	n/a	n/a	n/a	n/a	n/a
761.08	n/a	REC_WORD	380540	wordpools/wasnorm_wordpool.txt	LTP116	ltpFR	0	2	-1	CHAIRPERSON	275	n/a	n/a	-1	n/a	n/a	n/a	n/a	n/a
763.632	n/a	REC_WORD	381816	wordpools/wasnorm_wordpool.txt	LTP116	ltpFR	0	2	-1	BALLOT	76	n/a	n/a	-1	n/a	n/a	n/a	n/a	n/a
765.024	n/a	REC_WORD	382512	wordpools/wasnorm_wordpool.txt	LTP116	ltpFR	0	2	-1	ESSAY	540	n/a	n/a	-1	n/a	n/a	n/a	n/a	n/a
766.606	n/a	REC_WORD	383303	wordpools/wasnorm_wordpool.txt	LTP116	ltpFR	0	2	-1	SCRIBBLE	1256	n/a	n/a	-1	n/a	n/a	n/a	n/a	n/a
768.922	n/a	REC_WORD	384461	wordpools/wasnorm_wordpool.txt	LTP116	ltpFR	0	2	-1	PARENT	1013	n/a	n/a	-1	n/a	n/a	n/a	n/a	n/a
771.656	n/a	REC_WORD	385828	wordpools/wasnorm_wordpool.txt	LTP116	ltpFR	0	2	-1	TUNA	1518	n/a	n/a	-1	n/a	n/a	n/a	n/a	n/a
783.526	n/a	REC_WORD	391763	wordpools/wasnorm_wordpool.txt	LTP116	ltpFR	0	2	-1	MILITARY	894	n/a	n/a	-1	n/a	n/a	n/a	n/a	n/a
786.402	n/a	REC_WORD	393201	wordpools/wasnorm_wordpool.txt	LTP116	ltpFR	0	2	-1	ORGAN	984	n/a	n/a	-1	n/a	n/a	n/a	n/a	n/a
787.56	n/a	REC_WORD	393780	wordpools/wasnorm_wordpool.txt	LTP116	ltpFR	0	2	-1	STOMACH	1384	n/a	n/a	-1	n/a	n/a	n/a	n/a	n/a
839.858	n/a	WORD	419929	wordpools/wasnorm_wordpool.txt	LTP116	ltpFR	0	3	-1	OVEN	991	n/a	n/a	-1	1.0	1.0	1	upper	Verdana.ttf
844.024	n/a	WORD	422012	wordpools/wasnorm_wordpool.txt	LTP116	ltpFR	0	3	-1	BUTTON	207	n/a	n/a	-1	1.0	1.0	1	upper	Verdana.ttf
847.872	n/a	WORD	423936	wordpools/wasnorm_wordpool.txt	LTP116	ltpFR	0	3	-1	ANKLE	24	n/a	n/a	-1	1.0	1.0	1	upper	Verdana.ttf
851.94	n/a	WORD	425970	wordpools/wasnorm_wordpool.txt	LTP116	ltpFR	0	3	-1	MARBLE	867	n/a	n/a	-1	1.0	1.0	1	upper	Verdana.ttf
856.112	n/a	WORD	428056	wordpools/wasnorm_wordpool.txt	LTP116	ltpFR	0	3	-1	RUBY	1214	n/a	n/a	-1	1.0	1.0	1	upper	Verdana.ttf
859.978	n/a	WORD	429989	wordpools/wasnorm_wordpool.txt	LTP116	ltpFR	0	3	-1	DOORBELL	487	n/a	n/a	-1	1.0	1.0	1	upper	Verdana.ttf
864.144	n/a	WORD	432072	wordpools/wasnorm_wordpool.txt	LTP116	ltpFR	0	3	-1	MATTRESS	879	n/a	n/a	-1	1.0	1.0	1	upper	Verdana.ttf
868.118	n/a	WORD	434059	wordpools/wasnorm_wordpool.txt	LTP116	ltpFR	0	3	-1	SHED	1277	n/a	n/a	-1	1.0	1.0	1	upper	Verdana.ttf
872.316	n/a	WORD	436158	wordpools/wasnorm_wordpool.txt	LTP116	ltpFR	0	3	-1	BEAVER	109	n/a	n/a	-1	1.0	1.0	1	upper	Verdana.ttf
876.322	n/a	WORD	438161	wordpools/wasnorm_wordpool.txt	LTP116	ltpFR	0	3	-1	KITCHEN	778	n/a	n/a	-1	1.0	1.0	1	upper	Verdana.ttf
880.42	n/a	WORD	440210	wordpools/wasnorm_wordpool.txt	LTP116	ltpFR	0	3	-1	RUM	1217	n/a	n/a	-1	1.0	1.0	1	upper	Verdana.ttf
884.586	n/a	WORD	442293	wordpools/wasnorm_wordpool.txt	LTP116	ltpFR	0	3	-1	FLASK	576	n/a	n/a	-1	1.0	1.0	1	upper	Verdana.ttf
888.504	n/a	WORD	444252	wordpools/wasnorm_wordpool.txt	LTP116	ltpFR	0	3	-1	CLOUD	328	n/a	n/a	-1	1.0	1.0	1	upper	Verdana.ttf
892.45	n/a	WORD	446225	wordpools/wasnorm_wordpool.txt	LTP116	ltpFR	0	3	-1	LIBRARY	816	n/a	n/a	-1	1.0	1.0	1	upper	Verdana.ttf
896.566	n/a	WORD	448283	wordpools/wasnorm_wordpool.txt	LTP116	ltpFR	0	3	-1	SHOELACE	1289	n/a	n/a	-1	1.0	1.0	1	upper	Verdana.ttf
900.758	n/a	WORD	450379	wordpools/wasnorm_wordpool.txt	LTP116	ltpFR	0	3	-1	OUTFIT	988	n/a	n/a	-1	1.0	1.0	1	upper	Verdana.ttf
906.724	n/a	REC_START	453362	n/a	LTP116	ltpFR	0	3	n/a	n/a	n/a	n/a	n/a	n/a	n/a	n/a	n/a	n/a	n/a
909.954	n/a	REC_WORD	454977	wordpools/wasnorm_wordpool.txt	LTP116	ltpFR	0	3	-1	OUTFIT	988	n/a	n/a	-1	n/a	n/a	n/a	n/a	n/a
911.226	n/a	REC_WORD	455613	wordpools/wasnorm_wordpool.txt	LTP116	ltpFR	0	3	-1	SHOELACE	1289	n/a	n/a	-1	n/a	n/a	n/a	n/a	n/a
912.792	n/a	REC_WORD	456396	wordpools/wasnorm_wordpool.txt	LTP116	ltpFR	0	3	-1	ANKLE	24	n/a	n/a	-1	n/a	n/a	n/a	n/a	n/a
914.852	n/a	REC_WORD	457426	wordpools/wasnorm_wordpool.txt	LTP116	ltpFR	0	3	-1	RUM	1217	n/a	n/a	-1	n/a	n/a	n/a	n/a	n/a
916.612	n/a	REC_WORD	458306	wordpools/wasnorm_wordpool.txt	LTP116	ltpFR	0	3	-1	BEAVER	109	n/a	n/a	-1	n/a	n/a	n/a	n/a	n/a
918.22	n/a	REC_WORD	459110	wordpools/wasnorm_wordpool.txt	LTP116	ltpFR	0	3	-1	SHED	1277	n/a	n/a	-1	n/a	n/a	n/a	n/a	n/a
922.048	n/a	REC_WORD	461024	wordpools/wasnorm_wordpool.txt	LTP116	ltpFR	0	3	-1	OVEN	991	n/a	n/a	-1	n/a	n/a	n/a	n/a	n/a
923.174	n/a	REC_WORD	461587	wordpools/wasnorm_wordpool.txt	LTP116	ltpFR	0	3	-1	KITCHEN	778	n/a	n/a	-1	n/a	n/a	n/a	n/a	n/a
925.85	n/a	REC_WORD	462925	wordpools/wasnorm_wordpool.txt	LTP116	ltpFR	0	3	-1	MARBLE	867	n/a	n/a	-1	n/a	n/a	n/a	n/a	n/a
929.85	n/a	REC_WORD	464925	wordpools/wasnorm_wordpool.txt	LTP116	ltpFR	0	3	-1	DOORBELL	487	n/a	n/a	-1	n/a	n/a	n/a	n/a	n/a
990.854	n/a	WORD	495427	wordpools/wasnorm_wordpool.txt	LTP116	ltpFR	0	4	-1	MAYONNAISE	880	n/a	n/a	-1	1.0	1.0	1	upper	Verdana.ttf
994.878	n/a	WORD	497439	wordpools/wasnorm_wordpool.txt	LTP116	ltpFR	0	4	-1	KETCHUP	771	n/a	n/a	-1	1.0	1.0	1	upper	Verdana.ttf
998.878	n/a	WORD	499439	wordpools/wasnorm_wordpool.txt	LTP116	ltpFR	0	4	-1	TRAY	1498	n/a	n/a	-1	1.0	1.0	1	upper	Verdana.ttf
1002.868	n/a	WORD	501434	wordpools/wasnorm_wordpool.txt	LTP116	ltpFR	0	4	-1	KEY	773	n/a	n/a	-1	1.0	1.0	1	upper	Verdana.ttf
1006.908	n/a	WORD	503454	wordpools/wasnorm_wordpool.txt	LTP116	ltpFR	0	4	-1	MECHANIC	884	n/a	n/a	-1	1.0	1.0	1	upper	Verdana.ttf
1010.84	n/a	WORD	505420	wordpools/wasnorm_wordpool.txt	LTP116	ltpFR	0	4	-1	SHEEP	1278	n/a	n/a	-1	1.0	1.0	1	upper	Verdana.ttf
1014.706	n/a	WORD	507353	wordpools/wasnorm_wordpool.txt	LTP116	ltpFR	0	4	-1	BEETLE	116	n/a	n/a	-1	1.0	1.0	1	upper	Verdana.ttf
1018.672	n/a	WORD	509336	wordpools/wasnorm_wordpool.txt	LTP116	ltpFR	0	4	-1	CLOVE	329	n/a	n/a	-1	1.0	1.0	1	upper	Verdana.ttf
1022.636	n/a	WORD	511318	wordpools/wasnorm_wordpool.txt	LTP116	ltpFR	0	4	-1	COCOON	339	n/a	n/a	-1	1.0	1.0	1	upper	Verdana.ttf
1026.502	n/a	WORD	513251	wordpools/wasnorm_wordpool.txt	LTP116	ltpFR	0	4	-1	FAMILY	550	n/a	n/a	-1	1.0	1.0	1	upper	Verdana.ttf
1030.534	n/a	WORD	515267	wordpools/wasnorm_wordpool.txt	LTP116	ltpFR	0	4	-1	LUNCH	849	n/a	n/a	-1	1.0	1.0	1	upper	Verdana.ttf
1034.724	n/a	WORD	517362	wordpools/wasnorm_wordpool.txt	LTP116	ltpFR	0	4	-1	DILL	465	n/a	n/a	-1	1.0	1.0	1	upper	Verdana.ttf
1038.598	n/a	WORD	519299	wordpools/wasnorm_wordpool.txt	LTP116	ltpFR	0	4	-1	SNAKE	1333	n/a	n/a	-1	1.0	1.0	1	upper	Verdana.ttf
1042.648	n/a	WORD	521324	wordpools/wasnorm_wordpool.txt	LTP116	ltpFR	0	4	-1	SUIT	1402	n/a	n/a	-1	1.0	1.0	1	upper	Verdana.ttf
1046.788	n/a	WORD	523394	wordpools/wasnorm_wordpool.txt	LTP116	ltpFR	0	4	-1	POLYESTER	1100	n/a	n/a	-1	1.0	1.0	1	upper	Verdana.ttf
1050.628	n/a	WORD	525314	wordpools/wasnorm_wordpool.txt	LTP116	ltpFR	0	4	-1	ANT	25	n/a	n/a	-1	1.0	1.0	1	upper	Verdana.ttf
1056.51	n/a	REC_START	528255	n/a	LTP116	ltpFR	0	4	n/a	n/a	n/a	n/a	n/a	n/a	n/a	n/a	n/a	n/a	n/a
1059.506	n/a	REC_WORD	529753	wordpools/wasnorm_wordpool.txt	LTP116	ltpFR	0	4	-1	ANT	25	n/a	n/a	-1	n/a	n/a	n/a	n/a	n/a
1060.606	n/a	REC_WORD	530303	wordpools/wasnorm_wordpool.txt	LTP116	ltpFR	0	4	-1	POLYESTER	1100	n/a	n/a	-1	n/a	n/a	n/a	n/a	n/a
1062.158	n/a	REC_WORD	531079	wordpools/wasnorm_wordpool.txt	LTP116	ltpFR	0	4	-1	SUIT	1402	n/a	n/a	-1	n/a	n/a	n/a	n/a	n/a
1063.98	n/a	REC_WORD	531990	wordpools/wasnorm_wordpool.txt	LTP116	ltpFR	0	4	-1	LUNCH	849	n/a	n/a	-1	n/a	n/a	n/a	n/a	n/a
1065.284	n/a	REC_WORD	532642	wordpools/wasnorm_wordpool.txt	LTP116	ltpFR	0	4	-1	MAYONNAISE	880	n/a	n/a	-1	n/a	n/a	n/a	n/a	n/a
1066.648	n/a	REC_WORD	533324	wordpools/wasnorm_wordpool.txt	LTP116	ltpFR	0	4	-1	KETCHUP	771	n/a	n/a	-1	n/a	n/a	n/a	n/a	n/a
1070.664	n/a	REC_WORD	535332	wordpools/wasnorm_wordpool.txt	LTP116	ltpFR	0	4	-1	FAMILY	550	n/a	n/a	-1	n/a	n/a	n/a	n/a	n/a
1073.848	n/a	REC_WORD	536924	wordpools/wasnorm_wordpool.txt	LTP116	ltpFR	0	4	-1	COCOON	339	n/a	n/a	-1	n/a	n/a	n/a	n/a	n/a
1117.32	n/a	REC_WORD	558660	wordpools/wasnorm_wordpool.txt	LTP116	ltpFR	0	4	-1	DILL	465	n/a	n/a	-1	n/a	n/a	n/a	n/a	n/a
1496.142	n/a	WORD	748071	wordpools/wasnorm_wordpool.txt	LTP116	ltpFR	0	5	0	PRAIRIE	1118	n/a	n/a	n/a	0.57763671875	0.412841796875	1	upper	zerothre.ttf
1499.166	n/a	SLOW_MSG	749583	n/a	LTP116	ltpFR	0	5	n/a	n/a	n/a	n/a	n/a	n/a	n/a	n/a	n/a	n/a	n/a
1501.674	n/a	WORD	750837	wordpools/wasnorm_wordpool.txt	LTP116	ltpFR	0	5	0	GANG	619	n/a	n/a	1	0.57763671875	0.412841796875	1	upper	zerothre.ttf
1505.664	n/a	WORD	752832	wordpools/wasnorm_wordpool.txt	LTP116	ltpFR	0	5	0	DUST	508	n/a	n/a	0	0.57763671875	0.412841796875	1	upper	zerothre.ttf
1509.806	n/a	WORD	754903	wordpools/wasnorm_wordpool.txt	LTP116	ltpFR	0	5	0	PEN	1041	n/a	n/a	0	0.57763671875	0.412841796875	1	upper	zerothre.ttf
1513.904	n/a	WORD	756952	wordpools/wasnorm_wordpool.txt	LTP116	ltpFR	0	5	0	ERASER	538	n/a	n/a	0	0.57763671875	0.412841796875	1	upper	zerothre.ttf
1518.02	n/a	WORD	759010	wordpools/wasnorm_wordpool.txt	LTP116	ltpFR	0	5	0	TOY	1492	n/a	n/a	0	0.57763671875	0.412841796875	1	upper	zerothre.ttf
1522.118	n/a	WORD	761059	wordpools/wasnorm_wordpool.txt	LTP116	ltpFR	0	5	0	ROOT	1210	n/a	n/a	0	0.57763671875	0.412841796875	1	upper	zerothre.ttf
1526.174	n/a	WORD	763087	wordpools/wasnorm_wordpool.txt	LTP116	ltpFR	0	5	0	CLOTHES	327	n/a	n/a	1	0.57763671875	0.412841796875	1	upper	zerothre.ttf
1530.382	n/a	WORD	765191	wordpools/wasnorm_wordpool.txt	LTP116	ltpFR	0	5	0	GLASSES	640	n/a	n/a	0	0.57763671875	0.412841796875	1	upper	zerothre.ttf
1534.398	n/a	WORD	767199	wordpools/wasnorm_wordpool.txt	LTP116	ltpFR	0	5	0	SOCIETY	1338	n/a	n/a	1	0.57763671875	0.412841796875	1	upper	zerothre.ttf
1538.554	n/a	WORD	769277	wordpools/wasnorm_wordpool.txt	LTP116	ltpFR	0	5	0	WALRUS	1585	n/a	n/a	1	0.57763671875	0.412841796875	1	upper	zerothre.ttf
1542.37	n/a	WORD	771185	wordpools/wasnorm_wordpool.txt	LTP116	ltpFR	0	5	0	PORCUPINE	1107	n/a	n/a	1	0.57763671875	0.412841796875	1	upper	zerothre.ttf
1546.492	n/a	WORD	773246	wordpools/wasnorm_wordpool.txt	LTP116	ltpFR	0	5	0	HOME	712	n/a	n/a	1	0.57763671875	0.412841796875	1	upper	zerothre.ttf
1550.468	n/a	WORD	775234	wordpools/wasnorm_wordpool.txt	LTP116	ltpFR	0	5	0	DESK	452	n/a	n/a	1	0.57763671875	0.412841796875	1	upper	zerothre.ttf
1554.65	n/a	WORD	777325	wordpools/wasnorm_wordpool.txt	LTP116	ltpFR	0	5	0	SEAGULL	1261	n/a	n/a	1	0.57763671875	0.412841796875	1	upper	zerothre.ttf
1558.708	n/a	WORD	779354	wordpools/wasnorm_wordpool.txt	LTP116	ltpFR	0	5	0	PARROT	1015	n/a	n/a	0	0.57763671875	0.412841796875	1	upper	zerothre.ttf
1564.438	n/a	REC_START	782219	n/a	LTP116	ltpFR	0	5	n/a	n/a	n/a	n/a	n/a	n/a	n/a	n/a	n/a	n/a	n/a
1567.17	n/a	REC_WORD	783585	wordpools/wasnorm_wordpool.txt	LTP116	ltpFR	0	5	0	PARROT	1015	n/a	n/a	0	n/a	n/a	n/a	n/a	n/a
1567.942	n/a	REC_WORD	783971	wordpools/wasnorm_wordpool.txt	LTP116	ltpFR	0	5	0	SEAGULL	1261	n/a	n/a	1	n/a	n/a	n/a	n/a	n/a
1569.306	n/a	REC_WORD	784653	wordpools/wasnorm_wordpool.txt	LTP116	ltpFR	0	5	0	GLASSES	640	n/a	n/a	0	n/a	n/a	n/a	n/a	n/a
1570.428	n/a	REC_WORD	785214	wordpools/wasnorm_wordpool.txt	LTP116	ltpFR	0	5	0	SOCIETY	1338	n/a	n/a	1	n/a	n/a	n/a	n/a	n/a
1573.002	n/a	REC_WORD	786501	wordpools/wasnorm_wordpool.txt	LTP116	ltpFR	0	5	0	HOME	712	n/a	n/a	1	n/a	n/a	n/a	n/a	n/a
1574.68	n/a	REC_WORD	787340	wordpools/wasnorm_wordpool.txt	LTP116	ltpFR	0	5	0	GANG	619	n/a	n/a	1	n/a	n/a	n/a	n/a	n/a
1578.174	n/a	REC_WORD	789087	wordpools/wasnorm_wordpool.txt	LTP116	ltpFR	0	5	0	DESK	452	n/a	n/a	1	n/a	n/a	n/a	n/a	n/a
1580.562	n/a	REC_WORD	790281	wordpools/wasnorm_wordpool.txt	LTP116	ltpFR	0	5	0	PEN	1041	n/a	n/a	0	n/a	n/a	n/a	n/a	n/a
1585.438	n/a	REC_WORD	792719	wordpools/wasnorm_wordpool.txt	LTP116	ltpFR	0	5	0	PRAIRIE	1118	n/a	n/a	n/a	n/a	n/a	n/a	n/a	n/a
1586.854	n/a	REC_WORD	793427	wordpools/wasnorm_wordpool.txt	LTP116	ltpFR	0	5	0	ROOT	1210	n/a	n/a	0	n/a	n/a	n/a	n/a	n/a
1658.118	n/a	WORD	829059	wordpools/wasnorm_wordpool.txt	LTP116	ltpFR	0	6	0	SALMON	1227	n/a	n/a	0	0.57763671875	0.412841796875	1	upper	zerothre.ttf
1662.134	n/a	WORD	831067	wordpools/wasnorm_wordpool.txt	LTP116	ltpFR	0	6	0	PORPOISE	1109	n/a	n/a	0	0.57763671875	0.412841796875	1	upper	zerothre.ttf
1666.108	n/a	WORD	833054	wordpools/wasnorm_wordpool.txt	LTP116	ltpFR	0	6	0	LIP	828	n/a	n/a	0	0.57763671875	0.412841796875	1	upper	zerothre.ttf
1669.99	n/a	WORD	834995	wordpools/wasnorm_wordpool.txt	LTP116	ltpFR	0	6	0	SPIT	1354	n/a	n/a	0	0.57763671875	0.412841796875	1	upper	zerothre.ttf
1673.964	n/a	WORD	836982	wordpools/wasnorm_wordpool.txt	LTP116	ltpFR	0	6	0	KEYBOARD	774	n/a	n/a	0	0.57763671875	0.412841796875	1	upper	zerothre.ttf
1678.096	n/a	WORD	839048	wordpools/wasnorm_wordpool.txt	LTP116	ltpFR	0	6	0	HARP	689	n/a	n/a	1	0.57763671875	0.412841796875	1	upper	zerothre.ttf
1682.12	n/a	WORD	841060	wordpools/wasnorm_wordpool.txt	LTP116	ltpFR	0	6	0	CAB	209	n/a	n/a	1	0.57763671875	0.412841796875	1	upper	zerothre.ttf
1686.194	n/a	WORD	843097	wordpools/wasnorm_wordpool.txt	LTP116	ltpFR	0	6	0	BROOK	177	n/a	n/a	1	0.57763671875	0.412841796875	1	upper	zerothre.ttf
1690.25	n/a	WORD	845125	wordpools/wasnorm_wordpool.txt	LTP116	ltpFR	0	6	0	NERVE	944	n/a	n/a	0	0.57763671875	0.412841796875	1	upper	zerothre.ttf
1694.29	n/a	WORD	847145	wordpools/wasnorm_wordpool.txt	LTP116	ltpFR	0	6	0	BENCH	121	n/a	n/a	1	0.57763671875	0.412841796875	1	upper	zerothre.ttf
1698.456	n/a	WORD	849228	wordpools/wasnorm_wordpool.txt	LTP116	ltpFR	0	6	0	FINGER	567	n/a	n/a	0	0.57763671875	0.412841796875	1	upper	zerothre.ttf
1702.614	n/a	WORD	851307	wordpools/wasnorm_wordpool.txt	LTP116	ltpFR	0	6	0	VITAMIN	1574	n/a	n/a	0	0.57763671875	0.412841796875	1	upper	zerothre.ttf
1706.63	n/a	WORD	853315	wordpools/wasnorm_wordpool.txt	LTP116	ltpFR	0	6	0	WAVE	1596	n/a	n/a	1	0.57763671875	0.412841796875	1	upper	zerothre.ttf
1710.72	n/a	WORD	855360	wordpools/wasnorm_wordpool.txt	LTP116	ltpFR	0	6	0	VOLUNTEER	1577	n/a	n/a	1	0.57763671875	0.412841796875	1	upper	zerothre.ttf
1714.734	n/a	WORD	857367	wordpools/wasnorm_wordpool.txt	LTP116	ltpFR	0	6	0	GORILLA	650	n/a	n/a	1	0.57763671875	0.412841796875	1	upper	zerothre.ttf
1718.924	n/a	WORD	859462	wordpools/wasnorm_wordpool.txt	LTP116	ltpFR	0	6	0	MITTEN	902	n/a	n/a	0	0.57763671875	0.412841796875	1	upper	zerothre.ttf
1724.94	n/a	REC_START	862470	n/a	LTP116	ltpFR	0	6	n/a	n/a	n/a	n/a	n/a	n/a	n/a	n/a	n/a	n/a	n/a
1729.218	n/a	REC_WORD	864609	wordpools/wasnorm_wordpool.txt	LTP116	ltpFR	0	6	0	BROOK	177	n/a	n/a	1	n/a	n/a	n/a	n/a	n/a
1730.472	n/a	REC_WORD	865236	wordpools/wasnorm_wordpool.txt	LTP116	ltpFR	0	6	0	MITTEN	902	n/a	n/a	0	n/a	n/a	n/a	n/a	n/a
1731.882	n/a	REC_WORD	865941	wordpools/wasnorm_wordpool.txt	LTP116	ltpFR	0	6	0	GORILLA	650	n/a	n/a	1	n/a	n/a	n/a	n/a	n/a
1733.196	n/a	REC_WORD	866598	wordpools/wasnorm_wordpool.txt	LTP116	ltpFR	0	6	0	FINGER	567	n/a	n/a	0	n/a	n/a	n/a	n/a	n/a
1735.038	n/a	REC_WORD	867519	wordpools/wasnorm_wordpool.txt	LTP116	ltpFR	0	6	0	NERVE	944	n/a	n/a	0	n/a	n/a	n/a	n/a	n/a
1741.408	n/a	REC_WORD	870704	wordpools/wasnorm_wordpool.txt	LTP116	ltpFR	0	6	0	LIP	828	n/a	n/a	0	n/a	n/a	n/a	n/a	n/a
1742.74	n/a	REC_WORD	871370	wordpools/wasnorm_wordpool.txt	LTP116	ltpFR	0	6	0	SPIT	1354	n/a	n/a	0	n/a	n/a	n/a	n/a	n/a
1750.536	n/a	REC_WORD	875268	wordpools/wasnorm_wordpool.txt	LTP116	ltpFR	0	6	0	VOLUNTEER	1577	n/a	n/a	1	n/a	n/a	n/a	n/a	n/a
1803.8	n/a	WORD	901900	wordpools/wasnorm_wordpool.txt	LTP116	ltpFR	0	7	0	SARDINE	1235	n/a	n/a	0	0.57763671875	0.412841796875	1	upper	zerothre.ttf
1807.814	n/a	WORD	903907	wordpools/wasnorm_wordpool.txt	LTP116	ltpFR	0	7	0	SEAFOOD	1260	n/a	n/a	0	0.57763671875	0.412841796875	1	upper	zerothre.ttf
1811.714	n/a	WORD	905857	wordpools/wasnorm_wordpool.txt	LTP116	ltpFR	0	7	0	DOCK	477	n/a	n/a	1	0.57763671875	0.412841796875	1	upper	zerothre.ttf
1815.546	n/a	WORD	907773	wordpools/wasnorm_wordpool.txt	LTP116	ltpFR	0	7	0	CAKE	219	n/a	n/a	1	0.57763671875	0.412841796875	1	upper	zerothre.ttf
1819.444	n/a	WORD	909722	wordpools/wasnorm_wordpool.txt	LTP116	ltpFR	0	7	0	SKATE	1313	n/a	n/a	0	0.57763671875	0.412841796875	1	upper	zerothre.ttf
1823.31	n/a	WORD	911655	wordpools/wasnorm_wordpool.txt	LTP116	ltpFR	0	7	0	ICEBERG	731	n/a	n/a	1	0.57763671875	0.412841796875	1	upper	zerothre.ttf
1827.242	n/a	WORD	913621	wordpools/wasnorm_wordpool.txt	LTP116	ltpFR	0	7	0	FOREHEAD	592	n/a	n/a	0	0.57763671875	0.412841796875	1	upper	zerothre.ttf
1831.34	n/a	WORD	915670	wordpools/wasnorm_wordpool.txt	LTP116	ltpFR	0	7	0	TREAT	1501	n/a	n/a	0	0.57763671875	0.412841796875	1	upper	zerothre.ttf
1835.346	n/a	WORD	917673	wordpools/wasnorm_wordpool.txt	LTP116	ltpFR	0	7	0	OAR	966	n/a	n/a	1	0.57763671875	0.412841796875	1	upper	zerothre.ttf
1839.314	n/a	WORD	919657	wordpools/wasnorm_wordpool.txt	LTP116	ltpFR	0	7	0	BIOLOGIST	128	n/a	n/a	1	0.57763671875	0.412841796875	1	upper	zerothre.ttf
1843.462	n/a	WORD	921731	wordpools/wasnorm_wordpool.txt	LTP116	ltpFR	0	7	0	COURSE	390	n/a	n/a	1	0.57763671875	0.412841796875	1	upper	zerothre.ttf
1847.652	n/a	WORD	923826	wordpools/wasnorm_wordpool.txt	LTP116	ltpFR	0	7	0	ROBBER	1197	n/a	n/a	1	0.57763671875	0.412841796875	1	upper	zerothre.ttf
1851.734	n/a	WORD	925867	wordpools/wasnorm_wordpool.txt	LTP116	ltpFR	0	7	0	GUARD	667	n/a	n/a	1	0.57763671875	0.412841796875	1	upper	zerothre.ttf
1855.792	n/a	WORD	927896	wordpools/wasnorm_wordpool.txt	LTP116	ltpFR	0	7	0	TORNADO	1485	n/a	n/a	1	0.57763671875	0.412841796875	1	upper	zerothre.ttf
1859.674	n/a	WORD	929837	wordpools/wasnorm_wordpool.txt	LTP116	ltpFR	0	7	0	ATTORNEY	58	n/a	n/a	1	0.57763671875	0.412841796875	1	upper	zerothre.ttf
1863.714	n/a	WORD	931857	wordpools/wasnorm_wordpool.txt	LTP116	ltpFR	0	7	0	HANDCUFFS	685	n/a	n/a	0	0.57763671875	0.412841796875	1	upper	zerothre.ttf
1869.714	n/a	REC_START	934857	n/a	LTP116	ltpFR	0	7	n/a	n/a	n/a	n/a	n/a	n/a	n/a	n/a	n/a	n/a	n/a
1873.254	n/a	REC_WORD	936627	wordpools/wasnorm_wordpool.txt	LTP116	ltpFR	0	7	0	OAR	966	n/a	n/a	1	n/a	n/a	n/a	n/a	n/a
1874.526	n/a	REC_WORD	937263	wordpools/wasnorm_wordpool.txt	LTP116	ltpFR	0	7	0	BIOLOGIST	128	n/a	n/a	1	n/a	n/a	n/a	n/a	n/a
1876.354	n/a	REC_WORD	938177	wordpools/wasnorm_wordpool.txt	LTP116	ltpFR	0	7	0	ATTORNEY	58	n/a	n/a	1	n/a	n/a	n/a	n/a	n/a
1877.934	n/a	REC_WORD	938967	wordpools/wasnorm_wordpool.txt	LTP116	ltpFR	0	7	0	HANDCUFFS	685	n/a	n/a	0	n/a	n/a	n/a	n/a	n/a
1888.3	n/a	REC_WORD	944150	wordpools/wasnorm_wordpool.txt	LTP116	ltpFR	0	7	0	ICEBERG	731	n/a	n/a	1	n/a	n/a	n/a	n/a	n/a
1889.576	n/a	REC_WORD	944788	wordpools/wasnorm_wordpool.txt	LTP116	ltpFR	0	7	0	CAKE	219	n/a	n/a	1	n/a	n/a	n/a	n/a	n/a
1900.086	n/a	REC_WORD	950043	wordpools/wasnorm_wordpool.txt	LTP116	ltpFR	0	7	0	GUARD	667	n/a	n/a	1	n/a	n/a	n/a	n/a	n/a
1917.644	n/a	REC_WORD	958822	wordpools/wasnorm_wordpool.txt	LTP116	ltpFR	0	7	0	FOREHEAD	592	n/a	n/a	0	n/a	n/a	n/a	n/a	n/a
1948.438	n/a	WORD	974219	wordpools/wasnorm_wordpool.txt	LTP116	ltpFR	0	8	0	LASH	802	n/a	n/a	0	0.57763671875	0.412841796875	1	upper	zerothre.ttf
1952.254	n/a	WORD	976127	wordpools/wasnorm_wordpool.txt	LTP116	ltpFR	0	8	0	COBBLER	335	n/a	n/a	1	0.57763671875	0.412841796875	1	upper	zerothre.ttf
1956.254	n/a	WORD	978127	wordpools/wasnorm_wordpool.txt	LTP116	ltpFR	0	8	0	STAKE	1368	n/a	n/a	0	0.57763671875	0.412841796875	1	upper	zerothre.ttf
1960.392	n/a	WORD	980196	wordpools/wasnorm_wordpool.txt	LTP116	ltpFR	0	8	0	SPATULA	1348	n/a	n/a	0	0.57763671875	0.412841796875	1	upper	zerothre.ttf
1964.568	n/a	WORD	982284	wordpools/wasnorm_wordpool.txt	LTP116	ltpFR	0	8	0	BLACKBERRY	132	n/a	n/a	0	0.57763671875	0.412841796875	1	upper	zerothre.ttf
1968.532	n/a	WORD	984266	wordpools/wasnorm_wordpool.txt	LTP116	ltpFR	0	8	0	BAND	78	n/a	n/a	1	0.57763671875	0.412841796875	1	upper	zerothre.ttf
1972.74	n/a	WORD	986370	wordpools/wasnorm_wordpool.txt	LTP116	ltpFR	0	8	0	HELICOPTER	701	n/a	n/a	1	0.57763671875	0.412841796875	1	upper	zerothre.ttf
1976.838	n/a	WORD	988419	wordpools/wasnorm_wordpool.txt	LTP116	ltpFR	0	8	0	OMELET	976	n/a	n/a	0	0.57763671875	0.412841796875	1	upper	zerothre.ttf
1980.678	n/a	WORD	990339	wordpools/wasnorm_wordpool.txt	LTP116	ltpFR	0	8	0	ENGINEER	536	n/a	n/a	1	0.57763671875	0.412841796875	1	upper	zerothre.ttf
1984.878	n/a	WORD	992439	wordpools/wasnorm_wordpool.txt	LTP116	ltpFR	0	8	0	CABOOSE	214	n/a	n/a	1	0.57763671875	0.412841796875	1	upper	zerothre.ttf
1989.068	n/a	WORD	994534	wordpools/wasnorm_wordpool.txt	LTP116	ltpFR	0	8	0	BULLET	194	n/a	n/a	0	0.57763671875	0.412841796875	1	upper	zerothre.ttf
1992.916	n/a	WORD	996458	wordpools/wasnorm_wordpool.txt	LTP116	ltpFR	0	8	0	PISTOL	1075	n/a	n/a	0	0.57763671875	0.412841796875	1	upper	zerothre.ttf
1996.958	n/a	WORD	998479	wordpools/wasnorm_wordpool.txt	LTP116	ltpFR	0	8	0	BALCONY	72	n/a	n/a	1	0.57763671875	0.412841796875	1	upper	zerothre.ttf
2000.79	n/a	WORD	1000395	wordpools/wasnorm_wordpool.txt	LTP116	ltpFR	0	8	0	PIT	1077	n/a	n/a	1	0.57763671875	0.412841796875	1	upper	zerothre.ttf
2004.722	n/a	WORD	1002361	wordpools/wasnorm_wordpool.txt	LTP116	ltpFR	0	8	0	CANYON	235	n/a	n/a	1	0.57763671875	0.412841796875	1	upper	zerothre.ttf
2008.828	n/a	WORD	1004414	wordpools/wasnorm_wordpool.txt	LTP116	ltpFR	0	8	0	CREAM	402	n/a	n/a	0	0.57763671875	0.412841796875	1	upper	zerothre.ttf
2014.852	n/a	REC_START	1007426	n/a	LTP116	ltpFR	0	8	n/a	n/a	n/a	n/a	n/a	n/a	n/a	n/a	n/a	n/a	n/a
2018.202	n/a	REC_WORD	1009101	wordpools/wasnorm_wordpool.txt	LTP116	ltpFR	0	8	0	CABOOSE	214	n/a	n/a	1	n/a	n/a	n/a	n/a	n/a
2019.476	n/a	REC_WORD	1009738	wordpools/wasnorm_wordpool.txt	LTP116	ltpFR	0	8	0	CREAM	402	n/a	n/a	0	n/a	n/a	n/a	n/a	n/a
2020.248	n/a	REC_WORD	1010124	wordpools/wasnorm_wordpool.txt	LTP116	ltpFR	0	8	0	SPATULA	1348	n/a	n/a	0	n/a	n/a	n/a	n/a	n/a
2022.77	n/a	REC_WORD	1011385	wordpools/wasnorm_wordpool.txt	LTP116	ltpFR	0	8	0	OMELET	976	n/a	n/a	0	n/a	n/a	n/a	n/a	n/a
2024.84	n/a	REC_WORD	1012420	wordpools/wasnorm_wordpool.txt	LTP116	ltpFR	0	8	0	BLACKBERRY	132	n/a	n/a	0	n/a	n/a	n/a	n/a	n/a
2026.642	n/a	REC_WORD	1013321	wordpools/wasnorm_wordpool.txt	LTP116	ltpFR	0	8	0	COBBLER	335	n/a	n/a	1	n/a	n/a	n/a	n/a	n/a
2029.048	n/a	REC_WORD	1014524	wordpools/wasnorm_wordpool.txt	LTP116	ltpFR	0	8	0	LASH	802	n/a	n/a	0	n/a	n/a	n/a	n/a	n/a
2035.044	n/a	REC_WORD	1017522	wordpools/wasnorm_wordpool.txt	LTP116	ltpFR	0	8	0	BULLET	194	n/a	n/a	0	n/a	n/a	n/a	n/a	n/a
2035.942	n/a	REC_WORD	1017971	wordpools/wasnorm_wordpool.txt	LTP116	ltpFR	0	8	0	PISTOL	1075	n/a	n/a	0	n/a	n/a	n/a	n/a	n/a
2048.704	n/a	REC_WORD	1024352	wordpools/wasnorm_wordpool.txt	LTP116	ltpFR	0	8	0	STAKE	1368	n/a	n/a	0	n/a	n/a	n/a	n/a	n/a
2082.0	n/a	REC_WORD	1041000	wordpools/wasnorm_wordpool.txt	LTP116	ltpFR	0	8	0	CREAM	402	n/a	n/a	0	n/a	n/a	n/a	n/a	n/a
2095.468	n/a	WORD	1047734	wordpools/wasnorm_wordpool.txt	LTP116	ltpFR	0	9	1	JOKER	759	n/a	n/a	1	0.422607421875	0.5869140625	0	lower	amplitud.ttf
2099.576	n/a	WORD	1049788	wordpools/wasnorm_wordpool.txt	LTP116	ltpFR	0	9	1	POCKETBOOK	1094	n/a	n/a	0	0.422607421875	0.5869140625	0	lower	amplitud.ttf
2103.416	n/a	WORD	1051708	wordpools/wasnorm_wordpool.txt	LTP116	ltpFR	0	9	1	HANDBAG	684	n/a	n/a	0	0.422607421875	0.5869140625	0	lower	amplitud.ttf
2107.522	n/a	WORD	1053761	wordpools/wasnorm_wordpool.txt	LTP116	ltpFR	0	9	1	BUTCHER	203	n/a	n/a	1	0.422607421875	0.5869140625	0	lower	amplitud.ttf
2111.572	n/a	WORD	1055786	wordpools/wasnorm_wordpool.txt	LTP116	ltpFR	0	9	1	LIMOUSINE	824	n/a	n/a	0	0.422607421875	0.5869140625	0	lower	amplitud.ttf
2115.512	n/a	WORD	1057756	wordpools/wasnorm_wordpool.txt	LTP116	ltpFR	0	9	1	TOOTHPASTE	1483	n/a	n/a	0	0.422607421875	0.5869140625	0	lower	amplitud.ttf
2119.486	n/a	WORD	1059743	wordpools/wasnorm_wordpool.txt	LTP116	ltpFR	0	9	1	WAND	1586	n/a	n/a	0	0.422607421875	0.5869140625	0	lower	amplitud.ttf
2123.56	n/a	WORD	1061780	wordpools/wasnorm_wordpool.txt	LTP116	ltpFR	0	9	1	HOSTESS	723	n/a	n/a	1	0.422607421875	0.5869140625	0	lower	amplitud.ttf
2127.592	n/a	WORD	1063796	wordpools/wasnorm_wordpool.txt	LTP116	ltpFR	0	9	1	PAINTER	1004	n/a	n/a	1	0.422607421875	0.5869140625	0	lower	amplitud.ttf
2131.674	n/a	WORD	1065837	wordpools/wasnorm_wordpool.txt	LTP116	ltpFR	0	9	1	CASHEW	253	n/a	n/a	0	0.422607421875	0.5869140625	0	lower	amplitud.ttf
2135.548	n/a	WORD	1067774	wordpools/wasnorm_wordpool.txt	LTP116	ltpFR	0	9	1	SAUSAGE	1238	n/a	n/a	0	0.422607421875	0.5869140625	0	lower	amplitud.ttf
2139.388	n/a	WORD	1069694	wordpools/wasnorm_wordpool.txt	LTP116	ltpFR	0	9	1	ARCHITECT	36	n/a	n/a	1	0.422607421875	0.5869140625	0	lower	amplitud.ttf
2143.494	n/a	WORD	1071747	wordpools/wasnorm_wordpool.txt	LTP116	ltpFR	0	9	1	HOUSE	725	n/a	n/a	0	0.422607421875	0.5869140625	0	lower	amplitud.ttf
2147.702	n/a	WORD	1073851	wordpools/wasnorm_wordpool.txt	LTP116	ltpFR	0	9	1	WATERFALL	1595	n/a	n/a	0	0.422607421875	0.5869140625	0	lower	amplitud.ttf
2151.81	n/a	WORD	1075905	wordpools/wasnorm_wordpool.txt	LTP116	ltpFR	0	9	1	CLIMBER	323	n/a	n/a	1	0.422607421875	0.5869140625	0	lower	amplitud.ttf
2155.734	n/a	WORD	1077867	wordpools/wasnorm_wordpool.txt	LTP116	ltpFR	0	9	1	CAR	241	n/a	n/a	0	0.422607421875	0.5869140625	0	lower	amplitud.ttf
2161.658	n/a	REC_START	1080829	n/a	LTP116	ltpFR	0	9	n/a	n/a	n/a	n/a	n/a	n/a	n/a	n/a	n/a	n/a	n/a
2164.932	n/a	REC_WORD	1082466	wordpools/wasnorm_wordpool.txt	LTP116	ltpFR	0	9	1	PAINTER	1004	n/a	n/a	1	n/a	n/a	n/a	n/a	n/a
2166.148	n/a	REC_WORD	1083074	wordpools/wasnorm_wordpool.txt	LTP116	ltpFR	0	9	1	BUTCHER	203	n/a	n/a	1	n/a	n/a	n/a	n/a	n/a
2167.302	n/a	REC_WORD	1083651	wordpools/wasnorm_wordpool.txt	LTP116	ltpFR	0	9	1	ARCHITECT	36	n/a	n/a	1	n/a	n/a	n/a	n/a	n/a
2168.676	n/a	REC_WORD	1084338	wordpools/wasnorm_wordpool.txt	LTP116	ltpFR	0	9	1	CLIMBER	323	n/a	n/a	1	n/a	n/a	n/a	n/a	n/a
2170.764	n/a	REC_WORD	1085382	wordpools/wasnorm_wordpool.txt	LTP116	ltpFR	0	9	1	HOUSE	725	n/a	n/a	0	n/a	n/a	n/a	n/a	n/a
2172.104	n/a	REC_WORD	1086052	wordpools/wasnorm_wordpool.txt	LTP116	ltpFR	0	9	1	WATERFALL	1595	n/a	n/a	0	n/a	n/a	n/a	n/a	n/a
2173.118	n/a	REC_WORD	1086559	wordpools/wasnorm_wordpool.txt	LTP116	ltpFR	0	9	1	CASHEW	253	n/a	n/a	0	n/a	n/a	n/a	n/a	n/a
2179.228	n/a	REC_WORD	1089614	wordpools/wasnorm_wordpool.txt	LTP116	ltpFR	0	9	1	SAUSAGE	1238	n/a	n/a	0	n/a	n/a	n/a	n/a	n/a
2213.844	n/a	REC_WORD	1106922	wordpools/wasnorm_wordpool.txt	LTP116	ltpFR	0	9	1	HANDBAG	684	n/a	n/a	0	n/a	n/a	n/a	n/a	n/a
2243.94	n/a	WORD	1121970	wordpools/wasnorm_wordpool.txt	LTP116	ltpFR	0	10	1	WELL	1600	n/a	n/a	0	0.422607421875	0.5869140625	0	lower	amplitud.ttf
2247.848	n/a	WORD	1123924	wordpools/wasnorm_wordpool.txt	LTP116	ltpFR	0	10	1	PREDATOR	1120	n/a	n/a	1	0.422607421875	0.5869140625	0	lower	amplitud.ttf
2251.664	n/a	WORD	1125832	wordpools/wasnorm_wordpool.txt	LTP116	ltpFR	0	10	1	FARM	552	n/a	n/a	0	0.422607421875	0.5869140625	0	lower	amplitud.ttf
2255.804	n/a	WORD	1127902	wordpools/wasnorm_wordpool.txt	LTP116	ltpFR	0	10	1	SCISSORS	1250	n/a	n/a	0	0.422607421875	0.5869140625	0	lower	amplitud.ttf
2259.644	n/a	WORD	1129822	wordpools/wasnorm_wordpool.txt	LTP116	ltpFR	0	10	1	DEPUTY	450	n/a	n/a	1	0.422607421875	0.5869140625	0	lower	amplitud.ttf
2263.742	n/a	WORD	1131871	wordpools/wasnorm_wordpool.txt	LTP116	ltpFR	0	10	1	PEDESTRIAN	1038	n/a	n/a	1	0.422607421875	0.5869140625	0	lower	amplitud.ttf
2267.734	n/a	WORD	1133867	wordpools/wasnorm_wordpool.txt	LTP116	ltpFR	0	10	1	HATCHET	691	n/a	n/a	0	0.422607421875	0.5869140625	0	lower	amplitud.ttf
2271.832	n/a	WORD	1135916	wordpools/wasnorm_wordpool.txt	LTP116	ltpFR	0	10	1	CYLINDER	432	n/a	n/a	0	0.422607421875	0.5869140625	0	lower	amplitud.ttf
2275.972	n/a	WORD	1137986	wordpools/wasnorm_wordpool.txt	LTP116	ltpFR	0	10	1	JAR	750	n/a	n/a	0	0.422607421875	0.5869140625	0	lower	amplitud.ttf
2280.02	n/a	WORD	1140010	wordpools/wasnorm_wordpool.txt	LTP116	ltpFR	0	10	1	BELL	118	n/a	n/a	0	0.422607421875	0.5869140625	0	lower	amplitud.ttf
2284.202	n/a	WORD	1142101	wordpools/wasnorm_wordpool.txt	LTP116	ltpFR	0	10	1	DICTIONARY	463	n/a	n/a	0	0.422607421875	0.5869140625	0	lower	amplitud.ttf
2288.376	n/a	WORD	1144188	wordpools/wasnorm_wordpool.txt	LTP116	ltpFR	0	10	1	SUMMIT	1405	n/a	n/a	0	0.422607421875	0.5869140625	0	lower	amplitud.ttf
2292.5	n/a	WORD	1146250	wordpools/wasnorm_wordpool.txt	LTP116	ltpFR	0	10	1	PUMP	1141	n/a	n/a	0	0.422607421875	0.5869140625	0	lower	amplitud.ttf
2296.466	n/a	WORD	1148233	wordpools/wasnorm_wordpool.txt	LTP116	ltpFR	0	10	1	HOOK	715	n/a	n/a	0	0.422607421875	0.5869140625	0	lower	amplitud.ttf
2300.656	n/a	WORD	1150328	wordpools/wasnorm_wordpool.txt	LTP116	ltpFR	0	10	1	SHARK	1275	n/a	n/a	1	0.422607421875	0.5869140625	0	lower	amplitud.ttf
2304.748	n/a	WORD	1152374	wordpools/wasnorm_wordpool.txt	LTP116	ltpFR	0	10	1	OFFICER	973	n/a	n/a	1	0.422607421875	0.5869140625	0	lower	amplitud.ttf
2310.58	n/a	REC_START	1155290	n/a	LTP116	ltpFR	0	10	n/a	n/a	n/a	n/a	n/a	n/a	n/a	n/a	n/a	n/a	n/a
2314.262	n/a	REC_WORD	1157131	wordpools/wasnorm_wordpool.txt	LTP116	ltpFR	0	10	1	OFFICER	973	n/a	n/a	1	n/a	n/a	n/a	n/a	n/a
2315.402	n/a	REC_WORD	1157701	wordpools/wasnorm_wordpool.txt	LTP116	ltpFR	0	10	1	SHARK	1275	n/a	n/a	1	n/a	n/a	n/a	n/a	n/a
2316.698	n/a	REC_WORD	1158349	wordpools/wasnorm_wordpool.txt	LTP116	ltpFR	0	10	1	DEPUTY	450	n/a	n/a	1	n/a	n/a	n/a	n/a	n/a
2317.712	n/a	REC_WORD	1158856	wordpools/wasnorm_wordpool.txt	LTP116	ltpFR	0	10	1	PEDESTRIAN	1038	n/a	n/a	1	n/a	n/a	n/a	n/a	n/a
2319.376	n/a	REC_WORD	1159688	wordpools/wasnorm_wordpool.txt	LTP116	ltpFR	0	10	1	HATCHET	691	n/a	n/a	0	n/a	n/a	n/a	n/a	n/a
2320.916	n/a	REC_WORD	1160458	wordpools/wasnorm_wordpool.txt	LTP116	ltpFR	0	10	1	JAR	750	n/a	n/a	0	n/a	n/a	n/a	n/a	n/a
2321.966	n/a	REC_WORD	1160983	wordpools/wasnorm_wordpool.txt	LTP116	ltpFR	0	10	1	CYLINDER	432	n/a	n/a	0	n/a	n/a	n/a	n/a	n/a
2323.372	n/a	REC_WORD	1161686	wordpools/wasnorm_wordpool.txt	LTP116	ltpFR	0	10	1	PUMP	1141	n/a	n/a	0	n/a	n/a	n/a	n/a	n/a
2340.474	n/a	REC_WORD	1170237	wordpools/wasnorm_wordpool.txt	LTP116	ltpFR	0	10	1	WELL	1600	n/a	n/a	0	n/a	n/a	n/a	n/a	n/a
2401.86	n/a	WORD	1200930	wordpools/wasnorm_wordpool.txt	LTP116	ltpFR	0	11	1	RANCH	1166	n/a	n/a	0	0.422607421875	0.5869140625	0	lower	amplitud.ttf
2406.008	n/a	WORD	1203004	wordpools/wasnorm_wordpool.txt	LTP116	ltpFR	0	11	1	TIDE	1465	n/a	n/a	0	0.422607421875	0.5869140625	0	lower	amplitud.ttf
2410.19	n/a	WORD	1205095	wordpools/wasnorm_wordpool.txt	LTP116	ltpFR	0	11	1	BANDANNA	80	n/a	n/a	0	0.422607421875	0.5869140625	0	lower	amplitud.ttf
2414.404	n/a	WORD	1207202	wordpools/wasnorm_wordpool.txt	LTP116	ltpFR	0	11	1	CAP	236	n/a	n/a	0	0.422607421875	0.5869140625	0	lower	amplitud.ttf
2418.278	n/a	WORD	1209139	wordpools/wasnorm_wordpool.txt	LTP116	ltpFR	0	11	1	OX	994	n/a	n/a	1	0.422607421875	0.5869140625	0	lower	amplitud.ttf
2422.104	n/a	WORD	1211052	wordpools/wasnorm_wordpool.txt	LTP116	ltpFR	0	11	1	ADULT	8	n/a	n/a	1	0.422607421875	0.5869140625	0	lower	amplitud.ttf
2426.286	n/a	WORD	1213143	wordpools/wasnorm_wordpool.txt	LTP116	ltpFR	0	11	1	SPOUSE	1358	n/a	n/a	1	0.422607421875	0.5869140625	0	lower	amplitud.ttf
2430.284	n/a	WORD	1215142	wordpools/wasnorm_wordpool.txt	LTP116	ltpFR	0	11	1	NECK	939	n/a	n/a	0	0.422607421875	0.5869140625	0	lower	amplitud.ttf
2434.398	n/a	WORD	1217199	wordpools/wasnorm_wordpool.txt	LTP116	ltpFR	0	11	1	FOLLOWER	589	n/a	n/a	1	0.422607421875	0.5869140625	0	lower	amplitud.ttf
2438.606	n/a	WORD	1219303	wordpools/wasnorm_wordpool.txt	LTP116	ltpFR	0	11	1	FLORIDA	582	n/a	n/a	0	0.422607421875	0.5869140625	0	lower	amplitud.ttf
2442.564	n/a	WORD	1221282	wordpools/wasnorm_wordpool.txt	LTP116	ltpFR	0	11	1	PUCK	1138	n/a	n/a	0	0.422607421875	0.5869140625	0	lower	amplitud.ttf
2446.478	n/a	WORD	1223239	wordpools/wasnorm_wordpool.txt	LTP116	ltpFR	0	11	1	BLUEBERRY	140	n/a	n/a	1	0.422607421875	0.5869140625	0	lower	amplitud.ttf
2450.41	n/a	WORD	1225205	wordpools/wasnorm_wordpool.txt	LTP116	ltpFR	0	11	1	CHERRY	293	n/a	n/a	1	0.422607421875	0.5869140625	0	lower	amplitud.ttf
2454.584	n/a	WORD	1227292	wordpools/wasnorm_wordpool.txt	LTP116	ltpFR	0	11	1	GUARDIAN	668	n/a	n/a	1	0.422607421875	0.5869140625	0	lower	amplitud.ttf
2458.474	n/a	WORD	1229237	wordpools/wasnorm_wordpool.txt	LTP116	ltpFR	0	11	1	GYMNAST	675	n/a	n/a	1	0.422607421875	0.5869140625	0	lower	amplitud.ttf
2462.658	n/a	WORD	1231329	wordpools/wasnorm_wordpool.txt	LTP116	ltpFR	0	11	1	COW	393	n/a	n/a	1	0.422607421875	0.5869140625	0	lower	amplitud.ttf
2468.664	n/a	REC_START	1234332	n/a	LTP116	ltpFR	0	11	n/a	n/a	n/a	n/a	n/a	n/a	n/a	n/a	n/a	n/a	n/a
2472.238	n/a	REC_WORD	1236119	wordpools/wasnorm_wordpool.txt	LTP116	ltpFR	0	11	1	GYMNAST	675	n/a	n/a	1	n/a	n/a	n/a	n/a	n/a
2473.486	n/a	REC_WORD	1236743	wordpools/wasnorm_wordpool.txt	LTP116	ltpFR	0	11	1	COW	393	n/a	n/a	1	n/a	n/a	n/a	n/a	n/a
2474.842	n/a	REC_WORD	1237421	wordpools/wasnorm_wordpool.txt	LTP116	ltpFR	0	11	1	BLUEBERRY	140	n/a	n/a	1	n/a	n/a	n/a	n/a	n/a
2477.86	n/a	REC_WORD	1238930	wordpools/wasnorm_wordpool.txt	LTP116	ltpFR	0	11	1	BANDANNA	80	n/a	n/a	0	n/a	n/a	n/a	n/a	n/a
2479.52	n/a	REC_WORD	1239760	wordpools/wasnorm_wordpool.txt	LTP116	ltpFR	0	11	1	OX	994	n/a	n/a	1	n/a	n/a	n/a	n/a	n/a
2488.078	n/a	REC_WORD	1244039	wordpools/wasnorm_wordpool.txt	LTP116	ltpFR	0	11	1	ADULT	8	n/a	n/a	1	n/a	n/a	n/a	n/a	n/a
2489.056	n/a	REC_WORD	1244528	wordpools/wasnorm_wordpool.txt	LTP116	ltpFR	0	11	1	SPOUSE	1358	n/a	n/a	1	n/a	n/a	n/a	n/a	n/a
2490.352	n/a	REC_WORD	1245176	wordpools/wasnorm_wordpool.txt	LTP116	ltpFR	0	11	1	NECK	939	n/a	n/a	0	n/a	n/a	n/a	n/a	n/a
2516.494	n/a	REC_WORD	1258247	wordpools/wasnorm_wordpool.txt	LTP116	ltpFR	0	11	1	CHERRY	293	n/a	n/a	1	n/a	n/a	n/a	n/a	n/a
2552.996	n/a	WORD	1276498	wordpools/wasnorm_wordpool.txt	LTP116	ltpFR	0	12	1	TOTE	1487	n/a	n/a	0	0.422607421875	0.5869140625	0	lower	amplitud.ttf
2557.046	n/a	WORD	1278523	wordpools/wasnorm_wordpool.txt	LTP116	ltpFR	0	12	1	CARRIAGE	248	n/a	n/a	0	0.422607421875	0.5869140625	0	lower	amplitud.ttf
2561.244	n/a	WORD	1280622	wordpools/wasnorm_wordpool.txt	LTP116	ltpFR	0	12	1	STALLION	1369	n/a	n/a	1	0.422607421875	0.5869140625	0	lower	amplitud.ttf
2565.084	n/a	WORD	1282542	wordpools/wasnorm_wordpool.txt	LTP116	ltpFR	0	12	1	WASHER	1592	n/a	n/a	0	0.422607421875	0.5869140625	0	lower	amplitud.ttf
2569.242	n/a	WORD	1284621	wordpools/wasnorm_wordpool.txt	LTP116	ltpFR	0	12	1	FOLDER	588	n/a	n/a	0	0.422607421875	0.5869140625	0	lower	amplitud.ttf
2573.264	n/a	WORD	1286632	wordpools/wasnorm_wordpool.txt	LTP116	ltpFR	0	12	1	SKETCH	1315	n/a	n/a	0	0.422607421875	0.5869140625	0	lower	amplitud.ttf
2577.206	n/a	WORD	1288603	wordpools/wasnorm_wordpool.txt	LTP116	ltpFR	0	12	1	WINNER	1615	n/a	n/a	1	0.422607421875	0.5869140625	0	lower	amplitud.ttf
2581.304	n/a	WORD	1290652	wordpools/wasnorm_wordpool.txt	LTP116	ltpFR	0	12	1	ELEPHANT	523	n/a	n/a	1	0.422607421875	0.5869140625	0	lower	amplitud.ttf
2585.368	n/a	WORD	1292684	wordpools/wasnorm_wordpool.txt	LTP116	ltpFR	0	12	1	HERO	706	n/a	n/a	1	0.422607421875	0.5869140625	0	lower	amplitud.ttf
2589.392	n/a	WORD	1294696	wordpools/wasnorm_wordpool.txt	LTP116	ltpFR	0	12	1	PUBLISHER	1137	n/a	n/a	1	0.422607421875	0.5869140625	0	lower	amplitud.ttf
2593.4	n/a	WORD	1296700	wordpools/wasnorm_wordpool.txt	LTP116	ltpFR	0	12	1	TORCH	1484	n/a	n/a	0	0.422607421875	0.5869140625	0	lower	amplitud.ttf
2597.608	n/a	WORD	1298804	wordpools/wasnorm_wordpool.txt	LTP116	ltpFR	0	12	1	DRAWER	493	n/a	n/a	0	0.422607421875	0.5869140625	0	lower	amplitud.ttf
2601.798	n/a	WORD	1300899	wordpools/wasnorm_wordpool.txt	LTP116	ltpFR	0	12	1	NEWSSTAND	949	n/a	n/a	0	0.422607421875	0.5869140625	0	lower	amplitud.ttf
2605.88	n/a	WORD	1302940	wordpools/wasnorm_wordpool.txt	LTP116	ltpFR	0	12	1	WICK	1607	n/a	n/a	0	0.422607421875	0.5869140625	0	lower	amplitud.ttf
2609.788	n/a	WORD	1304894	wordpools/wasnorm_wordpool.txt	LTP116	ltpFR	0	12	1	HUMAN	726	n/a	n/a	1	0.422607421875	0.5869140625	0	lower	amplitud.ttf
2613.978	n/a	WORD	1306989	wordpools/wasnorm_wordpool.txt	LTP116	ltpFR	0	12	1	BODY	145	n/a	n/a	0	0.422607421875	0.5869140625	0	lower	amplitud.ttf
2619.644	n/a	REC_START	1309822	n/a	LTP116	ltpFR	0	12	n/a	n/a	n/a	n/a	n/a	n/a	n/a	n/a	n/a	n/a	n/a
2622.052	n/a	REC_WORD	1311026	wordpools/wasnorm_wordpool.txt	LTP116	ltpFR	0	12	1	HUMAN	726	n/a	n/a	1	n/a	n/a	n/a	n/a	n/a
2623.548	n/a	REC_WORD	1311774	wordpools/wasnorm_wordpool.txt	LTP116	ltpFR	0	12	1	BODY	145	n/a	n/a	0	n/a	n/a	n/a	n/a	n/a
2625.032	n/a	REC_WORD	1312516	wordpools/wasnorm_wordpool.txt	LTP116	ltpFR	0	12	1	NEWSSTAND	949	n/a	n/a	0	n/a	n/a	n/a	n/a	n/a
2626.566	n/a	REC_WORD	1313283	wordpools/wasnorm_wordpool.txt	LTP116	ltpFR	0	12	1	WICK	1607	n/a	n/a	0	n/a	n/a	n/a	n/a	n/a
2695.236	n/a	REST_REWET	1347618	n/a	LTP116	ltpFR	0	12	n/a	n/a	n/a	n/a	n/a	n/a	n/a	n/a	n/a	n/a	n/a
3125.78	n/a	WORD	1562890	wordpools/wasnorm_wordpool.txt	LTP116	ltpFR	0	13	1	LIME	823	n/a	n/a	1	0.422607421875	0.5869140625	0	lower	amplitud.ttf
3129.954	n/a	WORD	1564977	wordpools/wasnorm_wordpool.txt	LTP116	ltpFR	0	13	1	MEAT	883	n/a	n/a	0	0.422607421875	0.5869140625	0	lower	amplitud.ttf
3133.852	n/a	WORD	1566926	wordpools/wasnorm_wordpool.txt	LTP116	ltpFR	0	13	0	GRILL	661	n/a	n/a	1	0.57763671875	0.412841796875	1	upper	zerothre.ttf
3137.834	n/a	WORD	1568917	wordpools/wasnorm_wordpool.txt	LTP116	ltpFR	0	13	0	FLOWER	584	n/a	n/a	0	0.57763671875	0.412841796875	1	upper	zerothre.ttf
3141.9	n/a	WORD	1570950	wordpools/wasnorm_wordpool.txt	LTP116	ltpFR	0	13	0	TULIP	1517	n/a	n/a	0	0.57763671875	0.412841796875	1	upper	zerothre.ttf
3146.032	n/a	WORD	1573016	wordpools/wasnorm_wordpool.txt	LTP116	ltpFR	0	13	0	HAY	693	n/a	n/a	1	0.57763671875	0.412841796875	1	upper	zerothre.ttf
3150.024	n/a	WORD	1575012	wordpools/wasnorm_wordpool.txt	LTP116	ltpFR	0	13	0	BEAST	108	n/a	n/a	1	0.57763671875	0.412841796875	1	upper	zerothre.ttf
3154.022	n/a	WORD	1577011	wordpools/wasnorm_wordpool.txt	LTP116	ltpFR	0	13	1	PILOT	1070	n/a	n/a	1	0.422607421875	0.5869140625	0	lower	amplitud.ttf
3157.996	n/a	WORD	1578998	wordpools/wasnorm_wordpool.txt	LTP116	ltpFR	0	13	1	PITCHFORK	1078	n/a	n/a	0	0.422607421875	0.5869140625	0	lower	amplitud.ttf
3162.128	n/a	WORD	1581064	wordpools/wasnorm_wordpool.txt	LTP116	ltpFR	0	13	1	DOLLAR	482	n/a	n/a	0	0.422607421875	0.5869140625	0	lower	amplitud.ttf
3166.294	n/a	WORD	1583147	wordpools/wasnorm_wordpool.txt	LTP116	ltpFR	0	13	1	LADY	794	n/a	n/a	1	0.422607421875	0.5869140625	0	lower	amplitud.ttf
3170.284	n/a	WORD	1585142	wordpools/wasnorm_wordpool.txt	LTP116	ltpFR	0	13	1	SEAT	1264	n/a	n/a	0	0.422607421875	0.5869140625	0	lower	amplitud.ttf
3174.182	n/a	WORD	1587091	wordpools/wasnorm_wordpool.txt	LTP116	ltpFR	0	13	1	SQUIRREL	1362	n/a	n/a	1	0.422607421875	0.5869140625	0	lower	amplitud.ttf
3178.024	n/a	WORD	1589012	wordpools/wasnorm_wordpool.txt	LTP116	ltpFR	0	13	0	FLY	586	n/a	n/a	0	0.57763671875	0.412841796875	1	upper	zerothre.ttf
3181.922	n/a	WORD	1590961	wordpools/wasnorm_wordpool.txt	LTP116	ltpFR	0	13	0	OPERA	978	n/a	n/a	1	0.57763671875	0.412841796875	1	upper	zerothre.ttf
3185.778	n/a	WORD	1592889	wordpools/wasnorm_wordpool.txt	LTP116	ltpFR	0	13	0	HOOP	716	n/a	n/a	1	0.57763671875	0.412841796875	1	upper	zerothre.ttf
3191.46	n/a	REC_START	1595730	n/a	LTP116	ltpFR	0	13	n/a	n/a	n/a	n/a	n/a	n/a	n/a	n/a	n/a	n/a	n/a
3194.482	n/a	REC_WORD	1597241	wordpools/wasnorm_wordpool.txt	LTP116	ltpFR	0	13	1	LADY	794	n/a	n/a	1	n/a	n/a	n/a	n/a	n/a
3195.446	n/a	REC_WORD	1597723	wordpools/wasnorm_wordpool.txt	LTP116	ltpFR	0	13	0	HOOP	716	n/a	n/a	1	n/a	n/a	n/a	n/a	n/a
3196.56	n/a	REC_WORD	1598280	wordpools/wasnorm_wordpool.txt	LTP116	ltpFR	0	13	0	OPERA	978	n/a	n/a	1	n/a	n/a	n/a	n/a	n/a
3198.56	n/a	REC_WORD	1599280	wordpools/wasnorm_wordpool.txt	LTP116	ltpFR	0	13	1	PITCHFORK	1078	n/a	n/a	0	n/a	n/a	n/a	n/a	n/a
3199.92	n/a	REC_WORD	1599960	wordpools/wasnorm_wordpool.txt	LTP116	ltpFR	0	13	0	HAY	693	n/a	n/a	1	n/a	n/a	n/a	n/a	n/a
3203.098	n/a	REC_WORD	1601549	wordpools/wasnorm_wordpool.txt	LTP116	ltpFR	0	13	0	GRILL	661	n/a	n/a	1	n/a	n/a	n/a	n/a	n/a
3208.032	n/a	REC_WORD	1604016	wordpools/wasnorm_wordpool.txt	LTP116	ltpFR	0	13	1	LIME	823	n/a	n/a	1	n/a	n/a	n/a	n/a	n/a
3233.28	n/a	REC_WORD	1616640	wordpools/wasnorm_wordpool.txt	LTP116	ltpFR	0	13	1	MEAT	883	n/a	n/a	0	n/a	n/a	n/a	n/a	n/a
3273.592	n/a	WORD	1636796	wordpools/wasnorm_wordpool.txt	LTP116	ltpFR	0	14	1	SLOPE	1328	n/a	n/a	0	0.422607421875	0.5869140625	0	lower	amplitud.ttf
3277.55	n/a	WORD	1638775	wordpools/wasnorm_wordpool.txt	LTP116	ltpFR	0	14	1	ASSOCIATE	49	n/a	n/a	1	0.422607421875	0.5869140625	0	lower	amplitud.ttf
3281.516	n/a	WORD	1640758	wordpools/wasnorm_wordpool.txt	LTP116	ltpFR	0	14	0	SUPERVISOR	1410	n/a	n/a	1	0.57763671875	0.412841796875	1	upper	zerothre.ttf
3285.34	n/a	WORD	1642670	wordpools/wasnorm_wordpool.txt	LTP116	ltpFR	0	14	0	CHIMNEY	301	n/a	n/a	1	0.57763671875	0.412841796875	1	upper	zerothre.ttf
3289.398	n/a	WORD	1644699	wordpools/wasnorm_wordpool.txt	LTP116	ltpFR	0	14	0	BANANA	77	n/a	n/a	0	0.57763671875	0.412841796875	1	upper	zerothre.ttf
3293.396	n/a	WORD	1646698	wordpools/wasnorm_wordpool.txt	LTP116	ltpFR	0	14	0	STRAWBERRY	1391	n/a	n/a	0	0.57763671875	0.412841796875	1	upper	zerothre.ttf
3297.528	n/a	WORD	1648764	wordpools/wasnorm_wordpool.txt	LTP116	ltpFR	0	14	1	CUE	422	n/a	n/a	0	0.422607421875	0.5869140625	0	lower	amplitud.ttf
3301.418	n/a	WORD	1650709	wordpools/wasnorm_wordpool.txt	LTP116	ltpFR	0	14	1	PAVEMENT	1028	n/a	n/a	0	0.422607421875	0.5869140625	0	lower	amplitud.ttf
3305.376	n/a	WORD	1652688	wordpools/wasnorm_wordpool.txt	LTP116	ltpFR	0	14	1	SKIN	1318	n/a	n/a	0	0.422607421875	0.5869140625	0	lower	amplitud.ttf
3309.44	n/a	WORD	1654720	wordpools/wasnorm_wordpool.txt	LTP116	ltpFR	0	14	1	CHEF	290	n/a	n/a	1	0.422607421875	0.5869140625	0	lower	amplitud.ttf
3313.598	n/a	WORD	1656799	wordpools/wasnorm_wordpool.txt	LTP116	ltpFR	0	14	0	BAKER	71	n/a	n/a	1	0.57763671875	0.412841796875	1	upper	zerothre.ttf
3317.764	n/a	WORD	1658882	wordpools/wasnorm_wordpool.txt	LTP116	ltpFR	0	14	0	ANTLER	29	n/a	n/a	1	0.57763671875	0.412841796875	1	upper	zerothre.ttf
3321.63	n/a	WORD	1660815	wordpools/wasnorm_wordpool.txt	LTP116	ltpFR	0	14	0	DYNAMITE	511	n/a	n/a	0	0.57763671875	0.412841796875	1	upper	zerothre.ttf
3325.702	n/a	WORD	1662851	wordpools/wasnorm_wordpool.txt	LTP116	ltpFR	0	14	0	HEART	697	n/a	n/a	0	0.57763671875	0.412841796875	1	upper	zerothre.ttf
3329.734	n/a	WORD	1664867	wordpools/wasnorm_wordpool.txt	LTP116	ltpFR	0	14	1	DRAGON	492	n/a	n/a	1	0.422607421875	0.5869140625	0	lower	amplitud.ttf
3333.892	n/a	WORD	1666946	wordpools/wasnorm_wordpool.txt	LTP116	ltpFR	0	14	1	EXPLOSION	544	n/a	n/a	0	0.422607421875	0.5869140625	0	lower	amplitud.ttf
3339.666	n/a	REC_START	1669833	n/a	LTP116	ltpFR	0	14	n/a	n/a	n/a	n/a	n/a	n/a	n/a	n/a	n/a	n/a	n/a
3342.312	n/a	REC_WORD	1671156	wordpools/wasnorm_wordpool.txt	LTP116	ltpFR	0	14	1	DRAGON	492	n/a	n/a	1	n/a	n/a	n/a	n/a	n/a
3343.548	n/a	REC_WORD	1671774	wordpools/wasnorm_wordpool.txt	LTP116	ltpFR	0	14	1	EXPLOSION	544	n/a	n/a	0	n/a	n/a	n/a	n/a	n/a
3345.476	n/a	REC_WORD	1672738	wordpools/wasnorm_wordpool.txt	LTP116	ltpFR	0	14	1	CHEF	290	n/a	n/a	1	n/a	n/a	n/a	n/a	n/a
3347.322	n/a	REC_WORD	1673661	wordpools/wasnorm_wordpool.txt	LTP116	ltpFR	0	14	0	BAKER	71	n/a	n/a	1	n/a	n/a	n/a	n/a	n/a
3349.458	n/a	REC_WORD	1674729	wordpools/wasnorm_wordpool.txt	LTP116	ltpFR	0	14	0	BANANA	77	n/a	n/a	0	n/a	n/a	n/a	n/a	n/a
3351.18	n/a	REC_WORD	1675590	wordpools/wasnorm_wordpool.txt	LTP116	ltpFR	0	14	0	DYNAMITE	511	n/a	n/a	0	n/a	n/a	n/a	n/a	n/a
3353.498	n/a	REC_WORD	1676749	wordpools/wasnorm_wordpool.txt	LTP116	ltpFR	0	14	0	ANTLER	29	n/a	n/a	1	n/a	n/a	n/a	n/a	n/a
3359.482	n/a	REC_WORD	1679741	wordpools/wasnorm_wordpool.txt	LTP116	ltpFR	0	14	1	SKIN	1318	n/a	n/a	0	n/a	n/a	n/a	n/a	n/a
3365.49	n/a	REC_WORD	1682745	wordpools/wasnorm_wordpool.txt	LTP116	ltpFR	0	14	1	CUE	422	n/a	n/a	0	n/a	n/a	n/a	n/a	n/a
3366.86	n/a	REC_WORD	1683430	wordpools/wasnorm_wordpool.txt	LTP116	ltpFR	0	14	1	PAVEMENT	1028	n/a	n/a	0	n/a	n/a	n/a	n/a	n/a
3419.498	n/a	WORD	1709749	wordpools/wasnorm_wordpool.txt	LTP116	ltpFR	0	15	0	PERISCOPE	1050	n/a	n/a	0	0.57763671875	0.412841796875	1	upper	zerothre.ttf
3423.382	n/a	WORD	1711691	wordpools/wasnorm_wordpool.txt	LTP116	ltpFR	0	15	0	PIANO	1057	n/a	n/a	1	0.57763671875	0.412841796875	1	upper	zerothre.ttf
3427.322	n/a	WORD	1713661	wordpools/wasnorm_wordpool.txt	LTP116	ltpFR	0	15	1	TRUCK	1512	n/a	n/a	0	0.422607421875	0.5869140625	0	lower	amplitud.ttf
3431.478	n/a	WORD	1715739	wordpools/wasnorm_wordpool.txt	LTP116	ltpFR	0	15	1	SALESMAN	1225	n/a	n/a	1	0.422607421875	0.5869140625	0	lower	amplitud.ttf
3435.47	n/a	WORD	1717735	wordpools/wasnorm_wordpool.txt	LTP116	ltpFR	0	15	0	FRIAR	605	n/a	n/a	1	0.57763671875	0.412841796875	1	upper	zerothre.ttf
3439.584	n/a	WORD	1719792	wordpools/wasnorm_wordpool.txt	LTP116	ltpFR	0	15	0	PELICAN	1039	n/a	n/a	1	0.57763671875	0.412841796875	1	upper	zerothre.ttf
3443.658	n/a	WORD	1721829	wordpools/wasnorm_wordpool.txt	LTP116	ltpFR	0	15	0	BIRD	129	n/a	n/a	0	0.57763671875	0.412841796875	1	upper	zerothre.ttf
3447.75	n/a	WORD	1723875	wordpools/wasnorm_wordpool.txt	LTP116	ltpFR	0	15	0	BARLEY	88	n/a	n/a	1	0.57763671875	0.412841796875	1	upper	zerothre.ttf
3451.598	n/a	WORD	1725799	wordpools/wasnorm_wordpool.txt	LTP116	ltpFR	0	15	0	COLESLAW	344	n/a	n/a	0	0.57763671875	0.412841796875	1	upper	zerothre.ttf
3455.612	n/a	WORD	1727806	wordpools/wasnorm_wordpool.txt	LTP116	ltpFR	0	15	0	SKILLET	1317	n/a	n/a	1	0.57763671875	0.412841796875	1	upper	zerothre.ttf
3459.612	n/a	WORD	1729806	wordpools/wasnorm_wordpool.txt	LTP116	ltpFR	0	15	1	VIOLIN	1571	n/a	n/a	0	0.422607421875	0.5869140625	0	lower	amplitud.ttf
3463.67	n/a	WORD	1731835	wordpools/wasnorm_wordpool.txt	LTP116	ltpFR	0	15	1	NUN	962	n/a	n/a	1	0.422607421875	0.5869140625	0	lower	amplitud.ttf
3467.768	n/a	WORD	1733884	wordpools/wasnorm_wordpool.txt	LTP116	ltpFR	0	15	1	SPY	1360	n/a	n/a	1	0.422607421875	0.5869140625	0	lower	amplitud.ttf
3471.592	n/a	WORD	1735796	wordpools/wasnorm_wordpool.txt	LTP116	ltpFR	0	15	1	FIELD	562	n/a	n/a	0	0.422607421875	0.5869140625	0	lower	amplitud.ttf
3475.792	n/a	WORD	1737896	wordpools/wasnorm_wordpool.txt	LTP116	ltpFR	0	15	1	STAMP	1370	n/a	n/a	0	0.422607421875	0.5869140625	0	lower	amplitud.ttf
3479.706	n/a	WORD	1739853	wordpools/wasnorm_wordpool.txt	LTP116	ltpFR	0	15	1	HAMMOCK	681	n/a	n/a	0	0.422607421875	0.5869140625	0	lower	amplitud.ttf
3485.588	n/a	REC_START	1742794	n/a	LTP116	ltpFR	0	15	n/a	n/a	n/a	n/a	n/a	n/a	n/a	n/a	n/a	n/a	n/a
3487.828	n/a	REC_WORD	1743914	wordpools/wasnorm_wordpool.txt	LTP116	ltpFR	0	15	1	SALESMAN	1225	n/a	n/a	1	n/a	n/a	n/a	n/a	n/a
3489.07	n/a	REC_WORD	1744535	wordpools/wasnorm_wordpool.txt	LTP116	ltpFR	0	15	1	TRUCK	1512	n/a	n/a	0	n/a	n/a	n/a	n/a	n/a
3490.308	n/a	REC_WORD	1745154	wordpools/wasnorm_wordpool.txt	LTP116	ltpFR	0	15	1	HAMMOCK	681	n/a	n/a	0	n/a	n/a	n/a	n/a	n/a
3492.508	n/a	REC_WORD	1746254	wordpools/wasnorm_wordpool.txt	LTP116	ltpFR	0	15	1	NUN	962	n/a	n/a	1	n/a	n/a	n/a	n/a	n/a
3493.702	n/a	REC_WORD	1746851	wordpools/wasnorm_wordpool.txt	LTP116	ltpFR	0	15	0	FRIAR	605	n/a	n/a	1	n/a	n/a	n/a	n/a	n/a
3502.08	n/a	REC_WORD	1751040	wordpools/wasnorm_wordpool.txt	LTP116	ltpFR	0	15	0	PELICAN	1039	n/a	n/a	1	n/a	n/a	n/a	n/a	n/a
3503.09	n/a	REC_WORD	1751545	wordpools/wasnorm_wordpool.txt	LTP116	ltpFR	0	15	1	SPY	1360	n/a	n/a	1	n/a	n/a	n/a	n/a	n/a
3508.476	n/a	REC_WORD	1754238	wordpools/wasnorm_wordpool.txt	LTP116	ltpFR	0	15	1	FIELD	562	n/a	n/a	0	n/a	n/a	n/a	n/a	n/a
3519.462	n/a	REC_WORD	1759731	wordpools/wasnorm_wordpool.txt	LTP116	ltpFR	0	15	1	VIOLIN	1571	n/a	n/a	0	n/a	n/a	n/a	n/a	n/a
3571.72	n/a	WORD	1785860	wordpools/wasnorm_wordpool.txt	LTP116	ltpFR	0	16	0	LAKE	796	n/a	n/a	1	0.57763671875	0.412841796875	1	upper	zerothre.ttf
3575.544	n/a	WORD	1787772	wordpools/wasnorm_wordpool.txt	LTP116	ltpFR	0	16	0	SHORE	1291	n/a	n/a	1	0.57763671875	0.412841796875	1	upper	zerothre.ttf
3579.692	n/a	WORD	1789846	wordpools/wasnorm_wordpool.txt	LTP116	ltpFR	0	16	1	CHAMBER	277	n/a	n/a	0	0.422607421875	0.5869140625	0	lower	amplitud.ttf
3583.874	n/a	WORD	1791937	wordpools/wasnorm_wordpool.txt	LTP116	ltpFR	0	16	1	MEAL	882	n/a	n/a	0	0.422607421875	0.5869140625	0	lower	amplitud.ttf
3587.75	n/a	WORD	1793875	wordpools/wasnorm_wordpool.txt	LTP116	ltpFR	0	16	1	WATER	1594	n/a	n/a	0	0.422607421875	0.5869140625	0	lower	amplitud.ttf
3591.856	n/a	WORD	1795928	wordpools/wasnorm_wordpool.txt	LTP116	ltpFR	0	16	1	TAR	1435	n/a	n/a	0	0.422607421875	0.5869140625	0	lower	amplitud.ttf
3595.938	n/a	WORD	1797969	wordpools/wasnorm_wordpool.txt	LTP116	ltpFR	0	16	0	RAT	1169	n/a	n/a	0	0.57763671875	0.412841796875	1	upper	zerothre.ttf
3600.112	n/a	WORD	1800056	wordpools/wasnorm_wordpool.txt	LTP116	ltpFR	0	16	0	COYOTE	396	n/a	n/a	1	0.57763671875	0.412841796875	1	upper	zerothre.ttf
3603.968	n/a	WORD	1801984	wordpools/wasnorm_wordpool.txt	LTP116	ltpFR	0	16	0	RUG	1215	n/a	n/a	1	0.57763671875	0.412841796875	1	upper	zerothre.ttf
3607.86	n/a	WORD	1803930	wordpools/wasnorm_wordpool.txt	LTP116	ltpFR	0	16	0	INMATE	738	n/a	n/a	1	0.57763671875	0.412841796875	1	upper	zerothre.ttf
3611.724	n/a	WORD	1805862	wordpools/wasnorm_wordpool.txt	LTP116	ltpFR	0	16	1	YARD	1630	n/a	n/a	0	0.422607421875	0.5869140625	0	lower	amplitud.ttf
3615.674	n/a	WORD	1807837	wordpools/wasnorm_wordpool.txt	LTP116	ltpFR	0	16	1	MEADOW	881	n/a	n/a	0	0.422607421875	0.5869140625	0	lower	amplitud.ttf
3619.748	n/a	WORD	1809874	wordpools/wasnorm_wordpool.txt	LTP116	ltpFR	0	16	1	CAT	257	n/a	n/a	1	0.422607421875	0.5869140625	0	lower	amplitud.ttf
3623.946	n/a	WORD	1811973	wordpools/wasnorm_wordpool.txt	LTP116	ltpFR	0	16	1	COUGAR	387	n/a	n/a	1	0.422607421875	0.5869140625	0	lower	amplitud.ttf
3627.904	n/a	WORD	1813952	wordpools/wasnorm_wordpool.txt	LTP116	ltpFR	0	16	0	WOLF	1619	n/a	n/a	1	0.57763671875	0.412841796875	1	upper	zerothre.ttf
3632.11	n/a	WORD	1816055	wordpools/wasnorm_wordpool.txt	LTP116	ltpFR	0	16	0	PIPE	1073	n/a	n/a	0	0.57763671875	0.412841796875	1	upper	zerothre.ttf
3638.034	n/a	REC_START	1819017	n/a	LTP116	ltpFR	0	16	n/a	n/a	n/a	n/a	n/a	n/a	n/a	n/a	n/a	n/a	n/a
3641.35	n/a	REC_WORD	1820675	wordpools/wasnorm_wordpool.txt	LTP116	ltpFR	0	16	1	COUGAR	387	n/a	n/a	1	n/a	n/a	n/a	n/a	n/a
3642.588	n/a	REC_WORD	1821294	wordpools/wasnorm_wordpool.txt	LTP116	ltpFR	0	16	1	CAT	257	n/a	n/a	1	n/a	n/a	n/a	n/a	n/a
3643.732	n/a	REC_WORD	1821866	wordpools/wasnorm_wordpool.txt	LTP116	ltpFR	0	16	0	PIPE	1073	n/a	n/a	0	n/a	n/a	n/a	n/a	n/a
3647.482	n/a	REC_WORD	1823741	wordpools/wasnorm_wordpool.txt	LTP116	ltpFR	0	16	0	WOLF	1619	n/a	n/a	1	n/a	n/a	n/a	n/a	n/a
3667.97	n/a	REC_WORD	1833985	wordpools/wasnorm_wordpool.txt	LTP116	ltpFR	0	16	1	WATER	1594	n/a	n/a	0	n/a	n/a	n/a	n/a	n/a
3669.114	n/a	REC_WORD	1834557	wordpools/wasnorm_wordpool.txt	LTP116	ltpFR	0	16	1	TAR	1435	n/a	n/a	0	n/a	n/a	n/a	n/a	n/a
3674.044	n/a	REC_WORD	1837022	wordpools/wasnorm_wordpool.txt	LTP116	ltpFR	0	16	1	CHAMBER	277	n/a	n/a	0	n/a	n/a	n/a	n/a	n/a
3769.576	n/a	REC_START	1884788	n/a	LTP116	ltpFR	0	n/a	n/a	n/a	n/a	n/a	n/a	n/a	n/a	n/a	n/a	n/a	n/a
3771.91	n/a	FFR_REC_WORD	1885955	wordpools/wasnorm_wordpool.txt	LTP116	ltpFR	0	n/a	-1	STOOL	1386	n/a	n/a	-1	n/a	n/a	n/a	n/a	n/a
3773.458	n/a	FFR_REC_WORD	1886729	wordpools/wasnorm_wordpool.txt	LTP116	ltpFR	0	n/a	-1	BATHTUB	100	n/a	n/a	-1	n/a	n/a	n/a	n/a	n/a
3774.78	n/a	FFR_REC_WORD	1887390	wordpools/wasnorm_wordpool.txt	LTP116	ltpFR	0	n/a	-1	BLOUSE	139	n/a	n/a	-1	n/a	n/a	n/a	n/a	n/a
3776.004	n/a	FFR_REC_WORD	1888002	wordpools/wasnorm_wordpool.txt	LTP116	ltpFR	0	n/a	-1	EWE	542	n/a	n/a	-1	n/a	n/a	n/a	n/a	n/a
3777.696	n/a	FFR_REC_WORD	1888848	wordpools/wasnorm_wordpool.txt	LTP116	ltpFR	0	n/a	-1	TAVERN	1437	n/a	n/a	-1	n/a	n/a	n/a	n/a	n/a
3779.104	n/a	FFR_REC_WORD	1889552	wordpools/wasnorm_wordpool.txt	LTP116	ltpFR	0	n/a	-1	MOAT	903	n/a	n/a	-1	n/a	n/a	n/a	n/a	n/a
3780.26	n/a	FFR_REC_WORD	1890130	wordpools/wasnorm_wordpool.txt	LTP116	ltpFR	0	n/a	0	PELICAN	1039	n/a	n/a	1	n/a	n/a	n/a	n/a	n/a
3781.502	n/a	FFR_REC_WORD	1890751	wordpools/wasnorm_wordpool.txt	LTP116	ltpFR	0	n/a	1	TAR	1435	n/a	n/a	0	n/a	n/a	n/a	n/a	n/a
3783.222	n/a	FFR_REC_WORD	1891611	wordpools/wasnorm_wordpool.txt	LTP116	ltpFR	0	n/a	1	WATER	1594	n/a	n/a	0	n/a	n/a	n/a	n/a	n/a
3784.792	n/a	FFR_REC_WORD	1892396	wordpools/wasnorm_wordpool.txt	LTP116	ltpFR	0	n/a	0	OAR	966	n/a	n/a	1	n/a	n/a	n/a	n/a	n/a
3786.192	n/a	FFR_REC_WORD	1893096	wordpools/wasnorm_wordpool.txt	LTP116	ltpFR	0	n/a	-1	ANT	25	n/a	n/a	-1	n/a	n/a	n/a	n/a	n/a
3787.602	n/a	FFR_REC_WORD	1893801	wordpools/wasnorm_wordpool.txt	LTP116	ltpFR	0	n/a	0	LASH	802	n/a	n/a	0	n/a	n/a	n/a	n/a	n/a
3791.494	n/a	FFR_REC_WORD	1895747	wordpools/wasnorm_wordpool.txt	LTP116	ltpFR	0	n/a	0	BLACKBERRY	132	n/a	n/a	0	n/a	n/a	n/a	n/a	n/a
3792.862	n/a	FFR_REC_WORD	1896431	wordpools/wasnorm_wordpool.txt	LTP116	ltpFR	0	n/a	1	BLUEBERRY	140	n/a	n/a	1	n/a	n/a	n/a	n/a	n/a
3794.13	n/a	FFR_REC_WORD	1897065	wordpools/wasnorm_wordpool.txt	LTP116	ltpFR	0	n/a	1	CHERRY	293	n/a	n/a	1	n/a	n/a	n/a	n/a	n/a
3795.882	n/a	FFR_REC_WORD	1897941	wordpools/wasnorm_wordpool.txt	LTP116	ltpFR	0	n/a	0	COBBLER	335	n/a	n/a	1	n/a	n/a	n/a	n/a	n/a
3798.002	n/a	FFR_REC_WORD	1899001	wordpools/wasnorm_wordpool.txt	LTP116	ltpFR	0	n/a	0	BAKER	71	n/a	n/a	1	n/a	n/a	n/a	n/a	n/a
3799.33	n/a	FFR_REC_WORD	1899665	wordpools/wasnorm_wordpool.txt	LTP116	ltpFR	0	n/a	0	CAKE	219	n/a	n/a	1	n/a	n/a	n/a	n/a	n/a
3800.544	n/a	FFR_REC_WORD	1900272	wordpools/wasnorm_wordpool.txt	LTP116	ltpFR	0	n/a	1	CHEF	290	n/a	n/a	1	n/a	n/a	n/a	n/a	n/a
3802.022	n/a	FFR_REC_WORD	1901011	wordpools/wasnorm_wordpool.txt	LTP116	ltpFR	0	n/a	-1	OVEN	991	n/a	n/a	-1	n/a	n/a	n/a	n/a	n/a
3803.348	n/a	FFR_REC_WORD	1901674	wordpools/wasnorm_wordpool.txt	LTP116	ltpFR	0	n/a	-1	KITCHEN	778	n/a	n/a	-1	n/a	n/a	n/a	n/a	n/a
3804.838	n/a	FFR_REC_WORD	1902419	wordpools/wasnorm_wordpool.txt	LTP116	ltpFR	0	n/a	-1	PARENT	1013	n/a	n/a	-1	n/a	n/a	n/a	n/a	n/a
3806.238	n/a	FFR_REC_WORD	1903119	wordpools/wasnorm_wordpool.txt	LTP116	ltpFR	0	n/a	1	ADULT	8	n/a	n/a	1	n/a	n/a	n/a	n/a	n/a
3807.3	n/a	FFR_REC_WORD	1903650	wordpools/wasnorm_wordpool.txt	LTP116	ltpFR	0	n/a	1	SPOUSE	1358	n/a	n/a	1	n/a	n/a	n/a	n/a	n/a
3808.854	n/a	FFR_REC_WORD	1904427	wordpools/wasnorm_wordpool.txt	LTP116	ltpFR	0	n/a	1	NECK	939	n/a	n/a	0	n/a	n/a	n/a	n/a	n/a
3810.34	n/a	FFR_REC_WORD	1905170	wordpools/wasnorm_wordpool.txt	LTP116	ltpFR	0	n/a	1	HUMAN	726	n/a	n/a	1	n/a	n/a	n/a	n/a	n/a
3811.574	n/a	FFR_REC_WORD	1905787	wordpools/wasnorm_wordpool.txt	LTP116	ltpFR	0	n/a	1	BODY	145	n/a	n/a	0	n/a	n/a	n/a	n/a	n/a
3813.544	n/a	FFR_REC_WORD	1906772	wordpools/wasnorm_wordpool.txt	LTP116	ltpFR	0	n/a	0	PIPE	1073	n/a	n/a	0	n/a	n/a	n/a	n/a	n/a
3814.688	n/a	FFR_REC_WORD	1907344	wordpools/wasnorm_wordpool.txt	LTP116	ltpFR	0	n/a	0	PISTOL	1075	n/a	n/a	0	n/a	n/a	n/a	n/a	n/a
3816.02	n/a	FFR_REC_WORD	1908010	wordpools/wasnorm_wordpool.txt	LTP116	ltpFR	0	n/a	0	BULLET	194	n/a	n/a	0	n/a	n/a	n/a	n/a	n/a
3817.19	n/a	FFR_REC_WORD	1908595	wordpools/wasnorm_wordpool.txt	LTP116	ltpFR	0	n/a	0	CABOOSE	214	n/a	n/a	1	n/a	n/a	n/a	n/a	n/a
3818.796	n/a	FFR_REC_WORD	1909398	wordpools/wasnorm_wordpool.txt	LTP116	ltpFR	0	n/a	0	ATTORNEY	58	n/a	n/a	1	n/a	n/a	n/a	n/a	n/a
3819.99	n/a	FFR_REC_WORD	1909995	wordpools/wasnorm_wordpool.txt	LTP116	ltpFR	0	n/a	0	HANDCUFFS	685	n/a	n/a	0	n/a	n/a	n/a	n/a	n/a
3827.432	n/a	FFR_REC_WORD	1913716	wordpools/wasnorm_wordpool.txt	LTP116	ltpFR	0	n/a	1	WATERFALL	1595	n/a	n/a	0	n/a	n/a	n/a	n/a	n/a
3828.618	n/a	FFR_REC_WORD	1914309	wordpools/wasnorm_wordpool.txt	LTP116	ltpFR	0	n/a	1	HOUSE	725	n/a	n/a	0	n/a	n/a	n/a	n/a	n/a
3835.328	n/a	FFR_REC_WORD	1917664	wordpools/wasnorm_wordpool.txt	LTP116	ltpFR	0	n/a	1	ARCHITECT	36	n/a	n/a	1	n/a	n/a	n/a	n/a	n/a
3836.832	n/a	FFR_REC_WORD	1918416	wordpools/wasnorm_wordpool.txt	LTP116	ltpFR	0	n/a	1	JOKER	759	n/a	n/a	1	n/a	n/a	n/a	n/a	n/a
3838.126	n/a	FFR_REC_WORD	1919063	wordpools/wasnorm_wordpool.txt	LTP116	ltpFR	0	n/a	1	BUTCHER	203	n/a	n/a	1	n/a	n/a	n/a	n/a	n/a
3839.592	n/a	FFR_REC_WORD	1919796	wordpools/wasnorm_wordpool.txt	LTP116	ltpFR	0	n/a	1	PAINTER	1004	n/a	n/a	1	n/a	n/a	n/a	n/a	n/a
3841.08	n/a	FFR_REC_WORD	1920540	wordpools/wasnorm_wordpool.txt	LTP116	ltpFR	0	n/a	1	CLIMBER	323	n/a	n/a	1	n/a	n/a	n/a	n/a	n/a
3853.592	n/a	FFR_REC_WORD	1926796	wordpools/wasnorm_wordpool.txt	LTP116	ltpFR	0	n/a	-1	MAYONNAISE	880	n/a	n/a	-1	n/a	n/a	n/a	n/a	n/a
3854.636	n/a	FFR_REC_WORD	1927318	wordpools/wasnorm_wordpool.txt	LTP116	ltpFR	0	n/a	-1	KETCHUP	771	n/a	n/a	-1	n/a	n/a	n/a	n/a	n/a
3855.824	n/a	FFR_REC_WORD	1927912	wordpools/wasnorm_wordpool.txt	LTP116	ltpFR	0	n/a	-1	LUNCH	849	n/a	n/a	-1	n/a	n/a	n/a	n/a	n/a
3860.26	n/a	FFR_REC_WORD	1930130	wordpools/wasnorm_wordpool.txt	LTP116	ltpFR	0	n/a	0	ICEBERG	731	n/a	n/a	1	n/a	n/a	n/a	n/a	n/a
3866.702	n/a	FFR_REC_WORD	1933351	wordpools/wasnorm_wordpool.txt	LTP116	ltpFR	0	n/a	1	LADY	794	n/a	n/a	1	n/a	n/a	n/a	n/a	n/a
3869.5	n/a	FFR_REC_WORD	1934750	wordpools/wasnorm_wordpool.txt	LTP116	ltpFR	0	n/a	1	BANDANNA	80	n/a	n/a	0	n/a	n/a	n/a	n/a	n/a
3870.714	n/a	FFR_REC_WORD	1935357	wordpools/wasnorm_wordpool.txt	LTP116	ltpFR	0	n/a	1	OX	994	n/a	n/a	1	n/a	n/a	n/a	n/a	n/a
3871.828	n/a	FFR_REC_WORD	1935914	wordpools/wasnorm_wordpool.txt	LTP116	ltpFR	0	n/a	0	PRAIRIE	1118	n/a	n/a	n/a	n/a	n/a	n/a	n/a	n/a
3873.108	n/a	FFR_REC_WORD	1936554	wordpools/wasnorm_wordpool.txt	LTP116	ltpFR	0	n/a	1	FIELD	562	n/a	n/a	0	n/a	n/a	n/a	n/a	n/a
3876.296	n/a	FFR_REC_WORD	1938148	wordpools/wasnorm_wordpool.txt	LTP116	ltpFR	0	n/a	1	CASHEW	253	n/a	n/a	0	n/a	n/a	n/a	n/a	n/a
3877.902	n/a	FFR_REC_WORD	1938951	wordpools/wasnorm_wordpool.txt	LTP116	ltpFR	0	n/a	1	LIME	823	n/a	n/a	1	n/a	n/a	n/a	n/a	n/a
3888.918	n/a	FFR_REC_WORD	1944459	wordpools/wasnorm_wordpool.txt	LTP116	ltpFR	0	n/a	-1	ANKLE	24	n/a	n/a	-1	n/a	n/a	n/a	n/a	n/a
3890.732	n/a	FFR_REC_WORD	1945366	wordpools/wasnorm_wordpool.txt	LTP116	ltpFR	0	n/a	-1	NOSE	957	n/a	n/a	-1	n/a	n/a	n/a	n/a	n/a
3908.484	n/a	FFR_REC_WORD	1954242	wordpools/wasnorm_wordpool.txt	LTP116	ltpFR	0	n/a	-1	STOMACH	1384	n/a	n/a	-1	n/a	n/a	n/a	n/a	n/a
3909.98	n/a	FFR_REC_WORD	1954990	wordpools/wasnorm_wordpool.txt	LTP116	ltpFR	0	n/a	-1	ORGAN	984	n/a	n/a	-1	n/a	n/a	n/a	n/a	n/a
3912.376	n/a	FFR_REC_WORD	1956188	wordpools/wasnorm_wordpool.txt	LTP116	ltpFR	0	n/a	0	FRIAR	605	n/a	n/a	1	n/a	n/a	n/a	n/a	n/a
3913.668	n/a	FFR_REC_WORD	1956834	wordpools/wasnorm_wordpool.txt	LTP116	ltpFR	0	n/a	1	NUN	962	n/a	n/a	1	n/a	n/a	n/a	n/a	n/a
3919.068	n/a	FFR_REC_WORD	1959534	wordpools/wasnorm_wordpool.txt	LTP116	ltpFR	0	n/a	1	SALESMAN	1225	n/a	n/a	1	n/a	n/a	n/a	n/a	n/a
3920.058	n/a	FFR_REC_WORD	1960029	wordpools/wasnorm_wordpool.txt	LTP116	ltpFR	0	n/a	1	TRUCK	1512	n/a	n/a	0	n/a	n/a	n/a	n/a	n/a
3922.638	n/a	FFR_REC_WORD	1961319	wordpools/wasnorm_wordpool.txt	LTP116	ltpFR	0	n/a	1	CHAMBER	277	n/a	n/a	0	n/a	n/a	n/a	n/a	n/a
3928.876	n/a	FFR_REC_WORD	1964438	wordpools/wasnorm_wordpool.txt	LTP116	ltpFR	0	n/a	-1	COCOON	339	n/a	n/a	-1	n/a	n/a	n/a	n/a	n/a
3931.502	n/a	FFR_REC_WORD	1965751	wordpools/wasnorm_wordpool.txt	LTP116	ltpFR	0	n/a	1	FLORIDA	582	n/a	n/a	0	n/a	n/a	n/a	n/a	n/a
3932.63	n/a	FFR_REC_WORD	1966315	wordpools/wasnorm_wordpool.txt	LTP116	ltpFR	0	n/a	0	FOREHEAD	592	n/a	n/a	0	n/a	n/a	n/a	n/a	n/a
3954.14	n/a	FFR_REC_WORD	1977070	wordpools/wasnorm_wordpool.txt	LTP116	ltpFR	0	n/a	0	GRILL	661	n/a	n/a	1	n/a	n/a	n/a	n/a	n/a
3955.26	n/a	FFR_REC_WORD	1977630	wordpools/wasnorm_wordpool.txt	LTP116	ltpFR	0	n/a	0	GORILLA	650	n/a	n/a	1	n/a	n/a	n/a	n/a	n/a
3956.344	n/a	FFR_REC_WORD	1978172	wordpools/wasnorm_wordpool.txt	LTP116	ltpFR	0	n/a	1	MEAT	883	n/a	n/a	0	n/a	n/a	n/a	n/a	n/a
3967.51	n/a	FFR_REC_WORD	1983755	wordpools/wasnorm_wordpool.txt	LTP116	ltpFR	0	n/a	0	CREAM	402	n/a	n/a	0	n/a	n/a	n/a	n/a	n/a
3985.904	n/a	FFR_REC_WORD	1992952	wordpools/wasnorm_wordpool.txt	LTP116	ltpFR	0	n/a	0	BANANA	77	n/a	n/a	0	n/a	n/a	n/a	n/a	n/a
4302.9	n/a	REC_START	2151450	n/a	LTP116	ltpFR	0	1	n/a	n/a	n/a	n/a	n/a	n/a	n/a	n/a	n/a	n/a	n/a
4302.932	n/a	RECOG_LURE	2151466	n/a	LTP116	ltpFR	0	1	n/a	FEAST	556	0	1	n/a	n/a	n/a	n/a	n/a	n/a
4305.18	n/a	RECOG_RESP	2152590	n/a	LTP116	ltpFR	0	1	n/a	FEAST	556	0	n/a	n/a	n/a	n/a	n/a	n/a	n/a
4307.924	n/a	RECOG_CONF	2153962	n/a	LTP116	ltpFR	0	1	n/a	FEAST	556	n/a	1	n/a	n/a	n/a	n/a	n/a	n/a
4310.454	n/a	RECOG_TARGET	2155227	n/a	LTP116	ltpFR	0	1	-1	ANKLE	24	1	1	-1	n/a	n/a	n/a	n/a	n/a
4311.974	n/a	RECOG_RESP	2155987	n/a	LTP116	ltpFR	0	1	-1	ANKLE	24	1	n/a	-1	n/a	n/a	n/a	n/a	n/a
4314.24	n/a	RECOG_CONF	2157120	n/a	LTP116	ltpFR	0	1	-1	ANKLE	24	n/a	1	-1	n/a	n/a	n/a	n/a	n/a
4315.844	n/a	RECOG_LURE	2157922	n/a	LTP116	ltpFR	0	1	n/a	MOSQUITO	917	0	1	n/a	n/a	n/a	n/a	n/a	n/a
4316.944	n/a	RECOG_RESP	2158472	n/a	LTP116	ltpFR	0	1	n/a	MOSQUITO	917	0	n/a	n/a	n/a	n/a	n/a	n/a	n/a
4318.55	n/a	RECOG_CONF	2159275	n/a	LTP116	ltpFR	0	1	n/a	MOSQUITO	917	n/a	1	n/a	n/a	n/a	n/a	n/a	n/a
4320.376	n/a	RECOG_TARGET	2160188	n/a	LTP116	ltpFR	0	1	-1	CHIEF	298	1	1	-1	n/a	n/a	n/a	n/a	n/a
4322.536	n/a	RECOG_RESP	2161268	n/a	LTP116	ltpFR	0	1	-1	CHIEF	298	1	n/a	-1	n/a	n/a	n/a	n/a	n/a
4323.888	n/a	RECOG_CONF	2161944	n/a	LTP116	ltpFR	0	1	-1	CHIEF	298	n/a	1	-1	n/a	n/a	n/a	n/a	n/a
4325.7	n/a	RECOG_LURE	2162850	n/a	LTP116	ltpFR	0	1	n/a	LAWYER	806	0	3	n/a	n/a	n/a	n/a	n/a	n/a
4327.97	n/a	RECOG_RESP	2163985	n/a	LTP116	ltpFR	0	1	n/a	LAWYER	806	0	n/a	n/a	n/a	n/a	n/a	n/a	n/a
4330.024	n/a	RECOG_CONF	2165012	n/a	LTP116	ltpFR	0	1	n/a	LAWYER	806	n/a	3	n/a	n/a	n/a	n/a	n/a	n/a
4331.556	n/a	RECOG_LURE	2165778	n/a	LTP116	ltpFR	0	1	n/a	CLAMP	316	0	1	n/a	n/a	n/a	n/a	n/a	n/a
4334.768	n/a	RECOG_RESP	2167384	n/a	LTP116	ltpFR	0	1	n/a	CLAMP	316	0	n/a	n/a	n/a	n/a	n/a	n/a	n/a
4336.35	n/a	RECOG_CONF	2168175	n/a	LTP116	ltpFR	0	1	n/a	CLAMP	316	n/a	1	n/a	n/a	n/a	n/a	n/a	n/a
4337.822	n/a	RECOG_TARGET	2168911	n/a	LTP116	ltpFR	0	1	0	HARP	689	1	1	1	n/a	n/a	n/a	n/a	n/a
4339.298	n/a	RECOG_RESP	2169649	n/a	LTP116	ltpFR	0	1	0	HARP	689	1	n/a	1	n/a	n/a	n/a	n/a	n/a
4341.03	n/a	RECOG_CONF	2170515	n/a	LTP116	ltpFR	0	1	0	HARP	689	n/a	1	1	n/a	n/a	n/a	n/a	n/a
4342.712	n/a	RECOG_TARGET	2171356	n/a	LTP116	ltpFR	0	1	0	CHIMNEY	301	1	1	1	n/a	n/a	n/a	n/a	n/a
4344.014	n/a	RECOG_RESP	2172007	n/a	LTP116	ltpFR	0	1	0	CHIMNEY	301	1	n/a	1	n/a	n/a	n/a	n/a	n/a
4345.33	n/a	RECOG_CONF	2172665	n/a	LTP116	ltpFR	0	1	0	CHIMNEY	301	n/a	1	1	n/a	n/a	n/a	n/a	n/a
4346.828	n/a	RECOG_LURE	2173414	n/a	LTP116	ltpFR	0	1	n/a	KETTLE	772	0	3	n/a	n/a	n/a	n/a	n/a	n/a
4350.076	n/a	RECOG_RESP	2175038	n/a	LTP116	ltpFR	0	1	n/a	KETTLE	772	0	n/a	n/a	n/a	n/a	n/a	n/a	n/a
4351.288	n/a	RECOG_CONF	2175644	n/a	LTP116	ltpFR	0	1	n/a	KETTLE	772	n/a	3	n/a	n/a	n/a	n/a	n/a	n/a
4352.742	n/a	RECOG_TARGET	2176371	n/a	LTP116	ltpFR	0	1	0	TULIP	1517	1	1	0	n/a	n/a	n/a	n/a	n/a
4353.936	n/a	RECOG_RESP	2176968	n/a	LTP116	ltpFR	0	1	0	TULIP	1517	1	n/a	0	n/a	n/a	n/a	n/a	n/a
4355.228	n/a	RECOG_CONF	2177614	n/a	LTP116	ltpFR	0	1	0	TULIP	1517	n/a	1	0	n/a	n/a	n/a	n/a	n/a
4356.698	n/a	RECOG_TARGET	2178349	n/a	LTP116	ltpFR	0	1	-1	MANSION	864	1	2	-1	n/a	n/a	n/a	n/a	n/a
4358.206	n/a	RECOG_RESP	2179103	n/a	LTP116	ltpFR	0	1	-1	MANSION	864	1	n/a	-1	n/a	n/a	n/a	n/a	n/a
4359.418	n/a	RECOG_CONF	2179709	n/a	LTP116	ltpFR	0	1	-1	MANSION	864	n/a	2	-1	n/a	n/a	n/a	n/a	n/a
4360.938	n/a	RECOG_TARGET	2180469	n/a	LTP116	ltpFR	0	1	0	SEAGULL	1261	1	1	1	n/a	n/a	n/a	n/a	n/a
4362.852	n/a	RECOG_RESP	2181426	n/a	LTP116	ltpFR	0	1	0	SEAGULL	1261	1	n/a	1	n/a	n/a	n/a	n/a	n/a
4364.07	n/a	RECOG_CONF	2182035	n/a	LTP116	ltpFR	0	1	0	SEAGULL	1261	n/a	1	1	n/a	n/a	n/a	n/a	n/a
4365.596	n/a	RECOG_TARGET	2182798	n/a	LTP116	ltpFR	0	1	0	ROOT	1210	1	1	0	n/a	n/a	n/a	n/a	n/a
4366.734	n/a	RECOG_RESP	2183367	n/a	LTP116	ltpFR	0	1	0	ROOT	1210	1	n/a	0	n/a	n/a	n/a	n/a	n/a
4367.86	n/a	RECOG_CONF	2183930	n/a	LTP116	ltpFR	0	1	0	ROOT	1210	n/a	1	0	n/a	n/a	n/a	n/a	n/a
4369.286	n/a	RECOG_TARGET	2184643	n/a	LTP116	ltpFR	0	1	-1	OVEN	991	1	1	-1	n/a	n/a	n/a	n/a	n/a
4370.08	n/a	RECOG_RESP	2185040	n/a	LTP116	ltpFR	0	1	-1	OVEN	991	1	n/a	-1	n/a	n/a	n/a	n/a	n/a
4371.084	n/a	RECOG_CONF	2185542	n/a	LTP116	ltpFR	0	1	-1	OVEN	991	n/a	1	-1	n/a	n/a	n/a	n/a	n/a
4372.534	n/a	RECOG_TARGET	2186267	n/a	LTP116	ltpFR	0	1	0	SHORE	1291	1	1	1	n/a	n/a	n/a	n/a	n/a
4373.324	n/a	RECOG_RESP	2186662	n/a	LTP116	ltpFR	0	1	0	SHORE	1291	1	n/a	1	n/a	n/a	n/a	n/a	n/a
4374.426	n/a	RECOG_CONF	2187213	n/a	LTP116	ltpFR	0	1	0	SHORE	1291	n/a	1	1	n/a	n/a	n/a	n/a	n/a
4375.86	n/a	RECOG_LURE	2187930	n/a	LTP116	ltpFR	0	1	n/a	CATHEDRAL	260	0	1	n/a	n/a	n/a	n/a	n/a	n/a
4377.534	n/a	RECOG_RESP	2188767	n/a	LTP116	ltpFR	0	1	n/a	CATHEDRAL	260	0	n/a	n/a	n/a	n/a	n/a	n/a	n/a
4378.596	n/a	RECOG_CONF	2189298	n/a	LTP116	ltpFR	0	1	n/a	CATHEDRAL	260	n/a	1	n/a	n/a	n/a	n/a	n/a	n/a
4380.008	n/a	RECOG_TARGET	2190004	n/a	LTP116	ltpFR	0	1	1	HAMMOCK	681	1	1	0	n/a	n/a	n/a	n/a	n/a
4380.93	n/a	RECOG_RESP	2190465	n/a	LTP116	ltpFR	0	1	1	HAMMOCK	681	1	n/a	0	n/a	n/a	n/a	n/a	n/a
4382.05	n/a	RECOG_CONF	2191025	n/a	LTP116	ltpFR	0	1	1	HAMMOCK	681	n/a	1	0	n/a	n/a	n/a	n/a	n/a
4383.442	n/a	RECOG_TARGET	2191721	n/a	LTP116	ltpFR	0	1	1	PUMP	1141	1	1	0	n/a	n/a	n/a	n/a	n/a
4384.494	n/a	RECOG_RESP	2192247	n/a	LTP116	ltpFR	0	1	1	PUMP	1141	1	n/a	0	n/a	n/a	n/a	n/a	n/a
4385.522	n/a	RECOG_CONF	2192761	n/a	LTP116	ltpFR	0	1	1	PUMP	1141	n/a	1	0	n/a	n/a	n/a	n/a	n/a
4386.924	n/a	RECOG_TARGET	2193462	n/a	LTP116	ltpFR	0	1	-1	COCOON	339	1	1	-1	n/a	n/a	n/a	n/a	n/a
4387.742	n/a	RECOG_RESP	2193871	n/a	LTP116	ltpFR	0	1	-1	COCOON	339	1	n/a	-1	n/a	n/a	n/a	n/a	n/a
4388.834	n/a	RECOG_CONF	2194417	n/a	LTP116	ltpFR	0	1	-1	COCOON	339	n/a	1	-1	n/a	n/a	n/a	n/a	n/a
4390.306	n/a	RECOG_TARGET	2195153	n/a	LTP116	ltpFR	0	1	-1	FAMILY	550	1	1	-1	n/a	n/a	n/a	n/a	n/a
4391.124	n/a	RECOG_RESP	2195562	n/a	LTP116	ltpFR	0	1	-1	FAMILY	550	1	n/a	-1	n/a	n/a	n/a	n/a	n/a
4392.186	n/a	RECOG_CONF	2196093	n/a	LTP116	ltpFR	0	1	-1	FAMILY	550	n/a	1	-1	n/a	n/a	n/a	n/a	n/a
4445.522	n/a	REC_START	2222761	n/a	LTP116	ltpFR	0	2	n/a	n/a	n/a	n/a	n/a	n/a	n/a	n/a	n/a	n/a	n/a
4445.554	n/a	RECOG_TARGET	2222777	n/a	LTP116	ltpFR	0	2	1	SPY	1360	1	5	1	n/a	n/a	n/a	n/a	n/a
4447.262	n/a	RECOG_RESP	2223631	n/a	LTP116	ltpFR	0	2	1	SPY	1360	1	n/a	1	n/a	n/a	n/a	n/a	n/a
4448.47	n/a	RECOG_CONF	2224235	n/a	LTP116	ltpFR	0	2	1	SPY	1360	n/a	5	1	n/a	n/a	n/a	n/a	n/a
4449.962	n/a	RECOG_TARGET	2224981	n/a	LTP116	ltpFR	0	2	0	CREAM	402	1	5	0	n/a	n/a	n/a	n/a	n/a
4450.964	n/a	RECOG_RESP	2225482	n/a	LTP116	ltpFR	0	2	0	CREAM	402	1	n/a	0	n/a	n/a	n/a	n/a	n/a
4451.872	n/a	RECOG_CONF	2225936	n/a	LTP116	ltpFR	0	2	0	CREAM	402	n/a	5	0	n/a	n/a	n/a	n/a	n/a
4453.42	n/a	RECOG_LURE	2226710	n/a	LTP116	ltpFR	0	2	n/a	SILVERWARE	1308	0	1	n/a	n/a	n/a	n/a	n/a	n/a
4454.506	n/a	RECOG_RESP	2227253	n/a	LTP116	ltpFR	0	2	n/a	SILVERWARE	1308	0	n/a	n/a	n/a	n/a	n/a	n/a	n/a
4455.982	n/a	RECOG_CONF	2227991	n/a	LTP116	ltpFR	0	2	n/a	SILVERWARE	1308	n/a	1	n/a	n/a	n/a	n/a	n/a	n/a
4457.484	n/a	RECOG_LURE	2228742	n/a	LTP116	ltpFR	0	2	n/a	ROD	1203	0	1	n/a	n/a	n/a	n/a	n/a	n/a
4458.556	n/a	RECOG_RESP	2229278	n/a	LTP116	ltpFR	0	2	n/a	ROD	1203	0	n/a	n/a	n/a	n/a	n/a	n/a	n/a
4459.646	n/a	RECOG_CONF	2229823	n/a	LTP116	ltpFR	0	2	n/a	ROD	1203	n/a	1	n/a	n/a	n/a	n/a	n/a	n/a
4460.902	n/a	RECOG_TARGET	2230451	n/a	LTP116	ltpFR	0	2	0	CANYON	235	1	5	1	n/a	n/a	n/a	n/a	n/a
4466.056	n/a	RECOG_RESP	2233028	n/a	LTP116	ltpFR	0	2	0	CANYON	235	1	n/a	1	n/a	n/a	n/a	n/a	n/a
4468.256	n/a	RECOG_CONF	2234128	n/a	LTP116	ltpFR	0	2	0	CANYON	235	n/a	5	1	n/a	n/a	n/a	n/a	n/a
4469.864	n/a	RECOG_TARGET	2234932	n/a	LTP116	ltpFR	0	2	1	SHARK	1275	1	5	1	n/a	n/a	n/a	n/a	n/a
4471.848	n/a	RECOG_RESP	2235924	n/a	LTP116	ltpFR	0	2	1	SHARK	1275	1	n/a	1	n/a	n/a	n/a	n/a	n/a
4472.806	n/a	RECOG_CONF	2236403	n/a	LTP116	ltpFR	0	2	1	SHARK	1275	n/a	5	1	n/a	n/a	n/a	n/a	n/a
4474.246	n/a	RECOG_TARGET	2237123	n/a	LTP116	ltpFR	0	2	0	SPATULA	1348	1	5	0	n/a	n/a	n/a	n/a	n/a
4475.394	n/a	RECOG_RESP	2237697	n/a	LTP116	ltpFR	0	2	0	SPATULA	1348	1	n/a	0	n/a	n/a	n/a	n/a	n/a
4476.388	n/a	RECOG_CONF	2238194	n/a	LTP116	ltpFR	0	2	0	SPATULA	1348	n/a	5	0	n/a	n/a	n/a	n/a	n/a
4477.712	n/a	RECOG_TARGET	2238856	n/a	LTP116	ltpFR	0	2	0	ERASER	538	0	3	0	n/a	n/a	n/a	n/a	n/a
4479.282	n/a	RECOG_RESP	2239641	n/a	LTP116	ltpFR	0	2	0	ERASER	538	0	n/a	0	n/a	n/a	n/a	n/a	n/a
4480.608	n/a	RECOG_CONF	2240304	n/a	LTP116	ltpFR	0	2	0	ERASER	538	n/a	3	0	n/a	n/a	n/a	n/a	n/a
4481.92	n/a	RECOG_TARGET	2240960	n/a	LTP116	ltpFR	0	2	1	MEAT	883	1	5	0	n/a	n/a	n/a	n/a	n/a
4483.412	n/a	RECOG_RESP	2241706	n/a	LTP116	ltpFR	0	2	1	MEAT	883	1	n/a	0	n/a	n/a	n/a	n/a	n/a
4485.128	n/a	RECOG_CONF	2242564	n/a	LTP116	ltpFR	0	2	1	MEAT	883	n/a	5	0	n/a	n/a	n/a	n/a	n/a
4486.492	n/a	RECOG_TARGET	2243246	n/a	LTP116	ltpFR	0	2	-1	KEY	773	1	5	-1	n/a	n/a	n/a	n/a	n/a
4488.246	n/a	RECOG_RESP	2244123	n/a	LTP116	ltpFR	0	2	-1	KEY	773	1	n/a	-1	n/a	n/a	n/a	n/a	n/a
4489.12	n/a	RECOG_CONF	2244560	n/a	LTP116	ltpFR	0	2	-1	KEY	773	n/a	5	-1	n/a	n/a	n/a	n/a	n/a
4490.442	n/a	RECOG_TARGET	2245221	n/a	LTP116	ltpFR	0	2	1	PUCK	1138	1	3	0	n/a	n/a	n/a	n/a	n/a
4492.8	n/a	RECOG_RESP	2246400	n/a	LTP116	ltpFR	0	2	1	PUCK	1138	1	n/a	0	n/a	n/a	n/a	n/a	n/a
4493.738	n/a	RECOG_CONF	2246869	n/a	LTP116	ltpFR	0	2	1	PUCK	1138	n/a	3	0	n/a	n/a	n/a	n/a	n/a
4495.032	n/a	RECOG_LURE	2247516	n/a	LTP116	ltpFR	0	2	n/a	IDOL	733	1	3	n/a	n/a	n/a	n/a	n/a	n/a
4498.05	n/a	RECOG_RESP	2249025	n/a	LTP116	ltpFR	0	2	n/a	IDOL	733	1	n/a	n/a	n/a	n/a	n/a	n/a	n/a
4500.056	n/a	RECOG_CONF	2250028	n/a	LTP116	ltpFR	0	2	n/a	IDOL	733	n/a	3	n/a	n/a	n/a	n/a	n/a	n/a
4501.688	n/a	RECOG_TARGET	2250844	n/a	LTP116	ltpFR	0	2	0	COLESLAW	344	1	5	0	n/a	n/a	n/a	n/a	n/a
4503.168	n/a	RECOG_RESP	2251584	n/a	LTP116	ltpFR	0	2	0	COLESLAW	344	1	n/a	0	n/a	n/a	n/a	n/a	n/a
4504.186	n/a	RECOG_CONF	2252093	n/a	LTP116	ltpFR	0	2	0	COLESLAW	344	n/a	5	0	n/a	n/a	n/a	n/a	n/a
4505.862	n/a	RECOG_TARGET	2252931	n/a	LTP116	ltpFR	0	2	1	LIME	823	1	5	1	n/a	n/a	n/a	n/a	n/a
4506.766	n/a	RECOG_RESP	2253383	n/a	LTP116	ltpFR	0	2	1	LIME	823	1	n/a	1	n/a	n/a	n/a	n/a	n/a
4508.196	n/a	RECOG_CONF	2254098	n/a	LTP116	ltpFR	0	2	1	LIME	823	n/a	5	1	n/a	n/a	n/a	n/a	n/a
4509.552	n/a	RECOG_TARGET	2254776	n/a	LTP116	ltpFR	0	2	0	GUARD	667	1	5	1	n/a	n/a	n/a	n/a	n/a
4510.446	n/a	RECOG_RESP	2255223	n/a	LTP116	ltpFR	0	2	0	GUARD	667	1	n/a	1	n/a	n/a	n/a	n/a	n/a
4511.46	n/a	RECOG_CONF	2255730	n/a	LTP116	ltpFR	0	2	0	GUARD	667	n/a	5	1	n/a	n/a	n/a	n/a	n/a
4512.768	n/a	RECOG_TARGET	2256384	n/a	LTP116	ltpFR	0	2	-1	MILITARY	894	1	5	-1	n/a	n/a	n/a	n/a	n/a
4513.574	n/a	RECOG_RESP	2256787	n/a	LTP116	ltpFR	0	2	-1	MILITARY	894	1	n/a	-1	n/a	n/a	n/a	n/a	n/a
4514.512	n/a	RECOG_CONF	2257256	n/a	LTP116	ltpFR	0	2	-1	MILITARY	894	n/a	5	-1	n/a	n/a	n/a	n/a	n/a
4516.034	n/a	RECOG_TARGET	2258017	n/a	LTP116	ltpFR	0	2	0	CLOTHES	327	1	5	1	n/a	n/a	n/a	n/a	n/a
4517.312	n/a	RECOG_RESP	2258656	n/a	LTP116	ltpFR	0	2	0	CLOTHES	327	1	n/a	1	n/a	n/a	n/a	n/a	n/a
4518.216	n/a	RECOG_CONF	2259108	n/a	LTP116	ltpFR	0	2	0	CLOTHES	327	n/a	5	1	n/a	n/a	n/a	n/a	n/a
4519.566	n/a	RECOG_TARGET	2259783	n/a	LTP116	ltpFR	0	2	1	ASSOCIATE	49	1	3	1	n/a	n/a	n/a	n/a	n/a
4522.132	n/a	RECOG_RESP	2261066	n/a	LTP116	ltpFR	0	2	1	ASSOCIATE	49	1	n/a	1	n/a	n/a	n/a	n/a	n/a
4523.104	n/a	RECOG_CONF	2261552	n/a	LTP116	ltpFR	0	2	1	ASSOCIATE	49	n/a	3	1	n/a	n/a	n/a	n/a	n/a
4524.764	n/a	RECOG_TARGET	2262382	n/a	LTP116	ltpFR	0	2	0	KEYBOARD	774	1	5	0	n/a	n/a	n/a	n/a	n/a
4525.882	n/a	RECOG_RESP	2262941	n/a	LTP116	ltpFR	0	2	0	KEYBOARD	774	1	n/a	0	n/a	n/a	n/a	n/a	n/a
4527.036	n/a	RECOG_CONF	2263518	n/a	LTP116	ltpFR	0	2	0	KEYBOARD	774	n/a	5	0	n/a	n/a	n/a	n/a	n/a
4528.338	n/a	RECOG_TARGET	2264169	n/a	LTP116	ltpFR	0	2	0	LIP	828	1	5	0	n/a	n/a	n/a	n/a	n/a
4530.916	n/a	RECOG_RESP	2265458	n/a	LTP116	ltpFR	0	2	0	LIP	828	1	n/a	0	n/a	n/a	n/a	n/a	n/a
4532.612	n/a	RECOG_CONF	2266306	n/a	LTP116	ltpFR	0	2	0	LIP	828	n/a	5	0	n/a	n/a	n/a	n/a	n/a
4550.464	n/a	REC_START	2275232	n/a	LTP116	ltpFR	0	3	n/a	n/a	n/a	n/a	n/a	n/a	n/a	n/a	n/a	n/a	n/a
4550.498	n/a	RECOG_TARGET	2275249	n/a	LTP116	ltpFR	0	3	0	CAKE	219	1	5	1	n/a	n/a	n/a	n/a	n/a
4551.92	n/a	RECOG_RESP	2275960	n/a	LTP116	ltpFR	0	3	0	CAKE	219	1	n/a	1	n/a	n/a	n/a	n/a	n/a
4553.302	n/a	RECOG_CONF	2276651	n/a	LTP116	ltpFR	0	3	0	CAKE	219	n/a	5	1	n/a	n/a	n/a	n/a	n/a
4554.938	n/a	RECOG_LURE	2277469	n/a	LTP116	ltpFR	0	3	n/a	SOCK	1339	0	5	n/a	n/a	n/a	n/a	n/a	n/a
4556.062	n/a	RECOG_RESP	2278031	n/a	LTP116	ltpFR	0	3	n/a	SOCK	1339	0	n/a	n/a	n/a	n/a	n/a	n/a	n/a
4557.134	n/a	RECOG_CONF	2278567	n/a	LTP116	ltpFR	0	3	n/a	SOCK	1339	n/a	5	n/a	n/a	n/a	n/a	n/a	n/a
4558.738	n/a	RECOG_TARGET	2279369	n/a	LTP116	ltpFR	0	3	-1	LUNCH	849	1	5	-1	n/a	n/a	n/a	n/a	n/a
4559.898	n/a	RECOG_RESP	2279949	n/a	LTP116	ltpFR	0	3	-1	LUNCH	849	1	n/a	-1	n/a	n/a	n/a	n/a	n/a
4561.066	n/a	RECOG_CONF	2280533	n/a	LTP116	ltpFR	0	3	-1	LUNCH	849	n/a	5	-1	n/a	n/a	n/a	n/a	n/a
4562.528	n/a	RECOG_TARGET	2281264	n/a	LTP116	ltpFR	0	3	1	WASHER	1592	0	5	0	n/a	n/a	n/a	n/a	n/a
4563.958	n/a	RECOG_RESP	2281979	n/a	LTP116	ltpFR	0	3	1	WASHER	1592	0	n/a	0	n/a	n/a	n/a	n/a	n/a
4565.026	n/a	RECOG_CONF	2282513	n/a	LTP116	ltpFR	0	3	1	WASHER	1592	n/a	5	0	n/a	n/a	n/a	n/a	n/a
4566.642	n/a	RECOG_TARGET	2283321	n/a	LTP116	ltpFR	0	3	0	SOCIETY	1338	1	5	1	n/a	n/a	n/a	n/a	n/a
4567.844	n/a	RECOG_RESP	2283922	n/a	LTP116	ltpFR	0	3	0	SOCIETY	1338	1	n/a	1	n/a	n/a	n/a	n/a	n/a
4569.008	n/a	RECOG_CONF	2284504	n/a	LTP116	ltpFR	0	3	0	SOCIETY	1338	n/a	5	1	n/a	n/a	n/a	n/a	n/a
4570.574	n/a	RECOG_TARGET	2285287	n/a	LTP116	ltpFR	0	3	1	SKIN	1318	1	5	0	n/a	n/a	n/a	n/a	n/a
4571.396	n/a	RECOG_RESP	2285698	n/a	LTP116	ltpFR	0	3	1	SKIN	1318	1	n/a	0	n/a	n/a	n/a	n/a	n/a
4572.43	n/a	RECOG_CONF	2286215	n/a	LTP116	ltpFR	0	3	1	SKIN	1318	n/a	5	0	n/a	n/a	n/a	n/a	n/a
4573.95	n/a	RECOG_LURE	2286975	n/a	LTP116	ltpFR	0	3	n/a	AIRPORT	13	0	5	n/a	n/a	n/a	n/a	n/a	n/a
4574.844	n/a	RECOG_RESP	2287422	n/a	LTP116	ltpFR	0	3	n/a	AIRPORT	13	0	n/a	n/a	n/a	n/a	n/a	n/a	n/a
4575.962	n/a	RECOG_CONF	2287981	n/a	LTP116	ltpFR	0	3	n/a	AIRPORT	13	n/a	5	n/a	n/a	n/a	n/a	n/a	n/a
4577.316	n/a	RECOG_LURE	2288658	n/a	LTP116	ltpFR	0	3	n/a	DIAL	457	0	4	n/a	n/a	n/a	n/a	n/a	n/a
4578.546	n/a	RECOG_RESP	2289273	n/a	LTP116	ltpFR	0	3	n/a	DIAL	457	0	n/a	n/a	n/a	n/a	n/a	n/a	n/a
4579.904	n/a	RECOG_CONF	2289952	n/a	LTP116	ltpFR	0	3	n/a	DIAL	457	n/a	4	n/a	n/a	n/a	n/a	n/a	n/a
4581.406	n/a	RECOG_LURE	2290703	n/a	LTP116	ltpFR	0	3	n/a	CARAVAN	242	1	3	n/a	n/a	n/a	n/a	n/a	n/a
4584.532	n/a	RECOG_RESP	2292266	n/a	LTP116	ltpFR	0	3	n/a	CARAVAN	242	1	n/a	n/a	n/a	n/a	n/a	n/a	n/a
4585.75	n/a	RECOG_CONF	2292875	n/a	LTP116	ltpFR	0	3	n/a	CARAVAN	242	n/a	3	n/a	n/a	n/a	n/a	n/a	n/a
4587.262	n/a	RECOG_TARGET	2293631	n/a	LTP116	ltpFR	0	3	0	HAY	693	1	5	1	n/a	n/a	n/a	n/a	n/a
4588.638	n/a	RECOG_RESP	2294319	n/a	LTP116	ltpFR	0	3	0	HAY	693	1	n/a	1	n/a	n/a	n/a	n/a	n/a
4589.752	n/a	RECOG_CONF	2294876	n/a	LTP116	ltpFR	0	3	0	HAY	693	n/a	5	1	n/a	n/a	n/a	n/a	n/a
4591.302	n/a	RECOG_LURE	2295651	n/a	LTP116	ltpFR	0	3	n/a	RACCOON	1153	1	3	n/a	n/a	n/a	n/a	n/a	n/a
4592.784	n/a	RECOG_RESP	2296392	n/a	LTP116	ltpFR	0	3	n/a	RACCOON	1153	1	n/a	n/a	n/a	n/a	n/a	n/a	n/a
4594.76	n/a	RECOG_CONF	2297380	n/a	LTP116	ltpFR	0	3	n/a	RACCOON	1153	n/a	3	n/a	n/a	n/a	n/a	n/a	n/a
4596.326	n/a	RECOG_TARGET	2298163	n/a	LTP116	ltpFR	0	3	1	TORCH	1484	1	5	0	n/a	n/a	n/a	n/a	n/a
4598.348	n/a	RECOG_RESP	2299174	n/a	LTP116	ltpFR	0	3	1	TORCH	1484	1	n/a	0	n/a	n/a	n/a	n/a	n/a
4599.33	n/a	RECOG_CONF	2299665	n/a	LTP116	ltpFR	0	3	1	TORCH	1484	n/a	5	0	n/a	n/a	n/a	n/a	n/a
4600.884	n/a	RECOG_TARGET	2300442	n/a	LTP116	ltpFR	0	3	1	WATERFALL	1595	1	5	0	n/a	n/a	n/a	n/a	n/a
4601.69	n/a	RECOG_RESP	2300845	n/a	LTP116	ltpFR	0	3	1	WATERFALL	1595	1	n/a	0	n/a	n/a	n/a	n/a	n/a
4602.812	n/a	RECOG_CONF	2301406	n/a	LTP116	ltpFR	0	3	1	WATERFALL	1595	n/a	5	0	n/a	n/a	n/a	n/a	n/a
4604.224	n/a	RECOG_TARGET	2302112	n/a	LTP116	ltpFR	0	3	1	POCKETBOOK	1094	1	3	0	n/a	n/a	n/a	n/a	n/a
4605.162	n/a	RECOG_RESP	2302581	n/a	LTP116	ltpFR	0	3	1	POCKETBOOK	1094	1	n/a	0	n/a	n/a	n/a	n/a	n/a
4606.594	n/a	RECOG_CONF	2303297	n/a	LTP116	ltpFR	0	3	1	POCKETBOOK	1094	n/a	3	0	n/a	n/a	n/a	n/a	n/a
4608.014	n/a	RECOG_TARGET	2304007	n/a	LTP116	ltpFR	0	3	-1	KETCHUP	771	1	5	-1	n/a	n/a	n/a	n/a	n/a
4608.814	n/a	RECOG_RESP	2304407	n/a	LTP116	ltpFR	0	3	-1	KETCHUP	771	1	n/a	-1	n/a	n/a	n/a	n/a	n/a
4609.846	n/a	RECOG_CONF	2304923	n/a	LTP116	ltpFR	0	3	-1	KETCHUP	771	n/a	5	-1	n/a	n/a	n/a	n/a	n/a
4611.214	n/a	RECOG_TARGET	2305607	n/a	LTP116	ltpFR	0	3	1	HATCHET	691	1	5	0	n/a	n/a	n/a	n/a	n/a
4612.306	n/a	RECOG_RESP	2306153	n/a	LTP116	ltpFR	0	3	1	HATCHET	691	1	n/a	0	n/a	n/a	n/a	n/a	n/a
4613.288	n/a	RECOG_CONF	2306644	n/a	LTP116	ltpFR	0	3	1	HATCHET	691	n/a	5	0	n/a	n/a	n/a	n/a	n/a
4614.704	n/a	RECOG_LURE	2307352	n/a	LTP116	ltpFR	0	3	n/a	LIEUTENANT	818	0	5	n/a	n/a	n/a	n/a	n/a	n/a
4616.028	n/a	RECOG_RESP	2308014	n/a	LTP116	ltpFR	0	3	n/a	LIEUTENANT	818	0	n/a	n/a	n/a	n/a	n/a	n/a	n/a
4617.06	n/a	RECOG_CONF	2308530	n/a	LTP116	ltpFR	0	3	n/a	LIEUTENANT	818	n/a	5	n/a	n/a	n/a	n/a	n/a	n/a
4618.42	n/a	RECOG_TARGET	2309210	n/a	LTP116	ltpFR	0	3	1	TIDE	1465	0	3	0	n/a	n/a	n/a	n/a	n/a
4621.446	n/a	RECOG_RESP	2310723	n/a	LTP116	ltpFR	0	3	1	TIDE	1465	0	n/a	0	n/a	n/a	n/a	n/a	n/a
4622.488	n/a	RECOG_CONF	2311244	n/a	LTP116	ltpFR	0	3	1	TIDE	1465	n/a	3	0	n/a	n/a	n/a	n/a	n/a
4623.968	n/a	RECOG_TARGET	2311984	n/a	LTP116	ltpFR	0	3	1	DOLLAR	482	0	3	0	n/a	n/a	n/a	n/a	n/a
4626.26	n/a	RECOG_RESP	2313130	n/a	LTP116	ltpFR	0	3	1	DOLLAR	482	0	n/a	0	n/a	n/a	n/a	n/a	n/a
4627.816	n/a	RECOG_CONF	2313908	n/a	LTP116	ltpFR	0	3	1	DOLLAR	482	n/a	3	0	n/a	n/a	n/a	n/a	n/a
4629.266	n/a	RECOG_TARGET	2314633	n/a	LTP116	ltpFR	0	3	-1	TUNA	1518	1	5	-1	n/a	n/a	n/a	n/a	n/a
4630.316	n/a	RECOG_RESP	2315158	n/a	LTP116	ltpFR	0	3	-1	TUNA	1518	1	n/a	-1	n/a	n/a	n/a	n/a	n/a
4631.288	n/a	RECOG_CONF	2315644	n/a	LTP116	ltpFR	0	3	-1	TUNA	1518	n/a	5	-1	n/a	n/a	n/a	n/a	n/a
4678.168	n/a	REC_START	2339084	n/a	LTP116	ltpFR	0	4	n/a	n/a	n/a	n/a	n/a	n/a	n/a	n/a	n/a	n/a	n/a
4678.202	n/a	RECOG_TARGET	2339101	n/a	LTP116	ltpFR	0	4	1	SAUSAGE	1238	1	5	0	n/a	n/a	n/a	n/a	n/a
4679.142	n/a	RECOG_RESP	2339571	n/a	LTP116	ltpFR	0	4	1	SAUSAGE	1238	1	n/a	0	n/a	n/a	n/a	n/a	n/a
4680.238	n/a	RECOG_CONF	2340119	n/a	LTP116	ltpFR	0	4	1	SAUSAGE	1238	n/a	5	0	n/a	n/a	n/a	n/a	n/a
4681.524	n/a	RECOG_TARGET	2340762	n/a	LTP116	ltpFR	0	4	-1	SUIT	1402	1	5	-1	n/a	n/a	n/a	n/a	n/a
4683.052	n/a	RECOG_RESP	2341526	n/a	LTP116	ltpFR	0	4	-1	SUIT	1402	1	n/a	-1	n/a	n/a	n/a	n/a	n/a
4684.13	n/a	RECOG_CONF	2342065	n/a	LTP116	ltpFR	0	4	-1	SUIT	1402	n/a	5	-1	n/a	n/a	n/a	n/a	n/a
4685.69	n/a	RECOG_TARGET	2342845	n/a	LTP116	ltpFR	0	4	0	MITTEN	902	1	5	0	n/a	n/a	n/a	n/a	n/a
4686.66	n/a	RECOG_RESP	2343330	n/a	LTP116	ltpFR	0	4	0	MITTEN	902	1	n/a	0	n/a	n/a	n/a	n/a	n/a
4687.692	n/a	RECOG_CONF	2343846	n/a	LTP116	ltpFR	0	4	0	MITTEN	902	n/a	5	0	n/a	n/a	n/a	n/a	n/a
4688.982	n/a	RECOG_TARGET	2344491	n/a	LTP116	ltpFR	0	4	1	HOOK	715	1	3	0	n/a	n/a	n/a	n/a	n/a
4690.45	n/a	RECOG_RESP	2345225	n/a	LTP116	ltpFR	0	4	1	HOOK	715	1	n/a	0	n/a	n/a	n/a	n/a	n/a
4691.404	n/a	RECOG_CONF	2345702	n/a	LTP116	ltpFR	0	4	1	HOOK	715	n/a	3	0	n/a	n/a	n/a	n/a	n/a
4692.73	n/a	RECOG_TARGET	2346365	n/a	LTP116	ltpFR	0	4	1	PITCHFORK	1078	1	3	0	n/a	n/a	n/a	n/a	n/a
4693.748	n/a	RECOG_RESP	2346874	n/a	LTP116	ltpFR	0	4	1	PITCHFORK	1078	1	n/a	0	n/a	n/a	n/a	n/a	n/a
4694.946	n/a	RECOG_CONF	2347473	n/a	LTP116	ltpFR	0	4	1	PITCHFORK	1078	n/a	3	0	n/a	n/a	n/a	n/a	n/a
4696.578	n/a	RECOG_LURE	2348289	n/a	LTP116	ltpFR	0	4	n/a	CONE	363	0	3	n/a	n/a	n/a	n/a	n/a	n/a
4697.75	n/a	RECOG_RESP	2348875	n/a	LTP116	ltpFR	0	4	n/a	CONE	363	0	n/a	n/a	n/a	n/a	n/a	n/a	n/a
4699.606	n/a	RECOG_CONF	2349803	n/a	LTP116	ltpFR	0	4	n/a	CONE	363	n/a	3	n/a	n/a	n/a	n/a	n/a	n/a
4701.02	n/a	RECOG_TARGET	2350510	n/a	LTP116	ltpFR	0	4	0	BLACKBERRY	132	1	3	0	n/a	n/a	n/a	n/a	n/a
4702.026	n/a	RECOG_RESP	2351013	n/a	LTP116	ltpFR	0	4	0	BLACKBERRY	132	1	n/a	0	n/a	n/a	n/a	n/a	n/a
4703.288	n/a	RECOG_CONF	2351644	n/a	LTP116	ltpFR	0	4	0	BLACKBERRY	132	n/a	3	0	n/a	n/a	n/a	n/a	n/a
4704.826	n/a	RECOG_TARGET	2352413	n/a	LTP116	ltpFR	0	4	0	PIANO	1057	1	3	1	n/a	n/a	n/a	n/a	n/a
4705.972	n/a	RECOG_RESP	2352986	n/a	LTP116	ltpFR	0	4	0	PIANO	1057	1	n/a	1	n/a	n/a	n/a	n/a	n/a
4707.098	n/a	RECOG_CONF	2353549	n/a	LTP116	ltpFR	0	4	0	PIANO	1057	n/a	3	1	n/a	n/a	n/a	n/a	n/a
4708.466	n/a	RECOG_TARGET	2354233	n/a	LTP116	ltpFR	0	4	-1	MARBLE	867	1	3	-1	n/a	n/a	n/a	n/a	n/a
4709.228	n/a	RECOG_RESP	2354614	n/a	LTP116	ltpFR	0	4	-1	MARBLE	867	1	n/a	-1	n/a	n/a	n/a	n/a	n/a
4710.332	n/a	RECOG_CONF	2355166	n/a	LTP116	ltpFR	0	4	-1	MARBLE	867	n/a	3	-1	n/a	n/a	n/a	n/a	n/a
4711.666	n/a	RECOG_TARGET	2355833	n/a	LTP116	ltpFR	0	4	0	GORILLA	650	1	3	1	n/a	n/a	n/a	n/a	n/a
4712.352	n/a	RECOG_RESP	2356176	n/a	LTP116	ltpFR	0	4	0	GORILLA	650	1	n/a	1	n/a	n/a	n/a	n/a	n/a
4713.496	n/a	RECOG_CONF	2356748	n/a	LTP116	ltpFR	0	4	0	GORILLA	650	n/a	3	1	n/a	n/a	n/a	n/a	n/a
4714.774	n/a	RECOG_TARGET	2357387	n/a	LTP116	ltpFR	0	4	-1	COLLAR	345	1	3	-1	n/a	n/a	n/a	n/a	n/a
4715.734	n/a	RECOG_RESP	2357867	n/a	LTP116	ltpFR	0	4	-1	COLLAR	345	1	n/a	-1	n/a	n/a	n/a	n/a	n/a
4716.918	n/a	RECOG_CONF	2358459	n/a	LTP116	ltpFR	0	4	-1	COLLAR	345	n/a	3	-1	n/a	n/a	n/a	n/a	n/a
4718.272	n/a	RECOG_TARGET	2359136	n/a	LTP116	ltpFR	0	4	1	DEPUTY	450	1	3	1	n/a	n/a	n/a	n/a	n/a
4719.412	n/a	RECOG_RESP	2359706	n/a	LTP116	ltpFR	0	4	1	DEPUTY	450	1	n/a	1	n/a	n/a	n/a	n/a	n/a
4720.55	n/a	RECOG_CONF	2360275	n/a	LTP116	ltpFR	0	4	1	DEPUTY	450	n/a	3	1	n/a	n/a	n/a	n/a	n/a
4721.98	n/a	RECOG_LURE	2360990	n/a	LTP116	ltpFR	0	4	n/a	BOULEVARD	156	0	5	n/a	n/a	n/a	n/a	n/a	n/a
4723.078	n/a	RECOG_RESP	2361539	n/a	LTP116	ltpFR	0	4	n/a	BOULEVARD	156	0	n/a	n/a	n/a	n/a	n/a	n/a	n/a
4724.13	n/a	RECOG_CONF	2362065	n/a	LTP116	ltpFR	0	4	n/a	BOULEVARD	156	n/a	5	n/a	n/a	n/a	n/a	n/a	n/a
4725.57	n/a	RECOG_TARGET	2362785	n/a	LTP116	ltpFR	0	4	1	SUMMIT	1405	1	5	0	n/a	n/a	n/a	n/a	n/a
4727.898	n/a	RECOG_RESP	2363949	n/a	LTP116	ltpFR	0	4	1	SUMMIT	1405	1	n/a	0	n/a	n/a	n/a	n/a	n/a
4731.036	n/a	RECOG_CONF	2365518	n/a	LTP116	ltpFR	0	4	1	SUMMIT	1405	n/a	5	0	n/a	n/a	n/a	n/a	n/a
4732.452	n/a	RECOG_TARGET	2366226	n/a	LTP116	ltpFR	0	4	1	CAT	257	0	3	1	n/a	n/a	n/a	n/a	n/a
4735.776	n/a	RECOG_RESP	2367888	n/a	LTP116	ltpFR	0	4	1	CAT	257	0	n/a	1	n/a	n/a	n/a	n/a	n/a
4736.852	n/a	RECOG_CONF	2368426	n/a	LTP116	ltpFR	0	4	1	CAT	257	n/a	3	1	n/a	n/a	n/a	n/a	n/a
4738.35	n/a	RECOG_LURE	2369175	n/a	LTP116	ltpFR	0	4	n/a	CHEST	295	0	3	n/a	n/a	n/a	n/a	n/a	n/a
4740.24	n/a	RECOG_RESP	2370120	n/a	LTP116	ltpFR	0	4	n/a	CHEST	295	0	n/a	n/a	n/a	n/a	n/a	n/a	n/a
4741.194	n/a	RECOG_CONF	2370597	n/a	LTP116	ltpFR	0	4	n/a	CHEST	295	n/a	3	n/a	n/a	n/a	n/a	n/a	n/a
4742.59	n/a	RECOG_TARGET	2371295	n/a	LTP116	ltpFR	0	4	0	GLASSES	640	1	3	0	n/a	n/a	n/a	n/a	n/a
4744.66	n/a	RECOG_RESP	2372330	n/a	LTP116	ltpFR	0	4	0	GLASSES	640	1	n/a	0	n/a	n/a	n/a	n/a	n/a
4745.992	n/a	RECOG_CONF	2372996	n/a	LTP116	ltpFR	0	4	0	GLASSES	640	n/a	3	0	n/a	n/a	n/a	n/a	n/a
4747.33	n/a	RECOG_TARGET	2373665	n/a	LTP116	ltpFR	0	4	-1	SNAKE	1333	1	5	-1	n/a	n/a	n/a	n/a	n/a
4749.964	n/a	RECOG_RESP	2374982	n/a	LTP116	ltpFR	0	4	-1	SNAKE	1333	1	n/a	-1	n/a	n/a	n/a	n/a	n/a
4751.012	n/a	RECOG_CONF	2375506	n/a	LTP116	ltpFR	0	4	-1	SNAKE	1333	n/a	5	-1	n/a	n/a	n/a	n/a	n/a
4752.472	n/a	RECOG_LURE	2376236	n/a	LTP116	ltpFR	0	4	n/a	BASSINET	97	0	5	n/a	n/a	n/a	n/a	n/a	n/a
4753.58	n/a	RECOG_RESP	2376790	n/a	LTP116	ltpFR	0	4	n/a	BASSINET	97	0	n/a	n/a	n/a	n/a	n/a	n/a	n/a
4754.912	n/a	RECOG_CONF	2377456	n/a	LTP116	ltpFR	0	4	n/a	BASSINET	97	n/a	5	n/a	n/a	n/a	n/a	n/a	n/a
4756.294	n/a	RECOG_LURE	2378147	n/a	LTP116	ltpFR	0	4	n/a	PLAZA	1088	0	5	n/a	n/a	n/a	n/a	n/a	n/a
4758.46	n/a	RECOG_RESP	2379230	n/a	LTP116	ltpFR	0	4	n/a	PLAZA	1088	0	n/a	n/a	n/a	n/a	n/a	n/a	n/a
4759.552	n/a	RECOG_CONF	2379776	n/a	LTP116	ltpFR	0	4	n/a	PLAZA	1088	n/a	5	n/a	n/a	n/a	n/a	n/a	n/a
4781.942	n/a	REC_START	2390971	n/a	LTP116	ltpFR	0	5	n/a	n/a	n/a	n/a	n/a	n/a	n/a	n/a	n/a	n/a	n/a
4781.978	n/a	RECOG_TARGET	2390989	n/a	LTP116	ltpFR	0	5	-1	BATHTUB	100	1	5	-1	n/a	n/a	n/a	n/a	n/a
4782.994	n/a	RECOG_RESP	2391497	n/a	LTP116	ltpFR	0	5	-1	BATHTUB	100	1	n/a	-1	n/a	n/a	n/a	n/a	n/a
4783.822	n/a	RECOG_CONF	2391911	n/a	LTP116	ltpFR	0	5	-1	BATHTUB	100	n/a	5	-1	n/a	n/a	n/a	n/a	n/a
4785.152	n/a	RECOG_LURE	2392576	n/a	LTP116	ltpFR	0	5	n/a	CRUTCH	417	1	3	n/a	n/a	n/a	n/a	n/a	n/a
4786.61	n/a	RECOG_RESP	2393305	n/a	LTP116	ltpFR	0	5	n/a	CRUTCH	417	1	n/a	n/a	n/a	n/a	n/a	n/a	n/a
4788.882	n/a	RECOG_CONF	2394441	n/a	LTP116	ltpFR	0	5	n/a	CRUTCH	417	n/a	3	n/a	n/a	n/a	n/a	n/a	n/a
4790.36	n/a	RECOG_TARGET	2395180	n/a	LTP116	ltpFR	0	5	0	GRILL	661	1	5	1	n/a	n/a	n/a	n/a	n/a
4791.44	n/a	RECOG_RESP	2395720	n/a	LTP116	ltpFR	0	5	0	GRILL	661	1	n/a	1	n/a	n/a	n/a	n/a	n/a
4792.474	n/a	RECOG_CONF	2396237	n/a	LTP116	ltpFR	0	5	0	GRILL	661	n/a	5	1	n/a	n/a	n/a	n/a	n/a
4793.758	n/a	RECOG_TARGET	2396879	n/a	LTP116	ltpFR	0	5	-1	IGLOO	734	1	5	-1	n/a	n/a	n/a	n/a	n/a
4794.554	n/a	RECOG_RESP	2397277	n/a	LTP116	ltpFR	0	5	-1	IGLOO	734	1	n/a	-1	n/a	n/a	n/a	n/a	n/a
4795.706	n/a	RECOG_CONF	2397853	n/a	LTP116	ltpFR	0	5	-1	IGLOO	734	n/a	5	-1	n/a	n/a	n/a	n/a	n/a
4797.116	n/a	RECOG_TARGET	2398558	n/a	LTP116	ltpFR	0	5	-1	BLOUSE	139	1	5	-1	n/a	n/a	n/a	n/a	n/a
4797.856	n/a	RECOG_RESP	2398928	n/a	LTP116	ltpFR	0	5	-1	BLOUSE	139	1	n/a	-1	n/a	n/a	n/a	n/a	n/a
4798.958	n/a	RECOG_CONF	2399479	n/a	LTP116	ltpFR	0	5	-1	BLOUSE	139	n/a	5	-1	n/a	n/a	n/a	n/a	n/a
4800.364	n/a	RECOG_TARGET	2400182	n/a	LTP116	ltpFR	0	5	-1	TRAY	1498	1	5	-1	n/a	n/a	n/a	n/a	n/a
4801.264	n/a	RECOG_RESP	2400632	n/a	LTP116	ltpFR	0	5	-1	TRAY	1498	1	n/a	-1	n/a	n/a	n/a	n/a	n/a
4802.42	n/a	RECOG_CONF	2401210	n/a	LTP116	ltpFR	0	5	-1	TRAY	1498	n/a	5	-1	n/a	n/a	n/a	n/a	n/a
4803.662	n/a	RECOG_TARGET	2401831	n/a	LTP116	ltpFR	0	5	1	NUN	962	1	5	1	n/a	n/a	n/a	n/a	n/a
4804.656	n/a	RECOG_RESP	2402328	n/a	LTP116	ltpFR	0	5	1	NUN	962	1	n/a	1	n/a	n/a	n/a	n/a	n/a
4805.882	n/a	RECOG_CONF	2402941	n/a	LTP116	ltpFR	0	5	1	NUN	962	n/a	5	1	n/a	n/a	n/a	n/a	n/a
4807.304	n/a	RECOG_TARGET	2403652	n/a	LTP116	ltpFR	0	5	-1	BUGGY	188	1	5	-1	n/a	n/a	n/a	n/a	n/a
4807.858	n/a	RECOG_RESP	2403929	n/a	LTP116	ltpFR	0	5	-1	BUGGY	188	1	n/a	-1	n/a	n/a	n/a	n/a	n/a
4809.036	n/a	RECOG_CONF	2404518	n/a	LTP116	ltpFR	0	5	-1	BUGGY	188	n/a	5	-1	n/a	n/a	n/a	n/a	n/a
4810.396	n/a	RECOG_TARGET	2405198	n/a	LTP116	ltpFR	0	5	0	PEN	1041	1	5	0	n/a	n/a	n/a	n/a	n/a
4811.072	n/a	RECOG_RESP	2405536	n/a	LTP116	ltpFR	0	5	0	PEN	1041	1	n/a	0	n/a	n/a	n/a	n/a	n/a
4812.09	n/a	RECOG_CONF	2406045	n/a	LTP116	ltpFR	0	5	0	PEN	1041	n/a	5	0	n/a	n/a	n/a	n/a	n/a
4813.37	n/a	RECOG_TARGET	2406685	n/a	LTP116	ltpFR	0	5	1	RANCH	1166	1	5	0	n/a	n/a	n/a	n/a	n/a
4814.106	n/a	RECOG_RESP	2407053	n/a	LTP116	ltpFR	0	5	1	RANCH	1166	1	n/a	0	n/a	n/a	n/a	n/a	n/a
4815.192	n/a	RECOG_CONF	2407596	n/a	LTP116	ltpFR	0	5	1	RANCH	1166	n/a	5	0	n/a	n/a	n/a	n/a	n/a
4816.484	n/a	RECOG_LURE	2408242	n/a	LTP116	ltpFR	0	5	n/a	THRONE	1461	0	5	n/a	n/a	n/a	n/a	n/a	n/a
4817.298	n/a	RECOG_RESP	2408649	n/a	LTP116	ltpFR	0	5	n/a	THRONE	1461	0	n/a	n/a	n/a	n/a	n/a	n/a	n/a
4818.216	n/a	RECOG_CONF	2409108	n/a	LTP116	ltpFR	0	5	n/a	THRONE	1461	n/a	5	n/a	n/a	n/a	n/a	n/a	n/a
4819.65	n/a	RECOG_TARGET	2409825	n/a	LTP116	ltpFR	0	5	1	FARM	552	0	5	0	n/a	n/a	n/a	n/a	n/a
4820.636	n/a	RECOG_RESP	2410318	n/a	LTP116	ltpFR	0	5	1	FARM	552	0	n/a	0	n/a	n/a	n/a	n/a	n/a
4821.678	n/a	RECOG_CONF	2410839	n/a	LTP116	ltpFR	0	5	1	FARM	552	n/a	5	0	n/a	n/a	n/a	n/a	n/a
4822.74	n/a	RECOG_TARGET	2411370	n/a	LTP116	ltpFR	0	5	0	ICEBERG	731	1	5	1	n/a	n/a	n/a	n/a	n/a
4823.514	n/a	RECOG_RESP_VV	2411757	n/a	LTP116	ltpFR	0	5	0	ICEBERG	731	0	n/a	1	n/a	n/a	n/a	n/a	n/a
4824.81	n/a	RECOG_RESP	2412405	n/a	LTP116	ltpFR	0	5	0	ICEBERG	731	1	n/a	1	n/a	n/a	n/a	n/a	n/a
4827.326	n/a	RECOG_CONF	2413663	n/a	LTP116	ltpFR	0	5	0	ICEBERG	731	n/a	5	1	n/a	n/a	n/a	n/a	n/a
4828.756	n/a	RECOG_LURE	2414378	n/a	LTP116	ltpFR	0	5	n/a	PIGEON	1065	0	5	n/a	n/a	n/a	n/a	n/a	n/a
4829.576	n/a	RECOG_RESP	2414788	n/a	LTP116	ltpFR	0	5	n/a	PIGEON	1065	0	n/a	n/a	n/a	n/a	n/a	n/a	n/a
4831.118	n/a	RECOG_CONF	2415559	n/a	LTP116	ltpFR	0	5	n/a	PIGEON	1065	n/a	5	n/a	n/a	n/a	n/a	n/a	n/a
4832.904	n/a	RECOG_TARGET	2416452	n/a	LTP116	ltpFR	0	5	1	PEDESTRIAN	1038	0	1	1	n/a	n/a	n/a	n/a	n/a
4833.832	n/a	RECOG_RESP	2416916	n/a	LTP116	ltpFR	0	5	1	PEDESTRIAN	1038	0	n/a	1	n/a	n/a	n/a	n/a	n/a
4836.764	n/a	RECOG_CONF	2418382	n/a	LTP116	ltpFR	0	5	1	PEDESTRIAN	1038	n/a	1	1	n/a	n/a	n/a	n/a	n/a
4838.128	n/a	RECOG_TARGET	2419064	n/a	LTP116	ltpFR	0	5	1	DRAWER	493	1	5	0	n/a	n/a	n/a	n/a	n/a
4839.892	n/a	RECOG_RESP	2419946	n/a	LTP116	ltpFR	0	5	1	DRAWER	493	1	n/a	0	n/a	n/a	n/a	n/a	n/a
4841.774	n/a	RECOG_CONF	2420887	n/a	LTP116	ltpFR	0	5	1	DRAWER	493	n/a	5	0	n/a	n/a	n/a	n/a	n/a
4843.402	n/a	RECOG_TARGET	2421701	n/a	LTP116	ltpFR	0	5	0	DUST	508	1	5	0	n/a	n/a	n/a	n/a	n/a
4845.64	n/a	RECOG_RESP	2422820	n/a	LTP116	ltpFR	0	5	0	DUST	508	1	n/a	0	n/a	n/a	n/a	n/a	n/a
4846.672	n/a	RECOG_CONF	2423336	n/a	LTP116	ltpFR	0	5	0	DUST	508	n/a	5	0	n/a	n/a	n/a	n/a	n/a
4848.15	n/a	RECOG_TARGET	2424075	n/a	LTP116	ltpFR	0	5	1	YARD	1630	1	1	0	n/a	n/a	n/a	n/a	n/a
4848.858	n/a	RECOG_RESP_VV	2424429	n/a	LTP116	ltpFR	0	5	1	YARD	1630	1	n/a	0	n/a	n/a	n/a	n/a	n/a
4850.828	n/a	RECOG_RESP_VV	2425414	n/a	LTP116	ltpFR	0	5	1	YARD	1630	0	n/a	0	n/a	n/a	n/a	n/a	n/a
4851.452	n/a	RECOG_RESP	2425726	n/a	LTP116	ltpFR	0	5	1	YARD	1630	1	n/a	0	n/a	n/a	n/a	n/a	n/a
4853.058	n/a	RECOG_CONF	2426529	n/a	LTP116	ltpFR	0	5	1	YARD	1630	n/a	1	0	n/a	n/a	n/a	n/a	n/a
4854.538	n/a	RECOG_TARGET	2427269	n/a	LTP116	ltpFR	0	5	0	DOCK	477	1	5	1	n/a	n/a	n/a	n/a	n/a
4855.708	n/a	RECOG_RESP	2427854	n/a	LTP116	ltpFR	0	5	0	DOCK	477	1	n/a	1	n/a	n/a	n/a	n/a	n/a
4857.07	n/a	RECOG_CONF	2428535	n/a	LTP116	ltpFR	0	5	0	DOCK	477	n/a	5	1	n/a	n/a	n/a	n/a	n/a
4858.48	n/a	RECOG_TARGET	2429240	n/a	LTP116	ltpFR	0	5	1	PAINTER	1004	1	5	1	n/a	n/a	n/a	n/a	n/a
4859.694	n/a	RECOG_RESP	2429847	n/a	LTP116	ltpFR	0	5	1	PAINTER	1004	1	n/a	1	n/a	n/a	n/a	n/a	n/a
4861.038	n/a	RECOG_CONF	2430519	n/a	LTP116	ltpFR	0	5	1	PAINTER	1004	n/a	5	1	n/a	n/a	n/a	n/a	n/a
5441.268	n/a	REC_START	2720634	n/a	LTP116	ltpFR	0	6	n/a	n/a	n/a	n/a	n/a	n/a	n/a	n/a	n/a	n/a	n/a
5441.304	n/a	RECOG_TARGET	2720652	n/a	LTP116	ltpFR	0	6	-1	MOAT	903	1	5	-1	n/a	n/a	n/a	n/a	n/a
5442.46	n/a	RECOG_RESP	2721230	n/a	LTP116	ltpFR	0	6	-1	MOAT	903	1	n/a	-1	n/a	n/a	n/a	n/a	n/a
5443.906	n/a	RECOG_CONF	2721953	n/a	LTP116	ltpFR	0	6	-1	MOAT	903	n/a	5	-1	n/a	n/a	n/a	n/a	n/a
5445.602	n/a	RECOG_LURE	2722801	n/a	LTP116	ltpFR	0	6	n/a	CAPTAIN	239	0	3	n/a	n/a	n/a	n/a	n/a	n/a
5447.398	n/a	RECOG_RESP	2723699	n/a	LTP116	ltpFR	0	6	n/a	CAPTAIN	239	0	n/a	n/a	n/a	n/a	n/a	n/a	n/a
5448.786	n/a	RECOG_CONF	2724393	n/a	LTP116	ltpFR	0	6	n/a	CAPTAIN	239	n/a	3	n/a	n/a	n/a	n/a	n/a	n/a
5450.284	n/a	RECOG_TARGET	2725142	n/a	LTP116	ltpFR	0	6	-1	ORGAN	984	1	5	-1	n/a	n/a	n/a	n/a	n/a
5451.226	n/a	RECOG_RESP	2725613	n/a	LTP116	ltpFR	0	6	-1	ORGAN	984	1	n/a	-1	n/a	n/a	n/a	n/a	n/a
5452.478	n/a	RECOG_CONF	2726239	n/a	LTP116	ltpFR	0	6	-1	ORGAN	984	n/a	5	-1	n/a	n/a	n/a	n/a	n/a
5453.858	n/a	RECOG_TARGET	2726929	n/a	LTP116	ltpFR	0	6	0	FLY	586	0	1	0	n/a	n/a	n/a	n/a	n/a
5455.406	n/a	RECOG_RESP	2727703	n/a	LTP116	ltpFR	0	6	0	FLY	586	0	n/a	0	n/a	n/a	n/a	n/a	n/a
5456.798	n/a	RECOG_CONF	2728399	n/a	LTP116	ltpFR	0	6	0	FLY	586	n/a	1	0	n/a	n/a	n/a	n/a	n/a
5458.166	n/a	RECOG_TARGET	2729083	n/a	LTP116	ltpFR	0	6	1	ADULT	8	1	5	1	n/a	n/a	n/a	n/a	n/a
5459.926	n/a	RECOG_RESP	2729963	n/a	LTP116	ltpFR	0	6	1	ADULT	8	1	n/a	1	n/a	n/a	n/a	n/a	n/a
5460.968	n/a	RECOG_CONF	2730484	n/a	LTP116	ltpFR	0	6	1	ADULT	8	n/a	5	1	n/a	n/a	n/a	n/a	n/a
5462.398	n/a	RECOG_TARGET	2731199	n/a	LTP116	ltpFR	0	6	1	STAMP	1370	1	5	0	n/a	n/a	n/a	n/a	n/a
5463.652	n/a	RECOG_RESP	2731826	n/a	LTP116	ltpFR	0	6	1	STAMP	1370	1	n/a	0	n/a	n/a	n/a	n/a	n/a
5464.64	n/a	RECOG_CONF	2732320	n/a	LTP116	ltpFR	0	6	1	STAMP	1370	n/a	5	0	n/a	n/a	n/a	n/a	n/a
5465.97	n/a	RECOG_TARGET	2732985	n/a	LTP116	ltpFR	0	6	1	CARRIAGE	248	1	3	0	n/a	n/a	n/a	n/a	n/a
5467.524	n/a	RECOG_RESP	2733762	n/a	LTP116	ltpFR	0	6	1	CARRIAGE	248	1	n/a	0	n/a	n/a	n/a	n/a	n/a
5468.902	n/a	RECOG_CONF	2734451	n/a	LTP116	ltpFR	0	6	1	CARRIAGE	248	n/a	3	0	n/a	n/a	n/a	n/a	n/a
5470.296	n/a	RECOG_LURE	2735148	n/a	LTP116	ltpFR	0	6	n/a	INDIAN	736	0	3	n/a	n/a	n/a	n/a	n/a	n/a
5471.964	n/a	RECOG_RESP	2735982	n/a	LTP116	ltpFR	0	6	n/a	INDIAN	736	0	n/a	n/a	n/a	n/a	n/a	n/a	n/a
5473.87	n/a	RECOG_CONF	2736935	n/a	LTP116	ltpFR	0	6	n/a	INDIAN	736	n/a	3	n/a	n/a	n/a	n/a	n/a	n/a
5475.21	n/a	RECOG_TARGET	2737605	n/a	LTP116	ltpFR	0	6	1	WAND	1586	1	5	0	n/a	n/a	n/a	n/a	n/a
5476.324	n/a	RECOG_RESP	2738162	n/a	LTP116	ltpFR	0	6	1	WAND	1586	1	n/a	0	n/a	n/a	n/a	n/a	n/a
5477.582	n/a	RECOG_CONF	2738791	n/a	LTP116	ltpFR	0	6	1	WAND	1586	n/a	5	0	n/a	n/a	n/a	n/a	n/a
5478.976	n/a	RECOG_TARGET	2739488	n/a	LTP116	ltpFR	0	6	1	COW	393	1	3	1	n/a	n/a	n/a	n/a	n/a
5481.058	n/a	RECOG_RESP	2740529	n/a	LTP116	ltpFR	0	6	1	COW	393	1	n/a	1	n/a	n/a	n/a	n/a	n/a
5482.47	n/a	RECOG_CONF	2741235	n/a	LTP116	ltpFR	0	6	1	COW	393	n/a	3	1	n/a	n/a	n/a	n/a	n/a
5483.84	n/a	RECOG_TARGET	2741920	n/a	LTP116	ltpFR	0	6	1	PAVEMENT	1028	1	5	0	n/a	n/a	n/a	n/a	n/a
5484.706	n/a	RECOG_RESP	2742353	n/a	LTP116	ltpFR	0	6	1	PAVEMENT	1028	1	n/a	0	n/a	n/a	n/a	n/a	n/a
5486.202	n/a	RECOG_CONF	2743101	n/a	LTP116	ltpFR	0	6	1	PAVEMENT	1028	n/a	5	0	n/a	n/a	n/a	n/a	n/a
5487.53	n/a	RECOG_TARGET	2743765	n/a	LTP116	ltpFR	0	6	-1	MUFFIN	929	1	5	-1	n/a	n/a	n/a	n/a	n/a
5488.404	n/a	RECOG_RESP	2744202	n/a	LTP116	ltpFR	0	6	-1	MUFFIN	929	1	n/a	-1	n/a	n/a	n/a	n/a	n/a
5490.792	n/a	RECOG_CONF	2745396	n/a	LTP116	ltpFR	0	6	-1	MUFFIN	929	n/a	5	-1	n/a	n/a	n/a	n/a	n/a
5492.072	n/a	RECOG_TARGET	2746036	n/a	LTP116	ltpFR	0	6	1	DRAGON	492	1	5	1	n/a	n/a	n/a	n/a	n/a
5492.948	n/a	RECOG_RESP	2746474	n/a	LTP116	ltpFR	0	6	1	DRAGON	492	1	n/a	1	n/a	n/a	n/a	n/a	n/a
5494.554	n/a	RECOG_CONF	2747277	n/a	LTP116	ltpFR	0	6	1	DRAGON	492	n/a	5	1	n/a	n/a	n/a	n/a	n/a
5495.912	n/a	RECOG_LURE	2747956	n/a	LTP116	ltpFR	0	6	n/a	MOOSE	915	0	5	n/a	n/a	n/a	n/a	n/a	n/a
5497.548	n/a	RECOG_RESP	2748774	n/a	LTP116	ltpFR	0	6	n/a	MOOSE	915	0	n/a	n/a	n/a	n/a	n/a	n/a	n/a
5498.954	n/a	RECOG_CONF	2749477	n/a	LTP116	ltpFR	0	6	n/a	MOOSE	915	n/a	5	n/a	n/a	n/a	n/a	n/a	n/a
5500.352	n/a	RECOG_TARGET	2750176	n/a	LTP116	ltpFR	0	6	0	PERISCOPE	1050	1	5	0	n/a	n/a	n/a	n/a	n/a
5501.264	n/a	RECOG_RESP	2750632	n/a	LTP116	ltpFR	0	6	0	PERISCOPE	1050	1	n/a	0	n/a	n/a	n/a	n/a	n/a
5502.896	n/a	RECOG_CONF	2751448	n/a	LTP116	ltpFR	0	6	0	PERISCOPE	1050	n/a	5	0	n/a	n/a	n/a	n/a	n/a
5504.3	n/a	RECOG_TARGET	2752150	n/a	LTP116	ltpFR	0	6	0	COYOTE	396	1	5	1	n/a	n/a	n/a	n/a	n/a
5505.3	n/a	RECOG_RESP	2752650	n/a	LTP116	ltpFR	0	6	0	COYOTE	396	1	n/a	1	n/a	n/a	n/a	n/a	n/a
5506.596	n/a	RECOG_CONF	2753298	n/a	LTP116	ltpFR	0	6	0	COYOTE	396	n/a	5	1	n/a	n/a	n/a	n/a	n/a
5508.092	n/a	RECOG_TARGET	2754046	n/a	LTP116	ltpFR	0	6	1	WINNER	1615	1	5	1	n/a	n/a	n/a	n/a	n/a
5510.006	n/a	RECOG_RESP	2755003	n/a	LTP116	ltpFR	0	6	1	WINNER	1615	1	n/a	1	n/a	n/a	n/a	n/a	n/a
5511.178	n/a	RECOG_CONF	2755589	n/a	LTP116	ltpFR	0	6	1	WINNER	1615	n/a	5	1	n/a	n/a	n/a	n/a	n/a
5512.798	n/a	RECOG_TARGET	2756399	n/a	LTP116	ltpFR	0	6	0	BALCONY	72	1	5	1	n/a	n/a	n/a	n/a	n/a
5513.782	n/a	RECOG_RESP	2756891	n/a	LTP116	ltpFR	0	6	0	BALCONY	72	1	n/a	1	n/a	n/a	n/a	n/a	n/a
5514.928	n/a	RECOG_CONF	2757464	n/a	LTP116	ltpFR	0	6	0	BALCONY	72	n/a	5	1	n/a	n/a	n/a	n/a	n/a
5516.498	n/a	RECOG_TARGET	2758249	n/a	LTP116	ltpFR	0	6	1	OFFICER	973	1	1	1	n/a	n/a	n/a	n/a	n/a
5519.792	n/a	RECOG_RESP	2759896	n/a	LTP116	ltpFR	0	6	1	OFFICER	973	1	n/a	1	n/a	n/a	n/a	n/a	n/a
5521.354	n/a	RECOG_CONF	2760677	n/a	LTP116	ltpFR	0	6	1	OFFICER	973	n/a	1	1	n/a	n/a	n/a	n/a	n/a
5522.878	n/a	RECOG_TARGET	2761439	n/a	LTP116	ltpFR	0	6	-1	FIDDLE	561	0	5	-1	n/a	n/a	n/a	n/a	n/a
5525.136	n/a	RECOG_RESP	2762568	n/a	LTP116	ltpFR	0	6	-1	FIDDLE	561	0	n/a	-1	n/a	n/a	n/a	n/a	n/a
5526.464	n/a	RECOG_CONF	2763232	n/a	LTP116	ltpFR	0	6	-1	FIDDLE	561	n/a	5	-1	n/a	n/a	n/a	n/a	n/a
5534.984	n/a	REC_START	2767492	n/a	LTP116	ltpFR	0	7	n/a	n/a	n/a	n/a	n/a	n/a	n/a	n/a	n/a	n/a	n/a
5535.018	n/a	RECOG_TARGET	2767509	n/a	LTP116	ltpFR	0	7	1	CYLINDER	432	1	5	0	n/a	n/a	n/a	n/a	n/a
5536.596	n/a	RECOG_RESP	2768298	n/a	LTP116	ltpFR	0	7	1	CYLINDER	432	1	n/a	0	n/a	n/a	n/a	n/a	n/a
5537.892	n/a	RECOG_CONF	2768946	n/a	LTP116	ltpFR	0	7	1	CYLINDER	432	n/a	5	0	n/a	n/a	n/a	n/a	n/a
5539.398	n/a	RECOG_TARGET	2769699	n/a	LTP116	ltpFR	0	7	-1	FRECKLE	602	1	5	-1	n/a	n/a	n/a	n/a	n/a
5540.138	n/a	RECOG_RESP	2770069	n/a	LTP116	ltpFR	0	7	-1	FRECKLE	602	1	n/a	-1	n/a	n/a	n/a	n/a	n/a
5541.206	n/a	RECOG_CONF	2770603	n/a	LTP116	ltpFR	0	7	-1	FRECKLE	602	n/a	5	-1	n/a	n/a	n/a	n/a	n/a
5542.696	n/a	RECOG_TARGET	2771348	n/a	LTP116	ltpFR	0	7	0	INMATE	738	1	5	1	n/a	n/a	n/a	n/a	n/a
