onset	duration	trial_type	sample	stim_file	subject	experiment	session	trial	task	item_name	item_num	recog_resp	recog_conf	resp	answer	test_x	test_y	test_z	color_r	color_g	color_b	case	font
257.47	n/a	SESS_START	128735	n/a	LTP247	ltpFR	15	n/a	n/a	n/a	n/a	1	1	n/a	n/a	0	0	0	n/a	n/a	n/a	n/a	n/a
283.76	n/a	START	141880	n/a	LTP247	ltpFR	15	n/a	n/a	n/a	n/a	n/a	n/a	n/a	n/a	n/a	n/a	n/a	n/a	n/a	n/a	n/a	n/a
283.792	n/a	PROB	141896	n/a	LTP247	ltpFR	15	n/a	n/a	n/a	n/a	n/a	n/a	n/a	18	7	6	5	n/a	n/a	n/a	n/a	n/a
285.208	n/a	PROB	142604	n/a	LTP247	ltpFR	15	n/a	n/a	n/a	n/a	n/a	n/a	n/a	16	6	7	3	n/a	n/a	n/a	n/a	n/a
286.788	n/a	PROB	143394	n/a	LTP247	ltpFR	15	n/a	n/a	n/a	n/a	n/a	n/a	n/a	19	4	8	7	n/a	n/a	n/a	n/a	n/a
288.054	n/a	PROB	144027	n/a	LTP247	ltpFR	15	n/a	n/a	n/a	n/a	n/a	n/a	n/a	12	6	5	1	n/a	n/a	n/a	n/a	n/a
289.452	n/a	PROB	144726	n/a	LTP247	ltpFR	15	n/a	n/a	n/a	n/a	n/a	n/a	n/a	8	1	2	5	n/a	n/a	n/a	n/a	n/a
290.65	n/a	PROB	145325	n/a	LTP247	ltpFR	15	n/a	n/a	n/a	n/a	n/a	n/a	n/a	15	5	8	2	n/a	n/a	n/a	n/a	n/a
292.364	n/a	PROB	146182	n/a	LTP247	ltpFR	15	n/a	n/a	n/a	n/a	n/a	n/a	n/a	11	4	4	3	n/a	n/a	n/a	n/a	n/a
293.562	n/a	PROB	146781	n/a	LTP247	ltpFR	15	n/a	n/a	n/a	n/a	n/a	n/a	n/a	10	6	3	1	n/a	n/a	n/a	n/a	n/a
295.16	n/a	PROB	147580	n/a	LTP247	ltpFR	15	n/a	n/a	n/a	n/a	n/a	n/a	n/a	16	5	8	3	n/a	n/a	n/a	n/a	n/a
296.492	n/a	PROB	148246	n/a	LTP247	ltpFR	15	n/a	n/a	n/a	n/a	n/a	n/a	n/a	10	5	4	1	n/a	n/a	n/a	n/a	n/a
297.774	n/a	PROB	148887	n/a	LTP247	ltpFR	15	n/a	n/a	n/a	n/a	n/a	n/a	n/a	10	5	4	3	n/a	n/a	n/a	n/a	n/a
299.054	n/a	PROB	149527	n/a	LTP247	ltpFR	15	n/a	n/a	n/a	n/a	n/a	n/a	n/a	19	4	9	6	n/a	n/a	n/a	n/a	n/a
302.22	n/a	STOP	151110	n/a	LTP247	ltpFR	15	n/a	n/a	n/a	n/a	n/a	n/a	n/a	n/a	n/a	n/a	n/a	n/a	n/a	n/a	n/a	n/a
342.29	n/a	WORD	171145	wordpools/wasnorm_wordpool_less_exclusions.txt	LTP247	ltpFR	15	1	0	DRESS	495	1	n/a	1	n/a	0	0	0	0.57763671875	0.412841796875	1	upper	zerothre.ttf
346.234	n/a	WORD	173117	wordpools/wasnorm_wordpool_less_exclusions.txt	LTP247	ltpFR	15	1	0	BANJO	82	n/a	n/a	1	n/a	0	0	0	0.57763671875	0.412841796875	1	upper	zerothre.ttf
350.212	n/a	WORD	175106	wordpools/wasnorm_wordpool_less_exclusions.txt	LTP247	ltpFR	15	1	0	MARKET	871	n/a	n/a	1	n/a	0	0	0	0.57763671875	0.412841796875	1	upper	zerothre.ttf
354.422	n/a	WORD	177211	wordpools/wasnorm_wordpool_less_exclusions.txt	LTP247	ltpFR	15	1	0	BUILDING	191	n/a	n/a	1	n/a	0	0	0	0.57763671875	0.412841796875	1	upper	zerothre.ttf
358.45	n/a	WORD	179225	wordpools/wasnorm_wordpool_less_exclusions.txt	LTP247	ltpFR	15	1	0	NOSE	957	n/a	n/a	0	n/a	0	0	0	0.57763671875	0.412841796875	1	upper	zerothre.ttf
362.51	n/a	WORD	181255	wordpools/wasnorm_wordpool_less_exclusions.txt	LTP247	ltpFR	15	1	0	SENATOR	1268	n/a	n/a	1	n/a	0	0	0	0.57763671875	0.412841796875	1	upper	zerothre.ttf
366.604	n/a	WORD	183302	wordpools/wasnorm_wordpool_less_exclusions.txt	LTP247	ltpFR	15	1	0	GRILL	661	n/a	n/a	1	n/a	0	0	0	0.57763671875	0.412841796875	1	upper	zerothre.ttf
370.566	n/a	WORD	185283	wordpools/wasnorm_wordpool_less_exclusions.txt	LTP247	ltpFR	15	1	0	ROOST	1208	n/a	n/a	1	n/a	0	0	0	0.57763671875	0.412841796875	1	upper	zerothre.ttf
374.71	n/a	WORD	187355	wordpools/wasnorm_wordpool_less_exclusions.txt	LTP247	ltpFR	15	1	0	LASH	802	n/a	n/a	0	n/a	0	0	0	0.57763671875	0.412841796875	1	upper	zerothre.ttf
378.57	n/a	WORD	189285	wordpools/wasnorm_wordpool_less_exclusions.txt	LTP247	ltpFR	15	1	0	MUSEUM	933	n/a	n/a	1	n/a	0	0	0	0.57763671875	0.412841796875	1	upper	zerothre.ttf
382.798	n/a	WORD	191399	wordpools/wasnorm_wordpool_less_exclusions.txt	LTP247	ltpFR	15	1	0	DRAWING	494	n/a	n/a	0	n/a	0	0	0	0.57763671875	0.412841796875	1	upper	zerothre.ttf
386.89	n/a	WORD	193445	wordpools/wasnorm_wordpool_less_exclusions.txt	LTP247	ltpFR	15	1	0	GOVERNOR	651	n/a	n/a	1	n/a	0	0	0	0.57763671875	0.412841796875	1	upper	zerothre.ttf
390.736	n/a	WORD	195368	wordpools/wasnorm_wordpool_less_exclusions.txt	LTP247	ltpFR	15	1	0	VEST	1559	n/a	n/a	0	n/a	0	0	0	0.57763671875	0.412841796875	1	upper	zerothre.ttf
394.88	n/a	WORD	197440	wordpools/wasnorm_wordpool_less_exclusions.txt	LTP247	ltpFR	15	1	0	EAGLE	512	n/a	n/a	1	n/a	0	0	0	0.57763671875	0.412841796875	1	upper	zerothre.ttf
399.09	n/a	WORD	199545	wordpools/wasnorm_wordpool_less_exclusions.txt	LTP247	ltpFR	15	1	0	BUTTERFLY	206	n/a	n/a	0	n/a	0	0	0	0.57763671875	0.412841796875	1	upper	zerothre.ttf
403.25	n/a	WORD	201625	wordpools/wasnorm_wordpool_less_exclusions.txt	LTP247	ltpFR	15	1	0	NOTE	958	n/a	n/a	0	n/a	0	0	0	0.57763671875	0.412841796875	1	upper	zerothre.ttf
406.262	n/a	START	203131	n/a	LTP247	ltpFR	15	n/a	n/a	n/a	n/a	n/a	n/a	n/a	n/a	n/a	n/a	n/a	n/a	n/a	n/a	n/a	n/a
407.16	n/a	PROB	203580	n/a	LTP247	ltpFR	15	n/a	n/a	n/a	n/a	n/a	n/a	n/a	8	4	3	1	n/a	n/a	n/a	n/a	n/a
408.824	n/a	PROB	204412	n/a	LTP247	ltpFR	15	n/a	n/a	n/a	n/a	n/a	n/a	n/a	18	6	8	4	n/a	n/a	n/a	n/a	n/a
410.256	n/a	PROB	205128	n/a	LTP247	ltpFR	15	n/a	n/a	n/a	n/a	n/a	n/a	n/a	19	4	8	7	n/a	n/a	n/a	n/a	n/a
411.954	n/a	PROB	205977	n/a	LTP247	ltpFR	15	n/a	n/a	n/a	n/a	n/a	n/a	n/a	14	6	7	1	n/a	n/a	n/a	n/a	n/a
413.308	n/a	STOP	206654	n/a	LTP247	ltpFR	15	n/a	n/a	n/a	n/a	n/a	n/a	n/a	n/a	n/a	n/a	n/a	n/a	n/a	n/a	n/a	n/a
416.182	n/a	REC_START	208091	n/a	LTP247	ltpFR	15	1	n/a	n/a	n/a	n/a	n/a	n/a	n/a	0	0	0	n/a	n/a	n/a	n/a	n/a
418.578	n/a	REC_WORD	209289	wordpools/wasnorm_wordpool_less_exclusions.txt	LTP247	ltpFR	15	1	0	NOTE	958	n/a	n/a	0	n/a	0	0	0	n/a	n/a	n/a	n/a	n/a
419.554	n/a	REC_WORD	209777	wordpools/wasnorm_wordpool_less_exclusions.txt	LTP247	ltpFR	15	1	0	DRAWING	494	n/a	n/a	0	n/a	0	0	0	n/a	n/a	n/a	n/a	n/a
420.354	n/a	REC_WORD	210177	wordpools/wasnorm_wordpool_less_exclusions.txt	LTP247	ltpFR	15	1	0	BUTTERFLY	206	n/a	n/a	0	n/a	0	0	0	n/a	n/a	n/a	n/a	n/a
421.314	n/a	REC_WORD	210657	wordpools/wasnorm_wordpool_less_exclusions.txt	LTP247	ltpFR	15	1	0	EAGLE	512	n/a	n/a	1	n/a	0	0	0	n/a	n/a	n/a	n/a	n/a
422.036	n/a	REC_WORD	211018	wordpools/wasnorm_wordpool_less_exclusions.txt	LTP247	ltpFR	15	1	0	MUSEUM	933	n/a	n/a	1	n/a	0	0	0	n/a	n/a	n/a	n/a	n/a
423.072	n/a	REC_WORD	211536	wordpools/wasnorm_wordpool_less_exclusions.txt	LTP247	ltpFR	15	1	0	BUILDING	191	n/a	n/a	1	n/a	0	0	0	n/a	n/a	n/a	n/a	n/a
424.008	n/a	REC_WORD	212004	wordpools/wasnorm_wordpool_less_exclusions.txt	LTP247	ltpFR	15	1	0	SENATOR	1268	n/a	n/a	1	n/a	0	0	0	n/a	n/a	n/a	n/a	n/a
425.158	n/a	REC_WORD	212579	wordpools/wasnorm_wordpool_less_exclusions.txt	LTP247	ltpFR	15	1	0	GOVERNOR	651	n/a	n/a	1	n/a	0	0	0	n/a	n/a	n/a	n/a	n/a
426.114	n/a	REC_WORD	213057	wordpools/wasnorm_wordpool_less_exclusions.txt	LTP247	ltpFR	15	1	0	NOSE	957	n/a	n/a	0	n/a	0	0	0	n/a	n/a	n/a	n/a	n/a
427.166	n/a	REC_WORD	213583	wordpools/wasnorm_wordpool_less_exclusions.txt	LTP247	ltpFR	15	1	0	LASH	802	n/a	n/a	0	n/a	0	0	0	n/a	n/a	n/a	n/a	n/a
428.276	n/a	REC_WORD	214138	wordpools/wasnorm_wordpool_less_exclusions.txt	LTP247	ltpFR	15	1	0	DRESS	495	n/a	n/a	1	n/a	0	0	0	n/a	n/a	n/a	n/a	n/a
429.3	n/a	REC_WORD	214650	wordpools/wasnorm_wordpool_less_exclusions.txt	LTP247	ltpFR	15	1	0	VEST	1559	n/a	n/a	0	n/a	0	0	0	n/a	n/a	n/a	n/a	n/a
499.326	n/a	START	249663	n/a	LTP247	ltpFR	15	n/a	n/a	n/a	n/a	n/a	n/a	n/a	n/a	n/a	n/a	n/a	n/a	n/a	n/a	n/a	n/a
500.84	n/a	PROB	250420	n/a	LTP247	ltpFR	15	n/a	n/a	n/a	n/a	n/a	n/a	n/a	8	1	3	4	n/a	n/a	n/a	n/a	n/a
502.338	n/a	PROB	251169	n/a	LTP247	ltpFR	15	n/a	n/a	n/a	n/a	n/a	n/a	n/a	17	8	6	3	n/a	n/a	n/a	n/a	n/a
503.868	n/a	PROB	251934	n/a	LTP247	ltpFR	15	n/a	n/a	n/a	n/a	n/a	n/a	n/a	9	3	2	4	n/a	n/a	n/a	n/a	n/a
505.134	n/a	PROB	252567	n/a	LTP247	ltpFR	15	n/a	n/a	n/a	n/a	n/a	n/a	n/a	12	4	3	5	n/a	n/a	n/a	n/a	n/a
506.718	n/a	STOP	253359	n/a	LTP247	ltpFR	15	n/a	n/a	n/a	n/a	n/a	n/a	n/a	n/a	n/a	n/a	n/a	n/a	n/a	n/a	n/a	n/a
508.494	n/a	WORD	254247	wordpools/wasnorm_wordpool_less_exclusions.txt	LTP247	ltpFR	15	2	1	JUGGLER	763	n/a	n/a	1	n/a	0	0	0	0.422607421875	0.5869140625	0	lower	amplitud.ttf
511.508	n/a	START	255754	n/a	LTP247	ltpFR	15	n/a	n/a	n/a	n/a	n/a	n/a	n/a	n/a	n/a	n/a	n/a	n/a	n/a	n/a	n/a	n/a
512.556	n/a	PROB	256278	n/a	LTP247	ltpFR	15	n/a	n/a	n/a	n/a	n/a	n/a	n/a	16	3	6	7	n/a	n/a	n/a	n/a	n/a
513.988	n/a	PROB	256994	n/a	LTP247	ltpFR	15	n/a	n/a	n/a	n/a	n/a	n/a	n/a	15	4	5	6	n/a	n/a	n/a	n/a	n/a
515.384	n/a	PROB	257692	n/a	LTP247	ltpFR	15	n/a	n/a	n/a	n/a	n/a	n/a	n/a	21	3	9	9	n/a	n/a	n/a	n/a	n/a
516.882	n/a	PROB	258441	n/a	LTP247	ltpFR	15	n/a	n/a	n/a	n/a	n/a	n/a	n/a	15	4	8	3	n/a	n/a	n/a	n/a	n/a
517.992	n/a	STOP	258996	n/a	LTP247	ltpFR	15	n/a	n/a	n/a	n/a	n/a	n/a	n/a	n/a	n/a	n/a	n/a	n/a	n/a	n/a	n/a	n/a
520.626	n/a	WORD	260313	wordpools/wasnorm_wordpool_less_exclusions.txt	LTP247	ltpFR	15	2	1	CROWN	415	n/a	n/a	0	n/a	0	0	0	0.422607421875	0.5869140625	0	lower	amplitud.ttf
523.64	n/a	START	261820	n/a	LTP247	ltpFR	15	n/a	n/a	n/a	n/a	n/a	n/a	n/a	n/a	n/a	n/a	n/a	n/a	n/a	n/a	n/a	n/a
524.47	n/a	PROB	262235	n/a	LTP247	ltpFR	15	n/a	n/a	n/a	n/a	n/a	n/a	n/a	20	4	9	7	n/a	n/a	n/a	n/a	n/a
525.936	n/a	PROB	262968	n/a	LTP247	ltpFR	15	n/a	n/a	n/a	n/a	n/a	n/a	n/a	17	4	9	4	n/a	n/a	n/a	n/a	n/a
527.832	n/a	PROB	263916	n/a	LTP247	ltpFR	15	n/a	n/a	n/a	n/a	n/a	n/a	n/a	13	4	8	1	n/a	n/a	n/a	n/a	n/a
529.314	n/a	PROB	264657	n/a	LTP247	ltpFR	15	n/a	n/a	n/a	n/a	n/a	n/a	n/a	8	3	3	2	n/a	n/a	n/a	n/a	n/a
530.414	n/a	STOP	265207	n/a	LTP247	ltpFR	15	n/a	n/a	n/a	n/a	n/a	n/a	n/a	n/a	n/a	n/a	n/a	n/a	n/a	n/a	n/a	n/a
532.576	n/a	WORD	266288	wordpools/wasnorm_wordpool_less_exclusions.txt	LTP247	ltpFR	15	2	0	CABBAGE	210	n/a	n/a	0	n/a	0	0	0	0.57763671875	0.412841796875	1	upper	zerothre.ttf
535.588	n/a	START	267794	n/a	LTP247	ltpFR	15	n/a	n/a	n/a	n/a	n/a	n/a	n/a	n/a	n/a	n/a	n/a	n/a	n/a	n/a	n/a	n/a
536.736	n/a	PROB	268368	n/a	LTP247	ltpFR	15	n/a	n/a	n/a	n/a	n/a	n/a	n/a	12	5	6	1	n/a	n/a	n/a	n/a	n/a
538.218	n/a	PROB	269109	n/a	LTP247	ltpFR	15	n/a	n/a	n/a	n/a	n/a	n/a	n/a	22	9	5	8	n/a	n/a	n/a	n/a	n/a
539.664	n/a	PROB	269832	n/a	LTP247	ltpFR	15	n/a	n/a	n/a	n/a	n/a	n/a	n/a	21	7	8	6	n/a	n/a	n/a	n/a	n/a
543.588	n/a	STOP	271794	n/a	LTP247	ltpFR	15	n/a	n/a	n/a	n/a	n/a	n/a	n/a	n/a	n/a	n/a	n/a	n/a	n/a	n/a	n/a	n/a
544.79	n/a	WORD	272395	wordpools/wasnorm_wordpool_less_exclusions.txt	LTP247	ltpFR	15	2	0	TONGUE	1479	n/a	n/a	0	n/a	0	0	0	0.57763671875	0.412841796875	1	upper	zerothre.ttf
547.804	n/a	START	273902	n/a	LTP247	ltpFR	15	n/a	n/a	n/a	n/a	n/a	n/a	n/a	n/a	n/a	n/a	n/a	n/a	n/a	n/a	n/a	n/a
549.002	n/a	PROB	274501	n/a	LTP247	ltpFR	15	n/a	n/a	n/a	n/a	n/a	n/a	n/a	18	1	9	8	n/a	n/a	n/a	n/a	n/a
550.616	n/a	PROB	275308	n/a	LTP247	ltpFR	15	n/a	n/a	n/a	n/a	n/a	n/a	n/a	10	4	1	5	n/a	n/a	n/a	n/a	n/a
552.246	n/a	PROB	276123	n/a	LTP247	ltpFR	15	n/a	n/a	n/a	n/a	n/a	n/a	n/a	10	1	3	6	n/a	n/a	n/a	n/a	n/a
553.544	n/a	PROB	276772	n/a	LTP247	ltpFR	15	n/a	n/a	n/a	n/a	n/a	n/a	n/a	18	7	6	5	n/a	n/a	n/a	n/a	n/a
554.798	n/a	STOP	277399	n/a	LTP247	ltpFR	15	n/a	n/a	n/a	n/a	n/a	n/a	n/a	n/a	n/a	n/a	n/a	n/a	n/a	n/a	n/a	n/a
556.722	n/a	WORD	278361	wordpools/wasnorm_wordpool_less_exclusions.txt	LTP247	ltpFR	15	2	0	CITIZEN	312	n/a	n/a	1	n/a	0	0	0	0.57763671875	0.412841796875	1	upper	zerothre.ttf
559.736	n/a	START	279868	n/a	LTP247	ltpFR	15	n/a	n/a	n/a	n/a	n/a	n/a	n/a	n/a	n/a	n/a	n/a	n/a	n/a	n/a	n/a	n/a
560.884	n/a	PROB	280442	n/a	LTP247	ltpFR	15	n/a	n/a	n/a	n/a	n/a	n/a	n/a	24	9	8	7	n/a	n/a	n/a	n/a	n/a
562.682	n/a	PROB	281341	n/a	LTP247	ltpFR	15	n/a	n/a	n/a	n/a	n/a	n/a	n/a	19	7	9	3	n/a	n/a	n/a	n/a	n/a
564.346	n/a	PROB	282173	n/a	LTP247	ltpFR	15	n/a	n/a	n/a	n/a	n/a	n/a	n/a	8	5	1	2	n/a	n/a	n/a	n/a	n/a
565.66	n/a	PROB	282830	n/a	LTP247	ltpFR	15	n/a	n/a	n/a	n/a	n/a	n/a	n/a	22	8	8	6	n/a	n/a	n/a	n/a	n/a
567.16	n/a	STOP	283580	n/a	LTP247	ltpFR	15	n/a	n/a	n/a	n/a	n/a	n/a	n/a	n/a	n/a	n/a	n/a	n/a	n/a	n/a	n/a	n/a
568.872	n/a	WORD	284436	wordpools/wasnorm_wordpool_less_exclusions.txt	LTP247	ltpFR	15	2	0	COMMUNITY	356	n/a	n/a	1	n/a	0	0	0	0.57763671875	0.412841796875	1	upper	zerothre.ttf
571.884	n/a	START	285942	n/a	LTP247	ltpFR	15	n/a	n/a	n/a	n/a	n/a	n/a	n/a	n/a	n/a	n/a	n/a	n/a	n/a	n/a	n/a	n/a
572.984	n/a	PROB	286492	n/a	LTP247	ltpFR	15	n/a	n/a	n/a	n/a	n/a	n/a	n/a	17	8	2	7	n/a	n/a	n/a	n/a	n/a
574.746	n/a	PROB	287373	n/a	LTP247	ltpFR	15	n/a	n/a	n/a	n/a	n/a	n/a	n/a	24	7	8	9	n/a	n/a	n/a	n/a	n/a
576.744	n/a	PROB	288372	n/a	LTP247	ltpFR	15	n/a	n/a	n/a	n/a	n/a	n/a	n/a	17	5	5	7	n/a	n/a	n/a	n/a	n/a
579.884	n/a	STOP	289942	n/a	LTP247	ltpFR	15	n/a	n/a	n/a	n/a	n/a	n/a	n/a	n/a	n/a	n/a	n/a	n/a	n/a	n/a	n/a	n/a
581.088	n/a	WORD	290544	wordpools/wasnorm_wordpool_less_exclusions.txt	LTP247	ltpFR	15	2	0	MINER	896	n/a	n/a	1	n/a	0	0	0	0.57763671875	0.412841796875	1	upper	zerothre.ttf
584.1	n/a	START	292050	n/a	LTP247	ltpFR	15	n/a	n/a	n/a	n/a	n/a	n/a	n/a	n/a	n/a	n/a	n/a	n/a	n/a	n/a	n/a	n/a
585.232	n/a	PROB	292616	n/a	LTP247	ltpFR	15	n/a	n/a	n/a	n/a	n/a	n/a	n/a	10	2	6	2	n/a	n/a	n/a	n/a	n/a
586.796	n/a	PROB	293398	n/a	LTP247	ltpFR	15	n/a	n/a	n/a	n/a	n/a	n/a	n/a	12	3	8	1	n/a	n/a	n/a	n/a	n/a
588.61	n/a	PROB	294305	n/a	LTP247	ltpFR	15	n/a	n/a	n/a	n/a	n/a	n/a	n/a	12	1	5	6	n/a	n/a	n/a	n/a	n/a
589.958	n/a	PROB	294979	n/a	LTP247	ltpFR	15	n/a	n/a	n/a	n/a	n/a	n/a	n/a	15	2	5	8	n/a	n/a	n/a	n/a	n/a
591.376	n/a	STOP	295688	n/a	LTP247	ltpFR	15	n/a	n/a	n/a	n/a	n/a	n/a	n/a	n/a	n/a	n/a	n/a	n/a	n/a	n/a	n/a	n/a
593.286	n/a	WORD	296643	wordpools/wasnorm_wordpool_less_exclusions.txt	LTP247	ltpFR	15	2	1	COAL	332	n/a	n/a	1	n/a	0	0	0	0.422607421875	0.5869140625	0	lower	amplitud.ttf
596.298	n/a	START	298149	n/a	LTP247	ltpFR	15	n/a	n/a	n/a	n/a	n/a	n/a	n/a	n/a	n/a	n/a	n/a	n/a	n/a	n/a	n/a	n/a
597.446	n/a	PROB	298723	n/a	LTP247	ltpFR	15	n/a	n/a	n/a	n/a	n/a	n/a	n/a	19	7	7	5	n/a	n/a	n/a	n/a	n/a
599.176	n/a	PROB	299588	n/a	LTP247	ltpFR	15	n/a	n/a	n/a	n/a	n/a	n/a	n/a	15	4	7	4	n/a	n/a	n/a	n/a	n/a
600.574	n/a	PROB	300287	n/a	LTP247	ltpFR	15	n/a	n/a	n/a	n/a	n/a	n/a	n/a	22	6	7	9	n/a	n/a	n/a	n/a	n/a
601.922	n/a	PROB	300961	n/a	LTP247	ltpFR	15	n/a	n/a	n/a	n/a	n/a	n/a	n/a	11	4	4	3	n/a	n/a	n/a	n/a	n/a
602.968	n/a	STOP	301484	n/a	LTP247	ltpFR	15	n/a	n/a	n/a	n/a	n/a	n/a	n/a	n/a	n/a	n/a	n/a	n/a	n/a	n/a	n/a	n/a
605.402	n/a	WORD	302701	wordpools/wasnorm_wordpool_less_exclusions.txt	LTP247	ltpFR	15	2	1	HARP	689	n/a	n/a	0	n/a	0	0	0	0.422607421875	0.5869140625	0	lower	amplitud.ttf
608.414	n/a	START	304207	n/a	LTP247	ltpFR	15	n/a	n/a	n/a	n/a	n/a	n/a	n/a	n/a	n/a	n/a	n/a	n/a	n/a	n/a	n/a	n/a
609.494	n/a	PROB	304747	n/a	LTP247	ltpFR	15	n/a	n/a	n/a	n/a	n/a	n/a	n/a	20	5	6	9	n/a	n/a	n/a	n/a	n/a
611.092	n/a	PROB	305546	n/a	LTP247	ltpFR	15	n/a	n/a	n/a	n/a	n/a	n/a	n/a	22	5	8	9	n/a	n/a	n/a	n/a	n/a
612.24	n/a	PROB	306120	n/a	LTP247	ltpFR	15	n/a	n/a	n/a	n/a	n/a	n/a	n/a	7	2	3	2	n/a	n/a	n/a	n/a	n/a
613.638	n/a	PROB	306819	n/a	LTP247	ltpFR	15	n/a	n/a	n/a	n/a	n/a	n/a	n/a	10	1	1	8	n/a	n/a	n/a	n/a	n/a
614.888	n/a	STOP	307444	n/a	LTP247	ltpFR	15	n/a	n/a	n/a	n/a	n/a	n/a	n/a	n/a	n/a	n/a	n/a	n/a	n/a	n/a	n/a	n/a
617.384	n/a	WORD	308692	wordpools/wasnorm_wordpool_less_exclusions.txt	LTP247	ltpFR	15	2	1	CRAYON	401	n/a	n/a	0	n/a	0	0	0	0.422607421875	0.5869140625	0	lower	amplitud.ttf
620.396	n/a	START	310198	n/a	LTP247	ltpFR	15	n/a	n/a	n/a	n/a	n/a	n/a	n/a	n/a	n/a	n/a	n/a	n/a	n/a	n/a	n/a	n/a
621.31	n/a	PROB	310655	n/a	LTP247	ltpFR	15	n/a	n/a	n/a	n/a	n/a	n/a	n/a	11	6	1	4	n/a	n/a	n/a	n/a	n/a
622.824	n/a	PROB	311412	n/a	LTP247	ltpFR	15	n/a	n/a	n/a	n/a	n/a	n/a	n/a	14	1	6	7	n/a	n/a	n/a	n/a	n/a
625.456	n/a	PROB	312728	n/a	LTP247	ltpFR	15	n/a	n/a	n/a	n/a	n/a	n/a	n/a	20	8	6	6	n/a	n/a	n/a	n/a	n/a
628.396	n/a	STOP	314198	n/a	LTP247	ltpFR	15	n/a	n/a	n/a	n/a	n/a	n/a	n/a	n/a	n/a	n/a	n/a	n/a	n/a	n/a	n/a	n/a
629.3	n/a	WORD	314650	wordpools/wasnorm_wordpool_less_exclusions.txt	LTP247	ltpFR	15	2	1	COLOGNE	347	n/a	n/a	0	n/a	0	0	0	0.422607421875	0.5869140625	0	lower	amplitud.ttf
632.312	n/a	START	316156	n/a	LTP247	ltpFR	15	n/a	n/a	n/a	n/a	n/a	n/a	n/a	n/a	n/a	n/a	n/a	n/a	n/a	n/a	n/a	n/a
633.426	n/a	PROB	316713	n/a	LTP247	ltpFR	15	n/a	n/a	n/a	n/a	n/a	n/a	n/a	18	9	4	5	n/a	n/a	n/a	n/a	n/a
634.792	n/a	PROB	317396	n/a	LTP247	ltpFR	15	n/a	n/a	n/a	n/a	n/a	n/a	n/a	17	7	8	2	n/a	n/a	n/a	n/a	n/a
636.306	n/a	PROB	318153	n/a	LTP247	ltpFR	15	n/a	n/a	n/a	n/a	n/a	n/a	n/a	18	6	4	8	n/a	n/a	n/a	n/a	n/a
637.704	n/a	PROB	318852	n/a	LTP247	ltpFR	15	n/a	n/a	n/a	n/a	n/a	n/a	n/a	23	9	6	8	n/a	n/a	n/a	n/a	n/a
639.04	n/a	STOP	319520	n/a	LTP247	ltpFR	15	n/a	n/a	n/a	n/a	n/a	n/a	n/a	n/a	n/a	n/a	n/a	n/a	n/a	n/a	n/a	n/a
641.282	n/a	WORD	320641	wordpools/wasnorm_wordpool_less_exclusions.txt	LTP247	ltpFR	15	2	0	GARLIC	624	n/a	n/a	0	n/a	0	0	0	0.57763671875	0.412841796875	1	upper	zerothre.ttf
644.294	n/a	START	322147	n/a	LTP247	ltpFR	15	n/a	n/a	n/a	n/a	n/a	n/a	n/a	n/a	n/a	n/a	n/a	n/a	n/a	n/a	n/a	n/a
645.408	n/a	PROB	322704	n/a	LTP247	ltpFR	15	n/a	n/a	n/a	n/a	n/a	n/a	n/a	13	4	1	8	n/a	n/a	n/a	n/a	n/a
647.322	n/a	PROB	323661	n/a	LTP247	ltpFR	15	n/a	n/a	n/a	n/a	n/a	n/a	n/a	17	7	1	9	n/a	n/a	n/a	n/a	n/a
649.12	n/a	PROB	324560	n/a	LTP247	ltpFR	15	n/a	n/a	n/a	n/a	n/a	n/a	n/a	16	7	3	6	n/a	n/a	n/a	n/a	n/a
650.668	n/a	PROB	325334	n/a	LTP247	ltpFR	15	n/a	n/a	n/a	n/a	n/a	n/a	n/a	11	4	3	4	n/a	n/a	n/a	n/a	n/a
651.888	n/a	STOP	325944	n/a	LTP247	ltpFR	15	n/a	n/a	n/a	n/a	n/a	n/a	n/a	n/a	n/a	n/a	n/a	n/a	n/a	n/a	n/a	n/a
653.298	n/a	WORD	326649	wordpools/wasnorm_wordpool_less_exclusions.txt	LTP247	ltpFR	15	2	0	STRING	1394	n/a	n/a	0	n/a	0	0	0	0.57763671875	0.412841796875	1	upper	zerothre.ttf
656.31	n/a	START	328155	n/a	LTP247	ltpFR	15	n/a	n/a	n/a	n/a	n/a	n/a	n/a	n/a	n/a	n/a	n/a	n/a	n/a	n/a	n/a	n/a
657.292	n/a	PROB	328646	n/a	LTP247	ltpFR	15	n/a	n/a	n/a	n/a	n/a	n/a	n/a	21	7	6	8	n/a	n/a	n/a	n/a	n/a
658.974	n/a	PROB	329487	n/a	LTP247	ltpFR	15	n/a	n/a	n/a	n/a	n/a	n/a	n/a	13	1	8	4	n/a	n/a	n/a	n/a	n/a
661.068	n/a	PROB	330534	n/a	LTP247	ltpFR	15	n/a	n/a	n/a	n/a	n/a	n/a	n/a	16	5	3	8	n/a	n/a	n/a	n/a	n/a
663.232	n/a	STOP	331616	n/a	LTP247	ltpFR	15	n/a	n/a	n/a	n/a	n/a	n/a	n/a	n/a	n/a	n/a	n/a	n/a	n/a	n/a	n/a	n/a
665.396	n/a	WORD	332698	wordpools/wasnorm_wordpool_less_exclusions.txt	LTP247	ltpFR	15	2	0	SALIVA	1226	n/a	n/a	0	n/a	0	0	0	0.57763671875	0.412841796875	1	upper	zerothre.ttf
668.408	n/a	START	334204	n/a	LTP247	ltpFR	15	n/a	n/a	n/a	n/a	n/a	n/a	n/a	n/a	n/a	n/a	n/a	n/a	n/a	n/a	n/a	n/a
669.424	n/a	PROB	334712	n/a	LTP247	ltpFR	15	n/a	n/a	n/a	n/a	n/a	n/a	n/a	13	7	4	2	n/a	n/a	n/a	n/a	n/a
671.454	n/a	PROB	335727	n/a	LTP247	ltpFR	15	n/a	n/a	n/a	n/a	n/a	n/a	n/a	12	4	1	7	n/a	n/a	n/a	n/a	n/a
673.634	n/a	PROB	336817	n/a	LTP247	ltpFR	15	n/a	n/a	n/a	n/a	n/a	n/a	n/a	13	6	1	6	n/a	n/a	n/a	n/a	n/a
675.464	n/a	STOP	337732	n/a	LTP247	ltpFR	15	n/a	n/a	n/a	n/a	n/a	n/a	n/a	n/a	n/a	n/a	n/a	n/a	n/a	n/a	n/a	n/a
677.278	n/a	WORD	338639	wordpools/wasnorm_wordpool_less_exclusions.txt	LTP247	ltpFR	15	2	1	TURKEY	1520	n/a	n/a	1	n/a	0	0	0	0.422607421875	0.5869140625	0	lower	amplitud.ttf
680.29	n/a	START	340145	n/a	LTP247	ltpFR	15	n/a	n/a	n/a	n/a	n/a	n/a	n/a	n/a	n/a	n/a	n/a	n/a	n/a	n/a	n/a	n/a
681.488	n/a	PROB	340744	n/a	LTP247	ltpFR	15	n/a	n/a	n/a	n/a	n/a	n/a	n/a	20	8	9	3	n/a	n/a	n/a	n/a	n/a
683.152	n/a	PROB	341576	n/a	LTP247	ltpFR	15	n/a	n/a	n/a	n/a	n/a	n/a	n/a	18	5	8	5	n/a	n/a	n/a	n/a	n/a
684.518	n/a	PROB	342259	n/a	LTP247	ltpFR	15	n/a	n/a	n/a	n/a	n/a	n/a	n/a	3	1	1	1	n/a	n/a	n/a	n/a	n/a
685.782	n/a	PROB	342891	n/a	LTP247	ltpFR	15	n/a	n/a	n/a	n/a	n/a	n/a	n/a	13	3	1	9	n/a	n/a	n/a	n/a	n/a
687.296	n/a	STOP	343648	n/a	LTP247	ltpFR	15	n/a	n/a	n/a	n/a	n/a	n/a	n/a	n/a	n/a	n/a	n/a	n/a	n/a	n/a	n/a	n/a
689.144	n/a	WORD	344572	wordpools/wasnorm_wordpool_less_exclusions.txt	LTP247	ltpFR	15	2	1	RULER	1216	n/a	n/a	0	n/a	0	0	0	0.422607421875	0.5869140625	0	lower	amplitud.ttf
692.156	n/a	START	346078	n/a	LTP247	ltpFR	15	n/a	n/a	n/a	n/a	n/a	n/a	n/a	n/a	n/a	n/a	n/a	n/a	n/a	n/a	n/a	n/a
693.222	n/a	PROB	346611	n/a	LTP247	ltpFR	15	n/a	n/a	n/a	n/a	n/a	n/a	n/a	5	2	1	2	n/a	n/a	n/a	n/a	n/a
694.586	n/a	PROB	347293	n/a	LTP247	ltpFR	15	n/a	n/a	n/a	n/a	n/a	n/a	n/a	13	3	1	9	n/a	n/a	n/a	n/a	n/a
697.25	n/a	PROB	348625	n/a	LTP247	ltpFR	15	n/a	n/a	n/a	n/a	n/a	n/a	n/a	9	1	1	7	n/a	n/a	n/a	n/a	n/a
698.682	n/a	STOP	349341	n/a	LTP247	ltpFR	15	n/a	n/a	n/a	n/a	n/a	n/a	n/a	n/a	n/a	n/a	n/a	n/a	n/a	n/a	n/a	n/a
702.076	n/a	REC_START	351038	n/a	LTP247	ltpFR	15	2	n/a	n/a	n/a	n/a	n/a	n/a	n/a	0	0	0	n/a	n/a	n/a	n/a	n/a
704.898	n/a	REC_WORD	352449	wordpools/wasnorm_wordpool_less_exclusions.txt	LTP247	ltpFR	15	2	1	TURKEY	1520	n/a	n/a	1	n/a	0	0	0	n/a	n/a	n/a	n/a	n/a
705.976	n/a	REC_WORD	352988	wordpools/wasnorm_wordpool_less_exclusions.txt	LTP247	ltpFR	15	2	0	STRING	1394	n/a	n/a	0	n/a	0	0	0	n/a	n/a	n/a	n/a	n/a
708.158	n/a	REC_WORD	354079	wordpools/wasnorm_wordpool_less_exclusions.txt	LTP247	ltpFR	15	2	1	COLOGNE	347	n/a	n/a	0	n/a	0	0	0	n/a	n/a	n/a	n/a	n/a
709.806	n/a	REC_WORD	354903	wordpools/wasnorm_wordpool_less_exclusions.txt	LTP247	ltpFR	15	2	1	HARP	689	n/a	n/a	0	n/a	0	0	0	n/a	n/a	n/a	n/a	n/a
710.854	n/a	REC_WORD	355427	wordpools/wasnorm_wordpool_less_exclusions.txt	LTP247	ltpFR	15	2	1	COAL	332	n/a	n/a	1	n/a	0	0	0	n/a	n/a	n/a	n/a	n/a
712.306	n/a	REC_WORD	356153	wordpools/wasnorm_wordpool_less_exclusions.txt	LTP247	ltpFR	15	2	0	COMMUNITY	356	n/a	n/a	1	n/a	0	0	0	n/a	n/a	n/a	n/a	n/a
713.238	n/a	REC_WORD	356619	wordpools/wasnorm_wordpool_less_exclusions.txt	LTP247	ltpFR	15	2	0	MINER	896	n/a	n/a	1	n/a	0	0	0	n/a	n/a	n/a	n/a	n/a
714.206	n/a	REC_WORD	357103	wordpools/wasnorm_wordpool_less_exclusions.txt	LTP247	ltpFR	15	2	0	CITIZEN	312	n/a	n/a	1	n/a	0	0	0	n/a	n/a	n/a	n/a	n/a
715.44	n/a	REC_WORD	357720	wordpools/wasnorm_wordpool_less_exclusions.txt	LTP247	ltpFR	15	2	1	JUGGLER	763	n/a	n/a	1	n/a	0	0	0	n/a	n/a	n/a	n/a	n/a
716.486	n/a	REC_WORD	358243	wordpools/wasnorm_wordpool_less_exclusions.txt	LTP247	ltpFR	15	2	1	CROWN	415	n/a	n/a	0	n/a	0	0	0	n/a	n/a	n/a	n/a	n/a
717.71	n/a	REC_WORD	358855	wordpools/wasnorm_wordpool_less_exclusions.txt	LTP247	ltpFR	15	2	0	TONGUE	1479	n/a	n/a	0	n/a	0	0	0	n/a	n/a	n/a	n/a	n/a
788.48	n/a	WORD	394240	wordpools/wasnorm_wordpool_less_exclusions.txt	LTP247	ltpFR	15	3	1	ELEPHANT	523	n/a	n/a	1	n/a	0	0	0	0.422607421875	0.5869140625	0	lower	amplitud.ttf
792.608	n/a	WORD	396304	wordpools/wasnorm_wordpool_less_exclusions.txt	LTP247	ltpFR	15	3	1	JOINT	758	n/a	n/a	0	n/a	0	0	0	0.422607421875	0.5869140625	0	lower	amplitud.ttf
796.436	n/a	WORD	398218	wordpools/wasnorm_wordpool_less_exclusions.txt	LTP247	ltpFR	15	3	1	BONE	148	n/a	n/a	0	n/a	0	0	0	0.422607421875	0.5869140625	0	lower	amplitud.ttf
800.28	n/a	WORD	400140	wordpools/wasnorm_wordpool_less_exclusions.txt	LTP247	ltpFR	15	3	1	MACHINE	852	n/a	n/a	0	n/a	0	0	0	0.422607421875	0.5869140625	0	lower	amplitud.ttf
804.306	n/a	WORD	402153	wordpools/wasnorm_wordpool_less_exclusions.txt	LTP247	ltpFR	15	3	1	CONTRACTOR	369	n/a	n/a	1	n/a	0	0	0	0.422607421875	0.5869140625	0	lower	amplitud.ttf
808.202	n/a	WORD	404101	wordpools/wasnorm_wordpool_less_exclusions.txt	LTP247	ltpFR	15	3	1	SKYSCRAPER	1322	n/a	n/a	0	n/a	0	0	0	0.422607421875	0.5869140625	0	lower	amplitud.ttf
812.344	n/a	WORD	406172	wordpools/wasnorm_wordpool_less_exclusions.txt	LTP247	ltpFR	15	3	1	CREATURE	403	n/a	n/a	1	n/a	0	0	0	0.422607421875	0.5869140625	0	lower	amplitud.ttf
816.288	n/a	WORD	408144	wordpools/wasnorm_wordpool_less_exclusions.txt	LTP247	ltpFR	15	3	1	HOUSE	725	n/a	n/a	0	n/a	0	0	0	0.422607421875	0.5869140625	0	lower	amplitud.ttf
820.116	n/a	WORD	410058	wordpools/wasnorm_wordpool_less_exclusions.txt	LTP247	ltpFR	15	3	1	ANIMAL	23	n/a	n/a	1	n/a	0	0	0	0.422607421875	0.5869140625	0	lower	amplitud.ttf
824.278	n/a	WORD	412139	wordpools/wasnorm_wordpool_less_exclusions.txt	LTP247	ltpFR	15	3	1	PISTON	1076	n/a	n/a	0	n/a	0	0	0	0.422607421875	0.5869140625	0	lower	amplitud.ttf
828.256	n/a	WORD	414128	wordpools/wasnorm_wordpool_less_exclusions.txt	LTP247	ltpFR	15	3	1	DASHBOARD	441	n/a	n/a	0	n/a	0	0	0	0.422607421875	0.5869140625	0	lower	amplitud.ttf
832.116	n/a	WORD	416058	wordpools/wasnorm_wordpool_less_exclusions.txt	LTP247	ltpFR	15	3	1	HANDBAG	684	n/a	n/a	0	n/a	0	0	0	0.422607421875	0.5869140625	0	lower	amplitud.ttf
836.012	n/a	WORD	418006	wordpools/wasnorm_wordpool_less_exclusions.txt	LTP247	ltpFR	15	3	1	AUTHOR	61	n/a	n/a	1	n/a	0	0	0	0.422607421875	0.5869140625	0	lower	amplitud.ttf
840.138	n/a	WORD	420069	wordpools/wasnorm_wordpool_less_exclusions.txt	LTP247	ltpFR	15	3	1	ARCHITECT	36	n/a	n/a	1	n/a	0	0	0	0.422607421875	0.5869140625	0	lower	amplitud.ttf
844.132	n/a	WORD	422066	wordpools/wasnorm_wordpool_less_exclusions.txt	LTP247	ltpFR	15	3	1	SERPENT	1270	n/a	n/a	1	n/a	0	0	0	0.422607421875	0.5869140625	0	lower	amplitud.ttf
848.01	n/a	WORD	424005	wordpools/wasnorm_wordpool_less_exclusions.txt	LTP247	ltpFR	15	3	1	BUG	187	n/a	n/a	1	n/a	0	0	0	0.422607421875	0.5869140625	0	lower	amplitud.ttf
851.022	n/a	START	425511	n/a	LTP247	ltpFR	15	n/a	n/a	n/a	n/a	n/a	n/a	n/a	n/a	n/a	n/a	n/a	n/a	n/a	n/a	n/a	n/a
851.904	n/a	PROB	425952	n/a	LTP247	ltpFR	15	n/a	n/a	n/a	n/a	n/a	n/a	n/a	15	2	7	6	n/a	n/a	n/a	n/a	n/a
853.718	n/a	PROB	426859	n/a	LTP247	ltpFR	15	n/a	n/a	n/a	n/a	n/a	n/a	n/a	15	4	2	9	n/a	n/a	n/a	n/a	n/a
855.748	n/a	PROB	427874	n/a	LTP247	ltpFR	15	n/a	n/a	n/a	n/a	n/a	n/a	n/a	20	3	9	8	n/a	n/a	n/a	n/a	n/a
857.328	n/a	PROB	428664	n/a	LTP247	ltpFR	15	n/a	n/a	n/a	n/a	n/a	n/a	n/a	12	5	2	5	n/a	n/a	n/a	n/a	n/a
858.668	n/a	STOP	429334	n/a	LTP247	ltpFR	15	n/a	n/a	n/a	n/a	n/a	n/a	n/a	n/a	n/a	n/a	n/a	n/a	n/a	n/a	n/a	n/a
860.924	n/a	REC_START	430462	n/a	LTP247	ltpFR	15	3	n/a	n/a	n/a	n/a	n/a	n/a	n/a	0	0	0	n/a	n/a	n/a	n/a	n/a
863.196	n/a	REC_WORD	431598	wordpools/wasnorm_wordpool_less_exclusions.txt	LTP247	ltpFR	15	3	1	BUG	187	n/a	n/a	1	n/a	0	0	0	n/a	n/a	n/a	n/a	n/a
863.92	n/a	REC_WORD	431960	wordpools/wasnorm_wordpool_less_exclusions.txt	LTP247	ltpFR	15	3	1	SERPENT	1270	n/a	n/a	1	n/a	0	0	0	n/a	n/a	n/a	n/a	n/a
865.338	n/a	REC_WORD	432669	wordpools/wasnorm_wordpool_less_exclusions.txt	LTP247	ltpFR	15	3	1	ARCHITECT	36	n/a	n/a	1	n/a	0	0	0	n/a	n/a	n/a	n/a	n/a
866.494	n/a	REC_WORD	433247	wordpools/wasnorm_wordpool_less_exclusions.txt	LTP247	ltpFR	15	3	1	HOUSE	725	n/a	n/a	0	n/a	0	0	0	n/a	n/a	n/a	n/a	n/a
867.908	n/a	REC_WORD	433954	wordpools/wasnorm_wordpool_less_exclusions.txt	LTP247	ltpFR	15	3	1	CONTRACTOR	369	n/a	n/a	1	n/a	0	0	0	n/a	n/a	n/a	n/a	n/a
869.11	n/a	REC_WORD	434555	wordpools/wasnorm_wordpool_less_exclusions.txt	LTP247	ltpFR	15	3	1	SKYSCRAPER	1322	n/a	n/a	0	n/a	0	0	0	n/a	n/a	n/a	n/a	n/a
870.11	n/a	REC_WORD_VV	435055	wordpools/wasnorm_wordpool_less_exclusions.txt	LTP247	ltpFR	15	3	n/a	<>	-1	n/a	n/a	n/a	n/a	0	0	0	n/a	n/a	n/a	n/a	n/a
870.966	n/a	REC_WORD	435483	wordpools/wasnorm_wordpool_less_exclusions.txt	LTP247	ltpFR	15	3	1	ELEPHANT	523	n/a	n/a	1	n/a	0	0	0	n/a	n/a	n/a	n/a	n/a
872.132	n/a	REC_WORD	436066	wordpools/wasnorm_wordpool_less_exclusions.txt	LTP247	ltpFR	15	3	1	JOINT	758	n/a	n/a	0	n/a	0	0	0	n/a	n/a	n/a	n/a	n/a
873.584	n/a	REC_WORD	436792	wordpools/wasnorm_wordpool_less_exclusions.txt	LTP247	ltpFR	15	3	1	BONE	148	n/a	n/a	0	n/a	0	0	0	n/a	n/a	n/a	n/a	n/a
943.052	n/a	START	471526	n/a	LTP247	ltpFR	15	n/a	n/a	n/a	n/a	n/a	n/a	n/a	n/a	n/a	n/a	n/a	n/a	n/a	n/a	n/a	n/a
944.566	n/a	PROB	472283	n/a	LTP247	ltpFR	15	n/a	n/a	n/a	n/a	n/a	n/a	n/a	1	6	5	7	n/a	n/a	n/a	n/a	n/a
946.098	n/a	PROB	473049	n/a	LTP247	ltpFR	15	n/a	n/a	n/a	n/a	n/a	n/a	n/a	18	8	3	7	n/a	n/a	n/a	n/a	n/a
948.128	n/a	PROB	474064	n/a	LTP247	ltpFR	15	n/a	n/a	n/a	n/a	n/a	n/a	n/a	11	5	5	1	n/a	n/a	n/a	n/a	n/a
949.31	n/a	PROB	474655	n/a	LTP247	ltpFR	15	n/a	n/a	n/a	n/a	n/a	n/a	n/a	17	4	6	7	n/a	n/a	n/a	n/a	n/a
950.724	n/a	STOP	475362	n/a	LTP247	ltpFR	15	n/a	n/a	n/a	n/a	n/a	n/a	n/a	n/a	n/a	n/a	n/a	n/a	n/a	n/a	n/a	n/a
951.922	n/a	WORD	475961	wordpools/wasnorm_wordpool_less_exclusions.txt	LTP247	ltpFR	15	4	1	STRAWBERRY	1391	n/a	n/a	0	n/a	0	0	0	0.422607421875	0.5869140625	0	lower	amplitud.ttf
954.934	n/a	START	477467	n/a	LTP247	ltpFR	15	n/a	n/a	n/a	n/a	n/a	n/a	n/a	n/a	n/a	n/a	n/a	n/a	n/a	n/a	n/a	n/a
956.132	n/a	PROB	478066	n/a	LTP247	ltpFR	15	n/a	n/a	n/a	n/a	n/a	n/a	n/a	17	5	5	7	n/a	n/a	n/a	n/a	n/a
957.58	n/a	PROB	478790	n/a	LTP247	ltpFR	15	n/a	n/a	n/a	n/a	n/a	n/a	n/a	23	9	7	7	n/a	n/a	n/a	n/a	n/a
959.112	n/a	PROB	479556	n/a	LTP247	ltpFR	15	n/a	n/a	n/a	n/a	n/a	n/a	n/a	16	4	5	7	n/a	n/a	n/a	n/a	n/a
960.526	n/a	PROB	480263	n/a	LTP247	ltpFR	15	n/a	n/a	n/a	n/a	n/a	n/a	n/a	21	9	6	6	n/a	n/a	n/a	n/a	n/a
961.812	n/a	STOP	480906	n/a	LTP247	ltpFR	15	n/a	n/a	n/a	n/a	n/a	n/a	n/a	n/a	n/a	n/a	n/a	n/a	n/a	n/a	n/a	n/a
963.888	n/a	WORD	481944	wordpools/wasnorm_wordpool_less_exclusions.txt	LTP247	ltpFR	15	4	1	WHEEL	1603	n/a	n/a	0	n/a	0	0	0	0.422607421875	0.5869140625	0	lower	amplitud.ttf
966.9	n/a	START	483450	n/a	LTP247	ltpFR	15	n/a	n/a	n/a	n/a	n/a	n/a	n/a	n/a	n/a	n/a	n/a	n/a	n/a	n/a	n/a	n/a
968.082	n/a	PROB	484041	n/a	LTP247	ltpFR	15	n/a	n/a	n/a	n/a	n/a	n/a	n/a	13	5	7	1	n/a	n/a	n/a	n/a	n/a
969.812	n/a	PROB	484906	n/a	LTP247	ltpFR	15	n/a	n/a	n/a	n/a	n/a	n/a	n/a	5	2	1	2	n/a	n/a	n/a	n/a	n/a
971.544	n/a	PROB	485772	n/a	LTP247	ltpFR	15	n/a	n/a	n/a	n/a	n/a	n/a	n/a	19	7	3	9	n/a	n/a	n/a	n/a	n/a
973.24	n/a	PROB	486620	n/a	LTP247	ltpFR	15	n/a	n/a	n/a	n/a	n/a	n/a	n/a	18	6	3	9	n/a	n/a	n/a	n/a	n/a
974.742	n/a	STOP	487371	n/a	LTP247	ltpFR	15	n/a	n/a	n/a	n/a	n/a	n/a	n/a	n/a	n/a	n/a	n/a	n/a	n/a	n/a	n/a	n/a
975.936	n/a	WORD	487968	wordpools/wasnorm_wordpool_less_exclusions.txt	LTP247	ltpFR	15	4	1	LETTUCE	814	n/a	n/a	0	n/a	0	0	0	0.422607421875	0.5869140625	0	lower	amplitud.ttf
978.95	n/a	START	489475	n/a	LTP247	ltpFR	15	n/a	n/a	n/a	n/a	n/a	n/a	n/a	n/a	n/a	n/a	n/a	n/a	n/a	n/a	n/a	n/a
979.948	n/a	PROB	489974	n/a	LTP247	ltpFR	15	n/a	n/a	n/a	n/a	n/a	n/a	n/a	13	8	1	4	n/a	n/a	n/a	n/a	n/a
981.912	n/a	PROB	490956	n/a	LTP247	ltpFR	15	n/a	n/a	n/a	n/a	n/a	n/a	n/a	9	6	2	1	n/a	n/a	n/a	n/a	n/a
983.758	n/a	PROB	491879	n/a	LTP247	ltpFR	15	n/a	n/a	n/a	n/a	n/a	n/a	n/a	10	2	3	5	n/a	n/a	n/a	n/a	n/a
985.206	n/a	PROB	492603	n/a	LTP247	ltpFR	15	n/a	n/a	n/a	n/a	n/a	n/a	n/a	14	7	3	4	n/a	n/a	n/a	n/a	n/a
986.646	n/a	STOP	493323	n/a	LTP247	ltpFR	15	n/a	n/a	n/a	n/a	n/a	n/a	n/a	n/a	n/a	n/a	n/a	n/a	n/a	n/a	n/a	n/a
988.02	n/a	WORD	494010	wordpools/wasnorm_wordpool_less_exclusions.txt	LTP247	ltpFR	15	4	1	PASTRY	1022	n/a	n/a	0	n/a	0	0	0	0.422607421875	0.5869140625	0	lower	amplitud.ttf
991.032	n/a	START	495516	n/a	LTP247	ltpFR	15	n/a	n/a	n/a	n/a	n/a	n/a	n/a	n/a	n/a	n/a	n/a	n/a	n/a	n/a	n/a	n/a
992.146	n/a	PROB	496073	n/a	LTP247	ltpFR	15	n/a	n/a	n/a	n/a	n/a	n/a	n/a	19	8	8	3	n/a	n/a	n/a	n/a	n/a
993.544	n/a	PROB	496772	n/a	LTP247	ltpFR	15	n/a	n/a	n/a	n/a	n/a	n/a	n/a	19	3	9	7	n/a	n/a	n/a	n/a	n/a
995.874	n/a	PROB	497937	n/a	LTP247	ltpFR	15	n/a	n/a	n/a	n/a	n/a	n/a	n/a	9	1	7	1	n/a	n/a	n/a	n/a	n/a
997.272	n/a	PROB	498636	n/a	LTP247	ltpFR	15	n/a	n/a	n/a	n/a	n/a	n/a	n/a	16	8	7	1	n/a	n/a	n/a	n/a	n/a
998.526	n/a	STOP	499263	n/a	LTP247	ltpFR	15	n/a	n/a	n/a	n/a	n/a	n/a	n/a	n/a	n/a	n/a	n/a	n/a	n/a	n/a	n/a	n/a
1000.2	n/a	WORD	500100	wordpools/wasnorm_wordpool_less_exclusions.txt	LTP247	ltpFR	15	4	1	BAKER	71	n/a	n/a	1	n/a	0	0	0	0.422607421875	0.5869140625	0	lower	amplitud.ttf
1003.214	n/a	START	501607	n/a	LTP247	ltpFR	15	n/a	n/a	n/a	n/a	n/a	n/a	n/a	n/a	n/a	n/a	n/a	n/a	n/a	n/a	n/a	n/a
1004.412	n/a	PROB	502206	n/a	LTP247	ltpFR	15	n/a	n/a	n/a	n/a	n/a	n/a	n/a	3	1	1	1	n/a	n/a	n/a	n/a	n/a
1005.66	n/a	PROB	502830	n/a	LTP247	ltpFR	15	n/a	n/a	n/a	n/a	n/a	n/a	n/a	20	6	5	9	n/a	n/a	n/a	n/a	n/a
1007.206	n/a	PROB	503603	n/a	LTP247	ltpFR	15	n/a	n/a	n/a	n/a	n/a	n/a	n/a	9	2	1	6	n/a	n/a	n/a	n/a	n/a
1008.588	n/a	PROB	504294	n/a	LTP247	ltpFR	15	n/a	n/a	n/a	n/a	n/a	n/a	n/a	18	7	6	5	n/a	n/a	n/a	n/a	n/a
1009.894	n/a	STOP	504947	n/a	LTP247	ltpFR	15	n/a	n/a	n/a	n/a	n/a	n/a	n/a	n/a	n/a	n/a	n/a	n/a	n/a	n/a	n/a	n/a
1012.232	n/a	WORD	506116	wordpools/wasnorm_wordpool_less_exclusions.txt	LTP247	ltpFR	15	4	0	MONK	910	n/a	n/a	1	n/a	0	0	0	0.57763671875	0.412841796875	1	upper	zerothre.ttf
1015.246	n/a	START	507623	n/a	LTP247	ltpFR	15	n/a	n/a	n/a	n/a	n/a	n/a	n/a	n/a	n/a	n/a	n/a	n/a	n/a	n/a	n/a	n/a
1016.226	n/a	PROB	508113	n/a	LTP247	ltpFR	15	n/a	n/a	n/a	n/a	n/a	n/a	n/a	23	9	7	7	n/a	n/a	n/a	n/a	n/a
1018.074	n/a	PROB	509037	n/a	LTP247	ltpFR	15	n/a	n/a	n/a	n/a	n/a	n/a	n/a	16	5	8	3	n/a	n/a	n/a	n/a	n/a
1019.688	n/a	PROB	509844	n/a	LTP247	ltpFR	15	n/a	n/a	n/a	n/a	n/a	n/a	n/a	10	2	6	2	n/a	n/a	n/a	n/a	n/a
1023.244	n/a	STOP	511622	n/a	LTP247	ltpFR	15	n/a	n/a	n/a	n/a	n/a	n/a	n/a	n/a	n/a	n/a	n/a	n/a	n/a	n/a	n/a	n/a
1024.164	n/a	WORD	512082	wordpools/wasnorm_wordpool_less_exclusions.txt	LTP247	ltpFR	15	4	0	SINK	1309	n/a	n/a	1	n/a	0	0	0	0.57763671875	0.412841796875	1	upper	zerothre.ttf
1027.178	n/a	START	513589	n/a	LTP247	ltpFR	15	n/a	n/a	n/a	n/a	n/a	n/a	n/a	n/a	n/a	n/a	n/a	n/a	n/a	n/a	n/a	n/a
1028.06	n/a	PROB	514030	n/a	LTP247	ltpFR	15	n/a	n/a	n/a	n/a	n/a	n/a	n/a	17	4	7	6	n/a	n/a	n/a	n/a	n/a
1030.008	n/a	PROB	515004	n/a	LTP247	ltpFR	15	n/a	n/a	n/a	n/a	n/a	n/a	n/a	12	4	2	6	n/a	n/a	n/a	n/a	n/a
1032.204	n/a	PROB	516102	n/a	LTP247	ltpFR	15	n/a	n/a	n/a	n/a	n/a	n/a	n/a	16	5	7	4	n/a	n/a	n/a	n/a	n/a
1033.638	n/a	STOP	516819	n/a	LTP247	ltpFR	15	n/a	n/a	n/a	n/a	n/a	n/a	n/a	n/a	n/a	n/a	n/a	n/a	n/a	n/a	n/a	n/a
1036.398	n/a	WORD	518199	wordpools/wasnorm_wordpool_less_exclusions.txt	LTP247	ltpFR	15	4	0	LAPEL	800	n/a	n/a	0	n/a	0	0	0	0.57763671875	0.412841796875	1	upper	zerothre.ttf
1039.41	n/a	START	519705	n/a	LTP247	ltpFR	15	n/a	n/a	n/a	n/a	n/a	n/a	n/a	n/a	n/a	n/a	n/a	n/a	n/a	n/a	n/a	n/a
1040.342	n/a	PROB	520171	n/a	LTP247	ltpFR	15	n/a	n/a	n/a	n/a	n/a	n/a	n/a	26	9	9	8	n/a	n/a	n/a	n/a	n/a
1042.156	n/a	PROB	521078	n/a	LTP247	ltpFR	15	n/a	n/a	n/a	n/a	n/a	n/a	n/a	10	1	5	4	n/a	n/a	n/a	n/a	n/a
1044.02	n/a	PROB	522010	n/a	LTP247	ltpFR	15	n/a	n/a	n/a	n/a	n/a	n/a	n/a	19	8	2	9	n/a	n/a	n/a	n/a	n/a
1045.334	n/a	PROB	522667	n/a	LTP247	ltpFR	15	n/a	n/a	n/a	n/a	n/a	n/a	n/a	8	4	2	2	n/a	n/a	n/a	n/a	n/a
1046.622	n/a	STOP	523311	n/a	LTP247	ltpFR	15	n/a	n/a	n/a	n/a	n/a	n/a	n/a	n/a	n/a	n/a	n/a	n/a	n/a	n/a	n/a	n/a
1048.562	n/a	WORD	524281	wordpools/wasnorm_wordpool_less_exclusions.txt	LTP247	ltpFR	15	4	1	SHIRT	1287	n/a	n/a	0	n/a	0	0	0	0.422607421875	0.5869140625	0	lower	amplitud.ttf
1051.576	n/a	START	525788	n/a	LTP247	ltpFR	15	n/a	n/a	n/a	n/a	n/a	n/a	n/a	n/a	n/a	n/a	n/a	n/a	n/a	n/a	n/a	n/a
1052.656	n/a	PROB	526328	n/a	LTP247	ltpFR	15	n/a	n/a	n/a	n/a	n/a	n/a	n/a	22	6	9	7	n/a	n/a	n/a	n/a	n/a
1054.42	n/a	PROB	527210	n/a	LTP247	ltpFR	15	n/a	n/a	n/a	n/a	n/a	n/a	n/a	18	1	6	6	n/a	n/a	n/a	n/a	n/a
1056.052	n/a	PROB	528026	n/a	LTP247	ltpFR	15	n/a	n/a	n/a	n/a	n/a	n/a	n/a	16	2	5	9	n/a	n/a	n/a	n/a	n/a
1058.462	n/a	STOP	529231	n/a	LTP247	ltpFR	15	n/a	n/a	n/a	n/a	n/a	n/a	n/a	n/a	n/a	n/a	n/a	n/a	n/a	n/a	n/a	n/a
1060.644	n/a	WORD	530322	wordpools/wasnorm_wordpool_less_exclusions.txt	LTP247	ltpFR	15	4	1	LIME	823	n/a	n/a	0	n/a	0	0	0	0.422607421875	0.5869140625	0	lower	amplitud.ttf
1063.658	n/a	START	531829	n/a	LTP247	ltpFR	15	n/a	n/a	n/a	n/a	n/a	n/a	n/a	n/a	n/a	n/a	n/a	n/a	n/a	n/a	n/a	n/a
1064.672	n/a	PROB	532336	n/a	LTP247	ltpFR	15	n/a	n/a	n/a	n/a	n/a	n/a	n/a	6	2	1	3	n/a	n/a	n/a	n/a	n/a
1066.47	n/a	PROB	533235	n/a	LTP247	ltpFR	15	n/a	n/a	n/a	n/a	n/a	n/a	n/a	15	1	6	8	n/a	n/a	n/a	n/a	n/a
1068.35	n/a	PROB	534175	n/a	LTP247	ltpFR	15	n/a	n/a	n/a	n/a	n/a	n/a	n/a	20	9	3	8	n/a	n/a	n/a	n/a	n/a
1069.832	n/a	PROB	534916	n/a	LTP247	ltpFR	15	n/a	n/a	n/a	n/a	n/a	n/a	n/a	16	1	9	6	n/a	n/a	n/a	n/a	n/a
1071.278	n/a	STOP	535639	n/a	LTP247	ltpFR	15	n/a	n/a	n/a	n/a	n/a	n/a	n/a	n/a	n/a	n/a	n/a	n/a	n/a	n/a	n/a	n/a
1072.71	n/a	WORD	536355	wordpools/wasnorm_wordpool_less_exclusions.txt	LTP247	ltpFR	15	4	1	CHIPMUNK	304	n/a	n/a	1	n/a	0	0	0	0.422607421875	0.5869140625	0	lower	amplitud.ttf
1075.722	n/a	START	537861	n/a	LTP247	ltpFR	15	n/a	n/a	n/a	n/a	n/a	n/a	n/a	n/a	n/a	n/a	n/a	n/a	n/a	n/a	n/a	n/a
1076.77	n/a	PROB	538385	n/a	LTP247	ltpFR	15	n/a	n/a	n/a	n/a	n/a	n/a	n/a	18	3	6	9	n/a	n/a	n/a	n/a	n/a
1078.252	n/a	PROB	539126	n/a	LTP247	ltpFR	15	n/a	n/a	n/a	n/a	n/a	n/a	n/a	12	3	3	6	n/a	n/a	n/a	n/a	n/a
1080.348	n/a	PROB	540174	n/a	LTP247	ltpFR	15	n/a	n/a	n/a	n/a	n/a	n/a	n/a	14	1	4	9	n/a	n/a	n/a	n/a	n/a
1082.43	n/a	STOP	541215	n/a	LTP247	ltpFR	15	n/a	n/a	n/a	n/a	n/a	n/a	n/a	n/a	n/a	n/a	n/a	n/a	n/a	n/a	n/a	n/a
1084.61	n/a	WORD	542305	wordpools/wasnorm_wordpool_less_exclusions.txt	LTP247	ltpFR	15	4	0	MARSH	874	n/a	n/a	1	n/a	0	0	0	0.57763671875	0.412841796875	1	upper	zerothre.ttf
1087.622	n/a	START	543811	n/a	LTP247	ltpFR	15	n/a	n/a	n/a	n/a	n/a	n/a	n/a	n/a	n/a	n/a	n/a	n/a	n/a	n/a	n/a	n/a
1088.62	n/a	PROB	544310	n/a	LTP247	ltpFR	15	n/a	n/a	n/a	n/a	n/a	n/a	n/a	14	3	6	5	n/a	n/a	n/a	n/a	n/a
1090.1	n/a	PROB	545050	n/a	LTP247	ltpFR	15	n/a	n/a	n/a	n/a	n/a	n/a	n/a	4	1	2	1	n/a	n/a	n/a	n/a	n/a
1091.616	n/a	PROB	545808	n/a	LTP247	ltpFR	15	n/a	n/a	n/a	n/a	n/a	n/a	n/a	10	2	1	7	n/a	n/a	n/a	n/a	n/a
1093.578	n/a	PROB	546789	n/a	LTP247	ltpFR	15	n/a	n/a	n/a	n/a	n/a	n/a	n/a	18	6	9	3	n/a	n/a	n/a	n/a	n/a
1094.886	n/a	STOP	547443	n/a	LTP247	ltpFR	15	n/a	n/a	n/a	n/a	n/a	n/a	n/a	n/a	n/a	n/a	n/a	n/a	n/a	n/a	n/a	n/a
1096.608	n/a	WORD	548304	wordpools/wasnorm_wordpool_less_exclusions.txt	LTP247	ltpFR	15	4	0	SPIT	1354	n/a	n/a	0	n/a	0	0	0	0.57763671875	0.412841796875	1	upper	zerothre.ttf
1099.622	n/a	START	549811	n/a	LTP247	ltpFR	15	n/a	n/a	n/a	n/a	n/a	n/a	n/a	n/a	n/a	n/a	n/a	n/a	n/a	n/a	n/a	n/a
1100.72	n/a	PROB	550360	n/a	LTP247	ltpFR	15	n/a	n/a	n/a	n/a	n/a	n/a	n/a	18	4	9	5	n/a	n/a	n/a	n/a	n/a
1102.45	n/a	PROB	551225	n/a	LTP247	ltpFR	15	n/a	n/a	n/a	n/a	n/a	n/a	n/a	17	9	7	1	n/a	n/a	n/a	n/a	n/a
1104.164	n/a	PROB	552082	n/a	LTP247	ltpFR	15	n/a	n/a	n/a	n/a	n/a	n/a	n/a	19	9	9	1	n/a	n/a	n/a	n/a	n/a
1105.512	n/a	PROB	552756	n/a	LTP247	ltpFR	15	n/a	n/a	n/a	n/a	n/a	n/a	n/a	21	9	5	7	n/a	n/a	n/a	n/a	n/a
1107.112	n/a	STOP	553556	n/a	LTP247	ltpFR	15	n/a	n/a	n/a	n/a	n/a	n/a	n/a	n/a	n/a	n/a	n/a	n/a	n/a	n/a	n/a	n/a
1108.658	n/a	WORD	554329	wordpools/wasnorm_wordpool_less_exclusions.txt	LTP247	ltpFR	15	4	0	VESSEL	1558	n/a	n/a	1	n/a	0	0	0	0.57763671875	0.412841796875	1	upper	zerothre.ttf
1111.67	n/a	START	555835	n/a	LTP247	ltpFR	15	n/a	n/a	n/a	n/a	n/a	n/a	n/a	n/a	n/a	n/a	n/a	n/a	n/a	n/a	n/a	n/a
1112.868	n/a	PROB	556434	n/a	LTP247	ltpFR	15	n/a	n/a	n/a	n/a	n/a	n/a	n/a	23	7	9	7	n/a	n/a	n/a	n/a	n/a
1114.616	n/a	PROB	557308	n/a	LTP247	ltpFR	15	n/a	n/a	n/a	n/a	n/a	n/a	n/a	15	6	1	8	n/a	n/a	n/a	n/a	n/a
1116.296	n/a	PROB	558148	n/a	LTP247	ltpFR	15	n/a	n/a	n/a	n/a	n/a	n/a	n/a	18	7	4	7	n/a	n/a	n/a	n/a	n/a
1118.028	n/a	PROB	559014	n/a	LTP247	ltpFR	15	n/a	n/a	n/a	n/a	n/a	n/a	n/a	14	2	8	4	n/a	n/a	n/a	n/a	n/a
1119.408	n/a	STOP	559704	n/a	LTP247	ltpFR	15	n/a	n/a	n/a	n/a	n/a	n/a	n/a	n/a	n/a	n/a	n/a	n/a	n/a	n/a	n/a	n/a
1120.672	n/a	WORD	560336	wordpools/wasnorm_wordpool_less_exclusions.txt	LTP247	ltpFR	15	4	0	FRIAR	605	n/a	n/a	1	n/a	0	0	0	0.57763671875	0.412841796875	1	upper	zerothre.ttf
1123.686	n/a	START	561843	n/a	LTP247	ltpFR	15	n/a	n/a	n/a	n/a	n/a	n/a	n/a	n/a	n/a	n/a	n/a	n/a	n/a	n/a	n/a	n/a
1124.884	n/a	PROB	562442	n/a	LTP247	ltpFR	15	n/a	n/a	n/a	n/a	n/a	n/a	n/a	20	4	9	7	n/a	n/a	n/a	n/a	n/a
1127.48	n/a	PROB	563740	n/a	LTP247	ltpFR	15	n/a	n/a	n/a	n/a	n/a	n/a	n/a	12	7	3	2	n/a	n/a	n/a	n/a	n/a
1128.728	n/a	PROB	564364	n/a	LTP247	ltpFR	15	n/a	n/a	n/a	n/a	n/a	n/a	n/a	16	4	3	9	n/a	n/a	n/a	n/a	n/a
1130.488	n/a	STOP	565244	n/a	LTP247	ltpFR	15	n/a	n/a	n/a	n/a	n/a	n/a	n/a	n/a	n/a	n/a	n/a	n/a	n/a	n/a	n/a	n/a
1132.738	n/a	WORD	566369	wordpools/wasnorm_wordpool_less_exclusions.txt	LTP247	ltpFR	15	4	0	ANTEATER	26	n/a	n/a	1	n/a	0	0	0	0.57763671875	0.412841796875	1	upper	zerothre.ttf
1135.75	n/a	START	567875	n/a	LTP247	ltpFR	15	n/a	n/a	n/a	n/a	n/a	n/a	n/a	n/a	n/a	n/a	n/a	n/a	n/a	n/a	n/a	n/a
1136.616	n/a	PROB	568308	n/a	LTP247	ltpFR	15	n/a	n/a	n/a	n/a	n/a	n/a	n/a	15	7	4	4	n/a	n/a	n/a	n/a	n/a
1138.53	n/a	PROB	569265	n/a	LTP247	ltpFR	15	n/a	n/a	n/a	n/a	n/a	n/a	n/a	10	2	7	1	n/a	n/a	n/a	n/a	n/a
1140.544	n/a	PROB	570272	n/a	LTP247	ltpFR	15	n/a	n/a	n/a	n/a	n/a	n/a	n/a	11	1	9	1	n/a	n/a	n/a	n/a	n/a
1142.124	n/a	PROB	571062	n/a	LTP247	ltpFR	15	n/a	n/a	n/a	n/a	n/a	n/a	n/a	18	5	8	5	n/a	n/a	n/a	n/a	n/a
1143.448	n/a	STOP	571724	n/a	LTP247	ltpFR	15	n/a	n/a	n/a	n/a	n/a	n/a	n/a	n/a	n/a	n/a	n/a	n/a	n/a	n/a	n/a	n/a
1145.602	n/a	REC_START	572801	n/a	LTP247	ltpFR	15	4	n/a	n/a	n/a	n/a	n/a	n/a	n/a	0	0	0	n/a	n/a	n/a	n/a	n/a
1147.928	n/a	REC_WORD	573964	wordpools/wasnorm_wordpool_less_exclusions.txt	LTP247	ltpFR	15	4	0	FRIAR	605	n/a	n/a	1	n/a	0	0	0	n/a	n/a	n/a	n/a	n/a
1149.04	n/a	REC_WORD	574520	wordpools/wasnorm_wordpool_less_exclusions.txt	LTP247	ltpFR	15	4	0	ANTEATER	26	n/a	n/a	1	n/a	0	0	0	n/a	n/a	n/a	n/a	n/a
1149.924	n/a	REC_WORD	574962	wordpools/wasnorm_wordpool_less_exclusions.txt	LTP247	ltpFR	15	4	0	MONK	910	n/a	n/a	1	n/a	0	0	0	n/a	n/a	n/a	n/a	n/a
1150.842	n/a	REC_WORD	575421	wordpools/wasnorm_wordpool_less_exclusions.txt	LTP247	ltpFR	15	4	1	SHIRT	1287	n/a	n/a	0	n/a	0	0	0	n/a	n/a	n/a	n/a	n/a
1152.002	n/a	REC_WORD	576001	wordpools/wasnorm_wordpool_less_exclusions.txt	LTP247	ltpFR	15	4	0	LAPEL	800	n/a	n/a	0	n/a	0	0	0	n/a	n/a	n/a	n/a	n/a
1153.21	n/a	REC_WORD	576605	wordpools/wasnorm_wordpool_less_exclusions.txt	LTP247	ltpFR	15	4	1	STRAWBERRY	1391	n/a	n/a	0	n/a	0	0	0	n/a	n/a	n/a	n/a	n/a
1154.318	n/a	REC_WORD	577159	wordpools/wasnorm_wordpool_less_exclusions.txt	LTP247	ltpFR	15	4	0	CABBAGE	210	n/a	n/a	0	n/a	0	0	0	n/a	n/a	n/a	n/a	n/a
1155.258	n/a	REC_WORD	577629	wordpools/wasnorm_wordpool_less_exclusions.txt	LTP247	ltpFR	15	4	1	WHEEL	1603	n/a	n/a	0	n/a	0	0	0	n/a	n/a	n/a	n/a	n/a
1156.272	n/a	REC_WORD	578136	wordpools/wasnorm_wordpool_less_exclusions.txt	LTP247	ltpFR	15	4	1	PASTRY	1022	n/a	n/a	0	n/a	0	0	0	n/a	n/a	n/a	n/a	n/a
1157.35	n/a	REC_WORD	578675	wordpools/wasnorm_wordpool_less_exclusions.txt	LTP247	ltpFR	15	4	1	BAKER	71	n/a	n/a	1	n/a	0	0	0	n/a	n/a	n/a	n/a	n/a
1232.574	n/a	WORD	616287	wordpools/wasnorm_wordpool_less_exclusions.txt	LTP247	ltpFR	15	5	0	SHELL	1281	n/a	n/a	0	n/a	0	0	0	0.57763671875	0.412841796875	1	upper	zerothre.ttf
1236.684	n/a	WORD	618342	wordpools/wasnorm_wordpool_less_exclusions.txt	LTP247	ltpFR	15	5	0	OYSTER	995	n/a	n/a	0	n/a	0	0	0	0.57763671875	0.412841796875	1	upper	zerothre.ttf
1240.53	n/a	WORD	620265	wordpools/wasnorm_wordpool_less_exclusions.txt	LTP247	ltpFR	15	5	1	ABDOMEN	1	n/a	n/a	0	n/a	0	0	0	0.422607421875	0.5869140625	0	lower	amplitud.ttf
1244.59	n/a	WORD	622295	wordpools/wasnorm_wordpool_less_exclusions.txt	LTP247	ltpFR	15	5	1	AGENT	10	n/a	n/a	1	n/a	0	0	0	0.422607421875	0.5869140625	0	lower	amplitud.ttf
1248.65	n/a	WORD	624325	wordpools/wasnorm_wordpool_less_exclusions.txt	LTP247	ltpFR	15	5	1	CARROT	249	n/a	n/a	0	n/a	0	0	0	0.422607421875	0.5869140625	0	lower	amplitud.ttf
1252.512	n/a	WORD	626256	wordpools/wasnorm_wordpool_less_exclusions.txt	LTP247	ltpFR	15	5	1	STEW	1380	n/a	n/a	0	n/a	0	0	0	0.422607421875	0.5869140625	0	lower	amplitud.ttf
1256.422	n/a	WORD	628211	wordpools/wasnorm_wordpool_less_exclusions.txt	LTP247	ltpFR	15	5	1	CHIME	300	n/a	n/a	0	n/a	0	0	0	0.422607421875	0.5869140625	0	lower	amplitud.ttf
1260.516	n/a	WORD	630258	wordpools/wasnorm_wordpool_less_exclusions.txt	LTP247	ltpFR	15	5	0	RECEIPT	1173	n/a	n/a	0	n/a	0	0	0	0.57763671875	0.412841796875	1	upper	zerothre.ttf
1264.71	n/a	WORD	632355	wordpools/wasnorm_wordpool_less_exclusions.txt	LTP247	ltpFR	15	5	0	BILL	126	n/a	n/a	0	n/a	0	0	0	0.57763671875	0.412841796875	1	upper	zerothre.ttf
1268.886	n/a	WORD	634443	wordpools/wasnorm_wordpool_less_exclusions.txt	LTP247	ltpFR	15	5	1	CHAIN	273	n/a	n/a	0	n/a	0	0	0	0.422607421875	0.5869140625	0	lower	amplitud.ttf
1273.08	n/a	WORD	636540	wordpools/wasnorm_wordpool_less_exclusions.txt	LTP247	ltpFR	15	5	1	PANTS	1010	n/a	n/a	0	n/a	0	0	0	0.422607421875	0.5869140625	0	lower	amplitud.ttf
1277.074	n/a	WORD	638537	wordpools/wasnorm_wordpool_less_exclusions.txt	LTP247	ltpFR	15	5	1	MANAGER	863	n/a	n/a	1	n/a	0	0	0	0.422607421875	0.5869140625	0	lower	amplitud.ttf
1281.236	n/a	WORD	640618	wordpools/wasnorm_wordpool_less_exclusions.txt	LTP247	ltpFR	15	5	0	SUMMIT	1405	n/a	n/a	1	n/a	0	0	0	0.57763671875	0.412841796875	1	upper	zerothre.ttf
1285.296	n/a	WORD	642648	wordpools/wasnorm_wordpool_less_exclusions.txt	LTP247	ltpFR	15	5	0	SHERIFF	1284	n/a	n/a	1	n/a	0	0	0	0.57763671875	0.412841796875	1	upper	zerothre.ttf
1289.356	n/a	WORD	644678	wordpools/wasnorm_wordpool_less_exclusions.txt	LTP247	ltpFR	15	5	0	SHORTS	1293	n/a	n/a	0	n/a	0	0	0	0.57763671875	0.412841796875	1	upper	zerothre.ttf
1293.3	n/a	WORD	646650	wordpools/wasnorm_wordpool_less_exclusions.txt	LTP247	ltpFR	15	5	0	GANG	619	n/a	n/a	1	n/a	0	0	0	0.57763671875	0.412841796875	1	upper	zerothre.ttf
1296.312	n/a	START	648156	n/a	LTP247	ltpFR	15	n/a	n/a	n/a	n/a	n/a	n/a	n/a	n/a	n/a	n/a	n/a	n/a	n/a	n/a	n/a	n/a
1297.494	n/a	PROB	648747	n/a	LTP247	ltpFR	15	n/a	n/a	n/a	n/a	n/a	n/a	n/a	15	5	6	4	n/a	n/a	n/a	n/a	n/a
1300.256	n/a	PROB	650128	n/a	LTP247	ltpFR	15	n/a	n/a	n/a	n/a	n/a	n/a	n/a	20	9	4	7	n/a	n/a	n/a	n/a	n/a
1301.706	n/a	PROB	650853	n/a	LTP247	ltpFR	15	n/a	n/a	n/a	n/a	n/a	n/a	n/a	13	2	7	4	n/a	n/a	n/a	n/a	n/a
1303.352	n/a	PROB	651676	n/a	LTP247	ltpFR	15	n/a	n/a	n/a	n/a	n/a	n/a	n/a	10	1	7	2	n/a	n/a	n/a	n/a	n/a
1304.984	n/a	PROB	652492	n/a	LTP247	ltpFR	15	n/a	n/a	n/a	n/a	n/a	n/a	n/a	12	4	3	5	n/a	n/a	n/a	n/a	n/a
1306.332	n/a	PROB	653166	n/a	LTP247	ltpFR	15	n/a	n/a	n/a	n/a	n/a	n/a	n/a	13	4	1	5	n/a	n/a	n/a	n/a	n/a
1307.764	n/a	PROB	653882	n/a	LTP247	ltpFR	15	n/a	n/a	n/a	n/a	n/a	n/a	n/a	11	7	3	1	n/a	n/a	n/a	n/a	n/a
1309.744	n/a	PROB	654872	n/a	LTP247	ltpFR	15	n/a	n/a	n/a	n/a	n/a	n/a	n/a	14	7	1	6	n/a	n/a	n/a	n/a	n/a
1311.522	n/a	STOP	655761	n/a	LTP247	ltpFR	15	n/a	n/a	n/a	n/a	n/a	n/a	n/a	n/a	n/a	n/a	n/a	n/a	n/a	n/a	n/a	n/a
1314.254	n/a	REC_START	657127	n/a	LTP247	ltpFR	15	5	n/a	n/a	n/a	n/a	n/a	n/a	n/a	0	0	0	n/a	n/a	n/a	n/a	n/a
1315.378	n/a	REC_WORD	657689	wordpools/wasnorm_wordpool_less_exclusions.txt	LTP247	ltpFR	15	5	0	SHORTS	1293	n/a	n/a	0	n/a	0	0	0	n/a	n/a	n/a	n/a	n/a
1316.204	n/a	REC_WORD	658102	wordpools/wasnorm_wordpool_less_exclusions.txt	LTP247	ltpFR	15	5	1	PANTS	1010	n/a	n/a	0	n/a	0	0	0	n/a	n/a	n/a	n/a	n/a
1316.838	n/a	REC_WORD	658419	wordpools/wasnorm_wordpool_less_exclusions.txt	LTP247	ltpFR	15	5	0	SHERIFF	1284	n/a	n/a	1	n/a	0	0	0	n/a	n/a	n/a	n/a	n/a
1317.898	n/a	REC_WORD	658949	wordpools/wasnorm_wordpool_less_exclusions.txt	LTP247	ltpFR	15	5	1	AGENT	10	n/a	n/a	1	n/a	0	0	0	n/a	n/a	n/a	n/a	n/a
1319.058	n/a	REC_WORD	659529	wordpools/wasnorm_wordpool_less_exclusions.txt	LTP247	ltpFR	15	5	0	OYSTER	995	n/a	n/a	0	n/a	0	0	0	n/a	n/a	n/a	n/a	n/a
1319.95	n/a	REC_WORD	659975	wordpools/wasnorm_wordpool_less_exclusions.txt	LTP247	ltpFR	15	5	0	SHELL	1281	n/a	n/a	0	n/a	0	0	0	n/a	n/a	n/a	n/a	n/a
1321.132	n/a	REC_WORD	660566	wordpools/wasnorm_wordpool_less_exclusions.txt	LTP247	ltpFR	15	5	1	ABDOMEN	1	n/a	n/a	0	n/a	0	0	0	n/a	n/a	n/a	n/a	n/a
1326.008	n/a	REC_WORD	663004	wordpools/wasnorm_wordpool_less_exclusions.txt	LTP247	ltpFR	15	5	0	SUMMIT	1405	n/a	n/a	1	n/a	0	0	0	n/a	n/a	n/a	n/a	n/a
1331.542	n/a	REC_WORD	665771	wordpools/wasnorm_wordpool_less_exclusions.txt	LTP247	ltpFR	15	5	1	CARROT	249	n/a	n/a	0	n/a	0	0	0	n/a	n/a	n/a	n/a	n/a
1332.24	n/a	REC_WORD	666120	wordpools/wasnorm_wordpool_less_exclusions.txt	LTP247	ltpFR	15	5	1	STEW	1380	n/a	n/a	0	n/a	0	0	0	n/a	n/a	n/a	n/a	n/a
1399.594	n/a	START	699797	n/a	LTP247	ltpFR	15	n/a	n/a	n/a	n/a	n/a	n/a	n/a	n/a	n/a	n/a	n/a	n/a	n/a	n/a	n/a	n/a
1401.108	n/a	PROB	700554	n/a	LTP247	ltpFR	15	n/a	n/a	n/a	n/a	n/a	n/a	n/a	21	8	5	8	n/a	n/a	n/a	n/a	n/a
1402.456	n/a	PROB	701228	n/a	LTP247	ltpFR	15	n/a	n/a	n/a	n/a	n/a	n/a	n/a	11	3	4	4	n/a	n/a	n/a	n/a	n/a
1403.67	n/a	PROB	701835	n/a	LTP247	ltpFR	15	n/a	n/a	n/a	n/a	n/a	n/a	n/a	14	7	5	2	n/a	n/a	n/a	n/a	n/a
1405.202	n/a	PROB	702601	n/a	LTP247	ltpFR	15	n/a	n/a	n/a	n/a	n/a	n/a	n/a	20	9	6	5	n/a	n/a	n/a	n/a	n/a
1406.9	n/a	PROB	703450	n/a	LTP247	ltpFR	15	n/a	n/a	n/a	n/a	n/a	n/a	n/a	12	1	4	7	n/a	n/a	n/a	n/a	n/a
1408.298	n/a	PROB	704149	n/a	LTP247	ltpFR	15	n/a	n/a	n/a	n/a	n/a	n/a	n/a	14	1	4	9	n/a	n/a	n/a	n/a	n/a
1410.162	n/a	PROB	705081	n/a	LTP247	ltpFR	15	n/a	n/a	n/a	n/a	n/a	n/a	n/a	17	9	2	6	n/a	n/a	n/a	n/a	n/a
1411.642	n/a	PROB	705821	n/a	LTP247	ltpFR	15	n/a	n/a	n/a	n/a	n/a	n/a	n/a	19	9	4	6	n/a	n/a	n/a	n/a	n/a
1413.274	n/a	PROB	706637	n/a	LTP247	ltpFR	15	n/a	n/a	n/a	n/a	n/a	n/a	n/a	8	2	1	5	n/a	n/a	n/a	n/a	n/a
1414.492	n/a	STOP	707246	n/a	LTP247	ltpFR	15	n/a	n/a	n/a	n/a	n/a	n/a	n/a	n/a	n/a	n/a	n/a	n/a	n/a	n/a	n/a	n/a
1416.568	n/a	WORD	708284	wordpools/wasnorm_wordpool_less_exclusions.txt	LTP247	ltpFR	15	6	0	BUBBLE	183	n/a	n/a	0	n/a	0	0	0	0.57763671875	0.412841796875	1	upper	zerothre.ttf
1419.58	n/a	START	709790	n/a	LTP247	ltpFR	15	n/a	n/a	n/a	n/a	n/a	n/a	n/a	n/a	n/a	n/a	n/a	n/a	n/a	n/a	n/a	n/a
1420.678	n/a	PROB	710339	n/a	LTP247	ltpFR	15	n/a	n/a	n/a	n/a	n/a	n/a	n/a	10	4	4	2	n/a	n/a	n/a	n/a	n/a
1421.976	n/a	PROB	710988	n/a	LTP247	ltpFR	15	n/a	n/a	n/a	n/a	n/a	n/a	n/a	15	3	5	7	n/a	n/a	n/a	n/a	n/a
1423.458	n/a	PROB	711729	n/a	LTP247	ltpFR	15	n/a	n/a	n/a	n/a	n/a	n/a	n/a	16	6	6	4	n/a	n/a	n/a	n/a	n/a
1424.89	n/a	PROB	712445	n/a	LTP247	ltpFR	15	n/a	n/a	n/a	n/a	n/a	n/a	n/a	9	4	2	3	n/a	n/a	n/a	n/a	n/a
1426.754	n/a	PROB	713377	n/a	LTP247	ltpFR	15	n/a	n/a	n/a	n/a	n/a	n/a	n/a	15	5	7	3	n/a	n/a	n/a	n/a	n/a
1428.184	n/a	PROB	714092	n/a	LTP247	ltpFR	15	n/a	n/a	n/a	n/a	n/a	n/a	n/a	7	2	3	2	n/a	n/a	n/a	n/a	n/a
1429.982	n/a	PROB	714991	n/a	LTP247	ltpFR	15	n/a	n/a	n/a	n/a	n/a	n/a	n/a	16	6	1	9	n/a	n/a	n/a	n/a	n/a
1432.478	n/a	PROB	716239	n/a	LTP247	ltpFR	15	n/a	n/a	n/a	n/a	n/a	n/a	n/a	21	9	5	7	n/a	n/a	n/a	n/a	n/a
1433.926	n/a	PROB	716963	n/a	LTP247	ltpFR	15	n/a	n/a	n/a	n/a	n/a	n/a	n/a	20	9	2	9	n/a	n/a	n/a	n/a	n/a
1435.388	n/a	STOP	717694	n/a	LTP247	ltpFR	15	n/a	n/a	n/a	n/a	n/a	n/a	n/a	n/a	n/a	n/a	n/a	n/a	n/a	n/a	n/a	n/a
1436.656	n/a	WORD	718328	wordpools/wasnorm_wordpool_less_exclusions.txt	LTP247	ltpFR	15	6	0	POLYESTER	1100	n/a	n/a	0	n/a	0	0	0	0.57763671875	0.412841796875	1	upper	zerothre.ttf
1439.668	n/a	START	719834	n/a	LTP247	ltpFR	15	n/a	n/a	n/a	n/a	n/a	n/a	n/a	n/a	n/a	n/a	n/a	n/a	n/a	n/a	n/a	n/a
1440.666	n/a	PROB	720333	n/a	LTP247	ltpFR	15	n/a	n/a	n/a	n/a	n/a	n/a	n/a	13	2	2	9	n/a	n/a	n/a	n/a	n/a
1442.298	n/a	PROB	721149	n/a	LTP247	ltpFR	15	n/a	n/a	n/a	n/a	n/a	n/a	n/a	18	5	4	9	n/a	n/a	n/a	n/a	n/a
1443.928	n/a	PROB	721964	n/a	LTP247	ltpFR	15	n/a	n/a	n/a	n/a	n/a	n/a	n/a	17	4	7	6	n/a	n/a	n/a	n/a	n/a
1445.842	n/a	PROB	722921	n/a	LTP247	ltpFR	15	n/a	n/a	n/a	n/a	n/a	n/a	n/a	10	7	2	1	n/a	n/a	n/a	n/a	n/a
1447.722	n/a	PROB	723861	n/a	LTP247	ltpFR	15	n/a	n/a	n/a	n/a	n/a	n/a	n/a	21	7	9	5	n/a	n/a	n/a	n/a	n/a
1449.304	n/a	PROB	724652	n/a	LTP247	ltpFR	15	n/a	n/a	n/a	n/a	n/a	n/a	n/a	10	3	1	6	n/a	n/a	n/a	n/a	n/a
1450.718	n/a	PROB	725359	n/a	LTP247	ltpFR	15	n/a	n/a	n/a	n/a	n/a	n/a	n/a	11	1	2	8	n/a	n/a	n/a	n/a	n/a
1452.066	n/a	PROB	726033	n/a	LTP247	ltpFR	15	n/a	n/a	n/a	n/a	n/a	n/a	n/a	5	2	1	2	n/a	n/a	n/a	n/a	n/a
1455.66	n/a	STOP	727830	n/a	LTP247	ltpFR	15	n/a	n/a	n/a	n/a	n/a	n/a	n/a	n/a	n/a	n/a	n/a	n/a	n/a	n/a	n/a	n/a
1456.842	n/a	WORD	728421	wordpools/wasnorm_wordpool_less_exclusions.txt	LTP247	ltpFR	15	6	1	PERSONNEL	1053	n/a	n/a	1	n/a	0	0	0	0.422607421875	0.5869140625	0	lower	amplitud.ttf
1459.854	n/a	START	729927	n/a	LTP247	ltpFR	15	n/a	n/a	n/a	n/a	n/a	n/a	n/a	n/a	n/a	n/a	n/a	n/a	n/a	n/a	n/a	n/a
1460.72	n/a	PROB	730360	n/a	LTP247	ltpFR	15	n/a	n/a	n/a	n/a	n/a	n/a	n/a	15	8	1	6	n/a	n/a	n/a	n/a	n/a
1462.5	n/a	PROB	731250	n/a	LTP247	ltpFR	15	n/a	n/a	n/a	n/a	n/a	n/a	n/a	17	5	9	3	n/a	n/a	n/a	n/a	n/a
1464.53	n/a	PROB	732265	n/a	LTP247	ltpFR	15	n/a	n/a	n/a	n/a	n/a	n/a	n/a	15	7	2	6	n/a	n/a	n/a	n/a	n/a
1466.046	n/a	PROB	733023	n/a	LTP247	ltpFR	15	n/a	n/a	n/a	n/a	n/a	n/a	n/a	18	8	7	3	n/a	n/a	n/a	n/a	n/a
1467.526	n/a	PROB	733763	n/a	LTP247	ltpFR	15	n/a	n/a	n/a	n/a	n/a	n/a	n/a	7	5	1	1	n/a	n/a	n/a	n/a	n/a
1469.474	n/a	PROB	734737	n/a	LTP247	ltpFR	15	n/a	n/a	n/a	n/a	n/a	n/a	n/a	7	2	2	3	n/a	n/a	n/a	n/a	n/a
1471.022	n/a	PROB	735511	n/a	LTP247	ltpFR	15	n/a	n/a	n/a	n/a	n/a	n/a	n/a	19	5	8	6	n/a	n/a	n/a	n/a	n/a
1472.452	n/a	PROB	736226	n/a	LTP247	ltpFR	15	n/a	n/a	n/a	n/a	n/a	n/a	n/a	14	1	7	6	n/a	n/a	n/a	n/a	n/a
1473.966	n/a	PROB	736983	n/a	LTP247	ltpFR	15	n/a	n/a	n/a	n/a	n/a	n/a	n/a	19	9	6	4	n/a	n/a	n/a	n/a	n/a
1475.356	n/a	STOP	737678	n/a	LTP247	ltpFR	15	n/a	n/a	n/a	n/a	n/a	n/a	n/a	n/a	n/a	n/a	n/a	n/a	n/a	n/a	n/a	n/a
1476.78	n/a	WORD	738390	wordpools/wasnorm_wordpool_less_exclusions.txt	LTP247	ltpFR	15	6	1	PIGEON	1065	n/a	n/a	1	n/a	0	0	0	0.422607421875	0.5869140625	0	lower	amplitud.ttf
1479.792	n/a	START	739896	n/a	LTP247	ltpFR	15	n/a	n/a	n/a	n/a	n/a	n/a	n/a	n/a	n/a	n/a	n/a	n/a	n/a	n/a	n/a	n/a
1480.824	n/a	PROB	740412	n/a	LTP247	ltpFR	15	n/a	n/a	n/a	n/a	n/a	n/a	n/a	15	4	2	9	n/a	n/a	n/a	n/a	n/a
1482.254	n/a	PROB	741127	n/a	LTP247	ltpFR	15	n/a	n/a	n/a	n/a	n/a	n/a	n/a	9	1	6	2	n/a	n/a	n/a	n/a	n/a
1484.052	n/a	PROB	742026	n/a	LTP247	ltpFR	15	n/a	n/a	n/a	n/a	n/a	n/a	n/a	16	8	6	2	n/a	n/a	n/a	n/a	n/a
1485.65	n/a	PROB	742825	n/a	LTP247	ltpFR	15	n/a	n/a	n/a	n/a	n/a	n/a	n/a	12	2	4	6	n/a	n/a	n/a	n/a	n/a
1487.53	n/a	PROB	743765	n/a	LTP247	ltpFR	15	n/a	n/a	n/a	n/a	n/a	n/a	n/a	15	9	3	3	n/a	n/a	n/a	n/a	n/a
1489.16	n/a	PROB	744580	n/a	LTP247	ltpFR	15	n/a	n/a	n/a	n/a	n/a	n/a	n/a	23	7	8	8	n/a	n/a	n/a	n/a	n/a
1490.858	n/a	PROB	745429	n/a	LTP247	ltpFR	15	n/a	n/a	n/a	n/a	n/a	n/a	n/a	24	9	9	6	n/a	n/a	n/a	n/a	n/a
1492.788	n/a	PROB	746394	n/a	LTP247	ltpFR	15	n/a	n/a	n/a	n/a	n/a	n/a	n/a	22	4	9	9	n/a	n/a	n/a	n/a	n/a
1494.372	n/a	STOP	747186	n/a	LTP247	ltpFR	15	n/a	n/a	n/a	n/a	n/a	n/a	n/a	n/a	n/a	n/a	n/a	n/a	n/a	n/a	n/a	n/a
1496.8	n/a	WORD	748400	wordpools/wasnorm_wordpool_less_exclusions.txt	LTP247	ltpFR	15	6	1	DONKEY	484	n/a	n/a	1	n/a	0	0	0	0.422607421875	0.5869140625	0	lower	amplitud.ttf
1499.812	n/a	START	749906	n/a	LTP247	ltpFR	15	n/a	n/a	n/a	n/a	n/a	n/a	n/a	n/a	n/a	n/a	n/a	n/a	n/a	n/a	n/a	n/a
1500.994	n/a	PROB	750497	n/a	LTP247	ltpFR	15	n/a	n/a	n/a	n/a	n/a	n/a	n/a	19	4	8	7	n/a	n/a	n/a	n/a	n/a
1502.674	n/a	PROB	751337	n/a	LTP247	ltpFR	15	n/a	n/a	n/a	n/a	n/a	n/a	n/a	19	6	8	5	n/a	n/a	n/a	n/a	n/a
1504.622	n/a	PROB	752311	n/a	LTP247	ltpFR	15	n/a	n/a	n/a	n/a	n/a	n/a	n/a	20	3	8	9	n/a	n/a	n/a	n/a	n/a
1506.386	n/a	PROB	753193	n/a	LTP247	ltpFR	15	n/a	n/a	n/a	n/a	n/a	n/a	n/a	14	6	7	1	n/a	n/a	n/a	n/a	n/a
1508.05	n/a	PROB	754025	n/a	LTP247	ltpFR	15	n/a	n/a	n/a	n/a	n/a	n/a	n/a	21	7	7	7	n/a	n/a	n/a	n/a	n/a
1509.898	n/a	PROB	754949	n/a	LTP247	ltpFR	15	n/a	n/a	n/a	n/a	n/a	n/a	n/a	9	3	2	4	n/a	n/a	n/a	n/a	n/a
1511.196	n/a	PROB	755598	n/a	LTP247	ltpFR	15	n/a	n/a	n/a	n/a	n/a	n/a	n/a	22	5	8	9	n/a	n/a	n/a	n/a	n/a
1512.51	n/a	PROB	756255	n/a	LTP247	ltpFR	15	n/a	n/a	n/a	n/a	n/a	n/a	n/a	19	6	8	5	n/a	n/a	n/a	n/a	n/a
1514.366	n/a	STOP	757183	n/a	LTP247	ltpFR	15	n/a	n/a	n/a	n/a	n/a	n/a	n/a	n/a	n/a	n/a	n/a	n/a	n/a	n/a	n/a	n/a
1516.704	n/a	WORD	758352	wordpools/wasnorm_wordpool_less_exclusions.txt	LTP247	ltpFR	15	6	1	TOY	1492	n/a	n/a	0	n/a	0	0	0	0.422607421875	0.5869140625	0	lower	amplitud.ttf
1519.716	n/a	START	759858	n/a	LTP247	ltpFR	15	n/a	n/a	n/a	n/a	n/a	n/a	n/a	n/a	n/a	n/a	n/a	n/a	n/a	n/a	n/a	n/a
1520.914	n/a	PROB	760457	n/a	LTP247	ltpFR	15	n/a	n/a	n/a	n/a	n/a	n/a	n/a	9	1	7	1	n/a	n/a	n/a	n/a	n/a
1522.912	n/a	PROB	761456	n/a	LTP247	ltpFR	15	n/a	n/a	n/a	n/a	n/a	n/a	n/a	20	6	8	6	n/a	n/a	n/a	n/a	n/a
1524.41	n/a	PROB	762205	n/a	LTP247	ltpFR	15	n/a	n/a	n/a	n/a	n/a	n/a	n/a	14	1	9	4	n/a	n/a	n/a	n/a	n/a
1525.906	n/a	PROB	762953	n/a	LTP247	ltpFR	15	n/a	n/a	n/a	n/a	n/a	n/a	n/a	15	3	9	3	n/a	n/a	n/a	n/a	n/a
1528.686	n/a	PROB	764343	n/a	LTP247	ltpFR	15	n/a	n/a	n/a	n/a	n/a	n/a	n/a	10	4	2	4	n/a	n/a	n/a	n/a	n/a
1530.168	n/a	PROB	765084	n/a	LTP247	ltpFR	15	n/a	n/a	n/a	n/a	n/a	n/a	n/a	14	7	6	1	n/a	n/a	n/a	n/a	n/a
1531.598	n/a	PROB	765799	n/a	LTP247	ltpFR	15	n/a	n/a	n/a	n/a	n/a	n/a	n/a	22	8	5	9	n/a	n/a	n/a	n/a	n/a
1533.396	n/a	PROB	766698	n/a	LTP247	ltpFR	15	n/a	n/a	n/a	n/a	n/a	n/a	n/a	8	1	4	3	n/a	n/a	n/a	n/a	n/a
1535.054	n/a	STOP	767527	n/a	LTP247	ltpFR	15	n/a	n/a	n/a	n/a	n/a	n/a	n/a	n/a	n/a	n/a	n/a	n/a	n/a	n/a	n/a	n/a
1536.658	n/a	WORD	768329	wordpools/wasnorm_wordpool_less_exclusions.txt	LTP247	ltpFR	15	6	1	BUGGY	188	n/a	n/a	0	n/a	0	0	0	0.422607421875	0.5869140625	0	lower	amplitud.ttf
1539.67	n/a	START	769835	n/a	LTP247	ltpFR	15	n/a	n/a	n/a	n/a	n/a	n/a	n/a	n/a	n/a	n/a	n/a	n/a	n/a	n/a	n/a	n/a
1540.734	n/a	PROB	770367	n/a	LTP247	ltpFR	15	n/a	n/a	n/a	n/a	n/a	n/a	n/a	17	4	6	7	n/a	n/a	n/a	n/a	n/a
1542.764	n/a	PROB	771382	n/a	LTP247	ltpFR	15	n/a	n/a	n/a	n/a	n/a	n/a	n/a	19	4	7	8	n/a	n/a	n/a	n/a	n/a
1544.546	n/a	PROB	772273	n/a	LTP247	ltpFR	15	n/a	n/a	n/a	n/a	n/a	n/a	n/a	14	5	5	4	n/a	n/a	n/a	n/a	n/a
1546.076	n/a	PROB	773038	n/a	LTP247	ltpFR	15	n/a	n/a	n/a	n/a	n/a	n/a	n/a	18	7	6	5	n/a	n/a	n/a	n/a	n/a
1548.074	n/a	PROB	774037	n/a	LTP247	ltpFR	15	n/a	n/a	n/a	n/a	n/a	n/a	n/a	8	6	1	1	n/a	n/a	n/a	n/a	n/a
1549.654	n/a	PROB	774827	n/a	LTP247	ltpFR	15	n/a	n/a	n/a	n/a	n/a	n/a	n/a	11	2	2	7	n/a	n/a	n/a	n/a	n/a
1550.952	n/a	PROB	775476	n/a	LTP247	ltpFR	15	n/a	n/a	n/a	n/a	n/a	n/a	n/a	17	8	3	6	n/a	n/a	n/a	n/a	n/a
1552.65	n/a	PROB	776325	n/a	LTP247	ltpFR	15	n/a	n/a	n/a	n/a	n/a	n/a	n/a	12	6	5	1	n/a	n/a	n/a	n/a	n/a
1554.262	n/a	STOP	777131	n/a	LTP247	ltpFR	15	n/a	n/a	n/a	n/a	n/a	n/a	n/a	n/a	n/a	n/a	n/a	n/a	n/a	n/a	n/a	n/a
1556.828	n/a	WORD	778414	wordpools/wasnorm_wordpool_less_exclusions.txt	LTP247	ltpFR	15	6	1	GARAGE	621	n/a	n/a	0	n/a	0	0	0	0.422607421875	0.5869140625	0	lower	amplitud.ttf
1559.84	n/a	START	779920	n/a	LTP247	ltpFR	15	n/a	n/a	n/a	n/a	n/a	n/a	n/a	n/a	n/a	n/a	n/a	n/a	n/a	n/a	n/a	n/a
1560.704	n/a	PROB	780352	n/a	LTP247	ltpFR	15	n/a	n/a	n/a	n/a	n/a	n/a	n/a	13	3	8	2	n/a	n/a	n/a	n/a	n/a
1562.686	n/a	PROB	781343	n/a	LTP247	ltpFR	15	n/a	n/a	n/a	n/a	n/a	n/a	n/a	14	6	4	4	n/a	n/a	n/a	n/a	n/a
1564.798	n/a	PROB	782399	n/a	LTP247	ltpFR	15	n/a	n/a	n/a	n/a	n/a	n/a	n/a	12	6	2	4	n/a	n/a	n/a	n/a	n/a
1566.712	n/a	PROB	783356	n/a	LTP247	ltpFR	15	n/a	n/a	n/a	n/a	n/a	n/a	n/a	21	9	7	5	n/a	n/a	n/a	n/a	n/a
1568.194	n/a	PROB	784097	n/a	LTP247	ltpFR	15	n/a	n/a	n/a	n/a	n/a	n/a	n/a	14	7	4	3	n/a	n/a	n/a	n/a	n/a
1570.074	n/a	PROB	785037	n/a	LTP247	ltpFR	15	n/a	n/a	n/a	n/a	n/a	n/a	n/a	12	7	2	3	n/a	n/a	n/a	n/a	n/a
1571.79	n/a	PROB	785895	n/a	LTP247	ltpFR	15	n/a	n/a	n/a	n/a	n/a	n/a	n/a	18	3	8	7	n/a	n/a	n/a	n/a	n/a
1573.404	n/a	PROB	786702	n/a	LTP247	ltpFR	15	n/a	n/a	n/a	n/a	n/a	n/a	n/a	18	2	8	8	n/a	n/a	n/a	n/a	n/a
1574.942	n/a	STOP	787471	n/a	LTP247	ltpFR	15	n/a	n/a	n/a	n/a	n/a	n/a	n/a	n/a	n/a	n/a	n/a	n/a	n/a	n/a	n/a	n/a
1576.832	n/a	WORD	788416	wordpools/wasnorm_wordpool_less_exclusions.txt	LTP247	ltpFR	15	6	0	BUCKLE	185	n/a	n/a	n/a	n/a	0	0	0	0.57763671875	0.412841796875	1	upper	zerothre.ttf
1579.86	n/a	SLOW_MSG	789930	n/a	LTP247	ltpFR	15	6	n/a	n/a	n/a	n/a	n/a	n/a	n/a	0	0	0	n/a	n/a	n/a	n/a	n/a
1581.392	n/a	START	790696	n/a	LTP247	ltpFR	15	n/a	n/a	n/a	n/a	n/a	n/a	n/a	n/a	n/a	n/a	n/a	n/a	n/a	n/a	n/a	n/a
1582.208	n/a	PROB	791104	n/a	LTP247	ltpFR	15	n/a	n/a	n/a	n/a	n/a	n/a	n/a	12	6	3	3	n/a	n/a	n/a	n/a	n/a
1584.636	n/a	PROB	792318	n/a	LTP247	ltpFR	15	n/a	n/a	n/a	n/a	n/a	n/a	n/a	20	7	7	6	n/a	n/a	n/a	n/a	n/a
1586.816	n/a	PROB	793408	n/a	LTP247	ltpFR	15	n/a	n/a	n/a	n/a	n/a	n/a	n/a	12	9	2	1	n/a	n/a	n/a	n/a	n/a
1588.198	n/a	PROB	794099	n/a	LTP247	ltpFR	15	n/a	n/a	n/a	n/a	n/a	n/a	n/a	21	8	8	5	n/a	n/a	n/a	n/a	n/a
1590.03	n/a	PROB	795015	n/a	LTP247	ltpFR	15	n/a	n/a	n/a	n/a	n/a	n/a	n/a	15	6	8	1	n/a	n/a	n/a	n/a	n/a
1591.742	n/a	PROB	795871	n/a	LTP247	ltpFR	15	n/a	n/a	n/a	n/a	n/a	n/a	n/a	13	1	3	9	n/a	n/a	n/a	n/a	n/a
1594.306	n/a	PROB	797153	n/a	LTP247	ltpFR	15	n/a	n/a	n/a	n/a	n/a	n/a	n/a	13	8	3	2	n/a	n/a	n/a	n/a	n/a
1596.406	n/a	STOP	798203	n/a	LTP247	ltpFR	15	n/a	n/a	n/a	n/a	n/a	n/a	n/a	n/a	n/a	n/a	n/a	n/a	n/a	n/a	n/a	n/a
1598.25	n/a	WORD	799125	wordpools/wasnorm_wordpool_less_exclusions.txt	LTP247	ltpFR	15	6	0	MOB	904	n/a	n/a	1	n/a	0	0	0	0.57763671875	0.412841796875	1	upper	zerothre.ttf
1601.262	n/a	START	800631	n/a	LTP247	ltpFR	15	n/a	n/a	n/a	n/a	n/a	n/a	n/a	n/a	n/a	n/a	n/a	n/a	n/a	n/a	n/a	n/a
1602.178	n/a	PROB	801089	n/a	LTP247	ltpFR	15	n/a	n/a	n/a	n/a	n/a	n/a	n/a	19	7	4	8	n/a	n/a	n/a	n/a	n/a
1604.108	n/a	PROB	802054	n/a	LTP247	ltpFR	15	n/a	n/a	n/a	n/a	n/a	n/a	n/a	10	5	2	3	n/a	n/a	n/a	n/a	n/a
1605.738	n/a	PROB	802869	n/a	LTP247	ltpFR	15	n/a	n/a	n/a	n/a	n/a	n/a	n/a	12	5	3	4	n/a	n/a	n/a	n/a	n/a
1607.57	n/a	PROB	803785	n/a	LTP247	ltpFR	15	n/a	n/a	n/a	n/a	n/a	n/a	n/a	14	4	4	6	n/a	n/a	n/a	n/a	n/a
1609.566	n/a	PROB	804783	n/a	LTP247	ltpFR	15	n/a	n/a	n/a	n/a	n/a	n/a	n/a	19	5	6	8	n/a	n/a	n/a	n/a	n/a
1611.198	n/a	PROB	805599	n/a	LTP247	ltpFR	15	n/a	n/a	n/a	n/a	n/a	n/a	n/a	18	4	5	9	n/a	n/a	n/a	n/a	n/a
1613.26	n/a	PROB	806630	n/a	LTP247	ltpFR	15	n/a	n/a	n/a	n/a	n/a	n/a	n/a	11	6	2	3	n/a	n/a	n/a	n/a	n/a
1617.262	n/a	STOP	808631	n/a	LTP247	ltpFR	15	n/a	n/a	n/a	n/a	n/a	n/a	n/a	n/a	n/a	n/a	n/a	n/a	n/a	n/a	n/a	n/a
1618.386	n/a	WORD	809193	wordpools/wasnorm_wordpool_less_exclusions.txt	LTP247	ltpFR	15	6	0	SERGEANT	1269	n/a	n/a	1	n/a	0	0	0	0.57763671875	0.412841796875	1	upper	zerothre.ttf
1621.4	n/a	START	810700	n/a	LTP247	ltpFR	15	n/a	n/a	n/a	n/a	n/a	n/a	n/a	n/a	n/a	n/a	n/a	n/a	n/a	n/a	n/a	n/a
1622.23	n/a	PROB	811115	n/a	LTP247	ltpFR	15	n/a	n/a	n/a	n/a	n/a	n/a	n/a	10	1	5	4	n/a	n/a	n/a	n/a	n/a
1624.244	n/a	PROB	812122	n/a	LTP247	ltpFR	15	n/a	n/a	n/a	n/a	n/a	n/a	n/a	25	9	8	8	n/a	n/a	n/a	n/a	n/a
1627.622	n/a	PROB	813811	n/a	LTP247	ltpFR	15	n/a	n/a	n/a	n/a	n/a	n/a	n/a	19	5	6	8	n/a	n/a	n/a	n/a	n/a
1629.154	n/a	PROB	814577	n/a	LTP247	ltpFR	15	n/a	n/a	n/a	n/a	n/a	n/a	n/a	13	6	1	6	n/a	n/a	n/a	n/a	n/a
1631.036	n/a	PROB	815518	n/a	LTP247	ltpFR	15	n/a	n/a	n/a	n/a	n/a	n/a	n/a	16	5	8	3	n/a	n/a	n/a	n/a	n/a
1632.832	n/a	PROB	816416	n/a	LTP247	ltpFR	15	n/a	n/a	n/a	n/a	n/a	n/a	n/a	18	2	8	8	n/a	n/a	n/a	n/a	n/a
1634.562	n/a	PROB	817281	n/a	LTP247	ltpFR	15	n/a	n/a	n/a	n/a	n/a	n/a	n/a	15	8	2	5	n/a	n/a	n/a	n/a	n/a
1635.984	n/a	STOP	817992	n/a	LTP247	ltpFR	15	n/a	n/a	n/a	n/a	n/a	n/a	n/a	n/a	n/a	n/a	n/a	n/a	n/a	n/a	n/a	n/a
1638.406	n/a	WORD	819203	wordpools/wasnorm_wordpool_less_exclusions.txt	LTP247	ltpFR	15	6	0	QUAIL	1147	n/a	n/a	0	n/a	0	0	0	0.57763671875	0.412841796875	1	upper	zerothre.ttf
1641.42	n/a	START	820710	n/a	LTP247	ltpFR	15	n/a	n/a	n/a	n/a	n/a	n/a	n/a	n/a	n/a	n/a	n/a	n/a	n/a	n/a	n/a	n/a
1642.518	n/a	PROB	821259	n/a	LTP247	ltpFR	15	n/a	n/a	n/a	n/a	n/a	n/a	n/a	11	5	5	1	n/a	n/a	n/a	n/a	n/a
1643.716	n/a	PROB	821858	n/a	LTP247	ltpFR	15	n/a	n/a	n/a	n/a	n/a	n/a	n/a	14	1	4	9	n/a	n/a	n/a	n/a	n/a
1645.348	n/a	PROB	822674	n/a	LTP247	ltpFR	15	n/a	n/a	n/a	n/a	n/a	n/a	n/a	12	3	5	4	n/a	n/a	n/a	n/a	n/a
1647.228	n/a	PROB	823614	n/a	LTP247	ltpFR	15	n/a	n/a	n/a	n/a	n/a	n/a	n/a	16	4	3	9	n/a	n/a	n/a	n/a	n/a
1649.074	n/a	PROB	824537	n/a	LTP247	ltpFR	15	n/a	n/a	n/a	n/a	n/a	n/a	n/a	15	6	1	8	n/a	n/a	n/a	n/a	n/a
1650.756	n/a	PROB	825378	n/a	LTP247	ltpFR	15	n/a	n/a	n/a	n/a	n/a	n/a	n/a	21	7	5	9	n/a	n/a	n/a	n/a	n/a
1653.036	n/a	PROB	826518	n/a	LTP247	ltpFR	15	n/a	n/a	n/a	n/a	n/a	n/a	n/a	19	6	6	7	n/a	n/a	n/a	n/a	n/a
1655.082	n/a	PROB	827541	n/a	LTP247	ltpFR	15	n/a	n/a	n/a	n/a	n/a	n/a	n/a	8	2	5	1	n/a	n/a	n/a	n/a	n/a
1656.368	n/a	STOP	828184	n/a	LTP247	ltpFR	15	n/a	n/a	n/a	n/a	n/a	n/a	n/a	n/a	n/a	n/a	n/a	n/a	n/a	n/a	n/a	n/a
1658.362	n/a	WORD	829181	wordpools/wasnorm_wordpool_less_exclusions.txt	LTP247	ltpFR	15	6	0	DIAMOND	458	n/a	n/a	0	n/a	0	0	0	0.57763671875	0.412841796875	1	upper	zerothre.ttf
1661.374	n/a	START	830687	n/a	LTP247	ltpFR	15	n/a	n/a	n/a	n/a	n/a	n/a	n/a	n/a	n/a	n/a	n/a	n/a	n/a	n/a	n/a	n/a
1662.222	n/a	PROB	831111	n/a	LTP247	ltpFR	15	n/a	n/a	n/a	n/a	n/a	n/a	n/a	22	8	7	7	n/a	n/a	n/a	n/a	n/a
1664.102	n/a	PROB	832051	n/a	LTP247	ltpFR	15	n/a	n/a	n/a	n/a	n/a	n/a	n/a	14	6	4	4	n/a	n/a	n/a	n/a	n/a
1665.716	n/a	PROB	832858	n/a	LTP247	ltpFR	15	n/a	n/a	n/a	n/a	n/a	n/a	n/a	17	6	7	4	n/a	n/a	n/a	n/a	n/a
1668.214	n/a	PROB	834107	n/a	LTP247	ltpFR	15	n/a	n/a	n/a	n/a	n/a	n/a	n/a	23	7	7	9	n/a	n/a	n/a	n/a	n/a
1671.658	n/a	PROB	835829	n/a	LTP247	ltpFR	15	n/a	n/a	n/a	n/a	n/a	n/a	n/a	17	9	3	5	n/a	n/a	n/a	n/a	n/a
1673.506	n/a	PROB	836753	n/a	LTP247	ltpFR	15	n/a	n/a	n/a	n/a	n/a	n/a	n/a	9	3	3	3	n/a	n/a	n/a	n/a	n/a
1674.886	n/a	PROB	837443	n/a	LTP247	ltpFR	15	n/a	n/a	n/a	n/a	n/a	n/a	n/a	10	4	4	2	n/a	n/a	n/a	n/a	n/a
1676.496	n/a	STOP	838248	n/a	LTP247	ltpFR	15	n/a	n/a	n/a	n/a	n/a	n/a	n/a	n/a	n/a	n/a	n/a	n/a	n/a	n/a	n/a	n/a
1678.248	n/a	WORD	839124	wordpools/wasnorm_wordpool_less_exclusions.txt	LTP247	ltpFR	15	6	0	SAPPHIRE	1234	n/a	n/a	0	n/a	0	0	0	0.57763671875	0.412841796875	1	upper	zerothre.ttf
1681.26	n/a	START	840630	n/a	LTP247	ltpFR	15	n/a	n/a	n/a	n/a	n/a	n/a	n/a	n/a	n/a	n/a	n/a	n/a	n/a	n/a	n/a	n/a
1682.392	n/a	PROB	841196	n/a	LTP247	ltpFR	15	n/a	n/a	n/a	n/a	n/a	n/a	n/a	14	1	4	9	n/a	n/a	n/a	n/a	n/a
1684.272	n/a	PROB	842136	n/a	LTP247	ltpFR	15	n/a	n/a	n/a	n/a	n/a	n/a	n/a	16	7	6	3	n/a	n/a	n/a	n/a	n/a
1686.086	n/a	PROB	843043	n/a	LTP247	ltpFR	15	n/a	n/a	n/a	n/a	n/a	n/a	n/a	10	2	2	6	n/a	n/a	n/a	n/a	n/a
1687.518	n/a	PROB	843759	n/a	LTP247	ltpFR	15	n/a	n/a	n/a	n/a	n/a	n/a	n/a	17	8	2	7	n/a	n/a	n/a	n/a	n/a
1689.048	n/a	PROB	844524	n/a	LTP247	ltpFR	15	n/a	n/a	n/a	n/a	n/a	n/a	n/a	12	6	4	2	n/a	n/a	n/a	n/a	n/a
1690.662	n/a	PROB	845331	n/a	LTP247	ltpFR	15	n/a	n/a	n/a	n/a	n/a	n/a	n/a	21	4	8	9	n/a	n/a	n/a	n/a	n/a
1692.21	n/a	PROB	846105	n/a	LTP247	ltpFR	15	n/a	n/a	n/a	n/a	n/a	n/a	n/a	15	4	8	3	n/a	n/a	n/a	n/a	n/a
1694.042	n/a	PROB	847021	n/a	LTP247	ltpFR	15	n/a	n/a	n/a	n/a	n/a	n/a	n/a	20	9	7	4	n/a	n/a	n/a	n/a	n/a
1695.928	n/a	STOP	847964	n/a	LTP247	ltpFR	15	n/a	n/a	n/a	n/a	n/a	n/a	n/a	n/a	n/a	n/a	n/a	n/a	n/a	n/a	n/a	n/a
1698.152	n/a	WORD	849076	wordpools/wasnorm_wordpool_less_exclusions.txt	LTP247	ltpFR	15	6	1	CARPET	247	n/a	n/a	0	n/a	0	0	0	0.422607421875	0.5869140625	0	lower	amplitud.ttf
1701.164	n/a	START	850582	n/a	LTP247	ltpFR	15	n/a	n/a	n/a	n/a	n/a	n/a	n/a	n/a	n/a	n/a	n/a	n/a	n/a	n/a	n/a	n/a
1702.146	n/a	PROB	851073	n/a	LTP247	ltpFR	15	n/a	n/a	n/a	n/a	n/a	n/a	n/a	20	9	5	6	n/a	n/a	n/a	n/a	n/a
1704.142	n/a	PROB	852071	n/a	LTP247	ltpFR	15	n/a	n/a	n/a	n/a	n/a	n/a	n/a	10	1	2	7	n/a	n/a	n/a	n/a	n/a
1705.806	n/a	PROB	852903	n/a	LTP247	ltpFR	15	n/a	n/a	n/a	n/a	n/a	n/a	n/a	21	9	3	9	n/a	n/a	n/a	n/a	n/a
1707.438	n/a	PROB	853719	n/a	LTP247	ltpFR	15	n/a	n/a	n/a	n/a	n/a	n/a	n/a	21	8	6	7	n/a	n/a	n/a	n/a	n/a
1709.004	n/a	PROB	854502	n/a	LTP247	ltpFR	15	n/a	n/a	n/a	n/a	n/a	n/a	n/a	12	4	6	2	n/a	n/a	n/a	n/a	n/a
1710.334	n/a	PROB	855167	n/a	LTP247	ltpFR	15	n/a	n/a	n/a	n/a	n/a	n/a	n/a	15	8	2	5	n/a	n/a	n/a	n/a	n/a
1712.0	n/a	PROB	856000	n/a	LTP247	ltpFR	15	n/a	n/a	n/a	n/a	n/a	n/a	n/a	7	1	4	2	n/a	n/a	n/a	n/a	n/a
1713.496	n/a	PROB	856748	n/a	LTP247	ltpFR	15	n/a	n/a	n/a	n/a	n/a	n/a	n/a	10	2	5	3	n/a	n/a	n/a	n/a	n/a
1714.912	n/a	PROB	857456	n/a	LTP247	ltpFR	15	n/a	n/a	n/a	n/a	n/a	n/a	n/a	9	1	1	7	n/a	n/a	n/a	n/a	n/a
1716.096	n/a	STOP	858048	n/a	LTP247	ltpFR	15	n/a	n/a	n/a	n/a	n/a	n/a	n/a	n/a	n/a	n/a	n/a	n/a	n/a	n/a	n/a	n/a
1718.34	n/a	WORD	859170	wordpools/wasnorm_wordpool_less_exclusions.txt	LTP247	ltpFR	15	6	1	BROOM	178	n/a	n/a	0	n/a	0	0	0	0.422607421875	0.5869140625	0	lower	amplitud.ttf
1721.352	n/a	START	860676	n/a	LTP247	ltpFR	15	n/a	n/a	n/a	n/a	n/a	n/a	n/a	n/a	n/a	n/a	n/a	n/a	n/a	n/a	n/a	n/a
1722.3	n/a	PROB	861150	n/a	LTP247	ltpFR	15	n/a	n/a	n/a	n/a	n/a	n/a	n/a	15	1	9	5	n/a	n/a	n/a	n/a	n/a
1723.98	n/a	PROB	861990	n/a	LTP247	ltpFR	15	n/a	n/a	n/a	n/a	n/a	n/a	n/a	16	2	6	8	n/a	n/a	n/a	n/a	n/a
1725.844	n/a	PROB	862922	n/a	LTP247	ltpFR	15	n/a	n/a	n/a	n/a	n/a	n/a	n/a	22	9	6	7	n/a	n/a	n/a	n/a	n/a
1728.474	n/a	PROB	864237	n/a	LTP247	ltpFR	15	n/a	n/a	n/a	n/a	n/a	n/a	n/a	20	4	9	7	n/a	n/a	n/a	n/a	n/a
1730.006	n/a	PROB	865003	n/a	LTP247	ltpFR	15	n/a	n/a	n/a	n/a	n/a	n/a	n/a	11	1	3	7	n/a	n/a	n/a	n/a	n/a
1731.32	n/a	PROB	865660	n/a	LTP247	ltpFR	15	n/a	n/a	n/a	n/a	n/a	n/a	n/a	15	6	4	5	n/a	n/a	n/a	n/a	n/a
1732.734	n/a	PROB	866367	n/a	LTP247	ltpFR	15	n/a	n/a	n/a	n/a	n/a	n/a	n/a	12	6	5	1	n/a	n/a	n/a	n/a	n/a
1734.282	n/a	PROB	867141	n/a	LTP247	ltpFR	15	n/a	n/a	n/a	n/a	n/a	n/a	n/a	20	9	7	4	n/a	n/a	n/a	n/a	n/a
1737.35	n/a	STOP	868675	n/a	LTP247	ltpFR	15	n/a	n/a	n/a	n/a	n/a	n/a	n/a	n/a	n/a	n/a	n/a	n/a	n/a	n/a	n/a	n/a
1739.192	n/a	REC_START	869596	n/a	LTP247	ltpFR	15	6	n/a	n/a	n/a	n/a	n/a	n/a	n/a	0	0	0	n/a	n/a	n/a	n/a	n/a
1740.926	n/a	REC_WORD	870463	wordpools/wasnorm_wordpool_less_exclusions.txt	LTP247	ltpFR	15	6	1	CARPET	247	n/a	n/a	0	n/a	0	0	0	n/a	n/a	n/a	n/a	n/a
1741.598	n/a	REC_WORD	870799	wordpools/wasnorm_wordpool_less_exclusions.txt	LTP247	ltpFR	15	6	1	BROOM	178	n/a	n/a	0	n/a	0	0	0	n/a	n/a	n/a	n/a	n/a
1742.242	n/a	REC_WORD	871121	wordpools/wasnorm_wordpool_less_exclusions.txt	LTP247	ltpFR	15	6	0	SAPPHIRE	1234	n/a	n/a	0	n/a	0	0	0	n/a	n/a	n/a	n/a	n/a
1743.342	n/a	REC_WORD	871671	wordpools/wasnorm_wordpool_less_exclusions.txt	LTP247	ltpFR	15	6	0	DIAMOND	458	n/a	n/a	0	n/a	0	0	0	n/a	n/a	n/a	n/a	n/a
1744.602	n/a	REC_WORD	872301	wordpools/wasnorm_wordpool_less_exclusions.txt	LTP247	ltpFR	15	6	1	TOY	1492	n/a	n/a	0	n/a	0	0	0	n/a	n/a	n/a	n/a	n/a
1745.364	n/a	REC_WORD	872682	wordpools/wasnorm_wordpool_less_exclusions.txt	LTP247	ltpFR	15	6	1	BUGGY	188	n/a	n/a	0	n/a	0	0	0	n/a	n/a	n/a	n/a	n/a
1746.074	n/a	REC_WORD	873037	wordpools/wasnorm_wordpool_less_exclusions.txt	LTP247	ltpFR	15	6	1	GARAGE	621	n/a	n/a	0	n/a	0	0	0	n/a	n/a	n/a	n/a	n/a
1747.524	n/a	REC_WORD	873762	wordpools/wasnorm_wordpool_less_exclusions.txt	LTP247	ltpFR	15	6	0	QUAIL	1147	n/a	n/a	0	n/a	0	0	0	n/a	n/a	n/a	n/a	n/a
1748.33	n/a	REC_WORD	874165	wordpools/wasnorm_wordpool_less_exclusions.txt	LTP247	ltpFR	15	6	0	SERGEANT	1269	n/a	n/a	1	n/a	0	0	0	n/a	n/a	n/a	n/a	n/a
1749.284	n/a	REC_WORD	874642	wordpools/wasnorm_wordpool_less_exclusions.txt	LTP247	ltpFR	15	6	0	MOB	904	n/a	n/a	1	n/a	0	0	0	n/a	n/a	n/a	n/a	n/a
1823.9	n/a	WORD	911950	wordpools/wasnorm_wordpool_less_exclusions.txt	LTP247	ltpFR	15	7	1	SHRIMP	1297	n/a	n/a	1	n/a	0	0	0	0.422607421875	0.5869140625	0	lower	amplitud.ttf
1827.776	n/a	WORD	913888	wordpools/wasnorm_wordpool_less_exclusions.txt	LTP247	ltpFR	15	7	1	DESSERT	453	n/a	n/a	0	n/a	0	0	0	0.422607421875	0.5869140625	0	lower	amplitud.ttf
1831.888	n/a	WORD	915944	wordpools/wasnorm_wordpool_less_exclusions.txt	LTP247	ltpFR	15	7	1	WARRIOR	1589	n/a	n/a	1	n/a	0	0	0	0.422607421875	0.5869140625	0	lower	amplitud.ttf
1835.948	n/a	WORD	917974	wordpools/wasnorm_wordpool_less_exclusions.txt	LTP247	ltpFR	15	7	1	FORT	595	n/a	n/a	0	n/a	0	0	0	0.422607421875	0.5869140625	0	lower	amplitud.ttf
1839.776	n/a	WORD	919888	wordpools/wasnorm_wordpool_less_exclusions.txt	LTP247	ltpFR	15	7	1	POND	1101	n/a	n/a	0	n/a	0	0	0	0.422607421875	0.5869140625	0	lower	amplitud.ttf
1843.77	n/a	WORD	921885	wordpools/wasnorm_wordpool_less_exclusions.txt	LTP247	ltpFR	15	7	1	CHEST	295	n/a	n/a	0	n/a	0	0	0	0.422607421875	0.5869140625	0	lower	amplitud.ttf
1847.598	n/a	WORD	923799	wordpools/wasnorm_wordpool_less_exclusions.txt	LTP247	ltpFR	15	7	1	PIE	1062	n/a	n/a	0	n/a	0	0	0	0.422607421875	0.5869140625	0	lower	amplitud.ttf
1851.658	n/a	WORD	925829	wordpools/wasnorm_wordpool_less_exclusions.txt	LTP247	ltpFR	15	7	1	CONTAINER	366	n/a	n/a	0	n/a	0	0	0	0.422607421875	0.5869140625	0	lower	amplitud.ttf
1855.736	n/a	WORD	927868	wordpools/wasnorm_wordpool_less_exclusions.txt	LTP247	ltpFR	15	7	1	SUPERMARKET	1409	n/a	n/a	0	n/a	0	0	0	0.422607421875	0.5869140625	0	lower	amplitud.ttf
1859.596	n/a	WORD	929798	wordpools/wasnorm_wordpool_less_exclusions.txt	LTP247	ltpFR	15	7	1	SUBMARINE	1398	n/a	n/a	0	n/a	0	0	0	0.422607421875	0.5869140625	0	lower	amplitud.ttf
1863.458	n/a	WORD	931729	wordpools/wasnorm_wordpool_less_exclusions.txt	LTP247	ltpFR	15	7	1	REEF	1177	n/a	n/a	1	n/a	0	0	0	0.422607421875	0.5869140625	0	lower	amplitud.ttf
1867.318	n/a	WORD	933659	wordpools/wasnorm_wordpool_less_exclusions.txt	LTP247	ltpFR	15	7	1	COD	340	n/a	n/a	1	n/a	0	0	0	0.422607421875	0.5869140625	0	lower	amplitud.ttf
1871.262	n/a	WORD	935631	wordpools/wasnorm_wordpool_less_exclusions.txt	LTP247	ltpFR	15	7	1	THIGH	1457	n/a	n/a	0	n/a	0	0	0	0.422607421875	0.5869140625	0	lower	amplitud.ttf
1875.306	n/a	WORD	937653	wordpools/wasnorm_wordpool_less_exclusions.txt	LTP247	ltpFR	15	7	1	CLOSET	326	n/a	n/a	0	n/a	0	0	0	0.422607421875	0.5869140625	0	lower	amplitud.ttf
1879.168	n/a	WORD	939584	wordpools/wasnorm_wordpool_less_exclusions.txt	LTP247	ltpFR	15	7	1	SHEEP	1278	n/a	n/a	1	n/a	0	0	0	0.422607421875	0.5869140625	0	lower	amplitud.ttf
1883.294	n/a	WORD	941647	wordpools/wasnorm_wordpool_less_exclusions.txt	LTP247	ltpFR	15	7	1	QUEEN	1149	n/a	n/a	1	n/a	0	0	0	0.422607421875	0.5869140625	0	lower	amplitud.ttf
1889.022	n/a	REC_START	944511	n/a	LTP247	ltpFR	15	7	n/a	n/a	n/a	n/a	n/a	n/a	n/a	0	0	0	n/a	n/a	n/a	n/a	n/a
1890.874	n/a	REC_WORD	945437	wordpools/wasnorm_wordpool_less_exclusions.txt	LTP247	ltpFR	15	7	1	QUEEN	1149	n/a	n/a	1	n/a	0	0	0	n/a	n/a	n/a	n/a	n/a
1891.644	n/a	REC_WORD	945822	wordpools/wasnorm_wordpool_less_exclusions.txt	LTP247	ltpFR	15	7	1	SHEEP	1278	n/a	n/a	1	n/a	0	0	0	n/a	n/a	n/a	n/a	n/a
1892.526	n/a	REC_WORD	946263	wordpools/wasnorm_wordpool_less_exclusions.txt	LTP247	ltpFR	15	7	1	SUPERMARKET	1409	n/a	n/a	0	n/a	0	0	0	n/a	n/a	n/a	n/a	n/a
1893.28	n/a	REC_WORD	946640	wordpools/wasnorm_wordpool_less_exclusions.txt	LTP247	ltpFR	15	7	1	SUBMARINE	1398	n/a	n/a	0	n/a	0	0	0	n/a	n/a	n/a	n/a	n/a
1894.148	n/a	REC_WORD	947074	wordpools/wasnorm_wordpool_less_exclusions.txt	LTP247	ltpFR	15	7	1	REEF	1177	n/a	n/a	1	n/a	0	0	0	n/a	n/a	n/a	n/a	n/a
1895.094	n/a	REC_WORD	947547	wordpools/wasnorm_wordpool_less_exclusions.txt	LTP247	ltpFR	15	7	1	COD	340	n/a	n/a	1	n/a	0	0	0	n/a	n/a	n/a	n/a	n/a
1896.154	n/a	REC_WORD	948077	wordpools/wasnorm_wordpool_less_exclusions.txt	LTP247	ltpFR	15	7	1	SHRIMP	1297	n/a	n/a	1	n/a	0	0	0	n/a	n/a	n/a	n/a	n/a
1897.038	n/a	REC_WORD	948519	wordpools/wasnorm_wordpool_less_exclusions.txt	LTP247	ltpFR	15	7	1	DESSERT	453	n/a	n/a	0	n/a	0	0	0	n/a	n/a	n/a	n/a	n/a
1897.85	n/a	REC_WORD	948925	wordpools/wasnorm_wordpool_less_exclusions.txt	LTP247	ltpFR	15	7	1	WARRIOR	1589	n/a	n/a	1	n/a	0	0	0	n/a	n/a	n/a	n/a	n/a
1898.84	n/a	REC_WORD	949420	wordpools/wasnorm_wordpool_less_exclusions.txt	LTP247	ltpFR	15	7	1	FORT	595	n/a	n/a	0	n/a	0	0	0	n/a	n/a	n/a	n/a	n/a
1899.998	n/a	REC_WORD	949999	wordpools/wasnorm_wordpool_less_exclusions.txt	LTP247	ltpFR	15	7	1	POND	1101	n/a	n/a	0	n/a	0	0	0	n/a	n/a	n/a	n/a	n/a
1903.59	n/a	REC_WORD	951795	wordpools/wasnorm_wordpool_less_exclusions.txt	LTP247	ltpFR	15	7	1	CHEST	295	n/a	n/a	0	n/a	0	0	0	n/a	n/a	n/a	n/a	n/a
1909.676	n/a	REC_WORD	954838	wordpools/wasnorm_wordpool_less_exclusions.txt	LTP247	ltpFR	15	7	1	THIGH	1457	n/a	n/a	0	n/a	0	0	0	n/a	n/a	n/a	n/a	n/a
1969.784	n/a	WORD	984892	wordpools/wasnorm_wordpool_less_exclusions.txt	LTP247	ltpFR	15	8	1	ENEMY	534	n/a	n/a	1	n/a	0	0	0	0.422607421875	0.5869140625	0	lower	amplitud.ttf
1973.944	n/a	WORD	986972	wordpools/wasnorm_wordpool_less_exclusions.txt	LTP247	ltpFR	15	8	1	BUTLER	204	n/a	n/a	1	n/a	0	0	0	0.422607421875	0.5869140625	0	lower	amplitud.ttf
1977.822	n/a	WORD	988911	wordpools/wasnorm_wordpool_less_exclusions.txt	LTP247	ltpFR	15	8	1	MAID	856	n/a	n/a	1	n/a	0	0	0	0.422607421875	0.5869140625	0	lower	amplitud.ttf
1981.684	n/a	WORD	990842	wordpools/wasnorm_wordpool_less_exclusions.txt	LTP247	ltpFR	15	8	1	BANKER	84	n/a	n/a	1	n/a	0	0	0	0.422607421875	0.5869140625	0	lower	amplitud.ttf
1985.628	n/a	WORD	992814	wordpools/wasnorm_wordpool_less_exclusions.txt	LTP247	ltpFR	15	8	1	WAITER	1580	n/a	n/a	1	n/a	0	0	0	0.422607421875	0.5869140625	0	lower	amplitud.ttf
1989.638	n/a	WORD	994819	wordpools/wasnorm_wordpool_less_exclusions.txt	LTP247	ltpFR	15	8	1	SNACK	1331	n/a	n/a	0	n/a	0	0	0	0.422607421875	0.5869140625	0	lower	amplitud.ttf
1993.716	n/a	WORD	996858	wordpools/wasnorm_wordpool_less_exclusions.txt	LTP247	ltpFR	15	8	1	CASH	252	n/a	n/a	0	n/a	0	0	0	0.422607421875	0.5869140625	0	lower	amplitud.ttf
1997.792	n/a	WORD	998896	wordpools/wasnorm_wordpool_less_exclusions.txt	LTP247	ltpFR	15	8	1	WHALE	1601	n/a	n/a	1	n/a	0	0	0	0.422607421875	0.5869140625	0	lower	amplitud.ttf
2001.836	n/a	WORD	1000918	wordpools/wasnorm_wordpool_less_exclusions.txt	LTP247	ltpFR	15	8	1	OATS	968	n/a	n/a	0	n/a	0	0	0	0.422607421875	0.5869140625	0	lower	amplitud.ttf
2005.73	n/a	WORD	1002865	wordpools/wasnorm_wordpool_less_exclusions.txt	LTP247	ltpFR	15	8	1	CAKE	219	n/a	n/a	0	n/a	0	0	0	0.422607421875	0.5869140625	0	lower	amplitud.ttf
2009.758	n/a	WORD	1004879	wordpools/wasnorm_wordpool_less_exclusions.txt	LTP247	ltpFR	15	8	1	CHIP	303	n/a	n/a	0	n/a	0	0	0	0.422607421875	0.5869140625	0	lower	amplitud.ttf
2013.902	n/a	WORD	1006951	wordpools/wasnorm_wordpool_less_exclusions.txt	LTP247	ltpFR	15	8	1	LOBSTER	837	n/a	n/a	1	n/a	0	0	0	0.422607421875	0.5869140625	0	lower	amplitud.ttf
2017.746	n/a	WORD	1008873	wordpools/wasnorm_wordpool_less_exclusions.txt	LTP247	ltpFR	15	8	1	VELVET	1555	n/a	n/a	0	n/a	0	0	0	0.422607421875	0.5869140625	0	lower	amplitud.ttf
2021.59	n/a	WORD	1010795	wordpools/wasnorm_wordpool_less_exclusions.txt	LTP247	ltpFR	15	8	1	CROSS	413	n/a	n/a	0	n/a	0	0	0	0.422607421875	0.5869140625	0	lower	amplitud.ttf
2025.784	n/a	WORD	1012892	wordpools/wasnorm_wordpool_less_exclusions.txt	LTP247	ltpFR	15	8	1	STATUE	1374	n/a	n/a	0	n/a	0	0	0	0.422607421875	0.5869140625	0	lower	amplitud.ttf
2029.828	n/a	WORD	1014914	wordpools/wasnorm_wordpool_less_exclusions.txt	LTP247	ltpFR	15	8	1	PAINTING	1005	n/a	n/a	0	n/a	0	0	0	0.422607421875	0.5869140625	0	lower	amplitud.ttf
2032.84	n/a	START	1016420	n/a	LTP247	ltpFR	15	n/a	n/a	n/a	n/a	n/a	n/a	n/a	n/a	n/a	n/a	n/a	n/a	n/a	n/a	n/a	n/a
2033.956	n/a	PROB	1016978	n/a	LTP247	ltpFR	15	n/a	n/a	n/a	n/a	n/a	n/a	n/a	17	5	8	4	n/a	n/a	n/a	n/a	n/a
2036.036	n/a	PROB	1018018	n/a	LTP247	ltpFR	15	n/a	n/a	n/a	n/a	n/a	n/a	n/a	19	9	3	7	n/a	n/a	n/a	n/a	n/a
2037.416	n/a	PROB	1018708	n/a	LTP247	ltpFR	15	n/a	n/a	n/a	n/a	n/a	n/a	n/a	15	7	4	4	n/a	n/a	n/a	n/a	n/a
2038.848	n/a	PROB	1019424	n/a	LTP247	ltpFR	15	n/a	n/a	n/a	n/a	n/a	n/a	n/a	14	3	8	3	n/a	n/a	n/a	n/a	n/a
2040.228	n/a	STOP	1020114	n/a	LTP247	ltpFR	15	n/a	n/a	n/a	n/a	n/a	n/a	n/a	n/a	n/a	n/a	n/a	n/a	n/a	n/a	n/a	n/a
2042.692	n/a	REC_START	1021346	n/a	LTP247	ltpFR	15	8	n/a	n/a	n/a	n/a	n/a	n/a	n/a	0	0	0	n/a	n/a	n/a	n/a	n/a
2043.9	n/a	REC_WORD	1021950	wordpools/wasnorm_wordpool_less_exclusions.txt	LTP247	ltpFR	15	8	1	ENEMY	534	n/a	n/a	1	n/a	0	0	0	n/a	n/a	n/a	n/a	n/a
2044.582	n/a	REC_WORD	1022291	wordpools/wasnorm_wordpool_less_exclusions.txt	LTP247	ltpFR	15	8	1	BUTLER	204	n/a	n/a	1	n/a	0	0	0	n/a	n/a	n/a	n/a	n/a
2045.472	n/a	REC_WORD	1022736	wordpools/wasnorm_wordpool_less_exclusions.txt	LTP247	ltpFR	15	8	1	MAID	856	n/a	n/a	1	n/a	0	0	0	n/a	n/a	n/a	n/a	n/a
2047.63	n/a	REC_WORD	1023815	wordpools/wasnorm_wordpool_less_exclusions.txt	LTP247	ltpFR	15	8	1	BANKER	84	n/a	n/a	1	n/a	0	0	0	n/a	n/a	n/a	n/a	n/a
2048.928	n/a	REC_WORD	1024464	wordpools/wasnorm_wordpool_less_exclusions.txt	LTP247	ltpFR	15	8	1	WAITER	1580	n/a	n/a	1	n/a	0	0	0	n/a	n/a	n/a	n/a	n/a
2050.042	n/a	REC_WORD	1025021	wordpools/wasnorm_wordpool_less_exclusions.txt	LTP247	ltpFR	15	8	1	WHALE	1601	n/a	n/a	1	n/a	0	0	0	n/a	n/a	n/a	n/a	n/a
2055.124	n/a	REC_WORD	1027562	wordpools/wasnorm_wordpool_less_exclusions.txt	LTP247	ltpFR	15	8	1	LOBSTER	837	n/a	n/a	1	n/a	0	0	0	n/a	n/a	n/a	n/a	n/a
2070.598	n/a	REC_WORD	1035299	wordpools/wasnorm_wordpool_less_exclusions.txt	LTP247	ltpFR	15	8	1	SNACK	1331	n/a	n/a	0	n/a	0	0	0	n/a	n/a	n/a	n/a	n/a
2071.724	n/a	REC_WORD	1035862	wordpools/wasnorm_wordpool_less_exclusions.txt	LTP247	ltpFR	15	8	1	CHIP	303	n/a	n/a	0	n/a	0	0	0	n/a	n/a	n/a	n/a	n/a
2072.924	n/a	REC_WORD	1036462	wordpools/wasnorm_wordpool_less_exclusions.txt	LTP247	ltpFR	15	8	1	CAKE	219	n/a	n/a	0	n/a	0	0	0	n/a	n/a	n/a	n/a	n/a
2076.512	n/a	REC_WORD	1038256	wordpools/wasnorm_wordpool_less_exclusions.txt	LTP247	ltpFR	15	8	1	CASH	252	n/a	n/a	0	n/a	0	0	0	n/a	n/a	n/a	n/a	n/a
2080.398	n/a	REC_WORD	1040199	wordpools/wasnorm_wordpool_less_exclusions.txt	LTP247	ltpFR	15	8	1	VELVET	1555	n/a	n/a	0	n/a	0	0	0	n/a	n/a	n/a	n/a	n/a
2081.594	n/a	REC_WORD	1040797	wordpools/wasnorm_wordpool_less_exclusions.txt	LTP247	ltpFR	15	8	1	CROSS	413	n/a	n/a	0	n/a	0	0	0	n/a	n/a	n/a	n/a	n/a
2122.592	n/a	START	1061296	n/a	LTP247	ltpFR	15	n/a	n/a	n/a	n/a	n/a	n/a	n/a	n/a	n/a	n/a	n/a	n/a	n/a	n/a	n/a	n/a
2124.106	n/a	PROB	1062053	n/a	LTP247	ltpFR	15	n/a	n/a	n/a	n/a	n/a	n/a	n/a	10	1	6	3	n/a	n/a	n/a	n/a	n/a
2126.052	n/a	PROB	1063026	n/a	LTP247	ltpFR	15	n/a	n/a	n/a	n/a	n/a	n/a	n/a	16	6	5	5	n/a	n/a	n/a	n/a	n/a
2127.5	n/a	PROB	1063750	n/a	LTP247	ltpFR	15	n/a	n/a	n/a	n/a	n/a	n/a	n/a	21	9	8	4	n/a	n/a	n/a	n/a	n/a
2130.59	n/a	STOP	1065295	n/a	LTP247	ltpFR	15	n/a	n/a	n/a	n/a	n/a	n/a	n/a	n/a	n/a	n/a	n/a	n/a	n/a	n/a	n/a	n/a
2131.578	n/a	WORD	1065789	wordpools/wasnorm_wordpool_less_exclusions.txt	LTP247	ltpFR	15	9	1	CHIMNEY	301	n/a	n/a	0	n/a	0	0	0	0.422607421875	0.5869140625	0	lower	amplitud.ttf
2134.59	n/a	START	1067295	n/a	LTP247	ltpFR	15	n/a	n/a	n/a	n/a	n/a	n/a	n/a	n/a	n/a	n/a	n/a	n/a	n/a	n/a	n/a	n/a
2135.688	n/a	PROB	1067844	n/a	LTP247	ltpFR	15	n/a	n/a	n/a	n/a	n/a	n/a	n/a	25	8	8	9	n/a	n/a	n/a	n/a	n/a
2137.104	n/a	PROB	1068552	n/a	LTP247	ltpFR	15	n/a	n/a	n/a	n/a	n/a	n/a	n/a	19	6	8	5	n/a	n/a	n/a	n/a	n/a
2139.25	n/a	PROB	1069625	n/a	LTP247	ltpFR	15	n/a	n/a	n/a	n/a	n/a	n/a	n/a	10	4	2	4	n/a	n/a	n/a	n/a	n/a
2140.532	n/a	PROB	1070266	n/a	LTP247	ltpFR	15	n/a	n/a	n/a	n/a	n/a	n/a	n/a	15	5	7	3	n/a	n/a	n/a	n/a	n/a
2141.894	n/a	STOP	1070947	n/a	LTP247	ltpFR	15	n/a	n/a	n/a	n/a	n/a	n/a	n/a	n/a	n/a	n/a	n/a	n/a	n/a	n/a	n/a	n/a
2143.56	n/a	WORD	1071780	wordpools/wasnorm_wordpool_less_exclusions.txt	LTP247	ltpFR	15	9	1	KNEE	784	n/a	n/a	0	n/a	0	0	0	0.422607421875	0.5869140625	0	lower	amplitud.ttf
2146.572	n/a	START	1073286	n/a	LTP247	ltpFR	15	n/a	n/a	n/a	n/a	n/a	n/a	n/a	n/a	n/a	n/a	n/a	n/a	n/a	n/a	n/a	n/a
2147.67	n/a	PROB	1073835	n/a	LTP247	ltpFR	15	n/a	n/a	n/a	n/a	n/a	n/a	n/a	15	4	4	7	n/a	n/a	n/a	n/a	n/a
2149.036	n/a	PROB	1074518	n/a	LTP247	ltpFR	15	n/a	n/a	n/a	n/a	n/a	n/a	n/a	16	2	8	6	n/a	n/a	n/a	n/a	n/a
2150.366	n/a	PROB	1075183	n/a	LTP247	ltpFR	15	n/a	n/a	n/a	n/a	n/a	n/a	n/a	18	9	8	1	n/a	n/a	n/a	n/a	n/a
2151.648	n/a	PROB	1075824	n/a	LTP247	ltpFR	15	n/a	n/a	n/a	n/a	n/a	n/a	n/a	22	8	9	5	n/a	n/a	n/a	n/a	n/a
2153.302	n/a	STOP	1076651	n/a	LTP247	ltpFR	15	n/a	n/a	n/a	n/a	n/a	n/a	n/a	n/a	n/a	n/a	n/a	n/a	n/a	n/a	n/a	n/a
2155.492	n/a	WORD	1077746	wordpools/wasnorm_wordpool_less_exclusions.txt	LTP247	ltpFR	15	9	0	TECHNICIAN	1443	n/a	n/a	1	n/a	0	0	0	0.57763671875	0.412841796875	1	upper	zerothre.ttf
2158.504	n/a	START	1079252	n/a	LTP247	ltpFR	15	n/a	n/a	n/a	n/a	n/a	n/a	n/a	n/a	n/a	n/a	n/a	n/a	n/a	n/a	n/a	n/a
2159.454	n/a	PROB	1079727	n/a	LTP247	ltpFR	15	n/a	n/a	n/a	n/a	n/a	n/a	n/a	16	7	8	1	n/a	n/a	n/a	n/a	n/a
2160.884	n/a	PROB	1080442	n/a	LTP247	ltpFR	15	n/a	n/a	n/a	n/a	n/a	n/a	n/a	17	7	4	6	n/a	n/a	n/a	n/a	n/a
2162.398	n/a	PROB	1081199	n/a	LTP247	ltpFR	15	n/a	n/a	n/a	n/a	n/a	n/a	n/a	17	2	9	6	n/a	n/a	n/a	n/a	n/a
2163.764	n/a	PROB	1081882	n/a	LTP247	ltpFR	15	n/a	n/a	n/a	n/a	n/a	n/a	n/a	15	2	9	4	n/a	n/a	n/a	n/a	n/a
2165.19	n/a	STOP	1082595	n/a	LTP247	ltpFR	15	n/a	n/a	n/a	n/a	n/a	n/a	n/a	n/a	n/a	n/a	n/a	n/a	n/a	n/a	n/a	n/a
2167.64	n/a	WORD	1083820	wordpools/wasnorm_wordpool_less_exclusions.txt	LTP247	ltpFR	15	9	0	BATTERY	101	n/a	n/a	0	n/a	0	0	0	0.57763671875	0.412841796875	1	upper	zerothre.ttf
2170.654	n/a	START	1085327	n/a	LTP247	ltpFR	15	n/a	n/a	n/a	n/a	n/a	n/a	n/a	n/a	n/a	n/a	n/a	n/a	n/a	n/a	n/a	n/a
2171.602	n/a	PROB	1085801	n/a	LTP247	ltpFR	15	n/a	n/a	n/a	n/a	n/a	n/a	n/a	13	2	6	5	n/a	n/a	n/a	n/a	n/a
2173.766	n/a	PROB	1086883	n/a	LTP247	ltpFR	15	n/a	n/a	n/a	n/a	n/a	n/a	n/a	15	1	5	9	n/a	n/a	n/a	n/a	n/a
2175.746	n/a	PROB	1087873	n/a	LTP247	ltpFR	15	n/a	n/a	n/a	n/a	n/a	n/a	n/a	16	7	2	7	n/a	n/a	n/a	n/a	n/a
2177.374	n/a	STOP	1088687	n/a	LTP247	ltpFR	15	n/a	n/a	n/a	n/a	n/a	n/a	n/a	n/a	n/a	n/a	n/a	n/a	n/a	n/a	n/a	n/a
2179.84	n/a	WORD	1089920	wordpools/wasnorm_wordpool_less_exclusions.txt	LTP247	ltpFR	15	9	1	ATHLETE	52	n/a	n/a	1	n/a	0	0	0	0.422607421875	0.5869140625	0	lower	amplitud.ttf
2182.852	n/a	START	1091426	n/a	LTP247	ltpFR	15	n/a	n/a	n/a	n/a	n/a	n/a	n/a	n/a	n/a	n/a	n/a	n/a	n/a	n/a	n/a	n/a
2183.702	n/a	PROB	1091851	n/a	LTP247	ltpFR	15	n/a	n/a	n/a	n/a	n/a	n/a	n/a	12	1	2	9	n/a	n/a	n/a	n/a	n/a
2186.946	n/a	PROB	1093473	n/a	LTP247	ltpFR	15	n/a	n/a	n/a	n/a	n/a	n/a	n/a	20	8	4	8	n/a	n/a	n/a	n/a	n/a
2188.36	n/a	PROB	1094180	n/a	LTP247	ltpFR	15	n/a	n/a	n/a	n/a	n/a	n/a	n/a	17	1	7	9	n/a	n/a	n/a	n/a	n/a
2189.632	n/a	STOP	1094816	n/a	LTP247	ltpFR	15	n/a	n/a	n/a	n/a	n/a	n/a	n/a	n/a	n/a	n/a	n/a	n/a	n/a	n/a	n/a	n/a
2191.69	n/a	WORD	1095845	wordpools/wasnorm_wordpool_less_exclusions.txt	LTP247	ltpFR	15	9	1	SNEAKER	1334	n/a	n/a	0	n/a	0	0	0	0.422607421875	0.5869140625	0	lower	amplitud.ttf
2194.702	n/a	START	1097351	n/a	LTP247	ltpFR	15	n/a	n/a	n/a	n/a	n/a	n/a	n/a	n/a	n/a	n/a	n/a	n/a	n/a	n/a	n/a	n/a
2195.882	n/a	PROB	1097941	n/a	LTP247	ltpFR	15	n/a	n/a	n/a	n/a	n/a	n/a	n/a	22	7	6	9	n/a	n/a	n/a	n/a	n/a
2197.548	n/a	PROB	1098774	n/a	LTP247	ltpFR	15	n/a	n/a	n/a	n/a	n/a	n/a	n/a	12	6	5	1	n/a	n/a	n/a	n/a	n/a
2199.046	n/a	PROB	1099523	n/a	LTP247	ltpFR	15	n/a	n/a	n/a	n/a	n/a	n/a	n/a	12	9	1	2	n/a	n/a	n/a	n/a	n/a
2202.702	n/a	STOP	1101351	n/a	LTP247	ltpFR	15	n/a	n/a	n/a	n/a	n/a	n/a	n/a	n/a	n/a	n/a	n/a	n/a	n/a	n/a	n/a	n/a
2203.622	n/a	WORD	1101811	wordpools/wasnorm_wordpool_less_exclusions.txt	LTP247	ltpFR	15	9	0	CIGARETTE	309	n/a	n/a	2	n/a	0	0	0	0.57763671875	0.412841796875	1	upper	zerothre.ttf
2204.87	n/a	KEY_MSG	1102435	n/a	LTP247	ltpFR	15	9	n/a	n/a	n/a	n/a	n/a	n/a	n/a	0	0	0	n/a	n/a	n/a	n/a	n/a
2206.634	n/a	START	1103317	n/a	LTP247	ltpFR	15	n/a	n/a	n/a	n/a	n/a	n/a	n/a	n/a	n/a	n/a	n/a	n/a	n/a	n/a	n/a	n/a
2207.548	n/a	PROB	1103774	n/a	LTP247	ltpFR	15	n/a	n/a	n/a	n/a	n/a	n/a	n/a	16	6	6	4	n/a	n/a	n/a	n/a	n/a
2209.462	n/a	PROB	1104731	n/a	LTP247	ltpFR	15	n/a	n/a	n/a	n/a	n/a	n/a	n/a	10	4	2	4	n/a	n/a	n/a	n/a	n/a
2210.844	n/a	PROB	1105422	n/a	LTP247	ltpFR	15	n/a	n/a	n/a	n/a	n/a	n/a	n/a	24	8	8	8	n/a	n/a	n/a	n/a	n/a
2212.592	n/a	PROB	1106296	n/a	LTP247	ltpFR	15	n/a	n/a	n/a	n/a	n/a	n/a	n/a	12	5	1	6	n/a	n/a	n/a	n/a	n/a
2213.76	n/a	STOP	1106880	n/a	LTP247	ltpFR	15	n/a	n/a	n/a	n/a	n/a	n/a	n/a	n/a	n/a	n/a	n/a	n/a	n/a	n/a	n/a	n/a
2215.77	n/a	WORD	1107885	wordpools/wasnorm_wordpool_less_exclusions.txt	LTP247	ltpFR	15	9	0	WEED	1599	n/a	n/a	0	n/a	0	0	0	0.57763671875	0.412841796875	1	upper	zerothre.ttf
2218.782	n/a	START	1109391	n/a	LTP247	ltpFR	15	n/a	n/a	n/a	n/a	n/a	n/a	n/a	n/a	n/a	n/a	n/a	n/a	n/a	n/a	n/a	n/a
2219.88	n/a	PROB	1109940	n/a	LTP247	ltpFR	15	n/a	n/a	n/a	n/a	n/a	n/a	n/a	8	6	1	1	n/a	n/a	n/a	n/a	n/a
2221.594	n/a	PROB	1110797	n/a	LTP247	ltpFR	15	n/a	n/a	n/a	n/a	n/a	n/a	n/a	20	9	8	3	n/a	n/a	n/a	n/a	n/a
2223.308	n/a	PROB	1111654	n/a	LTP247	ltpFR	15	n/a	n/a	n/a	n/a	n/a	n/a	n/a	20	5	9	6	n/a	n/a	n/a	n/a	n/a
2226.256	n/a	STOP	1113128	n/a	LTP247	ltpFR	15	n/a	n/a	n/a	n/a	n/a	n/a	n/a	n/a	n/a	n/a	n/a	n/a	n/a	n/a	n/a	n/a
2227.718	n/a	WORD	1113859	wordpools/wasnorm_wordpool_less_exclusions.txt	LTP247	ltpFR	15	9	0	BOWL	158	n/a	n/a	0	n/a	0	0	0	0.57763671875	0.412841796875	1	upper	zerothre.ttf
2230.732	n/a	START	1115366	n/a	LTP247	ltpFR	15	n/a	n/a	n/a	n/a	n/a	n/a	n/a	n/a	n/a	n/a	n/a	n/a	n/a	n/a	n/a	n/a
2231.696	n/a	PROB	1115848	n/a	LTP247	ltpFR	15	n/a	n/a	n/a	n/a	n/a	n/a	n/a	17	8	8	1	n/a	n/a	n/a	n/a	n/a
2233.41	n/a	PROB	1116705	n/a	LTP247	ltpFR	15	n/a	n/a	n/a	n/a	n/a	n/a	n/a	6	2	3	1	n/a	n/a	n/a	n/a	n/a
2235.092	n/a	PROB	1117546	n/a	LTP247	ltpFR	15	n/a	n/a	n/a	n/a	n/a	n/a	n/a	21	9	6	6	n/a	n/a	n/a	n/a	n/a
2236.672	n/a	PROB	1118336	n/a	LTP247	ltpFR	15	n/a	n/a	n/a	n/a	n/a	n/a	n/a	10	5	1	4	n/a	n/a	n/a	n/a	n/a
2238.216	n/a	STOP	1119108	n/a	LTP247	ltpFR	15	n/a	n/a	n/a	n/a	n/a	n/a	n/a	n/a	n/a	n/a	n/a	n/a	n/a	n/a	n/a	n/a
2239.634	n/a	WORD	1119817	wordpools/wasnorm_wordpool_less_exclusions.txt	LTP247	ltpFR	15	9	0	CRYSTAL	418	n/a	n/a	0	n/a	0	0	0	0.57763671875	0.412841796875	1	upper	zerothre.ttf
2242.646	n/a	START	1121323	n/a	LTP247	ltpFR	15	n/a	n/a	n/a	n/a	n/a	n/a	n/a	n/a	n/a	n/a	n/a	n/a	n/a	n/a	n/a	n/a
2243.628	n/a	PROB	1121814	n/a	LTP247	ltpFR	15	n/a	n/a	n/a	n/a	n/a	n/a	n/a	22	6	7	9	n/a	n/a	n/a	n/a	n/a
2245.292	n/a	PROB	1122646	n/a	LTP247	ltpFR	15	n/a	n/a	n/a	n/a	n/a	n/a	n/a	21	7	5	9	n/a	n/a	n/a	n/a	n/a
2246.906	n/a	PROB	1123453	n/a	LTP247	ltpFR	15	n/a	n/a	n/a	n/a	n/a	n/a	n/a	18	8	3	7	n/a	n/a	n/a	n/a	n/a
2248.29	n/a	PROB	1124145	n/a	LTP247	ltpFR	15	n/a	n/a	n/a	n/a	n/a	n/a	n/a	14	9	4	1	n/a	n/a	n/a	n/a	n/a
2250.12	n/a	STOP	1125060	n/a	LTP247	ltpFR	15	n/a	n/a	n/a	n/a	n/a	n/a	n/a	n/a	n/a	n/a	n/a	n/a	n/a	n/a	n/a	n/a
2251.768	n/a	WORD	1125884	wordpools/wasnorm_wordpool_less_exclusions.txt	LTP247	ltpFR	15	9	0	MOWER	928	n/a	n/a	1	n/a	0	0	0	0.57763671875	0.412841796875	1	upper	zerothre.ttf
2254.78	n/a	START	1127390	n/a	LTP247	ltpFR	15	n/a	n/a	n/a	n/a	n/a	n/a	n/a	n/a	n/a	n/a	n/a	n/a	n/a	n/a	n/a	n/a
2255.794	n/a	PROB	1127897	n/a	LTP247	ltpFR	15	n/a	n/a	n/a	n/a	n/a	n/a	n/a	7	1	3	3	n/a	n/a	n/a	n/a	n/a
2257.558	n/a	PROB	1128779	n/a	LTP247	ltpFR	15	n/a	n/a	n/a	n/a	n/a	n/a	n/a	20	8	9	3	n/a	n/a	n/a	n/a	n/a
2259.39	n/a	PROB	1129695	n/a	LTP247	ltpFR	15	n/a	n/a	n/a	n/a	n/a	n/a	n/a	22	5	9	8	n/a	n/a	n/a	n/a	n/a
2262.78	n/a	STOP	1131390	n/a	LTP247	ltpFR	15	n/a	n/a	n/a	n/a	n/a	n/a	n/a	n/a	n/a	n/a	n/a	n/a	n/a	n/a	n/a	n/a
2263.8	n/a	WORD	1131900	wordpools/wasnorm_wordpool_less_exclusions.txt	LTP247	ltpFR	15	9	0	CLIMBER	323	n/a	n/a	1	n/a	0	0	0	0.57763671875	0.412841796875	1	upper	zerothre.ttf
2266.812	n/a	START	1133406	n/a	LTP247	ltpFR	15	n/a	n/a	n/a	n/a	n/a	n/a	n/a	n/a	n/a	n/a	n/a	n/a	n/a	n/a	n/a	n/a
2267.76	n/a	PROB	1133880	n/a	LTP247	ltpFR	15	n/a	n/a	n/a	n/a	n/a	n/a	n/a	23	8	9	6	n/a	n/a	n/a	n/a	n/a
2270.838	n/a	PROB	1135419	n/a	LTP247	ltpFR	15	n/a	n/a	n/a	n/a	n/a	n/a	n/a	11	1	1	9	n/a	n/a	n/a	n/a	n/a
2272.07	n/a	PROB	1136035	n/a	LTP247	ltpFR	15	n/a	n/a	n/a	n/a	n/a	n/a	n/a	18	8	6	4	n/a	n/a	n/a	n/a	n/a
2273.36	n/a	STOP	1136680	n/a	LTP247	ltpFR	15	n/a	n/a	n/a	n/a	n/a	n/a	n/a	n/a	n/a	n/a	n/a	n/a	n/a	n/a	n/a	n/a
2275.864	n/a	WORD	1137932	wordpools/wasnorm_wordpool_less_exclusions.txt	LTP247	ltpFR	15	9	1	MOTHER	921	n/a	n/a	1	n/a	0	0	0	0.422607421875	0.5869140625	0	lower	amplitud.ttf
2278.878	n/a	START	1139439	n/a	LTP247	ltpFR	15	n/a	n/a	n/a	n/a	n/a	n/a	n/a	n/a	n/a	n/a	n/a	n/a	n/a	n/a	n/a	n/a
2279.692	n/a	PROB	1139846	n/a	LTP247	ltpFR	15	n/a	n/a	n/a	n/a	n/a	n/a	n/a	14	4	3	7	n/a	n/a	n/a	n/a	n/a
2281.34	n/a	PROB	1140670	n/a	LTP247	ltpFR	15	n/a	n/a	n/a	n/a	n/a	n/a	n/a	16	8	4	4	n/a	n/a	n/a	n/a	n/a
2283.07	n/a	PROB	1141535	n/a	LTP247	ltpFR	15	n/a	n/a	n/a	n/a	n/a	n/a	n/a	21	7	9	5	n/a	n/a	n/a	n/a	n/a
2284.934	n/a	PROB	1142467	n/a	LTP247	ltpFR	15	n/a	n/a	n/a	n/a	n/a	n/a	n/a	15	4	5	6	n/a	n/a	n/a	n/a	n/a
2286.512	n/a	STOP	1143256	n/a	LTP247	ltpFR	15	n/a	n/a	n/a	n/a	n/a	n/a	n/a	n/a	n/a	n/a	n/a	n/a	n/a	n/a	n/a	n/a
2287.78	n/a	WORD	1143890	wordpools/wasnorm_wordpool_less_exclusions.txt	LTP247	ltpFR	15	9	1	CHIEF	298	n/a	n/a	1	n/a	0	0	0	0.422607421875	0.5869140625	0	lower	amplitud.ttf
2290.792	n/a	START	1145396	n/a	LTP247	ltpFR	15	n/a	n/a	n/a	n/a	n/a	n/a	n/a	n/a	n/a	n/a	n/a	n/a	n/a	n/a	n/a	n/a
2291.808	n/a	PROB	1145904	n/a	LTP247	ltpFR	15	n/a	n/a	n/a	n/a	n/a	n/a	n/a	11	2	1	8	n/a	n/a	n/a	n/a	n/a
2293.088	n/a	PROB	1146544	n/a	LTP247	ltpFR	15	n/a	n/a	n/a	n/a	n/a	n/a	n/a	16	5	6	5	n/a	n/a	n/a	n/a	n/a
2294.47	n/a	PROB	1147235	n/a	LTP247	ltpFR	15	n/a	n/a	n/a	n/a	n/a	n/a	n/a	16	7	3	6	n/a	n/a	n/a	n/a	n/a
2295.768	n/a	PROB	1147884	n/a	LTP247	ltpFR	15	n/a	n/a	n/a	n/a	n/a	n/a	n/a	11	4	4	3	n/a	n/a	n/a	n/a	n/a
2297.034	n/a	PROB	1148517	n/a	LTP247	ltpFR	15	n/a	n/a	n/a	n/a	n/a	n/a	n/a	15	5	8	2	n/a	n/a	n/a	n/a	n/a
2298.424	n/a	STOP	1149212	n/a	LTP247	ltpFR	15	n/a	n/a	n/a	n/a	n/a	n/a	n/a	n/a	n/a	n/a	n/a	n/a	n/a	n/a	n/a	n/a
2299.712	n/a	WORD	1149856	wordpools/wasnorm_wordpool_less_exclusions.txt	LTP247	ltpFR	15	9	1	LUNCH	849	n/a	n/a	0	n/a	0	0	0	0.422607421875	0.5869140625	0	lower	amplitud.ttf
2302.724	n/a	START	1151362	n/a	LTP247	ltpFR	15	n/a	n/a	n/a	n/a	n/a	n/a	n/a	n/a	n/a	n/a	n/a	n/a	n/a	n/a	n/a	n/a
2303.756	n/a	PROB	1151878	n/a	LTP247	ltpFR	15	n/a	n/a	n/a	n/a	n/a	n/a	n/a	17	2	8	7	n/a	n/a	n/a	n/a	n/a
2305.72	n/a	PROB	1152860	n/a	LTP247	ltpFR	15	n/a	n/a	n/a	n/a	n/a	n/a	n/a	16	3	7	6	n/a	n/a	n/a	n/a	n/a
2307.7	n/a	PROB	1153850	n/a	LTP247	ltpFR	15	n/a	n/a	n/a	n/a	n/a	n/a	n/a	19	8	6	5	n/a	n/a	n/a	n/a	n/a
2310.724	n/a	STOP	1155362	n/a	LTP247	ltpFR	15	n/a	n/a	n/a	n/a	n/a	n/a	n/a	n/a	n/a	n/a	n/a	n/a	n/a	n/a	n/a	n/a
2311.828	n/a	WORD	1155914	wordpools/wasnorm_wordpool_less_exclusions.txt	LTP247	ltpFR	15	9	1	TRAY	1498	n/a	n/a	0	n/a	0	0	0	0.422607421875	0.5869140625	0	lower	amplitud.ttf
2314.84	n/a	START	1157420	n/a	LTP247	ltpFR	15	n/a	n/a	n/a	n/a	n/a	n/a	n/a	n/a	n/a	n/a	n/a	n/a	n/a	n/a	n/a	n/a
2315.856	n/a	PROB	1157928	n/a	LTP247	ltpFR	15	n/a	n/a	n/a	n/a	n/a	n/a	n/a	24	9	7	8	n/a	n/a	n/a	n/a	n/a
2318.036	n/a	PROB	1159018	n/a	LTP247	ltpFR	15	n/a	n/a	n/a	n/a	n/a	n/a	n/a	14	1	9	4	n/a	n/a	n/a	n/a	n/a
2322.84	n/a	STOP	1161420	n/a	LTP247	ltpFR	15	n/a	n/a	n/a	n/a	n/a	n/a	n/a	n/a	n/a	n/a	n/a	n/a	n/a	n/a	n/a	n/a
2324.744	n/a	REC_START	1162372	n/a	LTP247	ltpFR	15	9	n/a	n/a	n/a	n/a	n/a	n/a	n/a	0	0	0	n/a	n/a	n/a	n/a	n/a
2328.202	n/a	REC_WORD	1164101	wordpools/wasnorm_wordpool_less_exclusions.txt	LTP247	ltpFR	15	9	1	TRAY	1498	n/a	n/a	0	n/a	0	0	0	n/a	n/a	n/a	n/a	n/a
2329.12	n/a	REC_WORD	1164560	wordpools/wasnorm_wordpool_less_exclusions.txt	LTP247	ltpFR	15	9	0	CIGARETTE	309	n/a	n/a	2	n/a	0	0	0	n/a	n/a	n/a	n/a	n/a
2330.39	n/a	REC_WORD	1165195	wordpools/wasnorm_wordpool_less_exclusions.txt	LTP247	ltpFR	15	9	0	WEED	1599	n/a	n/a	0	n/a	0	0	0	n/a	n/a	n/a	n/a	n/a
2331.292	n/a	REC_WORD	1165646	wordpools/wasnorm_wordpool_less_exclusions.txt	LTP247	ltpFR	15	9	1	MOTHER	921	n/a	n/a	1	n/a	0	0	0	n/a	n/a	n/a	n/a	n/a
2332.432	n/a	REC_WORD	1166216	wordpools/wasnorm_wordpool_less_exclusions.txt	LTP247	ltpFR	15	9	1	CHIEF	298	n/a	n/a	1	n/a	0	0	0	n/a	n/a	n/a	n/a	n/a
2412.164	n/a	START	1206082	n/a	LTP247	ltpFR	15	n/a	n/a	n/a	n/a	n/a	n/a	n/a	n/a	n/a	n/a	n/a	n/a	n/a	n/a	n/a	n/a
2413.678	n/a	PROB	1206839	n/a	LTP247	ltpFR	15	n/a	n/a	n/a	n/a	n/a	n/a	n/a	13	6	4	3	n/a	n/a	n/a	n/a	n/a
2415.208	n/a	PROB	1207604	n/a	LTP247	ltpFR	15	n/a	n/a	n/a	n/a	n/a	n/a	n/a	14	6	1	7	n/a	n/a	n/a	n/a	n/a
2417.088	n/a	PROB	1208544	n/a	LTP247	ltpFR	15	n/a	n/a	n/a	n/a	n/a	n/a	n/a	16	7	2	7	n/a	n/a	n/a	n/a	n/a
2418.404	n/a	PROB	1209202	n/a	LTP247	ltpFR	15	n/a	n/a	n/a	n/a	n/a	n/a	n/a	16	6	4	6	n/a	n/a	n/a	n/a	n/a
2419.618	n/a	PROB	1209809	n/a	LTP247	ltpFR	15	n/a	n/a	n/a	n/a	n/a	n/a	n/a	14	6	1	7	n/a	n/a	n/a	n/a	n/a
2421.35	n/a	PROB	1210675	n/a	LTP247	ltpFR	15	n/a	n/a	n/a	n/a	n/a	n/a	n/a	19	7	7	5	n/a	n/a	n/a	n/a	n/a
2422.748	n/a	PROB	1211374	n/a	LTP247	ltpFR	15	n/a	n/a	n/a	n/a	n/a	n/a	n/a	13	3	9	1	n/a	n/a	n/a	n/a	n/a
2424.046	n/a	PROB	1212023	n/a	LTP247	ltpFR	15	n/a	n/a	n/a	n/a	n/a	n/a	n/a	15	6	4	5	n/a	n/a	n/a	n/a	n/a
2425.344	n/a	PROB	1212672	n/a	LTP247	ltpFR	15	n/a	n/a	n/a	n/a	n/a	n/a	n/a	18	7	8	3	n/a	n/a	n/a	n/a	n/a
2426.674	n/a	STOP	1213337	n/a	LTP247	ltpFR	15	n/a	n/a	n/a	n/a	n/a	n/a	n/a	n/a	n/a	n/a	n/a	n/a	n/a	n/a	n/a	n/a
2429.37	n/a	WORD	1214685	wordpools/wasnorm_wordpool_less_exclusions.txt	LTP247	ltpFR	15	10	0	DEPUTY	450	n/a	n/a	1	n/a	0	0	0	0.57763671875	0.412841796875	1	upper	zerothre.ttf
2432.384	n/a	START	1216192	n/a	LTP247	ltpFR	15	n/a	n/a	n/a	n/a	n/a	n/a	n/a	n/a	n/a	n/a	n/a	n/a	n/a	n/a	n/a	n/a
2433.214	n/a	PROB	1216607	n/a	LTP247	ltpFR	15	n/a	n/a	n/a	n/a	n/a	n/a	n/a	12	1	6	5	n/a	n/a	n/a	n/a	n/a
2434.83	n/a	PROB	1217415	n/a	LTP247	ltpFR	15	n/a	n/a	n/a	n/a	n/a	n/a	n/a	14	5	1	8	n/a	n/a	n/a	n/a	n/a
2436.494	n/a	PROB	1218247	n/a	LTP247	ltpFR	15	n/a	n/a	n/a	n/a	n/a	n/a	n/a	12	8	1	3	n/a	n/a	n/a	n/a	n/a
2438.24	n/a	PROB	1219120	n/a	LTP247	ltpFR	15	n/a	n/a	n/a	n/a	n/a	n/a	n/a	18	8	4	6	n/a	n/a	n/a	n/a	n/a
2439.772	n/a	PROB	1219886	n/a	LTP247	ltpFR	15	n/a	n/a	n/a	n/a	n/a	n/a	n/a	10	6	3	1	n/a	n/a	n/a	n/a	n/a
2442.318	n/a	PROB	1221159	n/a	LTP247	ltpFR	15	n/a	n/a	n/a	n/a	n/a	n/a	n/a	14	4	8	2	n/a	n/a	n/a	n/a	n/a
2443.766	n/a	PROB	1221883	n/a	LTP247	ltpFR	15	n/a	n/a	n/a	n/a	n/a	n/a	n/a	18	7	2	9	n/a	n/a	n/a	n/a	n/a
2445.564	n/a	PROB	1222782	n/a	LTP247	ltpFR	15	n/a	n/a	n/a	n/a	n/a	n/a	n/a	20	7	9	4	n/a	n/a	n/a	n/a	n/a
2447.474	n/a	STOP	1223737	n/a	LTP247	ltpFR	15	n/a	n/a	n/a	n/a	n/a	n/a	n/a	n/a	n/a	n/a	n/a	n/a	n/a	n/a	n/a	n/a
2449.524	n/a	WORD	1224762	wordpools/wasnorm_wordpool_less_exclusions.txt	LTP247	ltpFR	15	10	0	HAY	693	n/a	n/a	0	n/a	0	0	0	0.57763671875	0.412841796875	1	upper	zerothre.ttf
2452.538	n/a	START	1226269	n/a	LTP247	ltpFR	15	n/a	n/a	n/a	n/a	n/a	n/a	n/a	n/a	n/a	n/a	n/a	n/a	n/a	n/a	n/a	n/a
2453.568	n/a	PROB	1226784	n/a	LTP247	ltpFR	15	n/a	n/a	n/a	n/a	n/a	n/a	n/a	21	7	7	7	n/a	n/a	n/a	n/a	n/a
2454.834	n/a	PROB	1227417	n/a	LTP247	ltpFR	15	n/a	n/a	n/a	n/a	n/a	n/a	n/a	13	8	3	2	n/a	n/a	n/a	n/a	n/a
2456.714	n/a	PROB	1228357	n/a	LTP247	ltpFR	15	n/a	n/a	n/a	n/a	n/a	n/a	n/a	18	6	5	7	n/a	n/a	n/a	n/a	n/a
2458.178	n/a	PROB	1229089	n/a	LTP247	ltpFR	15	n/a	n/a	n/a	n/a	n/a	n/a	n/a	10	7	1	2	n/a	n/a	n/a	n/a	n/a
2460.774	n/a	PROB	1230387	n/a	LTP247	ltpFR	15	n/a	n/a	n/a	n/a	n/a	n/a	n/a	19	5	6	8	n/a	n/a	n/a	n/a	n/a
2462.388	n/a	PROB	1231194	n/a	LTP247	ltpFR	15	n/a	n/a	n/a	n/a	n/a	n/a	n/a	13	8	4	1	n/a	n/a	n/a	n/a	n/a
2463.754	n/a	PROB	1231877	n/a	LTP247	ltpFR	15	n/a	n/a	n/a	n/a	n/a	n/a	n/a	12	4	4	4	n/a	n/a	n/a	n/a	n/a
2465.352	n/a	PROB	1232676	n/a	LTP247	ltpFR	15	n/a	n/a	n/a	n/a	n/a	n/a	n/a	21	7	5	9	n/a	n/a	n/a	n/a	n/a
2467.012	n/a	STOP	1233506	n/a	LTP247	ltpFR	15	n/a	n/a	n/a	n/a	n/a	n/a	n/a	n/a	n/a	n/a	n/a	n/a	n/a	n/a	n/a	n/a
2469.528	n/a	WORD	1234764	wordpools/wasnorm_wordpool_less_exclusions.txt	LTP247	ltpFR	15	10	0	KEYBOARD	774	n/a	n/a	0	n/a	0	0	0	0.57763671875	0.412841796875	1	upper	zerothre.ttf
2472.542	n/a	START	1236271	n/a	LTP247	ltpFR	15	n/a	n/a	n/a	n/a	n/a	n/a	n/a	n/a	n/a	n/a	n/a	n/a	n/a	n/a	n/a	n/a
2473.572	n/a	PROB	1236786	n/a	LTP247	ltpFR	15	n/a	n/a	n/a	n/a	n/a	n/a	n/a	14	7	1	6	n/a	n/a	n/a	n/a	n/a
2475.12	n/a	PROB	1237560	n/a	LTP247	ltpFR	15	n/a	n/a	n/a	n/a	n/a	n/a	n/a	22	8	8	6	n/a	n/a	n/a	n/a	n/a
2477.084	n/a	PROB	1238542	n/a	LTP247	ltpFR	15	n/a	n/a	n/a	n/a	n/a	n/a	n/a	17	7	8	2	n/a	n/a	n/a	n/a	n/a
2478.832	n/a	PROB	1239416	n/a	LTP247	ltpFR	15	n/a	n/a	n/a	n/a	n/a	n/a	n/a	15	1	5	9	n/a	n/a	n/a	n/a	n/a
2480.462	n/a	PROB	1240231	n/a	LTP247	ltpFR	15	n/a	n/a	n/a	n/a	n/a	n/a	n/a	20	9	2	9	n/a	n/a	n/a	n/a	n/a
2482.044	n/a	PROB	1241022	n/a	LTP247	ltpFR	15	n/a	n/a	n/a	n/a	n/a	n/a	n/a	14	8	5	1	n/a	n/a	n/a	n/a	n/a
2483.824	n/a	PROB	1241912	n/a	LTP247	ltpFR	15	n/a	n/a	n/a	n/a	n/a	n/a	n/a	26	6	8	9	n/a	n/a	n/a	n/a	n/a
2485.654	n/a	PROB	1242827	n/a	LTP247	ltpFR	15	n/a	n/a	n/a	n/a	n/a	n/a	n/a	9	1	5	3	n/a	n/a	n/a	n/a	n/a
2488.132	n/a	STOP	1244066	n/a	LTP247	ltpFR	15	n/a	n/a	n/a	n/a	n/a	n/a	n/a	n/a	n/a	n/a	n/a	n/a	n/a	n/a	n/a	n/a
2489.548	n/a	WORD	1244774	wordpools/wasnorm_wordpool_less_exclusions.txt	LTP247	ltpFR	15	10	1	ZUCCHINI	1638	n/a	n/a	0	n/a	0	0	0	0.422607421875	0.5869140625	0	lower	amplitud.ttf
2492.562	n/a	START	1246281	n/a	LTP247	ltpFR	15	n/a	n/a	n/a	n/a	n/a	n/a	n/a	n/a	n/a	n/a	n/a	n/a	n/a	n/a	n/a	n/a
2493.61	n/a	PROB	1246805	n/a	LTP247	ltpFR	15	n/a	n/a	n/a	n/a	n/a	n/a	n/a	22	9	4	9	n/a	n/a	n/a	n/a	n/a
2495.056	n/a	PROB	1247528	n/a	LTP247	ltpFR	15	n/a	n/a	n/a	n/a	n/a	n/a	n/a	14	1	4	9	n/a	n/a	n/a	n/a	n/a
2496.954	n/a	PROB	1248477	n/a	LTP247	ltpFR	15	n/a	n/a	n/a	n/a	n/a	n/a	n/a	20	7	9	4	n/a	n/a	n/a	n/a	n/a
2498.552	n/a	PROB	1249276	n/a	LTP247	ltpFR	15	n/a	n/a	n/a	n/a	n/a	n/a	n/a	18	7	8	3	n/a	n/a	n/a	n/a	n/a
2500.382	n/a	PROB	1250191	n/a	LTP247	ltpFR	15	n/a	n/a	n/a	n/a	n/a	n/a	n/a	18	6	8	4	n/a	n/a	n/a	n/a	n/a
2502.08	n/a	PROB	1251040	n/a	LTP247	ltpFR	15	n/a	n/a	n/a	n/a	n/a	n/a	n/a	10	6	2	2	n/a	n/a	n/a	n/a	n/a
2503.894	n/a	PROB	1251947	n/a	LTP247	ltpFR	15	n/a	n/a	n/a	n/a	n/a	n/a	n/a	17	8	4	5	n/a	n/a	n/a	n/a	n/a
2505.508	n/a	PROB	1252754	n/a	LTP247	ltpFR	15	n/a	n/a	n/a	n/a	n/a	n/a	n/a	11	2	2	7	n/a	n/a	n/a	n/a	n/a
2507.124	n/a	STOP	1253562	n/a	LTP247	ltpFR	15	n/a	n/a	n/a	n/a	n/a	n/a	n/a	n/a	n/a	n/a	n/a	n/a	n/a	n/a	n/a	n/a
2509.568	n/a	WORD	1254784	wordpools/wasnorm_wordpool_less_exclusions.txt	LTP247	ltpFR	15	10	1	WHIP	1604	n/a	n/a	0	n/a	0	0	0	0.422607421875	0.5869140625	0	lower	amplitud.ttf
2512.582	n/a	START	1256291	n/a	LTP247	ltpFR	15	n/a	n/a	n/a	n/a	n/a	n/a	n/a	n/a	n/a	n/a	n/a	n/a	n/a	n/a	n/a	n/a
2513.746	n/a	PROB	1256873	n/a	LTP247	ltpFR	15	n/a	n/a	n/a	n/a	n/a	n/a	n/a	17	1	7	9	n/a	n/a	n/a	n/a	n/a
2515.376	n/a	PROB	1257688	n/a	LTP247	ltpFR	15	n/a	n/a	n/a	n/a	n/a	n/a	n/a	13	2	6	5	n/a	n/a	n/a	n/a	n/a
2517.874	n/a	PROB	1258937	n/a	LTP247	ltpFR	15	n/a	n/a	n/a	n/a	n/a	n/a	n/a	17	4	8	5	n/a	n/a	n/a	n/a	n/a
2519.304	n/a	PROB	1259652	n/a	LTP247	ltpFR	15	n/a	n/a	n/a	n/a	n/a	n/a	n/a	19	8	6	5	n/a	n/a	n/a	n/a	n/a
2520.77	n/a	PROB	1260385	n/a	LTP247	ltpFR	15	n/a	n/a	n/a	n/a	n/a	n/a	n/a	17	4	4	9	n/a	n/a	n/a	n/a	n/a
2522.9	n/a	PROB	1261450	n/a	LTP247	ltpFR	15	n/a	n/a	n/a	n/a	n/a	n/a	n/a	18	3	8	7	n/a	n/a	n/a	n/a	n/a
2524.914	n/a	PROB	1262457	n/a	LTP247	ltpFR	15	n/a	n/a	n/a	n/a	n/a	n/a	n/a	11	2	8	1	n/a	n/a	n/a	n/a	n/a
2526.144	n/a	PROB	1263072	n/a	LTP247	ltpFR	15	n/a	n/a	n/a	n/a	n/a	n/a	n/a	18	9	3	6	n/a	n/a	n/a	n/a	n/a
2527.62	n/a	STOP	1263810	n/a	LTP247	ltpFR	15	n/a	n/a	n/a	n/a	n/a	n/a	n/a	n/a	n/a	n/a	n/a	n/a	n/a	n/a	n/a	n/a
2529.672	n/a	WORD	1264836	wordpools/wasnorm_wordpool_less_exclusions.txt	LTP247	ltpFR	15	10	1	BADGE	68	n/a	n/a	0	n/a	0	0	0	0.422607421875	0.5869140625	0	lower	amplitud.ttf
2532.686	n/a	START	1266343	n/a	LTP247	ltpFR	15	n/a	n/a	n/a	n/a	n/a	n/a	n/a	n/a	n/a	n/a	n/a	n/a	n/a	n/a	n/a	n/a
2533.816	n/a	PROB	1266908	n/a	LTP247	ltpFR	15	n/a	n/a	n/a	n/a	n/a	n/a	n/a	24	9	9	6	n/a	n/a	n/a	n/a	n/a
2535.764	n/a	PROB	1267882	n/a	LTP247	ltpFR	15	n/a	n/a	n/a	n/a	n/a	n/a	n/a	19	9	4	6	n/a	n/a	n/a	n/a	n/a
2537.312	n/a	PROB	1268656	n/a	LTP247	ltpFR	15	n/a	n/a	n/a	n/a	n/a	n/a	n/a	23	7	8	8	n/a	n/a	n/a	n/a	n/a
2539.792	n/a	PROB	1269896	n/a	LTP247	ltpFR	15	n/a	n/a	n/a	n/a	n/a	n/a	n/a	15	5	4	6	n/a	n/a	n/a	n/a	n/a
2541.506	n/a	PROB	1270753	n/a	LTP247	ltpFR	15	n/a	n/a	n/a	n/a	n/a	n/a	n/a	15	2	8	5	n/a	n/a	n/a	n/a	n/a
2542.854	n/a	PROB	1271427	n/a	LTP247	ltpFR	15	n/a	n/a	n/a	n/a	n/a	n/a	n/a	20	4	7	9	n/a	n/a	n/a	n/a	n/a
2545.232	n/a	PROB	1272616	n/a	LTP247	ltpFR	15	n/a	n/a	n/a	n/a	n/a	n/a	n/a	17	7	2	8	n/a	n/a	n/a	n/a	n/a
