mstime	trial_type	stim_file	subject	experiment	session	trial	item_name	item_num	list	answer	test_x	test_y	test_z
0	SESS_START	n/a	LTP269	ltpFR2	8	n/a	n/a	n/a	n/a	n/a	0	0	0
14429	START	n/a	LTP269	ltpFR2	8	n/a	n/a	n/a	-1	n/a	n/a	n/a	n/a
14444	PROB	n/a	LTP269	ltpFR2	8	n/a	n/a	n/a	-1	9	1	7	1
15778	PROB	n/a	LTP269	ltpFR2	8	n/a	n/a	n/a	-1	7	1	3	3
17063	PROB	n/a	LTP269	ltpFR2	8	n/a	n/a	n/a	-1	19	8	8	3
18948	PROB	n/a	LTP269	ltpFR2	8	n/a	n/a	n/a	-1	14	2	6	6
21900	PROB	n/a	LTP269	ltpFR2	8	n/a	n/a	n/a	-1	18	8	8	2
24017	PROB	n/a	LTP269	ltpFR2	8	n/a	n/a	n/a	-1	16	7	4	5
25631	STOP	n/a	LTP269	ltpFR2	8	n/a	n/a	n/a	-1	n/a	n/a	n/a	n/a
66552	WORD	wordpools/wasnorm_wordpool_576.txt	LTP269	ltpFR2	8	1	BISON	131	n/a	n/a	0	0	0
69146	WORD	wordpools/wasnorm_wordpool_576.txt	LTP269	ltpFR2	8	1	MOTOR	922	n/a	n/a	0	0	0
71865	WORD	wordpools/wasnorm_wordpool_576.txt	LTP269	ltpFR2	8	1	EUROPE	541	n/a	n/a	0	0	0
74618	WORD	wordpools/wasnorm_wordpool_576.txt	LTP269	ltpFR2	8	1	MOTEL	919	n/a	n/a	0	0	0
77070	WORD	wordpools/wasnorm_wordpool_576.txt	LTP269	ltpFR2	8	1	BEAST	108	n/a	n/a	0	0	0
79729	WORD	wordpools/wasnorm_wordpool_576.txt	LTP269	ltpFR2	8	1	DINER	467	n/a	n/a	0	0	0
82483	WORD	wordpools/wasnorm_wordpool_576.txt	LTP269	ltpFR2	8	1	KITCHEN	778	n/a	n/a	0	0	0
84900	WORD	wordpools/wasnorm_wordpool_576.txt	LTP269	ltpFR2	8	1	STOVE	1388	n/a	n/a	0	0	0
87646	WORD	wordpools/wasnorm_wordpool_576.txt	LTP269	ltpFR2	8	1	FLOWER	584	n/a	n/a	0	0	0
90440	WORD	wordpools/wasnorm_wordpool_576.txt	LTP269	ltpFR2	8	1	CHILD	299	n/a	n/a	0	0	0
93000	WORD	wordpools/wasnorm_wordpool_576.txt	LTP269	ltpFR2	8	1	COBRA	336	n/a	n/a	0	0	0
95420	WORD	wordpools/wasnorm_wordpool_576.txt	LTP269	ltpFR2	8	1	TRIBE	1505	n/a	n/a	0	0	0
97887	WORD	wordpools/wasnorm_wordpool_576.txt	LTP269	ltpFR2	8	1	BEAVER	109	n/a	n/a	0	0	0
100324	WORD	wordpools/wasnorm_wordpool_576.txt	LTP269	ltpFR2	8	1	NOMAD	955	n/a	n/a	0	0	0
102965	WORD	wordpools/wasnorm_wordpool_576.txt	LTP269	ltpFR2	8	1	CURTAIN	427	n/a	n/a	0	0	0
105568	WORD	wordpools/wasnorm_wordpool_576.txt	LTP269	ltpFR2	8	1	BULLET	194	n/a	n/a	0	0	0
108253	WORD	wordpools/wasnorm_wordpool_576.txt	LTP269	ltpFR2	8	1	ZIPPER	1636	n/a	n/a	0	0	0
110998	WORD	wordpools/wasnorm_wordpool_576.txt	LTP269	ltpFR2	8	1	POCKET	1093	n/a	n/a	0	0	0
113452	WORD	wordpools/wasnorm_wordpool_576.txt	LTP269	ltpFR2	8	1	SPOUSE	1358	n/a	n/a	0	0	0
116137	WORD	wordpools/wasnorm_wordpool_576.txt	LTP269	ltpFR2	8	1	WIDOW	1608	n/a	n/a	0	0	0
118738	WORD	wordpools/wasnorm_wordpool_576.txt	LTP269	ltpFR2	8	1	STICKER	1382	n/a	n/a	0	0	0
121381	WORD	wordpools/wasnorm_wordpool_576.txt	LTP269	ltpFR2	8	1	GRIZZLY	662	n/a	n/a	0	0	0
124115	WORD	wordpools/wasnorm_wordpool_576.txt	LTP269	ltpFR2	8	1	HEADBAND	696	n/a	n/a	0	0	0
126547	WORD	wordpools/wasnorm_wordpool_576.txt	LTP269	ltpFR2	8	1	INFANT	737	n/a	n/a	0	0	0
128152	START	n/a	LTP269	ltpFR2	8	n/a	n/a	n/a	1	n/a	n/a	n/a	n/a
129117	DISTRACTOR	n/a	LTP269	ltpFR2	8	1	n/a	n/a	n/a	n/a	0	0	0
129131	PROB	n/a	LTP269	ltpFR2	8	n/a	n/a	n/a	1	25	9	7	9
133155	PROB	n/a	LTP269	ltpFR2	8	n/a	n/a	n/a	1	14	7	6	1
134574	PROB	n/a	LTP269	ltpFR2	8	n/a	n/a	n/a	1	9	1	7	1
135874	PROB	n/a	LTP269	ltpFR2	8	n/a	n/a	n/a	1	13	5	3	5
137610	PROB	n/a	LTP269	ltpFR2	8	n/a	n/a	n/a	1	18	7	2	9
139711	PROB	n/a	LTP269	ltpFR2	8	n/a	n/a	n/a	1	23	7	7	9
143112	PROB	n/a	LTP269	ltpFR2	8	n/a	n/a	n/a	1	20	8	6	6
145264	PROB	n/a	LTP269	ltpFR2	8	n/a	n/a	n/a	1	20	7	7	6
147234	PROB	n/a	LTP269	ltpFR2	8	n/a	n/a	n/a	1	16	5	2	9
149300	PROB	n/a	LTP269	ltpFR2	8	n/a	n/a	n/a	1	18	8	3	7
150827	STOP	n/a	LTP269	ltpFR2	8	n/a	n/a	n/a	1	n/a	n/a	n/a	n/a
154003	REC_START	n/a	LTP269	ltpFR2	8	1	n/a	n/a	n/a	n/a	0	0	0
159466	REC_WORD	wordpools/wasnorm_wordpool_576.txt	LTP269	ltpFR2	8	1	BISON	131	n/a	n/a	0	0	0
160154	REC_WORD	wordpools/wasnorm_wordpool_576.txt	LTP269	ltpFR2	8	1	MOTOR	922	n/a	n/a	0	0	0
162582	REC_WORD	wordpools/wasnorm_wordpool_576.txt	LTP269	ltpFR2	8	1	TRIBE	1505	n/a	n/a	0	0	0
163203	REC_WORD	wordpools/wasnorm_wordpool_576.txt	LTP269	ltpFR2	8	1	EUROPE	541	n/a	n/a	0	0	0
164152	REC_WORD	wordpools/wasnorm_wordpool_576.txt	LTP269	ltpFR2	8	1	MOTEL	919	n/a	n/a	0	0	0
166572	REC_WORD	wordpools/wasnorm_wordpool_576.txt	LTP269	ltpFR2	8	1	DINER	467	n/a	n/a	0	0	0
167323	REC_WORD	wordpools/wasnorm_wordpool_576.txt	LTP269	ltpFR2	8	1	KITCHEN	778	n/a	n/a	0	0	0
169159	REC_WORD	wordpools/wasnorm_wordpool_576.txt	LTP269	ltpFR2	8	1	STOVE	1388	n/a	n/a	0	0	0
170122	REC_WORD	wordpools/wasnorm_wordpool_576.txt	LTP269	ltpFR2	8	1	FLOWER	584	n/a	n/a	0	0	0
170852	REC_WORD	wordpools/wasnorm_wordpool_576.txt	LTP269	ltpFR2	8	1	CHILD	299	n/a	n/a	0	0	0
172462	REC_WORD	wordpools/wasnorm_wordpool_576.txt	LTP269	ltpFR2	8	1	COBRA	336	n/a	n/a	0	0	0
173439	REC_WORD	wordpools/wasnorm_wordpool_576.txt	LTP269	ltpFR2	8	1	NOMAD	955	n/a	n/a	0	0	0
176974	REC_WORD	wordpools/wasnorm_wordpool_576.txt	LTP269	ltpFR2	8	1	CURTAIN	427	n/a	n/a	0	0	0
177714	REC_WORD	wordpools/wasnorm_wordpool_576.txt	LTP269	ltpFR2	8	1	BULLET	194	n/a	n/a	0	0	0
178937	REC_WORD	wordpools/wasnorm_wordpool_576.txt	LTP269	ltpFR2	8	1	ZIPPER	1636	n/a	n/a	0	0	0
179487	REC_WORD	wordpools/wasnorm_wordpool_576.txt	LTP269	ltpFR2	8	1	POCKET	1093	n/a	n/a	0	0	0
181659	REC_WORD	wordpools/wasnorm_wordpool_576.txt	LTP269	ltpFR2	8	1	WIDOW	1608	n/a	n/a	0	0	0
183352	REC_WORD	wordpools/wasnorm_wordpool_576.txt	LTP269	ltpFR2	8	1	SPOUSE	1358	n/a	n/a	0	0	0
206914	REC_WORD_VV	wordpools/wasnorm_wordpool_576.txt	LTP269	ltpFR2	8	1	<>	-1	n/a	n/a	0	0	0
217822	REC_WORD	wordpools/wasnorm_wordpool_576.txt	LTP269	ltpFR2	8	1	HEADBAND	696	n/a	n/a	0	0	0
225490	REC_WORD	wordpools/wasnorm_wordpool_576.txt	LTP269	ltpFR2	8	1	BEAVER	109	n/a	n/a	0	0	0
244433	DISTRACTOR	n/a	LTP269	ltpFR2	8	2	n/a	n/a	n/a	n/a	0	0	0
244433	START	n/a	LTP269	ltpFR2	8	n/a	n/a	n/a	2	n/a	n/a	n/a	n/a
244445	PROB	n/a	LTP269	ltpFR2	8	n/a	n/a	n/a	2	15	2	7	6
246364	PROB	n/a	LTP269	ltpFR2	8	n/a	n/a	n/a	2	14	6	6	2
247696	PROB	n/a	LTP269	ltpFR2	8	n/a	n/a	n/a	2	20	9	3	8
249300	PROB	n/a	LTP269	ltpFR2	8	n/a	n/a	n/a	2	16	8	6	2
251233	PROB	n/a	LTP269	ltpFR2	8	n/a	n/a	n/a	2	9	4	4	1
252951	PROB	n/a	LTP269	ltpFR2	8	n/a	n/a	n/a	2	21	7	8	6
254854	PROB	n/a	LTP269	ltpFR2	8	n/a	n/a	n/a	2	12	1	9	2
256053	PROB	n/a	LTP269	ltpFR2	8	n/a	n/a	n/a	2	14	5	1	8
257823	PROB	n/a	LTP269	ltpFR2	8	n/a	n/a	n/a	2	15	7	5	3
260225	PROB	n/a	LTP269	ltpFR2	8	n/a	n/a	n/a	2	12	9	1	2
261525	PROB	n/a	LTP269	ltpFR2	8	n/a	n/a	n/a	2	14	8	4	2
262992	PROB	n/a	LTP269	ltpFR2	8	n/a	n/a	n/a	2	19	9	2	8
264496	PROB	n/a	LTP269	ltpFR2	8	n/a	n/a	n/a	2	6	2	1	3
265944	PROB	n/a	LTP269	ltpFR2	8	n/a	n/a	n/a	2	8	1	3	4
267281	STOP	n/a	LTP269	ltpFR2	8	n/a	n/a	n/a	2	n/a	n/a	n/a	n/a
269450	WORD	wordpools/wasnorm_wordpool_576.txt	LTP269	ltpFR2	8	2	MATTRESS	879	n/a	n/a	0	0	0
271985	WORD	wordpools/wasnorm_wordpool_576.txt	LTP269	ltpFR2	8	2	TABLE	1426	n/a	n/a	0	0	0
274593	WORD	wordpools/wasnorm_wordpool_576.txt	LTP269	ltpFR2	8	2	PLUTO	1092	n/a	n/a	0	0	0
277094	WORD	wordpools/wasnorm_wordpool_576.txt	LTP269	ltpFR2	8	2	SPONGE	1355	n/a	n/a	0	0	0
279790	WORD	wordpools/wasnorm_wordpool_576.txt	LTP269	ltpFR2	8	2	WARDROBE	1587	n/a	n/a	0	0	0
282583	WORD	wordpools/wasnorm_wordpool_576.txt	LTP269	ltpFR2	8	2	OUTFIT	988	n/a	n/a	0	0	0
285352	WORD	wordpools/wasnorm_wordpool_576.txt	LTP269	ltpFR2	8	2	SCARF	1246	n/a	n/a	0	0	0
287996	WORD	wordpools/wasnorm_wordpool_576.txt	LTP269	ltpFR2	8	2	GYMNAST	675	n/a	n/a	0	0	0
290416	WORD	wordpools/wasnorm_wordpool_576.txt	LTP269	ltpFR2	8	2	FOOTBALL	591	n/a	n/a	0	0	0
292991	WORD	wordpools/wasnorm_wordpool_576.txt	LTP269	ltpFR2	8	2	MAILMAN	858	n/a	n/a	0	0	0
295743	WORD	wordpools/wasnorm_wordpool_576.txt	LTP269	ltpFR2	8	2	SPACE	1345	n/a	n/a	0	0	0
298205	WORD	wordpools/wasnorm_wordpool_576.txt	LTP269	ltpFR2	8	2	CRATER	400	n/a	n/a	0	0	0
300924	WORD	wordpools/wasnorm_wordpool_576.txt	LTP269	ltpFR2	8	2	PARTNER	1017	n/a	n/a	0	0	0
303418	WORD	wordpools/wasnorm_wordpool_576.txt	LTP269	ltpFR2	8	2	FRIEND	606	n/a	n/a	0	0	0
306202	WORD	wordpools/wasnorm_wordpool_576.txt	LTP269	ltpFR2	8	2	ARMY	39	n/a	n/a	0	0	0
308722	WORD	wordpools/wasnorm_wordpool_576.txt	LTP269	ltpFR2	8	2	HAMPER	682	n/a	n/a	0	0	0
311484	WORD	wordpools/wasnorm_wordpool_576.txt	LTP269	ltpFR2	8	2	COCOON	339	n/a	n/a	0	0	0
313951	WORD	wordpools/wasnorm_wordpool_576.txt	LTP269	ltpFR2	8	2	DONOR	485	n/a	n/a	0	0	0
316654	WORD	wordpools/wasnorm_wordpool_576.txt	LTP269	ltpFR2	8	2	CLAM	315	n/a	n/a	0	0	0
319231	WORD	wordpools/wasnorm_wordpool_576.txt	LTP269	ltpFR2	8	2	TEMPLE	1448	n/a	n/a	0	0	0
321941	WORD	wordpools/wasnorm_wordpool_576.txt	LTP269	ltpFR2	8	2	SUITCASE	1403	n/a	n/a	0	0	0
324387	WORD	wordpools/wasnorm_wordpool_576.txt	LTP269	ltpFR2	8	2	RIVER	1194	n/a	n/a	0	0	0
327112	WORD	wordpools/wasnorm_wordpool_576.txt	LTP269	ltpFR2	8	2	GANGSTER	620	n/a	n/a	0	0	0
329690	WORD	wordpools/wasnorm_wordpool_576.txt	LTP269	ltpFR2	8	2	NIGHTGOWN	953	n/a	n/a	0	0	0
331301	START	n/a	LTP269	ltpFR2	8	n/a	n/a	n/a	3	n/a	n/a	n/a	n/a
332248	DISTRACTOR	n/a	LTP269	ltpFR2	8	2	n/a	n/a	n/a	n/a	0	0	0
332259	PROB	n/a	LTP269	ltpFR2	8	n/a	n/a	n/a	3	14	6	4	4
333700	PROB	n/a	LTP269	ltpFR2	8	n/a	n/a	n/a	3	7	1	3	3
335002	PROB	n/a	LTP269	ltpFR2	8	n/a	n/a	n/a	3	15	9	5	1
337753	PROB	n/a	LTP269	ltpFR2	8	n/a	n/a	n/a	3	11	4	6	1
339254	PROB	n/a	LTP269	ltpFR2	8	n/a	n/a	n/a	3	25	9	9	7
341391	PROB	n/a	LTP269	ltpFR2	8	n/a	n/a	n/a	3	20	7	6	7
343042	PROB	n/a	LTP269	ltpFR2	8	n/a	n/a	n/a	3	14	5	7	2
344643	PROB	n/a	LTP269	ltpFR2	8	n/a	n/a	n/a	3	12	1	8	3
346327	PROB	n/a	LTP269	ltpFR2	8	n/a	n/a	n/a	3	22	9	6	7
348078	PROB	n/a	LTP269	ltpFR2	8	n/a	n/a	n/a	3	13	2	9	2
350079	PROB	n/a	LTP269	ltpFR2	8	n/a	n/a	n/a	3	13	6	2	5
352649	PROB	n/a	LTP269	ltpFR2	8	n/a	n/a	n/a	3	14	1	8	5
354235	STOP	n/a	LTP269	ltpFR2	8	n/a	n/a	n/a	3	n/a	n/a	n/a	n/a
357070	REC_START	n/a	LTP269	ltpFR2	8	2	n/a	n/a	n/a	n/a	0	0	0
358620	REC_WORD_VV	wordpools/wasnorm_wordpool_576.txt	LTP269	ltpFR2	8	2	<>	-1	n/a	n/a	0	0	0
361999	REC_WORD	wordpools/wasnorm_wordpool_576.txt	LTP269	ltpFR2	8	2	MATTRESS	879	n/a	n/a	0	0	0
362633	REC_WORD	wordpools/wasnorm_wordpool_576.txt	LTP269	ltpFR2	8	2	TABLE	1426	n/a	n/a	0	0	0
364227	REC_WORD	wordpools/wasnorm_wordpool_576.txt	LTP269	ltpFR2	8	2	PLUTO	1092	n/a	n/a	0	0	0
364743	REC_WORD	wordpools/wasnorm_wordpool_576.txt	LTP269	ltpFR2	8	2	SPONGE	1355	n/a	n/a	0	0	0
366334	REC_WORD	wordpools/wasnorm_wordpool_576.txt	LTP269	ltpFR2	8	2	WARDROBE	1587	n/a	n/a	0	0	0
367277	REC_WORD	wordpools/wasnorm_wordpool_576.txt	LTP269	ltpFR2	8	2	SCARF	1246	n/a	n/a	0	0	0
368436	REC_WORD	wordpools/wasnorm_wordpool_576.txt	LTP269	ltpFR2	8	2	OUTFIT	988	n/a	n/a	0	0	0
371188	REC_WORD	wordpools/wasnorm_wordpool_576.txt	LTP269	ltpFR2	8	2	MAILMAN	858	n/a	n/a	0	0	0
371843	REC_WORD	wordpools/wasnorm_wordpool_576.txt	LTP269	ltpFR2	8	2	CRATER	400	n/a	n/a	0	0	0
372991	REC_WORD	wordpools/wasnorm_wordpool_576.txt	LTP269	ltpFR2	8	2	SPACE	1345	n/a	n/a	0	0	0
377154	REC_WORD	wordpools/wasnorm_wordpool_576.txt	LTP269	ltpFR2	8	2	PARTNER	1017	n/a	n/a	0	0	0
377785	REC_WORD	wordpools/wasnorm_wordpool_576.txt	LTP269	ltpFR2	8	2	FRIEND	606	n/a	n/a	0	0	0
378610	REC_WORD	wordpools/wasnorm_wordpool_576.txt	LTP269	ltpFR2	8	2	ARMY	39	n/a	n/a	0	0	0
379224	REC_WORD	wordpools/wasnorm_wordpool_576.txt	LTP269	ltpFR2	8	2	HAMPER	682	n/a	n/a	0	0	0
380945	REC_WORD	wordpools/wasnorm_wordpool_576.txt	LTP269	ltpFR2	8	2	COCOON	339	n/a	n/a	0	0	0
384169	REC_WORD	wordpools/wasnorm_wordpool_576.txt	LTP269	ltpFR2	8	2	GANGSTER	620	n/a	n/a	0	0	0
389326	REC_WORD	wordpools/wasnorm_wordpool_576.txt	LTP269	ltpFR2	8	2	NIGHTGOWN	953	n/a	n/a	0	0	0
399957	REC_WORD_VV	wordpools/wasnorm_wordpool_576.txt	LTP269	ltpFR2	8	2	<>	-1	n/a	n/a	0	0	0
447542	WORD	wordpools/wasnorm_wordpool_576.txt	LTP269	ltpFR2	8	3	FOX	598	n/a	n/a	0	0	0
450111	WORD	wordpools/wasnorm_wordpool_576.txt	LTP269	ltpFR2	8	3	TUBA	1515	n/a	n/a	0	0	0
452712	WORD	wordpools/wasnorm_wordpool_576.txt	LTP269	ltpFR2	8	3	MISTER	901	n/a	n/a	0	0	0
455450	WORD	wordpools/wasnorm_wordpool_576.txt	LTP269	ltpFR2	8	3	PLASTER	1085	n/a	n/a	0	0	0
458001	WORD	wordpools/wasnorm_wordpool_576.txt	LTP269	ltpFR2	8	3	CEILING	265	n/a	n/a	0	0	0
460570	WORD	wordpools/wasnorm_wordpool_576.txt	LTP269	ltpFR2	8	3	TWEEZERS	1526	n/a	n/a	0	0	0
463272	WORD	wordpools/wasnorm_wordpool_576.txt	LTP269	ltpFR2	8	3	PLAYGROUND	1087	n/a	n/a	0	0	0
465789	WORD	wordpools/wasnorm_wordpool_576.txt	LTP269	ltpFR2	8	3	CELLAR	267	n/a	n/a	0	0	0
468293	WORD	wordpools/wasnorm_wordpool_576.txt	LTP269	ltpFR2	8	3	PATIENT	1024	n/a	n/a	0	0	0
470961	WORD	wordpools/wasnorm_wordpool_576.txt	LTP269	ltpFR2	8	3	FRIAR	605	n/a	n/a	0	0	0
473397	WORD	wordpools/wasnorm_wordpool_576.txt	LTP269	ltpFR2	8	3	FLAG	573	n/a	n/a	0	0	0
475897	WORD	wordpools/wasnorm_wordpool_576.txt	LTP269	ltpFR2	8	3	REBEL	1172	n/a	n/a	0	0	0
478652	WORD	wordpools/wasnorm_wordpool_576.txt	LTP269	ltpFR2	8	3	AIRPLANE	12	n/a	n/a	0	0	0
481186	WORD	wordpools/wasnorm_wordpool_576.txt	LTP269	ltpFR2	8	3	PADDLE	1000	n/a	n/a	0	0	0
483938	WORD	wordpools/wasnorm_wordpool_576.txt	LTP269	ltpFR2	8	3	TEACHER	1440	n/a	n/a	0	0	0
486491	WORD	wordpools/wasnorm_wordpool_576.txt	LTP269	ltpFR2	8	3	BOUQUET	157	n/a	n/a	0	0	0
489276	WORD	wordpools/wasnorm_wordpool_576.txt	LTP269	ltpFR2	8	3	PIANO	1057	n/a	n/a	0	0	0
491777	WORD	wordpools/wasnorm_wordpool_576.txt	LTP269	ltpFR2	8	3	WOMAN	1620	n/a	n/a	0	0	0
494314	WORD	wordpools/wasnorm_wordpool_576.txt	LTP269	ltpFR2	8	3	HOUND	724	n/a	n/a	0	0	0
496898	WORD	wordpools/wasnorm_wordpool_576.txt	LTP269	ltpFR2	8	3	MARINE	869	n/a	n/a	0	0	0
499701	WORD	wordpools/wasnorm_wordpool_576.txt	LTP269	ltpFR2	8	3	CANAL	226	n/a	n/a	0	0	0
502258	WORD	wordpools/wasnorm_wordpool_576.txt	LTP269	ltpFR2	8	3	INMATE	738	n/a	n/a	0	0	0
504972	WORD	wordpools/wasnorm_wordpool_576.txt	LTP269	ltpFR2	8	3	PLIERS	1089	n/a	n/a	0	0	0
507761	WORD	wordpools/wasnorm_wordpool_576.txt	LTP269	ltpFR2	8	3	CHAPEL	280	n/a	n/a	0	0	0
509376	START	n/a	LTP269	ltpFR2	8	n/a	n/a	n/a	4	n/a	n/a	n/a	n/a
510199	DISTRACTOR	n/a	LTP269	ltpFR2	8	3	n/a	n/a	n/a	n/a	0	0	0
510209	PROB	n/a	LTP269	ltpFR2	8	n/a	n/a	n/a	4	15	1	5	9
512110	PROB	n/a	LTP269	ltpFR2	8	n/a	n/a	n/a	4	16	8	6	2
515980	PROB	n/a	LTP269	ltpFR2	8	n/a	n/a	n/a	4	20	8	7	5
517665	PROB	n/a	LTP269	ltpFR2	8	n/a	n/a	n/a	4	6	4	1	1
518998	PROB	n/a	LTP269	ltpFR2	8	n/a	n/a	n/a	4	14	5	1	8
521002	PROB	n/a	LTP269	ltpFR2	8	n/a	n/a	n/a	4	21	4	9	8
522986	PROB	n/a	LTP269	ltpFR2	8	n/a	n/a	n/a	4	14	4	3	7
524589	PROB	n/a	LTP269	ltpFR2	8	n/a	n/a	n/a	4	12	7	2	3
526656	PROB	n/a	LTP269	ltpFR2	8	n/a	n/a	n/a	4	21	5	8	8
530023	PROB	n/a	LTP269	ltpFR2	8	n/a	n/a	n/a	4	15	4	3	8
533376	STOP	n/a	LTP269	ltpFR2	8	n/a	n/a	n/a	4	n/a	n/a	n/a	n/a
535179	REC_START	n/a	LTP269	ltpFR2	8	3	n/a	n/a	n/a	n/a	0	0	0
536548	REC_WORD_VV	wordpools/wasnorm_wordpool_576.txt	LTP269	ltpFR2	8	3	<>	-1	n/a	n/a	0	0	0
537469	REC_WORD	wordpools/wasnorm_wordpool_576.txt	LTP269	ltpFR2	8	3	FOX	598	n/a	n/a	0	0	0
538124	REC_WORD	wordpools/wasnorm_wordpool_576.txt	LTP269	ltpFR2	8	3	MISTER	901	n/a	n/a	0	0	0
540101	REC_WORD	wordpools/wasnorm_wordpool_576.txt	LTP269	ltpFR2	8	3	PLIERS	1089	n/a	n/a	0	0	0
540868	REC_WORD	wordpools/wasnorm_wordpool_576.txt	LTP269	ltpFR2	8	3	TWEEZERS	1526	n/a	n/a	0	0	0
542046	REC_WORD_VV	wordpools/wasnorm_wordpool_576.txt	LTP269	ltpFR2	8	3	<>	-1	n/a	n/a	0	0	0
544782	REC_WORD	wordpools/wasnorm_wordpool_576.txt	LTP269	ltpFR2	8	3	CEILING	265	n/a	n/a	0	0	0
545792	REC_WORD	wordpools/wasnorm_wordpool_576.txt	LTP269	ltpFR2	8	3	PLAYGROUND	1087	n/a	n/a	0	0	0
546647	REC_WORD	wordpools/wasnorm_wordpool_576.txt	LTP269	ltpFR2	8	3	CELLAR	267	n/a	n/a	0	0	0
549481	REC_WORD	wordpools/wasnorm_wordpool_576.txt	LTP269	ltpFR2	8	3	PLANE	1081	n/a	n/a	0	0	0
550872	REC_WORD	wordpools/wasnorm_wordpool_576.txt	LTP269	ltpFR2	8	3	REBEL	1172	n/a	n/a	0	0	0
551259	REC_WORD	wordpools/wasnorm_wordpool_576.txt	LTP269	ltpFR2	8	3	FLAG	573	n/a	n/a	0	0	0
551990	REC_WORD	wordpools/wasnorm_wordpool_576.txt	LTP269	ltpFR2	8	3	PATIENT	1024	n/a	n/a	0	0	0
560752	REC_WORD	wordpools/wasnorm_wordpool_576.txt	LTP269	ltpFR2	8	3	MARINE	869	n/a	n/a	0	0	0
561893	REC_WORD	wordpools/wasnorm_wordpool_576.txt	LTP269	ltpFR2	8	3	HOUND	724	n/a	n/a	0	0	0
573287	REC_WORD_VV	wordpools/wasnorm_wordpool_576.txt	LTP269	ltpFR2	8	3	<>	-1	n/a	n/a	0	0	0
625599	DISTRACTOR	n/a	LTP269	ltpFR2	8	4	n/a	n/a	n/a	n/a	0	0	0
625599	START	n/a	LTP269	ltpFR2	8	n/a	n/a	n/a	5	n/a	n/a	n/a	n/a
625615	PROB	n/a	LTP269	ltpFR2	8	n/a	n/a	n/a	5	15	7	2	6
627749	PROB	n/a	LTP269	ltpFR2	8	n/a	n/a	n/a	5	20	7	6	7
629568	PROB	n/a	LTP269	ltpFR2	8	n/a	n/a	n/a	5	18	6	8	4
631370	PROB	n/a	LTP269	ltpFR2	8	n/a	n/a	n/a	5	10	1	5	4
633138	PROB	n/a	LTP269	ltpFR2	8	n/a	n/a	n/a	5	11	3	3	5
635022	PROB	n/a	LTP269	ltpFR2	8	n/a	n/a	n/a	5	18	5	4	9
637529	PROB	n/a	LTP269	ltpFR2	8	n/a	n/a	n/a	5	24	9	9	6
643763	PROB	n/a	LTP269	ltpFR2	8	n/a	n/a	n/a	5	13	3	7	3
645882	PROB	n/a	LTP269	ltpFR2	8	n/a	n/a	n/a	5	9	4	2	3
649055	STOP	n/a	LTP269	ltpFR2	8	n/a	n/a	n/a	5	n/a	n/a	n/a	n/a
650770	WORD	wordpools/wasnorm_wordpool_576.txt	LTP269	ltpFR2	8	4	PAIL	1002	n/a	n/a	0	0	0
653188	WORD	wordpools/wasnorm_wordpool_576.txt	LTP269	ltpFR2	8	4	SUNSET	1408	n/a	n/a	0	0	0
655790	WORD	wordpools/wasnorm_wordpool_576.txt	LTP269	ltpFR2	8	4	COLLEGE	346	n/a	n/a	0	0	0
658545	WORD	wordpools/wasnorm_wordpool_576.txt	LTP269	ltpFR2	8	4	LADDER	793	n/a	n/a	0	0	0
661129	WORD	wordpools/wasnorm_wordpool_576.txt	LTP269	ltpFR2	8	4	DIVER	476	n/a	n/a	0	0	0
663582	WORD	wordpools/wasnorm_wordpool_576.txt	LTP269	ltpFR2	8	4	WASP	1593	n/a	n/a	0	0	0
666016	WORD	wordpools/wasnorm_wordpool_576.txt	LTP269	ltpFR2	8	4	ROBOT	1200	n/a	n/a	0	0	0
668669	WORD	wordpools/wasnorm_wordpool_576.txt	LTP269	ltpFR2	8	4	PRINCE	1124	n/a	n/a	0	0	0
671222	WORD	wordpools/wasnorm_wordpool_576.txt	LTP269	ltpFR2	8	4	WASHER	1592	n/a	n/a	0	0	0
673923	WORD	wordpools/wasnorm_wordpool_576.txt	LTP269	ltpFR2	8	4	DANCER	437	n/a	n/a	0	0	0
676511	WORD	wordpools/wasnorm_wordpool_576.txt	LTP269	ltpFR2	8	4	TUTU	1524	n/a	n/a	0	0	0
679313	WORD	wordpools/wasnorm_wordpool_576.txt	LTP269	ltpFR2	8	4	SPARROW	1347	n/a	n/a	0	0	0
681913	WORD	wordpools/wasnorm_wordpool_576.txt	LTP269	ltpFR2	8	4	ICING	732	n/a	n/a	0	0	0
684550	WORD	wordpools/wasnorm_wordpool_576.txt	LTP269	ltpFR2	8	4	WRENCH	1625	n/a	n/a	0	0	0
687018	WORD	wordpools/wasnorm_wordpool_576.txt	LTP269	ltpFR2	8	4	BADGE	68	n/a	n/a	0	0	0
689555	WORD	wordpools/wasnorm_wordpool_576.txt	LTP269	ltpFR2	8	4	BLOCKADE	137	n/a	n/a	0	0	0
692055	WORD	wordpools/wasnorm_wordpool_576.txt	LTP269	ltpFR2	8	4	ROBBER	1197	n/a	n/a	0	0	0
694658	WORD	wordpools/wasnorm_wordpool_576.txt	LTP269	ltpFR2	8	4	FIREMAN	569	n/a	n/a	0	0	0
697144	WORD	wordpools/wasnorm_wordpool_576.txt	LTP269	ltpFR2	8	4	DRILL	497	n/a	n/a	0	0	0
699945	WORD	wordpools/wasnorm_wordpool_576.txt	LTP269	ltpFR2	8	4	GIFT	635	n/a	n/a	0	0	0
702747	WORD	wordpools/wasnorm_wordpool_576.txt	LTP269	ltpFR2	8	4	STONE	1385	n/a	n/a	0	0	0
705369	WORD	wordpools/wasnorm_wordpool_576.txt	LTP269	ltpFR2	8	4	DRESSER	496	n/a	n/a	0	0	0
708068	WORD	wordpools/wasnorm_wordpool_576.txt	LTP269	ltpFR2	8	4	ITEM	746	n/a	n/a	0	0	0
710571	WORD	wordpools/wasnorm_wordpool_576.txt	LTP269	ltpFR2	8	4	PIGEON	1065	n/a	n/a	0	0	0
712190	START	n/a	LTP269	ltpFR2	8	n/a	n/a	n/a	6	n/a	n/a	n/a	n/a
713381	DISTRACTOR	n/a	LTP269	ltpFR2	8	4	n/a	n/a	n/a	n/a	0	0	0
713390	PROB	n/a	LTP269	ltpFR2	8	n/a	n/a	n/a	6	11	6	1	4
714691	PROB	n/a	LTP269	ltpFR2	8	n/a	n/a	n/a	6	11	2	7	2
716341	PROB	n/a	LTP269	ltpFR2	8	n/a	n/a	n/a	6	6	1	4	1
718361	PROB	n/a	LTP269	ltpFR2	8	n/a	n/a	n/a	6	16	6	3	7
719710	PROB	n/a	LTP269	ltpFR2	8	n/a	n/a	n/a	6	12	3	5	4
721496	PROB	n/a	LTP269	ltpFR2	8	n/a	n/a	n/a	6	11	2	6	3
723196	PROB	n/a	LTP269	ltpFR2	8	n/a	n/a	n/a	6	11	5	3	3
724881	PROB	n/a	LTP269	ltpFR2	8	n/a	n/a	n/a	6	18	8	1	9
726265	PROB	n/a	LTP269	ltpFR2	8	n/a	n/a	n/a	6	6	1	3	2
728000	PROB	n/a	LTP269	ltpFR2	8	n/a	n/a	n/a	6	19	7	3	9
729335	PROB	n/a	LTP269	ltpFR2	8	n/a	n/a	n/a	6	11	7	3	1
730519	PROB	n/a	LTP269	ltpFR2	8	n/a	n/a	n/a	6	9	2	1	6
732020	PROB	n/a	LTP269	ltpFR2	8	n/a	n/a	n/a	6	16	1	7	8
733438	PROB	n/a	LTP269	ltpFR2	8	n/a	n/a	n/a	6	20	6	7	7
735235	STOP	n/a	LTP269	ltpFR2	8	n/a	n/a	n/a	6	n/a	n/a	n/a	n/a
737991	REC_START	n/a	LTP269	ltpFR2	8	4	n/a	n/a	n/a	n/a	0	0	0
744322	REC_WORD	wordpools/wasnorm_wordpool_576.txt	LTP269	ltpFR2	8	4	ITEM	746	n/a	n/a	0	0	0
747068	REC_WORD	wordpools/wasnorm_wordpool_576.txt	LTP269	ltpFR2	8	4	DRESSER	496	n/a	n/a	0	0	0
751934	REC_WORD	wordpools/wasnorm_wordpool_576.txt	LTP269	ltpFR2	8	4	SPARROW	1347	n/a	n/a	0	0	0
755286	REC_WORD	wordpools/wasnorm_wordpool_576.txt	LTP269	ltpFR2	8	4	SUNSET	1408	n/a	n/a	0	0	0
756799	REC_WORD	wordpools/wasnorm_wordpool_576.txt	LTP269	ltpFR2	8	4	LETTER	813	n/a	n/a	0	0	0
757264	REC_WORD	wordpools/wasnorm_wordpool_576.txt	LTP269	ltpFR2	8	4	DIVER	476	n/a	n/a	0	0	0
759626	REC_WORD	wordpools/wasnorm_wordpool_576.txt	LTP269	ltpFR2	8	4	DANCER	437	n/a	n/a	0	0	0
760212	REC_WORD	wordpools/wasnorm_wordpool_576.txt	LTP269	ltpFR2	8	4	TUTU	1524	n/a	n/a	0	0	0
762960	REC_WORD	wordpools/wasnorm_wordpool_576.txt	LTP269	ltpFR2	8	4	COLLEGE	346	n/a	n/a	0	0	0
789763	REC_WORD_VV	wordpools/wasnorm_wordpool_576.txt	LTP269	ltpFR2	8	4	<>	-1	n/a	n/a	0	0	0
828416	DISTRACTOR	n/a	LTP269	ltpFR2	8	5	n/a	n/a	n/a	n/a	0	0	0
828416	START	n/a	LTP269	ltpFR2	8	n/a	n/a	n/a	7	n/a	n/a	n/a	n/a
828431	PROB	n/a	LTP269	ltpFR2	8	n/a	n/a	n/a	7	23	7	8	8
831200	PROB	n/a	LTP269	ltpFR2	8	n/a	n/a	n/a	7	20	2	9	9
832884	PROB	n/a	LTP269	ltpFR2	8	n/a	n/a	n/a	7	17	6	5	6
834735	PROB	n/a	LTP269	ltpFR2	8	n/a	n/a	n/a	7	18	5	5	8
836489	PROB	n/a	LTP269	ltpFR2	8	n/a	n/a	n/a	7	18	4	4	9
837954	PROB	n/a	LTP269	ltpFR2	8	n/a	n/a	n/a	7	8	5	1	2
842224	PROB	n/a	LTP269	ltpFR2	8	n/a	n/a	n/a	7	10	1	4	5
843493	PROB	n/a	LTP269	ltpFR2	8	n/a	n/a	n/a	7	8	1	3	4
844878	PROB	n/a	LTP269	ltpFR2	8	n/a	n/a	n/a	7	13	4	8	1
846212	PROB	n/a	LTP269	ltpFR2	8	n/a	n/a	n/a	7	5	1	1	3
847846	PROB	n/a	LTP269	ltpFR2	8	n/a	n/a	n/a	7	16	6	1	9
850960	STOP	n/a	LTP269	ltpFR2	8	n/a	n/a	n/a	7	n/a	n/a	n/a	n/a
853281	WORD	wordpools/wasnorm_wordpool_576.txt	LTP269	ltpFR2	8	5	TOMBSTONE	1478	n/a	n/a	0	0	0
855970	WORD	wordpools/wasnorm_wordpool_576.txt	LTP269	ltpFR2	8	5	DOLPHIN	483	n/a	n/a	0	0	0
858502	WORD	wordpools/wasnorm_wordpool_576.txt	LTP269	ltpFR2	8	5	CONTRACT	368	n/a	n/a	0	0	0
861220	WORD	wordpools/wasnorm_wordpool_576.txt	LTP269	ltpFR2	8	5	SEAGULL	1261	n/a	n/a	0	0	0
863640	WORD	wordpools/wasnorm_wordpool_576.txt	LTP269	ltpFR2	8	5	SUNRISE	1407	n/a	n/a	0	0	0
866242	WORD	wordpools/wasnorm_wordpool_576.txt	LTP269	ltpFR2	8	5	GUITAR	670	n/a	n/a	0	0	0
868994	WORD	wordpools/wasnorm_wordpool_576.txt	LTP269	ltpFR2	8	5	DASHBOARD	441	n/a	n/a	0	0	0
871513	WORD	wordpools/wasnorm_wordpool_576.txt	LTP269	ltpFR2	8	5	LADY	794	n/a	n/a	0	0	0
874181	WORD	wordpools/wasnorm_wordpool_576.txt	LTP269	ltpFR2	8	5	THRONE	1461	n/a	n/a	0	0	0
876652	WORD	wordpools/wasnorm_wordpool_576.txt	LTP269	ltpFR2	8	5	FINGER	567	n/a	n/a	0	0	0
879086	WORD	wordpools/wasnorm_wordpool_576.txt	LTP269	ltpFR2	8	5	ATLAS	53	n/a	n/a	0	0	0
881622	WORD	wordpools/wasnorm_wordpool_576.txt	LTP269	ltpFR2	8	5	RAZOR	1171	n/a	n/a	0	0	0
884224	WORD	wordpools/wasnorm_wordpool_576.txt	LTP269	ltpFR2	8	5	SCALPEL	1243	n/a	n/a	0	0	0
887043	WORD	wordpools/wasnorm_wordpool_576.txt	LTP269	ltpFR2	8	5	HATCHET	691	n/a	n/a	0	0	0
889729	WORD	wordpools/wasnorm_wordpool_576.txt	LTP269	ltpFR2	8	5	SHORTCAKE	1292	n/a	n/a	0	0	0
892482	WORD	wordpools/wasnorm_wordpool_576.txt	LTP269	ltpFR2	8	5	DOUGHNUT	490	n/a	n/a	0	0	0
895100	WORD	wordpools/wasnorm_wordpool_576.txt	LTP269	ltpFR2	8	5	WRIST	1626	n/a	n/a	0	0	0
897620	WORD	wordpools/wasnorm_wordpool_576.txt	LTP269	ltpFR2	8	5	QUARTER	1148	n/a	n/a	0	0	0
900221	WORD	wordpools/wasnorm_wordpool_576.txt	LTP269	ltpFR2	8	5	LONDON	843	n/a	n/a	0	0	0
902940	WORD	wordpools/wasnorm_wordpool_576.txt	LTP269	ltpFR2	8	5	ULCER	1533	n/a	n/a	0	0	0
905543	WORD	wordpools/wasnorm_wordpool_576.txt	LTP269	ltpFR2	8	5	FUNGUS	614	n/a	n/a	0	0	0
908345	WORD	wordpools/wasnorm_wordpool_576.txt	LTP269	ltpFR2	8	5	PALACE	1006	n/a	n/a	0	0	0
910814	WORD	wordpools/wasnorm_wordpool_576.txt	LTP269	ltpFR2	8	5	QUEEN	1149	n/a	n/a	0	0	0
913433	WORD	wordpools/wasnorm_wordpool_576.txt	LTP269	ltpFR2	8	5	GRAVE	658	n/a	n/a	0	0	0
915051	START	n/a	LTP269	ltpFR2	8	n/a	n/a	n/a	8	n/a	n/a	n/a	n/a
916082	DISTRACTOR	n/a	LTP269	ltpFR2	8	5	n/a	n/a	n/a	n/a	0	0	0
916102	PROB	n/a	LTP269	ltpFR2	8	n/a	n/a	n/a	8	18	6	6	6
917403	PROB	n/a	LTP269	ltpFR2	8	n/a	n/a	n/a	8	23	5	9	9
919003	PROB	n/a	LTP269	ltpFR2	8	n/a	n/a	n/a	8	15	7	7	1
920355	PROB	n/a	LTP269	ltpFR2	8	n/a	n/a	n/a	8	10	2	7	1
921822	PROB	n/a	LTP269	ltpFR2	8	n/a	n/a	n/a	8	16	9	6	1
924074	PROB	n/a	LTP269	ltpFR2	8	n/a	n/a	n/a	8	19	9	5	5
925844	PROB	n/a	LTP269	ltpFR2	8	n/a	n/a	n/a	8	13	2	9	2
927745	PROB	n/a	LTP269	ltpFR2	8	n/a	n/a	n/a	8	17	4	8	5
930313	PROB	n/a	LTP269	ltpFR2	8	n/a	n/a	n/a	8	18	5	7	6
932481	PROB	n/a	LTP269	ltpFR2	8	n/a	n/a	n/a	8	15	2	6	7
934184	PROB	n/a	LTP269	ltpFR2	8	n/a	n/a	n/a	8	9	6	2	1
935417	PROB	n/a	LTP269	ltpFR2	8	n/a	n/a	n/a	8	11	3	5	3
937318	PROB	n/a	LTP269	ltpFR2	8	n/a	n/a	n/a	8	18	7	4	7
938795	STOP	n/a	LTP269	ltpFR2	8	n/a	n/a	n/a	8	n/a	n/a	n/a	n/a
940871	REC_START	n/a	LTP269	ltpFR2	8	5	n/a	n/a	n/a	n/a	0	0	0
941968	REC_WORD	wordpools/wasnorm_wordpool_576.txt	LTP269	ltpFR2	8	5	TOMBSTONE	1478	n/a	n/a	0	0	0
943771	REC_WORD	wordpools/wasnorm_wordpool_576.txt	LTP269	ltpFR2	8	5	DOLPHIN	483	n/a	n/a	0	0	0
944264	REC_WORD	wordpools/wasnorm_wordpool_576.txt	LTP269	ltpFR2	8	5	SEAGULL	1261	n/a	n/a	0	0	0
944816	REC_WORD	wordpools/wasnorm_wordpool_576.txt	LTP269	ltpFR2	8	5	CONTRACT	368	n/a	n/a	0	0	0
946726	REC_WORD	wordpools/wasnorm_wordpool_576.txt	LTP269	ltpFR2	8	5	SUNRISE	1407	n/a	n/a	0	0	0
948221	REC_WORD	wordpools/wasnorm_wordpool_576.txt	LTP269	ltpFR2	8	5	GUITAR	670	n/a	n/a	0	0	0
948855	REC_WORD	wordpools/wasnorm_wordpool_576.txt	LTP269	ltpFR2	8	5	LADY	794	n/a	n/a	0	0	0
949445	REC_WORD	wordpools/wasnorm_wordpool_576.txt	LTP269	ltpFR2	8	5	FINGER	567	n/a	n/a	0	0	0
950578	REC_WORD	wordpools/wasnorm_wordpool_576.txt	LTP269	ltpFR2	8	5	ATLAS	53	n/a	n/a	0	0	0
951575	REC_WORD	wordpools/wasnorm_wordpool_576.txt	LTP269	ltpFR2	8	5	LONDON	843	n/a	n/a	0	0	0
954092	REC_WORD	wordpools/wasnorm_wordpool_576.txt	LTP269	ltpFR2	8	5	ULCER	1533	n/a	n/a	0	0	0
954636	REC_WORD	wordpools/wasnorm_wordpool_576.txt	LTP269	ltpFR2	8	5	SCALPEL	1243	n/a	n/a	0	0	0
955851	REC_WORD	wordpools/wasnorm_wordpool_576.txt	LTP269	ltpFR2	8	5	RAZOR	1171	n/a	n/a	0	0	0
957875	REC_WORD	wordpools/wasnorm_wordpool_576.txt	LTP269	ltpFR2	8	5	HATCHET	691	n/a	n/a	0	0	0
958935	REC_WORD	wordpools/wasnorm_wordpool_576.txt	LTP269	ltpFR2	8	5	DASHBOARD	441	n/a	n/a	0	0	0
963875	REC_WORD	wordpools/wasnorm_wordpool_576.txt	LTP269	ltpFR2	8	5	THRONE	1461	n/a	n/a	0	0	0
964872	REC_WORD	wordpools/wasnorm_wordpool_576.txt	LTP269	ltpFR2	8	5	QUEEN	1149	n/a	n/a	0	0	0
965359	REC_WORD	wordpools/wasnorm_wordpool_576.txt	LTP269	ltpFR2	8	5	PALACE	1006	n/a	n/a	0	0	0
971173	REC_WORD	wordpools/wasnorm_wordpool_576.txt	LTP269	ltpFR2	8	5	QUARTER	1148	n/a	n/a	0	0	0
984818	REC_WORD_VV	wordpools/wasnorm_wordpool_576.txt	LTP269	ltpFR2	8	5	<>	-1	n/a	n/a	0	0	0
1031296	DISTRACTOR	n/a	LTP269	ltpFR2	8	6	n/a	n/a	n/a	n/a	0	0	0
1031296	START	n/a	LTP269	ltpFR2	8	n/a	n/a	n/a	9	n/a	n/a	n/a	n/a
1031313	PROB	n/a	LTP269	ltpFR2	8	n/a	n/a	n/a	9	14	1	9	4
1033430	PROB	n/a	LTP269	ltpFR2	8	n/a	n/a	n/a	9	13	8	4	1
1035231	PROB	n/a	LTP269	ltpFR2	8	n/a	n/a	n/a	9	18	7	6	5
1036766	PROB	n/a	LTP269	ltpFR2	8	n/a	n/a	n/a	9	17	7	5	5
1038519	PROB	n/a	LTP269	ltpFR2	8	n/a	n/a	n/a	9	5	2	2	1
1039834	PROB	n/a	LTP269	ltpFR2	8	n/a	n/a	n/a	9	13	1	7	5
1041119	PROB	n/a	LTP269	ltpFR2	8	n/a	n/a	n/a	9	12	1	3	8
1044288	PROB	n/a	LTP269	ltpFR2	8	n/a	n/a	n/a	9	15	1	7	6
1045754	PROB	n/a	LTP269	ltpFR2	8	n/a	n/a	n/a	9	26	8	9	9
1049627	PROB	n/a	LTP269	ltpFR2	8	n/a	n/a	n/a	9	19	9	4	6
1052563	PROB	n/a	LTP269	ltpFR2	8	n/a	n/a	n/a	9	5	1	3	1
1053712	PROB	n/a	LTP269	ltpFR2	8	n/a	n/a	n/a	9	10	8	1	1
1054792	STOP	n/a	LTP269	ltpFR2	8	n/a	n/a	n/a	9	n/a	n/a	n/a	n/a
1056325	WORD	wordpools/wasnorm_wordpool_576.txt	LTP269	ltpFR2	8	6	SWORD	1423	n/a	n/a	0	0	0
1058916	WORD	wordpools/wasnorm_wordpool_576.txt	LTP269	ltpFR2	8	6	HARP	689	n/a	n/a	0	0	0
1061537	WORD	wordpools/wasnorm_wordpool_576.txt	LTP269	ltpFR2	8	6	CHAMPAGNE	278	n/a	n/a	0	0	0
1064114	WORD	wordpools/wasnorm_wordpool_576.txt	LTP269	ltpFR2	8	6	RECORD	1176	n/a	n/a	0	0	0
1066618	WORD	wordpools/wasnorm_wordpool_576.txt	LTP269	ltpFR2	8	6	SPOON	1357	n/a	n/a	0	0	0
1069125	WORD	wordpools/wasnorm_wordpool_576.txt	LTP269	ltpFR2	8	6	MISSILE	900	n/a	n/a	0	0	0
1071921	WORD	wordpools/wasnorm_wordpool_576.txt	LTP269	ltpFR2	8	6	DRAGON	492	n/a	n/a	0	0	0
1074674	WORD	wordpools/wasnorm_wordpool_576.txt	LTP269	ltpFR2	8	6	PICTURE	1061	n/a	n/a	0	0	0
1077109	WORD	wordpools/wasnorm_wordpool_576.txt	LTP269	ltpFR2	8	6	MONEY	908	n/a	n/a	0	0	0
1079894	WORD	wordpools/wasnorm_wordpool_576.txt	LTP269	ltpFR2	8	6	PISTOL	1075	n/a	n/a	0	0	0
1082381	WORD	wordpools/wasnorm_wordpool_576.txt	LTP269	ltpFR2	8	6	OUTDOORS	987	n/a	n/a	0	0	0
1084798	WORD	wordpools/wasnorm_wordpool_576.txt	LTP269	ltpFR2	8	6	COUSIN	392	n/a	n/a	0	0	0
1087285	WORD	wordpools/wasnorm_wordpool_576.txt	LTP269	ltpFR2	8	6	COMPASS	358	n/a	n/a	0	0	0
1090058	WORD	wordpools/wasnorm_wordpool_576.txt	LTP269	ltpFR2	8	6	TWISTER	1530	n/a	n/a	0	0	0
1092873	WORD	wordpools/wasnorm_wordpool_576.txt	LTP269	ltpFR2	8	6	SCOTCH	1251	n/a	n/a	0	0	0
1095363	WORD	wordpools/wasnorm_wordpool_576.txt	LTP269	ltpFR2	8	6	TRENCH	1503	n/a	n/a	0	0	0
1098160	WORD	wordpools/wasnorm_wordpool_576.txt	LTP269	ltpFR2	8	6	CRIB	407	n/a	n/a	0	0	0
1100613	WORD	wordpools/wasnorm_wordpool_576.txt	LTP269	ltpFR2	8	6	CRAB	397	n/a	n/a	0	0	0
1103382	WORD	wordpools/wasnorm_wordpool_576.txt	LTP269	ltpFR2	8	6	SCALLOP	1242	n/a	n/a	0	0	0
1106018	WORD	wordpools/wasnorm_wordpool_576.txt	LTP269	ltpFR2	8	6	BUREAU	199	n/a	n/a	0	0	0
1108553	WORD	wordpools/wasnorm_wordpool_576.txt	LTP269	ltpFR2	8	6	PORTRAIT	1111	n/a	n/a	0	0	0
1110971	WORD	wordpools/wasnorm_wordpool_576.txt	LTP269	ltpFR2	8	6	SEAFOOD	1260	n/a	n/a	0	0	0
1113707	WORD	wordpools/wasnorm_wordpool_576.txt	LTP269	ltpFR2	8	6	SHARK	1275	n/a	n/a	0	0	0
1116328	WORD	wordpools/wasnorm_wordpool_576.txt	LTP269	ltpFR2	8	6	OUTLAW	989	n/a	n/a	0	0	0
1117945	START	n/a	LTP269	ltpFR2	8	n/a	n/a	n/a	10	n/a	n/a	n/a	n/a
1119117	DISTRACTOR	n/a	LTP269	ltpFR2	8	6	n/a	n/a	n/a	n/a	0	0	0
1119129	PROB	n/a	LTP269	ltpFR2	8	n/a	n/a	n/a	10	20	8	3	9
1120882	PROB	n/a	LTP269	ltpFR2	8	n/a	n/a	n/a	10	10	2	5	3
1122931	PROB	n/a	LTP269	ltpFR2	8	n/a	n/a	n/a	10	12	2	8	2
1125486	PROB	n/a	LTP269	ltpFR2	8	n/a	n/a	n/a	10	15	9	5	1
1127804	PROB	n/a	LTP269	ltpFR2	8	n/a	n/a	n/a	10	16	6	2	8
1130506	PROB	n/a	LTP269	ltpFR2	8	n/a	n/a	n/a	10	21	6	9	6
1133007	PROB	n/a	LTP269	ltpFR2	8	n/a	n/a	n/a	10	16	7	5	4
1135792	PROB	n/a	LTP269	ltpFR2	8	n/a	n/a	n/a	10	17	5	7	5
1137597	PROB	n/a	LTP269	ltpFR2	8	n/a	n/a	n/a	10	11	1	1	9
1139298	PROB	n/a	LTP269	ltpFR2	8	n/a	n/a	n/a	10	14	3	7	4
1140948	STOP	n/a	LTP269	ltpFR2	8	n/a	n/a	n/a	10	n/a	n/a	n/a	n/a
1143802	REC_START	n/a	LTP269	ltpFR2	8	6	n/a	n/a	n/a	n/a	0	0	0
1147940	REC_WORD	wordpools/wasnorm_wordpool_576.txt	LTP269	ltpFR2	8	6	HARP	689	n/a	n/a	0	0	0
1148323	REC_WORD	wordpools/wasnorm_wordpool_576.txt	LTP269	ltpFR2	8	6	SWORD	1423	n/a	n/a	0	0	0
1149048	REC_WORD	wordpools/wasnorm_wordpool_576.txt	LTP269	ltpFR2	8	6	CHAMPAGNE	278	n/a	n/a	0	0	0
1151061	REC_WORD	wordpools/wasnorm_wordpool_576.txt	LTP269	ltpFR2	8	6	MONEY	908	n/a	n/a	0	0	0
1151541	REC_WORD	wordpools/wasnorm_wordpool_576.txt	LTP269	ltpFR2	8	6	PICTURE	1061	n/a	n/a	0	0	0
1152013	REC_WORD	wordpools/wasnorm_wordpool_576.txt	LTP269	ltpFR2	8	6	DRAGON	492	n/a	n/a	0	0	0
1153939	REC_WORD_VV	wordpools/wasnorm_wordpool_576.txt	LTP269	ltpFR2	8	6	<>	-1	n/a	n/a	0	0	0
1154172	REC_WORD	wordpools/wasnorm_wordpool_576.txt	LTP269	ltpFR2	8	6	MISSILE	900	n/a	n/a	0	0	0
1154550	REC_WORD	wordpools/wasnorm_wordpool_576.txt	LTP269	ltpFR2	8	6	SPOON	1357	n/a	n/a	0	0	0
1173997	REC_WORD_VV	wordpools/wasnorm_wordpool_576.txt	LTP269	ltpFR2	8	6	<>	-1	n/a	n/a	0	0	0
1198647	REC_WORD_VV	wordpools/wasnorm_wordpool_576.txt	LTP269	ltpFR2	8	6	<>	-1	n/a	n/a	0	0	0
1211747	REC_WORD_VV	wordpools/wasnorm_wordpool_576.txt	LTP269	ltpFR2	8	6	<>	-1	n/a	n/a	0	0	0
1234225	DISTRACTOR	n/a	LTP269	ltpFR2	8	7	n/a	n/a	n/a	n/a	0	0	0
1234225	START	n/a	LTP269	ltpFR2	8	n/a	n/a	n/a	11	n/a	n/a	n/a	n/a
1234241	PROB	n/a	LTP269	ltpFR2	8	n/a	n/a	n/a	11	14	2	5	7
1235876	PROB	n/a	LTP269	ltpFR2	8	n/a	n/a	n/a	11	15	5	1	9
1238511	PROB	n/a	LTP269	ltpFR2	8	n/a	n/a	n/a	11	4	2	1	1
1240346	PROB	n/a	LTP269	ltpFR2	8	n/a	n/a	n/a	11	12	9	1	2
1241713	PROB	n/a	LTP269	ltpFR2	8	n/a	n/a	n/a	11	14	4	6	4
1243146	PROB	n/a	LTP269	ltpFR2	8	n/a	n/a	n/a	11	11	2	2	7
1244599	PROB	n/a	LTP269	ltpFR2	8	n/a	n/a	n/a	11	17	8	2	7
1247234	PROB	n/a	LTP269	ltpFR2	8	n/a	n/a	n/a	11	15	1	8	6
1250539	PROB	n/a	LTP269	ltpFR2	8	n/a	n/a	n/a	11	15	1	8	6
1251787	PROB	n/a	LTP269	ltpFR2	8	n/a	n/a	n/a	11	15	6	6	3
1253640	PROB	n/a	LTP269	ltpFR2	8	n/a	n/a	n/a	11	16	2	7	7
1255441	PROB	n/a	LTP269	ltpFR2	8	n/a	n/a	n/a	11	16	4	5	7
1258136	STOP	n/a	LTP269	ltpFR2	8	n/a	n/a	n/a	11	n/a	n/a	n/a	n/a
1259420	WORD	wordpools/wasnorm_wordpool_576.txt	LTP269	ltpFR2	8	7	HOSTESS	723	n/a	n/a	0	0	0
1262213	WORD	wordpools/wasnorm_wordpool_576.txt	LTP269	ltpFR2	8	7	OX	994	n/a	n/a	0	0	0
1264782	WORD	wordpools/wasnorm_wordpool_576.txt	LTP269	ltpFR2	8	7	HEDGE	699	n/a	n/a	0	0	0
1267292	WORD	wordpools/wasnorm_wordpool_576.txt	LTP269	ltpFR2	8	7	FOREHEAD	592	n/a	n/a	0	0	0
1269987	WORD	wordpools/wasnorm_wordpool_576.txt	LTP269	ltpFR2	8	7	LAVA	804	n/a	n/a	0	0	0
1272423	WORD	wordpools/wasnorm_wordpool_576.txt	LTP269	ltpFR2	8	7	GARBAGE	622	n/a	n/a	0	0	0
1275066	WORD	wordpools/wasnorm_wordpool_576.txt	LTP269	ltpFR2	8	7	CLOTHES	327	n/a	n/a	0	0	0
1277800	WORD	wordpools/wasnorm_wordpool_576.txt	LTP269	ltpFR2	8	7	OZONE	996	n/a	n/a	0	0	0
1280578	WORD	wordpools/wasnorm_wordpool_576.txt	LTP269	ltpFR2	8	7	BALLOON	75	n/a	n/a	0	0	0
1283021	WORD	wordpools/wasnorm_wordpool_576.txt	LTP269	ltpFR2	8	7	TURKEY	1520	n/a	n/a	0	0	0
1285699	WORD	wordpools/wasnorm_wordpool_576.txt	LTP269	ltpFR2	8	7	ACTOR	5	n/a	n/a	0	0	0
1288502	WORD	wordpools/wasnorm_wordpool_576.txt	LTP269	ltpFR2	8	7	CATTLE	261	n/a	n/a	0	0	0
1291280	WORD	wordpools/wasnorm_wordpool_576.txt	LTP269	ltpFR2	8	7	APPLE	33	n/a	n/a	0	0	0
1293981	WORD	wordpools/wasnorm_wordpool_576.txt	LTP269	ltpFR2	8	7	COSTUME	383	n/a	n/a	0	0	0
1296452	WORD	wordpools/wasnorm_wordpool_576.txt	LTP269	ltpFR2	8	7	BREAST	171	n/a	n/a	0	0	0
1299070	WORD	wordpools/wasnorm_wordpool_576.txt	LTP269	ltpFR2	8	7	FOREST	593	n/a	n/a	0	0	0
1301505	WORD	wordpools/wasnorm_wordpool_576.txt	LTP269	ltpFR2	8	7	SHRUB	1299	n/a	n/a	0	0	0
1304174	WORD	wordpools/wasnorm_wordpool_576.txt	LTP269	ltpFR2	8	7	CUSTARD	429	n/a	n/a	0	0	0
1306816	WORD	wordpools/wasnorm_wordpool_576.txt	LTP269	ltpFR2	8	7	SIBLING	1301	n/a	n/a	0	0	0
1309369	WORD	wordpools/wasnorm_wordpool_576.txt	LTP269	ltpFR2	8	7	TWIG	1527	n/a	n/a	0	0	0
1311981	WORD	wordpools/wasnorm_wordpool_576.txt	LTP269	ltpFR2	8	7	LOVER	846	n/a	n/a	0	0	0
1314540	WORD	wordpools/wasnorm_wordpool_576.txt	LTP269	ltpFR2	8	7	WIFE	1609	n/a	n/a	0	0	0
1317185	WORD	wordpools/wasnorm_wordpool_576.txt	LTP269	ltpFR2	8	7	LAGOON	795	n/a	n/a	0	0	0
1319605	WORD	wordpools/wasnorm_wordpool_576.txt	LTP269	ltpFR2	8	7	STATUE	1374	n/a	n/a	0	0	0
1321211	START	n/a	LTP269	ltpFR2	8	n/a	n/a	n/a	12	n/a	n/a	n/a	n/a
1322110	DISTRACTOR	n/a	LTP269	ltpFR2	8	7	n/a	n/a	n/a	n/a	0	0	0
1322122	PROB	n/a	LTP269	ltpFR2	8	n/a	n/a	n/a	12	13	4	7	2
1324847	PROB	n/a	LTP269	ltpFR2	8	n/a	n/a	n/a	12	20	3	9	8
1326550	PROB	n/a	LTP269	ltpFR2	8	n/a	n/a	n/a	12	14	3	6	5
1328250	PROB	n/a	LTP269	ltpFR2	8	n/a	n/a	n/a	12	13	2	8	3
1331852	PROB	n/a	LTP269	ltpFR2	8	n/a	n/a	n/a	12	15	6	5	4
1333556	PROB	n/a	LTP269	ltpFR2	8	n/a	n/a	n/a	12	6	2	1	3
1335188	PROB	n/a	LTP269	ltpFR2	8	n/a	n/a	n/a	12	6	2	3	1
1336222	PROB	n/a	LTP269	ltpFR2	8	n/a	n/a	n/a	12	18	1	9	8
1337573	PROB	n/a	LTP269	ltpFR2	8	n/a	n/a	n/a	12	17	7	2	8
1341511	PROB	n/a	LTP269	ltpFR2	8	n/a	n/a	n/a	12	11	4	3	4
1343924	STOP	n/a	LTP269	ltpFR2	8	n/a	n/a	n/a	12	n/a	n/a	n/a	n/a
1347151	REC_START	n/a	LTP269	ltpFR2	8	7	n/a	n/a	n/a	n/a	0	0	0
1347962	REC_WORD	wordpools/wasnorm_wordpool_576.txt	LTP269	ltpFR2	8	7	HOSTESS	723	n/a	n/a	0	0	0
1348645	REC_WORD	wordpools/wasnorm_wordpool_576.txt	LTP269	ltpFR2	8	7	OX	994	n/a	n/a	0	0	0
1349216	REC_WORD	wordpools/wasnorm_wordpool_576.txt	LTP269	ltpFR2	8	7	CATTLE	261	n/a	n/a	0	0	0
1350525	REC_WORD	wordpools/wasnorm_wordpool_576.txt	LTP269	ltpFR2	8	7	GARBAGE	622	n/a	n/a	0	0	0
1353117	REC_WORD	wordpools/wasnorm_wordpool_576.txt	LTP269	ltpFR2	8	7	CLOTHES	327	n/a	n/a	0	0	0
1355288	REC_WORD	wordpools/wasnorm_wordpool_576.txt	LTP269	ltpFR2	8	7	SIBLING	1301	n/a	n/a	0	0	0
1357261	REC_WORD	wordpools/wasnorm_wordpool_576.txt	LTP269	ltpFR2	8	7	LOVER	846	n/a	n/a	0	0	0
1358334	REC_WORD	wordpools/wasnorm_wordpool_576.txt	LTP269	ltpFR2	8	7	WIFE	1609	n/a	n/a	0	0	0
1359329	REC_WORD_VV	wordpools/wasnorm_wordpool_576.txt	LTP269	ltpFR2	8	7	<>	-1	n/a	n/a	0	0	0
1364373	REC_WORD	wordpools/wasnorm_wordpool_576.txt	LTP269	ltpFR2	8	7	CUSTARD	429	n/a	n/a	0	0	0
1365151	REC_WORD	wordpools/wasnorm_wordpool_576.txt	LTP269	ltpFR2	8	7	SHRUB	1299	n/a	n/a	0	0	0
1392894	REC_WORD_VV	wordpools/wasnorm_wordpool_576.txt	LTP269	ltpFR2	8	7	<>	-1	n/a	n/a	0	0	0
1402652	REC_WORD_VV	wordpools/wasnorm_wordpool_576.txt	LTP269	ltpFR2	8	7	<>	-1	n/a	n/a	0	0	0
1412686	REC_WORD_VV	wordpools/wasnorm_wordpool_576.txt	LTP269	ltpFR2	8	7	<>	-1	n/a	n/a	0	0	0
1437605	WORD	wordpools/wasnorm_wordpool_576.txt	LTP269	ltpFR2	8	8	CORAL	378	n/a	n/a	0	0	0
1440106	WORD	wordpools/wasnorm_wordpool_576.txt	LTP269	ltpFR2	8	8	ISLAND	745	n/a	n/a	0	0	0
1442675	WORD	wordpools/wasnorm_wordpool_576.txt	LTP269	ltpFR2	8	8	CABBAGE	210	n/a	n/a	0	0	0
1445294	WORD	wordpools/wasnorm_wordpool_576.txt	LTP269	ltpFR2	8	8	PAPER	1011	n/a	n/a	0	0	0
1447963	WORD	wordpools/wasnorm_wordpool_576.txt	LTP269	ltpFR2	8	8	PERCH	1048	n/a	n/a	0	0	0
1450748	WORD	wordpools/wasnorm_wordpool_576.txt	LTP269	ltpFR2	8	8	TRANSPLANT	1496	n/a	n/a	0	0	0
1453401	WORD	wordpools/wasnorm_wordpool_576.txt	LTP269	ltpFR2	8	8	CARROT	249	n/a	n/a	0	0	0
1456069	WORD	wordpools/wasnorm_wordpool_576.txt	LTP269	ltpFR2	8	8	PARROT	1015	n/a	n/a	0	0	0
1458721	WORD	wordpools/wasnorm_wordpool_576.txt	LTP269	ltpFR2	8	8	SPHINX	1349	n/a	n/a	0	0	0
1461391	WORD	wordpools/wasnorm_wordpool_576.txt	LTP269	ltpFR2	8	8	POWDER	1117	n/a	n/a	0	0	0
1464042	WORD	wordpools/wasnorm_wordpool_576.txt	LTP269	ltpFR2	8	8	EYELASH	546	n/a	n/a	0	0	0
1466778	WORD	wordpools/wasnorm_wordpool_576.txt	LTP269	ltpFR2	8	8	SURVEY	1414	n/a	n/a	0	0	0
1469364	WORD	wordpools/wasnorm_wordpool_576.txt	LTP269	ltpFR2	8	8	TURTLE	1522	n/a	n/a	0	0	0
1471986	WORD	wordpools/wasnorm_wordpool_576.txt	LTP269	ltpFR2	8	8	FLIPPER	580	n/a	n/a	0	0	0
1474701	WORD	wordpools/wasnorm_wordpool_576.txt	LTP269	ltpFR2	8	8	BLACKBOARD	133	n/a	n/a	0	0	0
1477309	WORD	wordpools/wasnorm_wordpool_576.txt	LTP269	ltpFR2	8	8	COUCH	386	n/a	n/a	0	0	0
1479838	WORD	wordpools/wasnorm_wordpool_576.txt	LTP269	ltpFR2	8	8	CIGAR	308	n/a	n/a	0	0	0
1482341	WORD	wordpools/wasnorm_wordpool_576.txt	LTP269	ltpFR2	8	8	CAMEL	223	n/a	n/a	0	0	0
1484842	WORD	wordpools/wasnorm_wordpool_576.txt	LTP269	ltpFR2	8	8	SIDEWALK	1303	n/a	n/a	0	0	0
1487501	WORD	wordpools/wasnorm_wordpool_576.txt	LTP269	ltpFR2	8	8	PRINCESS	1125	n/a	n/a	0	0	0
1490147	WORD	wordpools/wasnorm_wordpool_576.txt	LTP269	ltpFR2	8	8	POSTAGE	1113	n/a	n/a	0	0	0
1492871	WORD	wordpools/wasnorm_wordpool_576.txt	LTP269	ltpFR2	8	8	MESSAGE	888	n/a	n/a	0	0	0
1495491	WORD	wordpools/wasnorm_wordpool_576.txt	LTP269	ltpFR2	8	8	HEART	697	n/a	n/a	0	0	0
1498270	WORD	wordpools/wasnorm_wordpool_576.txt	LTP269	ltpFR2	8	8	VAGRANT	1544	n/a	n/a	0	0	0
1499879	START	n/a	LTP269	ltpFR2	8	n/a	n/a	n/a	13	n/a	n/a	n/a	n/a
1500816	DISTRACTOR	n/a	LTP269	ltpFR2	8	8	n/a	n/a	n/a	n/a	0	0	0
1500822	PROB	n/a	LTP269	ltpFR2	8	n/a	n/a	n/a	13	12	3	4	5
1502524	PROB	n/a	LTP269	ltpFR2	8	n/a	n/a	n/a	13	17	6	9	2
1505525	PROB	n/a	LTP269	ltpFR2	8	n/a	n/a	n/a	13	15	4	9	3
1507011	PROB	n/a	LTP269	ltpFR2	8	n/a	n/a	n/a	13	20	8	8	4
1510280	PROB	n/a	LTP269	ltpFR2	8	n/a	n/a	n/a	13	22	9	4	9
1512714	PROB	n/a	LTP269	ltpFR2	8	n/a	n/a	n/a	13	14	5	4	5
1515252	PROB	n/a	LTP269	ltpFR2	8	n/a	n/a	n/a	13	27	9	9	9
1517034	PROB	n/a	LTP269	ltpFR2	8	n/a	n/a	n/a	13	15	5	7	3
1518587	PROB	n/a	LTP269	ltpFR2	8	n/a	n/a	n/a	13	23	6	8	9
1520454	PROB	n/a	LTP269	ltpFR2	8	n/a	n/a	n/a	13	11	1	8	2
1523879	STOP	n/a	LTP269	ltpFR2	8	n/a	n/a	n/a	13	n/a	n/a	n/a	n/a
1525677	REC_START	n/a	LTP269	ltpFR2	8	8	n/a	n/a	n/a	n/a	0	0	0
1528953	REC_WORD	wordpools/wasnorm_wordpool_576.txt	LTP269	ltpFR2	8	8	CORAL	378	n/a	n/a	0	0	0
1529421	REC_WORD	wordpools/wasnorm_wordpool_576.txt	LTP269	ltpFR2	8	8	ISLAND	745	n/a	n/a	0	0	0
1529913	REC_WORD	wordpools/wasnorm_wordpool_576.txt	LTP269	ltpFR2	8	8	PERCH	1048	n/a	n/a	0	0	0
1530774	REC_WORD	wordpools/wasnorm_wordpool_576.txt	LTP269	ltpFR2	8	8	TURTLE	1522	n/a	n/a	0	0	0
1532509	REC_WORD	wordpools/wasnorm_wordpool_576.txt	LTP269	ltpFR2	8	8	CABBAGE	210	n/a	n/a	0	0	0
1534498	REC_WORD	wordpools/wasnorm_wordpool_576.txt	LTP269	ltpFR2	8	8	PAPER	1011	n/a	n/a	0	0	0
1538492	REC_WORD_VV	wordpools/wasnorm_wordpool_576.txt	LTP269	ltpFR2	8	8	<>	-1	n/a	n/a	0	0	0
1539993	REC_WORD	wordpools/wasnorm_wordpool_576.txt	LTP269	ltpFR2	8	8	SIDEWALK	1303	n/a	n/a	0	0	0
1540927	REC_WORD	wordpools/wasnorm_wordpool_576.txt	LTP269	ltpFR2	8	8	CAMEL	223	n/a	n/a	0	0	0
1541729	REC_WORD	wordpools/wasnorm_wordpool_576.txt	LTP269	ltpFR2	8	8	PRINCESS	1125	n/a	n/a	0	0	0
1542359	REC_WORD	wordpools/wasnorm_wordpool_576.txt	LTP269	ltpFR2	8	8	POSTAGE	1113	n/a	n/a	0	0	0
1550091	REC_WORD	wordpools/wasnorm_wordpool_576.txt	LTP269	ltpFR2	8	8	SURVEY	1414	n/a	n/a	0	0	0
1550664	REC_WORD	wordpools/wasnorm_wordpool_576.txt	LTP269	ltpFR2	8	8	EYELASH	546	n/a	n/a	0	0	0
1552849	REC_WORD	wordpools/wasnorm_wordpool_576.txt	LTP269	ltpFR2	8	8	SPHINX	1349	n/a	n/a	0	0	0
1554432	REC_WORD	wordpools/wasnorm_wordpool_576.txt	LTP269	ltpFR2	8	8	POWDER	1117	n/a	n/a	0	0	0
1562106	REC_WORD	wordpools/wasnorm_wordpool_576.txt	LTP269	ltpFR2	8	8	CARROT	249	n/a	n/a	0	0	0
1562783	REC_WORD	wordpools/wasnorm_wordpool_576.txt	LTP269	ltpFR2	8	8	PARROT	1015	n/a	n/a	0	0	0
1575109	REC_WORD_VV	wordpools/wasnorm_wordpool_576.txt	LTP269	ltpFR2	8	8	<>	-1	n/a	n/a	0	0	0
1593596	REC_WORD_VV	wordpools/wasnorm_wordpool_576.txt	LTP269	ltpFR2	8	8	<>	-1	n/a	n/a	0	0	0
1602217	REST_REWET	n/a	LTP269	ltpFR2	8	8	n/a	n/a	n/a	n/a	0	0	0
1853973	WORD	wordpools/wasnorm_wordpool_576.txt	LTP269	ltpFR2	8	9	SHERIFF	1284	n/a	n/a	0	0	0
1856409	WORD	wordpools/wasnorm_wordpool_576.txt	LTP269	ltpFR2	8	9	PUPPY	1144	n/a	n/a	0	0	0
1859008	WORD	wordpools/wasnorm_wordpool_576.txt	LTP269	ltpFR2	8	9	GHETTO	633	n/a	n/a	0	0	0
1861444	WORD	wordpools/wasnorm_wordpool_576.txt	LTP269	ltpFR2	8	9	HORNET	718	n/a	n/a	0	0	0
1864045	WORD	wordpools/wasnorm_wordpool_576.txt	LTP269	ltpFR2	8	9	CHEMIST	292	n/a	n/a	0	0	0
1866599	WORD	wordpools/wasnorm_wordpool_576.txt	LTP269	ltpFR2	8	9	MONSTER	912	n/a	n/a	0	0	0
1869251	WORD	wordpools/wasnorm_wordpool_576.txt	LTP269	ltpFR2	8	9	DUST	508	n/a	n/a	0	0	0
1871886	WORD	wordpools/wasnorm_wordpool_576.txt	LTP269	ltpFR2	8	9	HONEY	713	n/a	n/a	0	0	0
1874689	WORD	wordpools/wasnorm_wordpool_576.txt	LTP269	ltpFR2	8	9	BRACES	164	n/a	n/a	0	0	0
1877325	WORD	wordpools/wasnorm_wordpool_576.txt	LTP269	ltpFR2	8	9	HUMAN	726	n/a	n/a	0	0	0
1879842	WORD	wordpools/wasnorm_wordpool_576.txt	LTP269	ltpFR2	8	9	MUFFIN	929	n/a	n/a	0	0	0
1882630	WORD	wordpools/wasnorm_wordpool_576.txt	LTP269	ltpFR2	8	9	GARLIC	624	n/a	n/a	0	0	0
1885230	WORD	wordpools/wasnorm_wordpool_576.txt	LTP269	ltpFR2	8	9	TAXI	1438	n/a	n/a	0	0	0
1887732	WORD	wordpools/wasnorm_wordpool_576.txt	LTP269	ltpFR2	8	9	TRACTOR	1493	n/a	n/a	0	0	0
1890419	WORD	wordpools/wasnorm_wordpool_576.txt	LTP269	ltpFR2	8	9	TURNIP	1521	n/a	n/a	0	0	0
1893004	WORD	wordpools/wasnorm_wordpool_576.txt	LTP269	ltpFR2	8	9	SAUSAGE	1238	n/a	n/a	0	0	0
1895457	WORD	wordpools/wasnorm_wordpool_576.txt	LTP269	ltpFR2	8	9	BASEMENT	94	n/a	n/a	0	0	0
1898091	WORD	wordpools/wasnorm_wordpool_576.txt	LTP269	ltpFR2	8	9	COURSE	390	n/a	n/a	0	0	0
1900709	WORD	wordpools/wasnorm_wordpool_576.txt	LTP269	ltpFR2	8	9	GAVEL	627	n/a	n/a	0	0	0
1903379	WORD	wordpools/wasnorm_wordpool_576.txt	LTP269	ltpFR2	8	9	PORK	1108	n/a	n/a	0	0	0
1905849	WORD	wordpools/wasnorm_wordpool_576.txt	LTP269	ltpFR2	8	9	APRON	35	n/a	n/a	0	0	0
1908350	WORD	wordpools/wasnorm_wordpool_576.txt	LTP269	ltpFR2	8	9	VICTIM	1562	n/a	n/a	0	0	0
1910952	WORD	wordpools/wasnorm_wordpool_576.txt	LTP269	ltpFR2	8	9	LAPEL	800	n/a	n/a	0	0	0
1913571	WORD	wordpools/wasnorm_wordpool_576.txt	LTP269	ltpFR2	8	9	BLOUSE	139	n/a	n/a	0	0	0
1915188	START	n/a	LTP269	ltpFR2	8	n/a	n/a	n/a	14	n/a	n/a	n/a	n/a
1915995	DISTRACTOR	n/a	LTP269	ltpFR2	8	9	n/a	n/a	n/a	n/a	0	0	0
1916006	PROB	n/a	LTP269	ltpFR2	8	n/a	n/a	n/a	14	13	9	2	2
1918958	PROB	n/a	LTP269	ltpFR2	8	n/a	n/a	n/a	14	9	4	3	2
1920675	PROB	n/a	LTP269	ltpFR2	8	n/a	n/a	n/a	14	18	5	8	5
1922562	PROB	n/a	LTP269	ltpFR2	8	n/a	n/a	n/a	14	13	3	5	5
1924228	PROB	n/a	LTP269	ltpFR2	8	n/a	n/a	n/a	14	12	1	4	7
1926380	PROB	n/a	LTP269	ltpFR2	8	n/a	n/a	n/a	14	22	9	5	8
1929765	PROB	n/a	LTP269	ltpFR2	8	n/a	n/a	n/a	14	18	4	9	5
1931868	PROB	n/a	LTP269	ltpFR2	8	n/a	n/a	n/a	14	7	1	4	2
1933320	PROB	n/a	LTP269	ltpFR2	8	n/a	n/a	n/a	14	21	5	9	7
1936523	PROB	n/a	LTP269	ltpFR2	8	n/a	n/a	n/a	14	20	7	8	5
1939028	STOP	n/a	LTP269	ltpFR2	8	n/a	n/a	n/a	14	n/a	n/a	n/a	n/a
1940991	REC_START	n/a	LTP269	ltpFR2	8	9	n/a	n/a	n/a	n/a	0	0	0
1944957	REC_WORD	wordpools/wasnorm_wordpool_576.txt	LTP269	ltpFR2	8	9	SHERIFF	1284	n/a	n/a	0	0	0
1945437	REC_WORD	wordpools/wasnorm_wordpool_576.txt	LTP269	ltpFR2	8	9	PUPPY	1144	n/a	n/a	0	0	0
1947249	REC_WORD	wordpools/wasnorm_wordpool_576.txt	LTP269	ltpFR2	8	9	CHEMIST	292	n/a	n/a	0	0	0
1947813	REC_WORD	wordpools/wasnorm_wordpool_576.txt	LTP269	ltpFR2	8	9	HORNET	718	n/a	n/a	0	0	0
1949002	REC_WORD	wordpools/wasnorm_wordpool_576.txt	LTP269	ltpFR2	8	9	MONSTER	912	n/a	n/a	0	0	0
1952223	REC_WORD	wordpools/wasnorm_wordpool_576.txt	LTP269	ltpFR2	8	9	DUST	508	n/a	n/a	0	0	0
1952496	REC_WORD	wordpools/wasnorm_wordpool_576.txt	LTP269	ltpFR2	8	9	HONEY	713	n/a	n/a	0	0	0
1956917	REC_WORD	wordpools/wasnorm_wordpool_576.txt	LTP269	ltpFR2	8	9	MUFFIN	929	n/a	n/a	0	0	0
1957631	REC_WORD	wordpools/wasnorm_wordpool_576.txt	LTP269	ltpFR2	8	9	HUMAN	726	n/a	n/a	0	0	0
1960138	REC_WORD	wordpools/wasnorm_wordpool_576.txt	LTP269	ltpFR2	8	9	LAPEL	800	n/a	n/a	0	0	0
1964056	REC_WORD	wordpools/wasnorm_wordpool_576.txt	LTP269	ltpFR2	8	9	VICTIM	1562	n/a	n/a	0	0	0
1997739	REC_WORD_VV	wordpools/wasnorm_wordpool_576.txt	LTP269	ltpFR2	8	9	<>	-1	n/a	n/a	0	0	0
2031432	WORD	wordpools/wasnorm_wordpool_576.txt	LTP269	ltpFR2	8	10	MACHINE	852	n/a	n/a	0	0	0
2034094	WORD	wordpools/wasnorm_wordpool_576.txt	LTP269	ltpFR2	8	10	EAGLE	512	n/a	n/a	0	0	0
2036719	WORD	wordpools/wasnorm_wordpool_576.txt	LTP269	ltpFR2	8	10	HAWK	692	n/a	n/a	0	0	0
2039489	WORD	wordpools/wasnorm_wordpool_576.txt	LTP269	ltpFR2	8	10	STAMP	1370	n/a	n/a	0	0	0
2041967	WORD	wordpools/wasnorm_wordpool_576.txt	LTP269	ltpFR2	8	10	POSSUM	1112	n/a	n/a	0	0	0
2044538	WORD	wordpools/wasnorm_wordpool_576.txt	LTP269	ltpFR2	8	10	BARLEY	88	n/a	n/a	0	0	0
2047290	WORD	wordpools/wasnorm_wordpool_576.txt	LTP269	ltpFR2	8	10	RAFT	1159	n/a	n/a	0	0	0
2049858	WORD	wordpools/wasnorm_wordpool_576.txt	LTP269	ltpFR2	8	10	PUDDLE	1140	n/a	n/a	0	0	0
2052344	WORD	wordpools/wasnorm_wordpool_576.txt	LTP269	ltpFR2	8	10	HUSBAND	728	n/a	n/a	0	0	0
2055012	WORD	wordpools/wasnorm_wordpool_576.txt	LTP269	ltpFR2	8	10	BOYFRIEND	162	n/a	n/a	0	0	0
2057637	WORD	wordpools/wasnorm_wordpool_576.txt	LTP269	ltpFR2	8	10	ORANGE	980	n/a	n/a	0	0	0
2060167	WORD	wordpools/wasnorm_wordpool_576.txt	LTP269	ltpFR2	8	10	DAUGHTER	442	n/a	n/a	0	0	0
2062587	WORD	wordpools/wasnorm_wordpool_576.txt	LTP269	ltpFR2	8	10	SADDLE	1221	n/a	n/a	0	0	0
2065138	WORD	wordpools/wasnorm_wordpool_576.txt	LTP269	ltpFR2	8	10	XEROX	1628	n/a	n/a	0	0	0
2067628	WORD	wordpools/wasnorm_wordpool_576.txt	LTP269	ltpFR2	8	10	RIFLE	1192	n/a	n/a	0	0	0
2070079	WORD	wordpools/wasnorm_wordpool_576.txt	LTP269	ltpFR2	8	10	MATCH	878	n/a	n/a	0	0	0
2072894	WORD	wordpools/wasnorm_wordpool_576.txt	LTP269	ltpFR2	8	10	MARKET	871	n/a	n/a	0	0	0
2075347	WORD	wordpools/wasnorm_wordpool_576.txt	LTP269	ltpFR2	8	10	BUTCHER	203	n/a	n/a	0	0	0
2078066	WORD	wordpools/wasnorm_wordpool_576.txt	LTP269	ltpFR2	8	10	MAILBOX	857	n/a	n/a	0	0	0
2080869	WORD	wordpools/wasnorm_wordpool_576.txt	LTP269	ltpFR2	8	10	SNACK	1331	n/a	n/a	0	0	0
2083604	WORD	wordpools/wasnorm_wordpool_576.txt	LTP269	ltpFR2	8	10	MILK	895	n/a	n/a	0	0	0
2086089	WORD	wordpools/wasnorm_wordpool_576.txt	LTP269	ltpFR2	8	10	COIN	343	n/a	n/a	0	0	0
2088593	WORD	wordpools/wasnorm_wordpool_576.txt	LTP269	ltpFR2	8	10	VENUS	1557	n/a	n/a	0	0	0
2091362	WORD	wordpools/wasnorm_wordpool_576.txt	LTP269	ltpFR2	8	10	NURSE	963	n/a	n/a	0	0	0
2092980	START	n/a	LTP269	ltpFR2	8	n/a	n/a	n/a	15	n/a	n/a	n/a	n/a
2094038	DISTRACTOR	n/a	LTP269	ltpFR2	8	10	n/a	n/a	n/a	n/a	0	0	0
2094046	PROB	n/a	LTP269	ltpFR2	8	n/a	n/a	n/a	15	20	7	9	4
2096798	PROB	n/a	LTP269	ltpFR2	8	n/a	n/a	n/a	15	19	2	8	9
2098367	PROB	n/a	LTP269	ltpFR2	8	n/a	n/a	n/a	15	12	8	3	1
2099884	PROB	n/a	LTP269	ltpFR2	8	n/a	n/a	n/a	15	26	9	8	9
2102307	PROB	n/a	LTP269	ltpFR2	8	n/a	n/a	n/a	15	14	6	3	5
2104525	PROB	n/a	LTP269	ltpFR2	8	n/a	n/a	n/a	15	18	3	6	9
2106174	PROB	n/a	LTP269	ltpFR2	8	n/a	n/a	n/a	15	11	2	5	4
2107644	PROB	n/a	LTP269	ltpFR2	8	n/a	n/a	n/a	15	11	3	3	5
2109279	PROB	n/a	LTP269	ltpFR2	8	n/a	n/a	n/a	15	23	9	8	6
2110912	PROB	n/a	LTP269	ltpFR2	8	n/a	n/a	n/a	15	16	7	5	4
2112497	PROB	n/a	LTP269	ltpFR2	8	n/a	n/a	n/a	15	22	8	9	5
2116980	STOP	n/a	LTP269	ltpFR2	8	n/a	n/a	n/a	15	n/a	n/a	n/a	n/a
2118836	REC_START	n/a	LTP269	ltpFR2	8	10	n/a	n/a	n/a	n/a	0	0	0
2120752	REC_WORD	wordpools/wasnorm_wordpool_576.txt	LTP269	ltpFR2	8	10	EAGLE	512	n/a	n/a	0	0	0
2121103	REC_WORD	wordpools/wasnorm_wordpool_576.txt	LTP269	ltpFR2	8	10	HAWK	692	n/a	n/a	0	0	0
2121543	REC_WORD	wordpools/wasnorm_wordpool_576.txt	LTP269	ltpFR2	8	10	MACHINE	852	n/a	n/a	0	0	0
2125466	REC_WORD	wordpools/wasnorm_wordpool_576.txt	LTP269	ltpFR2	8	10	BUTCHER	203	n/a	n/a	0	0	0
2125936	REC_WORD	wordpools/wasnorm_wordpool_576.txt	LTP269	ltpFR2	8	10	MARKET	871	n/a	n/a	0	0	0
2138896	REC_WORD_VV	wordpools/wasnorm_wordpool_576.txt	LTP269	ltpFR2	8	10	<>	-1	n/a	n/a	0	0	0
2150346	REC_WORD_VV	wordpools/wasnorm_wordpool_576.txt	LTP269	ltpFR2	8	10	<>	-1	n/a	n/a	0	0	0
2166365	REC_WORD_VV	wordpools/wasnorm_wordpool_576.txt	LTP269	ltpFR2	8	10	<>	-1	n/a	n/a	0	0	0
2209259	DISTRACTOR	n/a	LTP269	ltpFR2	8	11	n/a	n/a	n/a	n/a	0	0	0
2209259	START	n/a	LTP269	ltpFR2	8	n/a	n/a	n/a	16	n/a	n/a	n/a	n/a
2209275	PROB	n/a	LTP269	ltpFR2	8	n/a	n/a	n/a	16	12	5	5	2
2211742	PROB	n/a	LTP269	ltpFR2	8	n/a	n/a	n/a	16	18	5	7	6
2216163	PROB	n/a	LTP269	ltpFR2	8	n/a	n/a	n/a	16	11	5	2	4
2217665	PROB	n/a	LTP269	ltpFR2	8	n/a	n/a	n/a	16	11	5	1	5
2218915	PROB	n/a	LTP269	ltpFR2	8	n/a	n/a	n/a	16	13	8	2	3
2220834	PROB	n/a	LTP269	ltpFR2	8	n/a	n/a	n/a	16	22	8	7	7
2223118	PROB	n/a	LTP269	ltpFR2	8	n/a	n/a	n/a	16	13	7	3	3
2224586	PROB	n/a	LTP269	ltpFR2	8	n/a	n/a	n/a	16	17	1	7	9
2226186	PROB	n/a	LTP269	ltpFR2	8	n/a	n/a	n/a	16	13	8	1	4
2228256	PROB	n/a	LTP269	ltpFR2	8	n/a	n/a	n/a	16	15	5	6	4
2229807	PROB	n/a	LTP269	ltpFR2	8	n/a	n/a	n/a	16	20	9	6	5
2231476	PROB	n/a	LTP269	ltpFR2	8	n/a	n/a	n/a	16	15	5	4	6
2232993	STOP	n/a	LTP269	ltpFR2	8	n/a	n/a	n/a	16	n/a	n/a	n/a	n/a
2234270	WORD	wordpools/wasnorm_wordpool_576.txt	LTP269	ltpFR2	8	11	MILDEW	893	n/a	n/a	0	0	0
2236864	WORD	wordpools/wasnorm_wordpool_576.txt	LTP269	ltpFR2	8	11	BRANDY	169	n/a	n/a	0	0	0
2239674	WORD	wordpools/wasnorm_wordpool_576.txt	LTP269	ltpFR2	8	11	LUMBER	848	n/a	n/a	0	0	0
2242101	WORD	wordpools/wasnorm_wordpool_576.txt	LTP269	ltpFR2	8	11	FRANCE	601	n/a	n/a	0	0	0
2244862	WORD	wordpools/wasnorm_wordpool_576.txt	LTP269	ltpFR2	8	11	PUPIL	1143	n/a	n/a	0	0	0
2247681	WORD	wordpools/wasnorm_wordpool_576.txt	LTP269	ltpFR2	8	11	PARSLEY	1016	n/a	n/a	0	0	0
2250275	WORD	wordpools/wasnorm_wordpool_576.txt	LTP269	ltpFR2	8	11	BLADE	134	n/a	n/a	0	0	0
2252986	WORD	wordpools/wasnorm_wordpool_576.txt	LTP269	ltpFR2	8	11	BRANCH	168	n/a	n/a	0	0	0
2255480	WORD	wordpools/wasnorm_wordpool_576.txt	LTP269	ltpFR2	8	11	HORSE	719	n/a	n/a	0	0	0
2258224	WORD	wordpools/wasnorm_wordpool_576.txt	LTP269	ltpFR2	8	11	DANDRUFF	439	n/a	n/a	0	0	0
2260849	WORD	wordpools/wasnorm_wordpool_576.txt	LTP269	ltpFR2	8	11	CHEST	295	n/a	n/a	0	0	0
2263395	WORD	wordpools/wasnorm_wordpool_576.txt	LTP269	ltpFR2	8	11	ASIA	46	n/a	n/a	0	0	0
2266096	WORD	wordpools/wasnorm_wordpool_576.txt	LTP269	ltpFR2	8	11	PECAN	1036	n/a	n/a	0	0	0
2268850	WORD	wordpools/wasnorm_wordpool_576.txt	LTP269	ltpFR2	8	11	BURGLAR	200	n/a	n/a	0	0	0
2271519	WORD	wordpools/wasnorm_wordpool_576.txt	LTP269	ltpFR2	8	11	CONVICT	371	n/a	n/a	0	0	0
2274186	WORD	wordpools/wasnorm_wordpool_576.txt	LTP269	ltpFR2	8	11	JUDGE	761	n/a	n/a	0	0	0
2276811	WORD	wordpools/wasnorm_wordpool_576.txt	LTP269	ltpFR2	8	11	LEADER	807	n/a	n/a	0	0	0
2279575	WORD	wordpools/wasnorm_wordpool_576.txt	LTP269	ltpFR2	8	11	SNAKE	1333	n/a	n/a	0	0	0
2282110	WORD	wordpools/wasnorm_wordpool_576.txt	LTP269	ltpFR2	8	11	CONCERT	360	n/a	n/a	0	0	0
2284851	WORD	wordpools/wasnorm_wordpool_576.txt	LTP269	ltpFR2	8	11	BANJO	82	n/a	n/a	0	0	0
2287621	WORD	wordpools/wasnorm_wordpool_576.txt	LTP269	ltpFR2	8	11	STALLION	1369	n/a	n/a	0	0	0
2290201	WORD	wordpools/wasnorm_wordpool_576.txt	LTP269	ltpFR2	8	11	EXPERT	543	n/a	n/a	0	0	0
2292753	WORD	wordpools/wasnorm_wordpool_576.txt	LTP269	ltpFR2	8	11	ROD	1203	n/a	n/a	0	0	0
2295456	WORD	wordpools/wasnorm_wordpool_576.txt	LTP269	ltpFR2	8	11	COUNTY	389	n/a	n/a	0	0	0
2297062	START	n/a	LTP269	ltpFR2	8	n/a	n/a	n/a	17	n/a	n/a	n/a	n/a
2298054	DISTRACTOR	n/a	LTP269	ltpFR2	8	11	n/a	n/a	n/a	n/a	0	0	0
2298063	PROB	n/a	LTP269	ltpFR2	8	n/a	n/a	n/a	17	19	4	9	6
2299697	PROB	n/a	LTP269	ltpFR2	8	n/a	n/a	n/a	17	8	4	3	1
2302015	PROB	n/a	LTP269	ltpFR2	8	n/a	n/a	n/a	17	18	9	8	1
2303951	PROB	n/a	LTP269	ltpFR2	8	n/a	n/a	n/a	17	10	1	6	3
2305619	PROB	n/a	LTP269	ltpFR2	8	n/a	n/a	n/a	17	14	6	7	1
2307137	PROB	n/a	LTP269	ltpFR2	8	n/a	n/a	n/a	17	16	2	6	8
2309883	PROB	n/a	LTP269	ltpFR2	8	n/a	n/a	n/a	17	13	1	4	8
2311856	PROB	n/a	LTP269	ltpFR2	8	n/a	n/a	n/a	17	13	5	5	3
2313157	PROB	n/a	LTP269	ltpFR2	8	n/a	n/a	n/a	17	19	9	9	1
2314939	PROB	n/a	LTP269	ltpFR2	8	n/a	n/a	n/a	17	16	8	1	7
2316423	PROB	n/a	LTP269	ltpFR2	8	n/a	n/a	n/a	17	14	1	4	9
2318458	PROB	n/a	LTP269	ltpFR2	8	n/a	n/a	n/a	17	20	6	9	5
2320868	STOP	n/a	LTP269	ltpFR2	8	n/a	n/a	n/a	17	n/a	n/a	n/a	n/a
2323013	REC_START	n/a	LTP269	ltpFR2	8	11	n/a	n/a	n/a	n/a	0	0	0
2325380	REC_WORD	wordpools/wasnorm_wordpool_576.txt	LTP269	ltpFR2	8	11	MILDEW	893	n/a	n/a	0	0	0
2326003	REC_WORD	wordpools/wasnorm_wordpool_576.txt	LTP269	ltpFR2	8	11	BRANDY	169	n/a	n/a	0	0	0
2327076	REC_WORD	wordpools/wasnorm_wordpool_576.txt	LTP269	ltpFR2	8	11	LUMBER	848	n/a	n/a	0	0	0
2327483	REC_WORD	wordpools/wasnorm_wordpool_576.txt	LTP269	ltpFR2	8	11	FRANCE	601	n/a	n/a	0	0	0
2332228	REC_WORD_VV	wordpools/wasnorm_wordpool_576.txt	LTP269	ltpFR2	8	11	<>	-1	n/a	n/a	0	0	0
2333126	REC_WORD	wordpools/wasnorm_wordpool_576.txt	LTP269	ltpFR2	8	11	PARSLEY	1016	n/a	n/a	0	0	0
2335064	REC_WORD	wordpools/wasnorm_wordpool_576.txt	LTP269	ltpFR2	8	11	BLADE	134	n/a	n/a	0	0	0
2335890	REC_WORD_VV	wordpools/wasnorm_wordpool_576.txt	LTP269	ltpFR2	8	11	<>	-1	n/a	n/a	0	0	0
2338528	REC_WORD	wordpools/wasnorm_wordpool_576.txt	LTP269	ltpFR2	8	11	BURGLAR	200	n/a	n/a	0	0	0
2339329	REC_WORD	wordpools/wasnorm_wordpool_576.txt	LTP269	ltpFR2	8	11	LEADER	807	n/a	n/a	0	0	0
2340338	REC_WORD	wordpools/wasnorm_wordpool_576.txt	LTP269	ltpFR2	8	11	JUDGE	761	n/a	n/a	0	0	0
2343413	REC_WORD	wordpools/wasnorm_wordpool_576.txt	LTP269	ltpFR2	8	11	SNAKE	1333	n/a	n/a	0	0	0
2381592	REC_WORD_VV	wordpools/wasnorm_wordpool_576.txt	LTP269	ltpFR2	8	11	<>	-1	n/a	n/a	0	0	0
2413456	WORD	wordpools/wasnorm_wordpool_576.txt	LTP269	ltpFR2	8	12	PASTRY	1022	n/a	n/a	0	0	0
2415873	WORD	wordpools/wasnorm_wordpool_576.txt	LTP269	ltpFR2	8	12	UNCLE	1536	n/a	n/a	0	0	0
2418544	WORD	wordpools/wasnorm_wordpool_576.txt	LTP269	ltpFR2	8	12	EGYPT	519	n/a	n/a	0	0	0
2420978	WORD	wordpools/wasnorm_wordpool_576.txt	LTP269	ltpFR2	8	12	TERMITE	1451	n/a	n/a	0	0	0
2423402	WORD	wordpools/wasnorm_wordpool_576.txt	LTP269	ltpFR2	8	12	CRICKET	408	n/a	n/a	0	0	0
2426215	WORD	wordpools/wasnorm_wordpool_576.txt	LTP269	ltpFR2	8	12	PANTHER	1009	n/a	n/a	0	0	0
2428788	WORD	wordpools/wasnorm_wordpool_576.txt	LTP269	ltpFR2	8	12	LION	827	n/a	n/a	0	0	0
2431421	WORD	wordpools/wasnorm_wordpool_576.txt	LTP269	ltpFR2	8	12	OFFICE	972	n/a	n/a	0	0	0
2434222	WORD	wordpools/wasnorm_wordpool_576.txt	LTP269	ltpFR2	8	12	PEPPER	1047	n/a	n/a	0	0	0
2436791	WORD	wordpools/wasnorm_wordpool_576.txt	LTP269	ltpFR2	8	12	CAPTIVE	240	n/a	n/a	0	0	0
2439478	WORD	wordpools/wasnorm_wordpool_576.txt	LTP269	ltpFR2	8	12	LUNCH	849	n/a	n/a	0	0	0
2442244	WORD	wordpools/wasnorm_wordpool_576.txt	LTP269	ltpFR2	8	12	HIKER	708	n/a	n/a	0	0	0
2445013	WORD	wordpools/wasnorm_wordpool_576.txt	LTP269	ltpFR2	8	12	LIGHTNING	820	n/a	n/a	0	0	0
2447732	WORD	wordpools/wasnorm_wordpool_576.txt	LTP269	ltpFR2	8	12	TYPIST	1532	n/a	n/a	0	0	0
2450235	WORD	wordpools/wasnorm_wordpool_576.txt	LTP269	ltpFR2	8	12	STUDENT	1395	n/a	n/a	0	0	0
2452936	WORD	wordpools/wasnorm_wordpool_576.txt	LTP269	ltpFR2	8	12	SUSPECT	1415	n/a	n/a	0	0	0
2455657	WORD	wordpools/wasnorm_wordpool_576.txt	LTP269	ltpFR2	8	12	IDOL	733	n/a	n/a	0	0	0
2458276	WORD	wordpools/wasnorm_wordpool_576.txt	LTP269	ltpFR2	8	12	ROOSTER	1209	n/a	n/a	0	0	0
2460760	WORD	wordpools/wasnorm_wordpool_576.txt	LTP269	ltpFR2	8	12	SHOULDER	1294	n/a	n/a	0	0	0
2463397	WORD	wordpools/wasnorm_wordpool_576.txt	LTP269	ltpFR2	8	12	LEOPARD	812	n/a	n/a	0	0	0
2465947	WORD	wordpools/wasnorm_wordpool_576.txt	LTP269	ltpFR2	8	12	MUMMY	932	n/a	n/a	0	0	0
2468574	WORD	wordpools/wasnorm_wordpool_576.txt	LTP269	ltpFR2	8	12	PARENT	1013	n/a	n/a	0	0	0
2471052	WORD	wordpools/wasnorm_wordpool_576.txt	LTP269	ltpFR2	8	12	GIRL	637	n/a	n/a	0	0	0
2473827	WORD	wordpools/wasnorm_wordpool_576.txt	LTP269	ltpFR2	8	12	ROBIN	1199	n/a	n/a	0	0	0
2475440	START	n/a	LTP269	ltpFR2	8	n/a	n/a	n/a	18	n/a	n/a	n/a	n/a
2476245	DISTRACTOR	n/a	LTP269	ltpFR2	8	12	n/a	n/a	n/a	n/a	0	0	0
2476257	PROB	n/a	LTP269	ltpFR2	8	n/a	n/a	n/a	18	16	8	7	1
2477789	PROB	n/a	LTP269	ltpFR2	8	n/a	n/a	n/a	18	13	7	1	5
2479474	PROB	n/a	LTP269	ltpFR2	8	n/a	n/a	n/a	18	18	4	7	7
2481776	PROB	n/a	LTP269	ltpFR2	8	n/a	n/a	n/a	18	12	2	3	7
2483528	PROB	n/a	LTP269	ltpFR2	8	n/a	n/a	n/a	18	15	9	1	5
2485247	PROB	n/a	LTP269	ltpFR2	8	n/a	n/a	n/a	18	13	3	1	9
2488716	PROB	n/a	LTP269	ltpFR2	8	n/a	n/a	n/a	18	9	4	2	3
2491817	PROB	n/a	LTP269	ltpFR2	8	n/a	n/a	n/a	18	16	4	4	8
2493486	PROB	n/a	LTP269	ltpFR2	8	n/a	n/a	n/a	18	20	7	9	4
2496871	PROB	n/a	LTP269	ltpFR2	8	n/a	n/a	n/a	18	21	8	4	9
2499003	STOP	n/a	LTP269	ltpFR2	8	n/a	n/a	n/a	18	n/a	n/a	n/a	n/a
2501193	REC_START	n/a	LTP269	ltpFR2	8	12	n/a	n/a	n/a	n/a	0	0	0
2504363	REC_WORD	wordpools/wasnorm_wordpool_576.txt	LTP269	ltpFR2	8	12	PASTRY	1022	n/a	n/a	0	0	0
2504765	REC_WORD	wordpools/wasnorm_wordpool_576.txt	LTP269	ltpFR2	8	12	UNCLE	1536	n/a	n/a	0	0	0
2506889	REC_WORD	wordpools/wasnorm_wordpool_576.txt	LTP269	ltpFR2	8	12	TERMITE	1451	n/a	n/a	0	0	0
2511387	REC_WORD	wordpools/wasnorm_wordpool_576.txt	LTP269	ltpFR2	8	12	LION	827	n/a	n/a	0	0	0
2511900	REC_WORD	wordpools/wasnorm_wordpool_576.txt	LTP269	ltpFR2	8	12	PANTHER	1009	n/a	n/a	0	0	0
2512459	REC_WORD	wordpools/wasnorm_wordpool_576.txt	LTP269	ltpFR2	8	12	SHOULDER	1294	n/a	n/a	0	0	0
2516063	REC_WORD	wordpools/wasnorm_wordpool_576.txt	LTP269	ltpFR2	8	12	LEOPARD	812	n/a	n/a	0	0	0
2516922	REC_WORD_VV	wordpools/wasnorm_wordpool_576.txt	LTP269	ltpFR2	8	12	<>	-1	n/a	n/a	0	0	0
2518346	REC_WORD	wordpools/wasnorm_wordpool_576.txt	LTP269	ltpFR2	8	12	ROOSTER	1209	n/a	n/a	0	0	0
2519685	REC_WORD	wordpools/wasnorm_wordpool_576.txt	LTP269	ltpFR2	8	12	TYPIST	1532	n/a	n/a	0	0	0
2521113	REC_WORD	wordpools/wasnorm_wordpool_576.txt	LTP269	ltpFR2	8	12	STUDENT	1395	n/a	n/a	0	0	0
2522206	REC_WORD	wordpools/wasnorm_wordpool_576.txt	LTP269	ltpFR2	8	12	GIRL	637	n/a	n/a	0	0	0
2526437	REC_WORD	wordpools/wasnorm_wordpool_576.txt	LTP269	ltpFR2	8	12	LUNCH	849	n/a	n/a	0	0	0
2526822	REC_WORD	wordpools/wasnorm_wordpool_576.txt	LTP269	ltpFR2	8	12	CAPTIVE	240	n/a	n/a	0	0	0
2534083	REC_WORD	wordpools/wasnorm_wordpool_576.txt	LTP269	ltpFR2	8	12	LIGHTNING	820	n/a	n/a	0	0	0
2541036	REC_WORD	wordpools/wasnorm_wordpool_576.txt	LTP269	ltpFR2	8	12	PEPPER	1047	n/a	n/a	0	0	0
2545538	REC_WORD_VV	wordpools/wasnorm_wordpool_576.txt	LTP269	ltpFR2	8	12	<>	-1	n/a	n/a	0	0	0
2591665	WORD	wordpools/wasnorm_wordpool_576.txt	LTP269	ltpFR2	8	13	TORTOISE	1486	n/a	n/a	0	0	0
2594183	WORD	wordpools/wasnorm_wordpool_576.txt	LTP269	ltpFR2	8	13	AUTHOR	61	n/a	n/a	0	0	0
2596686	WORD	wordpools/wasnorm_wordpool_576.txt	LTP269	ltpFR2	8	13	POET	1095	n/a	n/a	0	0	0
2599505	WORD	wordpools/wasnorm_wordpool_576.txt	LTP269	ltpFR2	8	13	MARSH	874	n/a	n/a	0	0	0
2602274	WORD	wordpools/wasnorm_wordpool_576.txt	LTP269	ltpFR2	8	13	GLOVE	642	n/a	n/a	0	0	0
2604759	WORD	wordpools/wasnorm_wordpool_576.txt	LTP269	ltpFR2	8	13	KIDNEY	776	n/a	n/a	0	0	0
2607445	WORD	wordpools/wasnorm_wordpool_576.txt	LTP269	ltpFR2	8	13	BEEF	113	n/a	n/a	0	0	0
2610080	WORD	wordpools/wasnorm_wordpool_576.txt	LTP269	ltpFR2	8	13	CYCLONE	431	n/a	n/a	0	0	0
2612583	WORD	wordpools/wasnorm_wordpool_576.txt	LTP269	ltpFR2	8	13	UMPIRE	1535	n/a	n/a	0	0	0
2615101	WORD	wordpools/wasnorm_wordpool_576.txt	LTP269	ltpFR2	8	13	TILE	1468	n/a	n/a	0	0	0
2617619	WORD	wordpools/wasnorm_wordpool_576.txt	LTP269	ltpFR2	8	13	DIME	466	n/a	n/a	0	0	0
2620155	WORD	wordpools/wasnorm_wordpool_576.txt	LTP269	ltpFR2	8	13	RADISH	1158	n/a	n/a	0	0	0
2622641	WORD	wordpools/wasnorm_wordpool_576.txt	LTP269	ltpFR2	8	13	SALAD	1224	n/a	n/a	0	0	0
2625260	WORD	wordpools/wasnorm_wordpool_576.txt	LTP269	ltpFR2	8	13	SPOOL	1356	n/a	n/a	0	0	0
2627694	WORD	wordpools/wasnorm_wordpool_576.txt	LTP269	ltpFR2	8	13	COWBOY	395	n/a	n/a	0	0	0
2630480	WORD	wordpools/wasnorm_wordpool_576.txt	LTP269	ltpFR2	8	13	ORCHID	982	n/a	n/a	0	0	0
2632965	WORD	wordpools/wasnorm_wordpool_576.txt	LTP269	ltpFR2	8	13	BATHTUB	100	n/a	n/a	0	0	0
2635535	WORD	wordpools/wasnorm_wordpool_576.txt	LTP269	ltpFR2	8	13	WAITRESS	1581	n/a	n/a	0	0	0
2638185	WORD	wordpools/wasnorm_wordpool_576.txt	LTP269	ltpFR2	8	13	CATCHER	258	n/a	n/a	0	0	0
2640888	WORD	wordpools/wasnorm_wordpool_576.txt	LTP269	ltpFR2	8	13	BRICK	172	n/a	n/a	0	0	0
2643357	WORD	wordpools/wasnorm_wordpool_576.txt	LTP269	ltpFR2	8	13	TABLET	1427	n/a	n/a	0	0	0
2645942	WORD	wordpools/wasnorm_wordpool_576.txt	LTP269	ltpFR2	8	13	MOP	916	n/a	n/a	0	0	0
2648511	WORD	wordpools/wasnorm_wordpool_576.txt	LTP269	ltpFR2	8	13	IGLOO	734	n/a	n/a	0	0	0
2650949	WORD	wordpools/wasnorm_wordpool_576.txt	LTP269	ltpFR2	8	13	LILY	821	n/a	n/a	0	0	0
2652566	START	n/a	LTP269	ltpFR2	8	n/a	n/a	n/a	19	n/a	n/a	n/a	n/a
2653437	DISTRACTOR	n/a	LTP269	ltpFR2	8	13	n/a	n/a	n/a	n/a	0	0	0
2653449	PROB	n/a	LTP269	ltpFR2	8	n/a	n/a	n/a	19	11	3	5	3
2656567	PROB	n/a	LTP269	ltpFR2	8	n/a	n/a	n/a	19	10	1	2	7
2658636	PROB	n/a	LTP269	ltpFR2	8	n/a	n/a	n/a	19	23	8	9	6
2661186	PROB	n/a	LTP269	ltpFR2	8	n/a	n/a	n/a	19	21	6	9	6
2663674	PROB	n/a	LTP269	ltpFR2	8	n/a	n/a	n/a	19	18	7	7	4
2665973	PROB	n/a	LTP269	ltpFR2	8	n/a	n/a	n/a	19	9	4	1	4
2667876	PROB	n/a	LTP269	ltpFR2	8	n/a	n/a	n/a	19	13	5	6	2
2669794	PROB	n/a	LTP269	ltpFR2	8	n/a	n/a	n/a	19	8	1	2	5
2672481	PROB	n/a	LTP269	ltpFR2	8	n/a	n/a	n/a	19	14	3	6	5
2676566	STOP	n/a	LTP269	ltpFR2	8	n/a	n/a	n/a	19	n/a	n/a	n/a	n/a
2678352	REC_START	n/a	LTP269	ltpFR2	8	13	n/a	n/a	n/a	n/a	0	0	0
2679703	REC_WORD_VV	wordpools/wasnorm_wordpool_576.txt	LTP269	ltpFR2	8	13	<>	-1	n/a	n/a	0	0	0
2680888	REC_WORD_VV	wordpools/wasnorm_wordpool_576.txt	LTP269	ltpFR2	8	13	<>	-1	n/a	n/a	0	0	0
2687905	REC_WORD	wordpools/wasnorm_wordpool_576.txt	LTP269	ltpFR2	8	13	KIDNEY	776	n/a	n/a	0	0	0
2688455	REC_WORD	wordpools/wasnorm_wordpool_576.txt	LTP269	ltpFR2	8	13	BEEF	113	n/a	n/a	0	0	0
2690576	REC_WORD	wordpools/wasnorm_wordpool_576.txt	LTP269	ltpFR2	8	13	ORCHID	982	n/a	n/a	0	0	0
2692351	REC_WORD	wordpools/wasnorm_wordpool_576.txt	LTP269	ltpFR2	8	13	CYCLONE	431	n/a	n/a	0	0	0
2693154	REC_WORD	wordpools/wasnorm_wordpool_576.txt	LTP269	ltpFR2	8	13	UMPIRE	1535	n/a	n/a	0	0	0
2693922	REC_WORD	wordpools/wasnorm_wordpool_576.txt	LTP269	ltpFR2	8	13	DIME	466	n/a	n/a	0	0	0
2695048	REC_WORD	wordpools/wasnorm_wordpool_576.txt	LTP269	ltpFR2	8	13	TILE	1468	n/a	n/a	0	0	0
2697420	REC_WORD	wordpools/wasnorm_wordpool_576.txt	LTP269	ltpFR2	8	13	CATCHER	258	n/a	n/a	0	0	0
2697913	REC_WORD	wordpools/wasnorm_wordpool_576.txt	LTP269	ltpFR2	8	13	BRICK	172	n/a	n/a	0	0	0
2699172	REC_WORD	wordpools/wasnorm_wordpool_576.txt	LTP269	ltpFR2	8	13	MOP	916	n/a	n/a	0	0	0
2700893	REC_WORD	wordpools/wasnorm_wordpool_576.txt	LTP269	ltpFR2	8	13	LILY	821	n/a	n/a	0	0	0
2707441	REC_WORD	wordpools/wasnorm_wordpool_576.txt	LTP269	ltpFR2	8	13	TORTOISE	1486	n/a	n/a	0	0	0
2709000	REC_WORD	wordpools/wasnorm_wordpool_576.txt	LTP269	ltpFR2	8	13	POET	1095	n/a	n/a	0	0	0
2718397	REC_WORD	wordpools/wasnorm_wordpool_576.txt	LTP269	ltpFR2	8	13	GLOVE	642	n/a	n/a	0	0	0
2731964	REC_WORD_VV	wordpools/wasnorm_wordpool_576.txt	LTP269	ltpFR2	8	13	<>	-1	n/a	n/a	0	0	0
2753024	REC_WORD_VV	wordpools/wasnorm_wordpool_576.txt	LTP269	ltpFR2	8	13	<>	-1	n/a	n/a	0	0	0
2768790	WORD	wordpools/wasnorm_wordpool_576.txt	LTP269	ltpFR2	8	14	CREVICE	405	n/a	n/a	0	0	0
2771460	WORD	wordpools/wasnorm_wordpool_576.txt	LTP269	ltpFR2	8	14	POLICE	1098	n/a	n/a	0	0	0
2774223	WORD	wordpools/wasnorm_wordpool_576.txt	LTP269	ltpFR2	8	14	PATROL	1027	n/a	n/a	0	0	0
2777009	WORD	wordpools/wasnorm_wordpool_576.txt	LTP269	ltpFR2	8	14	ATOM	55	n/a	n/a	0	0	0
2779579	WORD	wordpools/wasnorm_wordpool_576.txt	LTP269	ltpFR2	8	14	RUG	1215	n/a	n/a	0	0	0
2782336	WORD	wordpools/wasnorm_wordpool_576.txt	LTP269	ltpFR2	8	14	LIPSTICK	829	n/a	n/a	0	0	0
2785117	WORD	wordpools/wasnorm_wordpool_576.txt	LTP269	ltpFR2	8	14	ANTLER	29	n/a	n/a	0	0	0
2787620	WORD	wordpools/wasnorm_wordpool_576.txt	LTP269	ltpFR2	8	14	SKETCH	1315	n/a	n/a	0	0	0
2790091	WORD	wordpools/wasnorm_wordpool_576.txt	LTP269	ltpFR2	8	14	JURY	766	n/a	n/a	0	0	0
2792777	WORD	wordpools/wasnorm_wordpool_576.txt	LTP269	ltpFR2	8	14	CASKET	255	n/a	n/a	0	0	0
2795563	WORD	wordpools/wasnorm_wordpool_576.txt	LTP269	ltpFR2	8	14	JEANS	752	n/a	n/a	0	0	0
2798177	WORD	wordpools/wasnorm_wordpool_576.txt	LTP269	ltpFR2	8	14	SHORTS	1293	n/a	n/a	0	0	0
2800680	WORD	wordpools/wasnorm_wordpool_576.txt	LTP269	ltpFR2	8	14	OMELET	976	n/a	n/a	0	0	0
2803300	WORD	wordpools/wasnorm_wordpool_576.txt	LTP269	ltpFR2	8	14	YOLK	1633	n/a	n/a	0	0	0
2805934	WORD	wordpools/wasnorm_wordpool_576.txt	LTP269	ltpFR2	8	14	KLEENEX	782	n/a	n/a	0	0	0
2808688	WORD	wordpools/wasnorm_wordpool_576.txt	LTP269	ltpFR2	8	14	TROUT	1511	n/a	n/a	0	0	0
2811306	WORD	wordpools/wasnorm_wordpool_576.txt	LTP269	ltpFR2	8	14	CROWN	415	n/a	n/a	0	0	0
2813925	WORD	wordpools/wasnorm_wordpool_576.txt	LTP269	ltpFR2	8	14	HELMET	702	n/a	n/a	0	0	0
2816478	WORD	wordpools/wasnorm_wordpool_576.txt	LTP269	ltpFR2	8	14	VIRUS	1572	n/a	n/a	0	0	0
2819012	WORD	wordpools/wasnorm_wordpool_576.txt	LTP269	ltpFR2	8	14	LODGE	839	n/a	n/a	0	0	0
2821715	WORD	wordpools/wasnorm_wordpool_576.txt	LTP269	ltpFR2	8	14	HOOK	715	n/a	n/a	0	0	0
2824285	WORD	wordpools/wasnorm_wordpool_576.txt	LTP269	ltpFR2	8	14	GROUND	666	n/a	n/a	0	0	0
2826986	WORD	wordpools/wasnorm_wordpool_576.txt	LTP269	ltpFR2	8	14	ONION	977	n/a	n/a	0	0	0
2829738	WORD	wordpools/wasnorm_wordpool_576.txt	LTP269	ltpFR2	8	14	BRIEFCASE	175	n/a	n/a	0	0	0
2831343	START	n/a	LTP269	ltpFR2	8	n/a	n/a	n/a	20	n/a	n/a	n/a	n/a
2832248	DISTRACTOR	n/a	LTP269	ltpFR2	8	14	n/a	n/a	n/a	n/a	0	0	0
2832258	PROB	n/a	LTP269	ltpFR2	8	n/a	n/a	n/a	20	15	2	5	8
2833759	PROB	n/a	LTP269	ltpFR2	8	n/a	n/a	n/a	20	17	7	5	5
2835677	PROB	n/a	LTP269	ltpFR2	8	n/a	n/a	n/a	20	19	8	5	6
2837829	PROB	n/a	LTP269	ltpFR2	8	n/a	n/a	n/a	20	10	1	3	6
2840882	PROB	n/a	LTP269	ltpFR2	8	n/a	n/a	n/a	20	21	6	7	8
2842816	PROB	n/a	LTP269	ltpFR2	8	n/a	n/a	n/a	20	17	9	2	6
2844801	PROB	n/a	LTP269	ltpFR2	8	n/a	n/a	n/a	20	14	8	4	2
2847886	PROB	n/a	LTP269	ltpFR2	8	n/a	n/a	n/a	20	12	1	1	8
2849356	PROB	n/a	LTP269	ltpFR2	8	n/a	n/a	n/a	20	19	3	7	9
2851189	PROB	n/a	LTP269	ltpFR2	8	n/a	n/a	n/a	20	15	7	3	5
2852407	PROB	n/a	LTP269	ltpFR2	8	n/a	n/a	n/a	20	19	8	7	4
2854010	STOP	n/a	LTP269	ltpFR2	8	n/a	n/a	n/a	20	n/a	n/a	n/a	n/a
2857178	REC_START	n/a	LTP269	ltpFR2	8	14	n/a	n/a	n/a	n/a	0	0	0
2858343	REC_WORD	wordpools/wasnorm_wordpool_576.txt	LTP269	ltpFR2	8	14	TROUT	1511	n/a	n/a	0	0	0
2859508	REC_WORD	wordpools/wasnorm_wordpool_576.txt	LTP269	ltpFR2	8	14	LOGIC	-1	n/a	n/a	0	0	0
2862081	REC_WORD	wordpools/wasnorm_wordpool_576.txt	LTP269	ltpFR2	8	14	KLEENEX	782	n/a	n/a	0	0	0
2864556	REC_WORD	wordpools/wasnorm_wordpool_576.txt	LTP269	ltpFR2	8	14	CROWN	415	n/a	n/a	0	0	0
2865502	REC_WORD_VV	wordpools/wasnorm_wordpool_576.txt	LTP269	ltpFR2	8	14	<>	-1	n/a	n/a	0	0	0
2871414	REC_WORD	wordpools/wasnorm_wordpool_576.txt	LTP269	ltpFR2	8	14	POLICE	1098	n/a	n/a	0	0	0
2872134	REC_WORD	wordpools/wasnorm_wordpool_576.txt	LTP269	ltpFR2	8	14	PATROL	1027	n/a	n/a	0	0	0
2873509	REC_WORD	wordpools/wasnorm_wordpool_576.txt	LTP269	ltpFR2	8	14	CREVICE	405	n/a	n/a	0	0	0
2874136	REC_WORD	wordpools/wasnorm_wordpool_576.txt	LTP269	ltpFR2	8	14	ATOM	55	n/a	n/a	0	0	0
2874733	REC_WORD	wordpools/wasnorm_wordpool_576.txt	LTP269	ltpFR2	8	14	RUG	1215	n/a	n/a	0	0	0
2875732	REC_WORD_VV	wordpools/wasnorm_wordpool_576.txt	LTP269	ltpFR2	8	14	<>	-1	n/a	n/a	0	0	0
2913416	REC_WORD_VV	wordpools/wasnorm_wordpool_576.txt	LTP269	ltpFR2	8	14	<>	-1	n/a	n/a	0	0	0
2915238	REC_WORD_VV	wordpools/wasnorm_wordpool_576.txt	LTP269	ltpFR2	8	14	<>	-1	n/a	n/a	0	0	0
2916445	REC_WORD_VV	wordpools/wasnorm_wordpool_576.txt	LTP269	ltpFR2	8	14	<>	-1	n/a	n/a	0	0	0
2947617	WORD	wordpools/wasnorm_wordpool_576.txt	LTP269	ltpFR2	8	15	QUAIL	1147	n/a	n/a	0	0	0
2950226	WORD	wordpools/wasnorm_wordpool_576.txt	LTP269	ltpFR2	8	15	PROTON	1132	n/a	n/a	0	0	0
2952922	WORD	wordpools/wasnorm_wordpool_576.txt	LTP269	ltpFR2	8	15	RUST	1219	n/a	n/a	0	0	0
2955692	WORD	wordpools/wasnorm_wordpool_576.txt	LTP269	ltpFR2	8	15	PENGUIN	1044	n/a	n/a	0	0	0
2958494	WORD	wordpools/wasnorm_wordpool_576.txt	LTP269	ltpFR2	8	15	SKILLET	1317	n/a	n/a	0	0	0
2961186	WORD	wordpools/wasnorm_wordpool_576.txt	LTP269	ltpFR2	8	15	COOK	372	n/a	n/a	0	0	0
2963673	WORD	wordpools/wasnorm_wordpool_576.txt	LTP269	ltpFR2	8	15	TRUCK	1512	n/a	n/a	0	0	0
2966133	WORD	wordpools/wasnorm_wordpool_576.txt	LTP269	ltpFR2	8	15	MARKER	870	n/a	n/a	0	0	0
2968827	WORD	wordpools/wasnorm_wordpool_576.txt	LTP269	ltpFR2	8	15	SPIDER	1351	n/a	n/a	0	0	0
2971521	WORD	wordpools/wasnorm_wordpool_576.txt	LTP269	ltpFR2	8	15	DUSTPAN	509	n/a	n/a	0	0	0
2974047	WORD	wordpools/wasnorm_wordpool_576.txt	LTP269	ltpFR2	8	15	BUG	187	n/a	n/a	0	0	0
2976601	WORD	wordpools/wasnorm_wordpool_576.txt	LTP269	ltpFR2	8	15	MARROW	872	n/a	n/a	0	0	0
2979119	WORD	wordpools/wasnorm_wordpool_576.txt	LTP269	ltpFR2	8	15	PERMIT	1051	n/a	n/a	0	0	0
2981937	WORD	wordpools/wasnorm_wordpool_576.txt	LTP269	ltpFR2	8	15	GUARD	667	n/a	n/a	0	0	0
2984375	WORD	wordpools/wasnorm_wordpool_576.txt	LTP269	ltpFR2	8	15	SOFTBALL	1343	n/a	n/a	0	0	0
2987050	WORD	wordpools/wasnorm_wordpool_576.txt	LTP269	ltpFR2	8	15	JOURNAL	760	n/a	n/a	0	0	0
2989869	WORD	wordpools/wasnorm_wordpool_576.txt	LTP269	ltpFR2	8	15	WAGON	1578	n/a	n/a	0	0	0
2992681	WORD	wordpools/wasnorm_wordpool_576.txt	LTP269	ltpFR2	8	15	WORLD	1622	n/a	n/a	0	0	0
2995250	WORD	wordpools/wasnorm_wordpool_576.txt	LTP269	ltpFR2	8	15	FLEET	578	n/a	n/a	0	0	0
2997702	WORD	wordpools/wasnorm_wordpool_576.txt	LTP269	ltpFR2	8	15	COLONEL	348	n/a	n/a	0	0	0
3000227	WORD	wordpools/wasnorm_wordpool_576.txt	LTP269	ltpFR2	8	15	BACKBONE	66	n/a	n/a	0	0	0
3003039	WORD	wordpools/wasnorm_wordpool_576.txt	LTP269	ltpFR2	8	15	BODY	145	n/a	n/a	0	0	0
3005543	WORD	wordpools/wasnorm_wordpool_576.txt	LTP269	ltpFR2	8	15	COMET	353	n/a	n/a	0	0	0
3008284	WORD	wordpools/wasnorm_wordpool_576.txt	LTP269	ltpFR2	8	15	PRIMATE	1123	n/a	n/a	0	0	0
3009896	START	n/a	LTP269	ltpFR2	8	n/a	n/a	n/a	21	n/a	n/a	n/a	n/a
3010944	DISTRACTOR	n/a	LTP269	ltpFR2	8	15	n/a	n/a	n/a	n/a	0	0	0
3010952	PROB	n/a	LTP269	ltpFR2	8	n/a	n/a	n/a	21	12	3	4	5
3012570	PROB	n/a	LTP269	ltpFR2	8	n/a	n/a	n/a	21	21	5	8	8
3014505	PROB	n/a	LTP269	ltpFR2	8	n/a	n/a	n/a	21	24	9	6	9
3018791	PROB	n/a	LTP269	ltpFR2	8	n/a	n/a	n/a	21	3	1	1	1
3020276	PROB	n/a	LTP269	ltpFR2	8	n/a	n/a	n/a	21	12	1	6	5
3021544	PROB	n/a	LTP269	ltpFR2	8	n/a	n/a	n/a	21	15	8	4	3
3023227	PROB	n/a	LTP269	ltpFR2	8	n/a	n/a	n/a	21	15	5	5	5
3024264	PROB	n/a	LTP269	ltpFR2	8	n/a	n/a	n/a	21	16	6	1	9
3026180	PROB	n/a	LTP269	ltpFR2	8	n/a	n/a	n/a	21	12	2	5	5
3027415	PROB	n/a	LTP269	ltpFR2	8	n/a	n/a	n/a	21	9	3	4	2
3029585	PROB	n/a	LTP269	ltpFR2	8	n/a	n/a	n/a	21	18	6	3	9
3031185	PROB	n/a	LTP269	ltpFR2	8	n/a	n/a	n/a	21	11	6	4	1
3032362	STOP	n/a	LTP269	ltpFR2	8	n/a	n/a	n/a	21	n/a	n/a	n/a	n/a
3035773	REC_START	n/a	LTP269	ltpFR2	8	15	n/a	n/a	n/a	n/a	0	0	0
3037132	REC_WORD	wordpools/wasnorm_wordpool_576.txt	LTP269	ltpFR2	8	15	QUAIL	1147	n/a	n/a	0	0	0
3038169	REC_WORD	wordpools/wasnorm_wordpool_576.txt	LTP269	ltpFR2	8	15	PROTON	1132	n/a	n/a	0	0	0
3040769	REC_WORD	wordpools/wasnorm_wordpool_576.txt	LTP269	ltpFR2	8	15	RUST	1219	n/a	n/a	0	0	0
3041836	REC_WORD	wordpools/wasnorm_wordpool_576.txt	LTP269	ltpFR2	8	15	PENGUIN	1044	n/a	n/a	0	0	0
3042659	REC_WORD	wordpools/wasnorm_wordpool_576.txt	LTP269	ltpFR2	8	15	SKILLET	1317	n/a	n/a	0	0	0
3043860	REC_WORD	wordpools/wasnorm_wordpool_576.txt	LTP269	ltpFR2	8	15	COOK	372	n/a	n/a	0	0	0
3046657	REC_WORD	wordpools/wasnorm_wordpool_576.txt	LTP269	ltpFR2	8	15	COLONEL	348	n/a	n/a	0	0	0
3047213	REC_WORD	wordpools/wasnorm_wordpool_576.txt	LTP269	ltpFR2	8	15	BACKBONE	66	n/a	n/a	0	0	0
3049320	REC_WORD	wordpools/wasnorm_wordpool_576.txt	LTP269	ltpFR2	8	15	BODY	145	n/a	n/a	0	0	0
3050246	REC_WORD	wordpools/wasnorm_wordpool_576.txt	LTP269	ltpFR2	8	15	COMET	353	n/a	n/a	0	0	0
3099800	REC_WORD	wordpools/wasnorm_wordpool_576.txt	LTP269	ltpFR2	8	15	PENGUIN	1044	n/a	n/a	0	0	0
3104512	REC_WORD	wordpools/wasnorm_wordpool_576.txt	LTP269	ltpFR2	8	15	FLEET	578	n/a	n/a	0	0	0
3105274	REC_WORD	wordpools/wasnorm_wordpool_576.txt	LTP269	ltpFR2	8	15	TRUCK	1512	n/a	n/a	0	0	0
3106616	REC_WORD	wordpools/wasnorm_wordpool_576.txt	LTP269	ltpFR2	8	15	WAGON	1578	n/a	n/a	0	0	0
3107520	REC_WORD	wordpools/wasnorm_wordpool_576.txt	LTP269	ltpFR2	8	15	MARKER	870	n/a	n/a	0	0	0
3108292	REC_WORD_VV	wordpools/wasnorm_wordpool_576.txt	LTP269	ltpFR2	8	15	<>	-1	n/a	n/a	0	0	0
3126214	DISTRACTOR	n/a	LTP269	ltpFR2	8	16	n/a	n/a	n/a	n/a	0	0	0
3126214	START	n/a	LTP269	ltpFR2	8	n/a	n/a	n/a	22	n/a	n/a	n/a	n/a
3126227	PROB	n/a	LTP269	ltpFR2	8	n/a	n/a	n/a	22	10	4	2	4
3127829	PROB	n/a	LTP269	ltpFR2	8	n/a	n/a	n/a	22	19	9	5	5
3129729	PROB	n/a	LTP269	ltpFR2	8	n/a	n/a	n/a	22	14	1	6	7
3130999	PROB	n/a	LTP269	ltpFR2	8	n/a	n/a	n/a	22	14	1	4	9
3133099	PROB	n/a	LTP269	ltpFR2	8	n/a	n/a	n/a	22	7	3	1	3
3134402	PROB	n/a	LTP269	ltpFR2	8	n/a	n/a	n/a	22	12	9	1	2
3135768	PROB	n/a	LTP269	ltpFR2	8	n/a	n/a	n/a	22	13	4	7	2
3138920	PROB	n/a	LTP269	ltpFR2	8	n/a	n/a	n/a	22	15	4	2	9
3142223	PROB	n/a	LTP269	ltpFR2	8	n/a	n/a	n/a	22	22	8	7	7
3144276	PROB	n/a	LTP269	ltpFR2	8	n/a	n/a	n/a	22	15	1	8	6
3145644	PROB	n/a	LTP269	ltpFR2	8	n/a	n/a	n/a	22	21	8	9	4
3147945	PROB	n/a	LTP269	ltpFR2	8	n/a	n/a	n/a	22	14	1	8	5
3149575	STOP	n/a	LTP269	ltpFR2	8	n/a	n/a	n/a	22	n/a	n/a	n/a	n/a
3151081	WORD	wordpools/wasnorm_wordpool_576.txt	LTP269	ltpFR2	8	16	ELBOW	520	n/a	n/a	0	0	0
3153505	WORD	wordpools/wasnorm_wordpool_576.txt	LTP269	ltpFR2	8	16	FREEZER	604	n/a	n/a	0	0	0
3156069	WORD	wordpools/wasnorm_wordpool_576.txt	LTP269	ltpFR2	8	16	FEMALE	559	n/a	n/a	0	0	0
3158505	WORD	wordpools/wasnorm_wordpool_576.txt	LTP269	ltpFR2	8	16	ARM	38	n/a	n/a	0	0	0
3161290	WORD	wordpools/wasnorm_wordpool_576.txt	LTP269	ltpFR2	8	16	LIZARD	834	n/a	n/a	0	0	0
3163808	WORD	wordpools/wasnorm_wordpool_576.txt	LTP269	ltpFR2	8	16	PIMPLE	1071	n/a	n/a	0	0	0
3166261	WORD	wordpools/wasnorm_wordpool_576.txt	LTP269	ltpFR2	8	16	SCISSORS	1250	n/a	n/a	0	0	0
3168862	WORD	wordpools/wasnorm_wordpool_576.txt	LTP269	ltpFR2	8	16	SLUG	1329	n/a	n/a	0	0	0
3171598	WORD	wordpools/wasnorm_wordpool_576.txt	LTP269	ltpFR2	8	16	SNAIL	1332	n/a	n/a	0	0	0
3174200	WORD	wordpools/wasnorm_wordpool_576.txt	LTP269	ltpFR2	8	16	DONKEY	484	n/a	n/a	0	0	0
3176751	WORD	wordpools/wasnorm_wordpool_576.txt	LTP269	ltpFR2	8	16	GAZELLE	628	n/a	n/a	0	0	0
3179422	WORD	wordpools/wasnorm_wordpool_576.txt	LTP269	ltpFR2	8	16	VELVET	1555	n/a	n/a	0	0	0
3182096	WORD	wordpools/wasnorm_wordpool_576.txt	LTP269	ltpFR2	8	16	CAFE	216	n/a	n/a	0	0	0
3184650	WORD	wordpools/wasnorm_wordpool_576.txt	LTP269	ltpFR2	8	16	BUNNY	198	n/a	n/a	0	0	0
3187251	WORD	wordpools/wasnorm_wordpool_576.txt	LTP269	ltpFR2	8	16	ACTRESS	6	n/a	n/a	0	0	0
3189863	WORD	wordpools/wasnorm_wordpool_576.txt	LTP269	ltpFR2	8	16	WAITER	1580	n/a	n/a	0	0	0
3192398	WORD	wordpools/wasnorm_wordpool_576.txt	LTP269	ltpFR2	8	16	CLOCK	325	n/a	n/a	0	0	0
3194958	WORD	wordpools/wasnorm_wordpool_576.txt	LTP269	ltpFR2	8	16	SEAL	1262	n/a	n/a	0	0	0
3197410	WORD	wordpools/wasnorm_wordpool_576.txt	LTP269	ltpFR2	8	16	KETCHUP	771	n/a	n/a	0	0	0
3199970	WORD	wordpools/wasnorm_wordpool_576.txt	LTP269	ltpFR2	8	16	POPCORN	1104	n/a	n/a	0	0	0
3202740	WORD	wordpools/wasnorm_wordpool_576.txt	LTP269	ltpFR2	8	16	DRAWING	494	n/a	n/a	0	0	0
3205259	WORD	wordpools/wasnorm_wordpool_576.txt	LTP269	ltpFR2	8	16	FIREPLACE	570	n/a	n/a	0	0	0
3208019	WORD	wordpools/wasnorm_wordpool_576.txt	LTP269	ltpFR2	8	16	CABIN	211	n/a	n/a	0	0	0
3210513	WORD	wordpools/wasnorm_wordpool_576.txt	LTP269	ltpFR2	8	16	FRAME	600	n/a	n/a	0	0	0
3212123	START	n/a	LTP269	ltpFR2	8	n/a	n/a	n/a	23	n/a	n/a	n/a	n/a
3213210	DISTRACTOR	n/a	LTP269	ltpFR2	8	16	n/a	n/a	n/a	n/a	0	0	0
3213214	PROB	n/a	LTP269	ltpFR2	8	n/a	n/a	n/a	23	17	8	3	6
3215132	PROB	n/a	LTP269	ltpFR2	8	n/a	n/a	n/a	23	18	6	7	5
3217134	PROB	n/a	LTP269	ltpFR2	8	n/a	n/a	n/a	23	21	3	9	9
3219018	PROB	n/a	LTP269	ltpFR2	8	n/a	n/a	n/a	23	5	1	1	3
3220555	PROB	n/a	LTP269	ltpFR2	8	n/a	n/a	n/a	23	10	4	5	1
3223188	PROB	n/a	LTP269	ltpFR2	8	n/a	n/a	n/a	23	19	3	9	7
3226408	PROB	n/a	LTP269	ltpFR2	8	n/a	n/a	n/a	23	18	6	6	6
3227775	PROB	n/a	LTP269	ltpFR2	8	n/a	n/a	n/a	23	16	7	5	4
3229678	PROB	n/a	LTP269	ltpFR2	8	n/a	n/a	n/a	23	21	9	5	7
3231397	PROB	n/a	LTP269	ltpFR2	8	n/a	n/a	n/a	23	12	3	4	5
3233214	PROB	n/a	LTP269	ltpFR2	8	n/a	n/a	n/a	23	13	2	2	9
3234890	STOP	n/a	LTP269	ltpFR2	8	n/a	n/a	n/a	23	n/a	n/a	n/a	n/a
3238001	REC_START	n/a	LTP269	ltpFR2	8	16	n/a	n/a	n/a	n/a	0	0	0
3243201	REC_WORD	wordpools/wasnorm_wordpool_576.txt	LTP269	ltpFR2	8	16	LIZARD	834	n/a	n/a	0	0	0
3243659	REC_WORD	wordpools/wasnorm_wordpool_576.txt	LTP269	ltpFR2	8	16	PIMPLE	1071	n/a	n/a	0	0	0
3244141	REC_WORD	wordpools/wasnorm_wordpool_576.txt	LTP269	ltpFR2	8	16	SCISSORS	1250	n/a	n/a	0	0	0
3249250	REC_WORD	wordpools/wasnorm_wordpool_576.txt	LTP269	ltpFR2	8	16	GAZELLE	628	n/a	n/a	0	0	0
3251222	REC_WORD	wordpools/wasnorm_wordpool_576.txt	LTP269	ltpFR2	8	16	VELVET	1555	n/a	n/a	0	0	0
3254590	REC_WORD	wordpools/wasnorm_wordpool_576.txt	LTP269	ltpFR2	8	16	DONKEY	484	n/a	n/a	0	0	0
3265206	REC_WORD	wordpools/wasnorm_wordpool_576.txt	LTP269	ltpFR2	8	16	ELBOW	520	n/a	n/a	0	0	0
3265714	REC_WORD	wordpools/wasnorm_wordpool_576.txt	LTP269	ltpFR2	8	16	FREEZER	604	n/a	n/a	0	0	0
3270309	REC_WORD_VV	wordpools/wasnorm_wordpool_576.txt	LTP269	ltpFR2	8	16	<>	-1	n/a	n/a	0	0	0
3284163	REC_WORD_VV	wordpools/wasnorm_wordpool_576.txt	LTP269	ltpFR2	8	16	<>	-1	n/a	n/a	0	0	0
3308186	REC_WORD_VV	wordpools/wasnorm_wordpool_576.txt	LTP269	ltpFR2	8	16	<>	-1	n/a	n/a	0	0	0
3314545	REST_REWET	n/a	LTP269	ltpFR2	8	16	n/a	n/a	n/a	n/a	0	0	0
3537125	WORD	wordpools/wasnorm_wordpool_576.txt	LTP269	ltpFR2	8	17	CHURCH	307	n/a	n/a	0	0	0
3539924	WORD	wordpools/wasnorm_wordpool_576.txt	LTP269	ltpFR2	8	17	CROSS	413	n/a	n/a	0	0	0
3542662	WORD	wordpools/wasnorm_wordpool_576.txt	LTP269	ltpFR2	8	17	BANK	83	n/a	n/a	0	0	0
3545113	WORD	wordpools/wasnorm_wordpool_576.txt	LTP269	ltpFR2	8	17	SHOVEL	1295	n/a	n/a	0	0	0
3547865	WORD	wordpools/wasnorm_wordpool_576.txt	LTP269	ltpFR2	8	17	LAKE	796	n/a	n/a	0	0	0
3550335	WORD	wordpools/wasnorm_wordpool_576.txt	LTP269	ltpFR2	8	17	JAPAN	749	n/a	n/a	0	0	0
3552803	WORD	wordpools/wasnorm_wordpool_576.txt	LTP269	ltpFR2	8	17	PUDDING	1139	n/a	n/a	0	0	0
3555573	WORD	wordpools/wasnorm_wordpool_576.txt	LTP269	ltpFR2	8	17	TREAT	1501	n/a	n/a	0	0	0
3558191	WORD	wordpools/wasnorm_wordpool_576.txt	LTP269	ltpFR2	8	17	DENIM	446	n/a	n/a	0	0	0
3560993	WORD	wordpools/wasnorm_wordpool_576.txt	LTP269	ltpFR2	8	17	SKIRT	1319	n/a	n/a	0	0	0
3563695	WORD	wordpools/wasnorm_wordpool_576.txt	LTP269	ltpFR2	8	17	TART	1436	n/a	n/a	0	0	0
3566382	WORD	wordpools/wasnorm_wordpool_576.txt	LTP269	ltpFR2	8	17	LETTUCE	814	n/a	n/a	0	0	0
3568917	WORD	wordpools/wasnorm_wordpool_576.txt	LTP269	ltpFR2	8	17	SCULPTURE	1258	n/a	n/a	0	0	0
3571719	WORD	wordpools/wasnorm_wordpool_576.txt	LTP269	ltpFR2	8	17	PERFUME	1049	n/a	n/a	0	0	0
3574222	WORD	wordpools/wasnorm_wordpool_576.txt	LTP269	ltpFR2	8	17	DRINK	498	n/a	n/a	0	0	0
3576957	WORD	wordpools/wasnorm_wordpool_576.txt	LTP269	ltpFR2	8	17	SERVANT	1271	n/a	n/a	0	0	0
3579660	WORD	wordpools/wasnorm_wordpool_576.txt	LTP269	ltpFR2	8	17	WORKER	1621	n/a	n/a	0	0	0
3582094	WORD	wordpools/wasnorm_wordpool_576.txt	LTP269	ltpFR2	8	17	BACON	67	n/a	n/a	0	0	0
3584863	WORD	wordpools/wasnorm_wordpool_576.txt	LTP269	ltpFR2	8	17	DENTIST	447	n/a	n/a	0	0	0
3587432	WORD	wordpools/wasnorm_wordpool_576.txt	LTP269	ltpFR2	8	17	HANDBAG	684	n/a	n/a	0	0	0
3590252	WORD	wordpools/wasnorm_wordpool_576.txt	LTP269	ltpFR2	8	17	PADDING	999	n/a	n/a	0	0	0
3592903	WORD	wordpools/wasnorm_wordpool_576.txt	LTP269	ltpFR2	8	17	MARS	873	n/a	n/a	0	0	0
3595622	WORD	wordpools/wasnorm_wordpool_576.txt	LTP269	ltpFR2	8	17	SODA	1341	n/a	n/a	0	0	0
3598275	WORD	wordpools/wasnorm_wordpool_576.txt	LTP269	ltpFR2	8	17	STREAM	1392	n/a	n/a	0	0	0
3599893	START	n/a	LTP269	ltpFR2	8	n/a	n/a	n/a	24	n/a	n/a	n/a	n/a
3601021	DISTRACTOR	n/a	LTP269	ltpFR2	8	17	n/a	n/a	n/a	n/a	0	0	0
3601026	PROB	n/a	LTP269	ltpFR2	8	n/a	n/a	n/a	24	13	3	9	1
3602611	PROB	n/a	LTP269	ltpFR2	8	n/a	n/a	n/a	24	17	8	4	5
3604811	PROB	n/a	LTP269	ltpFR2	8	n/a	n/a	n/a	24	17	8	5	4
3606779	PROB	n/a	LTP269	ltpFR2	8	n/a	n/a	n/a	24	19	5	7	7
3609417	PROB	n/a	LTP269	ltpFR2	8	n/a	n/a	n/a	24	18	7	4	7
3611016	PROB	n/a	LTP269	ltpFR2	8	n/a	n/a	n/a	24	19	9	8	2
3613835	PROB	n/a	LTP269	ltpFR2	8	n/a	n/a	n/a	24	20	4	7	9
3615836	PROB	n/a	LTP269	ltpFR2	8	n/a	n/a	n/a	24	11	1	2	8
3617422	PROB	n/a	LTP269	ltpFR2	8	n/a	n/a	n/a	24	10	2	1	7
3618889	PROB	n/a	LTP269	ltpFR2	8	n/a	n/a	n/a	24	20	8	8	6
3623892	STOP	n/a	LTP269	ltpFR2	8	n/a	n/a	n/a	24	n/a	n/a	n/a	n/a
3625711	REC_START	n/a	LTP269	ltpFR2	8	17	n/a	n/a	n/a	n/a	0	0	0
3627969	REC_WORD	wordpools/wasnorm_wordpool_576.txt	LTP269	ltpFR2	8	17	CHURCH	307	n/a	n/a	0	0	0
3628564	REC_WORD	wordpools/wasnorm_wordpool_576.txt	LTP269	ltpFR2	8	17	CROSS	413	n/a	n/a	0	0	0
3630393	REC_WORD	wordpools/wasnorm_wordpool_576.txt	LTP269	ltpFR2	8	17	BANK	83	n/a	n/a	0	0	0
3631622	REC_WORD	wordpools/wasnorm_wordpool_576.txt	LTP269	ltpFR2	8	17	SHOVEL	1295	n/a	n/a	0	0	0
3633029	REC_WORD	wordpools/wasnorm_wordpool_576.txt	LTP269	ltpFR2	8	17	LAKE	796	n/a	n/a	0	0	0
3634185	REC_WORD	wordpools/wasnorm_wordpool_576.txt	LTP269	ltpFR2	8	17	PUDDING	1139	n/a	n/a	0	0	0
3634695	REC_WORD	wordpools/wasnorm_wordpool_576.txt	LTP269	ltpFR2	8	17	TREAT	1501	n/a	n/a	0	0	0
3635644	REC_WORD	wordpools/wasnorm_wordpool_576.txt	LTP269	ltpFR2	8	17	BACON	67	n/a	n/a	0	0	0
3636497	REC_WORD_VV	wordpools/wasnorm_wordpool_576.txt	LTP269	ltpFR2	8	17	<>	-1	n/a	n/a	0	0	0
3637327	REC_WORD	wordpools/wasnorm_wordpool_576.txt	LTP269	ltpFR2	8	17	DENTIST	447	n/a	n/a	0	0	0
3637880	REC_WORD	wordpools/wasnorm_wordpool_576.txt	LTP269	ltpFR2	8	17	PADDING	999	n/a	n/a	0	0	0
3640424	REC_WORD	wordpools/wasnorm_wordpool_576.txt	LTP269	ltpFR2	8	17	STATUE	1374	n/a	n/a	0	0	0
3643206	REC_WORD	wordpools/wasnorm_wordpool_576.txt	LTP269	ltpFR2	8	17	PERFUME	1049	n/a	n/a	0	0	0
3645875	REC_WORD	wordpools/wasnorm_wordpool_576.txt	LTP269	ltpFR2	8	17	DRINK	498	n/a	n/a	0	0	0
3647241	REC_WORD	wordpools/wasnorm_wordpool_576.txt	LTP269	ltpFR2	8	17	SERVANT	1271	n/a	n/a	0	0	0
3647875	REC_WORD	wordpools/wasnorm_wordpool_576.txt	LTP269	ltpFR2	8	17	WORKER	1621	n/a	n/a	0	0	0
3649815	REC_WORD	wordpools/wasnorm_wordpool_576.txt	LTP269	ltpFR2	8	17	MARS	873	n/a	n/a	0	0	0
3650810	REC_WORD	wordpools/wasnorm_wordpool_576.txt	LTP269	ltpFR2	8	17	SODA	1341	n/a	n/a	0	0	0
3651376	REC_WORD	wordpools/wasnorm_wordpool_576.txt	LTP269	ltpFR2	8	17	STREAM	1392	n/a	n/a	0	0	0
3661752	REC_WORD_VV	wordpools/wasnorm_wordpool_576.txt	LTP269	ltpFR2	8	17	<>	-1	n/a	n/a	0	0	0
3690182	REC_WORD_VV	wordpools/wasnorm_wordpool_576.txt	LTP269	ltpFR2	8	17	<>	-1	n/a	n/a	0	0	0
3716135	DISTRACTOR	n/a	LTP269	ltpFR2	8	18	n/a	n/a	n/a	n/a	0	0	0
3716135	START	n/a	LTP269	ltpFR2	8	n/a	n/a	n/a	25	n/a	n/a	n/a	n/a
3716151	PROB	n/a	LTP269	ltpFR2	8	n/a	n/a	n/a	25	15	8	1	6
3717586	PROB	n/a	LTP269	ltpFR2	8	n/a	n/a	n/a	25	11	1	4	7
3720088	PROB	n/a	LTP269	ltpFR2	8	n/a	n/a	n/a	25	18	6	6	6
3721322	PROB	n/a	LTP269	ltpFR2	8	n/a	n/a	n/a	25	19	1	9	8
3723325	PROB	n/a	LTP269	ltpFR2	8	n/a	n/a	n/a	25	12	3	2	7
3726411	PROB	n/a	LTP269	ltpFR2	8	n/a	n/a	n/a	25	14	9	1	4
3730529	PROB	n/a	LTP269	ltpFR2	8	n/a	n/a	n/a	25	12	3	1	8
3731797	PROB	n/a	LTP269	ltpFR2	8	n/a	n/a	n/a	25	15	5	7	3
3733400	PROB	n/a	LTP269	ltpFR2	8	n/a	n/a	n/a	25	18	7	9	2
3735351	PROB	n/a	LTP269	ltpFR2	8	n/a	n/a	n/a	25	20	7	9	4
3740135	STOP	n/a	LTP269	ltpFR2	8	n/a	n/a	n/a	25	n/a	n/a	n/a	n/a
3741217	WORD	wordpools/wasnorm_wordpool_576.txt	LTP269	ltpFR2	8	18	NECKLACE	940	n/a	n/a	0	0	0
3743654	WORD	wordpools/wasnorm_wordpool_576.txt	LTP269	ltpFR2	8	18	MEDAL	885	n/a	n/a	0	0	0
3746138	WORD	wordpools/wasnorm_wordpool_576.txt	LTP269	ltpFR2	8	18	AWARD	63	n/a	n/a	0	0	0
3748857	WORD	wordpools/wasnorm_wordpool_576.txt	LTP269	ltpFR2	8	18	BROOK	177	n/a	n/a	0	0	0
3751310	WORD	wordpools/wasnorm_wordpool_576.txt	LTP269	ltpFR2	8	18	BELLY	119	n/a	n/a	0	0	0
3753765	WORD	wordpools/wasnorm_wordpool_576.txt	LTP269	ltpFR2	8	18	CARRIAGE	248	n/a	n/a	0	0	0
3756398	WORD	wordpools/wasnorm_wordpool_576.txt	LTP269	ltpFR2	8	18	RATTLE	1170	n/a	n/a	0	0	0
3758932	WORD	wordpools/wasnorm_wordpool_576.txt	LTP269	ltpFR2	8	18	FRAGRANCE	599	n/a	n/a	0	0	0
3761368	WORD	wordpools/wasnorm_wordpool_576.txt	LTP269	ltpFR2	8	18	LUGGAGE	847	n/a	n/a	0	0	0
3764070	WORD	wordpools/wasnorm_wordpool_576.txt	LTP269	ltpFR2	8	18	NAPKIN	937	n/a	n/a	0	0	0
3766576	WORD	wordpools/wasnorm_wordpool_576.txt	LTP269	ltpFR2	8	18	CHAUFFEUR	283	n/a	n/a	0	0	0
3769259	WORD	wordpools/wasnorm_wordpool_576.txt	LTP269	ltpFR2	8	18	CLAMP	316	n/a	n/a	0	0	0
3771860	WORD	wordpools/wasnorm_wordpool_576.txt	LTP269	ltpFR2	8	18	SLOPE	1328	n/a	n/a	0	0	0
3774363	WORD	wordpools/wasnorm_wordpool_576.txt	LTP269	ltpFR2	8	18	BROTHER	179	n/a	n/a	0	0	0
3777132	WORD	wordpools/wasnorm_wordpool_576.txt	LTP269	ltpFR2	8	18	STAKE	1368	n/a	n/a	0	0	0
3779685	WORD	wordpools/wasnorm_wordpool_576.txt	LTP269	ltpFR2	8	18	COOKBOOK	373	n/a	n/a	0	0	0
3782505	WORD	wordpools/wasnorm_wordpool_576.txt	LTP269	ltpFR2	8	18	CRITIC	410	n/a	n/a	0	0	0
3785006	WORD	wordpools/wasnorm_wordpool_576.txt	LTP269	ltpFR2	8	18	SUPPER	1411	n/a	n/a	0	0	0
3787775	WORD	wordpools/wasnorm_wordpool_576.txt	LTP269	ltpFR2	8	18	PREACHER	1119	n/a	n/a	0	0	0
3790510	WORD	wordpools/wasnorm_wordpool_576.txt	LTP269	ltpFR2	8	18	PASTA	1021	n/a	n/a	0	0	0
3793112	WORD	wordpools/wasnorm_wordpool_576.txt	LTP269	ltpFR2	8	18	COTTAGE	384	n/a	n/a	0	0	0
3795731	WORD	wordpools/wasnorm_wordpool_576.txt	LTP269	ltpFR2	8	18	BLUEPRINT	142	n/a	n/a	0	0	0
3798435	WORD	wordpools/wasnorm_wordpool_576.txt	LTP269	ltpFR2	8	18	TOURIST	1488	n/a	n/a	0	0	0
3800952	WORD	wordpools/wasnorm_wordpool_576.txt	LTP269	ltpFR2	8	18	SISTER	1312	n/a	n/a	0	0	0
3802572	START	n/a	LTP269	ltpFR2	8	n/a	n/a	n/a	26	n/a	n/a	n/a	n/a
3803662	DISTRACTOR	n/a	LTP269	ltpFR2	8	18	n/a	n/a	n/a	n/a	0	0	0
3803672	PROB	n/a	LTP269	ltpFR2	8	n/a	n/a	n/a	26	10	2	5	3
3806441	PROB	n/a	LTP269	ltpFR2	8	n/a	n/a	n/a	26	22	9	6	7
3808110	PROB	n/a	LTP269	ltpFR2	8	n/a	n/a	n/a	26	10	7	2	1
3809611	PROB	n/a	LTP269	ltpFR2	8	n/a	n/a	n/a	26	20	7	7	6
3811680	PROB	n/a	LTP269	ltpFR2	8	n/a	n/a	n/a	26	20	7	4	9
3813745	PROB	n/a	LTP269	ltpFR2	8	n/a	n/a	n/a	26	11	2	8	1
3818384	PROB	n/a	LTP269	ltpFR2	8	n/a	n/a	n/a	26	14	3	4	7
3820319	PROB	n/a	LTP269	ltpFR2	8	n/a	n/a	n/a	26	12	2	1	9
3821619	PROB	n/a	LTP269	ltpFR2	8	n/a	n/a	n/a	26	15	6	6	3
3822988	PROB	n/a	LTP269	ltpFR2	8	n/a	n/a	n/a	26	14	6	3	5
3826218	STOP	n/a	LTP269	ltpFR2	8	n/a	n/a	n/a	26	n/a	n/a	n/a	n/a
3828527	REC_START	n/a	LTP269	ltpFR2	8	18	n/a	n/a	n/a	n/a	0	0	0
3829125	REC_WORD	wordpools/wasnorm_wordpool_576.txt	LTP269	ltpFR2	8	18	BROOK	177	n/a	n/a	0	0	0
3829555	REC_WORD	wordpools/wasnorm_wordpool_576.txt	LTP269	ltpFR2	8	18	BELLY	119	n/a	n/a	0	0	0
3830301	REC_WORD	wordpools/wasnorm_wordpool_576.txt	LTP269	ltpFR2	8	18	MEDAL	885	n/a	n/a	0	0	0
3831416	REC_WORD	wordpools/wasnorm_wordpool_576.txt	LTP269	ltpFR2	8	18	NECKLACE	940	n/a	n/a	0	0	0
3834466	REC_WORD	wordpools/wasnorm_wordpool_576.txt	LTP269	ltpFR2	8	18	CARRIAGE	248	n/a	n/a	0	0	0
3835666	REC_WORD	wordpools/wasnorm_wordpool_576.txt	LTP269	ltpFR2	8	18	CLAMP	316	n/a	n/a	0	0	0
3836053	REC_WORD	wordpools/wasnorm_wordpool_576.txt	LTP269	ltpFR2	8	18	SLOPE	1328	n/a	n/a	0	0	0
3838051	REC_WORD	wordpools/wasnorm_wordpool_576.txt	LTP269	ltpFR2	8	18	BROTHER	179	n/a	n/a	0	0	0
3842463	REC_WORD	wordpools/wasnorm_wordpool_576.txt	LTP269	ltpFR2	8	18	CHAUFFEUR	283	n/a	n/a	0	0	0
3918948	DISTRACTOR	n/a	LTP269	ltpFR2	8	19	n/a	n/a	n/a	n/a	0	0	0
3918948	START	n/a	LTP269	ltpFR2	8	n/a	n/a	n/a	27	n/a	n/a	n/a	n/a
3918964	PROB	n/a	LTP269	ltpFR2	8	n/a	n/a	n/a	27	6	2	1	3
3920384	PROB	n/a	LTP269	ltpFR2	8	n/a	n/a	n/a	27	22	9	8	5
3923234	PROB	n/a	LTP269	ltpFR2	8	n/a	n/a	n/a	27	16	7	2	7
3926654	PROB	n/a	LTP269	ltpFR2	8	n/a	n/a	n/a	27	20	6	8	6
3928507	PROB	n/a	LTP269	ltpFR2	8	n/a	n/a	n/a	27	16	2	8	6
3930373	PROB	n/a	LTP269	ltpFR2	8	n/a	n/a	n/a	27	11	3	1	7
3932026	PROB	n/a	LTP269	ltpFR2	8	n/a	n/a	n/a	27	20	9	6	5
3934843	PROB	n/a	LTP269	ltpFR2	8	n/a	n/a	n/a	27	15	4	5	6
3936878	PROB	n/a	LTP269	ltpFR2	8	n/a	n/a	n/a	27	19	9	2	8
3938229	PROB	n/a	LTP269	ltpFR2	8	n/a	n/a	n/a	27	15	7	7	1
3939565	PROB	n/a	LTP269	ltpFR2	8	n/a	n/a	n/a	27	12	7	2	3
3942948	STOP	n/a	LTP269	ltpFR2	8	n/a	n/a	n/a	27	n/a	n/a	n/a	n/a
3944027	WORD	wordpools/wasnorm_wordpool_576.txt	LTP269	ltpFR2	8	19	LEG	809	n/a	n/a	0	0	0
3946813	WORD	wordpools/wasnorm_wordpool_576.txt	LTP269	ltpFR2	8	19	BUGGY	188	n/a	n/a	0	0	0
3949616	WORD	wordpools/wasnorm_wordpool_576.txt	LTP269	ltpFR2	8	19	GLOBE	641	n/a	n/a	0	0	0
3952241	WORD	wordpools/wasnorm_wordpool_576.txt	LTP269	ltpFR2	8	19	OINTMENT	974	n/a	n/a	0	0	0
3954736	WORD	wordpools/wasnorm_wordpool_576.txt	LTP269	ltpFR2	8	19	SLIME	1327	n/a	n/a	0	0	0
3957213	WORD	wordpools/wasnorm_wordpool_576.txt	LTP269	ltpFR2	8	19	VALLEY	1545	n/a	n/a	0	0	0
3959992	WORD	wordpools/wasnorm_wordpool_576.txt	LTP269	ltpFR2	8	19	SUMMIT	1405	n/a	n/a	0	0	0
3962727	WORD	wordpools/wasnorm_wordpool_576.txt	LTP269	ltpFR2	8	19	KNAPSACK	783	n/a	n/a	0	0	0
3965313	WORD	wordpools/wasnorm_wordpool_576.txt	LTP269	ltpFR2	8	19	CLIMBER	323	n/a	n/a	0	0	0
3968032	WORD	wordpools/wasnorm_wordpool_576.txt	LTP269	ltpFR2	8	19	NEUTRON	947	n/a	n/a	0	0	0
3970451	WORD	wordpools/wasnorm_wordpool_576.txt	LTP269	ltpFR2	8	19	CASHIER	254	n/a	n/a	0	0	0
3972891	WORD	wordpools/wasnorm_wordpool_576.txt	LTP269	ltpFR2	8	19	CANYON	235	n/a	n/a	0	0	0
3975573	WORD	wordpools/wasnorm_wordpool_576.txt	LTP269	ltpFR2	8	19	BOARD	143	n/a	n/a	0	0	0
3978023	WORD	wordpools/wasnorm_wordpool_576.txt	LTP269	ltpFR2	8	19	HAND	683	n/a	n/a	0	0	0
3980747	WORD	wordpools/wasnorm_wordpool_576.txt	LTP269	ltpFR2	8	19	FLASK	576	n/a	n/a	0	0	0
3983334	WORD	wordpools/wasnorm_wordpool_576.txt	LTP269	ltpFR2	8	19	DRUG	501	n/a	n/a	0	0	0
3985980	WORD	wordpools/wasnorm_wordpool_576.txt	LTP269	ltpFR2	8	19	BABY	64	n/a	n/a	0	0	0
3988770	WORD	wordpools/wasnorm_wordpool_576.txt	LTP269	ltpFR2	8	19	ANKLE	24	n/a	n/a	0	0	0
3991503	WORD	wordpools/wasnorm_wordpool_576.txt	LTP269	ltpFR2	8	19	SUBWAY	1400	n/a	n/a	0	0	0
3993921	WORD	wordpools/wasnorm_wordpool_576.txt	LTP269	ltpFR2	8	19	GARDEN	623	n/a	n/a	0	0	0
3996578	WORD	wordpools/wasnorm_wordpool_576.txt	LTP269	ltpFR2	8	19	DAISY	435	n/a	n/a	0	0	0
3999245	WORD	wordpools/wasnorm_wordpool_576.txt	LTP269	ltpFR2	8	19	AIRPORT	13	n/a	n/a	0	0	0
4001777	WORD	wordpools/wasnorm_wordpool_576.txt	LTP269	ltpFR2	8	19	BEAKER	104	n/a	n/a	0	0	0
4004447	WORD	wordpools/wasnorm_wordpool_576.txt	LTP269	ltpFR2	8	19	FOOT	590	n/a	n/a	0	0	0
4006052	START	n/a	LTP269	ltpFR2	8	n/a	n/a	n/a	28	n/a	n/a	n/a	n/a
4006990	DISTRACTOR	n/a	LTP269	ltpFR2	8	19	n/a	n/a	n/a	n/a	0	0	0
4006999	PROB	n/a	LTP269	ltpFR2	8	n/a	n/a	n/a	28	14	6	6	2
4008533	PROB	n/a	LTP269	ltpFR2	8	n/a	n/a	n/a	28	17	8	3	6
4010852	PROB	n/a	LTP269	ltpFR2	8	n/a	n/a	n/a	28	10	5	2	3
4012387	PROB	n/a	LTP269	ltpFR2	8	n/a	n/a	n/a	28	11	1	2	8
4014644	PROB	n/a	LTP269	ltpFR2	8	n/a	n/a	n/a	28	12	5	2	5
4015957	PROB	n/a	LTP269	ltpFR2	8	n/a	n/a	n/a	28	14	1	4	9
4017807	PROB	n/a	LTP269	ltpFR2	8	n/a	n/a	n/a	28	23	9	8	6
4020109	PROB	n/a	LTP269	ltpFR2	8	n/a	n/a	n/a	28	5	1	1	3
4021396	PROB	n/a	LTP269	ltpFR2	8	n/a	n/a	n/a	28	24	8	7	9
4026316	PROB	n/a	LTP269	ltpFR2	8	n/a	n/a	n/a	28	13	8	4	1
4029050	STOP	n/a	LTP269	ltpFR2	8	n/a	n/a	n/a	28	n/a	n/a	n/a	n/a
4031990	REC_START	n/a	LTP269	ltpFR2	8	19	n/a	n/a	n/a	n/a	0	0	0
4037967	REC_WORD	wordpools/wasnorm_wordpool_576.txt	LTP269	ltpFR2	8	19	BUGGY	188	n/a	n/a	0	0	0
4038425	REC_WORD	wordpools/wasnorm_wordpool_576.txt	LTP269	ltpFR2	8	19	LEG	809	n/a	n/a	0	0	0
4040893	REC_WORD	wordpools/wasnorm_wordpool_576.txt	LTP269	ltpFR2	8	19	GLOBE	641	n/a	n/a	0	0	0
4042577	REC_WORD	wordpools/wasnorm_wordpool_576.txt	LTP269	ltpFR2	8	19	CLIMBER	323	n/a	n/a	0	0	0
4043133	REC_WORD	wordpools/wasnorm_wordpool_576.txt	LTP269	ltpFR2	8	19	ANKLE	24	n/a	n/a	0	0	0
4046153	REC_WORD	wordpools/wasnorm_wordpool_576.txt	LTP269	ltpFR2	8	19	KNAPSACK	783	n/a	n/a	0	0	0
4046841	REC_WORD	wordpools/wasnorm_wordpool_576.txt	LTP269	ltpFR2	8	19	BABY	64	n/a	n/a	0	0	0
4047414	REC_WORD	wordpools/wasnorm_wordpool_576.txt	LTP269	ltpFR2	8	19	DRUG	501	n/a	n/a	0	0	0
4048064	REC_WORD_VV	wordpools/wasnorm_wordpool_576.txt	LTP269	ltpFR2	8	19	<>	-1	n/a	n/a	0	0	0
4050600	REC_WORD	wordpools/wasnorm_wordpool_576.txt	LTP269	ltpFR2	8	19	DAISY	435	n/a	n/a	0	0	0
4051102	REC_WORD	wordpools/wasnorm_wordpool_576.txt	LTP269	ltpFR2	8	19	GARDEN	623	n/a	n/a	0	0	0
4076759	REC_WORD_VV	wordpools/wasnorm_wordpool_576.txt	LTP269	ltpFR2	8	19	<>	-1	n/a	n/a	0	0	0
4122429	WORD	wordpools/wasnorm_wordpool_576.txt	LTP269	ltpFR2	8	20	PLAID	1080	n/a	n/a	0	0	0
4125113	WORD	wordpools/wasnorm_wordpool_576.txt	LTP269	ltpFR2	8	20	SHIRT	1287	n/a	n/a	0	0	0
4127782	WORD	wordpools/wasnorm_wordpool_576.txt	LTP269	ltpFR2	8	20	BLENDER	136	n/a	n/a	0	0	0
4130403	WORD	wordpools/wasnorm_wordpool_576.txt	LTP269	ltpFR2	8	20	MUSTARD	935	n/a	n/a	0	0	0
4133054	WORD	wordpools/wasnorm_wordpool_576.txt	LTP269	ltpFR2	8	20	WHISTLE	1606	n/a	n/a	0	0	0
4135739	WORD	wordpools/wasnorm_wordpool_576.txt	LTP269	ltpFR2	8	20	CRAYON	401	n/a	n/a	0	0	0
4138240	WORD	wordpools/wasnorm_wordpool_576.txt	LTP269	ltpFR2	8	20	CITRUS	313	n/a	n/a	0	0	0
4140960	WORD	wordpools/wasnorm_wordpool_576.txt	LTP269	ltpFR2	8	20	BOX	159	n/a	n/a	0	0	0
4143712	WORD	wordpools/wasnorm_wordpool_576.txt	LTP269	ltpFR2	8	20	TOASTER	1472	n/a	n/a	0	0	0
4146298	WORD	wordpools/wasnorm_wordpool_576.txt	LTP269	ltpFR2	8	20	SWITCH	1422	n/a	n/a	0	0	0
4148866	WORD	wordpools/wasnorm_wordpool_576.txt	LTP269	ltpFR2	8	20	KEEPER	769	n/a	n/a	0	0	0
4151303	WORD	wordpools/wasnorm_wordpool_576.txt	LTP269	ltpFR2	8	20	AGENT	10	n/a	n/a	0	0	0
4153926	WORD	wordpools/wasnorm_wordpool_576.txt	LTP269	ltpFR2	8	20	SCARECROW	1245	n/a	n/a	0	0	0
4156507	WORD	wordpools/wasnorm_wordpool_576.txt	LTP269	ltpFR2	8	20	FLASHLIGHT	575	n/a	n/a	0	0	0
4159225	WORD	wordpools/wasnorm_wordpool_576.txt	LTP269	ltpFR2	8	20	CLOUD	328	n/a	n/a	0	0	0
4161726	WORD	wordpools/wasnorm_wordpool_576.txt	LTP269	ltpFR2	8	20	FARMER	553	n/a	n/a	0	0	0
4164170	WORD	wordpools/wasnorm_wordpool_576.txt	LTP269	ltpFR2	8	20	NOTEBOOK	959	n/a	n/a	0	0	0
4166772	WORD	wordpools/wasnorm_wordpool_576.txt	LTP269	ltpFR2	8	20	SCRIBBLE	1256	n/a	n/a	0	0	0
4169434	WORD	wordpools/wasnorm_wordpool_576.txt	LTP269	ltpFR2	8	20	RELISH	1183	n/a	n/a	0	0	0
4171959	WORD	wordpools/wasnorm_wordpool_576.txt	LTP269	ltpFR2	8	20	SHELTER	1282	n/a	n/a	0	0	0
4174629	WORD	wordpools/wasnorm_wordpool_576.txt	LTP269	ltpFR2	8	20	WHISKERS	1605	n/a	n/a	0	0	0
4177106	WORD	wordpools/wasnorm_wordpool_576.txt	LTP269	ltpFR2	8	20	PIGMENT	1066	n/a	n/a	0	0	0
4179891	WORD	wordpools/wasnorm_wordpool_576.txt	LTP269	ltpFR2	8	20	PEBBLE	1035	n/a	n/a	0	0	0
4182403	WORD	wordpools/wasnorm_wordpool_576.txt	LTP269	ltpFR2	8	20	RECEIPT	1173	n/a	n/a	0	0	0
4184011	START	n/a	LTP269	ltpFR2	8	n/a	n/a	n/a	29	n/a	n/a	n/a	n/a
4184892	DISTRACTOR	n/a	LTP269	ltpFR2	8	20	n/a	n/a	n/a	n/a	0	0	0
4184905	PROB	n/a	LTP269	ltpFR2	8	n/a	n/a	n/a	29	11	2	2	7
4187264	PROB	n/a	LTP269	ltpFR2	8	n/a	n/a	n/a	29	16	5	6	5
4189482	PROB	n/a	LTP269	ltpFR2	8	n/a	n/a	n/a	29	17	5	7	5
4192317	PROB	n/a	LTP269	ltpFR2	8	n/a	n/a	n/a	29	19	6	8	5
4194552	PROB	n/a	LTP269	ltpFR2	8	n/a	n/a	n/a	29	12	1	7	4
4196488	PROB	n/a	LTP269	ltpFR2	8	n/a	n/a	n/a	29	21	8	5	8
4198390	PROB	n/a	LTP269	ltpFR2	8	n/a	n/a	n/a	29	15	5	1	9
4200440	PROB	n/a	LTP269	ltpFR2	8	n/a	n/a	n/a	29	19	8	9	2
4202561	PROB	n/a	LTP269	ltpFR2	8	n/a	n/a	n/a	29	14	5	5	4
4204494	PROB	n/a	LTP269	ltpFR2	8	n/a	n/a	n/a	29	17	6	6	5
4207201	STOP	n/a	LTP269	ltpFR2	8	n/a	n/a	n/a	29	n/a	n/a	n/a	n/a
4209781	REC_START	n/a	LTP269	ltpFR2	8	20	n/a	n/a	n/a	n/a	0	0	0
4210835	REC_WORD	wordpools/wasnorm_wordpool_576.txt	LTP269	ltpFR2	8	20	PLAID	1080	n/a	n/a	0	0	0
4211475	REC_WORD	wordpools/wasnorm_wordpool_576.txt	LTP269	ltpFR2	8	20	SHIRT	1287	n/a	n/a	0	0	0
4212524	REC_WORD	wordpools/wasnorm_wordpool_576.txt	LTP269	ltpFR2	8	20	MUSTARD	935	n/a	n/a	0	0	0
4213080	REC_WORD	wordpools/wasnorm_wordpool_576.txt	LTP269	ltpFR2	8	20	BLENDER	136	n/a	n/a	0	0	0
4214059	REC_WORD	wordpools/wasnorm_wordpool_576.txt	LTP269	ltpFR2	8	20	CITRUS	313	n/a	n/a	0	0	0
4215648	REC_WORD_VV	wordpools/wasnorm_wordpool_576.txt	LTP269	ltpFR2	8	20	<>	-1	n/a	n/a	0	0	0
4216968	REC_WORD	wordpools/wasnorm_wordpool_576.txt	LTP269	ltpFR2	8	20	RELISH	1183	n/a	n/a	0	0	0
4219297	REC_WORD	wordpools/wasnorm_wordpool_576.txt	LTP269	ltpFR2	8	20	WHISKERS	1605	n/a	n/a	0	0	0
4221489	REC_WORD	wordpools/wasnorm_wordpool_576.txt	LTP269	ltpFR2	8	20	AGENT	10	n/a	n/a	0	0	0
4221954	REC_WORD	wordpools/wasnorm_wordpool_576.txt	LTP269	ltpFR2	8	20	SCARECROW	1245	n/a	n/a	0	0	0
4224053	REC_WORD_VV	wordpools/wasnorm_wordpool_576.txt	LTP269	ltpFR2	8	20	<>	-1	n/a	n/a	0	0	0
4225136	REC_WORD	wordpools/wasnorm_wordpool_576.txt	LTP269	ltpFR2	8	20	CLOUD	328	n/a	n/a	0	0	0
4226395	REC_WORD	wordpools/wasnorm_wordpool_576.txt	LTP269	ltpFR2	8	20	FARMER	553	n/a	n/a	0	0	0
4228877	REC_WORD	wordpools/wasnorm_wordpool_576.txt	LTP269	ltpFR2	8	20	NOTEBOOK	959	n/a	n/a	0	0	0
4230860	REC_WORD	wordpools/wasnorm_wordpool_576.txt	LTP269	ltpFR2	8	20	SCRIBBLE	1256	n/a	n/a	0	0	0
4300238	DISTRACTOR	n/a	LTP269	ltpFR2	8	21	n/a	n/a	n/a	n/a	0	0	0
4300238	START	n/a	LTP269	ltpFR2	8	n/a	n/a	n/a	30	n/a	n/a	n/a	n/a
4300256	PROB	n/a	LTP269	ltpFR2	8	n/a	n/a	n/a	30	12	6	3	3
4301622	PROB	n/a	LTP269	ltpFR2	8	n/a	n/a	n/a	30	20	5	8	7
4303590	PROB	n/a	LTP269	ltpFR2	8	n/a	n/a	n/a	30	13	8	1	4
4304974	PROB	n/a	LTP269	ltpFR2	8	n/a	n/a	n/a	30	17	7	9	1
4306825	PROB	n/a	LTP269	ltpFR2	8	n/a	n/a	n/a	30	7	3	2	2
4309894	PROB	n/a	LTP269	ltpFR2	8	n/a	n/a	n/a	30	19	6	5	8
4313534	PROB	n/a	LTP269	ltpFR2	8	n/a	n/a	n/a	30	17	4	9	5
4316317	PROB	n/a	LTP269	ltpFR2	8	n/a	n/a	n/a	30	17	7	7	3
4318184	PROB	n/a	LTP269	ltpFR2	8	n/a	n/a	n/a	30	6	4	1	1
4319638	PROB	n/a	LTP269	ltpFR2	8	n/a	n/a	n/a	30	21	8	5	9
4324238	STOP	n/a	LTP269	ltpFR2	8	n/a	n/a	n/a	30	n/a	n/a	n/a	n/a
4325343	WORD	wordpools/wasnorm_wordpool_576.txt	LTP269	ltpFR2	8	21	WITNESS	1618	n/a	n/a	0	0	0
4328079	WORD	wordpools/wasnorm_wordpool_576.txt	LTP269	ltpFR2	8	21	VALVE	1546	n/a	n/a	0	0	0
4330879	WORD	wordpools/wasnorm_wordpool_576.txt	LTP269	ltpFR2	8	21	DRIVER	499	n/a	n/a	0	0	0
4333697	WORD	wordpools/wasnorm_wordpool_576.txt	LTP269	ltpFR2	8	21	HIGHWAY	707	n/a	n/a	0	0	0
4336251	WORD	wordpools/wasnorm_wordpool_576.txt	LTP269	ltpFR2	8	21	COUNTRY	388	n/a	n/a	0	0	0
4338985	WORD	wordpools/wasnorm_wordpool_576.txt	LTP269	ltpFR2	8	21	THIEF	1456	n/a	n/a	0	0	0
4341622	WORD	wordpools/wasnorm_wordpool_576.txt	LTP269	ltpFR2	8	21	FRUIT	610	n/a	n/a	0	0	0
4344374	WORD	wordpools/wasnorm_wordpool_576.txt	LTP269	ltpFR2	8	21	SHELF	1280	n/a	n/a	0	0	0
4347125	WORD	wordpools/wasnorm_wordpool_576.txt	LTP269	ltpFR2	8	21	RACKET	1155	n/a	n/a	0	0	0
4349665	WORD	wordpools/wasnorm_wordpool_576.txt	LTP269	ltpFR2	8	21	SERVER	1272	n/a	n/a	0	0	0
4352130	WORD	wordpools/wasnorm_wordpool_576.txt	LTP269	ltpFR2	8	21	FILM	565	n/a	n/a	0	0	0
4354654	WORD	wordpools/wasnorm_wordpool_576.txt	LTP269	ltpFR2	8	21	YARN	1631	n/a	n/a	0	0	0
4357200	WORD	wordpools/wasnorm_wordpool_576.txt	LTP269	ltpFR2	8	21	GALLON	618	n/a	n/a	0	0	0
4359707	WORD	wordpools/wasnorm_wordpool_576.txt	LTP269	ltpFR2	8	21	POISON	1096	n/a	n/a	0	0	0
4362472	WORD	wordpools/wasnorm_wordpool_576.txt	LTP269	ltpFR2	8	21	SMOG	1330	n/a	n/a	0	0	0
4365279	WORD	wordpools/wasnorm_wordpool_576.txt	LTP269	ltpFR2	8	21	MASK	876	n/a	n/a	0	0	0
4368042	WORD	wordpools/wasnorm_wordpool_576.txt	LTP269	ltpFR2	8	21	LAMP	798	n/a	n/a	0	0	0
