mstime	trial_type	stim_file	subject	experiment	session	trial	item_name	item_num	list	answer	test_x	test_y	test_z
0	SESS_START	n/a	LTP379	ltpFR2	2	n/a	n/a	n/a	n/a	n/a	0	0	0
24252	START	n/a	LTP379	ltpFR2	2	n/a	n/a	n/a	-1	n/a	n/a	n/a	n/a
24283	PROB	n/a	LTP379	ltpFR2	2	n/a	n/a	n/a	-1	10	2	7	1
25966	PROB	n/a	LTP379	ltpFR2	2	n/a	n/a	n/a	-1	17	5	9	3
28233	PROB	n/a	LTP379	ltpFR2	2	n/a	n/a	n/a	-1	17	1	8	8
29766	PROB	n/a	LTP379	ltpFR2	2	n/a	n/a	n/a	-1	12	1	3	8
31233	PROB	n/a	LTP379	ltpFR2	2	n/a	n/a	n/a	-1	20	4	9	7
33016	PROB	n/a	LTP379	ltpFR2	2	n/a	n/a	n/a	-1	20	3	8	9
35104	STOP	n/a	LTP379	ltpFR2	2	n/a	n/a	n/a	-1	n/a	n/a	n/a	n/a
69832	WORD	wordpools/wasnorm_wordpool_576.txt	LTP379	ltpFR2	2	1	GREASE	660	n/a	n/a	0	0	0
72632	WORD	wordpools/wasnorm_wordpool_576.txt	LTP379	ltpFR2	2	1	ROOSTER	1209	n/a	n/a	0	0	0
75082	WORD	wordpools/wasnorm_wordpool_576.txt	LTP379	ltpFR2	2	1	DRESS	495	n/a	n/a	0	0	0
77816	WORD	wordpools/wasnorm_wordpool_576.txt	LTP379	ltpFR2	2	1	OUTDOORS	987	n/a	n/a	0	0	0
80449	WORD	wordpools/wasnorm_wordpool_576.txt	LTP379	ltpFR2	2	1	GOBLIN	645	n/a	n/a	0	0	0
82999	WORD	wordpools/wasnorm_wordpool_576.txt	LTP379	ltpFR2	2	1	VELVET	1555	n/a	n/a	0	0	0
85699	WORD	wordpools/wasnorm_wordpool_576.txt	LTP379	ltpFR2	2	1	BOX	159	n/a	n/a	0	0	0
88215	WORD	wordpools/wasnorm_wordpool_576.txt	LTP379	ltpFR2	2	1	ULCER	1533	n/a	n/a	0	0	0
90915	WORD	wordpools/wasnorm_wordpool_576.txt	LTP379	ltpFR2	2	1	CELLAR	267	n/a	n/a	0	0	0
93732	WORD	wordpools/wasnorm_wordpool_576.txt	LTP379	ltpFR2	2	1	GIFT	635	n/a	n/a	0	0	0
96199	WORD	wordpools/wasnorm_wordpool_576.txt	LTP379	ltpFR2	2	1	LODGE	839	n/a	n/a	0	0	0
98999	WORD	wordpools/wasnorm_wordpool_576.txt	LTP379	ltpFR2	2	1	SILK	1307	n/a	n/a	0	0	0
101532	WORD	wordpools/wasnorm_wordpool_576.txt	LTP379	ltpFR2	2	1	SLIDE	1326	n/a	n/a	0	0	0
104332	WORD	wordpools/wasnorm_wordpool_576.txt	LTP379	ltpFR2	2	1	STREAM	1392	n/a	n/a	0	0	0
106948	WORD	wordpools/wasnorm_wordpool_576.txt	LTP379	ltpFR2	2	1	FLOWER	584	n/a	n/a	0	0	0
109448	WORD	wordpools/wasnorm_wordpool_576.txt	LTP379	ltpFR2	2	1	CRAYON	401	n/a	n/a	0	0	0
111998	WORD	wordpools/wasnorm_wordpool_576.txt	LTP379	ltpFR2	2	1	BRICK	172	n/a	n/a	0	0	0
114548	WORD	wordpools/wasnorm_wordpool_576.txt	LTP379	ltpFR2	2	1	SLUG	1329	n/a	n/a	0	0	0
117148	WORD	wordpools/wasnorm_wordpool_576.txt	LTP379	ltpFR2	2	1	TURTLE	1522	n/a	n/a	0	0	0
119665	WORD	wordpools/wasnorm_wordpool_576.txt	LTP379	ltpFR2	2	1	DRILL	497	n/a	n/a	0	0	0
122265	WORD	wordpools/wasnorm_wordpool_576.txt	LTP379	ltpFR2	2	1	PLIERS	1089	n/a	n/a	0	0	0
124698	WORD	wordpools/wasnorm_wordpool_576.txt	LTP379	ltpFR2	2	1	VALVE	1546	n/a	n/a	0	0	0
127181	WORD	wordpools/wasnorm_wordpool_576.txt	LTP379	ltpFR2	2	1	FRAGRANCE	599	n/a	n/a	0	0	0
129965	WORD	wordpools/wasnorm_wordpool_576.txt	LTP379	ltpFR2	2	1	MEAT	883	n/a	n/a	0	0	0
131581	START	n/a	LTP379	ltpFR2	2	n/a	n/a	n/a	1	n/a	n/a	n/a	n/a
132401	DISTRACTOR	n/a	LTP379	ltpFR2	2	1	n/a	n/a	n/a	n/a	0	0	0
132415	PROB	n/a	LTP379	ltpFR2	2	n/a	n/a	n/a	1	23	9	5	9
134165	PROB	n/a	LTP379	ltpFR2	2	n/a	n/a	n/a	1	11	2	8	1
135398	PROB	n/a	LTP379	ltpFR2	2	n/a	n/a	n/a	1	10	5	3	2
138297	PROB	n/a	LTP379	ltpFR2	2	n/a	n/a	n/a	1	19	4	8	7
139998	PROB	n/a	LTP379	ltpFR2	2	n/a	n/a	n/a	1	17	7	6	4
142231	PROB	n/a	LTP379	ltpFR2	2	n/a	n/a	n/a	1	23	9	5	9
143748	PROB	n/a	LTP379	ltpFR2	2	n/a	n/a	n/a	1	12	3	6	3
145098	PROB	n/a	LTP379	ltpFR2	2	n/a	n/a	n/a	1	13	3	1	9
146381	PROB	n/a	LTP379	ltpFR2	2	n/a	n/a	n/a	1	5	1	3	1
147448	PROB	n/a	LTP379	ltpFR2	2	n/a	n/a	n/a	1	11	1	4	6
148648	PROB	n/a	LTP379	ltpFR2	2	n/a	n/a	n/a	1	17	7	6	4
150464	PROB	n/a	LTP379	ltpFR2	2	n/a	n/a	n/a	1	18	6	3	9
152131	PROB	n/a	LTP379	ltpFR2	2	n/a	n/a	n/a	1	17	6	8	3
153864	PROB	n/a	LTP379	ltpFR2	2	n/a	n/a	n/a	1	20	8	3	9
155322	STOP	n/a	LTP379	ltpFR2	2	n/a	n/a	n/a	1	n/a	n/a	n/a	n/a
157481	REC_START	n/a	LTP379	ltpFR2	2	1	n/a	n/a	n/a	n/a	0	0	0
161954	REC_WORD	wordpools/wasnorm_wordpool_576.txt	LTP379	ltpFR2	2	1	GREASE	660	n/a	n/a	0	0	0
163357	REC_WORD	wordpools/wasnorm_wordpool_576.txt	LTP379	ltpFR2	2	1	ROOSTER	1209	n/a	n/a	0	0	0
165392	REC_WORD	wordpools/wasnorm_wordpool_576.txt	LTP379	ltpFR2	2	1	DRESS	495	n/a	n/a	0	0	0
167446	REC_WORD	wordpools/wasnorm_wordpool_576.txt	LTP379	ltpFR2	2	1	OUTDOORS	987	n/a	n/a	0	0	0
169714	REC_WORD	wordpools/wasnorm_wordpool_576.txt	LTP379	ltpFR2	2	1	GOBLIN	645	n/a	n/a	0	0	0
171350	REC_WORD	wordpools/wasnorm_wordpool_576.txt	LTP379	ltpFR2	2	1	VELVET	1555	n/a	n/a	0	0	0
173340	REC_WORD	wordpools/wasnorm_wordpool_576.txt	LTP379	ltpFR2	2	1	BOX	159	n/a	n/a	0	0	0
175517	REC_WORD	wordpools/wasnorm_wordpool_576.txt	LTP379	ltpFR2	2	1	GIFT	635	n/a	n/a	0	0	0
179504	REC_WORD	wordpools/wasnorm_wordpool_576.txt	LTP379	ltpFR2	2	1	CELLAR	267	n/a	n/a	0	0	0
182285	REC_WORD	wordpools/wasnorm_wordpool_576.txt	LTP379	ltpFR2	2	1	LODGE	839	n/a	n/a	0	0	0
186152	REC_WORD	wordpools/wasnorm_wordpool_576.txt	LTP379	ltpFR2	2	1	SILK	1307	n/a	n/a	0	0	0
188122	REC_WORD	wordpools/wasnorm_wordpool_576.txt	LTP379	ltpFR2	2	1	SLIDE	1326	n/a	n/a	0	0	0
189821	REC_WORD	wordpools/wasnorm_wordpool_576.txt	LTP379	ltpFR2	2	1	STREAM	1392	n/a	n/a	0	0	0
192434	REC_WORD	wordpools/wasnorm_wordpool_576.txt	LTP379	ltpFR2	2	1	FLOWER	584	n/a	n/a	0	0	0
193972	REC_WORD	wordpools/wasnorm_wordpool_576.txt	LTP379	ltpFR2	2	1	CRAYON	401	n/a	n/a	0	0	0
196066	REC_WORD	wordpools/wasnorm_wordpool_576.txt	LTP379	ltpFR2	2	1	SLUG	1329	n/a	n/a	0	0	0
197667	REC_WORD	wordpools/wasnorm_wordpool_576.txt	LTP379	ltpFR2	2	1	BRICK	172	n/a	n/a	0	0	0
199139	REC_WORD	wordpools/wasnorm_wordpool_576.txt	LTP379	ltpFR2	2	1	TURTLE	1522	n/a	n/a	0	0	0
200630	REC_WORD	wordpools/wasnorm_wordpool_576.txt	LTP379	ltpFR2	2	1	DRILL	497	n/a	n/a	0	0	0
202548	REC_WORD	wordpools/wasnorm_wordpool_576.txt	LTP379	ltpFR2	2	1	PLIERS	1089	n/a	n/a	0	0	0
206536	REC_WORD	wordpools/wasnorm_wordpool_576.txt	LTP379	ltpFR2	2	1	VALVE	1546	n/a	n/a	0	0	0
208290	REC_WORD	wordpools/wasnorm_wordpool_576.txt	LTP379	ltpFR2	2	1	FRAGRANCE	599	n/a	n/a	0	0	0
210322	REC_WORD	wordpools/wasnorm_wordpool_576.txt	LTP379	ltpFR2	2	1	MEAT	883	n/a	n/a	0	0	0
247929	DISTRACTOR	n/a	LTP379	ltpFR2	2	2	n/a	n/a	n/a	n/a	0	0	0
247930	START	n/a	LTP379	ltpFR2	2	n/a	n/a	n/a	2	n/a	n/a	n/a	n/a
247946	PROB	n/a	LTP379	ltpFR2	2	n/a	n/a	n/a	2	15	1	6	8
250146	PROB	n/a	LTP379	ltpFR2	2	n/a	n/a	n/a	2	18	6	8	4
252063	PROB	n/a	LTP379	ltpFR2	2	n/a	n/a	n/a	2	20	8	5	7
254263	PROB	n/a	LTP379	ltpFR2	2	n/a	n/a	n/a	2	17	1	9	7
255529	PROB	n/a	LTP379	ltpFR2	2	n/a	n/a	n/a	2	15	5	8	2
256779	PROB	n/a	LTP379	ltpFR2	2	n/a	n/a	n/a	2	7	1	5	1
259079	PROB	n/a	LTP379	ltpFR2	2	n/a	n/a	n/a	2	14	2	7	5
260596	PROB	n/a	LTP379	ltpFR2	2	n/a	n/a	n/a	2	10	6	3	1
261746	PROB	n/a	LTP379	ltpFR2	2	n/a	n/a	n/a	2	16	3	6	7
263229	PROB	n/a	LTP379	ltpFR2	2	n/a	n/a	n/a	2	23	7	7	9
264629	PROB	n/a	LTP379	ltpFR2	2	n/a	n/a	n/a	2	18	6	4	8
265963	PROB	n/a	LTP379	ltpFR2	2	n/a	n/a	n/a	2	20	8	7	5
267279	PROB	n/a	LTP379	ltpFR2	2	n/a	n/a	n/a	2	19	3	7	9
268729	PROB	n/a	LTP379	ltpFR2	2	n/a	n/a	n/a	2	22	5	9	8
271929	STOP	n/a	LTP379	ltpFR2	2	n/a	n/a	n/a	2	n/a	n/a	n/a	n/a
273162	WORD	wordpools/wasnorm_wordpool_576.txt	LTP379	ltpFR2	2	2	ACTOR	5	n/a	n/a	0	0	0
275896	WORD	wordpools/wasnorm_wordpool_576.txt	LTP379	ltpFR2	2	2	TABLET	1427	n/a	n/a	0	0	0
278612	WORD	wordpools/wasnorm_wordpool_576.txt	LTP379	ltpFR2	2	2	RABBIT	1152	n/a	n/a	0	0	0
281262	WORD	wordpools/wasnorm_wordpool_576.txt	LTP379	ltpFR2	2	2	JEANS	752	n/a	n/a	0	0	0
283862	WORD	wordpools/wasnorm_wordpool_576.txt	LTP379	ltpFR2	2	2	LIGHTNING	820	n/a	n/a	0	0	0
286328	WORD	wordpools/wasnorm_wordpool_576.txt	LTP379	ltpFR2	2	2	CRIB	407	n/a	n/a	0	0	0
288845	WORD	wordpools/wasnorm_wordpool_576.txt	LTP379	ltpFR2	2	2	ELBOW	520	n/a	n/a	0	0	0
291646	WORD	wordpools/wasnorm_wordpool_576.txt	LTP379	ltpFR2	2	2	HANDBAG	684	n/a	n/a	0	0	0
294295	WORD	wordpools/wasnorm_wordpool_576.txt	LTP379	ltpFR2	2	2	OZONE	996	n/a	n/a	0	0	0
296879	WORD	wordpools/wasnorm_wordpool_576.txt	LTP379	ltpFR2	2	2	QUEEN	1149	n/a	n/a	0	0	0
299695	WORD	wordpools/wasnorm_wordpool_576.txt	LTP379	ltpFR2	2	2	SHERIFF	1284	n/a	n/a	0	0	0
302279	WORD	wordpools/wasnorm_wordpool_576.txt	LTP379	ltpFR2	2	2	TAXI	1438	n/a	n/a	0	0	0
304979	WORD	wordpools/wasnorm_wordpool_576.txt	LTP379	ltpFR2	2	2	TRENCH	1503	n/a	n/a	0	0	0
307728	WORD	wordpools/wasnorm_wordpool_576.txt	LTP379	ltpFR2	2	2	HOOD	714	n/a	n/a	0	0	0
310412	WORD	wordpools/wasnorm_wordpool_576.txt	LTP379	ltpFR2	2	2	TROUT	1511	n/a	n/a	0	0	0
313112	WORD	wordpools/wasnorm_wordpool_576.txt	LTP379	ltpFR2	2	2	SEAFOOD	1260	n/a	n/a	0	0	0
315862	WORD	wordpools/wasnorm_wordpool_576.txt	LTP379	ltpFR2	2	2	DASHBOARD	441	n/a	n/a	0	0	0
318378	WORD	wordpools/wasnorm_wordpool_576.txt	LTP379	ltpFR2	2	2	COOK	372	n/a	n/a	0	0	0
321095	WORD	wordpools/wasnorm_wordpool_576.txt	LTP379	ltpFR2	2	2	PLAZA	1088	n/a	n/a	0	0	0
323895	WORD	wordpools/wasnorm_wordpool_576.txt	LTP379	ltpFR2	2	2	SHELF	1280	n/a	n/a	0	0	0
326712	WORD	wordpools/wasnorm_wordpool_576.txt	LTP379	ltpFR2	2	2	SISTER	1312	n/a	n/a	0	0	0
329512	WORD	wordpools/wasnorm_wordpool_576.txt	LTP379	ltpFR2	2	2	DAUGHTER	442	n/a	n/a	0	0	0
332178	WORD	wordpools/wasnorm_wordpool_576.txt	LTP379	ltpFR2	2	2	BALLOON	75	n/a	n/a	0	0	0
334978	WORD	wordpools/wasnorm_wordpool_576.txt	LTP379	ltpFR2	2	2	HAWK	692	n/a	n/a	0	0	0
336595	START	n/a	LTP379	ltpFR2	2	n/a	n/a	n/a	3	n/a	n/a	n/a	n/a
337623	DISTRACTOR	n/a	LTP379	ltpFR2	2	2	n/a	n/a	n/a	n/a	0	0	0
337628	PROB	n/a	LTP379	ltpFR2	2	n/a	n/a	n/a	3	12	6	3	3
339628	PROB	n/a	LTP379	ltpFR2	2	n/a	n/a	n/a	3	16	8	6	2
341411	PROB	n/a	LTP379	ltpFR2	2	n/a	n/a	n/a	3	12	1	3	8
342928	PROB	n/a	LTP379	ltpFR2	2	n/a	n/a	n/a	3	21	5	9	7
346728	PROB	n/a	LTP379	ltpFR2	2	n/a	n/a	n/a	3	18	1	9	8
348045	PROB	n/a	LTP379	ltpFR2	2	n/a	n/a	n/a	3	13	8	1	4
349478	PROB	n/a	LTP379	ltpFR2	2	n/a	n/a	n/a	3	7	3	3	1
350745	PROB	n/a	LTP379	ltpFR2	2	n/a	n/a	n/a	3	16	7	2	7
352278	PROB	n/a	LTP379	ltpFR2	2	n/a	n/a	n/a	3	16	6	9	1
353628	PROB	n/a	LTP379	ltpFR2	2	n/a	n/a	n/a	3	14	3	8	3
355846	PROB	n/a	LTP379	ltpFR2	2	n/a	n/a	n/a	3	13	1	8	4
357611	PROB	n/a	LTP379	ltpFR2	2	n/a	n/a	n/a	3	18	4	6	8
359090	STOP	n/a	LTP379	ltpFR2	2	n/a	n/a	n/a	3	n/a	n/a	n/a	n/a
362445	REC_START	n/a	LTP379	ltpFR2	2	2	n/a	n/a	n/a	n/a	0	0	0
366278	REC_WORD	wordpools/wasnorm_wordpool_576.txt	LTP379	ltpFR2	2	2	ACTOR	5	n/a	n/a	0	0	0
367731	REC_WORD	wordpools/wasnorm_wordpool_576.txt	LTP379	ltpFR2	2	2	TABLET	1427	n/a	n/a	0	0	0
370178	REC_WORD	wordpools/wasnorm_wordpool_576.txt	LTP379	ltpFR2	2	2	RABBIT	1152	n/a	n/a	0	0	0
371652	REC_WORD	wordpools/wasnorm_wordpool_576.txt	LTP379	ltpFR2	2	2	JEANS	752	n/a	n/a	0	0	0
373059	REC_WORD	wordpools/wasnorm_wordpool_576.txt	LTP379	ltpFR2	2	2	LIGHTNING	820	n/a	n/a	0	0	0
374717	REC_WORD_VV	wordpools/wasnorm_wordpool_576.txt	LTP379	ltpFR2	2	2	<>	-1	n/a	n/a	0	0	0
376598	REC_WORD	wordpools/wasnorm_wordpool_576.txt	LTP379	ltpFR2	2	2	CRIB	407	n/a	n/a	0	0	0
378044	REC_WORD	wordpools/wasnorm_wordpool_576.txt	LTP379	ltpFR2	2	2	ELBOW	520	n/a	n/a	0	0	0
379406	REC_WORD	wordpools/wasnorm_wordpool_576.txt	LTP379	ltpFR2	2	2	HANDBAG	684	n/a	n/a	0	0	0
380821	REC_WORD	wordpools/wasnorm_wordpool_576.txt	LTP379	ltpFR2	2	2	OZONE	996	n/a	n/a	0	0	0
383591	REC_WORD	wordpools/wasnorm_wordpool_576.txt	LTP379	ltpFR2	2	2	SHERIFF	1284	n/a	n/a	0	0	0
385394	REC_WORD	wordpools/wasnorm_wordpool_576.txt	LTP379	ltpFR2	2	2	QUEEN	1149	n/a	n/a	0	0	0
390867	REC_WORD	wordpools/wasnorm_wordpool_576.txt	LTP379	ltpFR2	2	2	TAXI	1438	n/a	n/a	0	0	0
394883	REC_WORD	wordpools/wasnorm_wordpool_576.txt	LTP379	ltpFR2	2	2	TRENCH	1503	n/a	n/a	0	0	0
397381	REC_WORD	wordpools/wasnorm_wordpool_576.txt	LTP379	ltpFR2	2	2	HOOD	714	n/a	n/a	0	0	0
398569	REC_WORD	wordpools/wasnorm_wordpool_576.txt	LTP379	ltpFR2	2	2	TROUT	1511	n/a	n/a	0	0	0
399657	REC_WORD	wordpools/wasnorm_wordpool_576.txt	LTP379	ltpFR2	2	2	SEAFOOD	1260	n/a	n/a	0	0	0
404989	REC_WORD	wordpools/wasnorm_wordpool_576.txt	LTP379	ltpFR2	2	2	DASHBOARD	441	n/a	n/a	0	0	0
406816	REC_WORD	wordpools/wasnorm_wordpool_576.txt	LTP379	ltpFR2	2	2	COOK	372	n/a	n/a	0	0	0
408561	REC_WORD	wordpools/wasnorm_wordpool_576.txt	LTP379	ltpFR2	2	2	PLAZA	1088	n/a	n/a	0	0	0
410522	REC_WORD	wordpools/wasnorm_wordpool_576.txt	LTP379	ltpFR2	2	2	SISTER	1312	n/a	n/a	0	0	0
412563	REC_WORD	wordpools/wasnorm_wordpool_576.txt	LTP379	ltpFR2	2	2	DAUGHTER	442	n/a	n/a	0	0	0
414057	REC_WORD	wordpools/wasnorm_wordpool_576.txt	LTP379	ltpFR2	2	2	BALLOON	75	n/a	n/a	0	0	0
415603	REC_WORD	wordpools/wasnorm_wordpool_576.txt	LTP379	ltpFR2	2	2	HAWK	692	n/a	n/a	0	0	0
452893	WORD	wordpools/wasnorm_wordpool_576.txt	LTP379	ltpFR2	2	3	TUTU	1524	n/a	n/a	0	0	0
455376	WORD	wordpools/wasnorm_wordpool_576.txt	LTP379	ltpFR2	2	3	MOTOR	922	n/a	n/a	0	0	0
458176	WORD	wordpools/wasnorm_wordpool_576.txt	LTP379	ltpFR2	2	3	BUNNY	198	n/a	n/a	0	0	0
460860	WORD	wordpools/wasnorm_wordpool_576.txt	LTP379	ltpFR2	2	3	TORTOISE	1486	n/a	n/a	0	0	0
463293	WORD	wordpools/wasnorm_wordpool_576.txt	LTP379	ltpFR2	2	3	UNCLE	1536	n/a	n/a	0	0	0
465909	WORD	wordpools/wasnorm_wordpool_576.txt	LTP379	ltpFR2	2	3	TEACHER	1440	n/a	n/a	0	0	0
468676	WORD	wordpools/wasnorm_wordpool_576.txt	LTP379	ltpFR2	2	3	FRIEND	606	n/a	n/a	0	0	0
471193	WORD	wordpools/wasnorm_wordpool_576.txt	LTP379	ltpFR2	2	3	PARSLEY	1016	n/a	n/a	0	0	0
473826	WORD	wordpools/wasnorm_wordpool_576.txt	LTP379	ltpFR2	2	3	SLIME	1327	n/a	n/a	0	0	0
476426	WORD	wordpools/wasnorm_wordpool_576.txt	LTP379	ltpFR2	2	3	SALAD	1224	n/a	n/a	0	0	0
479109	WORD	wordpools/wasnorm_wordpool_576.txt	LTP379	ltpFR2	2	3	FOREHEAD	592	n/a	n/a	0	0	0
481609	WORD	wordpools/wasnorm_wordpool_576.txt	LTP379	ltpFR2	2	3	COSTUME	383	n/a	n/a	0	0	0
484142	WORD	wordpools/wasnorm_wordpool_576.txt	LTP379	ltpFR2	2	3	GRILL	661	n/a	n/a	0	0	0
486709	WORD	wordpools/wasnorm_wordpool_576.txt	LTP379	ltpFR2	2	3	PIANO	1057	n/a	n/a	0	0	0
489459	WORD	wordpools/wasnorm_wordpool_576.txt	LTP379	ltpFR2	2	3	CANYON	235	n/a	n/a	0	0	0
492176	WORD	wordpools/wasnorm_wordpool_576.txt	LTP379	ltpFR2	2	3	RECEIPT	1173	n/a	n/a	0	0	0
494692	WORD	wordpools/wasnorm_wordpool_576.txt	LTP379	ltpFR2	2	3	QUARTER	1148	n/a	n/a	0	0	0
497242	WORD	wordpools/wasnorm_wordpool_576.txt	LTP379	ltpFR2	2	3	MUSTARD	935	n/a	n/a	0	0	0
499826	WORD	wordpools/wasnorm_wordpool_576.txt	LTP379	ltpFR2	2	3	BANJO	82	n/a	n/a	0	0	0
502292	WORD	wordpools/wasnorm_wordpool_576.txt	LTP379	ltpFR2	2	3	TURNIP	1521	n/a	n/a	0	0	0
504825	WORD	wordpools/wasnorm_wordpool_576.txt	LTP379	ltpFR2	2	3	LOVER	846	n/a	n/a	0	0	0
507442	WORD	wordpools/wasnorm_wordpool_576.txt	LTP379	ltpFR2	2	3	KIDNEY	776	n/a	n/a	0	0	0
509925	WORD	wordpools/wasnorm_wordpool_576.txt	LTP379	ltpFR2	2	3	FREEZER	604	n/a	n/a	0	0	0
512409	WORD	wordpools/wasnorm_wordpool_576.txt	LTP379	ltpFR2	2	3	CITRUS	313	n/a	n/a	0	0	0
514026	START	n/a	LTP379	ltpFR2	2	n/a	n/a	n/a	4	n/a	n/a	n/a	n/a
515123	DISTRACTOR	n/a	LTP379	ltpFR2	2	3	n/a	n/a	n/a	n/a	0	0	0
515125	PROB	n/a	LTP379	ltpFR2	2	n/a	n/a	n/a	4	16	8	7	1
516759	PROB	n/a	LTP379	ltpFR2	2	n/a	n/a	n/a	4	14	4	9	1
518442	PROB	n/a	LTP379	ltpFR2	2	n/a	n/a	n/a	4	17	9	4	4
520025	PROB	n/a	LTP379	ltpFR2	2	n/a	n/a	n/a	4	18	9	8	1
521809	PROB	n/a	LTP379	ltpFR2	2	n/a	n/a	n/a	4	18	8	3	7
523892	PROB	n/a	LTP379	ltpFR2	2	n/a	n/a	n/a	4	18	9	6	3
525525	PROB	n/a	LTP379	ltpFR2	2	n/a	n/a	n/a	4	14	7	6	1
527042	PROB	n/a	LTP379	ltpFR2	2	n/a	n/a	n/a	4	13	6	2	5
528458	PROB	n/a	LTP379	ltpFR2	2	n/a	n/a	n/a	4	13	3	9	1
530307	PROB	n/a	LTP379	ltpFR2	2	n/a	n/a	n/a	4	8	1	1	6
531475	PROB	n/a	LTP379	ltpFR2	2	n/a	n/a	n/a	4	15	4	8	3
532892	PROB	n/a	LTP379	ltpFR2	2	n/a	n/a	n/a	4	19	5	6	8
534492	PROB	n/a	LTP379	ltpFR2	2	n/a	n/a	n/a	4	20	7	5	8
535908	PROB	n/a	LTP379	ltpFR2	2	n/a	n/a	n/a	4	15	8	1	6
537302	STOP	n/a	LTP379	ltpFR2	2	n/a	n/a	n/a	4	n/a	n/a	n/a	n/a
539859	REC_START	n/a	LTP379	ltpFR2	2	3	n/a	n/a	n/a	n/a	0	0	0
546469	REC_WORD	wordpools/wasnorm_wordpool_576.txt	LTP379	ltpFR2	2	3	TUTU	1524	n/a	n/a	0	0	0
547923	REC_WORD	wordpools/wasnorm_wordpool_576.txt	LTP379	ltpFR2	2	3	MOTOR	922	n/a	n/a	0	0	0
549550	REC_WORD	wordpools/wasnorm_wordpool_576.txt	LTP379	ltpFR2	2	3	RABBIT	1152	n/a	n/a	0	0	0
552509	REC_WORD	wordpools/wasnorm_wordpool_576.txt	LTP379	ltpFR2	2	3	TORTOISE	1486	n/a	n/a	0	0	0
554292	REC_WORD	wordpools/wasnorm_wordpool_576.txt	LTP379	ltpFR2	2	3	UNCLE	1536	n/a	n/a	0	0	0
555738	REC_WORD	wordpools/wasnorm_wordpool_576.txt	LTP379	ltpFR2	2	3	TEACHER	1440	n/a	n/a	0	0	0
557262	REC_WORD	wordpools/wasnorm_wordpool_576.txt	LTP379	ltpFR2	2	3	FRIEND	606	n/a	n/a	0	0	0
562512	REC_WORD	wordpools/wasnorm_wordpool_576.txt	LTP379	ltpFR2	2	3	FOREHEAD	592	n/a	n/a	0	0	0
563888	REC_WORD	wordpools/wasnorm_wordpool_576.txt	LTP379	ltpFR2	2	3	COSTUME	383	n/a	n/a	0	0	0
565762	REC_WORD	wordpools/wasnorm_wordpool_576.txt	LTP379	ltpFR2	2	3	GRILL	661	n/a	n/a	0	0	0
567196	REC_WORD	wordpools/wasnorm_wordpool_576.txt	LTP379	ltpFR2	2	3	PIANO	1057	n/a	n/a	0	0	0
570082	REC_WORD	wordpools/wasnorm_wordpool_576.txt	LTP379	ltpFR2	2	3	CANYON	235	n/a	n/a	0	0	0
572133	REC_WORD	wordpools/wasnorm_wordpool_576.txt	LTP379	ltpFR2	2	3	PARSLEY	1016	n/a	n/a	0	0	0
573455	REC_WORD	wordpools/wasnorm_wordpool_576.txt	LTP379	ltpFR2	2	3	SLIME	1327	n/a	n/a	0	0	0
575233	REC_WORD	wordpools/wasnorm_wordpool_576.txt	LTP379	ltpFR2	2	3	SALAD	1224	n/a	n/a	0	0	0
577224	REC_WORD_VV	wordpools/wasnorm_wordpool_576.txt	LTP379	ltpFR2	2	3	<>	-1	n/a	n/a	0	0	0
579102	REC_WORD	wordpools/wasnorm_wordpool_576.txt	LTP379	ltpFR2	2	3	RECEIPT	1173	n/a	n/a	0	0	0
580467	REC_WORD	wordpools/wasnorm_wordpool_576.txt	LTP379	ltpFR2	2	3	QUARTER	1148	n/a	n/a	0	0	0
581905	REC_WORD	wordpools/wasnorm_wordpool_576.txt	LTP379	ltpFR2	2	3	MUSTARD	935	n/a	n/a	0	0	0
583575	REC_WORD	wordpools/wasnorm_wordpool_576.txt	LTP379	ltpFR2	2	3	BANJO	82	n/a	n/a	0	0	0
588619	REC_WORD	wordpools/wasnorm_wordpool_576.txt	LTP379	ltpFR2	2	3	TURNIP	1521	n/a	n/a	0	0	0
589819	REC_WORD	wordpools/wasnorm_wordpool_576.txt	LTP379	ltpFR2	2	3	LOVER	846	n/a	n/a	0	0	0
591451	REC_WORD	wordpools/wasnorm_wordpool_576.txt	LTP379	ltpFR2	2	3	KIDNEY	776	n/a	n/a	0	0	0
593023	REC_WORD	wordpools/wasnorm_wordpool_576.txt	LTP379	ltpFR2	2	3	FREEZER	604	n/a	n/a	0	0	0
600062	REC_WORD	wordpools/wasnorm_wordpool_576.txt	LTP379	ltpFR2	2	3	CITRUS	313	n/a	n/a	0	0	0
630306	WORD	wordpools/wasnorm_wordpool_576.txt	LTP379	ltpFR2	2	4	FIREMAN	569	n/a	n/a	0	0	0
633107	WORD	wordpools/wasnorm_wordpool_576.txt	LTP379	ltpFR2	2	4	DIVER	476	n/a	n/a	0	0	0
635640	WORD	wordpools/wasnorm_wordpool_576.txt	LTP379	ltpFR2	2	4	ARMY	39	n/a	n/a	0	0	0
638140	WORD	wordpools/wasnorm_wordpool_576.txt	LTP379	ltpFR2	2	4	SKILLET	1317	n/a	n/a	0	0	0
640923	WORD	wordpools/wasnorm_wordpool_576.txt	LTP379	ltpFR2	2	4	BROOK	177	n/a	n/a	0	0	0
643673	WORD	wordpools/wasnorm_wordpool_576.txt	LTP379	ltpFR2	2	4	COUNTY	389	n/a	n/a	0	0	0
646340	WORD	wordpools/wasnorm_wordpool_576.txt	LTP379	ltpFR2	2	4	AGENT	10	n/a	n/a	0	0	0
648973	WORD	wordpools/wasnorm_wordpool_576.txt	LTP379	ltpFR2	2	4	ORCHID	982	n/a	n/a	0	0	0
651490	WORD	wordpools/wasnorm_wordpool_576.txt	LTP379	ltpFR2	2	4	RIVER	1194	n/a	n/a	0	0	0
653923	WORD	wordpools/wasnorm_wordpool_576.txt	LTP379	ltpFR2	2	4	BODY	145	n/a	n/a	0	0	0
656706	WORD	wordpools/wasnorm_wordpool_576.txt	LTP379	ltpFR2	2	4	SMOG	1330	n/a	n/a	0	0	0
659190	WORD	wordpools/wasnorm_wordpool_576.txt	LTP379	ltpFR2	2	4	FEMALE	559	n/a	n/a	0	0	0
661640	WORD	wordpools/wasnorm_wordpool_576.txt	LTP379	ltpFR2	2	4	NOMAD	955	n/a	n/a	0	0	0
664156	WORD	wordpools/wasnorm_wordpool_576.txt	LTP379	ltpFR2	2	4	MARKET	871	n/a	n/a	0	0	0
666590	WORD	wordpools/wasnorm_wordpool_576.txt	LTP379	ltpFR2	2	4	SHARK	1275	n/a	n/a	0	0	0
669240	WORD	wordpools/wasnorm_wordpool_576.txt	LTP379	ltpFR2	2	4	HUMAN	726	n/a	n/a	0	0	0
671990	WORD	wordpools/wasnorm_wordpool_576.txt	LTP379	ltpFR2	2	4	MONEY	908	n/a	n/a	0	0	0
674506	WORD	wordpools/wasnorm_wordpool_576.txt	LTP379	ltpFR2	2	4	GIRL	637	n/a	n/a	0	0	0
677189	WORD	wordpools/wasnorm_wordpool_576.txt	LTP379	ltpFR2	2	4	RAFT	1159	n/a	n/a	0	0	0
679939	WORD	wordpools/wasnorm_wordpool_576.txt	LTP379	ltpFR2	2	4	BARLEY	88	n/a	n/a	0	0	0
682606	WORD	wordpools/wasnorm_wordpool_576.txt	LTP379	ltpFR2	2	4	JOURNAL	760	n/a	n/a	0	0	0
685139	WORD	wordpools/wasnorm_wordpool_576.txt	LTP379	ltpFR2	2	4	REPORT	1184	n/a	n/a	0	0	0
687723	WORD	wordpools/wasnorm_wordpool_576.txt	LTP379	ltpFR2	2	4	FIDDLE	561	n/a	n/a	0	0	0
690156	WORD	wordpools/wasnorm_wordpool_576.txt	LTP379	ltpFR2	2	4	CONCERT	360	n/a	n/a	0	0	0
691773	START	n/a	LTP379	ltpFR2	2	n/a	n/a	n/a	5	n/a	n/a	n/a	n/a
692742	DISTRACTOR	n/a	LTP379	ltpFR2	2	4	n/a	n/a	n/a	n/a	0	0	0
692756	PROB	n/a	LTP379	ltpFR2	2	n/a	n/a	n/a	5	15	7	3	5
694656	PROB	n/a	LTP379	ltpFR2	2	n/a	n/a	n/a	5	15	3	3	9
696272	PROB	n/a	LTP379	ltpFR2	2	n/a	n/a	n/a	5	16	8	2	6
697439	PROB	n/a	LTP379	ltpFR2	2	n/a	n/a	n/a	5	8	1	2	5
698706	PROB	n/a	LTP379	ltpFR2	2	n/a	n/a	n/a	5	16	5	6	5
699939	PROB	n/a	LTP379	ltpFR2	2	n/a	n/a	n/a	5	13	3	2	8
701806	PROB	n/a	LTP379	ltpFR2	2	n/a	n/a	n/a	5	18	7	6	5
703456	PROB	n/a	LTP379	ltpFR2	2	n/a	n/a	n/a	5	21	5	8	8
705139	PROB	n/a	LTP379	ltpFR2	2	n/a	n/a	n/a	5	16	3	5	8
706456	PROB	n/a	LTP379	ltpFR2	2	n/a	n/a	n/a	5	14	6	3	5
707789	PROB	n/a	LTP379	ltpFR2	2	n/a	n/a	n/a	5	13	4	5	4
709606	PROB	n/a	LTP379	ltpFR2	2	n/a	n/a	n/a	5	6	3	2	1
710756	PROB	n/a	LTP379	ltpFR2	2	n/a	n/a	n/a	5	12	4	5	3
713205	PROB	n/a	LTP379	ltpFR2	2	n/a	n/a	n/a	5	19	9	5	5
714557	STOP	n/a	LTP379	ltpFR2	2	n/a	n/a	n/a	5	n/a	n/a	n/a	n/a
717573	REC_START	n/a	LTP379	ltpFR2	2	4	n/a	n/a	n/a	n/a	0	0	0
724137	REC_WORD_VV	wordpools/wasnorm_wordpool_576.txt	LTP379	ltpFR2	2	4	<>	-1	n/a	n/a	0	0	0
725771	REC_WORD	wordpools/wasnorm_wordpool_576.txt	LTP379	ltpFR2	2	4	FIREMAN	569	n/a	n/a	0	0	0
727947	REC_WORD	wordpools/wasnorm_wordpool_576.txt	LTP379	ltpFR2	2	4	DIVER	476	n/a	n/a	0	0	0
729171	REC_WORD	wordpools/wasnorm_wordpool_576.txt	LTP379	ltpFR2	2	4	SKILLET	1317	n/a	n/a	0	0	0
730896	REC_WORD	wordpools/wasnorm_wordpool_576.txt	LTP379	ltpFR2	2	4	BROOK	177	n/a	n/a	0	0	0
733162	REC_WORD	wordpools/wasnorm_wordpool_576.txt	LTP379	ltpFR2	2	4	ARMY	39	n/a	n/a	0	0	0
740153	REC_WORD	wordpools/wasnorm_wordpool_576.txt	LTP379	ltpFR2	2	4	AGENT	10	n/a	n/a	0	0	0
741587	REC_WORD	wordpools/wasnorm_wordpool_576.txt	LTP379	ltpFR2	2	4	ORCHID	982	n/a	n/a	0	0	0
744438	REC_WORD	wordpools/wasnorm_wordpool_576.txt	LTP379	ltpFR2	2	4	COUNTY	389	n/a	n/a	0	0	0
746269	REC_WORD	wordpools/wasnorm_wordpool_576.txt	LTP379	ltpFR2	2	4	RIVER	1194	n/a	n/a	0	0	0
748602	REC_WORD	wordpools/wasnorm_wordpool_576.txt	LTP379	ltpFR2	2	4	BODY	145	n/a	n/a	0	0	0
752163	REC_WORD	wordpools/wasnorm_wordpool_576.txt	LTP379	ltpFR2	2	4	FEMALE	559	n/a	n/a	0	0	0
754025	REC_WORD	wordpools/wasnorm_wordpool_576.txt	LTP379	ltpFR2	2	4	NOMAD	955	n/a	n/a	0	0	0
755907	REC_WORD	wordpools/wasnorm_wordpool_576.txt	LTP379	ltpFR2	2	4	MARKET	871	n/a	n/a	0	0	0
757576	REC_WORD	wordpools/wasnorm_wordpool_576.txt	LTP379	ltpFR2	2	4	SHARK	1275	n/a	n/a	0	0	0
759244	REC_WORD	wordpools/wasnorm_wordpool_576.txt	LTP379	ltpFR2	2	4	HUMAN	726	n/a	n/a	0	0	0
761066	REC_WORD	wordpools/wasnorm_wordpool_576.txt	LTP379	ltpFR2	2	4	MONEY	908	n/a	n/a	0	0	0
763067	REC_WORD	wordpools/wasnorm_wordpool_576.txt	LTP379	ltpFR2	2	4	GIRL	637	n/a	n/a	0	0	0
764896	REC_WORD	wordpools/wasnorm_wordpool_576.txt	LTP379	ltpFR2	2	4	RAFT	1159	n/a	n/a	0	0	0
769939	REC_WORD	wordpools/wasnorm_wordpool_576.txt	LTP379	ltpFR2	2	4	BARLEY	88	n/a	n/a	0	0	0
771681	REC_WORD	wordpools/wasnorm_wordpool_576.txt	LTP379	ltpFR2	2	4	JOURNAL	760	n/a	n/a	0	0	0
773307	REC_WORD	wordpools/wasnorm_wordpool_576.txt	LTP379	ltpFR2	2	4	REPORT	1184	n/a	n/a	0	0	0
776413	REC_WORD	wordpools/wasnorm_wordpool_576.txt	LTP379	ltpFR2	2	4	FIDDLE	561	n/a	n/a	0	0	0
778262	REC_WORD	wordpools/wasnorm_wordpool_576.txt	LTP379	ltpFR2	2	4	CONCERT	360	n/a	n/a	0	0	0
808004	DISTRACTOR	n/a	LTP379	ltpFR2	2	5	n/a	n/a	n/a	n/a	0	0	0
808004	START	n/a	LTP379	ltpFR2	2	n/a	n/a	n/a	6	n/a	n/a	n/a	n/a
808021	PROB	n/a	LTP379	ltpFR2	2	n/a	n/a	n/a	6	19	7	6	6
809971	PROB	n/a	LTP379	ltpFR2	2	n/a	n/a	n/a	6	8	1	3	4
811237	PROB	n/a	LTP379	ltpFR2	2	n/a	n/a	n/a	6	23	9	8	6
813721	PROB	n/a	LTP379	ltpFR2	2	n/a	n/a	n/a	6	21	9	5	7
815671	PROB	n/a	LTP379	ltpFR2	2	n/a	n/a	n/a	6	16	8	4	4
817254	PROB	n/a	LTP379	ltpFR2	2	n/a	n/a	n/a	6	11	4	1	6
819071	PROB	n/a	LTP379	ltpFR2	2	n/a	n/a	n/a	6	19	7	9	3
821454	PROB	n/a	LTP379	ltpFR2	2	n/a	n/a	n/a	6	12	1	5	6
822687	PROB	n/a	LTP379	ltpFR2	2	n/a	n/a	n/a	6	13	8	3	2
824554	PROB	n/a	LTP379	ltpFR2	2	n/a	n/a	n/a	6	18	5	7	6
826821	PROB	n/a	LTP379	ltpFR2	2	n/a	n/a	n/a	6	12	2	2	8
828587	PROB	n/a	LTP379	ltpFR2	2	n/a	n/a	n/a	6	16	6	1	9
832004	STOP	n/a	LTP379	ltpFR2	2	n/a	n/a	n/a	6	n/a	n/a	n/a	n/a
833170	WORD	wordpools/wasnorm_wordpool_576.txt	LTP379	ltpFR2	2	5	DRINK	498	n/a	n/a	0	0	0
835704	WORD	wordpools/wasnorm_wordpool_576.txt	LTP379	ltpFR2	2	5	WIFE	1609	n/a	n/a	0	0	0
838420	WORD	wordpools/wasnorm_wordpool_576.txt	LTP379	ltpFR2	2	5	EMPIRE	530	n/a	n/a	0	0	0
840987	WORD	wordpools/wasnorm_wordpool_576.txt	LTP379	ltpFR2	2	5	WHISTLE	1606	n/a	n/a	0	0	0
843720	WORD	wordpools/wasnorm_wordpool_576.txt	LTP379	ltpFR2	2	5	COMPASS	358	n/a	n/a	0	0	0
846453	WORD	wordpools/wasnorm_wordpool_576.txt	LTP379	ltpFR2	2	5	REBEL	1172	n/a	n/a	0	0	0
848887	WORD	wordpools/wasnorm_wordpool_576.txt	LTP379	ltpFR2	2	5	FIREPLACE	570	n/a	n/a	0	0	0
851520	WORD	wordpools/wasnorm_wordpool_576.txt	LTP379	ltpFR2	2	5	PATROL	1027	n/a	n/a	0	0	0
854153	WORD	wordpools/wasnorm_wordpool_576.txt	LTP379	ltpFR2	2	5	TUBA	1515	n/a	n/a	0	0	0
856637	WORD	wordpools/wasnorm_wordpool_576.txt	LTP379	ltpFR2	2	5	RACKET	1155	n/a	n/a	0	0	0
859237	WORD	wordpools/wasnorm_wordpool_576.txt	LTP379	ltpFR2	2	5	FLIPPER	580	n/a	n/a	0	0	0
861703	WORD	wordpools/wasnorm_wordpool_576.txt	LTP379	ltpFR2	2	5	MAMMAL	861	n/a	n/a	0	0	0
864436	WORD	wordpools/wasnorm_wordpool_576.txt	LTP379	ltpFR2	2	5	JELLO	754	n/a	n/a	0	0	0
866970	WORD	wordpools/wasnorm_wordpool_576.txt	LTP379	ltpFR2	2	5	ISLAND	745	n/a	n/a	0	0	0
869720	WORD	wordpools/wasnorm_wordpool_576.txt	LTP379	ltpFR2	2	5	HAMPER	682	n/a	n/a	0	0	0
872436	WORD	wordpools/wasnorm_wordpool_576.txt	LTP379	ltpFR2	2	5	STAR	1373	n/a	n/a	0	0	0
874870	WORD	wordpools/wasnorm_wordpool_576.txt	LTP379	ltpFR2	2	5	TILE	1468	n/a	n/a	0	0	0
877336	WORD	wordpools/wasnorm_wordpool_576.txt	LTP379	ltpFR2	2	5	MOP	916	n/a	n/a	0	0	0
880120	WORD	wordpools/wasnorm_wordpool_576.txt	LTP379	ltpFR2	2	5	PARTNER	1017	n/a	n/a	0	0	0
882586	WORD	wordpools/wasnorm_wordpool_576.txt	LTP379	ltpFR2	2	5	CABBAGE	210	n/a	n/a	0	0	0
885403	WORD	wordpools/wasnorm_wordpool_576.txt	LTP379	ltpFR2	2	5	JUGGLER	763	n/a	n/a	0	0	0
888086	WORD	wordpools/wasnorm_wordpool_576.txt	LTP379	ltpFR2	2	5	COMET	353	n/a	n/a	0	0	0
890886	WORD	wordpools/wasnorm_wordpool_576.txt	LTP379	ltpFR2	2	5	FOREST	593	n/a	n/a	0	0	0
893436	WORD	wordpools/wasnorm_wordpool_576.txt	LTP379	ltpFR2	2	5	PRINCE	1124	n/a	n/a	0	0	0
895053	START	n/a	LTP379	ltpFR2	2	n/a	n/a	n/a	7	n/a	n/a	n/a	n/a
896224	DISTRACTOR	n/a	LTP379	ltpFR2	2	5	n/a	n/a	n/a	n/a	0	0	0
896236	PROB	n/a	LTP379	ltpFR2	2	n/a	n/a	n/a	7	13	1	4	8
897969	PROB	n/a	LTP379	ltpFR2	2	n/a	n/a	n/a	7	13	2	5	6
900586	PROB	n/a	LTP379	ltpFR2	2	n/a	n/a	n/a	7	18	5	5	8
902353	PROB	n/a	LTP379	ltpFR2	2	n/a	n/a	n/a	7	23	8	9	6
904403	PROB	n/a	LTP379	ltpFR2	2	n/a	n/a	n/a	7	18	3	8	7
905886	PROB	n/a	LTP379	ltpFR2	2	n/a	n/a	n/a	7	21	6	7	8
907302	PROB	n/a	LTP379	ltpFR2	2	n/a	n/a	n/a	7	18	5	4	9
908669	PROB	n/a	LTP379	ltpFR2	2	n/a	n/a	n/a	7	20	2	9	9
910436	PROB	n/a	LTP379	ltpFR2	2	n/a	n/a	n/a	7	16	2	9	5
912119	PROB	n/a	LTP379	ltpFR2	2	n/a	n/a	n/a	7	18	8	8	2
913886	PROB	n/a	LTP379	ltpFR2	2	n/a	n/a	n/a	7	14	3	4	7
915486	PROB	n/a	LTP379	ltpFR2	2	n/a	n/a	n/a	7	16	3	8	5
917523	STOP	n/a	LTP379	ltpFR2	2	n/a	n/a	n/a	7	n/a	n/a	n/a	n/a
920987	REC_START	n/a	LTP379	ltpFR2	2	5	n/a	n/a	n/a	n/a	0	0	0
924858	REC_WORD	wordpools/wasnorm_wordpool_576.txt	LTP379	ltpFR2	2	5	DRINK	498	n/a	n/a	0	0	0
927071	REC_WORD	wordpools/wasnorm_wordpool_576.txt	LTP379	ltpFR2	2	5	WIFE	1609	n/a	n/a	0	0	0
928734	REC_WORD	wordpools/wasnorm_wordpool_576.txt	LTP379	ltpFR2	2	5	EMPIRE	530	n/a	n/a	0	0	0
931068	REC_WORD	wordpools/wasnorm_wordpool_576.txt	LTP379	ltpFR2	2	5	WHISTLE	1606	n/a	n/a	0	0	0
932952	REC_WORD	wordpools/wasnorm_wordpool_576.txt	LTP379	ltpFR2	2	5	COMPASS	358	n/a	n/a	0	0	0
936712	REC_WORD	wordpools/wasnorm_wordpool_576.txt	LTP379	ltpFR2	2	5	REBEL	1172	n/a	n/a	0	0	0
940068	REC_WORD	wordpools/wasnorm_wordpool_576.txt	LTP379	ltpFR2	2	5	FIREPLACE	570	n/a	n/a	0	0	0
942064	REC_WORD	wordpools/wasnorm_wordpool_576.txt	LTP379	ltpFR2	2	5	PATROL	1027	n/a	n/a	0	0	0
943982	REC_WORD	wordpools/wasnorm_wordpool_576.txt	LTP379	ltpFR2	2	5	TUBA	1515	n/a	n/a	0	0	0
945658	REC_WORD	wordpools/wasnorm_wordpool_576.txt	LTP379	ltpFR2	2	5	RACKET	1155	n/a	n/a	0	0	0
951858	REC_WORD	wordpools/wasnorm_wordpool_576.txt	LTP379	ltpFR2	2	5	FLIPPER	580	n/a	n/a	0	0	0
956401	REC_WORD	wordpools/wasnorm_wordpool_576.txt	LTP379	ltpFR2	2	5	MAMMAL	861	n/a	n/a	0	0	0
958658	REC_WORD	wordpools/wasnorm_wordpool_576.txt	LTP379	ltpFR2	2	5	JELLO	754	n/a	n/a	0	0	0
960487	REC_WORD	wordpools/wasnorm_wordpool_576.txt	LTP379	ltpFR2	2	5	ISLAND	745	n/a	n/a	0	0	0
962771	REC_WORD	wordpools/wasnorm_wordpool_576.txt	LTP379	ltpFR2	2	5	HAMPER	682	n/a	n/a	0	0	0
970312	REC_WORD	wordpools/wasnorm_wordpool_576.txt	LTP379	ltpFR2	2	5	STAR	1373	n/a	n/a	0	0	0
972097	REC_WORD	wordpools/wasnorm_wordpool_576.txt	LTP379	ltpFR2	2	5	TILE	1468	n/a	n/a	0	0	0
973771	REC_WORD	wordpools/wasnorm_wordpool_576.txt	LTP379	ltpFR2	2	5	MOP	916	n/a	n/a	0	0	0
975537	REC_WORD	wordpools/wasnorm_wordpool_576.txt	LTP379	ltpFR2	2	5	PARTNER	1017	n/a	n/a	0	0	0
977047	REC_WORD	wordpools/wasnorm_wordpool_576.txt	LTP379	ltpFR2	2	5	CABBAGE	210	n/a	n/a	0	0	0
978638	REC_WORD	wordpools/wasnorm_wordpool_576.txt	LTP379	ltpFR2	2	5	JUGGLER	763	n/a	n/a	0	0	0
980192	REC_WORD	wordpools/wasnorm_wordpool_576.txt	LTP379	ltpFR2	2	5	COMET	353	n/a	n/a	0	0	0
982577	REC_WORD	wordpools/wasnorm_wordpool_576.txt	LTP379	ltpFR2	2	5	FOREST	593	n/a	n/a	0	0	0
984499	REC_WORD	wordpools/wasnorm_wordpool_576.txt	LTP379	ltpFR2	2	5	PRINCE	1124	n/a	n/a	0	0	0
1011418	DISTRACTOR	n/a	LTP379	ltpFR2	2	6	n/a	n/a	n/a	n/a	0	0	0
1011418	START	n/a	LTP379	ltpFR2	2	n/a	n/a	n/a	8	n/a	n/a	n/a	n/a
1011434	PROB	n/a	LTP379	ltpFR2	2	n/a	n/a	n/a	8	20	6	7	7
1013351	PROB	n/a	LTP379	ltpFR2	2	n/a	n/a	n/a	8	8	1	1	6
1014601	PROB	n/a	LTP379	ltpFR2	2	n/a	n/a	n/a	8	18	1	8	9
1016051	PROB	n/a	LTP379	ltpFR2	2	n/a	n/a	n/a	8	15	5	2	8
1017451	PROB	n/a	LTP379	ltpFR2	2	n/a	n/a	n/a	8	14	6	2	6
1018951	PROB	n/a	LTP379	ltpFR2	2	n/a	n/a	n/a	8	10	7	1	2
1020467	PROB	n/a	LTP379	ltpFR2	2	n/a	n/a	n/a	8	7	3	1	3
1021917	PROB	n/a	LTP379	ltpFR2	2	n/a	n/a	n/a	8	18	3	6	9
1023734	PROB	n/a	LTP379	ltpFR2	2	n/a	n/a	n/a	8	13	3	6	4
1025484	PROB	n/a	LTP379	ltpFR2	2	n/a	n/a	n/a	8	13	6	3	4
1027067	PROB	n/a	LTP379	ltpFR2	2	n/a	n/a	n/a	8	17	7	5	5
1028534	PROB	n/a	LTP379	ltpFR2	2	n/a	n/a	n/a	8	9	6	1	2
1030234	PROB	n/a	LTP379	ltpFR2	2	n/a	n/a	n/a	8	14	4	1	9
1031684	PROB	n/a	LTP379	ltpFR2	2	n/a	n/a	n/a	8	8	1	3	4
1032951	PROB	n/a	LTP379	ltpFR2	2	n/a	n/a	n/a	8	11	7	3	1
1034142	STOP	n/a	LTP379	ltpFR2	2	n/a	n/a	n/a	8	n/a	n/a	n/a	n/a
1036284	WORD	wordpools/wasnorm_wordpool_576.txt	LTP379	ltpFR2	2	6	VIKING	1565	n/a	n/a	0	0	0
1039084	WORD	wordpools/wasnorm_wordpool_576.txt	LTP379	ltpFR2	2	6	CRAB	397	n/a	n/a	0	0	0
1041834	WORD	wordpools/wasnorm_wordpool_576.txt	LTP379	ltpFR2	2	6	PIMPLE	1071	n/a	n/a	0	0	0
1044617	WORD	wordpools/wasnorm_wordpool_576.txt	LTP379	ltpFR2	2	6	HOSTESS	723	n/a	n/a	0	0	0
1047299	WORD	wordpools/wasnorm_wordpool_576.txt	LTP379	ltpFR2	2	6	HERO	706	n/a	n/a	0	0	0
1049900	WORD	wordpools/wasnorm_wordpool_576.txt	LTP379	ltpFR2	2	6	CARROT	249	n/a	n/a	0	0	0
1052667	WORD	wordpools/wasnorm_wordpool_576.txt	LTP379	ltpFR2	2	6	LAPEL	800	n/a	n/a	0	0	0
1055284	WORD	wordpools/wasnorm_wordpool_576.txt	LTP379	ltpFR2	2	6	VICTIM	1562	n/a	n/a	0	0	0
1057850	WORD	wordpools/wasnorm_wordpool_576.txt	LTP379	ltpFR2	2	6	MISSILE	900	n/a	n/a	0	0	0
1060667	WORD	wordpools/wasnorm_wordpool_576.txt	LTP379	ltpFR2	2	6	YARN	1631	n/a	n/a	0	0	0
1063233	WORD	wordpools/wasnorm_wordpool_576.txt	LTP379	ltpFR2	2	6	DORM	488	n/a	n/a	0	0	0
1065917	WORD	wordpools/wasnorm_wordpool_576.txt	LTP379	ltpFR2	2	6	HIKER	708	n/a	n/a	0	0	0
1068567	WORD	wordpools/wasnorm_wordpool_576.txt	LTP379	ltpFR2	2	6	VALLEY	1545	n/a	n/a	0	0	0
1071233	WORD	wordpools/wasnorm_wordpool_576.txt	LTP379	ltpFR2	2	6	ORANGE	980	n/a	n/a	0	0	0
1073717	WORD	wordpools/wasnorm_wordpool_576.txt	LTP379	ltpFR2	2	6	CHURCH	307	n/a	n/a	0	0	0
1076283	WORD	wordpools/wasnorm_wordpool_576.txt	LTP379	ltpFR2	2	6	SCARECROW	1245	n/a	n/a	0	0	0
1078867	WORD	wordpools/wasnorm_wordpool_576.txt	LTP379	ltpFR2	2	6	FARMER	553	n/a	n/a	0	0	0
1081550	WORD	wordpools/wasnorm_wordpool_576.txt	LTP379	ltpFR2	2	6	WOMAN	1620	n/a	n/a	0	0	0
1084299	WORD	wordpools/wasnorm_wordpool_576.txt	LTP379	ltpFR2	2	6	CHAPEL	280	n/a	n/a	0	0	0
1086866	WORD	wordpools/wasnorm_wordpool_576.txt	LTP379	ltpFR2	2	6	SLOPE	1328	n/a	n/a	0	0	0
1089416	WORD	wordpools/wasnorm_wordpool_576.txt	LTP379	ltpFR2	2	6	LADDER	793	n/a	n/a	0	0	0
1092233	WORD	wordpools/wasnorm_wordpool_576.txt	LTP379	ltpFR2	2	6	PECAN	1036	n/a	n/a	0	0	0
1094750	WORD	wordpools/wasnorm_wordpool_576.txt	LTP379	ltpFR2	2	6	BLACKBOARD	133	n/a	n/a	0	0	0
1097183	WORD	wordpools/wasnorm_wordpool_576.txt	LTP379	ltpFR2	2	6	EXPERT	543	n/a	n/a	0	0	0
1098800	START	n/a	LTP379	ltpFR2	2	n/a	n/a	n/a	9	n/a	n/a	n/a	n/a
1099772	DISTRACTOR	n/a	LTP379	ltpFR2	2	6	n/a	n/a	n/a	n/a	0	0	0
1099783	PROB	n/a	LTP379	ltpFR2	2	n/a	n/a	n/a	9	12	3	8	1
1102233	PROB	n/a	LTP379	ltpFR2	2	n/a	n/a	n/a	9	21	8	4	9
1103999	PROB	n/a	LTP379	ltpFR2	2	n/a	n/a	n/a	9	15	6	1	8
1105816	PROB	n/a	LTP379	ltpFR2	2	n/a	n/a	n/a	9	11	4	5	2
1107333	PROB	n/a	LTP379	ltpFR2	2	n/a	n/a	n/a	9	15	6	2	7
1109949	PROB	n/a	LTP379	ltpFR2	2	n/a	n/a	n/a	9	17	9	5	3
1111766	PROB	n/a	LTP379	ltpFR2	2	n/a	n/a	n/a	9	21	5	8	8
1113199	PROB	n/a	LTP379	ltpFR2	2	n/a	n/a	n/a	9	21	4	8	9
1115183	PROB	n/a	LTP379	ltpFR2	2	n/a	n/a	n/a	9	15	7	5	3
1116816	PROB	n/a	LTP379	ltpFR2	2	n/a	n/a	n/a	9	11	1	3	7
1117983	PROB	n/a	LTP379	ltpFR2	2	n/a	n/a	n/a	9	15	3	4	8
1119716	PROB	n/a	LTP379	ltpFR2	2	n/a	n/a	n/a	9	10	4	4	2
1120899	PROB	n/a	LTP379	ltpFR2	2	n/a	n/a	n/a	9	15	2	9	4
1122025	STOP	n/a	LTP379	ltpFR2	2	n/a	n/a	n/a	9	n/a	n/a	n/a	n/a
1124700	REC_START	n/a	LTP379	ltpFR2	2	6	n/a	n/a	n/a	n/a	0	0	0
1130624	REC_WORD	wordpools/wasnorm_wordpool_576.txt	LTP379	ltpFR2	2	6	VIKING	1565	n/a	n/a	0	0	0
1131807	REC_WORD_VV	wordpools/wasnorm_wordpool_576.txt	LTP379	ltpFR2	2	6	<>	-1	n/a	n/a	0	0	0
1132670	REC_WORD	wordpools/wasnorm_wordpool_576.txt	LTP379	ltpFR2	2	6	CRAB	397	n/a	n/a	0	0	0
1134534	REC_WORD	wordpools/wasnorm_wordpool_576.txt	LTP379	ltpFR2	2	6	PIMPLE	1071	n/a	n/a	0	0	0
1138070	REC_WORD	wordpools/wasnorm_wordpool_576.txt	LTP379	ltpFR2	2	6	HOSTESS	723	n/a	n/a	0	0	0
1139742	REC_WORD	wordpools/wasnorm_wordpool_576.txt	LTP379	ltpFR2	2	6	HERO	706	n/a	n/a	0	0	0
1141402	REC_WORD	wordpools/wasnorm_wordpool_576.txt	LTP379	ltpFR2	2	6	CARROT	249	n/a	n/a	0	0	0
1142945	REC_WORD	wordpools/wasnorm_wordpool_576.txt	LTP379	ltpFR2	2	6	LAPEL	800	n/a	n/a	0	0	0
1144620	REC_WORD	wordpools/wasnorm_wordpool_576.txt	LTP379	ltpFR2	2	6	VICTIM	1562	n/a	n/a	0	0	0
1146234	REC_WORD	wordpools/wasnorm_wordpool_576.txt	LTP379	ltpFR2	2	6	MISSILE	900	n/a	n/a	0	0	0
1148222	REC_WORD	wordpools/wasnorm_wordpool_576.txt	LTP379	ltpFR2	2	6	YARN	1631	n/a	n/a	0	0	0
1150213	REC_WORD	wordpools/wasnorm_wordpool_576.txt	LTP379	ltpFR2	2	6	DORM	488	n/a	n/a	0	0	0
1151934	REC_WORD	wordpools/wasnorm_wordpool_576.txt	LTP379	ltpFR2	2	6	HIKER	708	n/a	n/a	0	0	0
1153608	REC_WORD	wordpools/wasnorm_wordpool_576.txt	LTP379	ltpFR2	2	6	VALLEY	1545	n/a	n/a	0	0	0
1155556	REC_WORD	wordpools/wasnorm_wordpool_576.txt	LTP379	ltpFR2	2	6	ORANGE	980	n/a	n/a	0	0	0
1157494	REC_WORD	wordpools/wasnorm_wordpool_576.txt	LTP379	ltpFR2	2	6	CHURCH	307	n/a	n/a	0	0	0
1158949	REC_WORD	wordpools/wasnorm_wordpool_576.txt	LTP379	ltpFR2	2	6	SCARECROW	1245	n/a	n/a	0	0	0
1160913	REC_WORD	wordpools/wasnorm_wordpool_576.txt	LTP379	ltpFR2	2	6	FARMER	553	n/a	n/a	0	0	0
1162735	REC_WORD	wordpools/wasnorm_wordpool_576.txt	LTP379	ltpFR2	2	6	WOMAN	1620	n/a	n/a	0	0	0
1165607	REC_WORD	wordpools/wasnorm_wordpool_576.txt	LTP379	ltpFR2	2	6	CHAPEL	280	n/a	n/a	0	0	0
1168031	REC_WORD	wordpools/wasnorm_wordpool_576.txt	LTP379	ltpFR2	2	6	SLOPE	1328	n/a	n/a	0	0	0
1169848	REC_WORD	wordpools/wasnorm_wordpool_576.txt	LTP379	ltpFR2	2	6	LADDER	793	n/a	n/a	0	0	0
1171306	REC_WORD	wordpools/wasnorm_wordpool_576.txt	LTP379	ltpFR2	2	6	PECAN	1036	n/a	n/a	0	0	0
1173411	REC_WORD	wordpools/wasnorm_wordpool_576.txt	LTP379	ltpFR2	2	6	BLACKBOARD	133	n/a	n/a	0	0	0
1175115	REC_WORD	wordpools/wasnorm_wordpool_576.txt	LTP379	ltpFR2	2	6	EXPERT	543	n/a	n/a	0	0	0
1215148	WORD	wordpools/wasnorm_wordpool_576.txt	LTP379	ltpFR2	2	7	BACKBONE	66	n/a	n/a	0	0	0
1217598	WORD	wordpools/wasnorm_wordpool_576.txt	LTP379	ltpFR2	2	7	ITEM	746	n/a	n/a	0	0	0
1220364	WORD	wordpools/wasnorm_wordpool_576.txt	LTP379	ltpFR2	2	7	WRENCH	1625	n/a	n/a	0	0	0
1223031	WORD	wordpools/wasnorm_wordpool_576.txt	LTP379	ltpFR2	2	7	PARROT	1015	n/a	n/a	0	0	0
1225464	WORD	wordpools/wasnorm_wordpool_576.txt	LTP379	ltpFR2	2	7	MATTRESS	879	n/a	n/a	0	0	0
1228198	WORD	wordpools/wasnorm_wordpool_576.txt	LTP379	ltpFR2	2	7	ATOM	55	n/a	n/a	0	0	0
1230848	WORD	wordpools/wasnorm_wordpool_576.txt	LTP379	ltpFR2	2	7	BACON	67	n/a	n/a	0	0	0
1233281	WORD	wordpools/wasnorm_wordpool_576.txt	LTP379	ltpFR2	2	7	LAKE	796	n/a	n/a	0	0	0
1235797	WORD	wordpools/wasnorm_wordpool_576.txt	LTP379	ltpFR2	2	7	PLAID	1080	n/a	n/a	0	0	0
1238597	WORD	wordpools/wasnorm_wordpool_576.txt	LTP379	ltpFR2	2	7	SHRUB	1299	n/a	n/a	0	0	0
1241131	WORD	wordpools/wasnorm_wordpool_576.txt	LTP379	ltpFR2	2	7	STOMACH	1384	n/a	n/a	0	0	0
1243714	WORD	wordpools/wasnorm_wordpool_576.txt	LTP379	ltpFR2	2	7	STAPLE	1371	n/a	n/a	0	0	0
1246264	WORD	wordpools/wasnorm_wordpool_576.txt	LTP379	ltpFR2	2	7	PADDING	999	n/a	n/a	0	0	0
1248714	WORD	wordpools/wasnorm_wordpool_576.txt	LTP379	ltpFR2	2	7	ZIPPER	1636	n/a	n/a	0	0	0
1251164	WORD	wordpools/wasnorm_wordpool_576.txt	LTP379	ltpFR2	2	7	COOKBOOK	373	n/a	n/a	0	0	0
1253964	WORD	wordpools/wasnorm_wordpool_576.txt	LTP379	ltpFR2	2	7	BRANCH	168	n/a	n/a	0	0	0
1256714	WORD	wordpools/wasnorm_wordpool_576.txt	LTP379	ltpFR2	2	7	MAPLE	866	n/a	n/a	0	0	0
1259197	WORD	wordpools/wasnorm_wordpool_576.txt	LTP379	ltpFR2	2	7	COWBOY	395	n/a	n/a	0	0	0
1261930	WORD	wordpools/wasnorm_wordpool_576.txt	LTP379	ltpFR2	2	7	YACHT	1629	n/a	n/a	0	0	0
1264364	WORD	wordpools/wasnorm_wordpool_576.txt	LTP379	ltpFR2	2	7	PILOT	1070	n/a	n/a	0	0	0
1266864	WORD	wordpools/wasnorm_wordpool_576.txt	LTP379	ltpFR2	2	7	AIRPORT	13	n/a	n/a	0	0	0
1269697	WORD	wordpools/wasnorm_wordpool_576.txt	LTP379	ltpFR2	2	7	LUMBER	848	n/a	n/a	0	0	0
1272463	WORD	wordpools/wasnorm_wordpool_576.txt	LTP379	ltpFR2	2	7	TUNNEL	1519	n/a	n/a	0	0	0
1275247	WORD	wordpools/wasnorm_wordpool_576.txt	LTP379	ltpFR2	2	7	OMELET	976	n/a	n/a	0	0	0
1276864	START	n/a	LTP379	ltpFR2	2	n/a	n/a	n/a	10	n/a	n/a	n/a	n/a
1277702	DISTRACTOR	n/a	LTP379	ltpFR2	2	7	n/a	n/a	n/a	n/a	0	0	0
1277713	PROB	n/a	LTP379	ltpFR2	2	n/a	n/a	n/a	10	17	4	9	4
1280263	PROB	n/a	LTP379	ltpFR2	2	n/a	n/a	n/a	10	18	3	6	9
1281830	PROB	n/a	LTP379	ltpFR2	2	n/a	n/a	n/a	10	13	8	2	3
1283296	PROB	n/a	LTP379	ltpFR2	2	n/a	n/a	n/a	10	17	7	3	7
1284913	PROB	n/a	LTP379	ltpFR2	2	n/a	n/a	n/a	10	18	8	9	1
1286563	PROB	n/a	LTP379	ltpFR2	2	n/a	n/a	n/a	10	17	8	1	8
1288080	PROB	n/a	LTP379	ltpFR2	2	n/a	n/a	n/a	10	19	2	8	9
1289580	PROB	n/a	LTP379	ltpFR2	2	n/a	n/a	n/a	10	13	9	3	1
1291280	PROB	n/a	LTP379	ltpFR2	2	n/a	n/a	n/a	10	16	4	6	6
1293530	PROB	n/a	LTP379	ltpFR2	2	n/a	n/a	n/a	10	18	7	8	3
1295030	PROB	n/a	LTP379	ltpFR2	2	n/a	n/a	n/a	10	10	4	5	1
1296263	PROB	n/a	LTP379	ltpFR2	2	n/a	n/a	n/a	10	9	4	3	2
1298463	PROB	n/a	LTP379	ltpFR2	2	n/a	n/a	n/a	10	9	7	1	1
1299774	STOP	n/a	LTP379	ltpFR2	2	n/a	n/a	n/a	10	n/a	n/a	n/a	n/a
1302747	REC_START	n/a	LTP379	ltpFR2	2	7	n/a	n/a	n/a	n/a	0	0	0
1307595	REC_WORD	wordpools/wasnorm_wordpool_576.txt	LTP379	ltpFR2	2	7	BACKBONE	66	n/a	n/a	0	0	0
1309389	REC_WORD	wordpools/wasnorm_wordpool_576.txt	LTP379	ltpFR2	2	7	ITEM	746	n/a	n/a	0	0	0
1332259	REC_WORD	wordpools/wasnorm_wordpool_576.txt	LTP379	ltpFR2	2	7	MATTRESS	879	n/a	n/a	0	0	0
1333134	REC_WORD	wordpools/wasnorm_wordpool_576.txt	LTP379	ltpFR2	2	7	ATOM	55	n/a	n/a	0	0	0
1334197	REC_WORD	wordpools/wasnorm_wordpool_576.txt	LTP379	ltpFR2	2	7	BACON	67	n/a	n/a	0	0	0
1335580	REC_WORD	wordpools/wasnorm_wordpool_576.txt	LTP379	ltpFR2	2	7	LAKE	796	n/a	n/a	0	0	0
1336859	REC_WORD	wordpools/wasnorm_wordpool_576.txt	LTP379	ltpFR2	2	7	PLAID	1080	n/a	n/a	0	0	0
1341789	REC_WORD	wordpools/wasnorm_wordpool_576.txt	LTP379	ltpFR2	2	7	SHRUB	1299	n/a	n/a	0	0	0
1342855	REC_WORD	wordpools/wasnorm_wordpool_576.txt	LTP379	ltpFR2	2	7	STOMACH	1384	n/a	n/a	0	0	0
1346256	REC_WORD	wordpools/wasnorm_wordpool_576.txt	LTP379	ltpFR2	2	7	PADDING	999	n/a	n/a	0	0	0
1347633	REC_WORD	wordpools/wasnorm_wordpool_576.txt	LTP379	ltpFR2	2	7	ZIPPER	1636	n/a	n/a	0	0	0
1348688	REC_WORD	wordpools/wasnorm_wordpool_576.txt	LTP379	ltpFR2	2	7	COOKBOOK	373	n/a	n/a	0	0	0
1349741	REC_WORD	wordpools/wasnorm_wordpool_576.txt	LTP379	ltpFR2	2	7	BRANCH	168	n/a	n/a	0	0	0
1350663	REC_WORD	wordpools/wasnorm_wordpool_576.txt	LTP379	ltpFR2	2	7	MAPLE	866	n/a	n/a	0	0	0
1352407	REC_WORD	wordpools/wasnorm_wordpool_576.txt	LTP379	ltpFR2	2	7	COWBOY	395	n/a	n/a	0	0	0
1353621	REC_WORD	wordpools/wasnorm_wordpool_576.txt	LTP379	ltpFR2	2	7	YACHT	1629	n/a	n/a	0	0	0
1355096	REC_WORD	wordpools/wasnorm_wordpool_576.txt	LTP379	ltpFR2	2	7	PILOT	1070	n/a	n/a	0	0	0
1356487	REC_WORD	wordpools/wasnorm_wordpool_576.txt	LTP379	ltpFR2	2	7	AIRPORT	13	n/a	n/a	0	0	0
1357746	REC_WORD	wordpools/wasnorm_wordpool_576.txt	LTP379	ltpFR2	2	7	LUMBER	848	n/a	n/a	0	0	0
1359172	REC_WORD	wordpools/wasnorm_wordpool_576.txt	LTP379	ltpFR2	2	7	TUNNEL	1519	n/a	n/a	0	0	0
1360329	REC_WORD	wordpools/wasnorm_wordpool_576.txt	LTP379	ltpFR2	2	7	OMELET	976	n/a	n/a	0	0	0
1393195	DISTRACTOR	n/a	LTP379	ltpFR2	2	8	n/a	n/a	n/a	n/a	0	0	0
1393195	START	n/a	LTP379	ltpFR2	2	n/a	n/a	n/a	11	n/a	n/a	n/a	n/a
1393212	PROB	n/a	LTP379	ltpFR2	2	n/a	n/a	n/a	11	16	5	6	5
1394495	PROB	n/a	LTP379	ltpFR2	2	n/a	n/a	n/a	11	16	1	9	6
1395762	PROB	n/a	LTP379	ltpFR2	2	n/a	n/a	n/a	11	19	5	5	9
1397028	PROB	n/a	LTP379	ltpFR2	2	n/a	n/a	n/a	11	12	7	3	2
1398428	PROB	n/a	LTP379	ltpFR2	2	n/a	n/a	n/a	11	17	6	7	4
1400145	PROB	n/a	LTP379	ltpFR2	2	n/a	n/a	n/a	11	14	5	3	6
1402562	PROB	n/a	LTP379	ltpFR2	2	n/a	n/a	n/a	11	10	1	1	8
1403762	PROB	n/a	LTP379	ltpFR2	2	n/a	n/a	n/a	11	20	8	5	7
1405212	PROB	n/a	LTP379	ltpFR2	2	n/a	n/a	n/a	11	21	9	9	3
1406745	PROB	n/a	LTP379	ltpFR2	2	n/a	n/a	n/a	11	6	3	2	1
1407878	PROB	n/a	LTP379	ltpFR2	2	n/a	n/a	n/a	11	16	7	6	3
1410045	PROB	n/a	LTP379	ltpFR2	2	n/a	n/a	n/a	11	12	1	2	9
1411545	PROB	n/a	LTP379	ltpFR2	2	n/a	n/a	n/a	11	17	2	7	8
1413411	PROB	n/a	LTP379	ltpFR2	2	n/a	n/a	n/a	11	19	9	1	9
1414828	PROB	n/a	LTP379	ltpFR2	2	n/a	n/a	n/a	11	15	2	5	8
1416746	STOP	n/a	LTP379	ltpFR2	2	n/a	n/a	n/a	11	n/a	n/a	n/a	n/a
1418378	WORD	wordpools/wasnorm_wordpool_576.txt	LTP379	ltpFR2	2	8	SPOON	1357	n/a	n/a	0	0	0
1420995	WORD	wordpools/wasnorm_wordpool_576.txt	LTP379	ltpFR2	2	8	GRIZZLY	662	n/a	n/a	0	0	0
1423745	WORD	wordpools/wasnorm_wordpool_576.txt	LTP379	ltpFR2	2	8	FRUIT	610	n/a	n/a	0	0	0
1426428	WORD	wordpools/wasnorm_wordpool_576.txt	LTP379	ltpFR2	2	8	GRAPE	654	n/a	n/a	0	0	0
1429094	WORD	wordpools/wasnorm_wordpool_576.txt	LTP379	ltpFR2	2	8	SKETCH	1315	n/a	n/a	0	0	0
1431811	WORD	wordpools/wasnorm_wordpool_576.txt	LTP379	ltpFR2	2	8	DRAWING	494	n/a	n/a	0	0	0
1434544	WORD	wordpools/wasnorm_wordpool_576.txt	LTP379	ltpFR2	2	8	CLOCK	325	n/a	n/a	0	0	0
1437294	WORD	wordpools/wasnorm_wordpool_576.txt	LTP379	ltpFR2	2	8	BEAKER	104	n/a	n/a	0	0	0
1439961	WORD	wordpools/wasnorm_wordpool_576.txt	LTP379	ltpFR2	2	8	CHAMPAGNE	278	n/a	n/a	0	0	0
1442428	WORD	wordpools/wasnorm_wordpool_576.txt	LTP379	ltpFR2	2	8	WASHER	1592	n/a	n/a	0	0	0
1444861	WORD	wordpools/wasnorm_wordpool_576.txt	LTP379	ltpFR2	2	8	BINDER	127	n/a	n/a	0	0	0
1447377	WORD	wordpools/wasnorm_wordpool_576.txt	LTP379	ltpFR2	2	8	CARRIAGE	248	n/a	n/a	0	0	0
1449811	WORD	wordpools/wasnorm_wordpool_576.txt	LTP379	ltpFR2	2	8	BELLY	119	n/a	n/a	0	0	0
1452244	WORD	wordpools/wasnorm_wordpool_576.txt	LTP379	ltpFR2	2	8	GAVEL	627	n/a	n/a	0	0	0
1454677	WORD	wordpools/wasnorm_wordpool_576.txt	LTP379	ltpFR2	2	8	STALLION	1369	n/a	n/a	0	0	0
1457127	WORD	wordpools/wasnorm_wordpool_576.txt	LTP379	ltpFR2	2	8	SPACE	1345	n/a	n/a	0	0	0
1459912	WORD	wordpools/wasnorm_wordpool_576.txt	LTP379	ltpFR2	2	8	ACTRESS	6	n/a	n/a	0	0	0
1462477	WORD	wordpools/wasnorm_wordpool_576.txt	LTP379	ltpFR2	2	8	DRESSER	496	n/a	n/a	0	0	0
1465294	WORD	wordpools/wasnorm_wordpool_576.txt	LTP379	ltpFR2	2	8	RELISH	1183	n/a	n/a	0	0	0
1468011	WORD	wordpools/wasnorm_wordpool_576.txt	LTP379	ltpFR2	2	8	GARBAGE	622	n/a	n/a	0	0	0
1470544	WORD	wordpools/wasnorm_wordpool_576.txt	LTP379	ltpFR2	2	8	ROBOT	1200	n/a	n/a	0	0	0
1472977	WORD	wordpools/wasnorm_wordpool_576.txt	LTP379	ltpFR2	2	8	IGLOO	734	n/a	n/a	0	0	0
1475777	WORD	wordpools/wasnorm_wordpool_576.txt	LTP379	ltpFR2	2	8	SEAGULL	1261	n/a	n/a	0	0	0
1478210	WORD	wordpools/wasnorm_wordpool_576.txt	LTP379	ltpFR2	2	8	CRITIC	410	n/a	n/a	0	0	0
1479827	START	n/a	LTP379	ltpFR2	2	n/a	n/a	n/a	12	n/a	n/a	n/a	n/a
1480916	DISTRACTOR	n/a	LTP379	ltpFR2	2	8	n/a	n/a	n/a	n/a	0	0	0
1480927	PROB	n/a	LTP379	ltpFR2	2	n/a	n/a	n/a	12	13	6	1	6
1482844	PROB	n/a	LTP379	ltpFR2	2	n/a	n/a	n/a	12	6	3	1	2
1484260	PROB	n/a	LTP379	ltpFR2	2	n/a	n/a	n/a	12	14	9	1	4
1485560	PROB	n/a	LTP379	ltpFR2	2	n/a	n/a	n/a	12	12	4	5	3
1486960	PROB	n/a	LTP379	ltpFR2	2	n/a	n/a	n/a	12	13	3	4	6
1488660	PROB	n/a	LTP379	ltpFR2	2	n/a	n/a	n/a	12	17	4	9	4
1490777	PROB	n/a	LTP379	ltpFR2	2	n/a	n/a	n/a	12	12	1	3	8
1492243	PROB	n/a	LTP379	ltpFR2	2	n/a	n/a	n/a	12	7	2	1	4
1494693	PROB	n/a	LTP379	ltpFR2	2	n/a	n/a	n/a	12	15	8	4	3
1496060	PROB	n/a	LTP379	ltpFR2	2	n/a	n/a	n/a	12	15	4	8	3
1498293	PROB	n/a	LTP379	ltpFR2	2	n/a	n/a	n/a	12	23	9	9	5
1500993	PROB	n/a	LTP379	ltpFR2	2	n/a	n/a	n/a	12	17	7	3	7
1502405	STOP	n/a	LTP379	ltpFR2	2	n/a	n/a	n/a	12	n/a	n/a	n/a	n/a
1505594	REC_START	n/a	LTP379	ltpFR2	2	8	n/a	n/a	n/a	n/a	0	0	0
1511074	REC_WORD	wordpools/wasnorm_wordpool_576.txt	LTP379	ltpFR2	2	8	SPOON	1357	n/a	n/a	0	0	0
1512761	REC_WORD	wordpools/wasnorm_wordpool_576.txt	LTP379	ltpFR2	2	8	GRIZZLY	662	n/a	n/a	0	0	0
1515059	REC_WORD	wordpools/wasnorm_wordpool_576.txt	LTP379	ltpFR2	2	8	FRUIT	610	n/a	n/a	0	0	0
1516975	REC_WORD	wordpools/wasnorm_wordpool_576.txt	LTP379	ltpFR2	2	8	GRAPE	654	n/a	n/a	0	0	0
1520030	REC_WORD	wordpools/wasnorm_wordpool_576.txt	LTP379	ltpFR2	2	8	SKETCH	1315	n/a	n/a	0	0	0
1521815	REC_WORD	wordpools/wasnorm_wordpool_576.txt	LTP379	ltpFR2	2	8	DRAWING	494	n/a	n/a	0	0	0
1523331	REC_WORD	wordpools/wasnorm_wordpool_576.txt	LTP379	ltpFR2	2	8	CLOCK	325	n/a	n/a	0	0	0
1525414	REC_WORD	wordpools/wasnorm_wordpool_576.txt	LTP379	ltpFR2	2	8	BEAKER	104	n/a	n/a	0	0	0
1526737	REC_WORD	wordpools/wasnorm_wordpool_576.txt	LTP379	ltpFR2	2	8	CHAMPAGNE	278	n/a	n/a	0	0	0
1528796	REC_WORD	wordpools/wasnorm_wordpool_576.txt	LTP379	ltpFR2	2	8	WASHER	1592	n/a	n/a	0	0	0
1532505	REC_WORD	wordpools/wasnorm_wordpool_576.txt	LTP379	ltpFR2	2	8	BINDER	127	n/a	n/a	0	0	0
1536249	REC_WORD	wordpools/wasnorm_wordpool_576.txt	LTP379	ltpFR2	2	8	CARRIAGE	248	n/a	n/a	0	0	0
1537921	REC_WORD	wordpools/wasnorm_wordpool_576.txt	LTP379	ltpFR2	2	8	BELLY	119	n/a	n/a	0	0	0
1540175	REC_WORD	wordpools/wasnorm_wordpool_576.txt	LTP379	ltpFR2	2	8	GAVEL	627	n/a	n/a	0	0	0
1541511	REC_WORD	wordpools/wasnorm_wordpool_576.txt	LTP379	ltpFR2	2	8	STALLION	1369	n/a	n/a	0	0	0
1543299	REC_WORD	wordpools/wasnorm_wordpool_576.txt	LTP379	ltpFR2	2	8	SPACE	1345	n/a	n/a	0	0	0
1545243	REC_WORD	wordpools/wasnorm_wordpool_576.txt	LTP379	ltpFR2	2	8	ACTRESS	6	n/a	n/a	0	0	0
1547701	REC_WORD	wordpools/wasnorm_wordpool_576.txt	LTP379	ltpFR2	2	8	DRESSER	496	n/a	n/a	0	0	0
1549256	REC_WORD	wordpools/wasnorm_wordpool_576.txt	LTP379	ltpFR2	2	8	RELISH	1183	n/a	n/a	0	0	0
1550749	REC_WORD	wordpools/wasnorm_wordpool_576.txt	LTP379	ltpFR2	2	8	GARBAGE	622	n/a	n/a	0	0	0
1552107	REC_WORD	wordpools/wasnorm_wordpool_576.txt	LTP379	ltpFR2	2	8	ROBOT	1200	n/a	n/a	0	0	0
1553865	REC_WORD	wordpools/wasnorm_wordpool_576.txt	LTP379	ltpFR2	2	8	IGLOO	734	n/a	n/a	0	0	0
1555494	REC_WORD	wordpools/wasnorm_wordpool_576.txt	LTP379	ltpFR2	2	8	SEAGULL	1261	n/a	n/a	0	0	0
1557289	REC_WORD	wordpools/wasnorm_wordpool_576.txt	LTP379	ltpFR2	2	8	CRITIC	410	n/a	n/a	0	0	0
1582142	REST_REWET	n/a	LTP379	ltpFR2	2	8	n/a	n/a	n/a	n/a	0	0	0
1661624	WORD	wordpools/wasnorm_wordpool_576.txt	LTP379	ltpFR2	2	9	BLADE	134	n/a	n/a	0	0	0
1664241	WORD	wordpools/wasnorm_wordpool_576.txt	LTP379	ltpFR2	2	9	MARSH	874	n/a	n/a	0	0	0
1666991	WORD	wordpools/wasnorm_wordpool_576.txt	LTP379	ltpFR2	2	9	QUAIL	1147	n/a	n/a	0	0	0
1669474	WORD	wordpools/wasnorm_wordpool_576.txt	LTP379	ltpFR2	2	9	HIGHWAY	707	n/a	n/a	0	0	0
1671924	WORD	wordpools/wasnorm_wordpool_576.txt	LTP379	ltpFR2	2	9	SPARROW	1347	n/a	n/a	0	0	0
1674657	WORD	wordpools/wasnorm_wordpool_576.txt	LTP379	ltpFR2	2	9	PENGUIN	1044	n/a	n/a	0	0	0
1677291	WORD	wordpools/wasnorm_wordpool_576.txt	LTP379	ltpFR2	2	9	DRIVER	499	n/a	n/a	0	0	0
1679790	WORD	wordpools/wasnorm_wordpool_576.txt	LTP379	ltpFR2	2	9	WAGON	1578	n/a	n/a	0	0	0
1682474	WORD	wordpools/wasnorm_wordpool_576.txt	LTP379	ltpFR2	2	9	FOX	598	n/a	n/a	0	0	0
1685140	WORD	wordpools/wasnorm_wordpool_576.txt	LTP379	ltpFR2	2	9	NAPKIN	937	n/a	n/a	0	0	0
1687774	WORD	wordpools/wasnorm_wordpool_576.txt	LTP379	ltpFR2	2	9	BUTCHER	203	n/a	n/a	0	0	0
1690224	WORD	wordpools/wasnorm_wordpool_576.txt	LTP379	ltpFR2	2	9	BANKER	84	n/a	n/a	0	0	0
1692757	WORD	wordpools/wasnorm_wordpool_576.txt	LTP379	ltpFR2	2	9	ROBBER	1197	n/a	n/a	0	0	0
1695440	WORD	wordpools/wasnorm_wordpool_576.txt	LTP379	ltpFR2	2	9	CONVICT	371	n/a	n/a	0	0	0
1697990	WORD	wordpools/wasnorm_wordpool_576.txt	LTP379	ltpFR2	2	9	ARM	38	n/a	n/a	0	0	0
1700590	WORD	wordpools/wasnorm_wordpool_576.txt	LTP379	ltpFR2	2	9	SHOULDER	1294	n/a	n/a	0	0	0
1703023	WORD	wordpools/wasnorm_wordpool_576.txt	LTP379	ltpFR2	2	9	BLOCKADE	137	n/a	n/a	0	0	0
1705623	WORD	wordpools/wasnorm_wordpool_576.txt	LTP379	ltpFR2	2	9	TERMITE	1451	n/a	n/a	0	0	0
1708290	WORD	wordpools/wasnorm_wordpool_576.txt	LTP379	ltpFR2	2	9	BASEMENT	94	n/a	n/a	0	0	0
1711123	WORD	wordpools/wasnorm_wordpool_576.txt	LTP379	ltpFR2	2	9	MESSAGE	888	n/a	n/a	0	0	0
1713740	WORD	wordpools/wasnorm_wordpool_576.txt	LTP379	ltpFR2	2	9	WRIST	1626	n/a	n/a	0	0	0
1716490	WORD	wordpools/wasnorm_wordpool_576.txt	LTP379	ltpFR2	2	9	MARINE	869	n/a	n/a	0	0	0
1718923	WORD	wordpools/wasnorm_wordpool_576.txt	LTP379	ltpFR2	2	9	MARKER	870	n/a	n/a	0	0	0
1721640	WORD	wordpools/wasnorm_wordpool_576.txt	LTP379	ltpFR2	2	9	PORK	1108	n/a	n/a	0	0	0
1723257	START	n/a	LTP379	ltpFR2	2	n/a	n/a	n/a	13	n/a	n/a	n/a	n/a
1724099	DISTRACTOR	n/a	LTP379	ltpFR2	2	9	n/a	n/a	n/a	n/a	0	0	0
1724106	PROB	n/a	LTP379	ltpFR2	2	n/a	n/a	n/a	13	13	9	1	3
1726290	PROB	n/a	LTP379	ltpFR2	2	n/a	n/a	n/a	13	11	2	7	2
1728523	PROB	n/a	LTP379	ltpFR2	2	n/a	n/a	n/a	13	14	8	5	1
1730006	PROB	n/a	LTP379	ltpFR2	2	n/a	n/a	n/a	13	14	6	1	7
1731773	PROB	n/a	LTP379	ltpFR2	2	n/a	n/a	n/a	13	8	2	2	4
1733023	PROB	n/a	LTP379	ltpFR2	2	n/a	n/a	n/a	13	24	6	9	9
1734940	PROB	n/a	LTP379	ltpFR2	2	n/a	n/a	n/a	13	20	7	6	7
1737056	PROB	n/a	LTP379	ltpFR2	2	n/a	n/a	n/a	13	14	6	5	3
1738839	PROB	n/a	LTP379	ltpFR2	2	n/a	n/a	n/a	13	12	7	3	2
1740356	PROB	n/a	LTP379	ltpFR2	2	n/a	n/a	n/a	13	12	2	4	6
1741939	PROB	n/a	LTP379	ltpFR2	2	n/a	n/a	n/a	13	17	7	9	1
1743939	PROB	n/a	LTP379	ltpFR2	2	n/a	n/a	n/a	13	15	8	2	5
1745223	PROB	n/a	LTP379	ltpFR2	2	n/a	n/a	n/a	13	15	5	1	9
1746732	STOP	n/a	LTP379	ltpFR2	2	n/a	n/a	n/a	13	n/a	n/a	n/a	n/a
1749123	REC_START	n/a	LTP379	ltpFR2	2	9	n/a	n/a	n/a	n/a	0	0	0
1752025	REC_WORD	wordpools/wasnorm_wordpool_576.txt	LTP379	ltpFR2	2	9	BLADE	134	n/a	n/a	0	0	0
1753406	REC_WORD	wordpools/wasnorm_wordpool_576.txt	LTP379	ltpFR2	2	9	MARSH	874	n/a	n/a	0	0	0
1754809	REC_WORD	wordpools/wasnorm_wordpool_576.txt	LTP379	ltpFR2	2	9	QUAIL	1147	n/a	n/a	0	0	0
1756781	REC_WORD	wordpools/wasnorm_wordpool_576.txt	LTP379	ltpFR2	2	9	SPARROW	1347	n/a	n/a	0	0	0
1758321	REC_WORD	wordpools/wasnorm_wordpool_576.txt	LTP379	ltpFR2	2	9	PENGUIN	1044	n/a	n/a	0	0	0
1759836	REC_WORD	wordpools/wasnorm_wordpool_576.txt	LTP379	ltpFR2	2	9	HIGHWAY	707	n/a	n/a	0	0	0
1761515	REC_WORD	wordpools/wasnorm_wordpool_576.txt	LTP379	ltpFR2	2	9	WAGON	1578	n/a	n/a	0	0	0
1763023	REC_WORD	wordpools/wasnorm_wordpool_576.txt	LTP379	ltpFR2	2	9	DRIVER	499	n/a	n/a	0	0	0
1768970	REC_WORD	wordpools/wasnorm_wordpool_576.txt	LTP379	ltpFR2	2	9	FOX	598	n/a	n/a	0	0	0
1770545	REC_WORD	wordpools/wasnorm_wordpool_576.txt	LTP379	ltpFR2	2	9	NAPKIN	937	n/a	n/a	0	0	0
1772375	REC_WORD	wordpools/wasnorm_wordpool_576.txt	LTP379	ltpFR2	2	9	BUTCHER	203	n/a	n/a	0	0	0
1779544	REC_WORD	wordpools/wasnorm_wordpool_576.txt	LTP379	ltpFR2	2	9	BANKER	84	n/a	n/a	0	0	0
1780923	REC_WORD	wordpools/wasnorm_wordpool_576.txt	LTP379	ltpFR2	2	9	ROBBER	1197	n/a	n/a	0	0	0
1783205	REC_WORD	wordpools/wasnorm_wordpool_576.txt	LTP379	ltpFR2	2	9	CONVICT	371	n/a	n/a	0	0	0
1784864	REC_WORD	wordpools/wasnorm_wordpool_576.txt	LTP379	ltpFR2	2	9	ARM	38	n/a	n/a	0	0	0
1786473	REC_WORD	wordpools/wasnorm_wordpool_576.txt	LTP379	ltpFR2	2	9	SHOULDER	1294	n/a	n/a	0	0	0
1788606	REC_WORD	wordpools/wasnorm_wordpool_576.txt	LTP379	ltpFR2	2	9	BLOCKADE	137	n/a	n/a	0	0	0
1790570	REC_WORD	wordpools/wasnorm_wordpool_576.txt	LTP379	ltpFR2	2	9	TERMITE	1451	n/a	n/a	0	0	0
1793909	REC_WORD	wordpools/wasnorm_wordpool_576.txt	LTP379	ltpFR2	2	9	BASEMENT	94	n/a	n/a	0	0	0
1795328	REC_WORD	wordpools/wasnorm_wordpool_576.txt	LTP379	ltpFR2	2	9	MESSAGE	888	n/a	n/a	0	0	0
1797355	REC_WORD	wordpools/wasnorm_wordpool_576.txt	LTP379	ltpFR2	2	9	MARINE	869	n/a	n/a	0	0	0
1799142	REC_WORD	wordpools/wasnorm_wordpool_576.txt	LTP379	ltpFR2	2	9	MARKER	870	n/a	n/a	0	0	0
1800885	REC_WORD	wordpools/wasnorm_wordpool_576.txt	LTP379	ltpFR2	2	9	PORK	1108	n/a	n/a	0	0	0
1839571	DISTRACTOR	n/a	LTP379	ltpFR2	2	10	n/a	n/a	n/a	n/a	0	0	0
1839571	START	n/a	LTP379	ltpFR2	2	n/a	n/a	n/a	14	n/a	n/a	n/a	n/a
1839588	PROB	n/a	LTP379	ltpFR2	2	n/a	n/a	n/a	14	13	4	4	5
1841371	PROB	n/a	LTP379	ltpFR2	2	n/a	n/a	n/a	14	25	9	7	9
1843621	PROB	n/a	LTP379	ltpFR2	2	n/a	n/a	n/a	14	8	4	1	3
1845238	PROB	n/a	LTP379	ltpFR2	2	n/a	n/a	n/a	14	16	6	6	4
1847320	PROB	n/a	LTP379	ltpFR2	2	n/a	n/a	n/a	14	9	4	4	1
1848671	PROB	n/a	LTP379	ltpFR2	2	n/a	n/a	n/a	14	14	4	6	4
1850054	PROB	n/a	LTP379	ltpFR2	2	n/a	n/a	n/a	14	13	9	3	1
1851971	PROB	n/a	LTP379	ltpFR2	2	n/a	n/a	n/a	14	18	9	5	4
1853671	PROB	n/a	LTP379	ltpFR2	2	n/a	n/a	n/a	14	21	8	6	7
1855671	PROB	n/a	LTP379	ltpFR2	2	n/a	n/a	n/a	14	10	6	2	2
1858254	PROB	n/a	LTP379	ltpFR2	2	n/a	n/a	n/a	14	15	6	1	8
1860238	PROB	n/a	LTP379	ltpFR2	2	n/a	n/a	n/a	14	14	6	5	3
1861688	PROB	n/a	LTP379	ltpFR2	2	n/a	n/a	n/a	14	15	8	3	4
1863480	STOP	n/a	LTP379	ltpFR2	2	n/a	n/a	n/a	14	n/a	n/a	n/a	n/a
1864571	WORD	wordpools/wasnorm_wordpool_576.txt	LTP379	ltpFR2	2	10	GRAVE	658	n/a	n/a	0	0	0
1867171	WORD	wordpools/wasnorm_wordpool_576.txt	LTP379	ltpFR2	2	10	JAPAN	749	n/a	n/a	0	0	0
1869871	WORD	wordpools/wasnorm_wordpool_576.txt	LTP379	ltpFR2	2	10	TWEEZERS	1526	n/a	n/a	0	0	0
1872337	WORD	wordpools/wasnorm_wordpool_576.txt	LTP379	ltpFR2	2	10	TRIBE	1505	n/a	n/a	0	0	0
1875037	WORD	wordpools/wasnorm_wordpool_576.txt	LTP379	ltpFR2	2	10	WASP	1593	n/a	n/a	0	0	0
1877487	WORD	wordpools/wasnorm_wordpool_576.txt	LTP379	ltpFR2	2	10	CASKET	255	n/a	n/a	0	0	0
1880087	WORD	wordpools/wasnorm_wordpool_576.txt	LTP379	ltpFR2	2	10	OUTFIT	988	n/a	n/a	0	0	0
1882537	WORD	wordpools/wasnorm_wordpool_576.txt	LTP379	ltpFR2	2	10	TWIG	1527	n/a	n/a	0	0	0
1885237	WORD	wordpools/wasnorm_wordpool_576.txt	LTP379	ltpFR2	2	10	HEDGE	699	n/a	n/a	0	0	0
1887920	WORD	wordpools/wasnorm_wordpool_576.txt	LTP379	ltpFR2	2	10	PISTON	1076	n/a	n/a	0	0	0
1890604	WORD	wordpools/wasnorm_wordpool_576.txt	LTP379	ltpFR2	2	10	MONSTER	912	n/a	n/a	0	0	0
1893070	WORD	wordpools/wasnorm_wordpool_576.txt	LTP379	ltpFR2	2	10	PACKAGE	997	n/a	n/a	0	0	0
1895837	WORD	wordpools/wasnorm_wordpool_576.txt	LTP379	ltpFR2	2	10	WINDOW	1611	n/a	n/a	0	0	0
1898637	WORD	wordpools/wasnorm_wordpool_576.txt	LTP379	ltpFR2	2	10	LEADER	807	n/a	n/a	0	0	0
1901104	WORD	wordpools/wasnorm_wordpool_576.txt	LTP379	ltpFR2	2	10	BUG	187	n/a	n/a	0	0	0
1903770	WORD	wordpools/wasnorm_wordpool_576.txt	LTP379	ltpFR2	2	10	COFFEE	341	n/a	n/a	0	0	0
1906353	WORD	wordpools/wasnorm_wordpool_576.txt	LTP379	ltpFR2	2	10	CASHIER	254	n/a	n/a	0	0	0
1908987	WORD	wordpools/wasnorm_wordpool_576.txt	LTP379	ltpFR2	2	10	DRAGON	492	n/a	n/a	0	0	0
1911720	WORD	wordpools/wasnorm_wordpool_576.txt	LTP379	ltpFR2	2	10	RIFLE	1192	n/a	n/a	0	0	0
1914203	WORD	wordpools/wasnorm_wordpool_576.txt	LTP379	ltpFR2	2	10	BULLET	194	n/a	n/a	0	0	0
1916853	WORD	wordpools/wasnorm_wordpool_576.txt	LTP379	ltpFR2	2	10	OFFICE	972	n/a	n/a	0	0	0
1919337	WORD	wordpools/wasnorm_wordpool_576.txt	LTP379	ltpFR2	2	10	GANGSTER	620	n/a	n/a	0	0	0
1922037	WORD	wordpools/wasnorm_wordpool_576.txt	LTP379	ltpFR2	2	10	FLEET	578	n/a	n/a	0	0	0
1924570	WORD	wordpools/wasnorm_wordpool_576.txt	LTP379	ltpFR2	2	10	WHISKERS	1605	n/a	n/a	0	0	0
1926187	START	n/a	LTP379	ltpFR2	2	n/a	n/a	n/a	15	n/a	n/a	n/a	n/a
1927013	DISTRACTOR	n/a	LTP379	ltpFR2	2	10	n/a	n/a	n/a	n/a	0	0	0
1927020	PROB	n/a	LTP379	ltpFR2	2	n/a	n/a	n/a	15	16	4	9	3
1930020	PROB	n/a	LTP379	ltpFR2	2	n/a	n/a	n/a	15	11	7	2	2
1931319	PROB	n/a	LTP379	ltpFR2	2	n/a	n/a	n/a	15	13	5	7	1
1934319	PROB	n/a	LTP379	ltpFR2	2	n/a	n/a	n/a	15	15	9	4	2
1936003	PROB	n/a	LTP379	ltpFR2	2	n/a	n/a	n/a	15	11	5	1	5
1937253	PROB	n/a	LTP379	ltpFR2	2	n/a	n/a	n/a	15	19	4	6	9
1938586	PROB	n/a	LTP379	ltpFR2	2	n/a	n/a	n/a	15	19	8	2	9
1939786	PROB	n/a	LTP379	ltpFR2	2	n/a	n/a	n/a	15	16	2	8	6
1941003	PROB	n/a	LTP379	ltpFR2	2	n/a	n/a	n/a	15	9	6	1	2
1942703	PROB	n/a	LTP379	ltpFR2	2	n/a	n/a	n/a	15	10	1	6	3
1944286	PROB	n/a	LTP379	ltpFR2	2	n/a	n/a	n/a	15	11	6	4	1
1945470	PROB	n/a	LTP379	ltpFR2	2	n/a	n/a	n/a	15	22	9	9	4
1946853	PROB	n/a	LTP379	ltpFR2	2	n/a	n/a	n/a	15	13	4	7	2
1948536	PROB	n/a	LTP379	ltpFR2	2	n/a	n/a	n/a	15	12	6	3	6
1949946	STOP	n/a	LTP379	ltpFR2	2	n/a	n/a	n/a	15	n/a	n/a	n/a	n/a
1952003	REC_START	n/a	LTP379	ltpFR2	2	10	n/a	n/a	n/a	n/a	0	0	0
1966130	REC_WORD	wordpools/wasnorm_wordpool_576.txt	LTP379	ltpFR2	2	10	GRAVE	658	n/a	n/a	0	0	0
1967258	REC_WORD	wordpools/wasnorm_wordpool_576.txt	LTP379	ltpFR2	2	10	JAPAN	749	n/a	n/a	0	0	0
1968812	REC_WORD	wordpools/wasnorm_wordpool_576.txt	LTP379	ltpFR2	2	10	TWEEZERS	1526	n/a	n/a	0	0	0
1972532	REC_WORD	wordpools/wasnorm_wordpool_576.txt	LTP379	ltpFR2	2	10	TRIBE	1505	n/a	n/a	0	0	0
1977859	REC_WORD	wordpools/wasnorm_wordpool_576.txt	LTP379	ltpFR2	2	10	WASP	1593	n/a	n/a	0	0	0
1981557	REC_WORD	wordpools/wasnorm_wordpool_576.txt	LTP379	ltpFR2	2	10	CASKET	255	n/a	n/a	0	0	0
1983716	REC_WORD	wordpools/wasnorm_wordpool_576.txt	LTP379	ltpFR2	2	10	OUTFIT	988	n/a	n/a	0	0	0
1985029	REC_WORD	wordpools/wasnorm_wordpool_576.txt	LTP379	ltpFR2	2	10	TWIG	1527	n/a	n/a	0	0	0
1986518	REC_WORD	wordpools/wasnorm_wordpool_576.txt	LTP379	ltpFR2	2	10	PISTON	1076	n/a	n/a	0	0	0
1987854	REC_WORD	wordpools/wasnorm_wordpool_576.txt	LTP379	ltpFR2	2	10	MONSTER	912	n/a	n/a	0	0	0
1989616	REC_WORD	wordpools/wasnorm_wordpool_576.txt	LTP379	ltpFR2	2	10	PACKAGE	997	n/a	n/a	0	0	0
1993538	REC_WORD	wordpools/wasnorm_wordpool_576.txt	LTP379	ltpFR2	2	10	WINDOW	1611	n/a	n/a	0	0	0
1995282	REC_WORD	wordpools/wasnorm_wordpool_576.txt	LTP379	ltpFR2	2	10	LEADER	807	n/a	n/a	0	0	0
1997095	REC_WORD	wordpools/wasnorm_wordpool_576.txt	LTP379	ltpFR2	2	10	BUG	187	n/a	n/a	0	0	0
1998617	REC_WORD	wordpools/wasnorm_wordpool_576.txt	LTP379	ltpFR2	2	10	COFFEE	341	n/a	n/a	0	0	0
2000048	REC_WORD	wordpools/wasnorm_wordpool_576.txt	LTP379	ltpFR2	2	10	CASHIER	254	n/a	n/a	0	0	0
2002023	REC_WORD	wordpools/wasnorm_wordpool_576.txt	LTP379	ltpFR2	2	10	DRAGON	492	n/a	n/a	0	0	0
2003814	REC_WORD	wordpools/wasnorm_wordpool_576.txt	LTP379	ltpFR2	2	10	BULLET	194	n/a	n/a	0	0	0
2005692	REC_WORD	wordpools/wasnorm_wordpool_576.txt	LTP379	ltpFR2	2	10	RIFLE	1192	n/a	n/a	0	0	0
2007425	REC_WORD	wordpools/wasnorm_wordpool_576.txt	LTP379	ltpFR2	2	10	OFFICE	972	n/a	n/a	0	0	0
2009264	REC_WORD	wordpools/wasnorm_wordpool_576.txt	LTP379	ltpFR2	2	10	GANGSTER	620	n/a	n/a	0	0	0
2014639	REC_WORD	wordpools/wasnorm_wordpool_576.txt	LTP379	ltpFR2	2	10	FLEET	578	n/a	n/a	0	0	0
2016245	REC_WORD	wordpools/wasnorm_wordpool_576.txt	LTP379	ltpFR2	2	10	WHISKERS	1605	n/a	n/a	0	0	0
2042451	DISTRACTOR	n/a	LTP379	ltpFR2	2	11	n/a	n/a	n/a	n/a	0	0	0
2042451	START	n/a	LTP379	ltpFR2	2	n/a	n/a	n/a	16	n/a	n/a	n/a	n/a
2042468	PROB	n/a	LTP379	ltpFR2	2	n/a	n/a	n/a	16	17	3	6	8
2044300	PROB	n/a	LTP379	ltpFR2	2	n/a	n/a	n/a	16	23	8	8	7
2047168	PROB	n/a	LTP379	ltpFR2	2	n/a	n/a	n/a	16	20	5	8	7
2048618	PROB	n/a	LTP379	ltpFR2	2	n/a	n/a	n/a	16	20	7	9	4
2050368	PROB	n/a	LTP379	ltpFR2	2	n/a	n/a	n/a	16	11	6	4	1
2051501	PROB	n/a	LTP379	ltpFR2	2	n/a	n/a	n/a	16	14	4	9	1
2053134	PROB	n/a	LTP379	ltpFR2	2	n/a	n/a	n/a	16	11	2	3	6
2054434	PROB	n/a	LTP379	ltpFR2	2	n/a	n/a	n/a	16	11	6	1	4
2055701	PROB	n/a	LTP379	ltpFR2	2	n/a	n/a	n/a	16	15	5	3	7
2057384	PROB	n/a	LTP379	ltpFR2	2	n/a	n/a	n/a	16	13	4	7	2
2059151	PROB	n/a	LTP379	ltpFR2	2	n/a	n/a	n/a	16	12	3	1	8
2060651	PROB	n/a	LTP379	ltpFR2	2	n/a	n/a	n/a	16	22	6	8	8
2062401	PROB	n/a	LTP379	ltpFR2	2	n/a	n/a	n/a	16	16	1	6	9
2063734	PROB	n/a	LTP379	ltpFR2	2	n/a	n/a	n/a	16	15	3	8	4
2065670	STOP	n/a	LTP379	ltpFR2	2	n/a	n/a	n/a	16	n/a	n/a	n/a	n/a
2067451	WORD	wordpools/wasnorm_wordpool_576.txt	LTP379	ltpFR2	2	11	CHAUFFEUR	283	n/a	n/a	0	0	0
2069934	WORD	wordpools/wasnorm_wordpool_576.txt	LTP379	ltpFR2	2	11	FUNGUS	614	n/a	n/a	0	0	0
2072501	WORD	wordpools/wasnorm_wordpool_576.txt	LTP379	ltpFR2	2	11	LETTUCE	814	n/a	n/a	0	0	0
2075101	WORD	wordpools/wasnorm_wordpool_576.txt	LTP379	ltpFR2	2	11	SERVER	1272	n/a	n/a	0	0	0
2077801	WORD	wordpools/wasnorm_wordpool_576.txt	LTP379	ltpFR2	2	11	INFANT	737	n/a	n/a	0	0	0
2080334	WORD	wordpools/wasnorm_wordpool_576.txt	LTP379	ltpFR2	2	11	BUBBLE	183	n/a	n/a	0	0	0
2082834	WORD	wordpools/wasnorm_wordpool_576.txt	LTP379	ltpFR2	2	11	APPLE	33	n/a	n/a	0	0	0
2085284	WORD	wordpools/wasnorm_wordpool_576.txt	LTP379	ltpFR2	2	11	BRAKE	166	n/a	n/a	0	0	0
2088067	WORD	wordpools/wasnorm_wordpool_576.txt	LTP379	ltpFR2	2	11	CLAMP	316	n/a	n/a	0	0	0
2090651	WORD	wordpools/wasnorm_wordpool_576.txt	LTP379	ltpFR2	2	11	GLOBE	641	n/a	n/a	0	0	0
2093299	WORD	wordpools/wasnorm_wordpool_576.txt	LTP379	ltpFR2	2	11	MARS	873	n/a	n/a	0	0	0
2095934	WORD	wordpools/wasnorm_wordpool_576.txt	LTP379	ltpFR2	2	11	LIZARD	834	n/a	n/a	0	0	0
2098750	WORD	wordpools/wasnorm_wordpool_576.txt	LTP379	ltpFR2	2	11	TROMBONE	1508	n/a	n/a	0	0	0
2101550	WORD	wordpools/wasnorm_wordpool_576.txt	LTP379	ltpFR2	2	11	TABLE	1426	n/a	n/a	0	0	0
2104117	WORD	wordpools/wasnorm_wordpool_576.txt	LTP379	ltpFR2	2	11	MILK	895	n/a	n/a	0	0	0
2106884	WORD	wordpools/wasnorm_wordpool_576.txt	LTP379	ltpFR2	2	11	GALLON	618	n/a	n/a	0	0	0
2109417	WORD	wordpools/wasnorm_wordpool_576.txt	LTP379	ltpFR2	2	11	CIGAR	308	n/a	n/a	0	0	0
2111950	WORD	wordpools/wasnorm_wordpool_576.txt	LTP379	ltpFR2	2	11	COUCH	386	n/a	n/a	0	0	0
2114417	WORD	wordpools/wasnorm_wordpool_576.txt	LTP379	ltpFR2	2	11	FLUTE	585	n/a	n/a	0	0	0
2116967	WORD	wordpools/wasnorm_wordpool_576.txt	LTP379	ltpFR2	2	11	HORNET	718	n/a	n/a	0	0	0
2119683	WORD	wordpools/wasnorm_wordpool_576.txt	LTP379	ltpFR2	2	11	PREACHER	1119	n/a	n/a	0	0	0
2122467	WORD	wordpools/wasnorm_wordpool_576.txt	LTP379	ltpFR2	2	11	GYMNAST	675	n/a	n/a	0	0	0
2125283	WORD	wordpools/wasnorm_wordpool_576.txt	LTP379	ltpFR2	2	11	CUSTARD	429	n/a	n/a	0	0	0
2127917	WORD	wordpools/wasnorm_wordpool_576.txt	LTP379	ltpFR2	2	11	PERFUME	1049	n/a	n/a	0	0	0
2129534	START	n/a	LTP379	ltpFR2	2	n/a	n/a	n/a	17	n/a	n/a	n/a	n/a
2130507	DISTRACTOR	n/a	LTP379	ltpFR2	2	11	n/a	n/a	n/a	n/a	0	0	0
2130517	PROB	n/a	LTP379	ltpFR2	2	n/a	n/a	n/a	17	11	2	5	4
2135533	PROB	n/a	LTP379	ltpFR2	2	n/a	n/a	n/a	17	14	4	2	8
2137033	PROB	n/a	LTP379	ltpFR2	2	n/a	n/a	n/a	17	15	1	9	5
2138299	PROB	n/a	LTP379	ltpFR2	2	n/a	n/a	n/a	17	8	1	3	4
2139883	PROB	n/a	LTP379	ltpFR2	2	n/a	n/a	n/a	17	10	1	5	4
2141733	PROB	n/a	LTP379	ltpFR2	2	n/a	n/a	n/a	17	9	5	2	2
2143633	PROB	n/a	LTP379	ltpFR2	2	n/a	n/a	n/a	17	22	9	5	8
2146933	PROB	n/a	LTP379	ltpFR2	2	n/a	n/a	n/a	17	5	3	1	1
2148066	PROB	n/a	LTP379	ltpFR2	2	n/a	n/a	n/a	17	10	3	6	1
2149250	PROB	n/a	LTP379	ltpFR2	2	n/a	n/a	n/a	17	15	4	6	5
2150616	PROB	n/a	LTP379	ltpFR2	2	n/a	n/a	n/a	17	7	2	4	1
2152319	STOP	n/a	LTP379	ltpFR2	2	n/a	n/a	n/a	17	n/a	n/a	n/a	n/a
2155316	REC_START	n/a	LTP379	ltpFR2	2	11	n/a	n/a	n/a	n/a	0	0	0
2165643	REC_WORD	wordpools/wasnorm_wordpool_576.txt	LTP379	ltpFR2	2	11	CHAUFFEUR	283	n/a	n/a	0	0	0
2167179	REC_WORD	wordpools/wasnorm_wordpool_576.txt	LTP379	ltpFR2	2	11	FUNGUS	614	n/a	n/a	0	0	0
2168627	REC_WORD_VV	wordpools/wasnorm_wordpool_576.txt	LTP379	ltpFR2	2	11	<>	-1	n/a	n/a	0	0	0
2169677	REC_WORD	wordpools/wasnorm_wordpool_576.txt	LTP379	ltpFR2	2	11	LETTUCE	814	n/a	n/a	0	0	0
2178672	REC_WORD	wordpools/wasnorm_wordpool_576.txt	LTP379	ltpFR2	2	11	SERVER	1272	n/a	n/a	0	0	0
2180141	REC_WORD	wordpools/wasnorm_wordpool_576.txt	LTP379	ltpFR2	2	11	INFANT	737	n/a	n/a	0	0	0
2181663	REC_WORD	wordpools/wasnorm_wordpool_576.txt	LTP379	ltpFR2	2	11	BUBBLE	183	n/a	n/a	0	0	0
2183014	REC_WORD	wordpools/wasnorm_wordpool_576.txt	LTP379	ltpFR2	2	11	APPLE	33	n/a	n/a	0	0	0
2185246	REC_WORD	wordpools/wasnorm_wordpool_576.txt	LTP379	ltpFR2	2	11	BRAKE	166	n/a	n/a	0	0	0
2186748	REC_WORD	wordpools/wasnorm_wordpool_576.txt	LTP379	ltpFR2	2	11	CLAMP	316	n/a	n/a	0	0	0
2188698	REC_WORD	wordpools/wasnorm_wordpool_576.txt	LTP379	ltpFR2	2	11	GLOBE	641	n/a	n/a	0	0	0
2190330	REC_WORD	wordpools/wasnorm_wordpool_576.txt	LTP379	ltpFR2	2	11	MARS	873	n/a	n/a	0	0	0
2192072	REC_WORD	wordpools/wasnorm_wordpool_576.txt	LTP379	ltpFR2	2	11	LIZARD	834	n/a	n/a	0	0	0
2193404	REC_WORD	wordpools/wasnorm_wordpool_576.txt	LTP379	ltpFR2	2	11	TROMBONE	1508	n/a	n/a	0	0	0
2195341	REC_WORD	wordpools/wasnorm_wordpool_576.txt	LTP379	ltpFR2	2	11	TABLE	1426	n/a	n/a	0	0	0
2196869	REC_WORD	wordpools/wasnorm_wordpool_576.txt	LTP379	ltpFR2	2	11	MILK	895	n/a	n/a	0	0	0
2198704	REC_WORD	wordpools/wasnorm_wordpool_576.txt	LTP379	ltpFR2	2	11	GALLON	618	n/a	n/a	0	0	0
2200295	REC_WORD	wordpools/wasnorm_wordpool_576.txt	LTP379	ltpFR2	2	11	CIGAR	308	n/a	n/a	0	0	0
2201945	REC_WORD	wordpools/wasnorm_wordpool_576.txt	LTP379	ltpFR2	2	11	COUCH	386	n/a	n/a	0	0	0
2203493	REC_WORD	wordpools/wasnorm_wordpool_576.txt	LTP379	ltpFR2	2	11	FLUTE	585	n/a	n/a	0	0	0
2205415	REC_WORD	wordpools/wasnorm_wordpool_576.txt	LTP379	ltpFR2	2	11	HORNET	718	n/a	n/a	0	0	0
2207081	REC_WORD	wordpools/wasnorm_wordpool_576.txt	LTP379	ltpFR2	2	11	PREACHER	1119	n/a	n/a	0	0	0
2209044	REC_WORD	wordpools/wasnorm_wordpool_576.txt	LTP379	ltpFR2	2	11	GYMNAST	675	n/a	n/a	0	0	0
2210847	REC_WORD	wordpools/wasnorm_wordpool_576.txt	LTP379	ltpFR2	2	11	CUSTARD	429	n/a	n/a	0	0	0
2212651	REC_WORD	wordpools/wasnorm_wordpool_576.txt	LTP379	ltpFR2	2	11	PERFUME	1049	n/a	n/a	0	0	0
2245765	WORD	wordpools/wasnorm_wordpool_576.txt	LTP379	ltpFR2	2	12	PUDDING	1139	n/a	n/a	0	0	0
2248398	WORD	wordpools/wasnorm_wordpool_576.txt	LTP379	ltpFR2	2	12	SHORTCAKE	1292	n/a	n/a	0	0	0
2250848	WORD	wordpools/wasnorm_wordpool_576.txt	LTP379	ltpFR2	2	12	BLENDER	136	n/a	n/a	0	0	0
2253615	WORD	wordpools/wasnorm_wordpool_576.txt	LTP379	ltpFR2	2	12	HUSBAND	728	n/a	n/a	0	0	0
2256131	WORD	wordpools/wasnorm_wordpool_576.txt	LTP379	ltpFR2	2	12	SCARF	1246	n/a	n/a	0	0	0
2258898	WORD	wordpools/wasnorm_wordpool_576.txt	LTP379	ltpFR2	2	12	BUREAU	199	n/a	n/a	0	0	0
2261648	WORD	wordpools/wasnorm_wordpool_576.txt	LTP379	ltpFR2	2	12	GROUND	666	n/a	n/a	0	0	0
2264381	WORD	wordpools/wasnorm_wordpool_576.txt	LTP379	ltpFR2	2	12	SPOUSE	1358	n/a	n/a	0	0	0
2267181	WORD	wordpools/wasnorm_wordpool_576.txt	LTP379	ltpFR2	2	12	DANDRUFF	439	n/a	n/a	0	0	0
2269664	WORD	wordpools/wasnorm_wordpool_576.txt	LTP379	ltpFR2	2	12	NECKLACE	940	n/a	n/a	0	0	0
2272231	WORD	wordpools/wasnorm_wordpool_576.txt	LTP379	ltpFR2	2	12	DRUG	501	n/a	n/a	0	0	0
2274714	WORD	wordpools/wasnorm_wordpool_576.txt	LTP379	ltpFR2	2	12	LIPSTICK	829	n/a	n/a	0	0	0
2277364	WORD	wordpools/wasnorm_wordpool_576.txt	LTP379	ltpFR2	2	12	FRECKLE	602	n/a	n/a	0	0	0
2279998	WORD	wordpools/wasnorm_wordpool_576.txt	LTP379	ltpFR2	2	12	EAGLE	512	n/a	n/a	0	0	0
2282747	WORD	wordpools/wasnorm_wordpool_576.txt	LTP379	ltpFR2	2	12	CRUTCH	417	n/a	n/a	0	0	0
2285381	WORD	wordpools/wasnorm_wordpool_576.txt	LTP379	ltpFR2	2	12	STOVE	1388	n/a	n/a	0	0	0
2288131	WORD	wordpools/wasnorm_wordpool_576.txt	LTP379	ltpFR2	2	12	SUNSET	1408	n/a	n/a	0	0	0
2290647	WORD	wordpools/wasnorm_wordpool_576.txt	LTP379	ltpFR2	2	12	CREVICE	405	n/a	n/a	0	0	0
2293296	WORD	wordpools/wasnorm_wordpool_576.txt	LTP379	ltpFR2	2	12	CAPTIVE	240	n/a	n/a	0	0	0
2295947	WORD	wordpools/wasnorm_wordpool_576.txt	LTP379	ltpFR2	2	12	BRANDY	169	n/a	n/a	0	0	0
2298681	WORD	wordpools/wasnorm_wordpool_576.txt	LTP379	ltpFR2	2	12	SCOTCH	1251	n/a	n/a	0	0	0
2301231	WORD	wordpools/wasnorm_wordpool_576.txt	LTP379	ltpFR2	2	12	DOUGHNUT	490	n/a	n/a	0	0	0
2303914	WORD	wordpools/wasnorm_wordpool_576.txt	LTP379	ltpFR2	2	12	PIZZA	1079	n/a	n/a	0	0	0
2306397	WORD	wordpools/wasnorm_wordpool_576.txt	LTP379	ltpFR2	2	12	SNACK	1331	n/a	n/a	0	0	0
2308014	START	n/a	LTP379	ltpFR2	2	n/a	n/a	n/a	18	n/a	n/a	n/a	n/a
2309068	DISTRACTOR	n/a	LTP379	ltpFR2	2	12	n/a	n/a	n/a	n/a	0	0	0
2309080	PROB	n/a	LTP379	ltpFR2	2	n/a	n/a	n/a	18	16	7	7	2
2311064	PROB	n/a	LTP379	ltpFR2	2	n/a	n/a	n/a	18	22	6	9	7
2313147	PROB	n/a	LTP379	ltpFR2	2	n/a	n/a	n/a	18	19	8	4	7
2315597	PROB	n/a	LTP379	ltpFR2	2	n/a	n/a	n/a	18	6	1	3	2
2316997	PROB	n/a	LTP379	ltpFR2	2	n/a	n/a	n/a	18	12	1	3	8
2319130	PROB	n/a	LTP379	ltpFR2	2	n/a	n/a	n/a	18	15	5	4	6
2320447	PROB	n/a	LTP379	ltpFR2	2	n/a	n/a	n/a	18	10	2	4	4
2322930	PROB	n/a	LTP379	ltpFR2	2	n/a	n/a	n/a	18	17	1	8	8
2324329	PROB	n/a	LTP379	ltpFR2	2	n/a	n/a	n/a	18	7	2	1	4
2325597	PROB	n/a	LTP379	ltpFR2	2	n/a	n/a	n/a	18	10	4	3	3
2327047	PROB	n/a	LTP379	ltpFR2	2	n/a	n/a	n/a	18	16	7	8	1
2328347	PROB	n/a	LTP379	ltpFR2	2	n/a	n/a	n/a	18	9	3	5	1
2329580	PROB	n/a	LTP379	ltpFR2	2	n/a	n/a	n/a	18	15	1	9	5
2331622	STOP	n/a	LTP379	ltpFR2	2	n/a	n/a	n/a	18	n/a	n/a	n/a	n/a
2333847	REC_START	n/a	LTP379	ltpFR2	2	12	n/a	n/a	n/a	n/a	0	0	0
2336146	REC_WORD	wordpools/wasnorm_wordpool_576.txt	LTP379	ltpFR2	2	12	PUDDING	1139	n/a	n/a	0	0	0
2337320	REC_WORD	wordpools/wasnorm_wordpool_576.txt	LTP379	ltpFR2	2	12	SHORTCAKE	1292	n/a	n/a	0	0	0
2338572	REC_WORD_VV	wordpools/wasnorm_wordpool_576.txt	LTP379	ltpFR2	2	12	<>	-1	n/a	n/a	0	0	0
2339487	REC_WORD	wordpools/wasnorm_wordpool_576.txt	LTP379	ltpFR2	2	12	BLENDER	136	n/a	n/a	0	0	0
2341297	REC_WORD	wordpools/wasnorm_wordpool_576.txt	LTP379	ltpFR2	2	12	HUSBAND	728	n/a	n/a	0	0	0
2342723	REC_WORD	wordpools/wasnorm_wordpool_576.txt	LTP379	ltpFR2	2	12	SCARF	1246	n/a	n/a	0	0	0
2344562	REC_WORD	wordpools/wasnorm_wordpool_576.txt	LTP379	ltpFR2	2	12	BUREAU	199	n/a	n/a	0	0	0
2346273	REC_WORD	wordpools/wasnorm_wordpool_576.txt	LTP379	ltpFR2	2	12	GROUND	666	n/a	n/a	0	0	0
2350678	REC_WORD	wordpools/wasnorm_wordpool_576.txt	LTP379	ltpFR2	2	12	SPOUSE	1358	n/a	n/a	0	0	0
2354024	REC_WORD	wordpools/wasnorm_wordpool_576.txt	LTP379	ltpFR2	2	12	DANDRUFF	439	n/a	n/a	0	0	0
2355407	REC_WORD	wordpools/wasnorm_wordpool_576.txt	LTP379	ltpFR2	2	12	NECKLACE	940	n/a	n/a	0	0	0
2357172	REC_WORD	wordpools/wasnorm_wordpool_576.txt	LTP379	ltpFR2	2	12	DRUG	501	n/a	n/a	0	0	0
2359257	REC_WORD	wordpools/wasnorm_wordpool_576.txt	LTP379	ltpFR2	2	12	LIPSTICK	829	n/a	n/a	0	0	0
2360845	REC_WORD	wordpools/wasnorm_wordpool_576.txt	LTP379	ltpFR2	2	12	FRECKLE	602	n/a	n/a	0	0	0
2362578	REC_WORD	wordpools/wasnorm_wordpool_576.txt	LTP379	ltpFR2	2	12	EAGLE	512	n/a	n/a	0	0	0
2364847	REC_WORD	wordpools/wasnorm_wordpool_576.txt	LTP379	ltpFR2	2	12	CRUTCH	417	n/a	n/a	0	0	0
2366711	REC_WORD	wordpools/wasnorm_wordpool_576.txt	LTP379	ltpFR2	2	12	STOVE	1388	n/a	n/a	0	0	0
2368403	REC_WORD	wordpools/wasnorm_wordpool_576.txt	LTP379	ltpFR2	2	12	SUNSET	1408	n/a	n/a	0	0	0
2370242	REC_WORD	wordpools/wasnorm_wordpool_576.txt	LTP379	ltpFR2	2	12	CREVICE	405	n/a	n/a	0	0	0
2372767	REC_WORD	wordpools/wasnorm_wordpool_576.txt	LTP379	ltpFR2	2	12	CAPTIVE	240	n/a	n/a	0	0	0
2374252	REC_WORD	wordpools/wasnorm_wordpool_576.txt	LTP379	ltpFR2	2	12	BRANDY	169	n/a	n/a	0	0	0
2375705	REC_WORD	wordpools/wasnorm_wordpool_576.txt	LTP379	ltpFR2	2	12	SCOTCH	1251	n/a	n/a	0	0	0
2377772	REC_WORD	wordpools/wasnorm_wordpool_576.txt	LTP379	ltpFR2	2	12	DOUGHNUT	490	n/a	n/a	0	0	0
2379299	REC_WORD	wordpools/wasnorm_wordpool_576.txt	LTP379	ltpFR2	2	12	PIZZA	1079	n/a	n/a	0	0	0
2380626	REC_WORD	wordpools/wasnorm_wordpool_576.txt	LTP379	ltpFR2	2	12	SNACK	1331	n/a	n/a	0	0	0
2424295	DISTRACTOR	n/a	LTP379	ltpFR2	2	13	n/a	n/a	n/a	n/a	0	0	0
2424296	START	n/a	LTP379	ltpFR2	2	n/a	n/a	n/a	19	n/a	n/a	n/a	n/a
2424311	PROB	n/a	LTP379	ltpFR2	2	n/a	n/a	n/a	19	17	9	3	5
2426212	PROB	n/a	LTP379	ltpFR2	2	n/a	n/a	n/a	19	12	2	2	8
2427779	PROB	n/a	LTP379	ltpFR2	2	n/a	n/a	n/a	19	12	1	2	9
2429311	PROB	n/a	LTP379	ltpFR2	2	n/a	n/a	n/a	19	15	9	3	3
2430928	PROB	n/a	LTP379	ltpFR2	2	n/a	n/a	n/a	19	19	5	9	5
2432362	PROB	n/a	LTP379	ltpFR2	2	n/a	n/a	n/a	19	17	5	9	3
2434712	PROB	n/a	LTP379	ltpFR2	2	n/a	n/a	n/a	19	14	5	2	7
2436778	PROB	n/a	LTP379	ltpFR2	2	n/a	n/a	n/a	19	17	4	5	8
2438362	PROB	n/a	LTP379	ltpFR2	2	n/a	n/a	n/a	19	25	9	9	7
2440311	PROB	n/a	LTP379	ltpFR2	2	n/a	n/a	n/a	19	13	5	1	7
2443745	PROB	n/a	LTP379	ltpFR2	2	n/a	n/a	n/a	19	15	4	6	5
2445628	PROB	n/a	LTP379	ltpFR2	2	n/a	n/a	n/a	19	7	5	1	1
2446889	STOP	n/a	LTP379	ltpFR2	2	n/a	n/a	n/a	19	n/a	n/a	n/a	n/a
2449362	WORD	wordpools/wasnorm_wordpool_576.txt	LTP379	ltpFR2	2	13	SERVANT	1271	n/a	n/a	0	0	0
2452128	WORD	wordpools/wasnorm_wordpool_576.txt	LTP379	ltpFR2	2	13	LADY	794	n/a	n/a	0	0	0
2454645	WORD	wordpools/wasnorm_wordpool_576.txt	LTP379	ltpFR2	2	13	CLAM	315	n/a	n/a	0	0	0
2457245	WORD	wordpools/wasnorm_wordpool_576.txt	LTP379	ltpFR2	2	13	ZEBRA	1635	n/a	n/a	0	0	0
2459728	WORD	wordpools/wasnorm_wordpool_576.txt	LTP379	ltpFR2	2	13	LION	827	n/a	n/a	0	0	0
2462161	WORD	wordpools/wasnorm_wordpool_576.txt	LTP379	ltpFR2	2	13	TYPIST	1532	n/a	n/a	0	0	0
2464611	WORD	wordpools/wasnorm_wordpool_576.txt	LTP379	ltpFR2	2	13	SCALLOP	1242	n/a	n/a	0	0	0
2467161	WORD	wordpools/wasnorm_wordpool_576.txt	LTP379	ltpFR2	2	13	HORSE	719	n/a	n/a	0	0	0
2469711	WORD	wordpools/wasnorm_wordpool_576.txt	LTP379	ltpFR2	2	13	SPIDER	1351	n/a	n/a	0	0	0
2472310	WORD	wordpools/wasnorm_wordpool_576.txt	LTP379	ltpFR2	2	13	HATCHET	691	n/a	n/a	0	0	0
2474961	WORD	wordpools/wasnorm_wordpool_576.txt	LTP379	ltpFR2	2	13	SUMMIT	1405	n/a	n/a	0	0	0
2477444	WORD	wordpools/wasnorm_wordpool_576.txt	LTP379	ltpFR2	2	13	MUFFIN	929	n/a	n/a	0	0	0
2479928	WORD	wordpools/wasnorm_wordpool_576.txt	LTP379	ltpFR2	2	13	PEANUT	1032	n/a	n/a	0	0	0
2482744	WORD	wordpools/wasnorm_wordpool_576.txt	LTP379	ltpFR2	2	13	SCISSORS	1250	n/a	n/a	0	0	0
2485478	WORD	wordpools/wasnorm_wordpool_576.txt	LTP379	ltpFR2	2	13	CORAL	378	n/a	n/a	0	0	0
2487944	WORD	wordpools/wasnorm_wordpool_576.txt	LTP379	ltpFR2	2	13	MASK	876	n/a	n/a	0	0	0
2490478	WORD	wordpools/wasnorm_wordpool_576.txt	LTP379	ltpFR2	2	13	GAZELLE	628	n/a	n/a	0	0	0
2493111	WORD	wordpools/wasnorm_wordpool_576.txt	LTP379	ltpFR2	2	13	ANTLER	29	n/a	n/a	0	0	0
2495644	WORD	wordpools/wasnorm_wordpool_576.txt	LTP379	ltpFR2	2	13	PUPIL	1143	n/a	n/a	0	0	0
2498261	WORD	wordpools/wasnorm_wordpool_576.txt	LTP379	ltpFR2	2	13	HAND	683	n/a	n/a	0	0	0
2500944	WORD	wordpools/wasnorm_wordpool_576.txt	LTP379	ltpFR2	2	13	NURSE	963	n/a	n/a	0	0	0
2503511	WORD	wordpools/wasnorm_wordpool_576.txt	LTP379	ltpFR2	2	13	LAVA	804	n/a	n/a	0	0	0
2506310	WORD	wordpools/wasnorm_wordpool_576.txt	LTP379	ltpFR2	2	13	STONE	1385	n/a	n/a	0	0	0
2508894	WORD	wordpools/wasnorm_wordpool_576.txt	LTP379	ltpFR2	2	13	BOUQUET	157	n/a	n/a	0	0	0
2510511	START	n/a	LTP379	ltpFR2	2	n/a	n/a	n/a	20	n/a	n/a	n/a	n/a
2511622	DISTRACTOR	n/a	LTP379	ltpFR2	2	13	n/a	n/a	n/a	n/a	0	0	0
2511627	PROB	n/a	LTP379	ltpFR2	2	n/a	n/a	n/a	20	14	8	5	1
2514394	PROB	n/a	LTP379	ltpFR2	2	n/a	n/a	n/a	20	16	6	7	3
2515961	PROB	n/a	LTP379	ltpFR2	2	n/a	n/a	n/a	20	13	1	5	7
2517660	PROB	n/a	LTP379	ltpFR2	2	n/a	n/a	n/a	20	23	8	8	7
2520294	PROB	n/a	LTP379	ltpFR2	2	n/a	n/a	n/a	20	16	5	3	8
2521677	PROB	n/a	LTP379	ltpFR2	2	n/a	n/a	n/a	20	14	1	6	7
2523544	PROB	n/a	LTP379	ltpFR2	2	n/a	n/a	n/a	20	13	1	4	8
2525110	PROB	n/a	LTP379	ltpFR2	2	n/a	n/a	n/a	20	15	5	7	3
2527010	PROB	n/a	LTP379	ltpFR2	2	n/a	n/a	n/a	20	13	8	1	4
2528760	PROB	n/a	LTP379	ltpFR2	2	n/a	n/a	n/a	20	19	9	3	7
2530577	PROB	n/a	LTP379	ltpFR2	2	n/a	n/a	n/a	20	12	3	3	6
2531910	PROB	n/a	LTP379	ltpFR2	2	n/a	n/a	n/a	20	11	7	2	2
2533322	STOP	n/a	LTP379	ltpFR2	2	n/a	n/a	n/a	20	n/a	n/a	n/a	n/a
2536428	REC_START	n/a	LTP379	ltpFR2	2	13	n/a	n/a	n/a	n/a	0	0	0
2539827	REC_WORD	wordpools/wasnorm_wordpool_576.txt	LTP379	ltpFR2	2	13	SERVANT	1271	n/a	n/a	0	0	0
2541490	REC_WORD	wordpools/wasnorm_wordpool_576.txt	LTP379	ltpFR2	2	13	LADY	794	n/a	n/a	0	0	0
2543545	REC_WORD	wordpools/wasnorm_wordpool_576.txt	LTP379	ltpFR2	2	13	CLAM	315	n/a	n/a	0	0	0
2544856	REC_WORD_VV	wordpools/wasnorm_wordpool_576.txt	LTP379	ltpFR2	2	13	<>	-1	n/a	n/a	0	0	0
2545722	REC_WORD	wordpools/wasnorm_wordpool_576.txt	LTP379	ltpFR2	2	13	ZEBRA	1635	n/a	n/a	0	0	0
2549597	REC_WORD	wordpools/wasnorm_wordpool_576.txt	LTP379	ltpFR2	2	13	LION	827	n/a	n/a	0	0	0
2551375	REC_WORD	wordpools/wasnorm_wordpool_576.txt	LTP379	ltpFR2	2	13	TYPIST	1532	n/a	n/a	0	0	0
2552985	REC_WORD	wordpools/wasnorm_wordpool_576.txt	LTP379	ltpFR2	2	13	SCALLOP	1242	n/a	n/a	0	0	0
2554908	REC_WORD	wordpools/wasnorm_wordpool_576.txt	LTP379	ltpFR2	2	13	HORSE	719	n/a	n/a	0	0	0
2557333	REC_WORD	wordpools/wasnorm_wordpool_576.txt	LTP379	ltpFR2	2	13	SPIDER	1351	n/a	n/a	0	0	0
2558903	REC_WORD	wordpools/wasnorm_wordpool_576.txt	LTP379	ltpFR2	2	13	SUMMIT	1405	n/a	n/a	0	0	0
2560515	REC_WORD	wordpools/wasnorm_wordpool_576.txt	LTP379	ltpFR2	2	13	HATCHET	691	n/a	n/a	0	0	0
2563725	REC_WORD	wordpools/wasnorm_wordpool_576.txt	LTP379	ltpFR2	2	13	MUFFIN	929	n/a	n/a	0	0	0
2565471	REC_WORD	wordpools/wasnorm_wordpool_576.txt	LTP379	ltpFR2	2	13	PEANUT	1032	n/a	n/a	0	0	0
2567265	REC_WORD	wordpools/wasnorm_wordpool_576.txt	LTP379	ltpFR2	2	13	SCISSORS	1250	n/a	n/a	0	0	0
2569313	REC_WORD	wordpools/wasnorm_wordpool_576.txt	LTP379	ltpFR2	2	13	CORAL	378	n/a	n/a	0	0	0
2571103	REC_WORD	wordpools/wasnorm_wordpool_576.txt	LTP379	ltpFR2	2	13	MASK	876	n/a	n/a	0	0	0
2572789	REC_WORD	wordpools/wasnorm_wordpool_576.txt	LTP379	ltpFR2	2	13	GAZELLE	628	n/a	n/a	0	0	0
2574554	REC_WORD	wordpools/wasnorm_wordpool_576.txt	LTP379	ltpFR2	2	13	ANTLER	29	n/a	n/a	0	0	0
2576530	REC_WORD	wordpools/wasnorm_wordpool_576.txt	LTP379	ltpFR2	2	13	PUPIL	1143	n/a	n/a	0	0	0
2578318	REC_WORD	wordpools/wasnorm_wordpool_576.txt	LTP379	ltpFR2	2	13	HAND	683	n/a	n/a	0	0	0
2579920	REC_WORD	wordpools/wasnorm_wordpool_576.txt	LTP379	ltpFR2	2	13	NURSE	963	n/a	n/a	0	0	0
2581679	REC_WORD	wordpools/wasnorm_wordpool_576.txt	LTP379	ltpFR2	2	13	LAVA	804	n/a	n/a	0	0	0
2583349	REC_WORD	wordpools/wasnorm_wordpool_576.txt	LTP379	ltpFR2	2	13	STONE	1385	n/a	n/a	0	0	0
2588483	REC_WORD	wordpools/wasnorm_wordpool_576.txt	LTP379	ltpFR2	2	13	BOUQUET	157	n/a	n/a	0	0	0
2626876	DISTRACTOR	n/a	LTP379	ltpFR2	2	14	n/a	n/a	n/a	n/a	0	0	0
2626876	START	n/a	LTP379	ltpFR2	2	n/a	n/a	n/a	21	n/a	n/a	n/a	n/a
2626892	PROB	n/a	LTP379	ltpFR2	2	n/a	n/a	n/a	21	16	8	3	5
2628959	PROB	n/a	LTP379	ltpFR2	2	n/a	n/a	n/a	21	18	3	9	6
2631175	PROB	n/a	LTP379	ltpFR2	2	n/a	n/a	n/a	21	11	6	4	1
2632225	PROB	n/a	LTP379	ltpFR2	2	n/a	n/a	n/a	21	12	4	6	2
2633492	PROB	n/a	LTP379	ltpFR2	2	n/a	n/a	n/a	21	12	2	1	9
2634825	PROB	n/a	LTP379	ltpFR2	2	n/a	n/a	n/a	21	14	8	2	4
2636025	PROB	n/a	LTP379	ltpFR2	2	n/a	n/a	n/a	21	17	5	7	5
2637442	PROB	n/a	LTP379	ltpFR2	2	n/a	n/a	n/a	21	17	2	6	9
2640509	PROB	n/a	LTP379	ltpFR2	2	n/a	n/a	n/a	21	13	4	2	7
2642342	PROB	n/a	LTP379	ltpFR2	2	n/a	n/a	n/a	21	4	2	1	1
2643475	PROB	n/a	LTP379	ltpFR2	2	n/a	n/a	n/a	21	17	9	7	1
2645308	PROB	n/a	LTP379	ltpFR2	2	n/a	n/a	n/a	21	15	4	5	6
2647059	PROB	n/a	LTP379	ltpFR2	2	n/a	n/a	n/a	21	17	5	8	4
2649258	PROB	n/a	LTP379	ltpFR2	2	n/a	n/a	n/a	21	15	1	8	6
2650752	STOP	n/a	LTP379	ltpFR2	2	n/a	n/a	n/a	21	n/a	n/a	n/a	n/a
2652092	WORD	wordpools/wasnorm_wordpool_576.txt	LTP379	ltpFR2	2	14	BANK	83	n/a	n/a	0	0	0
2654608	WORD	wordpools/wasnorm_wordpool_576.txt	LTP379	ltpFR2	2	14	SOFTBALL	1343	n/a	n/a	0	0	0
2657375	WORD	wordpools/wasnorm_wordpool_576.txt	LTP379	ltpFR2	2	14	PORTRAIT	1111	n/a	n/a	0	0	0
2659808	WORD	wordpools/wasnorm_wordpool_576.txt	LTP379	ltpFR2	2	14	TOURIST	1488	n/a	n/a	0	0	0
2662275	WORD	wordpools/wasnorm_wordpool_576.txt	LTP379	ltpFR2	2	14	CHIPMUNK	304	n/a	n/a	0	0	0
2664908	WORD	wordpools/wasnorm_wordpool_576.txt	LTP379	ltpFR2	2	14	POSSUM	1112	n/a	n/a	0	0	0
2667375	WORD	wordpools/wasnorm_wordpool_576.txt	LTP379	ltpFR2	2	14	DUST	508	n/a	n/a	0	0	0
2669958	WORD	wordpools/wasnorm_wordpool_576.txt	LTP379	ltpFR2	2	14	BUGGY	188	n/a	n/a	0	0	0
2672758	WORD	wordpools/wasnorm_wordpool_576.txt	LTP379	ltpFR2	2	14	PIGMENT	1066	n/a	n/a	0	0	0
2675541	WORD	wordpools/wasnorm_wordpool_576.txt	LTP379	ltpFR2	2	14	COD	340	n/a	n/a	0	0	0
2677975	WORD	wordpools/wasnorm_wordpool_576.txt	LTP379	ltpFR2	2	14	BEAVER	109	n/a	n/a	0	0	0
2680525	WORD	wordpools/wasnorm_wordpool_576.txt	LTP379	ltpFR2	2	14	LEOPARD	812	n/a	n/a	0	0	0
2683075	WORD	wordpools/wasnorm_wordpool_576.txt	LTP379	ltpFR2	2	14	DIME	466	n/a	n/a	0	0	0
2685875	WORD	wordpools/wasnorm_wordpool_576.txt	LTP379	ltpFR2	2	14	ROBIN	1199	n/a	n/a	0	0	0
2688624	WORD	wordpools/wasnorm_wordpool_576.txt	LTP379	ltpFR2	2	14	MOTEL	919	n/a	n/a	0	0	0
2691391	WORD	wordpools/wasnorm_wordpool_576.txt	LTP379	ltpFR2	2	14	BISON	131	n/a	n/a	0	0	0
2693858	WORD	wordpools/wasnorm_wordpool_576.txt	LTP379	ltpFR2	2	14	CRICKET	408	n/a	n/a	0	0	0
2696608	WORD	wordpools/wasnorm_wordpool_576.txt	LTP379	ltpFR2	2	14	CEILING	265	n/a	n/a	0	0	0
2699108	WORD	wordpools/wasnorm_wordpool_576.txt	LTP379	ltpFR2	2	14	RUG	1215	n/a	n/a	0	0	0
2701724	WORD	wordpools/wasnorm_wordpool_576.txt	LTP379	ltpFR2	2	14	CANAL	226	n/a	n/a	0	0	0
2704323	WORD	wordpools/wasnorm_wordpool_576.txt	LTP379	ltpFR2	2	14	CASHEW	253	n/a	n/a	0	0	0
2706924	WORD	wordpools/wasnorm_wordpool_576.txt	LTP379	ltpFR2	2	14	SODA	1341	n/a	n/a	0	0	0
2709658	WORD	wordpools/wasnorm_wordpool_576.txt	LTP379	ltpFR2	2	14	FINGER	567	n/a	n/a	0	0	0
2712174	WORD	wordpools/wasnorm_wordpool_576.txt	LTP379	ltpFR2	2	14	PASTRY	1022	n/a	n/a	0	0	0
2713791	START	n/a	LTP379	ltpFR2	2	n/a	n/a	n/a	22	n/a	n/a	n/a	n/a
2714741	DISTRACTOR	n/a	LTP379	ltpFR2	2	14	n/a	n/a	n/a	n/a	0	0	0
2714757	PROB	n/a	LTP379	ltpFR2	2	n/a	n/a	n/a	22	12	3	8	1
2717124	PROB	n/a	LTP379	ltpFR2	2	n/a	n/a	n/a	22	20	8	3	9
2719407	PROB	n/a	LTP379	ltpFR2	2	n/a	n/a	n/a	22	7	5	1	1
2721323	PROB	n/a	LTP379	ltpFR2	2	n/a	n/a	n/a	22	16	6	6	4
2723141	PROB	n/a	LTP379	ltpFR2	2	n/a	n/a	n/a	22	9	5	3	1
2724374	PROB	n/a	LTP379	ltpFR2	2	n/a	n/a	n/a	22	13	6	6	1
2725574	PROB	n/a	LTP379	ltpFR2	2	n/a	n/a	n/a	22	6	4	1	1
2727057	PROB	n/a	LTP379	ltpFR2	2	n/a	n/a	n/a	22	19	6	8	5
2729274	PROB	n/a	LTP379	ltpFR2	2	n/a	n/a	n/a	22	9	4	1	4
2730624	PROB	n/a	LTP379	ltpFR2	2	n/a	n/a	n/a	22	13	2	7	4
2731957	PROB	n/a	LTP379	ltpFR2	2	n/a	n/a	n/a	22	13	3	9	1
2733707	PROB	n/a	LTP379	ltpFR2	2	n/a	n/a	n/a	22	18	6	7	5
2735240	PROB	n/a	LTP379	ltpFR2	2	n/a	n/a	n/a	22	15	3	5	7
2736634	STOP	n/a	LTP379	ltpFR2	2	n/a	n/a	n/a	22	n/a	n/a	n/a	n/a
2739657	REC_START	n/a	LTP379	ltpFR2	2	14	n/a	n/a	n/a	n/a	0	0	0
2742236	REC_WORD	wordpools/wasnorm_wordpool_576.txt	LTP379	ltpFR2	2	14	BANK	83	n/a	n/a	0	0	0
2743422	REC_WORD	wordpools/wasnorm_wordpool_576.txt	LTP379	ltpFR2	2	14	SOFTBALL	1343	n/a	n/a	0	0	0
2745219	REC_WORD	wordpools/wasnorm_wordpool_576.txt	LTP379	ltpFR2	2	14	PORTRAIT	1111	n/a	n/a	0	0	0
2746219	REC_WORD_VV	wordpools/wasnorm_wordpool_576.txt	LTP379	ltpFR2	2	14	<>	-1	n/a	n/a	0	0	0
2747346	REC_WORD_VV	wordpools/wasnorm_wordpool_576.txt	LTP379	ltpFR2	2	14	<>	-1	n/a	n/a	0	0	0
2749098	REC_WORD	wordpools/wasnorm_wordpool_576.txt	LTP379	ltpFR2	2	14	TOURIST	1488	n/a	n/a	0	0	0
2750573	REC_WORD	wordpools/wasnorm_wordpool_576.txt	LTP379	ltpFR2	2	14	CHIPMUNK	304	n/a	n/a	0	0	0
2752852	REC_WORD	wordpools/wasnorm_wordpool_576.txt	LTP379	ltpFR2	2	14	POSSUM	1112	n/a	n/a	0	0	0
2755660	REC_WORD	wordpools/wasnorm_wordpool_576.txt	LTP379	ltpFR2	2	14	DUST	508	n/a	n/a	0	0	0
2757222	REC_WORD	wordpools/wasnorm_wordpool_576.txt	LTP379	ltpFR2	2	14	BUGGY	188	n/a	n/a	0	0	0
2759159	REC_WORD	wordpools/wasnorm_wordpool_576.txt	LTP379	ltpFR2	2	14	BEAVER	109	n/a	n/a	0	0	0
2761011	REC_WORD	wordpools/wasnorm_wordpool_576.txt	LTP379	ltpFR2	2	14	LEOPARD	812	n/a	n/a	0	0	0
2765571	REC_WORD	wordpools/wasnorm_wordpool_576.txt	LTP379	ltpFR2	2	14	DIME	466	n/a	n/a	0	0	0
2766932	REC_WORD	wordpools/wasnorm_wordpool_576.txt	LTP379	ltpFR2	2	14	ROBIN	1199	n/a	n/a	0	0	0
2768568	REC_WORD	wordpools/wasnorm_wordpool_576.txt	LTP379	ltpFR2	2	14	MOTEL	919	n/a	n/a	0	0	0
2772315	REC_WORD	wordpools/wasnorm_wordpool_576.txt	LTP379	ltpFR2	2	14	BISON	131	n/a	n/a	0	0	0
2774816	REC_WORD	wordpools/wasnorm_wordpool_576.txt	LTP379	ltpFR2	2	14	CRICKET	408	n/a	n/a	0	0	0
2776749	REC_WORD	wordpools/wasnorm_wordpool_576.txt	LTP379	ltpFR2	2	14	RUG	1215	n/a	n/a	0	0	0
2778321	REC_WORD	wordpools/wasnorm_wordpool_576.txt	LTP379	ltpFR2	2	14	CANAL	226	n/a	n/a	0	0	0
2780003	REC_WORD	wordpools/wasnorm_wordpool_576.txt	LTP379	ltpFR2	2	14	CASHEW	253	n/a	n/a	0	0	0
2781863	REC_WORD	wordpools/wasnorm_wordpool_576.txt	LTP379	ltpFR2	2	14	SODA	1341	n/a	n/a	0	0	0
2783641	REC_WORD	wordpools/wasnorm_wordpool_576.txt	LTP379	ltpFR2	2	14	FINGER	567	n/a	n/a	0	0	0
2785427	REC_WORD	wordpools/wasnorm_wordpool_576.txt	LTP379	ltpFR2	2	14	PASTRY	1022	n/a	n/a	0	0	0
2830106	WORD	wordpools/wasnorm_wordpool_576.txt	LTP379	ltpFR2	2	15	SURVEY	1414	n/a	n/a	0	0	0
2832872	WORD	wordpools/wasnorm_wordpool_576.txt	LTP379	ltpFR2	2	15	ICING	732	n/a	n/a	0	0	0
2835506	WORD	wordpools/wasnorm_wordpool_576.txt	LTP379	ltpFR2	2	15	CURTAIN	427	n/a	n/a	0	0	0
2838155	WORD	wordpools/wasnorm_wordpool_576.txt	LTP379	ltpFR2	2	15	STUDENT	1395	n/a	n/a	0	0	0
2840922	WORD	wordpools/wasnorm_wordpool_576.txt	LTP379	ltpFR2	2	15	LACE	792	n/a	n/a	0	0	0
2843589	WORD	wordpools/wasnorm_wordpool_576.txt	LTP379	ltpFR2	2	15	RATTLE	1170	n/a	n/a	0	0	0
2846172	WORD	wordpools/wasnorm_wordpool_576.txt	LTP379	ltpFR2	2	15	COBRA	336	n/a	n/a	0	0	0
2848889	WORD	wordpools/wasnorm_wordpool_576.txt	LTP379	ltpFR2	2	15	EYELASH	546	n/a	n/a	0	0	0
2851355	WORD	wordpools/wasnorm_wordpool_576.txt	LTP379	ltpFR2	2	15	PARENT	1013	n/a	n/a	0	0	0
2853939	WORD	wordpools/wasnorm_wordpool_576.txt	LTP379	ltpFR2	2	15	KLEENEX	782	n/a	n/a	0	0	0
2856405	WORD	wordpools/wasnorm_wordpool_576.txt	LTP379	ltpFR2	2	15	SIBLING	1301	n/a	n/a	0	0	0
2859005	WORD	wordpools/wasnorm_wordpool_576.txt	LTP379	ltpFR2	2	15	DENIM	446	n/a	n/a	0	0	0
2861572	WORD	wordpools/wasnorm_wordpool_576.txt	LTP379	ltpFR2	2	15	SKIRT	1319	n/a	n/a	0	0	0
2864138	WORD	wordpools/wasnorm_wordpool_576.txt	LTP379	ltpFR2	2	15	MUMMY	932	n/a	n/a	0	0	0
2866638	WORD	wordpools/wasnorm_wordpool_576.txt	LTP379	ltpFR2	2	15	EUROPE	541	n/a	n/a	0	0	0
2869222	WORD	wordpools/wasnorm_wordpool_576.txt	LTP379	ltpFR2	2	15	SPHINX	1349	n/a	n/a	0	0	0
2871888	WORD	wordpools/wasnorm_wordpool_576.txt	LTP379	ltpFR2	2	15	ONION	977	n/a	n/a	0	0	0
2874622	WORD	wordpools/wasnorm_wordpool_576.txt	LTP379	ltpFR2	2	15	ROD	1203	n/a	n/a	0	0	0
2877238	WORD	wordpools/wasnorm_wordpool_576.txt	LTP379	ltpFR2	2	15	CREATURE	403	n/a	n/a	0	0	0
2879738	WORD	wordpools/wasnorm_wordpool_576.txt	LTP379	ltpFR2	2	15	UMPIRE	1535	n/a	n/a	0	0	0
2882338	WORD	wordpools/wasnorm_wordpool_576.txt	LTP379	ltpFR2	2	15	GLASS	639	n/a	n/a	0	0	0
2885088	WORD	wordpools/wasnorm_wordpool_576.txt	LTP379	ltpFR2	2	15	EGYPT	519	n/a	n/a	0	0	0
2887671	WORD	wordpools/wasnorm_wordpool_576.txt	LTP379	ltpFR2	2	15	BLOUSE	139	n/a	n/a	0	0	0
2890238	WORD	wordpools/wasnorm_wordpool_576.txt	LTP379	ltpFR2	2	15	WARDROBE	1587	n/a	n/a	0	0	0
2891855	START	n/a	LTP379	ltpFR2	2	n/a	n/a	n/a	23	n/a	n/a	n/a	n/a
2892964	DISTRACTOR	n/a	LTP379	ltpFR2	2	15	n/a	n/a	n/a	n/a	0	0	0
2892971	PROB	n/a	LTP379	ltpFR2	2	n/a	n/a	n/a	23	8	3	3	2
2894855	PROB	n/a	LTP379	ltpFR2	2	n/a	n/a	n/a	23	5	1	3	1
2896121	PROB	n/a	LTP379	ltpFR2	2	n/a	n/a	n/a	23	20	5	8	7
2899021	PROB	n/a	LTP379	ltpFR2	2	n/a	n/a	n/a	23	15	7	7	1
2900188	PROB	n/a	LTP379	ltpFR2	2	n/a	n/a	n/a	23	11	1	5	5
2902638	PROB	n/a	LTP379	ltpFR2	2	n/a	n/a	n/a	23	15	5	9	1
2904154	PROB	n/a	LTP379	ltpFR2	2	n/a	n/a	n/a	23	7	2	4	1
2905504	PROB	n/a	LTP379	ltpFR2	2	n/a	n/a	n/a	23	22	9	6	7
2907438	PROB	n/a	LTP379	ltpFR2	2	n/a	n/a	n/a	23	21	3	9	9
2909004	PROB	n/a	LTP379	ltpFR2	2	n/a	n/a	n/a	23	21	5	8	8
2910454	PROB	n/a	LTP379	ltpFR2	2	n/a	n/a	n/a	23	9	4	2	3
2914360	STOP	n/a	LTP379	ltpFR2	2	n/a	n/a	n/a	23	n/a	n/a	n/a	n/a
2917688	REC_START	n/a	LTP379	ltpFR2	2	15	n/a	n/a	n/a	n/a	0	0	0
2922691	REC_WORD	wordpools/wasnorm_wordpool_576.txt	LTP379	ltpFR2	2	15	SURVEY	1414	n/a	n/a	0	0	0
2924136	REC_WORD	wordpools/wasnorm_wordpool_576.txt	LTP379	ltpFR2	2	15	ICING	732	n/a	n/a	0	0	0
2926721	REC_WORD	wordpools/wasnorm_wordpool_576.txt	LTP379	ltpFR2	2	15	CURTAIN	427	n/a	n/a	0	0	0
2927812	REC_WORD	wordpools/wasnorm_wordpool_576.txt	LTP379	ltpFR2	2	15	STUDENT	1395	n/a	n/a	0	0	0
2929603	REC_WORD	wordpools/wasnorm_wordpool_576.txt	LTP379	ltpFR2	2	15	LACE	792	n/a	n/a	0	0	0
2936116	REC_WORD	wordpools/wasnorm_wordpool_576.txt	LTP379	ltpFR2	2	15	EYELASH	546	n/a	n/a	0	0	0
2938474	REC_WORD	wordpools/wasnorm_wordpool_576.txt	LTP379	ltpFR2	2	15	PARENT	1013	n/a	n/a	0	0	0
2952252	REC_WORD	wordpools/wasnorm_wordpool_576.txt	LTP379	ltpFR2	2	15	SIBLING	1301	n/a	n/a	0	0	0
2953532	REC_WORD	wordpools/wasnorm_wordpool_576.txt	LTP379	ltpFR2	2	15	DENIM	446	n/a	n/a	0	0	0
2954435	REC_WORD	wordpools/wasnorm_wordpool_576.txt	LTP379	ltpFR2	2	15	SKIRT	1319	n/a	n/a	0	0	0
2955718	REC_WORD	wordpools/wasnorm_wordpool_576.txt	LTP379	ltpFR2	2	15	MUMMY	932	n/a	n/a	0	0	0
2959528	REC_WORD	wordpools/wasnorm_wordpool_576.txt	LTP379	ltpFR2	2	15	EUROPE	541	n/a	n/a	0	0	0
2960648	REC_WORD	wordpools/wasnorm_wordpool_576.txt	LTP379	ltpFR2	2	15	SPHINX	1349	n/a	n/a	0	0	0
2962253	REC_WORD	wordpools/wasnorm_wordpool_576.txt	LTP379	ltpFR2	2	15	ONION	977	n/a	n/a	0	0	0
2964110	REC_WORD	wordpools/wasnorm_wordpool_576.txt	LTP379	ltpFR2	2	15	ROD	1203	n/a	n/a	0	0	0
2966065	REC_WORD	wordpools/wasnorm_wordpool_576.txt	LTP379	ltpFR2	2	15	CREATURE	403	n/a	n/a	0	0	0
2967537	REC_WORD	wordpools/wasnorm_wordpool_576.txt	LTP379	ltpFR2	2	15	UMPIRE	1535	n/a	n/a	0	0	0
2969486	REC_WORD	wordpools/wasnorm_wordpool_576.txt	LTP379	ltpFR2	2	15	GLASS	639	n/a	n/a	0	0	0
2970959	REC_WORD	wordpools/wasnorm_wordpool_576.txt	LTP379	ltpFR2	2	15	EGYPT	519	n/a	n/a	0	0	0
2972365	REC_WORD	wordpools/wasnorm_wordpool_576.txt	LTP379	ltpFR2	2	15	BLOUSE	139	n/a	n/a	0	0	0
2973734	REC_WORD	wordpools/wasnorm_wordpool_576.txt	LTP379	ltpFR2	2	15	WARDROBE	1587	n/a	n/a	0	0	0
3008136	DISTRACTOR	n/a	LTP379	ltpFR2	2	16	n/a	n/a	n/a	n/a	0	0	0
3008136	START	n/a	LTP379	ltpFR2	2	n/a	n/a	n/a	24	n/a	n/a	n/a	n/a
3008153	PROB	n/a	LTP379	ltpFR2	2	n/a	n/a	n/a	24	17	8	4	5
3010070	PROB	n/a	LTP379	ltpFR2	2	n/a	n/a	n/a	24	15	4	2	9
3011820	PROB	n/a	LTP379	ltpFR2	2	n/a	n/a	n/a	24	17	5	7	5
3013386	PROB	n/a	LTP379	ltpFR2	2	n/a	n/a	n/a	24	10	4	2	4
3015119	PROB	n/a	LTP379	ltpFR2	2	n/a	n/a	n/a	24	19	7	8	4
3016636	PROB	n/a	LTP379	ltpFR2	2	n/a	n/a	n/a	24	12	6	1	5
3018386	PROB	n/a	LTP379	ltpFR2	2	n/a	n/a	n/a	24	13	8	2	3
3019936	PROB	n/a	LTP379	ltpFR2	2	n/a	n/a	n/a	24	10	4	4	2
3021318	PROB	n/a	LTP379	ltpFR2	2	n/a	n/a	n/a	24	10	6	3	1
3022803	PROB	n/a	LTP379	ltpFR2	2	n/a	n/a	n/a	24	10	3	5	2
3024302	PROB	n/a	LTP379	ltpFR2	2	n/a	n/a	n/a	24	17	1	7	9
3026003	PROB	n/a	LTP379	ltpFR2	2	n/a	n/a	n/a	24	16	6	8	2
3028036	PROB	n/a	LTP379	ltpFR2	2	n/a	n/a	n/a	24	12	3	8	1
3029519	PROB	n/a	LTP379	ltpFR2	2	n/a	n/a	n/a	24	17	7	7	3
3031931	STOP	n/a	LTP379	ltpFR2	2	n/a	n/a	n/a	24	n/a	n/a	n/a	n/a
3032986	WORD	wordpools/wasnorm_wordpool_576.txt	LTP379	ltpFR2	2	16	TWISTER	1530	n/a	n/a	0	0	0
3035469	WORD	wordpools/wasnorm_wordpool_576.txt	LTP379	ltpFR2	2	16	PERMIT	1051	n/a	n/a	0	0	0
3038152	WORD	wordpools/wasnorm_wordpool_576.txt	LTP379	ltpFR2	2	16	COTTAGE	384	n/a	n/a	0	0	0
3040702	WORD	wordpools/wasnorm_wordpool_576.txt	LTP379	ltpFR2	2	16	PICTURE	1061	n/a	n/a	0	0	0
3043269	WORD	wordpools/wasnorm_wordpool_576.txt	LTP379	ltpFR2	2	16	LAMP	798	n/a	n/a	0	0	0
3045802	WORD	wordpools/wasnorm_wordpool_576.txt	LTP379	ltpFR2	2	16	CAMEL	223	n/a	n/a	0	0	0
3048252	WORD	wordpools/wasnorm_wordpool_576.txt	LTP379	ltpFR2	2	16	BABY	64	n/a	n/a	0	0	0
3050852	WORD	wordpools/wasnorm_wordpool_576.txt	LTP379	ltpFR2	2	16	AIRPLANE	12	n/a	n/a	0	0	0
3053369	WORD	wordpools/wasnorm_wordpool_576.txt	LTP379	ltpFR2	2	16	DONOR	485	n/a	n/a	0	0	0
3055985	WORD	wordpools/wasnorm_wordpool_576.txt	LTP379	ltpFR2	2	16	PASSAGE	1019	n/a	n/a	0	0	0
3058502	WORD	wordpools/wasnorm_wordpool_576.txt	LTP379	ltpFR2	2	16	COIN	343	n/a	n/a	0	0	0
3061119	WORD	wordpools/wasnorm_wordpool_576.txt	LTP379	ltpFR2	2	16	MARROW	872	n/a	n/a	0	0	0
3063902	WORD	wordpools/wasnorm_wordpool_576.txt	LTP379	ltpFR2	2	16	BUCKET	184	n/a	n/a	0	0	0
3066569	WORD	wordpools/wasnorm_wordpool_576.txt	LTP379	ltpFR2	2	16	PUDDLE	1140	n/a	n/a	0	0	0
3069119	WORD	wordpools/wasnorm_wordpool_576.txt	LTP379	ltpFR2	2	16	CYCLONE	431	n/a	n/a	0	0	0
3071735	WORD	wordpools/wasnorm_wordpool_576.txt	LTP379	ltpFR2	2	16	FRANCE	601	n/a	n/a	0	0	0
3074335	WORD	wordpools/wasnorm_wordpool_576.txt	LTP379	ltpFR2	2	16	ASIA	46	n/a	n/a	0	0	0
3076835	WORD	wordpools/wasnorm_wordpool_576.txt	LTP379	ltpFR2	2	16	BOARD	143	n/a	n/a	0	0	0
3079335	WORD	wordpools/wasnorm_wordpool_576.txt	LTP379	ltpFR2	2	16	LABEL	790	n/a	n/a	0	0	0
3082152	WORD	wordpools/wasnorm_wordpool_576.txt	LTP379	ltpFR2	2	16	POCKET	1093	n/a	n/a	0	0	0
3084885	WORD	wordpools/wasnorm_wordpool_576.txt	LTP379	ltpFR2	2	16	BLUEPRINT	142	n/a	n/a	0	0	0
3087352	WORD	wordpools/wasnorm_wordpool_576.txt	LTP379	ltpFR2	2	16	BRIEFCASE	175	n/a	n/a	0	0	0
3090102	WORD	wordpools/wasnorm_wordpool_576.txt	LTP379	ltpFR2	2	16	LUGGAGE	847	n/a	n/a	0	0	0
3092702	WORD	wordpools/wasnorm_wordpool_576.txt	LTP379	ltpFR2	2	16	CONTRACT	368	n/a	n/a	0	0	0
3094317	START	n/a	LTP379	ltpFR2	2	n/a	n/a	n/a	25	n/a	n/a	n/a	n/a
3095165	DISTRACTOR	n/a	LTP379	ltpFR2	2	16	n/a	n/a	n/a	n/a	0	0	0
3095168	PROB	n/a	LTP379	ltpFR2	2	n/a	n/a	n/a	25	17	2	7	8
3098401	PROB	n/a	LTP379	ltpFR2	2	n/a	n/a	n/a	25	22	9	9	4
3099985	PROB	n/a	LTP379	ltpFR2	2	n/a	n/a	n/a	25	24	9	9	6
3102135	PROB	n/a	LTP379	ltpFR2	2	n/a	n/a	n/a	25	12	3	5	4
3104668	PROB	n/a	LTP379	ltpFR2	2	n/a	n/a	n/a	25	18	6	7	5
3107985	PROB	n/a	LTP379	ltpFR2	2	n/a	n/a	n/a	25	8	2	4	2
3109251	PROB	n/a	LTP379	ltpFR2	2	n/a	n/a	n/a	25	9	2	2	5
3110535	PROB	n/a	LTP379	ltpFR2	2	n/a	n/a	n/a	25	19	5	6	8
3112035	PROB	n/a	LTP379	ltpFR2	2	n/a	n/a	n/a	25	17	6	7	4
3114434	PROB	n/a	LTP379	ltpFR2	2	n/a	n/a	n/a	25	16	4	6	6
3116201	PROB	n/a	LTP379	ltpFR2	2	n/a	n/a	n/a	25	20	5	7	8
3117518	STOP	n/a	LTP379	ltpFR2	2	n/a	n/a	n/a	25	n/a	n/a	n/a	n/a
3120118	REC_START	n/a	LTP379	ltpFR2	2	16	n/a	n/a	n/a	n/a	0	0	0
3126680	REC_WORD	wordpools/wasnorm_wordpool_576.txt	LTP379	ltpFR2	2	16	TWISTER	1530	n/a	n/a	0	0	0
3128235	REC_WORD	wordpools/wasnorm_wordpool_576.txt	LTP379	ltpFR2	2	16	PERMIT	1051	n/a	n/a	0	0	0
3130895	REC_WORD	wordpools/wasnorm_wordpool_576.txt	LTP379	ltpFR2	2	16	COTTAGE	384	n/a	n/a	0	0	0
3132418	REC_WORD	wordpools/wasnorm_wordpool_576.txt	LTP379	ltpFR2	2	16	PICTURE	1061	n/a	n/a	0	0	0
3134030	REC_WORD	wordpools/wasnorm_wordpool_576.txt	LTP379	ltpFR2	2	16	LAMP	798	n/a	n/a	0	0	0
3135560	REC_WORD	wordpools/wasnorm_wordpool_576.txt	LTP379	ltpFR2	2	16	CAMEL	223	n/a	n/a	0	0	0
3137337	REC_WORD	wordpools/wasnorm_wordpool_576.txt	LTP379	ltpFR2	2	16	BABY	64	n/a	n/a	0	0	0
3141739	REC_WORD	wordpools/wasnorm_wordpool_576.txt	LTP379	ltpFR2	2	16	AIRPLANE	12	n/a	n/a	0	0	0
3143602	REC_WORD	wordpools/wasnorm_wordpool_576.txt	LTP379	ltpFR2	2	16	DONOR	485	n/a	n/a	0	0	0
3145554	REC_WORD	wordpools/wasnorm_wordpool_576.txt	LTP379	ltpFR2	2	16	PASSAGE	1019	n/a	n/a	0	0	0
3147587	REC_WORD	wordpools/wasnorm_wordpool_576.txt	LTP379	ltpFR2	2	16	COIN	343	n/a	n/a	0	0	0
3149492	REC_WORD	wordpools/wasnorm_wordpool_576.txt	LTP379	ltpFR2	2	16	MARROW	872	n/a	n/a	0	0	0
3152494	REC_WORD	wordpools/wasnorm_wordpool_576.txt	LTP379	ltpFR2	2	16	BUCKET	184	n/a	n/a	0	0	0
3156843	REC_WORD	wordpools/wasnorm_wordpool_576.txt	LTP379	ltpFR2	2	16	PUDDLE	1140	n/a	n/a	0	0	0
3158041	REC_WORD	wordpools/wasnorm_wordpool_576.txt	LTP379	ltpFR2	2	16	CYCLONE	431	n/a	n/a	0	0	0
3159672	REC_WORD	wordpools/wasnorm_wordpool_576.txt	LTP379	ltpFR2	2	16	FRANCE	601	n/a	n/a	0	0	0
3161324	REC_WORD	wordpools/wasnorm_wordpool_576.txt	LTP379	ltpFR2	2	16	ASIA	46	n/a	n/a	0	0	0
3162848	REC_WORD	wordpools/wasnorm_wordpool_576.txt	LTP379	ltpFR2	2	16	BOARD	143	n/a	n/a	0	0	0
3164079	REC_WORD	wordpools/wasnorm_wordpool_576.txt	LTP379	ltpFR2	2	16	LABEL	790	n/a	n/a	0	0	0
3166931	REC_WORD_VV	wordpools/wasnorm_wordpool_576.txt	LTP379	ltpFR2	2	16	<>	-1	n/a	n/a	0	0	0
3168246	REC_WORD	wordpools/wasnorm_wordpool_576.txt	LTP379	ltpFR2	2	16	POCKET	1093	n/a	n/a	0	0	0
3174312	REC_WORD	wordpools/wasnorm_wordpool_576.txt	LTP379	ltpFR2	2	16	BRIEFCASE	175	n/a	n/a	0	0	0
3175578	REC_WORD	wordpools/wasnorm_wordpool_576.txt	LTP379	ltpFR2	2	16	BLUEPRINT	142	n/a	n/a	0	0	0
3177411	REC_WORD	wordpools/wasnorm_wordpool_576.txt	LTP379	ltpFR2	2	16	LUGGAGE	847	n/a	n/a	0	0	0
3178889	REC_WORD	wordpools/wasnorm_wordpool_576.txt	LTP379	ltpFR2	2	16	CONTRACT	368	n/a	n/a	0	0	0
3196667	REST_REWET	n/a	LTP379	ltpFR2	2	16	n/a	n/a	n/a	n/a	0	0	0
3297282	WORD	wordpools/wasnorm_wordpool_576.txt	LTP379	ltpFR2	2	17	PRIMATE	1123	n/a	n/a	0	0	0
3300032	WORD	wordpools/wasnorm_wordpool_576.txt	LTP379	ltpFR2	2	17	MILDEW	893	n/a	n/a	0	0	0
3302615	WORD	wordpools/wasnorm_wordpool_576.txt	LTP379	ltpFR2	2	17	PEACH	1031	n/a	n/a	0	0	0
3305215	WORD	wordpools/wasnorm_wordpool_576.txt	LTP379	ltpFR2	2	17	PATIENT	1024	n/a	n/a	0	0	0
3307898	WORD	wordpools/wasnorm_wordpool_576.txt	LTP379	ltpFR2	2	17	STICKER	1382	n/a	n/a	0	0	0
3310665	WORD	wordpools/wasnorm_wordpool_576.txt	LTP379	ltpFR2	2	17	DONKEY	484	n/a	n/a	0	0	0
3313115	WORD	wordpools/wasnorm_wordpool_576.txt	LTP379	ltpFR2	2	17	POSTAGE	1113	n/a	n/a	0	0	0
3315848	WORD	wordpools/wasnorm_wordpool_576.txt	LTP379	ltpFR2	2	17	COLONEL	348	n/a	n/a	0	0	0
3318398	WORD	wordpools/wasnorm_wordpool_576.txt	LTP379	ltpFR2	2	17	SWIMMER	1420	n/a	n/a	0	0	0
3321048	WORD	wordpools/wasnorm_wordpool_576.txt	LTP379	ltpFR2	2	17	FOOT	590	n/a	n/a	0	0	0
3323581	WORD	wordpools/wasnorm_wordpool_576.txt	LTP379	ltpFR2	2	17	PLUTO	1092	n/a	n/a	0	0	0
3326065	WORD	wordpools/wasnorm_wordpool_576.txt	LTP379	ltpFR2	2	17	CHEMIST	292	n/a	n/a	0	0	0
3328731	WORD	wordpools/wasnorm_wordpool_576.txt	LTP379	ltpFR2	2	17	AUTHOR	61	n/a	n/a	0	0	0
3331214	WORD	wordpools/wasnorm_wordpool_576.txt	LTP379	ltpFR2	2	17	STATUE	1374	n/a	n/a	0	0	0
3333764	WORD	wordpools/wasnorm_wordpool_576.txt	LTP379	ltpFR2	2	17	BADGE	68	n/a	n/a	0	0	0
3336398	WORD	wordpools/wasnorm_wordpool_576.txt	LTP379	ltpFR2	2	17	GUARD	667	n/a	n/a	0	0	0
3338914	WORD	wordpools/wasnorm_wordpool_576.txt	LTP379	ltpFR2	2	17	SADDLE	1221	n/a	n/a	0	0	0
3341698	WORD	wordpools/wasnorm_wordpool_576.txt	LTP379	ltpFR2	2	17	VENUS	1557	n/a	n/a	0	0	0
3344313	WORD	wordpools/wasnorm_wordpool_576.txt	LTP379	ltpFR2	2	17	FILM	565	n/a	n/a	0	0	0
3346931	WORD	wordpools/wasnorm_wordpool_576.txt	LTP379	ltpFR2	2	17	NOTEBOOK	959	n/a	n/a	0	0	0
3349548	WORD	wordpools/wasnorm_wordpool_576.txt	LTP379	ltpFR2	2	17	PAPER	1011	n/a	n/a	0	0	0
3352313	WORD	wordpools/wasnorm_wordpool_576.txt	LTP379	ltpFR2	2	17	SHOVEL	1295	n/a	n/a	0	0	0
3354747	WORD	wordpools/wasnorm_wordpool_576.txt	LTP379	ltpFR2	2	17	SNAKE	1333	n/a	n/a	0	0	0
3357247	WORD	wordpools/wasnorm_wordpool_576.txt	LTP379	ltpFR2	2	17	SWAMP	1416	n/a	n/a	0	0	0
3358864	START	n/a	LTP379	ltpFR2	2	n/a	n/a	n/a	26	n/a	n/a	n/a	n/a
3359975	DISTRACTOR	n/a	LTP379	ltpFR2	2	17	n/a	n/a	n/a	n/a	0	0	0
3359981	PROB	n/a	LTP379	ltpFR2	2	n/a	n/a	n/a	26	14	6	4	4
3361697	PROB	n/a	LTP379	ltpFR2	2	n/a	n/a	n/a	26	17	9	5	3
3363647	PROB	n/a	LTP379	ltpFR2	2	n/a	n/a	n/a	26	22	8	8	6
3365631	PROB	n/a	LTP379	ltpFR2	2	n/a	n/a	n/a	26	16	3	8	5
3367397	PROB	n/a	LTP379	ltpFR2	2	n/a	n/a	n/a	26	17	9	6	2
3369497	PROB	n/a	LTP379	ltpFR2	2	n/a	n/a	n/a	26	14	1	5	8
3371032	PROB	n/a	LTP379	ltpFR2	2	n/a	n/a	n/a	26	7	1	5	1
3372647	PROB	n/a	LTP379	ltpFR2	2	n/a	n/a	n/a	26	10	4	1	5
3374530	PROB	n/a	LTP379	ltpFR2	2	n/a	n/a	n/a	26	16	6	5	5
3375864	PROB	n/a	LTP379	ltpFR2	2	n/a	n/a	n/a	26	14	4	3	7
3377764	PROB	n/a	LTP379	ltpFR2	2	n/a	n/a	n/a	26	13	4	7	2
3379347	PROB	n/a	LTP379	ltpFR2	2	n/a	n/a	n/a	26	7	4	1	2
3381164	PROB	n/a	LTP379	ltpFR2	2	n/a	n/a	n/a	26	14	7	3	4
3382502	STOP	n/a	LTP379	ltpFR2	2	n/a	n/a	n/a	26	n/a	n/a	n/a	n/a
3384781	REC_START	n/a	LTP379	ltpFR2	2	17	n/a	n/a	n/a	n/a	0	0	0
3386263	REC_WORD_VV	wordpools/wasnorm_wordpool_576.txt	LTP379	ltpFR2	2	17	<>	-1	n/a	n/a	0	0	0
3389435	REC_WORD	wordpools/wasnorm_wordpool_576.txt	LTP379	ltpFR2	2	17	PRIMATE	1123	n/a	n/a	0	0	0
3390938	REC_WORD	wordpools/wasnorm_wordpool_576.txt	LTP379	ltpFR2	2	17	MILDEW	893	n/a	n/a	0	0	0
3393598	REC_WORD	wordpools/wasnorm_wordpool_576.txt	LTP379	ltpFR2	2	17	PEACH	1031	n/a	n/a	0	0	0
3395934	REC_WORD	wordpools/wasnorm_wordpool_576.txt	LTP379	ltpFR2	2	17	PATIENT	1024	n/a	n/a	0	0	0
3403821	REC_WORD	wordpools/wasnorm_wordpool_576.txt	LTP379	ltpFR2	2	17	STICKER	1382	n/a	n/a	0	0	0
3405377	REC_WORD	wordpools/wasnorm_wordpool_576.txt	LTP379	ltpFR2	2	17	DONKEY	484	n/a	n/a	0	0	0
