onset	duration	trial_type	sample	stim_file	subject	experiment	session	trial	task	item_name	item_num	recog_resp	recog_conf	resp	color_r	color_g	color_b	case	font
257.708	n/a	SESS_START	128854	n/a	LTP205	ltpFR	3	n/a	n/a	n/a	n/a	1	1	n/a	n/a	n/a	n/a	n/a	n/a
546.998	n/a	WORD	273499	wordpools/wasnorm_wordpool_less_exclusions.txt	LTP205	ltpFR	3	1	1	PEOPLE	1046	0	1	1	0.57763671875	0.412841796875	1	upper	amplitud.ttf
551.068	n/a	WORD	275534	wordpools/wasnorm_wordpool_less_exclusions.txt	LTP205	ltpFR	3	1	1	ORCHID	982	1	n/a	0	0.57763671875	0.412841796875	1	upper	amplitud.ttf
554.978	n/a	WORD	277489	wordpools/wasnorm_wordpool_less_exclusions.txt	LTP205	ltpFR	3	1	1	FAMILY	550	n/a	n/a	1	0.57763671875	0.412841796875	1	upper	amplitud.ttf
558.81	n/a	WORD	279405	wordpools/wasnorm_wordpool_less_exclusions.txt	LTP205	ltpFR	3	1	1	ACROBAT	4	n/a	n/a	1	0.57763671875	0.412841796875	1	upper	amplitud.ttf
562.876	n/a	WORD	281438	wordpools/wasnorm_wordpool_less_exclusions.txt	LTP205	ltpFR	3	1	1	GYMNAST	675	n/a	n/a	1	0.57763671875	0.412841796875	1	upper	amplitud.ttf
566.98	n/a	WORD	283490	wordpools/wasnorm_wordpool_less_exclusions.txt	LTP205	ltpFR	3	1	1	PLANT	1083	n/a	n/a	0	0.57763671875	0.412841796875	1	upper	amplitud.ttf
570.878	n/a	WORD	285439	wordpools/wasnorm_wordpool_less_exclusions.txt	LTP205	ltpFR	3	1	0	JUG	762	n/a	n/a	1	0.422607421875	0.5869140625	0	lower	zerothre.ttf
575.004	n/a	WORD	287502	wordpools/wasnorm_wordpool_less_exclusions.txt	LTP205	ltpFR	3	1	0	GALLON	618	n/a	n/a	1	0.422607421875	0.5869140625	0	lower	zerothre.ttf
579.238	n/a	WORD	289619	wordpools/wasnorm_wordpool_less_exclusions.txt	LTP205	ltpFR	3	1	1	ARCHITECT	36	n/a	n/a	1	0.57763671875	0.412841796875	1	upper	amplitud.ttf
583.308	n/a	WORD	291654	wordpools/wasnorm_wordpool_less_exclusions.txt	LTP205	ltpFR	3	1	1	DISHWASHER	475	n/a	n/a	0	0.57763671875	0.412841796875	1	upper	amplitud.ttf
587.234	n/a	WORD	293617	wordpools/wasnorm_wordpool_less_exclusions.txt	LTP205	ltpFR	3	1	0	STAR	1373	n/a	n/a	1	0.422607421875	0.5869140625	0	lower	zerothre.ttf
591.154	n/a	WORD	295577	wordpools/wasnorm_wordpool_less_exclusions.txt	LTP205	ltpFR	3	1	0	KNAPSACK	783	n/a	n/a	1	0.422607421875	0.5869140625	0	lower	zerothre.ttf
595.286	n/a	WORD	297643	wordpools/wasnorm_wordpool_less_exclusions.txt	LTP205	ltpFR	3	1	0	LITTER	832	n/a	n/a	1	0.422607421875	0.5869140625	0	lower	zerothre.ttf
599.164	n/a	WORD	299582	wordpools/wasnorm_wordpool_less_exclusions.txt	LTP205	ltpFR	3	1	0	FELLOW	558	n/a	n/a	1	0.422607421875	0.5869140625	0	lower	zerothre.ttf
603.246	n/a	WORD	301623	wordpools/wasnorm_wordpool_less_exclusions.txt	LTP205	ltpFR	3	1	0	GANG	619	n/a	n/a	1	0.422607421875	0.5869140625	0	lower	zerothre.ttf
607.334	n/a	WORD	303667	wordpools/wasnorm_wordpool_less_exclusions.txt	LTP205	ltpFR	3	1	0	BAG	69	n/a	n/a	0	0.422607421875	0.5869140625	0	lower	zerothre.ttf
613.068	n/a	REC_START	306534	n/a	LTP205	ltpFR	3	1	n/a	n/a	n/a	n/a	n/a	n/a	n/a	n/a	n/a	n/a	n/a
613.956	n/a	REC_WORD	306978	wordpools/wasnorm_wordpool_less_exclusions.txt	LTP205	ltpFR	3	1	1	PEOPLE	1046	n/a	n/a	1	n/a	n/a	n/a	n/a	n/a
615.072	n/a	REC_WORD	307536	wordpools/wasnorm_wordpool_less_exclusions.txt	LTP205	ltpFR	3	1	1	FAMILY	550	n/a	n/a	1	n/a	n/a	n/a	n/a	n/a
616.78	n/a	REC_WORD	308390	wordpools/wasnorm_wordpool_less_exclusions.txt	LTP205	ltpFR	3	1	1	ORCHID	982	n/a	n/a	0	n/a	n/a	n/a	n/a	n/a
620.426	n/a	REC_WORD	310213	wordpools/wasnorm_wordpool_less_exclusions.txt	LTP205	ltpFR	3	1	1	ARCHITECT	36	n/a	n/a	1	n/a	n/a	n/a	n/a	n/a
622.616	n/a	REC_WORD	311308	wordpools/wasnorm_wordpool_less_exclusions.txt	LTP205	ltpFR	3	1	0	GANG	619	n/a	n/a	1	n/a	n/a	n/a	n/a	n/a
624.762	n/a	REC_WORD	312381	wordpools/wasnorm_wordpool_less_exclusions.txt	LTP205	ltpFR	3	1	0	FELLOW	558	n/a	n/a	1	n/a	n/a	n/a	n/a	n/a
626.518	n/a	REC_WORD	313259	wordpools/wasnorm_wordpool_less_exclusions.txt	LTP205	ltpFR	3	1	0	GALLON	618	n/a	n/a	1	n/a	n/a	n/a	n/a	n/a
627.924	n/a	REC_WORD	313962	wordpools/wasnorm_wordpool_less_exclusions.txt	LTP205	ltpFR	3	1	0	JUG	762	n/a	n/a	1	n/a	n/a	n/a	n/a	n/a
644.382	n/a	REC_WORD	322191	wordpools/wasnorm_wordpool_less_exclusions.txt	LTP205	ltpFR	3	1	0	STAR	1373	n/a	n/a	1	n/a	n/a	n/a	n/a	n/a
651.626	n/a	REC_WORD	325813	wordpools/wasnorm_wordpool_less_exclusions.txt	LTP205	ltpFR	3	1	1	PLANT	1083	n/a	n/a	0	n/a	n/a	n/a	n/a	n/a
662.742	n/a	REC_WORD	331371	wordpools/wasnorm_wordpool_less_exclusions.txt	LTP205	ltpFR	3	1	1	DISHWASHER	475	n/a	n/a	0	n/a	n/a	n/a	n/a	n/a
669.138	n/a	REC_WORD	334569	wordpools/wasnorm_wordpool_less_exclusions.txt	LTP205	ltpFR	3	1	n/a	PEBBLE	1035	n/a	n/a	n/a	n/a	n/a	n/a	n/a	n/a
680.708	n/a	REC_WORD_VV	340354	wordpools/wasnorm_wordpool_less_exclusions.txt	LTP205	ltpFR	3	1	n/a	<>	-1	n/a	n/a	n/a	n/a	n/a	n/a	n/a	n/a
681.218	n/a	REC_WORD	340609	wordpools/wasnorm_wordpool_less_exclusions.txt	LTP205	ltpFR	3	1	0	GANG	619	n/a	n/a	1	n/a	n/a	n/a	n/a	n/a
707.226	n/a	WORD	353613	wordpools/wasnorm_wordpool_less_exclusions.txt	LTP205	ltpFR	3	2	0	HOOP	716	n/a	n/a	1	0.422607421875	0.5869140625	0	lower	zerothre.ttf
711.18	n/a	WORD	355590	wordpools/wasnorm_wordpool_less_exclusions.txt	LTP205	ltpFR	3	2	0	BALLERINA	74	n/a	n/a	1	0.422607421875	0.5869140625	0	lower	zerothre.ttf
715.296	n/a	WORD	357648	wordpools/wasnorm_wordpool_less_exclusions.txt	LTP205	ltpFR	3	2	1	DOG	480	n/a	n/a	1	0.57763671875	0.412841796875	1	upper	amplitud.ttf
719.406	n/a	WORD	359703	wordpools/wasnorm_wordpool_less_exclusions.txt	LTP205	ltpFR	3	2	1	PUPPY	1144	n/a	n/a	1	0.57763671875	0.412841796875	1	upper	amplitud.ttf
723.292	n/a	WORD	361646	wordpools/wasnorm_wordpool_less_exclusions.txt	LTP205	ltpFR	3	2	1	TOASTER	1472	n/a	n/a	0	0.57763671875	0.412841796875	1	upper	amplitud.ttf
727.292	n/a	WORD	363646	wordpools/wasnorm_wordpool_less_exclusions.txt	LTP205	ltpFR	3	2	1	CORN	381	n/a	n/a	0	0.57763671875	0.412841796875	1	upper	amplitud.ttf
731.492	n/a	WORD	365746	wordpools/wasnorm_wordpool_less_exclusions.txt	LTP205	ltpFR	3	2	0	GROCERIES	663	n/a	n/a	1	0.422607421875	0.5869140625	0	lower	zerothre.ttf
735.406	n/a	WORD	367703	wordpools/wasnorm_wordpool_less_exclusions.txt	LTP205	ltpFR	3	2	0	DINNER	468	n/a	n/a	1	0.422607421875	0.5869140625	0	lower	zerothre.ttf
739.472	n/a	WORD	369736	wordpools/wasnorm_wordpool_less_exclusions.txt	LTP205	ltpFR	3	2	0	LIPSTICK	829	n/a	n/a	0	0.422607421875	0.5869140625	0	lower	zerothre.ttf
743.586	n/a	WORD	371793	wordpools/wasnorm_wordpool_less_exclusions.txt	LTP205	ltpFR	3	2	0	COLLAR	345	n/a	n/a	0	0.422607421875	0.5869140625	0	lower	zerothre.ttf
747.58	n/a	WORD	373790	wordpools/wasnorm_wordpool_less_exclusions.txt	LTP205	ltpFR	3	2	1	NEWSSTAND	949	n/a	n/a	0	0.57763671875	0.412841796875	1	upper	amplitud.ttf
751.534	n/a	WORD	375767	wordpools/wasnorm_wordpool_less_exclusions.txt	LTP205	ltpFR	3	2	1	PANTHER	1009	n/a	n/a	1	0.57763671875	0.412841796875	1	upper	amplitud.ttf
755.712	n/a	WORD	377856	wordpools/wasnorm_wordpool_less_exclusions.txt	LTP205	ltpFR	3	2	1	WAVE	1596	n/a	n/a	1	0.57763671875	0.412841796875	1	upper	amplitud.ttf
759.8	n/a	WORD	379900	wordpools/wasnorm_wordpool_less_exclusions.txt	LTP205	ltpFR	3	2	1	NUN	962	n/a	n/a	1	0.57763671875	0.412841796875	1	upper	amplitud.ttf
763.898	n/a	WORD	381949	wordpools/wasnorm_wordpool_less_exclusions.txt	LTP205	ltpFR	3	2	0	FOLDER	588	n/a	n/a	0	0.422607421875	0.5869140625	0	lower	zerothre.ttf
767.748	n/a	WORD	383874	wordpools/wasnorm_wordpool_less_exclusions.txt	LTP205	ltpFR	3	2	0	WATER	1594	n/a	n/a	1	0.422607421875	0.5869140625	0	lower	zerothre.ttf
773.72	n/a	REC_START	386860	n/a	LTP205	ltpFR	3	2	n/a	n/a	n/a	n/a	n/a	n/a	n/a	n/a	n/a	n/a	n/a
774.448	n/a	REC_WORD	387224	wordpools/wasnorm_wordpool_less_exclusions.txt	LTP205	ltpFR	3	2	0	FOLDER	588	n/a	n/a	0	n/a	n/a	n/a	n/a	n/a
776.24	n/a	REC_WORD	388120	wordpools/wasnorm_wordpool_less_exclusions.txt	LTP205	ltpFR	3	2	0	WATER	1594	n/a	n/a	1	n/a	n/a	n/a	n/a	n/a
777.24	n/a	REC_WORD_VV	388620	wordpools/wasnorm_wordpool_less_exclusions.txt	LTP205	ltpFR	3	2	n/a	<>	-1	n/a	n/a	n/a	n/a	n/a	n/a	n/a	n/a
778.13	n/a	REC_WORD	389065	wordpools/wasnorm_wordpool_less_exclusions.txt	LTP205	ltpFR	3	2	1	NEWSSTAND	949	n/a	n/a	0	n/a	n/a	n/a	n/a	n/a
779.13	n/a	REC_WORD_VV	389565	wordpools/wasnorm_wordpool_less_exclusions.txt	LTP205	ltpFR	3	2	n/a	<>	-1	n/a	n/a	n/a	n/a	n/a	n/a	n/a	n/a
779.896	n/a	REC_WORD	389948	wordpools/wasnorm_wordpool_less_exclusions.txt	LTP205	ltpFR	3	2	1	NUN	962	n/a	n/a	1	n/a	n/a	n/a	n/a	n/a
782.724	n/a	REC_WORD	391362	wordpools/wasnorm_wordpool_less_exclusions.txt	LTP205	ltpFR	3	2	0	BALLERINA	74	n/a	n/a	1	n/a	n/a	n/a	n/a	n/a
788.472	n/a	REC_WORD	394236	wordpools/wasnorm_wordpool_less_exclusions.txt	LTP205	ltpFR	3	2	1	WAVE	1596	n/a	n/a	1	n/a	n/a	n/a	n/a	n/a
790.678	n/a	REC_WORD	395339	wordpools/wasnorm_wordpool_less_exclusions.txt	LTP205	ltpFR	3	2	1	PUPPY	1144	n/a	n/a	1	n/a	n/a	n/a	n/a	n/a
791.974	n/a	REC_WORD	395987	wordpools/wasnorm_wordpool_less_exclusions.txt	LTP205	ltpFR	3	2	1	DOG	480	n/a	n/a	1	n/a	n/a	n/a	n/a	n/a
795.022	n/a	REC_WORD	397511	wordpools/wasnorm_wordpool_less_exclusions.txt	LTP205	ltpFR	3	2	n/a	PUDDLE	1140	n/a	n/a	n/a	n/a	n/a	n/a	n/a	n/a
799.018	n/a	REC_WORD	399509	wordpools/wasnorm_wordpool_less_exclusions.txt	LTP205	ltpFR	3	2	0	WATER	1594	n/a	n/a	1	n/a	n/a	n/a	n/a	n/a
813.652	n/a	REC_WORD	406826	wordpools/wasnorm_wordpool_less_exclusions.txt	LTP205	ltpFR	3	2	n/a	PAINTER	1004	n/a	n/a	n/a	n/a	n/a	n/a	n/a	n/a
827.332	n/a	REC_WORD_VV	413666	wordpools/wasnorm_wordpool_less_exclusions.txt	LTP205	ltpFR	3	2	n/a	<>	-1	n/a	n/a	n/a	n/a	n/a	n/a	n/a	n/a
828.534	n/a	REC_WORD	414267	wordpools/wasnorm_wordpool_less_exclusions.txt	LTP205	ltpFR	3	2	0	FOLDER	588	n/a	n/a	0	n/a	n/a	n/a	n/a	n/a
831.478	n/a	REC_WORD	415739	wordpools/wasnorm_wordpool_less_exclusions.txt	LTP205	ltpFR	3	2	0	COLLAR	345	n/a	n/a	0	n/a	n/a	n/a	n/a	n/a
853.86	n/a	WORD	426930	wordpools/wasnorm_wordpool_less_exclusions.txt	LTP205	ltpFR	3	3	0	BOY	161	n/a	n/a	1	0.422607421875	0.5869140625	0	lower	zerothre.ttf
858.076	n/a	WORD	429038	wordpools/wasnorm_wordpool_less_exclusions.txt	LTP205	ltpFR	3	3	0	BUGLE	189	n/a	n/a	1	0.422607421875	0.5869140625	0	lower	zerothre.ttf
861.952	n/a	WORD	430976	wordpools/wasnorm_wordpool_less_exclusions.txt	LTP205	ltpFR	3	3	0	SANDPAPER	1231	n/a	n/a	0	0.422607421875	0.5869140625	0	lower	zerothre.ttf
865.856	n/a	WORD	432928	wordpools/wasnorm_wordpool_less_exclusions.txt	LTP205	ltpFR	3	3	0	VELVET	1555	n/a	n/a	0	0.422607421875	0.5869140625	0	lower	zerothre.ttf
869.982	n/a	WORD	434991	wordpools/wasnorm_wordpool_less_exclusions.txt	LTP205	ltpFR	3	3	0	TIMBER	1469	n/a	n/a	1	0.422607421875	0.5869140625	0	lower	zerothre.ttf
873.902	n/a	WORD	436951	wordpools/wasnorm_wordpool_less_exclusions.txt	LTP205	ltpFR	3	3	0	STRANGER	1389	n/a	n/a	1	0.422607421875	0.5869140625	0	lower	zerothre.ttf
877.946	n/a	WORD	438973	wordpools/wasnorm_wordpool_less_exclusions.txt	LTP205	ltpFR	3	3	0	RODENT	1204	n/a	n/a	0	0.422607421875	0.5869140625	0	lower	zerothre.ttf
881.984	n/a	WORD	440992	wordpools/wasnorm_wordpool_less_exclusions.txt	LTP205	ltpFR	3	3	0	PITCHFORK	1078	n/a	n/a	1	0.422607421875	0.5869140625	0	lower	zerothre.ttf
886.194	n/a	WORD	443097	wordpools/wasnorm_wordpool_less_exclusions.txt	LTP205	ltpFR	3	3	0	FRIEND	606	n/a	n/a	1	0.422607421875	0.5869140625	0	lower	zerothre.ttf
890.132	n/a	WORD	445066	wordpools/wasnorm_wordpool_less_exclusions.txt	LTP205	ltpFR	3	3	0	JELLY	755	n/a	n/a	0	0.422607421875	0.5869140625	0	lower	zerothre.ttf
894.14	n/a	WORD	447070	wordpools/wasnorm_wordpool_less_exclusions.txt	LTP205	ltpFR	3	3	0	POSSUM	1112	n/a	n/a	1	0.422607421875	0.5869140625	0	lower	zerothre.ttf
898.006	n/a	WORD	449003	wordpools/wasnorm_wordpool_less_exclusions.txt	LTP205	ltpFR	3	3	0	CLARINET	317	n/a	n/a	1	0.422607421875	0.5869140625	0	lower	zerothre.ttf
901.954	n/a	WORD	450977	wordpools/wasnorm_wordpool_less_exclusions.txt	LTP205	ltpFR	3	3	0	AIRPLANE	12	n/a	n/a	1	0.422607421875	0.5869140625	0	lower	zerothre.ttf
905.954	n/a	WORD	452977	wordpools/wasnorm_wordpool_less_exclusions.txt	LTP205	ltpFR	3	3	0	MINT	898	n/a	n/a	0	0.422607421875	0.5869140625	0	lower	zerothre.ttf
909.856	n/a	WORD	454928	wordpools/wasnorm_wordpool_less_exclusions.txt	LTP205	ltpFR	3	3	0	OZONE	996	n/a	n/a	1	0.422607421875	0.5869140625	0	lower	zerothre.ttf
914.022	n/a	WORD	457011	wordpools/wasnorm_wordpool_less_exclusions.txt	LTP205	ltpFR	3	3	0	METEOR	889	n/a	n/a	1	0.422607421875	0.5869140625	0	lower	zerothre.ttf
920.024	n/a	REC_START	460012	n/a	LTP205	ltpFR	3	3	n/a	n/a	n/a	n/a	n/a	n/a	n/a	n/a	n/a	n/a	n/a
921.086	n/a	REC_WORD	460543	wordpools/wasnorm_wordpool_less_exclusions.txt	LTP205	ltpFR	3	3	0	BOY	161	n/a	n/a	1	n/a	n/a	n/a	n/a	n/a
922.09	n/a	REC_WORD	461045	wordpools/wasnorm_wordpool_less_exclusions.txt	LTP205	ltpFR	3	3	0	BUGLE	189	n/a	n/a	1	n/a	n/a	n/a	n/a	n/a
923.082	n/a	REC_WORD	461541	wordpools/wasnorm_wordpool_less_exclusions.txt	LTP205	ltpFR	3	3	0	PITCHFORK	1078	n/a	n/a	1	n/a	n/a	n/a	n/a	n/a
924.066	n/a	REC_WORD	462033	wordpools/wasnorm_wordpool_less_exclusions.txt	LTP205	ltpFR	3	3	0	FRIEND	606	n/a	n/a	1	n/a	n/a	n/a	n/a	n/a
925.302	n/a	REC_WORD	462651	wordpools/wasnorm_wordpool_less_exclusions.txt	LTP205	ltpFR	3	3	0	METEOR	889	n/a	n/a	1	n/a	n/a	n/a	n/a	n/a
936.174	n/a	REC_WORD	468087	wordpools/wasnorm_wordpool_less_exclusions.txt	LTP205	ltpFR	3	3	0	CLARINET	317	n/a	n/a	1	n/a	n/a	n/a	n/a	n/a
943.562	n/a	REC_WORD	471781	wordpools/wasnorm_wordpool_less_exclusions.txt	LTP205	ltpFR	3	3	0	DINNER	468	n/a	n/a	1	n/a	n/a	n/a	n/a	n/a
952.132	n/a	REC_WORD	476066	wordpools/wasnorm_wordpool_less_exclusions.txt	LTP205	ltpFR	3	3	0	OZONE	996	n/a	n/a	1	n/a	n/a	n/a	n/a	n/a
972.182	n/a	REC_WORD	486091	wordpools/wasnorm_wordpool_less_exclusions.txt	LTP205	ltpFR	3	3	0	WATER	1594	n/a	n/a	1	n/a	n/a	n/a	n/a	n/a
982.934	n/a	REC_WORD_VV	491467	wordpools/wasnorm_wordpool_less_exclusions.txt	LTP205	ltpFR	3	3	n/a	<>	-1	n/a	n/a	n/a	n/a	n/a	n/a	n/a	n/a
987.134	n/a	REC_WORD	493567	wordpools/wasnorm_wordpool_less_exclusions.txt	LTP205	ltpFR	3	3	0	CLARINET	317	n/a	n/a	1	n/a	n/a	n/a	n/a	n/a
988.134	n/a	REC_WORD_VV	494067	wordpools/wasnorm_wordpool_less_exclusions.txt	LTP205	ltpFR	3	3	n/a	<>	-1	n/a	n/a	n/a	n/a	n/a	n/a	n/a	n/a
1011.656	n/a	WORD	505828	wordpools/wasnorm_wordpool_less_exclusions.txt	LTP205	ltpFR	3	4	1	CHIP	303	n/a	n/a	2	0.57763671875	0.412841796875	1	upper	amplitud.ttf
1014.272	n/a	KEY_MSG	507136	n/a	LTP205	ltpFR	3	4	n/a	n/a	n/a	n/a	n/a	n/a	n/a	n/a	n/a	n/a	n/a
1016.9	n/a	WORD	508450	wordpools/wasnorm_wordpool_less_exclusions.txt	LTP205	ltpFR	3	4	1	SOFA	1342	n/a	n/a	0	0.57763671875	0.412841796875	1	upper	amplitud.ttf
1020.926	n/a	WORD	510463	wordpools/wasnorm_wordpool_less_exclusions.txt	LTP205	ltpFR	3	4	1	COMPUTER	359	n/a	n/a	0	0.57763671875	0.412841796875	1	upper	amplitud.ttf
1024.946	n/a	WORD	512473	wordpools/wasnorm_wordpool_less_exclusions.txt	LTP205	ltpFR	3	4	1	OTTER	986	n/a	n/a	1	0.57763671875	0.412841796875	1	upper	amplitud.ttf
1028.996	n/a	WORD	514498	wordpools/wasnorm_wordpool_less_exclusions.txt	LTP205	ltpFR	3	4	1	CANAL	226	n/a	n/a	1	0.57763671875	0.412841796875	1	upper	amplitud.ttf
1032.962	n/a	WORD	516481	wordpools/wasnorm_wordpool_less_exclusions.txt	LTP205	ltpFR	3	4	1	DASHBOARD	441	n/a	n/a	1	0.57763671875	0.412841796875	1	upper	amplitud.ttf
1036.86	n/a	WORD	518430	wordpools/wasnorm_wordpool_less_exclusions.txt	LTP205	ltpFR	3	4	1	CAR	241	n/a	n/a	0	0.57763671875	0.412841796875	1	upper	amplitud.ttf
1040.722	n/a	WORD	520361	wordpools/wasnorm_wordpool_less_exclusions.txt	LTP205	ltpFR	3	4	1	RABBIT	1152	n/a	n/a	1	0.57763671875	0.412841796875	1	upper	amplitud.ttf
1044.722	n/a	WORD	522361	wordpools/wasnorm_wordpool_less_exclusions.txt	LTP205	ltpFR	3	4	1	PORCH	1106	n/a	n/a	0	0.57763671875	0.412841796875	1	upper	amplitud.ttf
1048.806	n/a	WORD	524403	wordpools/wasnorm_wordpool_less_exclusions.txt	LTP205	ltpFR	3	4	1	BENCH	121	n/a	n/a	0	0.57763671875	0.412841796875	1	upper	amplitud.ttf
1052.77	n/a	WORD	526385	wordpools/wasnorm_wordpool_less_exclusions.txt	LTP205	ltpFR	3	4	1	PONY	1102	n/a	n/a	1	0.57763671875	0.412841796875	1	upper	amplitud.ttf
1056.634	n/a	WORD	528317	wordpools/wasnorm_wordpool_less_exclusions.txt	LTP205	ltpFR	3	4	1	COACH	331	n/a	n/a	0	0.57763671875	0.412841796875	1	upper	amplitud.ttf
1060.834	n/a	WORD	530417	wordpools/wasnorm_wordpool_less_exclusions.txt	LTP205	ltpFR	3	4	1	TELEVISION	1447	n/a	n/a	0	0.57763671875	0.412841796875	1	upper	amplitud.ttf
1064.932	n/a	WORD	532466	wordpools/wasnorm_wordpool_less_exclusions.txt	LTP205	ltpFR	3	4	1	CABIN	211	n/a	n/a	0	0.57763671875	0.412841796875	1	upper	amplitud.ttf
1069.144	n/a	WORD	534572	wordpools/wasnorm_wordpool_less_exclusions.txt	LTP205	ltpFR	3	4	1	PAINTING	1005	n/a	n/a	0	0.57763671875	0.412841796875	1	upper	amplitud.ttf
1073.224	n/a	WORD	536612	wordpools/wasnorm_wordpool_less_exclusions.txt	LTP205	ltpFR	3	4	1	PILOT	1070	n/a	n/a	1	0.57763671875	0.412841796875	1	upper	amplitud.ttf
1079.188	n/a	REC_START	539594	n/a	LTP205	ltpFR	3	4	n/a	n/a	n/a	n/a	n/a	n/a	n/a	n/a	n/a	n/a	n/a
1080.444	n/a	REC_WORD	540222	wordpools/wasnorm_wordpool_less_exclusions.txt	LTP205	ltpFR	3	4	1	CABIN	211	n/a	n/a	0	n/a	n/a	n/a	n/a	n/a
1081.428	n/a	REC_WORD	540714	wordpools/wasnorm_wordpool_less_exclusions.txt	LTP205	ltpFR	3	4	n/a	CANOE	233	n/a	n/a	n/a	n/a	n/a	n/a	n/a	n/a
1082.564	n/a	REC_WORD	541282	wordpools/wasnorm_wordpool_less_exclusions.txt	LTP205	ltpFR	3	4	1	CANAL	226	n/a	n/a	1	n/a	n/a	n/a	n/a	n/a
1083.922	n/a	REC_WORD	541961	wordpools/wasnorm_wordpool_less_exclusions.txt	LTP205	ltpFR	3	4	1	PAINTING	1005	n/a	n/a	0	n/a	n/a	n/a	n/a	n/a
1085.248	n/a	REC_WORD	542624	wordpools/wasnorm_wordpool_less_exclusions.txt	LTP205	ltpFR	3	4	0	PITCHFORK	1078	n/a	n/a	1	n/a	n/a	n/a	n/a	n/a
1086.326	n/a	REC_WORD	543163	wordpools/wasnorm_wordpool_less_exclusions.txt	LTP205	ltpFR	3	4	0	FRIEND	606	n/a	n/a	1	n/a	n/a	n/a	n/a	n/a
1097.092	n/a	REC_WORD	548546	wordpools/wasnorm_wordpool_less_exclusions.txt	LTP205	ltpFR	3	4	1	DASHBOARD	441	n/a	n/a	1	n/a	n/a	n/a	n/a	n/a
1098.838	n/a	REC_WORD	549419	wordpools/wasnorm_wordpool_less_exclusions.txt	LTP205	ltpFR	3	4	1	CAR	241	n/a	n/a	0	n/a	n/a	n/a	n/a	n/a
1108.798	n/a	REC_WORD	554399	wordpools/wasnorm_wordpool_less_exclusions.txt	LTP205	ltpFR	3	4	1	OTTER	986	n/a	n/a	1	n/a	n/a	n/a	n/a	n/a
1112.598	n/a	REC_WORD	556299	wordpools/wasnorm_wordpool_less_exclusions.txt	LTP205	ltpFR	3	4	0	TIMBER	1469	n/a	n/a	1	n/a	n/a	n/a	n/a	n/a
1113.598	n/a	REC_WORD_VV	556799	wordpools/wasnorm_wordpool_less_exclusions.txt	LTP205	ltpFR	3	4	n/a	<>	-1	n/a	n/a	n/a	n/a	n/a	n/a	n/a	n/a
1125.584	n/a	REC_WORD_VV	562792	wordpools/wasnorm_wordpool_less_exclusions.txt	LTP205	ltpFR	3	4	n/a	<>	-1	n/a	n/a	n/a	n/a	n/a	n/a	n/a	n/a
1126.584	n/a	REC_WORD_VV	563292	wordpools/wasnorm_wordpool_less_exclusions.txt	LTP205	ltpFR	3	4	n/a	<>	-1	n/a	n/a	n/a	n/a	n/a	n/a	n/a	n/a
1127.9	n/a	REC_WORD_VV	563950	wordpools/wasnorm_wordpool_less_exclusions.txt	LTP205	ltpFR	3	4	n/a	<>	-1	n/a	n/a	n/a	n/a	n/a	n/a	n/a	n/a
1128.9	n/a	REC_WORD_VV	564450	wordpools/wasnorm_wordpool_less_exclusions.txt	LTP205	ltpFR	3	4	n/a	<>	-1	n/a	n/a	n/a	n/a	n/a	n/a	n/a	n/a
1144.328	n/a	REC_WORD_VV	572164	wordpools/wasnorm_wordpool_less_exclusions.txt	LTP205	ltpFR	3	4	n/a	<>	-1	n/a	n/a	n/a	n/a	n/a	n/a	n/a	n/a
1144.702	n/a	REC_WORD	572351	wordpools/wasnorm_wordpool_less_exclusions.txt	LTP205	ltpFR	3	4	0	BUGLE	189	n/a	n/a	1	n/a	n/a	n/a	n/a	n/a
1175.154	n/a	WORD	587577	wordpools/wasnorm_wordpool_less_exclusions.txt	LTP205	ltpFR	3	5	0	MONK	910	n/a	n/a	1	0.422607421875	0.5869140625	0	lower	zerothre.ttf
1179.03	n/a	WORD	589515	wordpools/wasnorm_wordpool_less_exclusions.txt	LTP205	ltpFR	3	5	0	RAKE	1164	n/a	n/a	1	0.422607421875	0.5869140625	0	lower	zerothre.ttf
1183.012	n/a	WORD	591506	wordpools/wasnorm_wordpool_less_exclusions.txt	LTP205	ltpFR	3	5	1	FIG	563	n/a	n/a	0	0.57763671875	0.412841796875	1	upper	amplitud.ttf
1186.95	n/a	WORD	593475	wordpools/wasnorm_wordpool_less_exclusions.txt	LTP205	ltpFR	3	5	1	APRON	35	n/a	n/a	0	0.57763671875	0.412841796875	1	upper	amplitud.ttf
1191.126	n/a	WORD	595563	wordpools/wasnorm_wordpool_less_exclusions.txt	LTP205	ltpFR	3	5	1	RECIPE	1175	n/a	n/a	0	0.57763671875	0.412841796875	1	upper	amplitud.ttf
1194.996	n/a	WORD	597498	wordpools/wasnorm_wordpool_less_exclusions.txt	LTP205	ltpFR	3	5	1	PUZZLE	1146	n/a	n/a	0	0.57763671875	0.412841796875	1	upper	amplitud.ttf
1199.04	n/a	WORD	599520	wordpools/wasnorm_wordpool_less_exclusions.txt	LTP205	ltpFR	3	5	1	ROOSTER	1209	n/a	n/a	1	0.57763671875	0.412841796875	1	upper	amplitud.ttf
1203.244	n/a	WORD	601622	wordpools/wasnorm_wordpool_less_exclusions.txt	LTP205	ltpFR	3	5	1	PUBLICATION	1136	n/a	n/a	0	0.57763671875	0.412841796875	1	upper	amplitud.ttf
1207.46	n/a	WORD	603730	wordpools/wasnorm_wordpool_less_exclusions.txt	LTP205	ltpFR	3	5	0	DESIGNER	451	n/a	n/a	1	0.422607421875	0.5869140625	0	lower	zerothre.ttf
1211.374	n/a	WORD	605687	wordpools/wasnorm_wordpool_less_exclusions.txt	LTP205	ltpFR	3	5	0	VEGETABLE	1552	n/a	n/a	0	0.422607421875	0.5869140625	0	lower	zerothre.ttf
1215.384	n/a	WORD	607692	wordpools/wasnorm_wordpool_less_exclusions.txt	LTP205	ltpFR	3	5	0	LETTUCE	814	n/a	n/a	0	0.422607421875	0.5869140625	0	lower	zerothre.ttf
1219.422	n/a	WORD	609711	wordpools/wasnorm_wordpool_less_exclusions.txt	LTP205	ltpFR	3	5	1	PREACHER	1119	n/a	n/a	1	0.57763671875	0.412841796875	1	upper	amplitud.ttf
1223.554	n/a	WORD	611777	wordpools/wasnorm_wordpool_less_exclusions.txt	LTP205	ltpFR	3	5	1	DOVE	491	n/a	n/a	1	0.57763671875	0.412841796875	1	upper	amplitud.ttf
1227.704	n/a	WORD	613852	wordpools/wasnorm_wordpool_less_exclusions.txt	LTP205	ltpFR	3	5	0	DONOR	485	n/a	n/a	3	0.422607421875	0.5869140625	0	lower	zerothre.ttf
1229.326	n/a	KEY_MSG	614663	n/a	LTP205	ltpFR	3	5	n/a	n/a	n/a	n/a	n/a	n/a	n/a	n/a	n/a	n/a	n/a
1231.77	n/a	WORD	615885	wordpools/wasnorm_wordpool_less_exclusions.txt	LTP205	ltpFR	3	5	0	NUT	965	n/a	n/a	0	0.422607421875	0.5869140625	0	lower	zerothre.ttf
1235.902	n/a	WORD	617951	wordpools/wasnorm_wordpool_less_exclusions.txt	LTP205	ltpFR	3	5	0	DIARY	460	n/a	n/a	0	0.422607421875	0.5869140625	0	lower	zerothre.ttf
1241.702	n/a	REC_START	620851	n/a	LTP205	ltpFR	3	5	n/a	n/a	n/a	n/a	n/a	n/a	n/a	n/a	n/a	n/a	n/a
1242.576	n/a	REC_WORD	621288	wordpools/wasnorm_wordpool_less_exclusions.txt	LTP205	ltpFR	3	5	0	MONK	910	n/a	n/a	1	n/a	n/a	n/a	n/a	n/a
1243.732	n/a	REC_WORD	621866	wordpools/wasnorm_wordpool_less_exclusions.txt	LTP205	ltpFR	3	5	0	RAKE	1164	n/a	n/a	1	n/a	n/a	n/a	n/a	n/a
1244.75	n/a	REC_WORD	622375	wordpools/wasnorm_wordpool_less_exclusions.txt	LTP205	ltpFR	3	5	1	FIG	563	n/a	n/a	0	n/a	n/a	n/a	n/a	n/a
1246.222	n/a	REC_WORD	623111	wordpools/wasnorm_wordpool_less_exclusions.txt	LTP205	ltpFR	3	5	n/a	DAIRY	-1	n/a	n/a	n/a	n/a	n/a	n/a	n/a	n/a
1247.43	n/a	REC_WORD	623715	wordpools/wasnorm_wordpool_less_exclusions.txt	LTP205	ltpFR	3	5	1	PREACHER	1119	n/a	n/a	1	n/a	n/a	n/a	n/a	n/a
1249.026	n/a	REC_WORD_VV	624513	wordpools/wasnorm_wordpool_less_exclusions.txt	LTP205	ltpFR	3	5	n/a	<>	-1	n/a	n/a	n/a	n/a	n/a	n/a	n/a	n/a
1250.582	n/a	REC_WORD	625291	wordpools/wasnorm_wordpool_less_exclusions.txt	LTP205	ltpFR	3	5	0	NUT	965	n/a	n/a	0	n/a	n/a	n/a	n/a	n/a
1254.968	n/a	REC_WORD	627484	wordpools/wasnorm_wordpool_less_exclusions.txt	LTP205	ltpFR	3	5	n/a	CUPBOARD	425	n/a	n/a	n/a	n/a	n/a	n/a	n/a	n/a
1262.126	n/a	REC_WORD	631063	wordpools/wasnorm_wordpool_less_exclusions.txt	LTP205	ltpFR	3	5	1	PREACHER	1119	n/a	n/a	1	n/a	n/a	n/a	n/a	n/a
1262.796	n/a	REC_WORD	631398	wordpools/wasnorm_wordpool_less_exclusions.txt	LTP205	ltpFR	3	5	0	DESIGNER	451	n/a	n/a	1	n/a	n/a	n/a	n/a	n/a
1273.726	n/a	REC_WORD	636863	wordpools/wasnorm_wordpool_less_exclusions.txt	LTP205	ltpFR	3	5	1	OTTER	986	n/a	n/a	1	n/a	n/a	n/a	n/a	n/a
1297.862	n/a	REC_WORD	648931	wordpools/wasnorm_wordpool_less_exclusions.txt	LTP205	ltpFR	3	5	n/a	CUP	424	n/a	n/a	n/a	n/a	n/a	n/a	n/a	n/a
1302.946	n/a	REC_WORD	651473	wordpools/wasnorm_wordpool_less_exclusions.txt	LTP205	ltpFR	3	5	1	PUBLICATION	1136	n/a	n/a	0	n/a	n/a	n/a	n/a	n/a
1306.932	n/a	REC_WORD	653466	wordpools/wasnorm_wordpool_less_exclusions.txt	LTP205	ltpFR	3	5	1	DOVE	491	n/a	n/a	1	n/a	n/a	n/a	n/a	n/a
1369.396	n/a	WORD	684698	wordpools/wasnorm_wordpool_less_exclusions.txt	LTP205	ltpFR	3	6	1	BEAN	105	n/a	n/a	0	0.57763671875	0.412841796875	1	upper	amplitud.ttf
1373.612	n/a	WORD	686806	wordpools/wasnorm_wordpool_less_exclusions.txt	LTP205	ltpFR	3	6	1	ZUCCHINI	1638	n/a	n/a	0	0.57763671875	0.412841796875	1	upper	amplitud.ttf
1377.46	n/a	WORD	688730	wordpools/wasnorm_wordpool_less_exclusions.txt	LTP205	ltpFR	3	6	1	SCENERY	1247	n/a	n/a	1	0.57763671875	0.412841796875	1	upper	amplitud.ttf
1381.402	n/a	WORD	690701	wordpools/wasnorm_wordpool_less_exclusions.txt	LTP205	ltpFR	3	6	1	GEM	629	n/a	n/a	0	0.57763671875	0.412841796875	1	upper	amplitud.ttf
1385.4	n/a	WORD	692700	wordpools/wasnorm_wordpool_less_exclusions.txt	LTP205	ltpFR	3	6	0	FOLLOWER	589	n/a	n/a	1	0.422607421875	0.5869140625	0	lower	zerothre.ttf
1389.256	n/a	WORD	694628	wordpools/wasnorm_wordpool_less_exclusions.txt	LTP205	ltpFR	3	6	0	GOVERNOR	651	n/a	n/a	1	0.422607421875	0.5869140625	0	lower	zerothre.ttf
1393.37	n/a	WORD	696685	wordpools/wasnorm_wordpool_less_exclusions.txt	LTP205	ltpFR	3	6	1	SAPPHIRE	1234	n/a	n/a	0	0.57763671875	0.412841796875	1	upper	amplitud.ttf
1397.23	n/a	WORD	698615	wordpools/wasnorm_wordpool_less_exclusions.txt	LTP205	ltpFR	3	6	1	TOENAIL	1474	n/a	n/a	1	0.57763671875	0.412841796875	1	upper	amplitud.ttf
1401.184	n/a	WORD	700592	wordpools/wasnorm_wordpool_less_exclusions.txt	LTP205	ltpFR	3	6	1	BEE	112	n/a	n/a	1	0.57763671875	0.412841796875	1	upper	amplitud.ttf
1405.066	n/a	WORD	702533	wordpools/wasnorm_wordpool_less_exclusions.txt	LTP205	ltpFR	3	6	1	DRAWING	494	n/a	n/a	0	0.57763671875	0.412841796875	1	upper	amplitud.ttf
1409.092	n/a	WORD	704546	wordpools/wasnorm_wordpool_less_exclusions.txt	LTP205	ltpFR	3	6	0	HAND	683	n/a	n/a	1	0.422607421875	0.5869140625	0	lower	zerothre.ttf
1413.074	n/a	WORD	706537	wordpools/wasnorm_wordpool_less_exclusions.txt	LTP205	ltpFR	3	6	0	ROOM	1206	n/a	n/a	1	0.422607421875	0.5869140625	0	lower	zerothre.ttf
1417.178	n/a	WORD	708589	wordpools/wasnorm_wordpool_less_exclusions.txt	LTP205	ltpFR	3	6	0	DOLLAR	482	n/a	n/a	0	0.422607421875	0.5869140625	0	lower	zerothre.ttf
1421.304	n/a	WORD	710652	wordpools/wasnorm_wordpool_less_exclusions.txt	LTP205	ltpFR	3	6	0	HANDBAG	684	n/a	n/a	1	0.422607421875	0.5869140625	0	lower	zerothre.ttf
1425.476	n/a	WORD	712738	wordpools/wasnorm_wordpool_less_exclusions.txt	LTP205	ltpFR	3	6	0	CALF	222	n/a	n/a	1	0.422607421875	0.5869140625	0	lower	zerothre.ttf
1429.342	n/a	WORD	714671	wordpools/wasnorm_wordpool_less_exclusions.txt	LTP205	ltpFR	3	6	0	GUARD	667	n/a	n/a	1	0.422607421875	0.5869140625	0	lower	zerothre.ttf
1435.276	n/a	REC_START	717638	n/a	LTP205	ltpFR	3	6	n/a	n/a	n/a	n/a	n/a	n/a	n/a	n/a	n/a	n/a	n/a
1435.924	n/a	REC_WORD	717962	wordpools/wasnorm_wordpool_less_exclusions.txt	LTP205	ltpFR	3	6	1	TOENAIL	1474	n/a	n/a	1	n/a	n/a	n/a	n/a	n/a
1437.13	n/a	REC_WORD	718565	wordpools/wasnorm_wordpool_less_exclusions.txt	LTP205	ltpFR	3	6	0	HAND	683	n/a	n/a	1	n/a	n/a	n/a	n/a	n/a
1438.228	n/a	REC_WORD	719114	wordpools/wasnorm_wordpool_less_exclusions.txt	LTP205	ltpFR	3	6	1	ZUCCHINI	1638	n/a	n/a	0	n/a	n/a	n/a	n/a	n/a
1439.77	n/a	REC_WORD	719885	wordpools/wasnorm_wordpool_less_exclusions.txt	LTP205	ltpFR	3	6	0	GUARD	667	n/a	n/a	1	n/a	n/a	n/a	n/a	n/a
1440.888	n/a	REC_WORD	720444	wordpools/wasnorm_wordpool_less_exclusions.txt	LTP205	ltpFR	3	6	0	CALF	222	n/a	n/a	1	n/a	n/a	n/a	n/a	n/a
1449.678	n/a	REC_WORD	724839	wordpools/wasnorm_wordpool_less_exclusions.txt	LTP205	ltpFR	3	6	1	SAPPHIRE	1234	n/a	n/a	0	n/a	n/a	n/a	n/a	n/a
1450.678	n/a	REC_WORD_VV	725339	wordpools/wasnorm_wordpool_less_exclusions.txt	LTP205	ltpFR	3	6	n/a	<>	-1	n/a	n/a	n/a	n/a	n/a	n/a	n/a	n/a
1451.126	n/a	REC_WORD	725563	wordpools/wasnorm_wordpool_less_exclusions.txt	LTP205	ltpFR	3	6	1	GEM	629	n/a	n/a	0	n/a	n/a	n/a	n/a	n/a
1453.634	n/a	REC_WORD_VV	726817	wordpools/wasnorm_wordpool_less_exclusions.txt	LTP205	ltpFR	3	6	n/a	<>	-1	n/a	n/a	n/a	n/a	n/a	n/a	n/a	n/a
1454.634	n/a	REC_WORD_VV	727317	wordpools/wasnorm_wordpool_less_exclusions.txt	LTP205	ltpFR	3	6	n/a	<>	-1	n/a	n/a	n/a	n/a	n/a	n/a	n/a	n/a
1454.972	n/a	REC_WORD	727486	wordpools/wasnorm_wordpool_less_exclusions.txt	LTP205	ltpFR	3	6	0	ROOM	1206	n/a	n/a	1	n/a	n/a	n/a	n/a	n/a
1458.388	n/a	REC_WORD	729194	wordpools/wasnorm_wordpool_less_exclusions.txt	LTP205	ltpFR	3	6	0	ROOM	1206	n/a	n/a	1	n/a	n/a	n/a	n/a	n/a
1460.494	n/a	REC_WORD_VV	730247	wordpools/wasnorm_wordpool_less_exclusions.txt	LTP205	ltpFR	3	6	n/a	<>	-1	n/a	n/a	n/a	n/a	n/a	n/a	n/a	n/a
1461.494	n/a	REC_WORD_VV	730747	wordpools/wasnorm_wordpool_less_exclusions.txt	LTP205	ltpFR	3	6	n/a	<>	-1	n/a	n/a	n/a	n/a	n/a	n/a	n/a	n/a
1463.628	n/a	REC_WORD_VV	731814	wordpools/wasnorm_wordpool_less_exclusions.txt	LTP205	ltpFR	3	6	n/a	<>	-1	n/a	n/a	n/a	n/a	n/a	n/a	n/a	n/a
1471.924	n/a	REC_WORD	735962	wordpools/wasnorm_wordpool_less_exclusions.txt	LTP205	ltpFR	3	6	0	CALF	222	n/a	n/a	1	n/a	n/a	n/a	n/a	n/a
1478.716	n/a	REC_WORD_VV	739358	wordpools/wasnorm_wordpool_less_exclusions.txt	LTP205	ltpFR	3	6	n/a	<>	-1	n/a	n/a	n/a	n/a	n/a	n/a	n/a	n/a
1479.716	n/a	REC_WORD_VV	739858	wordpools/wasnorm_wordpool_less_exclusions.txt	LTP205	ltpFR	3	6	n/a	<>	-1	n/a	n/a	n/a	n/a	n/a	n/a	n/a	n/a
1480.544	n/a	REC_WORD	740272	wordpools/wasnorm_wordpool_less_exclusions.txt	LTP205	ltpFR	3	6	1	BEE	112	n/a	n/a	1	n/a	n/a	n/a	n/a	n/a
1491.566	n/a	REC_WORD	745783	wordpools/wasnorm_wordpool_less_exclusions.txt	LTP205	ltpFR	3	6	n/a	FLOWER	584	n/a	n/a	n/a	n/a	n/a	n/a	n/a	n/a
1497.372	n/a	REC_WORD	748686	wordpools/wasnorm_wordpool_less_exclusions.txt	LTP205	ltpFR	3	6	1	ORCHID	982	n/a	n/a	0	n/a	n/a	n/a	n/a	n/a
1503.95	n/a	REC_WORD_VV	751975	wordpools/wasnorm_wordpool_less_exclusions.txt	LTP205	ltpFR	3	6	n/a	<>	-1	n/a	n/a	n/a	n/a	n/a	n/a	n/a	n/a
1504.95	n/a	REC_WORD_VV	752475	wordpools/wasnorm_wordpool_less_exclusions.txt	LTP205	ltpFR	3	6	n/a	<>	-1	n/a	n/a	n/a	n/a	n/a	n/a	n/a	n/a
1505.95	n/a	REC_WORD_VV	752975	wordpools/wasnorm_wordpool_less_exclusions.txt	LTP205	ltpFR	3	6	n/a	<>	-1	n/a	n/a	n/a	n/a	n/a	n/a	n/a	n/a
1508.842	n/a	REC_WORD	754421	wordpools/wasnorm_wordpool_less_exclusions.txt	LTP205	ltpFR	3	6	0	BOY	161	n/a	n/a	1	n/a	n/a	n/a	n/a	n/a
1516.668	n/a	WORD	758334	wordpools/wasnorm_wordpool_less_exclusions.txt	LTP205	ltpFR	3	7	-1	CAMEL	223	n/a	n/a	-1	1.0	1.0	1	upper	Verdana.ttf
1520.652	n/a	WORD	760326	wordpools/wasnorm_wordpool_less_exclusions.txt	LTP205	ltpFR	3	7	-1	EARRING	514	n/a	n/a	-1	1.0	1.0	1	upper	Verdana.ttf
1524.868	n/a	WORD	762434	wordpools/wasnorm_wordpool_less_exclusions.txt	LTP205	ltpFR	3	7	-1	WICK	1607	n/a	n/a	-1	1.0	1.0	1	upper	Verdana.ttf
1528.788	n/a	WORD	764394	wordpools/wasnorm_wordpool_less_exclusions.txt	LTP205	ltpFR	3	7	-1	SWITCH	1422	n/a	n/a	-1	1.0	1.0	1	upper	Verdana.ttf
1532.966	n/a	WORD	766483	wordpools/wasnorm_wordpool_less_exclusions.txt	LTP205	ltpFR	3	7	-1	PEACH	1031	n/a	n/a	-1	1.0	1.0	1	upper	Verdana.ttf
1536.896	n/a	WORD	768448	wordpools/wasnorm_wordpool_less_exclusions.txt	LTP205	ltpFR	3	7	-1	PERSON	1052	n/a	n/a	-1	1.0	1.0	1	upper	Verdana.ttf
1540.83	n/a	WORD	770415	wordpools/wasnorm_wordpool_less_exclusions.txt	LTP205	ltpFR	3	7	-1	FACE	547	n/a	n/a	-1	1.0	1.0	1	upper	Verdana.ttf
1544.716	n/a	WORD	772358	wordpools/wasnorm_wordpool_less_exclusions.txt	LTP205	ltpFR	3	7	-1	RASPBERRY	1168	n/a	n/a	-1	1.0	1.0	1	upper	Verdana.ttf
1548.894	n/a	WORD	774447	wordpools/wasnorm_wordpool_less_exclusions.txt	LTP205	ltpFR	3	7	-1	TOWER	1490	n/a	n/a	-1	1.0	1.0	1	upper	Verdana.ttf
1553.064	n/a	WORD	776532	wordpools/wasnorm_wordpool_less_exclusions.txt	LTP205	ltpFR	3	7	-1	CYLINDER	432	n/a	n/a	-1	1.0	1.0	1	upper	Verdana.ttf
1557.264	n/a	WORD	778632	wordpools/wasnorm_wordpool_less_exclusions.txt	LTP205	ltpFR	3	7	-1	SHRUB	1299	n/a	n/a	-1	1.0	1.0	1	upper	Verdana.ttf
1561.474	n/a	WORD	780737	wordpools/wasnorm_wordpool_less_exclusions.txt	LTP205	ltpFR	3	7	-1	SAP	1233	n/a	n/a	-1	1.0	1.0	1	upper	Verdana.ttf
1565.494	n/a	WORD	782747	wordpools/wasnorm_wordpool_less_exclusions.txt	LTP205	ltpFR	3	7	-1	NOTE	958	n/a	n/a	-1	1.0	1.0	1	upper	Verdana.ttf
1569.672	n/a	WORD	784836	wordpools/wasnorm_wordpool_less_exclusions.txt	LTP205	ltpFR	3	7	-1	WINDSHIELD	1612	n/a	n/a	-1	1.0	1.0	1	upper	Verdana.ttf
1573.52	n/a	WORD	786760	wordpools/wasnorm_wordpool_less_exclusions.txt	LTP205	ltpFR	3	7	-1	PARENT	1013	n/a	n/a	-1	1.0	1.0	1	upper	Verdana.ttf
1577.67	n/a	WORD	788835	wordpools/wasnorm_wordpool_less_exclusions.txt	LTP205	ltpFR	3	7	-1	VIOLA	1570	n/a	n/a	-1	1.0	1.0	1	upper	Verdana.ttf
1583.33	n/a	REC_START	791665	n/a	LTP205	ltpFR	3	7	n/a	n/a	n/a	n/a	n/a	n/a	n/a	n/a	n/a	n/a	n/a
1584.094	n/a	REC_WORD	792047	wordpools/wasnorm_wordpool_less_exclusions.txt	LTP205	ltpFR	3	7	-1	CAMEL	223	n/a	n/a	-1	n/a	n/a	n/a	n/a	n/a
1585.146	n/a	REC_WORD	792573	wordpools/wasnorm_wordpool_less_exclusions.txt	LTP205	ltpFR	3	7	-1	PERSON	1052	n/a	n/a	-1	n/a	n/a	n/a	n/a	n/a
1586.194	n/a	REC_WORD	793097	wordpools/wasnorm_wordpool_less_exclusions.txt	LTP205	ltpFR	3	7	-1	WICK	1607	n/a	n/a	-1	n/a	n/a	n/a	n/a	n/a
1587.136	n/a	REC_WORD	793568	wordpools/wasnorm_wordpool_less_exclusions.txt	LTP205	ltpFR	3	7	-1	FACE	547	n/a	n/a	-1	n/a	n/a	n/a	n/a	n/a
1588.14	n/a	REC_WORD	794070	wordpools/wasnorm_wordpool_less_exclusions.txt	LTP205	ltpFR	3	7	-1	VIOLA	1570	n/a	n/a	-1	n/a	n/a	n/a	n/a	n/a
1589.242	n/a	REC_WORD	794621	wordpools/wasnorm_wordpool_less_exclusions.txt	LTP205	ltpFR	3	7	-1	CYLINDER	432	n/a	n/a	-1	n/a	n/a	n/a	n/a	n/a
1595.624	n/a	REC_WORD	797812	wordpools/wasnorm_wordpool_less_exclusions.txt	LTP205	ltpFR	3	7	-1	WINDSHIELD	1612	n/a	n/a	-1	n/a	n/a	n/a	n/a	n/a
1598.606	n/a	REC_WORD	799303	wordpools/wasnorm_wordpool_less_exclusions.txt	LTP205	ltpFR	3	7	-1	CAMEL	223	n/a	n/a	-1	n/a	n/a	n/a	n/a	n/a
1602.548	n/a	REC_WORD	801274	wordpools/wasnorm_wordpool_less_exclusions.txt	LTP205	ltpFR	3	7	-1	SAP	1233	n/a	n/a	-1	n/a	n/a	n/a	n/a	n/a
1611.064	n/a	REC_WORD	805532	wordpools/wasnorm_wordpool_less_exclusions.txt	LTP205	ltpFR	3	7	1	FAMILY	550	n/a	n/a	1	n/a	n/a	n/a	n/a	n/a
1612.24	n/a	REC_WORD	806120	wordpools/wasnorm_wordpool_less_exclusions.txt	LTP205	ltpFR	3	7	-1	PARENT	1013	n/a	n/a	-1	n/a	n/a	n/a	n/a	n/a
1617.146	n/a	REC_WORD_VV	808573	wordpools/wasnorm_wordpool_less_exclusions.txt	LTP205	ltpFR	3	7	n/a	<>	-1	n/a	n/a	n/a	n/a	n/a	n/a	n/a	n/a
1618.146	n/a	REC_WORD_VV	809073	wordpools/wasnorm_wordpool_less_exclusions.txt	LTP205	ltpFR	3	7	n/a	<>	-1	n/a	n/a	n/a	n/a	n/a	n/a	n/a	n/a
1622.174	n/a	REC_WORD	811087	wordpools/wasnorm_wordpool_less_exclusions.txt	LTP205	ltpFR	3	7	-1	FACE	547	n/a	n/a	-1	n/a	n/a	n/a	n/a	n/a
1641.256	n/a	REC_WORD	820628	wordpools/wasnorm_wordpool_less_exclusions.txt	LTP205	ltpFR	3	7	-1	RASPBERRY	1168	n/a	n/a	-1	n/a	n/a	n/a	n/a	n/a
1654.418	n/a	REC_WORD_VV	827209	wordpools/wasnorm_wordpool_less_exclusions.txt	LTP205	ltpFR	3	7	n/a	<>	-1	n/a	n/a	n/a	n/a	n/a	n/a	n/a	n/a
1663.262	n/a	WORD	831631	wordpools/wasnorm_wordpool_less_exclusions.txt	LTP205	ltpFR	3	8	0	DONKEY	484	n/a	n/a	1	0.422607421875	0.5869140625	0	lower	zerothre.ttf
1667.412	n/a	WORD	833706	wordpools/wasnorm_wordpool_less_exclusions.txt	LTP205	ltpFR	3	8	0	SQUIRREL	1362	n/a	n/a	1	0.422607421875	0.5869140625	0	lower	zerothre.ttf
1671.512	n/a	WORD	835756	wordpools/wasnorm_wordpool_less_exclusions.txt	LTP205	ltpFR	3	8	0	WINGS	1614	n/a	n/a	1	0.422607421875	0.5869140625	0	lower	zerothre.ttf
1675.61	n/a	WORD	837805	wordpools/wasnorm_wordpool_less_exclusions.txt	LTP205	ltpFR	3	8	0	TROUSERS	1510	n/a	n/a	1	0.422607421875	0.5869140625	0	lower	zerothre.ttf
1679.648	n/a	WORD	839824	wordpools/wasnorm_wordpool_less_exclusions.txt	LTP205	ltpFR	3	8	0	RELATIVE	1182	n/a	n/a	1	0.422607421875	0.5869140625	0	lower	zerothre.ttf
1683.59	n/a	WORD	841795	wordpools/wasnorm_wordpool_less_exclusions.txt	LTP205	ltpFR	3	8	0	TWIG	1527	n/a	n/a	0	0.422607421875	0.5869140625	0	lower	zerothre.ttf
1687.494	n/a	WORD	843747	wordpools/wasnorm_wordpool_less_exclusions.txt	LTP205	ltpFR	3	8	0	COCKTAIL	338	n/a	n/a	1	0.422607421875	0.5869140625	0	lower	zerothre.ttf
1691.326	n/a	WORD	845663	wordpools/wasnorm_wordpool_less_exclusions.txt	LTP205	ltpFR	3	8	0	RUM	1217	n/a	n/a	1	0.422607421875	0.5869140625	0	lower	zerothre.ttf
1695.152	n/a	WORD	847576	wordpools/wasnorm_wordpool_less_exclusions.txt	LTP205	ltpFR	3	8	0	REGISTER	1180	n/a	n/a	0	0.422607421875	0.5869140625	0	lower	zerothre.ttf
1699.072	n/a	WORD	849536	wordpools/wasnorm_wordpool_less_exclusions.txt	LTP205	ltpFR	3	8	0	PIT	1077	n/a	n/a	1	0.422607421875	0.5869140625	0	lower	zerothre.ttf
1703.138	n/a	WORD	851569	wordpools/wasnorm_wordpool_less_exclusions.txt	LTP205	ltpFR	3	8	0	FARM	552	n/a	n/a	1	0.422607421875	0.5869140625	0	lower	zerothre.ttf
1706.98	n/a	WORD	853490	wordpools/wasnorm_wordpool_less_exclusions.txt	LTP205	ltpFR	3	8	0	ANTEATER	26	n/a	n/a	1	0.422607421875	0.5869140625	0	lower	zerothre.ttf
1711.096	n/a	WORD	855548	wordpools/wasnorm_wordpool_less_exclusions.txt	LTP205	ltpFR	3	8	0	PARROT	1015	n/a	n/a	1	0.422607421875	0.5869140625	0	lower	zerothre.ttf
1714.968	n/a	WORD	857484	wordpools/wasnorm_wordpool_less_exclusions.txt	LTP205	ltpFR	3	8	0	ELM	527	n/a	n/a	1	0.422607421875	0.5869140625	0	lower	zerothre.ttf
1718.932	n/a	WORD	859466	wordpools/wasnorm_wordpool_less_exclusions.txt	LTP205	ltpFR	3	8	0	PAVEMENT	1028	n/a	n/a	1	0.422607421875	0.5869140625	0	lower	zerothre.ttf
1722.948	n/a	WORD	861474	wordpools/wasnorm_wordpool_less_exclusions.txt	LTP205	ltpFR	3	8	0	WRIST	1626	n/a	n/a	1	0.422607421875	0.5869140625	0	lower	zerothre.ttf
1728.764	n/a	REC_START	864382	n/a	LTP205	ltpFR	3	8	n/a	n/a	n/a	n/a	n/a	n/a	n/a	n/a	n/a	n/a	n/a
1729.338	n/a	REC_WORD	864669	wordpools/wasnorm_wordpool_less_exclusions.txt	LTP205	ltpFR	3	8	0	DONKEY	484	n/a	n/a	1	n/a	n/a	n/a	n/a	n/a
1730.092	n/a	REC_WORD	865046	wordpools/wasnorm_wordpool_less_exclusions.txt	LTP205	ltpFR	3	8	0	SQUIRREL	1362	n/a	n/a	1	n/a	n/a	n/a	n/a	n/a
1731.532	n/a	REC_WORD	865766	wordpools/wasnorm_wordpool_less_exclusions.txt	LTP205	ltpFR	3	8	0	WRIST	1626	n/a	n/a	1	n/a	n/a	n/a	n/a	n/a
1732.894	n/a	REC_WORD	866447	wordpools/wasnorm_wordpool_less_exclusions.txt	LTP205	ltpFR	3	8	0	ELM	527	n/a	n/a	1	n/a	n/a	n/a	n/a	n/a
1746.23	n/a	REC_WORD	873115	wordpools/wasnorm_wordpool_less_exclusions.txt	LTP205	ltpFR	3	8	0	ANTEATER	26	n/a	n/a	1	n/a	n/a	n/a	n/a	n/a
1748.456	n/a	REC_WORD	874228	wordpools/wasnorm_wordpool_less_exclusions.txt	LTP205	ltpFR	3	8	-1	TOWER	1490	n/a	n/a	-1	n/a	n/a	n/a	n/a	n/a
1749.792	n/a	REC_WORD	874896	wordpools/wasnorm_wordpool_less_exclusions.txt	LTP205	ltpFR	3	8	0	PAVEMENT	1028	n/a	n/a	1	n/a	n/a	n/a	n/a	n/a
1751.08	n/a	REC_WORD	875540	wordpools/wasnorm_wordpool_less_exclusions.txt	LTP205	ltpFR	3	8	0	PIT	1077	n/a	n/a	1	n/a	n/a	n/a	n/a	n/a
1768.59	n/a	REC_WORD	884295	wordpools/wasnorm_wordpool_less_exclusions.txt	LTP205	ltpFR	3	8	0	PARROT	1015	n/a	n/a	1	n/a	n/a	n/a	n/a	n/a
1816.588	n/a	WORD	908294	wordpools/wasnorm_wordpool_less_exclusions.txt	LTP205	ltpFR	3	9	0	BOARD	143	n/a	n/a	0	0.422607421875	0.5869140625	0	lower	zerothre.ttf
1820.436	n/a	WORD	910218	wordpools/wasnorm_wordpool_less_exclusions.txt	LTP205	ltpFR	3	9	0	PUCK	1138	n/a	n/a	0	0.422607421875	0.5869140625	0	lower	zerothre.ttf
1824.35	n/a	WORD	912175	wordpools/wasnorm_wordpool_less_exclusions.txt	LTP205	ltpFR	3	9	0	CHEST	295	n/a	n/a	1	0.422607421875	0.5869140625	0	lower	zerothre.ttf
1828.478	n/a	WORD	914239	wordpools/wasnorm_wordpool_less_exclusions.txt	LTP205	ltpFR	3	9	0	TWEEZERS	1526	n/a	n/a	0	0.422607421875	0.5869140625	0	lower	zerothre.ttf
1832.516	n/a	WORD	916258	wordpools/wasnorm_wordpool_less_exclusions.txt	LTP205	ltpFR	3	9	0	PATIO	1025	n/a	n/a	1	0.422607421875	0.5869140625	0	lower	zerothre.ttf
1836.346	n/a	WORD	918173	wordpools/wasnorm_wordpool_less_exclusions.txt	LTP205	ltpFR	3	9	0	ARTICLE	42	n/a	n/a	0	0.422607421875	0.5869140625	0	lower	zerothre.ttf
1840.43	n/a	WORD	920215	wordpools/wasnorm_wordpool_less_exclusions.txt	LTP205	ltpFR	3	9	0	PAPER	1011	n/a	n/a	0	0.422607421875	0.5869140625	0	lower	zerothre.ttf
1844.528	n/a	WORD	922264	wordpools/wasnorm_wordpool_less_exclusions.txt	LTP205	ltpFR	3	9	0	SWAN	1417	n/a	n/a	1	0.422607421875	0.5869140625	0	lower	zerothre.ttf
1848.604	n/a	WORD	924302	wordpools/wasnorm_wordpool_less_exclusions.txt	LTP205	ltpFR	3	9	0	BELLY	119	n/a	n/a	1	0.422607421875	0.5869140625	0	lower	zerothre.ttf
1852.658	n/a	WORD	926329	wordpools/wasnorm_wordpool_less_exclusions.txt	LTP205	ltpFR	3	9	0	CONTRACTOR	369	n/a	n/a	1	0.422607421875	0.5869140625	0	lower	zerothre.ttf
1856.54	n/a	WORD	928270	wordpools/wasnorm_wordpool_less_exclusions.txt	LTP205	ltpFR	3	9	0	QUAIL	1147	n/a	n/a	1	0.422607421875	0.5869140625	0	lower	zerothre.ttf
1860.472	n/a	WORD	930236	wordpools/wasnorm_wordpool_less_exclusions.txt	LTP205	ltpFR	3	9	0	SHOULDER	1294	n/a	n/a	1	0.422607421875	0.5869140625	0	lower	zerothre.ttf
1864.682	n/a	WORD	932341	wordpools/wasnorm_wordpool_less_exclusions.txt	LTP205	ltpFR	3	9	0	DRAWER	493	n/a	n/a	1	0.422607421875	0.5869140625	0	lower	zerothre.ttf
1868.822	n/a	WORD	934411	wordpools/wasnorm_wordpool_less_exclusions.txt	LTP205	ltpFR	3	9	0	HAMPER	682	n/a	n/a	1	0.422607421875	0.5869140625	0	lower	zerothre.ttf
1872.702	n/a	WORD	936351	wordpools/wasnorm_wordpool_less_exclusions.txt	LTP205	ltpFR	3	9	0	DOLL	481	n/a	n/a	1	0.422607421875	0.5869140625	0	lower	zerothre.ttf
1876.886	n/a	WORD	938443	wordpools/wasnorm_wordpool_less_exclusions.txt	LTP205	ltpFR	3	9	0	CORPORATION	382	n/a	n/a	1	0.422607421875	0.5869140625	0	lower	zerothre.ttf
1882.59	n/a	REC_START	941295	n/a	LTP205	ltpFR	3	9	n/a	n/a	n/a	n/a	n/a	n/a	n/a	n/a	n/a	n/a	n/a
1883.554	n/a	REC_WORD	941777	wordpools/wasnorm_wordpool_less_exclusions.txt	LTP205	ltpFR	3	9	0	BOARD	143	n/a	n/a	0	n/a	n/a	n/a	n/a	n/a
1884.452	n/a	REC_WORD	942226	wordpools/wasnorm_wordpool_less_exclusions.txt	LTP205	ltpFR	3	9	0	PUCK	1138	n/a	n/a	0	n/a	n/a	n/a	n/a	n/a
1885.374	n/a	REC_WORD	942687	wordpools/wasnorm_wordpool_less_exclusions.txt	LTP205	ltpFR	3	9	0	QUAIL	1147	n/a	n/a	1	n/a	n/a	n/a	n/a	n/a
1887.134	n/a	REC_WORD	943567	wordpools/wasnorm_wordpool_less_exclusions.txt	LTP205	ltpFR	3	9	0	TWEEZERS	1526	n/a	n/a	0	n/a	n/a	n/a	n/a	n/a
1888.842	n/a	REC_WORD	944421	wordpools/wasnorm_wordpool_less_exclusions.txt	LTP205	ltpFR	3	9	0	CONTRACTOR	369	n/a	n/a	1	n/a	n/a	n/a	n/a	n/a
1891.026	n/a	REC_WORD_VV	945513	wordpools/wasnorm_wordpool_less_exclusions.txt	LTP205	ltpFR	3	9	n/a	<>	-1	n/a	n/a	n/a	n/a	n/a	n/a	n/a	n/a
1895.622	n/a	REC_WORD	947811	wordpools/wasnorm_wordpool_less_exclusions.txt	LTP205	ltpFR	3	9	0	QUAIL	1147	n/a	n/a	1	n/a	n/a	n/a	n/a	n/a
1899.818	n/a	REC_WORD	949909	wordpools/wasnorm_wordpool_less_exclusions.txt	LTP205	ltpFR	3	9	n/a	DOCK	477	n/a	n/a	n/a	n/a	n/a	n/a	n/a	n/a
1910.822	n/a	REC_WORD	955411	wordpools/wasnorm_wordpool_less_exclusions.txt	LTP205	ltpFR	3	9	0	TROUSERS	1510	n/a	n/a	1	n/a	n/a	n/a	n/a	n/a
1916.874	n/a	REC_WORD	958437	wordpools/wasnorm_wordpool_less_exclusions.txt	LTP205	ltpFR	3	9	0	CHEST	295	n/a	n/a	1	n/a	n/a	n/a	n/a	n/a
1917.946	n/a	REC_WORD	958973	wordpools/wasnorm_wordpool_less_exclusions.txt	LTP205	ltpFR	3	9	0	BELLY	119	n/a	n/a	1	n/a	n/a	n/a	n/a	n/a
1920.126	n/a	REC_WORD	960063	wordpools/wasnorm_wordpool_less_exclusions.txt	LTP205	ltpFR	3	9	0	SHOULDER	1294	n/a	n/a	1	n/a	n/a	n/a	n/a	n/a
1927.166	n/a	REC_WORD	963583	wordpools/wasnorm_wordpool_less_exclusions.txt	LTP205	ltpFR	3	9	0	PIT	1077	n/a	n/a	1	n/a	n/a	n/a	n/a	n/a
1946.782	n/a	REC_WORD	973391	wordpools/wasnorm_wordpool_less_exclusions.txt	LTP205	ltpFR	3	9	0	PUCK	1138	n/a	n/a	0	n/a	n/a	n/a	n/a	n/a
1953.728	n/a	REC_WORD	976864	wordpools/wasnorm_wordpool_less_exclusions.txt	LTP205	ltpFR	3	9	1	TOENAIL	1474	n/a	n/a	1	n/a	n/a	n/a	n/a	n/a
1973.516	n/a	WORD	986758	wordpools/wasnorm_wordpool_less_exclusions.txt	LTP205	ltpFR	3	10	1	TREAT	1501	n/a	n/a	0	0.57763671875	0.412841796875	1	upper	amplitud.ttf
1977.686	n/a	WORD	988843	wordpools/wasnorm_wordpool_less_exclusions.txt	LTP205	ltpFR	3	10	1	BULLY	196	n/a	n/a	1	0.57763671875	0.412841796875	1	upper	amplitud.ttf
1981.904	n/a	WORD	990952	wordpools/wasnorm_wordpool_less_exclusions.txt	LTP205	ltpFR	3	10	1	COLESLAW	344	n/a	n/a	0	0.57763671875	0.412841796875	1	upper	amplitud.ttf
1986.098	n/a	WORD	993049	wordpools/wasnorm_wordpool_less_exclusions.txt	LTP205	ltpFR	3	10	0	CHICKEN	297	n/a	n/a	1	0.422607421875	0.5869140625	0	lower	zerothre.ttf
1990.086	n/a	WORD	995043	wordpools/wasnorm_wordpool_less_exclusions.txt	LTP205	ltpFR	3	10	0	PARSLEY	1016	n/a	n/a	0	0.422607421875	0.5869140625	0	lower	zerothre.ttf
1994.284	n/a	WORD	997142	wordpools/wasnorm_wordpool_less_exclusions.txt	LTP205	ltpFR	3	10	0	LOAF	835	n/a	n/a	0	0.422607421875	0.5869140625	0	lower	zerothre.ttf
1998.394	n/a	WORD	999197	wordpools/wasnorm_wordpool_less_exclusions.txt	LTP205	ltpFR	3	10	0	MUSHROOM	934	n/a	n/a	0	0.422607421875	0.5869140625	0	lower	zerothre.ttf
2002.38	n/a	WORD	1001190	wordpools/wasnorm_wordpool_less_exclusions.txt	LTP205	ltpFR	3	10	0	JUDGE	761	n/a	n/a	1	0.422607421875	0.5869140625	0	lower	zerothre.ttf
2006.424	n/a	WORD	1003212	wordpools/wasnorm_wordpool_less_exclusions.txt	LTP205	ltpFR	3	10	0	SAW	1239	n/a	n/a	1	0.422607421875	0.5869140625	0	lower	zerothre.ttf
2010.48	n/a	WORD	1005240	wordpools/wasnorm_wordpool_less_exclusions.txt	LTP205	ltpFR	3	10	1	DOUGH	489	n/a	n/a	0	0.57763671875	0.412841796875	1	upper	amplitud.ttf
2014.31	n/a	WORD	1007155	wordpools/wasnorm_wordpool_less_exclusions.txt	LTP205	ltpFR	3	10	1	UMPIRE	1535	n/a	n/a	1	0.57763671875	0.412841796875	1	upper	amplitud.ttf
2018.476	n/a	WORD	1009238	wordpools/wasnorm_wordpool_less_exclusions.txt	LTP205	ltpFR	3	10	0	BEAR	106	n/a	n/a	1	0.422607421875	0.5869140625	0	lower	zerothre.ttf
2022.592	n/a	WORD	1011296	wordpools/wasnorm_wordpool_less_exclusions.txt	LTP205	ltpFR	3	10	0	DILL	465	n/a	n/a	0	0.422607421875	0.5869140625	0	lower	zerothre.ttf
2026.422	n/a	WORD	1013211	wordpools/wasnorm_wordpool_less_exclusions.txt	LTP205	ltpFR	3	10	1	CREW	406	n/a	n/a	1	0.57763671875	0.412841796875	1	upper	amplitud.ttf
2030.316	n/a	WORD	1015158	wordpools/wasnorm_wordpool_less_exclusions.txt	LTP205	ltpFR	3	10	1	CANOE	233	n/a	n/a	1	0.57763671875	0.412841796875	1	upper	amplitud.ttf
2034.254	n/a	WORD	1017127	wordpools/wasnorm_wordpool_less_exclusions.txt	LTP205	ltpFR	3	10	1	BOXER	160	n/a	n/a	1	0.57763671875	0.412841796875	1	upper	amplitud.ttf
2040.204	n/a	REC_START	1020102	n/a	LTP205	ltpFR	3	10	n/a	n/a	n/a	n/a	n/a	n/a	n/a	n/a	n/a	n/a	n/a
2040.798	n/a	REC_WORD	1020399	wordpools/wasnorm_wordpool_less_exclusions.txt	LTP205	ltpFR	3	10	1	TREAT	1501	n/a	n/a	0	n/a	n/a	n/a	n/a	n/a
2041.73	n/a	REC_WORD	1020865	wordpools/wasnorm_wordpool_less_exclusions.txt	LTP205	ltpFR	3	10	1	BULLY	196	n/a	n/a	1	n/a	n/a	n/a	n/a	n/a
2042.894	n/a	REC_WORD	1021447	wordpools/wasnorm_wordpool_less_exclusions.txt	LTP205	ltpFR	3	10	1	COLESLAW	344	n/a	n/a	0	n/a	n/a	n/a	n/a	n/a
2044.29	n/a	REC_WORD	1022145	wordpools/wasnorm_wordpool_less_exclusions.txt	LTP205	ltpFR	3	10	0	BEAR	106	n/a	n/a	1	n/a	n/a	n/a	n/a	n/a
2045.488	n/a	REC_WORD	1022744	wordpools/wasnorm_wordpool_less_exclusions.txt	LTP205	ltpFR	3	10	1	UMPIRE	1535	n/a	n/a	1	n/a	n/a	n/a	n/a	n/a
2049.658	n/a	REC_WORD	1024829	wordpools/wasnorm_wordpool_less_exclusions.txt	LTP205	ltpFR	3	10	0	DILL	465	n/a	n/a	0	n/a	n/a	n/a	n/a	n/a
2050.816	n/a	REC_WORD	1025408	wordpools/wasnorm_wordpool_less_exclusions.txt	LTP205	ltpFR	3	10	0	PARSLEY	1016	n/a	n/a	0	n/a	n/a	n/a	n/a	n/a
2063.154	n/a	REC_WORD	1031577	wordpools/wasnorm_wordpool_less_exclusions.txt	LTP205	ltpFR	3	10	1	COLESLAW	344	n/a	n/a	0	n/a	n/a	n/a	n/a	n/a
2067.978	n/a	REC_WORD	1033989	wordpools/wasnorm_wordpool_less_exclusions.txt	LTP205	ltpFR	3	10	1	CANOE	233	n/a	n/a	1	n/a	n/a	n/a	n/a	n/a
2069.056	n/a	REC_WORD	1034528	wordpools/wasnorm_wordpool_less_exclusions.txt	LTP205	ltpFR	3	10	1	CREW	406	n/a	n/a	1	n/a	n/a	n/a	n/a	n/a
2077.436	n/a	REC_WORD	1038718	wordpools/wasnorm_wordpool_less_exclusions.txt	LTP205	ltpFR	3	10	0	CORPORATION	382	n/a	n/a	1	n/a	n/a	n/a	n/a	n/a
2078.436	n/a	REC_WORD_VV	1039218	wordpools/wasnorm_wordpool_less_exclusions.txt	LTP205	ltpFR	3	10	n/a	<>	-1	n/a	n/a	n/a	n/a	n/a	n/a	n/a	n/a
2085.45	n/a	REC_WORD	1042725	wordpools/wasnorm_wordpool_less_exclusions.txt	LTP205	ltpFR	3	10	0	BEAR	106	n/a	n/a	1	n/a	n/a	n/a	n/a	n/a
2121.614	n/a	WORD	1060807	wordpools/wasnorm_wordpool_less_exclusions.txt	LTP205	ltpFR	3	11	-1	ROOT	1210	n/a	n/a	-1	1.0	1.0	1	upper	Verdana.ttf
2125.752	n/a	WORD	1062876	wordpools/wasnorm_wordpool_less_exclusions.txt	LTP205	ltpFR	3	11	-1	HOME	712	n/a	n/a	-1	1.0	1.0	1	upper	Verdana.ttf
2129.914	n/a	WORD	1064957	wordpools/wasnorm_wordpool_less_exclusions.txt	LTP205	ltpFR	3	11	-1	MAT	877	n/a	n/a	-1	1.0	1.0	1	upper	Verdana.ttf
2133.952	n/a	WORD	1066976	wordpools/wasnorm_wordpool_less_exclusions.txt	LTP205	ltpFR	3	11	-1	MONASTERY	907	n/a	n/a	-1	1.0	1.0	1	upper	Verdana.ttf
2137.966	n/a	WORD	1068983	wordpools/wasnorm_wordpool_less_exclusions.txt	LTP205	ltpFR	3	11	-1	BANKER	84	n/a	n/a	-1	1.0	1.0	1	upper	Verdana.ttf
2142.116	n/a	WORD	1071058	wordpools/wasnorm_wordpool_less_exclusions.txt	LTP205	ltpFR	3	11	-1	BARLEY	88	n/a	n/a	-1	1.0	1.0	1	upper	Verdana.ttf
2146.232	n/a	WORD	1073116	wordpools/wasnorm_wordpool_less_exclusions.txt	LTP205	ltpFR	3	11	-1	LEAF	808	n/a	n/a	-1	1.0	1.0	1	upper	Verdana.ttf
2150.28	n/a	WORD	1075140	wordpools/wasnorm_wordpool_less_exclusions.txt	LTP205	ltpFR	3	11	-1	SHACK	1273	n/a	n/a	-1	1.0	1.0	1	upper	Verdana.ttf
2154.162	n/a	WORD	1077081	wordpools/wasnorm_wordpool_less_exclusions.txt	LTP205	ltpFR	3	11	-1	BALCONY	72	n/a	n/a	-1	1.0	1.0	1	upper	Verdana.ttf
2158.194	n/a	WORD	1079097	wordpools/wasnorm_wordpool_less_exclusions.txt	LTP205	ltpFR	3	11	-1	MATTRESS	879	n/a	n/a	-1	1.0	1.0	1	upper	Verdana.ttf
2162.188	n/a	WORD	1081094	wordpools/wasnorm_wordpool_less_exclusions.txt	LTP205	ltpFR	3	11	-1	STREAM	1392	n/a	n/a	-1	1.0	1.0	1	upper	Verdana.ttf
2166.336	n/a	WORD	1083168	wordpools/wasnorm_wordpool_less_exclusions.txt	LTP205	ltpFR	3	11	-1	TUB	1514	n/a	n/a	-1	1.0	1.0	1	upper	Verdana.ttf
2170.29	n/a	WORD	1085145	wordpools/wasnorm_wordpool_less_exclusions.txt	LTP205	ltpFR	3	11	-1	GRAVEL	659	n/a	n/a	-1	1.0	1.0	1	upper	Verdana.ttf
2174.516	n/a	WORD	1087258	wordpools/wasnorm_wordpool_less_exclusions.txt	LTP205	ltpFR	3	11	-1	HAMMOCK	681	n/a	n/a	-1	1.0	1.0	1	upper	Verdana.ttf
2178.722	n/a	WORD	1089361	wordpools/wasnorm_wordpool_less_exclusions.txt	LTP205	ltpFR	3	11	-1	PILLOW	1069	n/a	n/a	-1	1.0	1.0	1	upper	Verdana.ttf
2182.554	n/a	WORD	1091277	wordpools/wasnorm_wordpool_less_exclusions.txt	LTP205	ltpFR	3	11	-1	STREET	1393	n/a	n/a	-1	1.0	1.0	1	upper	Verdana.ttf
2188.376	n/a	REC_START	1094188	n/a	LTP205	ltpFR	3	11	n/a	n/a	n/a	n/a	n/a	n/a	n/a	n/a	n/a	n/a	n/a
2189.882	n/a	REC_WORD	1094941	wordpools/wasnorm_wordpool_less_exclusions.txt	LTP205	ltpFR	3	11	-1	ROOT	1210	n/a	n/a	-1	n/a	n/a	n/a	n/a	n/a
2190.82	n/a	REC_WORD	1095410	wordpools/wasnorm_wordpool_less_exclusions.txt	LTP205	ltpFR	3	11	-1	HOME	712	n/a	n/a	-1	n/a	n/a	n/a	n/a	n/a
2191.872	n/a	REC_WORD	1095936	wordpools/wasnorm_wordpool_less_exclusions.txt	LTP205	ltpFR	3	11	-1	MONASTERY	907	n/a	n/a	-1	n/a	n/a	n/a	n/a	n/a
2193.074	n/a	REC_WORD	1096537	wordpools/wasnorm_wordpool_less_exclusions.txt	LTP205	ltpFR	3	11	1	TREAT	1501	n/a	n/a	0	n/a	n/a	n/a	n/a	n/a
2195.828	n/a	REC_WORD_VV	1097914	wordpools/wasnorm_wordpool_less_exclusions.txt	LTP205	ltpFR	3	11	n/a	<>	-1	n/a	n/a	n/a	n/a	n/a	n/a	n/a	n/a
2201.526	n/a	REC_WORD	1100763	wordpools/wasnorm_wordpool_less_exclusions.txt	LTP205	ltpFR	3	11	-1	GRAVEL	659	n/a	n/a	-1	n/a	n/a	n/a	n/a	n/a
2208.576	n/a	REC_WORD	1104288	wordpools/wasnorm_wordpool_less_exclusions.txt	LTP205	ltpFR	3	11	n/a	BED	110	n/a	n/a	n/a	n/a	n/a	n/a	n/a	n/a
2209.574	n/a	REC_WORD	1104787	wordpools/wasnorm_wordpool_less_exclusions.txt	LTP205	ltpFR	3	11	-1	PILLOW	1069	n/a	n/a	-1	n/a	n/a	n/a	n/a	n/a
2238.49	n/a	REC_WORD	1119245	wordpools/wasnorm_wordpool_less_exclusions.txt	LTP205	ltpFR	3	11	1	CANOE	233	n/a	n/a	1	n/a	n/a	n/a	n/a	n/a
2248.402	n/a	REC_WORD	1124201	wordpools/wasnorm_wordpool_less_exclusions.txt	LTP205	ltpFR	3	11	0	STRANGER	1389	n/a	n/a	1	n/a	n/a	n/a	n/a	n/a
2286.97	n/a	WORD	1143485	wordpools/wasnorm_wordpool_less_exclusions.txt	LTP205	ltpFR	3	12	1	THIGH	1457	n/a	n/a	1	0.57763671875	0.412841796875	1	upper	amplitud.ttf
2290.868	n/a	WORD	1145434	wordpools/wasnorm_wordpool_less_exclusions.txt	LTP205	ltpFR	3	12	1	BUTLER	204	n/a	n/a	1	0.57763671875	0.412841796875	1	upper	amplitud.ttf
2294.732	n/a	WORD	1147366	wordpools/wasnorm_wordpool_less_exclusions.txt	LTP205	ltpFR	3	12	1	SEA	1259	n/a	n/a	1	0.57763671875	0.412841796875	1	upper	amplitud.ttf
2298.63	n/a	WORD	1149315	wordpools/wasnorm_wordpool_less_exclusions.txt	LTP205	ltpFR	3	12	1	STEM	1376	n/a	n/a	0	0.57763671875	0.412841796875	1	upper	amplitud.ttf
2302.796	n/a	WORD	1151398	wordpools/wasnorm_wordpool_less_exclusions.txt	LTP205	ltpFR	3	12	1	CUPBOARD	425	n/a	n/a	0	0.57763671875	0.412841796875	1	upper	amplitud.ttf
2306.672	n/a	WORD	1153336	wordpools/wasnorm_wordpool_less_exclusions.txt	LTP205	ltpFR	3	12	1	FOOT	590	n/a	n/a	1	0.57763671875	0.412841796875	1	upper	amplitud.ttf
2310.872	n/a	WORD	1155436	wordpools/wasnorm_wordpool_less_exclusions.txt	LTP205	ltpFR	3	12	1	CONTINENT	367	n/a	n/a	0	0.57763671875	0.412841796875	1	upper	amplitud.ttf
2314.736	n/a	WORD	1157368	wordpools/wasnorm_wordpool_less_exclusions.txt	LTP205	ltpFR	3	12	1	SINK	1309	n/a	n/a	0	0.57763671875	0.412841796875	1	upper	amplitud.ttf
2318.706	n/a	WORD	1159353	wordpools/wasnorm_wordpool_less_exclusions.txt	LTP205	ltpFR	3	12	1	KITCHEN	778	n/a	n/a	0	0.57763671875	0.412841796875	1	upper	amplitud.ttf
2322.874	n/a	WORD	1161437	wordpools/wasnorm_wordpool_less_exclusions.txt	LTP205	ltpFR	3	12	1	ASIA	46	n/a	n/a	1	0.57763671875	0.412841796875	1	upper	amplitud.ttf
2326.782	n/a	WORD	1163391	wordpools/wasnorm_wordpool_less_exclusions.txt	LTP205	ltpFR	3	12	1	BRACES	164	n/a	n/a	0	0.57763671875	0.412841796875	1	upper	amplitud.ttf
2330.832	n/a	WORD	1165416	wordpools/wasnorm_wordpool_less_exclusions.txt	LTP205	ltpFR	3	12	1	TOOTHPASTE	1483	n/a	n/a	0	0.57763671875	0.412841796875	1	upper	amplitud.ttf
2334.702	n/a	WORD	1167351	wordpools/wasnorm_wordpool_less_exclusions.txt	LTP205	ltpFR	3	12	1	FLY	586	n/a	n/a	1	0.57763671875	0.412841796875	1	upper	amplitud.ttf
2338.65	n/a	WORD	1169325	wordpools/wasnorm_wordpool_less_exclusions.txt	LTP205	ltpFR	3	12	1	BUTTERFLY	206	n/a	n/a	1	0.57763671875	0.412841796875	1	upper	amplitud.ttf
2342.48	n/a	WORD	1171240	wordpools/wasnorm_wordpool_less_exclusions.txt	LTP205	ltpFR	3	12	1	GIFT	635	n/a	n/a	0	0.57763671875	0.412841796875	1	upper	amplitud.ttf
2346.456	n/a	WORD	1173228	wordpools/wasnorm_wordpool_less_exclusions.txt	LTP205	ltpFR	3	12	1	ELF	525	n/a	n/a	1	0.57763671875	0.412841796875	1	upper	amplitud.ttf
2352.204	n/a	REC_START	1176102	n/a	LTP205	ltpFR	3	12	n/a	n/a	n/a	n/a	n/a	n/a	n/a	n/a	n/a	n/a	n/a
2353.012	n/a	REC_WORD	1176506	wordpools/wasnorm_wordpool_less_exclusions.txt	LTP205	ltpFR	3	12	1	THIGH	1457	n/a	n/a	1	n/a	n/a	n/a	n/a	n/a
2354.288	n/a	REC_WORD	1177144	wordpools/wasnorm_wordpool_less_exclusions.txt	LTP205	ltpFR	3	12	1	BUTLER	204	n/a	n/a	1	n/a	n/a	n/a	n/a	n/a
2355.506	n/a	REC_WORD	1177753	wordpools/wasnorm_wordpool_less_exclusions.txt	LTP205	ltpFR	3	12	1	ELF	525	n/a	n/a	1	n/a	n/a	n/a	n/a	n/a
2356.728	n/a	REC_WORD	1178364	wordpools/wasnorm_wordpool_less_exclusions.txt	LTP205	ltpFR	3	12	1	BUTTERFLY	206	n/a	n/a	1	n/a	n/a	n/a	n/a	n/a
2366.202	n/a	REC_WORD	1183101	wordpools/wasnorm_wordpool_less_exclusions.txt	LTP205	ltpFR	3	12	1	TOOTHPASTE	1483	n/a	n/a	0	n/a	n/a	n/a	n/a	n/a
2371.85	n/a	REC_WORD	1185925	wordpools/wasnorm_wordpool_less_exclusions.txt	LTP205	ltpFR	3	12	1	FOOT	590	n/a	n/a	1	n/a	n/a	n/a	n/a	n/a
2377.712	n/a	REC_WORD	1188856	wordpools/wasnorm_wordpool_less_exclusions.txt	LTP205	ltpFR	3	12	n/a	ANKLE	24	n/a	n/a	n/a	n/a	n/a	n/a	n/a	n/a
2386.248	n/a	REC_WORD	1193124	wordpools/wasnorm_wordpool_less_exclusions.txt	LTP205	ltpFR	3	12	1	ELF	525	n/a	n/a	1	n/a	n/a	n/a	n/a	n/a
2393.332	n/a	REC_WORD	1196666	wordpools/wasnorm_wordpool_less_exclusions.txt	LTP205	ltpFR	3	12	1	CONTINENT	367	n/a	n/a	0	n/a	n/a	n/a	n/a	n/a
2394.106	n/a	REC_WORD	1197053	wordpools/wasnorm_wordpool_less_exclusions.txt	LTP205	ltpFR	3	12	1	ASIA	46	n/a	n/a	1	n/a	n/a	n/a	n/a	n/a
2401.01	n/a	REC_WORD	1200505	wordpools/wasnorm_wordpool_less_exclusions.txt	LTP205	ltpFR	3	12	1	SEA	1259	n/a	n/a	1	n/a	n/a	n/a	n/a	n/a
2423.93	n/a	REC_WORD	1211965	wordpools/wasnorm_wordpool_less_exclusions.txt	LTP205	ltpFR	3	12	1	BRACES	164	n/a	n/a	0	n/a	n/a	n/a	n/a	n/a
2426.624	n/a	REC_WORD	1213312	wordpools/wasnorm_wordpool_less_exclusions.txt	LTP205	ltpFR	3	12	0	PIT	1077	n/a	n/a	1	n/a	n/a	n/a	n/a	n/a
2427.852	n/a	REST_REWET	1213926	n/a	LTP205	ltpFR	3	12	n/a	n/a	n/a	n/a	n/a	n/a	n/a	n/a	n/a	n/a	n/a
2785.658	n/a	WORD	1392829	wordpools/wasnorm_wordpool_less_exclusions.txt	LTP205	ltpFR	3	13	0	MARKET	871	n/a	n/a	1	0.422607421875	0.5869140625	0	lower	zerothre.ttf
2789.59	n/a	WORD	1394795	wordpools/wasnorm_wordpool_less_exclusions.txt	LTP205	ltpFR	3	13	0	ANGEL	22	n/a	n/a	1	0.422607421875	0.5869140625	0	lower	zerothre.ttf
2793.516	n/a	WORD	1396758	wordpools/wasnorm_wordpool_less_exclusions.txt	LTP205	ltpFR	3	13	0	CARDINAL	244	n/a	n/a	1	0.422607421875	0.5869140625	0	lower	zerothre.ttf
2797.72	n/a	WORD	1398860	wordpools/wasnorm_wordpool_less_exclusions.txt	LTP205	ltpFR	3	13	0	PATH	1023	n/a	n/a	1	0.422607421875	0.5869140625	0	lower	zerothre.ttf
2801.77	n/a	WORD	1400885	wordpools/wasnorm_wordpool_less_exclusions.txt	LTP205	ltpFR	3	13	0	FORT	595	n/a	n/a	1	0.422607421875	0.5869140625	0	lower	zerothre.ttf
2805.678	n/a	WORD	1402839	wordpools/wasnorm_wordpool_less_exclusions.txt	LTP205	ltpFR	3	13	1	COWBOY	395	n/a	n/a	1	0.57763671875	0.412841796875	1	upper	amplitud.ttf
2809.616	n/a	WORD	1404808	wordpools/wasnorm_wordpool_less_exclusions.txt	LTP205	ltpFR	3	13	1	WAGON	1578	n/a	n/a	0	0.57763671875	0.412841796875	1	upper	amplitud.ttf
2813.446	n/a	WORD	1406723	wordpools/wasnorm_wordpool_less_exclusions.txt	LTP205	ltpFR	3	13	1	BRAKE	166	n/a	n/a	0	0.57763671875	0.412841796875	1	upper	amplitud.ttf
2817.58	n/a	WORD	1408790	wordpools/wasnorm_wordpool_less_exclusions.txt	LTP205	ltpFR	3	13	1	NOMAD	955	n/a	n/a	1	0.57763671875	0.412841796875	1	upper	amplitud.ttf
2821.646	n/a	WORD	1410823	wordpools/wasnorm_wordpool_less_exclusions.txt	LTP205	ltpFR	3	13	0	BIBLE	124	n/a	n/a	1	0.422607421875	0.5869140625	0	lower	zerothre.ttf
2825.588	n/a	WORD	1412794	wordpools/wasnorm_wordpool_less_exclusions.txt	LTP205	ltpFR	3	13	0	LITERATURE	831	n/a	n/a	1	0.422607421875	0.5869140625	0	lower	zerothre.ttf
2829.474	n/a	WORD	1414737	wordpools/wasnorm_wordpool_less_exclusions.txt	LTP205	ltpFR	3	13	0	TRIBE	1505	n/a	n/a	1	0.422607421875	0.5869140625	0	lower	zerothre.ttf
2833.44	n/a	WORD	1416720	wordpools/wasnorm_wordpool_less_exclusions.txt	LTP205	ltpFR	3	13	1	PLUM	1090	n/a	n/a	0	0.57763671875	0.412841796875	1	upper	amplitud.ttf
2837.624	n/a	WORD	1418812	wordpools/wasnorm_wordpool_less_exclusions.txt	LTP205	ltpFR	3	13	1	BLUEBERRY	140	n/a	n/a	0	0.57763671875	0.412841796875	1	upper	amplitud.ttf
2841.472	n/a	WORD	1420736	wordpools/wasnorm_wordpool_less_exclusions.txt	LTP205	ltpFR	3	13	1	PLAZA	1088	n/a	n/a	0	0.57763671875	0.412841796875	1	upper	amplitud.ttf
2845.414	n/a	WORD	1422707	wordpools/wasnorm_wordpool_less_exclusions.txt	LTP205	ltpFR	3	13	1	LADY	794	n/a	n/a	1	0.57763671875	0.412841796875	1	upper	amplitud.ttf
2851.204	n/a	REC_START	1425602	n/a	LTP205	ltpFR	3	13	n/a	n/a	n/a	n/a	n/a	n/a	n/a	n/a	n/a	n/a	n/a
2851.986	n/a	REC_WORD	1425993	wordpools/wasnorm_wordpool_less_exclusions.txt	LTP205	ltpFR	3	13	0	MARKET	871	n/a	n/a	1	n/a	n/a	n/a	n/a	n/a
2853.084	n/a	REC_WORD	1426542	wordpools/wasnorm_wordpool_less_exclusions.txt	LTP205	ltpFR	3	13	0	ANGEL	22	n/a	n/a	1	n/a	n/a	n/a	n/a	n/a
2854.056	n/a	REC_WORD	1427028	wordpools/wasnorm_wordpool_less_exclusions.txt	LTP205	ltpFR	3	13	0	CARDINAL	244	n/a	n/a	1	n/a	n/a	n/a	n/a	n/a
2855.176	n/a	REC_WORD	1427588	wordpools/wasnorm_wordpool_less_exclusions.txt	LTP205	ltpFR	3	13	0	PATH	1023	n/a	n/a	1	n/a	n/a	n/a	n/a	n/a
2856.626	n/a	REC_WORD	1428313	wordpools/wasnorm_wordpool_less_exclusions.txt	LTP205	ltpFR	3	13	1	BLUEBERRY	140	n/a	n/a	0	n/a	n/a	n/a	n/a	n/a
2857.664	n/a	REC_WORD	1428832	wordpools/wasnorm_wordpool_less_exclusions.txt	LTP205	ltpFR	3	13	1	PLUM	1090	n/a	n/a	0	n/a	n/a	n/a	n/a	n/a
2865.622	n/a	REC_WORD	1432811	wordpools/wasnorm_wordpool_less_exclusions.txt	LTP205	ltpFR	3	13	1	COWBOY	395	n/a	n/a	1	n/a	n/a	n/a	n/a	n/a
2866.744	n/a	REC_WORD	1433372	wordpools/wasnorm_wordpool_less_exclusions.txt	LTP205	ltpFR	3	13	0	TRIBE	1505	n/a	n/a	1	n/a	n/a	n/a	n/a	n/a
2878.464	n/a	REC_WORD	1439232	wordpools/wasnorm_wordpool_less_exclusions.txt	LTP205	ltpFR	3	13	n/a	SUPERMARKET	1409	n/a	n/a	n/a	n/a	n/a	n/a	n/a	n/a
2883.098	n/a	REC_WORD	1441549	wordpools/wasnorm_wordpool_less_exclusions.txt	LTP205	ltpFR	3	13	0	FORT	595	n/a	n/a	1	n/a	n/a	n/a	n/a	n/a
2904.42	n/a	REC_WORD_VV	1452210	wordpools/wasnorm_wordpool_less_exclusions.txt	LTP205	ltpFR	3	13	n/a	<>	-1	n/a	n/a	n/a	n/a	n/a	n/a	n/a	n/a
2906.38	n/a	REC_WORD	1453190	wordpools/wasnorm_wordpool_less_exclusions.txt	LTP205	ltpFR	3	13	1	PLUM	1090	n/a	n/a	0	n/a	n/a	n/a	n/a	n/a
2939.562	n/a	WORD	1469781	wordpools/wasnorm_wordpool_less_exclusions.txt	LTP205	ltpFR	3	14	-1	SNEAKER	1334	n/a	n/a	-1	1.0	1.0	1	upper	Verdana.ttf
2943.488	n/a	WORD	1471744	wordpools/wasnorm_wordpool_less_exclusions.txt	LTP205	ltpFR	3	14	-1	WALRUS	1585	n/a	n/a	-1	1.0	1.0	1	upper	Verdana.ttf
2947.426	n/a	WORD	1473713	wordpools/wasnorm_wordpool_less_exclusions.txt	LTP205	ltpFR	3	14	-1	TAPIOCA	1434	n/a	n/a	-1	1.0	1.0	1	upper	Verdana.ttf
2951.492	n/a	WORD	1475746	wordpools/wasnorm_wordpool_less_exclusions.txt	LTP205	ltpFR	3	14	-1	TYPEWRITER	1531	n/a	n/a	-1	1.0	1.0	1	upper	Verdana.ttf
2955.668	n/a	WORD	1477834	wordpools/wasnorm_wordpool_less_exclusions.txt	LTP205	ltpFR	3	14	-1	FRAME	600	n/a	n/a	-1	1.0	1.0	1	upper	Verdana.ttf
2959.556	n/a	WORD	1479778	wordpools/wasnorm_wordpool_less_exclusions.txt	LTP205	ltpFR	3	14	-1	SHARK	1275	n/a	n/a	-1	1.0	1.0	1	upper	Verdana.ttf
2963.554	n/a	WORD	1481777	wordpools/wasnorm_wordpool_less_exclusions.txt	LTP205	ltpFR	3	14	-1	NAPKIN	937	n/a	n/a	-1	1.0	1.0	1	upper	Verdana.ttf
2967.736	n/a	WORD	1483868	wordpools/wasnorm_wordpool_less_exclusions.txt	LTP205	ltpFR	3	14	-1	PUDDING	1139	n/a	n/a	-1	1.0	1.0	1	upper	Verdana.ttf
2971.668	n/a	WORD	1485834	wordpools/wasnorm_wordpool_less_exclusions.txt	LTP205	ltpFR	3	14	-1	TELESCOPE	1446	n/a	n/a	-1	1.0	1.0	1	upper	Verdana.ttf
2975.694	n/a	WORD	1487847	wordpools/wasnorm_wordpool_less_exclusions.txt	LTP205	ltpFR	3	14	-1	SIGN	1305	n/a	n/a	-1	1.0	1.0	1	upper	Verdana.ttf
2979.716	n/a	WORD	1489858	wordpools/wasnorm_wordpool_less_exclusions.txt	LTP205	ltpFR	3	14	-1	PAIL	1002	n/a	n/a	-1	1.0	1.0	1	upper	Verdana.ttf
2983.542	n/a	WORD	1491771	wordpools/wasnorm_wordpool_less_exclusions.txt	LTP205	ltpFR	3	14	-1	TUBE	1516	n/a	n/a	-1	1.0	1.0	1	upper	Verdana.ttf
2987.748	n/a	WORD	1493874	wordpools/wasnorm_wordpool_less_exclusions.txt	LTP205	ltpFR	3	14	-1	BUGGY	188	n/a	n/a	-1	1.0	1.0	1	upper	Verdana.ttf
2991.572	n/a	WORD	1495786	wordpools/wasnorm_wordpool_less_exclusions.txt	LTP205	ltpFR	3	14	-1	STICKER	1382	n/a	n/a	-1	1.0	1.0	1	upper	Verdana.ttf
2995.744	n/a	WORD	1497872	wordpools/wasnorm_wordpool_less_exclusions.txt	LTP205	ltpFR	3	14	-1	RIBBON	1189	n/a	n/a	-1	1.0	1.0	1	upper	Verdana.ttf
2999.872	n/a	WORD	1499936	wordpools/wasnorm_wordpool_less_exclusions.txt	LTP205	ltpFR	3	14	-1	ARROW	40	n/a	n/a	-1	1.0	1.0	1	upper	Verdana.ttf
3005.85	n/a	REC_START	1502925	n/a	LTP205	ltpFR	3	14	n/a	n/a	n/a	n/a	n/a	n/a	n/a	n/a	n/a	n/a	n/a
3006.294	n/a	REC_WORD	1503147	wordpools/wasnorm_wordpool_less_exclusions.txt	LTP205	ltpFR	3	14	-1	SNEAKER	1334	n/a	n/a	-1	n/a	n/a	n/a	n/a	n/a
3007.356	n/a	REC_WORD	1503678	wordpools/wasnorm_wordpool_less_exclusions.txt	LTP205	ltpFR	3	14	-1	FRAME	600	n/a	n/a	-1	n/a	n/a	n/a	n/a	n/a
3008.614	n/a	REC_WORD	1504307	wordpools/wasnorm_wordpool_less_exclusions.txt	LTP205	ltpFR	3	14	-1	WALRUS	1585	n/a	n/a	-1	n/a	n/a	n/a	n/a	n/a
3009.502	n/a	REC_WORD	1504751	wordpools/wasnorm_wordpool_less_exclusions.txt	LTP205	ltpFR	3	14	-1	TAPIOCA	1434	n/a	n/a	-1	n/a	n/a	n/a	n/a	n/a
3013.408	n/a	REC_WORD	1506704	wordpools/wasnorm_wordpool_less_exclusions.txt	LTP205	ltpFR	3	14	-1	TYPEWRITER	1531	n/a	n/a	-1	n/a	n/a	n/a	n/a	n/a
3031.148	n/a	REC_WORD	1515574	wordpools/wasnorm_wordpool_less_exclusions.txt	LTP205	ltpFR	3	14	0	DOLL	481	n/a	n/a	1	n/a	n/a	n/a	n/a	n/a
3050.366	n/a	REC_WORD	1525183	wordpools/wasnorm_wordpool_less_exclusions.txt	LTP205	ltpFR	3	14	0	BUGLE	189	n/a	n/a	1	n/a	n/a	n/a	n/a	n/a
3085.42	n/a	WORD	1542710	wordpools/wasnorm_wordpool_less_exclusions.txt	LTP205	ltpFR	3	15	1	ANIMAL	23	n/a	n/a	1	0.57763671875	0.412841796875	1	upper	amplitud.ttf
3089.564	n/a	WORD	1544782	wordpools/wasnorm_wordpool_less_exclusions.txt	LTP205	ltpFR	3	15	1	LID	817	n/a	n/a	0	0.57763671875	0.412841796875	1	upper	amplitud.ttf
3093.668	n/a	WORD	1546834	wordpools/wasnorm_wordpool_less_exclusions.txt	LTP205	ltpFR	3	15	1	INFANT	737	n/a	n/a	1	0.57763671875	0.412841796875	1	upper	amplitud.ttf
3097.85	n/a	WORD	1548925	wordpools/wasnorm_wordpool_less_exclusions.txt	LTP205	ltpFR	3	15	1	CURB	426	n/a	n/a	0	0.57763671875	0.412841796875	1	upper	amplitud.ttf
3102.028	n/a	WORD	1551014	wordpools/wasnorm_wordpool_less_exclusions.txt	LTP205	ltpFR	3	15	1	CATTLE	261	n/a	n/a	1	0.57763671875	0.412841796875	1	upper	amplitud.ttf
3105.926	n/a	WORD	1552963	wordpools/wasnorm_wordpool_less_exclusions.txt	LTP205	ltpFR	3	15	1	RATTLE	1170	n/a	n/a	0	0.57763671875	0.412841796875	1	upper	amplitud.ttf
3109.808	n/a	WORD	1554904	wordpools/wasnorm_wordpool_less_exclusions.txt	LTP205	ltpFR	3	15	1	VITAMIN	1574	n/a	n/a	0	0.57763671875	0.412841796875	1	upper	amplitud.ttf
3113.656	n/a	WORD	1556828	wordpools/wasnorm_wordpool_less_exclusions.txt	LTP205	ltpFR	3	15	1	SIGNATURE	1306	n/a	n/a	0	0.57763671875	0.412841796875	1	upper	amplitud.ttf
3117.576	n/a	WORD	1558788	wordpools/wasnorm_wordpool_less_exclusions.txt	LTP205	ltpFR	3	15	1	HIGHWAY	707	n/a	n/a	0	0.57763671875	0.412841796875	1	upper	amplitud.ttf
3121.508	n/a	WORD	1560754	wordpools/wasnorm_wordpool_less_exclusions.txt	LTP205	ltpFR	3	15	1	WAITRESS	1581	n/a	n/a	1	0.57763671875	0.412841796875	1	upper	amplitud.ttf
3125.5	n/a	WORD	1562750	wordpools/wasnorm_wordpool_less_exclusions.txt	LTP205	ltpFR	3	15	1	OLIVE	975	n/a	n/a	0	0.57763671875	0.412841796875	1	upper	amplitud.ttf
3129.504	n/a	WORD	1564752	wordpools/wasnorm_wordpool_less_exclusions.txt	LTP205	ltpFR	3	15	1	OWNER	993	n/a	n/a	1	0.57763671875	0.412841796875	1	upper	amplitud.ttf
3133.536	n/a	WORD	1566768	wordpools/wasnorm_wordpool_less_exclusions.txt	LTP205	ltpFR	3	15	1	CUSTOMER	430	n/a	n/a	1	0.57763671875	0.412841796875	1	upper	amplitud.ttf
3137.714	n/a	WORD	1568857	wordpools/wasnorm_wordpool_less_exclusions.txt	LTP205	ltpFR	3	15	1	RECEIPT	1173	n/a	n/a	0	0.57763671875	0.412841796875	1	upper	amplitud.ttf
3141.73	n/a	WORD	1570865	wordpools/wasnorm_wordpool_less_exclusions.txt	LTP205	ltpFR	3	15	1	ATHLETE	52	n/a	n/a	1	0.57763671875	0.412841796875	1	upper	amplitud.ttf
3145.784	n/a	WORD	1572892	wordpools/wasnorm_wordpool_less_exclusions.txt	LTP205	ltpFR	3	15	1	TEAM	1441	n/a	n/a	1	0.57763671875	0.412841796875	1	upper	amplitud.ttf
3151.59	n/a	REC_START	1575795	n/a	LTP205	ltpFR	3	15	n/a	n/a	n/a	n/a	n/a	n/a	n/a	n/a	n/a	n/a	n/a
3152.404	n/a	REC_WORD	1576202	wordpools/wasnorm_wordpool_less_exclusions.txt	LTP205	ltpFR	3	15	1	ANIMAL	23	n/a	n/a	1	n/a	n/a	n/a	n/a	n/a
3153.336	n/a	REC_WORD	1576668	wordpools/wasnorm_wordpool_less_exclusions.txt	LTP205	ltpFR	3	15	1	LID	817	n/a	n/a	0	n/a	n/a	n/a	n/a	n/a
3154.558	n/a	REC_WORD	1577279	wordpools/wasnorm_wordpool_less_exclusions.txt	LTP205	ltpFR	3	15	1	INFANT	737	n/a	n/a	1	n/a	n/a	n/a	n/a	n/a
3155.546	n/a	REC_WORD	1577773	wordpools/wasnorm_wordpool_less_exclusions.txt	LTP205	ltpFR	3	15	1	RATTLE	1170	n/a	n/a	0	n/a	n/a	n/a	n/a	n/a
3156.664	n/a	REC_WORD	1578332	wordpools/wasnorm_wordpool_less_exclusions.txt	LTP205	ltpFR	3	15	1	TEAM	1441	n/a	n/a	1	n/a	n/a	n/a	n/a	n/a
3157.772	n/a	REC_WORD	1578886	wordpools/wasnorm_wordpool_less_exclusions.txt	LTP205	ltpFR	3	15	1	ATHLETE	52	n/a	n/a	1	n/a	n/a	n/a	n/a	n/a
3186.462	n/a	REC_WORD	1593231	wordpools/wasnorm_wordpool_less_exclusions.txt	LTP205	ltpFR	3	15	1	SIGNATURE	1306	n/a	n/a	0	n/a	n/a	n/a	n/a	n/a
3246.954	n/a	WORD	1623477	wordpools/wasnorm_wordpool_less_exclusions.txt	LTP205	ltpFR	3	16	-1	STADIUM	1364	n/a	n/a	-1	1.0	1.0	1	upper	Verdana.ttf
3251.098	n/a	WORD	1625549	wordpools/wasnorm_wordpool_less_exclusions.txt	LTP205	ltpFR	3	16	-1	CAPTAIN	239	n/a	n/a	-1	1.0	1.0	1	upper	Verdana.ttf
3254.996	n/a	WORD	1627498	wordpools/wasnorm_wordpool_less_exclusions.txt	LTP205	ltpFR	3	16	-1	CANVAS	234	n/a	n/a	-1	1.0	1.0	1	upper	Verdana.ttf
3259.012	n/a	WORD	1629506	wordpools/wasnorm_wordpool_less_exclusions.txt	LTP205	ltpFR	3	16	-1	TAPE	1433	n/a	n/a	-1	1.0	1.0	1	upper	Verdana.ttf
3262.848	n/a	WORD	1631424	wordpools/wasnorm_wordpool_less_exclusions.txt	LTP205	ltpFR	3	16	-1	STEREO	1378	n/a	n/a	-1	1.0	1.0	1	upper	Verdana.ttf
3266.78	n/a	WORD	1633390	wordpools/wasnorm_wordpool_less_exclusions.txt	LTP205	ltpFR	3	16	-1	OCTOPUS	971	n/a	n/a	-1	1.0	1.0	1	upper	Verdana.ttf
3270.812	n/a	WORD	1635406	wordpools/wasnorm_wordpool_less_exclusions.txt	LTP205	ltpFR	3	16	-1	SQUID	1361	n/a	n/a	-1	1.0	1.0	1	upper	Verdana.ttf
3274.94	n/a	WORD	1637470	wordpools/wasnorm_wordpool_less_exclusions.txt	LTP205	ltpFR	3	16	-1	CATCHER	258	n/a	n/a	-1	1.0	1.0	1	upper	Verdana.ttf
3279.056	n/a	WORD	1639528	wordpools/wasnorm_wordpool_less_exclusions.txt	LTP205	ltpFR	3	16	-1	PRINTER	1126	n/a	n/a	-1	1.0	1.0	1	upper	Verdana.ttf
3283.238	n/a	WORD	1641619	wordpools/wasnorm_wordpool_less_exclusions.txt	LTP205	ltpFR	3	16	-1	RADIO	1157	n/a	n/a	-1	1.0	1.0	1	upper	Verdana.ttf
3287.34	n/a	WORD	1643670	wordpools/wasnorm_wordpool_less_exclusions.txt	LTP205	ltpFR	3	16	-1	SERGEANT	1269	n/a	n/a	-1	1.0	1.0	1	upper	Verdana.ttf
3291.318	n/a	WORD	1645659	wordpools/wasnorm_wordpool_less_exclusions.txt	LTP205	ltpFR	3	16	-1	BUG	187	n/a	n/a	-1	1.0	1.0	1	upper	Verdana.ttf
3295.256	n/a	WORD	1647628	wordpools/wasnorm_wordpool_less_exclusions.txt	LTP205	ltpFR	3	16	-1	KITE	779	n/a	n/a	-1	1.0	1.0	1	upper	Verdana.ttf
3299.154	n/a	WORD	1649577	wordpools/wasnorm_wordpool_less_exclusions.txt	LTP205	ltpFR	3	16	-1	SARDINE	1235	n/a	n/a	-1	1.0	1.0	1	upper	Verdana.ttf
3303.002	n/a	WORD	1651501	wordpools/wasnorm_wordpool_less_exclusions.txt	LTP205	ltpFR	3	16	-1	VOLLEYBALL	1576	n/a	n/a	-1	1.0	1.0	1	upper	Verdana.ttf
3307.18	n/a	WORD	1653590	wordpools/wasnorm_wordpool_less_exclusions.txt	LTP205	ltpFR	3	16	-1	EUROPE	541	n/a	n/a	-1	1.0	1.0	1	upper	Verdana.ttf
3313.026	n/a	REC_START	1656513	n/a	LTP205	ltpFR	3	16	n/a	n/a	n/a	n/a	n/a	n/a	n/a	n/a	n/a	n/a	n/a
3313.658	n/a	REC_WORD	1656829	wordpools/wasnorm_wordpool_less_exclusions.txt	LTP205	ltpFR	3	16	-1	CAPTAIN	239	n/a	n/a	-1	n/a	n/a	n/a	n/a	n/a
3314.766	n/a	REC_WORD	1657383	wordpools/wasnorm_wordpool_less_exclusions.txt	LTP205	ltpFR	3	16	-1	RADIO	1157	n/a	n/a	-1	n/a	n/a	n/a	n/a	n/a
3315.884	n/a	REC_WORD	1657942	wordpools/wasnorm_wordpool_less_exclusions.txt	LTP205	ltpFR	3	16	-1	STEREO	1378	n/a	n/a	-1	n/a	n/a	n/a	n/a	n/a
3317.186	n/a	REC_WORD	1658593	wordpools/wasnorm_wordpool_less_exclusions.txt	LTP205	ltpFR	3	16	-1	SQUID	1361	n/a	n/a	-1	n/a	n/a	n/a	n/a	n/a
3328.82	n/a	REC_WORD	1664410	wordpools/wasnorm_wordpool_less_exclusions.txt	LTP205	ltpFR	3	16	-1	VOLLEYBALL	1576	n/a	n/a	-1	n/a	n/a	n/a	n/a	n/a
3331.58	n/a	REC_WORD	1665790	wordpools/wasnorm_wordpool_less_exclusions.txt	LTP205	ltpFR	3	16	-1	EUROPE	541	n/a	n/a	-1	n/a	n/a	n/a	n/a	n/a
3339.214	n/a	REC_WORD_VV	1669607	wordpools/wasnorm_wordpool_less_exclusions.txt	LTP205	ltpFR	3	16	n/a	<>	-1	n/a	n/a	n/a	n/a	n/a	n/a	n/a	n/a
3340.214	n/a	REC_WORD_VV	1670107	wordpools/wasnorm_wordpool_less_exclusions.txt	LTP205	ltpFR	3	16	n/a	<>	-1	n/a	n/a	n/a	n/a	n/a	n/a	n/a	n/a
3341.214	n/a	REC_WORD_VV	1670607	wordpools/wasnorm_wordpool_less_exclusions.txt	LTP205	ltpFR	3	16	n/a	<>	-1	n/a	n/a	n/a	n/a	n/a	n/a	n/a	n/a
3342.908	n/a	REC_WORD_VV	1671454	wordpools/wasnorm_wordpool_less_exclusions.txt	LTP205	ltpFR	3	16	n/a	<>	-1	n/a	n/a	n/a	n/a	n/a	n/a	n/a	n/a
3343.908	n/a	REC_WORD_VV	1671954	wordpools/wasnorm_wordpool_less_exclusions.txt	LTP205	ltpFR	3	16	n/a	<>	-1	n/a	n/a	n/a	n/a	n/a	n/a	n/a	n/a
3344.91	n/a	REC_WORD_VV	1672455	wordpools/wasnorm_wordpool_less_exclusions.txt	LTP205	ltpFR	3	16	n/a	<>	-1	n/a	n/a	n/a	n/a	n/a	n/a	n/a	n/a
3377.596	n/a	REC_WORD	1688798	wordpools/wasnorm_wordpool_less_exclusions.txt	LTP205	ltpFR	3	16	0	JUG	762	n/a	n/a	1	n/a	n/a	n/a	n/a	n/a
3381.212	n/a	REC_WORD_VV	1690606	wordpools/wasnorm_wordpool_less_exclusions.txt	LTP205	ltpFR	3	16	n/a	<>	-1	n/a	n/a	n/a	n/a	n/a	n/a	n/a	n/a
3382.214	n/a	REC_WORD_VV	1691107	wordpools/wasnorm_wordpool_less_exclusions.txt	LTP205	ltpFR	3	16	n/a	<>	-1	n/a	n/a	n/a	n/a	n/a	n/a	n/a	n/a
3383.214	n/a	REC_WORD_VV	1691607	wordpools/wasnorm_wordpool_less_exclusions.txt	LTP205	ltpFR	3	16	n/a	<>	-1	n/a	n/a	n/a	n/a	n/a	n/a	n/a	n/a
3384.214	n/a	REC_WORD_VV	1692107	wordpools/wasnorm_wordpool_less_exclusions.txt	LTP205	ltpFR	3	16	n/a	<>	-1	n/a	n/a	n/a	n/a	n/a	n/a	n/a	n/a
3445.314	n/a	REC_START	1722657	n/a	LTP205	ltpFR	3	1	n/a	n/a	n/a	n/a	n/a	n/a	n/a	n/a	n/a	n/a	n/a
3445.362	n/a	RECOG_TARGET	1722681	n/a	LTP205	ltpFR	3	1	0	HAMPER	682	1	3	1	n/a	n/a	n/a	n/a	n/a
3447.902	n/a	RECOG_RESP	1723951	n/a	LTP205	ltpFR	3	1	0	HAMPER	682	1	n/a	1	n/a	n/a	n/a	n/a	n/a
3452.622	n/a	RECOG_CONF	1726311	n/a	LTP205	ltpFR	3	1	0	HAMPER	682	n/a	3	1	n/a	n/a	n/a	n/a	n/a
3455.416	n/a	RECOG_TARGET	1727708	n/a	LTP205	ltpFR	3	1	0	LOAF	835	0	2	0	n/a	n/a	n/a	n/a	n/a
3457.172	n/a	RECOG_RESP	1728586	n/a	LTP205	ltpFR	3	1	0	LOAF	835	0	n/a	0	n/a	n/a	n/a	n/a	n/a
3460.574	n/a	RECOG_CONF	1730287	n/a	LTP205	ltpFR	3	1	0	LOAF	835	n/a	2	0	n/a	n/a	n/a	n/a	n/a
3462.756	n/a	RECOG_TARGET	1731378	n/a	LTP205	ltpFR	3	1	1	VITAMIN	1574	1	5	0	n/a	n/a	n/a	n/a	n/a
3463.772	n/a	RECOG_RESP	1731886	n/a	LTP205	ltpFR	3	1	1	VITAMIN	1574	1	n/a	0	n/a	n/a	n/a	n/a	n/a
3466.452	n/a	RECOG_CONF	1733226	n/a	LTP205	ltpFR	3	1	1	VITAMIN	1574	n/a	5	0	n/a	n/a	n/a	n/a	n/a
3468.728	n/a	RECOG_TARGET	1734364	n/a	LTP205	ltpFR	3	1	0	DINNER	468	1	3	1	n/a	n/a	n/a	n/a	n/a
3470.722	n/a	RECOG_RESP	1735361	n/a	LTP205	ltpFR	3	1	0	DINNER	468	1	n/a	1	n/a	n/a	n/a	n/a	n/a
3472.568	n/a	RECOG_CONF	1736284	n/a	LTP205	ltpFR	3	1	0	DINNER	468	n/a	3	1	n/a	n/a	n/a	n/a	n/a
3474.306	n/a	RECOG_LURE	1737153	n/a	LTP205	ltpFR	3	1	n/a	REPORT	1184	1	3	n/a	n/a	n/a	n/a	n/a	n/a
3475.566	n/a	RECOG_RESP	1737783	n/a	LTP205	ltpFR	3	1	n/a	REPORT	1184	1	n/a	n/a	n/a	n/a	n/a	n/a	n/a
3477.248	n/a	RECOG_CONF	1738624	n/a	LTP205	ltpFR	3	1	n/a	REPORT	1184	n/a	3	n/a	n/a	n/a	n/a	n/a	n/a
3478.952	n/a	RECOG_TARGET	1739476	n/a	LTP205	ltpFR	3	1	0	GANG	619	1	5	1	n/a	n/a	n/a	n/a	n/a
3479.796	n/a	RECOG_RESP	1739898	n/a	LTP205	ltpFR	3	1	0	GANG	619	1	n/a	1	n/a	n/a	n/a	n/a	n/a
3481.388	n/a	RECOG_CONF	1740694	n/a	LTP205	ltpFR	3	1	0	GANG	619	n/a	5	1	n/a	n/a	n/a	n/a	n/a
3483.074	n/a	RECOG_TARGET	1741537	n/a	LTP205	ltpFR	3	1	1	PLANT	1083	1	3	0	n/a	n/a	n/a	n/a	n/a
3483.822	n/a	RECOG_RESP	1741911	n/a	LTP205	ltpFR	3	1	1	PLANT	1083	1	n/a	0	n/a	n/a	n/a	n/a	n/a
3485.18	n/a	RECOG_CONF	1742590	n/a	LTP205	ltpFR	3	1	1	PLANT	1083	n/a	3	0	n/a	n/a	n/a	n/a	n/a
3486.956	n/a	RECOG_TARGET	1743478	n/a	LTP205	ltpFR	3	1	1	DRAWING	494	1	3	0	n/a	n/a	n/a	n/a	n/a
3487.704	n/a	RECOG_RESP	1743852	n/a	LTP205	ltpFR	3	1	1	DRAWING	494	1	n/a	0	n/a	n/a	n/a	n/a	n/a
3489.3	n/a	RECOG_CONF	1744650	n/a	LTP205	ltpFR	3	1	1	DRAWING	494	n/a	3	0	n/a	n/a	n/a	n/a	n/a
3491.004	n/a	RECOG_TARGET	1745502	n/a	LTP205	ltpFR	3	1	-1	MONASTERY	907	1	5	-1	n/a	n/a	n/a	n/a	n/a
3491.694	n/a	RECOG_RESP	1745847	n/a	LTP205	ltpFR	3	1	-1	MONASTERY	907	1	n/a	-1	n/a	n/a	n/a	n/a	n/a
3493.232	n/a	RECOG_CONF	1746616	n/a	LTP205	ltpFR	3	1	-1	MONASTERY	907	n/a	5	-1	n/a	n/a	n/a	n/a	n/a
3495.036	n/a	RECOG_TARGET	1747518	n/a	LTP205	ltpFR	3	1	0	COCKTAIL	338	1	5	1	n/a	n/a	n/a	n/a	n/a
3496.326	n/a	RECOG_RESP	1748163	n/a	LTP205	ltpFR	3	1	0	COCKTAIL	338	1	n/a	1	n/a	n/a	n/a	n/a	n/a
3497.772	n/a	RECOG_CONF	1748886	n/a	LTP205	ltpFR	3	1	0	COCKTAIL	338	n/a	5	1	n/a	n/a	n/a	n/a	n/a
3499.598	n/a	RECOG_TARGET	1749799	n/a	LTP205	ltpFR	3	1	0	DONKEY	484	1	4	1	n/a	n/a	n/a	n/a	n/a
3500.67	n/a	RECOG_RESP	1750335	n/a	LTP205	ltpFR	3	1	0	DONKEY	484	1	n/a	1	n/a	n/a	n/a	n/a	n/a
3502.282	n/a	RECOG_CONF	1751141	n/a	LTP205	ltpFR	3	1	0	DONKEY	484	n/a	4	1	n/a	n/a	n/a	n/a	n/a
3504.07	n/a	RECOG_TARGET	1752035	n/a	LTP205	ltpFR	3	1	0	RAKE	1164	1	2	1	n/a	n/a	n/a	n/a	n/a
3504.826	n/a	RECOG_RESP	1752413	n/a	LTP205	ltpFR	3	1	0	RAKE	1164	1	n/a	1	n/a	n/a	n/a	n/a	n/a
3506.502	n/a	RECOG_CONF	1753251	n/a	LTP205	ltpFR	3	1	0	RAKE	1164	n/a	2	1	n/a	n/a	n/a	n/a	n/a
3508.42	n/a	RECOG_TARGET	1754210	n/a	LTP205	ltpFR	3	1	1	LADY	794	1	5	1	n/a	n/a	n/a	n/a	n/a
3509.062	n/a	RECOG_RESP	1754531	n/a	LTP205	ltpFR	3	1	1	LADY	794	1	n/a	1	n/a	n/a	n/a	n/a	n/a
3510.394	n/a	RECOG_CONF	1755197	n/a	LTP205	ltpFR	3	1	1	LADY	794	n/a	5	1	n/a	n/a	n/a	n/a	n/a
3512.262	n/a	RECOG_TARGET	1756131	n/a	LTP205	ltpFR	3	1	-1	TELESCOPE	1446	0	2	-1	n/a	n/a	n/a	n/a	n/a
3515.572	n/a	RECOG_RESP	1757786	n/a	LTP205	ltpFR	3	1	-1	TELESCOPE	1446	0	n/a	-1	n/a	n/a	n/a	n/a	n/a
3516.96	n/a	RECOG_CONF	1758480	n/a	LTP205	ltpFR	3	1	-1	TELESCOPE	1446	n/a	2	-1	n/a	n/a	n/a	n/a	n/a
3518.72	n/a	RECOG_TARGET	1759360	n/a	LTP205	ltpFR	3	1	-1	STADIUM	1364	1	5	-1	n/a	n/a	n/a	n/a	n/a
3519.608	n/a	RECOG_RESP	1759804	n/a	LTP205	ltpFR	3	1	-1	STADIUM	1364	1	n/a	-1	n/a	n/a	n/a	n/a	n/a
3520.87	n/a	RECOG_CONF	1760435	n/a	LTP205	ltpFR	3	1	-1	STADIUM	1364	n/a	5	-1	n/a	n/a	n/a	n/a	n/a
3522.658	n/a	RECOG_LURE	1761329	n/a	LTP205	ltpFR	3	1	n/a	ESSAY	540	0	4	n/a	n/a	n/a	n/a	n/a	n/a
3523.67	n/a	RECOG_RESP_VV	1761835	n/a	LTP205	ltpFR	3	1	n/a	ESSAY	540	1	n/a	n/a	n/a	n/a	n/a	n/a	n/a
3524.552	n/a	RECOG_RESP	1762276	n/a	LTP205	ltpFR	3	1	n/a	ESSAY	540	0	n/a	n/a	n/a	n/a	n/a	n/a	n/a
3526.258	n/a	RECOG_CONF	1763129	n/a	LTP205	ltpFR	3	1	n/a	ESSAY	540	n/a	4	n/a	n/a	n/a	n/a	n/a	n/a
3528.078	n/a	RECOG_LURE	1764039	n/a	LTP205	ltpFR	3	1	n/a	BOMB	147	0	3	n/a	n/a	n/a	n/a	n/a	n/a
3529.072	n/a	RECOG_RESP	1764536	n/a	LTP205	ltpFR	3	1	n/a	BOMB	147	0	n/a	n/a	n/a	n/a	n/a	n/a	n/a
3531.198	n/a	RECOG_CONF	1765599	n/a	LTP205	ltpFR	3	1	n/a	BOMB	147	n/a	3	n/a	n/a	n/a	n/a	n/a	n/a
3533.032	n/a	RECOG_TARGET	1766516	n/a	LTP205	ltpFR	3	1	0	BOY	161	1	5	1	n/a	n/a	n/a	n/a	n/a
3533.962	n/a	RECOG_RESP	1766981	n/a	LTP205	ltpFR	3	1	0	BOY	161	1	n/a	1	n/a	n/a	n/a	n/a	n/a
3535.448	n/a	RECOG_CONF	1767724	n/a	LTP205	ltpFR	3	1	0	BOY	161	n/a	5	1	n/a	n/a	n/a	n/a	n/a
3537.098	n/a	RECOG_LURE	1768549	n/a	LTP205	ltpFR	3	1	n/a	WAITER	1580	1	5	n/a	n/a	n/a	n/a	n/a	n/a
3538.122	n/a	RECOG_RESP	1769061	n/a	LTP205	ltpFR	3	1	n/a	WAITER	1580	1	n/a	n/a	n/a	n/a	n/a	n/a	n/a
3539.42	n/a	RECOG_CONF	1769710	n/a	LTP205	ltpFR	3	1	n/a	WAITER	1580	n/a	5	n/a	n/a	n/a	n/a	n/a	n/a
3541.022	n/a	RECOG_LURE	1770511	n/a	LTP205	ltpFR	3	1	n/a	ROACH	1195	0	2	n/a	n/a	n/a	n/a	n/a	n/a
3542.876	n/a	RECOG_RESP	1771438	n/a	LTP205	ltpFR	3	1	n/a	ROACH	1195	0	n/a	n/a	n/a	n/a	n/a	n/a	n/a
3544.198	n/a	RECOG_CONF	1772099	n/a	LTP205	ltpFR	3	1	n/a	ROACH	1195	n/a	2	n/a	n/a	n/a	n/a	n/a	n/a
3550.806	n/a	REC_START	1775403	n/a	LTP205	ltpFR	3	2	n/a	n/a	n/a	n/a	n/a	n/a	n/a	n/a	n/a	n/a	n/a
3550.858	n/a	RECOG_TARGET	1775429	n/a	LTP205	ltpFR	3	2	-1	SQUID	1361	1	4	-1	n/a	n/a	n/a	n/a	n/a
3551.814	n/a	RECOG_RESP	1775907	n/a	LTP205	ltpFR	3	2	-1	SQUID	1361	1	n/a	-1	n/a	n/a	n/a	n/a	n/a
3553.774	n/a	RECOG_CONF	1776887	n/a	LTP205	ltpFR	3	2	-1	SQUID	1361	n/a	4	-1	n/a	n/a	n/a	n/a	n/a
3555.416	n/a	RECOG_TARGET	1777708	n/a	LTP205	ltpFR	3	2	0	DILL	465	1	5	0	n/a	n/a	n/a	n/a	n/a
3556.258	n/a	RECOG_RESP	1778129	n/a	LTP205	ltpFR	3	2	0	DILL	465	1	n/a	0	n/a	n/a	n/a	n/a	n/a
3557.866	n/a	RECOG_CONF	1778933	n/a	LTP205	ltpFR	3	2	0	DILL	465	n/a	5	0	n/a	n/a	n/a	n/a	n/a
3559.694	n/a	RECOG_LURE	1779847	n/a	LTP205	ltpFR	3	2	n/a	AFRICA	9	0	5	n/a	n/a	n/a	n/a	n/a	n/a
3561.262	n/a	RECOG_RESP	1780631	n/a	LTP205	ltpFR	3	2	n/a	AFRICA	9	0	n/a	n/a	n/a	n/a	n/a	n/a	n/a
3563.104	n/a	RECOG_CONF	1781552	n/a	LTP205	ltpFR	3	2	n/a	AFRICA	9	n/a	5	n/a	n/a	n/a	n/a	n/a	n/a
3564.868	n/a	RECOG_TARGET	1782434	n/a	LTP205	ltpFR	3	2	1	CURB	426	0	1	0	n/a	n/a	n/a	n/a	n/a
3571.086	n/a	RECOG_RESP	1785543	n/a	LTP205	ltpFR	3	2	1	CURB	426	0	n/a	0	n/a	n/a	n/a	n/a	n/a
3572.044	n/a	RECOG_CONF	1786022	n/a	LTP205	ltpFR	3	2	1	CURB	426	n/a	1	0	n/a	n/a	n/a	n/a	n/a
3573.87	n/a	RECOG_TARGET	1786935	n/a	LTP205	ltpFR	3	2	-1	RASPBERRY	1168	1	4	-1	n/a	n/a	n/a	n/a	n/a
3574.732	n/a	RECOG_RESP	1787366	n/a	LTP205	ltpFR	3	2	-1	RASPBERRY	1168	1	n/a	-1	n/a	n/a	n/a	n/a	n/a
3575.966	n/a	RECOG_CONF	1787983	n/a	LTP205	ltpFR	3	2	-1	RASPBERRY	1168	n/a	4	-1	n/a	n/a	n/a	n/a	n/a
3577.718	n/a	RECOG_TARGET	1788859	n/a	LTP205	ltpFR	3	2	1	TEAM	1441	1	5	1	n/a	n/a	n/a	n/a	n/a
3578.56	n/a	RECOG_RESP	1789280	n/a	LTP205	ltpFR	3	2	1	TEAM	1441	1	n/a	1	n/a	n/a	n/a	n/a	n/a
3579.528	n/a	RECOG_CONF	1789764	n/a	LTP205	ltpFR	3	2	1	TEAM	1441	n/a	5	1	n/a	n/a	n/a	n/a	n/a
3581.16	n/a	RECOG_TARGET	1790580	n/a	LTP205	ltpFR	3	2	0	FOLLOWER	589	1	5	1	n/a	n/a	n/a	n/a	n/a
3582.406	n/a	RECOG_RESP	1791203	n/a	LTP205	ltpFR	3	2	0	FOLLOWER	589	1	n/a	1	n/a	n/a	n/a	n/a	n/a
3583.788	n/a	RECOG_CONF	1791894	n/a	LTP205	ltpFR	3	2	0	FOLLOWER	589	n/a	5	1	n/a	n/a	n/a	n/a	n/a
3585.576	n/a	RECOG_TARGET	1792788	n/a	LTP205	ltpFR	3	2	1	OWNER	993	1	5	1	n/a	n/a	n/a	n/a	n/a
3586.456	n/a	RECOG_RESP	1793228	n/a	LTP205	ltpFR	3	2	1	OWNER	993	1	n/a	1	n/a	n/a	n/a	n/a	n/a
3587.858	n/a	RECOG_CONF	1793929	n/a	LTP205	ltpFR	3	2	1	OWNER	993	n/a	5	1	n/a	n/a	n/a	n/a	n/a
3589.24	n/a	RECOG_TARGET	1794620	n/a	LTP205	ltpFR	3	2	1	ATHLETE	52	1	5	1	n/a	n/a	n/a	n/a	n/a
3589.986	n/a	RECOG_RESP	1794993	n/a	LTP205	ltpFR	3	2	1	ATHLETE	52	1	n/a	1	n/a	n/a	n/a	n/a	n/a
3591.242	n/a	RECOG_CONF	1795621	n/a	LTP205	ltpFR	3	2	1	ATHLETE	52	n/a	5	1	n/a	n/a	n/a	n/a	n/a
3592.726	n/a	RECOG_TARGET	1796363	n/a	LTP205	ltpFR	3	2	-1	OCTOPUS	971	1	5	-1	n/a	n/a	n/a	n/a	n/a
3593.492	n/a	RECOG_RESP	1796746	n/a	LTP205	ltpFR	3	2	-1	OCTOPUS	971	1	n/a	-1	n/a	n/a	n/a	n/a	n/a
3594.854	n/a	RECOG_CONF	1797427	n/a	LTP205	ltpFR	3	2	-1	OCTOPUS	971	n/a	5	-1	n/a	n/a	n/a	n/a	n/a
3596.472	n/a	RECOG_LURE	1798236	n/a	LTP205	ltpFR	3	2	n/a	ELK	526	0	1	n/a	n/a	n/a	n/a	n/a	n/a
3600.112	n/a	RECOG_RESP	1800056	n/a	LTP205	ltpFR	3	2	n/a	ELK	526	0	n/a	n/a	n/a	n/a	n/a	n/a	n/a
3601.996	n/a	RECOG_CONF	1800998	n/a	LTP205	ltpFR	3	2	n/a	ELK	526	n/a	1	n/a	n/a	n/a	n/a	n/a	n/a
3603.75	n/a	RECOG_TARGET	1801875	n/a	LTP205	ltpFR	3	2	-1	HOME	712	1	5	-1	n/a	n/a	n/a	n/a	n/a
3604.566	n/a	RECOG_RESP	1802283	n/a	LTP205	ltpFR	3	2	-1	HOME	712	1	n/a	-1	n/a	n/a	n/a	n/a	n/a
3605.808	n/a	RECOG_CONF	1802904	n/a	LTP205	ltpFR	3	2	-1	HOME	712	n/a	5	-1	n/a	n/a	n/a	n/a	n/a
3607.564	n/a	RECOG_TARGET	1803782	n/a	LTP205	ltpFR	3	2	1	BEE	112	1	5	1	n/a	n/a	n/a	n/a	n/a
3609.86	n/a	RECOG_RESP	1804930	n/a	LTP205	ltpFR	3	2	1	BEE	112	1	n/a	1	n/a	n/a	n/a	n/a	n/a
3611.038	n/a	RECOG_CONF	1805519	n/a	LTP205	ltpFR	3	2	1	BEE	112	n/a	5	1	n/a	n/a	n/a	n/a	n/a
3612.718	n/a	RECOG_LURE	1806359	n/a	LTP205	ltpFR	3	2	n/a	RUNNER	1218	1	5	n/a	n/a	n/a	n/a	n/a	n/a
3613.632	n/a	RECOG_RESP	1806816	n/a	LTP205	ltpFR	3	2	n/a	RUNNER	1218	1	n/a	n/a	n/a	n/a	n/a	n/a	n/a
3614.798	n/a	RECOG_CONF	1807399	n/a	LTP205	ltpFR	3	2	n/a	RUNNER	1218	n/a	5	n/a	n/a	n/a	n/a	n/a	n/a
3616.45	n/a	RECOG_TARGET	1808225	n/a	LTP205	ltpFR	3	2	1	BEAN	105	0	2	0	n/a	n/a	n/a	n/a	n/a
3617.278	n/a	RECOG_RESP	1808639	n/a	LTP205	ltpFR	3	2	1	BEAN	105	0	n/a	0	n/a	n/a	n/a	n/a	n/a
3618.58	n/a	RECOG_CONF	1809290	n/a	LTP205	ltpFR	3	2	1	BEAN	105	n/a	2	0	n/a	n/a	n/a	n/a	n/a
3620.258	n/a	RECOG_TARGET	1810129	n/a	LTP205	ltpFR	3	2	-1	SAP	1233	1	1	-1	n/a	n/a	n/a	n/a	n/a
3625.444	n/a	RECOG_RESP	1812722	n/a	LTP205	ltpFR	3	2	-1	SAP	1233	1	n/a	-1	n/a	n/a	n/a	n/a	n/a
3626.382	n/a	RECOG_CONF	1813191	n/a	LTP205	ltpFR	3	2	-1	SAP	1233	n/a	1	-1	n/a	n/a	n/a	n/a	n/a
3628.28	n/a	RECOG_TARGET	1814140	n/a	LTP205	ltpFR	3	2	-1	PAIL	1002	0	2	-1	n/a	n/a	n/a	n/a	n/a
3629.536	n/a	RECOG_RESP	1814768	n/a	LTP205	ltpFR	3	2	-1	PAIL	1002	0	n/a	-1	n/a	n/a	n/a	n/a	n/a
3630.604	n/a	RECOG_CONF	1815302	n/a	LTP205	ltpFR	3	2	-1	PAIL	1002	n/a	2	-1	n/a	n/a	n/a	n/a	n/a
3632.244	n/a	RECOG_TARGET	1816122	n/a	LTP205	ltpFR	3	2	-1	WINDSHIELD	1612	1	5	-1	n/a	n/a	n/a	n/a	n/a
3633.134	n/a	RECOG_RESP	1816567	n/a	LTP205	ltpFR	3	2	-1	WINDSHIELD	1612	1	n/a	-1	n/a	n/a	n/a	n/a	n/a
3634.446	n/a	RECOG_CONF	1817223	n/a	LTP205	ltpFR	3	2	-1	WINDSHIELD	1612	n/a	5	-1	n/a	n/a	n/a	n/a	n/a
3636.026	n/a	RECOG_LURE	1818013	n/a	LTP205	ltpFR	3	2	n/a	RECEPTIONIST	1174	0	2	n/a	n/a	n/a	n/a	n/a	n/a
3637.434	n/a	RECOG_RESP	1818717	n/a	LTP205	ltpFR	3	2	n/a	RECEPTIONIST	1174	0	n/a	n/a	n/a	n/a	n/a	n/a	n/a
3639.004	n/a	RECOG_CONF	1819502	n/a	LTP205	ltpFR	3	2	n/a	RECEPTIONIST	1174	n/a	2	n/a	n/a	n/a	n/a	n/a	n/a
3640.602	n/a	RECOG_TARGET	1820301	n/a	LTP205	ltpFR	3	2	0	PITCHFORK	1078	1	3	1	n/a	n/a	n/a	n/a	n/a
3642.042	n/a	RECOG_RESP	1821021	n/a	LTP205	ltpFR	3	2	0	PITCHFORK	1078	1	n/a	1	n/a	n/a	n/a	n/a	n/a
3643.814	n/a	RECOG_CONF	1821907	n/a	LTP205	ltpFR	3	2	0	PITCHFORK	1078	n/a	3	1	n/a	n/a	n/a	n/a	n/a
3650.364	n/a	REC_START	1825182	n/a	LTP205	ltpFR	3	3	n/a	n/a	n/a	n/a	n/a	n/a	n/a	n/a	n/a	n/a	n/a
3650.412	n/a	RECOG_TARGET	1825206	n/a	LTP205	ltpFR	3	3	-1	WICK	1607	0	1	-1	n/a	n/a	n/a	n/a	n/a
3653.862	n/a	RECOG_RESP	1826931	n/a	LTP205	ltpFR	3	3	-1	WICK	1607	0	n/a	-1	n/a	n/a	n/a	n/a	n/a
3654.81	n/a	RECOG_CONF	1827405	n/a	LTP205	ltpFR	3	3	-1	WICK	1607	n/a	1	-1	n/a	n/a	n/a	n/a	n/a
3656.646	n/a	RECOG_TARGET	1828323	n/a	LTP205	ltpFR	3	3	0	TWIG	1527	1	3	0	n/a	n/a	n/a	n/a	n/a
3657.986	n/a	RECOG_RESP	1828993	n/a	LTP205	ltpFR	3	3	0	TWIG	1527	1	n/a	0	n/a	n/a	n/a	n/a	n/a
3659.23	n/a	RECOG_CONF	1829615	n/a	LTP205	ltpFR	3	3	0	TWIG	1527	n/a	3	0	n/a	n/a	n/a	n/a	n/a
3660.936	n/a	RECOG_TARGET	1830468	n/a	LTP205	ltpFR	3	3	0	PARSLEY	1016	1	5	0	n/a	n/a	n/a	n/a	n/a
3661.734	n/a	RECOG_RESP	1830867	n/a	LTP205	ltpFR	3	3	0	PARSLEY	1016	1	n/a	0	n/a	n/a	n/a	n/a	n/a
3662.94	n/a	RECOG_CONF	1831470	n/a	LTP205	ltpFR	3	3	0	PARSLEY	1016	n/a	5	0	n/a	n/a	n/a	n/a	n/a
3664.528	n/a	RECOG_LURE	1832264	n/a	LTP205	ltpFR	3	3	n/a	TOMBSTONE	1478	0	4	n/a	n/a	n/a	n/a	n/a	n/a
3665.412	n/a	RECOG_RESP	1832706	n/a	LTP205	ltpFR	3	3	n/a	TOMBSTONE	1478	0	n/a	n/a	n/a	n/a	n/a	n/a	n/a
3667.062	n/a	RECOG_CONF	1833531	n/a	LTP205	ltpFR	3	3	n/a	TOMBSTONE	1478	n/a	4	n/a	n/a	n/a	n/a	n/a	n/a
3668.844	n/a	RECOG_TARGET	1834422	n/a	LTP205	ltpFR	3	3	0	KNAPSACK	783	1	5	1	n/a	n/a	n/a	n/a	n/a
3669.782	n/a	RECOG_RESP	1834891	n/a	LTP205	ltpFR	3	3	0	KNAPSACK	783	1	n/a	1	n/a	n/a	n/a	n/a	n/a
3671.164	n/a	RECOG_CONF	1835582	n/a	LTP205	ltpFR	3	3	0	KNAPSACK	783	n/a	5	1	n/a	n/a	n/a	n/a	n/a
3672.848	n/a	RECOG_TARGET	1836424	n/a	LTP205	ltpFR	3	3	0	LETTUCE	814	1	5	0	n/a	n/a	n/a	n/a	n/a
3673.798	n/a	RECOG_RESP	1836899	n/a	LTP205	ltpFR	3	3	0	LETTUCE	814	1	n/a	0	n/a	n/a	n/a	n/a	n/a
3675.044	n/a	RECOG_CONF	1837522	n/a	LTP205	ltpFR	3	3	0	LETTUCE	814	n/a	5	0	n/a	n/a	n/a	n/a	n/a
3676.796	n/a	RECOG_TARGET	1838398	n/a	LTP205	ltpFR	3	3	0	HOOP	716	1	5	1	n/a	n/a	n/a	n/a	n/a
3678.068	n/a	RECOG_RESP	1839034	n/a	LTP205	ltpFR	3	3	0	HOOP	716	1	n/a	1	n/a	n/a	n/a	n/a	n/a
3679.076	n/a	RECOG_CONF	1839538	n/a	LTP205	ltpFR	3	3	0	HOOP	716	n/a	5	1	n/a	n/a	n/a	n/a	n/a
3680.688	n/a	RECOG_TARGET	1840344	n/a	LTP205	ltpFR	3	3	1	CUSTOMER	430	1	5	1	n/a	n/a	n/a	n/a	n/a
3681.68	n/a	RECOG_RESP	1840840	n/a	LTP205	ltpFR	3	3	1	CUSTOMER	430	1	n/a	1	n/a	n/a	n/a	n/a	n/a
3682.598	n/a	RECOG_CONF	1841299	n/a	LTP205	ltpFR	3	3	1	CUSTOMER	430	n/a	5	1	n/a	n/a	n/a	n/a	n/a
3684.086	n/a	RECOG_TARGET	1842043	n/a	LTP205	ltpFR	3	3	0	BELLY	119	1	5	1	n/a	n/a	n/a	n/a	n/a
3684.872	n/a	RECOG_RESP	1842436	n/a	LTP205	ltpFR	3	3	0	BELLY	119	1	n/a	1	n/a	n/a	n/a	n/a	n/a
3685.99	n/a	RECOG_CONF	1842995	n/a	LTP205	ltpFR	3	3	0	BELLY	119	n/a	5	1	n/a	n/a	n/a	n/a	n/a
3687.47	n/a	RECOG_TARGET	1843735	n/a	LTP205	ltpFR	3	3	1	TREAT	1501	1	4	0	n/a	n/a	n/a	n/a	n/a
3688.76	n/a	RECOG_RESP	1844380	n/a	LTP205	ltpFR	3	3	1	TREAT	1501	1	n/a	0	n/a	n/a	n/a	n/a	n/a
3689.822	n/a	RECOG_CONF	1844911	n/a	LTP205	ltpFR	3	3	1	TREAT	1501	n/a	4	0	n/a	n/a	n/a	n/a	n/a
3691.336	n/a	RECOG_TARGET	1845668	n/a	LTP205	ltpFR	3	3	1	SEA	1259	1	5	1	n/a	n/a	n/a	n/a	n/a
3692.242	n/a	RECOG_RESP	1846121	n/a	LTP205	ltpFR	3	3	1	SEA	1259	1	n/a	1	n/a	n/a	n/a	n/a	n/a
3693.382	n/a	RECOG_RESP_VV	1846691	n/a	LTP205	ltpFR	3	3	1	SEA	1259	n/a	4	1	n/a	n/a	n/a	n/a	n/a
3694.0	n/a	RECOG_CONF	1847000	n/a	LTP205	ltpFR	3	3	1	SEA	1259	n/a	5	1	n/a	n/a	n/a	n/a	n/a
3695.97	n/a	RECOG_TARGET	1847985	n/a	LTP205	ltpFR	3	3	1	GIFT	635	1	5	0	n/a	n/a	n/a	n/a	n/a
3696.662	n/a	RECOG_RESP	1848331	n/a	LTP205	ltpFR	3	3	1	GIFT	635	1	n/a	0	n/a	n/a	n/a	n/a	n/a
3697.784	n/a	RECOG_CONF	1848892	n/a	LTP205	ltpFR	3	3	1	GIFT	635	n/a	5	0	n/a	n/a	n/a	n/a	n/a
3699.534	n/a	RECOG_TARGET	1849767	n/a	LTP205	ltpFR	3	3	0	TRIBE	1505	1	5	1	n/a	n/a	n/a	n/a	n/a
3700.222	n/a	RECOG_RESP	1850111	n/a	LTP205	ltpFR	3	3	0	TRIBE	1505	1	n/a	1	n/a	n/a	n/a	n/a	n/a
3701.396	n/a	RECOG_CONF	1850698	n/a	LTP205	ltpFR	3	3	0	TRIBE	1505	n/a	5	1	n/a	n/a	n/a	n/a	n/a
3703.098	n/a	RECOG_TARGET	1851549	n/a	LTP205	ltpFR	3	3	1	SAPPHIRE	1234	1	5	0	n/a	n/a	n/a	n/a	n/a
3704.076	n/a	RECOG_RESP	1852038	n/a	LTP205	ltpFR	3	3	1	SAPPHIRE	1234	1	n/a	0	n/a	n/a	n/a	n/a	n/a
3705.048	n/a	RECOG_CONF	1852524	n/a	LTP205	ltpFR	3	3	1	SAPPHIRE	1234	n/a	5	0	n/a	n/a	n/a	n/a	n/a
3706.98	n/a	RECOG_LURE	1853490	n/a	LTP205	ltpFR	3	3	n/a	FOX	598	0	2	n/a	n/a	n/a	n/a	n/a	n/a
3708.026	n/a	RECOG_RESP	1854013	n/a	LTP205	ltpFR	3	3	n/a	FOX	598	0	n/a	n/a	n/a	n/a	n/a	n/a	n/a
3709.438	n/a	RECOG_CONF	1854719	n/a	LTP205	ltpFR	3	3	n/a	FOX	598	n/a	2	n/a	n/a	n/a	n/a	n/a	n/a
3711.106	n/a	RECOG_TARGET	1855553	n/a	LTP205	ltpFR	3	3	1	PAINTING	1005	1	4	0	n/a	n/a	n/a	n/a	n/a
3712.406	n/a	RECOG_RESP	1856203	n/a	LTP205	ltpFR	3	3	1	PAINTING	1005	1	n/a	0	n/a	n/a	n/a	n/a	n/a
3713.858	n/a	RECOG_CONF	1856929	n/a	LTP205	ltpFR	3	3	1	PAINTING	1005	n/a	4	0	n/a	n/a	n/a	n/a	n/a
3715.41	n/a	RECOG_LURE	1857705	n/a	LTP205	ltpFR	3	3	n/a	BLADE	134	0	1	n/a	n/a	n/a	n/a	n/a	n/a
3720.608	n/a	RECOG_RESP	1860304	n/a	LTP205	ltpFR	3	3	n/a	BLADE	134	0	n/a	n/a	n/a	n/a	n/a	n/a	n/a
3721.612	n/a	RECOG_CONF	1860806	n/a	LTP205	ltpFR	3	3	n/a	BLADE	134	n/a	1	n/a	n/a	n/a	n/a	n/a	n/a
3724.456	n/a	RECOG_LURE	1862228	n/a	LTP205	ltpFR	3	3	n/a	GOWN	652	0	3	n/a	n/a	n/a	n/a	n/a	n/a
3725.608	n/a	RECOG_RESP	1862804	n/a	LTP205	ltpFR	3	3	n/a	GOWN	652	0	n/a	n/a	n/a	n/a	n/a	n/a	n/a
3726.92	n/a	RECOG_CONF	1863460	n/a	LTP205	ltpFR	3	3	n/a	GOWN	652	n/a	3	n/a	n/a	n/a	n/a	n/a	n/a
3728.656	n/a	RECOG_TARGET	1864328	n/a	LTP205	ltpFR	3	3	0	FOLDER	588	1	2	0	n/a	n/a	n/a	n/a	n/a
3729.504	n/a	RECOG_RESP	1864752	n/a	LTP205	ltpFR	3	3	0	FOLDER	588	1	n/a	0	n/a	n/a	n/a	n/a	n/a
3730.77	n/a	RECOG_CONF	1865385	n/a	LTP205	ltpFR	3	3	0	FOLDER	588	n/a	2	0	n/a	n/a	n/a	n/a	n/a
3732.754	n/a	RECOG_TARGET	1866377	n/a	LTP205	ltpFR	3	3	1	CABIN	211	1	3	0	n/a	n/a	n/a	n/a	n/a
3733.584	n/a	RECOG_RESP	1866792	n/a	LTP205	ltpFR	3	3	1	CABIN	211	1	n/a	0	n/a	n/a	n/a	n/a	n/a
3734.792	n/a	RECOG_CONF	1867396	n/a	LTP205	ltpFR	3	3	1	CABIN	211	n/a	3	0	n/a	n/a	n/a	n/a	n/a
3740.476	n/a	REC_START	1870238	n/a	LTP205	ltpFR	3	4	n/a	n/a	n/a	n/a	n/a	n/a	n/a	n/a	n/a	n/a	n/a
3740.534	n/a	RECOG_TARGET	1870267	n/a	LTP205	ltpFR	3	4	-1	VOLLEYBALL	1576	1	3	-1	n/a	n/a	n/a	n/a	n/a
3742.546	n/a	RECOG_RESP	1871273	n/a	LTP205	ltpFR	3	4	-1	VOLLEYBALL	1576	1	n/a	-1	n/a	n/a	n/a	n/a	n/a
3744.512	n/a	RECOG_CONF	1872256	n/a	LTP205	ltpFR	3	4	-1	VOLLEYBALL	1576	n/a	3	-1	n/a	n/a	n/a	n/a	n/a
3746.264	n/a	RECOG_TARGET	1873132	n/a	LTP205	ltpFR	3	4	1	WAGON	1578	0	1	0	n/a	n/a	n/a	n/a	n/a
3747.51	n/a	RECOG_RESP	1873755	n/a	LTP205	ltpFR	3	4	1	WAGON	1578	0	n/a	0	n/a	n/a	n/a	n/a	n/a
3749.72	n/a	RECOG_CONF	1874860	n/a	LTP205	ltpFR	3	4	1	WAGON	1578	n/a	1	0	n/a	n/a	n/a	n/a	n/a
3751.364	n/a	RECOG_LURE	1875682	n/a	LTP205	ltpFR	3	4	n/a	AUTHOR	61	0	1	n/a	n/a	n/a	n/a	n/a	n/a
3752.864	n/a	RECOG_RESP	1876432	n/a	LTP205	ltpFR	3	4	n/a	AUTHOR	61	0	n/a	n/a	n/a	n/a	n/a	n/a	n/a
3754.1	n/a	RECOG_CONF	1877050	n/a	LTP205	ltpFR	3	4	n/a	AUTHOR	61	n/a	1	n/a	n/a	n/a	n/a	n/a	n/a
3755.95	n/a	RECOG_TARGET	1877975	n/a	LTP205	ltpFR	3	4	1	PUZZLE	1146	1	2	0	n/a	n/a	n/a	n/a	n/a
3756.634	n/a	RECOG_RESP	1878317	n/a	LTP205	ltpFR	3	4	1	PUZZLE	1146	1	n/a	0	n/a	n/a	n/a	n/a	n/a
3758.202	n/a	RECOG_CONF	1879101	n/a	LTP205	ltpFR	3	4	1	PUZZLE	1146	n/a	2	0	n/a	n/a	n/a	n/a	n/a
3760.06	n/a	RECOG_TARGET	1880030	n/a	LTP205	ltpFR	3	4	-1	CAMEL	223	1	1	-1	n/a	n/a	n/a	n/a	n/a
3760.812	n/a	RECOG_RESP	1880406	n/a	LTP205	ltpFR	3	4	-1	CAMEL	223	1	n/a	-1	n/a	n/a	n/a	n/a	n/a
3762.402	n/a	RECOG_CONF	1881201	n/a	LTP205	ltpFR	3	4	-1	CAMEL	223	n/a	1	-1	n/a	n/a	n/a	n/a	n/a
3764.182	n/a	RECOG_TARGET	1882091	n/a	LTP205	ltpFR	3	4	-1	PARENT	1013	1	4	-1	n/a	n/a	n/a	n/a	n/a
3764.982	n/a	RECOG_RESP	1882491	n/a	LTP205	ltpFR	3	4	-1	PARENT	1013	1	n/a	-1	n/a	n/a	n/a	n/a	n/a
3766.204	n/a	RECOG_CONF	1883102	n/a	LTP205	ltpFR	3	4	-1	PARENT	1013	n/a	4	-1	n/a	n/a	n/a	n/a	n/a
3767.996	n/a	RECOG_TARGET	1883998	n/a	LTP205	ltpFR	3	4	0	SWAN	1417	1	5	1	n/a	n/a	n/a	n/a	n/a
3768.972	n/a	RECOG_RESP	1884486	n/a	LTP205	ltpFR	3	4	0	SWAN	1417	1	n/a	1	n/a	n/a	n/a	n/a	n/a
3769.996	n/a	RECOG_CONF	1884998	n/a	LTP205	ltpFR	3	4	0	SWAN	1417	n/a	5	1	n/a	n/a	n/a	n/a	n/a
3771.704	n/a	RECOG_TARGET	1885852	n/a	LTP205	ltpFR	3	4	1	PREACHER	1119	1	4	1	n/a	n/a	n/a	n/a	n/a
3772.394	n/a	RECOG_RESP	1886197	n/a	LTP205	ltpFR	3	4	1	PREACHER	1119	1	n/a	1	n/a	n/a	n/a	n/a	n/a
3773.706	n/a	RECOG_CONF	1886853	n/a	LTP205	ltpFR	3	4	1	PREACHER	1119	n/a	4	1	n/a	n/a	n/a	n/a	n/a
3775.406	n/a	RECOG_LURE	1887703	n/a	LTP205	ltpFR	3	4	n/a	DIRT	472	0	2	n/a	n/a	n/a	n/a	n/a	n/a
3776.346	n/a	RECOG_RESP	1888173	n/a	LTP205	ltpFR	3	4	n/a	DIRT	472	0	n/a	n/a	n/a	n/a	n/a	n/a	n/a
3777.588	n/a	RECOG_CONF	1888794	n/a	LTP205	ltpFR	3	4	n/a	DIRT	472	n/a	2	n/a	n/a	n/a	n/a	n/a	n/a
3779.122	n/a	RECOG_TARGET	1889561	n/a	LTP205	ltpFR	3	4	1	CANAL	226	1	5	1	n/a	n/a	n/a	n/a	n/a
3780.666	n/a	RECOG_RESP	1890333	n/a	LTP205	ltpFR	3	4	1	CANAL	226	1	n/a	1	n/a	n/a	n/a	n/a	n/a
3781.9	n/a	RECOG_CONF	1890950	n/a	LTP205	ltpFR	3	4	1	CANAL	226	n/a	5	1	n/a	n/a	n/a	n/a	n/a
3783.538	n/a	RECOG_LURE	1891769	n/a	LTP205	ltpFR	3	4	n/a	MOUTH	926	0	4	n/a	n/a	n/a	n/a	n/a	n/a
3784.434	n/a	RECOG_RESP	1892217	n/a	LTP205	ltpFR	3	4	n/a	MOUTH	926	0	n/a	n/a	n/a	n/a	n/a	n/a	n/a
3786.2	n/a	RECOG_CONF	1893100	n/a	LTP205	ltpFR	3	4	n/a	MOUTH	926	n/a	4	n/a	n/a	n/a	n/a	n/a	n/a
3787.714	n/a	RECOG_TARGET	1893857	n/a	LTP205	ltpFR	3	4	0	BOARD	143	1	5	0	n/a	n/a	n/a	n/a	n/a
3789.98	n/a	RECOG_RESP	1894990	n/a	LTP205	ltpFR	3	4	0	BOARD	143	1	n/a	0	n/a	n/a	n/a	n/a	n/a
3791.716	n/a	RECOG_CONF	1895858	n/a	LTP205	ltpFR	3	4	0	BOARD	143	n/a	5	0	n/a	n/a	n/a	n/a	n/a
3793.258	n/a	RECOG_TARGET	1896629	n/a	LTP205	ltpFR	3	4	0	SQUIRREL	1362	1	5	1	n/a	n/a	n/a	n/a	n/a
3794.046	n/a	RECOG_RESP	1897023	n/a	LTP205	ltpFR	3	4	0	SQUIRREL	1362	1	n/a	1	n/a	n/a	n/a	n/a	n/a
3795.548	n/a	RECOG_CONF	1897774	n/a	LTP205	ltpFR	3	4	0	SQUIRREL	1362	n/a	5	1	n/a	n/a	n/a	n/a	n/a
3797.302	n/a	RECOG_TARGET	1898651	n/a	LTP205	ltpFR	3	4	0	CHICKEN	297	0	2	1	n/a	n/a	n/a	n/a	n/a
3798.114	n/a	RECOG_RESP	1899057	n/a	LTP205	ltpFR	3	4	0	CHICKEN	297	0	n/a	1	n/a	n/a	n/a	n/a	n/a
3799.92	n/a	RECOG_CONF	1899960	n/a	LTP205	ltpFR	3	4	0	CHICKEN	297	n/a	2	1	n/a	n/a	n/a	n/a	n/a
3801.708	n/a	RECOG_TARGET	1900854	n/a	LTP205	ltpFR	3	4	0	BUGLE	189	1	4	1	n/a	n/a	n/a	n/a	n/a
3802.534	n/a	RECOG_RESP	1901267	n/a	LTP205	ltpFR	3	4	0	BUGLE	189	1	n/a	1	n/a	n/a	n/a	n/a	n/a
3803.924	n/a	RECOG_CONF	1901962	n/a	LTP205	ltpFR	3	4	0	BUGLE	189	n/a	4	1	n/a	n/a	n/a	n/a	n/a
3806.142	n/a	RECOG_TARGET	1903071	n/a	LTP205	ltpFR	3	4	0	MUSHROOM	934	1	2	0	n/a	n/a	n/a	n/a	n/a
3810.166	n/a	RECOG_RESP	1905083	n/a	LTP205	ltpFR	3	4	0	MUSHROOM	934	1	n/a	0	n/a	n/a	n/a	n/a	n/a
3811.822	n/a	RECOG_CONF	1905911	n/a	LTP205	ltpFR	3	4	0	MUSHROOM	934	n/a	2	0	n/a	n/a	n/a	n/a	n/a
3813.82	n/a	RECOG_TARGET	1906910	n/a	LTP205	ltpFR	3	4	1	THIGH	1457	1	4	1	n/a	n/a	n/a	n/a	n/a
3814.62	n/a	RECOG_RESP	1907310	n/a	LTP205	ltpFR	3	4	1	THIGH	1457	1	n/a	1	n/a	n/a	n/a	n/a	n/a
3815.884	n/a	RECOG_CONF	1907942	n/a	LTP205	ltpFR	3	4	1	THIGH	1457	n/a	4	1	n/a	n/a	n/a	n/a	n/a
3817.362	n/a	RECOG_TARGET	1908681	n/a	LTP205	ltpFR	3	4	0	METEOR	889	1	5	1	n/a	n/a	n/a	n/a	n/a
3818.248	n/a	RECOG_RESP	1909124	n/a	LTP205	ltpFR	3	4	0	METEOR	889	1	n/a	1	n/a	n/a	n/a	n/a	n/a
3819.756	n/a	RECOG_CONF	1909878	n/a	LTP205	ltpFR	3	4	0	METEOR	889	n/a	5	1	n/a	n/a	n/a	n/a	n/a
3821.45	n/a	RECOG_TARGET	1910725	n/a	LTP205	ltpFR	3	4	0	WATER	1594	1	4	1	n/a	n/a	n/a	n/a	n/a
3822.164	n/a	RECOG_RESP	1911082	n/a	LTP205	ltpFR	3	4	0	WATER	1594	1	n/a	1	n/a	n/a	n/a	n/a	n/a
3823.816	n/a	RECOG_CONF	1911908	n/a	LTP205	ltpFR	3	4	0	WATER	1594	n/a	4	1	n/a	n/a	n/a	n/a	n/a
3825.38	n/a	RECOG_TARGET	1912690	n/a	LTP205	ltpFR	3	4	1	CATTLE	261	0	2	1	n/a	n/a	n/a	n/a	n/a
3828.78	n/a	RECOG_RESP	1914390	n/a	LTP205	ltpFR	3	4	1	CATTLE	261	0	n/a	1	n/a	n/a	n/a	n/a	n/a
3830.062	n/a	RECOG_CONF	1915031	n/a	LTP205	ltpFR	3	4	1	CATTLE	261	n/a	2	1	n/a	n/a	n/a	n/a	n/a
3836.036	n/a	REC_START	1918018	n/a	LTP205	ltpFR	3	5	n/a	n/a	n/a	n/a	n/a	n/a	n/a	n/a	n/a	n/a	n/a
3836.09	n/a	RECOG_TARGET	1918045	n/a	LTP205	ltpFR	3	5	1	WAITRESS	1581	1	4	1	n/a	n/a	n/a	n/a	n/a
3837.134	n/a	RECOG_RESP	1918567	n/a	LTP205	ltpFR	3	5	1	WAITRESS	1581	1	n/a	1	n/a	n/a	n/a	n/a	n/a
3838.396	n/a	RECOG_CONF	1919198	n/a	LTP205	ltpFR	3	5	1	WAITRESS	1581	n/a	4	1	n/a	n/a	n/a	n/a	n/a
3839.998	n/a	RECOG_LURE	1919999	n/a	LTP205	ltpFR	3	5	n/a	HOSPITAL	721	0	5	n/a	n/a	n/a	n/a	n/a	n/a
3840.86	n/a	RECOG_RESP	1920430	n/a	LTP205	ltpFR	3	5	n/a	HOSPITAL	721	0	n/a	n/a	n/a	n/a	n/a	n/a	n/a
3842.616	n/a	RECOG_CONF	1921308	n/a	LTP205	ltpFR	3	5	n/a	HOSPITAL	721	n/a	5	n/a	n/a	n/a	n/a	n/a	n/a
3844.354	n/a	RECOG_TARGET	1922177	n/a	LTP205	ltpFR	3	5	0	BALLERINA	74	1	3	1	n/a	n/a	n/a	n/a	n/a
3846.284	n/a	RECOG_RESP	1923142	n/a	LTP205	ltpFR	3	5	0	BALLERINA	74	1	n/a	1	n/a	n/a	n/a	n/a	n/a
3847.704	n/a	RECOG_CONF	1923852	n/a	LTP205	ltpFR	3	5	0	BALLERINA	74	n/a	3	1	n/a	n/a	n/a	n/a	n/a
3849.25	n/a	RECOG_TARGET	1924625	n/a	LTP205	ltpFR	3	5	-1	SWITCH	1422	1	2	-1	n/a	n/a	n/a	n/a	n/a
3850.338	n/a	RECOG_RESP	1925169	n/a	LTP205	ltpFR	3	5	-1	SWITCH	1422	1	n/a	-1	n/a	n/a	n/a	n/a	n/a
3852.414	n/a	RECOG_CONF	1926207	n/a	LTP205	ltpFR	3	5	-1	SWITCH	1422	n/a	2	-1	n/a	n/a	n/a	n/a	n/a
3854.142	n/a	RECOG_TARGET	1927071	n/a	LTP205	ltpFR	3	5	-1	STREAM	1392	1	2	-1	n/a	n/a	n/a	n/a	n/a
3854.94	n/a	RECOG_RESP_VV	1927470	n/a	LTP205	ltpFR	3	5	-1	STREAM	1392	1	n/a	-1	n/a	n/a	n/a	n/a	n/a
3862.342	n/a	RECOG_RESP	1931171	n/a	LTP205	ltpFR	3	5	-1	STREAM	1392	1	n/a	-1	n/a	n/a	n/a	n/a	n/a
3864.368	n/a	RECOG_CONF	1932184	n/a	LTP205	ltpFR	3	5	-1	STREAM	1392	n/a	2	-1	n/a	n/a	n/a	n/a	n/a
3866.222	n/a	RECOG_TARGET	1933111	n/a	LTP205	ltpFR	3	5	0	BAG	69	1	5	0	n/a	n/a	n/a	n/a	n/a
3867.43	n/a	RECOG_RESP	1933715	n/a	LTP205	ltpFR	3	5	0	BAG	69	1	n/a	0	n/a	n/a	n/a	n/a	n/a
3868.708	n/a	RECOG_CONF	1934354	n/a	LTP205	ltpFR	3	5	0	BAG	69	n/a	5	0	n/a	n/a	n/a	n/a	n/a
3870.298	n/a	RECOG_TARGET	1935149	n/a	LTP205	ltpFR	3	5	0	FARM	552	1	4	1	n/a	n/a	n/a	n/a	n/a
3871.098	n/a	RECOG_RESP	1935549	n/a	LTP205	ltpFR	3	5	0	FARM	552	1	n/a	1	n/a	n/a	n/a	n/a	n/a
3872.68	n/a	RECOG_CONF	1936340	n/a	LTP205	ltpFR	3	5	0	FARM	552	n/a	4	1	n/a	n/a	n/a	n/a	n/a
3874.286	n/a	RECOG_TARGET	1937143	n/a	LTP205	ltpFR	3	5	1	CANOE	233	1	5	1	n/a	n/a	n/a	n/a	n/a
3874.92	n/a	RECOG_RESP	1937460	n/a	LTP205	ltpFR	3	5	1	CANOE	233	1	n/a	1	n/a	n/a	n/a	n/a	n/a
3876.182	n/a	RECOG_CONF	1938091	n/a	LTP205	ltpFR	3	5	1	CANOE	233	n/a	5	1	n/a	n/a	n/a	n/a	n/a
3878.0	n/a	RECOG_TARGET	1939000	n/a	LTP205	ltpFR	3	5	0	GUARD	667	1	5	1	n/a	n/a	n/a	n/a	n/a
3878.796	n/a	RECOG_RESP	1939398	n/a	LTP205	ltpFR	3	5	0	GUARD	667	1	n/a	1	n/a	n/a	n/a	n/a	n/a
3879.934	n/a	RECOG_CONF	1939967	n/a	LTP205	ltpFR	3	5	0	GUARD	667	n/a	5	1	n/a	n/a	n/a	n/a	n/a
3881.612	n/a	RECOG_TARGET	1940806	n/a	LTP205	ltpFR	3	5	0	DRAWER	493	1	5	1	n/a	n/a	n/a	n/a	n/a
3882.498	n/a	RECOG_RESP	1941249	n/a	LTP205	ltpFR	3	5	0	DRAWER	493	1	n/a	1	n/a	n/a	n/a	n/a	n/a
3883.646	n/a	RECOG_CONF	1941823	n/a	LTP205	ltpFR	3	5	0	DRAWER	493	n/a	5	1	n/a	n/a	n/a	n/a	n/a
3885.254	n/a	RECOG_TARGET	1942627	n/a	LTP205	ltpFR	3	5	1	DOG	480	1	4	1	n/a	n/a	n/a	n/a	n/a
3888.424	n/a	RECOG_RESP	1944212	n/a	LTP205	ltpFR	3	5	1	DOG	480	1	n/a	1	n/a	n/a	n/a	n/a	n/a
3889.612	n/a	RECOG_CONF	1944806	n/a	LTP205	ltpFR	3	5	1	DOG	480	n/a	4	1	n/a	n/a	n/a	n/a	n/a
3891.302	n/a	RECOG_LURE	1945651	n/a	LTP205	ltpFR	3	5	n/a	MOAT	903	0	5	n/a	n/a	n/a	n/a	n/a	n/a
3892.342	n/a	RECOG_RESP_VV	1946171	n/a	LTP205	ltpFR	3	5	n/a	MOAT	903	0	n/a	n/a	n/a	n/a	n/a	n/a	n/a
3892.616	n/a	RECOG_RESP	1946308	n/a	LTP205	ltpFR	3	5	n/a	MOAT	903	0	n/a	n/a	n/a	n/a	n/a	n/a	n/a
3894.112	n/a	RECOG_CONF	1947056	n/a	LTP205	ltpFR	3	5	n/a	MOAT	903	n/a	5	n/a	n/a	n/a	n/a	n/a	n/a
3895.734	n/a	RECOG_TARGET	1947867	n/a	LTP205	ltpFR	3	5	1	ROOSTER	1209	0	1	1	n/a	n/a	n/a	n/a	n/a
3896.642	n/a	RECOG_RESP_VV	1948321	n/a	LTP205	ltpFR	3	5	1	ROOSTER	1209	1	n/a	1	n/a	n/a	n/a	n/a	n/a
3900.338	n/a	RECOG_RESP	1950169	n/a	LTP205	ltpFR	3	5	1	ROOSTER	1209	0	n/a	1	n/a	n/a	n/a	n/a	n/a
3901.556	n/a	RECOG_CONF	1950778	n/a	LTP205	ltpFR	3	5	1	ROOSTER	1209	n/a	1	1	n/a	n/a	n/a	n/a	n/a
3903.346	n/a	RECOG_TARGET	1951673	n/a	LTP205	ltpFR	3	5	-1	TAPIOCA	1434	1	5	-1	n/a	n/a	n/a	n/a	n/a
3904.234	n/a	RECOG_RESP	1952117	n/a	LTP205	ltpFR	3	5	-1	TAPIOCA	1434	1	n/a	-1	n/a	n/a	n/a	n/a	n/a
3905.896	n/a	RECOG_CONF	1952948	n/a	LTP205	ltpFR	3	5	-1	TAPIOCA	1434	n/a	5	-1	n/a	n/a	n/a	n/a	n/a
3907.594	n/a	RECOG_TARGET	1953797	n/a	LTP205	ltpFR	3	5	0	ARTICLE	42	1	4	0	n/a	n/a	n/a	n/a	n/a
