mstime	trial_type	stim_file	subject	experiment	session	trial	item_name	item_num	list	answer	test_x	test_y	test_z
0	SESS_START	n/a	LTP313	ltpFR2	1	n/a	n/a	n/a	n/a	n/a	0	0	0
22040	START	n/a	LTP313	ltpFR2	1	n/a	n/a	n/a	-1	n/a	n/a	n/a	n/a
22054	PROB	n/a	LTP313	ltpFR2	1	n/a	n/a	n/a	-1	19	8	3	8
24472	PROB	n/a	LTP313	ltpFR2	1	n/a	n/a	n/a	-1	11	6	1	4
25640	PROB	n/a	LTP313	ltpFR2	1	n/a	n/a	n/a	-1	18	6	4	8
26758	PROB	n/a	LTP313	ltpFR2	1	n/a	n/a	n/a	-1	5	1	3	1
27860	PROB	n/a	LTP313	ltpFR2	1	n/a	n/a	n/a	-1	12	2	9	1
28877	PROB	n/a	LTP313	ltpFR2	1	n/a	n/a	n/a	-1	9	4	2	3
29961	PROB	n/a	LTP313	ltpFR2	1	n/a	n/a	n/a	-1	5	4	2	9
31277	PROB	n/a	LTP313	ltpFR2	1	n/a	n/a	n/a	-1	9	3	4	2
32568	STOP	n/a	LTP313	ltpFR2	1	n/a	n/a	n/a	-1	n/a	n/a	n/a	n/a
88126	WORD	wordpools/wasnorm_wordpool_576.txt	LTP313	ltpFR2	1	1	OYSTER	995	n/a	n/a	0	0	0
90885	WORD	wordpools/wasnorm_wordpool_576.txt	LTP313	ltpFR2	1	1	TURTLE	1522	n/a	n/a	0	0	0
93447	WORD	wordpools/wasnorm_wordpool_576.txt	LTP313	ltpFR2	1	1	PROTON	1132	n/a	n/a	0	0	0
96117	WORD	wordpools/wasnorm_wordpool_576.txt	LTP313	ltpFR2	1	1	ROOSTER	1209	n/a	n/a	0	0	0
98803	WORD	wordpools/wasnorm_wordpool_576.txt	LTP313	ltpFR2	1	1	PEPPER	1047	n/a	n/a	0	0	0
101358	WORD	wordpools/wasnorm_wordpool_576.txt	LTP313	ltpFR2	1	1	MAPLE	866	n/a	n/a	0	0	0
104057	WORD	wordpools/wasnorm_wordpool_576.txt	LTP313	ltpFR2	1	1	PUPPY	1144	n/a	n/a	0	0	0
106726	WORD	wordpools/wasnorm_wordpool_576.txt	LTP313	ltpFR2	1	1	TREAT	1501	n/a	n/a	0	0	0
109510	WORD	wordpools/wasnorm_wordpool_576.txt	LTP313	ltpFR2	1	1	POSTAGE	1113	n/a	n/a	0	0	0
112280	WORD	wordpools/wasnorm_wordpool_576.txt	LTP313	ltpFR2	1	1	STUDENT	1395	n/a	n/a	0	0	0
115067	WORD	wordpools/wasnorm_wordpool_576.txt	LTP313	ltpFR2	1	1	GRILL	661	n/a	n/a	0	0	0
117667	WORD	wordpools/wasnorm_wordpool_576.txt	LTP313	ltpFR2	1	1	SCALLOP	1242	n/a	n/a	0	0	0
120157	WORD	wordpools/wasnorm_wordpool_576.txt	LTP313	ltpFR2	1	1	PARENT	1013	n/a	n/a	0	0	0
122810	WORD	wordpools/wasnorm_wordpool_576.txt	LTP313	ltpFR2	1	1	LIPSTICK	829	n/a	n/a	0	0	0
125390	WORD	wordpools/wasnorm_wordpool_576.txt	LTP313	ltpFR2	1	1	HATCHET	691	n/a	n/a	0	0	0
127993	WORD	wordpools/wasnorm_wordpool_576.txt	LTP313	ltpFR2	1	1	PACKAGE	997	n/a	n/a	0	0	0
130527	WORD	wordpools/wasnorm_wordpool_576.txt	LTP313	ltpFR2	1	1	RAFT	1159	n/a	n/a	0	0	0
132998	WORD	wordpools/wasnorm_wordpool_576.txt	LTP313	ltpFR2	1	1	LAKE	796	n/a	n/a	0	0	0
135417	WORD	wordpools/wasnorm_wordpool_576.txt	LTP313	ltpFR2	1	1	PARROT	1015	n/a	n/a	0	0	0
138135	WORD	wordpools/wasnorm_wordpool_576.txt	LTP313	ltpFR2	1	1	ROBIN	1199	n/a	n/a	0	0	0
140922	WORD	wordpools/wasnorm_wordpool_576.txt	LTP313	ltpFR2	1	1	KEEPER	769	n/a	n/a	0	0	0
143524	WORD	wordpools/wasnorm_wordpool_576.txt	LTP313	ltpFR2	1	1	STAKE	1368	n/a	n/a	0	0	0
146059	WORD	wordpools/wasnorm_wordpool_576.txt	LTP313	ltpFR2	1	1	PLAZA	1088	n/a	n/a	0	0	0
148644	WORD	wordpools/wasnorm_wordpool_576.txt	LTP313	ltpFR2	1	1	MAILMAN	858	n/a	n/a	0	0	0
150261	START	n/a	LTP313	ltpFR2	1	n/a	n/a	n/a	1	n/a	n/a	n/a	n/a
151126	DISTRACTOR	n/a	LTP313	ltpFR2	1	1	n/a	n/a	n/a	n/a	0	0	0
151130	PROB	n/a	LTP313	ltpFR2	1	n/a	n/a	n/a	1	15	7	7	1
152964	PROB	n/a	LTP313	ltpFR2	1	n/a	n/a	n/a	1	19	6	5	8
153963	PROB	n/a	LTP313	ltpFR2	1	n/a	n/a	n/a	1	23	9	7	7
155783	PROB	n/a	LTP313	ltpFR2	1	n/a	n/a	n/a	1	15	7	6	2
157033	PROB	n/a	LTP313	ltpFR2	1	n/a	n/a	n/a	1	14	7	1	6
158349	PROB	n/a	LTP313	ltpFR2	1	n/a	n/a	n/a	1	200	7	5	8
159768	PROB	n/a	LTP313	ltpFR2	1	n/a	n/a	n/a	1	13	3	2	8
161722	PROB	n/a	LTP313	ltpFR2	1	n/a	n/a	n/a	1	6	1	4	1
163187	PROB	n/a	LTP313	ltpFR2	1	n/a	n/a	n/a	1	15	7	5	3
165624	PROB	n/a	LTP313	ltpFR2	1	n/a	n/a	n/a	1	16	9	3	4
166924	PROB	n/a	LTP313	ltpFR2	1	n/a	n/a	n/a	1	16	4	7	5
167976	PROB	n/a	LTP313	ltpFR2	1	n/a	n/a	n/a	1	23	7	8	8
169294	PROB	n/a	LTP313	ltpFR2	1	n/a	n/a	n/a	1	18	1	8	9
170494	PROB	n/a	LTP313	ltpFR2	1	n/a	n/a	n/a	1	14	3	9	2
171612	PROB	n/a	LTP313	ltpFR2	1	n/a	n/a	n/a	1	10	2	6	2
172889	STOP	n/a	LTP313	ltpFR2	1	n/a	n/a	n/a	1	n/a	n/a	n/a	n/a
176101	REC_START	n/a	LTP313	ltpFR2	1	1	n/a	n/a	n/a	n/a	0	0	0
178776	REC_WORD	wordpools/wasnorm_wordpool_576.txt	LTP313	ltpFR2	1	1	OYSTER	995	n/a	n/a	0	0	0
180652	REC_WORD	wordpools/wasnorm_wordpool_576.txt	LTP313	ltpFR2	1	1	ROOSTER	1209	n/a	n/a	0	0	0
182806	REC_WORD	wordpools/wasnorm_wordpool_576.txt	LTP313	ltpFR2	1	1	TURTLE	1522	n/a	n/a	0	0	0
185046	REC_WORD	wordpools/wasnorm_wordpool_576.txt	LTP313	ltpFR2	1	1	PUPPY	1144	n/a	n/a	0	0	0
186451	REC_WORD	wordpools/wasnorm_wordpool_576.txt	LTP313	ltpFR2	1	1	ROBIN	1199	n/a	n/a	0	0	0
189071	REC_WORD	wordpools/wasnorm_wordpool_576.txt	LTP313	ltpFR2	1	1	STAKE	1368	n/a	n/a	0	0	0
202641	REC_WORD	wordpools/wasnorm_wordpool_576.txt	LTP313	ltpFR2	1	1	TURTLE	1522	n/a	n/a	0	0	0
205100	REC_WORD	wordpools/wasnorm_wordpool_576.txt	LTP313	ltpFR2	1	1	POSTAGE	1113	n/a	n/a	0	0	0
207128	REC_WORD	wordpools/wasnorm_wordpool_576.txt	LTP313	ltpFR2	1	1	PACKAGE	997	n/a	n/a	0	0	0
208926	REC_WORD	wordpools/wasnorm_wordpool_576.txt	LTP313	ltpFR2	1	1	MAILMAN	858	n/a	n/a	0	0	0
212464	REC_WORD	wordpools/wasnorm_wordpool_576.txt	LTP313	ltpFR2	1	1	GRILL	661	n/a	n/a	0	0	0
214147	REC_WORD	wordpools/wasnorm_wordpool_576.txt	LTP313	ltpFR2	1	1	RAFT	1159	n/a	n/a	0	0	0
215787	REC_WORD	wordpools/wasnorm_wordpool_576.txt	LTP313	ltpFR2	1	1	LAKE	796	n/a	n/a	0	0	0
244755	REC_WORD	wordpools/wasnorm_wordpool_576.txt	LTP313	ltpFR2	1	1	KEEPER	769	n/a	n/a	0	0	0
266518	DISTRACTOR	n/a	LTP313	ltpFR2	1	2	n/a	n/a	n/a	n/a	0	0	0
266518	START	n/a	LTP313	ltpFR2	1	n/a	n/a	n/a	2	n/a	n/a	n/a	n/a
266535	PROB	n/a	LTP313	ltpFR2	1	n/a	n/a	n/a	2	17	4	8	5
268359	PROB	n/a	LTP313	ltpFR2	1	n/a	n/a	n/a	2	16	4	8	4
269442	PROB	n/a	LTP313	ltpFR2	1	n/a	n/a	n/a	2	17	5	8	4
270628	PROB	n/a	LTP313	ltpFR2	1	n/a	n/a	n/a	2	11	3	4	4
271845	PROB	n/a	LTP313	ltpFR2	1	n/a	n/a	n/a	2	18	4	5	9
272912	PROB	n/a	LTP313	ltpFR2	1	n/a	n/a	n/a	2	15	4	6	5
273813	PROB	n/a	LTP313	ltpFR2	1	n/a	n/a	n/a	2	15	4	7	4
274798	PROB	n/a	LTP313	ltpFR2	1	n/a	n/a	n/a	2	19	3	9	7
275931	PROB	n/a	LTP313	ltpFR2	1	n/a	n/a	n/a	2	15	7	2	6
276917	PROB	n/a	LTP313	ltpFR2	1	n/a	n/a	n/a	2	17	8	4	5
278084	PROB	n/a	LTP313	ltpFR2	1	n/a	n/a	n/a	2	17	5	8	4
279250	PROB	n/a	LTP313	ltpFR2	1	n/a	n/a	n/a	2	17	3	5	9
281920	PROB	n/a	LTP313	ltpFR2	1	n/a	n/a	n/a	2	15	5	9	1
283055	PROB	n/a	LTP313	ltpFR2	1	n/a	n/a	n/a	2	18	6	4	8
284055	PROB	n/a	LTP313	ltpFR2	1	n/a	n/a	n/a	2	19	4	8	7
285221	PROB	n/a	LTP313	ltpFR2	1	n/a	n/a	n/a	2	21	5	7	9
286439	PROB	n/a	LTP313	ltpFR2	1	n/a	n/a	n/a	2	14	8	3	3
287958	PROB	n/a	LTP313	ltpFR2	1	n/a	n/a	n/a	2	7	5	1	1
289017	STOP	n/a	LTP313	ltpFR2	1	n/a	n/a	n/a	2	n/a	n/a	n/a	n/a
291646	WORD	wordpools/wasnorm_wordpool_576.txt	LTP313	ltpFR2	1	2	JUGGLER	763	n/a	n/a	0	0	0
294131	WORD	wordpools/wasnorm_wordpool_576.txt	LTP313	ltpFR2	1	2	SISTER	1312	n/a	n/a	0	0	0
296826	WORD	wordpools/wasnorm_wordpool_576.txt	LTP313	ltpFR2	1	2	BROTHER	179	n/a	n/a	0	0	0
299293	WORD	wordpools/wasnorm_wordpool_576.txt	LTP313	ltpFR2	1	2	ICEBERG	731	n/a	n/a	0	0	0
301879	WORD	wordpools/wasnorm_wordpool_576.txt	LTP313	ltpFR2	1	2	LASER	801	n/a	n/a	0	0	0
304355	WORD	wordpools/wasnorm_wordpool_576.txt	LTP313	ltpFR2	1	2	MONEY	908	n/a	n/a	0	0	0
306809	WORD	wordpools/wasnorm_wordpool_576.txt	LTP313	ltpFR2	1	2	CRIB	407	n/a	n/a	0	0	0
309284	WORD	wordpools/wasnorm_wordpool_576.txt	LTP313	ltpFR2	1	2	OUTLAW	989	n/a	n/a	0	0	0
312037	WORD	wordpools/wasnorm_wordpool_576.txt	LTP313	ltpFR2	1	2	KIDNEY	776	n/a	n/a	0	0	0
314639	WORD	wordpools/wasnorm_wordpool_576.txt	LTP313	ltpFR2	1	2	BADGE	68	n/a	n/a	0	0	0
317333	WORD	wordpools/wasnorm_wordpool_576.txt	LTP313	ltpFR2	1	2	COMPASS	358	n/a	n/a	0	0	0
319953	WORD	wordpools/wasnorm_wordpool_576.txt	LTP313	ltpFR2	1	2	WASHER	1592	n/a	n/a	0	0	0
322728	WORD	wordpools/wasnorm_wordpool_576.txt	LTP313	ltpFR2	1	2	ISLAND	745	n/a	n/a	0	0	0
325464	WORD	wordpools/wasnorm_wordpool_576.txt	LTP313	ltpFR2	1	2	FREEZER	604	n/a	n/a	0	0	0
328249	WORD	wordpools/wasnorm_wordpool_576.txt	LTP313	ltpFR2	1	2	BUGGY	188	n/a	n/a	0	0	0
330986	WORD	wordpools/wasnorm_wordpool_576.txt	LTP313	ltpFR2	1	2	FIREMAN	569	n/a	n/a	0	0	0
333598	WORD	wordpools/wasnorm_wordpool_576.txt	LTP313	ltpFR2	1	2	FUNGUS	614	n/a	n/a	0	0	0
336281	WORD	wordpools/wasnorm_wordpool_576.txt	LTP313	ltpFR2	1	2	STATUE	1374	n/a	n/a	0	0	0
338691	WORD	wordpools/wasnorm_wordpool_576.txt	LTP313	ltpFR2	1	2	FRANCE	601	n/a	n/a	0	0	0
341153	WORD	wordpools/wasnorm_wordpool_576.txt	LTP313	ltpFR2	1	2	COUNTRY	388	n/a	n/a	0	0	0
343890	WORD	wordpools/wasnorm_wordpool_576.txt	LTP313	ltpFR2	1	2	DRILL	497	n/a	n/a	0	0	0
346647	WORD	wordpools/wasnorm_wordpool_576.txt	LTP313	ltpFR2	1	2	BRICK	172	n/a	n/a	0	0	0
349309	WORD	wordpools/wasnorm_wordpool_576.txt	LTP313	ltpFR2	1	2	PLASTER	1085	n/a	n/a	0	0	0
351729	WORD	wordpools/wasnorm_wordpool_576.txt	LTP313	ltpFR2	1	2	ZIPPER	1636	n/a	n/a	0	0	0
353334	START	n/a	LTP313	ltpFR2	1	n/a	n/a	n/a	3	n/a	n/a	n/a	n/a
354428	DISTRACTOR	n/a	LTP313	ltpFR2	1	2	n/a	n/a	n/a	n/a	0	0	0
354435	PROB	n/a	LTP313	ltpFR2	1	n/a	n/a	n/a	3	9	3	4	2
355982	PROB	n/a	LTP313	ltpFR2	1	n/a	n/a	n/a	3	14	2	4	8
358083	PROB	n/a	LTP313	ltpFR2	1	n/a	n/a	n/a	3	10	6	2	2
359284	PROB	n/a	LTP313	ltpFR2	1	n/a	n/a	n/a	3	12	3	7	2
360252	PROB	n/a	LTP313	ltpFR2	1	n/a	n/a	n/a	3	17	5	9	3
361453	PROB	n/a	LTP313	ltpFR2	1	n/a	n/a	n/a	3	9	1	4	4
362839	PROB	n/a	LTP313	ltpFR2	1	n/a	n/a	n/a	3	13	7	5	1
363871	PROB	n/a	LTP313	ltpFR2	1	n/a	n/a	n/a	3	12	6	3	3
364922	PROB	n/a	LTP313	ltpFR2	1	n/a	n/a	n/a	3	8	2	1	5
365924	PROB	n/a	LTP313	ltpFR2	1	n/a	n/a	n/a	3	14	4	5	5
368059	PROB	n/a	LTP313	ltpFR2	1	n/a	n/a	n/a	3	13	5	7	1
368942	PROB	n/a	LTP313	ltpFR2	1	n/a	n/a	n/a	3	14	7	2	5
370026	PROB	n/a	LTP313	ltpFR2	1	n/a	n/a	n/a	3	15	4	4	7
371711	PROB	n/a	LTP313	ltpFR2	1	n/a	n/a	n/a	3	17	2	6	9
373261	PROB	n/a	LTP313	ltpFR2	1	n/a	n/a	n/a	3	4	2	1	1
374212	PROB	n/a	LTP313	ltpFR2	1	n/a	n/a	n/a	3	12	2	2	8
375563	PROB	n/a	LTP313	ltpFR2	1	n/a	n/a	n/a	3	9	1	2	6
376729	STOP	n/a	LTP313	ltpFR2	1	n/a	n/a	n/a	3	n/a	n/a	n/a	n/a
379217	REC_START	n/a	LTP313	ltpFR2	1	2	n/a	n/a	n/a	n/a	0	0	0
380516	REC_WORD	wordpools/wasnorm_wordpool_576.txt	LTP313	ltpFR2	1	2	PLASTER	1085	n/a	n/a	0	0	0
382215	REC_WORD	wordpools/wasnorm_wordpool_576.txt	LTP313	ltpFR2	1	2	FUNGUS	614	n/a	n/a	0	0	0
384272	REC_WORD	wordpools/wasnorm_wordpool_576.txt	LTP313	ltpFR2	1	2	ICEBERG	731	n/a	n/a	0	0	0
386298	REC_WORD	wordpools/wasnorm_wordpool_576.txt	LTP313	ltpFR2	1	2	FIREMAN	569	n/a	n/a	0	0	0
389896	REC_WORD	wordpools/wasnorm_wordpool_576.txt	LTP313	ltpFR2	1	2	JUGGLER	763	n/a	n/a	0	0	0
394190	REC_WORD	wordpools/wasnorm_wordpool_576.txt	LTP313	ltpFR2	1	2	BROTHER	179	n/a	n/a	0	0	0
395256	REC_WORD	wordpools/wasnorm_wordpool_576.txt	LTP313	ltpFR2	1	2	SISTER	1312	n/a	n/a	0	0	0
397603	REC_WORD	wordpools/wasnorm_wordpool_576.txt	LTP313	ltpFR2	1	2	KIDNEY	776	n/a	n/a	0	0	0
399375	REC_WORD	wordpools/wasnorm_wordpool_576.txt	LTP313	ltpFR2	1	2	OUTLAW	989	n/a	n/a	0	0	0
410549	REC_WORD	wordpools/wasnorm_wordpool_576.txt	LTP313	ltpFR2	1	2	ISLAND	745	n/a	n/a	0	0	0
411992	REC_WORD	wordpools/wasnorm_wordpool_576.txt	LTP313	ltpFR2	1	2	COUNTRY	388	n/a	n/a	0	0	0
413587	REC_WORD	wordpools/wasnorm_wordpool_576.txt	LTP313	ltpFR2	1	2	FRANCE	601	n/a	n/a	0	0	0
414918	REC_WORD	wordpools/wasnorm_wordpool_576.txt	LTP313	ltpFR2	1	2	STATUE	1374	n/a	n/a	0	0	0
418525	REC_WORD	wordpools/wasnorm_wordpool_576.txt	LTP313	ltpFR2	1	2	BRICK	172	n/a	n/a	0	0	0
420408	REC_WORD	wordpools/wasnorm_wordpool_576.txt	LTP313	ltpFR2	1	2	CRIB	407	n/a	n/a	0	0	0
421791	REC_WORD	wordpools/wasnorm_wordpool_576.txt	LTP313	ltpFR2	1	2	MONEY	908	n/a	n/a	0	0	0
469656	WORD	wordpools/wasnorm_wordpool_576.txt	LTP313	ltpFR2	1	3	MASK	876	n/a	n/a	0	0	0
472225	WORD	wordpools/wasnorm_wordpool_576.txt	LTP313	ltpFR2	1	3	FOREHEAD	592	n/a	n/a	0	0	0
475032	WORD	wordpools/wasnorm_wordpool_576.txt	LTP313	ltpFR2	1	3	KLEENEX	782	n/a	n/a	0	0	0
477528	WORD	wordpools/wasnorm_wordpool_576.txt	LTP313	ltpFR2	1	3	BLOUSE	139	n/a	n/a	0	0	0
480163	WORD	wordpools/wasnorm_wordpool_576.txt	LTP313	ltpFR2	1	3	LEOPARD	812	n/a	n/a	0	0	0
482583	WORD	wordpools/wasnorm_wordpool_576.txt	LTP313	ltpFR2	1	3	BREAST	171	n/a	n/a	0	0	0
485352	WORD	wordpools/wasnorm_wordpool_576.txt	LTP313	ltpFR2	1	3	VENUS	1557	n/a	n/a	0	0	0
488105	WORD	wordpools/wasnorm_wordpool_576.txt	LTP313	ltpFR2	1	3	IDOL	733	n/a	n/a	0	0	0
490873	WORD	wordpools/wasnorm_wordpool_576.txt	LTP313	ltpFR2	1	3	CHAPEL	280	n/a	n/a	0	0	0
493429	WORD	wordpools/wasnorm_wordpool_576.txt	LTP313	ltpFR2	1	3	BABY	64	n/a	n/a	0	0	0
496010	WORD	wordpools/wasnorm_wordpool_576.txt	LTP313	ltpFR2	1	3	BELLY	119	n/a	n/a	0	0	0
498629	WORD	wordpools/wasnorm_wordpool_576.txt	LTP313	ltpFR2	1	3	WAITER	1580	n/a	n/a	0	0	0
501280	WORD	wordpools/wasnorm_wordpool_576.txt	LTP313	ltpFR2	1	3	IGLOO	734	n/a	n/a	0	0	0
503951	WORD	wordpools/wasnorm_wordpool_576.txt	LTP313	ltpFR2	1	3	LOVER	846	n/a	n/a	0	0	0
506507	WORD	wordpools/wasnorm_wordpool_576.txt	LTP313	ltpFR2	1	3	PRIMATE	1123	n/a	n/a	0	0	0
509260	WORD	wordpools/wasnorm_wordpool_576.txt	LTP313	ltpFR2	1	3	DINER	467	n/a	n/a	0	0	0
511773	WORD	wordpools/wasnorm_wordpool_576.txt	LTP313	ltpFR2	1	3	SUPPER	1411	n/a	n/a	0	0	0
514240	WORD	wordpools/wasnorm_wordpool_576.txt	LTP313	ltpFR2	1	3	GALLON	618	n/a	n/a	0	0	0
516693	WORD	wordpools/wasnorm_wordpool_576.txt	LTP313	ltpFR2	1	3	SCRIBBLE	1256	n/a	n/a	0	0	0
519411	WORD	wordpools/wasnorm_wordpool_576.txt	LTP313	ltpFR2	1	3	BOYFRIEND	162	n/a	n/a	0	0	0
521864	WORD	wordpools/wasnorm_wordpool_576.txt	LTP313	ltpFR2	1	3	PIGEON	1065	n/a	n/a	0	0	0
524566	WORD	wordpools/wasnorm_wordpool_576.txt	LTP313	ltpFR2	1	3	YOLK	1633	n/a	n/a	0	0	0
527291	WORD	wordpools/wasnorm_wordpool_576.txt	LTP313	ltpFR2	1	3	FINGER	567	n/a	n/a	0	0	0
529787	WORD	wordpools/wasnorm_wordpool_576.txt	LTP313	ltpFR2	1	3	MARROW	872	n/a	n/a	0	0	0
531399	START	n/a	LTP313	ltpFR2	1	n/a	n/a	n/a	4	n/a	n/a	n/a	n/a
532392	DISTRACTOR	n/a	LTP313	ltpFR2	1	3	n/a	n/a	n/a	n/a	0	0	0
532395	PROB	n/a	LTP313	ltpFR2	1	n/a	n/a	n/a	4	17	7	3	7
534195	PROB	n/a	LTP313	ltpFR2	1	n/a	n/a	n/a	4	12	2	9	1
535764	PROB	n/a	LTP313	ltpFR2	1	n/a	n/a	n/a	4	13	6	1	6
537216	PROB	n/a	LTP313	ltpFR2	1	n/a	n/a	n/a	4	14	9	2	3
540183	PROB	n/a	LTP313	ltpFR2	1	n/a	n/a	n/a	4	11	5	5	1
541070	PROB	n/a	LTP313	ltpFR2	1	n/a	n/a	n/a	4	15	4	3	8
542670	PROB	n/a	LTP313	ltpFR2	1	n/a	n/a	n/a	4	14	9	4	2
544038	PROB	n/a	LTP313	ltpFR2	1	n/a	n/a	n/a	4	18	5	9	4
545891	PROB	n/a	LTP313	ltpFR2	1	n/a	n/a	n/a	4	5	1	2	2
546892	PROB	n/a	LTP313	ltpFR2	1	n/a	n/a	n/a	4	13	6	3	4
548390	PROB	n/a	LTP313	ltpFR2	1	n/a	n/a	n/a	4	18	5	4	9
550043	PROB	n/a	LTP313	ltpFR2	1	n/a	n/a	n/a	4	12	4	2	6
551044	PROB	n/a	LTP313	ltpFR2	1	n/a	n/a	n/a	4	13	5	4	4
552829	PROB	n/a	LTP313	ltpFR2	1	n/a	n/a	n/a	4	12	3	1	8
553881	STOP	n/a	LTP313	ltpFR2	1	n/a	n/a	n/a	4	n/a	n/a	n/a	n/a
557333	REC_START	n/a	LTP313	ltpFR2	1	3	n/a	n/a	n/a	n/a	0	0	0
558467	REC_WORD	wordpools/wasnorm_wordpool_576.txt	LTP313	ltpFR2	1	3	YOLK	1633	n/a	n/a	0	0	0
559972	REC_WORD	wordpools/wasnorm_wordpool_576.txt	LTP313	ltpFR2	1	3	MARROW	872	n/a	n/a	0	0	0
563075	REC_WORD	wordpools/wasnorm_wordpool_576.txt	LTP313	ltpFR2	1	3	IGLOO	734	n/a	n/a	0	0	0
565835	REC_WORD	wordpools/wasnorm_wordpool_576.txt	LTP313	ltpFR2	1	3	WAITER	1580	n/a	n/a	0	0	0
568391	REC_WORD	wordpools/wasnorm_wordpool_576.txt	LTP313	ltpFR2	1	3	DINER	467	n/a	n/a	0	0	0
571822	REC_WORD	wordpools/wasnorm_wordpool_576.txt	LTP313	ltpFR2	1	3	SCRIBBLE	1256	n/a	n/a	0	0	0
573715	REC_WORD	wordpools/wasnorm_wordpool_576.txt	LTP313	ltpFR2	1	3	LEOPARD	812	n/a	n/a	0	0	0
575725	REC_WORD	wordpools/wasnorm_wordpool_576.txt	LTP313	ltpFR2	1	3	BABY	64	n/a	n/a	0	0	0
580807	REC_WORD	wordpools/wasnorm_wordpool_576.txt	LTP313	ltpFR2	1	3	BOYFRIEND	162	n/a	n/a	0	0	0
588566	REC_WORD	wordpools/wasnorm_wordpool_576.txt	LTP313	ltpFR2	1	3	BLOUSE	139	n/a	n/a	0	0	0
591204	REC_WORD	wordpools/wasnorm_wordpool_576.txt	LTP313	ltpFR2	1	3	KLEENEX	782	n/a	n/a	0	0	0
594010	REC_WORD	wordpools/wasnorm_wordpool_576.txt	LTP313	ltpFR2	1	3	BELLY	119	n/a	n/a	0	0	0
601539	REC_WORD	wordpools/wasnorm_wordpool_576.txt	LTP313	ltpFR2	1	3	BREAST	171	n/a	n/a	0	0	0
603103	REC_WORD	wordpools/wasnorm_wordpool_576.txt	LTP313	ltpFR2	1	3	FINGER	567	n/a	n/a	0	0	0
609590	REC_WORD	wordpools/wasnorm_wordpool_576.txt	LTP313	ltpFR2	1	3	IDOL	733	n/a	n/a	0	0	0
611132	REC_WORD	wordpools/wasnorm_wordpool_576.txt	LTP313	ltpFR2	1	3	VENUS	1557	n/a	n/a	0	0	0
647792	DISTRACTOR	n/a	LTP313	ltpFR2	1	4	n/a	n/a	n/a	n/a	0	0	0
647792	START	n/a	LTP313	ltpFR2	1	n/a	n/a	n/a	5	n/a	n/a	n/a	n/a
647807	PROB	n/a	LTP313	ltpFR2	1	n/a	n/a	n/a	5	14	9	1	5
649643	PROB	n/a	LTP313	ltpFR2	1	n/a	n/a	n/a	5	11	7	2	2
651677	PROB	n/a	LTP313	ltpFR2	1	n/a	n/a	n/a	5	17	5	4	8
652847	PROB	n/a	LTP313	ltpFR2	1	n/a	n/a	n/a	5	13	3	9	1
654346	PROB	n/a	LTP313	ltpFR2	1	n/a	n/a	n/a	5	11	1	5	5
655365	PROB	n/a	LTP313	ltpFR2	1	n/a	n/a	n/a	5	10	6	1	3
657415	PROB	n/a	LTP313	ltpFR2	1	n/a	n/a	n/a	5	21	9	2	9
659251	PROB	n/a	LTP313	ltpFR2	1	n/a	n/a	n/a	5	19	7	9	3
662521	PROB	n/a	LTP313	ltpFR2	1	n/a	n/a	n/a	5	16	5	3	8
663788	PROB	n/a	LTP313	ltpFR2	1	n/a	n/a	n/a	5	19	6	7	6
665305	PROB	n/a	LTP313	ltpFR2	1	n/a	n/a	n/a	5	15	9	3	3
666439	PROB	n/a	LTP313	ltpFR2	1	n/a	n/a	n/a	5	15	5	4	6
667507	PROB	n/a	LTP313	ltpFR2	1	n/a	n/a	n/a	5	15	2	9	4
668625	PROB	n/a	LTP313	ltpFR2	1	n/a	n/a	n/a	5	12	9	1	2
669909	PROB	n/a	LTP313	ltpFR2	1	n/a	n/a	n/a	5	19	2	8	9
671152	STOP	n/a	LTP313	ltpFR2	1	n/a	n/a	n/a	5	n/a	n/a	n/a	n/a
672995	WORD	wordpools/wasnorm_wordpool_576.txt	LTP313	ltpFR2	1	4	AIRPLANE	12	n/a	n/a	0	0	0
675463	WORD	wordpools/wasnorm_wordpool_576.txt	LTP313	ltpFR2	1	4	EXPERT	543	n/a	n/a	0	0	0
677983	WORD	wordpools/wasnorm_wordpool_576.txt	LTP313	ltpFR2	1	4	PEDAL	1037	n/a	n/a	0	0	0
680785	WORD	wordpools/wasnorm_wordpool_576.txt	LTP313	ltpFR2	1	4	DASHBOARD	441	n/a	n/a	0	0	0
683369	WORD	wordpools/wasnorm_wordpool_576.txt	LTP313	ltpFR2	1	4	VALLEY	1545	n/a	n/a	0	0	0
686023	WORD	wordpools/wasnorm_wordpool_576.txt	LTP313	ltpFR2	1	4	COBRA	336	n/a	n/a	0	0	0
688610	WORD	wordpools/wasnorm_wordpool_576.txt	LTP313	ltpFR2	1	4	LADDER	793	n/a	n/a	0	0	0
691292	WORD	wordpools/wasnorm_wordpool_576.txt	LTP313	ltpFR2	1	4	LAMP	798	n/a	n/a	0	0	0
693827	WORD	wordpools/wasnorm_wordpool_576.txt	LTP313	ltpFR2	1	4	TUNNEL	1519	n/a	n/a	0	0	0
696597	WORD	wordpools/wasnorm_wordpool_576.txt	LTP313	ltpFR2	1	4	MILK	895	n/a	n/a	0	0	0
699049	WORD	wordpools/wasnorm_wordpool_576.txt	LTP313	ltpFR2	1	4	OX	994	n/a	n/a	0	0	0
701570	WORD	wordpools/wasnorm_wordpool_576.txt	LTP313	ltpFR2	1	4	SCALPEL	1243	n/a	n/a	0	0	0
704036	WORD	wordpools/wasnorm_wordpool_576.txt	LTP313	ltpFR2	1	4	FLESH	579	n/a	n/a	0	0	0
706789	WORD	wordpools/wasnorm_wordpool_576.txt	LTP313	ltpFR2	1	4	WHISKERS	1605	n/a	n/a	0	0	0
709523	WORD	wordpools/wasnorm_wordpool_576.txt	LTP313	ltpFR2	1	4	GREASE	660	n/a	n/a	0	0	0
712225	WORD	wordpools/wasnorm_wordpool_576.txt	LTP313	ltpFR2	1	4	APRON	35	n/a	n/a	0	0	0
715011	WORD	wordpools/wasnorm_wordpool_576.txt	LTP313	ltpFR2	1	4	CONTRACT	368	n/a	n/a	0	0	0
717612	WORD	wordpools/wasnorm_wordpool_576.txt	LTP313	ltpFR2	1	4	RECEIPT	1173	n/a	n/a	0	0	0
720297	WORD	wordpools/wasnorm_wordpool_576.txt	LTP313	ltpFR2	1	4	KITCHEN	778	n/a	n/a	0	0	0
722750	WORD	wordpools/wasnorm_wordpool_576.txt	LTP313	ltpFR2	1	4	SLIDE	1326	n/a	n/a	0	0	0
725268	WORD	wordpools/wasnorm_wordpool_576.txt	LTP313	ltpFR2	1	4	SHELF	1280	n/a	n/a	0	0	0
727821	WORD	wordpools/wasnorm_wordpool_576.txt	LTP313	ltpFR2	1	4	BINDER	127	n/a	n/a	0	0	0
730522	WORD	wordpools/wasnorm_wordpool_576.txt	LTP313	ltpFR2	1	4	GARLIC	624	n/a	n/a	0	0	0
733041	WORD	wordpools/wasnorm_wordpool_576.txt	LTP313	ltpFR2	1	4	BEAVER	109	n/a	n/a	0	0	0
734649	START	n/a	LTP313	ltpFR2	1	n/a	n/a	n/a	6	n/a	n/a	n/a	n/a
735511	DISTRACTOR	n/a	LTP313	ltpFR2	1	4	n/a	n/a	n/a	n/a	0	0	0
735514	PROB	n/a	LTP313	ltpFR2	1	n/a	n/a	n/a	6	21	7	6	8
737599	PROB	n/a	LTP313	ltpFR2	1	n/a	n/a	n/a	6	21	5	8	8
740518	PROB	n/a	LTP313	ltpFR2	1	n/a	n/a	n/a	6	20	7	7	6
741769	PROB	n/a	LTP313	ltpFR2	1	n/a	n/a	n/a	6	15	2	9	4
743120	PROB	n/a	LTP313	ltpFR2	1	n/a	n/a	n/a	6	9	7	1	1
744089	PROB	n/a	LTP313	ltpFR2	1	n/a	n/a	n/a	6	15	9	5	1
745504	PROB	n/a	LTP313	ltpFR2	1	n/a	n/a	n/a	6	23	9	7	7
747607	PROB	n/a	LTP313	ltpFR2	1	n/a	n/a	n/a	6	17	8	7	2
750226	PROB	n/a	LTP313	ltpFR2	1	n/a	n/a	n/a	6	14	2	3	9
751459	PROB	n/a	LTP313	ltpFR2	1	n/a	n/a	n/a	6	11	4	1	6
752462	PROB	n/a	LTP313	ltpFR2	1	n/a	n/a	n/a	6	12	3	5	4
753561	PROB	n/a	LTP313	ltpFR2	1	n/a	n/a	n/a	6	18	8	6	4
754880	PROB	n/a	LTP313	ltpFR2	1	n/a	n/a	n/a	6	7	1	1	5
755998	PROB	n/a	LTP313	ltpFR2	1	n/a	n/a	n/a	6	7	1	3	3
757049	PROB	n/a	LTP313	ltpFR2	1	n/a	n/a	n/a	6	21	9	3	9
758240	STOP	n/a	LTP313	ltpFR2	1	n/a	n/a	n/a	6	n/a	n/a	n/a	n/a
760467	REC_START	n/a	LTP313	ltpFR2	1	4	n/a	n/a	n/a	n/a	0	0	0
761553	REC_WORD	wordpools/wasnorm_wordpool_576.txt	LTP313	ltpFR2	1	4	SHELF	1280	n/a	n/a	0	0	0
763053	REC_WORD	wordpools/wasnorm_wordpool_576.txt	LTP313	ltpFR2	1	4	BINDER	127	n/a	n/a	0	0	0
764558	REC_WORD	wordpools/wasnorm_wordpool_576.txt	LTP313	ltpFR2	1	4	GARLIC	624	n/a	n/a	0	0	0
771574	REC_WORD	wordpools/wasnorm_wordpool_576.txt	LTP313	ltpFR2	1	4	AIRPLANE	12	n/a	n/a	0	0	0
773400	REC_WORD	wordpools/wasnorm_wordpool_576.txt	LTP313	ltpFR2	1	4	EXPERT	543	n/a	n/a	0	0	0
774976	REC_WORD	wordpools/wasnorm_wordpool_576.txt	LTP313	ltpFR2	1	4	PEDAL	1037	n/a	n/a	0	0	0
776406	REC_WORD	wordpools/wasnorm_wordpool_576.txt	LTP313	ltpFR2	1	4	DASHBOARD	441	n/a	n/a	0	0	0
779001	REC_WORD	wordpools/wasnorm_wordpool_576.txt	LTP313	ltpFR2	1	4	VALLEY	1545	n/a	n/a	0	0	0
780432	REC_WORD	wordpools/wasnorm_wordpool_576.txt	LTP313	ltpFR2	1	4	COBRA	336	n/a	n/a	0	0	0
782188	REC_WORD	wordpools/wasnorm_wordpool_576.txt	LTP313	ltpFR2	1	4	LADDER	793	n/a	n/a	0	0	0
784074	REC_WORD	wordpools/wasnorm_wordpool_576.txt	LTP313	ltpFR2	1	4	LAMP	798	n/a	n/a	0	0	0
785437	REC_WORD	wordpools/wasnorm_wordpool_576.txt	LTP313	ltpFR2	1	4	TUNNEL	1519	n/a	n/a	0	0	0
793472	REC_WORD	wordpools/wasnorm_wordpool_576.txt	LTP313	ltpFR2	1	4	MILK	895	n/a	n/a	0	0	0
794369	REC_WORD	wordpools/wasnorm_wordpool_576.txt	LTP313	ltpFR2	1	4	OX	994	n/a	n/a	0	0	0
796499	REC_WORD	wordpools/wasnorm_wordpool_576.txt	LTP313	ltpFR2	1	4	WHISKERS	1605	n/a	n/a	0	0	0
799611	REC_WORD	wordpools/wasnorm_wordpool_576.txt	LTP313	ltpFR2	1	4	CONTRACT	368	n/a	n/a	0	0	0
802139	REC_WORD	wordpools/wasnorm_wordpool_576.txt	LTP313	ltpFR2	1	4	APRON	35	n/a	n/a	0	0	0
803618	REC_WORD	wordpools/wasnorm_wordpool_576.txt	LTP313	ltpFR2	1	4	GREASE	660	n/a	n/a	0	0	0
810013	REC_WORD	wordpools/wasnorm_wordpool_576.txt	LTP313	ltpFR2	1	4	SLIDE	1326	n/a	n/a	0	0	0
850879	DISTRACTOR	n/a	LTP313	ltpFR2	1	5	n/a	n/a	n/a	n/a	0	0	0
850879	START	n/a	LTP313	ltpFR2	1	n/a	n/a	n/a	7	n/a	n/a	n/a	n/a
850894	PROB	n/a	LTP313	ltpFR2	1	n/a	n/a	n/a	7	7	3	3	1
852394	PROB	n/a	LTP313	ltpFR2	1	n/a	n/a	n/a	7	14	5	1	9
854998	PROB	n/a	LTP313	ltpFR2	1	n/a	n/a	n/a	7	20	3	9	8
856815	PROB	n/a	LTP313	ltpFR2	1	n/a	n/a	n/a	7	12	1	4	7
857832	PROB	n/a	LTP313	ltpFR2	1	n/a	n/a	n/a	7	17	6	2	9
858951	PROB	n/a	LTP313	ltpFR2	1	n/a	n/a	n/a	7	15	5	9	1
860102	PROB	n/a	LTP313	ltpFR2	1	n/a	n/a	n/a	7	5	1	1	3
861069	PROB	n/a	LTP313	ltpFR2	1	n/a	n/a	n/a	7	15	7	7	1
862035	PROB	n/a	LTP313	ltpFR2	1	n/a	n/a	n/a	7	11	6	1	3
863520	PROB	n/a	LTP313	ltpFR2	1	n/a	n/a	n/a	7	11	5	4	2
864855	PROB	n/a	LTP313	ltpFR2	1	n/a	n/a	n/a	7	14	6	5	3
866072	PROB	n/a	LTP313	ltpFR2	1	n/a	n/a	n/a	7	8	2	1	5
867090	PROB	n/a	LTP313	ltpFR2	1	n/a	n/a	n/a	7	12	2	9	1
868107	PROB	n/a	LTP313	ltpFR2	1	n/a	n/a	n/a	7	12	4	1	7
869242	PROB	n/a	LTP313	ltpFR2	1	n/a	n/a	n/a	7	14	8	4	2
870308	PROB	n/a	LTP313	ltpFR2	1	n/a	n/a	n/a	7	11	6	1	4
871478	PROB	n/a	LTP313	ltpFR2	1	n/a	n/a	n/a	7	19	6	8	5
872879	PROB	n/a	LTP313	ltpFR2	1	n/a	n/a	n/a	7	11	7	2	2
873921	STOP	n/a	LTP313	ltpFR2	1	n/a	n/a	n/a	7	n/a	n/a	n/a	n/a
875848	WORD	wordpools/wasnorm_wordpool_576.txt	LTP313	ltpFR2	1	5	ASIA	46	n/a	n/a	0	0	0
878618	WORD	wordpools/wasnorm_wordpool_576.txt	LTP313	ltpFR2	1	5	EUROPE	541	n/a	n/a	0	0	0
881401	WORD	wordpools/wasnorm_wordpool_576.txt	LTP313	ltpFR2	1	5	JURY	766	n/a	n/a	0	0	0
884171	WORD	wordpools/wasnorm_wordpool_576.txt	LTP313	ltpFR2	1	5	HERO	706	n/a	n/a	0	0	0
886875	WORD	wordpools/wasnorm_wordpool_576.txt	LTP313	ltpFR2	1	5	BURGLAR	200	n/a	n/a	0	0	0
889476	WORD	wordpools/wasnorm_wordpool_576.txt	LTP313	ltpFR2	1	5	GUITAR	670	n/a	n/a	0	0	0
892295	WORD	wordpools/wasnorm_wordpool_576.txt	LTP313	ltpFR2	1	5	WHISTLE	1606	n/a	n/a	0	0	0
894747	WORD	wordpools/wasnorm_wordpool_576.txt	LTP313	ltpFR2	1	5	DONOR	485	n/a	n/a	0	0	0
897215	WORD	wordpools/wasnorm_wordpool_576.txt	LTP313	ltpFR2	1	5	FRAME	600	n/a	n/a	0	0	0
899719	WORD	wordpools/wasnorm_wordpool_576.txt	LTP313	ltpFR2	1	5	TUTU	1524	n/a	n/a	0	0	0
902485	WORD	wordpools/wasnorm_wordpool_576.txt	LTP313	ltpFR2	1	5	LIVER	833	n/a	n/a	0	0	0
905288	WORD	wordpools/wasnorm_wordpool_576.txt	LTP313	ltpFR2	1	5	LABEL	790	n/a	n/a	0	0	0
908076	WORD	wordpools/wasnorm_wordpool_576.txt	LTP313	ltpFR2	1	5	JUNGLE	764	n/a	n/a	0	0	0
910828	WORD	wordpools/wasnorm_wordpool_576.txt	LTP313	ltpFR2	1	5	SEAL	1262	n/a	n/a	0	0	0
913544	WORD	wordpools/wasnorm_wordpool_576.txt	LTP313	ltpFR2	1	5	CRAYON	401	n/a	n/a	0	0	0
916279	WORD	wordpools/wasnorm_wordpool_576.txt	LTP313	ltpFR2	1	5	MOTEL	919	n/a	n/a	0	0	0
918849	WORD	wordpools/wasnorm_wordpool_576.txt	LTP313	ltpFR2	1	5	TWIG	1527	n/a	n/a	0	0	0
921619	WORD	wordpools/wasnorm_wordpool_576.txt	LTP313	ltpFR2	1	5	WITNESS	1618	n/a	n/a	0	0	0
924253	WORD	wordpools/wasnorm_wordpool_576.txt	LTP313	ltpFR2	1	5	JAPAN	749	n/a	n/a	0	0	0
927056	WORD	wordpools/wasnorm_wordpool_576.txt	LTP313	ltpFR2	1	5	FEMALE	559	n/a	n/a	0	0	0
929858	WORD	wordpools/wasnorm_wordpool_576.txt	LTP313	ltpFR2	1	5	PANTHER	1009	n/a	n/a	0	0	0
932542	WORD	wordpools/wasnorm_wordpool_576.txt	LTP313	ltpFR2	1	5	AGENT	10	n/a	n/a	0	0	0
935014	WORD	wordpools/wasnorm_wordpool_576.txt	LTP313	ltpFR2	1	5	TABLE	1426	n/a	n/a	0	0	0
937732	WORD	wordpools/wasnorm_wordpool_576.txt	LTP313	ltpFR2	1	5	PADDING	999	n/a	n/a	0	0	0
939349	START	n/a	LTP313	ltpFR2	1	n/a	n/a	n/a	8	n/a	n/a	n/a	n/a
940270	DISTRACTOR	n/a	LTP313	ltpFR2	1	5	n/a	n/a	n/a	n/a	0	0	0
940281	PROB	n/a	LTP313	ltpFR2	1	n/a	n/a	n/a	8	16	5	8	3
942117	PROB	n/a	LTP313	ltpFR2	1	n/a	n/a	n/a	8	11	2	3	6
943333	PROB	n/a	LTP313	ltpFR2	1	n/a	n/a	n/a	8	17	6	5	6
944333	PROB	n/a	LTP313	ltpFR2	1	n/a	n/a	n/a	8	15	6	4	5
945251	PROB	n/a	LTP313	ltpFR2	1	n/a	n/a	n/a	8	15	3	5	7
946290	PROB	n/a	LTP313	ltpFR2	1	n/a	n/a	n/a	8	8	4	1	3
947302	PROB	n/a	LTP313	ltpFR2	1	n/a	n/a	n/a	8	11	1	7	3
948921	PROB	n/a	LTP313	ltpFR2	1	n/a	n/a	n/a	8	16	6	2	8
950138	PROB	n/a	LTP313	ltpFR2	1	n/a	n/a	n/a	8	10	3	2	5
951842	PROB	n/a	LTP313	ltpFR2	1	n/a	n/a	n/a	8	24	9	8	7
953880	PROB	n/a	LTP313	ltpFR2	1	n/a	n/a	n/a	8	15	5	2	8
955196	PROB	n/a	LTP313	ltpFR2	1	n/a	n/a	n/a	8	14	6	1	7
956246	PROB	n/a	LTP313	ltpFR2	1	n/a	n/a	n/a	8	9	4	3	2
957248	PROB	n/a	LTP313	ltpFR2	1	n/a	n/a	n/a	8	19	8	8	3
958332	PROB	n/a	LTP313	ltpFR2	1	n/a	n/a	n/a	8	17	2	7	8
959434	PROB	n/a	LTP313	ltpFR2	1	n/a	n/a	n/a	8	17	8	7	2
960567	PROB	n/a	LTP313	ltpFR2	1	n/a	n/a	n/a	8	24	7	8	9
962288	STOP	n/a	LTP313	ltpFR2	1	n/a	n/a	n/a	8	n/a	n/a	n/a	n/a
965273	REC_START	n/a	LTP313	ltpFR2	1	5	n/a	n/a	n/a	n/a	0	0	0
967759	REC_WORD	wordpools/wasnorm_wordpool_576.txt	LTP313	ltpFR2	1	5	PADDING	999	n/a	n/a	0	0	0
971512	REC_WORD	wordpools/wasnorm_wordpool_576.txt	LTP313	ltpFR2	1	5	PANTHER	1009	n/a	n/a	0	0	0
975365	REC_WORD	wordpools/wasnorm_wordpool_576.txt	LTP313	ltpFR2	1	5	AGENT	10	n/a	n/a	0	0	0
977371	REC_WORD	wordpools/wasnorm_wordpool_576.txt	LTP313	ltpFR2	1	5	TABLE	1426	n/a	n/a	0	0	0
986238	REC_WORD	wordpools/wasnorm_wordpool_576.txt	LTP313	ltpFR2	1	5	TUTU	1524	n/a	n/a	0	0	0
991536	REC_WORD	wordpools/wasnorm_wordpool_576.txt	LTP313	ltpFR2	1	5	ASIA	46	n/a	n/a	0	0	0
992661	REC_WORD	wordpools/wasnorm_wordpool_576.txt	LTP313	ltpFR2	1	5	EUROPE	541	n/a	n/a	0	0	0
997064	REC_WORD	wordpools/wasnorm_wordpool_576.txt	LTP313	ltpFR2	1	5	HERO	706	n/a	n/a	0	0	0
1009393	REC_WORD	wordpools/wasnorm_wordpool_576.txt	LTP313	ltpFR2	1	5	JURY	766	n/a	n/a	0	0	0
1010336	REC_WORD	wordpools/wasnorm_wordpool_576.txt	LTP313	ltpFR2	1	5	GUITAR	670	n/a	n/a	0	0	0
1012588	REC_WORD	wordpools/wasnorm_wordpool_576.txt	LTP313	ltpFR2	1	5	BURGLAR	200	n/a	n/a	0	0	0
1015833	REC_WORD	wordpools/wasnorm_wordpool_576.txt	LTP313	ltpFR2	1	5	DONOR	485	n/a	n/a	0	0	0
1017140	REC_WORD	wordpools/wasnorm_wordpool_576.txt	LTP313	ltpFR2	1	5	LIVER	833	n/a	n/a	0	0	0
1019403	REC_WORD	wordpools/wasnorm_wordpool_576.txt	LTP313	ltpFR2	1	5	FRAME	600	n/a	n/a	0	0	0
1024516	REC_WORD	wordpools/wasnorm_wordpool_576.txt	LTP313	ltpFR2	1	5	JUNGLE	764	n/a	n/a	0	0	0
1025497	REC_WORD	wordpools/wasnorm_wordpool_576.txt	LTP313	ltpFR2	1	5	SEAL	1262	n/a	n/a	0	0	0
1034672	REC_WORD	wordpools/wasnorm_wordpool_576.txt	LTP313	ltpFR2	1	5	MOTEL	919	n/a	n/a	0	0	0
1037081	REC_WORD	wordpools/wasnorm_wordpool_576.txt	LTP313	ltpFR2	1	5	TWIG	1527	n/a	n/a	0	0	0
1037812	REC_WORD	wordpools/wasnorm_wordpool_576.txt	LTP313	ltpFR2	1	5	CRAYON	401	n/a	n/a	0	0	0
1055698	DISTRACTOR	n/a	LTP313	ltpFR2	1	6	n/a	n/a	n/a	n/a	0	0	0
1055698	START	n/a	LTP313	ltpFR2	1	n/a	n/a	n/a	9	n/a	n/a	n/a	n/a
1055714	PROB	n/a	LTP313	ltpFR2	1	n/a	n/a	n/a	9	12	6	4	2
1056965	PROB	n/a	LTP313	ltpFR2	1	n/a	n/a	n/a	9	11	6	1	4
1057984	PROB	n/a	LTP313	ltpFR2	1	n/a	n/a	n/a	9	14	4	2	8
1059399	PROB	n/a	LTP313	ltpFR2	1	n/a	n/a	n/a	9	21	8	5	8
1060600	PROB	n/a	LTP313	ltpFR2	1	n/a	n/a	n/a	9	10	7	1	2
1062104	PROB	n/a	LTP313	ltpFR2	1	n/a	n/a	n/a	9	15	3	6	6
1063152	PROB	n/a	LTP313	ltpFR2	1	n/a	n/a	n/a	9	20	9	6	5
1064387	PROB	n/a	LTP313	ltpFR2	1	n/a	n/a	n/a	9	10	8	1	1
1066323	PROB	n/a	LTP313	ltpFR2	1	n/a	n/a	n/a	9	13	4	2	7
1067657	PROB	n/a	LTP313	ltpFR2	1	n/a	n/a	n/a	9	20	8	4	8
1068707	PROB	n/a	LTP313	ltpFR2	1	n/a	n/a	n/a	9	19	5	7	7
1069892	PROB	n/a	LTP313	ltpFR2	1	n/a	n/a	n/a	9	21	9	8	4
1071010	PROB	n/a	LTP313	ltpFR2	1	n/a	n/a	n/a	9	12	1	5	6
1072011	PROB	n/a	LTP313	ltpFR2	1	n/a	n/a	n/a	9	13	5	6	2
1073327	PROB	n/a	LTP313	ltpFR2	1	n/a	n/a	n/a	9	26	8	9	9
1074980	PROB	n/a	LTP313	ltpFR2	1	n/a	n/a	n/a	9	14	2	7	5
1076180	PROB	n/a	LTP313	ltpFR2	1	n/a	n/a	n/a	9	17	4	8	5
1077363	PROB	n/a	LTP313	ltpFR2	1	n/a	n/a	n/a	9	14	5	5	4
1078256	STOP	n/a	LTP313	ltpFR2	1	n/a	n/a	n/a	9	n/a	n/a	n/a	n/a
1080703	WORD	wordpools/wasnorm_wordpool_576.txt	LTP313	ltpFR2	1	6	VELVET	1555	n/a	n/a	0	0	0
1083354	WORD	wordpools/wasnorm_wordpool_576.txt	LTP313	ltpFR2	1	6	INMATE	738	n/a	n/a	0	0	0
1086040	WORD	wordpools/wasnorm_wordpool_576.txt	LTP313	ltpFR2	1	6	SALMON	1227	n/a	n/a	0	0	0
1088826	WORD	wordpools/wasnorm_wordpool_576.txt	LTP313	ltpFR2	1	6	COUSIN	392	n/a	n/a	0	0	0
1091376	WORD	wordpools/wasnorm_wordpool_576.txt	LTP313	ltpFR2	1	6	PILOT	1070	n/a	n/a	0	0	0
1094146	WORD	wordpools/wasnorm_wordpool_576.txt	LTP313	ltpFR2	1	6	WORKER	1621	n/a	n/a	0	0	0
1096783	WORD	wordpools/wasnorm_wordpool_576.txt	LTP313	ltpFR2	1	6	SIBLING	1301	n/a	n/a	0	0	0
1099434	WORD	wordpools/wasnorm_wordpool_576.txt	LTP313	ltpFR2	1	6	SHOULDER	1294	n/a	n/a	0	0	0
1102203	WORD	wordpools/wasnorm_wordpool_576.txt	LTP313	ltpFR2	1	6	FLIPPER	580	n/a	n/a	0	0	0
1104689	WORD	wordpools/wasnorm_wordpool_576.txt	LTP313	ltpFR2	1	6	PARSLEY	1016	n/a	n/a	0	0	0
1107474	WORD	wordpools/wasnorm_wordpool_576.txt	LTP313	ltpFR2	1	6	NAPKIN	937	n/a	n/a	0	0	0
1109927	WORD	wordpools/wasnorm_wordpool_576.txt	LTP313	ltpFR2	1	6	CREATURE	403	n/a	n/a	0	0	0
1112378	WORD	wordpools/wasnorm_wordpool_576.txt	LTP313	ltpFR2	1	6	WOMAN	1620	n/a	n/a	0	0	0
1114964	WORD	wordpools/wasnorm_wordpool_576.txt	LTP313	ltpFR2	1	6	CHAMPAGNE	278	n/a	n/a	0	0	0
1117649	WORD	wordpools/wasnorm_wordpool_576.txt	LTP313	ltpFR2	1	6	CYCLONE	431	n/a	n/a	0	0	0
1120418	WORD	wordpools/wasnorm_wordpool_576.txt	LTP313	ltpFR2	1	6	CLOUD	328	n/a	n/a	0	0	0
1123153	WORD	wordpools/wasnorm_wordpool_576.txt	LTP313	ltpFR2	1	6	BARREL	91	n/a	n/a	0	0	0
1125807	WORD	wordpools/wasnorm_wordpool_576.txt	LTP313	ltpFR2	1	6	DOLPHIN	483	n/a	n/a	0	0	0
1128609	WORD	wordpools/wasnorm_wordpool_576.txt	LTP313	ltpFR2	1	6	CABBAGE	210	n/a	n/a	0	0	0
1131360	WORD	wordpools/wasnorm_wordpool_576.txt	LTP313	ltpFR2	1	6	MILDEW	893	n/a	n/a	0	0	0
1133980	WORD	wordpools/wasnorm_wordpool_576.txt	LTP313	ltpFR2	1	6	TURKEY	1520	n/a	n/a	0	0	0
1136481	WORD	wordpools/wasnorm_wordpool_576.txt	LTP313	ltpFR2	1	6	RATTLE	1170	n/a	n/a	0	0	0
1139133	WORD	wordpools/wasnorm_wordpool_576.txt	LTP313	ltpFR2	1	6	SNAKE	1333	n/a	n/a	0	0	0
1141936	WORD	wordpools/wasnorm_wordpool_576.txt	LTP313	ltpFR2	1	6	VIRUS	1572	n/a	n/a	0	0	0
1143554	START	n/a	LTP313	ltpFR2	1	n/a	n/a	n/a	10	n/a	n/a	n/a	n/a
1144706	DISTRACTOR	n/a	LTP313	ltpFR2	1	6	n/a	n/a	n/a	n/a	0	0	0
1144722	PROB	n/a	LTP313	ltpFR2	1	n/a	n/a	n/a	10	13	5	5	3
1146106	PROB	n/a	LTP313	ltpFR2	1	n/a	n/a	n/a	10	15	5	3	7
1147790	PROB	n/a	LTP313	ltpFR2	1	n/a	n/a	n/a	10	21	8	5	7
1149008	PROB	n/a	LTP313	ltpFR2	1	n/a	n/a	n/a	10	13	7	3	3
1150409	PROB	n/a	LTP313	ltpFR2	1	n/a	n/a	n/a	10	12	6	5	1
1151308	PROB	n/a	LTP313	ltpFR2	1	n/a	n/a	n/a	10	13	4	6	3
1152293	PROB	n/a	LTP313	ltpFR2	1	n/a	n/a	n/a	10	17	5	4	8
1153511	PROB	n/a	LTP313	ltpFR2	1	n/a	n/a	n/a	10	20	6	8	6
1154764	PROB	n/a	LTP313	ltpFR2	1	n/a	n/a	n/a	10	14	2	8	4
1155999	PROB	n/a	LTP313	ltpFR2	1	n/a	n/a	n/a	10	18	4	8	6
1157415	PROB	n/a	LTP313	ltpFR2	1	n/a	n/a	n/a	10	14	8	5	1
1158598	PROB	n/a	LTP313	ltpFR2	1	n/a	n/a	n/a	10	9	4	2	3
1159801	PROB	n/a	LTP313	ltpFR2	1	n/a	n/a	n/a	10	19	3	9	7
1161283	PROB	n/a	LTP313	ltpFR2	1	n/a	n/a	n/a	10	14	1	9	4
1162351	PROB	n/a	LTP313	ltpFR2	1	n/a	n/a	n/a	10	22	8	9	5
1163936	PROB	n/a	LTP313	ltpFR2	1	n/a	n/a	n/a	10	15	1	8	6
1165056	PROB	n/a	LTP313	ltpFR2	1	n/a	n/a	n/a	10	20	8	5	7
1166560	STOP	n/a	LTP313	ltpFR2	1	n/a	n/a	n/a	10	n/a	n/a	n/a	n/a
1169476	REC_START	n/a	LTP313	ltpFR2	1	6	n/a	n/a	n/a	n/a	0	0	0
1169476	REC_WORD_VV	wordpools/wasnorm_wordpool_576.txt	LTP313	ltpFR2	1	6	<>	-1	n/a	n/a	0	0	0
1172364	REC_WORD	wordpools/wasnorm_wordpool_576.txt	LTP313	ltpFR2	1	6	RATTLE	1170	n/a	n/a	0	0	0
1174257	REC_WORD	wordpools/wasnorm_wordpool_576.txt	LTP313	ltpFR2	1	6	TURKEY	1520	n/a	n/a	0	0	0
1176073	REC_WORD	wordpools/wasnorm_wordpool_576.txt	LTP313	ltpFR2	1	6	SNAKE	1333	n/a	n/a	0	0	0
1182041	REC_WORD	wordpools/wasnorm_wordpool_576.txt	LTP313	ltpFR2	1	6	INMATE	738	n/a	n/a	0	0	0
1183464	REC_WORD	wordpools/wasnorm_wordpool_576.txt	LTP313	ltpFR2	1	6	SALMON	1227	n/a	n/a	0	0	0
1185570	REC_WORD	wordpools/wasnorm_wordpool_576.txt	LTP313	ltpFR2	1	6	VELVET	1555	n/a	n/a	0	0	0
1188653	REC_WORD	wordpools/wasnorm_wordpool_576.txt	LTP313	ltpFR2	1	6	COUSIN	392	n/a	n/a	0	0	0
1190541	REC_WORD	wordpools/wasnorm_wordpool_576.txt	LTP313	ltpFR2	1	6	PILOT	1070	n/a	n/a	0	0	0
1192819	REC_WORD	wordpools/wasnorm_wordpool_576.txt	LTP313	ltpFR2	1	6	SIBLING	1301	n/a	n/a	0	0	0
1196257	REC_WORD	wordpools/wasnorm_wordpool_576.txt	LTP313	ltpFR2	1	6	SHOULDER	1294	n/a	n/a	0	0	0
1203611	REC_WORD	wordpools/wasnorm_wordpool_576.txt	LTP313	ltpFR2	1	6	PARSLEY	1016	n/a	n/a	0	0	0
1204825	REC_WORD	wordpools/wasnorm_wordpool_576.txt	LTP313	ltpFR2	1	6	NAPKIN	937	n/a	n/a	0	0	0
1208410	REC_WORD	wordpools/wasnorm_wordpool_576.txt	LTP313	ltpFR2	1	6	CREATURE	403	n/a	n/a	0	0	0
1209909	REC_WORD	wordpools/wasnorm_wordpool_576.txt	LTP313	ltpFR2	1	6	WOMAN	1620	n/a	n/a	0	0	0
1224595	REC_WORD	wordpools/wasnorm_wordpool_576.txt	LTP313	ltpFR2	1	6	CHAMPAGNE	278	n/a	n/a	0	0	0
1226255	REC_WORD	wordpools/wasnorm_wordpool_576.txt	LTP313	ltpFR2	1	6	CYCLONE	431	n/a	n/a	0	0	0
1230254	REC_WORD	wordpools/wasnorm_wordpool_576.txt	LTP313	ltpFR2	1	6	CLOUD	328	n/a	n/a	0	0	0
1237769	REC_WORD	wordpools/wasnorm_wordpool_576.txt	LTP313	ltpFR2	1	6	MILDEW	893	n/a	n/a	0	0	0
1259916	WORD	wordpools/wasnorm_wordpool_576.txt	LTP313	ltpFR2	1	7	TURNIP	1521	n/a	n/a	0	0	0
1262336	WORD	wordpools/wasnorm_wordpool_576.txt	LTP313	ltpFR2	1	7	ORCHID	982	n/a	n/a	0	0	0
1265056	WORD	wordpools/wasnorm_wordpool_576.txt	LTP313	ltpFR2	1	7	RUST	1219	n/a	n/a	0	0	0
1267615	WORD	wordpools/wasnorm_wordpool_576.txt	LTP313	ltpFR2	1	7	SUSPECT	1415	n/a	n/a	0	0	0
1270034	WORD	wordpools/wasnorm_wordpool_576.txt	LTP313	ltpFR2	1	7	DRAGON	492	n/a	n/a	0	0	0
1272519	WORD	wordpools/wasnorm_wordpool_576.txt	LTP313	ltpFR2	1	7	SUMMIT	1405	n/a	n/a	0	0	0
1275330	WORD	wordpools/wasnorm_wordpool_576.txt	LTP313	ltpFR2	1	7	WARDROBE	1587	n/a	n/a	0	0	0
1277867	WORD	wordpools/wasnorm_wordpool_576.txt	LTP313	ltpFR2	1	7	SODA	1341	n/a	n/a	0	0	0
1280525	WORD	wordpools/wasnorm_wordpool_576.txt	LTP313	ltpFR2	1	7	SPOOL	1356	n/a	n/a	0	0	0
1283253	WORD	wordpools/wasnorm_wordpool_576.txt	LTP313	ltpFR2	1	7	FARMER	553	n/a	n/a	0	0	0
1285830	WORD	wordpools/wasnorm_wordpool_576.txt	LTP313	ltpFR2	1	7	ATOM	55	n/a	n/a	0	0	0
1288513	WORD	wordpools/wasnorm_wordpool_576.txt	LTP313	ltpFR2	1	7	DIVER	476	n/a	n/a	0	0	0
1291310	WORD	wordpools/wasnorm_wordpool_576.txt	LTP313	ltpFR2	1	7	HAND	683	n/a	n/a	0	0	0
1294030	WORD	wordpools/wasnorm_wordpool_576.txt	LTP313	ltpFR2	1	7	POWDER	1117	n/a	n/a	0	0	0
1296716	WORD	wordpools/wasnorm_wordpool_576.txt	LTP313	ltpFR2	1	7	AIRPORT	13	n/a	n/a	0	0	0
1299332	WORD	wordpools/wasnorm_wordpool_576.txt	LTP313	ltpFR2	1	7	KETCHUP	771	n/a	n/a	0	0	0
1301859	WORD	wordpools/wasnorm_wordpool_576.txt	LTP313	ltpFR2	1	7	HIKER	708	n/a	n/a	0	0	0
1304321	WORD	wordpools/wasnorm_wordpool_576.txt	LTP313	ltpFR2	1	7	GLOVE	642	n/a	n/a	0	0	0
1306874	WORD	wordpools/wasnorm_wordpool_576.txt	LTP313	ltpFR2	1	7	BANQUET	86	n/a	n/a	0	0	0
1309396	WORD	wordpools/wasnorm_wordpool_576.txt	LTP313	ltpFR2	1	7	MOP	916	n/a	n/a	0	0	0
1312193	WORD	wordpools/wasnorm_wordpool_576.txt	LTP313	ltpFR2	1	7	SKETCH	1315	n/a	n/a	0	0	0
1314963	WORD	wordpools/wasnorm_wordpool_576.txt	LTP313	ltpFR2	1	7	BULLET	194	n/a	n/a	0	0	0
1317688	WORD	wordpools/wasnorm_wordpool_576.txt	LTP313	ltpFR2	1	7	BALLOON	75	n/a	n/a	0	0	0
1320287	WORD	wordpools/wasnorm_wordpool_576.txt	LTP313	ltpFR2	1	7	OZONE	996	n/a	n/a	0	0	0
1321891	START	n/a	LTP313	ltpFR2	1	n/a	n/a	n/a	11	n/a	n/a	n/a	n/a
1322793	DISTRACTOR	n/a	LTP313	ltpFR2	1	7	n/a	n/a	n/a	n/a	0	0	0
1322804	PROB	n/a	LTP313	ltpFR2	1	n/a	n/a	n/a	11	11	3	7	1
1324303	PROB	n/a	LTP313	ltpFR2	1	n/a	n/a	n/a	11	15	3	7	5
1325270	PROB	n/a	LTP313	ltpFR2	1	n/a	n/a	n/a	11	17	8	5	4
1326874	PROB	n/a	LTP313	ltpFR2	1	n/a	n/a	n/a	11	14	4	5	5
1328374	PROB	n/a	LTP313	ltpFR2	1	n/a	n/a	n/a	11	18	7	6	5
1329591	PROB	n/a	LTP313	ltpFR2	1	n/a	n/a	n/a	11	15	1	8	6
1331508	PROB	n/a	LTP313	ltpFR2	1	n/a	n/a	n/a	11	9	4	1	4
1332629	PROB	n/a	LTP313	ltpFR2	1	n/a	n/a	n/a	11	17	9	5	3
1333779	PROB	n/a	LTP313	ltpFR2	1	n/a	n/a	n/a	11	14	2	6	6
1335598	PROB	n/a	LTP313	ltpFR2	1	n/a	n/a	n/a	11	17	6	2	9
1337332	PROB	n/a	LTP313	ltpFR2	1	n/a	n/a	n/a	11	21	9	5	7
1338600	PROB	n/a	LTP313	ltpFR2	1	n/a	n/a	n/a	11	9	3	1	5
1341117	PROB	n/a	LTP313	ltpFR2	1	n/a	n/a	n/a	11	16	6	7	3
1342250	PROB	n/a	LTP313	ltpFR2	1	n/a	n/a	n/a	11	21	5	9	7
1344408	STOP	n/a	LTP313	ltpFR2	1	n/a	n/a	n/a	11	n/a	n/a	n/a	n/a
1347673	REC_START	n/a	LTP313	ltpFR2	1	7	n/a	n/a	n/a	n/a	0	0	0
1348798	REC_WORD	wordpools/wasnorm_wordpool_576.txt	LTP313	ltpFR2	1	7	MOP	916	n/a	n/a	0	0	0
1350023	REC_WORD	wordpools/wasnorm_wordpool_576.txt	LTP313	ltpFR2	1	7	SKETCH	1315	n/a	n/a	0	0	0
1351023	REC_WORD_VV	wordpools/wasnorm_wordpool_576.txt	LTP313	ltpFR2	1	7	<>	-1	n/a	n/a	0	0	0
1351928	REC_WORD	wordpools/wasnorm_wordpool_576.txt	LTP313	ltpFR2	1	7	BULLET	194	n/a	n/a	0	0	0
1353352	REC_WORD	wordpools/wasnorm_wordpool_576.txt	LTP313	ltpFR2	1	7	BALLOON	75	n/a	n/a	0	0	0
1355789	REC_WORD	wordpools/wasnorm_wordpool_576.txt	LTP313	ltpFR2	1	7	OZONE	996	n/a	n/a	0	0	0
1378172	REC_WORD	wordpools/wasnorm_wordpool_576.txt	LTP313	ltpFR2	1	7	FARMER	553	n/a	n/a	0	0	0
1379787	REC_WORD	wordpools/wasnorm_wordpool_576.txt	LTP313	ltpFR2	1	7	DIVER	476	n/a	n/a	0	0	0
1381019	REC_WORD	wordpools/wasnorm_wordpool_576.txt	LTP313	ltpFR2	1	7	HIKER	708	n/a	n/a	0	0	0
1382435	REC_WORD	wordpools/wasnorm_wordpool_576.txt	LTP313	ltpFR2	1	7	GLOVE	642	n/a	n/a	0	0	0
1383810	REC_WORD	wordpools/wasnorm_wordpool_576.txt	LTP313	ltpFR2	1	7	BANQUET	86	n/a	n/a	0	0	0
1386737	REC_WORD	wordpools/wasnorm_wordpool_576.txt	LTP313	ltpFR2	1	7	RUST	1219	n/a	n/a	0	0	0
1388033	REC_WORD	wordpools/wasnorm_wordpool_576.txt	LTP313	ltpFR2	1	7	ORCHID	982	n/a	n/a	0	0	0
1389464	REC_WORD	wordpools/wasnorm_wordpool_576.txt	LTP313	ltpFR2	1	7	TURNIP	1521	n/a	n/a	0	0	0
1392035	REC_WORD	wordpools/wasnorm_wordpool_576.txt	LTP313	ltpFR2	1	7	DRAGON	492	n/a	n/a	0	0	0
1393884	REC_WORD	wordpools/wasnorm_wordpool_576.txt	LTP313	ltpFR2	1	7	SODA	1341	n/a	n/a	0	0	0
1395248	REC_WORD	wordpools/wasnorm_wordpool_576.txt	LTP313	ltpFR2	1	7	SPOOL	1356	n/a	n/a	0	0	0
1399691	REC_WORD	wordpools/wasnorm_wordpool_576.txt	LTP313	ltpFR2	1	7	WARDROBE	1587	n/a	n/a	0	0	0
1409470	REC_WORD	wordpools/wasnorm_wordpool_576.txt	LTP313	ltpFR2	1	7	ATOM	55	n/a	n/a	0	0	0
1438097	DISTRACTOR	n/a	LTP313	ltpFR2	1	8	n/a	n/a	n/a	n/a	0	0	0
1438097	START	n/a	LTP313	ltpFR2	1	n/a	n/a	n/a	12	n/a	n/a	n/a	n/a
1438111	PROB	n/a	LTP313	ltpFR2	1	n/a	n/a	n/a	12	10	2	3	5
1439984	PROB	n/a	LTP313	ltpFR2	1	n/a	n/a	n/a	12	14	5	7	2
1440953	PROB	n/a	LTP313	ltpFR2	1	n/a	n/a	n/a	12	20	6	6	8
1442735	PROB	n/a	LTP313	ltpFR2	1	n/a	n/a	n/a	12	19	7	9	3
1443920	PROB	n/a	LTP313	ltpFR2	1	n/a	n/a	n/a	12	14	7	5	2
1444987	PROB	n/a	LTP313	ltpFR2	1	n/a	n/a	n/a	12	17	1	9	7
1446205	PROB	n/a	LTP313	ltpFR2	1	n/a	n/a	n/a	12	13	4	7	2
1447355	PROB	n/a	LTP313	ltpFR2	1	n/a	n/a	n/a	12	15	6	5	4
1448406	PROB	n/a	LTP313	ltpFR2	1	n/a	n/a	n/a	12	18	8	3	7
1449474	PROB	n/a	LTP313	ltpFR2	1	n/a	n/a	n/a	12	16	2	6	8
1450843	PROB	n/a	LTP313	ltpFR2	1	n/a	n/a	n/a	12	21	8	7	6
1452043	PROB	n/a	LTP313	ltpFR2	1	n/a	n/a	n/a	12	13	3	7	3
1453094	PROB	n/a	LTP313	ltpFR2	1	n/a	n/a	n/a	12	22	6	8	8
1455245	PROB	n/a	LTP313	ltpFR2	1	n/a	n/a	n/a	12	11	1	7	3
1456479	PROB	n/a	LTP313	ltpFR2	1	n/a	n/a	n/a	12	8	6	1	1
1457999	PROB	n/a	LTP313	ltpFR2	1	n/a	n/a	n/a	12	9	2	6	1
1459049	PROB	n/a	LTP313	ltpFR2	1	n/a	n/a	n/a	12	9	2	6	1
1459866	PROB	n/a	LTP313	ltpFR2	1	n/a	n/a	n/a	12	17	2	8	7
1460937	STOP	n/a	LTP313	ltpFR2	1	n/a	n/a	n/a	12	n/a	n/a	n/a	n/a
1463014	WORD	wordpools/wasnorm_wordpool_576.txt	LTP313	ltpFR2	1	8	ELBOW	520	n/a	n/a	0	0	0
1465432	WORD	wordpools/wasnorm_wordpool_576.txt	LTP313	ltpFR2	1	8	RECORD	1176	n/a	n/a	0	0	0
1468085	WORD	wordpools/wasnorm_wordpool_576.txt	LTP313	ltpFR2	1	8	BLACKBOARD	133	n/a	n/a	0	0	0
1470853	WORD	wordpools/wasnorm_wordpool_576.txt	LTP313	ltpFR2	1	8	BOARD	143	n/a	n/a	0	0	0
1473337	WORD	wordpools/wasnorm_wordpool_576.txt	LTP313	ltpFR2	1	8	COD	340	n/a	n/a	0	0	0
1476125	WORD	wordpools/wasnorm_wordpool_576.txt	LTP313	ltpFR2	1	8	SILK	1307	n/a	n/a	0	0	0
1478549	WORD	wordpools/wasnorm_wordpool_576.txt	LTP313	ltpFR2	1	8	SERVER	1272	n/a	n/a	0	0	0
1481118	WORD	wordpools/wasnorm_wordpool_576.txt	LTP313	ltpFR2	1	8	LEADER	807	n/a	n/a	0	0	0
1483820	WORD	wordpools/wasnorm_wordpool_576.txt	LTP313	ltpFR2	1	8	SHOVEL	1295	n/a	n/a	0	0	0
1486490	WORD	wordpools/wasnorm_wordpool_576.txt	LTP313	ltpFR2	1	8	PLATE	1086	n/a	n/a	0	0	0
1489267	WORD	wordpools/wasnorm_wordpool_576.txt	LTP313	ltpFR2	1	8	CLAM	315	n/a	n/a	0	0	0
1491920	WORD	wordpools/wasnorm_wordpool_576.txt	LTP313	ltpFR2	1	8	CRICKET	408	n/a	n/a	0	0	0
1494479	WORD	wordpools/wasnorm_wordpool_576.txt	LTP313	ltpFR2	1	8	SOFTBALL	1343	n/a	n/a	0	0	0
1497299	WORD	wordpools/wasnorm_wordpool_576.txt	LTP313	ltpFR2	1	8	ROBOT	1200	n/a	n/a	0	0	0
1500027	WORD	wordpools/wasnorm_wordpool_576.txt	LTP313	ltpFR2	1	8	CRAB	397	n/a	n/a	0	0	0
1502587	WORD	wordpools/wasnorm_wordpool_576.txt	LTP313	ltpFR2	1	8	KNIFE	785	n/a	n/a	0	0	0
1505072	WORD	wordpools/wasnorm_wordpool_576.txt	LTP313	ltpFR2	1	8	BUTCHER	203	n/a	n/a	0	0	0
1507833	WORD	wordpools/wasnorm_wordpool_576.txt	LTP313	ltpFR2	1	8	LAVA	804	n/a	n/a	0	0	0
1510426	WORD	wordpools/wasnorm_wordpool_576.txt	LTP313	ltpFR2	1	8	FLOWER	584	n/a	n/a	0	0	0
1513112	WORD	wordpools/wasnorm_wordpool_576.txt	LTP313	ltpFR2	1	8	RAZOR	1171	n/a	n/a	0	0	0
1515705	WORD	wordpools/wasnorm_wordpool_576.txt	LTP313	ltpFR2	1	8	COOKBOOK	373	n/a	n/a	0	0	0
1518516	WORD	wordpools/wasnorm_wordpool_576.txt	LTP313	ltpFR2	1	8	INFANT	737	n/a	n/a	0	0	0
1521235	WORD	wordpools/wasnorm_wordpool_576.txt	LTP313	ltpFR2	1	8	RUG	1215	n/a	n/a	0	0	0
1523978	WORD	wordpools/wasnorm_wordpool_576.txt	LTP313	ltpFR2	1	8	BUCKET	184	n/a	n/a	0	0	0
1525589	START	n/a	LTP313	ltpFR2	1	n/a	n/a	n/a	13	n/a	n/a	n/a	n/a
1526483	DISTRACTOR	n/a	LTP313	ltpFR2	1	8	n/a	n/a	n/a	n/a	0	0	0
1526489	PROB	n/a	LTP313	ltpFR2	1	n/a	n/a	n/a	13	14	4	9	1
1528138	PROB	n/a	LTP313	ltpFR2	1	n/a	n/a	n/a	13	16	9	4	3
1529908	PROB	n/a	LTP313	ltpFR2	1	n/a	n/a	n/a	13	16	6	1	9
1531441	PROB	n/a	LTP313	ltpFR2	1	n/a	n/a	n/a	13	14	4	1	9
1532510	PROB	n/a	LTP313	ltpFR2	1	n/a	n/a	n/a	13	10	2	2	6
1533611	PROB	n/a	LTP313	ltpFR2	1	n/a	n/a	n/a	13	10	1	7	2
1534862	PROB	n/a	LTP313	ltpFR2	1	n/a	n/a	n/a	13	13	1	5	7
1536097	PROB	n/a	LTP313	ltpFR2	1	n/a	n/a	n/a	13	19	7	7	6
1539048	PROB	n/a	LTP313	ltpFR2	1	n/a	n/a	n/a	13	14	9	4	1
1540550	PROB	n/a	LTP313	ltpFR2	1	n/a	n/a	n/a	13	10	4	1	5
1541684	PROB	n/a	LTP313	ltpFR2	1	n/a	n/a	n/a	13	14	3	8	3
1544036	PROB	n/a	LTP313	ltpFR2	1	n/a	n/a	n/a	13	18	7	7	4
1545554	PROB	n/a	LTP313	ltpFR2	1	n/a	n/a	n/a	13	16	1	7	8
1546855	PROB	n/a	LTP313	ltpFR2	1	n/a	n/a	n/a	13	11	1	4	6
1548200	STOP	n/a	LTP313	ltpFR2	1	n/a	n/a	n/a	13	n/a	n/a	n/a	n/a
1551375	REC_START	n/a	LTP313	ltpFR2	1	8	n/a	n/a	n/a	n/a	0	0	0
1551375	REC_WORD_VV	wordpools/wasnorm_wordpool_576.txt	LTP313	ltpFR2	1	8	<>	-1	n/a	n/a	0	0	0
1552576	REC_WORD	wordpools/wasnorm_wordpool_576.txt	LTP313	ltpFR2	1	8	RUG	1215	n/a	n/a	0	0	0
1556623	REC_WORD	wordpools/wasnorm_wordpool_576.txt	LTP313	ltpFR2	1	8	INFANT	737	n/a	n/a	0	0	0
1558030	REC_WORD	wordpools/wasnorm_wordpool_576.txt	LTP313	ltpFR2	1	8	LAVA	804	n/a	n/a	0	0	0
1559437	REC_WORD	wordpools/wasnorm_wordpool_576.txt	LTP313	ltpFR2	1	8	COOKBOOK	373	n/a	n/a	0	0	0
1562065	REC_WORD	wordpools/wasnorm_wordpool_576.txt	LTP313	ltpFR2	1	8	FLOWER	584	n/a	n/a	0	0	0
1565992	REC_WORD	wordpools/wasnorm_wordpool_576.txt	LTP313	ltpFR2	1	8	BOARD	143	n/a	n/a	0	0	0
1566949	REC_WORD	wordpools/wasnorm_wordpool_576.txt	LTP313	ltpFR2	1	8	BLACKBOARD	133	n/a	n/a	0	0	0
1568822	REC_WORD	wordpools/wasnorm_wordpool_576.txt	LTP313	ltpFR2	1	8	ELBOW	520	n/a	n/a	0	0	0
1603863	REC_WORD	wordpools/wasnorm_wordpool_576.txt	LTP313	ltpFR2	1	8	SOFTBALL	1343	n/a	n/a	0	0	0
1605101	REC_WORD	wordpools/wasnorm_wordpool_576.txt	LTP313	ltpFR2	1	8	SOFTBALL	1343	n/a	n/a	0	0	0
1608788	REC_WORD	wordpools/wasnorm_wordpool_576.txt	LTP313	ltpFR2	1	8	ROBOT	1200	n/a	n/a	0	0	0
1627907	REST_REWET	n/a	LTP313	ltpFR2	1	8	n/a	n/a	n/a	n/a	0	0	0
2067973	WORD	wordpools/wasnorm_wordpool_576.txt	LTP313	ltpFR2	1	9	TILE	1468	n/a	n/a	0	0	0
2070458	WORD	wordpools/wasnorm_wordpool_576.txt	LTP313	ltpFR2	1	9	ONION	977	n/a	n/a	0	0	0
2073194	WORD	wordpools/wasnorm_wordpool_576.txt	LTP313	ltpFR2	1	9	SLOPE	1328	n/a	n/a	0	0	0
2075897	WORD	wordpools/wasnorm_wordpool_576.txt	LTP313	ltpFR2	1	9	CANYON	235	n/a	n/a	0	0	0
2078682	WORD	wordpools/wasnorm_wordpool_576.txt	LTP313	ltpFR2	1	9	REPORT	1184	n/a	n/a	0	0	0
2081434	WORD	wordpools/wasnorm_wordpool_576.txt	LTP313	ltpFR2	1	9	TRIBE	1505	n/a	n/a	0	0	0
2083903	WORD	wordpools/wasnorm_wordpool_576.txt	LTP313	ltpFR2	1	9	SWIMMER	1420	n/a	n/a	0	0	0
2086405	WORD	wordpools/wasnorm_wordpool_576.txt	LTP313	ltpFR2	1	9	OUTDOORS	987	n/a	n/a	0	0	0
2089109	WORD	wordpools/wasnorm_wordpool_576.txt	LTP313	ltpFR2	1	9	VIKING	1565	n/a	n/a	0	0	0
2091910	WORD	wordpools/wasnorm_wordpool_576.txt	LTP313	ltpFR2	1	9	HUSBAND	728	n/a	n/a	0	0	0
2094612	WORD	wordpools/wasnorm_wordpool_576.txt	LTP313	ltpFR2	1	9	JEANS	752	n/a	n/a	0	0	0
2097431	WORD	wordpools/wasnorm_wordpool_576.txt	LTP313	ltpFR2	1	9	RABBIT	1152	n/a	n/a	0	0	0
2100100	WORD	wordpools/wasnorm_wordpool_576.txt	LTP313	ltpFR2	1	9	LETTUCE	814	n/a	n/a	0	0	0
2102736	WORD	wordpools/wasnorm_wordpool_576.txt	LTP313	ltpFR2	1	9	SHARK	1275	n/a	n/a	0	0	0
2105487	WORD	wordpools/wasnorm_wordpool_576.txt	LTP313	ltpFR2	1	9	DORM	488	n/a	n/a	0	0	0
2107922	WORD	wordpools/wasnorm_wordpool_576.txt	LTP313	ltpFR2	1	9	SERVANT	1271	n/a	n/a	0	0	0
2110357	WORD	wordpools/wasnorm_wordpool_576.txt	LTP313	ltpFR2	1	9	CASHIER	254	n/a	n/a	0	0	0
2113060	WORD	wordpools/wasnorm_wordpool_576.txt	LTP313	ltpFR2	1	9	CIGAR	308	n/a	n/a	0	0	0
2115495	WORD	wordpools/wasnorm_wordpool_576.txt	LTP313	ltpFR2	1	9	CAFE	216	n/a	n/a	0	0	0
2118163	WORD	wordpools/wasnorm_wordpool_576.txt	LTP313	ltpFR2	1	9	COFFEE	341	n/a	n/a	0	0	0
2120934	WORD	wordpools/wasnorm_wordpool_576.txt	LTP313	ltpFR2	1	9	CUPBOARD	425	n/a	n/a	0	0	0
2123484	WORD	wordpools/wasnorm_wordpool_576.txt	LTP313	ltpFR2	1	9	LOFT	840	n/a	n/a	0	0	0
2126120	WORD	wordpools/wasnorm_wordpool_576.txt	LTP313	ltpFR2	1	9	SPOUSE	1358	n/a	n/a	0	0	0
2128791	WORD	wordpools/wasnorm_wordpool_576.txt	LTP313	ltpFR2	1	9	COIN	343	n/a	n/a	0	0	0
2130406	START	n/a	LTP313	ltpFR2	1	n/a	n/a	n/a	14	n/a	n/a	n/a	n/a
2131415	DISTRACTOR	n/a	LTP313	ltpFR2	1	9	n/a	n/a	n/a	n/a	0	0	0
2131422	PROB	n/a	LTP313	ltpFR2	1	n/a	n/a	n/a	14	19	3	7	9
2133240	PROB	n/a	LTP313	ltpFR2	1	n/a	n/a	n/a	14	19	9	4	6
2134975	PROB	n/a	LTP313	ltpFR2	1	n/a	n/a	n/a	14	21	9	4	8
2139114	PROB	n/a	LTP313	ltpFR2	1	n/a	n/a	n/a	14	10	2	6	2
2140212	PROB	n/a	LTP313	ltpFR2	1	n/a	n/a	n/a	14	15	2	5	8
2141764	PROB	n/a	LTP313	ltpFR2	1	n/a	n/a	n/a	14	18	9	2	7
2142881	PROB	n/a	LTP313	ltpFR2	1	n/a	n/a	n/a	14	16	5	2	9
2144416	PROB	n/a	LTP313	ltpFR2	1	n/a	n/a	n/a	14	12	8	1	3
2147250	PROB	n/a	LTP313	ltpFR2	1	n/a	n/a	n/a	14	21	8	7	6
2149691	PROB	n/a	LTP313	ltpFR2	1	n/a	n/a	n/a	14	23	9	5	9
2152105	PROB	n/a	LTP313	ltpFR2	1	n/a	n/a	n/a	14	16	9	3	4
2153625	STOP	n/a	LTP313	ltpFR2	1	n/a	n/a	n/a	14	n/a	n/a	n/a	n/a
2156178	REC_START	n/a	LTP313	ltpFR2	1	9	n/a	n/a	n/a	n/a	0	0	0
2156178	REC_WORD_VV	wordpools/wasnorm_wordpool_576.txt	LTP313	ltpFR2	1	9	<>	-1	n/a	n/a	0	0	0
2157048	REC_WORD	wordpools/wasnorm_wordpool_576.txt	LTP313	ltpFR2	1	9	HUSBAND	728	n/a	n/a	0	0	0
2158398	REC_WORD	wordpools/wasnorm_wordpool_576.txt	LTP313	ltpFR2	1	9	SPOUSE	1358	n/a	n/a	0	0	0
2160112	REC_WORD	wordpools/wasnorm_wordpool_576.txt	LTP313	ltpFR2	1	9	COIN	343	n/a	n/a	0	0	0
2164579	REC_WORD	wordpools/wasnorm_wordpool_576.txt	LTP313	ltpFR2	1	9	TILE	1468	n/a	n/a	0	0	0
2166029	REC_WORD	wordpools/wasnorm_wordpool_576.txt	LTP313	ltpFR2	1	9	ONION	977	n/a	n/a	0	0	0
2167231	REC_WORD	wordpools/wasnorm_wordpool_576.txt	LTP313	ltpFR2	1	9	SLOPE	1328	n/a	n/a	0	0	0
2169754	REC_WORD	wordpools/wasnorm_wordpool_576.txt	LTP313	ltpFR2	1	9	CANYON	235	n/a	n/a	0	0	0
2171598	REC_WORD	wordpools/wasnorm_wordpool_576.txt	LTP313	ltpFR2	1	9	TRIBE	1505	n/a	n/a	0	0	0
2172813	REC_WORD	wordpools/wasnorm_wordpool_576.txt	LTP313	ltpFR2	1	9	SWIMMER	1420	n/a	n/a	0	0	0
2174453	REC_WORD	wordpools/wasnorm_wordpool_576.txt	LTP313	ltpFR2	1	9	REPORT	1184	n/a	n/a	0	0	0
2177936	REC_WORD	wordpools/wasnorm_wordpool_576.txt	LTP313	ltpFR2	1	9	OUTDOORS	987	n/a	n/a	0	0	0
2181169	REC_WORD	wordpools/wasnorm_wordpool_576.txt	LTP313	ltpFR2	1	9	VIKING	1565	n/a	n/a	0	0	0
2183822	REC_WORD	wordpools/wasnorm_wordpool_576.txt	LTP313	ltpFR2	1	9	JEANS	752	n/a	n/a	0	0	0
2186303	REC_WORD	wordpools/wasnorm_wordpool_576.txt	LTP313	ltpFR2	1	9	LOFT	840	n/a	n/a	0	0	0
2198104	REC_WORD	wordpools/wasnorm_wordpool_576.txt	LTP313	ltpFR2	1	9	RABBIT	1152	n/a	n/a	0	0	0
2200177	REC_WORD	wordpools/wasnorm_wordpool_576.txt	LTP313	ltpFR2	1	9	LETTUCE	814	n/a	n/a	0	0	0
2201731	REC_WORD	wordpools/wasnorm_wordpool_576.txt	LTP313	ltpFR2	1	9	SHARK	1275	n/a	n/a	0	0	0
2203409	REC_WORD	wordpools/wasnorm_wordpool_576.txt	LTP313	ltpFR2	1	9	DORM	488	n/a	n/a	0	0	0
2246606	WORD	wordpools/wasnorm_wordpool_576.txt	LTP313	ltpFR2	1	10	UNCLE	1536	n/a	n/a	0	0	0
2249407	WORD	wordpools/wasnorm_wordpool_576.txt	LTP313	ltpFR2	1	10	GUARD	667	n/a	n/a	0	0	0
2251826	WORD	wordpools/wasnorm_wordpool_576.txt	LTP313	ltpFR2	1	10	HANDBAG	684	n/a	n/a	0	0	0
2254267	WORD	wordpools/wasnorm_wordpool_576.txt	LTP313	ltpFR2	1	10	SUITCASE	1403	n/a	n/a	0	0	0
2257030	WORD	wordpools/wasnorm_wordpool_576.txt	LTP313	ltpFR2	1	10	POPCORN	1104	n/a	n/a	0	0	0
2259633	WORD	wordpools/wasnorm_wordpool_576.txt	LTP313	ltpFR2	1	10	ACTRESS	6	n/a	n/a	0	0	0
2262318	WORD	wordpools/wasnorm_wordpool_576.txt	LTP313	ltpFR2	1	10	PERCH	1048	n/a	n/a	0	0	0
2265037	WORD	wordpools/wasnorm_wordpool_576.txt	LTP313	ltpFR2	1	10	SPIDER	1351	n/a	n/a	0	0	0
2267722	WORD	wordpools/wasnorm_wordpool_576.txt	LTP313	ltpFR2	1	10	PRINCESS	1125	n/a	n/a	0	0	0
2270240	WORD	wordpools/wasnorm_wordpool_576.txt	LTP313	ltpFR2	1	10	MAILBOX	857	n/a	n/a	0	0	0
2272993	WORD	wordpools/wasnorm_wordpool_576.txt	LTP313	ltpFR2	1	10	STAMP	1370	n/a	n/a	0	0	0
2275495	WORD	wordpools/wasnorm_wordpool_576.txt	LTP313	ltpFR2	1	10	TOURIST	1488	n/a	n/a	0	0	0
2277986	WORD	wordpools/wasnorm_wordpool_576.txt	LTP313	ltpFR2	1	10	SKILLET	1317	n/a	n/a	0	0	0
2280655	WORD	wordpools/wasnorm_wordpool_576.txt	LTP313	ltpFR2	1	10	FLUTE	585	n/a	n/a	0	0	0
2283452	WORD	wordpools/wasnorm_wordpool_576.txt	LTP313	ltpFR2	1	10	GYMNAST	675	n/a	n/a	0	0	0
2285888	WORD	wordpools/wasnorm_wordpool_576.txt	LTP313	ltpFR2	1	10	GRAVE	658	n/a	n/a	0	0	0
2288392	WORD	wordpools/wasnorm_wordpool_576.txt	LTP313	ltpFR2	1	10	ROBBER	1197	n/a	n/a	0	0	0
2291113	WORD	wordpools/wasnorm_wordpool_576.txt	LTP313	ltpFR2	1	10	BACKBONE	66	n/a	n/a	0	0	0
2293728	WORD	wordpools/wasnorm_wordpool_576.txt	LTP313	ltpFR2	1	10	PIANO	1057	n/a	n/a	0	0	0
2296146	WORD	wordpools/wasnorm_wordpool_576.txt	LTP313	ltpFR2	1	10	POCKET	1093	n/a	n/a	0	0	0
2298681	WORD	wordpools/wasnorm_wordpool_576.txt	LTP313	ltpFR2	1	10	SUBWAY	1400	n/a	n/a	0	0	0
2301216	WORD	wordpools/wasnorm_wordpool_576.txt	LTP313	ltpFR2	1	10	BLUEPRINT	142	n/a	n/a	0	0	0
2303772	WORD	wordpools/wasnorm_wordpool_576.txt	LTP313	ltpFR2	1	10	CONVICT	371	n/a	n/a	0	0	0
2306221	WORD	wordpools/wasnorm_wordpool_576.txt	LTP313	ltpFR2	1	10	LUGGAGE	847	n/a	n/a	0	0	0
2307827	START	n/a	LTP313	ltpFR2	1	n/a	n/a	n/a	15	n/a	n/a	n/a	n/a
2308769	DISTRACTOR	n/a	LTP313	ltpFR2	1	10	n/a	n/a	n/a	n/a	0	0	0
2308774	PROB	n/a	LTP313	ltpFR2	1	n/a	n/a	n/a	15	17	9	1	7
2311658	PROB	n/a	LTP313	ltpFR2	1	n/a	n/a	n/a	15	19	9	9	1
2315029	PROB	n/a	LTP313	ltpFR2	1	n/a	n/a	n/a	15	7	2	1	4
2316262	PROB	n/a	LTP313	ltpFR2	1	n/a	n/a	n/a	15	9	2	4	3
2317647	PROB	n/a	LTP313	ltpFR2	1	n/a	n/a	n/a	15	10	2	4	4
2318966	PROB	n/a	LTP313	ltpFR2	1	n/a	n/a	n/a	15	9	4	1	4
2320265	PROB	n/a	LTP313	ltpFR2	1	n/a	n/a	n/a	15	20	5	6	9
2322266	PROB	n/a	LTP313	ltpFR2	1	n/a	n/a	n/a	15	20	9	3	8
2323684	PROB	n/a	LTP313	ltpFR2	1	n/a	n/a	n/a	15	19	9	5	5
2324902	PROB	n/a	LTP313	ltpFR2	1	n/a	n/a	n/a	15	10	3	3	4
2327120	PROB	n/a	LTP313	ltpFR2	1	n/a	n/a	n/a	15	12	5	5	2
2328354	PROB	n/a	LTP313	ltpFR2	1	n/a	n/a	n/a	15	12	3	7	2
2329371	PROB	n/a	LTP313	ltpFR2	1	n/a	n/a	n/a	15	15	4	2	9
2331392	STOP	n/a	LTP313	ltpFR2	1	n/a	n/a	n/a	15	n/a	n/a	n/a	n/a
2333695	REC_START	n/a	LTP313	ltpFR2	1	10	n/a	n/a	n/a	n/a	0	0	0
2333695	REC_WORD_VV	wordpools/wasnorm_wordpool_576.txt	LTP313	ltpFR2	1	10	<>	-1	n/a	n/a	0	0	0
2334390	REC_WORD	wordpools/wasnorm_wordpool_576.txt	LTP313	ltpFR2	1	10	LUGGAGE	847	n/a	n/a	0	0	0
2335910	REC_WORD	wordpools/wasnorm_wordpool_576.txt	LTP313	ltpFR2	1	10	HANDBAG	684	n/a	n/a	0	0	0
2338484	REC_WORD	wordpools/wasnorm_wordpool_576.txt	LTP313	ltpFR2	1	10	SUITCASE	1403	n/a	n/a	0	0	0
2340385	REC_WORD	wordpools/wasnorm_wordpool_576.txt	LTP313	ltpFR2	1	10	UNCLE	1536	n/a	n/a	0	0	0
2341722	REC_WORD	wordpools/wasnorm_wordpool_576.txt	LTP313	ltpFR2	1	10	GUARD	667	n/a	n/a	0	0	0
2343004	REC_WORD	wordpools/wasnorm_wordpool_576.txt	LTP313	ltpFR2	1	10	PERCH	1048	n/a	n/a	0	0	0
2344373	REC_WORD	wordpools/wasnorm_wordpool_576.txt	LTP313	ltpFR2	1	10	SPIDER	1351	n/a	n/a	0	0	0
2346857	REC_WORD	wordpools/wasnorm_wordpool_576.txt	LTP313	ltpFR2	1	10	ACTRESS	6	n/a	n/a	0	0	0
2348386	REC_WORD	wordpools/wasnorm_wordpool_576.txt	LTP313	ltpFR2	1	10	PRINCESS	1125	n/a	n/a	0	0	0
2365137	REC_WORD	wordpools/wasnorm_wordpool_576.txt	LTP313	ltpFR2	1	10	GYMNAST	675	n/a	n/a	0	0	0
2369427	REC_WORD	wordpools/wasnorm_wordpool_576.txt	LTP313	ltpFR2	1	10	FLUTE	585	n/a	n/a	0	0	0
2372338	REC_WORD	wordpools/wasnorm_wordpool_576.txt	LTP313	ltpFR2	1	10	COIN	343	n/a	n/a	0	0	0
2377000	REC_WORD	wordpools/wasnorm_wordpool_576.txt	LTP313	ltpFR2	1	10	SKILLET	1317	n/a	n/a	0	0	0
2381001	REC_WORD	wordpools/wasnorm_wordpool_576.txt	LTP313	ltpFR2	1	10	GRAVE	658	n/a	n/a	0	0	0
2382632	REC_WORD	wordpools/wasnorm_wordpool_576.txt	LTP313	ltpFR2	1	10	BACKBONE	66	n/a	n/a	0	0	0
2424114	DISTRACTOR	n/a	LTP313	ltpFR2	1	11	n/a	n/a	n/a	n/a	0	0	0
2424115	START	n/a	LTP313	ltpFR2	1	n/a	n/a	n/a	16	n/a	n/a	n/a	n/a
2424129	PROB	n/a	LTP313	ltpFR2	1	n/a	n/a	n/a	16	11	2	4	5
2425686	PROB	n/a	LTP313	ltpFR2	1	n/a	n/a	n/a	16	10	1	2	7
2426787	PROB	n/a	LTP313	ltpFR2	1	n/a	n/a	n/a	16	20	9	9	2
2428437	PROB	n/a	LTP313	ltpFR2	1	n/a	n/a	n/a	16	24	8	8	8
2429723	PROB	n/a	LTP313	ltpFR2	1	n/a	n/a	n/a	16	7	3	2	2
2431308	PROB	n/a	LTP313	ltpFR2	1	n/a	n/a	n/a	16	22	5	9	8
2432775	PROB	n/a	LTP313	ltpFR2	1	n/a	n/a	n/a	16	14	9	2	3
2434829	PROB	n/a	LTP313	ltpFR2	1	n/a	n/a	n/a	16	1	1	5	4
2436795	PROB	n/a	LTP313	ltpFR2	1	n/a	n/a	n/a	16	25	8	8	9
2439864	PROB	n/a	LTP313	ltpFR2	1	n/a	n/a	n/a	16	18	5	9	4
2442066	PROB	n/a	LTP313	ltpFR2	1	n/a	n/a	n/a	16	27	9	7	9
2444052	PROB	n/a	LTP313	ltpFR2	1	n/a	n/a	n/a	16	21	6	8	7
2446352	PROB	n/a	LTP313	ltpFR2	1	n/a	n/a	n/a	16	13	2	4	7
2447657	STOP	n/a	LTP313	ltpFR2	1	n/a	n/a	n/a	16	n/a	n/a	n/a	n/a
2449222	WORD	wordpools/wasnorm_wordpool_576.txt	LTP313	ltpFR2	1	11	CONCERT	360	n/a	n/a	0	0	0
2452009	WORD	wordpools/wasnorm_wordpool_576.txt	LTP313	ltpFR2	1	11	BUNNY	198	n/a	n/a	0	0	0
2454788	WORD	wordpools/wasnorm_wordpool_576.txt	LTP313	ltpFR2	1	11	SEAFOOD	1260	n/a	n/a	0	0	0
2457463	WORD	wordpools/wasnorm_wordpool_576.txt	LTP313	ltpFR2	1	11	GHETTO	633	n/a	n/a	0	0	0
2460224	WORD	wordpools/wasnorm_wordpool_576.txt	LTP313	ltpFR2	1	11	MATCH	878	n/a	n/a	0	0	0
2462726	WORD	wordpools/wasnorm_wordpool_576.txt	LTP313	ltpFR2	1	11	MEAT	883	n/a	n/a	0	0	0
2465295	WORD	wordpools/wasnorm_wordpool_576.txt	LTP313	ltpFR2	1	11	FOX	598	n/a	n/a	0	0	0
2468006	WORD	wordpools/wasnorm_wordpool_576.txt	LTP313	ltpFR2	1	11	BACON	67	n/a	n/a	0	0	0
2470650	WORD	wordpools/wasnorm_wordpool_576.txt	LTP313	ltpFR2	1	11	DUST	508	n/a	n/a	0	0	0
2473160	WORD	wordpools/wasnorm_wordpool_576.txt	LTP313	ltpFR2	1	11	TRUCK	1512	n/a	n/a	0	0	0
2475879	WORD	wordpools/wasnorm_wordpool_576.txt	LTP313	ltpFR2	1	11	HOOD	714	n/a	n/a	0	0	0
2478531	WORD	wordpools/wasnorm_wordpool_576.txt	LTP313	ltpFR2	1	11	PORK	1108	n/a	n/a	0	0	0
2481300	WORD	wordpools/wasnorm_wordpool_576.txt	LTP313	ltpFR2	1	11	FLASHLIGHT	575	n/a	n/a	0	0	0
2484053	WORD	wordpools/wasnorm_wordpool_576.txt	LTP313	ltpFR2	1	11	TROUT	1511	n/a	n/a	0	0	0
2486588	WORD	wordpools/wasnorm_wordpool_576.txt	LTP313	ltpFR2	1	11	POSSUM	1112	n/a	n/a	0	0	0
2489280	WORD	wordpools/wasnorm_wordpool_576.txt	LTP313	ltpFR2	1	11	BEAST	108	n/a	n/a	0	0	0
2492026	WORD	wordpools/wasnorm_wordpool_576.txt	LTP313	ltpFR2	1	11	CRUTCH	417	n/a	n/a	0	0	0
2494835	WORD	wordpools/wasnorm_wordpool_576.txt	LTP313	ltpFR2	1	11	GANGSTER	620	n/a	n/a	0	0	0
2497430	WORD	wordpools/wasnorm_wordpool_576.txt	LTP313	ltpFR2	1	11	OMELET	976	n/a	n/a	0	0	0
2500164	WORD	wordpools/wasnorm_wordpool_576.txt	LTP313	ltpFR2	1	11	MISTER	901	n/a	n/a	0	0	0
2502852	WORD	wordpools/wasnorm_wordpool_576.txt	LTP313	ltpFR2	1	11	GIRL	637	n/a	n/a	0	0	0
2505571	WORD	wordpools/wasnorm_wordpool_576.txt	LTP313	ltpFR2	1	11	SLIME	1327	n/a	n/a	0	0	0
2508355	WORD	wordpools/wasnorm_wordpool_576.txt	LTP313	ltpFR2	1	11	FRIEND	606	n/a	n/a	0	0	0
2511125	WORD	wordpools/wasnorm_wordpool_576.txt	LTP313	ltpFR2	1	11	BUBBLE	183	n/a	n/a	0	0	0
2512733	START	n/a	LTP313	ltpFR2	1	n/a	n/a	n/a	17	n/a	n/a	n/a	n/a
2513694	DISTRACTOR	n/a	LTP313	ltpFR2	1	11	n/a	n/a	n/a	n/a	0	0	0
2513698	PROB	n/a	LTP313	ltpFR2	1	n/a	n/a	n/a	17	13	1	9	3
2515176	PROB	n/a	LTP313	ltpFR2	1	n/a	n/a	n/a	17	15	7	7	1
2516143	PROB	n/a	LTP313	ltpFR2	1	n/a	n/a	n/a	17	17	7	2	8
2517763	PROB	n/a	LTP313	ltpFR2	1	n/a	n/a	n/a	17	12	2	7	3
2518814	PROB	n/a	LTP313	ltpFR2	1	n/a	n/a	n/a	17	21	3	9	9
2520264	PROB	n/a	LTP313	ltpFR2	1	n/a	n/a	n/a	17	14	8	4	2
2521314	PROB	n/a	LTP313	ltpFR2	1	n/a	n/a	n/a	17	18	7	9	2
2522917	PROB	n/a	LTP313	ltpFR2	1	n/a	n/a	n/a	17	21	5	7	9
2524035	PROB	n/a	LTP313	ltpFR2	1	n/a	n/a	n/a	17	12	1	2	9
2525620	PROB	n/a	LTP313	ltpFR2	1	n/a	n/a	n/a	17	8	1	3	4
2526805	PROB	n/a	LTP313	ltpFR2	1	n/a	n/a	n/a	17	16	9	3	4
2528137	PROB	n/a	LTP313	ltpFR2	1	n/a	n/a	n/a	17	14	8	4	2
2529839	PROB	n/a	LTP313	ltpFR2	1	n/a	n/a	n/a	17	20	9	7	4
2531256	PROB	n/a	LTP313	ltpFR2	1	n/a	n/a	n/a	17	11	3	3	5
2532876	PROB	n/a	LTP313	ltpFR2	1	n/a	n/a	n/a	17	12	3	7	2
2533877	PROB	n/a	LTP313	ltpFR2	1	n/a	n/a	n/a	17	21	7	7	7
2534979	PROB	n/a	LTP313	ltpFR2	1	n/a	n/a	n/a	17	21	5	7	9
2536272	STOP	n/a	LTP313	ltpFR2	1	n/a	n/a	n/a	17	n/a	n/a	n/a	n/a
2538563	REC_START	n/a	LTP313	ltpFR2	1	11	n/a	n/a	n/a	n/a	0	0	0
2538563	REC_WORD_VV	wordpools/wasnorm_wordpool_576.txt	LTP313	ltpFR2	1	11	<>	-1	n/a	n/a	0	0	0
2539506	REC_WORD	wordpools/wasnorm_wordpool_576.txt	LTP313	ltpFR2	1	11	GIRL	637	n/a	n/a	0	0	0
2540752	REC_WORD	wordpools/wasnorm_wordpool_576.txt	LTP313	ltpFR2	1	11	SLIME	1327	n/a	n/a	0	0	0
2542299	REC_WORD	wordpools/wasnorm_wordpool_576.txt	LTP313	ltpFR2	1	11	FRIEND	606	n/a	n/a	0	0	0
2543952	REC_WORD	wordpools/wasnorm_wordpool_576.txt	LTP313	ltpFR2	1	11	BUBBLE	183	n/a	n/a	0	0	0
2564307	REC_WORD	wordpools/wasnorm_wordpool_576.txt	LTP313	ltpFR2	1	11	CRUTCH	417	n/a	n/a	0	0	0
2566436	REC_WORD	wordpools/wasnorm_wordpool_576.txt	LTP313	ltpFR2	1	11	FOX	598	n/a	n/a	0	0	0
2568352	REC_WORD	wordpools/wasnorm_wordpool_576.txt	LTP313	ltpFR2	1	11	RABBIT	1152	n/a	n/a	0	0	0
2569599	REC_WORD	wordpools/wasnorm_wordpool_576.txt	LTP313	ltpFR2	1	11	SEAFOOD	1260	n/a	n/a	0	0	0
2572867	REC_WORD	wordpools/wasnorm_wordpool_576.txt	LTP313	ltpFR2	1	11	FLASHLIGHT	575	n/a	n/a	0	0	0
2573867	REC_WORD_VV	wordpools/wasnorm_wordpool_576.txt	LTP313	ltpFR2	1	11	<>	-1	n/a	n/a	0	0	0
2576373	REC_WORD	wordpools/wasnorm_wordpool_576.txt	LTP313	ltpFR2	1	11	BACON	67	n/a	n/a	0	0	0
2577555	REC_WORD	wordpools/wasnorm_wordpool_576.txt	LTP313	ltpFR2	1	11	MEAT	883	n/a	n/a	0	0	0
2580218	REC_WORD	wordpools/wasnorm_wordpool_576.txt	LTP313	ltpFR2	1	11	TRUCK	1512	n/a	n/a	0	0	0
2584774	REC_WORD	wordpools/wasnorm_wordpool_576.txt	LTP313	ltpFR2	1	11	GANGSTER	620	n/a	n/a	0	0	0
2586083	REC_WORD	wordpools/wasnorm_wordpool_576.txt	LTP313	ltpFR2	1	11	HOOD	714	n/a	n/a	0	0	0
2587543	REC_WORD	wordpools/wasnorm_wordpool_576.txt	LTP313	ltpFR2	1	11	GHETTO	633	n/a	n/a	0	0	0
2628991	DISTRACTOR	n/a	LTP313	ltpFR2	1	12	n/a	n/a	n/a	n/a	0	0	0
2628991	START	n/a	LTP313	ltpFR2	1	n/a	n/a	n/a	18	n/a	n/a	n/a	n/a
2629006	PROB	n/a	LTP313	ltpFR2	1	n/a	n/a	n/a	18	15	4	9	2
2630470	PROB	n/a	LTP313	ltpFR2	1	n/a	n/a	n/a	18	13	5	2	6
2631858	PROB	n/a	LTP313	ltpFR2	1	n/a	n/a	n/a	18	10	4	4	2
2632923	PROB	n/a	LTP313	ltpFR2	1	n/a	n/a	n/a	18	16	1	8	7
2634506	PROB	n/a	LTP313	ltpFR2	1	n/a	n/a	n/a	18	10	3	5	2
2635690	PROB	n/a	LTP313	ltpFR2	1	n/a	n/a	n/a	18	15	9	2	4
2636691	PROB	n/a	LTP313	ltpFR2	1	n/a	n/a	n/a	18	16	7	3	6
2637713	PROB	n/a	LTP313	ltpFR2	1	n/a	n/a	n/a	18	18	9	2	7
2638732	PROB	n/a	LTP313	ltpFR2	1	n/a	n/a	n/a	18	13	6	6	1
2639827	PROB	n/a	LTP313	ltpFR2	1	n/a	n/a	n/a	18	9	1	2	6
2640916	PROB	n/a	LTP313	ltpFR2	1	n/a	n/a	n/a	18	11	1	5	5
2642032	PROB	n/a	LTP313	ltpFR2	1	n/a	n/a	n/a	18	14	1	7	6
2643284	PROB	n/a	LTP313	ltpFR2	1	n/a	n/a	n/a	18	17	7	1	9
2644452	PROB	n/a	LTP313	ltpFR2	1	n/a	n/a	n/a	18	23	9	6	8
2645787	PROB	n/a	LTP313	ltpFR2	1	n/a	n/a	n/a	18	15	7	5	3
2646803	PROB	n/a	LTP313	ltpFR2	1	n/a	n/a	n/a	18	11	1	3	7
2647972	PROB	n/a	LTP313	ltpFR2	1	n/a	n/a	n/a	18	12	5	4	3
2648972	PROB	n/a	LTP313	ltpFR2	1	n/a	n/a	n/a	18	11	5	1	4
2650418	PROB	n/a	LTP313	ltpFR2	1	n/a	n/a	n/a	18	10	3	1	6
2651905	STOP	n/a	LTP313	ltpFR2	1	n/a	n/a	n/a	18	n/a	n/a	n/a	n/a
2654188	WORD	wordpools/wasnorm_wordpool_576.txt	LTP313	ltpFR2	1	12	STALLION	1369	n/a	n/a	0	0	0
2656992	WORD	wordpools/wasnorm_wordpool_576.txt	LTP313	ltpFR2	1	12	NURSE	963	n/a	n/a	0	0	0
2659599	WORD	wordpools/wasnorm_wordpool_576.txt	LTP313	ltpFR2	1	12	CLIMBER	323	n/a	n/a	0	0	0
2662228	WORD	wordpools/wasnorm_wordpool_576.txt	LTP313	ltpFR2	1	12	UMPIRE	1535	n/a	n/a	0	0	0
2664931	WORD	wordpools/wasnorm_wordpool_576.txt	LTP313	ltpFR2	1	12	TART	1436	n/a	n/a	0	0	0
2667432	WORD	wordpools/wasnorm_wordpool_576.txt	LTP313	ltpFR2	1	12	FIDDLE	561	n/a	n/a	0	0	0
2670085	WORD	wordpools/wasnorm_wordpool_576.txt	LTP313	ltpFR2	1	12	CLOTHES	327	n/a	n/a	0	0	0
2672569	WORD	wordpools/wasnorm_wordpool_576.txt	LTP313	ltpFR2	1	12	FOOTBALL	591	n/a	n/a	0	0	0
2675143	WORD	wordpools/wasnorm_wordpool_576.txt	LTP313	ltpFR2	1	12	LAGOON	795	n/a	n/a	0	0	0
2677658	WORD	wordpools/wasnorm_wordpool_576.txt	LTP313	ltpFR2	1	12	XEROX	1628	n/a	n/a	0	0	0
2680432	WORD	wordpools/wasnorm_wordpool_576.txt	LTP313	ltpFR2	1	12	MACHINE	852	n/a	n/a	0	0	0
2682985	WORD	wordpools/wasnorm_wordpool_576.txt	LTP313	ltpFR2	1	12	PERMIT	1051	n/a	n/a	0	0	0
2685604	WORD	wordpools/wasnorm_wordpool_576.txt	LTP313	ltpFR2	1	12	SPONGE	1355	n/a	n/a	0	0	0
2688389	WORD	wordpools/wasnorm_wordpool_576.txt	LTP313	ltpFR2	1	12	LODGE	839	n/a	n/a	0	0	0
2690951	WORD	wordpools/wasnorm_wordpool_576.txt	LTP313	ltpFR2	1	12	SHELTER	1282	n/a	n/a	0	0	0
2693594	WORD	wordpools/wasnorm_wordpool_576.txt	LTP313	ltpFR2	1	12	PLIERS	1089	n/a	n/a	0	0	0
2696261	WORD	wordpools/wasnorm_wordpool_576.txt	LTP313	ltpFR2	1	12	TYPIST	1532	n/a	n/a	0	0	0
2698948	WORD	wordpools/wasnorm_wordpool_576.txt	LTP313	ltpFR2	1	12	OFFICE	972	n/a	n/a	0	0	0
2701684	WORD	wordpools/wasnorm_wordpool_576.txt	LTP313	ltpFR2	1	12	TORTOISE	1486	n/a	n/a	0	0	0
2704378	WORD	wordpools/wasnorm_wordpool_576.txt	LTP313	ltpFR2	1	12	BRANCH	168	n/a	n/a	0	0	0
2706820	WORD	wordpools/wasnorm_wordpool_576.txt	LTP313	ltpFR2	1	12	OUTFIT	988	n/a	n/a	0	0	0
2709473	WORD	wordpools/wasnorm_wordpool_576.txt	LTP313	ltpFR2	1	12	PASSAGE	1019	n/a	n/a	0	0	0
2712076	WORD	wordpools/wasnorm_wordpool_576.txt	LTP313	ltpFR2	1	12	ORANGE	980	n/a	n/a	0	0	0
2714610	WORD	wordpools/wasnorm_wordpool_576.txt	LTP313	ltpFR2	1	12	LACE	792	n/a	n/a	0	0	0
2716220	START	n/a	LTP313	ltpFR2	1	n/a	n/a	n/a	19	n/a	n/a	n/a	n/a
2717372	DISTRACTOR	n/a	LTP313	ltpFR2	1	12	n/a	n/a	n/a	n/a	0	0	0
2717379	PROB	n/a	LTP313	ltpFR2	1	n/a	n/a	n/a	19	15	6	7	2
2718813	PROB	n/a	LTP313	ltpFR2	1	n/a	n/a	n/a	19	17	3	5	9
2720365	PROB	n/a	LTP313	ltpFR2	1	n/a	n/a	n/a	19	19	7	4	8
2721649	PROB	n/a	LTP313	ltpFR2	1	n/a	n/a	n/a	19	21	9	9	2
2722916	PROB	n/a	LTP313	ltpFR2	1	n/a	n/a	n/a	19	20	2	9	9
2725904	PROB	n/a	LTP313	ltpFR2	1	n/a	n/a	n/a	19	18	9	3	6
2727188	PROB	n/a	LTP313	ltpFR2	1	n/a	n/a	n/a	19	18	2	8	8
2728436	PROB	n/a	LTP313	ltpFR2	1	n/a	n/a	n/a	19	22	9	7	9
2733008	PROB	n/a	LTP313	ltpFR2	1	n/a	n/a	n/a	19	12	3	5	4
2734309	PROB	n/a	LTP313	ltpFR2	1	n/a	n/a	n/a	19	7	2	2	3
2737246	PROB	n/a	LTP313	ltpFR2	1	n/a	n/a	n/a	19	15	5	2	8
2738396	PROB	n/a	LTP313	ltpFR2	1	n/a	n/a	n/a	19	9	1	1	7
2739288	STOP	n/a	LTP313	ltpFR2	1	n/a	n/a	n/a	19	n/a	n/a	n/a	n/a
2742116	REC_START	n/a	LTP313	ltpFR2	1	12	n/a	n/a	n/a	n/a	0	0	0
2743492	REC_WORD	wordpools/wasnorm_wordpool_576.txt	LTP313	ltpFR2	1	12	STALLION	1369	n/a	n/a	0	0	0
2744913	REC_WORD	wordpools/wasnorm_wordpool_576.txt	LTP313	ltpFR2	1	12	NURSE	963	n/a	n/a	0	0	0
2746594	REC_WORD	wordpools/wasnorm_wordpool_576.txt	LTP313	ltpFR2	1	12	CLIMBER	323	n/a	n/a	0	0	0
2750194	REC_WORD	wordpools/wasnorm_wordpool_576.txt	LTP313	ltpFR2	1	12	FOOTBALL	591	n/a	n/a	0	0	0
2752208	REC_WORD	wordpools/wasnorm_wordpool_576.txt	LTP313	ltpFR2	1	12	UMPIRE	1535	n/a	n/a	0	0	0
2753812	REC_WORD	wordpools/wasnorm_wordpool_576.txt	LTP313	ltpFR2	1	12	XEROX	1628	n/a	n/a	0	0	0
2755678	REC_WORD	wordpools/wasnorm_wordpool_576.txt	LTP313	ltpFR2	1	12	MACHINE	852	n/a	n/a	0	0	0
2757147	REC_WORD	wordpools/wasnorm_wordpool_576.txt	LTP313	ltpFR2	1	12	CLOUD	328	n/a	n/a	0	0	0
2758533	REC_WORD	wordpools/wasnorm_wordpool_576.txt	LTP313	ltpFR2	1	12	LODGE	839	n/a	n/a	0	0	0
2761247	REC_WORD	wordpools/wasnorm_wordpool_576.txt	LTP313	ltpFR2	1	12	SPONGE	1355	n/a	n/a	0	0	0
2776262	REC_WORD	wordpools/wasnorm_wordpool_576.txt	LTP313	ltpFR2	1	12	LAGOON	795	n/a	n/a	0	0	0
2832575	WORD	wordpools/wasnorm_wordpool_576.txt	LTP313	ltpFR2	1	13	CHEST	295	n/a	n/a	0	0	0
2835227	WORD	wordpools/wasnorm_wordpool_576.txt	LTP313	ltpFR2	1	13	PALACE	1006	n/a	n/a	0	0	0
2837780	WORD	wordpools/wasnorm_wordpool_576.txt	LTP313	ltpFR2	1	13	WAITRESS	1581	n/a	n/a	0	0	0
2840281	WORD	wordpools/wasnorm_wordpool_576.txt	LTP313	ltpFR2	1	13	CASHEW	253	n/a	n/a	0	0	0
2842849	WORD	wordpools/wasnorm_wordpool_576.txt	LTP313	ltpFR2	1	13	LIGHTNING	820	n/a	n/a	0	0	0
2845501	WORD	wordpools/wasnorm_wordpool_576.txt	LTP313	ltpFR2	1	13	PEANUT	1032	n/a	n/a	0	0	0
2848287	WORD	wordpools/wasnorm_wordpool_576.txt	LTP313	ltpFR2	1	13	MUFFIN	929	n/a	n/a	0	0	0
2850873	WORD	wordpools/wasnorm_wordpool_576.txt	LTP313	ltpFR2	1	13	FLAG	573	n/a	n/a	0	0	0
2853406	WORD	wordpools/wasnorm_wordpool_576.txt	LTP313	ltpFR2	1	13	BUREAU	199	n/a	n/a	0	0	0
2855943	WORD	wordpools/wasnorm_wordpool_576.txt	LTP313	ltpFR2	1	13	WRIST	1626	n/a	n/a	0	0	0
2858612	WORD	wordpools/wasnorm_wordpool_576.txt	LTP313	ltpFR2	1	13	CANDY	230	n/a	n/a	0	0	0
2861331	WORD	wordpools/wasnorm_wordpool_576.txt	LTP313	ltpFR2	1	13	PECAN	1036	n/a	n/a	0	0	0
2863936	WORD	wordpools/wasnorm_wordpool_576.txt	LTP313	ltpFR2	1	13	PATIENT	1024	n/a	n/a	0	0	0
2866400	WORD	wordpools/wasnorm_wordpool_576.txt	LTP313	ltpFR2	1	13	HAMPER	682	n/a	n/a	0	0	0
2869206	WORD	wordpools/wasnorm_wordpool_576.txt	LTP313	ltpFR2	1	13	CLOCK	325	n/a	n/a	0	0	0
2871890	WORD	wordpools/wasnorm_wordpool_576.txt	LTP313	ltpFR2	1	13	DIME	466	n/a	n/a	0	0	0
2874356	WORD	wordpools/wasnorm_wordpool_576.txt	LTP313	ltpFR2	1	13	MARKET	871	n/a	n/a	0	0	0
2877096	WORD	wordpools/wasnorm_wordpool_576.txt	LTP313	ltpFR2	1	13	CURTAIN	427	n/a	n/a	0	0	0
2879595	WORD	wordpools/wasnorm_wordpool_576.txt	LTP313	ltpFR2	1	13	ROD	1203	n/a	n/a	0	0	0
2882329	WORD	wordpools/wasnorm_wordpool_576.txt	LTP313	ltpFR2	1	13	CREVICE	405	n/a	n/a	0	0	0
2885099	WORD	wordpools/wasnorm_wordpool_576.txt	LTP313	ltpFR2	1	13	CHEMIST	292	n/a	n/a	0	0	0
2887635	WORD	wordpools/wasnorm_wordpool_576.txt	LTP313	ltpFR2	1	13	BEAKER	104	n/a	n/a	0	0	0
2890285	WORD	wordpools/wasnorm_wordpool_576.txt	LTP313	ltpFR2	1	13	HORNET	718	n/a	n/a	0	0	0
2893044	WORD	wordpools/wasnorm_wordpool_576.txt	LTP313	ltpFR2	1	13	REBEL	1172	n/a	n/a	0	0	0
2894656	START	n/a	LTP313	ltpFR2	1	n/a	n/a	n/a	20	n/a	n/a	n/a	n/a
2895683	DISTRACTOR	n/a	LTP313	ltpFR2	1	13	n/a	n/a	n/a	n/a	0	0	0
2895691	PROB	n/a	LTP313	ltpFR2	1	n/a	n/a	n/a	20	18	6	8	4
2898013	PROB	n/a	LTP313	ltpFR2	1	n/a	n/a	n/a	20	12	1	8	3
2899582	PROB	n/a	LTP313	ltpFR2	1	n/a	n/a	n/a	20	16	7	4	5
2901683	PROB	n/a	LTP313	ltpFR2	1	n/a	n/a	n/a	20	19	9	3	7
2902816	PROB	n/a	LTP313	ltpFR2	1	n/a	n/a	n/a	20	11	4	4	3
2903901	PROB	n/a	LTP313	ltpFR2	1	n/a	n/a	n/a	20	2	6	7	7
2905150	PROB	n/a	LTP313	ltpFR2	1	n/a	n/a	n/a	20	13	2	6	5
2907453	PROB	n/a	LTP313	ltpFR2	1	n/a	n/a	n/a	20	19	1	9	9
2908837	PROB	n/a	LTP313	ltpFR2	1	n/a	n/a	n/a	20	22	8	5	9
2910056	PROB	n/a	LTP313	ltpFR2	1	n/a	n/a	n/a	20	16	4	6	6
2911040	PROB	n/a	LTP313	ltpFR2	1	n/a	n/a	n/a	20	18	4	7	7
2912223	PROB	n/a	LTP313	ltpFR2	1	n/a	n/a	n/a	20	14	7	1	6
2914309	PROB	n/a	LTP313	ltpFR2	1	n/a	n/a	n/a	20	20	8	5	7
2915811	PROB	n/a	LTP313	ltpFR2	1	n/a	n/a	n/a	20	17	5	3	9
2918656	STOP	n/a	LTP313	ltpFR2	1	n/a	n/a	n/a	20	n/a	n/a	n/a	n/a
2920482	REC_START	n/a	LTP313	ltpFR2	1	13	n/a	n/a	n/a	n/a	0	0	0
2920482	REC_WORD_VV	wordpools/wasnorm_wordpool_576.txt	LTP313	ltpFR2	1	13	<>	-1	n/a	n/a	0	0	0
2990997	REC_WORD	wordpools/wasnorm_wordpool_576.txt	LTP313	ltpFR2	1	13	PALACE	1006	n/a	n/a	0	0	0
2991610	REC_WORD	wordpools/wasnorm_wordpool_576.txt	LTP313	ltpFR2	1	13	WAITRESS	1581	n/a	n/a	0	0	0
3010892	DISTRACTOR	n/a	LTP313	ltpFR2	1	14	n/a	n/a	n/a	n/a	0	0	0
3010892	START	n/a	LTP313	ltpFR2	1	n/a	n/a	n/a	21	n/a	n/a	n/a	n/a
3010906	PROB	n/a	LTP313	ltpFR2	1	n/a	n/a	n/a	21	22	9	9	4
3013592	PROB	n/a	LTP313	ltpFR2	1	n/a	n/a	n/a	21	10	3	1	6
3014860	PROB	n/a	LTP313	ltpFR2	1	n/a	n/a	n/a	21	17	5	7	5
3016227	PROB	n/a	LTP313	ltpFR2	1	n/a	n/a	n/a	21	16	3	5	8
3017378	PROB	n/a	LTP313	ltpFR2	1	n/a	n/a	n/a	21	9	2	1	6
3018495	PROB	n/a	LTP313	ltpFR2	1	n/a	n/a	n/a	21	17	9	2	6
3019897	PROB	n/a	LTP313	ltpFR2	1	n/a	n/a	n/a	21	19	9	9	1
3021213	PROB	n/a	LTP313	ltpFR2	1	n/a	n/a	n/a	21	12	8	2	2
3022214	PROB	n/a	LTP313	ltpFR2	1	n/a	n/a	n/a	21	20	2	9	9
3024068	PROB	n/a	LTP313	ltpFR2	1	n/a	n/a	n/a	21	22	7	6	9
3025184	PROB	n/a	LTP313	ltpFR2	1	n/a	n/a	n/a	21	14	2	3	9
3026320	PROB	n/a	LTP313	ltpFR2	1	n/a	n/a	n/a	21	20	8	6	6
3027452	PROB	n/a	LTP313	ltpFR2	1	n/a	n/a	n/a	21	16	3	6	7
3028904	PROB	n/a	LTP313	ltpFR2	1	n/a	n/a	n/a	21	19	7	9	3
3030907	PROB	n/a	LTP313	ltpFR2	1	n/a	n/a	n/a	21	18	7	7	4
3032272	PROB	n/a	LTP313	ltpFR2	1	n/a	n/a	n/a	21	16	6	3	7
3033307	PROB	n/a	LTP313	ltpFR2	1	n/a	n/a	n/a	21	17	5	5	7
3034240	STOP	n/a	LTP313	ltpFR2	1	n/a	n/a	n/a	21	n/a	n/a	n/a	n/a
3035928	WORD	wordpools/wasnorm_wordpool_576.txt	LTP313	ltpFR2	1	14	CELLAR	267	n/a	n/a	0	0	0
3038463	WORD	wordpools/wasnorm_wordpool_576.txt	LTP313	ltpFR2	1	14	SPACE	1345	n/a	n/a	0	0	0
3040949	WORD	wordpools/wasnorm_wordpool_576.txt	LTP313	ltpFR2	1	14	HAWK	692	n/a	n/a	0	0	0
3043653	WORD	wordpools/wasnorm_wordpool_576.txt	LTP313	ltpFR2	1	14	HOSTESS	723	n/a	n/a	0	0	0
3046186	WORD	wordpools/wasnorm_wordpool_576.txt	LTP313	ltpFR2	1	14	HEADBAND	696	n/a	n/a	0	0	0
3048940	WORD	wordpools/wasnorm_wordpool_576.txt	LTP313	ltpFR2	1	14	PIZZA	1079	n/a	n/a	0	0	0
3051457	WORD	wordpools/wasnorm_wordpool_576.txt	LTP313	ltpFR2	1	14	PISTON	1076	n/a	n/a	0	0	0
3054193	WORD	wordpools/wasnorm_wordpool_576.txt	LTP313	ltpFR2	1	14	DRIVER	499	n/a	n/a	0	0	0
3056712	WORD	wordpools/wasnorm_wordpool_576.txt	LTP313	ltpFR2	1	14	CHAUFFEUR	283	n/a	n/a	0	0	0
3059330	WORD	wordpools/wasnorm_wordpool_576.txt	LTP313	ltpFR2	1	14	CAMEL	223	n/a	n/a	0	0	0
3061867	WORD	wordpools/wasnorm_wordpool_576.txt	LTP313	ltpFR2	1	14	ACTOR	5	n/a	n/a	0	0	0
3064551	WORD	wordpools/wasnorm_wordpool_576.txt	LTP313	ltpFR2	1	14	BANK	83	n/a	n/a	0	0	0
3067121	WORD	wordpools/wasnorm_wordpool_576.txt	LTP313	ltpFR2	1	14	SALT	1229	n/a	n/a	0	0	0
3069555	WORD	wordpools/wasnorm_wordpool_576.txt	LTP313	ltpFR2	1	14	MUMMY	932	n/a	n/a	0	0	0
3072190	WORD	wordpools/wasnorm_wordpool_576.txt	LTP313	ltpFR2	1	14	TOASTER	1472	n/a	n/a	0	0	0
3074860	WORD	wordpools/wasnorm_wordpool_576.txt	LTP313	ltpFR2	1	14	SEAGULL	1261	n/a	n/a	0	0	0
3077528	WORD	wordpools/wasnorm_wordpool_576.txt	LTP313	ltpFR2	1	14	CORAL	378	n/a	n/a	0	0	0
3080114	WORD	wordpools/wasnorm_wordpool_576.txt	LTP313	ltpFR2	1	14	MARINE	869	n/a	n/a	0	0	0
3082600	WORD	wordpools/wasnorm_wordpool_576.txt	LTP313	ltpFR2	1	14	DANDRUFF	439	n/a	n/a	0	0	0
3085317	WORD	wordpools/wasnorm_wordpool_576.txt	LTP313	ltpFR2	1	14	PENGUIN	1044	n/a	n/a	0	0	0
3087787	WORD	wordpools/wasnorm_wordpool_576.txt	LTP313	ltpFR2	1	14	DRESS	495	n/a	n/a	0	0	0
3090471	WORD	wordpools/wasnorm_wordpool_576.txt	LTP313	ltpFR2	1	14	STOVE	1388	n/a	n/a	0	0	0
3093124	WORD	wordpools/wasnorm_wordpool_576.txt	LTP313	ltpFR2	1	14	PLAID	1080	n/a	n/a	0	0	0
3095675	WORD	wordpools/wasnorm_wordpool_576.txt	LTP313	ltpFR2	1	14	SPARROW	1347	n/a	n/a	0	0	0
3097279	START	n/a	LTP313	ltpFR2	1	n/a	n/a	n/a	22	n/a	n/a	n/a	n/a
3098396	DISTRACTOR	n/a	LTP313	ltpFR2	1	14	n/a	n/a	n/a	n/a	0	0	0
3098410	PROB	n/a	LTP313	ltpFR2	1	n/a	n/a	n/a	22	17	8	8	1
3100195	PROB	n/a	LTP313	ltpFR2	1	n/a	n/a	n/a	22	10	1	3	6
3101211	PROB	n/a	LTP313	ltpFR2	1	n/a	n/a	n/a	22	11	5	3	3
3103430	PROB	n/a	LTP313	ltpFR2	1	n/a	n/a	n/a	22	12	3	2	7
3104682	PROB	n/a	LTP313	ltpFR2	1	n/a	n/a	n/a	22	16	7	1	8
3106066	PROB	n/a	LTP313	ltpFR2	1	n/a	n/a	n/a	22	11	2	1	8
3107101	PROB	n/a	LTP313	ltpFR2	1	n/a	n/a	n/a	22	16	6	1	9
3109037	PROB	n/a	LTP313	ltpFR2	1	n/a	n/a	n/a	22	10	1	5	4
3110035	PROB	n/a	LTP313	ltpFR2	1	n/a	n/a	n/a	22	12	5	3	4
3111072	PROB	n/a	LTP313	ltpFR2	1	n/a	n/a	n/a	22	19	5	6	8
3112437	PROB	n/a	LTP313	ltpFR2	1	n/a	n/a	n/a	22	12	2	3	7
3113625	PROB	n/a	LTP313	ltpFR2	1	n/a	n/a	n/a	22	9	2	2	5
3114842	PROB	n/a	LTP313	ltpFR2	1	n/a	n/a	n/a	22	14	7	1	6
3116139	PROB	n/a	LTP313	ltpFR2	1	n/a	n/a	n/a	22	20	8	5	7
3117727	PROB	n/a	LTP313	ltpFR2	1	n/a	n/a	n/a	22	19	9	6	4
3119042	PROB	n/a	LTP313	ltpFR2	1	n/a	n/a	n/a	22	14	7	3	4
3119937	STOP	n/a	LTP313	ltpFR2	1	n/a	n/a	n/a	22	n/a	n/a	n/a	n/a
3123150	REC_START	n/a	LTP313	ltpFR2	1	14	n/a	n/a	n/a	n/a	0	0	0
3124089	REC_WORD	wordpools/wasnorm_wordpool_576.txt	LTP313	ltpFR2	1	14	SPARROW	1347	n/a	n/a	0	0	0
3129594	REC_WORD	wordpools/wasnorm_wordpool_576.txt	LTP313	ltpFR2	1	14	CELLAR	267	n/a	n/a	0	0	0
3132340	REC_WORD	wordpools/wasnorm_wordpool_576.txt	LTP313	ltpFR2	1	14	SPACE	1345	n/a	n/a	0	0	0
3136112	REC_WORD	wordpools/wasnorm_wordpool_576.txt	LTP313	ltpFR2	1	14	HAWK	692	n/a	n/a	0	0	0
3137529	REC_WORD	wordpools/wasnorm_wordpool_576.txt	LTP313	ltpFR2	1	14	ACTRESS	6	n/a	n/a	0	0	0
3139050	REC_WORD	wordpools/wasnorm_wordpool_576.txt	LTP313	ltpFR2	1	14	HEADBAND	696	n/a	n/a	0	0	0
3141018	REC_WORD	wordpools/wasnorm_wordpool_576.txt	LTP313	ltpFR2	1	14	PIZZA	1079	n/a	n/a	0	0	0
3142958	REC_WORD	wordpools/wasnorm_wordpool_576.txt	LTP313	ltpFR2	1	14	HOSTESS	723	n/a	n/a	0	0	0
3147485	REC_WORD	wordpools/wasnorm_wordpool_576.txt	LTP313	ltpFR2	1	14	ACTOR	5	n/a	n/a	0	0	0
3150847	REC_WORD	wordpools/wasnorm_wordpool_576.txt	LTP313	ltpFR2	1	14	CAMEL	223	n/a	n/a	0	0	0
3153627	REC_WORD	wordpools/wasnorm_wordpool_576.txt	LTP313	ltpFR2	1	14	DRIVER	499	n/a	n/a	0	0	0
3154492	REC_WORD	wordpools/wasnorm_wordpool_576.txt	LTP313	ltpFR2	1	14	CHAUFFEUR	283	n/a	n/a	0	0	0
3158876	REC_WORD	wordpools/wasnorm_wordpool_576.txt	LTP313	ltpFR2	1	14	MUMMY	932	n/a	n/a	0	0	0
3159838	REC_WORD	wordpools/wasnorm_wordpool_576.txt	LTP313	ltpFR2	1	14	DANDRUFF	439	n/a	n/a	0	0	0
3161241	REC_WORD	wordpools/wasnorm_wordpool_576.txt	LTP313	ltpFR2	1	14	PENGUIN	1044	n/a	n/a	0	0	0
3164564	REC_WORD	wordpools/wasnorm_wordpool_576.txt	LTP313	ltpFR2	1	14	STOVE	1388	n/a	n/a	0	0	0
3165740	REC_WORD	wordpools/wasnorm_wordpool_576.txt	LTP313	ltpFR2	1	14	PLAID	1080	n/a	n/a	0	0	0
3213575	WORD	wordpools/wasnorm_wordpool_576.txt	LTP313	ltpFR2	1	15	STAR	1373	n/a	n/a	0	0	0
3216127	WORD	wordpools/wasnorm_wordpool_576.txt	LTP313	ltpFR2	1	15	FILM	565	n/a	n/a	0	0	0
3218854	WORD	wordpools/wasnorm_wordpool_576.txt	LTP313	ltpFR2	1	15	MESSAGE	888	n/a	n/a	0	0	0
3221415	WORD	wordpools/wasnorm_wordpool_576.txt	LTP313	ltpFR2	1	15	SNAIL	1332	n/a	n/a	0	0	0
3223990	WORD	wordpools/wasnorm_wordpool_576.txt	LTP313	ltpFR2	1	15	SLUG	1329	n/a	n/a	0	0	0
3226688	WORD	wordpools/wasnorm_wordpool_576.txt	LTP313	ltpFR2	1	15	FOREST	593	n/a	n/a	0	0	0
3229355	WORD	wordpools/wasnorm_wordpool_576.txt	LTP313	ltpFR2	1	15	TWISTER	1530	n/a	n/a	0	0	0
3231914	WORD	wordpools/wasnorm_wordpool_576.txt	LTP313	ltpFR2	1	15	COTTAGE	384	n/a	n/a	0	0	0
3234660	WORD	wordpools/wasnorm_wordpool_576.txt	LTP313	ltpFR2	1	15	WASP	1593	n/a	n/a	0	0	0
3237111	WORD	wordpools/wasnorm_wordpool_576.txt	LTP313	ltpFR2	1	15	SUNSET	1408	n/a	n/a	0	0	0
3239881	WORD	wordpools/wasnorm_wordpool_576.txt	LTP313	ltpFR2	1	15	COMET	353	n/a	n/a	0	0	0
3242599	WORD	wordpools/wasnorm_wordpool_576.txt	LTP313	ltpFR2	1	15	SCULPTURE	1258	n/a	n/a	0	0	0
3245036	WORD	wordpools/wasnorm_wordpool_576.txt	LTP313	ltpFR2	1	15	PORTRAIT	1111	n/a	n/a	0	0	0
3247588	WORD	wordpools/wasnorm_wordpool_576.txt	LTP313	ltpFR2	1	15	ARM	38	n/a	n/a	0	0	0
3250156	WORD	wordpools/wasnorm_wordpool_576.txt	LTP313	ltpFR2	1	15	DAISY	435	n/a	n/a	0	0	0
3252608	WORD	wordpools/wasnorm_wordpool_576.txt	LTP313	ltpFR2	1	15	HELMET	702	n/a	n/a	0	0	0
3255327	WORD	wordpools/wasnorm_wordpool_576.txt	LTP313	ltpFR2	1	15	LUMBER	848	n/a	n/a	0	0	0
3258097	WORD	wordpools/wasnorm_wordpool_576.txt	LTP313	ltpFR2	1	15	EGYPT	519	n/a	n/a	0	0	0
3260715	WORD	wordpools/wasnorm_wordpool_576.txt	LTP313	ltpFR2	1	15	DRUG	501	n/a	n/a	0	0	0
3263416	WORD	wordpools/wasnorm_wordpool_576.txt	LTP313	ltpFR2	1	15	PLUTO	1092	n/a	n/a	0	0	0
3265969	WORD	wordpools/wasnorm_wordpool_576.txt	LTP313	ltpFR2	1	15	LILY	821	n/a	n/a	0	0	0
3268487	WORD	wordpools/wasnorm_wordpool_576.txt	LTP313	ltpFR2	1	15	PICNIC	1060	n/a	n/a	0	0	0
3270926	WORD	wordpools/wasnorm_wordpool_576.txt	LTP313	ltpFR2	1	15	CATTLE	261	n/a	n/a	0	0	0
3273443	WORD	wordpools/wasnorm_wordpool_576.txt	LTP313	ltpFR2	1	15	BEEF	113	n/a	n/a	0	0	0
3275048	START	n/a	LTP313	ltpFR2	1	n/a	n/a	n/a	23	n/a	n/a	n/a	n/a
3276231	DISTRACTOR	n/a	LTP313	ltpFR2	1	15	n/a	n/a	n/a	n/a	0	0	0
3276243	PROB	n/a	LTP313	ltpFR2	1	n/a	n/a	n/a	23	11	3	3	5
3278278	PROB	n/a	LTP313	ltpFR2	1	n/a	n/a	n/a	23	18	3	7	8
3279580	PROB	n/a	LTP313	ltpFR2	1	n/a	n/a	n/a	23	21	8	8	3
3280965	PROB	n/a	LTP313	ltpFR2	1	n/a	n/a	n/a	23	11	2	1	8
3282364	PROB	n/a	LTP313	ltpFR2	1	n/a	n/a	n/a	23	15	7	5	3
3283431	PROB	n/a	LTP313	ltpFR2	1	n/a	n/a	n/a	23	3	1	1	1
3284333	PROB	n/a	LTP313	ltpFR2	1	n/a	n/a	n/a	23	14	5	4	5
3285567	PROB	n/a	LTP313	ltpFR2	1	n/a	n/a	n/a	23	12	2	6	4
3286952	PROB	n/a	LTP313	ltpFR2	1	n/a	n/a	n/a	23	11	1	3	7
3287937	PROB	n/a	LTP313	ltpFR2	1	n/a	n/a	n/a	23	18	7	6	5
3290270	PROB	n/a	LTP313	ltpFR2	1	n/a	n/a	n/a	23	16	7	3	6
3291272	PROB	n/a	LTP313	ltpFR2	1	n/a	n/a	n/a	23	18	5	7	6
3292590	PROB	n/a	LTP313	ltpFR2	1	n/a	n/a	n/a	23	19	7	3	9
3294092	PROB	n/a	LTP313	ltpFR2	1	n/a	n/a	n/a	23	19	9	6	4
3295359	PROB	n/a	LTP313	ltpFR2	1	n/a	n/a	n/a	23	17	9	4	4
3296693	PROB	n/a	LTP313	ltpFR2	1	n/a	n/a	n/a	23	15	3	4	8
3297921	STOP	n/a	LTP313	ltpFR2	1	n/a	n/a	n/a	23	n/a	n/a	n/a	n/a
3300931	REC_START	n/a	LTP313	ltpFR2	1	15	n/a	n/a	n/a	n/a	0	0	0
3300931	REC_WORD_VV	wordpools/wasnorm_wordpool_576.txt	LTP313	ltpFR2	1	15	<>	-1	n/a	n/a	0	0	0
3301589	REC_WORD	wordpools/wasnorm_wordpool_576.txt	LTP313	ltpFR2	1	15	CATTLE	261	n/a	n/a	0	0	0
3302809	REC_WORD	wordpools/wasnorm_wordpool_576.txt	LTP313	ltpFR2	1	15	BEEF	113	n/a	n/a	0	0	0
3306697	REC_WORD	wordpools/wasnorm_wordpool_576.txt	LTP313	ltpFR2	1	15	PLUTO	1092	n/a	n/a	0	0	0
3308302	REC_WORD	wordpools/wasnorm_wordpool_576.txt	LTP313	ltpFR2	1	15	LILY	821	n/a	n/a	0	0	0
3309996	REC_WORD	wordpools/wasnorm_wordpool_576.txt	LTP313	ltpFR2	1	15	PICNIC	1060	n/a	n/a	0	0	0
3314529	REC_WORD	wordpools/wasnorm_wordpool_576.txt	LTP313	ltpFR2	1	15	STAR	1373	n/a	n/a	0	0	0
3317474	REC_WORD	wordpools/wasnorm_wordpool_576.txt	LTP313	ltpFR2	1	15	ROLL	-1	n/a	n/a	0	0	0
3319307	REC_WORD	wordpools/wasnorm_wordpool_576.txt	LTP313	ltpFR2	1	15	SNAIL	1332	n/a	n/a	0	0	0
3320442	REC_WORD	wordpools/wasnorm_wordpool_576.txt	LTP313	ltpFR2	1	15	SLUG	1329	n/a	n/a	0	0	0
3321812	REC_WORD	wordpools/wasnorm_wordpool_576.txt	LTP313	ltpFR2	1	15	MESSAGE	888	n/a	n/a	0	0	0
3327235	REC_WORD	wordpools/wasnorm_wordpool_576.txt	LTP313	ltpFR2	1	15	EGYPT	519	n/a	n/a	0	0	0
3330309	REC_WORD	wordpools/wasnorm_wordpool_576.txt	LTP313	ltpFR2	1	15	CABIN	211	n/a	n/a	0	0	0
3331658	REC_WORD	wordpools/wasnorm_wordpool_576.txt	LTP313	ltpFR2	1	15	SCULPTURE	1258	n/a	n/a	0	0	0
3333007	REC_WORD	wordpools/wasnorm_wordpool_576.txt	LTP313	ltpFR2	1	15	ARM	38	n/a	n/a	0	0	0
3334036	REC_WORD	wordpools/wasnorm_wordpool_576.txt	LTP313	ltpFR2	1	15	PORTRAIT	1111	n/a	n/a	0	0	0
3337130	REC_WORD	wordpools/wasnorm_wordpool_576.txt	LTP313	ltpFR2	1	15	COMET	353	n/a	n/a	0	0	0
3338036	REC_WORD	wordpools/wasnorm_wordpool_576.txt	LTP313	ltpFR2	1	15	SUNSET	1408	n/a	n/a	0	0	0
3339358	REC_WORD	wordpools/wasnorm_wordpool_576.txt	LTP313	ltpFR2	1	15	TWISTER	1530	n/a	n/a	0	0	0
3340516	REC_WORD	wordpools/wasnorm_wordpool_576.txt	LTP313	ltpFR2	1	15	WASP	1593	n/a	n/a	0	0	0
3345541	REC_WORD	wordpools/wasnorm_wordpool_576.txt	LTP313	ltpFR2	1	15	HELMET	702	n/a	n/a	0	0	0
3391351	DISTRACTOR	n/a	LTP313	ltpFR2	1	16	n/a	n/a	n/a	n/a	0	0	0
3391352	START	n/a	LTP313	ltpFR2	1	n/a	n/a	n/a	24	n/a	n/a	n/a	n/a
3391367	PROB	n/a	LTP313	ltpFR2	1	n/a	n/a	n/a	24	18	7	7	4
3392807	PROB	n/a	LTP313	ltpFR2	1	n/a	n/a	n/a	24	17	8	6	3
3394091	PROB	n/a	LTP313	ltpFR2	1	n/a	n/a	n/a	24	14	2	3	9
3395193	PROB	n/a	LTP313	ltpFR2	1	n/a	n/a	n/a	24	10	2	7	1
3396544	PROB	n/a	LTP313	ltpFR2	1	n/a	n/a	n/a	24	11	6	1	4
3397594	PROB	n/a	LTP313	ltpFR2	1	n/a	n/a	n/a	24	21	8	4	9
3398813	PROB	n/a	LTP313	ltpFR2	1	n/a	n/a	n/a	24	11	1	1	9
3399831	PROB	n/a	LTP313	ltpFR2	1	n/a	n/a	n/a	24	12	2	9	1
3400880	PROB	n/a	LTP313	ltpFR2	1	n/a	n/a	n/a	24	17	3	5	9
3402430	PROB	n/a	LTP313	ltpFR2	1	n/a	n/a	n/a	24	6	1	2	3
3403567	PROB	n/a	LTP313	ltpFR2	1	n/a	n/a	n/a	24	16	5	8	3
3404650	PROB	n/a	LTP313	ltpFR2	1	n/a	n/a	n/a	24	11	3	1	7
3405736	PROB	n/a	LTP313	ltpFR2	1	n/a	n/a	n/a	24	15	5	1	9
3407203	PROB	n/a	LTP313	ltpFR2	1	n/a	n/a	n/a	24	16	7	2	7
3408604	PROB	n/a	LTP313	ltpFR2	1	n/a	n/a	n/a	24	18	2	7	9
3409705	PROB	n/a	LTP313	ltpFR2	1	n/a	n/a	n/a	24	14	1	4	9
3410939	PROB	n/a	LTP313	ltpFR2	1	n/a	n/a	n/a	24	16	2	9	5
3412190	PROB	n/a	LTP313	ltpFR2	1	n/a	n/a	n/a	24	8	2	2	4
3413457	PROB	n/a	LTP313	ltpFR2	1	n/a	n/a	n/a	24	18	8	7	3
3414673	STOP	n/a	LTP313	ltpFR2	1	n/a	n/a	n/a	24	n/a	n/a	n/a	n/a
3416319	WORD	wordpools/wasnorm_wordpool_576.txt	LTP313	ltpFR2	1	16	COLONEL	348	n/a	n/a	0	0	0
3418990	WORD	wordpools/wasnorm_wordpool_576.txt	LTP313	ltpFR2	1	16	WORLD	1622	n/a	n/a	0	0	0
3421415	WORD	wordpools/wasnorm_wordpool_576.txt	LTP313	ltpFR2	1	16	BUG	187	n/a	n/a	0	0	0
3424050	WORD	wordpools/wasnorm_wordpool_576.txt	LTP313	ltpFR2	1	16	COLLEGE	346	n/a	n/a	0	0	0
3426662	WORD	wordpools/wasnorm_wordpool_576.txt	LTP313	ltpFR2	1	16	SPHINX	1349	n/a	n/a	0	0	0
3429130	WORD	wordpools/wasnorm_wordpool_576.txt	LTP313	ltpFR2	1	16	SCARECROW	1245	n/a	n/a	0	0	0
3431774	WORD	wordpools/wasnorm_wordpool_576.txt	LTP313	ltpFR2	1	16	SKIRT	1319	n/a	n/a	0	0	0
3434259	WORD	wordpools/wasnorm_wordpool_576.txt	LTP313	ltpFR2	1	16	DENIM	446	n/a	n/a	0	0	0
3436720	WORD	wordpools/wasnorm_wordpool_576.txt	LTP313	ltpFR2	1	16	HEDGE	699	n/a	n/a	0	0	0
3439430	WORD	wordpools/wasnorm_wordpool_576.txt	LTP313	ltpFR2	1	16	APPLE	33	n/a	n/a	0	0	0
3442023	WORD	wordpools/wasnorm_wordpool_576.txt	LTP313	ltpFR2	1	16	CANAL	226	n/a	n/a	0	0	0
3444793	WORD	wordpools/wasnorm_wordpool_576.txt	LTP313	ltpFR2	1	16	SURVEY	1414	n/a	n/a	0	0	0
3447393	WORD	wordpools/wasnorm_wordpool_576.txt	LTP313	ltpFR2	1	16	JUDGE	761	n/a	n/a	0	0	0
3449897	WORD	wordpools/wasnorm_wordpool_576.txt	LTP313	ltpFR2	1	16	GAVEL	627	n/a	n/a	0	0	0
3452625	WORD	wordpools/wasnorm_wordpool_576.txt	LTP313	ltpFR2	1	16	CASKET	255	n/a	n/a	0	0	0
3455427	WORD	wordpools/wasnorm_wordpool_576.txt	LTP313	ltpFR2	1	16	POET	1095	n/a	n/a	0	0	0
3457852	WORD	wordpools/wasnorm_wordpool_576.txt	LTP313	ltpFR2	1	16	FLEET	578	n/a	n/a	0	0	0
3460397	WORD	wordpools/wasnorm_wordpool_576.txt	LTP313	ltpFR2	1	16	MARS	873	n/a	n/a	0	0	0
3462817	WORD	wordpools/wasnorm_wordpool_576.txt	LTP313	ltpFR2	1	16	DUSTPAN	509	n/a	n/a	0	0	0
3465568	WORD	wordpools/wasnorm_wordpool_576.txt	LTP313	ltpFR2	1	16	GARBAGE	622	n/a	n/a	0	0	0
3468338	WORD	wordpools/wasnorm_wordpool_576.txt	LTP313	ltpFR2	1	16	SWORD	1423	n/a	n/a	0	0	0
3471062	WORD	wordpools/wasnorm_wordpool_576.txt	LTP313	ltpFR2	1	16	TRENCH	1503	n/a	n/a	0	0	0
3473575	WORD	wordpools/wasnorm_wordpool_576.txt	LTP313	ltpFR2	1	16	CAPTIVE	240	n/a	n/a	0	0	0
3476045	WORD	wordpools/wasnorm_wordpool_576.txt	LTP313	ltpFR2	1	16	COCOON	339	n/a	n/a	0	0	0
3477652	START	n/a	LTP313	ltpFR2	1	n/a	n/a	n/a	25	n/a	n/a	n/a	n/a
3478806	DISTRACTOR	n/a	LTP313	ltpFR2	1	16	n/a	n/a	n/a	n/a	0	0	0
3478814	PROB	n/a	LTP313	ltpFR2	1	n/a	n/a	n/a	25	21	6	9	6
3481731	PROB	n/a	LTP313	ltpFR2	1	n/a	n/a	n/a	25	18	9	1	8
3483366	PROB	n/a	LTP313	ltpFR2	1	n/a	n/a	n/a	25	13	5	2	6
3484784	PROB	n/a	LTP313	ltpFR2	1	n/a	n/a	n/a	25	16	4	3	9
3486051	PROB	n/a	LTP313	ltpFR2	1	n/a	n/a	n/a	25	19	5	9	5
3487451	PROB	n/a	LTP313	ltpFR2	1	n/a	n/a	n/a	25	14	6	2	6
3490422	PROB	n/a	LTP313	ltpFR2	1	n/a	n/a	n/a	25	19	1	9	9
3492040	PROB	n/a	LTP313	ltpFR2	1	n/a	n/a	n/a	25	18	7	7	4
3493741	PROB	n/a	LTP313	ltpFR2	1	n/a	n/a	n/a	25	23	9	7	7
3495508	PROB	n/a	LTP313	ltpFR2	1	n/a	n/a	n/a	25	13	5	4	4
3496861	PROB	n/a	LTP313	ltpFR2	1	n/a	n/a	n/a	25	18	8	9	1
3497929	PROB	n/a	LTP313	ltpFR2	1	n/a	n/a	n/a	25	20	5	7	8
3499179	PROB	n/a	LTP313	ltpFR2	1	n/a	n/a	n/a	25	19	3	7	9
3500552	STOP	n/a	LTP313	ltpFR2	1	n/a	n/a	n/a	25	n/a	n/a	n/a	n/a
3503550	REC_START	n/a	LTP313	ltpFR2	1	16	n/a	n/a	n/a	n/a	0	0	0
3504119	REC_WORD	wordpools/wasnorm_wordpool_576.txt	LTP313	ltpFR2	1	16	TRENCH	1503	n/a	n/a	0	0	0
3506754	REC_WORD	wordpools/wasnorm_wordpool_576.txt	LTP313	ltpFR2	1	16	GARBAGE	622	n/a	n/a	0	0	0
3508085	REC_WORD	wordpools/wasnorm_wordpool_576.txt	LTP313	ltpFR2	1	16	COCOON	339	n/a	n/a	0	0	0
3512007	REC_WORD	wordpools/wasnorm_wordpool_576.txt	LTP313	ltpFR2	1	16	DUSTPAN	509	n/a	n/a	0	0	0
3514228	REC_WORD	wordpools/wasnorm_wordpool_576.txt	LTP313	ltpFR2	1	16	SWORD	1423	n/a	n/a	0	0	0
3520379	REC_WORD	wordpools/wasnorm_wordpool_576.txt	LTP313	ltpFR2	1	16	COLONEL	348	n/a	n/a	0	0	0
3522165	REC_WORD	wordpools/wasnorm_wordpool_576.txt	LTP313	ltpFR2	1	16	BUG	187	n/a	n/a	0	0	0
3523706	REC_WORD	wordpools/wasnorm_wordpool_576.txt	LTP313	ltpFR2	1	16	WORLD	1622	n/a	n/a	0	0	0
3526464	REC_WORD	wordpools/wasnorm_wordpool_576.txt	LTP313	ltpFR2	1	16	COLLEGE	346	n/a	n/a	0	0	0
3528347	REC_WORD	wordpools/wasnorm_wordpool_576.txt	LTP313	ltpFR2	1	16	SPHINX	1349	n/a	n/a	0	0	0
3530877	REC_WORD	wordpools/wasnorm_wordpool_576.txt	LTP313	ltpFR2	1	16	SCARECROW	1245	n/a	n/a	0	0	0
3532261	REC_WORD	wordpools/wasnorm_wordpool_576.txt	LTP313	ltpFR2	1	16	DENIM	446	n/a	n/a	0	0	0
3533294	REC_WORD	wordpools/wasnorm_wordpool_576.txt	LTP313	ltpFR2	1	16	SKIRT	1319	n/a	n/a	0	0	0
3536084	REC_WORD	wordpools/wasnorm_wordpool_576.txt	LTP313	ltpFR2	1	16	HEDGE	699	n/a	n/a	0	0	0
3537367	REC_WORD	wordpools/wasnorm_wordpool_576.txt	LTP313	ltpFR2	1	16	APPLE	33	n/a	n/a	0	0	0
3539888	REC_WORD	wordpools/wasnorm_wordpool_576.txt	LTP313	ltpFR2	1	16	CANAL	226	n/a	n/a	0	0	0
3542727	REC_WORD	wordpools/wasnorm_wordpool_576.txt	LTP313	ltpFR2	1	16	JUDGE	761	n/a	n/a	0	0	0
3544584	REC_WORD	wordpools/wasnorm_wordpool_576.txt	LTP313	ltpFR2	1	16	GAVEL	627	n/a	n/a	0	0	0
3547498	REC_WORD	wordpools/wasnorm_wordpool_576.txt	LTP313	ltpFR2	1	16	POET	1095	n/a	n/a	0	0	0
3552637	REC_WORD	wordpools/wasnorm_wordpool_576.txt	LTP313	ltpFR2	1	16	CASKET	255	n/a	n/a	0	0	0
3557002	REC_WORD	wordpools/wasnorm_wordpool_576.txt	LTP313	ltpFR2	1	16	MARS	873	n/a	n/a	0	0	0
3580096	REST_REWET	n/a	LTP313	ltpFR2	1	16	n/a	n/a	n/a	n/a	0	0	0
3875070	WORD	wordpools/wasnorm_wordpool_576.txt	LTP313	ltpFR2	1	17	HARP	689	n/a	n/a	0	0	0
3877673	WORD	wordpools/wasnorm_wordpool_576.txt	LTP313	ltpFR2	1	17	DANCER	437	n/a	n/a	0	0	0
3880474	WORD	wordpools/wasnorm_wordpool_576.txt	LTP313	ltpFR2	1	17	DOUGHNUT	490	n/a	n/a	0	0	0
3883176	WORD	wordpools/wasnorm_wordpool_576.txt	LTP313	ltpFR2	1	17	SALAD	1224	n/a	n/a	0	0	0
3885634	WORD	wordpools/wasnorm_wordpool_576.txt	LTP313	ltpFR2	1	17	RADISH	1158	n/a	n/a	0	0	0
3888286	WORD	wordpools/wasnorm_wordpool_576.txt	LTP313	ltpFR2	1	17	SWITCH	1422	n/a	n/a	0	0	0
3890855	WORD	wordpools/wasnorm_wordpool_576.txt	LTP313	ltpFR2	1	17	HIGHWAY	707	n/a	n/a	0	0	0
3893550	WORD	wordpools/wasnorm_wordpool_576.txt	LTP313	ltpFR2	1	17	GRAVEL	659	n/a	n/a	0	0	0
3896070	WORD	wordpools/wasnorm_wordpool_576.txt	LTP313	ltpFR2	1	17	BOX	159	n/a	n/a	0	0	0
3898486	WORD	wordpools/wasnorm_wordpool_576.txt	LTP313	ltpFR2	1	17	NOTEBOOK	959	n/a	n/a	0	0	0
3901056	WORD	wordpools/wasnorm_wordpool_576.txt	LTP313	ltpFR2	1	17	DRINK	498	n/a	n/a	0	0	0
3903609	WORD	wordpools/wasnorm_wordpool_576.txt	LTP313	ltpFR2	1	17	GOBLIN	645	n/a	n/a	0	0	0
3906127	WORD	wordpools/wasnorm_wordpool_576.txt	LTP313	ltpFR2	1	17	SMOG	1330	n/a	n/a	0	0	0
3908846	WORD	wordpools/wasnorm_wordpool_576.txt	LTP313	ltpFR2	1	17	TAXI	1438	n/a	n/a	0	0	0
3911296	WORD	wordpools/wasnorm_wordpool_576.txt	LTP313	ltpFR2	1	17	CABIN	211	n/a	n/a	0	0	0
3913842	WORD	wordpools/wasnorm_wordpool_576.txt	LTP313	ltpFR2	1	17	TEMPLE	1448	n/a	n/a	0	0	0
3916460	WORD	wordpools/wasnorm_wordpool_576.txt	LTP313	ltpFR2	1	17	COUNTY	389	n/a	n/a	0	0	0
3919195	WORD	wordpools/wasnorm_wordpool_576.txt	LTP313	ltpFR2	1	17	HOOK	715	n/a	n/a	0	0	0
3921864	WORD	wordpools/wasnorm_wordpool_576.txt	LTP313	ltpFR2	1	17	NECKLACE	940	n/a	n/a	0	0	0
3924441	WORD	wordpools/wasnorm_wordpool_576.txt	LTP313	ltpFR2	1	17	BARLEY	88	n/a	n/a	0	0	0
3926893	WORD	wordpools/wasnorm_wordpool_576.txt	LTP313	ltpFR2	1	17	PREACHER	1119	n/a	n/a	0	0	0
3929521	WORD	wordpools/wasnorm_wordpool_576.txt	LTP313	ltpFR2	1	17	MEDAL	885	n/a	n/a	0	0	0
3932040	WORD	wordpools/wasnorm_wordpool_576.txt	LTP313	ltpFR2	1	17	WRENCH	1625	n/a	n/a	0	0	0
3934843	WORD	wordpools/wasnorm_wordpool_576.txt	LTP313	ltpFR2	1	17	THREAD	1460	n/a	n/a	0	0	0
3936451	START	n/a	LTP313	ltpFR2	1	n/a	n/a	n/a	26	n/a	n/a	n/a	n/a
3937507	DISTRACTOR	n/a	LTP313	ltpFR2	1	17	n/a	n/a	n/a	n/a	0	0	0
3937511	PROB	n/a	LTP313	ltpFR2	1	n/a	n/a	n/a	26	15	6	2	9
3940446	PROB	n/a	LTP313	ltpFR2	1	n/a	n/a	n/a	26	19	7	3	9
3941713	PROB	n/a	LTP313	ltpFR2	1	n/a	n/a	n/a	26	24	9	7	8
3945315	PROB	n/a	LTP313	ltpFR2	1	n/a	n/a	n/a	26	17	5	4	8
3946549	PROB	n/a	LTP313	ltpFR2	1	n/a	n/a	n/a	26	15	8	4	3
3947685	PROB	n/a	LTP313	ltpFR2	1	n/a	n/a	n/a	26	16	1	7	8
3949135	PROB	n/a	LTP313	ltpFR2	1	n/a	n/a	n/a	26	12	2	8	2
3950286	PROB	n/a	LTP313	ltpFR2	1	n/a	n/a	n/a	26	16	7	2	7
3952155	PROB	n/a	LTP313	ltpFR2	1	n/a	n/a	n/a	26	19	3	9	7
3954858	PROB	n/a	LTP313	ltpFR2	1	n/a	n/a	n/a	26	14	9	3	2
3955993	PROB	n/a	LTP313	ltpFR2	1	n/a	n/a	n/a	26	12	4	6	2
3956878	PROB	n/a	LTP313	ltpFR2	1	n/a	n/a	n/a	26	17	9	2	6
3958029	PROB	n/a	LTP313	ltpFR2	1	n/a	n/a	n/a	26	21	8	4	9
3959081	STOP	n/a	LTP313	ltpFR2	1	n/a	n/a	n/a	26	n/a	n/a	n/a	n/a
3962330	REC_START	n/a	LTP313	ltpFR2	1	17	n/a	n/a	n/a	n/a	0	0	0
3964551	REC_WORD	wordpools/wasnorm_wordpool_576.txt	LTP313	ltpFR2	1	17	GRAVEL	659	n/a	n/a	0	0	0
3965797	REC_WORD	wordpools/wasnorm_wordpool_576.txt	LTP313	ltpFR2	1	17	BOX	159	n/a	n/a	0	0	0
3967492	REC_WORD	wordpools/wasnorm_wordpool_576.txt	LTP313	ltpFR2	1	17	PREACHER	1119	n/a	n/a	0	0	0
3968581	REC_WORD	wordpools/wasnorm_wordpool_576.txt	LTP313	ltpFR2	1	17	TEMPLE	1448	n/a	n/a	0	0	0
3970622	REC_WORD	wordpools/wasnorm_wordpool_576.txt	LTP313	ltpFR2	1	17	THREAD	1460	n/a	n/a	0	0	0
3979484	REC_WORD	wordpools/wasnorm_wordpool_576.txt	LTP313	ltpFR2	1	17	TAXI	1438	n/a	n/a	0	0	0
3982882	REC_WORD	wordpools/wasnorm_wordpool_576.txt	LTP313	ltpFR2	1	17	DANCER	437	n/a	n/a	0	0	0
3983884	REC_WORD	wordpools/wasnorm_wordpool_576.txt	LTP313	ltpFR2	1	17	HARP	689	n/a	n/a	0	0	0
3985090	REC_WORD	wordpools/wasnorm_wordpool_576.txt	LTP313	ltpFR2	1	17	DOUGHNUT	490	n/a	n/a	0	0	0
3986646	REC_WORD	wordpools/wasnorm_wordpool_576.txt	LTP313	ltpFR2	1	17	SALAD	1224	n/a	n/a	0	0	0
3990371	REC_WORD	wordpools/wasnorm_wordpool_576.txt	LTP313	ltpFR2	1	17	RADISH	1158	n/a	n/a	0	0	0
3996386	REC_WORD	wordpools/wasnorm_wordpool_576.txt	LTP313	ltpFR2	1	17	GOBLIN	645	n/a	n/a	0	0	0
3997360	REC_WORD	wordpools/wasnorm_wordpool_576.txt	LTP313	ltpFR2	1	17	DRINK	498	n/a	n/a	0	0	0
3999065	REC_WORD	wordpools/wasnorm_wordpool_576.txt	LTP313	ltpFR2	1	17	NOTEBOOK	959	n/a	n/a	0	0	0
4002889	REC_WORD	wordpools/wasnorm_wordpool_576.txt	LTP313	ltpFR2	1	17	SMOG	1330	n/a	n/a	0	0	0
4052773	WORD	wordpools/wasnorm_wordpool_576.txt	LTP313	ltpFR2	1	18	GRIZZLY	662	n/a	n/a	0	0	0
4055524	WORD	wordpools/wasnorm_wordpool_576.txt	LTP313	ltpFR2	1	18	CITRUS	313	n/a	n/a	0	0	0
4058059	WORD	wordpools/wasnorm_wordpool_576.txt	LTP313	ltpFR2	1	18	FRUIT	610	n/a	n/a	0	0	0
4060796	WORD	wordpools/wasnorm_wordpool_576.txt	LTP313	ltpFR2	1	18	LION	827	n/a	n/a	0	0	0
4063615	WORD	wordpools/wasnorm_wordpool_576.txt	LTP313	ltpFR2	1	18	STREAM	1392	n/a	n/a	0	0	0
4066402	WORD	wordpools/wasnorm_wordpool_576.txt	LTP313	ltpFR2	1	18	RIVER	1194	n/a	n/a	0	0	0
4069085	WORD	wordpools/wasnorm_wordpool_576.txt	LTP313	ltpFR2	1	18	SHERIFF	1284	n/a	n/a	0	0	0
4071854	WORD	wordpools/wasnorm_wordpool_576.txt	LTP313	ltpFR2	1	18	EYELASH	546	n/a	n/a	0	0	0
4074437	WORD	wordpools/wasnorm_wordpool_576.txt	LTP313	ltpFR2	1	18	FRECKLE	602	n/a	n/a	0	0	0
4077128	WORD	wordpools/wasnorm_wordpool_576.txt	LTP313	ltpFR2	1	18	SAUSAGE	1238	n/a	n/a	0	0	0
4079710	WORD	wordpools/wasnorm_wordpool_576.txt	LTP313	ltpFR2	1	18	PISTOL	1075	n/a	n/a	0	0	0
4082380	WORD	wordpools/wasnorm_wordpool_576.txt	LTP313	ltpFR2	1	18	THRONE	1461	n/a	n/a	0	0	0
4085130	WORD	wordpools/wasnorm_wordpool_576.txt	LTP313	ltpFR2	1	18	EMPIRE	530	n/a	n/a	0	0	0
4087933	WORD	wordpools/wasnorm_wordpool_576.txt	LTP313	ltpFR2	1	18	TEACHER	1440	n/a	n/a	0	0	0
4090669	WORD	wordpools/wasnorm_wordpool_576.txt	LTP313	ltpFR2	1	18	VICTIM	1562	n/a	n/a	0	0	0
4093119	WORD	wordpools/wasnorm_wordpool_576.txt	LTP313	ltpFR2	1	18	TWEEZERS	1526	n/a	n/a	0	0	0
4095571	WORD	wordpools/wasnorm_wordpool_576.txt	LTP313	ltpFR2	1	18	SUNRISE	1407	n/a	n/a	0	0	0
4098041	WORD	wordpools/wasnorm_wordpool_576.txt	LTP313	ltpFR2	1	18	PUDDLE	1140	n/a	n/a	0	0	0
4100831	WORD	wordpools/wasnorm_wordpool_576.txt	LTP313	ltpFR2	1	18	BATHTUB	100	n/a	n/a	0	0	0
4103644	WORD	wordpools/wasnorm_wordpool_576.txt	LTP313	ltpFR2	1	18	CUSTARD	429	n/a	n/a	0	0	0
4106414	WORD	wordpools/wasnorm_wordpool_576.txt	LTP313	ltpFR2	1	18	RIFLE	1192	n/a	n/a	0	0	0
4108916	WORD	wordpools/wasnorm_wordpool_576.txt	LTP313	ltpFR2	1	18	CEILING	265	n/a	n/a	0	0	0
4111332	WORD	wordpools/wasnorm_wordpool_576.txt	LTP313	ltpFR2	1	18	CLAMP	316	n/a	n/a	0	0	0
4113802	WORD	wordpools/wasnorm_wordpool_576.txt	LTP313	ltpFR2	1	18	SHORTS	1293	n/a	n/a	0	0	0
4115409	START	n/a	LTP313	ltpFR2	1	n/a	n/a	n/a	27	n/a	n/a	n/a	n/a
4116226	DISTRACTOR	n/a	LTP313	ltpFR2	1	18	n/a	n/a	n/a	n/a	0	0	0
4116236	PROB	n/a	LTP313	ltpFR2	1	n/a	n/a	n/a	27	8	1	2	5
4119611	PROB	n/a	LTP313	ltpFR2	1	n/a	n/a	n/a	27	13	5	1	7
4120697	PROB	n/a	LTP313	ltpFR2	1	n/a	n/a	n/a	27	15	2	9	4
4122063	PROB	n/a	LTP313	ltpFR2	1	n/a	n/a	n/a	27	22	8	6	8
4124415	PROB	n/a	LTP313	ltpFR2	1	n/a	n/a	n/a	27	16	6	9	1
4125650	PROB	n/a	LTP313	ltpFR2	1	n/a	n/a	n/a	27	19	6	7	6
4127952	PROB	n/a	LTP313	ltpFR2	1	n/a	n/a	n/a	27	18	9	4	5
4129753	PROB	n/a	LTP313	ltpFR2	1	n/a	n/a	n/a	27	19	3	8	8
4130922	PROB	n/a	LTP313	ltpFR2	1	n/a	n/a	n/a	27	19	3	8	8
4131989	PROB	n/a	LTP313	ltpFR2	1	n/a	n/a	n/a	27	21	7	6	8
4133490	PROB	n/a	LTP313	ltpFR2	1	n/a	n/a	n/a	27	13	4	4	5
4135709	PROB	n/a	LTP313	ltpFR2	1	n/a	n/a	n/a	27	9	3	4	2
4136943	PROB	n/a	LTP313	ltpFR2	1	n/a	n/a	n/a	27	17	4	6	7
4138224	STOP	n/a	LTP313	ltpFR2	1	n/a	n/a	n/a	27	n/a	n/a	n/a	n/a
4141230	REC_START	n/a	LTP313	ltpFR2	1	18	n/a	n/a	n/a	n/a	0	0	0
4141985	REC_WORD	wordpools/wasnorm_wordpool_576.txt	LTP313	ltpFR2	1	18	GRIZZLY	662	n/a	n/a	0	0	0
4143308	REC_WORD	wordpools/wasnorm_wordpool_576.txt	LTP313	ltpFR2	1	18	CITRUS	313	n/a	n/a	0	0	0
4144913	REC_WORD	wordpools/wasnorm_wordpool_576.txt	LTP313	ltpFR2	1	18	LION	827	n/a	n/a	0	0	0
4146626	REC_WORD	wordpools/wasnorm_wordpool_576.txt	LTP313	ltpFR2	1	18	STREAM	1392	n/a	n/a	0	0	0
4148158	REC_WORD	wordpools/wasnorm_wordpool_576.txt	LTP313	ltpFR2	1	18	RIVER	1194	n/a	n/a	0	0	0
4150546	REC_WORD	wordpools/wasnorm_wordpool_576.txt	LTP313	ltpFR2	1	18	PISTOL	1075	n/a	n/a	0	0	0
4151729	REC_WORD	wordpools/wasnorm_wordpool_576.txt	LTP313	ltpFR2	1	18	EYELASH	546	n/a	n/a	0	0	0
4154935	REC_WORD	wordpools/wasnorm_wordpool_576.txt	LTP313	ltpFR2	1	18	SAUSAGE	1238	n/a	n/a	0	0	0
4160560	REC_WORD	wordpools/wasnorm_wordpool_576.txt	LTP313	ltpFR2	1	18	TEACHER	1440	n/a	n/a	0	0	0
4162878	REC_WORD	wordpools/wasnorm_wordpool_576.txt	LTP313	ltpFR2	1	18	TWEEZERS	1526	n/a	n/a	0	0	0
4165828	REC_WORD	wordpools/wasnorm_wordpool_576.txt	LTP313	ltpFR2	1	18	RIFLE	1192	n/a	n/a	0	0	0
4171785	REC_WORD	wordpools/wasnorm_wordpool_576.txt	LTP313	ltpFR2	1	18	VICTIM	1562	n/a	n/a	0	0	0
4231656	WORD	wordpools/wasnorm_wordpool_576.txt	LTP313	ltpFR2	1	19	COUCH	386	n/a	n/a	0	0	0
4234207	WORD	wordpools/wasnorm_wordpool_576.txt	LTP313	ltpFR2	1	19	DRESSER	496	n/a	n/a	0	0	0
4236894	WORD	wordpools/wasnorm_wordpool_576.txt	LTP313	ltpFR2	1	19	EAGLE	512	n/a	n/a	0	0	0
4239646	WORD	wordpools/wasnorm_wordpool_576.txt	LTP313	ltpFR2	1	19	HUMAN	726	n/a	n/a	0	0	0
4242364	WORD	wordpools/wasnorm_wordpool_576.txt	LTP313	ltpFR2	1	19	TRANSPLANT	1496	n/a	n/a	0	0	0
4244886	WORD	wordpools/wasnorm_wordpool_576.txt	LTP313	ltpFR2	1	19	NEUTRON	947	n/a	n/a	0	0	0
4247501	WORD	wordpools/wasnorm_wordpool_576.txt	LTP313	ltpFR2	1	19	DENTIST	447	n/a	n/a	0	0	0
4250204	WORD	wordpools/wasnorm_wordpool_576.txt	LTP313	ltpFR2	1	19	BRACES	164	n/a	n/a	0	0	0
4252974	WORD	wordpools/wasnorm_wordpool_576.txt	LTP313	ltpFR2	1	19	GAZELLE	628	n/a	n/a	0	0	0
4255675	WORD	wordpools/wasnorm_wordpool_576.txt	LTP313	ltpFR2	1	19	QUEEN	1149	n/a	n/a	0	0	0
4258144	WORD	wordpools/wasnorm_wordpool_576.txt	LTP313	ltpFR2	1	19	PRINCE	1124	n/a	n/a	0	0	0
4260931	WORD	wordpools/wasnorm_wordpool_576.txt	LTP313	ltpFR2	1	19	LAPEL	800	n/a	n/a	0	0	0
4263666	WORD	wordpools/wasnorm_wordpool_576.txt	LTP313	ltpFR2	1	19	SANDWICH	1232	n/a	n/a	0	0	0
4266284	WORD	wordpools/wasnorm_wordpool_576.txt	LTP313	ltpFR2	1	19	WIDOW	1608	n/a	n/a	0	0	0
4268954	WORD	wordpools/wasnorm_wordpool_576.txt	LTP313	ltpFR2	1	19	TOMBSTONE	1478	n/a	n/a	0	0	0
4271606	WORD	wordpools/wasnorm_wordpool_576.txt	LTP313	ltpFR2	1	19	BRIEFCASE	175	n/a	n/a	0	0	0
4274307	WORD	wordpools/wasnorm_wordpool_576.txt	LTP313	ltpFR2	1	19	WAGON	1578	n/a	n/a	0	0	0
4276894	WORD	wordpools/wasnorm_wordpool_576.txt	LTP313	ltpFR2	1	19	RELISH	1183	n/a	n/a	0	0	0
4279328	WORD	wordpools/wasnorm_wordpool_576.txt	LTP313	ltpFR2	1	19	ROCKET	1202	n/a	n/a	0	0	0
4281965	WORD	wordpools/wasnorm_wordpool_576.txt	LTP313	ltpFR2	1	19	ANTLER	29	n/a	n/a	0	0	0
4284531	WORD	wordpools/wasnorm_wordpool_576.txt	LTP313	ltpFR2	1	19	ARMY	39	n/a	n/a	0	0	0
4287068	WORD	wordpools/wasnorm_wordpool_576.txt	LTP313	ltpFR2	1	19	FOOT	590	n/a	n/a	0	0	0
4289502	WORD	wordpools/wasnorm_wordpool_576.txt	LTP313	ltpFR2	1	19	MARKER	870	n/a	n/a	0	0	0
4292238	WORD	wordpools/wasnorm_wordpool_576.txt	LTP313	ltpFR2	1	19	FRAGRANCE	599	n/a	n/a	0	0	0
4293842	START	n/a	LTP313	ltpFR2	1	n/a	n/a	n/a	28	n/a	n/a	n/a	n/a
4294910	DISTRACTOR	n/a	LTP313	ltpFR2	1	19	n/a	n/a	n/a	n/a	0	0	0
4294924	PROB	n/a	LTP313	ltpFR2	1	n/a	n/a	n/a	28	23	7	9	7
4297443	PROB	n/a	LTP313	ltpFR2	1	n/a	n/a	n/a	28	18	6	6	6
4298994	PROB	n/a	LTP313	ltpFR2	1	n/a	n/a	n/a	28	22	7	8	7
4301645	PROB	n/a	LTP313	ltpFR2	1	n/a	n/a	n/a	28	12	1	5	6
4302913	PROB	n/a	LTP313	ltpFR2	1	n/a	n/a	n/a	28	14	6	4	4
4303881	PROB	n/a	LTP313	ltpFR2	1	n/a	n/a	n/a	28	15	9	3	3
