mstime	trial_type	stim_file	subject	experiment	session	trial	task	item_name	item_num	recog_resp	recog_conf	resp	answer	test_x	test_y	test_z	color_r	color_g	color_b	case	font
0	SESS_START	n/a	LTP096	ltpFR	13	n/a	n/a	n/a	n/a	1	3	n/a	n/a	0	0	0	n/a	n/a	n/a	n/a	n/a
23396	START	n/a	LTP096	ltpFR	13	n/a	n/a	n/a	n/a	n/a	n/a	n/a	n/a	n/a	n/a	n/a	n/a	n/a	n/a	n/a	n/a
23421	PROB	n/a	LTP096	ltpFR	13	n/a	n/a	n/a	n/a	n/a	n/a	n/a	10	6	2	2	n/a	n/a	n/a	n/a	n/a
25170	PROB	n/a	LTP096	ltpFR	13	n/a	n/a	n/a	n/a	n/a	n/a	n/a	16	6	3	7	n/a	n/a	n/a	n/a	n/a
26759	PROB	n/a	LTP096	ltpFR	13	n/a	n/a	n/a	n/a	n/a	n/a	n/a	17	9	7	1	n/a	n/a	n/a	n/a	n/a
28166	PROB	n/a	LTP096	ltpFR	13	n/a	n/a	n/a	n/a	n/a	n/a	n/a	15	1	5	9	n/a	n/a	n/a	n/a	n/a
29422	PROB	n/a	LTP096	ltpFR	13	n/a	n/a	n/a	n/a	n/a	n/a	n/a	20	5	9	6	n/a	n/a	n/a	n/a	n/a
31969	PROB	n/a	LTP096	ltpFR	13	n/a	n/a	n/a	n/a	n/a	n/a	n/a	11	1	3	7	n/a	n/a	n/a	n/a	n/a
33809	PROB	n/a	LTP096	ltpFR	13	n/a	n/a	n/a	n/a	n/a	n/a	n/a	17	5	6	6	n/a	n/a	n/a	n/a	n/a
36514	PROB	n/a	LTP096	ltpFR	13	n/a	n/a	n/a	n/a	n/a	n/a	n/a	18	9	8	1	n/a	n/a	n/a	n/a	n/a
37996	PROB	n/a	LTP096	ltpFR	13	n/a	n/a	n/a	n/a	n/a	n/a	n/a	8	4	3	2	n/a	n/a	n/a	n/a	n/a
40294	PROB	n/a	LTP096	ltpFR	13	n/a	n/a	n/a	n/a	n/a	n/a	n/a	11	1	3	7	n/a	n/a	n/a	n/a	n/a
41896	STOP	n/a	LTP096	ltpFR	13	n/a	n/a	n/a	n/a	n/a	n/a	n/a	n/a	n/a	n/a	n/a	n/a	n/a	n/a	n/a	n/a
52595	WORD	wordpools/wasnorm_wordpool.txt	LTP096	ltpFR	13	1	0	REEF	1177	0	n/a	n/a	n/a	0	0	0	0.422607421875	0.5869140625	0	lower	zerothre.ttf
55617	SLOW_MSG	n/a	LTP096	ltpFR	13	1	n/a	n/a	n/a	n/a	n/a	n/a	n/a	0	0	0	n/a	n/a	n/a	n/a	n/a
58207	WORD	wordpools/wasnorm_wordpool.txt	LTP096	ltpFR	13	1	0	HOSE	720	n/a	n/a	0	n/a	0	0	0	0.422607421875	0.5869140625	0	lower	zerothre.ttf
62127	WORD	wordpools/wasnorm_wordpool.txt	LTP096	ltpFR	13	1	0	CRIB	407	n/a	n/a	0	n/a	0	0	0	0.422607421875	0.5869140625	0	lower	zerothre.ttf
66313	WORD	wordpools/wasnorm_wordpool.txt	LTP096	ltpFR	13	1	0	SHRIMP	1297	n/a	n/a	0	n/a	0	0	0	0.422607421875	0.5869140625	0	lower	zerothre.ttf
70350	WORD	wordpools/wasnorm_wordpool.txt	LTP096	ltpFR	13	1	0	PIKE	1067	n/a	n/a	0	n/a	0	0	0	0.422607421875	0.5869140625	0	lower	zerothre.ttf
74180	WORD	wordpools/wasnorm_wordpool.txt	LTP096	ltpFR	13	1	0	TREAD	1499	n/a	n/a	0	n/a	0	0	0	0.422607421875	0.5869140625	0	lower	zerothre.ttf
78283	WORD	wordpools/wasnorm_wordpool.txt	LTP096	ltpFR	13	1	0	SNORKEL	1336	n/a	n/a	0	n/a	0	0	0	0.422607421875	0.5869140625	0	lower	zerothre.ttf
82162	WORD	wordpools/wasnorm_wordpool.txt	LTP096	ltpFR	13	1	0	BILL	126	n/a	n/a	0	n/a	0	0	0	0.422607421875	0.5869140625	0	lower	zerothre.ttf
86331	WORD	wordpools/wasnorm_wordpool.txt	LTP096	ltpFR	13	1	0	FENCE	560	n/a	n/a	1	n/a	0	0	0	0.422607421875	0.5869140625	0	lower	zerothre.ttf
90194	WORD	wordpools/wasnorm_wordpool.txt	LTP096	ltpFR	13	1	0	MERMAID	887	n/a	n/a	0	n/a	0	0	0	0.422607421875	0.5869140625	0	lower	zerothre.ttf
94223	WORD	wordpools/wasnorm_wordpool.txt	LTP096	ltpFR	13	1	0	SIGN	1305	n/a	n/a	0	n/a	0	0	0	0.422607421875	0.5869140625	0	lower	zerothre.ttf
98127	WORD	wordpools/wasnorm_wordpool.txt	LTP096	ltpFR	13	1	0	DEODORANT	448	n/a	n/a	0	n/a	0	0	0	0.422607421875	0.5869140625	0	lower	zerothre.ttf
102156	WORD	wordpools/wasnorm_wordpool.txt	LTP096	ltpFR	13	1	0	HAYSTACK	694	n/a	n/a	0	n/a	0	0	0	0.422607421875	0.5869140625	0	lower	zerothre.ttf
106176	WORD	wordpools/wasnorm_wordpool.txt	LTP096	ltpFR	13	1	0	SEAFOOD	1260	n/a	n/a	0	n/a	0	0	0	0.422607421875	0.5869140625	0	lower	zerothre.ttf
110113	WORD	wordpools/wasnorm_wordpool.txt	LTP096	ltpFR	13	1	0	HINGE	709	n/a	n/a	0	n/a	0	0	0	0.422607421875	0.5869140625	0	lower	zerothre.ttf
114291	WORD	wordpools/wasnorm_wordpool.txt	LTP096	ltpFR	13	1	0	ENGINEER	536	n/a	n/a	0	n/a	0	0	0	0.422607421875	0.5869140625	0	lower	zerothre.ttf
117296	START	n/a	LTP096	ltpFR	13	n/a	n/a	n/a	n/a	n/a	n/a	n/a	n/a	n/a	n/a	n/a	n/a	n/a	n/a	n/a	n/a
118411	PROB	n/a	LTP096	ltpFR	13	n/a	n/a	n/a	n/a	n/a	n/a	n/a	14	5	5	4	n/a	n/a	n/a	n/a	n/a
120924	PROB	n/a	LTP096	ltpFR	13	n/a	n/a	n/a	n/a	n/a	n/a	n/a	20	7	7	6	n/a	n/a	n/a	n/a	n/a
122448	PROB	n/a	LTP096	ltpFR	13	n/a	n/a	n/a	n/a	n/a	n/a	n/a	18	7	7	4	n/a	n/a	n/a	n/a	n/a
124672	STOP	n/a	LTP096	ltpFR	13	n/a	n/a	n/a	n/a	n/a	n/a	n/a	n/a	n/a	n/a	n/a	n/a	n/a	n/a	n/a	n/a
127052	REC_START	n/a	LTP096	ltpFR	13	1	n/a	n/a	n/a	n/a	n/a	n/a	n/a	0	0	0	n/a	n/a	n/a	n/a	n/a
129117	REC_WORD	wordpools/wasnorm_wordpool.txt	LTP096	ltpFR	13	1	n/a	CORAL	378	n/a	n/a	n/a	n/a	0	0	0	n/a	n/a	n/a	n/a	n/a
131128	REC_WORD	wordpools/wasnorm_wordpool.txt	LTP096	ltpFR	13	1	0	REEF	1177	n/a	n/a	n/a	n/a	0	0	0	n/a	n/a	n/a	n/a	n/a
132155	REC_WORD	wordpools/wasnorm_wordpool.txt	LTP096	ltpFR	13	1	0	HOSE	720	n/a	n/a	0	n/a	0	0	0	n/a	n/a	n/a	n/a	n/a
133901	REC_WORD	wordpools/wasnorm_wordpool.txt	LTP096	ltpFR	13	1	0	SHRIMP	1297	n/a	n/a	0	n/a	0	0	0	n/a	n/a	n/a	n/a	n/a
138221	REC_WORD	wordpools/wasnorm_wordpool.txt	LTP096	ltpFR	13	1	0	PIKE	1067	n/a	n/a	0	n/a	0	0	0	n/a	n/a	n/a	n/a	n/a
140651	REC_WORD	wordpools/wasnorm_wordpool.txt	LTP096	ltpFR	13	1	0	ENGINEER	536	n/a	n/a	0	n/a	0	0	0	n/a	n/a	n/a	n/a	n/a
141389	REC_WORD	wordpools/wasnorm_wordpool.txt	LTP096	ltpFR	13	1	0	MERMAID	887	n/a	n/a	0	n/a	0	0	0	n/a	n/a	n/a	n/a	n/a
142641	REC_WORD	wordpools/wasnorm_wordpool.txt	LTP096	ltpFR	13	1	0	BILL	126	n/a	n/a	0	n/a	0	0	0	n/a	n/a	n/a	n/a	n/a
145400	REC_WORD	wordpools/wasnorm_wordpool.txt	LTP096	ltpFR	13	1	0	SIGN	1305	n/a	n/a	0	n/a	0	0	0	n/a	n/a	n/a	n/a	n/a
146667	REC_WORD	wordpools/wasnorm_wordpool.txt	LTP096	ltpFR	13	1	0	DEODORANT	448	n/a	n/a	0	n/a	0	0	0	n/a	n/a	n/a	n/a	n/a
149815	REC_WORD	wordpools/wasnorm_wordpool.txt	LTP096	ltpFR	13	1	0	SHRIMP	1297	n/a	n/a	0	n/a	0	0	0	n/a	n/a	n/a	n/a	n/a
220909	START	n/a	LTP096	ltpFR	13	n/a	n/a	n/a	n/a	n/a	n/a	n/a	n/a	n/a	n/a	n/a	n/a	n/a	n/a	n/a	n/a
222415	PROB	n/a	LTP096	ltpFR	13	n/a	n/a	n/a	n/a	n/a	n/a	n/a	17	1	7	9	n/a	n/a	n/a	n/a	n/a
223880	PROB	n/a	LTP096	ltpFR	13	n/a	n/a	n/a	n/a	n/a	n/a	n/a	13	3	3	7	n/a	n/a	n/a	n/a	n/a
225570	PROB	n/a	LTP096	ltpFR	13	n/a	n/a	n/a	n/a	n/a	n/a	n/a	19	9	5	5	n/a	n/a	n/a	n/a	n/a
228909	STOP	n/a	LTP096	ltpFR	13	n/a	n/a	n/a	n/a	n/a	n/a	n/a	n/a	n/a	n/a	n/a	n/a	n/a	n/a	n/a	n/a
229865	WORD	wordpools/wasnorm_wordpool.txt	LTP096	ltpFR	13	2	1	WALRUS	1585	n/a	n/a	1	n/a	0	0	0	0.57763671875	0.412841796875	1	upper	amplitud.ttf
232870	START	n/a	LTP096	ltpFR	13	n/a	n/a	n/a	n/a	n/a	n/a	n/a	n/a	n/a	n/a	n/a	n/a	n/a	n/a	n/a	n/a
233877	PROB	n/a	LTP096	ltpFR	13	n/a	n/a	n/a	n/a	n/a	n/a	n/a	17	3	9	5	n/a	n/a	n/a	n/a	n/a
236142	PROB	n/a	LTP096	ltpFR	13	n/a	n/a	n/a	n/a	n/a	n/a	n/a	14	2	8	4	n/a	n/a	n/a	n/a	n/a
240870	STOP	n/a	LTP096	ltpFR	13	n/a	n/a	n/a	n/a	n/a	n/a	n/a	n/a	n/a	n/a	n/a	n/a	n/a	n/a	n/a	n/a
242051	WORD	wordpools/wasnorm_wordpool.txt	LTP096	ltpFR	13	2	1	TURNIP	1521	n/a	n/a	0	n/a	0	0	0	0.57763671875	0.412841796875	1	upper	amplitud.ttf
245057	START	n/a	LTP096	ltpFR	13	n/a	n/a	n/a	n/a	n/a	n/a	n/a	n/a	n/a	n/a	n/a	n/a	n/a	n/a	n/a	n/a
245913	PROB	n/a	LTP096	ltpFR	13	n/a	n/a	n/a	n/a	n/a	n/a	n/a	15	1	8	6	n/a	n/a	n/a	n/a	n/a
247619	PROB	n/a	LTP096	ltpFR	13	n/a	n/a	n/a	n/a	n/a	n/a	n/a	14	8	4	2	n/a	n/a	n/a	n/a	n/a
249500	PROB	n/a	LTP096	ltpFR	13	n/a	n/a	n/a	n/a	n/a	n/a	n/a	13	1	4	8	n/a	n/a	n/a	n/a	n/a
251824	STOP	n/a	LTP096	ltpFR	13	n/a	n/a	n/a	n/a	n/a	n/a	n/a	n/a	n/a	n/a	n/a	n/a	n/a	n/a	n/a	n/a
254262	WORD	wordpools/wasnorm_wordpool.txt	LTP096	ltpFR	13	2	1	WORM	1623	n/a	n/a	0	n/a	0	0	0	0.57763671875	0.412841796875	1	upper	amplitud.ttf
257268	START	n/a	LTP096	ltpFR	13	n/a	n/a	n/a	n/a	n/a	n/a	n/a	n/a	n/a	n/a	n/a	n/a	n/a	n/a	n/a	n/a
258456	PROB	n/a	LTP096	ltpFR	13	n/a	n/a	n/a	n/a	n/a	n/a	n/a	12	3	2	7	n/a	n/a	n/a	n/a	n/a
259846	PROB	n/a	LTP096	ltpFR	13	n/a	n/a	n/a	n/a	n/a	n/a	n/a	7	3	1	3	n/a	n/a	n/a	n/a	n/a
261727	PROB	n/a	LTP096	ltpFR	13	n/a	n/a	n/a	n/a	n/a	n/a	n/a	15	5	8	2	n/a	n/a	n/a	n/a	n/a
264520	STOP	n/a	LTP096	ltpFR	13	n/a	n/a	n/a	n/a	n/a	n/a	n/a	n/a	n/a	n/a	n/a	n/a	n/a	n/a	n/a	n/a
266405	WORD	wordpools/wasnorm_wordpool.txt	LTP096	ltpFR	13	2	0	TRASH	1497	n/a	n/a	2	n/a	0	0	0	0.422607421875	0.5869140625	0	lower	zerothre.ttf
268578	KEY_MSG	n/a	LTP096	ltpFR	13	2	n/a	n/a	n/a	n/a	n/a	n/a	n/a	0	0	0	n/a	n/a	n/a	n/a	n/a
270094	START	n/a	LTP096	ltpFR	13	n/a	n/a	n/a	n/a	n/a	n/a	n/a	n/a	n/a	n/a	n/a	n/a	n/a	n/a	n/a	n/a
271242	PROB	n/a	LTP096	ltpFR	13	n/a	n/a	n/a	n/a	n/a	n/a	n/a	20	7	6	7	n/a	n/a	n/a	n/a	n/a
273082	PROB	n/a	LTP096	ltpFR	13	n/a	n/a	n/a	n/a	n/a	n/a	n/a	20	6	5	9	n/a	n/a	n/a	n/a	n/a
276568	STOP	n/a	LTP096	ltpFR	13	n/a	n/a	n/a	n/a	n/a	n/a	n/a	n/a	n/a	n/a	n/a	n/a	n/a	n/a	n/a	n/a
279233	WORD	wordpools/wasnorm_wordpool.txt	LTP096	ltpFR	13	2	0	LITTER	832	n/a	n/a	0	n/a	0	0	0	0.422607421875	0.5869140625	0	lower	zerothre.ttf
282238	START	n/a	LTP096	ltpFR	13	n/a	n/a	n/a	n/a	n/a	n/a	n/a	n/a	n/a	n/a	n/a	n/a	n/a	n/a	n/a	n/a
283369	PROB	n/a	LTP096	ltpFR	13	n/a	n/a	n/a	n/a	n/a	n/a	n/a	14	4	2	8	n/a	n/a	n/a	n/a	n/a
284742	PROB	n/a	LTP096	ltpFR	13	n/a	n/a	n/a	n/a	n/a	n/a	n/a	17	9	7	1	n/a	n/a	n/a	n/a	n/a
286682	PROB	n/a	LTP096	ltpFR	13	n/a	n/a	n/a	n/a	n/a	n/a	n/a	16	3	5	8	n/a	n/a	n/a	n/a	n/a
288840	STOP	n/a	LTP096	ltpFR	13	n/a	n/a	n/a	n/a	n/a	n/a	n/a	n/a	n/a	n/a	n/a	n/a	n/a	n/a	n/a	n/a
291335	WORD	wordpools/wasnorm_wordpool.txt	LTP096	ltpFR	13	2	0	CYLINDER	432	n/a	n/a	0	n/a	0	0	0	0.422607421875	0.5869140625	0	lower	zerothre.ttf
294340	START	n/a	LTP096	ltpFR	13	n/a	n/a	n/a	n/a	n/a	n/a	n/a	n/a	n/a	n/a	n/a	n/a	n/a	n/a	n/a	n/a
295522	PROB	n/a	LTP096	ltpFR	13	n/a	n/a	n/a	n/a	n/a	n/a	n/a	7	1	4	2	n/a	n/a	n/a	n/a	n/a
297453	PROB	n/a	LTP096	ltpFR	13	n/a	n/a	n/a	n/a	n/a	n/a	n/a	17	8	7	2	n/a	n/a	n/a	n/a	n/a
302340	STOP	n/a	LTP096	ltpFR	13	n/a	n/a	n/a	n/a	n/a	n/a	n/a	n/a	n/a	n/a	n/a	n/a	n/a	n/a	n/a	n/a
303197	WORD	wordpools/wasnorm_wordpool.txt	LTP096	ltpFR	13	2	0	LOOP	844	n/a	n/a	0	n/a	0	0	0	0.422607421875	0.5869140625	0	lower	zerothre.ttf
306202	START	n/a	LTP096	ltpFR	13	n/a	n/a	n/a	n/a	n/a	n/a	n/a	n/a	n/a	n/a	n/a	n/a	n/a	n/a	n/a	n/a
307226	PROB	n/a	LTP096	ltpFR	13	n/a	n/a	n/a	n/a	n/a	n/a	n/a	17	1	8	8	n/a	n/a	n/a	n/a	n/a
308814	PROB	n/a	LTP096	ltpFR	13	n/a	n/a	n/a	n/a	n/a	n/a	n/a	21	9	9	3	n/a	n/a	n/a	n/a	n/a
310979	PROB	n/a	LTP096	ltpFR	13	n/a	n/a	n/a	n/a	n/a	n/a	n/a	5	1	2	2	n/a	n/a	n/a	n/a	n/a
314201	STOP	n/a	LTP096	ltpFR	13	n/a	n/a	n/a	n/a	n/a	n/a	n/a	n/a	n/a	n/a	n/a	n/a	n/a	n/a	n/a	n/a
315117	WORD	wordpools/wasnorm_wordpool.txt	LTP096	ltpFR	13	2	1	VEHICLE	1553	n/a	n/a	0	n/a	0	0	0	0.57763671875	0.412841796875	1	upper	amplitud.ttf
318122	START	n/a	LTP096	ltpFR	13	n/a	n/a	n/a	n/a	n/a	n/a	n/a	n/a	n/a	n/a	n/a	n/a	n/a	n/a	n/a	n/a
318978	PROB	n/a	LTP096	ltpFR	13	n/a	n/a	n/a	n/a	n/a	n/a	n/a	19	4	6	9	n/a	n/a	n/a	n/a	n/a
321009	PROB	n/a	LTP096	ltpFR	13	n/a	n/a	n/a	n/a	n/a	n/a	n/a	10	3	2	5	n/a	n/a	n/a	n/a	n/a
323182	PROB	n/a	LTP096	ltpFR	13	n/a	n/a	n/a	n/a	n/a	n/a	n/a	12	3	3	6	n/a	n/a	n/a	n/a	n/a
325016	STOP	n/a	LTP096	ltpFR	13	n/a	n/a	n/a	n/a	n/a	n/a	n/a	n/a	n/a	n/a	n/a	n/a	n/a	n/a	n/a	n/a
327119	WORD	wordpools/wasnorm_wordpool.txt	LTP096	ltpFR	13	2	1	BASEBALL	93	n/a	n/a	0	n/a	0	0	0	0.57763671875	0.412841796875	1	upper	amplitud.ttf
330125	START	n/a	LTP096	ltpFR	13	n/a	n/a	n/a	n/a	n/a	n/a	n/a	n/a	n/a	n/a	n/a	n/a	n/a	n/a	n/a	n/a
331140	PROB	n/a	LTP096	ltpFR	13	n/a	n/a	n/a	n/a	n/a	n/a	n/a	15	5	8	2	n/a	n/a	n/a	n/a	n/a
335767	PROB	n/a	LTP096	ltpFR	13	n/a	n/a	n/a	n/a	n/a	n/a	n/a	13	3	6	4	n/a	n/a	n/a	n/a	n/a
337712	STOP	n/a	LTP096	ltpFR	13	n/a	n/a	n/a	n/a	n/a	n/a	n/a	n/a	n/a	n/a	n/a	n/a	n/a	n/a	n/a	n/a
339155	WORD	wordpools/wasnorm_wordpool.txt	LTP096	ltpFR	13	2	0	GLOVE	642	n/a	n/a	0	n/a	0	0	0	0.422607421875	0.5869140625	0	lower	zerothre.ttf
342161	START	n/a	LTP096	ltpFR	13	n/a	n/a	n/a	n/a	n/a	n/a	n/a	n/a	n/a	n/a	n/a	n/a	n/a	n/a	n/a	n/a
343025	PROB	n/a	LTP096	ltpFR	13	n/a	n/a	n/a	n/a	n/a	n/a	n/a	19	5	8	6	n/a	n/a	n/a	n/a	n/a
344914	PROB	n/a	LTP096	ltpFR	13	n/a	n/a	n/a	n/a	n/a	n/a	n/a	15	8	4	3	n/a	n/a	n/a	n/a	n/a
346454	PROB	n/a	LTP096	ltpFR	13	n/a	n/a	n/a	n/a	n/a	n/a	n/a	11	3	5	3	n/a	n/a	n/a	n/a	n/a
348327	PROB	n/a	LTP096	ltpFR	13	n/a	n/a	n/a	n/a	n/a	n/a	n/a	20	9	9	2	n/a	n/a	n/a	n/a	n/a
349960	STOP	n/a	LTP096	ltpFR	13	n/a	n/a	n/a	n/a	n/a	n/a	n/a	n/a	n/a	n/a	n/a	n/a	n/a	n/a	n/a	n/a
351291	WORD	wordpools/wasnorm_wordpool.txt	LTP096	ltpFR	13	2	0	PLUMBER	1091	n/a	n/a	0	n/a	0	0	0	0.422607421875	0.5869140625	0	lower	zerothre.ttf
354296	START	n/a	LTP096	ltpFR	13	n/a	n/a	n/a	n/a	n/a	n/a	n/a	n/a	n/a	n/a	n/a	n/a	n/a	n/a	n/a	n/a
355402	PROB	n/a	LTP096	ltpFR	13	n/a	n/a	n/a	n/a	n/a	n/a	n/a	15	1	8	6	n/a	n/a	n/a	n/a	n/a
357325	PROB	n/a	LTP096	ltpFR	13	n/a	n/a	n/a	n/a	n/a	n/a	n/a	20	9	5	6	n/a	n/a	n/a	n/a	n/a
362296	STOP	n/a	LTP096	ltpFR	13	n/a	n/a	n/a	n/a	n/a	n/a	n/a	n/a	n/a	n/a	n/a	n/a	n/a	n/a	n/a	n/a
363252	WORD	wordpools/wasnorm_wordpool.txt	LTP096	ltpFR	13	2	0	SERPENT	1270	n/a	n/a	0	n/a	0	0	0	0.422607421875	0.5869140625	0	lower	zerothre.ttf
366258	START	n/a	LTP096	ltpFR	13	n/a	n/a	n/a	n/a	n/a	n/a	n/a	n/a	n/a	n/a	n/a	n/a	n/a	n/a	n/a	n/a
367256	PROB	n/a	LTP096	ltpFR	13	n/a	n/a	n/a	n/a	n/a	n/a	n/a	22	9	9	4	n/a	n/a	n/a	n/a	n/a
369727	PROB	n/a	LTP096	ltpFR	13	n/a	n/a	n/a	n/a	n/a	n/a	n/a	14	2	9	3	n/a	n/a	n/a	n/a	n/a
374257	STOP	n/a	LTP096	ltpFR	13	n/a	n/a	n/a	n/a	n/a	n/a	n/a	n/a	n/a	n/a	n/a	n/a	n/a	n/a	n/a	n/a
375130	WORD	wordpools/wasnorm_wordpool.txt	LTP096	ltpFR	13	2	0	CHIPMUNK	304	n/a	n/a	1	n/a	0	0	0	0.422607421875	0.5869140625	0	lower	zerothre.ttf
378135	START	n/a	LTP096	ltpFR	13	n/a	n/a	n/a	n/a	n/a	n/a	n/a	n/a	n/a	n/a	n/a	n/a	n/a	n/a	n/a	n/a
379234	PROB	n/a	LTP096	ltpFR	13	n/a	n/a	n/a	n/a	n/a	n/a	n/a	10	4	1	5	n/a	n/a	n/a	n/a	n/a
381530	PROB	n/a	LTP096	ltpFR	13	n/a	n/a	n/a	n/a	n/a	n/a	n/a	17	7	7	3	n/a	n/a	n/a	n/a	n/a
383179	PROB	n/a	LTP096	ltpFR	13	n/a	n/a	n/a	n/a	n/a	n/a	n/a	13	3	6	4	n/a	n/a	n/a	n/a	n/a
385936	STOP	n/a	LTP096	ltpFR	13	n/a	n/a	n/a	n/a	n/a	n/a	n/a	n/a	n/a	n/a	n/a	n/a	n/a	n/a	n/a	n/a
387315	WORD	wordpools/wasnorm_wordpool.txt	LTP096	ltpFR	13	2	1	BATHROOM	99	n/a	n/a	0	n/a	0	0	0	0.57763671875	0.412841796875	1	upper	amplitud.ttf
390320	START	n/a	LTP096	ltpFR	13	n/a	n/a	n/a	n/a	n/a	n/a	n/a	n/a	n/a	n/a	n/a	n/a	n/a	n/a	n/a	n/a
391460	PROB	n/a	LTP096	ltpFR	13	n/a	n/a	n/a	n/a	n/a	n/a	n/a	13	4	3	6	n/a	n/a	n/a	n/a	n/a
393076	PROB	n/a	LTP096	ltpFR	13	n/a	n/a	n/a	n/a	n/a	n/a	n/a	13	4	3	6	n/a	n/a	n/a	n/a	n/a
394973	PROB	n/a	LTP096	ltpFR	13	n/a	n/a	n/a	n/a	n/a	n/a	n/a	16	3	5	8	n/a	n/a	n/a	n/a	n/a
397000	STOP	n/a	LTP096	ltpFR	13	n/a	n/a	n/a	n/a	n/a	n/a	n/a	n/a	n/a	n/a	n/a	n/a	n/a	n/a	n/a	n/a
399409	WORD	wordpools/wasnorm_wordpool.txt	LTP096	ltpFR	13	2	1	TWISTER	1530	n/a	n/a	0	n/a	0	0	0	0.57763671875	0.412841796875	1	upper	amplitud.ttf
402414	START	n/a	LTP096	ltpFR	13	n/a	n/a	n/a	n/a	n/a	n/a	n/a	n/a	n/a	n/a	n/a	n/a	n/a	n/a	n/a	n/a
403405	PROB	n/a	LTP096	ltpFR	13	n/a	n/a	n/a	n/a	n/a	n/a	n/a	19	8	7	4	n/a	n/a	n/a	n/a	n/a
410414	STOP	n/a	LTP096	ltpFR	13	n/a	n/a	n/a	n/a	n/a	n/a	n/a	n/a	n/a	n/a	n/a	n/a	n/a	n/a	n/a	n/a
411362	WORD	wordpools/wasnorm_wordpool.txt	LTP096	ltpFR	13	2	1	ANTENNA	28	n/a	n/a	1	n/a	0	0	0	0.57763671875	0.412841796875	1	upper	amplitud.ttf
414367	START	n/a	LTP096	ltpFR	13	n/a	n/a	n/a	n/a	n/a	n/a	n/a	n/a	n/a	n/a	n/a	n/a	n/a	n/a	n/a	n/a
415424	PROB	n/a	LTP096	ltpFR	13	n/a	n/a	n/a	n/a	n/a	n/a	n/a	14	1	6	7	n/a	n/a	n/a	n/a	n/a
416897	PROB	n/a	LTP096	ltpFR	13	n/a	n/a	n/a	n/a	n/a	n/a	n/a	16	1	7	8	n/a	n/a	n/a	n/a	n/a
418887	PROB	n/a	LTP096	ltpFR	13	n/a	n/a	n/a	n/a	n/a	n/a	n/a	10	2	2	6	n/a	n/a	n/a	n/a	n/a
422367	STOP	n/a	LTP096	ltpFR	13	n/a	n/a	n/a	n/a	n/a	n/a	n/a	n/a	n/a	n/a	n/a	n/a	n/a	n/a	n/a	n/a
424265	REC_START	n/a	LTP096	ltpFR	13	2	n/a	n/a	n/a	n/a	n/a	n/a	n/a	0	0	0	n/a	n/a	n/a	n/a	n/a
425309	REC_WORD	wordpools/wasnorm_wordpool.txt	LTP096	ltpFR	13	2	1	ANTENNA	28	n/a	n/a	1	n/a	0	0	0	n/a	n/a	n/a	n/a	n/a
426943	REC_WORD	wordpools/wasnorm_wordpool.txt	LTP096	ltpFR	13	2	0	SERPENT	1270	n/a	n/a	0	n/a	0	0	0	n/a	n/a	n/a	n/a	n/a
516989	WORD	wordpools/wasnorm_wordpool.txt	LTP096	ltpFR	13	3	0	ORANGE	980	n/a	n/a	0	n/a	0	0	0	0.422607421875	0.5869140625	0	lower	zerothre.ttf
520985	WORD	wordpools/wasnorm_wordpool.txt	LTP096	ltpFR	13	3	0	BANANA	77	n/a	n/a	0	n/a	0	0	0	0.422607421875	0.5869140625	0	lower	zerothre.ttf
525106	WORD	wordpools/wasnorm_wordpool.txt	LTP096	ltpFR	13	3	1	LIME	823	n/a	n/a	1	n/a	0	0	0	0.57763671875	0.412841796875	1	upper	amplitud.ttf
529093	WORD	wordpools/wasnorm_wordpool.txt	LTP096	ltpFR	13	3	1	GANGSTER	620	n/a	n/a	1	n/a	0	0	0	0.57763671875	0.412841796875	1	upper	amplitud.ttf
533213	WORD	wordpools/wasnorm_wordpool.txt	LTP096	ltpFR	13	3	1	SCARF	1246	n/a	n/a	0	n/a	0	0	0	0.57763671875	0.412841796875	1	upper	amplitud.ttf
537159	WORD	wordpools/wasnorm_wordpool.txt	LTP096	ltpFR	13	3	1	LABEL	790	n/a	n/a	0	n/a	0	0	0	0.57763671875	0.412841796875	1	upper	amplitud.ttf
541129	WORD	wordpools/wasnorm_wordpool.txt	LTP096	ltpFR	13	3	0	LIST	830	n/a	n/a	0	n/a	0	0	0	0.422607421875	0.5869140625	0	lower	zerothre.ttf
545208	WORD	wordpools/wasnorm_wordpool.txt	LTP096	ltpFR	13	3	0	THIMBLE	1458	n/a	n/a	0	n/a	0	0	0	0.422607421875	0.5869140625	0	lower	zerothre.ttf
549360	WORD	wordpools/wasnorm_wordpool.txt	LTP096	ltpFR	13	3	1	LAUNDRY	803	n/a	n/a	0	n/a	0	0	0	0.57763671875	0.412841796875	1	upper	amplitud.ttf
553355	WORD	wordpools/wasnorm_wordpool.txt	LTP096	ltpFR	13	3	1	DIRECTOR	471	n/a	n/a	1	n/a	0	0	0	0.57763671875	0.412841796875	1	upper	amplitud.ttf
557235	WORD	wordpools/wasnorm_wordpool.txt	LTP096	ltpFR	13	3	1	ENEMY	534	n/a	n/a	1	n/a	0	0	0	0.57763671875	0.412841796875	1	upper	amplitud.ttf
561404	WORD	wordpools/wasnorm_wordpool.txt	LTP096	ltpFR	13	3	1	CLOSET	326	n/a	n/a	0	n/a	0	0	0	0.57763671875	0.412841796875	1	upper	amplitud.ttf
565350	WORD	wordpools/wasnorm_wordpool.txt	LTP096	ltpFR	13	3	0	STONE	1385	n/a	n/a	0	n/a	0	0	0	0.422607421875	0.5869140625	0	lower	zerothre.ttf
569271	WORD	wordpools/wasnorm_wordpool.txt	LTP096	ltpFR	13	3	0	GIRAFFE	636	n/a	n/a	1	n/a	0	0	0	0.422607421875	0.5869140625	0	lower	zerothre.ttf
573416	WORD	wordpools/wasnorm_wordpool.txt	LTP096	ltpFR	13	3	0	SEAL	1262	n/a	n/a	0	n/a	0	0	0	0.422607421875	0.5869140625	0	lower	zerothre.ttf
577461	WORD	wordpools/wasnorm_wordpool.txt	LTP096	ltpFR	13	3	0	ROBE	1198	n/a	n/a	n/a	n/a	0	0	0	0.422607421875	0.5869140625	0	lower	zerothre.ttf
580482	SLOW_MSG	n/a	LTP096	ltpFR	13	3	n/a	n/a	n/a	n/a	n/a	n/a	n/a	0	0	0	n/a	n/a	n/a	n/a	n/a
581997	START	n/a	LTP096	ltpFR	13	n/a	n/a	n/a	n/a	n/a	n/a	n/a	n/a	n/a	n/a	n/a	n/a	n/a	n/a	n/a	n/a
583155	PROB	n/a	LTP096	ltpFR	13	n/a	n/a	n/a	n/a	n/a	n/a	n/a	9	5	2	2	n/a	n/a	n/a	n/a	n/a
584844	PROB	n/a	LTP096	ltpFR	13	n/a	n/a	n/a	n/a	n/a	n/a	n/a	6	2	1	3	n/a	n/a	n/a	n/a	n/a
587324	PROB	n/a	LTP096	ltpFR	13	n/a	n/a	n/a	n/a	n/a	n/a	n/a	11	6	2	3	n/a	n/a	n/a	n/a	n/a
589249	STOP	n/a	LTP096	ltpFR	13	n/a	n/a	n/a	n/a	n/a	n/a	n/a	n/a	n/a	n/a	n/a	n/a	n/a	n/a	n/a	n/a
591803	REC_START	n/a	LTP096	ltpFR	13	3	n/a	n/a	n/a	n/a	n/a	n/a	n/a	0	0	0	n/a	n/a	n/a	n/a	n/a
593105	REC_WORD	wordpools/wasnorm_wordpool.txt	LTP096	ltpFR	13	3	0	GIRAFFE	636	n/a	n/a	1	n/a	0	0	0	n/a	n/a	n/a	n/a	n/a
593953	REC_WORD	wordpools/wasnorm_wordpool.txt	LTP096	ltpFR	13	3	0	SEAL	1262	n/a	n/a	0	n/a	0	0	0	n/a	n/a	n/a	n/a	n/a
594776	REC_WORD	wordpools/wasnorm_wordpool.txt	LTP096	ltpFR	13	3	0	STONE	1385	n/a	n/a	0	n/a	0	0	0	n/a	n/a	n/a	n/a	n/a
596088	REC_WORD	wordpools/wasnorm_wordpool.txt	LTP096	ltpFR	13	3	0	ROBE	1198	n/a	n/a	n/a	n/a	0	0	0	n/a	n/a	n/a	n/a	n/a
598597	REC_WORD	wordpools/wasnorm_wordpool.txt	LTP096	ltpFR	13	3	0	THIMBLE	1458	n/a	n/a	0	n/a	0	0	0	n/a	n/a	n/a	n/a	n/a
599675	REC_WORD	wordpools/wasnorm_wordpool.txt	LTP096	ltpFR	13	3	0	LIST	830	n/a	n/a	0	n/a	0	0	0	n/a	n/a	n/a	n/a	n/a
609692	REC_WORD	wordpools/wasnorm_wordpool.txt	LTP096	ltpFR	13	3	1	GANGSTER	620	n/a	n/a	1	n/a	0	0	0	n/a	n/a	n/a	n/a	n/a
619629	REC_WORD	wordpools/wasnorm_wordpool.txt	LTP096	ltpFR	13	3	1	LIME	823	n/a	n/a	1	n/a	0	0	0	n/a	n/a	n/a	n/a	n/a
675040	WORD	wordpools/wasnorm_wordpool.txt	LTP096	ltpFR	13	4	1	KLEENEX	782	n/a	n/a	0	n/a	0	0	0	0.57763671875	0.412841796875	1	upper	amplitud.ttf
679135	WORD	wordpools/wasnorm_wordpool.txt	LTP096	ltpFR	13	4	1	JUNGLE	764	n/a	n/a	0	n/a	0	0	0	0.57763671875	0.412841796875	1	upper	amplitud.ttf
683072	WORD	wordpools/wasnorm_wordpool.txt	LTP096	ltpFR	13	4	1	MONKEY	911	n/a	n/a	0	n/a	0	0	0	0.57763671875	0.412841796875	1	upper	amplitud.ttf
687268	WORD	wordpools/wasnorm_wordpool.txt	LTP096	ltpFR	13	4	1	LAPEL	800	n/a	n/a	0	n/a	0	0	0	0.57763671875	0.412841796875	1	upper	amplitud.ttf
691403	WORD	wordpools/wasnorm_wordpool.txt	LTP096	ltpFR	13	4	0	MOUTH	926	n/a	n/a	3	n/a	0	0	0	0.422607421875	0.5869140625	0	lower	zerothre.ttf
694309	KEY_MSG	n/a	LTP096	ltpFR	13	4	n/a	n/a	n/a	n/a	n/a	n/a	n/a	0	0	0	n/a	n/a	n/a	n/a	n/a
697022	WORD	wordpools/wasnorm_wordpool.txt	LTP096	ltpFR	13	4	0	GREASE	660	n/a	n/a	0	n/a	0	0	0	0.422607421875	0.5869140625	0	lower	zerothre.ttf
701201	WORD	wordpools/wasnorm_wordpool.txt	LTP096	ltpFR	13	4	0	TIGER	1467	n/a	n/a	3	n/a	0	0	0	0.422607421875	0.5869140625	0	lower	zerothre.ttf
703822	KEY_MSG	n/a	LTP096	ltpFR	13	4	n/a	n/a	n/a	n/a	n/a	n/a	n/a	0	0	0	n/a	n/a	n/a	n/a	n/a
706311	WORD	wordpools/wasnorm_wordpool.txt	LTP096	ltpFR	13	4	0	OLIVE	975	n/a	n/a	1	n/a	0	0	0	0.422607421875	0.5869140625	0	lower	zerothre.ttf
710149	WORD	wordpools/wasnorm_wordpool.txt	LTP096	ltpFR	13	4	0	CANVAS	234	n/a	n/a	0	n/a	0	0	0	0.422607421875	0.5869140625	0	lower	zerothre.ttf
714270	WORD	wordpools/wasnorm_wordpool.txt	LTP096	ltpFR	13	4	1	RACCOON	1153	n/a	n/a	1	n/a	0	0	0	0.57763671875	0.412841796875	1	upper	amplitud.ttf
718364	WORD	wordpools/wasnorm_wordpool.txt	LTP096	ltpFR	13	4	1	VET	1560	n/a	n/a	1	n/a	0	0	0	0.57763671875	0.412841796875	1	upper	amplitud.ttf
722401	WORD	wordpools/wasnorm_wordpool.txt	LTP096	ltpFR	13	4	1	TOTE	1487	n/a	n/a	0	n/a	0	0	0	0.57763671875	0.412841796875	1	upper	amplitud.ttf
726529	WORD	wordpools/wasnorm_wordpool.txt	LTP096	ltpFR	13	4	1	RADISH	1158	n/a	n/a	1	n/a	0	0	0	0.57763671875	0.412841796875	1	upper	amplitud.ttf
730516	WORD	wordpools/wasnorm_wordpool.txt	LTP096	ltpFR	13	4	0	HANDKERCHIEF	686	n/a	n/a	0	n/a	0	0	0	0.422607421875	0.5869140625	0	lower	zerothre.ttf
734703	WORD	wordpools/wasnorm_wordpool.txt	LTP096	ltpFR	13	4	0	DRAGON	492	n/a	n/a	1	n/a	0	0	0	0.422607421875	0.5869140625	0	lower	zerothre.ttf
738715	WORD	wordpools/wasnorm_wordpool.txt	LTP096	ltpFR	13	4	0	CANNON	232	n/a	n/a	1	n/a	0	0	0	0.422607421875	0.5869140625	0	lower	zerothre.ttf
744559	REC_START	n/a	LTP096	ltpFR	13	4	n/a	n/a	n/a	n/a	n/a	n/a	n/a	0	0	0	n/a	n/a	n/a	n/a	n/a
746410	REC_WORD	wordpools/wasnorm_wordpool.txt	LTP096	ltpFR	13	4	0	CANNON	232	n/a	n/a	1	n/a	0	0	0	n/a	n/a	n/a	n/a	n/a
747916	REC_WORD	wordpools/wasnorm_wordpool.txt	LTP096	ltpFR	13	4	0	DRAGON	492	n/a	n/a	1	n/a	0	0	0	n/a	n/a	n/a	n/a	n/a
749927	REC_WORD	wordpools/wasnorm_wordpool.txt	LTP096	ltpFR	13	4	1	RACCOON	1153	n/a	n/a	1	n/a	0	0	0	n/a	n/a	n/a	n/a	n/a
750508	REC_WORD	wordpools/wasnorm_wordpool.txt	LTP096	ltpFR	13	4	1	RADISH	1158	n/a	n/a	1	n/a	0	0	0	n/a	n/a	n/a	n/a	n/a
752306	REC_WORD	wordpools/wasnorm_wordpool.txt	LTP096	ltpFR	13	4	1	LAPEL	800	n/a	n/a	0	n/a	0	0	0	n/a	n/a	n/a	n/a	n/a
752852	REC_WORD	wordpools/wasnorm_wordpool.txt	LTP096	ltpFR	13	4	0	HANDKERCHIEF	686	n/a	n/a	0	n/a	0	0	0	n/a	n/a	n/a	n/a	n/a
759041	REC_WORD	wordpools/wasnorm_wordpool.txt	LTP096	ltpFR	13	4	1	KLEENEX	782	n/a	n/a	0	n/a	0	0	0	n/a	n/a	n/a	n/a	n/a
760587	REC_WORD	wordpools/wasnorm_wordpool.txt	LTP096	ltpFR	13	4	1	JUNGLE	764	n/a	n/a	0	n/a	0	0	0	n/a	n/a	n/a	n/a	n/a
761874	REC_WORD	wordpools/wasnorm_wordpool.txt	LTP096	ltpFR	13	4	1	MONKEY	911	n/a	n/a	0	n/a	0	0	0	n/a	n/a	n/a	n/a	n/a
859941	START	n/a	LTP096	ltpFR	13	n/a	n/a	n/a	n/a	n/a	n/a	n/a	n/a	n/a	n/a	n/a	n/a	n/a	n/a	n/a	n/a
861448	PROB	n/a	LTP096	ltpFR	13	n/a	n/a	n/a	n/a	n/a	n/a	n/a	11	8	1	2	n/a	n/a	n/a	n/a	n/a
863271	PROB	n/a	LTP096	ltpFR	13	n/a	n/a	n/a	n/a	n/a	n/a	n/a	15	4	7	4	n/a	n/a	n/a	n/a	n/a
865401	PROB	n/a	LTP096	ltpFR	13	n/a	n/a	n/a	n/a	n/a	n/a	n/a	14	3	8	3	n/a	n/a	n/a	n/a	n/a
867169	STOP	n/a	LTP096	ltpFR	13	n/a	n/a	n/a	n/a	n/a	n/a	n/a	n/a	n/a	n/a	n/a	n/a	n/a	n/a	n/a	n/a
869022	WORD	wordpools/wasnorm_wordpool.txt	LTP096	ltpFR	13	5	0	BUGGY	188	n/a	n/a	0	n/a	0	0	0	0.422607421875	0.5869140625	0	lower	zerothre.ttf
872027	START	n/a	LTP096	ltpFR	13	n/a	n/a	n/a	n/a	n/a	n/a	n/a	n/a	n/a	n/a	n/a	n/a	n/a	n/a	n/a	n/a
873085	PROB	n/a	LTP096	ltpFR	13	n/a	n/a	n/a	n/a	n/a	n/a	n/a	23	8	8	7	n/a	n/a	n/a	n/a	n/a
880027	STOP	n/a	LTP096	ltpFR	13	n/a	n/a	n/a	n/a	n/a	n/a	n/a	n/a	n/a	n/a	n/a	n/a	n/a	n/a	n/a	n/a
881184	WORD	wordpools/wasnorm_wordpool.txt	LTP096	ltpFR	13	5	0	TAXI	1438	n/a	n/a	1	n/a	0	0	0	0.422607421875	0.5869140625	0	lower	zerothre.ttf
884189	START	n/a	LTP096	ltpFR	13	n/a	n/a	n/a	n/a	n/a	n/a	n/a	n/a	n/a	n/a	n/a	n/a	n/a	n/a	n/a	n/a
885328	PROB	n/a	LTP096	ltpFR	13	n/a	n/a	n/a	n/a	n/a	n/a	n/a	13	7	5	1	n/a	n/a	n/a	n/a	n/a
887451	PROB	n/a	LTP096	ltpFR	13	n/a	n/a	n/a	n/a	n/a	n/a	n/a	16	4	9	3	n/a	n/a	n/a	n/a	n/a
889598	PROB	n/a	LTP096	ltpFR	13	n/a	n/a	n/a	n/a	n/a	n/a	n/a	17	6	2	9	n/a	n/a	n/a	n/a	n/a
891568	STOP	n/a	LTP096	ltpFR	13	n/a	n/a	n/a	n/a	n/a	n/a	n/a	n/a	n/a	n/a	n/a	n/a	n/a	n/a	n/a	n/a
893295	WORD	wordpools/wasnorm_wordpool.txt	LTP096	ltpFR	13	5	1	FOREHEAD	592	n/a	n/a	1	n/a	0	0	0	0.57763671875	0.412841796875	1	upper	amplitud.ttf
896300	START	n/a	LTP096	ltpFR	13	n/a	n/a	n/a	n/a	n/a	n/a	n/a	n/a	n/a	n/a	n/a	n/a	n/a	n/a	n/a	n/a
897431	PROB	n/a	LTP096	ltpFR	13	n/a	n/a	n/a	n/a	n/a	n/a	n/a	13	4	7	2	n/a	n/a	n/a	n/a	n/a
899761	PROB	n/a	LTP096	ltpFR	13	n/a	n/a	n/a	n/a	n/a	n/a	n/a	21	7	8	6	n/a	n/a	n/a	n/a	n/a
904300	STOP	n/a	LTP096	ltpFR	13	n/a	n/a	n/a	n/a	n/a	n/a	n/a	n/a	n/a	n/a	n/a	n/a	n/a	n/a	n/a	n/a
905371	WORD	wordpools/wasnorm_wordpool.txt	LTP096	ltpFR	13	5	1	STAIRS	1367	n/a	n/a	0	n/a	0	0	0	0.57763671875	0.412841796875	1	upper	amplitud.ttf
908377	START	n/a	LTP096	ltpFR	13	n/a	n/a	n/a	n/a	n/a	n/a	n/a	n/a	n/a	n/a	n/a	n/a	n/a	n/a	n/a	n/a
909442	PROB	n/a	LTP096	ltpFR	13	n/a	n/a	n/a	n/a	n/a	n/a	n/a	14	5	3	6	n/a	n/a	n/a	n/a	n/a
911514	PROB	n/a	LTP096	ltpFR	13	n/a	n/a	n/a	n/a	n/a	n/a	n/a	21	9	9	3	n/a	n/a	n/a	n/a	n/a
913130	PROB	n/a	LTP096	ltpFR	13	n/a	n/a	n/a	n/a	n/a	n/a	n/a	14	4	6	4	n/a	n/a	n/a	n/a	n/a
914536	PROB	n/a	LTP096	ltpFR	13	n/a	n/a	n/a	n/a	n/a	n/a	n/a	19	3	7	9	n/a	n/a	n/a	n/a	n/a
916320	STOP	n/a	LTP096	ltpFR	13	n/a	n/a	n/a	n/a	n/a	n/a	n/a	n/a	n/a	n/a	n/a	n/a	n/a	n/a	n/a	n/a
917449	WORD	wordpools/wasnorm_wordpool.txt	LTP096	ltpFR	13	5	1	CITIZEN	312	n/a	n/a	n/a	n/a	0	0	0	0.57763671875	0.412841796875	1	upper	amplitud.ttf
920471	SLOW_MSG	n/a	LTP096	ltpFR	13	5	n/a	n/a	n/a	n/a	n/a	n/a	n/a	0	0	0	n/a	n/a	n/a	n/a	n/a
921986	START	n/a	LTP096	ltpFR	13	n/a	n/a	n/a	n/a	n/a	n/a	n/a	n/a	n/a	n/a	n/a	n/a	n/a	n/a	n/a	n/a
923044	PROB	n/a	LTP096	ltpFR	13	n/a	n/a	n/a	n/a	n/a	n/a	n/a	17	7	8	2	n/a	n/a	n/a	n/a	n/a
924841	PROB	n/a	LTP096	ltpFR	13	n/a	n/a	n/a	n/a	n/a	n/a	n/a	15	9	2	4	n/a	n/a	n/a	n/a	n/a
927596	PROB	n/a	LTP096	ltpFR	13	n/a	n/a	n/a	n/a	n/a	n/a	n/a	15	5	8	2	n/a	n/a	n/a	n/a	n/a
929888	STOP	n/a	LTP096	ltpFR	13	n/a	n/a	n/a	n/a	n/a	n/a	n/a	n/a	n/a	n/a	n/a	n/a	n/a	n/a	n/a	n/a
930942	WORD	wordpools/wasnorm_wordpool.txt	LTP096	ltpFR	13	5	1	SHEPHERD	1283	n/a	n/a	1	n/a	0	0	0	0.57763671875	0.412841796875	1	upper	amplitud.ttf
933947	START	n/a	LTP096	ltpFR	13	n/a	n/a	n/a	n/a	n/a	n/a	n/a	n/a	n/a	n/a	n/a	n/a	n/a	n/a	n/a	n/a
934887	PROB	n/a	LTP096	ltpFR	13	n/a	n/a	n/a	n/a	n/a	n/a	n/a	24	9	9	6	n/a	n/a	n/a	n/a	n/a
937018	PROB	n/a	LTP096	ltpFR	13	n/a	n/a	n/a	n/a	n/a	n/a	n/a	5	3	1	1	n/a	n/a	n/a	n/a	n/a
938201	PROB	n/a	LTP096	ltpFR	13	n/a	n/a	n/a	n/a	n/a	n/a	n/a	16	2	9	5	n/a	n/a	n/a	n/a	n/a
940584	STOP	n/a	LTP096	ltpFR	13	n/a	n/a	n/a	n/a	n/a	n/a	n/a	n/a	n/a	n/a	n/a	n/a	n/a	n/a	n/a	n/a
943062	WORD	wordpools/wasnorm_wordpool.txt	LTP096	ltpFR	13	5	0	BONE	148	n/a	n/a	1	n/a	0	0	0	0.422607421875	0.5869140625	0	lower	zerothre.ttf
946067	START	n/a	LTP096	ltpFR	13	n/a	n/a	n/a	n/a	n/a	n/a	n/a	n/a	n/a	n/a	n/a	n/a	n/a	n/a	n/a	n/a
946998	PROB	n/a	LTP096	ltpFR	13	n/a	n/a	n/a	n/a	n/a	n/a	n/a	5	2	2	1	n/a	n/a	n/a	n/a	n/a
950037	PROB	n/a	LTP096	ltpFR	13	n/a	n/a	n/a	n/a	n/a	n/a	n/a	10	7	1	2	n/a	n/a	n/a	n/a	n/a
954067	STOP	n/a	LTP096	ltpFR	13	n/a	n/a	n/a	n/a	n/a	n/a	n/a	n/a	n/a	n/a	n/a	n/a	n/a	n/a	n/a	n/a
955073	WORD	wordpools/wasnorm_wordpool.txt	LTP096	ltpFR	13	5	0	ROOSTER	1209	n/a	n/a	1	n/a	0	0	0	0.422607421875	0.5869140625	0	lower	zerothre.ttf
958078	START	n/a	LTP096	ltpFR	13	n/a	n/a	n/a	n/a	n/a	n/a	n/a	n/a	n/a	n/a	n/a	n/a	n/a	n/a	n/a	n/a
959026	PROB	n/a	LTP096	ltpFR	13	n/a	n/a	n/a	n/a	n/a	n/a	n/a	18	5	5	8	n/a	n/a	n/a	n/a	n/a
961291	PROB	n/a	LTP096	ltpFR	13	n/a	n/a	n/a	n/a	n/a	n/a	n/a	15	8	4	3	n/a	n/a	n/a	n/a	n/a
966078	STOP	n/a	LTP096	ltpFR	13	n/a	n/a	n/a	n/a	n/a	n/a	n/a	n/a	n/a	n/a	n/a	n/a	n/a	n/a	n/a	n/a
966917	WORD	wordpools/wasnorm_wordpool.txt	LTP096	ltpFR	13	5	1	OATS	968	n/a	n/a	1	n/a	0	0	0	0.57763671875	0.412841796875	1	upper	amplitud.ttf
969922	START	n/a	LTP096	ltpFR	13	n/a	n/a	n/a	n/a	n/a	n/a	n/a	n/a	n/a	n/a	n/a	n/a	n/a	n/a	n/a	n/a
971071	PROB	n/a	LTP096	ltpFR	13	n/a	n/a	n/a	n/a	n/a	n/a	n/a	13	7	5	1	n/a	n/a	n/a	n/a	n/a
972935	PROB	n/a	LTP096	ltpFR	13	n/a	n/a	n/a	n/a	n/a	n/a	n/a	16	8	7	1	n/a	n/a	n/a	n/a	n/a
977922	STOP	n/a	LTP096	ltpFR	13	n/a	n/a	n/a	n/a	n/a	n/a	n/a	n/a	n/a	n/a	n/a	n/a	n/a	n/a	n/a	n/a
979128	WORD	wordpools/wasnorm_wordpool.txt	LTP096	ltpFR	13	5	1	SQUIRREL	1362	n/a	n/a	1	n/a	0	0	0	0.57763671875	0.412841796875	1	upper	amplitud.ttf
982134	START	n/a	LTP096	ltpFR	13	n/a	n/a	n/a	n/a	n/a	n/a	n/a	n/a	n/a	n/a	n/a	n/a	n/a	n/a	n/a	n/a
983107	PROB	n/a	LTP096	ltpFR	13	n/a	n/a	n/a	n/a	n/a	n/a	n/a	22	9	6	7	n/a	n/a	n/a	n/a	n/a
987335	PROB	n/a	LTP096	ltpFR	13	n/a	n/a	n/a	n/a	n/a	n/a	n/a	11	3	7	1	n/a	n/a	n/a	n/a	n/a
988768	STOP	n/a	LTP096	ltpFR	13	n/a	n/a	n/a	n/a	n/a	n/a	n/a	n/a	n/a	n/a	n/a	n/a	n/a	n/a	n/a	n/a
991040	WORD	wordpools/wasnorm_wordpool.txt	LTP096	ltpFR	13	5	1	HEAD	695	n/a	n/a	0	n/a	0	0	0	0.57763671875	0.412841796875	1	upper	amplitud.ttf
994045	START	n/a	LTP096	ltpFR	13	n/a	n/a	n/a	n/a	n/a	n/a	n/a	n/a	n/a	n/a	n/a	n/a	n/a	n/a	n/a	n/a
995026	PROB	n/a	LTP096	ltpFR	13	n/a	n/a	n/a	n/a	n/a	n/a	n/a	21	8	6	7	n/a	n/a	n/a	n/a	n/a
999147	PROB	n/a	LTP096	ltpFR	13	n/a	n/a	n/a	n/a	n/a	n/a	n/a	7	1	2	4	n/a	n/a	n/a	n/a	n/a
1001225	STOP	n/a	LTP096	ltpFR	13	n/a	n/a	n/a	n/a	n/a	n/a	n/a	n/a	n/a	n/a	n/a	n/a	n/a	n/a	n/a	n/a
1003076	WORD	wordpools/wasnorm_wordpool.txt	LTP096	ltpFR	13	5	1	QUAIL	1147	n/a	n/a	3	n/a	0	0	0	0.57763671875	0.412841796875	1	upper	amplitud.ttf
1005322	KEY_MSG	n/a	LTP096	ltpFR	13	5	n/a	n/a	n/a	n/a	n/a	n/a	n/a	0	0	0	n/a	n/a	n/a	n/a	n/a
1006837	START	n/a	LTP096	ltpFR	13	n/a	n/a	n/a	n/a	n/a	n/a	n/a	n/a	n/a	n/a	n/a	n/a	n/a	n/a	n/a	n/a
1007961	PROB	n/a	LTP096	ltpFR	13	n/a	n/a	n/a	n/a	n/a	n/a	n/a	9	3	2	4	n/a	n/a	n/a	n/a	n/a
1010749	PROB	n/a	LTP096	ltpFR	13	n/a	n/a	n/a	n/a	n/a	n/a	n/a	10	2	2	6	n/a	n/a	n/a	n/a	n/a
1012430	PROB	n/a	LTP096	ltpFR	13	n/a	n/a	n/a	n/a	n/a	n/a	n/a	11	1	2	8	n/a	n/a	n/a	n/a	n/a
1014065	STOP	n/a	LTP096	ltpFR	13	n/a	n/a	n/a	n/a	n/a	n/a	n/a	n/a	n/a	n/a	n/a	n/a	n/a	n/a	n/a	n/a
1015793	WORD	wordpools/wasnorm_wordpool.txt	LTP096	ltpFR	13	5	0	OATMEAL	967	n/a	n/a	2	n/a	0	0	0	0.422607421875	0.5869140625	0	lower	zerothre.ttf
1018033	KEY_MSG	n/a	LTP096	ltpFR	13	5	n/a	n/a	n/a	n/a	n/a	n/a	n/a	0	0	0	n/a	n/a	n/a	n/a	n/a
1019548	START	n/a	LTP096	ltpFR	13	n/a	n/a	n/a	n/a	n/a	n/a	n/a	n/a	n/a	n/a	n/a	n/a	n/a	n/a	n/a	n/a
1020504	PROB	n/a	LTP096	ltpFR	13	n/a	n/a	n/a	n/a	n/a	n/a	n/a	16	1	6	9	n/a	n/a	n/a	n/a	n/a
1022112	PROB	n/a	LTP096	ltpFR	13	n/a	n/a	n/a	n/a	n/a	n/a	n/a	22	6	8	6	n/a	n/a	n/a	n/a	n/a
1027548	STOP	n/a	LTP096	ltpFR	13	n/a	n/a	n/a	n/a	n/a	n/a	n/a	n/a	n/a	n/a	n/a	n/a	n/a	n/a	n/a	n/a
1028512	WORD	wordpools/wasnorm_wordpool.txt	LTP096	ltpFR	13	5	0	STETHOSCOPE	1379	n/a	n/a	0	n/a	0	0	0	0.422607421875	0.5869140625	0	lower	zerothre.ttf
1031517	START	n/a	LTP096	ltpFR	13	n/a	n/a	n/a	n/a	n/a	n/a	n/a	n/a	n/a	n/a	n/a	n/a	n/a	n/a	n/a	n/a
1032665	PROB	n/a	LTP096	ltpFR	13	n/a	n/a	n/a	n/a	n/a	n/a	n/a	10	2	5	3	n/a	n/a	n/a	n/a	n/a
1037244	PROB	n/a	LTP096	ltpFR	13	n/a	n/a	n/a	n/a	n/a	n/a	n/a	8	1	6	1	n/a	n/a	n/a	n/a	n/a
1038472	STOP	n/a	LTP096	ltpFR	13	n/a	n/a	n/a	n/a	n/a	n/a	n/a	n/a	n/a	n/a	n/a	n/a	n/a	n/a	n/a	n/a
1040698	WORD	wordpools/wasnorm_wordpool.txt	LTP096	ltpFR	13	5	0	RING	1193	n/a	n/a	0	n/a	0	0	0	0.422607421875	0.5869140625	0	lower	zerothre.ttf
1043703	START	n/a	LTP096	ltpFR	13	n/a	n/a	n/a	n/a	n/a	n/a	n/a	n/a	n/a	n/a	n/a	n/a	n/a	n/a	n/a	n/a
1044760	PROB	n/a	LTP096	ltpFR	13	n/a	n/a	n/a	n/a	n/a	n/a	n/a	15	7	3	5	n/a	n/a	n/a	n/a	n/a
1047415	PROB	n/a	LTP096	ltpFR	13	n/a	n/a	n/a	n/a	n/a	n/a	n/a	14	8	2	4	n/a	n/a	n/a	n/a	n/a
1051703	STOP	n/a	LTP096	ltpFR	13	n/a	n/a	n/a	n/a	n/a	n/a	n/a	n/a	n/a	n/a	n/a	n/a	n/a	n/a	n/a	n/a
1052642	WORD	wordpools/wasnorm_wordpool.txt	LTP096	ltpFR	13	5	0	DIAMOND	458	n/a	n/a	n/a	n/a	0	0	0	0.422607421875	0.5869140625	0	lower	zerothre.ttf
1055664	SLOW_MSG	n/a	LTP096	ltpFR	13	5	n/a	n/a	n/a	n/a	n/a	n/a	n/a	0	0	0	n/a	n/a	n/a	n/a	n/a
1057180	START	n/a	LTP096	ltpFR	13	n/a	n/a	n/a	n/a	n/a	n/a	n/a	n/a	n/a	n/a	n/a	n/a	n/a	n/a	n/a	n/a
1058128	PROB	n/a	LTP096	ltpFR	13	n/a	n/a	n/a	n/a	n/a	n/a	n/a	14	5	8	1	n/a	n/a	n/a	n/a	n/a
1060400	PROB	n/a	LTP096	ltpFR	13	n/a	n/a	n/a	n/a	n/a	n/a	n/a	15	3	9	3	n/a	n/a	n/a	n/a	n/a
1061948	PROB	n/a	LTP096	ltpFR	13	n/a	n/a	n/a	n/a	n/a	n/a	n/a	16	2	8	6	n/a	n/a	n/a	n/a	n/a
1063760	STOP	n/a	LTP096	ltpFR	13	n/a	n/a	n/a	n/a	n/a	n/a	n/a	n/a	n/a	n/a	n/a	n/a	n/a	n/a	n/a	n/a
1067026	REC_START	n/a	LTP096	ltpFR	13	5	n/a	n/a	n/a	n/a	n/a	n/a	n/a	0	0	0	n/a	n/a	n/a	n/a	n/a
1068054	REC_WORD	wordpools/wasnorm_wordpool.txt	LTP096	ltpFR	13	5	0	RING	1193	n/a	n/a	0	n/a	0	0	0	n/a	n/a	n/a	n/a	n/a
1069126	REC_WORD	wordpools/wasnorm_wordpool.txt	LTP096	ltpFR	13	5	0	DIAMOND	458	n/a	n/a	n/a	n/a	0	0	0	n/a	n/a	n/a	n/a	n/a
1069795	REC_WORD	wordpools/wasnorm_wordpool.txt	LTP096	ltpFR	13	5	0	STETHOSCOPE	1379	n/a	n/a	0	n/a	0	0	0	n/a	n/a	n/a	n/a	n/a
1070913	REC_WORD	wordpools/wasnorm_wordpool.txt	LTP096	ltpFR	13	5	1	QUAIL	1147	n/a	n/a	3	n/a	0	0	0	n/a	n/a	n/a	n/a	n/a
1071950	REC_WORD	wordpools/wasnorm_wordpool.txt	LTP096	ltpFR	13	5	1	SQUIRREL	1362	n/a	n/a	1	n/a	0	0	0	n/a	n/a	n/a	n/a	n/a
1072972	REC_WORD	wordpools/wasnorm_wordpool.txt	LTP096	ltpFR	13	5	1	OATS	968	n/a	n/a	1	n/a	0	0	0	n/a	n/a	n/a	n/a	n/a
1073975	REC_WORD	wordpools/wasnorm_wordpool.txt	LTP096	ltpFR	13	5	0	OATMEAL	967	n/a	n/a	2	n/a	0	0	0	n/a	n/a	n/a	n/a	n/a
1074733	REC_WORD	wordpools/wasnorm_wordpool.txt	LTP096	ltpFR	13	5	0	ROOSTER	1209	n/a	n/a	1	n/a	0	0	0	n/a	n/a	n/a	n/a	n/a
1075696	REC_WORD	wordpools/wasnorm_wordpool.txt	LTP096	ltpFR	13	5	0	TAXI	1438	n/a	n/a	1	n/a	0	0	0	n/a	n/a	n/a	n/a	n/a
1076489	REC_WORD	wordpools/wasnorm_wordpool.txt	LTP096	ltpFR	13	5	1	FOREHEAD	592	n/a	n/a	1	n/a	0	0	0	n/a	n/a	n/a	n/a	n/a
1083543	REC_WORD	wordpools/wasnorm_wordpool.txt	LTP096	ltpFR	13	5	0	BUGGY	188	n/a	n/a	0	n/a	0	0	0	n/a	n/a	n/a	n/a	n/a
1193379	WORD	wordpools/wasnorm_wordpool.txt	LTP096	ltpFR	13	6	0	GENTLEMAN	631	n/a	n/a	0	n/a	0	0	0	0.422607421875	0.5869140625	0	lower	zerothre.ttf
1197332	WORD	wordpools/wasnorm_wordpool.txt	LTP096	ltpFR	13	6	0	GRAPE	654	n/a	n/a	0	n/a	0	0	0	0.422607421875	0.5869140625	0	lower	zerothre.ttf
1201428	WORD	wordpools/wasnorm_wordpool.txt	LTP096	ltpFR	13	6	0	VENT	1556	n/a	n/a	0	n/a	0	0	0	0.422607421875	0.5869140625	0	lower	zerothre.ttf
1205498	WORD	wordpools/wasnorm_wordpool.txt	LTP096	ltpFR	13	6	0	FOOTBALL	591	n/a	n/a	1	n/a	0	0	0	0.422607421875	0.5869140625	0	lower	zerothre.ttf
1209601	WORD	wordpools/wasnorm_wordpool.txt	LTP096	ltpFR	13	6	0	UNIVERSE	1540	n/a	n/a	0	n/a	0	0	0	0.422607421875	0.5869140625	0	lower	zerothre.ttf
1213797	WORD	wordpools/wasnorm_wordpool.txt	LTP096	ltpFR	13	6	0	GRILL	661	n/a	n/a	1	n/a	0	0	0	0.422607421875	0.5869140625	0	lower	zerothre.ttf
1217617	WORD	wordpools/wasnorm_wordpool.txt	LTP096	ltpFR	13	6	0	CRICKET	408	n/a	n/a	0	n/a	0	0	0	0.422607421875	0.5869140625	0	lower	zerothre.ttf
1221796	WORD	wordpools/wasnorm_wordpool.txt	LTP096	ltpFR	13	6	0	ANT	25	n/a	n/a	0	n/a	0	0	0	0.422607421875	0.5869140625	0	lower	zerothre.ttf
1225616	WORD	wordpools/wasnorm_wordpool.txt	LTP096	ltpFR	13	6	0	TOASTER	1472	n/a	n/a	0	n/a	0	0	0	0.422607421875	0.5869140625	0	lower	zerothre.ttf
1229487	WORD	wordpools/wasnorm_wordpool.txt	LTP096	ltpFR	13	6	0	PAN	1008	n/a	n/a	0	n/a	0	0	0	0.422607421875	0.5869140625	0	lower	zerothre.ttf
1233449	WORD	wordpools/wasnorm_wordpool.txt	LTP096	ltpFR	13	6	0	PHILOSOPHER	1054	n/a	n/a	0	n/a	0	0	0	0.422607421875	0.5869140625	0	lower	zerothre.ttf
1237436	WORD	wordpools/wasnorm_wordpool.txt	LTP096	ltpFR	13	6	0	FIELD	562	n/a	n/a	1	n/a	0	0	0	0.422607421875	0.5869140625	0	lower	zerothre.ttf
1241539	WORD	wordpools/wasnorm_wordpool.txt	LTP096	ltpFR	13	6	0	ATLAS	53	n/a	n/a	1	n/a	0	0	0	0.422607421875	0.5869140625	0	lower	zerothre.ttf
1245568	WORD	wordpools/wasnorm_wordpool.txt	LTP096	ltpFR	13	6	0	LAGOON	795	n/a	n/a	1	n/a	0	0	0	0.422607421875	0.5869140625	0	lower	zerothre.ttf
1249705	WORD	wordpools/wasnorm_wordpool.txt	LTP096	ltpFR	13	6	0	KIDNEY	776	n/a	n/a	1	n/a	0	0	0	0.422607421875	0.5869140625	0	lower	zerothre.ttf
1253575	WORD	wordpools/wasnorm_wordpool.txt	LTP096	ltpFR	13	6	0	CORN	381	n/a	n/a	1	n/a	0	0	0	0.422607421875	0.5869140625	0	lower	zerothre.ttf
1256580	START	n/a	LTP096	ltpFR	13	n/a	n/a	n/a	n/a	n/a	n/a	n/a	n/a	n/a	n/a	n/a	n/a	n/a	n/a	n/a	n/a
1257737	PROB	n/a	LTP096	ltpFR	13	n/a	n/a	n/a	n/a	n/a	n/a	n/a	12	1	3	8	n/a	n/a	n/a	n/a	n/a
1260933	PROB	n/a	LTP096	ltpFR	13	n/a	n/a	n/a	n/a	n/a	n/a	n/a	12	2	8	2	n/a	n/a	n/a	n/a	n/a
1262208	PROB	n/a	LTP096	ltpFR	13	n/a	n/a	n/a	n/a	n/a	n/a	n/a	17	4	7	6	n/a	n/a	n/a	n/a	n/a
1264396	PROB	n/a	LTP096	ltpFR	13	n/a	n/a	n/a	n/a	n/a	n/a	n/a	8	2	5	1	n/a	n/a	n/a	n/a	n/a
1266369	PROB	n/a	LTP096	ltpFR	13	n/a	n/a	n/a	n/a	n/a	n/a	n/a	19	9	9	1	n/a	n/a	n/a	n/a	n/a
1270257	PROB	n/a	LTP096	ltpFR	13	n/a	n/a	n/a	n/a	n/a	n/a	n/a	15	3	5	7	n/a	n/a	n/a	n/a	n/a
1272121	STOP	n/a	LTP096	ltpFR	13	n/a	n/a	n/a	n/a	n/a	n/a	n/a	n/a	n/a	n/a	n/a	n/a	n/a	n/a	n/a	n/a
1274393	REC_START	n/a	LTP096	ltpFR	13	6	n/a	n/a	n/a	n/a	n/a	n/a	n/a	0	0	0	n/a	n/a	n/a	n/a	n/a
1275535	REC_WORD	wordpools/wasnorm_wordpool.txt	LTP096	ltpFR	13	6	0	LAGOON	795	n/a	n/a	1	n/a	0	0	0	n/a	n/a	n/a	n/a	n/a
1283407	REC_WORD	wordpools/wasnorm_wordpool.txt	LTP096	ltpFR	13	6	0	PHILOSOPHER	1054	n/a	n/a	0	n/a	0	0	0	n/a	n/a	n/a	n/a	n/a
1497800	START	n/a	LTP096	ltpFR	13	n/a	n/a	n/a	n/a	n/a	n/a	n/a	n/a	n/a	n/a	n/a	n/a	n/a	n/a	n/a	n/a
1499308	PROB	n/a	LTP096	ltpFR	13	n/a	n/a	n/a	n/a	n/a	n/a	n/a	12	4	7	1	n/a	n/a	n/a	n/a	n/a
1505059	PROB	n/a	LTP096	ltpFR	13	n/a	n/a	n/a	n/a	n/a	n/a	n/a	13	5	1	7	n/a	n/a	n/a	n/a	n/a
1506873	PROB	n/a	LTP096	ltpFR	13	n/a	n/a	n/a	n/a	n/a	n/a	n/a	17	7	5	5	n/a	n/a	n/a	n/a	n/a
1510162	PROB	n/a	LTP096	ltpFR	13	n/a	n/a	n/a	n/a	n/a	n/a	n/a	8	3	4	1	n/a	n/a	n/a	n/a	n/a
1513800	STOP	n/a	LTP096	ltpFR	13	n/a	n/a	n/a	n/a	n/a	n/a	n/a	n/a	n/a	n/a	n/a	n/a	n/a	n/a	n/a	n/a
1514680	WORD	wordpools/wasnorm_wordpool.txt	LTP096	ltpFR	13	7	0	OWL	992	n/a	n/a	0	n/a	0	0	0	0.422607421875	0.5869140625	0	lower	zerothre.ttf
1517686	START	n/a	LTP096	ltpFR	13	n/a	n/a	n/a	n/a	n/a	n/a	n/a	n/a	n/a	n/a	n/a	n/a	n/a	n/a	n/a	n/a
1518751	PROB	n/a	LTP096	ltpFR	13	n/a	n/a	n/a	n/a	n/a	n/a	n/a	10	4	4	2	n/a	n/a	n/a	n/a	n/a
1521381	PROB	n/a	LTP096	ltpFR	13	n/a	n/a	n/a	n/a	n/a	n/a	n/a	10	6	2	2	n/a	n/a	n/a	n/a	n/a
1522821	PROB	n/a	LTP096	ltpFR	13	n/a	n/a	n/a	n/a	n/a	n/a	n/a	17	6	5	6	n/a	n/a	n/a	n/a	n/a
1533685	STOP	n/a	LTP096	ltpFR	13	n/a	n/a	n/a	n/a	n/a	n/a	n/a	n/a	n/a	n/a	n/a	n/a	n/a	n/a	n/a	n/a
1534774	WORD	wordpools/wasnorm_wordpool.txt	LTP096	ltpFR	13	7	0	SUBURB	1399	n/a	n/a	0	n/a	0	0	0	0.422607421875	0.5869140625	0	lower	zerothre.ttf
1537779	START	n/a	LTP096	ltpFR	13	n/a	n/a	n/a	n/a	n/a	n/a	n/a	n/a	n/a	n/a	n/a	n/a	n/a	n/a	n/a	n/a
1538869	PROB	n/a	LTP096	ltpFR	13	n/a	n/a	n/a	n/a	n/a	n/a	n/a	14	4	4	6	n/a	n/a	n/a	n/a	n/a
1540525	PROB	n/a	LTP096	ltpFR	13	n/a	n/a	n/a	n/a	n/a	n/a	n/a	15	5	3	7	n/a	n/a	n/a	n/a	n/a
1542873	PROB	n/a	LTP096	ltpFR	13	n/a	n/a	n/a	n/a	n/a	n/a	n/a	16	8	4	4	n/a	n/a	n/a	n/a	n/a
1545171	PROB	n/a	LTP096	ltpFR	13	n/a	n/a	n/a	n/a	n/a	n/a	n/a	11	1	7	3	n/a	n/a	n/a	n/a	n/a
1546560	PROB	n/a	LTP096	ltpFR	13	n/a	n/a	n/a	n/a	n/a	n/a	n/a	5	3	1	1	n/a	n/a	n/a	n/a	n/a
1547625	PROB	n/a	LTP096	ltpFR	13	n/a	n/a	n/a	n/a	n/a	n/a	n/a	15	3	9	3	n/a	n/a	n/a	n/a	n/a
1553779	STOP	n/a	LTP096	ltpFR	13	n/a	n/a	n/a	n/a	n/a	n/a	n/a	n/a	n/a	n/a	n/a	n/a	n/a	n/a	n/a	n/a
1554784	WORD	wordpools/wasnorm_wordpool.txt	LTP096	ltpFR	13	7	0	HATCHET	691	n/a	n/a	0	n/a	0	0	0	0.422607421875	0.5869140625	0	lower	zerothre.ttf
1557789	START	n/a	LTP096	ltpFR	13	n/a	n/a	n/a	n/a	n/a	n/a	n/a	n/a	n/a	n/a	n/a	n/a	n/a	n/a	n/a	n/a
1558663	PROB	n/a	LTP096	ltpFR	13	n/a	n/a	n/a	n/a	n/a	n/a	n/a	9	2	2	5	n/a	n/a	n/a	n/a	n/a
1560187	PROB	n/a	LTP096	ltpFR	13	n/a	n/a	n/a	n/a	n/a	n/a	n/a	14	2	3	9	n/a	n/a	n/a	n/a	n/a
1562600	PROB	n/a	LTP096	ltpFR	13	n/a	n/a	n/a	n/a	n/a	n/a	n/a	6	2	2	2	n/a	n/a	n/a	n/a	n/a
1563956	PROB	n/a	LTP096	ltpFR	13	n/a	n/a	n/a	n/a	n/a	n/a	n/a	21	8	6	7	n/a	n/a	n/a	n/a	n/a
1567229	PROB	n/a	LTP096	ltpFR	13	n/a	n/a	n/a	n/a	n/a	n/a	n/a	15	4	2	9	n/a	n/a	n/a	n/a	n/a
1573789	STOP	n/a	LTP096	ltpFR	13	n/a	n/a	n/a	n/a	n/a	n/a	n/a	n/a	n/a	n/a	n/a	n/a	n/a	n/a	n/a	n/a
1574885	WORD	wordpools/wasnorm_wordpool.txt	LTP096	ltpFR	13	7	0	PLIERS	1089	n/a	n/a	0	n/a	0	0	0	0.422607421875	0.5869140625	0	lower	zerothre.ttf
1577891	START	n/a	LTP096	ltpFR	13	n/a	n/a	n/a	n/a	n/a	n/a	n/a	n/a	n/a	n/a	n/a	n/a	n/a	n/a	n/a	n/a
1578814	PROB	n/a	LTP096	ltpFR	13	n/a	n/a	n/a	n/a	n/a	n/a	n/a	15	5	2	8	n/a	n/a	n/a	n/a	n/a
1580620	PROB	n/a	LTP096	ltpFR	13	n/a	n/a	n/a	n/a	n/a	n/a	n/a	9	2	2	5	n/a	n/a	n/a	n/a	n/a
1583392	PROB	n/a	LTP096	ltpFR	13	n/a	n/a	n/a	n/a	n/a	n/a	n/a	10	6	1	3	n/a	n/a	n/a	n/a	n/a
1585531	PROB	n/a	LTP096	ltpFR	13	n/a	n/a	n/a	n/a	n/a	n/a	n/a	15	7	1	7	n/a	n/a	n/a	n/a	n/a
1587929	PROB	n/a	LTP096	ltpFR	13	n/a	n/a	n/a	n/a	n/a	n/a	n/a	18	8	5	5	n/a	n/a	n/a	n/a	n/a
1589677	PROB	n/a	LTP096	ltpFR	13	n/a	n/a	n/a	n/a	n/a	n/a	n/a	13	9	1	3	n/a	n/a	n/a	n/a	n/a
1593891	STOP	n/a	LTP096	ltpFR	13	n/a	n/a	n/a	n/a	n/a	n/a	n/a	n/a	n/a	n/a	n/a	n/a	n/a	n/a	n/a	n/a
1594970	WORD	wordpools/wasnorm_wordpool.txt	LTP096	ltpFR	13	7	0	DUST	508	n/a	n/a	0	n/a	0	0	0	0.422607421875	0.5869140625	0	lower	zerothre.ttf
1597976	START	n/a	LTP096	ltpFR	13	n/a	n/a	n/a	n/a	n/a	n/a	n/a	n/a	n/a	n/a	n/a	n/a	n/a	n/a	n/a	n/a
1598874	PROB	n/a	LTP096	ltpFR	13	n/a	n/a	n/a	n/a	n/a	n/a	n/a	20	6	6	8	n/a	n/a	n/a	n/a	n/a
1602238	PROB	n/a	LTP096	ltpFR	13	n/a	n/a	n/a	n/a	n/a	n/a	n/a	18	5	5	8	n/a	n/a	n/a	n/a	n/a
1603644	PROB	n/a	LTP096	ltpFR	13	n/a	n/a	n/a	n/a	n/a	n/a	n/a	15	9	1	5	n/a	n/a	n/a	n/a	n/a
1604917	PROB	n/a	LTP096	ltpFR	13	n/a	n/a	n/a	n/a	n/a	n/a	n/a	18	4	9	5	n/a	n/a	n/a	n/a	n/a
1607323	PROB	n/a	LTP096	ltpFR	13	n/a	n/a	n/a	n/a	n/a	n/a	n/a	19	6	9	4	n/a	n/a	n/a	n/a	n/a
1609088	PROB	n/a	LTP096	ltpFR	13	n/a	n/a	n/a	n/a	n/a	n/a	n/a	25	9	8	8	n/a	n/a	n/a	n/a	n/a
1613121	STOP	n/a	LTP096	ltpFR	13	n/a	n/a	n/a	n/a	n/a	n/a	n/a	n/a	n/a	n/a	n/a	n/a	n/a	n/a	n/a	n/a
1615115	WORD	wordpools/wasnorm_wordpool.txt	LTP096	ltpFR	13	7	0	MARKER	870	n/a	n/a	0	n/a	0	0	0	0.422607421875	0.5869140625	0	lower	zerothre.ttf
1618120	START	n/a	LTP096	ltpFR	13	n/a	n/a	n/a	n/a	n/a	n/a	n/a	n/a	n/a	n/a	n/a	n/a	n/a	n/a	n/a	n/a
1618968	PROB	n/a	LTP096	ltpFR	13	n/a	n/a	n/a	n/a	n/a	n/a	n/a	5	1	3	1	n/a	n/a	n/a	n/a	n/a
1622622	PROB	n/a	LTP096	ltpFR	13	n/a	n/a	n/a	n/a	n/a	n/a	n/a	16	9	6	1	n/a	n/a	n/a	n/a	n/a
1625103	PROB	n/a	LTP096	ltpFR	13	n/a	n/a	n/a	n/a	n/a	n/a	n/a	23	6	9	8	n/a	n/a	n/a	n/a	n/a
1629780	PROB	n/a	LTP096	ltpFR	13	n/a	n/a	n/a	n/a	n/a	n/a	n/a	10	4	5	1	n/a	n/a	n/a	n/a	n/a
1634119	STOP	n/a	LTP096	ltpFR	13	n/a	n/a	n/a	n/a	n/a	n/a	n/a	n/a	n/a	n/a	n/a	n/a	n/a	n/a	n/a	n/a
1635308	WORD	wordpools/wasnorm_wordpool.txt	LTP096	ltpFR	13	7	0	TERMITE	1451	n/a	n/a	0	n/a	0	0	0	0.422607421875	0.5869140625	0	lower	zerothre.ttf
1638312	START	n/a	LTP096	ltpFR	13	n/a	n/a	n/a	n/a	n/a	n/a	n/a	n/a	n/a	n/a	n/a	n/a	n/a	n/a	n/a	n/a
1639435	PROB	n/a	LTP096	ltpFR	13	n/a	n/a	n/a	n/a	n/a	n/a	n/a	21	9	3	9	n/a	n/a	n/a	n/a	n/a
1644289	PROB	n/a	LTP096	ltpFR	13	n/a	n/a	n/a	n/a	n/a	n/a	n/a	12	1	4	7	n/a	n/a	n/a	n/a	n/a
1649300	PROB	n/a	LTP096	ltpFR	13	n/a	n/a	n/a	n/a	n/a	n/a	n/a	16	4	6	6	n/a	n/a	n/a	n/a	n/a
1654312	STOP	n/a	LTP096	ltpFR	13	n/a	n/a	n/a	n/a	n/a	n/a	n/a	n/a	n/a	n/a	n/a	n/a	n/a	n/a	n/a	n/a
1655467	WORD	wordpools/wasnorm_wordpool.txt	LTP096	ltpFR	13	7	0	CARRIAGE	248	n/a	n/a	n/a	n/a	0	0	0	0.422607421875	0.5869140625	0	lower	zerothre.ttf
1658488	SLOW_MSG	n/a	LTP096	ltpFR	13	7	n/a	n/a	n/a	n/a	n/a	n/a	n/a	0	0	0	n/a	n/a	n/a	n/a	n/a
1660004	START	n/a	LTP096	ltpFR	13	n/a	n/a	n/a	n/a	n/a	n/a	n/a	n/a	n/a	n/a	n/a	n/a	n/a	n/a	n/a	n/a
1660902	PROB	n/a	LTP096	ltpFR	13	n/a	n/a	n/a	n/a	n/a	n/a	n/a	16	7	8	1	n/a	n/a	n/a	n/a	n/a
1663516	PROB	n/a	LTP096	ltpFR	13	n/a	n/a	n/a	n/a	n/a	n/a	n/a	18	8	2	8	n/a	n/a	n/a	n/a	n/a
1669177	PROB	n/a	LTP096	ltpFR	13	n/a	n/a	n/a	n/a	n/a	n/a	n/a	13	1	4	8	n/a	n/a	n/a	n/a	n/a
1671283	PROB	n/a	LTP096	ltpFR	13	n/a	n/a	n/a	n/a	n/a	n/a	n/a	10	5	2	3	n/a	n/a	n/a	n/a	n/a
1676004	STOP	n/a	LTP096	ltpFR	13	n/a	n/a	n/a	n/a	n/a	n/a	n/a	n/a	n/a	n/a	n/a	n/a	n/a	n/a	n/a	n/a
1677017	WORD	wordpools/wasnorm_wordpool.txt	LTP096	ltpFR	13	7	0	UNICORN	1538	n/a	n/a	0	n/a	0	0	0	0.422607421875	0.5869140625	0	lower	zerothre.ttf
1680022	START	n/a	LTP096	ltpFR	13	n/a	n/a	n/a	n/a	n/a	n/a	n/a	n/a	n/a	n/a	n/a	n/a	n/a	n/a	n/a	n/a
1681130	PROB	n/a	LTP096	ltpFR	13	n/a	n/a	n/a	n/a	n/a	n/a	n/a	16	2	7	7	n/a	n/a	n/a	n/a	n/a
1683701	PROB	n/a	LTP096	ltpFR	13	n/a	n/a	n/a	n/a	n/a	n/a	n/a	20	7	6	7	n/a	n/a	n/a	n/a	n/a
1686880	PROB	n/a	LTP096	ltpFR	13	n/a	n/a	n/a	n/a	n/a	n/a	n/a	17	6	7	4	n/a	n/a	n/a	n/a	n/a
1690734	PROB	n/a	LTP096	ltpFR	13	n/a	n/a	n/a	n/a	n/a	n/a	n/a	10	6	2	2	n/a	n/a	n/a	n/a	n/a
1692524	PROB	n/a	LTP096	ltpFR	13	n/a	n/a	n/a	n/a	n/a	n/a	n/a	12	2	6	4	n/a	n/a	n/a	n/a	n/a
1694552	STOP	n/a	LTP096	ltpFR	13	n/a	n/a	n/a	n/a	n/a	n/a	n/a	n/a	n/a	n/a	n/a	n/a	n/a	n/a	n/a	n/a
1696894	WORD	wordpools/wasnorm_wordpool.txt	LTP096	ltpFR	13	7	0	PLASTER	1085	n/a	n/a	0	n/a	0	0	0	0.422607421875	0.5869140625	0	lower	zerothre.ttf
1699899	START	n/a	LTP096	ltpFR	13	n/a	n/a	n/a	n/a	n/a	n/a	n/a	n/a	n/a	n/a	n/a	n/a	n/a	n/a	n/a	n/a
1700847	PROB	n/a	LTP096	ltpFR	13	n/a	n/a	n/a	n/a	n/a	n/a	n/a	12	6	2	4	n/a	n/a	n/a	n/a	n/a
1702487	PROB	n/a	LTP096	ltpFR	13	n/a	n/a	n/a	n/a	n/a	n/a	n/a	14	4	2	8	n/a	n/a	n/a	n/a	n/a
1705642	PROB	n/a	LTP096	ltpFR	13	n/a	n/a	n/a	n/a	n/a	n/a	n/a	8	1	4	3	n/a	n/a	n/a	n/a	n/a
1708514	PROB	n/a	LTP096	ltpFR	13	n/a	n/a	n/a	n/a	n/a	n/a	n/a	23	5	9	9	n/a	n/a	n/a	n/a	n/a
1711535	PROB	n/a	LTP096	ltpFR	13	n/a	n/a	n/a	n/a	n/a	n/a	n/a	19	3	7	9	n/a	n/a	n/a	n/a	n/a
1713316	PROB	n/a	LTP096	ltpFR	13	n/a	n/a	n/a	n/a	n/a	n/a	n/a	12	5	4	3	n/a	n/a	n/a	n/a	n/a
1715448	STOP	n/a	LTP096	ltpFR	13	n/a	n/a	n/a	n/a	n/a	n/a	n/a	n/a	n/a	n/a	n/a	n/a	n/a	n/a	n/a	n/a
1716721	WORD	wordpools/wasnorm_wordpool.txt	LTP096	ltpFR	13	7	0	CANARY	227	n/a	n/a	0	n/a	0	0	0	0.422607421875	0.5869140625	0	lower	zerothre.ttf
1719726	START	n/a	LTP096	ltpFR	13	n/a	n/a	n/a	n/a	n/a	n/a	n/a	n/a	n/a	n/a	n/a	n/a	n/a	n/a	n/a	n/a
1720649	PROB	n/a	LTP096	ltpFR	13	n/a	n/a	n/a	n/a	n/a	n/a	n/a	13	1	5	7	n/a	n/a	n/a	n/a	n/a
1725037	PROB	n/a	LTP096	ltpFR	13	n/a	n/a	n/a	n/a	n/a	n/a	n/a	15	3	3	9	n/a	n/a	n/a	n/a	n/a
1727733	PROB	n/a	LTP096	ltpFR	13	n/a	n/a	n/a	n/a	n/a	n/a	n/a	17	2	5	9	n/a	n/a	n/a	n/a	n/a
1730298	PROB	n/a	LTP096	ltpFR	13	n/a	n/a	n/a	n/a	n/a	n/a	n/a	18	2	7	9	n/a	n/a	n/a	n/a	n/a
1735726	STOP	n/a	LTP096	ltpFR	13	n/a	n/a	n/a	n/a	n/a	n/a	n/a	n/a	n/a	n/a	n/a	n/a	n/a	n/a	n/a	n/a
1736597	WORD	wordpools/wasnorm_wordpool.txt	LTP096	ltpFR	13	7	0	CAPITAL	238	n/a	n/a	n/a	n/a	0	0	0	0.422607421875	0.5869140625	0	lower	zerothre.ttf
1739619	SLOW_MSG	n/a	LTP096	ltpFR	13	7	n/a	n/a	n/a	n/a	n/a	n/a	n/a	0	0	0	n/a	n/a	n/a	n/a	n/a
1741135	START	n/a	LTP096	ltpFR	13	n/a	n/a	n/a	n/a	n/a	n/a	n/a	n/a	n/a	n/a	n/a	n/a	n/a	n/a	n/a	n/a
1742324	PROB	n/a	LTP096	ltpFR	13	n/a	n/a	n/a	n/a	n/a	n/a	n/a	20	7	6	7	n/a	n/a	n/a	n/a	n/a
1744971	PROB	n/a	LTP096	ltpFR	13	n/a	n/a	n/a	n/a	n/a	n/a	n/a	20	8	9	3	n/a	n/a	n/a	n/a	n/a
1747211	PROB	n/a	LTP096	ltpFR	13	n/a	n/a	n/a	n/a	n/a	n/a	n/a	9	3	4	2	n/a	n/a	n/a	n/a	n/a
1750058	PROB	n/a	LTP096	ltpFR	13	n/a	n/a	n/a	n/a	n/a	n/a	n/a	18	7	8	3	n/a	n/a	n/a	n/a	n/a
1752720	PROB	n/a	LTP096	ltpFR	13	n/a	n/a	n/a	n/a	n/a	n/a	n/a	12	2	7	3	n/a	n/a	n/a	n/a	n/a
1757135	STOP	n/a	LTP096	ltpFR	13	n/a	n/a	n/a	n/a	n/a	n/a	n/a	n/a	n/a	n/a	n/a	n/a	n/a	n/a	n/a	n/a
1758207	WORD	wordpools/wasnorm_wordpool.txt	LTP096	ltpFR	13	7	0	CIRCUS	311	n/a	n/a	1	n/a	0	0	0	0.422607421875	0.5869140625	0	lower	zerothre.ttf
1761212	START	n/a	LTP096	ltpFR	13	n/a	n/a	n/a	n/a	n/a	n/a	n/a	n/a	n/a	n/a	n/a	n/a	n/a	n/a	n/a	n/a
1762077	PROB	n/a	LTP096	ltpFR	13	n/a	n/a	n/a	n/a	n/a	n/a	n/a	23	7	9	7	n/a	n/a	n/a	n/a	n/a
1764457	PROB	n/a	LTP096	ltpFR	13	n/a	n/a	n/a	n/a	n/a	n/a	n/a	17	5	8	4	n/a	n/a	n/a	n/a	n/a
1766787	PROB	n/a	LTP096	ltpFR	13	n/a	n/a	n/a	n/a	n/a	n/a	n/a	18	5	7	6	n/a	n/a	n/a	n/a	n/a
1769734	PROB	n/a	LTP096	ltpFR	13	n/a	n/a	n/a	n/a	n/a	n/a	n/a	17	2	9	5	n/a	n/a	n/a	n/a	n/a
1773804	PROB	n/a	LTP096	ltpFR	13	n/a	n/a	n/a	n/a	n/a	n/a	n/a	19	8	5	6	n/a	n/a	n/a	n/a	n/a
1776592	STOP	n/a	LTP096	ltpFR	13	n/a	n/a	n/a	n/a	n/a	n/a	n/a	n/a	n/a	n/a	n/a	n/a	n/a	n/a	n/a	n/a
1778357	WORD	wordpools/wasnorm_wordpool.txt	LTP096	ltpFR	13	7	0	SWATTER	1418	n/a	n/a	1	n/a	0	0	0	0.422607421875	0.5869140625	0	lower	zerothre.ttf
1781363	START	n/a	LTP096	ltpFR	13	n/a	n/a	n/a	n/a	n/a	n/a	n/a	n/a	n/a	n/a	n/a	n/a	n/a	n/a	n/a	n/a
1782353	PROB	n/a	LTP096	ltpFR	13	n/a	n/a	n/a	n/a	n/a	n/a	n/a	22	7	7	8	n/a	n/a	n/a	n/a	n/a
1784933	PROB	n/a	LTP096	ltpFR	13	n/a	n/a	n/a	n/a	n/a	n/a	n/a	17	1	7	9	n/a	n/a	n/a	n/a	n/a
1787480	PROB	n/a	LTP096	ltpFR	13	n/a	n/a	n/a	n/a	n/a	n/a	n/a	15	7	2	6	n/a	n/a	n/a	n/a	n/a
1789802	PROB	n/a	LTP096	ltpFR	13	n/a	n/a	n/a	n/a	n/a	n/a	n/a	21	9	9	3	n/a	n/a	n/a	n/a	n/a
1791434	PROB	n/a	LTP096	ltpFR	13	n/a	n/a	n/a	n/a	n/a	n/a	n/a	13	4	6	3	n/a	n/a	n/a	n/a	n/a
1793175	PROB	n/a	LTP096	ltpFR	13	n/a	n/a	n/a	n/a	n/a	n/a	n/a	11	5	4	2	n/a	n/a	n/a	n/a	n/a
1794738	PROB	n/a	LTP096	ltpFR	13	n/a	n/a	n/a	n/a	n/a	n/a	n/a	10	2	5	3	n/a	n/a	n/a	n/a	n/a
1796880	STOP	n/a	LTP096	ltpFR	13	n/a	n/a	n/a	n/a	n/a	n/a	n/a	n/a	n/a	n/a	n/a	n/a	n/a	n/a	n/a	n/a
1798534	WORD	wordpools/wasnorm_wordpool.txt	LTP096	ltpFR	13	7	0	SHOP	1290	n/a	n/a	n/a	n/a	0	0	0	0.422607421875	0.5869140625	0	lower	zerothre.ttf
1801555	SLOW_MSG	n/a	LTP096	ltpFR	13	7	n/a	n/a	n/a	n/a	n/a	n/a	n/a	0	0	0	n/a	n/a	n/a	n/a	n/a
1803072	START	n/a	LTP096	ltpFR	13	n/a	n/a	n/a	n/a	n/a	n/a	n/a	n/a	n/a	n/a	n/a	n/a	n/a	n/a	n/a	n/a
1803928	PROB	n/a	LTP096	ltpFR	13	n/a	n/a	n/a	n/a	n/a	n/a	n/a	11	4	6	1	n/a	n/a	n/a	n/a	n/a
1805426	PROB	n/a	LTP096	ltpFR	13	n/a	n/a	n/a	n/a	n/a	n/a	n/a	17	5	5	7	n/a	n/a	n/a	n/a	n/a
1807382	PROB	n/a	LTP096	ltpFR	13	n/a	n/a	n/a	n/a	n/a	n/a	n/a	14	3	5	6	n/a	n/a	n/a	n/a	n/a
1809688	PROB	n/a	LTP096	ltpFR	13	n/a	n/a	n/a	n/a	n/a	n/a	n/a	8	5	1	2	n/a	n/a	n/a	n/a	n/a
1812484	PROB	n/a	LTP096	ltpFR	13	n/a	n/a	n/a	n/a	n/a	n/a	n/a	18	4	8	6	n/a	n/a	n/a	n/a	n/a
1816654	PROB	n/a	LTP096	ltpFR	13	n/a	n/a	n/a	n/a	n/a	n/a	n/a	7	1	3	3	n/a	n/a	n/a	n/a	n/a
1818864	STOP	n/a	LTP096	ltpFR	13	n/a	n/a	n/a	n/a	n/a	n/a	n/a	n/a	n/a	n/a	n/a	n/a	n/a	n/a	n/a	n/a
1820135	WORD	wordpools/wasnorm_wordpool.txt	LTP096	ltpFR	13	7	0	SALESMAN	1225	n/a	n/a	1	n/a	0	0	0	0.422607421875	0.5869140625	0	lower	zerothre.ttf
1823140	START	n/a	LTP096	ltpFR	13	n/a	n/a	n/a	n/a	n/a	n/a	n/a	n/a	n/a	n/a	n/a	n/a	n/a	n/a	n/a	n/a
1824122	PROB	n/a	LTP096	ltpFR	13	n/a	n/a	n/a	n/a	n/a	n/a	n/a	8	1	6	1	n/a	n/a	n/a	n/a	n/a
1826103	PROB	n/a	LTP096	ltpFR	13	n/a	n/a	n/a	n/a	n/a	n/a	n/a	12	2	1	9	n/a	n/a	n/a	n/a	n/a
1829108	PROB	n/a	LTP096	ltpFR	13	n/a	n/a	n/a	n/a	n/a	n/a	n/a	9	2	4	3	n/a	n/a	n/a	n/a	n/a
1831662	PROB	n/a	LTP096	ltpFR	13	n/a	n/a	n/a	n/a	n/a	n/a	n/a	12	2	5	5	n/a	n/a	n/a	n/a	n/a
1833120	PROB	n/a	LTP096	ltpFR	13	n/a	n/a	n/a	n/a	n/a	n/a	n/a	20	5	7	8	n/a	n/a	n/a	n/a	n/a
1839140	STOP	n/a	LTP096	ltpFR	13	n/a	n/a	n/a	n/a	n/a	n/a	n/a	n/a	n/a	n/a	n/a	n/a	n/a	n/a	n/a	n/a
1840935	REC_START	n/a	LTP096	ltpFR	13	7	n/a	n/a	n/a	n/a	n/a	n/a	n/a	0	0	0	n/a	n/a	n/a	n/a	n/a
1842656	REC_WORD	wordpools/wasnorm_wordpool.txt	LTP096	ltpFR	13	7	0	SALESMAN	1225	n/a	n/a	1	n/a	0	0	0	n/a	n/a	n/a	n/a	n/a
1843416	REC_WORD	wordpools/wasnorm_wordpool.txt	LTP096	ltpFR	13	7	0	TERMITE	1451	n/a	n/a	0	n/a	0	0	0	n/a	n/a	n/a	n/a	n/a
1844143	REC_WORD	wordpools/wasnorm_wordpool.txt	LTP096	ltpFR	13	7	0	SHOP	1290	n/a	n/a	n/a	n/a	0	0	0	n/a	n/a	n/a	n/a	n/a
1845001	REC_WORD	wordpools/wasnorm_wordpool.txt	LTP096	ltpFR	13	7	0	ANT	25	n/a	n/a	0	n/a	0	0	0	n/a	n/a	n/a	n/a	n/a
1845594	REC_WORD	wordpools/wasnorm_wordpool.txt	LTP096	ltpFR	13	7	0	DUST	508	n/a	n/a	0	n/a	0	0	0	n/a	n/a	n/a	n/a	n/a
1846522	REC_WORD	wordpools/wasnorm_wordpool.txt	LTP096	ltpFR	13	7	0	CARRIAGE	248	n/a	n/a	n/a	n/a	0	0	0	n/a	n/a	n/a	n/a	n/a
1959697	START	n/a	LTP096	ltpFR	13	n/a	n/a	n/a	n/a	n/a	n/a	n/a	n/a	n/a	n/a	n/a	n/a	n/a	n/a	n/a	n/a
1961204	PROB	n/a	LTP096	ltpFR	13	n/a	n/a	n/a	n/a	n/a	n/a	n/a	21	6	6	9	n/a	n/a	n/a	n/a	n/a
1963451	PROB	n/a	LTP096	ltpFR	13	n/a	n/a	n/a	n/a	n/a	n/a	n/a	15	6	5	4	n/a	n/a	n/a	n/a	n/a
1965357	PROB	n/a	LTP096	ltpFR	13	n/a	n/a	n/a	n/a	n/a	n/a	n/a	18	5	4	9	n/a	n/a	n/a	n/a	n/a
1967354	PROB	n/a	LTP096	ltpFR	13	n/a	n/a	n/a	n/a	n/a	n/a	n/a	18	7	6	5	n/a	n/a	n/a	n/a	n/a
1970592	PROB	n/a	LTP096	ltpFR	13	n/a	n/a	n/a	n/a	n/a	n/a	n/a	17	5	4	8	n/a	n/a	n/a	n/a	n/a
1972390	PROB	n/a	LTP096	ltpFR	13	n/a	n/a	n/a	n/a	n/a	n/a	n/a	4	1	2	1	n/a	n/a	n/a	n/a	n/a
1975697	STOP	n/a	LTP096	ltpFR	13	n/a	n/a	n/a	n/a	n/a	n/a	n/a	n/a	n/a	n/a	n/a	n/a	n/a	n/a	n/a	n/a
1976685	WORD	wordpools/wasnorm_wordpool.txt	LTP096	ltpFR	13	8	1	JOKER	759	n/a	n/a	1	n/a	0	0	0	0.57763671875	0.412841796875	1	upper	amplitud.ttf
1979691	START	n/a	LTP096	ltpFR	13	n/a	n/a	n/a	n/a	n/a	n/a	n/a	n/a	n/a	n/a	n/a	n/a	n/a	n/a	n/a	n/a
1980497	PROB	n/a	LTP096	ltpFR	13	n/a	n/a	n/a	n/a	n/a	n/a	n/a	14	3	2	9	n/a	n/a	n/a	n/a	n/a
1982936	PROB	n/a	LTP096	ltpFR	13	n/a	n/a	n/a	n/a	n/a	n/a	n/a	19	9	6	4	n/a	n/a	n/a	n/a	n/a
1985093	PROB	n/a	LTP096	ltpFR	13	n/a	n/a	n/a	n/a	n/a	n/a	n/a	17	7	1	9	n/a	n/a	n/a	n/a	n/a
1987573	PROB	n/a	LTP096	ltpFR	13	n/a	n/a	n/a	n/a	n/a	n/a	n/a	10	2	5	3	n/a	n/a	n/a	n/a	n/a
1990394	PROB	n/a	LTP096	ltpFR	13	n/a	n/a	n/a	n/a	n/a	n/a	n/a	8	5	2	1	n/a	n/a	n/a	n/a	n/a
1995689	STOP	n/a	LTP096	ltpFR	13	n/a	n/a	n/a	n/a	n/a	n/a	n/a	n/a	n/a	n/a	n/a	n/a	n/a	n/a	n/a	n/a
1996512	WORD	wordpools/wasnorm_wordpool.txt	LTP096	ltpFR	13	8	1	FLY	586	n/a	n/a	1	n/a	0	0	0	0.57763671875	0.412841796875	1	upper	amplitud.ttf
1999518	START	n/a	LTP096	ltpFR	13	n/a	n/a	n/a	n/a	n/a	n/a	n/a	n/a	n/a	n/a	n/a	n/a	n/a	n/a	n/a	n/a
2000408	PROB	n/a	LTP096	ltpFR	13	n/a	n/a	n/a	n/a	n/a	n/a	n/a	7	2	1	4	n/a	n/a	n/a	n/a	n/a
2002963	PROB	n/a	LTP096	ltpFR	13	n/a	n/a	n/a	n/a	n/a	n/a	n/a	18	7	6	5	n/a	n/a	n/a	n/a	n/a
2006983	PROB	n/a	LTP096	ltpFR	13	n/a	n/a	n/a	n/a	n/a	n/a	n/a	14	3	7	4	n/a	n/a	n/a	n/a	n/a
2008756	PROB	n/a	LTP096	ltpFR	13	n/a	n/a	n/a	n/a	n/a	n/a	n/a	22	5	9	8	n/a	n/a	n/a	n/a	n/a
2011670	PROB	n/a	LTP096	ltpFR	13	n/a	n/a	n/a	n/a	n/a	n/a	n/a	18	3	8	7	n/a	n/a	n/a	n/a	n/a
2013334	PROB	n/a	LTP096	ltpFR	13	n/a	n/a	n/a	n/a	n/a	n/a	n/a	11	3	6	2	n/a	n/a	n/a	n/a	n/a
2015169	STOP	n/a	LTP096	ltpFR	13	n/a	n/a	n/a	n/a	n/a	n/a	n/a	n/a	n/a	n/a	n/a	n/a	n/a	n/a	n/a	n/a
2016373	WORD	wordpools/wasnorm_wordpool.txt	LTP096	ltpFR	13	8	1	TROMBONE	1508	n/a	n/a	0	n/a	0	0	0	0.57763671875	0.412841796875	1	upper	amplitud.ttf
2019378	START	n/a	LTP096	ltpFR	13	n/a	n/a	n/a	n/a	n/a	n/a	n/a	n/a	n/a	n/a	n/a	n/a	n/a	n/a	n/a	n/a
2020186	PROB	n/a	LTP096	ltpFR	13	n/a	n/a	n/a	n/a	n/a	n/a	n/a	18	3	8	7	n/a	n/a	n/a	n/a	n/a
2023514	PROB	n/a	LTP096	ltpFR	13	n/a	n/a	n/a	n/a	n/a	n/a	n/a	18	4	5	9	n/a	n/a	n/a	n/a	n/a
2025222	PROB	n/a	LTP096	ltpFR	13	n/a	n/a	n/a	n/a	n/a	n/a	n/a	21	9	6	7	n/a	n/a	n/a	n/a	n/a
2027659	PROB	n/a	LTP096	ltpFR	13	n/a	n/a	n/a	n/a	n/a	n/a	n/a	10	3	6	1	n/a	n/a	n/a	n/a	n/a
2029790	PROB	n/a	LTP096	ltpFR	13	n/a	n/a	n/a	n/a	n/a	n/a	n/a	13	5	1	7	n/a	n/a	n/a	n/a	n/a
2032762	PROB	n/a	LTP096	ltpFR	13	n/a	n/a	n/a	n/a	n/a	n/a	n/a	20	6	8	8	n/a	n/a	n/a	n/a	n/a
2034560	STOP	n/a	LTP096	ltpFR	13	n/a	n/a	n/a	n/a	n/a	n/a	n/a	n/a	n/a	n/a	n/a	n/a	n/a	n/a	n/a	n/a
2036566	WORD	wordpools/wasnorm_wordpool.txt	LTP096	ltpFR	13	8	1	NOSE	957	n/a	n/a	1	n/a	0	0	0	0.57763671875	0.412841796875	1	upper	amplitud.ttf
2039571	START	n/a	LTP096	ltpFR	13	n/a	n/a	n/a	n/a	n/a	n/a	n/a	n/a	n/a	n/a	n/a	n/a	n/a	n/a	n/a	n/a
2040569	PROB	n/a	LTP096	ltpFR	13	n/a	n/a	n/a	n/a	n/a	n/a	n/a	13	3	6	4	n/a	n/a	n/a	n/a	n/a
2044373	PROB	n/a	LTP096	ltpFR	13	n/a	n/a	n/a	n/a	n/a	n/a	n/a	12	4	3	5	n/a	n/a	n/a	n/a	n/a
2046097	PROB	n/a	LTP096	ltpFR	13	n/a	n/a	n/a	n/a	n/a	n/a	n/a	15	5	2	8	n/a	n/a	n/a	n/a	n/a
2048178	PROB	n/a	LTP096	ltpFR	13	n/a	n/a	n/a	n/a	n/a	n/a	n/a	15	7	6	2	n/a	n/a	n/a	n/a	n/a
2050234	PROB	n/a	LTP096	ltpFR	13	n/a	n/a	n/a	n/a	n/a	n/a	n/a	11	7	1	5	n/a	n/a	n/a	n/a	n/a
2055571	STOP	n/a	LTP096	ltpFR	13	n/a	n/a	n/a	n/a	n/a	n/a	n/a	n/a	n/a	n/a	n/a	n/a	n/a	n/a	n/a	n/a
2056468	WORD	wordpools/wasnorm_wordpool.txt	LTP096	ltpFR	13	8	1	EYELASH	546	n/a	n/a	1	n/a	0	0	0	0.57763671875	0.412841796875	1	upper	amplitud.ttf
2059473	START	n/a	LTP096	ltpFR	13	n/a	n/a	n/a	n/a	n/a	n/a	n/a	n/a	n/a	n/a	n/a	n/a	n/a	n/a	n/a	n/a
2060421	PROB	n/a	LTP096	ltpFR	13	n/a	n/a	n/a	n/a	n/a	n/a	n/a	17	5	3	9	n/a	n/a	n/a	n/a	n/a
2063568	PROB	n/a	LTP096	ltpFR	13	n/a	n/a	n/a	n/a	n/a	n/a	n/a	11	1	9	1	n/a	n/a	n/a	n/a	n/a
2065490	PROB	n/a	LTP096	ltpFR	13	n/a	n/a	n/a	n/a	n/a	n/a	n/a	13	4	3	6	n/a	n/a	n/a	n/a	n/a
2068787	PROB	n/a	LTP096	ltpFR	13	n/a	n/a	n/a	n/a	n/a	n/a	n/a	29	4	9	6	n/a	n/a	n/a	n/a	n/a
2074113	STOP	n/a	LTP096	ltpFR	13	n/a	n/a	n/a	n/a	n/a	n/a	n/a	n/a	n/a	n/a	n/a	n/a	n/a	n/a	n/a	n/a
2076486	WORD	wordpools/wasnorm_wordpool.txt	LTP096	ltpFR	13	8	1	BALCONY	72	n/a	n/a	n/a	n/a	0	0	0	0.57763671875	0.412841796875	1	upper	amplitud.ttf
2079507	SLOW_MSG	n/a	LTP096	ltpFR	13	8	n/a	n/a	n/a	n/a	n/a	n/a	n/a	0	0	0	n/a	n/a	n/a	n/a	n/a
2081023	START	n/a	LTP096	ltpFR	13	n/a	n/a	n/a	n/a	n/a	n/a	n/a	n/a	n/a	n/a	n/a	n/a	n/a	n/a	n/a	n/a
2081955	PROB	n/a	LTP096	ltpFR	13	n/a	n/a	n/a	n/a	n/a	n/a	n/a	16	7	3	6	n/a	n/a	n/a	n/a	n/a
2084228	PROB	n/a	LTP096	ltpFR	13	n/a	n/a	n/a	n/a	n/a	n/a	n/a	18	6	6	6	n/a	n/a	n/a	n/a	n/a
2086226	PROB	n/a	LTP096	ltpFR	13	n/a	n/a	n/a	n/a	n/a	n/a	n/a	8	3	1	4	n/a	n/a	n/a	n/a	n/a
2087823	PROB	n/a	LTP096	ltpFR	13	n/a	n/a	n/a	n/a	n/a	n/a	n/a	9	1	6	2	n/a	n/a	n/a	n/a	n/a
2089837	PROB	n/a	LTP096	ltpFR	13	n/a	n/a	n/a	n/a	n/a	n/a	n/a	17	7	2	8	n/a	n/a	n/a	n/a	n/a
2093841	PROB	n/a	LTP096	ltpFR	13	n/a	n/a	n/a	n/a	n/a	n/a	n/a	16	7	2	7	n/a	n/a	n/a	n/a	n/a
2095776	STOP	n/a	LTP096	ltpFR	13	n/a	n/a	n/a	n/a	n/a	n/a	n/a	n/a	n/a	n/a	n/a	n/a	n/a	n/a	n/a	n/a
2098178	WORD	wordpools/wasnorm_wordpool.txt	LTP096	ltpFR	13	8	1	BLUEJAY	141	n/a	n/a	1	n/a	0	0	0	0.57763671875	0.412841796875	1	upper	amplitud.ttf
2101184	START	n/a	LTP096	ltpFR	13	n/a	n/a	n/a	n/a	n/a	n/a	n/a	n/a	n/a	n/a	n/a	n/a	n/a	n/a	n/a	n/a
2102124	PROB	n/a	LTP096	ltpFR	13	n/a	n/a	n/a	n/a	n/a	n/a	n/a	17	2	6	9	n/a	n/a	n/a	n/a	n/a
2104662	PROB	n/a	LTP096	ltpFR	13	n/a	n/a	n/a	n/a	n/a	n/a	n/a	12	8	3	1	n/a	n/a	n/a	n/a	n/a
2109714	PROB	n/a	LTP096	ltpFR	13	n/a	n/a	n/a	n/a	n/a	n/a	n/a	11	6	4	1	n/a	n/a	n/a	n/a	n/a
2112677	PROB	n/a	LTP096	ltpFR	13	n/a	n/a	n/a	n/a	n/a	n/a	n/a	14	5	1	8	n/a	n/a	n/a	n/a	n/a
2115728	STOP	n/a	LTP096	ltpFR	13	n/a	n/a	n/a	n/a	n/a	n/a	n/a	n/a	n/a	n/a	n/a	n/a	n/a	n/a	n/a	n/a
2118230	WORD	wordpools/wasnorm_wordpool.txt	LTP096	ltpFR	13	8	1	TECHNICIAN	1443	n/a	n/a	n/a	n/a	0	0	0	0.57763671875	0.412841796875	1	upper	amplitud.ttf
2121252	SLOW_MSG	n/a	LTP096	ltpFR	13	8	n/a	n/a	n/a	n/a	n/a	n/a	n/a	0	0	0	n/a	n/a	n/a	n/a	n/a
2122766	START	n/a	LTP096	ltpFR	13	n/a	n/a	n/a	n/a	n/a	n/a	n/a	n/a	n/a	n/a	n/a	n/a	n/a	n/a	n/a	n/a
2123839	PROB	n/a	LTP096	ltpFR	13	n/a	n/a	n/a	n/a	n/a	n/a	n/a	14	7	1	6	n/a	n/a	n/a	n/a	n/a
2126003	PROB	n/a	LTP096	ltpFR	13	n/a	n/a	n/a	n/a	n/a	n/a	n/a	19	5	9	5	n/a	n/a	n/a	n/a	n/a
2127768	PROB	n/a	LTP096	ltpFR	13	n/a	n/a	n/a	n/a	n/a	n/a	n/a	15	7	4	4	n/a	n/a	n/a	n/a	n/a
2129683	PROB	n/a	LTP096	ltpFR	13	n/a	n/a	n/a	n/a	n/a	n/a	n/a	8	3	4	1	n/a	n/a	n/a	n/a	n/a
2131223	PROB	n/a	LTP096	ltpFR	13	n/a	n/a	n/a	n/a	n/a	n/a	n/a	20	7	5	8	n/a	n/a	n/a	n/a	n/a
2133263	PROB	n/a	LTP096	ltpFR	13	n/a	n/a	n/a	n/a	n/a	n/a	n/a	10	4	3	3	n/a	n/a	n/a	n/a	n/a
2135127	PROB	n/a	LTP096	ltpFR	13	n/a	n/a	n/a	n/a	n/a	n/a	n/a	20	9	8	3	n/a	n/a	n/a	n/a	n/a
2138765	STOP	n/a	LTP096	ltpFR	13	n/a	n/a	n/a	n/a	n/a	n/a	n/a	n/a	n/a	n/a	n/a	n/a	n/a	n/a	n/a	n/a
2139671	WORD	wordpools/wasnorm_wordpool.txt	LTP096	ltpFR	13	8	1	DASHBOARD	441	n/a	n/a	0	n/a	0	0	0	0.57763671875	0.412841796875	1	upper	amplitud.ttf
2142676	START	n/a	LTP096	ltpFR	13	n/a	n/a	n/a	n/a	n/a	n/a	n/a	n/a	n/a	n/a	n/a	n/a	n/a	n/a	n/a	n/a
2143799	PROB	n/a	LTP096	ltpFR	13	n/a	n/a	n/a	n/a	n/a	n/a	n/a	21	7	8	6	n/a	n/a	n/a	n/a	n/a
2145739	PROB	n/a	LTP096	ltpFR	13	n/a	n/a	n/a	n/a	n/a	n/a	n/a	19	9	5	5	n/a	n/a	n/a	n/a	n/a
2147271	PROB	n/a	LTP096	ltpFR	13	n/a	n/a	n/a	n/a	n/a	n/a	n/a	13	6	3	4	n/a	n/a	n/a	n/a	n/a
2149219	PROB	n/a	LTP096	ltpFR	13	n/a	n/a	n/a	n/a	n/a	n/a	n/a	6	2	1	3	n/a	n/a	n/a	n/a	n/a
2151399	PROB	n/a	LTP096	ltpFR	13	n/a	n/a	n/a	n/a	n/a	n/a	n/a	11	2	3	6	n/a	n/a	n/a	n/a	n/a
2153156	PROB	n/a	LTP096	ltpFR	13	n/a	n/a	n/a	n/a	n/a	n/a	n/a	16	7	4	5	n/a	n/a	n/a	n/a	n/a
2158676	STOP	n/a	LTP096	ltpFR	13	n/a	n/a	n/a	n/a	n/a	n/a	n/a	n/a	n/a	n/a	n/a	n/a	n/a	n/a	n/a	n/a
2159614	WORD	wordpools/wasnorm_wordpool.txt	LTP096	ltpFR	13	8	1	GUARD	667	n/a	n/a	1	n/a	0	0	0	0.57763671875	0.412841796875	1	upper	amplitud.ttf
2162620	START	n/a	LTP096	ltpFR	13	n/a	n/a	n/a	n/a	n/a	n/a	n/a	n/a	n/a	n/a	n/a	n/a	n/a	n/a	n/a	n/a
2163801	PROB	n/a	LTP096	ltpFR	13	n/a	n/a	n/a	n/a	n/a	n/a	n/a	14	5	6	3	n/a	n/a	n/a	n/a	n/a
2167073	PROB	n/a	LTP096	ltpFR	13	n/a	n/a	n/a	n/a	n/a	n/a	n/a	20	7	7	6	n/a	n/a	n/a	n/a	n/a
2168962	PROB	n/a	LTP096	ltpFR	13	n/a	n/a	n/a	n/a	n/a	n/a	n/a	16	8	3	5	n/a	n/a	n/a	n/a	n/a
2172151	PROB	n/a	LTP096	ltpFR	13	n/a	n/a	n/a	n/a	n/a	n/a	n/a	18	7	4	7	n/a	n/a	n/a	n/a	n/a
2175438	PROB	n/a	LTP096	ltpFR	13	n/a	n/a	n/a	n/a	n/a	n/a	n/a	17	5	6	6	n/a	n/a	n/a	n/a	n/a
2178488	STOP	n/a	LTP096	ltpFR	13	n/a	n/a	n/a	n/a	n/a	n/a	n/a	n/a	n/a	n/a	n/a	n/a	n/a	n/a	n/a	n/a
2179733	WORD	wordpools/wasnorm_wordpool.txt	LTP096	ltpFR	13	8	1	BAND	78	n/a	n/a	0	n/a	0	0	0	0.57763671875	0.412841796875	1	upper	amplitud.ttf
2182738	START	n/a	LTP096	ltpFR	13	n/a	n/a	n/a	n/a	n/a	n/a	n/a	n/a	n/a	n/a	n/a	n/a	n/a	n/a	n/a	n/a
2183711	PROB	n/a	LTP096	ltpFR	13	n/a	n/a	n/a	n/a	n/a	n/a	n/a	16	7	8	1	n/a	n/a	n/a	n/a	n/a
2185876	PROB	n/a	LTP096	ltpFR	13	n/a	n/a	n/a	n/a	n/a	n/a	n/a	11	1	5	5	n/a	n/a	n/a	n/a	n/a
2189131	PROB	n/a	LTP096	ltpFR	13	n/a	n/a	n/a	n/a	n/a	n/a	n/a	17	5	7	5	n/a	n/a	n/a	n/a	n/a
2191411	PROB	n/a	LTP096	ltpFR	13	n/a	n/a	n/a	n/a	n/a	n/a	n/a	20	8	7	5	n/a	n/a	n/a	n/a	n/a
2193900	PROB	n/a	LTP096	ltpFR	13	n/a	n/a	n/a	n/a	n/a	n/a	n/a	8	2	2	4	n/a	n/a	n/a	n/a	n/a
2195623	PROB	n/a	LTP096	ltpFR	13	n/a	n/a	n/a	n/a	n/a	n/a	n/a	11	8	1	2	n/a	n/a	n/a	n/a	n/a
2197376	STOP	n/a	LTP096	ltpFR	13	n/a	n/a	n/a	n/a	n/a	n/a	n/a	n/a	n/a	n/a	n/a	n/a	n/a	n/a	n/a	n/a
2199843	WORD	wordpools/wasnorm_wordpool.txt	LTP096	ltpFR	13	8	1	CLIFF	322	n/a	n/a	3	n/a	0	0	0	0.57763671875	0.412841796875	1	upper	amplitud.ttf
2201366	KEY_MSG	n/a	LTP096	ltpFR	13	8	n/a	n/a	n/a	n/a	n/a	n/a	n/a	0	0	0	n/a	n/a	n/a	n/a	n/a
2202881	START	n/a	LTP096	ltpFR	13	n/a	n/a	n/a	n/a	n/a	n/a	n/a	n/a	n/a	n/a	n/a	n/a	n/a	n/a	n/a	n/a
2203730	PROB	n/a	LTP096	ltpFR	13	n/a	n/a	n/a	n/a	n/a	n/a	n/a	14	7	3	4	n/a	n/a	n/a	n/a	n/a
2205038	PROB	n/a	LTP096	ltpFR	13	n/a	n/a	n/a	n/a	n/a	n/a	n/a	14	4	9	1	n/a	n/a	n/a	n/a	n/a
2209200	PROB	n/a	LTP096	ltpFR	13	n/a	n/a	n/a	n/a	n/a	n/a	n/a	4	2	1	1	n/a	n/a	n/a	n/a	n/a
2210930	PROB	n/a	LTP096	ltpFR	13	n/a	n/a	n/a	n/a	n/a	n/a	n/a	15	3	6	6	n/a	n/a	n/a	n/a	n/a
2214601	PROB	n/a	LTP096	ltpFR	13	n/a	n/a	n/a	n/a	n/a	n/a	n/a	14	6	3	5	n/a	n/a	n/a	n/a	n/a
2217920	STOP	n/a	LTP096	ltpFR	13	n/a	n/a	n/a	n/a	n/a	n/a	n/a	n/a	n/a	n/a	n/a	n/a	n/a	n/a	n/a	n/a
2219761	WORD	wordpools/wasnorm_wordpool.txt	LTP096	ltpFR	13	8	1	SHIRT	1287	n/a	n/a	0	n/a	0	0	0	0.57763671875	0.412841796875	1	upper	amplitud.ttf
2222766	START	n/a	LTP096	ltpFR	13	n/a	n/a	n/a	n/a	n/a	n/a	n/a	n/a	n/a	n/a	n/a	n/a	n/a	n/a	n/a	n/a
2223582	PROB	n/a	LTP096	ltpFR	13	n/a	n/a	n/a	n/a	n/a	n/a	n/a	6	1	3	2	n/a	n/a	n/a	n/a	n/a
2225638	PROB	n/a	LTP096	ltpFR	13	n/a	n/a	n/a	n/a	n/a	n/a	n/a	16	8	5	3	n/a	n/a	n/a	n/a	n/a
2228393	PROB	n/a	LTP096	ltpFR	13	n/a	n/a	n/a	n/a	n/a	n/a	n/a	19	7	9	3	n/a	n/a	n/a	n/a	n/a
2230582	PROB	n/a	LTP096	ltpFR	13	n/a	n/a	n/a	n/a	n/a	n/a	n/a	19	4	8	7	n/a	n/a	n/a	n/a	n/a
2238766	STOP	n/a	LTP096	ltpFR	13	n/a	n/a	n/a	n/a	n/a	n/a	n/a	n/a	n/a	n/a	n/a	n/a	n/a	n/a	n/a	n/a
2239588	WORD	wordpools/wasnorm_wordpool.txt	LTP096	ltpFR	13	8	1	SHORTS	1293	n/a	n/a	1	n/a	0	0	0	0.57763671875	0.412841796875	1	upper	amplitud.ttf
2242593	START	n/a	LTP096	ltpFR	13	n/a	n/a	n/a	n/a	n/a	n/a	n/a	n/a	n/a	n/a	n/a	n/a	n/a	n/a	n/a	n/a
2243700	PROB	n/a	LTP096	ltpFR	13	n/a	n/a	n/a	n/a	n/a	n/a	n/a	9	4	3	2	n/a	n/a	n/a	n/a	n/a
2245523	PROB	n/a	LTP096	ltpFR	13	n/a	n/a	n/a	n/a	n/a	n/a	n/a	19	5	7	7	n/a	n/a	n/a	n/a	n/a
2247729	PROB	n/a	LTP096	ltpFR	13	n/a	n/a	n/a	n/a	n/a	n/a	n/a	22	7	7	8	n/a	n/a	n/a	n/a	n/a
2250459	PROB	n/a	LTP096	ltpFR	13	n/a	n/a	n/a	n/a	n/a	n/a	n/a	13	6	1	6	n/a	n/a	n/a	n/a	n/a
2253282	PROB	n/a	LTP096	ltpFR	13	n/a	n/a	n/a	n/a	n/a	n/a	n/a	11	8	2	1	n/a	n/a	n/a	n/a	n/a
2254429	PROB	n/a	LTP096	ltpFR	13	n/a	n/a	n/a	n/a	n/a	n/a	n/a	17	4	7	6	n/a	n/a	n/a	n/a	n/a
2258593	STOP	n/a	LTP096	ltpFR	13	n/a	n/a	n/a	n/a	n/a	n/a	n/a	n/a	n/a	n/a	n/a	n/a	n/a	n/a	n/a	n/a
2259706	WORD	wordpools/wasnorm_wordpool.txt	LTP096	ltpFR	13	8	1	ESCALATOR	539	n/a	n/a	n/a	n/a	0	0	0	0.57763671875	0.412841796875	1	upper	amplitud.ttf
2262728	SLOW_MSG	n/a	LTP096	ltpFR	13	8	n/a	n/a	n/a	n/a	n/a	n/a	n/a	0	0	0	n/a	n/a	n/a	n/a	n/a
2264244	START	n/a	LTP096	ltpFR	13	n/a	n/a	n/a	n/a	n/a	n/a	n/a	n/a	n/a	n/a	n/a	n/a	n/a	n/a	n/a	n/a
2265358	PROB	n/a	LTP096	ltpFR	13	n/a	n/a	n/a	n/a	n/a	n/a	n/a	9	1	2	6	n/a	n/a	n/a	n/a	n/a
2269537	PROB	n/a	LTP096	ltpFR	13	n/a	n/a	n/a	n/a	n/a	n/a	n/a	11	4	5	2	n/a	n/a	n/a	n/a	n/a
2271261	PROB	n/a	LTP096	ltpFR	13	n/a	n/a	n/a	n/a	n/a	n/a	n/a	22	7	6	9	n/a	n/a	n/a	n/a	n/a
2275040	PROB	n/a	LTP096	ltpFR	13	n/a	n/a	n/a	n/a	n/a	n/a	n/a	17	9	4	4	n/a	n/a	n/a	n/a	n/a
2276945	PROB	n/a	LTP096	ltpFR	13	n/a	n/a	n/a	n/a	n/a	n/a	n/a	12	5	3	4	n/a	n/a	n/a	n/a	n/a
2278848	STOP	n/a	LTP096	ltpFR	13	n/a	n/a	n/a	n/a	n/a	n/a	n/a	n/a	n/a	n/a	n/a	n/a	n/a	n/a	n/a	n/a
2281116	WORD	wordpools/wasnorm_wordpool.txt	LTP096	ltpFR	13	8	1	LASH	802	n/a	n/a	0	n/a	0	0	0	0.57763671875	0.412841796875	1	upper	amplitud.ttf
2284121	START	n/a	LTP096	ltpFR	13	n/a	n/a	n/a	n/a	n/a	n/a	n/a	n/a	n/a	n/a	n/a	n/a	n/a	n/a	n/a	n/a
2285053	PROB	n/a	LTP096	ltpFR	13	n/a	n/a	n/a	n/a	n/a	n/a	n/a	8	1	6	1	n/a	n/a	n/a	n/a	n/a
2286758	PROB	n/a	LTP096	ltpFR	13	n/a	n/a	n/a	n/a	n/a	n/a	n/a	16	3	6	7	n/a	n/a	n/a	n/a	n/a
2288656	PROB	n/a	LTP096	ltpFR	13	n/a	n/a	n/a	n/a	n/a	n/a	n/a	14	4	7	3	n/a	n/a	n/a	n/a	n/a
2295250	PROB	n/a	LTP096	ltpFR	13	n/a	n/a	n/a	n/a	n/a	n/a	n/a	5	3	1	1	n/a	n/a	n/a	n/a	n/a
2296265	PROB	n/a	LTP096	ltpFR	13	n/a	n/a	n/a	n/a	n/a	n/a	n/a	11	4	2	5	n/a	n/a	n/a	n/a	n/a
2298736	STOP	n/a	LTP096	ltpFR	13	n/a	n/a	n/a	n/a	n/a	n/a	n/a	n/a	n/a	n/a	n/a	n/a	n/a	n/a	n/a	n/a
2301883	REC_START	n/a	LTP096	ltpFR	13	8	n/a	n/a	n/a	n/a	n/a	n/a	n/a	0	0	0	n/a	n/a	n/a	n/a	n/a
2303071	REC_WORD	wordpools/wasnorm_wordpool.txt	LTP096	ltpFR	13	8	1	LASH	802	n/a	n/a	0	n/a	0	0	0	n/a	n/a	n/a	n/a	n/a
2303850	REC_WORD	wordpools/wasnorm_wordpool.txt	LTP096	ltpFR	13	8	1	SHORTS	1293	n/a	n/a	1	n/a	0	0	0	n/a	n/a	n/a	n/a	n/a
2306946	REC_WORD	wordpools/wasnorm_wordpool.txt	LTP096	ltpFR	13	8	1	SHIRT	1287	n/a	n/a	0	n/a	0	0	0	n/a	n/a	n/a	n/a	n/a
2308248	REC_WORD	wordpools/wasnorm_wordpool.txt	LTP096	ltpFR	13	8	1	ESCALATOR	539	n/a	n/a	n/a	n/a	0	0	0	n/a	n/a	n/a	n/a	n/a
2309161	REC_WORD	wordpools/wasnorm_wordpool.txt	LTP096	ltpFR	13	8	1	GUARD	667	n/a	n/a	1	n/a	0	0	0	n/a	n/a	n/a	n/a	n/a
2310179	REC_WORD	wordpools/wasnorm_wordpool.txt	LTP096	ltpFR	13	8	1	BAND	78	n/a	n/a	0	n/a	0	0	0	n/a	n/a	n/a	n/a	n/a
2312105	REC_WORD	wordpools/wasnorm_wordpool.txt	LTP096	ltpFR	13	8	1	BALCONY	72	n/a	n/a	n/a	n/a	0	0	0	n/a	n/a	n/a	n/a	n/a
2312732	REC_WORD	wordpools/wasnorm_wordpool.txt	LTP096	ltpFR	13	8	1	TECHNICIAN	1443	n/a	n/a	n/a	n/a	0	0	0	n/a	n/a	n/a	n/a	n/a
2315971	REC_WORD	wordpools/wasnorm_wordpool.txt	LTP096	ltpFR	13	8	1	JOKER	759	n/a	n/a	1	n/a	0	0	0	n/a	n/a	n/a	n/a	n/a
2316834	REC_WORD	wordpools/wasnorm_wordpool.txt	LTP096	ltpFR	13	8	1	FLY	586	n/a	n/a	1	n/a	0	0	0	n/a	n/a	n/a	n/a	n/a
2522834	WORD	wordpools/wasnorm_wordpool.txt	LTP096	ltpFR	13	9	1	SHARK	1275	n/a	n/a	1	n/a	0	0	0	0.57763671875	0.412841796875	1	upper	amplitud.ttf
2526796	WORD	wordpools/wasnorm_wordpool.txt	LTP096	ltpFR	13	9	1	POND	1101	n/a	n/a	0	n/a	0	0	0	0.57763671875	0.412841796875	1	upper	amplitud.ttf
2530791	WORD	wordpools/wasnorm_wordpool.txt	LTP096	ltpFR	13	9	1	SCREW	1254	n/a	n/a	0	n/a	0	0	0	0.57763671875	0.412841796875	1	upper	amplitud.ttf
2534987	WORD	wordpools/wasnorm_wordpool.txt	LTP096	ltpFR	13	9	1	SPOOL	1356	n/a	n/a	0	n/a	0	0	0	0.57763671875	0.412841796875	1	upper	amplitud.ttf
2539075	WORD	wordpools/wasnorm_wordpool.txt	LTP096	ltpFR	13	9	1	RIFLE	1192	n/a	n/a	0	n/a	0	0	0	0.57763671875	0.412841796875	1	upper	amplitud.ttf
2543037	WORD	wordpools/wasnorm_wordpool.txt	LTP096	ltpFR	13	9	1	COBWEB	337	n/a	n/a	0	n/a	0	0	0	0.57763671875	0.412841796875	1	upper	amplitud.ttf
2546865	WORD	wordpools/wasnorm_wordpool.txt	LTP096	ltpFR	13	9	1	STAGE	1366	n/a	n/a	1	n/a	0	0	0	0.57763671875	0.412841796875	1	upper	amplitud.ttf
2550985	WORD	wordpools/wasnorm_wordpool.txt	LTP096	ltpFR	13	9	1	HAMMER	680	n/a	n/a	0	n/a	0	0	0	0.57763671875	0.412841796875	1	upper	amplitud.ttf
2555022	WORD	wordpools/wasnorm_wordpool.txt	LTP096	ltpFR	13	9	1	THUMB	1462	n/a	n/a	0	n/a	0	0	0	0.57763671875	0.412841796875	1	upper	amplitud.ttf
2558959	WORD	wordpools/wasnorm_wordpool.txt	LTP096	ltpFR	13	9	1	BUTLER	204	n/a	n/a	1	n/a	0	0	0	0.57763671875	0.412841796875	1	upper	amplitud.ttf
2562879	WORD	wordpools/wasnorm_wordpool.txt	LTP096	ltpFR	13	9	1	SUPPER	1411	n/a	n/a	0	n/a	0	0	0	0.57763671875	0.412841796875	1	upper	amplitud.ttf
2566708	WORD	wordpools/wasnorm_wordpool.txt	LTP096	ltpFR	13	9	1	CAFETERIA	217	n/a	n/a	0	n/a	0	0	0	0.57763671875	0.412841796875	1	upper	amplitud.ttf
2570662	WORD	wordpools/wasnorm_wordpool.txt	LTP096	ltpFR	13	9	1	FLOWER	584	n/a	n/a	0	n/a	0	0	0	0.57763671875	0.412841796875	1	upper	amplitud.ttf
2574591	WORD	wordpools/wasnorm_wordpool.txt	LTP096	ltpFR	13	9	1	MULE	931	n/a	n/a	1	n/a	0	0	0	0.57763671875	0.412841796875	1	upper	amplitud.ttf
2578694	WORD	wordpools/wasnorm_wordpool.txt	LTP096	ltpFR	13	9	1	HORSE	719	n/a	n/a	1	n/a	0	0	0	0.57763671875	0.412841796875	1	upper	amplitud.ttf
2582665	WORD	wordpools/wasnorm_wordpool.txt	LTP096	ltpFR	13	9	1	WAITRESS	1581	n/a	n/a	1	n/a	0	0	0	0.57763671875	0.412841796875	1	upper	amplitud.ttf
2585670	START	n/a	LTP096	ltpFR	13	n/a	n/a	n/a	n/a	n/a	n/a	n/a	n/a	n/a	n/a	n/a	n/a	n/a	n/a	n/a	n/a
2586610	PROB	n/a	LTP096	ltpFR	13	n/a	n/a	n/a	n/a	n/a	n/a	n/a	17	4	9	4	n/a	n/a	n/a	n/a	n/a
2593670	STOP	n/a	LTP096	ltpFR	13	n/a	n/a	n/a	n/a	n/a	n/a	n/a	n/a	n/a	n/a	n/a	n/a	n/a	n/a	n/a	n/a
2595542	REC_START	n/a	LTP096	ltpFR	13	9	n/a	n/a	n/a	n/a	n/a	n/a	n/a	0	0	0	n/a	n/a	n/a	n/a	n/a
2596664	REC_WORD	wordpools/wasnorm_wordpool.txt	LTP096	ltpFR	13	9	1	WAITRESS	1581	n/a	n/a	1	n/a	0	0	0	n/a	n/a	n/a	n/a	n/a
2598350	REC_WORD	wordpools/wasnorm_wordpool.txt	LTP096	ltpFR	13	9	1	MULE	931	n/a	n/a	1	n/a	0	0	0	n/a	n/a	n/a	n/a	n/a
2598889	REC_WORD	wordpools/wasnorm_wordpool.txt	LTP096	ltpFR	13	9	1	HORSE	719	n/a	n/a	1	n/a	0	0	0	n/a	n/a	n/a	n/a	n/a
2600126	REC_WORD	wordpools/wasnorm_wordpool.txt	LTP096	ltpFR	13	9	1	FLOWER	584	n/a	n/a	0	n/a	0	0	0	n/a	n/a	n/a	n/a	n/a
2601658	REC_WORD	wordpools/wasnorm_wordpool.txt	LTP096	ltpFR	13	9	1	CAFETERIA	217	n/a	n/a	0	n/a	0	0	0	n/a	n/a	n/a	n/a	n/a
2603978	REC_WORD	wordpools/wasnorm_wordpool.txt	LTP096	ltpFR	13	9	1	BUTLER	204	n/a	n/a	1	n/a	0	0	0	n/a	n/a	n/a	n/a	n/a
2605883	REC_WORD	wordpools/wasnorm_wordpool.txt	LTP096	ltpFR	13	9	1	HAMMER	680	n/a	n/a	0	n/a	0	0	0	n/a	n/a	n/a	n/a	n/a
2607081	REC_WORD	wordpools/wasnorm_wordpool.txt	LTP096	ltpFR	13	9	1	RIFLE	1192	n/a	n/a	0	n/a	0	0	0	n/a	n/a	n/a	n/a	n/a
2608906	REC_WORD	wordpools/wasnorm_wordpool.txt	LTP096	ltpFR	13	9	1	SPOOL	1356	n/a	n/a	0	n/a	0	0	0	n/a	n/a	n/a	n/a	n/a
2610223	REC_WORD	wordpools/wasnorm_wordpool.txt	LTP096	ltpFR	13	9	1	POND	1101	n/a	n/a	0	n/a	0	0	0	n/a	n/a	n/a	n/a	n/a
2612448	REC_WORD	wordpools/wasnorm_wordpool.txt	LTP096	ltpFR	13	9	1	SCREW	1254	n/a	n/a	0	n/a	0	0	0	n/a	n/a	n/a	n/a	n/a
2692346	START	n/a	LTP096	ltpFR	13	n/a	n/a	n/a	n/a	n/a	n/a	n/a	n/a	n/a	n/a	n/a	n/a	n/a	n/a	n/a	n/a
2693852	PROB	n/a	LTP096	ltpFR	13	n/a	n/a	n/a	n/a	n/a	n/a	n/a	18	7	8	3	n/a	n/a	n/a	n/a	n/a
2695509	PROB	n/a	LTP096	ltpFR	13	n/a	n/a	n/a	n/a	n/a	n/a	n/a	12	1	9	2	n/a	n/a	n/a	n/a	n/a
2697133	PROB	n/a	LTP096	ltpFR	13	n/a	n/a	n/a	n/a	n/a	n/a	n/a	7	1	4	2	n/a	n/a	n/a	n/a	n/a
2698888	STOP	n/a	LTP096	ltpFR	13	n/a	n/a	n/a	n/a	n/a	n/a	n/a	n/a	n/a	n/a	n/a	n/a	n/a	n/a	n/a	n/a
2701535	WORD	wordpools/wasnorm_wordpool.txt	LTP096	ltpFR	13	10	1	PUDDLE	1140	n/a	n/a	0	n/a	0	0	0	0.57763671875	0.412841796875	1	upper	amplitud.ttf
2704540	START	n/a	LTP096	ltpFR	13	n/a	n/a	n/a	n/a	n/a	n/a	n/a	n/a	n/a	n/a	n/a	n/a	n/a	n/a	n/a	n/a
2705663	PROB	n/a	LTP096	ltpFR	13	n/a	n/a	n/a	n/a	n/a	n/a	n/a	20	9	4	7	n/a	n/a	n/a	n/a	n/a
2712540	STOP	n/a	LTP096	ltpFR	13	n/a	n/a	n/a	n/a	n/a	n/a	n/a	n/a	n/a	n/a	n/a	n/a	n/a	n/a	n/a	n/a
2713671	WORD	wordpools/wasnorm_wordpool.txt	LTP096	ltpFR	13	10	1	GANG	619	n/a	n/a	1	n/a	0	0	0	0.57763671875	0.412841796875	1	upper	amplitud.ttf
2716676	START	n/a	LTP096	ltpFR	13	n/a	n/a	n/a	n/a	n/a	n/a	n/a	n/a	n/a	n/a	n/a	n/a	n/a	n/a	n/a	n/a
2717716	PROB	n/a	LTP096	ltpFR	13	n/a	n/a	n/a	n/a	n/a	n/a	n/a	17	8	4	5	n/a	n/a	n/a	n/a	n/a
2724676	STOP	n/a	LTP096	ltpFR	13	n/a	n/a	n/a	n/a	n/a	n/a	n/a	n/a	n/a	n/a	n/a	n/a	n/a	n/a	n/a	n/a
2725657	WORD	wordpools/wasnorm_wordpool.txt	LTP096	ltpFR	13	10	1	PORCUPINE	1107	n/a	n/a	1	n/a	0	0	0	0.57763671875	0.412841796875	1	upper	amplitud.ttf
2728662	START	n/a	LTP096	ltpFR	13	n/a	n/a	n/a	n/a	n/a	n/a	n/a	n/a	n/a	n/a	n/a	n/a	n/a	n/a	n/a	n/a
2729785	PROB	n/a	LTP096	ltpFR	13	n/a	n/a	n/a	n/a	n/a	n/a	n/a	6	4	1	1	n/a	n/a	n/a	n/a	n/a
2731633	PROB	n/a	LTP096	ltpFR	13	n/a	n/a	n/a	n/a	n/a	n/a	n/a	11	9	1	1	n/a	n/a	n/a	n/a	n/a
2736661	STOP	n/a	LTP096	ltpFR	13	n/a	n/a	n/a	n/a	n/a	n/a	n/a	n/a	n/a	n/a	n/a	n/a	n/a	n/a	n/a	n/a
2737635	WORD	wordpools/wasnorm_wordpool.txt	LTP096	ltpFR	13	10	1	WARRIOR	1589	n/a	n/a	1	n/a	0	0	0	0.57763671875	0.412841796875	1	upper	amplitud.ttf
2740640	START	n/a	LTP096	ltpFR	13	n/a	n/a	n/a	n/a	n/a	n/a	n/a	n/a	n/a	n/a	n/a	n/a	n/a	n/a	n/a	n/a
2741630	PROB	n/a	LTP096	ltpFR	13	n/a	n/a	n/a	n/a	n/a	n/a	n/a	16	4	8	4	n/a	n/a	n/a	n/a	n/a
2743819	PROB	n/a	LTP096	ltpFR	13	n/a	n/a	n/a	n/a	n/a	n/a	n/a	22	8	6	8	n/a	n/a	n/a	n/a	n/a
2746891	PROB	n/a	LTP096	ltpFR	13	n/a	n/a	n/a	n/a	n/a	n/a	n/a	11	9	1	1	n/a	n/a	n/a	n/a	n/a
2748432	STOP	n/a	LTP096	ltpFR	13	n/a	n/a	n/a	n/a	n/a	n/a	n/a	n/a	n/a	n/a	n/a	n/a	n/a	n/a	n/a	n/a
2749562	WORD	wordpools/wasnorm_wordpool.txt	LTP096	ltpFR	13	10	1	COWARD	394	n/a	n/a	0	n/a	0	0	0	0.57763671875	0.412841796875	1	upper	amplitud.ttf
2752568	START	n/a	LTP096	ltpFR	13	n/a	n/a	n/a	n/a	n/a	n/a	n/a	n/a	n/a	n/a	n/a	n/a	n/a	n/a	n/a	n/a
2753733	PROB	n/a	LTP096	ltpFR	13	n/a	n/a	n/a	n/a	n/a	n/a	n/a	16	9	1	6	n/a	n/a	n/a	n/a	n/a
2756329	PROB	n/a	LTP096	ltpFR	13	n/a	n/a	n/a	n/a	n/a	n/a	n/a	8	1	4	3	n/a	n/a	n/a	n/a	n/a
2760568	STOP	n/a	LTP096	ltpFR	13	n/a	n/a	n/a	n/a	n/a	n/a	n/a	n/a	n/a	n/a	n/a	n/a	n/a	n/a	n/a	n/a
2761690	WORD	wordpools/wasnorm_wordpool.txt	LTP096	ltpFR	13	10	1	STORE	1387	n/a	n/a	1	n/a	0	0	0	0.57763671875	0.412841796875	1	upper	amplitud.ttf
2764695	START	n/a	LTP096	ltpFR	13	n/a	n/a	n/a	n/a	n/a	n/a	n/a	n/a	n/a	n/a	n/a	n/a	n/a	n/a	n/a	n/a
2765685	PROB	n/a	LTP096	ltpFR	13	n/a	n/a	n/a	n/a	n/a	n/a	n/a	13	5	7	1	n/a	n/a	n/a	n/a	n/a
2768233	PROB	n/a	LTP096	ltpFR	13	n/a	n/a	n/a	n/a	n/a	n/a	n/a	19	9	5	5	n/a	n/a	n/a	n/a	n/a
2772694	STOP	n/a	LTP096	ltpFR	13	n/a	n/a	n/a	n/a	n/a	n/a	n/a	n/a	n/a	n/a	n/a	n/a	n/a	n/a	n/a	n/a
2773901	WORD	wordpools/wasnorm_wordpool.txt	LTP096	ltpFR	13	10	1	DEPARTMENT	449	n/a	n/a	0	n/a	0	0	0	0.57763671875	0.412841796875	1	upper	amplitud.ttf
2776906	START	n/a	LTP096	ltpFR	13	n/a	n/a	n/a	n/a	n/a	n/a	n/a	n/a	n/a	n/a	n/a	n/a	n/a	n/a	n/a	n/a
2777755	PROB	n/a	LTP096	ltpFR	13	n/a	n/a	n/a	n/a	n/a	n/a	n/a	19	6	9	4	n/a	n/a	n/a	n/a	n/a
2779819	PROB	n/a	LTP096	ltpFR	13	n/a	n/a	n/a	n/a	n/a	n/a	n/a	16	7	2	7	n/a	n/a	n/a	n/a	n/a
2782857	PROB	n/a	LTP096	ltpFR	13	n/a	n/a	n/a	n/a	n/a	n/a	n/a	12	1	2	9	n/a	n/a	n/a	n/a	n/a
2784400	STOP	n/a	LTP096	ltpFR	13	n/a	n/a	n/a	n/a	n/a	n/a	n/a	n/a	n/a	n/a	n/a	n/a	n/a	n/a	n/a	n/a
2785937	WORD	wordpools/wasnorm_wordpool.txt	LTP096	ltpFR	13	10	1	BATH	98	n/a	n/a	0	n/a	0	0	0	0.57763671875	0.412841796875	1	upper	amplitud.ttf
2788942	START	n/a	LTP096	ltpFR	13	n/a	n/a	n/a	n/a	n/a	n/a	n/a	n/a	n/a	n/a	n/a	n/a	n/a	n/a	n/a	n/a
2790083	PROB	n/a	LTP096	ltpFR	13	n/a	n/a	n/a	n/a	n/a	n/a	n/a	19	1	9	9	n/a	n/a	n/a	n/a	n/a
2791963	PROB	n/a	LTP096	ltpFR	13	n/a	n/a	n/a	n/a	n/a	n/a	n/a	14	6	5	3	n/a	n/a	n/a	n/a	n/a
2794278	PROB	n/a	LTP096	ltpFR	13	n/a	n/a	n/a	n/a	n/a	n/a	n/a	13	6	4	3	n/a	n/a	n/a	n/a	n/a
2795992	STOP	n/a	LTP096	ltpFR	13	n/a	n/a	n/a	n/a	n/a	n/a	n/a	n/a	n/a	n/a	n/a	n/a	n/a	n/a	n/a	n/a
2797931	WORD	wordpools/wasnorm_wordpool.txt	LTP096	ltpFR	13	10	1	FIREMAN	569	n/a	n/a	1	n/a	0	0	0	0.57763671875	0.412841796875	1	upper	amplitud.ttf
2800937	START	n/a	LTP096	ltpFR	13	n/a	n/a	n/a	n/a	n/a	n/a	n/a	n/a	n/a	n/a	n/a	n/a	n/a	n/a	n/a	n/a
2802119	PROB	n/a	LTP096	ltpFR	13	n/a	n/a	n/a	n/a	n/a	n/a	n/a	16	8	4	4	n/a	n/a	n/a	n/a	n/a
2808936	STOP	n/a	LTP096	ltpFR	13	n/a	n/a	n/a	n/a	n/a	n/a	n/a	n/a	n/a	n/a	n/a	n/a	n/a	n/a	n/a	n/a
2810035	WORD	wordpools/wasnorm_wordpool.txt	LTP096	ltpFR	13	10	1	QUILT	1151	n/a	n/a	0	n/a	0	0	0	0.57763671875	0.412841796875	1	upper	amplitud.ttf
2813040	START	n/a	LTP096	ltpFR	13	n/a	n/a	n/a	n/a	n/a	n/a	n/a	n/a	n/a	n/a	n/a	n/a	n/a	n/a	n/a	n/a
2814213	PROB	n/a	LTP096	ltpFR	13	n/a	n/a	n/a	n/a	n/a	n/a	n/a	15	4	3	8	n/a	n/a	n/a	n/a	n/a
2821040	STOP	n/a	LTP096	ltpFR	13	n/a	n/a	n/a	n/a	n/a	n/a	n/a	n/a	n/a	n/a	n/a	n/a	n/a	n/a	n/a	n/a
2822028	WORD	wordpools/wasnorm_wordpool.txt	LTP096	ltpFR	13	10	1	PARENT	1013	n/a	n/a	1	n/a	0	0	0	0.57763671875	0.412841796875	1	upper	amplitud.ttf
2825035	START	n/a	LTP096	ltpFR	13	n/a	n/a	n/a	n/a	n/a	n/a	n/a	n/a	n/a	n/a	n/a	n/a	n/a	n/a	n/a	n/a
2825999	PROB	n/a	LTP096	ltpFR	13	n/a	n/a	n/a	n/a	n/a	n/a	n/a	12	5	2	5	n/a	n/a	n/a	n/a	n/a
2827655	PROB	n/a	LTP096	ltpFR	13	n/a	n/a	n/a	n/a	n/a	n/a	n/a	16	1	6	9	n/a	n/a	n/a	n/a	n/a
2829944	PROB	n/a	LTP096	ltpFR	13	n/a	n/a	n/a	n/a	n/a	n/a	n/a	9	5	2	2	n/a	n/a	n/a	n/a	n/a
2831235	PROB	n/a	LTP096	ltpFR	13	n/a	n/a	n/a	n/a	n/a	n/a	n/a	18	1	8	9	n/a	n/a	n/a	n/a	n/a
2832672	STOP	n/a	LTP096	ltpFR	13	n/a	n/a	n/a	n/a	n/a	n/a	n/a	n/a	n/a	n/a	n/a	n/a	n/a	n/a	n/a	n/a
2834123	WORD	wordpools/wasnorm_wordpool.txt	LTP096	ltpFR	13	10	1	TRENCH	1503	n/a	n/a	1	n/a	0	0	0	0.57763671875	0.412841796875	1	upper	amplitud.ttf
2837129	START	n/a	LTP096	ltpFR	13	n/a	n/a	n/a	n/a	n/a	n/a	n/a	n/a	n/a	n/a	n/a	n/a	n/a	n/a	n/a	n/a
2838227	PROB	n/a	LTP096	ltpFR	13	n/a	n/a	n/a	n/a	n/a	n/a	n/a	14	4	9	1	n/a	n/a	n/a	n/a	n/a
2841689	PROB	n/a	LTP096	ltpFR	13	n/a	n/a	n/a	n/a	n/a	n/a	n/a	15	9	1	5	n/a	n/a	n/a	n/a	n/a
2844696	STOP	n/a	LTP096	ltpFR	13	n/a	n/a	n/a	n/a	n/a	n/a	n/a	n/a	n/a	n/a	n/a	n/a	n/a	n/a	n/a	n/a
2846110	WORD	wordpools/wasnorm_wordpool.txt	LTP096	ltpFR	13	10	1	CRATER	400	n/a	n/a	0	n/a	0	0	0	0.57763671875	0.412841796875	1	upper	amplitud.ttf
2849115	START	n/a	LTP096	ltpFR	13	n/a	n/a	n/a	n/a	n/a	n/a	n/a	n/a	n/a	n/a	n/a	n/a	n/a	n/a	n/a	n/a
2850047	PROB	n/a	LTP096	ltpFR	13	n/a	n/a	n/a	n/a	n/a	n/a	n/a	17	6	8	3	n/a	n/a	n/a	n/a	n/a
2857114	STOP	n/a	LTP096	ltpFR	13	n/a	n/a	n/a	n/a	n/a	n/a	n/a	n/a	n/a	n/a	n/a	n/a	n/a	n/a	n/a	n/a
2858245	WORD	wordpools/wasnorm_wordpool.txt	LTP096	ltpFR	13	10	1	FAUCET	555	n/a	n/a	n/a	n/a	0	0	0	0.57763671875	0.412841796875	1	upper	amplitud.ttf
2861267	SLOW_MSG	n/a	LTP096	ltpFR	13	10	n/a	n/a	n/a	n/a	n/a	n/a	n/a	0	0	0	n/a	n/a	n/a	n/a	n/a
2862781	START	n/a	LTP096	ltpFR	13	n/a	n/a	n/a	n/a	n/a	n/a	n/a	n/a	n/a	n/a	n/a	n/a	n/a	n/a	n/a	n/a
2863838	PROB	n/a	LTP096	ltpFR	13	n/a	n/a	n/a	n/a	n/a	n/a	n/a	18	8	8	2	n/a	n/a	n/a	n/a	n/a
2867575	PROB	n/a	LTP096	ltpFR	13	n/a	n/a	n/a	n/a	n/a	n/a	n/a	13	6	2	5	n/a	n/a	n/a	n/a	n/a
2870408	STOP	n/a	LTP096	ltpFR	13	n/a	n/a	n/a	n/a	n/a	n/a	n/a	n/a	n/a	n/a	n/a	n/a	n/a	n/a	n/a	n/a
2871737	WORD	wordpools/wasnorm_wordpool.txt	LTP096	ltpFR	13	10	1	KEEPER	769	n/a	n/a	n/a	n/a	0	0	0	0.57763671875	0.412841796875	1	upper	amplitud.ttf
2874759	SLOW_MSG	n/a	LTP096	ltpFR	13	10	n/a	n/a	n/a	n/a	n/a	n/a	n/a	0	0	0	n/a	n/a	n/a	n/a	n/a
2876275	START	n/a	LTP096	ltpFR	13	n/a	n/a	n/a	n/a	n/a	n/a	n/a	n/a	n/a	n/a	n/a	n/a	n/a	n/a	n/a	n/a
2877298	PROB	n/a	LTP096	ltpFR	13	n/a	n/a	n/a	n/a	n/a	n/a	n/a	18	9	7	2	n/a	n/a	n/a	n/a	n/a
2880054	PROB	n/a	LTP096	ltpFR	13	n/a	n/a	n/a	n/a	n/a	n/a	n/a	10	1	5	4	n/a	n/a	n/a	n/a	n/a
2884275	STOP	n/a	LTP096	ltpFR	13	n/a	n/a	n/a	n/a	n/a	n/a	n/a	n/a	n/a	n/a	n/a	n/a	n/a	n/a	n/a	n/a
2885321	WORD	wordpools/wasnorm_wordpool.txt	LTP096	ltpFR	13	10	1	PROFESSOR	1131	n/a	n/a	1	n/a	0	0	0	0.57763671875	0.412841796875	1	upper	amplitud.ttf
2888326	START	n/a	LTP096	ltpFR	13	n/a	n/a	n/a	n/a	n/a	n/a	n/a	n/a	n/a	n/a	n/a	n/a	n/a	n/a	n/a	n/a
2889525	PROB	n/a	LTP096	ltpFR	13	n/a	n/a	n/a	n/a	n/a	n/a	n/a	17	6	3	8	n/a	n/a	n/a	n/a	n/a
2891805	PROB	n/a	LTP096	ltpFR	13	n/a	n/a	n/a	n/a	n/a	n/a	n/a	16	7	7	2	n/a	n/a	n/a	n/a	n/a
2896326	STOP	n/a	LTP096	ltpFR	13	n/a	n/a	n/a	n/a	n/a	n/a	n/a	n/a	n/a	n/a	n/a	n/a	n/a	n/a	n/a	n/a
2898133	REC_START	n/a	LTP096	ltpFR	13	10	n/a	n/a	n/a	n/a	n/a	n/a	n/a	0	0	0	n/a	n/a	n/a	n/a	n/a
2899395	REC_WORD	wordpools/wasnorm_wordpool.txt	LTP096	ltpFR	13	10	1	PROFESSOR	1131	n/a	n/a	1	n/a	0	0	0	n/a	n/a	n/a	n/a	n/a
2901500	REC_WORD	wordpools/wasnorm_wordpool.txt	LTP096	ltpFR	13	10	1	POND	1101	n/a	n/a	0	n/a	0	0	0	n/a	n/a	n/a	n/a	n/a
2904254	REC_WORD	wordpools/wasnorm_wordpool.txt	LTP096	ltpFR	13	10	1	WARRIOR	1589	n/a	n/a	1	n/a	0	0	0	n/a	n/a	n/a	n/a	n/a
2912595	REC_WORD_VV	wordpools/wasnorm_wordpool.txt	LTP096	ltpFR	13	10	n/a	<>	-1	n/a	n/a	n/a	n/a	0	0	0	n/a	n/a	n/a	n/a	n/a
2913224	REC_WORD	wordpools/wasnorm_wordpool.txt	LTP096	ltpFR	13	10	1	PUDDLE	1140	n/a	n/a	0	n/a	0	0	0	n/a	n/a	n/a	n/a	n/a
2914840	REC_WORD	wordpools/wasnorm_wordpool.txt	LTP096	ltpFR	13	10	1	WARRIOR	1589	n/a	n/a	1	n/a	0	0	0	n/a	n/a	n/a	n/a	n/a
2923809	REC_WORD	wordpools/wasnorm_wordpool.txt	LTP096	ltpFR	13	10	1	PARENT	1013	n/a	n/a	1	n/a	0	0	0	n/a	n/a	n/a	n/a	n/a
2925126	REC_WORD	wordpools/wasnorm_wordpool.txt	LTP096	ltpFR	13	10	1	QUILT	1151	n/a	n/a	0	n/a	0	0	0	n/a	n/a	n/a	n/a	n/a
2973719	REST_REWET	n/a	LTP096	ltpFR	13	10	n/a	n/a	n/a	n/a	n/a	n/a	n/a	0	0	0	n/a	n/a	n/a	n/a	n/a
3238569	WORD	wordpools/wasnorm_wordpool.txt	LTP096	ltpFR	13	11	1	CRIMINAL	409	n/a	n/a	1	n/a	0	0	0	0.57763671875	0.412841796875	1	upper	amplitud.ttf
3242398	WORD	wordpools/wasnorm_wordpool.txt	LTP096	ltpFR	13	11	1	HAT	690	n/a	n/a	0	n/a	0	0	0	0.57763671875	0.412841796875	1	upper	amplitud.ttf
3246493	WORD	wordpools/wasnorm_wordpool.txt	LTP096	ltpFR	13	11	1	SCREEN	1253	n/a	n/a	0	n/a	0	0	0	0.57763671875	0.412841796875	1	upper	amplitud.ttf
3250381	WORD	wordpools/wasnorm_wordpool.txt	LTP096	ltpFR	13	11	1	PREDATOR	1120	n/a	n/a	1	n/a	0	0	0	0.57763671875	0.412841796875	1	upper	amplitud.ttf
3254492	WORD	wordpools/wasnorm_wordpool.txt	LTP096	ltpFR	13	11	0	MONUMENT	913	n/a	n/a	0	n/a	0	0	0	0.422607421875	0.5869140625	0	lower	zerothre.ttf
3258554	WORD	wordpools/wasnorm_wordpool.txt	LTP096	ltpFR	13	11	0	MARBLE	867	n/a	n/a	0	n/a	0	0	0	0.422607421875	0.5869140625	0	lower	zerothre.ttf
3262500	WORD	wordpools/wasnorm_wordpool.txt	LTP096	ltpFR	13	11	0	BEE	112	n/a	n/a	0	n/a	0	0	0	0.422607421875	0.5869140625	0	lower	zerothre.ttf
3266503	WORD	wordpools/wasnorm_wordpool.txt	LTP096	ltpFR	13	11	0	TOAST	1471	n/a	n/a	0	n/a	0	0	0	0.422607421875	0.5869140625	0	lower	zerothre.ttf
3270457	WORD	wordpools/wasnorm_wordpool.txt	LTP096	ltpFR	13	11	0	MOVIE	927	n/a	n/a	1	n/a	0	0	0	0.422607421875	0.5869140625	0	lower	zerothre.ttf
3274403	WORD	wordpools/wasnorm_wordpool.txt	LTP096	ltpFR	13	11	1	PRUNE	1134	n/a	n/a	0	n/a	0	0	0	0.57763671875	0.412841796875	1	upper	amplitud.ttf
3278373	WORD	wordpools/wasnorm_wordpool.txt	LTP096	ltpFR	13	11	1	VINE	1568	n/a	n/a	0	n/a	0	0	0	0.57763671875	0.412841796875	1	upper	amplitud.ttf
3282186	WORD	wordpools/wasnorm_wordpool.txt	LTP096	ltpFR	13	11	0	PANTHER	1009	n/a	n/a	n/a	n/a	0	0	0	0.422607421875	0.5869140625	0	lower	zerothre.ttf
3285208	SLOW_MSG	n/a	LTP096	ltpFR	13	11	n/a	n/a	n/a	n/a	n/a	n/a	n/a	0	0	0	n/a	n/a	n/a	n/a	n/a
3287671	WORD	wordpools/wasnorm_wordpool.txt	LTP096	ltpFR	13	11	0	HAIL	676	n/a	n/a	1	n/a	0	0	0	0.422607421875	0.5869140625	0	lower	zerothre.ttf
3291641	WORD	wordpools/wasnorm_wordpool.txt	LTP096	ltpFR	13	11	0	CHEST	295	n/a	n/a	1	n/a	0	0	0	0.422607421875	0.5869140625	0	lower	zerothre.ttf
3295745	WORD	wordpools/wasnorm_wordpool.txt	LTP096	ltpFR	13	11	1	MOSS	918	n/a	n/a	1	n/a	0	0	0	0.57763671875	0.412841796875	1	upper	amplitud.ttf
3299648	WORD	wordpools/wasnorm_wordpool.txt	LTP096	ltpFR	13	11	1	HAMMOCK	681	n/a	n/a	1	n/a	0	0	0	0.57763671875	0.412841796875	1	upper	amplitud.ttf
3302653	START	n/a	LTP096	ltpFR	13	n/a	n/a	n/a	n/a	n/a	n/a	n/a	n/a	n/a	n/a	n/a	n/a	n/a	n/a	n/a	n/a
3303577	PROB	n/a	LTP096	ltpFR	13	n/a	n/a	n/a	n/a	n/a	n/a	n/a	14	9	4	1	n/a	n/a	n/a	n/a	n/a
3305325	PROB	n/a	LTP096	ltpFR	13	n/a	n/a	n/a	n/a	n/a	n/a	n/a	8	1	1	6	n/a	n/a	n/a	n/a	n/a
3306815	PROB	n/a	LTP096	ltpFR	13	n/a	n/a	n/a	n/a	n/a	n/a	n/a	6	1	3	2	n/a	n/a	n/a	n/a	n/a
3309545	PROB	n/a	LTP096	ltpFR	13	n/a	n/a	n/a	n/a	n/a	n/a	n/a	10	1	5	4	n/a	n/a	n/a	n/a	n/a
3311376	PROB	n/a	LTP096	ltpFR	13	n/a	n/a	n/a	n/a	n/a	n/a	n/a	19	9	8	2	n/a	n/a	n/a	n/a	n/a
3313549	PROB	n/a	LTP096	ltpFR	13	n/a	n/a	n/a	n/a	n/a	n/a	n/a	14	6	3	5	n/a	n/a	n/a	n/a	n/a
3315497	PROB	n/a	LTP096	ltpFR	13	n/a	n/a	n/a	n/a	n/a	n/a	n/a	12	9	2	1	n/a	n/a	n/a	n/a	n/a
3318652	STOP	n/a	LTP096	ltpFR	13	n/a	n/a	n/a	n/a	n/a	n/a	n/a	n/a	n/a	n/a	n/a	n/a	n/a	n/a	n/a	n/a
3320516	REC_START	n/a	LTP096	ltpFR	13	11	n/a	n/a	n/a	n/a	n/a	n/a	n/a	0	0	0	n/a	n/a	n/a	n/a	n/a
3321778	REC_WORD	wordpools/wasnorm_wordpool.txt	LTP096	ltpFR	13	11	1	HAMMOCK	681	n/a	n/a	1	n/a	0	0	0	n/a	n/a	n/a	n/a	n/a
3322781	REC_WORD	wordpools/wasnorm_wordpool.txt	LTP096	ltpFR	13	11	1	MOSS	918	n/a	n/a	1	n/a	0	0	0	n/a	n/a	n/a	n/a	n/a
3323758	REC_WORD	wordpools/wasnorm_wordpool.txt	LTP096	ltpFR	13	11	0	CHEST	295	n/a	n/a	1	n/a	0	0	0	n/a	n/a	n/a	n/a	n/a
3324951	REC_WORD	wordpools/wasnorm_wordpool.txt	LTP096	ltpFR	13	11	0	PANTHER	1009	n/a	n/a	n/a	n/a	0	0	0	n/a	n/a	n/a	n/a	n/a
3338570	REC_WORD	wordpools/wasnorm_wordpool.txt	LTP096	ltpFR	13	11	1	CRIMINAL	409	n/a	n/a	1	n/a	0	0	0	n/a	n/a	n/a	n/a	n/a
3339717	REC_WORD	wordpools/wasnorm_wordpool.txt	LTP096	ltpFR	13	11	1	HAT	690	n/a	n/a	0	n/a	0	0	0	n/a	n/a	n/a	n/a	n/a
3340855	REC_WORD	wordpools/wasnorm_wordpool.txt	LTP096	ltpFR	13	11	1	PREDATOR	1120	n/a	n/a	1	n/a	0	0	0	n/a	n/a	n/a	n/a	n/a
3342531	REC_WORD	wordpools/wasnorm_wordpool.txt	LTP096	ltpFR	13	11	0	MOVIE	927	n/a	n/a	1	n/a	0	0	0	n/a	n/a	n/a	n/a	n/a
3344277	REC_WORD	wordpools/wasnorm_wordpool.txt	LTP096	ltpFR	13	11	0	MARBLE	867	n/a	n/a	0	n/a	0	0	0	n/a	n/a	n/a	n/a	n/a
3346602	REC_WORD	wordpools/wasnorm_wordpool.txt	LTP096	ltpFR	13	11	0	MONUMENT	913	n/a	n/a	0	n/a	0	0	0	n/a	n/a	n/a	n/a	n/a
3350178	REC_WORD	wordpools/wasnorm_wordpool.txt	LTP096	ltpFR	13	11	0	BEE	112	n/a	n/a	0	n/a	0	0	0	n/a	n/a	n/a	n/a	n/a
3410453	WORD	wordpools/wasnorm_wordpool.txt	LTP096	ltpFR	13	12	0	FRIAR	605	n/a	n/a	0	n/a	0	0	0	0.422607421875	0.5869140625	0	lower	zerothre.ttf
3414457	WORD	wordpools/wasnorm_wordpool.txt	LTP096	ltpFR	13	12	0	NUN	962	n/a	n/a	0	n/a	0	0	0	0.422607421875	0.5869140625	0	lower	zerothre.ttf
3418419	WORD	wordpools/wasnorm_wordpool.txt	LTP096	ltpFR	13	12	0	INCENSE	735	n/a	n/a	0	n/a	0	0	0	0.422607421875	0.5869140625	0	lower	zerothre.ttf
3422497	WORD	wordpools/wasnorm_wordpool.txt	LTP096	ltpFR	13	12	0	SKUNK	1321	n/a	n/a	1	n/a	0	0	0	0.422607421875	0.5869140625	0	lower	zerothre.ttf
3426684	WORD	wordpools/wasnorm_wordpool.txt	LTP096	ltpFR	13	12	0	CLIPPERS	324	n/a	n/a	0	n/a	0	0	0	0.422607421875	0.5869140625	0	lower	zerothre.ttf
3430829	WORD	wordpools/wasnorm_wordpool.txt	LTP096	ltpFR	13	12	1	SALOON	1228	n/a	n/a	3	n/a	0	0	0	0.57763671875	0.412841796875	1	upper	amplitud.ttf
3433061	KEY_MSG	n/a	LTP096	ltpFR	13	12	n/a	n/a	n/a	n/a	n/a	n/a	n/a	0	0	0	n/a	n/a	n/a	n/a	n/a
3435574	WORD	wordpools/wasnorm_wordpool.txt	LTP096	ltpFR	13	12	1	RACK	1154	n/a	n/a	0	n/a	0	0	0	0.57763671875	0.412841796875	1	upper	amplitud.ttf
3439611	WORD	wordpools/wasnorm_wordpool.txt	LTP096	ltpFR	13	12	1	MOUSE	925	n/a	n/a	1	n/a	0	0	0	0.57763671875	0.412841796875	1	upper	amplitud.ttf
3443440	WORD	wordpools/wasnorm_wordpool.txt	LTP096	ltpFR	13	12	0	POLE	1097	n/a	n/a	0	n/a	0	0	0	0.422607421875	0.5869140625	0	lower	zerothre.ttf
3447286	WORD	wordpools/wasnorm_wordpool.txt	LTP096	ltpFR	13	12	0	DESIGNER	451	n/a	n/a	0	n/a	0	0	0	0.422607421875	0.5869140625	0	lower	zerothre.ttf
3451290	WORD	wordpools/wasnorm_wordpool.txt	LTP096	ltpFR	13	12	0	CASTLE	256	n/a	n/a	1	n/a	0	0	0	0.422607421875	0.5869140625	0	lower	zerothre.ttf
3455451	WORD	wordpools/wasnorm_wordpool.txt	LTP096	ltpFR	13	12	1	TONGUE	1479	n/a	n/a	1	n/a	0	0	0	0.57763671875	0.412841796875	1	upper	amplitud.ttf
3459363	WORD	wordpools/wasnorm_wordpool.txt	LTP096	ltpFR	13	12	1	HAMBURGER	679	n/a	n/a	0	n/a	0	0	0	0.57763671875	0.412841796875	1	upper	amplitud.ttf
3463441	WORD	wordpools/wasnorm_wordpool.txt	LTP096	ltpFR	13	12	1	PALACE	1006	n/a	n/a	1	n/a	0	0	0	0.57763671875	0.412841796875	1	upper	amplitud.ttf
3467487	WORD	wordpools/wasnorm_wordpool.txt	LTP096	ltpFR	13	12	1	BRAIN	165	n/a	n/a	0	n/a	0	0	0	0.57763671875	0.412841796875	1	upper	amplitud.ttf
3471582	WORD	wordpools/wasnorm_wordpool.txt	LTP096	ltpFR	13	12	1	GROCERIES	663	n/a	n/a	0	n/a	0	0	0	0.57763671875	0.412841796875	1	upper	amplitud.ttf
3477439	REC_START	n/a	LTP096	ltpFR	13	12	n/a	n/a	n/a	n/a	n/a	n/a	n/a	0	0	0	n/a	n/a	n/a	n/a	n/a
3478272	REC_WORD	wordpools/wasnorm_wordpool.txt	LTP096	ltpFR	13	12	1	GROCERIES	663	n/a	n/a	0	n/a	0	0	0	n/a	n/a	n/a	n/a	n/a
3479968	REC_WORD	wordpools/wasnorm_wordpool.txt	LTP096	ltpFR	13	12	1	BRAIN	165	n/a	n/a	0	n/a	0	0	0	n/a	n/a	n/a	n/a	n/a
3481554	REC_WORD	wordpools/wasnorm_wordpool.txt	LTP096	ltpFR	13	12	1	TONGUE	1479	n/a	n/a	1	n/a	0	0	0	n/a	n/a	n/a	n/a	n/a
3483101	REC_WORD	wordpools/wasnorm_wordpool.txt	LTP096	ltpFR	13	12	0	CASTLE	256	n/a	n/a	1	n/a	0	0	0	n/a	n/a	n/a	n/a	n/a
3483779	REC_WORD	wordpools/wasnorm_wordpool.txt	LTP096	ltpFR	13	12	0	POLE	1097	n/a	n/a	0	n/a	0	0	0	n/a	n/a	n/a	n/a	n/a
3484657	REC_WORD	wordpools/wasnorm_wordpool.txt	LTP096	ltpFR	13	12	0	NUN	962	n/a	n/a	0	n/a	0	0	0	n/a	n/a	n/a	n/a	n/a
3485505	REC_WORD	wordpools/wasnorm_wordpool.txt	LTP096	ltpFR	13	12	1	MOUSE	925	n/a	n/a	1	n/a	0	0	0	n/a	n/a	n/a	n/a	n/a
3492245	REC_WORD	wordpools/wasnorm_wordpool.txt	LTP096	ltpFR	13	12	n/a	BUSH	202	n/a	n/a	n/a	n/a	0	0	0	n/a	n/a	n/a	n/a	n/a
3493986	REC_WORD	wordpools/wasnorm_wordpool.txt	LTP096	ltpFR	13	12	0	FRIAR	605	n/a	n/a	0	n/a	0	0	0	n/a	n/a	n/a	n/a	n/a
3495243	REC_WORD	wordpools/wasnorm_wordpool.txt	LTP096	ltpFR	13	12	0	NUN	962	n/a	n/a	0	n/a	0	0	0	n/a	n/a	n/a	n/a	n/a
3497094	REC_WORD	wordpools/wasnorm_wordpool.txt	LTP096	ltpFR	13	12	1	RACK	1154	n/a	n/a	0	n/a	0	0	0	n/a	n/a	n/a	n/a	n/a
3568894	REC_START	n/a	LTP096	ltpFR	13	n/a	n/a	n/a	n/a	n/a	n/a	n/a	n/a	0	0	0	n/a	n/a	n/a	n/a	n/a
3569448	FFR_REC_WORD	wordpools/wasnorm_wordpool.txt	LTP096	ltpFR	13	n/a	0	NUN	962	n/a	n/a	0	n/a	0	0	0	n/a	n/a	n/a	n/a	n/a
3570365	FFR_REC_WORD	wordpools/wasnorm_wordpool.txt	LTP096	ltpFR	13	n/a	0	FRIAR	605	n/a	n/a	0	n/a	0	0	0	n/a	n/a	n/a	n/a	n/a
3571782	FFR_REC_WORD	wordpools/wasnorm_wordpool.txt	LTP096	ltpFR	13	n/a	1	RACK	1154	n/a	n/a	0	n/a	0	0	0	n/a	n/a	n/a	n/a	n/a
3572680	FFR_REC_WORD	wordpools/wasnorm_wordpool.txt	LTP096	ltpFR	13	n/a	1	MOUSE	925	n/a	n/a	1	n/a	0	0	0	n/a	n/a	n/a	n/a	n/a
3576137	FFR_REC_WORD	wordpools/wasnorm_wordpool.txt	LTP096	ltpFR	13	n/a	0	POLE	1097	n/a	n/a	0	n/a	0	0	0	n/a	n/a	n/a	n/a	n/a
3577110	FFR_REC_WORD	wordpools/wasnorm_wordpool.txt	LTP096	ltpFR	13	n/a	0	CASTLE	256	n/a	n/a	1	n/a	0	0	0	n/a	n/a	n/a	n/a	n/a
3588794	FFR_REC_WORD	wordpools/wasnorm_wordpool.txt	LTP096	ltpFR	13	n/a	1	PARENT	1013	n/a	n/a	1	n/a	0	0	0	n/a	n/a	n/a	n/a	n/a
3589776	FFR_REC_WORD	wordpools/wasnorm_wordpool.txt	LTP096	ltpFR	13	n/a	1	QUILT	1151	n/a	n/a	0	n/a	0	0	0	n/a	n/a	n/a	n/a	n/a
3594151	FFR_REC_WORD	wordpools/wasnorm_wordpool.txt	LTP096	ltpFR	13	n/a	1	SPOOL	1356	n/a	n/a	0	n/a	0	0	0	n/a	n/a	n/a	n/a	n/a
3595279	FFR_REC_WORD	wordpools/wasnorm_wordpool.txt	LTP096	ltpFR	13	n/a	1	POND	1101	n/a	n/a	0	n/a	0	0	0	n/a	n/a	n/a	n/a	n/a
3596087	FFR_REC_WORD	wordpools/wasnorm_wordpool.txt	LTP096	ltpFR	13	n/a	1	SHARK	1275	n/a	n/a	1	n/a	0	0	0	n/a	n/a	n/a	n/a	n/a
3600726	FFR_REC_WORD	wordpools/wasnorm_wordpool.txt	LTP096	ltpFR	13	n/a	1	BUTLER	204	n/a	n/a	1	n/a	0	0	0	n/a	n/a	n/a	n/a	n/a
3603400	FFR_REC_WORD	wordpools/wasnorm_wordpool.txt	LTP096	ltpFR	13	n/a	1	CAFETERIA	217	n/a	n/a	0	n/a	0	0	0	n/a	n/a	n/a	n/a	n/a
3604817	FFR_REC_WORD	wordpools/wasnorm_wordpool.txt	LTP096	ltpFR	13	n/a	1	HAMMER	680	n/a	n/a	0	n/a	0	0	0	n/a	n/a	n/a	n/a	n/a
3605695	FFR_REC_WORD	wordpools/wasnorm_wordpool.txt	LTP096	ltpFR	13	n/a	1	RIFLE	1192	n/a	n/a	0	n/a	0	0	0	n/a	n/a	n/a	n/a	n/a
3873267	REC_START	n/a	LTP096	ltpFR	13	1	n/a	n/a	n/a	n/a	n/a	n/a	n/a	0	0	0	n/a	n/a	n/a	n/a	n/a
3873300	RECOG_LURE	n/a	LTP096	ltpFR	13	1	n/a	EARTH	515	0	1	n/a	n/a	0	0	0	n/a	n/a	n/a	n/a	n/a
3875326	RECOG_RESP	n/a	LTP096	ltpFR	13	1	n/a	EARTH	515	0	n/a	n/a	n/a	0	0	0	n/a	n/a	n/a	n/a	n/a
3876814	RECOG_CONF	n/a	LTP096	ltpFR	13	1	n/a	EARTH	515	n/a	1	n/a	n/a	0	0	0	n/a	n/a	n/a	n/a	n/a
3878476	RECOG_LURE	n/a	LTP096	ltpFR	13	1	n/a	ASSISTANT	48	1	1	n/a	n/a	0	0	0	n/a	n/a	n/a	n/a	n/a
3879577	RECOG_RESP	n/a	LTP096	ltpFR	13	1	n/a	ASSISTANT	48	1	n/a	n/a	n/a	0	0	0	n/a	n/a	n/a	n/a	n/a
3880200	RECOG_CONF	n/a	LTP096	ltpFR	13	1	n/a	ASSISTANT	48	n/a	1	n/a	n/a	0	0	0	n/a	n/a	n/a	n/a	n/a
3881539	RECOG_TARGET	n/a	LTP096	ltpFR	13	1	1	TWISTER	1530	1	4	0	n/a	0	0	0	n/a	n/a	n/a	n/a	n/a
3882351	RECOG_RESP_VV	n/a	LTP096	ltpFR	13	1	1	TWISTER	1530	0	n/a	0	n/a	0	0	0	n/a	n/a	n/a	n/a	n/a
3882659	RECOG_RESP	n/a	LTP096	ltpFR	13	1	1	TWISTER	1530	1	n/a	0	n/a	0	0	0	n/a	n/a	n/a	n/a	n/a
3883399	RECOG_CONF	n/a	LTP096	ltpFR	13	1	1	TWISTER	1530	n/a	4	0	n/a	0	0	0	n/a	n/a	n/a	n/a	n/a
3885002	RECOG_TARGET	n/a	LTP096	ltpFR	13	1	0	PIKE	1067	1	4	0	n/a	0	0	0	n/a	n/a	n/a	n/a	n/a
3885659	RECOG_RESP	n/a	LTP096	ltpFR	13	1	0	PIKE	1067	1	n/a	0	n/a	0	0	0	n/a	n/a	n/a	n/a	n/a
3886222	RECOG_CONF	n/a	LTP096	ltpFR	13	1	0	PIKE	1067	n/a	4	0	n/a	0	0	0	n/a	n/a	n/a	n/a	n/a
3887557	RECOG_TARGET	n/a	LTP096	ltpFR	13	1	1	HEAD	695	1	1	0	n/a	0	0	0	n/a	n/a	n/a	n/a	n/a
3888507	RECOG_RESP	n/a	LTP096	ltpFR	13	1	1	HEAD	695	1	n/a	0	n/a	0	0	0	n/a	n/a	n/a	n/a	n/a
3888966	RECOG_CONF	n/a	LTP096	ltpFR	13	1	1	HEAD	695	n/a	1	0	n/a	0	0	0	n/a	n/a	n/a	n/a	n/a
3890288	RECOG_TARGET	n/a	LTP096	ltpFR	13	1	1	WORM	1623	1	5	0	n/a	0	0	0	n/a	n/a	n/a	n/a	n/a
3891510	RECOG_RESP	n/a	LTP096	ltpFR	13	1	1	WORM	1623	1	n/a	0	n/a	0	0	0	n/a	n/a	n/a	n/a	n/a
3891924	RECOG_CONF	n/a	LTP096	ltpFR	13	1	1	WORM	1623	n/a	5	0	n/a	0	0	0	n/a	n/a	n/a	n/a	n/a
3893425	RECOG_LURE	n/a	LTP096	ltpFR	13	1	n/a	SOCIETY	1338	1	3	n/a	n/a	0	0	0	n/a	n/a	n/a	n/a	n/a
3894364	RECOG_RESP	n/a	LTP096	ltpFR	13	1	n/a	SOCIETY	1338	1	n/a	n/a	n/a	0	0	0	n/a	n/a	n/a	n/a	n/a
3901707	RECOG_CONF	n/a	LTP096	ltpFR	13	1	n/a	SOCIETY	1338	n/a	3	n/a	n/a	0	0	0	n/a	n/a	n/a	n/a	n/a
3903132	RECOG_TARGET	n/a	LTP096	ltpFR	13	1	0	PLUMBER	1091	1	4	0	n/a	0	0	0	n/a	n/a	n/a	n/a	n/a
3904218	RECOG_RESP	n/a	LTP096	ltpFR	13	1	0	PLUMBER	1091	1	n/a	0	n/a	0	0	0	n/a	n/a	n/a	n/a	n/a
3905057	RECOG_CONF	n/a	LTP096	ltpFR	13	1	0	PLUMBER	1091	n/a	4	0	n/a	0	0	0	n/a	n/a	n/a	n/a	n/a
3907052	RECOG_TARGET	n/a	LTP096	ltpFR	13	1	1	WAITRESS	1581	1	5	1	n/a	0	0	0	n/a	n/a	n/a	n/a	n/a
3907649	RECOG_RESP	n/a	LTP096	ltpFR	13	1	1	WAITRESS	1581	1	n/a	1	n/a	0	0	0	n/a	n/a	n/a	n/a	n/a
3908512	RECOG_CONF	n/a	LTP096	ltpFR	13	1	1	WAITRESS	1581	n/a	5	1	n/a	0	0	0	n/a	n/a	n/a	n/a	n/a
3909906	RECOG_TARGET	n/a	LTP096	ltpFR	13	1	1	LIME	823	1	5	1	n/a	0	0	0	n/a	n/a	n/a	n/a	n/a
3910467	RECOG_RESP	n/a	LTP096	ltpFR	13	1	1	LIME	823	1	n/a	1	n/a	0	0	0	n/a	n/a	n/a	n/a	n/a
3911086	RECOG_CONF	n/a	LTP096	ltpFR	13	1	1	LIME	823	n/a	5	1	n/a	0	0	0	n/a	n/a	n/a	n/a	n/a
3912545	RECOG_LURE	n/a	LTP096	ltpFR	13	1	n/a	WICK	1607	0	1	n/a	n/a	0	0	0	n/a	n/a	n/a	n/a	n/a
3913665	RECOG_RESP	n/a	LTP096	ltpFR	13	1	n/a	WICK	1607	0	n/a	n/a	n/a	0	0	0	n/a	n/a	n/a	n/a	n/a
3914438	RECOG_CONF	n/a	LTP096	ltpFR	13	1	n/a	WICK	1607	n/a	1	n/a	n/a	0	0	0	n/a	n/a	n/a	n/a	n/a
3915741	RECOG_LURE	n/a	LTP096	ltpFR	13	1	n/a	TANK	1432	1	1	n/a	n/a	0	0	0	n/a	n/a	n/a	n/a	n/a
3916593	RECOG_RESP	n/a	LTP096	ltpFR	13	1	n/a	TANK	1432	1	n/a	n/a	n/a	0	0	0	n/a	n/a	n/a	n/a	n/a
3917172	RECOG_CONF	n/a	LTP096	ltpFR	13	1	n/a	TANK	1432	n/a	1	n/a	n/a	0	0	0	n/a	n/a	n/a	n/a	n/a
3918529	RECOG_TARGET	n/a	LTP096	ltpFR	13	1	0	OWL	992	0	1	0	n/a	0	0	0	n/a	n/a	n/a	n/a	n/a
3921802	RECOG_RESP	n/a	LTP096	ltpFR	13	1	0	OWL	992	0	n/a	0	n/a	0	0	0	n/a	n/a	n/a	n/a	n/a
3922849	RECOG_CONF	n/a	LTP096	ltpFR	13	1	0	OWL	992	n/a	1	0	n/a	0	0	0	n/a	n/a	n/a	n/a	n/a
3924215	RECOG_LURE	n/a	LTP096	ltpFR	13	1	n/a	BIKE	125	0	1	n/a	n/a	0	0	0	n/a	n/a	n/a	n/a	n/a
3925533	RECOG_RESP	n/a	LTP096	ltpFR	13	1	n/a	BIKE	125	0	n/a	n/a	n/a	0	0	0	n/a	n/a	n/a	n/a	n/a
3926182	RECOG_CONF	n/a	LTP096	ltpFR	13	1	n/a	BIKE	125	n/a	1	n/a	n/a	0	0	0	n/a	n/a	n/a	n/a	n/a
3927610	RECOG_LURE	n/a	LTP096	ltpFR	13	1	n/a	PUBLICATION	1136	0	5	n/a	n/a	0	0	0	n/a	n/a	n/a	n/a	n/a
3929235	RECOG_RESP	n/a	LTP096	ltpFR	13	1	n/a	PUBLICATION	1136	0	n/a	n/a	n/a	0	0	0	n/a	n/a	n/a	n/a	n/a
3930232	RECOG_CONF	n/a	LTP096	ltpFR	13	1	n/a	PUBLICATION	1136	n/a	5	n/a	n/a	0	0	0	n/a	n/a	n/a	n/a	n/a
3931664	RECOG_LURE	n/a	LTP096	ltpFR	13	1	n/a	GLACIER	638	0	4	n/a	n/a	0	0	0	n/a	n/a	n/a	n/a	n/a
3932637	RECOG_RESP	n/a	LTP096	ltpFR	13	1	n/a	GLACIER	638	0	n/a	n/a	n/a	0	0	0	n/a	n/a	n/a	n/a	n/a
3933265	RECOG_CONF	n/a	LTP096	ltpFR	13	1	n/a	GLACIER	638	n/a	4	n/a	n/a	0	0	0	n/a	n/a	n/a	n/a	n/a
3934686	RECOG_LURE	n/a	LTP096	ltpFR	13	1	n/a	YACHT	1629	1	5	n/a	n/a	0	0	0	n/a	n/a	n/a	n/a	n/a
3935635	RECOG_RESP	n/a	LTP096	ltpFR	13	1	n/a	YACHT	1629	1	n/a	n/a	n/a	0	0	0	n/a	n/a	n/a	n/a	n/a
3936279	RECOG_CONF	n/a	LTP096	ltpFR	13	1	n/a	YACHT	1629	n/a	5	n/a	n/a	0	0	0	n/a	n/a	n/a	n/a	n/a
3937624	RECOG_LURE	n/a	LTP096	ltpFR	13	1	n/a	HOOK	715	1	1	n/a	n/a	0	0	0	n/a	n/a	n/a	n/a	n/a
3939037	RECOG_RESP	n/a	LTP096	ltpFR	13	1	n/a	HOOK	715	1	n/a	n/a	n/a	0	0	0	n/a	n/a	n/a	n/a	n/a
3939601	RECOG_CONF	n/a	LTP096	ltpFR	13	1	n/a	HOOK	715	n/a	1	n/a	n/a	0	0	0	n/a	n/a	n/a	n/a	n/a
3941028	RECOG_TARGET	n/a	LTP096	ltpFR	13	1	0	CANARY	227	0	1	0	n/a	0	0	0	n/a	n/a	n/a	n/a	n/a
3945488	RECOG_RESP	n/a	LTP096	ltpFR	13	1	0	CANARY	227	0	n/a	0	n/a	0	0	0	n/a	n/a	n/a	n/a	n/a
3946016	RECOG_CONF	n/a	LTP096	ltpFR	13	1	0	CANARY	227	n/a	1	0	n/a	0	0	0	n/a	n/a	n/a	n/a	n/a
3947504	RECOG_TARGET	n/a	LTP096	ltpFR	13	1	1	DASHBOARD	441	0	1	0	n/a	0	0	0	n/a	n/a	n/a	n/a	n/a
3949878	RECOG_RESP	n/a	LTP096	ltpFR	13	1	1	DASHBOARD	441	0	n/a	0	n/a	0	0	0	n/a	n/a	n/a	n/a	n/a
3950716	RECOG_CONF	n/a	LTP096	ltpFR	13	1	1	DASHBOARD	441	n/a	1	0	n/a	0	0	0	n/a	n/a	n/a	n/a	n/a
3953931	REC_START	n/a	LTP096	ltpFR	13	2	n/a	n/a	n/a	n/a	n/a	n/a	n/a	0	0	0	n/a	n/a	n/a	n/a	n/a
3953955	RECOG_TARGET	n/a	LTP096	ltpFR	13	2	0	HAIL	676	1	5	1	n/a	0	0	0	n/a	n/a	n/a	n/a	n/a
3954634	RECOG_RESP	n/a	LTP096	ltpFR	13	2	0	HAIL	676	1	n/a	1	n/a	0	0	0	n/a	n/a	n/a	n/a	n/a
3955153	RECOG_CONF	n/a	LTP096	ltpFR	13	2	0	HAIL	676	n/a	5	1	n/a	0	0	0	n/a	n/a	n/a	n/a	n/a
3956585	RECOG_TARGET	n/a	LTP096	ltpFR	13	2	0	CARRIAGE	248	1	5	n/a	n/a	0	0	0	n/a	n/a	n/a	n/a	n/a
3957318	RECOG_RESP	n/a	LTP096	ltpFR	13	2	0	CARRIAGE	248	1	n/a	n/a	n/a	0	0	0	n/a	n/a	n/a	n/a	n/a
3957807	RECOG_CONF	n/a	LTP096	ltpFR	13	2	0	CARRIAGE	248	n/a	5	n/a	n/a	0	0	0	n/a	n/a	n/a	n/a	n/a
3959158	RECOG_TARGET	n/a	LTP096	ltpFR	13	2	1	LABEL	790	1	5	0	n/a	0	0	0	n/a	n/a	n/a	n/a	n/a
3959723	RECOG_RESP	n/a	LTP096	ltpFR	13	2	1	LABEL	790	1	n/a	0	n/a	0	0	0	n/a	n/a	n/a	n/a	n/a
3960207	RECOG_CONF	n/a	LTP096	ltpFR	13	2	1	LABEL	790	n/a	5	0	n/a	0	0	0	n/a	n/a	n/a	n/a	n/a
3961554	RECOG_LURE	n/a	LTP096	ltpFR	13	2	n/a	ROOMMATE	1207	0	3	n/a	n/a	0	0	0	n/a	n/a	n/a	n/a	n/a
3962262	RECOG_RESP	n/a	LTP096	ltpFR	13	2	n/a	ROOMMATE	1207	0	n/a	n/a	n/a	0	0	0	n/a	n/a	n/a	n/a	n/a
3962826	RECOG_CONF	n/a	LTP096	ltpFR	13	2	n/a	ROOMMATE	1207	n/a	3	n/a	n/a	0	0	0	n/a	n/a	n/a	n/a	n/a
3964061	RECOG_TARGET	n/a	LTP096	ltpFR	13	2	1	KEEPER	769	1	4	n/a	n/a	0	0	0	n/a	n/a	n/a	n/a	n/a
3964681	RECOG_RESP	n/a	LTP096	ltpFR	13	2	1	KEEPER	769	1	n/a	n/a	n/a	0	0	0	n/a	n/a	n/a	n/a	n/a
3965160	RECOG_CONF	n/a	LTP096	ltpFR	13	2	1	KEEPER	769	n/a	4	n/a	n/a	0	0	0	n/a	n/a	n/a	n/a	n/a
3966524	RECOG_TARGET	n/a	LTP096	ltpFR	13	2	1	BAND	78	0	1	0	n/a	0	0	0	n/a	n/a	n/a	n/a	n/a
3967460	RECOG_RESP	n/a	LTP096	ltpFR	13	2	1	BAND	78	0	n/a	0	n/a	0	0	0	n/a	n/a	n/a	n/a	n/a
3967944	RECOG_CONF	n/a	LTP096	ltpFR	13	2	1	BAND	78	n/a	1	0	n/a	0	0	0	n/a	n/a	n/a	n/a	n/a
3969230	RECOG_TARGET	n/a	LTP096	ltpFR	13	2	1	VET	1560	1	3	1	n/a	0	0	0	n/a	n/a	n/a	n/a	n/a
3970279	RECOG_RESP	n/a	LTP096	ltpFR	13	2	1	VET	1560	1	n/a	1	n/a	0	0	0	n/a	n/a	n/a	n/a	n/a
3970897	RECOG_CONF	n/a	LTP096	ltpFR	13	2	1	VET	1560	n/a	3	1	n/a	0	0	0	n/a	n/a	n/a	n/a	n/a
3972342	RECOG_LURE	n/a	LTP096	ltpFR	13	2	n/a	HOUSE	725	0	1	n/a	n/a	0	0	0	n/a	n/a	n/a	n/a	n/a
3981802	RECOG_RESP	n/a	LTP096	ltpFR	13	2	n/a	HOUSE	725	0	n/a	n/a	n/a	0	0	0	n/a	n/a	n/a	n/a	n/a
3982451	RECOG_CONF	n/a	LTP096	ltpFR	13	2	n/a	HOUSE	725	n/a	1	n/a	n/a	0	0	0	n/a	n/a	n/a	n/a	n/a
