mstime	trial_type	stim_file	subject	experiment	session	trial	item_name	item_num	list	answer	test_x	test_y	test_z
0	SESS_START	n/a	LTP301	ltpFR2	20	n/a	n/a	n/a	n/a	n/a	0	0	0
48976	START	n/a	LTP301	ltpFR2	20	n/a	n/a	n/a	-1	n/a	n/a	n/a	n/a
49003	PROB	n/a	LTP301	ltpFR2	20	n/a	n/a	n/a	-1	15	3	5	7
50957	PROB	n/a	LTP301	ltpFR2	20	n/a	n/a	n/a	-1	20	6	7	7
52770	PROB	n/a	LTP301	ltpFR2	20	n/a	n/a	n/a	-1	14	7	1	6
55213	PROB	n/a	LTP301	ltpFR2	20	n/a	n/a	n/a	-1	15	8	2	5
56695	PROB	n/a	LTP301	ltpFR2	20	n/a	n/a	n/a	-1	14	5	5	4
57999	PROB	n/a	LTP301	ltpFR2	20	n/a	n/a	n/a	-1	18	4	5	9
60262	STOP	n/a	LTP301	ltpFR2	20	n/a	n/a	n/a	-1	n/a	n/a	n/a	n/a
81649	WORD	wordpools/wasnorm_wordpool_576.txt	LTP301	ltpFR2	20	1	CANAL	226	n/a	n/a	0	0	0
84165	WORD	wordpools/wasnorm_wordpool_576.txt	LTP301	ltpFR2	20	1	PLAZA	1088	n/a	n/a	0	0	0
86799	WORD	wordpools/wasnorm_wordpool_576.txt	LTP301	ltpFR2	20	1	TUBA	1515	n/a	n/a	0	0	0
89318	WORD	wordpools/wasnorm_wordpool_576.txt	LTP301	ltpFR2	20	1	FIDDLE	561	n/a	n/a	0	0	0
91970	WORD	wordpools/wasnorm_wordpool_576.txt	LTP301	ltpFR2	20	1	EAGLE	512	n/a	n/a	0	0	0
94489	WORD	wordpools/wasnorm_wordpool_576.txt	LTP301	ltpFR2	20	1	SPACE	1345	n/a	n/a	0	0	0
96966	WORD	wordpools/wasnorm_wordpool_576.txt	LTP301	ltpFR2	20	1	SANDWICH	1232	n/a	n/a	0	0	0
99559	WORD	wordpools/wasnorm_wordpool_576.txt	LTP301	ltpFR2	20	1	TEMPLE	1448	n/a	n/a	0	0	0
102070	WORD	wordpools/wasnorm_wordpool_576.txt	LTP301	ltpFR2	20	1	LUNCH	849	n/a	n/a	0	0	0
104522	WORD	wordpools/wasnorm_wordpool_576.txt	LTP301	ltpFR2	20	1	ACTOR	5	n/a	n/a	0	0	0
107315	WORD	wordpools/wasnorm_wordpool_576.txt	LTP301	ltpFR2	20	1	PEPPER	1047	n/a	n/a	0	0	0
110027	WORD	wordpools/wasnorm_wordpool_576.txt	LTP301	ltpFR2	20	1	PADDLE	1000	n/a	n/a	0	0	0
112702	WORD	wordpools/wasnorm_wordpool_576.txt	LTP301	ltpFR2	20	1	FIREMAN	569	n/a	n/a	0	0	0
115222	WORD	wordpools/wasnorm_wordpool_576.txt	LTP301	ltpFR2	20	1	DOUGHNUT	490	n/a	n/a	0	0	0
118040	WORD	wordpools/wasnorm_wordpool_576.txt	LTP301	ltpFR2	20	1	BELLY	119	n/a	n/a	0	0	0
120475	WORD	wordpools/wasnorm_wordpool_576.txt	LTP301	ltpFR2	20	1	MATCH	878	n/a	n/a	0	0	0
123138	WORD	wordpools/wasnorm_wordpool_576.txt	LTP301	ltpFR2	20	1	TART	1436	n/a	n/a	0	0	0
125862	WORD	wordpools/wasnorm_wordpool_576.txt	LTP301	ltpFR2	20	1	MISTER	901	n/a	n/a	0	0	0
128565	WORD	wordpools/wasnorm_wordpool_576.txt	LTP301	ltpFR2	20	1	SPHINX	1349	n/a	n/a	0	0	0
131217	WORD	wordpools/wasnorm_wordpool_576.txt	LTP301	ltpFR2	20	1	PERCH	1048	n/a	n/a	0	0	0
133679	WORD	wordpools/wasnorm_wordpool_576.txt	LTP301	ltpFR2	20	1	LUGGAGE	847	n/a	n/a	0	0	0
136449	WORD	wordpools/wasnorm_wordpool_576.txt	LTP301	ltpFR2	20	1	WAGON	1578	n/a	n/a	0	0	0
139018	WORD	wordpools/wasnorm_wordpool_576.txt	LTP301	ltpFR2	20	1	MOTOR	922	n/a	n/a	0	0	0
141819	WORD	wordpools/wasnorm_wordpool_576.txt	LTP301	ltpFR2	20	1	SHERIFF	1284	n/a	n/a	0	0	0
143427	START	n/a	LTP301	ltpFR2	20	n/a	n/a	n/a	1	n/a	n/a	n/a	n/a
144530	DISTRACTOR	n/a	LTP301	ltpFR2	20	1	n/a	n/a	n/a	n/a	0	0	0
144539	PROB	n/a	LTP301	ltpFR2	20	n/a	n/a	n/a	1	18	8	9	1
146621	PROB	n/a	LTP301	ltpFR2	20	n/a	n/a	n/a	1	12	8	3	1
150126	PROB	n/a	LTP301	ltpFR2	20	n/a	n/a	n/a	1	20	2	8	8
151975	PROB	n/a	LTP301	ltpFR2	20	n/a	n/a	n/a	1	17	8	6	3
154244	PROB	n/a	LTP301	ltpFR2	20	n/a	n/a	n/a	1	15	4	9	2
156178	PROB	n/a	LTP301	ltpFR2	20	n/a	n/a	n/a	1	14	2	4	8
159281	PROB	n/a	LTP301	ltpFR2	20	n/a	n/a	n/a	1	10	6	2	2
160734	PROB	n/a	LTP301	ltpFR2	20	n/a	n/a	n/a	1	8	4	1	3
162066	PROB	n/a	LTP301	ltpFR2	20	n/a	n/a	n/a	1	22	8	7	7
165470	PROB	n/a	LTP301	ltpFR2	20	n/a	n/a	n/a	1	15	4	9	2
167062	STOP	n/a	LTP301	ltpFR2	20	n/a	n/a	n/a	1	n/a	n/a	n/a	n/a
169273	REC_START	n/a	LTP301	ltpFR2	20	1	n/a	n/a	n/a	n/a	0	0	0
173591	REC_WORD	wordpools/wasnorm_wordpool_576.txt	LTP301	ltpFR2	20	1	TART	1436	n/a	n/a	0	0	0
174608	REC_WORD	wordpools/wasnorm_wordpool_576.txt	LTP301	ltpFR2	20	1	LUGGAGE	847	n/a	n/a	0	0	0
176358	REC_WORD	wordpools/wasnorm_wordpool_576.txt	LTP301	ltpFR2	20	1	BELLY	119	n/a	n/a	0	0	0
177375	REC_WORD	wordpools/wasnorm_wordpool_576.txt	LTP301	ltpFR2	20	1	CANAL	226	n/a	n/a	0	0	0
186478	REC_WORD	wordpools/wasnorm_wordpool_576.txt	LTP301	ltpFR2	20	1	SPHINX	1349	n/a	n/a	0	0	0
200499	REC_WORD	wordpools/wasnorm_wordpool_576.txt	LTP301	ltpFR2	20	1	DOUGHNUT	490	n/a	n/a	0	0	0
205958	REC_WORD	wordpools/wasnorm_wordpool_576.txt	LTP301	ltpFR2	20	1	WAGON	1578	n/a	n/a	0	0	0
259731	DISTRACTOR	n/a	LTP301	ltpFR2	20	2	n/a	n/a	n/a	n/a	0	0	0
259732	START	n/a	LTP301	ltpFR2	20	n/a	n/a	n/a	2	n/a	n/a	n/a	n/a
259749	PROB	n/a	LTP301	ltpFR2	20	n/a	n/a	n/a	2	20	2	9	9
261214	PROB	n/a	LTP301	ltpFR2	20	n/a	n/a	n/a	2	14	3	9	2
262717	PROB	n/a	LTP301	ltpFR2	20	n/a	n/a	n/a	2	15	6	7	2
264433	PROB	n/a	LTP301	ltpFR2	20	n/a	n/a	n/a	2	15	7	3	5
266150	PROB	n/a	LTP301	ltpFR2	20	n/a	n/a	n/a	2	17	3	6	8
267767	PROB	n/a	LTP301	ltpFR2	20	n/a	n/a	n/a	2	21	9	7	7
269522	PROB	n/a	LTP301	ltpFR2	20	n/a	n/a	n/a	2	15	7	5	3
273272	PROB	n/a	LTP301	ltpFR2	20	n/a	n/a	n/a	2	18	3	6	9
275594	PROB	n/a	LTP301	ltpFR2	20	n/a	n/a	n/a	2	18	5	8	5
277359	PROB	n/a	LTP301	ltpFR2	20	n/a	n/a	n/a	2	8	2	5	1
279147	PROB	n/a	LTP301	ltpFR2	20	n/a	n/a	n/a	2	20	5	9	6
281598	PROB	n/a	LTP301	ltpFR2	20	n/a	n/a	n/a	2	7	5	1	1
282870	STOP	n/a	LTP301	ltpFR2	20	n/a	n/a	n/a	2	n/a	n/a	n/a	n/a
284601	WORD	wordpools/wasnorm_wordpool_576.txt	LTP301	ltpFR2	20	2	LABEL	790	n/a	n/a	0	0	0
287420	WORD	wordpools/wasnorm_wordpool_576.txt	LTP301	ltpFR2	20	2	HUMAN	726	n/a	n/a	0	0	0
290188	WORD	wordpools/wasnorm_wordpool_576.txt	LTP301	ltpFR2	20	2	SPOUSE	1358	n/a	n/a	0	0	0
292656	WORD	wordpools/wasnorm_wordpool_576.txt	LTP301	ltpFR2	20	2	XEROX	1628	n/a	n/a	0	0	0
295248	WORD	wordpools/wasnorm_wordpool_576.txt	LTP301	ltpFR2	20	2	ROBIN	1199	n/a	n/a	0	0	0
297815	WORD	wordpools/wasnorm_wordpool_576.txt	LTP301	ltpFR2	20	2	SCARF	1246	n/a	n/a	0	0	0
300346	WORD	wordpools/wasnorm_wordpool_576.txt	LTP301	ltpFR2	20	2	SHORTS	1293	n/a	n/a	0	0	0
303104	WORD	wordpools/wasnorm_wordpool_576.txt	LTP301	ltpFR2	20	2	HELMET	702	n/a	n/a	0	0	0
305699	WORD	wordpools/wasnorm_wordpool_576.txt	LTP301	ltpFR2	20	2	LEG	809	n/a	n/a	0	0	0
308369	WORD	wordpools/wasnorm_wordpool_576.txt	LTP301	ltpFR2	20	2	PEACH	1031	n/a	n/a	0	0	0
310853	WORD	wordpools/wasnorm_wordpool_576.txt	LTP301	ltpFR2	20	2	FRUIT	610	n/a	n/a	0	0	0
313372	WORD	wordpools/wasnorm_wordpool_576.txt	LTP301	ltpFR2	20	2	DIVER	476	n/a	n/a	0	0	0
315840	WORD	wordpools/wasnorm_wordpool_576.txt	LTP301	ltpFR2	20	2	SWAMP	1416	n/a	n/a	0	0	0
318517	WORD	wordpools/wasnorm_wordpool_576.txt	LTP301	ltpFR2	20	2	WORKER	1621	n/a	n/a	0	0	0
321095	WORD	wordpools/wasnorm_wordpool_576.txt	LTP301	ltpFR2	20	2	DRESS	495	n/a	n/a	0	0	0
323729	WORD	wordpools/wasnorm_wordpool_576.txt	LTP301	ltpFR2	20	2	BLACKBOARD	133	n/a	n/a	0	0	0
326282	WORD	wordpools/wasnorm_wordpool_576.txt	LTP301	ltpFR2	20	2	RABBIT	1152	n/a	n/a	0	0	0
328716	WORD	wordpools/wasnorm_wordpool_576.txt	LTP301	ltpFR2	20	2	SWITCH	1422	n/a	n/a	0	0	0
331420	WORD	wordpools/wasnorm_wordpool_576.txt	LTP301	ltpFR2	20	2	HOOD	714	n/a	n/a	0	0	0
334172	WORD	wordpools/wasnorm_wordpool_576.txt	LTP301	ltpFR2	20	2	MARROW	872	n/a	n/a	0	0	0
336974	WORD	wordpools/wasnorm_wordpool_576.txt	LTP301	ltpFR2	20	2	ELBOW	520	n/a	n/a	0	0	0
339568	WORD	wordpools/wasnorm_wordpool_576.txt	LTP301	ltpFR2	20	2	JAPAN	749	n/a	n/a	0	0	0
342245	WORD	wordpools/wasnorm_wordpool_576.txt	LTP301	ltpFR2	20	2	CANDY	230	n/a	n/a	0	0	0
344712	WORD	wordpools/wasnorm_wordpool_576.txt	LTP301	ltpFR2	20	2	HOSTESS	723	n/a	n/a	0	0	0
346324	START	n/a	LTP301	ltpFR2	20	n/a	n/a	n/a	3	n/a	n/a	n/a	n/a
347287	DISTRACTOR	n/a	LTP301	ltpFR2	20	2	n/a	n/a	n/a	n/a	0	0	0
347298	PROB	n/a	LTP301	ltpFR2	20	n/a	n/a	n/a	3	16	4	4	8
349489	PROB	n/a	LTP301	ltpFR2	20	n/a	n/a	n/a	3	14	8	4	2
352425	PROB	n/a	LTP301	ltpFR2	20	n/a	n/a	n/a	3	8	2	2	4
353475	PROB	n/a	LTP301	ltpFR2	20	n/a	n/a	n/a	3	22	9	9	4
355361	PROB	n/a	LTP301	ltpFR2	20	n/a	n/a	n/a	3	17	2	7	8
357896	PROB	n/a	LTP301	ltpFR2	20	n/a	n/a	n/a	3	16	7	3	6
361566	PROB	n/a	LTP301	ltpFR2	20	n/a	n/a	n/a	3	15	6	6	3
363084	PROB	n/a	LTP301	ltpFR2	20	n/a	n/a	n/a	3	18	7	6	5
364635	PROB	n/a	LTP301	ltpFR2	20	n/a	n/a	n/a	3	20	5	6	9
366786	PROB	n/a	LTP301	ltpFR2	20	n/a	n/a	n/a	3	14	5	5	4
370323	STOP	n/a	LTP301	ltpFR2	20	n/a	n/a	n/a	3	n/a	n/a	n/a	n/a
372177	REC_START	n/a	LTP301	ltpFR2	20	2	n/a	n/a	n/a	n/a	0	0	0
374347	REC_WORD	wordpools/wasnorm_wordpool_576.txt	LTP301	ltpFR2	20	2	MARROW	872	n/a	n/a	0	0	0
375695	REC_WORD	wordpools/wasnorm_wordpool_576.txt	LTP301	ltpFR2	20	2	LEG	809	n/a	n/a	0	0	0
377588	REC_WORD	wordpools/wasnorm_wordpool_576.txt	LTP301	ltpFR2	20	2	DRESS	495	n/a	n/a	0	0	0
378741	REC_WORD	wordpools/wasnorm_wordpool_576.txt	LTP301	ltpFR2	20	2	JAPAN	749	n/a	n/a	0	0	0
380320	REC_WORD	wordpools/wasnorm_wordpool_576.txt	LTP301	ltpFR2	20	2	ELBOW	520	n/a	n/a	0	0	0
395709	REC_WORD	wordpools/wasnorm_wordpool_576.txt	LTP301	ltpFR2	20	2	HOOD	714	n/a	n/a	0	0	0
415091	REC_WORD	wordpools/wasnorm_wordpool_576.txt	LTP301	ltpFR2	20	2	DIVER	476	n/a	n/a	0	0	0
462652	WORD	wordpools/wasnorm_wordpool_576.txt	LTP301	ltpFR2	20	3	DAISY	435	n/a	n/a	0	0	0
465356	WORD	wordpools/wasnorm_wordpool_576.txt	LTP301	ltpFR2	20	3	LIVER	833	n/a	n/a	0	0	0
468157	WORD	wordpools/wasnorm_wordpool_576.txt	LTP301	ltpFR2	20	3	CLOUD	328	n/a	n/a	0	0	0
470893	WORD	wordpools/wasnorm_wordpool_576.txt	LTP301	ltpFR2	20	3	BROTHER	179	n/a	n/a	0	0	0
473711	WORD	wordpools/wasnorm_wordpool_576.txt	LTP301	ltpFR2	20	3	PARENT	1013	n/a	n/a	0	0	0
476430	WORD	wordpools/wasnorm_wordpool_576.txt	LTP301	ltpFR2	20	3	SOFTBALL	1343	n/a	n/a	0	0	0
479116	WORD	wordpools/wasnorm_wordpool_576.txt	LTP301	ltpFR2	20	3	BUGGY	188	n/a	n/a	0	0	0
481833	WORD	wordpools/wasnorm_wordpool_576.txt	LTP301	ltpFR2	20	3	NOMAD	955	n/a	n/a	0	0	0
484303	WORD	wordpools/wasnorm_wordpool_576.txt	LTP301	ltpFR2	20	3	TURNIP	1521	n/a	n/a	0	0	0
486771	WORD	wordpools/wasnorm_wordpool_576.txt	LTP301	ltpFR2	20	3	HOUND	724	n/a	n/a	0	0	0
489457	WORD	wordpools/wasnorm_wordpool_576.txt	LTP301	ltpFR2	20	3	STUDENT	1395	n/a	n/a	0	0	0
492092	WORD	wordpools/wasnorm_wordpool_576.txt	LTP301	ltpFR2	20	3	PLAYGROUND	1087	n/a	n/a	0	0	0
494578	WORD	wordpools/wasnorm_wordpool_576.txt	LTP301	ltpFR2	20	3	TWISTER	1530	n/a	n/a	0	0	0
497265	WORD	wordpools/wasnorm_wordpool_576.txt	LTP301	ltpFR2	20	3	BOX	159	n/a	n/a	0	0	0
499697	WORD	wordpools/wasnorm_wordpool_576.txt	LTP301	ltpFR2	20	3	ROCKET	1202	n/a	n/a	0	0	0
502250	WORD	wordpools/wasnorm_wordpool_576.txt	LTP301	ltpFR2	20	3	THIEF	1456	n/a	n/a	0	0	0
504851	WORD	wordpools/wasnorm_wordpool_576.txt	LTP301	ltpFR2	20	3	YARN	1631	n/a	n/a	0	0	0
507404	WORD	wordpools/wasnorm_wordpool_576.txt	LTP301	ltpFR2	20	3	SPOOL	1356	n/a	n/a	0	0	0
510073	WORD	wordpools/wasnorm_wordpool_576.txt	LTP301	ltpFR2	20	3	DENIM	446	n/a	n/a	0	0	0
512875	WORD	wordpools/wasnorm_wordpool_576.txt	LTP301	ltpFR2	20	3	SKIRT	1319	n/a	n/a	0	0	0
515613	WORD	wordpools/wasnorm_wordpool_576.txt	LTP301	ltpFR2	20	3	ULCER	1533	n/a	n/a	0	0	0
518345	WORD	wordpools/wasnorm_wordpool_576.txt	LTP301	ltpFR2	20	3	SIBLING	1301	n/a	n/a	0	0	0
521031	WORD	wordpools/wasnorm_wordpool_576.txt	LTP301	ltpFR2	20	3	GIFT	635	n/a	n/a	0	0	0
523732	WORD	wordpools/wasnorm_wordpool_576.txt	LTP301	ltpFR2	20	3	TROUT	1511	n/a	n/a	0	0	0
525339	START	n/a	LTP301	ltpFR2	20	n/a	n/a	n/a	4	n/a	n/a	n/a	n/a
526228	DISTRACTOR	n/a	LTP301	ltpFR2	20	3	n/a	n/a	n/a	n/a	0	0	0
526235	PROB	n/a	LTP301	ltpFR2	20	n/a	n/a	n/a	4	7	1	1	5
528538	PROB	n/a	LTP301	ltpFR2	20	n/a	n/a	n/a	4	10	3	1	6
530618	PROB	n/a	LTP301	ltpFR2	20	n/a	n/a	n/a	4	14	8	2	4
532686	PROB	n/a	LTP301	ltpFR2	20	n/a	n/a	n/a	4	11	3	4	4
534595	PROB	n/a	LTP301	ltpFR2	20	n/a	n/a	n/a	4	14	8	2	4
536261	PROB	n/a	LTP301	ltpFR2	20	n/a	n/a	n/a	4	18	9	4	7
538491	PROB	n/a	LTP301	ltpFR2	20	n/a	n/a	n/a	4	11	1	4	6
540614	PROB	n/a	LTP301	ltpFR2	20	n/a	n/a	n/a	4	17	7	9	1
542144	PROB	n/a	LTP301	ltpFR2	20	n/a	n/a	n/a	4	10	4	3	3
544167	PROB	n/a	LTP301	ltpFR2	20	n/a	n/a	n/a	4	5	1	1	3
546013	PROB	n/a	LTP301	ltpFR2	20	n/a	n/a	n/a	4	6	1	4	1
548278	STOP	n/a	LTP301	ltpFR2	20	n/a	n/a	n/a	4	n/a	n/a	n/a	n/a
551109	REC_START	n/a	LTP301	ltpFR2	20	3	n/a	n/a	n/a	n/a	0	0	0
552357	REC_WORD	wordpools/wasnorm_wordpool_576.txt	LTP301	ltpFR2	20	3	ULCER	1533	n/a	n/a	0	0	0
553374	REC_WORD	wordpools/wasnorm_wordpool_576.txt	LTP301	ltpFR2	20	3	TROUT	1511	n/a	n/a	0	0	0
559031	REC_WORD	wordpools/wasnorm_wordpool_576.txt	LTP301	ltpFR2	20	3	BROTHER	179	n/a	n/a	0	0	0
560662	REC_WORD	wordpools/wasnorm_wordpool_576.txt	LTP301	ltpFR2	20	3	PARENT	1013	n/a	n/a	0	0	0
562665	REC_WORD	wordpools/wasnorm_wordpool_576.txt	LTP301	ltpFR2	20	3	NOMAD	955	n/a	n/a	0	0	0
564594	REC_WORD	wordpools/wasnorm_wordpool_576.txt	LTP301	ltpFR2	20	3	BUGGY	188	n/a	n/a	0	0	0
569369	REC_WORD	wordpools/wasnorm_wordpool_576.txt	LTP301	ltpFR2	20	3	SKIRT	1319	n/a	n/a	0	0	0
579389	REC_WORD	wordpools/wasnorm_wordpool_576.txt	LTP301	ltpFR2	20	3	FRUIT	610	n/a	n/a	0	0	0
580603	REC_WORD	wordpools/wasnorm_wordpool_576.txt	LTP301	ltpFR2	20	3	PEACH	1031	n/a	n/a	0	0	0
641569	DISTRACTOR	n/a	LTP301	ltpFR2	20	4	n/a	n/a	n/a	n/a	0	0	0
641569	START	n/a	LTP301	ltpFR2	20	n/a	n/a	n/a	5	n/a	n/a	n/a	n/a
641582	PROB	n/a	LTP301	ltpFR2	20	n/a	n/a	n/a	5	15	2	9	4
643650	PROB	n/a	LTP301	ltpFR2	20	n/a	n/a	n/a	5	15	4	6	5
645252	PROB	n/a	LTP301	ltpFR2	20	n/a	n/a	n/a	5	19	6	4	9
649973	PROB	n/a	LTP301	ltpFR2	20	n/a	n/a	n/a	5	11	4	4	3
651756	PROB	n/a	LTP301	ltpFR2	20	n/a	n/a	n/a	5	13	2	9	2
653842	PROB	n/a	LTP301	ltpFR2	20	n/a	n/a	n/a	5	7	1	3	3
655293	PROB	n/a	LTP301	ltpFR2	20	n/a	n/a	n/a	5	16	4	5	7
657629	PROB	n/a	LTP301	ltpFR2	20	n/a	n/a	n/a	5	14	8	4	2
659663	PROB	n/a	LTP301	ltpFR2	20	n/a	n/a	n/a	5	10	2	7	1
661764	PROB	n/a	LTP301	ltpFR2	20	n/a	n/a	n/a	5	17	8	7	2
665566	STOP	n/a	LTP301	ltpFR2	20	n/a	n/a	n/a	5	n/a	n/a	n/a	n/a
666473	WORD	wordpools/wasnorm_wordpool_576.txt	LTP301	ltpFR2	20	4	GUITAR	670	n/a	n/a	0	0	0
669110	WORD	wordpools/wasnorm_wordpool_576.txt	LTP301	ltpFR2	20	4	MILDEW	893	n/a	n/a	0	0	0
671928	WORD	wordpools/wasnorm_wordpool_576.txt	LTP301	ltpFR2	20	4	RUG	1215	n/a	n/a	0	0	0
674729	WORD	wordpools/wasnorm_wordpool_576.txt	LTP301	ltpFR2	20	4	OMELET	976	n/a	n/a	0	0	0
677232	WORD	wordpools/wasnorm_wordpool_576.txt	LTP301	ltpFR2	20	4	BACON	67	n/a	n/a	0	0	0
679934	WORD	wordpools/wasnorm_wordpool_576.txt	LTP301	ltpFR2	20	4	BISON	131	n/a	n/a	0	0	0
682536	WORD	wordpools/wasnorm_wordpool_576.txt	LTP301	ltpFR2	20	4	LACE	792	n/a	n/a	0	0	0
685339	WORD	wordpools/wasnorm_wordpool_576.txt	LTP301	ltpFR2	20	4	SILK	1307	n/a	n/a	0	0	0
687874	WORD	wordpools/wasnorm_wordpool_576.txt	LTP301	ltpFR2	20	4	CASHEW	253	n/a	n/a	0	0	0
690576	WORD	wordpools/wasnorm_wordpool_576.txt	LTP301	ltpFR2	20	4	SPONGE	1355	n/a	n/a	0	0	0
693228	WORD	wordpools/wasnorm_wordpool_576.txt	LTP301	ltpFR2	20	4	ASIA	46	n/a	n/a	0	0	0
695981	WORD	wordpools/wasnorm_wordpool_576.txt	LTP301	ltpFR2	20	4	LILY	821	n/a	n/a	0	0	0
698781	WORD	wordpools/wasnorm_wordpool_576.txt	LTP301	ltpFR2	20	4	EMPIRE	530	n/a	n/a	0	0	0
701502	WORD	wordpools/wasnorm_wordpool_576.txt	LTP301	ltpFR2	20	4	CROWN	415	n/a	n/a	0	0	0
704203	WORD	wordpools/wasnorm_wordpool_576.txt	LTP301	ltpFR2	20	4	COUNTY	389	n/a	n/a	0	0	0
706889	WORD	wordpools/wasnorm_wordpool_576.txt	LTP301	ltpFR2	20	4	PARSLEY	1016	n/a	n/a	0	0	0
709643	WORD	wordpools/wasnorm_wordpool_576.txt	LTP301	ltpFR2	20	4	THRONE	1461	n/a	n/a	0	0	0
712460	WORD	wordpools/wasnorm_wordpool_576.txt	LTP301	ltpFR2	20	4	CLOTHES	327	n/a	n/a	0	0	0
715279	WORD	wordpools/wasnorm_wordpool_576.txt	LTP301	ltpFR2	20	4	MEDAL	885	n/a	n/a	0	0	0
717863	WORD	wordpools/wasnorm_wordpool_576.txt	LTP301	ltpFR2	20	4	MONEY	908	n/a	n/a	0	0	0
720466	WORD	wordpools/wasnorm_wordpool_576.txt	LTP301	ltpFR2	20	4	CONCERT	360	n/a	n/a	0	0	0
723285	WORD	wordpools/wasnorm_wordpool_576.txt	LTP301	ltpFR2	20	4	PATIENT	1024	n/a	n/a	0	0	0
726070	WORD	wordpools/wasnorm_wordpool_576.txt	LTP301	ltpFR2	20	4	MUMMY	932	n/a	n/a	0	0	0
728671	WORD	wordpools/wasnorm_wordpool_576.txt	LTP301	ltpFR2	20	4	FARMER	553	n/a	n/a	0	0	0
730291	START	n/a	LTP301	ltpFR2	20	n/a	n/a	n/a	6	n/a	n/a	n/a	n/a
731106	DISTRACTOR	n/a	LTP301	ltpFR2	20	4	n/a	n/a	n/a	n/a	0	0	0
731125	PROB	n/a	LTP301	ltpFR2	20	n/a	n/a	n/a	6	12	2	4	6
733158	PROB	n/a	LTP301	ltpFR2	20	n/a	n/a	n/a	6	7	5	1	1
734560	PROB	n/a	LTP301	ltpFR2	20	n/a	n/a	n/a	6	20	6	5	9
736946	PROB	n/a	LTP301	ltpFR2	20	n/a	n/a	n/a	6	11	5	1	5
738479	PROB	n/a	LTP301	ltpFR2	20	n/a	n/a	n/a	6	15	5	6	4
740429	PROB	n/a	LTP301	ltpFR2	20	n/a	n/a	n/a	6	18	4	7	7
742030	PROB	n/a	LTP301	ltpFR2	20	n/a	n/a	n/a	6	15	6	6	3
744268	PROB	n/a	LTP301	ltpFR2	20	n/a	n/a	n/a	6	12	4	6	2
746167	PROB	n/a	LTP301	ltpFR2	20	n/a	n/a	n/a	6	16	8	2	6
747749	PROB	n/a	LTP301	ltpFR2	20	n/a	n/a	n/a	6	15	6	2	7
749953	PROB	n/a	LTP301	ltpFR2	20	n/a	n/a	n/a	6	16	5	2	9
754291	STOP	n/a	LTP301	ltpFR2	20	n/a	n/a	n/a	6	n/a	n/a	n/a	n/a
756127	REC_START	n/a	LTP301	ltpFR2	20	4	n/a	n/a	n/a	n/a	0	0	0
758806	REC_WORD	wordpools/wasnorm_wordpool_576.txt	LTP301	ltpFR2	20	4	CLOTHES	327	n/a	n/a	0	0	0
760370	REC_WORD	wordpools/wasnorm_wordpool_576.txt	LTP301	ltpFR2	20	4	FARMER	553	n/a	n/a	0	0	0
771171	REC_WORD	wordpools/wasnorm_wordpool_576.txt	LTP301	ltpFR2	20	4	LACE	792	n/a	n/a	0	0	0
776560	REC_WORD	wordpools/wasnorm_wordpool_576.txt	LTP301	ltpFR2	20	4	SPOOL	1356	n/a	n/a	0	0	0
778085	REC_WORD	wordpools/wasnorm_wordpool_576.txt	LTP301	ltpFR2	20	4	YARN	1631	n/a	n/a	0	0	0
783675	REC_WORD	wordpools/wasnorm_wordpool_576.txt	LTP301	ltpFR2	20	4	GUITAR	670	n/a	n/a	0	0	0
846569	WORD	wordpools/wasnorm_wordpool_576.txt	LTP301	ltpFR2	20	5	PARTNER	1017	n/a	n/a	0	0	0
849258	WORD	wordpools/wasnorm_wordpool_576.txt	LTP301	ltpFR2	20	5	BOYFRIEND	162	n/a	n/a	0	0	0
852050	WORD	wordpools/wasnorm_wordpool_576.txt	LTP301	ltpFR2	20	5	DAUGHTER	442	n/a	n/a	0	0	0
854645	WORD	wordpools/wasnorm_wordpool_576.txt	LTP301	ltpFR2	20	5	GIRL	637	n/a	n/a	0	0	0
857098	WORD	wordpools/wasnorm_wordpool_576.txt	LTP301	ltpFR2	20	5	AIRPLANE	12	n/a	n/a	0	0	0
859900	WORD	wordpools/wasnorm_wordpool_576.txt	LTP301	ltpFR2	20	5	KEEPER	769	n/a	n/a	0	0	0
862408	WORD	wordpools/wasnorm_wordpool_576.txt	LTP301	ltpFR2	20	5	PLUTO	1092	n/a	n/a	0	0	0
864938	WORD	wordpools/wasnorm_wordpool_576.txt	LTP301	ltpFR2	20	5	VIRUS	1572	n/a	n/a	0	0	0
867495	WORD	wordpools/wasnorm_wordpool_576.txt	LTP301	ltpFR2	20	5	FRIAR	605	n/a	n/a	0	0	0
869992	WORD	wordpools/wasnorm_wordpool_576.txt	LTP301	ltpFR2	20	5	CELLAR	267	n/a	n/a	0	0	0
872443	WORD	wordpools/wasnorm_wordpool_576.txt	LTP301	ltpFR2	20	5	FOREST	593	n/a	n/a	0	0	0
875246	WORD	wordpools/wasnorm_wordpool_576.txt	LTP301	ltpFR2	20	5	JOURNAL	760	n/a	n/a	0	0	0
878032	WORD	wordpools/wasnorm_wordpool_576.txt	LTP301	ltpFR2	20	5	PRINCE	1124	n/a	n/a	0	0	0
880485	WORD	wordpools/wasnorm_wordpool_576.txt	LTP301	ltpFR2	20	5	PICNIC	1060	n/a	n/a	0	0	0
883035	WORD	wordpools/wasnorm_wordpool_576.txt	LTP301	ltpFR2	20	5	DINER	467	n/a	n/a	0	0	0
885455	WORD	wordpools/wasnorm_wordpool_576.txt	LTP301	ltpFR2	20	5	ROBOT	1200	n/a	n/a	0	0	0
888241	WORD	wordpools/wasnorm_wordpool_576.txt	LTP301	ltpFR2	20	5	HANDBAG	684	n/a	n/a	0	0	0
890976	WORD	wordpools/wasnorm_wordpool_576.txt	LTP301	ltpFR2	20	5	VENUS	1557	n/a	n/a	0	0	0
893695	WORD	wordpools/wasnorm_wordpool_576.txt	LTP301	ltpFR2	20	5	PALACE	1006	n/a	n/a	0	0	0
896298	WORD	wordpools/wasnorm_wordpool_576.txt	LTP301	ltpFR2	20	5	ARM	38	n/a	n/a	0	0	0
899086	WORD	wordpools/wasnorm_wordpool_576.txt	LTP301	ltpFR2	20	5	LION	827	n/a	n/a	0	0	0
901771	WORD	wordpools/wasnorm_wordpool_576.txt	LTP301	ltpFR2	20	5	GYMNAST	675	n/a	n/a	0	0	0
904454	WORD	wordpools/wasnorm_wordpool_576.txt	LTP301	ltpFR2	20	5	PORTRAIT	1111	n/a	n/a	0	0	0
907223	WORD	wordpools/wasnorm_wordpool_576.txt	LTP301	ltpFR2	20	5	WASP	1593	n/a	n/a	0	0	0
908841	START	n/a	LTP301	ltpFR2	20	n/a	n/a	n/a	7	n/a	n/a	n/a	n/a
909827	DISTRACTOR	n/a	LTP301	ltpFR2	20	5	n/a	n/a	n/a	n/a	0	0	0
909841	PROB	n/a	LTP301	ltpFR2	20	n/a	n/a	n/a	7	17	9	2	6
914326	PROB	n/a	LTP301	ltpFR2	20	n/a	n/a	n/a	7	10	2	4	4
920314	PROB	n/a	LTP301	ltpFR2	20	n/a	n/a	n/a	7	24	9	8	7
922199	PROB	n/a	LTP301	ltpFR2	20	n/a	n/a	n/a	7	25	6	9	7
924868	PROB	n/a	LTP301	ltpFR2	20	n/a	n/a	n/a	7	21	8	4	9
927220	PROB	n/a	LTP301	ltpFR2	20	n/a	n/a	n/a	7	18	1	8	9
928889	PROB	n/a	LTP301	ltpFR2	20	n/a	n/a	n/a	7	13	4	8	1
930623	PROB	n/a	LTP301	ltpFR2	20	n/a	n/a	n/a	7	9	4	2	3
932054	STOP	n/a	LTP301	ltpFR2	20	n/a	n/a	n/a	7	n/a	n/a	n/a	n/a
934658	REC_START	n/a	LTP301	ltpFR2	20	5	n/a	n/a	n/a	n/a	0	0	0
936519	REC_WORD	wordpools/wasnorm_wordpool_576.txt	LTP301	ltpFR2	20	5	PARTNER	1017	n/a	n/a	0	0	0
937440	REC_WORD	wordpools/wasnorm_wordpool_576.txt	LTP301	ltpFR2	20	5	BOYFRIEND	162	n/a	n/a	0	0	0
939537	REC_WORD	wordpools/wasnorm_wordpool_576.txt	LTP301	ltpFR2	20	5	DAUGHTER	442	n/a	n/a	0	0	0
940525	REC_WORD	wordpools/wasnorm_wordpool_576.txt	LTP301	ltpFR2	20	5	GIRL	637	n/a	n/a	0	0	0
942073	REC_WORD	wordpools/wasnorm_wordpool_576.txt	LTP301	ltpFR2	20	5	AIRPLANE	12	n/a	n/a	0	0	0
943218	REC_WORD	wordpools/wasnorm_wordpool_576.txt	LTP301	ltpFR2	20	5	KEEPER	769	n/a	n/a	0	0	0
945288	REC_WORD	wordpools/wasnorm_wordpool_576.txt	LTP301	ltpFR2	20	5	PLUTO	1092	n/a	n/a	0	0	0
946599	REC_WORD	wordpools/wasnorm_wordpool_576.txt	LTP301	ltpFR2	20	5	VENUS	1557	n/a	n/a	0	0	0
966520	REC_WORD	wordpools/wasnorm_wordpool_576.txt	LTP301	ltpFR2	20	5	BACON	67	n/a	n/a	0	0	0
969446	REC_WORD	wordpools/wasnorm_wordpool_576.txt	LTP301	ltpFR2	20	5	OMELET	976	n/a	n/a	0	0	0
1025088	DISTRACTOR	n/a	LTP301	ltpFR2	20	6	n/a	n/a	n/a	n/a	0	0	0
1025088	START	n/a	LTP301	ltpFR2	20	n/a	n/a	n/a	8	n/a	n/a	n/a	n/a
1025101	PROB	n/a	LTP301	ltpFR2	20	n/a	n/a	n/a	8	20	6	6	8
1029589	PROB	n/a	LTP301	ltpFR2	20	n/a	n/a	n/a	8	15	4	9	2
1031042	PROB	n/a	LTP301	ltpFR2	20	n/a	n/a	n/a	8	21	6	8	7
1033910	PROB	n/a	LTP301	ltpFR2	20	n/a	n/a	n/a	8	14	2	7	5
1036809	PROB	n/a	LTP301	ltpFR2	20	n/a	n/a	n/a	8	14	1	8	5
1038695	PROB	n/a	LTP301	ltpFR2	20	n/a	n/a	n/a	8	19	5	8	6
1040731	PROB	n/a	LTP301	ltpFR2	20	n/a	n/a	n/a	8	15	7	5	3
1043416	PROB	n/a	LTP301	ltpFR2	20	n/a	n/a	n/a	8	13	4	6	3
1045135	PROB	n/a	LTP301	ltpFR2	20	n/a	n/a	n/a	8	21	3	9	9
1046685	PROB	n/a	LTP301	ltpFR2	20	n/a	n/a	n/a	8	18	4	8	2
1048614	STOP	n/a	LTP301	ltpFR2	20	n/a	n/a	n/a	8	n/a	n/a	n/a	n/a
1050068	WORD	wordpools/wasnorm_wordpool_576.txt	LTP301	ltpFR2	20	6	TAXI	1438	n/a	n/a	0	0	0
1052603	WORD	wordpools/wasnorm_wordpool_576.txt	LTP301	ltpFR2	20	6	HIGHWAY	707	n/a	n/a	0	0	0
1055105	WORD	wordpools/wasnorm_wordpool_576.txt	LTP301	ltpFR2	20	6	NOVEL	960	n/a	n/a	0	0	0
1057874	WORD	wordpools/wasnorm_wordpool_576.txt	LTP301	ltpFR2	20	6	POET	1095	n/a	n/a	0	0	0
1060666	WORD	wordpools/wasnorm_wordpool_576.txt	LTP301	ltpFR2	20	6	TRACTOR	1493	n/a	n/a	0	0	0
1063169	WORD	wordpools/wasnorm_wordpool_576.txt	LTP301	ltpFR2	20	6	LOFT	840	n/a	n/a	0	0	0
1065613	WORD	wordpools/wasnorm_wordpool_576.txt	LTP301	ltpFR2	20	6	ROOSTER	1209	n/a	n/a	0	0	0
1068115	WORD	wordpools/wasnorm_wordpool_576.txt	LTP301	ltpFR2	20	6	FLESH	579	n/a	n/a	0	0	0
1070766	WORD	wordpools/wasnorm_wordpool_576.txt	LTP301	ltpFR2	20	6	TERMITE	1451	n/a	n/a	0	0	0
1073395	WORD	wordpools/wasnorm_wordpool_576.txt	LTP301	ltpFR2	20	6	LONDON	843	n/a	n/a	0	0	0
1075845	WORD	wordpools/wasnorm_wordpool_576.txt	LTP301	ltpFR2	20	6	BOARD	143	n/a	n/a	0	0	0
1078639	WORD	wordpools/wasnorm_wordpool_576.txt	LTP301	ltpFR2	20	6	CLAM	315	n/a	n/a	0	0	0
1081101	WORD	wordpools/wasnorm_wordpool_576.txt	LTP301	ltpFR2	20	6	CHAUFFEUR	283	n/a	n/a	0	0	0
1083802	WORD	wordpools/wasnorm_wordpool_576.txt	LTP301	ltpFR2	20	6	HEART	697	n/a	n/a	0	0	0
1086278	WORD	wordpools/wasnorm_wordpool_576.txt	LTP301	ltpFR2	20	6	SWIMMER	1420	n/a	n/a	0	0	0
1088757	WORD	wordpools/wasnorm_wordpool_576.txt	LTP301	ltpFR2	20	6	HAWK	692	n/a	n/a	0	0	0
1091499	WORD	wordpools/wasnorm_wordpool_576.txt	LTP301	ltpFR2	20	6	ANTLER	29	n/a	n/a	0	0	0
1093945	WORD	wordpools/wasnorm_wordpool_576.txt	LTP301	ltpFR2	20	6	DRUG	501	n/a	n/a	0	0	0
1096702	WORD	wordpools/wasnorm_wordpool_576.txt	LTP301	ltpFR2	20	6	VAGRANT	1544	n/a	n/a	0	0	0
1099499	WORD	wordpools/wasnorm_wordpool_576.txt	LTP301	ltpFR2	20	6	DRILL	497	n/a	n/a	0	0	0
1102251	WORD	wordpools/wasnorm_wordpool_576.txt	LTP301	ltpFR2	20	6	CREVICE	405	n/a	n/a	0	0	0
1105005	WORD	wordpools/wasnorm_wordpool_576.txt	LTP301	ltpFR2	20	6	RECEIPT	1173	n/a	n/a	0	0	0
1107545	WORD	wordpools/wasnorm_wordpool_576.txt	LTP301	ltpFR2	20	6	CASHIER	254	n/a	n/a	0	0	0
1110197	WORD	wordpools/wasnorm_wordpool_576.txt	LTP301	ltpFR2	20	6	EUROPE	541	n/a	n/a	0	0	0
1111809	START	n/a	LTP301	ltpFR2	20	n/a	n/a	n/a	9	n/a	n/a	n/a	n/a
1112779	DISTRACTOR	n/a	LTP301	ltpFR2	20	6	n/a	n/a	n/a	n/a	0	0	0
1112793	PROB	n/a	LTP301	ltpFR2	20	n/a	n/a	n/a	9	12	4	5	3
1117361	PROB	n/a	LTP301	ltpFR2	20	n/a	n/a	n/a	9	13	4	5	4
1119829	PROB	n/a	LTP301	ltpFR2	20	n/a	n/a	n/a	9	13	3	1	9
1121114	PROB	n/a	LTP301	ltpFR2	20	n/a	n/a	n/a	9	13	4	6	3
1122866	PROB	n/a	LTP301	ltpFR2	20	n/a	n/a	n/a	9	19	3	7	9
1124633	PROB	n/a	LTP301	ltpFR2	20	n/a	n/a	n/a	9	19	5	8	6
1126785	PROB	n/a	LTP301	ltpFR2	20	n/a	n/a	n/a	9	13	2	6	5
1128804	PROB	n/a	LTP301	ltpFR2	20	n/a	n/a	n/a	9	14	5	6	3
1130822	PROB	n/a	LTP301	ltpFR2	20	n/a	n/a	n/a	9	11	8	1	2
1133094	PROB	n/a	LTP301	ltpFR2	20	n/a	n/a	n/a	9	18	5	8	5
1134438	STOP	n/a	LTP301	ltpFR2	20	n/a	n/a	n/a	9	n/a	n/a	n/a	n/a
1137747	REC_START	n/a	LTP301	ltpFR2	20	6	n/a	n/a	n/a	n/a	0	0	0
1140265	REC_WORD	wordpools/wasnorm_wordpool_576.txt	LTP301	ltpFR2	20	6	ANTLER	29	n/a	n/a	0	0	0
1141412	REC_WORD	wordpools/wasnorm_wordpool_576.txt	LTP301	ltpFR2	20	6	DRUG	501	n/a	n/a	0	0	0
1142315	REC_WORD	wordpools/wasnorm_wordpool_576.txt	LTP301	ltpFR2	20	6	VAGRANT	1544	n/a	n/a	0	0	0
1143304	REC_WORD	wordpools/wasnorm_wordpool_576.txt	LTP301	ltpFR2	20	6	RECEIPT	1173	n/a	n/a	0	0	0
1147875	REC_WORD	wordpools/wasnorm_wordpool_576.txt	LTP301	ltpFR2	20	6	EUROPE	541	n/a	n/a	0	0	0
1162370	REC_WORD	wordpools/wasnorm_wordpool_576.txt	LTP301	ltpFR2	20	6	VIRUS	1572	n/a	n/a	0	0	0
1274325	WORD	wordpools/wasnorm_wordpool_576.txt	LTP301	ltpFR2	20	7	PISTOL	1075	n/a	n/a	0	0	0
1277108	WORD	wordpools/wasnorm_wordpool_576.txt	LTP301	ltpFR2	20	7	TEACHER	1440	n/a	n/a	0	0	0
1279809	WORD	wordpools/wasnorm_wordpool_576.txt	LTP301	ltpFR2	20	7	ITEM	746	n/a	n/a	0	0	0
1282551	WORD	wordpools/wasnorm_wordpool_576.txt	LTP301	ltpFR2	20	7	SUNRISE	1407	n/a	n/a	0	0	0
1285080	WORD	wordpools/wasnorm_wordpool_576.txt	LTP301	ltpFR2	20	7	COBRA	336	n/a	n/a	0	0	0
1287606	WORD	wordpools/wasnorm_wordpool_576.txt	LTP301	ltpFR2	20	7	OUTFIT	988	n/a	n/a	0	0	0
1290318	WORD	wordpools/wasnorm_wordpool_576.txt	LTP301	ltpFR2	20	7	RACKET	1155	n/a	n/a	0	0	0
1293053	WORD	wordpools/wasnorm_wordpool_576.txt	LTP301	ltpFR2	20	7	PIZZA	1079	n/a	n/a	0	0	0
1295572	WORD	wordpools/wasnorm_wordpool_576.txt	LTP301	ltpFR2	20	7	TRUCK	1512	n/a	n/a	0	0	0
1298357	WORD	wordpools/wasnorm_wordpool_576.txt	LTP301	ltpFR2	20	7	HORNET	718	n/a	n/a	0	0	0
1301050	WORD	wordpools/wasnorm_wordpool_576.txt	LTP301	ltpFR2	20	7	PORK	1108	n/a	n/a	0	0	0
1303519	WORD	wordpools/wasnorm_wordpool_576.txt	LTP301	ltpFR2	20	7	LOVER	846	n/a	n/a	0	0	0
1305996	WORD	wordpools/wasnorm_wordpool_576.txt	LTP301	ltpFR2	20	7	BREAST	171	n/a	n/a	0	0	0
1308581	WORD	wordpools/wasnorm_wordpool_576.txt	LTP301	ltpFR2	20	7	POSSUM	1112	n/a	n/a	0	0	0
1311200	WORD	wordpools/wasnorm_wordpool_576.txt	LTP301	ltpFR2	20	7	GOBLIN	645	n/a	n/a	0	0	0
1314002	WORD	wordpools/wasnorm_wordpool_576.txt	LTP301	ltpFR2	20	7	SEAGULL	1261	n/a	n/a	0	0	0
1316812	WORD	wordpools/wasnorm_wordpool_576.txt	LTP301	ltpFR2	20	7	PENGUIN	1044	n/a	n/a	0	0	0
1319506	WORD	wordpools/wasnorm_wordpool_576.txt	LTP301	ltpFR2	20	7	QUAIL	1147	n/a	n/a	0	0	0
1322034	WORD	wordpools/wasnorm_wordpool_576.txt	LTP301	ltpFR2	20	7	STAPLE	1371	n/a	n/a	0	0	0
1324520	WORD	wordpools/wasnorm_wordpool_576.txt	LTP301	ltpFR2	20	7	PUPIL	1143	n/a	n/a	0	0	0
1327229	WORD	wordpools/wasnorm_wordpool_576.txt	LTP301	ltpFR2	20	7	HAMPER	682	n/a	n/a	0	0	0
1329908	WORD	wordpools/wasnorm_wordpool_576.txt	LTP301	ltpFR2	20	7	BUREAU	199	n/a	n/a	0	0	0
1332659	WORD	wordpools/wasnorm_wordpool_576.txt	LTP301	ltpFR2	20	7	SODA	1341	n/a	n/a	0	0	0
1335152	WORD	wordpools/wasnorm_wordpool_576.txt	LTP301	ltpFR2	20	7	VALLEY	1545	n/a	n/a	0	0	0
1336762	START	n/a	LTP301	ltpFR2	20	n/a	n/a	n/a	10	n/a	n/a	n/a	n/a
1337950	DISTRACTOR	n/a	LTP301	ltpFR2	20	7	n/a	n/a	n/a	n/a	0	0	0
1337964	PROB	n/a	LTP301	ltpFR2	20	n/a	n/a	n/a	10	6	1	3	2
1339563	PROB	n/a	LTP301	ltpFR2	20	n/a	n/a	n/a	10	17	7	9	1
1343166	PROB	n/a	LTP301	ltpFR2	20	n/a	n/a	n/a	10	10	1	7	2
1344951	PROB	n/a	LTP301	ltpFR2	20	n/a	n/a	n/a	10	15	4	4	7
1347954	PROB	n/a	LTP301	ltpFR2	20	n/a	n/a	n/a	10	13	7	5	1
1350405	PROB	n/a	LTP301	ltpFR2	20	n/a	n/a	n/a	10	15	5	8	2
1351940	PROB	n/a	LTP301	ltpFR2	20	n/a	n/a	n/a	10	13	5	6	1
1353790	PROB	n/a	LTP301	ltpFR2	20	n/a	n/a	n/a	10	16	6	8	2
1355360	PROB	n/a	LTP301	ltpFR2	20	n/a	n/a	n/a	10	9	4	1	4
1360762	STOP	n/a	LTP301	ltpFR2	20	n/a	n/a	n/a	10	n/a	n/a	n/a	n/a
1362664	REC_START	n/a	LTP301	ltpFR2	20	7	n/a	n/a	n/a	n/a	0	0	0
1368827	REC_WORD	wordpools/wasnorm_wordpool_576.txt	LTP301	ltpFR2	20	7	CLOSET	326	n/a	n/a	0	0	0
1370529	REC_WORD	wordpools/wasnorm_wordpool_576.txt	LTP301	ltpFR2	20	7	BUREAU	199	n/a	n/a	0	0	0
1392342	REC_WORD	wordpools/wasnorm_wordpool_576.txt	LTP301	ltpFR2	20	7	SIBLING	1301	n/a	n/a	0	0	0
1401152	REC_WORD	wordpools/wasnorm_wordpool_576.txt	LTP301	ltpFR2	20	7	PISTOL	1075	n/a	n/a	0	0	0
1406555	REC_WORD	wordpools/wasnorm_wordpool_576.txt	LTP301	ltpFR2	20	7	CREVICE	405	n/a	n/a	0	0	0
1453125	DISTRACTOR	n/a	LTP301	ltpFR2	20	8	n/a	n/a	n/a	n/a	0	0	0
1453125	START	n/a	LTP301	ltpFR2	20	n/a	n/a	n/a	11	n/a	n/a	n/a	n/a
1453143	PROB	n/a	LTP301	ltpFR2	20	n/a	n/a	n/a	11	17	7	3	7
1455444	PROB	n/a	LTP301	ltpFR2	20	n/a	n/a	n/a	11	13	8	2	3
1457111	PROB	n/a	LTP301	ltpFR2	20	n/a	n/a	n/a	11	15	6	2	7
1459933	PROB	n/a	LTP301	ltpFR2	20	n/a	n/a	n/a	11	24	8	8	9
1461730	PROB	n/a	LTP301	ltpFR2	20	n/a	n/a	n/a	11	10	4	5	1
1463546	PROB	n/a	LTP301	ltpFR2	20	n/a	n/a	n/a	11	16	6	7	3
1464847	PROB	n/a	LTP301	ltpFR2	20	n/a	n/a	n/a	11	10	4	5	1
1466798	PROB	n/a	LTP301	ltpFR2	20	n/a	n/a	n/a	11	6	1	2	3
1468184	PROB	n/a	LTP301	ltpFR2	20	n/a	n/a	n/a	11	9	1	3	5
1470601	PROB	n/a	LTP301	ltpFR2	20	n/a	n/a	n/a	11	8	3	4	1
1472187	PROB	n/a	LTP301	ltpFR2	20	n/a	n/a	n/a	11	8	4	3	1
1473773	PROB	n/a	LTP301	ltpFR2	20	n/a	n/a	n/a	11	16	6	5	5
1474972	PROB	n/a	LTP301	ltpFR2	20	n/a	n/a	n/a	11	20	7	6	7
1476789	STOP	n/a	LTP301	ltpFR2	20	n/a	n/a	n/a	11	n/a	n/a	n/a	n/a
1478160	WORD	wordpools/wasnorm_wordpool_576.txt	LTP301	ltpFR2	20	8	CROSS	413	n/a	n/a	0	0	0
1480779	WORD	wordpools/wasnorm_wordpool_576.txt	LTP301	ltpFR2	20	8	BODY	145	n/a	n/a	0	0	0
1483419	WORD	wordpools/wasnorm_wordpool_576.txt	LTP301	ltpFR2	20	8	CRUTCH	417	n/a	n/a	0	0	0
1486067	WORD	wordpools/wasnorm_wordpool_576.txt	LTP301	ltpFR2	20	8	YOLK	1633	n/a	n/a	0	0	0
1488772	WORD	wordpools/wasnorm_wordpool_576.txt	LTP301	ltpFR2	20	8	COWBOY	395	n/a	n/a	0	0	0
1491292	WORD	wordpools/wasnorm_wordpool_576.txt	LTP301	ltpFR2	20	8	STALLION	1369	n/a	n/a	0	0	0
1494056	WORD	wordpools/wasnorm_wordpool_576.txt	LTP301	ltpFR2	20	8	SALAD	1224	n/a	n/a	0	0	0
1496808	WORD	wordpools/wasnorm_wordpool_576.txt	LTP301	ltpFR2	20	8	LETTUCE	814	n/a	n/a	0	0	0
1499610	WORD	wordpools/wasnorm_wordpool_576.txt	LTP301	ltpFR2	20	8	BANQUET	86	n/a	n/a	0	0	0
1502118	WORD	wordpools/wasnorm_wordpool_576.txt	LTP301	ltpFR2	20	8	DRINK	498	n/a	n/a	0	0	0
1504680	WORD	wordpools/wasnorm_wordpool_576.txt	LTP301	ltpFR2	20	8	BLOCKADE	137	n/a	n/a	0	0	0
1507272	WORD	wordpools/wasnorm_wordpool_576.txt	LTP301	ltpFR2	20	8	RELISH	1183	n/a	n/a	0	0	0
1510024	WORD	wordpools/wasnorm_wordpool_576.txt	LTP301	ltpFR2	20	8	UNCLE	1536	n/a	n/a	0	0	0
1512621	WORD	wordpools/wasnorm_wordpool_576.txt	LTP301	ltpFR2	20	8	OUTLAW	989	n/a	n/a	0	0	0
1515312	WORD	wordpools/wasnorm_wordpool_576.txt	LTP301	ltpFR2	20	8	BROOK	177	n/a	n/a	0	0	0
1517931	WORD	wordpools/wasnorm_wordpool_576.txt	LTP301	ltpFR2	20	8	NOTEBOOK	959	n/a	n/a	0	0	0
1520675	WORD	wordpools/wasnorm_wordpool_576.txt	LTP301	ltpFR2	20	8	FOX	598	n/a	n/a	0	0	0
1523451	WORD	wordpools/wasnorm_wordpool_576.txt	LTP301	ltpFR2	20	8	SUNSET	1408	n/a	n/a	0	0	0
1525980	WORD	wordpools/wasnorm_wordpool_576.txt	LTP301	ltpFR2	20	8	DENTIST	447	n/a	n/a	0	0	0
1528665	WORD	wordpools/wasnorm_wordpool_576.txt	LTP301	ltpFR2	20	8	SKILLET	1317	n/a	n/a	0	0	0
1531135	WORD	wordpools/wasnorm_wordpool_576.txt	LTP301	ltpFR2	20	8	TREAT	1501	n/a	n/a	0	0	0
1533560	WORD	wordpools/wasnorm_wordpool_576.txt	LTP301	ltpFR2	20	8	REPORT	1184	n/a	n/a	0	0	0
1536296	WORD	wordpools/wasnorm_wordpool_576.txt	LTP301	ltpFR2	20	8	COURSE	390	n/a	n/a	0	0	0
1538882	WORD	wordpools/wasnorm_wordpool_576.txt	LTP301	ltpFR2	20	8	WRIST	1626	n/a	n/a	0	0	0
1540492	START	n/a	LTP301	ltpFR2	20	n/a	n/a	n/a	12	n/a	n/a	n/a	n/a
1541651	DISTRACTOR	n/a	LTP301	ltpFR2	20	8	n/a	n/a	n/a	n/a	0	0	0
1541658	PROB	n/a	LTP301	ltpFR2	20	n/a	n/a	n/a	12	16	8	1	7
1543382	PROB	n/a	LTP301	ltpFR2	20	n/a	n/a	n/a	12	10	4	2	4
1545469	PROB	n/a	LTP301	ltpFR2	20	n/a	n/a	n/a	12	17	8	2	7
1547269	PROB	n/a	LTP301	ltpFR2	20	n/a	n/a	n/a	12	17	6	9	2
1550004	PROB	n/a	LTP301	ltpFR2	20	n/a	n/a	n/a	12	8	1	1	6
1551389	PROB	n/a	LTP301	ltpFR2	20	n/a	n/a	n/a	12	13	3	4	6
1552957	PROB	n/a	LTP301	ltpFR2	20	n/a	n/a	n/a	12	7	2	3	2
1554925	PROB	n/a	LTP301	ltpFR2	20	n/a	n/a	n/a	12	15	7	4	4
1556993	PROB	n/a	LTP301	ltpFR2	20	n/a	n/a	n/a	12	10	7	1	2
1559362	PROB	n/a	LTP301	ltpFR2	20	n/a	n/a	n/a	12	16	2	6	8
1561065	PROB	n/a	LTP301	ltpFR2	20	n/a	n/a	n/a	12	18	7	3	8
1562465	PROB	n/a	LTP301	ltpFR2	20	n/a	n/a	n/a	12	7	2	3	5
1564046	STOP	n/a	LTP301	ltpFR2	20	n/a	n/a	n/a	12	n/a	n/a	n/a	n/a
1566319	REC_START	n/a	LTP301	ltpFR2	20	8	n/a	n/a	n/a	n/a	0	0	0
1570344	REC_WORD	wordpools/wasnorm_wordpool_576.txt	LTP301	ltpFR2	20	8	SKILLET	1317	n/a	n/a	0	0	0
1571792	REC_WORD	wordpools/wasnorm_wordpool_576.txt	LTP301	ltpFR2	20	8	BANQUET	86	n/a	n/a	0	0	0
1572834	REC_WORD	wordpools/wasnorm_wordpool_576.txt	LTP301	ltpFR2	20	8	DRINK	498	n/a	n/a	0	0	0
1574725	REC_WORD	wordpools/wasnorm_wordpool_576.txt	LTP301	ltpFR2	20	8	UNCLE	1536	n/a	n/a	0	0	0
1576375	REC_WORD	wordpools/wasnorm_wordpool_576.txt	LTP301	ltpFR2	20	8	OUTLAW	989	n/a	n/a	0	0	0
1578791	REC_WORD	wordpools/wasnorm_wordpool_576.txt	LTP301	ltpFR2	20	8	COWBOY	395	n/a	n/a	0	0	0
1579723	REC_WORD	wordpools/wasnorm_wordpool_576.txt	LTP301	ltpFR2	20	8	STALLION	1369	n/a	n/a	0	0	0
1581525	REC_WORD	wordpools/wasnorm_wordpool_576.txt	LTP301	ltpFR2	20	8	YOLK	1633	n/a	n/a	0	0	0
1583310	REC_WORD	wordpools/wasnorm_wordpool_576.txt	LTP301	ltpFR2	20	8	SUNSET	1408	n/a	n/a	0	0	0
1602848	REC_WORD	wordpools/wasnorm_wordpool_576.txt	LTP301	ltpFR2	20	8	COURSE	390	n/a	n/a	0	0	0
1642868	REST_REWET	n/a	LTP301	ltpFR2	20	8	n/a	n/a	n/a	n/a	0	0	0
1973193	DISTRACTOR	n/a	LTP301	ltpFR2	20	9	n/a	n/a	n/a	n/a	0	0	0
1973193	START	n/a	LTP301	ltpFR2	20	n/a	n/a	n/a	13	n/a	n/a	n/a	n/a
1973206	PROB	n/a	LTP301	ltpFR2	20	n/a	n/a	n/a	13	17	4	7	6
1975740	PROB	n/a	LTP301	ltpFR2	20	n/a	n/a	n/a	13	10	3	2	5
1977960	PROB	n/a	LTP301	ltpFR2	20	n/a	n/a	n/a	13	10	2	4	4
1979545	PROB	n/a	LTP301	ltpFR2	20	n/a	n/a	n/a	13	14	3	9	2
1981558	PROB	n/a	LTP301	ltpFR2	20	n/a	n/a	n/a	13	1	3	2	5
1983647	PROB	n/a	LTP301	ltpFR2	20	n/a	n/a	n/a	13	8	4	3	1
1986461	PROB	n/a	LTP301	ltpFR2	20	n/a	n/a	n/a	13	20	8	6	6
1988796	PROB	n/a	LTP301	ltpFR2	20	n/a	n/a	n/a	13	13	4	1	6
1991602	PROB	n/a	LTP301	ltpFR2	20	n/a	n/a	n/a	13	9	4	2	3
1994641	PROB	n/a	LTP301	ltpFR2	20	n/a	n/a	n/a	13	5	2	2	1
1995998	STOP	n/a	LTP301	ltpFR2	20	n/a	n/a	n/a	13	n/a	n/a	n/a	n/a
1998157	WORD	wordpools/wasnorm_wordpool_576.txt	LTP301	ltpFR2	20	9	MESSAGE	888	n/a	n/a	0	0	0
2000815	WORD	wordpools/wasnorm_wordpool_576.txt	LTP301	ltpFR2	20	9	PLAID	1080	n/a	n/a	0	0	0
2003311	WORD	wordpools/wasnorm_wordpool_576.txt	LTP301	ltpFR2	20	9	FLOWER	584	n/a	n/a	0	0	0
2005964	WORD	wordpools/wasnorm_wordpool_576.txt	LTP301	ltpFR2	20	9	GARDEN	623	n/a	n/a	0	0	0
2008688	WORD	wordpools/wasnorm_wordpool_576.txt	LTP301	ltpFR2	20	9	PLIERS	1089	n/a	n/a	0	0	0
2011251	WORD	wordpools/wasnorm_wordpool_576.txt	LTP301	ltpFR2	20	9	ATLAS	53	n/a	n/a	0	0	0
2013859	WORD	wordpools/wasnorm_wordpool_576.txt	LTP301	ltpFR2	20	9	TABLET	1427	n/a	n/a	0	0	0
2016288	WORD	wordpools/wasnorm_wordpool_576.txt	LTP301	ltpFR2	20	9	POLICE	1098	n/a	n/a	0	0	0
2018788	WORD	wordpools/wasnorm_wordpool_576.txt	LTP301	ltpFR2	20	9	COMPASS	358	n/a	n/a	0	0	0
2021433	WORD	wordpools/wasnorm_wordpool_576.txt	LTP301	ltpFR2	20	9	KNAPSACK	783	n/a	n/a	0	0	0
2024244	WORD	wordpools/wasnorm_wordpool_576.txt	LTP301	ltpFR2	20	9	OINTMENT	974	n/a	n/a	0	0	0
2026811	WORD	wordpools/wasnorm_wordpool_576.txt	LTP301	ltpFR2	20	9	STOVE	1388	n/a	n/a	0	0	0
2029306	WORD	wordpools/wasnorm_wordpool_576.txt	LTP301	ltpFR2	20	9	SMOG	1330	n/a	n/a	0	0	0
2032100	WORD	wordpools/wasnorm_wordpool_576.txt	LTP301	ltpFR2	20	9	JEANS	752	n/a	n/a	0	0	0
2034751	WORD	wordpools/wasnorm_wordpool_576.txt	LTP301	ltpFR2	20	9	POCKET	1093	n/a	n/a	0	0	0
2037220	WORD	wordpools/wasnorm_wordpool_576.txt	LTP301	ltpFR2	20	9	TRIBE	1505	n/a	n/a	0	0	0
2039705	WORD	wordpools/wasnorm_wordpool_576.txt	LTP301	ltpFR2	20	9	CUPBOARD	425	n/a	n/a	0	0	0
2042207	WORD	wordpools/wasnorm_wordpool_576.txt	LTP301	ltpFR2	20	9	TRANSPLANT	1496	n/a	n/a	0	0	0
2045002	WORD	wordpools/wasnorm_wordpool_576.txt	LTP301	ltpFR2	20	9	INMATE	738	n/a	n/a	0	0	0
2047455	WORD	wordpools/wasnorm_wordpool_576.txt	LTP301	ltpFR2	20	9	DRAGON	492	n/a	n/a	0	0	0
2049930	WORD	wordpools/wasnorm_wordpool_576.txt	LTP301	ltpFR2	20	9	VIKING	1565	n/a	n/a	0	0	0
2052674	WORD	wordpools/wasnorm_wordpool_576.txt	LTP301	ltpFR2	20	9	CHURCH	307	n/a	n/a	0	0	0
2055284	WORD	wordpools/wasnorm_wordpool_576.txt	LTP301	ltpFR2	20	9	COD	340	n/a	n/a	0	0	0
2058063	WORD	wordpools/wasnorm_wordpool_576.txt	LTP301	ltpFR2	20	9	BLOUSE	139	n/a	n/a	0	0	0
2059671	START	n/a	LTP301	ltpFR2	20	n/a	n/a	n/a	14	n/a	n/a	n/a	n/a
2060681	DISTRACTOR	n/a	LTP301	ltpFR2	20	9	n/a	n/a	n/a	n/a	0	0	0
2060688	PROB	n/a	LTP301	ltpFR2	20	n/a	n/a	n/a	14	13	5	1	7
2063148	PROB	n/a	LTP301	ltpFR2	20	n/a	n/a	n/a	14	11	1	5	5
2064500	PROB	n/a	LTP301	ltpFR2	20	n/a	n/a	n/a	14	13	6	3	4
2067486	PROB	n/a	LTP301	ltpFR2	20	n/a	n/a	n/a	14	20	4	9	7
2069603	PROB	n/a	LTP301	ltpFR2	20	n/a	n/a	n/a	14	21	9	8	5
2073439	PROB	n/a	LTP301	ltpFR2	20	n/a	n/a	n/a	14	11	4	2	5
2076192	PROB	n/a	LTP301	ltpFR2	20	n/a	n/a	n/a	14	20	9	3	8
2079061	PROB	n/a	LTP301	ltpFR2	20	n/a	n/a	n/a	14	13	5	1	7
2080678	PROB	n/a	LTP301	ltpFR2	20	n/a	n/a	n/a	14	18	9	6	2
2082998	STOP	n/a	LTP301	ltpFR2	20	n/a	n/a	n/a	14	n/a	n/a	n/a	n/a
2085584	REC_START	n/a	LTP301	ltpFR2	20	9	n/a	n/a	n/a	n/a	0	0	0
2088000	REC_WORD	wordpools/wasnorm_wordpool_576.txt	LTP301	ltpFR2	20	9	FLOWER	584	n/a	n/a	0	0	0
2089142	REC_WORD	wordpools/wasnorm_wordpool_576.txt	LTP301	ltpFR2	20	9	GARDEN	623	n/a	n/a	0	0	0
2090297	REC_WORD	wordpools/wasnorm_wordpool_576.txt	LTP301	ltpFR2	20	9	BLOUSE	139	n/a	n/a	0	0	0
2091990	REC_WORD	wordpools/wasnorm_wordpool_576.txt	LTP301	ltpFR2	20	9	KNAPSACK	783	n/a	n/a	0	0	0
2100599	REC_WORD	wordpools/wasnorm_wordpool_576.txt	LTP301	ltpFR2	20	9	PLIERS	1089	n/a	n/a	0	0	0
2140725	REC_WORD	wordpools/wasnorm_wordpool_576.txt	LTP301	ltpFR2	20	9	POLICE	1098	n/a	n/a	0	0	0
2142052	REC_WORD	wordpools/wasnorm_wordpool_576.txt	LTP301	ltpFR2	20	9	TABLET	1427	n/a	n/a	0	0	0
2176061	WORD	wordpools/wasnorm_wordpool_576.txt	LTP301	ltpFR2	20	10	RAZOR	1171	n/a	n/a	0	0	0
2178777	WORD	wordpools/wasnorm_wordpool_576.txt	LTP301	ltpFR2	20	10	HATCHET	691	n/a	n/a	0	0	0
2181430	WORD	wordpools/wasnorm_wordpool_576.txt	LTP301	ltpFR2	20	10	DRIVER	499	n/a	n/a	0	0	0
2184266	WORD	wordpools/wasnorm_wordpool_576.txt	LTP301	ltpFR2	20	10	DRAWING	494	n/a	n/a	0	0	0
2186784	WORD	wordpools/wasnorm_wordpool_576.txt	LTP301	ltpFR2	20	10	TOURIST	1488	n/a	n/a	0	0	0
2189353	WORD	wordpools/wasnorm_wordpool_576.txt	LTP301	ltpFR2	20	10	CABIN	211	n/a	n/a	0	0	0
2191821	WORD	wordpools/wasnorm_wordpool_576.txt	LTP301	ltpFR2	20	10	OFFICE	972	n/a	n/a	0	0	0
2194641	WORD	wordpools/wasnorm_wordpool_576.txt	LTP301	ltpFR2	20	10	COLLEGE	346	n/a	n/a	0	0	0
2197376	WORD	wordpools/wasnorm_wordpool_576.txt	LTP301	ltpFR2	20	10	FRANCE	601	n/a	n/a	0	0	0
2200131	WORD	wordpools/wasnorm_wordpool_576.txt	LTP301	ltpFR2	20	10	TWIG	1527	n/a	n/a	0	0	0
2202884	WORD	wordpools/wasnorm_wordpool_576.txt	LTP301	ltpFR2	20	10	BRAKE	166	n/a	n/a	0	0	0
2205698	WORD	wordpools/wasnorm_wordpool_576.txt	LTP301	ltpFR2	20	10	DONKEY	484	n/a	n/a	0	0	0
2208234	WORD	wordpools/wasnorm_wordpool_576.txt	LTP301	ltpFR2	20	10	LADY	794	n/a	n/a	0	0	0
2211058	WORD	wordpools/wasnorm_wordpool_576.txt	LTP301	ltpFR2	20	10	APRON	35	n/a	n/a	0	0	0
2213754	WORD	wordpools/wasnorm_wordpool_576.txt	LTP301	ltpFR2	20	10	FRAME	600	n/a	n/a	0	0	0
2216356	WORD	wordpools/wasnorm_wordpool_576.txt	LTP301	ltpFR2	20	10	DOLPHIN	483	n/a	n/a	0	0	0
2218807	WORD	wordpools/wasnorm_wordpool_576.txt	LTP301	ltpFR2	20	10	MAMMAL	861	n/a	n/a	0	0	0
2221427	WORD	wordpools/wasnorm_wordpool_576.txt	LTP301	ltpFR2	20	10	ISLAND	745	n/a	n/a	0	0	0
2224196	WORD	wordpools/wasnorm_wordpool_576.txt	LTP301	ltpFR2	20	10	GAZELLE	628	n/a	n/a	0	0	0
2226898	WORD	wordpools/wasnorm_wordpool_576.txt	LTP301	ltpFR2	20	10	PISTON	1076	n/a	n/a	0	0	0
2229456	WORD	wordpools/wasnorm_wordpool_576.txt	LTP301	ltpFR2	20	10	BLUEPRINT	142	n/a	n/a	0	0	0
2231936	WORD	wordpools/wasnorm_wordpool_576.txt	LTP301	ltpFR2	20	10	WHISTLE	1606	n/a	n/a	0	0	0
2234511	WORD	wordpools/wasnorm_wordpool_576.txt	LTP301	ltpFR2	20	10	INFANT	737	n/a	n/a	0	0	0
2237106	WORD	wordpools/wasnorm_wordpool_576.txt	LTP301	ltpFR2	20	10	BANJO	82	n/a	n/a	0	0	0
2238713	START	n/a	LTP301	ltpFR2	20	n/a	n/a	n/a	15	n/a	n/a	n/a	n/a
2239908	DISTRACTOR	n/a	LTP301	ltpFR2	20	10	n/a	n/a	n/a	n/a	0	0	0
2239915	PROB	n/a	LTP301	ltpFR2	20	n/a	n/a	n/a	15	24	8	8	8
2241914	PROB	n/a	LTP301	ltpFR2	20	n/a	n/a	n/a	15	19	6	8	5
2243964	PROB	n/a	LTP301	ltpFR2	20	n/a	n/a	n/a	15	11	5	1	5
2245533	PROB	n/a	LTP301	ltpFR2	20	n/a	n/a	n/a	15	19	4	6	9
2247084	PROB	n/a	LTP301	ltpFR2	20	n/a	n/a	n/a	15	17	3	6	8
2249436	PROB	n/a	LTP301	ltpFR2	20	n/a	n/a	n/a	15	16	6	6	4
2252122	PROB	n/a	LTP301	ltpFR2	20	n/a	n/a	n/a	15	15	9	1	5
2254209	PROB	n/a	LTP301	ltpFR2	20	n/a	n/a	n/a	15	17	2	9	6
2256310	PROB	n/a	LTP301	ltpFR2	20	n/a	n/a	n/a	15	14	4	1	9
2257726	PROB	n/a	LTP301	ltpFR2	20	n/a	n/a	n/a	15	21	9	7	8
2261982	STOP	n/a	LTP301	ltpFR2	20	n/a	n/a	n/a	15	n/a	n/a	n/a	n/a
2264519	REC_START	n/a	LTP301	ltpFR2	20	10	n/a	n/a	n/a	n/a	0	0	0
2269425	REC_WORD	wordpools/wasnorm_wordpool_576.txt	LTP301	ltpFR2	20	10	PISTON	1076	n/a	n/a	0	0	0
2276662	REC_WORD	wordpools/wasnorm_wordpool_576.txt	LTP301	ltpFR2	20	10	DRIVER	499	n/a	n/a	0	0	0
2315060	REC_WORD_VV	wordpools/wasnorm_wordpool_576.txt	LTP301	ltpFR2	20	10	<>	-1	n/a	n/a	0	0	0
2427204	WORD	wordpools/wasnorm_wordpool_576.txt	LTP301	ltpFR2	20	11	LAKE	796	n/a	n/a	0	0	0
2429873	WORD	wordpools/wasnorm_wordpool_576.txt	LTP301	ltpFR2	20	11	GRIZZLY	662	n/a	n/a	0	0	0
2432654	WORD	wordpools/wasnorm_wordpool_576.txt	LTP301	ltpFR2	20	11	CRITIC	410	n/a	n/a	0	0	0
2435310	WORD	wordpools/wasnorm_wordpool_576.txt	LTP301	ltpFR2	20	11	STATUE	1374	n/a	n/a	0	0	0
2437909	WORD	wordpools/wasnorm_wordpool_576.txt	LTP301	ltpFR2	20	11	PEANUT	1032	n/a	n/a	0	0	0
2440677	WORD	wordpools/wasnorm_wordpool_576.txt	LTP301	ltpFR2	20	11	RUST	1219	n/a	n/a	0	0	0
2443113	WORD	wordpools/wasnorm_wordpool_576.txt	LTP301	ltpFR2	20	11	VALVE	1546	n/a	n/a	0	0	0
2445764	WORD	wordpools/wasnorm_wordpool_576.txt	LTP301	ltpFR2	20	11	JUNGLE	764	n/a	n/a	0	0	0
2448405	WORD	wordpools/wasnorm_wordpool_576.txt	LTP301	ltpFR2	20	11	GARBAGE	622	n/a	n/a	0	0	0
2451007	WORD	wordpools/wasnorm_wordpool_576.txt	LTP301	ltpFR2	20	11	LAGOON	795	n/a	n/a	0	0	0
2453588	WORD	wordpools/wasnorm_wordpool_576.txt	LTP301	ltpFR2	20	11	EGYPT	519	n/a	n/a	0	0	0
2456345	WORD	wordpools/wasnorm_wordpool_576.txt	LTP301	ltpFR2	20	11	CLOCK	325	n/a	n/a	0	0	0
2459042	WORD	wordpools/wasnorm_wordpool_576.txt	LTP301	ltpFR2	20	11	SUPPER	1411	n/a	n/a	0	0	0
2461693	WORD	wordpools/wasnorm_wordpool_576.txt	LTP301	ltpFR2	20	11	CORAL	378	n/a	n/a	0	0	0
2464479	WORD	wordpools/wasnorm_wordpool_576.txt	LTP301	ltpFR2	20	11	SEAFOOD	1260	n/a	n/a	0	0	0
2466915	WORD	wordpools/wasnorm_wordpool_576.txt	LTP301	ltpFR2	20	11	SCALLOP	1242	n/a	n/a	0	0	0
2469539	WORD	wordpools/wasnorm_wordpool_576.txt	LTP301	ltpFR2	20	11	LIZARD	834	n/a	n/a	0	0	0
2472158	WORD	wordpools/wasnorm_wordpool_576.txt	LTP301	ltpFR2	20	11	WORLD	1622	n/a	n/a	0	0	0
2474770	WORD	wordpools/wasnorm_wordpool_576.txt	LTP301	ltpFR2	20	11	BASEMENT	94	n/a	n/a	0	0	0
2477556	WORD	wordpools/wasnorm_wordpool_576.txt	LTP301	ltpFR2	20	11	COUNTRY	388	n/a	n/a	0	0	0
2480165	WORD	wordpools/wasnorm_wordpool_576.txt	LTP301	ltpFR2	20	11	SKETCH	1315	n/a	n/a	0	0	0
2482809	WORD	wordpools/wasnorm_wordpool_576.txt	LTP301	ltpFR2	20	11	EXPERT	543	n/a	n/a	0	0	0
2485401	WORD	wordpools/wasnorm_wordpool_576.txt	LTP301	ltpFR2	20	11	FLEET	578	n/a	n/a	0	0	0
2488014	WORD	wordpools/wasnorm_wordpool_576.txt	LTP301	ltpFR2	20	11	PECAN	1036	n/a	n/a	0	0	0
2489622	START	n/a	LTP301	ltpFR2	20	n/a	n/a	n/a	16	n/a	n/a	n/a	n/a
2490466	DISTRACTOR	n/a	LTP301	ltpFR2	20	11	n/a	n/a	n/a	n/a	0	0	0
2490473	PROB	n/a	LTP301	ltpFR2	20	n/a	n/a	n/a	16	13	9	1	3
2492721	PROB	n/a	LTP301	ltpFR2	20	n/a	n/a	n/a	16	13	9	2	2
2495141	PROB	n/a	LTP301	ltpFR2	20	n/a	n/a	n/a	16	18	3	7	8
2496674	PROB	n/a	LTP301	ltpFR2	20	n/a	n/a	n/a	16	18	2	9	7
2498211	PROB	n/a	LTP301	ltpFR2	20	n/a	n/a	n/a	16	9	1	4	4
2499910	PROB	n/a	LTP301	ltpFR2	20	n/a	n/a	n/a	16	21	9	7	6
2502500	PROB	n/a	LTP301	ltpFR2	20	n/a	n/a	n/a	16	14	2	3	9
2505365	PROB	n/a	LTP301	ltpFR2	20	n/a	n/a	n/a	16	14	5	2	7
2508051	PROB	n/a	LTP301	ltpFR2	20	n/a	n/a	n/a	16	22	7	8	7
2510336	PROB	n/a	LTP301	ltpFR2	20	n/a	n/a	n/a	16	16	8	6	2
2512381	STOP	n/a	LTP301	ltpFR2	20	n/a	n/a	n/a	16	n/a	n/a	n/a	n/a
2515391	REC_START	n/a	LTP301	ltpFR2	20	11	n/a	n/a	n/a	n/a	0	0	0
2517091	REC_WORD	wordpools/wasnorm_wordpool_576.txt	LTP301	ltpFR2	20	11	FLEET	578	n/a	n/a	0	0	0
2518778	REC_WORD	wordpools/wasnorm_wordpool_576.txt	LTP301	ltpFR2	20	11	EXPERT	543	n/a	n/a	0	0	0
2519867	REC_WORD	wordpools/wasnorm_wordpool_576.txt	LTP301	ltpFR2	20	11	SKETCH	1315	n/a	n/a	0	0	0
2521013	REC_WORD	wordpools/wasnorm_wordpool_576.txt	LTP301	ltpFR2	20	11	COUNTRY	388	n/a	n/a	0	0	0
2523814	REC_WORD	wordpools/wasnorm_wordpool_576.txt	LTP301	ltpFR2	20	11	LIZARD	834	n/a	n/a	0	0	0
2529510	REC_WORD	wordpools/wasnorm_wordpool_576.txt	LTP301	ltpFR2	20	11	ISLAND	745	n/a	n/a	0	0	0
2530440	REC_WORD	wordpools/wasnorm_wordpool_576.txt	LTP301	ltpFR2	20	11	MAMMAL	861	n/a	n/a	0	0	0
2605836	DISTRACTOR	n/a	LTP301	ltpFR2	20	12	n/a	n/a	n/a	n/a	0	0	0
2605836	START	n/a	LTP301	ltpFR2	20	n/a	n/a	n/a	17	n/a	n/a	n/a	n/a
2605848	PROB	n/a	LTP301	ltpFR2	20	n/a	n/a	n/a	17	18	7	2	9
2608302	PROB	n/a	LTP301	ltpFR2	20	n/a	n/a	n/a	17	17	8	5	4
2610069	PROB	n/a	LTP301	ltpFR2	20	n/a	n/a	n/a	17	18	3	1	4
2611621	PROB	n/a	LTP301	ltpFR2	20	n/a	n/a	n/a	17	18	8	6	4
2613721	PROB	n/a	LTP301	ltpFR2	20	n/a	n/a	n/a	17	14	8	4	2
2616425	PROB	n/a	LTP301	ltpFR2	20	n/a	n/a	n/a	17	16	7	5	4
2618259	PROB	n/a	LTP301	ltpFR2	20	n/a	n/a	n/a	17	15	7	1	7
2619998	PROB	n/a	LTP301	ltpFR2	20	n/a	n/a	n/a	17	24	6	9	7
2623180	PROB	n/a	LTP301	ltpFR2	20	n/a	n/a	n/a	17	16	4	5	7
2626333	PROB	n/a	LTP301	ltpFR2	20	n/a	n/a	n/a	17	9	1	5	3
2629254	STOP	n/a	LTP301	ltpFR2	20	n/a	n/a	n/a	17	n/a	n/a	n/a	n/a
2630722	WORD	wordpools/wasnorm_wordpool_576.txt	LTP301	ltpFR2	20	12	AIRPORT	13	n/a	n/a	0	0	0
2633392	WORD	wordpools/wasnorm_wordpool_576.txt	LTP301	ltpFR2	20	12	STAKE	1368	n/a	n/a	0	0	0
2636127	WORD	wordpools/wasnorm_wordpool_576.txt	LTP301	ltpFR2	20	12	MARS	873	n/a	n/a	0	0	0
2638795	WORD	wordpools/wasnorm_wordpool_576.txt	LTP301	ltpFR2	20	12	MUSTARD	935	n/a	n/a	0	0	0
2641632	WORD	wordpools/wasnorm_wordpool_576.txt	LTP301	ltpFR2	20	12	BANK	83	n/a	n/a	0	0	0
2644400	WORD	wordpools/wasnorm_wordpool_576.txt	LTP301	ltpFR2	20	12	MARKER	870	n/a	n/a	0	0	0
2646835	WORD	wordpools/wasnorm_wordpool_576.txt	LTP301	ltpFR2	20	12	LASER	801	n/a	n/a	0	0	0
2649371	WORD	wordpools/wasnorm_wordpool_576.txt	LTP301	ltpFR2	20	12	SPOON	1357	n/a	n/a	0	0	0
2651906	WORD	wordpools/wasnorm_wordpool_576.txt	LTP301	ltpFR2	20	12	GRAVE	658	n/a	n/a	0	0	0
2654441	WORD	wordpools/wasnorm_wordpool_576.txt	LTP301	ltpFR2	20	12	WIDOW	1608	n/a	n/a	0	0	0
2657043	WORD	wordpools/wasnorm_wordpool_576.txt	LTP301	ltpFR2	20	12	BEAST	108	n/a	n/a	0	0	0
2659744	WORD	wordpools/wasnorm_wordpool_576.txt	LTP301	ltpFR2	20	12	RAFT	1159	n/a	n/a	0	0	0
2662297	WORD	wordpools/wasnorm_wordpool_576.txt	LTP301	ltpFR2	20	12	FOREHEAD	592	n/a	n/a	0	0	0
2665032	WORD	wordpools/wasnorm_wordpool_576.txt	LTP301	ltpFR2	20	12	BURGLAR	200	n/a	n/a	0	0	0
2667700	WORD	wordpools/wasnorm_wordpool_576.txt	LTP301	ltpFR2	20	12	SADDLE	1221	n/a	n/a	0	0	0
2670219	WORD	wordpools/wasnorm_wordpool_576.txt	LTP301	ltpFR2	20	12	CARRIAGE	248	n/a	n/a	0	0	0
2672924	WORD	wordpools/wasnorm_wordpool_576.txt	LTP301	ltpFR2	20	12	STREAM	1392	n/a	n/a	0	0	0
2675507	WORD	wordpools/wasnorm_wordpool_576.txt	LTP301	ltpFR2	20	12	PRINCESS	1125	n/a	n/a	0	0	0
2678275	WORD	wordpools/wasnorm_wordpool_576.txt	LTP301	ltpFR2	20	12	KLEENEX	782	n/a	n/a	0	0	0
2680911	WORD	wordpools/wasnorm_wordpool_576.txt	LTP301	ltpFR2	20	12	BRIEFCASE	175	n/a	n/a	0	0	0
2683546	WORD	wordpools/wasnorm_wordpool_576.txt	LTP301	ltpFR2	20	12	AWARD	63	n/a	n/a	0	0	0
2686265	WORD	wordpools/wasnorm_wordpool_576.txt	LTP301	ltpFR2	20	12	SUSPECT	1415	n/a	n/a	0	0	0
2688816	WORD	wordpools/wasnorm_wordpool_576.txt	LTP301	ltpFR2	20	12	CRATER	400	n/a	n/a	0	0	0
2691469	WORD	wordpools/wasnorm_wordpool_576.txt	LTP301	ltpFR2	20	12	NEUTRON	947	n/a	n/a	0	0	0
2693087	START	n/a	LTP301	ltpFR2	20	n/a	n/a	n/a	18	n/a	n/a	n/a	n/a
2694251	DISTRACTOR	n/a	LTP301	ltpFR2	20	12	n/a	n/a	n/a	n/a	0	0	0
2694259	PROB	n/a	LTP301	ltpFR2	20	n/a	n/a	n/a	18	6	3	1	2
2697338	PROB	n/a	LTP301	ltpFR2	20	n/a	n/a	n/a	18	14	5	6	3
2699222	PROB	n/a	LTP301	ltpFR2	20	n/a	n/a	n/a	18	11	4	3	4
2703280	PROB	n/a	LTP301	ltpFR2	20	n/a	n/a	n/a	18	10	3	6	1
2705675	PROB	n/a	LTP301	ltpFR2	20	n/a	n/a	n/a	18	24	6	7	9
2708896	PROB	n/a	LTP301	ltpFR2	20	n/a	n/a	n/a	18	23	6	9	6
2712738	PROB	n/a	LTP301	ltpFR2	20	n/a	n/a	n/a	18	14	6	3	5
2714739	PROB	n/a	LTP301	ltpFR2	20	n/a	n/a	n/a	18	15	8	1	4
2716653	STOP	n/a	LTP301	ltpFR2	20	n/a	n/a	n/a	18	n/a	n/a	n/a	n/a
2719012	REC_START	n/a	LTP301	ltpFR2	20	12	n/a	n/a	n/a	n/a	0	0	0
2721363	REC_WORD	wordpools/wasnorm_wordpool_576.txt	LTP301	ltpFR2	20	12	SUSPECT	1415	n/a	n/a	0	0	0
2722618	REC_WORD	wordpools/wasnorm_wordpool_576.txt	LTP301	ltpFR2	20	12	AWARD	63	n/a	n/a	0	0	0
2723675	REC_WORD	wordpools/wasnorm_wordpool_576.txt	LTP301	ltpFR2	20	12	PRINCESS	1125	n/a	n/a	0	0	0
2724768	REC_WORD	wordpools/wasnorm_wordpool_576.txt	LTP301	ltpFR2	20	12	KLEENEX	782	n/a	n/a	0	0	0
2726711	REC_WORD	wordpools/wasnorm_wordpool_576.txt	LTP301	ltpFR2	20	12	STREAM	1392	n/a	n/a	0	0	0
2735697	REC_WORD	wordpools/wasnorm_wordpool_576.txt	LTP301	ltpFR2	20	12	RAFT	1159	n/a	n/a	0	0	0
2736979	REC_WORD	wordpools/wasnorm_wordpool_576.txt	LTP301	ltpFR2	20	12	CARRIAGE	248	n/a	n/a	0	0	0
2753381	REC_WORD	wordpools/wasnorm_wordpool_576.txt	LTP301	ltpFR2	20	12	LASER	801	n/a	n/a	0	0	0
2809468	WORD	wordpools/wasnorm_wordpool_576.txt	LTP301	ltpFR2	20	13	PAIL	1002	n/a	n/a	0	0	0
2811991	WORD	wordpools/wasnorm_wordpool_576.txt	LTP301	ltpFR2	20	13	MARINE	869	n/a	n/a	0	0	0
2814593	WORD	wordpools/wasnorm_wordpool_576.txt	LTP301	ltpFR2	20	13	ANKLE	24	n/a	n/a	0	0	0
2817328	WORD	wordpools/wasnorm_wordpool_576.txt	LTP301	ltpFR2	20	13	FREEZER	604	n/a	n/a	0	0	0
2819880	WORD	wordpools/wasnorm_wordpool_576.txt	LTP301	ltpFR2	20	13	FOOTBALL	591	n/a	n/a	0	0	0
2822649	WORD	wordpools/wasnorm_wordpool_576.txt	LTP301	ltpFR2	20	13	PACKAGE	997	n/a	n/a	0	0	0
2825452	WORD	wordpools/wasnorm_wordpool_576.txt	LTP301	ltpFR2	20	13	TYPIST	1532	n/a	n/a	0	0	0
2827886	WORD	wordpools/wasnorm_wordpool_576.txt	LTP301	ltpFR2	20	13	ONION	977	n/a	n/a	0	0	0
2830606	WORD	wordpools/wasnorm_wordpool_576.txt	LTP301	ltpFR2	20	13	CAMEL	223	n/a	n/a	0	0	0
2833191	WORD	wordpools/wasnorm_wordpool_576.txt	LTP301	ltpFR2	20	13	SCULPTURE	1258	n/a	n/a	0	0	0
2835726	WORD	wordpools/wasnorm_wordpool_576.txt	LTP301	ltpFR2	20	13	ROBBER	1197	n/a	n/a	0	0	0
2838262	WORD	wordpools/wasnorm_wordpool_576.txt	LTP301	ltpFR2	20	13	SLIDE	1326	n/a	n/a	0	0	0
2841015	WORD	wordpools/wasnorm_wordpool_576.txt	LTP301	ltpFR2	20	13	TOASTER	1472	n/a	n/a	0	0	0
2843749	WORD	wordpools/wasnorm_wordpool_576.txt	LTP301	ltpFR2	20	13	MUFFIN	929	n/a	n/a	0	0	0
2846219	WORD	wordpools/wasnorm_wordpool_576.txt	LTP301	ltpFR2	20	13	BLENDER	136	n/a	n/a	0	0	0
2848820	WORD	wordpools/wasnorm_wordpool_576.txt	LTP301	ltpFR2	20	13	UMPIRE	1535	n/a	n/a	0	0	0
2851407	WORD	wordpools/wasnorm_wordpool_576.txt	LTP301	ltpFR2	20	13	MOTEL	919	n/a	n/a	0	0	0
2853925	WORD	wordpools/wasnorm_wordpool_576.txt	LTP301	ltpFR2	20	13	MATTRESS	879	n/a	n/a	0	0	0
2856461	WORD	wordpools/wasnorm_wordpool_576.txt	LTP301	ltpFR2	20	13	COFFEE	341	n/a	n/a	0	0	0
2858945	WORD	wordpools/wasnorm_wordpool_576.txt	LTP301	ltpFR2	20	13	GLOVE	642	n/a	n/a	0	0	0
2861764	WORD	wordpools/wasnorm_wordpool_576.txt	LTP301	ltpFR2	20	13	FINGER	567	n/a	n/a	0	0	0
2864300	WORD	wordpools/wasnorm_wordpool_576.txt	LTP301	ltpFR2	20	13	FOOT	590	n/a	n/a	0	0	0
2866768	WORD	wordpools/wasnorm_wordpool_576.txt	LTP301	ltpFR2	20	13	STOMACH	1384	n/a	n/a	0	0	0
2869355	WORD	wordpools/wasnorm_wordpool_576.txt	LTP301	ltpFR2	20	13	CIGAR	308	n/a	n/a	0	0	0
2870973	START	n/a	LTP301	ltpFR2	20	n/a	n/a	n/a	19	n/a	n/a	n/a	n/a
2871970	DISTRACTOR	n/a	LTP301	ltpFR2	20	13	n/a	n/a	n/a	n/a	0	0	0
2871990	PROB	n/a	LTP301	ltpFR2	20	n/a	n/a	n/a	19	13	8	2	3
2874206	PROB	n/a	LTP301	ltpFR2	20	n/a	n/a	n/a	19	6	2	3	1
2875940	PROB	n/a	LTP301	ltpFR2	20	n/a	n/a	n/a	19	17	1	8	8
2879493	PROB	n/a	LTP301	ltpFR2	20	n/a	n/a	n/a	19	13	2	3	8
2881844	PROB	n/a	LTP301	ltpFR2	20	n/a	n/a	n/a	19	20	4	8	8
2884250	PROB	n/a	LTP301	ltpFR2	20	n/a	n/a	n/a	19	15	8	3	4
2886902	PROB	n/a	LTP301	ltpFR2	20	n/a	n/a	n/a	19	16	4	6	6
2889004	PROB	n/a	LTP301	ltpFR2	20	n/a	n/a	n/a	19	17	5	9	4
2891239	PROB	n/a	LTP301	ltpFR2	20	n/a	n/a	n/a	19	17	7	8	2
2893510	STOP	n/a	LTP301	ltpFR2	20	n/a	n/a	n/a	19	n/a	n/a	n/a	n/a
2896843	REC_START	n/a	LTP301	ltpFR2	20	13	n/a	n/a	n/a	n/a	0	0	0
2899208	REC_WORD	wordpools/wasnorm_wordpool_576.txt	LTP301	ltpFR2	20	13	CIGAR	308	n/a	n/a	0	0	0
2900188	REC_WORD	wordpools/wasnorm_wordpool_576.txt	LTP301	ltpFR2	20	13	FOOT	590	n/a	n/a	0	0	0
2900970	REC_WORD	wordpools/wasnorm_wordpool_576.txt	LTP301	ltpFR2	20	13	ANKLE	24	n/a	n/a	0	0	0
2901995	REC_WORD	wordpools/wasnorm_wordpool_576.txt	LTP301	ltpFR2	20	13	FINGER	567	n/a	n/a	0	0	0
2902860	REC_WORD	wordpools/wasnorm_wordpool_576.txt	LTP301	ltpFR2	20	13	GLOVE	642	n/a	n/a	0	0	0
2933399	REC_WORD	wordpools/wasnorm_wordpool_576.txt	LTP301	ltpFR2	20	13	CRATER	400	n/a	n/a	0	0	0
2987283	WORD	wordpools/wasnorm_wordpool_576.txt	LTP301	ltpFR2	20	14	MARKET	871	n/a	n/a	0	0	0
2989762	WORD	wordpools/wasnorm_wordpool_576.txt	LTP301	ltpFR2	20	14	WARDROBE	1587	n/a	n/a	0	0	0
2992499	WORD	wordpools/wasnorm_wordpool_576.txt	LTP301	ltpFR2	20	14	KIDNEY	776	n/a	n/a	0	0	0
2994959	WORD	wordpools/wasnorm_wordpool_576.txt	LTP301	ltpFR2	20	14	STONE	1385	n/a	n/a	0	0	0
2997536	WORD	wordpools/wasnorm_wordpool_576.txt	LTP301	ltpFR2	20	14	CHIPMUNK	304	n/a	n/a	0	0	0
3000322	WORD	wordpools/wasnorm_wordpool_576.txt	LTP301	ltpFR2	20	14	DORM	488	n/a	n/a	0	0	0
3002940	WORD	wordpools/wasnorm_wordpool_576.txt	LTP301	ltpFR2	20	14	SAUSAGE	1238	n/a	n/a	0	0	0
3005725	WORD	wordpools/wasnorm_wordpool_576.txt	LTP301	ltpFR2	20	14	TURTLE	1522	n/a	n/a	0	0	0
3008461	WORD	wordpools/wasnorm_wordpool_576.txt	LTP301	ltpFR2	20	14	BARREL	91	n/a	n/a	0	0	0
3011090	WORD	wordpools/wasnorm_wordpool_576.txt	LTP301	ltpFR2	20	14	SURVEY	1414	n/a	n/a	0	0	0
3013740	WORD	wordpools/wasnorm_wordpool_576.txt	LTP301	ltpFR2	20	14	PUDDING	1139	n/a	n/a	0	0	0
3016494	WORD	wordpools/wasnorm_wordpool_576.txt	LTP301	ltpFR2	20	14	MAILMAN	858	n/a	n/a	0	0	0
3019196	WORD	wordpools/wasnorm_wordpool_576.txt	LTP301	ltpFR2	20	14	TILE	1468	n/a	n/a	0	0	0
3021971	WORD	wordpools/wasnorm_wordpool_576.txt	LTP301	ltpFR2	20	14	CEILING	265	n/a	n/a	0	0	0
3024789	WORD	wordpools/wasnorm_wordpool_576.txt	LTP301	ltpFR2	20	14	ARMY	39	n/a	n/a	0	0	0
3027603	WORD	wordpools/wasnorm_wordpool_576.txt	LTP301	ltpFR2	20	14	FLIPPER	580	n/a	n/a	0	0	0
3030405	WORD	wordpools/wasnorm_wordpool_576.txt	LTP301	ltpFR2	20	14	SNAIL	1332	n/a	n/a	0	0	0
3033007	WORD	wordpools/wasnorm_wordpool_576.txt	LTP301	ltpFR2	20	14	OYSTER	995	n/a	n/a	0	0	0
3035426	WORD	wordpools/wasnorm_wordpool_576.txt	LTP301	ltpFR2	20	14	COSTUME	383	n/a	n/a	0	0	0
3038216	WORD	wordpools/wasnorm_wordpool_576.txt	LTP301	ltpFR2	20	14	PROTON	1132	n/a	n/a	0	0	0
3040696	WORD	wordpools/wasnorm_wordpool_576.txt	LTP301	ltpFR2	20	14	PASTRY	1022	n/a	n/a	0	0	0
3043216	WORD	wordpools/wasnorm_wordpool_576.txt	LTP301	ltpFR2	20	14	ROD	1203	n/a	n/a	0	0	0
3045651	WORD	wordpools/wasnorm_wordpool_576.txt	LTP301	ltpFR2	20	14	ATOM	55	n/a	n/a	0	0	0
3048454	WORD	wordpools/wasnorm_wordpool_576.txt	LTP301	ltpFR2	20	14	PASSAGE	1019	n/a	n/a	0	0	0
3050073	START	n/a	LTP301	ltpFR2	20	n/a	n/a	n/a	20	n/a	n/a	n/a	n/a
3051158	DISTRACTOR	n/a	LTP301	ltpFR2	20	14	n/a	n/a	n/a	n/a	0	0	0
3051173	PROB	n/a	LTP301	ltpFR2	20	n/a	n/a	n/a	20	17	5	9	3
3054687	PROB	n/a	LTP301	ltpFR2	20	n/a	n/a	n/a	20	8	2	1	5
3056543	PROB	n/a	LTP301	ltpFR2	20	n/a	n/a	n/a	20	10	1	4	5
3058075	PROB	n/a	LTP301	ltpFR2	20	n/a	n/a	n/a	20	9	1	2	6
3059726	PROB	n/a	LTP301	ltpFR2	20	n/a	n/a	n/a	20	17	4	9	8
3062913	PROB	n/a	LTP301	ltpFR2	20	n/a	n/a	n/a	20	19	7	6	6
3064765	PROB	n/a	LTP301	ltpFR2	20	n/a	n/a	n/a	20	9	6	1	2
3066015	PROB	n/a	LTP301	ltpFR2	20	n/a	n/a	n/a	20	11	3	5	3
3067933	PROB	n/a	LTP301	ltpFR2	20	n/a	n/a	n/a	20	23	7	8	8
3070919	PROB	n/a	LTP301	ltpFR2	20	n/a	n/a	n/a	20	8	4	2	2
3072622	STOP	n/a	LTP301	ltpFR2	20	n/a	n/a	n/a	20	n/a	n/a	n/a	n/a
3075990	REC_START	n/a	LTP301	ltpFR2	20	14	n/a	n/a	n/a	n/a	0	0	0
3080559	REC_WORD	wordpools/wasnorm_wordpool_576.txt	LTP301	ltpFR2	20	14	CHAMBER	277	n/a	n/a	0	0	0
3081525	REC_WORD	wordpools/wasnorm_wordpool_576.txt	LTP301	ltpFR2	20	14	PASSAGE	1019	n/a	n/a	0	0	0
3084183	REC_WORD	wordpools/wasnorm_wordpool_576.txt	LTP301	ltpFR2	20	14	PROTON	1132	n/a	n/a	0	0	0
3085327	REC_WORD	wordpools/wasnorm_wordpool_576.txt	LTP301	ltpFR2	20	14	ATOM	55	n/a	n/a	0	0	0
3091046	REC_WORD	wordpools/wasnorm_wordpool_576.txt	LTP301	ltpFR2	20	14	WARDROBE	1587	n/a	n/a	0	0	0
3118189	REC_WORD	wordpools/wasnorm_wordpool_576.txt	LTP301	ltpFR2	20	14	MAILMAN	858	n/a	n/a	0	0	0
3119544	REC_WORD	wordpools/wasnorm_wordpool_576.txt	LTP301	ltpFR2	20	14	PACKAGE	997	n/a	n/a	0	0	0
3212273	DISTRACTOR	n/a	LTP301	ltpFR2	20	15	n/a	n/a	n/a	n/a	0	0	0
3212274	START	n/a	LTP301	ltpFR2	20	n/a	n/a	n/a	21	n/a	n/a	n/a	n/a
3212287	PROB	n/a	LTP301	ltpFR2	20	n/a	n/a	n/a	21	19	7	7	5
3213955	PROB	n/a	LTP301	ltpFR2	20	n/a	n/a	n/a	21	14	7	2	5
3216789	PROB	n/a	LTP301	ltpFR2	20	n/a	n/a	n/a	21	16	8	1	7
3218376	PROB	n/a	LTP301	ltpFR2	20	n/a	n/a	n/a	21	22	7	9	6
3221645	PROB	n/a	LTP301	ltpFR2	20	n/a	n/a	n/a	21	9	7	1	1
3223099	PROB	n/a	LTP301	ltpFR2	20	n/a	n/a	n/a	21	8	3	1	4
3225181	PROB	n/a	LTP301	ltpFR2	20	n/a	n/a	n/a	21	15	6	7	2
3227499	PROB	n/a	LTP301	ltpFR2	20	n/a	n/a	n/a	21	24	9	8	8
3231970	PROB	n/a	LTP301	ltpFR2	20	n/a	n/a	n/a	21	15	8	2	5
3236274	STOP	n/a	LTP301	ltpFR2	20	n/a	n/a	n/a	21	n/a	n/a	n/a	n/a
3237435	WORD	wordpools/wasnorm_wordpool_576.txt	LTP301	ltpFR2	20	15	MACHINE	852	n/a	n/a	0	0	0
3240230	WORD	wordpools/wasnorm_wordpool_576.txt	LTP301	ltpFR2	20	15	HEDGE	699	n/a	n/a	0	0	0
3242648	WORD	wordpools/wasnorm_wordpool_576.txt	LTP301	ltpFR2	20	15	PLATE	1086	n/a	n/a	0	0	0
3245142	WORD	wordpools/wasnorm_wordpool_576.txt	LTP301	ltpFR2	20	15	WAITRESS	1581	n/a	n/a	0	0	0
3247802	WORD	wordpools/wasnorm_wordpool_576.txt	LTP301	ltpFR2	20	15	BADGE	68	n/a	n/a	0	0	0
3250388	WORD	wordpools/wasnorm_wordpool_576.txt	LTP301	ltpFR2	20	15	DANDRUFF	439	n/a	n/a	0	0	0
3253081	WORD	wordpools/wasnorm_wordpool_576.txt	LTP301	ltpFR2	20	15	OZONE	996	n/a	n/a	0	0	0
3255692	WORD	wordpools/wasnorm_wordpool_576.txt	LTP301	ltpFR2	20	15	LUMBER	848	n/a	n/a	0	0	0
3258135	WORD	wordpools/wasnorm_wordpool_576.txt	LTP301	ltpFR2	20	15	GRILL	661	n/a	n/a	0	0	0
3260662	WORD	wordpools/wasnorm_wordpool_576.txt	LTP301	ltpFR2	20	15	THREAD	1460	n/a	n/a	0	0	0
3263122	WORD	wordpools/wasnorm_wordpool_576.txt	LTP301	ltpFR2	20	15	STAR	1373	n/a	n/a	0	0	0
3265634	WORD	wordpools/wasnorm_wordpool_576.txt	LTP301	ltpFR2	20	15	POSTAGE	1113	n/a	n/a	0	0	0
3268370	WORD	wordpools/wasnorm_wordpool_576.txt	LTP301	ltpFR2	20	15	STICKER	1382	n/a	n/a	0	0	0
3270860	WORD	wordpools/wasnorm_wordpool_576.txt	LTP301	ltpFR2	20	15	SERVER	1272	n/a	n/a	0	0	0
3273380	WORD	wordpools/wasnorm_wordpool_576.txt	LTP301	ltpFR2	20	15	CAPTIVE	240	n/a	n/a	0	0	0
3276127	WORD	wordpools/wasnorm_wordpool_576.txt	LTP301	ltpFR2	20	15	WIFE	1609	n/a	n/a	0	0	0
3278761	WORD	wordpools/wasnorm_wordpool_576.txt	LTP301	ltpFR2	20	15	TROMBONE	1508	n/a	n/a	0	0	0
3281331	WORD	wordpools/wasnorm_wordpool_576.txt	LTP301	ltpFR2	20	15	PEBBLE	1035	n/a	n/a	0	0	0
3283971	WORD	wordpools/wasnorm_wordpool_576.txt	LTP301	ltpFR2	20	15	BANKER	84	n/a	n/a	0	0	0
3286439	WORD	wordpools/wasnorm_wordpool_576.txt	LTP301	ltpFR2	20	15	QUARTER	1148	n/a	n/a	0	0	0
3288887	WORD	wordpools/wasnorm_wordpool_576.txt	LTP301	ltpFR2	20	15	CLIMBER	323	n/a	n/a	0	0	0
3291389	WORD	wordpools/wasnorm_wordpool_576.txt	LTP301	ltpFR2	20	15	SUMMIT	1405	n/a	n/a	0	0	0
3294096	WORD	wordpools/wasnorm_wordpool_576.txt	LTP301	ltpFR2	20	15	SCALPEL	1243	n/a	n/a	0	0	0
3296859	WORD	wordpools/wasnorm_wordpool_576.txt	LTP301	ltpFR2	20	15	NURSE	963	n/a	n/a	0	0	0
3298466	START	n/a	LTP301	ltpFR2	20	n/a	n/a	n/a	22	n/a	n/a	n/a	n/a
3299561	DISTRACTOR	n/a	LTP301	ltpFR2	20	15	n/a	n/a	n/a	n/a	0	0	0
3299579	PROB	n/a	LTP301	ltpFR2	20	n/a	n/a	n/a	22	16	4	4	8
3302378	PROB	n/a	LTP301	ltpFR2	20	n/a	n/a	n/a	22	16	8	1	7
3304430	PROB	n/a	LTP301	ltpFR2	20	n/a	n/a	n/a	22	13	6	6	1
3305897	PROB	n/a	LTP301	ltpFR2	20	n/a	n/a	n/a	22	19	6	5	8
3308369	PROB	n/a	LTP301	ltpFR2	20	n/a	n/a	n/a	22	14	8	3	3
3310234	PROB	n/a	LTP301	ltpFR2	20	n/a	n/a	n/a	22	13	2	3	8
3312288	PROB	n/a	LTP301	ltpFR2	20	n/a	n/a	n/a	22	15	4	8	3
3314405	PROB	n/a	LTP301	ltpFR2	20	n/a	n/a	n/a	22	24	9	8	9
3316907	PROB	n/a	LTP301	ltpFR2	20	n/a	n/a	n/a	22	22	7	7	8
3322466	STOP	n/a	LTP301	ltpFR2	20	n/a	n/a	n/a	22	n/a	n/a	n/a	n/a
3324363	REC_START	n/a	LTP301	ltpFR2	20	15	n/a	n/a	n/a	n/a	0	0	0
3328613	REC_WORD	wordpools/wasnorm_wordpool_576.txt	LTP301	ltpFR2	20	15	SCALPEL	1243	n/a	n/a	0	0	0
3332912	REC_WORD	wordpools/wasnorm_wordpool_576.txt	LTP301	ltpFR2	20	15	WIFE	1609	n/a	n/a	0	0	0
3355906	REC_WORD	wordpools/wasnorm_wordpool_576.txt	LTP301	ltpFR2	20	15	PAIL	1002	n/a	n/a	0	0	0
3359047	REC_WORD	wordpools/wasnorm_wordpool_576.txt	LTP301	ltpFR2	20	15	SERVER	1272	n/a	n/a	0	0	0
3432323	DISTRACTOR	n/a	LTP301	ltpFR2	20	16	n/a	n/a	n/a	n/a	0	0	0
3432323	START	n/a	LTP301	ltpFR2	20	n/a	n/a	n/a	23	n/a	n/a	n/a	n/a
3432337	PROB	n/a	LTP301	ltpFR2	20	n/a	n/a	n/a	23	12	2	6	4
3434140	PROB	n/a	LTP301	ltpFR2	20	n/a	n/a	n/a	23	12	1	9	2
3435757	PROB	n/a	LTP301	ltpFR2	20	n/a	n/a	n/a	23	15	4	8	3
3437224	PROB	n/a	LTP301	ltpFR2	20	n/a	n/a	n/a	23	15	6	1	8
3439676	PROB	n/a	LTP301	ltpFR2	20	n/a	n/a	n/a	23	15	1	9	5
3441195	PROB	n/a	LTP301	ltpFR2	20	n/a	n/a	n/a	23	16	7	5	4
3443062	PROB	n/a	LTP301	ltpFR2	20	n/a	n/a	n/a	23	18	2	7	9
3445481	PROB	n/a	LTP301	ltpFR2	20	n/a	n/a	n/a	23	23	8	6	9
3448833	PROB	n/a	LTP301	ltpFR2	20	n/a	n/a	n/a	23	16	8	3	5
3450650	PROB	n/a	LTP301	ltpFR2	20	n/a	n/a	n/a	23	14	7	1	6
3453037	PROB	n/a	LTP301	ltpFR2	20	n/a	n/a	n/a	23	15	9	2	6
3455454	STOP	n/a	LTP301	ltpFR2	20	n/a	n/a	n/a	23	n/a	n/a	n/a	n/a
3457336	WORD	wordpools/wasnorm_wordpool_576.txt	LTP301	ltpFR2	20	16	EYELASH	546	n/a	n/a	0	0	0
3459754	WORD	wordpools/wasnorm_wordpool_576.txt	LTP301	ltpFR2	20	16	LAMP	798	n/a	n/a	0	0	0
3462298	WORD	wordpools/wasnorm_wordpool_576.txt	LTP301	ltpFR2	20	16	WRENCH	1625	n/a	n/a	0	0	0
3464725	WORD	wordpools/wasnorm_wordpool_576.txt	LTP301	ltpFR2	20	16	LODGE	839	n/a	n/a	0	0	0
3467402	WORD	wordpools/wasnorm_wordpool_576.txt	LTP301	ltpFR2	20	16	DASHBOARD	441	n/a	n/a	0	0	0
3470146	WORD	wordpools/wasnorm_wordpool_576.txt	LTP301	ltpFR2	20	16	ICEBERG	731	n/a	n/a	0	0	0
3472722	WORD	wordpools/wasnorm_wordpool_576.txt	LTP301	ltpFR2	20	16	SHORTCAKE	1292	n/a	n/a	0	0	0
3475400	WORD	wordpools/wasnorm_wordpool_576.txt	LTP301	ltpFR2	20	16	CASKET	255	n/a	n/a	0	0	0
3477886	WORD	wordpools/wasnorm_wordpool_576.txt	LTP301	ltpFR2	20	16	LAPEL	800	n/a	n/a	0	0	0
3480488	WORD	wordpools/wasnorm_wordpool_576.txt	LTP301	ltpFR2	20	16	SHIRT	1287	n/a	n/a	0	0	0
3482965	WORD	wordpools/wasnorm_wordpool_576.txt	LTP301	ltpFR2	20	16	CHEMIST	292	n/a	n/a	0	0	0
3485625	WORD	wordpools/wasnorm_wordpool_576.txt	LTP301	ltpFR2	20	16	SHARK	1275	n/a	n/a	0	0	0
3488420	WORD	wordpools/wasnorm_wordpool_576.txt	LTP301	ltpFR2	20	16	CRAB	397	n/a	n/a	0	0	0
3491212	WORD	wordpools/wasnorm_wordpool_576.txt	LTP301	ltpFR2	20	16	BUTCHER	203	n/a	n/a	0	0	0
3493696	WORD	wordpools/wasnorm_wordpool_576.txt	LTP301	ltpFR2	20	16	MOP	916	n/a	n/a	0	0	0
3496193	WORD	wordpools/wasnorm_wordpool_576.txt	LTP301	ltpFR2	20	16	GRAPE	654	n/a	n/a	0	0	0
3498744	WORD	wordpools/wasnorm_wordpool_576.txt	LTP301	ltpFR2	20	16	CATTLE	261	n/a	n/a	0	0	0
3501253	WORD	wordpools/wasnorm_wordpool_576.txt	LTP301	ltpFR2	20	16	PEDAL	1037	n/a	n/a	0	0	0
3503966	WORD	wordpools/wasnorm_wordpool_576.txt	LTP301	ltpFR2	20	16	ORCHID	982	n/a	n/a	0	0	0
3506585	WORD	wordpools/wasnorm_wordpool_576.txt	LTP301	ltpFR2	20	16	CYCLONE	431	n/a	n/a	0	0	0
3509137	WORD	wordpools/wasnorm_wordpool_576.txt	LTP301	ltpFR2	20	16	FRAGRANCE	599	n/a	n/a	0	0	0
3511888	WORD	wordpools/wasnorm_wordpool_576.txt	LTP301	ltpFR2	20	16	TUNNEL	1519	n/a	n/a	0	0	0
3514674	WORD	wordpools/wasnorm_wordpool_576.txt	LTP301	ltpFR2	20	16	OX	994	n/a	n/a	0	0	0
3517244	WORD	wordpools/wasnorm_wordpool_576.txt	LTP301	ltpFR2	20	16	KNIFE	785	n/a	n/a	0	0	0
3518861	START	n/a	LTP301	ltpFR2	20	n/a	n/a	n/a	24	n/a	n/a	n/a	n/a
3519694	DISTRACTOR	n/a	LTP301	ltpFR2	20	16	n/a	n/a	n/a	n/a	0	0	0
3519711	PROB	n/a	LTP301	ltpFR2	20	n/a	n/a	n/a	24	13	2	2	9
3521729	PROB	n/a	LTP301	ltpFR2	20	n/a	n/a	n/a	24	13	1	7	5
3523547	PROB	n/a	LTP301	ltpFR2	20	n/a	n/a	n/a	24	18	5	6	7
3525997	PROB	n/a	LTP301	ltpFR2	20	n/a	n/a	n/a	24	147	8	3	6
3529637	PROB	n/a	LTP301	ltpFR2	20	n/a	n/a	n/a	24	19	8	3	8
3533588	PROB	n/a	LTP301	ltpFR2	20	n/a	n/a	n/a	24	15	2	5	8
3536156	PROB	n/a	LTP301	ltpFR2	20	n/a	n/a	n/a	24	15	9	1	5
3538279	PROB	n/a	LTP301	ltpFR2	20	n/a	n/a	n/a	24	17	8	9	6
3540560	PROB	n/a	LTP301	ltpFR2	20	n/a	n/a	n/a	24	15	5	6	4
3541958	STOP	n/a	LTP301	ltpFR2	20	n/a	n/a	n/a	24	n/a	n/a	n/a	n/a
3544729	REC_START	n/a	LTP301	ltpFR2	20	16	n/a	n/a	n/a	n/a	0	0	0
3547733	REC_WORD	wordpools/wasnorm_wordpool_576.txt	LTP301	ltpFR2	20	16	KNIFE	785	n/a	n/a	0	0	0
3548695	REC_WORD	wordpools/wasnorm_wordpool_576.txt	LTP301	ltpFR2	20	16	CATTLE	261	n/a	n/a	0	0	0
3549879	REC_WORD	wordpools/wasnorm_wordpool_576.txt	LTP301	ltpFR2	20	16	ORCHID	982	n/a	n/a	0	0	0
3557000	REC_WORD	wordpools/wasnorm_wordpool_576.txt	LTP301	ltpFR2	20	16	BUTCHER	203	n/a	n/a	0	0	0
3559807	REC_WORD	wordpools/wasnorm_wordpool_576.txt	LTP301	ltpFR2	20	16	CHEMIST	292	n/a	n/a	0	0	0
3561097	REC_WORD	wordpools/wasnorm_wordpool_576.txt	LTP301	ltpFR2	20	16	DASHBOARD	441	n/a	n/a	0	0	0
3568804	REC_WORD	wordpools/wasnorm_wordpool_576.txt	LTP301	ltpFR2	20	16	FRAGRANCE	599	n/a	n/a	0	0	0
3578719	REC_WORD	wordpools/wasnorm_wordpool_576.txt	LTP301	ltpFR2	20	16	ICEBERG	731	n/a	n/a	0	0	0
3592095	REC_WORD	wordpools/wasnorm_wordpool_576.txt	LTP301	ltpFR2	20	16	SHORTCAKE	1292	n/a	n/a	0	0	0
3603016	REC_WORD	wordpools/wasnorm_wordpool_576.txt	LTP301	ltpFR2	20	16	GRAPE	654	n/a	n/a	0	0	0
3612363	REC_WORD	wordpools/wasnorm_wordpool_576.txt	LTP301	ltpFR2	20	16	MOP	916	n/a	n/a	0	0	0
3621279	REST_REWET	n/a	LTP301	ltpFR2	20	16	n/a	n/a	n/a	n/a	0	0	0
3775724	DISTRACTOR	n/a	LTP301	ltpFR2	20	17	n/a	n/a	n/a	n/a	0	0	0
3775725	START	n/a	LTP301	ltpFR2	20	n/a	n/a	n/a	25	n/a	n/a	n/a	n/a
3775738	PROB	n/a	LTP301	ltpFR2	20	n/a	n/a	n/a	25	19	6	5	9
3778995	PROB	n/a	LTP301	ltpFR2	20	n/a	n/a	n/a	25	15	7	4	4
3783178	PROB	n/a	LTP301	ltpFR2	20	n/a	n/a	n/a	25	11	5	4	2
3785114	PROB	n/a	LTP301	ltpFR2	20	n/a	n/a	n/a	25	16	7	4	7
3787869	PROB	n/a	LTP301	ltpFR2	20	n/a	n/a	n/a	25	18	8	3	7
3790371	PROB	n/a	LTP301	ltpFR2	20	n/a	n/a	n/a	25	14	8	5	1
3794637	PROB	n/a	LTP301	ltpFR2	20	n/a	n/a	n/a	25	20	9	6	5
3798278	STOP	n/a	LTP301	ltpFR2	20	n/a	n/a	n/a	25	n/a	n/a	n/a	n/a
3800712	WORD	wordpools/wasnorm_wordpool_576.txt	LTP301	ltpFR2	20	17	DUST	508	n/a	n/a	0	0	0
3803415	WORD	wordpools/wasnorm_wordpool_576.txt	LTP301	ltpFR2	20	17	BACKBONE	66	n/a	n/a	0	0	0
3806217	WORD	wordpools/wasnorm_wordpool_576.txt	LTP301	ltpFR2	20	17	PIGMENT	1066	n/a	n/a	0	0	0
3808970	WORD	wordpools/wasnorm_wordpool_576.txt	LTP301	ltpFR2	20	17	BIKE	125	n/a	n/a	0	0	0
3811405	WORD	wordpools/wasnorm_wordpool_576.txt	LTP301	ltpFR2	20	17	GREASE	660	n/a	n/a	0	0	0
3813924	WORD	wordpools/wasnorm_wordpool_576.txt	LTP301	ltpFR2	20	17	CRAYON	401	n/a	n/a	0	0	0
3816509	WORD	wordpools/wasnorm_wordpool_576.txt	LTP301	ltpFR2	20	17	BEAKER	104	n/a	n/a	0	0	0
3819045	WORD	wordpools/wasnorm_wordpool_576.txt	LTP301	ltpFR2	20	17	FLASK	576	n/a	n/a	0	0	0
3821646	WORD	wordpools/wasnorm_wordpool_576.txt	LTP301	ltpFR2	20	17	SLIME	1327	n/a	n/a	0	0	0
3824416	WORD	wordpools/wasnorm_wordpool_576.txt	LTP301	ltpFR2	20	17	GROUND	666	n/a	n/a	0	0	0
3827018	WORD	wordpools/wasnorm_wordpool_576.txt	LTP301	ltpFR2	20	17	BUNNY	198	n/a	n/a	0	0	0
3829652	WORD	wordpools/wasnorm_wordpool_576.txt	LTP301	ltpFR2	20	17	GAVEL	627	n/a	n/a	0	0	0
3832355	WORD	wordpools/wasnorm_wordpool_576.txt	LTP301	ltpFR2	20	17	BRACES	164	n/a	n/a	0	0	0
3835124	WORD	wordpools/wasnorm_wordpool_576.txt	LTP301	ltpFR2	20	17	RATTLE	1170	n/a	n/a	0	0	0
3837726	WORD	wordpools/wasnorm_wordpool_576.txt	LTP301	ltpFR2	20	17	NIGHTGOWN	953	n/a	n/a	0	0	0
3840562	WORD	wordpools/wasnorm_wordpool_576.txt	LTP301	ltpFR2	20	17	TORTOISE	1486	n/a	n/a	0	0	0
3843364	WORD	wordpools/wasnorm_wordpool_576.txt	LTP301	ltpFR2	20	17	ICING	732	n/a	n/a	0	0	0
3846066	WORD	wordpools/wasnorm_wordpool_576.txt	LTP301	ltpFR2	20	17	BINDER	127	n/a	n/a	0	0	0
3848535	WORD	wordpools/wasnorm_wordpool_576.txt	LTP301	ltpFR2	20	17	PAPER	1011	n/a	n/a	0	0	0
3851171	WORD	wordpools/wasnorm_wordpool_576.txt	LTP301	ltpFR2	20	17	FRECKLE	602	n/a	n/a	0	0	0
3853905	WORD	wordpools/wasnorm_wordpool_576.txt	LTP301	ltpFR2	20	17	CHEST	295	n/a	n/a	0	0	0
3856391	WORD	wordpools/wasnorm_wordpool_576.txt	LTP301	ltpFR2	20	17	FILM	565	n/a	n/a	0	0	0
3858859	WORD	wordpools/wasnorm_wordpool_576.txt	LTP301	ltpFR2	20	17	BABY	64	n/a	n/a	0	0	0
3861645	WORD	wordpools/wasnorm_wordpool_576.txt	LTP301	ltpFR2	20	17	COUSIN	392	n/a	n/a	0	0	0
3863264	START	n/a	LTP301	ltpFR2	20	n/a	n/a	n/a	26	n/a	n/a	n/a	n/a
3864229	DISTRACTOR	n/a	LTP301	ltpFR2	20	17	n/a	n/a	n/a	n/a	0	0	0
3864247	PROB	n/a	LTP301	ltpFR2	20	n/a	n/a	n/a	26	15	4	9	2
3866766	PROB	n/a	LTP301	ltpFR2	20	n/a	n/a	n/a	26	16	3	6	7
3869066	PROB	n/a	LTP301	ltpFR2	20	n/a	n/a	n/a	26	24	9	9	8
3871950	PROB	n/a	LTP301	ltpFR2	20	n/a	n/a	n/a	26	11	5	4	2
3875102	PROB	n/a	LTP301	ltpFR2	20	n/a	n/a	n/a	26	15	3	8	3
3877304	PROB	n/a	LTP301	ltpFR2	20	n/a	n/a	n/a	26	15	8	6	1
3879473	PROB	n/a	LTP301	ltpFR2	20	n/a	n/a	n/a	26	6	3	2	1
3881073	PROB	n/a	LTP301	ltpFR2	20	n/a	n/a	n/a	26	21	8	5	9
3886886	STOP	n/a	LTP301	ltpFR2	20	n/a	n/a	n/a	26	n/a	n/a	n/a	n/a
3889031	REC_START	n/a	LTP301	ltpFR2	20	17	n/a	n/a	n/a	n/a	0	0	0
3896144	REC_WORD	wordpools/wasnorm_wordpool_576.txt	LTP301	ltpFR2	20	17	BABY	64	n/a	n/a	0	0	0
3899922	REC_WORD_VV	wordpools/wasnorm_wordpool_576.txt	LTP301	ltpFR2	20	17	<>	-1	n/a	n/a	0	0	0
3900922	REC_WORD_VV	wordpools/wasnorm_wordpool_576.txt	LTP301	ltpFR2	20	17	<>	-1	n/a	n/a	0	0	0
3938254	REC_WORD	wordpools/wasnorm_wordpool_576.txt	LTP301	ltpFR2	20	17	NIGHTGOWN	953	n/a	n/a	0	0	0
3944233	REC_WORD	wordpools/wasnorm_wordpool_576.txt	LTP301	ltpFR2	20	17	BUNNY	198	n/a	n/a	0	0	0
3954879	REC_WORD	wordpools/wasnorm_wordpool_576.txt	LTP301	ltpFR2	20	17	GROUND	666	n/a	n/a	0	0	0
4043194	WORD	wordpools/wasnorm_wordpool_576.txt	LTP301	ltpFR2	20	18	JELLO	754	n/a	n/a	0	0	0
4045986	WORD	wordpools/wasnorm_wordpool_576.txt	LTP301	ltpFR2	20	18	SHRUB	1299	n/a	n/a	0	0	0
4048818	WORD	wordpools/wasnorm_wordpool_576.txt	LTP301	ltpFR2	20	18	SCISSORS	1250	n/a	n/a	0	0	0
4051538	WORD	wordpools/wasnorm_wordpool_576.txt	LTP301	ltpFR2	20	18	CRICKET	408	n/a	n/a	0	0	0
4054006	WORD	wordpools/wasnorm_wordpool_576.txt	LTP301	ltpFR2	20	18	CONTRACT	368	n/a	n/a	0	0	0
4056724	WORD	wordpools/wasnorm_wordpool_576.txt	LTP301	ltpFR2	20	18	CURTAIN	427	n/a	n/a	0	0	0
4059194	WORD	wordpools/wasnorm_wordpool_576.txt	LTP301	ltpFR2	20	18	SPIDER	1351	n/a	n/a	0	0	0
4061980	WORD	wordpools/wasnorm_wordpool_576.txt	LTP301	ltpFR2	20	18	WAITER	1580	n/a	n/a	0	0	0
4064748	WORD	wordpools/wasnorm_wordpool_576.txt	LTP301	ltpFR2	20	18	RECORD	1176	n/a	n/a	0	0	0
4067484	WORD	wordpools/wasnorm_wordpool_576.txt	LTP301	ltpFR2	20	18	HERO	706	n/a	n/a	0	0	0
4070203	WORD	wordpools/wasnorm_wordpool_576.txt	LTP301	ltpFR2	20	18	IDOL	733	n/a	n/a	0	0	0
4072738	WORD	wordpools/wasnorm_wordpool_576.txt	LTP301	ltpFR2	20	18	PUDDLE	1140	n/a	n/a	0	0	0
4075258	WORD	wordpools/wasnorm_wordpool_576.txt	LTP301	ltpFR2	20	18	MARSH	874	n/a	n/a	0	0	0
4077910	WORD	wordpools/wasnorm_wordpool_576.txt	LTP301	ltpFR2	20	18	SERVANT	1271	n/a	n/a	0	0	0
4080562	WORD	wordpools/wasnorm_wordpool_576.txt	LTP301	ltpFR2	20	18	DUSTPAN	509	n/a	n/a	0	0	0
4083297	WORD	wordpools/wasnorm_wordpool_576.txt	LTP301	ltpFR2	20	18	APPLE	33	n/a	n/a	0	0	0
4085815	WORD	wordpools/wasnorm_wordpool_576.txt	LTP301	ltpFR2	20	18	CARROT	249	n/a	n/a	0	0	0
4088284	WORD	wordpools/wasnorm_wordpool_576.txt	LTP301	ltpFR2	20	18	PRIMATE	1123	n/a	n/a	0	0	0
4090735	WORD	wordpools/wasnorm_wordpool_576.txt	LTP301	ltpFR2	20	18	COTTAGE	384	n/a	n/a	0	0	0
4093338	WORD	wordpools/wasnorm_wordpool_576.txt	LTP301	ltpFR2	20	18	SCARECROW	1245	n/a	n/a	0	0	0
4096057	WORD	wordpools/wasnorm_wordpool_576.txt	LTP301	ltpFR2	20	18	CLAMP	316	n/a	n/a	0	0	0
4098876	WORD	wordpools/wasnorm_wordpool_576.txt	LTP301	ltpFR2	20	18	COIN	343	n/a	n/a	0	0	0
4101361	WORD	wordpools/wasnorm_wordpool_576.txt	LTP301	ltpFR2	20	18	GANGSTER	620	n/a	n/a	0	0	0
4104063	WORD	wordpools/wasnorm_wordpool_576.txt	LTP301	ltpFR2	20	18	ACTRESS	6	n/a	n/a	0	0	0
4105680	START	n/a	LTP301	ltpFR2	20	n/a	n/a	n/a	27	n/a	n/a	n/a	n/a
4106785	DISTRACTOR	n/a	LTP301	ltpFR2	20	18	n/a	n/a	n/a	n/a	0	0	0
4106797	PROB	n/a	LTP301	ltpFR2	20	n/a	n/a	n/a	27	20	4	9	7
4109147	PROB	n/a	LTP301	ltpFR2	20	n/a	n/a	n/a	27	21	7	9	5
4111554	PROB	n/a	LTP301	ltpFR2	20	n/a	n/a	n/a	27	18	8	1	9
4113319	PROB	n/a	LTP301	ltpFR2	20	n/a	n/a	n/a	27	20	8	8	4
4116603	PROB	n/a	LTP301	ltpFR2	20	n/a	n/a	n/a	27	20	8	3	9
4119174	PROB	n/a	LTP301	ltpFR2	20	n/a	n/a	n/a	27	14	8	5	1
4121024	PROB	n/a	LTP301	ltpFR2	20	n/a	n/a	n/a	27	12	5	4	3
4122624	PROB	n/a	LTP301	ltpFR2	20	n/a	n/a	n/a	27	16	7	5	4
4125259	PROB	n/a	LTP301	ltpFR2	20	n/a	n/a	n/a	27	8	3	1	4
4126763	PROB	n/a	LTP301	ltpFR2	20	n/a	n/a	n/a	27	10	1	8	1
4129679	STOP	n/a	LTP301	ltpFR2	20	n/a	n/a	n/a	27	n/a	n/a	n/a	n/a
4131635	REC_START	n/a	LTP301	ltpFR2	20	18	n/a	n/a	n/a	n/a	0	0	0
4132974	REC_WORD	wordpools/wasnorm_wordpool_576.txt	LTP301	ltpFR2	20	18	ACTRESS	6	n/a	n/a	0	0	0
4134133	REC_WORD	wordpools/wasnorm_wordpool_576.txt	LTP301	ltpFR2	20	18	COIN	343	n/a	n/a	0	0	0
4135447	REC_WORD	wordpools/wasnorm_wordpool_576.txt	LTP301	ltpFR2	20	18	GANGSTER	620	n/a	n/a	0	0	0
4136444	REC_WORD	wordpools/wasnorm_wordpool_576.txt	LTP301	ltpFR2	20	18	SCISSORS	1250	n/a	n/a	0	0	0
4138720	REC_WORD	wordpools/wasnorm_wordpool_576.txt	LTP301	ltpFR2	20	18	CLAMP	316	n/a	n/a	0	0	0
4140771	REC_WORD	wordpools/wasnorm_wordpool_576.txt	LTP301	ltpFR2	20	18	CONTRACT	368	n/a	n/a	0	0	0
4160197	REC_WORD	wordpools/wasnorm_wordpool_576.txt	LTP301	ltpFR2	20	18	CARROT	249	n/a	n/a	0	0	0
4161191	REC_WORD	wordpools/wasnorm_wordpool_576.txt	LTP301	ltpFR2	20	18	APPLE	33	n/a	n/a	0	0	0
4222063	DISTRACTOR	n/a	LTP301	ltpFR2	20	19	n/a	n/a	n/a	n/a	0	0	0
4222064	START	n/a	LTP301	ltpFR2	20	n/a	n/a	n/a	28	n/a	n/a	n/a	n/a
4222077	PROB	n/a	LTP301	ltpFR2	20	n/a	n/a	n/a	28	12	9	1	2
4224045	PROB	n/a	LTP301	ltpFR2	20	n/a	n/a	n/a	28	21	9	8	6
4226163	PROB	n/a	LTP301	ltpFR2	20	n/a	n/a	n/a	28	16	4	4	8
4228115	PROB	n/a	LTP301	ltpFR2	20	n/a	n/a	n/a	28	9	4	4	1
4229782	PROB	n/a	LTP301	ltpFR2	20	n/a	n/a	n/a	28	21	8	5	8
4233053	PROB	n/a	LTP301	ltpFR2	20	n/a	n/a	n/a	28	23	6	8	9
4235687	PROB	n/a	LTP301	ltpFR2	20	n/a	n/a	n/a	28	26	9	8	9
4238123	PROB	n/a	LTP301	ltpFR2	20	n/a	n/a	n/a	28	7	2	2	3
4240576	PROB	n/a	LTP301	ltpFR2	20	n/a	n/a	n/a	28	14	4	5	5
4246063	STOP	n/a	LTP301	ltpFR2	20	n/a	n/a	n/a	28	n/a	n/a	n/a	n/a
4247000	WORD	wordpools/wasnorm_wordpool_576.txt	LTP301	ltpFR2	20	19	GLOBE	641	n/a	n/a	0	0	0
4249690	WORD	wordpools/wasnorm_wordpool_576.txt	LTP301	ltpFR2	20	19	COCKTAIL	338	n/a	n/a	0	0	0
4252338	WORD	wordpools/wasnorm_wordpool_576.txt	LTP301	ltpFR2	20	19	LIGHTNING	820	n/a	n/a	0	0	0
4254773	WORD	wordpools/wasnorm_wordpool_576.txt	LTP301	ltpFR2	20	19	PREACHER	1119	n/a	n/a	0	0	0
4257359	WORD	wordpools/wasnorm_wordpool_576.txt	LTP301	ltpFR2	20	19	WOMAN	1620	n/a	n/a	0	0	0
4259961	WORD	wordpools/wasnorm_wordpool_576.txt	LTP301	ltpFR2	20	19	RIFLE	1192	n/a	n/a	0	0	0
4262730	WORD	wordpools/wasnorm_wordpool_576.txt	LTP301	ltpFR2	20	19	PATROL	1027	n/a	n/a	0	0	0
4265399	WORD	wordpools/wasnorm_wordpool_576.txt	LTP301	ltpFR2	20	19	AGENT	10	n/a	n/a	0	0	0
4267868	WORD	wordpools/wasnorm_wordpool_576.txt	LTP301	ltpFR2	20	19	ZIPPER	1636	n/a	n/a	0	0	0
4270587	WORD	wordpools/wasnorm_wordpool_576.txt	LTP301	ltpFR2	20	19	IGLOO	734	n/a	n/a	0	0	0
4273025	WORD	wordpools/wasnorm_wordpool_576.txt	LTP301	ltpFR2	20	19	BRANDY	169	n/a	n/a	0	0	0
4275656	WORD	wordpools/wasnorm_wordpool_576.txt	LTP301	ltpFR2	20	19	HUSBAND	728	n/a	n/a	0	0	0
4278110	WORD	wordpools/wasnorm_wordpool_576.txt	LTP301	ltpFR2	20	19	RIVER	1194	n/a	n/a	0	0	0
4280711	WORD	wordpools/wasnorm_wordpool_576.txt	LTP301	ltpFR2	20	19	BEAVER	109	n/a	n/a	0	0	0
4283483	WORD	wordpools/wasnorm_wordpool_576.txt	LTP301	ltpFR2	20	19	SALT	1229	n/a	n/a	0	0	0
4286049	WORD	wordpools/wasnorm_wordpool_576.txt	LTP301	ltpFR2	20	19	CABBAGE	210	n/a	n/a	0	0	0
4288767	WORD	wordpools/wasnorm_wordpool_576.txt	LTP301	ltpFR2	20	19	RADISH	1158	n/a	n/a	0	0	0
4291538	WORD	wordpools/wasnorm_wordpool_576.txt	LTP301	ltpFR2	20	19	GARLIC	624	n/a	n/a	0	0	0
4294140	WORD	wordpools/wasnorm_wordpool_576.txt	LTP301	ltpFR2	20	19	SHELTER	1282	n/a	n/a	0	0	0
4296592	WORD	wordpools/wasnorm_wordpool_576.txt	LTP301	ltpFR2	20	19	WHISKERS	1605	n/a	n/a	0	0	0
4299377	WORD	wordpools/wasnorm_wordpool_576.txt	LTP301	ltpFR2	20	19	SUITCASE	1403	n/a	n/a	0	0	0
4302196	WORD	wordpools/wasnorm_wordpool_576.txt	LTP301	ltpFR2	20	19	WASHER	1592	n/a	n/a	0	0	0
4304714	WORD	wordpools/wasnorm_wordpool_576.txt	LTP301	ltpFR2	20	19	BUCKET	184	n/a	n/a	0	0	0
4307334	WORD	wordpools/wasnorm_wordpool_576.txt	LTP301	ltpFR2	20	19	PERFUME	1049	n/a	n/a	0	0	0
4308953	START	n/a	LTP301	ltpFR2	20	n/a	n/a	n/a	29	n/a	n/a	n/a	n/a
4310043	DISTRACTOR	n/a	LTP301	ltpFR2	20	19	n/a	n/a	n/a	n/a	0	0	0
4310053	PROB	n/a	LTP301	ltpFR2	20	n/a	n/a	n/a	29	15	1	8	6
4312469	PROB	n/a	LTP301	ltpFR2	20	n/a	n/a	n/a	29	15	6	1	8
4314473	PROB	n/a	LTP301	ltpFR2	20	n/a	n/a	n/a	29	21	6	9	6
4316788	PROB	n/a	LTP301	ltpFR2	20	n/a	n/a	n/a	29	24	9	7	8
4319992	PROB	n/a	LTP301	ltpFR2	20	n/a	n/a	n/a	29	14	9	1	4
4321543	PROB	n/a	LTP301	ltpFR2	20	n/a	n/a	n/a	29	24	8	7	9
4323777	PROB	n/a	LTP301	ltpFR2	20	n/a	n/a	n/a	29	15	2	8	5
4325582	PROB	n/a	LTP301	ltpFR2	20	n/a	n/a	n/a	29	16	2	8	6
4328615	PROB	n/a	LTP301	ltpFR2	20	n/a	n/a	n/a	29	19	9	5	5
4330066	PROB	n/a	LTP301	ltpFR2	20	n/a	n/a	n/a	29	7	3	3	1
4331526	STOP	n/a	LTP301	ltpFR2	20	n/a	n/a	n/a	29	n/a	n/a	n/a	n/a
4334773	REC_START	n/a	LTP301	ltpFR2	20	19	n/a	n/a	n/a	n/a	0	0	0
4341714	REC_WORD	wordpools/wasnorm_wordpool_576.txt	LTP301	ltpFR2	20	19	SHELTER	1282	n/a	n/a	0	0	0
4343278	REC_WORD	wordpools/wasnorm_wordpool_576.txt	LTP301	ltpFR2	20	19	SPIDER	1351	n/a	n/a	0	0	0
4371491	REC_WORD	wordpools/wasnorm_wordpool_576.txt	LTP301	ltpFR2	20	19	SCISSORS	1250	n/a	n/a	0	0	0
4372491	REC_WORD_VV	wordpools/wasnorm_wordpool_576.txt	LTP301	ltpFR2	20	19	<>	-1	n/a	n/a	0	0	0
4390091	REC_WORD	wordpools/wasnorm_wordpool_576.txt	LTP301	ltpFR2	20	19	RIVER	1194	n/a	n/a	0	0	0
4396622	REC_WORD	wordpools/wasnorm_wordpool_576.txt	LTP301	ltpFR2	20	19	LIGHTNING	820	n/a	n/a	0	0	0
4425212	WORD	wordpools/wasnorm_wordpool_576.txt	LTP301	ltpFR2	20	20	HAND	683	n/a	n/a	0	0	0
4427759	WORD	wordpools/wasnorm_wordpool_576.txt	LTP301	ltpFR2	20	20	STAMP	1370	n/a	n/a	0	0	0
4430345	WORD	wordpools/wasnorm_wordpool_576.txt	LTP301	ltpFR2	20	20	SEAL	1262	n/a	n/a	0	0	0
4432803	WORD	wordpools/wasnorm_wordpool_576.txt	LTP301	ltpFR2	20	20	JUGGLER	763	n/a	n/a	0	0	0
4435307	WORD	wordpools/wasnorm_wordpool_576.txt	LTP301	ltpFR2	20	20	BALLOON	75	n/a	n/a	0	0	0
4437867	WORD	wordpools/wasnorm_wordpool_576.txt	LTP301	ltpFR2	20	20	JURY	766	n/a	n/a	0	0	0
4440660	WORD	wordpools/wasnorm_wordpool_576.txt	LTP301	ltpFR2	20	20	NAPKIN	937	n/a	n/a	0	0	0
4443338	WORD	wordpools/wasnorm_wordpool_576.txt	LTP301	ltpFR2	20	20	COCOON	339	n/a	n/a	0	0	0
4445991	WORD	wordpools/wasnorm_wordpool_576.txt	LTP301	ltpFR2	20	20	SHOULDER	1294	n/a	n/a	0	0	0
4448602	WORD	wordpools/wasnorm_wordpool_576.txt	LTP301	ltpFR2	20	20	MEAT	883	n/a	n/a	0	0	0
4451344	WORD	wordpools/wasnorm_wordpool_576.txt	LTP301	ltpFR2	20	20	PANTHER	1009	n/a	n/a	0	0	0
4453812	WORD	wordpools/wasnorm_wordpool_576.txt	LTP301	ltpFR2	20	20	SISTER	1312	n/a	n/a	0	0	0
4456558	WORD	wordpools/wasnorm_wordpool_576.txt	LTP301	ltpFR2	20	20	FEMALE	559	n/a	n/a	0	0	0
4459143	WORD	wordpools/wasnorm_wordpool_576.txt	LTP301	ltpFR2	20	20	POWDER	1117	n/a	n/a	0	0	0
4461712	WORD	wordpools/wasnorm_wordpool_576.txt	LTP301	ltpFR2	20	20	HOOK	715	n/a	n/a	0	0	0
4464415	WORD	wordpools/wasnorm_wordpool_576.txt	LTP301	ltpFR2	20	20	CHAMPAGNE	278	n/a	n/a	0	0	0
4466907	WORD	wordpools/wasnorm_wordpool_576.txt	LTP301	ltpFR2	20	20	SCOTCH	1251	n/a	n/a	0	0	0
4469342	WORD	wordpools/wasnorm_wordpool_576.txt	LTP301	ltpFR2	20	20	QUEEN	1149	n/a	n/a	0	0	0
4471820	WORD	wordpools/wasnorm_wordpool_576.txt	LTP301	ltpFR2	20	20	BUG	187	n/a	n/a	0	0	0
4474412	WORD	wordpools/wasnorm_wordpool_576.txt	LTP301	ltpFR2	20	20	PERMIT	1051	n/a	n/a	0	0	0
4477225	WORD	wordpools/wasnorm_wordpool_576.txt	LTP301	ltpFR2	20	20	MASK	876	n/a	n/a	0	0	0
4479993	WORD	wordpools/wasnorm_wordpool_576.txt	LTP301	ltpFR2	20	20	FRIEND	606	n/a	n/a	0	0	0
4482546	WORD	wordpools/wasnorm_wordpool_576.txt	LTP301	ltpFR2	20	20	JUDGE	761	n/a	n/a	0	0	0
4485087	WORD	wordpools/wasnorm_wordpool_576.txt	LTP301	ltpFR2	20	20	SUBWAY	1400	n/a	n/a	0	0	0
4486700	START	n/a	LTP301	ltpFR2	20	n/a	n/a	n/a	30	n/a	n/a	n/a	n/a
4487590	DISTRACTOR	n/a	LTP301	ltpFR2	20	20	n/a	n/a	n/a	n/a	0	0	0
4487600	PROB	n/a	LTP301	ltpFR2	20	n/a	n/a	n/a	30	25	8	7	8
4489516	PROB	n/a	LTP301	ltpFR2	20	n/a	n/a	n/a	30	17	9	4	4
4492619	PROB	n/a	LTP301	ltpFR2	20	n/a	n/a	n/a	30	12	2	9	1
4494035	PROB	n/a	LTP301	ltpFR2	20	n/a	n/a	n/a	30	15	3	9	3
4496942	PROB	n/a	LTP301	ltpFR2	20	n/a	n/a	n/a	30	20	7	9	4
4500626	PROB	n/a	LTP301	ltpFR2	20	n/a	n/a	n/a	30	1	3	1	6
4502210	PROB	n/a	LTP301	ltpFR2	20	n/a	n/a	n/a	30	21	6	8	7
4504297	PROB	n/a	LTP301	ltpFR2	20	n/a	n/a	n/a	30	14	8	4	2
4506296	PROB	n/a	LTP301	ltpFR2	20	n/a	n/a	n/a	30	9	1	1	7
4507697	PROB	n/a	LTP301	ltpFR2	20	n/a	n/a	n/a	30	21	9	9	3
4510542	STOP	n/a	LTP301	ltpFR2	20	n/a	n/a	n/a	30	n/a	n/a	n/a	n/a
4512472	REC_START	n/a	LTP301	ltpFR2	20	20	n/a	n/a	n/a	n/a	0	0	0
4514652	REC_WORD	wordpools/wasnorm_wordpool_576.txt	LTP301	ltpFR2	20	20	HAND	683	n/a	n/a	0	0	0
4516079	REC_WORD	wordpools/wasnorm_wordpool_576.txt	LTP301	ltpFR2	20	20	STAMP	1370	n/a	n/a	0	0	0
4517357	REC_WORD	wordpools/wasnorm_wordpool_576.txt	LTP301	ltpFR2	20	20	SEAL	1262	n/a	n/a	0	0	0
4518899	REC_WORD	wordpools/wasnorm_wordpool_576.txt	LTP301	ltpFR2	20	20	SHOULDER	1294	n/a	n/a	0	0	0
4520629	REC_WORD	wordpools/wasnorm_wordpool_576.txt	LTP301	ltpFR2	20	20	MEAT	883	n/a	n/a	0	0	0
4524931	REC_WORD	wordpools/wasnorm_wordpool_576.txt	LTP301	ltpFR2	20	20	FRIEND	606	n/a	n/a	0	0	0
4526605	REC_WORD	wordpools/wasnorm_wordpool_576.txt	LTP301	ltpFR2	20	20	MASK	876	n/a	n/a	0	0	0
4537481	REC_WORD	wordpools/wasnorm_wordpool_576.txt	LTP301	ltpFR2	20	20	QUEEN	1149	n/a	n/a	0	0	0
4577900	REC_WORD	wordpools/wasnorm_wordpool_576.txt	LTP301	ltpFR2	20	20	GLOBE	641	n/a	n/a	0	0	0
4602945	WORD	wordpools/wasnorm_wordpool_576.txt	LTP301	ltpFR2	20	21	GLASS	639	n/a	n/a	0	0	0
4605496	WORD	wordpools/wasnorm_wordpool_576.txt	LTP301	ltpFR2	20	21	TRENCH	1503	n/a	n/a	0	0	0
4608281	WORD	wordpools/wasnorm_wordpool_576.txt	LTP301	ltpFR2	20	21	HORSE	719	n/a	n/a	0	0	0
4610883	WORD	wordpools/wasnorm_wordpool_576.txt	LTP301	ltpFR2	20	21	BULLET	194	n/a	n/a	0	0	0
4613568	WORD	wordpools/wasnorm_wordpool_576.txt	LTP301	ltpFR2	20	21	WITNESS	1618	n/a	n/a	0	0	0
4616108	WORD	wordpools/wasnorm_wordpool_576.txt	LTP301	ltpFR2	20	21	VICTIM	1562	n/a	n/a	0	0	0
4618859	WORD	wordpools/wasnorm_wordpool_576.txt	LTP301	ltpFR2	20	21	KETCHUP	771	n/a	n/a	0	0	0
4621524	WORD	wordpools/wasnorm_wordpool_576.txt	LTP301	ltpFR2	20	21	COOKBOOK	373	n/a	n/a	0	0	0
4624147	WORD	wordpools/wasnorm_wordpool_576.txt	LTP301	ltpFR2	20	21	SHELF	1280	n/a	n/a	0	0	0
4626895	WORD	wordpools/wasnorm_wordpool_576.txt	LTP301	ltpFR2	20	21	AUTHOR	61	n/a	n/a	0	0	0
4629430	WORD	wordpools/wasnorm_wordpool_576.txt	LTP301	ltpFR2	20	21	MISSILE	900	n/a	n/a	0	0	0
4631937	WORD	wordpools/wasnorm_wordpool_576.txt	LTP301	ltpFR2	20	21	BEEF	113	n/a	n/a	0	0	0
4634722	WORD	wordpools/wasnorm_wordpool_576.txt	LTP301	ltpFR2	20	21	OUTDOORS	987	n/a	n/a	0	0	0
4637458	WORD	wordpools/wasnorm_wordpool_576.txt	LTP301	ltpFR2	20	21	FIREPLACE	570	n/a	n/a	0	0	0
4640122	WORD	wordpools/wasnorm_wordpool_576.txt	LTP301	ltpFR2	20	21	PICTURE	1061	n/a	n/a	0	0	0
4642773	WORD	wordpools/wasnorm_wordpool_576.txt	LTP301	ltpFR2	20	21	JELLY	755	n/a	n/a	0	0	0
4645231	WORD	wordpools/wasnorm_wordpool_576.txt	LTP301	ltpFR2	20	21	SHOVEL	1295	n/a	n/a	0	0	0
4647984	WORD	wordpools/wasnorm_wordpool_576.txt	LTP301	ltpFR2	20	21	COOK	372	n/a	n/a	0	0	0
4650679	WORD	wordpools/wasnorm_wordpool_576.txt	LTP301	ltpFR2	20	21	SWORD	1423	n/a	n/a	0	0	0
4653115	WORD	wordpools/wasnorm_wordpool_576.txt	LTP301	ltpFR2	20	21	GUARD	667	n/a	n/a	0	0	0
4655783	WORD	wordpools/wasnorm_wordpool_576.txt	LTP301	ltpFR2	20	21	BUBBLE	183	n/a	n/a	0	0	0
4658302	WORD	wordpools/wasnorm_wordpool_576.txt	LTP301	ltpFR2	20	21	BATHTUB	100	n/a	n/a	0	0	0
4660760	WORD	wordpools/wasnorm_wordpool_576.txt	LTP301	ltpFR2	20	21	CONVICT	371	n/a	n/a	0	0	0
4663323	WORD	wordpools/wasnorm_wordpool_576.txt	LTP301	ltpFR2	20	21	KITCHEN	778	n/a	n/a	0	0	0
4664931	START	n/a	LTP301	ltpFR2	20	n/a	n/a	n/a	31	n/a	n/a	n/a	n/a
4665821	DISTRACTOR	n/a	LTP301	ltpFR2	20	21	n/a	n/a	n/a	n/a	0	0	0
4665831	PROB	n/a	LTP301	ltpFR2	20	n/a	n/a	n/a	31	16	5	2	7
4668615	PROB	n/a	LTP301	ltpFR2	20	n/a	n/a	n/a	31	17	5	9	3
4671485	PROB	n/a	LTP301	ltpFR2	20	n/a	n/a	n/a	31	13	3	6	4
4672918	PROB	n/a	LTP301	ltpFR2	20	n/a	n/a	n/a	31	15	9	2	4
4674737	PROB	n/a	LTP301	ltpFR2	20	n/a	n/a	n/a	31	11	8	1	2
4676888	PROB	n/a	LTP301	ltpFR2	20	n/a	n/a	n/a	31	10	2	2	6
4679573	PROB	n/a	LTP301	ltpFR2	20	n/a	n/a	n/a	31	4	1	2	1
4681259	PROB	n/a	LTP301	ltpFR2	20	n/a	n/a	n/a	31	15	5	1	9
4682493	PROB	n/a	LTP301	ltpFR2	20	n/a	n/a	n/a	31	22	4	9	9
4685228	PROB	n/a	LTP301	ltpFR2	20	n/a	n/a	n/a	31	10	2	7	1
4688182	STOP	n/a	LTP301	ltpFR2	20	n/a	n/a	n/a	31	n/a	n/a	n/a	n/a
4690852	REC_START	n/a	LTP301	ltpFR2	20	21	n/a	n/a	n/a	n/a	0	0	0
4691370	REC_WORD	wordpools/wasnorm_wordpool_576.txt	LTP301	ltpFR2	20	21	BATHTUB	100	n/a	n/a	0	0	0
4692434	REC_WORD	wordpools/wasnorm_wordpool_576.txt	LTP301	ltpFR2	20	21	BUBBLE	183	n/a	n/a	0	0	0
4693278	REC_WORD	wordpools/wasnorm_wordpool_576.txt	LTP301	ltpFR2	20	21	CONVICT	371	n/a	n/a	0	0	0
4694275	REC_WORD	wordpools/wasnorm_wordpool_576.txt	LTP301	ltpFR2	20	21	KITCHEN	778	n/a	n/a	0	0	0
4696043	REC_WORD	wordpools/wasnorm_wordpool_576.txt	LTP301	ltpFR2	20	21	BOARD	143	n/a	n/a	0	0	0
4698401	REC_WORD	wordpools/wasnorm_wordpool_576.txt	LTP301	ltpFR2	20	21	LAVA	804	n/a	n/a	0	0	0
4705898	REC_WORD	wordpools/wasnorm_wordpool_576.txt	LTP301	ltpFR2	20	21	TRENCH	1503	n/a	n/a	0	0	0
4706955	REC_WORD	wordpools/wasnorm_wordpool_576.txt	LTP301	ltpFR2	20	21	GLASS	639	n/a	n/a	0	0	0
4781313	DISTRACTOR	n/a	LTP301	ltpFR2	20	22	n/a	n/a	n/a	n/a	0	0	0
4781313	START	n/a	LTP301	ltpFR2	20	n/a	n/a	n/a	32	n/a	n/a	n/a	n/a
4781325	PROB	n/a	LTP301	ltpFR2	20	n/a	n/a	n/a	32	5	1	3	1
4782792	PROB	n/a	LTP301	ltpFR2	20	n/a	n/a	n/a	32	18	7	5	6
4785278	PROB	n/a	LTP301	ltpFR2	20	n/a	n/a	n/a	32	21	5	8	8
4789048	PROB	n/a	LTP301	ltpFR2	20	n/a	n/a	n/a	32	14	3	3	8
4790782	PROB	n/a	LTP301	ltpFR2	20	n/a	n/a	n/a	32	16	3	8	5
4795138	PROB	n/a	LTP301	ltpFR2	20	n/a	n/a	n/a	32	19	2	9	8
4797455	PROB	n/a	LTP301	ltpFR2	20	n/a	n/a	n/a	32	22	6	8	8
4799510	PROB	n/a	LTP301	ltpFR2	20	n/a	n/a	n/a	32	23	8	9	6
4802427	PROB	n/a	LTP301	ltpFR2	20	n/a	n/a	n/a	32	11	2	5	4
4804286	STOP	n/a	LTP301	ltpFR2	20	n/a	n/a	n/a	32	n/a	n/a	n/a	n/a
4806199	WORD	wordpools/wasnorm_wordpool_576.txt	LTP301	ltpFR2	20	22	BLADE	134	n/a	n/a	0	0	0
4808766	WORD	wordpools/wasnorm_wordpool_576.txt	LTP301	ltpFR2	20	22	CREATURE	403	n/a	n/a	0	0	0
4811552	WORD	wordpools/wasnorm_wordpool_576.txt	LTP301	ltpFR2	20	22	CUSTARD	429	n/a	n/a	0	0	0
4814020	WORD	wordpools/wasnorm_wordpool_576.txt	LTP301	ltpFR2	20	22	ORANGE	980	n/a	n/a	0	0	0
4816556	WORD	wordpools/wasnorm_wordpool_576.txt	LTP301	ltpFR2	20	22	YACHT	1629	n/a	n/a	0	0	0
4819342	WORD	wordpools/wasnorm_wordpool_576.txt	LTP301	ltpFR2	20	22	REBEL	1172	n/a	n/a	0	0	0
4821927	WORD	wordpools/wasnorm_wordpool_576.txt	LTP301	ltpFR2	20	22	WINDOW	1611	n/a	n/a	0	0	0
4824728	WORD	wordpools/wasnorm_wordpool_576.txt	LTP301	ltpFR2	20	22	DIME	466	n/a	n/a	0	0	0
4827464	WORD	wordpools/wasnorm_wordpool_576.txt	LTP301	ltpFR2	20	22	LEADER	807	n/a	n/a	0	0	0
4830200	WORD	wordpools/wasnorm_wordpool_576.txt	LTP301	ltpFR2	20	22	PASTA	1021	n/a	n/a	0	0	0
4832885	WORD	wordpools/wasnorm_wordpool_576.txt	LTP301	ltpFR2	20	22	TOMBSTONE	1478	n/a	n/a	0	0	0
4835554	WORD	wordpools/wasnorm_wordpool_576.txt	LTP301	ltpFR2	20	22	POISON	1096	n/a	n/a	0	0	0
4838273	WORD	wordpools/wasnorm_wordpool_576.txt	LTP301	ltpFR2	20	22	COUCH	386	n/a	n/a	0	0	0
4840892	WORD	wordpools/wasnorm_wordpool_576.txt	LTP301	ltpFR2	20	22	TABLE	1426	n/a	n/a	0	0	0
4843460	WORD	wordpools/wasnorm_wordpool_576.txt	LTP301	ltpFR2	20	22	SNACK	1331	n/a	n/a	0	0	0
4846262	WORD	wordpools/wasnorm_wordpool_576.txt	LTP301	ltpFR2	20	22	PADDING	999	n/a	n/a	0	0	0
4848998	WORD	wordpools/wasnorm_wordpool_576.txt	LTP301	ltpFR2	20	22	LEOPARD	812	n/a	n/a	0	0	0
4851616	WORD	wordpools/wasnorm_wordpool_576.txt	LTP301	ltpFR2	20	22	CITRUS	313	n/a	n/a	0	0	0
4854434	WORD	wordpools/wasnorm_wordpool_576.txt	LTP301	ltpFR2	20	22	SLUG	1329	n/a	n/a	0	0	0
4857171	WORD	wordpools/wasnorm_wordpool_576.txt	LTP301	ltpFR2	20	22	FUNGUS	614	n/a	n/a	0	0	0
4859923	WORD	wordpools/wasnorm_wordpool_576.txt	LTP301	ltpFR2	20	22	PIGEON	1065	n/a	n/a	0	0	0
4862677	WORD	wordpools/wasnorm_wordpool_576.txt	LTP301	ltpFR2	20	22	CRIB	407	n/a	n/a	0	0	0
4865193	WORD	wordpools/wasnorm_wordpool_576.txt	LTP301	ltpFR2	20	22	FLAG	573	n/a	n/a	0	0	0
4867677	WORD	wordpools/wasnorm_wordpool_576.txt	LTP301	ltpFR2	20	22	ZEBRA	1635	n/a	n/a	0	0	0
4869285	START	n/a	LTP301	ltpFR2	20	n/a	n/a	n/a	33	n/a	n/a	n/a	n/a
4870452	DISTRACTOR	n/a	LTP301	ltpFR2	20	22	n/a	n/a	n/a	n/a	0	0	0
4870464	PROB	n/a	LTP301	ltpFR2	20	n/a	n/a	n/a	33	22	9	5	8
4877354	PROB	n/a	LTP301	ltpFR2	20	n/a	n/a	n/a	33	8	5	1	2
4879757	PROB	n/a	LTP301	ltpFR2	20	n/a	n/a	n/a	33	18	3	9	6
4882610	PROB	n/a	LTP301	ltpFR2	20	n/a	n/a	n/a	33	18	8	1	9
4887331	PROB	n/a	LTP301	ltpFR2	20	n/a	n/a	n/a	33	17	6	7	4
4889866	PROB	n/a	LTP301	ltpFR2	20	n/a	n/a	n/a	33	10	6	3	1
4893284	STOP	n/a	LTP301	ltpFR2	20	n/a	n/a	n/a	33	n/a	n/a	n/a	n/a
4895105	REC_START	n/a	LTP301	ltpFR2	20	22	n/a	n/a	n/a	n/a	0	0	0
4898446	REC_WORD	wordpools/wasnorm_wordpool_576.txt	LTP301	ltpFR2	20	22	REBEL	1172	n/a	n/a	0	0	0
4899427	REC_WORD	wordpools/wasnorm_wordpool_576.txt	LTP301	ltpFR2	20	22	FLAG	573	n/a	n/a	0	0	0
4904079	REC_WORD	wordpools/wasnorm_wordpool_576.txt	LTP301	ltpFR2	20	22	FUNGUS	614	n/a	n/a	0	0	0
4905883	REC_WORD	wordpools/wasnorm_wordpool_576.txt	LTP301	ltpFR2	20	22	BLADE	134	n/a	n/a	0	0	0
4919403	REC_WORD	wordpools/wasnorm_wordpool_576.txt	LTP301	ltpFR2	20	22	CITRUS	313	n/a	n/a	0	0	0
4949608	REC_WORD	wordpools/wasnorm_wordpool_576.txt	LTP301	ltpFR2	20	22	NAPKIN	937	n/a	n/a	0	0	0
4985561	WORD	wordpools/wasnorm_wordpool_576.txt	LTP301	ltpFR2	20	23	SCRIBBLE	1256	n/a	n/a	0	0	0
4988200	WORD	wordpools/wasnorm_wordpool_576.txt	LTP301	ltpFR2	20	23	SLOPE	1328	n/a	n/a	0	0	0
4990751	WORD	wordpools/wasnorm_wordpool_576.txt	LTP301	ltpFR2	20	23	BRANCH	168	n/a	n/a	0	0	0
4993458	WORD	wordpools/wasnorm_wordpool_576.txt	LTP301	ltpFR2	20	23	MAPLE	866	n/a	n/a	0	0	0
4996174	WORD	wordpools/wasnorm_wordpool_576.txt	LTP301	ltpFR2	20	23	TUTU	1524	n/a	n/a	0	0	0
4998825	WORD	wordpools/wasnorm_wordpool_576.txt	LTP301	ltpFR2	20	23	DANCER	437	n/a	n/a	0	0	0
5001314	WORD	wordpools/wasnorm_wordpool_576.txt	LTP301	ltpFR2	20	23	SNAKE	1333	n/a	n/a	0	0	0
5004016	WORD	wordpools/wasnorm_wordpool_576.txt	LTP301	ltpFR2	20	23	SALMON	1227	n/a	n/a	0	0	0
5006732	WORD	wordpools/wasnorm_wordpool_576.txt	LTP301	ltpFR2	20	23	HEADBAND	696	n/a	n/a	0	0	0
5009270	WORD	wordpools/wasnorm_wordpool_576.txt	LTP301	ltpFR2	20	23	HIKER	708	n/a	n/a	0	0	0
5011836	WORD	wordpools/wasnorm_wordpool_576.txt	LTP301	ltpFR2	20	23	PARROT	1015	n/a	n/a	0	0	0
5014455	WORD	wordpools/wasnorm_wordpool_576.txt	LTP301	ltpFR2	20	23	GHETTO	633	n/a	n/a	0	0	0
5017174	WORD	wordpools/wasnorm_wordpool_576.txt	LTP301	ltpFR2	20	23	MAILBOX	857	n/a	n/a	0	0	0
5019742	WORD	wordpools/wasnorm_wordpool_576.txt	LTP301	ltpFR2	20	23	TWEEZERS	1526	n/a	n/a	0	0	0
5022212	WORD	wordpools/wasnorm_wordpool_576.txt	LTP301	ltpFR2	20	23	MONSTER	912	n/a	n/a	0	0	0
5024881	WORD	wordpools/wasnorm_wordpool_576.txt	LTP301	ltpFR2	20	23	PILOT	1070	n/a	n/a	0	0	0
5027566	WORD	wordpools/wasnorm_wordpool_576.txt	LTP301	ltpFR2	20	23	LIPSTICK	829	n/a	n/a	0	0	0
5030318	WORD	wordpools/wasnorm_wordpool_576.txt	LTP301	ltpFR2	20	23	VELVET	1555	n/a	n/a	0	0	0
5032802	WORD	wordpools/wasnorm_wordpool_576.txt	LTP301	ltpFR2	20	23	CANYON	235	n/a	n/a	0	0	0
5035639	WORD	wordpools/wasnorm_wordpool_576.txt	LTP301	ltpFR2	20	23	TURKEY	1520	n/a	n/a	0	0	0
5038359	WORD	wordpools/wasnorm_wordpool_576.txt	LTP301	ltpFR2	20	23	SPARROW	1347	n/a	n/a	0	0	0
5041177	WORD	wordpools/wasnorm_wordpool_576.txt	LTP301	ltpFR2	20	23	HONEY	713	n/a	n/a	0	0	0
5043828	WORD	wordpools/wasnorm_wordpool_576.txt	LTP301	ltpFR2	20	23	BOUQUET	157	n/a	n/a	0	0	0
5046548	WORD	wordpools/wasnorm_wordpool_576.txt	LTP301	ltpFR2	20	23	CHAPEL	280	n/a	n/a	0	0	0
5048167	START	n/a	LTP301	ltpFR2	20	n/a	n/a	n/a	34	n/a	n/a	n/a	n/a
5049149	DISTRACTOR	n/a	LTP301	ltpFR2	20	23	n/a	n/a	n/a	n/a	0	0	0
5049167	PROB	n/a	LTP301	ltpFR2	20	n/a	n/a	n/a	34	16	5	8	3
5054639	PROB	n/a	LTP301	ltpFR2	20	n/a	n/a	n/a	34	15	7	3	5
5056125	PROB	n/a	LTP301	ltpFR2	20	n/a	n/a	n/a	34	21	6	6	9
5058108	PROB	n/a	LTP301	ltpFR2	20	n/a	n/a	n/a	34	15	1	8	6
5060060	PROB	n/a	LTP301	ltpFR2	20	n/a	n/a	n/a	34	23	8	8	7
5062725	PROB	n/a	LTP301	ltpFR2	20	n/a	n/a	n/a	34	15	4	4	7
5065265	PROB	n/a	LTP301	ltpFR2	20	n/a	n/a	n/a	34	12	7	3	2
5066899	PROB	n/a	LTP301	ltpFR2	20	n/a	n/a	n/a	34	13	8	2	3
5072167	STOP	n/a	LTP301	ltpFR2	20	n/a	n/a	n/a	34	n/a	n/a	n/a	n/a
5074105	REC_START	n/a	LTP301	ltpFR2	20	23	n/a	n/a	n/a	n/a	0	0	0
5081634	REC_WORD	wordpools/wasnorm_wordpool_576.txt	LTP301	ltpFR2	20	23	BOUQUET	157	n/a	n/a	0	0	0
5096591	REC_WORD	wordpools/wasnorm_wordpool_576.txt	LTP301	ltpFR2	20	23	ORANGE	980	n/a	n/a	0	0	0
5109961	REC_WORD	wordpools/wasnorm_wordpool_576.txt	LTP301	ltpFR2	20	23	PILOT	1070	n/a	n/a	0	0	0
5143524	REC_WORD	wordpools/wasnorm_wordpool_576.txt	LTP301	ltpFR2	20	23	MARKER	870	n/a	n/a	0	0	0
5202084	DISTRACTOR	n/a	LTP301	ltpFR2	20	24	n/a	n/a	n/a	n/a	0	0	0
5202085	START	n/a	LTP301	ltpFR2	20	n/a	n/a	n/a	35	n/a	n/a	n/a	n/a
5202098	PROB	n/a	LTP301	ltpFR2	20	n/a	n/a	n/a	35	14	4	8	2
5204709	PROB	n/a	LTP301	ltpFR2	20	n/a	n/a	n/a	35	11	1	9	1
5206028	PROB	n/a	LTP301	ltpFR2	20	n/a	n/a	n/a	35	19	9	6	4
5209763	PROB	n/a	LTP301	ltpFR2	20	n/a	n/a	n/a	35	12	1	6	5
5211168	PROB	n/a	LTP301	ltpFR2	20	n/a	n/a	n/a	35	23	8	8	7
5213271	PROB	n/a	LTP301	ltpFR2	20	n/a	n/a	n/a	35	15	7	1	7
5214738	PROB	n/a	LTP301	ltpFR2	20	n/a	n/a	n/a	35	13	1	7	5
5216753	PROB	n/a	LTP301	ltpFR2	20	n/a	n/a	n/a	35	17	7	6	4
5218240	PROB	n/a	LTP301	ltpFR2	20	n/a	n/a	n/a	35	16	9	3	4
5220557	PROB	n/a	LTP301	ltpFR2	20	n/a	n/a	n/a	35	17	4	9	4
5223161	PROB	n/a	LTP301	ltpFR2	20	n/a	n/a	n/a	35	15	6	1	8
5224772	STOP	n/a	LTP301	ltpFR2	20	n/a	n/a	n/a	35	n/a	n/a	n/a	n/a
5227265	WORD	wordpools/wasnorm_wordpool_576.txt	LTP301	ltpFR2	20	24	HARP	689	n/a	n/a	0	0	0
5230068	WORD	wordpools/wasnorm_wordpool_576.txt	LTP301	ltpFR2	20	24	COMET	353	n/a	n/a	0	0	0
5232656	WORD	wordpools/wasnorm_wordpool_576.txt	LTP301	ltpFR2	20	24	FLASHLIGHT	575	n/a	n/a	0	0	0
5235209	WORD	wordpools/wasnorm_wordpool_576.txt	LTP301	ltpFR2	20	24	LADDER	793	n/a	n/a	0	0	0
5237891	WORD	wordpools/wasnorm_wordpool_576.txt	LTP301	ltpFR2	20	24	NECKLACE	940	n/a	n/a	0	0	0
5240360	WORD	wordpools/wasnorm_wordpool_576.txt	LTP301	ltpFR2	20	24	GRAVEL	659	n/a	n/a	0	0	0
5243065	WORD	wordpools/wasnorm_wordpool_576.txt	LTP301	ltpFR2	20	24	FLUTE	585	n/a	n/a	0	0	0
5245697	WORD	wordpools/wasnorm_wordpool_576.txt	LTP301	ltpFR2	20	24	BRICK	172	n/a	n/a	0	0	0
5248150	WORD	wordpools/wasnorm_wordpool_576.txt	LTP301	ltpFR2	20	24	PLASTER	1085	n/a	n/a	0	0	0
5250919	WORD	wordpools/wasnorm_wordpool_576.txt	LTP301	ltpFR2	20	24	DRESSER	496	n/a	n/a	0	0	0
5253421	WORD	wordpools/wasnorm_wordpool_576.txt	LTP301	ltpFR2	20	24	POPCORN	1104	n/a	n/a	0	0	0
5255890	WORD	wordpools/wasnorm_wordpool_576.txt	LTP301	ltpFR2	20	24	BARLEY	88	n/a	n/a	0	0	0
5258525	WORD	wordpools/wasnorm_wordpool_576.txt	LTP301	ltpFR2	20	24	CHILD	299	n/a	n/a	0	0	0
5261127	WORD	wordpools/wasnorm_wordpool_576.txt	LTP301	ltpFR2	20	24	PIMPLE	1071	n/a	n/a	0	0	0
5263695	WORD	wordpools/wasnorm_wordpool_576.txt	LTP301	ltpFR2	20	24	PUPPY	1144	n/a	n/a	0	0	0
5266215	WORD	wordpools/wasnorm_wordpool_576.txt	LTP301	ltpFR2	20	24	CATCHER	258	n/a	n/a	0	0	0
5268783	WORD	wordpools/wasnorm_wordpool_576.txt	LTP301	ltpFR2	20	24	PIANO	1057	n/a	n/a	0	0	0
5271302	WORD	wordpools/wasnorm_wordpool_576.txt	LTP301	ltpFR2	20	24	SIDEWALK	1303	n/a	n/a	0	0	0
5273803	WORD	wordpools/wasnorm_wordpool_576.txt	LTP301	ltpFR2	20	24	CAFE	216	n/a	n/a	0	0	0
5276607	WORD	wordpools/wasnorm_wordpool_576.txt	LTP301	ltpFR2	20	24	COLONEL	348	n/a	n/a	0	0	0
5279209	WORD	wordpools/wasnorm_wordpool_576.txt	LTP301	ltpFR2	20	24	GALLON	618	n/a	n/a	0	0	0
5282011	WORD	wordpools/wasnorm_wordpool_576.txt	LTP301	ltpFR2	20	24	MILK	895	n/a	n/a	0	0	0
5284829	WORD	wordpools/wasnorm_wordpool_576.txt	LTP301	ltpFR2	20	24	LAVA	804	n/a	n/a	0	0	0
5287582	WORD	wordpools/wasnorm_wordpool_576.txt	LTP301	ltpFR2	20	24	DONOR	485	n/a	n/a	0	0	0
5289200	START	n/a	LTP301	ltpFR2	20	n/a	n/a	n/a	36	n/a	n/a	n/a	n/a
5290312	DISTRACTOR	n/a	LTP301	ltpFR2	20	24	n/a	n/a	n/a	n/a	0	0	0
5290334	PROB	n/a	LTP301	ltpFR2	20	n/a	n/a	n/a	36	16	9	2	5
5292299	PROB	n/a	LTP301	ltpFR2	20	n/a	n/a	n/a	36	11	6	4	1
5294001	PROB	n/a	LTP301	ltpFR2	20	n/a	n/a	n/a	36	20	5	9	6
5296456	PROB	n/a	LTP301	ltpFR2	20	n/a	n/a	n/a	36	17	5	6	6
5299389	PROB	n/a	LTP301	ltpFR2	20	n/a	n/a	n/a	36	15	9	2	6
5302061	PROB	n/a	LTP301	ltpFR2	20	n/a	n/a	n/a	36	17	8	8	1
5303645	PROB	n/a	LTP301	ltpFR2	20	n/a	n/a	n/a	36	20	7	9	4
5305680	PROB	n/a	LTP301	ltpFR2	20	n/a	n/a	n/a	36	11	2	4	5
5307797	PROB	n/a	LTP301	ltpFR2	20	n/a	n/a	n/a	36	8	5	1	2
5310650	PROB	n/a	LTP301	ltpFR2	20	n/a	n/a	n/a	36	17	6	2	9
5313006	STOP	n/a	LTP301	ltpFR2	20	n/a	n/a	n/a	36	n/a	n/a	n/a	n/a
5315105	REC_START	n/a	LTP301	ltpFR2	20	24	n/a	n/a	n/a	n/a	0	0	0
5316255	REC_WORD	wordpools/wasnorm_wordpool_576.txt	LTP301	ltpFR2	20	24	GALLON	618	n/a	n/a	0	0	0
5317030	REC_WORD	wordpools/wasnorm_wordpool_576.txt	LTP301	ltpFR2	20	24	MILK	895	n/a	n/a	0	0	0
5318042	REC_WORD	wordpools/wasnorm_wordpool_576.txt	LTP301	ltpFR2	20	24	COLONEL	348	n/a	n/a	0	0	0
5319075	REC_WORD	wordpools/wasnorm_wordpool_576.txt	LTP301	ltpFR2	20	24	CAFE	216	n/a	n/a	0	0	0
5320669	REC_WORD	wordpools/wasnorm_wordpool_576.txt	LTP301	ltpFR2	20	24	PIANO	1057	n/a	n/a	0	0	0
5321499	REC_WORD	wordpools/wasnorm_wordpool_576.txt	LTP301	ltpFR2	20	24	SIDEWALK	1303	n/a	n/a	0	0	0
5322740	REC_WORD	wordpools/wasnorm_wordpool_576.txt	LTP301	ltpFR2	20	24	LAVA	804	n/a	n/a	0	0	0
5332872	REC_WORD	wordpools/wasnorm_wordpool_576.txt	LTP301	ltpFR2	20	24	HARP	689	n/a	n/a	0	0	0
5396832	SESS_END	n/a	LTP301	ltpFR2	20	24	n/a	n/a	n/a	n/a	0	0	0
