onset	duration	trial_type	sample	stim_file	subject	experiment	session	trial	item_name	item_num	list	answer	test_x	test_y	test_z
218.34765625	n/a	SESS_START	447176	n/a	LTP371	ltpFR2	3	n/a	n/a	n/a	n/a	n/a	0	0	0
250.8740234375	n/a	START	513790	n/a	LTP371	ltpFR2	3	n/a	n/a	n/a	-1	n/a	n/a	n/a	n/a
250.88671875	n/a	PROB	513816	n/a	LTP371	ltpFR2	3	n/a	n/a	n/a	-1	13	3	2	8
253.1279296875	n/a	PROB	518406	n/a	LTP371	ltpFR2	3	n/a	n/a	n/a	-1	16	1	6	9
254.49755859375	n/a	PROB	521211	n/a	LTP371	ltpFR2	3	n/a	n/a	n/a	-1	11	2	5	4
256.00390625	n/a	PROB	524296	n/a	LTP371	ltpFR2	3	n/a	n/a	n/a	-1	20	6	6	8
257.37353515625	n/a	PROB	527101	n/a	LTP371	ltpFR2	3	n/a	n/a	n/a	-1	11	1	8	2
258.560546875	n/a	PROB	529532	n/a	LTP371	ltpFR2	3	n/a	n/a	n/a	-1	18	6	7	5
260.28271484375	n/a	PROB	533059	n/a	LTP371	ltpFR2	3	n/a	n/a	n/a	-1	17	8	1	8
261.82470703125	n/a	STOP	536217	n/a	LTP371	ltpFR2	3	n/a	n/a	n/a	-1	n/a	n/a	n/a	n/a
316.4130859375	n/a	DISTRACTOR	648014	n/a	LTP371	ltpFR2	3	1	n/a	n/a	n/a	n/a	0	0	0
316.4130859375	n/a	START	648014	n/a	LTP371	ltpFR2	3	n/a	n/a	n/a	1	n/a	n/a	n/a	n/a
316.43017578125	n/a	PROB	648049	n/a	LTP371	ltpFR2	3	n/a	n/a	n/a	1	16	7	2	7
317.90185546875	n/a	PROB	651063	n/a	LTP371	ltpFR2	3	n/a	n/a	n/a	1	7	4	2	1
319.77392578125	n/a	PROB	654897	n/a	LTP371	ltpFR2	3	n/a	n/a	n/a	1	18	4	6	8
321.095703125	n/a	PROB	657604	n/a	LTP371	ltpFR2	3	n/a	n/a	n/a	1	20	7	5	8
323.68701171875	n/a	PROB	662911	n/a	LTP371	ltpFR2	3	n/a	n/a	n/a	1	14	8	4	2
325.10888671875	n/a	PROB	665823	n/a	LTP371	ltpFR2	3	n/a	n/a	n/a	1	21	7	6	6
327.4658203125	n/a	PROB	670650	n/a	LTP371	ltpFR2	3	n/a	n/a	n/a	1	14	2	7	5
329.5888671875	n/a	PROB	674998	n/a	LTP371	ltpFR2	3	n/a	n/a	n/a	1	16	9	1	6
330.87744140625	n/a	PROB	677637	n/a	LTP371	ltpFR2	3	n/a	n/a	n/a	1	17	2	7	8
333.00048828125	n/a	PROB	681985	n/a	LTP371	ltpFR2	3	n/a	n/a	n/a	1	16	2	9	5
334.95751953125	n/a	PROB	685993	n/a	LTP371	ltpFR2	3	n/a	n/a	n/a	1	14	3	5	6
336.611328125	n/a	PROB	689380	n/a	LTP371	ltpFR2	3	n/a	n/a	n/a	1	18	7	4	7
338.1845703125	n/a	PROB	692602	n/a	LTP371	ltpFR2	3	n/a	n/a	n/a	1	20	8	6	6
339.6884765625	n/a	STOP	695682	n/a	LTP371	ltpFR2	3	n/a	n/a	n/a	1	n/a	n/a	n/a	n/a
341.2763671875	n/a	WORD	698934	wordpools/wasnorm_wordpool_576.txt	LTP371	ltpFR2	3	1	CRICKET	408	n/a	n/a	0	0	0
343.88525390625	n/a	WORD	704277	wordpools/wasnorm_wordpool_576.txt	LTP371	ltpFR2	3	1	COUCH	386	n/a	n/a	0	0	0
346.56005859375	n/a	WORD	709755	wordpools/wasnorm_wordpool_576.txt	LTP371	ltpFR2	3	1	SCISSORS	1250	n/a	n/a	0	0	0
349.001953125	n/a	WORD	714756	wordpools/wasnorm_wordpool_576.txt	LTP371	ltpFR2	3	1	HATCHET	691	n/a	n/a	0	0	0
351.69287109375	n/a	WORD	720267	wordpools/wasnorm_wordpool_576.txt	LTP371	ltpFR2	3	1	FOOT	590	n/a	n/a	0	0	0
354.2509765625	n/a	WORD	725506	wordpools/wasnorm_wordpool_576.txt	LTP371	ltpFR2	3	1	HOSTESS	723	n/a	n/a	0	0	0
357.0107421875	n/a	WORD	731158	wordpools/wasnorm_wordpool_576.txt	LTP371	ltpFR2	3	1	WAITRESS	1581	n/a	n/a	0	0	0
359.51904296875	n/a	WORD	736295	wordpools/wasnorm_wordpool_576.txt	LTP371	ltpFR2	3	1	VALLEY	1545	n/a	n/a	0	0	0
362.16064453125	n/a	WORD	741705	wordpools/wasnorm_wordpool_576.txt	LTP371	ltpFR2	3	1	SUBWAY	1400	n/a	n/a	0	0	0
364.81884765625	n/a	WORD	747149	wordpools/wasnorm_wordpool_576.txt	LTP371	ltpFR2	3	1	SUNRISE	1407	n/a	n/a	0	0	0
367.52783203125	n/a	WORD	752697	wordpools/wasnorm_wordpool_576.txt	LTP371	ltpFR2	3	1	OFFICE	972	n/a	n/a	0	0	0
369.95263671875	n/a	WORD	757663	wordpools/wasnorm_wordpool_576.txt	LTP371	ltpFR2	3	1	AGENT	10	n/a	n/a	0	0	0
372.57666015625	n/a	WORD	763037	wordpools/wasnorm_wordpool_576.txt	LTP371	ltpFR2	3	1	SHOVEL	1295	n/a	n/a	0	0	0
375.11962890625	n/a	WORD	768245	wordpools/wasnorm_wordpool_576.txt	LTP371	ltpFR2	3	1	COFFEE	341	n/a	n/a	0	0	0
377.7431640625	n/a	WORD	773618	wordpools/wasnorm_wordpool_576.txt	LTP371	ltpFR2	3	1	PENGUIN	1044	n/a	n/a	0	0	0
380.51904296875	n/a	WORD	779303	wordpools/wasnorm_wordpool_576.txt	LTP371	ltpFR2	3	1	BLUEPRINT	142	n/a	n/a	0	0	0
383.31103515625	n/a	WORD	785021	wordpools/wasnorm_wordpool_576.txt	LTP371	ltpFR2	3	1	SUNSET	1408	n/a	n/a	0	0	0
385.8193359375	n/a	WORD	790158	wordpools/wasnorm_wordpool_576.txt	LTP371	ltpFR2	3	1	NURSE	963	n/a	n/a	0	0	0
388.22802734375	n/a	WORD	795091	wordpools/wasnorm_wordpool_576.txt	LTP371	ltpFR2	3	1	BRICK	172	n/a	n/a	0	0	0
390.81884765625	n/a	WORD	800397	wordpools/wasnorm_wordpool_576.txt	LTP371	ltpFR2	3	1	COCKTAIL	338	n/a	n/a	0	0	0
393.5947265625	n/a	WORD	806082	wordpools/wasnorm_wordpool_576.txt	LTP371	ltpFR2	3	1	DENTIST	447	n/a	n/a	0	0	0
396.31982421875	n/a	WORD	811663	wordpools/wasnorm_wordpool_576.txt	LTP371	ltpFR2	3	1	PANTHER	1009	n/a	n/a	0	0	0
399.1298828125	n/a	WORD	817418	wordpools/wasnorm_wordpool_576.txt	LTP371	ltpFR2	3	1	FLASK	576	n/a	n/a	0	0	0
401.8388671875	n/a	WORD	822966	wordpools/wasnorm_wordpool_576.txt	LTP371	ltpFR2	3	1	CROWN	415	n/a	n/a	0	0	0
403.4423828125	n/a	START	826250	n/a	LTP371	ltpFR2	3	n/a	n/a	n/a	2	n/a	n/a	n/a	n/a
404.263671875	n/a	DISTRACTOR	827932	n/a	LTP371	ltpFR2	3	1	n/a	n/a	n/a	n/a	0	0	0
404.27880859375	n/a	PROB	827963	n/a	LTP371	ltpFR2	3	n/a	n/a	n/a	2	22	6	7	9
406.318359375	n/a	PROB	832140	n/a	LTP371	ltpFR2	3	n/a	n/a	n/a	2	12	5	1	6
407.974609375	n/a	PROB	835532	n/a	LTP371	ltpFR2	3	n/a	n/a	n/a	2	11	3	3	5
409.24462890625	n/a	PROB	838133	n/a	LTP371	ltpFR2	3	n/a	n/a	n/a	2	17	8	2	7
410.79931640625	n/a	PROB	841317	n/a	LTP371	ltpFR2	3	n/a	n/a	n/a	2	19	2	9	8
412.25439453125	n/a	PROB	844297	n/a	LTP371	ltpFR2	3	n/a	n/a	n/a	2	22	7	7	8
413.658203125	n/a	PROB	847172	n/a	LTP371	ltpFR2	3	n/a	n/a	n/a	2	9	5	1	3
415.54833984375	n/a	PROB	851043	n/a	LTP371	ltpFR2	3	n/a	n/a	n/a	2	9	1	6	2
416.8203125	n/a	PROB	853648	n/a	LTP371	ltpFR2	3	n/a	n/a	n/a	2	17	9	1	7
418.1240234375	n/a	PROB	856318	n/a	LTP371	ltpFR2	3	n/a	n/a	n/a	2	11	7	3	1
419.29296875	n/a	PROB	858712	n/a	LTP371	ltpFR2	3	n/a	n/a	n/a	2	13	5	3	5
420.46435546875	n/a	PROB	861111	n/a	LTP371	ltpFR2	3	n/a	n/a	n/a	2	9	1	4	4
421.55126953125	n/a	PROB	863337	n/a	LTP371	ltpFR2	3	n/a	n/a	n/a	2	12	4	4	8
423.18994140625	n/a	PROB	866693	n/a	LTP371	ltpFR2	3	n/a	n/a	n/a	2	13	2	2	9
424.962890625	n/a	PROB	870324	n/a	LTP371	ltpFR2	3	n/a	n/a	n/a	2	16	2	8	6
426.72900390625	n/a	STOP	873941	n/a	LTP371	ltpFR2	3	n/a	n/a	n/a	2	n/a	n/a	n/a	n/a
429.22705078125	n/a	REC_START	879057	n/a	LTP371	ltpFR2	3	1	n/a	n/a	n/a	n/a	0	0	0
430.95068359375	n/a	REC_WORD	882587	wordpools/wasnorm_wordpool_576.txt	LTP371	ltpFR2	3	1	CRICKET	408	n/a	n/a	0	0	0
432.25	n/a	REC_WORD	885248	wordpools/wasnorm_wordpool_576.txt	LTP371	ltpFR2	3	1	COUCH	386	n/a	n/a	0	0	0
433.6826171875	n/a	REC_WORD	888182	wordpools/wasnorm_wordpool_576.txt	LTP371	ltpFR2	3	1	SCISSORS	1250	n/a	n/a	0	0	0
435.00390625	n/a	REC_WORD	890888	wordpools/wasnorm_wordpool_576.txt	LTP371	ltpFR2	3	1	HATCHET	691	n/a	n/a	0	0	0
437.6875	n/a	REC_WORD	896384	wordpools/wasnorm_wordpool_576.txt	LTP371	ltpFR2	3	1	FOOT	590	n/a	n/a	0	0	0
441.03857421875	n/a	REC_WORD	903247	wordpools/wasnorm_wordpool_576.txt	LTP371	ltpFR2	3	1	OFFICE	972	n/a	n/a	0	0	0
442.24951171875	n/a	REC_WORD	905727	wordpools/wasnorm_wordpool_576.txt	LTP371	ltpFR2	3	1	AGENT	10	n/a	n/a	0	0	0
443.6484375	n/a	REC_WORD	908592	wordpools/wasnorm_wordpool_576.txt	LTP371	ltpFR2	3	1	VALLEY	1545	n/a	n/a	0	0	0
444.80029296875	n/a	REC_WORD	910951	wordpools/wasnorm_wordpool_576.txt	LTP371	ltpFR2	3	1	SUBWAY	1400	n/a	n/a	0	0	0
446.2724609375	n/a	REC_WORD	913966	wordpools/wasnorm_wordpool_576.txt	LTP371	ltpFR2	3	1	SUNRISE	1407	n/a	n/a	0	0	0
447.58154296875	n/a	REC_WORD	916647	wordpools/wasnorm_wordpool_576.txt	LTP371	ltpFR2	3	1	SUNSET	1408	n/a	n/a	0	0	0
449.87255859375	n/a	REC_WORD	921339	wordpools/wasnorm_wordpool_576.txt	LTP371	ltpFR2	3	1	BLUEPRINT	142	n/a	n/a	0	0	0
456.7373046875	n/a	REC_WORD	935398	wordpools/wasnorm_wordpool_576.txt	LTP371	ltpFR2	3	1	DENTIST	447	n/a	n/a	0	0	0
458.44091796875	n/a	REC_WORD	938887	wordpools/wasnorm_wordpool_576.txt	LTP371	ltpFR2	3	1	NURSE	963	n/a	n/a	0	0	0
459.84716796875	n/a	REC_WORD	941767	wordpools/wasnorm_wordpool_576.txt	LTP371	ltpFR2	3	1	PANTHER	1009	n/a	n/a	0	0	0
461.2568359375	n/a	REC_WORD	944654	wordpools/wasnorm_wordpool_576.txt	LTP371	ltpFR2	3	1	CROWN	415	n/a	n/a	0	0	0
462.59912109375	n/a	REC_WORD	947403	wordpools/wasnorm_wordpool_576.txt	LTP371	ltpFR2	3	1	COCKTAIL	338	n/a	n/a	0	0	0
464.177734375	n/a	REC_WORD	950636	wordpools/wasnorm_wordpool_576.txt	LTP371	ltpFR2	3	1	FLASK	576	n/a	n/a	0	0	0
467.263671875	n/a	REC_WORD	956956	wordpools/wasnorm_wordpool_576.txt	LTP371	ltpFR2	3	1	BRICK	172	n/a	n/a	0	0	0
478.78369140625	n/a	REC_WORD	980549	wordpools/wasnorm_wordpool_576.txt	LTP371	ltpFR2	3	1	COFFEE	341	n/a	n/a	0	0	0
519.66650390625	n/a	DISTRACTOR	1064277	n/a	LTP371	ltpFR2	3	2	n/a	n/a	n/a	n/a	0	0	0
519.66650390625	n/a	START	1064277	n/a	LTP371	ltpFR2	3	n/a	n/a	n/a	3	n/a	n/a	n/a	n/a
519.6826171875	n/a	PROB	1064310	n/a	LTP371	ltpFR2	3	n/a	n/a	n/a	3	12	1	7	4
521.58837890625	n/a	PROB	1068213	n/a	LTP371	ltpFR2	3	n/a	n/a	n/a	3	23	9	6	8
523.9140625	n/a	PROB	1072976	n/a	LTP371	ltpFR2	3	n/a	n/a	n/a	3	12	2	7	3
525.7021484375	n/a	PROB	1076638	n/a	LTP371	ltpFR2	3	n/a	n/a	n/a	3	18	9	3	6
527.45703125	n/a	PROB	1080232	n/a	LTP371	ltpFR2	3	n/a	n/a	n/a	3	5	1	2	2
528.5283203125	n/a	PROB	1082426	n/a	LTP371	ltpFR2	3	n/a	n/a	n/a	3	13	4	4	7
529.9501953125	n/a	PROB	1085338	n/a	LTP371	ltpFR2	3	n/a	n/a	n/a	3	17	8	3	6
532.85888671875	n/a	PROB	1091295	n/a	LTP371	ltpFR2	3	n/a	n/a	n/a	3	8	2	5	1
534.34619140625	n/a	PROB	1094341	n/a	LTP371	ltpFR2	3	n/a	n/a	n/a	3	16	5	5	6
535.5	n/a	PROB	1096704	n/a	LTP371	ltpFR2	3	n/a	n/a	n/a	3	18	4	7	7
536.98876953125	n/a	PROB	1099753	n/a	LTP371	ltpFR2	3	n/a	n/a	n/a	3	20	6	9	5
538.77685546875	n/a	PROB	1103415	n/a	LTP371	ltpFR2	3	n/a	n/a	n/a	3	16	7	6	3
540.2158203125	n/a	PROB	1106362	n/a	LTP371	ltpFR2	3	n/a	n/a	n/a	3	17	7	9	1
541.7197265625	n/a	PROB	1109442	n/a	LTP371	ltpFR2	3	n/a	n/a	n/a	3	13	8	3	2
543.24853515625	n/a	STOP	1112573	n/a	LTP371	ltpFR2	3	n/a	n/a	n/a	3	n/a	n/a	n/a	n/a
544.8818359375	n/a	WORD	1115918	wordpools/wasnorm_wordpool_576.txt	LTP371	ltpFR2	3	2	TREAT	1501	n/a	n/a	0	0	0
547.65576171875	n/a	WORD	1121599	wordpools/wasnorm_wordpool_576.txt	LTP371	ltpFR2	3	2	HONEY	713	n/a	n/a	0	0	0
550.314453125	n/a	WORD	1127044	wordpools/wasnorm_wordpool_576.txt	LTP371	ltpFR2	3	2	DAISY	435	n/a	n/a	0	0	0
552.890625	n/a	WORD	1132320	wordpools/wasnorm_wordpool_576.txt	LTP371	ltpFR2	3	2	PERMIT	1051	n/a	n/a	0	0	0
555.58154296875	n/a	WORD	1137831	wordpools/wasnorm_wordpool_576.txt	LTP371	ltpFR2	3	2	BUCKET	184	n/a	n/a	0	0	0
558.3232421875	n/a	WORD	1143446	wordpools/wasnorm_wordpool_576.txt	LTP371	ltpFR2	3	2	SCARF	1246	n/a	n/a	0	0	0
561.01611328125	n/a	WORD	1148961	wordpools/wasnorm_wordpool_576.txt	LTP371	ltpFR2	3	2	PEPPER	1047	n/a	n/a	0	0	0
563.72412109375	n/a	WORD	1154507	wordpools/wasnorm_wordpool_576.txt	LTP371	ltpFR2	3	2	SALT	1229	n/a	n/a	0	0	0
566.34912109375	n/a	WORD	1159883	wordpools/wasnorm_wordpool_576.txt	LTP371	ltpFR2	3	2	FRECKLE	602	n/a	n/a	0	0	0
568.80712890625	n/a	WORD	1164917	wordpools/wasnorm_wordpool_576.txt	LTP371	ltpFR2	3	2	PIGMENT	1066	n/a	n/a	0	0	0
571.26513671875	n/a	WORD	1169951	wordpools/wasnorm_wordpool_576.txt	LTP371	ltpFR2	3	2	NOTEBOOK	959	n/a	n/a	0	0	0
573.77294921875	n/a	WORD	1175087	wordpools/wasnorm_wordpool_576.txt	LTP371	ltpFR2	3	2	SLUG	1329	n/a	n/a	0	0	0
576.248046875	n/a	WORD	1180156	wordpools/wasnorm_wordpool_576.txt	LTP371	ltpFR2	3	2	RAZOR	1171	n/a	n/a	0	0	0
578.90673828125	n/a	WORD	1185601	wordpools/wasnorm_wordpool_576.txt	LTP371	ltpFR2	3	2	INFANT	737	n/a	n/a	0	0	0
581.49755859375	n/a	WORD	1190907	wordpools/wasnorm_wordpool_576.txt	LTP371	ltpFR2	3	2	LETTUCE	814	n/a	n/a	0	0	0
584.224609375	n/a	WORD	1196492	wordpools/wasnorm_wordpool_576.txt	LTP371	ltpFR2	3	2	SERVER	1272	n/a	n/a	0	0	0
586.71435546875	n/a	WORD	1201591	wordpools/wasnorm_wordpool_576.txt	LTP371	ltpFR2	3	2	FINGER	567	n/a	n/a	0	0	0
589.20654296875	n/a	WORD	1206695	wordpools/wasnorm_wordpool_576.txt	LTP371	ltpFR2	3	2	TURTLE	1522	n/a	n/a	0	0	0
591.79736328125	n/a	WORD	1212001	wordpools/wasnorm_wordpool_576.txt	LTP371	ltpFR2	3	2	PLAID	1080	n/a	n/a	0	0	0
594.47314453125	n/a	WORD	1217481	wordpools/wasnorm_wordpool_576.txt	LTP371	ltpFR2	3	2	COCOON	339	n/a	n/a	0	0	0
596.998046875	n/a	WORD	1222652	wordpools/wasnorm_wordpool_576.txt	LTP371	ltpFR2	3	2	ROCKET	1202	n/a	n/a	0	0	0
599.43896484375	n/a	WORD	1227651	wordpools/wasnorm_wordpool_576.txt	LTP371	ltpFR2	3	2	COMET	353	n/a	n/a	0	0	0
602.01513671875	n/a	WORD	1232927	wordpools/wasnorm_wordpool_576.txt	LTP371	ltpFR2	3	2	STAPLE	1371	n/a	n/a	0	0	0
604.7392578125	n/a	WORD	1238506	wordpools/wasnorm_wordpool_576.txt	LTP371	ltpFR2	3	2	PEDAL	1037	n/a	n/a	0	0	0
606.34521484375	n/a	START	1241795	n/a	LTP371	ltpFR2	3	n/a	n/a	n/a	4	n/a	n/a	n/a	n/a
607.53173828125	n/a	DISTRACTOR	1244225	n/a	LTP371	ltpFR2	3	2	n/a	n/a	n/a	n/a	0	0	0
607.5478515625	n/a	PROB	1244258	n/a	LTP371	ltpFR2	3	n/a	n/a	n/a	4	19	5	6	8
609.32080078125	n/a	PROB	1247889	n/a	LTP371	ltpFR2	3	n/a	n/a	n/a	4	15	6	4	5
611.177734375	n/a	PROB	1251692	n/a	LTP371	ltpFR2	3	n/a	n/a	n/a	4	17	7	4	6
612.630859375	n/a	PROB	1254668	n/a	LTP371	ltpFR2	3	n/a	n/a	n/a	4	17	7	7	3
614.15380859375	n/a	PROB	1257787	n/a	LTP371	ltpFR2	3	n/a	n/a	n/a	4	10	5	1	4
615.724609375	n/a	PROB	1261004	n/a	LTP371	ltpFR2	3	n/a	n/a	n/a	4	15	2	4	9
619.13671875	n/a	PROB	1267992	n/a	LTP371	ltpFR2	3	n/a	n/a	n/a	4	17	5	3	9
621.4423828125	n/a	PROB	1272714	n/a	LTP371	ltpFR2	3	n/a	n/a	n/a	4	18	8	1	9
622.6806640625	n/a	PROB	1275250	n/a	LTP371	ltpFR2	3	n/a	n/a	n/a	4	10	3	1	6
624.185546875	n/a	PROB	1278332	n/a	LTP371	ltpFR2	3	n/a	n/a	n/a	4	21	9	4	8
625.9912109375	n/a	PROB	1282030	n/a	LTP371	ltpFR2	3	n/a	n/a	n/a	4	13	3	1	9
627.3955078125	n/a	PROB	1284906	n/a	LTP371	ltpFR2	3	n/a	n/a	n/a	4	12	3	5	4
628.7666015625	n/a	PROB	1287714	n/a	LTP371	ltpFR2	3	n/a	n/a	n/a	4	14	5	3	6
630.146484375	n/a	STOP	1290540	n/a	LTP371	ltpFR2	3	n/a	n/a	n/a	4	n/a	n/a	n/a	n/a
632.1455078125	n/a	REC_START	1294634	n/a	LTP371	ltpFR2	3	2	n/a	n/a	n/a	n/a	0	0	0
638.71728515625	n/a	REC_WORD	1308093	wordpools/wasnorm_wordpool_576.txt	LTP371	ltpFR2	3	2	SLUG	1329	n/a	n/a	0	0	0
639.98095703125	n/a	REC_WORD	1310681	wordpools/wasnorm_wordpool_576.txt	LTP371	ltpFR2	3	2	TURTLE	1522	n/a	n/a	0	0	0
641.31396484375	n/a	REC_WORD	1313411	wordpools/wasnorm_wordpool_576.txt	LTP371	ltpFR2	3	2	BUCKET	184	n/a	n/a	0	0	0
642.544921875	n/a	REC_WORD	1315932	wordpools/wasnorm_wordpool_576.txt	LTP371	ltpFR2	3	2	PERMIT	1051	n/a	n/a	0	0	0
644.02587890625	n/a	REC_WORD	1318965	wordpools/wasnorm_wordpool_576.txt	LTP371	ltpFR2	3	2	TREAT	1501	n/a	n/a	0	0	0
645.47412109375	n/a	REC_WORD	1321931	wordpools/wasnorm_wordpool_576.txt	LTP371	ltpFR2	3	2	HONEY	713	n/a	n/a	0	0	0
646.81396484375	n/a	REC_WORD	1324675	wordpools/wasnorm_wordpool_576.txt	LTP371	ltpFR2	3	2	DAISY	435	n/a	n/a	0	0	0
647.88671875	n/a	REC_WORD	1326872	wordpools/wasnorm_wordpool_576.txt	LTP371	ltpFR2	3	2	SALT	1229	n/a	n/a	0	0	0
649.134765625	n/a	REC_WORD	1329428	wordpools/wasnorm_wordpool_576.txt	LTP371	ltpFR2	3	2	PEPPER	1047	n/a	n/a	0	0	0
652.6318359375	n/a	REC_WORD	1336590	wordpools/wasnorm_wordpool_576.txt	LTP371	ltpFR2	3	2	SCARF	1246	n/a	n/a	0	0	0
658.484375	n/a	REC_WORD	1348576	wordpools/wasnorm_wordpool_576.txt	LTP371	ltpFR2	3	2	NOTEBOOK	959	n/a	n/a	0	0	0
659.46435546875	n/a	REC_WORD	1350583	wordpools/wasnorm_wordpool_576.txt	LTP371	ltpFR2	3	2	STAPLE	1371	n/a	n/a	0	0	0
661.46630859375	n/a	REC_WORD	1354683	wordpools/wasnorm_wordpool_576.txt	LTP371	ltpFR2	3	2	INFANT	737	n/a	n/a	0	0	0
662.5654296875	n/a	REC_WORD	1356934	wordpools/wasnorm_wordpool_576.txt	LTP371	ltpFR2	3	2	LETTUCE	814	n/a	n/a	0	0	0
665.4423828125	n/a	REC_WORD	1362826	wordpools/wasnorm_wordpool_576.txt	LTP371	ltpFR2	3	2	TURTLE	1522	n/a	n/a	0	0	0
666.53955078125	n/a	REC_WORD	1365073	wordpools/wasnorm_wordpool_576.txt	LTP371	ltpFR2	3	2	PLANE	1081	n/a	n/a	0	0	0
668.22314453125	n/a	REC_WORD	1368521	wordpools/wasnorm_wordpool_576.txt	LTP371	ltpFR2	3	2	ROCKET	1202	n/a	n/a	0	0	0
669.3193359375	n/a	REC_WORD	1370766	wordpools/wasnorm_wordpool_576.txt	LTP371	ltpFR2	3	2	COMET	353	n/a	n/a	0	0	0
686.1025390625	n/a	REC_WORD	1405138	wordpools/wasnorm_wordpool_576.txt	LTP371	ltpFR2	3	2	FRECKLE	602	n/a	n/a	0	0	0
687.419921875	n/a	REC_WORD	1407836	wordpools/wasnorm_wordpool_576.txt	LTP371	ltpFR2	3	2	PIGMENT	1066	n/a	n/a	0	0	0
722.6005859375	n/a	WORD	1479886	wordpools/wasnorm_wordpool_576.txt	LTP371	ltpFR2	3	3	WOMAN	1620	n/a	n/a	0	0	0
725.04248046875	n/a	WORD	1484887	wordpools/wasnorm_wordpool_576.txt	LTP371	ltpFR2	3	3	NECKLACE	940	n/a	n/a	0	0	0
727.4833984375	n/a	WORD	1489886	wordpools/wasnorm_wordpool_576.txt	LTP371	ltpFR2	3	3	POLICE	1098	n/a	n/a	0	0	0
730.20947265625	n/a	WORD	1495469	wordpools/wasnorm_wordpool_576.txt	LTP371	ltpFR2	3	3	INMATE	738	n/a	n/a	0	0	0
732.86865234375	n/a	WORD	1500915	wordpools/wasnorm_wordpool_576.txt	LTP371	ltpFR2	3	3	BUTCHER	203	n/a	n/a	0	0	0
735.4921875	n/a	WORD	1506288	wordpools/wasnorm_wordpool_576.txt	LTP371	ltpFR2	3	3	TYPIST	1532	n/a	n/a	0	0	0
738.2685546875	n/a	WORD	1511974	wordpools/wasnorm_wordpool_576.txt	LTP371	ltpFR2	3	3	LACE	792	n/a	n/a	0	0	0
740.75927734375	n/a	WORD	1517075	wordpools/wasnorm_wordpool_576.txt	LTP371	ltpFR2	3	3	YACHT	1629	n/a	n/a	0	0	0
743.53515625	n/a	WORD	1522760	wordpools/wasnorm_wordpool_576.txt	LTP371	ltpFR2	3	3	WAGON	1578	n/a	n/a	0	0	0
746.02734375	n/a	WORD	1527864	wordpools/wasnorm_wordpool_576.txt	LTP371	ltpFR2	3	3	CAMEL	223	n/a	n/a	0	0	0
748.80224609375	n/a	WORD	1533547	wordpools/wasnorm_wordpool_576.txt	LTP371	ltpFR2	3	3	PAPER	1011	n/a	n/a	0	0	0
751.22607421875	n/a	WORD	1538511	wordpools/wasnorm_wordpool_576.txt	LTP371	ltpFR2	3	3	FLESH	579	n/a	n/a	0	0	0
753.76806640625	n/a	WORD	1543717	wordpools/wasnorm_wordpool_576.txt	LTP371	ltpFR2	3	3	SKIRT	1319	n/a	n/a	0	0	0
756.52685546875	n/a	WORD	1549367	wordpools/wasnorm_wordpool_576.txt	LTP371	ltpFR2	3	3	RUST	1219	n/a	n/a	0	0	0
759.3017578125	n/a	WORD	1555050	wordpools/wasnorm_wordpool_576.txt	LTP371	ltpFR2	3	3	LUMBER	848	n/a	n/a	0	0	0
761.8447265625	n/a	WORD	1560258	wordpools/wasnorm_wordpool_576.txt	LTP371	ltpFR2	3	3	SNACK	1331	n/a	n/a	0	0	0
764.28466796875	n/a	WORD	1565255	wordpools/wasnorm_wordpool_576.txt	LTP371	ltpFR2	3	3	BANQUET	86	n/a	n/a	0	0	0
766.759765625	n/a	WORD	1570324	wordpools/wasnorm_wordpool_576.txt	LTP371	ltpFR2	3	3	BRAKE	166	n/a	n/a	0	0	0
769.25048828125	n/a	WORD	1575425	wordpools/wasnorm_wordpool_576.txt	LTP371	ltpFR2	3	3	ROBOT	1200	n/a	n/a	0	0	0
772.02734375	n/a	WORD	1581112	wordpools/wasnorm_wordpool_576.txt	LTP371	ltpFR2	3	3	WASHER	1592	n/a	n/a	0	0	0
774.80224609375	n/a	WORD	1586795	wordpools/wasnorm_wordpool_576.txt	LTP371	ltpFR2	3	3	CONVICT	371	n/a	n/a	0	0	0
777.22607421875	n/a	WORD	1591759	wordpools/wasnorm_wordpool_576.txt	LTP371	ltpFR2	3	3	DASHBOARD	441	n/a	n/a	0	0	0
780.0361328125	n/a	WORD	1597514	wordpools/wasnorm_wordpool_576.txt	LTP371	ltpFR2	3	3	GRAVE	658	n/a	n/a	0	0	0
782.52685546875	n/a	WORD	1602615	wordpools/wasnorm_wordpool_576.txt	LTP371	ltpFR2	3	3	VELVET	1555	n/a	n/a	0	0	0
784.1328125	n/a	START	1605904	n/a	LTP371	ltpFR2	3	n/a	n/a	n/a	5	n/a	n/a	n/a	n/a
785.23486328125	n/a	DISTRACTOR	1608161	n/a	LTP371	ltpFR2	3	3	n/a	n/a	n/a	n/a	0	0	0
785.251953125	n/a	PROB	1608196	n/a	LTP371	ltpFR2	3	n/a	n/a	n/a	5	17	6	7	4
787.27490234375	n/a	PROB	1612339	n/a	LTP371	ltpFR2	3	n/a	n/a	n/a	5	8	4	2	2
788.69677734375	n/a	PROB	1615251	n/a	LTP371	ltpFR2	3	n/a	n/a	n/a	5	19	5	7	7
790.36865234375	n/a	PROB	1618675	n/a	LTP371	ltpFR2	3	n/a	n/a	n/a	5	15	6	7	2
792.40869140625	n/a	PROB	1622853	n/a	LTP371	ltpFR2	3	n/a	n/a	n/a	5	6	1	3	2
793.86376953125	n/a	PROB	1625833	n/a	LTP371	ltpFR2	3	n/a	n/a	n/a	5	12	3	8	1
795.70263671875	n/a	PROB	1629599	n/a	LTP371	ltpFR2	3	n/a	n/a	n/a	5	24	8	9	7
798.62841796875	n/a	PROB	1635591	n/a	LTP371	ltpFR2	3	n/a	n/a	n/a	5	9	1	1	7
799.8505859375	n/a	PROB	1638094	n/a	LTP371	ltpFR2	3	n/a	n/a	n/a	5	15	3	8	4
801.1875	n/a	PROB	1640832	n/a	LTP371	ltpFR2	3	n/a	n/a	n/a	5	13	1	4	7
802.5576171875	n/a	PROB	1643638	n/a	LTP371	ltpFR2	3	n/a	n/a	n/a	5	18	5	5	8
803.7783203125	n/a	PROB	1646138	n/a	LTP371	ltpFR2	3	n/a	n/a	n/a	5	20	7	7	6
806.03662109375	n/a	PROB	1650763	n/a	LTP371	ltpFR2	3	n/a	n/a	n/a	5	19	4	8	7
807.6416015625	n/a	STOP	1654050	n/a	LTP371	ltpFR2	3	n/a	n/a	n/a	5	n/a	n/a	n/a	n/a
810.01611328125	n/a	REC_START	1658913	n/a	LTP371	ltpFR2	3	3	n/a	n/a	n/a	n/a	0	0	0
811.34619140625	n/a	REC_WORD	1661637	wordpools/wasnorm_wordpool_576.txt	LTP371	ltpFR2	3	3	TYPIST	1532	n/a	n/a	0	0	0
812.54345703125	n/a	REC_WORD	1664089	wordpools/wasnorm_wordpool_576.txt	LTP371	ltpFR2	3	3	DASHBOARD	441	n/a	n/a	0	0	0
814.47509765625	n/a	REC_WORD	1668045	wordpools/wasnorm_wordpool_576.txt	LTP371	ltpFR2	3	3	WOMAN	1620	n/a	n/a	0	0	0
815.64404296875	n/a	REC_WORD	1670439	wordpools/wasnorm_wordpool_576.txt	LTP371	ltpFR2	3	3	NECKLACE	940	n/a	n/a	0	0	0
816.8681640625	n/a	REC_WORD	1672946	wordpools/wasnorm_wordpool_576.txt	LTP371	ltpFR2	3	3	POLICE	1098	n/a	n/a	0	0	0
818.087890625	n/a	REC_WORD	1675444	wordpools/wasnorm_wordpool_576.txt	LTP371	ltpFR2	3	3	INMATE	738	n/a	n/a	0	0	0
819.34423828125	n/a	REC_WORD	1678017	wordpools/wasnorm_wordpool_576.txt	LTP371	ltpFR2	3	3	CONVICT	371	n/a	n/a	0	0	0
821.453125	n/a	REC_WORD	1682336	wordpools/wasnorm_wordpool_576.txt	LTP371	ltpFR2	3	3	BANQUET	86	n/a	n/a	0	0	0
824.22216796875	n/a	REC_WORD	1688007	wordpools/wasnorm_wordpool_576.txt	LTP371	ltpFR2	3	3	BUTCHER	203	n/a	n/a	0	0	0
825.47802734375	n/a	REC_WORD	1690579	wordpools/wasnorm_wordpool_576.txt	LTP371	ltpFR2	3	3	YACHT	1629	n/a	n/a	0	0	0
826.48876953125	n/a	REC_WORD	1692649	wordpools/wasnorm_wordpool_576.txt	LTP371	ltpFR2	3	3	FLESH	579	n/a	n/a	0	0	0
828.7119140625	n/a	REC_WORD	1697202	wordpools/wasnorm_wordpool_576.txt	LTP371	ltpFR2	3	3	CAMEL	223	n/a	n/a	0	0	0
828.7216796875	n/a	REC_WORD	1697222	wordpools/wasnorm_wordpool_576.txt	LTP371	ltpFR2	3	3	CAMEL	223	n/a	n/a	0	0	0
829.876953125	n/a	REC_WORD	1699588	wordpools/wasnorm_wordpool_576.txt	LTP371	ltpFR2	3	3	PAPER	1011	n/a	n/a	0	0	0
832.5625	n/a	REC_WORD	1705088	wordpools/wasnorm_wordpool_576.txt	LTP371	ltpFR2	3	3	LACE	792	n/a	n/a	0	0	0
834.1845703125	n/a	REC_WORD	1708410	wordpools/wasnorm_wordpool_576.txt	LTP371	ltpFR2	3	3	VELVET	1555	n/a	n/a	0	0	0
836.07666015625	n/a	REC_WORD	1712285	wordpools/wasnorm_wordpool_576.txt	LTP371	ltpFR2	3	3	SKIRT	1319	n/a	n/a	0	0	0
841.33056640625	n/a	REC_WORD	1723045	wordpools/wasnorm_wordpool_576.txt	LTP371	ltpFR2	3	3	RUST	1219	n/a	n/a	0	0	0
843.8212890625	n/a	REC_WORD	1728146	wordpools/wasnorm_wordpool_576.txt	LTP371	ltpFR2	3	3	WAGON	1578	n/a	n/a	0	0	0
900.4716796875	n/a	WORD	1844166	wordpools/wasnorm_wordpool_576.txt	LTP371	ltpFR2	3	4	HAND	683	n/a	n/a	0	0	0
903.2646484375	n/a	WORD	1849886	wordpools/wasnorm_wordpool_576.txt	LTP371	ltpFR2	3	4	QUARTER	1148	n/a	n/a	0	0	0
905.806640625	n/a	WORD	1855092	wordpools/wasnorm_wordpool_576.txt	LTP371	ltpFR2	3	4	LODGE	839	n/a	n/a	0	0	0
908.46435546875	n/a	WORD	1860535	wordpools/wasnorm_wordpool_576.txt	LTP371	ltpFR2	3	4	GRAVEL	659	n/a	n/a	0	0	0
910.8896484375	n/a	WORD	1865502	wordpools/wasnorm_wordpool_576.txt	LTP371	ltpFR2	3	4	KEEPER	769	n/a	n/a	0	0	0
913.66455078125	n/a	WORD	1871185	wordpools/wasnorm_wordpool_576.txt	LTP371	ltpFR2	3	4	GRILL	661	n/a	n/a	0	0	0
916.25634765625	n/a	WORD	1876493	wordpools/wasnorm_wordpool_576.txt	LTP371	ltpFR2	3	4	SADDLE	1221	n/a	n/a	0	0	0
918.99951171875	n/a	WORD	1882111	wordpools/wasnorm_wordpool_576.txt	LTP371	ltpFR2	3	4	SIDEWALK	1303	n/a	n/a	0	0	0
921.47314453125	n/a	WORD	1887177	wordpools/wasnorm_wordpool_576.txt	LTP371	ltpFR2	3	4	DRUG	501	n/a	n/a	0	0	0
923.96533203125	n/a	WORD	1892281	wordpools/wasnorm_wordpool_576.txt	LTP371	ltpFR2	3	4	NIGHTGOWN	953	n/a	n/a	0	0	0
926.77294921875	n/a	WORD	1898031	wordpools/wasnorm_wordpool_576.txt	LTP371	ltpFR2	3	4	SHIRT	1287	n/a	n/a	0	0	0
929.26513671875	n/a	WORD	1903135	wordpools/wasnorm_wordpool_576.txt	LTP371	ltpFR2	3	4	EXPERT	543	n/a	n/a	0	0	0
931.8408203125	n/a	WORD	1908410	wordpools/wasnorm_wordpool_576.txt	LTP371	ltpFR2	3	4	SHELF	1280	n/a	n/a	0	0	0
934.39794921875	n/a	WORD	1913647	wordpools/wasnorm_wordpool_576.txt	LTP371	ltpFR2	3	4	GLOVE	642	n/a	n/a	0	0	0
937.140625	n/a	WORD	1919264	wordpools/wasnorm_wordpool_576.txt	LTP371	ltpFR2	3	4	VAGRANT	1544	n/a	n/a	0	0	0
939.78173828125	n/a	WORD	1924673	wordpools/wasnorm_wordpool_576.txt	LTP371	ltpFR2	3	4	HOUND	724	n/a	n/a	0	0	0
942.4404296875	n/a	WORD	1930118	wordpools/wasnorm_wordpool_576.txt	LTP371	ltpFR2	3	4	FLASHLIGHT	575	n/a	n/a	0	0	0
945.08349609375	n/a	WORD	1935531	wordpools/wasnorm_wordpool_576.txt	LTP371	ltpFR2	3	4	SWITCH	1422	n/a	n/a	0	0	0
947.70751953125	n/a	WORD	1940905	wordpools/wasnorm_wordpool_576.txt	LTP371	ltpFR2	3	4	GUARD	667	n/a	n/a	0	0	0
950.2822265625	n/a	WORD	1946178	wordpools/wasnorm_wordpool_576.txt	LTP371	ltpFR2	3	4	TOMBSTONE	1478	n/a	n/a	0	0	0
952.9755859375	n/a	WORD	1951694	wordpools/wasnorm_wordpool_576.txt	LTP371	ltpFR2	3	4	BINDER	127	n/a	n/a	0	0	0
955.69921875	n/a	WORD	1957272	wordpools/wasnorm_wordpool_576.txt	LTP371	ltpFR2	3	4	SKETCH	1315	n/a	n/a	0	0	0
958.2744140625	n/a	WORD	1962546	wordpools/wasnorm_wordpool_576.txt	LTP371	ltpFR2	3	4	PICTURE	1061	n/a	n/a	0	0	0
960.9169921875	n/a	WORD	1967958	wordpools/wasnorm_wordpool_576.txt	LTP371	ltpFR2	3	4	MUMMY	932	n/a	n/a	0	0	0
962.52197265625	n/a	START	1971245	n/a	LTP371	ltpFR2	3	n/a	n/a	n/a	6	n/a	n/a	n/a	n/a
963.34716796875	n/a	DISTRACTOR	1972935	n/a	LTP371	ltpFR2	3	4	n/a	n/a	n/a	n/a	0	0	0
963.35693359375	n/a	PROB	1972955	n/a	LTP371	ltpFR2	3	n/a	n/a	n/a	6	11	5	5	1
964.7451171875	n/a	PROB	1975798	n/a	LTP371	ltpFR2	3	n/a	n/a	n/a	6	8	4	3	1
966.201171875	n/a	PROB	1978780	n/a	LTP371	ltpFR2	3	n/a	n/a	n/a	6	7	4	2	1
967.60498046875	n/a	PROB	1981655	n/a	LTP371	ltpFR2	3	n/a	n/a	n/a	6	16	2	8	6
968.7919921875	n/a	PROB	1984086	n/a	LTP371	ltpFR2	3	n/a	n/a	n/a	6	17	4	5	8
970.296875	n/a	PROB	1987168	n/a	LTP371	ltpFR2	3	n/a	n/a	n/a	6	25	9	9	7
972.06982421875	n/a	PROB	1990799	n/a	LTP371	ltpFR2	3	n/a	n/a	n/a	6	19	9	8	2
973.69091796875	n/a	PROB	1994119	n/a	LTP371	ltpFR2	3	n/a	n/a	n/a	6	9	2	4	3
975.14697265625	n/a	PROB	1997101	n/a	LTP371	ltpFR2	3	n/a	n/a	n/a	6	21	6	9	6
976.8857421875	n/a	PROB	2000662	n/a	LTP371	ltpFR2	3	n/a	n/a	n/a	6	19	9	7	3
978.2216796875	n/a	PROB	2003398	n/a	LTP371	ltpFR2	3	n/a	n/a	n/a	6	21	5	9	7
979.79345703125	n/a	PROB	2006617	n/a	LTP371	ltpFR2	3	n/a	n/a	n/a	6	13	3	4	6
981.24853515625	n/a	PROB	2009597	n/a	LTP371	ltpFR2	3	n/a	n/a	n/a	6	21	9	9	3
982.736328125	n/a	PROB	2012644	n/a	LTP371	ltpFR2	3	n/a	n/a	n/a	6	15	1	8	6
984.15869140625	n/a	PROB	2015557	n/a	LTP371	ltpFR2	3	n/a	n/a	n/a	6	21	4	8	9
985.939453125	n/a	STOP	2019204	n/a	LTP371	ltpFR2	3	n/a	n/a	n/a	6	n/a	n/a	n/a	n/a
988.4052734375	n/a	REC_START	2024254	n/a	LTP371	ltpFR2	3	4	n/a	n/a	n/a	n/a	0	0	0
989.03857421875	n/a	REC_WORD	2025551	wordpools/wasnorm_wordpool_576.txt	LTP371	ltpFR2	3	4	BINDER	127	n/a	n/a	0	0	0
990.05126953125	n/a	REC_WORD	2027625	wordpools/wasnorm_wordpool_576.txt	LTP371	ltpFR2	3	4	SKETCH	1315	n/a	n/a	0	0	0
991.498046875	n/a	REC_WORD	2030588	wordpools/wasnorm_wordpool_576.txt	LTP371	ltpFR2	3	4	PICTURE	1061	n/a	n/a	0	0	0
992.9990234375	n/a	REC_WORD	2033662	wordpools/wasnorm_wordpool_576.txt	LTP371	ltpFR2	3	4	MUMMY	932	n/a	n/a	0	0	0
998.56201171875	n/a	REC_WORD	2045055	wordpools/wasnorm_wordpool_576.txt	LTP371	ltpFR2	3	4	TOMBSTONE	1478	n/a	n/a	0	0	0
1000.22412109375	n/a	REC_WORD	2048459	wordpools/wasnorm_wordpool_576.txt	LTP371	ltpFR2	3	4	GUARD	667	n/a	n/a	0	0	0
1003.3818359375	n/a	REC_WORD	2054926	wordpools/wasnorm_wordpool_576.txt	LTP371	ltpFR2	3	4	HOUND	724	n/a	n/a	0	0	0
1004.76904296875	n/a	REC_WORD	2057767	wordpools/wasnorm_wordpool_576.txt	LTP371	ltpFR2	3	4	GRAVEL	659	n/a	n/a	0	0	0
1012.31884765625	n/a	REC_WORD	2073229	wordpools/wasnorm_wordpool_576.txt	LTP371	ltpFR2	3	4	HAND	683	n/a	n/a	0	0	0
1014.37353515625	n/a	REC_WORD	2077437	wordpools/wasnorm_wordpool_576.txt	LTP371	ltpFR2	3	4	QUARTER	1148	n/a	n/a	0	0	0
1015.7763671875	n/a	REC_WORD	2080310	wordpools/wasnorm_wordpool_576.txt	LTP371	ltpFR2	3	4	LODGE	839	n/a	n/a	0	0	0
1017.15869140625	n/a	REC_WORD	2083141	wordpools/wasnorm_wordpool_576.txt	LTP371	ltpFR2	3	4	KEEPER	769	n/a	n/a	0	0	0
1019.69970703125	n/a	REC_WORD	2088345	wordpools/wasnorm_wordpool_576.txt	LTP371	ltpFR2	3	4	GLOVE	642	n/a	n/a	0	0	0
1020.6572265625	n/a	REC_WORD	2090306	wordpools/wasnorm_wordpool_576.txt	LTP371	ltpFR2	3	4	SHELF	1280	n/a	n/a	0	0	0
1021.87646484375	n/a	REC_WORD	2092803	wordpools/wasnorm_wordpool_576.txt	LTP371	ltpFR2	3	4	NIGHTGOWN	953	n/a	n/a	0	0	0
1022.88720703125	n/a	REC_WORD	2094873	wordpools/wasnorm_wordpool_576.txt	LTP371	ltpFR2	3	4	SHIRT	1287	n/a	n/a	0	0	0
1024.21533203125	n/a	REC_WORD	2097593	wordpools/wasnorm_wordpool_576.txt	LTP371	ltpFR2	3	4	DRUG	501	n/a	n/a	0	0	0
1026.1474609375	n/a	REC_WORD	2101550	wordpools/wasnorm_wordpool_576.txt	LTP371	ltpFR2	3	4	EXPERT	543	n/a	n/a	0	0	0
1078.845703125	n/a	WORD	2209476	wordpools/wasnorm_wordpool_576.txt	LTP371	ltpFR2	3	5	FOREST	593	n/a	n/a	0	0	0
1081.57080078125	n/a	WORD	2215057	wordpools/wasnorm_wordpool_576.txt	LTP371	ltpFR2	3	5	ICEBERG	731	n/a	n/a	0	0	0
1084.3125	n/a	WORD	2220672	wordpools/wasnorm_wordpool_576.txt	LTP371	ltpFR2	3	5	CEILING	265	n/a	n/a	0	0	0
1086.85546875	n/a	WORD	2225880	wordpools/wasnorm_wordpool_576.txt	LTP371	ltpFR2	3	5	LUGGAGE	847	n/a	n/a	0	0	0
1089.54638671875	n/a	WORD	2231391	wordpools/wasnorm_wordpool_576.txt	LTP371	ltpFR2	3	5	CLOTHES	327	n/a	n/a	0	0	0
1092.03857421875	n/a	WORD	2236495	wordpools/wasnorm_wordpool_576.txt	LTP371	ltpFR2	3	5	OUTFIT	988	n/a	n/a	0	0	0
1094.84716796875	n/a	WORD	2242247	wordpools/wasnorm_wordpool_576.txt	LTP371	ltpFR2	3	5	STREAM	1392	n/a	n/a	0	0	0
1097.45556640625	n/a	WORD	2247589	wordpools/wasnorm_wordpool_576.txt	LTP371	ltpFR2	3	5	COSTUME	383	n/a	n/a	0	0	0
1100.0810546875	n/a	WORD	2252966	wordpools/wasnorm_wordpool_576.txt	LTP371	ltpFR2	3	5	PUDDING	1139	n/a	n/a	0	0	0
1102.85595703125	n/a	WORD	2258649	wordpools/wasnorm_wordpool_576.txt	LTP371	ltpFR2	3	5	CRAYON	401	n/a	n/a	0	0	0
1105.63134765625	n/a	WORD	2264333	wordpools/wasnorm_wordpool_576.txt	LTP371	ltpFR2	3	5	HAMPER	682	n/a	n/a	0	0	0
1108.373046875	n/a	WORD	2269948	wordpools/wasnorm_wordpool_576.txt	LTP371	ltpFR2	3	5	BUREAU	199	n/a	n/a	0	0	0
1110.81494140625	n/a	WORD	2274949	wordpools/wasnorm_wordpool_576.txt	LTP371	ltpFR2	3	5	EYELASH	546	n/a	n/a	0	0	0
1113.388671875	n/a	WORD	2280220	wordpools/wasnorm_wordpool_576.txt	LTP371	ltpFR2	3	5	SUMMIT	1405	n/a	n/a	0	0	0
1115.89892578125	n/a	WORD	2285361	wordpools/wasnorm_wordpool_576.txt	LTP371	ltpFR2	3	5	RIVER	1194	n/a	n/a	0	0	0
1118.5556640625	n/a	WORD	2290802	wordpools/wasnorm_wordpool_576.txt	LTP371	ltpFR2	3	5	SEAGULL	1261	n/a	n/a	0	0	0
1121.064453125	n/a	WORD	2295940	wordpools/wasnorm_wordpool_576.txt	LTP371	ltpFR2	3	5	PARROT	1015	n/a	n/a	0	0	0
1123.57177734375	n/a	WORD	2301075	wordpools/wasnorm_wordpool_576.txt	LTP371	ltpFR2	3	5	BRIEFCASE	175	n/a	n/a	0	0	0
1126.11474609375	n/a	WORD	2306283	wordpools/wasnorm_wordpool_576.txt	LTP371	ltpFR2	3	5	LEOPARD	812	n/a	n/a	0	0	0
1128.6552734375	n/a	WORD	2311486	wordpools/wasnorm_wordpool_576.txt	LTP371	ltpFR2	3	5	SPOON	1357	n/a	n/a	0	0	0
1131.13037109375	n/a	WORD	2316555	wordpools/wasnorm_wordpool_576.txt	LTP371	ltpFR2	3	5	CLIMBER	323	n/a	n/a	0	0	0
1133.58740234375	n/a	WORD	2321587	wordpools/wasnorm_wordpool_576.txt	LTP371	ltpFR2	3	5	LAVA	804	n/a	n/a	0	0	0
1136.11328125	n/a	WORD	2326760	wordpools/wasnorm_wordpool_576.txt	LTP371	ltpFR2	3	5	TAXI	1438	n/a	n/a	0	0	0
1138.58740234375	n/a	WORD	2331827	wordpools/wasnorm_wordpool_576.txt	LTP371	ltpFR2	3	5	LASER	801	n/a	n/a	0	0	0
1140.193359375	n/a	START	2335116	n/a	LTP371	ltpFR2	3	n/a	n/a	n/a	7	n/a	n/a	n/a	n/a
1141.30029296875	n/a	DISTRACTOR	2337383	n/a	LTP371	ltpFR2	3	5	n/a	n/a	n/a	n/a	0	0	0
1141.31201171875	n/a	PROB	2337407	n/a	LTP371	ltpFR2	3	n/a	n/a	n/a	7	10	1	8	1
1143.01904296875	n/a	PROB	2340903	n/a	LTP371	ltpFR2	3	n/a	n/a	n/a	7	14	5	4	5
1144.2548828125	n/a	PROB	2343434	n/a	LTP371	ltpFR2	3	n/a	n/a	n/a	7	11	8	2	1
1145.7431640625	n/a	PROB	2346482	n/a	LTP371	ltpFR2	3	n/a	n/a	n/a	7	14	2	6	6
1147.03173828125	n/a	PROB	2349121	n/a	LTP371	ltpFR2	3	n/a	n/a	n/a	7	17	9	5	3
1149.0380859375	n/a	PROB	2353230	n/a	LTP371	ltpFR2	3	n/a	n/a	n/a	7	11	1	5	5
1150.0419921875	n/a	PROB	2355286	n/a	LTP371	ltpFR2	3	n/a	n/a	n/a	7	6	1	1	4
1151.22802734375	n/a	PROB	2357715	n/a	LTP371	ltpFR2	3	n/a	n/a	n/a	7	14	6	1	7
1153.0009765625	n/a	PROB	2361346	n/a	LTP371	ltpFR2	3	n/a	n/a	n/a	7	7	1	2	4
1154.60498046875	n/a	PROB	2364631	n/a	LTP371	ltpFR2	3	n/a	n/a	n/a	7	15	2	7	6
1156.0439453125	n/a	PROB	2367578	n/a	LTP371	ltpFR2	3	n/a	n/a	n/a	7	10	4	5	1
1157.5478515625	n/a	PROB	2370658	n/a	LTP371	ltpFR2	3	n/a	n/a	n/a	7	20	5	7	8
1159.2197265625	n/a	PROB	2374082	n/a	LTP371	ltpFR2	3	n/a	n/a	n/a	7	18	7	5	6
1160.95947265625	n/a	PROB	2377645	n/a	LTP371	ltpFR2	3	n/a	n/a	n/a	7	18	9	7	2
1162.681640625	n/a	PROB	2381172	n/a	LTP371	ltpFR2	3	n/a	n/a	n/a	7	16	5	6	5
1163.947265625	n/a	STOP	2383764	n/a	LTP371	ltpFR2	3	n/a	n/a	n/a	7	n/a	n/a	n/a	n/a
1166.0263671875	n/a	REC_START	2388022	n/a	LTP371	ltpFR2	3	5	n/a	n/a	n/a	n/a	0	0	0
1168.81640625	n/a	REC_WORD	2393736	wordpools/wasnorm_wordpool_576.txt	LTP371	ltpFR2	3	5	SUITCASE	1403	n/a	n/a	0	0	0
1170.3203125	n/a	REC_WORD	2396816	wordpools/wasnorm_wordpool_576.txt	LTP371	ltpFR2	3	5	BRACELET	163	n/a	n/a	0	0	0
1171.93505859375	n/a	REC_WORD	2400123	wordpools/wasnorm_wordpool_576.txt	LTP371	ltpFR2	3	5	CLOTHES	327	n/a	n/a	0	0	0
1175.39111328125	n/a	REC_WORD	2407201	wordpools/wasnorm_wordpool_576.txt	LTP371	ltpFR2	3	5	FOREST	593	n/a	n/a	0	0	0
1176.7412109375	n/a	REC_WORD	2409966	wordpools/wasnorm_wordpool_576.txt	LTP371	ltpFR2	3	5	ICEBERG	731	n/a	n/a	0	0	0
1178.25	n/a	REC_WORD	2413056	wordpools/wasnorm_wordpool_576.txt	LTP371	ltpFR2	3	5	CEILING	265	n/a	n/a	0	0	0
1183.40185546875	n/a	REC_WORD	2423607	wordpools/wasnorm_wordpool_576.txt	LTP371	ltpFR2	3	5	STREAM	1392	n/a	n/a	0	0	0
1184.7060546875	n/a	REC_WORD	2426278	wordpools/wasnorm_wordpool_576.txt	LTP371	ltpFR2	3	5	CRAYON	401	n/a	n/a	0	0	0
1187.3427734375	n/a	REC_WORD	2431678	wordpools/wasnorm_wordpool_576.txt	LTP371	ltpFR2	3	5	PUDDING	1139	n/a	n/a	0	0	0
1189.3427734375	n/a	REC_WORD	2435774	wordpools/wasnorm_wordpool_576.txt	LTP371	ltpFR2	3	5	OUTFIT	988	n/a	n/a	0	0	0
1192.54248046875	n/a	REC_WORD	2442327	wordpools/wasnorm_wordpool_576.txt	LTP371	ltpFR2	3	5	COSTUME	383	n/a	n/a	0	0	0
1196.66357421875	n/a	REC_WORD	2450767	wordpools/wasnorm_wordpool_576.txt	LTP371	ltpFR2	3	5	RIVER	1194	n/a	n/a	0	0	0
1200.08837890625	n/a	REC_WORD	2457781	wordpools/wasnorm_wordpool_576.txt	LTP371	ltpFR2	3	5	LAVA	804	n/a	n/a	0	0	0
1201.3662109375	n/a	REC_WORD	2460398	wordpools/wasnorm_wordpool_576.txt	LTP371	ltpFR2	3	5	LEOPARD	812	n/a	n/a	0	0	0
1202.8515625	n/a	REC_WORD	2463440	wordpools/wasnorm_wordpool_576.txt	LTP371	ltpFR2	3	5	CLIMBER	323	n/a	n/a	0	0	0
1213.9208984375	n/a	REC_WORD	2486110	wordpools/wasnorm_wordpool_576.txt	LTP371	ltpFR2	3	5	TAXI	1438	n/a	n/a	0	0	0
1215.35693359375	n/a	REC_WORD	2489051	wordpools/wasnorm_wordpool_576.txt	LTP371	ltpFR2	3	5	LASER	801	n/a	n/a	0	0	0
1231.94677734375	n/a	REC_WORD	2523027	wordpools/wasnorm_wordpool_576.txt	LTP371	ltpFR2	3	5	SEAGULL	1261	n/a	n/a	0	0	0
1256.48193359375	n/a	WORD	2573275	wordpools/wasnorm_wordpool_576.txt	LTP371	ltpFR2	3	6	ULCER	1533	n/a	n/a	0	0	0
1259.07470703125	n/a	WORD	2578585	wordpools/wasnorm_wordpool_576.txt	LTP371	ltpFR2	3	6	COD	340	n/a	n/a	0	0	0
1261.86669921875	n/a	WORD	2584303	wordpools/wasnorm_wordpool_576.txt	LTP371	ltpFR2	3	6	FOREHEAD	592	n/a	n/a	0	0	0
1264.52490234375	n/a	WORD	2589747	wordpools/wasnorm_wordpool_576.txt	LTP371	ltpFR2	3	6	TRENCH	1503	n/a	n/a	0	0	0
1267.08349609375	n/a	WORD	2594987	wordpools/wasnorm_wordpool_576.txt	LTP371	ltpFR2	3	6	HOOD	714	n/a	n/a	0	0	0
1269.50732421875	n/a	WORD	2599951	wordpools/wasnorm_wordpool_576.txt	LTP371	ltpFR2	3	6	ANKLE	24	n/a	n/a	0	0	0
1272.150390625	n/a	WORD	2605364	wordpools/wasnorm_wordpool_576.txt	LTP371	ltpFR2	3	6	EUROPE	541	n/a	n/a	0	0	0
1274.740234375	n/a	WORD	2610668	wordpools/wasnorm_wordpool_576.txt	LTP371	ltpFR2	3	6	VALVE	1546	n/a	n/a	0	0	0
1277.55029296875	n/a	WORD	2616423	wordpools/wasnorm_wordpool_576.txt	LTP371	ltpFR2	3	6	FUNGUS	614	n/a	n/a	0	0	0
1280.17626953125	n/a	WORD	2621801	wordpools/wasnorm_wordpool_576.txt	LTP371	ltpFR2	3	6	ISLAND	745	n/a	n/a	0	0	0
1282.818359375	n/a	WORD	2627212	wordpools/wasnorm_wordpool_576.txt	LTP371	ltpFR2	3	6	RABBIT	1152	n/a	n/a	0	0	0
1285.59228515625	n/a	WORD	2632893	wordpools/wasnorm_wordpool_576.txt	LTP371	ltpFR2	3	6	JAPAN	749	n/a	n/a	0	0	0
1288.06787109375	n/a	WORD	2637963	wordpools/wasnorm_wordpool_576.txt	LTP371	ltpFR2	3	6	ASIA	46	n/a	n/a	0	0	0
1290.876953125	n/a	WORD	2643716	wordpools/wasnorm_wordpool_576.txt	LTP371	ltpFR2	3	6	TRACTOR	1493	n/a	n/a	0	0	0
1293.40087890625	n/a	WORD	2648885	wordpools/wasnorm_wordpool_576.txt	LTP371	ltpFR2	3	6	MOTOR	922	n/a	n/a	0	0	0
1296.19384765625	n/a	WORD	2654605	wordpools/wasnorm_wordpool_576.txt	LTP371	ltpFR2	3	6	FLIPPER	580	n/a	n/a	0	0	0
1298.9365234375	n/a	WORD	2660222	wordpools/wasnorm_wordpool_576.txt	LTP371	ltpFR2	3	6	SLIME	1327	n/a	n/a	0	0	0
1301.59375	n/a	WORD	2665664	wordpools/wasnorm_wordpool_576.txt	LTP371	ltpFR2	3	6	CLAM	315	n/a	n/a	0	0	0
1304.25244140625	n/a	WORD	2671109	wordpools/wasnorm_wordpool_576.txt	LTP371	ltpFR2	3	6	NOMAD	955	n/a	n/a	0	0	0
1306.79345703125	n/a	WORD	2676313	wordpools/wasnorm_wordpool_576.txt	LTP371	ltpFR2	3	6	WORLD	1622	n/a	n/a	0	0	0
1309.36865234375	n/a	WORD	2681587	wordpools/wasnorm_wordpool_576.txt	LTP371	ltpFR2	3	6	PISTON	1076	n/a	n/a	0	0	0
1312.16259765625	n/a	WORD	2687309	wordpools/wasnorm_wordpool_576.txt	LTP371	ltpFR2	3	6	GUITAR	670	n/a	n/a	0	0	0
1314.88720703125	n/a	WORD	2692889	wordpools/wasnorm_wordpool_576.txt	LTP371	ltpFR2	3	6	DUST	508	n/a	n/a	0	0	0
1317.4951171875	n/a	WORD	2698230	wordpools/wasnorm_wordpool_576.txt	LTP371	ltpFR2	3	6	PASTRY	1022	n/a	n/a	0	0	0
1319.10107421875	n/a	START	2701519	n/a	LTP371	ltpFR2	3	n/a	n/a	n/a	8	n/a	n/a	n/a	n/a
1320.0283203125	n/a	DISTRACTOR	2703418	n/a	LTP371	ltpFR2	3	6	n/a	n/a	n/a	n/a	0	0	0
1320.037109375	n/a	PROB	2703436	n/a	LTP371	ltpFR2	3	n/a	n/a	n/a	8	13	7	5	8
1322.26025390625	n/a	PROB	2707989	n/a	LTP371	ltpFR2	3	n/a	n/a	n/a	8	15	6	2	7
1324.35009765625	n/a	PROB	2712269	n/a	LTP371	ltpFR2	3	n/a	n/a	n/a	8	15	5	7	3
1325.52099609375	n/a	PROB	2714667	n/a	LTP371	ltpFR2	3	n/a	n/a	n/a	8	18	9	8	1
1327.126953125	n/a	PROB	2717956	n/a	LTP371	ltpFR2	3	n/a	n/a	n/a	8	16	1	9	6
1328.14697265625	n/a	PROB	2720045	n/a	LTP371	ltpFR2	3	n/a	n/a	n/a	8	19	9	9	1
1329.583984375	n/a	PROB	2722988	n/a	LTP371	ltpFR2	3	n/a	n/a	n/a	8	14	1	8	5
1331.02294921875	n/a	PROB	2725935	n/a	LTP371	ltpFR2	3	n/a	n/a	n/a	8	6	3	2	1
1332.10986328125	n/a	PROB	2728161	n/a	LTP371	ltpFR2	3	n/a	n/a	n/a	8	13	6	5	2
1333.47998046875	n/a	PROB	2730967	n/a	LTP371	ltpFR2	3	n/a	n/a	n/a	8	20	8	7	5
1334.96875	n/a	PROB	2734016	n/a	LTP371	ltpFR2	3	n/a	n/a	n/a	8	20	9	3	8
1336.5224609375	n/a	PROB	2737198	n/a	LTP371	ltpFR2	3	n/a	n/a	n/a	8	16	6	9	1
1337.70947265625	n/a	PROB	2739629	n/a	LTP371	ltpFR2	3	n/a	n/a	n/a	8	13	7	3	3
1338.84765625	n/a	PROB	2741960	n/a	LTP371	ltpFR2	3	n/a	n/a	n/a	8	19	9	2	8
1340.267578125	n/a	PROB	2744868	n/a	LTP371	ltpFR2	3	n/a	n/a	n/a	8	11	5	4	2
1341.4384765625	n/a	PROB	2747266	n/a	LTP371	ltpFR2	3	n/a	n/a	n/a	8	13	7	5	1
1342.5556640625	n/a	STOP	2749554	n/a	LTP371	ltpFR2	3	n/a	n/a	n/a	8	n/a	n/a	n/a	n/a
1344.8505859375	n/a	REC_START	2754254	n/a	LTP371	ltpFR2	3	6	n/a	n/a	n/a	n/a	0	0	0
1345.79443359375	n/a	REC_WORD	2756187	wordpools/wasnorm_wordpool_576.txt	LTP371	ltpFR2	3	6	JAPAN	749	n/a	n/a	0	0	0
1346.96044921875	n/a	REC_WORD	2758575	wordpools/wasnorm_wordpool_576.txt	LTP371	ltpFR2	3	6	ASIA	46	n/a	n/a	0	0	0
1348.16943359375	n/a	REC_WORD	2761051	wordpools/wasnorm_wordpool_576.txt	LTP371	ltpFR2	3	6	EUROPE	541	n/a	n/a	0	0	0
1349.435546875	n/a	REC_WORD	2763644	wordpools/wasnorm_wordpool_576.txt	LTP371	ltpFR2	3	6	WORLD	1622	n/a	n/a	0	0	0
1350.61328125	n/a	REC_WORD	2766056	wordpools/wasnorm_wordpool_576.txt	LTP371	ltpFR2	3	6	ISLAND	745	n/a	n/a	0	0	0
1353.1904296875	n/a	REC_WORD	2771334	wordpools/wasnorm_wordpool_576.txt	LTP371	ltpFR2	3	6	SLIME	1327	n/a	n/a	0	0	0
1354.654296875	n/a	REC_WORD	2774332	wordpools/wasnorm_wordpool_576.txt	LTP371	ltpFR2	3	6	CLAM	315	n/a	n/a	0	0	0
1356.14990234375	n/a	REC_WORD	2777395	wordpools/wasnorm_wordpool_576.txt	LTP371	ltpFR2	3	6	NOMAD	955	n/a	n/a	0	0	0
1361.77294921875	n/a	REC_WORD	2788911	wordpools/wasnorm_wordpool_576.txt	LTP371	ltpFR2	3	6	COD	340	n/a	n/a	0	0	0
1362.76416015625	n/a	REC_WORD	2790941	wordpools/wasnorm_wordpool_576.txt	LTP371	ltpFR2	3	6	FOREHEAD	592	n/a	n/a	0	0	0
1363.98486328125	n/a	REC_WORD	2793441	wordpools/wasnorm_wordpool_576.txt	LTP371	ltpFR2	3	6	TRENCH	1503	n/a	n/a	0	0	0
1365.34375	n/a	REC_WORD	2796224	wordpools/wasnorm_wordpool_576.txt	LTP371	ltpFR2	3	6	VALVE	1546	n/a	n/a	0	0	0
1366.423828125	n/a	REC_WORD	2798436	wordpools/wasnorm_wordpool_576.txt	LTP371	ltpFR2	3	6	FUNGUS	614	n/a	n/a	0	0	0
1368.27099609375	n/a	REC_WORD	2802219	wordpools/wasnorm_wordpool_576.txt	LTP371	ltpFR2	3	6	ANKLE	24	n/a	n/a	0	0	0
1369.5888671875	n/a	REC_WORD	2804918	wordpools/wasnorm_wordpool_576.txt	LTP371	ltpFR2	3	6	ULCER	1533	n/a	n/a	0	0	0
1383.87841796875	n/a	REC_WORD	2834183	wordpools/wasnorm_wordpool_576.txt	LTP371	ltpFR2	3	6	RABBIT	1152	n/a	n/a	0	0	0
1395.1572265625	n/a	REC_WORD	2857282	wordpools/wasnorm_wordpool_576.txt	LTP371	ltpFR2	3	6	DUST	508	n/a	n/a	0	0	0
1396.02587890625	n/a	REC_WORD	2859061	wordpools/wasnorm_wordpool_576.txt	LTP371	ltpFR2	3	6	GUITAR	670	n/a	n/a	0	0	0
1398.15380859375	n/a	REC_WORD	2863419	wordpools/wasnorm_wordpool_576.txt	LTP371	ltpFR2	3	6	PISTON	1076	n/a	n/a	0	0	0
1435.2900390625	n/a	DISTRACTOR	2939474	n/a	LTP371	ltpFR2	3	7	n/a	n/a	n/a	n/a	0	0	0
1435.2900390625	n/a	START	2939474	n/a	LTP371	ltpFR2	3	n/a	n/a	n/a	9	n/a	n/a	n/a	n/a
1435.30712890625	n/a	PROB	2939509	n/a	LTP371	ltpFR2	3	n/a	n/a	n/a	9	18	4	5	9
1438.0830078125	n/a	PROB	2945194	n/a	LTP371	ltpFR2	3	n/a	n/a	n/a	9	12	1	8	3
1439.8388671875	n/a	PROB	2948790	n/a	LTP371	ltpFR2	3	n/a	n/a	n/a	9	16	7	3	6
1440.94287109375	n/a	PROB	2951051	n/a	LTP371	ltpFR2	3	n/a	n/a	n/a	9	25	8	8	9
1442.57958984375	n/a	PROB	2954403	n/a	LTP371	ltpFR2	3	n/a	n/a	n/a	9	13	5	7	1
1443.8017578125	n/a	PROB	2956906	n/a	LTP371	ltpFR2	3	n/a	n/a	n/a	9	16	4	6	6
1447.24462890625	n/a	PROB	2963957	n/a	LTP371	ltpFR2	3	n/a	n/a	n/a	9	19	8	9	2
1449.4013671875	n/a	PROB	2968374	n/a	LTP371	ltpFR2	3	n/a	n/a	n/a	9	16	8	4	4
1451.05859375	n/a	PROB	2971768	n/a	LTP371	ltpFR2	3	n/a	n/a	n/a	9	11	6	4	1
1452.1455078125	n/a	PROB	2973994	n/a	LTP371	ltpFR2	3	n/a	n/a	n/a	9	10	1	4	5
1453.63232421875	n/a	PROB	2977039	n/a	LTP371	ltpFR2	3	n/a	n/a	n/a	9	19	7	6	6
1455.42138671875	n/a	PROB	2980703	n/a	LTP371	ltpFR2	3	n/a	n/a	n/a	9	18	3	9	6
1456.9931640625	n/a	PROB	2983922	n/a	LTP371	ltpFR2	3	n/a	n/a	n/a	9	9	7	1	1
1458.1962890625	n/a	STOP	2986386	n/a	LTP371	ltpFR2	3	n/a	n/a	n/a	9	n/a	n/a	n/a	n/a
1460.22021484375	n/a	WORD	2990531	wordpools/wasnorm_wordpool_576.txt	LTP371	ltpFR2	3	7	LAMP	798	n/a	n/a	0	0	0
1462.71142578125	n/a	WORD	2995633	wordpools/wasnorm_wordpool_576.txt	LTP371	ltpFR2	3	7	CATTLE	261	n/a	n/a	0	0	0
1465.2529296875	n/a	WORD	3000838	wordpools/wasnorm_wordpool_576.txt	LTP371	ltpFR2	3	7	RECORD	1176	n/a	n/a	0	0	0
1467.76123046875	n/a	WORD	3005975	wordpools/wasnorm_wordpool_576.txt	LTP371	ltpFR2	3	7	BULLET	194	n/a	n/a	0	0	0
1470.52001953125	n/a	WORD	3011625	wordpools/wasnorm_wordpool_576.txt	LTP371	ltpFR2	3	7	GANGSTER	620	n/a	n/a	0	0	0
1473.31201171875	n/a	WORD	3017343	wordpools/wasnorm_wordpool_576.txt	LTP371	ltpFR2	3	7	CABIN	211	n/a	n/a	0	0	0
1475.85498046875	n/a	WORD	3022551	wordpools/wasnorm_wordpool_576.txt	LTP371	ltpFR2	3	7	CHAMPAGNE	278	n/a	n/a	0	0	0
1478.61279296875	n/a	WORD	3028199	wordpools/wasnorm_wordpool_576.txt	LTP371	ltpFR2	3	7	PLASTER	1085	n/a	n/a	0	0	0
1481.2705078125	n/a	WORD	3033642	wordpools/wasnorm_wordpool_576.txt	LTP371	ltpFR2	3	7	GREASE	660	n/a	n/a	0	0	0
1483.79638671875	n/a	WORD	3038815	wordpools/wasnorm_wordpool_576.txt	LTP371	ltpFR2	3	7	ICING	732	n/a	n/a	0	0	0
1486.53759765625	n/a	WORD	3044429	wordpools/wasnorm_wordpool_576.txt	LTP371	ltpFR2	3	7	PISTOL	1075	n/a	n/a	0	0	0
1489.09765625	n/a	WORD	3049672	wordpools/wasnorm_wordpool_576.txt	LTP371	ltpFR2	3	7	RIFLE	1192	n/a	n/a	0	0	0
1491.83935546875	n/a	WORD	3055287	wordpools/wasnorm_wordpool_576.txt	LTP371	ltpFR2	3	7	PIANO	1057	n/a	n/a	0	0	0
1494.4130859375	n/a	WORD	3060558	wordpools/wasnorm_wordpool_576.txt	LTP371	ltpFR2	3	7	AUTHOR	61	n/a	n/a	0	0	0
1497.1064453125	n/a	WORD	3066074	wordpools/wasnorm_wordpool_576.txt	LTP371	ltpFR2	3	7	COLONEL	348	n/a	n/a	0	0	0
1499.8310546875	n/a	WORD	3071654	wordpools/wasnorm_wordpool_576.txt	LTP371	ltpFR2	3	7	POCKET	1093	n/a	n/a	0	0	0
1502.27197265625	n/a	WORD	3076653	wordpools/wasnorm_wordpool_576.txt	LTP371	ltpFR2	3	7	DIVER	476	n/a	n/a	0	0	0
1504.796875	n/a	WORD	3081824	wordpools/wasnorm_wordpool_576.txt	LTP371	ltpFR2	3	7	MARKER	870	n/a	n/a	0	0	0
1507.47216796875	n/a	WORD	3087303	wordpools/wasnorm_wordpool_576.txt	LTP371	ltpFR2	3	7	OX	994	n/a	n/a	0	0	0
1510.09765625	n/a	WORD	3092680	wordpools/wasnorm_wordpool_576.txt	LTP371	ltpFR2	3	7	PEACH	1031	n/a	n/a	0	0	0
1512.83984375	n/a	WORD	3098296	wordpools/wasnorm_wordpool_576.txt	LTP371	ltpFR2	3	7	TURNIP	1521	n/a	n/a	0	0	0
1515.513671875	n/a	WORD	3103772	wordpools/wasnorm_wordpool_576.txt	LTP371	ltpFR2	3	7	MONSTER	912	n/a	n/a	0	0	0
1517.98974609375	n/a	WORD	3108843	wordpools/wasnorm_wordpool_576.txt	LTP371	ltpFR2	3	7	RUG	1215	n/a	n/a	0	0	0
1520.73046875	n/a	WORD	3114456	wordpools/wasnorm_wordpool_576.txt	LTP371	ltpFR2	3	7	CLAMP	316	n/a	n/a	0	0	0
1522.33642578125	n/a	START	3117745	n/a	LTP371	ltpFR2	3	n/a	n/a	n/a	10	n/a	n/a	n/a	n/a
1523.51025390625	n/a	DISTRACTOR	3120149	n/a	LTP371	ltpFR2	3	7	n/a	n/a	n/a	n/a	0	0	0
1523.5234375	n/a	PROB	3120176	n/a	LTP371	ltpFR2	3	n/a	n/a	n/a	10	15	3	4	8
1525.32958984375	n/a	PROB	3123875	n/a	LTP371	ltpFR2	3	n/a	n/a	n/a	10	22	5	8	9
1527.50244140625	n/a	PROB	3128325	n/a	LTP371	ltpFR2	3	n/a	n/a	n/a	10	8	2	1	5
1529.39208984375	n/a	PROB	3132195	n/a	LTP371	ltpFR2	3	n/a	n/a	n/a	10	10	1	2	7
1530.9140625	n/a	PROB	3135312	n/a	LTP371	ltpFR2	3	n/a	n/a	n/a	10	22	9	6	7
1532.83740234375	n/a	PROB	3139251	n/a	LTP371	ltpFR2	3	n/a	n/a	n/a	10	16	8	1	7
1534.64208984375	n/a	PROB	3142947	n/a	LTP371	ltpFR2	3	n/a	n/a	n/a	10	16	4	5	7
1537.01708984375	n/a	PROB	3147811	n/a	LTP371	ltpFR2	3	n/a	n/a	n/a	10	23	9	8	5
1539.408203125	n/a	PROB	3152708	n/a	LTP371	ltpFR2	3	n/a	n/a	n/a	10	9	2	3	4
1540.77880859375	n/a	PROB	3155515	n/a	LTP371	ltpFR2	3	n/a	n/a	n/a	10	16	3	4	9
1542.51806640625	n/a	PROB	3159077	n/a	LTP371	ltpFR2	3	n/a	n/a	n/a	10	15	2	5	8
1546.3359375	n/a	STOP	3166896	n/a	LTP371	ltpFR2	3	n/a	n/a	n/a	10	n/a	n/a	n/a	n/a
1548.15380859375	n/a	REC_START	3170619	n/a	LTP371	ltpFR2	3	7	n/a	n/a	n/a	n/a	0	0	0
1549.98193359375	n/a	REC_WORD	3174363	wordpools/wasnorm_wordpool_576.txt	LTP371	ltpFR2	3	7	OX	994	n/a	n/a	0	0	0
1551.298828125	n/a	REC_WORD	3177060	wordpools/wasnorm_wordpool_576.txt	LTP371	ltpFR2	3	7	DIVER	476	n/a	n/a	0	0	0
1553.8994140625	n/a	REC_WORD	3182386	wordpools/wasnorm_wordpool_576.txt	LTP371	ltpFR2	3	7	POCKET	1093	n/a	n/a	0	0	0
1555.03759765625	n/a	REC_WORD	3184717	wordpools/wasnorm_wordpool_576.txt	LTP371	ltpFR2	3	7	MARKER	870	n/a	n/a	0	0	0
1560.00244140625	n/a	REC_WORD	3194885	wordpools/wasnorm_wordpool_576.txt	LTP371	ltpFR2	3	7	CABIN	211	n/a	n/a	0	0	0
1561.615234375	n/a	REC_WORD	3198188	wordpools/wasnorm_wordpool_576.txt	LTP371	ltpFR2	3	7	CATTLE	261	n/a	n/a	0	0	0
1564.37353515625	n/a	REC_WORD	3203837	wordpools/wasnorm_wordpool_576.txt	LTP371	ltpFR2	3	7	RECORD	1176	n/a	n/a	0	0	0
1566.36328125	n/a	REC_WORD	3207912	wordpools/wasnorm_wordpool_576.txt	LTP371	ltpFR2	3	7	CHAMPAGNE	278	n/a	n/a	0	0	0
1571.109375	n/a	REC_WORD	3217632	wordpools/wasnorm_wordpool_576.txt	LTP371	ltpFR2	3	7	GUNSHOT	-1	n/a	n/a	0	0	0
1573.8232421875	n/a	REC_WORD	3223190	wordpools/wasnorm_wordpool_576.txt	LTP371	ltpFR2	3	7	GANGSTER	620	n/a	n/a	0	0	0
1576.365234375	n/a	REC_WORD	3228396	wordpools/wasnorm_wordpool_576.txt	LTP371	ltpFR2	3	7	RIFLE	1192	n/a	n/a	0	0	0
1577.97119140625	n/a	REC_WORD	3231685	wordpools/wasnorm_wordpool_576.txt	LTP371	ltpFR2	3	7	PISTOL	1075	n/a	n/a	0	0	0
1579.8330078125	n/a	REC_WORD	3235498	wordpools/wasnorm_wordpool_576.txt	LTP371	ltpFR2	3	7	CLAMP	316	n/a	n/a	0	0	0
1581.291015625	n/a	REC_WORD	3238484	wordpools/wasnorm_wordpool_576.txt	LTP371	ltpFR2	3	7	RUG	1215	n/a	n/a	0	0	0
1582.8037109375	n/a	REC_WORD	3241582	wordpools/wasnorm_wordpool_576.txt	LTP371	ltpFR2	3	7	LAMP	798	n/a	n/a	0	0	0
1597.3125	n/a	REC_WORD	3271296	wordpools/wasnorm_wordpool_576.txt	LTP371	ltpFR2	3	7	ICING	732	n/a	n/a	0	0	0
1617.07275390625	n/a	REC_WORD	3311765	wordpools/wasnorm_wordpool_576.txt	LTP371	ltpFR2	3	7	MONSTER	912	n/a	n/a	0	0	0
1618.28173828125	n/a	REC_WORD	3314241	wordpools/wasnorm_wordpool_576.txt	LTP371	ltpFR2	3	7	PEACH	1031	n/a	n/a	0	0	0
1638.59228515625	n/a	DISTRACTOR	3355837	n/a	LTP371	ltpFR2	3	8	n/a	n/a	n/a	n/a	0	0	0
1638.59326171875	n/a	START	3355839	n/a	LTP371	ltpFR2	3	n/a	n/a	n/a	11	n/a	n/a	n/a	n/a
1638.609375	n/a	PROB	3355872	n/a	LTP371	ltpFR2	3	n/a	n/a	n/a	11	19	6	7	6
1641.85400390625	n/a	PROB	3362517	n/a	LTP371	ltpFR2	3	n/a	n/a	n/a	11	19	6	7	6
1643.5419921875	n/a	PROB	3365974	n/a	LTP371	ltpFR2	3	n/a	n/a	n/a	11	5	2	2	1
1644.51220703125	n/a	PROB	3367961	n/a	LTP371	ltpFR2	3	n/a	n/a	n/a	11	17	8	1	8
1646.88720703125	n/a	PROB	3372825	n/a	LTP371	ltpFR2	3	n/a	n/a	n/a	11	8	2	1	5
1648.60791015625	n/a	PROB	3376349	n/a	LTP371	ltpFR2	3	n/a	n/a	n/a	11	12	2	5	5
1649.7119140625	n/a	PROB	3378610	n/a	LTP371	ltpFR2	3	n/a	n/a	n/a	11	8	4	1	2
1652.0869140625	n/a	PROB	3383474	n/a	LTP371	ltpFR2	3	n/a	n/a	n/a	11	18	3	7	8
1653.65771484375	n/a	PROB	3386691	n/a	LTP371	ltpFR2	3	n/a	n/a	n/a	11	15	1	6	8
1655.36279296875	n/a	PROB	3390183	n/a	LTP371	ltpFR2	3	n/a	n/a	n/a	11	19	8	8	3
1657.0869140625	n/a	PROB	3393714	n/a	LTP371	ltpFR2	3	n/a	n/a	n/a	11	19	7	6	6
1658.7236328125	n/a	PROB	3397066	n/a	LTP371	ltpFR2	3	n/a	n/a	n/a	11	11	9	1	1
1659.8955078125	n/a	PROB	3399466	n/a	LTP371	ltpFR2	3	n/a	n/a	n/a	11	17	8	4	5
1661.3876953125	n/a	STOP	3402522	n/a	LTP371	ltpFR2	3	n/a	n/a	n/a	11	n/a	n/a	n/a	n/a
1663.50537109375	n/a	WORD	3406859	wordpools/wasnorm_wordpool_576.txt	LTP371	ltpFR2	3	8	SIBLING	1301	n/a	n/a	0	0	0
1665.99853515625	n/a	WORD	3411965	wordpools/wasnorm_wordpool_576.txt	LTP371	ltpFR2	3	8	ROD	1203	n/a	n/a	0	0	0
1668.79052734375	n/a	WORD	3417683	wordpools/wasnorm_wordpool_576.txt	LTP371	ltpFR2	3	8	LAKE	796	n/a	n/a	0	0	0
1671.21435546875	n/a	WORD	3422647	wordpools/wasnorm_wordpool_576.txt	LTP371	ltpFR2	3	8	FREEZER	604	n/a	n/a	0	0	0
1673.95751953125	n/a	WORD	3428265	wordpools/wasnorm_wordpool_576.txt	LTP371	ltpFR2	3	8	TROUT	1511	n/a	n/a	0	0	0
1676.615234375	n/a	WORD	3433708	wordpools/wasnorm_wordpool_576.txt	LTP371	ltpFR2	3	8	PALACE	1006	n/a	n/a	0	0	0
1679.10693359375	n/a	WORD	3438811	wordpools/wasnorm_wordpool_576.txt	LTP371	ltpFR2	3	8	TWIG	1527	n/a	n/a	0	0	0
1681.79931640625	n/a	WORD	3444325	wordpools/wasnorm_wordpool_576.txt	LTP371	ltpFR2	3	8	HEDGE	699	n/a	n/a	0	0	0
1684.45703125	n/a	WORD	3449768	wordpools/wasnorm_wordpool_576.txt	LTP371	ltpFR2	3	8	VIRUS	1572	n/a	n/a	0	0	0
1687.01611328125	n/a	WORD	3455009	wordpools/wasnorm_wordpool_576.txt	LTP371	ltpFR2	3	8	SHOULDER	1294	n/a	n/a	0	0	0
1689.77392578125	n/a	WORD	3460657	wordpools/wasnorm_wordpool_576.txt	LTP371	ltpFR2	3	8	LILY	821	n/a	n/a	0	0	0
1692.4658203125	n/a	WORD	3466170	wordpools/wasnorm_wordpool_576.txt	LTP371	ltpFR2	3	8	TOASTER	1472	n/a	n/a	0	0	0
1695.091796875	n/a	WORD	3471548	wordpools/wasnorm_wordpool_576.txt	LTP371	ltpFR2	3	8	VIKING	1565	n/a	n/a	0	0	0
1697.74951171875	n/a	WORD	3476991	wordpools/wasnorm_wordpool_576.txt	LTP371	ltpFR2	3	8	PADDLE	1000	n/a	n/a	0	0	0
1700.24072265625	n/a	WORD	3482093	wordpools/wasnorm_wordpool_576.txt	LTP371	ltpFR2	3	8	LEG	809	n/a	n/a	0	0	0
1702.93359375	n/a	WORD	3487608	wordpools/wasnorm_wordpool_576.txt	LTP371	ltpFR2	3	8	POET	1095	n/a	n/a	0	0	0
1705.70849609375	n/a	WORD	3493291	wordpools/wasnorm_wordpool_576.txt	LTP371	ltpFR2	3	8	MAMMAL	861	n/a	n/a	0	0	0
1708.2666015625	n/a	WORD	3498530	wordpools/wasnorm_wordpool_576.txt	LTP371	ltpFR2	3	8	ACTRESS	6	n/a	n/a	0	0	0
1710.89208984375	n/a	WORD	3503907	wordpools/wasnorm_wordpool_576.txt	LTP371	ltpFR2	3	8	LION	827	n/a	n/a	0	0	0
1713.63427734375	n/a	WORD	3509523	wordpools/wasnorm_wordpool_576.txt	LTP371	ltpFR2	3	8	PASSAGE	1019	n/a	n/a	0	0	0
1716.1259765625	n/a	WORD	3514626	wordpools/wasnorm_wordpool_576.txt	LTP371	ltpFR2	3	8	GROUND	666	n/a	n/a	0	0	0
1718.78515625	n/a	WORD	3520072	wordpools/wasnorm_wordpool_576.txt	LTP371	ltpFR2	3	8	PATROL	1027	n/a	n/a	0	0	0
1721.4921875	n/a	WORD	3525616	wordpools/wasnorm_wordpool_576.txt	LTP371	ltpFR2	3	8	BEAST	108	n/a	n/a	0	0	0
1724.1689453125	n/a	WORD	3531098	wordpools/wasnorm_wordpool_576.txt	LTP371	ltpFR2	3	8	HERO	706	n/a	n/a	0	0	0
1725.77294921875	n/a	START	3534383	n/a	LTP371	ltpFR2	3	n/a	n/a	n/a	12	n/a	n/a	n/a	n/a
1726.69580078125	n/a	DISTRACTOR	3536273	n/a	LTP371	ltpFR2	3	8	n/a	n/a	n/a	n/a	0	0	0
1726.708984375	n/a	PROB	3536300	n/a	LTP371	ltpFR2	3	n/a	n/a	n/a	12	17	5	8	4
1728.681640625	n/a	PROB	3540340	n/a	LTP371	ltpFR2	3	n/a	n/a	n/a	12	17	5	3	9
1730.671875	n/a	PROB	3544416	n/a	LTP371	ltpFR2	3	n/a	n/a	n/a	12	20	5	8	7
1732.99658203125	n/a	PROB	3549177	n/a	LTP371	ltpFR2	3	n/a	n/a	n/a	12	17	9	5	3
1734.41650390625	n/a	PROB	3552085	n/a	LTP371	ltpFR2	3	n/a	n/a	n/a	12	14	6	1	7
1735.771484375	n/a	PROB	3554860	n/a	LTP371	ltpFR2	3	n/a	n/a	n/a	12	15	1	6	8
1737.57763671875	n/a	PROB	3558559	n/a	LTP371	ltpFR2	3	n/a	n/a	n/a	12	20	6	5	9
1739.03271484375	n/a	PROB	3561539	n/a	LTP371	ltpFR2	3	n/a	n/a	n/a	12	9	6	1	2
1740.38623046875	n/a	PROB	3564311	n/a	LTP371	ltpFR2	3	n/a	n/a	n/a	12	14	5	2	7
1741.7744140625	n/a	PROB	3567154	n/a	LTP371	ltpFR2	3	n/a	n/a	n/a	12	18	3	7	8
1742.99560546875	n/a	PROB	3569655	n/a	LTP371	ltpFR2	3	n/a	n/a	n/a	12	13	3	6	4
1744.7001953125	n/a	PROB	3573146	n/a	LTP371	ltpFR2	3	n/a	n/a	n/a	12	7	2	4	1
1746.13916015625	n/a	PROB	3576093	n/a	LTP371	ltpFR2	3	n/a	n/a	n/a	12	10	6	2	2
1747.47509765625	n/a	PROB	3578829	n/a	LTP371	ltpFR2	3	n/a	n/a	n/a	12	19	5	6	8
1748.7724609375	n/a	STOP	3581486	n/a	LTP371	ltpFR2	3	n/a	n/a	n/a	12	n/a	n/a	n/a	n/a
1751.72314453125	n/a	REC_START	3587529	n/a	LTP371	ltpFR2	3	8	n/a	n/a	n/a	n/a	0	0	0
1755.43603515625	n/a	REC_WORD	3595133	wordpools/wasnorm_wordpool_576.txt	LTP371	ltpFR2	3	8	VIKING	1565	n/a	n/a	0	0	0
1756.93603515625	n/a	REC_WORD	3598205	wordpools/wasnorm_wordpool_576.txt	LTP371	ltpFR2	3	8	ACTRESS	6	n/a	n/a	0	0	0
1758.2509765625	n/a	REC_WORD	3600898	wordpools/wasnorm_wordpool_576.txt	LTP371	ltpFR2	3	8	POET	1095	n/a	n/a	0	0	0
1759.6240234375	n/a	REC_WORD	3603710	wordpools/wasnorm_wordpool_576.txt	LTP371	ltpFR2	3	8	ARM	38	n/a	n/a	0	0	0
1760.85107421875	n/a	REC_WORD	3606223	wordpools/wasnorm_wordpool_576.txt	LTP371	ltpFR2	3	8	LEG	809	n/a	n/a	0	0	0
1766.28857421875	n/a	REC_WORD	3617359	wordpools/wasnorm_wordpool_576.txt	LTP371	ltpFR2	3	8	LION	827	n/a	n/a	0	0	0
1767.82373046875	n/a	REC_WORD	3620503	wordpools/wasnorm_wordpool_576.txt	LTP371	ltpFR2	3	8	BEAST	108	n/a	n/a	0	0	0
1769.384765625	n/a	REC_WORD	3623700	wordpools/wasnorm_wordpool_576.txt	LTP371	ltpFR2	3	8	PATROL	1027	n/a	n/a	0	0	0
1770.91064453125	n/a	REC_WORD	3626825	wordpools/wasnorm_wordpool_576.txt	LTP371	ltpFR2	3	8	PASSAGE	1019	n/a	n/a	0	0	0
1776.24365234375	n/a	REC_WORD	3637747	wordpools/wasnorm_wordpool_576.txt	LTP371	ltpFR2	3	8	HERO	706	n/a	n/a	0	0	0
1778.9755859375	n/a	REC_WORD	3643342	wordpools/wasnorm_wordpool_576.txt	LTP371	ltpFR2	3	8	SHOULDER	1294	n/a	n/a	0	0	0
1780.4853515625	n/a	REC_WORD	3646434	wordpools/wasnorm_wordpool_576.txt	LTP371	ltpFR2	3	8	SIBLING	1301	n/a	n/a	0	0	0
1782.4501953125	n/a	REC_WORD	3650458	wordpools/wasnorm_wordpool_576.txt	LTP371	ltpFR2	3	8	ROD	1203	n/a	n/a	0	0	0
1783.70703125	n/a	REC_WORD	3653032	wordpools/wasnorm_wordpool_576.txt	LTP371	ltpFR2	3	8	TROUT	1511	n/a	n/a	0	0	0
1785.1513671875	n/a	REC_WORD	3655990	wordpools/wasnorm_wordpool_576.txt	LTP371	ltpFR2	3	8	TWIG	1527	n/a	n/a	0	0	0
1786.64697265625	n/a	REC_WORD	3659053	wordpools/wasnorm_wordpool_576.txt	LTP371	ltpFR2	3	8	LILY	821	n/a	n/a	0	0	0
1787.95703125	n/a	REC_WORD	3661736	wordpools/wasnorm_wordpool_576.txt	LTP371	ltpFR2	3	8	FREEZER	604	n/a	n/a	0	0	0
1789.89404296875	n/a	REC_WORD	3665703	wordpools/wasnorm_wordpool_576.txt	LTP371	ltpFR2	3	8	TOASTER	1472	n/a	n/a	0	0	0
1791.83203125	n/a	REC_WORD	3669672	wordpools/wasnorm_wordpool_576.txt	LTP371	ltpFR2	3	8	VIRUS	1572	n/a	n/a	0	0	0
1801.36962890625	n/a	REC_WORD	3689205	wordpools/wasnorm_wordpool_576.txt	LTP371	ltpFR2	3	8	PADDLE	1000	n/a	n/a	0	0	0
1828.251953125	n/a	REST_REWET	3744260	n/a	LTP371	ltpFR2	3	8	n/a	n/a	n/a	n/a	0	0	0
1974.90673828125	n/a	WORD	4044609	wordpools/wasnorm_wordpool_576.txt	LTP371	ltpFR2	3	9	HUMAN	726	n/a	n/a	0	0	0
1977.59765625	n/a	WORD	4050120	wordpools/wasnorm_wordpool_576.txt	LTP371	ltpFR2	3	9	LOVER	846	n/a	n/a	0	0	0
1980.3740234375	n/a	WORD	4055806	wordpools/wasnorm_wordpool_576.txt	LTP371	ltpFR2	3	9	AIRPLANE	12	n/a	n/a	0	0	0
1982.9326171875	n/a	WORD	4061046	wordpools/wasnorm_wordpool_576.txt	LTP371	ltpFR2	3	9	GAVEL	627	n/a	n/a	0	0	0
1985.673828125	n/a	WORD	4066660	wordpools/wasnorm_wordpool_576.txt	LTP371	ltpFR2	3	9	JUGGLER	763	n/a	n/a	0	0	0
1988.265625	n/a	WORD	4071968	wordpools/wasnorm_wordpool_576.txt	LTP371	ltpFR2	3	9	REBEL	1172	n/a	n/a	0	0	0
1990.7236328125	n/a	WORD	4077002	wordpools/wasnorm_wordpool_576.txt	LTP371	ltpFR2	3	9	SKILLET	1317	n/a	n/a	0	0	0
1993.1494140625	n/a	WORD	4081970	wordpools/wasnorm_wordpool_576.txt	LTP371	ltpFR2	3	9	ROBBER	1197	n/a	n/a	0	0	0
1995.908203125	n/a	WORD	4087620	wordpools/wasnorm_wordpool_576.txt	LTP371	ltpFR2	3	9	VICTIM	1562	n/a	n/a	0	0	0
1998.69921875	n/a	WORD	4093336	wordpools/wasnorm_wordpool_576.txt	LTP371	ltpFR2	3	9	JUDGE	761	n/a	n/a	0	0	0
2001.4580078125	n/a	WORD	4098986	wordpools/wasnorm_wordpool_576.txt	LTP371	ltpFR2	3	9	BISON	131	n/a	n/a	0	0	0
2004.0341796875	n/a	WORD	4104262	wordpools/wasnorm_wordpool_576.txt	LTP371	ltpFR2	3	9	JUNGLE	764	n/a	n/a	0	0	0
2006.72509765625	n/a	WORD	4109773	wordpools/wasnorm_wordpool_576.txt	LTP371	ltpFR2	3	9	SPHINX	1349	n/a	n/a	0	0	0
2009.4501953125	n/a	WORD	4115354	wordpools/wasnorm_wordpool_576.txt	LTP371	ltpFR2	3	9	PERFUME	1049	n/a	n/a	0	0	0
2011.9599609375	n/a	WORD	4120494	wordpools/wasnorm_wordpool_576.txt	LTP371	ltpFR2	3	9	FRAGRANCE	599	n/a	n/a	0	0	0
2014.70068359375	n/a	WORD	4126107	wordpools/wasnorm_wordpool_576.txt	LTP371	ltpFR2	3	9	FLEET	578	n/a	n/a	0	0	0
2017.392578125	n/a	WORD	4131620	wordpools/wasnorm_wordpool_576.txt	LTP371	ltpFR2	3	9	MAPLE	866	n/a	n/a	0	0	0
2019.83447265625	n/a	WORD	4136621	wordpools/wasnorm_wordpool_576.txt	LTP371	ltpFR2	3	9	BRANCH	168	n/a	n/a	0	0	0
2022.37548828125	n/a	WORD	4141825	wordpools/wasnorm_wordpool_576.txt	LTP371	ltpFR2	3	9	BOUQUET	157	n/a	n/a	0	0	0
2024.91748046875	n/a	WORD	4147031	wordpools/wasnorm_wordpool_576.txt	LTP371	ltpFR2	3	9	KITCHEN	778	n/a	n/a	0	0	0
2027.642578125	n/a	WORD	4152612	wordpools/wasnorm_wordpool_576.txt	LTP371	ltpFR2	3	9	LABEL	790	n/a	n/a	0	0	0
2030.33447265625	n/a	WORD	4158125	wordpools/wasnorm_wordpool_576.txt	LTP371	ltpFR2	3	9	MOTEL	919	n/a	n/a	0	0	0
2032.79345703125	n/a	WORD	4163161	wordpools/wasnorm_wordpool_576.txt	LTP371	ltpFR2	3	9	BUNNY	198	n/a	n/a	0	0	0
2035.26611328125	n/a	WORD	4168225	wordpools/wasnorm_wordpool_576.txt	LTP371	ltpFR2	3	9	PLAZA	1088	n/a	n/a	0	0	0
2036.873046875	n/a	START	4171516	n/a	LTP371	ltpFR2	3	n/a	n/a	n/a	13	n/a	n/a	n/a	n/a
2037.7099609375	n/a	DISTRACTOR	4173230	n/a	LTP371	ltpFR2	3	9	n/a	n/a	n/a	n/a	0	0	0
2037.72412109375	n/a	PROB	4173259	n/a	LTP371	ltpFR2	3	n/a	n/a	n/a	13	9	6	2	1
2039.36328125	n/a	PROB	4176616	n/a	LTP371	ltpFR2	3	n/a	n/a	n/a	13	23	9	8	5
2041.5869140625	n/a	PROB	4181170	n/a	LTP371	ltpFR2	3	n/a	n/a	n/a	13	15	8	2	5
2042.77490234375	n/a	PROB	4183603	n/a	LTP371	ltpFR2	3	n/a	n/a	n/a	13	12	3	8	1
2045.3828125	n/a	PROB	4188944	n/a	LTP371	ltpFR2	3	n/a	n/a	n/a	13	21	8	8	5
2046.8720703125	n/a	PROB	4191994	n/a	LTP371	ltpFR2	3	n/a	n/a	n/a	13	14	9	2	3
2048.39208984375	n/a	PROB	4195107	n/a	LTP371	ltpFR2	3	n/a	n/a	n/a	13	19	8	3	8
2050.181640625	n/a	PROB	4198772	n/a	LTP371	ltpFR2	3	n/a	n/a	n/a	13	20	8	4	8
2052.27197265625	n/a	PROB	4203053	n/a	LTP371	ltpFR2	3	n/a	n/a	n/a	13	17	5	7	5
2053.7939453125	n/a	PROB	4206170	n/a	LTP371	ltpFR2	3	n/a	n/a	n/a	13	13	1	4	8
2056.16748046875	n/a	PROB	4211031	n/a	LTP371	ltpFR2	3	n/a	n/a	n/a	13	11	1	4	6
2057.7216796875	n/a	PROB	4214214	n/a	LTP371	ltpFR2	3	n/a	n/a	n/a	13	9	5	2	2
2060.60546875	n/a	STOP	4220120	n/a	LTP371	ltpFR2	3	n/a	n/a	n/a	13	n/a	n/a	n/a	n/a
2062.7724609375	n/a	REC_START	4224558	n/a	LTP371	ltpFR2	3	9	n/a	n/a	n/a	n/a	0	0	0
2067.3125	n/a	REC_WORD	4233856	wordpools/wasnorm_wordpool_576.txt	LTP371	ltpFR2	3	9	HUMAN	726	n/a	n/a	0	0	0
2068.650390625	n/a	REC_WORD	4236596	wordpools/wasnorm_wordpool_576.txt	LTP371	ltpFR2	3	9	LOVER	846	n/a	n/a	0	0	0
2070.15234375	n/a	REC_WORD	4239672	wordpools/wasnorm_wordpool_576.txt	LTP371	ltpFR2	3	9	AIRPLANE	12	n/a	n/a	0	0	0
2071.79541015625	n/a	REC_WORD	4243037	wordpools/wasnorm_wordpool_576.txt	LTP371	ltpFR2	3	9	GAVEL	627	n/a	n/a	0	0	0
2073.28515625	n/a	REC_WORD	4246088	wordpools/wasnorm_wordpool_576.txt	LTP371	ltpFR2	3	9	JUGGLER	763	n/a	n/a	0	0	0
2074.89599609375	n/a	REC_WORD	4249387	wordpools/wasnorm_wordpool_576.txt	LTP371	ltpFR2	3	9	REBEL	1172	n/a	n/a	0	0	0
2076.17626953125	n/a	REC_WORD	4252009	wordpools/wasnorm_wordpool_576.txt	LTP371	ltpFR2	3	9	SKILLET	1317	n/a	n/a	0	0	0
2078.6220703125	n/a	REC_WORD	4257018	wordpools/wasnorm_wordpool_576.txt	LTP371	ltpFR2	3	9	ROBBER	1197	n/a	n/a	0	0	0
2080.19677734375	n/a	REC_WORD	4260243	wordpools/wasnorm_wordpool_576.txt	LTP371	ltpFR2	3	9	JUDGE	761	n/a	n/a	0	0	0
2081.73486328125	n/a	REC_WORD	4263393	wordpools/wasnorm_wordpool_576.txt	LTP371	ltpFR2	3	9	JUNGLE	764	n/a	n/a	0	0	0
2083.37109375	n/a	REC_WORD	4266744	wordpools/wasnorm_wordpool_576.txt	LTP371	ltpFR2	3	9	BISON	131	n/a	n/a	0	0	0
2085.3330078125	n/a	REC_WORD	4270762	wordpools/wasnorm_wordpool_576.txt	LTP371	ltpFR2	3	9	FLEET	578	n/a	n/a	0	0	0
2088.5576171875	n/a	REC_WORD	4277366	wordpools/wasnorm_wordpool_576.txt	LTP371	ltpFR2	3	9	TWIG	1527	n/a	n/a	0	0	0
2090.48486328125	n/a	REC_WORD	4281313	wordpools/wasnorm_wordpool_576.txt	LTP371	ltpFR2	3	9	BRANCH	168	n/a	n/a	0	0	0
2092.06689453125	n/a	REC_WORD	4284553	wordpools/wasnorm_wordpool_576.txt	LTP371	ltpFR2	3	9	BOUQUET	157	n/a	n/a	0	0	0
2094.173828125	n/a	REC_WORD	4288868	wordpools/wasnorm_wordpool_576.txt	LTP371	ltpFR2	3	9	MAPLE	866	n/a	n/a	0	0	0
2104.369140625	n/a	REC_WORD	4309748	wordpools/wasnorm_wordpool_576.txt	LTP371	ltpFR2	3	9	SPHINX	1349	n/a	n/a	0	0	0
2107.63623046875	n/a	REC_WORD	4316439	wordpools/wasnorm_wordpool_576.txt	LTP371	ltpFR2	3	9	KITCHEN	778	n/a	n/a	0	0	0
2108.8173828125	n/a	REC_WORD	4318858	wordpools/wasnorm_wordpool_576.txt	LTP371	ltpFR2	3	9	LABEL	790	n/a	n/a	0	0	0
2111.150390625	n/a	REC_WORD	4323636	wordpools/wasnorm_wordpool_576.txt	LTP371	ltpFR2	3	9	BUNNY	198	n/a	n/a	0	0	0
2115.18798828125	n/a	REC_WORD	4331905	wordpools/wasnorm_wordpool_576.txt	LTP371	ltpFR2	3	9	MOTEL	919	n/a	n/a	0	0	0
2153.22900390625	n/a	WORD	4409813	wordpools/wasnorm_wordpool_576.txt	LTP371	ltpFR2	3	10	APPLE	33	n/a	n/a	0	0	0
2155.75390625	n/a	WORD	4414984	wordpools/wasnorm_wordpool_576.txt	LTP371	ltpFR2	3	10	SHELTER	1282	n/a	n/a	0	0	0
2158.37890625	n/a	WORD	4420360	wordpools/wasnorm_wordpool_576.txt	LTP371	ltpFR2	3	10	COWBOY	395	n/a	n/a	0	0	0
2160.90478515625	n/a	WORD	4425533	wordpools/wasnorm_wordpool_576.txt	LTP371	ltpFR2	3	10	MUSTARD	935	n/a	n/a	0	0	0
2163.595703125	n/a	WORD	4431044	wordpools/wasnorm_wordpool_576.txt	LTP371	ltpFR2	3	10	RELISH	1183	n/a	n/a	0	0	0
2166.28759765625	n/a	WORD	4436557	wordpools/wasnorm_wordpool_576.txt	LTP371	ltpFR2	3	10	SEAFOOD	1260	n/a	n/a	0	0	0
2168.8466796875	n/a	WORD	4441798	wordpools/wasnorm_wordpool_576.txt	LTP371	ltpFR2	3	10	TWEEZERS	1526	n/a	n/a	0	0	0
2171.470703125	n/a	WORD	4447172	wordpools/wasnorm_wordpool_576.txt	LTP371	ltpFR2	3	10	DUSTPAN	509	n/a	n/a	0	0	0
2173.9794921875	n/a	WORD	4452310	wordpools/wasnorm_wordpool_576.txt	LTP371	ltpFR2	3	10	BOX	159	n/a	n/a	0	0	0
2176.72119140625	n/a	WORD	4457925	wordpools/wasnorm_wordpool_576.txt	LTP371	ltpFR2	3	10	GIFT	635	n/a	n/a	0	0	0
2179.51318359375	n/a	WORD	4463643	wordpools/wasnorm_wordpool_576.txt	LTP371	ltpFR2	3	10	TERMITE	1451	n/a	n/a	0	0	0
2182.00537109375	n/a	WORD	4468747	wordpools/wasnorm_wordpool_576.txt	LTP371	ltpFR2	3	10	ATOM	55	n/a	n/a	0	0	0
2184.49609375	n/a	WORD	4473848	wordpools/wasnorm_wordpool_576.txt	LTP371	ltpFR2	3	10	BEAKER	104	n/a	n/a	0	0	0
2186.955078125	n/a	WORD	4478884	wordpools/wasnorm_wordpool_576.txt	LTP371	ltpFR2	3	10	CRIB	407	n/a	n/a	0	0	0
2189.74609375	n/a	WORD	4484600	wordpools/wasnorm_wordpool_576.txt	LTP371	ltpFR2	3	10	CITRUS	313	n/a	n/a	0	0	0
2192.4716796875	n/a	WORD	4490182	wordpools/wasnorm_wordpool_576.txt	LTP371	ltpFR2	3	10	GIRL	637	n/a	n/a	0	0	0
2194.9638671875	n/a	WORD	4495286	wordpools/wasnorm_wordpool_576.txt	LTP371	ltpFR2	3	10	TABLET	1427	n/a	n/a	0	0	0
2197.52099609375	n/a	WORD	4500523	wordpools/wasnorm_wordpool_576.txt	LTP371	ltpFR2	3	10	RADISH	1158	n/a	n/a	0	0	0
2200.19677734375	n/a	WORD	4506003	wordpools/wasnorm_wordpool_576.txt	LTP371	ltpFR2	3	10	GLOBE	641	n/a	n/a	0	0	0
2202.8896484375	n/a	WORD	4511518	wordpools/wasnorm_wordpool_576.txt	LTP371	ltpFR2	3	10	CHILD	299	n/a	n/a	0	0	0
2205.3623046875	n/a	WORD	4516582	wordpools/wasnorm_wordpool_576.txt	LTP371	ltpFR2	3	10	PIZZA	1079	n/a	n/a	0	0	0
2208.1396484375	n/a	WORD	4522270	wordpools/wasnorm_wordpool_576.txt	LTP371	ltpFR2	3	10	CASHIER	254	n/a	n/a	0	0	0
2210.9482421875	n/a	WORD	4528022	wordpools/wasnorm_wordpool_576.txt	LTP371	ltpFR2	3	10	MARS	873	n/a	n/a	0	0	0
2213.58935546875	n/a	WORD	4533431	wordpools/wasnorm_wordpool_576.txt	LTP371	ltpFR2	3	10	PARSLEY	1016	n/a	n/a	0	0	0
2215.1953125	n/a	START	4536720	n/a	LTP371	ltpFR2	3	n/a	n/a	n/a	14	n/a	n/a	n/a	n/a
2216.01806640625	n/a	DISTRACTOR	4538405	n/a	LTP371	ltpFR2	3	10	n/a	n/a	n/a	n/a	0	0	0
2216.03125	n/a	PROB	4538432	n/a	LTP371	ltpFR2	3	n/a	n/a	n/a	14	16	3	8	5
2218.0380859375	n/a	PROB	4542542	n/a	LTP371	ltpFR2	3	n/a	n/a	n/a	14	21	4	9	8
2219.59228515625	n/a	PROB	4545725	n/a	LTP371	ltpFR2	3	n/a	n/a	n/a	14	15	9	1	5
2220.7119140625	n/a	PROB	4548018	n/a	LTP371	ltpFR2	3	n/a	n/a	n/a	14	14	3	4	7
2222.06787109375	n/a	PROB	4550795	n/a	LTP371	ltpFR2	3	n/a	n/a	n/a	14	15	3	3	9
2223.85693359375	n/a	PROB	4554459	n/a	LTP371	ltpFR2	3	n/a	n/a	n/a	14	13	1	6	6
2225.126953125	n/a	PROB	4557060	n/a	LTP371	ltpFR2	3	n/a	n/a	n/a	14	23	6	8	9
2226.93310546875	n/a	PROB	4560759	n/a	LTP371	ltpFR2	3	n/a	n/a	n/a	14	20	8	8	4
2228.27001953125	n/a	PROB	4563497	n/a	LTP371	ltpFR2	3	n/a	n/a	n/a	14	15	2	6	7
2231.94970703125	n/a	PROB	4571033	n/a	LTP371	ltpFR2	3	n/a	n/a	n/a	14	20	7	4	9
2234.94287109375	n/a	PROB	4577163	n/a	LTP371	ltpFR2	3	n/a	n/a	n/a	14	15	2	6	7
2236.27880859375	n/a	PROB	4579899	n/a	LTP371	ltpFR2	3	n/a	n/a	n/a	14	8	4	4	2
2237.5498046875	n/a	PROB	4582502	n/a	LTP371	ltpFR2	3	n/a	n/a	n/a	14	3	1	1	1
2238.58984375	n/a	STOP	4584632	n/a	LTP371	ltpFR2	3	n/a	n/a	n/a	14	n/a	n/a	n/a	n/a
2240.99560546875	n/a	REC_START	4589559	n/a	LTP371	ltpFR2	3	10	n/a	n/a	n/a	n/a	0	0	0
2241.8193359375	n/a	REC_WORD	4591246	wordpools/wasnorm_wordpool_576.txt	LTP371	ltpFR2	3	10	CHILD	299	n/a	n/a	0	0	0
2243.20849609375	n/a	REC_WORD	4594091	wordpools/wasnorm_wordpool_576.txt	LTP371	ltpFR2	3	10	GIRL	637	n/a	n/a	0	0	0
2244.6884765625	n/a	REC_WORD	4597122	wordpools/wasnorm_wordpool_576.txt	LTP371	ltpFR2	3	10	PARSLEY	1016	n/a	n/a	0	0	0
2245.99365234375	n/a	REC_WORD	4599795	wordpools/wasnorm_wordpool_576.txt	LTP371	ltpFR2	3	10	RADISH	1158	n/a	n/a	0	0	0
2247.19921875	n/a	REC_WORD	4602264	wordpools/wasnorm_wordpool_576.txt	LTP371	ltpFR2	3	10	TABLET	1427	n/a	n/a	0	0	0
2248.26953125	n/a	REC_WORD	4604456	wordpools/wasnorm_wordpool_576.txt	LTP371	ltpFR2	3	10	CASHIER	254	n/a	n/a	0	0	0
2249.67431640625	n/a	REC_WORD	4607333	wordpools/wasnorm_wordpool_576.txt	LTP371	ltpFR2	3	10	PIZZA	1079	n/a	n/a	0	0	0
2250.99951171875	n/a	REC_WORD	4610047	wordpools/wasnorm_wordpool_576.txt	LTP371	ltpFR2	3	10	MARS	873	n/a	n/a	0	0	0
2253.22705078125	n/a	REC_WORD	4614609	wordpools/wasnorm_wordpool_576.txt	LTP371	ltpFR2	3	10	COWBOY	395	n/a	n/a	0	0	0
2254.4453125	n/a	REC_WORD	4617104	wordpools/wasnorm_wordpool_576.txt	LTP371	ltpFR2	3	10	SHELTER	1282	n/a	n/a	0	0	0
2256.8310546875	n/a	REC_WORD	4621990	wordpools/wasnorm_wordpool_576.txt	LTP371	ltpFR2	3	10	APPLE	33	n/a	n/a	0	0	0
2260.39990234375	n/a	REC_WORD	4629299	wordpools/wasnorm_wordpool_576.txt	LTP371	ltpFR2	3	10	MUSTARD	935	n/a	n/a	0	0	0
2261.64306640625	n/a	REC_WORD	4631845	wordpools/wasnorm_wordpool_576.txt	LTP371	ltpFR2	3	10	CRIB	407	n/a	n/a	0	0	0
2262.73779296875	n/a	REC_WORD	4634087	wordpools/wasnorm_wordpool_576.txt	LTP371	ltpFR2	3	10	SEAFOOD	1260	n/a	n/a	0	0	0
2264.24169921875	n/a	REC_WORD	4637167	wordpools/wasnorm_wordpool_576.txt	LTP371	ltpFR2	3	10	RELISH	1183	n/a	n/a	0	0	0
2267.767578125	n/a	REC_WORD	4644388	wordpools/wasnorm_wordpool_576.txt	LTP371	ltpFR2	3	10	TWEEZERS	1526	n/a	n/a	0	0	0
2269.2587890625	n/a	REC_WORD	4647442	wordpools/wasnorm_wordpool_576.txt	LTP371	ltpFR2	3	10	BOX	159	n/a	n/a	0	0	0
2270.5498046875	n/a	REC_WORD	4650086	wordpools/wasnorm_wordpool_576.txt	LTP371	ltpFR2	3	10	GIFT	635	n/a	n/a	0	0	0
2273.0556640625	n/a	REC_WORD	4655218	wordpools/wasnorm_wordpool_576.txt	LTP371	ltpFR2	3	10	TERMITE	1451	n/a	n/a	0	0	0
2275.03857421875	n/a	REC_WORD	4659279	wordpools/wasnorm_wordpool_576.txt	LTP371	ltpFR2	3	10	ATOM	55	n/a	n/a	0	0	0
2278.24755859375	n/a	REC_WORD	4665851	wordpools/wasnorm_wordpool_576.txt	LTP371	ltpFR2	3	10	BEAKER	104	n/a	n/a	0	0	0
2331.451171875	n/a	WORD	4774812	wordpools/wasnorm_wordpool_576.txt	LTP371	ltpFR2	3	11	BATHTUB	100	n/a	n/a	0	0	0
2334.0771484375	n/a	WORD	4780190	wordpools/wasnorm_wordpool_576.txt	LTP371	ltpFR2	3	11	SPONGE	1355	n/a	n/a	0	0	0
2336.7177734375	n/a	WORD	4785598	wordpools/wasnorm_wordpool_576.txt	LTP371	ltpFR2	3	11	CIGAR	308	n/a	n/a	0	0	0
2339.19287109375	n/a	WORD	4790667	wordpools/wasnorm_wordpool_576.txt	LTP371	ltpFR2	3	11	SWIMMER	1420	n/a	n/a	0	0	0
2341.98583984375	n/a	WORD	4796387	wordpools/wasnorm_wordpool_576.txt	LTP371	ltpFR2	3	11	BLACKBOARD	133	n/a	n/a	0	0	0
2344.40966796875	n/a	WORD	4801351	wordpools/wasnorm_wordpool_576.txt	LTP371	ltpFR2	3	11	LIVER	833	n/a	n/a	0	0	0
2347.03564453125	n/a	WORD	4806729	wordpools/wasnorm_wordpool_576.txt	LTP371	ltpFR2	3	11	DOLPHIN	483	n/a	n/a	0	0	0
2349.45849609375	n/a	WORD	4811691	wordpools/wasnorm_wordpool_576.txt	LTP371	ltpFR2	3	11	COUNTRY	388	n/a	n/a	0	0	0
2352.1015625	n/a	WORD	4817104	wordpools/wasnorm_wordpool_576.txt	LTP371	ltpFR2	3	11	STOVE	1388	n/a	n/a	0	0	0
2354.525390625	n/a	WORD	4822068	wordpools/wasnorm_wordpool_576.txt	LTP371	ltpFR2	3	11	APRON	35	n/a	n/a	0	0	0
2357.0673828125	n/a	WORD	4827274	wordpools/wasnorm_wordpool_576.txt	LTP371	ltpFR2	3	11	SPIDER	1351	n/a	n/a	0	0	0
2359.826171875	n/a	WORD	4832924	wordpools/wasnorm_wordpool_576.txt	LTP371	ltpFR2	3	11	DOUGHNUT	490	n/a	n/a	0	0	0
2362.51708984375	n/a	WORD	4838435	wordpools/wasnorm_wordpool_576.txt	LTP371	ltpFR2	3	11	SHORTCAKE	1292	n/a	n/a	0	0	0
2365.09326171875	n/a	WORD	4843711	wordpools/wasnorm_wordpool_576.txt	LTP371	ltpFR2	3	11	RAFT	1159	n/a	n/a	0	0	0
2367.80224609375	n/a	WORD	4849259	wordpools/wasnorm_wordpool_576.txt	LTP371	ltpFR2	3	11	BRACES	164	n/a	n/a	0	0	0
2370.22607421875	n/a	WORD	4854223	wordpools/wasnorm_wordpool_576.txt	LTP371	ltpFR2	3	11	HORNET	718	n/a	n/a	0	0	0
2372.95166015625	n/a	WORD	4859805	wordpools/wasnorm_wordpool_576.txt	LTP371	ltpFR2	3	11	SCALLOP	1242	n/a	n/a	0	0	0
2375.72705078125	n/a	WORD	4865489	wordpools/wasnorm_wordpool_576.txt	LTP371	ltpFR2	3	11	CARRIAGE	248	n/a	n/a	0	0	0
2378.2177734375	n/a	WORD	4870590	wordpools/wasnorm_wordpool_576.txt	LTP371	ltpFR2	3	11	DONKEY	484	n/a	n/a	0	0	0
2380.8447265625	n/a	WORD	4875970	wordpools/wasnorm_wordpool_576.txt	LTP371	ltpFR2	3	11	SHORTS	1293	n/a	n/a	0	0	0
2383.28466796875	n/a	WORD	4880967	wordpools/wasnorm_wordpool_576.txt	LTP371	ltpFR2	3	11	PAIL	1002	n/a	n/a	0	0	0
2385.74267578125	n/a	WORD	4886001	wordpools/wasnorm_wordpool_576.txt	LTP371	ltpFR2	3	11	FARMER	553	n/a	n/a	0	0	0
2388.21630859375	n/a	WORD	4891067	wordpools/wasnorm_wordpool_576.txt	LTP371	ltpFR2	3	11	BODY	145	n/a	n/a	0	0	0
2390.84326171875	n/a	WORD	4896447	wordpools/wasnorm_wordpool_576.txt	LTP371	ltpFR2	3	11	KIDNEY	776	n/a	n/a	0	0	0
2392.447265625	n/a	START	4899732	n/a	LTP371	ltpFR2	3	n/a	n/a	n/a	15	n/a	n/a	n/a	n/a
2393.5302734375	n/a	DISTRACTOR	4901950	n/a	LTP371	ltpFR2	3	11	n/a	n/a	n/a	n/a	0	0	0
2393.5341796875	n/a	PROB	4901958	n/a	LTP371	ltpFR2	3	n/a	n/a	n/a	15	16	5	4	7
2395.3232421875	n/a	PROB	4905622	n/a	LTP371	ltpFR2	3	n/a	n/a	n/a	15	17	5	3	9
2397.6640625	n/a	PROB	4910416	n/a	LTP371	ltpFR2	3	n/a	n/a	n/a	15	7	1	3	3
2398.85205078125	n/a	PROB	4912849	n/a	LTP371	ltpFR2	3	n/a	n/a	n/a	15	8	1	5	2
2400.322265625	n/a	PROB	4915860	n/a	LTP371	ltpFR2	3	n/a	n/a	n/a	15	12	1	8	3
2402.044921875	n/a	PROB	4919388	n/a	LTP371	ltpFR2	3	n/a	n/a	n/a	15	22	7	9	6
2405.52197265625	n/a	PROB	4926509	n/a	LTP371	ltpFR2	3	n/a	n/a	n/a	15	12	1	5	6
2406.69287109375	n/a	PROB	4928907	n/a	LTP371	ltpFR2	3	n/a	n/a	n/a	15	12	3	2	7
2408.08203125	n/a	PROB	4931752	n/a	LTP371	ltpFR2	3	n/a	n/a	n/a	15	12	2	6	4
2409.26806640625	n/a	PROB	4934181	n/a	LTP371	ltpFR2	3	n/a	n/a	n/a	15	18	7	3	8
2410.52197265625	n/a	PROB	4936749	n/a	LTP371	ltpFR2	3	n/a	n/a	n/a	15	11	3	6	2
2412.69580078125	n/a	PROB	4941201	n/a	LTP371	ltpFR2	3	n/a	n/a	n/a	15	18	7	7	4
2414.03369140625	n/a	PROB	4943941	n/a	LTP371	ltpFR2	3	n/a	n/a	n/a	15	19	9	8	2
2415.99853515625	n/a	STOP	4947965	n/a	LTP371	ltpFR2	3	n/a	n/a	n/a	15	n/a	n/a	n/a	n/a
2418.2978515625	n/a	REC_START	4952674	n/a	LTP371	ltpFR2	3	11	n/a	n/a	n/a	n/a	0	0	0
2422.9326171875	n/a	REC_WORD	4962166	wordpools/wasnorm_wordpool_576.txt	LTP371	ltpFR2	3	11	DONKEY	484	n/a	n/a	0	0	0
2423.9775390625	n/a	REC_WORD	4964306	wordpools/wasnorm_wordpool_576.txt	LTP371	ltpFR2	3	11	CARRIAGE	248	n/a	n/a	0	0	0
2425.0634765625	n/a	REC_WORD	4966530	wordpools/wasnorm_wordpool_576.txt	LTP371	ltpFR2	3	11	FARMER	553	n/a	n/a	0	0	0
2426.38720703125	n/a	REC_WORD	4969241	wordpools/wasnorm_wordpool_576.txt	LTP371	ltpFR2	3	11	PAIL	1002	n/a	n/a	0	0	0
2427.7373046875	n/a	REC_WORD	4972006	wordpools/wasnorm_wordpool_576.txt	LTP371	ltpFR2	3	11	BODY	145	n/a	n/a	0	0	0
2432.30029296875	n/a	REC_WORD	4981351	wordpools/wasnorm_wordpool_576.txt	LTP371	ltpFR2	3	11	KIDNEY	776	n/a	n/a	0	0	0
2434.47900390625	n/a	REC_WORD	4985813	wordpools/wasnorm_wordpool_576.txt	LTP371	ltpFR2	3	11	LIVER	833	n/a	n/a	0	0	0
2435.541015625	n/a	REC_WORD	4987988	wordpools/wasnorm_wordpool_576.txt	LTP371	ltpFR2	3	11	BLACKBOARD	133	n/a	n/a	0	0	0
2436.80810546875	n/a	REC_WORD	4990583	wordpools/wasnorm_wordpool_576.txt	LTP371	ltpFR2	3	11	DOLPHIN	483	n/a	n/a	0	0	0
2442.31494140625	n/a	REC_WORD	5001861	wordpools/wasnorm_wordpool_576.txt	LTP371	ltpFR2	3	11	WORLD	1622	n/a	n/a	0	0	0
2444.703125	n/a	REC_WORD	5006752	wordpools/wasnorm_wordpool_576.txt	LTP371	ltpFR2	3	11	STOVE	1388	n/a	n/a	0	0	0
2451.08447265625	n/a	REC_WORD	5019821	wordpools/wasnorm_wordpool_576.txt	LTP371	ltpFR2	3	11	SHORTCAKE	1292	n/a	n/a	0	0	0
2452.4228515625	n/a	REC_WORD	5022562	wordpools/wasnorm_wordpool_576.txt	LTP371	ltpFR2	3	11	DOUGHNUT	490	n/a	n/a	0	0	0
2453.41455078125	n/a	REC_WORD	5024593	wordpools/wasnorm_wordpool_576.txt	LTP371	ltpFR2	3	11	SPIDER	1351	n/a	n/a	0	0	0
2454.94873046875	n/a	REC_WORD	5027735	wordpools/wasnorm_wordpool_576.txt	LTP371	ltpFR2	3	11	APRON	35	n/a	n/a	0	0	0
2458.54052734375	n/a	REC_WORD	5035091	wordpools/wasnorm_wordpool_576.txt	LTP371	ltpFR2	3	11	RAFT	1159	n/a	n/a	0	0	0
2508.7373046875	n/a	DISTRACTOR	5137894	n/a	LTP371	ltpFR2	3	12	n/a	n/a	n/a	n/a	0	0	0
2508.7373046875	n/a	START	5137894	n/a	LTP371	ltpFR2	3	n/a	n/a	n/a	16	n/a	n/a	n/a	n/a
2508.75390625	n/a	PROB	5137928	n/a	LTP371	ltpFR2	3	n/a	n/a	n/a	16	11	1	4	6
2510.0419921875	n/a	PROB	5140566	n/a	LTP371	ltpFR2	3	n/a	n/a	n/a	16	12	3	1	8
2511.412109375	n/a	PROB	5143372	n/a	LTP371	ltpFR2	3	n/a	n/a	n/a	16	14	4	8	2
2512.80078125	n/a	PROB	5146216	n/a	LTP371	ltpFR2	3	n/a	n/a	n/a	16	12	3	1	8
2514.65576171875	n/a	PROB	5150015	n/a	LTP371	ltpFR2	3	n/a	n/a	n/a	16	16	3	9	4
2516.06201171875	n/a	PROB	5152895	n/a	LTP371	ltpFR2	3	n/a	n/a	n/a	16	23	6	7	6
2517.80078125	n/a	PROB	5156456	n/a	LTP371	ltpFR2	3	n/a	n/a	n/a	16	7	2	1	4
2520.041015625	n/a	PROB	5161044	n/a	LTP371	ltpFR2	3	n/a	n/a	n/a	16	16	3	9	4
2521.36083984375	n/a	PROB	5163747	n/a	LTP371	ltpFR2	3	n/a	n/a	n/a	16	16	8	7	1
2523.00048828125	n/a	PROB	5167105	n/a	LTP371	ltpFR2	3	n/a	n/a	n/a	16	21	5	9	7
2524.62158203125	n/a	PROB	5170425	n/a	LTP371	ltpFR2	3	n/a	n/a	n/a	16	18	3	8	7
2526.36083984375	n/a	PROB	5173987	n/a	LTP371	ltpFR2	3	n/a	n/a	n/a	16	17	2	9	6
2529.25341796875	n/a	PROB	5179911	n/a	LTP371	ltpFR2	3	n/a	n/a	n/a	16	11	8	2	1
2530.2734375	n/a	PROB	5182000	n/a	LTP371	ltpFR2	3	n/a	n/a	n/a	16	16	3	6	7
2531.85546875	n/a	STOP	5185240	n/a	LTP371	ltpFR2	3	n/a	n/a	n/a	16	n/a	n/a	n/a	n/a
2533.95263671875	n/a	WORD	5189535	wordpools/wasnorm_wordpool_576.txt	LTP371	ltpFR2	3	12	WARDROBE	1587	n/a	n/a	0	0	0
2536.560546875	n/a	WORD	5194876	wordpools/wasnorm_wordpool_576.txt	LTP371	ltpFR2	3	12	TWISTER	1530	n/a	n/a	0	0	0
2539.00244140625	n/a	WORD	5199877	wordpools/wasnorm_wordpool_576.txt	LTP371	ltpFR2	3	12	ANTLER	29	n/a	n/a	0	0	0
2541.4921875	n/a	WORD	5204976	wordpools/wasnorm_wordpool_576.txt	LTP371	ltpFR2	3	12	ITEM	746	n/a	n/a	0	0	0
2544.05126953125	n/a	WORD	5210217	wordpools/wasnorm_wordpool_576.txt	LTP371	ltpFR2	3	12	FOX	598	n/a	n/a	0	0	0
2546.6591796875	n/a	WORD	5215558	wordpools/wasnorm_wordpool_576.txt	LTP371	ltpFR2	3	12	WORKER	1621	n/a	n/a	0	0	0
2549.23388671875	n/a	WORD	5220831	wordpools/wasnorm_wordpool_576.txt	LTP371	ltpFR2	3	12	PRINCESS	1125	n/a	n/a	0	0	0
2551.708984375	n/a	WORD	5225900	wordpools/wasnorm_wordpool_576.txt	LTP371	ltpFR2	3	12	COOKBOOK	373	n/a	n/a	0	0	0
2554.45068359375	n/a	WORD	5231515	wordpools/wasnorm_wordpool_576.txt	LTP371	ltpFR2	3	12	STOMACH	1384	n/a	n/a	0	0	0
2557.2265625	n/a	WORD	5237200	wordpools/wasnorm_wordpool_576.txt	LTP371	ltpFR2	3	12	PEANUT	1032	n/a	n/a	0	0	0
2559.66748046875	n/a	WORD	5242199	wordpools/wasnorm_wordpool_576.txt	LTP371	ltpFR2	3	12	MAILMAN	858	n/a	n/a	0	0	0
2562.32568359375	n/a	WORD	5247643	wordpools/wasnorm_wordpool_576.txt	LTP371	ltpFR2	3	12	PUPPY	1144	n/a	n/a	0	0	0
2564.8017578125	n/a	WORD	5252714	wordpools/wasnorm_wordpool_576.txt	LTP371	ltpFR2	3	12	MISSILE	900	n/a	n/a	0	0	0
2567.29248046875	n/a	WORD	5257815	wordpools/wasnorm_wordpool_576.txt	LTP371	ltpFR2	3	12	HANDBAG	684	n/a	n/a	0	0	0
2569.9345703125	n/a	WORD	5263226	wordpools/wasnorm_wordpool_576.txt	LTP371	ltpFR2	3	12	KNAPSACK	783	n/a	n/a	0	0	0
2572.47509765625	n/a	WORD	5268429	wordpools/wasnorm_wordpool_576.txt	LTP371	ltpFR2	3	12	DRAWING	494	n/a	n/a	0	0	0
2575.08447265625	n/a	WORD	5273773	wordpools/wasnorm_wordpool_576.txt	LTP371	ltpFR2	3	12	SCULPTURE	1258	n/a	n/a	0	0	0
2577.6923828125	n/a	WORD	5279114	wordpools/wasnorm_wordpool_576.txt	LTP371	ltpFR2	3	12	SALAD	1224	n/a	n/a	0	0	0
2580.3671875	n/a	WORD	5284592	wordpools/wasnorm_wordpool_576.txt	LTP371	ltpFR2	3	12	CUPBOARD	425	n/a	n/a	0	0	0
2583.126953125	n/a	WORD	5290244	wordpools/wasnorm_wordpool_576.txt	LTP371	ltpFR2	3	12	MATTRESS	879	n/a	n/a	0	0	0
2585.8359375	n/a	WORD	5295792	wordpools/wasnorm_wordpool_576.txt	LTP371	ltpFR2	3	12	RECEIPT	1173	n/a	n/a	0	0	0
2588.57666015625	n/a	WORD	5301405	wordpools/wasnorm_wordpool_576.txt	LTP371	ltpFR2	3	12	AWARD	63	n/a	n/a	0	0	0
2591.31884765625	n/a	WORD	5307021	wordpools/wasnorm_wordpool_576.txt	LTP371	ltpFR2	3	12	ARMY	39	n/a	n/a	0	0	0
2593.86181640625	n/a	WORD	5312229	wordpools/wasnorm_wordpool_576.txt	LTP371	ltpFR2	3	12	CABBAGE	210	n/a	n/a	0	0	0
2595.4658203125	n/a	START	5315514	n/a	LTP371	ltpFR2	3	n/a	n/a	n/a	17	n/a	n/a	n/a	n/a
2596.44189453125	n/a	DISTRACTOR	5317513	n/a	LTP371	ltpFR2	3	12	n/a	n/a	n/a	n/a	0	0	0
2596.45263671875	n/a	PROB	5317535	n/a	LTP371	ltpFR2	3	n/a	n/a	n/a	17	23	9	8	5
2599.3447265625	n/a	PROB	5323458	n/a	LTP371	ltpFR2	3	n/a	n/a	n/a	17	11	1	9	1
2600.49853515625	n/a	PROB	5325821	n/a	LTP371	ltpFR2	3	n/a	n/a	n/a	17	15	6	5	4
2602.20458984375	n/a	PROB	5329315	n/a	LTP371	ltpFR2	3	n/a	n/a	n/a	17	13	1	5	7
2603.65869140625	n/a	PROB	5332293	n/a	LTP371	ltpFR2	3	n/a	n/a	n/a	17	14	2	4	8
2605.16455078125	n/a	PROB	5335377	n/a	LTP371	ltpFR2	3	n/a	n/a	n/a	17	14	3	2	9
2606.92041015625	n/a	PROB	5338973	n/a	LTP371	ltpFR2	3	n/a	n/a	n/a	17	21	7	7	7
2609.2265625	n/a	PROB	5343696	n/a	LTP371	ltpFR2	3	n/a	n/a	n/a	17	13	5	5	3
2610.3974609375	n/a	PROB	5346094	n/a	LTP371	ltpFR2	3	n/a	n/a	n/a	17	21	6	9	6
2613.490234375	n/a	PROB	5352428	n/a	LTP371	ltpFR2	3	n/a	n/a	n/a	17	21	9	3	9
2615.26318359375	n/a	PROB	5356059	n/a	LTP371	ltpFR2	3	n/a	n/a	n/a	17	23	7	7	9
2619.46484375	n/a	STOP	5364664	n/a	LTP371	ltpFR2	3	n/a	n/a	n/a	17	n/a	n/a	n/a	n/a
2621.31591796875	n/a	REC_START	5368455	n/a	LTP371	ltpFR2	3	12	n/a	n/a	n/a	n/a	0	0	0
2622.85498046875	n/a	REC_WORD	5371607	wordpools/wasnorm_wordpool_576.txt	LTP371	ltpFR2	3	12	FOX	598	n/a	n/a	0	0	0
2623.98974609375	n/a	REC_WORD	5373931	wordpools/wasnorm_wordpool_576.txt	LTP371	ltpFR2	3	12	TWISTER	1530	n/a	n/a	0	0	0
2625.1748046875	n/a	REC_WORD	5376358	wordpools/wasnorm_wordpool_576.txt	LTP371	ltpFR2	3	12	MATTRESS	879	n/a	n/a	0	0	0
2626.36767578125	n/a	REC_WORD	5378801	wordpools/wasnorm_wordpool_576.txt	LTP371	ltpFR2	3	12	ANTLER	29	n/a	n/a	0	0	0
2627.5595703125	n/a	REC_WORD	5381242	wordpools/wasnorm_wordpool_576.txt	LTP371	ltpFR2	3	12	ITEM	746	n/a	n/a	0	0	0
2627.56982421875	n/a	REC_WORD	5381263	wordpools/wasnorm_wordpool_576.txt	LTP371	ltpFR2	3	12	ITEM	746	n/a	n/a	0	0	0
2628.74658203125	n/a	REC_WORD	5383673	wordpools/wasnorm_wordpool_576.txt	LTP371	ltpFR2	3	12	WARDROBE	1587	n/a	n/a	0	0	0
2630.06787109375	n/a	REC_WORD	5386379	wordpools/wasnorm_wordpool_576.txt	LTP371	ltpFR2	3	12	CUPBOARD	425	n/a	n/a	0	0	0
2657.77197265625	n/a	REC_WORD	5443117	wordpools/wasnorm_wordpool_576.txt	LTP371	ltpFR2	3	12	MAILMAN	858	n/a	n/a	0	0	0
2658.921875	n/a	REC_WORD	5445472	wordpools/wasnorm_wordpool_576.txt	LTP371	ltpFR2	3	12	PRINCESS	1125	n/a	n/a	0	0	0
2661.19873046875	n/a	REC_WORD	5450135	wordpools/wasnorm_wordpool_576.txt	LTP371	ltpFR2	3	12	STOMACH	1384	n/a	n/a	0	0	0
2662.68603515625	n/a	REC_WORD	5453181	wordpools/wasnorm_wordpool_576.txt	LTP371	ltpFR2	3	12	COOKBOOK	373	n/a	n/a	0	0	0
2664.74560546875	n/a	REC_WORD	5457399	wordpools/wasnorm_wordpool_576.txt	LTP371	ltpFR2	3	12	WORKER	1621	n/a	n/a	0	0	0
2667.45947265625	n/a	REC_WORD	5462957	wordpools/wasnorm_wordpool_576.txt	LTP371	ltpFR2	3	12	SALAD	1224	n/a	n/a	0	0	0
2669.1416015625	n/a	REC_WORD	5466402	wordpools/wasnorm_wordpool_576.txt	LTP371	ltpFR2	3	12	DRAWING	494	n/a	n/a	0	0	0
2670.40576171875	n/a	REC_WORD	5468991	wordpools/wasnorm_wordpool_576.txt	LTP371	ltpFR2	3	12	SCULPTURE	1258	n/a	n/a	0	0	0
2671.857421875	n/a	REC_WORD	5471964	wordpools/wasnorm_wordpool_576.txt	LTP371	ltpFR2	3	12	KNAPSACK	783	n/a	n/a	0	0	0
2673.5146484375	n/a	REC_WORD	5475358	wordpools/wasnorm_wordpool_576.txt	LTP371	ltpFR2	3	12	AWARD	63	n/a	n/a	0	0	0
2674.70849609375	n/a	REC_WORD	5477803	wordpools/wasnorm_wordpool_576.txt	LTP371	ltpFR2	3	12	PUPPY	1144	n/a	n/a	0	0	0
2676.064453125	n/a	REC_WORD	5480580	wordpools/wasnorm_wordpool_576.txt	LTP371	ltpFR2	3	12	MISSILE	900	n/a	n/a	0	0	0
2677.8203125	n/a	REC_WORD	5484176	wordpools/wasnorm_wordpool_576.txt	LTP371	ltpFR2	3	12	HANDBAG	684	n/a	n/a	0	0	0
2711.7734375	n/a	WORD	5553712	wordpools/wasnorm_wordpool_576.txt	LTP371	ltpFR2	3	13	DORM	488	n/a	n/a	0	0	0
2714.2802734375	n/a	WORD	5558846	wordpools/wasnorm_wordpool_576.txt	LTP371	ltpFR2	3	13	CRAB	397	n/a	n/a	0	0	0
2716.9072265625	n/a	WORD	5564226	wordpools/wasnorm_wordpool_576.txt	LTP371	ltpFR2	3	13	HOOK	715	n/a	n/a	0	0	0
2719.5810546875	n/a	WORD	5569702	wordpools/wasnorm_wordpool_576.txt	LTP371	ltpFR2	3	13	CANDY	230	n/a	n/a	0	0	0
2722.373046875	n/a	WORD	5575420	wordpools/wasnorm_wordpool_576.txt	LTP371	ltpFR2	3	13	TART	1436	n/a	n/a	0	0	0
2724.83203125	n/a	WORD	5580456	wordpools/wasnorm_wordpool_576.txt	LTP371	ltpFR2	3	13	MARSH	874	n/a	n/a	0	0	0
2727.5732421875	n/a	WORD	5586070	wordpools/wasnorm_wordpool_576.txt	LTP371	ltpFR2	3	13	WRENCH	1625	n/a	n/a	0	0	0
2730.36572265625	n/a	WORD	5591789	wordpools/wasnorm_wordpool_576.txt	LTP371	ltpFR2	3	13	CONCERT	360	n/a	n/a	0	0	0
2732.791015625	n/a	WORD	5596756	wordpools/wasnorm_wordpool_576.txt	LTP371	ltpFR2	3	13	GARLIC	624	n/a	n/a	0	0	0
2735.4658203125	n/a	WORD	5602234	wordpools/wasnorm_wordpool_576.txt	LTP371	ltpFR2	3	13	MOP	916	n/a	n/a	0	0	0
2738.0576171875	n/a	WORD	5607542	wordpools/wasnorm_wordpool_576.txt	LTP371	ltpFR2	3	13	HEART	697	n/a	n/a	0	0	0
2740.732421875	n/a	WORD	5613020	wordpools/wasnorm_wordpool_576.txt	LTP371	ltpFR2	3	13	TUNNEL	1519	n/a	n/a	0	0	0
2743.2568359375	n/a	WORD	5618190	wordpools/wasnorm_wordpool_576.txt	LTP371	ltpFR2	3	13	ROOSTER	1209	n/a	n/a	0	0	0
2745.96630859375	n/a	WORD	5623739	wordpools/wasnorm_wordpool_576.txt	LTP371	ltpFR2	3	13	OMELET	976	n/a	n/a	0	0	0
2748.75927734375	n/a	WORD	5629459	wordpools/wasnorm_wordpool_576.txt	LTP371	ltpFR2	3	13	BROTHER	179	n/a	n/a	0	0	0
2751.283203125	n/a	WORD	5634628	wordpools/wasnorm_wordpool_576.txt	LTP371	ltpFR2	3	13	BADGE	68	n/a	n/a	0	0	0
2753.95947265625	n/a	WORD	5640109	wordpools/wasnorm_wordpool_576.txt	LTP371	ltpFR2	3	13	BALLOON	75	n/a	n/a	0	0	0
2756.63330078125	n/a	WORD	5645585	wordpools/wasnorm_wordpool_576.txt	LTP371	ltpFR2	3	13	PLAYGROUND	1087	n/a	n/a	0	0	0
2759.39208984375	n/a	WORD	5651235	wordpools/wasnorm_wordpool_576.txt	LTP371	ltpFR2	3	13	COTTAGE	384	n/a	n/a	0	0	0
2762.0849609375	n/a	WORD	5656750	wordpools/wasnorm_wordpool_576.txt	LTP371	ltpFR2	3	13	CREATURE	403	n/a	n/a	0	0	0
2764.5087890625	n/a	WORD	5661714	wordpools/wasnorm_wordpool_576.txt	LTP371	ltpFR2	3	13	SISTER	1312	n/a	n/a	0	0	0
2767.1181640625	n/a	WORD	5667058	wordpools/wasnorm_wordpool_576.txt	LTP371	ltpFR2	3	13	SCRIBBLE	1256	n/a	n/a	0	0	0
2769.9267578125	n/a	WORD	5672810	wordpools/wasnorm_wordpool_576.txt	LTP371	ltpFR2	3	13	YOLK	1633	n/a	n/a	0	0	0
2772.6845703125	n/a	WORD	5678458	wordpools/wasnorm_wordpool_576.txt	LTP371	ltpFR2	3	13	ONION	977	n/a	n/a	0	0	0
2774.29052734375	n/a	START	5681747	n/a	LTP371	ltpFR2	3	n/a	n/a	n/a	18	n/a	n/a	n/a	n/a
2775.2177734375	n/a	DISTRACTOR	5683646	n/a	LTP371	ltpFR2	3	13	n/a	n/a	n/a	n/a	0	0	0
2775.2265625	n/a	PROB	5683664	n/a	LTP371	ltpFR2	3	n/a	n/a	n/a	18	17	4	4	9
2777.466796875	n/a	PROB	5688252	n/a	LTP371	ltpFR2	3	n/a	n/a	n/a	18	19	9	2	8
2778.939453125	n/a	PROB	5691268	n/a	LTP371	ltpFR2	3	n/a	n/a	n/a	18	18	5	4	9
2780.259765625	n/a	PROB	5693972	n/a	LTP371	ltpFR2	3	n/a	n/a	n/a	18	13	7	1	5
2781.5634765625	n/a	PROB	5696642	n/a	LTP371	ltpFR2	3	n/a	n/a	n/a	18	16	2	9	5
2782.71728515625	n/a	PROB	5699005	n/a	LTP371	ltpFR2	3	n/a	n/a	n/a	18	15	1	6	8
2783.97265625	n/a	PROB	5701576	n/a	LTP371	ltpFR2	3	n/a	n/a	n/a	18	6	1	4	1
2785.0751953125	n/a	PROB	5703834	n/a	LTP371	ltpFR2	3	n/a	n/a	n/a	18	15	5	5	5
2786.2783203125	n/a	PROB	5706298	n/a	LTP371	ltpFR2	3	n/a	n/a	n/a	18	9	5	1	3
2788.435546875	n/a	PROB	5710716	n/a	LTP371	ltpFR2	3	n/a	n/a	n/a	18	12	2	7	3
2789.84130859375	n/a	PROB	5713595	n/a	LTP371	ltpFR2	3	n/a	n/a	n/a	18	8	2	4	2
2791.12841796875	n/a	PROB	5716231	n/a	LTP371	ltpFR2	3	n/a	n/a	n/a	18	12	2	1	9
2792.88427734375	n/a	PROB	5719827	n/a	LTP371	ltpFR2	3	n/a	n/a	n/a	18	16	6	8	2
2794.08837890625	n/a	PROB	5722293	n/a	LTP371	ltpFR2	3	n/a	n/a	n/a	18	14	9	3	2
2795.8603515625	n/a	PROB	5725922	n/a	LTP371	ltpFR2	3	n/a	n/a	n/a	18	6	4	1	1
2796.7919921875	n/a	STOP	5727830	n/a	LTP371	ltpFR2	3	n/a	n/a	n/a	18	n/a	n/a	n/a	n/a
2800.05810546875	n/a	REC_START	5734519	n/a	LTP371	ltpFR2	3	13	n/a	n/a	n/a	n/a	0	0	0
2804.23583984375	n/a	REC_WORD	5743075	wordpools/wasnorm_wordpool_576.txt	LTP371	ltpFR2	3	13	BROTHER	179	n/a	n/a	0	0	0
2805.29296875	n/a	REC_WORD	5745240	wordpools/wasnorm_wordpool_576.txt	LTP371	ltpFR2	3	13	SISTER	1312	n/a	n/a	0	0	0
2807.22705078125	n/a	REC_WORD	5749201	wordpools/wasnorm_wordpool_576.txt	LTP371	ltpFR2	3	13	BADGE	68	n/a	n/a	0	0	0
2810.5986328125	n/a	REC_WORD	5756106	wordpools/wasnorm_wordpool_576.txt	LTP371	ltpFR2	3	13	TUNNEL	1519	n/a	n/a	0	0	0
2811.95556640625	n/a	REC_WORD	5758885	wordpools/wasnorm_wordpool_576.txt	LTP371	ltpFR2	3	13	ROOSTER	1209	n/a	n/a	0	0	0
2814.37744140625	n/a	REC_WORD	5763845	wordpools/wasnorm_wordpool_576.txt	LTP371	ltpFR2	3	13	PLAYGROUND	1087	n/a	n/a	0	0	0
2817.681640625	n/a	REC_WORD	5770612	wordpools/wasnorm_wordpool_576.txt	LTP371	ltpFR2	3	13	OMELET	976	n/a	n/a	0	0	0
2818.87744140625	n/a	REC_WORD	5773061	wordpools/wasnorm_wordpool_576.txt	LTP371	ltpFR2	3	13	YOLK	1633	n/a	n/a	0	0	0
2822.13818359375	n/a	REC_WORD	5779739	wordpools/wasnorm_wordpool_576.txt	LTP371	ltpFR2	3	13	ONION	977	n/a	n/a	0	0	0
2824.39453125	n/a	REC_WORD	5784360	wordpools/wasnorm_wordpool_576.txt	LTP371	ltpFR2	3	13	CRAB	397	n/a	n/a	0	0	0
2825.92236328125	n/a	REC_WORD	5787489	wordpools/wasnorm_wordpool_576.txt	LTP371	ltpFR2	3	13	DORM	488	n/a	n/a	0	0	0
2827.59326171875	n/a	REC_WORD	5790911	wordpools/wasnorm_wordpool_576.txt	LTP371	ltpFR2	3	13	HOOK	715	n/a	n/a	0	0	0
2829.06640625	n/a	REC_WORD	5793928	wordpools/wasnorm_wordpool_576.txt	LTP371	ltpFR2	3	13	WRENCH	1625	n/a	n/a	0	0	0
2831.10791015625	n/a	REC_WORD	5798109	wordpools/wasnorm_wordpool_576.txt	LTP371	ltpFR2	3	13	CANDY	230	n/a	n/a	0	0	0
2832.64208984375	n/a	REC_WORD	5801251	wordpools/wasnorm_wordpool_576.txt	LTP371	ltpFR2	3	13	MARSH	874	n/a	n/a	0	0	0
2864.912109375	n/a	REC_WORD	5867340	wordpools/wasnorm_wordpool_576.txt	LTP371	ltpFR2	3	13	SCRIBBLE	1256	n/a	n/a	0	0	0
2919.65673828125	n/a	DISTRACTOR	5979457	n/a	LTP371	ltpFR2	3	14	n/a	n/a	n/a	n/a	0	0	0
2919.65771484375	n/a	START	5979459	n/a	LTP371	ltpFR2	3	n/a	n/a	n/a	19	n/a	n/a	n/a	n/a
2919.673828125	n/a	PROB	5979492	n/a	LTP371	ltpFR2	3	n/a	n/a	n/a	19	21	6	8	7
2921.6806640625	n/a	PROB	5983602	n/a	LTP371	ltpFR2	3	n/a	n/a	n/a	19	22	7	8	7
2923.4697265625	n/a	PROB	5987266	n/a	LTP371	ltpFR2	3	n/a	n/a	n/a	19	16	8	9	9
2924.99169921875	n/a	PROB	5990383	n/a	LTP371	ltpFR2	3	n/a	n/a	n/a	19	19	3	8	7
2927.83447265625	n/a	PROB	5996205	n/a	LTP371	ltpFR2	3	n/a	n/a	n/a	19	9	5	3	1
2929.7392578125	n/a	PROB	6000106	n/a	LTP371	ltpFR2	3	n/a	n/a	n/a	19	16	3	5	8
2931.111328125	n/a	PROB	6002916	n/a	LTP371	ltpFR2	3	n/a	n/a	n/a	19	17	9	4	4
2933.01708984375	n/a	PROB	6006819	n/a	LTP371	ltpFR2	3	n/a	n/a	n/a	19	6	2	2	2
2934.154296875	n/a	PROB	6009148	n/a	LTP371	ltpFR2	3	n/a	n/a	n/a	19	20	8	4	8
2935.91015625	n/a	PROB	6012744	n/a	LTP371	ltpFR2	3	n/a	n/a	n/a	19	9	6	1	2
2937.21337890625	n/a	PROB	6015413	n/a	LTP371	ltpFR2	3	n/a	n/a	n/a	19	16	5	4	7
2939.05322265625	n/a	PROB	6019181	n/a	LTP371	ltpFR2	3	n/a	n/a	n/a	19	9	2	6	1
2940.18896484375	n/a	PROB	6021507	n/a	LTP371	ltpFR2	3	n/a	n/a	n/a	19	16	1	9	6
2941.69384765625	n/a	PROB	6024589	n/a	LTP371	ltpFR2	3	n/a	n/a	n/a	19	10	4	3	3
2943.34423828125	n/a	STOP	6027969	n/a	LTP371	ltpFR2	3	n/a	n/a	n/a	19	n/a	n/a	n/a	n/a
2944.77197265625	n/a	WORD	6030893	wordpools/wasnorm_wordpool_576.txt	LTP371	ltpFR2	3	14	ORCHID	982	n/a	n/a	0	0	0
2947.5126953125	n/a	WORD	6036506	wordpools/wasnorm_wordpool_576.txt	LTP371	ltpFR2	3	14	CHEST	295	n/a	n/a	0	0	0
2950.138671875	n/a	WORD	6041884	wordpools/wasnorm_wordpool_576.txt	LTP371	ltpFR2	3	14	DRESSER	496	n/a	n/a	0	0	0
2952.595703125	n/a	WORD	6046916	wordpools/wasnorm_wordpool_576.txt	LTP371	ltpFR2	3	14	SNAIL	1332	n/a	n/a	0	0	0
2955.021484375	n/a	WORD	6051884	wordpools/wasnorm_wordpool_576.txt	LTP371	ltpFR2	3	14	TORTOISE	1486	n/a	n/a	0	0	0
2957.69580078125	n/a	WORD	6057361	wordpools/wasnorm_wordpool_576.txt	LTP371	ltpFR2	3	14	QUEEN	1149	n/a	n/a	0	0	0
2960.17041015625	n/a	WORD	6062429	wordpools/wasnorm_wordpool_576.txt	LTP371	ltpFR2	3	14	ACTOR	5	n/a	n/a	0	0	0
2962.79638671875	n/a	WORD	6067807	wordpools/wasnorm_wordpool_576.txt	LTP371	ltpFR2	3	14	CASKET	255	n/a	n/a	0	0	0
2965.30322265625	n/a	WORD	6072941	wordpools/wasnorm_wordpool_576.txt	LTP371	ltpFR2	3	14	EMPIRE	530	n/a	n/a	0	0	0
2968.11328125	n/a	WORD	6078696	wordpools/wasnorm_wordpool_576.txt	LTP371	ltpFR2	3	14	PUDDLE	1140	n/a	n/a	0	0	0
2970.822265625	n/a	WORD	6084244	wordpools/wasnorm_wordpool_576.txt	LTP371	ltpFR2	3	14	GRAPE	654	n/a	n/a	0	0	0
2973.36328125	n/a	WORD	6089448	wordpools/wasnorm_wordpool_576.txt	LTP371	ltpFR2	3	14	CHAUFFEUR	283	n/a	n/a	0	0	0
2975.8720703125	n/a	WORD	6094586	wordpools/wasnorm_wordpool_576.txt	LTP371	ltpFR2	3	14	PLATE	1086	n/a	n/a	0	0	0
2978.4462890625	n/a	WORD	6099858	wordpools/wasnorm_wordpool_576.txt	LTP371	ltpFR2	3	14	RACKET	1155	n/a	n/a	0	0	0
2981.1220703125	n/a	WORD	6105338	wordpools/wasnorm_wordpool_576.txt	LTP371	ltpFR2	3	14	MISTER	901	n/a	n/a	0	0	0
2983.89794921875	n/a	WORD	6111023	wordpools/wasnorm_wordpool_576.txt	LTP371	ltpFR2	3	14	BUG	187	n/a	n/a	0	0	0
2986.32080078125	n/a	WORD	6115985	wordpools/wasnorm_wordpool_576.txt	LTP371	ltpFR2	3	14	TRUCK	1512	n/a	n/a	0	0	0
2989.09765625	n/a	WORD	6121672	wordpools/wasnorm_wordpool_576.txt	LTP371	ltpFR2	3	14	BABY	64	n/a	n/a	0	0	0
2991.78955078125	n/a	WORD	6127185	wordpools/wasnorm_wordpool_576.txt	LTP371	ltpFR2	3	14	GALLON	618	n/a	n/a	0	0	0
2994.41357421875	n/a	WORD	6132559	wordpools/wasnorm_wordpool_576.txt	LTP371	ltpFR2	3	14	THIEF	1456	n/a	n/a	0	0	0
2997.1064453125	n/a	WORD	6138074	wordpools/wasnorm_wordpool_576.txt	LTP371	ltpFR2	3	14	BANK	83	n/a	n/a	0	0	0
2999.54638671875	n/a	WORD	6143071	wordpools/wasnorm_wordpool_576.txt	LTP371	ltpFR2	3	14	POWDER	1117	n/a	n/a	0	0	0
3002.0224609375	n/a	WORD	6148142	wordpools/wasnorm_wordpool_576.txt	LTP371	ltpFR2	3	14	PREACHER	1119	n/a	n/a	0	0	0
3004.529296875	n/a	WORD	6153276	wordpools/wasnorm_wordpool_576.txt	LTP371	ltpFR2	3	14	NAPKIN	937	n/a	n/a	0	0	0
3006.13623046875	n/a	START	6156567	n/a	LTP371	ltpFR2	3	n/a	n/a	n/a	20	n/a	n/a	n/a	n/a
3006.97216796875	n/a	DISTRACTOR	6158279	n/a	LTP371	ltpFR2	3	14	n/a	n/a	n/a	n/a	0	0	0
3006.98828125	n/a	PROB	6158312	n/a	LTP371	ltpFR2	3	n/a	n/a	n/a	20	16	3	7	6
3008.55908203125	n/a	PROB	6161529	n/a	LTP371	ltpFR2	3	n/a	n/a	n/a	20	17	7	6	4
3010.71630859375	n/a	PROB	6165947	n/a	LTP371	ltpFR2	3	n/a	n/a	n/a	20	16	5	2	9
3013.0751953125	n/a	PROB	6170778	n/a	LTP371	ltpFR2	3	n/a	n/a	n/a	20	8	2	2	4
3014.52783203125	n/a	PROB	6173753	n/a	LTP371	ltpFR2	3	n/a	n/a	n/a	20	9	4	2	3
3016.30078125	n/a	PROB	6177384	n/a	LTP371	ltpFR2	3	n/a	n/a	n/a	20	14	4	8	2
3017.97412109375	n/a	PROB	6180811	n/a	LTP371	ltpFR2	3	n/a	n/a	n/a	20	14	3	8	3
3019.77978515625	n/a	PROB	6184509	n/a	LTP371	ltpFR2	3	n/a	n/a	n/a	20	11	2	7	2
3021.31689453125	n/a	PROB	6187657	n/a	LTP371	ltpFR2	3	n/a	n/a	n/a	20	18	3	7	8
3022.62060546875	n/a	PROB	6190327	n/a	LTP371	ltpFR2	3	n/a	n/a	n/a	20	18	3	6	9
3024.509765625	n/a	PROB	6194196	n/a	LTP371	ltpFR2	3	n/a	n/a	n/a	20	21	5	9	7
3026.099609375	n/a	PROB	6197452	n/a	LTP371	ltpFR2	3	n/a	n/a	n/a	20	6	2	2	2
3027.1025390625	n/a	PROB	6199506	n/a	LTP371	ltpFR2	3	n/a	n/a	n/a	20	18	9	3	6
3029.13671875	n/a	STOP	6203672	n/a	LTP371	ltpFR2	3	n/a	n/a	n/a	20	n/a	n/a	n/a	n/a
3032.01953125	n/a	REC_START	6209576	n/a	LTP371	ltpFR2	3	14	n/a	n/a	n/a	n/a	0	0	0
3034.9765625	n/a	REC_WORD	6215632	wordpools/wasnorm_wordpool_576.txt	LTP371	ltpFR2	3	14	CHEST	295	n/a	n/a	0	0	0
3036.26025390625	n/a	REC_WORD	6218261	wordpools/wasnorm_wordpool_576.txt	LTP371	ltpFR2	3	14	ORCHID	982	n/a	n/a	0	0	0
3038.439453125	n/a	REC_WORD	6222724	wordpools/wasnorm_wordpool_576.txt	LTP371	ltpFR2	3	14	WARDROBE	1587	n/a	n/a	0	0	0
3041.3154296875	n/a	REC_WORD	6228614	wordpools/wasnorm_wordpool_576.txt	LTP371	ltpFR2	3	14	SNAIL	1332	n/a	n/a	0	0	0
3042.96044921875	n/a	REC_WORD	6231983	wordpools/wasnorm_wordpool_576.txt	LTP371	ltpFR2	3	14	TORTOISE	1486	n/a	n/a	0	0	0
3046.083984375	n/a	REC_WORD	6238380	wordpools/wasnorm_wordpool_576.txt	LTP371	ltpFR2	3	14	QUEEN	1149	n/a	n/a	0	0	0
3047.14697265625	n/a	REC_WORD	6240557	wordpools/wasnorm_wordpool_576.txt	LTP371	ltpFR2	3	14	ACTOR	5	n/a	n/a	0	0	0
3049.83203125	n/a	REC_WORD	6246056	wordpools/wasnorm_wordpool_576.txt	LTP371	ltpFR2	3	14	ACTRESS	6	n/a	n/a	0	0	0
3057.66796875	n/a	REC_WORD	6262104	wordpools/wasnorm_wordpool_576.txt	LTP371	ltpFR2	3	14	CHAUFFEUR	283	n/a	n/a	0	0	0
3059.07568359375	n/a	REC_WORD	6264987	wordpools/wasnorm_wordpool_576.txt	LTP371	ltpFR2	3	14	TRUCK	1512	n/a	n/a	0	0	0
3073.7685546875	n/a	REC_WORD	6295078	wordpools/wasnorm_wordpool_576.txt	LTP371	ltpFR2	3	14	EMPIRE	530	n/a	n/a	0	0	0
3076.271484375	n/a	REC_WORD	6300204	wordpools/wasnorm_wordpool_576.txt	LTP371	ltpFR2	3	14	BABY	64	n/a	n/a	0	0	0
3079.021484375	n/a	REC_WORD	6305836	wordpools/wasnorm_wordpool_576.txt	LTP371	ltpFR2	3	14	THIEF	1456	n/a	n/a	0	0	0
3082.60107421875	n/a	REC_WORD	6313167	wordpools/wasnorm_wordpool_576.txt	LTP371	ltpFR2	3	14	POWDER	1117	n/a	n/a	0	0	0
3084.625	n/a	REC_WORD	6317312	wordpools/wasnorm_wordpool_576.txt	LTP371	ltpFR2	3	14	NAPKIN	937	n/a	n/a	0	0	0
3091.52099609375	n/a	REC_WORD	6331435	wordpools/wasnorm_wordpool_576.txt	LTP371	ltpFR2	3	14	BANK	83	n/a	n/a	0	0	0
3122.47509765625	n/a	WORD	6394829	wordpools/wasnorm_wordpool_576.txt	LTP371	ltpFR2	3	15	CURTAIN	427	n/a	n/a	0	0	0
3124.951171875	n/a	WORD	6399900	wordpools/wasnorm_wordpool_576.txt	LTP371	ltpFR2	3	15	AIRPORT	13	n/a	n/a	0	0	0
3127.39111328125	n/a	WORD	6404897	wordpools/wasnorm_wordpool_576.txt	LTP371	ltpFR2	3	15	QUAIL	1147	n/a	n/a	0	0	0
3129.81591796875	n/a	WORD	6409863	wordpools/wasnorm_wordpool_576.txt	LTP371	ltpFR2	3	15	EAGLE	512	n/a	n/a	0	0	0
3132.52392578125	n/a	WORD	6415409	wordpools/wasnorm_wordpool_576.txt	LTP371	ltpFR2	3	15	PADDING	999	n/a	n/a	0	0	0
3135.33251953125	n/a	WORD	6421161	wordpools/wasnorm_wordpool_576.txt	LTP371	ltpFR2	3	15	SAUSAGE	1238	n/a	n/a	0	0	0
3137.7587890625	n/a	WORD	6426130	wordpools/wasnorm_wordpool_576.txt	LTP371	ltpFR2	3	15	VENUS	1557	n/a	n/a	0	0	0
3140.38232421875	n/a	WORD	6431503	wordpools/wasnorm_wordpool_576.txt	LTP371	ltpFR2	3	15	LOFT	840	n/a	n/a	0	0	0
3142.8583984375	n/a	WORD	6436574	wordpools/wasnorm_wordpool_576.txt	LTP371	ltpFR2	3	15	LEADER	807	n/a	n/a	0	0	0
3145.41552734375	n/a	WORD	6441811	wordpools/wasnorm_wordpool_576.txt	LTP371	ltpFR2	3	15	TUBA	1515	n/a	n/a	0	0	0
3148.07421875	n/a	WORD	6447256	wordpools/wasnorm_wordpool_576.txt	LTP371	ltpFR2	3	15	TROMBONE	1508	n/a	n/a	0	0	0
3150.8671875	n/a	WORD	6452976	wordpools/wasnorm_wordpool_576.txt	LTP371	ltpFR2	3	15	PORK	1108	n/a	n/a	0	0	0
3153.4580078125	n/a	WORD	6458282	wordpools/wasnorm_wordpool_576.txt	LTP371	ltpFR2	3	15	STATUE	1374	n/a	n/a	0	0	0
3156.18310546875	n/a	WORD	6463863	wordpools/wasnorm_wordpool_576.txt	LTP371	ltpFR2	3	15	IDOL	733	n/a	n/a	0	0	0
3158.69091796875	n/a	WORD	6468999	wordpools/wasnorm_wordpool_576.txt	LTP371	ltpFR2	3	15	ORANGE	980	n/a	n/a	0	0	0
3161.14990234375	n/a	WORD	6474035	wordpools/wasnorm_wordpool_576.txt	LTP371	ltpFR2	3	15	TRANSPLANT	1496	n/a	n/a	0	0	0
3163.7587890625	n/a	WORD	6479378	wordpools/wasnorm_wordpool_576.txt	LTP371	ltpFR2	3	15	FIDDLE	561	n/a	n/a	0	0	0
3166.56689453125	n/a	WORD	6485129	wordpools/wasnorm_wordpool_576.txt	LTP371	ltpFR2	3	15	GAZELLE	628	n/a	n/a	0	0	0
3169.02587890625	n/a	WORD	6490165	wordpools/wasnorm_wordpool_576.txt	LTP371	ltpFR2	3	15	SUPPER	1411	n/a	n/a	0	0	0
3171.61572265625	n/a	WORD	6495469	wordpools/wasnorm_wordpool_576.txt	LTP371	ltpFR2	3	15	PEBBLE	1035	n/a	n/a	0	0	0
3174.04150390625	n/a	WORD	6500437	wordpools/wasnorm_wordpool_576.txt	LTP371	ltpFR2	3	15	CREVICE	405	n/a	n/a	0	0	0
3176.78369140625	n/a	WORD	6506053	wordpools/wasnorm_wordpool_576.txt	LTP371	ltpFR2	3	15	DRAGON	492	n/a	n/a	0	0	0
3179.25732421875	n/a	WORD	6511119	wordpools/wasnorm_wordpool_576.txt	LTP371	ltpFR2	3	15	MATCH	878	n/a	n/a	0	0	0
3182.033203125	n/a	WORD	6516804	wordpools/wasnorm_wordpool_576.txt	LTP371	ltpFR2	3	15	STAR	1373	n/a	n/a	0	0	0
3183.63818359375	n/a	START	6520091	n/a	LTP371	ltpFR2	3	n/a	n/a	n/a	21	n/a	n/a	n/a	n/a
3184.46923828125	n/a	DISTRACTOR	6521793	n/a	LTP371	ltpFR2	3	15	n/a	n/a	n/a	n/a	0	0	0
3184.47412109375	n/a	PROB	6521803	n/a	LTP371	ltpFR2	3	n/a	n/a	n/a	21	15	7	4	4
3186.4130859375	n/a	PROB	6525774	n/a	LTP371	ltpFR2	3	n/a	n/a	n/a	21	9	5	1	3
3187.80224609375	n/a	PROB	6528619	n/a	LTP371	ltpFR2	3	n/a	n/a	n/a	21	14	1	7	6
3189.39013671875	n/a	PROB	6531871	n/a	LTP371	ltpFR2	3	n/a	n/a	n/a	21	22	8	7	7
3190.92919921875	n/a	PROB	6535023	n/a	LTP371	ltpFR2	3	n/a	n/a	n/a	21	20	9	9	2
3192.2822265625	n/a	PROB	6537794	n/a	LTP371	ltpFR2	3	n/a	n/a	n/a	21	15	6	3	6
3193.669921875	n/a	PROB	6540636	n/a	LTP371	ltpFR2	3	n/a	n/a	n/a	21	20	8	7	5
3195.54296875	n/a	PROB	6544472	n/a	LTP371	ltpFR2	3	n/a	n/a	n/a	21	21	9	3	9
3197.548828125	n/a	PROB	6548580	n/a	LTP371	ltpFR2	3	n/a	n/a	n/a	21	16	3	9	4
3198.93798828125	n/a	PROB	6551425	n/a	LTP371	ltpFR2	3	n/a	n/a	n/a	21	13	3	9	1
3200.2578125	n/a	PROB	6554128	n/a	LTP371	ltpFR2	3	n/a	n/a	n/a	21	14	7	3	4
3201.39501953125	n/a	PROB	6556457	n/a	LTP371	ltpFR2	3	n/a	n/a	n/a	21	11	2	4	5
3204.3046875	n/a	PROB	6562416	n/a	LTP371	ltpFR2	3	n/a	n/a	n/a	21	14	3	4	7
3206.544921875	n/a	STOP	6567004	n/a	LTP371	ltpFR2	3	n/a	n/a	n/a	21	n/a	n/a	n/a	n/a
3209.40478515625	n/a	REC_START	6572861	n/a	LTP371	ltpFR2	3	15	n/a	n/a	n/a	n/a	0	0	0
3210.20849609375	n/a	REC_WORD	6574507	wordpools/wasnorm_wordpool_576.txt	LTP371	ltpFR2	3	15	CREVICE	405	n/a	n/a	0	0	0
3211.24658203125	n/a	REC_WORD	6576633	wordpools/wasnorm_wordpool_576.txt	LTP371	ltpFR2	3	15	PEBBLE	1035	n/a	n/a	0	0	0
3212.32470703125	n/a	REC_WORD	6578841	wordpools/wasnorm_wordpool_576.txt	LTP371	ltpFR2	3	15	DRAGON	492	n/a	n/a	0	0	0
3213.79443359375	n/a	REC_WORD	6581851	wordpools/wasnorm_wordpool_576.txt	LTP371	ltpFR2	3	15	MATCH	878	n/a	n/a	0	0	0
3228.92431640625	n/a	REC_WORD	6612837	wordpools/wasnorm_wordpool_576.txt	LTP371	ltpFR2	3	15	TUBA	1515	n/a	n/a	0	0	0
