mstime	trial_type	stim_file	subject	experiment	session	trial	task	item_name	item_num	recog_resp	recog_conf	resp	color_r	color_g	color_b	case	font
0	SESS_START	n/a	LTP108	ltpFR	4	n/a	n/a	n/a	n/a	1	4	n/a	n/a	n/a	n/a	n/a	n/a
37007	WORD	wordpools/wasnorm_wordpool.txt	LTP108	ltpFR	4	1	0	INMATE	738	0	n/a	0	0.422607421875	0.5869140625	0	lower	zerothre.ttf
40948	WORD	wordpools/wasnorm_wordpool.txt	LTP108	ltpFR	4	1	0	PAWN	1030	n/a	n/a	0	0.422607421875	0.5869140625	0	lower	zerothre.ttf
45021	WORD	wordpools/wasnorm_wordpool.txt	LTP108	ltpFR	4	1	0	MERMAID	887	n/a	n/a	0	0.422607421875	0.5869140625	0	lower	zerothre.ttf
49178	WORD	wordpools/wasnorm_wordpool.txt	LTP108	ltpFR	4	1	0	ELECTRON	522	n/a	n/a	0	0.422607421875	0.5869140625	0	lower	zerothre.ttf
53193	WORD	wordpools/wasnorm_wordpool.txt	LTP108	ltpFR	4	1	0	GODDESS	646	n/a	n/a	1	0.422607421875	0.5869140625	0	lower	zerothre.ttf
57167	WORD	wordpools/wasnorm_wordpool.txt	LTP108	ltpFR	4	1	1	ENGINEER	536	n/a	n/a	1	0.57763671875	0.412841796875	1	upper	amplitud.ttf
61066	WORD	wordpools/wasnorm_wordpool.txt	LTP108	ltpFR	4	1	1	PRISONER	1128	n/a	n/a	1	0.57763671875	0.412841796875	1	upper	amplitud.ttf
65222	WORD	wordpools/wasnorm_wordpool.txt	LTP108	ltpFR	4	1	1	QUARTER	1148	n/a	n/a	0	0.57763671875	0.412841796875	1	upper	amplitud.ttf
69404	WORD	wordpools/wasnorm_wordpool.txt	LTP108	ltpFR	4	1	1	WAREHOUSE	1588	n/a	n/a	0	0.57763671875	0.412841796875	1	upper	amplitud.ttf
73378	WORD	wordpools/wasnorm_wordpool.txt	LTP108	ltpFR	4	1	1	BANK	83	n/a	n/a	0	0.57763671875	0.412841796875	1	upper	amplitud.ttf
77510	WORD	wordpools/wasnorm_wordpool.txt	LTP108	ltpFR	4	1	1	RECEIPT	1173	n/a	n/a	0	0.57763671875	0.412841796875	1	upper	amplitud.ttf
81467	WORD	wordpools/wasnorm_wordpool.txt	LTP108	ltpFR	4	1	0	BUGGY	188	n/a	n/a	3	0.422607421875	0.5869140625	0	lower	zerothre.ttf
82141	KEY_MSG	n/a	LTP108	ltpFR	4	1	n/a	n/a	n/a	n/a	n/a	n/a	n/a	n/a	n/a	n/a	n/a
85365	WORD	wordpools/wasnorm_wordpool.txt	LTP108	ltpFR	4	1	0	BIKE	125	n/a	n/a	0	0.422607421875	0.5869140625	0	lower	zerothre.ttf
89281	WORD	wordpools/wasnorm_wordpool.txt	LTP108	ltpFR	4	1	0	SNORKEL	1336	n/a	n/a	0	0.422607421875	0.5869140625	0	lower	zerothre.ttf
93304	WORD	wordpools/wasnorm_wordpool.txt	LTP108	ltpFR	4	1	1	SHORE	1291	n/a	n/a	1	0.57763671875	0.412841796875	1	upper	amplitud.ttf
97311	WORD	wordpools/wasnorm_wordpool.txt	LTP108	ltpFR	4	1	1	ANT	25	n/a	n/a	1	0.57763671875	0.412841796875	1	upper	amplitud.ttf
103251	REC_START	n/a	LTP108	ltpFR	4	1	n/a	n/a	n/a	n/a	n/a	n/a	n/a	n/a	n/a	n/a	n/a
105027	REC_WORD	wordpools/wasnorm_wordpool.txt	LTP108	ltpFR	4	1	1	BANK	83	n/a	n/a	0	n/a	n/a	n/a	n/a	n/a
105466	REC_WORD	wordpools/wasnorm_wordpool.txt	LTP108	ltpFR	4	1	1	ENGINEER	536	n/a	n/a	1	n/a	n/a	n/a	n/a	n/a
106343	REC_WORD	wordpools/wasnorm_wordpool.txt	LTP108	ltpFR	4	1	1	QUARTER	1148	n/a	n/a	0	n/a	n/a	n/a	n/a	n/a
107112	REC_WORD	wordpools/wasnorm_wordpool.txt	LTP108	ltpFR	4	1	1	SHORE	1291	n/a	n/a	1	n/a	n/a	n/a	n/a	n/a
108105	REC_WORD	wordpools/wasnorm_wordpool.txt	LTP108	ltpFR	4	1	0	BIKE	125	n/a	n/a	0	n/a	n/a	n/a	n/a	n/a
108988	REC_WORD	wordpools/wasnorm_wordpool.txt	LTP108	ltpFR	4	1	1	ANT	25	n/a	n/a	1	n/a	n/a	n/a	n/a	n/a
110425	REC_WORD	wordpools/wasnorm_wordpool.txt	LTP108	ltpFR	4	1	0	MERMAID	887	n/a	n/a	0	n/a	n/a	n/a	n/a	n/a
111188	REC_WORD	wordpools/wasnorm_wordpool.txt	LTP108	ltpFR	4	1	0	GODDESS	646	n/a	n/a	1	n/a	n/a	n/a	n/a	n/a
115847	REC_WORD	wordpools/wasnorm_wordpool.txt	LTP108	ltpFR	4	1	1	PRISONER	1128	n/a	n/a	1	n/a	n/a	n/a	n/a	n/a
138590	REC_WORD	wordpools/wasnorm_wordpool.txt	LTP108	ltpFR	4	1	1	RECEIPT	1173	n/a	n/a	0	n/a	n/a	n/a	n/a	n/a
151297	REC_WORD	wordpools/wasnorm_wordpool.txt	LTP108	ltpFR	4	1	1	WAREHOUSE	1588	n/a	n/a	0	n/a	n/a	n/a	n/a	n/a
181681	WORD	wordpools/wasnorm_wordpool.txt	LTP108	ltpFR	4	2	1	SWIMMER	1420	n/a	n/a	1	0.57763671875	0.412841796875	1	upper	amplitud.ttf
185739	WORD	wordpools/wasnorm_wordpool.txt	LTP108	ltpFR	4	2	1	BOULDER	155	n/a	n/a	0	0.57763671875	0.412841796875	1	upper	amplitud.ttf
189870	WORD	wordpools/wasnorm_wordpool.txt	LTP108	ltpFR	4	2	1	STONE	1385	n/a	n/a	0	0.57763671875	0.412841796875	1	upper	amplitud.ttf
193760	WORD	wordpools/wasnorm_wordpool.txt	LTP108	ltpFR	4	2	0	JUG	762	n/a	n/a	0	0.422607421875	0.5869140625	0	lower	zerothre.ttf
197709	WORD	wordpools/wasnorm_wordpool.txt	LTP108	ltpFR	4	2	0	DISC	473	n/a	n/a	0	0.422607421875	0.5869140625	0	lower	zerothre.ttf
201907	WORD	wordpools/wasnorm_wordpool.txt	LTP108	ltpFR	4	2	0	DRUM	502	n/a	n/a	0	0.422607421875	0.5869140625	0	lower	zerothre.ttf
205839	WORD	wordpools/wasnorm_wordpool.txt	LTP108	ltpFR	4	2	0	EWE	542	n/a	n/a	1	0.422607421875	0.5869140625	0	lower	zerothre.ttf
210013	WORD	wordpools/wasnorm_wordpool.txt	LTP108	ltpFR	4	2	1	VILLAGE	1566	n/a	n/a	1	0.57763671875	0.412841796875	1	upper	amplitud.ttf
214070	WORD	wordpools/wasnorm_wordpool.txt	LTP108	ltpFR	4	2	1	OATMEAL	967	n/a	n/a	0	0.57763671875	0.412841796875	1	upper	amplitud.ttf
218077	WORD	wordpools/wasnorm_wordpool.txt	LTP108	ltpFR	4	2	0	LAMB	797	n/a	n/a	1	0.422607421875	0.5869140625	0	lower	zerothre.ttf
222000	WORD	wordpools/wasnorm_wordpool.txt	LTP108	ltpFR	4	2	0	AUDIENCE	59	n/a	n/a	1	0.422607421875	0.5869140625	0	lower	zerothre.ttf
226015	WORD	wordpools/wasnorm_wordpool.txt	LTP108	ltpFR	4	2	0	EUROPE	541	n/a	n/a	1	0.422607421875	0.5869140625	0	lower	zerothre.ttf
229864	WORD	wordpools/wasnorm_wordpool.txt	LTP108	ltpFR	4	2	0	EMPIRE	530	n/a	n/a	1	0.422607421875	0.5869140625	0	lower	zerothre.ttf
234046	WORD	wordpools/wasnorm_wordpool.txt	LTP108	ltpFR	4	2	1	ORCHESTRA	981	n/a	n/a	1	0.57763671875	0.412841796875	1	upper	amplitud.ttf
238069	WORD	wordpools/wasnorm_wordpool.txt	LTP108	ltpFR	4	2	1	RECIPE	1175	n/a	n/a	0	0.57763671875	0.412841796875	1	upper	amplitud.ttf
242260	WORD	wordpools/wasnorm_wordpool.txt	LTP108	ltpFR	4	2	1	BLENDER	136	n/a	n/a	0	0.57763671875	0.412841796875	1	upper	amplitud.ttf
248208	REC_START	n/a	LTP108	ltpFR	4	2	n/a	n/a	n/a	n/a	n/a	n/a	n/a	n/a	n/a	n/a	n/a
248741	REC_WORD	wordpools/wasnorm_wordpool.txt	LTP108	ltpFR	4	2	1	BLENDER	136	n/a	n/a	0	n/a	n/a	n/a	n/a	n/a
249844	REC_WORD	wordpools/wasnorm_wordpool.txt	LTP108	ltpFR	4	2	1	ORCHESTRA	981	n/a	n/a	1	n/a	n/a	n/a	n/a	n/a
253226	REC_WORD	wordpools/wasnorm_wordpool.txt	LTP108	ltpFR	4	2	1	BOULDER	155	n/a	n/a	0	n/a	n/a	n/a	n/a	n/a
254194	REC_WORD	wordpools/wasnorm_wordpool.txt	LTP108	ltpFR	4	2	n/a	ROCK	1201	n/a	n/a	n/a	n/a	n/a	n/a	n/a	n/a
256449	REC_WORD	wordpools/wasnorm_wordpool.txt	LTP108	ltpFR	4	2	0	EWE	542	n/a	n/a	1	n/a	n/a	n/a	n/a	n/a
258759	REC_WORD	wordpools/wasnorm_wordpool.txt	LTP108	ltpFR	4	2	1	RECIPE	1175	n/a	n/a	0	n/a	n/a	n/a	n/a	n/a
259722	REC_WORD	wordpools/wasnorm_wordpool.txt	LTP108	ltpFR	4	2	1	OATMEAL	967	n/a	n/a	0	n/a	n/a	n/a	n/a	n/a
266292	REC_WORD	wordpools/wasnorm_wordpool.txt	LTP108	ltpFR	4	2	1	SWIMMER	1420	n/a	n/a	1	n/a	n/a	n/a	n/a	n/a
270283	REC_WORD	wordpools/wasnorm_wordpool.txt	LTP108	ltpFR	4	2	1	ENGINEER	536	n/a	n/a	1	n/a	n/a	n/a	n/a	n/a
292372	REC_WORD	wordpools/wasnorm_wordpool.txt	LTP108	ltpFR	4	2	0	DISC	473	n/a	n/a	0	n/a	n/a	n/a	n/a	n/a
333836	WORD	wordpools/wasnorm_wordpool.txt	LTP108	ltpFR	4	3	0	MATTRESS	879	n/a	n/a	1	0.422607421875	0.5869140625	0	lower	zerothre.ttf
337876	WORD	wordpools/wasnorm_wordpool.txt	LTP108	ltpFR	4	3	0	BED	110	n/a	n/a	1	0.422607421875	0.5869140625	0	lower	zerothre.ttf
341874	WORD	wordpools/wasnorm_wordpool.txt	LTP108	ltpFR	4	3	0	SLACKS	1323	n/a	n/a	1	0.422607421875	0.5869140625	0	lower	zerothre.ttf
345998	WORD	wordpools/wasnorm_wordpool.txt	LTP108	ltpFR	4	3	1	PROFESSOR	1131	n/a	n/a	1	0.57763671875	0.412841796875	1	upper	amplitud.ttf
350030	WORD	wordpools/wasnorm_wordpool.txt	LTP108	ltpFR	4	3	1	OPERATOR	979	n/a	n/a	1	0.57763671875	0.412841796875	1	upper	amplitud.ttf
354053	WORD	wordpools/wasnorm_wordpool.txt	LTP108	ltpFR	4	3	1	PARSLEY	1016	n/a	n/a	1	0.57763671875	0.412841796875	1	upper	amplitud.ttf
358169	WORD	wordpools/wasnorm_wordpool.txt	LTP108	ltpFR	4	3	1	LAWN	805	n/a	n/a	1	0.57763671875	0.412841796875	1	upper	amplitud.ttf
362050	WORD	wordpools/wasnorm_wordpool.txt	LTP108	ltpFR	4	3	0	CAT	257	n/a	n/a	0	0.422607421875	0.5869140625	0	lower	zerothre.ttf
366074	WORD	wordpools/wasnorm_wordpool.txt	LTP108	ltpFR	4	3	0	MESSAGE	888	n/a	n/a	0	0.422607421875	0.5869140625	0	lower	zerothre.ttf
369998	WORD	wordpools/wasnorm_wordpool.txt	LTP108	ltpFR	4	3	0	MAJOR	859	n/a	n/a	1	0.422607421875	0.5869140625	0	lower	zerothre.ttf
374188	WORD	wordpools/wasnorm_wordpool.txt	LTP108	ltpFR	4	3	0	BASEBALL	93	n/a	n/a	0	0.422607421875	0.5869140625	0	lower	zerothre.ttf
378186	WORD	wordpools/wasnorm_wordpool.txt	LTP108	ltpFR	4	3	0	GUARD	667	n/a	n/a	1	0.422607421875	0.5869140625	0	lower	zerothre.ttf
382352	WORD	wordpools/wasnorm_wordpool.txt	LTP108	ltpFR	4	3	1	JACKET	747	n/a	n/a	0	0.57763671875	0.412841796875	1	upper	amplitud.ttf
386550	WORD	wordpools/wasnorm_wordpool.txt	LTP108	ltpFR	4	3	1	COACH	331	n/a	n/a	1	0.57763671875	0.412841796875	1	upper	amplitud.ttf
390724	WORD	wordpools/wasnorm_wordpool.txt	LTP108	ltpFR	4	3	1	MANSION	864	n/a	n/a	0	0.57763671875	0.412841796875	1	upper	amplitud.ttf
394856	WORD	wordpools/wasnorm_wordpool.txt	LTP108	ltpFR	4	3	1	SHINGLE	1285	n/a	n/a	0	0.57763671875	0.412841796875	1	upper	amplitud.ttf
400604	REC_START	n/a	LTP108	ltpFR	4	3	n/a	n/a	n/a	n/a	n/a	n/a	n/a	n/a	n/a	n/a	n/a
401342	REC_WORD	wordpools/wasnorm_wordpool.txt	LTP108	ltpFR	4	3	1	SHINGLE	1285	n/a	n/a	0	n/a	n/a	n/a	n/a	n/a
402095	REC_WORD	wordpools/wasnorm_wordpool.txt	LTP108	ltpFR	4	3	0	MATTRESS	879	n/a	n/a	1	n/a	n/a	n/a	n/a	n/a
402778	REC_WORD	wordpools/wasnorm_wordpool.txt	LTP108	ltpFR	4	3	0	BED	110	n/a	n/a	1	n/a	n/a	n/a	n/a	n/a
403462	REC_WORD	wordpools/wasnorm_wordpool.txt	LTP108	ltpFR	4	3	0	SLACKS	1323	n/a	n/a	1	n/a	n/a	n/a	n/a	n/a
404510	REC_WORD	wordpools/wasnorm_wordpool.txt	LTP108	ltpFR	4	3	1	OPERATOR	979	n/a	n/a	1	n/a	n/a	n/a	n/a	n/a
405273	REC_WORD	wordpools/wasnorm_wordpool.txt	LTP108	ltpFR	4	3	1	PROFESSOR	1131	n/a	n/a	1	n/a	n/a	n/a	n/a	n/a
406615	REC_WORD	wordpools/wasnorm_wordpool.txt	LTP108	ltpFR	4	3	1	LAWN	805	n/a	n/a	1	n/a	n/a	n/a	n/a	n/a
424434	REC_WORD	wordpools/wasnorm_wordpool.txt	LTP108	ltpFR	4	3	1	OPERATOR	979	n/a	n/a	1	n/a	n/a	n/a	n/a	n/a
427243	REC_WORD	wordpools/wasnorm_wordpool.txt	LTP108	ltpFR	4	3	0	MAJOR	859	n/a	n/a	1	n/a	n/a	n/a	n/a	n/a
443816	REC_WORD	wordpools/wasnorm_wordpool.txt	LTP108	ltpFR	4	3	0	GUARD	667	n/a	n/a	1	n/a	n/a	n/a	n/a	n/a
446490	REC_WORD	wordpools/wasnorm_wordpool.txt	LTP108	ltpFR	4	3	0	MESSAGE	888	n/a	n/a	0	n/a	n/a	n/a	n/a	n/a
449227	REC_WORD_VV	wordpools/wasnorm_wordpool.txt	LTP108	ltpFR	4	3	n/a	<>	-1	n/a	n/a	n/a	n/a	n/a	n/a	n/a	n/a
480792	WORD	wordpools/wasnorm_wordpool.txt	LTP108	ltpFR	4	4	1	ROOMMATE	1207	n/a	n/a	1	0.57763671875	0.412841796875	1	upper	amplitud.ttf
484807	WORD	wordpools/wasnorm_wordpool.txt	LTP108	ltpFR	4	4	1	STICKER	1382	n/a	n/a	0	0.57763671875	0.412841796875	1	upper	amplitud.ttf
488781	WORD	wordpools/wasnorm_wordpool.txt	LTP108	ltpFR	4	4	0	PLASTER	1085	n/a	n/a	1	0.422607421875	0.5869140625	0	lower	zerothre.ttf
492937	WORD	wordpools/wasnorm_wordpool.txt	LTP108	ltpFR	4	4	0	BRANCH	168	n/a	n/a	1	0.422607421875	0.5869140625	0	lower	zerothre.ttf
497094	WORD	wordpools/wasnorm_wordpool.txt	LTP108	ltpFR	4	4	0	WORM	1623	n/a	n/a	0	0.422607421875	0.5869140625	0	lower	zerothre.ttf
501159	WORD	wordpools/wasnorm_wordpool.txt	LTP108	ltpFR	4	4	1	SERPENT	1270	n/a	n/a	1	0.57763671875	0.412841796875	1	upper	amplitud.ttf
505016	WORD	wordpools/wasnorm_wordpool.txt	LTP108	ltpFR	4	4	1	LOG	841	n/a	n/a	0	0.57763671875	0.412841796875	1	upper	amplitud.ttf
509098	WORD	wordpools/wasnorm_wordpool.txt	LTP108	ltpFR	4	4	1	LOVER	846	n/a	n/a	1	0.57763671875	0.412841796875	1	upper	amplitud.ttf
513222	WORD	wordpools/wasnorm_wordpool.txt	LTP108	ltpFR	4	4	1	VOLUNTEER	1577	n/a	n/a	1	0.57763671875	0.412841796875	1	upper	amplitud.ttf
517370	WORD	wordpools/wasnorm_wordpool.txt	LTP108	ltpFR	4	4	0	SWING	1421	n/a	n/a	0	0.422607421875	0.5869140625	0	lower	zerothre.ttf
521294	WORD	wordpools/wasnorm_wordpool.txt	LTP108	ltpFR	4	4	0	PLANT	1083	n/a	n/a	1	0.422607421875	0.5869140625	0	lower	zerothre.ttf
525467	WORD	wordpools/wasnorm_wordpool.txt	LTP108	ltpFR	4	4	0	ROUGE	1213	n/a	n/a	0	0.422607421875	0.5869140625	0	lower	zerothre.ttf
529316	WORD	wordpools/wasnorm_wordpool.txt	LTP108	ltpFR	4	4	0	STEREO	1378	n/a	n/a	1	0.422607421875	0.5869140625	0	lower	zerothre.ttf
533423	WORD	wordpools/wasnorm_wordpool.txt	LTP108	ltpFR	4	4	0	SHERIFF	1284	n/a	n/a	1	0.422607421875	0.5869140625	0	lower	zerothre.ttf
537522	WORD	wordpools/wasnorm_wordpool.txt	LTP108	ltpFR	4	4	1	DIAL	457	n/a	n/a	1	0.57763671875	0.412841796875	1	upper	amplitud.ttf
541345	WORD	wordpools/wasnorm_wordpool.txt	LTP108	ltpFR	4	4	1	CORD	379	n/a	n/a	0	0.57763671875	0.412841796875	1	upper	amplitud.ttf
547127	REC_START	n/a	LTP108	ltpFR	4	4	n/a	n/a	n/a	n/a	n/a	n/a	n/a	n/a	n/a	n/a	n/a
547885	REC_WORD	wordpools/wasnorm_wordpool.txt	LTP108	ltpFR	4	4	1	DIAL	457	n/a	n/a	1	n/a	n/a	n/a	n/a	n/a
548708	REC_WORD	wordpools/wasnorm_wordpool.txt	LTP108	ltpFR	4	4	1	CORD	379	n/a	n/a	0	n/a	n/a	n/a	n/a	n/a
549442	REC_WORD	wordpools/wasnorm_wordpool.txt	LTP108	ltpFR	4	4	1	ROOMMATE	1207	n/a	n/a	1	n/a	n/a	n/a	n/a	n/a
550094	REC_WORD	wordpools/wasnorm_wordpool.txt	LTP108	ltpFR	4	4	1	STICKER	1382	n/a	n/a	0	n/a	n/a	n/a	n/a	n/a
551647	REC_WORD	wordpools/wasnorm_wordpool.txt	LTP108	ltpFR	4	4	1	LOVER	846	n/a	n/a	1	n/a	n/a	n/a	n/a	n/a
556850	REC_WORD	wordpools/wasnorm_wordpool.txt	LTP108	ltpFR	4	4	0	SHERIFF	1284	n/a	n/a	1	n/a	n/a	n/a	n/a	n/a
558890	REC_WORD	wordpools/wasnorm_wordpool.txt	LTP108	ltpFR	4	4	1	PARSLEY	1016	n/a	n/a	1	n/a	n/a	n/a	n/a	n/a
559773	REC_WORD	wordpools/wasnorm_wordpool.txt	LTP108	ltpFR	4	4	1	LOG	841	n/a	n/a	0	n/a	n/a	n/a	n/a	n/a
602715	REC_WORD	wordpools/wasnorm_wordpool.txt	LTP108	ltpFR	4	4	0	BRANCH	168	n/a	n/a	1	n/a	n/a	n/a	n/a	n/a
628498	WORD	wordpools/wasnorm_wordpool.txt	LTP108	ltpFR	4	5	1	CAPE	237	n/a	n/a	0	0.57763671875	0.412841796875	1	upper	amplitud.ttf
632421	WORD	wordpools/wasnorm_wordpool.txt	LTP108	ltpFR	4	5	1	UTENSIL	1542	n/a	n/a	0	0.57763671875	0.412841796875	1	upper	amplitud.ttf
636511	WORD	wordpools/wasnorm_wordpool.txt	LTP108	ltpFR	4	5	1	MONEY	908	n/a	n/a	0	0.57763671875	0.412841796875	1	upper	amplitud.ttf
640443	WORD	wordpools/wasnorm_wordpool.txt	LTP108	ltpFR	4	5	1	DIME	466	n/a	n/a	0	0.57763671875	0.412841796875	1	upper	amplitud.ttf
644384	WORD	wordpools/wasnorm_wordpool.txt	LTP108	ltpFR	4	5	1	HIGHWAY	707	n/a	n/a	1	0.57763671875	0.412841796875	1	upper	amplitud.ttf
648232	WORD	wordpools/wasnorm_wordpool.txt	LTP108	ltpFR	4	5	1	BRICK	172	n/a	n/a	0	0.57763671875	0.412841796875	1	upper	amplitud.ttf
652397	WORD	wordpools/wasnorm_wordpool.txt	LTP108	ltpFR	4	5	1	CANARY	227	n/a	n/a	1	0.57763671875	0.412841796875	1	upper	amplitud.ttf
656521	WORD	wordpools/wasnorm_wordpool.txt	LTP108	ltpFR	4	5	1	RACCOON	1153	n/a	n/a	1	0.57763671875	0.412841796875	1	upper	amplitud.ttf
660611	WORD	wordpools/wasnorm_wordpool.txt	LTP108	ltpFR	4	5	1	OX	994	n/a	n/a	1	0.57763671875	0.412841796875	1	upper	amplitud.ttf
664651	WORD	wordpools/wasnorm_wordpool.txt	LTP108	ltpFR	4	5	1	PARIS	1014	n/a	n/a	1	0.57763671875	0.412841796875	1	upper	amplitud.ttf
668717	WORD	wordpools/wasnorm_wordpool.txt	LTP108	ltpFR	4	5	1	TOWER	1490	n/a	n/a	1	0.57763671875	0.412841796875	1	upper	amplitud.ttf
672865	WORD	wordpools/wasnorm_wordpool.txt	LTP108	ltpFR	4	5	1	BELLY	119	n/a	n/a	0	0.57763671875	0.412841796875	1	upper	amplitud.ttf
677022	WORD	wordpools/wasnorm_wordpool.txt	LTP108	ltpFR	4	5	1	NIECE	952	n/a	n/a	1	0.57763671875	0.412841796875	1	upper	amplitud.ttf
680879	WORD	wordpools/wasnorm_wordpool.txt	LTP108	ltpFR	4	5	1	JUGGLER	763	n/a	n/a	1	0.57763671875	0.412841796875	1	upper	amplitud.ttf
684728	WORD	wordpools/wasnorm_wordpool.txt	LTP108	ltpFR	4	5	1	MAP	865	n/a	n/a	0	0.57763671875	0.412841796875	1	upper	amplitud.ttf
688843	WORD	wordpools/wasnorm_wordpool.txt	LTP108	ltpFR	4	5	1	BLUEJAY	141	n/a	n/a	1	0.57763671875	0.412841796875	1	upper	amplitud.ttf
694616	REC_START	n/a	LTP108	ltpFR	4	5	n/a	n/a	n/a	n/a	n/a	n/a	n/a	n/a	n/a	n/a	n/a
695264	REC_WORD	wordpools/wasnorm_wordpool.txt	LTP108	ltpFR	4	5	1	BLUEJAY	141	n/a	n/a	1	n/a	n/a	n/a	n/a	n/a
696576	REC_WORD	wordpools/wasnorm_wordpool.txt	LTP108	ltpFR	4	5	1	OX	994	n/a	n/a	1	n/a	n/a	n/a	n/a	n/a
697250	REC_WORD	wordpools/wasnorm_wordpool.txt	LTP108	ltpFR	4	5	1	CANARY	227	n/a	n/a	1	n/a	n/a	n/a	n/a	n/a
699874	REC_WORD	wordpools/wasnorm_wordpool.txt	LTP108	ltpFR	4	5	1	PARIS	1014	n/a	n/a	1	n/a	n/a	n/a	n/a	n/a
700892	REC_WORD	wordpools/wasnorm_wordpool.txt	LTP108	ltpFR	4	5	1	TOWER	1490	n/a	n/a	1	n/a	n/a	n/a	n/a	n/a
701859	REC_WORD	wordpools/wasnorm_wordpool.txt	LTP108	ltpFR	4	5	1	BELLY	119	n/a	n/a	0	n/a	n/a	n/a	n/a	n/a
708135	REC_WORD	wordpools/wasnorm_wordpool.txt	LTP108	ltpFR	4	5	1	MONEY	908	n/a	n/a	0	n/a	n/a	n/a	n/a	n/a
709018	REC_WORD	wordpools/wasnorm_wordpool.txt	LTP108	ltpFR	4	5	1	DIME	466	n/a	n/a	0	n/a	n/a	n/a	n/a	n/a
709961	REC_WORD	wordpools/wasnorm_wordpool.txt	LTP108	ltpFR	4	5	1	MAP	865	n/a	n/a	0	n/a	n/a	n/a	n/a	n/a
723375	REC_WORD	wordpools/wasnorm_wordpool.txt	LTP108	ltpFR	4	5	1	OX	994	n/a	n/a	1	n/a	n/a	n/a	n/a	n/a
729756	REC_WORD	wordpools/wasnorm_wordpool.txt	LTP108	ltpFR	4	5	1	RACCOON	1153	n/a	n/a	1	n/a	n/a	n/a	n/a	n/a
734610	REC_WORD	wordpools/wasnorm_wordpool.txt	LTP108	ltpFR	4	5	1	HIGHWAY	707	n/a	n/a	1	n/a	n/a	n/a	n/a	n/a
774013	WORD	wordpools/wasnorm_wordpool.txt	LTP108	ltpFR	4	6	0	PLIERS	1089	n/a	n/a	0	0.422607421875	0.5869140625	0	lower	zerothre.ttf
777978	WORD	wordpools/wasnorm_wordpool.txt	LTP108	ltpFR	4	6	0	MOON	914	n/a	n/a	1	0.422607421875	0.5869140625	0	lower	zerothre.ttf
781826	WORD	wordpools/wasnorm_wordpool.txt	LTP108	ltpFR	4	6	0	PORCUPINE	1107	n/a	n/a	0	0.422607421875	0.5869140625	0	lower	zerothre.ttf
785983	WORD	wordpools/wasnorm_wordpool.txt	LTP108	ltpFR	4	6	0	SPOOL	1356	n/a	n/a	0	0.422607421875	0.5869140625	0	lower	zerothre.ttf
790174	WORD	wordpools/wasnorm_wordpool.txt	LTP108	ltpFR	4	6	0	BONE	148	n/a	n/a	1	0.422607421875	0.5869140625	0	lower	zerothre.ttf
794072	WORD	wordpools/wasnorm_wordpool.txt	LTP108	ltpFR	4	6	0	SUBURB	1399	n/a	n/a	0	0.422607421875	0.5869140625	0	lower	zerothre.ttf
798129	WORD	wordpools/wasnorm_wordpool.txt	LTP108	ltpFR	4	6	0	SKILLET	1317	n/a	n/a	0	0.422607421875	0.5869140625	0	lower	zerothre.ttf
802303	WORD	wordpools/wasnorm_wordpool.txt	LTP108	ltpFR	4	6	0	FRIEND	606	n/a	n/a	1	0.422607421875	0.5869140625	0	lower	zerothre.ttf
806143	WORD	wordpools/wasnorm_wordpool.txt	LTP108	ltpFR	4	6	0	PIPE	1073	n/a	n/a	0	0.422607421875	0.5869140625	0	lower	zerothre.ttf
810266	WORD	wordpools/wasnorm_wordpool.txt	LTP108	ltpFR	4	6	0	CARTON	251	n/a	n/a	0	0.422607421875	0.5869140625	0	lower	zerothre.ttf
814090	WORD	wordpools/wasnorm_wordpool.txt	LTP108	ltpFR	4	6	0	SMOG	1330	n/a	n/a	0	0.422607421875	0.5869140625	0	lower	zerothre.ttf
818039	WORD	wordpools/wasnorm_wordpool.txt	LTP108	ltpFR	4	6	0	BADGE	68	n/a	n/a	0	0.422607421875	0.5869140625	0	lower	zerothre.ttf
822187	WORD	wordpools/wasnorm_wordpool.txt	LTP108	ltpFR	4	6	0	HANDCUFFS	685	n/a	n/a	1	0.422607421875	0.5869140625	0	lower	zerothre.ttf
826302	WORD	wordpools/wasnorm_wordpool.txt	LTP108	ltpFR	4	6	0	INTESTINE	742	n/a	n/a	0	0.422607421875	0.5869140625	0	lower	zerothre.ttf
830226	WORD	wordpools/wasnorm_wordpool.txt	LTP108	ltpFR	4	6	0	COMET	353	n/a	n/a	1	0.422607421875	0.5869140625	0	lower	zerothre.ttf
834133	WORD	wordpools/wasnorm_wordpool.txt	LTP108	ltpFR	4	6	0	WOLF	1619	n/a	n/a	0	0.422607421875	0.5869140625	0	lower	zerothre.ttf
839940	REC_START	n/a	LTP108	ltpFR	4	6	n/a	n/a	n/a	n/a	n/a	n/a	n/a	n/a	n/a	n/a	n/a
841097	REC_WORD	wordpools/wasnorm_wordpool.txt	LTP108	ltpFR	4	6	0	WOLF	1619	n/a	n/a	0	n/a	n/a	n/a	n/a	n/a
841681	REC_WORD	wordpools/wasnorm_wordpool.txt	LTP108	ltpFR	4	6	0	INTESTINE	742	n/a	n/a	0	n/a	n/a	n/a	n/a	n/a
842630	REC_WORD	wordpools/wasnorm_wordpool.txt	LTP108	ltpFR	4	6	0	HANDCUFFS	685	n/a	n/a	1	n/a	n/a	n/a	n/a	n/a
861166	REC_WORD	wordpools/wasnorm_wordpool.txt	LTP108	ltpFR	4	6	0	MOON	914	n/a	n/a	1	n/a	n/a	n/a	n/a	n/a
865626	REC_WORD	wordpools/wasnorm_wordpool.txt	LTP108	ltpFR	4	6	0	PLIERS	1089	n/a	n/a	0	n/a	n/a	n/a	n/a	n/a
908263	REC_WORD	wordpools/wasnorm_wordpool.txt	LTP108	ltpFR	4	6	0	PORCUPINE	1107	n/a	n/a	0	n/a	n/a	n/a	n/a	n/a
918953	WORD	wordpools/wasnorm_wordpool.txt	LTP108	ltpFR	4	7	-1	CONTRACT	368	n/a	n/a	-1	1.0	1.0	1	upper	Verdana.ttf
923085	WORD	wordpools/wasnorm_wordpool.txt	LTP108	ltpFR	4	7	-1	VET	1560	n/a	n/a	-1	1.0	1.0	1	upper	Verdana.ttf
927158	WORD	wordpools/wasnorm_wordpool.txt	LTP108	ltpFR	4	7	-1	SCULPTURE	1258	n/a	n/a	-1	1.0	1.0	1	upper	Verdana.ttf
931373	WORD	wordpools/wasnorm_wordpool.txt	LTP108	ltpFR	4	7	-1	BEAKER	104	n/a	n/a	-1	1.0	1.0	1	upper	Verdana.ttf
935505	WORD	wordpools/wasnorm_wordpool.txt	LTP108	ltpFR	4	7	-1	LOAF	835	n/a	n/a	-1	1.0	1.0	1	upper	Verdana.ttf
939612	WORD	wordpools/wasnorm_wordpool.txt	LTP108	ltpFR	4	7	-1	CLIPPERS	324	n/a	n/a	-1	1.0	1.0	1	upper	Verdana.ttf
943737	WORD	wordpools/wasnorm_wordpool.txt	LTP108	ltpFR	4	7	-1	CHEMIST	292	n/a	n/a	-1	1.0	1.0	1	upper	Verdana.ttf
947934	WORD	wordpools/wasnorm_wordpool.txt	LTP108	ltpFR	4	7	-1	HEEL	700	n/a	n/a	-1	1.0	1.0	1	upper	Verdana.ttf
952108	WORD	wordpools/wasnorm_wordpool.txt	LTP108	ltpFR	4	7	-1	WORKER	1621	n/a	n/a	-1	1.0	1.0	1	upper	Verdana.ttf
955998	WORD	wordpools/wasnorm_wordpool.txt	LTP108	ltpFR	4	7	-1	COUGAR	387	n/a	n/a	-1	1.0	1.0	1	upper	Verdana.ttf
960030	WORD	wordpools/wasnorm_wordpool.txt	LTP108	ltpFR	4	7	-1	WAX	1597	n/a	n/a	-1	1.0	1.0	1	upper	Verdana.ttf
964078	WORD	wordpools/wasnorm_wordpool.txt	LTP108	ltpFR	4	7	-1	JOURNAL	760	n/a	n/a	-1	1.0	1.0	1	upper	Verdana.ttf
968210	WORD	wordpools/wasnorm_wordpool.txt	LTP108	ltpFR	4	7	-1	NOTEBOOK	959	n/a	n/a	-1	1.0	1.0	1	upper	Verdana.ttf
972076	WORD	wordpools/wasnorm_wordpool.txt	LTP108	ltpFR	4	7	-1	SKETCH	1315	n/a	n/a	-1	1.0	1.0	1	upper	Verdana.ttf
976007	WORD	wordpools/wasnorm_wordpool.txt	LTP108	ltpFR	4	7	-1	MECHANIC	884	n/a	n/a	-1	1.0	1.0	1	upper	Verdana.ttf
980073	WORD	wordpools/wasnorm_wordpool.txt	LTP108	ltpFR	4	7	-1	GARAGE	621	n/a	n/a	-1	1.0	1.0	1	upper	Verdana.ttf
985813	REC_START	n/a	LTP108	ltpFR	4	7	n/a	n/a	n/a	n/a	n/a	n/a	n/a	n/a	n/a	n/a	n/a
986680	REC_WORD	wordpools/wasnorm_wordpool.txt	LTP108	ltpFR	4	7	-1	MECHANIC	884	n/a	n/a	-1	n/a	n/a	n/a	n/a	n/a
987544	REC_WORD	wordpools/wasnorm_wordpool.txt	LTP108	ltpFR	4	7	-1	GARAGE	621	n/a	n/a	-1	n/a	n/a	n/a	n/a	n/a
989190	REC_WORD	wordpools/wasnorm_wordpool.txt	LTP108	ltpFR	4	7	-1	WORKER	1621	n/a	n/a	-1	n/a	n/a	n/a	n/a	n/a
990502	REC_WORD	wordpools/wasnorm_wordpool.txt	LTP108	ltpFR	4	7	-1	WAX	1597	n/a	n/a	-1	n/a	n/a	n/a	n/a	n/a
992672	REC_WORD	wordpools/wasnorm_wordpool.txt	LTP108	ltpFR	4	7	-1	JOURNAL	760	n/a	n/a	-1	n/a	n/a	n/a	n/a	n/a
993356	REC_WORD	wordpools/wasnorm_wordpool.txt	LTP108	ltpFR	4	7	-1	NOTEBOOK	959	n/a	n/a	-1	n/a	n/a	n/a	n/a	n/a
994264	REC_WORD	wordpools/wasnorm_wordpool.txt	LTP108	ltpFR	4	7	-1	COUGAR	387	n/a	n/a	-1	n/a	n/a	n/a	n/a	n/a
995106	REC_WORD	wordpools/wasnorm_wordpool.txt	LTP108	ltpFR	4	7	-1	SKETCH	1315	n/a	n/a	-1	n/a	n/a	n/a	n/a	n/a
998928	REC_WORD	wordpools/wasnorm_wordpool.txt	LTP108	ltpFR	4	7	-1	BEAKER	104	n/a	n/a	-1	n/a	n/a	n/a	n/a	n/a
999560	REC_WORD	wordpools/wasnorm_wordpool.txt	LTP108	ltpFR	4	7	n/a	SCIENTIST	1249	n/a	n/a	n/a	n/a	n/a	n/a	n/a	n/a
1004600	REC_WORD	wordpools/wasnorm_wordpool.txt	LTP108	ltpFR	4	7	-1	LOAF	835	n/a	n/a	-1	n/a	n/a	n/a	n/a	n/a
1005158	REC_WORD	wordpools/wasnorm_wordpool.txt	LTP108	ltpFR	4	7	-1	HEEL	700	n/a	n/a	-1	n/a	n/a	n/a	n/a	n/a
1065626	WORD	wordpools/wasnorm_wordpool.txt	LTP108	ltpFR	4	8	0	BOOK	149	n/a	n/a	0	0.422607421875	0.5869140625	0	lower	zerothre.ttf
1069608	WORD	wordpools/wasnorm_wordpool.txt	LTP108	ltpFR	4	8	0	FISH	571	n/a	n/a	0	0.422607421875	0.5869140625	0	lower	zerothre.ttf
1073648	WORD	wordpools/wasnorm_wordpool.txt	LTP108	ltpFR	4	8	0	BARLEY	88	n/a	n/a	1	0.422607421875	0.5869140625	0	lower	zerothre.ttf
1077830	WORD	wordpools/wasnorm_wordpool.txt	LTP108	ltpFR	4	8	0	QUEEN	1149	n/a	n/a	1	0.422607421875	0.5869140625	0	lower	zerothre.ttf
1081853	WORD	wordpools/wasnorm_wordpool.txt	LTP108	ltpFR	4	8	0	REEF	1177	n/a	n/a	1	0.422607421875	0.5869140625	0	lower	zerothre.ttf
1085777	WORD	wordpools/wasnorm_wordpool.txt	LTP108	ltpFR	4	8	0	HUT	729	n/a	n/a	0	0.422607421875	0.5869140625	0	lower	zerothre.ttf
1089743	WORD	wordpools/wasnorm_wordpool.txt	LTP108	ltpFR	4	8	0	CHEDDAR	286	n/a	n/a	0	0.422607421875	0.5869140625	0	lower	zerothre.ttf
1093949	WORD	wordpools/wasnorm_wordpool.txt	LTP108	ltpFR	4	8	0	AUTHOR	61	n/a	n/a	0	0.422607421875	0.5869140625	0	lower	zerothre.ttf
1097789	WORD	wordpools/wasnorm_wordpool.txt	LTP108	ltpFR	4	8	0	CARD	243	n/a	n/a	0	0.422607421875	0.5869140625	0	lower	zerothre.ttf
1101904	WORD	wordpools/wasnorm_wordpool.txt	LTP108	ltpFR	4	8	0	ELM	527	n/a	n/a	1	0.422607421875	0.5869140625	0	lower	zerothre.ttf
1106036	WORD	wordpools/wasnorm_wordpool.txt	LTP108	ltpFR	4	8	0	GRAVEL	659	n/a	n/a	0	0.422607421875	0.5869140625	0	lower	zerothre.ttf
1110052	WORD	wordpools/wasnorm_wordpool.txt	LTP108	ltpFR	4	8	0	BEER	114	n/a	n/a	0	0.422607421875	0.5869140625	0	lower	zerothre.ttf
1113908	WORD	wordpools/wasnorm_wordpool.txt	LTP108	ltpFR	4	8	0	ONION	977	n/a	n/a	0	0.422607421875	0.5869140625	0	lower	zerothre.ttf
1117915	WORD	wordpools/wasnorm_wordpool.txt	LTP108	ltpFR	4	8	0	COLOGNE	347	n/a	n/a	0	0.422607421875	0.5869140625	0	lower	zerothre.ttf
1122006	WORD	wordpools/wasnorm_wordpool.txt	LTP108	ltpFR	4	8	0	KIWI	781	n/a	n/a	0	0.422607421875	0.5869140625	0	lower	zerothre.ttf
1125979	WORD	wordpools/wasnorm_wordpool.txt	LTP108	ltpFR	4	8	0	PUMPKIN	1142	n/a	n/a	1	0.422607421875	0.5869140625	0	lower	zerothre.ttf
1132011	REC_START	n/a	LTP108	ltpFR	4	8	n/a	n/a	n/a	n/a	n/a	n/a	n/a	n/a	n/a	n/a	n/a
1133019	REC_WORD	wordpools/wasnorm_wordpool.txt	LTP108	ltpFR	4	8	0	KIWI	781	n/a	n/a	0	n/a	n/a	n/a	n/a	n/a
1133752	REC_WORD	wordpools/wasnorm_wordpool.txt	LTP108	ltpFR	4	8	0	PUMPKIN	1142	n/a	n/a	1	n/a	n/a	n/a	n/a	n/a
1134430	REC_WORD	wordpools/wasnorm_wordpool.txt	LTP108	ltpFR	4	8	0	COLOGNE	347	n/a	n/a	0	n/a	n/a	n/a	n/a	n/a
1135139	REC_WORD	wordpools/wasnorm_wordpool.txt	LTP108	ltpFR	4	8	0	AUTHOR	61	n/a	n/a	0	n/a	n/a	n/a	n/a	n/a
1135837	REC_WORD	wordpools/wasnorm_wordpool.txt	LTP108	ltpFR	4	8	0	QUEEN	1149	n/a	n/a	1	n/a	n/a	n/a	n/a	n/a
1136795	REC_WORD	wordpools/wasnorm_wordpool.txt	LTP108	ltpFR	4	8	0	BARLEY	88	n/a	n/a	1	n/a	n/a	n/a	n/a	n/a
1137404	REC_WORD	wordpools/wasnorm_wordpool.txt	LTP108	ltpFR	4	8	0	HUT	729	n/a	n/a	0	n/a	n/a	n/a	n/a	n/a
1138232	REC_WORD	wordpools/wasnorm_wordpool.txt	LTP108	ltpFR	4	8	0	ELM	527	n/a	n/a	1	n/a	n/a	n/a	n/a	n/a
1138925	REC_WORD	wordpools/wasnorm_wordpool.txt	LTP108	ltpFR	4	8	0	GRAVEL	659	n/a	n/a	0	n/a	n/a	n/a	n/a	n/a
1141050	REC_WORD	wordpools/wasnorm_wordpool.txt	LTP108	ltpFR	4	8	0	BOOK	149	n/a	n/a	0	n/a	n/a	n/a	n/a	n/a
1143046	REC_WORD	wordpools/wasnorm_wordpool.txt	LTP108	ltpFR	4	8	0	FISH	571	n/a	n/a	0	n/a	n/a	n/a	n/a	n/a
1143741	REC_WORD	wordpools/wasnorm_wordpool.txt	LTP108	ltpFR	4	8	0	REEF	1177	n/a	n/a	1	n/a	n/a	n/a	n/a	n/a
1150828	REC_WORD	wordpools/wasnorm_wordpool.txt	LTP108	ltpFR	4	8	0	CHEDDAR	286	n/a	n/a	0	n/a	n/a	n/a	n/a	n/a
1162661	REC_WORD	wordpools/wasnorm_wordpool.txt	LTP108	ltpFR	4	8	0	CARD	243	n/a	n/a	0	n/a	n/a	n/a	n/a	n/a
1210541	WORD	wordpools/wasnorm_wordpool.txt	LTP108	ltpFR	4	9	-1	GUITAR	670	n/a	n/a	-1	1.0	1.0	1	upper	Verdana.ttf
1214723	WORD	wordpools/wasnorm_wordpool.txt	LTP108	ltpFR	4	9	-1	SIDEWALK	1303	n/a	n/a	-1	1.0	1.0	1	upper	Verdana.ttf
1218871	WORD	wordpools/wasnorm_wordpool.txt	LTP108	ltpFR	4	9	-1	ALLEY	15	n/a	n/a	-1	1.0	1.0	1	upper	Verdana.ttf
1222836	WORD	wordpools/wasnorm_wordpool.txt	LTP108	ltpFR	4	9	-1	CROOK	412	n/a	n/a	-1	1.0	1.0	1	upper	Verdana.ttf
1226693	WORD	wordpools/wasnorm_wordpool.txt	LTP108	ltpFR	4	9	-1	TURTLE	1522	n/a	n/a	-1	1.0	1.0	1	upper	Verdana.ttf
1230575	WORD	wordpools/wasnorm_wordpool.txt	LTP108	ltpFR	4	9	-1	CHIMPANZEE	302	n/a	n/a	-1	1.0	1.0	1	upper	Verdana.ttf
1234399	WORD	wordpools/wasnorm_wordpool.txt	LTP108	ltpFR	4	9	-1	COD	340	n/a	n/a	-1	1.0	1.0	1	upper	Verdana.ttf
1238373	WORD	wordpools/wasnorm_wordpool.txt	LTP108	ltpFR	4	9	-1	TANK	1432	n/a	n/a	-1	1.0	1.0	1	upper	Verdana.ttf
1242213	WORD	wordpools/wasnorm_wordpool.txt	LTP108	ltpFR	4	9	-1	BANANA	77	n/a	n/a	-1	1.0	1.0	1	upper	Verdana.ttf
1246153	WORD	wordpools/wasnorm_wordpool.txt	LTP108	ltpFR	4	9	-1	BALL	73	n/a	n/a	-1	1.0	1.0	1	upper	Verdana.ttf
1250268	WORD	wordpools/wasnorm_wordpool.txt	LTP108	ltpFR	4	9	-1	MEAT	883	n/a	n/a	-1	1.0	1.0	1	upper	Verdana.ttf
1254375	WORD	wordpools/wasnorm_wordpool.txt	LTP108	ltpFR	4	9	-1	VIOLIN	1571	n/a	n/a	-1	1.0	1.0	1	upper	Verdana.ttf
1258199	WORD	wordpools/wasnorm_wordpool.txt	LTP108	ltpFR	4	9	-1	HELICOPTER	701	n/a	n/a	-1	1.0	1.0	1	upper	Verdana.ttf
1262031	WORD	wordpools/wasnorm_wordpool.txt	LTP108	ltpFR	4	9	-1	BUN	197	n/a	n/a	-1	1.0	1.0	1	upper	Verdana.ttf
1266221	WORD	wordpools/wasnorm_wordpool.txt	LTP108	ltpFR	4	9	-1	FLORIDA	582	n/a	n/a	-1	1.0	1.0	1	upper	Verdana.ttf
1270078	WORD	wordpools/wasnorm_wordpool.txt	LTP108	ltpFR	4	9	-1	POLITICIAN	1099	n/a	n/a	-1	1.0	1.0	1	upper	Verdana.ttf
1275835	REC_START	n/a	LTP108	ltpFR	4	9	n/a	n/a	n/a	n/a	n/a	n/a	n/a	n/a	n/a	n/a	n/a
1276508	REC_WORD	wordpools/wasnorm_wordpool.txt	LTP108	ltpFR	4	9	-1	FLORIDA	582	n/a	n/a	-1	n/a	n/a	n/a	n/a	n/a
1277346	REC_WORD	wordpools/wasnorm_wordpool.txt	LTP108	ltpFR	4	9	-1	POLITICIAN	1099	n/a	n/a	-1	n/a	n/a	n/a	n/a	n/a
1278449	REC_WORD	wordpools/wasnorm_wordpool.txt	LTP108	ltpFR	4	9	-1	ALLEY	15	n/a	n/a	-1	n/a	n/a	n/a	n/a	n/a
1278998	REC_WORD	wordpools/wasnorm_wordpool.txt	LTP108	ltpFR	4	9	-1	VIOLIN	1571	n/a	n/a	-1	n/a	n/a	n/a	n/a	n/a
1279723	REC_WORD	wordpools/wasnorm_wordpool.txt	LTP108	ltpFR	4	9	-1	GUITAR	670	n/a	n/a	-1	n/a	n/a	n/a	n/a	n/a
1286176	REC_WORD	wordpools/wasnorm_wordpool.txt	LTP108	ltpFR	4	9	-1	BANANA	77	n/a	n/a	-1	n/a	n/a	n/a	n/a	n/a
1287334	REC_WORD	wordpools/wasnorm_wordpool.txt	LTP108	ltpFR	4	9	-1	CHIMPANZEE	302	n/a	n/a	-1	n/a	n/a	n/a	n/a	n/a
1288581	REC_WORD	wordpools/wasnorm_wordpool.txt	LTP108	ltpFR	4	9	-1	COD	340	n/a	n/a	-1	n/a	n/a	n/a	n/a	n/a
1289214	REC_WORD	wordpools/wasnorm_wordpool.txt	LTP108	ltpFR	4	9	-1	TURTLE	1522	n/a	n/a	-1	n/a	n/a	n/a	n/a	n/a
1293435	REC_WORD	wordpools/wasnorm_wordpool.txt	LTP108	ltpFR	4	9	-1	SIDEWALK	1303	n/a	n/a	-1	n/a	n/a	n/a	n/a	n/a
1298194	REC_WORD	wordpools/wasnorm_wordpool.txt	LTP108	ltpFR	4	9	-1	HELICOPTER	701	n/a	n/a	-1	n/a	n/a	n/a	n/a	n/a
1299296	REC_WORD	wordpools/wasnorm_wordpool.txt	LTP108	ltpFR	4	9	-1	BUN	197	n/a	n/a	-1	n/a	n/a	n/a	n/a	n/a
1312342	REC_WORD	wordpools/wasnorm_wordpool.txt	LTP108	ltpFR	4	9	-1	TANK	1432	n/a	n/a	-1	n/a	n/a	n/a	n/a	n/a
1315719	REC_WORD	wordpools/wasnorm_wordpool.txt	LTP108	ltpFR	4	9	-1	BALL	73	n/a	n/a	-1	n/a	n/a	n/a	n/a	n/a
1326904	REC_WORD	wordpools/wasnorm_wordpool.txt	LTP108	ltpFR	4	9	n/a	THIEF	1456	n/a	n/a	n/a	n/a	n/a	n/a	n/a	n/a
1328036	REC_WORD	wordpools/wasnorm_wordpool.txt	LTP108	ltpFR	4	9	n/a	ROBBER	1197	n/a	n/a	n/a	n/a	n/a	n/a	n/a	n/a
1359571	WORD	wordpools/wasnorm_wordpool.txt	LTP108	ltpFR	4	10	0	HAY	693	n/a	n/a	1	0.422607421875	0.5869140625	0	lower	zerothre.ttf
1363678	WORD	wordpools/wasnorm_wordpool.txt	LTP108	ltpFR	4	10	0	HOOK	715	n/a	n/a	1	0.422607421875	0.5869140625	0	lower	zerothre.ttf
1367585	WORD	wordpools/wasnorm_wordpool.txt	LTP108	ltpFR	4	10	0	NET	946	n/a	n/a	0	0.422607421875	0.5869140625	0	lower	zerothre.ttf
1371450	WORD	wordpools/wasnorm_wordpool.txt	LTP108	ltpFR	4	10	0	SALESMAN	1225	n/a	n/a	1	0.422607421875	0.5869140625	0	lower	zerothre.ttf
1375266	WORD	wordpools/wasnorm_wordpool.txt	LTP108	ltpFR	4	10	0	SUPERVISOR	1410	n/a	n/a	1	0.422607421875	0.5869140625	0	lower	zerothre.ttf
1379464	WORD	wordpools/wasnorm_wordpool.txt	LTP108	ltpFR	4	10	0	FACTORY	548	n/a	n/a	0	0.422607421875	0.5869140625	0	lower	zerothre.ttf
1383463	WORD	wordpools/wasnorm_wordpool.txt	LTP108	ltpFR	4	10	0	SISTER	1312	n/a	n/a	1	0.422607421875	0.5869140625	0	lower	zerothre.ttf
1387311	WORD	wordpools/wasnorm_wordpool.txt	LTP108	ltpFR	4	10	0	ELEVATOR	524	n/a	n/a	1	0.422607421875	0.5869140625	0	lower	zerothre.ttf
1391177	WORD	wordpools/wasnorm_wordpool.txt	LTP108	ltpFR	4	10	0	RIDER	1191	n/a	n/a	1	0.422607421875	0.5869140625	0	lower	zerothre.ttf
1395200	WORD	wordpools/wasnorm_wordpool.txt	LTP108	ltpFR	4	10	0	ROBE	1198	n/a	n/a	1	0.422607421875	0.5869140625	0	lower	zerothre.ttf
1399299	WORD	wordpools/wasnorm_wordpool.txt	LTP108	ltpFR	4	10	0	TEMPLE	1448	n/a	n/a	1	0.422607421875	0.5869140625	0	lower	zerothre.ttf
1403472	WORD	wordpools/wasnorm_wordpool.txt	LTP108	ltpFR	4	10	0	BANQUET	86	n/a	n/a	1	0.422607421875	0.5869140625	0	lower	zerothre.ttf
1407654	WORD	wordpools/wasnorm_wordpool.txt	LTP108	ltpFR	4	10	0	RICE	1190	n/a	n/a	0	0.422607421875	0.5869140625	0	lower	zerothre.ttf
1411737	WORD	wordpools/wasnorm_wordpool.txt	LTP108	ltpFR	4	10	0	MUSHROOM	934	n/a	n/a	0	0.422607421875	0.5869140625	0	lower	zerothre.ttf
1415618	WORD	wordpools/wasnorm_wordpool.txt	LTP108	ltpFR	4	10	0	DRESSER	496	n/a	n/a	1	0.422607421875	0.5869140625	0	lower	zerothre.ttf
1419783	WORD	wordpools/wasnorm_wordpool.txt	LTP108	ltpFR	4	10	0	TOMATO	1476	n/a	n/a	0	0.422607421875	0.5869140625	0	lower	zerothre.ttf
1425741	REC_START	n/a	LTP108	ltpFR	4	10	n/a	n/a	n/a	n/a	n/a	n/a	n/a	n/a	n/a	n/a	n/a
1426933	REC_WORD_VV	wordpools/wasnorm_wordpool.txt	LTP108	ltpFR	4	10	n/a	<>	-1	n/a	n/a	n/a	n/a	n/a	n/a	n/a	n/a
1427731	REC_WORD	wordpools/wasnorm_wordpool.txt	LTP108	ltpFR	4	10	0	RICE	1190	n/a	n/a	0	n/a	n/a	n/a	n/a	n/a
1428230	REC_WORD	wordpools/wasnorm_wordpool.txt	LTP108	ltpFR	4	10	0	MUSHROOM	934	n/a	n/a	0	n/a	n/a	n/a	n/a	n/a
1428814	REC_WORD	wordpools/wasnorm_wordpool.txt	LTP108	ltpFR	4	10	0	TOMATO	1476	n/a	n/a	0	n/a	n/a	n/a	n/a	n/a
1429592	REC_WORD	wordpools/wasnorm_wordpool.txt	LTP108	ltpFR	4	10	0	BANQUET	86	n/a	n/a	1	n/a	n/a	n/a	n/a	n/a
1430171	REC_WORD	wordpools/wasnorm_wordpool.txt	LTP108	ltpFR	4	10	0	DRESSER	496	n/a	n/a	1	n/a	n/a	n/a	n/a	n/a
1431084	REC_WORD	wordpools/wasnorm_wordpool.txt	LTP108	ltpFR	4	10	0	ELEVATOR	524	n/a	n/a	1	n/a	n/a	n/a	n/a	n/a
1431847	REC_WORD	wordpools/wasnorm_wordpool.txt	LTP108	ltpFR	4	10	0	SISTER	1312	n/a	n/a	1	n/a	n/a	n/a	n/a	n/a
1432710	REC_WORD	wordpools/wasnorm_wordpool.txt	LTP108	ltpFR	4	10	0	RIDER	1191	n/a	n/a	1	n/a	n/a	n/a	n/a	n/a
1434516	REC_WORD	wordpools/wasnorm_wordpool.txt	LTP108	ltpFR	4	10	0	FACTORY	548	n/a	n/a	0	n/a	n/a	n/a	n/a	n/a
1438287	REC_WORD	wordpools/wasnorm_wordpool.txt	LTP108	ltpFR	4	10	0	SALESMAN	1225	n/a	n/a	1	n/a	n/a	n/a	n/a	n/a
1439784	REC_WORD	wordpools/wasnorm_wordpool.txt	LTP108	ltpFR	4	10	0	SUPERVISOR	1410	n/a	n/a	1	n/a	n/a	n/a	n/a	n/a
1441176	REC_WORD	wordpools/wasnorm_wordpool.txt	LTP108	ltpFR	4	10	0	HAY	693	n/a	n/a	1	n/a	n/a	n/a	n/a	n/a
1442044	REC_WORD	wordpools/wasnorm_wordpool.txt	LTP108	ltpFR	4	10	0	NET	946	n/a	n/a	0	n/a	n/a	n/a	n/a	n/a
1442578	REC_WORD	wordpools/wasnorm_wordpool.txt	LTP108	ltpFR	4	10	0	HOOK	715	n/a	n/a	1	n/a	n/a	n/a	n/a	n/a
1462133	REC_WORD	wordpools/wasnorm_wordpool.txt	LTP108	ltpFR	4	10	0	TEMPLE	1448	n/a	n/a	1	n/a	n/a	n/a	n/a	n/a
1462866	REC_WORD	wordpools/wasnorm_wordpool.txt	LTP108	ltpFR	4	10	0	BANQUET	86	n/a	n/a	1	n/a	n/a	n/a	n/a	n/a
1480930	REC_WORD	wordpools/wasnorm_wordpool.txt	LTP108	ltpFR	4	10	0	ROBE	1198	n/a	n/a	1	n/a	n/a	n/a	n/a	n/a
1511867	WORD	wordpools/wasnorm_wordpool.txt	LTP108	ltpFR	4	11	1	KEYBOARD	774	n/a	n/a	0	0.57763671875	0.412841796875	1	upper	amplitud.ttf
1515982	WORD	wordpools/wasnorm_wordpool.txt	LTP108	ltpFR	4	11	1	SUNRISE	1407	n/a	n/a	1	0.57763671875	0.412841796875	1	upper	amplitud.ttf
1520172	WORD	wordpools/wasnorm_wordpool.txt	LTP108	ltpFR	4	11	1	DANDELION	438	n/a	n/a	1	0.57763671875	0.412841796875	1	upper	amplitud.ttf
1524338	WORD	wordpools/wasnorm_wordpool.txt	LTP108	ltpFR	4	11	1	WEED	1599	n/a	n/a	1	0.57763671875	0.412841796875	1	upper	amplitud.ttf
1528336	WORD	wordpools/wasnorm_wordpool.txt	LTP108	ltpFR	4	11	1	CARRIAGE	248	n/a	n/a	1	0.57763671875	0.412841796875	1	upper	amplitud.ttf
1532426	WORD	wordpools/wasnorm_wordpool.txt	LTP108	ltpFR	4	11	1	SAUSAGE	1238	n/a	n/a	0	0.57763671875	0.412841796875	1	upper	amplitud.ttf
1536375	WORD	wordpools/wasnorm_wordpool.txt	LTP108	ltpFR	4	11	1	MARKET	871	n/a	n/a	1	0.57763671875	0.412841796875	1	upper	amplitud.ttf
1540349	WORD	wordpools/wasnorm_wordpool.txt	LTP108	ltpFR	4	11	1	CLIMBER	323	n/a	n/a	1	0.57763671875	0.412841796875	1	upper	amplitud.ttf
1544181	WORD	wordpools/wasnorm_wordpool.txt	LTP108	ltpFR	4	11	1	GYMNAST	675	n/a	n/a	1	0.57763671875	0.412841796875	1	upper	amplitud.ttf
1548246	WORD	wordpools/wasnorm_wordpool.txt	LTP108	ltpFR	4	11	1	GAVEL	627	n/a	n/a	0	0.57763671875	0.412841796875	1	upper	amplitud.ttf
1552269	WORD	wordpools/wasnorm_wordpool.txt	LTP108	ltpFR	4	11	1	WITNESS	1618	n/a	n/a	1	0.57763671875	0.412841796875	1	upper	amplitud.ttf
1556393	WORD	wordpools/wasnorm_wordpool.txt	LTP108	ltpFR	4	11	1	BARN	89	n/a	n/a	0	0.57763671875	0.412841796875	1	upper	amplitud.ttf
1560308	WORD	wordpools/wasnorm_wordpool.txt	LTP108	ltpFR	4	11	1	YOKE	1632	n/a	n/a	0	0.57763671875	0.412841796875	1	upper	amplitud.ttf
1564199	WORD	wordpools/wasnorm_wordpool.txt	LTP108	ltpFR	4	11	1	COMPUTER	359	n/a	n/a	0	0.57763671875	0.412841796875	1	upper	amplitud.ttf
1568072	WORD	wordpools/wasnorm_wordpool.txt	LTP108	ltpFR	4	11	1	BOUQUET	157	n/a	n/a	1	0.57763671875	0.412841796875	1	upper	amplitud.ttf
1572279	WORD	wordpools/wasnorm_wordpool.txt	LTP108	ltpFR	4	11	1	TORTOISE	1486	n/a	n/a	1	0.57763671875	0.412841796875	1	upper	amplitud.ttf
1578044	REC_START	n/a	LTP108	ltpFR	4	11	n/a	n/a	n/a	n/a	n/a	n/a	n/a	n/a	n/a	n/a	n/a
1579420	REC_WORD	wordpools/wasnorm_wordpool.txt	LTP108	ltpFR	4	11	1	GAVEL	627	n/a	n/a	0	n/a	n/a	n/a	n/a	n/a
1580528	REC_WORD	wordpools/wasnorm_wordpool.txt	LTP108	ltpFR	4	11	n/a	COURT	391	n/a	n/a	n/a	n/a	n/a	n/a	n/a	n/a
1582074	REC_WORD	wordpools/wasnorm_wordpool.txt	LTP108	ltpFR	4	11	1	WITNESS	1618	n/a	n/a	1	n/a	n/a	n/a	n/a	n/a
1584724	REC_WORD_VV	wordpools/wasnorm_wordpool.txt	LTP108	ltpFR	4	11	n/a	<>	-1	n/a	n/a	n/a	n/a	n/a	n/a	n/a	n/a
1585482	REC_WORD	wordpools/wasnorm_wordpool.txt	LTP108	ltpFR	4	11	1	TORTOISE	1486	n/a	n/a	1	n/a	n/a	n/a	n/a	n/a
1586305	REC_WORD	wordpools/wasnorm_wordpool.txt	LTP108	ltpFR	4	11	1	SUNRISE	1407	n/a	n/a	1	n/a	n/a	n/a	n/a	n/a
1587921	REC_WORD	wordpools/wasnorm_wordpool.txt	LTP108	ltpFR	4	11	1	BOUQUET	157	n/a	n/a	1	n/a	n/a	n/a	n/a	n/a
1589588	REC_WORD	wordpools/wasnorm_wordpool.txt	LTP108	ltpFR	4	11	1	WEED	1599	n/a	n/a	1	n/a	n/a	n/a	n/a	n/a
1590411	REC_WORD	wordpools/wasnorm_wordpool.txt	LTP108	ltpFR	4	11	1	DANDELION	438	n/a	n/a	1	n/a	n/a	n/a	n/a	n/a
1592092	REC_WORD	wordpools/wasnorm_wordpool.txt	LTP108	ltpFR	4	11	1	KEYBOARD	774	n/a	n/a	0	n/a	n/a	n/a	n/a	n/a
1592770	REC_WORD	wordpools/wasnorm_wordpool.txt	LTP108	ltpFR	4	11	1	COMPUTER	359	n/a	n/a	0	n/a	n/a	n/a	n/a	n/a
1599251	REC_WORD	wordpools/wasnorm_wordpool.txt	LTP108	ltpFR	4	11	1	MARKET	871	n/a	n/a	1	n/a	n/a	n/a	n/a	n/a
1600009	REC_WORD	wordpools/wasnorm_wordpool.txt	LTP108	ltpFR	4	11	1	SAUSAGE	1238	n/a	n/a	0	n/a	n/a	n/a	n/a	n/a
1601775	REC_WORD	wordpools/wasnorm_wordpool.txt	LTP108	ltpFR	4	11	1	YOKE	1632	n/a	n/a	0	n/a	n/a	n/a	n/a	n/a
1602563	REC_WORD	wordpools/wasnorm_wordpool.txt	LTP108	ltpFR	4	11	1	BARN	89	n/a	n/a	0	n/a	n/a	n/a	n/a	n/a
1657490	WORD	wordpools/wasnorm_wordpool.txt	LTP108	ltpFR	4	12	0	MAMMAL	861	n/a	n/a	1	0.422607421875	0.5869140625	0	lower	zerothre.ttf
1661364	WORD	wordpools/wasnorm_wordpool.txt	LTP108	ltpFR	4	12	0	HUMAN	726	n/a	n/a	1	0.422607421875	0.5869140625	0	lower	zerothre.ttf
1665279	WORD	wordpools/wasnorm_wordpool.txt	LTP108	ltpFR	4	12	1	PUMP	1141	n/a	n/a	0	0.57763671875	0.412841796875	1	upper	amplitud.ttf
1669436	WORD	wordpools/wasnorm_wordpool.txt	LTP108	ltpFR	4	12	1	WRIST	1626	n/a	n/a	1	0.57763671875	0.412841796875	1	upper	amplitud.ttf
1673393	WORD	wordpools/wasnorm_wordpool.txt	LTP108	ltpFR	4	12	1	CIGARETTE	309	n/a	n/a	0	0.57763671875	0.412841796875	1	upper	amplitud.ttf
1677217	WORD	wordpools/wasnorm_wordpool.txt	LTP108	ltpFR	4	12	1	TIDE	1465	n/a	n/a	1	0.57763671875	0.412841796875	1	upper	amplitud.ttf
1681315	WORD	wordpools/wasnorm_wordpool.txt	LTP108	ltpFR	4	12	1	MOAT	903	n/a	n/a	0	0.57763671875	0.412841796875	1	upper	amplitud.ttf
1685189	WORD	wordpools/wasnorm_wordpool.txt	LTP108	ltpFR	4	12	0	JELLY	755	n/a	n/a	0	0.422607421875	0.5869140625	0	lower	zerothre.ttf
1689004	WORD	wordpools/wasnorm_wordpool.txt	LTP108	ltpFR	4	12	0	STREAM	1392	n/a	n/a	1	0.422607421875	0.5869140625	0	lower	zerothre.ttf
1693169	WORD	wordpools/wasnorm_wordpool.txt	LTP108	ltpFR	4	12	0	ROACH	1195	n/a	n/a	0	0.422607421875	0.5869140625	0	lower	zerothre.ttf
1697368	WORD	wordpools/wasnorm_wordpool.txt	LTP108	ltpFR	4	12	1	KNUCKLE	789	n/a	n/a	0	0.57763671875	0.412841796875	1	upper	amplitud.ttf
1701558	WORD	wordpools/wasnorm_wordpool.txt	LTP108	ltpFR	4	12	1	UMPIRE	1535	n/a	n/a	1	0.57763671875	0.412841796875	1	upper	amplitud.ttf
1705648	WORD	wordpools/wasnorm_wordpool.txt	LTP108	ltpFR	4	12	1	SCISSORS	1250	n/a	n/a	0	0.57763671875	0.412841796875	1	upper	amplitud.ttf
1709480	WORD	wordpools/wasnorm_wordpool.txt	LTP108	ltpFR	4	12	0	BRIDGE	174	n/a	n/a	1	0.422607421875	0.5869140625	0	lower	zerothre.ttf
1713687	WORD	wordpools/wasnorm_wordpool.txt	LTP108	ltpFR	4	12	0	SHED	1277	n/a	n/a	0	0.422607421875	0.5869140625	0	lower	zerothre.ttf
1717786	WORD	wordpools/wasnorm_wordpool.txt	LTP108	ltpFR	4	12	0	PUPPY	1144	n/a	n/a	0	0.422607421875	0.5869140625	0	lower	zerothre.ttf
1723601	REC_START	n/a	LTP108	ltpFR	4	12	n/a	n/a	n/a	n/a	n/a	n/a	n/a	n/a	n/a	n/a	n/a
1723955	REC_WORD_VV	wordpools/wasnorm_wordpool.txt	LTP108	ltpFR	4	12	n/a	<>	-1	n/a	n/a	n/a	n/a	n/a	n/a	n/a	n/a
1726439	REC_WORD	wordpools/wasnorm_wordpool.txt	LTP108	ltpFR	4	12	0	MAMMAL	861	n/a	n/a	1	n/a	n/a	n/a	n/a	n/a
1727487	REC_WORD	wordpools/wasnorm_wordpool.txt	LTP108	ltpFR	4	12	0	HUMAN	726	n/a	n/a	1	n/a	n/a	n/a	n/a	n/a
1728345	REC_WORD	wordpools/wasnorm_wordpool.txt	LTP108	ltpFR	4	12	0	PUPPY	1144	n/a	n/a	0	n/a	n/a	n/a	n/a	n/a
1729747	REC_WORD	wordpools/wasnorm_wordpool.txt	LTP108	ltpFR	4	12	0	BRIDGE	174	n/a	n/a	1	n/a	n/a	n/a	n/a	n/a
1730440	REC_WORD	wordpools/wasnorm_wordpool.txt	LTP108	ltpFR	4	12	1	PUMP	1141	n/a	n/a	0	n/a	n/a	n/a	n/a	n/a
1730974	REC_WORD	wordpools/wasnorm_wordpool.txt	LTP108	ltpFR	4	12	1	WRIST	1626	n/a	n/a	1	n/a	n/a	n/a	n/a	n/a
1731623	REC_WORD	wordpools/wasnorm_wordpool.txt	LTP108	ltpFR	4	12	1	KNUCKLE	789	n/a	n/a	0	n/a	n/a	n/a	n/a	n/a
1732361	REC_WORD	wordpools/wasnorm_wordpool.txt	LTP108	ltpFR	4	12	1	CIGARETTE	309	n/a	n/a	0	n/a	n/a	n/a	n/a	n/a
1742423	REC_WORD	wordpools/wasnorm_wordpool.txt	LTP108	ltpFR	4	12	0	HUT	729	n/a	n/a	0	n/a	n/a	n/a	n/a	n/a
1745077	REC_WORD	wordpools/wasnorm_wordpool.txt	LTP108	ltpFR	4	12	0	SHED	1277	n/a	n/a	0	n/a	n/a	n/a	n/a	n/a
1762722	REC_WORD	wordpools/wasnorm_wordpool.txt	LTP108	ltpFR	4	12	1	PUMP	1141	n/a	n/a	0	n/a	n/a	n/a	n/a	n/a
1799199	REST_REWET	n/a	LTP108	ltpFR	4	12	n/a	n/a	n/a	n/a	n/a	n/a	n/a	n/a	n/a	n/a	n/a
2140036	WORD	wordpools/wasnorm_wordpool.txt	LTP108	ltpFR	4	13	-1	TUBE	1516	n/a	n/a	-1	1.0	1.0	1	upper	Verdana.ttf
2144210	WORD	wordpools/wasnorm_wordpool.txt	LTP108	ltpFR	4	13	-1	CANOE	233	n/a	n/a	-1	1.0	1.0	1	upper	Verdana.ttf
2148075	WORD	wordpools/wasnorm_wordpool.txt	LTP108	ltpFR	4	13	-1	VEIN	1554	n/a	n/a	-1	1.0	1.0	1	upper	Verdana.ttf
2152248	WORD	wordpools/wasnorm_wordpool.txt	LTP108	ltpFR	4	13	-1	GROOM	665	n/a	n/a	-1	1.0	1.0	1	upper	Verdana.ttf
2156314	WORD	wordpools/wasnorm_wordpool.txt	LTP108	ltpFR	4	13	-1	TREE	1502	n/a	n/a	-1	1.0	1.0	1	upper	Verdana.ttf
2160295	WORD	wordpools/wasnorm_wordpool.txt	LTP108	ltpFR	4	13	-1	PASTRY	1022	n/a	n/a	-1	1.0	1.0	1	upper	Verdana.ttf
2164302	WORD	wordpools/wasnorm_wordpool.txt	LTP108	ltpFR	4	13	-1	SPINACH	1352	n/a	n/a	-1	1.0	1.0	1	upper	Verdana.ttf
2168243	WORD	wordpools/wasnorm_wordpool.txt	LTP108	ltpFR	4	13	-1	CAULIFLOWER	262	n/a	n/a	-1	1.0	1.0	1	upper	Verdana.ttf
2172283	WORD	wordpools/wasnorm_wordpool.txt	LTP108	ltpFR	4	13	-1	GIRAFFE	636	n/a	n/a	-1	1.0	1.0	1	upper	Verdana.ttf
2176157	WORD	wordpools/wasnorm_wordpool.txt	LTP108	ltpFR	4	13	-1	LIVER	833	n/a	n/a	-1	1.0	1.0	1	upper	Verdana.ttf
2180189	WORD	wordpools/wasnorm_wordpool.txt	LTP108	ltpFR	4	13	-1	BANDANNA	80	n/a	n/a	-1	1.0	1.0	1	upper	Verdana.ttf
2184345	WORD	wordpools/wasnorm_wordpool.txt	LTP108	ltpFR	4	13	-1	BRUSH	182	n/a	n/a	-1	1.0	1.0	1	upper	Verdana.ttf
2188219	WORD	wordpools/wasnorm_wordpool.txt	LTP108	ltpFR	4	13	-1	FOOTBALL	591	n/a	n/a	-1	1.0	1.0	1	upper	Verdana.ttf
2192084	WORD	wordpools/wasnorm_wordpool.txt	LTP108	ltpFR	4	13	-1	CONCRETE	361	n/a	n/a	-1	1.0	1.0	1	upper	Verdana.ttf
2196266	WORD	wordpools/wasnorm_wordpool.txt	LTP108	ltpFR	4	13	-1	FUDGE	611	n/a	n/a	-1	1.0	1.0	1	upper	Verdana.ttf
2200290	WORD	wordpools/wasnorm_wordpool.txt	LTP108	ltpFR	4	13	-1	REFEREE	1178	n/a	n/a	-1	1.0	1.0	1	upper	Verdana.ttf
2205948	REC_START	n/a	LTP108	ltpFR	4	13	n/a	n/a	n/a	n/a	n/a	n/a	n/a	n/a	n/a	n/a	n/a
2206402	REC_WORD	wordpools/wasnorm_wordpool.txt	LTP108	ltpFR	4	13	-1	FUDGE	611	n/a	n/a	-1	n/a	n/a	n/a	n/a	n/a
2207045	REC_WORD	wordpools/wasnorm_wordpool.txt	LTP108	ltpFR	4	13	-1	REFEREE	1178	n/a	n/a	-1	n/a	n/a	n/a	n/a	n/a
2208043	REC_WORD	wordpools/wasnorm_wordpool.txt	LTP108	ltpFR	4	13	-1	FOOTBALL	591	n/a	n/a	-1	n/a	n/a	n/a	n/a	n/a
2208806	REC_WORD	wordpools/wasnorm_wordpool.txt	LTP108	ltpFR	4	13	-1	CONCRETE	361	n/a	n/a	-1	n/a	n/a	n/a	n/a	n/a
2210617	REC_WORD	wordpools/wasnorm_wordpool.txt	LTP108	ltpFR	4	13	-1	TUBE	1516	n/a	n/a	-1	n/a	n/a	n/a	n/a	n/a
2211450	REC_WORD	wordpools/wasnorm_wordpool.txt	LTP108	ltpFR	4	13	-1	VEIN	1554	n/a	n/a	-1	n/a	n/a	n/a	n/a	n/a
2212059	REC_WORD	wordpools/wasnorm_wordpool.txt	LTP108	ltpFR	4	13	-1	CANOE	233	n/a	n/a	-1	n/a	n/a	n/a	n/a	n/a
2212927	REC_WORD	wordpools/wasnorm_wordpool.txt	LTP108	ltpFR	4	13	-1	GROOM	665	n/a	n/a	-1	n/a	n/a	n/a	n/a	n/a
2213590	REC_WORD	wordpools/wasnorm_wordpool.txt	LTP108	ltpFR	4	13	-1	GIRAFFE	636	n/a	n/a	-1	n/a	n/a	n/a	n/a	n/a
2214598	REC_WORD	wordpools/wasnorm_wordpool.txt	LTP108	ltpFR	4	13	-1	BANDANNA	80	n/a	n/a	-1	n/a	n/a	n/a	n/a	n/a
2216229	REC_WORD	wordpools/wasnorm_wordpool.txt	LTP108	ltpFR	4	13	-1	SPINACH	1352	n/a	n/a	-1	n/a	n/a	n/a	n/a	n/a
2216973	REC_WORD	wordpools/wasnorm_wordpool.txt	LTP108	ltpFR	4	13	-1	CAULIFLOWER	262	n/a	n/a	-1	n/a	n/a	n/a	n/a	n/a
2217941	REC_WORD	wordpools/wasnorm_wordpool.txt	LTP108	ltpFR	4	13	-1	PASTRY	1022	n/a	n/a	-1	n/a	n/a	n/a	n/a	n/a
2220036	REC_WORD	wordpools/wasnorm_wordpool.txt	LTP108	ltpFR	4	13	-1	BRUSH	182	n/a	n/a	-1	n/a	n/a	n/a	n/a	n/a
2236379	REC_WORD	wordpools/wasnorm_wordpool.txt	LTP108	ltpFR	4	13	-1	REFEREE	1178	n/a	n/a	-1	n/a	n/a	n/a	n/a	n/a
2250581	REC_WORD	wordpools/wasnorm_wordpool.txt	LTP108	ltpFR	4	13	-1	TREE	1502	n/a	n/a	-1	n/a	n/a	n/a	n/a	n/a
2302778	WORD	wordpools/wasnorm_wordpool.txt	LTP108	ltpFR	4	14	-1	BEDROOM	111	n/a	n/a	-1	1.0	1.0	1	upper	Verdana.ttf
2306960	WORD	wordpools/wasnorm_wordpool.txt	LTP108	ltpFR	4	14	-1	JAM	748	n/a	n/a	-1	1.0	1.0	1	upper	Verdana.ttf
2310975	WORD	wordpools/wasnorm_wordpool.txt	LTP108	ltpFR	4	14	-1	COCOON	339	n/a	n/a	-1	1.0	1.0	1	upper	Verdana.ttf
2315032	WORD	wordpools/wasnorm_wordpool.txt	LTP108	ltpFR	4	14	-1	FLY	586	n/a	n/a	-1	1.0	1.0	1	upper	Verdana.ttf
2319081	WORD	wordpools/wasnorm_wordpool.txt	LTP108	ltpFR	4	14	-1	TURNIP	1521	n/a	n/a	-1	1.0	1.0	1	upper	Verdana.ttf
2323013	WORD	wordpools/wasnorm_wordpool.txt	LTP108	ltpFR	4	14	-1	CHERRY	293	n/a	n/a	-1	1.0	1.0	1	upper	Verdana.ttf
2326995	WORD	wordpools/wasnorm_wordpool.txt	LTP108	ltpFR	4	14	-1	CHALK	276	n/a	n/a	-1	1.0	1.0	1	upper	Verdana.ttf
2331027	WORD	wordpools/wasnorm_wordpool.txt	LTP108	ltpFR	4	14	-1	CHIEF	298	n/a	n/a	-1	1.0	1.0	1	upper	Verdana.ttf
2335109	WORD	wordpools/wasnorm_wordpool.txt	LTP108	ltpFR	4	14	-1	BLACKBERRY	132	n/a	n/a	-1	1.0	1.0	1	upper	Verdana.ttf
2339174	WORD	wordpools/wasnorm_wordpool.txt	LTP108	ltpFR	4	14	-1	WITCH	1617	n/a	n/a	-1	1.0	1.0	1	upper	Verdana.ttf
2343214	WORD	wordpools/wasnorm_wordpool.txt	LTP108	ltpFR	4	14	-1	COLUMN	350	n/a	n/a	-1	1.0	1.0	1	upper	Verdana.ttf
2347213	WORD	wordpools/wasnorm_wordpool.txt	LTP108	ltpFR	4	14	-1	COWBOY	395	n/a	n/a	-1	1.0	1.0	1	upper	Verdana.ttf
2351344	WORD	wordpools/wasnorm_wordpool.txt	LTP108	ltpFR	4	14	-1	SALMON	1227	n/a	n/a	-1	1.0	1.0	1	upper	Verdana.ttf
2355418	WORD	wordpools/wasnorm_wordpool.txt	LTP108	ltpFR	4	14	-1	TUNA	1518	n/a	n/a	-1	1.0	1.0	1	upper	Verdana.ttf
2359308	WORD	wordpools/wasnorm_wordpool.txt	LTP108	ltpFR	4	14	-1	LOFT	840	n/a	n/a	-1	1.0	1.0	1	upper	Verdana.ttf
2363174	WORD	wordpools/wasnorm_wordpool.txt	LTP108	ltpFR	4	14	-1	DAD	433	n/a	n/a	-1	1.0	1.0	1	upper	Verdana.ttf
2368964	REC_START	n/a	LTP108	ltpFR	4	14	n/a	n/a	n/a	n/a	n/a	n/a	n/a	n/a	n/a	n/a	n/a
2369398	REC_WORD	wordpools/wasnorm_wordpool.txt	LTP108	ltpFR	4	14	-1	LOFT	840	n/a	n/a	-1	n/a	n/a	n/a	n/a	n/a
2370376	REC_WORD	wordpools/wasnorm_wordpool.txt	LTP108	ltpFR	4	14	-1	DAD	433	n/a	n/a	-1	n/a	n/a	n/a	n/a	n/a
2371139	REC_WORD	wordpools/wasnorm_wordpool.txt	LTP108	ltpFR	4	14	-1	BEDROOM	111	n/a	n/a	-1	n/a	n/a	n/a	n/a	n/a
2372635	REC_WORD	wordpools/wasnorm_wordpool.txt	LTP108	ltpFR	4	14	-1	TURNIP	1521	n/a	n/a	-1	n/a	n/a	n/a	n/a	n/a
2374591	REC_WORD	wordpools/wasnorm_wordpool.txt	LTP108	ltpFR	4	14	-1	WITCH	1617	n/a	n/a	-1	n/a	n/a	n/a	n/a	n/a
2376063	REC_WORD	wordpools/wasnorm_wordpool.txt	LTP108	ltpFR	4	14	-1	COLUMN	350	n/a	n/a	-1	n/a	n/a	n/a	n/a	n/a
2379295	REC_WORD	wordpools/wasnorm_wordpool.txt	LTP108	ltpFR	4	14	-1	SALMON	1227	n/a	n/a	-1	n/a	n/a	n/a	n/a	n/a
2380243	REC_WORD	wordpools/wasnorm_wordpool.txt	LTP108	ltpFR	4	14	-1	COWBOY	395	n/a	n/a	-1	n/a	n/a	n/a	n/a	n/a
2381056	REC_WORD	wordpools/wasnorm_wordpool.txt	LTP108	ltpFR	4	14	-1	TUNA	1518	n/a	n/a	-1	n/a	n/a	n/a	n/a	n/a
2384474	REC_WORD	wordpools/wasnorm_wordpool.txt	LTP108	ltpFR	4	14	-1	BLACKBERRY	132	n/a	n/a	-1	n/a	n/a	n/a	n/a	n/a
2385959	REC_WORD	wordpools/wasnorm_wordpool.txt	LTP108	ltpFR	4	14	-1	FLY	586	n/a	n/a	-1	n/a	n/a	n/a	n/a	n/a
2386768	REC_WORD	wordpools/wasnorm_wordpool.txt	LTP108	ltpFR	4	14	-1	COCOON	339	n/a	n/a	-1	n/a	n/a	n/a	n/a	n/a
2389427	REC_WORD	wordpools/wasnorm_wordpool.txt	LTP108	ltpFR	4	14	-1	JAM	748	n/a	n/a	-1	n/a	n/a	n/a	n/a	n/a
2395878	REC_WORD	wordpools/wasnorm_wordpool.txt	LTP108	ltpFR	4	14	-1	CHALK	276	n/a	n/a	-1	n/a	n/a	n/a	n/a	n/a
2403316	REC_WORD	wordpools/wasnorm_wordpool.txt	LTP108	ltpFR	4	14	n/a	OFFICER	973	n/a	n/a	n/a	n/a	n/a	n/a	n/a	n/a
2411003	REC_WORD	wordpools/wasnorm_wordpool.txt	LTP108	ltpFR	4	14	-1	CHERRY	293	n/a	n/a	-1	n/a	n/a	n/a	n/a	n/a
2455416	WORD	wordpools/wasnorm_wordpool.txt	LTP108	ltpFR	4	15	1	ICE	730	n/a	n/a	0	0.57763671875	0.412841796875	1	upper	amplitud.ttf
2459323	WORD	wordpools/wasnorm_wordpool.txt	LTP108	ltpFR	4	15	1	DANCER	437	n/a	n/a	1	0.57763671875	0.412841796875	1	upper	amplitud.ttf
2463496	WORD	wordpools/wasnorm_wordpool.txt	LTP108	ltpFR	4	15	1	MAID	856	n/a	n/a	1	0.57763671875	0.412841796875	1	upper	amplitud.ttf
2467553	WORD	wordpools/wasnorm_wordpool.txt	LTP108	ltpFR	4	15	1	DUSTPAN	509	n/a	n/a	0	0.57763671875	0.412841796875	1	upper	amplitud.ttf
2471427	WORD	wordpools/wasnorm_wordpool.txt	LTP108	ltpFR	4	15	1	DEODORANT	448	n/a	n/a	0	0.57763671875	0.412841796875	1	upper	amplitud.ttf
2475392	WORD	wordpools/wasnorm_wordpool.txt	LTP108	ltpFR	4	15	1	AIRCRAFT	11	n/a	n/a	0	0.57763671875	0.412841796875	1	upper	amplitud.ttf
2479257	WORD	wordpools/wasnorm_wordpool.txt	LTP108	ltpFR	4	15	1	LADY	794	n/a	n/a	1	0.57763671875	0.412841796875	1	upper	amplitud.ttf
2483414	WORD	wordpools/wasnorm_wordpool.txt	LTP108	ltpFR	4	15	1	PHOTO	1055	n/a	n/a	0	0.57763671875	0.412841796875	1	upper	amplitud.ttf
2487413	WORD	wordpools/wasnorm_wordpool.txt	LTP108	ltpFR	4	15	1	DRAWING	494	n/a	n/a	0	0.57763671875	0.412841796875	1	upper	amplitud.ttf
2491445	WORD	wordpools/wasnorm_wordpool.txt	LTP108	ltpFR	4	15	1	SKUNK	1321	n/a	n/a	1	0.57763671875	0.412841796875	1	upper	amplitud.ttf
2495552	WORD	wordpools/wasnorm_wordpool.txt	LTP108	ltpFR	4	15	1	NEWSSTAND	949	n/a	n/a	0	0.57763671875	0.412841796875	1	upper	amplitud.ttf
2499734	WORD	wordpools/wasnorm_wordpool.txt	LTP108	ltpFR	4	15	1	ROBIN	1199	n/a	n/a	1	0.57763671875	0.412841796875	1	upper	amplitud.ttf
2503882	WORD	wordpools/wasnorm_wordpool.txt	LTP108	ltpFR	4	15	1	PIGEON	1065	n/a	n/a	1	0.57763671875	0.412841796875	1	upper	amplitud.ttf
2507706	WORD	wordpools/wasnorm_wordpool.txt	LTP108	ltpFR	4	15	1	ERASER	538	n/a	n/a	0	0.57763671875	0.412841796875	1	upper	amplitud.ttf
2511696	WORD	wordpools/wasnorm_wordpool.txt	LTP108	ltpFR	4	15	1	HOOP	716	n/a	n/a	0	0.57763671875	0.412841796875	1	upper	amplitud.ttf
2515903	WORD	wordpools/wasnorm_wordpool.txt	LTP108	ltpFR	4	15	1	GLUE	643	n/a	n/a	0	0.57763671875	0.412841796875	1	upper	amplitud.ttf
2521893	REC_START	n/a	LTP108	ltpFR	4	15	n/a	n/a	n/a	n/a	n/a	n/a	n/a	n/a	n/a	n/a	n/a
2522646	REC_WORD	wordpools/wasnorm_wordpool.txt	LTP108	ltpFR	4	15	1	HOOP	716	n/a	n/a	0	n/a	n/a	n/a	n/a	n/a
2523379	REC_WORD	wordpools/wasnorm_wordpool.txt	LTP108	ltpFR	4	15	1	GLUE	643	n/a	n/a	0	n/a	n/a	n/a	n/a	n/a
2524517	REC_WORD	wordpools/wasnorm_wordpool.txt	LTP108	ltpFR	4	15	1	DANCER	437	n/a	n/a	1	n/a	n/a	n/a	n/a	n/a
2526203	REC_WORD	wordpools/wasnorm_wordpool.txt	LTP108	ltpFR	4	15	1	DUSTPAN	509	n/a	n/a	0	n/a	n/a	n/a	n/a	n/a
2527246	REC_WORD	wordpools/wasnorm_wordpool.txt	LTP108	ltpFR	4	15	1	DEODORANT	448	n/a	n/a	0	n/a	n/a	n/a	n/a	n/a
2529101	REC_WORD	wordpools/wasnorm_wordpool.txt	LTP108	ltpFR	4	15	1	SKUNK	1321	n/a	n/a	1	n/a	n/a	n/a	n/a	n/a
2530009	REC_WORD	wordpools/wasnorm_wordpool.txt	LTP108	ltpFR	4	15	1	ROBIN	1199	n/a	n/a	1	n/a	n/a	n/a	n/a	n/a
2530668	REC_WORD	wordpools/wasnorm_wordpool.txt	LTP108	ltpFR	4	15	1	PIGEON	1065	n/a	n/a	1	n/a	n/a	n/a	n/a	n/a
2533940	REC_WORD	wordpools/wasnorm_wordpool.txt	LTP108	ltpFR	4	15	1	AIRCRAFT	11	n/a	n/a	0	n/a	n/a	n/a	n/a	n/a
2537822	REC_WORD	wordpools/wasnorm_wordpool.txt	LTP108	ltpFR	4	15	1	ICE	730	n/a	n/a	0	n/a	n/a	n/a	n/a	n/a
2540785	REC_WORD	wordpools/wasnorm_wordpool.txt	LTP108	ltpFR	4	15	1	MAID	856	n/a	n/a	1	n/a	n/a	n/a	n/a	n/a
2552324	REC_WORD	wordpools/wasnorm_wordpool.txt	LTP108	ltpFR	4	15	1	DRAWING	494	n/a	n/a	0	n/a	n/a	n/a	n/a	n/a
2552897	REC_WORD	wordpools/wasnorm_wordpool.txt	LTP108	ltpFR	4	15	1	ERASER	538	n/a	n/a	0	n/a	n/a	n/a	n/a	n/a
2561069	REC_WORD	wordpools/wasnorm_wordpool.txt	LTP108	ltpFR	4	15	n/a	PICTURE	1061	n/a	n/a	n/a	n/a	n/a	n/a	n/a	n/a
2572553	REC_WORD	wordpools/wasnorm_wordpool.txt	LTP108	ltpFR	4	15	1	NEWSSTAND	949	n/a	n/a	0	n/a	n/a	n/a	n/a	n/a
2605671	WORD	wordpools/wasnorm_wordpool.txt	LTP108	ltpFR	4	16	1	FUR	615	n/a	n/a	1	0.57763671875	0.412841796875	1	upper	amplitud.ttf
2609653	WORD	wordpools/wasnorm_wordpool.txt	LTP108	ltpFR	4	16	1	ICING	732	n/a	n/a	0	0.57763671875	0.412841796875	1	upper	amplitud.ttf
2613793	WORD	wordpools/wasnorm_wordpool.txt	LTP108	ltpFR	4	16	1	CHOCOLATE	306	n/a	n/a	0	0.57763671875	0.412841796875	1	upper	amplitud.ttf
2617925	WORD	wordpools/wasnorm_wordpool.txt	LTP108	ltpFR	4	16	1	DILL	465	n/a	n/a	1	0.57763671875	0.412841796875	1	upper	amplitud.ttf
2622090	WORD	wordpools/wasnorm_wordpool.txt	LTP108	ltpFR	4	16	1	TYPIST	1532	n/a	n/a	1	0.57763671875	0.412841796875	1	upper	amplitud.ttf
2626289	WORD	wordpools/wasnorm_wordpool.txt	LTP108	ltpFR	4	16	0	SHEPHERD	1283	n/a	n/a	1	0.422607421875	0.5869140625	0	lower	zerothre.ttf
2630321	WORD	wordpools/wasnorm_wordpool.txt	LTP108	ltpFR	4	16	0	WIDOW	1608	n/a	n/a	0	0.422607421875	0.5869140625	0	lower	zerothre.ttf
2634177	WORD	wordpools/wasnorm_wordpool.txt	LTP108	ltpFR	4	16	0	COYOTE	396	n/a	n/a	1	0.422607421875	0.5869140625	0	lower	zerothre.ttf
2638159	WORD	wordpools/wasnorm_wordpool.txt	LTP108	ltpFR	4	16	0	CLERK	321	n/a	n/a	1	0.422607421875	0.5869140625	0	lower	zerothre.ttf
2642358	WORD	wordpools/wasnorm_wordpool.txt	LTP108	ltpFR	4	16	1	SLIME	1327	n/a	n/a	0	0.57763671875	0.412841796875	1	upper	amplitud.ttf
2646240	WORD	wordpools/wasnorm_wordpool.txt	LTP108	ltpFR	4	16	1	GOOSE	649	n/a	n/a	1	0.57763671875	0.412841796875	1	upper	amplitud.ttf
2650089	WORD	wordpools/wasnorm_wordpool.txt	LTP108	ltpFR	4	16	1	MARS	873	n/a	n/a	1	0.57763671875	0.412841796875	1	upper	amplitud.ttf
2654212	WORD	wordpools/wasnorm_wordpool.txt	LTP108	ltpFR	4	16	0	ASTRONAUT	51	n/a	n/a	1	0.422607421875	0.5869140625	0	lower	zerothre.ttf
2658169	WORD	wordpools/wasnorm_wordpool.txt	LTP108	ltpFR	4	16	0	GEM	629	n/a	n/a	0	0.422607421875	0.5869140625	0	lower	zerothre.ttf
2662084	WORD	wordpools/wasnorm_wordpool.txt	LTP108	ltpFR	4	16	0	SAPPHIRE	1234	n/a	n/a	1	0.422607421875	0.5869140625	0	lower	zerothre.ttf
2665916	WORD	wordpools/wasnorm_wordpool.txt	LTP108	ltpFR	4	16	0	WHISKERS	1605	n/a	n/a	0	0.422607421875	0.5869140625	0	lower	zerothre.ttf
2671665	REC_START	n/a	LTP108	ltpFR	4	16	n/a	n/a	n/a	n/a	n/a	n/a	n/a	n/a	n/a	n/a	n/a
2671879	REC_WORD_VV	wordpools/wasnorm_wordpool.txt	LTP108	ltpFR	4	16	n/a	<>	-1	n/a	n/a	n/a	n/a	n/a	n/a	n/a	n/a
2673501	REC_WORD	wordpools/wasnorm_wordpool.txt	LTP108	ltpFR	4	16	0	WHISKERS	1605	n/a	n/a	0	n/a	n/a	n/a	n/a	n/a
2674369	REC_WORD	wordpools/wasnorm_wordpool.txt	LTP108	ltpFR	4	16	0	ASTRONAUT	51	n/a	n/a	1	n/a	n/a	n/a	n/a	n/a
2675302	REC_WORD	wordpools/wasnorm_wordpool.txt	LTP108	ltpFR	4	16	0	GEM	629	n/a	n/a	0	n/a	n/a	n/a	n/a	n/a
2676673	REC_WORD	wordpools/wasnorm_wordpool.txt	LTP108	ltpFR	4	16	0	SAPPHIRE	1234	n/a	n/a	1	n/a	n/a	n/a	n/a	n/a
2692168	REC_WORD	wordpools/wasnorm_wordpool.txt	LTP108	ltpFR	4	16	0	SHEPHERD	1283	n/a	n/a	1	n/a	n/a	n/a	n/a	n/a
2693685	REC_WORD	wordpools/wasnorm_wordpool.txt	LTP108	ltpFR	4	16	0	WIDOW	1608	n/a	n/a	0	n/a	n/a	n/a	n/a	n/a
2695760	REC_WORD	wordpools/wasnorm_wordpool.txt	LTP108	ltpFR	4	16	0	COYOTE	396	n/a	n/a	1	n/a	n/a	n/a	n/a	n/a
2699616	REC_WORD	wordpools/wasnorm_wordpool.txt	LTP108	ltpFR	4	16	1	DILL	465	n/a	n/a	1	n/a	n/a	n/a	n/a	n/a
2707239	REC_WORD	wordpools/wasnorm_wordpool.txt	LTP108	ltpFR	4	16	0	CLERK	321	n/a	n/a	1	n/a	n/a	n/a	n/a	n/a
2714622	REC_WORD	wordpools/wasnorm_wordpool.txt	LTP108	ltpFR	4	16	1	FUR	615	n/a	n/a	1	n/a	n/a	n/a	n/a	n/a
2715251	REC_WORD	wordpools/wasnorm_wordpool.txt	LTP108	ltpFR	4	16	1	ICING	732	n/a	n/a	0	n/a	n/a	n/a	n/a	n/a
2716074	REC_WORD	wordpools/wasnorm_wordpool.txt	LTP108	ltpFR	4	16	1	CHOCOLATE	306	n/a	n/a	0	n/a	n/a	n/a	n/a	n/a
2764482	REC_START	n/a	LTP108	ltpFR	4	1	n/a	n/a	n/a	n/a	n/a	n/a	n/a	n/a	n/a	n/a	n/a
2764523	RECOG_LURE	n/a	LTP108	ltpFR	4	1	n/a	SCARECROW	1245	0	5	n/a	n/a	n/a	n/a	n/a	n/a
2766283	RECOG_RESP	n/a	LTP108	ltpFR	4	1	n/a	SCARECROW	1245	0	n/a	n/a	n/a	n/a	n/a	n/a	n/a
2767320	RECOG_CONF	n/a	LTP108	ltpFR	4	1	n/a	SCARECROW	1245	n/a	5	n/a	n/a	n/a	n/a	n/a	n/a
2768888	RECOG_TARGET	n/a	LTP108	ltpFR	4	1	1	SAUSAGE	1238	1	5	0	n/a	n/a	n/a	n/a	n/a
2770004	RECOG_RESP	n/a	LTP108	ltpFR	4	1	1	SAUSAGE	1238	1	n/a	0	n/a	n/a	n/a	n/a	n/a
2770743	RECOG_CONF	n/a	LTP108	ltpFR	4	1	1	SAUSAGE	1238	n/a	5	0	n/a	n/a	n/a	n/a	n/a
2772187	RECOG_LURE	n/a	LTP108	ltpFR	4	1	n/a	LEVER	815	0	4	n/a	n/a	n/a	n/a	n/a	n/a
2773412	RECOG_RESP	n/a	LTP108	ltpFR	4	1	n/a	LEVER	815	0	n/a	n/a	n/a	n/a	n/a	n/a	n/a
2774514	RECOG_CONF	n/a	LTP108	ltpFR	4	1	n/a	LEVER	815	n/a	4	n/a	n/a	n/a	n/a	n/a	n/a
2776111	RECOG_TARGET	n/a	LTP108	ltpFR	4	1	1	GOOSE	649	1	5	1	n/a	n/a	n/a	n/a	n/a
2776839	RECOG_RESP	n/a	LTP108	ltpFR	4	1	1	GOOSE	649	1	n/a	1	n/a	n/a	n/a	n/a	n/a
2777537	RECOG_CONF	n/a	LTP108	ltpFR	4	1	1	GOOSE	649	n/a	5	1	n/a	n/a	n/a	n/a	n/a
2778993	RECOG_TARGET	n/a	LTP108	ltpFR	4	1	1	MANSION	864	1	1	0	n/a	n/a	n/a	n/a	n/a
2779922	RECOG_RESP	n/a	LTP108	ltpFR	4	1	1	MANSION	864	1	n/a	0	n/a	n/a	n/a	n/a	n/a
2780660	RECOG_CONF	n/a	LTP108	ltpFR	4	1	1	MANSION	864	n/a	1	0	n/a	n/a	n/a	n/a	n/a
2782142	RECOG_TARGET	n/a	LTP108	ltpFR	4	1	0	COYOTE	396	1	5	1	n/a	n/a	n/a	n/a	n/a
2782785	RECOG_RESP	n/a	LTP108	ltpFR	4	1	0	COYOTE	396	1	n/a	1	n/a	n/a	n/a	n/a	n/a
2783474	RECOG_CONF	n/a	LTP108	ltpFR	4	1	0	COYOTE	396	n/a	5	1	n/a	n/a	n/a	n/a	n/a
2784957	RECOG_TARGET	n/a	LTP108	ltpFR	4	1	-1	CHIEF	298	0	1	-1	n/a	n/a	n/a	n/a	n/a
2786457	RECOG_RESP	n/a	LTP108	ltpFR	4	1	-1	CHIEF	298	0	n/a	-1	n/a	n/a	n/a	n/a	n/a
2787215	RECOG_CONF	n/a	LTP108	ltpFR	4	1	-1	CHIEF	298	n/a	1	-1	n/a	n/a	n/a	n/a	n/a
2788756	RECOG_TARGET	n/a	LTP108	ltpFR	4	1	1	BRICK	172	1	5	0	n/a	n/a	n/a	n/a	n/a
2789610	RECOG_RESP	n/a	LTP108	ltpFR	4	1	1	BRICK	172	1	n/a	0	n/a	n/a	n/a	n/a	n/a
2790268	RECOG_CONF	n/a	LTP108	ltpFR	4	1	1	BRICK	172	n/a	5	0	n/a	n/a	n/a	n/a	n/a
2791739	RECOG_TARGET	n/a	LTP108	ltpFR	4	1	0	GUARD	667	1	4	1	n/a	n/a	n/a	n/a	n/a
2792483	RECOG_RESP	n/a	LTP108	ltpFR	4	1	0	GUARD	667	1	n/a	1	n/a	n/a	n/a	n/a	n/a
2793271	RECOG_CONF	n/a	LTP108	ltpFR	4	1	0	GUARD	667	n/a	4	1	n/a	n/a	n/a	n/a	n/a
2794587	RECOG_LURE	n/a	LTP108	ltpFR	4	1	n/a	CEMETERY	269	0	n/a	n/a	n/a	n/a	n/a	n/a	n/a
2795486	RECOG_RESP	n/a	LTP108	ltpFR	4	1	n/a	CEMETERY	269	0	n/a	n/a	n/a	n/a	n/a	n/a	n/a
2797978	RECOG_TARGET	n/a	LTP108	ltpFR	4	1	1	SWIMMER	1420	1	5	1	n/a	n/a	n/a	n/a	n/a
2798684	RECOG_RESP	n/a	LTP108	ltpFR	4	1	1	SWIMMER	1420	1	n/a	1	n/a	n/a	n/a	n/a	n/a
2799328	RECOG_CONF	n/a	LTP108	ltpFR	4	1	1	SWIMMER	1420	n/a	5	1	n/a	n/a	n/a	n/a	n/a
2800727	RECOG_TARGET	n/a	LTP108	ltpFR	4	1	-1	VIOLIN	1571	1	5	-1	n/a	n/a	n/a	n/a	n/a
2801378	RECOG_RESP	n/a	LTP108	ltpFR	4	1	-1	VIOLIN	1571	1	n/a	-1	n/a	n/a	n/a	n/a	n/a
2802071	RECOG_CONF	n/a	LTP108	ltpFR	4	1	-1	VIOLIN	1571	n/a	5	-1	n/a	n/a	n/a	n/a	n/a
2803467	RECOG_LURE	n/a	LTP108	ltpFR	4	1	n/a	HERB	704	1	4	n/a	n/a	n/a	n/a	n/a	n/a
2805055	RECOG_RESP	n/a	LTP108	ltpFR	4	1	n/a	HERB	704	1	n/a	n/a	n/a	n/a	n/a	n/a	n/a
2806022	RECOG_CONF	n/a	LTP108	ltpFR	4	1	n/a	HERB	704	n/a	4	n/a	n/a	n/a	n/a	n/a	n/a
2807333	RECOG_TARGET	n/a	LTP108	ltpFR	4	1	-1	BALL	73	1	5	-1	n/a	n/a	n/a	n/a	n/a
2808043	RECOG_RESP	n/a	LTP108	ltpFR	4	1	-1	BALL	73	1	n/a	-1	n/a	n/a	n/a	n/a	n/a
2808736	RECOG_CONF	n/a	LTP108	ltpFR	4	1	-1	BALL	73	n/a	5	-1	n/a	n/a	n/a	n/a	n/a
2810123	RECOG_LURE	n/a	LTP108	ltpFR	4	1	n/a	CHEEK	287	1	1	n/a	n/a	n/a	n/a	n/a	n/a
2812592	RECOG_RESP	n/a	LTP108	ltpFR	4	1	n/a	CHEEK	287	1	n/a	n/a	n/a	n/a	n/a	n/a	n/a
2813256	RECOG_CONF	n/a	LTP108	ltpFR	4	1	n/a	CHEEK	287	n/a	1	n/a	n/a	n/a	n/a	n/a	n/a
2814688	RECOG_TARGET	n/a	LTP108	ltpFR	4	1	1	DUSTPAN	509	1	4	0	n/a	n/a	n/a	n/a	n/a
2816509	RECOG_RESP	n/a	LTP108	ltpFR	4	1	1	DUSTPAN	509	1	n/a	0	n/a	n/a	n/a	n/a	n/a
2817217	RECOG_CONF	n/a	LTP108	ltpFR	4	1	1	DUSTPAN	509	n/a	4	0	n/a	n/a	n/a	n/a	n/a
2818645	RECOG_TARGET	n/a	LTP108	ltpFR	4	1	-1	NOTEBOOK	959	1	5	-1	n/a	n/a	n/a	n/a	n/a
2819352	RECOG_RESP	n/a	LTP108	ltpFR	4	1	-1	NOTEBOOK	959	1	n/a	-1	n/a	n/a	n/a	n/a	n/a
2819951	RECOG_CONF	n/a	LTP108	ltpFR	4	1	-1	NOTEBOOK	959	n/a	5	-1	n/a	n/a	n/a	n/a	n/a
2821403	RECOG_TARGET	n/a	LTP108	ltpFR	4	1	1	MONEY	908	1	5	0	n/a	n/a	n/a	n/a	n/a
2822560	RECOG_RESP	n/a	LTP108	ltpFR	4	1	1	MONEY	908	1	n/a	0	n/a	n/a	n/a	n/a	n/a
2823273	RECOG_CONF	n/a	LTP108	ltpFR	4	1	1	MONEY	908	n/a	5	0	n/a	n/a	n/a	n/a	n/a
2824736	RECOG_TARGET	n/a	LTP108	ltpFR	4	1	0	MOON	914	1	5	1	n/a	n/a	n/a	n/a	n/a
2825723	RECOG_RESP	n/a	LTP108	ltpFR	4	1	0	MOON	914	1	n/a	1	n/a	n/a	n/a	n/a	n/a
2826346	RECOG_CONF	n/a	LTP108	ltpFR	4	1	0	MOON	914	n/a	5	1	n/a	n/a	n/a	n/a	n/a
2827784	RECOG_TARGET	n/a	LTP108	ltpFR	4	1	1	DIAL	457	1	1	1	n/a	n/a	n/a	n/a	n/a
2829220	RECOG_RESP	n/a	LTP108	ltpFR	4	1	1	DIAL	457	1	n/a	1	n/a	n/a	n/a	n/a	n/a
2829848	RECOG_CONF	n/a	LTP108	ltpFR	4	1	1	DIAL	457	n/a	1	1	n/a	n/a	n/a	n/a	n/a
2833601	REC_START	n/a	LTP108	ltpFR	4	2	n/a	n/a	n/a	n/a	n/a	n/a	n/a	n/a	n/a	n/a	n/a
2833632	RECOG_TARGET	n/a	LTP108	ltpFR	4	2	0	JELLY	755	1	5	0	n/a	n/a	n/a	n/a	n/a
2834354	RECOG_RESP	n/a	LTP108	ltpFR	4	2	0	JELLY	755	1	n/a	0	n/a	n/a	n/a	n/a	n/a
2835053	RECOG_CONF	n/a	LTP108	ltpFR	4	2	0	JELLY	755	n/a	5	0	n/a	n/a	n/a	n/a	n/a
2836414	RECOG_TARGET	n/a	LTP108	ltpFR	4	2	0	INMATE	738	0	1	0	n/a	n/a	n/a	n/a	n/a
2837457	RECOG_RESP	n/a	LTP108	ltpFR	4	2	0	INMATE	738	0	n/a	0	n/a	n/a	n/a	n/a	n/a
2838219	RECOG_CONF	n/a	LTP108	ltpFR	4	2	0	INMATE	738	n/a	1	0	n/a	n/a	n/a	n/a	n/a
2839580	RECOG_TARGET	n/a	LTP108	ltpFR	4	2	0	STREAM	1392	1	5	1	n/a	n/a	n/a	n/a	n/a
2840216	RECOG_RESP	n/a	LTP108	ltpFR	4	2	0	STREAM	1392	1	n/a	1	n/a	n/a	n/a	n/a	n/a
2840919	RECOG_CONF	n/a	LTP108	ltpFR	4	2	0	STREAM	1392	n/a	5	1	n/a	n/a	n/a	n/a	n/a
2842287	RECOG_TARGET	n/a	LTP108	ltpFR	4	2	-1	SPINACH	1352	1	5	-1	n/a	n/a	n/a	n/a	n/a
2843064	RECOG_RESP	n/a	LTP108	ltpFR	4	2	-1	SPINACH	1352	1	n/a	-1	n/a	n/a	n/a	n/a	n/a
2843623	RECOG_CONF	n/a	LTP108	ltpFR	4	2	-1	SPINACH	1352	n/a	5	-1	n/a	n/a	n/a	n/a	n/a
2845061	RECOG_TARGET	n/a	LTP108	ltpFR	4	2	0	SPOOL	1356	1	5	0	n/a	n/a	n/a	n/a	n/a
2846521	RECOG_RESP	n/a	LTP108	ltpFR	4	2	0	SPOOL	1356	1	n/a	0	n/a	n/a	n/a	n/a	n/a
2847065	RECOG_CONF	n/a	LTP108	ltpFR	4	2	0	SPOOL	1356	n/a	5	0	n/a	n/a	n/a	n/a	n/a
2848451	RECOG_LURE	n/a	LTP108	ltpFR	4	2	n/a	TIMBER	1469	0	5	n/a	n/a	n/a	n/a	n/a	n/a
2849555	RECOG_RESP	n/a	LTP108	ltpFR	4	2	n/a	TIMBER	1469	0	n/a	n/a	n/a	n/a	n/a	n/a	n/a
2850238	RECOG_CONF	n/a	LTP108	ltpFR	4	2	n/a	TIMBER	1469	n/a	5	n/a	n/a	n/a	n/a	n/a	n/a
2851625	RECOG_TARGET	n/a	LTP108	ltpFR	4	2	0	PLIERS	1089	1	5	0	n/a	n/a	n/a	n/a	n/a
2852428	RECOG_RESP	n/a	LTP108	ltpFR	4	2	0	PLIERS	1089	1	n/a	0	n/a	n/a	n/a	n/a	n/a
2853052	RECOG_CONF	n/a	LTP108	ltpFR	4	2	0	PLIERS	1089	n/a	5	0	n/a	n/a	n/a	n/a	n/a
2854508	RECOG_TARGET	n/a	LTP108	ltpFR	4	2	-1	CLIPPERS	324	0	2	-1	n/a	n/a	n/a	n/a	n/a
2855815	RECOG_RESP	n/a	LTP108	ltpFR	4	2	-1	CLIPPERS	324	0	n/a	-1	n/a	n/a	n/a	n/a	n/a
2856623	RECOG_CONF	n/a	LTP108	ltpFR	4	2	-1	CLIPPERS	324	n/a	2	-1	n/a	n/a	n/a	n/a	n/a
2858015	RECOG_TARGET	n/a	LTP108	ltpFR	4	2	0	SALESMAN	1225	1	5	1	n/a	n/a	n/a	n/a	n/a
2858938	RECOG_RESP	n/a	LTP108	ltpFR	4	2	0	SALESMAN	1225	1	n/a	1	n/a	n/a	n/a	n/a	n/a
2859766	RECOG_CONF	n/a	LTP108	ltpFR	4	2	0	SALESMAN	1225	n/a	5	1	n/a	n/a	n/a	n/a	n/a
2861180	RECOG_TARGET	n/a	LTP108	ltpFR	4	2	0	PAWN	1030	1	5	0	n/a	n/a	n/a	n/a	n/a
2861906	RECOG_RESP	n/a	LTP108	ltpFR	4	2	0	PAWN	1030	1	n/a	0	n/a	n/a	n/a	n/a	n/a
2862590	RECOG_CONF	n/a	LTP108	ltpFR	4	2	0	PAWN	1030	n/a	5	0	n/a	n/a	n/a	n/a	n/a
2863896	RECOG_TARGET	n/a	LTP108	ltpFR	4	2	0	ELEVATOR	524	1	5	1	n/a	n/a	n/a	n/a	n/a
2864795	RECOG_RESP	n/a	LTP108	ltpFR	4	2	0	ELEVATOR	524	1	n/a	1	n/a	n/a	n/a	n/a	n/a
2865354	RECOG_CONF	n/a	LTP108	ltpFR	4	2	0	ELEVATOR	524	n/a	5	1	n/a	n/a	n/a	n/a	n/a
2866762	RECOG_TARGET	n/a	LTP108	ltpFR	4	2	1	UTENSIL	1542	0	2	0	n/a	n/a	n/a	n/a	n/a
2868157	RECOG_RESP	n/a	LTP108	ltpFR	4	2	1	UTENSIL	1542	0	n/a	0	n/a	n/a	n/a	n/a	n/a
2868936	RECOG_CONF	n/a	LTP108	ltpFR	4	2	1	UTENSIL	1542	n/a	2	0	n/a	n/a	n/a	n/a	n/a
2870352	RECOG_TARGET	n/a	LTP108	ltpFR	4	2	1	TOWER	1490	1	5	1	n/a	n/a	n/a	n/a	n/a
2870981	RECOG_RESP	n/a	LTP108	ltpFR	4	2	1	TOWER	1490	1	n/a	1	n/a	n/a	n/a	n/a	n/a
2871599	RECOG_CONF	n/a	LTP108	ltpFR	4	2	1	TOWER	1490	n/a	5	1	n/a	n/a	n/a	n/a	n/a
2873101	RECOG_LURE	n/a	LTP108	ltpFR	4	2	n/a	DOVE	491	0	5	n/a	n/a	n/a	n/a	n/a	n/a
2874019	RECOG_RESP	n/a	LTP108	ltpFR	4	2	n/a	DOVE	491	0	n/a	n/a	n/a	n/a	n/a	n/a	n/a
2874682	RECOG_CONF	n/a	LTP108	ltpFR	4	2	n/a	DOVE	491	n/a	5	n/a	n/a	n/a	n/a	n/a	n/a
2876192	RECOG_TARGET	n/a	LTP108	ltpFR	4	2	0	MESSAGE	888	1	5	0	n/a	n/a	n/a	n/a	n/a
2877057	RECOG_RESP	n/a	LTP108	ltpFR	4	2	0	MESSAGE	888	1	n/a	0	n/a	n/a	n/a	n/a	n/a
2877706	RECOG_CONF	n/a	LTP108	ltpFR	4	2	0	MESSAGE	888	n/a	5	0	n/a	n/a	n/a	n/a	n/a
2879141	RECOG_TARGET	n/a	LTP108	ltpFR	4	2	1	KNUCKLE	789	1	5	0	n/a	n/a	n/a	n/a	n/a
2879926	RECOG_RESP	n/a	LTP108	ltpFR	4	2	1	KNUCKLE	789	1	n/a	0	n/a	n/a	n/a	n/a	n/a
2880619	RECOG_CONF	n/a	LTP108	ltpFR	4	2	1	KNUCKLE	789	n/a	5	0	n/a	n/a	n/a	n/a	n/a
2882015	RECOG_TARGET	n/a	LTP108	ltpFR	4	2	-1	TURNIP	1521	1	5	-1	n/a	n/a	n/a	n/a	n/a
2882664	RECOG_RESP	n/a	LTP108	ltpFR	4	2	-1	TURNIP	1521	1	n/a	-1	n/a	n/a	n/a	n/a	n/a
2883323	RECOG_CONF	n/a	LTP108	ltpFR	4	2	-1	TURNIP	1521	n/a	5	-1	n/a	n/a	n/a	n/a	n/a
2884740	RECOG_TARGET	n/a	LTP108	ltpFR	4	2	0	DRESSER	496	1	4	1	n/a	n/a	n/a	n/a	n/a
2885468	RECOG_RESP	n/a	LTP108	ltpFR	4	2	0	DRESSER	496	1	n/a	1	n/a	n/a	n/a	n/a	n/a
2886236	RECOG_CONF	n/a	LTP108	ltpFR	4	2	0	DRESSER	496	n/a	4	1	n/a	n/a	n/a	n/a	n/a
2887663	RECOG_LURE	n/a	LTP108	ltpFR	4	2	n/a	PILOT	1070	0	1	n/a	n/a	n/a	n/a	n/a	n/a
2889110	RECOG_RESP	n/a	LTP108	ltpFR	4	2	n/a	PILOT	1070	0	n/a	n/a	n/a	n/a	n/a	n/a	n/a
2889818	RECOG_CONF	n/a	LTP108	ltpFR	4	2	n/a	PILOT	1070	n/a	1	n/a	n/a	n/a	n/a	n/a	n/a
2891236	RECOG_TARGET	n/a	LTP108	ltpFR	4	2	-1	FLORIDA	582	1	5	-1	n/a	n/a	n/a	n/a	n/a
2891988	RECOG_RESP	n/a	LTP108	ltpFR	4	2	-1	FLORIDA	582	1	n/a	-1	n/a	n/a	n/a	n/a	n/a
2892632	RECOG_CONF	n/a	LTP108	ltpFR	4	2	-1	FLORIDA	582	n/a	5	-1	n/a	n/a	n/a	n/a	n/a
2896800	REC_START	n/a	LTP108	ltpFR	4	3	n/a	n/a	n/a	n/a	n/a	n/a	n/a	n/a	n/a	n/a	n/a
2896834	RECOG_TARGET	n/a	LTP108	ltpFR	4	3	1	ICE	730	1	5	0	n/a	n/a	n/a	n/a	n/a
2897553	RECOG_RESP	n/a	LTP108	ltpFR	4	3	1	ICE	730	1	n/a	0	n/a	n/a	n/a	n/a	n/a
2898152	RECOG_CONF	n/a	LTP108	ltpFR	4	3	1	ICE	730	n/a	5	0	n/a	n/a	n/a	n/a	n/a
2899467	RECOG_TARGET	n/a	LTP108	ltpFR	4	3	0	MAMMAL	861	1	5	1	n/a	n/a	n/a	n/a	n/a
2900097	RECOG_RESP	n/a	LTP108	ltpFR	4	3	0	MAMMAL	861	1	n/a	1	n/a	n/a	n/a	n/a	n/a
2900746	RECOG_CONF	n/a	LTP108	ltpFR	4	3	0	MAMMAL	861	n/a	5	1	n/a	n/a	n/a	n/a	n/a
2902074	RECOG_TARGET	n/a	LTP108	ltpFR	4	3	1	BOULDER	155	1	5	0	n/a	n/a	n/a	n/a	n/a
2903006	RECOG_RESP	n/a	LTP108	ltpFR	4	3	1	BOULDER	155	1	n/a	0	n/a	n/a	n/a	n/a	n/a
2903679	RECOG_CONF	n/a	LTP108	ltpFR	4	3	1	BOULDER	155	n/a	5	0	n/a	n/a	n/a	n/a	n/a
2905090	RECOG_TARGET	n/a	LTP108	ltpFR	4	3	1	RECIPE	1175	1	5	0	n/a	n/a	n/a	n/a	n/a
2905814	RECOG_RESP	n/a	LTP108	ltpFR	4	3	1	RECIPE	1175	1	n/a	0	n/a	n/a	n/a	n/a	n/a
2906493	RECOG_CONF	n/a	LTP108	ltpFR	4	3	1	RECIPE	1175	n/a	5	0	n/a	n/a	n/a	n/a	n/a
2907847	RECOG_TARGET	n/a	LTP108	ltpFR	4	3	1	LAWN	805	1	5	1	n/a	n/a	n/a	n/a	n/a
2908578	RECOG_RESP	n/a	LTP108	ltpFR	4	3	1	LAWN	805	1	n/a	1	n/a	n/a	n/a	n/a	n/a
2909177	RECOG_CONF	n/a	LTP108	ltpFR	4	3	1	LAWN	805	n/a	5	1	n/a	n/a	n/a	n/a	n/a
2910663	RECOG_TARGET	n/a	LTP108	ltpFR	4	3	-1	ALLEY	15	1	5	-1	n/a	n/a	n/a	n/a	n/a
2911471	RECOG_RESP	n/a	LTP108	ltpFR	4	3	-1	ALLEY	15	1	n/a	-1	n/a	n/a	n/a	n/a	n/a
2912090	RECOG_CONF	n/a	LTP108	ltpFR	4	3	-1	ALLEY	15	n/a	5	-1	n/a	n/a	n/a	n/a	n/a
2913512	RECOG_LURE	n/a	LTP108	ltpFR	4	3	n/a	SPOUSE	1358	0	2	n/a	n/a	n/a	n/a	n/a	n/a
2914589	RECOG_RESP	n/a	LTP108	ltpFR	4	3	n/a	SPOUSE	1358	0	n/a	n/a	n/a	n/a	n/a	n/a	n/a
2915313	RECOG_CONF	n/a	LTP108	ltpFR	4	3	n/a	SPOUSE	1358	n/a	2	n/a	n/a	n/a	n/a	n/a	n/a
2916644	RECOG_TARGET	n/a	LTP108	ltpFR	4	3	1	RECEIPT	1173	1	5	0	n/a	n/a	n/a	n/a	n/a
2917333	RECOG_RESP	n/a	LTP108	ltpFR	4	3	1	RECEIPT	1173	1	n/a	0	n/a	n/a	n/a	n/a	n/a
2917847	RECOG_CONF	n/a	LTP108	ltpFR	4	3	1	RECEIPT	1173	n/a	5	0	n/a	n/a	n/a	n/a	n/a
2919376	RECOG_LURE	n/a	LTP108	ltpFR	4	3	n/a	SERVANT	1271	0	4	n/a	n/a	n/a	n/a	n/a	n/a
2921105	RECOG_RESP	n/a	LTP108	ltpFR	4	3	n/a	SERVANT	1271	0	n/a	n/a	n/a	n/a	n/a	n/a	n/a
2921678	RECOG_CONF	n/a	LTP108	ltpFR	4	3	n/a	SERVANT	1271	n/a	4	n/a	n/a	n/a	n/a	n/a	n/a
2923175	RECOG_TARGET	n/a	LTP108	ltpFR	4	3	-1	COD	340	1	2	-1	n/a	n/a	n/a	n/a	n/a
2923983	RECOG_RESP	n/a	LTP108	ltpFR	4	3	-1	COD	340	1	n/a	-1	n/a	n/a	n/a	n/a	n/a
2924791	RECOG_CONF	n/a	LTP108	ltpFR	4	3	-1	COD	340	n/a	2	-1	n/a	n/a	n/a	n/a	n/a
2926174	RECOG_TARGET	n/a	LTP108	ltpFR	4	3	-1	CONTRACT	368	0	2	-1	n/a	n/a	n/a	n/a	n/a
2928283	RECOG_RESP	n/a	LTP108	ltpFR	4	3	-1	CONTRACT	368	0	n/a	-1	n/a	n/a	n/a	n/a	n/a
2929042	RECOG_CONF	n/a	LTP108	ltpFR	4	3	-1	CONTRACT	368	n/a	2	-1	n/a	n/a	n/a	n/a	n/a
2930447	RECOG_TARGET	n/a	LTP108	ltpFR	4	3	0	SISTER	1312	1	5	1	n/a	n/a	n/a	n/a	n/a
2931177	RECOG_RESP	n/a	LTP108	ltpFR	4	3	0	SISTER	1312	1	n/a	1	n/a	n/a	n/a	n/a	n/a
2931845	RECOG_CONF	n/a	LTP108	ltpFR	4	3	0	SISTER	1312	n/a	5	1	n/a	n/a	n/a	n/a	n/a
2933130	RECOG_TARGET	n/a	LTP108	ltpFR	4	3	0	PUPPY	1144	1	5	0	n/a	n/a	n/a	n/a	n/a
2933811	RECOG_RESP	n/a	LTP108	ltpFR	4	3	0	PUPPY	1144	1	n/a	0	n/a	n/a	n/a	n/a	n/a
2934449	RECOG_CONF	n/a	LTP108	ltpFR	4	3	0	PUPPY	1144	n/a	5	0	n/a	n/a	n/a	n/a	n/a
2935854	RECOG_TARGET	n/a	LTP108	ltpFR	4	3	1	FUR	615	1	5	1	n/a	n/a	n/a	n/a	n/a
2936525	RECOG_RESP	n/a	LTP108	ltpFR	4	3	1	FUR	615	1	n/a	1	n/a	n/a	n/a	n/a	n/a
2937183	RECOG_CONF	n/a	LTP108	ltpFR	4	3	1	FUR	615	n/a	5	1	n/a	n/a	n/a	n/a	n/a
2938611	RECOG_TARGET	n/a	LTP108	ltpFR	4	3	1	MOAT	903	1	5	0	n/a	n/a	n/a	n/a	n/a
2939343	RECOG_RESP	n/a	LTP108	ltpFR	4	3	1	MOAT	903	1	n/a	0	n/a	n/a	n/a	n/a	n/a
2939987	RECOG_CONF	n/a	LTP108	ltpFR	4	3	1	MOAT	903	n/a	5	0	n/a	n/a	n/a	n/a	n/a
2941477	RECOG_LURE	n/a	LTP108	ltpFR	4	3	n/a	DESSERT	453	0	2	n/a	n/a	n/a	n/a	n/a	n/a
2942990	RECOG_RESP	n/a	LTP108	ltpFR	4	3	n/a	DESSERT	453	0	n/a	n/a	n/a	n/a	n/a	n/a	n/a
2943708	RECOG_CONF	n/a	LTP108	ltpFR	4	3	n/a	DESSERT	453	n/a	2	n/a	n/a	n/a	n/a	n/a	n/a
2945159	RECOG_TARGET	n/a	LTP108	ltpFR	4	3	0	REEF	1177	1	5	1	n/a	n/a	n/a	n/a	n/a
2945858	RECOG_RESP	n/a	LTP108	ltpFR	4	3	0	REEF	1177	1	n/a	1	n/a	n/a	n/a	n/a	n/a
2946492	RECOG_CONF	n/a	LTP108	ltpFR	4	3	0	REEF	1177	n/a	5	1	n/a	n/a	n/a	n/a	n/a
2947883	RECOG_TARGET	n/a	LTP108	ltpFR	4	3	-1	TURTLE	1522	1	5	-1	n/a	n/a	n/a	n/a	n/a
2948537	RECOG_RESP	n/a	LTP108	ltpFR	4	3	-1	TURTLE	1522	1	n/a	-1	n/a	n/a	n/a	n/a	n/a
2949176	RECOG_CONF	n/a	LTP108	ltpFR	4	3	-1	TURTLE	1522	n/a	5	-1	n/a	n/a	n/a	n/a	n/a
2950615	RECOG_LURE	n/a	LTP108	ltpFR	4	3	n/a	BOOT	150	0	5	n/a	n/a	n/a	n/a	n/a	n/a
2951620	RECOG_RESP	n/a	LTP108	ltpFR	4	3	n/a	BOOT	150	0	n/a	n/a	n/a	n/a	n/a	n/a	n/a
2952169	RECOG_CONF	n/a	LTP108	ltpFR	4	3	n/a	BOOT	150	n/a	5	n/a	n/a	n/a	n/a	n/a	n/a
2953672	RECOG_TARGET	n/a	LTP108	ltpFR	4	3	1	PUMP	1141	1	5	0	n/a	n/a	n/a	n/a	n/a
2954973	RECOG_RESP	n/a	LTP108	ltpFR	4	3	1	PUMP	1141	1	n/a	0	n/a	n/a	n/a	n/a	n/a
2955671	RECOG_CONF	n/a	LTP108	ltpFR	4	3	1	PUMP	1141	n/a	5	0	n/a	n/a	n/a	n/a	n/a
2965072	REC_START	n/a	LTP108	ltpFR	4	4	n/a	n/a	n/a	n/a	n/a	n/a	n/a	n/a	n/a	n/a	n/a
2965110	RECOG_TARGET	n/a	LTP108	ltpFR	4	4	0	WHISKERS	1605	1	5	0	n/a	n/a	n/a	n/a	n/a
2965800	RECOG_RESP	n/a	LTP108	ltpFR	4	4	0	WHISKERS	1605	1	n/a	0	n/a	n/a	n/a	n/a	n/a
2966344	RECOG_CONF	n/a	LTP108	ltpFR	4	4	0	WHISKERS	1605	n/a	5	0	n/a	n/a	n/a	n/a	n/a
2967726	RECOG_TARGET	n/a	LTP108	ltpFR	4	4	1	BARN	89	1	5	0	n/a	n/a	n/a	n/a	n/a
2968409	RECOG_RESP	n/a	LTP108	ltpFR	4	4	1	BARN	89	1	n/a	0	n/a	n/a	n/a	n/a	n/a
2968948	RECOG_CONF	n/a	LTP108	ltpFR	4	4	1	BARN	89	n/a	5	0	n/a	n/a	n/a	n/a	n/a
2970317	RECOG_TARGET	n/a	LTP108	ltpFR	4	4	1	LOVER	846	1	5	1	n/a	n/a	n/a	n/a	n/a
2970914	RECOG_RESP	n/a	LTP108	ltpFR	4	4	1	LOVER	846	1	n/a	1	n/a	n/a	n/a	n/a	n/a
2971522	RECOG_CONF	n/a	LTP108	ltpFR	4	4	1	LOVER	846	n/a	5	1	n/a	n/a	n/a	n/a	n/a
2972849	RECOG_TARGET	n/a	LTP108	ltpFR	4	4	0	HUMAN	726	1	5	1	n/a	n/a	n/a	n/a	n/a
2973468	RECOG_RESP	n/a	LTP108	ltpFR	4	4	0	HUMAN	726	1	n/a	1	n/a	n/a	n/a	n/a	n/a
2974076	RECOG_CONF	n/a	LTP108	ltpFR	4	4	0	HUMAN	726	n/a	5	1	n/a	n/a	n/a	n/a	n/a
2975456	RECOG_TARGET	n/a	LTP108	ltpFR	4	4	1	PIGEON	1065	1	5	1	n/a	n/a	n/a	n/a	n/a
2976301	RECOG_RESP	n/a	LTP108	ltpFR	4	4	1	PIGEON	1065	1	n/a	1	n/a	n/a	n/a	n/a	n/a
2976940	RECOG_CONF	n/a	LTP108	ltpFR	4	4	1	PIGEON	1065	n/a	5	1	n/a	n/a	n/a	n/a	n/a
2978580	RECOG_TARGET	n/a	LTP108	ltpFR	4	4	-1	BEAKER	104	1	5	-1	n/a	n/a	n/a	n/a	n/a
2979444	RECOG_RESP	n/a	LTP108	ltpFR	4	4	-1	BEAKER	104	1	n/a	-1	n/a	n/a	n/a	n/a	n/a
2980163	RECOG_CONF	n/a	LTP108	ltpFR	4	4	-1	BEAKER	104	n/a	5	-1	n/a	n/a	n/a	n/a	n/a
2981529	RECOG_TARGET	n/a	LTP108	ltpFR	4	4	0	SHED	1277	1	5	0	n/a	n/a	n/a	n/a	n/a
2982178	RECOG_RESP	n/a	LTP108	ltpFR	4	4	0	SHED	1277	1	n/a	0	n/a	n/a	n/a	n/a	n/a
2983206	RECOG_CONF	n/a	LTP108	ltpFR	4	4	0	SHED	1277	n/a	5	0	n/a	n/a	n/a	n/a	n/a
2984611	RECOG_LURE	n/a	LTP108	ltpFR	4	4	n/a	ARTERY	41	0	5	n/a	n/a	n/a	n/a	n/a	n/a
2985620	RECOG_RESP	n/a	LTP108	ltpFR	4	4	n/a	ARTERY	41	0	n/a	n/a	n/a	n/a	n/a	n/a	n/a
2986239	RECOG_CONF	n/a	LTP108	ltpFR	4	4	n/a	ARTERY	41	n/a	5	n/a	n/a	n/a	n/a	n/a	n/a
2987560	RECOG_TARGET	n/a	LTP108	ltpFR	4	4	1	GAVEL	627	1	5	0	n/a	n/a	n/a	n/a	n/a
2988354	RECOG_RESP	n/a	LTP108	ltpFR	4	4	1	GAVEL	627	1	n/a	0	n/a	n/a	n/a	n/a	n/a
2988933	RECOG_CONF	n/a	LTP108	ltpFR	4	4	1	GAVEL	627	n/a	5	0	n/a	n/a	n/a	n/a	n/a
2990393	RECOG_TARGET	n/a	LTP108	ltpFR	4	4	0	BRANCH	168	1	4	1	n/a	n/a	n/a	n/a	n/a
2991197	RECOG_RESP	n/a	LTP108	ltpFR	4	4	0	BRANCH	168	1	n/a	1	n/a	n/a	n/a	n/a	n/a
2992026	RECOG_CONF	n/a	LTP108	ltpFR	4	4	0	BRANCH	168	n/a	4	1	n/a	n/a	n/a	n/a	n/a
2993408	RECOG_TARGET	n/a	LTP108	ltpFR	4	4	-1	WORKER	1621	1	5	-1	n/a	n/a	n/a	n/a	n/a
2994695	RECOG_RESP	n/a	LTP108	ltpFR	4	4	-1	WORKER	1621	1	n/a	-1	n/a	n/a	n/a	n/a	n/a
2995208	RECOG_CONF	n/a	LTP108	ltpFR	4	4	-1	WORKER	1621	n/a	5	-1	n/a	n/a	n/a	n/a	n/a
2996715	RECOG_LURE	n/a	LTP108	ltpFR	4	4	n/a	TONGUE	1479	0	5	n/a	n/a	n/a	n/a	n/a	n/a
2997408	RECOG_RESP	n/a	LTP108	ltpFR	4	4	n/a	TONGUE	1479	0	n/a	n/a	n/a	n/a	n/a	n/a	n/a
2998052	RECOG_CONF	n/a	LTP108	ltpFR	4	4	n/a	TONGUE	1479	n/a	5	n/a	n/a	n/a	n/a	n/a	n/a
2999481	RECOG_TARGET	n/a	LTP108	ltpFR	4	4	1	NEWSSTAND	949	1	5	0	n/a	n/a	n/a	n/a	n/a
3000337	RECOG_RESP	n/a	LTP108	ltpFR	4	4	1	NEWSSTAND	949	1	n/a	0	n/a	n/a	n/a	n/a	n/a
3001005	RECOG_CONF	n/a	LTP108	ltpFR	4	4	1	NEWSSTAND	949	n/a	5	0	n/a	n/a	n/a	n/a	n/a
3002372	RECOG_TARGET	n/a	LTP108	ltpFR	4	4	0	HOOK	715	1	5	1	n/a	n/a	n/a	n/a	n/a
3003031	RECOG_RESP	n/a	LTP108	ltpFR	4	4	0	HOOK	715	1	n/a	1	n/a	n/a	n/a	n/a	n/a
3003729	RECOG_CONF	n/a	LTP108	ltpFR	4	4	0	HOOK	715	n/a	5	1	n/a	n/a	n/a	n/a	n/a
3005088	RECOG_TARGET	n/a	LTP108	ltpFR	4	4	1	HOOP	716	1	3	0	n/a	n/a	n/a	n/a	n/a
3007261	RECOG_RESP	n/a	LTP108	ltpFR	4	4	1	HOOP	716	1	n/a	0	n/a	n/a	n/a	n/a	n/a
3008019	RECOG_CONF	n/a	LTP108	ltpFR	4	4	1	HOOP	716	n/a	3	0	n/a	n/a	n/a	n/a	n/a
3009478	RECOG_TARGET	n/a	LTP108	ltpFR	4	4	1	MAID	856	1	5	1	n/a	n/a	n/a	n/a	n/a
3010194	RECOG_RESP	n/a	LTP108	ltpFR	4	4	1	MAID	856	1	n/a	1	n/a	n/a	n/a	n/a	n/a
3010783	RECOG_CONF	n/a	LTP108	ltpFR	4	4	1	MAID	856	n/a	5	1	n/a	n/a	n/a	n/a	n/a
3012210	RECOG_TARGET	n/a	LTP108	ltpFR	4	4	1	PARIS	1014	1	5	1	n/a	n/a	n/a	n/a	n/a
3012778	RECOG_RESP	n/a	LTP108	ltpFR	4	4	1	PARIS	1014	1	n/a	1	n/a	n/a	n/a	n/a	n/a
3013836	RECOG_CONF	n/a	LTP108	ltpFR	4	4	1	PARIS	1014	n/a	5	1	n/a	n/a	n/a	n/a	n/a
3015259	RECOG_TARGET	n/a	LTP108	ltpFR	4	4	0	EMPIRE	530	1	4	1	n/a	n/a	n/a	n/a	n/a
3016919	RECOG_RESP	n/a	LTP108	ltpFR	4	4	0	EMPIRE	530	1	n/a	1	n/a	n/a	n/a	n/a	n/a
3017408	RECOG_CONF	n/a	LTP108	ltpFR	4	4	0	EMPIRE	530	n/a	4	1	n/a	n/a	n/a	n/a	n/a
3019033	RECOG_TARGET	n/a	LTP108	ltpFR	4	4	0	SWING	1421	1	3	0	n/a	n/a	n/a	n/a	n/a
3019733	RECOG_RESP	n/a	LTP108	ltpFR	4	4	0	SWING	1421	1	n/a	0	n/a	n/a	n/a	n/a	n/a
3020421	RECOG_CONF	n/a	LTP108	ltpFR	4	4	0	SWING	1421	n/a	3	0	n/a	n/a	n/a	n/a	n/a
3021723	RECOG_TARGET	n/a	LTP108	ltpFR	4	4	0	PIPE	1073	1	5	0	n/a	n/a	n/a	n/a	n/a
3022506	RECOG_RESP	n/a	LTP108	ltpFR	4	4	0	PIPE	1073	1	n/a	0	n/a	n/a	n/a	n/a	n/a
3023095	RECOG_CONF	n/a	LTP108	ltpFR	4	4	0	PIPE	1073	n/a	5	0	n/a	n/a	n/a	n/a	n/a
3026163	REC_START	n/a	LTP108	ltpFR	4	5	n/a	n/a	n/a	n/a	n/a	n/a	n/a	n/a	n/a	n/a	n/a
3026197	RECOG_LURE	n/a	LTP108	ltpFR	4	5	n/a	CRITIC	410	0	4	n/a	n/a	n/a	n/a	n/a	n/a
3027295	RECOG_RESP	n/a	LTP108	ltpFR	4	5	n/a	CRITIC	410	0	n/a	n/a	n/a	n/a	n/a	n/a	n/a
3027864	RECOG_CONF	n/a	LTP108	ltpFR	4	5	n/a	CRITIC	410	n/a	4	n/a	n/a	n/a	n/a	n/a	n/a
3029254	RECOG_TARGET	n/a	LTP108	ltpFR	4	5	0	ELECTRON	522	1	1	0	n/a	n/a	n/a	n/a	n/a
3030862	RECOG_RESP	n/a	LTP108	ltpFR	4	5	0	ELECTRON	522	1	n/a	0	n/a	n/a	n/a	n/a	n/a
3031576	RECOG_CONF	n/a	LTP108	ltpFR	4	5	0	ELECTRON	522	n/a	1	0	n/a	n/a	n/a	n/a	n/a
3033003	RECOG_LURE	n/a	LTP108	ltpFR	4	5	n/a	PAPER	1011	0	4	n/a	n/a	n/a	n/a	n/a	n/a
3034000	RECOG_RESP	n/a	LTP108	ltpFR	4	5	n/a	PAPER	1011	0	n/a	n/a	n/a	n/a	n/a	n/a	n/a
3034678	RECOG_CONF	n/a	LTP108	ltpFR	4	5	n/a	PAPER	1011	n/a	4	n/a	n/a	n/a	n/a	n/a	n/a
3036018	RECOG_TARGET	n/a	LTP108	ltpFR	4	5	-1	SCULPTURE	1258	1	5	-1	n/a	n/a	n/a	n/a	n/a
3037402	RECOG_RESP	n/a	LTP108	ltpFR	4	5	-1	SCULPTURE	1258	1	n/a	-1	n/a	n/a	n/a	n/a	n/a
3038131	RECOG_CONF	n/a	LTP108	ltpFR	4	5	-1	SCULPTURE	1258	n/a	5	-1	n/a	n/a	n/a	n/a	n/a
3039575	RECOG_LURE	n/a	LTP108	ltpFR	4	5	n/a	STOVE	1388	0	5	n/a	n/a	n/a	n/a	n/a	n/a
3040505	RECOG_RESP	n/a	LTP108	ltpFR	4	5	n/a	STOVE	1388	0	n/a	n/a	n/a	n/a	n/a	n/a	n/a
3041184	RECOG_CONF	n/a	LTP108	ltpFR	4	5	n/a	STOVE	1388	n/a	5	n/a	n/a	n/a	n/a	n/a	n/a
3042524	RECOG_TARGET	n/a	LTP108	ltpFR	4	5	1	QUARTER	1148	1	5	0	n/a	n/a	n/a	n/a	n/a
3043274	RECOG_RESP	n/a	LTP108	ltpFR	4	5	1	QUARTER	1148	1	n/a	0	n/a	n/a	n/a	n/a	n/a
3043907	RECOG_CONF	n/a	LTP108	ltpFR	4	5	1	QUARTER	1148	n/a	5	0	n/a	n/a	n/a	n/a	n/a
3045207	RECOG_TARGET	n/a	LTP108	ltpFR	4	5	1	ERASER	538	1	5	0	n/a	n/a	n/a	n/a	n/a
3045908	RECOG_RESP	n/a	LTP108	ltpFR	4	5	1	ERASER	538	1	n/a	0	n/a	n/a	n/a	n/a	n/a
3046512	RECOG_CONF	n/a	LTP108	ltpFR	4	5	1	ERASER	538	n/a	5	0	n/a	n/a	n/a	n/a	n/a
3047881	RECOG_TARGET	n/a	LTP108	ltpFR	4	5	-1	TANK	1432	1	5	-1	n/a	n/a	n/a	n/a	n/a
3051695	RECOG_RESP	n/a	LTP108	ltpFR	4	5	-1	TANK	1432	1	n/a	-1	n/a	n/a	n/a	n/a	n/a
3052239	RECOG_CONF	n/a	LTP108	ltpFR	4	5	-1	TANK	1432	n/a	5	-1	n/a	n/a	n/a	n/a	n/a
3053654	RECOG_TARGET	n/a	LTP108	ltpFR	4	5	-1	BEDROOM	111	1	5	-1	n/a	n/a	n/a	n/a	n/a
3056649	RECOG_RESP	n/a	LTP108	ltpFR	4	5	-1	BEDROOM	111	1	n/a	-1	n/a	n/a	n/a	n/a	n/a
3057327	RECOG_CONF	n/a	LTP108	ltpFR	4	5	-1	BEDROOM	111	n/a	5	-1	n/a	n/a	n/a	n/a	n/a
3058810	RECOG_LURE	n/a	LTP108	ltpFR	4	5	n/a	PLAYGROUND	1087	0	4	n/a	n/a	n/a	n/a	n/a	n/a
3059891	RECOG_RESP	n/a	LTP108	ltpFR	4	5	n/a	PLAYGROUND	1087	0	n/a	n/a	n/a	n/a	n/a	n/a	n/a
3060560	RECOG_CONF	n/a	LTP108	ltpFR	4	5	n/a	PLAYGROUND	1087	n/a	4	n/a	n/a	n/a	n/a	n/a	n/a
3062034	RECOG_TARGET	n/a	LTP108	ltpFR	4	5	0	HUT	729	1	4	0	n/a	n/a	n/a	n/a	n/a
3063224	RECOG_RESP	n/a	LTP108	ltpFR	4	5	0	HUT	729	1	n/a	0	n/a	n/a	n/a	n/a	n/a
3063932	RECOG_CONF	n/a	LTP108	ltpFR	4	5	0	HUT	729	n/a	4	0	n/a	n/a	n/a	n/a	n/a
3065283	RECOG_TARGET	n/a	LTP108	ltpFR	4	5	1	STONE	1385	1	5	0	n/a	n/a	n/a	n/a	n/a
3066361	RECOG_RESP	n/a	LTP108	ltpFR	4	5	1	STONE	1385	1	n/a	0	n/a	n/a	n/a	n/a	n/a
3067015	RECOG_CONF	n/a	LTP108	ltpFR	4	5	1	STONE	1385	n/a	5	0	n/a	n/a	n/a	n/a	n/a
3068465	RECOG_LURE	n/a	LTP108	ltpFR	4	5	n/a	MICROSCOPE	891	0	5	n/a	n/a	n/a	n/a	n/a	n/a
3069799	RECOG_RESP	n/a	LTP108	ltpFR	4	5	n/a	MICROSCOPE	891	0	n/a	n/a	n/a	n/a	n/a	n/a	n/a
3070437	RECOG_CONF	n/a	LTP108	ltpFR	4	5	n/a	MICROSCOPE	891	n/a	5	n/a	n/a	n/a	n/a	n/a	n/a
3072289	RECOG_TARGET	n/a	LTP108	ltpFR	4	5	1	UMPIRE	1535	1	1	1	n/a	n/a	n/a	n/a	n/a
3073415	RECOG_RESP	n/a	LTP108	ltpFR	4	5	1	UMPIRE	1535	1	n/a	1	n/a	n/a	n/a	n/a	n/a
3074139	RECOG_CONF	n/a	LTP108	ltpFR	4	5	1	UMPIRE	1535	n/a	1	1	n/a	n/a	n/a	n/a	n/a
3075546	RECOG_TARGET	n/a	LTP108	ltpFR	4	5	1	SHORE	1291	1	2	1	n/a	n/a	n/a	n/a	n/a
3076354	RECOG_RESP	n/a	LTP108	ltpFR	4	5	1	SHORE	1291	1	n/a	1	n/a	n/a	n/a	n/a	n/a
3077072	RECOG_CONF	n/a	LTP108	ltpFR	4	5	1	SHORE	1291	n/a	2	1	n/a	n/a	n/a	n/a	n/a
3078486	RECOG_LURE	n/a	LTP108	ltpFR	4	5	n/a	ADULT	8	0	5	n/a	n/a	n/a	n/a	n/a	n/a
3079377	RECOG_RESP	n/a	LTP108	ltpFR	4	5	n/a	ADULT	8	0	n/a	n/a	n/a	n/a	n/a	n/a	n/a
3080045	RECOG_CONF	n/a	LTP108	ltpFR	4	5	n/a	ADULT	8	n/a	5	n/a	n/a	n/a	n/a	n/a	n/a
3081477	RECOG_TARGET	n/a	LTP108	ltpFR	4	5	-1	BUN	197	1	5	-1	n/a	n/a	n/a	n/a	n/a
3082290	RECOG_RESP	n/a	LTP108	ltpFR	4	5	-1	BUN	197	1	n/a	-1	n/a	n/a	n/a	n/a	n/a
3082989	RECOG_CONF	n/a	LTP108	ltpFR	4	5	-1	BUN	197	n/a	5	-1	n/a	n/a	n/a	n/a	n/a
3084334	RECOG_TARGET	n/a	LTP108	ltpFR	4	5	1	YOKE	1632	1	4	0	n/a	n/a	n/a	n/a	n/a
3086201	RECOG_RESP	n/a	LTP108	ltpFR	4	5	1	YOKE	1632	1	n/a	0	n/a	n/a	n/a	n/a	n/a
3086990	RECOG_CONF	n/a	LTP108	ltpFR	4	5	1	YOKE	1632	n/a	4	0	n/a	n/a	n/a	n/a	n/a
3088491	RECOG_TARGET	n/a	LTP108	ltpFR	4	5	1	WITNESS	1618	1	5	1	n/a	n/a	n/a	n/a	n/a
3089279	RECOG_RESP	n/a	LTP108	ltpFR	4	5	1	WITNESS	1618	1	n/a	1	n/a	n/a	n/a	n/a	n/a
3089973	RECOG_CONF	n/a	LTP108	ltpFR	4	5	1	WITNESS	1618	n/a	5	1	n/a	n/a	n/a	n/a	n/a
3091324	RECOG_TARGET	n/a	LTP108	ltpFR	4	5	1	LOG	841	1	5	0	n/a	n/a	n/a	n/a	n/a
3092183	RECOG_RESP	n/a	LTP108	ltpFR	4	5	1	LOG	841	1	n/a	0	n/a	n/a	n/a	n/a	n/a
3092826	RECOG_CONF	n/a	LTP108	ltpFR	4	5	1	LOG	841	n/a	5	0	n/a	n/a	n/a	n/a	n/a
3096012	REC_START	n/a	LTP108	ltpFR	4	6	n/a	n/a	n/a	n/a	n/a	n/a	n/a	n/a	n/a	n/a	n/a
3096047	RECOG_TARGET	n/a	LTP108	ltpFR	4	6	1	WEED	1599	1	5	1	n/a	n/a	n/a	n/a	n/a
3097079	RECOG_RESP	n/a	LTP108	ltpFR	4	6	1	WEED	1599	1	n/a	1	n/a	n/a	n/a	n/a	n/a
3097783	RECOG_CONF	n/a	LTP108	ltpFR	4	6	1	WEED	1599	n/a	5	1	n/a	n/a	n/a	n/a	n/a
3099229	RECOG_TARGET	n/a	LTP108	ltpFR	4	6	-1	CANOE	233	1	5	-1	n/a	n/a	n/a	n/a	n/a
3099928	RECOG_RESP	n/a	LTP108	ltpFR	4	6	-1	CANOE	233	1	n/a	-1	n/a	n/a	n/a	n/a	n/a
3100566	RECOG_CONF	n/a	LTP108	ltpFR	4	6	-1	CANOE	233	n/a	5	-1	n/a	n/a	n/a	n/a	n/a
3102053	RECOG_TARGET	n/a	LTP108	ltpFR	4	6	0	ASTRONAUT	51	1	5	1	n/a	n/a	n/a	n/a	n/a
3103899	RECOG_RESP	n/a	LTP108	ltpFR	4	6	0	ASTRONAUT	51	1	n/a	1	n/a	n/a	n/a	n/a	n/a
3104567	RECOG_CONF	n/a	LTP108	ltpFR	4	6	0	ASTRONAUT	51	n/a	5	1	n/a	n/a	n/a	n/a	n/a
3106010	RECOG_TARGET	n/a	LTP108	ltpFR	4	6	0	SKILLET	1317	1	4	0	n/a	n/a	n/a	n/a	n/a
3106792	RECOG_RESP	n/a	LTP108	ltpFR	4	6	0	SKILLET	1317	1	n/a	0	n/a	n/a	n/a	n/a	n/a
3107461	RECOG_CONF	n/a	LTP108	ltpFR	4	6	0	SKILLET	1317	n/a	4	0	n/a	n/a	n/a	n/a	n/a
3108867	RECOG_TARGET	n/a	LTP108	ltpFR	4	6	1	DRAWING	494	1	5	0	n/a	n/a	n/a	n/a	n/a
3109870	RECOG_RESP	n/a	LTP108	ltpFR	4	6	1	DRAWING	494	1	n/a	0	n/a	n/a	n/a	n/a	n/a
3110554	RECOG_CONF	n/a	LTP108	ltpFR	4	6	1	DRAWING	494	n/a	5	0	n/a	n/a	n/a	n/a	n/a
3111950	RECOG_TARGET	n/a	LTP108	ltpFR	4	6	-1	FUDGE	611	1	5	-1	n/a	n/a	n/a	n/a	n/a
3112719	RECOG_RESP	n/a	LTP108	ltpFR	4	6	-1	FUDGE	611	1	n/a	-1	n/a	n/a	n/a	n/a	n/a
3113387	RECOG_CONF	n/a	LTP108	ltpFR	4	6	-1	FUDGE	611	n/a	5	-1	n/a	n/a	n/a	n/a	n/a
3114899	RECOG_TARGET	n/a	LTP108	ltpFR	4	6	0	SAPPHIRE	1234	1	5	1	n/a	n/a	n/a	n/a	n/a
3115527	RECOG_RESP	n/a	LTP108	ltpFR	4	6	0	SAPPHIRE	1234	1	n/a	1	n/a	n/a	n/a	n/a	n/a
3116151	RECOG_CONF	n/a	LTP108	ltpFR	4	6	0	SAPPHIRE	1234	n/a	5	1	n/a	n/a	n/a	n/a	n/a
3117539	RECOG_TARGET	n/a	LTP108	ltpFR	4	6	1	MARS	873	1	4	1	n/a	n/a	n/a	n/a	n/a
3118271	RECOG_RESP	n/a	LTP108	ltpFR	4	6	1	MARS	873	1	n/a	1	n/a	n/a	n/a	n/a	n/a
3119064	RECOG_RESP_VV	n/a	LTP108	ltpFR	4	6	1	MARS	873	n/a	5	1	n/a	n/a	n/a	n/a	n/a
3119454	RECOG_CONF	n/a	LTP108	ltpFR	4	6	1	MARS	873	n/a	4	1	n/a	n/a	n/a	n/a	n/a
3120930	RECOG_LURE	n/a	LTP108	ltpFR	4	6	n/a	DRESS	495	0	2	n/a	n/a	n/a	n/a	n/a	n/a
3122796	RECOG_RESP	n/a	LTP108	ltpFR	4	6	n/a	DRESS	495	0	n/a	n/a	n/a	n/a	n/a	n/a	n/a
3123604	RECOG_CONF	n/a	LTP108	ltpFR	4	6	n/a	DRESS	495	n/a	2	n/a	n/a	n/a	n/a	n/a	n/a
3125087	RECOG_TARGET	n/a	LTP108	ltpFR	4	6	1	NIECE	952	1	1	1	n/a	n/a	n/a	n/a	n/a
3126532	RECOG_RESP	n/a	LTP108	ltpFR	4	6	1	NIECE	952	1	n/a	1	n/a	n/a	n/a	n/a	n/a
3127196	RECOG_CONF	n/a	LTP108	ltpFR	4	6	1	NIECE	952	n/a	1	1	n/a	n/a	n/a	n/a	n/a
3128660	RECOG_TARGET	n/a	LTP108	ltpFR	4	6	1	ORCHESTRA	981	0	5	1	n/a	n/a	n/a	n/a	n/a
3129685	RECOG_RESP	n/a	LTP108	ltpFR	4	6	1	ORCHESTRA	981	0	n/a	1	n/a	n/a	n/a	n/a	n/a
3130309	RECOG_CONF	n/a	LTP108	ltpFR	4	6	1	ORCHESTRA	981	n/a	5	1	n/a	n/a	n/a	n/a	n/a
3131759	RECOG_TARGET	n/a	LTP108	ltpFR	4	6	0	CARD	243	1	5	0	n/a	n/a	n/a	n/a	n/a
3132549	RECOG_RESP	n/a	LTP108	ltpFR	4	6	0	CARD	243	1	n/a	0	n/a	n/a	n/a	n/a	n/a
3133192	RECOG_CONF	n/a	LTP108	ltpFR	4	6	0	CARD	243	n/a	5	0	n/a	n/a	n/a	n/a	n/a
3134575	RECOG_LURE	n/a	LTP108	ltpFR	4	6	n/a	FOLDER	588	0	3	n/a	n/a	n/a	n/a	n/a	n/a
3135442	RECOG_RESP	n/a	LTP108	ltpFR	4	6	n/a	FOLDER	588	0	n/a	n/a	n/a	n/a	n/a	n/a	n/a
3136265	RECOG_CONF	n/a	LTP108	ltpFR	4	6	n/a	FOLDER	588	n/a	3	n/a	n/a	n/a	n/a	n/a	n/a
3137657	RECOG_TARGET	n/a	LTP108	ltpFR	4	6	1	SERPENT	1270	0	2	1	n/a	n/a	n/a	n/a	n/a
3138575	RECOG_RESP	n/a	LTP108	ltpFR	4	6	1	SERPENT	1270	0	n/a	1	n/a	n/a	n/a	n/a	n/a
3139368	RECOG_CONF	n/a	LTP108	ltpFR	4	6	1	SERPENT	1270	n/a	2	1	n/a	n/a	n/a	n/a	n/a
3140756	RECOG_TARGET	n/a	LTP108	ltpFR	4	6	-1	CAULIFLOWER	262	1	5	-1	n/a	n/a	n/a	n/a	n/a
3141658	RECOG_RESP	n/a	LTP108	ltpFR	4	6	-1	CAULIFLOWER	262	1	n/a	-1	n/a	n/a	n/a	n/a	n/a
3142292	RECOG_CONF	n/a	LTP108	ltpFR	4	6	-1	CAULIFLOWER	262	n/a	5	-1	n/a	n/a	n/a	n/a	n/a
3143722	RECOG_TARGET	n/a	LTP108	ltpFR	4	6	0	SUBURB	1399	1	4	0	n/a	n/a	n/a	n/a	n/a
3144561	RECOG_RESP	n/a	LTP108	ltpFR	4	6	0	SUBURB	1399	1	n/a	0	n/a	n/a	n/a	n/a	n/a
3145335	RECOG_CONF	n/a	LTP108	ltpFR	4	6	0	SUBURB	1399	n/a	4	0	n/a	n/a	n/a	n/a	n/a
3146671	RECOG_TARGET	n/a	LTP108	ltpFR	4	6	0	ROUGE	1213	1	2	0	n/a	n/a	n/a	n/a	n/a
3147415	RECOG_RESP	n/a	LTP108	ltpFR	4	6	0	ROUGE	1213	1	n/a	0	n/a	n/a	n/a	n/a	n/a
3148438	RECOG_CONF	n/a	LTP108	ltpFR	4	6	0	ROUGE	1213	n/a	2	0	n/a	n/a	n/a	n/a	n/a
3149861	RECOG_TARGET	n/a	LTP108	ltpFR	4	6	0	BED	110	1	2	1	n/a	n/a	n/a	n/a	n/a
3150513	RECOG_RESP	n/a	LTP108	ltpFR	4	6	0	BED	110	1	n/a	1	n/a	n/a	n/a	n/a	n/a
3151571	RECOG_CONF	n/a	LTP108	ltpFR	4	6	0	BED	110	n/a	2	1	n/a	n/a	n/a	n/a	n/a
3152952	RECOG_TARGET	n/a	LTP108	ltpFR	4	6	-1	MECHANIC	884	1	1	-1	n/a	n/a	n/a	n/a	n/a
3153766	RECOG_RESP	n/a	LTP108	ltpFR	4	6	-1	MECHANIC	884	1	n/a	-1	n/a	n/a	n/a	n/a	n/a
3154464	RECOG_CONF	n/a	LTP108	ltpFR	4	6	-1	MECHANIC	884	n/a	1	-1	n/a	n/a	n/a	n/a	n/a
3155934	RECOG_TARGET	n/a	LTP108	ltpFR	4	6	0	PUMPKIN	1142	1	5	1	n/a	n/a	n/a	n/a	n/a
3156559	RECOG_RESP	n/a	LTP108	ltpFR	4	6	0	PUMPKIN	1142	1	n/a	1	n/a	n/a	n/a	n/a	n/a
3157108	RECOG_CONF	n/a	LTP108	ltpFR	4	6	0	PUMPKIN	1142	n/a	5	1	n/a	n/a	n/a	n/a	n/a
3160285	REC_START	n/a	LTP108	ltpFR	4	7	n/a	n/a	n/a	n/a	n/a	n/a	n/a	n/a	n/a	n/a	n/a
3160324	RECOG_TARGET	n/a	LTP108	ltpFR	4	7	1	SCISSORS	1250	1	5	0	n/a	n/a	n/a	n/a	n/a
3161168	RECOG_RESP	n/a	LTP108	ltpFR	4	7	1	SCISSORS	1250	1	n/a	0	n/a	n/a	n/a	n/a	n/a
3161737	RECOG_CONF	n/a	LTP108	ltpFR	4	7	1	SCISSORS	1250	n/a	5	0	n/a	n/a	n/a	n/a	n/a
3163115	RECOG_TARGET	n/a	LTP108	ltpFR	4	7	-1	GARAGE	621	1	1	-1	n/a	n/a	n/a	n/a	n/a
3163822	RECOG_RESP	n/a	LTP108	ltpFR	4	7	-1	GARAGE	621	1	n/a	-1	n/a	n/a	n/a	n/a	n/a
3164510	RECOG_CONF	n/a	LTP108	ltpFR	4	7	-1	GARAGE	621	n/a	1	-1	n/a	n/a	n/a	n/a	n/a
3165872	RECOG_TARGET	n/a	LTP108	ltpFR	4	7	0	WIDOW	1608	1	5	0	n/a	n/a	n/a	n/a	n/a
3166745	RECOG_RESP	n/a	LTP108	ltpFR	4	7	0	WIDOW	1608	1	n/a	0	n/a	n/a	n/a	n/a	n/a
3167454	RECOG_CONF	n/a	LTP108	ltpFR	4	7	0	WIDOW	1608	n/a	5	0	n/a	n/a	n/a	n/a	n/a
3168754	RECOG_TARGET	n/a	LTP108	ltpFR	4	7	0	CAT	257	0	2	0	n/a	n/a	n/a	n/a	n/a
3170217	RECOG_RESP	n/a	LTP108	ltpFR	4	7	0	CAT	257	0	n/a	0	n/a	n/a	n/a	n/a	n/a
3171085	RECOG_CONF	n/a	LTP108	ltpFR	4	7	0	CAT	257	n/a	2	0	n/a	n/a	n/a	n/a	n/a
3172461	RECOG_TARGET	n/a	LTP108	ltpFR	4	7	-1	VEIN	1554	1	5	-1	n/a	n/a	n/a	n/a	n/a
3173195	RECOG_RESP	n/a	LTP108	ltpFR	4	7	-1	VEIN	1554	1	n/a	-1	n/a	n/a	n/a	n/a	n/a
3173829	RECOG_CONF	n/a	LTP108	ltpFR	4	7	-1	VEIN	1554	n/a	5	-1	n/a	n/a	n/a	n/a	n/a
3175302	RECOG_TARGET	n/a	LTP108	ltpFR	4	7	-1	BANANA	77	1	5	-1	n/a	n/a	n/a	n/a	n/a
3175934	RECOG_RESP	n/a	LTP108	ltpFR	4	7	-1	BANANA	77	1	n/a	-1	n/a	n/a	n/a	n/a	n/a
3176513	RECOG_CONF	n/a	LTP108	ltpFR	4	7	-1	BANANA	77	n/a	5	-1	n/a	n/a	n/a	n/a	n/a
3177810	RECOG_TARGET	n/a	LTP108	ltpFR	4	7	1	PHOTO	1055	0	5	0	n/a	n/a	n/a	n/a	n/a
3178962	RECOG_RESP	n/a	LTP108	ltpFR	4	7	1	PHOTO	1055	0	n/a	0	n/a	n/a	n/a	n/a	n/a
3179616	RECOG_CONF	n/a	LTP108	ltpFR	4	7	1	PHOTO	1055	n/a	5	0	n/a	n/a	n/a	n/a	n/a
3181075	RECOG_LURE	n/a	LTP108	ltpFR	4	7	n/a	DEER	444	0	5	n/a	n/a	n/a	n/a	n/a	n/a
3182185	RECOG_RESP	n/a	LTP108	ltpFR	4	7	n/a	DEER	444	0	n/a	n/a	n/a	n/a	n/a	n/a	n/a
3182849	RECOG_CONF	n/a	LTP108	ltpFR	4	7	n/a	DEER	444	n/a	5	n/a	n/a	n/a	n/a	n/a	n/a
3184257	RECOG_TARGET	n/a	LTP108	ltpFR	4	7	0	RIDER	1191	0	3	1	n/a	n/a	n/a	n/a	n/a
3185692	RECOG_RESP	n/a	LTP108	ltpFR	4	7	0	RIDER	1191	0	n/a	1	n/a	n/a	n/a	n/a	n/a
3186550	RECOG_CONF	n/a	LTP108	ltpFR	4	7	0	RIDER	1191	n/a	3	1	n/a	n/a	n/a	n/a	n/a
3187973	RECOG_LURE	n/a	LTP108	ltpFR	4	7	n/a	CORN	381	0	1	n/a	n/a	n/a	n/a	n/a	n/a
3190042	RECOG_RESP	n/a	LTP108	ltpFR	4	7	n/a	CORN	381	0	n/a	n/a	n/a	n/a	n/a	n/a	n/a
3190820	RECOG_CONF	n/a	LTP108	ltpFR	4	7	n/a	CORN	381	n/a	1	n/a	n/a	n/a	n/a	n/a	n/a
3192163	RECOG_TARGET	n/a	LTP108	ltpFR	4	7	1	CARRIAGE	248	1	2	1	n/a	n/a	n/a	n/a	n/a
3193325	RECOG_RESP	n/a	LTP108	ltpFR	4	7	1	CARRIAGE	248	1	n/a	1	n/a	n/a	n/a	n/a	n/a
3194003	RECOG_CONF	n/a	LTP108	ltpFR	4	7	1	CARRIAGE	248	n/a	2	1	n/a	n/a	n/a	n/a	n/a
3195378	RECOG_TARGET	n/a	LTP108	ltpFR	4	7	0	PORCUPINE	1107	1	2	0	n/a	n/a	n/a	n/a	n/a
3196607	RECOG_RESP	n/a	LTP108	ltpFR	4	7	0	PORCUPINE	1107	1	n/a	0	n/a	n/a	n/a	n/a	n/a
3197356	RECOG_CONF	n/a	LTP108	ltpFR	4	7	0	PORCUPINE	1107	n/a	2	0	n/a	n/a	n/a	n/a	n/a
3198819	RECOG_TARGET	n/a	LTP108	ltpFR	4	7	1	COMPUTER	359	1	5	0	n/a	n/a	n/a	n/a	n/a
3199610	RECOG_RESP	n/a	LTP108	ltpFR	4	7	1	COMPUTER	359	1	n/a	0	n/a	n/a	n/a	n/a	n/a
3200179	RECOG_CONF	n/a	LTP108	ltpFR	4	7	1	COMPUTER	359	n/a	5	0	n/a	n/a	n/a	n/a	n/a
3201659	RECOG_TARGET	n/a	LTP108	ltpFR	4	7	1	SKUNK	1321	1	5	1	n/a	n/a	n/a	n/a	n/a
3202334	RECOG_RESP	n/a	LTP108	ltpFR	4	7	1	SKUNK	1321	1	n/a	1	n/a	n/a	n/a	n/a	n/a
3202943	RECOG_CONF	n/a	LTP108	ltpFR	4	7	1	SKUNK	1321	n/a	5	1	n/a	n/a	n/a	n/a	n/a
3204475	RECOG_TARGET	n/a	LTP108	ltpFR	4	7	1	SLIME	1327	1	5	0	n/a	n/a	n/a	n/a	n/a
3205153	RECOG_RESP	n/a	LTP108	ltpFR	4	7	1	SLIME	1327	1	n/a	0	n/a	n/a	n/a	n/a	n/a
3205756	RECOG_CONF	n/a	LTP108	ltpFR	4	7	1	SLIME	1327	n/a	5	0	n/a	n/a	n/a	n/a	n/a
3207291	RECOG_TARGET	n/a	LTP108	ltpFR	4	7	0	FACTORY	548	1	5	0	n/a	n/a	n/a	n/a	n/a
3208775	RECOG_RESP	n/a	LTP108	ltpFR	4	7	0	FACTORY	548	1	n/a	0	n/a	n/a	n/a	n/a	n/a
3209378	RECOG_CONF	n/a	LTP108	ltpFR	4	7	0	FACTORY	548	n/a	5	0	n/a	n/a	n/a	n/a	n/a
3210814	RECOG_TARGET	n/a	LTP108	ltpFR	4	7	0	GRAVEL	659	1	5	0	n/a	n/a	n/a	n/a	n/a
3211898	RECOG_RESP	n/a	LTP108	ltpFR	4	7	0	GRAVEL	659	1	n/a	0	n/a	n/a	n/a	n/a	n/a
3212611	RECOG_CONF	n/a	LTP108	ltpFR	4	7	0	GRAVEL	659	n/a	5	0	n/a	n/a	n/a	n/a	n/a
3214047	RECOG_TARGET	n/a	LTP108	ltpFR	4	7	1	OATMEAL	967	0	2	0	n/a	n/a	n/a	n/a	n/a
3215265	RECOG_RESP	n/a	LTP108	ltpFR	4	7	1	OATMEAL	967	0	n/a	0	n/a	n/a	n/a	n/a	n/a
3216023	RECOG_CONF	n/a	LTP108	ltpFR	4	7	1	OATMEAL	967	n/a	2	0	n/a	n/a	n/a	n/a	n/a
3217404	RECOG_TARGET	n/a	LTP108	ltpFR	4	7	1	ROBIN	1199	1	5	1	n/a	n/a	n/a	n/a	n/a
3218547	RECOG_RESP	n/a	LTP108	ltpFR	4	7	1	ROBIN	1199	1	n/a	1	n/a	n/a	n/a	n/a	n/a
3219196	RECOG_CONF	n/a	LTP108	ltpFR	4	7	1	ROBIN	1199	n/a	5	1	n/a	n/a	n/a	n/a	n/a
3220703	RECOG_TARGET	n/a	LTP108	ltpFR	4	7	-1	POLITICIAN	1099	1	5	-1	n/a	n/a	n/a	n/a	n/a
3221481	RECOG_RESP	n/a	LTP108	ltpFR	4	7	-1	POLITICIAN	1099	1	n/a	-1	n/a	n/a	n/a	n/a	n/a
3222109	RECOG_CONF	n/a	LTP108	ltpFR	4	7	-1	POLITICIAN	1099	n/a	5	-1	n/a	n/a	n/a	n/a	n/a
3226184	REC_START	n/a	LTP108	ltpFR	4	8	n/a	n/a	n/a	n/a	n/a	n/a	n/a	n/a	n/a	n/a	n/a
3226226	RECOG_TARGET	n/a	LTP108	ltpFR	4	8	1	OX	994	1	5	1	n/a	n/a	n/a	n/a	n/a
3226832	RECOG_RESP	n/a	LTP108	ltpFR	4	8	1	OX	994	1	n/a	1	n/a	n/a	n/a	n/a	n/a
3227524	RECOG_CONF	n/a	LTP108	ltpFR	4	8	1	OX	994	n/a	5	1	n/a	n/a	n/a	n/a	n/a
3229025	RECOG_TARGET	n/a	LTP108	ltpFR	4	8	1	TYPIST	1532	1	5	1	n/a	n/a	n/a	n/a	n/a
3230304	RECOG_RESP	n/a	LTP108	ltpFR	4	8	1	TYPIST	1532	1	n/a	1	n/a	n/a	n/a	n/a	n/a
3231058	RECOG_CONF	n/a	LTP108	ltpFR	4	8	1	TYPIST	1532	n/a	5	1	n/a	n/a	n/a	n/a	n/a
3232465	RECOG_TARGET	n/a	LTP108	ltpFR	4	8	-1	BANDANNA	80	1	4	-1	n/a	n/a	n/a	n/a	n/a
3233627	RECOG_RESP	n/a	LTP108	ltpFR	4	8	-1	BANDANNA	80	1	n/a	-1	n/a	n/a	n/a	n/a	n/a
3234280	RECOG_CONF	n/a	LTP108	ltpFR	4	8	-1	BANDANNA	80	n/a	4	-1	n/a	n/a	n/a	n/a	n/a
3235614	RECOG_TARGET	n/a	LTP108	ltpFR	4	8	1	VOLUNTEER	1577	1	3	1	n/a	n/a	n/a	n/a	n/a
3236321	RECOG_RESP	n/a	LTP108	ltpFR	4	8	1	VOLUNTEER	1577	1	n/a	1	n/a	n/a	n/a	n/a	n/a
3237034	RECOG_CONF	n/a	LTP108	ltpFR	4	8	1	VOLUNTEER	1577	n/a	3	1	n/a	n/a	n/a	n/a	n/a
3238355	RECOG_TARGET	n/a	LTP108	ltpFR	4	8	0	SHEPHERD	1283	1	5	1	n/a	n/a	n/a	n/a	n/a
3239189	RECOG_RESP	n/a	LTP108	ltpFR	4	8	0	SHEPHERD	1283	1	n/a	1	n/a	n/a	n/a	n/a	n/a
3239788	RECOG_CONF	n/a	LTP108	ltpFR	4	8	0	SHEPHERD	1283	n/a	5	1	n/a	n/a	n/a	n/a	n/a
3241212	RECOG_TARGET	n/a	LTP108	ltpFR	4	8	0	BUGGY	188	0	4	3	n/a	n/a	n/a	n/a	n/a
3241983	RECOG_RESP	n/a	LTP108	ltpFR	4	8	0	BUGGY	188	0	n/a	3	n/a	n/a	n/a	n/a	n/a
3242651	RECOG_CONF	n/a	LTP108	ltpFR	4	8	0	BUGGY	188	n/a	4	3	n/a	n/a	n/a	n/a	n/a
3244311	RECOG_LURE	n/a	LTP108	ltpFR	4	8	n/a	HAMPER	682	0	5	n/a	n/a	n/a	n/a	n/a	n/a
3245191	RECOG_RESP	n/a	LTP108	ltpFR	4	8	n/a	HAMPER	682	0	n/a	n/a	n/a	n/a	n/a	n/a	n/a
3245894	RECOG_CONF	n/a	LTP108	ltpFR	4	8	n/a	HAMPER	682	n/a	5	n/a	n/a	n/a	n/a	n/a	n/a
3247252	RECOG_TARGET	n/a	LTP108	ltpFR	4	8	-1	LOAF	835	1	5	-1	n/a	n/a	n/a	n/a	n/a
3247934	RECOG_RESP	n/a	LTP108	ltpFR	4	8	-1	LOAF	835	1	n/a	-1	n/a	n/a	n/a	n/a	n/a
3248558	RECOG_CONF	n/a	LTP108	ltpFR	4	8	-1	LOAF	835	n/a	5	-1	n/a	n/a	n/a	n/a	n/a
3249901	RECOG_TARGET	n/a	LTP108	ltpFR	4	8	0	BANQUET	86	1	5	1	n/a	n/a	n/a	n/a	n/a
3251042	RECOG_RESP	n/a	LTP108	ltpFR	4	8	0	BANQUET	86	1	n/a	1	n/a	n/a	n/a	n/a	n/a
3251701	RECOG_CONF	n/a	LTP108	ltpFR	4	8	0	BANQUET	86	n/a	5	1	n/a	n/a	n/a	n/a	n/a
3253066	RECOG_TARGET	n/a	LTP108	ltpFR	4	8	0	AUDIENCE	59	1	2	1	n/a	n/a	n/a	n/a	n/a
3253686	RECOG_RESP	n/a	LTP108	ltpFR	4	8	0	AUDIENCE	59	1	n/a	1	n/a	n/a	n/a	n/a	n/a
3254435	RECOG_CONF	n/a	LTP108	ltpFR	4	8	0	AUDIENCE	59	n/a	2	1	n/a	n/a	n/a	n/a	n/a
3255790	RECOG_TARGET	n/a	LTP108	ltpFR	4	8	1	CORD	379	0	1	0	n/a	n/a	n/a	n/a	n/a
3257418	RECOG_RESP	n/a	LTP108	ltpFR	4	8	1	CORD	379	0	n/a	0	n/a	n/a	n/a	n/a	n/a
3258106	RECOG_CONF	n/a	LTP108	ltpFR	4	8	1	CORD	379	n/a	1	0	n/a	n/a	n/a	n/a	n/a
3259530	RECOG_TARGET	n/a	LTP108	ltpFR	4	8	1	DANCER	437	1	5	1	n/a	n/a	n/a	n/a	n/a
3260117	RECOG_RESP	n/a	LTP108	ltpFR	4	8	1	DANCER	437	1	n/a	1	n/a	n/a	n/a	n/a	n/a
3260790	RECOG_CONF	n/a	LTP108	ltpFR	4	8	1	DANCER	437	n/a	5	1	n/a	n/a	n/a	n/a	n/a
3262229	RECOG_TARGET	n/a	LTP108	ltpFR	4	8	1	CLIMBER	323	1	5	1	n/a	n/a	n/a	n/a	n/a
3262890	RECOG_RESP	n/a	LTP108	ltpFR	4	8	1	CLIMBER	323	1	n/a	1	n/a	n/a	n/a	n/a	n/a
3263544	RECOG_CONF	n/a	LTP108	ltpFR	4	8	1	CLIMBER	323	n/a	5	1	n/a	n/a	n/a	n/a	n/a
3264879	RECOG_TARGET	n/a	LTP108	ltpFR	4	8	-1	SIDEWALK	1303	1	5	-1	n/a	n/a	n/a	n/a	n/a
3267754	RECOG_RESP	n/a	LTP108	ltpFR	4	8	-1	SIDEWALK	1303	1	n/a	-1	n/a	n/a	n/a	n/a	n/a
3268433	RECOG_CONF	n/a	LTP108	ltpFR	4	8	-1	SIDEWALK	1303	n/a	5	-1	n/a	n/a	n/a	n/a	n/a
3269785	RECOG_TARGET	n/a	LTP108	ltpFR	4	8	0	NET	946	1	5	0	n/a	n/a	n/a	n/a	n/a
3270787	RECOG_RESP	n/a	LTP108	ltpFR	4	8	0	NET	946	1	n/a	0	n/a	n/a	n/a	n/a	n/a
3271456	RECOG_CONF	n/a	LTP108	ltpFR	4	8	0	NET	946	n/a	5	0	n/a	n/a	n/a	n/a	n/a
3272842	RECOG_TARGET	n/a	LTP108	ltpFR	4	8	1	ENGINEER	536	1	5	1	n/a	n/a	n/a	n/a	n/a
3273541	RECOG_RESP	n/a	LTP108	ltpFR	4	8	1	ENGINEER	536	1	n/a	1	n/a	n/a	n/a	n/a	n/a
3274339	RECOG_CONF	n/a	LTP108	ltpFR	4	8	1	ENGINEER	536	n/a	5	1	n/a	n/a	n/a	n/a	n/a
3275708	RECOG_TARGET	n/a	LTP108	ltpFR	4	8	1	CANARY	227	1	5	1	n/a	n/a	n/a	n/a	n/a
3276345	RECOG_RESP	n/a	LTP108	ltpFR	4	8	1	CANARY	227	1	n/a	1	n/a	n/a	n/a	n/a	n/a
3276973	RECOG_CONF	n/a	LTP108	ltpFR	4	8	1	CANARY	227	n/a	5	1	n/a	n/a	n/a	n/a	n/a
3278324	RECOG_LURE	n/a	LTP108	ltpFR	4	8	n/a	ROOST	1208	0	4	n/a	n/a	n/a	n/a	n/a	n/a
3279203	RECOG_RESP	n/a	LTP108	ltpFR	4	8	n/a	ROOST	1208	0	n/a	n/a	n/a	n/a	n/a	n/a	n/a
3279787	RECOG_CONF	n/a	LTP108	ltpFR	4	8	n/a	ROOST	1208	n/a	4	n/a	n/a	n/a	n/a	n/a	n/a
3281214	RECOG_LURE	n/a	LTP108	ltpFR	4	8	n/a	ROOSTER	1209	0	4	n/a	n/a	n/a	n/a	n/a	n/a
3282780	RECOG_RESP	n/a	LTP108	ltpFR	4	8	n/a	ROOSTER	1209	0	n/a	n/a	n/a	n/a	n/a	n/a	n/a
3283369	RECOG_CONF	n/a	LTP108	ltpFR	4	8	n/a	ROOSTER	1209	n/a	4	n/a	n/a	n/a	n/a	n/a	n/a
3284830	RECOG_TARGET	n/a	LTP108	ltpFR	4	8	0	FISH	571	1	5	0	n/a	n/a	n/a	n/a	n/a
3285534	RECOG_RESP	n/a	LTP108	ltpFR	4	8	0	FISH	571	1	n/a	0	n/a	n/a	n/a	n/a	n/a
3286322	RECOG_CONF	n/a	LTP108	ltpFR	4	8	0	FISH	571	n/a	5	0	n/a	n/a	n/a	n/a	n/a
3290338	REC_START	n/a	LTP108	ltpFR	4	9	n/a	n/a	n/a	n/a	n/a	n/a	n/a	n/a	n/a	n/a	n/a
3290370	RECOG_TARGET	n/a	LTP108	ltpFR	4	9	1	CAPE	237	0	2	0	n/a	n/a	n/a	n/a	n/a
3292019	RECOG_RESP	n/a	LTP108	ltpFR	4	9	1	CAPE	237	0	n/a	0	n/a	n/a	n/a	n/a	n/a
3292797	RECOG_CONF	n/a	LTP108	ltpFR	4	9	1	CAPE	237	n/a	2	0	n/a	n/a	n/a	n/a	n/a
3294110	RECOG_LURE	n/a	LTP108	ltpFR	4	9	n/a	OINTMENT	974	0	5	n/a	n/a	n/a	n/a	n/a	n/a
3294967	RECOG_RESP	n/a	LTP108	ltpFR	4	9	n/a	OINTMENT	974	0	n/a	n/a	n/a	n/a	n/a	n/a	n/a
3295611	RECOG_CONF	n/a	LTP108	ltpFR	4	9	n/a	OINTMENT	974	n/a	5	n/a	n/a	n/a	n/a	n/a	n/a
3296901	RECOG_TARGET	n/a	LTP108	ltpFR	4	9	1	BLENDER	136	1	1	0	n/a	n/a	n/a	n/a	n/a
3298285	RECOG_RESP	n/a	LTP108	ltpFR	4	9	1	BLENDER	136	1	n/a	0	n/a	n/a	n/a	n/a	n/a
3298933	RECOG_CONF	n/a	LTP108	ltpFR	4	9	1	BLENDER	136	n/a	1	0	n/a	n/a	n/a	n/a	n/a
3300391	RECOG_TARGET	n/a	LTP108	ltpFR	4	9	0	BOOK	149	1	5	0	n/a	n/a	n/a	n/a	n/a
3301153	RECOG_RESP	n/a	LTP108	ltpFR	4	9	0	BOOK	149	1	n/a	0	n/a	n/a	n/a	n/a	n/a
3301767	RECOG_CONF	n/a	LTP108	ltpFR	4	9	0	BOOK	149	n/a	5	0	n/a	n/a	n/a	n/a	n/a
3303157	RECOG_LURE	n/a	LTP108	ltpFR	4	9	n/a	SCOTCH	1251	0	5	n/a	n/a	n/a	n/a	n/a	n/a
3304002	RECOG_RESP	n/a	LTP108	ltpFR	4	9	n/a	SCOTCH	1251	0	n/a	n/a	n/a	n/a	n/a	n/a	n/a
3304660	RECOG_CONF	n/a	LTP108	ltpFR	4	9	n/a	SCOTCH	1251	n/a	5	n/a	n/a	n/a	n/a	n/a	n/a
3305947	RECOG_TARGET	n/a	LTP108	ltpFR	4	9	0	SUPERVISOR	1410	1	5	1	n/a	n/a	n/a	n/a	n/a
3307728	RECOG_RESP	n/a	LTP108	ltpFR	4	9	0	SUPERVISOR	1410	1	n/a	1	n/a	n/a	n/a	n/a	n/a
3308362	RECOG_CONF	n/a	LTP108	ltpFR	4	9	0	SUPERVISOR	1410	n/a	5	1	n/a	n/a	n/a	n/a	n/a
3309846	RECOG_TARGET	n/a	LTP108	ltpFR	4	9	1	PARSLEY	1016	0	2	1	n/a	n/a	n/a	n/a	n/a
3311036	RECOG_RESP	n/a	LTP108	ltpFR	4	9	1	PARSLEY	1016	0	n/a	1	n/a	n/a	n/a	n/a	n/a
3311774	RECOG_CONF	n/a	LTP108	ltpFR	4	9	1	PARSLEY	1016	n/a	2	1	n/a	n/a	n/a	n/a	n/a
3313111	RECOG_TARGET	n/a	LTP108	ltpFR	4	9	1	TORTOISE	1486	1	5	1	n/a	n/a	n/a	n/a	n/a
3313799	RECOG_RESP	n/a	LTP108	ltpFR	4	9	1	TORTOISE	1486	1	n/a	1	n/a	n/a	n/a	n/a	n/a
3314478	RECOG_CONF	n/a	LTP108	ltpFR	4	9	1	TORTOISE	1486	n/a	5	1	n/a	n/a	n/a	n/a	n/a
3315885	RECOG_TARGET	n/a	LTP108	ltpFR	4	9	1	DIME	466	1	5	0	n/a	n/a	n/a	n/a	n/a
3316458	RECOG_RESP	n/a	LTP108	ltpFR	4	9	1	DIME	466	1	n/a	0	n/a	n/a	n/a	n/a	n/a
3317142	RECOG_CONF	n/a	LTP108	ltpFR	4	9	1	DIME	466	n/a	5	0	n/a	n/a	n/a	n/a	n/a
3318451	RECOG_LURE	n/a	LTP108	ltpFR	4	9	n/a	LABYRINTH	791	0	4	n/a	n/a	n/a	n/a	n/a	n/a
3319646	RECOG_RESP	n/a	LTP108	ltpFR	4	9	n/a	LABYRINTH	791	0	n/a	n/a	n/a	n/a	n/a	n/a	n/a
3320355	RECOG_CONF	n/a	LTP108	ltpFR	4	9	n/a	LABYRINTH	791	n/a	4	n/a	n/a	n/a	n/a	n/a	n/a
3321658	RECOG_TARGET	n/a	LTP108	ltpFR	4	9	-1	GIRAFFE	636	1	5	-1	n/a	n/a	n/a	n/a	n/a
