onset	duration	trial_type	sample	stim_file	subject	experiment	session	trial	task	item_name	item_num	recog_conf	resp	answer	test_x	test_y	test_z	color_b	color_g	color_r	case	font
310.944	n/a	SESS_START	155472	n/a	LTP240	ltpFR	13	n/a	n/a	n/a	n/a	2	n/a	n/a	0	0	0	n/a	n/a	n/a	n/a	n/a
330.39	n/a	START	165195	n/a	LTP240	ltpFR	13	n/a	n/a	n/a	n/a	n/a	n/a	n/a	n/a	n/a	n/a	n/a	n/a	n/a	n/a	n/a
330.422	n/a	PROB	165211	n/a	LTP240	ltpFR	13	n/a	n/a	n/a	n/a	n/a	n/a	11	1	3	7	n/a	n/a	n/a	n/a	n/a
332.138	n/a	PROB	166069	n/a	LTP240	ltpFR	13	n/a	n/a	n/a	n/a	n/a	n/a	17	7	3	7	n/a	n/a	n/a	n/a	n/a
333.702	n/a	PROB	166851	n/a	LTP240	ltpFR	13	n/a	n/a	n/a	n/a	n/a	n/a	18	7	5	6	n/a	n/a	n/a	n/a	n/a
336.714	n/a	PROB	168357	n/a	LTP240	ltpFR	13	n/a	n/a	n/a	n/a	n/a	n/a	9	2	4	3	n/a	n/a	n/a	n/a	n/a
338.478	n/a	PROB	169239	n/a	LTP240	ltpFR	13	n/a	n/a	n/a	n/a	n/a	n/a	12	5	4	3	n/a	n/a	n/a	n/a	n/a
340.692	n/a	PROB	170346	n/a	LTP240	ltpFR	13	n/a	n/a	n/a	n/a	n/a	n/a	24	6	9	9	n/a	n/a	n/a	n/a	n/a
342.622	n/a	PROB	171311	n/a	LTP240	ltpFR	13	n/a	n/a	n/a	n/a	n/a	n/a	16	6	4	6	n/a	n/a	n/a	n/a	n/a
343.954	n/a	PROB	171977	n/a	LTP240	ltpFR	13	n/a	n/a	n/a	n/a	n/a	n/a	18	4	7	7	n/a	n/a	n/a	n/a	n/a
345.55	n/a	PROB	172775	n/a	LTP240	ltpFR	13	n/a	n/a	n/a	n/a	n/a	n/a	16	5	7	4	n/a	n/a	n/a	n/a	n/a
347.166	n/a	PROB	173583	n/a	LTP240	ltpFR	13	n/a	n/a	n/a	n/a	n/a	n/a	11	1	6	4	n/a	n/a	n/a	n/a	n/a
348.872	n/a	STOP	174436	n/a	LTP240	ltpFR	13	n/a	n/a	n/a	n/a	n/a	n/a	n/a	n/a	n/a	n/a	n/a	n/a	n/a	n/a	n/a
371.08	n/a	START	185540	n/a	LTP240	ltpFR	13	n/a	n/a	n/a	n/a	n/a	n/a	n/a	n/a	n/a	n/a	n/a	n/a	n/a	n/a	n/a
372.594	n/a	PROB	186297	n/a	LTP240	ltpFR	13	n/a	n/a	n/a	n/a	n/a	n/a	23	8	8	7	n/a	n/a	n/a	n/a	n/a
375.406	n/a	PROB	187703	n/a	LTP240	ltpFR	13	n/a	n/a	n/a	n/a	n/a	n/a	12	5	4	3	n/a	n/a	n/a	n/a	n/a
377.808	n/a	STOP	188904	n/a	LTP240	ltpFR	13	n/a	n/a	n/a	n/a	n/a	n/a	n/a	n/a	n/a	n/a	n/a	n/a	n/a	n/a	n/a
380.266	n/a	WORD	190133	wordpools/wasnorm_wordpool_less_exclusions.txt	LTP240	ltpFR	13	1	0	TOWEL	1489	n/a	1	n/a	0	0	0	1	0.412841796875	0.57763671875	upper	../fonts/amplitud.ttf
383.278	n/a	START	191639	n/a	LTP240	ltpFR	13	n/a	n/a	n/a	n/a	n/a	n/a	n/a	n/a	n/a	n/a	n/a	n/a	n/a	n/a	n/a
384.21	n/a	PROB	192105	n/a	LTP240	ltpFR	13	n/a	n/a	n/a	n/a	n/a	n/a	4	1	2	1	n/a	n/a	n/a	n/a	n/a
385.474	n/a	PROB	192737	n/a	LTP240	ltpFR	13	n/a	n/a	n/a	n/a	n/a	n/a	13	2	6	5	n/a	n/a	n/a	n/a	n/a
388.67	n/a	PROB	194335	n/a	LTP240	ltpFR	13	n/a	n/a	n/a	n/a	n/a	n/a	14	2	8	4	n/a	n/a	n/a	n/a	n/a
390.446	n/a	STOP	195223	n/a	LTP240	ltpFR	13	n/a	n/a	n/a	n/a	n/a	n/a	n/a	n/a	n/a	n/a	n/a	n/a	n/a	n/a	n/a
392.182	n/a	WORD	196091	wordpools/wasnorm_wordpool_less_exclusions.txt	LTP240	ltpFR	13	1	0	VACUUM	1543	n/a	1	n/a	0	0	0	1	0.412841796875	0.57763671875	upper	../fonts/amplitud.ttf
395.194	n/a	START	197597	n/a	LTP240	ltpFR	13	n/a	n/a	n/a	n/a	n/a	n/a	n/a	n/a	n/a	n/a	n/a	n/a	n/a	n/a	n/a
396.376	n/a	PROB	198188	n/a	LTP240	ltpFR	13	n/a	n/a	n/a	n/a	n/a	n/a	12	8	1	3	n/a	n/a	n/a	n/a	n/a
398.374	n/a	PROB	199187	n/a	LTP240	ltpFR	13	n/a	n/a	n/a	n/a	n/a	n/a	10	4	2	4	n/a	n/a	n/a	n/a	n/a
399.804	n/a	PROB	199902	n/a	LTP240	ltpFR	13	n/a	n/a	n/a	n/a	n/a	n/a	4	1	1	2	n/a	n/a	n/a	n/a	n/a
400.97	n/a	PROB	200485	n/a	LTP240	ltpFR	13	n/a	n/a	n/a	n/a	n/a	n/a	17	8	1	8	n/a	n/a	n/a	n/a	n/a
402.488	n/a	STOP	201244	n/a	LTP240	ltpFR	13	n/a	n/a	n/a	n/a	n/a	n/a	n/a	n/a	n/a	n/a	n/a	n/a	n/a	n/a	n/a
404.396	n/a	WORD	202198	wordpools/wasnorm_wordpool_less_exclusions.txt	LTP240	ltpFR	13	1	0	BUYER	208	n/a	1	n/a	0	0	0	1	0.412841796875	0.57763671875	upper	../fonts/amplitud.ttf
407.41	n/a	START	203705	n/a	LTP240	ltpFR	13	n/a	n/a	n/a	n/a	n/a	n/a	n/a	n/a	n/a	n/a	n/a	n/a	n/a	n/a	n/a
408.524	n/a	PROB	204262	n/a	LTP240	ltpFR	13	n/a	n/a	n/a	n/a	n/a	n/a	12	6	4	2	n/a	n/a	n/a	n/a	n/a
410.356	n/a	PROB	205178	n/a	LTP240	ltpFR	13	n/a	n/a	n/a	n/a	n/a	n/a	10	5	2	3	n/a	n/a	n/a	n/a	n/a
411.754	n/a	PROB	205877	n/a	LTP240	ltpFR	13	n/a	n/a	n/a	n/a	n/a	n/a	20	9	4	7	n/a	n/a	n/a	n/a	n/a
414.272	n/a	STOP	207136	n/a	LTP240	ltpFR	13	n/a	n/a	n/a	n/a	n/a	n/a	n/a	n/a	n/a	n/a	n/a	n/a	n/a	n/a	n/a
416.462	n/a	WORD	208231	wordpools/wasnorm_wordpool_less_exclusions.txt	LTP240	ltpFR	13	1	1	SAP	1233	n/a	0	n/a	0	0	0	0	0.5869140625	0.422607421875	lower	../fonts/zerothre.ttf
419.474	n/a	START	209737	n/a	LTP240	ltpFR	13	n/a	n/a	n/a	n/a	n/a	n/a	n/a	n/a	n/a	n/a	n/a	n/a	n/a	n/a	n/a
420.358	n/a	PROB	210179	n/a	LTP240	ltpFR	13	n/a	n/a	n/a	n/a	n/a	n/a	8	2	4	2	n/a	n/a	n/a	n/a	n/a
422.338	n/a	PROB	211169	n/a	LTP240	ltpFR	13	n/a	n/a	n/a	n/a	n/a	n/a	13	5	1	7	n/a	n/a	n/a	n/a	n/a
425.134	n/a	PROB	212567	n/a	LTP240	ltpFR	13	n/a	n/a	n/a	n/a	n/a	n/a	18	6	9	3	n/a	n/a	n/a	n/a	n/a
426.936	n/a	STOP	213468	n/a	LTP240	ltpFR	13	n/a	n/a	n/a	n/a	n/a	n/a	n/a	n/a	n/a	n/a	n/a	n/a	n/a	n/a	n/a
428.644	n/a	WORD	214322	wordpools/wasnorm_wordpool_less_exclusions.txt	LTP240	ltpFR	13	1	1	PEACH	1031	n/a	0	n/a	0	0	0	0	0.5869140625	0.422607421875	lower	../fonts/zerothre.ttf
431.658	n/a	START	215829	n/a	LTP240	ltpFR	13	n/a	n/a	n/a	n/a	n/a	n/a	n/a	n/a	n/a	n/a	n/a	n/a	n/a	n/a	n/a
432.738	n/a	PROB	216369	n/a	LTP240	ltpFR	13	n/a	n/a	n/a	n/a	n/a	n/a	12	6	5	2	n/a	n/a	n/a	n/a	n/a
439.658	n/a	STOP	219829	n/a	LTP240	ltpFR	13	n/a	n/a	n/a	n/a	n/a	n/a	n/a	n/a	n/a	n/a	n/a	n/a	n/a	n/a	n/a
440.726	n/a	WORD	220363	wordpools/wasnorm_wordpool_less_exclusions.txt	LTP240	ltpFR	13	1	0	GRASS	655	n/a	0	n/a	0	0	0	1	0.412841796875	0.57763671875	upper	../fonts/amplitud.ttf
443.74	n/a	START	221870	n/a	LTP240	ltpFR	13	n/a	n/a	n/a	n/a	n/a	n/a	n/a	n/a	n/a	n/a	n/a	n/a	n/a	n/a	n/a
444.67	n/a	PROB	222335	n/a	LTP240	ltpFR	13	n/a	n/a	n/a	n/a	n/a	n/a	14	6	3	5	n/a	n/a	n/a	n/a	n/a
447.534	n/a	PROB	223767	n/a	LTP240	ltpFR	13	n/a	n/a	n/a	n/a	n/a	n/a	12	2	4	6	n/a	n/a	n/a	n/a	n/a
449.48	n/a	PROB	224740	n/a	LTP240	ltpFR	13	n/a	n/a	n/a	n/a	n/a	n/a	15	6	5	4	n/a	n/a	n/a	n/a	n/a
451.176	n/a	STOP	225588	n/a	LTP240	ltpFR	13	n/a	n/a	n/a	n/a	n/a	n/a	n/a	n/a	n/a	n/a	n/a	n/a	n/a	n/a	n/a
452.876	n/a	WORD	226438	wordpools/wasnorm_wordpool_less_exclusions.txt	LTP240	ltpFR	13	1	0	RECIPE	1175	n/a	0	n/a	0	0	0	1	0.412841796875	0.57763671875	upper	../fonts/amplitud.ttf
455.888	n/a	START	227944	n/a	LTP240	ltpFR	13	n/a	n/a	n/a	n/a	n/a	n/a	n/a	n/a	n/a	n/a	n/a	n/a	n/a	n/a	n/a
457.086	n/a	PROB	228543	n/a	LTP240	ltpFR	13	n/a	n/a	n/a	n/a	n/a	n/a	18	6	3	9	n/a	n/a	n/a	n/a	n/a
458.766	n/a	PROB	229383	n/a	LTP240	ltpFR	13	n/a	n/a	n/a	n/a	n/a	n/a	11	5	5	1	n/a	n/a	n/a	n/a	n/a
459.832	n/a	PROB	229916	n/a	LTP240	ltpFR	13	n/a	n/a	n/a	n/a	n/a	n/a	18	8	7	3	n/a	n/a	n/a	n/a	n/a
461.212	n/a	PROB	230606	n/a	LTP240	ltpFR	13	n/a	n/a	n/a	n/a	n/a	n/a	19	4	8	7	n/a	n/a	n/a	n/a	n/a
463.288	n/a	STOP	231644	n/a	LTP240	ltpFR	13	n/a	n/a	n/a	n/a	n/a	n/a	n/a	n/a	n/a	n/a	n/a	n/a	n/a	n/a	n/a
464.824	n/a	WORD	232412	wordpools/wasnorm_wordpool_less_exclusions.txt	LTP240	ltpFR	13	1	0	NITROGEN	954	n/a	0	n/a	0	0	0	1	0.412841796875	0.57763671875	upper	../fonts/amplitud.ttf
467.836	n/a	START	233918	n/a	LTP240	ltpFR	13	n/a	n/a	n/a	n/a	n/a	n/a	n/a	n/a	n/a	n/a	n/a	n/a	n/a	n/a	n/a
468.902	n/a	PROB	234451	n/a	LTP240	ltpFR	13	n/a	n/a	n/a	n/a	n/a	n/a	18	7	8	3	n/a	n/a	n/a	n/a	n/a
470.384	n/a	PROB	235192	n/a	LTP240	ltpFR	13	n/a	n/a	n/a	n/a	n/a	n/a	21	9	8	4	n/a	n/a	n/a	n/a	n/a
472.68	n/a	PROB	236340	n/a	LTP240	ltpFR	13	n/a	n/a	n/a	n/a	n/a	n/a	11	7	3	1	n/a	n/a	n/a	n/a	n/a
473.844	n/a	PROB	236922	n/a	LTP240	ltpFR	13	n/a	n/a	n/a	n/a	n/a	n/a	15	5	3	7	n/a	n/a	n/a	n/a	n/a
474.946	n/a	STOP	237473	n/a	LTP240	ltpFR	13	n/a	n/a	n/a	n/a	n/a	n/a	n/a	n/a	n/a	n/a	n/a	n/a	n/a	n/a	n/a
476.658	n/a	WORD	238329	wordpools/wasnorm_wordpool_less_exclusions.txt	LTP240	ltpFR	13	1	1	MAID	856	n/a	1	n/a	0	0	0	0	0.5869140625	0.422607421875	lower	../fonts/zerothre.ttf
479.67	n/a	START	239835	n/a	LTP240	ltpFR	13	n/a	n/a	n/a	n/a	n/a	n/a	n/a	n/a	n/a	n/a	n/a	n/a	n/a	n/a	n/a
480.602	n/a	PROB	240301	n/a	LTP240	ltpFR	13	n/a	n/a	n/a	n/a	n/a	n/a	13	3	1	9	n/a	n/a	n/a	n/a	n/a
482.464	n/a	PROB	241232	n/a	LTP240	ltpFR	13	n/a	n/a	n/a	n/a	n/a	n/a	13	3	8	2	n/a	n/a	n/a	n/a	n/a
483.846	n/a	PROB	241923	n/a	LTP240	ltpFR	13	n/a	n/a	n/a	n/a	n/a	n/a	14	5	5	4	n/a	n/a	n/a	n/a	n/a
485.228	n/a	PROB	242614	n/a	LTP240	ltpFR	13	n/a	n/a	n/a	n/a	n/a	n/a	19	5	7	7	n/a	n/a	n/a	n/a	n/a
487.61	n/a	STOP	243805	n/a	LTP240	ltpFR	13	n/a	n/a	n/a	n/a	n/a	n/a	n/a	n/a	n/a	n/a	n/a	n/a	n/a	n/a	n/a
488.69	n/a	WORD	244345	wordpools/wasnorm_wordpool_less_exclusions.txt	LTP240	ltpFR	13	1	1	EAR	513	n/a	0	n/a	0	0	0	0	0.5869140625	0.422607421875	lower	../fonts/zerothre.ttf
491.702	n/a	START	245851	n/a	LTP240	ltpFR	13	n/a	n/a	n/a	n/a	n/a	n/a	n/a	n/a	n/a	n/a	n/a	n/a	n/a	n/a	n/a
492.516	n/a	PROB	246258	n/a	LTP240	ltpFR	13	n/a	n/a	n/a	n/a	n/a	n/a	10	5	2	3	n/a	n/a	n/a	n/a	n/a
494.032	n/a	PROB	247016	n/a	LTP240	ltpFR	13	n/a	n/a	n/a	n/a	n/a	n/a	13	1	6	6	n/a	n/a	n/a	n/a	n/a
495.394	n/a	PROB	247697	n/a	LTP240	ltpFR	13	n/a	n/a	n/a	n/a	n/a	n/a	14	4	6	4	n/a	n/a	n/a	n/a	n/a
496.694	n/a	PROB	248347	n/a	LTP240	ltpFR	13	n/a	n/a	n/a	n/a	n/a	n/a	6	1	4	1	n/a	n/a	n/a	n/a	n/a
499.546	n/a	STOP	249773	n/a	LTP240	ltpFR	13	n/a	n/a	n/a	n/a	n/a	n/a	n/a	n/a	n/a	n/a	n/a	n/a	n/a	n/a	n/a
500.672	n/a	WORD	250336	wordpools/wasnorm_wordpool_less_exclusions.txt	LTP240	ltpFR	13	1	1	GUEST	669	n/a	1	n/a	0	0	0	0	0.5869140625	0.422607421875	lower	../fonts/zerothre.ttf
503.684	n/a	START	251842	n/a	LTP240	ltpFR	13	n/a	n/a	n/a	n/a	n/a	n/a	n/a	n/a	n/a	n/a	n/a	n/a	n/a	n/a	n/a
504.666	n/a	PROB	252333	n/a	LTP240	ltpFR	13	n/a	n/a	n/a	n/a	n/a	n/a	8	6	1	1	n/a	n/a	n/a	n/a	n/a
506.146	n/a	PROB	253073	n/a	LTP240	ltpFR	13	n/a	n/a	n/a	n/a	n/a	n/a	16	4	8	4	n/a	n/a	n/a	n/a	n/a
508.376	n/a	PROB	254188	n/a	LTP240	ltpFR	13	n/a	n/a	n/a	n/a	n/a	n/a	9	4	4	1	n/a	n/a	n/a	n/a	n/a
510.024	n/a	PROB	255012	n/a	LTP240	ltpFR	13	n/a	n/a	n/a	n/a	n/a	n/a	14	5	5	4	n/a	n/a	n/a	n/a	n/a
511.282	n/a	STOP	255641	n/a	LTP240	ltpFR	13	n/a	n/a	n/a	n/a	n/a	n/a	n/a	n/a	n/a	n/a	n/a	n/a	n/a	n/a	n/a
512.502	n/a	WORD	256251	wordpools/wasnorm_wordpool_less_exclusions.txt	LTP240	ltpFR	13	1	1	DUST	508	n/a	0	n/a	0	0	0	0	0.5869140625	0.422607421875	lower	../fonts/zerothre.ttf
515.516	n/a	START	257758	n/a	LTP240	ltpFR	13	n/a	n/a	n/a	n/a	n/a	n/a	n/a	n/a	n/a	n/a	n/a	n/a	n/a	n/a	n/a
516.698	n/a	PROB	258349	n/a	LTP240	ltpFR	13	n/a	n/a	n/a	n/a	n/a	n/a	16	2	5	9	n/a	n/a	n/a	n/a	n/a
518.362	n/a	PROB	259181	n/a	LTP240	ltpFR	13	n/a	n/a	n/a	n/a	n/a	n/a	15	7	1	7	n/a	n/a	n/a	n/a	n/a
519.842	n/a	PROB	259921	n/a	LTP240	ltpFR	13	n/a	n/a	n/a	n/a	n/a	n/a	18	9	2	7	n/a	n/a	n/a	n/a	n/a
521.806	n/a	PROB	260903	n/a	LTP240	ltpFR	13	n/a	n/a	n/a	n/a	n/a	n/a	10	1	8	1	n/a	n/a	n/a	n/a	n/a
522.994	n/a	STOP	261497	n/a	LTP240	ltpFR	13	n/a	n/a	n/a	n/a	n/a	n/a	n/a	n/a	n/a	n/a	n/a	n/a	n/a	n/a	n/a
524.37	n/a	WORD	262185	wordpools/wasnorm_wordpool_less_exclusions.txt	LTP240	ltpFR	13	1	1	VENT	1556	n/a	0	n/a	0	0	0	0	0.5869140625	0.422607421875	lower	../fonts/zerothre.ttf
527.382	n/a	START	263691	n/a	LTP240	ltpFR	13	n/a	n/a	n/a	n/a	n/a	n/a	n/a	n/a	n/a	n/a	n/a	n/a	n/a	n/a	n/a
528.428	n/a	PROB	264214	n/a	LTP240	ltpFR	13	n/a	n/a	n/a	n/a	n/a	n/a	15	7	1	7	n/a	n/a	n/a	n/a	n/a
529.762	n/a	PROB	264881	n/a	LTP240	ltpFR	13	n/a	n/a	n/a	n/a	n/a	n/a	10	5	2	3	n/a	n/a	n/a	n/a	n/a
531.126	n/a	PROB	265563	n/a	LTP240	ltpFR	13	n/a	n/a	n/a	n/a	n/a	n/a	13	5	3	5	n/a	n/a	n/a	n/a	n/a
532.44	n/a	PROB	266220	n/a	LTP240	ltpFR	13	n/a	n/a	n/a	n/a	n/a	n/a	10	4	2	4	n/a	n/a	n/a	n/a	n/a
533.898	n/a	STOP	266949	n/a	LTP240	ltpFR	13	n/a	n/a	n/a	n/a	n/a	n/a	n/a	n/a	n/a	n/a	n/a	n/a	n/a	n/a	n/a
536.252	n/a	WORD	268126	wordpools/wasnorm_wordpool_less_exclusions.txt	LTP240	ltpFR	13	1	1	DRIVER	499	n/a	1	n/a	0	0	0	0	0.5869140625	0.422607421875	lower	../fonts/zerothre.ttf
539.264	n/a	START	269632	n/a	LTP240	ltpFR	13	n/a	n/a	n/a	n/a	n/a	n/a	n/a	n/a	n/a	n/a	n/a	n/a	n/a	n/a	n/a
540.362	n/a	PROB	270181	n/a	LTP240	ltpFR	13	n/a	n/a	n/a	n/a	n/a	n/a	10	2	4	4	n/a	n/a	n/a	n/a	n/a
542.742	n/a	PROB	271371	n/a	LTP240	ltpFR	13	n/a	n/a	n/a	n/a	n/a	n/a	18	8	2	8	n/a	n/a	n/a	n/a	n/a
544.158	n/a	PROB	272079	n/a	LTP240	ltpFR	13	n/a	n/a	n/a	n/a	n/a	n/a	17	7	5	5	n/a	n/a	n/a	n/a	n/a
547.266	n/a	STOP	273633	n/a	LTP240	ltpFR	13	n/a	n/a	n/a	n/a	n/a	n/a	n/a	n/a	n/a	n/a	n/a	n/a	n/a	n/a	n/a
548.384	n/a	WORD	274192	wordpools/wasnorm_wordpool_less_exclusions.txt	LTP240	ltpFR	13	1	0	BATTERY	101	n/a	0	n/a	0	0	0	1	0.412841796875	0.57763671875	upper	../fonts/amplitud.ttf
551.396	n/a	START	275698	n/a	LTP240	ltpFR	13	n/a	n/a	n/a	n/a	n/a	n/a	n/a	n/a	n/a	n/a	n/a	n/a	n/a	n/a	n/a
552.212	n/a	PROB	276106	n/a	LTP240	ltpFR	13	n/a	n/a	n/a	n/a	n/a	n/a	8	1	3	4	n/a	n/a	n/a	n/a	n/a
553.81	n/a	PROB	276905	n/a	LTP240	ltpFR	13	n/a	n/a	n/a	n/a	n/a	n/a	13	3	6	4	n/a	n/a	n/a	n/a	n/a
555.274	n/a	PROB	277637	n/a	LTP240	ltpFR	13	n/a	n/a	n/a	n/a	n/a	n/a	16	5	9	2	n/a	n/a	n/a	n/a	n/a
557.47	n/a	PROB	278735	n/a	LTP240	ltpFR	13	n/a	n/a	n/a	n/a	n/a	n/a	12	6	1	5	n/a	n/a	n/a	n/a	n/a
558.944	n/a	STOP	279472	n/a	LTP240	ltpFR	13	n/a	n/a	n/a	n/a	n/a	n/a	n/a	n/a	n/a	n/a	n/a	n/a	n/a	n/a	n/a
560.25	n/a	WORD	280125	wordpools/wasnorm_wordpool_less_exclusions.txt	LTP240	ltpFR	13	1	0	FELLOW	558	n/a	1	n/a	0	0	0	1	0.412841796875	0.57763671875	upper	../fonts/amplitud.ttf
563.262	n/a	START	281631	n/a	LTP240	ltpFR	13	n/a	n/a	n/a	n/a	n/a	n/a	n/a	n/a	n/a	n/a	n/a	n/a	n/a	n/a	n/a
564.46	n/a	PROB	282230	n/a	LTP240	ltpFR	13	n/a	n/a	n/a	n/a	n/a	n/a	13	6	6	1	n/a	n/a	n/a	n/a	n/a
565.758	n/a	PROB	282879	n/a	LTP240	ltpFR	13	n/a	n/a	n/a	n/a	n/a	n/a	16	6	1	9	n/a	n/a	n/a	n/a	n/a
567.124	n/a	PROB	283562	n/a	LTP240	ltpFR	13	n/a	n/a	n/a	n/a	n/a	n/a	8	1	3	4	n/a	n/a	n/a	n/a	n/a
571.262	n/a	STOP	285631	n/a	LTP240	ltpFR	13	n/a	n/a	n/a	n/a	n/a	n/a	n/a	n/a	n/a	n/a	n/a	n/a	n/a	n/a	n/a
573.038	n/a	REC_START	286519	n/a	LTP240	ltpFR	13	1	n/a	n/a	n/a	n/a	n/a	n/a	0	0	0	n/a	n/a	n/a	n/a	n/a
576.072	n/a	REC_WORD	288036	wordpools/wasnorm_wordpool_less_exclusions.txt	LTP240	ltpFR	13	1	0	VACUUM	1543	n/a	1	n/a	0	0	0	n/a	n/a	n/a	n/a	n/a
577.254	n/a	REC_WORD	288627	wordpools/wasnorm_wordpool_less_exclusions.txt	LTP240	ltpFR	13	1	0	TOWEL	1489	n/a	1	n/a	0	0	0	n/a	n/a	n/a	n/a	n/a
581.49	n/a	REC_WORD	290745	wordpools/wasnorm_wordpool_less_exclusions.txt	LTP240	ltpFR	13	1	1	MAID	856	n/a	1	n/a	0	0	0	n/a	n/a	n/a	n/a	n/a
583.116	n/a	REC_WORD	291558	wordpools/wasnorm_wordpool_less_exclusions.txt	LTP240	ltpFR	13	1	1	DRIVER	499	n/a	1	n/a	0	0	0	n/a	n/a	n/a	n/a	n/a
587.318	n/a	REC_WORD	293659	wordpools/wasnorm_wordpool_less_exclusions.txt	LTP240	ltpFR	13	1	0	FELLOW	558	n/a	1	n/a	0	0	0	n/a	n/a	n/a	n/a	n/a
591.216	n/a	REC_WORD	295608	wordpools/wasnorm_wordpool_less_exclusions.txt	LTP240	ltpFR	13	1	1	EAR	513	n/a	0	n/a	0	0	0	n/a	n/a	n/a	n/a	n/a
606.208	n/a	REC_WORD	303104	wordpools/wasnorm_wordpool_less_exclusions.txt	LTP240	ltpFR	13	1	1	SAP	1233	n/a	0	n/a	0	0	0	n/a	n/a	n/a	n/a	n/a
620.496	n/a	REC_WORD	310248	wordpools/wasnorm_wordpool_less_exclusions.txt	LTP240	ltpFR	13	1	1	GUEST	669	n/a	1	n/a	0	0	0	n/a	n/a	n/a	n/a	n/a
629.086	n/a	REC_WORD	314543	wordpools/wasnorm_wordpool_less_exclusions.txt	LTP240	ltpFR	13	1	0	BATTERY	101	n/a	0	n/a	0	0	0	n/a	n/a	n/a	n/a	n/a
660.086	n/a	WORD	330043	wordpools/wasnorm_wordpool_less_exclusions.txt	LTP240	ltpFR	13	2	0	MARBLE	867	n/a	0	n/a	0	0	0	1	0.412841796875	0.57763671875	upper	../fonts/amplitud.ttf
664.296	n/a	WORD	332148	wordpools/wasnorm_wordpool_less_exclusions.txt	LTP240	ltpFR	13	2	0	MOP	916	n/a	1	n/a	0	0	0	1	0.412841796875	0.57763671875	upper	../fonts/amplitud.ttf
668.274	n/a	WORD	334137	wordpools/wasnorm_wordpool_less_exclusions.txt	LTP240	ltpFR	13	2	0	SCARF	1246	n/a	0	n/a	0	0	0	1	0.412841796875	0.57763671875	upper	../fonts/amplitud.ttf
672.45	n/a	WORD	336225	wordpools/wasnorm_wordpool_less_exclusions.txt	LTP240	ltpFR	13	2	0	CAPTAIN	239	n/a	1	n/a	0	0	0	1	0.412841796875	0.57763671875	upper	../fonts/amplitud.ttf
676.394	n/a	WORD	338197	wordpools/wasnorm_wordpool_less_exclusions.txt	LTP240	ltpFR	13	2	0	SAILOR	1223	n/a	1	n/a	0	0	0	1	0.412841796875	0.57763671875	upper	../fonts/amplitud.ttf
680.372	n/a	WORD	340186	wordpools/wasnorm_wordpool_less_exclusions.txt	LTP240	ltpFR	13	2	0	COCOON	339	n/a	0	n/a	0	0	0	1	0.412841796875	0.57763671875	upper	../fonts/amplitud.ttf
684.55	n/a	WORD	342275	wordpools/wasnorm_wordpool_less_exclusions.txt	LTP240	ltpFR	13	2	0	CHIME	300	n/a	1	n/a	0	0	0	1	0.412841796875	0.57763671875	upper	../fonts/amplitud.ttf
688.46	n/a	WORD	344230	wordpools/wasnorm_wordpool_less_exclusions.txt	LTP240	ltpFR	13	2	0	PITCHFORK	1078	n/a	1	n/a	0	0	0	1	0.412841796875	0.57763671875	upper	../fonts/amplitud.ttf
692.588	n/a	WORD	346294	wordpools/wasnorm_wordpool_less_exclusions.txt	LTP240	ltpFR	13	2	0	OFFICE	972	n/a	1	n/a	0	0	0	1	0.412841796875	0.57763671875	upper	../fonts/amplitud.ttf
696.48	n/a	WORD	348240	wordpools/wasnorm_wordpool_less_exclusions.txt	LTP240	ltpFR	13	2	0	ARCHITECT	36	n/a	1	n/a	0	0	0	1	0.412841796875	0.57763671875	upper	../fonts/amplitud.ttf
700.676	n/a	WORD	350338	wordpools/wasnorm_wordpool_less_exclusions.txt	LTP240	ltpFR	13	2	0	EUROPE	541	n/a	1	n/a	0	0	0	1	0.412841796875	0.57763671875	upper	../fonts/amplitud.ttf
704.57	n/a	WORD	352285	wordpools/wasnorm_wordpool_less_exclusions.txt	LTP240	ltpFR	13	2	0	SKATE	1313	n/a	1	n/a	0	0	0	1	0.412841796875	0.57763671875	upper	../fonts/amplitud.ttf
708.396	n/a	WORD	354198	wordpools/wasnorm_wordpool_less_exclusions.txt	LTP240	ltpFR	13	2	0	TABLET	1427	n/a	0	n/a	0	0	0	1	0.412841796875	0.57763671875	upper	../fonts/amplitud.ttf
712.49	n/a	WORD	356245	wordpools/wasnorm_wordpool_less_exclusions.txt	LTP240	ltpFR	13	2	0	BUTTERFLY	206	n/a	0	n/a	0	0	0	1	0.412841796875	0.57763671875	upper	../fonts/amplitud.ttf
716.552	n/a	WORD	358276	wordpools/wasnorm_wordpool_less_exclusions.txt	LTP240	ltpFR	13	2	0	DOUGH	489	n/a	0	n/a	0	0	0	1	0.412841796875	0.57763671875	upper	../fonts/amplitud.ttf
720.646	n/a	WORD	360323	wordpools/wasnorm_wordpool_less_exclusions.txt	LTP240	ltpFR	13	2	0	VITAMIN	1574	n/a	0	n/a	0	0	0	1	0.412841796875	0.57763671875	upper	../fonts/amplitud.ttf
723.658	n/a	START	361829	n/a	LTP240	ltpFR	13	n/a	n/a	n/a	n/a	n/a	n/a	n/a	n/a	n/a	n/a	n/a	n/a	n/a	n/a	n/a
724.674	n/a	PROB	362337	n/a	LTP240	ltpFR	13	n/a	n/a	n/a	n/a	n/a	n/a	19	6	6	7	n/a	n/a	n/a	n/a	n/a
727.452	n/a	PROB	363726	n/a	LTP240	ltpFR	13	n/a	n/a	n/a	n/a	n/a	n/a	26	9	9	8	n/a	n/a	n/a	n/a	n/a
729.282	n/a	PROB	364641	n/a	LTP240	ltpFR	13	n/a	n/a	n/a	n/a	n/a	n/a	13	3	8	2	n/a	n/a	n/a	n/a	n/a
730.612	n/a	STOP	365306	n/a	LTP240	ltpFR	13	n/a	n/a	n/a	n/a	n/a	n/a	n/a	n/a	n/a	n/a	n/a	n/a	n/a	n/a	n/a
733.544	n/a	REC_START	366772	n/a	LTP240	ltpFR	13	2	n/a	n/a	n/a	n/a	n/a	n/a	0	0	0	n/a	n/a	n/a	n/a	n/a
736.702	n/a	REC_WORD	368351	wordpools/wasnorm_wordpool_less_exclusions.txt	LTP240	ltpFR	13	2	0	BUTTERFLY	206	n/a	0	n/a	0	0	0	n/a	n/a	n/a	n/a	n/a
738.018	n/a	REC_WORD	369009	wordpools/wasnorm_wordpool_less_exclusions.txt	LTP240	ltpFR	13	2	0	COCOON	339	n/a	0	n/a	0	0	0	n/a	n/a	n/a	n/a	n/a
740.118	n/a	REC_WORD	370059	wordpools/wasnorm_wordpool_less_exclusions.txt	LTP240	ltpFR	13	2	0	MARBLE	867	n/a	0	n/a	0	0	0	n/a	n/a	n/a	n/a	n/a
741.41	n/a	REC_WORD	370705	wordpools/wasnorm_wordpool_less_exclusions.txt	LTP240	ltpFR	13	2	0	SKATE	1313	n/a	1	n/a	0	0	0	n/a	n/a	n/a	n/a	n/a
742.972	n/a	REC_WORD	371486	wordpools/wasnorm_wordpool_less_exclusions.txt	LTP240	ltpFR	13	2	0	EUROPE	541	n/a	1	n/a	0	0	0	n/a	n/a	n/a	n/a	n/a
744.16	n/a	REC_WORD	372080	wordpools/wasnorm_wordpool_less_exclusions.txt	LTP240	ltpFR	13	2	0	MOP	916	n/a	1	n/a	0	0	0	n/a	n/a	n/a	n/a	n/a
745.288	n/a	REC_WORD	372644	wordpools/wasnorm_wordpool_less_exclusions.txt	LTP240	ltpFR	13	2	0	PITCHFORK	1078	n/a	1	n/a	0	0	0	n/a	n/a	n/a	n/a	n/a
749.736	n/a	REC_WORD	374868	wordpools/wasnorm_wordpool_less_exclusions.txt	LTP240	ltpFR	13	2	0	TABLET	1427	n/a	0	n/a	0	0	0	n/a	n/a	n/a	n/a	n/a
775.244	n/a	REC_WORD	387622	wordpools/wasnorm_wordpool_less_exclusions.txt	LTP240	ltpFR	13	2	0	SCARF	1246	n/a	0	n/a	0	0	0	n/a	n/a	n/a	n/a	n/a
822.744	n/a	START	411372	n/a	LTP240	ltpFR	13	n/a	n/a	n/a	n/a	n/a	n/a	n/a	n/a	n/a	n/a	n/a	n/a	n/a	n/a	n/a
824.258	n/a	PROB	412129	n/a	LTP240	ltpFR	13	n/a	n/a	n/a	n/a	n/a	n/a	20	8	4	8	n/a	n/a	n/a	n/a	n/a
826.806	n/a	PROB	413403	n/a	LTP240	ltpFR	13	n/a	n/a	n/a	n/a	n/a	n/a	14	5	7	2	n/a	n/a	n/a	n/a	n/a
829.036	n/a	PROB	414518	n/a	LTP240	ltpFR	13	n/a	n/a	n/a	n/a	n/a	n/a	18	9	8	1	n/a	n/a	n/a	n/a	n/a
830.342	n/a	STOP	415171	n/a	LTP240	ltpFR	13	n/a	n/a	n/a	n/a	n/a	n/a	n/a	n/a	n/a	n/a	n/a	n/a	n/a	n/a	n/a
831.648	n/a	WORD	415824	wordpools/wasnorm_wordpool_less_exclusions.txt	LTP240	ltpFR	13	3	0	BASKETBALL	96	n/a	1	n/a	0	0	0	1	0.412841796875	0.57763671875	upper	../fonts/amplitud.ttf
834.662	n/a	START	417331	n/a	LTP240	ltpFR	13	n/a	n/a	n/a	n/a	n/a	n/a	n/a	n/a	n/a	n/a	n/a	n/a	n/a	n/a	n/a
835.56	n/a	PROB	417780	n/a	LTP240	ltpFR	13	n/a	n/a	n/a	n/a	n/a	n/a	21	6	9	6	n/a	n/a	n/a	n/a	n/a
838.722	n/a	PROB	419361	n/a	LTP240	ltpFR	13	n/a	n/a	n/a	n/a	n/a	n/a	12	2	3	7	n/a	n/a	n/a	n/a	n/a
842.66	n/a	STOP	421330	n/a	LTP240	ltpFR	13	n/a	n/a	n/a	n/a	n/a	n/a	n/a	n/a	n/a	n/a	n/a	n/a	n/a	n/a	n/a
843.83	n/a	WORD	421915	wordpools/wasnorm_wordpool_less_exclusions.txt	LTP240	ltpFR	13	3	0	RACCOON	1153	n/a	1	n/a	0	0	0	1	0.412841796875	0.57763671875	upper	../fonts/amplitud.ttf
846.844	n/a	START	423422	n/a	LTP240	ltpFR	13	n/a	n/a	n/a	n/a	n/a	n/a	n/a	n/a	n/a	n/a	n/a	n/a	n/a	n/a	n/a
847.992	n/a	PROB	423996	n/a	LTP240	ltpFR	13	n/a	n/a	n/a	n/a	n/a	n/a	20	5	7	8	n/a	n/a	n/a	n/a	n/a
849.854	n/a	PROB	424927	n/a	LTP240	ltpFR	13	n/a	n/a	n/a	n/a	n/a	n/a	5	1	3	1	n/a	n/a	n/a	n/a	n/a
851.652	n/a	PROB	425826	n/a	LTP240	ltpFR	13	n/a	n/a	n/a	n/a	n/a	n/a	15	7	4	4	n/a	n/a	n/a	n/a	n/a
853.446	n/a	STOP	426723	n/a	LTP240	ltpFR	13	n/a	n/a	n/a	n/a	n/a	n/a	n/a	n/a	n/a	n/a	n/a	n/a	n/a	n/a	n/a
855.746	n/a	WORD	427873	wordpools/wasnorm_wordpool_less_exclusions.txt	LTP240	ltpFR	13	3	1	ELECTRICIAN	521	n/a	1	n/a	0	0	0	0	0.5869140625	0.422607421875	lower	../fonts/zerothre.ttf
858.758	n/a	START	429379	n/a	LTP240	ltpFR	13	n/a	n/a	n/a	n/a	n/a	n/a	n/a	n/a	n/a	n/a	n/a	n/a	n/a	n/a	n/a
859.84	n/a	PROB	429920	n/a	LTP240	ltpFR	13	n/a	n/a	n/a	n/a	n/a	n/a	20	9	4	7	n/a	n/a	n/a	n/a	n/a
861.838	n/a	PROB	430919	n/a	LTP240	ltpFR	13	n/a	n/a	n/a	n/a	n/a	n/a	20	7	7	6	n/a	n/a	n/a	n/a	n/a
863.868	n/a	PROB	431934	n/a	LTP240	ltpFR	13	n/a	n/a	n/a	n/a	n/a	n/a	14	3	5	6	n/a	n/a	n/a	n/a	n/a
866.414	n/a	STOP	433207	n/a	LTP240	ltpFR	13	n/a	n/a	n/a	n/a	n/a	n/a	n/a	n/a	n/a	n/a	n/a	n/a	n/a	n/a	n/a
867.944	n/a	WORD	433972	wordpools/wasnorm_wordpool_less_exclusions.txt	LTP240	ltpFR	13	3	1	HUMAN	726	n/a	1	n/a	0	0	0	0	0.5869140625	0.422607421875	lower	../fonts/zerothre.ttf
870.958	n/a	START	435479	n/a	LTP240	ltpFR	13	n/a	n/a	n/a	n/a	n/a	n/a	n/a	n/a	n/a	n/a	n/a	n/a	n/a	n/a	n/a
871.872	n/a	PROB	435936	n/a	LTP240	ltpFR	13	n/a	n/a	n/a	n/a	n/a	n/a	13	4	5	4	n/a	n/a	n/a	n/a	n/a
875.034	n/a	PROB	437517	n/a	LTP240	ltpFR	13	n/a	n/a	n/a	n/a	n/a	n/a	21	8	6	7	n/a	n/a	n/a	n/a	n/a
877.646	n/a	STOP	438823	n/a	LTP240	ltpFR	13	n/a	n/a	n/a	n/a	n/a	n/a	n/a	n/a	n/a	n/a	n/a	n/a	n/a	n/a	n/a
879.994	n/a	WORD	439997	wordpools/wasnorm_wordpool_less_exclusions.txt	LTP240	ltpFR	13	3	1	BURGLAR	200	n/a	1	n/a	0	0	0	0	0.5869140625	0.422607421875	lower	../fonts/zerothre.ttf
883.006	n/a	START	441503	n/a	LTP240	ltpFR	13	n/a	n/a	n/a	n/a	n/a	n/a	n/a	n/a	n/a	n/a	n/a	n/a	n/a	n/a	n/a
884.07	n/a	PROB	442035	n/a	LTP240	ltpFR	13	n/a	n/a	n/a	n/a	n/a	n/a	12	7	4	1	n/a	n/a	n/a	n/a	n/a
886.1	n/a	PROB	443050	n/a	LTP240	ltpFR	13	n/a	n/a	n/a	n/a	n/a	n/a	16	3	6	7	n/a	n/a	n/a	n/a	n/a
887.616	n/a	PROB	443808	n/a	LTP240	ltpFR	13	n/a	n/a	n/a	n/a	n/a	n/a	12	3	3	6	n/a	n/a	n/a	n/a	n/a
889.518	n/a	STOP	444759	n/a	LTP240	ltpFR	13	n/a	n/a	n/a	n/a	n/a	n/a	n/a	n/a	n/a	n/a	n/a	n/a	n/a	n/a	n/a
891.926	n/a	WORD	445963	wordpools/wasnorm_wordpool_less_exclusions.txt	LTP240	ltpFR	13	3	1	STATUE	1374	n/a	0	n/a	0	0	0	0	0.5869140625	0.422607421875	lower	../fonts/zerothre.ttf
894.938	n/a	START	447469	n/a	LTP240	ltpFR	13	n/a	n/a	n/a	n/a	n/a	n/a	n/a	n/a	n/a	n/a	n/a	n/a	n/a	n/a	n/a
895.752	n/a	PROB	447876	n/a	LTP240	ltpFR	13	n/a	n/a	n/a	n/a	n/a	n/a	14	6	2	6	n/a	n/a	n/a	n/a	n/a
897.734	n/a	PROB	448867	n/a	LTP240	ltpFR	13	n/a	n/a	n/a	n/a	n/a	n/a	20	6	5	9	n/a	n/a	n/a	n/a	n/a
899.732	n/a	PROB	449866	n/a	LTP240	ltpFR	13	n/a	n/a	n/a	n/a	n/a	n/a	22	5	9	8	n/a	n/a	n/a	n/a	n/a
902.16	n/a	STOP	451080	n/a	LTP240	ltpFR	13	n/a	n/a	n/a	n/a	n/a	n/a	n/a	n/a	n/a	n/a	n/a	n/a	n/a	n/a	n/a
903.842	n/a	WORD	451921	wordpools/wasnorm_wordpool_less_exclusions.txt	LTP240	ltpFR	13	3	1	SCULPTURE	1258	n/a	0	n/a	0	0	0	0	0.5869140625	0.422607421875	lower	../fonts/zerothre.ttf
906.854	n/a	START	453427	n/a	LTP240	ltpFR	13	n/a	n/a	n/a	n/a	n/a	n/a	n/a	n/a	n/a	n/a	n/a	n/a	n/a	n/a	n/a
907.952	n/a	PROB	453976	n/a	LTP240	ltpFR	13	n/a	n/a	n/a	n/a	n/a	n/a	14	3	4	9	n/a	n/a	n/a	n/a	n/a
910.898	n/a	PROB	455449	n/a	LTP240	ltpFR	13	n/a	n/a	n/a	n/a	n/a	n/a	18	7	6	5	n/a	n/a	n/a	n/a	n/a
913.952	n/a	STOP	456976	n/a	LTP240	ltpFR	13	n/a	n/a	n/a	n/a	n/a	n/a	n/a	n/a	n/a	n/a	n/a	n/a	n/a	n/a	n/a
915.84	n/a	WORD	457920	wordpools/wasnorm_wordpool_less_exclusions.txt	LTP240	ltpFR	13	3	1	SHEARS	1276	n/a	0	n/a	0	0	0	0	0.5869140625	0.422607421875	lower	../fonts/zerothre.ttf
918.854	n/a	START	459427	n/a	LTP240	ltpFR	13	n/a	n/a	n/a	n/a	n/a	n/a	n/a	n/a	n/a	n/a	n/a	n/a	n/a	n/a	n/a
919.752	n/a	PROB	459876	n/a	LTP240	ltpFR	13	n/a	n/a	n/a	n/a	n/a	n/a	14	4	2	8	n/a	n/a	n/a	n/a	n/a
921.732	n/a	PROB	460866	n/a	LTP240	ltpFR	13	n/a	n/a	n/a	n/a	n/a	n/a	12	3	2	7	n/a	n/a	n/a	n/a	n/a
923.164	n/a	PROB	461582	n/a	LTP240	ltpFR	13	n/a	n/a	n/a	n/a	n/a	n/a	20	7	5	8	n/a	n/a	n/a	n/a	n/a
925.31	n/a	PROB	462655	n/a	LTP240	ltpFR	13	n/a	n/a	n/a	n/a	n/a	n/a	18	8	6	4	n/a	n/a	n/a	n/a	n/a
926.672	n/a	STOP	463336	n/a	LTP240	ltpFR	13	n/a	n/a	n/a	n/a	n/a	n/a	n/a	n/a	n/a	n/a	n/a	n/a	n/a	n/a	n/a
927.74	n/a	WORD	463870	wordpools/wasnorm_wordpool_less_exclusions.txt	LTP240	ltpFR	13	3	0	TOENAIL	1474	n/a	0	n/a	0	0	0	1	0.412841796875	0.57763671875	upper	../fonts/amplitud.ttf
930.752	n/a	START	465376	n/a	LTP240	ltpFR	13	n/a	n/a	n/a	n/a	n/a	n/a	n/a	n/a	n/a	n/a	n/a	n/a	n/a	n/a	n/a
931.966	n/a	PROB	465983	n/a	LTP240	ltpFR	13	n/a	n/a	n/a	n/a	n/a	n/a	11	8	2	1	n/a	n/a	n/a	n/a	n/a
933.446	n/a	PROB	466723	n/a	LTP240	ltpFR	13	n/a	n/a	n/a	n/a	n/a	n/a	21	8	6	7	n/a	n/a	n/a	n/a	n/a
938.256	n/a	STOP	469128	n/a	LTP240	ltpFR	13	n/a	n/a	n/a	n/a	n/a	n/a	n/a	n/a	n/a	n/a	n/a	n/a	n/a	n/a	n/a
939.622	n/a	WORD	469811	wordpools/wasnorm_wordpool_less_exclusions.txt	LTP240	ltpFR	13	3	0	VALVE	1546	n/a	0	n/a	0	0	0	1	0.412841796875	0.57763671875	upper	../fonts/amplitud.ttf
942.634	n/a	START	471317	n/a	LTP240	ltpFR	13	n/a	n/a	n/a	n/a	n/a	n/a	n/a	n/a	n/a	n/a	n/a	n/a	n/a	n/a	n/a
943.582	n/a	PROB	471791	n/a	LTP240	ltpFR	13	n/a	n/a	n/a	n/a	n/a	n/a	8	2	4	2	n/a	n/a	n/a	n/a	n/a
945.496	n/a	PROB	472748	n/a	LTP240	ltpFR	13	n/a	n/a	n/a	n/a	n/a	n/a	16	3	6	7	n/a	n/a	n/a	n/a	n/a
946.978	n/a	PROB	473489	n/a	LTP240	ltpFR	13	n/a	n/a	n/a	n/a	n/a	n/a	15	8	2	5	n/a	n/a	n/a	n/a	n/a
948.276	n/a	PROB	474138	n/a	LTP240	ltpFR	13	n/a	n/a	n/a	n/a	n/a	n/a	14	9	2	3	n/a	n/a	n/a	n/a	n/a
949.92	n/a	STOP	474960	n/a	LTP240	ltpFR	13	n/a	n/a	n/a	n/a	n/a	n/a	n/a	n/a	n/a	n/a	n/a	n/a	n/a	n/a	n/a
951.52	n/a	WORD	475760	wordpools/wasnorm_wordpool_less_exclusions.txt	LTP240	ltpFR	13	3	0	OZONE	996	n/a	1	n/a	0	0	0	1	0.412841796875	0.57763671875	upper	../fonts/amplitud.ttf
954.532	n/a	START	477266	n/a	LTP240	ltpFR	13	n/a	n/a	n/a	n/a	n/a	n/a	n/a	n/a	n/a	n/a	n/a	n/a	n/a	n/a	n/a
955.448	n/a	PROB	477724	n/a	LTP240	ltpFR	13	n/a	n/a	n/a	n/a	n/a	n/a	19	7	7	5	n/a	n/a	n/a	n/a	n/a
957.928	n/a	PROB	478964	n/a	LTP240	ltpFR	13	n/a	n/a	n/a	n/a	n/a	n/a	10	6	2	2	n/a	n/a	n/a	n/a	n/a
959.642	n/a	PROB	479821	n/a	LTP240	ltpFR	13	n/a	n/a	n/a	n/a	n/a	n/a	15	6	4	5	n/a	n/a	n/a	n/a	n/a
960.94	n/a	PROB	480470	n/a	LTP240	ltpFR	13	n/a	n/a	n/a	n/a	n/a	n/a	11	3	1	7	n/a	n/a	n/a	n/a	n/a
962.128	n/a	STOP	481064	n/a	LTP240	ltpFR	13	n/a	n/a	n/a	n/a	n/a	n/a	n/a	n/a	n/a	n/a	n/a	n/a	n/a	n/a	n/a
963.37	n/a	WORD	481685	wordpools/wasnorm_wordpool_less_exclusions.txt	LTP240	ltpFR	13	3	0	TECHNICIAN	1443	n/a	1	n/a	0	0	0	1	0.412841796875	0.57763671875	upper	../fonts/amplitud.ttf
966.382	n/a	START	483191	n/a	LTP240	ltpFR	13	n/a	n/a	n/a	n/a	n/a	n/a	n/a	n/a	n/a	n/a	n/a	n/a	n/a	n/a	n/a
967.28	n/a	PROB	483640	n/a	LTP240	ltpFR	13	n/a	n/a	n/a	n/a	n/a	n/a	11	5	1	5	n/a	n/a	n/a	n/a	n/a
968.496	n/a	PROB	484248	n/a	LTP240	ltpFR	13	n/a	n/a	n/a	n/a	n/a	n/a	14	7	4	3	n/a	n/a	n/a	n/a	n/a
969.91	n/a	PROB	484955	n/a	LTP240	ltpFR	13	n/a	n/a	n/a	n/a	n/a	n/a	14	6	6	2	n/a	n/a	n/a	n/a	n/a
971.408	n/a	PROB	485704	n/a	LTP240	ltpFR	13	n/a	n/a	n/a	n/a	n/a	n/a	13	8	1	4	n/a	n/a	n/a	n/a	n/a
973.224	n/a	STOP	486612	n/a	LTP240	ltpFR	13	n/a	n/a	n/a	n/a	n/a	n/a	n/a	n/a	n/a	n/a	n/a	n/a	n/a	n/a	n/a
975.252	n/a	WORD	487626	wordpools/wasnorm_wordpool_less_exclusions.txt	LTP240	ltpFR	13	3	0	PARTY	1018	n/a	1	n/a	0	0	0	1	0.412841796875	0.57763671875	upper	../fonts/amplitud.ttf
978.266	n/a	START	489133	n/a	LTP240	ltpFR	13	n/a	n/a	n/a	n/a	n/a	n/a	n/a	n/a	n/a	n/a	n/a	n/a	n/a	n/a	n/a
979.148	n/a	PROB	489574	n/a	LTP240	ltpFR	13	n/a	n/a	n/a	n/a	n/a	n/a	17	9	2	6	n/a	n/a	n/a	n/a	n/a
981.776	n/a	PROB	490888	n/a	LTP240	ltpFR	13	n/a	n/a	n/a	n/a	n/a	n/a	12	3	4	5	n/a	n/a	n/a	n/a	n/a
986.266	n/a	STOP	493133	n/a	LTP240	ltpFR	13	n/a	n/a	n/a	n/a	n/a	n/a	n/a	n/a	n/a	n/a	n/a	n/a	n/a	n/a	n/a
987.302	n/a	WORD	493651	wordpools/wasnorm_wordpool_less_exclusions.txt	LTP240	ltpFR	13	3	0	HOOD	714	n/a	0	n/a	0	0	0	1	0.412841796875	0.57763671875	upper	../fonts/amplitud.ttf
990.314	n/a	START	495157	n/a	LTP240	ltpFR	13	n/a	n/a	n/a	n/a	n/a	n/a	n/a	n/a	n/a	n/a	n/a	n/a	n/a	n/a	n/a
991.512	n/a	PROB	495756	n/a	LTP240	ltpFR	13	n/a	n/a	n/a	n/a	n/a	n/a	8	1	3	4	n/a	n/a	n/a	n/a	n/a
993.326	n/a	PROB	496663	n/a	LTP240	ltpFR	13	n/a	n/a	n/a	n/a	n/a	n/a	14	7	6	1	n/a	n/a	n/a	n/a	n/a
995.656	n/a	PROB	497828	n/a	LTP240	ltpFR	13	n/a	n/a	n/a	n/a	n/a	n/a	14	3	3	8	n/a	n/a	n/a	n/a	n/a
997.576	n/a	STOP	498788	n/a	LTP240	ltpFR	13	n/a	n/a	n/a	n/a	n/a	n/a	n/a	n/a	n/a	n/a	n/a	n/a	n/a	n/a	n/a
999.284	n/a	WORD	499642	wordpools/wasnorm_wordpool_less_exclusions.txt	LTP240	ltpFR	13	3	1	VIDEO	1564	n/a	0	n/a	0	0	0	0	0.5869140625	0.422607421875	lower	../fonts/zerothre.ttf
1002.296	n/a	START	501148	n/a	LTP240	ltpFR	13	n/a	n/a	n/a	n/a	n/a	n/a	n/a	n/a	n/a	n/a	n/a	n/a	n/a	n/a	n/a
1003.162	n/a	PROB	501581	n/a	LTP240	ltpFR	13	n/a	n/a	n/a	n/a	n/a	n/a	15	9	5	1	n/a	n/a	n/a	n/a	n/a
1004.56	n/a	PROB	502280	n/a	LTP240	ltpFR	13	n/a	n/a	n/a	n/a	n/a	n/a	13	6	4	3	n/a	n/a	n/a	n/a	n/a
1006.008	n/a	PROB	503004	n/a	LTP240	ltpFR	13	n/a	n/a	n/a	n/a	n/a	n/a	14	9	2	3	n/a	n/a	n/a	n/a	n/a
1007.754	n/a	PROB	503877	n/a	LTP240	ltpFR	13	n/a	n/a	n/a	n/a	n/a	n/a	15	5	7	3	n/a	n/a	n/a	n/a	n/a
1009.504	n/a	STOP	504752	n/a	LTP240	ltpFR	13	n/a	n/a	n/a	n/a	n/a	n/a	n/a	n/a	n/a	n/a	n/a	n/a	n/a	n/a	n/a
1011.282	n/a	WORD	505641	wordpools/wasnorm_wordpool_less_exclusions.txt	LTP240	ltpFR	13	3	1	PRODUCER	1129	n/a	1	n/a	0	0	0	0	0.5869140625	0.422607421875	lower	../fonts/zerothre.ttf
1014.294	n/a	START	507147	n/a	LTP240	ltpFR	13	n/a	n/a	n/a	n/a	n/a	n/a	n/a	n/a	n/a	n/a	n/a	n/a	n/a	n/a	n/a
1015.326	n/a	PROB	507663	n/a	LTP240	ltpFR	13	n/a	n/a	n/a	n/a	n/a	n/a	13	3	6	4	n/a	n/a	n/a	n/a	n/a
1017.124	n/a	PROB	508562	n/a	LTP240	ltpFR	13	n/a	n/a	n/a	n/a	n/a	n/a	19	9	1	9	n/a	n/a	n/a	n/a	n/a
1018.52	n/a	PROB	509260	n/a	LTP240	ltpFR	13	n/a	n/a	n/a	n/a	n/a	n/a	20	9	8	3	n/a	n/a	n/a	n/a	n/a
1021.432	n/a	STOP	510716	n/a	LTP240	ltpFR	13	n/a	n/a	n/a	n/a	n/a	n/a	n/a	n/a	n/a	n/a	n/a	n/a	n/a	n/a	n/a
1024.198	n/a	REC_START	512099	n/a	LTP240	ltpFR	13	3	n/a	n/a	n/a	n/a	n/a	n/a	0	0	0	n/a	n/a	n/a	n/a	n/a
1034.522	n/a	REC_WORD	517261	wordpools/wasnorm_wordpool_less_exclusions.txt	LTP240	ltpFR	13	3	1	STATUE	1374	n/a	0	n/a	0	0	0	n/a	n/a	n/a	n/a	n/a
1036.384	n/a	REC_WORD	518192	wordpools/wasnorm_wordpool_less_exclusions.txt	LTP240	ltpFR	13	3	1	SCULPTURE	1258	n/a	0	n/a	0	0	0	n/a	n/a	n/a	n/a	n/a
1044.934	n/a	REC_WORD	522467	wordpools/wasnorm_wordpool_less_exclusions.txt	LTP240	ltpFR	13	3	1	PRODUCER	1129	n/a	1	n/a	0	0	0	n/a	n/a	n/a	n/a	n/a
1095.8	n/a	REC_WORD	547900	wordpools/wasnorm_wordpool_less_exclusions.txt	LTP240	ltpFR	13	3	0	VALVE	1546	n/a	0	n/a	0	0	0	n/a	n/a	n/a	n/a	n/a
1113.814	n/a	WORD	556907	wordpools/wasnorm_wordpool_less_exclusions.txt	LTP240	ltpFR	13	4	0	FREEWAY	603	n/a	1	n/a	0	0	0	1	0.412841796875	0.57763671875	upper	../fonts/amplitud.ttf
1117.892	n/a	WORD	558946	wordpools/wasnorm_wordpool_less_exclusions.txt	LTP240	ltpFR	13	4	0	MARINE	869	n/a	1	n/a	0	0	0	1	0.412841796875	0.57763671875	upper	../fonts/amplitud.ttf
1121.836	n/a	WORD	560918	wordpools/wasnorm_wordpool_less_exclusions.txt	LTP240	ltpFR	13	4	0	BATH	98	n/a	1	n/a	0	0	0	1	0.412841796875	0.57763671875	upper	../fonts/amplitud.ttf
1125.664	n/a	WORD	562832	wordpools/wasnorm_wordpool_less_exclusions.txt	LTP240	ltpFR	13	4	0	BATHTUB	100	n/a	1	n/a	0	0	0	1	0.412841796875	0.57763671875	upper	../fonts/amplitud.ttf
1129.558	n/a	WORD	564779	wordpools/wasnorm_wordpool_less_exclusions.txt	LTP240	ltpFR	13	4	0	CHIP	303	n/a	0	n/a	0	0	0	1	0.412841796875	0.57763671875	upper	../fonts/amplitud.ttf
1133.518	n/a	WORD	566759	wordpools/wasnorm_wordpool_less_exclusions.txt	LTP240	ltpFR	13	4	0	CAKE	219	n/a	1	n/a	0	0	0	1	0.412841796875	0.57763671875	upper	../fonts/amplitud.ttf
1137.562	n/a	WORD	568781	wordpools/wasnorm_wordpool_less_exclusions.txt	LTP240	ltpFR	13	4	0	CATHEDRAL	260	n/a	1	n/a	0	0	0	1	0.412841796875	0.57763671875	upper	../fonts/amplitud.ttf
1141.556	n/a	WORD	570778	wordpools/wasnorm_wordpool_less_exclusions.txt	LTP240	ltpFR	13	4	0	PIT	1077	n/a	0	n/a	0	0	0	1	0.412841796875	0.57763671875	upper	../fonts/amplitud.ttf
1145.45	n/a	WORD	572725	wordpools/wasnorm_wordpool_less_exclusions.txt	LTP240	ltpFR	13	4	0	BUCKET	184	n/a	1	n/a	0	0	0	1	0.412841796875	0.57763671875	upper	../fonts/amplitud.ttf
1149.662	n/a	WORD	574831	wordpools/wasnorm_wordpool_less_exclusions.txt	LTP240	ltpFR	13	4	0	CROSS	413	n/a	0	n/a	0	0	0	1	0.412841796875	0.57763671875	upper	../fonts/amplitud.ttf
1153.622	n/a	WORD	576811	wordpools/wasnorm_wordpool_less_exclusions.txt	LTP240	ltpFR	13	4	0	LOBSTER	837	n/a	1	n/a	0	0	0	1	0.412841796875	0.57763671875	upper	../fonts/amplitud.ttf
1157.75	n/a	WORD	578875	wordpools/wasnorm_wordpool_less_exclusions.txt	LTP240	ltpFR	13	4	0	BANANA	77	n/a	0	n/a	0	0	0	1	0.412841796875	0.57763671875	upper	../fonts/amplitud.ttf
1161.926	n/a	WORD	580963	wordpools/wasnorm_wordpool_less_exclusions.txt	LTP240	ltpFR	13	4	0	PREACHER	1119	n/a	1	n/a	0	0	0	1	0.412841796875	0.57763671875	upper	../fonts/amplitud.ttf
1165.87	n/a	WORD	582935	wordpools/wasnorm_wordpool_less_exclusions.txt	LTP240	ltpFR	13	4	0	COURSE	390	n/a	1	n/a	0	0	0	1	0.412841796875	0.57763671875	upper	../fonts/amplitud.ttf
1169.948	n/a	WORD	584974	wordpools/wasnorm_wordpool_less_exclusions.txt	LTP240	ltpFR	13	4	0	MOAT	903	n/a	1	n/a	0	0	0	1	0.412841796875	0.57763671875	upper	../fonts/amplitud.ttf
1173.776	n/a	WORD	586888	wordpools/wasnorm_wordpool_less_exclusions.txt	LTP240	ltpFR	13	4	0	WELL	1600	n/a	1	n/a	0	0	0	1	0.412841796875	0.57763671875	upper	../fonts/amplitud.ttf
1179.668	n/a	REC_START	589834	n/a	LTP240	ltpFR	13	4	n/a	n/a	n/a	n/a	n/a	n/a	0	0	0	n/a	n/a	n/a	n/a	n/a
1180.762	n/a	REC_WORD	590381	wordpools/wasnorm_wordpool_less_exclusions.txt	LTP240	ltpFR	13	4	0	MOAT	903	n/a	1	n/a	0	0	0	n/a	n/a	n/a	n/a	n/a
1181.418	n/a	REC_WORD	590709	wordpools/wasnorm_wordpool_less_exclusions.txt	LTP240	ltpFR	13	4	0	WELL	1600	n/a	1	n/a	0	0	0	n/a	n/a	n/a	n/a	n/a
1182.542	n/a	REC_WORD	591271	wordpools/wasnorm_wordpool_less_exclusions.txt	LTP240	ltpFR	13	4	0	PREACHER	1119	n/a	1	n/a	0	0	0	n/a	n/a	n/a	n/a	n/a
1183.45	n/a	REC_WORD	591725	wordpools/wasnorm_wordpool_less_exclusions.txt	LTP240	ltpFR	13	4	0	CATHEDRAL	260	n/a	1	n/a	0	0	0	n/a	n/a	n/a	n/a	n/a
1191.482	n/a	REC_WORD	595741	wordpools/wasnorm_wordpool_less_exclusions.txt	LTP240	ltpFR	13	4	0	PIT	1077	n/a	0	n/a	0	0	0	n/a	n/a	n/a	n/a	n/a
1194.076	n/a	REC_WORD	597038	wordpools/wasnorm_wordpool_less_exclusions.txt	LTP240	ltpFR	13	4	0	LOBSTER	837	n/a	1	n/a	0	0	0	n/a	n/a	n/a	n/a	n/a
1213.902	n/a	REC_WORD	606951	wordpools/wasnorm_wordpool_less_exclusions.txt	LTP240	ltpFR	13	4	0	FREEWAY	603	n/a	1	n/a	0	0	0	n/a	n/a	n/a	n/a	n/a
1222.68	n/a	REC_WORD	611340	wordpools/wasnorm_wordpool_less_exclusions.txt	LTP240	ltpFR	13	4	0	CROSS	413	n/a	0	n/a	0	0	0	n/a	n/a	n/a	n/a	n/a
1277.056	n/a	START	638528	n/a	LTP240	ltpFR	13	n/a	n/a	n/a	n/a	n/a	n/a	n/a	n/a	n/a	n/a	n/a	n/a	n/a	n/a	n/a
1278.57	n/a	PROB	639285	n/a	LTP240	ltpFR	13	n/a	n/a	n/a	n/a	n/a	n/a	25	8	8	9	n/a	n/a	n/a	n/a	n/a
1281.234	n/a	PROB	640617	n/a	LTP240	ltpFR	13	n/a	n/a	n/a	n/a	n/a	n/a	12	4	6	2	n/a	n/a	n/a	n/a	n/a
1282.582	n/a	PROB	641291	n/a	LTP240	ltpFR	13	n/a	n/a	n/a	n/a	n/a	n/a	16	4	5	7	n/a	n/a	n/a	n/a	n/a
1284.678	n/a	PROB	642339	n/a	LTP240	ltpFR	13	n/a	n/a	n/a	n/a	n/a	n/a	16	6	5	5	n/a	n/a	n/a	n/a	n/a
1286.01	n/a	PROB	643005	n/a	LTP240	ltpFR	13	n/a	n/a	n/a	n/a	n/a	n/a	9	4	2	3	n/a	n/a	n/a	n/a	n/a
1288.156	n/a	PROB	644078	n/a	LTP240	ltpFR	13	n/a	n/a	n/a	n/a	n/a	n/a	18	9	5	4	n/a	n/a	n/a	n/a	n/a
1290.17	n/a	PROB	645085	n/a	LTP240	ltpFR	13	n/a	n/a	n/a	n/a	n/a	n/a	21	7	7	7	n/a	n/a	n/a	n/a	n/a
1292.78	n/a	STOP	646390	n/a	LTP240	ltpFR	13	n/a	n/a	n/a	n/a	n/a	n/a	n/a	n/a	n/a	n/a	n/a	n/a	n/a	n/a	n/a
1294.048	n/a	WORD	647024	wordpools/wasnorm_wordpool_less_exclusions.txt	LTP240	ltpFR	13	5	1	LINT	826	n/a	0	n/a	0	0	0	0	0.5869140625	0.422607421875	lower	../fonts/zerothre.ttf
1297.06	n/a	START	648530	n/a	LTP240	ltpFR	13	n/a	n/a	n/a	n/a	n/a	n/a	n/a	n/a	n/a	n/a	n/a	n/a	n/a	n/a	n/a
1297.958	n/a	PROB	648979	n/a	LTP240	ltpFR	13	n/a	n/a	n/a	n/a	n/a	n/a	16	4	6	6	n/a	n/a	n/a	n/a	n/a
1299.556	n/a	PROB	649778	n/a	LTP240	ltpFR	13	n/a	n/a	n/a	n/a	n/a	n/a	8	4	2	2	n/a	n/a	n/a	n/a	n/a
1301.786	n/a	PROB	650893	n/a	LTP240	ltpFR	13	n/a	n/a	n/a	n/a	n/a	n/a	13	1	5	7	n/a	n/a	n/a	n/a	n/a
1304.132	n/a	PROB	652066	n/a	LTP240	ltpFR	13	n/a	n/a	n/a	n/a	n/a	n/a	24	9	8	7	n/a	n/a	n/a	n/a	n/a
1309.54	n/a	PROB	654770	n/a	LTP240	ltpFR	13	n/a	n/a	n/a	n/a	n/a	n/a	18	8	9	1	n/a	n/a	n/a	n/a	n/a
1313.06	n/a	STOP	656530	n/a	LTP240	ltpFR	13	n/a	n/a	n/a	n/a	n/a	n/a	n/a	n/a	n/a	n/a	n/a	n/a	n/a	n/a	n/a
1313.902	n/a	WORD	656951	wordpools/wasnorm_wordpool_less_exclusions.txt	LTP240	ltpFR	13	5	1	CUE	422	n/a	0	n/a	0	0	0	0	0.5869140625	0.422607421875	lower	../fonts/zerothre.ttf
1316.914	n/a	START	658457	n/a	LTP240	ltpFR	13	n/a	n/a	n/a	n/a	n/a	n/a	n/a	n/a	n/a	n/a	n/a	n/a	n/a	n/a	n/a
1317.778	n/a	PROB	658889	n/a	LTP240	ltpFR	13	n/a	n/a	n/a	n/a	n/a	n/a	15	8	1	6	n/a	n/a	n/a	n/a	n/a
1320.424	n/a	PROB	660212	n/a	LTP240	ltpFR	13	n/a	n/a	n/a	n/a	n/a	n/a	10	6	1	3	n/a	n/a	n/a	n/a	n/a
1321.89	n/a	PROB	660945	n/a	LTP240	ltpFR	13	n/a	n/a	n/a	n/a	n/a	n/a	10	5	1	4	n/a	n/a	n/a	n/a	n/a
1323.502	n/a	PROB	661751	n/a	LTP240	ltpFR	13	n/a	n/a	n/a	n/a	n/a	n/a	11	1	1	9	n/a	n/a	n/a	n/a	n/a
1324.686	n/a	PROB	662343	n/a	LTP240	ltpFR	13	n/a	n/a	n/a	n/a	n/a	n/a	15	4	2	9	n/a	n/a	n/a	n/a	n/a
1326.75	n/a	PROB	663375	n/a	LTP240	ltpFR	13	n/a	n/a	n/a	n/a	n/a	n/a	11	7	2	2	n/a	n/a	n/a	n/a	n/a
1328.33	n/a	PROB	664165	n/a	LTP240	ltpFR	13	n/a	n/a	n/a	n/a	n/a	n/a	19	7	8	4	n/a	n/a	n/a	n/a	n/a
1330.476	n/a	PROB	665238	n/a	LTP240	ltpFR	13	n/a	n/a	n/a	n/a	n/a	n/a	10	5	3	2	n/a	n/a	n/a	n/a	n/a
1331.702	n/a	STOP	665851	n/a	LTP240	ltpFR	13	n/a	n/a	n/a	n/a	n/a	n/a	n/a	n/a	n/a	n/a	n/a	n/a	n/a	n/a	n/a
1334.138	n/a	WORD	667069	wordpools/wasnorm_wordpool_less_exclusions.txt	LTP240	ltpFR	13	5	1	DOLLAR	482	n/a	0	n/a	0	0	0	0	0.5869140625	0.422607421875	lower	../fonts/zerothre.ttf
1337.152	n/a	START	668576	n/a	LTP240	ltpFR	13	n/a	n/a	n/a	n/a	n/a	n/a	n/a	n/a	n/a	n/a	n/a	n/a	n/a	n/a	n/a
1338.116	n/a	PROB	669058	n/a	LTP240	ltpFR	13	n/a	n/a	n/a	n/a	n/a	n/a	12	2	9	1	n/a	n/a	n/a	n/a	n/a
1339.68	n/a	PROB	669840	n/a	LTP240	ltpFR	13	n/a	n/a	n/a	n/a	n/a	n/a	15	2	5	8	n/a	n/a	n/a	n/a	n/a
1341.212	n/a	PROB	670606	n/a	LTP240	ltpFR	13	n/a	n/a	n/a	n/a	n/a	n/a	13	3	1	9	n/a	n/a	n/a	n/a	n/a
1342.458	n/a	PROB	671229	n/a	LTP240	ltpFR	13	n/a	n/a	n/a	n/a	n/a	n/a	17	6	4	7	n/a	n/a	n/a	n/a	n/a
1344.09	n/a	PROB	672045	n/a	LTP240	ltpFR	13	n/a	n/a	n/a	n/a	n/a	n/a	8	1	2	5	n/a	n/a	n/a	n/a	n/a
1345.838	n/a	PROB	672919	n/a	LTP240	ltpFR	13	n/a	n/a	n/a	n/a	n/a	n/a	15	9	2	4	n/a	n/a	n/a	n/a	n/a
1347.602	n/a	PROB	673801	n/a	LTP240	ltpFR	13	n/a	n/a	n/a	n/a	n/a	n/a	18	7	5	6	n/a	n/a	n/a	n/a	n/a
1350.282	n/a	PROB	675141	n/a	LTP240	ltpFR	13	n/a	n/a	n/a	n/a	n/a	n/a	15	7	7	1	n/a	n/a	n/a	n/a	n/a
1352.038	n/a	STOP	676019	n/a	LTP240	ltpFR	13	n/a	n/a	n/a	n/a	n/a	n/a	n/a	n/a	n/a	n/a	n/a	n/a	n/a	n/a	n/a
1354.026	n/a	WORD	677013	wordpools/wasnorm_wordpool_less_exclusions.txt	LTP240	ltpFR	13	5	1	WALLET	1583	n/a	0	n/a	0	0	0	0	0.5869140625	0.422607421875	lower	../fonts/zerothre.ttf
1357.038	n/a	START	678519	n/a	LTP240	ltpFR	13	n/a	n/a	n/a	n/a	n/a	n/a	n/a	n/a	n/a	n/a	n/a	n/a	n/a	n/a	n/a
1357.886	n/a	PROB	678943	n/a	LTP240	ltpFR	13	n/a	n/a	n/a	n/a	n/a	n/a	25	9	7	9	n/a	n/a	n/a	n/a	n/a
1363.394	n/a	PROB	681697	n/a	LTP240	ltpFR	13	n/a	n/a	n/a	n/a	n/a	n/a	13	3	7	3	n/a	n/a	n/a	n/a	n/a
1364.842	n/a	PROB	682421	n/a	LTP240	ltpFR	13	n/a	n/a	n/a	n/a	n/a	n/a	11	5	1	5	n/a	n/a	n/a	n/a	n/a
1365.958	n/a	PROB	682979	n/a	LTP240	ltpFR	13	n/a	n/a	n/a	n/a	n/a	n/a	19	6	9	4	n/a	n/a	n/a	n/a	n/a
1367.422	n/a	PROB	683711	n/a	LTP240	ltpFR	13	n/a	n/a	n/a	n/a	n/a	n/a	22	8	5	9	n/a	n/a	n/a	n/a	n/a
1369.818	n/a	PROB	684909	n/a	LTP240	ltpFR	13	n/a	n/a	n/a	n/a	n/a	n/a	7	3	3	1	n/a	n/a	n/a	n/a	n/a
1373.038	n/a	STOP	686519	n/a	LTP240	ltpFR	13	n/a	n/a	n/a	n/a	n/a	n/a	n/a	n/a	n/a	n/a	n/a	n/a	n/a	n/a	n/a
1373.98	n/a	WORD	686990	wordpools/wasnorm_wordpool_less_exclusions.txt	LTP240	ltpFR	13	5	1	ICING	732	n/a	0	n/a	0	0	0	0	0.5869140625	0.422607421875	lower	../fonts/zerothre.ttf
1376.992	n/a	START	688496	n/a	LTP240	ltpFR	13	n/a	n/a	n/a	n/a	n/a	n/a	n/a	n/a	n/a	n/a	n/a	n/a	n/a	n/a	n/a
1378.04	n/a	PROB	689020	n/a	LTP240	ltpFR	13	n/a	n/a	n/a	n/a	n/a	n/a	9	4	3	2	n/a	n/a	n/a	n/a	n/a
1379.838	n/a	PROB	689919	n/a	LTP240	ltpFR	13	n/a	n/a	n/a	n/a	n/a	n/a	10	7	2	1	n/a	n/a	n/a	n/a	n/a
1381.302	n/a	PROB	690651	n/a	LTP240	ltpFR	13	n/a	n/a	n/a	n/a	n/a	n/a	10	2	3	5	n/a	n/a	n/a	n/a	n/a
1383.732	n/a	PROB	691866	n/a	LTP240	ltpFR	13	n/a	n/a	n/a	n/a	n/a	n/a	18	9	8	1	n/a	n/a	n/a	n/a	n/a
1385.562	n/a	PROB	692781	n/a	LTP240	ltpFR	13	n/a	n/a	n/a	n/a	n/a	n/a	17	4	8	5	n/a	n/a	n/a	n/a	n/a
1387.792	n/a	PROB	693896	n/a	LTP240	ltpFR	13	n/a	n/a	n/a	n/a	n/a	n/a	12	2	3	7	n/a	n/a	n/a	n/a	n/a
1389.074	n/a	PROB	694537	n/a	LTP240	ltpFR	13	n/a	n/a	n/a	n/a	n/a	n/a	12	2	6	4	n/a	n/a	n/a	n/a	n/a
1392.992	n/a	STOP	696496	n/a	LTP240	ltpFR	13	n/a	n/a	n/a	n/a	n/a	n/a	n/a	n/a	n/a	n/a	n/a	n/a	n/a	n/a	n/a
1394.0	n/a	WORD	697000	wordpools/wasnorm_wordpool_less_exclusions.txt	LTP240	ltpFR	13	5	1	TWIG	1527	n/a	0	n/a	0	0	0	0	0.5869140625	0.422607421875	lower	../fonts/zerothre.ttf
1397.012	n/a	START	698506	n/a	LTP240	ltpFR	13	n/a	n/a	n/a	n/a	n/a	n/a	n/a	n/a	n/a	n/a	n/a	n/a	n/a	n/a	n/a
1398.144	n/a	PROB	699072	n/a	LTP240	ltpFR	13	n/a	n/a	n/a	n/a	n/a	n/a	11	1	4	6	n/a	n/a	n/a	n/a	n/a
1399.376	n/a	PROB	699688	n/a	LTP240	ltpFR	13	n/a	n/a	n/a	n/a	n/a	n/a	18	7	9	2	n/a	n/a	n/a	n/a	n/a
1401.472	n/a	PROB	700736	n/a	LTP240	ltpFR	13	n/a	n/a	n/a	n/a	n/a	n/a	13	1	5	7	n/a	n/a	n/a	n/a	n/a
1403.936	n/a	PROB	701968	n/a	LTP240	ltpFR	13	n/a	n/a	n/a	n/a	n/a	n/a	15	5	2	8	n/a	n/a	n/a	n/a	n/a
1405.366	n/a	PROB	702683	n/a	LTP240	ltpFR	13	n/a	n/a	n/a	n/a	n/a	n/a	13	2	8	3	n/a	n/a	n/a	n/a	n/a
1407.43	n/a	PROB	703715	n/a	LTP240	ltpFR	13	n/a	n/a	n/a	n/a	n/a	n/a	15	5	1	9	n/a	n/a	n/a	n/a	n/a
1408.912	n/a	PROB	704456	n/a	LTP240	ltpFR	13	n/a	n/a	n/a	n/a	n/a	n/a	18	3	9	6	n/a	n/a	n/a	n/a	n/a
1413.012	n/a	STOP	706506	n/a	LTP240	ltpFR	13	n/a	n/a	n/a	n/a	n/a	n/a	n/a	n/a	n/a	n/a	n/a	n/a	n/a	n/a	n/a
1414.07	n/a	WORD	707035	wordpools/wasnorm_wordpool_less_exclusions.txt	LTP240	ltpFR	13	5	1	OAR	966	n/a	0	n/a	0	0	0	0	0.5869140625	0.422607421875	lower	../fonts/zerothre.ttf
1417.084	n/a	START	708542	n/a	LTP240	ltpFR	13	n/a	n/a	n/a	n/a	n/a	n/a	n/a	n/a	n/a	n/a	n/a	n/a	n/a	n/a	n/a
1418.248	n/a	PROB	709124	n/a	LTP240	ltpFR	13	n/a	n/a	n/a	n/a	n/a	n/a	15	1	8	6	n/a	n/a	n/a	n/a	n/a
1420.394	n/a	PROB	710197	n/a	LTP240	ltpFR	13	n/a	n/a	n/a	n/a	n/a	n/a	17	5	5	7	n/a	n/a	n/a	n/a	n/a
1421.758	n/a	PROB	710879	n/a	LTP240	ltpFR	13	n/a	n/a	n/a	n/a	n/a	n/a	17	8	4	5	n/a	n/a	n/a	n/a	n/a
1423.722	n/a	PROB	711861	n/a	LTP240	ltpFR	13	n/a	n/a	n/a	n/a	n/a	n/a	15	1	8	6	n/a	n/a	n/a	n/a	n/a
1426.036	n/a	PROB	713018	n/a	LTP240	ltpFR	13	n/a	n/a	n/a	n/a	n/a	n/a	17	4	7	6	n/a	n/a	n/a	n/a	n/a
1427.6	n/a	PROB	713800	n/a	LTP240	ltpFR	13	n/a	n/a	n/a	n/a	n/a	n/a	17	8	2	7	n/a	n/a	n/a	n/a	n/a
1428.882	n/a	PROB	714441	n/a	LTP240	ltpFR	13	n/a	n/a	n/a	n/a	n/a	n/a	22	9	7	6	n/a	n/a	n/a	n/a	n/a
1432.39	n/a	STOP	716195	n/a	LTP240	ltpFR	13	n/a	n/a	n/a	n/a	n/a	n/a	n/a	n/a	n/a	n/a	n/a	n/a	n/a	n/a	n/a
1434.29	n/a	WORD	717145	wordpools/wasnorm_wordpool_less_exclusions.txt	LTP240	ltpFR	13	5	1	TICK	1463	n/a	1	n/a	0	0	0	0	0.5869140625	0.422607421875	lower	../fonts/zerothre.ttf
1437.302	n/a	START	718651	n/a	LTP240	ltpFR	13	n/a	n/a	n/a	n/a	n/a	n/a	n/a	n/a	n/a	n/a	n/a	n/a	n/a	n/a	n/a
1438.234	n/a	PROB	719117	n/a	LTP240	ltpFR	13	n/a	n/a	n/a	n/a	n/a	n/a	10	2	2	6	n/a	n/a	n/a	n/a	n/a
1439.748	n/a	PROB	719874	n/a	LTP240	ltpFR	13	n/a	n/a	n/a	n/a	n/a	n/a	16	2	5	9	n/a	n/a	n/a	n/a	n/a
1442.062	n/a	PROB	721031	n/a	LTP240	ltpFR	13	n/a	n/a	n/a	n/a	n/a	n/a	17	7	6	4	n/a	n/a	n/a	n/a	n/a
1443.726	n/a	PROB	721863	n/a	LTP240	ltpFR	13	n/a	n/a	n/a	n/a	n/a	n/a	12	6	5	1	n/a	n/a	n/a	n/a	n/a
1445.522	n/a	PROB	722761	n/a	LTP240	ltpFR	13	n/a	n/a	n/a	n/a	n/a	n/a	13	8	3	2	n/a	n/a	n/a	n/a	n/a
1447.072	n/a	PROB	723536	n/a	LTP240	ltpFR	13	n/a	n/a	n/a	n/a	n/a	n/a	10	1	7	2	n/a	n/a	n/a	n/a	n/a
1448.484	n/a	PROB	724242	n/a	LTP240	ltpFR	13	n/a	n/a	n/a	n/a	n/a	n/a	11	6	1	4	n/a	n/a	n/a	n/a	n/a
1449.934	n/a	PROB	724967	n/a	LTP240	ltpFR	13	n/a	n/a	n/a	n/a	n/a	n/a	17	8	2	7	n/a	n/a	n/a	n/a	n/a
1451.298	n/a	PROB	725649	n/a	LTP240	ltpFR	13	n/a	n/a	n/a	n/a	n/a	n/a	19	8	8	3	n/a	n/a	n/a	n/a	n/a
1452.95	n/a	STOP	726475	n/a	LTP240	ltpFR	13	n/a	n/a	n/a	n/a	n/a	n/a	n/a	n/a	n/a	n/a	n/a	n/a	n/a	n/a	n/a
1454.326	n/a	WORD	727163	wordpools/wasnorm_wordpool_less_exclusions.txt	LTP240	ltpFR	13	5	1	PASTRY	1022	n/a	0	n/a	0	0	0	0	0.5869140625	0.422607421875	lower	../fonts/zerothre.ttf
1457.34	n/a	START	728670	n/a	LTP240	ltpFR	13	n/a	n/a	n/a	n/a	n/a	n/a	n/a	n/a	n/a	n/a	n/a	n/a	n/a	n/a	n/a
1458.502	n/a	PROB	729251	n/a	LTP240	ltpFR	13	n/a	n/a	n/a	n/a	n/a	n/a	11	3	6	2	n/a	n/a	n/a	n/a	n/a
1460.634	n/a	PROB	730317	n/a	LTP240	ltpFR	13	n/a	n/a	n/a	n/a	n/a	n/a	18	8	3	7	n/a	n/a	n/a	n/a	n/a
1462.098	n/a	PROB	731049	n/a	LTP240	ltpFR	13	n/a	n/a	n/a	n/a	n/a	n/a	20	7	7	6	n/a	n/a	n/a	n/a	n/a
1464.128	n/a	PROB	732064	n/a	LTP240	ltpFR	13	n/a	n/a	n/a	n/a	n/a	n/a	17	4	6	7	n/a	n/a	n/a	n/a	n/a
1465.86	n/a	PROB	732930	n/a	LTP240	ltpFR	13	n/a	n/a	n/a	n/a	n/a	n/a	13	4	3	6	n/a	n/a	n/a	n/a	n/a
1467.54	n/a	PROB	733770	n/a	LTP240	ltpFR	13	n/a	n/a	n/a	n/a	n/a	n/a	11	1	5	5	n/a	n/a	n/a	n/a	n/a
1468.656	n/a	PROB	734328	n/a	LTP240	ltpFR	13	n/a	n/a	n/a	n/a	n/a	n/a	8	2	5	1	n/a	n/a	n/a	n/a	n/a
1470.486	n/a	PROB	735243	n/a	LTP240	ltpFR	13	n/a	n/a	n/a	n/a	n/a	n/a	17	9	3	5	n/a	n/a	n/a	n/a	n/a
1472.776	n/a	STOP	736388	n/a	LTP240	ltpFR	13	n/a	n/a	n/a	n/a	n/a	n/a	n/a	n/a	n/a	n/a	n/a	n/a	n/a	n/a	n/a
1474.382	n/a	WORD	737191	wordpools/wasnorm_wordpool_less_exclusions.txt	LTP240	ltpFR	13	5	1	CACTUS	215	n/a	1	n/a	0	0	0	0	0.5869140625	0.422607421875	lower	../fonts/zerothre.ttf
1477.394	n/a	START	738697	n/a	LTP240	ltpFR	13	n/a	n/a	n/a	n/a	n/a	n/a	n/a	n/a	n/a	n/a	n/a	n/a	n/a	n/a	n/a
1478.458	n/a	PROB	739229	n/a	LTP240	ltpFR	13	n/a	n/a	n/a	n/a	n/a	n/a	15	2	9	4	n/a	n/a	n/a	n/a	n/a
1480.988	n/a	PROB	740494	n/a	LTP240	ltpFR	13	n/a	n/a	n/a	n/a	n/a	n/a	12	7	1	4	n/a	n/a	n/a	n/a	n/a
1483.318	n/a	PROB	741659	n/a	LTP240	ltpFR	13	n/a	n/a	n/a	n/a	n/a	n/a	14	1	6	7	n/a	n/a	n/a	n/a	n/a
1485.48	n/a	PROB	742740	n/a	LTP240	ltpFR	13	n/a	n/a	n/a	n/a	n/a	n/a	11	6	2	3	n/a	n/a	n/a	n/a	n/a
1487.162	n/a	PROB	743581	n/a	LTP240	ltpFR	13	n/a	n/a	n/a	n/a	n/a	n/a	9	1	6	2	n/a	n/a	n/a	n/a	n/a
1488.726	n/a	PROB	744363	n/a	LTP240	ltpFR	13	n/a	n/a	n/a	n/a	n/a	n/a	18	8	3	7	n/a	n/a	n/a	n/a	n/a
1490.324	n/a	PROB	745162	n/a	LTP240	ltpFR	13	n/a	n/a	n/a	n/a	n/a	n/a	19	8	2	9	n/a	n/a	n/a	n/a	n/a
1492.064	n/a	STOP	746032	n/a	LTP240	ltpFR	13	n/a	n/a	n/a	n/a	n/a	n/a	n/a	n/a	n/a	n/a	n/a	n/a	n/a	n/a	n/a
1494.434	n/a	WORD	747217	wordpools/wasnorm_wordpool_less_exclusions.txt	LTP240	ltpFR	13	5	1	CITIZEN	312	n/a	1	n/a	0	0	0	0	0.5869140625	0.422607421875	lower	../fonts/zerothre.ttf
1497.446	n/a	START	748723	n/a	LTP240	ltpFR	13	n/a	n/a	n/a	n/a	n/a	n/a	n/a	n/a	n/a	n/a	n/a	n/a	n/a	n/a	n/a
1498.478	n/a	PROB	749239	n/a	LTP240	ltpFR	13	n/a	n/a	n/a	n/a	n/a	n/a	22	7	8	7	n/a	n/a	n/a	n/a	n/a
1503.006	n/a	PROB	751503	n/a	LTP240	ltpFR	13	n/a	n/a	n/a	n/a	n/a	n/a	16	7	8	1	n/a	n/a	n/a	n/a	n/a
1505.136	n/a	PROB	752568	n/a	LTP240	ltpFR	13	n/a	n/a	n/a	n/a	n/a	n/a	21	7	8	6	n/a	n/a	n/a	n/a	n/a
1509.994	n/a	PROB	754997	n/a	LTP240	ltpFR	13	n/a	n/a	n/a	n/a	n/a	n/a	16	5	2	9	n/a	n/a	n/a	n/a	n/a
1512.192	n/a	STOP	756096	n/a	LTP240	ltpFR	13	n/a	n/a	n/a	n/a	n/a	n/a	n/a	n/a	n/a	n/a	n/a	n/a	n/a	n/a	n/a
1514.572	n/a	WORD	757286	wordpools/wasnorm_wordpool_less_exclusions.txt	LTP240	ltpFR	13	5	1	DRESSER	496	n/a	1	n/a	0	0	0	0	0.5869140625	0.422607421875	lower	../fonts/zerothre.ttf
1517.584	n/a	START	758792	n/a	LTP240	ltpFR	13	n/a	n/a	n/a	n/a	n/a	n/a	n/a	n/a	n/a	n/a	n/a	n/a	n/a	n/a	n/a
1518.53	n/a	PROB	759265	n/a	LTP240	ltpFR	13	n/a	n/a	n/a	n/a	n/a	n/a	7	3	2	2	n/a	n/a	n/a	n/a	n/a
1520.646	n/a	PROB	760323	n/a	LTP240	ltpFR	13	n/a	n/a	n/a	n/a	n/a	n/a	16	3	7	6	n/a	n/a	n/a	n/a	n/a
1522.758	n/a	PROB	761379	n/a	LTP240	ltpFR	13	n/a	n/a	n/a	n/a	n/a	n/a	8	2	1	5	n/a	n/a	n/a	n/a	n/a
1524.622	n/a	PROB	762311	n/a	LTP240	ltpFR	13	n/a	n/a	n/a	n/a	n/a	n/a	23	9	9	5	n/a	n/a	n/a	n/a	n/a
1526.37	n/a	PROB	763185	n/a	LTP240	ltpFR	13	n/a	n/a	n/a	n/a	n/a	n/a	14	1	6	7	n/a	n/a	n/a	n/a	n/a
1527.802	n/a	PROB	763901	n/a	LTP240	ltpFR	13	n/a	n/a	n/a	n/a	n/a	n/a	19	5	8	6	n/a	n/a	n/a	n/a	n/a
1530.58	n/a	PROB	765290	n/a	LTP240	ltpFR	13	n/a	n/a	n/a	n/a	n/a	n/a	19	5	3	6	n/a	n/a	n/a	n/a	n/a
1533.584	n/a	STOP	766792	n/a	LTP240	ltpFR	13	n/a	n/a	n/a	n/a	n/a	n/a	n/a	n/a	n/a	n/a	n/a	n/a	n/a	n/a	n/a
1534.674	n/a	WORD	767337	wordpools/wasnorm_wordpool_less_exclusions.txt	LTP240	ltpFR	13	5	1	GIRAFFE	636	n/a	1	n/a	0	0	0	0	0.5869140625	0.422607421875	lower	../fonts/zerothre.ttf
1537.688	n/a	START	768844	n/a	LTP240	ltpFR	13	n/a	n/a	n/a	n/a	n/a	n/a	n/a	n/a	n/a	n/a	n/a	n/a	n/a	n/a	n/a
1538.67	n/a	PROB	769335	n/a	LTP240	ltpFR	13	n/a	n/a	n/a	n/a	n/a	n/a	15	2	6	7	n/a	n/a	n/a	n/a	n/a
1542.446	n/a	PROB	771223	n/a	LTP240	ltpFR	13	n/a	n/a	n/a	n/a	n/a	n/a	19	1	9	9	n/a	n/a	n/a	n/a	n/a
1544.012	n/a	PROB	772006	n/a	LTP240	ltpFR	13	n/a	n/a	n/a	n/a	n/a	n/a	20	3	9	8	n/a	n/a	n/a	n/a	n/a
1547.356	n/a	PROB	773678	n/a	LTP240	ltpFR	13	n/a	n/a	n/a	n/a	n/a	n/a	16	5	5	6	n/a	n/a	n/a	n/a	n/a
1548.754	n/a	PROB	774377	n/a	LTP240	ltpFR	13	n/a	n/a	n/a	n/a	n/a	n/a	24	8	9	7	n/a	n/a	n/a	n/a	n/a
1552.736	n/a	STOP	776368	n/a	LTP240	ltpFR	13	n/a	n/a	n/a	n/a	n/a	n/a	n/a	n/a	n/a	n/a	n/a	n/a	n/a	n/a	n/a
1554.696	n/a	WORD	777348	wordpools/wasnorm_wordpool_less_exclusions.txt	LTP240	ltpFR	13	5	1	BEETLE	116	n/a	1	n/a	0	0	0	0	0.5869140625	0.422607421875	lower	../fonts/zerothre.ttf
1557.708	n/a	START	778854	n/a	LTP240	ltpFR	13	n/a	n/a	n/a	n/a	n/a	n/a	n/a	n/a	n/a	n/a	n/a	n/a	n/a	n/a	n/a
1558.624	n/a	PROB	779312	n/a	LTP240	ltpFR	13	n/a	n/a	n/a	n/a	n/a	n/a	11	1	6	4	n/a	n/a	n/a	n/a	n/a
1560.27	n/a	PROB	780135	n/a	LTP240	ltpFR	13	n/a	n/a	n/a	n/a	n/a	n/a	10	2	5	3	n/a	n/a	n/a	n/a	n/a
1563.25	n/a	PROB	781625	n/a	LTP240	ltpFR	13	n/a	n/a	n/a	n/a	n/a	n/a	12	8	1	3	n/a	n/a	n/a	n/a	n/a
1565.046	n/a	PROB	782523	n/a	LTP240	ltpFR	13	n/a	n/a	n/a	n/a	n/a	n/a	15	1	7	7	n/a	n/a	n/a	n/a	n/a
1566.526	n/a	PROB	783263	n/a	LTP240	ltpFR	13	n/a	n/a	n/a	n/a	n/a	n/a	16	7	2	7	n/a	n/a	n/a	n/a	n/a
1568.858	n/a	PROB	784429	n/a	LTP240	ltpFR	13	n/a	n/a	n/a	n/a	n/a	n/a	20	6	6	8	n/a	n/a	n/a	n/a	n/a
1570.904	n/a	PROB	785452	n/a	LTP240	ltpFR	13	n/a	n/a	n/a	n/a	n/a	n/a	14	3	3	8	n/a	n/a	n/a	n/a	n/a
1572.696	n/a	STOP	786348	n/a	LTP240	ltpFR	13	n/a	n/a	n/a	n/a	n/a	n/a	n/a	n/a	n/a	n/a	n/a	n/a	n/a	n/a	n/a
1574.75	n/a	WORD	787375	wordpools/wasnorm_wordpool_less_exclusions.txt	LTP240	ltpFR	13	5	1	TREE	1502	n/a	0	n/a	0	0	0	0	0.5869140625	0.422607421875	lower	../fonts/zerothre.ttf
1577.762	n/a	START	788881	n/a	LTP240	ltpFR	13	n/a	n/a	n/a	n/a	n/a	n/a	n/a	n/a	n/a	n/a	n/a	n/a	n/a	n/a	n/a
1578.742	n/a	PROB	789371	n/a	LTP240	ltpFR	13	n/a	n/a	n/a	n/a	n/a	n/a	11	2	6	3	n/a	n/a	n/a	n/a	n/a
1581.606	n/a	PROB	790803	n/a	LTP240	ltpFR	13	n/a	n/a	n/a	n/a	n/a	n/a	20	7	5	8	n/a	n/a	n/a	n/a	n/a
1585.416	n/a	PROB	792708	n/a	LTP240	ltpFR	13	n/a	n/a	n/a	n/a	n/a	n/a	10	6	1	3	n/a	n/a	n/a	n/a	n/a
1587.946	n/a	PROB	793973	n/a	LTP240	ltpFR	13	n/a	n/a	n/a	n/a	n/a	n/a	21	5	7	9	n/a	n/a	n/a	n/a	n/a
1590.076	n/a	PROB	795038	n/a	LTP240	ltpFR	13	n/a	n/a	n/a	n/a	n/a	n/a	15	6	6	3	n/a	n/a	n/a	n/a	n/a
1593.16	n/a	STOP	796580	n/a	LTP240	ltpFR	13	n/a	n/a	n/a	n/a	n/a	n/a	n/a	n/a	n/a	n/a	n/a	n/a	n/a	n/a	n/a
1594.786	n/a	WORD	797393	wordpools/wasnorm_wordpool_less_exclusions.txt	LTP240	ltpFR	13	5	1	PLANT	1083	n/a	0	n/a	0	0	0	0	0.5869140625	0.422607421875	lower	../fonts/zerothre.ttf
1597.798	n/a	START	798899	n/a	LTP240	ltpFR	13	n/a	n/a	n/a	n/a	n/a	n/a	n/a	n/a	n/a	n/a	n/a	n/a	n/a	n/a	n/a
1598.812	n/a	PROB	799406	n/a	LTP240	ltpFR	13	n/a	n/a	n/a	n/a	n/a	n/a	8	3	1	4	n/a	n/a	n/a	n/a	n/a
1600.676	n/a	PROB	800338	n/a	LTP240	ltpFR	13	n/a	n/a	n/a	n/a	n/a	n/a	16	5	5	6	n/a	n/a	n/a	n/a	n/a
1601.826	n/a	PROB	800913	n/a	LTP240	ltpFR	13	n/a	n/a	n/a	n/a	n/a	n/a	23	5	9	8	n/a	n/a	n/a	n/a	n/a
1605.452	n/a	PROB	802726	n/a	LTP240	ltpFR	13	n/a	n/a	n/a	n/a	n/a	n/a	10	1	3	6	n/a	n/a	n/a	n/a	n/a
1607.634	n/a	PROB	803817	n/a	LTP240	ltpFR	13	n/a	n/a	n/a	n/a	n/a	n/a	14	5	1	8	n/a	n/a	n/a	n/a	n/a
1609.614	n/a	PROB	804807	n/a	LTP240	ltpFR	13	n/a	n/a	n/a	n/a	n/a	n/a	14	6	3	5	n/a	n/a	n/a	n/a	n/a
1612.298	n/a	STOP	806149	n/a	LTP240	ltpFR	13	n/a	n/a	n/a	n/a	n/a	n/a	n/a	n/a	n/a	n/a	n/a	n/a	n/a	n/a	n/a
1615.722	n/a	REC_START	807861	n/a	LTP240	ltpFR	13	5	n/a	n/a	n/a	n/a	n/a	n/a	0	0	0	n/a	n/a	n/a	n/a	n/a
1617.204	n/a	REC_WORD	808602	wordpools/wasnorm_wordpool_less_exclusions.txt	LTP240	ltpFR	13	5	1	PLANT	1083	n/a	0	n/a	0	0	0	n/a	n/a	n/a	n/a	n/a
1617.918	n/a	REC_WORD	808959	wordpools/wasnorm_wordpool_less_exclusions.txt	LTP240	ltpFR	13	5	1	TREE	1502	n/a	0	n/a	0	0	0	n/a	n/a	n/a	n/a	n/a
1618.856	n/a	REC_WORD	809428	wordpools/wasnorm_wordpool_less_exclusions.txt	LTP240	ltpFR	13	5	1	CACTUS	215	n/a	1	n/a	0	0	0	n/a	n/a	n/a	n/a	n/a
1621.08	n/a	REC_WORD	810540	wordpools/wasnorm_wordpool_less_exclusions.txt	LTP240	ltpFR	13	5	1	CUE	422	n/a	0	n/a	0	0	0	n/a	n/a	n/a	n/a	n/a
1641.09	n/a	REC_WORD	820545	wordpools/wasnorm_wordpool_less_exclusions.txt	LTP240	ltpFR	13	5	1	DRESSER	496	n/a	1	n/a	0	0	0	n/a	n/a	n/a	n/a	n/a
1721.748	n/a	WORD	860874	wordpools/wasnorm_wordpool_less_exclusions.txt	LTP240	ltpFR	13	6	1	LEOPARD	812	n/a	0	n/a	0	0	0	0	0.5869140625	0.422607421875	lower	../fonts/zerothre.ttf
1725.758	n/a	WORD	862879	wordpools/wasnorm_wordpool_less_exclusions.txt	LTP240	ltpFR	13	6	1	CUCUMBER	421	n/a	0	n/a	0	0	0	0	0.5869140625	0.422607421875	lower	../fonts/zerothre.ttf
1729.652	n/a	WORD	864826	wordpools/wasnorm_wordpool_less_exclusions.txt	LTP240	ltpFR	13	6	1	VALLEY	1545	n/a	0	n/a	0	0	0	0	0.5869140625	0.422607421875	lower	../fonts/zerothre.ttf
1733.78	n/a	WORD	866890	wordpools/wasnorm_wordpool_less_exclusions.txt	LTP240	ltpFR	13	6	1	CABINET	212	n/a	0	n/a	0	0	0	0	0.5869140625	0.422607421875	lower	../fonts/zerothre.ttf
1737.658	n/a	WORD	868829	wordpools/wasnorm_wordpool_less_exclusions.txt	LTP240	ltpFR	13	6	1	LUNCH	849	n/a	0	n/a	0	0	0	0	0.5869140625	0.422607421875	lower	../fonts/zerothre.ttf
1741.602	n/a	WORD	870801	wordpools/wasnorm_wordpool_less_exclusions.txt	LTP240	ltpFR	13	6	1	TURKEY	1520	n/a	1	n/a	0	0	0	0	0.5869140625	0.422607421875	lower	../fonts/zerothre.ttf
1745.58	n/a	WORD	872790	wordpools/wasnorm_wordpool_less_exclusions.txt	LTP240	ltpFR	13	6	1	PEN	1041	n/a	0	n/a	0	0	0	0	0.5869140625	0.422607421875	lower	../fonts/zerothre.ttf
1749.522	n/a	WORD	874761	wordpools/wasnorm_wordpool_less_exclusions.txt	LTP240	ltpFR	13	6	1	DOCUMENT	479	n/a	0	n/a	0	0	0	0	0.5869140625	0.422607421875	lower	../fonts/zerothre.ttf
1753.386	n/a	WORD	876693	wordpools/wasnorm_wordpool_less_exclusions.txt	LTP240	ltpFR	13	6	1	VILLAGE	1566	n/a	0	n/a	0	0	0	0	0.5869140625	0.422607421875	lower	../fonts/zerothre.ttf
1757.312	n/a	WORD	878656	wordpools/wasnorm_wordpool_less_exclusions.txt	LTP240	ltpFR	13	6	1	CITY	314	n/a	0	n/a	0	0	0	0	0.5869140625	0.422607421875	lower	../fonts/zerothre.ttf
1761.256	n/a	WORD	880628	wordpools/wasnorm_wordpool_less_exclusions.txt	LTP240	ltpFR	13	6	1	CANYON	235	n/a	0	n/a	0	0	0	0	0.5869140625	0.422607421875	lower	../fonts/zerothre.ttf
1765.3	n/a	WORD	882650	wordpools/wasnorm_wordpool_less_exclusions.txt	LTP240	ltpFR	13	6	1	CREATURE	403	n/a	1	n/a	0	0	0	0	0.5869140625	0.422607421875	lower	../fonts/zerothre.ttf
1769.426	n/a	WORD	884713	wordpools/wasnorm_wordpool_less_exclusions.txt	LTP240	ltpFR	13	6	1	PUBLISHER	1137	n/a	1	n/a	0	0	0	0	0.5869140625	0.422607421875	lower	../fonts/zerothre.ttf
1773.588	n/a	WORD	886794	wordpools/wasnorm_wordpool_less_exclusions.txt	LTP240	ltpFR	13	6	1	JOKER	759	n/a	1	n/a	0	0	0	0	0.5869140625	0.422607421875	lower	../fonts/zerothre.ttf
1777.55	n/a	WORD	888775	wordpools/wasnorm_wordpool_less_exclusions.txt	LTP240	ltpFR	13	6	1	QUILT	1151	n/a	0	n/a	0	0	0	0	0.5869140625	0.422607421875	lower	../fonts/zerothre.ttf
1781.458	n/a	WORD	890729	wordpools/wasnorm_wordpool_less_exclusions.txt	LTP240	ltpFR	13	6	1	WARDROBE	1587	n/a	0	n/a	0	0	0	0	0.5869140625	0.422607421875	lower	../fonts/zerothre.ttf
1784.472	n/a	START	892236	n/a	LTP240	ltpFR	13	n/a	n/a	n/a	n/a	n/a	n/a	n/a	n/a	n/a	n/a	n/a	n/a	n/a	n/a	n/a
1785.37	n/a	PROB	892685	n/a	LTP240	ltpFR	13	n/a	n/a	n/a	n/a	n/a	n/a	23	7	7	9	n/a	n/a	n/a	n/a	n/a
1788.0	n/a	PROB	894000	n/a	LTP240	ltpFR	13	n/a	n/a	n/a	n/a	n/a	n/a	19	9	3	7	n/a	n/a	n/a	n/a	n/a
1789.282	n/a	PROB	894641	n/a	LTP240	ltpFR	13	n/a	n/a	n/a	n/a	n/a	n/a	12	3	2	7	n/a	n/a	n/a	n/a	n/a
1790.746	n/a	PROB	895373	n/a	LTP240	ltpFR	13	n/a	n/a	n/a	n/a	n/a	n/a	20	8	8	4	n/a	n/a	n/a	n/a	n/a
1792.376	n/a	PROB	896188	n/a	LTP240	ltpFR	13	n/a	n/a	n/a	n/a	n/a	n/a	18	2	9	7	n/a	n/a	n/a	n/a	n/a
1794.522	n/a	PROB	897261	n/a	LTP240	ltpFR	13	n/a	n/a	n/a	n/a	n/a	n/a	8	5	2	1	n/a	n/a	n/a	n/a	n/a
1796.004	n/a	PROB	898002	n/a	LTP240	ltpFR	13	n/a	n/a	n/a	n/a	n/a	n/a	20	8	7	5	n/a	n/a	n/a	n/a	n/a
1798.972	n/a	STOP	899486	n/a	LTP240	ltpFR	13	n/a	n/a	n/a	n/a	n/a	n/a	n/a	n/a	n/a	n/a	n/a	n/a	n/a	n/a	n/a
1802.38	n/a	REC_START	901190	n/a	LTP240	ltpFR	13	6	n/a	n/a	n/a	n/a	n/a	n/a	0	0	0	n/a	n/a	n/a	n/a	n/a
1803.148	n/a	REC_WORD	901574	wordpools/wasnorm_wordpool_less_exclusions.txt	LTP240	ltpFR	13	6	1	PUBLISHER	1137	n/a	1	n/a	0	0	0	n/a	n/a	n/a	n/a	n/a
1804.29	n/a	REC_WORD	902145	wordpools/wasnorm_wordpool_less_exclusions.txt	LTP240	ltpFR	13	6	1	JOKER	759	n/a	1	n/a	0	0	0	n/a	n/a	n/a	n/a	n/a
1806.72	n/a	REC_WORD	903360	wordpools/wasnorm_wordpool_less_exclusions.txt	LTP240	ltpFR	13	6	1	CREATURE	403	n/a	1	n/a	0	0	0	n/a	n/a	n/a	n/a	n/a
1807.792	n/a	REC_WORD	903896	wordpools/wasnorm_wordpool_less_exclusions.txt	LTP240	ltpFR	13	6	1	LEOPARD	812	n/a	0	n/a	0	0	0	n/a	n/a	n/a	n/a	n/a
1830.346	n/a	REC_WORD	915173	wordpools/wasnorm_wordpool_less_exclusions.txt	LTP240	ltpFR	13	6	1	PEN	1041	n/a	0	n/a	0	0	0	n/a	n/a	n/a	n/a	n/a
1841.506	n/a	REC_WORD	920753	wordpools/wasnorm_wordpool_less_exclusions.txt	LTP240	ltpFR	13	6	1	VILLAGE	1566	n/a	0	n/a	0	0	0	n/a	n/a	n/a	n/a	n/a
1934.816	n/a	WORD	967408	wordpools/wasnorm_wordpool_less_exclusions.txt	LTP240	ltpFR	13	7	0	PORCUPINE	1107	n/a	1	n/a	0	0	0	1	0.412841796875	0.57763671875	upper	../fonts/amplitud.ttf
1938.844	n/a	WORD	969422	wordpools/wasnorm_wordpool_less_exclusions.txt	LTP240	ltpFR	13	7	0	FARM	552	n/a	1	n/a	0	0	0	1	0.412841796875	0.57763671875	upper	../fonts/amplitud.ttf
1943.038	n/a	WORD	971519	wordpools/wasnorm_wordpool_less_exclusions.txt	LTP240	ltpFR	13	7	1	GARDEN	623	n/a	0	n/a	0	0	0	0	0.5869140625	0.422607421875	lower	../fonts/zerothre.ttf
1946.898	n/a	WORD	973449	wordpools/wasnorm_wordpool_less_exclusions.txt	LTP240	ltpFR	13	7	1	PLUMBER	1091	n/a	1	n/a	0	0	0	0	0.5869140625	0.422607421875	lower	../fonts/zerothre.ttf
1950.908	n/a	WORD	975454	wordpools/wasnorm_wordpool_less_exclusions.txt	LTP240	ltpFR	13	7	1	COOKIE	374	n/a	0	n/a	0	0	0	0	0.5869140625	0.422607421875	lower	../fonts/zerothre.ttf
1954.836	n/a	WORD	977418	wordpools/wasnorm_wordpool_less_exclusions.txt	LTP240	ltpFR	13	7	1	SHORTCAKE	1292	n/a	0	n/a	0	0	0	0	0.5869140625	0.422607421875	lower	../fonts/zerothre.ttf
1959.03	n/a	WORD	979515	wordpools/wasnorm_wordpool_less_exclusions.txt	LTP240	ltpFR	13	7	0	CONE	363	n/a	0	n/a	0	0	0	1	0.412841796875	0.57763671875	upper	../fonts/amplitud.ttf
1963.108	n/a	WORD	981554	wordpools/wasnorm_wordpool_less_exclusions.txt	LTP240	ltpFR	13	7	0	WAGON	1578	n/a	1	n/a	0	0	0	1	0.412841796875	0.57763671875	upper	../fonts/amplitud.ttf
1967.152	n/a	WORD	983576	wordpools/wasnorm_wordpool_less_exclusions.txt	LTP240	ltpFR	13	7	0	DAISY	435	n/a	0	n/a	0	0	0	1	0.412841796875	0.57763671875	upper	../fonts/amplitud.ttf
1971.08	n/a	WORD	985540	wordpools/wasnorm_wordpool_less_exclusions.txt	LTP240	ltpFR	13	7	0	CREVICE	405	n/a	1	n/a	0	0	0	1	0.412841796875	0.57763671875	upper	../fonts/amplitud.ttf
1975.256	n/a	WORD	987628	wordpools/wasnorm_wordpool_less_exclusions.txt	LTP240	ltpFR	13	7	1	TRUCK	1512	n/a	0	n/a	0	0	0	0	0.5869140625	0.422607421875	lower	../fonts/zerothre.ttf
1979.35	n/a	WORD	989675	wordpools/wasnorm_wordpool_less_exclusions.txt	LTP240	ltpFR	13	7	1	PIKE	1067	n/a	0	n/a	0	0	0	0	0.5869140625	0.422607421875	lower	../fonts/zerothre.ttf
1983.262	n/a	WORD	991631	wordpools/wasnorm_wordpool_less_exclusions.txt	LTP240	ltpFR	13	7	1	GOAT	644	n/a	1	n/a	0	0	0	0	0.5869140625	0.422607421875	lower	../fonts/zerothre.ttf
1987.156	n/a	WORD	993578	wordpools/wasnorm_wordpool_less_exclusions.txt	LTP240	ltpFR	13	7	1	FIG	563	n/a	0	n/a	0	0	0	0	0.5869140625	0.422607421875	lower	../fonts/zerothre.ttf
1991.332	n/a	WORD	995666	wordpools/wasnorm_wordpool_less_exclusions.txt	LTP240	ltpFR	13	7	0	HEDGE	699	n/a	0	n/a	0	0	0	1	0.412841796875	0.57763671875	upper	../fonts/amplitud.ttf
1995.36	n/a	WORD	997680	wordpools/wasnorm_wordpool_less_exclusions.txt	LTP240	ltpFR	13	7	0	LEAF	808	n/a	0	n/a	0	0	0	1	0.412841796875	0.57763671875	upper	../fonts/amplitud.ttf
1998.372	n/a	START	999186	n/a	LTP240	ltpFR	13	n/a	n/a	n/a	n/a	n/a	n/a	n/a	n/a	n/a	n/a	n/a	n/a	n/a	n/a	n/a
1999.354	n/a	PROB	999677	n/a	LTP240	ltpFR	13	n/a	n/a	n/a	n/a	n/a	n/a	9	2	1	6	n/a	n/a	n/a	n/a	n/a
2001.734	n/a	PROB	1000867	n/a	LTP240	ltpFR	13	n/a	n/a	n/a	n/a	n/a	n/a	15	2	5	8	n/a	n/a	n/a	n/a	n/a
2006.372	n/a	STOP	1003186	n/a	LTP240	ltpFR	13	n/a	n/a	n/a	n/a	n/a	n/a	n/a	n/a	n/a	n/a	n/a	n/a	n/a	n/a	n/a
2008.192	n/a	REC_START	1004096	n/a	LTP240	ltpFR	13	7	n/a	n/a	n/a	n/a	n/a	n/a	0	0	0	n/a	n/a	n/a	n/a	n/a
2008.864	n/a	REC_WORD	1004432	wordpools/wasnorm_wordpool_less_exclusions.txt	LTP240	ltpFR	13	7	0	PORCUPINE	1107	n/a	1	n/a	0	0	0	n/a	n/a	n/a	n/a	n/a
2009.85	n/a	REC_WORD	1004925	wordpools/wasnorm_wordpool_less_exclusions.txt	LTP240	ltpFR	13	7	0	FARM	552	n/a	1	n/a	0	0	0	n/a	n/a	n/a	n/a	n/a
2011.668	n/a	REC_WORD	1005834	wordpools/wasnorm_wordpool_less_exclusions.txt	LTP240	ltpFR	13	7	1	PLUMBER	1091	n/a	1	n/a	0	0	0	n/a	n/a	n/a	n/a	n/a
2012.156	n/a	REC_WORD	1006078	wordpools/wasnorm_wordpool_less_exclusions.txt	LTP240	ltpFR	13	7	0	HEDGE	699	n/a	0	n/a	0	0	0	n/a	n/a	n/a	n/a	n/a
2013.24	n/a	REC_WORD	1006620	wordpools/wasnorm_wordpool_less_exclusions.txt	LTP240	ltpFR	13	7	0	LEAF	808	n/a	0	n/a	0	0	0	n/a	n/a	n/a	n/a	n/a
2015.928	n/a	REC_WORD	1007964	wordpools/wasnorm_wordpool_less_exclusions.txt	LTP240	ltpFR	13	7	1	GARDEN	623	n/a	0	n/a	0	0	0	n/a	n/a	n/a	n/a	n/a
2023.062	n/a	REC_WORD	1011531	wordpools/wasnorm_wordpool_less_exclusions.txt	LTP240	ltpFR	13	7	1	FIG	563	n/a	0	n/a	0	0	0	n/a	n/a	n/a	n/a	n/a
2026.444	n/a	REC_WORD	1013222	wordpools/wasnorm_wordpool_less_exclusions.txt	LTP240	ltpFR	13	7	0	CREVICE	405	n/a	1	n/a	0	0	0	n/a	n/a	n/a	n/a	n/a
2139.614	n/a	START	1069807	n/a	LTP240	ltpFR	13	n/a	n/a	n/a	n/a	n/a	n/a	n/a	n/a	n/a	n/a	n/a	n/a	n/a	n/a	n/a
2141.128	n/a	PROB	1070564	n/a	LTP240	ltpFR	13	n/a	n/a	n/a	n/a	n/a	n/a	19	9	5	5	n/a	n/a	n/a	n/a	n/a
2142.942	n/a	PROB	1071471	n/a	LTP240	ltpFR	13	n/a	n/a	n/a	n/a	n/a	n/a	11	5	4	2	n/a	n/a	n/a	n/a	n/a
2144.972	n/a	PROB	1072486	n/a	LTP240	ltpFR	13	n/a	n/a	n/a	n/a	n/a	n/a	10	5	4	1	n/a	n/a	n/a	n/a	n/a
2146.808	n/a	STOP	1073404	n/a	LTP240	ltpFR	13	n/a	n/a	n/a	n/a	n/a	n/a	n/a	n/a	n/a	n/a	n/a	n/a	n/a	n/a	n/a
2148.666	n/a	WORD	1074333	wordpools/wasnorm_wordpool_less_exclusions.txt	LTP240	ltpFR	13	8	1	CAGE	218	n/a	0	n/a	0	0	0	0	0.5869140625	0.422607421875	lower	../fonts/zerothre.ttf
2151.68	n/a	START	1075840	n/a	LTP240	ltpFR	13	n/a	n/a	n/a	n/a	n/a	n/a	n/a	n/a	n/a	n/a	n/a	n/a	n/a	n/a	n/a
2152.694	n/a	PROB	1076347	n/a	LTP240	ltpFR	13	n/a	n/a	n/a	n/a	n/a	n/a	17	6	9	2	n/a	n/a	n/a	n/a	n/a
2154.874	n/a	PROB	1077437	n/a	LTP240	ltpFR	13	n/a	n/a	n/a	n/a	n/a	n/a	19	9	5	5	n/a	n/a	n/a	n/a	n/a
2156.138	n/a	PROB	1078069	n/a	LTP240	ltpFR	13	n/a	n/a	n/a	n/a	n/a	n/a	23	9	5	9	n/a	n/a	n/a	n/a	n/a
2157.92	n/a	PROB	1078960	n/a	LTP240	ltpFR	13	n/a	n/a	n/a	n/a	n/a	n/a	11	5	1	5	n/a	n/a	n/a	n/a	n/a
2158.976	n/a	STOP	1079488	n/a	LTP240	ltpFR	13	n/a	n/a	n/a	n/a	n/a	n/a	n/a	n/a	n/a	n/a	n/a	n/a	n/a	n/a	n/a
2160.598	n/a	WORD	1080299	wordpools/wasnorm_wordpool_less_exclusions.txt	LTP240	ltpFR	13	8	1	CANVAS	234	n/a	0	n/a	0	0	0	0	0.5869140625	0.422607421875	lower	../fonts/zerothre.ttf
2163.612	n/a	START	1081806	n/a	LTP240	ltpFR	13	n/a	n/a	n/a	n/a	n/a	n/a	n/a	n/a	n/a	n/a	n/a	n/a	n/a	n/a	n/a
2164.692	n/a	PROB	1082346	n/a	LTP240	ltpFR	13	n/a	n/a	n/a	n/a	n/a	n/a	16	7	2	7	n/a	n/a	n/a	n/a	n/a
2166.074	n/a	PROB	1083037	n/a	LTP240	ltpFR	13	n/a	n/a	n/a	n/a	n/a	n/a	17	1	9	7	n/a	n/a	n/a	n/a	n/a
2167.504	n/a	PROB	1083752	n/a	LTP240	ltpFR	13	n/a	n/a	n/a	n/a	n/a	n/a	14	9	3	2	n/a	n/a	n/a	n/a	n/a
2169.052	n/a	PROB	1084526	n/a	LTP240	ltpFR	13	n/a	n/a	n/a	n/a	n/a	n/a	19	5	8	6	n/a	n/a	n/a	n/a	n/a
2171.192	n/a	STOP	1085596	n/a	LTP240	ltpFR	13	n/a	n/a	n/a	n/a	n/a	n/a	n/a	n/a	n/a	n/a	n/a	n/a	n/a	n/a	n/a
2172.564	n/a	WORD	1086282	wordpools/wasnorm_wordpool_less_exclusions.txt	LTP240	ltpFR	13	8	1	CURB	426	n/a	0	n/a	0	0	0	0	0.5869140625	0.422607421875	lower	../fonts/zerothre.ttf
2175.576	n/a	START	1087788	n/a	LTP240	ltpFR	13	n/a	n/a	n/a	n/a	n/a	n/a	n/a	n/a	n/a	n/a	n/a	n/a	n/a	n/a	n/a
2176.49	n/a	PROB	1088245	n/a	LTP240	ltpFR	13	n/a	n/a	n/a	n/a	n/a	n/a	12	5	6	1	n/a	n/a	n/a	n/a	n/a
2178.356	n/a	PROB	1089178	n/a	LTP240	ltpFR	13	n/a	n/a	n/a	n/a	n/a	n/a	13	2	6	5	n/a	n/a	n/a	n/a	n/a
2181.268	n/a	PROB	1090634	n/a	LTP240	ltpFR	13	n/a	n/a	n/a	n/a	n/a	n/a	12	7	3	2	n/a	n/a	n/a	n/a	n/a
2182.544	n/a	STOP	1091272	n/a	LTP240	ltpFR	13	n/a	n/a	n/a	n/a	n/a	n/a	n/a	n/a	n/a	n/a	n/a	n/a	n/a	n/a	n/a
2184.63	n/a	WORD	1092315	wordpools/wasnorm_wordpool_less_exclusions.txt	LTP240	ltpFR	13	8	0	BANDANNA	80	n/a	0	n/a	0	0	0	1	0.412841796875	0.57763671875	upper	../fonts/amplitud.ttf
2187.644	n/a	START	1093822	n/a	LTP240	ltpFR	13	n/a	n/a	n/a	n/a	n/a	n/a	n/a	n/a	n/a	n/a	n/a	n/a	n/a	n/a	n/a
2188.624	n/a	PROB	1094312	n/a	LTP240	ltpFR	13	n/a	n/a	n/a	n/a	n/a	n/a	10	2	7	1	n/a	n/a	n/a	n/a	n/a
2190.438	n/a	PROB	1095219	n/a	LTP240	ltpFR	13	n/a	n/a	n/a	n/a	n/a	n/a	15	5	1	9	n/a	n/a	n/a	n/a	n/a
2192.086	n/a	PROB	1096043	n/a	LTP240	ltpFR	13	n/a	n/a	n/a	n/a	n/a	n/a	17	9	5	3	n/a	n/a	n/a	n/a	n/a
2194.77	n/a	STOP	1097385	n/a	LTP240	ltpFR	13	n/a	n/a	n/a	n/a	n/a	n/a	n/a	n/a	n/a	n/a	n/a	n/a	n/a	n/a	n/a
2196.58	n/a	WORD	1098290	wordpools/wasnorm_wordpool_less_exclusions.txt	LTP240	ltpFR	13	8	0	RUBY	1214	n/a	0	n/a	0	0	0	1	0.412841796875	0.57763671875	upper	../fonts/amplitud.ttf
2199.592	n/a	START	1099796	n/a	LTP240	ltpFR	13	n/a	n/a	n/a	n/a	n/a	n/a	n/a	n/a	n/a	n/a	n/a	n/a	n/a	n/a	n/a
2200.774	n/a	PROB	1100387	n/a	LTP240	ltpFR	13	n/a	n/a	n/a	n/a	n/a	n/a	18	1	8	9	n/a	n/a	n/a	n/a	n/a
2202.27	n/a	PROB	1101135	n/a	LTP240	ltpFR	13	n/a	n/a	n/a	n/a	n/a	n/a	24	9	9	6	n/a	n/a	n/a	n/a	n/a
2206.41	n/a	STOP	1103205	n/a	LTP240	ltpFR	13	n/a	n/a	n/a	n/a	n/a	n/a	n/a	n/a	n/a	n/a	n/a	n/a	n/a	n/a	n/a
2208.794	n/a	WORD	1104397	wordpools/wasnorm_wordpool_less_exclusions.txt	LTP240	ltpFR	13	8	0	TRAY	1498	n/a	1	n/a	0	0	0	1	0.412841796875	0.57763671875	upper	../fonts/amplitud.ttf
2211.806	n/a	START	1105903	n/a	LTP240	ltpFR	13	n/a	n/a	n/a	n/a	n/a	n/a	n/a	n/a	n/a	n/a	n/a	n/a	n/a	n/a	n/a
2212.638	n/a	PROB	1106319	n/a	LTP240	ltpFR	13	n/a	n/a	n/a	n/a	n/a	n/a	11	3	3	5	n/a	n/a	n/a	n/a	n/a
2215.784	n/a	PROB	1107892	n/a	LTP240	ltpFR	13	n/a	n/a	n/a	n/a	n/a	n/a	18	6	8	4	n/a	n/a	n/a	n/a	n/a
2217.814	n/a	PROB	1108907	n/a	LTP240	ltpFR	13	n/a	n/a	n/a	n/a	n/a	n/a	8	2	2	4	n/a	n/a	n/a	n/a	n/a
2219.504	n/a	STOP	1109752	n/a	LTP240	ltpFR	13	n/a	n/a	n/a	n/a	n/a	n/a	n/a	n/a	n/a	n/a	n/a	n/a	n/a	n/a	n/a
2220.744	n/a	WORD	1110372	wordpools/wasnorm_wordpool_less_exclusions.txt	LTP240	ltpFR	13	8	0	SEA	1259	n/a	1	n/a	0	0	0	1	0.412841796875	0.57763671875	upper	../fonts/amplitud.ttf
2223.756	n/a	START	1111878	n/a	LTP240	ltpFR	13	n/a	n/a	n/a	n/a	n/a	n/a	n/a	n/a	n/a	n/a	n/a	n/a	n/a	n/a	n/a
2224.704	n/a	PROB	1112352	n/a	LTP240	ltpFR	13	n/a	n/a	n/a	n/a	n/a	n/a	20	6	5	9	n/a	n/a	n/a	n/a	n/a
2227.982	n/a	PROB	1113991	n/a	LTP240	ltpFR	13	n/a	n/a	n/a	n/a	n/a	n/a	21	9	5	7	n/a	n/a	n/a	n/a	n/a
2231.754	n/a	STOP	1115877	n/a	LTP240	ltpFR	13	n/a	n/a	n/a	n/a	n/a	n/a	n/a	n/a	n/a	n/a	n/a	n/a	n/a	n/a	n/a
2232.692	n/a	WORD	1116346	wordpools/wasnorm_wordpool_less_exclusions.txt	LTP240	ltpFR	13	8	1	PROFESSIONAL	1130	n/a	1	n/a	0	0	0	0	0.5869140625	0.422607421875	lower	../fonts/zerothre.ttf
2235.704	n/a	START	1117852	n/a	LTP240	ltpFR	13	n/a	n/a	n/a	n/a	n/a	n/a	n/a	n/a	n/a	n/a	n/a	n/a	n/a	n/a	n/a
2236.536	n/a	PROB	1118268	n/a	LTP240	ltpFR	13	n/a	n/a	n/a	n/a	n/a	n/a	17	7	4	6	n/a	n/a	n/a	n/a	n/a
2238.75	n/a	PROB	1119375	n/a	LTP240	ltpFR	13	n/a	n/a	n/a	n/a	n/a	n/a	16	2	5	9	n/a	n/a	n/a	n/a	n/a
2243.698	n/a	STOP	1121849	n/a	LTP240	ltpFR	13	n/a	n/a	n/a	n/a	n/a	n/a	n/a	n/a	n/a	n/a	n/a	n/a	n/a	n/a	n/a
2244.54	n/a	WORD	1122270	wordpools/wasnorm_wordpool_less_exclusions.txt	LTP240	ltpFR	13	8	1	EXPERT	543	n/a	1	n/a	0	0	0	0	0.5869140625	0.422607421875	lower	../fonts/zerothre.ttf
2247.552	n/a	START	1123776	n/a	LTP240	ltpFR	13	n/a	n/a	n/a	n/a	n/a	n/a	n/a	n/a	n/a	n/a	n/a	n/a	n/a	n/a	n/a
2248.402	n/a	PROB	1124201	n/a	LTP240	ltpFR	13	n/a	n/a	n/a	n/a	n/a	n/a	12	7	2	3	n/a	n/a	n/a	n/a	n/a
2250.366	n/a	PROB	1125183	n/a	LTP240	ltpFR	13	n/a	n/a	n/a	n/a	n/a	n/a	16	6	6	4	n/a	n/a	n/a	n/a	n/a
2252.812	n/a	PROB	1126406	n/a	LTP240	ltpFR	13	n/a	n/a	n/a	n/a	n/a	n/a	18	7	9	2	n/a	n/a	n/a	n/a	n/a
2254.538	n/a	STOP	1127269	n/a	LTP240	ltpFR	13	n/a	n/a	n/a	n/a	n/a	n/a	n/a	n/a	n/a	n/a	n/a	n/a	n/a	n/a	n/a
2256.558	n/a	WORD	1128279	wordpools/wasnorm_wordpool_less_exclusions.txt	LTP240	ltpFR	13	8	1	HAIL	676	n/a	0	n/a	0	0	0	0	0.5869140625	0.422607421875	lower	../fonts/zerothre.ttf
2259.57	n/a	START	1129785	n/a	LTP240	ltpFR	13	n/a	n/a	n/a	n/a	n/a	n/a	n/a	n/a	n/a	n/a	n/a	n/a	n/a	n/a	n/a
2260.434	n/a	PROB	1130217	n/a	LTP240	ltpFR	13	n/a	n/a	n/a	n/a	n/a	n/a	12	5	3	4	n/a	n/a	n/a	n/a	n/a
2267.57	n/a	STOP	1133785	n/a	LTP240	ltpFR	13	n/a	n/a	n/a	n/a	n/a	n/a	n/a	n/a	n/a	n/a	n/a	n/a	n/a	n/a	n/a
2268.672	n/a	WORD	1134336	wordpools/wasnorm_wordpool_less_exclusions.txt	LTP240	ltpFR	13	8	1	CONSOLE	364	n/a	0	n/a	0	0	0	0	0.5869140625	0.422607421875	lower	../fonts/zerothre.ttf
2271.686	n/a	START	1135843	n/a	LTP240	ltpFR	13	n/a	n/a	n/a	n/a	n/a	n/a	n/a	n/a	n/a	n/a	n/a	n/a	n/a	n/a	n/a
2272.8	n/a	PROB	1136400	n/a	LTP240	ltpFR	13	n/a	n/a	n/a	n/a	n/a	n/a	19	3	7	9	n/a	n/a	n/a	n/a	n/a
2274.248	n/a	PROB	1137124	n/a	LTP240	ltpFR	13	n/a	n/a	n/a	n/a	n/a	n/a	13	5	6	2	n/a	n/a	n/a	n/a	n/a
2277.194	n/a	PROB	1138597	n/a	LTP240	ltpFR	13	n/a	n/a	n/a	n/a	n/a	n/a	15	3	3	9	n/a	n/a	n/a	n/a	n/a
2279.186	n/a	STOP	1139593	n/a	LTP240	ltpFR	13	n/a	n/a	n/a	n/a	n/a	n/a	n/a	n/a	n/a	n/a	n/a	n/a	n/a	n/a	n/a
2280.554	n/a	WORD	1140277	wordpools/wasnorm_wordpool_less_exclusions.txt	LTP240	ltpFR	13	8	1	STREET	1393	n/a	1	n/a	0	0	0	0	0.5869140625	0.422607421875	lower	../fonts/zerothre.ttf
2283.568	n/a	START	1141784	n/a	LTP240	ltpFR	13	n/a	n/a	n/a	n/a	n/a	n/a	n/a	n/a	n/a	n/a	n/a	n/a	n/a	n/a	n/a
2284.414	n/a	PROB	1142207	n/a	LTP240	ltpFR	13	n/a	n/a	n/a	n/a	n/a	n/a	13	5	6	2	n/a	n/a	n/a	n/a	n/a
2291.554	n/a	STOP	1145777	n/a	LTP240	ltpFR	13	n/a	n/a	n/a	n/a	n/a	n/a	n/a	n/a	n/a	n/a	n/a	n/a	n/a	n/a	n/a
2292.654	n/a	WORD	1146327	wordpools/wasnorm_wordpool_less_exclusions.txt	LTP240	ltpFR	13	8	0	CANARY	227	n/a	0	n/a	0	0	0	1	0.412841796875	0.57763671875	upper	../fonts/amplitud.ttf
2295.666	n/a	START	1147833	n/a	LTP240	ltpFR	13	n/a	n/a	n/a	n/a	n/a	n/a	n/a	n/a	n/a	n/a	n/a	n/a	n/a	n/a	n/a
2296.814	n/a	PROB	1148407	n/a	LTP240	ltpFR	13	n/a	n/a	n/a	n/a	n/a	n/a	20	5	8	7	n/a	n/a	n/a	n/a	n/a
2300.026	n/a	PROB	1150013	n/a	LTP240	ltpFR	13	n/a	n/a	n/a	n/a	n/a	n/a	17	1	9	7	n/a	n/a	n/a	n/a	n/a
2301.59	n/a	PROB	1150795	n/a	LTP240	ltpFR	13	n/a	n/a	n/a	n/a	n/a	n/a	10	1	3	6	n/a	n/a	n/a	n/a	n/a
2303.402	n/a	STOP	1151701	n/a	LTP240	ltpFR	13	n/a	n/a	n/a	n/a	n/a	n/a	n/a	n/a	n/a	n/a	n/a	n/a	n/a	n/a	n/a
2304.868	n/a	WORD	1152434	wordpools/wasnorm_wordpool_less_exclusions.txt	LTP240	ltpFR	13	8	0	SCAPEGOAT	1244	n/a	1	n/a	0	0	0	1	0.412841796875	0.57763671875	upper	../fonts/amplitud.ttf
2307.882	n/a	START	1153941	n/a	LTP240	ltpFR	13	n/a	n/a	n/a	n/a	n/a	n/a	n/a	n/a	n/a	n/a	n/a	n/a	n/a	n/a	n/a
2309.028	n/a	PROB	1154514	n/a	LTP240	ltpFR	13	n/a	n/a	n/a	n/a	n/a	n/a	13	5	6	2	n/a	n/a	n/a	n/a	n/a
2311.892	n/a	PROB	1155946	n/a	LTP240	ltpFR	13	n/a	n/a	n/a	n/a	n/a	n/a	22	9	6	7	n/a	n/a	n/a	n/a	n/a
2315.88	n/a	STOP	1157940	n/a	LTP240	ltpFR	13	n/a	n/a	n/a	n/a	n/a	n/a	n/a	n/a	n/a	n/a	n/a	n/a	n/a	n/a	n/a
2316.984	n/a	WORD	1158492	wordpools/wasnorm_wordpool_less_exclusions.txt	LTP240	ltpFR	13	8	0	TRAITOR	1495	n/a	1	n/a	0	0	0	1	0.412841796875	0.57763671875	upper	../fonts/amplitud.ttf
2319.996	n/a	START	1159998	n/a	LTP240	ltpFR	13	n/a	n/a	n/a	n/a	n/a	n/a	n/a	n/a	n/a	n/a	n/a	n/a	n/a	n/a	n/a
2321.178	n/a	PROB	1160589	n/a	LTP240	ltpFR	13	n/a	n/a	n/a	n/a	n/a	n/a	19	6	7	6	n/a	n/a	n/a	n/a	n/a
2323.408	n/a	PROB	1161704	n/a	LTP240	ltpFR	13	n/a	n/a	n/a	n/a	n/a	n/a	18	2	8	8	n/a	n/a	n/a	n/a	n/a
2324.922	n/a	PROB	1162461	n/a	LTP240	ltpFR	13	n/a	n/a	n/a	n/a	n/a	n/a	10	1	2	7	n/a	n/a	n/a	n/a	n/a
2327.538	n/a	STOP	1163769	n/a	LTP240	ltpFR	13	n/a	n/a	n/a	n/a	n/a	n/a	n/a	n/a	n/a	n/a	n/a	n/a	n/a	n/a	n/a
2328.834	n/a	WORD	1164417	wordpools/wasnorm_wordpool_less_exclusions.txt	LTP240	ltpFR	13	8	0	CHARCOAL	281	n/a	0	n/a	0	0	0	1	0.412841796875	0.57763671875	upper	../fonts/amplitud.ttf
2331.846	n/a	START	1165923	n/a	LTP240	ltpFR	13	n/a	n/a	n/a	n/a	n/a	n/a	n/a	n/a	n/a	n/a	n/a	n/a	n/a	n/a	n/a
2332.728	n/a	PROB	1166364	n/a	LTP240	ltpFR	13	n/a	n/a	n/a	n/a	n/a	n/a	22	8	9	5	n/a	n/a	n/a	n/a	n/a
2336.04	n/a	PROB	1168020	n/a	LTP240	ltpFR	13	n/a	n/a	n/a	n/a	n/a	n/a	11	2	3	6	n/a	n/a	n/a	n/a	n/a
2337.47	n/a	PROB	1168735	n/a	LTP240	ltpFR	13	n/a	n/a	n/a	n/a	n/a	n/a	12	3	6	3	n/a	n/a	n/a	n/a	n/a
2339.788	n/a	STOP	1169894	n/a	LTP240	ltpFR	13	n/a	n/a	n/a	n/a	n/a	n/a	n/a	n/a	n/a	n/a	n/a	n/a	n/a	n/a	n/a
2341.766	n/a	REC_START	1170883	n/a	LTP240	ltpFR	13	8	n/a	n/a	n/a	n/a	n/a	n/a	0	0	0	n/a	n/a	n/a	n/a	n/a
2343.592	n/a	REC_WORD	1171796	wordpools/wasnorm_wordpool_less_exclusions.txt	LTP240	ltpFR	13	8	0	BANDANNA	80	n/a	0	n/a	0	0	0	n/a	n/a	n/a	n/a	n/a
2345.288	n/a	REC_WORD	1172644	wordpools/wasnorm_wordpool_less_exclusions.txt	LTP240	ltpFR	13	8	0	CHARCOAL	281	n/a	0	n/a	0	0	0	n/a	n/a	n/a	n/a	n/a
2348.06	n/a	REC_WORD	1174030	wordpools/wasnorm_wordpool_less_exclusions.txt	LTP240	ltpFR	13	8	0	CANARY	227	n/a	0	n/a	0	0	0	n/a	n/a	n/a	n/a	n/a
2351.198	n/a	REC_WORD	1175599	wordpools/wasnorm_wordpool_less_exclusions.txt	LTP240	ltpFR	13	8	1	PROFESSIONAL	1130	n/a	1	n/a	0	0	0	n/a	n/a	n/a	n/a	n/a
2352.118	n/a	REC_WORD	1176059	wordpools/wasnorm_wordpool_less_exclusions.txt	LTP240	ltpFR	13	8	1	EXPERT	543	n/a	1	n/a	0	0	0	n/a	n/a	n/a	n/a	n/a
2356.368	n/a	REC_WORD	1178184	wordpools/wasnorm_wordpool_less_exclusions.txt	LTP240	ltpFR	13	8	1	STREET	1393	n/a	1	n/a	0	0	0	n/a	n/a	n/a	n/a	n/a
2400.622	n/a	REC_WORD	1200311	wordpools/wasnorm_wordpool_less_exclusions.txt	LTP240	ltpFR	13	8	0	SCAPEGOAT	1244	n/a	1	n/a	0	0	0	n/a	n/a	n/a	n/a	n/a
2468.526	n/a	START	1234263	n/a	LTP240	ltpFR	13	n/a	n/a	n/a	n/a	n/a	n/a	n/a	n/a	n/a	n/a	n/a	n/a	n/a	n/a	n/a
2470.042	n/a	PROB	1235021	n/a	LTP240	ltpFR	13	n/a	n/a	n/a	n/a	n/a	n/a	20	6	8	6	n/a	n/a	n/a	n/a	n/a
2472.536	n/a	PROB	1236268	n/a	LTP240	ltpFR	13	n/a	n/a	n/a	n/a	n/a	n/a	20	3	8	9	n/a	n/a	n/a	n/a	n/a
2476.914	n/a	PROB	1238457	n/a	LTP240	ltpFR	13	n/a	n/a	n/a	n/a	n/a	n/a	19	7	7	5	n/a	n/a	n/a	n/a	n/a
2478.628	n/a	PROB	1239314	n/a	LTP240	ltpFR	13	n/a	n/a	n/a	n/a	n/a	n/a	24	9	9	7	n/a	n/a	n/a	n/a	n/a
2482.522	n/a	PROB	1241261	n/a	LTP240	ltpFR	13	n/a	n/a	n/a	n/a	n/a	n/a	17	7	8	2	n/a	n/a	n/a	n/a	n/a
2484.366	n/a	STOP	1242183	n/a	LTP240	ltpFR	13	n/a	n/a	n/a	n/a	n/a	n/a	n/a	n/a	n/a	n/a	n/a	n/a	n/a	n/a	n/a
2485.5	n/a	WORD	1242750	wordpools/wasnorm_wordpool_less_exclusions.txt	LTP240	ltpFR	13	9	1	OWL	992	n/a	1	n/a	0	0	0	0	0.5869140625	0.422607421875	lower	../fonts/zerothre.ttf
2488.514	n/a	START	1244257	n/a	LTP240	ltpFR	13	n/a	n/a	n/a	n/a	n/a	n/a	n/a	n/a	n/a	n/a	n/a	n/a	n/a	n/a	n/a
2489.696	n/a	PROB	1244848	n/a	LTP240	ltpFR	13	n/a	n/a	n/a	n/a	n/a	n/a	5	1	2	2	n/a	n/a	n/a	n/a	n/a
2491.642	n/a	PROB	1245821	n/a	LTP240	ltpFR	13	n/a	n/a	n/a	n/a	n/a	n/a	11	2	8	1	n/a	n/a	n/a	n/a	n/a
2494.006	n/a	PROB	1247003	n/a	LTP240	ltpFR	13	n/a	n/a	n/a	n/a	n/a	n/a	12	8	3	1	n/a	n/a	n/a	n/a	n/a
2495.686	n/a	PROB	1247843	n/a	LTP240	ltpFR	13	n/a	n/a	n/a	n/a	n/a	n/a	13	5	6	2	n/a	n/a	n/a	n/a	n/a
2499.73	n/a	PROB	1249865	n/a	LTP240	ltpFR	13	n/a	n/a	n/a	n/a	n/a	n/a	20	6	9	5	n/a	n/a	n/a	n/a	n/a
2503.822	n/a	STOP	1251911	n/a	LTP240	ltpFR	13	n/a	n/a	n/a	n/a	n/a	n/a	n/a	n/a	n/a	n/a	n/a	n/a	n/a	n/a	n/a
2505.554	n/a	WORD	1252777	wordpools/wasnorm_wordpool_less_exclusions.txt	LTP240	ltpFR	13	9	1	COB	334	n/a	0	n/a	0	0	0	0	0.5869140625	0.422607421875	lower	../fonts/zerothre.ttf
2508.568	n/a	START	1254284	n/a	LTP240	ltpFR	13	n/a	n/a	n/a	n/a	n/a	n/a	n/a	n/a	n/a	n/a	n/a	n/a	n/a	n/a	n/a
2509.416	n/a	PROB	1254708	n/a	LTP240	ltpFR	13	n/a	n/a	n/a	n/a	n/a	n/a	11	9	1	1	n/a	n/a	n/a	n/a	n/a
2510.598	n/a	PROB	1255299	n/a	LTP240	ltpFR	13	n/a	n/a	n/a	n/a	n/a	n/a	8	2	3	3	n/a	n/a	n/a	n/a	n/a
2512.528	n/a	PROB	1256264	n/a	LTP240	ltpFR	13	n/a	n/a	n/a	n/a	n/a	n/a	19	4	8	7	n/a	n/a	n/a	n/a	n/a
2515.124	n/a	PROB	1257562	n/a	LTP240	ltpFR	13	n/a	n/a	n/a	n/a	n/a	n/a	12	2	2	8	n/a	n/a	n/a	n/a	n/a
2516.504	n/a	PROB	1258252	n/a	LTP240	ltpFR	13	n/a	n/a	n/a	n/a	n/a	n/a	12	1	5	6	n/a	n/a	n/a	n/a	n/a
2518.104	n/a	PROB	1259052	n/a	LTP240	ltpFR	13	n/a	n/a	n/a	n/a	n/a	n/a	15	5	9	1	n/a	n/a	n/a	n/a	n/a
2519.318	n/a	PROB	1259659	n/a	LTP240	ltpFR	13	n/a	n/a	n/a	n/a	n/a	n/a	17	5	7	5	n/a	n/a	n/a	n/a	n/a
2520.948	n/a	PROB	1260474	n/a	LTP240	ltpFR	13	n/a	n/a	n/a	n/a	n/a	n/a	12	7	1	4	n/a	n/a	n/a	n/a	n/a
2524.568	n/a	STOP	1262284	n/a	LTP240	ltpFR	13	n/a	n/a	n/a	n/a	n/a	n/a	n/a	n/a	n/a	n/a	n/a	n/a	n/a	n/a	n/a
2525.442	n/a	WORD	1262721	wordpools/wasnorm_wordpool_less_exclusions.txt	LTP240	ltpFR	13	9	0	CAFE	216	n/a	1	n/a	0	0	0	1	0.412841796875	0.57763671875	upper	../fonts/amplitud.ttf
2528.454	n/a	START	1264227	n/a	LTP240	ltpFR	13	n/a	n/a	n/a	n/a	n/a	n/a	n/a	n/a	n/a	n/a	n/a	n/a	n/a	n/a	n/a
2529.502	n/a	PROB	1264751	n/a	LTP240	ltpFR	13	n/a	n/a	n/a	n/a	n/a	n/a	18	6	5	7	n/a	n/a	n/a	n/a	n/a
2532.048	n/a	PROB	1266024	n/a	LTP240	ltpFR	13	n/a	n/a	n/a	n/a	n/a	n/a	13	5	1	7	n/a	n/a	n/a	n/a	n/a
2535.012	n/a	PROB	1267506	n/a	LTP240	ltpFR	13	n/a	n/a	n/a	n/a	n/a	n/a	14	3	8	3	n/a	n/a	n/a	n/a	n/a
2538.04	n/a	PROB	1269020	n/a	LTP240	ltpFR	13	n/a	n/a	n/a	n/a	n/a	n/a	15	1	6	8	n/a	n/a	n/a	n/a	n/a
2540.704	n/a	PROB	1270352	n/a	LTP240	ltpFR	13	n/a	n/a	n/a	n/a	n/a	n/a	7	4	2	1	n/a	n/a	n/a	n/a	n/a
2543.518	n/a	STOP	1271759	n/a	LTP240	ltpFR	13	n/a	n/a	n/a	n/a	n/a	n/a	n/a	n/a	n/a	n/a	n/a	n/a	n/a	n/a	n/a
2545.396	n/a	WORD	1272698	wordpools/wasnorm_wordpool_less_exclusions.txt	LTP240	ltpFR	13	9	0	NAVIGATOR	938	n/a	1	n/a	0	0	0	1	0.412841796875	0.57763671875	upper	../fonts/amplitud.ttf
2548.41	n/a	START	1274205	n/a	LTP240	ltpFR	13	n/a	n/a	n/a	n/a	n/a	n/a	n/a	n/a	n/a	n/a	n/a	n/a	n/a	n/a	n/a
2549.456	n/a	PROB	1274728	n/a	LTP240	ltpFR	13	n/a	n/a	n/a	n/a	n/a	n/a	1	3	6	1	n/a	n/a	n/a	n/a	n/a
2551.604	n/a	PROB	1275802	n/a	LTP240	ltpFR	13	n/a	n/a	n/a	n/a	n/a	n/a	19	9	5	5	n/a	n/a	n/a	n/a	n/a
2553.718	n/a	PROB	1276859	n/a	LTP240	ltpFR	13	n/a	n/a	n/a	n/a	n/a	n/a	18	8	6	4	n/a	n/a	n/a	n/a	n/a
2555.764	n/a	PROB	1277882	n/a	LTP240	ltpFR	13	n/a	n/a	n/a	n/a	n/a	n/a	19	3	7	9	n/a	n/a	n/a	n/a	n/a
2557.46	n/a	PROB	1278730	n/a	LTP240	ltpFR	13	n/a	n/a	n/a	n/a	n/a	n/a	15	4	4	7	n/a	n/a	n/a	n/a	n/a
2564.41	n/a	STOP	1282205	n/a	LTP240	ltpFR	13	n/a	n/a	n/a	n/a	n/a	n/a	n/a	n/a	n/a	n/a	n/a	n/a	n/a	n/a	n/a
2565.616	n/a	WORD	1282808	wordpools/wasnorm_wordpool_less_exclusions.txt	LTP240	ltpFR	13	9	0	STUDENT	1395	n/a	1	n/a	0	0	0	1	0.412841796875	0.57763671875	upper	../fonts/amplitud.ttf
2568.63	n/a	START	1284315	n/a	LTP240	ltpFR	13	n/a	n/a	n/a	n/a	n/a	n/a	n/a	n/a	n/a	n/a	n/a	n/a	n/a	n/a	n/a
2569.492	n/a	PROB	1284746	n/a	LTP240	ltpFR	13	n/a	n/a	n/a	n/a	n/a	n/a	10	3	6	1	n/a	n/a	n/a	n/a	n/a
2571.956	n/a	PROB	1285978	n/a	LTP240	ltpFR	13	n/a	n/a	n/a	n/a	n/a	n/a	12	5	2	5	n/a	n/a	n/a	n/a	n/a
2573.938	n/a	PROB	1286969	n/a	LTP240	ltpFR	13	n/a	n/a	n/a	n/a	n/a	n/a	23	8	8	7	n/a	n/a	n/a	n/a	n/a
2576.8	n/a	PROB	1288400	n/a	LTP240	ltpFR	13	n/a	n/a	n/a	n/a	n/a	n/a	8	3	4	1	n/a	n/a	n/a	n/a	n/a
2578.614	n/a	PROB	1289307	n/a	LTP240	ltpFR	13	n/a	n/a	n/a	n/a	n/a	n/a	8	2	1	5	n/a	n/a	n/a	n/a	n/a
2580.228	n/a	PROB	1290114	n/a	LTP240	ltpFR	13	n/a	n/a	n/a	n/a	n/a	n/a	21	8	6	7	n/a	n/a	n/a	n/a	n/a
2583.222	n/a	STOP	1291611	n/a	LTP240	ltpFR	13	n/a	n/a	n/a	n/a	n/a	n/a	n/a	n/a	n/a	n/a	n/a	n/a	n/a	n/a	n/a
2585.82	n/a	WORD	1292910	wordpools/wasnorm_wordpool_less_exclusions.txt	LTP240	ltpFR	13	9	0	DIRECTOR	471	n/a	1	n/a	0	0	0	1	0.412841796875	0.57763671875	upper	../fonts/amplitud.ttf
2588.832	n/a	START	1294416	n/a	LTP240	ltpFR	13	n/a	n/a	n/a	n/a	n/a	n/a	n/a	n/a	n/a	n/a	n/a	n/a	n/a	n/a	n/a
2589.68	n/a	PROB	1294840	n/a	LTP240	ltpFR	13	n/a	n/a	n/a	n/a	n/a	n/a	16	6	9	1	n/a	n/a	n/a	n/a	n/a
2591.578	n/a	PROB	1295789	n/a	LTP240	ltpFR	13	n/a	n/a	n/a	n/a	n/a	n/a	18	8	2	8	n/a	n/a	n/a	n/a	n/a
2593.474	n/a	PROB	1296737	n/a	LTP240	ltpFR	13	n/a	n/a	n/a	n/a	n/a	n/a	14	4	1	9	n/a	n/a	n/a	n/a	n/a
2595.106	n/a	PROB	1297553	n/a	LTP240	ltpFR	13	n/a	n/a	n/a	n/a	n/a	n/a	11	7	3	1	n/a	n/a	n/a	n/a	n/a
2596.87	n/a	PROB	1298435	n/a	LTP240	ltpFR	13	n/a	n/a	n/a	n/a	n/a	n/a	13	8	1	4	n/a	n/a	n/a	n/a	n/a
2598.784	n/a	PROB	1299392	n/a	LTP240	ltpFR	13	n/a	n/a	n/a	n/a	n/a	n/a	22	9	5	8	n/a	n/a	n/a	n/a	n/a
2601.462	n/a	PROB	1300731	n/a	LTP240	ltpFR	13	n/a	n/a	n/a	n/a	n/a	n/a	14	6	5	3	n/a	n/a	n/a	n/a	n/a
2603.758	n/a	STOP	1301879	n/a	LTP240	ltpFR	13	n/a	n/a	n/a	n/a	n/a	n/a	n/a	n/a	n/a	n/a	n/a	n/a	n/a	n/a	n/a
2605.89	n/a	WORD	1302945	wordpools/wasnorm_wordpool_less_exclusions.txt	LTP240	ltpFR	13	9	1	COOLER	375	n/a	0	n/a	0	0	0	0	0.5869140625	0.422607421875	lower	../fonts/zerothre.ttf
2608.904	n/a	START	1304452	n/a	LTP240	ltpFR	13	n/a	n/a	n/a	n/a	n/a	n/a	n/a	n/a	n/a	n/a	n/a	n/a	n/a	n/a	n/a
2609.802	n/a	PROB	1304901	n/a	LTP240	ltpFR	13	n/a	n/a	n/a	n/a	n/a	n/a	26	9	8	9	n/a	n/a	n/a	n/a	n/a
2611.948	n/a	PROB	1305974	n/a	LTP240	ltpFR	13	n/a	n/a	n/a	n/a	n/a	n/a	18	8	9	1	n/a	n/a	n/a	n/a	n/a
2613.246	n/a	PROB	1306623	n/a	LTP240	ltpFR	13	n/a	n/a	n/a	n/a	n/a	n/a	17	9	7	1	n/a	n/a	n/a	n/a	n/a
2614.81	n/a	PROB	1307405	n/a	LTP240	ltpFR	13	n/a	n/a	n/a	n/a	n/a	n/a	12	1	6	5	n/a	n/a	n/a	n/a	n/a
2616.292	n/a	PROB	1308146	n/a	LTP240	ltpFR	13	n/a	n/a	n/a	n/a	n/a	n/a	12	8	3	1	n/a	n/a	n/a	n/a	n/a
2618.454	n/a	PROB	1309227	n/a	LTP240	ltpFR	13	n/a	n/a	n/a	n/a	n/a	n/a	21	8	8	5	n/a	n/a	n/a	n/a	n/a
2620.434	n/a	PROB	1310217	n/a	LTP240	ltpFR	13	n/a	n/a	n/a	n/a	n/a	n/a	12	1	6	5	n/a	n/a	n/a	n/a	n/a
2621.984	n/a	PROB	1310992	n/a	LTP240	ltpFR	13	n/a	n/a	n/a	n/a	n/a	n/a	9	4	4	1	n/a	n/a	n/a	n/a	n/a
2624.904	n/a	STOP	1312452	n/a	LTP240	ltpFR	13	n/a	n/a	n/a	n/a	n/a	n/a	n/a	n/a	n/a	n/a	n/a	n/a	n/a	n/a	n/a
2625.928	n/a	WORD	1312964	wordpools/wasnorm_wordpool_less_exclusions.txt	LTP240	ltpFR	13	9	1	MUG	930	n/a	0	n/a	0	0	0	0	0.5869140625	0.422607421875	lower	../fonts/zerothre.ttf
2628.94	n/a	START	1314470	n/a	LTP240	ltpFR	13	n/a	n/a	n/a	n/a	n/a	n/a	n/a	n/a	n/a	n/a	n/a	n/a	n/a	n/a	n/a
2629.988	n/a	PROB	1314994	n/a	LTP240	ltpFR	13	n/a	n/a	n/a	n/a	n/a	n/a	12	5	2	5	n/a	n/a	n/a	n/a	n/a
2631.202	n/a	PROB	1315601	n/a	LTP240	ltpFR	13	n/a	n/a	n/a	n/a	n/a	n/a	11	2	2	7	n/a	n/a	n/a	n/a	n/a
2633.084	n/a	PROB	1316542	n/a	LTP240	ltpFR	13	n/a	n/a	n/a	n/a	n/a	n/a	13	3	9	1	n/a	n/a	n/a	n/a	n/a
2634.464	n/a	PROB	1317232	n/a	LTP240	ltpFR	13	n/a	n/a	n/a	n/a	n/a	n/a	15	2	9	4	n/a	n/a	n/a	n/a	n/a
2636.578	n/a	PROB	1318289	n/a	LTP240	ltpFR	13	n/a	n/a	n/a	n/a	n/a	n/a	18	9	8	1	n/a	n/a	n/a	n/a	n/a
2638.042	n/a	PROB	1319021	n/a	LTP240	ltpFR	13	n/a	n/a	n/a	n/a	n/a	n/a	15	2	4	9	n/a	n/a	n/a	n/a	n/a
2640.206	n/a	PROB	1320103	n/a	LTP240	ltpFR	13	n/a	n/a	n/a	n/a	n/a	n/a	9	3	2	4	n/a	n/a	n/a	n/a	n/a
2642.02	n/a	PROB	1321010	n/a	LTP240	ltpFR	13	n/a	n/a	n/a	n/a	n/a	n/a	14	1	9	4	n/a	n/a	n/a	n/a	n/a
2643.334	n/a	PROB	1321667	n/a	LTP240	ltpFR	13	n/a	n/a	n/a	n/a	n/a	n/a	12	5	6	1	n/a	n/a	n/a	n/a	n/a
2644.92	n/a	STOP	1322460	n/a	LTP240	ltpFR	13	n/a	n/a	n/a	n/a	n/a	n/a	n/a	n/a	n/a	n/a	n/a	n/a	n/a	n/a	n/a
2645.914	n/a	WORD	1322957	wordpools/wasnorm_wordpool_less_exclusions.txt	LTP240	ltpFR	13	9	0	CHICKEN	297	n/a	1	n/a	0	0	0	1	0.412841796875	0.57763671875	upper	../fonts/amplitud.ttf
2648.926	n/a	START	1324463	n/a	LTP240	ltpFR	13	n/a	n/a	n/a	n/a	n/a	n/a	n/a	n/a	n/a	n/a	n/a	n/a	n/a	n/a	n/a
2649.892	n/a	PROB	1324946	n/a	LTP240	ltpFR	13	n/a	n/a	n/a	n/a	n/a	n/a	20	9	8	3	n/a	n/a	n/a	n/a	n/a
2654.434	n/a	PROB	1327217	n/a	LTP240	ltpFR	13	n/a	n/a	n/a	n/a	n/a	n/a	10	5	4	1	n/a	n/a	n/a	n/a	n/a
2656.514	n/a	PROB	1328257	n/a	LTP240	ltpFR	13	n/a	n/a	n/a	n/a	n/a	n/a	21	5	8	8	n/a	n/a	n/a	n/a	n/a
2659.876	n/a	PROB	1329938	n/a	LTP240	ltpFR	13	n/a	n/a	n/a	n/a	n/a	n/a	14	2	4	8	n/a	n/a	n/a	n/a	n/a
2664.926	n/a	STOP	1332463	n/a	LTP240	ltpFR	13	n/a	n/a	n/a	n/a	n/a	n/a	n/a	n/a	n/a	n/a	n/a	n/a	n/a	n/a	n/a
2666.134	n/a	WORD	1333067	wordpools/wasnorm_wordpool_less_exclusions.txt	LTP240	ltpFR	13	9	0	RECORD	1176	n/a	1	n/a	0	0	0	1	0.412841796875	0.57763671875	upper	../fonts/amplitud.ttf
2669.146	n/a	START	1334573	n/a	LTP240	ltpFR	13	n/a	n/a	n/a	n/a	n/a	n/a	n/a	n/a	n/a	n/a	n/a	n/a	n/a	n/a	n/a
2670.144	n/a	PROB	1335072	n/a	LTP240	ltpFR	13	n/a	n/a	n/a	n/a	n/a	n/a	17	5	7	5	n/a	n/a	n/a	n/a	n/a
2671.926	n/a	PROB	1335963	n/a	LTP240	ltpFR	13	n/a	n/a	n/a	n/a	n/a	n/a	10	1	7	2	n/a	n/a	n/a	n/a	n/a
2673.374	n/a	PROB	1336687	n/a	LTP240	ltpFR	13	n/a	n/a	n/a	n/a	n/a	n/a	13	9	3	1	n/a	n/a	n/a	n/a	n/a
2675.22	n/a	PROB	1337610	n/a	LTP240	ltpFR	13	n/a	n/a	n/a	n/a	n/a	n/a	20	3	8	9	n/a	n/a	n/a	n/a	n/a
2683.904	n/a	STOP	1341952	n/a	LTP240	ltpFR	13	n/a	n/a	n/a	n/a	n/a	n/a	n/a	n/a	n/a	n/a	n/a	n/a	n/a	n/a	n/a
2686.188	n/a	WORD	1343094	wordpools/wasnorm_wordpool_less_exclusions.txt	LTP240	ltpFR	13	9	0	BROTHER	179	n/a	1	n/a	0	0	0	1	0.412841796875	0.57763671875	upper	../fonts/amplitud.ttf
2689.2	n/a	START	1344600	n/a	LTP240	ltpFR	13	n/a	n/a	n/a	n/a	n/a	n/a	n/a	n/a	n/a	n/a	n/a	n/a	n/a	n/a	n/a
2690.166	n/a	PROB	1345083	n/a	LTP240	ltpFR	13	n/a	n/a	n/a	n/a	n/a	n/a	8	5	1	2	n/a	n/a	n/a	n/a	n/a
2692.23	n/a	PROB	1346115	n/a	LTP240	ltpFR	13	n/a	n/a	n/a	n/a	n/a	n/a	17	6	4	7	n/a	n/a	n/a	n/a	n/a
2694.16	n/a	PROB	1347080	n/a	LTP240	ltpFR	13	n/a	n/a	n/a	n/a	n/a	n/a	10	2	2	6	n/a	n/a	n/a	n/a	n/a
2696.39	n/a	PROB	1348195	n/a	LTP240	ltpFR	13	n/a	n/a	n/a	n/a	n/a	n/a	26	9	8	9	n/a	n/a	n/a	n/a	n/a
2699.102	n/a	PROB	1349551	n/a	LTP240	ltpFR	13	n/a	n/a	n/a	n/a	n/a	n/a	11	6	4	1	n/a	n/a	n/a	n/a	n/a
2700.384	n/a	PROB	1350192	n/a	LTP240	ltpFR	13	n/a	n/a	n/a	n/a	n/a	n/a	16	4	3	9	n/a	n/a	n/a	n/a	n/a
2702.814	n/a	PROB	1351407	n/a	LTP240	ltpFR	13	n/a	n/a	n/a	n/a	n/a	n/a	16	2	7	7	n/a	n/a	n/a	n/a	n/a
2704.112	n/a	STOP	1352056	n/a	LTP240	ltpFR	13	n/a	n/a	n/a	n/a	n/a	n/a	n/a	n/a	n/a	n/a	n/a	n/a	n/a	n/a	n/a
2706.308	n/a	WORD	1353154	wordpools/wasnorm_wordpool_less_exclusions.txt	LTP240	ltpFR	13	9	0	CORN	381	n/a	1	n/a	0	0	0	1	0.412841796875	0.57763671875	upper	../fonts/amplitud.ttf
2709.32	n/a	START	1354660	n/a	LTP240	ltpFR	13	n/a	n/a	n/a	n/a	n/a	n/a	n/a	n/a	n/a	n/a	n/a	n/a	n/a	n/a	n/a
2710.202	n/a	PROB	1355101	n/a	LTP240	ltpFR	13	n/a	n/a	n/a	n/a	n/a	n/a	11	2	8	1	n/a	n/a	n/a	n/a	n/a
2711.766	n/a	PROB	1355883	n/a	LTP240	ltpFR	13	n/a	n/a	n/a	n/a	n/a	n/a	16	9	4	3	n/a	n/a	n/a	n/a	n/a
2715.062	n/a	PROB	1357531	n/a	LTP240	ltpFR	13	n/a	n/a	n/a	n/a	n/a	n/a	17	8	1	8	n/a	n/a	n/a	n/a	n/a
2717.158	n/a	PROB	1358579	n/a	LTP240	ltpFR	13	n/a	n/a	n/a	n/a	n/a	n/a	15	9	2	4	n/a	n/a	n/a	n/a	n/a
2718.94	n/a	PROB	1359470	n/a	LTP240	ltpFR	13	n/a	n/a	n/a	n/a	n/a	n/a	17	7	6	4	n/a	n/a	n/a	n/a	n/a
2720.654	n/a	PROB	1360327	n/a	LTP240	ltpFR	13	n/a	n/a	n/a	n/a	n/a	n/a	21	6	9	6	n/a	n/a	n/a	n/a	n/a
2722.866	n/a	PROB	1361433	n/a	LTP240	ltpFR	13	n/a	n/a	n/a	n/a	n/a	n/a	15	6	8	1	n/a	n/a	n/a	n/a	n/a
2725.154	n/a	STOP	1362577	n/a	LTP240	ltpFR	13	n/a	n/a	n/a	n/a	n/a	n/a	n/a	n/a	n/a	n/a	n/a	n/a	n/a	n/a	n/a
2726.246	n/a	WORD	1363123	wordpools/wasnorm_wordpool_less_exclusions.txt	LTP240	ltpFR	13	9	1	RAFT	1159	n/a	0	n/a	0	0	0	0	0.5869140625	0.422607421875	lower	../fonts/zerothre.ttf
2729.258	n/a	START	1364629	n/a	LTP240	ltpFR	13	n/a	n/a	n/a	n/a	n/a	n/a	n/a	n/a	n/a	n/a	n/a	n/a	n/a	n/a	n/a
2730.322	n/a	PROB	1365161	n/a	LTP240	ltpFR	13	n/a	n/a	n/a	n/a	n/a	n/a	19	4	7	8	n/a	n/a	n/a	n/a	n/a
2733.234	n/a	PROB	1366617	n/a	LTP240	ltpFR	13	n/a	n/a	n/a	n/a	n/a	n/a	12	2	9	1	n/a	n/a	n/a	n/a	n/a
2735.132	n/a	PROB	1367566	n/a	LTP240	ltpFR	13	n/a	n/a	n/a	n/a	n/a	n/a	18	9	8	1	n/a	n/a	n/a	n/a	n/a
2737.096	n/a	PROB	1368548	n/a	LTP240	ltpFR	13	n/a	n/a	n/a	n/a	n/a	n/a	18	3	8	7	n/a	n/a	n/a	n/a	n/a
2738.694	n/a	PROB	1369347	n/a	LTP240	ltpFR	13	n/a	n/a	n/a	n/a	n/a	n/a	26	9	8	9	n/a	n/a	n/a	n/a	n/a
2740.956	n/a	PROB	1370478	n/a	LTP240	ltpFR	13	n/a	n/a	n/a	n/a	n/a	n/a	13	2	9	2	n/a	n/a	n/a	n/a	n/a
2745.258	n/a	STOP	1372629	n/a	LTP240	ltpFR	13	n/a	n/a	n/a	n/a	n/a	n/a	n/a	n/a	n/a	n/a	n/a	n/a	n/a	n/a	n/a
2746.132	n/a	WORD	1373066	wordpools/wasnorm_wordpool_less_exclusions.txt	LTP240	ltpFR	13	9	1	INTESTINE	742	n/a	0	n/a	0	0	0	0	0.5869140625	0.422607421875	lower	../fonts/zerothre.ttf
2749.144	n/a	START	1374572	n/a	LTP240	ltpFR	13	n/a	n/a	n/a	n/a	n/a	n/a	n/a	n/a	n/a	n/a	n/a	n/a	n/a	n/a	n/a
2750.21	n/a	PROB	1375105	n/a	LTP240	ltpFR	13	n/a	n/a	n/a	n/a	n/a	n/a	12	1	5	6	n/a	n/a	n/a	n/a	n/a
2751.576	n/a	PROB	1375788	n/a	LTP240	ltpFR	13	n/a	n/a	n/a	n/a	n/a	n/a	13	1	5	7	n/a	n/a	n/a	n/a	n/a
2754.238	n/a	PROB	1377119	n/a	LTP240	ltpFR	13	n/a	n/a	n/a	n/a	n/a	n/a	21	6	8	7	n/a	n/a	n/a	n/a	n/a
2757.4	n/a	PROB	1378700	n/a	LTP240	ltpFR	13	n/a	n/a	n/a	n/a	n/a	n/a	10	8	1	1	n/a	n/a	n/a	n/a	n/a
2758.748	n/a	PROB	1379374	n/a	LTP240	ltpFR	13	n/a	n/a	n/a	n/a	n/a	n/a	223	9	6	8	n/a	n/a	n/a	n/a	n/a
2765.144	n/a	STOP	1382572	n/a	LTP240	ltpFR	13	n/a	n/a	n/a	n/a	n/a	n/a	n/a	n/a	n/a	n/a	n/a	n/a	n/a	n/a	n/a
2766.186	n/a	WORD	1383093	wordpools/wasnorm_wordpool_less_exclusions.txt	LTP240	ltpFR	13	9	1	STEP	1377	n/a	0	n/a	0	0	0	0	0.5869140625	0.422607421875	lower	../fonts/zerothre.ttf
2769.2	n/a	START	1384600	n/a	LTP240	ltpFR	13	n/a	n/a	n/a	n/a	n/a	n/a	n/a	n/a	n/a	n/a	n/a	n/a	n/a	n/a	n/a
2770.048	n/a	PROB	1385024	n/a	LTP240	ltpFR	13	n/a	n/a	n/a	n/a	n/a	n/a	19	8	6	5	n/a	n/a	n/a	n/a	n/a
2772.442	n/a	PROB	1386221	n/a	LTP240	ltpFR	13	n/a	n/a	n/a	n/a	n/a	n/a	21	5	9	7	n/a	n/a	n/a	n/a	n/a
2777.12	n/a	PROB	1388560	n/a	LTP240	ltpFR	13	n/a	n/a	n/a	n/a	n/a	n/a	13	4	7	2	n/a	n/a	n/a	n/a	n/a
2779.866	n/a	PROB	1389933	n/a	LTP240	ltpFR	13	n/a	n/a	n/a	n/a	n/a	n/a	19	7	5	7	n/a	n/a	n/a	n/a	n/a
2781.914	n/a	PROB	1390957	n/a	LTP240	ltpFR	13	n/a	n/a	n/a	n/a	n/a	n/a	13	3	5	5	n/a	n/a	n/a	n/a	n/a
2783.244	n/a	PROB	1391622	n/a	LTP240	ltpFR	13	n/a	n/a	n/a	n/a	n/a	n/a	16	6	1	9	n/a	n/a	n/a	n/a	n/a
2784.45	n/a	STOP	1392225	n/a	LTP240	ltpFR	13	n/a	n/a	n/a	n/a	n/a	n/a	n/a	n/a	n/a	n/a	n/a	n/a	n/a	n/a	n/a
2786.04	n/a	WORD	1393020	wordpools/wasnorm_wordpool_less_exclusions.txt	LTP240	ltpFR	13	9	1	ESCALATOR	539	n/a	0	n/a	0	0	0	0	0.5869140625	0.422607421875	lower	../fonts/zerothre.ttf
2789.052	n/a	START	1394526	n/a	LTP240	ltpFR	13	n/a	n/a	n/a	n/a	n/a	n/a	n/a	n/a	n/a	n/a	n/a	n/a	n/a	n/a	n/a
2790.134	n/a	PROB	1395067	n/a	LTP240	ltpFR	13	n/a	n/a	n/a	n/a	n/a	n/a	20	7	7	6	n/a	n/a	n/a	n/a	n/a
2793.994	n/a	PROB	1396997	n/a	LTP240	ltpFR	13	n/a	n/a	n/a	n/a	n/a	n/a	20	7	8	5	n/a	n/a	n/a	n/a	n/a
2796.192	n/a	PROB	1398096	n/a	LTP240	ltpFR	13	n/a	n/a	n/a	n/a	n/a	n/a	16	1	8	7	n/a	n/a	n/a	n/a	n/a
2797.922	n/a	PROB	1398961	n/a	LTP240	ltpFR	13	n/a	n/a	n/a	n/a	n/a	n/a	19	8	9	2	n/a	n/a	n/a	n/a	n/a
2799.636	n/a	PROB	1399818	n/a	LTP240	ltpFR	13	n/a	n/a	n/a	n/a	n/a	n/a	17	1	8	8	n/a	n/a	n/a	n/a	n/a
2801.584	n/a	PROB	1400792	n/a	LTP240	ltpFR	13	n/a	n/a	n/a	n/a	n/a	n/a	15	5	3	7	n/a	n/a	n/a	n/a	n/a
2803.164	n/a	PROB	1401582	n/a	LTP240	ltpFR	13	n/a	n/a	n/a	n/a	n/a	n/a	15	6	3	3	n/a	n/a	n/a	n/a	n/a
2804.93	n/a	STOP	1402465	n/a	LTP240	ltpFR	13	n/a	n/a	n/a	n/a	n/a	n/a	n/a	n/a	n/a	n/a	n/a	n/a	n/a	n/a	n/a
2806.81	n/a	REC_START	1403405	n/a	LTP240	ltpFR	13	9	n/a	n/a	n/a	n/a	n/a	n/a	0	0	0	n/a	n/a	n/a	n/a	n/a
2807.672	n/a	REC_WORD	1403836	wordpools/wasnorm_wordpool_less_exclusions.txt	LTP240	ltpFR	13	9	1	INTESTINE	742	n/a	0	n/a	0	0	0	n/a	n/a	n/a	n/a	n/a
2809.848	n/a	REC_WORD	1404924	wordpools/wasnorm_wordpool_less_exclusions.txt	LTP240	ltpFR	13	9	1	OWL	992	n/a	1	n/a	0	0	0	n/a	n/a	n/a	n/a	n/a
2811.054	n/a	REC_WORD	1405527	wordpools/wasnorm_wordpool_less_exclusions.txt	LTP240	ltpFR	13	9	1	COB	334	n/a	0	n/a	0	0	0	n/a	n/a	n/a	n/a	n/a
2814.148	n/a	REC_WORD	1407074	wordpools/wasnorm_wordpool_less_exclusions.txt	LTP240	ltpFR	13	9	0	CORN	381	n/a	1	n/a	0	0	0	n/a	n/a	n/a	n/a	n/a
2920.458	n/a	WORD	1460229	wordpools/wasnorm_wordpool_less_exclusions.txt	LTP240	ltpFR	13	10	0	HORSE	719	n/a	1	n/a	0	0	0	1	0.412841796875	0.57763671875	upper	../fonts/amplitud.ttf
2924.534	n/a	WORD	1462267	wordpools/wasnorm_wordpool_less_exclusions.txt	LTP240	ltpFR	13	10	0	CROWN	415	n/a	1	n/a	0	0	0	1	0.412841796875	0.57763671875	upper	../fonts/amplitud.ttf
2928.478	n/a	WORD	1464239	wordpools/wasnorm_wordpool_less_exclusions.txt	LTP240	ltpFR	13	10	0	CHART	282	n/a	1	n/a	0	0	0	1	0.412841796875	0.57763671875	upper	../fonts/amplitud.ttf
2932.574	n/a	WORD	1466287	wordpools/wasnorm_wordpool_less_exclusions.txt	LTP240	ltpFR	13	10	0	LAMB	797	n/a	1	n/a	0	0	0	1	0.412841796875	0.57763671875	upper	../fonts/amplitud.ttf
2936.6	n/a	WORD	1468300	wordpools/wasnorm_wordpool_less_exclusions.txt	LTP240	ltpFR	13	10	0	SLEEVE	1324	n/a	0	n/a	0	0	0	1	0.412841796875	0.57763671875	upper	../fonts/amplitud.ttf
2940.694	n/a	WORD	1470347	wordpools/wasnorm_wordpool_less_exclusions.txt	LTP240	ltpFR	13	10	0	PLAID	1080	n/a	1	n/a	0	0	0	1	0.412841796875	0.57763671875	upper	../fonts/amplitud.ttf
2944.788	n/a	WORD	1472394	wordpools/wasnorm_wordpool_less_exclusions.txt	LTP240	ltpFR	13	10	0	STREAM	1392	n/a	1	n/a	0	0	0	1	0.412841796875	0.57763671875	upper	../fonts/amplitud.ttf
2948.85	n/a	WORD	1474425	wordpools/wasnorm_wordpool_less_exclusions.txt	LTP240	ltpFR	13	10	0	WAVE	1596	n/a	1	n/a	0	0	0	1	0.412841796875	0.57763671875	upper	../fonts/amplitud.ttf
2952.76	n/a	WORD	1476380	wordpools/wasnorm_wordpool_less_exclusions.txt	LTP240	ltpFR	13	10	0	FLESH	579	n/a	1	n/a	0	0	0	1	0.412841796875	0.57763671875	upper	../fonts/amplitud.ttf
2956.704	n/a	WORD	1478352	wordpools/wasnorm_wordpool_less_exclusions.txt	LTP240	ltpFR	13	10	0	ORANGE	980	n/a	0	n/a	0	0	0	1	0.412841796875	0.57763671875	upper	../fonts/amplitud.ttf
2960.582	n/a	WORD	1480291	wordpools/wasnorm_wordpool_less_exclusions.txt	LTP240	ltpFR	13	10	0	DONKEY	484	n/a	1	n/a	0	0	0	1	0.412841796875	0.57763671875	upper	../fonts/amplitud.ttf
2964.594	n/a	WORD	1482297	wordpools/wasnorm_wordpool_less_exclusions.txt	LTP240	ltpFR	13	10	0	KING	777	n/a	1	n/a	0	0	0	1	0.412841796875	0.57763671875	upper	../fonts/amplitud.ttf
2968.588	n/a	WORD	1484294	wordpools/wasnorm_wordpool_less_exclusions.txt	LTP240	ltpFR	13	10	0	BUTTER	205	n/a	0	n/a	0	0	0	1	0.412841796875	0.57763671875	upper	../fonts/amplitud.ttf
2972.43	n/a	WORD	1486215	wordpools/wasnorm_wordpool_less_exclusions.txt	LTP240	ltpFR	13	10	0	KLEENEX	782	n/a	0	n/a	0	0	0	1	0.412841796875	0.57763671875	upper	../fonts/amplitud.ttf
2976.592	n/a	WORD	1488296	wordpools/wasnorm_wordpool_less_exclusions.txt	LTP240	ltpFR	13	10	0	COUSIN	392	n/a	1	n/a	0	0	0	1	0.412841796875	0.57763671875	upper	../fonts/amplitud.ttf
2980.686	n/a	WORD	1490343	wordpools/wasnorm_wordpool_less_exclusions.txt	LTP240	ltpFR	13	10	0	SIBLING	1301	n/a	1	n/a	0	0	0	1	0.412841796875	0.57763671875	upper	../fonts/amplitud.ttf
2983.698	n/a	START	1491849	n/a	LTP240	ltpFR	13	n/a	n/a	n/a	n/a	n/a	n/a	n/a	n/a	n/a	n/a	n/a	n/a	n/a	n/a	n/a
2984.546	n/a	PROB	1492273	n/a	LTP240	ltpFR	13	n/a	n/a	n/a	n/a	n/a	n/a	23	6	8	9	n/a	n/a	n/a	n/a	n/a
2987.924	n/a	PROB	1493962	n/a	LTP240	ltpFR	13	n/a	n/a	n/a	n/a	n/a	n/a	15	8	1	6	n/a	n/a	n/a	n/a	n/a
2990.97	n/a	PROB	1495485	n/a	LTP240	ltpFR	13	n/a	n/a	n/a	n/a	n/a	n/a	2	9	4	9	n/a	n/a	n/a	n/a	n/a
2992.718	n/a	PROB	1496359	n/a	LTP240	ltpFR	13	n/a	n/a	n/a	n/a	n/a	n/a	19	3	9	7	n/a	n/a	n/a	n/a	n/a
2994.464	n/a	PROB	1497232	n/a	LTP240	ltpFR	13	n/a	n/a	n/a	n/a	n/a	n/a	18	4	9	5	n/a	n/a	n/a	n/a	n/a
2996.912	n/a	PROB	1498456	n/a	LTP240	ltpFR	13	n/a	n/a	n/a	n/a	n/a	n/a	18	2	8	8	n/a	n/a	n/a	n/a	n/a
2998.27	n/a	STOP	1499135	n/a	LTP240	ltpFR	13	n/a	n/a	n/a	n/a	n/a	n/a	n/a	n/a	n/a	n/a	n/a	n/a	n/a	n/a	n/a
3001.572	n/a	REC_START	1500786	n/a	LTP240	ltpFR	13	10	n/a	n/a	n/a	n/a	n/a	n/a	0	0	0	n/a	n/a	n/a	n/a	n/a
3002.42	n/a	REC_WORD	1501210	wordpools/wasnorm_wordpool_less_exclusions.txt	LTP240	ltpFR	13	10	0	KLEENEX	782	n/a	0	n/a	0	0	0	n/a	n/a	n/a	n/a	n/a
3003.044	n/a	REC_WORD	1501522	wordpools/wasnorm_wordpool_less_exclusions.txt	LTP240	ltpFR	13	10	0	SIBLING	1301	n/a	1	n/a	0	0	0	n/a	n/a	n/a	n/a	n/a
3003.732	n/a	REC_WORD	1501866	wordpools/wasnorm_wordpool_less_exclusions.txt	LTP240	ltpFR	13	10	0	COUSIN	392	n/a	1	n/a	0	0	0	n/a	n/a	n/a	n/a	n/a
3005.398	n/a	REC_WORD	1502699	wordpools/wasnorm_wordpool_less_exclusions.txt	LTP240	ltpFR	13	10	0	FLESH	579	n/a	1	n/a	0	0	0	n/a	n/a	n/a	n/a	n/a
3007.658	n/a	REC_WORD	1503829	wordpools/wasnorm_wordpool_less_exclusions.txt	LTP240	ltpFR	13	10	0	KING	777	n/a	1	n/a	0	0	0	n/a	n/a	n/a	n/a	n/a
3008.336	n/a	REC_WORD	1504168	wordpools/wasnorm_wordpool_less_exclusions.txt	LTP240	ltpFR	13	10	0	CROWN	415	n/a	1	n/a	0	0	0	n/a	n/a	n/a	n/a	n/a
3011.334	n/a	REC_WORD	1505667	wordpools/wasnorm_wordpool_less_exclusions.txt	LTP240	ltpFR	13	10	0	HORSE	719	n/a	1	n/a	0	0	0	n/a	n/a	n/a	n/a	n/a
3012.326	n/a	REC_WORD	1506163	wordpools/wasnorm_wordpool_less_exclusions.txt	LTP240	ltpFR	13	10	0	SLEEVE	1324	n/a	0	n/a	0	0	0	n/a	n/a	n/a	n/a	n/a
3020.802	n/a	REC_WORD	1510401	wordpools/wasnorm_wordpool_less_exclusions.txt	LTP240	ltpFR	13	10	0	ORANGE	980	n/a	0	n/a	0	0	0	n/a	n/a	n/a	n/a	n/a
3077.192	n/a	REST_REWET	1538596	n/a	LTP240	ltpFR	13	10	n/a	n/a	n/a	n/a	n/a	n/a	0	0	0	n/a	n/a	n/a	n/a	n/a
3463.938	n/a	WORD	1731969	wordpools/wasnorm_wordpool_less_exclusions.txt	LTP240	ltpFR	13	11	1	COCKTAIL	338	n/a	0	n/a	0	0	0	0	0.5869140625	0.422607421875	lower	../fonts/zerothre.ttf
3467.766	n/a	WORD	1733883	wordpools/wasnorm_wordpool_less_exclusions.txt	LTP240	ltpFR	13	11	1	RIB	1188	n/a	0	n/a	0	0	0	0	0.5869140625	0.422607421875	lower	../fonts/zerothre.ttf
3471.76	n/a	WORD	1735880	wordpools/wasnorm_wordpool_less_exclusions.txt	LTP240	ltpFR	13	11	1	DISH	474	n/a	0	n/a	0	0	0	0	0.5869140625	0.422607421875	lower	../fonts/zerothre.ttf
3475.636	n/a	WORD	1737818	wordpools/wasnorm_wordpool_less_exclusions.txt	LTP240	ltpFR	13	11	0	TAVERN	1437	n/a	1	n/a	0	0	0	1	0.412841796875	0.57763671875	upper	../fonts/amplitud.ttf
3479.63	n/a	WORD	1739815	wordpools/wasnorm_wordpool_less_exclusions.txt	LTP240	ltpFR	13	11	0	WASHCLOTH	1591	n/a	0	n/a	0	0	0	1	0.412841796875	0.57763671875	upper	../fonts/amplitud.ttf
3483.724	n/a	WORD	1741862	wordpools/wasnorm_wordpool_less_exclusions.txt	LTP240	ltpFR	13	11	0	COYOTE	396	n/a	1	n/a	0	0	0	1	0.412841796875	0.57763671875	upper	../fonts/amplitud.ttf
3487.586	n/a	WORD	1743793	wordpools/wasnorm_wordpool_less_exclusions.txt	LTP240	ltpFR	13	11	0	CHECKERS	285	n/a	0	n/a	0	0	0	1	0.412841796875	0.57763671875	upper	../fonts/amplitud.ttf
3491.63	n/a	WORD	1745815	wordpools/wasnorm_wordpool_less_exclusions.txt	LTP240	ltpFR	13	11	0	STEM	1376	n/a	0	n/a	0	0	0	1	0.412841796875	0.57763671875	upper	../fonts/amplitud.ttf
3495.806	n/a	WORD	1747903	wordpools/wasnorm_wordpool_less_exclusions.txt	LTP240	ltpFR	13	11	1	DORM	488	n/a	0	n/a	0	0	0	0	0.5869140625	0.422607421875	lower	../fonts/zerothre.ttf
3499.868	n/a	WORD	1749934	wordpools/wasnorm_wordpool_less_exclusions.txt	LTP240	ltpFR	13	11	1	DICTATOR	462	n/a	1	n/a	0	0	0	0	0.5869140625	0.422607421875	lower	../fonts/zerothre.ttf
3503.744	n/a	WORD	1751872	wordpools/wasnorm_wordpool_less_exclusions.txt	LTP240	ltpFR	13	11	1	FOLLOWER	589	n/a	0	n/a	0	0	0	0	0.5869140625	0.422607421875	lower	../fonts/zerothre.ttf
3507.822	n/a	WORD	1753911	wordpools/wasnorm_wordpool_less_exclusions.txt	LTP240	ltpFR	13	11	0	KIDNEY	776	n/a	0	n/a	0	0	0	1	0.412841796875	0.57763671875	upper	../fonts/amplitud.ttf
3511.832	n/a	WORD	1755916	wordpools/wasnorm_wordpool_less_exclusions.txt	LTP240	ltpFR	13	11	0	DICE	461	n/a	0	n/a	0	0	0	1	0.412841796875	0.57763671875	upper	../fonts/amplitud.ttf
