onset	duration	trial_type	sample	stim_file	subject	experiment	session	trial	item_name	item_num	list	answer	test_x	test_y	test_z
214.442	n/a	SESS_START	107221	n/a	LTP317	ltpFR2	7	n/a	n/a	n/a	n/a	n/a	0	0	0
226.672	n/a	START	113336	n/a	LTP317	ltpFR2	7	n/a	n/a	n/a	-1	n/a	n/a	n/a	n/a
226.688	n/a	PROB	113344	n/a	LTP317	ltpFR2	7	n/a	n/a	n/a	-1	7	5	1	1
228.222	n/a	PROB	114111	n/a	LTP317	ltpFR2	7	n/a	n/a	n/a	-1	18	3	7	8
229.538	n/a	PROB	114769	n/a	LTP317	ltpFR2	7	n/a	n/a	n/a	-1	20	4	8	8
231.074	n/a	PROB	115537	n/a	LTP317	ltpFR2	7	n/a	n/a	n/a	-1	6	3	1	2
232.24	n/a	PROB	116120	n/a	LTP317	ltpFR2	7	n/a	n/a	n/a	-1	16	9	6	1
233.392	n/a	PROB	116696	n/a	LTP317	ltpFR2	7	n/a	n/a	n/a	-1	16	1	9	6
234.976	n/a	PROB	117488	n/a	LTP317	ltpFR2	7	n/a	n/a	n/a	-1	16	3	8	5
236.178	n/a	PROB	118089	n/a	LTP317	ltpFR2	7	n/a	n/a	n/a	-1	2	3	9	8
238.624	n/a	STOP	119312	n/a	LTP317	ltpFR2	7	n/a	n/a	n/a	-1	n/a	n/a	n/a	n/a
268.406	n/a	DISTRACTOR	134203	n/a	LTP317	ltpFR2	7	1	n/a	n/a	n/a	n/a	0	0	0
268.406	n/a	START	134203	n/a	LTP317	ltpFR2	7	n/a	n/a	n/a	1	n/a	n/a	n/a	n/a
268.422	n/a	PROB	134211	n/a	LTP317	ltpFR2	7	n/a	n/a	n/a	1	10	6	1	3
269.954	n/a	PROB	134977	n/a	LTP317	ltpFR2	7	n/a	n/a	n/a	1	6	3	1	2
270.99	n/a	PROB	135495	n/a	LTP317	ltpFR2	7	n/a	n/a	n/a	1	17	9	7	1
273.074	n/a	PROB	136537	n/a	LTP317	ltpFR2	7	n/a	n/a	n/a	1	14	5	4	5
274.528	n/a	PROB	137264	n/a	LTP317	ltpFR2	7	n/a	n/a	n/a	1	18	7	7	4
275.71	n/a	PROB	137855	n/a	LTP317	ltpFR2	7	n/a	n/a	n/a	1	21	9	4	8
277.762	n/a	PROB	138881	n/a	LTP317	ltpFR2	7	n/a	n/a	n/a	1	10	5	3	2
279.314	n/a	PROB	139657	n/a	LTP317	ltpFR2	7	n/a	n/a	n/a	1	11	3	6	2
281.666	n/a	PROB	140833	n/a	LTP317	ltpFR2	7	n/a	n/a	n/a	1	20	6	6	8
282.948	n/a	PROB	141474	n/a	LTP317	ltpFR2	7	n/a	n/a	n/a	1	24	8	9	7
285.336	n/a	PROB	142668	n/a	LTP317	ltpFR2	7	n/a	n/a	n/a	1	9	4	2	3
286.968	n/a	PROB	143484	n/a	LTP317	ltpFR2	7	n/a	n/a	n/a	1	15	7	7	1
288.154	n/a	PROB	144077	n/a	LTP317	ltpFR2	7	n/a	n/a	n/a	1	8	1	1	6
289.504	n/a	PROB	144752	n/a	LTP317	ltpFR2	7	n/a	n/a	n/a	1	12	4	2	6
292.404	n/a	STOP	146202	n/a	LTP317	ltpFR2	7	n/a	n/a	n/a	1	n/a	n/a	n/a	n/a
293.542	n/a	WORD	146771	wordpools/wasnorm_wordpool_576.txt	LTP317	ltpFR2	7	1	BISON	131	n/a	n/a	0	0	0
296.278	n/a	WORD	148139	wordpools/wasnorm_wordpool_576.txt	LTP317	ltpFR2	7	1	SHORTCAKE	1292	n/a	n/a	0	0	0
298.83	n/a	WORD	149415	wordpools/wasnorm_wordpool_576.txt	LTP317	ltpFR2	7	1	SCARECROW	1245	n/a	n/a	0	0	0
301.43	n/a	WORD	150715	wordpools/wasnorm_wordpool_576.txt	LTP317	ltpFR2	7	1	BARLEY	88	n/a	n/a	0	0	0
304.1	n/a	WORD	152050	wordpools/wasnorm_wordpool_576.txt	LTP317	ltpFR2	7	1	CONTRACT	368	n/a	n/a	0	0	0
306.768	n/a	WORD	153384	wordpools/wasnorm_wordpool_576.txt	LTP317	ltpFR2	7	1	TILE	1468	n/a	n/a	0	0	0
309.338	n/a	WORD	154669	wordpools/wasnorm_wordpool_576.txt	LTP317	ltpFR2	7	1	RUG	1215	n/a	n/a	0	0	0
312.106	n/a	WORD	156053	wordpools/wasnorm_wordpool_576.txt	LTP317	ltpFR2	7	1	PECAN	1036	n/a	n/a	0	0	0
314.69	n/a	WORD	157345	wordpools/wasnorm_wordpool_576.txt	LTP317	ltpFR2	7	1	MESSAGE	888	n/a	n/a	0	0	0
317.228	n/a	WORD	158614	wordpools/wasnorm_wordpool_576.txt	LTP317	ltpFR2	7	1	JELLO	754	n/a	n/a	0	0	0
319.916	n/a	WORD	159958	wordpools/wasnorm_wordpool_576.txt	LTP317	ltpFR2	7	1	PASTRY	1022	n/a	n/a	0	0	0
322.632	n/a	WORD	161316	wordpools/wasnorm_wordpool_576.txt	LTP317	ltpFR2	7	1	SEAL	1262	n/a	n/a	0	0	0
325.068	n/a	WORD	162534	wordpools/wasnorm_wordpool_576.txt	LTP317	ltpFR2	7	1	DRUG	501	n/a	n/a	0	0	0
327.868	n/a	WORD	163934	wordpools/wasnorm_wordpool_576.txt	LTP317	ltpFR2	7	1	BUNNY	198	n/a	n/a	0	0	0
330.392	n/a	WORD	165196	wordpools/wasnorm_wordpool_576.txt	LTP317	ltpFR2	7	1	MILK	895	n/a	n/a	0	0	0
332.872	n/a	WORD	166436	wordpools/wasnorm_wordpool_576.txt	LTP317	ltpFR2	7	1	DUST	508	n/a	n/a	0	0	0
335.442	n/a	WORD	167721	wordpools/wasnorm_wordpool_576.txt	LTP317	ltpFR2	7	1	XEROX	1628	n/a	n/a	0	0	0
338.198	n/a	WORD	169099	wordpools/wasnorm_wordpool_576.txt	LTP317	ltpFR2	7	1	FRAGRANCE	599	n/a	n/a	0	0	0
340.968	n/a	WORD	170484	wordpools/wasnorm_wordpool_576.txt	LTP317	ltpFR2	7	1	RABBIT	1152	n/a	n/a	0	0	0
343.598	n/a	WORD	171799	wordpools/wasnorm_wordpool_576.txt	LTP317	ltpFR2	7	1	GANGSTER	620	n/a	n/a	0	0	0
346.132	n/a	WORD	173066	wordpools/wasnorm_wordpool_576.txt	LTP317	ltpFR2	7	1	BROTHER	179	n/a	n/a	0	0	0
348.586	n/a	WORD	174293	wordpools/wasnorm_wordpool_576.txt	LTP317	ltpFR2	7	1	DAUGHTER	442	n/a	n/a	0	0	0
351.204	n/a	WORD	175602	wordpools/wasnorm_wordpool_576.txt	LTP317	ltpFR2	7	1	TUNNEL	1519	n/a	n/a	0	0	0
353.972	n/a	WORD	176986	wordpools/wasnorm_wordpool_576.txt	LTP317	ltpFR2	7	1	RIFLE	1192	n/a	n/a	0	0	0
355.58	n/a	START	177790	n/a	LTP317	ltpFR2	7	n/a	n/a	n/a	2	n/a	n/a	n/a	n/a
356.514	n/a	DISTRACTOR	178257	n/a	LTP317	ltpFR2	7	1	n/a	n/a	n/a	n/a	0	0	0
356.524	n/a	PROB	178262	n/a	LTP317	ltpFR2	7	n/a	n/a	n/a	2	4	1	1	2
358.158	n/a	PROB	179079	n/a	LTP317	ltpFR2	7	n/a	n/a	n/a	2	14	8	2	4
359.46	n/a	PROB	179730	n/a	LTP317	ltpFR2	7	n/a	n/a	n/a	2	15	8	1	7
360.892	n/a	PROB	180446	n/a	LTP317	ltpFR2	7	n/a	n/a	n/a	2	7	1	2	4
362.796	n/a	PROB	181398	n/a	LTP317	ltpFR2	7	n/a	n/a	n/a	2	7	2	1	4
365.98	n/a	PROB	182990	n/a	LTP317	ltpFR2	7	n/a	n/a	n/a	2	16	6	9	1
368.032	n/a	PROB	184016	n/a	LTP317	ltpFR2	7	n/a	n/a	n/a	2	22	7	7	8
369.634	n/a	PROB	184817	n/a	LTP317	ltpFR2	7	n/a	n/a	n/a	2	20	6	5	9
371.352	n/a	PROB	185676	n/a	LTP317	ltpFR2	7	n/a	n/a	n/a	2	16	6	2	8
373.07	n/a	PROB	186535	n/a	LTP317	ltpFR2	7	n/a	n/a	n/a	2	16	3	9	4
374.338	n/a	PROB	187169	n/a	LTP317	ltpFR2	7	n/a	n/a	n/a	2	20	6	7	7
375.788	n/a	PROB	187894	n/a	LTP317	ltpFR2	7	n/a	n/a	n/a	2	12	7	4	1
377.54	n/a	PROB	188770	n/a	LTP317	ltpFR2	7	n/a	n/a	n/a	2	14	1	7	6
378.93	n/a	STOP	189465	n/a	LTP317	ltpFR2	7	n/a	n/a	n/a	2	n/a	n/a	n/a	n/a
381.328	n/a	REC_START	190664	n/a	LTP317	ltpFR2	7	1	n/a	n/a	n/a	n/a	0	0	0
383.0	n/a	REC_WORD	191500	wordpools/wasnorm_wordpool_576.txt	LTP317	ltpFR2	7	1	SEAL	1262	n/a	n/a	0	0	0
383.814	n/a	REC_WORD	191907	wordpools/wasnorm_wordpool_576.txt	LTP317	ltpFR2	7	1	BUNNY	198	n/a	n/a	0	0	0
384.414	n/a	REC_WORD	192207	wordpools/wasnorm_wordpool_576.txt	LTP317	ltpFR2	7	1	DRUG	501	n/a	n/a	0	0	0
385.04	n/a	REC_WORD	192520	wordpools/wasnorm_wordpool_576.txt	LTP317	ltpFR2	7	1	TILE	1468	n/a	n/a	0	0	0
385.618	n/a	REC_WORD	192809	wordpools/wasnorm_wordpool_576.txt	LTP317	ltpFR2	7	1	SHORTCAKE	1292	n/a	n/a	0	0	0
386.772	n/a	REC_WORD	193386	wordpools/wasnorm_wordpool_576.txt	LTP317	ltpFR2	7	1	BISON	131	n/a	n/a	0	0	0
391.032	n/a	REC_WORD	195516	wordpools/wasnorm_wordpool_576.txt	LTP317	ltpFR2	7	1	BROTHER	179	n/a	n/a	0	0	0
391.63	n/a	REC_WORD	195815	wordpools/wasnorm_wordpool_576.txt	LTP317	ltpFR2	7	1	DAUGHTER	442	n/a	n/a	0	0	0
471.798	n/a	WORD	235899	wordpools/wasnorm_wordpool_576.txt	LTP317	ltpFR2	7	2	TRENCH	1503	n/a	n/a	0	0	0
474.482	n/a	WORD	237241	wordpools/wasnorm_wordpool_576.txt	LTP317	ltpFR2	7	2	MARS	873	n/a	n/a	0	0	0
477.016	n/a	WORD	238508	wordpools/wasnorm_wordpool_576.txt	LTP317	ltpFR2	7	2	TURTLE	1522	n/a	n/a	0	0	0
479.602	n/a	WORD	239801	wordpools/wasnorm_wordpool_576.txt	LTP317	ltpFR2	7	2	SOFTBALL	1343	n/a	n/a	0	0	0
482.37	n/a	WORD	241185	wordpools/wasnorm_wordpool_576.txt	LTP317	ltpFR2	7	2	PRIMATE	1123	n/a	n/a	0	0	0
484.972	n/a	WORD	242486	wordpools/wasnorm_wordpool_576.txt	LTP317	ltpFR2	7	2	GAZELLE	628	n/a	n/a	0	0	0
487.71	n/a	WORD	243855	wordpools/wasnorm_wordpool_576.txt	LTP317	ltpFR2	7	2	MARKER	870	n/a	n/a	0	0	0
490.344	n/a	WORD	245172	wordpools/wasnorm_wordpool_576.txt	LTP317	ltpFR2	7	2	ANTLER	29	n/a	n/a	0	0	0
493.03	n/a	WORD	246515	wordpools/wasnorm_wordpool_576.txt	LTP317	ltpFR2	7	2	PLAZA	1088	n/a	n/a	0	0	0
495.698	n/a	WORD	247849	wordpools/wasnorm_wordpool_576.txt	LTP317	ltpFR2	7	2	COLONEL	348	n/a	n/a	0	0	0
498.168	n/a	WORD	249084	wordpools/wasnorm_wordpool_576.txt	LTP317	ltpFR2	7	2	DORM	488	n/a	n/a	0	0	0
500.77	n/a	WORD	250385	wordpools/wasnorm_wordpool_576.txt	LTP317	ltpFR2	7	2	COTTAGE	384	n/a	n/a	0	0	0
503.338	n/a	WORD	251669	wordpools/wasnorm_wordpool_576.txt	LTP317	ltpFR2	7	2	BLOUSE	139	n/a	n/a	0	0	0
506.026	n/a	WORD	253013	wordpools/wasnorm_wordpool_576.txt	LTP317	ltpFR2	7	2	RADISH	1158	n/a	n/a	0	0	0
508.542	n/a	WORD	254271	wordpools/wasnorm_wordpool_576.txt	LTP317	ltpFR2	7	2	LETTUCE	814	n/a	n/a	0	0	0
511.212	n/a	WORD	255606	wordpools/wasnorm_wordpool_576.txt	LTP317	ltpFR2	7	2	GIFT	635	n/a	n/a	0	0	0
513.93	n/a	WORD	256965	wordpools/wasnorm_wordpool_576.txt	LTP317	ltpFR2	7	2	PACKAGE	997	n/a	n/a	0	0	0
516.666	n/a	WORD	258333	wordpools/wasnorm_wordpool_576.txt	LTP317	ltpFR2	7	2	CREVICE	405	n/a	n/a	0	0	0
519.236	n/a	WORD	259618	wordpools/wasnorm_wordpool_576.txt	LTP317	ltpFR2	7	2	FLEET	578	n/a	n/a	0	0	0
522.018	n/a	WORD	261009	wordpools/wasnorm_wordpool_576.txt	LTP317	ltpFR2	7	2	BLACKBOARD	133	n/a	n/a	0	0	0
524.722	n/a	WORD	262361	wordpools/wasnorm_wordpool_576.txt	LTP317	ltpFR2	7	2	DRAWING	494	n/a	n/a	0	0	0
527.374	n/a	WORD	263687	wordpools/wasnorm_wordpool_576.txt	LTP317	ltpFR2	7	2	BINDER	127	n/a	n/a	0	0	0
529.926	n/a	WORD	264963	wordpools/wasnorm_wordpool_576.txt	LTP317	ltpFR2	7	2	RACKET	1155	n/a	n/a	0	0	0
532.562	n/a	WORD	266281	wordpools/wasnorm_wordpool_576.txt	LTP317	ltpFR2	7	2	SNAIL	1332	n/a	n/a	0	0	0
534.18	n/a	START	267090	n/a	LTP317	ltpFR2	7	n/a	n/a	n/a	3	n/a	n/a	n/a	n/a
535.176	n/a	DISTRACTOR	267588	n/a	LTP317	ltpFR2	7	2	n/a	n/a	n/a	n/a	0	0	0
535.18	n/a	PROB	267590	n/a	LTP317	ltpFR2	7	n/a	n/a	n/a	3	13	3	6	4
537.882	n/a	PROB	268941	n/a	LTP317	ltpFR2	7	n/a	n/a	n/a	3	19	3	8	8
539.566	n/a	PROB	269783	n/a	LTP317	ltpFR2	7	n/a	n/a	n/a	3	20	2	9	9
541.236	n/a	PROB	270618	n/a	LTP317	ltpFR2	7	n/a	n/a	n/a	3	10	3	4	3
542.754	n/a	PROB	271377	n/a	LTP317	ltpFR2	7	n/a	n/a	n/a	3	18	3	6	9
545.404	n/a	PROB	272702	n/a	LTP317	ltpFR2	7	n/a	n/a	n/a	3	16	5	6	5
546.806	n/a	PROB	273403	n/a	LTP317	ltpFR2	7	n/a	n/a	n/a	3	21	7	8	6
548.39	n/a	PROB	274195	n/a	LTP317	ltpFR2	7	n/a	n/a	n/a	3	13	2	2	9
549.81	n/a	PROB	274905	n/a	LTP317	ltpFR2	7	n/a	n/a	n/a	3	13	3	6	4
551.426	n/a	PROB	275713	n/a	LTP317	ltpFR2	7	n/a	n/a	n/a	3	10	6	3	1
552.878	n/a	PROB	276439	n/a	LTP317	ltpFR2	7	n/a	n/a	n/a	3	12	1	4	7
554.344	n/a	PROB	277172	n/a	LTP317	ltpFR2	7	n/a	n/a	n/a	3	12	4	2	6
555.746	n/a	PROB	277873	n/a	LTP317	ltpFR2	7	n/a	n/a	n/a	3	14	9	4	1
557.462	n/a	STOP	278731	n/a	LTP317	ltpFR2	7	n/a	n/a	n/a	3	n/a	n/a	n/a	n/a
559.984	n/a	REC_START	279992	n/a	LTP317	ltpFR2	7	2	n/a	n/a	n/a	n/a	0	0	0
561.912	n/a	REC_WORD	280956	wordpools/wasnorm_wordpool_576.txt	LTP317	ltpFR2	7	2	MARS	873	n/a	n/a	0	0	0
562.854	n/a	REC_WORD	281427	wordpools/wasnorm_wordpool_576.txt	LTP317	ltpFR2	7	2	TRENCH	1503	n/a	n/a	0	0	0
563.938	n/a	REC_WORD	281969	wordpools/wasnorm_wordpool_576.txt	LTP317	ltpFR2	7	2	CREVICE	405	n/a	n/a	0	0	0
568.594	n/a	REC_WORD	284297	wordpools/wasnorm_wordpool_576.txt	LTP317	ltpFR2	7	2	PLAZA	1088	n/a	n/a	0	0	0
576.69	n/a	REC_WORD	288345	wordpools/wasnorm_wordpool_576.txt	LTP317	ltpFR2	7	2	ANTLER	29	n/a	n/a	0	0	0
577.424	n/a	REC_WORD	288712	wordpools/wasnorm_wordpool_576.txt	LTP317	ltpFR2	7	2	GAZELLE	628	n/a	n/a	0	0	0
650.404	n/a	DISTRACTOR	325202	n/a	LTP317	ltpFR2	7	3	n/a	n/a	n/a	n/a	0	0	0
650.404	n/a	START	325202	n/a	LTP317	ltpFR2	7	n/a	n/a	n/a	4	n/a	n/a	n/a	n/a
650.422	n/a	PROB	325211	n/a	LTP317	ltpFR2	7	n/a	n/a	n/a	4	15	5	7	3
652.22	n/a	PROB	326110	n/a	LTP317	ltpFR2	7	n/a	n/a	n/a	4	13	4	1	8
653.64	n/a	PROB	326820	n/a	LTP317	ltpFR2	7	n/a	n/a	n/a	4	9	3	1	5
655.108	n/a	PROB	327554	n/a	LTP317	ltpFR2	7	n/a	n/a	n/a	4	20	9	9	2
656.34	n/a	PROB	328170	n/a	LTP317	ltpFR2	7	n/a	n/a	n/a	4	18	6	7	5
657.742	n/a	PROB	328871	n/a	LTP317	ltpFR2	7	n/a	n/a	n/a	4	17	6	6	5
659.11	n/a	PROB	329555	n/a	LTP317	ltpFR2	7	n/a	n/a	n/a	4	6	3	2	1
660.51	n/a	PROB	330255	n/a	LTP317	ltpFR2	7	n/a	n/a	n/a	4	17	4	7	6
662.08	n/a	PROB	331040	n/a	LTP317	ltpFR2	7	n/a	n/a	n/a	4	17	2	6	9
663.496	n/a	PROB	331748	n/a	LTP317	ltpFR2	7	n/a	n/a	n/a	4	22	6	8	8
666.582	n/a	PROB	333291	n/a	LTP317	ltpFR2	7	n/a	n/a	n/a	4	10	4	5	1
668.034	n/a	PROB	334017	n/a	LTP317	ltpFR2	7	n/a	n/a	n/a	4	17	6	5	6
669.966	n/a	PROB	334983	n/a	LTP317	ltpFR2	7	n/a	n/a	n/a	4	15	4	3	8
671.986	n/a	PROB	335993	n/a	LTP317	ltpFR2	7	n/a	n/a	n/a	4	12	2	2	8
673.752	n/a	STOP	336876	n/a	LTP317	ltpFR2	7	n/a	n/a	n/a	4	n/a	n/a	n/a	n/a
675.52	n/a	WORD	337760	wordpools/wasnorm_wordpool_576.txt	LTP317	ltpFR2	7	3	INMATE	738	n/a	n/a	0	0	0
678.204	n/a	WORD	339102	wordpools/wasnorm_wordpool_576.txt	LTP317	ltpFR2	7	3	CLOTHES	327	n/a	n/a	0	0	0
680.706	n/a	WORD	340353	wordpools/wasnorm_wordpool_576.txt	LTP317	ltpFR2	7	3	SHOVEL	1295	n/a	n/a	0	0	0
683.492	n/a	WORD	341746	wordpools/wasnorm_wordpool_576.txt	LTP317	ltpFR2	7	3	FLASHLIGHT	575	n/a	n/a	0	0	0
686.278	n/a	WORD	343139	wordpools/wasnorm_wordpool_576.txt	LTP317	ltpFR2	7	3	LAMP	798	n/a	n/a	0	0	0
688.832	n/a	WORD	344416	wordpools/wasnorm_wordpool_576.txt	LTP317	ltpFR2	7	3	FOX	598	n/a	n/a	0	0	0
691.266	n/a	WORD	345633	wordpools/wasnorm_wordpool_576.txt	LTP317	ltpFR2	7	3	PATIENT	1024	n/a	n/a	0	0	0
694.05	n/a	WORD	347025	wordpools/wasnorm_wordpool_576.txt	LTP317	ltpFR2	7	3	SCALPEL	1243	n/a	n/a	0	0	0
696.638	n/a	WORD	348319	wordpools/wasnorm_wordpool_576.txt	LTP317	ltpFR2	7	3	SIDEWALK	1303	n/a	n/a	0	0	0
699.376	n/a	WORD	349688	wordpools/wasnorm_wordpool_576.txt	LTP317	ltpFR2	7	3	JEANS	752	n/a	n/a	0	0	0
702.19	n/a	WORD	351095	wordpools/wasnorm_wordpool_576.txt	LTP317	ltpFR2	7	3	HEADBAND	696	n/a	n/a	0	0	0
704.66	n/a	WORD	352330	wordpools/wasnorm_wordpool_576.txt	LTP317	ltpFR2	7	3	SCARF	1246	n/a	n/a	0	0	0
707.162	n/a	WORD	353581	wordpools/wasnorm_wordpool_576.txt	LTP317	ltpFR2	7	3	PASTA	1021	n/a	n/a	0	0	0
709.814	n/a	WORD	354907	wordpools/wasnorm_wordpool_576.txt	LTP317	ltpFR2	7	3	ORANGE	980	n/a	n/a	0	0	0
712.432	n/a	WORD	356216	wordpools/wasnorm_wordpool_576.txt	LTP317	ltpFR2	7	3	DANDRUFF	439	n/a	n/a	0	0	0
715.002	n/a	WORD	357501	wordpools/wasnorm_wordpool_576.txt	LTP317	ltpFR2	7	3	CHIPMUNK	304	n/a	n/a	0	0	0
717.654	n/a	WORD	358827	wordpools/wasnorm_wordpool_576.txt	LTP317	ltpFR2	7	3	SILK	1307	n/a	n/a	0	0	0
720.308	n/a	WORD	360154	wordpools/wasnorm_wordpool_576.txt	LTP317	ltpFR2	7	3	CORAL	378	n/a	n/a	0	0	0
722.992	n/a	WORD	361496	wordpools/wasnorm_wordpool_576.txt	LTP317	ltpFR2	7	3	HIGHWAY	707	n/a	n/a	0	0	0
725.778	n/a	WORD	362889	wordpools/wasnorm_wordpool_576.txt	LTP317	ltpFR2	7	3	ROD	1203	n/a	n/a	0	0	0
728.514	n/a	WORD	364257	wordpools/wasnorm_wordpool_576.txt	LTP317	ltpFR2	7	3	ICEBERG	731	n/a	n/a	0	0	0
731.066	n/a	WORD	365533	wordpools/wasnorm_wordpool_576.txt	LTP317	ltpFR2	7	3	VALLEY	1545	n/a	n/a	0	0	0
733.552	n/a	WORD	366776	wordpools/wasnorm_wordpool_576.txt	LTP317	ltpFR2	7	3	HOOK	715	n/a	n/a	0	0	0
736.038	n/a	WORD	368019	wordpools/wasnorm_wordpool_576.txt	LTP317	ltpFR2	7	3	SMOG	1330	n/a	n/a	0	0	0
737.656	n/a	START	368828	n/a	LTP317	ltpFR2	7	n/a	n/a	n/a	5	n/a	n/a	n/a	n/a
738.83	n/a	DISTRACTOR	369415	n/a	LTP317	ltpFR2	7	3	n/a	n/a	n/a	n/a	0	0	0
738.838	n/a	PROB	369419	n/a	LTP317	ltpFR2	7	n/a	n/a	n/a	5	13	4	3	6
740.842	n/a	PROB	370421	n/a	LTP317	ltpFR2	7	n/a	n/a	n/a	5	23	9	7	7
743.094	n/a	PROB	371547	n/a	LTP317	ltpFR2	7	n/a	n/a	n/a	5	15	9	5	1
745.626	n/a	PROB	372813	n/a	LTP317	ltpFR2	7	n/a	n/a	n/a	5	14	5	5	4
746.826	n/a	PROB	373413	n/a	LTP317	ltpFR2	7	n/a	n/a	n/a	5	21	7	6	8
748.28	n/a	PROB	374140	n/a	LTP317	ltpFR2	7	n/a	n/a	n/a	5	17	8	6	3
750.08	n/a	PROB	375040	n/a	LTP317	ltpFR2	7	n/a	n/a	n/a	5	19	5	8	6
751.548	n/a	PROB	375774	n/a	LTP317	ltpFR2	7	n/a	n/a	n/a	5	10	3	2	5
752.984	n/a	PROB	376492	n/a	LTP317	ltpFR2	7	n/a	n/a	n/a	5	11	4	6	1
754.15	n/a	PROB	377075	n/a	LTP317	ltpFR2	7	n/a	n/a	n/a	5	15	3	7	5
755.368	n/a	PROB	377684	n/a	LTP317	ltpFR2	7	n/a	n/a	n/a	5	11	3	1	7
756.704	n/a	PROB	378352	n/a	LTP317	ltpFR2	7	n/a	n/a	n/a	5	16	9	1	7
761.018	n/a	STOP	380509	n/a	LTP317	ltpFR2	7	n/a	n/a	n/a	5	n/a	n/a	n/a	n/a
763.458	n/a	REC_START	381729	n/a	LTP317	ltpFR2	7	3	n/a	n/a	n/a	n/a	0	0	0
767.09	n/a	REC_WORD	383545	wordpools/wasnorm_wordpool_576.txt	LTP317	ltpFR2	7	3	VALLEY	1545	n/a	n/a	0	0	0
769.1	n/a	REC_WORD	384550	wordpools/wasnorm_wordpool_576.txt	LTP317	ltpFR2	7	3	SMOG	1330	n/a	n/a	0	0	0
772.148	n/a	REC_WORD	386074	wordpools/wasnorm_wordpool_576.txt	LTP317	ltpFR2	7	3	INMATE	738	n/a	n/a	0	0	0
773.276	n/a	REC_WORD	386638	wordpools/wasnorm_wordpool_576.txt	LTP317	ltpFR2	7	3	CAPTIVE	240	n/a	n/a	0	0	0
774.45	n/a	REC_WORD	387225	wordpools/wasnorm_wordpool_576.txt	LTP317	ltpFR2	7	3	CLOTHES	327	n/a	n/a	0	0	0
775.61	n/a	REC_WORD	387805	wordpools/wasnorm_wordpool_576.txt	LTP317	ltpFR2	7	3	SIDEWALK	1303	n/a	n/a	0	0	0
776.61	n/a	REC_WORD_VV	388305	wordpools/wasnorm_wordpool_576.txt	LTP317	ltpFR2	7	3	<>	-1	n/a	n/a	0	0	0
776.83	n/a	REC_WORD	388415	wordpools/wasnorm_wordpool_576.txt	LTP317	ltpFR2	7	3	FLASHLIGHT	575	n/a	n/a	0	0	0
785.356	n/a	REC_WORD	392678	wordpools/wasnorm_wordpool_576.txt	LTP317	ltpFR2	7	3	FOX	598	n/a	n/a	0	0	0
795.678	n/a	REC_WORD	397839	wordpools/wasnorm_wordpool_576.txt	LTP317	ltpFR2	7	3	ORANGE	980	n/a	n/a	0	0	0
853.894	n/a	WORD	426947	wordpools/wasnorm_wordpool_576.txt	LTP317	ltpFR2	7	4	SUITCASE	1403	n/a	n/a	0	0	0
856.348	n/a	WORD	428174	wordpools/wasnorm_wordpool_576.txt	LTP317	ltpFR2	7	4	BRIEFCASE	175	n/a	n/a	0	0	0
858.94	n/a	WORD	429470	wordpools/wasnorm_wordpool_576.txt	LTP317	ltpFR2	7	4	SIBLING	1301	n/a	n/a	0	0	0
861.436	n/a	WORD	430718	wordpools/wasnorm_wordpool_576.txt	LTP317	ltpFR2	7	4	RAFT	1159	n/a	n/a	0	0	0
864.146	n/a	WORD	432073	wordpools/wasnorm_wordpool_576.txt	LTP317	ltpFR2	7	4	CRIB	407	n/a	n/a	0	0	0
866.806	n/a	WORD	433403	wordpools/wasnorm_wordpool_576.txt	LTP317	ltpFR2	7	4	BOARD	143	n/a	n/a	0	0	0
869.45	n/a	WORD	434725	wordpools/wasnorm_wordpool_576.txt	LTP317	ltpFR2	7	4	PLAYGROUND	1087	n/a	n/a	0	0	0
871.876	n/a	WORD	435938	wordpools/wasnorm_wordpool_576.txt	LTP317	ltpFR2	7	4	POISON	1096	n/a	n/a	0	0	0
874.372	n/a	WORD	437186	wordpools/wasnorm_wordpool_576.txt	LTP317	ltpFR2	7	4	GRAVE	658	n/a	n/a	0	0	0
876.93	n/a	WORD	438465	wordpools/wasnorm_wordpool_576.txt	LTP317	ltpFR2	7	4	PRINCESS	1125	n/a	n/a	0	0	0
879.416	n/a	WORD	439708	wordpools/wasnorm_wordpool_576.txt	LTP317	ltpFR2	7	4	GRIZZLY	662	n/a	n/a	0	0	0
881.976	n/a	WORD	440988	wordpools/wasnorm_wordpool_576.txt	LTP317	ltpFR2	7	4	KNAPSACK	783	n/a	n/a	0	0	0
884.662	n/a	WORD	442331	wordpools/wasnorm_wordpool_576.txt	LTP317	ltpFR2	7	4	SISTER	1312	n/a	n/a	0	0	0
887.482	n/a	WORD	443741	wordpools/wasnorm_wordpool_576.txt	LTP317	ltpFR2	7	4	CASHEW	253	n/a	n/a	0	0	0
890.284	n/a	WORD	445142	wordpools/wasnorm_wordpool_576.txt	LTP317	ltpFR2	7	4	PEANUT	1032	n/a	n/a	0	0	0
893.086	n/a	WORD	446543	wordpools/wasnorm_wordpool_576.txt	LTP317	ltpFR2	7	4	YOLK	1633	n/a	n/a	0	0	0
895.506	n/a	WORD	447753	wordpools/wasnorm_wordpool_576.txt	LTP317	ltpFR2	7	4	LUGGAGE	847	n/a	n/a	0	0	0
898.292	n/a	WORD	449146	wordpools/wasnorm_wordpool_576.txt	LTP317	ltpFR2	7	4	WARDROBE	1587	n/a	n/a	0	0	0
901.016	n/a	WORD	450508	wordpools/wasnorm_wordpool_576.txt	LTP317	ltpFR2	7	4	QUEEN	1149	n/a	n/a	0	0	0
903.834	n/a	WORD	451917	wordpools/wasnorm_wordpool_576.txt	LTP317	ltpFR2	7	4	FRIEND	606	n/a	n/a	0	0	0
906.532	n/a	WORD	453266	wordpools/wasnorm_wordpool_576.txt	LTP317	ltpFR2	7	4	SKILLET	1317	n/a	n/a	0	0	0
909.084	n/a	WORD	454542	wordpools/wasnorm_wordpool_576.txt	LTP317	ltpFR2	7	4	BLENDER	136	n/a	n/a	0	0	0
911.824	n/a	WORD	455912	wordpools/wasnorm_wordpool_576.txt	LTP317	ltpFR2	7	4	SLOPE	1328	n/a	n/a	0	0	0
914.356	n/a	WORD	457178	wordpools/wasnorm_wordpool_576.txt	LTP317	ltpFR2	7	4	MUFFIN	929	n/a	n/a	0	0	0
915.962	n/a	START	457981	n/a	LTP317	ltpFR2	7	n/a	n/a	n/a	6	n/a	n/a	n/a	n/a
917.066	n/a	DISTRACTOR	458533	n/a	LTP317	ltpFR2	7	4	n/a	n/a	n/a	n/a	0	0	0
917.074	n/a	PROB	458537	n/a	LTP317	ltpFR2	7	n/a	n/a	n/a	6	7	1	1	5
918.33	n/a	PROB	459165	n/a	LTP317	ltpFR2	7	n/a	n/a	n/a	6	15	4	8	3
919.598	n/a	PROB	459799	n/a	LTP317	ltpFR2	7	n/a	n/a	n/a	6	15	9	5	1
921.266	n/a	PROB	460633	n/a	LTP317	ltpFR2	7	n/a	n/a	n/a	6	19	2	8	9
922.818	n/a	PROB	461409	n/a	LTP317	ltpFR2	7	n/a	n/a	n/a	6	14	9	1	4
925.784	n/a	PROB	462892	n/a	LTP317	ltpFR2	7	n/a	n/a	n/a	6	7	4	1	2
928.282	n/a	PROB	464141	n/a	LTP317	ltpFR2	7	n/a	n/a	n/a	6	18	8	6	4
929.586	n/a	PROB	464793	n/a	LTP317	ltpFR2	7	n/a	n/a	n/a	6	20	5	6	9
931.252	n/a	PROB	465626	n/a	LTP317	ltpFR2	7	n/a	n/a	n/a	6	12	2	6	4
932.886	n/a	PROB	466443	n/a	LTP317	ltpFR2	7	n/a	n/a	n/a	6	10	2	1	7
934.188	n/a	PROB	467094	n/a	LTP317	ltpFR2	7	n/a	n/a	n/a	6	15	8	2	5
935.738	n/a	PROB	467869	n/a	LTP317	ltpFR2	7	n/a	n/a	n/a	6	23	9	7	7
937.892	n/a	PROB	468946	n/a	LTP317	ltpFR2	7	n/a	n/a	n/a	6	15	1	6	8
939.148	n/a	STOP	469574	n/a	LTP317	ltpFR2	7	n/a	n/a	n/a	6	n/a	n/a	n/a	n/a
941.894	n/a	REC_START	470947	n/a	LTP317	ltpFR2	7	4	n/a	n/a	n/a	n/a	0	0	0
944.114	n/a	REC_WORD	472057	wordpools/wasnorm_wordpool_576.txt	LTP317	ltpFR2	7	4	BLENDER	136	n/a	n/a	0	0	0
944.794	n/a	REC_WORD	472397	wordpools/wasnorm_wordpool_576.txt	LTP317	ltpFR2	7	4	SLOPE	1328	n/a	n/a	0	0	0
945.564	n/a	REC_WORD	472782	wordpools/wasnorm_wordpool_576.txt	LTP317	ltpFR2	7	4	QUEEN	1149	n/a	n/a	0	0	0
946.464	n/a	REC_WORD	473232	wordpools/wasnorm_wordpool_576.txt	LTP317	ltpFR2	7	4	WARDROBE	1587	n/a	n/a	0	0	0
982.388	n/a	REC_WORD	491194	wordpools/wasnorm_wordpool_576.txt	LTP317	ltpFR2	7	4	YOLK	1633	n/a	n/a	0	0	0
993.18	n/a	REC_WORD	496590	wordpools/wasnorm_wordpool_576.txt	LTP317	ltpFR2	7	4	SUITCASE	1403	n/a	n/a	0	0	0
994.3	n/a	REC_WORD	497150	wordpools/wasnorm_wordpool_576.txt	LTP317	ltpFR2	7	4	BRIEFCASE	175	n/a	n/a	0	0	0
996.242	n/a	REC_WORD	498121	wordpools/wasnorm_wordpool_576.txt	LTP317	ltpFR2	7	4	SIBLING	1301	n/a	n/a	0	0	0
1032.35	n/a	WORD	516175	wordpools/wasnorm_wordpool_576.txt	LTP317	ltpFR2	7	5	NIGHTGOWN	953	n/a	n/a	0	0	0
1034.986	n/a	WORD	517493	wordpools/wasnorm_wordpool_576.txt	LTP317	ltpFR2	7	5	SADDLE	1221	n/a	n/a	0	0	0
1037.622	n/a	WORD	518811	wordpools/wasnorm_wordpool_576.txt	LTP317	ltpFR2	7	5	FRUIT	610	n/a	n/a	0	0	0
1040.258	n/a	WORD	520129	wordpools/wasnorm_wordpool_576.txt	LTP317	ltpFR2	7	5	PEACH	1031	n/a	n/a	0	0	0
1042.91	n/a	WORD	521455	wordpools/wasnorm_wordpool_576.txt	LTP317	ltpFR2	7	5	CARRIAGE	248	n/a	n/a	0	0	0
1045.564	n/a	WORD	522782	wordpools/wasnorm_wordpool_576.txt	LTP317	ltpFR2	7	5	PEPPER	1047	n/a	n/a	0	0	0
1048.152	n/a	WORD	524076	wordpools/wasnorm_wordpool_576.txt	LTP317	ltpFR2	7	5	KNIFE	785	n/a	n/a	0	0	0
1050.75	n/a	WORD	525375	wordpools/wasnorm_wordpool_576.txt	LTP317	ltpFR2	7	5	LACE	792	n/a	n/a	0	0	0
1053.218	n/a	WORD	526609	wordpools/wasnorm_wordpool_576.txt	LTP317	ltpFR2	7	5	SKIRT	1319	n/a	n/a	0	0	0
1055.842	n/a	WORD	527921	wordpools/wasnorm_wordpool_576.txt	LTP317	ltpFR2	7	5	WORLD	1622	n/a	n/a	0	0	0
1058.588	n/a	WORD	529294	wordpools/wasnorm_wordpool_576.txt	LTP317	ltpFR2	7	5	VENUS	1557	n/a	n/a	0	0	0
1061.208	n/a	WORD	530604	wordpools/wasnorm_wordpool_576.txt	LTP317	ltpFR2	7	5	PUPIL	1143	n/a	n/a	0	0	0
1063.98	n/a	WORD	531990	wordpools/wasnorm_wordpool_576.txt	LTP317	ltpFR2	7	5	WAGON	1578	n/a	n/a	0	0	0
1066.612	n/a	WORD	533306	wordpools/wasnorm_wordpool_576.txt	LTP317	ltpFR2	7	5	OUTDOORS	987	n/a	n/a	0	0	0
1069.354	n/a	WORD	534677	wordpools/wasnorm_wordpool_576.txt	LTP317	ltpFR2	7	5	SALT	1229	n/a	n/a	0	0	0
1072.09	n/a	WORD	536045	wordpools/wasnorm_wordpool_576.txt	LTP317	ltpFR2	7	5	JUNGLE	764	n/a	n/a	0	0	0
1074.874	n/a	WORD	537437	wordpools/wasnorm_wordpool_576.txt	LTP317	ltpFR2	7	5	BLOCKADE	137	n/a	n/a	0	0	0
1077.604	n/a	WORD	538802	wordpools/wasnorm_wordpool_576.txt	LTP317	ltpFR2	7	5	FIDDLE	561	n/a	n/a	0	0	0
1080.374	n/a	WORD	540187	wordpools/wasnorm_wordpool_576.txt	LTP317	ltpFR2	7	5	WHISTLE	1606	n/a	n/a	0	0	0
1083.092	n/a	WORD	541546	wordpools/wasnorm_wordpool_576.txt	LTP317	ltpFR2	7	5	TYPIST	1532	n/a	n/a	0	0	0
1085.716	n/a	WORD	542858	wordpools/wasnorm_wordpool_576.txt	LTP317	ltpFR2	7	5	DRIVER	499	n/a	n/a	0	0	0
1088.396	n/a	WORD	544198	wordpools/wasnorm_wordpool_576.txt	LTP317	ltpFR2	7	5	LION	827	n/a	n/a	0	0	0
1090.836	n/a	WORD	545418	wordpools/wasnorm_wordpool_576.txt	LTP317	ltpFR2	7	5	CHAPEL	280	n/a	n/a	0	0	0
1093.4	n/a	WORD	546700	wordpools/wasnorm_wordpool_576.txt	LTP317	ltpFR2	7	5	DRESSER	496	n/a	n/a	0	0	0
1095.01	n/a	START	547505	n/a	LTP317	ltpFR2	7	n/a	n/a	n/a	7	n/a	n/a	n/a	n/a
1096.116	n/a	DISTRACTOR	548058	n/a	LTP317	ltpFR2	7	5	n/a	n/a	n/a	n/a	0	0	0
1096.126	n/a	PROB	548063	n/a	LTP317	ltpFR2	7	n/a	n/a	n/a	7	16	3	8	5
1097.868	n/a	PROB	548934	n/a	LTP317	ltpFR2	7	n/a	n/a	n/a	7	10	2	2	6
1099.454	n/a	PROB	549727	n/a	LTP317	ltpFR2	7	n/a	n/a	n/a	7	13	4	2	7
1101.172	n/a	PROB	550586	n/a	LTP317	ltpFR2	7	n/a	n/a	n/a	7	17	3	5	9
1102.674	n/a	PROB	551337	n/a	LTP317	ltpFR2	7	n/a	n/a	n/a	7	15	4	8	3
1103.856	n/a	PROB	551928	n/a	LTP317	ltpFR2	7	n/a	n/a	n/a	7	5	3	1	1
1104.924	n/a	PROB	552462	n/a	LTP317	ltpFR2	7	n/a	n/a	n/a	7	14	6	4	4
1106.744	n/a	PROB	553372	n/a	LTP317	ltpFR2	7	n/a	n/a	n/a	7	16	2	5	9
1108.276	n/a	PROB	554138	n/a	LTP317	ltpFR2	7	n/a	n/a	n/a	7	11	1	2	8
1109.51	n/a	PROB	554755	n/a	LTP317	ltpFR2	7	n/a	n/a	n/a	7	14	7	3	4
1110.746	n/a	PROB	555373	n/a	LTP317	ltpFR2	7	n/a	n/a	n/a	7	15	5	6	4
1112.048	n/a	PROB	556024	n/a	LTP317	ltpFR2	7	n/a	n/a	n/a	7	17	9	4	4
1114.68	n/a	PROB	557340	n/a	LTP317	ltpFR2	7	n/a	n/a	n/a	7	11	3	4	4
1116.182	n/a	PROB	558091	n/a	LTP317	ltpFR2	7	n/a	n/a	n/a	7	145	8	2	4
1119.008	n/a	STOP	559504	n/a	LTP317	ltpFR2	7	n/a	n/a	n/a	7	n/a	n/a	n/a	n/a
1120.886	n/a	REC_START	560443	n/a	LTP317	ltpFR2	7	5	n/a	n/a	n/a	n/a	0	0	0
1123.146	n/a	REC_WORD	561573	wordpools/wasnorm_wordpool_576.txt	LTP317	ltpFR2	7	5	NIGHTGOWN	953	n/a	n/a	0	0	0
1124.712	n/a	REC_WORD	562356	wordpools/wasnorm_wordpool_576.txt	LTP317	ltpFR2	7	5	LADY	794	n/a	n/a	0	0	0
1125.83	n/a	REC_WORD	562915	wordpools/wasnorm_wordpool_576.txt	LTP317	ltpFR2	7	5	LACE	792	n/a	n/a	0	0	0
1126.774	n/a	REC_WORD	563387	wordpools/wasnorm_wordpool_576.txt	LTP317	ltpFR2	7	5	SADDLE	1221	n/a	n/a	0	0	0
1187.588	n/a	REC_WORD	593794	wordpools/wasnorm_wordpool_576.txt	LTP317	ltpFR2	7	5	KNIFE	785	n/a	n/a	0	0	0
1192.636	n/a	REC_WORD	596318	wordpools/wasnorm_wordpool_576.txt	LTP317	ltpFR2	7	5	KNAPSACK	783	n/a	n/a	0	0	0
1211.34	n/a	DISTRACTOR	605670	n/a	LTP317	ltpFR2	7	6	n/a	n/a	n/a	n/a	0	0	0
1211.34	n/a	START	605670	n/a	LTP317	ltpFR2	7	n/a	n/a	n/a	8	n/a	n/a	n/a	n/a
1211.358	n/a	PROB	605679	n/a	LTP317	ltpFR2	7	n/a	n/a	n/a	8	27	9	9	9
1213.176	n/a	PROB	606588	n/a	LTP317	ltpFR2	7	n/a	n/a	n/a	8	14	1	5	8
1214.576	n/a	PROB	607288	n/a	LTP317	ltpFR2	7	n/a	n/a	n/a	8	13	5	5	3
1216.544	n/a	PROB	608272	n/a	LTP317	ltpFR2	7	n/a	n/a	n/a	8	12	1	3	8
1217.744	n/a	PROB	608872	n/a	LTP317	ltpFR2	7	n/a	n/a	n/a	8	21	8	7	6
1219.246	n/a	PROB	609623	n/a	LTP317	ltpFR2	7	n/a	n/a	n/a	8	18	3	8	7
1220.682	n/a	PROB	610341	n/a	LTP317	ltpFR2	7	n/a	n/a	n/a	8	16	9	4	3
1222.384	n/a	PROB	611192	n/a	LTP317	ltpFR2	7	n/a	n/a	n/a	8	10	2	6	2
1223.9	n/a	PROB	611950	n/a	LTP317	ltpFR2	7	n/a	n/a	n/a	8	1	7	2	3
1225.386	n/a	PROB	612693	n/a	LTP317	ltpFR2	7	n/a	n/a	n/a	8	16	3	6	7
1227.286	n/a	PROB	613643	n/a	LTP317	ltpFR2	7	n/a	n/a	n/a	8	22	9	6	7
1229.372	n/a	PROB	614686	n/a	LTP317	ltpFR2	7	n/a	n/a	n/a	8	20	6	8	6
1231.156	n/a	PROB	615578	n/a	LTP317	ltpFR2	7	n/a	n/a	n/a	8	15	7	2	6
1235.34	n/a	STOP	617670	n/a	LTP317	ltpFR2	7	n/a	n/a	n/a	8	n/a	n/a	n/a	n/a
1236.444	n/a	WORD	618222	wordpools/wasnorm_wordpool_576.txt	LTP317	ltpFR2	7	6	PLAID	1080	n/a	n/a	0	0	0
1239.096	n/a	WORD	619548	wordpools/wasnorm_wordpool_576.txt	LTP317	ltpFR2	7	6	ELBOW	520	n/a	n/a	0	0	0
1241.614	n/a	WORD	620807	wordpools/wasnorm_wordpool_576.txt	LTP317	ltpFR2	7	6	GUITAR	670	n/a	n/a	0	0	0
1244.2	n/a	WORD	622100	wordpools/wasnorm_wordpool_576.txt	LTP317	ltpFR2	7	6	SUSPECT	1415	n/a	n/a	0	0	0
1246.984	n/a	WORD	623492	wordpools/wasnorm_wordpool_576.txt	LTP317	ltpFR2	7	6	TUTU	1524	n/a	n/a	0	0	0
1249.57	n/a	WORD	624785	wordpools/wasnorm_wordpool_576.txt	LTP317	ltpFR2	7	6	DRINK	498	n/a	n/a	0	0	0
1252.39	n/a	WORD	626195	wordpools/wasnorm_wordpool_576.txt	LTP317	ltpFR2	7	6	PARROT	1015	n/a	n/a	0	0	0
1254.824	n/a	WORD	627412	wordpools/wasnorm_wordpool_576.txt	LTP317	ltpFR2	7	6	TURKEY	1520	n/a	n/a	0	0	0
1257.244	n/a	WORD	628622	wordpools/wasnorm_wordpool_576.txt	LTP317	ltpFR2	7	6	MACHINE	852	n/a	n/a	0	0	0
1259.728	n/a	WORD	629864	wordpools/wasnorm_wordpool_576.txt	LTP317	ltpFR2	7	6	TOURIST	1488	n/a	n/a	0	0	0
1262.364	n/a	WORD	631182	wordpools/wasnorm_wordpool_576.txt	LTP317	ltpFR2	7	6	CONCERT	360	n/a	n/a	0	0	0
1265.082	n/a	WORD	632541	wordpools/wasnorm_wordpool_576.txt	LTP317	ltpFR2	7	6	GLOVE	642	n/a	n/a	0	0	0
1267.554	n/a	WORD	633777	wordpools/wasnorm_wordpool_576.txt	LTP317	ltpFR2	7	6	MUMMY	932	n/a	n/a	0	0	0
1270.374	n/a	WORD	635187	wordpools/wasnorm_wordpool_576.txt	LTP317	ltpFR2	7	6	ROBBER	1197	n/a	n/a	0	0	0
1272.906	n/a	WORD	636453	wordpools/wasnorm_wordpool_576.txt	LTP317	ltpFR2	7	6	CANYON	235	n/a	n/a	0	0	0
1275.612	n/a	WORD	637806	wordpools/wasnorm_wordpool_576.txt	LTP317	ltpFR2	7	6	BRANDY	169	n/a	n/a	0	0	0
1278.11	n/a	WORD	639055	wordpools/wasnorm_wordpool_576.txt	LTP317	ltpFR2	7	6	ITEM	746	n/a	n/a	0	0	0
1280.544	n/a	WORD	640272	wordpools/wasnorm_wordpool_576.txt	LTP317	ltpFR2	7	6	RECORD	1176	n/a	n/a	0	0	0
1283.268	n/a	WORD	641634	wordpools/wasnorm_wordpool_576.txt	LTP317	ltpFR2	7	6	PIANO	1057	n/a	n/a	0	0	0
1285.952	n/a	WORD	642976	wordpools/wasnorm_wordpool_576.txt	LTP317	ltpFR2	7	6	PUDDING	1139	n/a	n/a	0	0	0
1288.384	n/a	WORD	644192	wordpools/wasnorm_wordpool_576.txt	LTP317	ltpFR2	7	6	SHOULDER	1294	n/a	n/a	0	0	0
1291.07	n/a	WORD	645535	wordpools/wasnorm_wordpool_576.txt	LTP317	ltpFR2	7	6	AIRPLANE	12	n/a	n/a	0	0	0
1293.87	n/a	WORD	646935	wordpools/wasnorm_wordpool_576.txt	LTP317	ltpFR2	7	6	PEBBLE	1035	n/a	n/a	0	0	0
1296.34	n/a	WORD	648170	wordpools/wasnorm_wordpool_576.txt	LTP317	ltpFR2	7	6	STONE	1385	n/a	n/a	0	0	0
1297.948	n/a	START	648974	n/a	LTP317	ltpFR2	7	n/a	n/a	n/a	9	n/a	n/a	n/a	n/a
1298.756	n/a	DISTRACTOR	649378	n/a	LTP317	ltpFR2	7	6	n/a	n/a	n/a	n/a	0	0	0
1298.764	n/a	PROB	649382	n/a	LTP317	ltpFR2	7	n/a	n/a	n/a	9	16	3	6	7
1300.458	n/a	PROB	650229	n/a	LTP317	ltpFR2	7	n/a	n/a	n/a	9	17	8	5	4
1302.978	n/a	PROB	651489	n/a	LTP317	ltpFR2	7	n/a	n/a	n/a	9	6	2	3	1
1304.18	n/a	PROB	652090	n/a	LTP317	ltpFR2	7	n/a	n/a	n/a	9	18	7	8	3
1305.496	n/a	PROB	652748	n/a	LTP317	ltpFR2	7	n/a	n/a	n/a	9	22	8	7	7
1307.364	n/a	PROB	653682	n/a	LTP317	ltpFR2	7	n/a	n/a	n/a	9	13	3	4	6
1309.516	n/a	PROB	654758	n/a	LTP317	ltpFR2	7	n/a	n/a	n/a	9	10	3	2	5
1311.718	n/a	PROB	655859	n/a	LTP317	ltpFR2	7	n/a	n/a	n/a	9	14	9	1	4
1313.036	n/a	PROB	656518	n/a	LTP317	ltpFR2	7	n/a	n/a	n/a	9	8	2	1	5
1314.538	n/a	PROB	657269	n/a	LTP317	ltpFR2	7	n/a	n/a	n/a	9	15	4	5	6
1316.024	n/a	PROB	658012	n/a	LTP317	ltpFR2	7	n/a	n/a	n/a	9	21	6	6	9
1318.658	n/a	PROB	659329	n/a	LTP317	ltpFR2	7	n/a	n/a	n/a	9	11	2	2	7
1320.058	n/a	PROB	660029	n/a	LTP317	ltpFR2	7	n/a	n/a	n/a	9	12	2	2	8
1321.522	n/a	STOP	660761	n/a	LTP317	ltpFR2	7	n/a	n/a	n/a	9	n/a	n/a	n/a	n/a
1323.762	n/a	REC_START	661881	n/a	LTP317	ltpFR2	7	6	n/a	n/a	n/a	n/a	0	0	0
1324.576	n/a	REC_WORD	662288	wordpools/wasnorm_wordpool_576.txt	LTP317	ltpFR2	7	6	PLAID	1080	n/a	n/a	0	0	0
1325.958	n/a	REC_WORD	662979	wordpools/wasnorm_wordpool_576.txt	LTP317	ltpFR2	7	6	ELBOW	520	n/a	n/a	0	0	0
1327.04	n/a	REC_WORD	663520	wordpools/wasnorm_wordpool_576.txt	LTP317	ltpFR2	7	6	SUSPECT	1415	n/a	n/a	0	0	0
1328.04	n/a	REC_WORD_VV	664020	wordpools/wasnorm_wordpool_576.txt	LTP317	ltpFR2	7	6	<>	-1	n/a	n/a	0	0	0
1341.158	n/a	REC_WORD	670579	wordpools/wasnorm_wordpool_576.txt	LTP317	ltpFR2	7	6	TUTU	1524	n/a	n/a	0	0	0
1414.18	n/a	DISTRACTOR	707090	n/a	LTP317	ltpFR2	7	7	n/a	n/a	n/a	n/a	0	0	0
1414.18	n/a	START	707090	n/a	LTP317	ltpFR2	7	n/a	n/a	n/a	10	n/a	n/a	n/a	n/a
1414.196	n/a	PROB	707098	n/a	LTP317	ltpFR2	7	n/a	n/a	n/a	10	13	9	2	2
1417.698	n/a	PROB	708849	n/a	LTP317	ltpFR2	7	n/a	n/a	n/a	10	25	8	9	8
1420.5	n/a	PROB	710250	n/a	LTP317	ltpFR2	7	n/a	n/a	n/a	10	7	3	1	3
1422.116	n/a	PROB	711058	n/a	LTP317	ltpFR2	7	n/a	n/a	n/a	10	15	9	1	5
1423.418	n/a	PROB	711709	n/a	LTP317	ltpFR2	7	n/a	n/a	n/a	10	14	8	2	4
1424.722	n/a	PROB	712361	n/a	LTP317	ltpFR2	7	n/a	n/a	n/a	10	20	9	8	3
1426.472	n/a	PROB	713236	n/a	LTP317	ltpFR2	7	n/a	n/a	n/a	10	13	7	2	4
1429.44	n/a	PROB	714720	n/a	LTP317	ltpFR2	7	n/a	n/a	n/a	10	20	8	9	3
1431.66	n/a	PROB	715830	n/a	LTP317	ltpFR2	7	n/a	n/a	n/a	10	17	8	5	4
1434.044	n/a	PROB	717022	n/a	LTP317	ltpFR2	7	n/a	n/a	n/a	10	15	4	8	3
1435.28	n/a	PROB	717640	n/a	LTP317	ltpFR2	7	n/a	n/a	n/a	10	18	9	4	5
1437.884	n/a	STOP	718942	n/a	LTP317	ltpFR2	7	n/a	n/a	n/a	10	n/a	n/a	n/a	n/a
1439.316	n/a	WORD	719658	wordpools/wasnorm_wordpool_576.txt	LTP317	ltpFR2	7	7	FARMER	553	n/a	n/a	0	0	0
1441.95	n/a	WORD	720975	wordpools/wasnorm_wordpool_576.txt	LTP317	ltpFR2	7	7	BROOK	177	n/a	n/a	0	0	0
1444.454	n/a	WORD	722227	wordpools/wasnorm_wordpool_576.txt	LTP317	ltpFR2	7	7	BOX	159	n/a	n/a	0	0	0
1447.19	n/a	WORD	723595	wordpools/wasnorm_wordpool_576.txt	LTP317	ltpFR2	7	7	LIVER	833	n/a	n/a	0	0	0
1449.642	n/a	WORD	724821	wordpools/wasnorm_wordpool_576.txt	LTP317	ltpFR2	7	7	TWEEZERS	1526	n/a	n/a	0	0	0
1452.078	n/a	WORD	726039	wordpools/wasnorm_wordpool_576.txt	LTP317	ltpFR2	7	7	WHISKERS	1605	n/a	n/a	0	0	0
1454.564	n/a	WORD	727282	wordpools/wasnorm_wordpool_576.txt	LTP317	ltpFR2	7	7	COUNTRY	388	n/a	n/a	0	0	0
1457.148	n/a	WORD	728574	wordpools/wasnorm_wordpool_576.txt	LTP317	ltpFR2	7	7	ASIA	46	n/a	n/a	0	0	0
1459.716	n/a	WORD	729858	wordpools/wasnorm_wordpool_576.txt	LTP317	ltpFR2	7	7	LADY	794	n/a	n/a	0	0	0
1462.32	n/a	WORD	731160	wordpools/wasnorm_wordpool_576.txt	LTP317	ltpFR2	7	7	WORKER	1621	n/a	n/a	0	0	0
1465.072	n/a	WORD	732536	wordpools/wasnorm_wordpool_576.txt	LTP317	ltpFR2	7	7	FRECKLE	602	n/a	n/a	0	0	0
1467.59	n/a	WORD	733795	wordpools/wasnorm_wordpool_576.txt	LTP317	ltpFR2	7	7	CHURCH	307	n/a	n/a	0	0	0
1470.276	n/a	WORD	735138	wordpools/wasnorm_wordpool_576.txt	LTP317	ltpFR2	7	7	ROBIN	1199	n/a	n/a	0	0	0
1472.728	n/a	WORD	736364	wordpools/wasnorm_wordpool_576.txt	LTP317	ltpFR2	7	7	ROCKET	1202	n/a	n/a	0	0	0
1475.196	n/a	WORD	737598	wordpools/wasnorm_wordpool_576.txt	LTP317	ltpFR2	7	7	PAPER	1011	n/a	n/a	0	0	0
1477.882	n/a	WORD	738941	wordpools/wasnorm_wordpool_576.txt	LTP317	ltpFR2	7	7	PORK	1108	n/a	n/a	0	0	0
1480.534	n/a	WORD	740267	wordpools/wasnorm_wordpool_576.txt	LTP317	ltpFR2	7	7	ZEBRA	1635	n/a	n/a	0	0	0
1483.086	n/a	WORD	741543	wordpools/wasnorm_wordpool_576.txt	LTP317	ltpFR2	7	7	POWDER	1117	n/a	n/a	0	0	0
1485.854	n/a	WORD	742927	wordpools/wasnorm_wordpool_576.txt	LTP317	ltpFR2	7	7	NOTEBOOK	959	n/a	n/a	0	0	0
1488.34	n/a	WORD	744170	wordpools/wasnorm_wordpool_576.txt	LTP317	ltpFR2	7	7	COUNTY	389	n/a	n/a	0	0	0
1490.892	n/a	WORD	745446	wordpools/wasnorm_wordpool_576.txt	LTP317	ltpFR2	7	7	BEEF	113	n/a	n/a	0	0	0
1493.544	n/a	WORD	746772	wordpools/wasnorm_wordpool_576.txt	LTP317	ltpFR2	7	7	THRONE	1461	n/a	n/a	0	0	0
1496.23	n/a	WORD	748115	wordpools/wasnorm_wordpool_576.txt	LTP317	ltpFR2	7	7	LOFT	840	n/a	n/a	0	0	0
1498.93	n/a	WORD	749465	wordpools/wasnorm_wordpool_576.txt	LTP317	ltpFR2	7	7	DINER	467	n/a	n/a	0	0	0
1500.536	n/a	START	750268	n/a	LTP317	ltpFR2	7	n/a	n/a	n/a	11	n/a	n/a	n/a	n/a
1501.678	n/a	DISTRACTOR	750839	n/a	LTP317	ltpFR2	7	7	n/a	n/a	n/a	n/a	0	0	0
1501.684	n/a	PROB	750842	n/a	LTP317	ltpFR2	7	n/a	n/a	n/a	11	14	6	4	4
1503.218	n/a	PROB	751609	n/a	LTP317	ltpFR2	7	n/a	n/a	n/a	11	13	4	7	2
1505.936	n/a	PROB	752968	n/a	LTP317	ltpFR2	7	n/a	n/a	n/a	11	18	7	7	4
1507.538	n/a	PROB	753769	n/a	LTP317	ltpFR2	7	n/a	n/a	n/a	11	15	3	4	8
1508.738	n/a	PROB	754369	n/a	LTP317	ltpFR2	7	n/a	n/a	n/a	11	19	9	8	2
1511.142	n/a	PROB	755571	n/a	LTP317	ltpFR2	7	n/a	n/a	n/a	11	10	8	1	1
1512.574	n/a	PROB	756287	n/a	LTP317	ltpFR2	7	n/a	n/a	n/a	11	12	3	4	5
1513.776	n/a	PROB	756888	n/a	LTP317	ltpFR2	7	n/a	n/a	n/a	11	15	3	9	3
1515.644	n/a	PROB	757822	n/a	LTP317	ltpFR2	7	n/a	n/a	n/a	11	14	5	5	4
1516.842	n/a	PROB	758421	n/a	LTP317	ltpFR2	7	n/a	n/a	n/a	11	9	4	3	2
1519.648	n/a	PROB	759824	n/a	LTP317	ltpFR2	7	n/a	n/a	n/a	11	15	9	3	3
1521.248	n/a	PROB	760624	n/a	LTP317	ltpFR2	7	n/a	n/a	n/a	11	13	7	3	3
1522.93	n/a	PROB	761465	n/a	LTP317	ltpFR2	7	n/a	n/a	n/a	11	14	3	5	6
1524.414	n/a	STOP	762207	n/a	LTP317	ltpFR2	7	n/a	n/a	n/a	11	n/a	n/a	n/a	n/a
1526.286	n/a	REC_START	763143	n/a	LTP317	ltpFR2	7	7	n/a	n/a	n/a	n/a	0	0	0
1528.07	n/a	REC_WORD	764035	wordpools/wasnorm_wordpool_576.txt	LTP317	ltpFR2	7	7	LOFT	840	n/a	n/a	0	0	0
1529.198	n/a	REC_WORD	764599	wordpools/wasnorm_wordpool_576.txt	LTP317	ltpFR2	7	7	FARMER	553	n/a	n/a	0	0	0
1546.736	n/a	REC_WORD	773368	wordpools/wasnorm_wordpool_576.txt	LTP317	ltpFR2	7	7	ASIA	46	n/a	n/a	0	0	0
1550.88	n/a	REC_WORD	775440	wordpools/wasnorm_wordpool_576.txt	LTP317	ltpFR2	7	7	FRECKLE	602	n/a	n/a	0	0	0
1551.892	n/a	REC_WORD	775946	wordpools/wasnorm_wordpool_576.txt	LTP317	ltpFR2	7	7	CHURCH	307	n/a	n/a	0	0	0
1616.722	n/a	WORD	808361	wordpools/wasnorm_wordpool_576.txt	LTP317	ltpFR2	7	8	LEG	809	n/a	n/a	0	0	0
1619.186	n/a	WORD	809593	wordpools/wasnorm_wordpool_576.txt	LTP317	ltpFR2	7	8	CONVICT	371	n/a	n/a	0	0	0
1621.688	n/a	WORD	810844	wordpools/wasnorm_wordpool_576.txt	LTP317	ltpFR2	7	8	SPHINX	1349	n/a	n/a	0	0	0
1624.156	n/a	WORD	812078	wordpools/wasnorm_wordpool_576.txt	LTP317	ltpFR2	7	8	DRILL	497	n/a	n/a	0	0	0
1626.89	n/a	WORD	813445	wordpools/wasnorm_wordpool_576.txt	LTP317	ltpFR2	7	8	LADDER	793	n/a	n/a	0	0	0
1629.444	n/a	WORD	814722	wordpools/wasnorm_wordpool_576.txt	LTP317	ltpFR2	7	8	UMPIRE	1535	n/a	n/a	0	0	0
1632.196	n/a	WORD	816098	wordpools/wasnorm_wordpool_576.txt	LTP317	ltpFR2	7	8	SCULPTURE	1258	n/a	n/a	0	0	0
1634.982	n/a	WORD	817491	wordpools/wasnorm_wordpool_576.txt	LTP317	ltpFR2	7	8	ROBOT	1200	n/a	n/a	0	0	0
1637.638	n/a	WORD	818819	wordpools/wasnorm_wordpool_576.txt	LTP317	ltpFR2	7	8	COBRA	336	n/a	n/a	0	0	0
1640.37	n/a	WORD	820185	wordpools/wasnorm_wordpool_576.txt	LTP317	ltpFR2	7	8	SCALLOP	1242	n/a	n/a	0	0	0
1642.976	n/a	WORD	821488	wordpools/wasnorm_wordpool_576.txt	LTP317	ltpFR2	7	8	MARKET	871	n/a	n/a	0	0	0
1645.64	n/a	WORD	822820	wordpools/wasnorm_wordpool_576.txt	LTP317	ltpFR2	7	8	PADDLE	1000	n/a	n/a	0	0	0
1648.148	n/a	WORD	824074	wordpools/wasnorm_wordpool_576.txt	LTP317	ltpFR2	7	8	CHEMIST	292	n/a	n/a	0	0	0
1650.81	n/a	WORD	825405	wordpools/wasnorm_wordpool_576.txt	LTP317	ltpFR2	7	8	PLATE	1086	n/a	n/a	0	0	0
1653.53	n/a	WORD	826765	wordpools/wasnorm_wordpool_576.txt	LTP317	ltpFR2	7	8	CRICKET	408	n/a	n/a	0	0	0
1656.1	n/a	WORD	828050	wordpools/wasnorm_wordpool_576.txt	LTP317	ltpFR2	7	8	FINGER	567	n/a	n/a	0	0	0
1658.686	n/a	WORD	829343	wordpools/wasnorm_wordpool_576.txt	LTP317	ltpFR2	7	8	BANQUET	86	n/a	n/a	0	0	0
1661.17	n/a	WORD	830585	wordpools/wasnorm_wordpool_576.txt	LTP317	ltpFR2	7	8	CLAM	315	n/a	n/a	0	0	0
1663.69	n/a	WORD	831845	wordpools/wasnorm_wordpool_576.txt	LTP317	ltpFR2	7	8	CRAB	397	n/a	n/a	0	0	0
1666.358	n/a	WORD	833179	wordpools/wasnorm_wordpool_576.txt	LTP317	ltpFR2	7	8	PALACE	1006	n/a	n/a	0	0	0
1668.93	n/a	WORD	834465	wordpools/wasnorm_wordpool_576.txt	LTP317	ltpFR2	7	8	CROWN	415	n/a	n/a	0	0	0
1671.432	n/a	WORD	835716	wordpools/wasnorm_wordpool_576.txt	LTP317	ltpFR2	7	8	SURVEY	1414	n/a	n/a	0	0	0
1673.884	n/a	WORD	836942	wordpools/wasnorm_wordpool_576.txt	LTP317	ltpFR2	7	8	COCOON	339	n/a	n/a	0	0	0
1676.4	n/a	WORD	838200	wordpools/wasnorm_wordpool_576.txt	LTP317	ltpFR2	7	8	COUSIN	392	n/a	n/a	0	0	0
1678.006	n/a	START	839003	n/a	LTP317	ltpFR2	7	n/a	n/a	n/a	12	n/a	n/a	n/a	n/a
1678.966	n/a	DISTRACTOR	839483	n/a	LTP317	ltpFR2	7	8	n/a	n/a	n/a	n/a	0	0	0
1678.972	n/a	PROB	839486	n/a	LTP317	ltpFR2	7	n/a	n/a	n/a	12	6	1	4	1
1680.386	n/a	PROB	840193	n/a	LTP317	ltpFR2	7	n/a	n/a	n/a	12	13	2	2	9
1682.09	n/a	PROB	841045	n/a	LTP317	ltpFR2	7	n/a	n/a	n/a	12	19	7	6	6
1684.424	n/a	PROB	842212	n/a	LTP317	ltpFR2	7	n/a	n/a	n/a	12	22	9	6	7
1686.108	n/a	PROB	843054	n/a	LTP317	ltpFR2	7	n/a	n/a	n/a	12	18	5	8	5
1688.178	n/a	PROB	844089	n/a	LTP317	ltpFR2	7	n/a	n/a	n/a	12	19	8	8	3
1689.998	n/a	PROB	844999	n/a	LTP317	ltpFR2	7	n/a	n/a	n/a	12	12	2	3	7
1692.166	n/a	PROB	846083	n/a	LTP317	ltpFR2	7	n/a	n/a	n/a	12	15	3	5	7
1693.398	n/a	PROB	846699	n/a	LTP317	ltpFR2	7	n/a	n/a	n/a	12	16	2	8	6
1694.616	n/a	PROB	847308	n/a	LTP317	ltpFR2	7	n/a	n/a	n/a	12	14	7	1	6
1696.968	n/a	PROB	848484	n/a	LTP317	ltpFR2	7	n/a	n/a	n/a	12	12	2	4	6
1698.254	n/a	PROB	849127	n/a	LTP317	ltpFR2	7	n/a	n/a	n/a	12	14	7	3	4
1699.502	n/a	PROB	849751	n/a	LTP317	ltpFR2	7	n/a	n/a	n/a	12	21	8	7	6
1701.28	n/a	STOP	850640	n/a	LTP317	ltpFR2	7	n/a	n/a	n/a	12	n/a	n/a	n/a	n/a
1703.89	n/a	REC_START	851945	n/a	LTP317	ltpFR2	7	8	n/a	n/a	n/a	n/a	0	0	0
1705.304	n/a	REC_WORD	852652	wordpools/wasnorm_wordpool_576.txt	LTP317	ltpFR2	7	8	CLAM	315	n/a	n/a	0	0	0
1706.302	n/a	REC_WORD	853151	wordpools/wasnorm_wordpool_576.txt	LTP317	ltpFR2	7	8	CRAB	397	n/a	n/a	0	0	0
1712.68	n/a	REC_WORD	856340	wordpools/wasnorm_wordpool_576.txt	LTP317	ltpFR2	7	8	PALACE	1006	n/a	n/a	0	0	0
1714.44	n/a	REC_WORD	857220	wordpools/wasnorm_wordpool_576.txt	LTP317	ltpFR2	7	8	CROWN	415	n/a	n/a	0	0	0
1723.094	n/a	REC_WORD	861547	wordpools/wasnorm_wordpool_576.txt	LTP317	ltpFR2	7	8	CHEMIST	292	n/a	n/a	0	0	0
1725.2	n/a	REC_WORD	862600	wordpools/wasnorm_wordpool_576.txt	LTP317	ltpFR2	7	8	CRICKET	408	n/a	n/a	0	0	0
1729.042	n/a	REC_WORD	864521	wordpools/wasnorm_wordpool_576.txt	LTP317	ltpFR2	7	8	PALETTE	-1	n/a	n/a	0	0	0
1745.056	n/a	REC_WORD	872528	wordpools/wasnorm_wordpool_576.txt	LTP317	ltpFR2	7	8	LEG	809	n/a	n/a	0	0	0
1747.732	n/a	REC_WORD	873866	wordpools/wasnorm_wordpool_576.txt	LTP317	ltpFR2	7	8	SPHINX	1349	n/a	n/a	0	0	0
1752.026	n/a	REC_WORD	876013	wordpools/wasnorm_wordpool_576.txt	LTP317	ltpFR2	7	8	LADDER	793	n/a	n/a	0	0	0
1780.416	n/a	REST_REWET	890208	n/a	LTP317	ltpFR2	7	8	n/a	n/a	n/a	n/a	0	0	0
1932.068	n/a	DISTRACTOR	966034	n/a	LTP317	ltpFR2	7	9	n/a	n/a	n/a	n/a	0	0	0
1932.068	n/a	START	966034	n/a	LTP317	ltpFR2	7	n/a	n/a	n/a	13	n/a	n/a	n/a	n/a
1932.086	n/a	PROB	966043	n/a	LTP317	ltpFR2	7	n/a	n/a	n/a	13	16	5	3	8
1933.652	n/a	PROB	966826	n/a	LTP317	ltpFR2	7	n/a	n/a	n/a	13	17	4	7	6
1935.254	n/a	PROB	967627	n/a	LTP317	ltpFR2	7	n/a	n/a	n/a	13	10	1	7	2
1937.64	n/a	PROB	968820	n/a	LTP317	ltpFR2	7	n/a	n/a	n/a	13	23	2	9	6
1941.958	n/a	PROB	970979	n/a	LTP317	ltpFR2	7	n/a	n/a	n/a	13	16	4	3	9
1943.76	n/a	PROB	971880	n/a	LTP317	ltpFR2	7	n/a	n/a	n/a	13	14	5	3	6
1945.162	n/a	PROB	972581	n/a	LTP317	ltpFR2	7	n/a	n/a	n/a	13	22	8	8	6
1947.13	n/a	PROB	973565	n/a	LTP317	ltpFR2	7	n/a	n/a	n/a	13	16	5	9	2
1949.732	n/a	PROB	974866	n/a	LTP317	ltpFR2	7	n/a	n/a	n/a	13	11	3	5	3
1951.966	n/a	PROB	975983	n/a	LTP317	ltpFR2	7	n/a	n/a	n/a	13	16	1	6	9
1953.234	n/a	PROB	976617	n/a	LTP317	ltpFR2	7	n/a	n/a	n/a	13	13	5	6	2
1954.716	n/a	STOP	977358	n/a	LTP317	ltpFR2	7	n/a	n/a	n/a	13	n/a	n/a	n/a	n/a
1957.204	n/a	WORD	978602	wordpools/wasnorm_wordpool_576.txt	LTP317	ltpFR2	7	9	PISTON	1076	n/a	n/a	0	0	0
1960.024	n/a	WORD	980012	wordpools/wasnorm_wordpool_576.txt	LTP317	ltpFR2	7	9	EYELASH	546	n/a	n/a	0	0	0
1962.824	n/a	WORD	981412	wordpools/wasnorm_wordpool_576.txt	LTP317	ltpFR2	7	9	PILOT	1070	n/a	n/a	0	0	0
1965.644	n/a	WORD	982822	wordpools/wasnorm_wordpool_576.txt	LTP317	ltpFR2	7	9	HOOD	714	n/a	n/a	0	0	0
1968.464	n/a	WORD	984232	wordpools/wasnorm_wordpool_576.txt	LTP317	ltpFR2	7	9	ACTRESS	6	n/a	n/a	0	0	0
1971.282	n/a	WORD	985641	wordpools/wasnorm_wordpool_576.txt	LTP317	ltpFR2	7	9	STREAM	1392	n/a	n/a	0	0	0
1974.0	n/a	WORD	987000	wordpools/wasnorm_wordpool_576.txt	LTP317	ltpFR2	7	9	SLIDE	1326	n/a	n/a	0	0	0
1976.57	n/a	WORD	988285	wordpools/wasnorm_wordpool_576.txt	LTP317	ltpFR2	7	9	GIRL	637	n/a	n/a	0	0	0
1979.322	n/a	WORD	989661	wordpools/wasnorm_wordpool_576.txt	LTP317	ltpFR2	7	9	MOP	916	n/a	n/a	0	0	0
1981.958	n/a	WORD	990979	wordpools/wasnorm_wordpool_576.txt	LTP317	ltpFR2	7	9	ISLAND	745	n/a	n/a	0	0	0
1984.626	n/a	WORD	992313	wordpools/wasnorm_wordpool_576.txt	LTP317	ltpFR2	7	9	ACTOR	5	n/a	n/a	0	0	0
1987.078	n/a	WORD	993539	wordpools/wasnorm_wordpool_576.txt	LTP317	ltpFR2	7	9	COOKBOOK	373	n/a	n/a	0	0	0
1989.684	n/a	WORD	994842	wordpools/wasnorm_wordpool_576.txt	LTP317	ltpFR2	7	9	LODGE	839	n/a	n/a	0	0	0
1992.198	n/a	WORD	996099	wordpools/wasnorm_wordpool_576.txt	LTP317	ltpFR2	7	9	STAKE	1368	n/a	n/a	0	0	0
1994.932	n/a	WORD	997466	wordpools/wasnorm_wordpool_576.txt	LTP317	ltpFR2	7	9	THIEF	1456	n/a	n/a	0	0	0
1997.718	n/a	WORD	998859	wordpools/wasnorm_wordpool_576.txt	LTP317	ltpFR2	7	9	REPORT	1184	n/a	n/a	0	0	0
2000.42	n/a	WORD	1000210	wordpools/wasnorm_wordpool_576.txt	LTP317	ltpFR2	7	9	FIREPLACE	570	n/a	n/a	0	0	0
2002.956	n/a	WORD	1001478	wordpools/wasnorm_wordpool_576.txt	LTP317	ltpFR2	7	9	DRAGON	492	n/a	n/a	0	0	0
2005.712	n/a	WORD	1002856	wordpools/wasnorm_wordpool_576.txt	LTP317	ltpFR2	7	9	TROMBONE	1508	n/a	n/a	0	0	0
2008.294	n/a	WORD	1004147	wordpools/wasnorm_wordpool_576.txt	LTP317	ltpFR2	7	9	LEOPARD	812	n/a	n/a	0	0	0
2010.764	n/a	WORD	1005382	wordpools/wasnorm_wordpool_576.txt	LTP317	ltpFR2	7	9	CLOUD	328	n/a	n/a	0	0	0
2013.482	n/a	WORD	1006741	wordpools/wasnorm_wordpool_576.txt	LTP317	ltpFR2	7	9	STATUE	1374	n/a	n/a	0	0	0
2016.184	n/a	WORD	1008092	wordpools/wasnorm_wordpool_576.txt	LTP317	ltpFR2	7	9	IDOL	733	n/a	n/a	0	0	0
2018.986	n/a	WORD	1009493	wordpools/wasnorm_wordpool_576.txt	LTP317	ltpFR2	7	9	CASHIER	254	n/a	n/a	0	0	0
2020.594	n/a	START	1010297	n/a	LTP317	ltpFR2	7	n/a	n/a	n/a	14	n/a	n/a	n/a	n/a
2021.55	n/a	DISTRACTOR	1010775	n/a	LTP317	ltpFR2	7	9	n/a	n/a	n/a	n/a	0	0	0
2021.554	n/a	PROB	1010777	n/a	LTP317	ltpFR2	7	n/a	n/a	n/a	14	23	8	9	6
2024.206	n/a	PROB	1012103	n/a	LTP317	ltpFR2	7	n/a	n/a	n/a	14	12	4	2	6
2025.44	n/a	PROB	1012720	n/a	LTP317	ltpFR2	7	n/a	n/a	n/a	14	13	7	3	3
2027.008	n/a	PROB	1013504	n/a	LTP317	ltpFR2	7	n/a	n/a	n/a	14	7	1	1	5
2028.276	n/a	PROB	1014138	n/a	LTP317	ltpFR2	7	n/a	n/a	n/a	14	9	6	2	1
2029.628	n/a	PROB	1014814	n/a	LTP317	ltpFR2	7	n/a	n/a	n/a	14	19	7	6	6
2031.528	n/a	PROB	1015764	n/a	LTP317	ltpFR2	7	n/a	n/a	n/a	14	10	3	5	2
2032.978	n/a	PROB	1016489	n/a	LTP317	ltpFR2	7	n/a	n/a	n/a	14	7	1	4	2
2035.03	n/a	PROB	1017515	n/a	LTP317	ltpFR2	7	n/a	n/a	n/a	14	17	6	7	4
2036.382	n/a	PROB	1018191	n/a	LTP317	ltpFR2	7	n/a	n/a	n/a	14	16	3	9	4
2037.8	n/a	PROB	1018900	n/a	LTP317	ltpFR2	7	n/a	n/a	n/a	14	15	8	3	2
2038.968	n/a	PROB	1019484	n/a	LTP317	ltpFR2	7	n/a	n/a	n/a	14	14	6	4	4
2040.402	n/a	PROB	1020201	n/a	LTP317	ltpFR2	7	n/a	n/a	n/a	14	19	4	9	6
2042.02	n/a	PROB	1021010	n/a	LTP317	ltpFR2	7	n/a	n/a	n/a	14	1	6	1	9
2044.094	n/a	STOP	1022047	n/a	LTP317	ltpFR2	7	n/a	n/a	n/a	14	n/a	n/a	n/a	n/a
2046.49	n/a	REC_START	1023245	n/a	LTP317	ltpFR2	7	9	n/a	n/a	n/a	n/a	0	0	0
2049.28	n/a	REC_WORD	1024640	wordpools/wasnorm_wordpool_576.txt	LTP317	ltpFR2	7	9	PISTON	1076	n/a	n/a	0	0	0
2049.908	n/a	REC_WORD	1024954	wordpools/wasnorm_wordpool_576.txt	LTP317	ltpFR2	7	9	PILOT	1070	n/a	n/a	0	0	0
2053.138	n/a	REC_WORD	1026569	wordpools/wasnorm_wordpool_576.txt	LTP317	ltpFR2	7	9	STREAM	1392	n/a	n/a	0	0	0
2054.088	n/a	REC_WORD	1027044	wordpools/wasnorm_wordpool_576.txt	LTP317	ltpFR2	7	9	CLOUD	328	n/a	n/a	0	0	0
2059.44	n/a	REC_WORD	1029720	wordpools/wasnorm_wordpool_576.txt	LTP317	ltpFR2	7	9	SLIDE	1326	n/a	n/a	0	0	0
2072.258	n/a	REC_WORD	1036129	wordpools/wasnorm_wordpool_576.txt	LTP317	ltpFR2	7	9	ACTOR	5	n/a	n/a	0	0	0
2073.382	n/a	REC_WORD	1036691	wordpools/wasnorm_wordpool_576.txt	LTP317	ltpFR2	7	9	ACTRESS	6	n/a	n/a	0	0	0
2074.264	n/a	REC_WORD	1037132	wordpools/wasnorm_wordpool_576.txt	LTP317	ltpFR2	7	9	STAKE	1368	n/a	n/a	0	0	0
2075.69	n/a	REC_WORD	1037845	wordpools/wasnorm_wordpool_576.txt	LTP317	ltpFR2	7	9	IDOL	733	n/a	n/a	0	0	0
2136.922	n/a	WORD	1068461	wordpools/wasnorm_wordpool_576.txt	LTP317	ltpFR2	7	10	COIN	343	n/a	n/a	0	0	0
2139.576	n/a	WORD	1069788	wordpools/wasnorm_wordpool_576.txt	LTP317	ltpFR2	7	10	CHAMPAGNE	278	n/a	n/a	0	0	0
2142.212	n/a	WORD	1071106	wordpools/wasnorm_wordpool_576.txt	LTP317	ltpFR2	7	10	SODA	1341	n/a	n/a	0	0	0
2144.698	n/a	WORD	1072349	wordpools/wasnorm_wordpool_576.txt	LTP317	ltpFR2	7	10	TOASTER	1472	n/a	n/a	0	0	0
2147.3	n/a	WORD	1073650	wordpools/wasnorm_wordpool_576.txt	LTP317	ltpFR2	7	10	GOBLIN	645	n/a	n/a	0	0	0
2149.82	n/a	WORD	1074910	wordpools/wasnorm_wordpool_576.txt	LTP317	ltpFR2	7	10	BRANCH	168	n/a	n/a	0	0	0
2152.504	n/a	WORD	1076252	wordpools/wasnorm_wordpool_576.txt	LTP317	ltpFR2	7	10	ATOM	55	n/a	n/a	0	0	0
2154.954	n/a	WORD	1077477	wordpools/wasnorm_wordpool_576.txt	LTP317	ltpFR2	7	10	NEUTRON	947	n/a	n/a	0	0	0
2157.392	n/a	WORD	1078696	wordpools/wasnorm_wordpool_576.txt	LTP317	ltpFR2	7	10	MISSILE	900	n/a	n/a	0	0	0
2160.162	n/a	WORD	1080081	wordpools/wasnorm_wordpool_576.txt	LTP317	ltpFR2	7	10	TRUCK	1512	n/a	n/a	0	0	0
2162.83	n/a	WORD	1081415	wordpools/wasnorm_wordpool_576.txt	LTP317	ltpFR2	7	10	TAXI	1438	n/a	n/a	0	0	0
2165.614	n/a	WORD	1082807	wordpools/wasnorm_wordpool_576.txt	LTP317	ltpFR2	7	10	VALVE	1546	n/a	n/a	0	0	0
2168.352	n/a	WORD	1084176	wordpools/wasnorm_wordpool_576.txt	LTP317	ltpFR2	7	10	SHIRT	1287	n/a	n/a	0	0	0
2170.786	n/a	WORD	1085393	wordpools/wasnorm_wordpool_576.txt	LTP317	ltpFR2	7	10	FRAME	600	n/a	n/a	0	0	0
2173.59	n/a	WORD	1086795	wordpools/wasnorm_wordpool_576.txt	LTP317	ltpFR2	7	10	TEACHER	1440	n/a	n/a	0	0	0
2176.14	n/a	WORD	1088070	wordpools/wasnorm_wordpool_576.txt	LTP317	ltpFR2	7	10	OUTFIT	988	n/a	n/a	0	0	0
2178.692	n/a	WORD	1089346	wordpools/wasnorm_wordpool_576.txt	LTP317	ltpFR2	7	10	COSTUME	383	n/a	n/a	0	0	0
2181.362	n/a	WORD	1090681	wordpools/wasnorm_wordpool_576.txt	LTP317	ltpFR2	7	10	STALLION	1369	n/a	n/a	0	0	0
2184.03	n/a	WORD	1092015	wordpools/wasnorm_wordpool_576.txt	LTP317	ltpFR2	7	10	MAPLE	866	n/a	n/a	0	0	0
2186.782	n/a	WORD	1093391	wordpools/wasnorm_wordpool_576.txt	LTP317	ltpFR2	7	10	PORTRAIT	1111	n/a	n/a	0	0	0
2189.402	n/a	WORD	1094701	wordpools/wasnorm_wordpool_576.txt	LTP317	ltpFR2	7	10	OYSTER	995	n/a	n/a	0	0	0
2191.92	n/a	WORD	1095960	wordpools/wasnorm_wordpool_576.txt	LTP317	ltpFR2	7	10	SHRUB	1299	n/a	n/a	0	0	0
2194.406	n/a	WORD	1097203	wordpools/wasnorm_wordpool_576.txt	LTP317	ltpFR2	7	10	KLEENEX	782	n/a	n/a	0	0	0
2197.042	n/a	WORD	1098521	wordpools/wasnorm_wordpool_576.txt	LTP317	ltpFR2	7	10	FIREMAN	569	n/a	n/a	0	0	0
2198.66	n/a	START	1099330	n/a	LTP317	ltpFR2	7	n/a	n/a	n/a	15	n/a	n/a	n/a	n/a
2199.62	n/a	DISTRACTOR	1099810	n/a	LTP317	ltpFR2	7	10	n/a	n/a	n/a	n/a	0	0	0
2199.628	n/a	PROB	1099814	n/a	LTP317	ltpFR2	7	n/a	n/a	n/a	15	24	8	7	9
2202.294	n/a	PROB	1101147	n/a	LTP317	ltpFR2	7	n/a	n/a	n/a	15	6	1	3	2
2203.478	n/a	PROB	1101739	n/a	LTP317	ltpFR2	7	n/a	n/a	n/a	15	14	1	4	9
2205.014	n/a	PROB	1102507	n/a	LTP317	ltpFR2	7	n/a	n/a	n/a	15	15	5	3	7
2207.164	n/a	PROB	1103582	n/a	LTP317	ltpFR2	7	n/a	n/a	n/a	15	13	5	5	3
2208.732	n/a	PROB	1104366	n/a	LTP317	ltpFR2	7	n/a	n/a	n/a	15	14	3	2	9
2210.984	n/a	PROB	1105492	n/a	LTP317	ltpFR2	7	n/a	n/a	n/a	15	14	8	5	1
2213.07	n/a	PROB	1106535	n/a	LTP317	ltpFR2	7	n/a	n/a	n/a	15	21	5	8	8
2218.474	n/a	PROB	1109237	n/a	LTP317	ltpFR2	7	n/a	n/a	n/a	15	16	3	6	7
2220.024	n/a	PROB	1110012	n/a	LTP317	ltpFR2	7	n/a	n/a	n/a	15	12	5	5	2
2222.66	n/a	STOP	1111330	n/a	LTP317	ltpFR2	7	n/a	n/a	n/a	15	n/a	n/a	n/a	n/a
2224.594	n/a	REC_START	1112297	n/a	LTP317	ltpFR2	7	10	n/a	n/a	n/a	n/a	0	0	0
2235.826	n/a	REC_WORD	1117913	wordpools/wasnorm_wordpool_576.txt	LTP317	ltpFR2	7	10	COIN	343	n/a	n/a	0	0	0
2237.016	n/a	REC_WORD	1118508	wordpools/wasnorm_wordpool_576.txt	LTP317	ltpFR2	7	10	CHAMPAGNE	278	n/a	n/a	0	0	0
2239.264	n/a	REC_WORD	1119632	wordpools/wasnorm_wordpool_576.txt	LTP317	ltpFR2	7	10	SODA	1341	n/a	n/a	0	0	0
2241.584	n/a	REC_WORD	1120792	wordpools/wasnorm_wordpool_576.txt	LTP317	ltpFR2	7	10	ATOM	55	n/a	n/a	0	0	0
2242.744	n/a	REC_WORD	1121372	wordpools/wasnorm_wordpool_576.txt	LTP317	ltpFR2	7	10	NEUTRON	947	n/a	n/a	0	0	0
2243.762	n/a	REC_WORD	1121881	wordpools/wasnorm_wordpool_576.txt	LTP317	ltpFR2	7	10	MISSILE	900	n/a	n/a	0	0	0
2315.016	n/a	DISTRACTOR	1157508	n/a	LTP317	ltpFR2	7	11	n/a	n/a	n/a	n/a	0	0	0
2315.018	n/a	START	1157509	n/a	LTP317	ltpFR2	7	n/a	n/a	n/a	16	n/a	n/a	n/a	n/a
2315.032	n/a	PROB	1157516	n/a	LTP317	ltpFR2	7	n/a	n/a	n/a	16	14	9	1	4
2316.632	n/a	PROB	1158316	n/a	LTP317	ltpFR2	7	n/a	n/a	n/a	16	23	9	6	8
2318.816	n/a	PROB	1159408	n/a	LTP317	ltpFR2	7	n/a	n/a	n/a	16	19	2	8	9
2320.168	n/a	PROB	1160084	n/a	LTP317	ltpFR2	7	n/a	n/a	n/a	16	15	2	8	5
2321.736	n/a	PROB	1160868	n/a	LTP317	ltpFR2	7	n/a	n/a	n/a	16	14	7	3	4
2323.072	n/a	PROB	1161536	n/a	LTP317	ltpFR2	7	n/a	n/a	n/a	16	15	7	2	6
2324.556	n/a	PROB	1162278	n/a	LTP317	ltpFR2	7	n/a	n/a	n/a	16	21	8	6	7
2326.542	n/a	PROB	1163271	n/a	LTP317	ltpFR2	7	n/a	n/a	n/a	16	10	3	2	5
2328.076	n/a	PROB	1164038	n/a	LTP317	ltpFR2	7	n/a	n/a	n/a	16	22	4	9	9
2330.01	n/a	PROB	1165005	n/a	LTP317	ltpFR2	7	n/a	n/a	n/a	16	21	8	4	9
2331.878	n/a	PROB	1165939	n/a	LTP317	ltpFR2	7	n/a	n/a	n/a	16	15	1	7	7
2333.312	n/a	PROB	1166656	n/a	LTP317	ltpFR2	7	n/a	n/a	n/a	16	18	6	6	6
2334.782	n/a	PROB	1167391	n/a	LTP317	ltpFR2	7	n/a	n/a	n/a	16	10	1	6	3
2336.784	n/a	PROB	1168392	n/a	LTP317	ltpFR2	7	n/a	n/a	n/a	16	21	8	9	4
2338.514	n/a	STOP	1169257	n/a	LTP317	ltpFR2	7	n/a	n/a	n/a	16	n/a	n/a	n/a	n/a
2339.884	n/a	WORD	1169942	wordpools/wasnorm_wordpool_576.txt	LTP317	ltpFR2	7	11	WRENCH	1625	n/a	n/a	0	0	0
2342.598	n/a	WORD	1171299	wordpools/wasnorm_wordpool_576.txt	LTP317	ltpFR2	7	11	CABIN	211	n/a	n/a	0	0	0
2345.24	n/a	WORD	1172620	wordpools/wasnorm_wordpool_576.txt	LTP317	ltpFR2	7	11	JOURNAL	760	n/a	n/a	0	0	0
2348.004	n/a	WORD	1174002	wordpools/wasnorm_wordpool_576.txt	LTP317	ltpFR2	7	11	CATCHER	258	n/a	n/a	0	0	0
2350.706	n/a	WORD	1175353	wordpools/wasnorm_wordpool_576.txt	LTP317	ltpFR2	7	11	PAIL	1002	n/a	n/a	0	0	0
2353.39	n/a	WORD	1176695	wordpools/wasnorm_wordpool_576.txt	LTP317	ltpFR2	7	11	SWIMMER	1420	n/a	n/a	0	0	0
2355.964	n/a	WORD	1177982	wordpools/wasnorm_wordpool_576.txt	LTP317	ltpFR2	7	11	PASSAGE	1019	n/a	n/a	0	0	0
2358.428	n/a	WORD	1179214	wordpools/wasnorm_wordpool_576.txt	LTP317	ltpFR2	7	11	LABEL	790	n/a	n/a	0	0	0
2360.88	n/a	WORD	1180440	wordpools/wasnorm_wordpool_576.txt	LTP317	ltpFR2	7	11	FOREST	593	n/a	n/a	0	0	0
2363.548	n/a	WORD	1181774	wordpools/wasnorm_wordpool_576.txt	LTP317	ltpFR2	7	11	BUBBLE	183	n/a	n/a	0	0	0
2366.218	n/a	WORD	1183109	wordpools/wasnorm_wordpool_576.txt	LTP317	ltpFR2	7	11	WRIST	1626	n/a	n/a	0	0	0
2368.722	n/a	WORD	1184361	wordpools/wasnorm_wordpool_576.txt	LTP317	ltpFR2	7	11	AUTHOR	61	n/a	n/a	0	0	0
2371.256	n/a	WORD	1185628	wordpools/wasnorm_wordpool_576.txt	LTP317	ltpFR2	7	11	KEEPER	769	n/a	n/a	0	0	0
2373.856	n/a	WORD	1186928	wordpools/wasnorm_wordpool_576.txt	LTP317	ltpFR2	7	11	IGLOO	734	n/a	n/a	0	0	0
2376.478	n/a	WORD	1188239	wordpools/wasnorm_wordpool_576.txt	LTP317	ltpFR2	7	11	ATLAS	53	n/a	n/a	0	0	0
2379.146	n/a	WORD	1189573	wordpools/wasnorm_wordpool_576.txt	LTP317	ltpFR2	7	11	TUBA	1515	n/a	n/a	0	0	0
2381.566	n/a	WORD	1190783	wordpools/wasnorm_wordpool_576.txt	LTP317	ltpFR2	7	11	TWIG	1527	n/a	n/a	0	0	0
2384.034	n/a	WORD	1192017	wordpools/wasnorm_wordpool_576.txt	LTP317	ltpFR2	7	11	BACKBONE	66	n/a	n/a	0	0	0
2386.486	n/a	WORD	1193243	wordpools/wasnorm_wordpool_576.txt	LTP317	ltpFR2	7	11	MARROW	872	n/a	n/a	0	0	0
2389.006	n/a	WORD	1194503	wordpools/wasnorm_wordpool_576.txt	LTP317	ltpFR2	7	11	TEMPLE	1448	n/a	n/a	0	0	0
2391.574	n/a	WORD	1195787	wordpools/wasnorm_wordpool_576.txt	LTP317	ltpFR2	7	11	GHETTO	633	n/a	n/a	0	0	0
2394.244	n/a	WORD	1197122	wordpools/wasnorm_wordpool_576.txt	LTP317	ltpFR2	7	11	BLUEPRINT	142	n/a	n/a	0	0	0
2396.942	n/a	WORD	1198471	wordpools/wasnorm_wordpool_576.txt	LTP317	ltpFR2	7	11	KETCHUP	771	n/a	n/a	0	0	0
2399.496	n/a	WORD	1199748	wordpools/wasnorm_wordpool_576.txt	LTP317	ltpFR2	7	11	EXPERT	543	n/a	n/a	0	0	0
2401.1	n/a	START	1200550	n/a	LTP317	ltpFR2	7	n/a	n/a	n/a	17	n/a	n/a	n/a	n/a
2401.97	n/a	DISTRACTOR	1200985	n/a	LTP317	ltpFR2	7	11	n/a	n/a	n/a	n/a	0	0	0
2401.982	n/a	PROB	1200991	n/a	LTP317	ltpFR2	7	n/a	n/a	n/a	17	17	8	5	4
2405.236	n/a	PROB	1202618	n/a	LTP317	ltpFR2	7	n/a	n/a	n/a	17	15	4	9	2
2406.77	n/a	PROB	1203385	n/a	LTP317	ltpFR2	7	n/a	n/a	n/a	17	1	6	7	2
2408.106	n/a	PROB	1204053	n/a	LTP317	ltpFR2	7	n/a	n/a	n/a	17	9	2	5	2
2410.906	n/a	PROB	1205453	n/a	LTP317	ltpFR2	7	n/a	n/a	n/a	17	21	7	8	6
2412.424	n/a	PROB	1206212	n/a	LTP317	ltpFR2	7	n/a	n/a	n/a	17	7	2	1	4
2413.96	n/a	PROB	1206980	n/a	LTP317	ltpFR2	7	n/a	n/a	n/a	17	24	8	8	8
2417.246	n/a	PROB	1208623	n/a	LTP317	ltpFR2	7	n/a	n/a	n/a	17	14	4	7	3
2419.08	n/a	PROB	1209540	n/a	LTP317	ltpFR2	7	n/a	n/a	n/a	17	16	6	9	1
2420.698	n/a	PROB	1210349	n/a	LTP317	ltpFR2	7	n/a	n/a	n/a	17	11	5	1	5
2421.93	n/a	PROB	1210965	n/a	LTP317	ltpFR2	7	n/a	n/a	n/a	17	23	9	7	7
2424.22	n/a	STOP	1212110	n/a	LTP317	ltpFR2	7	n/a	n/a	n/a	17	n/a	n/a	n/a	n/a
2427.04	n/a	REC_START	1213520	n/a	LTP317	ltpFR2	7	11	n/a	n/a	n/a	n/a	0	0	0
2459.248	n/a	REC_WORD	1229624	wordpools/wasnorm_wordpool_576.txt	LTP317	ltpFR2	7	11	PASSAGE	1019	n/a	n/a	0	0	0
2517.458	n/a	DISTRACTOR	1258729	n/a	LTP317	ltpFR2	7	12	n/a	n/a	n/a	n/a	0	0	0
2517.458	n/a	START	1258729	n/a	LTP317	ltpFR2	7	n/a	n/a	n/a	18	n/a	n/a	n/a	n/a
2517.472	n/a	PROB	1258736	n/a	LTP317	ltpFR2	7	n/a	n/a	n/a	18	13	3	4	6
2519.192	n/a	PROB	1259596	n/a	LTP317	ltpFR2	7	n/a	n/a	n/a	18	15	7	7	1
2520.242	n/a	PROB	1260121	n/a	LTP317	ltpFR2	7	n/a	n/a	n/a	18	15	9	2	4
2523.18	n/a	PROB	1261590	n/a	LTP317	ltpFR2	7	n/a	n/a	n/a	18	21	4	8	9
2524.68	n/a	PROB	1262340	n/a	LTP317	ltpFR2	7	n/a	n/a	n/a	18	12	1	5	6
2525.898	n/a	PROB	1262949	n/a	LTP317	ltpFR2	7	n/a	n/a	n/a	18	22	6	7	9
2527.932	n/a	PROB	1263966	n/a	LTP317	ltpFR2	7	n/a	n/a	n/a	18	14	1	5	8
2529.248	n/a	PROB	1264624	n/a	LTP317	ltpFR2	7	n/a	n/a	n/a	18	13	2	3	8
2530.75	n/a	PROB	1265375	n/a	LTP317	ltpFR2	7	n/a	n/a	n/a	18	14	3	3	8
2532.384	n/a	PROB	1266192	n/a	LTP317	ltpFR2	7	n/a	n/a	n/a	18	14	5	3	6
2534.602	n/a	PROB	1267301	n/a	LTP317	ltpFR2	7	n/a	n/a	n/a	18	11	2	3	6
2536.104	n/a	PROB	1268052	n/a	LTP317	ltpFR2	7	n/a	n/a	n/a	18	11	4	3	4
2538.106	n/a	PROB	1269053	n/a	LTP317	ltpFR2	7	n/a	n/a	n/a	18	16	5	5	6
2539.256	n/a	PROB	1269628	n/a	LTP317	ltpFR2	7	n/a	n/a	n/a	18	12	4	5	3
2540.876	n/a	STOP	1270438	n/a	LTP317	ltpFR2	7	n/a	n/a	n/a	18	n/a	n/a	n/a	n/a
2542.66	n/a	WORD	1271330	wordpools/wasnorm_wordpool_576.txt	LTP317	ltpFR2	7	12	CYCLONE	431	n/a	n/a	0	0	0
2545.302	n/a	WORD	1272651	wordpools/wasnorm_wordpool_576.txt	LTP317	ltpFR2	7	12	TWISTER	1530	n/a	n/a	0	0	0
2547.888	n/a	WORD	1273944	wordpools/wasnorm_wordpool_576.txt	LTP317	ltpFR2	7	12	JELLY	755	n/a	n/a	0	0	0
2550.674	n/a	WORD	1275337	wordpools/wasnorm_wordpool_576.txt	LTP317	ltpFR2	7	12	OFFICE	972	n/a	n/a	0	0	0
2553.22	n/a	WORD	1276610	wordpools/wasnorm_wordpool_576.txt	LTP317	ltpFR2	7	12	SHERIFF	1284	n/a	n/a	0	0	0
2555.844	n/a	WORD	1277922	wordpools/wasnorm_wordpool_576.txt	LTP317	ltpFR2	7	12	QUARTER	1148	n/a	n/a	0	0	0
2558.482	n/a	WORD	1279241	wordpools/wasnorm_wordpool_576.txt	LTP317	ltpFR2	7	12	KITCHEN	778	n/a	n/a	0	0	0
2561.042	n/a	WORD	1280521	wordpools/wasnorm_wordpool_576.txt	LTP317	ltpFR2	7	12	PISTOL	1075	n/a	n/a	0	0	0
2563.52	n/a	WORD	1281760	wordpools/wasnorm_wordpool_576.txt	LTP317	ltpFR2	7	12	WAITER	1580	n/a	n/a	0	0	0
2566.288	n/a	WORD	1283144	wordpools/wasnorm_wordpool_576.txt	LTP317	ltpFR2	7	12	SPONGE	1355	n/a	n/a	0	0	0
2568.872	n/a	WORD	1284436	wordpools/wasnorm_wordpool_576.txt	LTP317	ltpFR2	7	12	SHELF	1280	n/a	n/a	0	0	0
2571.65	n/a	WORD	1285825	wordpools/wasnorm_wordpool_576.txt	LTP317	ltpFR2	7	12	CLAMP	316	n/a	n/a	0	0	0
2574.196	n/a	WORD	1287098	wordpools/wasnorm_wordpool_576.txt	LTP317	ltpFR2	7	12	GAVEL	627	n/a	n/a	0	0	0
2576.928	n/a	WORD	1288464	wordpools/wasnorm_wordpool_576.txt	LTP317	ltpFR2	7	12	CUPBOARD	425	n/a	n/a	0	0	0
2579.706	n/a	WORD	1289853	wordpools/wasnorm_wordpool_576.txt	LTP317	ltpFR2	7	12	HOSTESS	723	n/a	n/a	0	0	0
2582.234	n/a	WORD	1291117	wordpools/wasnorm_wordpool_576.txt	LTP317	ltpFR2	7	12	FOOT	590	n/a	n/a	0	0	0
2584.91	n/a	WORD	1292455	wordpools/wasnorm_wordpool_576.txt	LTP317	ltpFR2	7	12	KIDNEY	776	n/a	n/a	0	0	0
2587.556	n/a	WORD	1293778	wordpools/wasnorm_wordpool_576.txt	LTP317	ltpFR2	7	12	SNACK	1331	n/a	n/a	0	0	0
2590.024	n/a	WORD	1295012	wordpools/wasnorm_wordpool_576.txt	LTP317	ltpFR2	7	12	VELVET	1555	n/a	n/a	0	0	0
2592.7	n/a	WORD	1296350	wordpools/wasnorm_wordpool_576.txt	LTP317	ltpFR2	7	12	FLESH	579	n/a	n/a	0	0	0
2595.334	n/a	WORD	1297667	wordpools/wasnorm_wordpool_576.txt	LTP317	ltpFR2	7	12	MISTER	901	n/a	n/a	0	0	0
2597.914	n/a	WORD	1298957	wordpools/wasnorm_wordpool_576.txt	LTP317	ltpFR2	7	12	FEMALE	559	n/a	n/a	0	0	0
2600.584	n/a	WORD	1300292	wordpools/wasnorm_wordpool_576.txt	LTP317	ltpFR2	7	12	PLUTO	1092	n/a	n/a	0	0	0
2603.286	n/a	WORD	1301643	wordpools/wasnorm_wordpool_576.txt	LTP317	ltpFR2	7	12	SWITCH	1422	n/a	n/a	0	0	0
2604.892	n/a	START	1302446	n/a	LTP317	ltpFR2	7	n/a	n/a	n/a	19	n/a	n/a	n/a	n/a
2605.9	n/a	DISTRACTOR	1302950	n/a	LTP317	ltpFR2	7	12	n/a	n/a	n/a	n/a	0	0	0
2605.91	n/a	PROB	1302955	n/a	LTP317	ltpFR2	7	n/a	n/a	n/a	19	14	4	2	8
2607.81	n/a	PROB	1303905	n/a	LTP317	ltpFR2	7	n/a	n/a	n/a	19	22	7	9	6
2611.198	n/a	PROB	1305599	n/a	LTP317	ltpFR2	7	n/a	n/a	n/a	19	13	7	1	5
2613.314	n/a	PROB	1306657	n/a	LTP317	ltpFR2	7	n/a	n/a	n/a	19	18	4	6	8
2614.582	n/a	PROB	1307291	n/a	LTP317	ltpFR2	7	n/a	n/a	n/a	19	18	8	3	7
2615.884	n/a	PROB	1307942	n/a	LTP317	ltpFR2	7	n/a	n/a	n/a	19	14	8	5	1
2617.902	n/a	PROB	1308951	n/a	LTP317	ltpFR2	7	n/a	n/a	n/a	19	15	1	5	9
2619.15	n/a	PROB	1309575	n/a	LTP317	ltpFR2	7	n/a	n/a	n/a	19	10	3	3	4
2620.67	n/a	PROB	1310335	n/a	LTP317	ltpFR2	7	n/a	n/a	n/a	19	18	8	2	8
2622.138	n/a	PROB	1311069	n/a	LTP317	ltpFR2	7	n/a	n/a	n/a	19	20	4	9	7
2624.404	n/a	PROB	1312202	n/a	LTP317	ltpFR2	7	n/a	n/a	n/a	19	16	8	6	2
2626.122	n/a	PROB	1313061	n/a	LTP317	ltpFR2	7	n/a	n/a	n/a	19	17	5	7	5
2627.75	n/a	STOP	1313875	n/a	LTP317	ltpFR2	7	n/a	n/a	n/a	19	n/a	n/a	n/a	n/a
2630.842	n/a	REC_START	1315421	n/a	LTP317	ltpFR2	7	12	n/a	n/a	n/a	n/a	0	0	0
2631.78	n/a	REC_WORD	1315890	wordpools/wasnorm_wordpool_576.txt	LTP317	ltpFR2	7	12	CYCLONE	431	n/a	n/a	0	0	0
2632.698	n/a	REC_WORD	1316349	wordpools/wasnorm_wordpool_576.txt	LTP317	ltpFR2	7	12	TWISTER	1530	n/a	n/a	0	0	0
2633.406	n/a	REC_WORD	1316703	wordpools/wasnorm_wordpool_576.txt	LTP317	ltpFR2	7	12	JELLY	755	n/a	n/a	0	0	0
2633.86	n/a	REC_WORD	1316930	wordpools/wasnorm_wordpool_576.txt	LTP317	ltpFR2	7	12	OFFICE	972	n/a	n/a	0	0	0
2634.86	n/a	REC_WORD_VV	1317430	wordpools/wasnorm_wordpool_576.txt	LTP317	ltpFR2	7	12	<>	-1	n/a	n/a	0	0	0
2637.64	n/a	REC_WORD	1318820	wordpools/wasnorm_wordpool_576.txt	LTP317	ltpFR2	7	12	FOOT	590	n/a	n/a	0	0	0
2638.054	n/a	REC_WORD	1319027	wordpools/wasnorm_wordpool_576.txt	LTP317	ltpFR2	7	12	MISTER	901	n/a	n/a	0	0	0
2639.342	n/a	REC_WORD	1319671	wordpools/wasnorm_wordpool_576.txt	LTP317	ltpFR2	7	12	KIDNEY	776	n/a	n/a	0	0	0
2721.27	n/a	DISTRACTOR	1360635	n/a	LTP317	ltpFR2	7	13	n/a	n/a	n/a	n/a	0	0	0
2721.27	n/a	START	1360635	n/a	LTP317	ltpFR2	7	n/a	n/a	n/a	20	n/a	n/a	n/a	n/a
2721.282	n/a	PROB	1360641	n/a	LTP317	ltpFR2	7	n/a	n/a	n/a	20	18	9	2	7
2723.466	n/a	PROB	1361733	n/a	LTP317	ltpFR2	7	n/a	n/a	n/a	20	18	7	4	7
2725.068	n/a	PROB	1362534	n/a	LTP317	ltpFR2	7	n/a	n/a	n/a	20	14	3	2	9
2726.57	n/a	PROB	1363285	n/a	LTP317	ltpFR2	7	n/a	n/a	n/a	20	11	2	8	1
2728.488	n/a	PROB	1364244	n/a	LTP317	ltpFR2	7	n/a	n/a	n/a	20	13	3	7	3
2730.172	n/a	PROB	1365086	n/a	LTP317	ltpFR2	7	n/a	n/a	n/a	20	21	7	9	5
2733.058	n/a	PROB	1366529	n/a	LTP317	ltpFR2	7	n/a	n/a	n/a	20	20	9	6	5
2735.226	n/a	PROB	1367613	n/a	LTP317	ltpFR2	7	n/a	n/a	n/a	20	16	4	7	5
2736.794	n/a	PROB	1368397	n/a	LTP317	ltpFR2	7	n/a	n/a	n/a	20	22	5	9	8
2739.546	n/a	PROB	1369773	n/a	LTP317	ltpFR2	7	n/a	n/a	n/a	20	22	6	7	9
2742.216	n/a	PROB	1371108	n/a	LTP317	ltpFR2	7	n/a	n/a	n/a	20	26	9	9	8
2744.106	n/a	STOP	1372053	n/a	LTP317	ltpFR2	7	n/a	n/a	n/a	20	n/a	n/a	n/a	n/a
2746.376	n/a	WORD	1373188	wordpools/wasnorm_wordpool_576.txt	LTP317	ltpFR2	7	13	STICKER	1382	n/a	n/a	0	0	0
2749.138	n/a	WORD	1374569	wordpools/wasnorm_wordpool_576.txt	LTP317	ltpFR2	7	13	GARDEN	623	n/a	n/a	0	0	0
2751.696	n/a	WORD	1375848	wordpools/wasnorm_wordpool_576.txt	LTP317	ltpFR2	7	13	FRIAR	605	n/a	n/a	0	0	0
2754.458	n/a	WORD	1377229	wordpools/wasnorm_wordpool_576.txt	LTP317	ltpFR2	7	13	MONEY	908	n/a	n/a	0	0	0
2757.16	n/a	WORD	1378580	wordpools/wasnorm_wordpool_576.txt	LTP317	ltpFR2	7	13	HANDBAG	684	n/a	n/a	0	0	0
2759.696	n/a	WORD	1379848	wordpools/wasnorm_wordpool_576.txt	LTP317	ltpFR2	7	13	ANKLE	24	n/a	n/a	0	0	0
2762.286	n/a	WORD	1381143	wordpools/wasnorm_wordpool_576.txt	LTP317	ltpFR2	7	13	WITNESS	1618	n/a	n/a	0	0	0
2764.838	n/a	WORD	1382419	wordpools/wasnorm_wordpool_576.txt	LTP317	ltpFR2	7	13	TRACTOR	1493	n/a	n/a	0	0	0
2767.502	n/a	WORD	1383751	wordpools/wasnorm_wordpool_576.txt	LTP317	ltpFR2	7	13	CRUTCH	417	n/a	n/a	0	0	0
2770.112	n/a	WORD	1385056	wordpools/wasnorm_wordpool_576.txt	LTP317	ltpFR2	7	13	ARM	38	n/a	n/a	0	0	0
2772.822	n/a	WORD	1386411	wordpools/wasnorm_wordpool_576.txt	LTP317	ltpFR2	7	13	CITRUS	313	n/a	n/a	0	0	0
2775.45	n/a	WORD	1387725	wordpools/wasnorm_wordpool_576.txt	LTP317	ltpFR2	7	13	APPLE	33	n/a	n/a	0	0	0
2778.184	n/a	WORD	1389092	wordpools/wasnorm_wordpool_576.txt	LTP317	ltpFR2	7	13	UNCLE	1536	n/a	n/a	0	0	0
2780.98	n/a	WORD	1390490	wordpools/wasnorm_wordpool_576.txt	LTP317	ltpFR2	7	13	CURTAIN	427	n/a	n/a	0	0	0
2783.772	n/a	WORD	1391886	wordpools/wasnorm_wordpool_576.txt	LTP317	ltpFR2	7	13	RELISH	1183	n/a	n/a	0	0	0
2786.492	n/a	WORD	1393246	wordpools/wasnorm_wordpool_576.txt	LTP317	ltpFR2	7	13	SANDWICH	1232	n/a	n/a	0	0	0
2789.004	n/a	WORD	1394502	wordpools/wasnorm_wordpool_576.txt	LTP317	ltpFR2	7	13	SLUG	1329	n/a	n/a	0	0	0
2791.604	n/a	WORD	1395802	wordpools/wasnorm_wordpool_576.txt	LTP317	ltpFR2	7	13	SHELTER	1282	n/a	n/a	0	0	0
2794.316	n/a	WORD	1397158	wordpools/wasnorm_wordpool_576.txt	LTP317	ltpFR2	7	13	FILM	565	n/a	n/a	0	0	0
2797.018	n/a	WORD	1398509	wordpools/wasnorm_wordpool_576.txt	LTP317	ltpFR2	7	13	COD	340	n/a	n/a	0	0	0
2799.818	n/a	WORD	1399909	wordpools/wasnorm_wordpool_576.txt	LTP317	ltpFR2	7	13	BEAST	108	n/a	n/a	0	0	0
2802.354	n/a	WORD	1401177	wordpools/wasnorm_wordpool_576.txt	LTP317	ltpFR2	7	13	TREAT	1501	n/a	n/a	0	0	0
2804.896	n/a	WORD	1402448	wordpools/wasnorm_wordpool_576.txt	LTP317	ltpFR2	7	13	BELLY	119	n/a	n/a	0	0	0
2807.644	n/a	WORD	1403822	wordpools/wasnorm_wordpool_576.txt	LTP317	ltpFR2	7	13	JURY	766	n/a	n/a	0	0	0
2809.252	n/a	START	1404626	n/a	LTP317	ltpFR2	7	n/a	n/a	n/a	21	n/a	n/a	n/a	n/a
2810.078	n/a	DISTRACTOR	1405039	n/a	LTP317	ltpFR2	7	13	n/a	n/a	n/a	n/a	0	0	0
2810.086	n/a	PROB	1405043	n/a	LTP317	ltpFR2	7	n/a	n/a	n/a	21	18	5	9	4
2812.986	n/a	PROB	1406493	n/a	LTP317	ltpFR2	7	n/a	n/a	n/a	21	12	3	6	3
2815.388	n/a	PROB	1407694	n/a	LTP317	ltpFR2	7	n/a	n/a	n/a	21	12	1	7	4
2817.456	n/a	PROB	1408728	n/a	LTP317	ltpFR2	7	n/a	n/a	n/a	21	18	7	6	5
2819.208	n/a	PROB	1409604	n/a	LTP317	ltpFR2	7	n/a	n/a	n/a	21	13	3	8	2
2821.808	n/a	PROB	1410904	n/a	LTP317	ltpFR2	7	n/a	n/a	n/a	21	14	1	6	7
2823.344	n/a	PROB	1411672	n/a	LTP317	ltpFR2	7	n/a	n/a	n/a	21	16	6	7	3
2824.812	n/a	PROB	1412406	n/a	LTP317	ltpFR2	7	n/a	n/a	n/a	21	11	2	4	5
2826.314	n/a	PROB	1413157	n/a	LTP317	ltpFR2	7	n/a	n/a	n/a	21	10	2	3	5
2828.216	n/a	PROB	1414108	n/a	LTP317	ltpFR2	7	n/a	n/a	n/a	21	10	3	4	3
2830.068	n/a	PROB	1415034	n/a	LTP317	ltpFR2	7	n/a	n/a	n/a	21	11	3	1	7
2832.474	n/a	STOP	1416237	n/a	LTP317	ltpFR2	7	n/a	n/a	n/a	21	n/a	n/a	n/a	n/a
2835.104	n/a	REC_START	1417552	n/a	LTP317	ltpFR2	7	13	n/a	n/a	n/a	n/a	0	0	0
2838.05	n/a	REC_WORD	1419025	wordpools/wasnorm_wordpool_576.txt	LTP317	ltpFR2	7	13	CRUTCH	417	n/a	n/a	0	0	0
2839.02	n/a	REC_WORD	1419510	wordpools/wasnorm_wordpool_576.txt	LTP317	ltpFR2	7	13	ARM	38	n/a	n/a	0	0	0
2839.962	n/a	REC_WORD	1419981	wordpools/wasnorm_wordpool_576.txt	LTP317	ltpFR2	7	13	CITRUS	313	n/a	n/a	0	0	0
2841.18	n/a	REC_WORD	1420590	wordpools/wasnorm_wordpool_576.txt	LTP317	ltpFR2	7	13	APPLE	33	n/a	n/a	0	0	0
2842.668	n/a	REC_WORD	1421334	wordpools/wasnorm_wordpool_576.txt	LTP317	ltpFR2	7	13	FRIAR	605	n/a	n/a	0	0	0
2843.804	n/a	REC_WORD	1421902	wordpools/wasnorm_wordpool_576.txt	LTP317	ltpFR2	7	13	MONARCH	906	n/a	n/a	0	0	0
2844.962	n/a	REC_WORD	1422481	wordpools/wasnorm_wordpool_576.txt	LTP317	ltpFR2	7	13	ANKLE	24	n/a	n/a	0	0	0
2925.56	n/a	DISTRACTOR	1462780	n/a	LTP317	ltpFR2	7	14	n/a	n/a	n/a	n/a	0	0	0
2925.56	n/a	START	1462780	n/a	LTP317	ltpFR2	7	n/a	n/a	n/a	22	n/a	n/a	n/a	n/a
2925.574	n/a	PROB	1462787	n/a	LTP317	ltpFR2	7	n/a	n/a	n/a	22	11	4	5	2
2927.56	n/a	PROB	1463780	n/a	LTP317	ltpFR2	7	n/a	n/a	n/a	22	8	5	1	2
2929.294	n/a	PROB	1464647	n/a	LTP317	ltpFR2	7	n/a	n/a	n/a	22	21	9	3	9
2931.062	n/a	PROB	1465531	n/a	LTP317	ltpFR2	7	n/a	n/a	n/a	22	13	7	5	1
2934.896	n/a	PROB	1467448	n/a	LTP317	ltpFR2	7	n/a	n/a	n/a	22	19	7	5	7
2937.0	n/a	PROB	1468500	n/a	LTP317	ltpFR2	7	n/a	n/a	n/a	22	13	3	1	9
2939.0	n/a	PROB	1469500	n/a	LTP317	ltpFR2	7	n/a	n/a	n/a	22	17	4	5	8
2940.802	n/a	PROB	1470401	n/a	LTP317	ltpFR2	7	n/a	n/a	n/a	22	16	1	8	7
2942.338	n/a	PROB	1471169	n/a	LTP317	ltpFR2	7	n/a	n/a	n/a	22	15	5	1	9
2943.738	n/a	PROB	1471869	n/a	LTP317	ltpFR2	7	n/a	n/a	n/a	22	23	9	6	8
2946.156	n/a	PROB	1473078	n/a	LTP317	ltpFR2	7	n/a	n/a	n/a	22	23	8	7	8
2949.188	n/a	STOP	1474594	n/a	LTP317	ltpFR2	7	n/a	n/a	n/a	22	n/a	n/a	n/a	n/a
2950.564	n/a	WORD	1475282	wordpools/wasnorm_wordpool_576.txt	LTP317	ltpFR2	7	14	BANKER	84	n/a	n/a	0	0	0
2953.18	n/a	WORD	1476590	wordpools/wasnorm_wordpool_576.txt	LTP317	ltpFR2	7	14	BUCKET	184	n/a	n/a	0	0	0
2955.814	n/a	WORD	1477907	wordpools/wasnorm_wordpool_576.txt	LTP317	ltpFR2	7	14	SWAMP	1416	n/a	n/a	0	0	0
2958.534	n/a	WORD	1479267	wordpools/wasnorm_wordpool_576.txt	LTP317	ltpFR2	7	14	ORCHID	982	n/a	n/a	0	0	0
2961.154	n/a	WORD	1480577	wordpools/wasnorm_wordpool_576.txt	LTP317	ltpFR2	7	14	SCISSORS	1250	n/a	n/a	0	0	0
2963.788	n/a	WORD	1481894	wordpools/wasnorm_wordpool_576.txt	LTP317	ltpFR2	7	14	DUSTPAN	509	n/a	n/a	0	0	0
2966.494	n/a	WORD	1483247	wordpools/wasnorm_wordpool_576.txt	LTP317	ltpFR2	7	14	FLUTE	585	n/a	n/a	0	0	0
2968.942	n/a	WORD	1484471	wordpools/wasnorm_wordpool_576.txt	LTP317	ltpFR2	7	14	HARP	689	n/a	n/a	0	0	0
2971.56	n/a	WORD	1485780	wordpools/wasnorm_wordpool_576.txt	LTP317	ltpFR2	7	14	PLIERS	1089	n/a	n/a	0	0	0
2974.068	n/a	WORD	1487034	wordpools/wasnorm_wordpool_576.txt	LTP317	ltpFR2	7	14	HIKER	708	n/a	n/a	0	0	0
2976.768	n/a	WORD	1488384	wordpools/wasnorm_wordpool_576.txt	LTP317	ltpFR2	7	14	TROUT	1511	n/a	n/a	0	0	0
2979.35	n/a	WORD	1489675	wordpools/wasnorm_wordpool_576.txt	LTP317	ltpFR2	7	14	ONION	977	n/a	n/a	0	0	0
2981.934	n/a	WORD	1490967	wordpools/wasnorm_wordpool_576.txt	LTP317	ltpFR2	7	14	OINTMENT	974	n/a	n/a	0	0	0
2984.542	n/a	WORD	1492271	wordpools/wasnorm_wordpool_576.txt	LTP317	ltpFR2	7	14	LILY	821	n/a	n/a	0	0	0
2987.124	n/a	WORD	1493562	wordpools/wasnorm_wordpool_576.txt	LTP317	ltpFR2	7	14	PIGEON	1065	n/a	n/a	0	0	0
2989.862	n/a	WORD	1494931	wordpools/wasnorm_wordpool_576.txt	LTP317	ltpFR2	7	14	ROOSTER	1209	n/a	n/a	0	0	0
2992.31	n/a	WORD	1496155	wordpools/wasnorm_wordpool_576.txt	LTP317	ltpFR2	7	14	TURNIP	1521	n/a	n/a	0	0	0
2994.944	n/a	WORD	1497472	wordpools/wasnorm_wordpool_576.txt	LTP317	ltpFR2	7	14	BABY	64	n/a	n/a	0	0	0
2997.538	n/a	WORD	1498769	wordpools/wasnorm_wordpool_576.txt	LTP317	ltpFR2	7	14	POLICE	1098	n/a	n/a	0	0	0
3000.2	n/a	WORD	1500100	wordpools/wasnorm_wordpool_576.txt	LTP317	ltpFR2	7	14	QUAIL	1147	n/a	n/a	0	0	0
3003.002	n/a	WORD	1501501	wordpools/wasnorm_wordpool_576.txt	LTP317	ltpFR2	7	14	COWBOY	395	n/a	n/a	0	0	0
3005.82	n/a	WORD	1502910	wordpools/wasnorm_wordpool_576.txt	LTP317	ltpFR2	7	14	HATCHET	691	n/a	n/a	0	0	0
3008.24	n/a	WORD	1504120	wordpools/wasnorm_wordpool_576.txt	LTP317	ltpFR2	7	14	MEDAL	885	n/a	n/a	0	0	0
3011.026	n/a	WORD	1505513	wordpools/wasnorm_wordpool_576.txt	LTP317	ltpFR2	7	14	PANTHER	1009	n/a	n/a	0	0	0
3012.634	n/a	START	1506317	n/a	LTP317	ltpFR2	7	n/a	n/a	n/a	23	n/a	n/a	n/a	n/a
3013.562	n/a	DISTRACTOR	1506781	n/a	LTP317	ltpFR2	7	14	n/a	n/a	n/a	n/a	0	0	0
3013.568	n/a	PROB	1506784	n/a	LTP317	ltpFR2	7	n/a	n/a	n/a	23	12	6	3	3
3016.03	n/a	PROB	1508015	n/a	LTP317	ltpFR2	7	n/a	n/a	n/a	23	23	7	8	8
3018.98	n/a	PROB	1509490	n/a	LTP317	ltpFR2	7	n/a	n/a	n/a	23	18	9	6	3
3020.948	n/a	PROB	1510474	n/a	LTP317	ltpFR2	7	n/a	n/a	n/a	23	22	9	8	5
3023.6	n/a	PROB	1511800	n/a	LTP317	ltpFR2	7	n/a	n/a	n/a	23	100	5	1	4
3025.784	n/a	PROB	1512892	n/a	LTP317	ltpFR2	7	n/a	n/a	n/a	23	19	8	8	3
3027.22	n/a	PROB	1513610	n/a	LTP317	ltpFR2	7	n/a	n/a	n/a	23	19	4	8	7
3028.804	n/a	PROB	1514402	n/a	LTP317	ltpFR2	7	n/a	n/a	n/a	23	21	4	8	9
3031.006	n/a	PROB	1515503	n/a	LTP317	ltpFR2	7	n/a	n/a	n/a	23	19	4	9	6
3032.906	n/a	PROB	1516453	n/a	LTP317	ltpFR2	7	n/a	n/a	n/a	23	14	1	8	5
3036.006	n/a	STOP	1518003	n/a	LTP317	ltpFR2	7	n/a	n/a	n/a	23	n/a	n/a	n/a	n/a
3038.482	n/a	REC_START	1519241	n/a	LTP317	ltpFR2	7	14	n/a	n/a	n/a	n/a	0	0	0
3039.916	n/a	REC_WORD	1519958	wordpools/wasnorm_wordpool_576.txt	LTP317	ltpFR2	7	14	PIGEON	1065	n/a	n/a	0	0	0
3040.582	n/a	REC_WORD	1520291	wordpools/wasnorm_wordpool_576.txt	LTP317	ltpFR2	7	14	ROOSTER	1209	n/a	n/a	0	0	0
3041.28	n/a	REC_WORD	1520640	wordpools/wasnorm_wordpool_576.txt	LTP317	ltpFR2	7	14	TURNIP	1521	n/a	n/a	0	0	0
3042.268	n/a	REC_WORD	1521134	wordpools/wasnorm_wordpool_576.txt	LTP317	ltpFR2	7	14	BABY	64	n/a	n/a	0	0	0
3043.134	n/a	REC_WORD	1521567	wordpools/wasnorm_wordpool_576.txt	LTP317	ltpFR2	7	14	HATCHET	691	n/a	n/a	0	0	0
3043.92	n/a	REC_WORD	1521960	wordpools/wasnorm_wordpool_576.txt	LTP317	ltpFR2	7	14	COWBOY	395	n/a	n/a	0	0	0
3049.448	n/a	REC_WORD	1524724	wordpools/wasnorm_wordpool_576.txt	LTP317	ltpFR2	7	14	BANKER	84	n/a	n/a	0	0	0
3128.932	n/a	WORD	1564466	wordpools/wasnorm_wordpool_576.txt	LTP317	ltpFR2	7	15	MEAT	883	n/a	n/a	0	0	0
3131.734	n/a	WORD	1565867	wordpools/wasnorm_wordpool_576.txt	LTP317	ltpFR2	7	15	SHARK	1275	n/a	n/a	0	0	0
3134.32	n/a	WORD	1567160	wordpools/wasnorm_wordpool_576.txt	LTP317	ltpFR2	7	15	SHORTS	1293	n/a	n/a	0	0	0
3136.772	n/a	WORD	1568386	wordpools/wasnorm_wordpool_576.txt	LTP317	ltpFR2	7	15	DRESS	495	n/a	n/a	0	0	0
3139.206	n/a	WORD	1569603	wordpools/wasnorm_wordpool_576.txt	LTP317	ltpFR2	7	15	GRILL	661	n/a	n/a	0	0	0
3141.892	n/a	WORD	1570946	wordpools/wasnorm_wordpool_576.txt	LTP317	ltpFR2	7	15	CHEST	295	n/a	n/a	0	0	0
3144.612	n/a	WORD	1572306	wordpools/wasnorm_wordpool_576.txt	LTP317	ltpFR2	7	15	WASHER	1592	n/a	n/a	0	0	0
3147.364	n/a	WORD	1573682	wordpools/wasnorm_wordpool_576.txt	LTP317	ltpFR2	7	15	APRON	35	n/a	n/a	0	0	0
3149.816	n/a	WORD	1574908	wordpools/wasnorm_wordpool_576.txt	LTP317	ltpFR2	7	15	OZONE	996	n/a	n/a	0	0	0
3152.634	n/a	WORD	1576317	wordpools/wasnorm_wordpool_576.txt	LTP317	ltpFR2	7	15	SUNRISE	1407	n/a	n/a	0	0	0
3155.072	n/a	WORD	1577536	wordpools/wasnorm_wordpool_576.txt	LTP317	ltpFR2	7	15	CASKET	255	n/a	n/a	0	0	0
3157.572	n/a	WORD	1578786	wordpools/wasnorm_wordpool_576.txt	LTP317	ltpFR2	7	15	POSSUM	1112	n/a	n/a	0	0	0
3160.024	n/a	WORD	1580012	wordpools/wasnorm_wordpool_576.txt	LTP317	ltpFR2	7	15	LASER	801	n/a	n/a	0	0	0
3162.66	n/a	WORD	1581330	wordpools/wasnorm_wordpool_576.txt	LTP317	ltpFR2	7	15	POCKET	1093	n/a	n/a	0	0	0
3165.462	n/a	WORD	1582731	wordpools/wasnorm_wordpool_576.txt	LTP317	ltpFR2	7	15	FRANCE	601	n/a	n/a	0	0	0
3168.032	n/a	WORD	1584016	wordpools/wasnorm_wordpool_576.txt	LTP317	ltpFR2	7	15	DIME	466	n/a	n/a	0	0	0
3170.816	n/a	WORD	1585408	wordpools/wasnorm_wordpool_576.txt	LTP317	ltpFR2	7	15	MATCH	878	n/a	n/a	0	0	0
3173.518	n/a	WORD	1586759	wordpools/wasnorm_wordpool_576.txt	LTP317	ltpFR2	7	15	PICNIC	1060	n/a	n/a	0	0	0
3176.038	n/a	WORD	1588019	wordpools/wasnorm_wordpool_576.txt	LTP317	ltpFR2	7	15	BIKE	125	n/a	n/a	0	0	0
3178.656	n/a	WORD	1589328	wordpools/wasnorm_wordpool_576.txt	LTP317	ltpFR2	7	15	SCOTCH	1251	n/a	n/a	0	0	0
3181.374	n/a	WORD	1590687	wordpools/wasnorm_wordpool_576.txt	LTP317	ltpFR2	7	15	COCKTAIL	338	n/a	n/a	0	0	0
3184.144	n/a	WORD	1592072	wordpools/wasnorm_wordpool_576.txt	LTP317	ltpFR2	7	15	TRANSPLANT	1496	n/a	n/a	0	0	0
3186.746	n/a	WORD	1593373	wordpools/wasnorm_wordpool_576.txt	LTP317	ltpFR2	7	15	PRINCE	1124	n/a	n/a	0	0	0
3189.498	n/a	WORD	1594749	wordpools/wasnorm_wordpool_576.txt	LTP317	ltpFR2	7	15	EUROPE	541	n/a	n/a	0	0	0
3191.102	n/a	START	1595551	n/a	LTP317	ltpFR2	7	n/a	n/a	n/a	24	n/a	n/a	n/a	n/a
3192.198	n/a	DISTRACTOR	1596099	n/a	LTP317	ltpFR2	7	15	n/a	n/a	n/a	n/a	0	0	0
3192.202	n/a	PROB	1596101	n/a	LTP317	ltpFR2	7	n/a	n/a	n/a	24	15	4	3	8
3193.816	n/a	PROB	1596908	n/a	LTP317	ltpFR2	7	n/a	n/a	n/a	24	16	3	7	6
3195.302	n/a	PROB	1597651	n/a	LTP317	ltpFR2	7	n/a	n/a	n/a	24	11	4	2	5
3196.852	n/a	PROB	1598426	n/a	LTP317	ltpFR2	7	n/a	n/a	n/a	24	15	5	8	2
3198.488	n/a	PROB	1599244	n/a	LTP317	ltpFR2	7	n/a	n/a	n/a	24	9	5	2	2
3200.172	n/a	PROB	1600086	n/a	LTP317	ltpFR2	7	n/a	n/a	n/a	24	16	1	6	9
3201.656	n/a	PROB	1600828	n/a	LTP317	ltpFR2	7	n/a	n/a	n/a	24	17	8	7	2
3203.556	n/a	PROB	1601778	n/a	LTP317	ltpFR2	7	n/a	n/a	n/a	24	9	3	5	1
3204.758	n/a	PROB	1602379	n/a	LTP317	ltpFR2	7	n/a	n/a	n/a	24	5	2	2	1
3206.126	n/a	PROB	1603063	n/a	LTP317	ltpFR2	7	n/a	n/a	n/a	24	19	9	6	4
3208.512	n/a	PROB	1604256	n/a	LTP317	ltpFR2	7	n/a	n/a	n/a	24	14	7	1	6
3210.212	n/a	PROB	1605106	n/a	LTP317	ltpFR2	7	n/a	n/a	n/a	24	15	3	5	7
3211.546	n/a	PROB	1605773	n/a	LTP317	ltpFR2	7	n/a	n/a	n/a	24	18	8	4	6
3213.066	n/a	PROB	1606533	n/a	LTP317	ltpFR2	7	n/a	n/a	n/a	24	15	6	8	1
3214.288	n/a	STOP	1607144	n/a	LTP317	ltpFR2	7	n/a	n/a	n/a	24	n/a	n/a	n/a	n/a
3216.9	n/a	REC_START	1608450	n/a	LTP317	ltpFR2	7	15	n/a	n/a	n/a	n/a	0	0	0
3217.364	n/a	REC_WORD	1608682	wordpools/wasnorm_wordpool_576.txt	LTP317	ltpFR2	7	15	WASHER	1592	n/a	n/a	0	0	0
3218.17	n/a	REC_WORD	1609085	wordpools/wasnorm_wordpool_576.txt	LTP317	ltpFR2	7	15	APRON	35	n/a	n/a	0	0	0
3219.096	n/a	REC_WORD	1609548	wordpools/wasnorm_wordpool_576.txt	LTP317	ltpFR2	7	15	OZONE	996	n/a	n/a	0	0	0
3221.24	n/a	REC_WORD	1610620	wordpools/wasnorm_wordpool_576.txt	LTP317	ltpFR2	7	15	SUNRISE	1407	n/a	n/a	0	0	0
3223.938	n/a	REC_WORD	1611969	wordpools/wasnorm_wordpool_576.txt	LTP317	ltpFR2	7	15	FRANCE	601	n/a	n/a	0	0	0
3224.862	n/a	REC_WORD	1612431	wordpools/wasnorm_wordpool_576.txt	LTP317	ltpFR2	7	15	EUROPE	541	n/a	n/a	0	0	0
3227.676	n/a	REC_WORD	1613838	wordpools/wasnorm_wordpool_576.txt	LTP317	ltpFR2	7	15	DIME	466	n/a	n/a	0	0	0
3307.338	n/a	WORD	1653669	wordpools/wasnorm_wordpool_576.txt	LTP317	ltpFR2	7	16	GUARD	667	n/a	n/a	0	0	0
3310.136	n/a	WORD	1655068	wordpools/wasnorm_wordpool_576.txt	LTP317	ltpFR2	7	16	OMELET	976	n/a	n/a	0	0	0
3312.808	n/a	WORD	1656404	wordpools/wasnorm_wordpool_576.txt	LTP317	ltpFR2	7	16	CRITIC	410	n/a	n/a	0	0	0
3315.274	n/a	WORD	1657637	wordpools/wasnorm_wordpool_576.txt	LTP317	ltpFR2	7	16	PLASTER	1085	n/a	n/a	0	0	0
3317.758	n/a	WORD	1658879	wordpools/wasnorm_wordpool_576.txt	LTP317	ltpFR2	7	16	JUGGLER	763	n/a	n/a	0	0	0
3320.394	n/a	WORD	1660197	wordpools/wasnorm_wordpool_576.txt	LTP317	ltpFR2	7	16	WINDOW	1611	n/a	n/a	0	0	0
3323.164	n/a	WORD	1661582	wordpools/wasnorm_wordpool_576.txt	LTP317	ltpFR2	7	16	SAUSAGE	1238	n/a	n/a	0	0	0
3325.948	n/a	WORD	1662974	wordpools/wasnorm_wordpool_576.txt	LTP317	ltpFR2	7	16	YARN	1631	n/a	n/a	0	0	0
3328.502	n/a	WORD	1664251	wordpools/wasnorm_wordpool_576.txt	LTP317	ltpFR2	7	16	POPCORN	1104	n/a	n/a	0	0	0
3330.94	n/a	WORD	1665470	wordpools/wasnorm_wordpool_576.txt	LTP317	ltpFR2	7	16	FOREHEAD	592	n/a	n/a	0	0	0
3333.672	n/a	WORD	1666836	wordpools/wasnorm_wordpool_576.txt	LTP317	ltpFR2	7	16	BREAST	171	n/a	n/a	0	0	0
3336.308	n/a	WORD	1668154	wordpools/wasnorm_wordpool_576.txt	LTP317	ltpFR2	7	16	GLASS	639	n/a	n/a	0	0	0
3338.942	n/a	WORD	1669471	wordpools/wasnorm_wordpool_576.txt	LTP317	ltpFR2	7	16	BUGGY	188	n/a	n/a	0	0	0
3341.65	n/a	WORD	1670825	wordpools/wasnorm_wordpool_576.txt	LTP317	ltpFR2	7	16	HORSE	719	n/a	n/a	0	0	0
3344.364	n/a	WORD	1672182	wordpools/wasnorm_wordpool_576.txt	LTP317	ltpFR2	7	16	TART	1436	n/a	n/a	0	0	0
3346.882	n/a	WORD	1673441	wordpools/wasnorm_wordpool_576.txt	LTP317	ltpFR2	7	16	BUG	187	n/a	n/a	0	0	0
3349.57	n/a	WORD	1674785	wordpools/wasnorm_wordpool_576.txt	LTP317	ltpFR2	7	16	STAR	1373	n/a	n/a	0	0	0
3352.322	n/a	WORD	1676161	wordpools/wasnorm_wordpool_576.txt	LTP317	ltpFR2	7	16	COMET	353	n/a	n/a	0	0	0
3355.044	n/a	WORD	1677522	wordpools/wasnorm_wordpool_576.txt	LTP317	ltpFR2	7	16	PUDDLE	1140	n/a	n/a	0	0	0
3357.858	n/a	WORD	1678929	wordpools/wasnorm_wordpool_576.txt	LTP317	ltpFR2	7	16	MASK	876	n/a	n/a	0	0	0
3360.462	n/a	WORD	1680231	wordpools/wasnorm_wordpool_576.txt	LTP317	ltpFR2	7	16	SUMMIT	1405	n/a	n/a	0	0	0
3363.116	n/a	WORD	1681558	wordpools/wasnorm_wordpool_576.txt	LTP317	ltpFR2	7	16	CUSTARD	429	n/a	n/a	0	0	0
3365.616	n/a	WORD	1682808	wordpools/wasnorm_wordpool_576.txt	LTP317	ltpFR2	7	16	BANJO	82	n/a	n/a	0	0	0
3368.302	n/a	WORD	1684151	wordpools/wasnorm_wordpool_576.txt	LTP317	ltpFR2	7	16	BALLOON	75	n/a	n/a	0	0	0
3369.92	n/a	START	1684960	n/a	LTP317	ltpFR2	7	n/a	n/a	n/a	25	n/a	n/a	n/a	n/a
3371.052	n/a	DISTRACTOR	1685526	n/a	LTP317	ltpFR2	7	16	n/a	n/a	n/a	n/a	0	0	0
3371.07	n/a	PROB	1685535	n/a	LTP317	ltpFR2	7	n/a	n/a	n/a	25	10	6	6	2
3372.556	n/a	PROB	1686278	n/a	LTP317	ltpFR2	7	n/a	n/a	n/a	25	17	2	9	6
3374.706	n/a	PROB	1687353	n/a	LTP317	ltpFR2	7	n/a	n/a	n/a	25	14	5	3	6
3376.144	n/a	PROB	1688072	n/a	LTP317	ltpFR2	7	n/a	n/a	n/a	25	24	6	9	7
3378.812	n/a	PROB	1689406	n/a	LTP317	ltpFR2	7	n/a	n/a	n/a	25	7	4	2	1
3380.994	n/a	PROB	1690497	n/a	LTP317	ltpFR2	7	n/a	n/a	n/a	25	10	6	1	3
3382.862	n/a	PROB	1691431	n/a	LTP317	ltpFR2	7	n/a	n/a	n/a	25	14	7	4	3
3384.632	n/a	PROB	1692316	n/a	LTP317	ltpFR2	7	n/a	n/a	n/a	25	16	8	5	3
3386.268	n/a	PROB	1693134	n/a	LTP317	ltpFR2	7	n/a	n/a	n/a	25	17	5	5	7
3387.602	n/a	PROB	1693801	n/a	LTP317	ltpFR2	7	n/a	n/a	n/a	25	19	5	9	5
3393.918	n/a	STOP	1696959	n/a	LTP317	ltpFR2	7	n/a	n/a	n/a	25	n/a	n/a	n/a	n/a
3395.726	n/a	REC_START	1697863	n/a	LTP317	ltpFR2	7	16	n/a	n/a	n/a	n/a	0	0	0
3398.804	n/a	REC_WORD	1699402	wordpools/wasnorm_wordpool_576.txt	LTP317	ltpFR2	7	16	YARN	1631	n/a	n/a	0	0	0
3399.264	n/a	REC_WORD	1699632	wordpools/wasnorm_wordpool_576.txt	LTP317	ltpFR2	7	16	POPCORN	1104	n/a	n/a	0	0	0
3401.194	n/a	REC_WORD	1700597	wordpools/wasnorm_wordpool_576.txt	LTP317	ltpFR2	7	16	FOREHEAD	592	n/a	n/a	0	0	0
3402.288	n/a	REC_WORD	1701144	wordpools/wasnorm_wordpool_576.txt	LTP317	ltpFR2	7	16	BREAST	171	n/a	n/a	0	0	0
3417.592	n/a	REC_WORD	1708796	wordpools/wasnorm_wordpool_576.txt	LTP317	ltpFR2	7	16	SHARK	1275	n/a	n/a	0	0	0
3418.592	n/a	REC_WORD_VV	1709296	wordpools/wasnorm_wordpool_576.txt	LTP317	ltpFR2	7	16	<>	-1	n/a	n/a	0	0	0
3472.25	n/a	REST_REWET	1736125	n/a	LTP317	ltpFR2	7	16	n/a	n/a	n/a	n/a	0	0	0
3676.61	n/a	WORD	1838305	wordpools/wasnorm_wordpool_576.txt	LTP317	ltpFR2	7	17	FLASK	576	n/a	n/a	0	0	0
3679.264	n/a	WORD	1839632	wordpools/wasnorm_wordpool_576.txt	LTP317	ltpFR2	7	17	SEAGULL	1261	n/a	n/a	0	0	0
3682.064	n/a	WORD	1841032	wordpools/wasnorm_wordpool_576.txt	LTP317	ltpFR2	7	17	SERVANT	1271	n/a	n/a	0	0	0
3684.604	n/a	WORD	1842302	wordpools/wasnorm_wordpool_576.txt	LTP317	ltpFR2	7	17	BASEMENT	94	n/a	n/a	0	0	0
3687.186	n/a	WORD	1843593	wordpools/wasnorm_wordpool_576.txt	LTP317	ltpFR2	7	17	CELLAR	267	n/a	n/a	0	0	0
3689.886	n/a	WORD	1844943	wordpools/wasnorm_wordpool_576.txt	LTP317	ltpFR2	7	17	EMPIRE	530	n/a	n/a	0	0	0
3692.676	n/a	WORD	1846338	wordpools/wasnorm_wordpool_576.txt	LTP317	ltpFR2	7	17	COURSE	390	n/a	n/a	0	0	0
3695.208	n/a	WORD	1847604	wordpools/wasnorm_wordpool_576.txt	LTP317	ltpFR2	7	17	CABBAGE	210	n/a	n/a	0	0	0
3697.996	n/a	WORD	1848998	wordpools/wasnorm_wordpool_576.txt	LTP317	ltpFR2	7	17	BOUQUET	157	n/a	n/a	0	0	0
3700.766	n/a	WORD	1850383	wordpools/wasnorm_wordpool_576.txt	LTP317	ltpFR2	7	17	EGYPT	519	n/a	n/a	0	0	0
3703.28	n/a	WORD	1851640	wordpools/wasnorm_wordpool_576.txt	LTP317	ltpFR2	7	17	DENIM	446	n/a	n/a	0	0	0
3705.982	n/a	WORD	1852991	wordpools/wasnorm_wordpool_576.txt	LTP317	ltpFR2	7	17	MARSH	874	n/a	n/a	0	0	0
3708.552	n/a	WORD	1854276	wordpools/wasnorm_wordpool_576.txt	LTP317	ltpFR2	7	17	MAILMAN	858	n/a	n/a	0	0	0
3711.17	n/a	WORD	1855585	wordpools/wasnorm_wordpool_576.txt	LTP317	ltpFR2	7	17	CLOCK	325	n/a	n/a	0	0	0
3713.706	n/a	WORD	1856853	wordpools/wasnorm_wordpool_576.txt	LTP317	ltpFR2	7	17	DIVER	476	n/a	n/a	0	0	0
3716.424	n/a	WORD	1858212	wordpools/wasnorm_wordpool_576.txt	LTP317	ltpFR2	7	17	LOVER	846	n/a	n/a	0	0	0
3718.976	n/a	WORD	1859488	wordpools/wasnorm_wordpool_576.txt	LTP317	ltpFR2	7	17	PARTNER	1017	n/a	n/a	0	0	0
3721.778	n/a	WORD	1860889	wordpools/wasnorm_wordpool_576.txt	LTP317	ltpFR2	7	17	TERMITE	1451	n/a	n/a	0	0	0
3724.354	n/a	WORD	1862177	wordpools/wasnorm_wordpool_576.txt	LTP317	ltpFR2	7	17	HAMPER	682	n/a	n/a	0	0	0
3726.888	n/a	WORD	1863444	wordpools/wasnorm_wordpool_576.txt	LTP317	ltpFR2	7	17	PERCH	1048	n/a	n/a	0	0	0
3729.708	n/a	WORD	1864854	wordpools/wasnorm_wordpool_576.txt	LTP317	ltpFR2	7	17	COMPASS	358	n/a	n/a	0	0	0
3732.386	n/a	WORD	1866193	wordpools/wasnorm_wordpool_576.txt	LTP317	ltpFR2	7	17	RIVER	1194	n/a	n/a	0	0	0
3735.062	n/a	WORD	1867531	wordpools/wasnorm_wordpool_576.txt	LTP317	ltpFR2	7	17	DOLPHIN	483	n/a	n/a	0	0	0
3737.69	n/a	WORD	1868845	wordpools/wasnorm_wordpool_576.txt	LTP317	ltpFR2	7	17	DANCER	437	n/a	n/a	0	0	0
3739.3	n/a	START	1869650	n/a	LTP317	ltpFR2	7	n/a	n/a	n/a	26	n/a	n/a	n/a	n/a
3740.448	n/a	DISTRACTOR	1870224	n/a	LTP317	ltpFR2	7	17	n/a	n/a	n/a	n/a	0	0	0
3740.46	n/a	PROB	1870230	n/a	LTP317	ltpFR2	7	n/a	n/a	n/a	26	16	3	3	9
3743.81	n/a	PROB	1871905	n/a	LTP317	ltpFR2	7	n/a	n/a	n/a	26	19	5	9	5
3745.38	n/a	PROB	1872690	n/a	LTP317	ltpFR2	7	n/a	n/a	n/a	26	18	7	7	4
3747.432	n/a	PROB	1873716	n/a	LTP317	ltpFR2	7	n/a	n/a	n/a	26	19	7	8	4
3748.848	n/a	PROB	1874424	n/a	LTP317	ltpFR2	7	n/a	n/a	n/a	26	1	7	4	5
3752.052	n/a	PROB	1876026	n/a	LTP317	ltpFR2	7	n/a	n/a	n/a	26	16	7	8	1
3753.62	n/a	PROB	1876810	n/a	LTP317	ltpFR2	7	n/a	n/a	n/a	26	11	2	4	5
3756.02	n/a	PROB	1878010	n/a	LTP317	ltpFR2	7	n/a	n/a	n/a	26	23	9	7	7
3757.938	n/a	PROB	1878969	n/a	LTP317	ltpFR2	7	n/a	n/a	n/a	26	11	1	1	9
3759.424	n/a	PROB	1879712	n/a	LTP317	ltpFR2	7	n/a	n/a	n/a	26	21	7	6	6
3763.298	n/a	STOP	1881649	n/a	LTP317	ltpFR2	7	n/a	n/a	n/a	26	n/a	n/a	n/a	n/a
3765.13	n/a	REC_START	1882565	n/a	LTP317	ltpFR2	7	17	n/a	n/a	n/a	n/a	0	0	0
3767.61	n/a	REC_WORD	1883805	wordpools/wasnorm_wordpool_576.txt	LTP317	ltpFR2	7	17	FLASK	576	n/a	n/a	0	0	0
3768.718	n/a	REC_WORD	1884359	wordpools/wasnorm_wordpool_576.txt	LTP317	ltpFR2	7	17	SEAGULL	1261	n/a	n/a	0	0	0
3770.596	n/a	REC_WORD	1885298	wordpools/wasnorm_wordpool_576.txt	LTP317	ltpFR2	7	17	BASEMENT	94	n/a	n/a	0	0	0
3771.546	n/a	REC_WORD	1885773	wordpools/wasnorm_wordpool_576.txt	LTP317	ltpFR2	7	17	CELLAR	267	n/a	n/a	0	0	0
3775.674	n/a	REC_WORD	1887837	wordpools/wasnorm_wordpool_576.txt	LTP317	ltpFR2	7	17	EMPIRE	530	n/a	n/a	0	0	0
3780.538	n/a	REC_WORD	1890269	wordpools/wasnorm_wordpool_576.txt	LTP317	ltpFR2	7	17	EGYPT	519	n/a	n/a	0	0	0
3791.06	n/a	REC_WORD	1895530	wordpools/wasnorm_wordpool_576.txt	LTP317	ltpFR2	7	17	SURFACE	-1	n/a	n/a	0	0	0
3855.6	n/a	WORD	1927800	wordpools/wasnorm_wordpool_576.txt	LTP317	ltpFR2	7	18	BURGLAR	200	n/a	n/a	0	0	0
3858.334	n/a	WORD	1929167	wordpools/wasnorm_wordpool_576.txt	LTP317	ltpFR2	7	18	COLLEGE	346	n/a	n/a	0	0	0
3860.884	n/a	WORD	1930442	wordpools/wasnorm_wordpool_576.txt	LTP317	ltpFR2	7	18	SNAKE	1333	n/a	n/a	0	0	0
3863.488	n/a	WORD	1931744	wordpools/wasnorm_wordpool_576.txt	LTP317	ltpFR2	7	18	ARMY	39	n/a	n/a	0	0	0
3866.174	n/a	WORD	1933087	wordpools/wasnorm_wordpool_576.txt	LTP317	ltpFR2	7	18	PUPPY	1144	n/a	n/a	0	0	0
3868.924	n/a	WORD	1934462	wordpools/wasnorm_wordpool_576.txt	LTP317	ltpFR2	7	18	CANDY	230	n/a	n/a	0	0	0
3871.678	n/a	WORD	1935839	wordpools/wasnorm_wordpool_576.txt	LTP317	ltpFR2	7	18	ICING	732	n/a	n/a	0	0	0
3874.298	n/a	WORD	1937149	wordpools/wasnorm_wordpool_576.txt	LTP317	ltpFR2	7	18	FREEZER	604	n/a	n/a	0	0	0
3877.066	n/a	WORD	1938533	wordpools/wasnorm_wordpool_576.txt	LTP317	ltpFR2	7	18	VIRUS	1572	n/a	n/a	0	0	0
3879.868	n/a	WORD	1939934	wordpools/wasnorm_wordpool_576.txt	LTP317	ltpFR2	7	18	HAND	683	n/a	n/a	0	0	0
3882.37	n/a	WORD	1941185	wordpools/wasnorm_wordpool_576.txt	LTP317	ltpFR2	7	18	PROTON	1132	n/a	n/a	0	0	0
3884.82	n/a	WORD	1942410	wordpools/wasnorm_wordpool_576.txt	LTP317	ltpFR2	7	18	SKETCH	1315	n/a	n/a	0	0	0
3887.426	n/a	WORD	1943713	wordpools/wasnorm_wordpool_576.txt	LTP317	ltpFR2	7	18	OUTLAW	989	n/a	n/a	0	0	0
3889.876	n/a	WORD	1944938	wordpools/wasnorm_wordpool_576.txt	LTP317	ltpFR2	7	18	STUDENT	1395	n/a	n/a	0	0	0
3892.562	n/a	WORD	1946281	wordpools/wasnorm_wordpool_576.txt	LTP317	ltpFR2	7	18	PERMIT	1051	n/a	n/a	0	0	0
3895.248	n/a	WORD	1947624	wordpools/wasnorm_wordpool_576.txt	LTP317	ltpFR2	7	18	DONOR	485	n/a	n/a	0	0	0
3897.716	n/a	WORD	1948858	wordpools/wasnorm_wordpool_576.txt	LTP317	ltpFR2	7	18	CREATURE	403	n/a	n/a	0	0	0
3900.302	n/a	WORD	1950151	wordpools/wasnorm_wordpool_576.txt	LTP317	ltpFR2	7	18	VIKING	1565	n/a	n/a	0	0	0
3902.92	n/a	WORD	1951460	wordpools/wasnorm_wordpool_576.txt	LTP317	ltpFR2	7	18	YACHT	1629	n/a	n/a	0	0	0
3905.59	n/a	WORD	1952795	wordpools/wasnorm_wordpool_576.txt	LTP317	ltpFR2	7	18	HUMAN	726	n/a	n/a	0	0	0
3908.24	n/a	WORD	1954120	wordpools/wasnorm_wordpool_576.txt	LTP317	ltpFR2	7	18	BODY	145	n/a	n/a	0	0	0
3910.81	n/a	WORD	1955405	wordpools/wasnorm_wordpool_576.txt	LTP317	ltpFR2	7	18	SPACE	1345	n/a	n/a	0	0	0
3913.328	n/a	WORD	1956664	wordpools/wasnorm_wordpool_576.txt	LTP317	ltpFR2	7	18	GLOBE	641	n/a	n/a	0	0	0
3916.03	n/a	WORD	1958015	wordpools/wasnorm_wordpool_576.txt	LTP317	ltpFR2	7	18	EAGLE	512	n/a	n/a	0	0	0
3917.634	n/a	START	1958817	n/a	LTP317	ltpFR2	7	n/a	n/a	n/a	27	n/a	n/a	n/a	n/a
3918.5	n/a	DISTRACTOR	1959250	n/a	LTP317	ltpFR2	7	18	n/a	n/a	n/a	n/a	0	0	0
3918.514	n/a	PROB	1959257	n/a	LTP317	ltpFR2	7	n/a	n/a	n/a	27	18	1	8	9
3920.798	n/a	PROB	1960399	n/a	LTP317	ltpFR2	7	n/a	n/a	n/a	27	21	3	9	9
3922.466	n/a	PROB	1961233	n/a	LTP317	ltpFR2	7	n/a	n/a	n/a	27	12	6	5	1
3923.618	n/a	PROB	1961809	n/a	LTP317	ltpFR2	7	n/a	n/a	n/a	27	19	7	8	4
3924.902	n/a	PROB	1962451	n/a	LTP317	ltpFR2	7	n/a	n/a	n/a	27	15	9	2	4
3926.836	n/a	PROB	1963418	n/a	LTP317	ltpFR2	7	n/a	n/a	n/a	27	15	9	1	5
3928.106	n/a	PROB	1964053	n/a	LTP317	ltpFR2	7	n/a	n/a	n/a	27	11	9	1	1
3929.44	n/a	PROB	1964720	n/a	LTP317	ltpFR2	7	n/a	n/a	n/a	27	15	5	2	8
3930.708	n/a	PROB	1965354	n/a	LTP317	ltpFR2	7	n/a	n/a	n/a	27	11	3	6	2
3931.992	n/a	PROB	1965996	n/a	LTP317	ltpFR2	7	n/a	n/a	n/a	27	14	1	7	6
3933.392	n/a	PROB	1966696	n/a	LTP317	ltpFR2	7	n/a	n/a	n/a	27	15	5	8	2
3934.594	n/a	PROB	1967297	n/a	LTP317	ltpFR2	7	n/a	n/a	n/a	27	23	7	9	7
3936.612	n/a	PROB	1968306	n/a	LTP317	ltpFR2	7	n/a	n/a	n/a	27	11	1	5	5
3937.778	n/a	PROB	1968889	n/a	LTP317	ltpFR2	7	n/a	n/a	n/a	27	23	5	9	9
3940.048	n/a	PROB	1970024	n/a	LTP317	ltpFR2	7	n/a	n/a	n/a	27	18	3	6	9
3941.308	n/a	STOP	1970654	n/a	LTP317	ltpFR2	7	n/a	n/a	n/a	27	n/a	n/a	n/a	n/a
3943.486	n/a	REC_START	1971743	n/a	LTP317	ltpFR2	7	18	n/a	n/a	n/a	n/a	0	0	0
3946.402	n/a	REC_WORD	1973201	wordpools/wasnorm_wordpool_576.txt	LTP317	ltpFR2	7	18	BURGLAR	200	n/a	n/a	0	0	0
3947.088	n/a	REC_WORD	1973544	wordpools/wasnorm_wordpool_576.txt	LTP317	ltpFR2	7	18	OUTLAW	989	n/a	n/a	0	0	0
3949.74	n/a	REC_WORD_VV	1974870	wordpools/wasnorm_wordpool_576.txt	LTP317	ltpFR2	7	18	<>	-1	n/a	n/a	0	0	0
3950.74	n/a	REC_WORD_VV	1975370	wordpools/wasnorm_wordpool_576.txt	LTP317	ltpFR2	7	18	<>	-1	n/a	n/a	0	0	0
3952.004	n/a	REC_WORD_VV	1976002	wordpools/wasnorm_wordpool_576.txt	LTP317	ltpFR2	7	18	<>	-1	n/a	n/a	0	0	0
3952.908	n/a	REC_WORD	1976454	wordpools/wasnorm_wordpool_576.txt	LTP317	ltpFR2	7	18	COLLEGE	346	n/a	n/a	0	0	0
3955.72	n/a	REC_WORD	1977860	wordpools/wasnorm_wordpool_576.txt	LTP317	ltpFR2	7	18	STATE	-1	n/a	n/a	0	0	0
3956.72	n/a	REC_WORD_VV	1978360	wordpools/wasnorm_wordpool_576.txt	LTP317	ltpFR2	7	18	<>	-1	n/a	n/a	0	0	0
3965.584	n/a	REC_WORD	1982792	wordpools/wasnorm_wordpool_576.txt	LTP317	ltpFR2	7	18	GLOBE	641	n/a	n/a	0	0	0
3966.372	n/a	REC_WORD	1983186	wordpools/wasnorm_wordpool_576.txt	LTP317	ltpFR2	7	18	SPACE	1345	n/a	n/a	0	0	0
4033.93	n/a	WORD	2016965	wordpools/wasnorm_wordpool_576.txt	LTP317	ltpFR2	7	19	RATTLE	1170	n/a	n/a	0	0	0
4036.452	n/a	WORD	2018226	wordpools/wasnorm_wordpool_576.txt	LTP317	ltpFR2	7	19	LONDON	843	n/a	n/a	0	0	0
4039.076	n/a	WORD	2019538	wordpools/wasnorm_wordpool_576.txt	LTP317	ltpFR2	7	19	LAPEL	800	n/a	n/a	0	0	0
4041.838	n/a	WORD	2020919	wordpools/wasnorm_wordpool_576.txt	LTP317	ltpFR2	7	19	BRACES	164	n/a	n/a	0	0	0
4044.342	n/a	WORD	2022171	wordpools/wasnorm_wordpool_576.txt	LTP317	ltpFR2	7	19	FOOTBALL	591	n/a	n/a	0	0	0
4046.898	n/a	WORD	2023449	wordpools/wasnorm_wordpool_576.txt	LTP317	ltpFR2	7	19	RAZOR	1171	n/a	n/a	0	0	0
4049.43	n/a	WORD	2024715	wordpools/wasnorm_wordpool_576.txt	LTP317	ltpFR2	7	19	CANAL	226	n/a	n/a	0	0	0
4051.98	n/a	WORD	2025990	wordpools/wasnorm_wordpool_576.txt	LTP317	ltpFR2	7	19	PERFUME	1049	n/a	n/a	0	0	0
4054.432	n/a	WORD	2027216	wordpools/wasnorm_wordpool_576.txt	LTP317	ltpFR2	7	19	CATTLE	261	n/a	n/a	0	0	0
4057.086	n/a	WORD	2028543	wordpools/wasnorm_wordpool_576.txt	LTP317	ltpFR2	7	19	WAITRESS	1581	n/a	n/a	0	0	0
4059.508	n/a	WORD	2029754	wordpools/wasnorm_wordpool_576.txt	LTP317	ltpFR2	7	19	SERVER	1272	n/a	n/a	0	0	0
4061.942	n/a	WORD	2030971	wordpools/wasnorm_wordpool_576.txt	LTP317	ltpFR2	7	19	HUSBAND	728	n/a	n/a	0	0	0
4064.424	n/a	WORD	2032212	wordpools/wasnorm_wordpool_576.txt	LTP317	ltpFR2	7	19	DENTIST	447	n/a	n/a	0	0	0
4066.998	n/a	WORD	2033499	wordpools/wasnorm_wordpool_576.txt	LTP317	ltpFR2	7	19	MAMMAL	861	n/a	n/a	0	0	0
4069.812	n/a	WORD	2034906	wordpools/wasnorm_wordpool_576.txt	LTP317	ltpFR2	7	19	CAMEL	223	n/a	n/a	0	0	0
4072.264	n/a	WORD	2036132	wordpools/wasnorm_wordpool_576.txt	LTP317	ltpFR2	7	19	GREASE	660	n/a	n/a	0	0	0
4074.966	n/a	WORD	2037483	wordpools/wasnorm_wordpool_576.txt	LTP317	ltpFR2	7	19	PENGUIN	1044	n/a	n/a	0	0	0
4077.47	n/a	WORD	2038735	wordpools/wasnorm_wordpool_576.txt	LTP317	ltpFR2	7	19	INFANT	737	n/a	n/a	0	0	0
4080.14	n/a	WORD	2040070	wordpools/wasnorm_wordpool_576.txt	LTP317	ltpFR2	7	19	HEART	697	n/a	n/a	0	0	0
4082.94	n/a	WORD	2041470	wordpools/wasnorm_wordpool_576.txt	LTP317	ltpFR2	7	19	ZIPPER	1636	n/a	n/a	0	0	0
4085.51	n/a	WORD	2042755	wordpools/wasnorm_wordpool_576.txt	LTP317	ltpFR2	7	19	BULLET	194	n/a	n/a	0	0	0
4088.196	n/a	WORD	2044098	wordpools/wasnorm_wordpool_576.txt	LTP317	ltpFR2	7	19	STAPLE	1371	n/a	n/a	0	0	0
4090.864	n/a	WORD	2045432	wordpools/wasnorm_wordpool_576.txt	LTP317	ltpFR2	7	19	PREACHER	1119	n/a	n/a	0	0	0
4093.382	n/a	WORD	2046691	wordpools/wasnorm_wordpool_576.txt	LTP317	ltpFR2	7	19	STAMP	1370	n/a	n/a	0	0	0
4095.002	n/a	START	2047501	n/a	LTP317	ltpFR2	7	n/a	n/a	n/a	28	n/a	n/a	n/a	n/a
4095.888	n/a	DISTRACTOR	2047944	n/a	LTP317	ltpFR2	7	19	n/a	n/a	n/a	n/a	0	0	0
4095.9	n/a	PROB	2047950	n/a	LTP317	ltpFR2	7	n/a	n/a	n/a	28	14	8	3	3
4097.602	n/a	PROB	2048801	n/a	LTP317	ltpFR2	7	n/a	n/a	n/a	28	19	7	9	3
4098.936	n/a	PROB	2049468	n/a	LTP317	ltpFR2	7	n/a	n/a	n/a	28	19	7	6	6
4102.108	n/a	PROB	2051054	n/a	LTP317	ltpFR2	7	n/a	n/a	n/a	28	13	1	6	6
4104.276	n/a	PROB	2052138	n/a	LTP317	ltpFR2	7	n/a	n/a	n/a	28	12	2	8	2
4105.678	n/a	PROB	2052839	n/a	LTP317	ltpFR2	7	n/a	n/a	n/a	28	21	6	6	9
4107.962	n/a	PROB	2053981	n/a	LTP317	ltpFR2	7	n/a	n/a	n/a	28	14	3	7	4
4110.832	n/a	PROB	2055416	n/a	LTP317	ltpFR2	7	n/a	n/a	n/a	28	13	9	2	2
4113.452	n/a	PROB	2056726	n/a	LTP317	ltpFR2	7	n/a	n/a	n/a	28	15	6	2	7
4115.418	n/a	PROB	2057709	n/a	LTP317	ltpFR2	7	n/a	n/a	n/a	28	18	9	8	1
4116.72	n/a	PROB	2058360	n/a	LTP317	ltpFR2	7	n/a	n/a	n/a	28	12	8	1	3
4118.408	n/a	STOP	2059204	n/a	LTP317	ltpFR2	7	n/a	n/a	n/a	28	n/a	n/a	n/a	n/a
4120.838	n/a	REC_START	2060419	n/a	LTP317	ltpFR2	7	19	n/a	n/a	n/a	n/a	0	0	0
4121.738	n/a	REC_WORD	2060869	wordpools/wasnorm_wordpool_576.txt	LTP317	ltpFR2	7	19	CATTLE	261	n/a	n/a	0	0	0
4122.58	n/a	REC_WORD	2061290	wordpools/wasnorm_wordpool_576.txt	LTP317	ltpFR2	7	19	WAITRESS	1581	n/a	n/a	0	0	0
4123.574	n/a	REC_WORD	2061787	wordpools/wasnorm_wordpool_576.txt	LTP317	ltpFR2	7	19	SERVER	1272	n/a	n/a	0	0	0
4124.492	n/a	REC_WORD	2062246	wordpools/wasnorm_wordpool_576.txt	LTP317	ltpFR2	7	19	HUSBAND	728	n/a	n/a	0	0	0
4125.386	n/a	REC_WORD	2062693	wordpools/wasnorm_wordpool_576.txt	LTP317	ltpFR2	7	19	PENGUIN	1044	n/a	n/a	0	0	0
4126.048	n/a	REC_WORD	2063024	wordpools/wasnorm_wordpool_576.txt	LTP317	ltpFR2	7	19	HEART	697	n/a	n/a	0	0	0
4131.088	n/a	REC_WORD	2065544	wordpools/wasnorm_wordpool_576.txt	LTP317	ltpFR2	7	19	LONDON	843	n/a	n/a	0	0	0
4137.622	n/a	REC_WORD	2068811	wordpools/wasnorm_wordpool_576.txt	LTP317	ltpFR2	7	19	DENTIST	447	n/a	n/a	0	0	0
4138.272	n/a	REC_WORD	2069136	wordpools/wasnorm_wordpool_576.txt	LTP317	ltpFR2	7	19	BRACES	164	n/a	n/a	0	0	0
4211.262	n/a	DISTRACTOR	2105631	n/a	LTP317	ltpFR2	7	20	n/a	n/a	n/a	n/a	0	0	0
4211.262	n/a	START	2105631	n/a	LTP317	ltpFR2	7	n/a	n/a	n/a	29	n/a	n/a	n/a	n/a
4211.276	n/a	PROB	2105638	n/a	LTP317	ltpFR2	7	n/a	n/a	n/a	29	18	6	7	5
4212.694	n/a	PROB	2106347	n/a	LTP317	ltpFR2	7	n/a	n/a	n/a	29	5	1	3	1
4213.712	n/a	PROB	2106856	n/a	LTP317	ltpFR2	7	n/a	n/a	n/a	29	23	9	9	5
4215.296	n/a	PROB	2107648	n/a	LTP317	ltpFR2	7	n/a	n/a	n/a	29	13	2	5	6
4217.03	n/a	PROB	2108515	n/a	LTP317	ltpFR2	7	n/a	n/a	n/a	29	11	2	8	1
4218.1	n/a	PROB	2109050	n/a	LTP317	ltpFR2	7	n/a	n/a	n/a	29	10	1	5	4
4219.716	n/a	PROB	2109858	n/a	LTP317	ltpFR2	7	n/a	n/a	n/a	29	11	6	3	2
4221.034	n/a	PROB	2110517	n/a	LTP317	ltpFR2	7	n/a	n/a	n/a	29	8	1	2	5
4223.202	n/a	PROB	2111601	n/a	LTP317	ltpFR2	7	n/a	n/a	n/a	29	19	8	4	7
4224.636	n/a	PROB	2112318	n/a	LTP317	ltpFR2	7	n/a	n/a	n/a	29	14	8	4	2
4226.006	n/a	PROB	2113003	n/a	LTP317	ltpFR2	7	n/a	n/a	n/a	29	15	6	7	2
4227.104	n/a	PROB	2113552	n/a	LTP317	ltpFR2	7	n/a	n/a	n/a	29	12	1	9	2
4229.474	n/a	PROB	2114737	n/a	LTP317	ltpFR2	7	n/a	n/a	n/a	29	19	4	8	7
4231.174	n/a	PROB	2115587	n/a	LTP317	ltpFR2	7	n/a	n/a	n/a	29	11	3	3	5
4233.56	n/a	PROB	2116780	n/a	LTP317	ltpFR2	7	n/a	n/a	n/a	29	13	7	4	2
4235.184	n/a	STOP	2117592	n/a	LTP317	ltpFR2	7	n/a	n/a	n/a	29	n/a	n/a	n/a	n/a
4236.37	n/a	WORD	2118185	wordpools/wasnorm_wordpool_576.txt	LTP317	ltpFR2	7	20	PICTURE	1061	n/a	n/a	0	0	0
4238.788	n/a	WORD	2119394	wordpools/wasnorm_wordpool_576.txt	LTP317	ltpFR2	7	20	VICTIM	1562	n/a	n/a	0	0	0
4241.45	n/a	WORD	2120725	wordpools/wasnorm_wordpool_576.txt	LTP317	ltpFR2	7	20	LAVA	804	n/a	n/a	0	0	0
4244.126	n/a	WORD	2122063	wordpools/wasnorm_wordpool_576.txt	LTP317	ltpFR2	7	20	SUNSET	1408	n/a	n/a	0	0	0
4246.58	n/a	WORD	2123290	wordpools/wasnorm_wordpool_576.txt	LTP317	ltpFR2	7	20	RECEIPT	1173	n/a	n/a	0	0	0
4249.332	n/a	WORD	2124666	wordpools/wasnorm_wordpool_576.txt	LTP317	ltpFR2	7	20	PEDAL	1037	n/a	n/a	0	0	0
4251.984	n/a	WORD	2125992	wordpools/wasnorm_wordpool_576.txt	LTP317	ltpFR2	7	20	HELMET	702	n/a	n/a	0	0	0
4254.66	n/a	WORD	2127330	wordpools/wasnorm_wordpool_576.txt	LTP317	ltpFR2	7	20	LEADER	807	n/a	n/a	0	0	0
4257.256	n/a	WORD	2128628	wordpools/wasnorm_wordpool_576.txt	LTP317	ltpFR2	7	20	BADGE	68	n/a	n/a	0	0	0
4260.058	n/a	WORD	2130029	wordpools/wasnorm_wordpool_576.txt	LTP317	ltpFR2	7	20	HOUND	724	n/a	n/a	0	0	0
4262.734	n/a	WORD	2131367	wordpools/wasnorm_wordpool_576.txt	LTP317	ltpFR2	7	20	TOMBSTONE	1478	n/a	n/a	0	0	0
4265.446	n/a	WORD	2132723	wordpools/wasnorm_wordpool_576.txt	LTP317	ltpFR2	7	20	CAPTIVE	240	n/a	n/a	0	0	0
4267.87	n/a	WORD	2133935	wordpools/wasnorm_wordpool_576.txt	LTP317	ltpFR2	7	20	SUBWAY	1400	n/a	n/a	0	0	0
4270.634	n/a	WORD	2135317	wordpools/wasnorm_wordpool_576.txt	LTP317	ltpFR2	7	20	LAGOON	795	n/a	n/a	0	0	0
4273.052	n/a	WORD	2136526	wordpools/wasnorm_wordpool_576.txt	LTP317	ltpFR2	7	20	FLIPPER	580	n/a	n/a	0	0	0
4275.554	n/a	WORD	2137777	wordpools/wasnorm_wordpool_576.txt	LTP317	ltpFR2	7	20	JAPAN	749	n/a	n/a	0	0	0
4278.194	n/a	WORD	2139097	wordpools/wasnorm_wordpool_576.txt	LTP317	ltpFR2	7	20	SWORD	1423	n/a	n/a	0	0	0
4280.808	n/a	WORD	2140404	wordpools/wasnorm_wordpool_576.txt	LTP317	ltpFR2	7	20	SPOON	1357	n/a	n/a	0	0	0
4283.444	n/a	WORD	2141722	wordpools/wasnorm_wordpool_576.txt	LTP317	ltpFR2	7	20	CLIMBER	323	n/a	n/a	0	0	0
4285.9	n/a	WORD	2142950	wordpools/wasnorm_wordpool_576.txt	LTP317	ltpFR2	7	20	CROSS	413	n/a	n/a	0	0	0
4288.716	n/a	WORD	2144358	wordpools/wasnorm_wordpool_576.txt	LTP317	ltpFR2	7	20	SPOOL	1356	n/a	n/a	0	0	0
4291.184	n/a	WORD	2145592	wordpools/wasnorm_wordpool_576.txt	LTP317	ltpFR2	7	20	PATROL	1027	n/a	n/a	0	0	0
4293.802	n/a	WORD	2146901	wordpools/wasnorm_wordpool_576.txt	LTP317	ltpFR2	7	20	WIDOW	1608	n/a	n/a	0	0	0
4296.322	n/a	WORD	2148161	wordpools/wasnorm_wordpool_576.txt	LTP317	ltpFR2	7	20	SCRIBBLE	1256	n/a	n/a	0	0	0
4297.928	n/a	START	2148964	n/a	LTP317	ltpFR2	7	n/a	n/a	n/a	30	n/a	n/a	n/a	n/a
4298.87	n/a	DISTRACTOR	2149435	n/a	LTP317	ltpFR2	7	20	n/a	n/a	n/a	n/a	0	0	0
4298.878	n/a	PROB	2149439	n/a	LTP317	ltpFR2	7	n/a	n/a	n/a	30	19	5	6	8
4301.066	n/a	PROB	2150533	n/a	LTP317	ltpFR2	7	n/a	n/a	n/a	30	15	5	7	3
4302.464	n/a	PROB	2151232	n/a	LTP317	ltpFR2	7	n/a	n/a	n/a	30	16	8	2	6
4304.584	n/a	PROB	2152292	n/a	LTP317	ltpFR2	7	n/a	n/a	n/a	30	20	8	8	4
4306.066	n/a	PROB	2153033	n/a	LTP317	ltpFR2	7	n/a	n/a	n/a	30	20	7	7	6
4307.504	n/a	PROB	2153752	n/a	LTP317	ltpFR2	7	n/a	n/a	n/a	30	19	7	9	3
4308.97	n/a	PROB	2154485	n/a	LTP317	ltpFR2	7	n/a	n/a	n/a	30	17	6	3	8
4311.222	n/a	PROB	2155611	n/a	LTP317	ltpFR2	7	n/a	n/a	n/a	30	18	3	6	9
4312.518	n/a	PROB	2156259	n/a	LTP317	ltpFR2	7	n/a	n/a	n/a	30	15	4	2	9
4313.874	n/a	PROB	2156937	n/a	LTP317	ltpFR2	7	n/a	n/a	n/a	30	9	6	1	2
4315.508	n/a	PROB	2157754	n/a	LTP317	ltpFR2	7	n/a	n/a	n/a	30	14	7	1	6
4317.06	n/a	PROB	2158530	n/a	LTP317	ltpFR2	7	n/a	n/a	n/a	30	13	1	3	9
4320.226	n/a	PROB	2160113	n/a	LTP317	ltpFR2	7	n/a	n/a	n/a	30	11	1	1	9
4321.474	n/a	STOP	2160737	n/a	LTP317	ltpFR2	7	n/a	n/a	n/a	30	n/a	n/a	n/a	n/a
4323.876	n/a	REC_START	2161938	n/a	LTP317	ltpFR2	7	20	n/a	n/a	n/a	n/a	0	0	0
4324.606	n/a	REC_WORD	2162303	wordpools/wasnorm_wordpool_576.txt	LTP317	ltpFR2	7	20	SUBWAY	1400	n/a	n/a	0	0	0
4325.552	n/a	REC_WORD	2162776	wordpools/wasnorm_wordpool_576.txt	LTP317	ltpFR2	7	20	FLIPPER	580	n/a	n/a	0	0	0
4326.424	n/a	REC_WORD	2163212	wordpools/wasnorm_wordpool_576.txt	LTP317	ltpFR2	7	20	LAGOON	795	n/a	n/a	0	0	0
4327.312	n/a	REC_WORD	2163656	wordpools/wasnorm_wordpool_576.txt	LTP317	ltpFR2	7	20	JAPAN	749	n/a	n/a	0	0	0
4328.814	n/a	REC_WORD	2164407	wordpools/wasnorm_wordpool_576.txt	LTP317	ltpFR2	7	20	SPOON	1357	n/a	n/a	0	0	0
