mstime	trial_type	stim_file	subject	experiment	session	trial	item_name	item_num	list	answer	test_x	test_y	test_z
0	SESS_START	n/a	LTP362	ltpFR2	12	n/a	n/a	n/a	n/a	n/a	0	0	0
12714	START	n/a	LTP362	ltpFR2	12	n/a	n/a	n/a	-1	n/a	n/a	n/a	n/a
12744	PROB	n/a	LTP362	ltpFR2	12	n/a	n/a	n/a	-1	10	7	1	2
15375	PROB	n/a	LTP362	ltpFR2	12	n/a	n/a	n/a	-1	15	9	5	1
16809	PROB	n/a	LTP362	ltpFR2	12	n/a	n/a	n/a	-1	17	7	3	7
17942	PROB	n/a	LTP362	ltpFR2	12	n/a	n/a	n/a	-1	14	8	4	2
19008	PROB	n/a	LTP362	ltpFR2	12	n/a	n/a	n/a	-1	19	7	5	7
20356	PROB	n/a	LTP362	ltpFR2	12	n/a	n/a	n/a	-1	12	2	6	4
22222	PROB	n/a	LTP362	ltpFR2	12	n/a	n/a	n/a	-1	10	4	1	5
23217	STOP	n/a	LTP362	ltpFR2	12	n/a	n/a	n/a	-1	n/a	n/a	n/a	n/a
53824	WORD	wordpools/wasnorm_wordpool_576.txt	LTP362	ltpFR2	12	1	DANCER	437	n/a	n/a	0	0	0
56255	WORD	wordpools/wasnorm_wordpool_576.txt	LTP362	ltpFR2	12	1	TUTU	1524	n/a	n/a	0	0	0
58721	WORD	wordpools/wasnorm_wordpool_576.txt	LTP362	ltpFR2	12	1	WHISTLE	1606	n/a	n/a	0	0	0
61153	WORD	wordpools/wasnorm_wordpool_576.txt	LTP362	ltpFR2	12	1	THIEF	1456	n/a	n/a	0	0	0
63685	WORD	wordpools/wasnorm_wordpool_576.txt	LTP362	ltpFR2	12	1	GREASE	660	n/a	n/a	0	0	0
66250	WORD	wordpools/wasnorm_wordpool_576.txt	LTP362	ltpFR2	12	1	PUDDING	1139	n/a	n/a	0	0	0
68833	WORD	wordpools/wasnorm_wordpool_576.txt	LTP362	ltpFR2	12	1	KNAPSACK	783	n/a	n/a	0	0	0
71632	WORD	wordpools/wasnorm_wordpool_576.txt	LTP362	ltpFR2	12	1	SNACK	1331	n/a	n/a	0	0	0
74446	WORD	wordpools/wasnorm_wordpool_576.txt	LTP362	ltpFR2	12	1	BANQUET	86	n/a	n/a	0	0	0
76879	WORD	wordpools/wasnorm_wordpool_576.txt	LTP362	ltpFR2	12	1	FRAME	600	n/a	n/a	0	0	0
79343	WORD	wordpools/wasnorm_wordpool_576.txt	LTP362	ltpFR2	12	1	DASHBOARD	441	n/a	n/a	0	0	0
81793	WORD	wordpools/wasnorm_wordpool_576.txt	LTP362	ltpFR2	12	1	BLACKBOARD	133	n/a	n/a	0	0	0
84607	WORD	wordpools/wasnorm_wordpool_576.txt	LTP362	ltpFR2	12	1	COLLEGE	346	n/a	n/a	0	0	0
87373	WORD	wordpools/wasnorm_wordpool_576.txt	LTP362	ltpFR2	12	1	TUNNEL	1519	n/a	n/a	0	0	0
90022	WORD	wordpools/wasnorm_wordpool_576.txt	LTP362	ltpFR2	12	1	PADDLE	1000	n/a	n/a	0	0	0
92738	WORD	wordpools/wasnorm_wordpool_576.txt	LTP362	ltpFR2	12	1	GAZELLE	628	n/a	n/a	0	0	0
95552	WORD	wordpools/wasnorm_wordpool_576.txt	LTP362	ltpFR2	12	1	PARENT	1013	n/a	n/a	0	0	0
98068	WORD	wordpools/wasnorm_wordpool_576.txt	LTP362	ltpFR2	12	1	PICTURE	1061	n/a	n/a	0	0	0
100884	WORD	wordpools/wasnorm_wordpool_576.txt	LTP362	ltpFR2	12	1	HANDBAG	684	n/a	n/a	0	0	0
103431	WORD	wordpools/wasnorm_wordpool_576.txt	LTP362	ltpFR2	12	1	CHEMIST	292	n/a	n/a	0	0	0
105898	WORD	wordpools/wasnorm_wordpool_576.txt	LTP362	ltpFR2	12	1	GYMNAST	675	n/a	n/a	0	0	0
108595	WORD	wordpools/wasnorm_wordpool_576.txt	LTP362	ltpFR2	12	1	KLEENEX	782	n/a	n/a	0	0	0
111145	WORD	wordpools/wasnorm_wordpool_576.txt	LTP362	ltpFR2	12	1	PAPER	1011	n/a	n/a	0	0	0
113694	WORD	wordpools/wasnorm_wordpool_576.txt	LTP362	ltpFR2	12	1	HERO	706	n/a	n/a	0	0	0
115309	START	n/a	LTP362	ltpFR2	12	n/a	n/a	n/a	1	n/a	n/a	n/a	n/a
116200	DISTRACTOR	n/a	LTP362	ltpFR2	12	1	n/a	n/a	n/a	n/a	0	0	0
116208	PROB	n/a	LTP362	ltpFR2	12	n/a	n/a	n/a	1	17	8	3	6
118708	PROB	n/a	LTP362	ltpFR2	12	n/a	n/a	n/a	1	19	7	6	6
120041	PROB	n/a	LTP362	ltpFR2	12	n/a	n/a	n/a	1	24	8	9	7
121823	PROB	n/a	LTP362	ltpFR2	12	n/a	n/a	n/a	1	8	5	1	2
122906	PROB	n/a	LTP362	ltpFR2	12	n/a	n/a	n/a	1	13	3	2	8
123972	PROB	n/a	LTP362	ltpFR2	12	n/a	n/a	n/a	1	13	1	5	7
125587	PROB	n/a	LTP362	ltpFR2	12	n/a	n/a	n/a	1	19	9	7	5
127720	PROB	n/a	LTP362	ltpFR2	12	n/a	n/a	n/a	1	18	7	7	4
129953	PROB	n/a	LTP362	ltpFR2	12	n/a	n/a	n/a	1	9	2	1	6
130969	PROB	n/a	LTP362	ltpFR2	12	n/a	n/a	n/a	1	13	3	9	1
132068	PROB	n/a	LTP362	ltpFR2	12	n/a	n/a	n/a	1	13	4	8	1
134067	PROB	n/a	LTP362	ltpFR2	12	n/a	n/a	n/a	1	20	6	8	6
135465	PROB	n/a	LTP362	ltpFR2	12	n/a	n/a	n/a	1	11	7	3	1
136548	PROB	n/a	LTP362	ltpFR2	12	n/a	n/a	n/a	1	13	3	7	3
139309	STOP	n/a	LTP362	ltpFR2	12	n/a	n/a	n/a	1	n/a	n/a	n/a	n/a
141197	REC_START	n/a	LTP362	ltpFR2	12	1	n/a	n/a	n/a	n/a	0	0	0
141604	REC_WORD	wordpools/wasnorm_wordpool_576.txt	LTP362	ltpFR2	12	1	THIEF	1456	n/a	n/a	0	0	0
144247	REC_WORD	wordpools/wasnorm_wordpool_576.txt	LTP362	ltpFR2	12	1	DANCER	437	n/a	n/a	0	0	0
144973	REC_WORD	wordpools/wasnorm_wordpool_576.txt	LTP362	ltpFR2	12	1	TUTU	1524	n/a	n/a	0	0	0
145981	REC_WORD	wordpools/wasnorm_wordpool_576.txt	LTP362	ltpFR2	12	1	CHEMIST	292	n/a	n/a	0	0	0
146753	REC_WORD	wordpools/wasnorm_wordpool_576.txt	LTP362	ltpFR2	12	1	HERO	706	n/a	n/a	0	0	0
149267	REC_WORD	wordpools/wasnorm_wordpool_576.txt	LTP362	ltpFR2	12	1	PICTURE	1061	n/a	n/a	0	0	0
167575	REC_WORD	wordpools/wasnorm_wordpool_576.txt	LTP362	ltpFR2	12	1	THIEF	1456	n/a	n/a	0	0	0
169148	REC_WORD	wordpools/wasnorm_wordpool_576.txt	LTP362	ltpFR2	12	1	KLEENEX	782	n/a	n/a	0	0	0
179009	REC_WORD	wordpools/wasnorm_wordpool_576.txt	LTP362	ltpFR2	12	1	GYMNAST	675	n/a	n/a	0	0	0
212513	REC_WORD	wordpools/wasnorm_wordpool_576.txt	LTP362	ltpFR2	12	1	THIEF	1456	n/a	n/a	0	0	0
231635	DISTRACTOR	n/a	LTP362	ltpFR2	12	2	n/a	n/a	n/a	n/a	0	0	0
231636	START	n/a	LTP362	ltpFR2	12	n/a	n/a	n/a	2	n/a	n/a	n/a	n/a
231652	PROB	n/a	LTP362	ltpFR2	12	n/a	n/a	n/a	2	13	8	4	1
233051	PROB	n/a	LTP362	ltpFR2	12	n/a	n/a	n/a	2	9	6	1	2
236315	PROB	n/a	LTP362	ltpFR2	12	n/a	n/a	n/a	2	11	5	5	1
237465	PROB	n/a	LTP362	ltpFR2	12	n/a	n/a	n/a	2	16	5	5	6
238448	PROB	n/a	LTP362	ltpFR2	12	n/a	n/a	n/a	2	14	4	9	1
239748	PROB	n/a	LTP362	ltpFR2	12	n/a	n/a	n/a	2	19	7	8	4
241147	PROB	n/a	LTP362	ltpFR2	12	n/a	n/a	n/a	2	9	1	3	5
242196	PROB	n/a	LTP362	ltpFR2	12	n/a	n/a	n/a	2	13	2	2	9
243395	PROB	n/a	LTP362	ltpFR2	12	n/a	n/a	n/a	2	13	7	5	1
245344	PROB	n/a	LTP362	ltpFR2	12	n/a	n/a	n/a	2	23	9	8	5
249127	PROB	n/a	LTP362	ltpFR2	12	n/a	n/a	n/a	2	6	3	1	2
250826	PROB	n/a	LTP362	ltpFR2	12	n/a	n/a	n/a	2	7	1	2	4
253108	PROB	n/a	LTP362	ltpFR2	12	n/a	n/a	n/a	2	10	4	1	5
255050	STOP	n/a	LTP362	ltpFR2	12	n/a	n/a	n/a	2	n/a	n/a	n/a	n/a
256555	WORD	wordpools/wasnorm_wordpool_576.txt	LTP362	ltpFR2	12	2	CELLAR	267	n/a	n/a	0	0	0
259088	WORD	wordpools/wasnorm_wordpool_576.txt	LTP362	ltpFR2	12	2	LEOPARD	812	n/a	n/a	0	0	0
261737	WORD	wordpools/wasnorm_wordpool_576.txt	LTP362	ltpFR2	12	2	TYPIST	1532	n/a	n/a	0	0	0
264268	WORD	wordpools/wasnorm_wordpool_576.txt	LTP362	ltpFR2	12	2	OFFICE	972	n/a	n/a	0	0	0
266718	WORD	wordpools/wasnorm_wordpool_576.txt	LTP362	ltpFR2	12	2	GRIZZLY	662	n/a	n/a	0	0	0
269382	WORD	wordpools/wasnorm_wordpool_576.txt	LTP362	ltpFR2	12	2	WASHER	1592	n/a	n/a	0	0	0
272132	WORD	wordpools/wasnorm_wordpool_576.txt	LTP362	ltpFR2	12	2	BUBBLE	183	n/a	n/a	0	0	0
274814	WORD	wordpools/wasnorm_wordpool_576.txt	LTP362	ltpFR2	12	2	GHETTO	633	n/a	n/a	0	0	0
277378	WORD	wordpools/wasnorm_wordpool_576.txt	LTP362	ltpFR2	12	2	FRIEND	606	n/a	n/a	0	0	0
280178	WORD	wordpools/wasnorm_wordpool_576.txt	LTP362	ltpFR2	12	2	GIRL	637	n/a	n/a	0	0	0
282627	WORD	wordpools/wasnorm_wordpool_576.txt	LTP362	ltpFR2	12	2	BLOCKADE	137	n/a	n/a	0	0	0
285159	WORD	wordpools/wasnorm_wordpool_576.txt	LTP362	ltpFR2	12	2	CRAYON	401	n/a	n/a	0	0	0
287874	WORD	wordpools/wasnorm_wordpool_576.txt	LTP362	ltpFR2	12	2	TRACTOR	1493	n/a	n/a	0	0	0
290588	WORD	wordpools/wasnorm_wordpool_576.txt	LTP362	ltpFR2	12	2	CATCHER	258	n/a	n/a	0	0	0
293404	WORD	wordpools/wasnorm_wordpool_576.txt	LTP362	ltpFR2	12	2	BRANCH	168	n/a	n/a	0	0	0
296053	WORD	wordpools/wasnorm_wordpool_576.txt	LTP362	ltpFR2	12	2	CHAMPAGNE	278	n/a	n/a	0	0	0
298769	WORD	wordpools/wasnorm_wordpool_576.txt	LTP362	ltpFR2	12	2	SEAGULL	1261	n/a	n/a	0	0	0
301450	WORD	wordpools/wasnorm_wordpool_576.txt	LTP362	ltpFR2	12	2	BASEMENT	94	n/a	n/a	0	0	0
303900	WORD	wordpools/wasnorm_wordpool_576.txt	LTP362	ltpFR2	12	2	PEANUT	1032	n/a	n/a	0	0	0
306547	WORD	wordpools/wasnorm_wordpool_576.txt	LTP362	ltpFR2	12	2	CHEST	295	n/a	n/a	0	0	0
309213	WORD	wordpools/wasnorm_wordpool_576.txt	LTP362	ltpFR2	12	2	REPORT	1184	n/a	n/a	0	0	0
311929	WORD	wordpools/wasnorm_wordpool_576.txt	LTP362	ltpFR2	12	2	BRIEFCASE	175	n/a	n/a	0	0	0
314610	WORD	wordpools/wasnorm_wordpool_576.txt	LTP362	ltpFR2	12	2	WINDOW	1611	n/a	n/a	0	0	0
317192	WORD	wordpools/wasnorm_wordpool_576.txt	LTP362	ltpFR2	12	2	LION	827	n/a	n/a	0	0	0
318809	START	n/a	LTP362	ltpFR2	12	n/a	n/a	n/a	3	n/a	n/a	n/a	n/a
319853	DISTRACTOR	n/a	LTP362	ltpFR2	12	2	n/a	n/a	n/a	n/a	0	0	0
319858	PROB	n/a	LTP362	ltpFR2	12	n/a	n/a	n/a	3	24	9	7	8
321657	PROB	n/a	LTP362	ltpFR2	12	n/a	n/a	n/a	3	11	6	4	1
322740	PROB	n/a	LTP362	ltpFR2	12	n/a	n/a	n/a	3	9	2	3	4
324605	PROB	n/a	LTP362	ltpFR2	12	n/a	n/a	n/a	3	13	1	5	7
326105	PROB	n/a	LTP362	ltpFR2	12	n/a	n/a	n/a	3	11	3	7	1
327237	PROB	n/a	LTP362	ltpFR2	12	n/a	n/a	n/a	3	15	4	7	4
328536	PROB	n/a	LTP362	ltpFR2	12	n/a	n/a	n/a	3	19	2	9	8
329620	PROB	n/a	LTP362	ltpFR2	12	n/a	n/a	n/a	3	19	8	6	5
331003	PROB	n/a	LTP362	ltpFR2	12	n/a	n/a	n/a	3	21	7	8	6
333267	PROB	n/a	LTP362	ltpFR2	12	n/a	n/a	n/a	3	19	9	4	6
334567	PROB	n/a	LTP362	ltpFR2	12	n/a	n/a	n/a	3	18	6	8	4
335834	PROB	n/a	LTP362	ltpFR2	12	n/a	n/a	n/a	3	23	8	5	9
339632	PROB	n/a	LTP362	ltpFR2	12	n/a	n/a	n/a	3	18	7	9	2
341425	STOP	n/a	LTP362	ltpFR2	12	n/a	n/a	n/a	3	n/a	n/a	n/a	n/a
344612	REC_START	n/a	LTP362	ltpFR2	12	2	n/a	n/a	n/a	n/a	0	0	0
346355	REC_WORD	wordpools/wasnorm_wordpool_576.txt	LTP362	ltpFR2	12	2	CELLAR	267	n/a	n/a	0	0	0
347627	REC_WORD	wordpools/wasnorm_wordpool_576.txt	LTP362	ltpFR2	12	2	TYPIST	1532	n/a	n/a	0	0	0
356905	REC_WORD	wordpools/wasnorm_wordpool_576.txt	LTP362	ltpFR2	12	2	LEOPARD	812	n/a	n/a	0	0	0
362977	REC_WORD	wordpools/wasnorm_wordpool_576.txt	LTP362	ltpFR2	12	2	COMPASS	358	n/a	n/a	0	0	0
435101	DISTRACTOR	n/a	LTP362	ltpFR2	12	3	n/a	n/a	n/a	n/a	0	0	0
435101	START	n/a	LTP362	ltpFR2	12	n/a	n/a	n/a	4	n/a	n/a	n/a	n/a
435118	PROB	n/a	LTP362	ltpFR2	12	n/a	n/a	n/a	4	9	6	1	2
436151	PROB	n/a	LTP362	ltpFR2	12	n/a	n/a	n/a	4	15	3	7	5
437266	PROB	n/a	LTP362	ltpFR2	12	n/a	n/a	n/a	4	13	3	2	8
438649	PROB	n/a	LTP362	ltpFR2	12	n/a	n/a	n/a	4	13	9	3	1
439915	PROB	n/a	LTP362	ltpFR2	12	n/a	n/a	n/a	4	13	4	7	2
441280	PROB	n/a	LTP362	ltpFR2	12	n/a	n/a	n/a	4	8	4	3	1
442714	PROB	n/a	LTP362	ltpFR2	12	n/a	n/a	n/a	4	16	5	4	7
444345	PROB	n/a	LTP362	ltpFR2	12	n/a	n/a	n/a	4	12	8	1	3
445679	PROB	n/a	LTP362	ltpFR2	12	n/a	n/a	n/a	4	11	1	4	6
446745	PROB	n/a	LTP362	ltpFR2	12	n/a	n/a	n/a	4	16	5	6	5
447928	PROB	n/a	LTP362	ltpFR2	12	n/a	n/a	n/a	4	13	2	4	7
449810	PROB	n/a	LTP362	ltpFR2	12	n/a	n/a	n/a	4	15	6	3	6
451093	PROB	n/a	LTP362	ltpFR2	12	n/a	n/a	n/a	4	12	6	5	1
452341	PROB	n/a	LTP362	ltpFR2	12	n/a	n/a	n/a	4	23	8	7	7
455257	PROB	n/a	LTP362	ltpFR2	12	n/a	n/a	n/a	4	11	7	2	2
456674	PROB	n/a	LTP362	ltpFR2	12	n/a	n/a	n/a	4	20	5	7	8
458890	STOP	n/a	LTP362	ltpFR2	12	n/a	n/a	n/a	4	n/a	n/a	n/a	n/a
460072	WORD	wordpools/wasnorm_wordpool_576.txt	LTP362	ltpFR2	12	3	ISLAND	745	n/a	n/a	0	0	0
462887	WORD	wordpools/wasnorm_wordpool_576.txt	LTP362	ltpFR2	12	3	MARINE	869	n/a	n/a	0	0	0
465402	WORD	wordpools/wasnorm_wordpool_576.txt	LTP362	ltpFR2	12	3	BELLY	119	n/a	n/a	0	0	0
467935	WORD	wordpools/wasnorm_wordpool_576.txt	LTP362	ltpFR2	12	3	CONTRACT	368	n/a	n/a	0	0	0
470499	WORD	wordpools/wasnorm_wordpool_576.txt	LTP362	ltpFR2	12	3	MOP	916	n/a	n/a	0	0	0
473248	WORD	wordpools/wasnorm_wordpool_576.txt	LTP362	ltpFR2	12	3	SWORD	1423	n/a	n/a	0	0	0
475698	WORD	wordpools/wasnorm_wordpool_576.txt	LTP362	ltpFR2	12	3	LOVER	846	n/a	n/a	0	0	0
478279	WORD	wordpools/wasnorm_wordpool_576.txt	LTP362	ltpFR2	12	3	TOASTER	1472	n/a	n/a	0	0	0
481045	WORD	wordpools/wasnorm_wordpool_576.txt	LTP362	ltpFR2	12	3	KITCHEN	778	n/a	n/a	0	0	0
483694	WORD	wordpools/wasnorm_wordpool_576.txt	LTP362	ltpFR2	12	3	NIGHTGOWN	953	n/a	n/a	0	0	0
486475	WORD	wordpools/wasnorm_wordpool_576.txt	LTP362	ltpFR2	12	3	LUNCH	849	n/a	n/a	0	0	0
488924	WORD	wordpools/wasnorm_wordpool_576.txt	LTP362	ltpFR2	12	3	RIVER	1194	n/a	n/a	0	0	0
491389	WORD	wordpools/wasnorm_wordpool_576.txt	LTP362	ltpFR2	12	3	LEADER	807	n/a	n/a	0	0	0
494022	WORD	wordpools/wasnorm_wordpool_576.txt	LTP362	ltpFR2	12	3	COOK	372	n/a	n/a	0	0	0
496453	WORD	wordpools/wasnorm_wordpool_576.txt	LTP362	ltpFR2	12	3	FARMER	553	n/a	n/a	0	0	0
499119	WORD	wordpools/wasnorm_wordpool_576.txt	LTP362	ltpFR2	12	3	HOOK	715	n/a	n/a	0	0	0
501785	WORD	wordpools/wasnorm_wordpool_576.txt	LTP362	ltpFR2	12	3	COOKBOOK	373	n/a	n/a	0	0	0
504366	WORD	wordpools/wasnorm_wordpool_576.txt	LTP362	ltpFR2	12	3	VALLEY	1545	n/a	n/a	0	0	0
506915	WORD	wordpools/wasnorm_wordpool_576.txt	LTP362	ltpFR2	12	3	PADDING	999	n/a	n/a	0	0	0
509647	WORD	wordpools/wasnorm_wordpool_576.txt	LTP362	ltpFR2	12	3	JUDGE	761	n/a	n/a	0	0	0
512378	WORD	wordpools/wasnorm_wordpool_576.txt	LTP362	ltpFR2	12	3	SWIMMER	1420	n/a	n/a	0	0	0
514978	WORD	wordpools/wasnorm_wordpool_576.txt	LTP362	ltpFR2	12	3	ROBBER	1197	n/a	n/a	0	0	0
517743	WORD	wordpools/wasnorm_wordpool_576.txt	LTP362	ltpFR2	12	3	OUTLAW	989	n/a	n/a	0	0	0
520175	WORD	wordpools/wasnorm_wordpool_576.txt	LTP362	ltpFR2	12	3	VIRUS	1572	n/a	n/a	0	0	0
521791	START	n/a	LTP362	ltpFR2	12	n/a	n/a	n/a	5	n/a	n/a	n/a	n/a
522674	DISTRACTOR	n/a	LTP362	ltpFR2	12	3	n/a	n/a	n/a	n/a	0	0	0
522691	PROB	n/a	LTP362	ltpFR2	12	n/a	n/a	n/a	5	26	9	9	8
524856	PROB	n/a	LTP362	ltpFR2	12	n/a	n/a	n/a	5	18	6	7	5
527172	PROB	n/a	LTP362	ltpFR2	12	n/a	n/a	n/a	5	12	5	5	2
528171	PROB	n/a	LTP362	ltpFR2	12	n/a	n/a	n/a	5	15	6	6	3
529621	PROB	n/a	LTP362	ltpFR2	12	n/a	n/a	n/a	5	21	9	3	9
531286	PROB	n/a	LTP362	ltpFR2	12	n/a	n/a	n/a	5	24	9	6	9
533685	PROB	n/a	LTP362	ltpFR2	12	n/a	n/a	n/a	5	14	1	5	8
535484	PROB	n/a	LTP362	ltpFR2	12	n/a	n/a	n/a	5	22	8	7	7
537399	PROB	n/a	LTP362	ltpFR2	12	n/a	n/a	n/a	5	12	7	2	3
540531	PROB	n/a	LTP362	ltpFR2	12	n/a	n/a	n/a	5	14	4	3	7
541881	PROB	n/a	LTP362	ltpFR2	12	n/a	n/a	n/a	5	17	2	7	7
543164	PROB	n/a	LTP362	ltpFR2	12	n/a	n/a	n/a	5	21	8	7	6
545193	STOP	n/a	LTP362	ltpFR2	12	n/a	n/a	n/a	5	n/a	n/a	n/a	n/a
547629	REC_START	n/a	LTP362	ltpFR2	12	3	n/a	n/a	n/a	n/a	0	0	0
548652	REC_WORD	wordpools/wasnorm_wordpool_576.txt	LTP362	ltpFR2	12	3	LOVER	846	n/a	n/a	0	0	0
549110	REC_WORD	wordpools/wasnorm_wordpool_576.txt	LTP362	ltpFR2	12	3	SWORD	1423	n/a	n/a	0	0	0
549757	REC_WORD	wordpools/wasnorm_wordpool_576.txt	LTP362	ltpFR2	12	3	MARINE	869	n/a	n/a	0	0	0
551934	REC_WORD	wordpools/wasnorm_wordpool_576.txt	LTP362	ltpFR2	12	3	ISLAND	745	n/a	n/a	0	0	0
553011	REC_WORD	wordpools/wasnorm_wordpool_576.txt	LTP362	ltpFR2	12	3	KITCHEN	778	n/a	n/a	0	0	0
553643	REC_WORD	wordpools/wasnorm_wordpool_576.txt	LTP362	ltpFR2	12	3	TOASTER	1472	n/a	n/a	0	0	0
554355	REC_WORD	wordpools/wasnorm_wordpool_576.txt	LTP362	ltpFR2	12	3	OUTLAW	989	n/a	n/a	0	0	0
558183	REC_WORD	wordpools/wasnorm_wordpool_576.txt	LTP362	ltpFR2	12	3	VICTIM	1562	n/a	n/a	0	0	0
638084	DISTRACTOR	n/a	LTP362	ltpFR2	12	4	n/a	n/a	n/a	n/a	0	0	0
638084	START	n/a	LTP362	ltpFR2	12	n/a	n/a	n/a	6	n/a	n/a	n/a	n/a
638100	PROB	n/a	LTP362	ltpFR2	12	n/a	n/a	n/a	6	7	1	1	5
639133	PROB	n/a	LTP362	ltpFR2	12	n/a	n/a	n/a	6	8	5	2	1
640166	PROB	n/a	LTP362	ltpFR2	12	n/a	n/a	n/a	6	10	2	2	6
641381	PROB	n/a	LTP362	ltpFR2	12	n/a	n/a	n/a	6	17	1	7	9
642530	PROB	n/a	LTP362	ltpFR2	12	n/a	n/a	n/a	6	9	5	3	1
643681	PROB	n/a	LTP362	ltpFR2	12	n/a	n/a	n/a	6	16	9	1	6
645113	PROB	n/a	LTP362	ltpFR2	12	n/a	n/a	n/a	6	15	7	3	5
646328	PROB	n/a	LTP362	ltpFR2	12	n/a	n/a	n/a	6	13	1	3	9
647611	PROB	n/a	LTP362	ltpFR2	12	n/a	n/a	n/a	6	19	6	4	9
648878	PROB	n/a	LTP362	ltpFR2	12	n/a	n/a	n/a	6	18	7	5	6
652776	PROB	n/a	LTP362	ltpFR2	12	n/a	n/a	n/a	6	24	8	8	9
654358	PROB	n/a	LTP362	ltpFR2	12	n/a	n/a	n/a	6	24	8	7	9
657290	PROB	n/a	LTP362	ltpFR2	12	n/a	n/a	n/a	6	16	8	5	3
658807	PROB	n/a	LTP362	ltpFR2	12	n/a	n/a	n/a	6	22	7	7	8
660455	PROB	n/a	LTP362	ltpFR2	12	n/a	n/a	n/a	6	15	5	9	1
661690	STOP	n/a	LTP362	ltpFR2	12	n/a	n/a	n/a	6	n/a	n/a	n/a	n/a
662905	WORD	wordpools/wasnorm_wordpool_576.txt	LTP362	ltpFR2	12	4	TOMBSTONE	1478	n/a	n/a	0	0	0
665336	WORD	wordpools/wasnorm_wordpool_576.txt	LTP362	ltpFR2	12	4	HIKER	708	n/a	n/a	0	0	0
668085	WORD	wordpools/wasnorm_wordpool_576.txt	LTP362	ltpFR2	12	4	COUNTY	389	n/a	n/a	0	0	0
670616	WORD	wordpools/wasnorm_wordpool_576.txt	LTP362	ltpFR2	12	4	GROUND	666	n/a	n/a	0	0	0
673149	WORD	wordpools/wasnorm_wordpool_576.txt	LTP362	ltpFR2	12	4	TOURIST	1488	n/a	n/a	0	0	0
675614	WORD	wordpools/wasnorm_wordpool_576.txt	LTP362	ltpFR2	12	4	DORM	488	n/a	n/a	0	0	0
678346	WORD	wordpools/wasnorm_wordpool_576.txt	LTP362	ltpFR2	12	4	COLONEL	348	n/a	n/a	0	0	0
680796	WORD	wordpools/wasnorm_wordpool_576.txt	LTP362	ltpFR2	12	4	FRECKLE	602	n/a	n/a	0	0	0
683410	WORD	wordpools/wasnorm_wordpool_576.txt	LTP362	ltpFR2	12	4	PIZZA	1079	n/a	n/a	0	0	0
686093	WORD	wordpools/wasnorm_wordpool_576.txt	LTP362	ltpFR2	12	4	SILK	1307	n/a	n/a	0	0	0
688742	WORD	wordpools/wasnorm_wordpool_576.txt	LTP362	ltpFR2	12	4	VELVET	1555	n/a	n/a	0	0	0
691506	WORD	wordpools/wasnorm_wordpool_576.txt	LTP362	ltpFR2	12	4	BEAST	108	n/a	n/a	0	0	0
693939	WORD	wordpools/wasnorm_wordpool_576.txt	LTP362	ltpFR2	12	4	NURSE	963	n/a	n/a	0	0	0
696688	WORD	wordpools/wasnorm_wordpool_576.txt	LTP362	ltpFR2	12	4	ARM	38	n/a	n/a	0	0	0
699402	WORD	wordpools/wasnorm_wordpool_576.txt	LTP362	ltpFR2	12	4	RABBIT	1152	n/a	n/a	0	0	0
701919	WORD	wordpools/wasnorm_wordpool_576.txt	LTP362	ltpFR2	12	4	MAILMAN	858	n/a	n/a	0	0	0
704416	WORD	wordpools/wasnorm_wordpool_576.txt	LTP362	ltpFR2	12	4	SIDEWALK	1303	n/a	n/a	0	0	0
706849	WORD	wordpools/wasnorm_wordpool_576.txt	LTP362	ltpFR2	12	4	POSSUM	1112	n/a	n/a	0	0	0
709648	WORD	wordpools/wasnorm_wordpool_576.txt	LTP362	ltpFR2	12	4	MASK	876	n/a	n/a	0	0	0
712279	WORD	wordpools/wasnorm_wordpool_576.txt	LTP362	ltpFR2	12	4	BOX	159	n/a	n/a	0	0	0
715095	WORD	wordpools/wasnorm_wordpool_576.txt	LTP362	ltpFR2	12	4	GIFT	635	n/a	n/a	0	0	0
717610	WORD	wordpools/wasnorm_wordpool_576.txt	LTP362	ltpFR2	12	4	SEAFOOD	1260	n/a	n/a	0	0	0
720126	WORD	wordpools/wasnorm_wordpool_576.txt	LTP362	ltpFR2	12	4	SHELF	1280	n/a	n/a	0	0	0
722741	WORD	wordpools/wasnorm_wordpool_576.txt	LTP362	ltpFR2	12	4	JAPAN	749	n/a	n/a	0	0	0
724357	START	n/a	LTP362	ltpFR2	12	n/a	n/a	n/a	7	n/a	n/a	n/a	n/a
725554	DISTRACTOR	n/a	LTP362	ltpFR2	12	4	n/a	n/a	n/a	n/a	0	0	0
725556	PROB	n/a	LTP362	ltpFR2	12	n/a	n/a	n/a	7	23	9	6	8
727722	PROB	n/a	LTP362	ltpFR2	12	n/a	n/a	n/a	7	12	3	7	2
730254	PROB	n/a	LTP362	ltpFR2	12	n/a	n/a	n/a	7	12	3	7	2
731336	PROB	n/a	LTP362	ltpFR2	12	n/a	n/a	n/a	7	11	1	5	5
732369	PROB	n/a	LTP362	ltpFR2	12	n/a	n/a	n/a	7	11	3	3	5
733769	PROB	n/a	LTP362	ltpFR2	12	n/a	n/a	n/a	7	14	3	4	7
735185	PROB	n/a	LTP362	ltpFR2	12	n/a	n/a	n/a	7	15	4	4	7
737118	PROB	n/a	LTP362	ltpFR2	12	n/a	n/a	n/a	7	9	5	2	2
738283	PROB	n/a	LTP362	ltpFR2	12	n/a	n/a	n/a	7	19	9	2	8
739482	PROB	n/a	LTP362	ltpFR2	12	n/a	n/a	n/a	7	12	3	4	5
741182	PROB	n/a	LTP362	ltpFR2	12	n/a	n/a	n/a	7	12	7	1	4
742481	PROB	n/a	LTP362	ltpFR2	12	n/a	n/a	n/a	7	9	6	2	1
743563	PROB	n/a	LTP362	ltpFR2	12	n/a	n/a	n/a	7	13	2	5	6
744997	PROB	n/a	LTP362	ltpFR2	12	n/a	n/a	n/a	7	9	6	1	2
746246	PROB	n/a	LTP362	ltpFR2	12	n/a	n/a	n/a	7	11	3	7	1
747337	STOP	n/a	LTP362	ltpFR2	12	n/a	n/a	n/a	7	n/a	n/a	n/a	n/a
750129	REC_START	n/a	LTP362	ltpFR2	12	4	n/a	n/a	n/a	n/a	0	0	0
755061	REC_WORD	wordpools/wasnorm_wordpool_576.txt	LTP362	ltpFR2	12	4	TOMBSTONE	1478	n/a	n/a	0	0	0
756022	REC_WORD	wordpools/wasnorm_wordpool_576.txt	LTP362	ltpFR2	12	4	COLONEL	348	n/a	n/a	0	0	0
756695	REC_WORD	wordpools/wasnorm_wordpool_576.txt	LTP362	ltpFR2	12	4	HIKER	708	n/a	n/a	0	0	0
757692	REC_WORD	wordpools/wasnorm_wordpool_576.txt	LTP362	ltpFR2	12	4	GROUND	666	n/a	n/a	0	0	0
758480	REC_WORD	wordpools/wasnorm_wordpool_576.txt	LTP362	ltpFR2	12	4	TOURIST	1488	n/a	n/a	0	0	0
759200	REC_WORD	wordpools/wasnorm_wordpool_576.txt	LTP362	ltpFR2	12	4	VELVET	1555	n/a	n/a	0	0	0
760103	REC_WORD	wordpools/wasnorm_wordpool_576.txt	LTP362	ltpFR2	12	4	SILK	1307	n/a	n/a	0	0	0
760877	REC_WORD	wordpools/wasnorm_wordpool_576.txt	LTP362	ltpFR2	12	4	PIZZA	1079	n/a	n/a	0	0	0
769337	REC_WORD	wordpools/wasnorm_wordpool_576.txt	LTP362	ltpFR2	12	4	RABBIT	1152	n/a	n/a	0	0	0
840582	WORD	wordpools/wasnorm_wordpool_576.txt	LTP362	ltpFR2	12	5	FLEET	578	n/a	n/a	0	0	0
843197	WORD	wordpools/wasnorm_wordpool_576.txt	LTP362	ltpFR2	12	5	UMPIRE	1535	n/a	n/a	0	0	0
845964	WORD	wordpools/wasnorm_wordpool_576.txt	LTP362	ltpFR2	12	5	DOLPHIN	483	n/a	n/a	0	0	0
848729	WORD	wordpools/wasnorm_wordpool_576.txt	LTP362	ltpFR2	12	5	SCULPTURE	1258	n/a	n/a	0	0	0
851343	WORD	wordpools/wasnorm_wordpool_576.txt	LTP362	ltpFR2	12	5	SCRIBBLE	1256	n/a	n/a	0	0	0
854043	WORD	wordpools/wasnorm_wordpool_576.txt	LTP362	ltpFR2	12	5	SPOOL	1356	n/a	n/a	0	0	0
856557	WORD	wordpools/wasnorm_wordpool_576.txt	LTP362	ltpFR2	12	5	LIGHTNING	820	n/a	n/a	0	0	0
859074	WORD	wordpools/wasnorm_wordpool_576.txt	LTP362	ltpFR2	12	5	CASKET	255	n/a	n/a	0	0	0
861588	WORD	wordpools/wasnorm_wordpool_576.txt	LTP362	ltpFR2	12	5	JELLY	755	n/a	n/a	0	0	0
864038	WORD	wordpools/wasnorm_wordpool_576.txt	LTP362	ltpFR2	12	5	FLIPPER	580	n/a	n/a	0	0	0
866586	WORD	wordpools/wasnorm_wordpool_576.txt	LTP362	ltpFR2	12	5	SWITCH	1422	n/a	n/a	0	0	0
869119	WORD	wordpools/wasnorm_wordpool_576.txt	LTP362	ltpFR2	12	5	SUITCASE	1403	n/a	n/a	0	0	0
871668	WORD	wordpools/wasnorm_wordpool_576.txt	LTP362	ltpFR2	12	5	RECORD	1176	n/a	n/a	0	0	0
874315	WORD	wordpools/wasnorm_wordpool_576.txt	LTP362	ltpFR2	12	5	PACKAGE	997	n/a	n/a	0	0	0
877098	WORD	wordpools/wasnorm_wordpool_576.txt	LTP362	ltpFR2	12	5	WIDOW	1608	n/a	n/a	0	0	0
879664	WORD	wordpools/wasnorm_wordpool_576.txt	LTP362	ltpFR2	12	5	ONION	977	n/a	n/a	0	0	0
882311	WORD	wordpools/wasnorm_wordpool_576.txt	LTP362	ltpFR2	12	5	QUAIL	1147	n/a	n/a	0	0	0
885011	WORD	wordpools/wasnorm_wordpool_576.txt	LTP362	ltpFR2	12	5	PENGUIN	1044	n/a	n/a	0	0	0
887693	WORD	wordpools/wasnorm_wordpool_576.txt	LTP362	ltpFR2	12	5	PUDDLE	1140	n/a	n/a	0	0	0
890175	WORD	wordpools/wasnorm_wordpool_576.txt	LTP362	ltpFR2	12	5	GRAVE	658	n/a	n/a	0	0	0
892907	WORD	wordpools/wasnorm_wordpool_576.txt	LTP362	ltpFR2	12	5	LASER	801	n/a	n/a	0	0	0
895355	WORD	wordpools/wasnorm_wordpool_576.txt	LTP362	ltpFR2	12	5	MEAT	883	n/a	n/a	0	0	0
897955	WORD	wordpools/wasnorm_wordpool_576.txt	LTP362	ltpFR2	12	5	SAUSAGE	1238	n/a	n/a	0	0	0
900637	WORD	wordpools/wasnorm_wordpool_576.txt	LTP362	ltpFR2	12	5	BOUQUET	157	n/a	n/a	0	0	0
902252	START	n/a	LTP362	ltpFR2	12	n/a	n/a	n/a	8	n/a	n/a	n/a	n/a
903168	DISTRACTOR	n/a	LTP362	ltpFR2	12	5	n/a	n/a	n/a	n/a	0	0	0
903185	PROB	n/a	LTP362	ltpFR2	12	n/a	n/a	n/a	8	22	5	9	8
907733	PROB	n/a	LTP362	ltpFR2	12	n/a	n/a	n/a	8	111	3	5	3
909315	PROB	n/a	LTP362	ltpFR2	12	n/a	n/a	n/a	8	15	8	5	2
910815	PROB	n/a	LTP362	ltpFR2	12	n/a	n/a	n/a	8	14	4	5	5
912147	PROB	n/a	LTP362	ltpFR2	12	n/a	n/a	n/a	8	18	5	6	7
914312	PROB	n/a	LTP362	ltpFR2	12	n/a	n/a	n/a	8	7	4	2	1
915545	PROB	n/a	LTP362	ltpFR2	12	n/a	n/a	n/a	8	12	3	5	4
916978	PROB	n/a	LTP362	ltpFR2	12	n/a	n/a	n/a	8	13	1	6	5
918310	PROB	n/a	LTP362	ltpFR2	12	n/a	n/a	n/a	8	12	2	6	4
921192	PROB	n/a	LTP362	ltpFR2	12	n/a	n/a	n/a	8	16	4	8	4
923009	PROB	n/a	LTP362	ltpFR2	12	n/a	n/a	n/a	8	14	5	3	6
925066	STOP	n/a	LTP362	ltpFR2	12	n/a	n/a	n/a	8	n/a	n/a	n/a	n/a
928123	REC_START	n/a	LTP362	ltpFR2	12	5	n/a	n/a	n/a	n/a	0	0	0
928761	REC_WORD	wordpools/wasnorm_wordpool_576.txt	LTP362	ltpFR2	12	5	SCULPTURE	1258	n/a	n/a	0	0	0
929723	REC_WORD	wordpools/wasnorm_wordpool_576.txt	LTP362	ltpFR2	12	5	FLEET	578	n/a	n/a	0	0	0
930456	REC_WORD	wordpools/wasnorm_wordpool_576.txt	LTP362	ltpFR2	12	5	FLIPPER	580	n/a	n/a	0	0	0
931477	REC_WORD	wordpools/wasnorm_wordpool_576.txt	LTP362	ltpFR2	12	5	DOLPHIN	483	n/a	n/a	0	0	0
932829	REC_WORD	wordpools/wasnorm_wordpool_576.txt	LTP362	ltpFR2	12	5	SCRIBBLE	1256	n/a	n/a	0	0	0
933777	REC_WORD	wordpools/wasnorm_wordpool_576.txt	LTP362	ltpFR2	12	5	UMPIRE	1535	n/a	n/a	0	0	0
935725	REC_WORD	wordpools/wasnorm_wordpool_576.txt	LTP362	ltpFR2	12	5	CASKET	255	n/a	n/a	0	0	0
936416	REC_WORD	wordpools/wasnorm_wordpool_576.txt	LTP362	ltpFR2	12	5	GRAVE	658	n/a	n/a	0	0	0
936989	REC_WORD	wordpools/wasnorm_wordpool_576.txt	LTP362	ltpFR2	12	5	JELLY	755	n/a	n/a	0	0	0
937448	REC_WORD	wordpools/wasnorm_wordpool_576.txt	LTP362	ltpFR2	12	5	SPOOL	1356	n/a	n/a	0	0	0
938153	REC_WORD	wordpools/wasnorm_wordpool_576.txt	LTP362	ltpFR2	12	5	LIGHTNING	820	n/a	n/a	0	0	0
1018577	WORD	wordpools/wasnorm_wordpool_576.txt	LTP362	ltpFR2	12	6	RIFLE	1192	n/a	n/a	0	0	0
1021027	WORD	wordpools/wasnorm_wordpool_576.txt	LTP362	ltpFR2	12	6	SPARROW	1347	n/a	n/a	0	0	0
1023709	WORD	wordpools/wasnorm_wordpool_576.txt	LTP362	ltpFR2	12	6	FUNGUS	614	n/a	n/a	0	0	0
1026340	WORD	wordpools/wasnorm_wordpool_576.txt	LTP362	ltpFR2	12	6	KEEPER	769	n/a	n/a	0	0	0
1029039	WORD	wordpools/wasnorm_wordpool_576.txt	LTP362	ltpFR2	12	6	BARLEY	88	n/a	n/a	0	0	0
1031655	WORD	wordpools/wasnorm_wordpool_576.txt	LTP362	ltpFR2	12	6	GARLIC	624	n/a	n/a	0	0	0
1034087	WORD	wordpools/wasnorm_wordpool_576.txt	LTP362	ltpFR2	12	6	PISTOL	1075	n/a	n/a	0	0	0
1036752	WORD	wordpools/wasnorm_wordpool_576.txt	LTP362	ltpFR2	12	6	CIGAR	308	n/a	n/a	0	0	0
1039267	WORD	wordpools/wasnorm_wordpool_576.txt	LTP362	ltpFR2	12	6	COCKTAIL	338	n/a	n/a	0	0	0
1041733	WORD	wordpools/wasnorm_wordpool_576.txt	LTP362	ltpFR2	12	6	PLIERS	1089	n/a	n/a	0	0	0
1044198	WORD	wordpools/wasnorm_wordpool_576.txt	LTP362	ltpFR2	12	6	SUBWAY	1400	n/a	n/a	0	0	0
1046931	WORD	wordpools/wasnorm_wordpool_576.txt	LTP362	ltpFR2	12	6	SLOPE	1328	n/a	n/a	0	0	0
1049512	WORD	wordpools/wasnorm_wordpool_576.txt	LTP362	ltpFR2	12	6	EAGLE	512	n/a	n/a	0	0	0
1052128	WORD	wordpools/wasnorm_wordpool_576.txt	LTP362	ltpFR2	12	6	PRIMATE	1123	n/a	n/a	0	0	0
1054827	WORD	wordpools/wasnorm_wordpool_576.txt	LTP362	ltpFR2	12	6	SEAL	1262	n/a	n/a	0	0	0
1057441	WORD	wordpools/wasnorm_wordpool_576.txt	LTP362	ltpFR2	12	6	RELISH	1183	n/a	n/a	0	0	0
1060107	WORD	wordpools/wasnorm_wordpool_576.txt	LTP362	ltpFR2	12	6	COUCH	386	n/a	n/a	0	0	0
1062889	WORD	wordpools/wasnorm_wordpool_576.txt	LTP362	ltpFR2	12	6	LOFT	840	n/a	n/a	0	0	0
1065655	WORD	wordpools/wasnorm_wordpool_576.txt	LTP362	ltpFR2	12	6	CABIN	211	n/a	n/a	0	0	0
1068452	WORD	wordpools/wasnorm_wordpool_576.txt	LTP362	ltpFR2	12	6	CAFE	216	n/a	n/a	0	0	0
1071069	WORD	wordpools/wasnorm_wordpool_576.txt	LTP362	ltpFR2	12	6	MAILBOX	857	n/a	n/a	0	0	0
1073867	WORD	wordpools/wasnorm_wordpool_576.txt	LTP362	ltpFR2	12	6	SKILLET	1317	n/a	n/a	0	0	0
1076315	WORD	wordpools/wasnorm_wordpool_576.txt	LTP362	ltpFR2	12	6	YOLK	1633	n/a	n/a	0	0	0
1079048	WORD	wordpools/wasnorm_wordpool_576.txt	LTP362	ltpFR2	12	6	MISSILE	900	n/a	n/a	0	0	0
1080664	START	n/a	LTP362	ltpFR2	12	n/a	n/a	n/a	9	n/a	n/a	n/a	n/a
1081600	DISTRACTOR	n/a	LTP362	ltpFR2	12	6	n/a	n/a	n/a	n/a	0	0	0
1081612	PROB	n/a	LTP362	ltpFR2	12	n/a	n/a	n/a	9	11	3	1	7
1083245	PROB	n/a	LTP362	ltpFR2	12	n/a	n/a	n/a	9	17	8	2	7
1085145	PROB	n/a	LTP362	ltpFR2	12	n/a	n/a	n/a	9	17	7	7	3
1086393	PROB	n/a	LTP362	ltpFR2	12	n/a	n/a	n/a	9	17	8	1	8
1087827	PROB	n/a	LTP362	ltpFR2	12	n/a	n/a	n/a	9	19	7	9	3
1089258	PROB	n/a	LTP362	ltpFR2	12	n/a	n/a	n/a	9	17	5	8	4
1090642	PROB	n/a	LTP362	ltpFR2	12	n/a	n/a	n/a	9	25	9	9	7
1092507	PROB	n/a	LTP362	ltpFR2	12	n/a	n/a	n/a	9	12	2	1	9
1093674	PROB	n/a	LTP362	ltpFR2	12	n/a	n/a	n/a	9	9	1	7	1
1095489	PROB	n/a	LTP362	ltpFR2	12	n/a	n/a	n/a	9	8	6	1	1
1096639	PROB	n/a	LTP362	ltpFR2	12	n/a	n/a	n/a	9	19	7	5	7
1098155	PROB	n/a	LTP362	ltpFR2	12	n/a	n/a	n/a	9	17	4	8	5
1100121	PROB	n/a	LTP362	ltpFR2	12	n/a	n/a	n/a	9	20	2	9	9
1101620	PROB	n/a	LTP362	ltpFR2	12	n/a	n/a	n/a	9	17	4	8	5
1103257	STOP	n/a	LTP362	ltpFR2	12	n/a	n/a	n/a	9	n/a	n/a	n/a	n/a
1106467	REC_START	n/a	LTP362	ltpFR2	12	6	n/a	n/a	n/a	n/a	0	0	0
1107118	REC_WORD	wordpools/wasnorm_wordpool_576.txt	LTP362	ltpFR2	12	6	KEEPER	769	n/a	n/a	0	0	0
1107813	REC_WORD	wordpools/wasnorm_wordpool_576.txt	LTP362	ltpFR2	12	6	BARLEY	88	n/a	n/a	0	0	0
1108359	REC_WORD	wordpools/wasnorm_wordpool_576.txt	LTP362	ltpFR2	12	6	FUNGUS	614	n/a	n/a	0	0	0
1109202	REC_WORD	wordpools/wasnorm_wordpool_576.txt	LTP362	ltpFR2	12	6	SPARROW	1347	n/a	n/a	0	0	0
1111025	REC_WORD	wordpools/wasnorm_wordpool_576.txt	LTP362	ltpFR2	12	6	RIFLE	1192	n/a	n/a	0	0	0
1111654	REC_WORD	wordpools/wasnorm_wordpool_576.txt	LTP362	ltpFR2	12	6	PISTOL	1075	n/a	n/a	0	0	0
1112197	REC_WORD	wordpools/wasnorm_wordpool_576.txt	LTP362	ltpFR2	12	6	MISSILE	900	n/a	n/a	0	0	0
1116763	REC_WORD_VV	wordpools/wasnorm_wordpool_576.txt	LTP362	ltpFR2	12	6	<>	-1	n/a	n/a	0	0	0
1117374	REC_WORD	wordpools/wasnorm_wordpool_576.txt	LTP362	ltpFR2	12	6	PRIMATE	1123	n/a	n/a	0	0	0
1117795	REC_WORD	wordpools/wasnorm_wordpool_576.txt	LTP362	ltpFR2	12	6	SEAL	1262	n/a	n/a	0	0	0
1127953	REC_WORD	wordpools/wasnorm_wordpool_576.txt	LTP362	ltpFR2	12	6	GARLIC	624	n/a	n/a	0	0	0
1196923	WORD	wordpools/wasnorm_wordpool_576.txt	LTP362	ltpFR2	12	7	FEMALE	559	n/a	n/a	0	0	0
1199638	WORD	wordpools/wasnorm_wordpool_576.txt	LTP362	ltpFR2	12	7	CASHEW	253	n/a	n/a	0	0	0
1202286	WORD	wordpools/wasnorm_wordpool_576.txt	LTP362	ltpFR2	12	7	POPCORN	1104	n/a	n/a	0	0	0
1204935	WORD	wordpools/wasnorm_wordpool_576.txt	LTP362	ltpFR2	12	7	LEG	809	n/a	n/a	0	0	0
1207651	WORD	wordpools/wasnorm_wordpool_576.txt	LTP362	ltpFR2	12	7	AIRPLANE	12	n/a	n/a	0	0	0
1210083	WORD	wordpools/wasnorm_wordpool_576.txt	LTP362	ltpFR2	12	7	DRAWING	494	n/a	n/a	0	0	0
1212564	WORD	wordpools/wasnorm_wordpool_576.txt	LTP362	ltpFR2	12	7	BEAVER	109	n/a	n/a	0	0	0
1215030	WORD	wordpools/wasnorm_wordpool_576.txt	LTP362	ltpFR2	12	7	SNAKE	1333	n/a	n/a	0	0	0
1217595	WORD	wordpools/wasnorm_wordpool_576.txt	LTP362	ltpFR2	12	7	MONEY	908	n/a	n/a	0	0	0
1220095	WORD	wordpools/wasnorm_wordpool_576.txt	LTP362	ltpFR2	12	7	CEILING	265	n/a	n/a	0	0	0
1222877	WORD	wordpools/wasnorm_wordpool_576.txt	LTP362	ltpFR2	12	7	CUSTARD	429	n/a	n/a	0	0	0
1225558	WORD	wordpools/wasnorm_wordpool_576.txt	LTP362	ltpFR2	12	7	BREAST	171	n/a	n/a	0	0	0
1228091	WORD	wordpools/wasnorm_wordpool_576.txt	LTP362	ltpFR2	12	7	TWISTER	1530	n/a	n/a	0	0	0
1230773	WORD	wordpools/wasnorm_wordpool_576.txt	LTP362	ltpFR2	12	7	CYCLONE	431	n/a	n/a	0	0	0
1233504	WORD	wordpools/wasnorm_wordpool_576.txt	LTP362	ltpFR2	12	7	JOURNAL	760	n/a	n/a	0	0	0
1236319	WORD	wordpools/wasnorm_wordpool_576.txt	LTP362	ltpFR2	12	7	WRIST	1626	n/a	n/a	0	0	0
1239068	WORD	wordpools/wasnorm_wordpool_576.txt	LTP362	ltpFR2	12	7	RECEIPT	1173	n/a	n/a	0	0	0
1241566	WORD	wordpools/wasnorm_wordpool_576.txt	LTP362	ltpFR2	12	7	BACKBONE	66	n/a	n/a	0	0	0
1244099	WORD	wordpools/wasnorm_wordpool_576.txt	LTP362	ltpFR2	12	7	MARROW	872	n/a	n/a	0	0	0
1246665	WORD	wordpools/wasnorm_wordpool_576.txt	LTP362	ltpFR2	12	7	PROTON	1132	n/a	n/a	0	0	0
1249329	WORD	wordpools/wasnorm_wordpool_576.txt	LTP362	ltpFR2	12	7	ANTLER	29	n/a	n/a	0	0	0
1251829	WORD	wordpools/wasnorm_wordpool_576.txt	LTP362	ltpFR2	12	7	DAISY	435	n/a	n/a	0	0	0
1254510	WORD	wordpools/wasnorm_wordpool_576.txt	LTP362	ltpFR2	12	7	EUROPE	541	n/a	n/a	0	0	0
1257225	WORD	wordpools/wasnorm_wordpool_576.txt	LTP362	ltpFR2	12	7	LAGOON	795	n/a	n/a	0	0	0
1258842	START	n/a	LTP362	ltpFR2	12	n/a	n/a	n/a	10	n/a	n/a	n/a	n/a
1259997	DISTRACTOR	n/a	LTP362	ltpFR2	12	7	n/a	n/a	n/a	n/a	0	0	0
1260008	PROB	n/a	LTP362	ltpFR2	12	n/a	n/a	n/a	10	17	3	7	7
1261273	PROB	n/a	LTP362	ltpFR2	12	n/a	n/a	n/a	10	20	2	9	9
1262907	PROB	n/a	LTP362	ltpFR2	12	n/a	n/a	n/a	10	23	6	9	8
1266088	PROB	n/a	LTP362	ltpFR2	12	n/a	n/a	n/a	10	18	6	9	3
1269703	PROB	n/a	LTP362	ltpFR2	12	n/a	n/a	n/a	10	21	9	5	7
1272685	PROB	n/a	LTP362	ltpFR2	12	n/a	n/a	n/a	10	14	2	9	3
1274383	PROB	n/a	LTP362	ltpFR2	12	n/a	n/a	n/a	10	15	2	4	9
1276349	PROB	n/a	LTP362	ltpFR2	12	n/a	n/a	n/a	10	20	7	6	7
1277783	PROB	n/a	LTP362	ltpFR2	12	n/a	n/a	n/a	10	14	3	6	5
1279115	PROB	n/a	LTP362	ltpFR2	12	n/a	n/a	n/a	10	22	5	8	9
1282257	STOP	n/a	LTP362	ltpFR2	12	n/a	n/a	n/a	10	n/a	n/a	n/a	n/a
1284647	REC_START	n/a	LTP362	ltpFR2	12	7	n/a	n/a	n/a	n/a	0	0	0
1290466	REC_WORD	wordpools/wasnorm_wordpool_576.txt	LTP362	ltpFR2	12	7	JOURNAL	760	n/a	n/a	0	0	0
1291172	REC_WORD	wordpools/wasnorm_wordpool_576.txt	LTP362	ltpFR2	12	7	PROTON	1132	n/a	n/a	0	0	0
1292402	REC_WORD_VV	wordpools/wasnorm_wordpool_576.txt	LTP362	ltpFR2	12	7	<>	-1	n/a	n/a	0	0	0
1303661	REC_WORD	wordpools/wasnorm_wordpool_576.txt	LTP362	ltpFR2	12	7	LEG	809	n/a	n/a	0	0	0
1375101	DISTRACTOR	n/a	LTP362	ltpFR2	12	8	n/a	n/a	n/a	n/a	0	0	0
1375101	START	n/a	LTP362	ltpFR2	12	n/a	n/a	n/a	11	n/a	n/a	n/a	n/a
1375118	PROB	n/a	LTP362	ltpFR2	12	n/a	n/a	n/a	11	16	5	9	2
1376850	PROB	n/a	LTP362	ltpFR2	12	n/a	n/a	n/a	11	15	4	5	6
1378666	PROB	n/a	LTP362	ltpFR2	12	n/a	n/a	n/a	11	15	6	1	8
1380497	PROB	n/a	LTP362	ltpFR2	12	n/a	n/a	n/a	11	14	4	4	6
1381513	PROB	n/a	LTP362	ltpFR2	12	n/a	n/a	n/a	11	11	2	5	4
1383763	PROB	n/a	LTP362	ltpFR2	12	n/a	n/a	n/a	11	16	5	2	9
1385595	PROB	n/a	LTP362	ltpFR2	12	n/a	n/a	n/a	11	9	5	2	2
1386695	PROB	n/a	LTP362	ltpFR2	12	n/a	n/a	n/a	11	18	9	2	7
1388243	PROB	n/a	LTP362	ltpFR2	12	n/a	n/a	n/a	11	24	9	6	9
1390177	PROB	n/a	LTP362	ltpFR2	12	n/a	n/a	n/a	11	12	3	5	4
1392842	PROB	n/a	LTP362	ltpFR2	12	n/a	n/a	n/a	11	14	2	4	8
1394374	PROB	n/a	LTP362	ltpFR2	12	n/a	n/a	n/a	11	9	3	1	5
1396057	PROB	n/a	LTP362	ltpFR2	12	n/a	n/a	n/a	11	14	3	8	3
1397754	STOP	n/a	LTP362	ltpFR2	12	n/a	n/a	n/a	11	n/a	n/a	n/a	n/a
1400221	WORD	wordpools/wasnorm_wordpool_576.txt	LTP362	ltpFR2	12	8	SHERIFF	1284	n/a	n/a	0	0	0
1402937	WORD	wordpools/wasnorm_wordpool_576.txt	LTP362	ltpFR2	12	8	PATROL	1027	n/a	n/a	0	0	0
1405518	WORD	wordpools/wasnorm_wordpool_576.txt	LTP362	ltpFR2	12	8	SALMON	1227	n/a	n/a	0	0	0
1408135	WORD	wordpools/wasnorm_wordpool_576.txt	LTP362	ltpFR2	12	8	MUFFIN	929	n/a	n/a	0	0	0
1410866	WORD	wordpools/wasnorm_wordpool_576.txt	LTP362	ltpFR2	12	8	CHILD	299	n/a	n/a	0	0	0
1413314	WORD	wordpools/wasnorm_wordpool_576.txt	LTP362	ltpFR2	12	8	LADY	794	n/a	n/a	0	0	0
1415831	WORD	wordpools/wasnorm_wordpool_576.txt	LTP362	ltpFR2	12	8	SHARK	1275	n/a	n/a	0	0	0
1418629	WORD	wordpools/wasnorm_wordpool_576.txt	LTP362	ltpFR2	12	8	PANTHER	1009	n/a	n/a	0	0	0
1421111	WORD	wordpools/wasnorm_wordpool_576.txt	LTP362	ltpFR2	12	8	BOARD	143	n/a	n/a	0	0	0
1423927	WORD	wordpools/wasnorm_wordpool_576.txt	LTP362	ltpFR2	12	8	BANKER	84	n/a	n/a	0	0	0
1426742	WORD	wordpools/wasnorm_wordpool_576.txt	LTP362	ltpFR2	12	8	POCKET	1093	n/a	n/a	0	0	0
1429440	WORD	wordpools/wasnorm_wordpool_576.txt	LTP362	ltpFR2	12	8	INFANT	737	n/a	n/a	0	0	0
1432139	WORD	wordpools/wasnorm_wordpool_576.txt	LTP362	ltpFR2	12	8	BLENDER	136	n/a	n/a	0	0	0
1434871	WORD	wordpools/wasnorm_wordpool_576.txt	LTP362	ltpFR2	12	8	OUTFIT	988	n/a	n/a	0	0	0
1437369	WORD	wordpools/wasnorm_wordpool_576.txt	LTP362	ltpFR2	12	8	ACTOR	5	n/a	n/a	0	0	0
1439935	WORD	wordpools/wasnorm_wordpool_576.txt	LTP362	ltpFR2	12	8	CLOTHES	327	n/a	n/a	0	0	0
1442450	WORD	wordpools/wasnorm_wordpool_576.txt	LTP362	ltpFR2	12	8	SPHINX	1349	n/a	n/a	0	0	0
1444916	WORD	wordpools/wasnorm_wordpool_576.txt	LTP362	ltpFR2	12	8	CORAL	378	n/a	n/a	0	0	0
1447682	WORD	wordpools/wasnorm_wordpool_576.txt	LTP362	ltpFR2	12	8	DRIVER	499	n/a	n/a	0	0	0
1450164	WORD	wordpools/wasnorm_wordpool_576.txt	LTP362	ltpFR2	12	8	WAGON	1578	n/a	n/a	0	0	0
1452946	WORD	wordpools/wasnorm_wordpool_576.txt	LTP362	ltpFR2	12	8	FRUIT	610	n/a	n/a	0	0	0
1455427	WORD	wordpools/wasnorm_wordpool_576.txt	LTP362	ltpFR2	12	8	LILY	821	n/a	n/a	0	0	0
1457927	WORD	wordpools/wasnorm_wordpool_576.txt	LTP362	ltpFR2	12	8	SHORTCAKE	1292	n/a	n/a	0	0	0
1460441	WORD	wordpools/wasnorm_wordpool_576.txt	LTP362	ltpFR2	12	8	BUNNY	198	n/a	n/a	0	0	0
1462058	START	n/a	LTP362	ltpFR2	12	n/a	n/a	n/a	12	n/a	n/a	n/a	n/a
1463037	DISTRACTOR	n/a	LTP362	ltpFR2	12	8	n/a	n/a	n/a	n/a	0	0	0
1463041	PROB	n/a	LTP362	ltpFR2	12	n/a	n/a	n/a	12	1	7	4	3
1464239	PROB	n/a	LTP362	ltpFR2	12	n/a	n/a	n/a	12	15	3	7	5
1465839	PROB	n/a	LTP362	ltpFR2	12	n/a	n/a	n/a	12	13	6	5	2
1466939	PROB	n/a	LTP362	ltpFR2	12	n/a	n/a	n/a	12	19	3	8	8
1469336	PROB	n/a	LTP362	ltpFR2	12	n/a	n/a	n/a	12	20	6	5	9
1470787	PROB	n/a	LTP362	ltpFR2	12	n/a	n/a	n/a	12	9	5	2	2
1471770	PROB	n/a	LTP362	ltpFR2	12	n/a	n/a	n/a	12	11	9	1	1
1473268	PROB	n/a	LTP362	ltpFR2	12	n/a	n/a	n/a	12	9	4	2	3
1475300	PROB	n/a	LTP362	ltpFR2	12	n/a	n/a	n/a	12	20	2	9	9
1476566	PROB	n/a	LTP362	ltpFR2	12	n/a	n/a	n/a	12	14	4	3	7
1477767	PROB	n/a	LTP362	ltpFR2	12	n/a	n/a	n/a	12	12	3	7	2
1478916	PROB	n/a	LTP362	ltpFR2	12	n/a	n/a	n/a	12	13	4	3	6
1480982	PROB	n/a	LTP362	ltpFR2	12	n/a	n/a	n/a	12	6	1	1	4
1482197	PROB	n/a	LTP362	ltpFR2	12	n/a	n/a	n/a	12	7	1	4	2
1483313	PROB	n/a	LTP362	ltpFR2	12	n/a	n/a	n/a	12	19	1	8	8
1484970	STOP	n/a	LTP362	ltpFR2	12	n/a	n/a	n/a	12	n/a	n/a	n/a	n/a
1487962	REC_START	n/a	LTP362	ltpFR2	12	8	n/a	n/a	n/a	n/a	0	0	0
1490922	REC_WORD	wordpools/wasnorm_wordpool_576.txt	LTP362	ltpFR2	12	8	SHERIFF	1284	n/a	n/a	0	0	0
1491697	REC_WORD	wordpools/wasnorm_wordpool_576.txt	LTP362	ltpFR2	12	8	PATROL	1027	n/a	n/a	0	0	0
1492596	REC_WORD	wordpools/wasnorm_wordpool_576.txt	LTP362	ltpFR2	12	8	CHILD	299	n/a	n/a	0	0	0
1493382	REC_WORD	wordpools/wasnorm_wordpool_576.txt	LTP362	ltpFR2	12	8	INFANT	737	n/a	n/a	0	0	0
1494003	REC_WORD	wordpools/wasnorm_wordpool_576.txt	LTP362	ltpFR2	12	8	LADY	794	n/a	n/a	0	0	0
1494485	REC_WORD	wordpools/wasnorm_wordpool_576.txt	LTP362	ltpFR2	12	8	SHARK	1275	n/a	n/a	0	0	0
1520319	REC_WORD	wordpools/wasnorm_wordpool_576.txt	LTP362	ltpFR2	12	8	BUNNY	198	n/a	n/a	0	0	0
1525253	REC_WORD	wordpools/wasnorm_wordpool_576.txt	LTP362	ltpFR2	12	8	SHORTCAKE	1292	n/a	n/a	0	0	0
1564506	REST_REWET	n/a	LTP362	ltpFR2	12	8	n/a	n/a	n/a	n/a	0	0	0
1674351	DISTRACTOR	n/a	LTP362	ltpFR2	12	9	n/a	n/a	n/a	n/a	0	0	0
1674352	START	n/a	LTP362	ltpFR2	12	n/a	n/a	n/a	13	n/a	n/a	n/a	n/a
1674368	PROB	n/a	LTP362	ltpFR2	12	n/a	n/a	n/a	13	16	4	9	3
1676600	PROB	n/a	LTP362	ltpFR2	12	n/a	n/a	n/a	13	19	9	9	1
1678249	PROB	n/a	LTP362	ltpFR2	12	n/a	n/a	n/a	13	16	3	8	5
1680365	PROB	n/a	LTP362	ltpFR2	12	n/a	n/a	n/a	13	12	5	1	6
1681498	PROB	n/a	LTP362	ltpFR2	12	n/a	n/a	n/a	13	16	4	5	7
1683165	PROB	n/a	LTP362	ltpFR2	12	n/a	n/a	n/a	13	10	5	3	2
1684897	PROB	n/a	LTP362	ltpFR2	12	n/a	n/a	n/a	13	19	2	8	9
1686295	PROB	n/a	LTP362	ltpFR2	12	n/a	n/a	n/a	13	18	6	5	7
1688179	PROB	n/a	LTP362	ltpFR2	12	n/a	n/a	n/a	13	25	8	8	9
1690061	PROB	n/a	LTP362	ltpFR2	12	n/a	n/a	n/a	13	17	9	4	4
1692060	PROB	n/a	LTP362	ltpFR2	12	n/a	n/a	n/a	13	21	5	9	7
1695775	PROB	n/a	LTP362	ltpFR2	12	n/a	n/a	n/a	13	10	3	3	4
1697074	STOP	n/a	LTP362	ltpFR2	12	n/a	n/a	n/a	13	n/a	n/a	n/a	n/a
1699322	WORD	wordpools/wasnorm_wordpool_576.txt	LTP362	ltpFR2	12	9	MAMMAL	861	n/a	n/a	0	0	0
1701889	WORD	wordpools/wasnorm_wordpool_576.txt	LTP362	ltpFR2	12	9	ROCKET	1202	n/a	n/a	0	0	0
1704503	WORD	wordpools/wasnorm_wordpool_576.txt	LTP362	ltpFR2	12	9	PEPPER	1047	n/a	n/a	0	0	0
1707285	WORD	wordpools/wasnorm_wordpool_576.txt	LTP362	ltpFR2	12	9	PARSLEY	1016	n/a	n/a	0	0	0
1709951	WORD	wordpools/wasnorm_wordpool_576.txt	LTP362	ltpFR2	12	9	FLESH	579	n/a	n/a	0	0	0
1712482	WORD	wordpools/wasnorm_wordpool_576.txt	LTP362	ltpFR2	12	9	SNAIL	1332	n/a	n/a	0	0	0
1714999	WORD	wordpools/wasnorm_wordpool_576.txt	LTP362	ltpFR2	12	9	BINDER	127	n/a	n/a	0	0	0
1717430	WORD	wordpools/wasnorm_wordpool_576.txt	LTP362	ltpFR2	12	9	KETCHUP	771	n/a	n/a	0	0	0
1720113	WORD	wordpools/wasnorm_wordpool_576.txt	LTP362	ltpFR2	12	9	MARKER	870	n/a	n/a	0	0	0
1722645	WORD	wordpools/wasnorm_wordpool_576.txt	LTP362	ltpFR2	12	9	CLAMP	316	n/a	n/a	0	0	0
1725193	WORD	wordpools/wasnorm_wordpool_576.txt	LTP362	ltpFR2	12	9	TERMITE	1451	n/a	n/a	0	0	0
1727792	WORD	wordpools/wasnorm_wordpool_576.txt	LTP362	ltpFR2	12	9	PIGMENT	1066	n/a	n/a	0	0	0
1730407	WORD	wordpools/wasnorm_wordpool_576.txt	LTP362	ltpFR2	12	9	BEAKER	104	n/a	n/a	0	0	0
1733206	WORD	wordpools/wasnorm_wordpool_576.txt	LTP362	ltpFR2	12	9	SURVEY	1414	n/a	n/a	0	0	0
1735972	WORD	wordpools/wasnorm_wordpool_576.txt	LTP362	ltpFR2	12	9	FOX	598	n/a	n/a	0	0	0
1738620	WORD	wordpools/wasnorm_wordpool_576.txt	LTP362	ltpFR2	12	9	ARMY	39	n/a	n/a	0	0	0
1741136	WORD	wordpools/wasnorm_wordpool_576.txt	LTP362	ltpFR2	12	9	SHIRT	1287	n/a	n/a	0	0	0
1743785	WORD	wordpools/wasnorm_wordpool_576.txt	LTP362	ltpFR2	12	9	HOUND	724	n/a	n/a	0	0	0
1746532	WORD	wordpools/wasnorm_wordpool_576.txt	LTP362	ltpFR2	12	9	PIGEON	1065	n/a	n/a	0	0	0
1749082	WORD	wordpools/wasnorm_wordpool_576.txt	LTP362	ltpFR2	12	9	PERCH	1048	n/a	n/a	0	0	0
1751596	WORD	wordpools/wasnorm_wordpool_576.txt	LTP362	ltpFR2	12	9	AIRPORT	13	n/a	n/a	0	0	0
1754046	WORD	wordpools/wasnorm_wordpool_576.txt	LTP362	ltpFR2	12	9	MISTER	901	n/a	n/a	0	0	0
1756811	WORD	wordpools/wasnorm_wordpool_576.txt	LTP362	ltpFR2	12	9	WORLD	1622	n/a	n/a	0	0	0
1759559	WORD	wordpools/wasnorm_wordpool_576.txt	LTP362	ltpFR2	12	9	AUTHOR	61	n/a	n/a	0	0	0
1761176	START	n/a	LTP362	ltpFR2	12	n/a	n/a	n/a	14	n/a	n/a	n/a	n/a
1762150	DISTRACTOR	n/a	LTP362	ltpFR2	12	9	n/a	n/a	n/a	n/a	0	0	0
1762175	PROB	n/a	LTP362	ltpFR2	12	n/a	n/a	n/a	14	16	4	6	6
1763641	PROB	n/a	LTP362	ltpFR2	12	n/a	n/a	n/a	14	17	5	9	3
1765740	PROB	n/a	LTP362	ltpFR2	12	n/a	n/a	n/a	14	7	2	4	1
1767056	PROB	n/a	LTP362	ltpFR2	12	n/a	n/a	n/a	14	11	6	3	2
1768538	PROB	n/a	LTP362	ltpFR2	12	n/a	n/a	n/a	14	11	1	5	5
1769655	PROB	n/a	LTP362	ltpFR2	12	n/a	n/a	n/a	14	12	1	6	5
1770821	PROB	n/a	LTP362	ltpFR2	12	n/a	n/a	n/a	14	14	1	5	8
1772620	PROB	n/a	LTP362	ltpFR2	12	n/a	n/a	n/a	14	20	9	3	8
1775069	PROB	n/a	LTP362	ltpFR2	12	n/a	n/a	n/a	14	14	5	7	2
1776752	PROB	n/a	LTP362	ltpFR2	12	n/a	n/a	n/a	14	10	1	3	6
1778684	PROB	n/a	LTP362	ltpFR2	12	n/a	n/a	n/a	14	16	5	6	5
1779700	PROB	n/a	LTP362	ltpFR2	12	n/a	n/a	n/a	14	13	4	4	5
1781682	PROB	n/a	LTP362	ltpFR2	12	n/a	n/a	n/a	14	19	9	2	8
1782915	PROB	n/a	LTP362	ltpFR2	12	n/a	n/a	n/a	14	16	4	4	8
1784170	STOP	n/a	LTP362	ltpFR2	12	n/a	n/a	n/a	14	n/a	n/a	n/a	n/a
1787080	REC_START	n/a	LTP362	ltpFR2	12	9	n/a	n/a	n/a	n/a	0	0	0
1788012	REC_WORD	wordpools/wasnorm_wordpool_576.txt	LTP362	ltpFR2	12	9	MARKER	870	n/a	n/a	0	0	0
1788540	REC_WORD	wordpools/wasnorm_wordpool_576.txt	LTP362	ltpFR2	12	9	PEPPER	1047	n/a	n/a	0	0	0
1789036	REC_WORD	wordpools/wasnorm_wordpool_576.txt	LTP362	ltpFR2	12	9	PARSLEY	1016	n/a	n/a	0	0	0
1790721	REC_WORD	wordpools/wasnorm_wordpool_576.txt	LTP362	ltpFR2	12	9	HOUND	724	n/a	n/a	0	0	0
1792665	REC_WORD	wordpools/wasnorm_wordpool_576.txt	LTP362	ltpFR2	12	9	GHOST	634	n/a	n/a	0	0	0
1795619	REC_WORD	wordpools/wasnorm_wordpool_576.txt	LTP362	ltpFR2	12	9	DOG	480	n/a	n/a	0	0	0
1877517	DISTRACTOR	n/a	LTP362	ltpFR2	12	10	n/a	n/a	n/a	n/a	0	0	0
1877517	START	n/a	LTP362	ltpFR2	12	n/a	n/a	n/a	15	n/a	n/a	n/a	n/a
1877534	PROB	n/a	LTP362	ltpFR2	12	n/a	n/a	n/a	15	19	8	6	5
1879067	PROB	n/a	LTP362	ltpFR2	12	n/a	n/a	n/a	15	17	8	6	3
1881299	PROB	n/a	LTP362	ltpFR2	12	n/a	n/a	n/a	15	4	2	1	1
1882615	PROB	n/a	LTP362	ltpFR2	12	n/a	n/a	n/a	15	12	9	2	1
1884132	PROB	n/a	LTP362	ltpFR2	12	n/a	n/a	n/a	15	20	8	4	8
1885931	PROB	n/a	LTP362	ltpFR2	12	n/a	n/a	n/a	15	20	2	9	9
1887813	PROB	n/a	LTP362	ltpFR2	12	n/a	n/a	n/a	15	14	5	1	8
1889295	PROB	n/a	LTP362	ltpFR2	12	n/a	n/a	n/a	15	18	5	9	4
1890762	PROB	n/a	LTP362	ltpFR2	12	n/a	n/a	n/a	15	17	2	6	9
1892761	PROB	n/a	LTP362	ltpFR2	12	n/a	n/a	n/a	15	12	2	3	7
1894010	PROB	n/a	LTP362	ltpFR2	12	n/a	n/a	n/a	15	17	4	4	9
1895525	PROB	n/a	LTP362	ltpFR2	12	n/a	n/a	n/a	15	25	8	8	9
1897825	PROB	n/a	LTP362	ltpFR2	12	n/a	n/a	n/a	15	9	3	4	2
1901517	STOP	n/a	LTP362	ltpFR2	12	n/a	n/a	n/a	15	n/a	n/a	n/a	n/a
1902672	WORD	wordpools/wasnorm_wordpool_576.txt	LTP362	ltpFR2	12	10	ZIPPER	1636	n/a	n/a	0	0	0
1905453	WORD	wordpools/wasnorm_wordpool_576.txt	LTP362	ltpFR2	12	10	SHORTS	1293	n/a	n/a	0	0	0
1908235	WORD	wordpools/wasnorm_wordpool_576.txt	LTP362	ltpFR2	12	10	SCALLOP	1242	n/a	n/a	0	0	0
1910918	WORD	wordpools/wasnorm_wordpool_576.txt	LTP362	ltpFR2	12	10	PILOT	1070	n/a	n/a	0	0	0
1913667	WORD	wordpools/wasnorm_wordpool_576.txt	LTP362	ltpFR2	12	10	PARTNER	1017	n/a	n/a	0	0	0
1916198	WORD	wordpools/wasnorm_wordpool_576.txt	LTP362	ltpFR2	12	10	ANKLE	24	n/a	n/a	0	0	0
1918831	WORD	wordpools/wasnorm_wordpool_576.txt	LTP362	ltpFR2	12	10	BARREL	91	n/a	n/a	0	0	0
1921345	WORD	wordpools/wasnorm_wordpool_576.txt	LTP362	ltpFR2	12	10	SPIDER	1351	n/a	n/a	0	0	0
1923928	WORD	wordpools/wasnorm_wordpool_576.txt	LTP362	ltpFR2	12	10	CONVICT	371	n/a	n/a	0	0	0
1926543	WORD	wordpools/wasnorm_wordpool_576.txt	LTP362	ltpFR2	12	10	ROOSTER	1209	n/a	n/a	0	0	0
1929026	WORD	wordpools/wasnorm_wordpool_576.txt	LTP362	ltpFR2	12	10	COUSIN	392	n/a	n/a	0	0	0
1931791	WORD	wordpools/wasnorm_wordpool_576.txt	LTP362	ltpFR2	12	10	CHAPEL	280	n/a	n/a	0	0	0
1934272	WORD	wordpools/wasnorm_wordpool_576.txt	LTP362	ltpFR2	12	10	GARBAGE	622	n/a	n/a	0	0	0
1936855	WORD	wordpools/wasnorm_wordpool_576.txt	LTP362	ltpFR2	12	10	JELLO	754	n/a	n/a	0	0	0
1939603	WORD	wordpools/wasnorm_wordpool_576.txt	LTP362	ltpFR2	12	10	CANYON	235	n/a	n/a	0	0	0
1942302	WORD	wordpools/wasnorm_wordpool_576.txt	LTP362	ltpFR2	12	10	SUMMIT	1405	n/a	n/a	0	0	0
1944818	WORD	wordpools/wasnorm_wordpool_576.txt	LTP362	ltpFR2	12	10	COD	340	n/a	n/a	0	0	0
1947482	WORD	wordpools/wasnorm_wordpool_576.txt	LTP362	ltpFR2	12	10	TART	1436	n/a	n/a	0	0	0
1949949	WORD	wordpools/wasnorm_wordpool_576.txt	LTP362	ltpFR2	12	10	CLIMBER	323	n/a	n/a	0	0	0
1952631	WORD	wordpools/wasnorm_wordpool_576.txt	LTP362	ltpFR2	12	10	ZEBRA	1635	n/a	n/a	0	0	0
1955063	WORD	wordpools/wasnorm_wordpool_576.txt	LTP362	ltpFR2	12	10	BUGGY	188	n/a	n/a	0	0	0
1957628	WORD	wordpools/wasnorm_wordpool_576.txt	LTP362	ltpFR2	12	10	HUMAN	726	n/a	n/a	0	0	0
1960243	WORD	wordpools/wasnorm_wordpool_576.txt	LTP362	ltpFR2	12	10	SCALPEL	1243	n/a	n/a	0	0	0
1962793	WORD	wordpools/wasnorm_wordpool_576.txt	LTP362	ltpFR2	12	10	BUTCHER	203	n/a	n/a	0	0	0
1964408	START	n/a	LTP362	ltpFR2	12	n/a	n/a	n/a	16	n/a	n/a	n/a	n/a
1965384	DISTRACTOR	n/a	LTP362	ltpFR2	12	10	n/a	n/a	n/a	n/a	0	0	0
1965390	PROB	n/a	LTP362	ltpFR2	12	n/a	n/a	n/a	16	11	7	3	1
1966891	PROB	n/a	LTP362	ltpFR2	12	n/a	n/a	n/a	16	25	7	9	9
1968889	PROB	n/a	LTP362	ltpFR2	12	n/a	n/a	n/a	16	19	8	2	9
1970106	PROB	n/a	LTP362	ltpFR2	12	n/a	n/a	n/a	16	12	3	2	7
1971905	PROB	n/a	LTP362	ltpFR2	12	n/a	n/a	n/a	16	11	4	4	3
1973470	PROB	n/a	LTP362	ltpFR2	12	n/a	n/a	n/a	16	17	7	3	7
1974586	PROB	n/a	LTP362	ltpFR2	12	n/a	n/a	n/a	16	6	1	3	2
1976535	PROB	n/a	LTP362	ltpFR2	12	n/a	n/a	n/a	16	15	8	5	2
1978267	PROB	n/a	LTP362	ltpFR2	12	n/a	n/a	n/a	16	17	5	7	5
1979817	PROB	n/a	LTP362	ltpFR2	12	n/a	n/a	n/a	16	8	5	1	2
1980933	PROB	n/a	LTP362	ltpFR2	12	n/a	n/a	n/a	16	20	6	7	7
1982282	PROB	n/a	LTP362	ltpFR2	12	n/a	n/a	n/a	16	20	4	7	9
1984082	PROB	n/a	LTP362	ltpFR2	12	n/a	n/a	n/a	16	23	6	8	9
1986613	PROB	n/a	LTP362	ltpFR2	12	n/a	n/a	n/a	16	5	1	1	3
1987545	STOP	n/a	LTP362	ltpFR2	12	n/a	n/a	n/a	16	n/a	n/a	n/a	n/a
1990179	REC_START	n/a	LTP362	ltpFR2	12	10	n/a	n/a	n/a	n/a	0	0	0
1991192	REC_WORD	wordpools/wasnorm_wordpool_576.txt	LTP362	ltpFR2	12	10	ZIPPER	1636	n/a	n/a	0	0	0
1994978	REC_WORD	wordpools/wasnorm_wordpool_576.txt	LTP362	ltpFR2	12	10	GARBAGE	622	n/a	n/a	0	0	0
2080634	DISTRACTOR	n/a	LTP362	ltpFR2	12	11	n/a	n/a	n/a	n/a	0	0	0
2080634	START	n/a	LTP362	ltpFR2	12	n/a	n/a	n/a	17	n/a	n/a	n/a	n/a
2080651	PROB	n/a	LTP362	ltpFR2	12	n/a	n/a	n/a	17	17	6	4	7
2082050	PROB	n/a	LTP362	ltpFR2	12	n/a	n/a	n/a	17	10	1	8	1
2083133	PROB	n/a	LTP362	ltpFR2	12	n/a	n/a	n/a	17	17	4	9	4
2084932	PROB	n/a	LTP362	ltpFR2	12	n/a	n/a	n/a	17	6	3	2	1
2086065	PROB	n/a	LTP362	ltpFR2	12	n/a	n/a	n/a	17	20	7	9	4
2087596	PROB	n/a	LTP362	ltpFR2	12	n/a	n/a	n/a	17	13	9	2	2
2088913	PROB	n/a	LTP362	ltpFR2	12	n/a	n/a	n/a	17	13	5	7	1
2091045	PROB	n/a	LTP362	ltpFR2	12	n/a	n/a	n/a	17	14	1	8	5
2092594	PROB	n/a	LTP362	ltpFR2	12	n/a	n/a	n/a	17	21	8	7	6
2094559	PROB	n/a	LTP362	ltpFR2	12	n/a	n/a	n/a	17	10	2	3	5
2096676	PROB	n/a	LTP362	ltpFR2	12	n/a	n/a	n/a	17	20	3	8	9
2099824	PROB	n/a	LTP362	ltpFR2	12	n/a	n/a	n/a	17	13	1	8	4
2104634	STOP	n/a	LTP362	ltpFR2	12	n/a	n/a	n/a	17	n/a	n/a	n/a	n/a
2105454	WORD	wordpools/wasnorm_wordpool_576.txt	LTP362	ltpFR2	12	11	BROTHER	179	n/a	n/a	0	0	0
2108087	WORD	wordpools/wasnorm_wordpool_576.txt	LTP362	ltpFR2	12	11	DAUGHTER	442	n/a	n/a	0	0	0
2110551	WORD	wordpools/wasnorm_wordpool_576.txt	LTP362	ltpFR2	12	11	FOREST	593	n/a	n/a	0	0	0
2113283	WORD	wordpools/wasnorm_wordpool_576.txt	LTP362	ltpFR2	12	11	CROWN	415	n/a	n/a	0	0	0
2115966	WORD	wordpools/wasnorm_wordpool_576.txt	LTP362	ltpFR2	12	11	WOMAN	1620	n/a	n/a	0	0	0
2118581	WORD	wordpools/wasnorm_wordpool_576.txt	LTP362	ltpFR2	12	11	HOSTESS	723	n/a	n/a	0	0	0
2121379	WORD	wordpools/wasnorm_wordpool_576.txt	LTP362	ltpFR2	12	11	PAIL	1002	n/a	n/a	0	0	0
2123963	WORD	wordpools/wasnorm_wordpool_576.txt	LTP362	ltpFR2	12	11	BRICK	172	n/a	n/a	0	0	0
2126494	WORD	wordpools/wasnorm_wordpool_576.txt	LTP362	ltpFR2	12	11	COTTAGE	384	n/a	n/a	0	0	0
2129177	WORD	wordpools/wasnorm_wordpool_576.txt	LTP362	ltpFR2	12	11	STATUE	1374	n/a	n/a	0	0	0
2131725	WORD	wordpools/wasnorm_wordpool_576.txt	LTP362	ltpFR2	12	11	HUSBAND	728	n/a	n/a	0	0	0
2134306	WORD	wordpools/wasnorm_wordpool_576.txt	LTP362	ltpFR2	12	11	BROOK	177	n/a	n/a	0	0	0
2136873	WORD	wordpools/wasnorm_wordpool_576.txt	LTP362	ltpFR2	12	11	PICNIC	1060	n/a	n/a	0	0	0
2139337	WORD	wordpools/wasnorm_wordpool_576.txt	LTP362	ltpFR2	12	11	POET	1095	n/a	n/a	0	0	0
2142037	WORD	wordpools/wasnorm_wordpool_576.txt	LTP362	ltpFR2	12	11	HAND	683	n/a	n/a	0	0	0
2144618	WORD	wordpools/wasnorm_wordpool_576.txt	LTP362	ltpFR2	12	11	WAITRESS	1581	n/a	n/a	0	0	0
2147051	WORD	wordpools/wasnorm_wordpool_576.txt	LTP362	ltpFR2	12	11	IDOL	733	n/a	n/a	0	0	0
2149716	WORD	wordpools/wasnorm_wordpool_576.txt	LTP362	ltpFR2	12	11	CROSS	413	n/a	n/a	0	0	0
2152297	WORD	wordpools/wasnorm_wordpool_576.txt	LTP362	ltpFR2	12	11	TROMBONE	1508	n/a	n/a	0	0	0
2155030	WORD	wordpools/wasnorm_wordpool_576.txt	LTP362	ltpFR2	12	11	IGLOO	734	n/a	n/a	0	0	0
2157478	WORD	wordpools/wasnorm_wordpool_576.txt	LTP362	ltpFR2	12	11	PLAID	1080	n/a	n/a	0	0	0
2160061	WORD	wordpools/wasnorm_wordpool_576.txt	LTP362	ltpFR2	12	11	AGENT	10	n/a	n/a	0	0	0
2162877	WORD	wordpools/wasnorm_wordpool_576.txt	LTP362	ltpFR2	12	11	ELBOW	520	n/a	n/a	0	0	0
2165541	WORD	wordpools/wasnorm_wordpool_576.txt	LTP362	ltpFR2	12	11	STONE	1385	n/a	n/a	0	0	0
2167158	START	n/a	LTP362	ltpFR2	12	n/a	n/a	n/a	18	n/a	n/a	n/a	n/a
2168355	DISTRACTOR	n/a	LTP362	ltpFR2	12	11	n/a	n/a	n/a	n/a	0	0	0
2168373	PROB	n/a	LTP362	ltpFR2	12	n/a	n/a	n/a	18	16	6	6	4
2169873	PROB	n/a	LTP362	ltpFR2	12	n/a	n/a	n/a	18	14	1	7	6
2171421	PROB	n/a	LTP362	ltpFR2	12	n/a	n/a	n/a	18	17	4	6	7
2172672	PROB	n/a	LTP362	ltpFR2	12	n/a	n/a	n/a	18	19	9	6	4
2173788	PROB	n/a	LTP362	ltpFR2	12	n/a	n/a	n/a	18	19	6	4	9
2174870	PROB	n/a	LTP362	ltpFR2	12	n/a	n/a	n/a	18	16	8	6	2
2176319	PROB	n/a	LTP362	ltpFR2	12	n/a	n/a	n/a	18	16	8	3	5
2178052	PROB	n/a	LTP362	ltpFR2	12	n/a	n/a	n/a	18	18	7	5	6
2181233	PROB	n/a	LTP362	ltpFR2	12	n/a	n/a	n/a	18	11	2	2	7
2182382	PROB	n/a	LTP362	ltpFR2	12	n/a	n/a	n/a	18	11	1	7	3
2183565	PROB	n/a	LTP362	ltpFR2	12	n/a	n/a	n/a	18	21	6	7	8
2185614	PROB	n/a	LTP362	ltpFR2	12	n/a	n/a	n/a	18	12	5	4	3
2188147	PROB	n/a	LTP362	ltpFR2	12	n/a	n/a	n/a	18	13	3	6	4
2189296	PROB	n/a	LTP362	ltpFR2	12	n/a	n/a	n/a	18	13	2	8	3
2190441	STOP	n/a	LTP362	ltpFR2	12	n/a	n/a	n/a	18	n/a	n/a	n/a	n/a
2193079	REC_START	n/a	LTP362	ltpFR2	12	11	n/a	n/a	n/a	n/a	0	0	0
2193744	REC_WORD	wordpools/wasnorm_wordpool_576.txt	LTP362	ltpFR2	12	11	FOREST	593	n/a	n/a	0	0	0
2194508	REC_WORD	wordpools/wasnorm_wordpool_576.txt	LTP362	ltpFR2	12	11	CROWN	415	n/a	n/a	0	0	0
2196724	REC_WORD	wordpools/wasnorm_wordpool_576.txt	LTP362	ltpFR2	12	11	WAITRESS	1581	n/a	n/a	0	0	0
2199060	REC_WORD	wordpools/wasnorm_wordpool_576.txt	LTP362	ltpFR2	12	11	BROTHER	179	n/a	n/a	0	0	0
2199457	REC_WORD	wordpools/wasnorm_wordpool_576.txt	LTP362	ltpFR2	12	11	DAUGHTER	442	n/a	n/a	0	0	0
2201562	REC_WORD	wordpools/wasnorm_wordpool_576.txt	LTP362	ltpFR2	12	11	AGENT	10	n/a	n/a	0	0	0
2202106	REC_WORD	wordpools/wasnorm_wordpool_576.txt	LTP362	ltpFR2	12	11	IDOL	733	n/a	n/a	0	0	0
2202535	REC_WORD	wordpools/wasnorm_wordpool_576.txt	LTP362	ltpFR2	12	11	CROSS	413	n/a	n/a	0	0	0
2283516	DISTRACTOR	n/a	LTP362	ltpFR2	12	12	n/a	n/a	n/a	n/a	0	0	0
2283516	START	n/a	LTP362	ltpFR2	12	n/a	n/a	n/a	19	n/a	n/a	n/a	n/a
2283532	PROB	n/a	LTP362	ltpFR2	12	n/a	n/a	n/a	19	16	5	3	8
2285799	PROB	n/a	LTP362	ltpFR2	12	n/a	n/a	n/a	19	14	9	1	4
2287214	PROB	n/a	LTP362	ltpFR2	12	n/a	n/a	n/a	19	15	7	6	2
2288931	PROB	n/a	LTP362	ltpFR2	12	n/a	n/a	n/a	19	16	5	5	6
2290196	PROB	n/a	LTP362	ltpFR2	12	n/a	n/a	n/a	19	8	2	5	1
2292645	PROB	n/a	LTP362	ltpFR2	12	n/a	n/a	n/a	19	12	4	3	5
2295144	PROB	n/a	LTP362	ltpFR2	12	n/a	n/a	n/a	19	5	2	2	1
2296309	PROB	n/a	LTP362	ltpFR2	12	n/a	n/a	n/a	19	21	9	3	9
2297976	PROB	n/a	LTP362	ltpFR2	12	n/a	n/a	n/a	19	24	9	6	9
2300574	PROB	n/a	LTP362	ltpFR2	12	n/a	n/a	n/a	19	18	9	8	1
2302074	PROB	n/a	LTP362	ltpFR2	12	n/a	n/a	n/a	19	10	3	2	5
2303790	PROB	n/a	LTP362	ltpFR2	12	n/a	n/a	n/a	19	16	7	7	2
2305970	STOP	n/a	LTP362	ltpFR2	12	n/a	n/a	n/a	19	n/a	n/a	n/a	n/a
2308637	WORD	wordpools/wasnorm_wordpool_576.txt	LTP362	ltpFR2	12	12	SOFTBALL	1343	n/a	n/a	0	0	0
2311302	WORD	wordpools/wasnorm_wordpool_576.txt	LTP362	ltpFR2	12	12	QUARTER	1148	n/a	n/a	0	0	0
2314035	WORD	wordpools/wasnorm_wordpool_576.txt	LTP362	ltpFR2	12	12	COIN	343	n/a	n/a	0	0	0
2316783	WORD	wordpools/wasnorm_wordpool_576.txt	LTP362	ltpFR2	12	12	MOTOR	922	n/a	n/a	0	0	0
2319514	WORD	wordpools/wasnorm_wordpool_576.txt	LTP362	ltpFR2	12	12	ORCHID	982	n/a	n/a	0	0	0
2322164	WORD	wordpools/wasnorm_wordpool_576.txt	LTP362	ltpFR2	12	12	LAPEL	800	n/a	n/a	0	0	0
2324630	WORD	wordpools/wasnorm_wordpool_576.txt	LTP362	ltpFR2	12	12	GRAVEL	659	n/a	n/a	0	0	0
2327128	WORD	wordpools/wasnorm_wordpool_576.txt	LTP362	ltpFR2	12	12	DRINK	498	n/a	n/a	0	0	0
2329627	WORD	wordpools/wasnorm_wordpool_576.txt	LTP362	ltpFR2	12	12	BUG	187	n/a	n/a	0	0	0
2332325	WORD	wordpools/wasnorm_wordpool_576.txt	LTP362	ltpFR2	12	12	COURSE	390	n/a	n/a	0	0	0
2334991	WORD	wordpools/wasnorm_wordpool_576.txt	LTP362	ltpFR2	12	12	MATCH	878	n/a	n/a	0	0	0
2337673	WORD	wordpools/wasnorm_wordpool_576.txt	LTP362	ltpFR2	12	12	FIREPLACE	570	n/a	n/a	0	0	0
2340404	WORD	wordpools/wasnorm_wordpool_576.txt	LTP362	ltpFR2	12	12	BISON	131	n/a	n/a	0	0	0
2343219	WORD	wordpools/wasnorm_wordpool_576.txt	LTP362	ltpFR2	12	12	BRACES	164	n/a	n/a	0	0	0
2345869	WORD	wordpools/wasnorm_wordpool_576.txt	LTP362	ltpFR2	12	12	FLUTE	585	n/a	n/a	0	0	0
2348684	WORD	wordpools/wasnorm_wordpool_576.txt	LTP362	ltpFR2	12	12	CHURCH	307	n/a	n/a	0	0	0
2351282	WORD	wordpools/wasnorm_wordpool_576.txt	LTP362	ltpFR2	12	12	CHAUFFEUR	283	n/a	n/a	0	0	0
2353965	WORD	wordpools/wasnorm_wordpool_576.txt	LTP362	ltpFR2	12	12	POWDER	1117	n/a	n/a	0	0	0
2356613	WORD	wordpools/wasnorm_wordpool_576.txt	LTP362	ltpFR2	12	12	FIDDLE	561	n/a	n/a	0	0	0
2359079	WORD	wordpools/wasnorm_wordpool_576.txt	LTP362	ltpFR2	12	12	FLASK	576	n/a	n/a	0	0	0
2361644	WORD	wordpools/wasnorm_wordpool_576.txt	LTP362	ltpFR2	12	12	MARSH	874	n/a	n/a	0	0	0
2364093	WORD	wordpools/wasnorm_wordpool_576.txt	LTP362	ltpFR2	12	12	APRON	35	n/a	n/a	0	0	0
2366759	WORD	wordpools/wasnorm_wordpool_576.txt	LTP362	ltpFR2	12	12	NOTEBOOK	959	n/a	n/a	0	0	0
2369290	WORD	wordpools/wasnorm_wordpool_576.txt	LTP362	ltpFR2	12	12	MATTRESS	879	n/a	n/a	0	0	0
2370907	START	n/a	LTP362	ltpFR2	12	n/a	n/a	n/a	20	n/a	n/a	n/a	n/a
2371845	DISTRACTOR	n/a	LTP362	ltpFR2	12	12	n/a	n/a	n/a	n/a	0	0	0
2371856	PROB	n/a	LTP362	ltpFR2	12	n/a	n/a	n/a	20	19	8	5	6
2373672	PROB	n/a	LTP362	ltpFR2	12	n/a	n/a	n/a	20	11	1	5	5
2374688	PROB	n/a	LTP362	ltpFR2	12	n/a	n/a	n/a	20	10	1	8	1
2375771	PROB	n/a	LTP362	ltpFR2	12	n/a	n/a	n/a	20	19	6	4	9
2376837	PROB	n/a	LTP362	ltpFR2	12	n/a	n/a	n/a	20	15	7	7	1
2377986	PROB	n/a	LTP362	ltpFR2	12	n/a	n/a	n/a	20	15	9	2	4
2379368	PROB	n/a	LTP362	ltpFR2	12	n/a	n/a	n/a	20	6	1	4	1
2380334	PROB	n/a	LTP362	ltpFR2	12	n/a	n/a	n/a	20	17	6	9	2
2385149	PROB	n/a	LTP362	ltpFR2	12	n/a	n/a	n/a	20	17	4	8	5
2386598	PROB	n/a	LTP362	ltpFR2	12	n/a	n/a	n/a	20	50	9	7	4
2388181	PROB	n/a	LTP362	ltpFR2	12	n/a	n/a	n/a	20	9	2	3	4
2390479	PROB	n/a	LTP362	ltpFR2	12	n/a	n/a	n/a	20	12	6	1	5
2391713	PROB	n/a	LTP362	ltpFR2	12	n/a	n/a	n/a	20	16	7	6	3
2392879	PROB	n/a	LTP362	ltpFR2	12	n/a	n/a	n/a	20	8	1	3	4
2393970	STOP	n/a	LTP362	ltpFR2	12	n/a	n/a	n/a	20	n/a	n/a	n/a	n/a
2396744	REC_START	n/a	LTP362	ltpFR2	12	12	n/a	n/a	n/a	n/a	0	0	0
2397868	REC_WORD	wordpools/wasnorm_wordpool_576.txt	LTP362	ltpFR2	12	12	SOFTBALL	1343	n/a	n/a	0	0	0
2398535	REC_WORD	wordpools/wasnorm_wordpool_576.txt	LTP362	ltpFR2	12	12	COIN	343	n/a	n/a	0	0	0
2398910	REC_WORD	wordpools/wasnorm_wordpool_576.txt	LTP362	ltpFR2	12	12	QUARTER	1148	n/a	n/a	0	0	0
2487198	WORD	wordpools/wasnorm_wordpool_576.txt	LTP362	ltpFR2	12	13	ACTRESS	6	n/a	n/a	0	0	0
2489814	WORD	wordpools/wasnorm_wordpool_576.txt	LTP362	ltpFR2	12	13	BUREAU	199	n/a	n/a	0	0	0
2492395	WORD	wordpools/wasnorm_wordpool_576.txt	LTP362	ltpFR2	12	13	MEDAL	885	n/a	n/a	0	0	0
2494828	WORD	wordpools/wasnorm_wordpool_576.txt	LTP362	ltpFR2	12	13	SUNRISE	1407	n/a	n/a	0	0	0
2497343	WORD	wordpools/wasnorm_wordpool_576.txt	LTP362	ltpFR2	12	13	LIZARD	834	n/a	n/a	0	0	0
2499992	WORD	wordpools/wasnorm_wordpool_576.txt	LTP362	ltpFR2	12	13	POISON	1096	n/a	n/a	0	0	0
2502624	WORD	wordpools/wasnorm_wordpool_576.txt	LTP362	ltpFR2	12	13	GARDEN	623	n/a	n/a	0	0	0
2505057	WORD	wordpools/wasnorm_wordpool_576.txt	LTP362	ltpFR2	12	13	FLOWER	584	n/a	n/a	0	0	0
2507689	WORD	wordpools/wasnorm_wordpool_576.txt	LTP362	ltpFR2	12	13	BLOUSE	139	n/a	n/a	0	0	0
2510203	WORD	wordpools/wasnorm_wordpool_576.txt	LTP362	ltpFR2	12	13	SHRUB	1299	n/a	n/a	0	0	0
2512969	WORD	wordpools/wasnorm_wordpool_576.txt	LTP362	ltpFR2	12	13	NAPKIN	937	n/a	n/a	0	0	0
2515768	WORD	wordpools/wasnorm_wordpool_576.txt	LTP362	ltpFR2	12	13	TAXI	1438	n/a	n/a	0	0	0
2518349	WORD	wordpools/wasnorm_wordpool_576.txt	LTP362	ltpFR2	12	13	GUARD	667	n/a	n/a	0	0	0
2520899	WORD	wordpools/wasnorm_wordpool_576.txt	LTP362	ltpFR2	12	13	BEEF	113	n/a	n/a	0	0	0
2523580	WORD	wordpools/wasnorm_wordpool_576.txt	LTP362	ltpFR2	12	13	BRAKE	166	n/a	n/a	0	0	0
2526113	WORD	wordpools/wasnorm_wordpool_576.txt	LTP362	ltpFR2	12	13	CREATURE	403	n/a	n/a	0	0	0
2528695	WORD	wordpools/wasnorm_wordpool_576.txt	LTP362	ltpFR2	12	13	GOBLIN	645	n/a	n/a	0	0	0
2531209	WORD	wordpools/wasnorm_wordpool_576.txt	LTP362	ltpFR2	12	13	DIME	466	n/a	n/a	0	0	0
2533909	WORD	wordpools/wasnorm_wordpool_576.txt	LTP362	ltpFR2	12	13	AWARD	63	n/a	n/a	0	0	0
2536340	WORD	wordpools/wasnorm_wordpool_576.txt	LTP362	ltpFR2	12	13	HORSE	719	n/a	n/a	0	0	0
2538873	WORD	wordpools/wasnorm_wordpool_576.txt	LTP362	ltpFR2	12	13	SCOTCH	1251	n/a	n/a	0	0	0
2541504	WORD	wordpools/wasnorm_wordpool_576.txt	LTP362	ltpFR2	12	13	STAKE	1368	n/a	n/a	0	0	0
2544120	WORD	wordpools/wasnorm_wordpool_576.txt	LTP362	ltpFR2	12	13	COMET	353	n/a	n/a	0	0	0
2546719	WORD	wordpools/wasnorm_wordpool_576.txt	LTP362	ltpFR2	12	13	CANAL	226	n/a	n/a	0	0	0
2548334	START	n/a	LTP362	ltpFR2	12	n/a	n/a	n/a	21	n/a	n/a	n/a	n/a
2549224	DISTRACTOR	n/a	LTP362	ltpFR2	12	13	n/a	n/a	n/a	n/a	0	0	0
2549234	PROB	n/a	LTP362	ltpFR2	12	n/a	n/a	n/a	21	15	3	8	4
2550751	PROB	n/a	LTP362	ltpFR2	12	n/a	n/a	n/a	21	19	9	8	2
2551817	PROB	n/a	LTP362	ltpFR2	12	n/a	n/a	n/a	21	18	8	6	4
2553116	PROB	n/a	LTP362	ltpFR2	12	n/a	n/a	n/a	21	16	2	5	9
2555281	PROB	n/a	LTP362	ltpFR2	12	n/a	n/a	n/a	21	9	3	2	4
2557714	PROB	n/a	LTP362	ltpFR2	12	n/a	n/a	n/a	21	21	8	8	5
2559612	PROB	n/a	LTP362	ltpFR2	12	n/a	n/a	n/a	21	12	3	2	7
2561112	PROB	n/a	LTP362	ltpFR2	12	n/a	n/a	n/a	21	5	3	1	1
2562045	PROB	n/a	LTP362	ltpFR2	12	n/a	n/a	n/a	21	14	5	7	2
2563827	PROB	n/a	LTP362	ltpFR2	12	n/a	n/a	n/a	21	16	1	8	7
2565093	PROB	n/a	LTP362	ltpFR2	12	n/a	n/a	n/a	21	14	9	4	1
2566475	PROB	n/a	LTP362	ltpFR2	12	n/a	n/a	n/a	21	15	7	3	5
2567692	PROB	n/a	LTP362	ltpFR2	12	n/a	n/a	n/a	21	23	9	5	9
2569625	PROB	n/a	LTP362	ltpFR2	12	n/a	n/a	n/a	21	20	3	8	9
2571842	STOP	n/a	LTP362	ltpFR2	12	n/a	n/a	n/a	21	n/a	n/a	n/a	n/a
2574107	REC_START	n/a	LTP362	ltpFR2	12	13	n/a	n/a	n/a	n/a	0	0	0
2575494	REC_WORD	wordpools/wasnorm_wordpool_576.txt	LTP362	ltpFR2	12	13	ACTRESS	6	n/a	n/a	0	0	0
2576162	REC_WORD	wordpools/wasnorm_wordpool_576.txt	LTP362	ltpFR2	12	13	AWARD	63	n/a	n/a	0	0	0
2576592	REC_WORD	wordpools/wasnorm_wordpool_576.txt	LTP362	ltpFR2	12	13	MEDAL	885	n/a	n/a	0	0	0
2577069	REC_WORD	wordpools/wasnorm_wordpool_576.txt	LTP362	ltpFR2	12	13	BUREAU	199	n/a	n/a	0	0	0
2577560	REC_WORD	wordpools/wasnorm_wordpool_576.txt	LTP362	ltpFR2	12	13	HORSE	719	n/a	n/a	0	0	0
2586978	REC_WORD	wordpools/wasnorm_wordpool_576.txt	LTP362	ltpFR2	12	13	DIME	466	n/a	n/a	0	0	0
2664543	DISTRACTOR	n/a	LTP362	ltpFR2	12	14	n/a	n/a	n/a	n/a	0	0	0
2664543	START	n/a	LTP362	ltpFR2	12	n/a	n/a	n/a	22	n/a	n/a	n/a	n/a
2664560	PROB	n/a	LTP362	ltpFR2	12	n/a	n/a	n/a	22	17	2	8	7
2667059	PROB	n/a	LTP362	ltpFR2	12	n/a	n/a	n/a	22	17	7	1	9
2668241	PROB	n/a	LTP362	ltpFR2	12	n/a	n/a	n/a	22	9	1	4	4
2669725	PROB	n/a	LTP362	ltpFR2	12	n/a	n/a	n/a	22	11	7	2	2
2671223	PROB	n/a	LTP362	ltpFR2	12	n/a	n/a	n/a	22	12	5	6	1
2672472	PROB	n/a	LTP362	ltpFR2	12	n/a	n/a	n/a	22	13	8	2	3
2674123	PROB	n/a	LTP362	ltpFR2	12	n/a	n/a	n/a	22	15	7	3	5
2675554	PROB	n/a	LTP362	ltpFR2	12	n/a	n/a	n/a	22	21	7	6	8
2678419	PROB	n/a	LTP362	ltpFR2	12	n/a	n/a	n/a	22	11	1	5	5
2679486	PROB	n/a	LTP362	ltpFR2	12	n/a	n/a	n/a	22	13	5	2	6
2681152	PROB	n/a	LTP362	ltpFR2	12	n/a	n/a	n/a	22	13	1	4	8
2683168	PROB	n/a	LTP362	ltpFR2	12	n/a	n/a	n/a	22	16	2	9	5
2684984	PROB	n/a	LTP362	ltpFR2	12	n/a	n/a	n/a	22	17	6	7	4
2688542	STOP	n/a	LTP362	ltpFR2	12	n/a	n/a	n/a	22	n/a	n/a	n/a	n/a
2689397	WORD	wordpools/wasnorm_wordpool_576.txt	LTP362	ltpFR2	12	14	HARP	689	n/a	n/a	0	0	0
2691997	WORD	wordpools/wasnorm_wordpool_576.txt	LTP362	ltpFR2	12	14	XEROX	1628	n/a	n/a	0	0	0
2694629	WORD	wordpools/wasnorm_wordpool_576.txt	LTP362	ltpFR2	12	14	PERMIT	1051	n/a	n/a	0	0	0
2697343	WORD	wordpools/wasnorm_wordpool_576.txt	LTP362	ltpFR2	12	14	TRANSPLANT	1496	n/a	n/a	0	0	0
2700010	WORD	wordpools/wasnorm_wordpool_576.txt	LTP362	ltpFR2	12	14	PEACH	1031	n/a	n/a	0	0	0
2702692	WORD	wordpools/wasnorm_wordpool_576.txt	LTP362	ltpFR2	12	14	BURGLAR	200	n/a	n/a	0	0	0
2705306	WORD	wordpools/wasnorm_wordpool_576.txt	LTP362	ltpFR2	12	14	MACHINE	852	n/a	n/a	0	0	0
2707923	WORD	wordpools/wasnorm_wordpool_576.txt	LTP362	ltpFR2	12	14	JUGGLER	763	n/a	n/a	0	0	0
2710454	WORD	wordpools/wasnorm_wordpool_576.txt	LTP362	ltpFR2	12	14	SISTER	1312	n/a	n/a	0	0	0
2713137	WORD	wordpools/wasnorm_wordpool_576.txt	LTP362	ltpFR2	12	14	TILE	1468	n/a	n/a	0	0	0
2715752	WORD	wordpools/wasnorm_wordpool_576.txt	LTP362	ltpFR2	12	14	FRAGRANCE	599	n/a	n/a	0	0	0
2718350	WORD	wordpools/wasnorm_wordpool_576.txt	LTP362	ltpFR2	12	14	PERFUME	1049	n/a	n/a	0	0	0
2721099	WORD	wordpools/wasnorm_wordpool_576.txt	LTP362	ltpFR2	12	14	BANK	83	n/a	n/a	0	0	0
2723731	WORD	wordpools/wasnorm_wordpool_576.txt	LTP362	ltpFR2	12	14	SPACE	1345	n/a	n/a	0	0	0
2726496	WORD	wordpools/wasnorm_wordpool_576.txt	LTP362	ltpFR2	12	14	PLUTO	1092	n/a	n/a	0	0	0
2729244	WORD	wordpools/wasnorm_wordpool_576.txt	LTP362	ltpFR2	12	14	EGYPT	519	n/a	n/a	0	0	0
2731877	WORD	wordpools/wasnorm_wordpool_576.txt	LTP362	ltpFR2	12	14	TEMPLE	1448	n/a	n/a	0	0	0
2734442	WORD	wordpools/wasnorm_wordpool_576.txt	LTP362	ltpFR2	12	14	NECKLACE	940	n/a	n/a	0	0	0
2736908	WORD	wordpools/wasnorm_wordpool_576.txt	LTP362	ltpFR2	12	14	VALVE	1546	n/a	n/a	0	0	0
2739423	WORD	wordpools/wasnorm_wordpool_576.txt	LTP362	ltpFR2	12	14	COWBOY	395	n/a	n/a	0	0	0
2742089	WORD	wordpools/wasnorm_wordpool_576.txt	LTP362	ltpFR2	12	14	DONOR	485	n/a	n/a	0	0	0
2744821	WORD	wordpools/wasnorm_wordpool_576.txt	LTP362	ltpFR2	12	14	VICTIM	1562	n/a	n/a	0	0	0
2747518	WORD	wordpools/wasnorm_wordpool_576.txt	LTP362	ltpFR2	12	14	STAPLE	1371	n/a	n/a	0	0	0
2749985	WORD	wordpools/wasnorm_wordpool_576.txt	LTP362	ltpFR2	12	14	DIVER	476	n/a	n/a	0	0	0
2751600	START	n/a	LTP362	ltpFR2	12	n/a	n/a	n/a	23	n/a	n/a	n/a	n/a
2752538	DISTRACTOR	n/a	LTP362	ltpFR2	12	14	n/a	n/a	n/a	n/a	0	0	0
2752549	PROB	n/a	LTP362	ltpFR2	12	n/a	n/a	n/a	23	14	2	3	9
2754833	PROB	n/a	LTP362	ltpFR2	12	n/a	n/a	n/a	23	18	3	6	9
2756597	PROB	n/a	LTP362	ltpFR2	12	n/a	n/a	n/a	23	16	7	2	7
2757881	PROB	n/a	LTP362	ltpFR2	12	n/a	n/a	n/a	23	14	2	5	7
2760663	PROB	n/a	LTP362	ltpFR2	12	n/a	n/a	n/a	23	11	4	4	3
2764543	PROB	n/a	LTP362	ltpFR2	12	n/a	n/a	n/a	23	14	3	5	6
2766193	PROB	n/a	LTP362	ltpFR2	12	n/a	n/a	n/a	23	20	4	7	9
2767525	PROB	n/a	LTP362	ltpFR2	12	n/a	n/a	n/a	23	19	6	8	5
2769258	PROB	n/a	LTP362	ltpFR2	12	n/a	n/a	n/a	23	14	9	3	2
2770825	PROB	n/a	LTP362	ltpFR2	12	n/a	n/a	n/a	23	12	4	4	4
2771941	PROB	n/a	LTP362	ltpFR2	12	n/a	n/a	n/a	23	14	6	1	7
2773339	PROB	n/a	LTP362	ltpFR2	12	n/a	n/a	n/a	23	17	9	2	6
2774722	STOP	n/a	LTP362	ltpFR2	12	n/a	n/a	n/a	23	n/a	n/a	n/a	n/a
2777504	REC_START	n/a	LTP362	ltpFR2	12	14	n/a	n/a	n/a	n/a	0	0	0
2777937	REC_WORD	wordpools/wasnorm_wordpool_576.txt	LTP362	ltpFR2	12	14	HARP	689	n/a	n/a	0	0	0
2778724	REC_WORD	wordpools/wasnorm_wordpool_576.txt	LTP362	ltpFR2	12	14	TRANSPLANT	1496	n/a	n/a	0	0	0
2779393	REC_WORD	wordpools/wasnorm_wordpool_576.txt	LTP362	ltpFR2	12	14	NECKLACE	940	n/a	n/a	0	0	0
2780069	REC_WORD	wordpools/wasnorm_wordpool_576.txt	LTP362	ltpFR2	12	14	VALVE	1546	n/a	n/a	0	0	0
2780829	REC_WORD	wordpools/wasnorm_wordpool_576.txt	LTP362	ltpFR2	12	14	COWBOY	395	n/a	n/a	0	0	0
2867976	WORD	wordpools/wasnorm_wordpool_576.txt	LTP362	ltpFR2	12	15	CLOCK	325	n/a	n/a	0	0	0
2870441	WORD	wordpools/wasnorm_wordpool_576.txt	LTP362	ltpFR2	12	15	NOMAD	955	n/a	n/a	0	0	0
2873024	WORD	wordpools/wasnorm_wordpool_576.txt	LTP362	ltpFR2	12	15	TABLE	1426	n/a	n/a	0	0	0
2875472	WORD	wordpools/wasnorm_wordpool_576.txt	LTP362	ltpFR2	12	15	WITNESS	1618	n/a	n/a	0	0	0
2878204	WORD	wordpools/wasnorm_wordpool_576.txt	LTP362	ltpFR2	12	15	CRIB	407	n/a	n/a	0	0	0
2880987	WORD	wordpools/wasnorm_wordpool_576.txt	LTP362	ltpFR2	12	15	RATTLE	1170	n/a	n/a	0	0	0
2883418	WORD	wordpools/wasnorm_wordpool_576.txt	LTP362	ltpFR2	12	15	DENTIST	447	n/a	n/a	0	0	0
2885867	WORD	wordpools/wasnorm_wordpool_576.txt	LTP362	ltpFR2	12	15	MOTEL	919	n/a	n/a	0	0	0
2888399	WORD	wordpools/wasnorm_wordpool_576.txt	LTP362	ltpFR2	12	15	BRANDY	169	n/a	n/a	0	0	0
2891182	WORD	wordpools/wasnorm_wordpool_576.txt	LTP362	ltpFR2	12	15	SCISSORS	1250	n/a	n/a	0	0	0
2893680	WORD	wordpools/wasnorm_wordpool_576.txt	LTP362	ltpFR2	12	15	THREAD	1460	n/a	n/a	0	0	0
2896461	WORD	wordpools/wasnorm_wordpool_576.txt	LTP362	ltpFR2	12	15	ORANGE	980	n/a	n/a	0	0	0
2899193	WORD	wordpools/wasnorm_wordpool_576.txt	LTP362	ltpFR2	12	15	APPLE	33	n/a	n/a	0	0	0
2901976	WORD	wordpools/wasnorm_wordpool_576.txt	LTP362	ltpFR2	12	15	TRIBE	1505	n/a	n/a	0	0	0
2904574	WORD	wordpools/wasnorm_wordpool_576.txt	LTP362	ltpFR2	12	15	SODA	1341	n/a	n/a	0	0	0
2907140	WORD	wordpools/wasnorm_wordpool_576.txt	LTP362	ltpFR2	12	15	FREEZER	604	n/a	n/a	0	0	0
2909956	WORD	wordpools/wasnorm_wordpool_576.txt	LTP362	ltpFR2	12	15	KIDNEY	776	n/a	n/a	0	0	0
2912520	WORD	wordpools/wasnorm_wordpool_576.txt	LTP362	ltpFR2	12	15	COBRA	336	n/a	n/a	0	0	0
2915120	WORD	wordpools/wasnorm_wordpool_576.txt	LTP362	ltpFR2	12	15	GAVEL	627	n/a	n/a	0	0	0
2917617	WORD	wordpools/wasnorm_wordpool_576.txt	LTP362	ltpFR2	12	15	WRENCH	1625	n/a	n/a	0	0	0
2920084	WORD	wordpools/wasnorm_wordpool_576.txt	LTP362	ltpFR2	12	15	DRESSER	496	n/a	n/a	0	0	0
2922716	WORD	wordpools/wasnorm_wordpool_576.txt	LTP362	ltpFR2	12	15	LODGE	839	n/a	n/a	0	0	0
2925148	WORD	wordpools/wasnorm_wordpool_576.txt	LTP362	ltpFR2	12	15	SMOG	1330	n/a	n/a	0	0	0
2927930	WORD	wordpools/wasnorm_wordpool_576.txt	LTP362	ltpFR2	12	15	MILDEW	893	n/a	n/a	0	0	0
2929545	START	n/a	LTP362	ltpFR2	12	n/a	n/a	n/a	24	n/a	n/a	n/a	n/a
2930445	DISTRACTOR	n/a	LTP362	ltpFR2	12	15	n/a	n/a	n/a	n/a	0	0	0
2930461	PROB	n/a	LTP362	ltpFR2	12	n/a	n/a	n/a	24	20	5	8	7
2932343	PROB	n/a	LTP362	ltpFR2	12	n/a	n/a	n/a	24	13	3	1	9
2933627	PROB	n/a	LTP362	ltpFR2	12	n/a	n/a	n/a	24	17	4	6	7
2934777	PROB	n/a	LTP362	ltpFR2	12	n/a	n/a	n/a	24	14	4	8	2
2935876	PROB	n/a	LTP362	ltpFR2	12	n/a	n/a	n/a	24	19	3	7	9
2937142	PROB	n/a	LTP362	ltpFR2	12	n/a	n/a	n/a	24	17	4	7	6
2938524	PROB	n/a	LTP362	ltpFR2	12	n/a	n/a	n/a	24	18	8	3	7
2939707	PROB	n/a	LTP362	ltpFR2	12	n/a	n/a	n/a	24	14	2	8	4
2940840	PROB	n/a	LTP362	ltpFR2	12	n/a	n/a	n/a	24	14	5	4	5
2941990	PROB	n/a	LTP362	ltpFR2	12	n/a	n/a	n/a	24	14	1	6	7
2943338	PROB	n/a	LTP362	ltpFR2	12	n/a	n/a	n/a	24	25	9	8	8
2945220	PROB	n/a	LTP362	ltpFR2	12	n/a	n/a	n/a	24	15	2	8	5
2947187	PROB	n/a	LTP362	ltpFR2	12	n/a	n/a	n/a	24	13	5	4	4
2949702	PROB	n/a	LTP362	ltpFR2	12	n/a	n/a	n/a	24	21	4	9	8
2951251	PROB	n/a	LTP362	ltpFR2	12	n/a	n/a	n/a	24	10	3	6	1
2952313	STOP	n/a	LTP362	ltpFR2	12	n/a	n/a	n/a	24	n/a	n/a	n/a	n/a
2955449	REC_START	n/a	LTP362	ltpFR2	12	15	n/a	n/a	n/a	n/a	0	0	0
2958280	REC_WORD	wordpools/wasnorm_wordpool_576.txt	LTP362	ltpFR2	12	15	TABLE	1426	n/a	n/a	0	0	0
2959154	REC_WORD	wordpools/wasnorm_wordpool_576.txt	LTP362	ltpFR2	12	15	WRENCH	1625	n/a	n/a	0	0	0
2960040	REC_WORD	wordpools/wasnorm_wordpool_576.txt	LTP362	ltpFR2	12	15	BRANDY	169	n/a	n/a	0	0	0
2960715	REC_WORD	wordpools/wasnorm_wordpool_576.txt	LTP362	ltpFR2	12	15	SODA	1341	n/a	n/a	0	0	0
2961542	REC_WORD	wordpools/wasnorm_wordpool_576.txt	LTP362	ltpFR2	12	15	FREEZER	604	n/a	n/a	0	0	0
3045905	WORD	wordpools/wasnorm_wordpool_576.txt	LTP362	ltpFR2	12	16	SUSPECT	1415	n/a	n/a	0	0	0
3048687	WORD	wordpools/wasnorm_wordpool_576.txt	LTP362	ltpFR2	12	16	BADGE	68	n/a	n/a	0	0	0
3051368	WORD	wordpools/wasnorm_wordpool_576.txt	LTP362	ltpFR2	12	16	GANGSTER	620	n/a	n/a	0	0	0
3054167	WORD	wordpools/wasnorm_wordpool_576.txt	LTP362	ltpFR2	12	16	DRAGON	492	n/a	n/a	0	0	0
3056749	WORD	wordpools/wasnorm_wordpool_576.txt	LTP362	ltpFR2	12	16	SADDLE	1221	n/a	n/a	0	0	0
3059430	WORD	wordpools/wasnorm_wordpool_576.txt	LTP362	ltpFR2	12	16	COUNTRY	388	n/a	n/a	0	0	0
3062080	WORD	wordpools/wasnorm_wordpool_576.txt	LTP362	ltpFR2	12	16	SHOULDER	1294	n/a	n/a	0	0	0
3064879	WORD	wordpools/wasnorm_wordpool_576.txt	LTP362	ltpFR2	12	16	OMELET	976	n/a	n/a	0	0	0
3067360	WORD	wordpools/wasnorm_wordpool_576.txt	LTP362	ltpFR2	12	16	TURKEY	1520	n/a	n/a	0	0	0
3070143	WORD	wordpools/wasnorm_wordpool_576.txt	LTP362	ltpFR2	12	16	SUPPER	1411	n/a	n/a	0	0	0
3072574	WORD	wordpools/wasnorm_wordpool_576.txt	LTP362	ltpFR2	12	16	HEADBAND	696	n/a	n/a	0	0	0
3075024	WORD	wordpools/wasnorm_wordpool_576.txt	LTP362	ltpFR2	12	16	WHISKERS	1605	n/a	n/a	0	0	0
3077622	WORD	wordpools/wasnorm_wordpool_576.txt	LTP362	ltpFR2	12	16	WARDROBE	1587	n/a	n/a	0	0	0
3080187	WORD	wordpools/wasnorm_wordpool_576.txt	LTP362	ltpFR2	12	16	HAMPER	682	n/a	n/a	0	0	0
3082853	WORD	wordpools/wasnorm_wordpool_576.txt	LTP362	ltpFR2	12	16	CRUTCH	417	n/a	n/a	0	0	0
3085484	WORD	wordpools/wasnorm_wordpool_576.txt	LTP362	ltpFR2	12	16	BODY	145	n/a	n/a	0	0	0
3088134	WORD	wordpools/wasnorm_wordpool_576.txt	LTP362	ltpFR2	12	16	PASTA	1021	n/a	n/a	0	0	0
3090816	WORD	wordpools/wasnorm_wordpool_576.txt	LTP362	ltpFR2	12	16	FRIAR	605	n/a	n/a	0	0	0
3093264	WORD	wordpools/wasnorm_wordpool_576.txt	LTP362	ltpFR2	12	16	ASIA	46	n/a	n/a	0	0	0
3095847	WORD	wordpools/wasnorm_wordpool_576.txt	LTP362	ltpFR2	12	16	PUPIL	1143	n/a	n/a	0	0	0
3098511	WORD	wordpools/wasnorm_wordpool_576.txt	LTP362	ltpFR2	12	16	DONKEY	484	n/a	n/a	0	0	0
3101309	WORD	wordpools/wasnorm_wordpool_576.txt	LTP362	ltpFR2	12	16	HELMET	702	n/a	n/a	0	0	0
3104009	WORD	wordpools/wasnorm_wordpool_576.txt	LTP362	ltpFR2	12	16	CATTLE	261	n/a	n/a	0	0	0
3106724	WORD	wordpools/wasnorm_wordpool_576.txt	LTP362	ltpFR2	12	16	LUGGAGE	847	n/a	n/a	0	0	0
3108340	START	n/a	LTP362	ltpFR2	12	n/a	n/a	n/a	25	n/a	n/a	n/a	n/a
3109356	DISTRACTOR	n/a	LTP362	ltpFR2	12	16	n/a	n/a	n/a	n/a	0	0	0
3109372	PROB	n/a	LTP362	ltpFR2	12	n/a	n/a	n/a	25	12	1	2	9
3111072	PROB	n/a	LTP362	ltpFR2	12	n/a	n/a	n/a	25	13	5	3	5
3112138	PROB	n/a	LTP362	ltpFR2	12	n/a	n/a	n/a	25	14	5	3	6
3113754	PROB	n/a	LTP362	ltpFR2	12	n/a	n/a	n/a	25	18	4	6	8
3114987	PROB	n/a	LTP362	ltpFR2	12	n/a	n/a	n/a	25	20	9	8	3
3116903	PROB	n/a	LTP362	ltpFR2	12	n/a	n/a	n/a	25	15	1	5	9
3117936	PROB	n/a	LTP362	ltpFR2	12	n/a	n/a	n/a	25	9	4	1	4
3118968	PROB	n/a	LTP362	ltpFR2	12	n/a	n/a	n/a	25	20	9	2	9
3120200	PROB	n/a	LTP362	ltpFR2	12	n/a	n/a	n/a	25	12	4	4	4
3121250	PROB	n/a	LTP362	ltpFR2	12	n/a	n/a	n/a	25	15	3	6	6
3123066	PROB	n/a	LTP362	ltpFR2	12	n/a	n/a	n/a	25	9	6	2	1
3125182	PROB	n/a	LTP362	ltpFR2	12	n/a	n/a	n/a	25	17	1	8	8
3127330	PROB	n/a	LTP362	ltpFR2	12	n/a	n/a	n/a	25	18	6	6	6
3128847	PROB	n/a	LTP362	ltpFR2	12	n/a	n/a	n/a	25	21	9	4	8
3130478	PROB	n/a	LTP362	ltpFR2	12	n/a	n/a	n/a	25	10	1	2	7
3131449	STOP	n/a	LTP362	ltpFR2	12	n/a	n/a	n/a	25	n/a	n/a	n/a	n/a
3134277	REC_START	n/a	LTP362	ltpFR2	12	16	n/a	n/a	n/a	n/a	0	0	0
3134996	REC_WORD	wordpools/wasnorm_wordpool_576.txt	LTP362	ltpFR2	12	16	SUSPECT	1415	n/a	n/a	0	0	0
3135598	REC_WORD	wordpools/wasnorm_wordpool_576.txt	LTP362	ltpFR2	12	16	SHOULDER	1294	n/a	n/a	0	0	0
3136240	REC_WORD	wordpools/wasnorm_wordpool_576.txt	LTP362	ltpFR2	12	16	OMELET	976	n/a	n/a	0	0	0
3136820	REC_WORD	wordpools/wasnorm_wordpool_576.txt	LTP362	ltpFR2	12	16	ASIA	46	n/a	n/a	0	0	0
3137340	REC_WORD	wordpools/wasnorm_wordpool_576.txt	LTP362	ltpFR2	12	16	PUPIL	1143	n/a	n/a	0	0	0
3137968	REC_WORD	wordpools/wasnorm_wordpool_576.txt	LTP362	ltpFR2	12	16	DONKEY	484	n/a	n/a	0	0	0
3139059	REC_WORD	wordpools/wasnorm_wordpool_576.txt	LTP362	ltpFR2	12	16	CATTLE	261	n/a	n/a	0	0	0
3210823	REST_REWET	n/a	LTP362	ltpFR2	12	16	n/a	n/a	n/a	n/a	0	0	0
3338375	WORD	wordpools/wasnorm_wordpool_576.txt	LTP362	ltpFR2	12	17	HIGHWAY	707	n/a	n/a	0	0	0
3340875	WORD	wordpools/wasnorm_wordpool_576.txt	LTP362	ltpFR2	12	17	CARRIAGE	248	n/a	n/a	0	0	0
3343339	WORD	wordpools/wasnorm_wordpool_576.txt	LTP362	ltpFR2	12	17	TURNIP	1521	n/a	n/a	0	0	0
3346022	WORD	wordpools/wasnorm_wordpool_576.txt	LTP362	ltpFR2	12	17	PISTON	1076	n/a	n/a	0	0	0
3348771	WORD	wordpools/wasnorm_wordpool_576.txt	LTP362	ltpFR2	12	17	EXPERT	543	n/a	n/a	0	0	0
3351352	WORD	wordpools/wasnorm_wordpool_576.txt	LTP362	ltpFR2	12	17	TEACHER	1440	n/a	n/a	0	0	0
3353968	WORD	wordpools/wasnorm_wordpool_576.txt	LTP362	ltpFR2	12	17	WAITER	1580	n/a	n/a	0	0	0
3356533	WORD	wordpools/wasnorm_wordpool_576.txt	LTP362	ltpFR2	12	17	MUSTARD	935	n/a	n/a	0	0	0
3359331	WORD	wordpools/wasnorm_wordpool_576.txt	LTP362	ltpFR2	12	17	DINER	467	n/a	n/a	0	0	0
3361881	WORD	wordpools/wasnorm_wordpool_576.txt	LTP362	ltpFR2	12	17	BIKE	125	n/a	n/a	0	0	0
3364312	WORD	wordpools/wasnorm_wordpool_576.txt	LTP362	ltpFR2	12	17	PEDAL	1037	n/a	n/a	0	0	0
3367029	WORD	wordpools/wasnorm_wordpool_576.txt	LTP362	ltpFR2	12	17	VAGRANT	1544	n/a	n/a	0	0	0
3369727	WORD	wordpools/wasnorm_wordpool_576.txt	LTP362	ltpFR2	12	17	TWEEZERS	1526	n/a	n/a	0	0	0
3372225	WORD	wordpools/wasnorm_wordpool_576.txt	LTP362	ltpFR2	12	17	FOREHEAD	592	n/a	n/a	0	0	0
3374858	WORD	wordpools/wasnorm_wordpool_576.txt	LTP362	ltpFR2	12	17	MILK	895	n/a	n/a	0	0	0
3377406	WORD	wordpools/wasnorm_wordpool_576.txt	LTP362	ltpFR2	12	17	SALT	1229	n/a	n/a	0	0	0
3379872	WORD	wordpools/wasnorm_wordpool_576.txt	LTP362	ltpFR2	12	17	RUST	1219	n/a	n/a	0	0	0
3382553	WORD	wordpools/wasnorm_wordpool_576.txt	LTP362	ltpFR2	12	17	GALLON	618	n/a	n/a	0	0	0
3385202	WORD	wordpools/wasnorm_wordpool_576.txt	LTP362	ltpFR2	12	17	SALAD	1224	n/a	n/a	0	0	0
3387785	WORD	wordpools/wasnorm_wordpool_576.txt	LTP362	ltpFR2	12	17	PEBBLE	1035	n/a	n/a	0	0	0
3390316	WORD	wordpools/wasnorm_wordpool_576.txt	LTP362	ltpFR2	12	17	FIREMAN	569	n/a	n/a	0	0	0
3392749	WORD	wordpools/wasnorm_wordpool_576.txt	LTP362	ltpFR2	12	17	RACKET	1155	n/a	n/a	0	0	0
3395313	WORD	wordpools/wasnorm_wordpool_576.txt	LTP362	ltpFR2	12	17	TRENCH	1503	n/a	n/a	0	0	0
3397830	WORD	wordpools/wasnorm_wordpool_576.txt	LTP362	ltpFR2	12	17	FRANCE	601	n/a	n/a	0	0	0
3399445	START	n/a	LTP362	ltpFR2	12	n/a	n/a	n/a	26	n/a	n/a	n/a	n/a
3400276	DISTRACTOR	n/a	LTP362	ltpFR2	12	17	n/a	n/a	n/a	n/a	0	0	0
3400278	PROB	n/a	LTP362	ltpFR2	12	n/a	n/a	n/a	26	15	5	1	9
3401778	PROB	n/a	LTP362	ltpFR2	12	n/a	n/a	n/a	26	13	8	3	2
3404160	PROB	n/a	LTP362	ltpFR2	12	n/a	n/a	n/a	26	19	8	7	4
3406525	PROB	n/a	LTP362	ltpFR2	12	n/a	n/a	n/a	26	9	6	2	1
3408025	PROB	n/a	LTP362	ltpFR2	12	n/a	n/a	n/a	26	13	6	1	6
3409807	PROB	n/a	LTP362	ltpFR2	12	n/a	n/a	n/a	26	19	8	2	9
3410890	PROB	n/a	LTP362	ltpFR2	12	n/a	n/a	n/a	26	19	8	8	3
3413056	PROB	n/a	LTP362	ltpFR2	12	n/a	n/a	n/a	26	11	9	1	1
3414122	PROB	n/a	LTP362	ltpFR2	12	n/a	n/a	n/a	26	13	5	1	7
3415704	PROB	n/a	LTP362	ltpFR2	12	n/a	n/a	n/a	26	22	5	9	8
3418585	PROB	n/a	LTP362	ltpFR2	12	n/a	n/a	n/a	26	12	2	4	6
3419952	PROB	n/a	LTP362	ltpFR2	12	n/a	n/a	n/a	26	15	7	1	7
3421085	PROB	n/a	LTP362	ltpFR2	12	n/a	n/a	n/a	26	18	7	9	2
3422601	STOP	n/a	LTP362	ltpFR2	12	n/a	n/a	n/a	26	n/a	n/a	n/a	n/a
3425266	REC_START	n/a	LTP362	ltpFR2	12	17	n/a	n/a	n/a	n/a	0	0	0
3447489	REC_WORD	wordpools/wasnorm_wordpool_576.txt	LTP362	ltpFR2	12	17	TURNIP	1521	n/a	n/a	0	0	0
3515705	DISTRACTOR	n/a	LTP362	ltpFR2	12	18	n/a	n/a	n/a	n/a	0	0	0
3515705	START	n/a	LTP362	ltpFR2	12	n/a	n/a	n/a	27	n/a	n/a	n/a	n/a
3515721	PROB	n/a	LTP362	ltpFR2	12	n/a	n/a	n/a	27	22	7	9	6
3517804	PROB	n/a	LTP362	ltpFR2	12	n/a	n/a	n/a	27	15	5	3	7
3518986	PROB	n/a	LTP362	ltpFR2	12	n/a	n/a	n/a	27	5	2	1	2
3519953	PROB	n/a	LTP362	ltpFR2	12	n/a	n/a	n/a	27	19	8	2	9
3521052	PROB	n/a	LTP362	ltpFR2	12	n/a	n/a	n/a	27	19	9	4	6
3522185	PROB	n/a	LTP362	ltpFR2	12	n/a	n/a	n/a	27	14	5	2	7
3523784	PROB	n/a	LTP362	ltpFR2	12	n/a	n/a	n/a	27	5	2	2	1
3524767	PROB	n/a	LTP362	ltpFR2	12	n/a	n/a	n/a	27	21	7	9	5
3526799	PROB	n/a	LTP362	ltpFR2	12	n/a	n/a	n/a	27	6	1	1	4
3527749	PROB	n/a	LTP362	ltpFR2	12	n/a	n/a	n/a	27	6	2	1	3
3528765	PROB	n/a	LTP362	ltpFR2	12	n/a	n/a	n/a	27	23	9	9	5
3531513	PROB	n/a	LTP362	ltpFR2	12	n/a	n/a	n/a	27	11	1	8	2
3532780	PROB	n/a	LTP362	ltpFR2	12	n/a	n/a	n/a	27	18	9	7	2
3534544	PROB	n/a	LTP362	ltpFR2	12	n/a	n/a	n/a	27	20	9	2	9
3535895	PROB	n/a	LTP362	ltpFR2	12	n/a	n/a	n/a	27	22	9	9	4
3537526	PROB	n/a	LTP362	ltpFR2	12	n/a	n/a	n/a	27	12	7	4	1
3539106	STOP	n/a	LTP362	ltpFR2	12	n/a	n/a	n/a	27	n/a	n/a	n/a	n/a
3540692	WORD	wordpools/wasnorm_wordpool_576.txt	LTP362	ltpFR2	12	18	CITRUS	313	n/a	n/a	0	0	0
3543423	WORD	wordpools/wasnorm_wordpool_576.txt	LTP362	ltpFR2	12	18	DRESS	495	n/a	n/a	0	0	0
3545873	WORD	wordpools/wasnorm_wordpool_576.txt	LTP362	ltpFR2	12	18	ULCER	1533	n/a	n/a	0	0	0
3548521	WORD	wordpools/wasnorm_wordpool_576.txt	LTP362	ltpFR2	12	18	SPOON	1357	n/a	n/a	0	0	0
3550987	WORD	wordpools/wasnorm_wordpool_576.txt	LTP362	ltpFR2	12	18	TURTLE	1522	n/a	n/a	0	0	0
3553653	WORD	wordpools/wasnorm_wordpool_576.txt	LTP362	ltpFR2	12	18	CRAB	397	n/a	n/a	0	0	0
3556135	WORD	wordpools/wasnorm_wordpool_576.txt	LTP362	ltpFR2	12	18	EMPIRE	530	n/a	n/a	0	0	0
3558933	WORD	wordpools/wasnorm_wordpool_576.txt	LTP362	ltpFR2	12	18	BLADE	134	n/a	n/a	0	0	0
3561581	WORD	wordpools/wasnorm_wordpool_576.txt	LTP362	ltpFR2	12	18	HORNET	718	n/a	n/a	0	0	0
3564246	WORD	wordpools/wasnorm_wordpool_576.txt	LTP362	ltpFR2	12	18	SIBLING	1301	n/a	n/a	0	0	0
3566746	WORD	wordpools/wasnorm_wordpool_576.txt	LTP362	ltpFR2	12	18	THRONE	1461	n/a	n/a	0	0	0
3569377	WORD	wordpools/wasnorm_wordpool_576.txt	LTP362	ltpFR2	12	18	REBEL	1172	n/a	n/a	0	0	0
3572077	WORD	wordpools/wasnorm_wordpool_576.txt	LTP362	ltpFR2	12	18	FOOTBALL	591	n/a	n/a	0	0	0
3574725	WORD	wordpools/wasnorm_wordpool_576.txt	LTP362	ltpFR2	12	18	CUPBOARD	425	n/a	n/a	0	0	0
3577273	WORD	wordpools/wasnorm_wordpool_576.txt	LTP362	ltpFR2	12	18	PLATE	1086	n/a	n/a	0	0	0
3580073	WORD	wordpools/wasnorm_wordpool_576.txt	LTP362	ltpFR2	12	18	BACON	67	n/a	n/a	0	0	0
3582888	WORD	wordpools/wasnorm_wordpool_576.txt	LTP362	ltpFR2	12	18	BULLET	194	n/a	n/a	0	0	0
3585452	WORD	wordpools/wasnorm_wordpool_576.txt	LTP362	ltpFR2	12	18	RAFT	1159	n/a	n/a	0	0	0
3588201	WORD	wordpools/wasnorm_wordpool_576.txt	LTP362	ltpFR2	12	18	LAKE	796	n/a	n/a	0	0	0
3590684	WORD	wordpools/wasnorm_wordpool_576.txt	LTP362	ltpFR2	12	18	SCARF	1246	n/a	n/a	0	0	0
3593432	WORD	wordpools/wasnorm_wordpool_576.txt	LTP362	ltpFR2	12	18	TRUCK	1512	n/a	n/a	0	0	0
3596098	WORD	wordpools/wasnorm_wordpool_576.txt	LTP362	ltpFR2	12	18	UNCLE	1536	n/a	n/a	0	0	0
3598680	WORD	wordpools/wasnorm_wordpool_576.txt	LTP362	ltpFR2	12	18	WORKER	1621	n/a	n/a	0	0	0
3601179	WORD	wordpools/wasnorm_wordpool_576.txt	LTP362	ltpFR2	12	18	ICEBERG	731	n/a	n/a	0	0	0
3602795	START	n/a	LTP362	ltpFR2	12	n/a	n/a	n/a	28	n/a	n/a	n/a	n/a
3603640	DISTRACTOR	n/a	LTP362	ltpFR2	12	18	n/a	n/a	n/a	n/a	0	0	0
3603644	PROB	n/a	LTP362	ltpFR2	12	n/a	n/a	n/a	28	12	5	6	1
3604910	PROB	n/a	LTP362	ltpFR2	12	n/a	n/a	n/a	28	12	3	1	8
3607009	PROB	n/a	LTP362	ltpFR2	12	n/a	n/a	n/a	28	21	7	9	5
3608958	PROB	n/a	LTP362	ltpFR2	12	n/a	n/a	n/a	28	11	2	5	4
3611223	PROB	n/a	LTP362	ltpFR2	12	n/a	n/a	n/a	28	13	6	1	6
3612306	PROB	n/a	LTP362	ltpFR2	12	n/a	n/a	n/a	28	12	8	1	3
3613806	PROB	n/a	LTP362	ltpFR2	12	n/a	n/a	n/a	28	14	1	8	5
3616304	PROB	n/a	LTP362	ltpFR2	12	n/a	n/a	n/a	28	12	2	4	6
3617621	PROB	n/a	LTP362	ltpFR2	12	n/a	n/a	n/a	28	13	4	3	6
3618704	PROB	n/a	LTP362	ltpFR2	12	n/a	n/a	n/a	28	13	2	7	4
3620568	PROB	n/a	LTP362	ltpFR2	12	n/a	n/a	n/a	28	15	7	7	1
3621702	PROB	n/a	LTP362	ltpFR2	12	n/a	n/a	n/a	28	19	4	8	7
3623001	PROB	n/a	LTP362	ltpFR2	12	n/a	n/a	n/a	28	7	3	2	2
3625084	PROB	n/a	LTP362	ltpFR2	12	n/a	n/a	n/a	28	11	1	1	9
3626090	STOP	n/a	LTP362	ltpFR2	12	n/a	n/a	n/a	28	n/a	n/a	n/a	n/a
3628716	REC_START	n/a	LTP362	ltpFR2	12	18	n/a	n/a	n/a	n/a	0	0	0
3631400	REC_WORD	wordpools/wasnorm_wordpool_576.txt	LTP362	ltpFR2	12	18	CRAB	397	n/a	n/a	0	0	0
3632194	REC_WORD	wordpools/wasnorm_wordpool_576.txt	LTP362	ltpFR2	12	18	ULCER	1533	n/a	n/a	0	0	0
3632813	REC_WORD	wordpools/wasnorm_wordpool_576.txt	LTP362	ltpFR2	12	18	TURTLE	1522	n/a	n/a	0	0	0
3633337	REC_WORD	wordpools/wasnorm_wordpool_576.txt	LTP362	ltpFR2	12	18	SPOON	1357	n/a	n/a	0	0	0
3634458	REC_WORD	wordpools/wasnorm_wordpool_576.txt	LTP362	ltpFR2	12	18	BULLET	194	n/a	n/a	0	0	0
3636482	REC_WORD	wordpools/wasnorm_wordpool_576.txt	LTP362	ltpFR2	12	18	BACON	67	n/a	n/a	0	0	0
3637124	REC_WORD	wordpools/wasnorm_wordpool_576.txt	LTP362	ltpFR2	12	18	SIBLING	1301	n/a	n/a	0	0	0
3639476	REC_WORD	wordpools/wasnorm_wordpool_576.txt	LTP362	ltpFR2	12	18	REBEL	1172	n/a	n/a	0	0	0
3640044	REC_WORD	wordpools/wasnorm_wordpool_576.txt	LTP362	ltpFR2	12	18	THRONE	1461	n/a	n/a	0	0	0
3642731	REC_WORD	wordpools/wasnorm_wordpool_576.txt	LTP362	ltpFR2	12	18	LAKE	796	n/a	n/a	0	0	0
3643397	REC_WORD	wordpools/wasnorm_wordpool_576.txt	LTP362	ltpFR2	12	18	RAFT	1159	n/a	n/a	0	0	0
3719170	DISTRACTOR	n/a	LTP362	ltpFR2	12	19	n/a	n/a	n/a	n/a	0	0	0
3719171	START	n/a	LTP362	ltpFR2	12	n/a	n/a	n/a	29	n/a	n/a	n/a	n/a
3719187	PROB	n/a	LTP362	ltpFR2	12	n/a	n/a	n/a	29	21	9	8	3
3720585	PROB	n/a	LTP362	ltpFR2	12	n/a	n/a	n/a	29	11	3	3	5
3722685	PROB	n/a	LTP362	ltpFR2	12	n/a	n/a	n/a	29	6	1	1	4
3723951	PROB	n/a	LTP362	ltpFR2	12	n/a	n/a	n/a	29	18	3	8	7
3726017	PROB	n/a	LTP362	ltpFR2	12	n/a	n/a	n/a	29	17	9	7	1
3727482	PROB	n/a	LTP362	ltpFR2	12	n/a	n/a	n/a	29	24	9	7	8
3729614	PROB	n/a	LTP362	ltpFR2	12	n/a	n/a	n/a	29	14	7	6	1
3731313	PROB	n/a	LTP362	ltpFR2	12	n/a	n/a	n/a	29	23	9	8	6
3734245	PROB	n/a	LTP362	ltpFR2	12	n/a	n/a	n/a	29	19	7	7	5
3735729	PROB	n/a	LTP362	ltpFR2	12	n/a	n/a	n/a	29	12	3	7	2
3737794	PROB	n/a	LTP362	ltpFR2	12	n/a	n/a	n/a	29	19	9	9	1
3739127	PROB	n/a	LTP362	ltpFR2	12	n/a	n/a	n/a	29	13	2	7	4
3741242	PROB	n/a	LTP362	ltpFR2	12	n/a	n/a	n/a	29	8	2	4	2
3742770	STOP	n/a	LTP362	ltpFR2	12	n/a	n/a	n/a	29	n/a	n/a	n/a	n/a
3744075	WORD	wordpools/wasnorm_wordpool_576.txt	LTP362	ltpFR2	12	19	LIPSTICK	829	n/a	n/a	0	0	0
3746657	WORD	wordpools/wasnorm_wordpool_576.txt	LTP362	ltpFR2	12	19	SLUG	1329	n/a	n/a	0	0	0
3749122	WORD	wordpools/wasnorm_wordpool_576.txt	LTP362	ltpFR2	12	19	STUDENT	1395	n/a	n/a	0	0	0
3751771	WORD	wordpools/wasnorm_wordpool_576.txt	LTP362	ltpFR2	12	19	VIKING	1565	n/a	n/a	0	0	0
3754552	WORD	wordpools/wasnorm_wordpool_576.txt	LTP362	ltpFR2	12	19	YACHT	1629	n/a	n/a	0	0	0
3757185	WORD	wordpools/wasnorm_wordpool_576.txt	LTP362	ltpFR2	12	19	FOOT	590	n/a	n/a	0	0	0
3759833	WORD	wordpools/wasnorm_wordpool_576.txt	LTP362	ltpFR2	12	19	BOYFRIEND	162	n/a	n/a	0	0	0
3762398	WORD	wordpools/wasnorm_wordpool_576.txt	LTP362	ltpFR2	12	19	MUMMY	932	n/a	n/a	0	0	0
3764948	WORD	wordpools/wasnorm_wordpool_576.txt	LTP362	ltpFR2	12	19	PUPPY	1144	n/a	n/a	0	0	0
3767579	WORD	wordpools/wasnorm_wordpool_576.txt	LTP362	ltpFR2	12	19	RUG	1215	n/a	n/a	0	0	0
3770327	WORD	wordpools/wasnorm_wordpool_576.txt	LTP362	ltpFR2	12	19	CAMEL	223	n/a	n/a	0	0	0
3772927	WORD	wordpools/wasnorm_wordpool_576.txt	LTP362	ltpFR2	12	19	TUBA	1515	n/a	n/a	0	0	0
3775709	WORD	wordpools/wasnorm_wordpool_576.txt	LTP362	ltpFR2	12	19	PECAN	1036	n/a	n/a	0	0	0
3778190	WORD	wordpools/wasnorm_wordpool_576.txt	LTP362	ltpFR2	12	19	OINTMENT	974	n/a	n/a	0	0	0
3780923	WORD	wordpools/wasnorm_wordpool_576.txt	LTP362	ltpFR2	12	19	STALLION	1369	n/a	n/a	0	0	0
3783705	WORD	wordpools/wasnorm_wordpool_576.txt	LTP362	ltpFR2	12	19	SLIDE	1326	n/a	n/a	0	0	0
3786269	WORD	wordpools/wasnorm_wordpool_576.txt	LTP362	ltpFR2	12	19	NEUTRON	947	n/a	n/a	0	0	0
3788769	WORD	wordpools/wasnorm_wordpool_576.txt	LTP362	ltpFR2	12	19	TABLET	1427	n/a	n/a	0	0	0
3791250	WORD	wordpools/wasnorm_wordpool_576.txt	LTP362	ltpFR2	12	19	GLOBE	641	n/a	n/a	0	0	0
3793817	WORD	wordpools/wasnorm_wordpool_576.txt	LTP362	ltpFR2	12	19	PIANO	1057	n/a	n/a	0	0	0
3796331	WORD	wordpools/wasnorm_wordpool_576.txt	LTP362	ltpFR2	12	19	CRATER	400	n/a	n/a	0	0	0
3798781	WORD	wordpools/wasnorm_wordpool_576.txt	LTP362	ltpFR2	12	19	FINGER	567	n/a	n/a	0	0	0
3801345	WORD	wordpools/wasnorm_wordpool_576.txt	LTP362	ltpFR2	12	19	LACE	792	n/a	n/a	0	0	0
3804062	WORD	wordpools/wasnorm_wordpool_576.txt	LTP362	ltpFR2	12	19	SKIRT	1319	n/a	n/a	0	0	0
3805678	START	n/a	LTP362	ltpFR2	12	n/a	n/a	n/a	30	n/a	n/a	n/a	n/a
3806648	DISTRACTOR	n/a	LTP362	ltpFR2	12	19	n/a	n/a	n/a	n/a	0	0	0
3806660	PROB	n/a	LTP362	ltpFR2	12	n/a	n/a	n/a	30	15	5	3	7
3808026	PROB	n/a	LTP362	ltpFR2	12	n/a	n/a	n/a	30	20	7	5	8
3810109	PROB	n/a	LTP362	ltpFR2	12	n/a	n/a	n/a	30	11	4	6	1
3811240	PROB	n/a	LTP362	ltpFR2	12	n/a	n/a	n/a	30	14	3	5	6
3813306	PROB	n/a	LTP362	ltpFR2	12	n/a	n/a	n/a	30	14	4	5	5
3814605	PROB	n/a	LTP362	ltpFR2	12	n/a	n/a	n/a	30	12	2	1	9
3815706	PROB	n/a	LTP362	ltpFR2	12	n/a	n/a	n/a	30	11	1	8	2
3817138	PROB	n/a	LTP362	ltpFR2	12	n/a	n/a	n/a	30	14	8	1	5
3818904	PROB	n/a	LTP362	ltpFR2	12	n/a	n/a	n/a	30	9	5	1	3
3820452	PROB	n/a	LTP362	ltpFR2	12	n/a	n/a	n/a	30	16	3	8	5
3821819	PROB	n/a	LTP362	ltpFR2	12	n/a	n/a	n/a	30	14	4	2	8
3823334	PROB	n/a	LTP362	ltpFR2	12	n/a	n/a	n/a	30	18	5	7	6
3824868	PROB	n/a	LTP362	ltpFR2	12	n/a	n/a	n/a	30	11	3	2	6
3826784	PROB	n/a	LTP362	ltpFR2	12	n/a	n/a	n/a	30	11	5	2	4
3828634	STOP	n/a	LTP362	ltpFR2	12	n/a	n/a	n/a	30	n/a	n/a	n/a	n/a
3831481	REC_START	n/a	LTP362	ltpFR2	12	19	n/a	n/a	n/a	n/a	0	0	0
3832037	REC_WORD	wordpools/wasnorm_wordpool_576.txt	LTP362	ltpFR2	12	19	NEUTRON	947	n/a	n/a	0	0	0
3832511	REC_WORD	wordpools/wasnorm_wordpool_576.txt	LTP362	ltpFR2	12	19	TABLET	1427	n/a	n/a	0	0	0
3832968	REC_WORD	wordpools/wasnorm_wordpool_576.txt	LTP362	ltpFR2	12	19	GLOBE	641	n/a	n/a	0	0	0
3833219	REC_WORD	wordpools/wasnorm_wordpool_576.txt	LTP362	ltpFR2	12	19	FINGER	567	n/a	n/a	0	0	0
3845149	REC_WORD	wordpools/wasnorm_wordpool_576.txt	LTP362	ltpFR2	12	19	PUPPY	1144	n/a	n/a	0	0	0
3847551	REC_WORD	wordpools/wasnorm_wordpool_576.txt	LTP362	ltpFR2	12	19	RUG	1215	n/a	n/a	0	0	0
3858519	REC_WORD	wordpools/wasnorm_wordpool_576.txt	LTP362	ltpFR2	12	19	CRATER	400	n/a	n/a	0	0	0
3921953	DISTRACTOR	n/a	LTP362	ltpFR2	12	20	n/a	n/a	n/a	n/a	0	0	0
3921953	START	n/a	LTP362	ltpFR2	12	n/a	n/a	n/a	31	n/a	n/a	n/a	n/a
3921970	PROB	n/a	LTP362	ltpFR2	12	n/a	n/a	n/a	31	14	9	3	2
3923535	PROB	n/a	LTP362	ltpFR2	12	n/a	n/a	n/a	31	14	2	4	8
3924885	PROB	n/a	LTP362	ltpFR2	12	n/a	n/a	n/a	31	13	8	3	2
3927833	PROB	n/a	LTP362	ltpFR2	12	n/a	n/a	n/a	31	15	5	1	9
3928950	PROB	n/a	LTP362	ltpFR2	12	n/a	n/a	n/a	31	10	1	7	2
3930514	PROB	n/a	LTP362	ltpFR2	12	n/a	n/a	n/a	31	10	3	2	5
3931748	PROB	n/a	LTP362	ltpFR2	12	n/a	n/a	n/a	31	13	3	5	5
3932781	PROB	n/a	LTP362	ltpFR2	12	n/a	n/a	n/a	31	14	2	8	4
3934463	PROB	n/a	LTP362	ltpFR2	12	n/a	n/a	n/a	31	10	1	8	1
3935529	PROB	n/a	LTP362	ltpFR2	12	n/a	n/a	n/a	31	17	6	3	8
3937129	PROB	n/a	LTP362	ltpFR2	12	n/a	n/a	n/a	31	14	8	5	1
3939277	PROB	n/a	LTP362	ltpFR2	12	n/a	n/a	n/a	31	14	3	8	3
3940593	PROB	n/a	LTP362	ltpFR2	12	n/a	n/a	n/a	31	7	5	1	1
3941492	PROB	n/a	LTP362	ltpFR2	12	n/a	n/a	n/a	31	21	8	8	5
3943042	PROB	n/a	LTP362	ltpFR2	12	n/a	n/a	n/a	31	13	1	3	9
3945938	STOP	n/a	LTP362	ltpFR2	12	n/a	n/a	n/a	31	n/a	n/a	n/a	n/a
3946974	WORD	wordpools/wasnorm_wordpool_576.txt	LTP362	ltpFR2	12	20	SANDWICH	1232	n/a	n/a	0	0	0
3949605	WORD	wordpools/wasnorm_wordpool_576.txt	LTP362	ltpFR2	12	20	SKETCH	1315	n/a	n/a	0	0	0
3952420	WORD	wordpools/wasnorm_wordpool_576.txt	LTP362	ltpFR2	12	20	LAMP	798	n/a	n/a	0	0	0
3955053	WORD	wordpools/wasnorm_wordpool_576.txt	LTP362	ltpFR2	12	20	CREVICE	405	n/a	n/a	0	0	0
3957484	WORD	wordpools/wasnorm_wordpool_576.txt	LTP362	ltpFR2	12	20	GLASS	639	n/a	n/a	0	0	0
3960001	WORD	wordpools/wasnorm_wordpool_576.txt	LTP362	ltpFR2	12	20	SERVANT	1271	n/a	n/a	0	0	0
3962598	WORD	wordpools/wasnorm_wordpool_576.txt	LTP362	ltpFR2	12	20	VENUS	1557	n/a	n/a	0	0	0
3965132	WORD	wordpools/wasnorm_wordpool_576.txt	LTP362	ltpFR2	12	20	SCARECROW	1245	n/a	n/a	0	0	0
3967680	WORD	wordpools/wasnorm_wordpool_576.txt	LTP362	ltpFR2	12	20	SLIME	1327	n/a	n/a	0	0	0
3970129	WORD	wordpools/wasnorm_wordpool_576.txt	LTP362	ltpFR2	12	20	LETTUCE	814	n/a	n/a	0	0	0
3972778	WORD	wordpools/wasnorm_wordpool_576.txt	LTP362	ltpFR2	12	20	COFFEE	341	n/a	n/a	0	0	0
3975325	WORD	wordpools/wasnorm_wordpool_576.txt	LTP362	ltpFR2	12	20	STOMACH	1384	n/a	n/a	0	0	0
3978125	WORD	wordpools/wasnorm_wordpool_576.txt	LTP362	ltpFR2	12	20	FLASHLIGHT	575	n/a	n/a	0	0	0
3980757	WORD	wordpools/wasnorm_wordpool_576.txt	LTP362	ltpFR2	12	20	LAVA	804	n/a	n/a	0	0	0
3983571	WORD	wordpools/wasnorm_wordpool_576.txt	LTP362	ltpFR2	12	20	CASHIER	254	n/a	n/a	0	0	0
3986320	WORD	wordpools/wasnorm_wordpool_576.txt	LTP362	ltpFR2	12	20	PLAZA	1088	n/a	n/a	0	0	0
3989086	WORD	wordpools/wasnorm_wordpool_576.txt	LTP362	ltpFR2	12	20	MARKET	871	n/a	n/a	0	0	0
3991617	WORD	wordpools/wasnorm_wordpool_576.txt	LTP362	ltpFR2	12	20	TROUT	1511	n/a	n/a	0	0	0
3994333	WORD	wordpools/wasnorm_wordpool_576.txt	LTP362	ltpFR2	12	20	CRICKET	408	n/a	n/a	0	0	0
3996949	WORD	wordpools/wasnorm_wordpool_576.txt	LTP362	ltpFR2	12	20	JURY	766	n/a	n/a	0	0	0
3999430	WORD	wordpools/wasnorm_wordpool_576.txt	LTP362	ltpFR2	12	20	SUNSET	1408	n/a	n/a	0	0	0
4001947	WORD	wordpools/wasnorm_wordpool_576.txt	LTP362	ltpFR2	12	20	PORTRAIT	1111	n/a	n/a	0	0	0
4004645	WORD	wordpools/wasnorm_wordpool_576.txt	LTP362	ltpFR2	12	20	BUCKET	184	n/a	n/a	0	0	0
4007161	WORD	wordpools/wasnorm_wordpool_576.txt	LTP362	ltpFR2	12	20	STREAM	1392	n/a	n/a	0	0	0
4008777	START	n/a	LTP362	ltpFR2	12	n/a	n/a	n/a	32	n/a	n/a	n/a	n/a
4009632	DISTRACTOR	n/a	LTP362	ltpFR2	12	20	n/a	n/a	n/a	n/a	0	0	0
4009643	PROB	n/a	LTP362	ltpFR2	12	n/a	n/a	n/a	32	15	5	5	5
4011175	PROB	n/a	LTP362	ltpFR2	12	n/a	n/a	n/a	32	9	1	1	7
4012374	PROB	n/a	LTP362	ltpFR2	12	n/a	n/a	n/a	32	19	8	6	5
4014174	PROB	n/a	LTP362	ltpFR2	12	n/a	n/a	n/a	32	17	8	7	2
4015539	PROB	n/a	LTP362	ltpFR2	12	n/a	n/a	n/a	32	13	1	7	5
4017755	PROB	n/a	LTP362	ltpFR2	12	n/a	n/a	n/a	32	16	9	1	6
4018955	PROB	n/a	LTP362	ltpFR2	12	n/a	n/a	n/a	32	22	9	4	9
4020804	PROB	n/a	LTP362	ltpFR2	12	n/a	n/a	n/a	32	17	7	5	5
4022003	PROB	n/a	LTP362	ltpFR2	12	n/a	n/a	n/a	32	12	1	9	2
4023086	PROB	n/a	LTP362	ltpFR2	12	n/a	n/a	n/a	32	15	8	4	3
4024434	PROB	n/a	LTP362	ltpFR2	12	n/a	n/a	n/a	32	10	2	4	4
4025801	PROB	n/a	LTP362	ltpFR2	12	n/a	n/a	n/a	32	21	9	5	7
4029199	PROB	n/a	LTP362	ltpFR2	12	n/a	n/a	n/a	32	16	6	3	7
4030448	PROB	n/a	LTP362	ltpFR2	12	n/a	n/a	n/a	32	12	6	2	4
4032066	STOP	n/a	LTP362	ltpFR2	12	n/a	n/a	n/a	32	n/a	n/a	n/a	n/a
4034597	REC_START	n/a	LTP362	ltpFR2	12	20	n/a	n/a	n/a	n/a	0	0	0
4040020	REC_WORD	wordpools/wasnorm_wordpool_576.txt	LTP362	ltpFR2	12	20	CRICKET	408	n/a	n/a	0	0	0
4125069	WORD	wordpools/wasnorm_wordpool_576.txt	LTP362	ltpFR2	12	21	YARN	1631	n/a	n/a	0	0	0
4127701	WORD	wordpools/wasnorm_wordpool_576.txt	LTP362	ltpFR2	12	21	MARS	873	n/a	n/a	0	0	0
4130349	WORD	wordpools/wasnorm_wordpool_576.txt	LTP362	ltpFR2	12	21	JEANS	752	n/a	n/a	0	0	0
4133015	WORD	wordpools/wasnorm_wordpool_576.txt	LTP362	ltpFR2	12	21	FILM	565	n/a	n/a	0	0	0
4135563	WORD	wordpools/wasnorm_wordpool_576.txt	LTP362	ltpFR2	12	21	WIFE	1609	n/a	n/a	0	0	0
4138079	WORD	wordpools/wasnorm_wordpool_576.txt	LTP362	ltpFR2	12	21	SPOUSE	1358	n/a	n/a	0	0	0
4140728	WORD	wordpools/wasnorm_wordpool_576.txt	LTP362	ltpFR2	12	21	CONCERT	360	n/a	n/a	0	0	0
4143492	WORD	wordpools/wasnorm_wordpool_576.txt	LTP362	ltpFR2	12	21	GRILL	661	n/a	n/a	0	0	0
4146142	WORD	wordpools/wasnorm_wordpool_576.txt	LTP362	ltpFR2	12	21	MONSTER	912	n/a	n/a	0	0	0
4148724	WORD	wordpools/wasnorm_wordpool_576.txt	LTP362	ltpFR2	12	21	EYELASH	546	n/a	n/a	0	0	0
4151521	WORD	wordpools/wasnorm_wordpool_576.txt	LTP362	ltpFR2	12	21	PORK	1108	n/a	n/a	0	0	0
4154253	WORD	wordpools/wasnorm_wordpool_576.txt	LTP362	ltpFR2	12	21	GUITAR	670	n/a	n/a	0	0	0
4157003	WORD	wordpools/wasnorm_wordpool_576.txt	LTP362	ltpFR2	12	21	STAMP	1370	n/a	n/a	0	0	0
4159768	WORD	wordpools/wasnorm_wordpool_576.txt	LTP362	ltpFR2	12	21	HONEY	713	n/a	n/a	0	0	0
4162499	WORD	wordpools/wasnorm_wordpool_576.txt	LTP362	ltpFR2	12	21	PLASTER	1085	n/a	n/a	0	0	0
4165016	WORD	wordpools/wasnorm_wordpool_576.txt	LTP362	ltpFR2	12	21	PRINCE	1124	n/a	n/a	0	0	0
4167831	WORD	wordpools/wasnorm_wordpool_576.txt	LTP362	ltpFR2	12	21	QUEEN	1149	n/a	n/a	0	0	0
4170479	WORD	wordpools/wasnorm_wordpool_576.txt	LTP362	ltpFR2	12	21	CRITIC	410	n/a	n/a	0	0	0
4173145	WORD	wordpools/wasnorm_wordpool_576.txt	LTP362	ltpFR2	12	21	COCOON	339	n/a	n/a	0	0	0
4175694	WORD	wordpools/wasnorm_wordpool_576.txt	LTP362	ltpFR2	12	21	DOUGHNUT	490	n/a	n/a	0	0	0
4178291	WORD	wordpools/wasnorm_wordpool_576.txt	LTP362	ltpFR2	12	21	PALACE	1006	n/a	n/a	0	0	0
4180991	WORD	wordpools/wasnorm_wordpool_576.txt	LTP362	ltpFR2	12	21	SWAMP	1416	n/a	n/a	0	0	0
4183656	WORD	wordpools/wasnorm_wordpool_576.txt	LTP362	ltpFR2	12	21	SHOVEL	1295	n/a	n/a	0	0	0
4186387	WORD	wordpools/wasnorm_wordpool_576.txt	LTP362	ltpFR2	12	21	LONDON	843	n/a	n/a	0	0	0
4188004	START	n/a	LTP362	ltpFR2	12	n/a	n/a	n/a	33	n/a	n/a	n/a	n/a
4188874	DISTRACTOR	n/a	LTP362	ltpFR2	12	21	n/a	n/a	n/a	n/a	0	0	0
4188887	PROB	n/a	LTP362	ltpFR2	12	n/a	n/a	n/a	33	14	6	5	3
4190335	PROB	n/a	LTP362	ltpFR2	12	n/a	n/a	n/a	33	17	2	9	6
4193035	PROB	n/a	LTP362	ltpFR2	12	n/a	n/a	n/a	33	16	3	7	6
4195051	PROB	n/a	LTP362	ltpFR2	12	n/a	n/a	n/a	33	14	7	1	6
4196750	PROB	n/a	LTP362	ltpFR2	12	n/a	n/a	n/a	33	16	5	9	2
4198149	PROB	n/a	LTP362	ltpFR2	12	n/a	n/a	n/a	33	7	2	4	1
4199198	PROB	n/a	LTP362	ltpFR2	12	n/a	n/a	n/a	33	16	8	2	6
4200781	PROB	n/a	LTP362	ltpFR2	12	n/a	n/a	n/a	33	20	5	8	7
4203113	PROB	n/a	LTP362	ltpFR2	12	n/a	n/a	n/a	33	14	3	9	2
4204946	PROB	n/a	LTP362	ltpFR2	12	n/a	n/a	n/a	33	6	2	1	3
4206029	PROB	n/a	LTP362	ltpFR2	12	n/a	n/a	n/a	33	23	8	8	7
4208128	PROB	n/a	LTP362	ltpFR2	12	n/a	n/a	n/a	33	9	5	3	1
4209793	PROB	n/a	LTP362	ltpFR2	12	n/a	n/a	n/a	33	18	4	6	8
4211016	STOP	n/a	LTP362	ltpFR2	12	n/a	n/a	n/a	33	n/a	n/a	n/a	n/a
4213825	REC_START	n/a	LTP362	ltpFR2	12	21	n/a	n/a	n/a	n/a	0	0	0
4216032	REC_WORD	wordpools/wasnorm_wordpool_576.txt	LTP362	ltpFR2	12	21	YARN	1631	n/a	n/a	0	0	0
4216695	REC_WORD	wordpools/wasnorm_wordpool_576.txt	LTP362	ltpFR2	12	21	MONSTER	912	n/a	n/a	0	0	0
4217596	REC_WORD	wordpools/wasnorm_wordpool_576.txt	LTP362	ltpFR2	12	21	GRILL	661	n/a	n/a	0	0	0
4218366	REC_WORD	wordpools/wasnorm_wordpool_576.txt	LTP362	ltpFR2	12	21	CONCERT	360	n/a	n/a	0	0	0
4221124	REC_WORD	wordpools/wasnorm_wordpool_576.txt	LTP362	ltpFR2	12	21	PORK	1108	n/a	n/a	0	0	0
4221701	REC_WORD	wordpools/wasnorm_wordpool_576.txt	LTP362	ltpFR2	12	21	EYELASH	546	n/a	n/a	0	0	0
4223246	REC_WORD	wordpools/wasnorm_wordpool_576.txt	LTP362	ltpFR2	12	21	CRITIC	410	n/a	n/a	0	0	0
4223720	REC_WORD	wordpools/wasnorm_wordpool_576.txt	LTP362	ltpFR2	12	21	STAMP	1370	n/a	n/a	0	0	0
4224976	REC_WORD	wordpools/wasnorm_wordpool_576.txt	LTP362	ltpFR2	12	21	PALACE	1006	n/a	n/a	0	0	0
4225762	REC_WORD	wordpools/wasnorm_wordpool_576.txt	LTP362	ltpFR2	12	21	PRINCE	1124	n/a	n/a	0	0	0
4227758	REC_WORD	wordpools/wasnorm_wordpool_576.txt	LTP362	ltpFR2	12	21	QUEEN	1149	n/a	n/a	0	0	0
4228583	REC_WORD	wordpools/wasnorm_wordpool_576.txt	LTP362	ltpFR2	12	21	HONEY	713	n/a	n/a	0	0	0
4229251	REC_WORD	wordpools/wasnorm_wordpool_576.txt	LTP362	ltpFR2	12	21	PLASTER	1085	n/a	n/a	0	0	0
4237679	REC_WORD	wordpools/wasnorm_wordpool_576.txt	LTP362	ltpFR2	12	21	GUITAR	670	n/a	n/a	0	0	0
4304279	WORD	wordpools/wasnorm_wordpool_576.txt	LTP362	ltpFR2	12	22	COMPASS	358	n/a	n/a	0	0	0
4307095	WORD	wordpools/wasnorm_wordpool_576.txt	LTP362	ltpFR2	12	22	ATLAS	53	n/a	n/a	0	0	0
4309910	WORD	wordpools/wasnorm_wordpool_576.txt	LTP362	ltpFR2	12	22	STOVE	1388	n/a	n/a	0	0	0
4312659	WORD	wordpools/wasnorm_wordpool_576.txt	LTP362	ltpFR2	12	22	HOOD	714	n/a	n/a	0	0	0
4315490	WORD	wordpools/wasnorm_wordpool_576.txt	LTP362	ltpFR2	12	22	BABY	64	n/a	n/a	0	0	0
4318272	WORD	wordpools/wasnorm_wordpool_576.txt	LTP362	ltpFR2	12	22	PASTRY	1022	n/a	n/a	0	0	0
4321055	WORD	wordpools/wasnorm_wordpool_576.txt	LTP362	ltpFR2	12	22	BATHTUB	100	n/a	n/a	0	0	0
4323720	WORD	wordpools/wasnorm_wordpool_576.txt	LTP362	ltpFR2	12	22	SPONGE	1355	n/a	n/a	0	0	0
4326518	WORD	wordpools/wasnorm_wordpool_576.txt	LTP362	ltpFR2	12	22	LUMBER	848	n/a	n/a	0	0	0
4329068	WORD	wordpools/wasnorm_wordpool_576.txt	LTP362	ltpFR2	12	22	BANJO	82	n/a	n/a	0	0	0
4331799	WORD	wordpools/wasnorm_wordpool_576.txt	LTP362	ltpFR2	12	22	GLOVE	642	n/a	n/a	0	0	0
4334264	WORD	wordpools/wasnorm_wordpool_576.txt	LTP362	ltpFR2	12	22	MESSAGE	888	n/a	n/a	0	0	0
4336797	WORD	wordpools/wasnorm_wordpool_576.txt	LTP362	ltpFR2	12	22	PREACHER	1119	n/a	n/a	0	0	0
4339345	WORD	wordpools/wasnorm_wordpool_576.txt	LTP362	ltpFR2	12	22	LIVER	833	n/a	n/a	0	0	0
4341878	WORD	wordpools/wasnorm_wordpool_576.txt	LTP362	ltpFR2	12	22	OUTDOORS	987	n/a	n/a	0	0	0
4344309	WORD	wordpools/wasnorm_wordpool_576.txt	LTP362	ltpFR2	12	22	PIMPLE	1071	n/a	n/a	0	0	0
4346992	WORD	wordpools/wasnorm_wordpool_576.txt	LTP362	ltpFR2	12	22	ICING	732	n/a	n/a	0	0	0
4349506	WORD	wordpools/wasnorm_wordpool_576.txt	LTP362	ltpFR2	12	22	JUNGLE	764	n/a	n/a	0	0	0
4352305	WORD	wordpools/wasnorm_wordpool_576.txt	LTP362	ltpFR2	12	22	CHIPMUNK	304	n/a	n/a	0	0	0
4354788	WORD	wordpools/wasnorm_wordpool_576.txt	LTP362	ltpFR2	12	22	ROBOT	1200	n/a	n/a	0	0	0
4357369	WORD	wordpools/wasnorm_wordpool_576.txt	LTP362	ltpFR2	12	22	PRINCESS	1125	n/a	n/a	0	0	0
4359969	WORD	wordpools/wasnorm_wordpool_576.txt	LTP362	ltpFR2	12	22	HEART	697	n/a	n/a	0	0	0
4362717	WORD	wordpools/wasnorm_wordpool_576.txt	LTP362	ltpFR2	12	22	GRAPE	654	n/a	n/a	0	0	0
4365183	WORD	wordpools/wasnorm_wordpool_576.txt	LTP362	ltpFR2	12	22	BLUEPRINT	142	n/a	n/a	0	0	0
4366799	START	n/a	LTP362	ltpFR2	12	n/a	n/a	n/a	34	n/a	n/a	n/a	n/a
4367951	DISTRACTOR	n/a	LTP362	ltpFR2	12	22	n/a	n/a	n/a	n/a	0	0	0
4367965	PROB	n/a	LTP362	ltpFR2	12	n/a	n/a	n/a	34	21	9	5	7
4370613	PROB	n/a	LTP362	ltpFR2	12	n/a	n/a	n/a	34	12	2	3	7
4371796	PROB	n/a	LTP362	ltpFR2	12	n/a	n/a	n/a	34	1	6	1	5
4373029	PROB	n/a	LTP362	ltpFR2	12	n/a	n/a	n/a	34	20	9	5	6
4374895	PROB	n/a	LTP362	ltpFR2	12	n/a	n/a	n/a	34	9	7	1	1
4375978	PROB	n/a	LTP362	ltpFR2	12	n/a	n/a	n/a	34	16	1	9	6
4377609	PROB	n/a	LTP362	ltpFR2	12	n/a	n/a	n/a	34	13	2	4	7
4379392	PROB	n/a	LTP362	ltpFR2	12	n/a	n/a	n/a	34	23	8	7	8
4381391	PROB	n/a	LTP362	ltpFR2	12	n/a	n/a	n/a	34	20	5	9	6
4383640	PROB	n/a	LTP362	ltpFR2	12	n/a	n/a	n/a	34	13	4	1	8
4386471	PROB	n/a	LTP362	ltpFR2	12	n/a	n/a	n/a	34	19	9	1	9
4388138	PROB	n/a	LTP362	ltpFR2	12	n/a	n/a	n/a	34	15	6	8	1
4390122	STOP	n/a	LTP362	ltpFR2	12	n/a	n/a	n/a	34	n/a	n/a	n/a	n/a
4392703	REC_START	n/a	LTP362	ltpFR2	12	22	n/a	n/a	n/a	n/a	0	0	0
4398896	REC_WORD	wordpools/wasnorm_wordpool_576.txt	LTP362	ltpFR2	12	22	PRINCESS	1125	n/a	n/a	0	0	0
4399707	REC_WORD	wordpools/wasnorm_wordpool_576.txt	LTP362	ltpFR2	12	22	HEART	697	n/a	n/a	0	0	0
4403345	REC_WORD	wordpools/wasnorm_wordpool_576.txt	LTP362	ltpFR2	12	22	COMPASS	358	n/a	n/a	0	0	0
4409048	REC_WORD	wordpools/wasnorm_wordpool_576.txt	LTP362	ltpFR2	12	22	CLOCK	325	n/a	n/a	0	0	0
4483158	WORD	wordpools/wasnorm_wordpool_576.txt	LTP362	ltpFR2	12	23	CAPTIVE	240	n/a	n/a	0	0	0
4485973	WORD	wordpools/wasnorm_wordpool_576.txt	LTP362	ltpFR2	12	23	WASP	1593	n/a	n/a	0	0	0
4488622	WORD	wordpools/wasnorm_wordpool_576.txt	LTP362	ltpFR2	12	23	PLAYGROUND	1087	n/a	n/a	0	0	0
4491386	WORD	wordpools/wasnorm_wordpool_576.txt	LTP362	ltpFR2	12	23	ATOM	55	n/a	n/a	0	0	0
4494136	WORD	wordpools/wasnorm_wordpool_576.txt	LTP362	ltpFR2	12	23	SHELTER	1282	n/a	n/a	0	0	0
4496768	WORD	wordpools/wasnorm_wordpool_576.txt	LTP362	ltpFR2	12	23	ROBIN	1199	n/a	n/a	0	0	0
4499399	WORD	wordpools/wasnorm_wordpool_576.txt	LTP362	ltpFR2	12	23	RAZOR	1171	n/a	n/a	0	0	0
4501932	WORD	wordpools/wasnorm_wordpool_576.txt	LTP362	ltpFR2	12	23	HATCHET	691	n/a	n/a	0	0	0
4504446	WORD	wordpools/wasnorm_wordpool_576.txt	LTP362	ltpFR2	12	23	COSTUME	383	n/a	n/a	0	0	0
4507228	WORD	wordpools/wasnorm_wordpool_576.txt	LTP362	ltpFR2	12	23	INMATE	738	n/a	n/a	0	0	0
4509845	WORD	wordpools/wasnorm_wordpool_576.txt	LTP362	ltpFR2	12	23	LADDER	793	n/a	n/a	0	0	0
4512626	WORD	wordpools/wasnorm_wordpool_576.txt	LTP362	ltpFR2	12	23	OZONE	996	n/a	n/a	0	0	0
4515407	WORD	wordpools/wasnorm_wordpool_576.txt	LTP362	ltpFR2	12	23	TREAT	1501	n/a	n/a	0	0	0
4518057	WORD	wordpools/wasnorm_wordpool_576.txt	LTP362	ltpFR2	12	23	SERVER	1272	n/a	n/a	0	0	0
4520822	WORD	wordpools/wasnorm_wordpool_576.txt	LTP362	ltpFR2	12	23	DANDRUFF	439	n/a	n/a	0	0	0
4523570	WORD	wordpools/wasnorm_wordpool_576.txt	LTP362	ltpFR2	12	23	TWIG	1527	n/a	n/a	0	0	0
4526369	WORD	wordpools/wasnorm_wordpool_576.txt	LTP362	ltpFR2	12	23	CANDY	230	n/a	n/a	0	0	0
4529185	WORD	wordpools/wasnorm_wordpool_576.txt	LTP362	ltpFR2	12	23	OYSTER	995	n/a	n/a	0	0	0
4531967	WORD	wordpools/wasnorm_wordpool_576.txt	LTP362	ltpFR2	12	23	CLAM	315	n/a	n/a	0	0	0
4534732	WORD	wordpools/wasnorm_wordpool_576.txt	LTP362	ltpFR2	12	23	STAR	1373	n/a	n/a	0	0	0
4537513	WORD	wordpools/wasnorm_wordpool_576.txt	LTP362	ltpFR2	12	23	HEDGE	699	n/a	n/a	0	0	0
