onset	duration	trial_type	sample	stim_file	subject	experiment	session	trial	task	item_name	item_num	recog_resp	recog_conf	resp	color_r	color_g	color_b	case	font
425.95	n/a	SESS_START	212975	n/a	LTP096	ltpFR	4	n/a	n/a	n/a	n/a	1	1	n/a	n/a	n/a	n/a	n/a	n/a
449.126	n/a	WORD	224563	wordpools/wasnorm_wordpool.txt	LTP096	ltpFR	4	1	0	TYPIST	1532	0	5	0	0.422607421875	0.5869140625	0	lower	zerothre.ttf
453.13	n/a	WORD	226565	wordpools/wasnorm_wordpool.txt	LTP096	ltpFR	4	1	0	MICROPHONE	890	1	n/a	0	0.422607421875	0.5869140625	0	lower	zerothre.ttf
457.334	n/a	WORD	228667	wordpools/wasnorm_wordpool.txt	LTP096	ltpFR	4	1	1	OFFICER	973	n/a	n/a	1	0.57763671875	0.412841796875	1	upper	amplitud.ttf
461.246	n/a	WORD	230623	wordpools/wasnorm_wordpool.txt	LTP096	ltpFR	4	1	1	SLIME	1327	n/a	n/a	0	0.57763671875	0.412841796875	1	upper	amplitud.ttf
465.374	n/a	WORD	232687	wordpools/wasnorm_wordpool.txt	LTP096	ltpFR	4	1	1	SOCIETY	1338	n/a	n/a	1	0.57763671875	0.412841796875	1	upper	amplitud.ttf
469.412	n/a	WORD	234706	wordpools/wasnorm_wordpool.txt	LTP096	ltpFR	4	1	0	CREW	406	n/a	n/a	n/a	0.422607421875	0.5869140625	0	lower	zerothre.ttf
472.434	n/a	SLOW_MSG	236217	n/a	LTP096	ltpFR	4	1	n/a	n/a	n/a	n/a	n/a	n/a	n/a	n/a	n/a	n/a	n/a
474.872	n/a	WORD	237436	wordpools/wasnorm_wordpool.txt	LTP096	ltpFR	4	1	0	DISC	473	n/a	n/a	0	0.422607421875	0.5869140625	0	lower	zerothre.ttf
479.026	n/a	WORD	239513	wordpools/wasnorm_wordpool.txt	LTP096	ltpFR	4	1	1	PREDATOR	1120	n/a	n/a	0	0.57763671875	0.412841796875	1	upper	amplitud.ttf
482.912	n/a	WORD	241456	wordpools/wasnorm_wordpool.txt	LTP096	ltpFR	4	1	1	BEAST	108	n/a	n/a	1	0.57763671875	0.412841796875	1	upper	amplitud.ttf
486.75	n/a	WORD	243375	wordpools/wasnorm_wordpool.txt	LTP096	ltpFR	4	1	1	LEADER	807	n/a	n/a	1	0.57763671875	0.412841796875	1	upper	amplitud.ttf
490.936	n/a	WORD	245468	wordpools/wasnorm_wordpool.txt	LTP096	ltpFR	4	1	1	MILK	895	n/a	n/a	2	0.57763671875	0.412841796875	1	upper	amplitud.ttf
492.21	n/a	KEY_MSG	246105	n/a	LTP096	ltpFR	4	1	n/a	n/a	n/a	n/a	n/a	n/a	n/a	n/a	n/a	n/a	n/a
494.858	n/a	WORD	247429	wordpools/wasnorm_wordpool.txt	LTP096	ltpFR	4	1	1	HANDCUFFS	685	n/a	n/a	0	0.57763671875	0.412841796875	1	upper	amplitud.ttf
499.062	n/a	WORD	249531	wordpools/wasnorm_wordpool.txt	LTP096	ltpFR	4	1	0	FLIPPER	580	n/a	n/a	n/a	0.422607421875	0.5869140625	0	lower	zerothre.ttf
502.082	n/a	SLOW_MSG	251041	n/a	LTP096	ltpFR	4	1	n/a	n/a	n/a	n/a	n/a	n/a	n/a	n/a	n/a	n/a	n/a
504.48	n/a	WORD	252240	wordpools/wasnorm_wordpool.txt	LTP096	ltpFR	4	1	0	TROUT	1511	n/a	n/a	0	0.422607421875	0.5869140625	0	lower	zerothre.ttf
508.518	n/a	WORD	254259	wordpools/wasnorm_wordpool.txt	LTP096	ltpFR	4	1	0	CARNIVAL	245	n/a	n/a	1	0.422607421875	0.5869140625	0	lower	zerothre.ttf
512.562	n/a	WORD	256281	wordpools/wasnorm_wordpool.txt	LTP096	ltpFR	4	1	0	PICKLE	1059	n/a	n/a	n/a	0.422607421875	0.5869140625	0	lower	zerothre.ttf
515.584	n/a	SLOW_MSG	257792	n/a	LTP096	ltpFR	4	1	n/a	n/a	n/a	n/a	n/a	n/a	n/a	n/a	n/a	n/a	n/a
519.88	n/a	REC_START	259940	n/a	LTP096	ltpFR	4	1	n/a	n/a	n/a	n/a	n/a	n/a	n/a	n/a	n/a	n/a	n/a
520.952	n/a	REC_WORD	260476	wordpools/wasnorm_wordpool.txt	LTP096	ltpFR	4	1	1	MILK	895	n/a	n/a	2	n/a	n/a	n/a	n/a	n/a
523.352	n/a	REC_WORD	261676	wordpools/wasnorm_wordpool.txt	LTP096	ltpFR	4	1	1	PREDATOR	1120	n/a	n/a	0	n/a	n/a	n/a	n/a	n/a
524.32	n/a	REC_WORD	262160	wordpools/wasnorm_wordpool.txt	LTP096	ltpFR	4	1	0	TYPIST	1532	n/a	n/a	0	n/a	n/a	n/a	n/a	n/a
525.91	n/a	REC_WORD	262955	wordpools/wasnorm_wordpool.txt	LTP096	ltpFR	4	1	1	OFFICER	973	n/a	n/a	1	n/a	n/a	n/a	n/a	n/a
528.864	n/a	REC_WORD	264432	wordpools/wasnorm_wordpool.txt	LTP096	ltpFR	4	1	0	MICROPHONE	890	n/a	n/a	0	n/a	n/a	n/a	n/a	n/a
655.14	n/a	WORD	327570	wordpools/wasnorm_wordpool.txt	LTP096	ltpFR	4	2	1	RAT	1169	n/a	n/a	1	0.57763671875	0.412841796875	1	upper	amplitud.ttf
659.252	n/a	WORD	329626	wordpools/wasnorm_wordpool.txt	LTP096	ltpFR	4	2	1	HEN	703	n/a	n/a	1	0.57763671875	0.412841796875	1	upper	amplitud.ttf
663.096	n/a	WORD	331548	wordpools/wasnorm_wordpool.txt	LTP096	ltpFR	4	2	0	CREATURE	403	n/a	n/a	0	0.422607421875	0.5869140625	0	lower	zerothre.ttf
667.302	n/a	WORD	333651	wordpools/wasnorm_wordpool.txt	LTP096	ltpFR	4	2	0	RAM	1165	n/a	n/a	n/a	0.422607421875	0.5869140625	0	lower	zerothre.ttf
670.322	n/a	SLOW_MSG	335161	n/a	LTP096	ltpFR	4	2	n/a	n/a	n/a	n/a	n/a	n/a	n/a	n/a	n/a	n/a	n/a
672.986	n/a	WORD	336493	wordpools/wasnorm_wordpool.txt	LTP096	ltpFR	4	2	0	KITE	779	n/a	n/a	0	0.422607421875	0.5869140625	0	lower	zerothre.ttf
677.032	n/a	WORD	338516	wordpools/wasnorm_wordpool.txt	LTP096	ltpFR	4	2	0	YARD	1630	n/a	n/a	0	0.422607421875	0.5869140625	0	lower	zerothre.ttf
680.894	n/a	WORD	340447	wordpools/wasnorm_wordpool.txt	LTP096	ltpFR	4	2	0	PAIL	1002	n/a	n/a	0	0.422607421875	0.5869140625	0	lower	zerothre.ttf
684.782	n/a	WORD	342391	wordpools/wasnorm_wordpool.txt	LTP096	ltpFR	4	2	1	FEATHER	557	n/a	n/a	0	0.57763671875	0.412841796875	1	upper	amplitud.ttf
688.818	n/a	WORD	344409	wordpools/wasnorm_wordpool.txt	LTP096	ltpFR	4	2	1	FRIES	607	n/a	n/a	0	0.57763671875	0.412841796875	1	upper	amplitud.ttf
692.938	n/a	WORD	346469	wordpools/wasnorm_wordpool.txt	LTP096	ltpFR	4	2	1	SACK	1220	n/a	n/a	0	0.57763671875	0.412841796875	1	upper	amplitud.ttf
696.768	n/a	WORD	348384	wordpools/wasnorm_wordpool.txt	LTP096	ltpFR	4	2	0	SPRINKLE	1359	n/a	n/a	n/a	0.422607421875	0.5869140625	0	lower	zerothre.ttf
699.788	n/a	SLOW_MSG	349894	n/a	LTP096	ltpFR	4	2	n/a	n/a	n/a	n/a	n/a	n/a	n/a	n/a	n/a	n/a	n/a
702.136	n/a	WORD	351068	wordpools/wasnorm_wordpool.txt	LTP096	ltpFR	4	2	0	SNACK	1331	n/a	n/a	0	0.422607421875	0.5869140625	0	lower	zerothre.ttf
705.948	n/a	WORD	352974	wordpools/wasnorm_wordpool.txt	LTP096	ltpFR	4	2	0	PARROT	1015	n/a	n/a	1	0.422607421875	0.5869140625	0	lower	zerothre.ttf
710.134	n/a	WORD	355067	wordpools/wasnorm_wordpool.txt	LTP096	ltpFR	4	2	1	WINGS	1614	n/a	n/a	0	0.57763671875	0.412841796875	1	upper	amplitud.ttf
713.982	n/a	WORD	356991	wordpools/wasnorm_wordpool.txt	LTP096	ltpFR	4	2	1	DINNER	468	n/a	n/a	n/a	0.57763671875	0.412841796875	1	upper	amplitud.ttf
717.002	n/a	SLOW_MSG	358501	n/a	LTP096	ltpFR	4	2	n/a	n/a	n/a	n/a	n/a	n/a	n/a	n/a	n/a	n/a	n/a
719.342	n/a	WORD	359671	wordpools/wasnorm_wordpool.txt	LTP096	ltpFR	4	2	1	ASTRONAUT	51	n/a	n/a	1	0.57763671875	0.412841796875	1	upper	amplitud.ttf
725.178	n/a	REC_START	362589	n/a	LTP096	ltpFR	4	2	n/a	n/a	n/a	n/a	n/a	n/a	n/a	n/a	n/a	n/a	n/a
725.79	n/a	REC_WORD	362895	wordpools/wasnorm_wordpool.txt	LTP096	ltpFR	4	2	1	ASTRONAUT	51	n/a	n/a	1	n/a	n/a	n/a	n/a	n/a
842.632	n/a	WORD	421316	wordpools/wasnorm_wordpool.txt	LTP096	ltpFR	4	3	-1	AUTOMOBILE	62	n/a	n/a	-1	1.0	1.0	1	upper	Verdana.ttf
846.804	n/a	WORD	423402	wordpools/wasnorm_wordpool.txt	LTP096	ltpFR	4	3	-1	FLOUR	583	n/a	n/a	-1	1.0	1.0	1	upper	Verdana.ttf
850.748	n/a	WORD	425374	wordpools/wasnorm_wordpool.txt	LTP096	ltpFR	4	3	-1	RAFT	1159	n/a	n/a	-1	1.0	1.0	1	upper	Verdana.ttf
854.87	n/a	WORD	427435	wordpools/wasnorm_wordpool.txt	LTP096	ltpFR	4	3	-1	WATERFALL	1595	n/a	n/a	-1	1.0	1.0	1	upper	Verdana.ttf
858.898	n/a	WORD	429449	wordpools/wasnorm_wordpool.txt	LTP096	ltpFR	4	3	-1	UNDERWEAR	1537	n/a	n/a	-1	1.0	1.0	1	upper	Verdana.ttf
863.068	n/a	WORD	431534	wordpools/wasnorm_wordpool.txt	LTP096	ltpFR	4	3	-1	ATTIRE	57	n/a	n/a	-1	1.0	1.0	1	upper	Verdana.ttf
867.256	n/a	WORD	433628	wordpools/wasnorm_wordpool.txt	LTP096	ltpFR	4	3	-1	BROOK	177	n/a	n/a	-1	1.0	1.0	1	upper	Verdana.ttf
871.176	n/a	WORD	435588	wordpools/wasnorm_wordpool.txt	LTP096	ltpFR	4	3	-1	SHRIMP	1297	n/a	n/a	-1	1.0	1.0	1	upper	Verdana.ttf
875.022	n/a	WORD	437511	wordpools/wasnorm_wordpool.txt	LTP096	ltpFR	4	3	-1	CAP	236	n/a	n/a	-1	1.0	1.0	1	upper	Verdana.ttf
879.142	n/a	WORD	439571	wordpools/wasnorm_wordpool.txt	LTP096	ltpFR	4	3	-1	BALL	73	n/a	n/a	-1	1.0	1.0	1	upper	Verdana.ttf
883.278	n/a	WORD	441639	wordpools/wasnorm_wordpool.txt	LTP096	ltpFR	4	3	-1	BAIT	70	n/a	n/a	-1	1.0	1.0	1	upper	Verdana.ttf
887.432	n/a	WORD	443716	wordpools/wasnorm_wordpool.txt	LTP096	ltpFR	4	3	-1	SPACE	1345	n/a	n/a	-1	1.0	1.0	1	upper	Verdana.ttf
891.46	n/a	WORD	445730	wordpools/wasnorm_wordpool.txt	LTP096	ltpFR	4	3	-1	SUN	1406	n/a	n/a	-1	1.0	1.0	1	upper	Verdana.ttf
895.54	n/a	WORD	447770	wordpools/wasnorm_wordpool.txt	LTP096	ltpFR	4	3	-1	JACKET	747	n/a	n/a	-1	1.0	1.0	1	upper	Verdana.ttf
899.526	n/a	WORD	449763	wordpools/wasnorm_wordpool.txt	LTP096	ltpFR	4	3	-1	MONUMENT	913	n/a	n/a	-1	1.0	1.0	1	upper	Verdana.ttf
903.406	n/a	WORD	451703	wordpools/wasnorm_wordpool.txt	LTP096	ltpFR	4	3	-1	CANOE	233	n/a	n/a	-1	1.0	1.0	1	upper	Verdana.ttf
909.248	n/a	REC_START	454624	n/a	LTP096	ltpFR	4	3	n/a	n/a	n/a	n/a	n/a	n/a	n/a	n/a	n/a	n/a	n/a
984.25	n/a	REC_WORD_VV	492125	wordpools/wasnorm_wordpool.txt	LTP096	ltpFR	4	3	n/a	<>	-1	n/a	n/a	n/a	n/a	n/a	n/a	n/a	n/a
1442.162	n/a	WORD	721081	wordpools/wasnorm_wordpool.txt	LTP096	ltpFR	4	4	1	WORKER	1621	n/a	n/a	1	0.57763671875	0.412841796875	1	upper	amplitud.ttf
1446.332	n/a	WORD	723166	wordpools/wasnorm_wordpool.txt	LTP096	ltpFR	4	4	1	GUEST	669	n/a	n/a	1	0.57763671875	0.412841796875	1	upper	amplitud.ttf
1450.252	n/a	WORD	725126	wordpools/wasnorm_wordpool.txt	LTP096	ltpFR	4	4	1	CUE	422	n/a	n/a	0	0.57763671875	0.412841796875	1	upper	amplitud.ttf
1454.13	n/a	WORD	727065	wordpools/wasnorm_wordpool.txt	LTP096	ltpFR	4	4	1	LINT	826	n/a	n/a	0	0.57763671875	0.412841796875	1	upper	amplitud.ttf
1458.202	n/a	WORD	729101	wordpools/wasnorm_wordpool.txt	LTP096	ltpFR	4	4	1	VILLAGE	1566	n/a	n/a	n/a	0.57763671875	0.412841796875	1	upper	amplitud.ttf
1461.224	n/a	SLOW_MSG	730612	n/a	LTP096	ltpFR	4	4	n/a	n/a	n/a	n/a	n/a	n/a	n/a	n/a	n/a	n/a	n/a
1463.736	n/a	WORD	731868	wordpools/wasnorm_wordpool.txt	LTP096	ltpFR	4	4	1	COTTAGE	384	n/a	n/a	0	0.57763671875	0.412841796875	1	upper	amplitud.ttf
1467.758	n/a	WORD	733879	wordpools/wasnorm_wordpool.txt	LTP096	ltpFR	4	4	1	OFFICE	972	n/a	n/a	0	0.57763671875	0.412841796875	1	upper	amplitud.ttf
1471.902	n/a	WORD	735951	wordpools/wasnorm_wordpool.txt	LTP096	ltpFR	4	4	1	DIRT	472	n/a	n/a	0	0.57763671875	0.412841796875	1	upper	amplitud.ttf
1475.922	n/a	WORD	737961	wordpools/wasnorm_wordpool.txt	LTP096	ltpFR	4	4	1	ACROBAT	4	n/a	n/a	0	0.57763671875	0.412841796875	1	upper	amplitud.ttf
1480.044	n/a	WORD	740022	wordpools/wasnorm_wordpool.txt	LTP096	ltpFR	4	4	1	FRIEND	606	n/a	n/a	1	0.57763671875	0.412841796875	1	upper	amplitud.ttf
1484.072	n/a	WORD	742036	wordpools/wasnorm_wordpool.txt	LTP096	ltpFR	4	4	1	COCKTAIL	338	n/a	n/a	1	0.57763671875	0.412841796875	1	upper	amplitud.ttf
1487.926	n/a	WORD	743963	wordpools/wasnorm_wordpool.txt	LTP096	ltpFR	4	4	1	PLASTER	1085	n/a	n/a	0	0.57763671875	0.412841796875	1	upper	amplitud.ttf
1491.996	n/a	WORD	745998	wordpools/wasnorm_wordpool.txt	LTP096	ltpFR	4	4	1	MARROW	872	n/a	n/a	0	0.57763671875	0.412841796875	1	upper	amplitud.ttf
1496.024	n/a	WORD	748012	wordpools/wasnorm_wordpool.txt	LTP096	ltpFR	4	4	1	TAIL	1430	n/a	n/a	n/a	0.57763671875	0.412841796875	1	upper	amplitud.ttf
1499.046	n/a	SLOW_MSG	749523	n/a	LTP096	ltpFR	4	4	n/a	n/a	n/a	n/a	n/a	n/a	n/a	n/a	n/a	n/a	n/a
1501.702	n/a	WORD	750851	wordpools/wasnorm_wordpool.txt	LTP096	ltpFR	4	4	1	EARTH	515	n/a	n/a	n/a	0.57763671875	0.412841796875	1	upper	amplitud.ttf
1504.722	n/a	SLOW_MSG	752361	n/a	LTP096	ltpFR	4	4	n/a	n/a	n/a	n/a	n/a	n/a	n/a	n/a	n/a	n/a	n/a
1507.096	n/a	WORD	753548	wordpools/wasnorm_wordpool.txt	LTP096	ltpFR	4	4	1	UNIVERSE	1540	n/a	n/a	0	0.57763671875	0.412841796875	1	upper	amplitud.ttf
1512.69	n/a	REC_START	756345	n/a	LTP096	ltpFR	4	4	n/a	n/a	n/a	n/a	n/a	n/a	n/a	n/a	n/a	n/a	n/a
1513.284	n/a	REC_WORD	756642	wordpools/wasnorm_wordpool.txt	LTP096	ltpFR	4	4	1	UNIVERSE	1540	n/a	n/a	0	n/a	n/a	n/a	n/a	n/a
1514.092	n/a	REC_WORD	757046	wordpools/wasnorm_wordpool.txt	LTP096	ltpFR	4	4	n/a	PHOTO	1055	n/a	n/a	n/a	n/a	n/a	n/a	n/a	n/a
1515.784	n/a	REC_WORD_VV	757892	wordpools/wasnorm_wordpool.txt	LTP096	ltpFR	4	4	n/a	<>	-1	n/a	n/a	n/a	n/a	n/a	n/a	n/a	n/a
1516.654	n/a	REC_WORD_VV	758327	wordpools/wasnorm_wordpool.txt	LTP096	ltpFR	4	4	n/a	<>	-1	n/a	n/a	n/a	n/a	n/a	n/a	n/a	n/a
1517.454	n/a	REC_WORD_VV	758727	wordpools/wasnorm_wordpool.txt	LTP096	ltpFR	4	4	n/a	<>	-1	n/a	n/a	n/a	n/a	n/a	n/a	n/a	n/a
1591.232	n/a	WORD	795616	wordpools/wasnorm_wordpool.txt	LTP096	ltpFR	4	5	1	TRANSPLANT	1496	n/a	n/a	0	0.57763671875	0.412841796875	1	upper	amplitud.ttf
1595.352	n/a	WORD	797676	wordpools/wasnorm_wordpool.txt	LTP096	ltpFR	4	5	1	HERB	704	n/a	n/a	1	0.57763671875	0.412841796875	1	upper	amplitud.ttf
1599.29	n/a	WORD	799645	wordpools/wasnorm_wordpool.txt	LTP096	ltpFR	4	5	1	BARLEY	88	n/a	n/a	1	0.57763671875	0.412841796875	1	upper	amplitud.ttf
1603.302	n/a	WORD	801651	wordpools/wasnorm_wordpool.txt	LTP096	ltpFR	4	5	0	DRIVER	499	n/a	n/a	0	0.422607421875	0.5869140625	0	lower	zerothre.ttf
1607.398	n/a	WORD	803699	wordpools/wasnorm_wordpool.txt	LTP096	ltpFR	4	5	0	WITNESS	1618	n/a	n/a	0	0.422607421875	0.5869140625	0	lower	zerothre.ttf
1611.36	n/a	WORD	805680	wordpools/wasnorm_wordpool.txt	LTP096	ltpFR	4	5	0	LIMB	822	n/a	n/a	0	0.422607421875	0.5869140625	0	lower	zerothre.ttf
1615.396	n/a	WORD	807698	wordpools/wasnorm_wordpool.txt	LTP096	ltpFR	4	5	0	LEG	809	n/a	n/a	0	0.422607421875	0.5869140625	0	lower	zerothre.ttf
1619.374	n/a	WORD	809687	wordpools/wasnorm_wordpool.txt	LTP096	ltpFR	4	5	1	HOOD	714	n/a	n/a	n/a	0.57763671875	0.412841796875	1	upper	amplitud.ttf
1622.396	n/a	SLOW_MSG	811198	n/a	LTP096	ltpFR	4	5	n/a	n/a	n/a	n/a	n/a	n/a	n/a	n/a	n/a	n/a	n/a
1625.01	n/a	WORD	812505	wordpools/wasnorm_wordpool.txt	LTP096	ltpFR	4	5	1	DART	440	n/a	n/a	2	0.57763671875	0.412841796875	1	upper	amplitud.ttf
1627.566	n/a	KEY_MSG	813783	n/a	LTP096	ltpFR	4	5	n/a	n/a	n/a	n/a	n/a	n/a	n/a	n/a	n/a	n/a	n/a
1630.03	n/a	WORD	815015	wordpools/wasnorm_wordpool.txt	LTP096	ltpFR	4	5	0	EMPLOYEE	531	n/a	n/a	0	0.422607421875	0.5869140625	0	lower	zerothre.ttf
1633.966	n/a	WORD	816983	wordpools/wasnorm_wordpool.txt	LTP096	ltpFR	4	5	0	INFANT	737	n/a	n/a	0	0.422607421875	0.5869140625	0	lower	zerothre.ttf
1637.928	n/a	WORD	818964	wordpools/wasnorm_wordpool.txt	LTP096	ltpFR	4	5	0	SKULL	1320	n/a	n/a	n/a	0.422607421875	0.5869140625	0	lower	zerothre.ttf
1640.95	n/a	SLOW_MSG	820475	n/a	LTP096	ltpFR	4	5	n/a	n/a	n/a	n/a	n/a	n/a	n/a	n/a	n/a	n/a	n/a
1643.53	n/a	WORD	821765	wordpools/wasnorm_wordpool.txt	LTP096	ltpFR	4	5	0	ARROW	40	n/a	n/a	0	0.422607421875	0.5869140625	0	lower	zerothre.ttf
1647.358	n/a	WORD	823679	wordpools/wasnorm_wordpool.txt	LTP096	ltpFR	4	5	1	BABY	64	n/a	n/a	1	0.57763671875	0.412841796875	1	upper	amplitud.ttf
1651.18	n/a	WORD	825590	wordpools/wasnorm_wordpool.txt	LTP096	ltpFR	4	5	1	HEAD	695	n/a	n/a	0	0.57763671875	0.412841796875	1	upper	amplitud.ttf
1655.376	n/a	WORD	827688	wordpools/wasnorm_wordpool.txt	LTP096	ltpFR	4	5	1	SHEARS	1276	n/a	n/a	2	0.57763671875	0.412841796875	1	upper	amplitud.ttf
1657.722	n/a	KEY_MSG	828861	n/a	LTP096	ltpFR	4	5	n/a	n/a	n/a	n/a	n/a	n/a	n/a	n/a	n/a	n/a	n/a
1661.994	n/a	REC_START	830997	n/a	LTP096	ltpFR	4	5	n/a	n/a	n/a	n/a	n/a	n/a	n/a	n/a	n/a	n/a	n/a
1663.462	n/a	REC_WORD	831731	wordpools/wasnorm_wordpool.txt	LTP096	ltpFR	4	5	1	BABY	64	n/a	n/a	1	n/a	n/a	n/a	n/a	n/a
1664.698	n/a	REC_WORD	832349	wordpools/wasnorm_wordpool.txt	LTP096	ltpFR	4	5	n/a	HAIR	-1	n/a	n/a	n/a	n/a	n/a	n/a	n/a	n/a
1751.224	n/a	WORD	875612	wordpools/wasnorm_wordpool.txt	LTP096	ltpFR	4	6	-1	TIGER	1467	n/a	n/a	-1	1.0	1.0	1	upper	Verdana.ttf
1755.236	n/a	WORD	877618	wordpools/wasnorm_wordpool.txt	LTP096	ltpFR	4	6	-1	GUM	672	n/a	n/a	-1	1.0	1.0	1	upper	Verdana.ttf
1759.064	n/a	WORD	879532	wordpools/wasnorm_wordpool.txt	LTP096	ltpFR	4	6	-1	BEAVER	109	n/a	n/a	-1	1.0	1.0	1	upper	Verdana.ttf
1763.168	n/a	WORD	881584	wordpools/wasnorm_wordpool.txt	LTP096	ltpFR	4	6	-1	DAM	436	n/a	n/a	-1	1.0	1.0	1	upper	Verdana.ttf
1767.206	n/a	WORD	883603	wordpools/wasnorm_wordpool.txt	LTP096	ltpFR	4	6	-1	SALIVA	1226	n/a	n/a	-1	1.0	1.0	1	upper	Verdana.ttf
1771.326	n/a	WORD	885663	wordpools/wasnorm_wordpool.txt	LTP096	ltpFR	4	6	-1	LONDON	843	n/a	n/a	-1	1.0	1.0	1	upper	Verdana.ttf
1775.428	n/a	WORD	887714	wordpools/wasnorm_wordpool.txt	LTP096	ltpFR	4	6	-1	PASSAGE	1019	n/a	n/a	-1	1.0	1.0	1	upper	Verdana.ttf
1779.516	n/a	WORD	889758	wordpools/wasnorm_wordpool.txt	LTP096	ltpFR	4	6	-1	BANJO	82	n/a	n/a	-1	1.0	1.0	1	upper	Verdana.ttf
1783.362	n/a	WORD	891681	wordpools/wasnorm_wordpool.txt	LTP096	ltpFR	4	6	-1	CONDUCTOR	362	n/a	n/a	-1	1.0	1.0	1	upper	Verdana.ttf
1787.356	n/a	WORD	893678	wordpools/wasnorm_wordpool.txt	LTP096	ltpFR	4	6	-1	ELBOW	520	n/a	n/a	-1	1.0	1.0	1	upper	Verdana.ttf
1791.568	n/a	WORD	895784	wordpools/wasnorm_wordpool.txt	LTP096	ltpFR	4	6	-1	SHOULDER	1294	n/a	n/a	-1	1.0	1.0	1	upper	Verdana.ttf
1795.464	n/a	WORD	897732	wordpools/wasnorm_wordpool.txt	LTP096	ltpFR	4	6	-1	PAW	1029	n/a	n/a	-1	1.0	1.0	1	upper	Verdana.ttf
1799.668	n/a	WORD	899834	wordpools/wasnorm_wordpool.txt	LTP096	ltpFR	4	6	-1	CHIPMUNK	304	n/a	n/a	-1	1.0	1.0	1	upper	Verdana.ttf
1803.638	n/a	WORD	901819	wordpools/wasnorm_wordpool.txt	LTP096	ltpFR	4	6	-1	MOTEL	919	n/a	n/a	-1	1.0	1.0	1	upper	Verdana.ttf
1807.642	n/a	WORD	903821	wordpools/wasnorm_wordpool.txt	LTP096	ltpFR	4	6	-1	COLESLAW	344	n/a	n/a	-1	1.0	1.0	1	upper	Verdana.ttf
1811.754	n/a	WORD	905877	wordpools/wasnorm_wordpool.txt	LTP096	ltpFR	4	6	-1	COOKIE	374	n/a	n/a	-1	1.0	1.0	1	upper	Verdana.ttf
1817.698	n/a	REC_START	908849	n/a	LTP096	ltpFR	4	6	n/a	n/a	n/a	n/a	n/a	n/a	n/a	n/a	n/a	n/a	n/a
1823.304	n/a	REC_WORD	911652	wordpools/wasnorm_wordpool.txt	LTP096	ltpFR	4	6	-1	TIGER	1467	n/a	n/a	-1	n/a	n/a	n/a	n/a	n/a
1823.83	n/a	REC_WORD	911915	wordpools/wasnorm_wordpool.txt	LTP096	ltpFR	4	6	-1	GUM	672	n/a	n/a	-1	n/a	n/a	n/a	n/a	n/a
1825.63	n/a	REC_WORD	912815	wordpools/wasnorm_wordpool.txt	LTP096	ltpFR	4	6	-1	BEAVER	109	n/a	n/a	-1	n/a	n/a	n/a	n/a	n/a
1826.318	n/a	REC_WORD	913159	wordpools/wasnorm_wordpool.txt	LTP096	ltpFR	4	6	-1	DAM	436	n/a	n/a	-1	n/a	n/a	n/a	n/a	n/a
1905.822	n/a	WORD	952911	wordpools/wasnorm_wordpool.txt	LTP096	ltpFR	4	7	0	SCISSORS	1250	n/a	n/a	0	0.422607421875	0.5869140625	0	lower	zerothre.ttf
1909.966	n/a	WORD	954983	wordpools/wasnorm_wordpool.txt	LTP096	ltpFR	4	7	0	MEAL	882	n/a	n/a	0	0.422607421875	0.5869140625	0	lower	zerothre.ttf
1914.094	n/a	WORD	957047	wordpools/wasnorm_wordpool.txt	LTP096	ltpFR	4	7	0	SILVERWARE	1308	n/a	n/a	0	0.422607421875	0.5869140625	0	lower	zerothre.ttf
1917.998	n/a	WORD	958999	wordpools/wasnorm_wordpool.txt	LTP096	ltpFR	4	7	0	BROCCOLI	176	n/a	n/a	0	0.422607421875	0.5869140625	0	lower	zerothre.ttf
1921.82	n/a	WORD	960910	wordpools/wasnorm_wordpool.txt	LTP096	ltpFR	4	7	0	ALLIGATOR	16	n/a	n/a	0	0.422607421875	0.5869140625	0	lower	zerothre.ttf
1925.798	n/a	WORD	962899	wordpools/wasnorm_wordpool.txt	LTP096	ltpFR	4	7	0	PORCUPINE	1107	n/a	n/a	0	0.422607421875	0.5869140625	0	lower	zerothre.ttf
1929.734	n/a	WORD	964867	wordpools/wasnorm_wordpool.txt	LTP096	ltpFR	4	7	0	COD	340	n/a	n/a	n/a	0.422607421875	0.5869140625	0	lower	zerothre.ttf
1932.756	n/a	SLOW_MSG	966378	n/a	LTP096	ltpFR	4	7	n/a	n/a	n/a	n/a	n/a	n/a	n/a	n/a	n/a	n/a	n/a
1935.144	n/a	WORD	967572	wordpools/wasnorm_wordpool.txt	LTP096	ltpFR	4	7	0	HOOK	715	n/a	n/a	n/a	0.422607421875	0.5869140625	0	lower	zerothre.ttf
1938.166	n/a	SLOW_MSG	969083	n/a	LTP096	ltpFR	4	7	n/a	n/a	n/a	n/a	n/a	n/a	n/a	n/a	n/a	n/a	n/a
1940.824	n/a	WORD	970412	wordpools/wasnorm_wordpool.txt	LTP096	ltpFR	4	7	0	EMERALD	528	n/a	n/a	0	0.422607421875	0.5869140625	0	lower	zerothre.ttf
1944.66	n/a	WORD	972330	wordpools/wasnorm_wordpool.txt	LTP096	ltpFR	4	7	0	DUNGEON	507	n/a	n/a	n/a	0.422607421875	0.5869140625	0	lower	zerothre.ttf
1947.682	n/a	SLOW_MSG	973841	n/a	LTP096	ltpFR	4	7	n/a	n/a	n/a	n/a	n/a	n/a	n/a	n/a	n/a	n/a	n/a
1950.154	n/a	WORD	975077	wordpools/wasnorm_wordpool.txt	LTP096	ltpFR	4	7	0	SUBWAY	1400	n/a	n/a	1	0.422607421875	0.5869140625	0	lower	zerothre.ttf
1954.182	n/a	WORD	977091	wordpools/wasnorm_wordpool.txt	LTP096	ltpFR	4	7	0	RADISH	1158	n/a	n/a	0	0.422607421875	0.5869140625	0	lower	zerothre.ttf
1958.162	n/a	WORD	979081	wordpools/wasnorm_wordpool.txt	LTP096	ltpFR	4	7	0	FIREMAN	569	n/a	n/a	1	0.422607421875	0.5869140625	0	lower	zerothre.ttf
1962.064	n/a	WORD	981032	wordpools/wasnorm_wordpool.txt	LTP096	ltpFR	4	7	0	RUBY	1214	n/a	n/a	n/a	0.422607421875	0.5869140625	0	lower	zerothre.ttf
1965.086	n/a	SLOW_MSG	982543	n/a	LTP096	ltpFR	4	7	n/a	n/a	n/a	n/a	n/a	n/a	n/a	n/a	n/a	n/a	n/a
1967.476	n/a	WORD	983738	wordpools/wasnorm_wordpool.txt	LTP096	ltpFR	4	7	0	WORLD	1622	n/a	n/a	1	0.422607421875	0.5869140625	0	lower	zerothre.ttf
1971.604	n/a	WORD	985802	wordpools/wasnorm_wordpool.txt	LTP096	ltpFR	4	7	0	PARTY	1018	n/a	n/a	1	0.422607421875	0.5869140625	0	lower	zerothre.ttf
1977.422	n/a	REC_START	988711	n/a	LTP096	ltpFR	4	7	n/a	n/a	n/a	n/a	n/a	n/a	n/a	n/a	n/a	n/a	n/a
1978.13	n/a	REC_WORD	989065	wordpools/wasnorm_wordpool.txt	LTP096	ltpFR	4	7	0	COD	340	n/a	n/a	n/a	n/a	n/a	n/a	n/a	n/a
1978.55	n/a	REC_WORD	989275	wordpools/wasnorm_wordpool.txt	LTP096	ltpFR	4	7	0	HOOK	715	n/a	n/a	n/a	n/a	n/a	n/a	n/a	n/a
1978.914	n/a	REC_WORD	989457	wordpools/wasnorm_wordpool.txt	LTP096	ltpFR	4	7	0	RUBY	1214	n/a	n/a	n/a	n/a	n/a	n/a	n/a	n/a
1979.39	n/a	REC_WORD	989695	wordpools/wasnorm_wordpool.txt	LTP096	ltpFR	4	7	0	PARTY	1018	n/a	n/a	1	n/a	n/a	n/a	n/a	n/a
1980.52	n/a	REC_WORD	990260	wordpools/wasnorm_wordpool.txt	LTP096	ltpFR	4	7	0	EMERALD	528	n/a	n/a	0	n/a	n/a	n/a	n/a	n/a
2151.73	n/a	WORD	1075865	wordpools/wasnorm_wordpool.txt	LTP096	ltpFR	4	8	0	DRILL	497	n/a	n/a	1	0.422607421875	0.5869140625	0	lower	zerothre.ttf
2155.692	n/a	WORD	1077846	wordpools/wasnorm_wordpool.txt	LTP096	ltpFR	4	8	0	AMBULANCE	19	n/a	n/a	0	0.422607421875	0.5869140625	0	lower	zerothre.ttf
2159.872	n/a	WORD	1079936	wordpools/wasnorm_wordpool.txt	LTP096	ltpFR	4	8	0	FEAST	556	n/a	n/a	1	0.422607421875	0.5869140625	0	lower	zerothre.ttf
2163.908	n/a	WORD	1081954	wordpools/wasnorm_wordpool.txt	LTP096	ltpFR	4	8	0	BURGLAR	200	n/a	n/a	1	0.422607421875	0.5869140625	0	lower	zerothre.ttf
2167.954	n/a	WORD	1083977	wordpools/wasnorm_wordpool.txt	LTP096	ltpFR	4	8	0	NUN	962	n/a	n/a	1	0.422607421875	0.5869140625	0	lower	zerothre.ttf
2172.158	n/a	WORD	1086079	wordpools/wasnorm_wordpool.txt	LTP096	ltpFR	4	8	0	SEAFOOD	1260	n/a	n/a	0	0.422607421875	0.5869140625	0	lower	zerothre.ttf
2176.086	n/a	WORD	1088043	wordpools/wasnorm_wordpool.txt	LTP096	ltpFR	4	8	0	BEDROOM	111	n/a	n/a	n/a	0.422607421875	0.5869140625	0	lower	zerothre.ttf
2179.106	n/a	SLOW_MSG	1089553	n/a	LTP096	ltpFR	4	8	n/a	n/a	n/a	n/a	n/a	n/a	n/a	n/a	n/a	n/a	n/a
2181.754	n/a	WORD	1090877	wordpools/wasnorm_wordpool.txt	LTP096	ltpFR	4	8	0	ATTORNEY	58	n/a	n/a	1	0.422607421875	0.5869140625	0	lower	zerothre.ttf
2185.842	n/a	WORD	1092921	wordpools/wasnorm_wordpool.txt	LTP096	ltpFR	4	8	0	MONASTERY	907	n/a	n/a	n/a	0.422607421875	0.5869140625	0	lower	zerothre.ttf
2188.862	n/a	SLOW_MSG	1094431	n/a	LTP096	ltpFR	4	8	n/a	n/a	n/a	n/a	n/a	n/a	n/a	n/a	n/a	n/a	n/a
2191.41	n/a	WORD	1095705	wordpools/wasnorm_wordpool.txt	LTP096	ltpFR	4	8	0	NOTE	958	n/a	n/a	3	0.422607421875	0.5869140625	0	lower	zerothre.ttf
2193.916	n/a	KEY_MSG	1096958	n/a	LTP096	ltpFR	4	8	n/a	n/a	n/a	n/a	n/a	n/a	n/a	n/a	n/a	n/a	n/a
2196.27	n/a	WORD	1098135	wordpools/wasnorm_wordpool.txt	LTP096	ltpFR	4	8	0	COACH	331	n/a	n/a	3	0.422607421875	0.5869140625	0	lower	zerothre.ttf
2197.162	n/a	KEY_MSG	1098581	n/a	LTP096	ltpFR	4	8	n/a	n/a	n/a	n/a	n/a	n/a	n/a	n/a	n/a	n/a	n/a
2200.358	n/a	WORD	1100179	wordpools/wasnorm_wordpool.txt	LTP096	ltpFR	4	8	0	CHILD	299	n/a	n/a	1	0.422607421875	0.5869140625	0	lower	zerothre.ttf
2204.444	n/a	WORD	1102222	wordpools/wasnorm_wordpool.txt	LTP096	ltpFR	4	8	0	TOY	1492	n/a	n/a	1	0.422607421875	0.5869140625	0	lower	zerothre.ttf
2208.456	n/a	WORD	1104228	wordpools/wasnorm_wordpool.txt	LTP096	ltpFR	4	8	0	BLANKET	135	n/a	n/a	0	0.422607421875	0.5869140625	0	lower	zerothre.ttf
2212.336	n/a	WORD	1106168	wordpools/wasnorm_wordpool.txt	LTP096	ltpFR	4	8	0	BANANA	77	n/a	n/a	1	0.422607421875	0.5869140625	0	lower	zerothre.ttf
2216.24	n/a	WORD	1108120	wordpools/wasnorm_wordpool.txt	LTP096	ltpFR	4	8	0	BLACKBERRY	132	n/a	n/a	0	0.422607421875	0.5869140625	0	lower	zerothre.ttf
2222.224	n/a	REC_START	1111112	n/a	LTP096	ltpFR	4	8	n/a	n/a	n/a	n/a	n/a	n/a	n/a	n/a	n/a	n/a	n/a
2223.488	n/a	REC_WORD	1111744	wordpools/wasnorm_wordpool.txt	LTP096	ltpFR	4	8	0	CHILD	299	n/a	n/a	1	n/a	n/a	n/a	n/a	n/a
2224.09	n/a	REC_WORD	1112045	wordpools/wasnorm_wordpool.txt	LTP096	ltpFR	4	8	0	TOY	1492	n/a	n/a	1	n/a	n/a	n/a	n/a	n/a
2224.564	n/a	REC_WORD	1112282	wordpools/wasnorm_wordpool.txt	LTP096	ltpFR	4	8	0	BLANKET	135	n/a	n/a	0	n/a	n/a	n/a	n/a	n/a
2225.428	n/a	REC_WORD_VV	1112714	wordpools/wasnorm_wordpool.txt	LTP096	ltpFR	4	8	n/a	<>	-1	n/a	n/a	n/a	n/a	n/a	n/a	n/a	n/a
2225.806	n/a	REC_WORD	1112903	wordpools/wasnorm_wordpool.txt	LTP096	ltpFR	4	8	0	BANANA	77	n/a	n/a	1	n/a	n/a	n/a	n/a	n/a
2226.614	n/a	REC_WORD	1113307	wordpools/wasnorm_wordpool.txt	LTP096	ltpFR	4	8	0	BLACKBERRY	132	n/a	n/a	0	n/a	n/a	n/a	n/a	n/a
2228.41	n/a	REC_WORD_VV	1114205	wordpools/wasnorm_wordpool.txt	LTP096	ltpFR	4	8	n/a	<>	-1	n/a	n/a	n/a	n/a	n/a	n/a	n/a	n/a
2229.204	n/a	REC_WORD	1114602	wordpools/wasnorm_wordpool.txt	LTP096	ltpFR	4	8	0	DRILL	497	n/a	n/a	1	n/a	n/a	n/a	n/a	n/a
2304.914	n/a	WORD	1152457	wordpools/wasnorm_wordpool.txt	LTP096	ltpFR	4	9	1	SARDINE	1235	n/a	n/a	1	0.57763671875	0.412841796875	1	upper	amplitud.ttf
2308.784	n/a	WORD	1154392	wordpools/wasnorm_wordpool.txt	LTP096	ltpFR	4	9	1	SQUID	1361	n/a	n/a	1	0.57763671875	0.412841796875	1	upper	amplitud.ttf
2312.97	n/a	WORD	1156485	wordpools/wasnorm_wordpool.txt	LTP096	ltpFR	4	9	1	ORANGE	980	n/a	n/a	1	0.57763671875	0.412841796875	1	upper	amplitud.ttf
2317.074	n/a	WORD	1158537	wordpools/wasnorm_wordpool.txt	LTP096	ltpFR	4	9	1	OVEN	991	n/a	n/a	0	0.57763671875	0.412841796875	1	upper	amplitud.ttf
2321.236	n/a	WORD	1160618	wordpools/wasnorm_wordpool.txt	LTP096	ltpFR	4	9	1	COLOGNE	347	n/a	n/a	n/a	0.57763671875	0.412841796875	1	upper	amplitud.ttf
2324.258	n/a	SLOW_MSG	1162129	n/a	LTP096	ltpFR	4	9	n/a	n/a	n/a	n/a	n/a	n/a	n/a	n/a	n/a	n/a	n/a
2326.712	n/a	WORD	1163356	wordpools/wasnorm_wordpool.txt	LTP096	ltpFR	4	9	1	WHIP	1604	n/a	n/a	0	0.57763671875	0.412841796875	1	upper	amplitud.ttf
2330.858	n/a	WORD	1165429	wordpools/wasnorm_wordpool.txt	LTP096	ltpFR	4	9	1	SPY	1360	n/a	n/a	1	0.57763671875	0.412841796875	1	upper	amplitud.ttf
2334.92	n/a	WORD	1167460	wordpools/wasnorm_wordpool.txt	LTP096	ltpFR	4	9	1	THIEF	1456	n/a	n/a	n/a	0.57763671875	0.412841796875	1	upper	amplitud.ttf
2337.942	n/a	SLOW_MSG	1168971	n/a	LTP096	ltpFR	4	9	n/a	n/a	n/a	n/a	n/a	n/a	n/a	n/a	n/a	n/a	n/a
2340.348	n/a	WORD	1170174	wordpools/wasnorm_wordpool.txt	LTP096	ltpFR	4	9	1	COUNTRY	388	n/a	n/a	0	0.57763671875	0.412841796875	1	upper	amplitud.ttf
2344.418	n/a	WORD	1172209	wordpools/wasnorm_wordpool.txt	LTP096	ltpFR	4	9	1	PLANT	1083	n/a	n/a	0	0.57763671875	0.412841796875	1	upper	amplitud.ttf
2348.262	n/a	WORD	1174131	wordpools/wasnorm_wordpool.txt	LTP096	ltpFR	4	9	1	PEARL	1034	n/a	n/a	n/a	0.57763671875	0.412841796875	1	upper	amplitud.ttf
2351.284	n/a	SLOW_MSG	1175642	n/a	LTP096	ltpFR	4	9	n/a	n/a	n/a	n/a	n/a	n/a	n/a	n/a	n/a	n/a	n/a
2353.898	n/a	WORD	1176949	wordpools/wasnorm_wordpool.txt	LTP096	ltpFR	4	9	1	BALCONY	72	n/a	n/a	2	0.57763671875	0.412841796875	1	upper	amplitud.ttf
2355.738	n/a	KEY_MSG	1177869	n/a	LTP096	ltpFR	4	9	n/a	n/a	n/a	n/a	n/a	n/a	n/a	n/a	n/a	n/a	n/a
2358.142	n/a	WORD	1179071	wordpools/wasnorm_wordpool.txt	LTP096	ltpFR	4	9	1	DISHWASHER	475	n/a	n/a	0	0.57763671875	0.412841796875	1	upper	amplitud.ttf
2362.022	n/a	WORD	1181011	wordpools/wasnorm_wordpool.txt	LTP096	ltpFR	4	9	1	TOWEL	1489	n/a	n/a	n/a	0.57763671875	0.412841796875	1	upper	amplitud.ttf
2365.044	n/a	SLOW_MSG	1182522	n/a	LTP096	ltpFR	4	9	n/a	n/a	n/a	n/a	n/a	n/a	n/a	n/a	n/a	n/a	n/a
2367.648	n/a	WORD	1183824	wordpools/wasnorm_wordpool.txt	LTP096	ltpFR	4	9	1	FRAGRANCE	599	n/a	n/a	0	0.57763671875	0.412841796875	1	upper	amplitud.ttf
2371.71	n/a	WORD	1185855	wordpools/wasnorm_wordpool.txt	LTP096	ltpFR	4	9	1	FLOWER	584	n/a	n/a	0	0.57763671875	0.412841796875	1	upper	amplitud.ttf
2377.514	n/a	REC_START	1188757	n/a	LTP096	ltpFR	4	9	n/a	n/a	n/a	n/a	n/a	n/a	n/a	n/a	n/a	n/a	n/a
2378.496	n/a	REC_WORD	1189248	wordpools/wasnorm_wordpool.txt	LTP096	ltpFR	4	9	1	FRAGRANCE	599	n/a	n/a	0	n/a	n/a	n/a	n/a	n/a
2379.518	n/a	REC_WORD	1189759	wordpools/wasnorm_wordpool.txt	LTP096	ltpFR	4	9	1	FLOWER	584	n/a	n/a	0	n/a	n/a	n/a	n/a	n/a
2381.988	n/a	REC_WORD	1190994	wordpools/wasnorm_wordpool.txt	LTP096	ltpFR	4	9	n/a	TRANSPORTATION	-1	n/a	n/a	n/a	n/a	n/a	n/a	n/a	n/a
2383.066	n/a	REC_WORD	1191533	wordpools/wasnorm_wordpool.txt	LTP096	ltpFR	4	9	n/a	NEIGHBORHOOD	-1	n/a	n/a	n/a	n/a	n/a	n/a	n/a	n/a
2457.704	n/a	WORD	1228852	wordpools/wasnorm_wordpool.txt	LTP096	ltpFR	4	10	-1	CUFF	423	n/a	n/a	-1	1.0	1.0	1	upper	Verdana.ttf
2461.708	n/a	WORD	1230854	wordpools/wasnorm_wordpool.txt	LTP096	ltpFR	4	10	-1	HEART	697	n/a	n/a	-1	1.0	1.0	1	upper	Verdana.ttf
2465.736	n/a	WORD	1232868	wordpools/wasnorm_wordpool.txt	LTP096	ltpFR	4	10	-1	AIRPORT	13	n/a	n/a	-1	1.0	1.0	1	upper	Verdana.ttf
2469.548	n/a	WORD	1234774	wordpools/wasnorm_wordpool.txt	LTP096	ltpFR	4	10	-1	WARRIOR	1589	n/a	n/a	-1	1.0	1.0	1	upper	Verdana.ttf
2473.37	n/a	WORD	1236685	wordpools/wasnorm_wordpool.txt	LTP096	ltpFR	4	10	-1	FRUIT	610	n/a	n/a	-1	1.0	1.0	1	upper	Verdana.ttf
2477.182	n/a	WORD	1238591	wordpools/wasnorm_wordpool.txt	LTP096	ltpFR	4	10	-1	PIG	1064	n/a	n/a	-1	1.0	1.0	1	upper	Verdana.ttf
2481.02	n/a	WORD	1240510	wordpools/wasnorm_wordpool.txt	LTP096	ltpFR	4	10	-1	HAM	678	n/a	n/a	-1	1.0	1.0	1	upper	Verdana.ttf
2484.856	n/a	WORD	1242428	wordpools/wasnorm_wordpool.txt	LTP096	ltpFR	4	10	-1	ARCHITECT	36	n/a	n/a	-1	1.0	1.0	1	upper	Verdana.ttf
2488.926	n/a	WORD	1244463	wordpools/wasnorm_wordpool.txt	LTP096	ltpFR	4	10	-1	MAILMAN	858	n/a	n/a	-1	1.0	1.0	1	upper	Verdana.ttf
2492.764	n/a	WORD	1246382	wordpools/wasnorm_wordpool.txt	LTP096	ltpFR	4	10	-1	LETTER	813	n/a	n/a	-1	1.0	1.0	1	upper	Verdana.ttf
2496.85	n/a	WORD	1248425	wordpools/wasnorm_wordpool.txt	LTP096	ltpFR	4	10	-1	STAR	1373	n/a	n/a	-1	1.0	1.0	1	upper	Verdana.ttf
2500.97	n/a	WORD	1250485	wordpools/wasnorm_wordpool.txt	LTP096	ltpFR	4	10	-1	PLAYGROUND	1087	n/a	n/a	-1	1.0	1.0	1	upper	Verdana.ttf
2504.808	n/a	WORD	1252404	wordpools/wasnorm_wordpool.txt	LTP096	ltpFR	4	10	-1	PIRATE	1074	n/a	n/a	-1	1.0	1.0	1	upper	Verdana.ttf
2508.646	n/a	WORD	1254323	wordpools/wasnorm_wordpool.txt	LTP096	ltpFR	4	10	-1	PAINT	1003	n/a	n/a	-1	1.0	1.0	1	upper	Verdana.ttf
2512.658	n/a	WORD	1256329	wordpools/wasnorm_wordpool.txt	LTP096	ltpFR	4	10	-1	DRESS	495	n/a	n/a	-1	1.0	1.0	1	upper	Verdana.ttf
2516.652	n/a	WORD	1258326	wordpools/wasnorm_wordpool.txt	LTP096	ltpFR	4	10	-1	PERISCOPE	1050	n/a	n/a	-1	1.0	1.0	1	upper	Verdana.ttf
2522.48	n/a	REC_START	1261240	n/a	LTP096	ltpFR	4	10	n/a	n/a	n/a	n/a	n/a	n/a	n/a	n/a	n/a	n/a	n/a
4109.732	n/a	WORD	2054866	wordpools/wasnorm_wordpool.txt	LTP096	ltpFR	4	11	0	FIN	566	n/a	n/a	1	0.422607421875	0.5869140625	0	lower	zerothre.ttf
4113.736	n/a	WORD	2056868	wordpools/wasnorm_wordpool.txt	LTP096	ltpFR	4	11	0	SCIENTIST	1249	n/a	n/a	0	0.422607421875	0.5869140625	0	lower	zerothre.ttf
4117.924	n/a	WORD	2058962	wordpools/wasnorm_wordpool.txt	LTP096	ltpFR	4	11	0	NURSE	963	n/a	n/a	0	0.422607421875	0.5869140625	0	lower	zerothre.ttf
4121.794	n/a	WORD	2060897	wordpools/wasnorm_wordpool.txt	LTP096	ltpFR	4	11	0	SOCKET	1340	n/a	n/a	0	0.422607421875	0.5869140625	0	lower	zerothre.ttf
4125.622	n/a	WORD	2062811	wordpools/wasnorm_wordpool.txt	LTP096	ltpFR	4	11	1	COAL	332	n/a	n/a	0	0.57763671875	0.412841796875	1	upper	amplitud.ttf
4129.494	n/a	WORD	2064747	wordpools/wasnorm_wordpool.txt	LTP096	ltpFR	4	11	1	WHALE	1601	n/a	n/a	1	0.57763671875	0.412841796875	1	upper	amplitud.ttf
4133.522	n/a	WORD	2066761	wordpools/wasnorm_wordpool.txt	LTP096	ltpFR	4	11	1	DANDELION	438	n/a	n/a	0	0.57763671875	0.412841796875	1	upper	amplitud.ttf
4137.7	n/a	WORD	2068850	wordpools/wasnorm_wordpool.txt	LTP096	ltpFR	4	11	1	TERMINAL	1450	n/a	n/a	0	0.57763671875	0.412841796875	1	upper	amplitud.ttf
4141.662	n/a	WORD	2070831	wordpools/wasnorm_wordpool.txt	LTP096	ltpFR	4	11	1	GRAVE	658	n/a	n/a	0	0.57763671875	0.412841796875	1	upper	amplitud.ttf
4145.692	n/a	WORD	2072846	wordpools/wasnorm_wordpool.txt	LTP096	ltpFR	4	11	0	BOUQUET	157	n/a	n/a	0	0.422607421875	0.5869140625	0	lower	zerothre.ttf
4149.654	n/a	WORD	2074827	wordpools/wasnorm_wordpool.txt	LTP096	ltpFR	4	11	0	BED	110	n/a	n/a	n/a	0.422607421875	0.5869140625	0	lower	zerothre.ttf
4152.674	n/a	SLOW_MSG	2076337	n/a	LTP096	ltpFR	4	11	n/a	n/a	n/a	n/a	n/a	n/a	n/a	n/a	n/a	n/a	n/a
4155.354	n/a	WORD	2077677	wordpools/wasnorm_wordpool.txt	LTP096	ltpFR	4	11	1	DUSTPAN	509	n/a	n/a	2	0.57763671875	0.412841796875	1	upper	amplitud.ttf
4156.338	n/a	KEY_MSG	2078169	n/a	LTP096	ltpFR	4	11	n/a	n/a	n/a	n/a	n/a	n/a	n/a	n/a	n/a	n/a	n/a
4159.242	n/a	WORD	2079621	wordpools/wasnorm_wordpool.txt	LTP096	ltpFR	4	11	1	BULB	192	n/a	n/a	0	0.57763671875	0.412841796875	1	upper	amplitud.ttf
4163.396	n/a	WORD	2081698	wordpools/wasnorm_wordpool.txt	LTP096	ltpFR	4	11	1	TEENAGER	1444	n/a	n/a	1	0.57763671875	0.412841796875	1	upper	amplitud.ttf
4167.242	n/a	WORD	2083621	wordpools/wasnorm_wordpool.txt	LTP096	ltpFR	4	11	0	DECK	443	n/a	n/a	2	0.422607421875	0.5869140625	0	lower	zerothre.ttf
4168.94	n/a	KEY_MSG	2084470	n/a	LTP096	ltpFR	4	11	n/a	n/a	n/a	n/a	n/a	n/a	n/a	n/a	n/a	n/a	n/a
4171.644	n/a	WORD	2085822	wordpools/wasnorm_wordpool.txt	LTP096	ltpFR	4	11	0	SHIP	1286	n/a	n/a	0	0.422607421875	0.5869140625	0	lower	zerothre.ttf
4177.414	n/a	REC_START	2088707	n/a	LTP096	ltpFR	4	11	n/a	n/a	n/a	n/a	n/a	n/a	n/a	n/a	n/a	n/a	n/a
4178.152	n/a	REC_WORD	2089076	wordpools/wasnorm_wordpool.txt	LTP096	ltpFR	4	11	n/a	BOAT	144	n/a	n/a	n/a	n/a	n/a	n/a	n/a	n/a
4178.796	n/a	REC_WORD	2089398	wordpools/wasnorm_wordpool.txt	LTP096	ltpFR	4	11	0	SHIP	1286	n/a	n/a	0	n/a	n/a	n/a	n/a	n/a
4179.988	n/a	REC_WORD	2089994	wordpools/wasnorm_wordpool.txt	LTP096	ltpFR	4	11	1	TEENAGER	1444	n/a	n/a	1	n/a	n/a	n/a	n/a	n/a
4181.698	n/a	REC_WORD	2090849	wordpools/wasnorm_wordpool.txt	LTP096	ltpFR	4	11	n/a	GOLF	-1	n/a	n/a	n/a	n/a	n/a	n/a	n/a	n/a
4184.04	n/a	REC_WORD_VV	2092020	wordpools/wasnorm_wordpool.txt	LTP096	ltpFR	4	11	n/a	<>	-1	n/a	n/a	n/a	n/a	n/a	n/a	n/a	n/a
4265.496	n/a	WORD	2132748	wordpools/wasnorm_wordpool.txt	LTP096	ltpFR	4	12	1	SHOVEL	1295	n/a	n/a	0	0.57763671875	0.412841796875	1	upper	amplitud.ttf
4269.474	n/a	WORD	2134737	wordpools/wasnorm_wordpool.txt	LTP096	ltpFR	4	12	1	GLOBE	641	n/a	n/a	0	0.57763671875	0.412841796875	1	upper	amplitud.ttf
4273.552	n/a	WORD	2136776	wordpools/wasnorm_wordpool.txt	LTP096	ltpFR	4	12	1	WOLF	1619	n/a	n/a	1	0.57763671875	0.412841796875	1	upper	amplitud.ttf
4277.682	n/a	WORD	2138841	wordpools/wasnorm_wordpool.txt	LTP096	ltpFR	4	12	1	COOKBOOK	373	n/a	n/a	0	0.57763671875	0.412841796875	1	upper	amplitud.ttf
4281.544	n/a	WORD	2140772	wordpools/wasnorm_wordpool.txt	LTP096	ltpFR	4	12	1	KITCHEN	778	n/a	n/a	0	0.57763671875	0.412841796875	1	upper	amplitud.ttf
4285.672	n/a	WORD	2142836	wordpools/wasnorm_wordpool.txt	LTP096	ltpFR	4	12	1	EWE	542	n/a	n/a	0	0.57763671875	0.412841796875	1	upper	amplitud.ttf
4289.576	n/a	WORD	2144788	wordpools/wasnorm_wordpool.txt	LTP096	ltpFR	4	12	1	SLEEVE	1324	n/a	n/a	0	0.57763671875	0.412841796875	1	upper	amplitud.ttf
4293.78	n/a	WORD	2146890	wordpools/wasnorm_wordpool.txt	LTP096	ltpFR	4	12	1	DIRECTOR	471	n/a	n/a	1	0.57763671875	0.412841796875	1	upper	amplitud.ttf
4297.784	n/a	WORD	2148892	wordpools/wasnorm_wordpool.txt	LTP096	ltpFR	4	12	1	CHEERLEADER	288	n/a	n/a	1	0.57763671875	0.412841796875	1	upper	amplitud.ttf
4301.936	n/a	WORD	2150968	wordpools/wasnorm_wordpool.txt	LTP096	ltpFR	4	12	1	GERM	632	n/a	n/a	0	0.57763671875	0.412841796875	1	upper	amplitud.ttf
4305.99	n/a	WORD	2152995	wordpools/wasnorm_wordpool.txt	LTP096	ltpFR	4	12	1	HANDKERCHIEF	686	n/a	n/a	0	0.57763671875	0.412841796875	1	upper	amplitud.ttf
4310.044	n/a	WORD	2155022	wordpools/wasnorm_wordpool.txt	LTP096	ltpFR	4	12	1	STAGE	1366	n/a	n/a	1	0.57763671875	0.412841796875	1	upper	amplitud.ttf
4314.014	n/a	WORD	2157007	wordpools/wasnorm_wordpool.txt	LTP096	ltpFR	4	12	1	KID	775	n/a	n/a	n/a	0.57763671875	0.412841796875	1	upper	amplitud.ttf
4317.036	n/a	SLOW_MSG	2158518	n/a	LTP096	ltpFR	4	12	n/a	n/a	n/a	n/a	n/a	n/a	n/a	n/a	n/a	n/a	n/a
4319.416	n/a	WORD	2159708	wordpools/wasnorm_wordpool.txt	LTP096	ltpFR	4	12	1	PLAID	1080	n/a	n/a	n/a	0.57763671875	0.412841796875	1	upper	amplitud.ttf
4322.438	n/a	SLOW_MSG	2161219	n/a	LTP096	ltpFR	4	12	n/a	n/a	n/a	n/a	n/a	n/a	n/a	n/a	n/a	n/a	n/a
4325.092	n/a	WORD	2162546	wordpools/wasnorm_wordpool.txt	LTP096	ltpFR	4	12	1	LIVER	833	n/a	n/a	1	0.57763671875	0.412841796875	1	upper	amplitud.ttf
4329.172	n/a	WORD	2164586	wordpools/wasnorm_wordpool.txt	LTP096	ltpFR	4	12	1	VEIN	1554	n/a	n/a	0	0.57763671875	0.412841796875	1	upper	amplitud.ttf
4335.082	n/a	REC_START	2167541	n/a	LTP096	ltpFR	4	12	n/a	n/a	n/a	n/a	n/a	n/a	n/a	n/a	n/a	n/a	n/a
4336.21	n/a	REC_WORD	2168105	wordpools/wasnorm_wordpool.txt	LTP096	ltpFR	4	12	1	LIVER	833	n/a	n/a	1	n/a	n/a	n/a	n/a	n/a
4337.322	n/a	REC_WORD	2168661	wordpools/wasnorm_wordpool.txt	LTP096	ltpFR	4	12	1	VEIN	1554	n/a	n/a	0	n/a	n/a	n/a	n/a	n/a
4339.232	n/a	REC_WORD	2169616	wordpools/wasnorm_wordpool.txt	LTP096	ltpFR	4	12	n/a	STUDENT	1395	n/a	n/a	n/a	n/a	n/a	n/a	n/a	n/a
4340.754	n/a	REC_WORD	2170377	wordpools/wasnorm_wordpool.txt	LTP096	ltpFR	4	12	n/a	TRAVEL	-1	n/a	n/a	n/a	n/a	n/a	n/a	n/a	n/a
4343.818	n/a	REC_WORD	2171909	wordpools/wasnorm_wordpool.txt	LTP096	ltpFR	4	12	-1	SUN	1406	n/a	n/a	-1	n/a	n/a	n/a	n/a	n/a
4347.056	n/a	REC_WORD_VV	2173528	wordpools/wasnorm_wordpool.txt	LTP096	ltpFR	4	12	n/a	<>	-1	n/a	n/a	n/a	n/a	n/a	n/a	n/a	n/a
4410.67	n/a	REST_REWET	2205335	n/a	LTP096	ltpFR	4	12	n/a	n/a	n/a	n/a	n/a	n/a	n/a	n/a	n/a	n/a	n/a
4598.388	n/a	WORD	2299194	wordpools/wasnorm_wordpool.txt	LTP096	ltpFR	4	13	0	COW	393	n/a	n/a	1	0.422607421875	0.5869140625	0	lower	zerothre.ttf
4602.274	n/a	WORD	2301137	wordpools/wasnorm_wordpool.txt	LTP096	ltpFR	4	13	0	MERMAID	887	n/a	n/a	1	0.422607421875	0.5869140625	0	lower	zerothre.ttf
4606.204	n/a	WORD	2303102	wordpools/wasnorm_wordpool.txt	LTP096	ltpFR	4	13	0	DUMP	505	n/a	n/a	0	0.422607421875	0.5869140625	0	lower	zerothre.ttf
4610.074	n/a	WORD	2305037	wordpools/wasnorm_wordpool.txt	LTP096	ltpFR	4	13	0	SHIRT	1287	n/a	n/a	1	0.422607421875	0.5869140625	0	lower	zerothre.ttf
4614.236	n/a	WORD	2307118	wordpools/wasnorm_wordpool.txt	LTP096	ltpFR	4	13	0	TROUSERS	1510	n/a	n/a	1	0.422607421875	0.5869140625	0	lower	zerothre.ttf
4618.39	n/a	WORD	2309195	wordpools/wasnorm_wordpool.txt	LTP096	ltpFR	4	13	0	GLASS	639	n/a	n/a	0	0.422607421875	0.5869140625	0	lower	zerothre.ttf
4622.494	n/a	WORD	2311247	wordpools/wasnorm_wordpool.txt	LTP096	ltpFR	4	13	0	PUPIL	1143	n/a	n/a	1	0.422607421875	0.5869140625	0	lower	zerothre.ttf
4626.622	n/a	WORD	2313311	wordpools/wasnorm_wordpool.txt	LTP096	ltpFR	4	13	0	BILL	126	n/a	n/a	1	0.422607421875	0.5869140625	0	lower	zerothre.ttf
4630.726	n/a	WORD	2315363	wordpools/wasnorm_wordpool.txt	LTP096	ltpFR	4	13	0	CHARCOAL	281	n/a	n/a	0	0.422607421875	0.5869140625	0	lower	zerothre.ttf
4634.556	n/a	WORD	2317278	wordpools/wasnorm_wordpool.txt	LTP096	ltpFR	4	13	0	MATCH	878	n/a	n/a	1	0.422607421875	0.5869140625	0	lower	zerothre.ttf
4638.626	n/a	WORD	2319313	wordpools/wasnorm_wordpool.txt	LTP096	ltpFR	4	13	0	FLEA	577	n/a	n/a	0	0.422607421875	0.5869140625	0	lower	zerothre.ttf
4642.438	n/a	WORD	2321219	wordpools/wasnorm_wordpool.txt	LTP096	ltpFR	4	13	0	LEOPARD	812	n/a	n/a	1	0.422607421875	0.5869140625	0	lower	zerothre.ttf
4646.25	n/a	WORD	2323125	wordpools/wasnorm_wordpool.txt	LTP096	ltpFR	4	13	0	BANKER	84	n/a	n/a	1	0.422607421875	0.5869140625	0	lower	zerothre.ttf
4650.186	n/a	WORD	2325093	wordpools/wasnorm_wordpool.txt	LTP096	ltpFR	4	13	0	SALMON	1227	n/a	n/a	1	0.422607421875	0.5869140625	0	lower	zerothre.ttf
4654.208	n/a	WORD	2327104	wordpools/wasnorm_wordpool.txt	LTP096	ltpFR	4	13	0	SCALLOP	1242	n/a	n/a	0	0.422607421875	0.5869140625	0	lower	zerothre.ttf
4658.22	n/a	WORD	2329110	wordpools/wasnorm_wordpool.txt	LTP096	ltpFR	4	13	0	CEREAL	272	n/a	n/a	0	0.422607421875	0.5869140625	0	lower	zerothre.ttf
4664.038	n/a	REC_START	2332019	n/a	LTP096	ltpFR	4	13	n/a	n/a	n/a	n/a	n/a	n/a	n/a	n/a	n/a	n/a	n/a
4664.896	n/a	REC_WORD	2332448	wordpools/wasnorm_wordpool.txt	LTP096	ltpFR	4	13	0	SCALLOP	1242	n/a	n/a	0	n/a	n/a	n/a	n/a	n/a
4665.52	n/a	REC_WORD	2332760	wordpools/wasnorm_wordpool.txt	LTP096	ltpFR	4	13	0	CEREAL	272	n/a	n/a	0	n/a	n/a	n/a	n/a	n/a
4666.258	n/a	REC_WORD	2333129	wordpools/wasnorm_wordpool.txt	LTP096	ltpFR	4	13	0	BANKER	84	n/a	n/a	1	n/a	n/a	n/a	n/a	n/a
4677.706	n/a	REC_WORD	2338853	wordpools/wasnorm_wordpool.txt	LTP096	ltpFR	4	13	0	DUMP	505	n/a	n/a	0	n/a	n/a	n/a	n/a	n/a
4688.626	n/a	REC_WORD	2344313	wordpools/wasnorm_wordpool.txt	LTP096	ltpFR	4	13	0	SHIRT	1287	n/a	n/a	1	n/a	n/a	n/a	n/a	n/a
4691.62	n/a	REC_WORD	2345810	wordpools/wasnorm_wordpool.txt	LTP096	ltpFR	4	13	0	GLASS	639	n/a	n/a	0	n/a	n/a	n/a	n/a	n/a
4753.326	n/a	WORD	2376663	wordpools/wasnorm_wordpool.txt	LTP096	ltpFR	4	14	1	SUBURB	1399	n/a	n/a	0	0.57763671875	0.412841796875	1	upper	amplitud.ttf
4757.414	n/a	WORD	2378707	wordpools/wasnorm_wordpool.txt	LTP096	ltpFR	4	14	1	ELM	527	n/a	n/a	0	0.57763671875	0.412841796875	1	upper	amplitud.ttf
4761.408	n/a	WORD	2380704	wordpools/wasnorm_wordpool.txt	LTP096	ltpFR	4	14	1	INSTRUCTOR	741	n/a	n/a	1	0.57763671875	0.412841796875	1	upper	amplitud.ttf
4765.396	n/a	WORD	2382698	wordpools/wasnorm_wordpool.txt	LTP096	ltpFR	4	14	0	KEYBOARD	774	n/a	n/a	n/a	0.422607421875	0.5869140625	0	lower	zerothre.ttf
4768.418	n/a	SLOW_MSG	2384209	n/a	LTP096	ltpFR	4	14	n/a	n/a	n/a	n/a	n/a	n/a	n/a	n/a	n/a	n/a	n/a
4771.082	n/a	WORD	2385541	wordpools/wasnorm_wordpool.txt	LTP096	ltpFR	4	14	0	MULE	931	n/a	n/a	0	0.422607421875	0.5869140625	0	lower	zerothre.ttf
4775.078	n/a	WORD	2387539	wordpools/wasnorm_wordpool.txt	LTP096	ltpFR	4	14	1	HORSE	719	n/a	n/a	1	0.57763671875	0.412841796875	1	upper	amplitud.ttf
4778.906	n/a	WORD	2389453	wordpools/wasnorm_wordpool.txt	LTP096	ltpFR	4	14	1	PIANO	1057	n/a	n/a	0	0.57763671875	0.412841796875	1	upper	amplitud.ttf
4783.068	n/a	WORD	2391534	wordpools/wasnorm_wordpool.txt	LTP096	ltpFR	4	14	1	LAWN	805	n/a	n/a	1	0.57763671875	0.412841796875	1	upper	amplitud.ttf
4787.212	n/a	WORD	2393606	wordpools/wasnorm_wordpool.txt	LTP096	ltpFR	4	14	1	TOOTHPASTE	1483	n/a	n/a	0	0.57763671875	0.412841796875	1	upper	amplitud.ttf
4791.026	n/a	WORD	2395513	wordpools/wasnorm_wordpool.txt	LTP096	ltpFR	4	14	1	MOOSE	915	n/a	n/a	1	0.57763671875	0.412841796875	1	upper	amplitud.ttf
4794.904	n/a	WORD	2397452	wordpools/wasnorm_wordpool.txt	LTP096	ltpFR	4	14	0	MANSION	864	n/a	n/a	1	0.422607421875	0.5869140625	0	lower	zerothre.ttf
4798.758	n/a	WORD	2399379	wordpools/wasnorm_wordpool.txt	LTP096	ltpFR	4	14	0	DIPLOMA	470	n/a	n/a	n/a	0.422607421875	0.5869140625	0	lower	zerothre.ttf
4801.78	n/a	SLOW_MSG	2400890	n/a	LTP096	ltpFR	4	14	n/a	n/a	n/a	n/a	n/a	n/a	n/a	n/a	n/a	n/a	n/a
4804.184	n/a	WORD	2402092	wordpools/wasnorm_wordpool.txt	LTP096	ltpFR	4	14	0	SCROLL	1257	n/a	n/a	0	0.422607421875	0.5869140625	0	lower	zerothre.ttf
4808.364	n/a	WORD	2404182	wordpools/wasnorm_wordpool.txt	LTP096	ltpFR	4	14	0	PUBLICATION	1136	n/a	n/a	1	0.422607421875	0.5869140625	0	lower	zerothre.ttf
4812.516	n/a	WORD	2406258	wordpools/wasnorm_wordpool.txt	LTP096	ltpFR	4	14	0	CROWN	415	n/a	n/a	1	0.422607421875	0.5869140625	0	lower	zerothre.ttf
4816.562	n/a	WORD	2408281	wordpools/wasnorm_wordpool.txt	LTP096	ltpFR	4	14	0	MONARCH	906	n/a	n/a	1	0.422607421875	0.5869140625	0	lower	zerothre.ttf
4822.59	n/a	REC_START	2411295	n/a	LTP096	ltpFR	4	14	n/a	n/a	n/a	n/a	n/a	n/a	n/a	n/a	n/a	n/a	n/a
4823.38	n/a	REC_WORD	2411690	wordpools/wasnorm_wordpool.txt	LTP096	ltpFR	4	14	0	MONARCH	906	n/a	n/a	1	n/a	n/a	n/a	n/a	n/a
4824.81	n/a	REC_WORD_VV	2412405	wordpools/wasnorm_wordpool.txt	LTP096	ltpFR	4	14	n/a	<>	-1	n/a	n/a	n/a	n/a	n/a	n/a	n/a	n/a
4825.472	n/a	REC_WORD_VV	2412736	wordpools/wasnorm_wordpool.txt	LTP096	ltpFR	4	14	n/a	<>	-1	n/a	n/a	n/a	n/a	n/a	n/a	n/a	n/a
4828.55	n/a	REC_WORD	2414275	wordpools/wasnorm_wordpool.txt	LTP096	ltpFR	4	14	n/a	DIRECTIONS	-1	n/a	n/a	n/a	n/a	n/a	n/a	n/a	n/a
4835.366	n/a	REC_WORD	2417683	wordpools/wasnorm_wordpool.txt	LTP096	ltpFR	4	14	0	MANSION	864	n/a	n/a	1	n/a	n/a	n/a	n/a	n/a
4836.992	n/a	REC_WORD	2418496	wordpools/wasnorm_wordpool.txt	LTP096	ltpFR	4	14	1	MOOSE	915	n/a	n/a	1	n/a	n/a	n/a	n/a	n/a
4852.262	n/a	REC_WORD	2426131	wordpools/wasnorm_wordpool.txt	LTP096	ltpFR	4	14	n/a	TOOTHBRUSH	1482	n/a	n/a	n/a	n/a	n/a	n/a	n/a	n/a
4856.898	n/a	REC_WORD_VV	2428449	wordpools/wasnorm_wordpool.txt	LTP096	ltpFR	4	14	n/a	<>	-1	n/a	n/a	n/a	n/a	n/a	n/a	n/a	n/a
4858.364	n/a	REC_WORD_VV	2429182	wordpools/wasnorm_wordpool.txt	LTP096	ltpFR	4	14	n/a	<>	-1	n/a	n/a	n/a	n/a	n/a	n/a	n/a	n/a
4912.886	n/a	WORD	2456443	wordpools/wasnorm_wordpool.txt	LTP096	ltpFR	4	15	-1	CUSTARD	429	n/a	n/a	-1	1.0	1.0	1	upper	Verdana.ttf
4916.782	n/a	WORD	2458391	wordpools/wasnorm_wordpool.txt	LTP096	ltpFR	4	15	-1	PUDDING	1139	n/a	n/a	-1	1.0	1.0	1	upper	Verdana.ttf
4920.96	n/a	WORD	2460480	wordpools/wasnorm_wordpool.txt	LTP096	ltpFR	4	15	-1	COCOON	339	n/a	n/a	-1	1.0	1.0	1	upper	Verdana.ttf
4924.88	n/a	WORD	2462440	wordpools/wasnorm_wordpool.txt	LTP096	ltpFR	4	15	-1	DIVER	476	n/a	n/a	-1	1.0	1.0	1	upper	Verdana.ttf
4929.0	n/a	WORD	2464500	wordpools/wasnorm_wordpool.txt	LTP096	ltpFR	4	15	-1	SANDPAPER	1231	n/a	n/a	-1	1.0	1.0	1	upper	Verdana.ttf
4933.204	n/a	WORD	2466602	wordpools/wasnorm_wordpool.txt	LTP096	ltpFR	4	15	-1	OREGANO	983	n/a	n/a	-1	1.0	1.0	1	upper	Verdana.ttf
4937.282	n/a	WORD	2468641	wordpools/wasnorm_wordpool.txt	LTP096	ltpFR	4	15	-1	RICE	1190	n/a	n/a	-1	1.0	1.0	1	upper	Verdana.ttf
4941.27	n/a	WORD	2470635	wordpools/wasnorm_wordpool.txt	LTP096	ltpFR	4	15	-1	OZONE	996	n/a	n/a	-1	1.0	1.0	1	upper	Verdana.ttf
4945.09	n/a	WORD	2472545	wordpools/wasnorm_wordpool.txt	LTP096	ltpFR	4	15	-1	ANT	25	n/a	n/a	-1	1.0	1.0	1	upper	Verdana.ttf
4949.052	n/a	WORD	2474526	wordpools/wasnorm_wordpool.txt	LTP096	ltpFR	4	15	-1	CLIMBER	323	n/a	n/a	-1	1.0	1.0	1	upper	Verdana.ttf
4952.972	n/a	WORD	2476486	wordpools/wasnorm_wordpool.txt	LTP096	ltpFR	4	15	-1	CHECK	284	n/a	n/a	-1	1.0	1.0	1	upper	Verdana.ttf
4956.926	n/a	WORD	2478463	wordpools/wasnorm_wordpool.txt	LTP096	ltpFR	4	15	-1	FAN	551	n/a	n/a	-1	1.0	1.0	1	upper	Verdana.ttf
4960.914	n/a	WORD	2480457	wordpools/wasnorm_wordpool.txt	LTP096	ltpFR	4	15	-1	CORD	379	n/a	n/a	-1	1.0	1.0	1	upper	Verdana.ttf
4965.092	n/a	WORD	2482546	wordpools/wasnorm_wordpool.txt	LTP096	ltpFR	4	15	-1	CRICKET	408	n/a	n/a	-1	1.0	1.0	1	upper	Verdana.ttf
4969.128	n/a	WORD	2484564	wordpools/wasnorm_wordpool.txt	LTP096	ltpFR	4	15	-1	SCARF	1246	n/a	n/a	-1	1.0	1.0	1	upper	Verdana.ttf
4973.04	n/a	WORD	2486520	wordpools/wasnorm_wordpool.txt	LTP096	ltpFR	4	15	-1	TELEPHONE	1445	n/a	n/a	-1	1.0	1.0	1	upper	Verdana.ttf
4978.794	n/a	REC_START	2489397	n/a	LTP096	ltpFR	4	15	n/a	n/a	n/a	n/a	n/a	n/a	n/a	n/a	n/a	n/a	n/a
4979.876	n/a	REC_WORD	2489938	wordpools/wasnorm_wordpool.txt	LTP096	ltpFR	4	15	-1	CRICKET	408	n/a	n/a	-1	n/a	n/a	n/a	n/a	n/a
4980.724	n/a	REC_WORD	2490362	wordpools/wasnorm_wordpool.txt	LTP096	ltpFR	4	15	-1	TELEPHONE	1445	n/a	n/a	-1	n/a	n/a	n/a	n/a	n/a
4981.682	n/a	REC_WORD	2490841	wordpools/wasnorm_wordpool.txt	LTP096	ltpFR	4	15	-1	ANT	25	n/a	n/a	-1	n/a	n/a	n/a	n/a	n/a
4982.908	n/a	REC_WORD	2491454	wordpools/wasnorm_wordpool.txt	LTP096	ltpFR	4	15	-1	CLIMBER	323	n/a	n/a	-1	n/a	n/a	n/a	n/a	n/a
4985.434	n/a	REC_WORD	2492717	wordpools/wasnorm_wordpool.txt	LTP096	ltpFR	4	15	-1	CUSTARD	429	n/a	n/a	-1	n/a	n/a	n/a	n/a	n/a
4986.46	n/a	REC_WORD	2493230	wordpools/wasnorm_wordpool.txt	LTP096	ltpFR	4	15	-1	PUDDING	1139	n/a	n/a	-1	n/a	n/a	n/a	n/a	n/a
4988.416	n/a	REC_WORD	2494208	wordpools/wasnorm_wordpool.txt	LTP096	ltpFR	4	15	n/a	RACCOON	1153	n/a	n/a	n/a	n/a	n/a	n/a	n/a	n/a
4990.052	n/a	REC_WORD	2495026	wordpools/wasnorm_wordpool.txt	LTP096	ltpFR	4	15	-1	DIVER	476	n/a	n/a	-1	n/a	n/a	n/a	n/a	n/a
4996.114	n/a	REC_WORD_VV	2498057	wordpools/wasnorm_wordpool.txt	LTP096	ltpFR	4	15	n/a	<>	-1	n/a	n/a	n/a	n/a	n/a	n/a	n/a	n/a
5058.078	n/a	WORD	2529039	wordpools/wasnorm_wordpool.txt	LTP096	ltpFR	4	16	0	BOAT	144	n/a	n/a	1	0.422607421875	0.5869140625	0	lower	zerothre.ttf
5062.09	n/a	WORD	2531045	wordpools/wasnorm_wordpool.txt	LTP096	ltpFR	4	16	0	SKUNK	1321	n/a	n/a	0	0.422607421875	0.5869140625	0	lower	zerothre.ttf
5066.234	n/a	WORD	2533117	wordpools/wasnorm_wordpool.txt	LTP096	ltpFR	4	16	0	FLAG	573	n/a	n/a	0	0.422607421875	0.5869140625	0	lower	zerothre.ttf
5070.064	n/a	WORD	2535032	wordpools/wasnorm_wordpool.txt	LTP096	ltpFR	4	16	0	DRAWING	494	n/a	n/a	0	0.422607421875	0.5869140625	0	lower	zerothre.ttf
5074.034	n/a	WORD	2537017	wordpools/wasnorm_wordpool.txt	LTP096	ltpFR	4	16	1	INVENTOR	743	n/a	n/a	1	0.57763671875	0.412841796875	1	upper	amplitud.ttf
5078.186	n/a	WORD	2539093	wordpools/wasnorm_wordpool.txt	LTP096	ltpFR	4	16	1	CHICK	296	n/a	n/a	1	0.57763671875	0.412841796875	1	upper	amplitud.ttf
5082.25	n/a	WORD	2541125	wordpools/wasnorm_wordpool.txt	LTP096	ltpFR	4	16	1	YOKE	1632	n/a	n/a	0	0.57763671875	0.412841796875	1	upper	amplitud.ttf
5086.428	n/a	WORD	2543214	wordpools/wasnorm_wordpool.txt	LTP096	ltpFR	4	16	1	CAB	209	n/a	n/a	0	0.57763671875	0.412841796875	1	upper	amplitud.ttf
5090.348	n/a	WORD	2545174	wordpools/wasnorm_wordpool.txt	LTP096	ltpFR	4	16	1	SNAKE	1333	n/a	n/a	1	0.57763671875	0.412841796875	1	upper	amplitud.ttf
5094.452	n/a	WORD	2547226	wordpools/wasnorm_wordpool.txt	LTP096	ltpFR	4	16	0	BATHTUB	100	n/a	n/a	1	0.422607421875	0.5869140625	0	lower	zerothre.ttf
5098.556	n/a	WORD	2549278	wordpools/wasnorm_wordpool.txt	LTP096	ltpFR	4	16	0	SWIMMER	1420	n/a	n/a	1	0.422607421875	0.5869140625	0	lower	zerothre.ttf
5102.6	n/a	WORD	2551300	wordpools/wasnorm_wordpool.txt	LTP096	ltpFR	4	16	0	SLACKS	1323	n/a	n/a	n/a	0.422607421875	0.5869140625	0	lower	zerothre.ttf
5105.622	n/a	SLOW_MSG	2552811	n/a	LTP096	ltpFR	4	16	n/a	n/a	n/a	n/a	n/a	n/a	n/a	n/a	n/a	n/a	n/a
5107.986	n/a	WORD	2553993	wordpools/wasnorm_wordpool.txt	LTP096	ltpFR	4	16	0	ENGINE	535	n/a	n/a	0	0.422607421875	0.5869140625	0	lower	zerothre.ttf
5111.84	n/a	WORD	2555920	wordpools/wasnorm_wordpool.txt	LTP096	ltpFR	4	16	1	MISSILE	900	n/a	n/a	0	0.57763671875	0.412841796875	1	upper	amplitud.ttf
5115.818	n/a	WORD	2557909	wordpools/wasnorm_wordpool.txt	LTP096	ltpFR	4	16	1	POLYESTER	1100	n/a	n/a	0	0.57763671875	0.412841796875	1	upper	amplitud.ttf
5119.738	n/a	WORD	2559869	wordpools/wasnorm_wordpool.txt	LTP096	ltpFR	4	16	1	ARTICLE	42	n/a	n/a	0	0.57763671875	0.412841796875	1	upper	amplitud.ttf
5125.616	n/a	REC_START	2562808	n/a	LTP096	ltpFR	4	16	n/a	n/a	n/a	n/a	n/a	n/a	n/a	n/a	n/a	n/a	n/a
5126.612	n/a	REC_WORD	2563306	wordpools/wasnorm_wordpool.txt	LTP096	ltpFR	4	16	1	ARTICLE	42	n/a	n/a	0	n/a	n/a	n/a	n/a	n/a
5127.846	n/a	REC_WORD	2563923	wordpools/wasnorm_wordpool.txt	LTP096	ltpFR	4	16	1	POLYESTER	1100	n/a	n/a	0	n/a	n/a	n/a	n/a	n/a
5129.852	n/a	REC_WORD	2564926	wordpools/wasnorm_wordpool.txt	LTP096	ltpFR	4	16	1	MISSILE	900	n/a	n/a	0	n/a	n/a	n/a	n/a	n/a
5131.708	n/a	REC_WORD	2565854	wordpools/wasnorm_wordpool.txt	LTP096	ltpFR	4	16	1	SNAKE	1333	n/a	n/a	1	n/a	n/a	n/a	n/a	n/a
5217.62	n/a	REC_START	2608810	n/a	LTP096	ltpFR	4	n/a	n/a	n/a	n/a	n/a	n/a	n/a	n/a	n/a	n/a	n/a	n/a
5219.072	n/a	FFR_REC_WORD	2609536	wordpools/wasnorm_wordpool.txt	LTP096	ltpFR	4	n/a	-1	ANT	25	n/a	n/a	-1	n/a	n/a	n/a	n/a	n/a
5220.944	n/a	FFR_REC_WORD	2610472	wordpools/wasnorm_wordpool.txt	LTP096	ltpFR	4	n/a	0	BATHTUB	100	n/a	n/a	1	n/a	n/a	n/a	n/a	n/a
5226.706	n/a	FFR_REC_WORD	2613353	wordpools/wasnorm_wordpool.txt	LTP096	ltpFR	4	n/a	-1	CUSTARD	429	n/a	n/a	-1	n/a	n/a	n/a	n/a	n/a
5228.432	n/a	FFR_REC_WORD	2614216	wordpools/wasnorm_wordpool.txt	LTP096	ltpFR	4	n/a	-1	PUDDING	1139	n/a	n/a	-1	n/a	n/a	n/a	n/a	n/a
5232.882	n/a	FFR_REC_WORD	2616441	wordpools/wasnorm_wordpool.txt	LTP096	ltpFR	4	n/a	n/a	TRAVEL	-1	n/a	n/a	n/a	n/a	n/a	n/a	n/a	n/a
5365.244	n/a	FFR_REC_WORD	2682622	wordpools/wasnorm_wordpool.txt	LTP096	ltpFR	4	n/a	n/a	BUS	201	n/a	n/a	n/a	n/a	n/a	n/a	n/a	n/a
5383.306	n/a	FFR_REC_WORD	2691653	wordpools/wasnorm_wordpool.txt	LTP096	ltpFR	4	n/a	0	SHIP	1286	n/a	n/a	0	n/a	n/a	n/a	n/a	n/a
5523.402	n/a	REC_START	2761701	n/a	LTP096	ltpFR	4	1	n/a	n/a	n/a	n/a	n/a	n/a	n/a	n/a	n/a	n/a	n/a
5523.434	n/a	RECOG_TARGET	2761717	n/a	LTP096	ltpFR	4	1	-1	COLESLAW	344	0	1	-1	n/a	n/a	n/a	n/a	n/a
5525.796	n/a	RECOG_RESP_VV	2762898	n/a	LTP096	ltpFR	4	1	-1	COLESLAW	344	0	n/a	-1	n/a	n/a	n/a	n/a	n/a
5528.046	n/a	RECOG_RESP_VV	2764023	n/a	LTP096	ltpFR	4	1	-1	COLESLAW	344	n/a	1	-1	n/a	n/a	n/a	n/a	n/a
5529.652	n/a	RECOG_RESP	2764826	n/a	LTP096	ltpFR	4	1	-1	COLESLAW	344	0	n/a	-1	n/a	n/a	n/a	n/a	n/a
5531.148	n/a	RECOG_CONF	2765574	n/a	LTP096	ltpFR	4	1	-1	COLESLAW	344	n/a	1	-1	n/a	n/a	n/a	n/a	n/a
5532.74	n/a	RECOG_TARGET	2766370	n/a	LTP096	ltpFR	4	1	0	GLASS	639	1	1	0	n/a	n/a	n/a	n/a	n/a
5535.744	n/a	RECOG_RESP	2767872	n/a	LTP096	ltpFR	4	1	0	GLASS	639	1	n/a	0	n/a	n/a	n/a	n/a	n/a
5536.546	n/a	RECOG_CONF	2768273	n/a	LTP096	ltpFR	4	1	0	GLASS	639	n/a	1	0	n/a	n/a	n/a	n/a	n/a
5537.95	n/a	RECOG_TARGET	2768975	n/a	LTP096	ltpFR	4	1	-1	BEAVER	109	1	5	-1	n/a	n/a	n/a	n/a	n/a
5538.866	n/a	RECOG_RESP	2769433	n/a	LTP096	ltpFR	4	1	-1	BEAVER	109	1	n/a	-1	n/a	n/a	n/a	n/a	n/a
5539.81	n/a	RECOG_RESP_VV	2769905	n/a	LTP096	ltpFR	4	1	-1	BEAVER	109	n/a	1	-1	n/a	n/a	n/a	n/a	n/a
5541.006	n/a	RECOG_CONF	2770503	n/a	LTP096	ltpFR	4	1	-1	BEAVER	109	n/a	5	-1	n/a	n/a	n/a	n/a	n/a
5542.42	n/a	RECOG_TARGET	2771210	n/a	LTP096	ltpFR	4	1	1	WORKER	1621	0	1	1	n/a	n/a	n/a	n/a	n/a
5543.142	n/a	RECOG_RESP	2771571	n/a	LTP096	ltpFR	4	1	1	WORKER	1621	0	n/a	1	n/a	n/a	n/a	n/a	n/a
5543.85	n/a	RECOG_CONF	2771925	n/a	LTP096	ltpFR	4	1	1	WORKER	1621	n/a	1	1	n/a	n/a	n/a	n/a	n/a
5545.182	n/a	RECOG_TARGET	2772591	n/a	LTP096	ltpFR	4	1	1	COUNTRY	388	0	1	0	n/a	n/a	n/a	n/a	n/a
5546.05	n/a	RECOG_RESP	2773025	n/a	LTP096	ltpFR	4	1	1	COUNTRY	388	0	n/a	0	n/a	n/a	n/a	n/a	n/a
5546.744	n/a	RECOG_CONF	2773372	n/a	LTP096	ltpFR	4	1	1	COUNTRY	388	n/a	1	0	n/a	n/a	n/a	n/a	n/a
5548.13	n/a	RECOG_TARGET	2774065	n/a	LTP096	ltpFR	4	1	1	FEATHER	557	1	3	0	n/a	n/a	n/a	n/a	n/a
5548.844	n/a	RECOG_RESP	2774422	n/a	LTP096	ltpFR	4	1	1	FEATHER	557	1	n/a	0	n/a	n/a	n/a	n/a	n/a
5549.706	n/a	RECOG_CONF	2774853	n/a	LTP096	ltpFR	4	1	1	FEATHER	557	n/a	3	0	n/a	n/a	n/a	n/a	n/a
5551.018	n/a	RECOG_TARGET	2775509	n/a	LTP096	ltpFR	4	1	0	TROUT	1511	0	1	0	n/a	n/a	n/a	n/a	n/a
5551.802	n/a	RECOG_RESP	2775901	n/a	LTP096	ltpFR	4	1	0	TROUT	1511	0	n/a	0	n/a	n/a	n/a	n/a	n/a
5552.57	n/a	RECOG_CONF	2776285	n/a	LTP096	ltpFR	4	1	0	TROUT	1511	n/a	1	0	n/a	n/a	n/a	n/a	n/a
5553.94	n/a	RECOG_TARGET	2776970	n/a	LTP096	ltpFR	4	1	0	BURGLAR	200	1	2	1	n/a	n/a	n/a	n/a	n/a
5554.456	n/a	RECOG_RESP	2777228	n/a	LTP096	ltpFR	4	1	0	BURGLAR	200	1	n/a	1	n/a	n/a	n/a	n/a	n/a
5555.204	n/a	RECOG_CONF	2777602	n/a	LTP096	ltpFR	4	1	0	BURGLAR	200	n/a	2	1	n/a	n/a	n/a	n/a	n/a
5556.588	n/a	RECOG_LURE	2778294	n/a	LTP096	ltpFR	4	1	n/a	NOMAD	955	0	1	n/a	n/a	n/a	n/a	n/a	n/a
5557.51	n/a	RECOG_RESP	2778755	n/a	LTP096	ltpFR	4	1	n/a	NOMAD	955	0	n/a	n/a	n/a	n/a	n/a	n/a	n/a
5558.138	n/a	RECOG_CONF	2779069	n/a	LTP096	ltpFR	4	1	n/a	NOMAD	955	n/a	1	n/a	n/a	n/a	n/a	n/a	n/a
5559.526	n/a	RECOG_LURE	2779763	n/a	LTP096	ltpFR	4	1	n/a	PENDULUM	1043	1	1	n/a	n/a	n/a	n/a	n/a	n/a
5560.084	n/a	RECOG_RESP	2780042	n/a	LTP096	ltpFR	4	1	n/a	PENDULUM	1043	1	n/a	n/a	n/a	n/a	n/a	n/a	n/a
5560.652	n/a	RECOG_CONF	2780326	n/a	LTP096	ltpFR	4	1	n/a	PENDULUM	1043	n/a	1	n/a	n/a	n/a	n/a	n/a	n/a
5562.098	n/a	RECOG_TARGET	2781049	n/a	LTP096	ltpFR	4	1	1	SNAKE	1333	1	3	1	n/a	n/a	n/a	n/a	n/a
5562.558	n/a	RECOG_RESP	2781279	n/a	LTP096	ltpFR	4	1	1	SNAKE	1333	1	n/a	1	n/a	n/a	n/a	n/a	n/a
5563.246	n/a	RECOG_CONF	2781623	n/a	LTP096	ltpFR	4	1	1	SNAKE	1333	n/a	3	1	n/a	n/a	n/a	n/a	n/a
5564.678	n/a	RECOG_TARGET	2782339	n/a	LTP096	ltpFR	4	1	1	COOKBOOK	373	1	4	0	n/a	n/a	n/a	n/a	n/a
5565.148	n/a	RECOG_RESP	2782574	n/a	LTP096	ltpFR	4	1	1	COOKBOOK	373	1	n/a	0	n/a	n/a	n/a	n/a	n/a
5565.8	n/a	RECOG_CONF	2782900	n/a	LTP096	ltpFR	4	1	1	COOKBOOK	373	n/a	4	0	n/a	n/a	n/a	n/a	n/a
5567.174	n/a	RECOG_TARGET	2783587	n/a	LTP096	ltpFR	4	1	-1	SALIVA	1226	1	4	-1	n/a	n/a	n/a	n/a	n/a
5567.912	n/a	RECOG_RESP	2783956	n/a	LTP096	ltpFR	4	1	-1	SALIVA	1226	1	n/a	-1	n/a	n/a	n/a	n/a	n/a
5568.464	n/a	RECOG_CONF	2784232	n/a	LTP096	ltpFR	4	1	-1	SALIVA	1226	n/a	4	-1	n/a	n/a	n/a	n/a	n/a
5570.032	n/a	RECOG_TARGET	2785016	n/a	LTP096	ltpFR	4	1	-1	SCARF	1246	1	4	-1	n/a	n/a	n/a	n/a	n/a
5570.77	n/a	RECOG_RESP	2785385	n/a	LTP096	ltpFR	4	1	-1	SCARF	1246	1	n/a	-1	n/a	n/a	n/a	n/a	n/a
5571.378	n/a	RECOG_CONF	2785689	n/a	LTP096	ltpFR	4	1	-1	SCARF	1246	n/a	4	-1	n/a	n/a	n/a	n/a	n/a
5572.912	n/a	RECOG_TARGET	2786456	n/a	LTP096	ltpFR	4	1	-1	WATERFALL	1595	1	4	-1	n/a	n/a	n/a	n/a	n/a
5573.762	n/a	RECOG_RESP	2786881	n/a	LTP096	ltpFR	4	1	-1	WATERFALL	1595	1	n/a	-1	n/a	n/a	n/a	n/a	n/a
5574.422	n/a	RECOG_CONF	2787211	n/a	LTP096	ltpFR	4	1	-1	WATERFALL	1595	n/a	4	-1	n/a	n/a	n/a	n/a	n/a
5575.99	n/a	RECOG_LURE	2787995	n/a	LTP096	ltpFR	4	1	n/a	SPOOL	1356	1	4	n/a	n/a	n/a	n/a	n/a	n/a
5576.672	n/a	RECOG_RESP	2788336	n/a	LTP096	ltpFR	4	1	n/a	SPOOL	1356	1	n/a	n/a	n/a	n/a	n/a	n/a	n/a
5577.784	n/a	RECOG_CONF	2788892	n/a	LTP096	ltpFR	4	1	n/a	SPOOL	1356	n/a	4	n/a	n/a	n/a	n/a	n/a	n/a
5579.212	n/a	RECOG_LURE	2789606	n/a	LTP096	ltpFR	4	1	n/a	SEAT	1264	0	1	n/a	n/a	n/a	n/a	n/a	n/a
5579.84	n/a	RECOG_RESP	2789920	n/a	LTP096	ltpFR	4	1	n/a	SEAT	1264	0	n/a	n/a	n/a	n/a	n/a	n/a	n/a
5580.448	n/a	RECOG_CONF	2790224	n/a	LTP096	ltpFR	4	1	n/a	SEAT	1264	n/a	1	n/a	n/a	n/a	n/a	n/a	n/a
5581.9	n/a	RECOG_TARGET	2790950	n/a	LTP096	ltpFR	4	1	1	ACROBAT	4	0	1	0	n/a	n/a	n/a	n/a	n/a
5582.692	n/a	RECOG_RESP	2791346	n/a	LTP096	ltpFR	4	1	1	ACROBAT	4	0	n/a	0	n/a	n/a	n/a	n/a	n/a
5583.342	n/a	RECOG_CONF	2791671	n/a	LTP096	ltpFR	4	1	1	ACROBAT	4	n/a	1	0	n/a	n/a	n/a	n/a	n/a
5584.78	n/a	RECOG_LURE	2792390	n/a	LTP096	ltpFR	4	1	n/a	PEDESTRIAN	1038	1	4	n/a	n/a	n/a	n/a	n/a	n/a
5585.286	n/a	RECOG_RESP	2792643	n/a	LTP096	ltpFR	4	1	n/a	PEDESTRIAN	1038	1	n/a	n/a	n/a	n/a	n/a	n/a	n/a
5585.826	n/a	RECOG_CONF	2792913	n/a	LTP096	ltpFR	4	1	n/a	PEDESTRIAN	1038	n/a	4	n/a	n/a	n/a	n/a	n/a	n/a
5587.252	n/a	RECOG_TARGET	2793626	n/a	LTP096	ltpFR	4	1	0	DECK	443	0	1	2	n/a	n/a	n/a	n/a	n/a
5588.08	n/a	RECOG_RESP	2794040	n/a	LTP096	ltpFR	4	1	0	DECK	443	0	n/a	2	n/a	n/a	n/a	n/a	n/a
5588.668	n/a	RECOG_CONF	2794334	n/a	LTP096	ltpFR	4	1	0	DECK	443	n/a	1	2	n/a	n/a	n/a	n/a	n/a
5602.116	n/a	REC_START	2801058	n/a	LTP096	ltpFR	4	2	n/a	n/a	n/a	n/a	n/a	n/a	n/a	n/a	n/a	n/a	n/a
5602.142	n/a	RECOG_TARGET	2801071	n/a	LTP096	ltpFR	4	2	0	EMERALD	528	1	5	0	n/a	n/a	n/a	n/a	n/a
5602.694	n/a	RECOG_RESP_VV	2801347	n/a	LTP096	ltpFR	4	2	0	EMERALD	528	1	n/a	0	n/a	n/a	n/a	n/a	n/a
5603.158	n/a	RECOG_RESP_VV	2801579	n/a	LTP096	ltpFR	4	2	0	EMERALD	528	n/a	5	0	n/a	n/a	n/a	n/a	n/a
5604.05	n/a	RECOG_RESP	2802025	n/a	LTP096	ltpFR	4	2	0	EMERALD	528	1	n/a	0	n/a	n/a	n/a	n/a	n/a
5604.564	n/a	RECOG_CONF	2802282	n/a	LTP096	ltpFR	4	2	0	EMERALD	528	n/a	5	0	n/a	n/a	n/a	n/a	n/a
5605.632	n/a	RECOG_TARGET	2802816	n/a	LTP096	ltpFR	4	2	-1	JACKET	747	1	1	-1	n/a	n/a	n/a	n/a	n/a
5606.51	n/a	RECOG_RESP	2803255	n/a	LTP096	ltpFR	4	2	-1	JACKET	747	1	n/a	-1	n/a	n/a	n/a	n/a	n/a
5607.04	n/a	RECOG_CONF	2803520	n/a	LTP096	ltpFR	4	2	-1	JACKET	747	n/a	1	-1	n/a	n/a	n/a	n/a	n/a
5608.444	n/a	RECOG_TARGET	2804222	n/a	LTP096	ltpFR	4	2	1	DIRT	472	1	1	0	n/a	n/a	n/a	n/a	n/a
5609.014	n/a	RECOG_RESP	2804507	n/a	LTP096	ltpFR	4	2	1	DIRT	472	1	n/a	0	n/a	n/a	n/a	n/a	n/a
5609.544	n/a	RECOG_CONF	2804772	n/a	LTP096	ltpFR	4	2	1	DIRT	472	n/a	1	0	n/a	n/a	n/a	n/a	n/a
5611.016	n/a	RECOG_TARGET	2805508	n/a	LTP096	ltpFR	4	2	0	TYPIST	1532	1	1	0	n/a	n/a	n/a	n/a	n/a
5611.588	n/a	RECOG_RESP	2805794	n/a	LTP096	ltpFR	4	2	0	TYPIST	1532	1	n/a	0	n/a	n/a	n/a	n/a	n/a
5612.128	n/a	RECOG_CONF	2806064	n/a	LTP096	ltpFR	4	2	0	TYPIST	1532	n/a	1	0	n/a	n/a	n/a	n/a	n/a
5613.498	n/a	RECOG_TARGET	2806749	n/a	LTP096	ltpFR	4	2	1	COTTAGE	384	0	2	0	n/a	n/a	n/a	n/a	n/a
5614.124	n/a	RECOG_RESP	2807062	n/a	LTP096	ltpFR	4	2	1	COTTAGE	384	0	n/a	0	n/a	n/a	n/a	n/a	n/a
5614.882	n/a	RECOG_CONF	2807441	n/a	LTP096	ltpFR	4	2	1	COTTAGE	384	n/a	2	0	n/a	n/a	n/a	n/a	n/a
5616.286	n/a	RECOG_LURE	2808143	n/a	LTP096	ltpFR	4	2	n/a	BREAST	171	1	1	n/a	n/a	n/a	n/a	n/a	n/a
5616.748	n/a	RECOG_RESP	2808374	n/a	LTP096	ltpFR	4	2	n/a	BREAST	171	1	n/a	n/a	n/a	n/a	n/a	n/a	n/a
5617.316	n/a	RECOG_CONF	2808658	n/a	LTP096	ltpFR	4	2	n/a	BREAST	171	n/a	1	n/a	n/a	n/a	n/a	n/a	n/a
5618.708	n/a	RECOG_TARGET	2809354	n/a	LTP096	ltpFR	4	2	0	BED	110	1	1	n/a	n/a	n/a	n/a	n/a	n/a
5619.162	n/a	RECOG_RESP	2809581	n/a	LTP096	ltpFR	4	2	0	BED	110	1	n/a	n/a	n/a	n/a	n/a	n/a	n/a
5619.68	n/a	RECOG_CONF	2809840	n/a	LTP096	ltpFR	4	2	0	BED	110	n/a	1	n/a	n/a	n/a	n/a	n/a	n/a
5620.988	n/a	RECOG_LURE	2810494	n/a	LTP096	ltpFR	4	2	n/a	OWL	992	0	2	n/a	n/a	n/a	n/a	n/a	n/a
5621.706	n/a	RECOG_RESP	2810853	n/a	LTP096	ltpFR	4	2	n/a	OWL	992	0	n/a	n/a	n/a	n/a	n/a	n/a	n/a
5622.584	n/a	RECOG_CONF	2811292	n/a	LTP096	ltpFR	4	2	n/a	OWL	992	n/a	2	n/a	n/a	n/a	n/a	n/a	n/a
5623.886	n/a	RECOG_TARGET	2811943	n/a	LTP096	ltpFR	4	2	0	MATCH	878	1	1	1	n/a	n/a	n/a	n/a	n/a
5624.55	n/a	RECOG_RESP	2812275	n/a	LTP096	ltpFR	4	2	0	MATCH	878	1	n/a	1	n/a	n/a	n/a	n/a	n/a
5625.118	n/a	RECOG_CONF	2812559	n/a	LTP096	ltpFR	4	2	0	MATCH	878	n/a	1	1	n/a	n/a	n/a	n/a	n/a
5626.458	n/a	RECOG_TARGET	2813229	n/a	LTP096	ltpFR	4	2	-1	HAM	678	1	2	-1	n/a	n/a	n/a	n/a	n/a
5627.512	n/a	RECOG_RESP	2813756	n/a	LTP096	ltpFR	4	2	-1	HAM	678	1	n/a	-1	n/a	n/a	n/a	n/a	n/a
5628.122	n/a	RECOG_CONF	2814061	n/a	LTP096	ltpFR	4	2	-1	HAM	678	n/a	2	-1	n/a	n/a	n/a	n/a	n/a
5629.462	n/a	RECOG_LURE	2814731	n/a	LTP096	ltpFR	4	2	n/a	QUARTER	1148	1	1	n/a	n/a	n/a	n/a	n/a	n/a
5630.178	n/a	RECOG_RESP	2815089	n/a	LTP096	ltpFR	4	2	n/a	QUARTER	1148	1	n/a	n/a	n/a	n/a	n/a	n/a	n/a
5630.886	n/a	RECOG_CONF	2815443	n/a	LTP096	ltpFR	4	2	n/a	QUARTER	1148	n/a	1	n/a	n/a	n/a	n/a	n/a	n/a
5632.302	n/a	RECOG_LURE	2816151	n/a	LTP096	ltpFR	4	2	n/a	BOOTH	151	1	1	n/a	n/a	n/a	n/a	n/a	n/a
5633.11	n/a	RECOG_RESP	2816555	n/a	LTP096	ltpFR	4	2	n/a	BOOTH	151	1	n/a	n/a	n/a	n/a	n/a	n/a	n/a
5633.69	n/a	RECOG_CONF	2816845	n/a	LTP096	ltpFR	4	2	n/a	BOOTH	151	n/a	1	n/a	n/a	n/a	n/a	n/a	n/a
5635.082	n/a	RECOG_TARGET	2817541	n/a	LTP096	ltpFR	4	2	0	CARNIVAL	245	0	1	1	n/a	n/a	n/a	n/a	n/a
5635.516	n/a	RECOG_RESP	2817758	n/a	LTP096	ltpFR	4	2	0	CARNIVAL	245	0	n/a	1	n/a	n/a	n/a	n/a	n/a
5636.064	n/a	RECOG_CONF	2818032	n/a	LTP096	ltpFR	4	2	0	CARNIVAL	245	n/a	1	1	n/a	n/a	n/a	n/a	n/a
5637.496	n/a	RECOG_TARGET	2818748	n/a	LTP096	ltpFR	4	2	-1	CORD	379	0	3	-1	n/a	n/a	n/a	n/a	n/a
5640.274	n/a	RECOG_RESP	2820137	n/a	LTP096	ltpFR	4	2	-1	CORD	379	0	n/a	-1	n/a	n/a	n/a	n/a	n/a
5641.312	n/a	RECOG_CONF	2820656	n/a	LTP096	ltpFR	4	2	-1	CORD	379	n/a	3	-1	n/a	n/a	n/a	n/a	n/a
5642.656	n/a	RECOG_TARGET	2821328	n/a	LTP096	ltpFR	4	2	-1	GUM	672	1	4	-1	n/a	n/a	n/a	n/a	n/a
5643.518	n/a	RECOG_RESP	2821759	n/a	LTP096	ltpFR	4	2	-1	GUM	672	1	n/a	-1	n/a	n/a	n/a	n/a	n/a
5644.624	n/a	RECOG_CONF	2822312	n/a	LTP096	ltpFR	4	2	-1	GUM	672	n/a	4	-1	n/a	n/a	n/a	n/a	n/a
5645.928	n/a	RECOG_TARGET	2822964	n/a	LTP096	ltpFR	4	2	1	DUSTPAN	509	1	4	2	n/a	n/a	n/a	n/a	n/a
5646.7	n/a	RECOG_RESP	2823350	n/a	LTP096	ltpFR	4	2	1	DUSTPAN	509	1	n/a	2	n/a	n/a	n/a	n/a	n/a
5647.388	n/a	RECOG_CONF	2823694	n/a	LTP096	ltpFR	4	2	1	DUSTPAN	509	n/a	4	2	n/a	n/a	n/a	n/a	n/a
5648.674	n/a	RECOG_TARGET	2824337	n/a	LTP096	ltpFR	4	2	1	STAGE	1366	1	2	1	n/a	n/a	n/a	n/a	n/a
5649.374	n/a	RECOG_RESP	2824687	n/a	LTP096	ltpFR	4	2	1	STAGE	1366	1	n/a	1	n/a	n/a	n/a	n/a	n/a
5650.202	n/a	RECOG_CONF	2825101	n/a	LTP096	ltpFR	4	2	1	STAGE	1366	n/a	2	1	n/a	n/a	n/a	n/a	n/a
5651.58	n/a	RECOG_LURE	2825790	n/a	LTP096	ltpFR	4	2	n/a	MOUSE	925	1	1	n/a	n/a	n/a	n/a	n/a	n/a
5652.138	n/a	RECOG_RESP	2826069	n/a	LTP096	ltpFR	4	2	n/a	MOUSE	925	1	n/a	n/a	n/a	n/a	n/a	n/a	n/a
5652.776	n/a	RECOG_CONF	2826388	n/a	LTP096	ltpFR	4	2	n/a	MOUSE	925	n/a	1	n/a	n/a	n/a	n/a	n/a	n/a
5654.11	n/a	RECOG_TARGET	2827055	n/a	LTP096	ltpFR	4	2	0	LEG	809	0	1	0	n/a	n/a	n/a	n/a	n/a
5654.652	n/a	RECOG_RESP	2827326	n/a	LTP096	ltpFR	4	2	0	LEG	809	0	n/a	0	n/a	n/a	n/a	n/a	n/a
5655.2	n/a	RECOG_CONF	2827600	n/a	LTP096	ltpFR	4	2	0	LEG	809	n/a	1	0	n/a	n/a	n/a	n/a	n/a
5656.64	n/a	RECOG_LURE	2828320	n/a	LTP096	ltpFR	4	2	n/a	BIKE	125	1	1	n/a	n/a	n/a	n/a	n/a	n/a
5657.196	n/a	RECOG_RESP	2828598	n/a	LTP096	ltpFR	4	2	n/a	BIKE	125	1	n/a	n/a	n/a	n/a	n/a	n/a	n/a
5658.354	n/a	RECOG_CONF	2829177	n/a	LTP096	ltpFR	4	2	n/a	BIKE	125	n/a	1	n/a	n/a	n/a	n/a	n/a	n/a
5664.094	n/a	REC_START	2832047	n/a	LTP096	ltpFR	4	3	n/a	n/a	n/a	n/a	n/a	n/a	n/a	n/a	n/a	n/a	n/a
5664.122	n/a	RECOG_TARGET	2832061	n/a	LTP096	ltpFR	4	3	1	PLANT	1083	1	1	0	n/a	n/a	n/a	n/a	n/a
5664.746	n/a	RECOG_RESP	2832373	n/a	LTP096	ltpFR	4	3	1	PLANT	1083	1	n/a	0	n/a	n/a	n/a	n/a	n/a
5665.336	n/a	RECOG_CONF	2832668	n/a	LTP096	ltpFR	4	3	1	PLANT	1083	n/a	1	0	n/a	n/a	n/a	n/a	n/a
5666.704	n/a	RECOG_TARGET	2833352	n/a	LTP096	ltpFR	4	3	0	SCROLL	1257	1	5	0	n/a	n/a	n/a	n/a	n/a
5667.37	n/a	RECOG_RESP	2833685	n/a	LTP096	ltpFR	4	3	0	SCROLL	1257	1	n/a	0	n/a	n/a	n/a	n/a	n/a
5667.91	n/a	RECOG_CONF	2833955	n/a	LTP096	ltpFR	4	3	0	SCROLL	1257	n/a	5	0	n/a	n/a	n/a	n/a	n/a
5669.116	n/a	RECOG_TARGET	2834558	n/a	LTP096	ltpFR	4	3	-1	CHIPMUNK	304	1	2	-1	n/a	n/a	n/a	n/a	n/a
5671.112	n/a	RECOG_RESP	2835556	n/a	LTP096	ltpFR	4	3	-1	CHIPMUNK	304	1	n/a	-1	n/a	n/a	n/a	n/a	n/a
5672.29	n/a	RECOG_CONF	2836145	n/a	LTP096	ltpFR	4	3	-1	CHIPMUNK	304	n/a	2	-1	n/a	n/a	n/a	n/a	n/a
5673.704	n/a	RECOG_TARGET	2836852	n/a	LTP096	ltpFR	4	3	1	CUE	422	1	2	0	n/a	n/a	n/a	n/a	n/a
5674.65	n/a	RECOG_RESP	2837325	n/a	LTP096	ltpFR	4	3	1	CUE	422	1	n/a	0	n/a	n/a	n/a	n/a	n/a
5676.32	n/a	RECOG_CONF	2838160	n/a	LTP096	ltpFR	4	3	1	CUE	422	n/a	2	0	n/a	n/a	n/a	n/a	n/a
5677.706	n/a	RECOG_TARGET	2838853	n/a	LTP096	ltpFR	4	3	-1	MAILMAN	858	1	5	-1	n/a	n/a	n/a	n/a	n/a
5678.346	n/a	RECOG_RESP	2839173	n/a	LTP096	ltpFR	4	3	-1	MAILMAN	858	1	n/a	-1	n/a	n/a	n/a	n/a	n/a
5678.854	n/a	RECOG_CONF	2839427	n/a	LTP096	ltpFR	4	3	-1	MAILMAN	858	n/a	5	-1	n/a	n/a	n/a	n/a	n/a
5680.204	n/a	RECOG_TARGET	2840102	n/a	LTP096	ltpFR	4	3	1	KID	775	1	1	n/a	n/a	n/a	n/a	n/a	n/a
5681.034	n/a	RECOG_RESP	2840517	n/a	LTP096	ltpFR	4	3	1	KID	775	1	n/a	n/a	n/a	n/a	n/a	n/a	n/a
5681.558	n/a	RECOG_CONF	2840779	n/a	LTP096	ltpFR	4	3	1	KID	775	n/a	1	n/a	n/a	n/a	n/a	n/a	n/a
5682.868	n/a	RECOG_TARGET	2841434	n/a	LTP096	ltpFR	4	3	-1	PUDDING	1139	1	5	-1	n/a	n/a	n/a	n/a	n/a
5683.598	n/a	RECOG_RESP	2841799	n/a	LTP096	ltpFR	4	3	-1	PUDDING	1139	1	n/a	-1	n/a	n/a	n/a	n/a	n/a
5684.072	n/a	RECOG_CONF	2842036	n/a	LTP096	ltpFR	4	3	-1	PUDDING	1139	n/a	5	-1	n/a	n/a	n/a	n/a	n/a
5685.432	n/a	RECOG_TARGET	2842716	n/a	LTP096	ltpFR	4	3	-1	CHECK	284	1	3	-1	n/a	n/a	n/a	n/a	n/a
5686.058	n/a	RECOG_RESP	2843029	n/a	LTP096	ltpFR	4	3	-1	CHECK	284	1	n/a	-1	n/a	n/a	n/a	n/a	n/a
5686.836	n/a	RECOG_CONF	2843418	n/a	LTP096	ltpFR	4	3	-1	CHECK	284	n/a	3	-1	n/a	n/a	n/a	n/a	n/a
5688.086	n/a	RECOG_TARGET	2844043	n/a	LTP096	ltpFR	4	3	1	UNIVERSE	1540	1	2	0	n/a	n/a	n/a	n/a	n/a
5688.712	n/a	RECOG_RESP	2844356	n/a	LTP096	ltpFR	4	3	1	UNIVERSE	1540	1	n/a	0	n/a	n/a	n/a	n/a	n/a
5689.37	n/a	RECOG_CONF	2844685	n/a	LTP096	ltpFR	4	3	1	UNIVERSE	1540	n/a	2	0	n/a	n/a	n/a	n/a	n/a
5690.734	n/a	RECOG_TARGET	2845367	n/a	LTP096	ltpFR	4	3	-1	RAFT	1159	1	2	-1	n/a	n/a	n/a	n/a	n/a
5691.396	n/a	RECOG_RESP	2845698	n/a	LTP096	ltpFR	4	3	-1	RAFT	1159	1	n/a	-1	n/a	n/a	n/a	n/a	n/a
5692.184	n/a	RECOG_CONF	2846092	n/a	LTP096	ltpFR	4	3	-1	RAFT	1159	n/a	2	-1	n/a	n/a	n/a	n/a	n/a
5693.53	n/a	RECOG_TARGET	2846765	n/a	LTP096	ltpFR	4	3	1	GERM	632	1	4	0	n/a	n/a	n/a	n/a	n/a
5694.13	n/a	RECOG_RESP	2847065	n/a	LTP096	ltpFR	4	3	1	GERM	632	1	n/a	0	n/a	n/a	n/a	n/a	n/a
5694.668	n/a	RECOG_CONF	2847334	n/a	LTP096	ltpFR	4	3	1	GERM	632	n/a	4	0	n/a	n/a	n/a	n/a	n/a
5696.11	n/a	RECOG_TARGET	2848055	n/a	LTP096	ltpFR	4	3	-1	CLIMBER	323	1	5	-1	n/a	n/a	n/a	n/a	n/a
5696.754	n/a	RECOG_RESP	2848377	n/a	LTP096	ltpFR	4	3	-1	CLIMBER	323	1	n/a	-1	n/a	n/a	n/a	n/a	n/a
5697.234	n/a	RECOG_CONF	2848617	n/a	LTP096	ltpFR	4	3	-1	CLIMBER	323	n/a	5	-1	n/a	n/a	n/a	n/a	n/a
5698.616	n/a	RECOG_TARGET	2849308	n/a	LTP096	ltpFR	4	3	1	SUBURB	1399	1	7	0	n/a	n/a	n/a	n/a	n/a
5699.238	n/a	RECOG_RESP	2849619	n/a	LTP096	ltpFR	4	3	1	SUBURB	1399	1	n/a	0	n/a	n/a	n/a	n/a	n/a
5699.708	n/a	RECOG_CONF	2849854	n/a	LTP096	ltpFR	4	3	1	SUBURB	1399	n/a	7	0	n/a	n/a	n/a	n/a	n/a
5701.17	n/a	RECOG_TARGET	2850585	n/a	LTP096	ltpFR	4	3	-1	MONUMENT	913	1	3	-1	n/a	n/a	n/a	n/a	n/a
5701.658	n/a	RECOG_RESP_VV	2850829	n/a	LTP096	ltpFR	4	3	-1	MONUMENT	913	n/a	4	-1	n/a	n/a	n/a	n/a	n/a
5706.384	n/a	RECOG_RESP	2853192	n/a	LTP096	ltpFR	4	3	-1	MONUMENT	913	1	n/a	-1	n/a	n/a	n/a	n/a	n/a
5707.122	n/a	RECOG_CONF	2853561	n/a	LTP096	ltpFR	4	3	-1	MONUMENT	913	n/a	3	-1	n/a	n/a	n/a	n/a	n/a
5708.564	n/a	RECOG_TARGET	2854282	n/a	LTP096	ltpFR	4	3	0	FLIPPER	580	0	2	n/a	n/a	n/a	n/a	n/a	n/a
5709.716	n/a	RECOG_RESP	2854858	n/a	LTP096	ltpFR	4	3	0	FLIPPER	580	0	n/a	n/a	n/a	n/a	n/a	n/a	n/a
5710.514	n/a	RECOG_CONF	2855257	n/a	LTP096	ltpFR	4	3	0	FLIPPER	580	n/a	2	n/a	n/a	n/a	n/a	n/a	n/a
5711.834	n/a	RECOG_TARGET	2855917	n/a	LTP096	ltpFR	4	3	0	FLEA	577	1	5	0	n/a	n/a	n/a	n/a	n/a
5712.28	n/a	RECOG_RESP	2856140	n/a	LTP096	ltpFR	4	3	0	FLEA	577	1	n/a	0	n/a	n/a	n/a	n/a	n/a
5712.838	n/a	RECOG_CONF	2856419	n/a	LTP096	ltpFR	4	3	0	FLEA	577	n/a	5	0	n/a	n/a	n/a	n/a	n/a
5714.156	n/a	RECOG_TARGET	2857078	n/a	LTP096	ltpFR	4	3	1	WHALE	1601	1	3	1	n/a	n/a	n/a	n/a	n/a
5714.884	n/a	RECOG_RESP	2857442	n/a	LTP096	ltpFR	4	3	1	WHALE	1601	1	n/a	1	n/a	n/a	n/a	n/a	n/a
5715.572	n/a	RECOG_CONF	2857786	n/a	LTP096	ltpFR	4	3	1	WHALE	1601	n/a	3	1	n/a	n/a	n/a	n/a	n/a
5716.938	n/a	RECOG_TARGET	2858469	n/a	LTP096	ltpFR	4	3	1	CHEERLEADER	288	1	5	1	n/a	n/a	n/a	n/a	n/a
5717.558	n/a	RECOG_RESP	2858779	n/a	LTP096	ltpFR	4	3	1	CHEERLEADER	288	1	n/a	1	n/a	n/a	n/a	n/a	n/a
5718.136	n/a	RECOG_CONF	2859068	n/a	LTP096	ltpFR	4	3	1	CHEERLEADER	288	n/a	5	1	n/a	n/a	n/a	n/a	n/a
5719.492	n/a	RECOG_LURE	2859746	n/a	LTP096	ltpFR	4	3	n/a	MICROWAVE	892	1	4	n/a	n/a	n/a	n/a	n/a	n/a
5720.052	n/a	RECOG_RESP	2860026	n/a	LTP096	ltpFR	4	3	n/a	MICROWAVE	892	1	n/a	n/a	n/a	n/a	n/a	n/a	n/a
5720.56	n/a	RECOG_CONF	2860280	n/a	LTP096	ltpFR	4	3	n/a	MICROWAVE	892	n/a	4	n/a	n/a	n/a	n/a	n/a	n/a
5721.866	n/a	RECOG_TARGET	2860933	n/a	LTP096	ltpFR	4	3	0	PORCUPINE	1107	1	5	0	n/a	n/a	n/a	n/a	n/a
5722.506	n/a	RECOG_RESP	2861253	n/a	LTP096	ltpFR	4	3	0	PORCUPINE	1107	1	n/a	0	n/a	n/a	n/a	n/a	n/a
5723.086	n/a	RECOG_CONF	2861543	n/a	LTP096	ltpFR	4	3	0	PORCUPINE	1107	n/a	5	0	n/a	n/a	n/a	n/a	n/a
5725.822	n/a	REC_START	2862911	n/a	LTP096	ltpFR	4	4	n/a	n/a	n/a	n/a	n/a	n/a	n/a	n/a	n/a	n/a	n/a
5725.844	n/a	RECOG_TARGET	2862922	n/a	LTP096	ltpFR	4	4	-1	ANT	25	1	5	-1	n/a	n/a	n/a	n/a	n/a
5726.884	n/a	RECOG_RESP	2863442	n/a	LTP096	ltpFR	4	4	-1	ANT	25	1	n/a	-1	n/a	n/a	n/a	n/a	n/a
5727.422	n/a	RECOG_CONF	2863711	n/a	LTP096	ltpFR	4	4	-1	ANT	25	n/a	5	-1	n/a	n/a	n/a	n/a	n/a
5728.824	n/a	RECOG_TARGET	2864412	n/a	LTP096	ltpFR	4	4	0	COW	393	1	5	1	n/a	n/a	n/a	n/a	n/a
5729.358	n/a	RECOG_RESP	2864679	n/a	LTP096	ltpFR	4	4	0	COW	393	1	n/a	1	n/a	n/a	n/a	n/a	n/a
5729.838	n/a	RECOG_CONF	2864919	n/a	LTP096	ltpFR	4	4	0	COW	393	n/a	5	1	n/a	n/a	n/a	n/a	n/a
5731.254	n/a	RECOG_TARGET	2865627	n/a	LTP096	ltpFR	4	4	1	HEN	703	1	3	1	n/a	n/a	n/a	n/a	n/a
5731.772	n/a	RECOG_RESP	2865886	n/a	LTP096	ltpFR	4	4	1	HEN	703	1	n/a	1	n/a	n/a	n/a	n/a	n/a
5732.372	n/a	RECOG_CONF	2866186	n/a	LTP096	ltpFR	4	4	1	HEN	703	n/a	3	1	n/a	n/a	n/a	n/a	n/a
5733.71	n/a	RECOG_LURE	2866855	n/a	LTP096	ltpFR	4	4	n/a	PERMIT	1051	1	4	n/a	n/a	n/a	n/a	n/a	n/a
5734.132	n/a	RECOG_RESP	2867066	n/a	LTP096	ltpFR	4	4	n/a	PERMIT	1051	1	n/a	n/a	n/a	n/a	n/a	n/a	n/a
5734.696	n/a	RECOG_CONF	2867348	n/a	LTP096	ltpFR	4	4	n/a	PERMIT	1051	n/a	4	n/a	n/a	n/a	n/a	n/a	n/a
5736.256	n/a	RECOG_TARGET	2868128	n/a	LTP096	ltpFR	4	4	0	INFANT	737	0	1	0	n/a	n/a	n/a	n/a	n/a
5736.98	n/a	RECOG_RESP	2868490	n/a	LTP096	ltpFR	4	4	0	INFANT	737	0	n/a	0	n/a	n/a	n/a	n/a	n/a
5737.51	n/a	RECOG_CONF	2868755	n/a	LTP096	ltpFR	4	4	0	INFANT	737	n/a	1	0	n/a	n/a	n/a	n/a	n/a
5739.004	n/a	RECOG_TARGET	2869502	n/a	LTP096	ltpFR	4	4	1	SLEEVE	1324	1	4	0	n/a	n/a	n/a	n/a	n/a
5739.456	n/a	RECOG_RESP	2869728	n/a	LTP096	ltpFR	4	4	1	SLEEVE	1324	1	n/a	0	n/a	n/a	n/a	n/a	n/a
5739.974	n/a	RECOG_CONF	2869987	n/a	LTP096	ltpFR	4	4	1	SLEEVE	1324	n/a	4	0	n/a	n/a	n/a	n/a	n/a
5741.3	n/a	RECOG_TARGET	2870650	n/a	LTP096	ltpFR	4	4	0	ARROW	40	1	2	0	n/a	n/a	n/a	n/a	n/a
5741.81	n/a	RECOG_RESP	2870905	n/a	LTP096	ltpFR	4	4	0	ARROW	40	1	n/a	0	n/a	n/a	n/a	n/a	n/a
5742.378	n/a	RECOG_CONF	2871189	n/a	LTP096	ltpFR	4	4	0	ARROW	40	n/a	2	0	n/a	n/a	n/a	n/a	n/a
5743.84	n/a	RECOG_TARGET	2871920	n/a	LTP096	ltpFR	4	4	-1	BALL	73	1	1	-1	n/a	n/a	n/a	n/a	n/a
5744.314	n/a	RECOG_RESP	2872157	n/a	LTP096	ltpFR	4	4	-1	BALL	73	1	n/a	-1	n/a	n/a	n/a	n/a	n/a
5744.854	n/a	RECOG_CONF	2872427	n/a	LTP096	ltpFR	4	4	-1	BALL	73	n/a	1	-1	n/a	n/a	n/a	n/a	n/a
5746.246	n/a	RECOG_TARGET	2873123	n/a	LTP096	ltpFR	4	4	0	YARD	1630	1	4	0	n/a	n/a	n/a	n/a	n/a
5746.738	n/a	RECOG_RESP	2873369	n/a	LTP096	ltpFR	4	4	0	YARD	1630	1	n/a	0	n/a	n/a	n/a	n/a	n/a
5747.248	n/a	RECOG_CONF	2873624	n/a	LTP096	ltpFR	4	4	0	YARD	1630	n/a	4	0	n/a	n/a	n/a	n/a	n/a
5748.634	n/a	RECOG_TARGET	2874317	n/a	LTP096	ltpFR	4	4	0	PAIL	1002	1	4	0	n/a	n/a	n/a	n/a	n/a
5749.174	n/a	RECOG_RESP	2874587	n/a	LTP096	ltpFR	4	4	0	PAIL	1002	1	n/a	0	n/a	n/a	n/a	n/a	n/a
5749.642	n/a	RECOG_CONF	2874821	n/a	LTP096	ltpFR	4	4	0	PAIL	1002	n/a	4	0	n/a	n/a	n/a	n/a	n/a
5751.122	n/a	RECOG_TARGET	2875561	n/a	LTP096	ltpFR	4	4	0	MEAL	882	1	4	0	n/a	n/a	n/a	n/a	n/a
5751.598	n/a	RECOG_RESP	2875799	n/a	LTP096	ltpFR	4	4	0	MEAL	882	1	n/a	0	n/a	n/a	n/a	n/a	n/a
5752.096	n/a	RECOG_CONF	2876048	n/a	LTP096	ltpFR	4	4	0	MEAL	882	n/a	4	0	n/a	n/a	n/a	n/a	n/a
5753.612	n/a	RECOG_TARGET	2876806	n/a	LTP096	ltpFR	4	4	1	HANDKERCHIEF	686	1	5	0	n/a	n/a	n/a	n/a	n/a
5754.552	n/a	RECOG_RESP	2877276	n/a	LTP096	ltpFR	4	4	1	HANDKERCHIEF	686	1	n/a	0	n/a	n/a	n/a	n/a	n/a
5755.07	n/a	RECOG_CONF	2877535	n/a	LTP096	ltpFR	4	4	1	HANDKERCHIEF	686	n/a	5	0	n/a	n/a	n/a	n/a	n/a
5756.574	n/a	RECOG_LURE	2878287	n/a	LTP096	ltpFR	4	4	n/a	COMMITTEE	355	1	2	n/a	n/a	n/a	n/a	n/a	n/a
5757.204	n/a	RECOG_RESP	2878602	n/a	LTP096	ltpFR	4	4	n/a	COMMITTEE	355	1	n/a	n/a	n/a	n/a	n/a	n/a	n/a
5758.102	n/a	RECOG_CONF	2879051	n/a	LTP096	ltpFR	4	4	n/a	COMMITTEE	355	n/a	2	n/a	n/a	n/a	n/a	n/a	n/a
5759.504	n/a	RECOG_LURE	2879752	n/a	LTP096	ltpFR	4	4	n/a	FUNGUS	614	0	1	n/a	n/a	n/a	n/a	n/a	n/a
5760.578	n/a	RECOG_RESP	2880289	n/a	LTP096	ltpFR	4	4	n/a	FUNGUS	614	0	n/a	n/a	n/a	n/a	n/a	n/a	n/a
5761.266	n/a	RECOG_CONF	2880633	n/a	LTP096	ltpFR	4	4	n/a	FUNGUS	614	n/a	1	n/a	n/a	n/a	n/a	n/a	n/a
5762.61	n/a	RECOG_TARGET	2881305	n/a	LTP096	ltpFR	4	4	0	BLACKBERRY	132	1	5	0	n/a	n/a	n/a	n/a	n/a
5763.342	n/a	RECOG_RESP	2881671	n/a	LTP096	ltpFR	4	4	0	BLACKBERRY	132	1	n/a	0	n/a	n/a	n/a	n/a	n/a
5763.92	n/a	RECOG_CONF	2881960	n/a	LTP096	ltpFR	4	4	0	BLACKBERRY	132	n/a	5	0	n/a	n/a	n/a	n/a	n/a
5765.282	n/a	RECOG_LURE	2882641	n/a	LTP096	ltpFR	4	4	n/a	COSTUME	383	1	2	n/a	n/a	n/a	n/a	n/a	n/a
5765.976	n/a	RECOG_RESP	2882988	n/a	LTP096	ltpFR	4	4	n/a	COSTUME	383	1	n/a	n/a	n/a	n/a	n/a	n/a	n/a
5766.524	n/a	RECOG_CONF	2883262	n/a	LTP096	ltpFR	4	4	n/a	COSTUME	383	n/a	2	n/a	n/a	n/a	n/a	n/a	n/a
5767.878	n/a	RECOG_TARGET	2883939	n/a	LTP096	ltpFR	4	4	1	SHOVEL	1295	0	1	0	n/a	n/a	n/a	n/a	n/a
5768.53	n/a	RECOG_RESP	2884265	n/a	LTP096	ltpFR	4	4	1	SHOVEL	1295	0	n/a	0	n/a	n/a	n/a	n/a	n/a
5769.038	n/a	RECOG_CONF	2884519	n/a	LTP096	ltpFR	4	4	1	SHOVEL	1295	n/a	1	0	n/a	n/a	n/a	n/a	n/a
5770.376	n/a	RECOG_TARGET	2885188	n/a	LTP096	ltpFR	4	4	0	CHILD	299	1	2	1	n/a	n/a	n/a	n/a	n/a
5770.924	n/a	RECOG_RESP	2885462	n/a	LTP096	ltpFR	4	4	0	CHILD	299	1	n/a	1	n/a	n/a	n/a	n/a	n/a
5771.502	n/a	RECOG_CONF	2885751	n/a	LTP096	ltpFR	4	4	0	CHILD	299	n/a	2	1	n/a	n/a	n/a	n/a	n/a
5772.922	n/a	RECOG_TARGET	2886461	n/a	LTP096	ltpFR	4	4	1	SARDINE	1235	1	4	1	n/a	n/a	n/a	n/a	n/a
5773.488	n/a	RECOG_RESP	2886744	n/a	LTP096	ltpFR	4	4	1	SARDINE	1235	1	n/a	1	n/a	n/a	n/a	n/a	n/a
5774.036	n/a	RECOG_CONF	2887018	n/a	LTP096	ltpFR	4	4	1	SARDINE	1235	n/a	4	1	n/a	n/a	n/a	n/a	n/a
5775.47	n/a	RECOG_LURE	2887735	n/a	LTP096	ltpFR	4	4	n/a	BRACELET	163	1	4	n/a	n/a	n/a	n/a	n/a	n/a
5776.044	n/a	RECOG_RESP	2888022	n/a	LTP096	ltpFR	4	4	n/a	BRACELET	163	1	n/a	n/a	n/a	n/a	n/a	n/a	n/a
5776.562	n/a	RECOG_CONF	2888281	n/a	LTP096	ltpFR	4	4	n/a	BRACELET	163	n/a	4	n/a	n/a	n/a	n/a	n/a	n/a
5779.626	n/a	REC_START	2889813	n/a	LTP096	ltpFR	4	5	n/a	n/a	n/a	n/a	n/a	n/a	n/a	n/a	n/a	n/a	n/a
5779.648	n/a	RECOG_TARGET	2889824	n/a	LTP096	ltpFR	4	5	1	WHIP	1604	1	5	0	n/a	n/a	n/a	n/a	n/a
5780.418	n/a	RECOG_RESP	2890209	n/a	LTP096	ltpFR	4	5	1	WHIP	1604	1	n/a	0	n/a	n/a	n/a	n/a	n/a
5780.928	n/a	RECOG_CONF	2890464	n/a	LTP096	ltpFR	4	5	1	WHIP	1604	n/a	5	0	n/a	n/a	n/a	n/a	n/a
5782.296	n/a	RECOG_TARGET	2891148	n/a	LTP096	ltpFR	4	5	0	CREW	406	1	3	n/a	n/a	n/a	n/a	n/a	n/a
5782.754	n/a	RECOG_RESP	2891377	n/a	LTP096	ltpFR	4	5	0	CREW	406	1	n/a	n/a	n/a	n/a	n/a	n/a	n/a
5783.282	n/a	RECOG_CONF	2891641	n/a	LTP096	ltpFR	4	5	0	CREW	406	n/a	3	n/a	n/a	n/a	n/a	n/a	n/a
5784.634	n/a	RECOG_TARGET	2892317	n/a	LTP096	ltpFR	4	5	1	FRIES	607	1	2	0	n/a	n/a	n/a	n/a	n/a
5785.118	n/a	RECOG_RESP	2892559	n/a	LTP096	ltpFR	4	5	1	FRIES	607	1	n/a	0	n/a	n/a	n/a	n/a	n/a
5785.626	n/a	RECOG_CONF	2892813	n/a	LTP096	ltpFR	4	5	1	FRIES	607	n/a	2	0	n/a	n/a	n/a	n/a	n/a
5787.074	n/a	RECOG_TARGET	2893537	n/a	LTP096	ltpFR	4	5	0	SOCKET	1340	1	4	0	n/a	n/a	n/a	n/a	n/a
5787.512	n/a	RECOG_RESP	2893756	n/a	LTP096	ltpFR	4	5	0	SOCKET	1340	1	n/a	0	n/a	n/a	n/a	n/a	n/a
5788.002	n/a	RECOG_CONF	2894001	n/a	LTP096	ltpFR	4	5	0	SOCKET	1340	n/a	4	0	n/a	n/a	n/a	n/a	n/a
5789.346	n/a	RECOG_LURE	2894673	n/a	LTP096	ltpFR	4	5	n/a	SHELTER	1282	1	4	n/a	n/a	n/a	n/a	n/a	n/a
5789.818	n/a	RECOG_RESP	2894909	n/a	LTP096	ltpFR	4	5	n/a	SHELTER	1282	1	n/a	n/a	n/a	n/a	n/a	n/a	n/a
5790.376	n/a	RECOG_CONF	2895188	n/a	LTP096	ltpFR	4	5	n/a	SHELTER	1282	n/a	4	n/a	n/a	n/a	n/a	n/a	n/a
5791.668	n/a	RECOG_TARGET	2895834	n/a	LTP096	ltpFR	4	5	0	DISC	473	1	2	0	n/a	n/a	n/a	n/a	n/a
5792.162	n/a	RECOG_RESP	2896081	n/a	LTP096	ltpFR	4	5	0	DISC	473	1	n/a	0	n/a	n/a	n/a	n/a	n/a
5792.67	n/a	RECOG_CONF	2896335	n/a	LTP096	ltpFR	4	5	0	DISC	473	n/a	2	0	n/a	n/a	n/a	n/a	n/a
5793.94	n/a	RECOG_TARGET	2896970	n/a	LTP096	ltpFR	4	5	0	BOUQUET	157	1	4	0	n/a	n/a	n/a	n/a	n/a
5794.536	n/a	RECOG_RESP	2897268	n/a	LTP096	ltpFR	4	5	0	BOUQUET	157	1	n/a	0	n/a	n/a	n/a	n/a	n/a
5795.016	n/a	RECOG_CONF	2897508	n/a	LTP096	ltpFR	4	5	0	BOUQUET	157	n/a	4	0	n/a	n/a	n/a	n/a	n/a
5796.38	n/a	RECOG_LURE	2898190	n/a	LTP096	ltpFR	4	5	n/a	MESSAGE	888	1	4	n/a	n/a	n/a	n/a	n/a	n/a
5796.856	n/a	RECOG_RESP	2898428	n/a	LTP096	ltpFR	4	5	n/a	MESSAGE	888	1	n/a	n/a	n/a	n/a	n/a	n/a	n/a
5797.34	n/a	RECOG_CONF	2898670	n/a	LTP096	ltpFR	4	5	n/a	MESSAGE	888	n/a	4	n/a	n/a	n/a	n/a	n/a	n/a
5798.76	n/a	RECOG_TARGET	2899380	n/a	LTP096	ltpFR	4	5	0	MONARCH	906	1	5	1	n/a	n/a	n/a	n/a	n/a
5799.316	n/a	RECOG_RESP	2899658	n/a	LTP096	ltpFR	4	5	0	MONARCH	906	1	n/a	1	n/a	n/a	n/a	n/a	n/a
5799.754	n/a	RECOG_CONF	2899877	n/a	LTP096	ltpFR	4	5	0	MONARCH	906	n/a	5	1	n/a	n/a	n/a	n/a	n/a
5801.172	n/a	RECOG_TARGET	2900586	n/a	LTP096	ltpFR	4	5	0	DRAWING	494	1	4	0	n/a	n/a	n/a	n/a	n/a
5802.014	n/a	RECOG_RESP	2901007	n/a	LTP096	ltpFR	4	5	0	DRAWING	494	1	n/a	0	n/a	n/a	n/a	n/a	n/a
5802.518	n/a	RECOG_CONF	2901259	n/a	LTP096	ltpFR	4	5	0	DRAWING	494	n/a	4	0	n/a	n/a	n/a	n/a	n/a
5803.888	n/a	RECOG_TARGET	2901944	n/a	LTP096	ltpFR	4	5	0	RADISH	1158	1	2	0	n/a	n/a	n/a	n/a	n/a
5804.604	n/a	RECOG_RESP	2902302	n/a	LTP096	ltpFR	4	5	0	RADISH	1158	1	n/a	0	n/a	n/a	n/a	n/a	n/a
5805.91	n/a	RECOG_CONF	2902955	n/a	LTP096	ltpFR	4	5	0	RADISH	1158	n/a	2	0	n/a	n/a	n/a	n/a	n/a
5807.242	n/a	RECOG_TARGET	2903621	n/a	LTP096	ltpFR	4	5	1	HERB	704	1	5	1	n/a	n/a	n/a	n/a	n/a
5807.836	n/a	RECOG_RESP	2903918	n/a	LTP096	ltpFR	4	5	1	HERB	704	1	n/a	1	n/a	n/a	n/a	n/a	n/a
5808.346	n/a	RECOG_CONF	2904173	n/a	LTP096	ltpFR	4	5	1	HERB	704	n/a	5	1	n/a	n/a	n/a	n/a	n/a
5809.598	n/a	RECOG_TARGET	2904799	n/a	LTP096	ltpFR	4	5	1	PLAID	1080	1	5	n/a	n/a	n/a	n/a	n/a	n/a
5810.25	n/a	RECOG_RESP	2905125	n/a	LTP096	ltpFR	4	5	1	PLAID	1080	1	n/a	n/a	n/a	n/a	n/a	n/a	n/a
5812.676	n/a	RECOG_CONF	2906338	n/a	LTP096	ltpFR	4	5	1	PLAID	1080	n/a	5	n/a	n/a	n/a	n/a	n/a	n/a
5814.284	n/a	RECOG_LURE	2907142	n/a	LTP096	ltpFR	4	5	n/a	BODY	145	1	5	n/a	n/a	n/a	n/a	n/a	n/a
5815.25	n/a	RECOG_RESP	2907625	n/a	LTP096	ltpFR	4	5	n/a	BODY	145	1	n/a	n/a	n/a	n/a	n/a	n/a	n/a
5815.946	n/a	RECOG_CONF	2907973	n/a	LTP096	ltpFR	4	5	n/a	BODY	145	n/a	5	n/a	n/a	n/a	n/a	n/a	n/a
5817.356	n/a	RECOG_TARGET	2908678	n/a	LTP096	ltpFR	4	5	1	BABY	64	1	2	1	n/a	n/a	n/a	n/a	n/a
5818.072	n/a	RECOG_RESP	2909036	n/a	LTP096	ltpFR	4	5	1	BABY	64	1	n/a	1	n/a	n/a	n/a	n/a	n/a
5818.652	n/a	RECOG_CONF	2909326	n/a	LTP096	ltpFR	4	5	1	BABY	64	n/a	2	1	n/a	n/a	n/a	n/a	n/a
5819.96	n/a	RECOG_TARGET	2909980	n/a	LTP096	ltpFR	4	5	1	PLASTER	1085	1	4	0	n/a	n/a	n/a	n/a	n/a
5820.402	n/a	RECOG_RESP	2910201	n/a	LTP096	ltpFR	4	5	1	PLASTER	1085	1	n/a	0	n/a	n/a	n/a	n/a	n/a
5820.886	n/a	RECOG_CONF	2910443	n/a	LTP096	ltpFR	4	5	1	PLASTER	1085	n/a	4	0	n/a	n/a	n/a	n/a	n/a
5822.316	n/a	RECOG_TARGET	2911158	n/a	LTP096	ltpFR	4	5	0	NOTE	958	1	1	3	n/a	n/a	n/a	n/a	n/a
5823.52	n/a	RECOG_RESP	2911760	n/a	LTP096	ltpFR	4	5	0	NOTE	958	1	n/a	3	n/a	n/a	n/a	n/a	n/a
5824.01	n/a	RECOG_CONF	2912005	n/a	LTP096	ltpFR	4	5	0	NOTE	958	n/a	1	3	n/a	n/a	n/a	n/a	n/a
5825.412	n/a	RECOG_LURE	2912706	n/a	LTP096	ltpFR	4	5	n/a	GOO	648	1	2	n/a	n/a	n/a	n/a	n/a	n/a
5826.384	n/a	RECOG_RESP	2913192	n/a	LTP096	ltpFR	4	5	n/a	GOO	648	1	n/a	n/a	n/a	n/a	n/a	n/a	n/a
5827.302	n/a	RECOG_CONF	2913651	n/a	LTP096	ltpFR	4	5	n/a	GOO	648	n/a	2	n/a	n/a	n/a	n/a	n/a	n/a
5828.692	n/a	RECOG_TARGET	2914346	n/a	LTP096	ltpFR	4	5	-1	AUTOMOBILE	62	1	2	-1	n/a	n/a	n/a	n/a	n/a
5829.338	n/a	RECOG_RESP	2914669	n/a	LTP096	ltpFR	4	5	-1	AUTOMOBILE	62	1	n/a	-1	n/a	n/a	n/a	n/a	n/a
5830.316	n/a	RECOG_CONF	2915158	n/a	LTP096	ltpFR	4	5	-1	AUTOMOBILE	62	n/a	2	-1	n/a	n/a	n/a	n/a	n/a
5831.672	n/a	RECOG_TARGET	2915836	n/a	LTP096	ltpFR	4	5	1	HEAD	695	1	3	0	n/a	n/a	n/a	n/a	n/a
5832.33	n/a	RECOG_RESP	2916165	n/a	LTP096	ltpFR	4	5	1	HEAD	695	1	n/a	0	n/a	n/a	n/a	n/a	n/a
5833.038	n/a	RECOG_CONF	2916519	n/a	LTP096	ltpFR	4	5	1	HEAD	695	n/a	3	0	n/a	n/a	n/a	n/a	n/a
5835.956	n/a	REC_START	2917978	n/a	LTP096	ltpFR	4	6	n/a	n/a	n/a	n/a	n/a	n/a	n/a	n/a	n/a	n/a	n/a
5835.984	n/a	RECOG_TARGET	2917992	n/a	LTP096	ltpFR	4	6	1	MILK	895	1	1	2	n/a	n/a	n/a	n/a	n/a
5836.794	n/a	RECOG_RESP	2918397	n/a	LTP096	ltpFR	4	6	1	MILK	895	1	n/a	2	n/a	n/a	n/a	n/a	n/a
5837.348	n/a	RECOG_CONF	2918674	n/a	LTP096	ltpFR	4	6	1	MILK	895	n/a	1	2	n/a	n/a	n/a	n/a	n/a
5838.688	n/a	RECOG_TARGET	2919344	n/a	LTP096	ltpFR	4	6	0	BATHTUB	100	1	4	1	n/a	n/a	n/a	n/a	n/a
5839.278	n/a	RECOG_RESP	2919639	n/a	LTP096	ltpFR	4	6	0	BATHTUB	100	1	n/a	1	n/a	n/a	n/a	n/a	n/a
5839.812	n/a	RECOG_CONF	2919906	n/a	LTP096	ltpFR	4	6	0	BATHTUB	100	n/a	4	1	n/a	n/a	n/a	n/a	n/a
5841.16	n/a	RECOG_TARGET	2920580	n/a	LTP096	ltpFR	4	6	1	ORANGE	980	1	3	1	n/a	n/a	n/a	n/a	n/a
5842.592	n/a	RECOG_RESP	2921296	n/a	LTP096	ltpFR	4	6	1	ORANGE	980	1	n/a	1	n/a	n/a	n/a	n/a	n/a
5843.514	n/a	RECOG_CONF	2921757	n/a	LTP096	ltpFR	4	6	1	ORANGE	980	n/a	3	1	n/a	n/a	n/a	n/a	n/a
5844.914	n/a	RECOG_TARGET	2922457	n/a	LTP096	ltpFR	4	6	1	MISSILE	900	1	5	0	n/a	n/a	n/a	n/a	n/a
5845.702	n/a	RECOG_RESP	2922851	n/a	LTP096	ltpFR	4	6	1	MISSILE	900	1	n/a	0	n/a	n/a	n/a	n/a	n/a
5846.228	n/a	RECOG_CONF	2923114	n/a	LTP096	ltpFR	4	6	1	MISSILE	900	n/a	5	0	n/a	n/a	n/a	n/a	n/a
5847.82	n/a	RECOG_TARGET	2923910	n/a	LTP096	ltpFR	4	6	-1	LETTER	813	1	2	-1	n/a	n/a	n/a	n/a	n/a
5848.404	n/a	RECOG_RESP	2924202	n/a	LTP096	ltpFR	4	6	-1	LETTER	813	1	n/a	-1	n/a	n/a	n/a	n/a	n/a
5849.112	n/a	RECOG_CONF	2924556	n/a	LTP096	ltpFR	4	6	-1	LETTER	813	n/a	2	-1	n/a	n/a	n/a	n/a	n/a
5850.342	n/a	RECOG_LURE	2925171	n/a	LTP096	ltpFR	4	6	n/a	ROBIN	1199	1	1	n/a	n/a	n/a	n/a	n/a	n/a
5850.978	n/a	RECOG_RESP	2925489	n/a	LTP096	ltpFR	4	6	n/a	ROBIN	1199	1	n/a	n/a	n/a	n/a	n/a	n/a	n/a
5852.346	n/a	RECOG_CONF	2926173	n/a	LTP096	ltpFR	4	6	n/a	ROBIN	1199	n/a	1	n/a	n/a	n/a	n/a	n/a	n/a
5853.706	n/a	RECOG_TARGET	2926853	n/a	LTP096	ltpFR	4	6	1	FRIEND	606	1	2	1	n/a	n/a	n/a	n/a	n/a
5857.204	n/a	RECOG_RESP	2928602	n/a	LTP096	ltpFR	4	6	1	FRIEND	606	1	n/a	1	n/a	n/a	n/a	n/a	n/a
5857.812	n/a	RECOG_CONF	2928906	n/a	LTP096	ltpFR	4	6	1	FRIEND	606	n/a	2	1	n/a	n/a	n/a	n/a	n/a
5859.182	n/a	RECOG_TARGET	2929591	n/a	LTP096	ltpFR	4	6	-1	FRUIT	610	1	1	-1	n/a	n/a	n/a	n/a	n/a
5860.098	n/a	RECOG_RESP	2930049	n/a	LTP096	ltpFR	4	6	-1	FRUIT	610	1	n/a	-1	n/a	n/a	n/a	n/a	n/a
5860.616	n/a	RECOG_CONF	2930308	n/a	LTP096	ltpFR	4	6	-1	FRUIT	610	n/a	1	-1	n/a	n/a	n/a	n/a	n/a
5862.038	n/a	RECOG_TARGET	2931019	n/a	LTP096	ltpFR	4	6	0	BANANA	77	1	5	1	n/a	n/a	n/a	n/a	n/a
5862.762	n/a	RECOG_RESP	2931381	n/a	LTP096	ltpFR	4	6	0	BANANA	77	1	n/a	1	n/a	n/a	n/a	n/a	n/a
5863.27	n/a	RECOG_CONF	2931635	n/a	LTP096	ltpFR	4	6	0	BANANA	77	n/a	5	1	n/a	n/a	n/a	n/a	n/a
5864.734	n/a	RECOG_TARGET	2932367	n/a	LTP096	ltpFR	4	6	0	PUBLICATION	1136	1	5	1	n/a	n/a	n/a	n/a	n/a
5865.426	n/a	RECOG_RESP	2932713	n/a	LTP096	ltpFR	4	6	0	PUBLICATION	1136	1	n/a	1	n/a	n/a	n/a	n/a	n/a
5865.914	n/a	RECOG_CONF	2932957	n/a	LTP096	ltpFR	4	6	0	PUBLICATION	1136	n/a	5	1	n/a	n/a	n/a	n/a	n/a
5867.29	n/a	RECOG_TARGET	2933645	n/a	LTP096	ltpFR	4	6	1	TEENAGER	1444	1	5	1	n/a	n/a	n/a	n/a	n/a
5867.95	n/a	RECOG_RESP	2933975	n/a	LTP096	ltpFR	4	6	1	TEENAGER	1444	1	n/a	1	n/a	n/a	n/a	n/a	n/a
5868.508	n/a	RECOG_CONF	2934254	n/a	LTP096	ltpFR	4	6	1	TEENAGER	1444	n/a	5	1	n/a	n/a	n/a	n/a	n/a
5869.746	n/a	RECOG_TARGET	2934873	n/a	LTP096	ltpFR	4	6	0	SNACK	1331	0	2	0	n/a	n/a	n/a	n/a	n/a
5872.53	n/a	RECOG_RESP	2936265	n/a	LTP096	ltpFR	4	6	0	SNACK	1331	0	n/a	0	n/a	n/a	n/a	n/a	n/a
5873.098	n/a	RECOG_CONF	2936549	n/a	LTP096	ltpFR	4	6	0	SNACK	1331	n/a	2	0	n/a	n/a	n/a	n/a	n/a
5874.54	n/a	RECOG_TARGET	2937270	n/a	LTP096	ltpFR	4	6	0	KEYBOARD	774	1	2	n/a	n/a	n/a	n/a	n/a	n/a
5875.158	n/a	RECOG_RESP	2937579	n/a	LTP096	ltpFR	4	6	0	KEYBOARD	774	1	n/a	n/a	n/a	n/a	n/a	n/a	n/a
5875.712	n/a	RECOG_CONF	2937856	n/a	LTP096	ltpFR	4	6	0	KEYBOARD	774	n/a	2	n/a	n/a	n/a	n/a	n/a	n/a
5877.004	n/a	RECOG_TARGET	2938502	n/a	LTP096	ltpFR	4	6	0	LIMB	822	1	2	0	n/a	n/a	n/a	n/a	n/a
5877.548	n/a	RECOG_RESP	2938774	n/a	LTP096	ltpFR	4	6	0	LIMB	822	1	n/a	0	n/a	n/a	n/a	n/a	n/a
5878.086	n/a	RECOG_CONF	2939043	n/a	LTP096	ltpFR	4	6	0	LIMB	822	n/a	2	0	n/a	n/a	n/a	n/a	n/a
5879.484	n/a	RECOG_TARGET	2939742	n/a	LTP096	ltpFR	4	6	-1	OREGANO	983	1	5	-1	n/a	n/a	n/a	n/a	n/a
5880.192	n/a	RECOG_RESP	2940096	n/a	LTP096	ltpFR	4	6	-1	OREGANO	983	1	n/a	-1	n/a	n/a	n/a	n/a	n/a
5880.72	n/a	RECOG_CONF	2940360	n/a	LTP096	ltpFR	4	6	-1	OREGANO	983	n/a	5	-1	n/a	n/a	n/a	n/a	n/a
5882.13	n/a	RECOG_TARGET	2941065	n/a	LTP096	ltpFR	4	6	0	RUBY	1214	1	5	n/a	n/a	n/a	n/a	n/a	n/a
5883.274	n/a	RECOG_RESP	2941637	n/a	LTP096	ltpFR	4	6	0	RUBY	1214	1	n/a	n/a	n/a	n/a	n/a	n/a	n/a
5883.764	n/a	RECOG_CONF	2941882	n/a	LTP096	ltpFR	4	6	0	RUBY	1214	n/a	5	n/a	n/a	n/a	n/a	n/a	n/a
5885.16	n/a	RECOG_TARGET	2942580	n/a	LTP096	ltpFR	4	6	0	ALLIGATOR	16	1	3	0	n/a	n/a	n/a	n/a	n/a
5886.826	n/a	RECOG_RESP	2943413	n/a	LTP096	ltpFR	4	6	0	ALLIGATOR	16	1	n/a	0	n/a	n/a	n/a	n/a	n/a
5887.536	n/a	RECOG_CONF	2943768	n/a	LTP096	ltpFR	4	6	0	ALLIGATOR	16	n/a	3	0	n/a	n/a	n/a	n/a	n/a
5888.964	n/a	RECOG_TARGET	2944482	n/a	LTP096	ltpFR	4	6	1	WOLF	1619	0	1	1	n/a	n/a	n/a	n/a	n/a
5889.76	n/a	RECOG_RESP	2944880	n/a	LTP096	ltpFR	4	6	1	WOLF	1619	0	n/a	1	n/a	n/a	n/a	n/a	n/a
5890.328	n/a	RECOG_CONF	2945164	n/a	LTP096	ltpFR	4	6	1	WOLF	1619	n/a	1	1	n/a	n/a	n/a	n/a	n/a
5891.762	n/a	RECOG_TARGET	2945881	n/a	LTP096	ltpFR	4	6	1	KITCHEN	778	1	2	0	n/a	n/a	n/a	n/a	n/a
5892.324	n/a	RECOG_RESP	2946162	n/a	LTP096	ltpFR	4	6	1	KITCHEN	778	1	n/a	0	n/a	n/a	n/a	n/a	n/a
5892.844	n/a	RECOG_CONF	2946422	n/a	LTP096	ltpFR	4	6	1	KITCHEN	778	n/a	2	0	n/a	n/a	n/a	n/a	n/a
5894.142	n/a	RECOG_LURE	2947071	n/a	LTP096	ltpFR	4	6	n/a	GROCERY	664	0	1	n/a	n/a	n/a	n/a	n/a	n/a
5895.078	n/a	RECOG_RESP	2947539	n/a	LTP096	ltpFR	4	6	n/a	GROCERY	664	0	n/a	n/a	n/a	n/a	n/a	n/a	n/a
5895.776	n/a	RECOG_CONF	2947888	n/a	LTP096	ltpFR	4	6	n/a	GROCERY	664	n/a	1	n/a	n/a	n/a	n/a	n/a	n/a
5920.64	n/a	REC_START	2960320	n/a	LTP096	ltpFR	4	7	n/a	n/a	n/a	n/a	n/a	n/a	n/a	n/a	n/a	n/a	n/a
5920.67	n/a	RECOG_TARGET	2960335	n/a	LTP096	ltpFR	4	7	1	SPY	1360	1	5	1	n/a	n/a	n/a	n/a	n/a
5921.514	n/a	RECOG_RESP	2960757	n/a	LTP096	ltpFR	4	7	1	SPY	1360	1	n/a	1	n/a	n/a	n/a	n/a	n/a
5922.202	n/a	RECOG_CONF	2961101	n/a	LTP096	ltpFR	4	7	1	SPY	1360	n/a	5	1	n/a	n/a	n/a	n/a	n/a
5923.558	n/a	RECOG_LURE	2961779	n/a	LTP096	ltpFR	4	7	n/a	GUARDIAN	668	1	3	n/a	n/a	n/a	n/a	n/a	n/a
5924.138	n/a	RECOG_RESP	2962069	n/a	LTP096	ltpFR	4	7	n/a	GUARDIAN	668	1	n/a	n/a	n/a	n/a	n/a	n/a	n/a
5924.666	n/a	RECOG_CONF	2962333	n/a	LTP096	ltpFR	4	7	n/a	GUARDIAN	668	n/a	3	n/a	n/a	n/a	n/a	n/a	n/a
5926.048	n/a	RECOG_TARGET	2963024	n/a	LTP096	ltpFR	4	7	1	ARTICLE	42	1	4	0	n/a	n/a	n/a	n/a	n/a
5926.522	n/a	RECOG_RESP	2963261	n/a	LTP096	ltpFR	4	7	1	ARTICLE	42	1	n/a	0	n/a	n/a	n/a	n/a	n/a
5927.01	n/a	RECOG_CONF	2963505	n/a	LTP096	ltpFR	4	7	1	ARTICLE	42	n/a	4	0	n/a	n/a	n/a	n/a	n/a
5928.528	n/a	RECOG_LURE	2964264	n/a	LTP096	ltpFR	4	7	n/a	ZUCCHINI	1638	0	5	n/a	n/a	n/a	n/a	n/a	n/a
5929.486	n/a	RECOG_RESP	2964743	n/a	LTP096	ltpFR	4	7	n/a	ZUCCHINI	1638	0	n/a	n/a	n/a	n/a	n/a	n/a	n/a
5930.454	n/a	RECOG_CONF	2965227	n/a	LTP096	ltpFR	4	7	n/a	ZUCCHINI	1638	n/a	5	n/a	n/a	n/a	n/a	n/a	n/a
5931.8	n/a	RECOG_TARGET	2965900	n/a	LTP096	ltpFR	4	7	0	PARTY	1018	1	2	1	n/a	n/a	n/a	n/a	n/a
5932.568	n/a	RECOG_RESP	2966284	n/a	LTP096	ltpFR	4	7	0	PARTY	1018	1	n/a	1	n/a	n/a	n/a	n/a	n/a
5933.078	n/a	RECOG_CONF	2966539	n/a	LTP096	ltpFR	4	7	0	PARTY	1018	n/a	2	1	n/a	n/a	n/a	n/a	n/a
5934.38	n/a	RECOG_TARGET	2967190	n/a	LTP096	ltpFR	4	7	0	FLAG	573	1	4	0	n/a	n/a	n/a	n/a	n/a
5934.942	n/a	RECOG_RESP	2967471	n/a	LTP096	ltpFR	4	7	0	FLAG	573	1	n/a	0	n/a	n/a	n/a	n/a	n/a
5935.482	n/a	RECOG_CONF	2967741	n/a	LTP096	ltpFR	4	7	0	FLAG	573	n/a	4	0	n/a	n/a	n/a	n/a	n/a
5936.784	n/a	RECOG_TARGET	2968392	n/a	LTP096	ltpFR	4	7	-1	CRICKET	408	0	2	-1	n/a	n/a	n/a	n/a	n/a
5937.746	n/a	RECOG_RESP	2968873	n/a	LTP096	ltpFR	4	7	-1	CRICKET	408	0	n/a	-1	n/a	n/a	n/a	n/a	n/a
5938.266	n/a	RECOG_CONF	2969133	n/a	LTP096	ltpFR	4	7	-1	CRICKET	408	n/a	2	-1	n/a	n/a	n/a	n/a	n/a
5939.732	n/a	RECOG_TARGET	2969866	n/a	LTP096	ltpFR	4	7	1	TRANSPLANT	1496	0	1	0	n/a	n/a	n/a	n/a	n/a
5940.744	n/a	RECOG_RESP	2970372	n/a	LTP096	ltpFR	4	7	1	TRANSPLANT	1496	0	n/a	0	n/a	n/a	n/a	n/a	n/a
5941.528	n/a	RECOG_CONF	2970764	n/a	LTP096	ltpFR	4	7	1	TRANSPLANT	1496	n/a	1	0	n/a	n/a	n/a	n/a	n/a
5942.962	n/a	RECOG_LURE	2971481	n/a	LTP096	ltpFR	4	7	n/a	TUB	1514	0	1	n/a	n/a	n/a	n/a	n/a	n/a
5943.782	n/a	RECOG_RESP	2971891	n/a	LTP096	ltpFR	4	7	n/a	TUB	1514	0	n/a	n/a	n/a	n/a	n/a	n/a	n/a
5944.392	n/a	RECOG_CONF	2972196	n/a	LTP096	ltpFR	4	7	n/a	TUB	1514	n/a	1	n/a	n/a	n/a	n/a	n/a	n/a
5945.692	n/a	RECOG_TARGET	2972846	n/a	LTP096	ltpFR	4	7	1	TOWEL	1489	1	2	n/a	n/a	n/a	n/a	n/a	n/a
5946.366	n/a	RECOG_RESP	2973183	n/a	LTP096	ltpFR	4	7	1	TOWEL	1489	1	n/a	n/a	n/a	n/a	n/a	n/a	n/a
5946.836	n/a	RECOG_CONF	2973418	n/a	LTP096	ltpFR	4	7	1	TOWEL	1489	n/a	2	n/a	n/a	n/a	n/a	n/a	n/a
5948.188	n/a	RECOG_TARGET	2974094	n/a	LTP096	ltpFR	4	7	-1	ELBOW	520	1	5	-1	n/a	n/a	n/a	n/a	n/a
5948.786	n/a	RECOG_RESP	2974393	n/a	LTP096	ltpFR	4	7	-1	ELBOW	520	1	n/a	-1	n/a	n/a	n/a	n/a	n/a
5949.31	n/a	RECOG_CONF	2974655	n/a	LTP096	ltpFR	4	7	-1	ELBOW	520	n/a	5	-1	n/a	n/a	n/a	n/a	n/a
5950.618	n/a	RECOG_TARGET	2975309	n/a	LTP096	ltpFR	4	7	0	MULE	931	1	5	0	n/a	n/a	n/a	n/a	n/a
5951.206	n/a	RECOG_RESP	2975603	n/a	LTP096	ltpFR	4	7	0	MULE	931	1	n/a	0	n/a	n/a	n/a	n/a	n/a
5951.724	n/a	RECOG_CONF	2975862	n/a	LTP096	ltpFR	4	7	0	MULE	931	n/a	5	0	n/a	n/a	n/a	n/a	n/a
5953.0	n/a	RECOG_TARGET	2976500	n/a	LTP096	ltpFR	4	7	1	GUEST	669	1	2	1	n/a	n/a	n/a	n/a	n/a
5953.73	n/a	RECOG_RESP	2976865	n/a	LTP096	ltpFR	4	7	1	GUEST	669	1	n/a	1	n/a	n/a	n/a	n/a	n/a
5954.228	n/a	RECOG_CONF	2977114	n/a	LTP096	ltpFR	4	7	1	GUEST	669	n/a	2	1	n/a	n/a	n/a	n/a	n/a
5955.622	n/a	RECOG_TARGET	2977811	n/a	LTP096	ltpFR	4	7	-1	BROOK	177	0	1	-1	n/a	n/a	n/a	n/a	n/a
5956.364	n/a	RECOG_RESP	2978182	n/a	LTP096	ltpFR	4	7	-1	BROOK	177	0	n/a	-1	n/a	n/a	n/a	n/a	n/a
5956.882	n/a	RECOG_CONF	2978441	n/a	LTP096	ltpFR	4	7	-1	BROOK	177	n/a	1	-1	n/a	n/a	n/a	n/a	n/a
5958.192	n/a	RECOG_TARGET	2979096	n/a	LTP096	ltpFR	4	7	-1	UNDERWEAR	1537	0	2	-1	n/a	n/a	n/a	n/a	n/a
5959.212	n/a	RECOG_RESP	2979606	n/a	LTP096	ltpFR	4	7	-1	UNDERWEAR	1537	0	n/a	-1	n/a	n/a	n/a	n/a	n/a
5960.176	n/a	RECOG_CONF	2980088	n/a	LTP096	ltpFR	4	7	-1	UNDERWEAR	1537	n/a	2	-1	n/a	n/a	n/a	n/a	n/a
5961.598	n/a	RECOG_TARGET	2980799	n/a	LTP096	ltpFR	4	7	0	BLANKET	135	1	2	0	n/a	n/a	n/a	n/a	n/a
5962.072	n/a	RECOG_RESP	2981036	n/a	LTP096	ltpFR	4	7	0	BLANKET	135	1	n/a	0	n/a	n/a	n/a	n/a	n/a
5962.69	n/a	RECOG_CONF	2981345	n/a	LTP096	ltpFR	4	7	0	BLANKET	135	n/a	2	0	n/a	n/a	n/a	n/a	n/a
5964.012	n/a	RECOG_TARGET	2982006	n/a	LTP096	ltpFR	4	7	0	BEDROOM	111	1	3	n/a	n/a	n/a	n/a	n/a	n/a
5964.516	n/a	RECOG_RESP	2982258	n/a	LTP096	ltpFR	4	7	0	BEDROOM	111	1	n/a	n/a	n/a	n/a	n/a	n/a	n/a
5965.026	n/a	RECOG_CONF	2982513	n/a	LTP096	ltpFR	4	7	0	BEDROOM	111	n/a	3	n/a	n/a	n/a	n/a	n/a	n/a
5966.418	n/a	RECOG_LURE	2983209	n/a	LTP096	ltpFR	4	7	n/a	HAT	690	0	1	n/a	n/a	n/a	n/a	n/a	n/a
5967.448	n/a	RECOG_RESP	2983724	n/a	LTP096	ltpFR	4	7	n/a	HAT	690	0	n/a	n/a	n/a	n/a	n/a	n/a	n/a
5968.612	n/a	RECOG_CONF	2984306	n/a	LTP096	ltpFR	4	7	n/a	HAT	690	n/a	1	n/a	n/a	n/a	n/a	n/a	n/a
5970.022	n/a	RECOG_TARGET	2985011	n/a	LTP096	ltpFR	4	7	1	MARROW	872	0	1	0	n/a	n/a	n/a	n/a	n/a
5970.912	n/a	RECOG_RESP	2985456	n/a	LTP096	ltpFR	4	7	1	MARROW	872	0	n/a	0	n/a	n/a	n/a	n/a	n/a
5971.82	n/a	RECOG_CONF	2985910	n/a	LTP096	ltpFR	4	7	1	MARROW	872	n/a	1	0	n/a	n/a	n/a	n/a	n/a
5973.126	n/a	RECOG_TARGET	2986563	n/a	LTP096	ltpFR	4	7	-1	STAR	1373	1	3	-1	n/a	n/a	n/a	n/a	n/a
5973.644	n/a	RECOG_RESP	2986822	n/a	LTP096	ltpFR	4	7	-1	STAR	1373	1	n/a	-1	n/a	n/a	n/a	n/a	n/a
5974.274	n/a	RECOG_CONF	2987137	n/a	LTP096	ltpFR	4	7	-1	STAR	1373	n/a	3	-1	n/a	n/a	n/a	n/a	n/a
5977.208	n/a	REC_START	2988604	n/a	LTP096	ltpFR	4	8	n/a	n/a	n/a	n/a	n/a	n/a	n/a	n/a	n/a	n/a	n/a
5977.238	n/a	RECOG_TARGET	2988619	n/a	LTP096	ltpFR	4	8	1	INSTRUCTOR	741	1	5	1	n/a	n/a	n/a	n/a	n/a
5977.87	n/a	RECOG_RESP	2988935	n/a	LTP096	ltpFR	4	8	1	INSTRUCTOR	741	1	n/a	1	n/a	n/a	n/a	n/a	n/a
5978.334	n/a	RECOG_CONF	2989167	n/a	LTP096	ltpFR	4	8	1	INSTRUCTOR	741	n/a	5	1	n/a	n/a	n/a	n/a	n/a
5979.71	n/a	RECOG_TARGET	2989855	n/a	LTP096	ltpFR	4	8	-1	DIVER	476	1	5	-1	n/a	n/a	n/a	n/a	n/a
5980.236	n/a	RECOG_RESP	2990118	n/a	LTP096	ltpFR	4	8	-1	DIVER	476	1	n/a	-1	n/a	n/a	n/a	n/a	n/a
5980.654	n/a	RECOG_CONF	2990327	n/a	LTP096	ltpFR	4	8	-1	DIVER	476	n/a	5	-1	n/a	n/a	n/a	n/a	n/a
5982.008	n/a	RECOG_TARGET	2991004	n/a	LTP096	ltpFR	4	8	0	SLACKS	1323	1	2	n/a	n/a	n/a	n/a	n/a	n/a
5982.56	n/a	RECOG_RESP	2991280	n/a	LTP096	ltpFR	4	8	0	SLACKS	1323	1	n/a	n/a	n/a	n/a	n/a	n/a	n/a
5983.0	n/a	RECOG_CONF	2991500	n/a	LTP096	ltpFR	4	8	0	SLACKS	1323	n/a	2	n/a	n/a	n/a	n/a	n/a	n/a
5984.272	n/a	RECOG_TARGET	2992136	n/a	LTP096	ltpFR	4	8	0	WORLD	1622	1	3	1	n/a	n/a	n/a	n/a	n/a
5984.656	n/a	RECOG_RESP	2992328	n/a	LTP096	ltpFR	4	8	0	WORLD	1622	1	n/a	1	n/a	n/a	n/a	n/a	n/a
5985.214	n/a	RECOG_CONF	2992607	n/a	LTP096	ltpFR	4	8	0	WORLD	1622	n/a	3	1	n/a	n/a	n/a	n/a	n/a
5986.402	n/a	RECOG_TARGET	2993201	n/a	LTP096	ltpFR	4	8	0	SPRINKLE	1359	1	2	n/a	n/a	n/a	n/a	n/a	n/a
5986.68	n/a	RECOG_RESP	2993340	n/a	LTP096	ltpFR	4	8	0	SPRINKLE	1359	1	n/a	n/a	n/a	n/a	n/a	n/a	n/a
5987.18	n/a	RECOG_CONF	2993590	n/a	LTP096	ltpFR	4	8	0	SPRINKLE	1359	n/a	2	n/a	n/a	n/a	n/a	n/a	n/a
5988.434	n/a	RECOG_TARGET	2994217	n/a	LTP096	ltpFR	4	8	0	BROCCOLI	176	1	5	0	n/a	n/a	n/a	n/a	n/a
5989.234	n/a	RECOG_RESP	2994617	n/a	LTP096	ltpFR	4	8	0	BROCCOLI	176	1	n/a	0	n/a	n/a	n/a	n/a	n/a
5989.674	n/a	RECOG_CONF	2994837	n/a	LTP096	ltpFR	4	8	0	BROCCOLI	176	n/a	5	0	n/a	n/a	n/a	n/a	n/a
5990.988	n/a	RECOG_LURE	2995494	n/a	LTP096	ltpFR	4	8	n/a	MINK	897	1	1	n/a	n/a	n/a	n/a	n/a	n/a
5991.55	n/a	RECOG_RESP	2995775	n/a	LTP096	ltpFR	4	8	n/a	MINK	897	1	n/a	n/a	n/a	n/a	n/a	n/a	n/a
5992.638	n/a	RECOG_CONF	2996319	n/a	LTP096	ltpFR	4	8	n/a	MINK	897	n/a	1	n/a	n/a	n/a	n/a	n/a	n/a
5993.986	n/a	RECOG_TARGET	2996993	n/a	LTP096	ltpFR	4	8	-1	COOKIE	374	0	2	-1	n/a	n/a	n/a	n/a	n/a
5994.972	n/a	RECOG_RESP	2997486	n/a	LTP096	ltpFR	4	8	-1	COOKIE	374	0	n/a	-1	n/a	n/a	n/a	n/a	n/a
5995.532	n/a	RECOG_CONF	2997766	n/a	LTP096	ltpFR	4	8	-1	COOKIE	374	n/a	2	-1	n/a	n/a	n/a	n/a	n/a
5996.932	n/a	RECOG_TARGET	2998466	n/a	LTP096	ltpFR	4	8	-1	PAINT	1003	1	1	-1	n/a	n/a	n/a	n/a	n/a
5997.488	n/a	RECOG_RESP	2998744	n/a	LTP096	ltpFR	4	8	-1	PAINT	1003	1	n/a	-1	n/a	n/a	n/a	n/a	n/a
5998.246	n/a	RECOG_CONF	2999123	n/a	LTP096	ltpFR	4	8	-1	PAINT	1003	n/a	1	-1	n/a	n/a	n/a	n/a	n/a
5999.504	n/a	RECOG_TARGET	2999752	n/a	LTP096	ltpFR	4	8	-1	CANOE	233	0	1	-1	n/a	n/a	n/a	n/a	n/a
6000.39	n/a	RECOG_RESP_VV	3000195	n/a	LTP096	ltpFR	4	8	-1	CANOE	233	1	n/a	-1	n/a	n/a	n/a	n/a	n/a
6001.644	n/a	RECOG_RESP	3000822	n/a	LTP096	ltpFR	4	8	-1	CANOE	233	0	n/a	-1	n/a	n/a	n/a	n/a	n/a
6003.204	n/a	RECOG_CONF	3001602	n/a	LTP096	ltpFR	4	8	-1	CANOE	233	n/a	1	-1	n/a	n/a	n/a	n/a	n/a
6004.882	n/a	RECOG_TARGET	3002441	n/a	LTP096	ltpFR	4	8	1	TERMINAL	1450	1	1	0	n/a	n/a	n/a	n/a	n/a
6005.544	n/a	RECOG_RESP	3002772	n/a	LTP096	ltpFR	4	8	1	TERMINAL	1450	1	n/a	0	n/a	n/a	n/a	n/a	n/a
6006.008	n/a	RECOG_CONF	3003004	n/a	LTP096	ltpFR	4	8	1	TERMINAL	1450	n/a	1	0	n/a	n/a	n/a	n/a	n/a
6007.338	n/a	RECOG_TARGET	3003669	n/a	LTP096	ltpFR	4	8	1	MOOSE	915	1	5	1	n/a	n/a	n/a	n/a	n/a
6008.064	n/a	RECOG_RESP	3004032	n/a	LTP096	ltpFR	4	8	1	MOOSE	915	1	n/a	1	n/a	n/a	n/a	n/a	n/a
6008.542	n/a	RECOG_CONF	3004271	n/a	LTP096	ltpFR	4	8	1	MOOSE	915	n/a	5	1	n/a	n/a	n/a	n/a	n/a
6009.918	n/a	RECOG_TARGET	3004959	n/a	LTP096	ltpFR	4	8	1	SOCIETY	1338	1	5	1	n/a	n/a	n/a	n/a	n/a
6011.68	n/a	RECOG_RESP	3005840	n/a	LTP096	ltpFR	4	8	1	SOCIETY	1338	1	n/a	1	n/a	n/a	n/a	n/a	n/a
6012.194	n/a	RECOG_CONF	3006097	n/a	LTP096	ltpFR	4	8	1	SOCIETY	1338	n/a	5	1	n/a	n/a	n/a	n/a	n/a
6013.564	n/a	RECOG_TARGET	3006782	n/a	LTP096	ltpFR	4	8	-1	CAP	236	1	2	-1	n/a	n/a	n/a	n/a	n/a
6014.638	n/a	RECOG_RESP_VV	3007319	n/a	LTP096	ltpFR	4	8	-1	CAP	236	0	n/a	-1	n/a	n/a	n/a	n/a	n/a
6015.508	n/a	RECOG_RESP	3007754	n/a	LTP096	ltpFR	4	8	-1	CAP	236	1	n/a	-1	n/a	n/a	n/a	n/a	n/a
6016.114	n/a	RECOG_CONF	3008057	n/a	LTP096	ltpFR	4	8	-1	CAP	236	n/a	2	-1	n/a	n/a	n/a	n/a	n/a
6017.568	n/a	RECOG_LURE	3008784	n/a	LTP096	ltpFR	4	8	n/a	LASER	801	1	1	n/a	n/a	n/a	n/a	n/a	n/a
6019.508	n/a	RECOG_RESP	3009754	n/a	LTP096	ltpFR	4	8	n/a	LASER	801	1	n/a	n/a	n/a	n/a	n/a	n/a	n/a
6020.346	n/a	RECOG_CONF	3010173	n/a	LTP096	ltpFR	4	8	n/a	LASER	801	n/a	1	n/a	n/a	n/a	n/a	n/a	n/a
6021.728	n/a	RECOG_TARGET	3010864	n/a	LTP096	ltpFR	4	8	-1	PIG	1064	0	2	-1	n/a	n/a	n/a	n/a	n/a
6023.238	n/a	RECOG_RESP	3011619	n/a	LTP096	ltpFR	4	8	-1	PIG	1064	0	n/a	-1	n/a	n/a	n/a	n/a	n/a
6023.848	n/a	RECOG_CONF	3011924	n/a	LTP096	ltpFR	4	8	-1	PIG	1064	n/a	2	-1	n/a	n/a	n/a	n/a	n/a
6025.148	n/a	RECOG_TARGET	3012574	n/a	LTP096	ltpFR	4	8	0	NURSE	963	0	3	0	n/a	n/a	n/a	n/a	n/a
6025.752	n/a	RECOG_RESP	3012876	n/a	LTP096	ltpFR	4	8	0	NURSE	963	0	n/a	0	n/a	n/a	n/a	n/a	n/a
6026.292	n/a	RECOG_CONF	3013146	n/a	LTP096	ltpFR	4	8	0	NURSE	963	n/a	3	0	n/a	n/a	n/a	n/a	n/a
6027.714	n/a	RECOG_TARGET	3013857	n/a	LTP096	ltpFR	4	8	1	LEADER	807	0	2	1	n/a	n/a	n/a	n/a	n/a
6028.726	n/a	RECOG_RESP	3014363	n/a	LTP096	ltpFR	4	8	1	LEADER	807	0	n/a	1	n/a	n/a	n/a	n/a	n/a
6029.434	n/a	RECOG_CONF	3014717	n/a	LTP096	ltpFR	4	8	1	LEADER	807	n/a	2	1	n/a	n/a	n/a	n/a	n/a
6030.802	n/a	RECOG_TARGET	3015401	n/a	LTP096	ltpFR	4	8	1	BALCONY	72	1	4	2	n/a	n/a	n/a	n/a	n/a
6031.39	n/a	RECOG_RESP	3015695	n/a	LTP096	ltpFR	4	8	1	BALCONY	72	1	n/a	2	n/a	n/a	n/a	n/a	n/a
6031.87	n/a	RECOG_CONF	3015935	n/a	LTP096	ltpFR	4	8	1	BALCONY	72	n/a	4	2	n/a	n/a	n/a	n/a	n/a
6033.248	n/a	RECOG_TARGET	3016624	n/a	LTP096	ltpFR	4	8	1	SACK	1220	1	5	0	n/a	n/a	n/a	n/a	n/a
6033.894	n/a	RECOG_RESP	3016947	n/a	LTP096	ltpFR	4	8	1	SACK	1220	1	n/a	0	n/a	n/a	n/a	n/a	n/a
6034.912	n/a	RECOG_CONF	3017456	n/a	LTP096	ltpFR	4	8	1	SACK	1220	n/a	5	0	n/a	n/a	n/a	n/a	n/a
6037.662	n/a	REC_START	3018831	n/a	LTP096	ltpFR	4	9	n/a	n/a	n/a	n/a	n/a	n/a	n/a	n/a	n/a	n/a	n/a
6037.694	n/a	RECOG_TARGET	3018847	n/a	LTP096	ltpFR	4	9	-1	PIRATE	1074	1	5	-1	n/a	n/a	n/a	n/a	n/a
6038.376	n/a	RECOG_RESP	3019188	n/a	LTP096	ltpFR	4	9	-1	PIRATE	1074	1	n/a	-1	n/a	n/a	n/a	n/a	n/a
6038.854	n/a	RECOG_CONF	3019427	n/a	LTP096	ltpFR	4	9	-1	PIRATE	1074	n/a	5	-1	n/a	n/a	n/a	n/a	n/a
6040.298	n/a	RECOG_TARGET	3020149	n/a	LTP096	ltpFR	4	9	1	POLYESTER	1100	1	5	0	n/a	n/a	n/a	n/a	n/a
6040.87	n/a	RECOG_RESP_VV	3020435	n/a	LTP096	ltpFR	4	9	1	POLYESTER	1100	0	n/a	0	n/a	n/a	n/a	n/a	n/a
6041.868	n/a	RECOG_RESP	3020934	n/a	LTP096	ltpFR	4	9	1	POLYESTER	1100	1	n/a	0	n/a	n/a	n/a	n/a	n/a
6042.396	n/a	RECOG_CONF	3021198	n/a	LTP096	ltpFR	4	9	1	POLYESTER	1100	n/a	5	0	n/a	n/a	n/a	n/a	n/a
6043.878	n/a	RECOG_TARGET	3021939	n/a	LTP096	ltpFR	4	9	0	FIN	566	1	5	1	n/a	n/a	n/a	n/a	n/a
6044.702	n/a	RECOG_RESP	3022351	n/a	LTP096	ltpFR	4	9	0	FIN	566	1	n/a	1	n/a	n/a	n/a	n/a	n/a
6045.27	n/a	RECOG_CONF	3022635	n/a	LTP096	ltpFR	4	9	0	FIN	566	n/a	5	1	n/a	n/a	n/a	n/a	n/a
6046.6	n/a	RECOG_TARGET	3023300	n/a	LTP096	ltpFR	4	9	1	BARLEY	88	1	5	1	n/a	n/a	n/a	n/a	n/a
6047.196	n/a	RECOG_RESP	3023598	n/a	LTP096	ltpFR	4	9	1	BARLEY	88	1	n/a	1	n/a	n/a	n/a	n/a	n/a
