mstime	trial_type	stim_file	subject	experiment	session	trial	item_name	item_num	list	answer	test_x	test_y	test_z
0	SESS_START	n/a	LTP382	ltpFR2	2	n/a	n/a	n/a	n/a	n/a	0	0	0
15535	START	n/a	LTP382	ltpFR2	2	n/a	n/a	n/a	-1	n/a	n/a	n/a	n/a
15566	PROB	n/a	LTP382	ltpFR2	2	n/a	n/a	n/a	-1	15	5	6	4
18666	PROB	n/a	LTP382	ltpFR2	2	n/a	n/a	n/a	-1	16	9	6	1
20733	PROB	n/a	LTP382	ltpFR2	2	n/a	n/a	n/a	-1	16	2	5	9
23816	PROB	n/a	LTP382	ltpFR2	2	n/a	n/a	n/a	-1	9	6	1	2
26016	PROB	n/a	LTP382	ltpFR2	2	n/a	n/a	n/a	-1	15	1	7	7
27395	STOP	n/a	LTP382	ltpFR2	2	n/a	n/a	n/a	-1	n/a	n/a	n/a	n/a
69699	DISTRACTOR	n/a	LTP382	ltpFR2	2	1	n/a	n/a	n/a	n/a	0	0	0
69699	START	n/a	LTP382	ltpFR2	2	n/a	n/a	n/a	1	n/a	n/a	n/a	n/a
69715	PROB	n/a	LTP382	ltpFR2	2	n/a	n/a	n/a	1	20	7	7	6
71582	PROB	n/a	LTP382	ltpFR2	2	n/a	n/a	n/a	1	8	1	6	1
72915	PROB	n/a	LTP382	ltpFR2	2	n/a	n/a	n/a	1	8	2	4	2
74315	PROB	n/a	LTP382	ltpFR2	2	n/a	n/a	n/a	1	11	1	5	5
75515	PROB	n/a	LTP382	ltpFR2	2	n/a	n/a	n/a	1	14	4	4	6
77050	PROB	n/a	LTP382	ltpFR2	2	n/a	n/a	n/a	1	14	2	7	5
79365	PROB	n/a	LTP382	ltpFR2	2	n/a	n/a	n/a	1	13	2	2	9
81932	PROB	n/a	LTP382	ltpFR2	2	n/a	n/a	n/a	1	23	9	8	6
85116	PROB	n/a	LTP382	ltpFR2	2	n/a	n/a	n/a	1	20	6	6	8
86632	PROB	n/a	LTP382	ltpFR2	2	n/a	n/a	n/a	1	18	7	8	3
88149	PROB	n/a	LTP382	ltpFR2	2	n/a	n/a	n/a	1	18	8	7	3
89882	PROB	n/a	LTP382	ltpFR2	2	n/a	n/a	n/a	1	18	5	7	6
93698	STOP	n/a	LTP382	ltpFR2	2	n/a	n/a	n/a	1	n/a	n/a	n/a	n/a
94782	WORD	wordpools/wasnorm_wordpool_576.txt	LTP382	ltpFR2	2	1	BLOCKADE	137	n/a	n/a	0	0	0
97232	WORD	wordpools/wasnorm_wordpool_576.txt	LTP382	ltpFR2	2	1	LADDER	793	n/a	n/a	0	0	0
99815	WORD	wordpools/wasnorm_wordpool_576.txt	LTP382	ltpFR2	2	1	WAITER	1580	n/a	n/a	0	0	0
102432	WORD	wordpools/wasnorm_wordpool_576.txt	LTP382	ltpFR2	2	1	FIREPLACE	570	n/a	n/a	0	0	0
105099	WORD	wordpools/wasnorm_wordpool_576.txt	LTP382	ltpFR2	2	1	FEMALE	559	n/a	n/a	0	0	0
107915	WORD	wordpools/wasnorm_wordpool_576.txt	LTP382	ltpFR2	2	1	ACTOR	5	n/a	n/a	0	0	0
110365	WORD	wordpools/wasnorm_wordpool_576.txt	LTP382	ltpFR2	2	1	DOLPHIN	483	n/a	n/a	0	0	0
112948	WORD	wordpools/wasnorm_wordpool_576.txt	LTP382	ltpFR2	2	1	TROMBONE	1508	n/a	n/a	0	0	0
115648	WORD	wordpools/wasnorm_wordpool_576.txt	LTP382	ltpFR2	2	1	SLUG	1329	n/a	n/a	0	0	0
118082	WORD	wordpools/wasnorm_wordpool_576.txt	LTP382	ltpFR2	2	1	FUNGUS	614	n/a	n/a	0	0	0
120615	WORD	wordpools/wasnorm_wordpool_576.txt	LTP382	ltpFR2	2	1	SEAGULL	1261	n/a	n/a	0	0	0
123116	WORD	wordpools/wasnorm_wordpool_576.txt	LTP382	ltpFR2	2	1	SPARROW	1347	n/a	n/a	0	0	0
125698	WORD	wordpools/wasnorm_wordpool_576.txt	LTP382	ltpFR2	2	1	CREATURE	403	n/a	n/a	0	0	0
128365	WORD	wordpools/wasnorm_wordpool_576.txt	LTP382	ltpFR2	2	1	BRAKE	166	n/a	n/a	0	0	0
131115	WORD	wordpools/wasnorm_wordpool_576.txt	LTP382	ltpFR2	2	1	TOMBSTONE	1478	n/a	n/a	0	0	0
133614	WORD	wordpools/wasnorm_wordpool_576.txt	LTP382	ltpFR2	2	1	MAILMAN	858	n/a	n/a	0	0	0
136115	WORD	wordpools/wasnorm_wordpool_576.txt	LTP382	ltpFR2	2	1	GAVEL	627	n/a	n/a	0	0	0
138914	WORD	wordpools/wasnorm_wordpool_576.txt	LTP382	ltpFR2	2	1	DINER	467	n/a	n/a	0	0	0
141698	WORD	wordpools/wasnorm_wordpool_576.txt	LTP382	ltpFR2	2	1	FOOT	590	n/a	n/a	0	0	0
144281	WORD	wordpools/wasnorm_wordpool_576.txt	LTP382	ltpFR2	2	1	LABEL	790	n/a	n/a	0	0	0
146747	WORD	wordpools/wasnorm_wordpool_576.txt	LTP382	ltpFR2	2	1	FLASK	576	n/a	n/a	0	0	0
149447	WORD	wordpools/wasnorm_wordpool_576.txt	LTP382	ltpFR2	2	1	INMATE	738	n/a	n/a	0	0	0
152198	WORD	wordpools/wasnorm_wordpool_576.txt	LTP382	ltpFR2	2	1	OUTLAW	989	n/a	n/a	0	0	0
154747	WORD	wordpools/wasnorm_wordpool_576.txt	LTP382	ltpFR2	2	1	FILM	565	n/a	n/a	0	0	0
156364	START	n/a	LTP382	ltpFR2	2	n/a	n/a	n/a	2	n/a	n/a	n/a	n/a
157564	DISTRACTOR	n/a	LTP382	ltpFR2	2	1	n/a	n/a	n/a	n/a	0	0	0
157581	PROB	n/a	LTP382	ltpFR2	2	n/a	n/a	n/a	2	17	5	3	9
161182	PROB	n/a	LTP382	ltpFR2	2	n/a	n/a	n/a	2	22	9	8	5
163781	PROB	n/a	LTP382	ltpFR2	2	n/a	n/a	n/a	2	13	1	4	8
165764	PROB	n/a	LTP382	ltpFR2	2	n/a	n/a	n/a	2	31	4	8	9
171414	PROB	n/a	LTP382	ltpFR2	2	n/a	n/a	n/a	2	21	9	4	8
180201	STOP	n/a	LTP382	ltpFR2	2	n/a	n/a	n/a	2	n/a	n/a	n/a	n/a
182281	REC_START	n/a	LTP382	ltpFR2	2	1	n/a	n/a	n/a	n/a	0	0	0
184669	REC_WORD	wordpools/wasnorm_wordpool_576.txt	LTP382	ltpFR2	2	1	INMATE	738	n/a	n/a	0	0	0
185944	REC_WORD	wordpools/wasnorm_wordpool_576.txt	LTP382	ltpFR2	2	1	LADDER	793	n/a	n/a	0	0	0
187164	REC_WORD	wordpools/wasnorm_wordpool_576.txt	LTP382	ltpFR2	2	1	BLOCKADE	137	n/a	n/a	0	0	0
188483	REC_WORD	wordpools/wasnorm_wordpool_576.txt	LTP382	ltpFR2	2	1	DOLPHIN	483	n/a	n/a	0	0	0
223655	REC_WORD	wordpools/wasnorm_wordpool_576.txt	LTP382	ltpFR2	2	1	BRAKE	166	n/a	n/a	0	0	0
272729	WORD	wordpools/wasnorm_wordpool_576.txt	LTP382	ltpFR2	2	2	MAPLE	866	n/a	n/a	0	0	0
275545	WORD	wordpools/wasnorm_wordpool_576.txt	LTP382	ltpFR2	2	2	FREEZER	604	n/a	n/a	0	0	0
278229	WORD	wordpools/wasnorm_wordpool_576.txt	LTP382	ltpFR2	2	2	SWIMMER	1420	n/a	n/a	0	0	0
280696	WORD	wordpools/wasnorm_wordpool_576.txt	LTP382	ltpFR2	2	2	SCARF	1246	n/a	n/a	0	0	0
283495	WORD	wordpools/wasnorm_wordpool_576.txt	LTP382	ltpFR2	2	2	SKETCH	1315	n/a	n/a	0	0	0
286180	WORD	wordpools/wasnorm_wordpool_576.txt	LTP382	ltpFR2	2	2	SPIDER	1351	n/a	n/a	0	0	0
288779	WORD	wordpools/wasnorm_wordpool_576.txt	LTP382	ltpFR2	2	2	HEDGE	699	n/a	n/a	0	0	0
291412	WORD	wordpools/wasnorm_wordpool_576.txt	LTP382	ltpFR2	2	2	NOMAD	955	n/a	n/a	0	0	0
294228	WORD	wordpools/wasnorm_wordpool_576.txt	LTP382	ltpFR2	2	2	TOURIST	1488	n/a	n/a	0	0	0
296878	WORD	wordpools/wasnorm_wordpool_576.txt	LTP382	ltpFR2	2	2	CRICKET	408	n/a	n/a	0	0	0
299395	WORD	wordpools/wasnorm_wordpool_576.txt	LTP382	ltpFR2	2	2	JUGGLER	763	n/a	n/a	0	0	0
302029	WORD	wordpools/wasnorm_wordpool_576.txt	LTP382	ltpFR2	2	2	RACKET	1155	n/a	n/a	0	0	0
304778	WORD	wordpools/wasnorm_wordpool_576.txt	LTP382	ltpFR2	2	2	NOVEL	960	n/a	n/a	0	0	0
307562	WORD	wordpools/wasnorm_wordpool_576.txt	LTP382	ltpFR2	2	2	BUREAU	199	n/a	n/a	0	0	0
310146	WORD	wordpools/wasnorm_wordpool_576.txt	LTP382	ltpFR2	2	2	MARKET	871	n/a	n/a	0	0	0
312712	WORD	wordpools/wasnorm_wordpool_576.txt	LTP382	ltpFR2	2	2	SURVEY	1414	n/a	n/a	0	0	0
315462	WORD	wordpools/wasnorm_wordpool_576.txt	LTP382	ltpFR2	2	2	SHERIFF	1284	n/a	n/a	0	0	0
318096	WORD	wordpools/wasnorm_wordpool_576.txt	LTP382	ltpFR2	2	2	HONEY	713	n/a	n/a	0	0	0
320811	WORD	wordpools/wasnorm_wordpool_576.txt	LTP382	ltpFR2	2	2	HORNET	718	n/a	n/a	0	0	0
323428	WORD	wordpools/wasnorm_wordpool_576.txt	LTP382	ltpFR2	2	2	CUPBOARD	425	n/a	n/a	0	0	0
325978	WORD	wordpools/wasnorm_wordpool_576.txt	LTP382	ltpFR2	2	2	SCULPTURE	1258	n/a	n/a	0	0	0
328711	WORD	wordpools/wasnorm_wordpool_576.txt	LTP382	ltpFR2	2	2	LAGOON	795	n/a	n/a	0	0	0
331295	WORD	wordpools/wasnorm_wordpool_576.txt	LTP382	ltpFR2	2	2	JELLY	755	n/a	n/a	0	0	0
333995	WORD	wordpools/wasnorm_wordpool_576.txt	LTP382	ltpFR2	2	2	ARMY	39	n/a	n/a	0	0	0
335612	START	n/a	LTP382	ltpFR2	2	n/a	n/a	n/a	3	n/a	n/a	n/a	n/a
336706	DISTRACTOR	n/a	LTP382	ltpFR2	2	2	n/a	n/a	n/a	n/a	0	0	0
336711	PROB	n/a	LTP382	ltpFR2	2	n/a	n/a	n/a	3	19	7	9	3
338395	PROB	n/a	LTP382	ltpFR2	2	n/a	n/a	n/a	3	11	1	9	1
339761	PROB	n/a	LTP382	ltpFR2	2	n/a	n/a	n/a	3	14	3	7	4
341096	PROB	n/a	LTP382	ltpFR2	2	n/a	n/a	n/a	3	17	4	6	7
342611	PROB	n/a	LTP382	ltpFR2	2	n/a	n/a	n/a	3	11	3	5	4
344661	PROB	n/a	LTP382	ltpFR2	2	n/a	n/a	n/a	3	12	7	4	1
347744	PROB	n/a	LTP382	ltpFR2	2	n/a	n/a	n/a	3	15	8	5	2
348978	PROB	n/a	LTP382	ltpFR2	2	n/a	n/a	n/a	3	17	5	4	8
352461	PROB	n/a	LTP382	ltpFR2	2	n/a	n/a	n/a	3	13	6	6	1
354211	PROB	n/a	LTP382	ltpFR2	2	n/a	n/a	n/a	3	6	3	1	2
356278	PROB	n/a	LTP382	ltpFR2	2	n/a	n/a	n/a	3	19	5	9	5
358094	STOP	n/a	LTP382	ltpFR2	2	n/a	n/a	n/a	3	n/a	n/a	n/a	n/a
361395	REC_START	n/a	LTP382	ltpFR2	2	2	n/a	n/a	n/a	n/a	0	0	0
362515	REC_WORD	wordpools/wasnorm_wordpool_576.txt	LTP382	ltpFR2	2	2	MEATBALL	-1	n/a	n/a	0	0	0
363768	REC_WORD	wordpools/wasnorm_wordpool_576.txt	LTP382	ltpFR2	2	2	MARKET	871	n/a	n/a	0	0	0
365080	REC_WORD	wordpools/wasnorm_wordpool_576.txt	LTP382	ltpFR2	2	2	SWIMMER	1420	n/a	n/a	0	0	0
366420	REC_WORD	wordpools/wasnorm_wordpool_576.txt	LTP382	ltpFR2	2	2	FREEZER	604	n/a	n/a	0	0	0
367857	REC_WORD	wordpools/wasnorm_wordpool_576.txt	LTP382	ltpFR2	2	2	SCARF	1246	n/a	n/a	0	0	0
369568	REC_WORD	wordpools/wasnorm_wordpool_576.txt	LTP382	ltpFR2	2	2	HORNET	718	n/a	n/a	0	0	0
370947	REC_WORD	wordpools/wasnorm_wordpool_576.txt	LTP382	ltpFR2	2	2	HONEY	713	n/a	n/a	0	0	0
451843	DISTRACTOR	n/a	LTP382	ltpFR2	2	3	n/a	n/a	n/a	n/a	0	0	0
451843	START	n/a	LTP382	ltpFR2	2	n/a	n/a	n/a	4	n/a	n/a	n/a	n/a
451859	PROB	n/a	LTP382	ltpFR2	2	n/a	n/a	n/a	4	18	5	5	8
453743	PROB	n/a	LTP382	ltpFR2	2	n/a	n/a	n/a	4	10	1	3	6
456593	PROB	n/a	LTP382	ltpFR2	2	n/a	n/a	n/a	4	22	7	9	6
460976	PROB	n/a	LTP382	ltpFR2	2	n/a	n/a	n/a	4	18	9	5	4
463376	PROB	n/a	LTP382	ltpFR2	2	n/a	n/a	n/a	4	9	2	5	2
465576	PROB	n/a	LTP382	ltpFR2	2	n/a	n/a	n/a	4	15	5	8	2
467110	PROB	n/a	LTP382	ltpFR2	2	n/a	n/a	n/a	4	8	2	4	2
468609	PROB	n/a	LTP382	ltpFR2	2	n/a	n/a	n/a	4	14	1	6	7
470459	PROB	n/a	LTP382	ltpFR2	2	n/a	n/a	n/a	4	20	8	9	3
473110	PROB	n/a	LTP382	ltpFR2	2	n/a	n/a	n/a	4	22	7	7	8
474841	STOP	n/a	LTP382	ltpFR2	2	n/a	n/a	n/a	4	n/a	n/a	n/a	n/a
476992	WORD	wordpools/wasnorm_wordpool_576.txt	LTP382	ltpFR2	2	3	SHIRT	1287	n/a	n/a	0	0	0
479426	WORD	wordpools/wasnorm_wordpool_576.txt	LTP382	ltpFR2	2	3	PIANO	1057	n/a	n/a	0	0	0
482093	WORD	wordpools/wasnorm_wordpool_576.txt	LTP382	ltpFR2	2	3	CATCHER	258	n/a	n/a	0	0	0
484742	WORD	wordpools/wasnorm_wordpool_576.txt	LTP382	ltpFR2	2	3	VALLEY	1545	n/a	n/a	0	0	0
487326	WORD	wordpools/wasnorm_wordpool_576.txt	LTP382	ltpFR2	2	3	OYSTER	995	n/a	n/a	0	0	0
490143	WORD	wordpools/wasnorm_wordpool_576.txt	LTP382	ltpFR2	2	3	WAGON	1578	n/a	n/a	0	0	0
492859	WORD	wordpools/wasnorm_wordpool_576.txt	LTP382	ltpFR2	2	3	SADDLE	1221	n/a	n/a	0	0	0
495526	WORD	wordpools/wasnorm_wordpool_576.txt	LTP382	ltpFR2	2	3	ULCER	1533	n/a	n/a	0	0	0
498076	WORD	wordpools/wasnorm_wordpool_576.txt	LTP382	ltpFR2	2	3	HOUND	724	n/a	n/a	0	0	0
500559	WORD	wordpools/wasnorm_wordpool_576.txt	LTP382	ltpFR2	2	3	MISSILE	900	n/a	n/a	0	0	0
503225	WORD	wordpools/wasnorm_wordpool_576.txt	LTP382	ltpFR2	2	3	BOARD	143	n/a	n/a	0	0	0
506009	WORD	wordpools/wasnorm_wordpool_576.txt	LTP382	ltpFR2	2	3	TURKEY	1520	n/a	n/a	0	0	0
508742	WORD	wordpools/wasnorm_wordpool_576.txt	LTP382	ltpFR2	2	3	LONDON	843	n/a	n/a	0	0	0
511492	WORD	wordpools/wasnorm_wordpool_576.txt	LTP382	ltpFR2	2	3	CROWN	415	n/a	n/a	0	0	0
513992	WORD	wordpools/wasnorm_wordpool_576.txt	LTP382	ltpFR2	2	3	SERVER	1272	n/a	n/a	0	0	0
516575	WORD	wordpools/wasnorm_wordpool_576.txt	LTP382	ltpFR2	2	3	HOSTESS	723	n/a	n/a	0	0	0
519159	WORD	wordpools/wasnorm_wordpool_576.txt	LTP382	ltpFR2	2	3	MOTOR	922	n/a	n/a	0	0	0
521842	WORD	wordpools/wasnorm_wordpool_576.txt	LTP382	ltpFR2	2	3	BUG	187	n/a	n/a	0	0	0
524458	WORD	wordpools/wasnorm_wordpool_576.txt	LTP382	ltpFR2	2	3	DENTIST	447	n/a	n/a	0	0	0
526925	WORD	wordpools/wasnorm_wordpool_576.txt	LTP382	ltpFR2	2	3	ANTLER	29	n/a	n/a	0	0	0
529375	WORD	wordpools/wasnorm_wordpool_576.txt	LTP382	ltpFR2	2	3	CABBAGE	210	n/a	n/a	0	0	0
532008	WORD	wordpools/wasnorm_wordpool_576.txt	LTP382	ltpFR2	2	3	PADDLE	1000	n/a	n/a	0	0	0
534675	WORD	wordpools/wasnorm_wordpool_576.txt	LTP382	ltpFR2	2	3	NIGHTGOWN	953	n/a	n/a	0	0	0
537275	WORD	wordpools/wasnorm_wordpool_576.txt	LTP382	ltpFR2	2	3	BRACES	164	n/a	n/a	0	0	0
538892	START	n/a	LTP382	ltpFR2	2	n/a	n/a	n/a	5	n/a	n/a	n/a	n/a
539694	DISTRACTOR	n/a	LTP382	ltpFR2	2	3	n/a	n/a	n/a	n/a	0	0	0
539708	PROB	n/a	LTP382	ltpFR2	2	n/a	n/a	n/a	5	12	4	4	4
541658	PROB	n/a	LTP382	ltpFR2	2	n/a	n/a	n/a	5	22	8	6	8
545225	PROB	n/a	LTP382	ltpFR2	2	n/a	n/a	n/a	5	9	5	1	3
547059	PROB	n/a	LTP382	ltpFR2	2	n/a	n/a	n/a	5	12	1	4	7
548975	PROB	n/a	LTP382	ltpFR2	2	n/a	n/a	n/a	5	16	9	3	4
552708	PROB	n/a	LTP382	ltpFR2	2	n/a	n/a	n/a	5	22	9	9	4
554658	PROB	n/a	LTP382	ltpFR2	2	n/a	n/a	n/a	5	8	2	3	3
556741	PROB	n/a	LTP382	ltpFR2	2	n/a	n/a	n/a	5	9	3	3	3
557874	PROB	n/a	LTP382	ltpFR2	2	n/a	n/a	n/a	5	13	4	6	3
559658	PROB	n/a	LTP382	ltpFR2	2	n/a	n/a	n/a	5	12	3	7	2
562891	STOP	n/a	LTP382	ltpFR2	2	n/a	n/a	n/a	5	n/a	n/a	n/a	n/a
564742	REC_START	n/a	LTP382	ltpFR2	2	3	n/a	n/a	n/a	n/a	0	0	0
565984	REC_WORD	wordpools/wasnorm_wordpool_576.txt	LTP382	ltpFR2	2	3	SHIRT	1287	n/a	n/a	0	0	0
567281	REC_WORD	wordpools/wasnorm_wordpool_576.txt	LTP382	ltpFR2	2	3	MISSILE	900	n/a	n/a	0	0	0
568631	REC_WORD	wordpools/wasnorm_wordpool_576.txt	LTP382	ltpFR2	2	3	VALLEY	1545	n/a	n/a	0	0	0
570073	REC_WORD	wordpools/wasnorm_wordpool_576.txt	LTP382	ltpFR2	2	3	CABBAGE	210	n/a	n/a	0	0	0
571366	REC_WORD	wordpools/wasnorm_wordpool_576.txt	LTP382	ltpFR2	2	3	NIGHTGOWN	953	n/a	n/a	0	0	0
572565	REC_WORD	wordpools/wasnorm_wordpool_576.txt	LTP382	ltpFR2	2	3	BRACES	164	n/a	n/a	0	0	0
588297	REC_WORD	wordpools/wasnorm_wordpool_576.txt	LTP382	ltpFR2	2	3	LONDON	843	n/a	n/a	0	0	0
655223	DISTRACTOR	n/a	LTP382	ltpFR2	2	4	n/a	n/a	n/a	n/a	0	0	0
655223	START	n/a	LTP382	ltpFR2	2	n/a	n/a	n/a	6	n/a	n/a	n/a	n/a
655240	PROB	n/a	LTP382	ltpFR2	2	n/a	n/a	n/a	6	9	5	3	1
656690	PROB	n/a	LTP382	ltpFR2	2	n/a	n/a	n/a	6	20	5	7	8
658390	PROB	n/a	LTP382	ltpFR2	2	n/a	n/a	n/a	6	13	8	2	3
659956	PROB	n/a	LTP382	ltpFR2	2	n/a	n/a	n/a	6	20	6	7	7
662256	PROB	n/a	LTP382	ltpFR2	2	n/a	n/a	n/a	6	23	9	5	9
664090	PROB	n/a	LTP382	ltpFR2	2	n/a	n/a	n/a	6	20	8	4	8
665756	PROB	n/a	LTP382	ltpFR2	2	n/a	n/a	n/a	6	11	7	1	3
668057	PROB	n/a	LTP382	ltpFR2	2	n/a	n/a	n/a	6	15	4	5	6
669773	PROB	n/a	LTP382	ltpFR2	2	n/a	n/a	n/a	6	12	2	7	3
671256	PROB	n/a	LTP382	ltpFR2	2	n/a	n/a	n/a	6	9	4	4	1
672589	PROB	n/a	LTP382	ltpFR2	2	n/a	n/a	n/a	6	10	2	6	2
674823	PROB	n/a	LTP382	ltpFR2	2	n/a	n/a	n/a	6	7	4	1	2
679223	STOP	n/a	LTP382	ltpFR2	2	n/a	n/a	n/a	6	n/a	n/a	n/a	n/a
680190	WORD	wordpools/wasnorm_wordpool_576.txt	LTP382	ltpFR2	2	4	LUMBER	848	n/a	n/a	0	0	0
682756	WORD	wordpools/wasnorm_wordpool_576.txt	LTP382	ltpFR2	2	4	PARENT	1013	n/a	n/a	0	0	0
685190	WORD	wordpools/wasnorm_wordpool_576.txt	LTP382	ltpFR2	2	4	CHILD	299	n/a	n/a	0	0	0
687956	WORD	wordpools/wasnorm_wordpool_576.txt	LTP382	ltpFR2	2	4	KNIFE	785	n/a	n/a	0	0	0
690772	WORD	wordpools/wasnorm_wordpool_576.txt	LTP382	ltpFR2	2	4	EYELASH	546	n/a	n/a	0	0	0
693422	WORD	wordpools/wasnorm_wordpool_576.txt	LTP382	ltpFR2	2	4	PATROL	1027	n/a	n/a	0	0	0
695989	WORD	wordpools/wasnorm_wordpool_576.txt	LTP382	ltpFR2	2	4	FIDDLE	561	n/a	n/a	0	0	0
698772	WORD	wordpools/wasnorm_wordpool_576.txt	LTP382	ltpFR2	2	4	LIPSTICK	829	n/a	n/a	0	0	0
701505	WORD	wordpools/wasnorm_wordpool_576.txt	LTP382	ltpFR2	2	4	PILOT	1070	n/a	n/a	0	0	0
704106	WORD	wordpools/wasnorm_wordpool_576.txt	LTP382	ltpFR2	2	4	STONE	1385	n/a	n/a	0	0	0
706756	WORD	wordpools/wasnorm_wordpool_576.txt	LTP382	ltpFR2	2	4	KIDNEY	776	n/a	n/a	0	0	0
709439	WORD	wordpools/wasnorm_wordpool_576.txt	LTP382	ltpFR2	2	4	YACHT	1629	n/a	n/a	0	0	0
712123	WORD	wordpools/wasnorm_wordpool_576.txt	LTP382	ltpFR2	2	4	RAFT	1159	n/a	n/a	0	0	0
714589	WORD	wordpools/wasnorm_wordpool_576.txt	LTP382	ltpFR2	2	4	BOYFRIEND	162	n/a	n/a	0	0	0
717056	WORD	wordpools/wasnorm_wordpool_576.txt	LTP382	ltpFR2	2	4	BOUQUET	157	n/a	n/a	0	0	0
719489	WORD	wordpools/wasnorm_wordpool_576.txt	LTP382	ltpFR2	2	4	BEAVER	109	n/a	n/a	0	0	0
722189	WORD	wordpools/wasnorm_wordpool_576.txt	LTP382	ltpFR2	2	4	OFFICE	972	n/a	n/a	0	0	0
724838	WORD	wordpools/wasnorm_wordpool_576.txt	LTP382	ltpFR2	2	4	ROD	1203	n/a	n/a	0	0	0
727505	WORD	wordpools/wasnorm_wordpool_576.txt	LTP382	ltpFR2	2	4	WHISTLE	1606	n/a	n/a	0	0	0
729972	WORD	wordpools/wasnorm_wordpool_576.txt	LTP382	ltpFR2	2	4	LADY	794	n/a	n/a	0	0	0
732638	WORD	wordpools/wasnorm_wordpool_576.txt	LTP382	ltpFR2	2	4	DUSTPAN	509	n/a	n/a	0	0	0
735189	WORD	wordpools/wasnorm_wordpool_576.txt	LTP382	ltpFR2	2	4	CHIPMUNK	304	n/a	n/a	0	0	0
737772	WORD	wordpools/wasnorm_wordpool_576.txt	LTP382	ltpFR2	2	4	BEAST	108	n/a	n/a	0	0	0
740405	WORD	wordpools/wasnorm_wordpool_576.txt	LTP382	ltpFR2	2	4	CIGAR	308	n/a	n/a	0	0	0
742022	START	n/a	LTP382	ltpFR2	2	n/a	n/a	n/a	7	n/a	n/a	n/a	n/a
743198	DISTRACTOR	n/a	LTP382	ltpFR2	2	4	n/a	n/a	n/a	n/a	0	0	0
743205	PROB	n/a	LTP382	ltpFR2	2	n/a	n/a	n/a	7	22	3	9	9
746505	PROB	n/a	LTP382	ltpFR2	2	n/a	n/a	n/a	7	13	7	2	4
749738	PROB	n/a	LTP382	ltpFR2	2	n/a	n/a	n/a	7	23	9	5	9
751538	PROB	n/a	LTP382	ltpFR2	2	n/a	n/a	n/a	7	23	9	5	9
752721	PROB	n/a	LTP382	ltpFR2	2	n/a	n/a	n/a	7	15	5	4	6
754338	PROB	n/a	LTP382	ltpFR2	2	n/a	n/a	n/a	7	15	5	4	6
755571	PROB	n/a	LTP382	ltpFR2	2	n/a	n/a	n/a	7	13	5	1	7
758471	PROB	n/a	LTP382	ltpFR2	2	n/a	n/a	n/a	7	10	2	3	5
761788	PROB	n/a	LTP382	ltpFR2	2	n/a	n/a	n/a	7	6	1	1	4
763156	PROB	n/a	LTP382	ltpFR2	2	n/a	n/a	n/a	7	22	6	8	8
765770	STOP	n/a	LTP382	ltpFR2	2	n/a	n/a	n/a	7	n/a	n/a	n/a	n/a
767889	REC_START	n/a	LTP382	ltpFR2	2	4	n/a	n/a	n/a	n/a	0	0	0
769507	REC_WORD	wordpools/wasnorm_wordpool_576.txt	LTP382	ltpFR2	2	4	LUMBER	848	n/a	n/a	0	0	0
770707	REC_WORD	wordpools/wasnorm_wordpool_576.txt	LTP382	ltpFR2	2	4	PARENT	1013	n/a	n/a	0	0	0
771878	REC_WORD	wordpools/wasnorm_wordpool_576.txt	LTP382	ltpFR2	2	4	CHILD	299	n/a	n/a	0	0	0
773097	REC_WORD	wordpools/wasnorm_wordpool_576.txt	LTP382	ltpFR2	2	4	KNIFE	785	n/a	n/a	0	0	0
774320	REC_WORD	wordpools/wasnorm_wordpool_576.txt	LTP382	ltpFR2	2	4	WHISTLE	1606	n/a	n/a	0	0	0
777820	REC_WORD	wordpools/wasnorm_wordpool_576.txt	LTP382	ltpFR2	2	4	BOYFRIEND	162	n/a	n/a	0	0	0
786545	REC_WORD	wordpools/wasnorm_wordpool_576.txt	LTP382	ltpFR2	2	4	EYE	545	n/a	n/a	0	0	0
858353	WORD	wordpools/wasnorm_wordpool_576.txt	LTP382	ltpFR2	2	5	SUNSET	1408	n/a	n/a	0	0	0
860970	WORD	wordpools/wasnorm_wordpool_576.txt	LTP382	ltpFR2	2	5	RATTLE	1170	n/a	n/a	0	0	0
863486	WORD	wordpools/wasnorm_wordpool_576.txt	LTP382	ltpFR2	2	5	NOTEBOOK	959	n/a	n/a	0	0	0
866171	WORD	wordpools/wasnorm_wordpool_576.txt	LTP382	ltpFR2	2	5	SERVANT	1271	n/a	n/a	0	0	0
868936	WORD	wordpools/wasnorm_wordpool_576.txt	LTP382	ltpFR2	2	5	JUDGE	761	n/a	n/a	0	0	0
871570	WORD	wordpools/wasnorm_wordpool_576.txt	LTP382	ltpFR2	2	5	AIRPLANE	12	n/a	n/a	0	0	0
874003	WORD	wordpools/wasnorm_wordpool_576.txt	LTP382	ltpFR2	2	5	PEDAL	1037	n/a	n/a	0	0	0
876436	WORD	wordpools/wasnorm_wordpool_576.txt	LTP382	ltpFR2	2	5	GRILL	661	n/a	n/a	0	0	0
879170	WORD	wordpools/wasnorm_wordpool_576.txt	LTP382	ltpFR2	2	5	BRICK	172	n/a	n/a	0	0	0
881703	WORD	wordpools/wasnorm_wordpool_576.txt	LTP382	ltpFR2	2	5	DRILL	497	n/a	n/a	0	0	0
884453	WORD	wordpools/wasnorm_wordpool_576.txt	LTP382	ltpFR2	2	5	WRENCH	1625	n/a	n/a	0	0	0
886936	WORD	wordpools/wasnorm_wordpool_576.txt	LTP382	ltpFR2	2	5	PROTON	1132	n/a	n/a	0	0	0
889669	WORD	wordpools/wasnorm_wordpool_576.txt	LTP382	ltpFR2	2	5	SNAKE	1333	n/a	n/a	0	0	0
892336	WORD	wordpools/wasnorm_wordpool_576.txt	LTP382	ltpFR2	2	5	SCOTCH	1251	n/a	n/a	0	0	0
894953	WORD	wordpools/wasnorm_wordpool_576.txt	LTP382	ltpFR2	2	5	OZONE	996	n/a	n/a	0	0	0
897719	WORD	wordpools/wasnorm_wordpool_576.txt	LTP382	ltpFR2	2	5	COLLEGE	346	n/a	n/a	0	0	0
900536	WORD	wordpools/wasnorm_wordpool_576.txt	LTP382	ltpFR2	2	5	DORM	488	n/a	n/a	0	0	0
903153	WORD	wordpools/wasnorm_wordpool_576.txt	LTP382	ltpFR2	2	5	STAR	1373	n/a	n/a	0	0	0
905986	WORD	wordpools/wasnorm_wordpool_576.txt	LTP382	ltpFR2	2	5	MEAT	883	n/a	n/a	0	0	0
908502	WORD	wordpools/wasnorm_wordpool_576.txt	LTP382	ltpFR2	2	5	BALLOON	75	n/a	n/a	0	0	0
911187	WORD	wordpools/wasnorm_wordpool_576.txt	LTP382	ltpFR2	2	5	SHELTER	1282	n/a	n/a	0	0	0
913702	WORD	wordpools/wasnorm_wordpool_576.txt	LTP382	ltpFR2	2	5	CONCERT	360	n/a	n/a	0	0	0
916519	WORD	wordpools/wasnorm_wordpool_576.txt	LTP382	ltpFR2	2	5	ELBOW	520	n/a	n/a	0	0	0
919269	WORD	wordpools/wasnorm_wordpool_576.txt	LTP382	ltpFR2	2	5	WRIST	1626	n/a	n/a	0	0	0
920886	START	n/a	LTP382	ltpFR2	2	n/a	n/a	n/a	8	n/a	n/a	n/a	n/a
922050	DISTRACTOR	n/a	LTP382	ltpFR2	2	5	n/a	n/a	n/a	n/a	0	0	0
922053	PROB	n/a	LTP382	ltpFR2	2	n/a	n/a	n/a	8	23	8	9	6
925170	PROB	n/a	LTP382	ltpFR2	2	n/a	n/a	n/a	8	12	7	4	1
926969	PROB	n/a	LTP382	ltpFR2	2	n/a	n/a	n/a	8	11	1	7	3
928452	PROB	n/a	LTP382	ltpFR2	2	n/a	n/a	n/a	8	13	1	8	2
930302	PROB	n/a	LTP382	ltpFR2	2	n/a	n/a	n/a	8	12	4	6	2
932218	PROB	n/a	LTP382	ltpFR2	2	n/a	n/a	n/a	8	14	6	2	6
934452	PROB	n/a	LTP382	ltpFR2	2	n/a	n/a	n/a	8	11	5	5	1
935469	PROB	n/a	LTP382	ltpFR2	2	n/a	n/a	n/a	8	13	1	8	4
937885	PROB	n/a	LTP382	ltpFR2	2	n/a	n/a	n/a	8	11	5	5	1
938935	PROB	n/a	LTP382	ltpFR2	2	n/a	n/a	n/a	8	6	3	1	2
941602	PROB	n/a	LTP382	ltpFR2	2	n/a	n/a	n/a	8	16	5	3	8
943375	STOP	n/a	LTP382	ltpFR2	2	n/a	n/a	n/a	8	n/a	n/a	n/a	n/a
946685	REC_START	n/a	LTP382	ltpFR2	2	5	n/a	n/a	n/a	n/a	0	0	0
948900	REC_WORD	wordpools/wasnorm_wordpool_576.txt	LTP382	ltpFR2	2	5	RATTLE	1170	n/a	n/a	0	0	0
949350	REC_WORD	wordpools/wasnorm_wordpool_576.txt	LTP382	ltpFR2	2	5	SNAKE	1333	n/a	n/a	0	0	0
951187	REC_WORD	wordpools/wasnorm_wordpool_576.txt	LTP382	ltpFR2	2	5	COLLEGE	346	n/a	n/a	0	0	0
951810	REC_WORD	wordpools/wasnorm_wordpool_576.txt	LTP382	ltpFR2	2	5	DORM	488	n/a	n/a	0	0	0
953557	REC_WORD	wordpools/wasnorm_wordpool_576.txt	LTP382	ltpFR2	2	5	BALLOON	75	n/a	n/a	0	0	0
954826	REC_WORD	wordpools/wasnorm_wordpool_576.txt	LTP382	ltpFR2	2	5	SHELTER	1282	n/a	n/a	0	0	0
956497	REC_WORD	wordpools/wasnorm_wordpool_576.txt	LTP382	ltpFR2	2	5	PEDAL	1037	n/a	n/a	0	0	0
958039	REC_WORD	wordpools/wasnorm_wordpool_576.txt	LTP382	ltpFR2	2	5	WRENCH	1625	n/a	n/a	0	0	0
966567	REC_WORD	wordpools/wasnorm_wordpool_576.txt	LTP382	ltpFR2	2	5	SUNSET	1408	n/a	n/a	0	0	0
1037151	WORD	wordpools/wasnorm_wordpool_576.txt	LTP382	ltpFR2	2	6	HAWK	692	n/a	n/a	0	0	0
1039600	WORD	wordpools/wasnorm_wordpool_576.txt	LTP382	ltpFR2	2	6	CITRUS	313	n/a	n/a	0	0	0
1042350	WORD	wordpools/wasnorm_wordpool_576.txt	LTP382	ltpFR2	2	6	COD	340	n/a	n/a	0	0	0
1045017	WORD	wordpools/wasnorm_wordpool_576.txt	LTP382	ltpFR2	2	6	SALMON	1227	n/a	n/a	0	0	0
1047700	WORD	wordpools/wasnorm_wordpool_576.txt	LTP382	ltpFR2	2	6	COCOON	339	n/a	n/a	0	0	0
1050283	WORD	wordpools/wasnorm_wordpool_576.txt	LTP382	ltpFR2	2	6	SKILLET	1317	n/a	n/a	0	0	0
1053101	WORD	wordpools/wasnorm_wordpool_576.txt	LTP382	ltpFR2	2	6	COUSIN	392	n/a	n/a	0	0	0
1055633	WORD	wordpools/wasnorm_wordpool_576.txt	LTP382	ltpFR2	2	6	WORKER	1621	n/a	n/a	0	0	0
1058084	WORD	wordpools/wasnorm_wordpool_576.txt	LTP382	ltpFR2	2	6	NECKLACE	940	n/a	n/a	0	0	0
1060900	WORD	wordpools/wasnorm_wordpool_576.txt	LTP382	ltpFR2	2	6	THREAD	1460	n/a	n/a	0	0	0
1063333	WORD	wordpools/wasnorm_wordpool_576.txt	LTP382	ltpFR2	2	6	CONTRACT	368	n/a	n/a	0	0	0
1065817	WORD	wordpools/wasnorm_wordpool_576.txt	LTP382	ltpFR2	2	6	WASP	1593	n/a	n/a	0	0	0
1068583	WORD	wordpools/wasnorm_wordpool_576.txt	LTP382	ltpFR2	2	6	CLOUD	328	n/a	n/a	0	0	0
1071067	WORD	wordpools/wasnorm_wordpool_576.txt	LTP382	ltpFR2	2	6	SUMMIT	1405	n/a	n/a	0	0	0
1073850	WORD	wordpools/wasnorm_wordpool_576.txt	LTP382	ltpFR2	2	6	AUTHOR	61	n/a	n/a	0	0	0
1076416	WORD	wordpools/wasnorm_wordpool_576.txt	LTP382	ltpFR2	2	6	ORANGE	980	n/a	n/a	0	0	0
1078933	WORD	wordpools/wasnorm_wordpool_576.txt	LTP382	ltpFR2	2	6	SHOULDER	1294	n/a	n/a	0	0	0
1081750	WORD	wordpools/wasnorm_wordpool_576.txt	LTP382	ltpFR2	2	6	CRUTCH	417	n/a	n/a	0	0	0
1084266	WORD	wordpools/wasnorm_wordpool_576.txt	LTP382	ltpFR2	2	6	TEMPLE	1448	n/a	n/a	0	0	0
1086766	WORD	wordpools/wasnorm_wordpool_576.txt	LTP382	ltpFR2	2	6	IDOL	733	n/a	n/a	0	0	0
1089349	WORD	wordpools/wasnorm_wordpool_576.txt	LTP382	ltpFR2	2	6	SLOPE	1328	n/a	n/a	0	0	0
1091866	WORD	wordpools/wasnorm_wordpool_576.txt	LTP382	ltpFR2	2	6	GIRL	637	n/a	n/a	0	0	0
1094366	WORD	wordpools/wasnorm_wordpool_576.txt	LTP382	ltpFR2	2	6	PLIERS	1089	n/a	n/a	0	0	0
1097134	WORD	wordpools/wasnorm_wordpool_576.txt	LTP382	ltpFR2	2	6	CANYON	235	n/a	n/a	0	0	0
1098749	START	n/a	LTP382	ltpFR2	2	n/a	n/a	n/a	9	n/a	n/a	n/a	n/a
1099948	DISTRACTOR	n/a	LTP382	ltpFR2	2	6	n/a	n/a	n/a	n/a	0	0	0
1099966	PROB	n/a	LTP382	ltpFR2	2	n/a	n/a	n/a	9	15	8	4	3
1102233	PROB	n/a	LTP382	ltpFR2	2	n/a	n/a	n/a	9	15	1	6	8
1105100	PROB	n/a	LTP382	ltpFR2	2	n/a	n/a	n/a	9	18	8	4	6
1106849	PROB	n/a	LTP382	ltpFR2	2	n/a	n/a	n/a	9	11	1	9	1
1108216	PROB	n/a	LTP382	ltpFR2	2	n/a	n/a	n/a	9	21	8	8	5
1110200	PROB	n/a	LTP382	ltpFR2	2	n/a	n/a	n/a	9	11	5	2	4
1112150	PROB	n/a	LTP382	ltpFR2	2	n/a	n/a	n/a	9	17	5	6	6
1115200	PROB	n/a	LTP382	ltpFR2	2	n/a	n/a	n/a	9	12	6	1	5
1116966	PROB	n/a	LTP382	ltpFR2	2	n/a	n/a	n/a	9	8	1	3	4
1118666	PROB	n/a	LTP382	ltpFR2	2	n/a	n/a	n/a	9	16	3	5	8
1120649	PROB	n/a	LTP382	ltpFR2	2	n/a	n/a	n/a	9	11	5	2	4
1122389	STOP	n/a	LTP382	ltpFR2	2	n/a	n/a	n/a	9	n/a	n/a	n/a	n/a
1124633	REC_START	n/a	LTP382	ltpFR2	2	6	n/a	n/a	n/a	n/a	0	0	0
1126634	REC_WORD	wordpools/wasnorm_wordpool_576.txt	LTP382	ltpFR2	2	6	ORANGE	980	n/a	n/a	0	0	0
1127632	REC_WORD	wordpools/wasnorm_wordpool_576.txt	LTP382	ltpFR2	2	6	CITRUS	313	n/a	n/a	0	0	0
1129206	REC_WORD	wordpools/wasnorm_wordpool_576.txt	LTP382	ltpFR2	2	6	HAWK	692	n/a	n/a	0	0	0
1130741	REC_WORD	wordpools/wasnorm_wordpool_576.txt	LTP382	ltpFR2	2	6	COD	340	n/a	n/a	0	0	0
1131643	REC_WORD	wordpools/wasnorm_wordpool_576.txt	LTP382	ltpFR2	2	6	SALMON	1227	n/a	n/a	0	0	0
1133031	REC_WORD	wordpools/wasnorm_wordpool_576.txt	LTP382	ltpFR2	2	6	SKILLET	1317	n/a	n/a	0	0	0
1134559	REC_WORD	wordpools/wasnorm_wordpool_576.txt	LTP382	ltpFR2	2	6	GIRL	637	n/a	n/a	0	0	0
1135922	REC_WORD	wordpools/wasnorm_wordpool_576.txt	LTP382	ltpFR2	2	6	NECKLACE	940	n/a	n/a	0	0	0
1215099	DISTRACTOR	n/a	LTP382	ltpFR2	2	7	n/a	n/a	n/a	n/a	0	0	0
1215099	START	n/a	LTP382	ltpFR2	2	n/a	n/a	n/a	10	n/a	n/a	n/a	n/a
1215115	PROB	n/a	LTP382	ltpFR2	2	n/a	n/a	n/a	10	18	8	6	4
1216914	PROB	n/a	LTP382	ltpFR2	2	n/a	n/a	n/a	10	22	6	9	6
1218997	PROB	n/a	LTP382	ltpFR2	2	n/a	n/a	n/a	10	19	6	9	4
1222132	PROB	n/a	LTP382	ltpFR2	2	n/a	n/a	n/a	10	17	2	7	8
1225364	PROB	n/a	LTP382	ltpFR2	2	n/a	n/a	n/a	10	17	7	2	8
1228447	PROB	n/a	LTP382	ltpFR2	2	n/a	n/a	n/a	10	13	6	2	5
1230764	PROB	n/a	LTP382	ltpFR2	2	n/a	n/a	n/a	10	15	4	7	4
1232747	PROB	n/a	LTP382	ltpFR2	2	n/a	n/a	n/a	10	13	7	1	5
1234731	PROB	n/a	LTP382	ltpFR2	2	n/a	n/a	n/a	10	13	5	4	4
1236165	PROB	n/a	LTP382	ltpFR2	2	n/a	n/a	n/a	10	13	1	9	3
1239099	STOP	n/a	LTP382	ltpFR2	2	n/a	n/a	n/a	10	n/a	n/a	n/a	n/a
1240014	WORD	wordpools/wasnorm_wordpool_576.txt	LTP382	ltpFR2	2	7	DRESSER	496	n/a	n/a	0	0	0
1242480	WORD	wordpools/wasnorm_wordpool_576.txt	LTP382	ltpFR2	2	7	PEBBLE	1035	n/a	n/a	0	0	0
1245081	WORD	wordpools/wasnorm_wordpool_576.txt	LTP382	ltpFR2	2	7	PECAN	1036	n/a	n/a	0	0	0
1247530	WORD	wordpools/wasnorm_wordpool_576.txt	LTP382	ltpFR2	2	7	PUPPY	1144	n/a	n/a	0	0	0
1250280	WORD	wordpools/wasnorm_wordpool_576.txt	LTP382	ltpFR2	2	7	BATHTUB	100	n/a	n/a	0	0	0
1253098	WORD	wordpools/wasnorm_wordpool_576.txt	LTP382	ltpFR2	2	7	MOTEL	919	n/a	n/a	0	0	0
1255630	WORD	wordpools/wasnorm_wordpool_576.txt	LTP382	ltpFR2	2	7	STOVE	1388	n/a	n/a	0	0	0
1258413	WORD	wordpools/wasnorm_wordpool_576.txt	LTP382	ltpFR2	2	7	SUITCASE	1403	n/a	n/a	0	0	0
1261114	WORD	wordpools/wasnorm_wordpool_576.txt	LTP382	ltpFR2	2	7	MARSH	874	n/a	n/a	0	0	0
1263830	WORD	wordpools/wasnorm_wordpool_576.txt	LTP382	ltpFR2	2	7	PUDDLE	1140	n/a	n/a	0	0	0
1266347	WORD	wordpools/wasnorm_wordpool_576.txt	LTP382	ltpFR2	2	7	BEEF	113	n/a	n/a	0	0	0
1268930	WORD	wordpools/wasnorm_wordpool_576.txt	LTP382	ltpFR2	2	7	LEADER	807	n/a	n/a	0	0	0
1271497	WORD	wordpools/wasnorm_wordpool_576.txt	LTP382	ltpFR2	2	7	PERMIT	1051	n/a	n/a	0	0	0
1274181	WORD	wordpools/wasnorm_wordpool_576.txt	LTP382	ltpFR2	2	7	OX	994	n/a	n/a	0	0	0
1276963	WORD	wordpools/wasnorm_wordpool_576.txt	LTP382	ltpFR2	2	7	PARTNER	1017	n/a	n/a	0	0	0
1279613	WORD	wordpools/wasnorm_wordpool_576.txt	LTP382	ltpFR2	2	7	HORSE	719	n/a	n/a	0	0	0
1282097	WORD	wordpools/wasnorm_wordpool_576.txt	LTP382	ltpFR2	2	7	SHELF	1280	n/a	n/a	0	0	0
1284546	WORD	wordpools/wasnorm_wordpool_576.txt	LTP382	ltpFR2	2	7	COOK	372	n/a	n/a	0	0	0
1287213	WORD	wordpools/wasnorm_wordpool_576.txt	LTP382	ltpFR2	2	7	FLIPPER	580	n/a	n/a	0	0	0
1289763	WORD	wordpools/wasnorm_wordpool_576.txt	LTP382	ltpFR2	2	7	MUSTARD	935	n/a	n/a	0	0	0
1292346	WORD	wordpools/wasnorm_wordpool_576.txt	LTP382	ltpFR2	2	7	SHORTCAKE	1292	n/a	n/a	0	0	0
1294946	WORD	wordpools/wasnorm_wordpool_576.txt	LTP382	ltpFR2	2	7	PASTRY	1022	n/a	n/a	0	0	0
1297513	WORD	wordpools/wasnorm_wordpool_576.txt	LTP382	ltpFR2	2	7	TART	1436	n/a	n/a	0	0	0
1300097	WORD	wordpools/wasnorm_wordpool_576.txt	LTP382	ltpFR2	2	7	SNACK	1331	n/a	n/a	0	0	0
1301713	START	n/a	LTP382	ltpFR2	2	n/a	n/a	n/a	11	n/a	n/a	n/a	n/a
1302672	DISTRACTOR	n/a	LTP382	ltpFR2	2	7	n/a	n/a	n/a	n/a	0	0	0
1302679	PROB	n/a	LTP382	ltpFR2	2	n/a	n/a	n/a	11	16	5	2	7
1305197	PROB	n/a	LTP382	ltpFR2	2	n/a	n/a	n/a	11	21	8	8	5
1308979	PROB	n/a	LTP382	ltpFR2	2	n/a	n/a	n/a	11	10	5	2	3
1311379	PROB	n/a	LTP382	ltpFR2	2	n/a	n/a	n/a	11	20	8	8	4
1313047	PROB	n/a	LTP382	ltpFR2	2	n/a	n/a	n/a	11	14	6	1	7
1314613	PROB	n/a	LTP382	ltpFR2	2	n/a	n/a	n/a	11	17	7	8	2
1317729	PROB	n/a	LTP382	ltpFR2	2	n/a	n/a	n/a	11	12	4	1	7
1320012	PROB	n/a	LTP382	ltpFR2	2	n/a	n/a	n/a	11	11	2	7	2
1321896	PROB	n/a	LTP382	ltpFR2	2	n/a	n/a	n/a	11	15	7	2	6
1323862	PROB	n/a	LTP382	ltpFR2	2	n/a	n/a	n/a	11	12	2	4	6
1325619	STOP	n/a	LTP382	ltpFR2	2	n/a	n/a	n/a	11	n/a	n/a	n/a	n/a
1327596	REC_START	n/a	LTP382	ltpFR2	2	7	n/a	n/a	n/a	n/a	0	0	0
1329882	REC_WORD	wordpools/wasnorm_wordpool_576.txt	LTP382	ltpFR2	2	7	PECAN	1036	n/a	n/a	0	0	0
1331468	REC_WORD	wordpools/wasnorm_wordpool_576.txt	LTP382	ltpFR2	2	7	PUPPY	1144	n/a	n/a	0	0	0
1333538	REC_WORD	wordpools/wasnorm_wordpool_576.txt	LTP382	ltpFR2	2	7	PUDDLE	1140	n/a	n/a	0	0	0
1339237	REC_WORD	wordpools/wasnorm_wordpool_576.txt	LTP382	ltpFR2	2	7	DRESSER	496	n/a	n/a	0	0	0
1360229	REC_WORD	wordpools/wasnorm_wordpool_576.txt	LTP382	ltpFR2	2	7	BATHTUB	100	n/a	n/a	0	0	0
1418044	DISTRACTOR	n/a	LTP382	ltpFR2	2	8	n/a	n/a	n/a	n/a	0	0	0
1418044	START	n/a	LTP382	ltpFR2	2	n/a	n/a	n/a	12	n/a	n/a	n/a	n/a
1418062	PROB	n/a	LTP382	ltpFR2	2	n/a	n/a	n/a	12	9	4	1	4
1419978	PROB	n/a	LTP382	ltpFR2	2	n/a	n/a	n/a	12	23	8	8	7
1424528	PROB	n/a	LTP382	ltpFR2	2	n/a	n/a	n/a	12	9	3	5	1
1426227	PROB	n/a	LTP382	ltpFR2	2	n/a	n/a	n/a	12	15	5	1	9
1427694	PROB	n/a	LTP382	ltpFR2	2	n/a	n/a	n/a	12	17	7	7	3
1429427	PROB	n/a	LTP382	ltpFR2	2	n/a	n/a	n/a	12	17	3	6	8
1432494	PROB	n/a	LTP382	ltpFR2	2	n/a	n/a	n/a	12	19	9	1	9
1433944	PROB	n/a	LTP382	ltpFR2	2	n/a	n/a	n/a	12	13	9	2	2
1436661	PROB	n/a	LTP382	ltpFR2	2	n/a	n/a	n/a	12	10	4	5	1
1442044	STOP	n/a	LTP382	ltpFR2	2	n/a	n/a	n/a	12	n/a	n/a	n/a	n/a
1443044	WORD	wordpools/wasnorm_wordpool_576.txt	LTP382	ltpFR2	2	8	TURNIP	1521	n/a	n/a	0	0	0
1445710	WORD	wordpools/wasnorm_wordpool_576.txt	LTP382	ltpFR2	2	8	APPLE	33	n/a	n/a	0	0	0
1448195	WORD	wordpools/wasnorm_wordpool_576.txt	LTP382	ltpFR2	2	8	LETTUCE	814	n/a	n/a	0	0	0
1451010	WORD	wordpools/wasnorm_wordpool_576.txt	LTP382	ltpFR2	2	8	PACKAGE	997	n/a	n/a	0	0	0
1453610	WORD	wordpools/wasnorm_wordpool_576.txt	LTP382	ltpFR2	2	8	PANTHER	1009	n/a	n/a	0	0	0
1456410	WORD	wordpools/wasnorm_wordpool_576.txt	LTP382	ltpFR2	2	8	PREACHER	1119	n/a	n/a	0	0	0
1458944	WORD	wordpools/wasnorm_wordpool_576.txt	LTP382	ltpFR2	2	8	CABIN	211	n/a	n/a	0	0	0
1461560	WORD	wordpools/wasnorm_wordpool_576.txt	LTP382	ltpFR2	2	8	MILDEW	893	n/a	n/a	0	0	0
1464145	WORD	wordpools/wasnorm_wordpool_576.txt	LTP382	ltpFR2	2	8	WOMAN	1620	n/a	n/a	0	0	0
1466810	WORD	wordpools/wasnorm_wordpool_576.txt	LTP382	ltpFR2	2	8	CARRIAGE	248	n/a	n/a	0	0	0
1469394	WORD	wordpools/wasnorm_wordpool_576.txt	LTP382	ltpFR2	2	8	KITCHEN	778	n/a	n/a	0	0	0
1471993	WORD	wordpools/wasnorm_wordpool_576.txt	LTP382	ltpFR2	2	8	COOKBOOK	373	n/a	n/a	0	0	0
1474593	WORD	wordpools/wasnorm_wordpool_576.txt	LTP382	ltpFR2	2	8	PATIENT	1024	n/a	n/a	0	0	0
1477277	WORD	wordpools/wasnorm_wordpool_576.txt	LTP382	ltpFR2	2	8	CAMEL	223	n/a	n/a	0	0	0
1479993	WORD	wordpools/wasnorm_wordpool_576.txt	LTP382	ltpFR2	2	8	PORK	1108	n/a	n/a	0	0	0
1482593	WORD	wordpools/wasnorm_wordpool_576.txt	LTP382	ltpFR2	2	8	FRECKLE	602	n/a	n/a	0	0	0
1485327	WORD	wordpools/wasnorm_wordpool_576.txt	LTP382	ltpFR2	2	8	GLOBE	641	n/a	n/a	0	0	0
1487876	WORD	wordpools/wasnorm_wordpool_576.txt	LTP382	ltpFR2	2	8	OUTFIT	988	n/a	n/a	0	0	0
1490610	WORD	wordpools/wasnorm_wordpool_576.txt	LTP382	ltpFR2	2	8	DRESS	495	n/a	n/a	0	0	0
1493376	WORD	wordpools/wasnorm_wordpool_576.txt	LTP382	ltpFR2	2	8	COSTUME	383	n/a	n/a	0	0	0
1496010	WORD	wordpools/wasnorm_wordpool_576.txt	LTP382	ltpFR2	2	8	HOOD	714	n/a	n/a	0	0	0
1498576	WORD	wordpools/wasnorm_wordpool_576.txt	LTP382	ltpFR2	2	8	PLAZA	1088	n/a	n/a	0	0	0
1501043	WORD	wordpools/wasnorm_wordpool_576.txt	LTP382	ltpFR2	2	8	SLIME	1327	n/a	n/a	0	0	0
1503660	WORD	wordpools/wasnorm_wordpool_576.txt	LTP382	ltpFR2	2	8	CRIB	407	n/a	n/a	0	0	0
1505276	START	n/a	LTP382	ltpFR2	2	n/a	n/a	n/a	13	n/a	n/a	n/a	n/a
1506326	DISTRACTOR	n/a	LTP382	ltpFR2	2	8	n/a	n/a	n/a	n/a	0	0	0
1506343	PROB	n/a	LTP382	ltpFR2	2	n/a	n/a	n/a	13	15	2	4	9
1508593	PROB	n/a	LTP382	ltpFR2	2	n/a	n/a	n/a	13	11	2	4	5
1510493	PROB	n/a	LTP382	ltpFR2	2	n/a	n/a	n/a	13	15	6	5	4
1511843	PROB	n/a	LTP382	ltpFR2	2	n/a	n/a	n/a	13	8	6	1	1
1512976	PROB	n/a	LTP382	ltpFR2	2	n/a	n/a	n/a	13	19	8	8	3
1516443	PROB	n/a	LTP382	ltpFR2	2	n/a	n/a	n/a	13	14	2	3	9
1518026	PROB	n/a	LTP382	ltpFR2	2	n/a	n/a	n/a	13	21	5	8	8
1519643	PROB	n/a	LTP382	ltpFR2	2	n/a	n/a	n/a	13	12	7	3	2
1520876	PROB	n/a	LTP382	ltpFR2	2	n/a	n/a	n/a	13	17	3	7	7
1522459	PROB	n/a	LTP382	ltpFR2	2	n/a	n/a	n/a	13	11	5	1	5
1523876	PROB	n/a	LTP382	ltpFR2	2	n/a	n/a	n/a	13	17	9	4	4
1526110	PROB	n/a	LTP382	ltpFR2	2	n/a	n/a	n/a	13	22	7	8	7
1528202	STOP	n/a	LTP382	ltpFR2	2	n/a	n/a	n/a	13	n/a	n/a	n/a	n/a
1531127	REC_START	n/a	LTP382	ltpFR2	2	8	n/a	n/a	n/a	n/a	0	0	0
1532664	REC_WORD	wordpools/wasnorm_wordpool_576.txt	LTP382	ltpFR2	2	8	FEMALE	559	n/a	n/a	0	0	0
1533985	REC_WORD	wordpools/wasnorm_wordpool_576.txt	LTP382	ltpFR2	2	8	PREACHER	1119	n/a	n/a	0	0	0
1535239	REC_WORD	wordpools/wasnorm_wordpool_576.txt	LTP382	ltpFR2	2	8	FRECKLE	602	n/a	n/a	0	0	0
1536734	REC_WORD	wordpools/wasnorm_wordpool_576.txt	LTP382	ltpFR2	2	8	CABIN	211	n/a	n/a	0	0	0
1538138	REC_WORD	wordpools/wasnorm_wordpool_576.txt	LTP382	ltpFR2	2	8	KITCHEN	778	n/a	n/a	0	0	0
1539425	REC_WORD	wordpools/wasnorm_wordpool_576.txt	LTP382	ltpFR2	2	8	SLIME	1327	n/a	n/a	0	0	0
1541220	REC_WORD	wordpools/wasnorm_wordpool_576.txt	LTP382	ltpFR2	2	8	PORK	1108	n/a	n/a	0	0	0
1552638	REC_WORD	wordpools/wasnorm_wordpool_576.txt	LTP382	ltpFR2	2	8	TURNIP	1521	n/a	n/a	0	0	0
1572988	REC_WORD	wordpools/wasnorm_wordpool_576.txt	LTP382	ltpFR2	2	8	DRESS	495	n/a	n/a	0	0	0
1607675	REST_REWET	n/a	LTP382	ltpFR2	2	8	n/a	n/a	n/a	n/a	0	0	0
1762905	WORD	wordpools/wasnorm_wordpool_576.txt	LTP382	ltpFR2	2	9	BLACKBOARD	133	n/a	n/a	0	0	0
1765455	WORD	wordpools/wasnorm_wordpool_576.txt	LTP382	ltpFR2	2	9	CAPTIVE	240	n/a	n/a	0	0	0
1768205	WORD	wordpools/wasnorm_wordpool_576.txt	LTP382	ltpFR2	2	9	CLIMBER	323	n/a	n/a	0	0	0
1770822	WORD	wordpools/wasnorm_wordpool_576.txt	LTP382	ltpFR2	2	9	BOX	159	n/a	n/a	0	0	0
1773605	WORD	wordpools/wasnorm_wordpool_576.txt	LTP382	ltpFR2	2	9	MISTER	901	n/a	n/a	0	0	0
1776239	WORD	wordpools/wasnorm_wordpool_576.txt	LTP382	ltpFR2	2	9	TREAT	1501	n/a	n/a	0	0	0
1778822	WORD	wordpools/wasnorm_wordpool_576.txt	LTP382	ltpFR2	2	9	TROUT	1511	n/a	n/a	0	0	0
1781605	WORD	wordpools/wasnorm_wordpool_576.txt	LTP382	ltpFR2	2	9	KEEPER	769	n/a	n/a	0	0	0
1784305	WORD	wordpools/wasnorm_wordpool_576.txt	LTP382	ltpFR2	2	9	CANDY	230	n/a	n/a	0	0	0
1786905	WORD	wordpools/wasnorm_wordpool_576.txt	LTP382	ltpFR2	2	9	GLASS	639	n/a	n/a	0	0	0
1789372	WORD	wordpools/wasnorm_wordpool_576.txt	LTP382	ltpFR2	2	9	BINDER	127	n/a	n/a	0	0	0
1792022	WORD	wordpools/wasnorm_wordpool_576.txt	LTP382	ltpFR2	2	9	PAPER	1011	n/a	n/a	0	0	0
1794472	WORD	wordpools/wasnorm_wordpool_576.txt	LTP382	ltpFR2	2	9	BLUEPRINT	142	n/a	n/a	0	0	0
1796972	WORD	wordpools/wasnorm_wordpool_576.txt	LTP382	ltpFR2	2	9	CLAMP	316	n/a	n/a	0	0	0
1799455	WORD	wordpools/wasnorm_wordpool_576.txt	LTP382	ltpFR2	2	9	SHOVEL	1295	n/a	n/a	0	0	0
1802038	WORD	wordpools/wasnorm_wordpool_576.txt	LTP382	ltpFR2	2	9	ROBOT	1200	n/a	n/a	0	0	0
1804755	WORD	wordpools/wasnorm_wordpool_576.txt	LTP382	ltpFR2	2	9	SUSPECT	1415	n/a	n/a	0	0	0
1807238	WORD	wordpools/wasnorm_wordpool_576.txt	LTP382	ltpFR2	2	9	QUEEN	1149	n/a	n/a	0	0	0
1809955	WORD	wordpools/wasnorm_wordpool_576.txt	LTP382	ltpFR2	2	9	DRINK	498	n/a	n/a	0	0	0
1812438	WORD	wordpools/wasnorm_wordpool_576.txt	LTP382	ltpFR2	2	9	GANGSTER	620	n/a	n/a	0	0	0
1815255	WORD	wordpools/wasnorm_wordpool_576.txt	LTP382	ltpFR2	2	9	TRENCH	1503	n/a	n/a	0	0	0
1818072	WORD	wordpools/wasnorm_wordpool_576.txt	LTP382	ltpFR2	2	9	MAILBOX	857	n/a	n/a	0	0	0
1820838	WORD	wordpools/wasnorm_wordpool_576.txt	LTP382	ltpFR2	2	9	STREAM	1392	n/a	n/a	0	0	0
1823554	WORD	wordpools/wasnorm_wordpool_576.txt	LTP382	ltpFR2	2	9	BROOK	177	n/a	n/a	0	0	0
1825156	START	n/a	LTP382	ltpFR2	2	n/a	n/a	n/a	14	n/a	n/a	n/a	n/a
1826122	DISTRACTOR	n/a	LTP382	ltpFR2	2	9	n/a	n/a	n/a	n/a	0	0	0
1826139	PROB	n/a	LTP382	ltpFR2	2	n/a	n/a	n/a	14	13	8	1	4
1829421	PROB	n/a	LTP382	ltpFR2	2	n/a	n/a	n/a	14	16	3	6	7
1831888	PROB	n/a	LTP382	ltpFR2	2	n/a	n/a	n/a	14	17	5	7	5
1834421	PROB	n/a	LTP382	ltpFR2	2	n/a	n/a	n/a	14	16	7	8	1
1837038	PROB	n/a	LTP382	ltpFR2	2	n/a	n/a	n/a	14	19	7	4	8
1839089	PROB	n/a	LTP382	ltpFR2	2	n/a	n/a	n/a	14	20	7	8	5
1841771	PROB	n/a	LTP382	ltpFR2	2	n/a	n/a	n/a	14	14	9	4	1
1843971	PROB	n/a	LTP382	ltpFR2	2	n/a	n/a	n/a	14	17	5	4	8
1846671	PROB	n/a	LTP382	ltpFR2	2	n/a	n/a	n/a	14	13	5	7	1
1848132	STOP	n/a	LTP382	ltpFR2	2	n/a	n/a	n/a	14	n/a	n/a	n/a	n/a
1851056	REC_START	n/a	LTP382	ltpFR2	2	9	n/a	n/a	n/a	n/a	0	0	0
1852797	REC_WORD	wordpools/wasnorm_wordpool_576.txt	LTP382	ltpFR2	2	9	BROOK	177	n/a	n/a	0	0	0
1854961	REC_WORD	wordpools/wasnorm_wordpool_576.txt	LTP382	ltpFR2	2	9	SHOVEL	1295	n/a	n/a	0	0	0
1857477	REC_WORD	wordpools/wasnorm_wordpool_576.txt	LTP382	ltpFR2	2	9	CLIMBER	323	n/a	n/a	0	0	0
1865209	REC_WORD	wordpools/wasnorm_wordpool_576.txt	LTP382	ltpFR2	2	9	BINDING	-1	n/a	n/a	0	0	0
1867615	REC_WORD	wordpools/wasnorm_wordpool_576.txt	LTP382	ltpFR2	2	9	PAPER	1011	n/a	n/a	0	0	0
1872992	REC_WORD	wordpools/wasnorm_wordpool_576.txt	LTP382	ltpFR2	2	9	MISTER	901	n/a	n/a	0	0	0
1893777	REC_WORD	wordpools/wasnorm_wordpool_576.txt	LTP382	ltpFR2	2	9	BLUEPRINT	142	n/a	n/a	0	0	0
1896829	REC_WORD	wordpools/wasnorm_wordpool_576.txt	LTP382	ltpFR2	2	9	CAPTIVE	240	n/a	n/a	0	0	0
1941503	WORD	wordpools/wasnorm_wordpool_576.txt	LTP382	ltpFR2	2	10	BUGGY	188	n/a	n/a	0	0	0
1944053	WORD	wordpools/wasnorm_wordpool_576.txt	LTP382	ltpFR2	2	10	GLOVE	642	n/a	n/a	0	0	0
1946802	WORD	wordpools/wasnorm_wordpool_576.txt	LTP382	ltpFR2	2	10	PARSLEY	1016	n/a	n/a	0	0	0
1949619	WORD	wordpools/wasnorm_wordpool_576.txt	LTP382	ltpFR2	2	10	WAITRESS	1581	n/a	n/a	0	0	0
1952352	WORD	wordpools/wasnorm_wordpool_576.txt	LTP382	ltpFR2	2	10	PLAID	1080	n/a	n/a	0	0	0
1954836	WORD	wordpools/wasnorm_wordpool_576.txt	LTP382	ltpFR2	2	10	BREAST	171	n/a	n/a	0	0	0
1957552	WORD	wordpools/wasnorm_wordpool_576.txt	LTP382	ltpFR2	2	10	JUNGLE	764	n/a	n/a	0	0	0
1960219	WORD	wordpools/wasnorm_wordpool_576.txt	LTP382	ltpFR2	2	10	BACKBONE	66	n/a	n/a	0	0	0
1962936	WORD	wordpools/wasnorm_wordpool_576.txt	LTP382	ltpFR2	2	10	MARROW	872	n/a	n/a	0	0	0
1965486	WORD	wordpools/wasnorm_wordpool_576.txt	LTP382	ltpFR2	2	10	TAXI	1438	n/a	n/a	0	0	0
1967936	WORD	wordpools/wasnorm_wordpool_576.txt	LTP382	ltpFR2	2	10	SOFTBALL	1343	n/a	n/a	0	0	0
1970602	WORD	wordpools/wasnorm_wordpool_576.txt	LTP382	ltpFR2	2	10	SHORTS	1293	n/a	n/a	0	0	0
1973352	WORD	wordpools/wasnorm_wordpool_576.txt	LTP382	ltpFR2	2	10	FLEET	578	n/a	n/a	0	0	0
1975819	WORD	wordpools/wasnorm_wordpool_576.txt	LTP382	ltpFR2	2	10	AIRPORT	13	n/a	n/a	0	0	0
1978352	WORD	wordpools/wasnorm_wordpool_576.txt	LTP382	ltpFR2	2	10	FRANCE	601	n/a	n/a	0	0	0
1980802	WORD	wordpools/wasnorm_wordpool_576.txt	LTP382	ltpFR2	2	10	CLOTHES	327	n/a	n/a	0	0	0
1983602	WORD	wordpools/wasnorm_wordpool_576.txt	LTP382	ltpFR2	2	10	PRIMATE	1123	n/a	n/a	0	0	0
1986335	WORD	wordpools/wasnorm_wordpool_576.txt	LTP382	ltpFR2	2	10	DUST	508	n/a	n/a	0	0	0
1989002	WORD	wordpools/wasnorm_wordpool_576.txt	LTP382	ltpFR2	2	10	THIEF	1456	n/a	n/a	0	0	0
1991502	WORD	wordpools/wasnorm_wordpool_576.txt	LTP382	ltpFR2	2	10	BURGLAR	200	n/a	n/a	0	0	0
1994153	WORD	wordpools/wasnorm_wordpool_576.txt	LTP382	ltpFR2	2	10	FLUTE	585	n/a	n/a	0	0	0
1996735	WORD	wordpools/wasnorm_wordpool_576.txt	LTP382	ltpFR2	2	10	CRAYON	401	n/a	n/a	0	0	0
1999169	WORD	wordpools/wasnorm_wordpool_576.txt	LTP382	ltpFR2	2	10	CORAL	378	n/a	n/a	0	0	0
2001885	WORD	wordpools/wasnorm_wordpool_576.txt	LTP382	ltpFR2	2	10	SHARK	1275	n/a	n/a	0	0	0
2003502	START	n/a	LTP382	ltpFR2	2	n/a	n/a	n/a	15	n/a	n/a	n/a	n/a
2004503	DISTRACTOR	n/a	LTP382	ltpFR2	2	10	n/a	n/a	n/a	n/a	0	0	0
2004518	PROB	n/a	LTP382	ltpFR2	2	n/a	n/a	n/a	15	12	2	7	3
2006518	PROB	n/a	LTP382	ltpFR2	2	n/a	n/a	n/a	15	14	2	3	9
2008868	PROB	n/a	LTP382	ltpFR2	2	n/a	n/a	n/a	15	10	4	2	4
2010153	PROB	n/a	LTP382	ltpFR2	2	n/a	n/a	n/a	15	25	8	9	8
2014985	PROB	n/a	LTP382	ltpFR2	2	n/a	n/a	n/a	15	9	1	5	3
2016518	PROB	n/a	LTP382	ltpFR2	2	n/a	n/a	n/a	15	5	2	2	1
2017435	PROB	n/a	LTP382	ltpFR2	2	n/a	n/a	n/a	15	14	9	3	3
2019801	PROB	n/a	LTP382	ltpFR2	2	n/a	n/a	n/a	15	13	7	2	4
2021852	PROB	n/a	LTP382	ltpFR2	2	n/a	n/a	n/a	15	12	2	6	4
2023668	PROB	n/a	LTP382	ltpFR2	2	n/a	n/a	n/a	15	13	5	5	3
2024635	PROB	n/a	LTP382	ltpFR2	2	n/a	n/a	n/a	15	21	8	9	4
2027264	STOP	n/a	LTP382	ltpFR2	2	n/a	n/a	n/a	15	n/a	n/a	n/a	n/a
2029368	REC_START	n/a	LTP382	ltpFR2	2	10	n/a	n/a	n/a	n/a	0	0	0
2030926	REC_WORD	wordpools/wasnorm_wordpool_576.txt	LTP382	ltpFR2	2	10	BUGGY	188	n/a	n/a	0	0	0
2032811	REC_WORD	wordpools/wasnorm_wordpool_576.txt	LTP382	ltpFR2	2	10	PARSLEY	1016	n/a	n/a	0	0	0
2034722	REC_WORD	wordpools/wasnorm_wordpool_576.txt	LTP382	ltpFR2	2	10	WAITRESS	1581	n/a	n/a	0	0	0
2036085	REC_WORD	wordpools/wasnorm_wordpool_576.txt	LTP382	ltpFR2	2	10	SHORTS	1293	n/a	n/a	0	0	0
2037409	REC_WORD	wordpools/wasnorm_wordpool_576.txt	LTP382	ltpFR2	2	10	PLAID	1080	n/a	n/a	0	0	0
2038632	REC_WORD	wordpools/wasnorm_wordpool_576.txt	LTP382	ltpFR2	2	10	BREAST	171	n/a	n/a	0	0	0
2040054	REC_WORD	wordpools/wasnorm_wordpool_576.txt	LTP382	ltpFR2	2	10	BACKBONE	66	n/a	n/a	0	0	0
2044672	REC_WORD	wordpools/wasnorm_wordpool_576.txt	LTP382	ltpFR2	2	10	CORAL	378	n/a	n/a	0	0	0
2047441	REC_WORD	wordpools/wasnorm_wordpool_576.txt	LTP382	ltpFR2	2	10	SHARK	1275	n/a	n/a	0	0	0
2053451	REC_WORD	wordpools/wasnorm_wordpool_576.txt	LTP382	ltpFR2	2	10	TAXI	1438	n/a	n/a	0	0	0
2055313	REC_WORD	wordpools/wasnorm_wordpool_576.txt	LTP382	ltpFR2	2	10	SOFTBALL	1343	n/a	n/a	0	0	0
2057915	REC_WORD	wordpools/wasnorm_wordpool_576.txt	LTP382	ltpFR2	2	10	BURGLAR	200	n/a	n/a	0	0	0
2060022	REC_WORD	wordpools/wasnorm_wordpool_576.txt	LTP382	ltpFR2	2	10	THIEF	1456	n/a	n/a	0	0	0
2119800	DISTRACTOR	n/a	LTP382	ltpFR2	2	11	n/a	n/a	n/a	n/a	0	0	0
2119800	START	n/a	LTP382	ltpFR2	2	n/a	n/a	n/a	16	n/a	n/a	n/a	n/a
2119816	PROB	n/a	LTP382	ltpFR2	2	n/a	n/a	n/a	16	19	5	9	5
2122566	PROB	n/a	LTP382	ltpFR2	2	n/a	n/a	n/a	16	7	1	5	1
2124233	PROB	n/a	LTP382	ltpFR2	2	n/a	n/a	n/a	16	18	7	3	8
2125433	PROB	n/a	LTP382	ltpFR2	2	n/a	n/a	n/a	16	17	9	3	5
2128866	PROB	n/a	LTP382	ltpFR2	2	n/a	n/a	n/a	16	6	2	2	2
2129966	PROB	n/a	LTP382	ltpFR2	2	n/a	n/a	n/a	16	20	8	5	7
2131750	PROB	n/a	LTP382	ltpFR2	2	n/a	n/a	n/a	16	20	9	3	8
2135899	PROB	n/a	LTP382	ltpFR2	2	n/a	n/a	n/a	16	15	2	6	7
2139167	PROB	n/a	LTP382	ltpFR2	2	n/a	n/a	n/a	16	13	2	4	7
2142284	STOP	n/a	LTP382	ltpFR2	2	n/a	n/a	n/a	16	n/a	n/a	n/a	n/a
2144849	WORD	wordpools/wasnorm_wordpool_576.txt	LTP382	ltpFR2	2	11	PORTRAIT	1111	n/a	n/a	0	0	0
2147616	WORD	wordpools/wasnorm_wordpool_576.txt	LTP382	ltpFR2	2	11	BLADE	134	n/a	n/a	0	0	0
2150299	WORD	wordpools/wasnorm_wordpool_576.txt	LTP382	ltpFR2	2	11	PLATE	1086	n/a	n/a	0	0	0
2152966	WORD	wordpools/wasnorm_wordpool_576.txt	LTP382	ltpFR2	2	11	BLENDER	136	n/a	n/a	0	0	0
2155499	WORD	wordpools/wasnorm_wordpool_576.txt	LTP382	ltpFR2	2	11	YARN	1631	n/a	n/a	0	0	0
2158200	WORD	wordpools/wasnorm_wordpool_576.txt	LTP382	ltpFR2	2	11	TUTU	1524	n/a	n/a	0	0	0
2160766	WORD	wordpools/wasnorm_wordpool_576.txt	LTP382	ltpFR2	2	11	RAZOR	1171	n/a	n/a	0	0	0
2163232	WORD	wordpools/wasnorm_wordpool_576.txt	LTP382	ltpFR2	2	11	SUNRISE	1407	n/a	n/a	0	0	0
2165932	WORD	wordpools/wasnorm_wordpool_576.txt	LTP382	ltpFR2	2	11	SUPPER	1411	n/a	n/a	0	0	0
2168699	WORD	wordpools/wasnorm_wordpool_576.txt	LTP382	ltpFR2	2	11	PASTA	1021	n/a	n/a	0	0	0
2171316	WORD	wordpools/wasnorm_wordpool_576.txt	LTP382	ltpFR2	2	11	GRAPE	654	n/a	n/a	0	0	0
2173816	WORD	wordpools/wasnorm_wordpool_576.txt	LTP382	ltpFR2	2	11	LEG	809	n/a	n/a	0	0	0
2176299	WORD	wordpools/wasnorm_wordpool_576.txt	LTP382	ltpFR2	2	11	COUCH	386	n/a	n/a	0	0	0
2178732	WORD	wordpools/wasnorm_wordpool_576.txt	LTP382	ltpFR2	2	11	TILE	1468	n/a	n/a	0	0	0
2181282	WORD	wordpools/wasnorm_wordpool_576.txt	LTP382	ltpFR2	2	11	BACON	67	n/a	n/a	0	0	0
2183715	WORD	wordpools/wasnorm_wordpool_576.txt	LTP382	ltpFR2	2	11	OMELET	976	n/a	n/a	0	0	0
2186265	WORD	wordpools/wasnorm_wordpool_576.txt	LTP382	ltpFR2	2	11	PLASTER	1085	n/a	n/a	0	0	0
2189032	WORD	wordpools/wasnorm_wordpool_576.txt	LTP382	ltpFR2	2	11	DANCER	437	n/a	n/a	0	0	0
2191815	WORD	wordpools/wasnorm_wordpool_576.txt	LTP382	ltpFR2	2	11	STOMACH	1384	n/a	n/a	0	0	0
2194332	WORD	wordpools/wasnorm_wordpool_576.txt	LTP382	ltpFR2	2	11	LIVER	833	n/a	n/a	0	0	0
2196932	WORD	wordpools/wasnorm_wordpool_576.txt	LTP382	ltpFR2	2	11	SCRIBBLE	1256	n/a	n/a	0	0	0
2199465	WORD	wordpools/wasnorm_wordpool_576.txt	LTP382	ltpFR2	2	11	MATCH	878	n/a	n/a	0	0	0
2202166	WORD	wordpools/wasnorm_wordpool_576.txt	LTP382	ltpFR2	2	11	PADDING	999	n/a	n/a	0	0	0
2204832	WORD	wordpools/wasnorm_wordpool_576.txt	LTP382	ltpFR2	2	11	GALLON	618	n/a	n/a	0	0	0
2206449	START	n/a	LTP382	ltpFR2	2	n/a	n/a	n/a	17	n/a	n/a	n/a	n/a
2207458	DISTRACTOR	n/a	LTP382	ltpFR2	2	11	n/a	n/a	n/a	n/a	0	0	0
2207465	PROB	n/a	LTP382	ltpFR2	2	n/a	n/a	n/a	17	12	3	6	3
2209698	PROB	n/a	LTP382	ltpFR2	2	n/a	n/a	n/a	17	9	1	1	7
2211298	PROB	n/a	LTP382	ltpFR2	2	n/a	n/a	n/a	17	12	2	3	7
2213365	PROB	n/a	LTP382	ltpFR2	2	n/a	n/a	n/a	17	17	8	1	8
2215565	PROB	n/a	LTP382	ltpFR2	2	n/a	n/a	n/a	17	18	7	5	6
2217348	PROB	n/a	LTP382	ltpFR2	2	n/a	n/a	n/a	17	13	8	3	2
2219049	PROB	n/a	LTP382	ltpFR2	2	n/a	n/a	n/a	17	15	2	4	9
2220548	PROB	n/a	LTP382	ltpFR2	2	n/a	n/a	n/a	17	14	9	3	2
2224199	PROB	n/a	LTP382	ltpFR2	2	n/a	n/a	n/a	17	11	4	6	1
2225281	PROB	n/a	LTP382	ltpFR2	2	n/a	n/a	n/a	17	11	4	3	4
2226781	PROB	n/a	LTP382	ltpFR2	2	n/a	n/a	n/a	17	14	5	5	4
2228049	PROB	n/a	LTP382	ltpFR2	2	n/a	n/a	n/a	17	16	9	6	1
2229878	STOP	n/a	LTP382	ltpFR2	2	n/a	n/a	n/a	17	n/a	n/a	n/a	n/a
2232398	REC_START	n/a	LTP382	ltpFR2	2	11	n/a	n/a	n/a	n/a	0	0	0
2233510	REC_WORD	wordpools/wasnorm_wordpool_576.txt	LTP382	ltpFR2	2	11	PORTRAIT	1111	n/a	n/a	0	0	0
2235219	REC_WORD_VV	wordpools/wasnorm_wordpool_576.txt	LTP382	ltpFR2	2	11	<>	-1	n/a	n/a	0	0	0
2235439	REC_WORD	wordpools/wasnorm_wordpool_576.txt	LTP382	ltpFR2	2	11	RAZOR	1171	n/a	n/a	0	0	0
2241459	REC_WORD	wordpools/wasnorm_wordpool_576.txt	LTP382	ltpFR2	2	11	SUPPER	1411	n/a	n/a	0	0	0
2243783	REC_WORD	wordpools/wasnorm_wordpool_576.txt	LTP382	ltpFR2	2	11	GRAPE	654	n/a	n/a	0	0	0
2246289	REC_WORD	wordpools/wasnorm_wordpool_576.txt	LTP382	ltpFR2	2	11	PASTA	1021	n/a	n/a	0	0	0
2250156	REC_WORD	wordpools/wasnorm_wordpool_576.txt	LTP382	ltpFR2	2	11	BACON	67	n/a	n/a	0	0	0
2252224	REC_WORD	wordpools/wasnorm_wordpool_576.txt	LTP382	ltpFR2	2	11	OMELET	976	n/a	n/a	0	0	0
2259518	REC_WORD	wordpools/wasnorm_wordpool_576.txt	LTP382	ltpFR2	2	11	BLENDER	136	n/a	n/a	0	0	0
2322863	WORD	wordpools/wasnorm_wordpool_576.txt	LTP382	ltpFR2	2	12	RADISH	1158	n/a	n/a	0	0	0
2325496	WORD	wordpools/wasnorm_wordpool_576.txt	LTP382	ltpFR2	2	12	KNAPSACK	783	n/a	n/a	0	0	0
2328213	WORD	wordpools/wasnorm_wordpool_576.txt	LTP382	ltpFR2	2	12	ITEM	746	n/a	n/a	0	0	0
2330896	WORD	wordpools/wasnorm_wordpool_576.txt	LTP382	ltpFR2	2	12	GARBAGE	622	n/a	n/a	0	0	0
2333630	WORD	wordpools/wasnorm_wordpool_576.txt	LTP382	ltpFR2	2	12	GAZELLE	628	n/a	n/a	0	0	0
2336114	WORD	wordpools/wasnorm_wordpool_576.txt	LTP382	ltpFR2	2	12	CARROT	249	n/a	n/a	0	0	0
2338596	WORD	wordpools/wasnorm_wordpool_576.txt	LTP382	ltpFR2	2	12	OUTDOORS	987	n/a	n/a	0	0	0
2341097	WORD	wordpools/wasnorm_wordpool_576.txt	LTP382	ltpFR2	2	12	FOREST	593	n/a	n/a	0	0	0
2343530	WORD	wordpools/wasnorm_wordpool_576.txt	LTP382	ltpFR2	2	12	RECORD	1176	n/a	n/a	0	0	0
2346130	WORD	wordpools/wasnorm_wordpool_576.txt	LTP382	ltpFR2	2	12	GUITAR	670	n/a	n/a	0	0	0
2348896	WORD	wordpools/wasnorm_wordpool_576.txt	LTP382	ltpFR2	2	12	SIBLING	1301	n/a	n/a	0	0	0
2351563	WORD	wordpools/wasnorm_wordpool_576.txt	LTP382	ltpFR2	2	12	STATUE	1374	n/a	n/a	0	0	0
2354213	WORD	wordpools/wasnorm_wordpool_576.txt	LTP382	ltpFR2	2	12	WITNESS	1618	n/a	n/a	0	0	0
2356646	WORD	wordpools/wasnorm_wordpool_576.txt	LTP382	ltpFR2	2	12	RUG	1215	n/a	n/a	0	0	0
2359379	WORD	wordpools/wasnorm_wordpool_576.txt	LTP382	ltpFR2	2	12	AWARD	63	n/a	n/a	0	0	0
2361913	WORD	wordpools/wasnorm_wordpool_576.txt	LTP382	ltpFR2	2	12	MEDAL	885	n/a	n/a	0	0	0
2364646	WORD	wordpools/wasnorm_wordpool_576.txt	LTP382	ltpFR2	2	12	SPOOL	1356	n/a	n/a	0	0	0
2367446	WORD	wordpools/wasnorm_wordpool_576.txt	LTP382	ltpFR2	2	12	SCISSORS	1250	n/a	n/a	0	0	0
2369996	WORD	wordpools/wasnorm_wordpool_576.txt	LTP382	ltpFR2	2	12	PISTOL	1075	n/a	n/a	0	0	0
2372812	WORD	wordpools/wasnorm_wordpool_576.txt	LTP382	ltpFR2	2	12	DASHBOARD	441	n/a	n/a	0	0	0
2375629	WORD	wordpools/wasnorm_wordpool_576.txt	LTP382	ltpFR2	2	12	PICNIC	1060	n/a	n/a	0	0	0
2378080	WORD	wordpools/wasnorm_wordpool_576.txt	LTP382	ltpFR2	2	12	DRAWING	494	n/a	n/a	0	0	0
2380829	WORD	wordpools/wasnorm_wordpool_576.txt	LTP382	ltpFR2	2	12	ANKLE	24	n/a	n/a	0	0	0
2383512	WORD	wordpools/wasnorm_wordpool_576.txt	LTP382	ltpFR2	2	12	VALVE	1546	n/a	n/a	0	0	0
2385113	START	n/a	LTP382	ltpFR2	2	n/a	n/a	n/a	18	n/a	n/a	n/a	n/a
2386019	DISTRACTOR	n/a	LTP382	ltpFR2	2	12	n/a	n/a	n/a	n/a	0	0	0
2386029	PROB	n/a	LTP382	ltpFR2	2	n/a	n/a	n/a	18	8	2	5	1
2388579	PROB	n/a	LTP382	ltpFR2	2	n/a	n/a	n/a	18	9	1	7	1
2390479	PROB	n/a	LTP382	ltpFR2	2	n/a	n/a	n/a	18	14	3	2	9
2392462	PROB	n/a	LTP382	ltpFR2	2	n/a	n/a	n/a	18	19	7	4	8
2394279	PROB	n/a	LTP382	ltpFR2	2	n/a	n/a	n/a	18	15	6	8	1
2396279	PROB	n/a	LTP382	ltpFR2	2	n/a	n/a	n/a	18	12	4	3	5
2397695	PROB	n/a	LTP382	ltpFR2	2	n/a	n/a	n/a	18	17	9	5	3
2400795	PROB	n/a	LTP382	ltpFR2	2	n/a	n/a	n/a	18	18	8	2	8
2402345	PROB	n/a	LTP382	ltpFR2	2	n/a	n/a	n/a	18	19	6	5	8
2404163	PROB	n/a	LTP382	ltpFR2	2	n/a	n/a	n/a	18	14	6	2	6
2406130	PROB	n/a	LTP382	ltpFR2	2	n/a	n/a	n/a	18	10	6	3	1
2407868	STOP	n/a	LTP382	ltpFR2	2	n/a	n/a	n/a	18	n/a	n/a	n/a	n/a
2410962	REC_START	n/a	LTP382	ltpFR2	2	12	n/a	n/a	n/a	n/a	0	0	0
2413362	REC_WORD	wordpools/wasnorm_wordpool_576.txt	LTP382	ltpFR2	2	12	PICNIC	1060	n/a	n/a	0	0	0
2415564	REC_WORD	wordpools/wasnorm_wordpool_576.txt	LTP382	ltpFR2	2	12	GAZELLE	628	n/a	n/a	0	0	0
2417041	REC_WORD	wordpools/wasnorm_wordpool_576.txt	LTP382	ltpFR2	2	12	CARROT	249	n/a	n/a	0	0	0
2431042	REC_WORD	wordpools/wasnorm_wordpool_576.txt	LTP382	ltpFR2	2	12	OUTDOORS	987	n/a	n/a	0	0	0
2449712	REC_WORD	wordpools/wasnorm_wordpool_576.txt	LTP382	ltpFR2	2	12	FOREST	593	n/a	n/a	0	0	0
2467448	REC_WORD	wordpools/wasnorm_wordpool_576.txt	LTP382	ltpFR2	2	12	SIBLING	1301	n/a	n/a	0	0	0
2469829	REC_WORD	wordpools/wasnorm_wordpool_576.txt	LTP382	ltpFR2	2	12	SCISSORS	1250	n/a	n/a	0	0	0
2471455	REC_WORD	wordpools/wasnorm_wordpool_576.txt	LTP382	ltpFR2	2	12	RUG	1215	n/a	n/a	0	0	0
2473775	REC_WORD	wordpools/wasnorm_wordpool_576.txt	LTP382	ltpFR2	2	12	AWARD	63	n/a	n/a	0	0	0
2475062	REC_WORD	wordpools/wasnorm_wordpool_576.txt	LTP382	ltpFR2	2	12	MEDAL	885	n/a	n/a	0	0	0
2479920	REC_WORD	wordpools/wasnorm_wordpool_576.txt	LTP382	ltpFR2	2	12	PISTOL	1075	n/a	n/a	0	0	0
2501427	WORD	wordpools/wasnorm_wordpool_576.txt	LTP382	ltpFR2	2	13	WIDOW	1608	n/a	n/a	0	0	0
2504095	WORD	wordpools/wasnorm_wordpool_576.txt	LTP382	ltpFR2	2	13	VICTIM	1562	n/a	n/a	0	0	0
2506644	WORD	wordpools/wasnorm_wordpool_576.txt	LTP382	ltpFR2	2	13	NAPKIN	937	n/a	n/a	0	0	0
2509128	WORD	wordpools/wasnorm_wordpool_576.txt	LTP382	ltpFR2	2	13	COIN	343	n/a	n/a	0	0	0
2511777	WORD	wordpools/wasnorm_wordpool_576.txt	LTP382	ltpFR2	2	13	TWISTER	1530	n/a	n/a	0	0	0
2514577	WORD	wordpools/wasnorm_wordpool_576.txt	LTP382	ltpFR2	2	13	BADGE	68	n/a	n/a	0	0	0
2517061	WORD	wordpools/wasnorm_wordpool_576.txt	LTP382	ltpFR2	2	13	GRAVE	658	n/a	n/a	0	0	0
2519793	WORD	wordpools/wasnorm_wordpool_576.txt	LTP382	ltpFR2	2	13	UNCLE	1536	n/a	n/a	0	0	0
2522293	WORD	wordpools/wasnorm_wordpool_576.txt	LTP382	ltpFR2	2	13	COWBOY	395	n/a	n/a	0	0	0
2525043	WORD	wordpools/wasnorm_wordpool_576.txt	LTP382	ltpFR2	2	13	PIZZA	1079	n/a	n/a	0	0	0
2527477	WORD	wordpools/wasnorm_wordpool_576.txt	LTP382	ltpFR2	2	13	SAUSAGE	1238	n/a	n/a	0	0	0
2530293	WORD	wordpools/wasnorm_wordpool_576.txt	LTP382	ltpFR2	2	13	COUNTRY	388	n/a	n/a	0	0	0
2532976	WORD	wordpools/wasnorm_wordpool_576.txt	LTP382	ltpFR2	2	13	REBEL	1172	n/a	n/a	0	0	0
2535560	WORD	wordpools/wasnorm_wordpool_576.txt	LTP382	ltpFR2	2	13	POLICE	1098	n/a	n/a	0	0	0
2538010	WORD	wordpools/wasnorm_wordpool_576.txt	LTP382	ltpFR2	2	13	AGENT	10	n/a	n/a	0	0	0
2540843	WORD	wordpools/wasnorm_wordpool_576.txt	LTP382	ltpFR2	2	13	WINDOW	1611	n/a	n/a	0	0	0
2543643	WORD	wordpools/wasnorm_wordpool_576.txt	LTP382	ltpFR2	2	13	QUAIL	1147	n/a	n/a	0	0	0
2546243	WORD	wordpools/wasnorm_wordpool_576.txt	LTP382	ltpFR2	2	13	SUBWAY	1400	n/a	n/a	0	0	0
2549026	WORD	wordpools/wasnorm_wordpool_576.txt	LTP382	ltpFR2	2	13	COUNTY	389	n/a	n/a	0	0	0
2551793	WORD	wordpools/wasnorm_wordpool_576.txt	LTP382	ltpFR2	2	13	MONSTER	912	n/a	n/a	0	0	0
2554559	WORD	wordpools/wasnorm_wordpool_576.txt	LTP382	ltpFR2	2	13	FLAG	573	n/a	n/a	0	0	0
2557309	WORD	wordpools/wasnorm_wordpool_576.txt	LTP382	ltpFR2	2	13	STAMP	1370	n/a	n/a	0	0	0
2559859	WORD	wordpools/wasnorm_wordpool_576.txt	LTP382	ltpFR2	2	13	POSTAGE	1113	n/a	n/a	0	0	0
2562409	WORD	wordpools/wasnorm_wordpool_576.txt	LTP382	ltpFR2	2	13	TRUCK	1512	n/a	n/a	0	0	0
2564026	START	n/a	LTP382	ltpFR2	2	n/a	n/a	n/a	19	n/a	n/a	n/a	n/a
2564896	DISTRACTOR	n/a	LTP382	ltpFR2	2	13	n/a	n/a	n/a	n/a	0	0	0
2564909	PROB	n/a	LTP382	ltpFR2	2	n/a	n/a	n/a	19	16	3	5	8
2569293	PROB	n/a	LTP382	ltpFR2	2	n/a	n/a	n/a	19	17	7	3	7
2571643	PROB	n/a	LTP382	ltpFR2	2	n/a	n/a	n/a	19	16	3	7	6
2573144	PROB	n/a	LTP382	ltpFR2	2	n/a	n/a	n/a	19	9	5	1	3
2575194	PROB	n/a	LTP382	ltpFR2	2	n/a	n/a	n/a	19	18	7	8	2
2576592	PROB	n/a	LTP382	ltpFR2	2	n/a	n/a	n/a	19	14	2	3	9
2579892	PROB	n/a	LTP382	ltpFR2	2	n/a	n/a	n/a	19	8	2	4	2
2581926	PROB	n/a	LTP382	ltpFR2	2	n/a	n/a	n/a	19	12	1	8	3
2584426	PROB	n/a	LTP382	ltpFR2	2	n/a	n/a	n/a	19	11	7	1	3
2588026	STOP	n/a	LTP382	ltpFR2	2	n/a	n/a	n/a	19	n/a	n/a	n/a	n/a
2589943	REC_START	n/a	LTP382	ltpFR2	2	13	n/a	n/a	n/a	n/a	0	0	0
2592349	REC_WORD	wordpools/wasnorm_wordpool_576.txt	LTP382	ltpFR2	2	13	WIDOW	1608	n/a	n/a	0	0	0
2593454	REC_WORD	wordpools/wasnorm_wordpool_576.txt	LTP382	ltpFR2	2	13	VICTIM	1562	n/a	n/a	0	0	0
2594762	REC_WORD	wordpools/wasnorm_wordpool_576.txt	LTP382	ltpFR2	2	13	NAPKIN	937	n/a	n/a	0	0	0
2596235	REC_WORD	wordpools/wasnorm_wordpool_576.txt	LTP382	ltpFR2	2	13	WINDOW	1611	n/a	n/a	0	0	0
2626028	REC_WORD	wordpools/wasnorm_wordpool_576.txt	LTP382	ltpFR2	2	13	POLICE	1098	n/a	n/a	0	0	0
2680407	WORD	wordpools/wasnorm_wordpool_576.txt	LTP382	ltpFR2	2	14	WASHER	1592	n/a	n/a	0	0	0
2683041	WORD	wordpools/wasnorm_wordpool_576.txt	LTP382	ltpFR2	2	14	PIGMENT	1066	n/a	n/a	0	0	0
2685574	WORD	wordpools/wasnorm_wordpool_576.txt	LTP382	ltpFR2	2	14	TURTLE	1522	n/a	n/a	0	0	0
2688058	WORD	wordpools/wasnorm_wordpool_576.txt	LTP382	ltpFR2	2	14	SODA	1341	n/a	n/a	0	0	0
2690757	WORD	wordpools/wasnorm_wordpool_576.txt	LTP382	ltpFR2	2	14	ZEBRA	1635	n/a	n/a	0	0	0
2693541	WORD	wordpools/wasnorm_wordpool_576.txt	LTP382	ltpFR2	2	14	COMPASS	358	n/a	n/a	0	0	0
2696024	WORD	wordpools/wasnorm_wordpool_576.txt	LTP382	ltpFR2	2	14	WARDROBE	1587	n/a	n/a	0	0	0
2698590	WORD	wordpools/wasnorm_wordpool_576.txt	LTP382	ltpFR2	2	14	ROOSTER	1209	n/a	n/a	0	0	0
2701041	WORD	wordpools/wasnorm_wordpool_576.txt	LTP382	ltpFR2	2	14	YOLK	1633	n/a	n/a	0	0	0
2703724	WORD	wordpools/wasnorm_wordpool_576.txt	LTP382	ltpFR2	2	14	ROBIN	1199	n/a	n/a	0	0	0
2706507	WORD	wordpools/wasnorm_wordpool_576.txt	LTP382	ltpFR2	2	14	ATLAS	53	n/a	n/a	0	0	0
2709108	WORD	wordpools/wasnorm_wordpool_576.txt	LTP382	ltpFR2	2	14	GUARD	667	n/a	n/a	0	0	0
2711707	WORD	wordpools/wasnorm_wordpool_576.txt	LTP382	ltpFR2	2	14	BUCKET	184	n/a	n/a	0	0	0
2714357	WORD	wordpools/wasnorm_wordpool_576.txt	LTP382	ltpFR2	2	14	SCALLOP	1242	n/a	n/a	0	0	0
2717007	WORD	wordpools/wasnorm_wordpool_576.txt	LTP382	ltpFR2	2	14	LASER	801	n/a	n/a	0	0	0
2719624	WORD	wordpools/wasnorm_wordpool_576.txt	LTP382	ltpFR2	2	14	EAGLE	512	n/a	n/a	0	0	0
2722373	WORD	wordpools/wasnorm_wordpool_576.txt	LTP382	ltpFR2	2	14	TERMITE	1451	n/a	n/a	0	0	0
2725074	WORD	wordpools/wasnorm_wordpool_576.txt	LTP382	ltpFR2	2	14	LOFT	840	n/a	n/a	0	0	0
2727857	WORD	wordpools/wasnorm_wordpool_576.txt	LTP382	ltpFR2	2	14	GREASE	660	n/a	n/a	0	0	0
2730457	WORD	wordpools/wasnorm_wordpool_576.txt	LTP382	ltpFR2	2	14	FIREMAN	569	n/a	n/a	0	0	0
2733040	WORD	wordpools/wasnorm_wordpool_576.txt	LTP382	ltpFR2	2	14	DRAGON	492	n/a	n/a	0	0	0
2735590	WORD	wordpools/wasnorm_wordpool_576.txt	LTP382	ltpFR2	2	14	WORLD	1622	n/a	n/a	0	0	0
2738223	WORD	wordpools/wasnorm_wordpool_576.txt	LTP382	ltpFR2	2	14	GROUND	666	n/a	n/a	0	0	0
2740840	WORD	wordpools/wasnorm_wordpool_576.txt	LTP382	ltpFR2	2	14	CHAUFFEUR	283	n/a	n/a	0	0	0
2742457	START	n/a	LTP382	ltpFR2	2	n/a	n/a	n/a	20	n/a	n/a	n/a	n/a
2743580	DISTRACTOR	n/a	LTP382	ltpFR2	2	14	n/a	n/a	n/a	n/a	0	0	0
2743590	PROB	n/a	LTP382	ltpFR2	2	n/a	n/a	n/a	20	15	7	2	6
2745773	PROB	n/a	LTP382	ltpFR2	2	n/a	n/a	n/a	20	18	1	8	9
2747490	PROB	n/a	LTP382	ltpFR2	2	n/a	n/a	n/a	20	9	2	5	2
2749723	PROB	n/a	LTP382	ltpFR2	2	n/a	n/a	n/a	20	14	1	4	9
2751356	PROB	n/a	LTP382	ltpFR2	2	n/a	n/a	n/a	20	18	6	9	3
2753790	PROB	n/a	LTP382	ltpFR2	2	n/a	n/a	n/a	20	19	8	7	4
2756306	PROB	n/a	LTP382	ltpFR2	2	n/a	n/a	n/a	20	10	5	2	3
2758923	PROB	n/a	LTP382	ltpFR2	2	n/a	n/a	n/a	20	14	9	4	1
2760306	PROB	n/a	LTP382	ltpFR2	2	n/a	n/a	n/a	20	17	2	8	7
2761540	PROB	n/a	LTP382	ltpFR2	2	n/a	n/a	n/a	20	11	6	3	2
2763956	PROB	n/a	LTP382	ltpFR2	2	n/a	n/a	n/a	20	20	5	8	7
2765510	STOP	n/a	LTP382	ltpFR2	2	n/a	n/a	n/a	20	n/a	n/a	n/a	n/a
2768257	REC_START	n/a	LTP382	ltpFR2	2	14	n/a	n/a	n/a	n/a	0	0	0
2771687	REC_WORD	wordpools/wasnorm_wordpool_576.txt	LTP382	ltpFR2	2	14	WASHER	1592	n/a	n/a	0	0	0
2773627	REC_WORD	wordpools/wasnorm_wordpool_576.txt	LTP382	ltpFR2	2	14	WARDROBE	1587	n/a	n/a	0	0	0
2775528	REC_WORD	wordpools/wasnorm_wordpool_576.txt	LTP382	ltpFR2	2	14	ZEBRA	1635	n/a	n/a	0	0	0
2778330	REC_WORD	wordpools/wasnorm_wordpool_576.txt	LTP382	ltpFR2	2	14	ROOSTER	1209	n/a	n/a	0	0	0
2781343	REC_WORD	wordpools/wasnorm_wordpool_576.txt	LTP382	ltpFR2	2	14	YOLK	1633	n/a	n/a	0	0	0
2783397	REC_WORD	wordpools/wasnorm_wordpool_576.txt	LTP382	ltpFR2	2	14	BUCKET	184	n/a	n/a	0	0	0
2858705	DISTRACTOR	n/a	LTP382	ltpFR2	2	15	n/a	n/a	n/a	n/a	0	0	0
2858705	START	n/a	LTP382	ltpFR2	2	n/a	n/a	n/a	21	n/a	n/a	n/a	n/a
2858721	PROB	n/a	LTP382	ltpFR2	2	n/a	n/a	n/a	21	14	2	6	6
2860755	PROB	n/a	LTP382	ltpFR2	2	n/a	n/a	n/a	21	10	5	2	3
2862156	PROB	n/a	LTP382	ltpFR2	2	n/a	n/a	n/a	21	11	6	3	2
2864221	PROB	n/a	LTP382	ltpFR2	2	n/a	n/a	n/a	21	18	6	6	6
2866072	PROB	n/a	LTP382	ltpFR2	2	n/a	n/a	n/a	21	11	1	1	9
2867471	PROB	n/a	LTP382	ltpFR2	2	n/a	n/a	n/a	21	18	8	1	9
2870638	PROB	n/a	LTP382	ltpFR2	2	n/a	n/a	n/a	21	15	6	8	1
2873321	PROB	n/a	LTP382	ltpFR2	2	n/a	n/a	n/a	21	18	6	9	3
2876321	PROB	n/a	LTP382	ltpFR2	2	n/a	n/a	n/a	21	13	6	1	6
2877871	PROB	n/a	LTP382	ltpFR2	2	n/a	n/a	n/a	21	11	5	1	5
2882705	STOP	n/a	LTP382	ltpFR2	2	n/a	n/a	n/a	21	n/a	n/a	n/a	n/a
2883738	WORD	wordpools/wasnorm_wordpool_576.txt	LTP382	ltpFR2	2	15	CONVICT	371	n/a	n/a	0	0	0
2886454	WORD	wordpools/wasnorm_wordpool_576.txt	LTP382	ltpFR2	2	15	CATTLE	261	n/a	n/a	0	0	0
2888954	WORD	wordpools/wasnorm_wordpool_576.txt	LTP382	ltpFR2	2	15	CROSS	413	n/a	n/a	0	0	0
2891754	WORD	wordpools/wasnorm_wordpool_576.txt	LTP382	ltpFR2	2	15	FRIAR	605	n/a	n/a	0	0	0
2894321	WORD	wordpools/wasnorm_wordpool_576.txt	LTP382	ltpFR2	2	15	POPCORN	1104	n/a	n/a	0	0	0
2896937	WORD	wordpools/wasnorm_wordpool_576.txt	LTP382	ltpFR2	2	15	HAMPER	682	n/a	n/a	0	0	0
2899721	WORD	wordpools/wasnorm_wordpool_576.txt	LTP382	ltpFR2	2	15	CHAPEL	280	n/a	n/a	0	0	0
2902454	WORD	wordpools/wasnorm_wordpool_576.txt	LTP382	ltpFR2	2	15	COBRA	336	n/a	n/a	0	0	0
2905204	WORD	wordpools/wasnorm_wordpool_576.txt	LTP382	ltpFR2	2	15	SWAMP	1416	n/a	n/a	0	0	0
2907987	WORD	wordpools/wasnorm_wordpool_576.txt	LTP382	ltpFR2	2	15	COLONEL	348	n/a	n/a	0	0	0
2910554	WORD	wordpools/wasnorm_wordpool_576.txt	LTP382	ltpFR2	2	15	BANK	83	n/a	n/a	0	0	0
2913320	WORD	wordpools/wasnorm_wordpool_576.txt	LTP382	ltpFR2	2	15	VIKING	1565	n/a	n/a	0	0	0
2916121	WORD	wordpools/wasnorm_wordpool_576.txt	LTP382	ltpFR2	2	15	CURTAIN	427	n/a	n/a	0	0	0
2918887	WORD	wordpools/wasnorm_wordpool_576.txt	LTP382	ltpFR2	2	15	LIGHTNING	820	n/a	n/a	0	0	0
2921554	WORD	wordpools/wasnorm_wordpool_576.txt	LTP382	ltpFR2	2	15	FRAGRANCE	599	n/a	n/a	0	0	0
2924155	WORD	wordpools/wasnorm_wordpool_576.txt	LTP382	ltpFR2	2	15	SNAIL	1332	n/a	n/a	0	0	0
2926687	WORD	wordpools/wasnorm_wordpool_576.txt	LTP382	ltpFR2	2	15	TORTOISE	1486	n/a	n/a	0	0	0
2929121	WORD	wordpools/wasnorm_wordpool_576.txt	LTP382	ltpFR2	2	15	CHEST	295	n/a	n/a	0	0	0
2931604	WORD	wordpools/wasnorm_wordpool_576.txt	LTP382	ltpFR2	2	15	CRITIC	410	n/a	n/a	0	0	0
2934121	WORD	wordpools/wasnorm_wordpool_576.txt	LTP382	ltpFR2	2	15	MUMMY	932	n/a	n/a	0	0	0
2936570	WORD	wordpools/wasnorm_wordpool_576.txt	LTP382	ltpFR2	2	15	STICKER	1382	n/a	n/a	0	0	0
2939220	WORD	wordpools/wasnorm_wordpool_576.txt	LTP382	ltpFR2	2	15	PERFUME	1049	n/a	n/a	0	0	0
2941853	WORD	wordpools/wasnorm_wordpool_576.txt	LTP382	ltpFR2	2	15	GIFT	635	n/a	n/a	0	0	0
2944603	WORD	wordpools/wasnorm_wordpool_576.txt	LTP382	ltpFR2	2	15	GARLIC	624	n/a	n/a	0	0	0
2946203	START	n/a	LTP382	ltpFR2	2	n/a	n/a	n/a	22	n/a	n/a	n/a	n/a
2947036	DISTRACTOR	n/a	LTP382	ltpFR2	2	15	n/a	n/a	n/a	n/a	0	0	0
2947054	PROB	n/a	LTP382	ltpFR2	2	n/a	n/a	n/a	22	10	6	2	2
2949703	PROB	n/a	LTP382	ltpFR2	2	n/a	n/a	n/a	22	15	3	5	7
2951253	PROB	n/a	LTP382	ltpFR2	2	n/a	n/a	n/a	22	16	1	7	8
2953420	PROB	n/a	LTP382	ltpFR2	2	n/a	n/a	n/a	22	8	3	4	1
2955003	PROB	n/a	LTP382	ltpFR2	2	n/a	n/a	n/a	22	15	5	1	9
2957770	PROB	n/a	LTP382	ltpFR2	2	n/a	n/a	n/a	22	12	1	3	8
2959736	PROB	n/a	LTP382	ltpFR2	2	n/a	n/a	n/a	22	12	3	2	7
2961570	PROB	n/a	LTP382	ltpFR2	2	n/a	n/a	n/a	22	15	9	3	3
2963953	PROB	n/a	LTP382	ltpFR2	2	n/a	n/a	n/a	22	25	7	9	9
2968019	PROB	n/a	LTP382	ltpFR2	2	n/a	n/a	n/a	22	11	6	3	2
2969420	STOP	n/a	LTP382	ltpFR2	2	n/a	n/a	n/a	22	n/a	n/a	n/a	n/a
2972003	REC_START	n/a	LTP382	ltpFR2	2	15	n/a	n/a	n/a	n/a	0	0	0
2974077	REC_WORD	wordpools/wasnorm_wordpool_576.txt	LTP382	ltpFR2	2	15	CONVICT	371	n/a	n/a	0	0	0
2984694	REC_WORD	wordpools/wasnorm_wordpool_576.txt	LTP382	ltpFR2	2	15	POPCORN	1104	n/a	n/a	0	0	0
2986465	REC_WORD	wordpools/wasnorm_wordpool_576.txt	LTP382	ltpFR2	2	15	HAMPER	682	n/a	n/a	0	0	0
3033191	REC_WORD	wordpools/wasnorm_wordpool_576.txt	LTP382	ltpFR2	2	15	GARLIC	624	n/a	n/a	0	0	0
3062451	DISTRACTOR	n/a	LTP382	ltpFR2	2	16	n/a	n/a	n/a	n/a	0	0	0
3062451	START	n/a	LTP382	ltpFR2	2	n/a	n/a	n/a	23	n/a	n/a	n/a	n/a
3062468	PROB	n/a	LTP382	ltpFR2	2	n/a	n/a	n/a	23	18	9	2	7
3064984	PROB	n/a	LTP382	ltpFR2	2	n/a	n/a	n/a	23	15	3	7	5
3066901	PROB	n/a	LTP382	ltpFR2	2	n/a	n/a	n/a	23	17	4	8	5
3068768	PROB	n/a	LTP382	ltpFR2	2	n/a	n/a	n/a	23	13	4	2	7
3070834	PROB	n/a	LTP382	ltpFR2	2	n/a	n/a	n/a	23	15	5	1	9
3072668	PROB	n/a	LTP382	ltpFR2	2	n/a	n/a	n/a	23	17	5	8	4
3074768	PROB	n/a	LTP382	ltpFR2	2	n/a	n/a	n/a	23	22	7	6	9
3078901	PROB	n/a	LTP382	ltpFR2	2	n/a	n/a	n/a	23	18	8	1	9
3080917	PROB	n/a	LTP382	ltpFR2	2	n/a	n/a	n/a	23	13	4	8	1
3082701	PROB	n/a	LTP382	ltpFR2	2	n/a	n/a	n/a	23	8	2	1	5
3084052	PROB	n/a	LTP382	ltpFR2	2	n/a	n/a	n/a	23	14	6	1	7
3086073	STOP	n/a	LTP382	ltpFR2	2	n/a	n/a	n/a	23	n/a	n/a	n/a	n/a
3087367	WORD	wordpools/wasnorm_wordpool_576.txt	LTP382	ltpFR2	2	16	DAUGHTER	442	n/a	n/a	0	0	0
3090085	WORD	wordpools/wasnorm_wordpool_576.txt	LTP382	ltpFR2	2	16	SPOON	1357	n/a	n/a	0	0	0
3092617	WORD	wordpools/wasnorm_wordpool_576.txt	LTP382	ltpFR2	2	16	HEART	697	n/a	n/a	0	0	0
3095052	WORD	wordpools/wasnorm_wordpool_576.txt	LTP382	ltpFR2	2	16	RABBIT	1152	n/a	n/a	0	0	0
3097734	WORD	wordpools/wasnorm_wordpool_576.txt	LTP382	ltpFR2	2	16	HANDBAG	684	n/a	n/a	0	0	0
3100300	WORD	wordpools/wasnorm_wordpool_576.txt	LTP382	ltpFR2	2	16	ACTRESS	6	n/a	n/a	0	0	0
3102967	WORD	wordpools/wasnorm_wordpool_576.txt	LTP382	ltpFR2	2	16	HELMET	702	n/a	n/a	0	0	0
3105717	WORD	wordpools/wasnorm_wordpool_576.txt	LTP382	ltpFR2	2	16	HATCHET	691	n/a	n/a	0	0	0
3108201	WORD	wordpools/wasnorm_wordpool_576.txt	LTP382	ltpFR2	2	16	CRAB	397	n/a	n/a	0	0	0
3110784	WORD	wordpools/wasnorm_wordpool_576.txt	LTP382	ltpFR2	2	16	HIGHWAY	707	n/a	n/a	0	0	0
3113234	WORD	wordpools/wasnorm_wordpool_576.txt	LTP382	ltpFR2	2	16	SIDEWALK	1303	n/a	n/a	0	0	0
3116034	WORD	wordpools/wasnorm_wordpool_576.txt	LTP382	ltpFR2	2	16	LAMP	798	n/a	n/a	0	0	0
3118700	WORD	wordpools/wasnorm_wordpool_576.txt	LTP382	ltpFR2	2	16	COCKTAIL	338	n/a	n/a	0	0	0
3121383	WORD	wordpools/wasnorm_wordpool_576.txt	LTP382	ltpFR2	2	16	CHEMIST	292	n/a	n/a	0	0	0
3123950	WORD	wordpools/wasnorm_wordpool_576.txt	LTP382	ltpFR2	2	16	MARKER	870	n/a	n/a	0	0	0
3126733	WORD	wordpools/wasnorm_wordpool_576.txt	LTP382	ltpFR2	2	16	FLESH	579	n/a	n/a	0	0	0
3129400	WORD	wordpools/wasnorm_wordpool_576.txt	LTP382	ltpFR2	2	16	CASKET	255	n/a	n/a	0	0	0
3132033	WORD	wordpools/wasnorm_wordpool_576.txt	LTP382	ltpFR2	2	16	SALT	1229	n/a	n/a	0	0	0
3134533	WORD	wordpools/wasnorm_wordpool_576.txt	LTP382	ltpFR2	2	16	BARLEY	88	n/a	n/a	0	0	0
3136967	WORD	wordpools/wasnorm_wordpool_576.txt	LTP382	ltpFR2	2	16	SWITCH	1422	n/a	n/a	0	0	0
3139716	WORD	wordpools/wasnorm_wordpool_576.txt	LTP382	ltpFR2	2	16	MATTRESS	879	n/a	n/a	0	0	0
3142350	WORD	wordpools/wasnorm_wordpool_576.txt	LTP382	ltpFR2	2	16	BEAKER	104	n/a	n/a	0	0	0
3145117	WORD	wordpools/wasnorm_wordpool_576.txt	LTP382	ltpFR2	2	16	DONOR	485	n/a	n/a	0	0	0
3147633	WORD	wordpools/wasnorm_wordpool_576.txt	LTP382	ltpFR2	2	16	DRUG	501	n/a	n/a	0	0	0
3149250	START	n/a	LTP382	ltpFR2	2	n/a	n/a	n/a	24	n/a	n/a	n/a	n/a
3150218	DISTRACTOR	n/a	LTP382	ltpFR2	2	16	n/a	n/a	n/a	n/a	0	0	0
3150233	PROB	n/a	LTP382	ltpFR2	2	n/a	n/a	n/a	24	18	3	8	7
3152400	PROB	n/a	LTP382	ltpFR2	2	n/a	n/a	n/a	24	14	5	2	7
3154566	PROB	n/a	LTP382	ltpFR2	2	n/a	n/a	n/a	24	10	4	4	2
3155866	PROB	n/a	LTP382	ltpFR2	2	n/a	n/a	n/a	24	5	4	2	9
3158566	PROB	n/a	LTP382	ltpFR2	2	n/a	n/a	n/a	24	19	8	5	6
3161566	PROB	n/a	LTP382	ltpFR2	2	n/a	n/a	n/a	24	16	8	7	1
3164100	PROB	n/a	LTP382	ltpFR2	2	n/a	n/a	n/a	24	18	6	8	4
3166816	PROB	n/a	LTP382	ltpFR2	2	n/a	n/a	n/a	24	14	7	6	1
3168683	PROB	n/a	LTP382	ltpFR2	2	n/a	n/a	n/a	24	20	7	4	9
3172242	STOP	n/a	LTP382	ltpFR2	2	n/a	n/a	n/a	24	n/a	n/a	n/a	n/a
3175051	REC_START	n/a	LTP382	ltpFR2	2	16	n/a	n/a	n/a	n/a	0	0	0
3176681	REC_WORD	wordpools/wasnorm_wordpool_576.txt	LTP382	ltpFR2	2	16	DAUGHTER	442	n/a	n/a	0	0	0
3177453	REC_WORD	wordpools/wasnorm_wordpool_576.txt	LTP382	ltpFR2	2	16	SPOON	1357	n/a	n/a	0	0	0
3178699	REC_WORD	wordpools/wasnorm_wordpool_576.txt	LTP382	ltpFR2	2	16	HEART	697	n/a	n/a	0	0	0
3179829	REC_WORD	wordpools/wasnorm_wordpool_576.txt	LTP382	ltpFR2	2	16	ACTRESS	6	n/a	n/a	0	0	0
3182065	REC_WORD	wordpools/wasnorm_wordpool_576.txt	LTP382	ltpFR2	2	16	HELMET	702	n/a	n/a	0	0	0
3183791	REC_WORD	wordpools/wasnorm_wordpool_576.txt	LTP382	ltpFR2	2	16	MATTRESS	879	n/a	n/a	0	0	0
3186189	REC_WORD	wordpools/wasnorm_wordpool_576.txt	LTP382	ltpFR2	2	16	DONOR	485	n/a	n/a	0	0	0
3251598	REST_REWET	n/a	LTP382	ltpFR2	2	16	n/a	n/a	n/a	n/a	0	0	0
3327313	WORD	wordpools/wasnorm_wordpool_576.txt	LTP382	ltpFR2	2	17	PIMPLE	1071	n/a	n/a	0	0	0
3329946	WORD	wordpools/wasnorm_wordpool_576.txt	LTP382	ltpFR2	2	17	TWEEZERS	1526	n/a	n/a	0	0	0
3332430	WORD	wordpools/wasnorm_wordpool_576.txt	LTP382	ltpFR2	2	17	BIKE	125	n/a	n/a	0	0	0
3334996	WORD	wordpools/wasnorm_wordpool_576.txt	LTP382	ltpFR2	2	17	ATOM	55	n/a	n/a	0	0	0
3337563	WORD	wordpools/wasnorm_wordpool_576.txt	LTP382	ltpFR2	2	17	BLOUSE	139	n/a	n/a	0	0	0
3340246	WORD	wordpools/wasnorm_wordpool_576.txt	LTP382	ltpFR2	2	17	MARS	873	n/a	n/a	0	0	0
3343013	WORD	wordpools/wasnorm_wordpool_576.txt	LTP382	ltpFR2	2	17	POWDER	1117	n/a	n/a	0	0	0
3345613	WORD	wordpools/wasnorm_wordpool_576.txt	LTP382	ltpFR2	2	17	BRANDY	169	n/a	n/a	0	0	0
3348230	WORD	wordpools/wasnorm_wordpool_576.txt	LTP382	ltpFR2	2	17	PIGEON	1065	n/a	n/a	0	0	0
3350996	WORD	wordpools/wasnorm_wordpool_576.txt	LTP382	ltpFR2	2	17	RIVER	1194	n/a	n/a	0	0	0
3353463	WORD	wordpools/wasnorm_wordpool_576.txt	LTP382	ltpFR2	2	17	ARM	38	n/a	n/a	0	0	0
3356164	WORD	wordpools/wasnorm_wordpool_576.txt	LTP382	ltpFR2	2	17	SCARECROW	1245	n/a	n/a	0	0	0
3358813	WORD	wordpools/wasnorm_wordpool_576.txt	LTP382	ltpFR2	2	17	PALACE	1006	n/a	n/a	0	0	0
3361313	WORD	wordpools/wasnorm_wordpool_576.txt	LTP382	ltpFR2	2	17	PRINCE	1124	n/a	n/a	0	0	0
3363846	WORD	wordpools/wasnorm_wordpool_576.txt	LTP382	ltpFR2	2	17	POET	1095	n/a	n/a	0	0	0
3366596	WORD	wordpools/wasnorm_wordpool_576.txt	LTP382	ltpFR2	2	17	NEUTRON	947	n/a	n/a	0	0	0
3369114	WORD	wordpools/wasnorm_wordpool_576.txt	LTP382	ltpFR2	2	17	LIZARD	834	n/a	n/a	0	0	0
3371829	WORD	wordpools/wasnorm_wordpool_576.txt	LTP382	ltpFR2	2	17	SEAFOOD	1260	n/a	n/a	0	0	0
3374462	WORD	wordpools/wasnorm_wordpool_576.txt	LTP382	ltpFR2	2	17	CLAM	315	n/a	n/a	0	0	0
3377180	WORD	wordpools/wasnorm_wordpool_576.txt	LTP382	ltpFR2	2	17	LEOPARD	812	n/a	n/a	0	0	0
3379746	WORD	wordpools/wasnorm_wordpool_576.txt	LTP382	ltpFR2	2	17	BABY	64	n/a	n/a	0	0	0
3382529	WORD	wordpools/wasnorm_wordpool_576.txt	LTP382	ltpFR2	2	17	CYCLONE	431	n/a	n/a	0	0	0
3385279	WORD	wordpools/wasnorm_wordpool_576.txt	LTP382	ltpFR2	2	17	VAGRANT	1544	n/a	n/a	0	0	0
3387829	WORD	wordpools/wasnorm_wordpool_576.txt	LTP382	ltpFR2	2	17	UMPIRE	1535	n/a	n/a	0	0	0
3389446	START	n/a	LTP382	ltpFR2	2	n/a	n/a	n/a	25	n/a	n/a	n/a	n/a
3390419	DISTRACTOR	n/a	LTP382	ltpFR2	2	17	n/a	n/a	n/a	n/a	0	0	0
3390429	PROB	n/a	LTP382	ltpFR2	2	n/a	n/a	n/a	25	16	4	4	8
3392395	PROB	n/a	LTP382	ltpFR2	2	n/a	n/a	n/a	25	9	1	4	4
3394029	PROB	n/a	LTP382	ltpFR2	2	n/a	n/a	n/a	25	14	6	7	1
3396279	PROB	n/a	LTP382	ltpFR2	2	n/a	n/a	n/a	25	18	4	6	8
3397395	PROB	n/a	LTP382	ltpFR2	2	n/a	n/a	n/a	25	11	3	3	5
3399562	PROB	n/a	LTP382	ltpFR2	2	n/a	n/a	n/a	25	20	9	5	6
3401180	PROB	n/a	LTP382	ltpFR2	2	n/a	n/a	n/a	25	12	6	5	1
3403595	PROB	n/a	LTP382	ltpFR2	2	n/a	n/a	n/a	25	16	6	4	6
3405329	PROB	n/a	LTP382	ltpFR2	2	n/a	n/a	n/a	25	24	7	9	8
3408729	PROB	n/a	LTP382	ltpFR2	2	n/a	n/a	n/a	25	14	8	3	3
3411028	PROB	n/a	LTP382	ltpFR2	2	n/a	n/a	n/a	25	14	5	3	6
3412571	STOP	n/a	LTP382	ltpFR2	2	n/a	n/a	n/a	25	n/a	n/a	n/a	n/a
3415212	REC_START	n/a	LTP382	ltpFR2	2	17	n/a	n/a	n/a	n/a	0	0	0
3417979	REC_WORD	wordpools/wasnorm_wordpool_576.txt	LTP382	ltpFR2	2	17	BABY	64	n/a	n/a	0	0	0
3419388	REC_WORD	wordpools/wasnorm_wordpool_576.txt	LTP382	ltpFR2	2	17	LEOPARD	812	n/a	n/a	0	0	0
3422105	REC_WORD	wordpools/wasnorm_wordpool_576.txt	LTP382	ltpFR2	2	17	PIMPLE	1071	n/a	n/a	0	0	0
3424032	REC_WORD	wordpools/wasnorm_wordpool_576.txt	LTP382	ltpFR2	2	17	TWEEZERS	1526	n/a	n/a	0	0	0
3425702	REC_WORD	wordpools/wasnorm_wordpool_576.txt	LTP382	ltpFR2	2	17	SEAFOOD	1260	n/a	n/a	0	0	0
3427396	REC_WORD	wordpools/wasnorm_wordpool_576.txt	LTP382	ltpFR2	2	17	CLAM	315	n/a	n/a	0	0	0
3433140	REC_WORD	wordpools/wasnorm_wordpool_576.txt	LTP382	ltpFR2	2	17	BLOUSE	139	n/a	n/a	0	0	0
3436397	REC_WORD	wordpools/wasnorm_wordpool_576.txt	LTP382	ltpFR2	2	17	ATOM	55	n/a	n/a	0	0	0
3505660	DISTRACTOR	n/a	LTP382	ltpFR2	2	18	n/a	n/a	n/a	n/a	0	0	0
3505660	START	n/a	LTP382	ltpFR2	2	n/a	n/a	n/a	26	n/a	n/a	n/a	n/a
3505677	PROB	n/a	LTP382	ltpFR2	2	n/a	n/a	n/a	26	12	8	1	3
3508644	PROB	n/a	LTP382	ltpFR2	2	n/a	n/a	n/a	26	12	1	6	5
3510677	PROB	n/a	LTP382	ltpFR2	2	n/a	n/a	n/a	26	12	1	4	7
3513061	PROB	n/a	LTP382	ltpFR2	2	n/a	n/a	n/a	26	13	6	6	1
3514777	PROB	n/a	LTP382	ltpFR2	2	n/a	n/a	n/a	26	15	9	1	5
3516410	PROB	n/a	LTP382	ltpFR2	2	n/a	n/a	n/a	26	9	4	3	2
3519043	PROB	n/a	LTP382	ltpFR2	2	n/a	n/a	n/a	26	20	8	7	5
3521893	PROB	n/a	LTP382	ltpFR2	2	n/a	n/a	n/a	26	16	1	7	8
3523843	PROB	n/a	LTP382	ltpFR2	2	n/a	n/a	n/a	26	14	3	4	6
3525910	PROB	n/a	LTP382	ltpFR2	2	n/a	n/a	n/a	26	20	6	5	9
3528749	STOP	n/a	LTP382	ltpFR2	2	n/a	n/a	n/a	26	n/a	n/a	n/a	n/a
3530776	WORD	wordpools/wasnorm_wordpool_576.txt	LTP382	ltpFR2	2	18	MACHINE	852	n/a	n/a	0	0	0
3533576	WORD	wordpools/wasnorm_wordpool_576.txt	LTP382	ltpFR2	2	18	CASHIER	254	n/a	n/a	0	0	0
3536276	WORD	wordpools/wasnorm_wordpool_576.txt	LTP382	ltpFR2	2	18	FOX	598	n/a	n/a	0	0	0
3538760	WORD	wordpools/wasnorm_wordpool_576.txt	LTP382	ltpFR2	2	18	HIKER	708	n/a	n/a	0	0	0
3541426	WORD	wordpools/wasnorm_wordpool_576.txt	LTP382	ltpFR2	2	18	SILK	1307	n/a	n/a	0	0	0
3543876	WORD	wordpools/wasnorm_wordpool_576.txt	LTP382	ltpFR2	2	18	PAIL	1002	n/a	n/a	0	0	0
3546676	WORD	wordpools/wasnorm_wordpool_576.txt	LTP382	ltpFR2	2	18	CREVICE	405	n/a	n/a	0	0	0
3549309	WORD	wordpools/wasnorm_wordpool_576.txt	LTP382	ltpFR2	2	18	CUSTARD	429	n/a	n/a	0	0	0
3551843	WORD	wordpools/wasnorm_wordpool_576.txt	LTP382	ltpFR2	2	18	BODY	145	n/a	n/a	0	0	0
3554626	WORD	wordpools/wasnorm_wordpool_576.txt	LTP382	ltpFR2	2	18	PEACH	1031	n/a	n/a	0	0	0
3557077	WORD	wordpools/wasnorm_wordpool_576.txt	LTP382	ltpFR2	2	18	FRUIT	610	n/a	n/a	0	0	0
3559859	WORD	wordpools/wasnorm_wordpool_576.txt	LTP382	ltpFR2	2	18	DANDRUFF	439	n/a	n/a	0	0	0
3562543	WORD	wordpools/wasnorm_wordpool_576.txt	LTP382	ltpFR2	2	18	STUDENT	1395	n/a	n/a	0	0	0
3565359	WORD	wordpools/wasnorm_wordpool_576.txt	LTP382	ltpFR2	2	18	BANQUET	86	n/a	n/a	0	0	0
3568026	WORD	wordpools/wasnorm_wordpool_576.txt	LTP382	ltpFR2	2	18	PLUTO	1092	n/a	n/a	0	0	0
3570776	WORD	wordpools/wasnorm_wordpool_576.txt	LTP382	ltpFR2	2	18	JOURNAL	760	n/a	n/a	0	0	0
3573576	WORD	wordpools/wasnorm_wordpool_576.txt	LTP382	ltpFR2	2	18	PASSAGE	1019	n/a	n/a	0	0	0
3576110	WORD	wordpools/wasnorm_wordpool_576.txt	LTP382	ltpFR2	2	18	GRAVEL	659	n/a	n/a	0	0	0
3578776	WORD	wordpools/wasnorm_wordpool_576.txt	LTP382	ltpFR2	2	18	XEROX	1628	n/a	n/a	0	0	0
3581426	WORD	wordpools/wasnorm_wordpool_576.txt	LTP382	ltpFR2	2	18	CAFE	216	n/a	n/a	0	0	0
3584060	WORD	wordpools/wasnorm_wordpool_576.txt	LTP382	ltpFR2	2	18	GYMNAST	675	n/a	n/a	0	0	0
3586775	WORD	wordpools/wasnorm_wordpool_576.txt	LTP382	ltpFR2	2	18	SKIRT	1319	n/a	n/a	0	0	0
3589209	WORD	wordpools/wasnorm_wordpool_576.txt	LTP382	ltpFR2	2	18	COMET	353	n/a	n/a	0	0	0
3591859	WORD	wordpools/wasnorm_wordpool_576.txt	LTP382	ltpFR2	2	18	ROCKET	1202	n/a	n/a	0	0	0
3593476	START	n/a	LTP382	ltpFR2	2	n/a	n/a	n/a	27	n/a	n/a	n/a	n/a
3594441	DISTRACTOR	n/a	LTP382	ltpFR2	2	18	n/a	n/a	n/a	n/a	0	0	0
3594459	PROB	n/a	LTP382	ltpFR2	2	n/a	n/a	n/a	27	11	4	1	6
3596392	PROB	n/a	LTP382	ltpFR2	2	n/a	n/a	n/a	27	9	1	6	2
3597992	PROB	n/a	LTP382	ltpFR2	2	n/a	n/a	n/a	27	18	2	9	7
3599759	PROB	n/a	LTP382	ltpFR2	2	n/a	n/a	n/a	27	14	6	3	5
3602542	PROB	n/a	LTP382	ltpFR2	2	n/a	n/a	n/a	27	15	2	7	6
3604642	PROB	n/a	LTP382	ltpFR2	2	n/a	n/a	n/a	27	12	7	2	3
3606692	PROB	n/a	LTP382	ltpFR2	2	n/a	n/a	n/a	27	13	1	2	9
3609093	PROB	n/a	LTP382	ltpFR2	2	n/a	n/a	n/a	27	16	4	4	8
3611442	PROB	n/a	LTP382	ltpFR2	2	n/a	n/a	n/a	27	20	8	5	7
3613758	PROB	n/a	LTP382	ltpFR2	2	n/a	n/a	n/a	27	14	7	2	5
3617476	STOP	n/a	LTP382	ltpFR2	2	n/a	n/a	n/a	27	n/a	n/a	n/a	n/a
3619309	REC_START	n/a	LTP382	ltpFR2	2	18	n/a	n/a	n/a	n/a	0	0	0
3622978	REC_WORD	wordpools/wasnorm_wordpool_576.txt	LTP382	ltpFR2	2	18	HIKING	-1	n/a	n/a	0	0	0
3625026	REC_WORD	wordpools/wasnorm_wordpool_576.txt	LTP382	ltpFR2	2	18	FOX	598	n/a	n/a	0	0	0
3626997	REC_WORD	wordpools/wasnorm_wordpool_576.txt	LTP382	ltpFR2	2	18	CUSTARD	429	n/a	n/a	0	0	0
3629402	REC_WORD	wordpools/wasnorm_wordpool_576.txt	LTP382	ltpFR2	2	18	PEAR	1033	n/a	n/a	0	0	0
3631492	REC_WORD	wordpools/wasnorm_wordpool_576.txt	LTP382	ltpFR2	2	18	FRUIT	610	n/a	n/a	0	0	0
3636730	REC_WORD	wordpools/wasnorm_wordpool_576.txt	LTP382	ltpFR2	2	18	XEROX	1628	n/a	n/a	0	0	0
3650761	REC_WORD	wordpools/wasnorm_wordpool_576.txt	LTP382	ltpFR2	2	18	STUDENT	1395	n/a	n/a	0	0	0
3709773	WORD	wordpools/wasnorm_wordpool_576.txt	LTP382	ltpFR2	2	19	TUNNEL	1519	n/a	n/a	0	0	0
3712490	WORD	wordpools/wasnorm_wordpool_576.txt	LTP382	ltpFR2	2	19	HOOK	715	n/a	n/a	0	0	0
3715257	WORD	wordpools/wasnorm_wordpool_576.txt	LTP382	ltpFR2	2	19	DIVER	476	n/a	n/a	0	0	0
3717907	WORD	wordpools/wasnorm_wordpool_576.txt	LTP382	ltpFR2	2	19	VIRUS	1572	n/a	n/a	0	0	0
3720490	WORD	wordpools/wasnorm_wordpool_576.txt	LTP382	ltpFR2	2	19	TWIG	1527	n/a	n/a	0	0	0
3723141	WORD	wordpools/wasnorm_wordpool_576.txt	LTP382	ltpFR2	2	19	THRONE	1461	n/a	n/a	0	0	0
3725690	WORD	wordpools/wasnorm_wordpool_576.txt	LTP382	ltpFR2	2	19	PRINCESS	1125	n/a	n/a	0	0	0
3728356	WORD	wordpools/wasnorm_wordpool_576.txt	LTP382	ltpFR2	2	19	CHURCH	307	n/a	n/a	0	0	0
3730923	WORD	wordpools/wasnorm_wordpool_576.txt	LTP382	ltpFR2	2	19	CRATER	400	n/a	n/a	0	0	0
3733706	WORD	wordpools/wasnorm_wordpool_576.txt	LTP382	ltpFR2	2	19	FRAME	600	n/a	n/a	0	0	0
3736157	WORD	wordpools/wasnorm_wordpool_576.txt	LTP382	ltpFR2	2	19	PICTURE	1061	n/a	n/a	0	0	0
3738623	WORD	wordpools/wasnorm_wordpool_576.txt	LTP382	ltpFR2	2	19	PUDDING	1139	n/a	n/a	0	0	0
3741323	WORD	wordpools/wasnorm_wordpool_576.txt	LTP382	ltpFR2	2	19	HUMAN	726	n/a	n/a	0	0	0
3744006	WORD	wordpools/wasnorm_wordpool_576.txt	LTP382	ltpFR2	2	19	KLEENEX	782	n/a	n/a	0	0	0
3746539	WORD	wordpools/wasnorm_wordpool_576.txt	LTP382	ltpFR2	2	19	JELLO	754	n/a	n/a	0	0	0
3749273	WORD	wordpools/wasnorm_wordpool_576.txt	LTP382	ltpFR2	2	19	HAND	683	n/a	n/a	0	0	0
3752039	WORD	wordpools/wasnorm_wordpool_576.txt	LTP382	ltpFR2	2	19	LACE	792	n/a	n/a	0	0	0
3754639	WORD	wordpools/wasnorm_wordpool_576.txt	LTP382	ltpFR2	2	19	SPACE	1345	n/a	n/a	0	0	0
3757074	WORD	wordpools/wasnorm_wordpool_576.txt	LTP382	ltpFR2	2	19	ASIA	46	n/a	n/a	0	0	0
3759622	WORD	wordpools/wasnorm_wordpool_576.txt	LTP382	ltpFR2	2	19	FLASHLIGHT	575	n/a	n/a	0	0	0
3762339	WORD	wordpools/wasnorm_wordpool_576.txt	LTP382	ltpFR2	2	19	FINGER	567	n/a	n/a	0	0	0
3765039	WORD	wordpools/wasnorm_wordpool_576.txt	LTP382	ltpFR2	2	19	POISON	1096	n/a	n/a	0	0	0
3767706	WORD	wordpools/wasnorm_wordpool_576.txt	LTP382	ltpFR2	2	19	EXPERT	543	n/a	n/a	0	0	0
3770422	WORD	wordpools/wasnorm_wordpool_576.txt	LTP382	ltpFR2	2	19	EUROPE	541	n/a	n/a	0	0	0
3772039	START	n/a	LTP382	ltpFR2	2	n/a	n/a	n/a	28	n/a	n/a	n/a	n/a
3773199	DISTRACTOR	n/a	LTP382	ltpFR2	2	19	n/a	n/a	n/a	n/a	0	0	0
3773206	PROB	n/a	LTP382	ltpFR2	2	n/a	n/a	n/a	28	22	7	6	9
3776722	PROB	n/a	LTP382	ltpFR2	2	n/a	n/a	n/a	28	12	8	3	1
3780173	PROB	n/a	LTP382	ltpFR2	2	n/a	n/a	n/a	28	19	4	8	7
3782872	PROB	n/a	LTP382	ltpFR2	2	n/a	n/a	n/a	28	19	6	5	8
3784589	PROB	n/a	LTP382	ltpFR2	2	n/a	n/a	n/a	28	19	9	9	1
3786222	PROB	n/a	LTP382	ltpFR2	2	n/a	n/a	n/a	28	15	3	3	9
3788489	PROB	n/a	LTP382	ltpFR2	2	n/a	n/a	n/a	28	18	8	8	2
3789839	PROB	n/a	LTP382	ltpFR2	2	n/a	n/a	n/a	28	16	3	4	9
3791739	PROB	n/a	LTP382	ltpFR2	2	n/a	n/a	n/a	28	18	2	8	8
3793289	PROB	n/a	LTP382	ltpFR2	2	n/a	n/a	n/a	28	18	9	3	6
3795340	STOP	n/a	LTP382	ltpFR2	2	n/a	n/a	n/a	28	n/a	n/a	n/a	n/a
3797940	REC_START	n/a	LTP382	ltpFR2	2	19	n/a	n/a	n/a	n/a	0	0	0
3799685	REC_WORD	wordpools/wasnorm_wordpool_576.txt	LTP382	ltpFR2	2	19	HUMAN	726	n/a	n/a	0	0	0
3801752	REC_WORD	wordpools/wasnorm_wordpool_576.txt	LTP382	ltpFR2	2	19	KLEENEX	782	n/a	n/a	0	0	0
3804414	REC_WORD	wordpools/wasnorm_wordpool_576.txt	LTP382	ltpFR2	2	19	FLASHLIGHT	575	n/a	n/a	0	0	0
3806313	REC_WORD	wordpools/wasnorm_wordpool_576.txt	LTP382	ltpFR2	2	19	FINGER	567	n/a	n/a	0	0	0
3807632	REC_WORD	wordpools/wasnorm_wordpool_576.txt	LTP382	ltpFR2	2	19	POISON	1096	n/a	n/a	0	0	0
3809014	REC_WORD	wordpools/wasnorm_wordpool_576.txt	LTP382	ltpFR2	2	19	ASIA	46	n/a	n/a	0	0	0
3810396	REC_WORD	wordpools/wasnorm_wordpool_576.txt	LTP382	ltpFR2	2	19	EUROPE	541	n/a	n/a	0	0	0
3888387	DISTRACTOR	n/a	LTP382	ltpFR2	2	20	n/a	n/a	n/a	n/a	0	0	0
3888387	START	n/a	LTP382	ltpFR2	2	n/a	n/a	n/a	29	n/a	n/a	n/a	n/a
3888404	PROB	n/a	LTP382	ltpFR2	2	n/a	n/a	n/a	29	12	9	2	1
3890370	PROB	n/a	LTP382	ltpFR2	2	n/a	n/a	n/a	29	9	2	4	3
3892537	PROB	n/a	LTP382	ltpFR2	2	n/a	n/a	n/a	29	18	8	4	6
3894454	PROB	n/a	LTP382	ltpFR2	2	n/a	n/a	n/a	29	10	3	2	5
3896071	PROB	n/a	LTP382	ltpFR2	2	n/a	n/a	n/a	29	18	5	4	9
3897587	PROB	n/a	LTP382	ltpFR2	2	n/a	n/a	n/a	29	18	9	4	5
3899887	PROB	n/a	LTP382	ltpFR2	2	n/a	n/a	n/a	29	21	8	5	8
3903703	PROB	n/a	LTP382	ltpFR2	2	n/a	n/a	n/a	29	14	3	7	4
3905104	PROB	n/a	LTP382	ltpFR2	2	n/a	n/a	n/a	29	26	8	9	9
3907820	PROB	n/a	LTP382	ltpFR2	2	n/a	n/a	n/a	29	16	7	1	8
3910171	PROB	n/a	LTP382	ltpFR2	2	n/a	n/a	n/a	29	12	5	1	6
3911568	STOP	n/a	LTP382	ltpFR2	2	n/a	n/a	n/a	29	n/a	n/a	n/a	n/a
3913470	WORD	wordpools/wasnorm_wordpool_576.txt	LTP382	ltpFR2	2	20	CELLAR	267	n/a	n/a	0	0	0
3916253	WORD	wordpools/wasnorm_wordpool_576.txt	LTP382	ltpFR2	2	20	BRIEFCASE	175	n/a	n/a	0	0	0
3918870	WORD	wordpools/wasnorm_wordpool_576.txt	LTP382	ltpFR2	2	20	ICEBERG	731	n/a	n/a	0	0	0
3921570	WORD	wordpools/wasnorm_wordpool_576.txt	LTP382	ltpFR2	2	20	COTTAGE	384	n/a	n/a	0	0	0
3924336	WORD	wordpools/wasnorm_wordpool_576.txt	LTP382	ltpFR2	2	20	MILK	895	n/a	n/a	0	0	0
3926970	WORD	wordpools/wasnorm_wordpool_576.txt	LTP382	ltpFR2	2	20	JEANS	752	n/a	n/a	0	0	0
3929653	WORD	wordpools/wasnorm_wordpool_576.txt	LTP382	ltpFR2	2	20	CLOCK	325	n/a	n/a	0	0	0
3932171	WORD	wordpools/wasnorm_wordpool_576.txt	LTP382	ltpFR2	2	20	MUFFIN	929	n/a	n/a	0	0	0
3934903	WORD	wordpools/wasnorm_wordpool_576.txt	LTP382	ltpFR2	2	20	TOASTER	1472	n/a	n/a	0	0	0
3937670	WORD	wordpools/wasnorm_wordpool_576.txt	LTP382	ltpFR2	2	20	BELLY	119	n/a	n/a	0	0	0
3940453	WORD	wordpools/wasnorm_wordpool_576.txt	LTP382	ltpFR2	2	20	IGLOO	734	n/a	n/a	0	0	0
3942903	WORD	wordpools/wasnorm_wordpool_576.txt	LTP382	ltpFR2	2	20	SWORD	1423	n/a	n/a	0	0	0
3945403	WORD	wordpools/wasnorm_wordpool_576.txt	LTP382	ltpFR2	2	20	SCALPEL	1243	n/a	n/a	0	0	0
3948019	WORD	wordpools/wasnorm_wordpool_576.txt	LTP382	ltpFR2	2	20	GRIZZLY	662	n/a	n/a	0	0	0
3950686	WORD	wordpools/wasnorm_wordpool_576.txt	LTP382	ltpFR2	2	20	BUNNY	198	n/a	n/a	0	0	0
3953303	WORD	wordpools/wasnorm_wordpool_576.txt	LTP382	ltpFR2	2	20	QUARTER	1148	n/a	n/a	0	0	0
3955936	WORD	wordpools/wasnorm_wordpool_576.txt	LTP382	ltpFR2	2	20	GARDEN	623	n/a	n/a	0	0	0
3958486	WORD	wordpools/wasnorm_wordpool_576.txt	LTP382	ltpFR2	2	20	LUNCH	849	n/a	n/a	0	0	0
3961187	WORD	wordpools/wasnorm_wordpool_576.txt	LTP382	ltpFR2	2	20	BUTCHER	203	n/a	n/a	0	0	0
3963736	WORD	wordpools/wasnorm_wordpool_576.txt	LTP382	ltpFR2	2	20	MAMMAL	861	n/a	n/a	0	0	0
3966286	WORD	wordpools/wasnorm_wordpool_576.txt	LTP382	ltpFR2	2	20	REPORT	1184	n/a	n/a	0	0	0
3968986	WORD	wordpools/wasnorm_wordpool_576.txt	LTP382	ltpFR2	2	20	BULLET	194	n/a	n/a	0	0	0
3971519	WORD	wordpools/wasnorm_wordpool_576.txt	LTP382	ltpFR2	2	20	PISTON	1076	n/a	n/a	0	0	0
3974019	WORD	wordpools/wasnorm_wordpool_576.txt	LTP382	ltpFR2	2	20	VENUS	1557	n/a	n/a	0	0	0
3975636	START	n/a	LTP382	ltpFR2	2	n/a	n/a	n/a	30	n/a	n/a	n/a	n/a
3976785	DISTRACTOR	n/a	LTP382	ltpFR2	2	20	n/a	n/a	n/a	n/a	0	0	0
3976802	PROB	n/a	LTP382	ltpFR2	2	n/a	n/a	n/a	30	14	1	8	5
3979369	PROB	n/a	LTP382	ltpFR2	2	n/a	n/a	n/a	30	14	3	3	8
3983019	PROB	n/a	LTP382	ltpFR2	2	n/a	n/a	n/a	30	20	7	5	8
3984535	PROB	n/a	LTP382	ltpFR2	2	n/a	n/a	n/a	30	7	1	4	2
3986569	PROB	n/a	LTP382	ltpFR2	2	n/a	n/a	n/a	30	22	8	7	7
3992685	PROB	n/a	LTP382	ltpFR2	2	n/a	n/a	n/a	30	12	2	8	2
3994418	PROB	n/a	LTP382	ltpFR2	2	n/a	n/a	n/a	30	9	1	7	1
3995952	PROB	n/a	LTP382	ltpFR2	2	n/a	n/a	n/a	30	20	3	8	9
3998474	STOP	n/a	LTP382	ltpFR2	2	n/a	n/a	n/a	30	n/a	n/a	n/a	n/a
4001469	REC_START	n/a	LTP382	ltpFR2	2	20	n/a	n/a	n/a	n/a	0	0	0
4003952	REC_WORD	wordpools/wasnorm_wordpool_576.txt	LTP382	ltpFR2	2	20	BRIEFCASE	175	n/a	n/a	0	0	0
4004952	REC_WORD_VV	wordpools/wasnorm_wordpool_576.txt	LTP382	ltpFR2	2	20	<>	-1	n/a	n/a	0	0	0
4006240	REC_WORD	wordpools/wasnorm_wordpool_576.txt	LTP382	ltpFR2	2	20	ICEBERG	731	n/a	n/a	0	0	0
4007762	REC_WORD	wordpools/wasnorm_wordpool_576.txt	LTP382	ltpFR2	2	20	IGLOO	734	n/a	n/a	0	0	0
4009254	REC_WORD	wordpools/wasnorm_wordpool_576.txt	LTP382	ltpFR2	2	20	COTTAGE	384	n/a	n/a	0	0	0
4010658	REC_WORD	wordpools/wasnorm_wordpool_576.txt	LTP382	ltpFR2	2	20	CLOCK	325	n/a	n/a	0	0	0
4012078	REC_WORD	wordpools/wasnorm_wordpool_576.txt	LTP382	ltpFR2	2	20	JEANS	752	n/a	n/a	0	0	0
4013369	REC_WORD	wordpools/wasnorm_wordpool_576.txt	LTP382	ltpFR2	2	20	GRIZZLY	662	n/a	n/a	0	0	0
4014882	REC_WORD	wordpools/wasnorm_wordpool_576.txt	LTP382	ltpFR2	2	20	RABBIT	1152	n/a	n/a	0	0	0
4018323	REC_WORD	wordpools/wasnorm_wordpool_576.txt	LTP382	ltpFR2	2	20	BUTCHER	203	n/a	n/a	0	0	0
4022333	REC_WORD	wordpools/wasnorm_wordpool_576.txt	LTP382	ltpFR2	2	20	LUNCH	849	n/a	n/a	0	0	0
4024629	REC_WORD	wordpools/wasnorm_wordpool_576.txt	LTP382	ltpFR2	2	20	MAMMAL	861	n/a	n/a	0	0	0
4091934	WORD	wordpools/wasnorm_wordpool_576.txt	LTP382	ltpFR2	2	21	POCKET	1093	n/a	n/a	0	0	0
4094400	WORD	wordpools/wasnorm_wordpool_576.txt	LTP382	ltpFR2	2	21	LION	827	n/a	n/a	0	0	0
4096983	WORD	wordpools/wasnorm_wordpool_576.txt	LTP382	ltpFR2	2	21	FARMER	553	n/a	n/a	0	0	0
4099533	WORD	wordpools/wasnorm_wordpool_576.txt	LTP382	ltpFR2	2	21	BISON	131	n/a	n/a	0	0	0
4102151	WORD	wordpools/wasnorm_wordpool_576.txt	LTP382	ltpFR2	2	21	SPONGE	1355	n/a	n/a	0	0	0
4104883	WORD	wordpools/wasnorm_wordpool_576.txt	LTP382	ltpFR2	2	21	EGYPT	519	n/a	n/a	0	0	0
4107583	WORD	wordpools/wasnorm_wordpool_576.txt	LTP382	ltpFR2	2	21	JAPAN	749	n/a	n/a	0	0	0
4110151	WORD	wordpools/wasnorm_wordpool_576.txt	LTP382	ltpFR2	2	21	BRANCH	168	n/a	n/a	0	0	0
4112983	WORD	wordpools/wasnorm_wordpool_576.txt	LTP382	ltpFR2	2	21	LAKE	796	n/a	n/a	0	0	0
4115667	WORD	wordpools/wasnorm_wordpool_576.txt	LTP382	ltpFR2	2	21	PERCH	1048	n/a	n/a	0	0	0
4118433	WORD	wordpools/wasnorm_wordpool_576.txt	LTP382	ltpFR2	2	21	HUSBAND	728	n/a	n/a	0	0	0
4121051	WORD	wordpools/wasnorm_wordpool_576.txt	LTP382	ltpFR2	2	21	SPOUSE	1358	n/a	n/a	0	0	0
4123516	WORD	wordpools/wasnorm_wordpool_576.txt	LTP382	ltpFR2	2	21	DOUGHNUT	490	n/a	n/a	0	0	0
4125950	WORD	wordpools/wasnorm_wordpool_576.txt	LTP382	ltpFR2	2	21	TEACHER	1440	n/a	n/a	0	0	0
4128450	WORD	wordpools/wasnorm_wordpool_576.txt	LTP382	ltpFR2	2	21	GOBLIN	645	n/a	n/a	0	0	0
4131033	WORD	wordpools/wasnorm_wordpool_576.txt	LTP382	ltpFR2	2	21	PENGUIN	1044	n/a	n/a	0	0	0
4133850	WORD	wordpools/wasnorm_wordpool_576.txt	LTP382	ltpFR2	2	21	RECEIPT	1173	n/a	n/a	0	0	0
4136616	WORD	wordpools/wasnorm_wordpool_576.txt	LTP382	ltpFR2	2	21	DONKEY	484	n/a	n/a	0	0	0
4139249	WORD	wordpools/wasnorm_wordpool_576.txt	LTP382	ltpFR2	2	21	DENIM	446	n/a	n/a	0	0	0
4141816	WORD	wordpools/wasnorm_wordpool_576.txt	LTP382	ltpFR2	2	21	LAPEL	800	n/a	n/a	0	0	0
4144483	WORD	wordpools/wasnorm_wordpool_576.txt	LTP382	ltpFR2	2	21	SEAL	1262	n/a	n/a	0	0	0
4147016	WORD	wordpools/wasnorm_wordpool_576.txt	LTP382	ltpFR2	2	21	HERO	706	n/a	n/a	0	0	0
4149833	WORD	wordpools/wasnorm_wordpool_576.txt	LTP382	ltpFR2	2	21	PARROT	1015	n/a	n/a	0	0	0
4152383	WORD	wordpools/wasnorm_wordpool_576.txt	LTP382	ltpFR2	2	21	APRON	35	n/a	n/a	0	0	0
4153999	START	n/a	LTP382	ltpFR2	2	n/a	n/a	n/a	31	n/a	n/a	n/a	n/a
4154987	DISTRACTOR	n/a	LTP382	ltpFR2	2	21	n/a	n/a	n/a	n/a	0	0	0
4154999	PROB	n/a	LTP382	ltpFR2	2	n/a	n/a	n/a	31	19	9	6	4
4158283	PROB	n/a	LTP382	ltpFR2	2	n/a	n/a	n/a	31	19	5	8	6
4160549	PROB	n/a	LTP382	ltpFR2	2	n/a	n/a	n/a	31	8	2	4	2
4161866	PROB	n/a	LTP382	ltpFR2	2	n/a	n/a	n/a	31	15	6	6	3
4163399	PROB	n/a	LTP382	ltpFR2	2	n/a	n/a	n/a	31	18	8	5	5
4165916	PROB	n/a	LTP382	ltpFR2	2	n/a	n/a	n/a	31	12	2	3	7
4167299	PROB	n/a	LTP382	ltpFR2	2	n/a	n/a	n/a	31	19	5	6	8
4169449	PROB	n/a	LTP382	ltpFR2	2	n/a	n/a	n/a	31	11	5	1	5
4170732	PROB	n/a	LTP382	ltpFR2	2	n/a	n/a	n/a	31	18	7	3	8
4172200	PROB	n/a	LTP382	ltpFR2	2	n/a	n/a	n/a	31	16	2	9	5
4177999	STOP	n/a	LTP382	ltpFR2	2	n/a	n/a	n/a	31	n/a	n/a	n/a	n/a
4179899	REC_START	n/a	LTP382	ltpFR2	2	21	n/a	n/a	n/a	n/a	0	0	0
4184145	REC_WORD_VV	wordpools/wasnorm_wordpool_576.txt	LTP382	ltpFR2	2	21	<>	-1	n/a	n/a	0	0	0
4184928	REC_WORD	wordpools/wasnorm_wordpool_576.txt	LTP382	ltpFR2	2	21	FARMER	553	n/a	n/a	0	0	0
4186482	REC_WORD	wordpools/wasnorm_wordpool_576.txt	LTP382	ltpFR2	2	21	BISON	131	n/a	n/a	0	0	0
4188377	REC_WORD	wordpools/wasnorm_wordpool_576.txt	LTP382	ltpFR2	2	21	LION	827	n/a	n/a	0	0	0
4215171	REC_WORD	wordpools/wasnorm_wordpool_576.txt	LTP382	ltpFR2	2	21	COW	393	n/a	n/a	0	0	0
4270347	DISTRACTOR	n/a	LTP382	ltpFR2	2	22	n/a	n/a	n/a	n/a	0	0	0
4270347	START	n/a	LTP382	ltpFR2	2	n/a	n/a	n/a	32	n/a	n/a	n/a	n/a
4270364	PROB	n/a	LTP382	ltpFR2	2	n/a	n/a	n/a	32	17	5	7	5
4273547	PROB	n/a	LTP382	ltpFR2	2	n/a	n/a	n/a	32	13	6	1	6
4274897	PROB	n/a	LTP382	ltpFR2	2	n/a	n/a	n/a	32	9	5	1	3
4277380	PROB	n/a	LTP382	ltpFR2	2	n/a	n/a	n/a	32	14	7	4	3
4278830	PROB	n/a	LTP382	ltpFR2	2	n/a	n/a	n/a	32	18	1	9	8
4280014	PROB	n/a	LTP382	ltpFR2	2	n/a	n/a	n/a	32	17	8	1	8
4281897	PROB	n/a	LTP382	ltpFR2	2	n/a	n/a	n/a	32	16	8	6	2
4285430	PROB	n/a	LTP382	ltpFR2	2	n/a	n/a	n/a	32	11	4	4	3
4287580	PROB	n/a	LTP382	ltpFR2	2	n/a	n/a	n/a	32	16	2	8	6
4289165	PROB	n/a	LTP382	ltpFR2	2	n/a	n/a	n/a	32	12	3	7	2
4290964	PROB	n/a	LTP382	ltpFR2	2	n/a	n/a	n/a	32	22	8	6	8
4293579	STOP	n/a	LTP382	ltpFR2	2	n/a	n/a	n/a	32	n/a	n/a	n/a	n/a
4295447	WORD	wordpools/wasnorm_wordpool_576.txt	LTP382	ltpFR2	2	22	PEPPER	1047	n/a	n/a	0	0	0
4298098	WORD	wordpools/wasnorm_wordpool_576.txt	LTP382	ltpFR2	2	22	ONION	977	n/a	n/a	0	0	0
4300847	WORD	wordpools/wasnorm_wordpool_576.txt	LTP382	ltpFR2	2	22	BASEMENT	94	n/a	n/a	0	0	0
4303297	WORD	wordpools/wasnorm_wordpool_576.txt	LTP382	ltpFR2	2	22	DIME	466	n/a	n/a	0	0	0
4305847	WORD	wordpools/wasnorm_wordpool_576.txt	LTP382	ltpFR2	2	22	BANKER	84	n/a	n/a	0	0	0
4308580	WORD	wordpools/wasnorm_wordpool_576.txt	LTP382	ltpFR2	2	22	PUPIL	1143	n/a	n/a	0	0	0
4311131	WORD	wordpools/wasnorm_wordpool_576.txt	LTP382	ltpFR2	2	22	SALAD	1224	n/a	n/a	0	0	0
4313813	WORD	wordpools/wasnorm_wordpool_576.txt	LTP382	ltpFR2	2	22	POSSUM	1112	n/a	n/a	0	0	0
4316580	WORD	wordpools/wasnorm_wordpool_576.txt	LTP382	ltpFR2	2	22	SHRUB	1299	n/a	n/a	0	0	0
4319363	WORD	wordpools/wasnorm_wordpool_576.txt	LTP382	ltpFR2	2	22	TYPIST	1532	n/a	n/a	0	0	0
4322047	WORD	wordpools/wasnorm_wordpool_576.txt	LTP382	ltpFR2	2	22	SISTER	1312	n/a	n/a	0	0	0
4324480	WORD	wordpools/wasnorm_wordpool_576.txt	LTP382	ltpFR2	2	22	BROTHER	179	n/a	n/a	0	0	0
4327114	WORD	wordpools/wasnorm_wordpool_576.txt	LTP382	ltpFR2	2	22	MONEY	908	n/a	n/a	0	0	0
4329880	WORD	wordpools/wasnorm_wordpool_576.txt	LTP382	ltpFR2	2	22	STALLION	1369	n/a	n/a	0	0	0
4332613	WORD	wordpools/wasnorm_wordpool_576.txt	LTP382	ltpFR2	2	22	MESSAGE	888	n/a	n/a	0	0	0
4335114	WORD	wordpools/wasnorm_wordpool_576.txt	LTP382	ltpFR2	2	22	TABLE	1426	n/a	n/a	0	0	0
4337813	WORD	wordpools/wasnorm_wordpool_576.txt	LTP382	ltpFR2	2	22	DAISY	435	n/a	n/a	0	0	0
4340596	WORD	wordpools/wasnorm_wordpool_576.txt	LTP382	ltpFR2	2	22	JURY	766	n/a	n/a	0	0	0
4343279	WORD	wordpools/wasnorm_wordpool_576.txt	LTP382	ltpFR2	2	22	TRANSPLANT	1496	n/a	n/a	0	0	0
4346047	WORD	wordpools/wasnorm_wordpool_576.txt	LTP382	ltpFR2	2	22	ORCHID	982	n/a	n/a	0	0	0
4348646	WORD	wordpools/wasnorm_wordpool_576.txt	LTP382	ltpFR2	2	22	SANDWICH	1232	n/a	n/a	0	0	0
4351197	WORD	wordpools/wasnorm_wordpool_576.txt	LTP382	ltpFR2	2	22	RIFLE	1192	n/a	n/a	0	0	0
4353879	WORD	wordpools/wasnorm_wordpool_576.txt	LTP382	ltpFR2	2	22	STAPLE	1371	n/a	n/a	0	0	0
4356612	WORD	wordpools/wasnorm_wordpool_576.txt	LTP382	ltpFR2	2	22	CEILING	265	n/a	n/a	0	0	0
4358229	START	n/a	LTP382	ltpFR2	2	n/a	n/a	n/a	33	n/a	n/a	n/a	n/a
4359037	DISTRACTOR	n/a	LTP382	ltpFR2	2	22	n/a	n/a	n/a	n/a	0	0	0
4359047	PROB	n/a	LTP382	ltpFR2	2	n/a	n/a	n/a	33	10	6	2	2
4361012	PROB	n/a	LTP382	ltpFR2	2	n/a	n/a	n/a	33	5	2	2	1
4362047	PROB	n/a	LTP382	ltpFR2	2	n/a	n/a	n/a	33	12	8	3	1
4363812	PROB	n/a	LTP382	ltpFR2	2	n/a	n/a	n/a	33	14	4	1	9
4365446	PROB	n/a	LTP382	ltpFR2	2	n/a	n/a	n/a	33	19	8	9	2
4367130	PROB	n/a	LTP382	ltpFR2	2	n/a	n/a	n/a	33	12	5	6	1
4369029	PROB	n/a	LTP382	ltpFR2	2	n/a	n/a	n/a	33	12	7	1	4
4371379	PROB	n/a	LTP382	ltpFR2	2	n/a	n/a	n/a	33	19	4	8	7
4373612	PROB	n/a	LTP382	ltpFR2	2	n/a	n/a	n/a	33	8	1	3	4
4375163	PROB	n/a	LTP382	ltpFR2	2	n/a	n/a	n/a	33	11	7	3	1
4376762	PROB	n/a	LTP382	ltpFR2	2	n/a	n/a	n/a	33	11	9	1	1
4378995	PROB	n/a	LTP382	ltpFR2	2	n/a	n/a	n/a	33	13	2	8	3
4382229	STOP	n/a	LTP382	ltpFR2	2	n/a	n/a	n/a	33	n/a	n/a	n/a	n/a
4384012	REC_START	n/a	LTP382	ltpFR2	2	22	n/a	n/a	n/a	n/a	0	0	0
4385857	REC_WORD	wordpools/wasnorm_wordpool_576.txt	LTP382	ltpFR2	2	22	PEPPER	1047	n/a	n/a	0	0	0
4387517	REC_WORD	wordpools/wasnorm_wordpool_576.txt	LTP382	ltpFR2	2	22	ONION	977	n/a	n/a	0	0	0
4389198	REC_WORD	wordpools/wasnorm_wordpool_576.txt	LTP382	ltpFR2	2	22	BASEMENT	94	n/a	n/a	0	0	0
4391158	REC_WORD	wordpools/wasnorm_wordpool_576.txt	LTP382	ltpFR2	2	22	BANKER	84	n/a	n/a	0	0	0
4458902	REC_WORD_VV	wordpools/wasnorm_wordpool_576.txt	LTP382	ltpFR2	2	22	<>	-1	n/a	n/a	0	0	0
4474460	WORD	wordpools/wasnorm_wordpool_576.txt	LTP382	ltpFR2	2	23	BUBBLE	183	n/a	n/a	0	0	0
4476944	WORD	wordpools/wasnorm_wordpool_576.txt	LTP382	ltpFR2	2	23	STAKE	1368	n/a	n/a	0	0	0
4479394	WORD	wordpools/wasnorm_wordpool_576.txt	LTP382	ltpFR2	2	23	CANAL	226	n/a	n/a	0	0	0
4481877	WORD	wordpools/wasnorm_wordpool_576.txt	LTP382	ltpFR2	2	23	LAVA	804	n/a	n/a	0	0	0
4484427	WORD	wordpools/wasnorm_wordpool_576.txt	LTP382	ltpFR2	2	23	BANJO	82	n/a	n/a	0	0	0
4486960	WORD	wordpools/wasnorm_wordpool_576.txt	LTP382	ltpFR2	2	23	TUBA	1515	n/a	n/a	0	0	0
4489694	WORD	wordpools/wasnorm_wordpool_576.txt	LTP382	ltpFR2	2	23	ZIPPER	1636	n/a	n/a	0	0	0
4492510	WORD	wordpools/wasnorm_wordpool_576.txt	LTP382	ltpFR2	2	23	MOP	916	n/a	n/a	0	0	0
4495144	WORD	wordpools/wasnorm_wordpool_576.txt	LTP382	ltpFR2	2	23	TABLET	1427	n/a	n/a	0	0	0
4497860	WORD	wordpools/wasnorm_wordpool_576.txt	LTP382	ltpFR2	2	23	DRIVER	499	n/a	n/a	0	0	0
4500627	WORD	wordpools/wasnorm_wordpool_576.txt	LTP382	ltpFR2	2	23	RUST	1219	n/a	n/a	0	0	0
4503194	WORD	wordpools/wasnorm_wordpool_576.txt	LTP382	ltpFR2	2	23	PEANUT	1032	n/a	n/a	0	0	0
4505710	WORD	wordpools/wasnorm_wordpool_576.txt	LTP382	ltpFR2	2	23	HARP	689	n/a	n/a	0	0	0
4508227	WORD	wordpools/wasnorm_wordpool_576.txt	LTP382	ltpFR2	2	23	LUGGAGE	847	n/a	n/a	0	0	0
4510943	WORD	wordpools/wasnorm_wordpool_576.txt	LTP382	ltpFR2	2	23	ISLAND	745	n/a	n/a	0	0	0
4513660	WORD	wordpools/wasnorm_wordpool_576.txt	LTP382	ltpFR2	2	23	VELVET	1555	n/a	n/a	0	0	0
4516226	WORD	wordpools/wasnorm_wordpool_576.txt	LTP382	ltpFR2	2	23	FRIEND	606	n/a	n/a	0	0	0
4518676	WORD	wordpools/wasnorm_wordpool_576.txt	LTP382	ltpFR2	2	23	CASHEW	253	n/a	n/a	0	0	0
4521226	WORD	wordpools/wasnorm_wordpool_576.txt	LTP382	ltpFR2	2	23	TRIBE	1505	n/a	n/a	0	0	0
4523960	WORD	wordpools/wasnorm_wordpool_576.txt	LTP382	ltpFR2	2	23	OINTMENT	974	n/a	n/a	0	0	0
4526776	WORD	wordpools/wasnorm_wordpool_576.txt	LTP382	ltpFR2	2	23	NURSE	963	n/a	n/a	0	0	0
4529293	WORD	wordpools/wasnorm_wordpool_576.txt	LTP382	ltpFR2	2	23	COURSE	390	n/a	n/a	0	0	0
4532060	WORD	wordpools/wasnorm_wordpool_576.txt	LTP382	ltpFR2	2	23	LOVER	846	n/a	n/a	0	0	0
4534493	WORD	wordpools/wasnorm_wordpool_576.txt	LTP382	ltpFR2	2	23	TRACTOR	1493	n/a	n/a	0	0	0
4536111	START	n/a	LTP382	ltpFR2	2	n/a	n/a	n/a	34	n/a	n/a	n/a	n/a
4536957	DISTRACTOR	n/a	LTP382	ltpFR2	2	23	n/a	n/a	n/a	n/a	0	0	0
4536959	PROB	n/a	LTP382	ltpFR2	2	n/a	n/a	n/a	34	11	5	4	2
4538793	PROB	n/a	LTP382	ltpFR2	2	n/a	n/a	n/a	34	12	8	3	1
4540144	PROB	n/a	LTP382	ltpFR2	2	n/a	n/a	n/a	34	14	2	6	6
4541876	PROB	n/a	LTP382	ltpFR2	2	n/a	n/a	n/a	34	8	2	3	3
4544359	PROB	n/a	LTP382	ltpFR2	2	n/a	n/a	n/a	34	10	3	3	4
4546259	PROB	n/a	LTP382	ltpFR2	2	n/a	n/a	n/a	34	25	8	9	8
4549259	PROB	n/a	LTP382	ltpFR2	2	n/a	n/a	n/a	34	8	4	1	3
4551676	PROB	n/a	LTP382	ltpFR2	2	n/a	n/a	n/a	34	20	5	8	7
4553376	PROB	n/a	LTP382	ltpFR2	2	n/a	n/a	n/a	34	10	2	2	6
4554692	PROB	n/a	LTP382	ltpFR2	2	n/a	n/a	n/a	34	20	9	2	9
4556609	PROB	n/a	LTP382	ltpFR2	2	n/a	n/a	n/a	34	18	5	8	5
4560111	STOP	n/a	LTP382	ltpFR2	2	n/a	n/a	n/a	34	n/a	n/a	n/a	n/a
4562043	REC_START	n/a	LTP382	ltpFR2	2	23	n/a	n/a	n/a	n/a	0	0	0
4564378	REC_WORD	wordpools/wasnorm_wordpool_576.txt	LTP382	ltpFR2	2	23	LAVA	804	n/a	n/a	0	0	0
4566111	REC_WORD	wordpools/wasnorm_wordpool_576.txt	LTP382	ltpFR2	2	23	ISLAND	745	n/a	n/a	0	0	0
4567552	REC_WORD	wordpools/wasnorm_wordpool_576.txt	LTP382	ltpFR2	2	23	BUBBLE	183	n/a	n/a	0	0	0
4569012	REC_WORD	wordpools/wasnorm_wordpool_576.txt	LTP382	ltpFR2	2	23	LOVER	846	n/a	n/a	0	0	0
4570444	REC_WORD	wordpools/wasnorm_wordpool_576.txt	LTP382	ltpFR2	2	23	NURSING	-1	n/a	n/a	0	0	0
4571149	REC_WORD	wordpools/wasnorm_wordpool_576.txt	LTP382	ltpFR2	2	23	NURSE	963	n/a	n/a	0	0	0
4572553	REC_WORD	wordpools/wasnorm_wordpool_576.txt	LTP382	ltpFR2	2	23	FRIEND	606	n/a	n/a	0	0	0
4574099	REC_WORD	wordpools/wasnorm_wordpool_576.txt	LTP382	ltpFR2	2	23	STAKE	1368	n/a	n/a	0	0	0
4652491	DISTRACTOR	n/a	LTP382	ltpFR2	2	24	n/a	n/a	n/a	n/a	0	0	0
4652491	START	n/a	LTP382	ltpFR2	2	n/a	n/a	n/a	35	n/a	n/a	n/a	n/a
4652507	PROB	n/a	LTP382	ltpFR2	2	n/a	n/a	n/a	35	16	5	7	4
4654424	PROB	n/a	LTP382	ltpFR2	2	n/a	n/a	n/a	35	17	7	3	7
4656524	PROB	n/a	LTP382	ltpFR2	2	n/a	n/a	n/a	35	11	1	6	4
4657841	PROB	n/a	LTP382	ltpFR2	2	n/a	n/a	n/a	35	8	3	2	3
4660607	PROB	n/a	LTP382	ltpFR2	2	n/a	n/a	n/a	35	19	6	6	7
4663374	PROB	n/a	LTP382	ltpFR2	2	n/a	n/a	n/a	35	14	6	2	6
4664924	PROB	n/a	LTP382	ltpFR2	2	n/a	n/a	n/a	35	22	5	8	9
4667474	PROB	n/a	LTP382	ltpFR2	2	n/a	n/a	n/a	35	20	8	7	5
4670724	PROB	n/a	LTP382	ltpFR2	2	n/a	n/a	n/a	35	18	4	9	5
4673024	PROB	n/a	LTP382	ltpFR2	2	n/a	n/a	n/a	35	7	5	1	1
4676491	STOP	n/a	LTP382	ltpFR2	2	n/a	n/a	n/a	35	n/a	n/a	n/a	n/a
4677607	WORD	wordpools/wasnorm_wordpool_576.txt	LTP382	ltpFR2	2	24	FOREHEAD	592	n/a	n/a	0	0	0
4680324	WORD	wordpools/wasnorm_wordpool_576.txt	LTP382	ltpFR2	2	24	FLOWER	584	n/a	n/a	0	0	0
4683075	WORD	wordpools/wasnorm_wordpool_576.txt	LTP382	ltpFR2	2	24	COFFEE	341	n/a	n/a	0	0	0
4685740	WORD	wordpools/wasnorm_wordpool_576.txt	LTP382	ltpFR2	2	24	PLAYGROUND	1087	n/a	n/a	0	0	0
4688323	WORD	wordpools/wasnorm_wordpool_576.txt	LTP382	ltpFR2	2	24	INFANT	737	n/a	n/a	0	0	0
4691007	WORD	wordpools/wasnorm_wordpool_576.txt	LTP382	ltpFR2	2	24	GHETTO	633	n/a	n/a	0	0	0
4693723	WORD	wordpools/wasnorm_wordpool_576.txt	LTP382	ltpFR2	2	24	FOOTBALL	591	n/a	n/a	0	0	0
4696191	WORD	wordpools/wasnorm_wordpool_576.txt	LTP382	ltpFR2	2	24	WIFE	1609	n/a	n/a	0	0	0
4699007	WORD	wordpools/wasnorm_wordpool_576.txt	LTP382	ltpFR2	2	24	KETCHUP	771	n/a	n/a	0	0	0
4701490	WORD	wordpools/wasnorm_wordpool_576.txt	LTP382	ltpFR2	2	24	RELISH	1183	n/a	n/a	0	0	0
4704223	WORD	wordpools/wasnorm_wordpool_576.txt	LTP382	ltpFR2	2	24	ICING	732	n/a	n/a	0	0	0
4706840	WORD	wordpools/wasnorm_wordpool_576.txt	LTP382	ltpFR2	2	24	WHISKERS	1605	n/a	n/a	0	0	0
4709590	WORD	wordpools/wasnorm_wordpool_576.txt	LTP382	ltpFR2	2	24	SPHINX	1349	n/a	n/a	0	0	0
4712057	WORD	wordpools/wasnorm_wordpool_576.txt	LTP382	ltpFR2	2	24	BARREL	91	n/a	n/a	0	0	0
4714690	WORD	wordpools/wasnorm_wordpool_576.txt	LTP382	ltpFR2	2	24	CHAMPAGNE	278	n/a	n/a	0	0	0
4717456	WORD	wordpools/wasnorm_wordpool_576.txt	LTP382	ltpFR2	2	24	ROBBER	1197	n/a	n/a	0	0	0
4719906	WORD	wordpools/wasnorm_wordpool_576.txt	LTP382	ltpFR2	2	24	LODGE	839	n/a	n/a	0	0	0
4722340	WORD	wordpools/wasnorm_wordpool_576.txt	LTP382	ltpFR2	2	24	EMPIRE	530	n/a	n/a	0	0	0
4725057	WORD	wordpools/wasnorm_wordpool_576.txt	LTP382	ltpFR2	2	24	MARINE	869	n/a	n/a	0	0	0
4727756	WORD	wordpools/wasnorm_wordpool_576.txt	LTP382	ltpFR2	2	24	MASK	876	n/a	n/a	0	0	0
4730539	WORD	wordpools/wasnorm_wordpool_576.txt	LTP382	ltpFR2	2	24	SMOG	1330	n/a	n/a	0	0	0
4733223	WORD	wordpools/wasnorm_wordpool_576.txt	LTP382	ltpFR2	2	24	SLIDE	1326	n/a	n/a	0	0	0
4735989	WORD	wordpools/wasnorm_wordpool_576.txt	LTP382	ltpFR2	2	24	LILY	821	n/a	n/a	0	0	0
4738573	WORD	wordpools/wasnorm_wordpool_576.txt	LTP382	ltpFR2	2	24	HEADBAND	696	n/a	n/a	0	0	0
4740190	START	n/a	LTP382	ltpFR2	2	n/a	n/a	n/a	36	n/a	n/a	n/a	n/a
4741120	DISTRACTOR	n/a	LTP382	ltpFR2	2	24	n/a	n/a	n/a	n/a	0	0	0
4741124	PROB	n/a	LTP382	ltpFR2	2	n/a	n/a	n/a	36	15	9	5	1
4742623	PROB	n/a	LTP382	ltpFR2	2	n/a	n/a	n/a	36	14	3	6	5
4744989	PROB	n/a	LTP382	ltpFR2	2	n/a	n/a	n/a	36	13	7	4	2
4746522	PROB	n/a	LTP382	ltpFR2	2	n/a	n/a	n/a	36	11	3	7	1
4747672	PROB	n/a	LTP382	ltpFR2	2	n/a	n/a	n/a	36	18	9	8	1
4749389	PROB	n/a	LTP382	ltpFR2	2	n/a	n/a	n/a	36	10	1	2	7
4750639	PROB	n/a	LTP382	ltpFR2	2	n/a	n/a	n/a	36	14	3	2	9
4752906	PROB	n/a	LTP382	ltpFR2	2	n/a	n/a	n/a	36	11	1	8	2
4754157	PROB	n/a	LTP382	ltpFR2	2	n/a	n/a	n/a	36	18	1	9	8
4755739	PROB	n/a	LTP382	ltpFR2	2	n/a	n/a	n/a	36	14	3	6	5
4758090	PROB	n/a	LTP382	ltpFR2	2	n/a	n/a	n/a	36	18	2	9	7
4759922	PROB	n/a	LTP382	ltpFR2	2	n/a	n/a	n/a	36	8	3	1	4
4761372	PROB	n/a	LTP382	ltpFR2	2	n/a	n/a	n/a	36	9	2	5	2
4763114	STOP	n/a	LTP382	ltpFR2	2	n/a	n/a	n/a	36	n/a	n/a	n/a	n/a
4766039	REC_START	n/a	LTP382	ltpFR2	2	24	n/a	n/a	n/a	n/a	0	0	0
4767898	REC_WORD	wordpools/wasnorm_wordpool_576.txt	LTP382	ltpFR2	2	24	INFANT	737	n/a	n/a	0	0	0
4769333	REC_WORD	wordpools/wasnorm_wordpool_576.txt	LTP382	ltpFR2	2	24	FOREHEAD	592	n/a	n/a	0	0	0
4773360	REC_WORD	wordpools/wasnorm_wordpool_576.txt	LTP382	ltpFR2	2	24	COFFEE	341	n/a	n/a	0	0	0
4779682	REC_WORD	wordpools/wasnorm_wordpool_576.txt	LTP382	ltpFR2	2	24	PLAYGROUND	1087	n/a	n/a	0	0	0
4782627	REC_WORD	wordpools/wasnorm_wordpool_576.txt	LTP382	ltpFR2	2	24	LILY	821	n/a	n/a	0	0	0
4785292	REC_WORD	wordpools/wasnorm_wordpool_576.txt	LTP382	ltpFR2	2	24	MARINE	869	n/a	n/a	0	0	0
4787115	REC_WORD	wordpools/wasnorm_wordpool_576.txt	LTP382	ltpFR2	2	24	SLIDE	1326	n/a	n/a	0	0	0
