mstime	trial_type	stim_file	subject	experiment	session	trial	item_name	item_num	list	answer	test_x	test_y	test_z
0	SESS_START	n/a	LTP361	ltpFR2	11	n/a	n/a	n/a	n/a	n/a	0	0	0
14229	START	n/a	LTP361	ltpFR2	11	n/a	n/a	n/a	-1	n/a	n/a	n/a	n/a
14260	PROB	n/a	LTP361	ltpFR2	11	n/a	n/a	n/a	-1	6	1	1	4
15876	PROB	n/a	LTP361	ltpFR2	11	n/a	n/a	n/a	-1	14	4	8	2
17758	PROB	n/a	LTP361	ltpFR2	11	n/a	n/a	n/a	-1	14	8	2	4
21023	PROB	n/a	LTP361	ltpFR2	11	n/a	n/a	n/a	-1	16	5	3	8
26229	STOP	n/a	LTP361	ltpFR2	11	n/a	n/a	n/a	-1	n/a	n/a	n/a	n/a
59289	WORD	wordpools/wasnorm_wordpool_576.txt	LTP361	ltpFR2	11	1	LAPEL	800	n/a	n/a	0	0	0
62072	WORD	wordpools/wasnorm_wordpool_576.txt	LTP361	ltpFR2	11	1	SHORTS	1293	n/a	n/a	0	0	0
64620	WORD	wordpools/wasnorm_wordpool_576.txt	LTP361	ltpFR2	11	1	WIDOW	1608	n/a	n/a	0	0	0
67219	WORD	wordpools/wasnorm_wordpool_576.txt	LTP361	ltpFR2	11	1	CATTLE	261	n/a	n/a	0	0	0
69685	WORD	wordpools/wasnorm_wordpool_576.txt	LTP361	ltpFR2	11	1	MUSTARD	935	n/a	n/a	0	0	0
72333	WORD	wordpools/wasnorm_wordpool_576.txt	LTP361	ltpFR2	11	1	SUNSET	1408	n/a	n/a	0	0	0
75082	WORD	wordpools/wasnorm_wordpool_576.txt	LTP361	ltpFR2	11	1	TRIBE	1505	n/a	n/a	0	0	0
77514	WORD	wordpools/wasnorm_wordpool_576.txt	LTP361	ltpFR2	11	1	CAMEL	223	n/a	n/a	0	0	0
80247	WORD	wordpools/wasnorm_wordpool_576.txt	LTP361	ltpFR2	11	1	SERVER	1272	n/a	n/a	0	0	0
82779	WORD	wordpools/wasnorm_wordpool_576.txt	LTP361	ltpFR2	11	1	HOSTESS	723	n/a	n/a	0	0	0
85411	WORD	wordpools/wasnorm_wordpool_576.txt	LTP361	ltpFR2	11	1	BLOUSE	139	n/a	n/a	0	0	0
88076	WORD	wordpools/wasnorm_wordpool_576.txt	LTP361	ltpFR2	11	1	SWIMMER	1420	n/a	n/a	0	0	0
90857	WORD	wordpools/wasnorm_wordpool_576.txt	LTP361	ltpFR2	11	1	GRAVEL	659	n/a	n/a	0	0	0
93524	WORD	wordpools/wasnorm_wordpool_576.txt	LTP361	ltpFR2	11	1	LAVA	804	n/a	n/a	0	0	0
95973	WORD	wordpools/wasnorm_wordpool_576.txt	LTP361	ltpFR2	11	1	HERO	706	n/a	n/a	0	0	0
98688	WORD	wordpools/wasnorm_wordpool_576.txt	LTP361	ltpFR2	11	1	GRAVE	658	n/a	n/a	0	0	0
101287	WORD	wordpools/wasnorm_wordpool_576.txt	LTP361	ltpFR2	11	1	SUNRISE	1407	n/a	n/a	0	0	0
104102	WORD	wordpools/wasnorm_wordpool_576.txt	LTP361	ltpFR2	11	1	ROBOT	1200	n/a	n/a	0	0	0
106901	WORD	wordpools/wasnorm_wordpool_576.txt	LTP361	ltpFR2	11	1	DRILL	497	n/a	n/a	0	0	0
109383	WORD	wordpools/wasnorm_wordpool_576.txt	LTP361	ltpFR2	11	1	DONKEY	484	n/a	n/a	0	0	0
111999	WORD	wordpools/wasnorm_wordpool_576.txt	LTP361	ltpFR2	11	1	GALLON	618	n/a	n/a	0	0	0
114797	WORD	wordpools/wasnorm_wordpool_576.txt	LTP361	ltpFR2	11	1	DRIVER	499	n/a	n/a	0	0	0
117280	WORD	wordpools/wasnorm_wordpool_576.txt	LTP361	ltpFR2	11	1	GARBAGE	622	n/a	n/a	0	0	0
119912	WORD	wordpools/wasnorm_wordpool_576.txt	LTP361	ltpFR2	11	1	CELLAR	267	n/a	n/a	0	0	0
121528	START	n/a	LTP361	ltpFR2	11	n/a	n/a	n/a	1	n/a	n/a	n/a	n/a
122526	DISTRACTOR	n/a	LTP361	ltpFR2	11	1	n/a	n/a	n/a	n/a	0	0	0
122544	PROB	n/a	LTP361	ltpFR2	11	n/a	n/a	n/a	1	15	2	7	6
124693	PROB	n/a	LTP361	ltpFR2	11	n/a	n/a	n/a	1	19	9	4	6
126576	PROB	n/a	LTP361	ltpFR2	11	n/a	n/a	n/a	1	18	8	9	1
128025	PROB	n/a	LTP361	ltpFR2	11	n/a	n/a	n/a	1	17	7	1	9
129391	PROB	n/a	LTP361	ltpFR2	11	n/a	n/a	n/a	1	15	1	5	9
130657	PROB	n/a	LTP361	ltpFR2	11	n/a	n/a	n/a	1	12	2	3	7
131906	PROB	n/a	LTP361	ltpFR2	11	n/a	n/a	n/a	1	14	1	7	6
134572	PROB	n/a	LTP361	ltpFR2	11	n/a	n/a	n/a	1	21	9	7	5
136421	PROB	n/a	LTP361	ltpFR2	11	n/a	n/a	n/a	1	8	4	1	3
137621	PROB	n/a	LTP361	ltpFR2	11	n/a	n/a	n/a	1	15	9	1	5
139086	PROB	n/a	LTP361	ltpFR2	11	n/a	n/a	n/a	1	13	8	2	3
141202	PROB	n/a	LTP361	ltpFR2	11	n/a	n/a	n/a	1	19	8	4	7
142718	PROB	n/a	LTP361	ltpFR2	11	n/a	n/a	n/a	1	18	9	1	8
144568	STOP	n/a	LTP361	ltpFR2	11	n/a	n/a	n/a	1	n/a	n/a	n/a	n/a
147417	REC_START	n/a	LTP361	ltpFR2	11	1	n/a	n/a	n/a	n/a	0	0	0
150594	REC_WORD	wordpools/wasnorm_wordpool_576.txt	LTP361	ltpFR2	11	1	WIDOW	1608	n/a	n/a	0	0	0
151810	REC_WORD	wordpools/wasnorm_wordpool_576.txt	LTP361	ltpFR2	11	1	MUSTARD	935	n/a	n/a	0	0	0
153367	REC_WORD	wordpools/wasnorm_wordpool_576.txt	LTP361	ltpFR2	11	1	SHORTS	1293	n/a	n/a	0	0	0
154468	REC_WORD	wordpools/wasnorm_wordpool_576.txt	LTP361	ltpFR2	11	1	BLOUSE	139	n/a	n/a	0	0	0
159055	REC_WORD	wordpools/wasnorm_wordpool_576.txt	LTP361	ltpFR2	11	1	LAPEL	800	n/a	n/a	0	0	0
161089	REC_WORD	wordpools/wasnorm_wordpool_576.txt	LTP361	ltpFR2	11	1	CATTLE	261	n/a	n/a	0	0	0
162455	REC_WORD	wordpools/wasnorm_wordpool_576.txt	LTP361	ltpFR2	11	1	TRIBE	1505	n/a	n/a	0	0	0
163802	REC_WORD	wordpools/wasnorm_wordpool_576.txt	LTP361	ltpFR2	11	1	CAMEL	223	n/a	n/a	0	0	0
165813	REC_WORD	wordpools/wasnorm_wordpool_576.txt	LTP361	ltpFR2	11	1	HOSTESS	723	n/a	n/a	0	0	0
166909	REC_WORD	wordpools/wasnorm_wordpool_576.txt	LTP361	ltpFR2	11	1	SERVER	1272	n/a	n/a	0	0	0
167992	REC_WORD	wordpools/wasnorm_wordpool_576.txt	LTP361	ltpFR2	11	1	CELLAR	267	n/a	n/a	0	0	0
173284	REC_WORD	wordpools/wasnorm_wordpool_576.txt	LTP361	ltpFR2	11	1	SWIMMER	1420	n/a	n/a	0	0	0
174380	REC_WORD	wordpools/wasnorm_wordpool_576.txt	LTP361	ltpFR2	11	1	GRAVEL	659	n/a	n/a	0	0	0
175307	REC_WORD	wordpools/wasnorm_wordpool_576.txt	LTP361	ltpFR2	11	1	LAVA	804	n/a	n/a	0	0	0
177112	REC_WORD	wordpools/wasnorm_wordpool_576.txt	LTP361	ltpFR2	11	1	DRIVER	499	n/a	n/a	0	0	0
178081	REC_WORD	wordpools/wasnorm_wordpool_576.txt	LTP361	ltpFR2	11	1	HERO	706	n/a	n/a	0	0	0
180162	REC_WORD	wordpools/wasnorm_wordpool_576.txt	LTP361	ltpFR2	11	1	GRAVE	658	n/a	n/a	0	0	0
192420	REC_WORD	wordpools/wasnorm_wordpool_576.txt	LTP361	ltpFR2	11	1	ROBOT	1200	n/a	n/a	0	0	0
193271	REC_WORD	wordpools/wasnorm_wordpool_576.txt	LTP361	ltpFR2	11	1	DRILL	497	n/a	n/a	0	0	0
194864	REC_WORD	wordpools/wasnorm_wordpool_576.txt	LTP361	ltpFR2	11	1	DONKEY	484	n/a	n/a	0	0	0
237857	WORD	wordpools/wasnorm_wordpool_576.txt	LTP361	ltpFR2	11	2	CUSTARD	429	n/a	n/a	0	0	0
240507	WORD	wordpools/wasnorm_wordpool_576.txt	LTP361	ltpFR2	11	2	TILE	1468	n/a	n/a	0	0	0
243023	WORD	wordpools/wasnorm_wordpool_576.txt	LTP361	ltpFR2	11	2	GAVEL	627	n/a	n/a	0	0	0
245705	WORD	wordpools/wasnorm_wordpool_576.txt	LTP361	ltpFR2	11	2	WRENCH	1625	n/a	n/a	0	0	0
248337	WORD	wordpools/wasnorm_wordpool_576.txt	LTP361	ltpFR2	11	2	PATROL	1027	n/a	n/a	0	0	0
250952	WORD	wordpools/wasnorm_wordpool_576.txt	LTP361	ltpFR2	11	2	LUNCH	849	n/a	n/a	0	0	0
253668	WORD	wordpools/wasnorm_wordpool_576.txt	LTP361	ltpFR2	11	2	PUDDING	1139	n/a	n/a	0	0	0
256233	WORD	wordpools/wasnorm_wordpool_576.txt	LTP361	ltpFR2	11	2	TRENCH	1503	n/a	n/a	0	0	0
259032	WORD	wordpools/wasnorm_wordpool_576.txt	LTP361	ltpFR2	11	2	HAND	683	n/a	n/a	0	0	0
261614	WORD	wordpools/wasnorm_wordpool_576.txt	LTP361	ltpFR2	11	2	MASK	876	n/a	n/a	0	0	0
264430	WORD	wordpools/wasnorm_wordpool_576.txt	LTP361	ltpFR2	11	2	SALMON	1227	n/a	n/a	0	0	0
267062	WORD	wordpools/wasnorm_wordpool_576.txt	LTP361	ltpFR2	11	2	HOOK	715	n/a	n/a	0	0	0
269677	WORD	wordpools/wasnorm_wordpool_576.txt	LTP361	ltpFR2	11	2	ELBOW	520	n/a	n/a	0	0	0
272426	WORD	wordpools/wasnorm_wordpool_576.txt	LTP361	ltpFR2	11	2	CRUTCH	417	n/a	n/a	0	0	0
275192	WORD	wordpools/wasnorm_wordpool_576.txt	LTP361	ltpFR2	11	2	SUITCASE	1403	n/a	n/a	0	0	0
277674	WORD	wordpools/wasnorm_wordpool_576.txt	LTP361	ltpFR2	11	2	BUNNY	198	n/a	n/a	0	0	0
280239	WORD	wordpools/wasnorm_wordpool_576.txt	LTP361	ltpFR2	11	2	PRINCESS	1125	n/a	n/a	0	0	0
282820	WORD	wordpools/wasnorm_wordpool_576.txt	LTP361	ltpFR2	11	2	DRUG	501	n/a	n/a	0	0	0
285337	WORD	wordpools/wasnorm_wordpool_576.txt	LTP361	ltpFR2	11	2	CITRUS	313	n/a	n/a	0	0	0
287869	WORD	wordpools/wasnorm_wordpool_576.txt	LTP361	ltpFR2	11	2	LOFT	840	n/a	n/a	0	0	0
290651	WORD	wordpools/wasnorm_wordpool_576.txt	LTP361	ltpFR2	11	2	FOX	598	n/a	n/a	0	0	0
293300	WORD	wordpools/wasnorm_wordpool_576.txt	LTP361	ltpFR2	11	2	COURSE	390	n/a	n/a	0	0	0
295798	WORD	wordpools/wasnorm_wordpool_576.txt	LTP361	ltpFR2	11	2	PLIERS	1089	n/a	n/a	0	0	0
298381	WORD	wordpools/wasnorm_wordpool_576.txt	LTP361	ltpFR2	11	2	HOUND	724	n/a	n/a	0	0	0
299997	START	n/a	LTP361	ltpFR2	11	n/a	n/a	n/a	2	n/a	n/a	n/a	n/a
301087	DISTRACTOR	n/a	LTP361	ltpFR2	11	2	n/a	n/a	n/a	n/a	0	0	0
301096	PROB	n/a	LTP361	ltpFR2	11	n/a	n/a	n/a	2	8	3	2	3
303029	PROB	n/a	LTP361	ltpFR2	11	n/a	n/a	n/a	2	11	5	2	4
304844	PROB	n/a	LTP361	ltpFR2	11	n/a	n/a	n/a	2	11	6	4	1
307510	PROB	n/a	LTP361	ltpFR2	11	n/a	n/a	n/a	2	16	9	1	6
309059	PROB	n/a	LTP361	ltpFR2	11	n/a	n/a	n/a	2	21	7	5	9
310759	PROB	n/a	LTP361	ltpFR2	11	n/a	n/a	n/a	2	17	5	8	4
312558	PROB	n/a	LTP361	ltpFR2	11	n/a	n/a	n/a	2	11	5	5	1
313891	PROB	n/a	LTP361	ltpFR2	11	n/a	n/a	n/a	2	14	8	4	2
315357	PROB	n/a	LTP361	ltpFR2	11	n/a	n/a	n/a	2	17	7	9	1
316673	PROB	n/a	LTP361	ltpFR2	11	n/a	n/a	n/a	2	21	5	7	9
318972	PROB	n/a	LTP361	ltpFR2	11	n/a	n/a	n/a	2	20	4	9	7
321071	PROB	n/a	LTP361	ltpFR2	11	n/a	n/a	n/a	2	8	2	3	3
322885	STOP	n/a	LTP361	ltpFR2	11	n/a	n/a	n/a	2	n/a	n/a	n/a	n/a
325919	REC_START	n/a	LTP361	ltpFR2	11	2	n/a	n/a	n/a	n/a	0	0	0
327289	REC_WORD	wordpools/wasnorm_wordpool_576.txt	LTP361	ltpFR2	11	2	PLIERS	1089	n/a	n/a	0	0	0
328378	REC_WORD	wordpools/wasnorm_wordpool_576.txt	LTP361	ltpFR2	11	2	HOUND	724	n/a	n/a	0	0	0
329334	REC_WORD	wordpools/wasnorm_wordpool_576.txt	LTP361	ltpFR2	11	2	CUSTARD	429	n/a	n/a	0	0	0
330395	REC_WORD	wordpools/wasnorm_wordpool_576.txt	LTP361	ltpFR2	11	2	PUDDING	1139	n/a	n/a	0	0	0
331151	REC_WORD	wordpools/wasnorm_wordpool_576.txt	LTP361	ltpFR2	11	2	LUNCH	849	n/a	n/a	0	0	0
332244	REC_WORD	wordpools/wasnorm_wordpool_576.txt	LTP361	ltpFR2	11	2	SALMON	1227	n/a	n/a	0	0	0
333248	REC_WORD	wordpools/wasnorm_wordpool_576.txt	LTP361	ltpFR2	11	2	TILE	1468	n/a	n/a	0	0	0
334488	REC_WORD	wordpools/wasnorm_wordpool_576.txt	LTP361	ltpFR2	11	2	GRAVEL	659	n/a	n/a	0	0	0
335655	REC_WORD	wordpools/wasnorm_wordpool_576.txt	LTP361	ltpFR2	11	2	PATROL	1027	n/a	n/a	0	0	0
336842	REC_WORD	wordpools/wasnorm_wordpool_576.txt	LTP361	ltpFR2	11	2	HOOK	715	n/a	n/a	0	0	0
337871	REC_WORD	wordpools/wasnorm_wordpool_576.txt	LTP361	ltpFR2	11	2	ELBOW	520	n/a	n/a	0	0	0
339309	REC_WORD	wordpools/wasnorm_wordpool_576.txt	LTP361	ltpFR2	11	2	CRUTCH	417	n/a	n/a	0	0	0
340318	REC_WORD	wordpools/wasnorm_wordpool_576.txt	LTP361	ltpFR2	11	2	SUITCASE	1403	n/a	n/a	0	0	0
346762	REC_WORD	wordpools/wasnorm_wordpool_576.txt	LTP361	ltpFR2	11	2	BUNNY	198	n/a	n/a	0	0	0
348849	REC_WORD	wordpools/wasnorm_wordpool_576.txt	LTP361	ltpFR2	11	2	PRINCESS	1125	n/a	n/a	0	0	0
1250899	DISTRACTOR	n/a	LTP361	ltpFR2	11	3	n/a	n/a	n/a	n/a	0	0	0
1250899	START	n/a	LTP361	ltpFR2	11	n/a	n/a	n/a	3	n/a	n/a	n/a	n/a
1250915	PROB	n/a	LTP361	ltpFR2	11	n/a	n/a	n/a	3	14	3	2	9
1253131	PROB	n/a	LTP361	ltpFR2	11	n/a	n/a	n/a	3	13	8	1	4
1255180	PROB	n/a	LTP361	ltpFR2	11	n/a	n/a	n/a	3	26	9	8	9
1257046	PROB	n/a	LTP361	ltpFR2	11	n/a	n/a	n/a	3	16	6	8	2
1259212	PROB	n/a	LTP361	ltpFR2	11	n/a	n/a	n/a	3	6	1	2	3
1260311	PROB	n/a	LTP361	ltpFR2	11	n/a	n/a	n/a	3	14	5	4	5
1261843	PROB	n/a	LTP361	ltpFR2	11	n/a	n/a	n/a	3	17	7	1	9
1263260	PROB	n/a	LTP361	ltpFR2	11	n/a	n/a	n/a	3	21	6	7	8
1264576	PROB	n/a	LTP361	ltpFR2	11	n/a	n/a	n/a	3	14	3	2	9
1267041	PROB	n/a	LTP361	ltpFR2	11	n/a	n/a	n/a	3	19	7	7	5
1268457	PROB	n/a	LTP361	ltpFR2	11	n/a	n/a	n/a	3	12	8	1	3
1269723	PROB	n/a	LTP361	ltpFR2	11	n/a	n/a	n/a	3	17	7	8	2
1270973	PROB	n/a	LTP361	ltpFR2	11	n/a	n/a	n/a	3	19	7	9	3
1272472	PROB	n/a	LTP361	ltpFR2	11	n/a	n/a	n/a	3	15	8	5	2
1274209	STOP	n/a	LTP361	ltpFR2	11	n/a	n/a	n/a	3	n/a	n/a	n/a	n/a
1275771	WORD	wordpools/wasnorm_wordpool_576.txt	LTP361	ltpFR2	11	3	MOTEL	919	n/a	n/a	0	0	0
1278386	WORD	wordpools/wasnorm_wordpool_576.txt	LTP361	ltpFR2	11	3	PARROT	1015	n/a	n/a	0	0	0
1281185	WORD	wordpools/wasnorm_wordpool_576.txt	LTP361	ltpFR2	11	3	MARSH	874	n/a	n/a	0	0	0
1283617	WORD	wordpools/wasnorm_wordpool_576.txt	LTP361	ltpFR2	11	3	SPHINX	1349	n/a	n/a	0	0	0
1286216	WORD	wordpools/wasnorm_wordpool_576.txt	LTP361	ltpFR2	11	3	TEMPLE	1448	n/a	n/a	0	0	0
1288797	WORD	wordpools/wasnorm_wordpool_576.txt	LTP361	ltpFR2	11	3	PATIENT	1024	n/a	n/a	0	0	0
1291330	WORD	wordpools/wasnorm_wordpool_576.txt	LTP361	ltpFR2	11	3	LAMP	798	n/a	n/a	0	0	0
1293763	WORD	wordpools/wasnorm_wordpool_576.txt	LTP361	ltpFR2	11	3	SCOTCH	1251	n/a	n/a	0	0	0
1296545	WORD	wordpools/wasnorm_wordpool_576.txt	LTP361	ltpFR2	11	3	KLEENEX	782	n/a	n/a	0	0	0
1299210	WORD	wordpools/wasnorm_wordpool_576.txt	LTP361	ltpFR2	11	3	FOREHEAD	592	n/a	n/a	0	0	0
1301709	WORD	wordpools/wasnorm_wordpool_576.txt	LTP361	ltpFR2	11	3	NURSE	963	n/a	n/a	0	0	0
1304491	WORD	wordpools/wasnorm_wordpool_576.txt	LTP361	ltpFR2	11	3	SCALPEL	1243	n/a	n/a	0	0	0
1307173	WORD	wordpools/wasnorm_wordpool_576.txt	LTP361	ltpFR2	11	3	DRINK	498	n/a	n/a	0	0	0
1309972	WORD	wordpools/wasnorm_wordpool_576.txt	LTP361	ltpFR2	11	3	HATCHET	691	n/a	n/a	0	0	0
1312720	WORD	wordpools/wasnorm_wordpool_576.txt	LTP361	ltpFR2	11	3	MUFFIN	929	n/a	n/a	0	0	0
1315369	WORD	wordpools/wasnorm_wordpool_576.txt	LTP361	ltpFR2	11	3	COWBOY	395	n/a	n/a	0	0	0
1317885	WORD	wordpools/wasnorm_wordpool_576.txt	LTP361	ltpFR2	11	3	SHARK	1275	n/a	n/a	0	0	0
1320634	WORD	wordpools/wasnorm_wordpool_576.txt	LTP361	ltpFR2	11	3	TART	1436	n/a	n/a	0	0	0
1323449	WORD	wordpools/wasnorm_wordpool_576.txt	LTP361	ltpFR2	11	3	SCULPTURE	1258	n/a	n/a	0	0	0
1326031	WORD	wordpools/wasnorm_wordpool_576.txt	LTP361	ltpFR2	11	3	CHAMPAGNE	278	n/a	n/a	0	0	0
1328563	WORD	wordpools/wasnorm_wordpool_576.txt	LTP361	ltpFR2	11	3	DOLPHIN	483	n/a	n/a	0	0	0
1331179	WORD	wordpools/wasnorm_wordpool_576.txt	LTP361	ltpFR2	11	3	SPOON	1357	n/a	n/a	0	0	0
1333744	WORD	wordpools/wasnorm_wordpool_576.txt	LTP361	ltpFR2	11	3	EXPERT	543	n/a	n/a	0	0	0
1336376	WORD	wordpools/wasnorm_wordpool_576.txt	LTP361	ltpFR2	11	3	SADDLE	1221	n/a	n/a	0	0	0
1337993	START	n/a	LTP361	ltpFR2	11	n/a	n/a	n/a	4	n/a	n/a	n/a	n/a
1338846	DISTRACTOR	n/a	LTP361	ltpFR2	11	3	n/a	n/a	n/a	n/a	0	0	0
1338858	PROB	n/a	LTP361	ltpFR2	11	n/a	n/a	n/a	4	16	4	8	4
1341174	PROB	n/a	LTP361	ltpFR2	11	n/a	n/a	n/a	4	12	2	2	8
1342723	PROB	n/a	LTP361	ltpFR2	11	n/a	n/a	n/a	4	8	4	2	2
1344256	PROB	n/a	LTP361	ltpFR2	11	n/a	n/a	n/a	4	20	6	9	5
1346272	PROB	n/a	LTP361	ltpFR2	11	n/a	n/a	n/a	4	24	8	7	9
1348504	PROB	n/a	LTP361	ltpFR2	11	n/a	n/a	n/a	4	19	7	5	7
1350537	PROB	n/a	LTP361	ltpFR2	11	n/a	n/a	n/a	4	14	4	2	8
1352203	PROB	n/a	LTP361	ltpFR2	11	n/a	n/a	n/a	4	8	3	2	3
1354218	PROB	n/a	LTP361	ltpFR2	11	n/a	n/a	n/a	4	16	7	4	5
1356251	PROB	n/a	LTP361	ltpFR2	11	n/a	n/a	n/a	4	24	8	9	7
1358416	PROB	n/a	LTP361	ltpFR2	11	n/a	n/a	n/a	4	22	6	9	7
1360644	STOP	n/a	LTP361	ltpFR2	11	n/a	n/a	n/a	4	n/a	n/a	n/a	n/a
1363881	REC_START	n/a	LTP361	ltpFR2	11	3	n/a	n/a	n/a	n/a	0	0	0
1374758	REC_WORD	wordpools/wasnorm_wordpool_576.txt	LTP361	ltpFR2	11	3	SHARK	1275	n/a	n/a	0	0	0
1375549	REC_WORD	wordpools/wasnorm_wordpool_576.txt	LTP361	ltpFR2	11	3	SCULPTURE	1258	n/a	n/a	0	0	0
1377398	REC_WORD	wordpools/wasnorm_wordpool_576.txt	LTP361	ltpFR2	11	3	MOTEL	919	n/a	n/a	0	0	0
1378943	REC_WORD	wordpools/wasnorm_wordpool_576.txt	LTP361	ltpFR2	11	3	SWAMP	1416	n/a	n/a	0	0	0
1379919	REC_WORD	wordpools/wasnorm_wordpool_576.txt	LTP361	ltpFR2	11	3	SPHINX	1349	n/a	n/a	0	0	0
1381070	REC_WORD	wordpools/wasnorm_wordpool_576.txt	LTP361	ltpFR2	11	3	TEMPLE	1448	n/a	n/a	0	0	0
1384818	REC_WORD	wordpools/wasnorm_wordpool_576.txt	LTP361	ltpFR2	11	3	SCOTCH	1251	n/a	n/a	0	0	0
1387241	REC_WORD	wordpools/wasnorm_wordpool_576.txt	LTP361	ltpFR2	11	3	BOURBON	-1	n/a	n/a	0	0	0
1432839	REC_WORD	wordpools/wasnorm_wordpool_576.txt	LTP361	ltpFR2	11	3	DRINK	498	n/a	n/a	0	0	0
1433644	REC_WORD	wordpools/wasnorm_wordpool_576.txt	LTP361	ltpFR2	11	3	NURSE	963	n/a	n/a	0	0	0
1435304	REC_WORD	wordpools/wasnorm_wordpool_576.txt	LTP361	ltpFR2	11	3	FOREHEAD	592	n/a	n/a	0	0	0
1454323	WORD	wordpools/wasnorm_wordpool_576.txt	LTP361	ltpFR2	11	4	VALVE	1546	n/a	n/a	0	0	0
1457105	WORD	wordpools/wasnorm_wordpool_576.txt	LTP361	ltpFR2	11	4	FRAGRANCE	599	n/a	n/a	0	0	0
1459570	WORD	wordpools/wasnorm_wordpool_576.txt	LTP361	ltpFR2	11	4	GANGSTER	620	n/a	n/a	0	0	0
1462102	WORD	wordpools/wasnorm_wordpool_576.txt	LTP361	ltpFR2	11	4	LADDER	793	n/a	n/a	0	0	0
1464850	WORD	wordpools/wasnorm_wordpool_576.txt	LTP361	ltpFR2	11	4	PUDDLE	1140	n/a	n/a	0	0	0
1467333	WORD	wordpools/wasnorm_wordpool_576.txt	LTP361	ltpFR2	11	4	FIREMAN	569	n/a	n/a	0	0	0
1470149	WORD	wordpools/wasnorm_wordpool_576.txt	LTP361	ltpFR2	11	4	PIGEON	1065	n/a	n/a	0	0	0
1472598	WORD	wordpools/wasnorm_wordpool_576.txt	LTP361	ltpFR2	11	4	VELVET	1555	n/a	n/a	0	0	0
1475413	WORD	wordpools/wasnorm_wordpool_576.txt	LTP361	ltpFR2	11	4	STONE	1385	n/a	n/a	0	0	0
1478195	WORD	wordpools/wasnorm_wordpool_576.txt	LTP361	ltpFR2	11	4	MILK	895	n/a	n/a	0	0	0
1481011	WORD	wordpools/wasnorm_wordpool_576.txt	LTP361	ltpFR2	11	4	SLIME	1327	n/a	n/a	0	0	0
1483609	WORD	wordpools/wasnorm_wordpool_576.txt	LTP361	ltpFR2	11	4	MILDEW	893	n/a	n/a	0	0	0
1486175	WORD	wordpools/wasnorm_wordpool_576.txt	LTP361	ltpFR2	11	4	WAITER	1580	n/a	n/a	0	0	0
1488890	WORD	wordpools/wasnorm_wordpool_576.txt	LTP361	ltpFR2	11	4	SERVANT	1271	n/a	n/a	0	0	0
1491672	WORD	wordpools/wasnorm_wordpool_576.txt	LTP361	ltpFR2	11	4	BULLET	194	n/a	n/a	0	0	0
1494271	WORD	wordpools/wasnorm_wordpool_576.txt	LTP361	ltpFR2	11	4	SNAKE	1333	n/a	n/a	0	0	0
1497070	WORD	wordpools/wasnorm_wordpool_576.txt	LTP361	ltpFR2	11	4	JURY	766	n/a	n/a	0	0	0
1499602	WORD	wordpools/wasnorm_wordpool_576.txt	LTP361	ltpFR2	11	4	FRIEND	606	n/a	n/a	0	0	0
1502284	WORD	wordpools/wasnorm_wordpool_576.txt	LTP361	ltpFR2	11	4	FRAME	600	n/a	n/a	0	0	0
1504916	WORD	wordpools/wasnorm_wordpool_576.txt	LTP361	ltpFR2	11	4	OUTDOORS	987	n/a	n/a	0	0	0
1507532	WORD	wordpools/wasnorm_wordpool_576.txt	LTP361	ltpFR2	11	4	COBRA	336	n/a	n/a	0	0	0
1510081	WORD	wordpools/wasnorm_wordpool_576.txt	LTP361	ltpFR2	11	4	BEEF	113	n/a	n/a	0	0	0
1512713	WORD	wordpools/wasnorm_wordpool_576.txt	LTP361	ltpFR2	11	4	SKETCH	1315	n/a	n/a	0	0	0
1515328	WORD	wordpools/wasnorm_wordpool_576.txt	LTP361	ltpFR2	11	4	NOMAD	955	n/a	n/a	0	0	0
1516944	START	n/a	LTP361	ltpFR2	11	n/a	n/a	n/a	5	n/a	n/a	n/a	n/a
1517993	DISTRACTOR	n/a	LTP361	ltpFR2	11	4	n/a	n/a	n/a	n/a	0	0	0
1518010	PROB	n/a	LTP361	ltpFR2	11	n/a	n/a	n/a	5	11	1	5	5
1520359	PROB	n/a	LTP361	ltpFR2	11	n/a	n/a	n/a	5	9	2	4	3
1523525	PROB	n/a	LTP361	ltpFR2	11	n/a	n/a	n/a	5	11	7	3	1
1525124	PROB	n/a	LTP361	ltpFR2	11	n/a	n/a	n/a	5	18	5	4	9
1527773	PROB	n/a	LTP361	ltpFR2	11	n/a	n/a	n/a	5	17	6	8	3
1529572	PROB	n/a	LTP361	ltpFR2	11	n/a	n/a	n/a	5	15	5	1	9
1531004	PROB	n/a	LTP361	ltpFR2	11	n/a	n/a	n/a	5	16	7	5	4
1532604	PROB	n/a	LTP361	ltpFR2	11	n/a	n/a	n/a	5	20	4	7	9
1535286	PROB	n/a	LTP361	ltpFR2	11	n/a	n/a	n/a	5	23	7	8	8
1537418	PROB	n/a	LTP361	ltpFR2	11	n/a	n/a	n/a	5	25	9	5	7
1540161	STOP	n/a	LTP361	ltpFR2	11	n/a	n/a	n/a	5	n/a	n/a	n/a	n/a
1542832	REC_START	n/a	LTP361	ltpFR2	11	4	n/a	n/a	n/a	n/a	0	0	0
1543638	REC_WORD	wordpools/wasnorm_wordpool_576.txt	LTP361	ltpFR2	11	4	COBRA	336	n/a	n/a	0	0	0
1544934	REC_WORD	wordpools/wasnorm_wordpool_576.txt	LTP361	ltpFR2	11	4	BEEF	113	n/a	n/a	0	0	0
1546560	REC_WORD	wordpools/wasnorm_wordpool_576.txt	LTP361	ltpFR2	11	4	SKETCH	1315	n/a	n/a	0	0	0
1547687	REC_WORD	wordpools/wasnorm_wordpool_576.txt	LTP361	ltpFR2	11	4	NOMAD	955	n/a	n/a	0	0	0
1549408	REC_WORD	wordpools/wasnorm_wordpool_576.txt	LTP361	ltpFR2	11	4	STONE	1385	n/a	n/a	0	0	0
1550877	REC_WORD	wordpools/wasnorm_wordpool_576.txt	LTP361	ltpFR2	11	4	GANGSTER	620	n/a	n/a	0	0	0
1552396	REC_WORD	wordpools/wasnorm_wordpool_576.txt	LTP361	ltpFR2	11	4	STONE	1385	n/a	n/a	0	0	0
1554206	REC_WORD	wordpools/wasnorm_wordpool_576.txt	LTP361	ltpFR2	11	4	LADDER	793	n/a	n/a	0	0	0
1555301	REC_WORD	wordpools/wasnorm_wordpool_576.txt	LTP361	ltpFR2	11	4	FIREMAN	569	n/a	n/a	0	0	0
1556617	REC_WORD	wordpools/wasnorm_wordpool_576.txt	LTP361	ltpFR2	11	4	PIGEON	1065	n/a	n/a	0	0	0
1558189	REC_WORD	wordpools/wasnorm_wordpool_576.txt	LTP361	ltpFR2	11	4	VELVET	1555	n/a	n/a	0	0	0
1745057	WORD	wordpools/wasnorm_wordpool_576.txt	LTP361	ltpFR2	11	5	MISSILE	900	n/a	n/a	0	0	0
1747789	WORD	wordpools/wasnorm_wordpool_576.txt	LTP361	ltpFR2	11	5	DRAWING	494	n/a	n/a	0	0	0
1750421	WORD	wordpools/wasnorm_wordpool_576.txt	LTP361	ltpFR2	11	5	AIRPORT	13	n/a	n/a	0	0	0
1753137	WORD	wordpools/wasnorm_wordpool_576.txt	LTP361	ltpFR2	11	5	AIRPLANE	12	n/a	n/a	0	0	0
1755719	WORD	wordpools/wasnorm_wordpool_576.txt	LTP361	ltpFR2	11	5	SLOPE	1328	n/a	n/a	0	0	0
1758351	WORD	wordpools/wasnorm_wordpool_576.txt	LTP361	ltpFR2	11	5	DANCER	437	n/a	n/a	0	0	0
1761100	WORD	wordpools/wasnorm_wordpool_576.txt	LTP361	ltpFR2	11	5	TOMBSTONE	1478	n/a	n/a	0	0	0
1763898	WORD	wordpools/wasnorm_wordpool_576.txt	LTP361	ltpFR2	11	5	IDOL	733	n/a	n/a	0	0	0
1766414	WORD	wordpools/wasnorm_wordpool_576.txt	LTP361	ltpFR2	11	5	WARDROBE	1587	n/a	n/a	0	0	0
1769013	WORD	wordpools/wasnorm_wordpool_576.txt	LTP361	ltpFR2	11	5	BUREAU	199	n/a	n/a	0	0	0
1771695	WORD	wordpools/wasnorm_wordpool_576.txt	LTP361	ltpFR2	11	5	LUGGAGE	847	n/a	n/a	0	0	0
1774277	WORD	wordpools/wasnorm_wordpool_576.txt	LTP361	ltpFR2	11	5	STAR	1373	n/a	n/a	0	0	0
1776926	WORD	wordpools/wasnorm_wordpool_576.txt	LTP361	ltpFR2	11	5	PERCH	1048	n/a	n/a	0	0	0
1779608	WORD	wordpools/wasnorm_wordpool_576.txt	LTP361	ltpFR2	11	5	WITNESS	1618	n/a	n/a	0	0	0
1782323	WORD	wordpools/wasnorm_wordpool_576.txt	LTP361	ltpFR2	11	5	SIDEWALK	1303	n/a	n/a	0	0	0
1784789	WORD	wordpools/wasnorm_wordpool_576.txt	LTP361	ltpFR2	11	5	PICNIC	1060	n/a	n/a	0	0	0
1787355	WORD	wordpools/wasnorm_wordpool_576.txt	LTP361	ltpFR2	11	5	ULCER	1533	n/a	n/a	0	0	0
1790070	WORD	wordpools/wasnorm_wordpool_576.txt	LTP361	ltpFR2	11	5	SUMMIT	1405	n/a	n/a	0	0	0
1792801	WORD	wordpools/wasnorm_wordpool_576.txt	LTP361	ltpFR2	11	5	SILK	1307	n/a	n/a	0	0	0
1795251	WORD	wordpools/wasnorm_wordpool_576.txt	LTP361	ltpFR2	11	5	PORTRAIT	1111	n/a	n/a	0	0	0
1797866	WORD	wordpools/wasnorm_wordpool_576.txt	LTP361	ltpFR2	11	5	PICTURE	1061	n/a	n/a	0	0	0
1800349	WORD	wordpools/wasnorm_wordpool_576.txt	LTP361	ltpFR2	11	5	KNAPSACK	783	n/a	n/a	0	0	0
1803164	WORD	wordpools/wasnorm_wordpool_576.txt	LTP361	ltpFR2	11	5	JUDGE	761	n/a	n/a	0	0	0
1805663	WORD	wordpools/wasnorm_wordpool_576.txt	LTP361	ltpFR2	11	5	PLUTO	1092	n/a	n/a	0	0	0
1807279	START	n/a	LTP361	ltpFR2	11	n/a	n/a	n/a	6	n/a	n/a	n/a	n/a
1808441	DISTRACTOR	n/a	LTP361	ltpFR2	11	5	n/a	n/a	n/a	n/a	0	0	0
1808445	PROB	n/a	LTP361	ltpFR2	11	n/a	n/a	n/a	6	19	4	9	6
1811826	PROB	n/a	LTP361	ltpFR2	11	n/a	n/a	n/a	6	17	2	6	9
1814192	PROB	n/a	LTP361	ltpFR2	11	n/a	n/a	n/a	6	8	2	1	5
1816541	PROB	n/a	LTP361	ltpFR2	11	n/a	n/a	n/a	6	7	3	2	2
1818024	PROB	n/a	LTP361	ltpFR2	11	n/a	n/a	n/a	6	15	3	3	9
1820639	PROB	n/a	LTP361	ltpFR2	11	n/a	n/a	n/a	6	19	7	4	8
1822788	PROB	n/a	LTP361	ltpFR2	11	n/a	n/a	n/a	6	13	5	5	3
1824538	PROB	n/a	LTP361	ltpFR2	11	n/a	n/a	n/a	6	16	5	5	6
1826087	PROB	n/a	LTP361	ltpFR2	11	n/a	n/a	n/a	6	9	1	3	5
1827869	PROB	n/a	LTP361	ltpFR2	11	n/a	n/a	n/a	6	11	2	6	3
1829569	PROB	n/a	LTP361	ltpFR2	11	n/a	n/a	n/a	6	18	4	6	8
1831225	STOP	n/a	LTP361	ltpFR2	11	n/a	n/a	n/a	6	n/a	n/a	n/a	n/a
1833034	REC_START	n/a	LTP361	ltpFR2	11	5	n/a	n/a	n/a	n/a	0	0	0
1835472	REC_WORD	wordpools/wasnorm_wordpool_576.txt	LTP361	ltpFR2	11	5	JUDGE	761	n/a	n/a	0	0	0
1836726	REC_WORD	wordpools/wasnorm_wordpool_576.txt	LTP361	ltpFR2	11	5	ULCER	1533	n/a	n/a	0	0	0
1841932	REC_WORD	wordpools/wasnorm_wordpool_576.txt	LTP361	ltpFR2	11	5	PICNIC	1060	n/a	n/a	0	0	0
1857276	REC_WORD	wordpools/wasnorm_wordpool_576.txt	LTP361	ltpFR2	11	5	KNAPSACK	783	n/a	n/a	0	0	0
1923459	DISTRACTOR	n/a	LTP361	ltpFR2	11	6	n/a	n/a	n/a	n/a	0	0	0
1923459	START	n/a	LTP361	ltpFR2	11	n/a	n/a	n/a	7	n/a	n/a	n/a	n/a
1923476	PROB	n/a	LTP361	ltpFR2	11	n/a	n/a	n/a	7	11	6	1	4
1925242	PROB	n/a	LTP361	ltpFR2	11	n/a	n/a	n/a	7	12	4	1	7
1927141	PROB	n/a	LTP361	ltpFR2	11	n/a	n/a	n/a	7	10	5	2	3
1928690	PROB	n/a	LTP361	ltpFR2	11	n/a	n/a	n/a	7	11	2	4	5
1930323	PROB	n/a	LTP361	ltpFR2	11	n/a	n/a	n/a	7	17	8	2	7
1932155	PROB	n/a	LTP361	ltpFR2	11	n/a	n/a	n/a	7	13	1	3	9
1933555	PROB	n/a	LTP361	ltpFR2	11	n/a	n/a	n/a	7	15	1	5	9
1935187	PROB	n/a	LTP361	ltpFR2	11	n/a	n/a	n/a	7	24	9	9	6
1936852	PROB	n/a	LTP361	ltpFR2	11	n/a	n/a	n/a	7	8	1	3	4
1938169	PROB	n/a	LTP361	ltpFR2	11	n/a	n/a	n/a	7	18	9	1	8
1940435	PROB	n/a	LTP361	ltpFR2	11	n/a	n/a	n/a	7	16	3	4	9
1943134	PROB	n/a	LTP361	ltpFR2	11	n/a	n/a	n/a	7	21	8	5	8
1947459	STOP	n/a	LTP361	ltpFR2	11	n/a	n/a	n/a	7	n/a	n/a	n/a	n/a
1948448	WORD	wordpools/wasnorm_wordpool_576.txt	LTP361	ltpFR2	11	6	TURNIP	1521	n/a	n/a	0	0	0
1951263	WORD	wordpools/wasnorm_wordpool_576.txt	LTP361	ltpFR2	11	6	XEROX	1628	n/a	n/a	0	0	0
1953828	WORD	wordpools/wasnorm_wordpool_576.txt	LTP361	ltpFR2	11	6	PANTHER	1009	n/a	n/a	0	0	0
1956594	WORD	wordpools/wasnorm_wordpool_576.txt	LTP361	ltpFR2	11	6	BIKE	125	n/a	n/a	0	0	0
1959376	WORD	wordpools/wasnorm_wordpool_576.txt	LTP361	ltpFR2	11	6	AUTHOR	61	n/a	n/a	0	0	0
1962042	WORD	wordpools/wasnorm_wordpool_576.txt	LTP361	ltpFR2	11	6	HIKER	708	n/a	n/a	0	0	0
1964874	WORD	wordpools/wasnorm_wordpool_576.txt	LTP361	ltpFR2	11	6	LION	827	n/a	n/a	0	0	0
1967539	WORD	wordpools/wasnorm_wordpool_576.txt	LTP361	ltpFR2	11	6	SPARROW	1347	n/a	n/a	0	0	0
1970055	WORD	wordpools/wasnorm_wordpool_576.txt	LTP361	ltpFR2	11	6	ROBIN	1199	n/a	n/a	0	0	0
1972537	WORD	wordpools/wasnorm_wordpool_576.txt	LTP361	ltpFR2	11	6	BUCKET	184	n/a	n/a	0	0	0
1975236	WORD	wordpools/wasnorm_wordpool_576.txt	LTP361	ltpFR2	11	6	RAFT	1159	n/a	n/a	0	0	0
1977968	WORD	wordpools/wasnorm_wordpool_576.txt	LTP361	ltpFR2	11	6	SPONGE	1355	n/a	n/a	0	0	0
1980650	WORD	wordpools/wasnorm_wordpool_576.txt	LTP361	ltpFR2	11	6	JOURNAL	760	n/a	n/a	0	0	0
1983449	WORD	wordpools/wasnorm_wordpool_576.txt	LTP361	ltpFR2	11	6	BRIEFCASE	175	n/a	n/a	0	0	0
1986064	WORD	wordpools/wasnorm_wordpool_576.txt	LTP361	ltpFR2	11	6	RIVER	1194	n/a	n/a	0	0	0
1988663	WORD	wordpools/wasnorm_wordpool_576.txt	LTP361	ltpFR2	11	6	OMELET	976	n/a	n/a	0	0	0
1991178	WORD	wordpools/wasnorm_wordpool_576.txt	LTP361	ltpFR2	11	6	PREACHER	1119	n/a	n/a	0	0	0
1993611	WORD	wordpools/wasnorm_wordpool_576.txt	LTP361	ltpFR2	11	6	ZEBRA	1635	n/a	n/a	0	0	0
1996060	WORD	wordpools/wasnorm_wordpool_576.txt	LTP361	ltpFR2	11	6	SKIRT	1319	n/a	n/a	0	0	0
1998807	WORD	wordpools/wasnorm_wordpool_576.txt	LTP361	ltpFR2	11	6	SHOULDER	1294	n/a	n/a	0	0	0
2001590	WORD	wordpools/wasnorm_wordpool_576.txt	LTP361	ltpFR2	11	6	CRAB	397	n/a	n/a	0	0	0
2004206	WORD	wordpools/wasnorm_wordpool_576.txt	LTP361	ltpFR2	11	6	DANDRUFF	439	n/a	n/a	0	0	0
2006971	WORD	wordpools/wasnorm_wordpool_576.txt	LTP361	ltpFR2	11	6	SIBLING	1301	n/a	n/a	0	0	0
2009703	WORD	wordpools/wasnorm_wordpool_576.txt	LTP361	ltpFR2	11	6	ACTRESS	6	n/a	n/a	0	0	0
2011320	START	n/a	LTP361	ltpFR2	11	n/a	n/a	n/a	8	n/a	n/a	n/a	n/a
2012484	DISTRACTOR	n/a	LTP361	ltpFR2	11	6	n/a	n/a	n/a	n/a	0	0	0
2012485	PROB	n/a	LTP361	ltpFR2	11	n/a	n/a	n/a	8	20	4	7	9
2014918	PROB	n/a	LTP361	ltpFR2	11	n/a	n/a	n/a	8	19	8	3	8
2016550	PROB	n/a	LTP361	ltpFR2	11	n/a	n/a	n/a	8	19	8	3	8
2017417	PROB	n/a	LTP361	ltpFR2	11	n/a	n/a	n/a	8	15	6	5	4
2019399	PROB	n/a	LTP361	ltpFR2	11	n/a	n/a	n/a	8	17	9	5	3
2021265	PROB	n/a	LTP361	ltpFR2	11	n/a	n/a	n/a	8	16	2	7	7
2022581	PROB	n/a	LTP361	ltpFR2	11	n/a	n/a	n/a	8	21	6	6	9
2024547	PROB	n/a	LTP361	ltpFR2	11	n/a	n/a	n/a	8	21	9	4	8
2026662	PROB	n/a	LTP361	ltpFR2	11	n/a	n/a	n/a	8	12	8	1	3
2028278	PROB	n/a	LTP361	ltpFR2	11	n/a	n/a	n/a	8	15	5	5	5
2029444	PROB	n/a	LTP361	ltpFR2	11	n/a	n/a	n/a	8	22	8	6	8
2032043	PROB	n/a	LTP361	ltpFR2	11	n/a	n/a	n/a	8	12	3	4	5
2033991	STOP	n/a	LTP361	ltpFR2	11	n/a	n/a	n/a	8	n/a	n/a	n/a	n/a
2037141	REC_START	n/a	LTP361	ltpFR2	11	6	n/a	n/a	n/a	n/a	0	0	0
2038612	REC_WORD	wordpools/wasnorm_wordpool_576.txt	LTP361	ltpFR2	11	6	ACTRESS	6	n/a	n/a	0	0	0
2040618	REC_WORD	wordpools/wasnorm_wordpool_576.txt	LTP361	ltpFR2	11	6	CRAB	397	n/a	n/a	0	0	0
2041647	REC_WORD	wordpools/wasnorm_wordpool_576.txt	LTP361	ltpFR2	11	6	SIBLING	1301	n/a	n/a	0	0	0
2067125	REC_WORD	wordpools/wasnorm_wordpool_576.txt	LTP361	ltpFR2	11	6	SPARROW	1347	n/a	n/a	0	0	0
2068624	REC_WORD	wordpools/wasnorm_wordpool_576.txt	LTP361	ltpFR2	11	6	RAFT	1159	n/a	n/a	0	0	0
2070541	REC_WORD	wordpools/wasnorm_wordpool_576.txt	LTP361	ltpFR2	11	6	ROBIN	1199	n/a	n/a	0	0	0
2071670	REC_WORD	wordpools/wasnorm_wordpool_576.txt	LTP361	ltpFR2	11	6	BUCKET	184	n/a	n/a	0	0	0
2073038	REC_WORD	wordpools/wasnorm_wordpool_576.txt	LTP361	ltpFR2	11	6	LION	827	n/a	n/a	0	0	0
2074665	REC_WORD	wordpools/wasnorm_wordpool_576.txt	LTP361	ltpFR2	11	6	HIKER	708	n/a	n/a	0	0	0
2076039	REC_WORD	wordpools/wasnorm_wordpool_576.txt	LTP361	ltpFR2	11	6	BRIEFCASE	175	n/a	n/a	0	0	0
2077983	REC_WORD	wordpools/wasnorm_wordpool_576.txt	LTP361	ltpFR2	11	6	AUTHOR	61	n/a	n/a	0	0	0
2081467	REC_WORD	wordpools/wasnorm_wordpool_576.txt	LTP361	ltpFR2	11	6	JOURNAL	760	n/a	n/a	0	0	0
2082754	REC_WORD	wordpools/wasnorm_wordpool_576.txt	LTP361	ltpFR2	11	6	NOTEBOOK	959	n/a	n/a	0	0	0
2086658	REC_WORD	wordpools/wasnorm_wordpool_576.txt	LTP361	ltpFR2	11	6	PANTHER	1009	n/a	n/a	0	0	0
2096669	REC_WORD	wordpools/wasnorm_wordpool_576.txt	LTP361	ltpFR2	11	6	BIKE	125	n/a	n/a	0	0	0
2098982	REC_WORD	wordpools/wasnorm_wordpool_576.txt	LTP361	ltpFR2	11	6	TURNIP	1521	n/a	n/a	0	0	0
2127600	WORD	wordpools/wasnorm_wordpool_576.txt	LTP361	ltpFR2	11	7	MARINE	869	n/a	n/a	0	0	0
2130165	WORD	wordpools/wasnorm_wordpool_576.txt	LTP361	ltpFR2	11	7	PAIL	1002	n/a	n/a	0	0	0
2132964	WORD	wordpools/wasnorm_wordpool_576.txt	LTP361	ltpFR2	11	7	BROTHER	179	n/a	n/a	0	0	0
2135696	WORD	wordpools/wasnorm_wordpool_576.txt	LTP361	ltpFR2	11	7	MACHINE	852	n/a	n/a	0	0	0
2138328	WORD	wordpools/wasnorm_wordpool_576.txt	LTP361	ltpFR2	11	7	RECEIPT	1173	n/a	n/a	0	0	0
2140877	WORD	wordpools/wasnorm_wordpool_576.txt	LTP361	ltpFR2	11	7	TRANSPLANT	1496	n/a	n/a	0	0	0
2143459	WORD	wordpools/wasnorm_wordpool_576.txt	LTP361	ltpFR2	11	7	SNAIL	1332	n/a	n/a	0	0	0
2145975	WORD	wordpools/wasnorm_wordpool_576.txt	LTP361	ltpFR2	11	7	WASHER	1592	n/a	n/a	0	0	0
2148574	WORD	wordpools/wasnorm_wordpool_576.txt	LTP361	ltpFR2	11	7	SPOOL	1356	n/a	n/a	0	0	0
2151106	WORD	wordpools/wasnorm_wordpool_576.txt	LTP361	ltpFR2	11	7	YARN	1631	n/a	n/a	0	0	0
2153771	WORD	wordpools/wasnorm_wordpool_576.txt	LTP361	ltpFR2	11	7	SHORTCAKE	1292	n/a	n/a	0	0	0
2156287	WORD	wordpools/wasnorm_wordpool_576.txt	LTP361	ltpFR2	11	7	HEART	697	n/a	n/a	0	0	0
2159102	WORD	wordpools/wasnorm_wordpool_576.txt	LTP361	ltpFR2	11	7	BALLOON	75	n/a	n/a	0	0	0
2161568	WORD	wordpools/wasnorm_wordpool_576.txt	LTP361	ltpFR2	11	7	FIDDLE	561	n/a	n/a	0	0	0
2164150	WORD	wordpools/wasnorm_wordpool_576.txt	LTP361	ltpFR2	11	7	COUNTRY	388	n/a	n/a	0	0	0
2166882	WORD	wordpools/wasnorm_wordpool_576.txt	LTP361	ltpFR2	11	7	VIKING	1565	n/a	n/a	0	0	0
2169531	WORD	wordpools/wasnorm_wordpool_576.txt	LTP361	ltpFR2	11	7	SCALLOP	1242	n/a	n/a	0	0	0
2171996	WORD	wordpools/wasnorm_wordpool_576.txt	LTP361	ltpFR2	11	7	LIZARD	834	n/a	n/a	0	0	0
2174794	WORD	wordpools/wasnorm_wordpool_576.txt	LTP361	ltpFR2	11	7	PASTA	1021	n/a	n/a	0	0	0
2177394	WORD	wordpools/wasnorm_wordpool_576.txt	LTP361	ltpFR2	11	7	PEANUT	1032	n/a	n/a	0	0	0
2179893	WORD	wordpools/wasnorm_wordpool_576.txt	LTP361	ltpFR2	11	7	BEAST	108	n/a	n/a	0	0	0
2182558	WORD	wordpools/wasnorm_wordpool_576.txt	LTP361	ltpFR2	11	7	DUSTPAN	509	n/a	n/a	0	0	0
2185007	WORD	wordpools/wasnorm_wordpool_576.txt	LTP361	ltpFR2	11	7	CANAL	226	n/a	n/a	0	0	0
2187573	WORD	wordpools/wasnorm_wordpool_576.txt	LTP361	ltpFR2	11	7	HAWK	692	n/a	n/a	0	0	0
2189189	START	n/a	LTP361	ltpFR2	11	n/a	n/a	n/a	9	n/a	n/a	n/a	n/a
2190029	DISTRACTOR	n/a	LTP361	ltpFR2	11	7	n/a	n/a	n/a	n/a	0	0	0
2190038	PROB	n/a	LTP361	ltpFR2	11	n/a	n/a	n/a	9	18	8	2	8
2192404	PROB	n/a	LTP361	ltpFR2	11	n/a	n/a	n/a	9	18	4	9	5
2195502	PROB	n/a	LTP361	ltpFR2	11	n/a	n/a	n/a	9	5	2	1	2
2196817	PROB	n/a	LTP361	ltpFR2	11	n/a	n/a	n/a	9	10	3	2	5
2198601	PROB	n/a	LTP361	ltpFR2	11	n/a	n/a	n/a	9	13	2	4	7
2200517	PROB	n/a	LTP361	ltpFR2	11	n/a	n/a	n/a	9	13	5	7	1
2201866	PROB	n/a	LTP361	ltpFR2	11	n/a	n/a	n/a	9	14	6	4	4
2203899	PROB	n/a	LTP361	ltpFR2	11	n/a	n/a	n/a	9	13	4	5	4
2205714	PROB	n/a	LTP361	ltpFR2	11	n/a	n/a	n/a	9	14	8	1	5
2207314	PROB	n/a	LTP361	ltpFR2	11	n/a	n/a	n/a	9	1	4	8	7
2208980	PROB	n/a	LTP361	ltpFR2	11	n/a	n/a	n/a	9	16	8	2	6
2211395	PROB	n/a	LTP361	ltpFR2	11	n/a	n/a	n/a	9	8	4	1	3
2212508	STOP	n/a	LTP361	ltpFR2	11	n/a	n/a	n/a	9	n/a	n/a	n/a	n/a
2215077	REC_START	n/a	LTP361	ltpFR2	11	7	n/a	n/a	n/a	n/a	0	0	0
2217108	REC_WORD	wordpools/wasnorm_wordpool_576.txt	LTP361	ltpFR2	11	7	BEAST	108	n/a	n/a	0	0	0
2218789	REC_WORD	wordpools/wasnorm_wordpool_576.txt	LTP361	ltpFR2	11	7	DUSTPAN	509	n/a	n/a	0	0	0
2219935	REC_WORD	wordpools/wasnorm_wordpool_576.txt	LTP361	ltpFR2	11	7	CANAL	226	n/a	n/a	0	0	0
2221174	REC_WORD	wordpools/wasnorm_wordpool_576.txt	LTP361	ltpFR2	11	7	HAWK	692	n/a	n/a	0	0	0
2254704	REC_WORD	wordpools/wasnorm_wordpool_576.txt	LTP361	ltpFR2	11	7	MARINE	869	n/a	n/a	0	0	0
2256205	REC_WORD	wordpools/wasnorm_wordpool_576.txt	LTP361	ltpFR2	11	7	PAIL	1002	n/a	n/a	0	0	0
2258004	REC_WORD	wordpools/wasnorm_wordpool_576.txt	LTP361	ltpFR2	11	7	BROTHER	179	n/a	n/a	0	0	0
2260163	REC_WORD	wordpools/wasnorm_wordpool_576.txt	LTP361	ltpFR2	11	7	MACHINE	852	n/a	n/a	0	0	0
2261520	REC_WORD	wordpools/wasnorm_wordpool_576.txt	LTP361	ltpFR2	11	7	RECEIPT	1173	n/a	n/a	0	0	0
2263081	REC_WORD	wordpools/wasnorm_wordpool_576.txt	LTP361	ltpFR2	11	7	TRANSPLANT	1496	n/a	n/a	0	0	0
2264340	REC_WORD	wordpools/wasnorm_wordpool_576.txt	LTP361	ltpFR2	11	7	SNAIL	1332	n/a	n/a	0	0	0
2266159	REC_WORD	wordpools/wasnorm_wordpool_576.txt	LTP361	ltpFR2	11	7	WASHER	1592	n/a	n/a	0	0	0
2305502	DISTRACTOR	n/a	LTP361	ltpFR2	11	8	n/a	n/a	n/a	n/a	0	0	0
2305502	START	n/a	LTP361	ltpFR2	11	n/a	n/a	n/a	10	n/a	n/a	n/a	n/a
2305519	PROB	n/a	LTP361	ltpFR2	11	n/a	n/a	n/a	10	17	8	6	3
2307501	PROB	n/a	LTP361	ltpFR2	11	n/a	n/a	n/a	10	20	7	5	9
2310283	PROB	n/a	LTP361	ltpFR2	11	n/a	n/a	n/a	10	18	4	9	5
2314065	PROB	n/a	LTP361	ltpFR2	11	n/a	n/a	n/a	10	2	7	9	4
2316231	PROB	n/a	LTP361	ltpFR2	11	n/a	n/a	n/a	10	10	1	2	7
2318180	PROB	n/a	LTP361	ltpFR2	11	n/a	n/a	n/a	10	14	5	1	8
2319662	PROB	n/a	LTP361	ltpFR2	11	n/a	n/a	n/a	10	21	6	9	6
2321178	PROB	n/a	LTP361	ltpFR2	11	n/a	n/a	n/a	10	18	9	3	6
2322511	PROB	n/a	LTP361	ltpFR2	11	n/a	n/a	n/a	10	13	4	1	8
2324377	PROB	n/a	LTP361	ltpFR2	11	n/a	n/a	n/a	10	10	6	2	2
2325543	PROB	n/a	LTP361	ltpFR2	11	n/a	n/a	n/a	10	19	6	4	9
2326993	PROB	n/a	LTP361	ltpFR2	11	n/a	n/a	n/a	10	18	9	8	1
2328248	STOP	n/a	LTP361	ltpFR2	11	n/a	n/a	n/a	10	n/a	n/a	n/a	n/a
2330341	WORD	wordpools/wasnorm_wordpool_576.txt	LTP361	ltpFR2	11	8	OINTMENT	974	n/a	n/a	0	0	0
2332839	WORD	wordpools/wasnorm_wordpool_576.txt	LTP361	ltpFR2	11	8	DUST	508	n/a	n/a	0	0	0
2335305	WORD	wordpools/wasnorm_wordpool_576.txt	LTP361	ltpFR2	11	8	BISON	131	n/a	n/a	0	0	0
2337803	WORD	wordpools/wasnorm_wordpool_576.txt	LTP361	ltpFR2	11	8	BODY	145	n/a	n/a	0	0	0
2340586	WORD	wordpools/wasnorm_wordpool_576.txt	LTP361	ltpFR2	11	8	PEACH	1031	n/a	n/a	0	0	0
2343385	WORD	wordpools/wasnorm_wordpool_576.txt	LTP361	ltpFR2	11	8	CANYON	235	n/a	n/a	0	0	0
2345867	WORD	wordpools/wasnorm_wordpool_576.txt	LTP361	ltpFR2	11	8	ATLAS	53	n/a	n/a	0	0	0
2348350	WORD	wordpools/wasnorm_wordpool_576.txt	LTP361	ltpFR2	11	8	BINDER	127	n/a	n/a	0	0	0
2351165	WORD	wordpools/wasnorm_wordpool_576.txt	LTP361	ltpFR2	11	8	FEMALE	559	n/a	n/a	0	0	0
2353914	WORD	wordpools/wasnorm_wordpool_576.txt	LTP361	ltpFR2	11	8	POSSUM	1112	n/a	n/a	0	0	0
2356712	WORD	wordpools/wasnorm_wordpool_576.txt	LTP361	ltpFR2	11	8	COUNTY	389	n/a	n/a	0	0	0
2359511	WORD	wordpools/wasnorm_wordpool_576.txt	LTP361	ltpFR2	11	8	FLAG	573	n/a	n/a	0	0	0
2362010	WORD	wordpools/wasnorm_wordpool_576.txt	LTP361	ltpFR2	11	8	CASHEW	253	n/a	n/a	0	0	0
2364559	WORD	wordpools/wasnorm_wordpool_576.txt	LTP361	ltpFR2	11	8	COLONEL	348	n/a	n/a	0	0	0
2367108	WORD	wordpools/wasnorm_wordpool_576.txt	LTP361	ltpFR2	11	8	FLEET	578	n/a	n/a	0	0	0
2369706	WORD	wordpools/wasnorm_wordpool_576.txt	LTP361	ltpFR2	11	8	BLACKBOARD	133	n/a	n/a	0	0	0
2372388	WORD	wordpools/wasnorm_wordpool_576.txt	LTP361	ltpFR2	11	8	SCARECROW	1245	n/a	n/a	0	0	0
2374987	WORD	wordpools/wasnorm_wordpool_576.txt	LTP361	ltpFR2	11	8	CAFE	216	n/a	n/a	0	0	0
2377486	WORD	wordpools/wasnorm_wordpool_576.txt	LTP361	ltpFR2	11	8	JELLO	754	n/a	n/a	0	0	0
2379985	WORD	wordpools/wasnorm_wordpool_576.txt	LTP361	ltpFR2	11	8	PERFUME	1049	n/a	n/a	0	0	0
2382434	WORD	wordpools/wasnorm_wordpool_576.txt	LTP361	ltpFR2	11	8	TURTLE	1522	n/a	n/a	0	0	0
2385199	WORD	wordpools/wasnorm_wordpool_576.txt	LTP361	ltpFR2	11	8	CLAM	315	n/a	n/a	0	0	0
2387782	WORD	wordpools/wasnorm_wordpool_576.txt	LTP361	ltpFR2	11	8	BATHTUB	100	n/a	n/a	0	0	0
2390597	WORD	wordpools/wasnorm_wordpool_576.txt	LTP361	ltpFR2	11	8	PECAN	1036	n/a	n/a	0	0	0
2392230	START	n/a	LTP361	ltpFR2	11	n/a	n/a	n/a	11	n/a	n/a	n/a	n/a
2393406	DISTRACTOR	n/a	LTP361	ltpFR2	11	8	n/a	n/a	n/a	n/a	0	0	0
2393412	PROB	n/a	LTP361	ltpFR2	11	n/a	n/a	n/a	11	21	7	6	8
2396544	PROB	n/a	LTP361	ltpFR2	11	n/a	n/a	n/a	11	18	6	5	7
2399076	PROB	n/a	LTP361	ltpFR2	11	n/a	n/a	n/a	11	13	2	5	6
2400609	PROB	n/a	LTP361	ltpFR2	11	n/a	n/a	n/a	11	11	7	3	1
2402258	PROB	n/a	LTP361	ltpFR2	11	n/a	n/a	n/a	11	13	4	1	8
2403991	PROB	n/a	LTP361	ltpFR2	11	n/a	n/a	n/a	11	23	6	8	9
2406156	PROB	n/a	LTP361	ltpFR2	11	n/a	n/a	n/a	11	15	9	2	4
2408821	PROB	n/a	LTP361	ltpFR2	11	n/a	n/a	n/a	11	10	1	2	7
2410171	PROB	n/a	LTP361	ltpFR2	11	n/a	n/a	n/a	11	14	3	2	9
2412204	PROB	n/a	LTP361	ltpFR2	11	n/a	n/a	n/a	11	23	6	8	9
2414236	PROB	n/a	LTP361	ltpFR2	11	n/a	n/a	n/a	11	23	9	7	7
2415890	STOP	n/a	LTP361	ltpFR2	11	n/a	n/a	n/a	11	n/a	n/a	n/a	n/a
2418102	REC_START	n/a	LTP361	ltpFR2	11	8	n/a	n/a	n/a	n/a	0	0	0
2419005	REC_WORD	wordpools/wasnorm_wordpool_576.txt	LTP361	ltpFR2	11	8	PECAN	1036	n/a	n/a	0	0	0
2420428	REC_WORD	wordpools/wasnorm_wordpool_576.txt	LTP361	ltpFR2	11	8	CASHEW	253	n/a	n/a	0	0	0
2421381	REC_WORD	wordpools/wasnorm_wordpool_576.txt	LTP361	ltpFR2	11	8	COLONEL	348	n/a	n/a	0	0	0
2422855	REC_WORD	wordpools/wasnorm_wordpool_576.txt	LTP361	ltpFR2	11	8	FLEET	578	n/a	n/a	0	0	0
2427015	REC_WORD	wordpools/wasnorm_wordpool_576.txt	LTP361	ltpFR2	11	8	ATLAS	53	n/a	n/a	0	0	0
2428711	REC_WORD	wordpools/wasnorm_wordpool_576.txt	LTP361	ltpFR2	11	8	BINDER	127	n/a	n/a	0	0	0
2429756	REC_WORD	wordpools/wasnorm_wordpool_576.txt	LTP361	ltpFR2	11	8	FEMALE	559	n/a	n/a	0	0	0
2431609	REC_WORD	wordpools/wasnorm_wordpool_576.txt	LTP361	ltpFR2	11	8	COUNTY	389	n/a	n/a	0	0	0
2432572	REC_WORD	wordpools/wasnorm_wordpool_576.txt	LTP361	ltpFR2	11	8	FLAG	573	n/a	n/a	0	0	0
2435406	REC_WORD	wordpools/wasnorm_wordpool_576.txt	LTP361	ltpFR2	11	8	BLACKBOARD	133	n/a	n/a	0	0	0
2436501	REC_WORD	wordpools/wasnorm_wordpool_576.txt	LTP361	ltpFR2	11	8	SCARECROW	1245	n/a	n/a	0	0	0
2438016	REC_WORD	wordpools/wasnorm_wordpool_576.txt	LTP361	ltpFR2	11	8	CLAM	315	n/a	n/a	0	0	0
2439370	REC_WORD	wordpools/wasnorm_wordpool_576.txt	LTP361	ltpFR2	11	8	TURTLE	1522	n/a	n/a	0	0	0
2447452	REC_WORD	wordpools/wasnorm_wordpool_576.txt	LTP361	ltpFR2	11	8	PEACH	1031	n/a	n/a	0	0	0
2450042	REC_WORD	wordpools/wasnorm_wordpool_576.txt	LTP361	ltpFR2	11	8	BISON	131	n/a	n/a	0	0	0
2451776	REC_WORD	wordpools/wasnorm_wordpool_576.txt	LTP361	ltpFR2	11	8	BODY	145	n/a	n/a	0	0	0
2453053	REC_WORD	wordpools/wasnorm_wordpool_576.txt	LTP361	ltpFR2	11	8	OINTMENT	974	n/a	n/a	0	0	0
2453866	REC_WORD	wordpools/wasnorm_wordpool_576.txt	LTP361	ltpFR2	11	8	DUST	508	n/a	n/a	0	0	0
2494650	REST_REWET	n/a	LTP361	ltpFR2	11	8	n/a	n/a	n/a	n/a	0	0	0
2708702	WORD	wordpools/wasnorm_wordpool_576.txt	LTP361	ltpFR2	11	9	REPORT	1184	n/a	n/a	0	0	0
2711234	WORD	wordpools/wasnorm_wordpool_576.txt	LTP361	ltpFR2	11	9	TWIG	1527	n/a	n/a	0	0	0
2713966	WORD	wordpools/wasnorm_wordpool_576.txt	LTP361	ltpFR2	11	9	BUTCHER	203	n/a	n/a	0	0	0
2716782	WORD	wordpools/wasnorm_wordpool_576.txt	LTP361	ltpFR2	11	9	STAKE	1368	n/a	n/a	0	0	0
2719597	WORD	wordpools/wasnorm_wordpool_576.txt	LTP361	ltpFR2	11	9	LABEL	790	n/a	n/a	0	0	0
2722263	WORD	wordpools/wasnorm_wordpool_576.txt	LTP361	ltpFR2	11	9	CRAYON	401	n/a	n/a	0	0	0
2724878	WORD	wordpools/wasnorm_wordpool_576.txt	LTP361	ltpFR2	11	9	CIGAR	308	n/a	n/a	0	0	0
2727594	WORD	wordpools/wasnorm_wordpool_576.txt	LTP361	ltpFR2	11	9	MEDAL	885	n/a	n/a	0	0	0
2730242	WORD	wordpools/wasnorm_wordpool_576.txt	LTP361	ltpFR2	11	9	ISLAND	745	n/a	n/a	0	0	0
2732791	WORD	wordpools/wasnorm_wordpool_576.txt	LTP361	ltpFR2	11	9	BRAKE	166	n/a	n/a	0	0	0
2735373	WORD	wordpools/wasnorm_wordpool_576.txt	LTP361	ltpFR2	11	9	AWARD	63	n/a	n/a	0	0	0
2737939	WORD	wordpools/wasnorm_wordpool_576.txt	LTP361	ltpFR2	11	9	BUG	187	n/a	n/a	0	0	0
2740488	WORD	wordpools/wasnorm_wordpool_576.txt	LTP361	ltpFR2	11	9	TERMITE	1451	n/a	n/a	0	0	0
2743020	WORD	wordpools/wasnorm_wordpool_576.txt	LTP361	ltpFR2	11	9	GHETTO	633	n/a	n/a	0	0	0
2745469	WORD	wordpools/wasnorm_wordpool_576.txt	LTP361	ltpFR2	11	9	DIME	466	n/a	n/a	0	0	0
2748051	WORD	wordpools/wasnorm_wordpool_576.txt	LTP361	ltpFR2	11	9	BRANDY	169	n/a	n/a	0	0	0
2750616	WORD	wordpools/wasnorm_wordpool_576.txt	LTP361	ltpFR2	11	9	CRATER	400	n/a	n/a	0	0	0
2753415	WORD	wordpools/wasnorm_wordpool_576.txt	LTP361	ltpFR2	11	9	SPACE	1345	n/a	n/a	0	0	0
2756097	WORD	wordpools/wasnorm_wordpool_576.txt	LTP361	ltpFR2	11	9	BACON	67	n/a	n/a	0	0	0
2758862	WORD	wordpools/wasnorm_wordpool_576.txt	LTP361	ltpFR2	11	9	MOTOR	922	n/a	n/a	0	0	0
2761362	WORD	wordpools/wasnorm_wordpool_576.txt	LTP361	ltpFR2	11	9	PLATE	1086	n/a	n/a	0	0	0
2764177	WORD	wordpools/wasnorm_wordpool_576.txt	LTP361	ltpFR2	11	9	HOOD	714	n/a	n/a	0	0	0
2766841	WORD	wordpools/wasnorm_wordpool_576.txt	LTP361	ltpFR2	11	9	WAGON	1578	n/a	n/a	0	0	0
2769608	WORD	wordpools/wasnorm_wordpool_576.txt	LTP361	ltpFR2	11	9	SEAL	1262	n/a	n/a	0	0	0
2771224	START	n/a	LTP361	ltpFR2	11	n/a	n/a	n/a	12	n/a	n/a	n/a	n/a
2772363	DISTRACTOR	n/a	LTP361	ltpFR2	11	9	n/a	n/a	n/a	n/a	0	0	0
2772373	PROB	n/a	LTP361	ltpFR2	11	n/a	n/a	n/a	12	10	5	2	3
2774939	PROB	n/a	LTP361	ltpFR2	11	n/a	n/a	n/a	12	17	8	7	2
2776705	PROB	n/a	LTP361	ltpFR2	11	n/a	n/a	n/a	12	19	3	8	8
2778287	PROB	n/a	LTP361	ltpFR2	11	n/a	n/a	n/a	12	12	2	9	1
2779470	PROB	n/a	LTP361	ltpFR2	11	n/a	n/a	n/a	12	24	9	7	8
2781436	PROB	n/a	LTP361	ltpFR2	11	n/a	n/a	n/a	12	8	2	2	4
2782585	PROB	n/a	LTP361	ltpFR2	11	n/a	n/a	n/a	12	12	2	5	5
2783635	PROB	n/a	LTP361	ltpFR2	11	n/a	n/a	n/a	12	12	4	1	7
2785284	PROB	n/a	LTP361	ltpFR2	11	n/a	n/a	n/a	12	21	4	9	8
2787815	PROB	n/a	LTP361	ltpFR2	11	n/a	n/a	n/a	12	16	5	8	3
2789765	PROB	n/a	LTP361	ltpFR2	11	n/a	n/a	n/a	12	16	4	6	6
2791731	PROB	n/a	LTP361	ltpFR2	11	n/a	n/a	n/a	12	22	4	9	9
2793180	PROB	n/a	LTP361	ltpFR2	11	n/a	n/a	n/a	12	18	7	6	5
2794693	STOP	n/a	LTP361	ltpFR2	11	n/a	n/a	n/a	12	n/a	n/a	n/a	n/a
2797112	REC_START	n/a	LTP361	ltpFR2	11	9	n/a	n/a	n/a	n/a	0	0	0
2798188	REC_WORD_VV	wordpools/wasnorm_wordpool_576.txt	LTP361	ltpFR2	11	9	<>	-1	n/a	n/a	0	0	0
2798367	REC_WORD	wordpools/wasnorm_wordpool_576.txt	LTP361	ltpFR2	11	9	MOTOR	922	n/a	n/a	0	0	0
2799603	REC_WORD	wordpools/wasnorm_wordpool_576.txt	LTP361	ltpFR2	11	9	HOOD	714	n/a	n/a	0	0	0
2800617	REC_WORD	wordpools/wasnorm_wordpool_576.txt	LTP361	ltpFR2	11	9	SPACE	1345	n/a	n/a	0	0	0
2802113	REC_WORD	wordpools/wasnorm_wordpool_576.txt	LTP361	ltpFR2	11	9	PLATE	1086	n/a	n/a	0	0	0
2803661	REC_WORD	wordpools/wasnorm_wordpool_576.txt	LTP361	ltpFR2	11	9	BACON	67	n/a	n/a	0	0	0
2806600	REC_WORD	wordpools/wasnorm_wordpool_576.txt	LTP361	ltpFR2	11	9	ISLAND	745	n/a	n/a	0	0	0
2808218	REC_WORD	wordpools/wasnorm_wordpool_576.txt	LTP361	ltpFR2	11	9	BUTCHER	203	n/a	n/a	0	0	0
2809310	REC_WORD	wordpools/wasnorm_wordpool_576.txt	LTP361	ltpFR2	11	9	MEDAL	885	n/a	n/a	0	0	0
2810212	REC_WORD	wordpools/wasnorm_wordpool_576.txt	LTP361	ltpFR2	11	9	AWARD	63	n/a	n/a	0	0	0
2814528	REC_WORD	wordpools/wasnorm_wordpool_576.txt	LTP361	ltpFR2	11	9	REPORT	1184	n/a	n/a	0	0	0
2815776	REC_WORD	wordpools/wasnorm_wordpool_576.txt	LTP361	ltpFR2	11	9	TWIG	1527	n/a	n/a	0	0	0
2817196	REC_WORD	wordpools/wasnorm_wordpool_576.txt	LTP361	ltpFR2	11	9	STAKE	1368	n/a	n/a	0	0	0
2818373	REC_WORD	wordpools/wasnorm_wordpool_576.txt	LTP361	ltpFR2	11	9	ISLAND	745	n/a	n/a	0	0	0
2825780	REC_WORD	wordpools/wasnorm_wordpool_576.txt	LTP361	ltpFR2	11	9	CIGAR	308	n/a	n/a	0	0	0
2826985	REC_WORD	wordpools/wasnorm_wordpool_576.txt	LTP361	ltpFR2	11	9	LABEL	790	n/a	n/a	0	0	0
2828143	REC_WORD	wordpools/wasnorm_wordpool_576.txt	LTP361	ltpFR2	11	9	CRAYON	401	n/a	n/a	0	0	0
2830291	REC_WORD	wordpools/wasnorm_wordpool_576.txt	LTP361	ltpFR2	11	9	CRATER	400	n/a	n/a	0	0	0
2831381	REC_WORD	wordpools/wasnorm_wordpool_576.txt	LTP361	ltpFR2	11	9	GHETTO	633	n/a	n/a	0	0	0
2834609	REC_WORD	wordpools/wasnorm_wordpool_576.txt	LTP361	ltpFR2	11	9	BOURBON	-1	n/a	n/a	0	0	0
2836362	REC_WORD	wordpools/wasnorm_wordpool_576.txt	LTP361	ltpFR2	11	9	DIME	466	n/a	n/a	0	0	0
2838953	REC_WORD	wordpools/wasnorm_wordpool_576.txt	LTP361	ltpFR2	11	9	BRAKE	166	n/a	n/a	0	0	0
2842900	REC_WORD	wordpools/wasnorm_wordpool_576.txt	LTP361	ltpFR2	11	9	TERMITE	1451	n/a	n/a	0	0	0
2844993	REC_WORD	wordpools/wasnorm_wordpool_576.txt	LTP361	ltpFR2	11	9	BUG	187	n/a	n/a	0	0	0
2887554	WORD	wordpools/wasnorm_wordpool_576.txt	LTP361	ltpFR2	11	10	LEADER	807	n/a	n/a	0	0	0
2890320	WORD	wordpools/wasnorm_wordpool_576.txt	LTP361	ltpFR2	11	10	BEAVER	109	n/a	n/a	0	0	0
2893002	WORD	wordpools/wasnorm_wordpool_576.txt	LTP361	ltpFR2	11	10	LACE	792	n/a	n/a	0	0	0
2895767	WORD	wordpools/wasnorm_wordpool_576.txt	LTP361	ltpFR2	11	10	TRUCK	1512	n/a	n/a	0	0	0
2898316	WORD	wordpools/wasnorm_wordpool_576.txt	LTP361	ltpFR2	11	10	CHAUFFEUR	283	n/a	n/a	0	0	0
2900748	WORD	wordpools/wasnorm_wordpool_576.txt	LTP361	ltpFR2	11	10	PADDLE	1000	n/a	n/a	0	0	0
2903297	WORD	wordpools/wasnorm_wordpool_576.txt	LTP361	ltpFR2	11	10	STALLION	1369	n/a	n/a	0	0	0
2905946	WORD	wordpools/wasnorm_wordpool_576.txt	LTP361	ltpFR2	11	10	PEDAL	1037	n/a	n/a	0	0	0
2908694	WORD	wordpools/wasnorm_wordpool_576.txt	LTP361	ltpFR2	11	10	RATTLE	1170	n/a	n/a	0	0	0
2911377	WORD	wordpools/wasnorm_wordpool_576.txt	LTP361	ltpFR2	11	10	POWDER	1117	n/a	n/a	0	0	0
2914075	WORD	wordpools/wasnorm_wordpool_576.txt	LTP361	ltpFR2	11	10	LONDON	843	n/a	n/a	0	0	0
2916823	WORD	wordpools/wasnorm_wordpool_576.txt	LTP361	ltpFR2	11	10	FINGER	567	n/a	n/a	0	0	0
2919523	WORD	wordpools/wasnorm_wordpool_576.txt	LTP361	ltpFR2	11	10	WRIST	1626	n/a	n/a	0	0	0
2922322	WORD	wordpools/wasnorm_wordpool_576.txt	LTP361	ltpFR2	11	10	PILOT	1070	n/a	n/a	0	0	0
2925071	WORD	wordpools/wasnorm_wordpool_576.txt	LTP361	ltpFR2	11	10	COCKTAIL	338	n/a	n/a	0	0	0
2927553	WORD	wordpools/wasnorm_wordpool_576.txt	LTP361	ltpFR2	11	10	CLOCK	325	n/a	n/a	0	0	0
2930235	WORD	wordpools/wasnorm_wordpool_576.txt	LTP361	ltpFR2	11	10	PIMPLE	1071	n/a	n/a	0	0	0
2932717	WORD	wordpools/wasnorm_wordpool_576.txt	LTP361	ltpFR2	11	10	CHAPEL	280	n/a	n/a	0	0	0
2935399	WORD	wordpools/wasnorm_wordpool_576.txt	LTP361	ltpFR2	11	10	ASIA	46	n/a	n/a	0	0	0
2938215	WORD	wordpools/wasnorm_wordpool_576.txt	LTP361	ltpFR2	11	10	LIVER	833	n/a	n/a	0	0	0
2940913	WORD	wordpools/wasnorm_wordpool_576.txt	LTP361	ltpFR2	11	10	JAPAN	749	n/a	n/a	0	0	0
2943629	WORD	wordpools/wasnorm_wordpool_576.txt	LTP361	ltpFR2	11	10	GUARD	667	n/a	n/a	0	0	0
2946127	WORD	wordpools/wasnorm_wordpool_576.txt	LTP361	ltpFR2	11	10	YACHT	1629	n/a	n/a	0	0	0
2948743	WORD	wordpools/wasnorm_wordpool_576.txt	LTP361	ltpFR2	11	10	PARTNER	1017	n/a	n/a	0	0	0
2950359	START	n/a	LTP361	ltpFR2	11	n/a	n/a	n/a	13	n/a	n/a	n/a	n/a
2951503	DISTRACTOR	n/a	LTP361	ltpFR2	11	10	n/a	n/a	n/a	n/a	0	0	0
2951508	PROB	n/a	LTP361	ltpFR2	11	n/a	n/a	n/a	13	25	8	8	9
2953774	PROB	n/a	LTP361	ltpFR2	11	n/a	n/a	n/a	13	18	5	4	9
2956123	PROB	n/a	LTP361	ltpFR2	11	n/a	n/a	n/a	13	16	3	9	4
2958222	PROB	n/a	LTP361	ltpFR2	11	n/a	n/a	n/a	13	23	8	8	7
2959971	PROB	n/a	LTP361	ltpFR2	11	n/a	n/a	n/a	13	21	5	8	8
2961704	PROB	n/a	LTP361	ltpFR2	11	n/a	n/a	n/a	13	14	4	5	5
2963087	PROB	n/a	LTP361	ltpFR2	11	n/a	n/a	n/a	13	17	4	7	6
2965019	PROB	n/a	LTP361	ltpFR2	11	n/a	n/a	n/a	13	20	9	2	9
2967035	PROB	n/a	LTP361	ltpFR2	11	n/a	n/a	n/a	13	19	8	8	3
2970150	PROB	n/a	LTP361	ltpFR2	11	n/a	n/a	n/a	13	19	6	9	4
2972032	PROB	n/a	LTP361	ltpFR2	11	n/a	n/a	n/a	13	12	8	1	3
2973202	STOP	n/a	LTP361	ltpFR2	11	n/a	n/a	n/a	13	n/a	n/a	n/a	n/a
2976132	REC_START	n/a	LTP361	ltpFR2	11	10	n/a	n/a	n/a	n/a	0	0	0
2979907	REC_WORD	wordpools/wasnorm_wordpool_576.txt	LTP361	ltpFR2	11	10	JAPAN	749	n/a	n/a	0	0	0
2981294	REC_WORD	wordpools/wasnorm_wordpool_576.txt	LTP361	ltpFR2	11	10	ASIA	46	n/a	n/a	0	0	0
2982307	REC_WORD	wordpools/wasnorm_wordpool_576.txt	LTP361	ltpFR2	11	10	LONDON	843	n/a	n/a	0	0	0
2986538	REC_WORD	wordpools/wasnorm_wordpool_576.txt	LTP361	ltpFR2	11	10	PILOT	1070	n/a	n/a	0	0	0
2988027	REC_WORD	wordpools/wasnorm_wordpool_576.txt	LTP361	ltpFR2	11	10	LIVER	833	n/a	n/a	0	0	0
2989014	REC_WORD	wordpools/wasnorm_wordpool_576.txt	LTP361	ltpFR2	11	10	FINGER	567	n/a	n/a	0	0	0
2990018	REC_WORD	wordpools/wasnorm_wordpool_576.txt	LTP361	ltpFR2	11	10	WRIST	1626	n/a	n/a	0	0	0
2990854	REC_WORD	wordpools/wasnorm_wordpool_576.txt	LTP361	ltpFR2	11	10	COCKTAIL	338	n/a	n/a	0	0	0
2992395	REC_WORD	wordpools/wasnorm_wordpool_576.txt	LTP361	ltpFR2	11	10	GUARD	667	n/a	n/a	0	0	0
2993565	REC_WORD	wordpools/wasnorm_wordpool_576.txt	LTP361	ltpFR2	11	10	PARTNER	1017	n/a	n/a	0	0	0
3027991	REC_WORD	wordpools/wasnorm_wordpool_576.txt	LTP361	ltpFR2	11	10	POWDER	1117	n/a	n/a	0	0	0
3029954	REC_WORD	wordpools/wasnorm_wordpool_576.txt	LTP361	ltpFR2	11	10	BEAVER	109	n/a	n/a	0	0	0
3030996	REC_WORD	wordpools/wasnorm_wordpool_576.txt	LTP361	ltpFR2	11	10	LEADER	807	n/a	n/a	0	0	0
3032486	REC_WORD	wordpools/wasnorm_wordpool_576.txt	LTP361	ltpFR2	11	10	TRUCK	1512	n/a	n/a	0	0	0
3033313	REC_WORD	wordpools/wasnorm_wordpool_576.txt	LTP361	ltpFR2	11	10	CHAUFFEUR	283	n/a	n/a	0	0	0
3034761	REC_WORD	wordpools/wasnorm_wordpool_576.txt	LTP361	ltpFR2	11	10	LACE	792	n/a	n/a	0	0	0
3042577	REC_WORD	wordpools/wasnorm_wordpool_576.txt	LTP361	ltpFR2	11	10	STALLION	1369	n/a	n/a	0	0	0
3043718	REC_WORD	wordpools/wasnorm_wordpool_576.txt	LTP361	ltpFR2	11	10	PADDLE	1000	n/a	n/a	0	0	0
3046735	REC_WORD	wordpools/wasnorm_wordpool_576.txt	LTP361	ltpFR2	11	10	PEDAL	1037	n/a	n/a	0	0	0
3049616	REC_WORD	wordpools/wasnorm_wordpool_576.txt	LTP361	ltpFR2	11	10	RATTLE	1170	n/a	n/a	0	0	0
3066556	DISTRACTOR	n/a	LTP361	ltpFR2	11	11	n/a	n/a	n/a	n/a	0	0	0
3066556	START	n/a	LTP361	ltpFR2	11	n/a	n/a	n/a	14	n/a	n/a	n/a	n/a
3066573	PROB	n/a	LTP361	ltpFR2	11	n/a	n/a	n/a	14	18	9	3	6
3068772	PROB	n/a	LTP361	ltpFR2	11	n/a	n/a	n/a	14	12	5	4	3
3071021	PROB	n/a	LTP361	ltpFR2	11	n/a	n/a	n/a	14	17	4	7	6
3072570	PROB	n/a	LTP361	ltpFR2	11	n/a	n/a	n/a	14	16	2	8	6
3073835	PROB	n/a	LTP361	ltpFR2	11	n/a	n/a	n/a	14	18	8	6	4
3075069	PROB	n/a	LTP361	ltpFR2	11	n/a	n/a	n/a	14	12	5	1	6
3077285	PROB	n/a	LTP361	ltpFR2	11	n/a	n/a	n/a	14	18	8	8	2
3079034	PROB	n/a	LTP361	ltpFR2	11	n/a	n/a	n/a	14	15	1	5	9
3080416	PROB	n/a	LTP361	ltpFR2	11	n/a	n/a	n/a	14	16	9	3	4
3081832	PROB	n/a	LTP361	ltpFR2	11	n/a	n/a	n/a	14	18	5	5	8
3083199	PROB	n/a	LTP361	ltpFR2	11	n/a	n/a	n/a	14	17	8	7	2
3084531	PROB	n/a	LTP361	ltpFR2	11	n/a	n/a	n/a	14	20	4	7	9
3086947	PROB	n/a	LTP361	ltpFR2	11	n/a	n/a	n/a	14	16	9	4	3
3088230	PROB	n/a	LTP361	ltpFR2	11	n/a	n/a	n/a	14	23	7	8	8
3090077	STOP	n/a	LTP361	ltpFR2	11	n/a	n/a	n/a	14	n/a	n/a	n/a	n/a
3091378	WORD	wordpools/wasnorm_wordpool_576.txt	LTP361	ltpFR2	11	11	OZONE	996	n/a	n/a	0	0	0
3093809	WORD	wordpools/wasnorm_wordpool_576.txt	LTP361	ltpFR2	11	11	RACKET	1155	n/a	n/a	0	0	0
3096542	WORD	wordpools/wasnorm_wordpool_576.txt	LTP361	ltpFR2	11	11	PRINCE	1124	n/a	n/a	0	0	0
3099125	WORD	wordpools/wasnorm_wordpool_576.txt	LTP361	ltpFR2	11	11	PALACE	1006	n/a	n/a	0	0	0
3101856	WORD	wordpools/wasnorm_wordpool_576.txt	LTP361	ltpFR2	11	11	FLESH	579	n/a	n/a	0	0	0
3104555	WORD	wordpools/wasnorm_wordpool_576.txt	LTP361	ltpFR2	11	11	TEACHER	1440	n/a	n/a	0	0	0
3107221	WORD	wordpools/wasnorm_wordpool_576.txt	LTP361	ltpFR2	11	11	WIFE	1609	n/a	n/a	0	0	0
3110020	WORD	wordpools/wasnorm_wordpool_576.txt	LTP361	ltpFR2	11	11	JEANS	752	n/a	n/a	0	0	0
3112768	WORD	wordpools/wasnorm_wordpool_576.txt	LTP361	ltpFR2	11	11	EYELASH	546	n/a	n/a	0	0	0
3115201	WORD	wordpools/wasnorm_wordpool_576.txt	LTP361	ltpFR2	11	11	ICING	732	n/a	n/a	0	0	0
3118016	WORD	wordpools/wasnorm_wordpool_576.txt	LTP361	ltpFR2	11	11	PAPER	1011	n/a	n/a	0	0	0
3120532	WORD	wordpools/wasnorm_wordpool_576.txt	LTP361	ltpFR2	11	11	GRIZZLY	662	n/a	n/a	0	0	0
3123047	WORD	wordpools/wasnorm_wordpool_576.txt	LTP361	ltpFR2	11	11	STUDENT	1395	n/a	n/a	0	0	0
3125746	WORD	wordpools/wasnorm_wordpool_576.txt	LTP361	ltpFR2	11	11	PROTON	1132	n/a	n/a	0	0	0
3128461	WORD	wordpools/wasnorm_wordpool_576.txt	LTP361	ltpFR2	11	11	SCRIBBLE	1256	n/a	n/a	0	0	0
3131060	WORD	wordpools/wasnorm_wordpool_576.txt	LTP361	ltpFR2	11	11	SCISSORS	1250	n/a	n/a	0	0	0
3133609	WORD	wordpools/wasnorm_wordpool_576.txt	LTP361	ltpFR2	11	11	FOOTBALL	591	n/a	n/a	0	0	0
3136291	WORD	wordpools/wasnorm_wordpool_576.txt	LTP361	ltpFR2	11	11	PADDING	999	n/a	n/a	0	0	0
3138873	WORD	wordpools/wasnorm_wordpool_576.txt	LTP361	ltpFR2	11	11	ITEM	746	n/a	n/a	0	0	0
3141672	WORD	wordpools/wasnorm_wordpool_576.txt	LTP361	ltpFR2	11	11	CUPBOARD	425	n/a	n/a	0	0	0
3144421	WORD	wordpools/wasnorm_wordpool_576.txt	LTP361	ltpFR2	11	11	SWITCH	1422	n/a	n/a	0	0	0
3147053	WORD	wordpools/wasnorm_wordpool_576.txt	LTP361	ltpFR2	11	11	HUSBAND	728	n/a	n/a	0	0	0
3149652	WORD	wordpools/wasnorm_wordpool_576.txt	LTP361	ltpFR2	11	11	SPOUSE	1358	n/a	n/a	0	0	0
3152101	WORD	wordpools/wasnorm_wordpool_576.txt	LTP361	ltpFR2	11	11	SHERIFF	1284	n/a	n/a	0	0	0
3153717	START	n/a	LTP361	ltpFR2	11	n/a	n/a	n/a	15	n/a	n/a	n/a	n/a
3154908	DISTRACTOR	n/a	LTP361	ltpFR2	11	11	n/a	n/a	n/a	n/a	0	0	0
3154916	PROB	n/a	LTP361	ltpFR2	11	n/a	n/a	n/a	15	13	7	1	5
3156782	PROB	n/a	LTP361	ltpFR2	11	n/a	n/a	n/a	15	12	2	4	6
3158064	PROB	n/a	LTP361	ltpFR2	11	n/a	n/a	n/a	15	13	7	5	1
3159331	PROB	n/a	LTP361	ltpFR2	11	n/a	n/a	n/a	15	18	5	4	9
3160846	PROB	n/a	LTP361	ltpFR2	11	n/a	n/a	n/a	15	14	6	2	6
3162446	PROB	n/a	LTP361	ltpFR2	11	n/a	n/a	n/a	15	15	2	8	5
3164162	PROB	n/a	LTP361	ltpFR2	11	n/a	n/a	n/a	15	13	1	9	3
3165411	PROB	n/a	LTP361	ltpFR2	11	n/a	n/a	n/a	15	16	1	9	6
3167110	PROB	n/a	LTP361	ltpFR2	11	n/a	n/a	n/a	15	16	6	2	8
3168560	PROB	n/a	LTP361	ltpFR2	11	n/a	n/a	n/a	15	18	9	3	6
3169976	PROB	n/a	LTP361	ltpFR2	11	n/a	n/a	n/a	15	16	3	8	5
3171857	PROB	n/a	LTP361	ltpFR2	11	n/a	n/a	n/a	15	18	8	4	6
3173091	PROB	n/a	LTP361	ltpFR2	11	n/a	n/a	n/a	15	23	7	6	9
3175423	PROB	n/a	LTP361	ltpFR2	11	n/a	n/a	n/a	15	23	9	7	7
3177640	STOP	n/a	LTP361	ltpFR2	11	n/a	n/a	n/a	15	n/a	n/a	n/a	n/a
3179588	REC_START	n/a	LTP361	ltpFR2	11	11	n/a	n/a	n/a	n/a	0	0	0
3180363	REC_WORD	wordpools/wasnorm_wordpool_576.txt	LTP361	ltpFR2	11	11	SHERIFF	1284	n/a	n/a	0	0	0
3182126	REC_WORD	wordpools/wasnorm_wordpool_576.txt	LTP361	ltpFR2	11	11	SPOUSE	1358	n/a	n/a	0	0	0
3183026	REC_WORD	wordpools/wasnorm_wordpool_576.txt	LTP361	ltpFR2	11	11	HUSBAND	728	n/a	n/a	0	0	0
3184561	REC_WORD	wordpools/wasnorm_wordpool_576.txt	LTP361	ltpFR2	11	11	WIFE	1609	n/a	n/a	0	0	0
3185373	REC_WORD	wordpools/wasnorm_wordpool_576.txt	LTP361	ltpFR2	11	11	TEACHER	1440	n/a	n/a	0	0	0
3186616	REC_WORD	wordpools/wasnorm_wordpool_576.txt	LTP361	ltpFR2	11	11	JEANS	752	n/a	n/a	0	0	0
3188347	REC_WORD	wordpools/wasnorm_wordpool_576.txt	LTP361	ltpFR2	11	11	PRINCE	1124	n/a	n/a	0	0	0
3189103	REC_WORD	wordpools/wasnorm_wordpool_576.txt	LTP361	ltpFR2	11	11	RACKET	1155	n/a	n/a	0	0	0
3189815	REC_WORD	wordpools/wasnorm_wordpool_576.txt	LTP361	ltpFR2	11	11	FLESH	579	n/a	n/a	0	0	0
3190898	REC_WORD	wordpools/wasnorm_wordpool_576.txt	LTP361	ltpFR2	11	11	OZONE	996	n/a	n/a	0	0	0
3192471	REC_WORD	wordpools/wasnorm_wordpool_576.txt	LTP361	ltpFR2	11	11	PALACE	1006	n/a	n/a	0	0	0
3200042	REC_WORD	wordpools/wasnorm_wordpool_576.txt	LTP361	ltpFR2	11	11	STUDENT	1395	n/a	n/a	0	0	0
3202166	REC_WORD	wordpools/wasnorm_wordpool_576.txt	LTP361	ltpFR2	11	11	PROTON	1132	n/a	n/a	0	0	0
3204151	REC_WORD	wordpools/wasnorm_wordpool_576.txt	LTP361	ltpFR2	11	11	PAPER	1011	n/a	n/a	0	0	0
3204886	REC_WORD	wordpools/wasnorm_wordpool_576.txt	LTP361	ltpFR2	11	11	GRIZZLY	662	n/a	n/a	0	0	0
3206353	REC_WORD	wordpools/wasnorm_wordpool_576.txt	LTP361	ltpFR2	11	11	CUPBOARD	425	n/a	n/a	0	0	0
3207094	REC_WORD	wordpools/wasnorm_wordpool_576.txt	LTP361	ltpFR2	11	11	PADDING	999	n/a	n/a	0	0	0
3207841	REC_WORD	wordpools/wasnorm_wordpool_576.txt	LTP361	ltpFR2	11	11	SWITCH	1422	n/a	n/a	0	0	0
3211447	REC_WORD	wordpools/wasnorm_wordpool_576.txt	LTP361	ltpFR2	11	11	ITEM	746	n/a	n/a	0	0	0
3221519	REC_WORD	wordpools/wasnorm_wordpool_576.txt	LTP361	ltpFR2	11	11	SCRIBBLE	1256	n/a	n/a	0	0	0
3222838	REC_WORD	wordpools/wasnorm_wordpool_576.txt	LTP361	ltpFR2	11	11	SCISSORS	1250	n/a	n/a	0	0	0
3223956	REC_WORD	wordpools/wasnorm_wordpool_576.txt	LTP361	ltpFR2	11	11	FOOTBALL	591	n/a	n/a	0	0	0
3270014	DISTRACTOR	n/a	LTP361	ltpFR2	11	12	n/a	n/a	n/a	n/a	0	0	0
3270014	START	n/a	LTP361	ltpFR2	11	n/a	n/a	n/a	16	n/a	n/a	n/a	n/a
3270030	PROB	n/a	LTP361	ltpFR2	11	n/a	n/a	n/a	16	13	7	4	2
3271812	PROB	n/a	LTP361	ltpFR2	11	n/a	n/a	n/a	16	15	9	4	2
3273512	PROB	n/a	LTP361	ltpFR2	11	n/a	n/a	n/a	16	15	1	7	7
3274612	PROB	n/a	LTP361	ltpFR2	11	n/a	n/a	n/a	16	16	1	8	7
3275810	PROB	n/a	LTP361	ltpFR2	11	n/a	n/a	n/a	16	13	7	2	4
3277510	PROB	n/a	LTP361	ltpFR2	11	n/a	n/a	n/a	16	6	3	1	2
3278526	PROB	n/a	LTP361	ltpFR2	11	n/a	n/a	n/a	16	16	3	4	9
3280092	PROB	n/a	LTP361	ltpFR2	11	n/a	n/a	n/a	16	20	4	7	9
3282358	PROB	n/a	LTP361	ltpFR2	11	n/a	n/a	n/a	16	10	6	3	1
3283823	PROB	n/a	LTP361	ltpFR2	11	n/a	n/a	n/a	16	11	3	2	6
3285373	PROB	n/a	LTP361	ltpFR2	11	n/a	n/a	n/a	16	25	7	9	9
3287555	PROB	n/a	LTP361	ltpFR2	11	n/a	n/a	n/a	16	15	3	7	5
3290254	PROB	n/a	LTP361	ltpFR2	11	n/a	n/a	n/a	16	12	2	4	6
3291570	PROB	n/a	LTP361	ltpFR2	11	n/a	n/a	n/a	16	16	9	4	3
3293115	STOP	n/a	LTP361	ltpFR2	11	n/a	n/a	n/a	16	n/a	n/a	n/a	n/a
3294869	WORD	wordpools/wasnorm_wordpool_576.txt	LTP361	ltpFR2	11	12	RELISH	1183	n/a	n/a	0	0	0
3297384	WORD	wordpools/wasnorm_wordpool_576.txt	LTP361	ltpFR2	11	12	STOMACH	1384	n/a	n/a	0	0	0
3300117	WORD	wordpools/wasnorm_wordpool_576.txt	LTP361	ltpFR2	11	12	BELLY	119	n/a	n/a	0	0	0
3302615	WORD	wordpools/wasnorm_wordpool_576.txt	LTP361	ltpFR2	11	12	ROOSTER	1209	n/a	n/a	0	0	0
3305431	WORD	wordpools/wasnorm_wordpool_576.txt	LTP361	ltpFR2	11	12	SHOVEL	1295	n/a	n/a	0	0	0
3308246	WORD	wordpools/wasnorm_wordpool_576.txt	LTP361	ltpFR2	11	12	DOUGHNUT	490	n/a	n/a	0	0	0
3310794	WORD	wordpools/wasnorm_wordpool_576.txt	LTP361	ltpFR2	11	12	BACKBONE	66	n/a	n/a	0	0	0
3313227	WORD	wordpools/wasnorm_wordpool_576.txt	LTP361	ltpFR2	11	12	CHEST	295	n/a	n/a	0	0	0
3315808	WORD	wordpools/wasnorm_wordpool_576.txt	LTP361	ltpFR2	11	12	LODGE	839	n/a	n/a	0	0	0
3318525	WORD	wordpools/wasnorm_wordpool_576.txt	LTP361	ltpFR2	11	12	DORM	488	n/a	n/a	0	0	0
3320990	WORD	wordpools/wasnorm_wordpool_576.txt	LTP361	ltpFR2	11	12	VIRUS	1572	n/a	n/a	0	0	0
3323456	WORD	wordpools/wasnorm_wordpool_576.txt	LTP361	ltpFR2	11	12	ROBBER	1197	n/a	n/a	0	0	0
3326221	WORD	wordpools/wasnorm_wordpool_576.txt	LTP361	ltpFR2	11	12	LIGHTNING	820	n/a	n/a	0	0	0
3329003	WORD	wordpools/wasnorm_wordpool_576.txt	LTP361	ltpFR2	11	12	REBEL	1172	n/a	n/a	0	0	0
3331785	WORD	wordpools/wasnorm_wordpool_576.txt	LTP361	ltpFR2	11	12	UMPIRE	1535	n/a	n/a	0	0	0
3334217	WORD	wordpools/wasnorm_wordpool_576.txt	LTP361	ltpFR2	11	12	STICKER	1382	n/a	n/a	0	0	0
3336733	WORD	wordpools/wasnorm_wordpool_576.txt	LTP361	ltpFR2	11	12	TREAT	1501	n/a	n/a	0	0	0
3339215	WORD	wordpools/wasnorm_wordpool_576.txt	LTP361	ltpFR2	11	12	PUPPY	1144	n/a	n/a	0	0	0
3341964	WORD	wordpools/wasnorm_wordpool_576.txt	LTP361	ltpFR2	11	12	CLOUD	328	n/a	n/a	0	0	0
3344446	WORD	wordpools/wasnorm_wordpool_576.txt	LTP361	ltpFR2	11	12	CROWN	415	n/a	n/a	0	0	0
3347028	WORD	wordpools/wasnorm_wordpool_576.txt	LTP361	ltpFR2	11	12	PACKAGE	997	n/a	n/a	0	0	0
3349477	WORD	wordpools/wasnorm_wordpool_576.txt	LTP361	ltpFR2	11	12	CANDY	230	n/a	n/a	0	0	0
3351943	WORD	wordpools/wasnorm_wordpool_576.txt	LTP361	ltpFR2	11	12	CURTAIN	427	n/a	n/a	0	0	0
3354608	WORD	wordpools/wasnorm_wordpool_576.txt	LTP361	ltpFR2	11	12	MARKER	870	n/a	n/a	0	0	0
3356224	START	n/a	LTP361	ltpFR2	11	n/a	n/a	n/a	17	n/a	n/a	n/a	n/a
3357084	DISTRACTOR	n/a	LTP361	ltpFR2	11	12	n/a	n/a	n/a	n/a	0	0	0
3357090	PROB	n/a	LTP361	ltpFR2	11	n/a	n/a	n/a	17	8	1	5	2
3359006	PROB	n/a	LTP361	ltpFR2	11	n/a	n/a	n/a	17	12	6	5	1
3360655	PROB	n/a	LTP361	ltpFR2	11	n/a	n/a	n/a	17	19	8	7	4
3362788	PROB	n/a	LTP361	ltpFR2	11	n/a	n/a	n/a	17	13	6	2	5
3364304	PROB	n/a	LTP361	ltpFR2	11	n/a	n/a	n/a	17	19	5	8	6
3366020	PROB	n/a	LTP361	ltpFR2	11	n/a	n/a	n/a	17	19	7	5	7
3368252	PROB	n/a	LTP361	ltpFR2	11	n/a	n/a	n/a	17	9	1	6	2
3369935	PROB	n/a	LTP361	ltpFR2	11	n/a	n/a	n/a	17	22	4	9	9
3371300	PROB	n/a	LTP361	ltpFR2	11	n/a	n/a	n/a	17	21	4	9	8
3374199	PROB	n/a	LTP361	ltpFR2	11	n/a	n/a	n/a	17	19	9	7	3
3375982	PROB	n/a	LTP361	ltpFR2	11	n/a	n/a	n/a	17	16	8	6	2
3377265	PROB	n/a	LTP361	ltpFR2	11	n/a	n/a	n/a	17	14	4	4	6
3378796	STOP	n/a	LTP361	ltpFR2	11	n/a	n/a	n/a	17	n/a	n/a	n/a	n/a
3382146	REC_START	n/a	LTP361	ltpFR2	11	12	n/a	n/a	n/a	n/a	0	0	0
3383670	REC_WORD	wordpools/wasnorm_wordpool_576.txt	LTP361	ltpFR2	11	12	LODGE	839	n/a	n/a	0	0	0
3384863	REC_WORD	wordpools/wasnorm_wordpool_576.txt	LTP361	ltpFR2	11	12	DORM	488	n/a	n/a	0	0	0
3386318	REC_WORD	wordpools/wasnorm_wordpool_576.txt	LTP361	ltpFR2	11	12	CHEST	295	n/a	n/a	0	0	0
3388112	REC_WORD	wordpools/wasnorm_wordpool_576.txt	LTP361	ltpFR2	11	12	STOMACH	1384	n/a	n/a	0	0	0
3389534	REC_WORD	wordpools/wasnorm_wordpool_576.txt	LTP361	ltpFR2	11	12	RELISH	1183	n/a	n/a	0	0	0
3390625	REC_WORD	wordpools/wasnorm_wordpool_576.txt	LTP361	ltpFR2	11	12	BELLY	119	n/a	n/a	0	0	0
3393995	REC_WORD	wordpools/wasnorm_wordpool_576.txt	LTP361	ltpFR2	11	12	SHOVEL	1295	n/a	n/a	0	0	0
3395425	REC_WORD	wordpools/wasnorm_wordpool_576.txt	LTP361	ltpFR2	11	12	DOUGHNUT	490	n/a	n/a	0	0	0
3402542	REC_WORD	wordpools/wasnorm_wordpool_576.txt	LTP361	ltpFR2	11	12	LODGE	839	n/a	n/a	0	0	0
3403226	REC_WORD	wordpools/wasnorm_wordpool_576.txt	LTP361	ltpFR2	11	12	DORM	488	n/a	n/a	0	0	0
3405383	REC_WORD	wordpools/wasnorm_wordpool_576.txt	LTP361	ltpFR2	11	12	REBEL	1172	n/a	n/a	0	0	0
3406893	REC_WORD	wordpools/wasnorm_wordpool_576.txt	LTP361	ltpFR2	11	12	LIGHTNING	820	n/a	n/a	0	0	0
3407781	REC_WORD	wordpools/wasnorm_wordpool_576.txt	LTP361	ltpFR2	11	12	ROBBER	1197	n/a	n/a	0	0	0
3408586	REC_WORD	wordpools/wasnorm_wordpool_576.txt	LTP361	ltpFR2	11	12	VIRUS	1572	n/a	n/a	0	0	0
3410146	REC_WORD	wordpools/wasnorm_wordpool_576.txt	LTP361	ltpFR2	11	12	PUPPY	1144	n/a	n/a	0	0	0
3411003	REC_WORD	wordpools/wasnorm_wordpool_576.txt	LTP361	ltpFR2	11	12	CLOUD	328	n/a	n/a	0	0	0
3411916	REC_WORD	wordpools/wasnorm_wordpool_576.txt	LTP361	ltpFR2	11	12	CROWN	415	n/a	n/a	0	0	0
3412626	REC_WORD	wordpools/wasnorm_wordpool_576.txt	LTP361	ltpFR2	11	12	PACKAGE	997	n/a	n/a	0	0	0
3414120	REC_WORD	wordpools/wasnorm_wordpool_576.txt	LTP361	ltpFR2	11	12	UMPIRE	1535	n/a	n/a	0	0	0
3414825	REC_WORD	wordpools/wasnorm_wordpool_576.txt	LTP361	ltpFR2	11	12	STICKER	1382	n/a	n/a	0	0	0
3416555	REC_WORD	wordpools/wasnorm_wordpool_576.txt	LTP361	ltpFR2	11	12	TREAT	1501	n/a	n/a	0	0	0
3417208	REC_WORD	wordpools/wasnorm_wordpool_576.txt	LTP361	ltpFR2	11	12	CANDY	230	n/a	n/a	0	0	0
3444726	REC_WORD	wordpools/wasnorm_wordpool_576.txt	LTP361	ltpFR2	11	12	CLOUD	328	n/a	n/a	0	0	0
3472588	DISTRACTOR	n/a	LTP361	ltpFR2	11	13	n/a	n/a	n/a	n/a	0	0	0
3472588	START	n/a	LTP361	ltpFR2	11	n/a	n/a	n/a	18	n/a	n/a	n/a	n/a
3472604	PROB	n/a	LTP361	ltpFR2	11	n/a	n/a	n/a	18	13	4	2	7
3475436	PROB	n/a	LTP361	ltpFR2	11	n/a	n/a	n/a	18	9	1	5	3
3476936	PROB	n/a	LTP361	ltpFR2	11	n/a	n/a	n/a	18	5	1	3	1
3478035	PROB	n/a	LTP361	ltpFR2	11	n/a	n/a	n/a	18	16	6	6	4
3479518	PROB	n/a	LTP361	ltpFR2	11	n/a	n/a	n/a	18	15	5	8	2
3480867	PROB	n/a	LTP361	ltpFR2	11	n/a	n/a	n/a	18	16	3	7	6
3482333	PROB	n/a	LTP361	ltpFR2	11	n/a	n/a	n/a	18	17	8	4	5
3484066	PROB	n/a	LTP361	ltpFR2	11	n/a	n/a	n/a	18	16	3	9	4
3485365	PROB	n/a	LTP361	ltpFR2	11	n/a	n/a	n/a	18	22	7	6	9
3487281	PROB	n/a	LTP361	ltpFR2	11	n/a	n/a	n/a	18	15	4	6	5
3489180	PROB	n/a	LTP361	ltpFR2	11	n/a	n/a	n/a	18	16	6	7	3
3490363	PROB	n/a	LTP361	ltpFR2	11	n/a	n/a	n/a	18	21	9	3	9
3492062	PROB	n/a	LTP361	ltpFR2	11	n/a	n/a	n/a	18	16	6	3	7
3493711	PROB	n/a	LTP361	ltpFR2	11	n/a	n/a	n/a	18	12	1	8	3
3495241	STOP	n/a	LTP361	ltpFR2	11	n/a	n/a	n/a	18	n/a	n/a	n/a	n/a
3497643	WORD	wordpools/wasnorm_wordpool_576.txt	LTP361	ltpFR2	11	13	STOVE	1388	n/a	n/a	0	0	0
3500242	WORD	wordpools/wasnorm_wordpool_576.txt	LTP361	ltpFR2	11	13	SODA	1341	n/a	n/a	0	0	0
3502890	WORD	wordpools/wasnorm_wordpool_576.txt	LTP361	ltpFR2	11	13	JELLY	755	n/a	n/a	0	0	0
3505606	WORD	wordpools/wasnorm_wordpool_576.txt	LTP361	ltpFR2	11	13	ROCKET	1202	n/a	n/a	0	0	0
3508121	WORD	wordpools/wasnorm_wordpool_576.txt	LTP361	ltpFR2	11	13	KIDNEY	776	n/a	n/a	0	0	0
3510704	WORD	wordpools/wasnorm_wordpool_576.txt	LTP361	ltpFR2	11	13	CRITIC	410	n/a	n/a	0	0	0
3513402	WORD	wordpools/wasnorm_wordpool_576.txt	LTP361	ltpFR2	11	13	CHURCH	307	n/a	n/a	0	0	0
3515901	WORD	wordpools/wasnorm_wordpool_576.txt	LTP361	ltpFR2	11	13	CROSS	413	n/a	n/a	0	0	0
3518467	WORD	wordpools/wasnorm_wordpool_576.txt	LTP361	ltpFR2	11	13	STREAM	1392	n/a	n/a	0	0	0
3521032	WORD	wordpools/wasnorm_wordpool_576.txt	LTP361	ltpFR2	11	13	SCARF	1246	n/a	n/a	0	0	0
3523764	WORD	wordpools/wasnorm_wordpool_576.txt	LTP361	ltpFR2	11	13	PIZZA	1079	n/a	n/a	0	0	0
3526430	WORD	wordpools/wasnorm_wordpool_576.txt	LTP361	ltpFR2	11	13	GARLIC	624	n/a	n/a	0	0	0
3529212	WORD	wordpools/wasnorm_wordpool_576.txt	LTP361	ltpFR2	11	13	FREEZER	604	n/a	n/a	0	0	0
3531960	WORD	wordpools/wasnorm_wordpool_576.txt	LTP361	ltpFR2	11	13	COFFEE	341	n/a	n/a	0	0	0
3534459	WORD	wordpools/wasnorm_wordpool_576.txt	LTP361	ltpFR2	11	13	LEOPARD	812	n/a	n/a	0	0	0
3537275	WORD	wordpools/wasnorm_wordpool_576.txt	LTP361	ltpFR2	11	13	FLOWER	584	n/a	n/a	0	0	0
3539839	WORD	wordpools/wasnorm_wordpool_576.txt	LTP361	ltpFR2	11	13	RADISH	1158	n/a	n/a	0	0	0
3542372	WORD	wordpools/wasnorm_wordpool_576.txt	LTP361	ltpFR2	11	13	PASTRY	1022	n/a	n/a	0	0	0
3545105	WORD	wordpools/wasnorm_wordpool_576.txt	LTP361	ltpFR2	11	13	MISTER	901	n/a	n/a	0	0	0
3547770	WORD	wordpools/wasnorm_wordpool_576.txt	LTP361	ltpFR2	11	13	BUBBLE	183	n/a	n/a	0	0	0
3550269	WORD	wordpools/wasnorm_wordpool_576.txt	LTP361	ltpFR2	11	13	DAUGHTER	442	n/a	n/a	0	0	0
3552833	WORD	wordpools/wasnorm_wordpool_576.txt	LTP361	ltpFR2	11	13	FILM	565	n/a	n/a	0	0	0
3555466	WORD	wordpools/wasnorm_wordpool_576.txt	LTP361	ltpFR2	11	13	CRIB	407	n/a	n/a	0	0	0
3558115	WORD	wordpools/wasnorm_wordpool_576.txt	LTP361	ltpFR2	11	13	CHILD	299	n/a	n/a	0	0	0
3559731	START	n/a	LTP361	ltpFR2	11	n/a	n/a	n/a	19	n/a	n/a	n/a	n/a
3560801	DISTRACTOR	n/a	LTP361	ltpFR2	11	13	n/a	n/a	n/a	n/a	0	0	0
3560813	PROB	n/a	LTP361	ltpFR2	11	n/a	n/a	n/a	19	13	8	1	4
3562730	PROB	n/a	LTP361	ltpFR2	11	n/a	n/a	n/a	19	6	4	1	1
3563746	PROB	n/a	LTP361	ltpFR2	11	n/a	n/a	n/a	19	16	4	7	5
3565345	PROB	n/a	LTP361	ltpFR2	11	n/a	n/a	n/a	19	20	9	4	7
3567078	PROB	n/a	LTP361	ltpFR2	11	n/a	n/a	n/a	19	16	4	6	6
3568960	PROB	n/a	LTP361	ltpFR2	11	n/a	n/a	n/a	19	11	8	2	1
3571076	PROB	n/a	LTP361	ltpFR2	11	n/a	n/a	n/a	19	15	6	2	7
3572992	PROB	n/a	LTP361	ltpFR2	11	n/a	n/a	n/a	19	11	7	2	2
3574641	PROB	n/a	LTP361	ltpFR2	11	n/a	n/a	n/a	19	15	5	9	1
3576357	PROB	n/a	LTP361	ltpFR2	11	n/a	n/a	n/a	19	10	2	6	2
3577556	PROB	n/a	LTP361	ltpFR2	11	n/a	n/a	n/a	19	19	8	4	7
3579106	PROB	n/a	LTP361	ltpFR2	11	n/a	n/a	n/a	19	19	5	8	6
3580955	PROB	n/a	LTP361	ltpFR2	11	n/a	n/a	n/a	19	20	7	5	8
3583659	STOP	n/a	LTP361	ltpFR2	11	n/a	n/a	n/a	19	n/a	n/a	n/a	n/a
3585553	REC_START	n/a	LTP361	ltpFR2	11	13	n/a	n/a	n/a	n/a	0	0	0
3587745	REC_WORD_VV	wordpools/wasnorm_wordpool_576.txt	LTP361	ltpFR2	11	13	<>	-1	n/a	n/a	0	0	0
3587985	REC_WORD	wordpools/wasnorm_wordpool_576.txt	LTP361	ltpFR2	11	13	DAUGHTER	442	n/a	n/a	0	0	0
3589484	REC_WORD	wordpools/wasnorm_wordpool_576.txt	LTP361	ltpFR2	11	13	CRIB	407	n/a	n/a	0	0	0
3590442	REC_WORD	wordpools/wasnorm_wordpool_576.txt	LTP361	ltpFR2	11	13	CHILD	299	n/a	n/a	0	0	0
3592475	REC_WORD	wordpools/wasnorm_wordpool_576.txt	LTP361	ltpFR2	11	13	CROSS	413	n/a	n/a	0	0	0
3593855	REC_WORD	wordpools/wasnorm_wordpool_576.txt	LTP361	ltpFR2	11	13	CHURCH	307	n/a	n/a	0	0	0
3596323	REC_WORD	wordpools/wasnorm_wordpool_576.txt	LTP361	ltpFR2	11	13	ROCKET	1202	n/a	n/a	0	0	0
3597552	REC_WORD	wordpools/wasnorm_wordpool_576.txt	LTP361	ltpFR2	11	13	STOVE	1388	n/a	n/a	0	0	0
3599258	REC_WORD	wordpools/wasnorm_wordpool_576.txt	LTP361	ltpFR2	11	13	JELLY	755	n/a	n/a	0	0	0
3600382	REC_WORD	wordpools/wasnorm_wordpool_576.txt	LTP361	ltpFR2	11	13	SODA	1341	n/a	n/a	0	0	0
3601649	REC_WORD	wordpools/wasnorm_wordpool_576.txt	LTP361	ltpFR2	11	13	CRITIC	410	n/a	n/a	0	0	0
3603994	REC_WORD	wordpools/wasnorm_wordpool_576.txt	LTP361	ltpFR2	11	13	KIDNEY	776	n/a	n/a	0	0	0
3613156	REC_WORD	wordpools/wasnorm_wordpool_576.txt	LTP361	ltpFR2	11	13	LEOPARD	812	n/a	n/a	0	0	0
3614254	REC_WORD	wordpools/wasnorm_wordpool_576.txt	LTP361	ltpFR2	11	13	FREEZER	604	n/a	n/a	0	0	0
3615305	REC_WORD	wordpools/wasnorm_wordpool_576.txt	LTP361	ltpFR2	11	13	COFFEE	341	n/a	n/a	0	0	0
3617603	REC_WORD	wordpools/wasnorm_wordpool_576.txt	LTP361	ltpFR2	11	13	PIZZA	1079	n/a	n/a	0	0	0
3618633	REC_WORD	wordpools/wasnorm_wordpool_576.txt	LTP361	ltpFR2	11	13	GARLIC	624	n/a	n/a	0	0	0
3619685	REC_WORD	wordpools/wasnorm_wordpool_576.txt	LTP361	ltpFR2	11	13	STREAM	1392	n/a	n/a	0	0	0
3620795	REC_WORD	wordpools/wasnorm_wordpool_576.txt	LTP361	ltpFR2	11	13	SCARF	1246	n/a	n/a	0	0	0
3675978	DISTRACTOR	n/a	LTP361	ltpFR2	11	14	n/a	n/a	n/a	n/a	0	0	0
3675978	START	n/a	LTP361	ltpFR2	11	n/a	n/a	n/a	20	n/a	n/a	n/a	n/a
3675995	PROB	n/a	LTP361	ltpFR2	11	n/a	n/a	n/a	20	11	1	2	8
3678061	PROB	n/a	LTP361	ltpFR2	11	n/a	n/a	n/a	20	13	6	5	2
3679760	PROB	n/a	LTP361	ltpFR2	11	n/a	n/a	n/a	20	22	8	8	6
3681609	PROB	n/a	LTP361	ltpFR2	11	n/a	n/a	n/a	20	15	4	9	2
3683408	PROB	n/a	LTP361	ltpFR2	11	n/a	n/a	n/a	20	15	6	1	8
3684807	PROB	n/a	LTP361	ltpFR2	11	n/a	n/a	n/a	20	12	6	2	4
3686540	PROB	n/a	LTP361	ltpFR2	11	n/a	n/a	n/a	20	7	3	2	2
3688306	PROB	n/a	LTP361	ltpFR2	11	n/a	n/a	n/a	20	8	5	1	2
3689804	PROB	n/a	LTP361	ltpFR2	11	n/a	n/a	n/a	20	15	4	6	5
3691155	PROB	n/a	LTP361	ltpFR2	11	n/a	n/a	n/a	20	19	8	2	9
3692421	PROB	n/a	LTP361	ltpFR2	11	n/a	n/a	n/a	20	17	9	6	2
3694070	PROB	n/a	LTP361	ltpFR2	11	n/a	n/a	n/a	20	25	8	8	9
3695902	PROB	n/a	LTP361	ltpFR2	11	n/a	n/a	n/a	20	8	2	3	3
3697801	PROB	n/a	LTP361	ltpFR2	11	n/a	n/a	n/a	20	23	8	7	8
3699702	STOP	n/a	LTP361	ltpFR2	11	n/a	n/a	n/a	20	n/a	n/a	n/a	n/a
3700983	WORD	wordpools/wasnorm_wordpool_576.txt	LTP361	ltpFR2	11	14	WASP	1593	n/a	n/a	0	0	0
3703699	WORD	wordpools/wasnorm_wordpool_576.txt	LTP361	ltpFR2	11	14	MEAT	883	n/a	n/a	0	0	0
3706131	WORD	wordpools/wasnorm_wordpool_576.txt	LTP361	ltpFR2	11	14	SAUSAGE	1238	n/a	n/a	0	0	0
3708930	WORD	wordpools/wasnorm_wordpool_576.txt	LTP361	ltpFR2	11	14	COOKBOOK	373	n/a	n/a	0	0	0
3711579	WORD	wordpools/wasnorm_wordpool_576.txt	LTP361	ltpFR2	11	14	MATTRESS	879	n/a	n/a	0	0	0
3714311	WORD	wordpools/wasnorm_wordpool_576.txt	LTP361	ltpFR2	11	14	PERMIT	1051	n/a	n/a	0	0	0
3717043	WORD	wordpools/wasnorm_wordpool_576.txt	LTP361	ltpFR2	11	14	GOBLIN	645	n/a	n/a	0	0	0
3719492	WORD	wordpools/wasnorm_wordpool_576.txt	LTP361	ltpFR2	11	14	MARROW	872	n/a	n/a	0	0	0
3721974	WORD	wordpools/wasnorm_wordpool_576.txt	LTP361	ltpFR2	11	14	BURGLAR	200	n/a	n/a	0	0	0
3724456	WORD	wordpools/wasnorm_wordpool_576.txt	LTP361	ltpFR2	11	14	TUBA	1515	n/a	n/a	0	0	0
3727171	WORD	wordpools/wasnorm_wordpool_576.txt	LTP361	ltpFR2	11	14	TROUT	1511	n/a	n/a	0	0	0
3729720	WORD	wordpools/wasnorm_wordpool_576.txt	LTP361	ltpFR2	11	14	RABBIT	1152	n/a	n/a	0	0	0
3732286	WORD	wordpools/wasnorm_wordpool_576.txt	LTP361	ltpFR2	11	14	CARROT	249	n/a	n/a	0	0	0
3734951	WORD	wordpools/wasnorm_wordpool_576.txt	LTP361	ltpFR2	11	14	NOVEL	960	n/a	n/a	0	0	0
3737434	WORD	wordpools/wasnorm_wordpool_576.txt	LTP361	ltpFR2	11	14	DASHBOARD	441	n/a	n/a	0	0	0
3740132	WORD	wordpools/wasnorm_wordpool_576.txt	LTP361	ltpFR2	11	14	HORSE	719	n/a	n/a	0	0	0
3742764	WORD	wordpools/wasnorm_wordpool_576.txt	LTP361	ltpFR2	11	14	VICTIM	1562	n/a	n/a	0	0	0
3745530	WORD	wordpools/wasnorm_wordpool_576.txt	LTP361	ltpFR2	11	14	SUSPECT	1415	n/a	n/a	0	0	0
3748095	WORD	wordpools/wasnorm_wordpool_576.txt	LTP361	ltpFR2	11	14	COD	340	n/a	n/a	0	0	0
3750711	WORD	wordpools/wasnorm_wordpool_576.txt	LTP361	ltpFR2	11	14	FLIPPER	580	n/a	n/a	0	0	0
3753526	WORD	wordpools/wasnorm_wordpool_576.txt	LTP361	ltpFR2	11	14	TORTOISE	1486	n/a	n/a	0	0	0
3756158	WORD	wordpools/wasnorm_wordpool_576.txt	LTP361	ltpFR2	11	14	SEAFOOD	1260	n/a	n/a	0	0	0
3758806	WORD	wordpools/wasnorm_wordpool_576.txt	LTP361	ltpFR2	11	14	THIEF	1456	n/a	n/a	0	0	0
3761456	WORD	wordpools/wasnorm_wordpool_576.txt	LTP361	ltpFR2	11	14	LAGOON	795	n/a	n/a	0	0	0
3763072	START	n/a	LTP361	ltpFR2	11	n/a	n/a	n/a	21	n/a	n/a	n/a	n/a
3764013	DISTRACTOR	n/a	LTP361	ltpFR2	11	14	n/a	n/a	n/a	n/a	0	0	0
3764021	PROB	n/a	LTP361	ltpFR2	11	n/a	n/a	n/a	21	15	8	6	1
3766037	PROB	n/a	LTP361	ltpFR2	11	n/a	n/a	n/a	21	14	4	7	3
3767253	PROB	n/a	LTP361	ltpFR2	11	n/a	n/a	n/a	21	24	9	6	9
3769019	PROB	n/a	LTP361	ltpFR2	11	n/a	n/a	n/a	21	11	3	2	6
3771285	PROB	n/a	LTP361	ltpFR2	11	n/a	n/a	n/a	21	8	2	2	4
3772816	PROB	n/a	LTP361	ltpFR2	11	n/a	n/a	n/a	21	15	1	7	7
3775333	PROB	n/a	LTP361	ltpFR2	11	n/a	n/a	n/a	21	20	3	9	8
3777965	PROB	n/a	LTP361	ltpFR2	11	n/a	n/a	n/a	21	13	4	6	3
3779498	PROB	n/a	LTP361	ltpFR2	11	n/a	n/a	n/a	21	13	9	3	1
3781347	PROB	n/a	LTP361	ltpFR2	11	n/a	n/a	n/a	21	23	7	9	7
3783313	PROB	n/a	LTP361	ltpFR2	11	n/a	n/a	n/a	21	13	4	4	5
3784945	PROB	n/a	LTP361	ltpFR2	11	n/a	n/a	n/a	21	8	3	1	4
3786329	STOP	n/a	LTP361	ltpFR2	11	n/a	n/a	n/a	21	n/a	n/a	n/a	n/a
3788945	REC_START	n/a	LTP361	ltpFR2	11	14	n/a	n/a	n/a	n/a	0	0	0
3789875	REC_WORD	wordpools/wasnorm_wordpool_576.txt	LTP361	ltpFR2	11	14	THIEF	1456	n/a	n/a	0	0	0
3791798	REC_WORD	wordpools/wasnorm_wordpool_576.txt	LTP361	ltpFR2	11	14	TORTOISE	1486	n/a	n/a	0	0	0
3792616	REC_WORD	wordpools/wasnorm_wordpool_576.txt	LTP361	ltpFR2	11	14	SEAFOOD	1260	n/a	n/a	0	0	0
3830766	REC_WORD_VV	wordpools/wasnorm_wordpool_576.txt	LTP361	ltpFR2	11	14	<>	-1	n/a	n/a	0	0	0
3831006	REC_WORD	wordpools/wasnorm_wordpool_576.txt	LTP361	ltpFR2	11	14	WASP	1593	n/a	n/a	0	0	0
3831992	REC_WORD	wordpools/wasnorm_wordpool_576.txt	LTP361	ltpFR2	11	14	MEAT	883	n/a	n/a	0	0	0
3832670	REC_WORD	wordpools/wasnorm_wordpool_576.txt	LTP361	ltpFR2	11	14	SAUSAGE	1238	n/a	n/a	0	0	0
3834587	REC_WORD	wordpools/wasnorm_wordpool_576.txt	LTP361	ltpFR2	11	14	COOKBOOK	373	n/a	n/a	0	0	0
3836577	REC_WORD	wordpools/wasnorm_wordpool_576.txt	LTP361	ltpFR2	11	14	GOBLIN	645	n/a	n/a	0	0	0
3838724	REC_WORD	wordpools/wasnorm_wordpool_576.txt	LTP361	ltpFR2	11	14	PERMIT	1051	n/a	n/a	0	0	0
3840521	REC_WORD	wordpools/wasnorm_wordpool_576.txt	LTP361	ltpFR2	11	14	MATTRESS	879	n/a	n/a	0	0	0
3962381	WORD	wordpools/wasnorm_wordpool_576.txt	LTP361	ltpFR2	11	15	FLASK	576	n/a	n/a	0	0	0
3965196	WORD	wordpools/wasnorm_wordpool_576.txt	LTP361	ltpFR2	11	15	KETCHUP	771	n/a	n/a	0	0	0
3967945	WORD	wordpools/wasnorm_wordpool_576.txt	LTP361	ltpFR2	11	15	OFFICE	972	n/a	n/a	0	0	0
3970710	WORD	wordpools/wasnorm_wordpool_576.txt	LTP361	ltpFR2	11	15	YOLK	1633	n/a	n/a	0	0	0
3973342	WORD	wordpools/wasnorm_wordpool_576.txt	LTP361	ltpFR2	11	15	SKILLET	1317	n/a	n/a	0	0	0
3976008	WORD	wordpools/wasnorm_wordpool_576.txt	LTP361	ltpFR2	11	15	DENIM	446	n/a	n/a	0	0	0
3978507	WORD	wordpools/wasnorm_wordpool_576.txt	LTP361	ltpFR2	11	15	HELMET	702	n/a	n/a	0	0	0
3981272	WORD	wordpools/wasnorm_wordpool_576.txt	LTP361	ltpFR2	11	15	VENUS	1557	n/a	n/a	0	0	0
3983704	WORD	wordpools/wasnorm_wordpool_576.txt	LTP361	ltpFR2	11	15	RUG	1215	n/a	n/a	0	0	0
3986153	WORD	wordpools/wasnorm_wordpool_576.txt	LTP361	ltpFR2	11	15	GLOVE	642	n/a	n/a	0	0	0
3988652	WORD	wordpools/wasnorm_wordpool_576.txt	LTP361	ltpFR2	11	15	GLOBE	641	n/a	n/a	0	0	0
3991268	WORD	wordpools/wasnorm_wordpool_576.txt	LTP361	ltpFR2	11	15	GIRL	637	n/a	n/a	0	0	0
3994066	WORD	wordpools/wasnorm_wordpool_576.txt	LTP361	ltpFR2	11	15	CASHIER	254	n/a	n/a	0	0	0
3996499	WORD	wordpools/wasnorm_wordpool_576.txt	LTP361	ltpFR2	11	15	PLAZA	1088	n/a	n/a	0	0	0
3999081	WORD	wordpools/wasnorm_wordpool_576.txt	LTP361	ltpFR2	11	15	COOK	372	n/a	n/a	0	0	0
4001596	WORD	wordpools/wasnorm_wordpool_576.txt	LTP361	ltpFR2	11	15	CHEMIST	292	n/a	n/a	0	0	0
4004212	WORD	wordpools/wasnorm_wordpool_576.txt	LTP361	ltpFR2	11	15	BOYFRIEND	162	n/a	n/a	0	0	0
4006793	WORD	wordpools/wasnorm_wordpool_576.txt	LTP361	ltpFR2	11	15	HORNET	718	n/a	n/a	0	0	0
4009309	WORD	wordpools/wasnorm_wordpool_576.txt	LTP361	ltpFR2	11	15	EMPIRE	530	n/a	n/a	0	0	0
4012125	WORD	wordpools/wasnorm_wordpool_576.txt	LTP361	ltpFR2	11	15	TWEEZERS	1526	n/a	n/a	0	0	0
4014640	WORD	wordpools/wasnorm_wordpool_576.txt	LTP361	ltpFR2	11	15	HEADBAND	696	n/a	n/a	0	0	0
4017106	WORD	wordpools/wasnorm_wordpool_576.txt	LTP361	ltpFR2	11	15	MARS	873	n/a	n/a	0	0	0
4019638	WORD	wordpools/wasnorm_wordpool_576.txt	LTP361	ltpFR2	11	15	SWORD	1423	n/a	n/a	0	0	0
4022420	WORD	wordpools/wasnorm_wordpool_576.txt	LTP361	ltpFR2	11	15	BANKER	84	n/a	n/a	0	0	0
4024036	START	n/a	LTP361	ltpFR2	11	n/a	n/a	n/a	22	n/a	n/a	n/a	n/a
4025133	DISTRACTOR	n/a	LTP361	ltpFR2	11	15	n/a	n/a	n/a	n/a	0	0	0
4025135	PROB	n/a	LTP361	ltpFR2	11	n/a	n/a	n/a	22	12	2	4	6
4027601	PROB	n/a	LTP361	ltpFR2	11	n/a	n/a	n/a	22	22	6	9	7
4029400	PROB	n/a	LTP361	ltpFR2	11	n/a	n/a	n/a	22	11	3	7	1
4031616	PROB	n/a	LTP361	ltpFR2	11	n/a	n/a	n/a	22	20	6	9	5
4034415	PROB	n/a	LTP361	ltpFR2	11	n/a	n/a	n/a	22	12	2	2	8
4035581	PROB	n/a	LTP361	ltpFR2	11	n/a	n/a	n/a	22	15	3	6	6
4037047	PROB	n/a	LTP361	ltpFR2	11	n/a	n/a	n/a	22	14	8	1	5
4039629	PROB	n/a	LTP361	ltpFR2	11	n/a	n/a	n/a	22	18	5	9	4
4042826	PROB	n/a	LTP361	ltpFR2	11	n/a	n/a	n/a	22	18	2	8	8
4045010	PROB	n/a	LTP361	ltpFR2	11	n/a	n/a	n/a	22	15	8	1	6
4046492	PROB	n/a	LTP361	ltpFR2	11	n/a	n/a	n/a	22	12	3	4	5
4047904	STOP	n/a	LTP361	ltpFR2	11	n/a	n/a	n/a	22	n/a	n/a	n/a	n/a
4049875	REC_START	n/a	LTP361	ltpFR2	11	15	n/a	n/a	n/a	n/a	0	0	0
4050564	REC_WORD_VV	wordpools/wasnorm_wordpool_576.txt	LTP361	ltpFR2	11	15	<>	-1	n/a	n/a	0	0	0
4051072	REC_WORD	wordpools/wasnorm_wordpool_576.txt	LTP361	ltpFR2	11	15	HORNER	-1	n/a	n/a	0	0	0
4051790	REC_WORD	wordpools/wasnorm_wordpool_576.txt	LTP361	ltpFR2	11	15	HORNET	718	n/a	n/a	0	0	0
4053295	REC_WORD	wordpools/wasnorm_wordpool_576.txt	LTP361	ltpFR2	11	15	BANKER	84	n/a	n/a	0	0	0
4058448	REC_WORD	wordpools/wasnorm_wordpool_576.txt	LTP361	ltpFR2	11	15	OFFICE	972	n/a	n/a	0	0	0
4059468	REC_WORD	wordpools/wasnorm_wordpool_576.txt	LTP361	ltpFR2	11	15	YOLK	1633	n/a	n/a	0	0	0
4060386	REC_WORD	wordpools/wasnorm_wordpool_576.txt	LTP361	ltpFR2	11	15	SKILLET	1317	n/a	n/a	0	0	0
4061719	REC_WORD	wordpools/wasnorm_wordpool_576.txt	LTP361	ltpFR2	11	15	MARS	873	n/a	n/a	0	0	0
4062779	REC_WORD	wordpools/wasnorm_wordpool_576.txt	LTP361	ltpFR2	11	15	VENUS	1557	n/a	n/a	0	0	0
4068437	REC_WORD	wordpools/wasnorm_wordpool_576.txt	LTP361	ltpFR2	11	15	COOK	372	n/a	n/a	0	0	0
4069501	REC_WORD	wordpools/wasnorm_wordpool_576.txt	LTP361	ltpFR2	11	15	BOYFRIEND	162	n/a	n/a	0	0	0
4070792	REC_WORD	wordpools/wasnorm_wordpool_576.txt	LTP361	ltpFR2	11	15	CHEMIST	292	n/a	n/a	0	0	0
4071710	REC_WORD	wordpools/wasnorm_wordpool_576.txt	LTP361	ltpFR2	11	15	CASHIER	254	n/a	n/a	0	0	0
4076640	REC_WORD	wordpools/wasnorm_wordpool_576.txt	LTP361	ltpFR2	11	15	GIRL	637	n/a	n/a	0	0	0
4080135	REC_WORD_VV	wordpools/wasnorm_wordpool_576.txt	LTP361	ltpFR2	11	15	<>	-1	n/a	n/a	0	0	0
4089458	REC_WORD	wordpools/wasnorm_wordpool_576.txt	LTP361	ltpFR2	11	15	SWORD	1423	n/a	n/a	0	0	0
4091077	REC_WORD	wordpools/wasnorm_wordpool_576.txt	LTP361	ltpFR2	11	15	HEADBAND	696	n/a	n/a	0	0	0
4092026	REC_WORD	wordpools/wasnorm_wordpool_576.txt	LTP361	ltpFR2	11	15	TWEEZERS	1526	n/a	n/a	0	0	0
4204819	WORD	wordpools/wasnorm_wordpool_576.txt	LTP361	ltpFR2	11	16	RECORD	1176	n/a	n/a	0	0	0
4207419	WORD	wordpools/wasnorm_wordpool_576.txt	LTP361	ltpFR2	11	16	BOARD	143	n/a	n/a	0	0	0
4210185	WORD	wordpools/wasnorm_wordpool_576.txt	LTP361	ltpFR2	11	16	BLOCKADE	137	n/a	n/a	0	0	0
4213017	WORD	wordpools/wasnorm_wordpool_576.txt	LTP361	ltpFR2	11	16	PLAYGROUND	1087	n/a	n/a	0	0	0
4215582	WORD	wordpools/wasnorm_wordpool_576.txt	LTP361	ltpFR2	11	16	SLIDE	1326	n/a	n/a	0	0	0
4218281	WORD	wordpools/wasnorm_wordpool_576.txt	LTP361	ltpFR2	11	16	EAGLE	512	n/a	n/a	0	0	0
4221030	WORD	wordpools/wasnorm_wordpool_576.txt	LTP361	ltpFR2	11	16	CAPTIVE	240	n/a	n/a	0	0	0
4223628	WORD	wordpools/wasnorm_wordpool_576.txt	LTP361	ltpFR2	11	16	DRAGON	492	n/a	n/a	0	0	0
4226244	WORD	wordpools/wasnorm_wordpool_576.txt	LTP361	ltpFR2	11	16	FOOT	590	n/a	n/a	0	0	0
4228693	WORD	wordpools/wasnorm_wordpool_576.txt	LTP361	ltpFR2	11	16	GYMNAST	675	n/a	n/a	0	0	0
4231258	WORD	wordpools/wasnorm_wordpool_576.txt	LTP361	ltpFR2	11	16	PIANO	1057	n/a	n/a	0	0	0
4233823	WORD	wordpools/wasnorm_wordpool_576.txt	LTP361	ltpFR2	11	16	PIGMENT	1066	n/a	n/a	0	0	0
4236489	WORD	wordpools/wasnorm_wordpool_576.txt	LTP361	ltpFR2	11	16	OUTFIT	988	n/a	n/a	0	0	0
4239071	WORD	wordpools/wasnorm_wordpool_576.txt	LTP361	ltpFR2	11	16	WHISTLE	1606	n/a	n/a	0	0	0
4241670	WORD	wordpools/wasnorm_wordpool_576.txt	LTP361	ltpFR2	11	16	SURVEY	1414	n/a	n/a	0	0	0
4244252	WORD	wordpools/wasnorm_wordpool_576.txt	LTP361	ltpFR2	11	16	STATUE	1374	n/a	n/a	0	0	0
4247068	WORD	wordpools/wasnorm_wordpool_576.txt	LTP361	ltpFR2	11	16	JUGGLER	763	n/a	n/a	0	0	0
4249849	WORD	wordpools/wasnorm_wordpool_576.txt	LTP361	ltpFR2	11	16	TRACTOR	1493	n/a	n/a	0	0	0
4252382	WORD	wordpools/wasnorm_wordpool_576.txt	LTP361	ltpFR2	11	16	EGYPT	519	n/a	n/a	0	0	0
4255064	WORD	wordpools/wasnorm_wordpool_576.txt	LTP361	ltpFR2	11	16	MUMMY	932	n/a	n/a	0	0	0
4257630	WORD	wordpools/wasnorm_wordpool_576.txt	LTP361	ltpFR2	11	16	QUEEN	1149	n/a	n/a	0	0	0
4260428	WORD	wordpools/wasnorm_wordpool_576.txt	LTP361	ltpFR2	11	16	CREVICE	405	n/a	n/a	0	0	0
4263044	WORD	wordpools/wasnorm_wordpool_576.txt	LTP361	ltpFR2	11	16	HEDGE	699	n/a	n/a	0	0	0
4265559	WORD	wordpools/wasnorm_wordpool_576.txt	LTP361	ltpFR2	11	16	NIGHTGOWN	953	n/a	n/a	0	0	0
4267176	START	n/a	LTP361	ltpFR2	11	n/a	n/a	n/a	23	n/a	n/a	n/a	n/a
4268004	DISTRACTOR	n/a	LTP361	ltpFR2	11	16	n/a	n/a	n/a	n/a	0	0	0
4268008	PROB	n/a	LTP361	ltpFR2	11	n/a	n/a	n/a	23	16	3	5	8
4270640	PROB	n/a	LTP361	ltpFR2	11	n/a	n/a	n/a	23	17	5	8	4
4272973	PROB	n/a	LTP361	ltpFR2	11	n/a	n/a	n/a	23	16	3	9	4
4275005	PROB	n/a	LTP361	ltpFR2	11	n/a	n/a	n/a	23	18	9	3	6
4277037	PROB	n/a	LTP361	ltpFR2	11	n/a	n/a	n/a	23	16	9	5	2
4278470	PROB	n/a	LTP361	ltpFR2	11	n/a	n/a	n/a	23	12	1	8	3
4280019	PROB	n/a	LTP361	ltpFR2	11	n/a	n/a	n/a	23	11	1	4	6
4281685	PROB	n/a	LTP361	ltpFR2	11	n/a	n/a	n/a	23	14	7	1	6
4283668	PROB	n/a	LTP361	ltpFR2	11	n/a	n/a	n/a	23	25	7	9	9
4285534	PROB	n/a	LTP361	ltpFR2	11	n/a	n/a	n/a	23	16	8	5	3
4286883	PROB	n/a	LTP361	ltpFR2	11	n/a	n/a	n/a	23	12	4	7	1
4288199	PROB	n/a	LTP361	ltpFR2	11	n/a	n/a	n/a	23	17	8	7	2
4289982	STOP	n/a	LTP361	ltpFR2	11	n/a	n/a	n/a	23	n/a	n/a	n/a	n/a
4293114	REC_START	n/a	LTP361	ltpFR2	11	16	n/a	n/a	n/a	n/a	0	0	0
4294597	REC_WORD	wordpools/wasnorm_wordpool_576.txt	LTP361	ltpFR2	11	16	CREVICE	405	n/a	n/a	0	0	0
4295557	REC_WORD	wordpools/wasnorm_wordpool_576.txt	LTP361	ltpFR2	11	16	HEDGE	699	n/a	n/a	0	0	0
4296596	REC_WORD	wordpools/wasnorm_wordpool_576.txt	LTP361	ltpFR2	11	16	QUEEN	1149	n/a	n/a	0	0	0
4297640	REC_WORD	wordpools/wasnorm_wordpool_576.txt	LTP361	ltpFR2	11	16	NIGHTGOWN	953	n/a	n/a	0	0	0
4299059	REC_WORD	wordpools/wasnorm_wordpool_576.txt	LTP361	ltpFR2	11	16	PIGMENT	1066	n/a	n/a	0	0	0
4300131	REC_WORD	wordpools/wasnorm_wordpool_576.txt	LTP361	ltpFR2	11	16	OUTFIT	988	n/a	n/a	0	0	0
4301067	REC_WORD	wordpools/wasnorm_wordpool_576.txt	LTP361	ltpFR2	11	16	WHISTLE	1606	n/a	n/a	0	0	0
4304167	REC_WORD	wordpools/wasnorm_wordpool_576.txt	LTP361	ltpFR2	11	16	TRACTOR	1493	n/a	n/a	0	0	0
4305029	REC_WORD	wordpools/wasnorm_wordpool_576.txt	LTP361	ltpFR2	11	16	EGYPT	519	n/a	n/a	0	0	0
4305965	REC_WORD	wordpools/wasnorm_wordpool_576.txt	LTP361	ltpFR2	11	16	MUMMY	932	n/a	n/a	0	0	0
4310866	REC_WORD	wordpools/wasnorm_wordpool_576.txt	LTP361	ltpFR2	11	16	STATUE	1374	n/a	n/a	0	0	0
4312346	REC_WORD	wordpools/wasnorm_wordpool_576.txt	LTP361	ltpFR2	11	16	JUGGLER	763	n/a	n/a	0	0	0
4314969	REC_WORD	wordpools/wasnorm_wordpool_576.txt	LTP361	ltpFR2	11	16	BOARD	143	n/a	n/a	0	0	0
4317194	REC_WORD	wordpools/wasnorm_wordpool_576.txt	LTP361	ltpFR2	11	16	RECORD	1176	n/a	n/a	0	0	0
4318069	REC_WORD	wordpools/wasnorm_wordpool_576.txt	LTP361	ltpFR2	11	16	BLOCKADE	137	n/a	n/a	0	0	0
4319699	REC_WORD	wordpools/wasnorm_wordpool_576.txt	LTP361	ltpFR2	11	16	DRAGON	492	n/a	n/a	0	0	0
4320849	REC_WORD	wordpools/wasnorm_wordpool_576.txt	LTP361	ltpFR2	11	16	EAGLE	512	n/a	n/a	0	0	0
4322341	REC_WORD	wordpools/wasnorm_wordpool_576.txt	LTP361	ltpFR2	11	16	CAPTIVE	240	n/a	n/a	0	0	0
4323995	REC_WORD	wordpools/wasnorm_wordpool_576.txt	LTP361	ltpFR2	11	16	PLAYGROUND	1087	n/a	n/a	0	0	0
4324889	REC_WORD	wordpools/wasnorm_wordpool_576.txt	LTP361	ltpFR2	11	16	SLIDE	1326	n/a	n/a	0	0	0
4327692	REC_WORD	wordpools/wasnorm_wordpool_576.txt	LTP361	ltpFR2	11	16	FOOT	590	n/a	n/a	0	0	0
4329260	REC_WORD	wordpools/wasnorm_wordpool_576.txt	LTP361	ltpFR2	11	16	GYMNAST	675	n/a	n/a	0	0	0
4333114	REC_WORD	wordpools/wasnorm_wordpool_576.txt	LTP361	ltpFR2	11	16	PIANO	1057	n/a	n/a	0	0	0
4369645	REST_REWET	n/a	LTP361	ltpFR2	11	16	n/a	n/a	n/a	n/a	0	0	0
4780791	DISTRACTOR	n/a	LTP361	ltpFR2	11	17	n/a	n/a	n/a	n/a	0	0	0
4780792	START	n/a	LTP361	ltpFR2	11	n/a	n/a	n/a	24	n/a	n/a	n/a	n/a
4780807	PROB	n/a	LTP361	ltpFR2	11	n/a	n/a	n/a	24	12	5	3	4
4783124	PROB	n/a	LTP361	ltpFR2	11	n/a	n/a	n/a	24	16	4	3	9
4786306	PROB	n/a	LTP361	ltpFR2	11	n/a	n/a	n/a	24	21	8	4	7
4788705	PROB	n/a	LTP361	ltpFR2	11	n/a	n/a	n/a	24	19	7	3	9
4790370	PROB	n/a	LTP361	ltpFR2	11	n/a	n/a	n/a	24	23	9	6	8
4792136	PROB	n/a	LTP361	ltpFR2	11	n/a	n/a	n/a	24	10	1	2	7
4793353	PROB	n/a	LTP361	ltpFR2	11	n/a	n/a	n/a	24	15	4	6	5
4794817	PROB	n/a	LTP361	ltpFR2	11	n/a	n/a	n/a	24	10	4	3	3
4796484	PROB	n/a	LTP361	ltpFR2	11	n/a	n/a	n/a	24	24	9	9	6
4799566	PROB	n/a	LTP361	ltpFR2	11	n/a	n/a	n/a	24	18	4	7	7
4801082	PROB	n/a	LTP361	ltpFR2	11	n/a	n/a	n/a	24	18	9	5	4
4802415	PROB	n/a	LTP361	ltpFR2	11	n/a	n/a	n/a	24	16	1	6	9
4804109	STOP	n/a	LTP361	ltpFR2	11	n/a	n/a	n/a	24	n/a	n/a	n/a	n/a
4805812	WORD	wordpools/wasnorm_wordpool_576.txt	LTP361	ltpFR2	11	17	MONSTER	912	n/a	n/a	0	0	0
4808379	WORD	wordpools/wasnorm_wordpool_576.txt	LTP361	ltpFR2	11	17	GAZELLE	628	n/a	n/a	0	0	0
4810994	WORD	wordpools/wasnorm_wordpool_576.txt	LTP361	ltpFR2	11	17	TUNNEL	1519	n/a	n/a	0	0	0
4813693	WORD	wordpools/wasnorm_wordpool_576.txt	LTP361	ltpFR2	11	17	MOP	916	n/a	n/a	0	0	0
4816192	WORD	wordpools/wasnorm_wordpool_576.txt	LTP361	ltpFR2	11	17	PLAID	1080	n/a	n/a	0	0	0
4818991	WORD	wordpools/wasnorm_wordpool_576.txt	LTP361	ltpFR2	11	17	MAILBOX	857	n/a	n/a	0	0	0
4821723	WORD	wordpools/wasnorm_wordpool_576.txt	LTP361	ltpFR2	11	17	MESSAGE	888	n/a	n/a	0	0	0
4824222	WORD	wordpools/wasnorm_wordpool_576.txt	LTP361	ltpFR2	11	17	SALT	1229	n/a	n/a	0	0	0
4826737	WORD	wordpools/wasnorm_wordpool_576.txt	LTP361	ltpFR2	11	17	TYPIST	1532	n/a	n/a	0	0	0
4829303	WORD	wordpools/wasnorm_wordpool_576.txt	LTP361	ltpFR2	11	17	NECKLACE	940	n/a	n/a	0	0	0
4832085	WORD	wordpools/wasnorm_wordpool_576.txt	LTP361	ltpFR2	11	17	FLUTE	585	n/a	n/a	0	0	0
4834600	WORD	wordpools/wasnorm_wordpool_576.txt	LTP361	ltpFR2	11	17	HARP	689	n/a	n/a	0	0	0
4837249	WORD	wordpools/wasnorm_wordpool_576.txt	LTP361	ltpFR2	11	17	HAMPER	682	n/a	n/a	0	0	0
4839965	WORD	wordpools/wasnorm_wordpool_576.txt	LTP361	ltpFR2	11	17	SALAD	1224	n/a	n/a	0	0	0
4842547	WORD	wordpools/wasnorm_wordpool_576.txt	LTP361	ltpFR2	11	17	BOX	159	n/a	n/a	0	0	0
4845312	WORD	wordpools/wasnorm_wordpool_576.txt	LTP361	ltpFR2	11	17	ORANGE	980	n/a	n/a	0	0	0
4847978	WORD	wordpools/wasnorm_wordpool_576.txt	LTP361	ltpFR2	11	17	SEAGULL	1261	n/a	n/a	0	0	0
4850560	WORD	wordpools/wasnorm_wordpool_576.txt	LTP361	ltpFR2	11	17	SHIRT	1287	n/a	n/a	0	0	0
4853092	WORD	wordpools/wasnorm_wordpool_576.txt	LTP361	ltpFR2	11	17	SUBWAY	1400	n/a	n/a	0	0	0
4855574	WORD	wordpools/wasnorm_wordpool_576.txt	LTP361	ltpFR2	11	17	NEUTRON	947	n/a	n/a	0	0	0
4858040	WORD	wordpools/wasnorm_wordpool_576.txt	LTP361	ltpFR2	11	17	SUPPER	1411	n/a	n/a	0	0	0
4860738	WORD	wordpools/wasnorm_wordpool_576.txt	LTP361	ltpFR2	11	17	PORK	1108	n/a	n/a	0	0	0
4863504	WORD	wordpools/wasnorm_wordpool_576.txt	LTP361	ltpFR2	11	17	CLAMP	316	n/a	n/a	0	0	0
4866203	WORD	wordpools/wasnorm_wordpool_576.txt	LTP361	ltpFR2	11	17	BLUEPRINT	142	n/a	n/a	0	0	0
4867818	START	n/a	LTP361	ltpFR2	11	n/a	n/a	n/a	25	n/a	n/a	n/a	n/a
4868793	DISTRACTOR	n/a	LTP361	ltpFR2	11	17	n/a	n/a	n/a	n/a	0	0	0
4868800	PROB	n/a	LTP361	ltpFR2	11	n/a	n/a	n/a	25	22	8	5	9
4872100	PROB	n/a	LTP361	ltpFR2	11	n/a	n/a	n/a	25	15	3	9	3
4873599	PROB	n/a	LTP361	ltpFR2	11	n/a	n/a	n/a	25	11	2	7	2
4875232	PROB	n/a	LTP361	ltpFR2	11	n/a	n/a	n/a	25	18	8	5	5
4876431	PROB	n/a	LTP361	ltpFR2	11	n/a	n/a	n/a	25	14	6	5	3
4878497	PROB	n/a	LTP361	ltpFR2	11	n/a	n/a	n/a	25	17	7	2	8
4880213	PROB	n/a	LTP361	ltpFR2	11	n/a	n/a	n/a	25	14	5	2	7
4881828	PROB	n/a	LTP361	ltpFR2	11	n/a	n/a	n/a	25	12	6	5	1
4883361	PROB	n/a	LTP361	ltpFR2	11	n/a	n/a	n/a	25	9	6	2	1
4885511	PROB	n/a	LTP361	ltpFR2	11	n/a	n/a	n/a	25	16	8	6	2
4886826	PROB	n/a	LTP361	ltpFR2	11	n/a	n/a	n/a	25	13	3	6	4
4888159	PROB	n/a	LTP361	ltpFR2	11	n/a	n/a	n/a	25	14	1	9	4
4889509	PROB	n/a	LTP361	ltpFR2	11	n/a	n/a	n/a	25	10	4	2	4
4891239	STOP	n/a	LTP361	ltpFR2	11	n/a	n/a	n/a	25	n/a	n/a	n/a	n/a
4893591	REC_START	n/a	LTP361	ltpFR2	11	17	n/a	n/a	n/a	n/a	0	0	0
4895104	REC_WORD	wordpools/wasnorm_wordpool_576.txt	LTP361	ltpFR2	11	17	BLUEPRINT	142	n/a	n/a	0	0	0
4896070	REC_WORD	wordpools/wasnorm_wordpool_576.txt	LTP361	ltpFR2	11	17	CLAMP	316	n/a	n/a	0	0	0
4897520	REC_WORD	wordpools/wasnorm_wordpool_576.txt	LTP361	ltpFR2	11	17	SUBWAY	1400	n/a	n/a	0	0	0
4898980	REC_WORD	wordpools/wasnorm_wordpool_576.txt	LTP361	ltpFR2	11	17	PORK	1108	n/a	n/a	0	0	0
4899795	REC_WORD	wordpools/wasnorm_wordpool_576.txt	LTP361	ltpFR2	11	17	SUPPER	1411	n/a	n/a	0	0	0
4901425	REC_WORD	wordpools/wasnorm_wordpool_576.txt	LTP361	ltpFR2	11	17	MONSTER	912	n/a	n/a	0	0	0
4902514	REC_WORD	wordpools/wasnorm_wordpool_576.txt	LTP361	ltpFR2	11	17	TUNNEL	1519	n/a	n/a	0	0	0
4903336	REC_WORD	wordpools/wasnorm_wordpool_576.txt	LTP361	ltpFR2	11	17	GAZELLE	628	n/a	n/a	0	0	0
4904417	REC_WORD	wordpools/wasnorm_wordpool_576.txt	LTP361	ltpFR2	11	17	MOP	916	n/a	n/a	0	0	0
4905806	REC_WORD	wordpools/wasnorm_wordpool_576.txt	LTP361	ltpFR2	11	17	DENIM	446	n/a	n/a	0	0	0
4909512	REC_WORD	wordpools/wasnorm_wordpool_576.txt	LTP361	ltpFR2	11	17	TYPIST	1532	n/a	n/a	0	0	0
4910547	REC_WORD	wordpools/wasnorm_wordpool_576.txt	LTP361	ltpFR2	11	17	SHIRT	1287	n/a	n/a	0	0	0
4912262	REC_WORD	wordpools/wasnorm_wordpool_576.txt	LTP361	ltpFR2	11	17	NECKLACE	940	n/a	n/a	0	0	0
4914195	REC_WORD	wordpools/wasnorm_wordpool_576.txt	LTP361	ltpFR2	11	17	BOX	159	n/a	n/a	0	0	0
4915068	REC_WORD	wordpools/wasnorm_wordpool_576.txt	LTP361	ltpFR2	11	17	ORANGE	980	n/a	n/a	0	0	0
4915820	REC_WORD	wordpools/wasnorm_wordpool_576.txt	LTP361	ltpFR2	11	17	SEAGULL	1261	n/a	n/a	0	0	0
4917415	REC_WORD	wordpools/wasnorm_wordpool_576.txt	LTP361	ltpFR2	11	17	HAMPER	682	n/a	n/a	0	0	0
4984016	DISTRACTOR	n/a	LTP361	ltpFR2	11	18	n/a	n/a	n/a	n/a	0	0	0
4984016	START	n/a	LTP361	ltpFR2	11	n/a	n/a	n/a	26	n/a	n/a	n/a	n/a
4984032	PROB	n/a	LTP361	ltpFR2	11	n/a	n/a	n/a	26	19	7	4	8
4986031	PROB	n/a	LTP361	ltpFR2	11	n/a	n/a	n/a	26	5	2	2	1
4987098	PROB	n/a	LTP361	ltpFR2	11	n/a	n/a	n/a	26	17	2	8	7
4988480	PROB	n/a	LTP361	ltpFR2	11	n/a	n/a	n/a	26	13	2	4	7
4990313	PROB	n/a	LTP361	ltpFR2	11	n/a	n/a	n/a	26	16	9	4	3
4992445	PROB	n/a	LTP361	ltpFR2	11	n/a	n/a	n/a	26	16	9	1	6
4993995	PROB	n/a	LTP361	ltpFR2	11	n/a	n/a	n/a	26	16	9	6	1
4995061	PROB	n/a	LTP361	ltpFR2	11	n/a	n/a	n/a	26	16	7	4	5
4997343	PROB	n/a	LTP361	ltpFR2	11	n/a	n/a	n/a	26	18	6	4	8
4999292	PROB	n/a	LTP361	ltpFR2	11	n/a	n/a	n/a	26	10	3	5	2
5000908	PROB	n/a	LTP361	ltpFR2	11	n/a	n/a	n/a	26	8	2	5	1
5003174	PROB	n/a	LTP361	ltpFR2	11	n/a	n/a	n/a	26	17	5	8	4
5005023	PROB	n/a	LTP361	ltpFR2	11	n/a	n/a	n/a	26	21	7	9	5
5007235	STOP	n/a	LTP361	ltpFR2	11	n/a	n/a	n/a	26	n/a	n/a	n/a	n/a
5009054	WORD	wordpools/wasnorm_wordpool_576.txt	LTP361	ltpFR2	11	18	WINDOW	1611	n/a	n/a	0	0	0
5011637	WORD	wordpools/wasnorm_wordpool_576.txt	LTP361	ltpFR2	11	18	COLLEGE	346	n/a	n/a	0	0	0
5014219	WORD	wordpools/wasnorm_wordpool_576.txt	LTP361	ltpFR2	11	18	SOFTBALL	1343	n/a	n/a	0	0	0
5016868	WORD	wordpools/wasnorm_wordpool_576.txt	LTP361	ltpFR2	11	18	ACTOR	5	n/a	n/a	0	0	0
5019500	WORD	wordpools/wasnorm_wordpool_576.txt	LTP361	ltpFR2	11	18	CEILING	265	n/a	n/a	0	0	0
5022182	WORD	wordpools/wasnorm_wordpool_576.txt	LTP361	ltpFR2	11	18	PLASTER	1085	n/a	n/a	0	0	0
5024830	WORD	wordpools/wasnorm_wordpool_576.txt	LTP361	ltpFR2	11	18	WORLD	1622	n/a	n/a	0	0	0
5027346	WORD	wordpools/wasnorm_wordpool_576.txt	LTP361	ltpFR2	11	18	FRANCE	601	n/a	n/a	0	0	0
5030112	WORD	wordpools/wasnorm_wordpool_576.txt	LTP361	ltpFR2	11	18	LAKE	796	n/a	n/a	0	0	0
5032610	WORD	wordpools/wasnorm_wordpool_576.txt	LTP361	ltpFR2	11	18	BARREL	91	n/a	n/a	0	0	0
5035342	WORD	wordpools/wasnorm_wordpool_576.txt	LTP361	ltpFR2	11	18	BADGE	68	n/a	n/a	0	0	0
5037958	WORD	wordpools/wasnorm_wordpool_576.txt	LTP361	ltpFR2	11	18	CATCHER	258	n/a	n/a	0	0	0
5040690	WORD	wordpools/wasnorm_wordpool_576.txt	LTP361	ltpFR2	11	18	SHELF	1280	n/a	n/a	0	0	0
5043122	WORD	wordpools/wasnorm_wordpool_576.txt	LTP361	ltpFR2	11	18	MARKET	871	n/a	n/a	0	0	0
5045588	WORD	wordpools/wasnorm_wordpool_576.txt	LTP361	ltpFR2	11	18	GLASS	639	n/a	n/a	0	0	0
5048220	WORD	wordpools/wasnorm_wordpool_576.txt	LTP361	ltpFR2	11	18	CABBAGE	210	n/a	n/a	0	0	0
5051019	WORD	wordpools/wasnorm_wordpool_576.txt	LTP361	ltpFR2	11	18	LETTUCE	814	n/a	n/a	0	0	0
5053634	WORD	wordpools/wasnorm_wordpool_576.txt	LTP361	ltpFR2	11	18	THRONE	1461	n/a	n/a	0	0	0
5056350	WORD	wordpools/wasnorm_wordpool_576.txt	LTP361	ltpFR2	11	18	AGENT	10	n/a	n/a	0	0	0
5058831	WORD	wordpools/wasnorm_wordpool_576.txt	LTP361	ltpFR2	11	18	COMET	353	n/a	n/a	0	0	0
5061531	WORD	wordpools/wasnorm_wordpool_576.txt	LTP361	ltpFR2	11	18	LIPSTICK	829	n/a	n/a	0	0	0
5063979	WORD	wordpools/wasnorm_wordpool_576.txt	LTP361	ltpFR2	11	18	APPLE	33	n/a	n/a	0	0	0
5066578	WORD	wordpools/wasnorm_wordpool_576.txt	LTP361	ltpFR2	11	18	CONCERT	360	n/a	n/a	0	0	0
5069377	WORD	wordpools/wasnorm_wordpool_576.txt	LTP361	ltpFR2	11	18	CARRIAGE	248	n/a	n/a	0	0	0
5070993	START	n/a	LTP361	ltpFR2	11	n/a	n/a	n/a	27	n/a	n/a	n/a	n/a
5071854	DISTRACTOR	n/a	LTP361	ltpFR2	11	18	n/a	n/a	n/a	n/a	0	0	0
5071858	PROB	n/a	LTP361	ltpFR2	11	n/a	n/a	n/a	27	15	2	5	8
5073775	PROB	n/a	LTP361	ltpFR2	11	n/a	n/a	n/a	27	11	2	8	1
5075541	PROB	n/a	LTP361	ltpFR2	11	n/a	n/a	n/a	27	20	8	9	3
5077140	PROB	n/a	LTP361	ltpFR2	11	n/a	n/a	n/a	27	10	1	5	4
5079139	PROB	n/a	LTP361	ltpFR2	11	n/a	n/a	n/a	27	13	4	1	8
5080655	PROB	n/a	LTP361	ltpFR2	11	n/a	n/a	n/a	27	15	4	3	8
5082504	PROB	n/a	LTP361	ltpFR2	11	n/a	n/a	n/a	27	20	4	8	8
5084070	PROB	n/a	LTP361	ltpFR2	11	n/a	n/a	n/a	27	10	5	3	2
5085536	PROB	n/a	LTP361	ltpFR2	11	n/a	n/a	n/a	27	12	5	1	6
5087885	PROB	n/a	LTP361	ltpFR2	11	n/a	n/a	n/a	27	9	2	1	6
5089185	PROB	n/a	LTP361	ltpFR2	11	n/a	n/a	n/a	27	21	7	6	8
5090951	PROB	n/a	LTP361	ltpFR2	11	n/a	n/a	n/a	27	10	3	5	2
5092416	PROB	n/a	LTP361	ltpFR2	11	n/a	n/a	n/a	27	22	9	3	8
5094229	STOP	n/a	LTP361	ltpFR2	11	n/a	n/a	n/a	27	n/a	n/a	n/a	n/a
5096847	REC_START	n/a	LTP361	ltpFR2	11	18	n/a	n/a	n/a	n/a	0	0	0
5099907	REC_WORD	wordpools/wasnorm_wordpool_576.txt	LTP361	ltpFR2	11	18	SOFTBALL	1343	n/a	n/a	0	0	0
5101087	REC_WORD	wordpools/wasnorm_wordpool_576.txt	LTP361	ltpFR2	11	18	WINDOW	1611	n/a	n/a	0	0	0
5102195	REC_WORD	wordpools/wasnorm_wordpool_576.txt	LTP361	ltpFR2	11	18	COLLEGE	346	n/a	n/a	0	0	0
5103814	REC_WORD	wordpools/wasnorm_wordpool_576.txt	LTP361	ltpFR2	11	18	CATCHER	258	n/a	n/a	0	0	0
5105717	REC_WORD	wordpools/wasnorm_wordpool_576.txt	LTP361	ltpFR2	11	18	CEILING	265	n/a	n/a	0	0	0
5106760	REC_WORD	wordpools/wasnorm_wordpool_576.txt	LTP361	ltpFR2	11	18	PLASTER	1085	n/a	n/a	0	0	0
5108332	REC_WORD	wordpools/wasnorm_wordpool_576.txt	LTP361	ltpFR2	11	18	MARKET	871	n/a	n/a	0	0	0
5109269	REC_WORD	wordpools/wasnorm_wordpool_576.txt	LTP361	ltpFR2	11	18	GLASS	639	n/a	n/a	0	0	0
5110112	REC_WORD	wordpools/wasnorm_wordpool_576.txt	LTP361	ltpFR2	11	18	SHELF	1280	n/a	n/a	0	0	0
5139588	REC_WORD	wordpools/wasnorm_wordpool_576.txt	LTP361	ltpFR2	11	18	THRONE	1461	n/a	n/a	0	0	0
5142046	REC_WORD	wordpools/wasnorm_wordpool_576.txt	LTP361	ltpFR2	11	18	AGENT	10	n/a	n/a	0	0	0
5144424	REC_WORD	wordpools/wasnorm_wordpool_576.txt	LTP361	ltpFR2	11	18	CABBAGE	210	n/a	n/a	0	0	0
5145426	REC_WORD_VV	wordpools/wasnorm_wordpool_576.txt	LTP361	ltpFR2	11	18	<>	-1	n/a	n/a	0	0	0
5145506	REC_WORD	wordpools/wasnorm_wordpool_576.txt	LTP361	ltpFR2	11	18	LETTUCE	814	n/a	n/a	0	0	0
5148235	REC_WORD	wordpools/wasnorm_wordpool_576.txt	LTP361	ltpFR2	11	18	COMET	353	n/a	n/a	0	0	0
5268819	DISTRACTOR	n/a	LTP361	ltpFR2	11	19	n/a	n/a	n/a	n/a	0	0	0
5268819	START	n/a	LTP361	ltpFR2	11	n/a	n/a	n/a	28	n/a	n/a	n/a	n/a
5268835	PROB	n/a	LTP361	ltpFR2	11	n/a	n/a	n/a	28	19	7	5	7
5270669	PROB	n/a	LTP361	ltpFR2	11	n/a	n/a	n/a	28	13	3	2	8
5272018	PROB	n/a	LTP361	ltpFR2	11	n/a	n/a	n/a	28	19	8	4	7
5273568	PROB	n/a	LTP361	ltpFR2	11	n/a	n/a	n/a	28	9	4	1	4
5274750	PROB	n/a	LTP361	ltpFR2	11	n/a	n/a	n/a	28	20	4	8	8
5276483	PROB	n/a	LTP361	ltpFR2	11	n/a	n/a	n/a	28	8	1	2	5
5277916	PROB	n/a	LTP361	ltpFR2	11	n/a	n/a	n/a	28	25	8	8	9
5280165	PROB	n/a	LTP361	ltpFR2	11	n/a	n/a	n/a	28	16	1	8	7
5281914	PROB	n/a	LTP361	ltpFR2	11	n/a	n/a	n/a	28	22	5	8	9
5284129	PROB	n/a	LTP361	ltpFR2	11	n/a	n/a	n/a	28	13	5	4	4
5285794	PROB	n/a	LTP361	ltpFR2	11	n/a	n/a	n/a	28	7	2	3	2
5287028	PROB	n/a	LTP361	ltpFR2	11	n/a	n/a	n/a	28	8	2	2	4
5288577	PROB	n/a	LTP361	ltpFR2	11	n/a	n/a	n/a	28	14	3	3	8
5290726	PROB	n/a	LTP361	ltpFR2	11	n/a	n/a	n/a	28	8	2	5	1
5292179	STOP	n/a	LTP361	ltpFR2	11	n/a	n/a	n/a	28	n/a	n/a	n/a	n/a
5293758	WORD	wordpools/wasnorm_wordpool_576.txt	LTP361	ltpFR2	11	19	COUSIN	392	n/a	n/a	0	0	0
5296557	WORD	wordpools/wasnorm_wordpool_576.txt	LTP361	ltpFR2	11	19	PRIMATE	1123	n/a	n/a	0	0	0
5299056	WORD	wordpools/wasnorm_wordpool_576.txt	LTP361	ltpFR2	11	19	OUTLAW	989	n/a	n/a	0	0	0
5301521	WORD	wordpools/wasnorm_wordpool_576.txt	LTP361	ltpFR2	11	19	CONVICT	371	n/a	n/a	0	0	0
5303987	WORD	wordpools/wasnorm_wordpool_576.txt	LTP361	ltpFR2	11	19	BRICK	172	n/a	n/a	0	0	0
5306801	WORD	wordpools/wasnorm_wordpool_576.txt	LTP361	ltpFR2	11	19	ANKLE	24	n/a	n/a	0	0	0
5309501	WORD	wordpools/wasnorm_wordpool_576.txt	LTP361	ltpFR2	11	19	HONEY	713	n/a	n/a	0	0	0
5312117	WORD	wordpools/wasnorm_wordpool_576.txt	LTP361	ltpFR2	11	19	FIREPLACE	570	n/a	n/a	0	0	0
5314716	WORD	wordpools/wasnorm_wordpool_576.txt	LTP361	ltpFR2	11	19	GRILL	661	n/a	n/a	0	0	0
5317264	WORD	wordpools/wasnorm_wordpool_576.txt	LTP361	ltpFR2	11	19	BROOK	177	n/a	n/a	0	0	0
5320030	WORD	wordpools/wasnorm_wordpool_576.txt	LTP361	ltpFR2	11	19	POET	1095	n/a	n/a	0	0	0
5322595	WORD	wordpools/wasnorm_wordpool_576.txt	LTP361	ltpFR2	11	19	FRIAR	605	n/a	n/a	0	0	0
5325277	WORD	wordpools/wasnorm_wordpool_576.txt	LTP361	ltpFR2	11	19	ARMY	39	n/a	n/a	0	0	0
5327876	WORD	wordpools/wasnorm_wordpool_576.txt	LTP361	ltpFR2	11	19	FOREST	593	n/a	n/a	0	0	0
5330692	WORD	wordpools/wasnorm_wordpool_576.txt	LTP361	ltpFR2	11	19	MAPLE	866	n/a	n/a	0	0	0
5333190	WORD	wordpools/wasnorm_wordpool_576.txt	LTP361	ltpFR2	11	19	JUNGLE	764	n/a	n/a	0	0	0
5335706	WORD	wordpools/wasnorm_wordpool_576.txt	LTP361	ltpFR2	11	19	SWAMP	1416	n/a	n/a	0	0	0
5338421	WORD	wordpools/wasnorm_wordpool_576.txt	LTP361	ltpFR2	11	19	ARM	38	n/a	n/a	0	0	0
5341004	WORD	wordpools/wasnorm_wordpool_576.txt	LTP361	ltpFR2	11	19	PASSAGE	1019	n/a	n/a	0	0	0
5343519	WORD	wordpools/wasnorm_wordpool_576.txt	LTP361	ltpFR2	11	19	UNCLE	1536	n/a	n/a	0	0	0
5346101	WORD	wordpools/wasnorm_wordpool_576.txt	LTP361	ltpFR2	11	19	MAILMAN	858	n/a	n/a	0	0	0
5348917	WORD	wordpools/wasnorm_wordpool_576.txt	LTP361	ltpFR2	11	19	POSTAGE	1113	n/a	n/a	0	0	0
5351366	WORD	wordpools/wasnorm_wordpool_576.txt	LTP361	ltpFR2	11	19	PISTOL	1075	n/a	n/a	0	0	0
5353830	WORD	wordpools/wasnorm_wordpool_576.txt	LTP361	ltpFR2	11	19	CYCLONE	431	n/a	n/a	0	0	0
5355447	START	n/a	LTP361	ltpFR2	11	n/a	n/a	n/a	29	n/a	n/a	n/a	n/a
5356636	DISTRACTOR	n/a	LTP361	ltpFR2	11	19	n/a	n/a	n/a	n/a	0	0	0
5356647	PROB	n/a	LTP361	ltpFR2	11	n/a	n/a	n/a	29	23	6	8	9
5359678	PROB	n/a	LTP361	ltpFR2	11	n/a	n/a	n/a	29	12	3	1	8
5360878	PROB	n/a	LTP361	ltpFR2	11	n/a	n/a	n/a	29	10	3	4	3
5362660	PROB	n/a	LTP361	ltpFR2	11	n/a	n/a	n/a	29	9	1	6	2
5363993	PROB	n/a	LTP361	ltpFR2	11	n/a	n/a	n/a	29	11	7	3	1
5365276	PROB	n/a	LTP361	ltpFR2	11	n/a	n/a	n/a	29	14	7	6	1
5366925	PROB	n/a	LTP361	ltpFR2	11	n/a	n/a	n/a	29	10	2	2	6
5368158	PROB	n/a	LTP361	ltpFR2	11	n/a	n/a	n/a	29	14	2	3	9
5370407	PROB	n/a	LTP361	ltpFR2	11	n/a	n/a	n/a	29	17	3	5	9
5372173	PROB	n/a	LTP361	ltpFR2	11	n/a	n/a	n/a	29	12	7	3	2
5373889	PROB	n/a	LTP361	ltpFR2	11	n/a	n/a	n/a	29	16	7	1	8
5375688	PROB	n/a	LTP361	ltpFR2	11	n/a	n/a	n/a	29	19	9	1	9
5379447	STOP	n/a	LTP361	ltpFR2	11	n/a	n/a	n/a	29	n/a	n/a	n/a	n/a
5381352	REC_START	n/a	LTP361	ltpFR2	11	19	n/a	n/a	n/a	n/a	0	0	0
5383583	REC_WORD_VV	wordpools/wasnorm_wordpool_576.txt	LTP361	ltpFR2	11	19	<>	-1	n/a	n/a	0	0	0
5383727	REC_WORD	wordpools/wasnorm_wordpool_576.txt	LTP361	ltpFR2	11	19	SWAMP	1416	n/a	n/a	0	0	0
5385168	REC_WORD	wordpools/wasnorm_wordpool_576.txt	LTP361	ltpFR2	11	19	CYCLONE	431	n/a	n/a	0	0	0
5390572	REC_WORD	wordpools/wasnorm_wordpool_576.txt	LTP361	ltpFR2	11	19	UNCLE	1536	n/a	n/a	0	0	0
5391447	REC_WORD	wordpools/wasnorm_wordpool_576.txt	LTP361	ltpFR2	11	19	COUSIN	392	n/a	n/a	0	0	0
5392655	REC_WORD	wordpools/wasnorm_wordpool_576.txt	LTP361	ltpFR2	11	19	PISTOL	1075	n/a	n/a	0	0	0
