mstime	trial_type	stim_file	subject	experiment	session	trial	task	item_name	item_num	recog_resp	recog_conf	resp	color_r	color_g	color_b	case	font
0	SESS_START	n/a	LTP099	ltpFR	19	n/a	n/a	n/a	n/a	0	5	n/a	n/a	n/a	n/a	n/a	n/a
75636	WORD	wordpools/wasnorm_wordpool.txt	LTP099	ltpFR	19	1	1	HOSTAGE	722	0	n/a	0	0.422607421875	0.5869140625	0	upper	zerothre.ttf
79561	WORD	wordpools/wasnorm_wordpool.txt	LTP099	ltpFR	19	1	1	SUSPECT	1415	n/a	n/a	1	0.422607421875	0.5869140625	0	upper	zerothre.ttf
83603	WORD	wordpools/wasnorm_wordpool.txt	LTP099	ltpFR	19	1	0	NOTE	958	n/a	n/a	0	0.57763671875	0.412841796875	1	lower	amplitud.ttf
87793	WORD	wordpools/wasnorm_wordpool.txt	LTP099	ltpFR	19	1	0	ENCYCLOPEDIA	533	n/a	n/a	1	0.57763671875	0.412841796875	1	lower	amplitud.ttf
91834	WORD	wordpools/wasnorm_wordpool.txt	LTP099	ltpFR	19	1	0	PLANT	1083	n/a	n/a	1	0.57763671875	0.412841796875	1	lower	amplitud.ttf
95859	WORD	wordpools/wasnorm_wordpool.txt	LTP099	ltpFR	19	1	0	REINDEER	1181	n/a	n/a	1	0.57763671875	0.412841796875	1	lower	amplitud.ttf
99985	WORD	wordpools/wasnorm_wordpool.txt	LTP099	ltpFR	19	1	1	SKUNK	1321	n/a	n/a	2	0.422607421875	0.5869140625	0	upper	zerothre.ttf
101309	KEY_MSG	n/a	LTP099	ltpFR	19	1	n/a	n/a	n/a	n/a	n/a	n/a	n/a	n/a	n/a	n/a	n/a
103825	WORD	wordpools/wasnorm_wordpool.txt	LTP099	ltpFR	19	1	1	EGG	518	n/a	n/a	0	0.422607421875	0.5869140625	0	upper	zerothre.ttf
107833	WORD	wordpools/wasnorm_wordpool.txt	LTP099	ltpFR	19	1	0	SHORTCAKE	1292	n/a	n/a	0	0.57763671875	0.412841796875	1	lower	amplitud.ttf
111700	WORD	wordpools/wasnorm_wordpool.txt	LTP099	ltpFR	19	1	0	CHERRY	293	n/a	n/a	0	0.57763671875	0.412841796875	1	lower	amplitud.ttf
115824	WORD	wordpools/wasnorm_wordpool.txt	LTP099	ltpFR	19	1	0	DEODORANT	448	n/a	n/a	0	0.57763671875	0.412841796875	1	lower	amplitud.ttf
119983	WORD	wordpools/wasnorm_wordpool.txt	LTP099	ltpFR	19	1	0	GAZELLE	628	n/a	n/a	1	0.57763671875	0.412841796875	1	lower	amplitud.ttf
123848	WORD	wordpools/wasnorm_wordpool.txt	LTP099	ltpFR	19	1	1	BRANCH	168	n/a	n/a	0	0.422607421875	0.5869140625	0	upper	zerothre.ttf
128041	WORD	wordpools/wasnorm_wordpool.txt	LTP099	ltpFR	19	1	1	MERMAID	887	n/a	n/a	1	0.422607421875	0.5869140625	0	upper	zerothre.ttf
131982	WORD	wordpools/wasnorm_wordpool.txt	LTP099	ltpFR	19	1	1	STAIRS	1367	n/a	n/a	1	0.422607421875	0.5869140625	0	upper	zerothre.ttf
135839	WORD	wordpools/wasnorm_wordpool.txt	LTP099	ltpFR	19	1	1	BLUEBERRY	140	n/a	n/a	0	0.422607421875	0.5869140625	0	upper	zerothre.ttf
141649	REC_START	n/a	LTP099	ltpFR	19	1	n/a	n/a	n/a	n/a	n/a	n/a	n/a	n/a	n/a	n/a	n/a
142272	REC_WORD	wordpools/wasnorm_wordpool.txt	LTP099	ltpFR	19	1	0	SHORTCAKE	1292	n/a	n/a	0	n/a	n/a	n/a	n/a	n/a
143200	REC_WORD	wordpools/wasnorm_wordpool.txt	LTP099	ltpFR	19	1	0	CHERRY	293	n/a	n/a	0	n/a	n/a	n/a	n/a	n/a
145196	REC_WORD	wordpools/wasnorm_wordpool.txt	LTP099	ltpFR	19	1	0	DEODORANT	448	n/a	n/a	0	n/a	n/a	n/a	n/a	n/a
146193	REC_WORD	wordpools/wasnorm_wordpool.txt	LTP099	ltpFR	19	1	n/a	RANCH	1166	n/a	n/a	n/a	n/a	n/a	n/a	n/a	n/a
147007	REC_WORD	wordpools/wasnorm_wordpool.txt	LTP099	ltpFR	19	1	0	REINDEER	1181	n/a	n/a	1	n/a	n/a	n/a	n/a	n/a
151546	REC_WORD	wordpools/wasnorm_wordpool.txt	LTP099	ltpFR	19	1	n/a	CAT	257	n/a	n/a	n/a	n/a	n/a	n/a	n/a	n/a
152893	REC_WORD	wordpools/wasnorm_wordpool.txt	LTP099	ltpFR	19	1	n/a	FOX	598	n/a	n/a	n/a	n/a	n/a	n/a	n/a	n/a
154330	REC_WORD	wordpools/wasnorm_wordpool.txt	LTP099	ltpFR	19	1	n/a	MOOSE	915	n/a	n/a	n/a	n/a	n/a	n/a	n/a	n/a
155712	REC_WORD	wordpools/wasnorm_wordpool.txt	LTP099	ltpFR	19	1	n/a	MOUSE	925	n/a	n/a	n/a	n/a	n/a	n/a	n/a	n/a
159967	REC_WORD	wordpools/wasnorm_wordpool.txt	LTP099	ltpFR	19	1	0	ENCYCLOPEDIA	533	n/a	n/a	1	n/a	n/a	n/a	n/a	n/a
161334	REC_WORD	wordpools/wasnorm_wordpool.txt	LTP099	ltpFR	19	1	1	SUSPECT	1415	n/a	n/a	1	n/a	n/a	n/a	n/a	n/a
166248	REC_WORD	wordpools/wasnorm_wordpool.txt	LTP099	ltpFR	19	1	0	DEODORANT	448	n/a	n/a	0	n/a	n/a	n/a	n/a	n/a
169905	REC_WORD	wordpools/wasnorm_wordpool.txt	LTP099	ltpFR	19	1	0	NOTE	958	n/a	n/a	0	n/a	n/a	n/a	n/a	n/a
171466	REC_WORD	wordpools/wasnorm_wordpool.txt	LTP099	ltpFR	19	1	n/a	RANSOM	-1	n/a	n/a	n/a	n/a	n/a	n/a	n/a	n/a
181663	REC_WORD	wordpools/wasnorm_wordpool.txt	LTP099	ltpFR	19	1	n/a	STRAWBERRY	1391	n/a	n/a	n/a	n/a	n/a	n/a	n/a	n/a
183813	REC_WORD	wordpools/wasnorm_wordpool.txt	LTP099	ltpFR	19	1	1	BLUEBERRY	140	n/a	n/a	0	n/a	n/a	n/a	n/a	n/a
188153	REC_WORD	wordpools/wasnorm_wordpool.txt	LTP099	ltpFR	19	1	n/a	FOREST	593	n/a	n/a	n/a	n/a	n/a	n/a	n/a	n/a
197123	REC_WORD	wordpools/wasnorm_wordpool.txt	LTP099	ltpFR	19	1	n/a	DUMBBELL	-1	n/a	n/a	n/a	n/a	n/a	n/a	n/a	n/a
221625	WORD	wordpools/wasnorm_wordpool.txt	LTP099	ltpFR	19	2	0	PERISCOPE	1050	n/a	n/a	1	0.57763671875	0.412841796875	1	lower	amplitud.ttf
225716	WORD	wordpools/wasnorm_wordpool.txt	LTP099	ltpFR	19	2	0	BIOLOGIST	128	n/a	n/a	1	0.57763671875	0.412841796875	1	lower	amplitud.ttf
229773	WORD	wordpools/wasnorm_wordpool.txt	LTP099	ltpFR	19	2	1	OPERA	978	n/a	n/a	0	0.422607421875	0.5869140625	0	upper	zerothre.ttf
233840	WORD	wordpools/wasnorm_wordpool.txt	LTP099	ltpFR	19	2	1	DOG	480	n/a	n/a	1	0.422607421875	0.5869140625	0	upper	zerothre.ttf
237757	WORD	wordpools/wasnorm_wordpool.txt	LTP099	ltpFR	19	2	0	GRADUATE	653	n/a	n/a	1	0.57763671875	0.412841796875	1	lower	amplitud.ttf
241957	WORD	wordpools/wasnorm_wordpool.txt	LTP099	ltpFR	19	2	0	SHRIMP	1297	n/a	n/a	0	0.57763671875	0.412841796875	1	lower	amplitud.ttf
245923	WORD	wordpools/wasnorm_wordpool.txt	LTP099	ltpFR	19	2	0	GRATE	657	n/a	n/a	0	0.57763671875	0.412841796875	1	lower	amplitud.ttf
249948	WORD	wordpools/wasnorm_wordpool.txt	LTP099	ltpFR	19	2	0	POPE	1105	n/a	n/a	1	0.57763671875	0.412841796875	1	lower	amplitud.ttf
254073	WORD	wordpools/wasnorm_wordpool.txt	LTP099	ltpFR	19	2	1	OATMEAL	967	n/a	n/a	1	0.422607421875	0.5869140625	0	upper	zerothre.ttf
258039	WORD	wordpools/wasnorm_wordpool.txt	LTP099	ltpFR	19	2	1	INSTRUCTOR	741	n/a	n/a	1	0.422607421875	0.5869140625	0	upper	zerothre.ttf
261914	WORD	wordpools/wasnorm_wordpool.txt	LTP099	ltpFR	19	2	1	BONE	148	n/a	n/a	0	0.422607421875	0.5869140625	0	upper	zerothre.ttf
266013	WORD	wordpools/wasnorm_wordpool.txt	LTP099	ltpFR	19	2	1	BOAT	144	n/a	n/a	0	0.422607421875	0.5869140625	0	upper	zerothre.ttf
269888	WORD	wordpools/wasnorm_wordpool.txt	LTP099	ltpFR	19	2	1	VIKING	1565	n/a	n/a	1	0.422607421875	0.5869140625	0	upper	zerothre.ttf
274021	WORD	wordpools/wasnorm_wordpool.txt	LTP099	ltpFR	19	2	1	PLIERS	1089	n/a	n/a	0	0.422607421875	0.5869140625	0	upper	zerothre.ttf
278179	WORD	wordpools/wasnorm_wordpool.txt	LTP099	ltpFR	19	2	0	PAW	1029	n/a	n/a	0	0.57763671875	0.412841796875	1	lower	amplitud.ttf
282004	WORD	wordpools/wasnorm_wordpool.txt	LTP099	ltpFR	19	2	0	TOENAIL	1474	n/a	n/a	0	0.57763671875	0.412841796875	1	lower	amplitud.ttf
287820	REC_START	n/a	LTP099	ltpFR	19	2	n/a	n/a	n/a	n/a	n/a	n/a	n/a	n/a	n/a	n/a	n/a
288468	REC_WORD	wordpools/wasnorm_wordpool.txt	LTP099	ltpFR	19	2	1	OATMEAL	967	n/a	n/a	1	n/a	n/a	n/a	n/a	n/a
289112	REC_WORD	wordpools/wasnorm_wordpool.txt	LTP099	ltpFR	19	2	1	INSTRUCTOR	741	n/a	n/a	1	n/a	n/a	n/a	n/a	n/a
290070	REC_WORD	wordpools/wasnorm_wordpool.txt	LTP099	ltpFR	19	2	1	BONE	148	n/a	n/a	0	n/a	n/a	n/a	n/a	n/a
290918	REC_WORD	wordpools/wasnorm_wordpool.txt	LTP099	ltpFR	19	2	1	BOAT	144	n/a	n/a	0	n/a	n/a	n/a	n/a	n/a
291716	REC_WORD	wordpools/wasnorm_wordpool.txt	LTP099	ltpFR	19	2	0	TOENAIL	1474	n/a	n/a	0	n/a	n/a	n/a	n/a	n/a
292948	REC_WORD	wordpools/wasnorm_wordpool.txt	LTP099	ltpFR	19	2	n/a	CLAW	319	n/a	n/a	n/a	n/a	n/a	n/a	n/a	n/a
299793	REC_WORD	wordpools/wasnorm_wordpool.txt	LTP099	ltpFR	19	2	0	PAW	1029	n/a	n/a	0	n/a	n/a	n/a	n/a	n/a
303604	REC_WORD	wordpools/wasnorm_wordpool.txt	LTP099	ltpFR	19	2	0	POPE	1105	n/a	n/a	1	n/a	n/a	n/a	n/a	n/a
310857	REC_WORD	wordpools/wasnorm_wordpool.txt	LTP099	ltpFR	19	2	0	POPE	1105	n/a	n/a	1	n/a	n/a	n/a	n/a	n/a
313881	REC_WORD	wordpools/wasnorm_wordpool.txt	LTP099	ltpFR	19	2	0	GRATE	657	n/a	n/a	0	n/a	n/a	n/a	n/a	n/a
317527	REC_WORD	wordpools/wasnorm_wordpool.txt	LTP099	ltpFR	19	2	n/a	FOX	598	n/a	n/a	n/a	n/a	n/a	n/a	n/a	n/a
339048	REC_WORD	wordpools/wasnorm_wordpool.txt	LTP099	ltpFR	19	2	n/a	DICTIONARY	463	n/a	n/a	n/a	n/a	n/a	n/a	n/a	n/a
343349	REC_WORD	wordpools/wasnorm_wordpool.txt	LTP099	ltpFR	19	2	1	OATMEAL	967	n/a	n/a	1	n/a	n/a	n/a	n/a	n/a
366164	WORD	wordpools/wasnorm_wordpool.txt	LTP099	ltpFR	19	3	1	FIST	572	n/a	n/a	0	0.422607421875	0.5869140625	0	upper	zerothre.ttf
370197	WORD	wordpools/wasnorm_wordpool.txt	LTP099	ltpFR	19	3	1	CROOK	412	n/a	n/a	1	0.422607421875	0.5869140625	0	upper	zerothre.ttf
374263	WORD	wordpools/wasnorm_wordpool.txt	LTP099	ltpFR	19	3	1	TAXI	1438	n/a	n/a	0	0.422607421875	0.5869140625	0	upper	zerothre.ttf
378263	WORD	wordpools/wasnorm_wordpool.txt	LTP099	ltpFR	19	3	1	CAR	241	n/a	n/a	0	0.422607421875	0.5869140625	0	upper	zerothre.ttf
382404	WORD	wordpools/wasnorm_wordpool.txt	LTP099	ltpFR	19	3	0	VETERAN	1561	n/a	n/a	0	0.57763671875	0.412841796875	1	lower	amplitud.ttf
386604	WORD	wordpools/wasnorm_wordpool.txt	LTP099	ltpFR	19	3	0	GRILL	661	n/a	n/a	1	0.57763671875	0.412841796875	1	lower	amplitud.ttf
390745	WORD	wordpools/wasnorm_wordpool.txt	LTP099	ltpFR	19	3	0	STEW	1380	n/a	n/a	0	0.57763671875	0.412841796875	1	lower	amplitud.ttf
394687	WORD	wordpools/wasnorm_wordpool.txt	LTP099	ltpFR	19	3	1	SNAKE	1333	n/a	n/a	1	0.422607421875	0.5869140625	0	upper	zerothre.ttf
398503	WORD	wordpools/wasnorm_wordpool.txt	LTP099	ltpFR	19	3	1	WASHCLOTH	1591	n/a	n/a	0	0.422607421875	0.5869140625	0	upper	zerothre.ttf
402694	WORD	wordpools/wasnorm_wordpool.txt	LTP099	ltpFR	19	3	1	TEAPOT	1442	n/a	n/a	1	0.422607421875	0.5869140625	0	upper	zerothre.ttf
406719	WORD	wordpools/wasnorm_wordpool.txt	LTP099	ltpFR	19	3	1	COLONEL	348	n/a	n/a	1	0.422607421875	0.5869140625	0	upper	zerothre.ttf
410784	WORD	wordpools/wasnorm_wordpool.txt	LTP099	ltpFR	19	3	0	FRECKLE	602	n/a	n/a	0	0.57763671875	0.412841796875	1	lower	amplitud.ttf
414784	WORD	wordpools/wasnorm_wordpool.txt	LTP099	ltpFR	19	3	0	PUMPKIN	1142	n/a	n/a	0	0.57763671875	0.412841796875	1	lower	amplitud.ttf
418893	WORD	wordpools/wasnorm_wordpool.txt	LTP099	ltpFR	19	3	0	LIZARD	834	n/a	n/a	0	0.57763671875	0.412841796875	1	lower	amplitud.ttf
422984	WORD	wordpools/wasnorm_wordpool.txt	LTP099	ltpFR	19	3	0	HOSE	720	n/a	n/a	0	0.57763671875	0.412841796875	1	lower	amplitud.ttf
427034	WORD	wordpools/wasnorm_wordpool.txt	LTP099	ltpFR	19	3	0	OCTOPUS	971	n/a	n/a	0	0.57763671875	0.412841796875	1	lower	amplitud.ttf
432684	REC_START	n/a	LTP099	ltpFR	19	3	n/a	n/a	n/a	n/a	n/a	n/a	n/a	n/a	n/a	n/a	n/a
433248	REC_WORD	wordpools/wasnorm_wordpool.txt	LTP099	ltpFR	19	3	0	OCTOPUS	971	n/a	n/a	0	n/a	n/a	n/a	n/a	n/a
434869	REC_WORD	wordpools/wasnorm_wordpool.txt	LTP099	ltpFR	19	3	1	SNAKE	1333	n/a	n/a	1	n/a	n/a	n/a	n/a	n/a
436054	REC_WORD	wordpools/wasnorm_wordpool.txt	LTP099	ltpFR	19	3	0	STEW	1380	n/a	n/a	0	n/a	n/a	n/a	n/a	n/a
437977	REC_WORD	wordpools/wasnorm_wordpool.txt	LTP099	ltpFR	19	3	1	WASHCLOTH	1591	n/a	n/a	0	n/a	n/a	n/a	n/a	n/a
450568	REC_WORD	wordpools/wasnorm_wordpool.txt	LTP099	ltpFR	19	3	0	FRECKLE	602	n/a	n/a	0	n/a	n/a	n/a	n/a	n/a
460600	REC_WORD	wordpools/wasnorm_wordpool.txt	LTP099	ltpFR	19	3	n/a	FLOWER	584	n/a	n/a	n/a	n/a	n/a	n/a	n/a	n/a
480116	REC_WORD	wordpools/wasnorm_wordpool.txt	LTP099	ltpFR	19	3	n/a	BUILDING	191	n/a	n/a	n/a	n/a	n/a	n/a	n/a	n/a
483463	REC_WORD	wordpools/wasnorm_wordpool.txt	LTP099	ltpFR	19	3	n/a	MARSH	874	n/a	n/a	n/a	n/a	n/a	n/a	n/a	n/a
510860	WORD	wordpools/wasnorm_wordpool.txt	LTP099	ltpFR	19	4	-1	MOAT	903	n/a	n/a	-1	1.0	1.0	1	upper	Verdana.ttf
514994	WORD	wordpools/wasnorm_wordpool.txt	LTP099	ltpFR	19	4	-1	HORSE	719	n/a	n/a	-1	1.0	1.0	1	upper	Verdana.ttf
519019	WORD	wordpools/wasnorm_wordpool.txt	LTP099	ltpFR	19	4	-1	GRASSHOPPER	656	n/a	n/a	-1	1.0	1.0	1	upper	Verdana.ttf
523018	WORD	wordpools/wasnorm_wordpool.txt	LTP099	ltpFR	19	4	-1	FAN	551	n/a	n/a	-1	1.0	1.0	1	upper	Verdana.ttf
527143	WORD	wordpools/wasnorm_wordpool.txt	LTP099	ltpFR	19	4	-1	LASH	802	n/a	n/a	-1	1.0	1.0	1	upper	Verdana.ttf
530976	WORD	wordpools/wasnorm_wordpool.txt	LTP099	ltpFR	19	4	-1	VINE	1568	n/a	n/a	-1	1.0	1.0	1	upper	Verdana.ttf
534816	WORD	wordpools/wasnorm_wordpool.txt	LTP099	ltpFR	19	4	-1	FRUIT	610	n/a	n/a	-1	1.0	1.0	1	upper	Verdana.ttf
538791	WORD	wordpools/wasnorm_wordpool.txt	LTP099	ltpFR	19	4	-1	ASHTRAY	45	n/a	n/a	-1	1.0	1.0	1	upper	Verdana.ttf
542917	WORD	wordpools/wasnorm_wordpool.txt	LTP099	ltpFR	19	4	-1	CIGARETTE	309	n/a	n/a	-1	1.0	1.0	1	upper	Verdana.ttf
546799	WORD	wordpools/wasnorm_wordpool.txt	LTP099	ltpFR	19	4	-1	DIVER	476	n/a	n/a	-1	1.0	1.0	1	upper	Verdana.ttf
550933	WORD	wordpools/wasnorm_wordpool.txt	LTP099	ltpFR	19	4	-1	SHELL	1281	n/a	n/a	-1	1.0	1.0	1	upper	Verdana.ttf
554883	WORD	wordpools/wasnorm_wordpool.txt	LTP099	ltpFR	19	4	-1	ROBE	1198	n/a	n/a	-1	1.0	1.0	1	upper	Verdana.ttf
558932	WORD	wordpools/wasnorm_wordpool.txt	LTP099	ltpFR	19	4	-1	WAGON	1578	n/a	n/a	-1	1.0	1.0	1	upper	Verdana.ttf
563065	WORD	wordpools/wasnorm_wordpool.txt	LTP099	ltpFR	19	4	-1	TRIBE	1505	n/a	n/a	-1	1.0	1.0	1	upper	Verdana.ttf
567223	WORD	wordpools/wasnorm_wordpool.txt	LTP099	ltpFR	19	4	-1	BUFFALO	186	n/a	n/a	-1	1.0	1.0	1	upper	Verdana.ttf
571306	WORD	wordpools/wasnorm_wordpool.txt	LTP099	ltpFR	19	4	-1	PEANUT	1032	n/a	n/a	-1	1.0	1.0	1	upper	Verdana.ttf
577223	REC_START	n/a	LTP099	ltpFR	19	4	n/a	n/a	n/a	n/a	n/a	n/a	n/a	n/a	n/a	n/a	n/a
577896	REC_WORD	wordpools/wasnorm_wordpool.txt	LTP099	ltpFR	19	4	-1	PEANUT	1032	n/a	n/a	-1	n/a	n/a	n/a	n/a	n/a
578530	REC_WORD	wordpools/wasnorm_wordpool.txt	LTP099	ltpFR	19	4	-1	BUFFALO	186	n/a	n/a	-1	n/a	n/a	n/a	n/a	n/a
579228	REC_WORD	wordpools/wasnorm_wordpool.txt	LTP099	ltpFR	19	4	-1	TRIBE	1505	n/a	n/a	-1	n/a	n/a	n/a	n/a	n/a
580425	REC_WORD	wordpools/wasnorm_wordpool.txt	LTP099	ltpFR	19	4	-1	HORSE	719	n/a	n/a	-1	n/a	n/a	n/a	n/a	n/a
583434	REC_WORD	wordpools/wasnorm_wordpool.txt	LTP099	ltpFR	19	4	-1	MOAT	903	n/a	n/a	-1	n/a	n/a	n/a	n/a	n/a
585170	REC_WORD	wordpools/wasnorm_wordpool.txt	LTP099	ltpFR	19	4	-1	GRASSHOPPER	656	n/a	n/a	-1	n/a	n/a	n/a	n/a	n/a
588397	REC_WORD	wordpools/wasnorm_wordpool.txt	LTP099	ltpFR	19	4	n/a	WARRIOR	1589	n/a	n/a	n/a	n/a	n/a	n/a	n/a	n/a
591894	REC_WORD	wordpools/wasnorm_wordpool.txt	LTP099	ltpFR	19	4	-1	WAGON	1578	n/a	n/a	-1	n/a	n/a	n/a	n/a	n/a
593441	REC_WORD	wordpools/wasnorm_wordpool.txt	LTP099	ltpFR	19	4	-1	VINE	1568	n/a	n/a	-1	n/a	n/a	n/a	n/a	n/a
594144	REC_WORD	wordpools/wasnorm_wordpool.txt	LTP099	ltpFR	19	4	-1	FRUIT	610	n/a	n/a	-1	n/a	n/a	n/a	n/a	n/a
596165	REC_WORD	wordpools/wasnorm_wordpool.txt	LTP099	ltpFR	19	4	-1	CIGARETTE	309	n/a	n/a	-1	n/a	n/a	n/a	n/a	n/a
597472	REC_WORD	wordpools/wasnorm_wordpool.txt	LTP099	ltpFR	19	4	-1	ASHTRAY	45	n/a	n/a	-1	n/a	n/a	n/a	n/a	n/a
598789	REC_WORD	wordpools/wasnorm_wordpool.txt	LTP099	ltpFR	19	4	-1	ROBE	1198	n/a	n/a	-1	n/a	n/a	n/a	n/a	n/a
603658	REC_WORD	wordpools/wasnorm_wordpool.txt	LTP099	ltpFR	19	4	-1	DIVER	476	n/a	n/a	-1	n/a	n/a	n/a	n/a	n/a
604401	REC_WORD	wordpools/wasnorm_wordpool.txt	LTP099	ltpFR	19	4	-1	SHELL	1281	n/a	n/a	-1	n/a	n/a	n/a	n/a	n/a
631245	REC_WORD	wordpools/wasnorm_wordpool.txt	LTP099	ltpFR	19	4	-1	MOAT	903	n/a	n/a	-1	n/a	n/a	n/a	n/a	n/a
635954	REC_WORD	wordpools/wasnorm_wordpool.txt	LTP099	ltpFR	19	4	n/a	CASTLE	256	n/a	n/a	n/a	n/a	n/a	n/a	n/a	n/a
655375	WORD	wordpools/wasnorm_wordpool.txt	LTP099	ltpFR	19	5	1	DECK	443	n/a	n/a	0	0.422607421875	0.5869140625	0	upper	zerothre.ttf
659233	WORD	wordpools/wasnorm_wordpool.txt	LTP099	ltpFR	19	5	1	DOCTOR	478	n/a	n/a	1	0.422607421875	0.5869140625	0	upper	zerothre.ttf
663166	WORD	wordpools/wasnorm_wordpool.txt	LTP099	ltpFR	19	5	1	ARENA	37	n/a	n/a	0	0.422607421875	0.5869140625	0	upper	zerothre.ttf
667157	WORD	wordpools/wasnorm_wordpool.txt	LTP099	ltpFR	19	5	1	BUGGY	188	n/a	n/a	0	0.422607421875	0.5869140625	0	upper	zerothre.ttf
671015	WORD	wordpools/wasnorm_wordpool.txt	LTP099	ltpFR	19	5	1	ALBUM	14	n/a	n/a	0	0.422607421875	0.5869140625	0	upper	zerothre.ttf
675148	WORD	wordpools/wasnorm_wordpool.txt	LTP099	ltpFR	19	5	1	PICTURE	1061	n/a	n/a	0	0.422607421875	0.5869140625	0	upper	zerothre.ttf
679231	WORD	wordpools/wasnorm_wordpool.txt	LTP099	ltpFR	19	5	1	LONDON	843	n/a	n/a	0	0.422607421875	0.5869140625	0	upper	zerothre.ttf
683431	WORD	wordpools/wasnorm_wordpool.txt	LTP099	ltpFR	19	5	1	SHAMPOO	1274	n/a	n/a	0	0.422607421875	0.5869140625	0	upper	zerothre.ttf
687314	WORD	wordpools/wasnorm_wordpool.txt	LTP099	ltpFR	19	5	1	THORN	1459	n/a	n/a	0	0.422607421875	0.5869140625	0	upper	zerothre.ttf
691255	WORD	wordpools/wasnorm_wordpool.txt	LTP099	ltpFR	19	5	1	CAPTAIN	239	n/a	n/a	1	0.422607421875	0.5869140625	0	upper	zerothre.ttf
695355	WORD	wordpools/wasnorm_wordpool.txt	LTP099	ltpFR	19	5	1	OUTFIT	988	n/a	n/a	0	0.422607421875	0.5869140625	0	upper	zerothre.ttf
699380	WORD	wordpools/wasnorm_wordpool.txt	LTP099	ltpFR	19	5	1	UNIFORM	1539	n/a	n/a	0	0.422607421875	0.5869140625	0	upper	zerothre.ttf
703363	WORD	wordpools/wasnorm_wordpool.txt	LTP099	ltpFR	19	5	1	PROFESSIONAL	1130	n/a	n/a	1	0.422607421875	0.5869140625	0	upper	zerothre.ttf
707437	WORD	wordpools/wasnorm_wordpool.txt	LTP099	ltpFR	19	5	1	COLT	349	n/a	n/a	0	0.422607421875	0.5869140625	0	upper	zerothre.ttf
711462	WORD	wordpools/wasnorm_wordpool.txt	LTP099	ltpFR	19	5	1	FAMILY	550	n/a	n/a	0	0.422607421875	0.5869140625	0	upper	zerothre.ttf
715345	WORD	wordpools/wasnorm_wordpool.txt	LTP099	ltpFR	19	5	1	COMPANION	357	n/a	n/a	1	0.422607421875	0.5869140625	0	upper	zerothre.ttf
721095	REC_START	n/a	LTP099	ltpFR	19	5	n/a	n/a	n/a	n/a	n/a	n/a	n/a	n/a	n/a	n/a	n/a
721464	REC_WORD	wordpools/wasnorm_wordpool.txt	LTP099	ltpFR	19	5	1	COMPANION	357	n/a	n/a	1	n/a	n/a	n/a	n/a	n/a
722312	REC_WORD	wordpools/wasnorm_wordpool.txt	LTP099	ltpFR	19	5	1	OUTFIT	988	n/a	n/a	0	n/a	n/a	n/a	n/a	n/a
723135	REC_WORD_VV	wordpools/wasnorm_wordpool.txt	LTP099	ltpFR	19	5	n/a	<>	-1	n/a	n/a	n/a	n/a	n/a	n/a	n/a	n/a
723878	REC_WORD	wordpools/wasnorm_wordpool.txt	LTP099	ltpFR	19	5	1	COMPANION	357	n/a	n/a	1	n/a	n/a	n/a	n/a	n/a
725460	REC_WORD	wordpools/wasnorm_wordpool.txt	LTP099	ltpFR	19	5	1	OUTFIT	988	n/a	n/a	0	n/a	n/a	n/a	n/a	n/a
726168	REC_WORD	wordpools/wasnorm_wordpool.txt	LTP099	ltpFR	19	5	1	UNIFORM	1539	n/a	n/a	0	n/a	n/a	n/a	n/a	n/a
728653	REC_WORD	wordpools/wasnorm_wordpool.txt	LTP099	ltpFR	19	5	1	PROFESSIONAL	1130	n/a	n/a	1	n/a	n/a	n/a	n/a	n/a
734265	REC_WORD	wordpools/wasnorm_wordpool.txt	LTP099	ltpFR	19	5	1	DOCTOR	478	n/a	n/a	1	n/a	n/a	n/a	n/a	n/a
742611	REC_WORD	wordpools/wasnorm_wordpool.txt	LTP099	ltpFR	19	5	n/a	PATIO	1025	n/a	n/a	n/a	n/a	n/a	n/a	n/a	n/a
755681	REC_WORD	wordpools/wasnorm_wordpool.txt	LTP099	ltpFR	19	5	-1	FAN	551	n/a	n/a	-1	n/a	n/a	n/a	n/a	n/a
761174	REC_WORD	wordpools/wasnorm_wordpool.txt	LTP099	ltpFR	19	5	n/a	CRICKET	408	n/a	n/a	n/a	n/a	n/a	n/a	n/a	n/a
766756	REC_WORD	wordpools/wasnorm_wordpool.txt	LTP099	ltpFR	19	5	1	ALBUM	14	n/a	n/a	0	n/a	n/a	n/a	n/a	n/a
767734	REC_WORD	wordpools/wasnorm_wordpool.txt	LTP099	ltpFR	19	5	1	PICTURE	1061	n/a	n/a	0	n/a	n/a	n/a	n/a	n/a
768392	REC_WORD	wordpools/wasnorm_wordpool.txt	LTP099	ltpFR	19	5	1	FAMILY	550	n/a	n/a	0	n/a	n/a	n/a	n/a	n/a
773122	REC_WORD	wordpools/wasnorm_wordpool.txt	LTP099	ltpFR	19	5	1	BUGGY	188	n/a	n/a	0	n/a	n/a	n/a	n/a	n/a
774359	REC_WORD	wordpools/wasnorm_wordpool.txt	LTP099	ltpFR	19	5	1	LONDON	843	n/a	n/a	0	n/a	n/a	n/a	n/a	n/a
784710	REC_WORD	wordpools/wasnorm_wordpool.txt	LTP099	ltpFR	19	5	1	SHAMPOO	1274	n/a	n/a	0	n/a	n/a	n/a	n/a	n/a
799239	WORD	wordpools/wasnorm_wordpool.txt	LTP099	ltpFR	19	6	0	DIRECTOR	471	n/a	n/a	0	0.57763671875	0.412841796875	1	lower	amplitud.ttf
803113	WORD	wordpools/wasnorm_wordpool.txt	LTP099	ltpFR	19	6	0	STRING	1394	n/a	n/a	0	0.57763671875	0.412841796875	1	lower	amplitud.ttf
807263	WORD	wordpools/wasnorm_wordpool.txt	LTP099	ltpFR	19	6	0	PENGUIN	1044	n/a	n/a	0	0.57763671875	0.412841796875	1	lower	amplitud.ttf
811296	WORD	wordpools/wasnorm_wordpool.txt	LTP099	ltpFR	19	6	0	MEDAL	885	n/a	n/a	0	0.57763671875	0.412841796875	1	lower	amplitud.ttf
815271	WORD	wordpools/wasnorm_wordpool.txt	LTP099	ltpFR	19	6	0	PENNY	1045	n/a	n/a	0	0.57763671875	0.412841796875	1	lower	amplitud.ttf
819179	WORD	wordpools/wasnorm_wordpool.txt	LTP099	ltpFR	19	6	0	ANTENNA	28	n/a	n/a	0	0.57763671875	0.412841796875	1	lower	amplitud.ttf
823353	WORD	wordpools/wasnorm_wordpool.txt	LTP099	ltpFR	19	6	0	TUBA	1515	n/a	n/a	0	0.57763671875	0.412841796875	1	lower	amplitud.ttf
827286	WORD	wordpools/wasnorm_wordpool.txt	LTP099	ltpFR	19	6	0	RIBBON	1189	n/a	n/a	0	0.57763671875	0.412841796875	1	lower	amplitud.ttf
831328	WORD	wordpools/wasnorm_wordpool.txt	LTP099	ltpFR	19	6	0	RANCH	1166	n/a	n/a	1	0.57763671875	0.412841796875	1	lower	amplitud.ttf
835211	WORD	wordpools/wasnorm_wordpool.txt	LTP099	ltpFR	19	6	0	CRICKET	408	n/a	n/a	0	0.57763671875	0.412841796875	1	lower	amplitud.ttf
839244	WORD	wordpools/wasnorm_wordpool.txt	LTP099	ltpFR	19	6	0	BUN	197	n/a	n/a	0	0.57763671875	0.412841796875	1	lower	amplitud.ttf
843335	WORD	wordpools/wasnorm_wordpool.txt	LTP099	ltpFR	19	6	0	BREAD	170	n/a	n/a	0	0.57763671875	0.412841796875	1	lower	amplitud.ttf
847293	WORD	wordpools/wasnorm_wordpool.txt	LTP099	ltpFR	19	6	0	GUITAR	670	n/a	n/a	0	0.57763671875	0.412841796875	1	lower	amplitud.ttf
851276	WORD	wordpools/wasnorm_wordpool.txt	LTP099	ltpFR	19	6	0	SHARK	1275	n/a	n/a	1	0.57763671875	0.412841796875	1	lower	amplitud.ttf
855451	WORD	wordpools/wasnorm_wordpool.txt	LTP099	ltpFR	19	6	0	ELM	527	n/a	n/a	1	0.57763671875	0.412841796875	1	lower	amplitud.ttf
859651	WORD	wordpools/wasnorm_wordpool.txt	LTP099	ltpFR	19	6	0	WILDERNESS	1610	n/a	n/a	1	0.57763671875	0.412841796875	1	lower	amplitud.ttf
865451	REC_START	n/a	LTP099	ltpFR	19	6	n/a	n/a	n/a	n/a	n/a	n/a	n/a	n/a	n/a	n/a	n/a
866079	REC_WORD	wordpools/wasnorm_wordpool.txt	LTP099	ltpFR	19	6	0	GUITAR	670	n/a	n/a	0	n/a	n/a	n/a	n/a	n/a
866673	REC_WORD	wordpools/wasnorm_wordpool.txt	LTP099	ltpFR	19	6	0	SHARK	1275	n/a	n/a	1	n/a	n/a	n/a	n/a	n/a
867526	REC_WORD	wordpools/wasnorm_wordpool.txt	LTP099	ltpFR	19	6	0	ELM	527	n/a	n/a	1	n/a	n/a	n/a	n/a	n/a
868434	REC_WORD	wordpools/wasnorm_wordpool.txt	LTP099	ltpFR	19	6	0	WILDERNESS	1610	n/a	n/a	1	n/a	n/a	n/a	n/a	n/a
869272	REC_WORD	wordpools/wasnorm_wordpool.txt	LTP099	ltpFR	19	6	0	PENGUIN	1044	n/a	n/a	0	n/a	n/a	n/a	n/a	n/a
869976	REC_WORD	wordpools/wasnorm_wordpool.txt	LTP099	ltpFR	19	6	0	ANTENNA	28	n/a	n/a	0	n/a	n/a	n/a	n/a	n/a
873073	REC_WORD	wordpools/wasnorm_wordpool.txt	LTP099	ltpFR	19	6	0	STRING	1394	n/a	n/a	0	n/a	n/a	n/a	n/a	n/a
874141	REC_WORD	wordpools/wasnorm_wordpool.txt	LTP099	ltpFR	19	6	0	RIBBON	1189	n/a	n/a	0	n/a	n/a	n/a	n/a	n/a
874899	REC_WORD	wordpools/wasnorm_wordpool.txt	LTP099	ltpFR	19	6	0	TUBA	1515	n/a	n/a	0	n/a	n/a	n/a	n/a	n/a
877020	REC_WORD	wordpools/wasnorm_wordpool.txt	LTP099	ltpFR	19	6	0	PENNY	1045	n/a	n/a	0	n/a	n/a	n/a	n/a	n/a
881794	REC_WORD	wordpools/wasnorm_wordpool.txt	LTP099	ltpFR	19	6	0	RANCH	1166	n/a	n/a	1	n/a	n/a	n/a	n/a	n/a
884443	REC_WORD	wordpools/wasnorm_wordpool.txt	LTP099	ltpFR	19	6	n/a	CELLO	268	n/a	n/a	n/a	n/a	n/a	n/a	n/a	n/a
893582	REC_WORD	wordpools/wasnorm_wordpool.txt	LTP099	ltpFR	19	6	-1	FAN	551	n/a	n/a	-1	n/a	n/a	n/a	n/a	n/a
896585	REC_WORD	wordpools/wasnorm_wordpool.txt	LTP099	ltpFR	19	6	1	FIST	572	n/a	n/a	0	n/a	n/a	n/a	n/a	n/a
933002	REC_WORD	wordpools/wasnorm_wordpool.txt	LTP099	ltpFR	19	6	n/a	FISH	571	n/a	n/a	n/a	n/a	n/a	n/a	n/a	n/a
942843	WORD	wordpools/wasnorm_wordpool.txt	LTP099	ltpFR	19	7	0	DOVE	491	n/a	n/a	0	0.57763671875	0.412841796875	1	lower	amplitud.ttf
946801	WORD	wordpools/wasnorm_wordpool.txt	LTP099	ltpFR	19	7	0	OCEAN	970	n/a	n/a	1	0.57763671875	0.412841796875	1	lower	amplitud.ttf
950718	WORD	wordpools/wasnorm_wordpool.txt	LTP099	ltpFR	19	7	0	BERRY	122	n/a	n/a	0	0.57763671875	0.412841796875	1	lower	amplitud.ttf
954859	WORD	wordpools/wasnorm_wordpool.txt	LTP099	ltpFR	19	7	0	ICING	732	n/a	n/a	0	0.57763671875	0.412841796875	1	lower	amplitud.ttf
958926	WORD	wordpools/wasnorm_wordpool.txt	LTP099	ltpFR	19	7	0	SALAD	1224	n/a	n/a	0	0.57763671875	0.412841796875	1	lower	amplitud.ttf
962993	WORD	wordpools/wasnorm_wordpool.txt	LTP099	ltpFR	19	7	0	EYELASH	546	n/a	n/a	0	0.57763671875	0.412841796875	1	lower	amplitud.ttf
966808	WORD	wordpools/wasnorm_wordpool.txt	LTP099	ltpFR	19	7	0	BLOUSE	139	n/a	n/a	0	0.57763671875	0.412841796875	1	lower	amplitud.ttf
970799	WORD	wordpools/wasnorm_wordpool.txt	LTP099	ltpFR	19	7	0	CUFF	423	n/a	n/a	0	0.57763671875	0.412841796875	1	lower	amplitud.ttf
974824	WORD	wordpools/wasnorm_wordpool.txt	LTP099	ltpFR	19	7	0	SKULL	1320	n/a	n/a	0	0.57763671875	0.412841796875	1	lower	amplitud.ttf
978807	WORD	wordpools/wasnorm_wordpool.txt	LTP099	ltpFR	19	7	0	YOLK	1633	n/a	n/a	0	0.57763671875	0.412841796875	1	lower	amplitud.ttf
982758	WORD	wordpools/wasnorm_wordpool.txt	LTP099	ltpFR	19	7	0	PIER	1063	n/a	n/a	1	0.57763671875	0.412841796875	1	lower	amplitud.ttf
986641	WORD	wordpools/wasnorm_wordpool.txt	LTP099	ltpFR	19	7	0	JACKET	747	n/a	n/a	0	0.57763671875	0.412841796875	1	lower	amplitud.ttf
990640	WORD	wordpools/wasnorm_wordpool.txt	LTP099	ltpFR	19	7	0	CAN	225	n/a	n/a	0	0.57763671875	0.412841796875	1	lower	amplitud.ttf
994615	WORD	wordpools/wasnorm_wordpool.txt	LTP099	ltpFR	19	7	0	FARM	552	n/a	n/a	1	0.57763671875	0.412841796875	1	lower	amplitud.ttf
998698	WORD	wordpools/wasnorm_wordpool.txt	LTP099	ltpFR	19	7	0	CHIPMUNK	304	n/a	n/a	0	0.57763671875	0.412841796875	1	lower	amplitud.ttf
1002639	WORD	wordpools/wasnorm_wordpool.txt	LTP099	ltpFR	19	7	0	PELICAN	1039	n/a	n/a	1	0.57763671875	0.412841796875	1	lower	amplitud.ttf
1008581	REC_START	n/a	LTP099	ltpFR	19	7	n/a	n/a	n/a	n/a	n/a	n/a	n/a	n/a	n/a	n/a	n/a
1009174	REC_WORD	wordpools/wasnorm_wordpool.txt	LTP099	ltpFR	19	7	0	CAN	225	n/a	n/a	0	n/a	n/a	n/a	n/a	n/a
1009788	REC_WORD	wordpools/wasnorm_wordpool.txt	LTP099	ltpFR	19	7	0	FARM	552	n/a	n/a	1	n/a	n/a	n/a	n/a	n/a
1010576	REC_WORD	wordpools/wasnorm_wordpool.txt	LTP099	ltpFR	19	7	0	CHIPMUNK	304	n/a	n/a	0	n/a	n/a	n/a	n/a	n/a
1011345	REC_WORD	wordpools/wasnorm_wordpool.txt	LTP099	ltpFR	19	7	0	PELICAN	1039	n/a	n/a	1	n/a	n/a	n/a	n/a	n/a
1012562	REC_WORD	wordpools/wasnorm_wordpool.txt	LTP099	ltpFR	19	7	0	DOVE	491	n/a	n/a	0	n/a	n/a	n/a	n/a	n/a
1013649	REC_WORD	wordpools/wasnorm_wordpool.txt	LTP099	ltpFR	19	7	0	BERRY	122	n/a	n/a	0	n/a	n/a	n/a	n/a	n/a
1015221	REC_WORD	wordpools/wasnorm_wordpool.txt	LTP099	ltpFR	19	7	0	ICING	732	n/a	n/a	0	n/a	n/a	n/a	n/a	n/a
1016084	REC_WORD	wordpools/wasnorm_wordpool.txt	LTP099	ltpFR	19	7	0	SALAD	1224	n/a	n/a	0	n/a	n/a	n/a	n/a	n/a
1018992	REC_WORD	wordpools/wasnorm_wordpool.txt	LTP099	ltpFR	19	7	0	BLOUSE	139	n/a	n/a	0	n/a	n/a	n/a	n/a	n/a
1021102	REC_WORD	wordpools/wasnorm_wordpool.txt	LTP099	ltpFR	19	7	0	PIER	1063	n/a	n/a	1	n/a	n/a	n/a	n/a	n/a
1023527	REC_WORD	wordpools/wasnorm_wordpool.txt	LTP099	ltpFR	19	7	0	CUFF	423	n/a	n/a	0	n/a	n/a	n/a	n/a	n/a
1033065	REC_WORD	wordpools/wasnorm_wordpool.txt	LTP099	ltpFR	19	7	0	EYELASH	546	n/a	n/a	0	n/a	n/a	n/a	n/a	n/a
1044289	REC_WORD_VV	wordpools/wasnorm_wordpool.txt	LTP099	ltpFR	19	7	n/a	<>	-1	n/a	n/a	n/a	n/a	n/a	n/a	n/a	n/a
1044619	REC_WORD	wordpools/wasnorm_wordpool.txt	LTP099	ltpFR	19	7	n/a	SEAGULL	1261	n/a	n/a	n/a	n/a	n/a	n/a	n/a	n/a
1046754	REC_WORD	wordpools/wasnorm_wordpool.txt	LTP099	ltpFR	19	7	0	PELICAN	1039	n/a	n/a	1	n/a	n/a	n/a	n/a	n/a
1086865	WORD	wordpools/wasnorm_wordpool.txt	LTP099	ltpFR	19	8	0	ARROW	40	n/a	n/a	0	0.57763671875	0.412841796875	1	lower	amplitud.ttf
1091066	WORD	wordpools/wasnorm_wordpool.txt	LTP099	ltpFR	19	8	0	MARROW	872	n/a	n/a	0	0.57763671875	0.412841796875	1	lower	amplitud.ttf
1095174	WORD	wordpools/wasnorm_wordpool.txt	LTP099	ltpFR	19	8	0	SAUSAGE	1238	n/a	n/a	0	0.57763671875	0.412841796875	1	lower	amplitud.ttf
1099190	WORD	wordpools/wasnorm_wordpool.txt	LTP099	ltpFR	19	8	0	MOUNTAIN	924	n/a	n/a	1	0.57763671875	0.412841796875	1	lower	amplitud.ttf
1103107	WORD	wordpools/wasnorm_wordpool.txt	LTP099	ltpFR	19	8	0	TONGUE	1479	n/a	n/a	0	0.57763671875	0.412841796875	1	lower	amplitud.ttf
1107098	WORD	wordpools/wasnorm_wordpool.txt	LTP099	ltpFR	19	8	0	OFFICER	973	n/a	n/a	1	0.57763671875	0.412841796875	1	lower	amplitud.ttf
1110998	WORD	wordpools/wasnorm_wordpool.txt	LTP099	ltpFR	19	8	0	HAY	693	n/a	n/a	0	0.57763671875	0.412841796875	1	lower	amplitud.ttf
1115081	WORD	wordpools/wasnorm_wordpool.txt	LTP099	ltpFR	19	8	0	CHEMIST	292	n/a	n/a	1	0.57763671875	0.412841796875	1	lower	amplitud.ttf
1118964	WORD	wordpools/wasnorm_wordpool.txt	LTP099	ltpFR	19	8	0	SPY	1360	n/a	n/a	0	0.57763671875	0.412841796875	1	lower	amplitud.ttf
1122913	WORD	wordpools/wasnorm_wordpool.txt	LTP099	ltpFR	19	8	0	MARINE	869	n/a	n/a	0	0.57763671875	0.412841796875	1	lower	amplitud.ttf
1126996	WORD	wordpools/wasnorm_wordpool.txt	LTP099	ltpFR	19	8	0	LAGOON	795	n/a	n/a	1	0.57763671875	0.412841796875	1	lower	amplitud.ttf
1131021	WORD	wordpools/wasnorm_wordpool.txt	LTP099	ltpFR	19	8	0	WORKER	1621	n/a	n/a	1	0.57763671875	0.412841796875	1	lower	amplitud.ttf
1134962	WORD	wordpools/wasnorm_wordpool.txt	LTP099	ltpFR	19	8	0	ELECTRICIAN	521	n/a	n/a	1	0.57763671875	0.412841796875	1	lower	amplitud.ttf
1139012	WORD	wordpools/wasnorm_wordpool.txt	LTP099	ltpFR	19	8	0	KIDNEY	776	n/a	n/a	0	0.57763671875	0.412841796875	1	lower	amplitud.ttf
1143162	WORD	wordpools/wasnorm_wordpool.txt	LTP099	ltpFR	19	8	0	HEART	697	n/a	n/a	0	0.57763671875	0.412841796875	1	lower	amplitud.ttf
1147195	WORD	wordpools/wasnorm_wordpool.txt	LTP099	ltpFR	19	8	0	HAM	678	n/a	n/a	0	0.57763671875	0.412841796875	1	lower	amplitud.ttf
1153095	REC_START	n/a	LTP099	ltpFR	19	8	n/a	n/a	n/a	n/a	n/a	n/a	n/a	n/a	n/a	n/a	n/a
1153594	REC_WORD	wordpools/wasnorm_wordpool.txt	LTP099	ltpFR	19	8	0	HAM	678	n/a	n/a	0	n/a	n/a	n/a	n/a	n/a
1154427	REC_WORD	wordpools/wasnorm_wordpool.txt	LTP099	ltpFR	19	8	0	WORKER	1621	n/a	n/a	1	n/a	n/a	n/a	n/a	n/a
1155484	REC_WORD	wordpools/wasnorm_wordpool.txt	LTP099	ltpFR	19	8	1	PROFESSIONAL	1130	n/a	n/a	1	n/a	n/a	n/a	n/a	n/a
1156876	REC_WORD	wordpools/wasnorm_wordpool.txt	LTP099	ltpFR	19	8	n/a	SURGEON	1413	n/a	n/a	n/a	n/a	n/a	n/a	n/a	n/a
1161176	REC_WORD	wordpools/wasnorm_wordpool.txt	LTP099	ltpFR	19	8	0	ELECTRICIAN	521	n/a	n/a	1	n/a	n/a	n/a	n/a	n/a
1170515	REC_WORD	wordpools/wasnorm_wordpool.txt	LTP099	ltpFR	19	8	0	OCEAN	970	n/a	n/a	1	n/a	n/a	n/a	n/a	n/a
1172870	REC_WORD	wordpools/wasnorm_wordpool.txt	LTP099	ltpFR	19	8	0	LAGOON	795	n/a	n/a	1	n/a	n/a	n/a	n/a	n/a
1176212	REC_WORD	wordpools/wasnorm_wordpool.txt	LTP099	ltpFR	19	8	0	MARINE	869	n/a	n/a	0	n/a	n/a	n/a	n/a	n/a
1200976	REC_WORD	wordpools/wasnorm_wordpool.txt	LTP099	ltpFR	19	8	n/a	COTTON	385	n/a	n/a	n/a	n/a	n/a	n/a	n/a	n/a
1208908	REC_WORD	wordpools/wasnorm_wordpool.txt	LTP099	ltpFR	19	8	n/a	FROG	608	n/a	n/a	n/a	n/a	n/a	n/a	n/a	n/a
1210893	REC_WORD	wordpools/wasnorm_wordpool.txt	LTP099	ltpFR	19	8	-1	GRASSHOPPER	656	n/a	n/a	-1	n/a	n/a	n/a	n/a	n/a
1231288	WORD	wordpools/wasnorm_wordpool.txt	LTP099	ltpFR	19	9	0	OMELET	976	n/a	n/a	0	0.57763671875	0.412841796875	1	lower	amplitud.ttf
1235405	WORD	wordpools/wasnorm_wordpool.txt	LTP099	ltpFR	19	9	0	SPATULA	1348	n/a	n/a	0	0.57763671875	0.412841796875	1	lower	amplitud.ttf
1239313	WORD	wordpools/wasnorm_wordpool.txt	LTP099	ltpFR	19	9	0	CAPTIVE	240	n/a	n/a	1	0.57763671875	0.412841796875	1	lower	amplitud.ttf
1243471	WORD	wordpools/wasnorm_wordpool.txt	LTP099	ltpFR	19	9	1	CONVICT	371	n/a	n/a	1	0.422607421875	0.5869140625	0	upper	zerothre.ttf
1247537	WORD	wordpools/wasnorm_wordpool.txt	LTP099	ltpFR	19	9	1	PAPER	1011	n/a	n/a	0	0.422607421875	0.5869140625	0	upper	zerothre.ttf
1251437	WORD	wordpools/wasnorm_wordpool.txt	LTP099	ltpFR	19	9	1	ROBOT	1200	n/a	n/a	1	0.422607421875	0.5869140625	0	upper	zerothre.ttf
1255545	WORD	wordpools/wasnorm_wordpool.txt	LTP099	ltpFR	19	9	1	ROD	1203	n/a	n/a	0	0.422607421875	0.5869140625	0	upper	zerothre.ttf
1259519	WORD	wordpools/wasnorm_wordpool.txt	LTP099	ltpFR	19	9	0	MARGARINE	868	n/a	n/a	0	0.57763671875	0.412841796875	1	lower	amplitud.ttf
1263344	WORD	wordpools/wasnorm_wordpool.txt	LTP099	ltpFR	19	9	0	OUTLAW	989	n/a	n/a	1	0.57763671875	0.412841796875	1	lower	amplitud.ttf
1267260	WORD	wordpools/wasnorm_wordpool.txt	LTP099	ltpFR	19	9	1	CANE	231	n/a	n/a	1	0.422607421875	0.5869140625	0	upper	zerothre.ttf
1271343	WORD	wordpools/wasnorm_wordpool.txt	LTP099	ltpFR	19	9	1	LITERATURE	831	n/a	n/a	1	0.422607421875	0.5869140625	0	upper	zerothre.ttf
1275460	WORD	wordpools/wasnorm_wordpool.txt	LTP099	ltpFR	19	9	1	STAPLE	1371	n/a	n/a	0	0.422607421875	0.5869140625	0	upper	zerothre.ttf
1279385	WORD	wordpools/wasnorm_wordpool.txt	LTP099	ltpFR	19	9	1	ATTORNEY	58	n/a	n/a	1	0.422607421875	0.5869140625	0	upper	zerothre.ttf
1283451	WORD	wordpools/wasnorm_wordpool.txt	LTP099	ltpFR	19	9	0	FUDGE	611	n/a	n/a	0	0.57763671875	0.412841796875	1	lower	amplitud.ttf
1287651	WORD	wordpools/wasnorm_wordpool.txt	LTP099	ltpFR	19	9	0	THIEF	1456	n/a	n/a	1	0.57763671875	0.412841796875	1	lower	amplitud.ttf
1291484	WORD	wordpools/wasnorm_wordpool.txt	LTP099	ltpFR	19	9	0	WHEAT	1602	n/a	n/a	0	0.57763671875	0.412841796875	1	lower	amplitud.ttf
1297042	REC_START	n/a	LTP099	ltpFR	19	9	n/a	n/a	n/a	n/a	n/a	n/a	n/a	n/a	n/a	n/a	n/a
1297745	REC_WORD	wordpools/wasnorm_wordpool.txt	LTP099	ltpFR	19	9	0	FUDGE	611	n/a	n/a	0	n/a	n/a	n/a	n/a	n/a
1298548	REC_WORD	wordpools/wasnorm_wordpool.txt	LTP099	ltpFR	19	9	0	THIEF	1456	n/a	n/a	1	n/a	n/a	n/a	n/a	n/a
1299182	REC_WORD	wordpools/wasnorm_wordpool.txt	LTP099	ltpFR	19	9	0	WHEAT	1602	n/a	n/a	0	n/a	n/a	n/a	n/a	n/a
1301197	REC_WORD	wordpools/wasnorm_wordpool.txt	LTP099	ltpFR	19	9	1	OATMEAL	967	n/a	n/a	1	n/a	n/a	n/a	n/a	n/a
1302459	REC_WORD	wordpools/wasnorm_wordpool.txt	LTP099	ltpFR	19	9	0	OMELET	976	n/a	n/a	0	n/a	n/a	n/a	n/a	n/a
1303098	REC_WORD	wordpools/wasnorm_wordpool.txt	LTP099	ltpFR	19	9	0	SPATULA	1348	n/a	n/a	0	n/a	n/a	n/a	n/a	n/a
1304216	REC_WORD	wordpools/wasnorm_wordpool.txt	LTP099	ltpFR	19	9	1	CONVICT	371	n/a	n/a	1	n/a	n/a	n/a	n/a	n/a
1307289	REC_WORD	wordpools/wasnorm_wordpool.txt	LTP099	ltpFR	19	9	0	THIEF	1456	n/a	n/a	1	n/a	n/a	n/a	n/a	n/a
1309933	REC_WORD	wordpools/wasnorm_wordpool.txt	LTP099	ltpFR	19	9	0	CAPTIVE	240	n/a	n/a	1	n/a	n/a	n/a	n/a	n/a
1314178	REC_WORD	wordpools/wasnorm_wordpool.txt	LTP099	ltpFR	19	9	n/a	SALT	1229	n/a	n/a	n/a	n/a	n/a	n/a	n/a	n/a
1326964	REC_WORD	wordpools/wasnorm_wordpool.txt	LTP099	ltpFR	19	9	n/a	BOOK	149	n/a	n/a	n/a	n/a	n/a	n/a	n/a	n/a
1330975	REC_WORD	wordpools/wasnorm_wordpool.txt	LTP099	ltpFR	19	9	n/a	LIBRARY	816	n/a	n/a	n/a	n/a	n/a	n/a	n/a	n/a
1338253	REC_WORD	wordpools/wasnorm_wordpool.txt	LTP099	ltpFR	19	9	n/a	COP	376	n/a	n/a	n/a	n/a	n/a	n/a	n/a	n/a
1351762	REC_WORD	wordpools/wasnorm_wordpool.txt	LTP099	ltpFR	19	9	0	ARROW	40	n/a	n/a	0	n/a	n/a	n/a	n/a	n/a
1353244	REC_WORD	wordpools/wasnorm_wordpool.txt	LTP099	ltpFR	19	9	0	MARROW	872	n/a	n/a	0	n/a	n/a	n/a	n/a	n/a
1367562	REC_WORD	wordpools/wasnorm_wordpool.txt	LTP099	ltpFR	19	9	n/a	TOWER	1490	n/a	n/a	n/a	n/a	n/a	n/a	n/a	n/a
1376235	WORD	wordpools/wasnorm_wordpool.txt	LTP099	ltpFR	19	10	-1	SPICE	1350	n/a	n/a	-1	1.0	1.0	1	upper	Verdana.ttf
1380185	WORD	wordpools/wasnorm_wordpool.txt	LTP099	ltpFR	19	10	-1	BAKER	71	n/a	n/a	-1	1.0	1.0	1	upper	Verdana.ttf
1384193	WORD	wordpools/wasnorm_wordpool.txt	LTP099	ltpFR	19	10	-1	MAP	865	n/a	n/a	-1	1.0	1.0	1	upper	Verdana.ttf
1388018	WORD	wordpools/wasnorm_wordpool.txt	LTP099	ltpFR	19	10	-1	ROAD	1196	n/a	n/a	-1	1.0	1.0	1	upper	Verdana.ttf
1391884	WORD	wordpools/wasnorm_wordpool.txt	LTP099	ltpFR	19	10	-1	LINT	826	n/a	n/a	-1	1.0	1.0	1	upper	Verdana.ttf
1395858	WORD	wordpools/wasnorm_wordpool.txt	LTP099	ltpFR	19	10	-1	COSTUME	383	n/a	n/a	-1	1.0	1.0	1	upper	Verdana.ttf
1399799	WORD	wordpools/wasnorm_wordpool.txt	LTP099	ltpFR	19	10	-1	CHAIN	273	n/a	n/a	-1	1.0	1.0	1	upper	Verdana.ttf
1403816	WORD	wordpools/wasnorm_wordpool.txt	LTP099	ltpFR	19	10	-1	ASTRONAUT	51	n/a	n/a	-1	1.0	1.0	1	upper	Verdana.ttf
1408016	WORD	wordpools/wasnorm_wordpool.txt	LTP099	ltpFR	19	10	-1	CLOVE	329	n/a	n/a	-1	1.0	1.0	1	upper	Verdana.ttf
1412091	WORD	wordpools/wasnorm_wordpool.txt	LTP099	ltpFR	19	10	-1	MONKEY	911	n/a	n/a	-1	1.0	1.0	1	upper	Verdana.ttf
1416216	WORD	wordpools/wasnorm_wordpool.txt	LTP099	ltpFR	19	10	-1	CARAVAN	242	n/a	n/a	-1	1.0	1.0	1	upper	Verdana.ttf
1420249	WORD	wordpools/wasnorm_wordpool.txt	LTP099	ltpFR	19	10	-1	RECIPE	1175	n/a	n/a	-1	1.0	1.0	1	upper	Verdana.ttf
1424182	WORD	wordpools/wasnorm_wordpool.txt	LTP099	ltpFR	19	10	-1	COOK	372	n/a	n/a	-1	1.0	1.0	1	upper	Verdana.ttf
1428181	WORD	wordpools/wasnorm_wordpool.txt	LTP099	ltpFR	19	10	-1	WALNUT	1584	n/a	n/a	-1	1.0	1.0	1	upper	Verdana.ttf
1432198	WORD	wordpools/wasnorm_wordpool.txt	LTP099	ltpFR	19	10	-1	GREASE	660	n/a	n/a	-1	1.0	1.0	1	upper	Verdana.ttf
1436189	WORD	wordpools/wasnorm_wordpool.txt	LTP099	ltpFR	19	10	-1	SUPERMARKET	1409	n/a	n/a	-1	1.0	1.0	1	upper	Verdana.ttf
1442164	REC_START	n/a	LTP099	ltpFR	19	10	n/a	n/a	n/a	n/a	n/a	n/a	n/a	n/a	n/a	n/a	n/a
1443137	REC_WORD	wordpools/wasnorm_wordpool.txt	LTP099	ltpFR	19	10	-1	RECIPE	1175	n/a	n/a	-1	n/a	n/a	n/a	n/a	n/a
1443995	REC_WORD	wordpools/wasnorm_wordpool.txt	LTP099	ltpFR	19	10	-1	COOK	372	n/a	n/a	-1	n/a	n/a	n/a	n/a	n/a
1444728	REC_WORD	wordpools/wasnorm_wordpool.txt	LTP099	ltpFR	19	10	-1	WALNUT	1584	n/a	n/a	-1	n/a	n/a	n/a	n/a	n/a
1445546	REC_WORD	wordpools/wasnorm_wordpool.txt	LTP099	ltpFR	19	10	-1	GREASE	660	n/a	n/a	-1	n/a	n/a	n/a	n/a	n/a
1446195	REC_WORD	wordpools/wasnorm_wordpool.txt	LTP099	ltpFR	19	10	-1	SUPERMARKET	1409	n/a	n/a	-1	n/a	n/a	n/a	n/a	n/a
1447776	REC_WORD	wordpools/wasnorm_wordpool.txt	LTP099	ltpFR	19	10	-1	ASTRONAUT	51	n/a	n/a	-1	n/a	n/a	n/a	n/a	n/a
1449248	REC_WORD	wordpools/wasnorm_wordpool.txt	LTP099	ltpFR	19	10	-1	MONKEY	911	n/a	n/a	-1	n/a	n/a	n/a	n/a	n/a
1450849	REC_WORD	wordpools/wasnorm_wordpool.txt	LTP099	ltpFR	19	10	-1	CLOVE	329	n/a	n/a	-1	n/a	n/a	n/a	n/a	n/a
1453169	REC_WORD	wordpools/wasnorm_wordpool.txt	LTP099	ltpFR	19	10	-1	GREASE	660	n/a	n/a	-1	n/a	n/a	n/a	n/a	n/a
1457125	REC_WORD	wordpools/wasnorm_wordpool.txt	LTP099	ltpFR	19	10	n/a	COOKBOOK	373	n/a	n/a	n/a	n/a	n/a	n/a	n/a	n/a
1474351	REC_WORD	wordpools/wasnorm_wordpool.txt	LTP099	ltpFR	19	10	-1	MAP	865	n/a	n/a	-1	n/a	n/a	n/a	n/a	n/a
1475094	REC_WORD_VV	wordpools/wasnorm_wordpool.txt	LTP099	ltpFR	19	10	n/a	<>	-1	n/a	n/a	n/a	n/a	n/a	n/a	n/a	n/a
1475552	REC_WORD	wordpools/wasnorm_wordpool.txt	LTP099	ltpFR	19	10	-1	ROAD	1196	n/a	n/a	-1	n/a	n/a	n/a	n/a	n/a
1477399	REC_WORD	wordpools/wasnorm_wordpool.txt	LTP099	ltpFR	19	10	-1	WALNUT	1584	n/a	n/a	-1	n/a	n/a	n/a	n/a	n/a
1493961	REC_WORD	wordpools/wasnorm_wordpool.txt	LTP099	ltpFR	19	10	-1	BAKER	71	n/a	n/a	-1	n/a	n/a	n/a	n/a	n/a
1500625	REC_WORD	wordpools/wasnorm_wordpool.txt	LTP099	ltpFR	19	10	-1	SPICE	1350	n/a	n/a	-1	n/a	n/a	n/a	n/a	n/a
1520432	WORD	wordpools/wasnorm_wordpool.txt	LTP099	ltpFR	19	11	0	HOME	712	n/a	n/a	1	0.57763671875	0.412841796875	1	lower	amplitud.ttf
1524507	WORD	wordpools/wasnorm_wordpool.txt	LTP099	ltpFR	19	11	0	GATE	625	n/a	n/a	1	0.57763671875	0.412841796875	1	lower	amplitud.ttf
1528715	WORD	wordpools/wasnorm_wordpool.txt	LTP099	ltpFR	19	11	0	BLANKET	135	n/a	n/a	1	0.57763671875	0.412841796875	1	lower	amplitud.ttf
1532756	WORD	wordpools/wasnorm_wordpool.txt	LTP099	ltpFR	19	11	0	BELLY	119	n/a	n/a	0	0.57763671875	0.412841796875	1	lower	amplitud.ttf
1536898	WORD	wordpools/wasnorm_wordpool.txt	LTP099	ltpFR	19	11	1	ORGAN	984	n/a	n/a	1	0.422607421875	0.5869140625	0	upper	zerothre.ttf
1540838	WORD	wordpools/wasnorm_wordpool.txt	LTP099	ltpFR	19	11	1	GOVERNOR	651	n/a	n/a	1	0.422607421875	0.5869140625	0	upper	zerothre.ttf
1544714	WORD	wordpools/wasnorm_wordpool.txt	LTP099	ltpFR	19	11	1	SENATOR	1268	n/a	n/a	1	0.422607421875	0.5869140625	0	upper	zerothre.ttf
1548763	WORD	wordpools/wasnorm_wordpool.txt	LTP099	ltpFR	19	11	1	GLASSES	640	n/a	n/a	0	0.422607421875	0.5869140625	0	upper	zerothre.ttf
1552771	WORD	wordpools/wasnorm_wordpool.txt	LTP099	ltpFR	19	11	0	BEAD	103	n/a	n/a	0	0.57763671875	0.412841796875	1	lower	amplitud.ttf
1556713	WORD	wordpools/wasnorm_wordpool.txt	LTP099	ltpFR	19	11	0	BUG	187	n/a	n/a	0	0.57763671875	0.412841796875	1	lower	amplitud.ttf
1560870	WORD	wordpools/wasnorm_wordpool.txt	LTP099	ltpFR	19	11	0	GLACIER	638	n/a	n/a	1	0.57763671875	0.412841796875	1	lower	amplitud.ttf
1564786	WORD	wordpools/wasnorm_wordpool.txt	LTP099	ltpFR	19	11	0	HOUND	724	n/a	n/a	1	0.57763671875	0.412841796875	1	lower	amplitud.ttf
1568720	WORD	wordpools/wasnorm_wordpool.txt	LTP099	ltpFR	19	11	1	CATCHER	258	n/a	n/a	1	0.422607421875	0.5869140625	0	upper	zerothre.ttf
1572852	WORD	wordpools/wasnorm_wordpool.txt	LTP099	ltpFR	19	11	1	GLASS	639	n/a	n/a	1	0.422607421875	0.5869140625	0	upper	zerothre.ttf
1576777	WORD	wordpools/wasnorm_wordpool.txt	LTP099	ltpFR	19	11	1	LENS	811	n/a	n/a	0	0.422607421875	0.5869140625	0	upper	zerothre.ttf
1580919	WORD	wordpools/wasnorm_wordpool.txt	LTP099	ltpFR	19	11	1	EARRING	514	n/a	n/a	0	0.422607421875	0.5869140625	0	upper	zerothre.ttf
1586886	REC_START	n/a	LTP099	ltpFR	19	11	n/a	n/a	n/a	n/a	n/a	n/a	n/a	n/a	n/a	n/a	n/a
1587784	REC_WORD	wordpools/wasnorm_wordpool.txt	LTP099	ltpFR	19	11	1	GLASS	639	n/a	n/a	1	n/a	n/a	n/a	n/a	n/a
1588527	REC_WORD	wordpools/wasnorm_wordpool.txt	LTP099	ltpFR	19	11	1	LENS	811	n/a	n/a	0	n/a	n/a	n/a	n/a	n/a
1589265	REC_WORD	wordpools/wasnorm_wordpool.txt	LTP099	ltpFR	19	11	1	EARRING	514	n/a	n/a	0	n/a	n/a	n/a	n/a	n/a
1590004	REC_WORD	wordpools/wasnorm_wordpool.txt	LTP099	ltpFR	19	11	1	GLASSES	640	n/a	n/a	0	n/a	n/a	n/a	n/a	n/a
1591490	REC_WORD	wordpools/wasnorm_wordpool.txt	LTP099	ltpFR	19	11	1	GOVERNOR	651	n/a	n/a	1	n/a	n/a	n/a	n/a	n/a
1592239	REC_WORD	wordpools/wasnorm_wordpool.txt	LTP099	ltpFR	19	11	1	SENATOR	1268	n/a	n/a	1	n/a	n/a	n/a	n/a	n/a
1594144	REC_WORD	wordpools/wasnorm_wordpool.txt	LTP099	ltpFR	19	11	0	HOME	712	n/a	n/a	1	n/a	n/a	n/a	n/a	n/a
1596723	REC_WORD	wordpools/wasnorm_wordpool.txt	LTP099	ltpFR	19	11	n/a	FENCE	560	n/a	n/a	n/a	n/a	n/a	n/a	n/a	n/a
1597966	REC_WORD	wordpools/wasnorm_wordpool.txt	LTP099	ltpFR	19	11	0	BLANKET	135	n/a	n/a	1	n/a	n/a	n/a	n/a	n/a
1599328	REC_WORD	wordpools/wasnorm_wordpool.txt	LTP099	ltpFR	19	11	0	BUG	187	n/a	n/a	0	n/a	n/a	n/a	n/a	n/a
1607708	REC_WORD	wordpools/wasnorm_wordpool.txt	LTP099	ltpFR	19	11	0	GLACIER	638	n/a	n/a	1	n/a	n/a	n/a	n/a	n/a
1635570	REC_WORD	wordpools/wasnorm_wordpool.txt	LTP099	ltpFR	19	11	n/a	MUSHROOM	934	n/a	n/a	n/a	n/a	n/a	n/a	n/a	n/a
1642943	REC_WORD	wordpools/wasnorm_wordpool.txt	LTP099	ltpFR	19	11	n/a	KALEIDOSCOPE	-1	n/a	n/a	n/a	n/a	n/a	n/a	n/a	n/a
1649703	REC_WORD	wordpools/wasnorm_wordpool.txt	LTP099	ltpFR	19	11	1	DOG	480	n/a	n/a	1	n/a	n/a	n/a	n/a	n/a
1665271	WORD	wordpools/wasnorm_wordpool.txt	LTP099	ltpFR	19	12	1	BANDIT	81	n/a	n/a	1	0.422607421875	0.5869140625	0	upper	zerothre.ttf
1669371	WORD	wordpools/wasnorm_wordpool.txt	LTP099	ltpFR	19	12	1	DUNGEON	507	n/a	n/a	1	0.422607421875	0.5869140625	0	upper	zerothre.ttf
1673496	WORD	wordpools/wasnorm_wordpool.txt	LTP099	ltpFR	19	12	1	OATS	968	n/a	n/a	0	0.422607421875	0.5869140625	0	upper	zerothre.ttf
1677545	WORD	wordpools/wasnorm_wordpool.txt	LTP099	ltpFR	19	12	1	LAMB	797	n/a	n/a	1	0.422607421875	0.5869140625	0	upper	zerothre.ttf
1681570	WORD	wordpools/wasnorm_wordpool.txt	LTP099	ltpFR	19	12	0	RAM	1165	n/a	n/a	0	0.57763671875	0.412841796875	1	lower	amplitud.ttf
1685528	WORD	wordpools/wasnorm_wordpool.txt	LTP099	ltpFR	19	12	0	STREET	1393	n/a	n/a	1	0.57763671875	0.412841796875	1	lower	amplitud.ttf
1689578	WORD	wordpools/wasnorm_wordpool.txt	LTP099	ltpFR	19	12	0	STAKE	1368	n/a	n/a	1	0.57763671875	0.412841796875	1	lower	amplitud.ttf
1693760	WORD	wordpools/wasnorm_wordpool.txt	LTP099	ltpFR	19	12	1	JAW	751	n/a	n/a	1	0.422607421875	0.5869140625	0	upper	zerothre.ttf
1697885	WORD	wordpools/wasnorm_wordpool.txt	LTP099	ltpFR	19	12	1	CHAPEL	280	n/a	n/a	1	0.422607421875	0.5869140625	0	upper	zerothre.ttf
1701877	WORD	wordpools/wasnorm_wordpool.txt	LTP099	ltpFR	19	12	0	TREAT	1501	n/a	n/a	0	0.57763671875	0.412841796875	1	lower	amplitud.ttf
1705968	WORD	wordpools/wasnorm_wordpool.txt	LTP099	ltpFR	19	12	0	MAGICIAN	854	n/a	n/a	1	0.57763671875	0.412841796875	1	lower	amplitud.ttf
1709984	WORD	wordpools/wasnorm_wordpool.txt	LTP099	ltpFR	19	12	0	TOOTHBRUSH	1482	n/a	n/a	1	0.57763671875	0.412841796875	1	lower	amplitud.ttf
1713967	WORD	wordpools/wasnorm_wordpool.txt	LTP099	ltpFR	19	12	0	RIDER	1191	n/a	n/a	1	0.57763671875	0.412841796875	1	lower	amplitud.ttf
1717892	WORD	wordpools/wasnorm_wordpool.txt	LTP099	ltpFR	19	12	0	CUE	422	n/a	n/a	1	0.57763671875	0.412841796875	1	lower	amplitud.ttf
1721967	WORD	wordpools/wasnorm_wordpool.txt	LTP099	ltpFR	19	12	1	ELF	525	n/a	n/a	1	0.422607421875	0.5869140625	0	upper	zerothre.ttf
1726166	WORD	wordpools/wasnorm_wordpool.txt	LTP099	ltpFR	19	12	1	POPCORN	1104	n/a	n/a	0	0.422607421875	0.5869140625	0	upper	zerothre.ttf
1731816	REC_START	n/a	LTP099	ltpFR	19	12	n/a	n/a	n/a	n/a	n/a	n/a	n/a	n/a	n/a	n/a	n/a
1732474	REC_WORD	wordpools/wasnorm_wordpool.txt	LTP099	ltpFR	19	12	1	POPCORN	1104	n/a	n/a	0	n/a	n/a	n/a	n/a	n/a
1733387	REC_WORD	wordpools/wasnorm_wordpool.txt	LTP099	ltpFR	19	12	1	ELF	525	n/a	n/a	1	n/a	n/a	n/a	n/a	n/a
1736485	REC_WORD	wordpools/wasnorm_wordpool.txt	LTP099	ltpFR	19	12	n/a	MAYOR	-1	n/a	n/a	n/a	n/a	n/a	n/a	n/a	n/a
1742352	REC_WORD	wordpools/wasnorm_wordpool.txt	LTP099	ltpFR	19	12	n/a	SOUP	-1	n/a	n/a	n/a	n/a	n/a	n/a	n/a	n/a
1743503	REC_WORD	wordpools/wasnorm_wordpool.txt	LTP099	ltpFR	19	12	n/a	KITE	779	n/a	n/a	n/a	n/a	n/a	n/a	n/a	n/a
1745515	REC_WORD	wordpools/wasnorm_wordpool.txt	LTP099	ltpFR	19	12	n/a	LION	827	n/a	n/a	n/a	n/a	n/a	n/a	n/a	n/a
1760191	REC_WORD	wordpools/wasnorm_wordpool.txt	LTP099	ltpFR	19	12	n/a	GLUE	643	n/a	n/a	n/a	n/a	n/a	n/a	n/a	n/a
1761319	REC_WORD	wordpools/wasnorm_wordpool.txt	LTP099	ltpFR	19	12	0	TOOTHBRUSH	1482	n/a	n/a	1	n/a	n/a	n/a	n/a	n/a
1773835	REC_WORD	wordpools/wasnorm_wordpool.txt	LTP099	ltpFR	19	12	0	PENNY	1045	n/a	n/a	0	n/a	n/a	n/a	n/a	n/a
1774758	REC_WORD	wordpools/wasnorm_wordpool.txt	LTP099	ltpFR	19	12	0	PENGUIN	1044	n/a	n/a	0	n/a	n/a	n/a	n/a	n/a
1776853	REC_WORD	wordpools/wasnorm_wordpool.txt	LTP099	ltpFR	19	12	0	STRING	1394	n/a	n/a	0	n/a	n/a	n/a	n/a	n/a
1787639	REC_WORD	wordpools/wasnorm_wordpool.txt	LTP099	ltpFR	19	12	-1	LINT	826	n/a	n/a	-1	n/a	n/a	n/a	n/a	n/a
1800784	REC_WORD	wordpools/wasnorm_wordpool.txt	LTP099	ltpFR	19	12	0	CUE	422	n/a	n/a	1	n/a	n/a	n/a	n/a	n/a
1807418	REST_REWET	n/a	LTP099	ltpFR	19	12	n/a	n/a	n/a	n/a	n/a	n/a	n/a	n/a	n/a	n/a	n/a
2112445	WORD	wordpools/wasnorm_wordpool.txt	LTP099	ltpFR	19	13	1	DONKEY	484	n/a	n/a	1	0.422607421875	0.5869140625	0	upper	zerothre.ttf
2116361	WORD	wordpools/wasnorm_wordpool.txt	LTP099	ltpFR	19	13	1	EMPEROR	529	n/a	n/a	1	0.422607421875	0.5869140625	0	upper	zerothre.ttf
2120211	WORD	wordpools/wasnorm_wordpool.txt	LTP099	ltpFR	19	13	1	LEG	809	n/a	n/a	0	0.422607421875	0.5869140625	0	upper	zerothre.ttf
2124360	WORD	wordpools/wasnorm_wordpool.txt	LTP099	ltpFR	19	13	1	CALF	222	n/a	n/a	0	0.422607421875	0.5869140625	0	upper	zerothre.ttf
2128360	WORD	wordpools/wasnorm_wordpool.txt	LTP099	ltpFR	19	13	1	BALLOT	76	n/a	n/a	0	0.422607421875	0.5869140625	0	upper	zerothre.ttf
2132376	WORD	wordpools/wasnorm_wordpool.txt	LTP099	ltpFR	19	13	1	GLOVE	642	n/a	n/a	0	0.422607421875	0.5869140625	0	upper	zerothre.ttf
2136493	WORD	wordpools/wasnorm_wordpool.txt	LTP099	ltpFR	19	13	1	HAND	683	n/a	n/a	0	0.422607421875	0.5869140625	0	upper	zerothre.ttf
2140376	WORD	wordpools/wasnorm_wordpool.txt	LTP099	ltpFR	19	13	1	BANKER	84	n/a	n/a	1	0.422607421875	0.5869140625	0	upper	zerothre.ttf
2144542	WORD	wordpools/wasnorm_wordpool.txt	LTP099	ltpFR	19	13	1	WINE	1613	n/a	n/a	0	0.422607421875	0.5869140625	0	upper	zerothre.ttf
2148484	WORD	wordpools/wasnorm_wordpool.txt	LTP099	ltpFR	19	13	1	SAUCER	1237	n/a	n/a	0	0.422607421875	0.5869140625	0	upper	zerothre.ttf
2152408	WORD	wordpools/wasnorm_wordpool.txt	LTP099	ltpFR	19	13	1	DISH	474	n/a	n/a	0	0.422607421875	0.5869140625	0	upper	zerothre.ttf
2156266	WORD	wordpools/wasnorm_wordpool.txt	LTP099	ltpFR	19	13	1	STEREO	1378	n/a	n/a	0	0.422607421875	0.5869140625	0	upper	zerothre.ttf
2160258	WORD	wordpools/wasnorm_wordpool.txt	LTP099	ltpFR	19	13	1	PURSE	1145	n/a	n/a	0	0.422607421875	0.5869140625	0	upper	zerothre.ttf
2164166	WORD	wordpools/wasnorm_wordpool.txt	LTP099	ltpFR	19	13	1	DRINK	498	n/a	n/a	0	0.422607421875	0.5869140625	0	upper	zerothre.ttf
2168365	WORD	wordpools/wasnorm_wordpool.txt	LTP099	ltpFR	19	13	1	LIEUTENANT	818	n/a	n/a	1	0.422607421875	0.5869140625	0	upper	zerothre.ttf
2172357	WORD	wordpools/wasnorm_wordpool.txt	LTP099	ltpFR	19	13	1	PIANO	1057	n/a	n/a	1	0.422607421875	0.5869140625	0	upper	zerothre.ttf
2178090	REC_START	n/a	LTP099	ltpFR	19	13	n/a	n/a	n/a	n/a	n/a	n/a	n/a	n/a	n/a	n/a	n/a
2178803	REC_WORD	wordpools/wasnorm_wordpool.txt	LTP099	ltpFR	19	13	1	LIEUTENANT	818	n/a	n/a	1	n/a	n/a	n/a	n/a	n/a
2179546	REC_WORD	wordpools/wasnorm_wordpool.txt	LTP099	ltpFR	19	13	1	PIANO	1057	n/a	n/a	1	n/a	n/a	n/a	n/a	n/a
2180375	REC_WORD	wordpools/wasnorm_wordpool.txt	LTP099	ltpFR	19	13	1	DISH	474	n/a	n/a	0	n/a	n/a	n/a	n/a	n/a
2182644	REC_WORD	wordpools/wasnorm_wordpool.txt	LTP099	ltpFR	19	13	n/a	SALOON	1228	n/a	n/a	n/a	n/a	n/a	n/a	n/a	n/a
2186052	REC_WORD	wordpools/wasnorm_wordpool.txt	LTP099	ltpFR	19	13	1	BANKER	84	n/a	n/a	1	n/a	n/a	n/a	n/a	n/a
2188726	REC_WORD	wordpools/wasnorm_wordpool.txt	LTP099	ltpFR	19	13	1	DONKEY	484	n/a	n/a	1	n/a	n/a	n/a	n/a	n/a
2189559	REC_WORD	wordpools/wasnorm_wordpool.txt	LTP099	ltpFR	19	13	1	CALF	222	n/a	n/a	0	n/a	n/a	n/a	n/a	n/a
2190352	REC_WORD	wordpools/wasnorm_wordpool.txt	LTP099	ltpFR	19	13	1	LEG	809	n/a	n/a	0	n/a	n/a	n/a	n/a	n/a
2194502	REC_WORD	wordpools/wasnorm_wordpool.txt	LTP099	ltpFR	19	13	1	GLOVE	642	n/a	n/a	0	n/a	n/a	n/a	n/a	n/a
2195405	REC_WORD	wordpools/wasnorm_wordpool.txt	LTP099	ltpFR	19	13	n/a	VOTE	-1	n/a	n/a	n/a	n/a	n/a	n/a	n/a	n/a
2201137	REC_WORD	wordpools/wasnorm_wordpool.txt	LTP099	ltpFR	19	13	1	EMPEROR	529	n/a	n/a	1	n/a	n/a	n/a	n/a	n/a
2208171	REC_WORD	wordpools/wasnorm_wordpool.txt	LTP099	ltpFR	19	13	1	ATTORNEY	58	n/a	n/a	1	n/a	n/a	n/a	n/a	n/a
2224235	REC_WORD	wordpools/wasnorm_wordpool.txt	LTP099	ltpFR	19	13	1	BANKER	84	n/a	n/a	1	n/a	n/a	n/a	n/a	n/a
2236637	REC_WORD	wordpools/wasnorm_wordpool.txt	LTP099	ltpFR	19	13	1	PIANO	1057	n/a	n/a	1	n/a	n/a	n/a	n/a	n/a
2239251	REC_WORD	wordpools/wasnorm_wordpool.txt	LTP099	ltpFR	19	13	1	LIEUTENANT	818	n/a	n/a	1	n/a	n/a	n/a	n/a	n/a
2256117	WORD	wordpools/wasnorm_wordpool.txt	LTP099	ltpFR	19	14	-1	HIP	710	n/a	n/a	-1	1.0	1.0	1	upper	Verdana.ttf
2260216	WORD	wordpools/wasnorm_wordpool.txt	LTP099	ltpFR	19	14	-1	ARM	38	n/a	n/a	-1	1.0	1.0	1	upper	Verdana.ttf
2264208	WORD	wordpools/wasnorm_wordpool.txt	LTP099	ltpFR	19	14	-1	LOBSTER	837	n/a	n/a	-1	1.0	1.0	1	upper	Verdana.ttf
2268249	WORD	wordpools/wasnorm_wordpool.txt	LTP099	ltpFR	19	14	-1	RAILROAD	1162	n/a	n/a	-1	1.0	1.0	1	upper	Verdana.ttf
2272257	WORD	wordpools/wasnorm_wordpool.txt	LTP099	ltpFR	19	14	-1	HERB	704	n/a	n/a	-1	1.0	1.0	1	upper	Verdana.ttf
2276174	WORD	wordpools/wasnorm_wordpool.txt	LTP099	ltpFR	19	14	-1	REEF	1177	n/a	n/a	-1	1.0	1.0	1	upper	Verdana.ttf
2280248	WORD	wordpools/wasnorm_wordpool.txt	LTP099	ltpFR	19	14	-1	FORK	594	n/a	n/a	-1	1.0	1.0	1	upper	Verdana.ttf
2284198	WORD	wordpools/wasnorm_wordpool.txt	LTP099	ltpFR	19	14	-1	TUNA	1518	n/a	n/a	-1	1.0	1.0	1	upper	Verdana.ttf
2288114	WORD	wordpools/wasnorm_wordpool.txt	LTP099	ltpFR	19	14	-1	SQUID	1361	n/a	n/a	-1	1.0	1.0	1	upper	Verdana.ttf
2292256	WORD	wordpools/wasnorm_wordpool.txt	LTP099	ltpFR	19	14	-1	SYRINGE	1424	n/a	n/a	-1	1.0	1.0	1	upper	Verdana.ttf
2296280	WORD	wordpools/wasnorm_wordpool.txt	LTP099	ltpFR	19	14	-1	CIGAR	308	n/a	n/a	-1	1.0	1.0	1	upper	Verdana.ttf
2300188	WORD	wordpools/wasnorm_wordpool.txt	LTP099	ltpFR	19	14	-1	CAMEL	223	n/a	n/a	-1	1.0	1.0	1	upper	Verdana.ttf
2304363	WORD	wordpools/wasnorm_wordpool.txt	LTP099	ltpFR	19	14	-1	PATIENT	1024	n/a	n/a	-1	1.0	1.0	1	upper	Verdana.ttf
2308504	WORD	wordpools/wasnorm_wordpool.txt	LTP099	ltpFR	19	14	-1	METEOR	889	n/a	n/a	-1	1.0	1.0	1	upper	Verdana.ttf
2312379	WORD	wordpools/wasnorm_wordpool.txt	LTP099	ltpFR	19	14	-1	JOURNAL	760	n/a	n/a	-1	1.0	1.0	1	upper	Verdana.ttf
2316204	WORD	wordpools/wasnorm_wordpool.txt	LTP099	ltpFR	19	14	-1	ITEM	746	n/a	n/a	-1	1.0	1.0	1	upper	Verdana.ttf
2321987	REC_START	n/a	LTP099	ltpFR	19	14	n/a	n/a	n/a	n/a	n/a	n/a	n/a	n/a	n/a	n/a	n/a
2322476	REC_WORD	wordpools/wasnorm_wordpool.txt	LTP099	ltpFR	19	14	-1	ITEM	746	n/a	n/a	-1	n/a	n/a	n/a	n/a	n/a
2323189	REC_WORD	wordpools/wasnorm_wordpool.txt	LTP099	ltpFR	19	14	-1	JOURNAL	760	n/a	n/a	-1	n/a	n/a	n/a	n/a	n/a
2323803	REC_WORD	wordpools/wasnorm_wordpool.txt	LTP099	ltpFR	19	14	-1	METEOR	889	n/a	n/a	-1	n/a	n/a	n/a	n/a	n/a
2327095	REC_WORD	wordpools/wasnorm_wordpool.txt	LTP099	ltpFR	19	14	-1	PATIENT	1024	n/a	n/a	-1	n/a	n/a	n/a	n/a	n/a
2330532	REC_WORD	wordpools/wasnorm_wordpool.txt	LTP099	ltpFR	19	14	-1	CIGAR	308	n/a	n/a	-1	n/a	n/a	n/a	n/a	n/a
2331785	REC_WORD	wordpools/wasnorm_wordpool.txt	LTP099	ltpFR	19	14	-1	CAMEL	223	n/a	n/a	-1	n/a	n/a	n/a	n/a	n/a
2334319	REC_WORD	wordpools/wasnorm_wordpool.txt	LTP099	ltpFR	19	14	-1	HERB	704	n/a	n/a	-1	n/a	n/a	n/a	n/a	n/a
2335077	REC_WORD	wordpools/wasnorm_wordpool.txt	LTP099	ltpFR	19	14	-1	REEF	1177	n/a	n/a	-1	n/a	n/a	n/a	n/a	n/a
2335760	REC_WORD	wordpools/wasnorm_wordpool.txt	LTP099	ltpFR	19	14	-1	SQUID	1361	n/a	n/a	-1	n/a	n/a	n/a	n/a	n/a
2337252	REC_WORD	wordpools/wasnorm_wordpool.txt	LTP099	ltpFR	19	14	-1	TUNA	1518	n/a	n/a	-1	n/a	n/a	n/a	n/a	n/a
2338010	REC_WORD	wordpools/wasnorm_wordpool.txt	LTP099	ltpFR	19	14	-1	LOBSTER	837	n/a	n/a	-1	n/a	n/a	n/a	n/a	n/a
2339632	REC_WORD	wordpools/wasnorm_wordpool.txt	LTP099	ltpFR	19	14	-1	ARM	38	n/a	n/a	-1	n/a	n/a	n/a	n/a	n/a
2340160	REC_WORD	wordpools/wasnorm_wordpool.txt	LTP099	ltpFR	19	14	-1	HIP	710	n/a	n/a	-1	n/a	n/a	n/a	n/a	n/a
2342879	REC_WORD	wordpools/wasnorm_wordpool.txt	LTP099	ltpFR	19	14	n/a	RIB	1188	n/a	n/a	n/a	n/a	n/a	n/a	n/a	n/a
2351400	REC_WORD	wordpools/wasnorm_wordpool.txt	LTP099	ltpFR	19	14	-1	RAILROAD	1162	n/a	n/a	-1	n/a	n/a	n/a	n/a	n/a
2353161	REC_WORD	wordpools/wasnorm_wordpool.txt	LTP099	ltpFR	19	14	-1	HERB	704	n/a	n/a	-1	n/a	n/a	n/a	n/a	n/a
2356828	REC_WORD	wordpools/wasnorm_wordpool.txt	LTP099	ltpFR	19	14	-1	HERB	704	n/a	n/a	-1	n/a	n/a	n/a	n/a	n/a
2372612	REC_WORD	wordpools/wasnorm_wordpool.txt	LTP099	ltpFR	19	14	n/a	MUSHROOM	934	n/a	n/a	n/a	n/a	n/a	n/a	n/a	n/a
2378658	REC_WORD	wordpools/wasnorm_wordpool.txt	LTP099	ltpFR	19	14	n/a	SAILBOAT	-1	n/a	n/a	n/a	n/a	n/a	n/a	n/a	n/a
2381746	REC_WORD	wordpools/wasnorm_wordpool.txt	LTP099	ltpFR	19	14	-1	REEF	1177	n/a	n/a	-1	n/a	n/a	n/a	n/a	n/a
2399981	WORD	wordpools/wasnorm_wordpool.txt	LTP099	ltpFR	19	15	1	STRANGER	1389	n/a	n/a	0	0.422607421875	0.5869140625	0	upper	zerothre.ttf
2403863	WORD	wordpools/wasnorm_wordpool.txt	LTP099	ltpFR	19	15	1	FIG	563	n/a	n/a	0	0.422607421875	0.5869140625	0	upper	zerothre.ttf
2407930	WORD	wordpools/wasnorm_wordpool.txt	LTP099	ltpFR	19	15	1	DUMP	505	n/a	n/a	0	0.422607421875	0.5869140625	0	upper	zerothre.ttf
2412071	WORD	wordpools/wasnorm_wordpool.txt	LTP099	ltpFR	19	15	1	LADDER	793	n/a	n/a	0	0.422607421875	0.5869140625	0	upper	zerothre.ttf
2416054	WORD	wordpools/wasnorm_wordpool.txt	LTP099	ltpFR	19	15	1	VISITOR	1573	n/a	n/a	0	0.422607421875	0.5869140625	0	upper	zerothre.ttf
2419870	WORD	wordpools/wasnorm_wordpool.txt	LTP099	ltpFR	19	15	1	BASKET	95	n/a	n/a	0	0.422607421875	0.5869140625	0	upper	zerothre.ttf
2423920	WORD	wordpools/wasnorm_wordpool.txt	LTP099	ltpFR	19	15	1	VEGETABLE	1552	n/a	n/a	0	0.422607421875	0.5869140625	0	upper	zerothre.ttf
2428120	WORD	wordpools/wasnorm_wordpool.txt	LTP099	ltpFR	19	15	1	WHEEL	1603	n/a	n/a	0	0.422607421875	0.5869140625	0	upper	zerothre.ttf
2432111	WORD	wordpools/wasnorm_wordpool.txt	LTP099	ltpFR	19	15	1	BUTCHER	203	n/a	n/a	0	0.422607421875	0.5869140625	0	upper	zerothre.ttf
2435961	WORD	wordpools/wasnorm_wordpool.txt	LTP099	ltpFR	19	15	1	BLADE	134	n/a	n/a	0	0.422607421875	0.5869140625	0	upper	zerothre.ttf
2439818	WORD	wordpools/wasnorm_wordpool.txt	LTP099	ltpFR	19	15	1	FELLOW	558	n/a	n/a	1	0.422607421875	0.5869140625	0	upper	zerothre.ttf
2443960	WORD	wordpools/wasnorm_wordpool.txt	LTP099	ltpFR	19	15	1	FRIEND	606	n/a	n/a	1	0.422607421875	0.5869140625	0	upper	zerothre.ttf
2447784	WORD	wordpools/wasnorm_wordpool.txt	LTP099	ltpFR	19	15	1	MEADOW	881	n/a	n/a	0	0.422607421875	0.5869140625	0	upper	zerothre.ttf
2451834	WORD	wordpools/wasnorm_wordpool.txt	LTP099	ltpFR	19	15	1	KNIFE	785	n/a	n/a	0	0.422607421875	0.5869140625	0	upper	zerothre.ttf
2455743	WORD	wordpools/wasnorm_wordpool.txt	LTP099	ltpFR	19	15	1	COUCH	386	n/a	n/a	0	0.422607421875	0.5869140625	0	upper	zerothre.ttf
2459892	WORD	wordpools/wasnorm_wordpool.txt	LTP099	ltpFR	19	15	1	PICNIC	1060	n/a	n/a	0	0.422607421875	0.5869140625	0	upper	zerothre.ttf
2465476	REC_START	n/a	LTP099	ltpFR	19	15	n/a	n/a	n/a	n/a	n/a	n/a	n/a	n/a	n/a	n/a	n/a
2466374	REC_WORD	wordpools/wasnorm_wordpool.txt	LTP099	ltpFR	19	15	1	COUCH	386	n/a	n/a	0	n/a	n/a	n/a	n/a	n/a
2467102	REC_WORD	wordpools/wasnorm_wordpool.txt	LTP099	ltpFR	19	15	1	MEADOW	881	n/a	n/a	0	n/a	n/a	n/a	n/a	n/a
2467751	REC_WORD	wordpools/wasnorm_wordpool.txt	LTP099	ltpFR	19	15	1	KNIFE	785	n/a	n/a	0	n/a	n/a	n/a	n/a	n/a
2468629	REC_WORD	wordpools/wasnorm_wordpool.txt	LTP099	ltpFR	19	15	1	PICNIC	1060	n/a	n/a	0	n/a	n/a	n/a	n/a	n/a
2469452	REC_WORD	wordpools/wasnorm_wordpool.txt	LTP099	ltpFR	19	15	1	BLADE	134	n/a	n/a	0	n/a	n/a	n/a	n/a	n/a
2470759	REC_WORD	wordpools/wasnorm_wordpool.txt	LTP099	ltpFR	19	15	n/a	PILLOW	1069	n/a	n/a	n/a	n/a	n/a	n/a	n/a	n/a
2472854	REC_WORD	wordpools/wasnorm_wordpool.txt	LTP099	ltpFR	19	15	-1	CAMEL	223	n/a	n/a	-1	n/a	n/a	n/a	n/a	n/a
2478017	REC_WORD	wordpools/wasnorm_wordpool.txt	LTP099	ltpFR	19	15	1	FIG	563	n/a	n/a	0	n/a	n/a	n/a	n/a	n/a
2479175	REC_WORD	wordpools/wasnorm_wordpool.txt	LTP099	ltpFR	19	15	1	DUMP	505	n/a	n/a	0	n/a	n/a	n/a	n/a	n/a
2479888	REC_WORD	wordpools/wasnorm_wordpool.txt	LTP099	ltpFR	19	15	1	LADDER	793	n/a	n/a	0	n/a	n/a	n/a	n/a	n/a
2481709	REC_WORD	wordpools/wasnorm_wordpool.txt	LTP099	ltpFR	19	15	1	STRANGER	1389	n/a	n/a	0	n/a	n/a	n/a	n/a	n/a
2483091	REC_WORD	wordpools/wasnorm_wordpool.txt	LTP099	ltpFR	19	15	1	BASKET	95	n/a	n/a	0	n/a	n/a	n/a	n/a	n/a
2485041	REC_WORD	wordpools/wasnorm_wordpool.txt	LTP099	ltpFR	19	15	1	WHEEL	1603	n/a	n/a	0	n/a	n/a	n/a	n/a	n/a
2488483	REC_WORD	wordpools/wasnorm_wordpool.txt	LTP099	ltpFR	19	15	1	VEGETABLE	1552	n/a	n/a	0	n/a	n/a	n/a	n/a	n/a
2504492	REC_WORD	wordpools/wasnorm_wordpool.txt	LTP099	ltpFR	19	15	n/a	SCRAMBLEDEGGS	-1	n/a	n/a	n/a	n/a	n/a	n/a	n/a	n/a
2523299	REC_WORD	wordpools/wasnorm_wordpool.txt	LTP099	ltpFR	19	15	n/a	COW	393	n/a	n/a	n/a	n/a	n/a	n/a	n/a	n/a
2544194	WORD	wordpools/wasnorm_wordpool.txt	LTP099	ltpFR	19	16	-1	SPINE	1353	n/a	n/a	-1	1.0	1.0	1	upper	Verdana.ttf
2548402	WORD	wordpools/wasnorm_wordpool.txt	LTP099	ltpFR	19	16	-1	TOWER	1490	n/a	n/a	-1	1.0	1.0	1	upper	Verdana.ttf
2552419	WORD	wordpools/wasnorm_wordpool.txt	LTP099	ltpFR	19	16	-1	STATUE	1374	n/a	n/a	-1	1.0	1.0	1	upper	Verdana.ttf
2556493	WORD	wordpools/wasnorm_wordpool.txt	LTP099	ltpFR	19	16	-1	BUILDING	191	n/a	n/a	-1	1.0	1.0	1	upper	Verdana.ttf
2560460	WORD	wordpools/wasnorm_wordpool.txt	LTP099	ltpFR	19	16	-1	CYLINDER	432	n/a	n/a	-1	1.0	1.0	1	upper	Verdana.ttf
2564434	WORD	wordpools/wasnorm_wordpool.txt	LTP099	ltpFR	19	16	-1	TREE	1502	n/a	n/a	-1	1.0	1.0	1	upper	Verdana.ttf
2568592	WORD	wordpools/wasnorm_wordpool.txt	LTP099	ltpFR	19	16	-1	CONTRACTOR	369	n/a	n/a	-1	1.0	1.0	1	upper	Verdana.ttf
2572667	WORD	wordpools/wasnorm_wordpool.txt	LTP099	ltpFR	19	16	-1	CUPBOARD	425	n/a	n/a	-1	1.0	1.0	1	upper	Verdana.ttf
2576617	WORD	wordpools/wasnorm_wordpool.txt	LTP099	ltpFR	19	16	-1	TRAY	1498	n/a	n/a	-1	1.0	1.0	1	upper	Verdana.ttf
2580600	WORD	wordpools/wasnorm_wordpool.txt	LTP099	ltpFR	19	16	-1	BATH	98	n/a	n/a	-1	1.0	1.0	1	upper	Verdana.ttf
2584724	WORD	wordpools/wasnorm_wordpool.txt	LTP099	ltpFR	19	16	-1	BATHTUB	100	n/a	n/a	-1	1.0	1.0	1	upper	Verdana.ttf
2588882	WORD	wordpools/wasnorm_wordpool.txt	LTP099	ltpFR	19	16	-1	MEDICINE	886	n/a	n/a	-1	1.0	1.0	1	upper	Verdana.ttf
2593007	WORD	wordpools/wasnorm_wordpool.txt	LTP099	ltpFR	19	16	-1	LAWYER	806	n/a	n/a	-1	1.0	1.0	1	upper	Verdana.ttf
2596848	WORD	wordpools/wasnorm_wordpool.txt	LTP099	ltpFR	19	16	-1	BEAKER	104	n/a	n/a	-1	1.0	1.0	1	upper	Verdana.ttf
2600973	WORD	wordpools/wasnorm_wordpool.txt	LTP099	ltpFR	19	16	-1	KETTLE	772	n/a	n/a	-1	1.0	1.0	1	upper	Verdana.ttf
2604940	WORD	wordpools/wasnorm_wordpool.txt	LTP099	ltpFR	19	16	-1	HOSTESS	723	n/a	n/a	-1	1.0	1.0	1	upper	Verdana.ttf
2610723	REC_START	n/a	LTP099	ltpFR	19	16	n/a	n/a	n/a	n/a	n/a	n/a	n/a	n/a	n/a	n/a	n/a
2611132	REC_WORD	wordpools/wasnorm_wordpool.txt	LTP099	ltpFR	19	16	-1	HOSTESS	723	n/a	n/a	-1	n/a	n/a	n/a	n/a	n/a
2612065	REC_WORD	wordpools/wasnorm_wordpool.txt	LTP099	ltpFR	19	16	-1	BEAKER	104	n/a	n/a	-1	n/a	n/a	n/a	n/a	n/a
2613003	REC_WORD	wordpools/wasnorm_wordpool.txt	LTP099	ltpFR	19	16	-1	TRAY	1498	n/a	n/a	-1	n/a	n/a	n/a	n/a	n/a
2617263	REC_WORD	wordpools/wasnorm_wordpool.txt	LTP099	ltpFR	19	16	n/a	KITCHEN	778	n/a	n/a	n/a	n/a	n/a	n/a	n/a	n/a
2619712	REC_WORD	wordpools/wasnorm_wordpool.txt	LTP099	ltpFR	19	16	-1	BATHTUB	100	n/a	n/a	-1	n/a	n/a	n/a	n/a	n/a
2620720	REC_WORD	wordpools/wasnorm_wordpool.txt	LTP099	ltpFR	19	16	-1	BATH	98	n/a	n/a	-1	n/a	n/a	n/a	n/a	n/a
2626986	REC_WORD_VV	wordpools/wasnorm_wordpool.txt	LTP099	ltpFR	19	16	n/a	<>	-1	n/a	n/a	n/a	n/a	n/a	n/a	n/a	n/a
2628378	REC_WORD	wordpools/wasnorm_wordpool.txt	LTP099	ltpFR	19	16	-1	CUPBOARD	425	n/a	n/a	-1	n/a	n/a	n/a	n/a	n/a
2632643	REC_WORD	wordpools/wasnorm_wordpool.txt	LTP099	ltpFR	19	16	-1	METEOR	889	n/a	n/a	-1	n/a	n/a	n/a	n/a	n/a
2636928	REC_WORD	wordpools/wasnorm_wordpool.txt	LTP099	ltpFR	19	16	-1	BUILDING	191	n/a	n/a	-1	n/a	n/a	n/a	n/a	n/a
2637686	REC_WORD	wordpools/wasnorm_wordpool.txt	LTP099	ltpFR	19	16	-1	CYLINDER	432	n/a	n/a	-1	n/a	n/a	n/a	n/a	n/a
2639547	REC_WORD	wordpools/wasnorm_wordpool.txt	LTP099	ltpFR	19	16	-1	STATUE	1374	n/a	n/a	-1	n/a	n/a	n/a	n/a	n/a
2641403	REC_WORD	wordpools/wasnorm_wordpool.txt	LTP099	ltpFR	19	16	-1	TREE	1502	n/a	n/a	-1	n/a	n/a	n/a	n/a	n/a
2648746	REC_WORD	wordpools/wasnorm_wordpool.txt	LTP099	ltpFR	19	16	-1	SPINE	1353	n/a	n/a	-1	n/a	n/a	n/a	n/a	n/a
2678623	REC_WORD	wordpools/wasnorm_wordpool.txt	LTP099	ltpFR	19	16	1	ROD	1203	n/a	n/a	0	n/a	n/a	n/a	n/a	n/a
2697700	REC_START	n/a	LTP099	ltpFR	19	n/a	n/a	n/a	n/a	n/a	n/a	n/a	n/a	n/a	n/a	n/a	n/a
2699890	FFR_REC_WORD	wordpools/wasnorm_wordpool.txt	LTP099	ltpFR	19	n/a	-1	GRASSHOPPER	656	n/a	n/a	-1	n/a	n/a	n/a	n/a	n/a
2700728	FFR_REC_WORD	wordpools/wasnorm_wordpool.txt	LTP099	ltpFR	19	n/a	0	CRICKET	408	n/a	n/a	0	n/a	n/a	n/a	n/a	n/a
2701286	FFR_REC_WORD	wordpools/wasnorm_wordpool.txt	LTP099	ltpFR	19	n/a	-1	HORSE	719	n/a	n/a	-1	n/a	n/a	n/a	n/a	n/a
2702075	FFR_REC_WORD	wordpools/wasnorm_wordpool.txt	LTP099	ltpFR	19	n/a	-1	MOAT	903	n/a	n/a	-1	n/a	n/a	n/a	n/a	n/a
2702698	FFR_REC_WORD	wordpools/wasnorm_wordpool.txt	LTP099	ltpFR	19	n/a	-1	DIVER	476	n/a	n/a	-1	n/a	n/a	n/a	n/a	n/a
2703342	FFR_REC_WORD	wordpools/wasnorm_wordpool.txt	LTP099	ltpFR	19	n/a	-1	SHELL	1281	n/a	n/a	-1	n/a	n/a	n/a	n/a	n/a
2710785	FFR_REC_WORD	wordpools/wasnorm_wordpool.txt	LTP099	ltpFR	19	n/a	-1	ROBE	1198	n/a	n/a	-1	n/a	n/a	n/a	n/a	n/a
2711538	FFR_REC_WORD	wordpools/wasnorm_wordpool.txt	LTP099	ltpFR	19	n/a	-1	CIGARETTE	309	n/a	n/a	-1	n/a	n/a	n/a	n/a	n/a
2712686	FFR_REC_WORD	wordpools/wasnorm_wordpool.txt	LTP099	ltpFR	19	n/a	-1	ASHTRAY	45	n/a	n/a	-1	n/a	n/a	n/a	n/a	n/a
2715015	FFR_REC_WORD	wordpools/wasnorm_wordpool.txt	LTP099	ltpFR	19	n/a	n/a	MANSION	864	n/a	n/a	n/a	n/a	n/a	n/a	n/a	n/a
2716467	FFR_REC_WORD	wordpools/wasnorm_wordpool.txt	LTP099	ltpFR	19	n/a	n/a	CASTLE	256	n/a	n/a	n/a	n/a	n/a	n/a	n/a	n/a
2719131	FFR_REC_WORD_VV	wordpools/wasnorm_wordpool.txt	LTP099	ltpFR	19	n/a	n/a	<>	-1	n/a	n/a	n/a	n/a	n/a	n/a	n/a	n/a
2722424	FFR_REC_WORD	wordpools/wasnorm_wordpool.txt	LTP099	ltpFR	19	n/a	-1	TRIBE	1505	n/a	n/a	-1	n/a	n/a	n/a	n/a	n/a
2723386	FFR_REC_WORD	wordpools/wasnorm_wordpool.txt	LTP099	ltpFR	19	n/a	-1	BUFFALO	186	n/a	n/a	-1	n/a	n/a	n/a	n/a	n/a
2730251	FFR_REC_WORD	wordpools/wasnorm_wordpool.txt	LTP099	ltpFR	19	n/a	-1	WAGON	1578	n/a	n/a	-1	n/a	n/a	n/a	n/a	n/a
2731648	FFR_REC_WORD	wordpools/wasnorm_wordpool.txt	LTP099	ltpFR	19	n/a	0	EYELASH	546	n/a	n/a	0	n/a	n/a	n/a	n/a	n/a
2732685	FFR_REC_WORD	wordpools/wasnorm_wordpool.txt	LTP099	ltpFR	19	n/a	-1	LASH	802	n/a	n/a	-1	n/a	n/a	n/a	n/a	n/a
2741535	FFR_REC_WORD	wordpools/wasnorm_wordpool.txt	LTP099	ltpFR	19	n/a	-1	HIP	710	n/a	n/a	-1	n/a	n/a	n/a	n/a	n/a
2742986	FFR_REC_WORD	wordpools/wasnorm_wordpool.txt	LTP099	ltpFR	19	n/a	-1	SPINE	1353	n/a	n/a	-1	n/a	n/a	n/a	n/a	n/a
2743925	FFR_REC_WORD	wordpools/wasnorm_wordpool.txt	LTP099	ltpFR	19	n/a	1	LEG	809	n/a	n/a	0	n/a	n/a	n/a	n/a	n/a
2744783	FFR_REC_WORD	wordpools/wasnorm_wordpool.txt	LTP099	ltpFR	19	n/a	1	CALF	222	n/a	n/a	0	n/a	n/a	n/a	n/a	n/a
2746708	FFR_REC_WORD	wordpools/wasnorm_wordpool.txt	LTP099	ltpFR	19	n/a	-1	ARM	38	n/a	n/a	-1	n/a	n/a	n/a	n/a	n/a
2750799	FFR_REC_WORD	wordpools/wasnorm_wordpool.txt	LTP099	ltpFR	19	n/a	-1	HERB	704	n/a	n/a	-1	n/a	n/a	n/a	n/a	n/a
2751532	FFR_REC_WORD_VV	wordpools/wasnorm_wordpool.txt	LTP099	ltpFR	19	n/a	n/a	<>	-1	n/a	n/a	n/a	n/a	n/a	n/a	n/a	n/a
2755259	FFR_REC_WORD	wordpools/wasnorm_wordpool.txt	LTP099	ltpFR	19	n/a	-1	RAILROAD	1162	n/a	n/a	-1	n/a	n/a	n/a	n/a	n/a
2756416	FFR_REC_WORD	wordpools/wasnorm_wordpool.txt	LTP099	ltpFR	19	n/a	-1	REEF	1177	n/a	n/a	-1	n/a	n/a	n/a	n/a	n/a
2757464	FFR_REC_WORD	wordpools/wasnorm_wordpool.txt	LTP099	ltpFR	19	n/a	-1	SQUID	1361	n/a	n/a	-1	n/a	n/a	n/a	n/a	n/a
2758552	FFR_REC_WORD	wordpools/wasnorm_wordpool.txt	LTP099	ltpFR	19	n/a	-1	TUNA	1518	n/a	n/a	-1	n/a	n/a	n/a	n/a	n/a
2759310	FFR_REC_WORD	wordpools/wasnorm_wordpool.txt	LTP099	ltpFR	19	n/a	-1	LOBSTER	837	n/a	n/a	-1	n/a	n/a	n/a	n/a	n/a
2760108	FFR_REC_WORD	wordpools/wasnorm_wordpool.txt	LTP099	ltpFR	19	n/a	-1	FORK	594	n/a	n/a	-1	n/a	n/a	n/a	n/a	n/a
2762642	FFR_REC_WORD	wordpools/wasnorm_wordpool.txt	LTP099	ltpFR	19	n/a	-1	CIGAR	308	n/a	n/a	-1	n/a	n/a	n/a	n/a	n/a
2763655	FFR_REC_WORD	wordpools/wasnorm_wordpool.txt	LTP099	ltpFR	19	n/a	-1	CAMEL	223	n/a	n/a	-1	n/a	n/a	n/a	n/a	n/a
2766124	FFR_REC_WORD	wordpools/wasnorm_wordpool.txt	LTP099	ltpFR	19	n/a	-1	JOURNAL	760	n/a	n/a	-1	n/a	n/a	n/a	n/a	n/a
2768434	FFR_REC_WORD	wordpools/wasnorm_wordpool.txt	LTP099	ltpFR	19	n/a	-1	PATIENT	1024	n/a	n/a	-1	n/a	n/a	n/a	n/a	n/a
2771098	FFR_REC_WORD	wordpools/wasnorm_wordpool.txt	LTP099	ltpFR	19	n/a	-1	TRAY	1498	n/a	n/a	-1	n/a	n/a	n/a	n/a	n/a
2772629	FFR_REC_WORD	wordpools/wasnorm_wordpool.txt	LTP099	ltpFR	19	n/a	n/a	KITCHEN	778	n/a	n/a	n/a	n/a	n/a	n/a	n/a	n/a
2774415	FFR_REC_WORD	wordpools/wasnorm_wordpool.txt	LTP099	ltpFR	19	n/a	-1	BEAKER	104	n/a	n/a	-1	n/a	n/a	n/a	n/a	n/a
2776496	FFR_REC_WORD	wordpools/wasnorm_wordpool.txt	LTP099	ltpFR	19	n/a	0	OMELET	976	n/a	n/a	0	n/a	n/a	n/a	n/a	n/a
2777673	FFR_REC_WORD	wordpools/wasnorm_wordpool.txt	LTP099	ltpFR	19	n/a	0	SPATULA	1348	n/a	n/a	0	n/a	n/a	n/a	n/a	n/a
2781370	FFR_REC_WORD	wordpools/wasnorm_wordpool.txt	LTP099	ltpFR	19	n/a	-1	BATHTUB	100	n/a	n/a	-1	n/a	n/a	n/a	n/a	n/a
2782367	FFR_REC_WORD	wordpools/wasnorm_wordpool.txt	LTP099	ltpFR	19	n/a	-1	BATH	98	n/a	n/a	-1	n/a	n/a	n/a	n/a	n/a
2784049	FFR_REC_WORD	wordpools/wasnorm_wordpool.txt	LTP099	ltpFR	19	n/a	-1	BUILDING	191	n/a	n/a	-1	n/a	n/a	n/a	n/a	n/a
2785046	FFR_REC_WORD	wordpools/wasnorm_wordpool.txt	LTP099	ltpFR	19	n/a	-1	TREE	1502	n/a	n/a	-1	n/a	n/a	n/a	n/a	n/a
2787226	FFR_REC_WORD	wordpools/wasnorm_wordpool.txt	LTP099	ltpFR	19	n/a	n/a	MONUMENT	913	n/a	n/a	n/a	n/a	n/a	n/a	n/a	n/a
2790279	FFR_REC_WORD	wordpools/wasnorm_wordpool.txt	LTP099	ltpFR	19	n/a	-1	STATUE	1374	n/a	n/a	-1	n/a	n/a	n/a	n/a	n/a
2795512	FFR_REC_WORD	wordpools/wasnorm_wordpool.txt	LTP099	ltpFR	19	n/a	n/a	FOX	598	n/a	n/a	n/a	n/a	n/a	n/a	n/a	n/a
2796969	FFR_REC_WORD	wordpools/wasnorm_wordpool.txt	LTP099	ltpFR	19	n/a	0	TOOTHBRUSH	1482	n/a	n/a	1	n/a	n/a	n/a	n/a	n/a
2800132	FFR_REC_WORD	wordpools/wasnorm_wordpool.txt	LTP099	ltpFR	19	n/a	0	PENGUIN	1044	n/a	n/a	0	n/a	n/a	n/a	n/a	n/a
2801529	FFR_REC_WORD	wordpools/wasnorm_wordpool.txt	LTP099	ltpFR	19	n/a	0	STRING	1394	n/a	n/a	0	n/a	n/a	n/a	n/a	n/a
2807196	FFR_REC_WORD	wordpools/wasnorm_wordpool.txt	LTP099	ltpFR	19	n/a	0	RIBBON	1189	n/a	n/a	0	n/a	n/a	n/a	n/a	n/a
2807959	FFR_REC_WORD	wordpools/wasnorm_wordpool.txt	LTP099	ltpFR	19	n/a	0	TUBA	1515	n/a	n/a	0	n/a	n/a	n/a	n/a	n/a
2809072	FFR_REC_WORD	wordpools/wasnorm_wordpool.txt	LTP099	ltpFR	19	n/a	0	PENNY	1045	n/a	n/a	0	n/a	n/a	n/a	n/a	n/a
2816425	FFR_REC_WORD	wordpools/wasnorm_wordpool.txt	LTP099	ltpFR	19	n/a	0	MEDAL	885	n/a	n/a	0	n/a	n/a	n/a	n/a	n/a
2821843	FFR_REC_WORD	wordpools/wasnorm_wordpool.txt	LTP099	ltpFR	19	n/a	0	BLANKET	135	n/a	n/a	1	n/a	n/a	n/a	n/a	n/a
2823115	FFR_REC_WORD	wordpools/wasnorm_wordpool.txt	LTP099	ltpFR	19	n/a	0	BUG	187	n/a	n/a	0	n/a	n/a	n/a	n/a	n/a
2824975	FFR_REC_WORD	wordpools/wasnorm_wordpool.txt	LTP099	ltpFR	19	n/a	n/a	FENCE	560	n/a	n/a	n/a	n/a	n/a	n/a	n/a	n/a
2827874	FFR_REC_WORD	wordpools/wasnorm_wordpool.txt	LTP099	ltpFR	19	n/a	0	HOME	712	n/a	n/a	1	n/a	n/a	n/a	n/a	n/a
2829216	FFR_REC_WORD	wordpools/wasnorm_wordpool.txt	LTP099	ltpFR	19	n/a	1	SENATOR	1268	n/a	n/a	1	n/a	n/a	n/a	n/a	n/a
2830009	FFR_REC_WORD	wordpools/wasnorm_wordpool.txt	LTP099	ltpFR	19	n/a	1	GOVERNOR	651	n/a	n/a	1	n/a	n/a	n/a	n/a	n/a
2831086	FFR_REC_WORD	wordpools/wasnorm_wordpool.txt	LTP099	ltpFR	19	n/a	1	ATTORNEY	58	n/a	n/a	1	n/a	n/a	n/a	n/a	n/a
2833322	FFR_REC_WORD	wordpools/wasnorm_wordpool.txt	LTP099	ltpFR	19	n/a	1	PROFESSIONAL	1130	n/a	n/a	1	n/a	n/a	n/a	n/a	n/a
2834244	FFR_REC_WORD	wordpools/wasnorm_wordpool.txt	LTP099	ltpFR	19	n/a	1	DOCTOR	478	n/a	n/a	1	n/a	n/a	n/a	n/a	n/a
2834933	FFR_REC_WORD	wordpools/wasnorm_wordpool.txt	LTP099	ltpFR	19	n/a	n/a	PATIO	1025	n/a	n/a	n/a	n/a	n/a	n/a	n/a	n/a
2837213	FFR_REC_WORD	wordpools/wasnorm_wordpool.txt	LTP099	ltpFR	19	n/a	1	ARENA	37	n/a	n/a	0	n/a	n/a	n/a	n/a	n/a
2843094	FFR_REC_WORD	wordpools/wasnorm_wordpool.txt	LTP099	ltpFR	19	n/a	-1	METEOR	889	n/a	n/a	-1	n/a	n/a	n/a	n/a	n/a
2843823	FFR_REC_WORD	wordpools/wasnorm_wordpool.txt	LTP099	ltpFR	19	n/a	-1	ASTRONAUT	51	n/a	n/a	-1	n/a	n/a	n/a	n/a	n/a
2849161	FFR_REC_WORD	wordpools/wasnorm_wordpool.txt	LTP099	ltpFR	19	n/a	n/a	CAT	257	n/a	n/a	n/a	n/a	n/a	n/a	n/a	n/a
2850223	FFR_REC_WORD	wordpools/wasnorm_wordpool.txt	LTP099	ltpFR	19	n/a	-1	MONKEY	911	n/a	n/a	-1	n/a	n/a	n/a	n/a	n/a
2853645	FFR_REC_WORD	wordpools/wasnorm_wordpool.txt	LTP099	ltpFR	19	n/a	-1	CLOVE	329	n/a	n/a	-1	n/a	n/a	n/a	n/a	n/a
2854957	FFR_REC_WORD	wordpools/wasnorm_wordpool.txt	LTP099	ltpFR	19	n/a	-1	SPICE	1350	n/a	n/a	-1	n/a	n/a	n/a	n/a	n/a
2855875	FFR_REC_WORD	wordpools/wasnorm_wordpool.txt	LTP099	ltpFR	19	n/a	-1	BAKER	71	n/a	n/a	-1	n/a	n/a	n/a	n/a	n/a
2856614	FFR_REC_WORD	wordpools/wasnorm_wordpool.txt	LTP099	ltpFR	19	n/a	-1	MAP	865	n/a	n/a	-1	n/a	n/a	n/a	n/a	n/a
2857776	FFR_REC_WORD	wordpools/wasnorm_wordpool.txt	LTP099	ltpFR	19	n/a	-1	ROAD	1196	n/a	n/a	-1	n/a	n/a	n/a	n/a	n/a
2860799	FFR_REC_WORD	wordpools/wasnorm_wordpool.txt	LTP099	ltpFR	19	n/a	-1	COOK	372	n/a	n/a	-1	n/a	n/a	n/a	n/a	n/a
2862331	FFR_REC_WORD	wordpools/wasnorm_wordpool.txt	LTP099	ltpFR	19	n/a	n/a	COOKBOOK	373	n/a	n/a	n/a	n/a	n/a	n/a	n/a	n/a
2863124	FFR_REC_WORD	wordpools/wasnorm_wordpool.txt	LTP099	ltpFR	19	n/a	0	ENCYCLOPEDIA	533	n/a	n/a	1	n/a	n/a	n/a	n/a	n/a
2871979	FFR_REC_WORD	wordpools/wasnorm_wordpool.txt	LTP099	ltpFR	19	n/a	n/a	CAULIFLOWER	262	n/a	n/a	n/a	n/a	n/a	n/a	n/a	n/a
2876553	FFR_REC_WORD	wordpools/wasnorm_wordpool.txt	LTP099	ltpFR	19	n/a	n/a	AMOEBA	-1	n/a	n/a	n/a	n/a	n/a	n/a	n/a	n/a
2878778	FFR_REC_WORD	wordpools/wasnorm_wordpool.txt	LTP099	ltpFR	19	n/a	n/a	MUSHROOM	934	n/a	n/a	n/a	n/a	n/a	n/a	n/a	n/a
2888995	FFR_REC_WORD	wordpools/wasnorm_wordpool.txt	LTP099	ltpFR	19	n/a	n/a	DICTATOR	462	n/a	n/a	n/a	n/a	n/a	n/a	n/a	n/a
2894093	FFR_REC_WORD	wordpools/wasnorm_wordpool.txt	LTP099	ltpFR	19	n/a	1	EMPEROR	529	n/a	n/a	1	n/a	n/a	n/a	n/a	n/a
2895156	FFR_REC_WORD	wordpools/wasnorm_wordpool.txt	LTP099	ltpFR	19	n/a	1	DONKEY	484	n/a	n/a	1	n/a	n/a	n/a	n/a	n/a
2901068	FFR_REC_WORD	wordpools/wasnorm_wordpool.txt	LTP099	ltpFR	19	n/a	1	HAND	683	n/a	n/a	0	n/a	n/a	n/a	n/a	n/a
2902943	FFR_REC_WORD	wordpools/wasnorm_wordpool.txt	LTP099	ltpFR	19	n/a	1	GLOVE	642	n/a	n/a	0	n/a	n/a	n/a	n/a	n/a
2904350	FFR_REC_WORD	wordpools/wasnorm_wordpool.txt	LTP099	ltpFR	19	n/a	n/a	VOTE	-1	n/a	n/a	n/a	n/a	n/a	n/a	n/a	n/a
2911544	FFR_REC_WORD	wordpools/wasnorm_wordpool.txt	LTP099	ltpFR	19	n/a	n/a	UTENSIL	1542	n/a	n/a	n/a	n/a	n/a	n/a	n/a	n/a
2917016	FFR_REC_WORD	wordpools/wasnorm_wordpool.txt	LTP099	ltpFR	19	n/a	1	FIG	563	n/a	n/a	0	n/a	n/a	n/a	n/a	n/a
2917825	FFR_REC_WORD	wordpools/wasnorm_wordpool.txt	LTP099	ltpFR	19	n/a	1	DUMP	505	n/a	n/a	0	n/a	n/a	n/a	n/a	n/a
2918378	FFR_REC_WORD	wordpools/wasnorm_wordpool.txt	LTP099	ltpFR	19	n/a	1	LADDER	793	n/a	n/a	0	n/a	n/a	n/a	n/a	n/a
2921915	FFR_REC_WORD	wordpools/wasnorm_wordpool.txt	LTP099	ltpFR	19	n/a	1	WHEEL	1603	n/a	n/a	0	n/a	n/a	n/a	n/a	n/a
2924624	FFR_REC_WORD	wordpools/wasnorm_wordpool.txt	LTP099	ltpFR	19	n/a	1	LONDON	843	n/a	n/a	0	n/a	n/a	n/a	n/a	n/a
2927198	FFR_REC_WORD	wordpools/wasnorm_wordpool.txt	LTP099	ltpFR	19	n/a	1	ALBUM	14	n/a	n/a	0	n/a	n/a	n/a	n/a	n/a
2927807	FFR_REC_WORD	wordpools/wasnorm_wordpool.txt	LTP099	ltpFR	19	n/a	1	FAMILY	550	n/a	n/a	0	n/a	n/a	n/a	n/a	n/a
2928515	FFR_REC_WORD	wordpools/wasnorm_wordpool.txt	LTP099	ltpFR	19	n/a	1	COMPANION	357	n/a	n/a	1	n/a	n/a	n/a	n/a	n/a
2929857	FFR_REC_WORD	wordpools/wasnorm_wordpool.txt	LTP099	ltpFR	19	n/a	1	PICTURE	1061	n/a	n/a	0	n/a	n/a	n/a	n/a	n/a
2936462	FFR_REC_WORD	wordpools/wasnorm_wordpool.txt	LTP099	ltpFR	19	n/a	1	VEGETABLE	1552	n/a	n/a	0	n/a	n/a	n/a	n/a	n/a
2937265	FFR_REC_WORD	wordpools/wasnorm_wordpool.txt	LTP099	ltpFR	19	n/a	1	BASKET	95	n/a	n/a	0	n/a	n/a	n/a	n/a	n/a
2939470	FFR_REC_WORD	wordpools/wasnorm_wordpool.txt	LTP099	ltpFR	19	n/a	n/a	CALENDAR	221	n/a	n/a	n/a	n/a	n/a	n/a	n/a	n/a
2943775	FFR_REC_WORD	wordpools/wasnorm_wordpool.txt	LTP099	ltpFR	19	n/a	1	FIST	572	n/a	n/a	0	n/a	n/a	n/a	n/a	n/a
2953962	FFR_REC_WORD	wordpools/wasnorm_wordpool.txt	LTP099	ltpFR	19	n/a	n/a	MUSHROOM	934	n/a	n/a	n/a	n/a	n/a	n/a	n/a	n/a
2959929	FFR_REC_WORD	wordpools/wasnorm_wordpool.txt	LTP099	ltpFR	19	n/a	0	MARROW	872	n/a	n/a	0	n/a	n/a	n/a	n/a	n/a
2960712	FFR_REC_WORD	wordpools/wasnorm_wordpool.txt	LTP099	ltpFR	19	n/a	0	ARROW	40	n/a	n/a	0	n/a	n/a	n/a	n/a	n/a
2970125	FFR_REC_WORD	wordpools/wasnorm_wordpool.txt	LTP099	ltpFR	19	n/a	n/a	FOX	598	n/a	n/a	n/a	n/a	n/a	n/a	n/a	n/a
2977389	FFR_REC_WORD	wordpools/wasnorm_wordpool.txt	LTP099	ltpFR	19	n/a	n/a	BALOGNA	-1	n/a	n/a	n/a	n/a	n/a	n/a	n/a	n/a
2981146	FFR_REC_WORD	wordpools/wasnorm_wordpool.txt	LTP099	ltpFR	19	n/a	n/a	CHEESE	289	n/a	n/a	n/a	n/a	n/a	n/a	n/a	n/a
2983490	FFR_REC_WORD	wordpools/wasnorm_wordpool.txt	LTP099	ltpFR	19	n/a	0	CHIPMUNK	304	n/a	n/a	0	n/a	n/a	n/a	n/a	n/a
2986578	FFR_REC_WORD	wordpools/wasnorm_wordpool.txt	LTP099	ltpFR	19	n/a	n/a	STRAWBERRY	1391	n/a	n/a	n/a	n/a	n/a	n/a	n/a	n/a
2989098	FFR_REC_WORD	wordpools/wasnorm_wordpool.txt	LTP099	ltpFR	19	n/a	0	DOVE	491	n/a	n/a	0	n/a	n/a	n/a	n/a	n/a
2989846	FFR_REC_WORD	wordpools/wasnorm_wordpool.txt	LTP099	ltpFR	19	n/a	0	OCEAN	970	n/a	n/a	1	n/a	n/a	n/a	n/a	n/a
2993148	FFR_REC_WORD	wordpools/wasnorm_wordpool.txt	LTP099	ltpFR	19	n/a	0	CUFF	423	n/a	n/a	0	n/a	n/a	n/a	n/a	n/a
2994635	FFR_REC_WORD	wordpools/wasnorm_wordpool.txt	LTP099	ltpFR	19	n/a	0	BLOUSE	139	n/a	n/a	0	n/a	n/a	n/a	n/a	n/a
2996017	FFR_REC_WORD	wordpools/wasnorm_wordpool.txt	LTP099	ltpFR	19	n/a	0	YOLK	1633	n/a	n/a	0	n/a	n/a	n/a	n/a	n/a
3016500	REC_START	n/a	LTP099	ltpFR	19	1	n/a	n/a	n/a	n/a	n/a	n/a	n/a	n/a	n/a	n/a	n/a
3016532	RECOG_TARGET	n/a	LTP099	ltpFR	19	1	-1	HERB	704	1	5	-1	n/a	n/a	n/a	n/a	n/a
3017622	RECOG_RESP	n/a	LTP099	ltpFR	19	1	-1	HERB	704	1	n/a	-1	n/a	n/a	n/a	n/a	n/a
3018600	RECOG_CONF	n/a	LTP099	ltpFR	19	1	-1	HERB	704	n/a	5	-1	n/a	n/a	n/a	n/a	n/a
3019966	RECOG_TARGET	n/a	LTP099	ltpFR	19	1	0	CHERRY	293	1	5	0	n/a	n/a	n/a	n/a	n/a
3020381	RECOG_RESP	n/a	LTP099	ltpFR	19	1	0	CHERRY	293	1	n/a	0	n/a	n/a	n/a	n/a	n/a
3020935	RECOG_CONF	n/a	LTP099	ltpFR	19	1	0	CHERRY	293	n/a	5	0	n/a	n/a	n/a	n/a	n/a
3022249	RECOG_TARGET	n/a	LTP099	ltpFR	19	1	1	SHAMPOO	1274	1	5	0	n/a	n/a	n/a	n/a	n/a
3022566	RECOG_RESP	n/a	LTP099	ltpFR	19	1	1	SHAMPOO	1274	1	n/a	0	n/a	n/a	n/a	n/a	n/a
3023060	RECOG_CONF	n/a	LTP099	ltpFR	19	1	1	SHAMPOO	1274	n/a	5	0	n/a	n/a	n/a	n/a	n/a
3024432	RECOG_TARGET	n/a	LTP099	ltpFR	19	1	1	FELLOW	558	1	5	1	n/a	n/a	n/a	n/a	n/a
3024636	RECOG_RESP	n/a	LTP099	ltpFR	19	1	1	FELLOW	558	1	n/a	1	n/a	n/a	n/a	n/a	n/a
3025125	RECOG_CONF	n/a	LTP099	ltpFR	19	1	1	FELLOW	558	n/a	5	1	n/a	n/a	n/a	n/a	n/a
3026498	RECOG_LURE	n/a	LTP099	ltpFR	19	1	n/a	ELEVATOR	524	1	1	n/a	n/a	n/a	n/a	n/a	n/a
3026657	RECOG_RESP	n/a	LTP099	ltpFR	19	1	n/a	ELEVATOR	524	1	n/a	n/a	n/a	n/a	n/a	n/a	n/a
3027161	RECOG_CONF	n/a	LTP099	ltpFR	19	1	n/a	ELEVATOR	524	n/a	1	n/a	n/a	n/a	n/a	n/a	n/a
3028506	RECOG_LURE	n/a	LTP099	ltpFR	19	1	n/a	GANGSTER	620	0	5	n/a	n/a	n/a	n/a	n/a	n/a
3029076	RECOG_RESP	n/a	LTP099	ltpFR	19	1	n/a	GANGSTER	620	0	n/a	n/a	n/a	n/a	n/a	n/a	n/a
3029624	RECOG_CONF	n/a	LTP099	ltpFR	19	1	n/a	GANGSTER	620	n/a	5	n/a	n/a	n/a	n/a	n/a	n/a
3030915	RECOG_LURE	n/a	LTP099	ltpFR	19	1	n/a	BASEBALL	93	0	5	n/a	n/a	n/a	n/a	n/a	n/a
3031451	RECOG_RESP	n/a	LTP099	ltpFR	19	1	n/a	BASEBALL	93	0	n/a	n/a	n/a	n/a	n/a	n/a	n/a
3031990	RECOG_CONF	n/a	LTP099	ltpFR	19	1	n/a	BASEBALL	93	n/a	5	n/a	n/a	n/a	n/a	n/a	n/a
3033314	RECOG_TARGET	n/a	LTP099	ltpFR	19	1	1	SENATOR	1268	1	5	1	n/a	n/a	n/a	n/a	n/a
3033771	RECOG_RESP	n/a	LTP099	ltpFR	19	1	1	SENATOR	1268	1	n/a	1	n/a	n/a	n/a	n/a	n/a
3034294	RECOG_CONF	n/a	LTP099	ltpFR	19	1	1	SENATOR	1268	n/a	5	1	n/a	n/a	n/a	n/a	n/a
3035548	RECOG_LURE	n/a	LTP099	ltpFR	19	1	n/a	MARKER	870	1	1	n/a	n/a	n/a	n/a	n/a	n/a
3035796	RECOG_RESP	n/a	LTP099	ltpFR	19	1	n/a	MARKER	870	1	n/a	n/a	n/a	n/a	n/a	n/a	n/a
3036360	RECOG_CONF	n/a	LTP099	ltpFR	19	1	n/a	MARKER	870	n/a	1	n/a	n/a	n/a	n/a	n/a	n/a
3037672	RECOG_LURE	n/a	LTP099	ltpFR	19	1	n/a	CRATER	400	0	5	n/a	n/a	n/a	n/a	n/a	n/a
3038644	RECOG_RESP	n/a	LTP099	ltpFR	19	1	n/a	CRATER	400	0	n/a	n/a	n/a	n/a	n/a	n/a	n/a
3039243	RECOG_CONF	n/a	LTP099	ltpFR	19	1	n/a	CRATER	400	n/a	5	n/a	n/a	n/a	n/a	n/a	n/a
3040589	RECOG_LURE	n/a	LTP099	ltpFR	19	1	n/a	CONE	363	0	3	n/a	n/a	n/a	n/a	n/a	n/a
3041199	RECOG_RESP	n/a	LTP099	ltpFR	19	1	n/a	CONE	363	0	n/a	n/a	n/a	n/a	n/a	n/a	n/a
3041737	RECOG_CONF	n/a	LTP099	ltpFR	19	1	n/a	CONE	363	n/a	3	n/a	n/a	n/a	n/a	n/a	n/a
3043064	RECOG_TARGET	n/a	LTP099	ltpFR	19	1	0	LIZARD	834	1	5	0	n/a	n/a	n/a	n/a	n/a
3043488	RECOG_RESP	n/a	LTP099	ltpFR	19	1	0	LIZARD	834	1	n/a	0	n/a	n/a	n/a	n/a	n/a
3044012	RECOG_CONF	n/a	LTP099	ltpFR	19	1	0	LIZARD	834	n/a	5	0	n/a	n/a	n/a	n/a	n/a
3045322	RECOG_TARGET	n/a	LTP099	ltpFR	19	1	-1	JOURNAL	760	1	5	-1	n/a	n/a	n/a	n/a	n/a
3045708	RECOG_RESP	n/a	LTP099	ltpFR	19	1	-1	JOURNAL	760	1	n/a	-1	n/a	n/a	n/a	n/a	n/a
3046227	RECOG_CONF	n/a	LTP099	ltpFR	19	1	-1	JOURNAL	760	n/a	5	-1	n/a	n/a	n/a	n/a	n/a
3047513	RECOG_LURE	n/a	LTP099	ltpFR	19	1	n/a	REPORT	1184	1	1	n/a	n/a	n/a	n/a	n/a	n/a
3047804	RECOG_RESP	n/a	LTP099	ltpFR	19	1	n/a	REPORT	1184	1	n/a	n/a	n/a	n/a	n/a	n/a	n/a
3048303	RECOG_CONF	n/a	LTP099	ltpFR	19	1	n/a	REPORT	1184	n/a	1	n/a	n/a	n/a	n/a	n/a	n/a
3049638	RECOG_LURE	n/a	LTP099	ltpFR	19	1	n/a	WARDROBE	1587	1	1	n/a	n/a	n/a	n/a	n/a	n/a
3049899	RECOG_RESP	n/a	LTP099	ltpFR	19	1	n/a	WARDROBE	1587	1	n/a	n/a	n/a	n/a	n/a	n/a	n/a
3050388	RECOG_CONF	n/a	LTP099	ltpFR	19	1	n/a	WARDROBE	1587	n/a	1	n/a	n/a	n/a	n/a	n/a	n/a
3051721	RECOG_LURE	n/a	LTP099	ltpFR	19	1	n/a	WHIP	1604	0	5	n/a	n/a	n/a	n/a	n/a	n/a
3052358	RECOG_RESP	n/a	LTP099	ltpFR	19	1	n/a	WHIP	1604	0	n/a	n/a	n/a	n/a	n/a	n/a	n/a
3052942	RECOG_CONF	n/a	LTP099	ltpFR	19	1	n/a	WHIP	1604	n/a	5	n/a	n/a	n/a	n/a	n/a	n/a
3054279	RECOG_TARGET	n/a	LTP099	ltpFR	19	1	1	WINE	1613	1	5	0	n/a	n/a	n/a	n/a	n/a
3054703	RECOG_RESP	n/a	LTP099	ltpFR	19	1	1	WINE	1613	1	n/a	0	n/a	n/a	n/a	n/a	n/a
3055237	RECOG_CONF	n/a	LTP099	ltpFR	19	1	1	WINE	1613	n/a	5	0	n/a	n/a	n/a	n/a	n/a
3056488	RECOG_TARGET	n/a	LTP099	ltpFR	19	1	1	EMPEROR	529	1	5	1	n/a	n/a	n/a	n/a	n/a
3056783	RECOG_RESP	n/a	LTP099	ltpFR	19	1	1	EMPEROR	529	1	n/a	1	n/a	n/a	n/a	n/a	n/a
3057302	RECOG_CONF	n/a	LTP099	ltpFR	19	1	1	EMPEROR	529	n/a	5	1	n/a	n/a	n/a	n/a	n/a
3058604	RECOG_TARGET	n/a	LTP099	ltpFR	19	1	0	CUFF	423	1	5	0	n/a	n/a	n/a	n/a	n/a
3058839	RECOG_RESP	n/a	LTP099	ltpFR	19	1	0	CUFF	423	1	n/a	0	n/a	n/a	n/a	n/a	n/a
3059347	RECOG_CONF	n/a	LTP099	ltpFR	19	1	0	CUFF	423	n/a	5	0	n/a	n/a	n/a	n/a	n/a
3060679	RECOG_LURE	n/a	LTP099	ltpFR	19	1	n/a	WEB	1598	1	1	n/a	n/a	n/a	n/a	n/a	n/a
3060894	RECOG_RESP	n/a	LTP099	ltpFR	19	1	n/a	WEB	1598	1	n/a	n/a	n/a	n/a	n/a	n/a	n/a
3061433	RECOG_CONF	n/a	LTP099	ltpFR	19	1	n/a	WEB	1598	n/a	1	n/a	n/a	n/a	n/a	n/a	n/a
3064159	REC_START	n/a	LTP099	ltpFR	19	2	n/a	n/a	n/a	n/a	n/a	n/a	n/a	n/a	n/a	n/a	n/a
3064195	RECOG_LURE	n/a	LTP099	ltpFR	19	2	n/a	TELESCOPE	1446	0	5	n/a	n/a	n/a	n/a	n/a	n/a
3064643	RECOG_RESP_VV	n/a	LTP099	ltpFR	19	2	n/a	TELESCOPE	1446	1	n/a	n/a	n/a	n/a	n/a	n/a	n/a
3065536	RECOG_RESP	n/a	LTP099	ltpFR	19	2	n/a	TELESCOPE	1446	0	n/a	n/a	n/a	n/a	n/a	n/a	n/a
3066159	RECOG_CONF	n/a	LTP099	ltpFR	19	2	n/a	TELESCOPE	1446	n/a	5	n/a	n/a	n/a	n/a	n/a	n/a
3067478	RECOG_LURE	n/a	LTP099	ltpFR	19	2	n/a	BEGGAR	117	0	5	n/a	n/a	n/a	n/a	n/a	n/a
3067806	RECOG_RESP_VV	n/a	LTP099	ltpFR	19	2	n/a	BEGGAR	117	1	n/a	n/a	n/a	n/a	n/a	n/a	n/a
3068294	RECOG_RESP	n/a	LTP099	ltpFR	19	2	n/a	BEGGAR	117	0	n/a	n/a	n/a	n/a	n/a	n/a	n/a
3068953	RECOG_CONF	n/a	LTP099	ltpFR	19	2	n/a	BEGGAR	117	n/a	5	n/a	n/a	n/a	n/a	n/a	n/a
3070328	RECOG_LURE	n/a	LTP099	ltpFR	19	2	n/a	DESK	452	0	5	n/a	n/a	n/a	n/a	n/a	n/a
3071048	RECOG_RESP	n/a	LTP099	ltpFR	19	2	n/a	DESK	452	0	n/a	n/a	n/a	n/a	n/a	n/a	n/a
3071577	RECOG_CONF	n/a	LTP099	ltpFR	19	2	n/a	DESK	452	n/a	5	n/a	n/a	n/a	n/a	n/a	n/a
3072819	RECOG_TARGET	n/a	LTP099	ltpFR	19	2	1	ATTORNEY	58	1	5	1	n/a	n/a	n/a	n/a	n/a
3073632	RECOG_RESP	n/a	LTP099	ltpFR	19	2	1	ATTORNEY	58	1	n/a	1	n/a	n/a	n/a	n/a	n/a
3074251	RECOG_CONF	n/a	LTP099	ltpFR	19	2	1	ATTORNEY	58	n/a	5	1	n/a	n/a	n/a	n/a	n/a
3075569	RECOG_TARGET	n/a	LTP099	ltpFR	19	2	1	COUCH	386	0	5	0	n/a	n/a	n/a	n/a	n/a
3075962	RECOG_RESP	n/a	LTP099	ltpFR	19	2	1	COUCH	386	0	n/a	0	n/a	n/a	n/a	n/a	n/a
3076905	RECOG_CONF	n/a	LTP099	ltpFR	19	2	1	COUCH	386	n/a	5	0	n/a	n/a	n/a	n/a	n/a
3078294	RECOG_TARGET	n/a	LTP099	ltpFR	19	2	-1	CLOVE	329	1	5	-1	n/a	n/a	n/a	n/a	n/a
3078651	RECOG_RESP	n/a	LTP099	ltpFR	19	2	-1	CLOVE	329	1	n/a	-1	n/a	n/a	n/a	n/a	n/a
3079140	RECOG_CONF	n/a	LTP099	ltpFR	19	2	-1	CLOVE	329	n/a	5	-1	n/a	n/a	n/a	n/a	n/a
3080361	RECOG_TARGET	n/a	LTP099	ltpFR	19	2	1	VEGETABLE	1552	1	5	0	n/a	n/a	n/a	n/a	n/a
3080821	RECOG_RESP	n/a	LTP099	ltpFR	19	2	1	VEGETABLE	1552	1	n/a	0	n/a	n/a	n/a	n/a	n/a
3081315	RECOG_CONF	n/a	LTP099	ltpFR	19	2	1	VEGETABLE	1552	n/a	5	0	n/a	n/a	n/a	n/a	n/a
3082619	RECOG_TARGET	n/a	LTP099	ltpFR	19	2	0	ENCYCLOPEDIA	533	1	5	1	n/a	n/a	n/a	n/a	n/a
3082891	RECOG_RESP	n/a	LTP099	ltpFR	19	2	0	ENCYCLOPEDIA	533	1	n/a	1	n/a	n/a	n/a	n/a	n/a
3083400	RECOG_CONF	n/a	LTP099	ltpFR	19	2	0	ENCYCLOPEDIA	533	n/a	5	1	n/a	n/a	n/a	n/a	n/a
3084727	RECOG_TARGET	n/a	LTP099	ltpFR	19	2	1	BLADE	134	1	5	0	n/a	n/a	n/a	n/a	n/a
3084942	RECOG_RESP	n/a	LTP099	ltpFR	19	2	1	BLADE	134	1	n/a	0	n/a	n/a	n/a	n/a	n/a
3085455	RECOG_CONF	n/a	LTP099	ltpFR	19	2	1	BLADE	134	n/a	5	0	n/a	n/a	n/a	n/a	n/a
3086719	RECOG_LURE	n/a	LTP099	ltpFR	19	2	n/a	BUS	201	0	5	n/a	n/a	n/a	n/a	n/a	n/a
3086987	RECOG_RESP_VV	n/a	LTP099	ltpFR	19	2	n/a	BUS	201	1	n/a	n/a	n/a	n/a	n/a	n/a	n/a
3087571	RECOG_RESP	n/a	LTP099	ltpFR	19	2	n/a	BUS	201	0	n/a	n/a	n/a	n/a	n/a	n/a	n/a
3088359	RECOG_CONF	n/a	LTP099	ltpFR	19	2	n/a	BUS	201	n/a	5	n/a	n/a	n/a	n/a	n/a	n/a
3089743	RECOG_TARGET	n/a	LTP099	ltpFR	19	2	1	CHAPEL	280	1	5	1	n/a	n/a	n/a	n/a	n/a
3090614	RECOG_RESP	n/a	LTP099	ltpFR	19	2	1	CHAPEL	280	1	n/a	1	n/a	n/a	n/a	n/a	n/a
3091212	RECOG_CONF	n/a	LTP099	ltpFR	19	2	1	CHAPEL	280	n/a	5	1	n/a	n/a	n/a	n/a	n/a
3092568	RECOG_TARGET	n/a	LTP099	ltpFR	19	2	1	COLT	349	1	5	0	n/a	n/a	n/a	n/a	n/a
3092879	RECOG_RESP	n/a	LTP099	ltpFR	19	2	1	COLT	349	1	n/a	0	n/a	n/a	n/a	n/a	n/a
3093417	RECOG_CONF	n/a	LTP099	ltpFR	19	2	1	COLT	349	n/a	5	0	n/a	n/a	n/a	n/a	n/a
3094676	RECOG_LURE	n/a	LTP099	ltpFR	19	2	n/a	CUCUMBER	421	1	1	n/a	n/a	n/a	n/a	n/a	n/a
3094974	RECOG_RESP	n/a	LTP099	ltpFR	19	2	n/a	CUCUMBER	421	1	n/a	n/a	n/a	n/a	n/a	n/a	n/a
3095493	RECOG_CONF	n/a	LTP099	ltpFR	19	2	n/a	CUCUMBER	421	n/a	1	n/a	n/a	n/a	n/a	n/a	n/a
3096876	RECOG_TARGET	n/a	LTP099	ltpFR	19	2	1	HOSTAGE	722	1	5	0	n/a	n/a	n/a	n/a	n/a
3098635	RECOG_RESP	n/a	LTP099	ltpFR	19	2	1	HOSTAGE	722	1	n/a	0	n/a	n/a	n/a	n/a	n/a
3099244	RECOG_CONF	n/a	LTP099	ltpFR	19	2	1	HOSTAGE	722	n/a	5	0	n/a	n/a	n/a	n/a	n/a
3100551	RECOG_TARGET	n/a	LTP099	ltpFR	19	2	1	LAMB	797	1	5	1	n/a	n/a	n/a	n/a	n/a
3100925	RECOG_RESP	n/a	LTP099	ltpFR	19	2	1	LAMB	797	1	n/a	1	n/a	n/a	n/a	n/a	n/a
3101419	RECOG_CONF	n/a	LTP099	ltpFR	19	2	1	LAMB	797	n/a	5	1	n/a	n/a	n/a	n/a	n/a
3102676	RECOG_LURE	n/a	LTP099	ltpFR	19	2	n/a	RAIL	1161	1	5	n/a	n/a	n/a	n/a	n/a	n/a
3102971	RECOG_RESP	n/a	LTP099	ltpFR	19	2	n/a	RAIL	1161	1	n/a	n/a	n/a	n/a	n/a	n/a	n/a
3103484	RECOG_CONF	n/a	LTP099	ltpFR	19	2	n/a	RAIL	1161	n/a	5	n/a	n/a	n/a	n/a	n/a	n/a
3104759	RECOG_LURE	n/a	LTP099	ltpFR	19	2	n/a	MONARCH	906	0	5	n/a	n/a	n/a	n/a	n/a	n/a
3105021	RECOG_RESP_VV	n/a	LTP099	ltpFR	19	2	n/a	MONARCH	906	1	n/a	n/a	n/a	n/a	n/a	n/a	n/a
3105734	RECOG_RESP	n/a	LTP099	ltpFR	19	2	n/a	MONARCH	906	0	n/a	n/a	n/a	n/a	n/a	n/a	n/a
3106637	RECOG_CONF	n/a	LTP099	ltpFR	19	2	n/a	MONARCH	906	n/a	5	n/a	n/a	n/a	n/a	n/a	n/a
3107959	RECOG_LURE	n/a	LTP099	ltpFR	19	2	n/a	LACE	792	0	5	n/a	n/a	n/a	n/a	n/a	n/a
3108628	RECOG_RESP	n/a	LTP099	ltpFR	19	2	n/a	LACE	792	0	n/a	n/a	n/a	n/a	n/a	n/a	n/a
3109181	RECOG_CONF	n/a	LTP099	ltpFR	19	2	n/a	LACE	792	n/a	5	n/a	n/a	n/a	n/a	n/a	n/a
3110508	RECOG_TARGET	n/a	LTP099	ltpFR	19	2	0	LAGOON	795	1	5	1	n/a	n/a	n/a	n/a	n/a
3111067	RECOG_RESP	n/a	LTP099	ltpFR	19	2	0	LAGOON	795	1	n/a	1	n/a	n/a	n/a	n/a	n/a
3111616	RECOG_CONF	n/a	LTP099	ltpFR	19	2	0	LAGOON	795	n/a	5	1	n/a	n/a	n/a	n/a	n/a
3112983	RECOG_TARGET	n/a	LTP099	ltpFR	19	2	0	SPATULA	1348	1	5	0	n/a	n/a	n/a	n/a	n/a
3114095	RECOG_RESP	n/a	LTP099	ltpFR	19	2	0	SPATULA	1348	1	n/a	0	n/a	n/a	n/a	n/a	n/a
3114709	RECOG_CONF	n/a	LTP099	ltpFR	19	2	0	SPATULA	1348	n/a	5	0	n/a	n/a	n/a	n/a	n/a
3117687	REC_START	n/a	LTP099	ltpFR	19	3	n/a	n/a	n/a	n/a	n/a	n/a	n/a	n/a	n/a	n/a	n/a
3117716	RECOG_TARGET	n/a	LTP099	ltpFR	19	3	0	BEAD	103	1	5	0	n/a	n/a	n/a	n/a	n/a
3118290	RECOG_RESP	n/a	LTP099	ltpFR	19	3	0	BEAD	103	1	n/a	0	n/a	n/a	n/a	n/a	n/a
3118849	RECOG_CONF	n/a	LTP099	ltpFR	19	3	0	BEAD	103	n/a	5	0	n/a	n/a	n/a	n/a	n/a
3120141	RECOG_LURE	n/a	LTP099	ltpFR	19	3	n/a	CITY	314	1	1	n/a	n/a	n/a	n/a	n/a	n/a
3120451	RECOG_RESP	n/a	LTP099	ltpFR	19	3	n/a	CITY	314	1	n/a	n/a	n/a	n/a	n/a	n/a	n/a
3120974	RECOG_CONF	n/a	LTP099	ltpFR	19	3	n/a	CITY	314	n/a	1	n/a	n/a	n/a	n/a	n/a	n/a
3122349	RECOG_TARGET	n/a	LTP099	ltpFR	19	3	0	MAGICIAN	854	0	5	1	n/a	n/a	n/a	n/a	n/a
3123070	RECOG_RESP	n/a	LTP099	ltpFR	19	3	0	MAGICIAN	854	0	n/a	1	n/a	n/a	n/a	n/a	n/a
3123598	RECOG_CONF	n/a	LTP099	ltpFR	19	3	0	MAGICIAN	854	n/a	5	1	n/a	n/a	n/a	n/a	n/a
3124907	RECOG_LURE	n/a	LTP099	ltpFR	19	3	n/a	ABDOMEN	1	0	5	n/a	n/a	n/a	n/a	n/a	n/a
3125684	RECOG_RESP_VV	n/a	LTP099	ltpFR	19	3	n/a	ABDOMEN	1	1	n/a	n/a	n/a	n/a	n/a	n/a	n/a
3126552	RECOG_RESP	n/a	LTP099	ltpFR	19	3	n/a	ABDOMEN	1	0	n/a	n/a	n/a	n/a	n/a	n/a	n/a
3127400	RECOG_CONF	n/a	LTP099	ltpFR	19	3	n/a	ABDOMEN	1	n/a	5	n/a	n/a	n/a	n/a	n/a	n/a
3128715	RECOG_TARGET	n/a	LTP099	ltpFR	19	3	0	SALAD	1224	1	5	0	n/a	n/a	n/a	n/a	n/a
3129385	RECOG_RESP	n/a	LTP099	ltpFR	19	3	0	SALAD	1224	1	n/a	0	n/a	n/a	n/a	n/a	n/a
3129844	RECOG_CONF	n/a	LTP099	ltpFR	19	3	0	SALAD	1224	n/a	5	0	n/a	n/a	n/a	n/a	n/a
3131123	RECOG_TARGET	n/a	LTP099	ltpFR	19	3	0	FRECKLE	602	1	5	0	n/a	n/a	n/a	n/a	n/a
3131680	RECOG_RESP	n/a	LTP099	ltpFR	19	3	0	FRECKLE	602	1	n/a	0	n/a	n/a	n/a	n/a	n/a
3132169	RECOG_CONF	n/a	LTP099	ltpFR	19	3	0	FRECKLE	602	n/a	5	0	n/a	n/a	n/a	n/a	n/a
3133440	RECOG_TARGET	n/a	LTP099	ltpFR	19	3	0	YOLK	1633	1	5	0	n/a	n/a	n/a	n/a	n/a
3133830	RECOG_RESP	n/a	LTP099	ltpFR	19	3	0	YOLK	1633	1	n/a	0	n/a	n/a	n/a	n/a	n/a
3134324	RECOG_CONF	n/a	LTP099	ltpFR	19	3	0	YOLK	1633	n/a	5	0	n/a	n/a	n/a	n/a	n/a
3135673	RECOG_LURE	n/a	LTP099	ltpFR	19	3	n/a	KNUCKLE	789	1	1	n/a	n/a	n/a	n/a	n/a	n/a
3135895	RECOG_RESP	n/a	LTP099	ltpFR	19	3	n/a	KNUCKLE	789	1	n/a	n/a	n/a	n/a	n/a	n/a	n/a
3136439	RECOG_CONF	n/a	LTP099	ltpFR	19	3	n/a	KNUCKLE	789	n/a	1	n/a	n/a	n/a	n/a	n/a	n/a
3137805	RECOG_TARGET	n/a	LTP099	ltpFR	19	3	1	BONE	148	1	5	0	n/a	n/a	n/a	n/a	n/a
3138130	RECOG_RESP	n/a	LTP099	ltpFR	19	3	1	BONE	148	1	n/a	0	n/a	n/a	n/a	n/a	n/a
3138644	RECOG_CONF	n/a	LTP099	ltpFR	19	3	1	BONE	148	n/a	5	0	n/a	n/a	n/a	n/a	n/a
3139914	RECOG_TARGET	n/a	LTP099	ltpFR	19	3	1	DUNGEON	507	1	5	1	n/a	n/a	n/a	n/a	n/a
3140905	RECOG_RESP	n/a	LTP099	ltpFR	19	3	1	DUNGEON	507	1	n/a	1	n/a	n/a	n/a	n/a	n/a
3141587	RECOG_CONF	n/a	LTP099	ltpFR	19	3	1	DUNGEON	507	n/a	5	1	n/a	n/a	n/a	n/a	n/a
3142956	RECOG_TARGET	n/a	LTP099	ltpFR	19	3	0	PELICAN	1039	1	5	1	n/a	n/a	n/a	n/a	n/a
3143708	RECOG_RESP	n/a	LTP099	ltpFR	19	3	0	PELICAN	1039	1	n/a	1	n/a	n/a	n/a	n/a	n/a
3144202	RECOG_CONF	n/a	LTP099	ltpFR	19	3	0	PELICAN	1039	n/a	5	1	n/a	n/a	n/a	n/a	n/a
3145522	RECOG_TARGET	n/a	LTP099	ltpFR	19	3	1	SKUNK	1321	1	5	2	n/a	n/a	n/a	n/a	n/a
3146087	RECOG_RESP	n/a	LTP099	ltpFR	19	3	1	SKUNK	1321	1	n/a	2	n/a	n/a	n/a	n/a	n/a
3146716	RECOG_CONF	n/a	LTP099	ltpFR	19	3	1	SKUNK	1321	n/a	5	2	n/a	n/a	n/a	n/a	n/a
3147972	RECOG_TARGET	n/a	LTP099	ltpFR	19	3	1	VISITOR	1573	1	5	0	n/a	n/a	n/a	n/a	n/a
3148646	RECOG_RESP	n/a	LTP099	ltpFR	19	3	1	VISITOR	1573	1	n/a	0	n/a	n/a	n/a	n/a	n/a
3149190	RECOG_CONF	n/a	LTP099	ltpFR	19	3	1	VISITOR	1573	n/a	5	0	n/a	n/a	n/a	n/a	n/a
3150555	RECOG_TARGET	n/a	LTP099	ltpFR	19	3	1	BRANCH	168	1	5	0	n/a	n/a	n/a	n/a	n/a
3150996	RECOG_RESP	n/a	LTP099	ltpFR	19	3	1	BRANCH	168	1	n/a	0	n/a	n/a	n/a	n/a	n/a
3151525	RECOG_CONF	n/a	LTP099	ltpFR	19	3	1	BRANCH	168	n/a	5	0	n/a	n/a	n/a	n/a	n/a
3152837	RECOG_LURE	n/a	LTP099	ltpFR	19	3	n/a	LEAF	808	1	5	n/a	n/a	n/a	n/a	n/a	n/a
3153201	RECOG_RESP	n/a	LTP099	ltpFR	19	3	n/a	LEAF	808	1	n/a	n/a	n/a	n/a	n/a	n/a	n/a
3153720	RECOG_CONF	n/a	LTP099	ltpFR	19	3	n/a	LEAF	808	n/a	5	n/a	n/a	n/a	n/a	n/a	n/a
3155080	RECOG_TARGET	n/a	LTP099	ltpFR	19	3	1	ALBUM	14	1	5	0	n/a	n/a	n/a	n/a	n/a
3155611	RECOG_RESP	n/a	LTP099	ltpFR	19	3	1	ALBUM	14	1	n/a	0	n/a	n/a	n/a	n/a	n/a
3156154	RECOG_CONF	n/a	LTP099	ltpFR	19	3	1	ALBUM	14	n/a	5	0	n/a	n/a	n/a	n/a	n/a
3157471	RECOG_TARGET	n/a	LTP099	ltpFR	19	3	1	SUSPECT	1415	1	5	1	n/a	n/a	n/a	n/a	n/a
3157826	RECOG_RESP	n/a	LTP099	ltpFR	19	3	1	SUSPECT	1415	1	n/a	1	n/a	n/a	n/a	n/a	n/a
3158369	RECOG_CONF	n/a	LTP099	ltpFR	19	3	1	SUSPECT	1415	n/a	5	1	n/a	n/a	n/a	n/a	n/a
3159696	RECOG_LURE	n/a	LTP099	ltpFR	19	3	n/a	AFRICA	9	0	5	n/a	n/a	n/a	n/a	n/a	n/a
3160066	RECOG_RESP_VV	n/a	LTP099	ltpFR	19	3	n/a	AFRICA	9	1	n/a	n/a	n/a	n/a	n/a	n/a	n/a
3160819	RECOG_RESP	n/a	LTP099	ltpFR	19	3	n/a	AFRICA	9	0	n/a	n/a	n/a	n/a	n/a	n/a	n/a
3161532	RECOG_CONF	n/a	LTP099	ltpFR	19	3	n/a	AFRICA	9	n/a	5	n/a	n/a	n/a	n/a	n/a	n/a
3162888	RECOG_TARGET	n/a	LTP099	ltpFR	19	3	-1	WALNUT	1584	1	5	-1	n/a	n/a	n/a	n/a	n/a
3163742	RECOG_RESP	n/a	LTP099	ltpFR	19	3	-1	WALNUT	1584	1	n/a	-1	n/a	n/a	n/a	n/a	n/a
3164485	RECOG_CONF	n/a	LTP099	ltpFR	19	3	-1	WALNUT	1584	n/a	5	-1	n/a	n/a	n/a	n/a	n/a
3165836	RECOG_TARGET	n/a	LTP099	ltpFR	19	3	1	CATCHER	258	1	5	1	n/a	n/a	n/a	n/a	n/a
3166251	RECOG_RESP	n/a	LTP099	ltpFR	19	3	1	CATCHER	258	1	n/a	1	n/a	n/a	n/a	n/a	n/a
3166810	RECOG_CONF	n/a	LTP099	ltpFR	19	3	1	CATCHER	258	n/a	5	1	n/a	n/a	n/a	n/a	n/a
3169498	REC_START	n/a	LTP099	ltpFR	19	4	n/a	n/a	n/a	n/a	n/a	n/a	n/a	n/a	n/a	n/a	n/a
3169537	RECOG_LURE	n/a	LTP099	ltpFR	19	4	n/a	MANSION	864	1	5	n/a	n/a	n/a	n/a	n/a	n/a
3170545	RECOG_RESP	n/a	LTP099	ltpFR	19	4	n/a	MANSION	864	1	n/a	n/a	n/a	n/a	n/a	n/a	n/a
3171079	RECOG_CONF	n/a	LTP099	ltpFR	19	4	n/a	MANSION	864	n/a	5	n/a	n/a	n/a	n/a	n/a	n/a
3172420	RECOG_TARGET	n/a	LTP099	ltpFR	19	4	0	CRICKET	408	1	5	0	n/a	n/a	n/a	n/a	n/a
3172740	RECOG_RESP	n/a	LTP099	ltpFR	19	4	0	CRICKET	408	1	n/a	0	n/a	n/a	n/a	n/a	n/a
3173214	RECOG_CONF	n/a	LTP099	ltpFR	19	4	0	CRICKET	408	n/a	5	0	n/a	n/a	n/a	n/a	n/a
3174478	RECOG_LURE	n/a	LTP099	ltpFR	19	4	n/a	TRIGGER	1507	0	5	n/a	n/a	n/a	n/a	n/a	n/a
3174756	RECOG_RESP_VV	n/a	LTP099	ltpFR	19	4	n/a	TRIGGER	1507	1	n/a	n/a	n/a	n/a	n/a	n/a	n/a
3175364	RECOG_RESP	n/a	LTP099	ltpFR	19	4	n/a	TRIGGER	1507	0	n/a	n/a	n/a	n/a	n/a	n/a	n/a
3176038	RECOG_CONF	n/a	LTP099	ltpFR	19	4	n/a	TRIGGER	1507	n/a	5	n/a	n/a	n/a	n/a	n/a	n/a
3177420	RECOG_LURE	n/a	LTP099	ltpFR	19	4	n/a	CROW	414	0	5	n/a	n/a	n/a	n/a	n/a	n/a
3177944	RECOG_RESP_VV	n/a	LTP099	ltpFR	19	4	n/a	CROW	414	1	n/a	n/a	n/a	n/a	n/a	n/a	n/a
3179276	RECOG_RESP	n/a	LTP099	ltpFR	19	4	n/a	CROW	414	0	n/a	n/a	n/a	n/a	n/a	n/a	n/a
3179899	RECOG_CONF	n/a	LTP099	ltpFR	19	4	n/a	CROW	414	n/a	5	n/a	n/a	n/a	n/a	n/a	n/a
3181220	RECOG_LURE	n/a	LTP099	ltpFR	19	4	n/a	CHAUFFEUR	283	0	5	n/a	n/a	n/a	n/a	n/a	n/a
3181740	RECOG_RESP_VV	n/a	LTP099	ltpFR	19	4	n/a	CHAUFFEUR	283	1	n/a	n/a	n/a	n/a	n/a	n/a	n/a
3182254	RECOG_RESP	n/a	LTP099	ltpFR	19	4	n/a	CHAUFFEUR	283	0	n/a	n/a	n/a	n/a	n/a	n/a	n/a
3182892	RECOG_CONF	n/a	LTP099	ltpFR	19	4	n/a	CHAUFFEUR	283	n/a	5	n/a	n/a	n/a	n/a	n/a	n/a
3184336	RECOG_TARGET	n/a	LTP099	ltpFR	19	4	-1	HIP	710	1	5	-1	n/a	n/a	n/a	n/a	n/a
3184623	RECOG_RESP	n/a	LTP099	ltpFR	19	4	-1	HIP	710	1	n/a	-1	n/a	n/a	n/a	n/a	n/a
3185097	RECOG_CONF	n/a	LTP099	ltpFR	19	4	-1	HIP	710	n/a	5	-1	n/a	n/a	n/a	n/a	n/a
3186394	RECOG_LURE	n/a	LTP099	ltpFR	19	4	n/a	MONGOOSE	909	0	5	n/a	n/a	n/a	n/a	n/a	n/a
3186913	RECOG_RESP_VV	n/a	LTP099	ltpFR	19	4	n/a	MONGOOSE	909	1	n/a	n/a	n/a	n/a	n/a	n/a	n/a
3187367	RECOG_RESP	n/a	LTP099	ltpFR	19	4	n/a	MONGOOSE	909	0	n/a	n/a	n/a	n/a	n/a	n/a	n/a
3188001	RECOG_CONF	n/a	LTP099	ltpFR	19	4	n/a	MONGOOSE	909	n/a	5	n/a	n/a	n/a	n/a	n/a	n/a
3189436	RECOG_LURE	n/a	LTP099	ltpFR	19	4	n/a	SICKLE	1302	0	5	n/a	n/a	n/a	n/a	n/a	n/a
3190091	RECOG_RESP	n/a	LTP099	ltpFR	19	4	n/a	SICKLE	1302	0	n/a	n/a	n/a	n/a	n/a	n/a	n/a
3190645	RECOG_CONF	n/a	LTP099	ltpFR	19	4	n/a	SICKLE	1302	n/a	5	n/a	n/a	n/a	n/a	n/a	n/a
3191935	RECOG_LURE	n/a	LTP099	ltpFR	19	4	n/a	ASSISTANT	48	1	5	n/a	n/a	n/a	n/a	n/a	n/a
3192640	RECOG_RESP	n/a	LTP099	ltpFR	19	4	n/a	ASSISTANT	48	1	n/a	n/a	n/a	n/a	n/a	n/a	n/a
3193189	RECOG_CONF	n/a	LTP099	ltpFR	19	4	n/a	ASSISTANT	48	n/a	5	n/a	n/a	n/a	n/a	n/a	n/a
3194535	RECOG_TARGET	n/a	LTP099	ltpFR	19	4	-1	SHELL	1281	1	5	-1	n/a	n/a	n/a	n/a	n/a
3195274	RECOG_RESP	n/a	LTP099	ltpFR	19	4	-1	SHELL	1281	1	n/a	-1	n/a	n/a	n/a	n/a	n/a
3195793	RECOG_CONF	n/a	LTP099	ltpFR	19	4	-1	SHELL	1281	n/a	5	-1	n/a	n/a	n/a	n/a	n/a
3197110	RECOG_TARGET	n/a	LTP099	ltpFR	19	4	0	CAPTIVE	240	1	5	1	n/a	n/a	n/a	n/a	n/a
3197399	RECOG_RESP	n/a	LTP099	ltpFR	19	4	0	CAPTIVE	240	1	n/a	1	n/a	n/a	n/a	n/a	n/a
3198001	RECOG_CONF	n/a	LTP099	ltpFR	19	4	0	CAPTIVE	240	n/a	5	1	n/a	n/a	n/a	n/a	n/a
3199210	RECOG_TARGET	n/a	LTP099	ltpFR	19	4	0	GUITAR	670	1	5	0	n/a	n/a	n/a	n/a	n/a
3199515	RECOG_RESP	n/a	LTP099	ltpFR	19	4	0	GUITAR	670	1	n/a	0	n/a	n/a	n/a	n/a	n/a
3200053	RECOG_CONF	n/a	LTP099	ltpFR	19	4	0	GUITAR	670	n/a	5	0	n/a	n/a	n/a	n/a	n/a
3201343	RECOG_LURE	n/a	LTP099	ltpFR	19	4	n/a	ULCER	1533	0	5	n/a	n/a	n/a	n/a	n/a	n/a
3201764	RECOG_RESP_VV	n/a	LTP099	ltpFR	19	4	n/a	ULCER	1533	1	n/a	n/a	n/a	n/a	n/a	n/a	n/a
3202167	RECOG_RESP	n/a	LTP099	ltpFR	19	4	n/a	ULCER	1533	0	n/a	n/a	n/a	n/a	n/a	n/a	n/a
3202797	RECOG_CONF	n/a	LTP099	ltpFR	19	4	n/a	ULCER	1533	n/a	5	n/a	n/a	n/a	n/a	n/a	n/a
3204184	RECOG_LURE	n/a	LTP099	ltpFR	19	4	n/a	AMBULANCE	19	0	5	n/a	n/a	n/a	n/a	n/a	n/a
3205182	RECOG_RESP	n/a	LTP099	ltpFR	19	4	n/a	AMBULANCE	19	0	n/a	n/a	n/a	n/a	n/a	n/a	n/a
3205890	RECOG_CONF	n/a	LTP099	ltpFR	19	4	n/a	AMBULANCE	19	n/a	5	n/a	n/a	n/a	n/a	n/a	n/a
3207267	RECOG_LURE	n/a	LTP099	ltpFR	19	4	n/a	SCALLOP	1242	0	5	n/a	n/a	n/a	n/a	n/a	n/a
3208155	RECOG_RESP	n/a	LTP099	ltpFR	19	4	n/a	SCALLOP	1242	0	n/a	n/a	n/a	n/a	n/a	n/a	n/a
3208684	RECOG_CONF	n/a	LTP099	ltpFR	19	4	n/a	SCALLOP	1242	n/a	5	n/a	n/a	n/a	n/a	n/a	n/a
3210051	RECOG_TARGET	n/a	LTP099	ltpFR	19	4	0	REINDEER	1181	1	5	1	n/a	n/a	n/a	n/a	n/a
3211038	RECOG_RESP	n/a	LTP099	ltpFR	19	4	0	REINDEER	1181	1	n/a	1	n/a	n/a	n/a	n/a	n/a
3211637	RECOG_CONF	n/a	LTP099	ltpFR	19	4	0	REINDEER	1181	n/a	5	1	n/a	n/a	n/a	n/a	n/a
3212984	RECOG_LURE	n/a	LTP099	ltpFR	19	4	n/a	FISH	571	0	5	n/a	n/a	n/a	n/a	n/a	n/a
3213613	RECOG_RESP	n/a	LTP099	ltpFR	19	4	n/a	FISH	571	0	n/a	n/a	n/a	n/a	n/a	n/a	n/a
3215468	RECOG_CONF	n/a	LTP099	ltpFR	19	4	n/a	FISH	571	n/a	5	n/a	n/a	n/a	n/a	n/a	n/a
3216883	RECOG_LURE	n/a	LTP099	ltpFR	19	4	n/a	EXPLOSION	544	0	5	n/a	n/a	n/a	n/a	n/a	n/a
3217623	RECOG_RESP	n/a	LTP099	ltpFR	19	4	n/a	EXPLOSION	544	0	n/a	n/a	n/a	n/a	n/a	n/a	n/a
3218312	RECOG_CONF	n/a	LTP099	ltpFR	19	4	n/a	EXPLOSION	544	n/a	5	n/a	n/a	n/a	n/a	n/a	n/a
3219517	RECOG_LURE	n/a	LTP099	ltpFR	19	4	n/a	SHRUB	1299	0	5	n/a	n/a	n/a	n/a	n/a	n/a
3220846	RECOG_RESP	n/a	LTP099	ltpFR	19	4	n/a	SHRUB	1299	0	n/a	n/a	n/a	n/a	n/a	n/a	n/a
3221525	RECOG_CONF	n/a	LTP099	ltpFR	19	4	n/a	SHRUB	1299	n/a	5	n/a	n/a	n/a	n/a	n/a	n/a
3222891	RECOG_TARGET	n/a	LTP099	ltpFR	19	4	0	STEW	1380	1	5	0	n/a	n/a	n/a	n/a	n/a
3223510	RECOG_RESP	n/a	LTP099	ltpFR	19	4	0	STEW	1380	1	n/a	0	n/a	n/a	n/a	n/a	n/a
3224059	RECOG_CONF	n/a	LTP099	ltpFR	19	4	0	STEW	1380	n/a	5	0	n/a	n/a	n/a	n/a	n/a
3226911	REC_START	n/a	LTP099	ltpFR	19	5	n/a	n/a	n/a	n/a	n/a	n/a	n/a	n/a	n/a	n/a	n/a
3226949	RECOG_TARGET	n/a	LTP099	ltpFR	19	5	1	MEADOW	881	0	5	0	n/a	n/a	n/a	n/a	n/a
3227749	RECOG_RESP	n/a	LTP099	ltpFR	19	5	1	MEADOW	881	0	n/a	0	n/a	n/a	n/a	n/a	n/a
3228333	RECOG_CONF	n/a	LTP099	ltpFR	19	5	1	MEADOW	881	n/a	5	0	n/a	n/a	n/a	n/a	n/a
3229591	RECOG_LURE	n/a	LTP099	ltpFR	19	5	n/a	CLERK	321	0	5	n/a	n/a	n/a	n/a	n/a	n/a
3230059	RECOG_RESP_VV	n/a	LTP099	ltpFR	19	5	n/a	CLERK	321	1	n/a	n/a	n/a	n/a	n/a	n/a	n/a
3230498	RECOG_RESP	n/a	LTP099	ltpFR	19	5	n/a	CLERK	321	0	n/a	n/a	n/a	n/a	n/a	n/a	n/a
3231096	RECOG_CONF	n/a	LTP099	ltpFR	19	5	n/a	CLERK	321	n/a	5	n/a	n/a	n/a	n/a	n/a	n/a
3232541	RECOG_LURE	n/a	LTP099	ltpFR	19	5	n/a	VENT	1556	0	5	n/a	n/a	n/a	n/a	n/a	n/a
3233132	RECOG_RESP	n/a	LTP099	ltpFR	19	5	n/a	VENT	1556	0	n/a	n/a	n/a	n/a	n/a	n/a	n/a
3233611	RECOG_CONF	n/a	LTP099	ltpFR	19	5	n/a	VENT	1556	n/a	5	n/a	n/a	n/a	n/a	n/a	n/a
3234899	RECOG_TARGET	n/a	LTP099	ltpFR	19	5	0	CHIPMUNK	304	1	5	0	n/a	n/a	n/a	n/a	n/a
3235466	RECOG_RESP	n/a	LTP099	ltpFR	19	5	0	CHIPMUNK	304	1	n/a	0	n/a	n/a	n/a	n/a	n/a
3235985	RECOG_CONF	n/a	LTP099	ltpFR	19	5	0	CHIPMUNK	304	n/a	5	0	n/a	n/a	n/a	n/a	n/a
3237257	RECOG_TARGET	n/a	LTP099	ltpFR	19	5	1	KNIFE	785	1	1	0	n/a	n/a	n/a	n/a	n/a
3238070	RECOG_RESP	n/a	LTP099	ltpFR	19	5	1	KNIFE	785	1	n/a	0	n/a	n/a	n/a	n/a	n/a
3238579	RECOG_CONF	n/a	LTP099	ltpFR	19	5	1	KNIFE	785	n/a	1	0	n/a	n/a	n/a	n/a	n/a
3239882	RECOG_TARGET	n/a	LTP099	ltpFR	19	5	0	TUBA	1515	1	5	0	n/a	n/a	n/a	n/a	n/a
3240211	RECOG_RESP	n/a	LTP099	ltpFR	19	5	0	TUBA	1515	1	n/a	0	n/a	n/a	n/a	n/a	n/a
3240635	RECOG_CONF	n/a	LTP099	ltpFR	19	5	0	TUBA	1515	n/a	5	0	n/a	n/a	n/a	n/a	n/a
3241990	RECOG_LURE	n/a	LTP099	ltpFR	19	5	n/a	BACON	67	1	1	n/a	n/a	n/a	n/a	n/a	n/a
3242281	RECOG_RESP	n/a	LTP099	ltpFR	19	5	n/a	BACON	67	1	n/a	n/a	n/a	n/a	n/a	n/a	n/a
3242969	RECOG_CONF	n/a	LTP099	ltpFR	19	5	n/a	BACON	67	n/a	1	n/a	n/a	n/a	n/a	n/a	n/a
3244340	RECOG_TARGET	n/a	LTP099	ltpFR	19	5	0	PERISCOPE	1050	0	5	1	n/a	n/a	n/a	n/a	n/a
3245050	RECOG_RESP	n/a	LTP099	ltpFR	19	5	0	PERISCOPE	1050	0	n/a	1	n/a	n/a	n/a	n/a	n/a
3245603	RECOG_CONF	n/a	LTP099	ltpFR	19	5	0	PERISCOPE	1050	n/a	5	1	n/a	n/a	n/a	n/a	n/a
3246923	RECOG_TARGET	n/a	LTP099	ltpFR	19	5	0	PIER	1063	1	5	1	n/a	n/a	n/a	n/a	n/a
3247539	RECOG_RESP	n/a	LTP099	ltpFR	19	5	0	PIER	1063	1	n/a	1	n/a	n/a	n/a	n/a	n/a
3248148	RECOG_CONF	n/a	LTP099	ltpFR	19	5	0	PIER	1063	n/a	5	1	n/a	n/a	n/a	n/a	n/a
3249581	RECOG_LURE	n/a	LTP099	ltpFR	19	5	n/a	SKILLET	1317	1	1	n/a	n/a	n/a	n/a	n/a	n/a
3250018	RECOG_RESP	n/a	LTP099	ltpFR	19	5	n/a	SKILLET	1317	1	n/a	n/a	n/a	n/a	n/a	n/a	n/a
3250532	RECOG_CONF	n/a	LTP099	ltpFR	19	5	n/a	SKILLET	1317	n/a	1	n/a	n/a	n/a	n/a	n/a	n/a
3251947	RECOG_LURE	n/a	LTP099	ltpFR	19	5	n/a	YOUTH	1634	0	5	n/a	n/a	n/a	n/a	n/a	n/a
3252622	RECOG_RESP	n/a	LTP099	ltpFR	19	5	n/a	YOUTH	1634	0	n/a	n/a	n/a	n/a	n/a	n/a	n/a
3253176	RECOG_CONF	n/a	LTP099	ltpFR	19	5	n/a	YOUTH	1634	n/a	5	n/a	n/a	n/a	n/a	n/a	n/a
3254439	RECOG_LURE	n/a	LTP099	ltpFR	19	5	n/a	NURSERY	964	0	5	n/a	n/a	n/a	n/a	n/a	n/a
3255002	RECOG_RESP	n/a	LTP099	ltpFR	19	5	n/a	NURSERY	964	0	n/a	n/a	n/a	n/a	n/a	n/a	n/a
3255501	RECOG_CONF	n/a	LTP099	ltpFR	19	5	n/a	NURSERY	964	n/a	5	n/a	n/a	n/a	n/a	n/a	n/a
3256779	RECOG_TARGET	n/a	LTP099	ltpFR	19	5	1	STAIRS	1367	1	5	1	n/a	n/a	n/a	n/a	n/a
3257506	RECOG_RESP	n/a	LTP099	ltpFR	19	5	1	STAIRS	1367	1	n/a	1	n/a	n/a	n/a	n/a	n/a
3258005	RECOG_CONF	n/a	LTP099	ltpFR	19	5	1	STAIRS	1367	n/a	5	1	n/a	n/a	n/a	n/a	n/a
3259263	RECOG_TARGET	n/a	LTP099	ltpFR	19	5	-1	DIVER	476	1	5	-1	n/a	n/a	n/a	n/a	n/a
3259751	RECOG_RESP	n/a	LTP099	ltpFR	19	5	-1	DIVER	476	1	n/a	-1	n/a	n/a	n/a	n/a	n/a
3260869	RECOG_CONF	n/a	LTP099	ltpFR	19	5	-1	DIVER	476	n/a	5	-1	n/a	n/a	n/a	n/a	n/a
3262330	RECOG_TARGET	n/a	LTP099	ltpFR	19	5	-1	MOAT	903	1	5	-1	n/a	n/a	n/a	n/a	n/a
3262934	RECOG_RESP	n/a	LTP099	ltpFR	19	5	-1	MOAT	903	1	n/a	-1	n/a	n/a	n/a	n/a	n/a
3263423	RECOG_CONF	n/a	LTP099	ltpFR	19	5	-1	MOAT	903	n/a	5	-1	n/a	n/a	n/a	n/a	n/a
3264705	RECOG_LURE	n/a	LTP099	ltpFR	19	5	n/a	HONEY	713	0	5	n/a	n/a	n/a	n/a	n/a	n/a
