mstime	trial_type	stim_file	subject	experiment	session	trial	item_name	item_num	list	answer	test_x	test_y	test_z
0	SESS_START	n/a	LTP329	ltpFR2	10	n/a	n/a	n/a	n/a	n/a	0	0	0
14160	START	n/a	LTP329	ltpFR2	10	n/a	n/a	n/a	-1	n/a	n/a	n/a	n/a
14176	PROB	n/a	LTP329	ltpFR2	10	n/a	n/a	n/a	-1	10	6	1	3
15780	PROB	n/a	LTP329	ltpFR2	10	n/a	n/a	n/a	-1	14	3	6	5
18314	PROB	n/a	LTP329	ltpFR2	10	n/a	n/a	n/a	-1	4	2	1	1
19499	PROB	n/a	LTP329	ltpFR2	10	n/a	n/a	n/a	-1	15	2	6	7
21516	PROB	n/a	LTP329	ltpFR2	10	n/a	n/a	n/a	-1	20	7	6	7
23384	PROB	n/a	LTP329	ltpFR2	10	n/a	n/a	n/a	-1	16	5	8	3
25146	STOP	n/a	LTP329	ltpFR2	10	n/a	n/a	n/a	-1	n/a	n/a	n/a	n/a
67054	WORD	wordpools/wasnorm_wordpool_576.txt	LTP329	ltpFR2	10	1	RUG	1215	n/a	n/a	0	0	0
69857	WORD	wordpools/wasnorm_wordpool_576.txt	LTP329	ltpFR2	10	1	LIPSTICK	829	n/a	n/a	0	0	0
72374	WORD	wordpools/wasnorm_wordpool_576.txt	LTP329	ltpFR2	10	1	PRINCESS	1125	n/a	n/a	0	0	0
75176	WORD	wordpools/wasnorm_wordpool_576.txt	LTP329	ltpFR2	10	1	VIRUS	1572	n/a	n/a	0	0	0
77879	WORD	wordpools/wasnorm_wordpool_576.txt	LTP329	ltpFR2	10	1	DUSTPAN	509	n/a	n/a	0	0	0
80465	WORD	wordpools/wasnorm_wordpool_576.txt	LTP329	ltpFR2	10	1	MOP	916	n/a	n/a	0	0	0
83182	WORD	wordpools/wasnorm_wordpool_576.txt	LTP329	ltpFR2	10	1	CHILD	299	n/a	n/a	0	0	0
85669	WORD	wordpools/wasnorm_wordpool_576.txt	LTP329	ltpFR2	10	1	ZIPPER	1636	n/a	n/a	0	0	0
88471	WORD	wordpools/wasnorm_wordpool_576.txt	LTP329	ltpFR2	10	1	FUNGUS	614	n/a	n/a	0	0	0
91156	WORD	wordpools/wasnorm_wordpool_576.txt	LTP329	ltpFR2	10	1	WIFE	1609	n/a	n/a	0	0	0
93608	WORD	wordpools/wasnorm_wordpool_576.txt	LTP329	ltpFR2	10	1	KETCHUP	771	n/a	n/a	0	0	0
96360	WORD	wordpools/wasnorm_wordpool_576.txt	LTP329	ltpFR2	10	1	TWEEZERS	1526	n/a	n/a	0	0	0
99097	WORD	wordpools/wasnorm_wordpool_576.txt	LTP329	ltpFR2	10	1	SPOUSE	1358	n/a	n/a	0	0	0
101631	WORD	wordpools/wasnorm_wordpool_576.txt	LTP329	ltpFR2	10	1	SNAIL	1332	n/a	n/a	0	0	0
104316	WORD	wordpools/wasnorm_wordpool_576.txt	LTP329	ltpFR2	10	1	BASEMENT	94	n/a	n/a	0	0	0
107069	WORD	wordpools/wasnorm_wordpool_576.txt	LTP329	ltpFR2	10	1	YACHT	1629	n/a	n/a	0	0	0
109604	WORD	wordpools/wasnorm_wordpool_576.txt	LTP329	ltpFR2	10	1	BISON	131	n/a	n/a	0	0	0
112406	WORD	wordpools/wasnorm_wordpool_576.txt	LTP329	ltpFR2	10	1	ZEBRA	1635	n/a	n/a	0	0	0
115142	WORD	wordpools/wasnorm_wordpool_576.txt	LTP329	ltpFR2	10	1	ITEM	746	n/a	n/a	0	0	0
117712	WORD	wordpools/wasnorm_wordpool_576.txt	LTP329	ltpFR2	10	1	OUTLAW	989	n/a	n/a	0	0	0
120280	WORD	wordpools/wasnorm_wordpool_576.txt	LTP329	ltpFR2	10	1	CAPTIVE	240	n/a	n/a	0	0	0
122949	WORD	wordpools/wasnorm_wordpool_576.txt	LTP329	ltpFR2	10	1	DORM	488	n/a	n/a	0	0	0
125684	WORD	wordpools/wasnorm_wordpool_576.txt	LTP329	ltpFR2	10	1	PLAID	1080	n/a	n/a	0	0	0
128386	WORD	wordpools/wasnorm_wordpool_576.txt	LTP329	ltpFR2	10	1	BEAKER	104	n/a	n/a	0	0	0
130006	START	n/a	LTP329	ltpFR2	10	n/a	n/a	n/a	1	n/a	n/a	n/a	n/a
130823	DISTRACTOR	n/a	LTP329	ltpFR2	10	1	n/a	n/a	n/a	n/a	0	0	0
130839	PROB	n/a	LTP329	ltpFR2	10	n/a	n/a	n/a	1	20	2	9	9
133807	PROB	n/a	LTP329	ltpFR2	10	n/a	n/a	n/a	1	8	2	2	4
135592	PROB	n/a	LTP329	ltpFR2	10	n/a	n/a	n/a	1	7	2	3	2
136844	PROB	n/a	LTP329	ltpFR2	10	n/a	n/a	n/a	1	15	2	5	8
138127	PROB	n/a	LTP329	ltpFR2	10	n/a	n/a	n/a	1	14	3	4	7
139560	PROB	n/a	LTP329	ltpFR2	10	n/a	n/a	n/a	1	15	2	4	9
141330	PROB	n/a	LTP329	ltpFR2	10	n/a	n/a	n/a	1	12	7	1	4
143016	PROB	n/a	LTP329	ltpFR2	10	n/a	n/a	n/a	1	18	6	7	5
144968	PROB	n/a	LTP329	ltpFR2	10	n/a	n/a	n/a	1	18	2	9	7
146549	PROB	n/a	LTP329	ltpFR2	10	n/a	n/a	n/a	1	14	4	1	9
148167	PROB	n/a	LTP329	ltpFR2	10	n/a	n/a	n/a	1	14	4	6	4
149585	PROB	n/a	LTP329	ltpFR2	10	n/a	n/a	n/a	1	18	8	4	6
150822	PROB	n/a	LTP329	ltpFR2	10	n/a	n/a	n/a	1	11	6	1	4
151938	PROB	n/a	LTP329	ltpFR2	10	n/a	n/a	n/a	1	12	4	3	5
153905	STOP	n/a	LTP329	ltpFR2	10	n/a	n/a	n/a	1	n/a	n/a	n/a	n/a
155794	REC_START	n/a	LTP329	ltpFR2	10	1	n/a	n/a	n/a	n/a	0	0	0
157844	REC_WORD	wordpools/wasnorm_wordpool_576.txt	LTP329	ltpFR2	10	1	OUTLAW	989	n/a	n/a	0	0	0
159260	REC_WORD	wordpools/wasnorm_wordpool_576.txt	LTP329	ltpFR2	10	1	CAPTIVE	240	n/a	n/a	0	0	0
160693	REC_WORD	wordpools/wasnorm_wordpool_576.txt	LTP329	ltpFR2	10	1	RUG	1215	n/a	n/a	0	0	0
162281	REC_WORD	wordpools/wasnorm_wordpool_576.txt	LTP329	ltpFR2	10	1	BASEMENT	94	n/a	n/a	0	0	0
163525	REC_WORD	wordpools/wasnorm_wordpool_576.txt	LTP329	ltpFR2	10	1	YACHT	1629	n/a	n/a	0	0	0
166377	REC_WORD	wordpools/wasnorm_wordpool_576.txt	LTP329	ltpFR2	10	1	ITEM	746	n/a	n/a	0	0	0
168842	REC_WORD	wordpools/wasnorm_wordpool_576.txt	LTP329	ltpFR2	10	1	SNAIL	1332	n/a	n/a	0	0	0
171932	REC_WORD	wordpools/wasnorm_wordpool_576.txt	LTP329	ltpFR2	10	1	KETCHUP	771	n/a	n/a	0	0	0
175777	REC_WORD	wordpools/wasnorm_wordpool_576.txt	LTP329	ltpFR2	10	1	ZEBRA	1635	n/a	n/a	0	0	0
177213	REC_WORD	wordpools/wasnorm_wordpool_576.txt	LTP329	ltpFR2	10	1	BISON	131	n/a	n/a	0	0	0
179276	REC_WORD	wordpools/wasnorm_wordpool_576.txt	LTP329	ltpFR2	10	1	PRINCESS	1125	n/a	n/a	0	0	0
181000	REC_WORD	wordpools/wasnorm_wordpool_576.txt	LTP329	ltpFR2	10	1	SPOUSE	1358	n/a	n/a	0	0	0
182503	REC_WORD	wordpools/wasnorm_wordpool_576.txt	LTP329	ltpFR2	10	1	WIFE	1609	n/a	n/a	0	0	0
183995	REC_WORD	wordpools/wasnorm_wordpool_576.txt	LTP329	ltpFR2	10	1	LIPSTICK	829	n/a	n/a	0	0	0
187368	REC_WORD	wordpools/wasnorm_wordpool_576.txt	LTP329	ltpFR2	10	1	TWEEZERS	1526	n/a	n/a	0	0	0
189182	REC_WORD	wordpools/wasnorm_wordpool_576.txt	LTP329	ltpFR2	10	1	PLAID	1080	n/a	n/a	0	0	0
204753	REC_WORD	wordpools/wasnorm_wordpool_576.txt	LTP329	ltpFR2	10	1	CHILD	299	n/a	n/a	0	0	0
246247	DISTRACTOR	n/a	LTP329	ltpFR2	10	2	n/a	n/a	n/a	n/a	0	0	0
246248	START	n/a	LTP329	ltpFR2	10	n/a	n/a	n/a	2	n/a	n/a	n/a	n/a
246264	PROB	n/a	LTP329	ltpFR2	10	n/a	n/a	n/a	2	13	3	9	1
247701	PROB	n/a	LTP329	ltpFR2	10	n/a	n/a	n/a	2	12	2	2	8
248917	PROB	n/a	LTP329	ltpFR2	10	n/a	n/a	n/a	2	13	1	4	8
250618	PROB	n/a	LTP329	ltpFR2	10	n/a	n/a	n/a	2	14	5	1	8
252569	PROB	n/a	LTP329	ltpFR2	10	n/a	n/a	n/a	2	15	1	9	5
253688	PROB	n/a	LTP329	ltpFR2	10	n/a	n/a	n/a	2	21	7	9	5
255888	PROB	n/a	LTP329	ltpFR2	10	n/a	n/a	n/a	2	15	4	6	5
258774	PROB	n/a	LTP329	ltpFR2	10	n/a	n/a	n/a	2	16	7	4	5
260643	PROB	n/a	LTP329	ltpFR2	10	n/a	n/a	n/a	2	8	4	3	1
262044	PROB	n/a	LTP329	ltpFR2	10	n/a	n/a	n/a	2	11	5	5	1
263030	PROB	n/a	LTP329	ltpFR2	10	n/a	n/a	n/a	2	21	8	5	8
264461	PROB	n/a	LTP329	ltpFR2	10	n/a	n/a	n/a	2	14	4	9	1
265663	PROB	n/a	LTP329	ltpFR2	10	n/a	n/a	n/a	2	11	6	3	2
267449	PROB	n/a	LTP329	ltpFR2	10	n/a	n/a	n/a	2	7	1	5	1
268878	STOP	n/a	LTP329	ltpFR2	10	n/a	n/a	n/a	2	n/a	n/a	n/a	n/a
271385	WORD	wordpools/wasnorm_wordpool_576.txt	LTP329	ltpFR2	10	2	BUNNY	198	n/a	n/a	0	0	0
273887	WORD	wordpools/wasnorm_wordpool_576.txt	LTP329	ltpFR2	10	2	TORTOISE	1486	n/a	n/a	0	0	0
276638	WORD	wordpools/wasnorm_wordpool_576.txt	LTP329	ltpFR2	10	2	CLOCK	325	n/a	n/a	0	0	0
279441	WORD	wordpools/wasnorm_wordpool_576.txt	LTP329	ltpFR2	10	2	LUGGAGE	847	n/a	n/a	0	0	0
282194	WORD	wordpools/wasnorm_wordpool_576.txt	LTP329	ltpFR2	10	2	FRIAR	605	n/a	n/a	0	0	0
284763	WORD	wordpools/wasnorm_wordpool_576.txt	LTP329	ltpFR2	10	2	HOUND	724	n/a	n/a	0	0	0
287330	WORD	wordpools/wasnorm_wordpool_576.txt	LTP329	ltpFR2	10	2	PISTON	1076	n/a	n/a	0	0	0
290133	WORD	wordpools/wasnorm_wordpool_576.txt	LTP329	ltpFR2	10	2	PANTHER	1009	n/a	n/a	0	0	0
292920	WORD	wordpools/wasnorm_wordpool_576.txt	LTP329	ltpFR2	10	2	JUGGLER	763	n/a	n/a	0	0	0
295637	WORD	wordpools/wasnorm_wordpool_576.txt	LTP329	ltpFR2	10	2	ACTRESS	6	n/a	n/a	0	0	0
298256	WORD	wordpools/wasnorm_wordpool_576.txt	LTP329	ltpFR2	10	2	RECORD	1176	n/a	n/a	0	0	0
300942	WORD	wordpools/wasnorm_wordpool_576.txt	LTP329	ltpFR2	10	2	SPIDER	1351	n/a	n/a	0	0	0
303745	WORD	wordpools/wasnorm_wordpool_576.txt	LTP329	ltpFR2	10	2	VENUS	1557	n/a	n/a	0	0	0
306529	WORD	wordpools/wasnorm_wordpool_576.txt	LTP329	ltpFR2	10	2	CHEMIST	292	n/a	n/a	0	0	0
308982	WORD	wordpools/wasnorm_wordpool_576.txt	LTP329	ltpFR2	10	2	CASKET	255	n/a	n/a	0	0	0
311450	WORD	wordpools/wasnorm_wordpool_576.txt	LTP329	ltpFR2	10	2	TOMBSTONE	1478	n/a	n/a	0	0	0
313937	WORD	wordpools/wasnorm_wordpool_576.txt	LTP329	ltpFR2	10	2	LEOPARD	812	n/a	n/a	0	0	0
316455	WORD	wordpools/wasnorm_wordpool_576.txt	LTP329	ltpFR2	10	2	KLEENEX	782	n/a	n/a	0	0	0
319273	WORD	wordpools/wasnorm_wordpool_576.txt	LTP329	ltpFR2	10	2	RELISH	1183	n/a	n/a	0	0	0
321776	WORD	wordpools/wasnorm_wordpool_576.txt	LTP329	ltpFR2	10	2	SUMMIT	1405	n/a	n/a	0	0	0
324344	WORD	wordpools/wasnorm_wordpool_576.txt	LTP329	ltpFR2	10	2	SNAKE	1333	n/a	n/a	0	0	0
327080	WORD	wordpools/wasnorm_wordpool_576.txt	LTP329	ltpFR2	10	2	PATIENT	1024	n/a	n/a	0	0	0
329849	WORD	wordpools/wasnorm_wordpool_576.txt	LTP329	ltpFR2	10	2	VAGRANT	1544	n/a	n/a	0	0	0
332284	WORD	wordpools/wasnorm_wordpool_576.txt	LTP329	ltpFR2	10	2	CANYON	235	n/a	n/a	0	0	0
333903	START	n/a	LTP329	ltpFR2	10	n/a	n/a	n/a	3	n/a	n/a	n/a	n/a
334949	DISTRACTOR	n/a	LTP329	ltpFR2	10	2	n/a	n/a	n/a	n/a	0	0	0
334954	PROB	n/a	LTP329	ltpFR2	10	n/a	n/a	n/a	3	17	4	5	8
338855	PROB	n/a	LTP329	ltpFR2	10	n/a	n/a	n/a	3	16	7	2	7
340457	PROB	n/a	LTP329	ltpFR2	10	n/a	n/a	n/a	3	23	6	9	8
343559	PROB	n/a	LTP329	ltpFR2	10	n/a	n/a	n/a	3	17	5	5	7
344944	PROB	n/a	LTP329	ltpFR2	10	n/a	n/a	n/a	3	15	4	9	2
347780	PROB	n/a	LTP329	ltpFR2	10	n/a	n/a	n/a	3	8	1	1	6
349213	PROB	n/a	LTP329	ltpFR2	10	n/a	n/a	n/a	3	19	9	8	2
350530	PROB	n/a	LTP329	ltpFR2	10	n/a	n/a	n/a	3	13	5	2	6
352416	PROB	n/a	LTP329	ltpFR2	10	n/a	n/a	n/a	3	18	1	9	8
353582	PROB	n/a	LTP329	ltpFR2	10	n/a	n/a	n/a	3	13	4	7	2
355301	PROB	n/a	LTP329	ltpFR2	10	n/a	n/a	n/a	3	13	2	3	8
357153	STOP	n/a	LTP329	ltpFR2	10	n/a	n/a	n/a	3	n/a	n/a	n/a	n/a
359774	REC_START	n/a	LTP329	ltpFR2	10	2	n/a	n/a	n/a	n/a	0	0	0
361705	REC_WORD	wordpools/wasnorm_wordpool_576.txt	LTP329	ltpFR2	10	2	VAGRANT	1544	n/a	n/a	0	0	0
362705	REC_WORD_VV	wordpools/wasnorm_wordpool_576.txt	LTP329	ltpFR2	10	2	<>	-1	n/a	n/a	0	0	0
363544	REC_WORD	wordpools/wasnorm_wordpool_576.txt	LTP329	ltpFR2	10	2	LUGGAGE	847	n/a	n/a	0	0	0
367458	REC_WORD	wordpools/wasnorm_wordpool_576.txt	LTP329	ltpFR2	10	2	BUNNY	198	n/a	n/a	0	0	0
368941	REC_WORD	wordpools/wasnorm_wordpool_576.txt	LTP329	ltpFR2	10	2	TORTOISE	1486	n/a	n/a	0	0	0
370589	REC_WORD	wordpools/wasnorm_wordpool_576.txt	LTP329	ltpFR2	10	2	LEOPARD	812	n/a	n/a	0	0	0
374664	REC_WORD	wordpools/wasnorm_wordpool_576.txt	LTP329	ltpFR2	10	2	SUMMIT	1405	n/a	n/a	0	0	0
376414	REC_WORD	wordpools/wasnorm_wordpool_576.txt	LTP329	ltpFR2	10	2	CANYON	235	n/a	n/a	0	0	0
378066	REC_WORD	wordpools/wasnorm_wordpool_576.txt	LTP329	ltpFR2	10	2	RELISH	1183	n/a	n/a	0	0	0
384611	REC_WORD	wordpools/wasnorm_wordpool_576.txt	LTP329	ltpFR2	10	2	CASKET	255	n/a	n/a	0	0	0
386267	REC_WORD	wordpools/wasnorm_wordpool_576.txt	LTP329	ltpFR2	10	2	TOMBSTONE	1478	n/a	n/a	0	0	0
388281	REC_WORD	wordpools/wasnorm_wordpool_576.txt	LTP329	ltpFR2	10	2	CLOCK	325	n/a	n/a	0	0	0
395564	REC_WORD	wordpools/wasnorm_wordpool_576.txt	LTP329	ltpFR2	10	2	SNAKE	1333	n/a	n/a	0	0	0
404766	REC_WORD	wordpools/wasnorm_wordpool_576.txt	LTP329	ltpFR2	10	2	CHEMIST	292	n/a	n/a	0	0	0
411207	REC_WORD	wordpools/wasnorm_wordpool_576.txt	LTP329	ltpFR2	10	2	JUGGLER	763	n/a	n/a	0	0	0
412716	REC_WORD	wordpools/wasnorm_wordpool_576.txt	LTP329	ltpFR2	10	2	ACTRESS	6	n/a	n/a	0	0	0
450228	DISTRACTOR	n/a	LTP329	ltpFR2	10	3	n/a	n/a	n/a	n/a	0	0	0
450228	START	n/a	LTP329	ltpFR2	10	n/a	n/a	n/a	4	n/a	n/a	n/a	n/a
450246	PROB	n/a	LTP329	ltpFR2	10	n/a	n/a	n/a	4	9	3	3	3
452412	PROB	n/a	LTP329	ltpFR2	10	n/a	n/a	n/a	4	12	5	3	4
454348	PROB	n/a	LTP329	ltpFR2	10	n/a	n/a	n/a	4	16	4	6	6
456633	PROB	n/a	LTP329	ltpFR2	10	n/a	n/a	n/a	4	10	1	8	1
459218	PROB	n/a	LTP329	ltpFR2	10	n/a	n/a	n/a	4	7	2	3	2
460487	PROB	n/a	LTP329	ltpFR2	10	n/a	n/a	n/a	4	23	9	9	5
462788	PROB	n/a	LTP329	ltpFR2	10	n/a	n/a	n/a	4	9	4	1	4
464007	PROB	n/a	LTP329	ltpFR2	10	n/a	n/a	n/a	4	13	4	4	5
465974	PROB	n/a	LTP329	ltpFR2	10	n/a	n/a	n/a	4	10	2	6	2
467226	PROB	n/a	LTP329	ltpFR2	10	n/a	n/a	n/a	4	14	7	4	3
468509	PROB	n/a	LTP329	ltpFR2	10	n/a	n/a	n/a	4	16	7	2	7
469860	PROB	n/a	LTP329	ltpFR2	10	n/a	n/a	n/a	4	16	2	7	7
471030	PROB	n/a	LTP329	ltpFR2	10	n/a	n/a	n/a	4	9	1	2	6
472246	PROB	n/a	LTP329	ltpFR2	10	n/a	n/a	n/a	4	5	2	1	2
473166	STOP	n/a	LTP329	ltpFR2	10	n/a	n/a	n/a	4	n/a	n/a	n/a	n/a
475199	WORD	wordpools/wasnorm_wordpool_576.txt	LTP329	ltpFR2	10	3	INFANT	737	n/a	n/a	0	0	0
477736	WORD	wordpools/wasnorm_wordpool_576.txt	LTP329	ltpFR2	10	3	FLASK	576	n/a	n/a	0	0	0
480553	WORD	wordpools/wasnorm_wordpool_576.txt	LTP329	ltpFR2	10	3	CUPBOARD	425	n/a	n/a	0	0	0
483372	WORD	wordpools/wasnorm_wordpool_576.txt	LTP329	ltpFR2	10	3	EGYPT	519	n/a	n/a	0	0	0
486075	WORD	wordpools/wasnorm_wordpool_576.txt	LTP329	ltpFR2	10	3	BADGE	68	n/a	n/a	0	0	0
488894	WORD	wordpools/wasnorm_wordpool_576.txt	LTP329	ltpFR2	10	3	QUAIL	1147	n/a	n/a	0	0	0
491528	WORD	wordpools/wasnorm_wordpool_576.txt	LTP329	ltpFR2	10	3	ANKLE	24	n/a	n/a	0	0	0
494098	WORD	wordpools/wasnorm_wordpool_576.txt	LTP329	ltpFR2	10	3	FOOT	590	n/a	n/a	0	0	0
496784	WORD	wordpools/wasnorm_wordpool_576.txt	LTP329	ltpFR2	10	3	PIGEON	1065	n/a	n/a	0	0	0
499318	WORD	wordpools/wasnorm_wordpool_576.txt	LTP329	ltpFR2	10	3	RABBIT	1152	n/a	n/a	0	0	0
501771	WORD	wordpools/wasnorm_wordpool_576.txt	LTP329	ltpFR2	10	3	FOX	598	n/a	n/a	0	0	0
504438	WORD	wordpools/wasnorm_wordpool_576.txt	LTP329	ltpFR2	10	3	HEDGE	699	n/a	n/a	0	0	0
507108	WORD	wordpools/wasnorm_wordpool_576.txt	LTP329	ltpFR2	10	3	LOFT	840	n/a	n/a	0	0	0
509793	WORD	wordpools/wasnorm_wordpool_576.txt	LTP329	ltpFR2	10	3	DANDRUFF	439	n/a	n/a	0	0	0
512594	WORD	wordpools/wasnorm_wordpool_576.txt	LTP329	ltpFR2	10	3	MARS	873	n/a	n/a	0	0	0
515380	WORD	wordpools/wasnorm_wordpool_576.txt	LTP329	ltpFR2	10	3	BUGGY	188	n/a	n/a	0	0	0
518132	WORD	wordpools/wasnorm_wordpool_576.txt	LTP329	ltpFR2	10	3	TRIBE	1505	n/a	n/a	0	0	0
520734	WORD	wordpools/wasnorm_wordpool_576.txt	LTP329	ltpFR2	10	3	COWBOY	395	n/a	n/a	0	0	0
523452	WORD	wordpools/wasnorm_wordpool_576.txt	LTP329	ltpFR2	10	3	PADDING	999	n/a	n/a	0	0	0
525905	WORD	wordpools/wasnorm_wordpool_576.txt	LTP329	ltpFR2	10	3	MEDAL	885	n/a	n/a	0	0	0
528658	WORD	wordpools/wasnorm_wordpool_576.txt	LTP329	ltpFR2	10	3	BABY	64	n/a	n/a	0	0	0
531127	WORD	wordpools/wasnorm_wordpool_576.txt	LTP329	ltpFR2	10	3	TURTLE	1522	n/a	n/a	0	0	0
533945	WORD	wordpools/wasnorm_wordpool_576.txt	LTP329	ltpFR2	10	3	PENGUIN	1044	n/a	n/a	0	0	0
536562	WORD	wordpools/wasnorm_wordpool_576.txt	LTP329	ltpFR2	10	3	ROBBER	1197	n/a	n/a	0	0	0
538181	START	n/a	LTP329	ltpFR2	10	n/a	n/a	n/a	5	n/a	n/a	n/a	n/a
539040	DISTRACTOR	n/a	LTP329	ltpFR2	10	3	n/a	n/a	n/a	n/a	0	0	0
539049	PROB	n/a	LTP329	ltpFR2	10	n/a	n/a	n/a	5	22	6	7	9
543567	PROB	n/a	LTP329	ltpFR2	10	n/a	n/a	n/a	5	9	4	1	4
544752	PROB	n/a	LTP329	ltpFR2	10	n/a	n/a	n/a	5	23	9	7	7
548471	PROB	n/a	LTP329	ltpFR2	10	n/a	n/a	n/a	5	18	8	9	1
549974	PROB	n/a	LTP329	ltpFR2	10	n/a	n/a	n/a	5	16	9	5	2
551640	PROB	n/a	LTP329	ltpFR2	10	n/a	n/a	n/a	5	6	3	2	1
553191	PROB	n/a	LTP329	ltpFR2	10	n/a	n/a	n/a	5	11	4	6	1
554343	PROB	n/a	LTP329	ltpFR2	10	n/a	n/a	n/a	5	16	4	8	4
556277	PROB	n/a	LTP329	ltpFR2	10	n/a	n/a	n/a	5	13	2	4	7
557947	PROB	n/a	LTP329	ltpFR2	10	n/a	n/a	n/a	5	17	3	8	6
560083	PROB	n/a	LTP329	ltpFR2	10	n/a	n/a	n/a	5	14	8	3	3
561656	STOP	n/a	LTP329	ltpFR2	10	n/a	n/a	n/a	5	n/a	n/a	n/a	n/a
564084	REC_START	n/a	LTP329	ltpFR2	10	3	n/a	n/a	n/a	n/a	0	0	0
565831	REC_WORD	wordpools/wasnorm_wordpool_576.txt	LTP329	ltpFR2	10	3	ROBBER	1197	n/a	n/a	0	0	0
569605	REC_WORD	wordpools/wasnorm_wordpool_576.txt	LTP329	ltpFR2	10	3	LOFT	840	n/a	n/a	0	0	0
571231	REC_WORD	wordpools/wasnorm_wordpool_576.txt	LTP329	ltpFR2	10	3	PADDING	999	n/a	n/a	0	0	0
580572	REC_WORD	wordpools/wasnorm_wordpool_576.txt	LTP329	ltpFR2	10	3	TRIBE	1505	n/a	n/a	0	0	0
582565	REC_WORD	wordpools/wasnorm_wordpool_576.txt	LTP329	ltpFR2	10	3	COWBOY	395	n/a	n/a	0	0	0
585487	REC_WORD	wordpools/wasnorm_wordpool_576.txt	LTP329	ltpFR2	10	3	TURTLE	1522	n/a	n/a	0	0	0
587059	REC_WORD	wordpools/wasnorm_wordpool_576.txt	LTP329	ltpFR2	10	3	RABBIT	1152	n/a	n/a	0	0	0
589202	REC_WORD	wordpools/wasnorm_wordpool_576.txt	LTP329	ltpFR2	10	3	FOX	598	n/a	n/a	0	0	0
590202	REC_WORD_VV	wordpools/wasnorm_wordpool_576.txt	LTP329	ltpFR2	10	3	<>	-1	n/a	n/a	0	0	0
605674	REC_WORD	wordpools/wasnorm_wordpool_576.txt	LTP329	ltpFR2	10	3	MARS	873	n/a	n/a	0	0	0
607677	REC_WORD	wordpools/wasnorm_wordpool_576.txt	LTP329	ltpFR2	10	3	EGYPT	519	n/a	n/a	0	0	0
621112	REC_WORD	wordpools/wasnorm_wordpool_576.txt	LTP329	ltpFR2	10	3	ANKLE	24	n/a	n/a	0	0	0
622507	REC_WORD	wordpools/wasnorm_wordpool_576.txt	LTP329	ltpFR2	10	3	FOOT	590	n/a	n/a	0	0	0
624298	REC_WORD	wordpools/wasnorm_wordpool_576.txt	LTP329	ltpFR2	10	3	PIGEON	1065	n/a	n/a	0	0	0
638070	REC_WORD	wordpools/wasnorm_wordpool_576.txt	LTP329	ltpFR2	10	3	HEDGE	699	n/a	n/a	0	0	0
654554	WORD	wordpools/wasnorm_wordpool_576.txt	LTP329	ltpFR2	10	4	REBEL	1172	n/a	n/a	0	0	0
657223	WORD	wordpools/wasnorm_wordpool_576.txt	LTP329	ltpFR2	10	4	CATTLE	261	n/a	n/a	0	0	0
659892	WORD	wordpools/wasnorm_wordpool_576.txt	LTP329	ltpFR2	10	4	EMPIRE	530	n/a	n/a	0	0	0
662477	WORD	wordpools/wasnorm_wordpool_576.txt	LTP329	ltpFR2	10	4	CROWN	415	n/a	n/a	0	0	0
664980	WORD	wordpools/wasnorm_wordpool_576.txt	LTP329	ltpFR2	10	4	SHELF	1280	n/a	n/a	0	0	0
667715	WORD	wordpools/wasnorm_wordpool_576.txt	LTP329	ltpFR2	10	4	LIGHTNING	820	n/a	n/a	0	0	0
670249	WORD	wordpools/wasnorm_wordpool_576.txt	LTP329	ltpFR2	10	4	PORTRAIT	1111	n/a	n/a	0	0	0
672902	WORD	wordpools/wasnorm_wordpool_576.txt	LTP329	ltpFR2	10	4	DRAGON	492	n/a	n/a	0	0	0
675487	WORD	wordpools/wasnorm_wordpool_576.txt	LTP329	ltpFR2	10	4	COUNTY	389	n/a	n/a	0	0	0
678139	WORD	wordpools/wasnorm_wordpool_576.txt	LTP329	ltpFR2	10	4	IDOL	733	n/a	n/a	0	0	0
680976	WORD	wordpools/wasnorm_wordpool_576.txt	LTP329	ltpFR2	10	4	FEMALE	559	n/a	n/a	0	0	0
683728	WORD	wordpools/wasnorm_wordpool_576.txt	LTP329	ltpFR2	10	4	THIEF	1456	n/a	n/a	0	0	0
686378	WORD	wordpools/wasnorm_wordpool_576.txt	LTP329	ltpFR2	10	4	SUSPECT	1415	n/a	n/a	0	0	0
688949	WORD	wordpools/wasnorm_wordpool_576.txt	LTP329	ltpFR2	10	4	CRAB	397	n/a	n/a	0	0	0
691734	WORD	wordpools/wasnorm_wordpool_576.txt	LTP329	ltpFR2	10	4	AUTHOR	61	n/a	n/a	0	0	0
694168	WORD	wordpools/wasnorm_wordpool_576.txt	LTP329	ltpFR2	10	4	DOUGHNUT	490	n/a	n/a	0	0	0
696603	WORD	wordpools/wasnorm_wordpool_576.txt	LTP329	ltpFR2	10	4	REPORT	1184	n/a	n/a	0	0	0
699040	WORD	wordpools/wasnorm_wordpool_576.txt	LTP329	ltpFR2	10	4	GUITAR	670	n/a	n/a	0	0	0
701491	WORD	wordpools/wasnorm_wordpool_576.txt	LTP329	ltpFR2	10	4	TROMBONE	1508	n/a	n/a	0	0	0
704209	WORD	wordpools/wasnorm_wordpool_576.txt	LTP329	ltpFR2	10	4	GHETTO	633	n/a	n/a	0	0	0
706746	WORD	wordpools/wasnorm_wordpool_576.txt	LTP329	ltpFR2	10	4	MESSAGE	888	n/a	n/a	0	0	0
709213	WORD	wordpools/wasnorm_wordpool_576.txt	LTP329	ltpFR2	10	4	WORKER	1621	n/a	n/a	0	0	0
711766	WORD	wordpools/wasnorm_wordpool_576.txt	LTP329	ltpFR2	10	4	HOOK	715	n/a	n/a	0	0	0
714400	WORD	wordpools/wasnorm_wordpool_576.txt	LTP329	ltpFR2	10	4	SCALPEL	1243	n/a	n/a	0	0	0
716019	START	n/a	LTP329	ltpFR2	10	n/a	n/a	n/a	6	n/a	n/a	n/a	n/a
717196	DISTRACTOR	n/a	LTP329	ltpFR2	10	4	n/a	n/a	n/a	n/a	0	0	0
717203	PROB	n/a	LTP329	ltpFR2	10	n/a	n/a	n/a	6	11	1	9	1
719788	PROB	n/a	LTP329	ltpFR2	10	n/a	n/a	n/a	6	12	6	4	2
721055	PROB	n/a	LTP329	ltpFR2	10	n/a	n/a	n/a	6	20	9	9	2
725191	PROB	n/a	LTP329	ltpFR2	10	n/a	n/a	n/a	6	13	6	3	4
726661	PROB	n/a	LTP329	ltpFR2	10	n/a	n/a	n/a	6	12	2	4	6
727995	PROB	n/a	LTP329	ltpFR2	10	n/a	n/a	n/a	6	20	5	9	6
729896	PROB	n/a	LTP329	ltpFR2	10	n/a	n/a	n/a	6	13	1	4	8
731981	PROB	n/a	LTP329	ltpFR2	10	n/a	n/a	n/a	6	22	7	8	7
734331	PROB	n/a	LTP329	ltpFR2	10	n/a	n/a	n/a	6	18	7	5	6
736416	PROB	n/a	LTP329	ltpFR2	10	n/a	n/a	n/a	6	15	2	8	5
738218	PROB	n/a	LTP329	ltpFR2	10	n/a	n/a	n/a	6	17	7	8	2
739674	STOP	n/a	LTP329	ltpFR2	10	n/a	n/a	n/a	6	n/a	n/a	n/a	n/a
741790	REC_START	n/a	LTP329	ltpFR2	10	4	n/a	n/a	n/a	n/a	0	0	0
742889	REC_WORD	wordpools/wasnorm_wordpool_576.txt	LTP329	ltpFR2	10	4	SCALPEL	1243	n/a	n/a	0	0	0
745617	REC_WORD	wordpools/wasnorm_wordpool_576.txt	LTP329	ltpFR2	10	4	CROWN	415	n/a	n/a	0	0	0
747409	REC_WORD	wordpools/wasnorm_wordpool_576.txt	LTP329	ltpFR2	10	4	PORTRAIT	1111	n/a	n/a	0	0	0
749277	REC_WORD	wordpools/wasnorm_wordpool_576.txt	LTP329	ltpFR2	10	4	EMPIRE	530	n/a	n/a	0	0	0
751019	REC_WORD	wordpools/wasnorm_wordpool_576.txt	LTP329	ltpFR2	10	4	DRAGON	492	n/a	n/a	0	0	0
765190	REC_WORD	wordpools/wasnorm_wordpool_576.txt	LTP329	ltpFR2	10	4	DOUGHNUT	490	n/a	n/a	0	0	0
771112	REC_WORD	wordpools/wasnorm_wordpool_576.txt	LTP329	ltpFR2	10	4	WORKER	1621	n/a	n/a	0	0	0
811314	REC_WORD	wordpools/wasnorm_wordpool_576.txt	LTP329	ltpFR2	10	4	THIEF	1456	n/a	n/a	0	0	0
832259	WORD	wordpools/wasnorm_wordpool_576.txt	LTP329	ltpFR2	10	5	LIVER	833	n/a	n/a	0	0	0
834962	WORD	wordpools/wasnorm_wordpool_576.txt	LTP329	ltpFR2	10	5	SEAFOOD	1260	n/a	n/a	0	0	0
837731	WORD	wordpools/wasnorm_wordpool_576.txt	LTP329	ltpFR2	10	5	BOYFRIEND	162	n/a	n/a	0	0	0
840265	WORD	wordpools/wasnorm_wordpool_576.txt	LTP329	ltpFR2	10	5	CONCERT	360	n/a	n/a	0	0	0
842968	WORD	wordpools/wasnorm_wordpool_576.txt	LTP329	ltpFR2	10	5	CHAMPAGNE	278	n/a	n/a	0	0	0
845469	WORD	wordpools/wasnorm_wordpool_576.txt	LTP329	ltpFR2	10	5	DINER	467	n/a	n/a	0	0	0
848188	WORD	wordpools/wasnorm_wordpool_576.txt	LTP329	ltpFR2	10	5	SALMON	1227	n/a	n/a	0	0	0
850724	WORD	wordpools/wasnorm_wordpool_576.txt	LTP329	ltpFR2	10	5	CONTRACT	368	n/a	n/a	0	0	0
853359	WORD	wordpools/wasnorm_wordpool_576.txt	LTP329	ltpFR2	10	5	GAZELLE	628	n/a	n/a	0	0	0
856161	WORD	wordpools/wasnorm_wordpool_576.txt	LTP329	ltpFR2	10	5	HAMPER	682	n/a	n/a	0	0	0
858848	WORD	wordpools/wasnorm_wordpool_576.txt	LTP329	ltpFR2	10	5	AIRPORT	13	n/a	n/a	0	0	0
861448	WORD	wordpools/wasnorm_wordpool_576.txt	LTP329	ltpFR2	10	5	POLICE	1098	n/a	n/a	0	0	0
864234	WORD	wordpools/wasnorm_wordpool_576.txt	LTP329	ltpFR2	10	5	SHERIFF	1284	n/a	n/a	0	0	0
866887	WORD	wordpools/wasnorm_wordpool_576.txt	LTP329	ltpFR2	10	5	PUPIL	1143	n/a	n/a	0	0	0
869689	WORD	wordpools/wasnorm_wordpool_576.txt	LTP329	ltpFR2	10	5	COURSE	390	n/a	n/a	0	0	0
872125	WORD	wordpools/wasnorm_wordpool_576.txt	LTP329	ltpFR2	10	5	RADISH	1158	n/a	n/a	0	0	0
874558	WORD	wordpools/wasnorm_wordpool_576.txt	LTP329	ltpFR2	10	5	TURNIP	1521	n/a	n/a	0	0	0
877378	WORD	wordpools/wasnorm_wordpool_576.txt	LTP329	ltpFR2	10	5	QUEEN	1149	n/a	n/a	0	0	0
879981	WORD	wordpools/wasnorm_wordpool_576.txt	LTP329	ltpFR2	10	5	HEART	697	n/a	n/a	0	0	0
882565	WORD	wordpools/wasnorm_wordpool_576.txt	LTP329	ltpFR2	10	5	SILK	1307	n/a	n/a	0	0	0
885183	WORD	wordpools/wasnorm_wordpool_576.txt	LTP329	ltpFR2	10	5	QUARTER	1148	n/a	n/a	0	0	0
887887	WORD	wordpools/wasnorm_wordpool_576.txt	LTP329	ltpFR2	10	5	TUNNEL	1519	n/a	n/a	0	0	0
890421	WORD	wordpools/wasnorm_wordpool_576.txt	LTP329	ltpFR2	10	5	ULCER	1533	n/a	n/a	0	0	0
892907	WORD	wordpools/wasnorm_wordpool_576.txt	LTP329	ltpFR2	10	5	BLOUSE	139	n/a	n/a	0	0	0
894525	START	n/a	LTP329	ltpFR2	10	n/a	n/a	n/a	7	n/a	n/a	n/a	n/a
895561	DISTRACTOR	n/a	LTP329	ltpFR2	10	5	n/a	n/a	n/a	n/a	0	0	0
895575	PROB	n/a	LTP329	ltpFR2	10	n/a	n/a	n/a	7	1	6	8	7
898159	PROB	n/a	LTP329	ltpFR2	10	n/a	n/a	n/a	7	8	3	2	3
900444	PROB	n/a	LTP329	ltpFR2	10	n/a	n/a	n/a	7	12	9	2	1
902148	PROB	n/a	LTP329	ltpFR2	10	n/a	n/a	n/a	7	14	9	1	4
903196	PROB	n/a	LTP329	ltpFR2	10	n/a	n/a	n/a	7	15	6	5	4
904699	PROB	n/a	LTP329	ltpFR2	10	n/a	n/a	n/a	7	20	9	4	7
906967	PROB	n/a	LTP329	ltpFR2	10	n/a	n/a	n/a	7	13	6	5	2
909419	PROB	n/a	LTP329	ltpFR2	10	n/a	n/a	n/a	7	9	5	2	2
910704	PROB	n/a	LTP329	ltpFR2	10	n/a	n/a	n/a	7	23	9	5	8
913006	PROB	n/a	LTP329	ltpFR2	10	n/a	n/a	n/a	7	13	7	3	3
915140	PROB	n/a	LTP329	ltpFR2	10	n/a	n/a	n/a	7	21	9	5	7
917564	STOP	n/a	LTP329	ltpFR2	10	n/a	n/a	n/a	7	n/a	n/a	n/a	n/a
920378	REC_START	n/a	LTP329	ltpFR2	10	5	n/a	n/a	n/a	n/a	0	0	0
922070	REC_WORD	wordpools/wasnorm_wordpool_576.txt	LTP329	ltpFR2	10	5	ULCER	1533	n/a	n/a	0	0	0
924295	REC_WORD	wordpools/wasnorm_wordpool_576.txt	LTP329	ltpFR2	10	5	LIVER	833	n/a	n/a	0	0	0
925922	REC_WORD	wordpools/wasnorm_wordpool_576.txt	LTP329	ltpFR2	10	5	BLOUSE	139	n/a	n/a	0	0	0
930243	REC_WORD	wordpools/wasnorm_wordpool_576.txt	LTP329	ltpFR2	10	5	PUPIL	1143	n/a	n/a	0	0	0
932158	REC_WORD	wordpools/wasnorm_wordpool_576.txt	LTP329	ltpFR2	10	5	COURSE	390	n/a	n/a	0	0	0
935814	REC_WORD	wordpools/wasnorm_wordpool_576.txt	LTP329	ltpFR2	10	5	AIRPORT	13	n/a	n/a	0	0	0
937568	REC_WORD	wordpools/wasnorm_wordpool_576.txt	LTP329	ltpFR2	10	5	POLICE	1098	n/a	n/a	0	0	0
939535	REC_WORD	wordpools/wasnorm_wordpool_576.txt	LTP329	ltpFR2	10	5	SHERIFF	1284	n/a	n/a	0	0	0
947640	REC_WORD	wordpools/wasnorm_wordpool_576.txt	LTP329	ltpFR2	10	5	DINER	467	n/a	n/a	0	0	0
949189	REC_WORD	wordpools/wasnorm_wordpool_576.txt	LTP329	ltpFR2	10	5	CONCERT	360	n/a	n/a	0	0	0
951000	REC_WORD	wordpools/wasnorm_wordpool_576.txt	LTP329	ltpFR2	10	5	BOYFRIEND	162	n/a	n/a	0	0	0
961563	REC_WORD	wordpools/wasnorm_wordpool_576.txt	LTP329	ltpFR2	10	5	SEAFOOD	1260	n/a	n/a	0	0	0
964162	REC_WORD	wordpools/wasnorm_wordpool_576.txt	LTP329	ltpFR2	10	5	SALMON	1227	n/a	n/a	0	0	0
968986	REC_WORD	wordpools/wasnorm_wordpool_576.txt	LTP329	ltpFR2	10	5	QUEEN	1149	n/a	n/a	0	0	0
970838	REC_WORD	wordpools/wasnorm_wordpool_576.txt	LTP329	ltpFR2	10	5	HEART	697	n/a	n/a	0	0	0
972565	REC_WORD	wordpools/wasnorm_wordpool_576.txt	LTP329	ltpFR2	10	5	SILK	1307	n/a	n/a	0	0	0
978677	REC_WORD	wordpools/wasnorm_wordpool_576.txt	LTP329	ltpFR2	10	5	HAMPER	682	n/a	n/a	0	0	0
1010833	DISTRACTOR	n/a	LTP329	ltpFR2	10	6	n/a	n/a	n/a	n/a	0	0	0
1010834	START	n/a	LTP329	ltpFR2	10	n/a	n/a	n/a	8	n/a	n/a	n/a	n/a
1010849	PROB	n/a	LTP329	ltpFR2	10	n/a	n/a	n/a	8	12	5	6	1
1013301	PROB	n/a	LTP329	ltpFR2	10	n/a	n/a	n/a	8	16	4	4	8
1015385	PROB	n/a	LTP329	ltpFR2	10	n/a	n/a	n/a	8	12	5	4	3
1017055	PROB	n/a	LTP329	ltpFR2	10	n/a	n/a	n/a	8	18	2	9	7
1018756	PROB	n/a	LTP329	ltpFR2	10	n/a	n/a	n/a	8	17	9	2	6
1021140	PROB	n/a	LTP329	ltpFR2	10	n/a	n/a	n/a	8	16	6	3	7
1022391	PROB	n/a	LTP329	ltpFR2	10	n/a	n/a	n/a	8	16	2	8	6
1023525	PROB	n/a	LTP329	ltpFR2	10	n/a	n/a	n/a	8	19	6	4	9
1025143	PROB	n/a	LTP329	ltpFR2	10	n/a	n/a	n/a	8	11	1	6	4
1026479	PROB	n/a	LTP329	ltpFR2	10	n/a	n/a	n/a	8	10	3	3	4
1028113	PROB	n/a	LTP329	ltpFR2	10	n/a	n/a	n/a	8	9	3	2	4
1031017	PROB	n/a	LTP329	ltpFR2	10	n/a	n/a	n/a	8	21	8	8	5
1032549	PROB	n/a	LTP329	ltpFR2	10	n/a	n/a	n/a	8	8	4	3	1
1033793	STOP	n/a	LTP329	ltpFR2	10	n/a	n/a	n/a	8	n/a	n/a	n/a	n/a
1035920	WORD	wordpools/wasnorm_wordpool_576.txt	LTP329	ltpFR2	10	6	WOMAN	1620	n/a	n/a	0	0	0
1038388	WORD	wordpools/wasnorm_wordpool_576.txt	LTP329	ltpFR2	10	6	MARKET	871	n/a	n/a	0	0	0
1040975	WORD	wordpools/wasnorm_wordpool_576.txt	LTP329	ltpFR2	10	6	GIRL	637	n/a	n/a	0	0	0
1043676	WORD	wordpools/wasnorm_wordpool_576.txt	LTP329	ltpFR2	10	6	MISSILE	900	n/a	n/a	0	0	0
1046344	WORD	wordpools/wasnorm_wordpool_576.txt	LTP329	ltpFR2	10	6	CRATER	400	n/a	n/a	0	0	0
1048863	WORD	wordpools/wasnorm_wordpool_576.txt	LTP329	ltpFR2	10	6	SCISSORS	1250	n/a	n/a	0	0	0
1051682	WORD	wordpools/wasnorm_wordpool_576.txt	LTP329	ltpFR2	10	6	SHORTS	1293	n/a	n/a	0	0	0
1054451	WORD	wordpools/wasnorm_wordpool_576.txt	LTP329	ltpFR2	10	6	TILE	1468	n/a	n/a	0	0	0
1057270	WORD	wordpools/wasnorm_wordpool_576.txt	LTP329	ltpFR2	10	6	CURTAIN	427	n/a	n/a	0	0	0
1059739	WORD	wordpools/wasnorm_wordpool_576.txt	LTP329	ltpFR2	10	6	ROCKET	1202	n/a	n/a	0	0	0
1062190	WORD	wordpools/wasnorm_wordpool_576.txt	LTP329	ltpFR2	10	6	PUPPY	1144	n/a	n/a	0	0	0
1064727	WORD	wordpools/wasnorm_wordpool_576.txt	LTP329	ltpFR2	10	6	CATCHER	258	n/a	n/a	0	0	0
1067411	WORD	wordpools/wasnorm_wordpool_576.txt	LTP329	ltpFR2	10	6	BANJO	82	n/a	n/a	0	0	0
1070097	WORD	wordpools/wasnorm_wordpool_576.txt	LTP329	ltpFR2	10	6	MISTER	901	n/a	n/a	0	0	0
1072899	WORD	wordpools/wasnorm_wordpool_576.txt	LTP329	ltpFR2	10	6	JURY	766	n/a	n/a	0	0	0
1075668	WORD	wordpools/wasnorm_wordpool_576.txt	LTP329	ltpFR2	10	6	BRIEFCASE	175	n/a	n/a	0	0	0
1078320	WORD	wordpools/wasnorm_wordpool_576.txt	LTP329	ltpFR2	10	6	DOLPHIN	483	n/a	n/a	0	0	0
1080923	WORD	wordpools/wasnorm_wordpool_576.txt	LTP329	ltpFR2	10	6	MAMMAL	861	n/a	n/a	0	0	0
1083725	WORD	wordpools/wasnorm_wordpool_576.txt	LTP329	ltpFR2	10	6	SIDEWALK	1303	n/a	n/a	0	0	0
1086510	WORD	wordpools/wasnorm_wordpool_576.txt	LTP329	ltpFR2	10	6	MATCH	878	n/a	n/a	0	0	0
1088996	WORD	wordpools/wasnorm_wordpool_576.txt	LTP329	ltpFR2	10	6	CYCLONE	431	n/a	n/a	0	0	0
1091648	WORD	wordpools/wasnorm_wordpool_576.txt	LTP329	ltpFR2	10	6	WAITER	1580	n/a	n/a	0	0	0
1094250	WORD	wordpools/wasnorm_wordpool_576.txt	LTP329	ltpFR2	10	6	CHIPMUNK	304	n/a	n/a	0	0	0
1096785	WORD	wordpools/wasnorm_wordpool_576.txt	LTP329	ltpFR2	10	6	BLOCKADE	137	n/a	n/a	0	0	0
1098403	START	n/a	LTP329	ltpFR2	10	n/a	n/a	n/a	9	n/a	n/a	n/a	n/a
1099398	DISTRACTOR	n/a	LTP329	ltpFR2	10	6	n/a	n/a	n/a	n/a	0	0	0
1099403	PROB	n/a	LTP329	ltpFR2	10	n/a	n/a	n/a	9	20	9	7	4
1102638	PROB	n/a	LTP329	ltpFR2	10	n/a	n/a	n/a	9	10	2	1	7
1103906	PROB	n/a	LTP329	ltpFR2	10	n/a	n/a	n/a	9	13	9	3	1
1106274	PROB	n/a	LTP329	ltpFR2	10	n/a	n/a	n/a	9	13	5	3	5
1107793	PROB	n/a	LTP329	ltpFR2	10	n/a	n/a	n/a	9	12	2	9	1
1109495	PROB	n/a	LTP329	ltpFR2	10	n/a	n/a	n/a	9	12	2	6	4
1110878	PROB	n/a	LTP329	ltpFR2	10	n/a	n/a	n/a	9	5	1	2	2
1111897	PROB	n/a	LTP329	ltpFR2	10	n/a	n/a	n/a	9	6	1	4	2
1112932	PROB	n/a	LTP329	ltpFR2	10	n/a	n/a	n/a	9	20	5	9	6
1115464	PROB	n/a	LTP329	ltpFR2	10	n/a	n/a	n/a	9	17	1	9	7
1117117	PROB	n/a	LTP329	ltpFR2	10	n/a	n/a	n/a	9	16	9	2	5
1118567	PROB	n/a	LTP329	ltpFR2	10	n/a	n/a	n/a	9	20	8	4	8
1121923	STOP	n/a	LTP329	ltpFR2	10	n/a	n/a	n/a	9	n/a	n/a	n/a	n/a
1124206	REC_START	n/a	LTP329	ltpFR2	10	6	n/a	n/a	n/a	n/a	0	0	0
1126882	REC_WORD	wordpools/wasnorm_wordpool_576.txt	LTP329	ltpFR2	10	6	CHIPMUNK	304	n/a	n/a	0	0	0
1128564	REC_WORD	wordpools/wasnorm_wordpool_576.txt	LTP329	ltpFR2	10	6	BANJO	82	n/a	n/a	0	0	0
1134941	REC_WORD	wordpools/wasnorm_wordpool_576.txt	LTP329	ltpFR2	10	6	MARKET	871	n/a	n/a	0	0	0
1136786	REC_WORD	wordpools/wasnorm_wordpool_576.txt	LTP329	ltpFR2	10	6	MISSILE	900	n/a	n/a	0	0	0
1138417	REC_WORD	wordpools/wasnorm_wordpool_576.txt	LTP329	ltpFR2	10	6	CRATER	400	n/a	n/a	0	0	0
1140158	REC_WORD	wordpools/wasnorm_wordpool_576.txt	LTP329	ltpFR2	10	6	ROCKET	1202	n/a	n/a	0	0	0
1141773	REC_WORD	wordpools/wasnorm_wordpool_576.txt	LTP329	ltpFR2	10	6	WOMAN	1620	n/a	n/a	0	0	0
1146999	REC_WORD	wordpools/wasnorm_wordpool_576.txt	LTP329	ltpFR2	10	6	GIRL	637	n/a	n/a	0	0	0
1148572	REC_WORD	wordpools/wasnorm_wordpool_576.txt	LTP329	ltpFR2	10	6	MISTER	901	n/a	n/a	0	0	0
1180680	REC_WORD	wordpools/wasnorm_wordpool_576.txt	LTP329	ltpFR2	10	6	SHORTS	1293	n/a	n/a	0	0	0
1182003	REC_WORD	wordpools/wasnorm_wordpool_576.txt	LTP329	ltpFR2	10	6	SCISSORS	1250	n/a	n/a	0	0	0
1183971	REC_WORD	wordpools/wasnorm_wordpool_576.txt	LTP329	ltpFR2	10	6	TILE	1468	n/a	n/a	0	0	0
1185372	REC_WORD	wordpools/wasnorm_wordpool_576.txt	LTP329	ltpFR2	10	6	CURTAIN	427	n/a	n/a	0	0	0
1214676	WORD	wordpools/wasnorm_wordpool_576.txt	LTP329	ltpFR2	10	7	ATLAS	53	n/a	n/a	0	0	0
1217328	WORD	wordpools/wasnorm_wordpool_576.txt	LTP329	ltpFR2	10	7	SUPPER	1411	n/a	n/a	0	0	0
1220082	WORD	wordpools/wasnorm_wordpool_576.txt	LTP329	ltpFR2	10	7	NOMAD	955	n/a	n/a	0	0	0
1222833	WORD	wordpools/wasnorm_wordpool_576.txt	LTP329	ltpFR2	10	7	TROUT	1511	n/a	n/a	0	0	0
1225635	WORD	wordpools/wasnorm_wordpool_576.txt	LTP329	ltpFR2	10	7	FLIPPER	580	n/a	n/a	0	0	0
1228337	WORD	wordpools/wasnorm_wordpool_576.txt	LTP329	ltpFR2	10	7	PICTURE	1061	n/a	n/a	0	0	0
1230873	WORD	wordpools/wasnorm_wordpool_576.txt	LTP329	ltpFR2	10	7	CANAL	226	n/a	n/a	0	0	0
1233541	WORD	wordpools/wasnorm_wordpool_576.txt	LTP329	ltpFR2	10	7	PUDDING	1139	n/a	n/a	0	0	0
1236209	WORD	wordpools/wasnorm_wordpool_576.txt	LTP329	ltpFR2	10	7	COFFEE	341	n/a	n/a	0	0	0
1239029	WORD	wordpools/wasnorm_wordpool_576.txt	LTP329	ltpFR2	10	7	VELVET	1555	n/a	n/a	0	0	0
1241665	WORD	wordpools/wasnorm_wordpool_576.txt	LTP329	ltpFR2	10	7	SPACE	1345	n/a	n/a	0	0	0
1244467	WORD	wordpools/wasnorm_wordpool_576.txt	LTP329	ltpFR2	10	7	COD	340	n/a	n/a	0	0	0
1247052	WORD	wordpools/wasnorm_wordpool_576.txt	LTP329	ltpFR2	10	7	PAPER	1011	n/a	n/a	0	0	0
1249504	WORD	wordpools/wasnorm_wordpool_576.txt	LTP329	ltpFR2	10	7	HUSBAND	728	n/a	n/a	0	0	0
1252306	WORD	wordpools/wasnorm_wordpool_576.txt	LTP329	ltpFR2	10	7	DIME	466	n/a	n/a	0	0	0
1254942	WORD	wordpools/wasnorm_wordpool_576.txt	LTP329	ltpFR2	10	7	COMET	353	n/a	n/a	0	0	0
1257377	WORD	wordpools/wasnorm_wordpool_576.txt	LTP329	ltpFR2	10	7	RIFLE	1192	n/a	n/a	0	0	0
1259963	WORD	wordpools/wasnorm_wordpool_576.txt	LTP329	ltpFR2	10	7	HELMET	702	n/a	n/a	0	0	0
1262547	WORD	wordpools/wasnorm_wordpool_576.txt	LTP329	ltpFR2	10	7	PEDAL	1037	n/a	n/a	0	0	0
1265349	WORD	wordpools/wasnorm_wordpool_576.txt	LTP329	ltpFR2	10	7	BRAKE	166	n/a	n/a	0	0	0
1268019	WORD	wordpools/wasnorm_wordpool_576.txt	LTP329	ltpFR2	10	7	SCRIBBLE	1256	n/a	n/a	0	0	0
1270704	WORD	wordpools/wasnorm_wordpool_576.txt	LTP329	ltpFR2	10	7	PALACE	1006	n/a	n/a	0	0	0
1273189	WORD	wordpools/wasnorm_wordpool_576.txt	LTP329	ltpFR2	10	7	LONDON	843	n/a	n/a	0	0	0
1275975	WORD	wordpools/wasnorm_wordpool_576.txt	LTP329	ltpFR2	10	7	PASTRY	1022	n/a	n/a	0	0	0
1277592	START	n/a	LTP329	ltpFR2	10	n/a	n/a	n/a	10	n/a	n/a	n/a	n/a
1278572	DISTRACTOR	n/a	LTP329	ltpFR2	10	7	n/a	n/a	n/a	n/a	0	0	0
1278576	PROB	n/a	LTP329	ltpFR2	10	n/a	n/a	n/a	10	12	3	1	8
1281713	PROB	n/a	LTP329	ltpFR2	10	n/a	n/a	n/a	10	14	1	4	9
1282863	PROB	n/a	LTP329	ltpFR2	10	n/a	n/a	n/a	10	19	6	7	6
1284614	PROB	n/a	LTP329	ltpFR2	10	n/a	n/a	n/a	10	21	4	8	9
1286632	PROB	n/a	LTP329	ltpFR2	10	n/a	n/a	n/a	10	7	1	4	2
1288332	PROB	n/a	LTP329	ltpFR2	10	n/a	n/a	n/a	10	13	4	7	2
1289936	PROB	n/a	LTP329	ltpFR2	10	n/a	n/a	n/a	10	15	1	7	7
1291201	PROB	n/a	LTP329	ltpFR2	10	n/a	n/a	n/a	10	15	5	2	8
1293021	PROB	n/a	LTP329	ltpFR2	10	n/a	n/a	n/a	10	11	6	3	2
1295305	PROB	n/a	LTP329	ltpFR2	10	n/a	n/a	n/a	10	12	4	5	3
1297008	PROB	n/a	LTP329	ltpFR2	10	n/a	n/a	n/a	10	15	4	3	8
1298843	PROB	n/a	LTP329	ltpFR2	10	n/a	n/a	n/a	10	12	6	2	4
1300213	STOP	n/a	LTP329	ltpFR2	10	n/a	n/a	n/a	10	n/a	n/a	n/a	n/a
1303379	REC_START	n/a	LTP329	ltpFR2	10	7	n/a	n/a	n/a	n/a	0	0	0
1313086	REC_WORD	wordpools/wasnorm_wordpool_576.txt	LTP329	ltpFR2	10	7	CANAL	226	n/a	n/a	0	0	0
1314930	REC_WORD	wordpools/wasnorm_wordpool_576.txt	LTP329	ltpFR2	10	7	PICTURE	1061	n/a	n/a	0	0	0
1322057	REC_WORD	wordpools/wasnorm_wordpool_576.txt	LTP329	ltpFR2	10	7	TROUT	1511	n/a	n/a	0	0	0
1323806	REC_WORD	wordpools/wasnorm_wordpool_576.txt	LTP329	ltpFR2	10	7	COD	340	n/a	n/a	0	0	0
1326259	REC_WORD	wordpools/wasnorm_wordpool_576.txt	LTP329	ltpFR2	10	7	SUPPER	1411	n/a	n/a	0	0	0
1328327	REC_WORD	wordpools/wasnorm_wordpool_576.txt	LTP329	ltpFR2	10	7	NOMAD	955	n/a	n/a	0	0	0
1330804	REC_WORD	wordpools/wasnorm_wordpool_576.txt	LTP329	ltpFR2	10	7	SPACE	1345	n/a	n/a	0	0	0
1336392	REC_WORD	wordpools/wasnorm_wordpool_576.txt	LTP329	ltpFR2	10	7	COMET	353	n/a	n/a	0	0	0
1393834	DISTRACTOR	n/a	LTP329	ltpFR2	10	8	n/a	n/a	n/a	n/a	0	0	0
1393834	START	n/a	LTP329	ltpFR2	10	n/a	n/a	n/a	11	n/a	n/a	n/a	n/a
1393851	PROB	n/a	LTP329	ltpFR2	10	n/a	n/a	n/a	11	9	4	4	1
1396233	PROB	n/a	LTP329	ltpFR2	10	n/a	n/a	n/a	11	19	2	8	9
1397435	PROB	n/a	LTP329	ltpFR2	10	n/a	n/a	n/a	11	17	5	5	7
1398854	PROB	n/a	LTP329	ltpFR2	10	n/a	n/a	n/a	11	4	2	1	1
1400455	PROB	n/a	LTP329	ltpFR2	10	n/a	n/a	n/a	11	16	3	4	9
1402890	PROB	n/a	LTP329	ltpFR2	10	n/a	n/a	n/a	11	16	7	6	5
1405591	PROB	n/a	LTP329	ltpFR2	10	n/a	n/a	n/a	11	18	5	8	5
1407077	PROB	n/a	LTP329	ltpFR2	10	n/a	n/a	n/a	11	19	8	7	4
1408712	PROB	n/a	LTP329	ltpFR2	10	n/a	n/a	n/a	11	13	4	1	8
1410611	PROB	n/a	LTP329	ltpFR2	10	n/a	n/a	n/a	11	19	8	4	7
1412783	PROB	n/a	LTP329	ltpFR2	10	n/a	n/a	n/a	11	9	4	2	3
1414784	PROB	n/a	LTP329	ltpFR2	10	n/a	n/a	n/a	11	19	4	9	6
1416801	STOP	n/a	LTP329	ltpFR2	10	n/a	n/a	n/a	11	n/a	n/a	n/a	n/a
1418920	WORD	wordpools/wasnorm_wordpool_576.txt	LTP329	ltpFR2	10	8	MASK	876	n/a	n/a	0	0	0
1421471	WORD	wordpools/wasnorm_wordpool_576.txt	LTP329	ltpFR2	10	8	SERVANT	1271	n/a	n/a	0	0	0
1424290	WORD	wordpools/wasnorm_wordpool_576.txt	LTP329	ltpFR2	10	8	HANDBAG	684	n/a	n/a	0	0	0
1426976	WORD	wordpools/wasnorm_wordpool_576.txt	LTP329	ltpFR2	10	8	BUBBLE	183	n/a	n/a	0	0	0
1429427	WORD	wordpools/wasnorm_wordpool_576.txt	LTP329	ltpFR2	10	8	BOX	159	n/a	n/a	0	0	0
1432146	WORD	wordpools/wasnorm_wordpool_576.txt	LTP329	ltpFR2	10	8	BULLET	194	n/a	n/a	0	0	0
1434598	WORD	wordpools/wasnorm_wordpool_576.txt	LTP329	ltpFR2	10	8	GAVEL	627	n/a	n/a	0	0	0
1437034	WORD	wordpools/wasnorm_wordpool_576.txt	LTP329	ltpFR2	10	8	MILK	895	n/a	n/a	0	0	0
1439635	WORD	wordpools/wasnorm_wordpool_576.txt	LTP329	ltpFR2	10	8	GALLON	618	n/a	n/a	0	0	0
1442220	WORD	wordpools/wasnorm_wordpool_576.txt	LTP329	ltpFR2	10	8	MARINE	869	n/a	n/a	0	0	0
1445007	WORD	wordpools/wasnorm_wordpool_576.txt	LTP329	ltpFR2	10	8	FRAGRANCE	599	n/a	n/a	0	0	0
1447726	WORD	wordpools/wasnorm_wordpool_576.txt	LTP329	ltpFR2	10	8	CIGAR	308	n/a	n/a	0	0	0
1450378	WORD	wordpools/wasnorm_wordpool_576.txt	LTP329	ltpFR2	10	8	PISTOL	1075	n/a	n/a	0	0	0
1453097	WORD	wordpools/wasnorm_wordpool_576.txt	LTP329	ltpFR2	10	8	LETTUCE	814	n/a	n/a	0	0	0
1455849	WORD	wordpools/wasnorm_wordpool_576.txt	LTP329	ltpFR2	10	8	JELLY	755	n/a	n/a	0	0	0
1458483	WORD	wordpools/wasnorm_wordpool_576.txt	LTP329	ltpFR2	10	8	DAUGHTER	442	n/a	n/a	0	0	0
1461087	WORD	wordpools/wasnorm_wordpool_576.txt	LTP329	ltpFR2	10	8	TWIG	1527	n/a	n/a	0	0	0
1463872	WORD	wordpools/wasnorm_wordpool_576.txt	LTP329	ltpFR2	10	8	ARMY	39	n/a	n/a	0	0	0
1466306	WORD	wordpools/wasnorm_wordpool_576.txt	LTP329	ltpFR2	10	8	SALAD	1224	n/a	n/a	0	0	0
1468793	WORD	wordpools/wasnorm_wordpool_576.txt	LTP329	ltpFR2	10	8	HERO	706	n/a	n/a	0	0	0
1471444	WORD	wordpools/wasnorm_wordpool_576.txt	LTP329	ltpFR2	10	8	MARSH	874	n/a	n/a	0	0	0
1474245	WORD	wordpools/wasnorm_wordpool_576.txt	LTP329	ltpFR2	10	8	WIDOW	1608	n/a	n/a	0	0	0
1476716	WORD	wordpools/wasnorm_wordpool_576.txt	LTP329	ltpFR2	10	8	LUNCH	849	n/a	n/a	0	0	0
1479232	WORD	wordpools/wasnorm_wordpool_576.txt	LTP329	ltpFR2	10	8	SAUSAGE	1238	n/a	n/a	0	0	0
1480852	START	n/a	LTP329	ltpFR2	10	n/a	n/a	n/a	12	n/a	n/a	n/a	n/a
1481943	DISTRACTOR	n/a	LTP329	ltpFR2	10	8	n/a	n/a	n/a	n/a	0	0	0
1481953	PROB	n/a	LTP329	ltpFR2	10	n/a	n/a	n/a	12	18	6	8	4
1483821	PROB	n/a	LTP329	ltpFR2	10	n/a	n/a	n/a	12	23	9	5	9
1486472	PROB	n/a	LTP329	ltpFR2	10	n/a	n/a	n/a	12	9	6	1	2
1487621	PROB	n/a	LTP329	ltpFR2	10	n/a	n/a	n/a	12	13	6	1	6
1488957	PROB	n/a	LTP329	ltpFR2	10	n/a	n/a	n/a	12	11	8	2	1
1489942	PROB	n/a	LTP329	ltpFR2	10	n/a	n/a	n/a	12	20	9	6	5
1492342	PROB	n/a	LTP329	ltpFR2	10	n/a	n/a	n/a	12	9	6	1	2
1493576	PROB	n/a	LTP329	ltpFR2	10	n/a	n/a	n/a	12	17	6	7	4
1496014	PROB	n/a	LTP329	ltpFR2	10	n/a	n/a	n/a	12	10	1	7	2
1497396	PROB	n/a	LTP329	ltpFR2	10	n/a	n/a	n/a	12	21	8	4	9
1498998	PROB	n/a	LTP329	ltpFR2	10	n/a	n/a	n/a	12	14	8	3	3
1500598	PROB	n/a	LTP329	ltpFR2	10	n/a	n/a	n/a	12	15	8	4	3
1502416	PROB	n/a	LTP329	ltpFR2	10	n/a	n/a	n/a	12	9	2	1	6
1503529	STOP	n/a	LTP329	ltpFR2	10	n/a	n/a	n/a	12	n/a	n/a	n/a	n/a
1506806	REC_START	n/a	LTP329	ltpFR2	10	8	n/a	n/a	n/a	n/a	0	0	0
1507817	REC_WORD	wordpools/wasnorm_wordpool_576.txt	LTP329	ltpFR2	10	8	WIDOW	1608	n/a	n/a	0	0	0
1509248	REC_WORD	wordpools/wasnorm_wordpool_576.txt	LTP329	ltpFR2	10	8	LUNCH	849	n/a	n/a	0	0	0
1510556	REC_WORD	wordpools/wasnorm_wordpool_576.txt	LTP329	ltpFR2	10	8	SAUSAGE	1238	n/a	n/a	0	0	0
1512034	REC_WORD	wordpools/wasnorm_wordpool_576.txt	LTP329	ltpFR2	10	8	LETTUCE	814	n/a	n/a	0	0	0
1517272	REC_WORD	wordpools/wasnorm_wordpool_576.txt	LTP329	ltpFR2	10	8	JELLY	755	n/a	n/a	0	0	0
1519834	REC_WORD	wordpools/wasnorm_wordpool_576.txt	LTP329	ltpFR2	10	8	BOX	159	n/a	n/a	0	0	0
1521207	REC_WORD	wordpools/wasnorm_wordpool_576.txt	LTP329	ltpFR2	10	8	PISTOL	1075	n/a	n/a	0	0	0
1522663	REC_WORD	wordpools/wasnorm_wordpool_576.txt	LTP329	ltpFR2	10	8	BULLET	194	n/a	n/a	0	0	0
1523926	REC_WORD	wordpools/wasnorm_wordpool_576.txt	LTP329	ltpFR2	10	8	FRAGRANCE	599	n/a	n/a	0	0	0
1528414	REC_WORD	wordpools/wasnorm_wordpool_576.txt	LTP329	ltpFR2	10	8	CIGAR	308	n/a	n/a	0	0	0
1551739	REC_WORD	wordpools/wasnorm_wordpool_576.txt	LTP329	ltpFR2	10	8	MASK	876	n/a	n/a	0	0	0
1553038	REC_WORD	wordpools/wasnorm_wordpool_576.txt	LTP329	ltpFR2	10	8	SERVANT	1271	n/a	n/a	0	0	0
1583348	REST_REWET	n/a	LTP329	ltpFR2	10	8	n/a	n/a	n/a	n/a	0	0	0
1748795	WORD	wordpools/wasnorm_wordpool_576.txt	LTP329	ltpFR2	10	9	COCOON	339	n/a	n/a	0	0	0
1751413	WORD	wordpools/wasnorm_wordpool_576.txt	LTP329	ltpFR2	10	9	SIBLING	1301	n/a	n/a	0	0	0
1753999	WORD	wordpools/wasnorm_wordpool_576.txt	LTP329	ltpFR2	10	9	STAMP	1370	n/a	n/a	0	0	0
1756584	WORD	wordpools/wasnorm_wordpool_576.txt	LTP329	ltpFR2	10	9	NECKLACE	940	n/a	n/a	0	0	0
1759369	WORD	wordpools/wasnorm_wordpool_576.txt	LTP329	ltpFR2	10	9	FLESH	579	n/a	n/a	0	0	0
1762188	WORD	wordpools/wasnorm_wordpool_576.txt	LTP329	ltpFR2	10	9	BROTHER	179	n/a	n/a	0	0	0
1764842	WORD	wordpools/wasnorm_wordpool_576.txt	LTP329	ltpFR2	10	9	GARBAGE	622	n/a	n/a	0	0	0
1767392	WORD	wordpools/wasnorm_wordpool_576.txt	LTP329	ltpFR2	10	9	THRONE	1461	n/a	n/a	0	0	0
1770078	WORD	wordpools/wasnorm_wordpool_576.txt	LTP329	ltpFR2	10	9	FREEZER	604	n/a	n/a	0	0	0
1772831	WORD	wordpools/wasnorm_wordpool_576.txt	LTP329	ltpFR2	10	9	DAISY	435	n/a	n/a	0	0	0
1775498	WORD	wordpools/wasnorm_wordpool_576.txt	LTP329	ltpFR2	10	9	UMPIRE	1535	n/a	n/a	0	0	0
1778103	WORD	wordpools/wasnorm_wordpool_576.txt	LTP329	ltpFR2	10	9	BINDER	127	n/a	n/a	0	0	0
1780753	WORD	wordpools/wasnorm_wordpool_576.txt	LTP329	ltpFR2	10	9	CRAYON	401	n/a	n/a	0	0	0
1783372	WORD	wordpools/wasnorm_wordpool_576.txt	LTP329	ltpFR2	10	9	STALLION	1369	n/a	n/a	0	0	0
1786040	WORD	wordpools/wasnorm_wordpool_576.txt	LTP329	ltpFR2	10	9	LADY	794	n/a	n/a	0	0	0
1788643	WORD	wordpools/wasnorm_wordpool_576.txt	LTP329	ltpFR2	10	9	FIREMAN	569	n/a	n/a	0	0	0
1791245	WORD	wordpools/wasnorm_wordpool_576.txt	LTP329	ltpFR2	10	9	LAGOON	795	n/a	n/a	0	0	0
1794048	WORD	wordpools/wasnorm_wordpool_576.txt	LTP329	ltpFR2	10	9	GRIZZLY	662	n/a	n/a	0	0	0
1796766	WORD	wordpools/wasnorm_wordpool_576.txt	LTP329	ltpFR2	10	9	TRACTOR	1493	n/a	n/a	0	0	0
1799502	WORD	wordpools/wasnorm_wordpool_576.txt	LTP329	ltpFR2	10	9	FARMER	553	n/a	n/a	0	0	0
1802286	WORD	wordpools/wasnorm_wordpool_576.txt	LTP329	ltpFR2	10	9	DASHBOARD	441	n/a	n/a	0	0	0
1804889	WORD	wordpools/wasnorm_wordpool_576.txt	LTP329	ltpFR2	10	9	CLAM	315	n/a	n/a	0	0	0
1807357	WORD	wordpools/wasnorm_wordpool_576.txt	LTP329	ltpFR2	10	9	SWORD	1423	n/a	n/a	0	0	0
1810043	WORD	wordpools/wasnorm_wordpool_576.txt	LTP329	ltpFR2	10	9	BLADE	134	n/a	n/a	0	0	0
1811661	START	n/a	LTP329	ltpFR2	10	n/a	n/a	n/a	13	n/a	n/a	n/a	n/a
1812600	DISTRACTOR	n/a	LTP329	ltpFR2	10	9	n/a	n/a	n/a	n/a	0	0	0
1812611	PROB	n/a	LTP329	ltpFR2	10	n/a	n/a	n/a	13	26	9	9	8
1814763	PROB	n/a	LTP329	ltpFR2	10	n/a	n/a	n/a	13	17	6	3	8
1817198	PROB	n/a	LTP329	ltpFR2	10	n/a	n/a	n/a	13	10	1	1	8
1818867	PROB	n/a	LTP329	ltpFR2	10	n/a	n/a	n/a	13	16	5	4	7
1820619	PROB	n/a	LTP329	ltpFR2	10	n/a	n/a	n/a	13	10	1	2	7
1821670	PROB	n/a	LTP329	ltpFR2	10	n/a	n/a	n/a	13	13	4	7	2
1823386	PROB	n/a	LTP329	ltpFR2	10	n/a	n/a	n/a	13	12	5	3	4
1825404	PROB	n/a	LTP329	ltpFR2	10	n/a	n/a	n/a	13	19	9	1	9
1826571	PROB	n/a	LTP329	ltpFR2	10	n/a	n/a	n/a	13	21	8	5	8
1828140	PROB	n/a	LTP329	ltpFR2	10	n/a	n/a	n/a	13	18	9	1	8
1829910	PROB	n/a	LTP329	ltpFR2	10	n/a	n/a	n/a	13	21	8	4	9
1831644	PROB	n/a	LTP329	ltpFR2	10	n/a	n/a	n/a	13	15	8	1	6
1834193	STOP	n/a	LTP329	ltpFR2	10	n/a	n/a	n/a	13	n/a	n/a	n/a	n/a
1837514	REC_START	n/a	LTP329	ltpFR2	10	9	n/a	n/a	n/a	n/a	0	0	0
1838808	REC_WORD	wordpools/wasnorm_wordpool_576.txt	LTP329	ltpFR2	10	9	FARMER	553	n/a	n/a	0	0	0
1840429	REC_WORD	wordpools/wasnorm_wordpool_576.txt	LTP329	ltpFR2	10	9	TRACTOR	1493	n/a	n/a	0	0	0
1842016	REC_WORD	wordpools/wasnorm_wordpool_576.txt	LTP329	ltpFR2	10	9	STALLION	1369	n/a	n/a	0	0	0
1843934	REC_WORD	wordpools/wasnorm_wordpool_576.txt	LTP329	ltpFR2	10	9	BINDER	127	n/a	n/a	0	0	0
1845415	REC_WORD	wordpools/wasnorm_wordpool_576.txt	LTP329	ltpFR2	10	9	GARBAGE	622	n/a	n/a	0	0	0
1846874	REC_WORD	wordpools/wasnorm_wordpool_576.txt	LTP329	ltpFR2	10	9	CRAYON	401	n/a	n/a	0	0	0
1849708	REC_WORD	wordpools/wasnorm_wordpool_576.txt	LTP329	ltpFR2	10	9	BLADE	134	n/a	n/a	0	0	0
1851658	REC_WORD	wordpools/wasnorm_wordpool_576.txt	LTP329	ltpFR2	10	9	SWORD	1423	n/a	n/a	0	0	0
1854289	REC_WORD	wordpools/wasnorm_wordpool_576.txt	LTP329	ltpFR2	10	9	LADY	794	n/a	n/a	0	0	0
1855717	REC_WORD	wordpools/wasnorm_wordpool_576.txt	LTP329	ltpFR2	10	9	SIBLING	1301	n/a	n/a	0	0	0
1857910	REC_WORD	wordpools/wasnorm_wordpool_576.txt	LTP329	ltpFR2	10	9	BROTHER	179	n/a	n/a	0	0	0
1859862	REC_WORD	wordpools/wasnorm_wordpool_576.txt	LTP329	ltpFR2	10	9	COCOON	339	n/a	n/a	0	0	0
1862548	REC_WORD	wordpools/wasnorm_wordpool_576.txt	LTP329	ltpFR2	10	9	LAGOON	795	n/a	n/a	0	0	0
1870987	REC_WORD	wordpools/wasnorm_wordpool_576.txt	LTP329	ltpFR2	10	9	CLAM	315	n/a	n/a	0	0	0
1911557	REC_WORD	wordpools/wasnorm_wordpool_576.txt	LTP329	ltpFR2	10	9	DASHBOARD	441	n/a	n/a	0	0	0
1938410	WORD	wordpools/wasnorm_wordpool_576.txt	LTP329	ltpFR2	10	10	SKILLET	1317	n/a	n/a	0	0	0
1941214	WORD	wordpools/wasnorm_wordpool_576.txt	LTP329	ltpFR2	10	10	CLAMP	316	n/a	n/a	0	0	0
1943799	WORD	wordpools/wasnorm_wordpool_576.txt	LTP329	ltpFR2	10	10	FRIEND	606	n/a	n/a	0	0	0
1946568	WORD	wordpools/wasnorm_wordpool_576.txt	LTP329	ltpFR2	10	10	BOARD	143	n/a	n/a	0	0	0
1949336	WORD	wordpools/wasnorm_wordpool_576.txt	LTP329	ltpFR2	10	10	LION	827	n/a	n/a	0	0	0
1952089	WORD	wordpools/wasnorm_wordpool_576.txt	LTP329	ltpFR2	10	10	COIN	343	n/a	n/a	0	0	0
1954774	WORD	wordpools/wasnorm_wordpool_576.txt	LTP329	ltpFR2	10	10	XEROX	1628	n/a	n/a	0	0	0
1957209	WORD	wordpools/wasnorm_wordpool_576.txt	LTP329	ltpFR2	10	10	BANQUET	86	n/a	n/a	0	0	0
1959995	WORD	wordpools/wasnorm_wordpool_576.txt	LTP329	ltpFR2	10	10	GRILL	661	n/a	n/a	0	0	0
1962481	WORD	wordpools/wasnorm_wordpool_576.txt	LTP329	ltpFR2	10	10	STOVE	1388	n/a	n/a	0	0	0
1965181	WORD	wordpools/wasnorm_wordpool_576.txt	LTP329	ltpFR2	10	10	WARDROBE	1587	n/a	n/a	0	0	0
1967920	WORD	wordpools/wasnorm_wordpool_576.txt	LTP329	ltpFR2	10	10	BUREAU	199	n/a	n/a	0	0	0
1970636	WORD	wordpools/wasnorm_wordpool_576.txt	LTP329	ltpFR2	10	10	CAFE	216	n/a	n/a	0	0	0
1973304	WORD	wordpools/wasnorm_wordpool_576.txt	LTP329	ltpFR2	10	10	CROSS	413	n/a	n/a	0	0	0
1975958	WORD	wordpools/wasnorm_wordpool_576.txt	LTP329	ltpFR2	10	10	BACKBONE	66	n/a	n/a	0	0	0
1978611	WORD	wordpools/wasnorm_wordpool_576.txt	LTP329	ltpFR2	10	10	DRINK	498	n/a	n/a	0	0	0
1981161	WORD	wordpools/wasnorm_wordpool_576.txt	LTP329	ltpFR2	10	10	SUBWAY	1400	n/a	n/a	0	0	0
1983781	WORD	wordpools/wasnorm_wordpool_576.txt	LTP329	ltpFR2	10	10	JAPAN	749	n/a	n/a	0	0	0
1986599	WORD	wordpools/wasnorm_wordpool_576.txt	LTP329	ltpFR2	10	10	JUNGLE	764	n/a	n/a	0	0	0
1989069	WORD	wordpools/wasnorm_wordpool_576.txt	LTP329	ltpFR2	10	10	PRIMATE	1123	n/a	n/a	0	0	0
1991872	WORD	wordpools/wasnorm_wordpool_576.txt	LTP329	ltpFR2	10	10	PORK	1108	n/a	n/a	0	0	0
1994339	WORD	wordpools/wasnorm_wordpool_576.txt	LTP329	ltpFR2	10	10	COBRA	336	n/a	n/a	0	0	0
1997140	WORD	wordpools/wasnorm_wordpool_576.txt	LTP329	ltpFR2	10	10	SWAMP	1416	n/a	n/a	0	0	0
1999760	WORD	wordpools/wasnorm_wordpool_576.txt	LTP329	ltpFR2	10	10	MUFFIN	929	n/a	n/a	0	0	0
2001378	START	n/a	LTP329	ltpFR2	10	n/a	n/a	n/a	14	n/a	n/a	n/a	n/a
2002408	DISTRACTOR	n/a	LTP329	ltpFR2	10	10	n/a	n/a	n/a	n/a	0	0	0
2002412	PROB	n/a	LTP329	ltpFR2	10	n/a	n/a	n/a	14	17	8	3	6
2006565	PROB	n/a	LTP329	ltpFR2	10	n/a	n/a	n/a	14	23	7	5	1
2008885	PROB	n/a	LTP329	ltpFR2	10	n/a	n/a	n/a	14	13	4	3	6
2011970	PROB	n/a	LTP329	ltpFR2	10	n/a	n/a	n/a	14	10	1	4	5
2013754	PROB	n/a	LTP329	ltpFR2	10	n/a	n/a	n/a	14	10	4	3	3
2015622	PROB	n/a	LTP329	ltpFR2	10	n/a	n/a	n/a	14	18	7	7	4
2017325	PROB	n/a	LTP329	ltpFR2	10	n/a	n/a	n/a	14	15	6	5	4
2018959	PROB	n/a	LTP329	ltpFR2	10	n/a	n/a	n/a	14	6	1	4	1
2020476	PROB	n/a	LTP329	ltpFR2	10	n/a	n/a	n/a	14	13	2	4	7
2022696	PROB	n/a	LTP329	ltpFR2	10	n/a	n/a	n/a	14	11	2	2	7
2024064	STOP	n/a	LTP329	ltpFR2	10	n/a	n/a	n/a	14	n/a	n/a	n/a	n/a
2027317	REC_START	n/a	LTP329	ltpFR2	10	10	n/a	n/a	n/a	n/a	0	0	0
2028483	REC_WORD	wordpools/wasnorm_wordpool_576.txt	LTP329	ltpFR2	10	10	SWAMP	1416	n/a	n/a	0	0	0
2030467	REC_WORD	wordpools/wasnorm_wordpool_576.txt	LTP329	ltpFR2	10	10	COBRA	336	n/a	n/a	0	0	0
2032289	REC_WORD	wordpools/wasnorm_wordpool_576.txt	LTP329	ltpFR2	10	10	MUFFIN	929	n/a	n/a	0	0	0
2033966	REC_WORD	wordpools/wasnorm_wordpool_576.txt	LTP329	ltpFR2	10	10	CLAMP	316	n/a	n/a	0	0	0
2037315	REC_WORD	wordpools/wasnorm_wordpool_576.txt	LTP329	ltpFR2	10	10	SKILLET	1317	n/a	n/a	0	0	0
2039669	REC_WORD	wordpools/wasnorm_wordpool_576.txt	LTP329	ltpFR2	10	10	PORK	1108	n/a	n/a	0	0	0
2041703	REC_WORD	wordpools/wasnorm_wordpool_576.txt	LTP329	ltpFR2	10	10	JAPAN	749	n/a	n/a	0	0	0
2043753	REC_WORD	wordpools/wasnorm_wordpool_576.txt	LTP329	ltpFR2	10	10	JUNGLE	764	n/a	n/a	0	0	0
2056638	REC_WORD	wordpools/wasnorm_wordpool_576.txt	LTP329	ltpFR2	10	10	FRIEND	606	n/a	n/a	0	0	0
2101188	REC_WORD	wordpools/wasnorm_wordpool_576.txt	LTP329	ltpFR2	10	10	COIN	343	n/a	n/a	0	0	0
2102076	REC_WORD_VV	wordpools/wasnorm_wordpool_576.txt	LTP329	ltpFR2	10	10	<>	-1	n/a	n/a	0	0	0
2117790	WORD	wordpools/wasnorm_wordpool_576.txt	LTP329	ltpFR2	10	11	CARRIAGE	248	n/a	n/a	0	0	0
2120524	WORD	wordpools/wasnorm_wordpool_576.txt	LTP329	ltpFR2	10	11	PERMIT	1051	n/a	n/a	0	0	0
2123343	WORD	wordpools/wasnorm_wordpool_576.txt	LTP329	ltpFR2	10	11	SANDWICH	1232	n/a	n/a	0	0	0
2125946	WORD	wordpools/wasnorm_wordpool_576.txt	LTP329	ltpFR2	10	11	PARSLEY	1016	n/a	n/a	0	0	0
2128597	WORD	wordpools/wasnorm_wordpool_576.txt	LTP329	ltpFR2	10	11	SHIRT	1287	n/a	n/a	0	0	0
2131116	WORD	wordpools/wasnorm_wordpool_576.txt	LTP329	ltpFR2	10	11	RATTLE	1170	n/a	n/a	0	0	0
2133652	WORD	wordpools/wasnorm_wordpool_576.txt	LTP329	ltpFR2	10	11	OUTDOORS	987	n/a	n/a	0	0	0
2136104	WORD	wordpools/wasnorm_wordpool_576.txt	LTP329	ltpFR2	10	11	CRIB	407	n/a	n/a	0	0	0
2138673	WORD	wordpools/wasnorm_wordpool_576.txt	LTP329	ltpFR2	10	11	SPHINX	1349	n/a	n/a	0	0	0
2141157	WORD	wordpools/wasnorm_wordpool_576.txt	LTP329	ltpFR2	10	11	DENIM	446	n/a	n/a	0	0	0
2143843	WORD	wordpools/wasnorm_wordpool_576.txt	LTP329	ltpFR2	10	11	CONVICT	371	n/a	n/a	0	0	0
2146361	WORD	wordpools/wasnorm_wordpool_576.txt	LTP329	ltpFR2	10	11	BRANDY	169	n/a	n/a	0	0	0
2148848	WORD	wordpools/wasnorm_wordpool_576.txt	LTP329	ltpFR2	10	11	TABLE	1426	n/a	n/a	0	0	0
2151313	WORD	wordpools/wasnorm_wordpool_576.txt	LTP329	ltpFR2	10	11	PICNIC	1060	n/a	n/a	0	0	0
2154018	WORD	wordpools/wasnorm_wordpool_576.txt	LTP329	ltpFR2	10	11	NAPKIN	937	n/a	n/a	0	0	0
2156552	WORD	wordpools/wasnorm_wordpool_576.txt	LTP329	ltpFR2	10	11	STAPLE	1371	n/a	n/a	0	0	0
2159321	WORD	wordpools/wasnorm_wordpool_576.txt	LTP329	ltpFR2	10	11	SHOULDER	1294	n/a	n/a	0	0	0
2161940	WORD	wordpools/wasnorm_wordpool_576.txt	LTP329	ltpFR2	10	11	HORNET	718	n/a	n/a	0	0	0
2164441	WORD	wordpools/wasnorm_wordpool_576.txt	LTP329	ltpFR2	10	11	LODGE	839	n/a	n/a	0	0	0
2167045	WORD	wordpools/wasnorm_wordpool_576.txt	LTP329	ltpFR2	10	11	MOTEL	919	n/a	n/a	0	0	0
2169630	WORD	wordpools/wasnorm_wordpool_576.txt	LTP329	ltpFR2	10	11	AWARD	63	n/a	n/a	0	0	0
2172065	WORD	wordpools/wasnorm_wordpool_576.txt	LTP329	ltpFR2	10	11	POWDER	1117	n/a	n/a	0	0	0
2174566	WORD	wordpools/wasnorm_wordpool_576.txt	LTP329	ltpFR2	10	11	PIMPLE	1071	n/a	n/a	0	0	0
2177252	WORD	wordpools/wasnorm_wordpool_576.txt	LTP329	ltpFR2	10	11	JEANS	752	n/a	n/a	0	0	0
2178871	START	n/a	LTP329	ltpFR2	10	n/a	n/a	n/a	15	n/a	n/a	n/a	n/a
2179777	DISTRACTOR	n/a	LTP329	ltpFR2	10	11	n/a	n/a	n/a	n/a	0	0	0
2179787	PROB	n/a	LTP329	ltpFR2	10	n/a	n/a	n/a	15	8	5	1	2
2183608	PROB	n/a	LTP329	ltpFR2	10	n/a	n/a	n/a	15	16	6	4	6
2187610	PROB	n/a	LTP329	ltpFR2	10	n/a	n/a	n/a	15	19	5	8	6
2189378	PROB	n/a	LTP329	ltpFR2	10	n/a	n/a	n/a	15	12	5	2	5
2190663	PROB	n/a	LTP329	ltpFR2	10	n/a	n/a	n/a	15	9	2	4	3
2192431	PROB	n/a	LTP329	ltpFR2	10	n/a	n/a	n/a	15	9	3	3	3
2193382	PROB	n/a	LTP329	ltpFR2	10	n/a	n/a	n/a	15	11	5	3	3
2195034	PROB	n/a	LTP329	ltpFR2	10	n/a	n/a	n/a	15	23	7	7	9
2197001	PROB	n/a	LTP329	ltpFR2	10	n/a	n/a	n/a	15	13	9	1	3
2198502	PROB	n/a	LTP329	ltpFR2	10	n/a	n/a	n/a	15	10	7	1	2
2199671	PROB	n/a	LTP329	ltpFR2	10	n/a	n/a	n/a	15	9	3	5	1
2202871	STOP	n/a	LTP329	ltpFR2	10	n/a	n/a	n/a	15	n/a	n/a	n/a	n/a
2204726	REC_START	n/a	LTP329	ltpFR2	10	11	n/a	n/a	n/a	n/a	0	0	0
2207048	REC_WORD	wordpools/wasnorm_wordpool_576.txt	LTP329	ltpFR2	10	11	LODGE	839	n/a	n/a	0	0	0
2208451	REC_WORD	wordpools/wasnorm_wordpool_576.txt	LTP329	ltpFR2	10	11	MOTEL	919	n/a	n/a	0	0	0
2211965	REC_WORD	wordpools/wasnorm_wordpool_576.txt	LTP329	ltpFR2	10	11	CARRIAGE	248	n/a	n/a	0	0	0
2213786	REC_WORD	wordpools/wasnorm_wordpool_576.txt	LTP329	ltpFR2	10	11	PERMIT	1051	n/a	n/a	0	0	0
2234872	REC_WORD	wordpools/wasnorm_wordpool_576.txt	LTP329	ltpFR2	10	11	SANDWICH	1232	n/a	n/a	0	0	0
2237544	REC_WORD	wordpools/wasnorm_wordpool_576.txt	LTP329	ltpFR2	10	11	PARSLEY	1016	n/a	n/a	0	0	0
2262315	REC_WORD	wordpools/wasnorm_wordpool_576.txt	LTP329	ltpFR2	10	11	PIMPLE	1071	n/a	n/a	0	0	0
2278243	REC_WORD	wordpools/wasnorm_wordpool_576.txt	LTP329	ltpFR2	10	11	AWARD	63	n/a	n/a	0	0	0
2295180	DISTRACTOR	n/a	LTP329	ltpFR2	10	12	n/a	n/a	n/a	n/a	0	0	0
2295180	START	n/a	LTP329	ltpFR2	10	n/a	n/a	n/a	16	n/a	n/a	n/a	n/a
2295196	PROB	n/a	LTP329	ltpFR2	10	n/a	n/a	n/a	16	12	1	6	5
2297413	PROB	n/a	LTP329	ltpFR2	10	n/a	n/a	n/a	16	20	9	9	2
2299051	PROB	n/a	LTP329	ltpFR2	10	n/a	n/a	n/a	16	16	7	1	8
2301117	PROB	n/a	LTP329	ltpFR2	10	n/a	n/a	n/a	16	7	5	1	1
2302519	PROB	n/a	LTP329	ltpFR2	10	n/a	n/a	n/a	16	19	5	8	6
2304839	PROB	n/a	LTP329	ltpFR2	10	n/a	n/a	n/a	16	8	4	3	1
2306404	PROB	n/a	LTP329	ltpFR2	10	n/a	n/a	n/a	16	16	6	7	3
2307908	PROB	n/a	LTP329	ltpFR2	10	n/a	n/a	n/a	16	21	3	9	9
2309439	PROB	n/a	LTP329	ltpFR2	10	n/a	n/a	n/a	16	18	6	3	9
2311491	PROB	n/a	LTP329	ltpFR2	10	n/a	n/a	n/a	16	22	9	7	6
2314244	PROB	n/a	LTP329	ltpFR2	10	n/a	n/a	n/a	16	17	7	1	9
2315896	PROB	n/a	LTP329	ltpFR2	10	n/a	n/a	n/a	16	14	6	7	1
2318107	STOP	n/a	LTP329	ltpFR2	10	n/a	n/a	n/a	16	n/a	n/a	n/a	n/a
2320299	WORD	wordpools/wasnorm_wordpool_576.txt	LTP329	ltpFR2	10	12	COSTUME	383	n/a	n/a	0	0	0
2322752	WORD	wordpools/wasnorm_wordpool_576.txt	LTP329	ltpFR2	10	12	TRANSPLANT	1496	n/a	n/a	0	0	0
2325286	WORD	wordpools/wasnorm_wordpool_576.txt	LTP329	ltpFR2	10	12	COOKBOOK	373	n/a	n/a	0	0	0
2327823	WORD	wordpools/wasnorm_wordpool_576.txt	LTP329	ltpFR2	10	12	MACHINE	852	n/a	n/a	0	0	0
2330507	WORD	wordpools/wasnorm_wordpool_576.txt	LTP329	ltpFR2	10	12	GANGSTER	620	n/a	n/a	0	0	0
2333142	WORD	wordpools/wasnorm_wordpool_576.txt	LTP329	ltpFR2	10	12	TURKEY	1520	n/a	n/a	0	0	0
2335628	WORD	wordpools/wasnorm_wordpool_576.txt	LTP329	ltpFR2	10	12	LAVA	804	n/a	n/a	0	0	0
2338314	WORD	wordpools/wasnorm_wordpool_576.txt	LTP329	ltpFR2	10	12	WRIST	1626	n/a	n/a	0	0	0
2341084	WORD	wordpools/wasnorm_wordpool_576.txt	LTP329	ltpFR2	10	12	ROOSTER	1209	n/a	n/a	0	0	0
2343653	WORD	wordpools/wasnorm_wordpool_576.txt	LTP329	ltpFR2	10	12	JELLO	754	n/a	n/a	0	0	0
2346470	WORD	wordpools/wasnorm_wordpool_576.txt	LTP329	ltpFR2	10	12	SLOPE	1328	n/a	n/a	0	0	0
2349239	WORD	wordpools/wasnorm_wordpool_576.txt	LTP329	ltpFR2	10	12	HEADBAND	696	n/a	n/a	0	0	0
2351959	WORD	wordpools/wasnorm_wordpool_576.txt	LTP329	ltpFR2	10	12	SPARROW	1347	n/a	n/a	0	0	0
2354493	WORD	wordpools/wasnorm_wordpool_576.txt	LTP329	ltpFR2	10	12	NIGHTGOWN	953	n/a	n/a	0	0	0
2357145	WORD	wordpools/wasnorm_wordpool_576.txt	LTP329	ltpFR2	10	12	CUSTARD	429	n/a	n/a	0	0	0
2359715	WORD	wordpools/wasnorm_wordpool_576.txt	LTP329	ltpFR2	10	12	LACE	792	n/a	n/a	0	0	0
2362317	WORD	wordpools/wasnorm_wordpool_576.txt	LTP329	ltpFR2	10	12	PARENT	1013	n/a	n/a	0	0	0
2365019	WORD	wordpools/wasnorm_wordpool_576.txt	LTP329	ltpFR2	10	12	KEEPER	769	n/a	n/a	0	0	0
2367805	WORD	wordpools/wasnorm_wordpool_576.txt	LTP329	ltpFR2	10	12	INMATE	738	n/a	n/a	0	0	0
2370573	WORD	wordpools/wasnorm_wordpool_576.txt	LTP329	ltpFR2	10	12	CELLAR	267	n/a	n/a	0	0	0
2373058	WORD	wordpools/wasnorm_wordpool_576.txt	LTP329	ltpFR2	10	12	PUDDLE	1140	n/a	n/a	0	0	0
2375861	WORD	wordpools/wasnorm_wordpool_576.txt	LTP329	ltpFR2	10	12	DIVER	476	n/a	n/a	0	0	0
2378412	WORD	wordpools/wasnorm_wordpool_576.txt	LTP329	ltpFR2	10	12	ORCHID	982	n/a	n/a	0	0	0
2380914	WORD	wordpools/wasnorm_wordpool_576.txt	LTP329	ltpFR2	10	12	SUNRISE	1407	n/a	n/a	0	0	0
2382532	START	n/a	LTP329	ltpFR2	10	n/a	n/a	n/a	17	n/a	n/a	n/a	n/a
2383482	DISTRACTOR	n/a	LTP329	ltpFR2	10	12	n/a	n/a	n/a	n/a	0	0	0
2383499	PROB	n/a	LTP329	ltpFR2	10	n/a	n/a	n/a	17	20	7	5	8
2388319	PROB	n/a	LTP329	ltpFR2	10	n/a	n/a	n/a	17	16	9	6	1
2389972	PROB	n/a	LTP329	ltpFR2	10	n/a	n/a	n/a	17	11	5	1	5
2391007	PROB	n/a	LTP329	ltpFR2	10	n/a	n/a	n/a	17	14	7	1	6
2392658	PROB	n/a	LTP329	ltpFR2	10	n/a	n/a	n/a	17	21	8	7	6
2395274	PROB	n/a	LTP329	ltpFR2	10	n/a	n/a	n/a	17	8	1	2	5
2396377	PROB	n/a	LTP329	ltpFR2	10	n/a	n/a	n/a	17	10	1	6	3
2397544	PROB	n/a	LTP329	ltpFR2	10	n/a	n/a	n/a	17	15	8	4	3
2399078	PROB	n/a	LTP329	ltpFR2	10	n/a	n/a	n/a	17	19	7	8	4
2400997	PROB	n/a	LTP329	ltpFR2	10	n/a	n/a	n/a	17	13	4	1	8
2402798	PROB	n/a	LTP329	ltpFR2	10	n/a	n/a	n/a	17	14	3	8	3
2405156	STOP	n/a	LTP329	ltpFR2	10	n/a	n/a	n/a	17	n/a	n/a	n/a	n/a
2408319	REC_START	n/a	LTP329	ltpFR2	10	12	n/a	n/a	n/a	n/a	0	0	0
2410243	REC_WORD	wordpools/wasnorm_wordpool_576.txt	LTP329	ltpFR2	10	12	COSTUME	383	n/a	n/a	0	0	0
2412136	REC_WORD	wordpools/wasnorm_wordpool_576.txt	LTP329	ltpFR2	10	12	CUSTARD	429	n/a	n/a	0	0	0
2437475	REC_WORD	wordpools/wasnorm_wordpool_576.txt	LTP329	ltpFR2	10	12	MACHINE	852	n/a	n/a	0	0	0
2439210	REC_WORD	wordpools/wasnorm_wordpool_576.txt	LTP329	ltpFR2	10	12	WRIST	1626	n/a	n/a	0	0	0
2440753	REC_WORD	wordpools/wasnorm_wordpool_576.txt	LTP329	ltpFR2	10	12	GANGSTER	620	n/a	n/a	0	0	0
2443249	REC_WORD	wordpools/wasnorm_wordpool_576.txt	LTP329	ltpFR2	10	12	TURKEY	1520	n/a	n/a	0	0	0
2498774	WORD	wordpools/wasnorm_wordpool_576.txt	LTP329	ltpFR2	10	13	STAKE	1368	n/a	n/a	0	0	0
2501542	WORD	wordpools/wasnorm_wordpool_576.txt	LTP329	ltpFR2	10	13	TEACHER	1440	n/a	n/a	0	0	0
2504193	WORD	wordpools/wasnorm_wordpool_576.txt	LTP329	ltpFR2	10	13	BATHTUB	100	n/a	n/a	0	0	0
2506913	WORD	wordpools/wasnorm_wordpool_576.txt	LTP329	ltpFR2	10	13	SPONGE	1355	n/a	n/a	0	0	0
2509650	WORD	wordpools/wasnorm_wordpool_576.txt	LTP329	ltpFR2	10	13	OUTFIT	988	n/a	n/a	0	0	0
2512352	WORD	wordpools/wasnorm_wordpool_576.txt	LTP329	ltpFR2	10	13	CANDY	230	n/a	n/a	0	0	0
2514936	WORD	wordpools/wasnorm_wordpool_576.txt	LTP329	ltpFR2	10	13	DUST	508	n/a	n/a	0	0	0
2517573	WORD	wordpools/wasnorm_wordpool_576.txt	LTP329	ltpFR2	10	13	LADDER	793	n/a	n/a	0	0	0
2520058	WORD	wordpools/wasnorm_wordpool_576.txt	LTP329	ltpFR2	10	13	CEILING	265	n/a	n/a	0	0	0
2522776	WORD	wordpools/wasnorm_wordpool_576.txt	LTP329	ltpFR2	10	13	WASP	1593	n/a	n/a	0	0	0
2525293	WORD	wordpools/wasnorm_wordpool_576.txt	LTP329	ltpFR2	10	13	SCOTCH	1251	n/a	n/a	0	0	0
2527897	WORD	wordpools/wasnorm_wordpool_576.txt	LTP329	ltpFR2	10	13	ICEBERG	731	n/a	n/a	0	0	0
2530498	WORD	wordpools/wasnorm_wordpool_576.txt	LTP329	ltpFR2	10	13	STOMACH	1384	n/a	n/a	0	0	0
2533019	WORD	wordpools/wasnorm_wordpool_576.txt	LTP329	ltpFR2	10	13	GROUND	666	n/a	n/a	0	0	0
2535720	WORD	wordpools/wasnorm_wordpool_576.txt	LTP329	ltpFR2	10	13	IGLOO	734	n/a	n/a	0	0	0
2538305	WORD	wordpools/wasnorm_wordpool_576.txt	LTP329	ltpFR2	10	13	DRAWING	494	n/a	n/a	0	0	0
2541075	WORD	wordpools/wasnorm_wordpool_576.txt	LTP329	ltpFR2	10	13	FRAME	600	n/a	n/a	0	0	0
2543542	WORD	wordpools/wasnorm_wordpool_576.txt	LTP329	ltpFR2	10	13	TERMITE	1451	n/a	n/a	0	0	0
2546045	WORD	wordpools/wasnorm_wordpool_576.txt	LTP329	ltpFR2	10	13	BRANCH	168	n/a	n/a	0	0	0
2548563	WORD	wordpools/wasnorm_wordpool_576.txt	LTP329	ltpFR2	10	13	ROD	1203	n/a	n/a	0	0	0
2551348	WORD	wordpools/wasnorm_wordpool_576.txt	LTP329	ltpFR2	10	13	SADDLE	1221	n/a	n/a	0	0	0
2554068	WORD	wordpools/wasnorm_wordpool_576.txt	LTP329	ltpFR2	10	13	ACTOR	5	n/a	n/a	0	0	0
2556770	WORD	wordpools/wasnorm_wordpool_576.txt	LTP329	ltpFR2	10	13	FLUTE	585	n/a	n/a	0	0	0
2559321	WORD	wordpools/wasnorm_wordpool_576.txt	LTP329	ltpFR2	10	13	PIGMENT	1066	n/a	n/a	0	0	0
2560923	START	n/a	LTP329	ltpFR2	10	n/a	n/a	n/a	18	n/a	n/a	n/a	n/a
2562060	DISTRACTOR	n/a	LTP329	ltpFR2	10	13	n/a	n/a	n/a	n/a	0	0	0
2562074	PROB	n/a	LTP329	ltpFR2	10	n/a	n/a	n/a	18	22	7	8	7
2563892	PROB	n/a	LTP329	ltpFR2	10	n/a	n/a	n/a	18	12	3	5	4
2565577	PROB	n/a	LTP329	ltpFR2	10	n/a	n/a	n/a	18	17	6	9	2
2568129	PROB	n/a	LTP329	ltpFR2	10	n/a	n/a	n/a	18	16	9	1	6
2569245	PROB	n/a	LTP329	ltpFR2	10	n/a	n/a	n/a	18	18	9	3	6
2571065	PROB	n/a	LTP329	ltpFR2	10	n/a	n/a	n/a	18	18	3	7	8
2572398	PROB	n/a	LTP329	ltpFR2	10	n/a	n/a	n/a	18	9	4	3	2
2574316	PROB	n/a	LTP329	ltpFR2	10	n/a	n/a	n/a	18	19	9	8	2
2576435	PROB	n/a	LTP329	ltpFR2	10	n/a	n/a	n/a	18	18	9	3	6
2577937	PROB	n/a	LTP329	ltpFR2	10	n/a	n/a	n/a	18	22	6	8	8
2579520	PROB	n/a	LTP329	ltpFR2	10	n/a	n/a	n/a	18	12	3	4	5
2582591	PROB	n/a	LTP329	ltpFR2	10	n/a	n/a	n/a	18	14	5	7	2
2584154	STOP	n/a	LTP329	ltpFR2	10	n/a	n/a	n/a	18	n/a	n/a	n/a	n/a
2586694	REC_START	n/a	LTP329	ltpFR2	10	13	n/a	n/a	n/a	n/a	0	0	0
2588918	REC_WORD	wordpools/wasnorm_wordpool_576.txt	LTP329	ltpFR2	10	13	LADDER	793	n/a	n/a	0	0	0
2590459	REC_WORD	wordpools/wasnorm_wordpool_576.txt	LTP329	ltpFR2	10	13	CEILING	265	n/a	n/a	0	0	0
2594075	REC_WORD	wordpools/wasnorm_wordpool_576.txt	LTP329	ltpFR2	10	13	ICEBERG	731	n/a	n/a	0	0	0
2595680	REC_WORD	wordpools/wasnorm_wordpool_576.txt	LTP329	ltpFR2	10	13	IGLOO	734	n/a	n/a	0	0	0
2605340	REC_WORD	wordpools/wasnorm_wordpool_576.txt	LTP329	ltpFR2	10	13	BATHTUB	100	n/a	n/a	0	0	0
2606942	REC_WORD	wordpools/wasnorm_wordpool_576.txt	LTP329	ltpFR2	10	13	SPONGE	1355	n/a	n/a	0	0	0
2677131	DISTRACTOR	n/a	LTP329	ltpFR2	10	14	n/a	n/a	n/a	n/a	0	0	0
2677131	START	n/a	LTP329	ltpFR2	10	n/a	n/a	n/a	19	n/a	n/a	n/a	n/a
2677149	PROB	n/a	LTP329	ltpFR2	10	n/a	n/a	n/a	19	22	9	8	7
2682053	PROB	n/a	LTP329	ltpFR2	10	n/a	n/a	n/a	19	5	1	2	2
2683120	PROB	n/a	LTP329	ltpFR2	10	n/a	n/a	n/a	19	15	5	3	6
2686108	PROB	n/a	LTP329	ltpFR2	10	n/a	n/a	n/a	19	19	5	7	7
2687858	PROB	n/a	LTP329	ltpFR2	10	n/a	n/a	n/a	19	7	2	2	3
2689676	PROB	n/a	LTP329	ltpFR2	10	n/a	n/a	n/a	19	8	2	4	2
2691112	PROB	n/a	LTP329	ltpFR2	10	n/a	n/a	n/a	19	7	3	3	1
2693261	PROB	n/a	LTP329	ltpFR2	10	n/a	n/a	n/a	19	10	2	5	3
2695180	PROB	n/a	LTP329	ltpFR2	10	n/a	n/a	n/a	19	11	5	5	1
2696296	PROB	n/a	LTP329	ltpFR2	10	n/a	n/a	n/a	19	21	9	7	5
2700637	STOP	n/a	LTP329	ltpFR2	10	n/a	n/a	n/a	19	n/a	n/a	n/a	n/a
2702217	WORD	wordpools/wasnorm_wordpool_576.txt	LTP329	ltpFR2	10	14	ORANGE	980	n/a	n/a	0	0	0
2704755	WORD	wordpools/wasnorm_wordpool_576.txt	LTP329	ltpFR2	10	14	DRUG	501	n/a	n/a	0	0	0
2707405	WORD	wordpools/wasnorm_wordpool_576.txt	LTP329	ltpFR2	10	14	MONSTER	912	n/a	n/a	0	0	0
2710042	WORD	wordpools/wasnorm_wordpool_576.txt	LTP329	ltpFR2	10	14	BLENDER	136	n/a	n/a	0	0	0
2712861	WORD	wordpools/wasnorm_wordpool_576.txt	LTP329	ltpFR2	10	14	LUMBER	848	n/a	n/a	0	0	0
2715328	WORD	wordpools/wasnorm_wordpool_576.txt	LTP329	ltpFR2	10	14	DRESS	495	n/a	n/a	0	0	0
2718147	WORD	wordpools/wasnorm_wordpool_576.txt	LTP329	ltpFR2	10	14	SKIRT	1319	n/a	n/a	0	0	0
2720717	WORD	wordpools/wasnorm_wordpool_576.txt	LTP329	ltpFR2	10	14	APPLE	33	n/a	n/a	0	0	0
2723452	WORD	wordpools/wasnorm_wordpool_576.txt	LTP329	ltpFR2	10	14	SPOOL	1356	n/a	n/a	0	0	0
2725922	WORD	wordpools/wasnorm_wordpool_576.txt	LTP329	ltpFR2	10	14	GYMNAST	675	n/a	n/a	0	0	0
2728421	WORD	wordpools/wasnorm_wordpool_576.txt	LTP329	ltpFR2	10	14	OINTMENT	974	n/a	n/a	0	0	0
2731109	WORD	wordpools/wasnorm_wordpool_576.txt	LTP329	ltpFR2	10	14	GOBLIN	645	n/a	n/a	0	0	0
2733544	WORD	wordpools/wasnorm_wordpool_576.txt	LTP329	ltpFR2	10	14	CREATURE	403	n/a	n/a	0	0	0
2736129	WORD	wordpools/wasnorm_wordpool_576.txt	LTP329	ltpFR2	10	14	COUSIN	392	n/a	n/a	0	0	0
2738732	WORD	wordpools/wasnorm_wordpool_576.txt	LTP329	ltpFR2	10	14	NURSE	963	n/a	n/a	0	0	0
2741416	WORD	wordpools/wasnorm_wordpool_576.txt	LTP329	ltpFR2	10	14	DANCER	437	n/a	n/a	0	0	0
2743902	WORD	wordpools/wasnorm_wordpool_576.txt	LTP329	ltpFR2	10	14	FILM	565	n/a	n/a	0	0	0
2746469	WORD	wordpools/wasnorm_wordpool_576.txt	LTP329	ltpFR2	10	14	YOLK	1633	n/a	n/a	0	0	0
2749074	WORD	wordpools/wasnorm_wordpool_576.txt	LTP329	ltpFR2	10	14	LAPEL	800	n/a	n/a	0	0	0
2751708	WORD	wordpools/wasnorm_wordpool_576.txt	LTP329	ltpFR2	10	14	COTTAGE	384	n/a	n/a	0	0	0
2754311	WORD	wordpools/wasnorm_wordpool_576.txt	LTP329	ltpFR2	10	14	SUITCASE	1403	n/a	n/a	0	0	0
2756946	WORD	wordpools/wasnorm_wordpool_576.txt	LTP329	ltpFR2	10	14	WASHER	1592	n/a	n/a	0	0	0
2759698	WORD	wordpools/wasnorm_wordpool_576.txt	LTP329	ltpFR2	10	14	COOK	372	n/a	n/a	0	0	0
2762465	WORD	wordpools/wasnorm_wordpool_576.txt	LTP329	ltpFR2	10	14	PLATE	1086	n/a	n/a	0	0	0
2764069	START	n/a	LTP329	ltpFR2	10	n/a	n/a	n/a	20	n/a	n/a	n/a	n/a
2764946	DISTRACTOR	n/a	LTP329	ltpFR2	10	14	n/a	n/a	n/a	n/a	0	0	0
2764952	PROB	n/a	LTP329	ltpFR2	10	n/a	n/a	n/a	20	21	4	9	8
2767452	PROB	n/a	LTP329	ltpFR2	10	n/a	n/a	n/a	20	18	9	8	1
2769288	PROB	n/a	LTP329	ltpFR2	10	n/a	n/a	n/a	20	19	8	2	9
2771440	PROB	n/a	LTP329	ltpFR2	10	n/a	n/a	n/a	20	16	6	4	6
2773058	PROB	n/a	LTP329	ltpFR2	10	n/a	n/a	n/a	20	21	6	7	8
2775292	PROB	n/a	LTP329	ltpFR2	10	n/a	n/a	n/a	20	20	5	9	6
2777862	PROB	n/a	LTP329	ltpFR2	10	n/a	n/a	n/a	20	10	5	2	3
2779446	PROB	n/a	LTP329	ltpFR2	10	n/a	n/a	n/a	20	15	8	2	5
2780700	PROB	n/a	LTP329	ltpFR2	10	n/a	n/a	n/a	20	13	5	5	3
2781883	PROB	n/a	LTP329	ltpFR2	10	n/a	n/a	n/a	20	12	6	2	4
2783050	PROB	n/a	LTP329	ltpFR2	10	n/a	n/a	n/a	20	12	4	2	6
2784418	PROB	n/a	LTP329	ltpFR2	10	n/a	n/a	n/a	20	12	4	1	7
2785836	PROB	n/a	LTP329	ltpFR2	10	n/a	n/a	n/a	20	9	4	4	1
2787753	STOP	n/a	LTP329	ltpFR2	10	n/a	n/a	n/a	20	n/a	n/a	n/a	n/a
2790007	REC_START	n/a	LTP329	ltpFR2	10	14	n/a	n/a	n/a	n/a	0	0	0
2791389	REC_WORD	wordpools/wasnorm_wordpool_576.txt	LTP329	ltpFR2	10	14	WASHER	1592	n/a	n/a	0	0	0
2793904	REC_WORD	wordpools/wasnorm_wordpool_576.txt	LTP329	ltpFR2	10	14	SUITCASE	1403	n/a	n/a	0	0	0
2794904	REC_WORD_VV	wordpools/wasnorm_wordpool_576.txt	LTP329	ltpFR2	10	14	<>	-1	n/a	n/a	0	0	0
2795602	REC_WORD	wordpools/wasnorm_wordpool_576.txt	LTP329	ltpFR2	10	14	YOLK	1633	n/a	n/a	0	0	0
2799921	REC_WORD	wordpools/wasnorm_wordpool_576.txt	LTP329	ltpFR2	10	14	NURSE	963	n/a	n/a	0	0	0
2802011	REC_WORD	wordpools/wasnorm_wordpool_576.txt	LTP329	ltpFR2	10	14	DANCER	437	n/a	n/a	0	0	0
2803803	REC_WORD	wordpools/wasnorm_wordpool_576.txt	LTP329	ltpFR2	10	14	COOK	372	n/a	n/a	0	0	0
2805533	REC_WORD	wordpools/wasnorm_wordpool_576.txt	LTP329	ltpFR2	10	14	PLATE	1086	n/a	n/a	0	0	0
2853628	REC_WORD	wordpools/wasnorm_wordpool_576.txt	LTP329	ltpFR2	10	14	ORANGE	980	n/a	n/a	0	0	0
2854256	REC_WORD	wordpools/wasnorm_wordpool_576.txt	LTP329	ltpFR2	10	14	APPLE	33	n/a	n/a	0	0	0
2880476	WORD	wordpools/wasnorm_wordpool_576.txt	LTP329	ltpFR2	10	15	STUDENT	1395	n/a	n/a	0	0	0
2883097	WORD	wordpools/wasnorm_wordpool_576.txt	LTP329	ltpFR2	10	15	OYSTER	995	n/a	n/a	0	0	0
2885666	WORD	wordpools/wasnorm_wordpool_576.txt	LTP329	ltpFR2	10	15	MILDEW	893	n/a	n/a	0	0	0
2888133	WORD	wordpools/wasnorm_wordpool_576.txt	LTP329	ltpFR2	10	15	COLLEGE	346	n/a	n/a	0	0	0
2890735	WORD	wordpools/wasnorm_wordpool_576.txt	LTP329	ltpFR2	10	15	POSTAGE	1113	n/a	n/a	0	0	0
2893336	WORD	wordpools/wasnorm_wordpool_576.txt	LTP329	ltpFR2	10	15	OFFICE	972	n/a	n/a	0	0	0
2895889	WORD	wordpools/wasnorm_wordpool_576.txt	LTP329	ltpFR2	10	15	STONE	1385	n/a	n/a	0	0	0
2898541	WORD	wordpools/wasnorm_wordpool_576.txt	LTP329	ltpFR2	10	15	GRAVE	658	n/a	n/a	0	0	0
2901294	WORD	wordpools/wasnorm_wordpool_576.txt	LTP329	ltpFR2	10	15	POISON	1096	n/a	n/a	0	0	0
2904029	WORD	wordpools/wasnorm_wordpool_576.txt	LTP329	ltpFR2	10	15	TUTU	1524	n/a	n/a	0	0	0
2906783	WORD	wordpools/wasnorm_wordpool_576.txt	LTP329	ltpFR2	10	15	STREAM	1392	n/a	n/a	0	0	0
2909300	WORD	wordpools/wasnorm_wordpool_576.txt	LTP329	ltpFR2	10	15	GRAPE	654	n/a	n/a	0	0	0
2911836	WORD	wordpools/wasnorm_wordpool_576.txt	LTP329	ltpFR2	10	15	CLIMBER	323	n/a	n/a	0	0	0
2914405	WORD	wordpools/wasnorm_wordpool_576.txt	LTP329	ltpFR2	10	15	SERVER	1272	n/a	n/a	0	0	0
2917040	WORD	wordpools/wasnorm_wordpool_576.txt	LTP329	ltpFR2	10	15	WAITRESS	1581	n/a	n/a	0	0	0
2919590	WORD	wordpools/wasnorm_wordpool_576.txt	LTP329	ltpFR2	10	15	HIGHWAY	707	n/a	n/a	0	0	0
2922226	WORD	wordpools/wasnorm_wordpool_576.txt	LTP329	ltpFR2	10	15	FRANCE	601	n/a	n/a	0	0	0
2924862	WORD	wordpools/wasnorm_wordpool_576.txt	LTP329	ltpFR2	10	15	PARTNER	1017	n/a	n/a	0	0	0
2927597	WORD	wordpools/wasnorm_wordpool_576.txt	LTP329	ltpFR2	10	15	MONEY	908	n/a	n/a	0	0	0
2930250	WORD	wordpools/wasnorm_wordpool_576.txt	LTP329	ltpFR2	10	15	PIZZA	1079	n/a	n/a	0	0	0
2932902	WORD	wordpools/wasnorm_wordpool_576.txt	LTP329	ltpFR2	10	15	ELBOW	520	n/a	n/a	0	0	0
2935570	WORD	wordpools/wasnorm_wordpool_576.txt	LTP329	ltpFR2	10	15	SHORTCAKE	1292	n/a	n/a	0	0	0
2938125	WORD	wordpools/wasnorm_wordpool_576.txt	LTP329	ltpFR2	10	15	BUCKET	184	n/a	n/a	0	0	0
2940758	WORD	wordpools/wasnorm_wordpool_576.txt	LTP329	ltpFR2	10	15	HAND	683	n/a	n/a	0	0	0
2942375	START	n/a	LTP329	ltpFR2	10	n/a	n/a	n/a	21	n/a	n/a	n/a	n/a
2943560	DISTRACTOR	n/a	LTP329	ltpFR2	10	15	n/a	n/a	n/a	n/a	0	0	0
2943576	PROB	n/a	LTP329	ltpFR2	10	n/a	n/a	n/a	21	19	9	2	8
2945945	PROB	n/a	LTP329	ltpFR2	10	n/a	n/a	n/a	21	12	9	1	2
2947613	PROB	n/a	LTP329	ltpFR2	10	n/a	n/a	n/a	21	10	1	2	7
2948817	PROB	n/a	LTP329	ltpFR2	10	n/a	n/a	n/a	21	14	4	4	6
2950181	PROB	n/a	LTP329	ltpFR2	10	n/a	n/a	n/a	21	12	3	7	2
2951299	PROB	n/a	LTP329	ltpFR2	10	n/a	n/a	n/a	21	9	1	7	1
2952367	PROB	n/a	LTP329	ltpFR2	10	n/a	n/a	n/a	21	13	1	9	3
2953452	PROB	n/a	LTP329	ltpFR2	10	n/a	n/a	n/a	21	15	8	4	3
2954720	PROB	n/a	LTP329	ltpFR2	10	n/a	n/a	n/a	21	15	4	2	9
2956420	PROB	n/a	LTP329	ltpFR2	10	n/a	n/a	n/a	21	24	9	8	7
2958908	PROB	n/a	LTP329	ltpFR2	10	n/a	n/a	n/a	21	16	5	6	5
2960490	PROB	n/a	LTP329	ltpFR2	10	n/a	n/a	n/a	21	16	2	9	5
2962343	PROB	n/a	LTP329	ltpFR2	10	n/a	n/a	n/a	21	18	1	9	8
2963609	PROB	n/a	LTP329	ltpFR2	10	n/a	n/a	n/a	21	15	4	9	2
2965574	STOP	n/a	LTP329	ltpFR2	10	n/a	n/a	n/a	21	n/a	n/a	n/a	n/a
2968313	REC_START	n/a	LTP329	ltpFR2	10	15	n/a	n/a	n/a	n/a	0	0	0
2969894	REC_WORD	wordpools/wasnorm_wordpool_576.txt	LTP329	ltpFR2	10	15	SERVER	1272	n/a	n/a	0	0	0
2971717	REC_WORD	wordpools/wasnorm_wordpool_576.txt	LTP329	ltpFR2	10	15	WAITRESS	1581	n/a	n/a	0	0	0
2979753	REC_WORD	wordpools/wasnorm_wordpool_576.txt	LTP329	ltpFR2	10	15	POSTAGE	1113	n/a	n/a	0	0	0
2981290	REC_WORD	wordpools/wasnorm_wordpool_576.txt	LTP329	ltpFR2	10	15	OFFICE	972	n/a	n/a	0	0	0
2985553	REC_WORD	wordpools/wasnorm_wordpool_576.txt	LTP329	ltpFR2	10	15	STUDENT	1395	n/a	n/a	0	0	0
2987587	REC_WORD	wordpools/wasnorm_wordpool_576.txt	LTP329	ltpFR2	10	15	OYSTER	995	n/a	n/a	0	0	0
2992580	REC_WORD	wordpools/wasnorm_wordpool_576.txt	LTP329	ltpFR2	10	15	PIZZA	1079	n/a	n/a	0	0	0
2994113	REC_WORD	wordpools/wasnorm_wordpool_576.txt	LTP329	ltpFR2	10	15	FRANCE	601	n/a	n/a	0	0	0
3010316	REC_WORD	wordpools/wasnorm_wordpool_576.txt	LTP329	ltpFR2	10	15	ELBOW	520	n/a	n/a	0	0	0
3018542	REC_WORD	wordpools/wasnorm_wordpool_576.txt	LTP329	ltpFR2	10	15	MONEY	908	n/a	n/a	0	0	0
3058786	WORD	wordpools/wasnorm_wordpool_576.txt	LTP329	ltpFR2	10	16	PARROT	1015	n/a	n/a	0	0	0
3061322	WORD	wordpools/wasnorm_wordpool_576.txt	LTP329	ltpFR2	10	16	SOFTBALL	1343	n/a	n/a	0	0	0
3063840	WORD	wordpools/wasnorm_wordpool_576.txt	LTP329	ltpFR2	10	16	RACKET	1155	n/a	n/a	0	0	0
3066542	WORD	wordpools/wasnorm_wordpool_576.txt	LTP329	ltpFR2	10	16	FINGER	567	n/a	n/a	0	0	0
3069344	WORD	wordpools/wasnorm_wordpool_576.txt	LTP329	ltpFR2	10	16	MOTOR	922	n/a	n/a	0	0	0
3072131	WORD	wordpools/wasnorm_wordpool_576.txt	LTP329	ltpFR2	10	16	SWITCH	1422	n/a	n/a	0	0	0
3074649	WORD	wordpools/wasnorm_wordpool_576.txt	LTP329	ltpFR2	10	16	GLOVE	642	n/a	n/a	0	0	0
3077101	WORD	wordpools/wasnorm_wordpool_576.txt	LTP329	ltpFR2	10	16	PATROL	1027	n/a	n/a	0	0	0
3079703	WORD	wordpools/wasnorm_wordpool_576.txt	LTP329	ltpFR2	10	16	SCARECROW	1245	n/a	n/a	0	0	0
3082371	WORD	wordpools/wasnorm_wordpool_576.txt	LTP329	ltpFR2	10	16	BELLY	119	n/a	n/a	0	0	0
3084890	WORD	wordpools/wasnorm_wordpool_576.txt	LTP329	ltpFR2	10	16	MUMMY	932	n/a	n/a	0	0	0
3087643	WORD	wordpools/wasnorm_wordpool_576.txt	LTP329	ltpFR2	10	16	PRINCE	1124	n/a	n/a	0	0	0
3090411	WORD	wordpools/wasnorm_wordpool_576.txt	LTP329	ltpFR2	10	16	VIKING	1565	n/a	n/a	0	0	0
3093164	WORD	wordpools/wasnorm_wordpool_576.txt	LTP329	ltpFR2	10	16	ASIA	46	n/a	n/a	0	0	0
3095614	WORD	wordpools/wasnorm_wordpool_576.txt	LTP329	ltpFR2	10	16	HORSE	719	n/a	n/a	0	0	0
3098351	WORD	wordpools/wasnorm_wordpool_576.txt	LTP329	ltpFR2	10	16	COCKTAIL	338	n/a	n/a	0	0	0
3100986	WORD	wordpools/wasnorm_wordpool_576.txt	LTP329	ltpFR2	10	16	TEMPLE	1448	n/a	n/a	0	0	0
3103505	WORD	wordpools/wasnorm_wordpool_576.txt	LTP329	ltpFR2	10	16	NEUTRON	947	n/a	n/a	0	0	0
3106307	WORD	wordpools/wasnorm_wordpool_576.txt	LTP329	ltpFR2	10	16	ATOM	55	n/a	n/a	0	0	0
3108742	WORD	wordpools/wasnorm_wordpool_576.txt	LTP329	ltpFR2	10	16	VICTIM	1562	n/a	n/a	0	0	0
3111544	WORD	wordpools/wasnorm_wordpool_576.txt	LTP329	ltpFR2	10	16	MUSTARD	935	n/a	n/a	0	0	0
3114279	WORD	wordpools/wasnorm_wordpool_576.txt	LTP329	ltpFR2	10	16	TOURIST	1488	n/a	n/a	0	0	0
3116933	WORD	wordpools/wasnorm_wordpool_576.txt	LTP329	ltpFR2	10	16	HOSTESS	723	n/a	n/a	0	0	0
3119517	WORD	wordpools/wasnorm_wordpool_576.txt	LTP329	ltpFR2	10	16	FLOWER	584	n/a	n/a	0	0	0
3121135	START	n/a	LTP329	ltpFR2	10	n/a	n/a	n/a	22	n/a	n/a	n/a	n/a
3122061	DISTRACTOR	n/a	LTP329	ltpFR2	10	16	n/a	n/a	n/a	n/a	0	0	0
3122071	PROB	n/a	LTP329	ltpFR2	10	n/a	n/a	n/a	22	11	1	3	7
3124520	PROB	n/a	LTP329	ltpFR2	10	n/a	n/a	n/a	22	24	9	6	7
3128491	PROB	n/a	LTP329	ltpFR2	10	n/a	n/a	n/a	22	12	4	1	7
3130093	PROB	n/a	LTP329	ltpFR2	10	n/a	n/a	n/a	22	14	1	8	5
3131627	PROB	n/a	LTP329	ltpFR2	10	n/a	n/a	n/a	22	17	8	6	3
3134078	PROB	n/a	LTP329	ltpFR2	10	n/a	n/a	n/a	22	19	5	6	8
3135698	PROB	n/a	LTP329	ltpFR2	10	n/a	n/a	n/a	22	17	4	9	4
3138049	PROB	n/a	LTP329	ltpFR2	10	n/a	n/a	n/a	22	18	6	9	3
3139851	PROB	n/a	LTP329	ltpFR2	10	n/a	n/a	n/a	22	7	2	1	4
3141517	PROB	n/a	LTP329	ltpFR2	10	n/a	n/a	n/a	22	15	9	5	1
3143186	PROB	n/a	LTP329	ltpFR2	10	n/a	n/a	n/a	22	12	1	5	6
3144548	STOP	n/a	LTP329	ltpFR2	10	n/a	n/a	n/a	22	n/a	n/a	n/a	n/a
3147074	REC_START	n/a	LTP329	ltpFR2	10	16	n/a	n/a	n/a	n/a	0	0	0
3147693	REC_WORD	wordpools/wasnorm_wordpool_576.txt	LTP329	ltpFR2	10	16	HOSTESS	723	n/a	n/a	0	0	0
3148693	REC_WORD_VV	wordpools/wasnorm_wordpool_576.txt	LTP329	ltpFR2	10	16	<>	-1	n/a	n/a	0	0	0
3151369	REC_WORD	wordpools/wasnorm_wordpool_576.txt	LTP329	ltpFR2	10	16	HORSE	719	n/a	n/a	0	0	0
3223616	REST_REWET	n/a	LTP329	ltpFR2	10	16	n/a	n/a	n/a	n/a	0	0	0
3433219	DISTRACTOR	n/a	LTP329	ltpFR2	10	17	n/a	n/a	n/a	n/a	0	0	0
3433219	START	n/a	LTP329	ltpFR2	10	n/a	n/a	n/a	23	n/a	n/a	n/a	n/a
3433236	PROB	n/a	LTP329	ltpFR2	10	n/a	n/a	n/a	23	10	1	2	7
3435153	PROB	n/a	LTP329	ltpFR2	10	n/a	n/a	n/a	23	21	7	9	5
3437789	PROB	n/a	LTP329	ltpFR2	10	n/a	n/a	n/a	23	15	8	6	1
3439924	PROB	n/a	LTP329	ltpFR2	10	n/a	n/a	n/a	23	8	3	2	3
3441258	PROB	n/a	LTP329	ltpFR2	10	n/a	n/a	n/a	23	18	6	7	5
3443476	PROB	n/a	LTP329	ltpFR2	10	n/a	n/a	n/a	23	15	7	6	2
3445311	PROB	n/a	LTP329	ltpFR2	10	n/a	n/a	n/a	23	6	2	3	1
3447081	PROB	n/a	LTP329	ltpFR2	10	n/a	n/a	n/a	23	10	6	1	3
3448197	PROB	n/a	LTP329	ltpFR2	10	n/a	n/a	n/a	23	19	7	3	9
3449447	PROB	n/a	LTP329	ltpFR2	10	n/a	n/a	n/a	23	7	2	1	4
3450750	PROB	n/a	LTP329	ltpFR2	10	n/a	n/a	n/a	23	16	5	2	9
3452535	PROB	n/a	LTP329	ltpFR2	10	n/a	n/a	n/a	23	13	5	3	5
3454103	PROB	n/a	LTP329	ltpFR2	10	n/a	n/a	n/a	23	10	1	2	7
3455104	PROB	n/a	LTP329	ltpFR2	10	n/a	n/a	n/a	23	13	3	7	3
3456081	STOP	n/a	LTP329	ltpFR2	10	n/a	n/a	n/a	23	n/a	n/a	n/a	n/a
3458406	WORD	wordpools/wasnorm_wordpool_576.txt	LTP329	ltpFR2	10	17	FIDDLE	561	n/a	n/a	0	0	0
3461091	WORD	wordpools/wasnorm_wordpool_576.txt	LTP329	ltpFR2	10	17	TRUCK	1512	n/a	n/a	0	0	0
3463576	WORD	wordpools/wasnorm_wordpool_576.txt	LTP329	ltpFR2	10	17	KNAPSACK	783	n/a	n/a	0	0	0
3466328	WORD	wordpools/wasnorm_wordpool_576.txt	LTP329	ltpFR2	10	17	SHARK	1275	n/a	n/a	0	0	0
3469033	WORD	wordpools/wasnorm_wordpool_576.txt	LTP329	ltpFR2	10	17	POPCORN	1104	n/a	n/a	0	0	0
3471749	WORD	wordpools/wasnorm_wordpool_576.txt	LTP329	ltpFR2	10	17	LABEL	790	n/a	n/a	0	0	0
3474402	WORD	wordpools/wasnorm_wordpool_576.txt	LTP329	ltpFR2	10	17	SCALLOP	1242	n/a	n/a	0	0	0
3477056	WORD	wordpools/wasnorm_wordpool_576.txt	LTP329	ltpFR2	10	17	SNACK	1331	n/a	n/a	0	0	0
3479773	WORD	wordpools/wasnorm_wordpool_576.txt	LTP329	ltpFR2	10	17	PERFUME	1049	n/a	n/a	0	0	0
3482358	WORD	wordpools/wasnorm_wordpool_576.txt	LTP329	ltpFR2	10	17	ARM	38	n/a	n/a	0	0	0
3484912	WORD	wordpools/wasnorm_wordpool_576.txt	LTP329	ltpFR2	10	17	CRUTCH	417	n/a	n/a	0	0	0
3487429	WORD	wordpools/wasnorm_wordpool_576.txt	LTP329	ltpFR2	10	17	BURGLAR	200	n/a	n/a	0	0	0
3490247	WORD	wordpools/wasnorm_wordpool_576.txt	LTP329	ltpFR2	10	17	BOUQUET	157	n/a	n/a	0	0	0
3492851	WORD	wordpools/wasnorm_wordpool_576.txt	LTP329	ltpFR2	10	17	ROBIN	1199	n/a	n/a	0	0	0
3495384	WORD	wordpools/wasnorm_wordpool_576.txt	LTP329	ltpFR2	10	17	HAWK	692	n/a	n/a	0	0	0
3498186	WORD	wordpools/wasnorm_wordpool_576.txt	LTP329	ltpFR2	10	17	CRITIC	410	n/a	n/a	0	0	0
3500973	WORD	wordpools/wasnorm_wordpool_576.txt	LTP329	ltpFR2	10	17	RUST	1219	n/a	n/a	0	0	0
3503442	WORD	wordpools/wasnorm_wordpool_576.txt	LTP329	ltpFR2	10	17	PIANO	1057	n/a	n/a	0	0	0
3506128	WORD	wordpools/wasnorm_wordpool_576.txt	LTP329	ltpFR2	10	17	BARLEY	88	n/a	n/a	0	0	0
3508780	WORD	wordpools/wasnorm_wordpool_576.txt	LTP329	ltpFR2	10	17	SURVEY	1414	n/a	n/a	0	0	0
3511231	WORD	wordpools/wasnorm_wordpool_576.txt	LTP329	ltpFR2	10	17	LILY	821	n/a	n/a	0	0	0
3513669	WORD	wordpools/wasnorm_wordpool_576.txt	LTP329	ltpFR2	10	17	BANK	83	n/a	n/a	0	0	0
3516152	WORD	wordpools/wasnorm_wordpool_576.txt	LTP329	ltpFR2	10	17	AIRPLANE	12	n/a	n/a	0	0	0
3518705	WORD	wordpools/wasnorm_wordpool_576.txt	LTP329	ltpFR2	10	17	RAFT	1159	n/a	n/a	0	0	0
3520322	START	n/a	LTP329	ltpFR2	10	n/a	n/a	n/a	24	n/a	n/a	n/a	n/a
3521328	DISTRACTOR	n/a	LTP329	ltpFR2	10	17	n/a	n/a	n/a	n/a	0	0	0
3521338	PROB	n/a	LTP329	ltpFR2	10	n/a	n/a	n/a	24	13	5	3	5
3524710	PROB	n/a	LTP329	ltpFR2	10	n/a	n/a	n/a	24	20	8	5	7
3528829	PROB	n/a	LTP329	ltpFR2	10	n/a	n/a	n/a	24	11	1	1	9
3529896	PROB	n/a	LTP329	ltpFR2	10	n/a	n/a	n/a	24	19	5	5	9
3531398	PROB	n/a	LTP329	ltpFR2	10	n/a	n/a	n/a	24	17	6	3	8
3533583	PROB	n/a	LTP329	ltpFR2	10	n/a	n/a	n/a	24	13	3	5	5
3534785	PROB	n/a	LTP329	ltpFR2	10	n/a	n/a	n/a	24	12	3	1	8
3537419	PROB	n/a	LTP329	ltpFR2	10	n/a	n/a	n/a	24	17	3	6	8
3539638	PROB	n/a	LTP329	ltpFR2	10	n/a	n/a	n/a	24	20	9	5	6
3542505	PROB	n/a	LTP329	ltpFR2	10	n/a	n/a	n/a	24	18	3	7	8
3543917	STOP	n/a	LTP329	ltpFR2	10	n/a	n/a	n/a	24	n/a	n/a	n/a	n/a
3546159	REC_START	n/a	LTP329	ltpFR2	10	17	n/a	n/a	n/a	n/a	0	0	0
3549310	REC_WORD	wordpools/wasnorm_wordpool_576.txt	LTP329	ltpFR2	10	17	SHARK	1275	n/a	n/a	0	0	0
3550758	REC_WORD	wordpools/wasnorm_wordpool_576.txt	LTP329	ltpFR2	10	17	FIDDLE	561	n/a	n/a	0	0	0
3552349	REC_WORD	wordpools/wasnorm_wordpool_576.txt	LTP329	ltpFR2	10	17	PIANO	1057	n/a	n/a	0	0	0
3554752	REC_WORD	wordpools/wasnorm_wordpool_576.txt	LTP329	ltpFR2	10	17	POPCORN	1104	n/a	n/a	0	0	0
3560265	REC_WORD	wordpools/wasnorm_wordpool_576.txt	LTP329	ltpFR2	10	17	BOUQUET	157	n/a	n/a	0	0	0
3562356	REC_WORD	wordpools/wasnorm_wordpool_576.txt	LTP329	ltpFR2	10	17	LILY	821	n/a	n/a	0	0	0
3565861	REC_WORD	wordpools/wasnorm_wordpool_576.txt	LTP329	ltpFR2	10	17	SCALLOP	1242	n/a	n/a	0	0	0
3567317	REC_WORD	wordpools/wasnorm_wordpool_576.txt	LTP329	ltpFR2	10	17	SNACK	1331	n/a	n/a	0	0	0
3568920	REC_WORD	wordpools/wasnorm_wordpool_576.txt	LTP329	ltpFR2	10	17	PERFUME	1049	n/a	n/a	0	0	0
3572984	REC_WORD	wordpools/wasnorm_wordpool_576.txt	LTP329	ltpFR2	10	17	ARM	38	n/a	n/a	0	0	0
3574460	REC_WORD	wordpools/wasnorm_wordpool_576.txt	LTP329	ltpFR2	10	17	CRUTCH	417	n/a	n/a	0	0	0
3584701	REC_WORD	wordpools/wasnorm_wordpool_576.txt	LTP329	ltpFR2	10	17	LABEL	790	n/a	n/a	0	0	0
3605203	REC_WORD	wordpools/wasnorm_wordpool_576.txt	LTP329	ltpFR2	10	17	SURVEY	1414	n/a	n/a	0	0	0
3636615	DISTRACTOR	n/a	LTP329	ltpFR2	10	18	n/a	n/a	n/a	n/a	0	0	0
3636615	START	n/a	LTP329	ltpFR2	10	n/a	n/a	n/a	25	n/a	n/a	n/a	n/a
3636631	PROB	n/a	LTP329	ltpFR2	10	n/a	n/a	n/a	25	18	6	8	4
3638766	PROB	n/a	LTP329	ltpFR2	10	n/a	n/a	n/a	25	22	7	8	7
3641969	PROB	n/a	LTP329	ltpFR2	10	n/a	n/a	n/a	25	14	1	5	8
3643535	PROB	n/a	LTP329	ltpFR2	10	n/a	n/a	n/a	25	15	7	5	3
3646706	PROB	n/a	LTP329	ltpFR2	10	n/a	n/a	n/a	25	16	6	3	7
3648308	PROB	n/a	LTP329	ltpFR2	10	n/a	n/a	n/a	25	25	8	8	9
3651877	PROB	n/a	LTP329	ltpFR2	10	n/a	n/a	n/a	25	15	3	3	9
3653995	PROB	n/a	LTP329	ltpFR2	10	n/a	n/a	n/a	25	6	1	3	2
3655096	PROB	n/a	LTP329	ltpFR2	10	n/a	n/a	n/a	25	22	7	8	5
3657682	PROB	n/a	LTP329	ltpFR2	10	n/a	n/a	n/a	25	19	9	7	3
3660615	STOP	n/a	LTP329	ltpFR2	10	n/a	n/a	n/a	25	n/a	n/a	n/a	n/a
3661533	WORD	wordpools/wasnorm_wordpool_576.txt	LTP329	ltpFR2	10	18	PILOT	1070	n/a	n/a	0	0	0
3664253	WORD	wordpools/wasnorm_wordpool_576.txt	LTP329	ltpFR2	10	18	UNCLE	1536	n/a	n/a	0	0	0
3666772	WORD	wordpools/wasnorm_wordpool_576.txt	LTP329	ltpFR2	10	18	SALT	1229	n/a	n/a	0	0	0
3669491	WORD	wordpools/wasnorm_wordpool_576.txt	LTP329	ltpFR2	10	18	LAKE	796	n/a	n/a	0	0	0
3672142	WORD	wordpools/wasnorm_wordpool_576.txt	LTP329	ltpFR2	10	18	EAGLE	512	n/a	n/a	0	0	0
3674795	WORD	wordpools/wasnorm_wordpool_576.txt	LTP329	ltpFR2	10	18	THREAD	1460	n/a	n/a	0	0	0
3677463	WORD	wordpools/wasnorm_wordpool_576.txt	LTP329	ltpFR2	10	18	YARN	1631	n/a	n/a	0	0	0
3680182	WORD	wordpools/wasnorm_wordpool_576.txt	LTP329	ltpFR2	10	18	NOVEL	960	n/a	n/a	0	0	0
3682668	WORD	wordpools/wasnorm_wordpool_576.txt	LTP329	ltpFR2	10	18	SPOON	1357	n/a	n/a	0	0	0
3685185	WORD	wordpools/wasnorm_wordpool_576.txt	LTP329	ltpFR2	10	18	CHEST	295	n/a	n/a	0	0	0
3687674	WORD	wordpools/wasnorm_wordpool_576.txt	LTP329	ltpFR2	10	18	SODA	1341	n/a	n/a	0	0	0
3690108	WORD	wordpools/wasnorm_wordpool_576.txt	LTP329	ltpFR2	10	18	BALLOON	75	n/a	n/a	0	0	0
3692711	WORD	wordpools/wasnorm_wordpool_576.txt	LTP329	ltpFR2	10	18	PEACH	1031	n/a	n/a	0	0	0
3695412	WORD	wordpools/wasnorm_wordpool_576.txt	LTP329	ltpFR2	10	18	SHRUB	1299	n/a	n/a	0	0	0
3698196	WORD	wordpools/wasnorm_wordpool_576.txt	LTP329	ltpFR2	10	18	PEBBLE	1035	n/a	n/a	0	0	0
3700650	WORD	wordpools/wasnorm_wordpool_576.txt	LTP329	ltpFR2	10	18	COUCH	386	n/a	n/a	0	0	0
3703417	WORD	wordpools/wasnorm_wordpool_576.txt	LTP329	ltpFR2	10	18	BRACES	164	n/a	n/a	0	0	0
3706169	WORD	wordpools/wasnorm_wordpool_576.txt	LTP329	ltpFR2	10	18	NOTEBOOK	959	n/a	n/a	0	0	0
3708773	WORD	wordpools/wasnorm_wordpool_576.txt	LTP329	ltpFR2	10	18	CASHEW	253	n/a	n/a	0	0	0
3711273	WORD	wordpools/wasnorm_wordpool_576.txt	LTP329	ltpFR2	10	18	MAILBOX	857	n/a	n/a	0	0	0
3713861	WORD	wordpools/wasnorm_wordpool_576.txt	LTP329	ltpFR2	10	18	STICKER	1382	n/a	n/a	0	0	0
3716544	WORD	wordpools/wasnorm_wordpool_576.txt	LTP329	ltpFR2	10	18	HATCHET	691	n/a	n/a	0	0	0
3719147	WORD	wordpools/wasnorm_wordpool_576.txt	LTP329	ltpFR2	10	18	TOASTER	1472	n/a	n/a	0	0	0
3721882	WORD	wordpools/wasnorm_wordpool_576.txt	LTP329	ltpFR2	10	18	PEPPER	1047	n/a	n/a	0	0	0
3723499	START	n/a	LTP329	ltpFR2	10	n/a	n/a	n/a	26	n/a	n/a	n/a	n/a
3724555	DISTRACTOR	n/a	LTP329	ltpFR2	10	18	n/a	n/a	n/a	n/a	0	0	0
3724567	PROB	n/a	LTP329	ltpFR2	10	n/a	n/a	n/a	26	13	6	1	6
3727053	PROB	n/a	LTP329	ltpFR2	10	n/a	n/a	n/a	26	11	1	3	7
3728153	PROB	n/a	LTP329	ltpFR2	10	n/a	n/a	n/a	26	20	8	8	4
3729789	PROB	n/a	LTP329	ltpFR2	10	n/a	n/a	n/a	26	6	3	1	2
3730924	PROB	n/a	LTP329	ltpFR2	10	n/a	n/a	n/a	26	14	3	4	7
3732492	PROB	n/a	LTP329	ltpFR2	10	n/a	n/a	n/a	26	20	9	9	2
3733958	PROB	n/a	LTP329	ltpFR2	10	n/a	n/a	n/a	26	13	8	1	4
3736660	PROB	n/a	LTP329	ltpFR2	10	n/a	n/a	n/a	26	21	9	4	8
3741748	PROB	n/a	LTP329	ltpFR2	10	n/a	n/a	n/a	26	13	4	2	7
3744100	PROB	n/a	LTP329	ltpFR2	10	n/a	n/a	n/a	26	16	3	8	5
3747499	STOP	n/a	LTP329	ltpFR2	10	n/a	n/a	n/a	26	n/a	n/a	n/a	n/a
3749437	REC_START	n/a	LTP329	ltpFR2	10	18	n/a	n/a	n/a	n/a	0	0	0
3755016	REC_WORD	wordpools/wasnorm_wordpool_576.txt	LTP329	ltpFR2	10	18	TOASTER	1472	n/a	n/a	0	0	0
3757794	REC_WORD	wordpools/wasnorm_wordpool_576.txt	LTP329	ltpFR2	10	18	UNCLE	1536	n/a	n/a	0	0	0
3759454	REC_WORD	wordpools/wasnorm_wordpool_576.txt	LTP329	ltpFR2	10	18	PILOT	1070	n/a	n/a	0	0	0
3761138	REC_WORD	wordpools/wasnorm_wordpool_576.txt	LTP329	ltpFR2	10	18	EAGLE	512	n/a	n/a	0	0	0
3762779	REC_WORD	wordpools/wasnorm_wordpool_576.txt	LTP329	ltpFR2	10	18	BALLOON	75	n/a	n/a	0	0	0
3770756	REC_WORD	wordpools/wasnorm_wordpool_576.txt	LTP329	ltpFR2	10	18	MAILBOX	857	n/a	n/a	0	0	0
3771756	REC_WORD_VV	wordpools/wasnorm_wordpool_576.txt	LTP329	ltpFR2	10	18	<>	-1	n/a	n/a	0	0	0
3775252	REC_WORD	wordpools/wasnorm_wordpool_576.txt	LTP329	ltpFR2	10	18	COUCH	386	n/a	n/a	0	0	0
3781257	REC_WORD	wordpools/wasnorm_wordpool_576.txt	LTP329	ltpFR2	10	18	NOVEL	960	n/a	n/a	0	0	0
3782622	REC_WORD	wordpools/wasnorm_wordpool_576.txt	LTP329	ltpFR2	10	18	NOTEBOOK	959	n/a	n/a	0	0	0
3784134	REC_WORD	wordpools/wasnorm_wordpool_576.txt	LTP329	ltpFR2	10	18	STICKER	1382	n/a	n/a	0	0	0
3791059	REC_WORD	wordpools/wasnorm_wordpool_576.txt	LTP329	ltpFR2	10	18	CHEST	295	n/a	n/a	0	0	0
3808719	REC_WORD	wordpools/wasnorm_wordpool_576.txt	LTP329	ltpFR2	10	18	SODA	1341	n/a	n/a	0	0	0
3839876	DISTRACTOR	n/a	LTP329	ltpFR2	10	19	n/a	n/a	n/a	n/a	0	0	0
3839877	START	n/a	LTP329	ltpFR2	10	n/a	n/a	n/a	27	n/a	n/a	n/a	n/a
3839894	PROB	n/a	LTP329	ltpFR2	10	n/a	n/a	n/a	27	13	7	3	3
3842662	PROB	n/a	LTP329	ltpFR2	10	n/a	n/a	n/a	27	5	1	3	1
3843863	PROB	n/a	LTP329	ltpFR2	10	n/a	n/a	n/a	27	19	9	4	6
3845214	PROB	n/a	LTP329	ltpFR2	10	n/a	n/a	n/a	27	17	4	7	6
3846698	PROB	n/a	LTP329	ltpFR2	10	n/a	n/a	n/a	27	21	9	5	7
3848432	PROB	n/a	LTP329	ltpFR2	10	n/a	n/a	n/a	27	12	1	2	9
3849934	PROB	n/a	LTP329	ltpFR2	10	n/a	n/a	n/a	27	9	1	7	1
3851102	PROB	n/a	LTP329	ltpFR2	10	n/a	n/a	n/a	27	15	6	6	3
3852353	PROB	n/a	LTP329	ltpFR2	10	n/a	n/a	n/a	27	16	4	3	9
3854873	PROB	n/a	LTP329	ltpFR2	10	n/a	n/a	n/a	27	17	5	5	7
3856371	PROB	n/a	LTP329	ltpFR2	10	n/a	n/a	n/a	27	22	4	9	8
3859258	PROB	n/a	LTP329	ltpFR2	10	n/a	n/a	n/a	27	15	2	7	6
3863877	STOP	n/a	LTP329	ltpFR2	10	n/a	n/a	n/a	27	n/a	n/a	n/a	n/a
3864897	WORD	wordpools/wasnorm_wordpool_576.txt	LTP329	ltpFR2	10	19	WHISKERS	1605	n/a	n/a	0	0	0
3867449	WORD	wordpools/wasnorm_wordpool_576.txt	LTP329	ltpFR2	10	19	LASER	801	n/a	n/a	0	0	0
3869984	WORD	wordpools/wasnorm_wordpool_576.txt	LTP329	ltpFR2	10	19	GUARD	667	n/a	n/a	0	0	0
3872519	WORD	wordpools/wasnorm_wordpool_576.txt	LTP329	ltpFR2	10	19	JOURNAL	760	n/a	n/a	0	0	0
3875287	WORD	wordpools/wasnorm_wordpool_576.txt	LTP329	ltpFR2	10	19	GARDEN	623	n/a	n/a	0	0	0
3877958	WORD	wordpools/wasnorm_wordpool_576.txt	LTP329	ltpFR2	10	19	PLUTO	1092	n/a	n/a	0	0	0
3880508	WORD	wordpools/wasnorm_wordpool_576.txt	LTP329	ltpFR2	10	19	CRICKET	408	n/a	n/a	0	0	0
3883060	WORD	wordpools/wasnorm_wordpool_576.txt	LTP329	ltpFR2	10	19	FRECKLE	602	n/a	n/a	0	0	0
3885528	WORD	wordpools/wasnorm_wordpool_576.txt	LTP329	ltpFR2	10	19	CREVICE	405	n/a	n/a	0	0	0
3888149	WORD	wordpools/wasnorm_wordpool_576.txt	LTP329	ltpFR2	10	19	TYPIST	1532	n/a	n/a	0	0	0
3890819	WORD	wordpools/wasnorm_wordpool_576.txt	LTP329	ltpFR2	10	19	VALVE	1546	n/a	n/a	0	0	0
3893487	WORD	wordpools/wasnorm_wordpool_576.txt	LTP329	ltpFR2	10	19	DRIVER	499	n/a	n/a	0	0	0
3895987	WORD	wordpools/wasnorm_wordpool_576.txt	LTP329	ltpFR2	10	19	DRESSER	496	n/a	n/a	0	0	0
3898773	WORD	wordpools/wasnorm_wordpool_576.txt	LTP329	ltpFR2	10	19	BLACKBOARD	133	n/a	n/a	0	0	0
3901224	WORD	wordpools/wasnorm_wordpool_576.txt	LTP329	ltpFR2	10	19	COLONEL	348	n/a	n/a	0	0	0
3903677	WORD	wordpools/wasnorm_wordpool_576.txt	LTP329	ltpFR2	10	19	RAZOR	1171	n/a	n/a	0	0	0
3906145	WORD	wordpools/wasnorm_wordpool_576.txt	LTP329	ltpFR2	10	19	TART	1436	n/a	n/a	0	0	0
3908681	WORD	wordpools/wasnorm_wordpool_576.txt	LTP329	ltpFR2	10	19	POCKET	1093	n/a	n/a	0	0	0
3911483	WORD	wordpools/wasnorm_wordpool_576.txt	LTP329	ltpFR2	10	19	CASHIER	254	n/a	n/a	0	0	0
3914235	WORD	wordpools/wasnorm_wordpool_576.txt	LTP329	ltpFR2	10	19	PLASTER	1085	n/a	n/a	0	0	0
3916822	WORD	wordpools/wasnorm_wordpool_576.txt	LTP329	ltpFR2	10	19	BRICK	172	n/a	n/a	0	0	0
3919405	WORD	wordpools/wasnorm_wordpool_576.txt	LTP329	ltpFR2	10	19	BLUEPRINT	142	n/a	n/a	0	0	0
3921959	WORD	wordpools/wasnorm_wordpool_576.txt	LTP329	ltpFR2	10	19	OZONE	996	n/a	n/a	0	0	0
3924394	WORD	wordpools/wasnorm_wordpool_576.txt	LTP329	ltpFR2	10	19	FLASHLIGHT	575	n/a	n/a	0	0	0
3926012	START	n/a	LTP329	ltpFR2	10	n/a	n/a	n/a	28	n/a	n/a	n/a	n/a
3926814	DISTRACTOR	n/a	LTP329	ltpFR2	10	19	n/a	n/a	n/a	n/a	0	0	0
3926829	PROB	n/a	LTP329	ltpFR2	10	n/a	n/a	n/a	28	18	6	4	8
3929414	PROB	n/a	LTP329	ltpFR2	10	n/a	n/a	n/a	28	17	7	4	6
3931650	PROB	n/a	LTP329	ltpFR2	10	n/a	n/a	n/a	28	11	3	5	3
3935235	PROB	n/a	LTP329	ltpFR2	10	n/a	n/a	n/a	28	12	4	4	4
3936270	PROB	n/a	LTP329	ltpFR2	10	n/a	n/a	n/a	28	14	8	5	1
3937823	PROB	n/a	LTP329	ltpFR2	10	n/a	n/a	n/a	28	13	3	8	2
3939254	PROB	n/a	LTP329	ltpFR2	10	n/a	n/a	n/a	28	12	7	3	2
3940406	PROB	n/a	LTP329	ltpFR2	10	n/a	n/a	n/a	28	14	3	7	4
3941692	PROB	n/a	LTP329	ltpFR2	10	n/a	n/a	n/a	28	7	1	3	3
3944127	PROB	n/a	LTP329	ltpFR2	10	n/a	n/a	n/a	28	12	2	6	4
3945410	PROB	n/a	LTP329	ltpFR2	10	n/a	n/a	n/a	28	16	2	5	9
3947228	PROB	n/a	LTP329	ltpFR2	10	n/a	n/a	n/a	28	20	9	4	7
3948931	STOP	n/a	LTP329	ltpFR2	10	n/a	n/a	n/a	28	n/a	n/a	n/a	n/a
3951866	REC_START	n/a	LTP329	ltpFR2	10	19	n/a	n/a	n/a	n/a	0	0	0
3953443	REC_WORD	wordpools/wasnorm_wordpool_576.txt	LTP329	ltpFR2	10	19	JOURNAL	760	n/a	n/a	0	0	0
3955155	REC_WORD	wordpools/wasnorm_wordpool_576.txt	LTP329	ltpFR2	10	19	LASER	801	n/a	n/a	0	0	0
3956634	REC_WORD	wordpools/wasnorm_wordpool_576.txt	LTP329	ltpFR2	10	19	GUARD	667	n/a	n/a	0	0	0
3958152	REC_WORD	wordpools/wasnorm_wordpool_576.txt	LTP329	ltpFR2	10	19	RAZOR	1171	n/a	n/a	0	0	0
3966311	REC_WORD	wordpools/wasnorm_wordpool_576.txt	LTP329	ltpFR2	10	19	FRECKLE	602	n/a	n/a	0	0	0
3976867	REC_WORD	wordpools/wasnorm_wordpool_576.txt	LTP329	ltpFR2	10	19	GARDEN	623	n/a	n/a	0	0	0
3981432	REC_WORD	wordpools/wasnorm_wordpool_576.txt	LTP329	ltpFR2	10	19	PLUTO	1092	n/a	n/a	0	0	0
3983771	REC_WORD	wordpools/wasnorm_wordpool_576.txt	LTP329	ltpFR2	10	19	BLACKBOARD	133	n/a	n/a	0	0	0
3985320	REC_WORD	wordpools/wasnorm_wordpool_576.txt	LTP329	ltpFR2	10	19	PLASTER	1085	n/a	n/a	0	0	0
3987061	REC_WORD	wordpools/wasnorm_wordpool_576.txt	LTP329	ltpFR2	10	19	BRICK	172	n/a	n/a	0	0	0
4005958	REC_WORD	wordpools/wasnorm_wordpool_576.txt	LTP329	ltpFR2	10	19	OZONE	996	n/a	n/a	0	0	0
4074864	WORD	wordpools/wasnorm_wordpool_576.txt	LTP329	ltpFR2	10	20	WHISTLE	1606	n/a	n/a	0	0	0
4077416	WORD	wordpools/wasnorm_wordpool_576.txt	LTP329	ltpFR2	10	20	ONION	977	n/a	n/a	0	0	0
4079952	WORD	wordpools/wasnorm_wordpool_576.txt	LTP329	ltpFR2	10	20	GARLIC	624	n/a	n/a	0	0	0
4082436	WORD	wordpools/wasnorm_wordpool_576.txt	LTP329	ltpFR2	10	20	WAGON	1578	n/a	n/a	0	0	0
4085089	WORD	wordpools/wasnorm_wordpool_576.txt	LTP329	ltpFR2	10	20	MEAT	883	n/a	n/a	0	0	0
4087875	WORD	wordpools/wasnorm_wordpool_576.txt	LTP329	ltpFR2	10	20	APRON	35	n/a	n/a	0	0	0
4090391	WORD	wordpools/wasnorm_wordpool_576.txt	LTP329	ltpFR2	10	20	KITCHEN	778	n/a	n/a	0	0	0
4093046	WORD	wordpools/wasnorm_wordpool_576.txt	LTP329	ltpFR2	10	20	SUNSET	1408	n/a	n/a	0	0	0
4095530	WORD	wordpools/wasnorm_wordpool_576.txt	LTP329	ltpFR2	10	20	CITRUS	313	n/a	n/a	0	0	0
4098248	WORD	wordpools/wasnorm_wordpool_576.txt	LTP329	ltpFR2	10	20	LAMP	798	n/a	n/a	0	0	0
4100985	WORD	wordpools/wasnorm_wordpool_576.txt	LTP329	ltpFR2	10	20	EYELASH	546	n/a	n/a	0	0	0
4103637	WORD	wordpools/wasnorm_wordpool_576.txt	LTP329	ltpFR2	10	20	PADDLE	1000	n/a	n/a	0	0	0
4106105	WORD	wordpools/wasnorm_wordpool_576.txt	LTP329	ltpFR2	10	20	DRILL	497	n/a	n/a	0	0	0
4108690	WORD	wordpools/wasnorm_wordpool_576.txt	LTP329	ltpFR2	10	20	EXPERT	543	n/a	n/a	0	0	0
4111309	WORD	wordpools/wasnorm_wordpool_576.txt	LTP329	ltpFR2	10	20	RIVER	1194	n/a	n/a	0	0	0
4113962	WORD	wordpools/wasnorm_wordpool_576.txt	LTP329	ltpFR2	10	20	DONOR	485	n/a	n/a	0	0	0
4116530	WORD	wordpools/wasnorm_wordpool_576.txt	LTP329	ltpFR2	10	20	LEADER	807	n/a	n/a	0	0	0
4118998	WORD	wordpools/wasnorm_wordpool_576.txt	LTP329	ltpFR2	10	20	CHAUFFEUR	283	n/a	n/a	0	0	0
4121501	WORD	wordpools/wasnorm_wordpool_576.txt	LTP329	ltpFR2	10	20	KIDNEY	776	n/a	n/a	0	0	0
4124303	WORD	wordpools/wasnorm_wordpool_576.txt	LTP329	ltpFR2	10	20	SEAL	1262	n/a	n/a	0	0	0
4126872	WORD	wordpools/wasnorm_wordpool_576.txt	LTP329	ltpFR2	10	20	KNIFE	785	n/a	n/a	0	0	0
4129424	WORD	wordpools/wasnorm_wordpool_576.txt	LTP329	ltpFR2	10	20	PLAZA	1088	n/a	n/a	0	0	0
4132210	WORD	wordpools/wasnorm_wordpool_576.txt	LTP329	ltpFR2	10	20	TAXI	1438	n/a	n/a	0	0	0
4134962	WORD	wordpools/wasnorm_wordpool_576.txt	LTP329	ltpFR2	10	20	CAMEL	223	n/a	n/a	0	0	0
4136579	START	n/a	LTP329	ltpFR2	10	n/a	n/a	n/a	29	n/a	n/a	n/a	n/a
4137457	DISTRACTOR	n/a	LTP329	ltpFR2	10	20	n/a	n/a	n/a	n/a	0	0	0
4137463	PROB	n/a	LTP329	ltpFR2	10	n/a	n/a	n/a	29	13	7	3	3
4140381	PROB	n/a	LTP329	ltpFR2	10	n/a	n/a	n/a	29	19	8	5	6
4142199	PROB	n/a	LTP329	ltpFR2	10	n/a	n/a	n/a	29	16	6	7	3
4143803	PROB	n/a	LTP329	ltpFR2	10	n/a	n/a	n/a	29	10	2	6	2
4144936	PROB	n/a	LTP329	ltpFR2	10	n/a	n/a	n/a	29	9	1	7	1
4146021	PROB	n/a	LTP329	ltpFR2	10	n/a	n/a	n/a	29	24	8	7	9
4149057	PROB	n/a	LTP329	ltpFR2	10	n/a	n/a	n/a	29	15	2	7	6
4150826	PROB	n/a	LTP329	ltpFR2	10	n/a	n/a	n/a	29	23	9	6	8
4153142	PROB	n/a	LTP329	ltpFR2	10	n/a	n/a	n/a	29	15	1	8	6
4155211	PROB	n/a	LTP329	ltpFR2	10	n/a	n/a	n/a	29	18	9	6	3
4156679	PROB	n/a	LTP329	ltpFR2	10	n/a	n/a	n/a	29	10	4	4	2
4158131	PROB	n/a	LTP329	ltpFR2	10	n/a	n/a	n/a	29	15	9	1	5
4159201	STOP	n/a	LTP329	ltpFR2	10	n/a	n/a	n/a	29	n/a	n/a	n/a	n/a
4162466	REC_START	n/a	LTP329	ltpFR2	10	20	n/a	n/a	n/a	n/a	0	0	0
4164526	REC_WORD	wordpools/wasnorm_wordpool_576.txt	LTP329	ltpFR2	10	20	WHISTLE	1606	n/a	n/a	0	0	0
4166809	REC_WORD	wordpools/wasnorm_wordpool_576.txt	LTP329	ltpFR2	10	20	SEAL	1262	n/a	n/a	0	0	0
4169369	REC_WORD	wordpools/wasnorm_wordpool_576.txt	LTP329	ltpFR2	10	20	GARLIC	624	n/a	n/a	0	0	0
4171260	REC_WORD	wordpools/wasnorm_wordpool_576.txt	LTP329	ltpFR2	10	20	ONION	977	n/a	n/a	0	0	0
4172734	REC_WORD	wordpools/wasnorm_wordpool_576.txt	LTP329	ltpFR2	10	20	WAGON	1578	n/a	n/a	0	0	0
4174410	REC_WORD	wordpools/wasnorm_wordpool_576.txt	LTP329	ltpFR2	10	20	MEAT	883	n/a	n/a	0	0	0
4176204	REC_WORD	wordpools/wasnorm_wordpool_576.txt	LTP329	ltpFR2	10	20	CITRUS	313	n/a	n/a	0	0	0
4179208	REC_WORD	wordpools/wasnorm_wordpool_576.txt	LTP329	ltpFR2	10	20	RIVER	1194	n/a	n/a	0	0	0
4180961	REC_WORD	wordpools/wasnorm_wordpool_576.txt	LTP329	ltpFR2	10	20	SUNSET	1408	n/a	n/a	0	0	0
4182997	REC_WORD	wordpools/wasnorm_wordpool_576.txt	LTP329	ltpFR2	10	20	KITCHEN	778	n/a	n/a	0	0	0
4184903	REC_WORD	wordpools/wasnorm_wordpool_576.txt	LTP329	ltpFR2	10	20	APRON	35	n/a	n/a	0	0	0
4193514	REC_WORD	wordpools/wasnorm_wordpool_576.txt	LTP329	ltpFR2	10	20	TAXI	1438	n/a	n/a	0	0	0
4194637	REC_WORD	wordpools/wasnorm_wordpool_576.txt	LTP329	ltpFR2	10	20	PLAZA	1088	n/a	n/a	0	0	0
4195847	REC_WORD	wordpools/wasnorm_wordpool_576.txt	LTP329	ltpFR2	10	20	CAMEL	223	n/a	n/a	0	0	0
4199249	REC_WORD	wordpools/wasnorm_wordpool_576.txt	LTP329	ltpFR2	10	20	KIDNEY	776	n/a	n/a	0	0	0
4200534	REC_WORD	wordpools/wasnorm_wordpool_576.txt	LTP329	ltpFR2	10	20	DONOR	485	n/a	n/a	0	0	0
4202722	REC_WORD	wordpools/wasnorm_wordpool_576.txt	LTP329	ltpFR2	10	20	LEADER	807	n/a	n/a	0	0	0
4207164	REC_WORD	wordpools/wasnorm_wordpool_576.txt	LTP329	ltpFR2	10	20	CHAUFFEUR	283	n/a	n/a	0	0	0
4210563	REC_WORD	wordpools/wasnorm_wordpool_576.txt	LTP329	ltpFR2	10	20	EXPERT	543	n/a	n/a	0	0	0
4212271	REC_WORD	wordpools/wasnorm_wordpool_576.txt	LTP329	ltpFR2	10	20	DRILL	497	n/a	n/a	0	0	0
4235465	REC_WORD	wordpools/wasnorm_wordpool_576.txt	LTP329	ltpFR2	10	20	PADDLE	1000	n/a	n/a	0	0	0
4252939	WORD	wordpools/wasnorm_wordpool_576.txt	LTP329	ltpFR2	10	21	BROOK	177	n/a	n/a	0	0	0
4255490	WORD	wordpools/wasnorm_wordpool_576.txt	LTP329	ltpFR2	10	21	SKETCH	1315	n/a	n/a	0	0	0
4258175	WORD	wordpools/wasnorm_wordpool_576.txt	LTP329	ltpFR2	10	21	MARROW	872	n/a	n/a	0	0	0
4260847	WORD	wordpools/wasnorm_wordpool_576.txt	LTP329	ltpFR2	10	21	BODY	145	n/a	n/a	0	0	0
4263530	WORD	wordpools/wasnorm_wordpool_576.txt	LTP329	ltpFR2	10	21	ISLAND	745	n/a	n/a	0	0	0
4266182	WORD	wordpools/wasnorm_wordpool_576.txt	LTP329	ltpFR2	10	21	FLEET	578	n/a	n/a	0	0	0
4268720	WORD	wordpools/wasnorm_wordpool_576.txt	LTP329	ltpFR2	10	21	PROTON	1132	n/a	n/a	0	0	0
4271320	WORD	wordpools/wasnorm_wordpool_576.txt	LTP329	ltpFR2	10	21	PERCH	1048	n/a	n/a	0	0	0
4273789	WORD	wordpools/wasnorm_wordpool_576.txt	LTP329	ltpFR2	10	21	PECAN	1036	n/a	n/a	0	0	0
4276324	WORD	wordpools/wasnorm_wordpool_576.txt	LTP329	ltpFR2	10	21	WRENCH	1625	n/a	n/a	0	0	0
4279077	WORD	wordpools/wasnorm_wordpool_576.txt	LTP329	ltpFR2	10	21	ICING	732	n/a	n/a	0	0	0
4281845	WORD	wordpools/wasnorm_wordpool_576.txt	LTP329	ltpFR2	10	21	PLAYGROUND	1087	n/a	n/a	0	0	0
4284315	WORD	wordpools/wasnorm_wordpool_576.txt	LTP329	ltpFR2	10	21	STAR	1373	n/a	n/a	0	0	0
4287083	WORD	wordpools/wasnorm_wordpool_576.txt	LTP329	ltpFR2	10	21	GLOBE	641	n/a	n/a	0	0	0
4289568	WORD	wordpools/wasnorm_wordpool_576.txt	LTP329	ltpFR2	10	21	WORLD	1622	n/a	n/a	0	0	0
4292352	WORD	wordpools/wasnorm_wordpool_576.txt	LTP329	ltpFR2	10	21	PAIL	1002	n/a	n/a	0	0	0
4294806	WORD	wordpools/wasnorm_wordpool_576.txt	LTP329	ltpFR2	10	21	FLAG	573	n/a	n/a	0	0	0
4297357	WORD	wordpools/wasnorm_wordpool_576.txt	LTP329	ltpFR2	10	21	TABLET	1427	n/a	n/a	0	0	0
4299861	WORD	wordpools/wasnorm_wordpool_576.txt	LTP329	ltpFR2	10	21	DENTIST	447	n/a	n/a	0	0	0
4302478	WORD	wordpools/wasnorm_wordpool_576.txt	LTP329	ltpFR2	10	21	SEAGULL	1261	n/a	n/a	0	0	0
4305098	WORD	wordpools/wasnorm_wordpool_576.txt	LTP329	ltpFR2	10	21	PLIERS	1089	n/a	n/a	0	0	0
4307683	WORD	wordpools/wasnorm_wordpool_576.txt	LTP329	ltpFR2	10	21	FOREHEAD	592	n/a	n/a	0	0	0
4310167	WORD	wordpools/wasnorm_wordpool_576.txt	LTP329	ltpFR2	10	21	GRAVEL	659	n/a	n/a	0	0	0
4312887	WORD	wordpools/wasnorm_wordpool_576.txt	LTP329	ltpFR2	10	21	GREASE	660	n/a	n/a	0	0	0
4314505	START	n/a	LTP329	ltpFR2	10	n/a	n/a	n/a	30	n/a	n/a	n/a	n/a
4315484	DISTRACTOR	n/a	LTP329	ltpFR2	10	21	n/a	n/a	n/a	n/a	0	0	0
4315488	PROB	n/a	LTP329	ltpFR2	10	n/a	n/a	n/a	30	11	2	4	5
4318108	PROB	n/a	LTP329	ltpFR2	10	n/a	n/a	n/a	30	16	6	1	9
4319442	PROB	n/a	LTP329	ltpFR2	10	n/a	n/a	n/a	30	20	2	9	9
4320727	PROB	n/a	LTP329	ltpFR2	10	n/a	n/a	n/a	30	8	4	2	2
4321945	PROB	n/a	LTP329	ltpFR2	10	n/a	n/a	n/a	30	13	7	4	9
4324296	PROB	n/a	LTP329	ltpFR2	10	n/a	n/a	n/a	30	12	3	3	6
4326681	PROB	n/a	LTP329	ltpFR2	10	n/a	n/a	n/a	30	19	3	9	7
4328482	PROB	n/a	LTP329	ltpFR2	10	n/a	n/a	n/a	30	14	2	7	5
4330551	PROB	n/a	LTP329	ltpFR2	10	n/a	n/a	n/a	30	14	4	6	4
4331819	PROB	n/a	LTP329	ltpFR2	10	n/a	n/a	n/a	30	9	2	2	5
4332903	PROB	n/a	LTP329	ltpFR2	10	n/a	n/a	n/a	30	25	9	7	9
4334655	PROB	n/a	LTP329	ltpFR2	10	n/a	n/a	n/a	30	13	3	2	8
4336404	PROB	n/a	LTP329	ltpFR2	10	n/a	n/a	n/a	30	12	5	5	2
4337343	STOP	n/a	LTP329	ltpFR2	10	n/a	n/a	n/a	30	n/a	n/a	n/a	n/a
4340459	REC_START	n/a	LTP329	ltpFR2	10	21	n/a	n/a	n/a	n/a	0	0	0
4342208	REC_WORD	wordpools/wasnorm_wordpool_576.txt	LTP329	ltpFR2	10	21	GRAVEL	659	n/a	n/a	0	0	0
4343598	REC_WORD	wordpools/wasnorm_wordpool_576.txt	LTP329	ltpFR2	10	21	GREASE	660	n/a	n/a	0	0	0
4344967	REC_WORD	wordpools/wasnorm_wordpool_576.txt	LTP329	ltpFR2	10	21	SEAGULL	1261	n/a	n/a	0	0	0
4346436	REC_WORD	wordpools/wasnorm_wordpool_576.txt	LTP329	ltpFR2	10	21	PAIL	1002	n/a	n/a	0	0	0
4347794	REC_WORD	wordpools/wasnorm_wordpool_576.txt	LTP329	ltpFR2	10	21	FLAG	573	n/a	n/a	0	0	0
4352253	REC_WORD	wordpools/wasnorm_wordpool_576.txt	LTP329	ltpFR2	10	21	BROOK	177	n/a	n/a	0	0	0
4355000	REC_WORD	wordpools/wasnorm_wordpool_576.txt	LTP329	ltpFR2	10	21	SKETCH	1315	n/a	n/a	0	0	0
4357770	REC_WORD	wordpools/wasnorm_wordpool_576.txt	LTP329	ltpFR2	10	21	GLOBE	641	n/a	n/a	0	0	0
4358887	REC_WORD	wordpools/wasnorm_wordpool_576.txt	LTP329	ltpFR2	10	21	WORLD	1622	n/a	n/a	0	0	0
4360047	REC_WORD	wordpools/wasnorm_wordpool_576.txt	LTP329	ltpFR2	10	21	STAR	1373	n/a	n/a	0	0	0
4369713	REC_WORD	wordpools/wasnorm_wordpool_576.txt	LTP329	ltpFR2	10	21	BODY	145	n/a	n/a	0	0	0
4376741	REC_WORD	wordpools/wasnorm_wordpool_576.txt	LTP329	ltpFR2	10	21	FOREHEAD	592	n/a	n/a	0	0	0
4381014	REC_WORD	wordpools/wasnorm_wordpool_576.txt	LTP329	ltpFR2	10	21	MARROW	872	n/a	n/a	0	0	0
4386353	REC_WORD	wordpools/wasnorm_wordpool_576.txt	LTP329	ltpFR2	10	21	PECAN	1036	n/a	n/a	0	0	0
4388360	REC_WORD	wordpools/wasnorm_wordpool_576.txt	LTP329	ltpFR2	10	21	ICING	732	n/a	n/a	0	0	0
4410117	REC_WORD	wordpools/wasnorm_wordpool_576.txt	LTP329	ltpFR2	10	21	FLEET	578	n/a	n/a	0	0	0
4430897	DISTRACTOR	n/a	LTP329	ltpFR2	10	22	n/a	n/a	n/a	n/a	0	0	0
4430897	START	n/a	LTP329	ltpFR2	10	n/a	n/a	n/a	31	n/a	n/a	n/a	n/a
4430916	PROB	n/a	LTP329	ltpFR2	10	n/a	n/a	n/a	31	13	4	5	4
4433582	PROB	n/a	LTP329	ltpFR2	10	n/a	n/a	n/a	31	14	3	3	8
4435268	PROB	n/a	LTP329	ltpFR2	10	n/a	n/a	n/a	31	11	6	4	1
4436403	PROB	n/a	LTP329	ltpFR2	10	n/a	n/a	n/a	31	7	3	2	2
4439354	PROB	n/a	LTP329	ltpFR2	10	n/a	n/a	n/a	31	14	6	6	2
4442791	PROB	n/a	LTP329	ltpFR2	10	n/a	n/a	n/a	31	16	2	9	5
4444241	PROB	n/a	LTP329	ltpFR2	10	n/a	n/a	n/a	31	15	3	7	5
4445525	PROB	n/a	LTP329	ltpFR2	10	n/a	n/a	n/a	31	16	9	6	1
4447144	PROB	n/a	LTP329	ltpFR2	10	n/a	n/a	n/a	31	18	8	5	5
4448477	PROB	n/a	LTP329	ltpFR2	10	n/a	n/a	n/a	31	15	7	4	4
4450445	PROB	n/a	LTP329	ltpFR2	10	n/a	n/a	n/a	31	7	4	1	2
4454897	STOP	n/a	LTP329	ltpFR2	10	n/a	n/a	n/a	31	n/a	n/a	n/a	n/a
4455718	WORD	wordpools/wasnorm_wordpool_576.txt	LTP329	ltpFR2	10	22	BARREL	91	n/a	n/a	0	0	0
