mstime	trial_type	stim_file	subject	experiment	session	trial	task	item_name	item_num	recog_conf	resp	answer	test_x	test_y	test_z	color_b	color_g	color_r	case	font
0	SESS_START	n/a	LTP087	ltpFR	13	n/a	n/a	n/a	n/a	5	n/a	n/a	0	0	0	n/a	n/a	n/a	n/a	n/a
39288	START	n/a	LTP087	ltpFR	13	n/a	n/a	n/a	n/a	n/a	n/a	n/a	n/a	n/a	n/a	n/a	n/a	n/a	n/a	n/a
39312	PROB	n/a	LTP087	ltpFR	13	n/a	n/a	n/a	n/a	n/a	n/a	21	9	7	5	n/a	n/a	n/a	n/a	n/a
41655	PROB	n/a	LTP087	ltpFR	13	n/a	n/a	n/a	n/a	n/a	n/a	13	6	5	2	n/a	n/a	n/a	n/a	n/a
43129	PROB	n/a	LTP087	ltpFR	13	n/a	n/a	n/a	n/a	n/a	n/a	17	4	6	7	n/a	n/a	n/a	n/a	n/a
44430	PROB	n/a	LTP087	ltpFR	13	n/a	n/a	n/a	n/a	n/a	n/a	13	4	3	6	n/a	n/a	n/a	n/a	n/a
46128	PROB	n/a	LTP087	ltpFR	13	n/a	n/a	n/a	n/a	n/a	n/a	13	2	5	6	n/a	n/a	n/a	n/a	n/a
47663	PROB	n/a	LTP087	ltpFR	13	n/a	n/a	n/a	n/a	n/a	n/a	15	8	2	5	n/a	n/a	n/a	n/a	n/a
49404	PROB	n/a	LTP087	ltpFR	13	n/a	n/a	n/a	n/a	n/a	n/a	1	6	3	8	n/a	n/a	n/a	n/a	n/a
51596	PROB	n/a	LTP087	ltpFR	13	n/a	n/a	n/a	n/a	n/a	n/a	16	9	5	2	n/a	n/a	n/a	n/a	n/a
55379	PROB	n/a	LTP087	ltpFR	13	n/a	n/a	n/a	n/a	n/a	n/a	12	1	7	4	n/a	n/a	n/a	n/a	n/a
57939	STOP	n/a	LTP087	ltpFR	13	n/a	n/a	n/a	n/a	n/a	n/a	n/a	n/a	n/a	n/a	n/a	n/a	n/a	n/a	n/a
87825	WORD	wordpools/wasnorm_wordpool.txt	LTP087	ltpFR	13	1	0	TERMINAL	1450	3	0	n/a	0	0	0	0	0.5869140625	0.422607421875	lower	../fonts/zerothre.ttf
91858	WORD	wordpools/wasnorm_wordpool.txt	LTP087	ltpFR	13	1	0	CABIN	211	n/a	1	n/a	0	0	0	0	0.5869140625	0.422607421875	lower	../fonts/zerothre.ttf
95741	WORD	wordpools/wasnorm_wordpool.txt	LTP087	ltpFR	13	1	1	ANKLE	24	n/a	0	n/a	0	0	0	1	0.412841796875	0.57763671875	upper	../fonts/amplitud.ttf
99808	WORD	wordpools/wasnorm_wordpool.txt	LTP087	ltpFR	13	1	1	BEAVER	109	n/a	1	n/a	0	0	0	1	0.412841796875	0.57763671875	upper	../fonts/amplitud.ttf
103982	WORD	wordpools/wasnorm_wordpool.txt	LTP087	ltpFR	13	1	1	DILL	465	n/a	0	n/a	0	0	0	1	0.412841796875	0.57763671875	upper	../fonts/amplitud.ttf
108107	WORD	wordpools/wasnorm_wordpool.txt	LTP087	ltpFR	13	1	0	ELBOW	520	n/a	1	n/a	0	0	0	0	0.5869140625	0.422607421875	lower	../fonts/zerothre.ttf
112257	WORD	wordpools/wasnorm_wordpool.txt	LTP087	ltpFR	13	1	0	BARLEY	88	n/a	1	n/a	0	0	0	0	0.5869140625	0.422607421875	lower	../fonts/zerothre.ttf
116366	WORD	wordpools/wasnorm_wordpool.txt	LTP087	ltpFR	13	1	0	CAMEL	223	n/a	0	n/a	0	0	0	0	0.5869140625	0.422607421875	lower	../fonts/zerothre.ttf
120314	WORD	wordpools/wasnorm_wordpool.txt	LTP087	ltpFR	13	1	0	SCHOOL	1248	n/a	0	n/a	0	0	0	0	0.5869140625	0.422607421875	lower	../fonts/zerothre.ttf
124349	WORD	wordpools/wasnorm_wordpool.txt	LTP087	ltpFR	13	1	0	GRADUATE	653	n/a	0	n/a	0	0	0	0	0.5869140625	0.422607421875	lower	../fonts/zerothre.ttf
128406	WORD	wordpools/wasnorm_wordpool.txt	LTP087	ltpFR	13	1	0	WRITER	1627	n/a	1	n/a	0	0	0	0	0.5869140625	0.422607421875	lower	../fonts/zerothre.ttf
132606	WORD	wordpools/wasnorm_wordpool.txt	LTP087	ltpFR	13	1	1	PASSAGE	1019	n/a	0	n/a	0	0	0	1	0.412841796875	0.57763671875	upper	../fonts/amplitud.ttf
136772	WORD	wordpools/wasnorm_wordpool.txt	LTP087	ltpFR	13	1	1	SALAD	1224	n/a	1	n/a	0	0	0	1	0.412841796875	0.57763671875	upper	../fonts/amplitud.ttf
140788	WORD	wordpools/wasnorm_wordpool.txt	LTP087	ltpFR	13	1	1	EUROPE	541	n/a	1	n/a	0	0	0	1	0.412841796875	0.57763671875	upper	../fonts/amplitud.ttf
144896	WORD	wordpools/wasnorm_wordpool.txt	LTP087	ltpFR	13	1	1	CAB	209	n/a	1	n/a	0	0	0	1	0.412841796875	0.57763671875	upper	../fonts/amplitud.ttf
148996	WORD	wordpools/wasnorm_wordpool.txt	LTP087	ltpFR	13	1	1	SALESMAN	1225	n/a	1	n/a	0	0	0	1	0.412841796875	0.57763671875	upper	../fonts/amplitud.ttf
152004	START	n/a	LTP087	ltpFR	13	n/a	n/a	n/a	n/a	n/a	n/a	n/a	n/a	n/a	n/a	n/a	n/a	n/a	n/a	n/a
152862	PROB	n/a	LTP087	ltpFR	13	n/a	n/a	n/a	n/a	n/a	n/a	16	4	6	6	n/a	n/a	n/a	n/a	n/a
155129	PROB	n/a	LTP087	ltpFR	13	n/a	n/a	n/a	n/a	n/a	n/a	16	3	4	9	n/a	n/a	n/a	n/a	n/a
160004	STOP	n/a	LTP087	ltpFR	13	n/a	n/a	n/a	n/a	n/a	n/a	n/a	n/a	n/a	n/a	n/a	n/a	n/a	n/a	n/a
161812	REC_START	n/a	LTP087	ltpFR	13	1	n/a	n/a	n/a	n/a	n/a	n/a	0	0	0	n/a	n/a	n/a	n/a	n/a
182679	REC_WORD	wordpools/wasnorm_wordpool.txt	LTP087	ltpFR	13	1	0	TERMINAL	1450	n/a	0	n/a	0	0	0	n/a	n/a	n/a	n/a	n/a
187334	REC_WORD	wordpools/wasnorm_wordpool.txt	LTP087	ltpFR	13	1	1	SALESMAN	1225	n/a	1	n/a	0	0	0	n/a	n/a	n/a	n/a	n/a
239407	START	n/a	LTP087	ltpFR	13	n/a	n/a	n/a	n/a	n/a	n/a	n/a	n/a	n/a	n/a	n/a	n/a	n/a	n/a	n/a
240914	PROB	n/a	LTP087	ltpFR	13	n/a	n/a	n/a	n/a	n/a	n/a	18	3	9	6	n/a	n/a	n/a	n/a	n/a
244030	PROB	n/a	LTP087	ltpFR	13	n/a	n/a	n/a	n/a	n/a	n/a	21	8	4	9	n/a	n/a	n/a	n/a	n/a
247407	STOP	n/a	LTP087	ltpFR	13	n/a	n/a	n/a	n/a	n/a	n/a	n/a	n/a	n/a	n/a	n/a	n/a	n/a	n/a	n/a
248564	WORD	wordpools/wasnorm_wordpool.txt	LTP087	ltpFR	13	2	1	HUT	729	n/a	1	n/a	0	0	0	1	0.412841796875	0.57763671875	upper	../fonts/amplitud.ttf
251573	START	n/a	LTP087	ltpFR	13	n/a	n/a	n/a	n/a	n/a	n/a	n/a	n/a	n/a	n/a	n/a	n/a	n/a	n/a	n/a
252555	PROB	n/a	LTP087	ltpFR	13	n/a	n/a	n/a	n/a	n/a	n/a	17	3	7	7	n/a	n/a	n/a	n/a	n/a
254288	PROB	n/a	LTP087	ltpFR	13	n/a	n/a	n/a	n/a	n/a	n/a	21	7	8	6	n/a	n/a	n/a	n/a	n/a
256104	PROB	n/a	LTP087	ltpFR	13	n/a	n/a	n/a	n/a	n/a	n/a	19	8	7	4	n/a	n/a	n/a	n/a	n/a
259573	STOP	n/a	LTP087	ltpFR	13	n/a	n/a	n/a	n/a	n/a	n/a	n/a	n/a	n/a	n/a	n/a	n/a	n/a	n/a	n/a
260779	WORD	wordpools/wasnorm_wordpool.txt	LTP087	ltpFR	13	2	1	STORE	1387	n/a	1	n/a	0	0	0	1	0.412841796875	0.57763671875	upper	../fonts/amplitud.ttf
263787	START	n/a	LTP087	ltpFR	13	n/a	n/a	n/a	n/a	n/a	n/a	n/a	n/a	n/a	n/a	n/a	n/a	n/a	n/a	n/a
264754	PROB	n/a	LTP087	ltpFR	13	n/a	n/a	n/a	n/a	n/a	n/a	20	9	6	5	n/a	n/a	n/a	n/a	n/a
266278	PROB	n/a	LTP087	ltpFR	13	n/a	n/a	n/a	n/a	n/a	n/a	15	4	8	3	n/a	n/a	n/a	n/a	n/a
267621	PROB	n/a	LTP087	ltpFR	13	n/a	n/a	n/a	n/a	n/a	n/a	7	4	2	1	n/a	n/a	n/a	n/a	n/a
269178	PROB	n/a	LTP087	ltpFR	13	n/a	n/a	n/a	n/a	n/a	n/a	9	1	4	4	n/a	n/a	n/a	n/a	n/a
270747	STOP	n/a	LTP087	ltpFR	13	n/a	n/a	n/a	n/a	n/a	n/a	n/a	n/a	n/a	n/a	n/a	n/a	n/a	n/a	n/a
272736	WORD	wordpools/wasnorm_wordpool.txt	LTP087	ltpFR	13	2	1	BOSS	152	n/a	0	n/a	0	0	0	1	0.412841796875	0.57763671875	upper	../fonts/amplitud.ttf
275737	START	n/a	LTP087	ltpFR	13	n/a	n/a	n/a	n/a	n/a	n/a	n/a	n/a	n/a	n/a	n/a	n/a	n/a	n/a	n/a
276869	PROB	n/a	LTP087	ltpFR	13	n/a	n/a	n/a	n/a	n/a	n/a	23	8	9	6	n/a	n/a	n/a	n/a	n/a
278761	PROB	n/a	LTP087	ltpFR	13	n/a	n/a	n/a	n/a	n/a	n/a	15	5	1	9	n/a	n/a	n/a	n/a	n/a
280294	PROB	n/a	LTP087	ltpFR	13	n/a	n/a	n/a	n/a	n/a	n/a	13	1	3	9	n/a	n/a	n/a	n/a	n/a
281570	PROB	n/a	LTP087	ltpFR	13	n/a	n/a	n/a	n/a	n/a	n/a	15	4	7	4	n/a	n/a	n/a	n/a	n/a
283692	STOP	n/a	LTP087	ltpFR	13	n/a	n/a	n/a	n/a	n/a	n/a	n/a	n/a	n/a	n/a	n/a	n/a	n/a	n/a	n/a
284670	WORD	wordpools/wasnorm_wordpool.txt	LTP087	ltpFR	13	2	1	NOOSE	956	n/a	0	n/a	0	0	0	1	0.412841796875	0.57763671875	upper	../fonts/amplitud.ttf
287678	START	n/a	LTP087	ltpFR	13	n/a	n/a	n/a	n/a	n/a	n/a	n/a	n/a	n/a	n/a	n/a	n/a	n/a	n/a	n/a
288511	PROB	n/a	LTP087	ltpFR	13	n/a	n/a	n/a	n/a	n/a	n/a	15	5	8	2	n/a	n/a	n/a	n/a	n/a
290318	PROB	n/a	LTP087	ltpFR	13	n/a	n/a	n/a	n/a	n/a	n/a	18	4	5	9	n/a	n/a	n/a	n/a	n/a
293193	PROB	n/a	LTP087	ltpFR	13	n/a	n/a	n/a	n/a	n/a	n/a	23	5	9	9	n/a	n/a	n/a	n/a	n/a
295083	STOP	n/a	LTP087	ltpFR	13	n/a	n/a	n/a	n/a	n/a	n/a	n/a	n/a	n/a	n/a	n/a	n/a	n/a	n/a	n/a
296719	WORD	wordpools/wasnorm_wordpool.txt	LTP087	ltpFR	13	2	1	TIE	1466	n/a	0	n/a	0	0	0	1	0.412841796875	0.57763671875	upper	../fonts/amplitud.ttf
299726	START	n/a	LTP087	ltpFR	13	n/a	n/a	n/a	n/a	n/a	n/a	n/a	n/a	n/a	n/a	n/a	n/a	n/a	n/a	n/a
300826	PROB	n/a	LTP087	ltpFR	13	n/a	n/a	n/a	n/a	n/a	n/a	17	7	3	7	n/a	n/a	n/a	n/a	n/a
303602	PROB	n/a	LTP087	ltpFR	13	n/a	n/a	n/a	n/a	n/a	n/a	14	8	2	4	n/a	n/a	n/a	n/a	n/a
307726	STOP	n/a	LTP087	ltpFR	13	n/a	n/a	n/a	n/a	n/a	n/a	n/a	n/a	n/a	n/a	n/a	n/a	n/a	n/a	n/a
308651	WORD	wordpools/wasnorm_wordpool.txt	LTP087	ltpFR	13	2	1	TERRITORY	1452	n/a	0	n/a	0	0	0	1	0.412841796875	0.57763671875	upper	../fonts/amplitud.ttf
311660	START	n/a	LTP087	ltpFR	13	n/a	n/a	n/a	n/a	n/a	n/a	n/a	n/a	n/a	n/a	n/a	n/a	n/a	n/a	n/a
312709	PROB	n/a	LTP087	ltpFR	13	n/a	n/a	n/a	n/a	n/a	n/a	16	7	6	5	n/a	n/a	n/a	n/a	n/a
315758	PROB	n/a	LTP087	ltpFR	13	n/a	n/a	n/a	n/a	n/a	n/a	19	9	4	6	n/a	n/a	n/a	n/a	n/a
318468	STOP	n/a	LTP087	ltpFR	13	n/a	n/a	n/a	n/a	n/a	n/a	n/a	n/a	n/a	n/a	n/a	n/a	n/a	n/a	n/a
320492	WORD	wordpools/wasnorm_wordpool.txt	LTP087	ltpFR	13	2	1	OTTER	986	n/a	0	n/a	0	0	0	1	0.412841796875	0.57763671875	upper	../fonts/amplitud.ttf
323501	START	n/a	LTP087	ltpFR	13	n/a	n/a	n/a	n/a	n/a	n/a	n/a	n/a	n/a	n/a	n/a	n/a	n/a	n/a	n/a
324550	PROB	n/a	LTP087	ltpFR	13	n/a	n/a	n/a	n/a	n/a	n/a	9	1	7	2	n/a	n/a	n/a	n/a	n/a
326558	PROB	n/a	LTP087	ltpFR	13	n/a	n/a	n/a	n/a	n/a	n/a	7	1	1	5	n/a	n/a	n/a	n/a	n/a
327957	PROB	n/a	LTP087	ltpFR	13	n/a	n/a	n/a	n/a	n/a	n/a	11	8	1	2	n/a	n/a	n/a	n/a	n/a
331501	STOP	n/a	LTP087	ltpFR	13	n/a	n/a	n/a	n/a	n/a	n/a	n/a	n/a	n/a	n/a	n/a	n/a	n/a	n/a	n/a
332525	WORD	wordpools/wasnorm_wordpool.txt	LTP087	ltpFR	13	2	1	FOREST	593	n/a	0	n/a	0	0	0	1	0.412841796875	0.57763671875	upper	../fonts/amplitud.ttf
335533	START	n/a	LTP087	ltpFR	13	n/a	n/a	n/a	n/a	n/a	n/a	n/a	n/a	n/a	n/a	n/a	n/a	n/a	n/a	n/a
336616	PROB	n/a	LTP087	ltpFR	13	n/a	n/a	n/a	n/a	n/a	n/a	15	6	6	3	n/a	n/a	n/a	n/a	n/a
338148	PROB	n/a	LTP087	ltpFR	13	n/a	n/a	n/a	n/a	n/a	n/a	11	3	3	5	n/a	n/a	n/a	n/a	n/a
340616	PROB	n/a	LTP087	ltpFR	13	n/a	n/a	n/a	n/a	n/a	n/a	17	3	7	9	n/a	n/a	n/a	n/a	n/a
343492	STOP	n/a	LTP087	ltpFR	13	n/a	n/a	n/a	n/a	n/a	n/a	n/a	n/a	n/a	n/a	n/a	n/a	n/a	n/a	n/a
344649	WORD	wordpools/wasnorm_wordpool.txt	LTP087	ltpFR	13	2	1	FEAST	556	n/a	0	n/a	0	0	0	1	0.412841796875	0.57763671875	upper	../fonts/amplitud.ttf
347657	START	n/a	LTP087	ltpFR	13	n/a	n/a	n/a	n/a	n/a	n/a	n/a	n/a	n/a	n/a	n/a	n/a	n/a	n/a	n/a
348507	PROB	n/a	LTP087	ltpFR	13	n/a	n/a	n/a	n/a	n/a	n/a	18	9	7	2	n/a	n/a	n/a	n/a	n/a
350239	PROB	n/a	LTP087	ltpFR	13	n/a	n/a	n/a	n/a	n/a	n/a	20	9	9	2	n/a	n/a	n/a	n/a	n/a
354684	STOP	n/a	LTP087	ltpFR	13	n/a	n/a	n/a	n/a	n/a	n/a	n/a	n/a	n/a	n/a	n/a	n/a	n/a	n/a	n/a
356539	WORD	wordpools/wasnorm_wordpool.txt	LTP087	ltpFR	13	2	1	GROCERIES	663	n/a	0	n/a	0	0	0	1	0.412841796875	0.57763671875	upper	../fonts/amplitud.ttf
359540	START	n/a	LTP087	ltpFR	13	n/a	n/a	n/a	n/a	n/a	n/a	n/a	n/a	n/a	n/a	n/a	n/a	n/a	n/a	n/a
360631	PROB	n/a	LTP087	ltpFR	13	n/a	n/a	n/a	n/a	n/a	n/a	13	3	5	5	n/a	n/a	n/a	n/a	n/a
362296	PROB	n/a	LTP087	ltpFR	13	n/a	n/a	n/a	n/a	n/a	n/a	23	6	9	8	n/a	n/a	n/a	n/a	n/a
364996	PROB	n/a	LTP087	ltpFR	13	n/a	n/a	n/a	n/a	n/a	n/a	6	1	2	3	n/a	n/a	n/a	n/a	n/a
366508	STOP	n/a	LTP087	ltpFR	13	n/a	n/a	n/a	n/a	n/a	n/a	n/a	n/a	n/a	n/a	n/a	n/a	n/a	n/a	n/a
368463	WORD	wordpools/wasnorm_wordpool.txt	LTP087	ltpFR	13	2	1	TUSK	1523	n/a	0	n/a	0	0	0	1	0.412841796875	0.57763671875	upper	../fonts/amplitud.ttf
371464	START	n/a	LTP087	ltpFR	13	n/a	n/a	n/a	n/a	n/a	n/a	n/a	n/a	n/a	n/a	n/a	n/a	n/a	n/a	n/a
372530	PROB	n/a	LTP087	ltpFR	13	n/a	n/a	n/a	n/a	n/a	n/a	16	8	1	7	n/a	n/a	n/a	n/a	n/a
374070	PROB	n/a	LTP087	ltpFR	13	n/a	n/a	n/a	n/a	n/a	n/a	16	8	1	7	n/a	n/a	n/a	n/a	n/a
374895	PROB	n/a	LTP087	ltpFR	13	n/a	n/a	n/a	n/a	n/a	n/a	14	3	6	5	n/a	n/a	n/a	n/a	n/a
376721	PROB	n/a	LTP087	ltpFR	13	n/a	n/a	n/a	n/a	n/a	n/a	9	1	5	3	n/a	n/a	n/a	n/a	n/a
378428	STOP	n/a	LTP087	ltpFR	13	n/a	n/a	n/a	n/a	n/a	n/a	n/a	n/a	n/a	n/a	n/a	n/a	n/a	n/a	n/a
380613	WORD	wordpools/wasnorm_wordpool.txt	LTP087	ltpFR	13	2	1	SLACKS	1323	n/a	0	n/a	0	0	0	1	0.412841796875	0.57763671875	upper	../fonts/amplitud.ttf
383621	START	n/a	LTP087	ltpFR	13	n/a	n/a	n/a	n/a	n/a	n/a	n/a	n/a	n/a	n/a	n/a	n/a	n/a	n/a	n/a
384612	PROB	n/a	LTP087	ltpFR	13	n/a	n/a	n/a	n/a	n/a	n/a	20	7	8	6	n/a	n/a	n/a	n/a	n/a
386562	PROB	n/a	LTP087	ltpFR	13	n/a	n/a	n/a	n/a	n/a	n/a	14	7	4	3	n/a	n/a	n/a	n/a	n/a
389337	PROB	n/a	LTP087	ltpFR	13	n/a	n/a	n/a	n/a	n/a	n/a	7	2	1	4	n/a	n/a	n/a	n/a	n/a
391131	STOP	n/a	LTP087	ltpFR	13	n/a	n/a	n/a	n/a	n/a	n/a	n/a	n/a	n/a	n/a	n/a	n/a	n/a	n/a	n/a
392545	WORD	wordpools/wasnorm_wordpool.txt	LTP087	ltpFR	13	2	1	WOLF	1619	n/a	0	n/a	0	0	0	1	0.412841796875	0.57763671875	upper	../fonts/amplitud.ttf
395553	START	n/a	LTP087	ltpFR	13	n/a	n/a	n/a	n/a	n/a	n/a	n/a	n/a	n/a	n/a	n/a	n/a	n/a	n/a	n/a
396536	PROB	n/a	LTP087	ltpFR	13	n/a	n/a	n/a	n/a	n/a	n/a	17	5	7	5	n/a	n/a	n/a	n/a	n/a
398318	PROB	n/a	LTP087	ltpFR	13	n/a	n/a	n/a	n/a	n/a	n/a	14	8	4	2	n/a	n/a	n/a	n/a	n/a
403553	STOP	n/a	LTP087	ltpFR	13	n/a	n/a	n/a	n/a	n/a	n/a	n/a	n/a	n/a	n/a	n/a	n/a	n/a	n/a	n/a
404644	WORD	wordpools/wasnorm_wordpool.txt	LTP087	ltpFR	13	2	1	ANIMAL	23	n/a	1	n/a	0	0	0	1	0.412841796875	0.57763671875	upper	../fonts/amplitud.ttf
407653	START	n/a	LTP087	ltpFR	13	n/a	n/a	n/a	n/a	n/a	n/a	n/a	n/a	n/a	n/a	n/a	n/a	n/a	n/a	n/a
408502	PROB	n/a	LTP087	ltpFR	13	n/a	n/a	n/a	n/a	n/a	n/a	21	4	8	9	n/a	n/a	n/a	n/a	n/a
410344	PROB	n/a	LTP087	ltpFR	13	n/a	n/a	n/a	n/a	n/a	n/a	15	4	8	3	n/a	n/a	n/a	n/a	n/a
412084	PROB	n/a	LTP087	ltpFR	13	n/a	n/a	n/a	n/a	n/a	n/a	21	9	3	9	n/a	n/a	n/a	n/a	n/a
415653	STOP	n/a	LTP087	ltpFR	13	n/a	n/a	n/a	n/a	n/a	n/a	n/a	n/a	n/a	n/a	n/a	n/a	n/a	n/a	n/a
416850	WORD	wordpools/wasnorm_wordpool.txt	LTP087	ltpFR	13	2	1	PLANT	1083	n/a	1	n/a	0	0	0	1	0.412841796875	0.57763671875	upper	../fonts/amplitud.ttf
419851	START	n/a	LTP087	ltpFR	13	n/a	n/a	n/a	n/a	n/a	n/a	n/a	n/a	n/a	n/a	n/a	n/a	n/a	n/a	n/a
421050	PROB	n/a	LTP087	ltpFR	13	n/a	n/a	n/a	n/a	n/a	n/a	17	6	7	4	n/a	n/a	n/a	n/a	n/a
422750	PROB	n/a	LTP087	ltpFR	13	n/a	n/a	n/a	n/a	n/a	n/a	16	6	1	9	n/a	n/a	n/a	n/a	n/a
425233	PROB	n/a	LTP087	ltpFR	13	n/a	n/a	n/a	n/a	n/a	n/a	16	4	5	7	n/a	n/a	n/a	n/a	n/a
427588	STOP	n/a	LTP087	ltpFR	13	n/a	n/a	n/a	n/a	n/a	n/a	n/a	n/a	n/a	n/a	n/a	n/a	n/a	n/a	n/a
428916	WORD	wordpools/wasnorm_wordpool.txt	LTP087	ltpFR	13	2	1	PURSE	1145	n/a	0	n/a	0	0	0	1	0.412841796875	0.57763671875	upper	../fonts/amplitud.ttf
431924	START	n/a	LTP087	ltpFR	13	n/a	n/a	n/a	n/a	n/a	n/a	n/a	n/a	n/a	n/a	n/a	n/a	n/a	n/a	n/a
432849	PROB	n/a	LTP087	ltpFR	13	n/a	n/a	n/a	n/a	n/a	n/a	16	5	9	2	n/a	n/a	n/a	n/a	n/a
434907	PROB	n/a	LTP087	ltpFR	13	n/a	n/a	n/a	n/a	n/a	n/a	16	6	9	1	n/a	n/a	n/a	n/a	n/a
436475	PROB	n/a	LTP087	ltpFR	13	n/a	n/a	n/a	n/a	n/a	n/a	14	8	3	3	n/a	n/a	n/a	n/a	n/a
439924	STOP	n/a	LTP087	ltpFR	13	n/a	n/a	n/a	n/a	n/a	n/a	n/a	n/a	n/a	n/a	n/a	n/a	n/a	n/a	n/a
441832	REC_START	n/a	LTP087	ltpFR	13	2	n/a	n/a	n/a	n/a	n/a	n/a	0	0	0	n/a	n/a	n/a	n/a	n/a
443393	REC_WORD	wordpools/wasnorm_wordpool.txt	LTP087	ltpFR	13	2	1	GROCERIES	663	n/a	0	n/a	0	0	0	n/a	n/a	n/a	n/a	n/a
444810	REC_WORD	wordpools/wasnorm_wordpool.txt	LTP087	ltpFR	13	2	1	FEAST	556	n/a	0	n/a	0	0	0	n/a	n/a	n/a	n/a	n/a
446506	REC_WORD	wordpools/wasnorm_wordpool.txt	LTP087	ltpFR	13	2	1	ANIMAL	23	n/a	1	n/a	0	0	0	n/a	n/a	n/a	n/a	n/a
470132	REC_WORD	wordpools/wasnorm_wordpool.txt	LTP087	ltpFR	13	2	1	PLANT	1083	n/a	1	n/a	0	0	0	n/a	n/a	n/a	n/a	n/a
518868	START	n/a	LTP087	ltpFR	13	n/a	n/a	n/a	n/a	n/a	n/a	n/a	n/a	n/a	n/a	n/a	n/a	n/a	n/a	n/a
520369	PROB	n/a	LTP087	ltpFR	13	n/a	n/a	n/a	n/a	n/a	n/a	13	6	6	1	n/a	n/a	n/a	n/a	n/a
521959	PROB	n/a	LTP087	ltpFR	13	n/a	n/a	n/a	n/a	n/a	n/a	15	4	5	6	n/a	n/a	n/a	n/a	n/a
526868	STOP	n/a	LTP087	ltpFR	13	n/a	n/a	n/a	n/a	n/a	n/a	n/a	n/a	n/a	n/a	n/a	n/a	n/a	n/a	n/a
527825	WORD	wordpools/wasnorm_wordpool.txt	LTP087	ltpFR	13	3	1	CUFF	423	n/a	0	n/a	0	0	0	1	0.412841796875	0.57763671875	upper	../fonts/amplitud.ttf
530834	START	n/a	LTP087	ltpFR	13	n/a	n/a	n/a	n/a	n/a	n/a	n/a	n/a	n/a	n/a	n/a	n/a	n/a	n/a	n/a
531858	PROB	n/a	LTP087	ltpFR	13	n/a	n/a	n/a	n/a	n/a	n/a	11	4	2	5	n/a	n/a	n/a	n/a	n/a
533659	PROB	n/a	LTP087	ltpFR	13	n/a	n/a	n/a	n/a	n/a	n/a	16	6	7	3	n/a	n/a	n/a	n/a	n/a
535108	PROB	n/a	LTP087	ltpFR	13	n/a	n/a	n/a	n/a	n/a	n/a	18	8	5	5	n/a	n/a	n/a	n/a	n/a
536225	PROB	n/a	LTP087	ltpFR	13	n/a	n/a	n/a	n/a	n/a	n/a	14	6	6	2	n/a	n/a	n/a	n/a	n/a
537771	STOP	n/a	LTP087	ltpFR	13	n/a	n/a	n/a	n/a	n/a	n/a	n/a	n/a	n/a	n/a	n/a	n/a	n/a	n/a	n/a
539692	WORD	wordpools/wasnorm_wordpool.txt	LTP087	ltpFR	13	3	1	SKULL	1320	n/a	1	n/a	0	0	0	1	0.412841796875	0.57763671875	upper	../fonts/amplitud.ttf
542701	START	n/a	LTP087	ltpFR	13	n/a	n/a	n/a	n/a	n/a	n/a	n/a	n/a	n/a	n/a	n/a	n/a	n/a	n/a	n/a
543733	PROB	n/a	LTP087	ltpFR	13	n/a	n/a	n/a	n/a	n/a	n/a	13	7	5	1	n/a	n/a	n/a	n/a	n/a
544966	PROB	n/a	LTP087	ltpFR	13	n/a	n/a	n/a	n/a	n/a	n/a	13	2	5	6	n/a	n/a	n/a	n/a	n/a
547342	PROB	n/a	LTP087	ltpFR	13	n/a	n/a	n/a	n/a	n/a	n/a	15	1	8	6	n/a	n/a	n/a	n/a	n/a
549291	STOP	n/a	LTP087	ltpFR	13	n/a	n/a	n/a	n/a	n/a	n/a	n/a	n/a	n/a	n/a	n/a	n/a	n/a	n/a	n/a
551616	WORD	wordpools/wasnorm_wordpool.txt	LTP087	ltpFR	13	3	1	CUPBOARD	425	n/a	0	n/a	0	0	0	1	0.412841796875	0.57763671875	upper	../fonts/amplitud.ttf
554617	START	n/a	LTP087	ltpFR	13	n/a	n/a	n/a	n/a	n/a	n/a	n/a	n/a	n/a	n/a	n/a	n/a	n/a	n/a	n/a
555616	PROB	n/a	LTP087	ltpFR	13	n/a	n/a	n/a	n/a	n/a	n/a	20	8	6	6	n/a	n/a	n/a	n/a	n/a
557273	PROB	n/a	LTP087	ltpFR	13	n/a	n/a	n/a	n/a	n/a	n/a	18	7	5	5	n/a	n/a	n/a	n/a	n/a
558507	PROB	n/a	LTP087	ltpFR	13	n/a	n/a	n/a	n/a	n/a	n/a	13	6	2	5	n/a	n/a	n/a	n/a	n/a
561006	PROB	n/a	LTP087	ltpFR	13	n/a	n/a	n/a	n/a	n/a	n/a	16	3	9	4	n/a	n/a	n/a	n/a	n/a
562596	STOP	n/a	LTP087	ltpFR	13	n/a	n/a	n/a	n/a	n/a	n/a	n/a	n/a	n/a	n/a	n/a	n/a	n/a	n/a	n/a
563814	WORD	wordpools/wasnorm_wordpool.txt	LTP087	ltpFR	13	3	1	CHEST	295	n/a	0	n/a	0	0	0	1	0.412841796875	0.57763671875	upper	../fonts/amplitud.ttf
566815	START	n/a	LTP087	ltpFR	13	n/a	n/a	n/a	n/a	n/a	n/a	n/a	n/a	n/a	n/a	n/a	n/a	n/a	n/a	n/a
567997	PROB	n/a	LTP087	ltpFR	13	n/a	n/a	n/a	n/a	n/a	n/a	19	8	5	6	n/a	n/a	n/a	n/a	n/a
570231	PROB	n/a	LTP087	ltpFR	13	n/a	n/a	n/a	n/a	n/a	n/a	18	7	7	4	n/a	n/a	n/a	n/a	n/a
571423	PROB	n/a	LTP087	ltpFR	13	n/a	n/a	n/a	n/a	n/a	n/a	17	6	9	2	n/a	n/a	n/a	n/a	n/a
573716	STOP	n/a	LTP087	ltpFR	13	n/a	n/a	n/a	n/a	n/a	n/a	n/a	n/a	n/a	n/a	n/a	n/a	n/a	n/a	n/a
575847	WORD	wordpools/wasnorm_wordpool.txt	LTP087	ltpFR	13	3	1	EDITOR	516	n/a	1	n/a	0	0	0	1	0.412841796875	0.57763671875	upper	../fonts/amplitud.ttf
578855	START	n/a	LTP087	ltpFR	13	n/a	n/a	n/a	n/a	n/a	n/a	n/a	n/a	n/a	n/a	n/a	n/a	n/a	n/a	n/a
579947	PROB	n/a	LTP087	ltpFR	13	n/a	n/a	n/a	n/a	n/a	n/a	14	7	4	3	n/a	n/a	n/a	n/a	n/a
581606	PROB	n/a	LTP087	ltpFR	13	n/a	n/a	n/a	n/a	n/a	n/a	21	4	9	8	n/a	n/a	n/a	n/a	n/a
583838	PROB	n/a	LTP087	ltpFR	13	n/a	n/a	n/a	n/a	n/a	n/a	12	2	9	1	n/a	n/a	n/a	n/a	n/a
585444	STOP	n/a	LTP087	ltpFR	13	n/a	n/a	n/a	n/a	n/a	n/a	n/a	n/a	n/a	n/a	n/a	n/a	n/a	n/a	n/a
587771	WORD	wordpools/wasnorm_wordpool.txt	LTP087	ltpFR	13	3	0	MAGAZINE	853	n/a	1	n/a	0	0	0	0	0.5869140625	0.422607421875	lower	../fonts/zerothre.ttf
590780	START	n/a	LTP087	ltpFR	13	n/a	n/a	n/a	n/a	n/a	n/a	n/a	n/a	n/a	n/a	n/a	n/a	n/a	n/a	n/a
591804	PROB	n/a	LTP087	ltpFR	13	n/a	n/a	n/a	n/a	n/a	n/a	18	5	6	7	n/a	n/a	n/a	n/a	n/a
593488	PROB	n/a	LTP087	ltpFR	13	n/a	n/a	n/a	n/a	n/a	n/a	16	3	8	5	n/a	n/a	n/a	n/a	n/a
595187	PROB	n/a	LTP087	ltpFR	13	n/a	n/a	n/a	n/a	n/a	n/a	19	8	8	3	n/a	n/a	n/a	n/a	n/a
598779	STOP	n/a	LTP087	ltpFR	13	n/a	n/a	n/a	n/a	n/a	n/a	n/a	n/a	n/a	n/a	n/a	n/a	n/a	n/a	n/a
599795	WORD	wordpools/wasnorm_wordpool.txt	LTP087	ltpFR	13	3	0	ROCK	1201	n/a	0	n/a	0	0	0	0	0.5869140625	0.422607421875	lower	../fonts/zerothre.ttf
602804	START	n/a	LTP087	ltpFR	13	n/a	n/a	n/a	n/a	n/a	n/a	n/a	n/a	n/a	n/a	n/a	n/a	n/a	n/a	n/a
603646	PROB	n/a	LTP087	ltpFR	13	n/a	n/a	n/a	n/a	n/a	n/a	17	6	2	9	n/a	n/a	n/a	n/a	n/a
606161	PROB	n/a	LTP087	ltpFR	13	n/a	n/a	n/a	n/a	n/a	n/a	14	8	2	4	n/a	n/a	n/a	n/a	n/a
607978	PROB	n/a	LTP087	ltpFR	13	n/a	n/a	n/a	n/a	n/a	n/a	17	4	8	5	n/a	n/a	n/a	n/a	n/a
609899	STOP	n/a	LTP087	ltpFR	13	n/a	n/a	n/a	n/a	n/a	n/a	n/a	n/a	n/a	n/a	n/a	n/a	n/a	n/a	n/a
611969	WORD	wordpools/wasnorm_wordpool.txt	LTP087	ltpFR	13	3	1	SHERIFF	1284	n/a	0	n/a	0	0	0	1	0.412841796875	0.57763671875	upper	../fonts/amplitud.ttf
614978	START	n/a	LTP087	ltpFR	13	n/a	n/a	n/a	n/a	n/a	n/a	n/a	n/a	n/a	n/a	n/a	n/a	n/a	n/a	n/a
615944	PROB	n/a	LTP087	ltpFR	13	n/a	n/a	n/a	n/a	n/a	n/a	12	6	5	1	n/a	n/a	n/a	n/a	n/a
618420	PROB	n/a	LTP087	ltpFR	13	n/a	n/a	n/a	n/a	n/a	n/a	18	8	8	2	n/a	n/a	n/a	n/a	n/a
620027	PROB	n/a	LTP087	ltpFR	13	n/a	n/a	n/a	n/a	n/a	n/a	13	9	1	3	n/a	n/a	n/a	n/a	n/a
621540	STOP	n/a	LTP087	ltpFR	13	n/a	n/a	n/a	n/a	n/a	n/a	n/a	n/a	n/a	n/a	n/a	n/a	n/a	n/a	n/a
624076	WORD	wordpools/wasnorm_wordpool.txt	LTP087	ltpFR	13	3	1	SHIRT	1287	n/a	0	n/a	0	0	0	1	0.412841796875	0.57763671875	upper	../fonts/amplitud.ttf
627085	START	n/a	LTP087	ltpFR	13	n/a	n/a	n/a	n/a	n/a	n/a	n/a	n/a	n/a	n/a	n/a	n/a	n/a	n/a	n/a
628060	PROB	n/a	LTP087	ltpFR	13	n/a	n/a	n/a	n/a	n/a	n/a	9	2	3	4	n/a	n/a	n/a	n/a	n/a
630560	PROB	n/a	LTP087	ltpFR	13	n/a	n/a	n/a	n/a	n/a	n/a	15	9	1	5	n/a	n/a	n/a	n/a	n/a
631793	PROB	n/a	LTP087	ltpFR	13	n/a	n/a	n/a	n/a	n/a	n/a	13	4	1	8	n/a	n/a	n/a	n/a	n/a
633747	STOP	n/a	LTP087	ltpFR	13	n/a	n/a	n/a	n/a	n/a	n/a	n/a	n/a	n/a	n/a	n/a	n/a	n/a	n/a	n/a
636301	WORD	wordpools/wasnorm_wordpool.txt	LTP087	ltpFR	13	3	1	MARROW	872	n/a	0	n/a	0	0	0	1	0.412841796875	0.57763671875	upper	../fonts/amplitud.ttf
639309	START	n/a	LTP087	ltpFR	13	n/a	n/a	n/a	n/a	n/a	n/a	n/a	n/a	n/a	n/a	n/a	n/a	n/a	n/a	n/a
640393	PROB	n/a	LTP087	ltpFR	13	n/a	n/a	n/a	n/a	n/a	n/a	8	1	6	1	n/a	n/a	n/a	n/a	n/a
641734	PROB	n/a	LTP087	ltpFR	13	n/a	n/a	n/a	n/a	n/a	n/a	19	1	9	9	n/a	n/a	n/a	n/a	n/a
643443	PROB	n/a	LTP087	ltpFR	13	n/a	n/a	n/a	n/a	n/a	n/a	15	4	9	2	n/a	n/a	n/a	n/a	n/a
645125	PROB	n/a	LTP087	ltpFR	13	n/a	n/a	n/a	n/a	n/a	n/a	23	9	9	5	n/a	n/a	n/a	n/a	n/a
647155	STOP	n/a	LTP087	ltpFR	13	n/a	n/a	n/a	n/a	n/a	n/a	n/a	n/a	n/a	n/a	n/a	n/a	n/a	n/a	n/a
648401	WORD	wordpools/wasnorm_wordpool.txt	LTP087	ltpFR	13	3	0	PRIMATE	1123	n/a	1	n/a	0	0	0	0	0.5869140625	0.422607421875	lower	../fonts/zerothre.ttf
651409	START	n/a	LTP087	ltpFR	13	n/a	n/a	n/a	n/a	n/a	n/a	n/a	n/a	n/a	n/a	n/a	n/a	n/a	n/a	n/a
652249	PROB	n/a	LTP087	ltpFR	13	n/a	n/a	n/a	n/a	n/a	n/a	13	4	6	3	n/a	n/a	n/a	n/a	n/a
654216	PROB	n/a	LTP087	ltpFR	13	n/a	n/a	n/a	n/a	n/a	n/a	16	5	2	9	n/a	n/a	n/a	n/a	n/a
655982	PROB	n/a	LTP087	ltpFR	13	n/a	n/a	n/a	n/a	n/a	n/a	16	2	5	9	n/a	n/a	n/a	n/a	n/a
659408	STOP	n/a	LTP087	ltpFR	13	n/a	n/a	n/a	n/a	n/a	n/a	n/a	n/a	n/a	n/a	n/a	n/a	n/a	n/a	n/a
660249	WORD	wordpools/wasnorm_wordpool.txt	LTP087	ltpFR	13	3	0	CARTON	251	n/a	1	n/a	0	0	0	0	0.5869140625	0.422607421875	lower	../fonts/zerothre.ttf
663257	START	n/a	LTP087	ltpFR	13	n/a	n/a	n/a	n/a	n/a	n/a	n/a	n/a	n/a	n/a	n/a	n/a	n/a	n/a	n/a
664341	PROB	n/a	LTP087	ltpFR	13	n/a	n/a	n/a	n/a	n/a	n/a	7	2	3	2	n/a	n/a	n/a	n/a	n/a
666023	PROB	n/a	LTP087	ltpFR	13	n/a	n/a	n/a	n/a	n/a	n/a	11	2	3	6	n/a	n/a	n/a	n/a	n/a
667973	PROB	n/a	LTP087	ltpFR	13	n/a	n/a	n/a	n/a	n/a	n/a	18	7	5	6	n/a	n/a	n/a	n/a	n/a
669747	STOP	n/a	LTP087	ltpFR	13	n/a	n/a	n/a	n/a	n/a	n/a	n/a	n/a	n/a	n/a	n/a	n/a	n/a	n/a	n/a
672240	WORD	wordpools/wasnorm_wordpool.txt	LTP087	ltpFR	13	3	0	INVENTOR	743	n/a	1	n/a	0	0	0	0	0.5869140625	0.422607421875	lower	../fonts/zerothre.ttf
675248	START	n/a	LTP087	ltpFR	13	n/a	n/a	n/a	n/a	n/a	n/a	n/a	n/a	n/a	n/a	n/a	n/a	n/a	n/a	n/a
676164	PROB	n/a	LTP087	ltpFR	13	n/a	n/a	n/a	n/a	n/a	n/a	22	7	9	6	n/a	n/a	n/a	n/a	n/a
678906	PROB	n/a	LTP087	ltpFR	13	n/a	n/a	n/a	n/a	n/a	n/a	13	6	5	2	n/a	n/a	n/a	n/a	n/a
680289	PROB	n/a	LTP087	ltpFR	13	n/a	n/a	n/a	n/a	n/a	n/a	18	4	5	9	n/a	n/a	n/a	n/a	n/a
682307	STOP	n/a	LTP087	ltpFR	13	n/a	n/a	n/a	n/a	n/a	n/a	n/a	n/a	n/a	n/a	n/a	n/a	n/a	n/a	n/a
684255	WORD	wordpools/wasnorm_wordpool.txt	LTP087	ltpFR	13	3	0	BRAIN	165	n/a	1	n/a	0	0	0	0	0.5869140625	0.422607421875	lower	../fonts/zerothre.ttf
687255	START	n/a	LTP087	ltpFR	13	n/a	n/a	n/a	n/a	n/a	n/a	n/a	n/a	n/a	n/a	n/a	n/a	n/a	n/a	n/a
688456	PROB	n/a	LTP087	ltpFR	13	n/a	n/a	n/a	n/a	n/a	n/a	15	5	4	6	n/a	n/a	n/a	n/a	n/a
689830	PROB	n/a	LTP087	ltpFR	13	n/a	n/a	n/a	n/a	n/a	n/a	16	7	7	2	n/a	n/a	n/a	n/a	n/a
691863	PROB	n/a	LTP087	ltpFR	13	n/a	n/a	n/a	n/a	n/a	n/a	12	5	3	4	n/a	n/a	n/a	n/a	n/a
693597	PROB	n/a	LTP087	ltpFR	13	n/a	n/a	n/a	n/a	n/a	n/a	9	4	1	4	n/a	n/a	n/a	n/a	n/a
694955	STOP	n/a	LTP087	ltpFR	13	n/a	n/a	n/a	n/a	n/a	n/a	n/a	n/a	n/a	n/a	n/a	n/a	n/a	n/a	n/a
696405	WORD	wordpools/wasnorm_wordpool.txt	LTP087	ltpFR	13	3	0	POTATO	1115	n/a	0	n/a	0	0	0	0	0.5869140625	0.422607421875	lower	../fonts/zerothre.ttf
699406	START	n/a	LTP087	ltpFR	13	n/a	n/a	n/a	n/a	n/a	n/a	n/a	n/a	n/a	n/a	n/a	n/a	n/a	n/a	n/a
700221	PROB	n/a	LTP087	ltpFR	13	n/a	n/a	n/a	n/a	n/a	n/a	16	3	7	6	n/a	n/a	n/a	n/a	n/a
701522	PROB	n/a	LTP087	ltpFR	13	n/a	n/a	n/a	n/a	n/a	n/a	19	9	1	9	n/a	n/a	n/a	n/a	n/a
703513	PROB	n/a	LTP087	ltpFR	13	n/a	n/a	n/a	n/a	n/a	n/a	12	4	1	7	n/a	n/a	n/a	n/a	n/a
705837	PROB	n/a	LTP087	ltpFR	13	n/a	n/a	n/a	n/a	n/a	n/a	15	1	6	8	n/a	n/a	n/a	n/a	n/a
707147	STOP	n/a	LTP087	ltpFR	13	n/a	n/a	n/a	n/a	n/a	n/a	n/a	n/a	n/a	n/a	n/a	n/a	n/a	n/a	n/a
708388	WORD	wordpools/wasnorm_wordpool.txt	LTP087	ltpFR	13	3	0	CRAB	397	n/a	0	n/a	0	0	0	0	0.5869140625	0.422607421875	lower	../fonts/zerothre.ttf
711396	START	n/a	LTP087	ltpFR	13	n/a	n/a	n/a	n/a	n/a	n/a	n/a	n/a	n/a	n/a	n/a	n/a	n/a	n/a	n/a
712220	PROB	n/a	LTP087	ltpFR	13	n/a	n/a	n/a	n/a	n/a	n/a	11	4	2	5	n/a	n/a	n/a	n/a	n/a
714203	PROB	n/a	LTP087	ltpFR	13	n/a	n/a	n/a	n/a	n/a	n/a	13	6	3	4	n/a	n/a	n/a	n/a	n/a
716945	PROB	n/a	LTP087	ltpFR	13	n/a	n/a	n/a	n/a	n/a	n/a	11	9	1	1	n/a	n/a	n/a	n/a	n/a
718524	STOP	n/a	LTP087	ltpFR	13	n/a	n/a	n/a	n/a	n/a	n/a	n/a	n/a	n/a	n/a	n/a	n/a	n/a	n/a	n/a
721186	REC_START	n/a	LTP087	ltpFR	13	3	n/a	n/a	n/a	n/a	n/a	n/a	0	0	0	n/a	n/a	n/a	n/a	n/a
725232	REC_WORD_VV	wordpools/wasnorm_wordpool.txt	LTP087	ltpFR	13	3	n/a	<>	-1	n/a	n/a	n/a	0	0	0	n/a	n/a	n/a	n/a	n/a
726105	REC_WORD	wordpools/wasnorm_wordpool.txt	LTP087	ltpFR	13	3	1	CUFF	423	n/a	0	n/a	0	0	0	n/a	n/a	n/a	n/a	n/a
727616	REC_WORD	wordpools/wasnorm_wordpool.txt	LTP087	ltpFR	13	3	1	SHERIFF	1284	n/a	0	n/a	0	0	0	n/a	n/a	n/a	n/a	n/a
762357	REC_WORD	wordpools/wasnorm_wordpool.txt	LTP087	ltpFR	13	3	0	BRAIN	165	n/a	1	n/a	0	0	0	n/a	n/a	n/a	n/a	n/a
799414	WORD	wordpools/wasnorm_wordpool.txt	LTP087	ltpFR	13	4	1	PAINTING	1005	n/a	2	n/a	0	0	0	1	0.412841796875	0.57763671875	upper	../fonts/amplitud.ttf
800838	KEY_MSG	n/a	LTP087	ltpFR	13	4	n/a	n/a	n/a	n/a	n/a	n/a	0	0	0	n/a	n/a	n/a	n/a	n/a
803347	WORD	wordpools/wasnorm_wordpool.txt	LTP087	ltpFR	13	4	1	OLIVE	975	n/a	0	n/a	0	0	0	1	0.412841796875	0.57763671875	upper	../fonts/amplitud.ttf
807171	WORD	wordpools/wasnorm_wordpool.txt	LTP087	ltpFR	13	4	0	FUNGUS	614	n/a	1	n/a	0	0	0	0	0.5869140625	0.422607421875	lower	../fonts/zerothre.ttf
811079	WORD	wordpools/wasnorm_wordpool.txt	LTP087	ltpFR	13	4	0	JUVENILE	767	n/a	0	n/a	0	0	0	0	0.5869140625	0.422607421875	lower	../fonts/zerothre.ttf
815054	WORD	wordpools/wasnorm_wordpool.txt	LTP087	ltpFR	13	4	1	LIVER	833	n/a	0	n/a	0	0	0	1	0.412841796875	0.57763671875	upper	../fonts/amplitud.ttf
819187	WORD	wordpools/wasnorm_wordpool.txt	LTP087	ltpFR	13	4	1	LAGOON	795	n/a	0	n/a	0	0	0	1	0.412841796875	0.57763671875	upper	../fonts/amplitud.ttf
823261	WORD	wordpools/wasnorm_wordpool.txt	LTP087	ltpFR	13	4	1	BLACKBOARD	133	n/a	0	n/a	0	0	0	1	0.412841796875	0.57763671875	upper	../fonts/amplitud.ttf
827203	WORD	wordpools/wasnorm_wordpool.txt	LTP087	ltpFR	13	4	0	WHEEL	1603	n/a	0	n/a	0	0	0	0	0.5869140625	0.422607421875	lower	../fonts/zerothre.ttf
831203	WORD	wordpools/wasnorm_wordpool.txt	LTP087	ltpFR	13	4	0	TAXI	1438	n/a	1	n/a	0	0	0	0	0.5869140625	0.422607421875	lower	../fonts/zerothre.ttf
835387	WORD	wordpools/wasnorm_wordpool.txt	LTP087	ltpFR	13	4	0	SCAPEGOAT	1244	n/a	0	n/a	0	0	0	0	0.5869140625	0.422607421875	lower	../fonts/zerothre.ttf
839420	WORD	wordpools/wasnorm_wordpool.txt	LTP087	ltpFR	13	4	0	PERSON	1052	n/a	0	n/a	0	0	0	0	0.5869140625	0.422607421875	lower	../fonts/zerothre.ttf
843619	WORD	wordpools/wasnorm_wordpool.txt	LTP087	ltpFR	13	4	0	TRAITOR	1495	n/a	0	n/a	0	0	0	0	0.5869140625	0.422607421875	lower	../fonts/zerothre.ttf
847644	WORD	wordpools/wasnorm_wordpool.txt	LTP087	ltpFR	13	4	0	COOKIE	374	n/a	0	n/a	0	0	0	0	0.5869140625	0.422607421875	lower	../fonts/zerothre.ttf
851552	WORD	wordpools/wasnorm_wordpool.txt	LTP087	ltpFR	13	4	1	NECKLACE	940	n/a	0	n/a	0	0	0	1	0.412841796875	0.57763671875	upper	../fonts/amplitud.ttf
855518	WORD	wordpools/wasnorm_wordpool.txt	LTP087	ltpFR	13	4	1	KIDNEY	776	n/a	1	n/a	0	0	0	1	0.412841796875	0.57763671875	upper	../fonts/amplitud.ttf
859725	WORD	wordpools/wasnorm_wordpool.txt	LTP087	ltpFR	13	4	1	BAKER	71	n/a	1	n/a	0	0	0	1	0.412841796875	0.57763671875	upper	../fonts/amplitud.ttf
862742	START	n/a	LTP087	ltpFR	13	n/a	n/a	n/a	n/a	n/a	n/a	n/a	n/a	n/a	n/a	n/a	n/a	n/a	n/a	n/a
863933	PROB	n/a	LTP087	ltpFR	13	n/a	n/a	n/a	n/a	n/a	n/a	14	8	1	5	n/a	n/a	n/a	n/a	n/a
867916	PROB	n/a	LTP087	ltpFR	13	n/a	n/a	n/a	n/a	n/a	n/a	13	3	7	3	n/a	n/a	n/a	n/a	n/a
869075	PROB	n/a	LTP087	ltpFR	13	n/a	n/a	n/a	n/a	n/a	n/a	14	4	5	5	n/a	n/a	n/a	n/a	n/a
870067	STOP	n/a	LTP087	ltpFR	13	n/a	n/a	n/a	n/a	n/a	n/a	n/a	n/a	n/a	n/a	n/a	n/a	n/a	n/a	n/a
872543	REC_START	n/a	LTP087	ltpFR	13	4	n/a	n/a	n/a	n/a	n/a	n/a	0	0	0	n/a	n/a	n/a	n/a	n/a
876723	REC_WORD_VV	wordpools/wasnorm_wordpool.txt	LTP087	ltpFR	13	4	n/a	<>	-1	n/a	n/a	n/a	0	0	0	n/a	n/a	n/a	n/a	n/a
887494	REC_WORD	wordpools/wasnorm_wordpool.txt	LTP087	ltpFR	13	4	1	OLIVE	975	n/a	0	n/a	0	0	0	n/a	n/a	n/a	n/a	n/a
899107	REC_WORD	wordpools/wasnorm_wordpool.txt	LTP087	ltpFR	13	4	0	POTATO	1115	n/a	0	n/a	0	0	0	n/a	n/a	n/a	n/a	n/a
923392	REC_WORD	wordpools/wasnorm_wordpool.txt	LTP087	ltpFR	13	4	1	LAGOON	795	n/a	0	n/a	0	0	0	n/a	n/a	n/a	n/a	n/a
950653	WORD	wordpools/wasnorm_wordpool.txt	LTP087	ltpFR	13	5	1	VILLAIN	1567	n/a	0	n/a	0	0	0	1	0.412841796875	0.57763671875	upper	../fonts/amplitud.ttf
954636	WORD	wordpools/wasnorm_wordpool.txt	LTP087	ltpFR	13	5	1	SPIT	1354	n/a	0	n/a	0	0	0	1	0.412841796875	0.57763671875	upper	../fonts/amplitud.ttf
958669	WORD	wordpools/wasnorm_wordpool.txt	LTP087	ltpFR	13	5	0	GROUND	666	n/a	0	n/a	0	0	0	0	0.5869140625	0.422607421875	lower	../fonts/zerothre.ttf
962485	WORD	wordpools/wasnorm_wordpool.txt	LTP087	ltpFR	13	5	0	DIRT	472	n/a	0	n/a	0	0	0	0	0.5869140625	0.422607421875	lower	../fonts/zerothre.ttf
966485	WORD	wordpools/wasnorm_wordpool.txt	LTP087	ltpFR	13	5	0	PLUM	1090	n/a	1	n/a	0	0	0	0	0.5869140625	0.422607421875	lower	../fonts/zerothre.ttf
970601	WORD	wordpools/wasnorm_wordpool.txt	LTP087	ltpFR	13	5	0	TOWEL	1489	n/a	1	n/a	0	0	0	0	0.5869140625	0.422607421875	lower	../fonts/zerothre.ttf
974618	WORD	wordpools/wasnorm_wordpool.txt	LTP087	ltpFR	13	5	1	ARTERY	41	n/a	0	n/a	0	0	0	1	0.412841796875	0.57763671875	upper	../fonts/amplitud.ttf
978576	WORD	wordpools/wasnorm_wordpool.txt	LTP087	ltpFR	13	5	1	THICKET	1455	n/a	0	n/a	0	0	0	1	0.412841796875	0.57763671875	upper	../fonts/amplitud.ttf
982475	WORD	wordpools/wasnorm_wordpool.txt	LTP087	ltpFR	13	5	1	DANDRUFF	439	n/a	1	n/a	0	0	0	1	0.412841796875	0.57763671875	upper	../fonts/amplitud.ttf
986483	WORD	wordpools/wasnorm_wordpool.txt	LTP087	ltpFR	13	5	1	HEART	697	n/a	1	n/a	0	0	0	1	0.412841796875	0.57763671875	upper	../fonts/amplitud.ttf
990583	WORD	wordpools/wasnorm_wordpool.txt	LTP087	ltpFR	13	5	1	MOSS	918	n/a	0	n/a	0	0	0	1	0.412841796875	0.57763671875	upper	../fonts/amplitud.ttf
994508	WORD	wordpools/wasnorm_wordpool.txt	LTP087	ltpFR	13	5	1	CUSTARD	429	n/a	0	n/a	0	0	0	1	0.412841796875	0.57763671875	upper	../fonts/amplitud.ttf
998574	WORD	wordpools/wasnorm_wordpool.txt	LTP087	ltpFR	13	5	0	NOTEBOOK	959	n/a	0	n/a	0	0	0	0	0.5869140625	0.422607421875	lower	../fonts/zerothre.ttf
1002724	WORD	wordpools/wasnorm_wordpool.txt	LTP087	ltpFR	13	5	0	TUBE	1516	n/a	0	n/a	0	0	0	0	0.5869140625	0.422607421875	lower	../fonts/zerothre.ttf
1006764	WORD	wordpools/wasnorm_wordpool.txt	LTP087	ltpFR	13	5	0	MOOSE	915	n/a	0	n/a	0	0	0	0	0.5869140625	0.422607421875	lower	../fonts/zerothre.ttf
1010872	WORD	wordpools/wasnorm_wordpool.txt	LTP087	ltpFR	13	5	0	BISON	131	n/a	0	n/a	0	0	0	0	0.5869140625	0.422607421875	lower	../fonts/zerothre.ttf
1016640	REC_START	n/a	LTP087	ltpFR	13	5	n/a	n/a	n/a	n/a	n/a	n/a	0	0	0	n/a	n/a	n/a	n/a	n/a
1017822	REC_WORD	wordpools/wasnorm_wordpool.txt	LTP087	ltpFR	13	5	0	BISON	131	n/a	0	n/a	0	0	0	n/a	n/a	n/a	n/a	n/a
1019758	REC_WORD	wordpools/wasnorm_wordpool.txt	LTP087	ltpFR	13	5	0	TUBE	1516	n/a	0	n/a	0	0	0	n/a	n/a	n/a	n/a	n/a
1026423	REC_WORD	wordpools/wasnorm_wordpool.txt	LTP087	ltpFR	13	5	0	PERSON	1052	n/a	0	n/a	0	0	0	n/a	n/a	n/a	n/a	n/a
1036879	REC_WORD	wordpools/wasnorm_wordpool.txt	LTP087	ltpFR	13	5	0	DIRT	472	n/a	0	n/a	0	0	0	n/a	n/a	n/a	n/a	n/a
1037787	REC_WORD	wordpools/wasnorm_wordpool.txt	LTP087	ltpFR	13	5	0	GROUND	666	n/a	0	n/a	0	0	0	n/a	n/a	n/a	n/a	n/a
1038760	REC_WORD	wordpools/wasnorm_wordpool.txt	LTP087	ltpFR	13	5	1	SPIT	1354	n/a	0	n/a	0	0	0	n/a	n/a	n/a	n/a	n/a
1053601	REC_WORD	wordpools/wasnorm_wordpool.txt	LTP087	ltpFR	13	5	0	MOOSE	915	n/a	0	n/a	0	0	0	n/a	n/a	n/a	n/a	n/a
1094824	WORD	wordpools/wasnorm_wordpool.txt	LTP087	ltpFR	13	6	0	OX	994	n/a	0	n/a	0	0	0	0	0.5869140625	0.422607421875	lower	../fonts/zerothre.ttf
1098807	WORD	wordpools/wasnorm_wordpool.txt	LTP087	ltpFR	13	6	0	THORN	1459	n/a	0	n/a	0	0	0	0	0.5869140625	0.422607421875	lower	../fonts/zerothre.ttf
1102633	WORD	wordpools/wasnorm_wordpool.txt	LTP087	ltpFR	13	6	0	STEM	1376	n/a	0	n/a	0	0	0	0	0.5869140625	0.422607421875	lower	../fonts/zerothre.ttf
1106558	WORD	wordpools/wasnorm_wordpool.txt	LTP087	ltpFR	13	6	0	STICKER	1382	n/a	0	n/a	0	0	0	0	0.5869140625	0.422607421875	lower	../fonts/zerothre.ttf
1110657	WORD	wordpools/wasnorm_wordpool.txt	LTP087	ltpFR	13	6	0	COCKTAIL	338	n/a	0	n/a	0	0	0	0	0.5869140625	0.422607421875	lower	../fonts/zerothre.ttf
1114499	WORD	wordpools/wasnorm_wordpool.txt	LTP087	ltpFR	13	6	0	ARTICLE	42	n/a	0	n/a	0	0	0	0	0.5869140625	0.422607421875	lower	../fonts/zerothre.ttf
1118507	WORD	wordpools/wasnorm_wordpool.txt	LTP087	ltpFR	13	6	0	PECAN	1036	n/a	0	n/a	0	0	0	0	0.5869140625	0.422607421875	lower	../fonts/zerothre.ttf
1122557	WORD	wordpools/wasnorm_wordpool.txt	LTP087	ltpFR	13	6	0	RUM	1217	n/a	0	n/a	0	0	0	0	0.5869140625	0.422607421875	lower	../fonts/zerothre.ttf
1126690	WORD	wordpools/wasnorm_wordpool.txt	LTP087	ltpFR	13	6	0	KEEPER	769	n/a	1	n/a	0	0	0	0	0.5869140625	0.422607421875	lower	../fonts/zerothre.ttf
1130788	WORD	wordpools/wasnorm_wordpool.txt	LTP087	ltpFR	13	6	0	CHEF	290	n/a	1	n/a	0	0	0	0	0.5869140625	0.422607421875	lower	../fonts/zerothre.ttf
1134771	WORD	wordpools/wasnorm_wordpool.txt	LTP087	ltpFR	13	6	0	STEW	1380	n/a	0	n/a	0	0	0	0	0.5869140625	0.422607421875	lower	../fonts/zerothre.ttf
1138879	WORD	wordpools/wasnorm_wordpool.txt	LTP087	ltpFR	13	6	0	BOUILLON	154	n/a	0	n/a	0	0	0	0	0.5869140625	0.422607421875	lower	../fonts/zerothre.ttf
1142697	WORD	wordpools/wasnorm_wordpool.txt	LTP087	ltpFR	13	6	0	COSTUME	383	n/a	0	n/a	0	0	0	0	0.5869140625	0.422607421875	lower	../fonts/zerothre.ttf
1146745	WORD	wordpools/wasnorm_wordpool.txt	LTP087	ltpFR	13	6	0	MONSTER	912	n/a	1	n/a	0	0	0	0	0.5869140625	0.422607421875	lower	../fonts/zerothre.ttf
1150737	WORD	wordpools/wasnorm_wordpool.txt	LTP087	ltpFR	13	6	0	STOVE	1388	n/a	0	n/a	0	0	0	0	0.5869140625	0.422607421875	lower	../fonts/zerothre.ttf
1154778	WORD	wordpools/wasnorm_wordpool.txt	LTP087	ltpFR	13	6	0	SWING	1421	n/a	0	n/a	0	0	0	0	0.5869140625	0.422607421875	lower	../fonts/zerothre.ttf
1157786	START	n/a	LTP087	ltpFR	13	n/a	n/a	n/a	n/a	n/a	n/a	n/a	n/a	n/a	n/a	n/a	n/a	n/a	n/a	n/a
1158811	PROB	n/a	LTP087	ltpFR	13	n/a	n/a	n/a	n/a	n/a	n/a	16	7	5	4	n/a	n/a	n/a	n/a	n/a
1160404	PROB	n/a	LTP087	ltpFR	13	n/a	n/a	n/a	n/a	n/a	n/a	6	1	4	1	n/a	n/a	n/a	n/a	n/a
1161612	PROB	n/a	LTP087	ltpFR	13	n/a	n/a	n/a	n/a	n/a	n/a	11	6	4	1	n/a	n/a	n/a	n/a	n/a
1162828	PROB	n/a	LTP087	ltpFR	13	n/a	n/a	n/a	n/a	n/a	n/a	15	1	7	7	n/a	n/a	n/a	n/a	n/a
1163902	PROB	n/a	LTP087	ltpFR	13	n/a	n/a	n/a	n/a	n/a	n/a	15	5	2	8	n/a	n/a	n/a	n/a	n/a
1165437	PROB	n/a	LTP087	ltpFR	13	n/a	n/a	n/a	n/a	n/a	n/a	12	8	3	1	n/a	n/a	n/a	n/a	n/a
1166919	PROB	n/a	LTP087	ltpFR	13	n/a	n/a	n/a	n/a	n/a	n/a	18	3	6	9	n/a	n/a	n/a	n/a	n/a
1168486	PROB	n/a	LTP087	ltpFR	13	n/a	n/a	n/a	n/a	n/a	n/a	14	1	7	6	n/a	n/a	n/a	n/a	n/a
1170077	PROB	n/a	LTP087	ltpFR	13	n/a	n/a	n/a	n/a	n/a	n/a	19	3	8	8	n/a	n/a	n/a	n/a	n/a
1171645	PROB	n/a	LTP087	ltpFR	13	n/a	n/a	n/a	n/a	n/a	n/a	12	5	1	6	n/a	n/a	n/a	n/a	n/a
1173163	STOP	n/a	LTP087	ltpFR	13	n/a	n/a	n/a	n/a	n/a	n/a	n/a	n/a	n/a	n/a	n/a	n/a	n/a	n/a	n/a
1175511	REC_START	n/a	LTP087	ltpFR	13	6	n/a	n/a	n/a	n/a	n/a	n/a	0	0	0	n/a	n/a	n/a	n/a	n/a
1177012	REC_WORD	wordpools/wasnorm_wordpool.txt	LTP087	ltpFR	13	6	0	COSTUME	383	n/a	0	n/a	0	0	0	n/a	n/a	n/a	n/a	n/a
1219037	REC_WORD	wordpools/wasnorm_wordpool.txt	LTP087	ltpFR	13	6	0	CHEF	290	n/a	1	n/a	0	0	0	n/a	n/a	n/a	n/a	n/a
1220982	REC_WORD	wordpools/wasnorm_wordpool.txt	LTP087	ltpFR	13	6	0	STEW	1380	n/a	0	n/a	0	0	0	n/a	n/a	n/a	n/a	n/a
1228106	REC_WORD	wordpools/wasnorm_wordpool.txt	LTP087	ltpFR	13	6	0	BOUILLON	154	n/a	0	n/a	0	0	0	n/a	n/a	n/a	n/a	n/a
1252439	START	n/a	LTP087	ltpFR	13	n/a	n/a	n/a	n/a	n/a	n/a	n/a	n/a	n/a	n/a	n/a	n/a	n/a	n/a	n/a
1253946	PROB	n/a	LTP087	ltpFR	13	n/a	n/a	n/a	n/a	n/a	n/a	14	1	6	7	n/a	n/a	n/a	n/a	n/a
1255979	PROB	n/a	LTP087	ltpFR	13	n/a	n/a	n/a	n/a	n/a	n/a	7	3	3	1	n/a	n/a	n/a	n/a	n/a
1258338	PROB	n/a	LTP087	ltpFR	13	n/a	n/a	n/a	n/a	n/a	n/a	15	9	4	2	n/a	n/a	n/a	n/a	n/a
1259613	PROB	n/a	LTP087	ltpFR	13	n/a	n/a	n/a	n/a	n/a	n/a	15	2	5	8	n/a	n/a	n/a	n/a	n/a
1261320	PROB	n/a	LTP087	ltpFR	13	n/a	n/a	n/a	n/a	n/a	n/a	17	7	2	8	n/a	n/a	n/a	n/a	n/a
1263187	PROB	n/a	LTP087	ltpFR	13	n/a	n/a	n/a	n/a	n/a	n/a	15	5	3	7	n/a	n/a	n/a	n/a	n/a
1265346	PROB	n/a	LTP087	ltpFR	13	n/a	n/a	n/a	n/a	n/a	n/a	22	5	9	8	n/a	n/a	n/a	n/a	n/a
1267939	STOP	n/a	LTP087	ltpFR	13	n/a	n/a	n/a	n/a	n/a	n/a	n/a	n/a	n/a	n/a	n/a	n/a	n/a	n/a	n/a
1269320	WORD	wordpools/wasnorm_wordpool.txt	LTP087	ltpFR	13	7	0	HARE	688	n/a	0	n/a	0	0	0	0	0.5869140625	0.422607421875	lower	../fonts/zerothre.ttf
1272329	START	n/a	LTP087	ltpFR	13	n/a	n/a	n/a	n/a	n/a	n/a	n/a	n/a	n/a	n/a	n/a	n/a	n/a	n/a	n/a
1273203	PROB	n/a	LTP087	ltpFR	13	n/a	n/a	n/a	n/a	n/a	n/a	9	3	3	3	n/a	n/a	n/a	n/a	n/a
1274428	PROB	n/a	LTP087	ltpFR	13	n/a	n/a	n/a	n/a	n/a	n/a	13	8	1	4	n/a	n/a	n/a	n/a	n/a
1276261	PROB	n/a	LTP087	ltpFR	13	n/a	n/a	n/a	n/a	n/a	n/a	18	8	6	4	n/a	n/a	n/a	n/a	n/a
1277860	PROB	n/a	LTP087	ltpFR	13	n/a	n/a	n/a	n/a	n/a	n/a	13	1	5	7	n/a	n/a	n/a	n/a	n/a
1279094	PROB	n/a	LTP087	ltpFR	13	n/a	n/a	n/a	n/a	n/a	n/a	14	3	7	4	n/a	n/a	n/a	n/a	n/a
1280885	PROB	n/a	LTP087	ltpFR	13	n/a	n/a	n/a	n/a	n/a	n/a	19	9	1	9	n/a	n/a	n/a	n/a	n/a
1283293	PROB	n/a	LTP087	ltpFR	13	n/a	n/a	n/a	n/a	n/a	n/a	5	3	1	1	n/a	n/a	n/a	n/a	n/a
1284644	PROB	n/a	LTP087	ltpFR	13	n/a	n/a	n/a	n/a	n/a	n/a	11	3	6	2	n/a	n/a	n/a	n/a	n/a
1286285	PROB	n/a	LTP087	ltpFR	13	n/a	n/a	n/a	n/a	n/a	n/a	16	8	4	4	n/a	n/a	n/a	n/a	n/a
1288203	STOP	n/a	LTP087	ltpFR	13	n/a	n/a	n/a	n/a	n/a	n/a	n/a	n/a	n/a	n/a	n/a	n/a	n/a	n/a	n/a
1289519	WORD	wordpools/wasnorm_wordpool.txt	LTP087	ltpFR	13	7	0	TELEPHONE	1445	n/a	0	n/a	0	0	0	0	0.5869140625	0.422607421875	lower	../fonts/zerothre.ttf
1292528	START	n/a	LTP087	ltpFR	13	n/a	n/a	n/a	n/a	n/a	n/a	n/a	n/a	n/a	n/a	n/a	n/a	n/a	n/a	n/a
1293685	PROB	n/a	LTP087	ltpFR	13	n/a	n/a	n/a	n/a	n/a	n/a	10	2	3	5	n/a	n/a	n/a	n/a	n/a
1296593	PROB	n/a	LTP087	ltpFR	13	n/a	n/a	n/a	n/a	n/a	n/a	14	9	2	3	n/a	n/a	n/a	n/a	n/a
1298710	PROB	n/a	LTP087	ltpFR	13	n/a	n/a	n/a	n/a	n/a	n/a	17	7	5	7	n/a	n/a	n/a	n/a	n/a
1300184	PROB	n/a	LTP087	ltpFR	13	n/a	n/a	n/a	n/a	n/a	n/a	14	8	5	1	n/a	n/a	n/a	n/a	n/a
1302685	PROB	n/a	LTP087	ltpFR	13	n/a	n/a	n/a	n/a	n/a	n/a	17	7	4	6	n/a	n/a	n/a	n/a	n/a
1304418	PROB	n/a	LTP087	ltpFR	13	n/a	n/a	n/a	n/a	n/a	n/a	1	3	8	6	n/a	n/a	n/a	n/a	n/a
1306225	PROB	n/a	LTP087	ltpFR	13	n/a	n/a	n/a	n/a	n/a	n/a	14	1	6	7	n/a	n/a	n/a	n/a	n/a
1308323	STOP	n/a	LTP087	ltpFR	13	n/a	n/a	n/a	n/a	n/a	n/a	n/a	n/a	n/a	n/a	n/a	n/a	n/a	n/a	n/a
1309601	WORD	wordpools/wasnorm_wordpool.txt	LTP087	ltpFR	13	7	0	OPERATOR	979	n/a	1	n/a	0	0	0	0	0.5869140625	0.422607421875	lower	../fonts/zerothre.ttf
1312609	START	n/a	LTP087	ltpFR	13	n/a	n/a	n/a	n/a	n/a	n/a	n/a	n/a	n/a	n/a	n/a	n/a	n/a	n/a	n/a
1313800	PROB	n/a	LTP087	ltpFR	13	n/a	n/a	n/a	n/a	n/a	n/a	11	4	6	1	n/a	n/a	n/a	n/a	n/a
1315709	PROB	n/a	LTP087	ltpFR	13	n/a	n/a	n/a	n/a	n/a	n/a	10	5	4	1	n/a	n/a	n/a	n/a	n/a
1317816	PROB	n/a	LTP087	ltpFR	13	n/a	n/a	n/a	n/a	n/a	n/a	19	5	8	6	n/a	n/a	n/a	n/a	n/a
1319891	PROB	n/a	LTP087	ltpFR	13	n/a	n/a	n/a	n/a	n/a	n/a	12	4	3	5	n/a	n/a	n/a	n/a	n/a
1321641	PROB	n/a	LTP087	ltpFR	13	n/a	n/a	n/a	n/a	n/a	n/a	17	7	3	7	n/a	n/a	n/a	n/a	n/a
1323040	PROB	n/a	LTP087	ltpFR	13	n/a	n/a	n/a	n/a	n/a	n/a	13	6	4	3	n/a	n/a	n/a	n/a	n/a
1325391	PROB	n/a	LTP087	ltpFR	13	n/a	n/a	n/a	n/a	n/a	n/a	16	4	6	6	n/a	n/a	n/a	n/a	n/a
1327676	STOP	n/a	LTP087	ltpFR	13	n/a	n/a	n/a	n/a	n/a	n/a	n/a	n/a	n/a	n/a	n/a	n/a	n/a	n/a	n/a
1329524	WORD	wordpools/wasnorm_wordpool.txt	LTP087	ltpFR	13	7	0	SHOWER	1296	n/a	1	n/a	0	0	0	0	0.5869140625	0.422607421875	lower	../fonts/zerothre.ttf
1332525	START	n/a	LTP087	ltpFR	13	n/a	n/a	n/a	n/a	n/a	n/a	n/a	n/a	n/a	n/a	n/a	n/a	n/a	n/a	n/a
1333449	PROB	n/a	LTP087	ltpFR	13	n/a	n/a	n/a	n/a	n/a	n/a	13	1	4	8	n/a	n/a	n/a	n/a	n/a
1335565	PROB	n/a	LTP087	ltpFR	13	n/a	n/a	n/a	n/a	n/a	n/a	12	7	4	1	n/a	n/a	n/a	n/a	n/a
1336831	PROB	n/a	LTP087	ltpFR	13	n/a	n/a	n/a	n/a	n/a	n/a	15	8	4	3	n/a	n/a	n/a	n/a	n/a
1338457	PROB	n/a	LTP087	ltpFR	13	n/a	n/a	n/a	n/a	n/a	n/a	22	9	8	5	n/a	n/a	n/a	n/a	n/a
1340781	PROB	n/a	LTP087	ltpFR	13	n/a	n/a	n/a	n/a	n/a	n/a	19	9	9	1	n/a	n/a	n/a	n/a	n/a
1342640	PROB	n/a	LTP087	ltpFR	13	n/a	n/a	n/a	n/a	n/a	n/a	13	1	9	3	n/a	n/a	n/a	n/a	n/a
1344181	PROB	n/a	LTP087	ltpFR	13	n/a	n/a	n/a	n/a	n/a	n/a	1	9	3	4	n/a	n/a	n/a	n/a	n/a
1345673	PROB	n/a	LTP087	ltpFR	13	n/a	n/a	n/a	n/a	n/a	n/a	14	4	3	7	n/a	n/a	n/a	n/a	n/a
1347083	STOP	n/a	LTP087	ltpFR	13	n/a	n/a	n/a	n/a	n/a	n/a	n/a	n/a	n/a	n/a	n/a	n/a	n/a	n/a	n/a
1349439	WORD	wordpools/wasnorm_wordpool.txt	LTP087	ltpFR	13	7	1	DUSTPAN	509	n/a	0	n/a	0	0	0	1	0.412841796875	0.57763671875	upper	../fonts/amplitud.ttf
1352440	START	n/a	LTP087	ltpFR	13	n/a	n/a	n/a	n/a	n/a	n/a	n/a	n/a	n/a	n/a	n/a	n/a	n/a	n/a	n/a
1353423	PROB	n/a	LTP087	ltpFR	13	n/a	n/a	n/a	n/a	n/a	n/a	15	5	4	6	n/a	n/a	n/a	n/a	n/a
1355221	PROB	n/a	LTP087	ltpFR	13	n/a	n/a	n/a	n/a	n/a	n/a	20	3	8	9	n/a	n/a	n/a	n/a	n/a
1356838	PROB	n/a	LTP087	ltpFR	13	n/a	n/a	n/a	n/a	n/a	n/a	13	9	1	3	n/a	n/a	n/a	n/a	n/a
1358455	PROB	n/a	LTP087	ltpFR	13	n/a	n/a	n/a	n/a	n/a	n/a	6	2	1	3	n/a	n/a	n/a	n/a	n/a
1360296	PROB	n/a	LTP087	ltpFR	13	n/a	n/a	n/a	n/a	n/a	n/a	14	4	5	5	n/a	n/a	n/a	n/a	n/a
1361472	PROB	n/a	LTP087	ltpFR	13	n/a	n/a	n/a	n/a	n/a	n/a	16	8	4	4	n/a	n/a	n/a	n/a	n/a
1363187	PROB	n/a	LTP087	ltpFR	13	n/a	n/a	n/a	n/a	n/a	n/a	14	7	3	4	n/a	n/a	n/a	n/a	n/a
1364971	PROB	n/a	LTP087	ltpFR	13	n/a	n/a	n/a	n/a	n/a	n/a	19	2	8	9	n/a	n/a	n/a	n/a	n/a
1368440	STOP	n/a	LTP087	ltpFR	13	n/a	n/a	n/a	n/a	n/a	n/a	n/a	n/a	n/a	n/a	n/a	n/a	n/a	n/a	n/a
1369513	WORD	wordpools/wasnorm_wordpool.txt	LTP087	ltpFR	13	7	1	GANGSTER	620	n/a	1	n/a	0	0	0	1	0.412841796875	0.57763671875	upper	../fonts/amplitud.ttf
1372521	START	n/a	LTP087	ltpFR	13	n/a	n/a	n/a	n/a	n/a	n/a	n/a	n/a	n/a	n/a	n/a	n/a	n/a	n/a	n/a
1373629	PROB	n/a	LTP087	ltpFR	13	n/a	n/a	n/a	n/a	n/a	n/a	17	1	9	7	n/a	n/a	n/a	n/a	n/a
1376186	PROB	n/a	LTP087	ltpFR	13	n/a	n/a	n/a	n/a	n/a	n/a	14	6	5	3	n/a	n/a	n/a	n/a	n/a
1378621	PROB	n/a	LTP087	ltpFR	13	n/a	n/a	n/a	n/a	n/a	n/a	19	6	9	4	n/a	n/a	n/a	n/a	n/a
1380479	PROB	n/a	LTP087	ltpFR	13	n/a	n/a	n/a	n/a	n/a	n/a	11	2	7	2	n/a	n/a	n/a	n/a	n/a
1383303	PROB	n/a	LTP087	ltpFR	13	n/a	n/a	n/a	n/a	n/a	n/a	21	9	9	3	n/a	n/a	n/a	n/a	n/a
1385811	PROB	n/a	LTP087	ltpFR	13	n/a	n/a	n/a	n/a	n/a	n/a	19	2	8	9	n/a	n/a	n/a	n/a	n/a
1388139	STOP	n/a	LTP087	ltpFR	13	n/a	n/a	n/a	n/a	n/a	n/a	n/a	n/a	n/a	n/a	n/a	n/a	n/a	n/a	n/a
1389353	WORD	wordpools/wasnorm_wordpool.txt	LTP087	ltpFR	13	7	1	MACARONI	851	n/a	0	n/a	0	0	0	1	0.412841796875	0.57763671875	upper	../fonts/amplitud.ttf
1392362	START	n/a	LTP087	ltpFR	13	n/a	n/a	n/a	n/a	n/a	n/a	n/a	n/a	n/a	n/a	n/a	n/a	n/a	n/a	n/a
1393318	PROB	n/a	LTP087	ltpFR	13	n/a	n/a	n/a	n/a	n/a	n/a	9	1	1	6	n/a	n/a	n/a	n/a	n/a
1395743	PROB	n/a	LTP087	ltpFR	13	n/a	n/a	n/a	n/a	n/a	n/a	19	9	8	2	n/a	n/a	n/a	n/a	n/a
1398494	PROB	n/a	LTP087	ltpFR	13	n/a	n/a	n/a	n/a	n/a	n/a	7	1	3	3	n/a	n/a	n/a	n/a	n/a
1402126	PROB	n/a	LTP087	ltpFR	13	n/a	n/a	n/a	n/a	n/a	n/a	15	7	6	2	n/a	n/a	n/a	n/a	n/a
1403677	PROB	n/a	LTP087	ltpFR	13	n/a	n/a	n/a	n/a	n/a	n/a	16	3	7	6	n/a	n/a	n/a	n/a	n/a
1405427	PROB	n/a	LTP087	ltpFR	13	n/a	n/a	n/a	n/a	n/a	n/a	18	8	8	2	n/a	n/a	n/a	n/a	n/a
1407396	STOP	n/a	LTP087	ltpFR	13	n/a	n/a	n/a	n/a	n/a	n/a	n/a	n/a	n/a	n/a	n/a	n/a	n/a	n/a	n/a
1409176	WORD	wordpools/wasnorm_wordpool.txt	LTP087	ltpFR	13	7	1	BUILDER	190	n/a	0	n/a	0	0	0	1	0.412841796875	0.57763671875	upper	../fonts/amplitud.ttf
1412184	START	n/a	LTP087	ltpFR	13	n/a	n/a	n/a	n/a	n/a	n/a	n/a	n/a	n/a	n/a	n/a	n/a	n/a	n/a	n/a
1413075	PROB	n/a	LTP087	ltpFR	13	n/a	n/a	n/a	n/a	n/a	n/a	16	7	7	2	n/a	n/a	n/a	n/a	n/a
1414609	PROB	n/a	LTP087	ltpFR	13	n/a	n/a	n/a	n/a	n/a	n/a	21	4	8	9	n/a	n/a	n/a	n/a	n/a
1416601	PROB	n/a	LTP087	ltpFR	13	n/a	n/a	n/a	n/a	n/a	n/a	15	3	7	5	n/a	n/a	n/a	n/a	n/a
1417825	PROB	n/a	LTP087	ltpFR	13	n/a	n/a	n/a	n/a	n/a	n/a	15	5	3	7	n/a	n/a	n/a	n/a	n/a
1420958	PROB	n/a	LTP087	ltpFR	13	n/a	n/a	n/a	n/a	n/a	n/a	18	7	2	9	n/a	n/a	n/a	n/a	n/a
1422667	PROB	n/a	LTP087	ltpFR	13	n/a	n/a	n/a	n/a	n/a	n/a	22	9	5	8	n/a	n/a	n/a	n/a	n/a
1426041	PROB	n/a	LTP087	ltpFR	13	n/a	n/a	n/a	n/a	n/a	n/a	18	7	3	8	n/a	n/a	n/a	n/a	n/a
1427340	STOP	n/a	LTP087	ltpFR	13	n/a	n/a	n/a	n/a	n/a	n/a	n/a	n/a	n/a	n/a	n/a	n/a	n/a	n/a	n/a
1429257	WORD	wordpools/wasnorm_wordpool.txt	LTP087	ltpFR	13	7	0	DINER	467	n/a	1	n/a	0	0	0	0	0.5869140625	0.422607421875	lower	../fonts/zerothre.ttf
1432266	START	n/a	LTP087	ltpFR	13	n/a	n/a	n/a	n/a	n/a	n/a	n/a	n/a	n/a	n/a	n/a	n/a	n/a	n/a	n/a
1433257	PROB	n/a	LTP087	ltpFR	13	n/a	n/a	n/a	n/a	n/a	n/a	21	7	8	5	n/a	n/a	n/a	n/a	n/a
1435683	PROB	n/a	LTP087	ltpFR	13	n/a	n/a	n/a	n/a	n/a	n/a	14	6	7	1	n/a	n/a	n/a	n/a	n/a
1438391	PROB	n/a	LTP087	ltpFR	13	n/a	n/a	n/a	n/a	n/a	n/a	13	8	1	4	n/a	n/a	n/a	n/a	n/a
1440533	PROB	n/a	LTP087	ltpFR	13	n/a	n/a	n/a	n/a	n/a	n/a	15	9	5	1	n/a	n/a	n/a	n/a	n/a
1441724	PROB	n/a	LTP087	ltpFR	13	n/a	n/a	n/a	n/a	n/a	n/a	25	9	9	7	n/a	n/a	n/a	n/a	n/a
1444915	PROB	n/a	LTP087	ltpFR	13	n/a	n/a	n/a	n/a	n/a	n/a	20	5	9	6	n/a	n/a	n/a	n/a	n/a
1446891	STOP	n/a	LTP087	ltpFR	13	n/a	n/a	n/a	n/a	n/a	n/a	n/a	n/a	n/a	n/a	n/a	n/a	n/a	n/a	n/a
1449123	WORD	wordpools/wasnorm_wordpool.txt	LTP087	ltpFR	13	7	0	TURKEY	1520	n/a	1	n/a	0	0	0	0	0.5869140625	0.422607421875	lower	../fonts/zerothre.ttf
1452131	START	n/a	LTP087	ltpFR	13	n/a	n/a	n/a	n/a	n/a	n/a	n/a	n/a	n/a	n/a	n/a	n/a	n/a	n/a	n/a
1453056	PROB	n/a	LTP087	ltpFR	13	n/a	n/a	n/a	n/a	n/a	n/a	24	9	8	7	n/a	n/a	n/a	n/a	n/a
1455590	PROB	n/a	LTP087	ltpFR	13	n/a	n/a	n/a	n/a	n/a	n/a	12	5	2	5	n/a	n/a	n/a	n/a	n/a
1456855	PROB	n/a	LTP087	ltpFR	13	n/a	n/a	n/a	n/a	n/a	n/a	14	4	5	4	n/a	n/a	n/a	n/a	n/a
1458172	PROB	n/a	LTP087	ltpFR	13	n/a	n/a	n/a	n/a	n/a	n/a	20	3	9	8	n/a	n/a	n/a	n/a	n/a
1460539	PROB	n/a	LTP087	ltpFR	13	n/a	n/a	n/a	n/a	n/a	n/a	16	9	5	2	n/a	n/a	n/a	n/a	n/a
1462498	PROB	n/a	LTP087	ltpFR	13	n/a	n/a	n/a	n/a	n/a	n/a	15	3	8	4	n/a	n/a	n/a	n/a	n/a
1466431	PROB	n/a	LTP087	ltpFR	13	n/a	n/a	n/a	n/a	n/a	n/a	12	4	7	1	n/a	n/a	n/a	n/a	n/a
1468011	STOP	n/a	LTP087	ltpFR	13	n/a	n/a	n/a	n/a	n/a	n/a	n/a	n/a	n/a	n/a	n/a	n/a	n/a	n/a	n/a
1469163	WORD	wordpools/wasnorm_wordpool.txt	LTP087	ltpFR	13	7	0	CHEEK	287	n/a	0	n/a	0	0	0	0	0.5869140625	0.422607421875	lower	../fonts/zerothre.ttf
1472171	START	n/a	LTP087	ltpFR	13	n/a	n/a	n/a	n/a	n/a	n/a	n/a	n/a	n/a	n/a	n/a	n/a	n/a	n/a	n/a
1473221	PROB	n/a	LTP087	ltpFR	13	n/a	n/a	n/a	n/a	n/a	n/a	18	9	6	3	n/a	n/a	n/a	n/a	n/a
1475021	PROB	n/a	LTP087	ltpFR	13	n/a	n/a	n/a	n/a	n/a	n/a	22	7	8	7	n/a	n/a	n/a	n/a	n/a
1477004	PROB	n/a	LTP087	ltpFR	13	n/a	n/a	n/a	n/a	n/a	n/a	14	7	3	4	n/a	n/a	n/a	n/a	n/a
1479646	PROB	n/a	LTP087	ltpFR	13	n/a	n/a	n/a	n/a	n/a	n/a	15	6	4	5	n/a	n/a	n/a	n/a	n/a
1481220	PROB	n/a	LTP087	ltpFR	13	n/a	n/a	n/a	n/a	n/a	n/a	18	6	4	8	n/a	n/a	n/a	n/a	n/a
1482320	PROB	n/a	LTP087	ltpFR	13	n/a	n/a	n/a	n/a	n/a	n/a	9	4	4	1	n/a	n/a	n/a	n/a	n/a
1483803	PROB	n/a	LTP087	ltpFR	13	n/a	n/a	n/a	n/a	n/a	n/a	21	8	5	8	n/a	n/a	n/a	n/a	n/a
1488171	STOP	n/a	LTP087	ltpFR	13	n/a	n/a	n/a	n/a	n/a	n/a	n/a	n/a	n/a	n/a	n/a	n/a	n/a	n/a	n/a
1489346	WORD	wordpools/wasnorm_wordpool.txt	LTP087	ltpFR	13	7	0	NOSE	957	n/a	0	n/a	0	0	0	0	0.5869140625	0.422607421875	lower	../fonts/zerothre.ttf
1492354	START	n/a	LTP087	ltpFR	13	n/a	n/a	n/a	n/a	n/a	n/a	n/a	n/a	n/a	n/a	n/a	n/a	n/a	n/a	n/a
1493462	PROB	n/a	LTP087	ltpFR	13	n/a	n/a	n/a	n/a	n/a	n/a	21	8	4	9	n/a	n/a	n/a	n/a	n/a
1496503	PROB	n/a	LTP087	ltpFR	13	n/a	n/a	n/a	n/a	n/a	n/a	13	7	2	4	n/a	n/a	n/a	n/a	n/a
1498370	PROB	n/a	LTP087	ltpFR	13	n/a	n/a	n/a	n/a	n/a	n/a	20	8	4	8	n/a	n/a	n/a	n/a	n/a
1500478	PROB	n/a	LTP087	ltpFR	13	n/a	n/a	n/a	n/a	n/a	n/a	22	9	8	5	n/a	n/a	n/a	n/a	n/a
1502252	PROB	n/a	LTP087	ltpFR	13	n/a	n/a	n/a	n/a	n/a	n/a	14	7	1	6	n/a	n/a	n/a	n/a	n/a
1503960	PROB	n/a	LTP087	ltpFR	13	n/a	n/a	n/a	n/a	n/a	n/a	10	4	4	2	n/a	n/a	n/a	n/a	n/a
1505519	PROB	n/a	LTP087	ltpFR	13	n/a	n/a	n/a	n/a	n/a	n/a	16	7	3	6	n/a	n/a	n/a	n/a	n/a
1506987	STOP	n/a	LTP087	ltpFR	13	n/a	n/a	n/a	n/a	n/a	n/a	n/a	n/a	n/a	n/a	n/a	n/a	n/a	n/a	n/a
1509285	WORD	wordpools/wasnorm_wordpool.txt	LTP087	ltpFR	13	7	1	SPATULA	1348	n/a	0	n/a	0	0	0	1	0.412841796875	0.57763671875	upper	../fonts/amplitud.ttf
1512293	START	n/a	LTP087	ltpFR	13	n/a	n/a	n/a	n/a	n/a	n/a	n/a	n/a	n/a	n/a	n/a	n/a	n/a	n/a	n/a
1513402	PROB	n/a	LTP087	ltpFR	13	n/a	n/a	n/a	n/a	n/a	n/a	14	2	3	9	n/a	n/a	n/a	n/a	n/a
1516427	PROB	n/a	LTP087	ltpFR	13	n/a	n/a	n/a	n/a	n/a	n/a	17	7	3	7	n/a	n/a	n/a	n/a	n/a
1519242	PROB	n/a	LTP087	ltpFR	13	n/a	n/a	n/a	n/a	n/a	n/a	10	1	6	3	n/a	n/a	n/a	n/a	n/a
1521175	PROB	n/a	LTP087	ltpFR	13	n/a	n/a	n/a	n/a	n/a	n/a	4	1	2	1	n/a	n/a	n/a	n/a	n/a
1523109	PROB	n/a	LTP087	ltpFR	13	n/a	n/a	n/a	n/a	n/a	n/a	18	6	7	5	n/a	n/a	n/a	n/a	n/a
1524975	PROB	n/a	LTP087	ltpFR	13	n/a	n/a	n/a	n/a	n/a	n/a	14	9	2	3	n/a	n/a	n/a	n/a	n/a
1526867	STOP	n/a	LTP087	ltpFR	13	n/a	n/a	n/a	n/a	n/a	n/a	n/a	n/a	n/a	n/a	n/a	n/a	n/a	n/a	n/a
1529158	WORD	wordpools/wasnorm_wordpool.txt	LTP087	ltpFR	13	7	1	GRATE	657	n/a	0	n/a	0	0	0	1	0.412841796875	0.57763671875	upper	../fonts/amplitud.ttf
1532167	START	n/a	LTP087	ltpFR	13	n/a	n/a	n/a	n/a	n/a	n/a	n/a	n/a	n/a	n/a	n/a	n/a	n/a	n/a	n/a
1533258	PROB	n/a	LTP087	ltpFR	13	n/a	n/a	n/a	n/a	n/a	n/a	15	3	5	7	n/a	n/a	n/a	n/a	n/a
1535833	PROB	n/a	LTP087	ltpFR	13	n/a	n/a	n/a	n/a	n/a	n/a	17	4	6	7	n/a	n/a	n/a	n/a	n/a
1538066	PROB	n/a	LTP087	ltpFR	13	n/a	n/a	n/a	n/a	n/a	n/a	15	3	5	7	n/a	n/a	n/a	n/a	n/a
1539774	PROB	n/a	LTP087	ltpFR	13	n/a	n/a	n/a	n/a	n/a	n/a	22	9	8	5	n/a	n/a	n/a	n/a	n/a
1542450	PROB	n/a	LTP087	ltpFR	13	n/a	n/a	n/a	n/a	n/a	n/a	13	3	4	6	n/a	n/a	n/a	n/a	n/a
1544124	PROB	n/a	LTP087	ltpFR	13	n/a	n/a	n/a	n/a	n/a	n/a	21	6	8	7	n/a	n/a	n/a	n/a	n/a
1545691	PROB	n/a	LTP087	ltpFR	13	n/a	n/a	n/a	n/a	n/a	n/a	14	4	2	8	n/a	n/a	n/a	n/a	n/a
1547404	STOP	n/a	LTP087	ltpFR	13	n/a	n/a	n/a	n/a	n/a	n/a	n/a	n/a	n/a	n/a	n/a	n/a	n/a	n/a	n/a
1549148	WORD	wordpools/wasnorm_wordpool.txt	LTP087	ltpFR	13	7	1	COMMITTEE	355	n/a	0	n/a	0	0	0	1	0.412841796875	0.57763671875	upper	../fonts/amplitud.ttf
1552157	START	n/a	LTP087	ltpFR	13	n/a	n/a	n/a	n/a	n/a	n/a	n/a	n/a	n/a	n/a	n/a	n/a	n/a	n/a	n/a
1553215	PROB	n/a	LTP087	ltpFR	13	n/a	n/a	n/a	n/a	n/a	n/a	12	4	3	5	n/a	n/a	n/a	n/a	n/a
1555457	PROB	n/a	LTP087	ltpFR	13	n/a	n/a	n/a	n/a	n/a	n/a	16	3	7	6	n/a	n/a	n/a	n/a	n/a
1557239	PROB	n/a	LTP087	ltpFR	13	n/a	n/a	n/a	n/a	n/a	n/a	13	7	3	7	n/a	n/a	n/a	n/a	n/a
1558374	PROB	n/a	LTP087	ltpFR	13	n/a	n/a	n/a	n/a	n/a	n/a	24	8	8	8	n/a	n/a	n/a	n/a	n/a
1560524	PROB	n/a	LTP087	ltpFR	13	n/a	n/a	n/a	n/a	n/a	n/a	10	2	2	6	n/a	n/a	n/a	n/a	n/a
1563382	PROB	n/a	LTP087	ltpFR	13	n/a	n/a	n/a	n/a	n/a	n/a	18	7	9	2	n/a	n/a	n/a	n/a	n/a
1565540	PROB	n/a	LTP087	ltpFR	13	n/a	n/a	n/a	n/a	n/a	n/a	22	9	5	8	n/a	n/a	n/a	n/a	n/a
1567947	STOP	n/a	LTP087	ltpFR	13	n/a	n/a	n/a	n/a	n/a	n/a	n/a	n/a	n/a	n/a	n/a	n/a	n/a	n/a	n/a
1568972	WORD	wordpools/wasnorm_wordpool.txt	LTP087	ltpFR	13	7	1	KNIFE	785	n/a	0	n/a	0	0	0	1	0.412841796875	0.57763671875	upper	../fonts/amplitud.ttf
1571980	START	n/a	LTP087	ltpFR	13	n/a	n/a	n/a	n/a	n/a	n/a	n/a	n/a	n/a	n/a	n/a	n/a	n/a	n/a	n/a
1572788	PROB	n/a	LTP087	ltpFR	13	n/a	n/a	n/a	n/a	n/a	n/a	23	6	9	8	n/a	n/a	n/a	n/a	n/a
1574880	PROB	n/a	LTP087	ltpFR	13	n/a	n/a	n/a	n/a	n/a	n/a	12	3	6	3	n/a	n/a	n/a	n/a	n/a
1577171	PROB	n/a	LTP087	ltpFR	13	n/a	n/a	n/a	n/a	n/a	n/a	13	7	5	1	n/a	n/a	n/a	n/a	n/a
1578622	PROB	n/a	LTP087	ltpFR	13	n/a	n/a	n/a	n/a	n/a	n/a	20	5	7	8	n/a	n/a	n/a	n/a	n/a
1581104	PROB	n/a	LTP087	ltpFR	13	n/a	n/a	n/a	n/a	n/a	n/a	18	3	7	8	n/a	n/a	n/a	n/a	n/a
1587980	STOP	n/a	LTP087	ltpFR	13	n/a	n/a	n/a	n/a	n/a	n/a	n/a	n/a	n/a	n/a	n/a	n/a	n/a	n/a	n/a
1589863	REC_START	n/a	LTP087	ltpFR	13	7	n/a	n/a	n/a	n/a	n/a	n/a	0	0	0	n/a	n/a	n/a	n/a	n/a
1591554	REC_WORD	wordpools/wasnorm_wordpool.txt	LTP087	ltpFR	13	7	1	KNIFE	785	n/a	0	n/a	0	0	0	n/a	n/a	n/a	n/a	n/a
1596503	REC_WORD	wordpools/wasnorm_wordpool.txt	LTP087	ltpFR	13	7	1	COMMITTEE	355	n/a	0	n/a	0	0	0	n/a	n/a	n/a	n/a	n/a
1682322	START	n/a	LTP087	ltpFR	13	n/a	n/a	n/a	n/a	n/a	n/a	n/a	n/a	n/a	n/a	n/a	n/a	n/a	n/a	n/a
1683830	PROB	n/a	LTP087	ltpFR	13	n/a	n/a	n/a	n/a	n/a	n/a	16	4	3	9	n/a	n/a	n/a	n/a	n/a
1686821	PROB	n/a	LTP087	ltpFR	13	n/a	n/a	n/a	n/a	n/a	n/a	18	7	9	2	n/a	n/a	n/a	n/a	n/a
1688738	PROB	n/a	LTP087	ltpFR	13	n/a	n/a	n/a	n/a	n/a	n/a	3	1	3	2	n/a	n/a	n/a	n/a	n/a
1690347	PROB	n/a	LTP087	ltpFR	13	n/a	n/a	n/a	n/a	n/a	n/a	26	1	8	9	n/a	n/a	n/a	n/a	n/a
1693347	PROB	n/a	LTP087	ltpFR	13	n/a	n/a	n/a	n/a	n/a	n/a	21	9	9	3	n/a	n/a	n/a	n/a	n/a
1695821	PROB	n/a	LTP087	ltpFR	13	n/a	n/a	n/a	n/a	n/a	n/a	21	3	9	9	n/a	n/a	n/a	n/a	n/a
1697588	STOP	n/a	LTP087	ltpFR	13	n/a	n/a	n/a	n/a	n/a	n/a	n/a	n/a	n/a	n/a	n/a	n/a	n/a	n/a	n/a
1699220	WORD	wordpools/wasnorm_wordpool.txt	LTP087	ltpFR	13	8	0	HOOK	715	n/a	0	n/a	0	0	0	0	0.5869140625	0.422607421875	lower	../fonts/zerothre.ttf
1702221	START	n/a	LTP087	ltpFR	13	n/a	n/a	n/a	n/a	n/a	n/a	n/a	n/a	n/a	n/a	n/a	n/a	n/a	n/a	n/a
1703170	PROB	n/a	LTP087	ltpFR	13	n/a	n/a	n/a	n/a	n/a	n/a	24	8	9	9	n/a	n/a	n/a	n/a	n/a
1705778	PROB	n/a	LTP087	ltpFR	13	n/a	n/a	n/a	n/a	n/a	n/a	13	2	9	2	n/a	n/a	n/a	n/a	n/a
1708354	PROB	n/a	LTP087	ltpFR	13	n/a	n/a	n/a	n/a	n/a	n/a	14	6	2	6	n/a	n/a	n/a	n/a	n/a
1710261	PROB	n/a	LTP087	ltpFR	13	n/a	n/a	n/a	n/a	n/a	n/a	13	4	7	2	n/a	n/a	n/a	n/a	n/a
1712211	PROB	n/a	LTP087	ltpFR	13	n/a	n/a	n/a	n/a	n/a	n/a	13	4	2	7	n/a	n/a	n/a	n/a	n/a
1713462	PROB	n/a	LTP087	ltpFR	13	n/a	n/a	n/a	n/a	n/a	n/a	20	8	6	6	n/a	n/a	n/a	n/a	n/a
1715703	PROB	n/a	LTP087	ltpFR	13	n/a	n/a	n/a	n/a	n/a	n/a	11	2	7	2	n/a	n/a	n/a	n/a	n/a
1717219	STOP	n/a	LTP087	ltpFR	13	n/a	n/a	n/a	n/a	n/a	n/a	n/a	n/a	n/a	n/a	n/a	n/a	n/a	n/a	n/a
1719111	WORD	wordpools/wasnorm_wordpool.txt	LTP087	ltpFR	13	8	0	PIKE	1067	n/a	0	n/a	0	0	0	0	0.5869140625	0.422607421875	lower	../fonts/zerothre.ttf
1722119	START	n/a	LTP087	ltpFR	13	n/a	n/a	n/a	n/a	n/a	n/a	n/a	n/a	n/a	n/a	n/a	n/a	n/a	n/a	n/a
1723202	PROB	n/a	LTP087	ltpFR	13	n/a	n/a	n/a	n/a	n/a	n/a	21	6	8	7	n/a	n/a	n/a	n/a	n/a
1724885	PROB	n/a	LTP087	ltpFR	13	n/a	n/a	n/a	n/a	n/a	n/a	17	7	1	9	n/a	n/a	n/a	n/a	n/a
1726860	PROB	n/a	LTP087	ltpFR	13	n/a	n/a	n/a	n/a	n/a	n/a	19	6	7	6	n/a	n/a	n/a	n/a	n/a
1728976	PROB	n/a	LTP087	ltpFR	13	n/a	n/a	n/a	n/a	n/a	n/a	16	3	7	6	n/a	n/a	n/a	n/a	n/a
1730810	PROB	n/a	LTP087	ltpFR	13	n/a	n/a	n/a	n/a	n/a	n/a	17	6	6	5	n/a	n/a	n/a	n/a	n/a
1733494	PROB	n/a	LTP087	ltpFR	13	n/a	n/a	n/a	n/a	n/a	n/a	18	5	8	5	n/a	n/a	n/a	n/a	n/a
1735435	PROB	n/a	LTP087	ltpFR	13	n/a	n/a	n/a	n/a	n/a	n/a	11	2	5	4	n/a	n/a	n/a	n/a	n/a
1738059	STOP	n/a	LTP087	ltpFR	13	n/a	n/a	n/a	n/a	n/a	n/a	n/a	n/a	n/a	n/a	n/a	n/a	n/a	n/a	n/a
1739251	WORD	wordpools/wasnorm_wordpool.txt	LTP087	ltpFR	13	8	0	THERMOMETER	1453	n/a	0	n/a	0	0	0	0	0.5869140625	0.422607421875	lower	../fonts/zerothre.ttf
1742259	START	n/a	LTP087	ltpFR	13	n/a	n/a	n/a	n/a	n/a	n/a	n/a	n/a	n/a	n/a	n/a	n/a	n/a	n/a	n/a
1743418	PROB	n/a	LTP087	ltpFR	13	n/a	n/a	n/a	n/a	n/a	n/a	22	7	7	8	n/a	n/a	n/a	n/a	n/a
1746476	PROB	n/a	LTP087	ltpFR	13	n/a	n/a	n/a	n/a	n/a	n/a	19	7	4	8	n/a	n/a	n/a	n/a	n/a
1749334	PROB	n/a	LTP087	ltpFR	13	n/a	n/a	n/a	n/a	n/a	n/a	6	1	3	2	n/a	n/a	n/a	n/a	n/a
1754475	PROB	n/a	LTP087	ltpFR	13	n/a	n/a	n/a	n/a	n/a	n/a	11	3	4	4	n/a	n/a	n/a	n/a	n/a
1758258	STOP	n/a	LTP087	ltpFR	13	n/a	n/a	n/a	n/a	n/a	n/a	n/a	n/a	n/a	n/a	n/a	n/a	n/a	n/a	n/a
1759459	WORD	wordpools/wasnorm_wordpool.txt	LTP087	ltpFR	13	8	0	SPINACH	1352	n/a	0	n/a	0	0	0	0	0.5869140625	0.422607421875	lower	../fonts/zerothre.ttf
1762467	START	n/a	LTP087	ltpFR	13	n/a	n/a	n/a	n/a	n/a	n/a	n/a	n/a	n/a	n/a	n/a	n/a	n/a	n/a	n/a
1763442	PROB	n/a	LTP087	ltpFR	13	n/a	n/a	n/a	n/a	n/a	n/a	12	3	2	7	n/a	n/a	n/a	n/a	n/a
1766641	PROB	n/a	LTP087	ltpFR	13	n/a	n/a	n/a	n/a	n/a	n/a	16	7	1	8	n/a	n/a	n/a	n/a	n/a
1768799	PROB	n/a	LTP087	ltpFR	13	n/a	n/a	n/a	n/a	n/a	n/a	18	9	3	6	n/a	n/a	n/a	n/a	n/a
1773015	PROB	n/a	LTP087	ltpFR	13	n/a	n/a	n/a	n/a	n/a	n/a	15	5	7	3	n/a	n/a	n/a	n/a	n/a
1778467	STOP	n/a	LTP087	ltpFR	13	n/a	n/a	n/a	n/a	n/a	n/a	n/a	n/a	n/a	n/a	n/a	n/a	n/a	n/a	n/a
1779482	WORD	wordpools/wasnorm_wordpool.txt	LTP087	ltpFR	13	8	0	FURNITURE	616	n/a	n/a	n/a	0	0	0	0	0.5869140625	0.422607421875	lower	../fonts/zerothre.ttf
1782507	SLOW_MSG	n/a	LTP087	ltpFR	13	8	n/a	n/a	n/a	n/a	n/a	n/a	0	0	0	n/a	n/a	n/a	n/a	n/a
1784023	START	n/a	LTP087	ltpFR	13	n/a	n/a	n/a	n/a	n/a	n/a	n/a	n/a	n/a	n/a	n/a	n/a	n/a	n/a	n/a
1785131	PROB	n/a	LTP087	ltpFR	13	n/a	n/a	n/a	n/a	n/a	n/a	14	2	5	7	n/a	n/a	n/a	n/a	n/a
1788448	PROB	n/a	LTP087	ltpFR	13	n/a	n/a	n/a	n/a	n/a	n/a	13	5	1	7	n/a	n/a	n/a	n/a	n/a
1790339	PROB	n/a	LTP087	ltpFR	13	n/a	n/a	n/a	n/a	n/a	n/a	14	5	2	7	n/a	n/a	n/a	n/a	n/a
1791855	PROB	n/a	LTP087	ltpFR	13	n/a	n/a	n/a	n/a	n/a	n/a	12	7	3	2	n/a	n/a	n/a	n/a	n/a
1793188	PROB	n/a	LTP087	ltpFR	13	n/a	n/a	n/a	n/a	n/a	n/a	17	7	7	3	n/a	n/a	n/a	n/a	n/a
1796846	PROB	n/a	LTP087	ltpFR	13	n/a	n/a	n/a	n/a	n/a	n/a	20	2	9	9	n/a	n/a	n/a	n/a	n/a
1799428	STOP	n/a	LTP087	ltpFR	13	n/a	n/a	n/a	n/a	n/a	n/a	n/a	n/a	n/a	n/a	n/a	n/a	n/a	n/a	n/a
1800921	WORD	wordpools/wasnorm_wordpool.txt	LTP087	ltpFR	13	8	0	CUSHION	428	n/a	0	n/a	0	0	0	0	0.5869140625	0.422607421875	lower	../fonts/zerothre.ttf
1803930	START	n/a	LTP087	ltpFR	13	n/a	n/a	n/a	n/a	n/a	n/a	n/a	n/a	n/a	n/a	n/a	n/a	n/a	n/a	n/a
1804754	PROB	n/a	LTP087	ltpFR	13	n/a	n/a	n/a	n/a	n/a	n/a	13	4	3	6	n/a	n/a	n/a	n/a	n/a
1808920	PROB	n/a	LTP087	ltpFR	13	n/a	n/a	n/a	n/a	n/a	n/a	17	8	4	5	n/a	n/a	n/a	n/a	n/a
1810787	PROB	n/a	LTP087	ltpFR	13	n/a	n/a	n/a	n/a	n/a	n/a	13	5	1	7	n/a	n/a	n/a	n/a	n/a
1812680	PROB	n/a	LTP087	ltpFR	13	n/a	n/a	n/a	n/a	n/a	n/a	16	9	3	4	n/a	n/a	n/a	n/a	n/a
1816303	PROB	n/a	LTP087	ltpFR	13	n/a	n/a	n/a	n/a	n/a	n/a	16	9	4	3	n/a	n/a	n/a	n/a	n/a
1819211	STOP	n/a	LTP087	ltpFR	13	n/a	n/a	n/a	n/a	n/a	n/a	n/a	n/a	n/a	n/a	n/a	n/a	n/a	n/a	n/a
1821036	WORD	wordpools/wasnorm_wordpool.txt	LTP087	ltpFR	13	8	0	WINGS	1614	n/a	1	n/a	0	0	0	0	0.5869140625	0.422607421875	lower	../fonts/zerothre.ttf
1824045	START	n/a	LTP087	ltpFR	13	n/a	n/a	n/a	n/a	n/a	n/a	n/a	n/a	n/a	n/a	n/a	n/a	n/a	n/a	n/a
1824894	PROB	n/a	LTP087	ltpFR	13	n/a	n/a	n/a	n/a	n/a	n/a	19	9	1	9	n/a	n/a	n/a	n/a	n/a
1827002	PROB	n/a	LTP087	ltpFR	13	n/a	n/a	n/a	n/a	n/a	n/a	23	9	7	7	n/a	n/a	n/a	n/a	n/a
1829202	PROB	n/a	LTP087	ltpFR	13	n/a	n/a	n/a	n/a	n/a	n/a	18	9	4	5	n/a	n/a	n/a	n/a	n/a
1831127	PROB	n/a	LTP087	ltpFR	13	n/a	n/a	n/a	n/a	n/a	n/a	16	9	5	2	n/a	n/a	n/a	n/a	n/a
1833185	PROB	n/a	LTP087	ltpFR	13	n/a	n/a	n/a	n/a	n/a	n/a	19	5	5	9	n/a	n/a	n/a	n/a	n/a
1834586	PROB	n/a	LTP087	ltpFR	13	n/a	n/a	n/a	n/a	n/a	n/a	19	9	7	3	n/a	n/a	n/a	n/a	n/a
1836077	PROB	n/a	LTP087	ltpFR	13	n/a	n/a	n/a	n/a	n/a	n/a	14	4	3	7	n/a	n/a	n/a	n/a	n/a
1840045	STOP	n/a	LTP087	ltpFR	13	n/a	n/a	n/a	n/a	n/a	n/a	n/a	n/a	n/a	n/a	n/a	n/a	n/a	n/a	n/a
1840976	WORD	wordpools/wasnorm_wordpool.txt	LTP087	ltpFR	13	8	0	CACTUS	215	n/a	0	n/a	0	0	0	0	0.5869140625	0.422607421875	lower	../fonts/zerothre.ttf
1843977	START	n/a	LTP087	ltpFR	13	n/a	n/a	n/a	n/a	n/a	n/a	n/a	n/a	n/a	n/a	n/a	n/a	n/a	n/a	n/a
1844934	PROB	n/a	LTP087	ltpFR	13	n/a	n/a	n/a	n/a	n/a	n/a	12	1	4	7	n/a	n/a	n/a	n/a	n/a
1846594	PROB	n/a	LTP087	ltpFR	13	n/a	n/a	n/a	n/a	n/a	n/a	18	3	7	8	n/a	n/a	n/a	n/a	n/a
1848318	PROB	n/a	LTP087	ltpFR	13	n/a	n/a	n/a	n/a	n/a	n/a	16	8	1	7	n/a	n/a	n/a	n/a	n/a
1850951	PROB	n/a	LTP087	ltpFR	13	n/a	n/a	n/a	n/a	n/a	n/a	21	6	8	7	n/a	n/a	n/a	n/a	n/a
1852685	PROB	n/a	LTP087	ltpFR	13	n/a	n/a	n/a	n/a	n/a	n/a	10	4	1	5	n/a	n/a	n/a	n/a	n/a
1854451	PROB	n/a	LTP087	ltpFR	13	n/a	n/a	n/a	n/a	n/a	n/a	17	7	7	3	n/a	n/a	n/a	n/a	n/a
1856317	PROB	n/a	LTP087	ltpFR	13	n/a	n/a	n/a	n/a	n/a	n/a	18	9	2	7	n/a	n/a	n/a	n/a	n/a
1859977	STOP	n/a	LTP087	ltpFR	13	n/a	n/a	n/a	n/a	n/a	n/a	n/a	n/a	n/a	n/a	n/a	n/a	n/a	n/a	n/a
1860800	WORD	wordpools/wasnorm_wordpool.txt	LTP087	ltpFR	13	8	0	CONCERT	360	n/a	0	n/a	0	0	0	0	0.5869140625	0.422607421875	lower	../fonts/zerothre.ttf
1863808	START	n/a	LTP087	ltpFR	13	n/a	n/a	n/a	n/a	n/a	n/a	n/a	n/a	n/a	n/a	n/a	n/a	n/a	n/a	n/a
1864866	PROB	n/a	LTP087	ltpFR	13	n/a	n/a	n/a	n/a	n/a	n/a	15	5	4	6	n/a	n/a	n/a	n/a	n/a
1868484	PROB	n/a	LTP087	ltpFR	13	n/a	n/a	n/a	n/a	n/a	n/a	17	6	9	2	n/a	n/a	n/a	n/a	n/a
1870617	PROB	n/a	LTP087	ltpFR	13	n/a	n/a	n/a	n/a	n/a	n/a	17	8	1	8	n/a	n/a	n/a	n/a	n/a
1873774	PROB	n/a	LTP087	ltpFR	13	n/a	n/a	n/a	n/a	n/a	n/a	1	5	8	4	n/a	n/a	n/a	n/a	n/a
1877466	PROB	n/a	LTP087	ltpFR	13	n/a	n/a	n/a	n/a	n/a	n/a	10	2	2	6	n/a	n/a	n/a	n/a	n/a
1879596	STOP	n/a	LTP087	ltpFR	13	n/a	n/a	n/a	n/a	n/a	n/a	n/a	n/a	n/a	n/a	n/a	n/a	n/a	n/a	n/a
1880757	WORD	wordpools/wasnorm_wordpool.txt	LTP087	ltpFR	13	8	0	JUG	762	n/a	0	n/a	0	0	0	0	0.5869140625	0.422607421875	lower	../fonts/zerothre.ttf
1883765	START	n/a	LTP087	ltpFR	13	n/a	n/a	n/a	n/a	n/a	n/a	n/a	n/a	n/a	n/a	n/a	n/a	n/a	n/a	n/a
1884682	PROB	n/a	LTP087	ltpFR	13	n/a	n/a	n/a	n/a	n/a	n/a	20	5	8	7	n/a	n/a	n/a	n/a	n/a
1886382	PROB	n/a	LTP087	ltpFR	13	n/a	n/a	n/a	n/a	n/a	n/a	20	8	5	7	n/a	n/a	n/a	n/a	n/a
1888582	PROB	n/a	LTP087	ltpFR	13	n/a	n/a	n/a	n/a	n/a	n/a	17	9	3	5	n/a	n/a	n/a	n/a	n/a
1890873	PROB	n/a	LTP087	ltpFR	13	n/a	n/a	n/a	n/a	n/a	n/a	16	6	8	2	n/a	n/a	n/a	n/a	n/a
1893289	PROB	n/a	LTP087	ltpFR	13	n/a	n/a	n/a	n/a	n/a	n/a	18	3	9	6	n/a	n/a	n/a	n/a	n/a
1895922	PROB	n/a	LTP087	ltpFR	13	n/a	n/a	n/a	n/a	n/a	n/a	14	6	6	2	n/a	n/a	n/a	n/a	n/a
1898307	STOP	n/a	LTP087	ltpFR	13	n/a	n/a	n/a	n/a	n/a	n/a	n/a	n/a	n/a	n/a	n/a	n/a	n/a	n/a	n/a
1900814	WORD	wordpools/wasnorm_wordpool.txt	LTP087	ltpFR	13	8	0	CANE	231	n/a	0	n/a	0	0	0	0	0.5869140625	0.422607421875	lower	../fonts/zerothre.ttf
1903822	START	n/a	LTP087	ltpFR	13	n/a	n/a	n/a	n/a	n/a	n/a	n/a	n/a	n/a	n/a	n/a	n/a	n/a	n/a	n/a
1904822	PROB	n/a	LTP087	ltpFR	13	n/a	n/a	n/a	n/a	n/a	n/a	14	7	5	2	n/a	n/a	n/a	n/a	n/a
1906697	PROB	n/a	LTP087	ltpFR	13	n/a	n/a	n/a	n/a	n/a	n/a	14	2	7	5	n/a	n/a	n/a	n/a	n/a
1908921	PROB	n/a	LTP087	ltpFR	13	n/a	n/a	n/a	n/a	n/a	n/a	17	5	7	5	n/a	n/a	n/a	n/a	n/a
1910746	PROB	n/a	LTP087	ltpFR	13	n/a	n/a	n/a	n/a	n/a	n/a	20	7	9	4	n/a	n/a	n/a	n/a	n/a
1912846	PROB	n/a	LTP087	ltpFR	13	n/a	n/a	n/a	n/a	n/a	n/a	18	6	4	4	n/a	n/a	n/a	n/a	n/a
1914372	PROB	n/a	LTP087	ltpFR	13	n/a	n/a	n/a	n/a	n/a	n/a	20	2	9	9	n/a	n/a	n/a	n/a	n/a
1917196	PROB	n/a	LTP087	ltpFR	13	n/a	n/a	n/a	n/a	n/a	n/a	13	4	7	2	n/a	n/a	n/a	n/a	n/a
1918668	STOP	n/a	LTP087	ltpFR	13	n/a	n/a	n/a	n/a	n/a	n/a	n/a	n/a	n/a	n/a	n/a	n/a	n/a	n/a	n/a
1921004	WORD	wordpools/wasnorm_wordpool.txt	LTP087	ltpFR	13	8	0	DANCER	437	n/a	1	n/a	0	0	0	0	0.5869140625	0.422607421875	lower	../fonts/zerothre.ttf
1924012	START	n/a	LTP087	ltpFR	13	n/a	n/a	n/a	n/a	n/a	n/a	n/a	n/a	n/a	n/a	n/a	n/a	n/a	n/a	n/a
1924870	PROB	n/a	LTP087	ltpFR	13	n/a	n/a	n/a	n/a	n/a	n/a	10	1	4	5	n/a	n/a	n/a	n/a	n/a
1926303	PROB	n/a	LTP087	ltpFR	13	n/a	n/a	n/a	n/a	n/a	n/a	15	8	2	5	n/a	n/a	n/a	n/a	n/a
1927920	PROB	n/a	LTP087	ltpFR	13	n/a	n/a	n/a	n/a	n/a	n/a	19	4	6	9	n/a	n/a	n/a	n/a	n/a
1929429	PROB	n/a	LTP087	ltpFR	13	n/a	n/a	n/a	n/a	n/a	n/a	18	6	7	5	n/a	n/a	n/a	n/a	n/a
1932111	PROB	n/a	LTP087	ltpFR	13	n/a	n/a	n/a	n/a	n/a	n/a	21	8	4	9	n/a	n/a	n/a	n/a	n/a
1933761	PROB	n/a	LTP087	ltpFR	13	n/a	n/a	n/a	n/a	n/a	n/a	9	3	3	3	n/a	n/a	n/a	n/a	n/a
1934803	PROB	n/a	LTP087	ltpFR	13	n/a	n/a	n/a	n/a	n/a	n/a	13	4	8	1	n/a	n/a	n/a	n/a	n/a
1936136	PROB	n/a	LTP087	ltpFR	13	n/a	n/a	n/a	n/a	n/a	n/a	13	5	4	4	n/a	n/a	n/a	n/a	n/a
1938548	STOP	n/a	LTP087	ltpFR	13	n/a	n/a	n/a	n/a	n/a	n/a	n/a	n/a	n/a	n/a	n/a	n/a	n/a	n/a	n/a
1940844	WORD	wordpools/wasnorm_wordpool.txt	LTP087	ltpFR	13	8	0	PERCH	1048	n/a	0	n/a	0	0	0	0	0.5869140625	0.422607421875	lower	../fonts/zerothre.ttf
1943852	START	n/a	LTP087	ltpFR	13	n/a	n/a	n/a	n/a	n/a	n/a	n/a	n/a	n/a	n/a	n/a	n/a	n/a	n/a	n/a
1945010	PROB	n/a	LTP087	ltpFR	13	n/a	n/a	n/a	n/a	n/a	n/a	23	8	8	7	n/a	n/a	n/a	n/a	n/a
1946486	PROB	n/a	LTP087	ltpFR	13	n/a	n/a	n/a	n/a	n/a	n/a	11	5	3	3	n/a	n/a	n/a	n/a	n/a
1948977	PROB	n/a	LTP087	ltpFR	13	n/a	n/a	n/a	n/a	n/a	n/a	10	5	2	3	n/a	n/a	n/a	n/a	n/a
1950602	PROB	n/a	LTP087	ltpFR	13	n/a	n/a	n/a	n/a	n/a	n/a	19	3	7	9	n/a	n/a	n/a	n/a	n/a
1952085	PROB	n/a	LTP087	ltpFR	13	n/a	n/a	n/a	n/a	n/a	n/a	14	5	1	8	n/a	n/a	n/a	n/a	n/a
1954084	PROB	n/a	LTP087	ltpFR	13	n/a	n/a	n/a	n/a	n/a	n/a	12	1	7	4	n/a	n/a	n/a	n/a	n/a
1956101	PROB	n/a	LTP087	ltpFR	13	n/a	n/a	n/a	n/a	n/a	n/a	19	5	6	8	n/a	n/a	n/a	n/a	n/a
1959852	STOP	n/a	LTP087	ltpFR	13	n/a	n/a	n/a	n/a	n/a	n/a	n/a	n/a	n/a	n/a	n/a	n/a	n/a	n/a	n/a
1960734	WORD	wordpools/wasnorm_wordpool.txt	LTP087	ltpFR	13	8	0	SPRINKLE	1359	n/a	0	n/a	0	0	0	0	0.5869140625	0.422607421875	lower	../fonts/zerothre.ttf
1963742	START	n/a	LTP087	ltpFR	13	n/a	n/a	n/a	n/a	n/a	n/a	n/a	n/a	n/a	n/a	n/a	n/a	n/a	n/a	n/a
1964693	PROB	n/a	LTP087	ltpFR	13	n/a	n/a	n/a	n/a	n/a	n/a	18	9	4	5	n/a	n/a	n/a	n/a	n/a
1967217	PROB	n/a	LTP087	ltpFR	13	n/a	n/a	n/a	n/a	n/a	n/a	12	4	5	3	n/a	n/a	n/a	n/a	n/a
1969626	PROB	n/a	LTP087	ltpFR	13	n/a	n/a	n/a	n/a	n/a	n/a	14	5	5	4	n/a	n/a	n/a	n/a	n/a
1970718	PROB	n/a	LTP087	ltpFR	13	n/a	n/a	n/a	n/a	n/a	n/a	11	1	2	8	n/a	n/a	n/a	n/a	n/a
1972725	PROB	n/a	LTP087	ltpFR	13	n/a	n/a	n/a	n/a	n/a	n/a	10	2	1	7	n/a	n/a	n/a	n/a	n/a
1974933	PROB	n/a	LTP087	ltpFR	13	n/a	n/a	n/a	n/a	n/a	n/a	13	4	2	7	n/a	n/a	n/a	n/a	n/a
1976849	PROB	n/a	LTP087	ltpFR	13	n/a	n/a	n/a	n/a	n/a	n/a	13	6	2	5	n/a	n/a	n/a	n/a	n/a
1979035	STOP	n/a	LTP087	ltpFR	13	n/a	n/a	n/a	n/a	n/a	n/a	n/a	n/a	n/a	n/a	n/a	n/a	n/a	n/a	n/a
1980617	WORD	wordpools/wasnorm_wordpool.txt	LTP087	ltpFR	13	8	0	SNORKEL	1336	n/a	0	n/a	0	0	0	0	0.5869140625	0.422607421875	lower	../fonts/zerothre.ttf
1983625	START	n/a	LTP087	ltpFR	13	n/a	n/a	n/a	n/a	n/a	n/a	n/a	n/a	n/a	n/a	n/a	n/a	n/a	n/a	n/a
1984740	PROB	n/a	LTP087	ltpFR	13	n/a	n/a	n/a	n/a	n/a	n/a	19	4	6	9	n/a	n/a	n/a	n/a	n/a
1986224	PROB	n/a	LTP087	ltpFR	13	n/a	n/a	n/a	n/a	n/a	n/a	17	8	4	5	n/a	n/a	n/a	n/a	n/a
1988115	PROB	n/a	LTP087	ltpFR	13	n/a	n/a	n/a	n/a	n/a	n/a	9	4	3	2	n/a	n/a	n/a	n/a	n/a
1990408	PROB	n/a	LTP087	ltpFR	13	n/a	n/a	n/a	n/a	n/a	n/a	14	3	5	6	n/a	n/a	n/a	n/a	n/a
1992198	PROB	n/a	LTP087	ltpFR	13	n/a	n/a	n/a	n/a	n/a	n/a	17	9	6	2	n/a	n/a	n/a	n/a	n/a
1993848	PROB	n/a	LTP087	ltpFR	13	n/a	n/a	n/a	n/a	n/a	n/a	21	9	9	3	n/a	n/a	n/a	n/a	n/a
1995624	PROB	n/a	LTP087	ltpFR	13	n/a	n/a	n/a	n/a	n/a	n/a	23	7	7	9	n/a	n/a	n/a	n/a	n/a
1999332	STOP	n/a	LTP087	ltpFR	13	n/a	n/a	n/a	n/a	n/a	n/a	n/a	n/a	n/a	n/a	n/a	n/a	n/a	n/a	n/a
2000690	WORD	wordpools/wasnorm_wordpool.txt	LTP087	ltpFR	13	8	0	CANOE	233	n/a	1	n/a	0	0	0	0	0.5869140625	0.422607421875	lower	../fonts/zerothre.ttf
2003690	START	n/a	LTP087	ltpFR	13	n/a	n/a	n/a	n/a	n/a	n/a	n/a	n/a	n/a	n/a	n/a	n/a	n/a	n/a	n/a
2004764	PROB	n/a	LTP087	ltpFR	13	n/a	n/a	n/a	n/a	n/a	n/a	19	7	6	6	n/a	n/a	n/a	n/a	n/a
2008014	PROB	n/a	LTP087	ltpFR	13	n/a	n/a	n/a	n/a	n/a	n/a	8	4	3	1	n/a	n/a	n/a	n/a	n/a
2010506	PROB	n/a	LTP087	ltpFR	13	n/a	n/a	n/a	n/a	n/a	n/a	11	7	1	3	n/a	n/a	n/a	n/a	n/a
2012913	PROB	n/a	LTP087	ltpFR	13	n/a	n/a	n/a	n/a	n/a	n/a	16	8	3	5	n/a	n/a	n/a	n/a	n/a
2015247	PROB	n/a	LTP087	ltpFR	13	n/a	n/a	n/a	n/a	n/a	n/a	17	6	7	4	n/a	n/a	n/a	n/a	n/a
2019690	STOP	n/a	LTP087	ltpFR	13	n/a	n/a	n/a	n/a	n/a	n/a	n/a	n/a	n/a	n/a	n/a	n/a	n/a	n/a	n/a
2021448	REC_START	n/a	LTP087	ltpFR	13	8	n/a	n/a	n/a	n/a	n/a	n/a	0	0	0	n/a	n/a	n/a	n/a	n/a
2023324	REC_WORD	wordpools/wasnorm_wordpool.txt	LTP087	ltpFR	13	8	0	CANOE	233	n/a	1	n/a	0	0	0	n/a	n/a	n/a	n/a	n/a
2024905	REC_WORD	wordpools/wasnorm_wordpool.txt	LTP087	ltpFR	13	8	0	HOOK	715	n/a	0	n/a	0	0	0	n/a	n/a	n/a	n/a	n/a
2026222	REC_WORD	wordpools/wasnorm_wordpool.txt	LTP087	ltpFR	13	8	0	FURNITURE	616	n/a	n/a	n/a	0	0	0	n/a	n/a	n/a	n/a	n/a
2029754	REC_WORD	wordpools/wasnorm_wordpool.txt	LTP087	ltpFR	13	8	0	SPRINKLE	1359	n/a	0	n/a	0	0	0	n/a	n/a	n/a	n/a	n/a
2033845	REC_WORD	wordpools/wasnorm_wordpool.txt	LTP087	ltpFR	13	8	0	DANCER	437	n/a	1	n/a	0	0	0	n/a	n/a	n/a	n/a	n/a
2041407	REC_WORD	wordpools/wasnorm_wordpool.txt	LTP087	ltpFR	13	8	0	JUG	762	n/a	0	n/a	0	0	0	n/a	n/a	n/a	n/a	n/a
2100023	WORD	wordpools/wasnorm_wordpool.txt	LTP087	ltpFR	13	9	1	PARCEL	1012	n/a	0	n/a	0	0	0	1	0.412841796875	0.57763671875	upper	../fonts/amplitud.ttf
2103982	WORD	wordpools/wasnorm_wordpool.txt	LTP087	ltpFR	13	9	1	PORCUPINE	1107	n/a	0	n/a	0	0	0	1	0.412841796875	0.57763671875	upper	../fonts/amplitud.ttf
2108148	WORD	wordpools/wasnorm_wordpool.txt	LTP087	ltpFR	13	9	1	BONE	148	n/a	0	n/a	0	0	0	1	0.412841796875	0.57763671875	upper	../fonts/amplitud.ttf
2111964	WORD	wordpools/wasnorm_wordpool.txt	LTP087	ltpFR	13	9	1	SPINE	1353	n/a	0	n/a	0	0	0	1	0.412841796875	0.57763671875	upper	../fonts/amplitud.ttf
2116089	WORD	wordpools/wasnorm_wordpool.txt	LTP087	ltpFR	13	9	1	PASSENGER	1020	n/a	1	n/a	0	0	0	1	0.412841796875	0.57763671875	upper	../fonts/amplitud.ttf
2119922	WORD	wordpools/wasnorm_wordpool.txt	LTP087	ltpFR	13	9	1	FEMALE	559	n/a	1	n/a	0	0	0	1	0.412841796875	0.57763671875	upper	../fonts/amplitud.ttf
2123755	WORD	wordpools/wasnorm_wordpool.txt	LTP087	ltpFR	13	9	1	WICK	1607	n/a	0	n/a	0	0	0	1	0.412841796875	0.57763671875	upper	../fonts/amplitud.ttf
2127706	WORD	wordpools/wasnorm_wordpool.txt	LTP087	ltpFR	13	9	1	REFEREE	1178	n/a	1	n/a	0	0	0	1	0.412841796875	0.57763671875	upper	../fonts/amplitud.ttf
2131821	WORD	wordpools/wasnorm_wordpool.txt	LTP087	ltpFR	13	9	1	COW	393	n/a	1	n/a	0	0	0	1	0.412841796875	0.57763671875	upper	../fonts/amplitud.ttf
2135680	WORD	wordpools/wasnorm_wordpool.txt	LTP087	ltpFR	13	9	1	CALF	222	n/a	1	n/a	0	0	0	1	0.412841796875	0.57763671875	upper	../fonts/amplitud.ttf
2139697	WORD	wordpools/wasnorm_wordpool.txt	LTP087	ltpFR	13	9	1	MATCH	878	n/a	n/a	n/a	0	0	0	1	0.412841796875	0.57763671875	upper	../fonts/amplitud.ttf
2142721	SLOW_MSG	n/a	LTP087	ltpFR	13	9	n/a	n/a	n/a	n/a	n/a	n/a	0	0	0	n/a	n/a	n/a	n/a	n/a
2145170	WORD	wordpools/wasnorm_wordpool.txt	LTP087	ltpFR	13	9	1	STREET	1393	n/a	1	n/a	0	0	0	1	0.412841796875	0.57763671875	upper	../fonts/amplitud.ttf
2149245	WORD	wordpools/wasnorm_wordpool.txt	LTP087	ltpFR	13	9	1	BRIDGE	174	n/a	0	n/a	0	0	0	1	0.412841796875	0.57763671875	upper	../fonts/amplitud.ttf
2153370	WORD	wordpools/wasnorm_wordpool.txt	LTP087	ltpFR	13	9	1	DRUM	502	n/a	0	n/a	0	0	0	1	0.412841796875	0.57763671875	upper	../fonts/amplitud.ttf
2157236	WORD	wordpools/wasnorm_wordpool.txt	LTP087	ltpFR	13	9	1	NEPHEW	942	n/a	1	n/a	0	0	0	1	0.412841796875	0.57763671875	upper	../fonts/amplitud.ttf
2161169	WORD	wordpools/wasnorm_wordpool.txt	LTP087	ltpFR	13	9	1	ARENA	37	n/a	0	n/a	0	0	0	1	0.412841796875	0.57763671875	upper	../fonts/amplitud.ttf
2166877	REC_START	n/a	LTP087	ltpFR	13	9	n/a	n/a	n/a	n/a	n/a	n/a	0	0	0	n/a	n/a	n/a	n/a	n/a
2167969	REC_WORD	wordpools/wasnorm_wordpool.txt	LTP087	ltpFR	13	9	1	ARENA	37	n/a	0	n/a	0	0	0	n/a	n/a	n/a	n/a	n/a
2169281	REC_WORD	wordpools/wasnorm_wordpool.txt	LTP087	ltpFR	13	9	1	DRUM	502	n/a	0	n/a	0	0	0	n/a	n/a	n/a	n/a	n/a
2170254	REC_WORD	wordpools/wasnorm_wordpool.txt	LTP087	ltpFR	13	9	1	NEPHEW	942	n/a	1	n/a	0	0	0	n/a	n/a	n/a	n/a	n/a
2175103	REC_WORD	wordpools/wasnorm_wordpool.txt	LTP087	ltpFR	13	9	1	BRIDGE	174	n/a	0	n/a	0	0	0	n/a	n/a	n/a	n/a	n/a
2185509	REC_WORD	wordpools/wasnorm_wordpool.txt	LTP087	ltpFR	13	9	1	PORCUPINE	1107	n/a	0	n/a	0	0	0	n/a	n/a	n/a	n/a	n/a
2190089	REC_WORD	wordpools/wasnorm_wordpool.txt	LTP087	ltpFR	13	9	1	PASSENGER	1020	n/a	1	n/a	0	0	0	n/a	n/a	n/a	n/a	n/a
2192494	REC_WORD	wordpools/wasnorm_wordpool.txt	LTP087	ltpFR	13	9	1	FEMALE	559	n/a	1	n/a	0	0	0	n/a	n/a	n/a	n/a	n/a
2245229	WORD	wordpools/wasnorm_wordpool.txt	LTP087	ltpFR	13	10	0	DRILL	497	n/a	0	n/a	0	0	0	0	0.5869140625	0.422607421875	lower	../fonts/zerothre.ttf
2249096	WORD	wordpools/wasnorm_wordpool.txt	LTP087	ltpFR	13	10	0	TENT	1449	n/a	0	n/a	0	0	0	0	0.5869140625	0.422607421875	lower	../fonts/zerothre.ttf
2253004	WORD	wordpools/wasnorm_wordpool.txt	LTP087	ltpFR	13	10	0	FUGITIVE	612	n/a	1	n/a	0	0	0	0	0.5869140625	0.422607421875	lower	../fonts/zerothre.ttf
2257120	WORD	wordpools/wasnorm_wordpool.txt	LTP087	ltpFR	13	10	0	DENIM	446	n/a	0	n/a	0	0	0	0	0.5869140625	0.422607421875	lower	../fonts/zerothre.ttf
2261011	WORD	wordpools/wasnorm_wordpool.txt	LTP087	ltpFR	13	10	1	GAZELLE	628	n/a	0	n/a	0	0	0	1	0.412841796875	0.57763671875	upper	../fonts/amplitud.ttf
2265203	WORD	wordpools/wasnorm_wordpool.txt	LTP087	ltpFR	13	10	1	STRAWBERRY	1391	n/a	0	n/a	0	0	0	1	0.412841796875	0.57763671875	upper	../fonts/amplitud.ttf
2269345	WORD	wordpools/wasnorm_wordpool.txt	LTP087	ltpFR	13	10	1	DEPUTY	450	n/a	1	n/a	0	0	0	1	0.412841796875	0.57763671875	upper	../fonts/amplitud.ttf
2273395	WORD	wordpools/wasnorm_wordpool.txt	LTP087	ltpFR	13	10	1	SIREN	1310	n/a	0	n/a	0	0	0	1	0.412841796875	0.57763671875	upper	../fonts/amplitud.ttf
2277210	WORD	wordpools/wasnorm_wordpool.txt	LTP087	ltpFR	13	10	0	SAILOR	1223	n/a	1	n/a	0	0	0	0	0.5869140625	0.422607421875	lower	../fonts/zerothre.ttf
2281260	WORD	wordpools/wasnorm_wordpool.txt	LTP087	ltpFR	13	10	0	GIRL	637	n/a	1	n/a	0	0	0	0	0.5869140625	0.422607421875	lower	../fonts/zerothre.ttf
2285151	WORD	wordpools/wasnorm_wordpool.txt	LTP087	ltpFR	13	10	1	LADDER	793	n/a	0	n/a	0	0	0	1	0.412841796875	0.57763671875	upper	../fonts/amplitud.ttf
2289168	WORD	wordpools/wasnorm_wordpool.txt	LTP087	ltpFR	13	10	1	ANTEATER	26	n/a	1	n/a	0	0	0	1	0.412841796875	0.57763671875	upper	../fonts/amplitud.ttf
2293217	WORD	wordpools/wasnorm_wordpool.txt	LTP087	ltpFR	13	10	1	KITE	779	n/a	1	n/a	0	0	0	1	0.412841796875	0.57763671875	upper	../fonts/amplitud.ttf
2297242	WORD	wordpools/wasnorm_wordpool.txt	LTP087	ltpFR	13	10	1	MOTH	920	n/a	1	n/a	0	0	0	1	0.412841796875	0.57763671875	upper	../fonts/amplitud.ttf
2301343	WORD	wordpools/wasnorm_wordpool.txt	LTP087	ltpFR	13	10	0	JEANS	752	n/a	0	n/a	0	0	0	0	0.5869140625	0.422607421875	lower	../fonts/zerothre.ttf
2305442	WORD	wordpools/wasnorm_wordpool.txt	LTP087	ltpFR	13	10	0	CELERY	266	n/a	0	n/a	0	0	0	0	0.5869140625	0.422607421875	lower	../fonts/zerothre.ttf
2308451	START	n/a	LTP087	ltpFR	13	n/a	n/a	n/a	n/a	n/a	n/a	n/a	n/a	n/a	n/a	n/a	n/a	n/a	n/a	n/a
2309442	PROB	n/a	LTP087	ltpFR	13	n/a	n/a	n/a	n/a	n/a	n/a	16	4	4	8	n/a	n/a	n/a	n/a	n/a
2311617	PROB	n/a	LTP087	ltpFR	13	n/a	n/a	n/a	n/a	n/a	n/a	13	3	9	1	n/a	n/a	n/a	n/a	n/a
2313307	PROB	n/a	LTP087	ltpFR	13	n/a	n/a	n/a	n/a	n/a	n/a	16	7	8	1	n/a	n/a	n/a	n/a	n/a
2314542	PROB	n/a	LTP087	ltpFR	13	n/a	n/a	n/a	n/a	n/a	n/a	19	5	7	7	n/a	n/a	n/a	n/a	n/a
2316124	PROB	n/a	LTP087	ltpFR	13	n/a	n/a	n/a	n/a	n/a	n/a	1	7	8	2	n/a	n/a	n/a	n/a	n/a
2318115	PROB	n/a	LTP087	ltpFR	13	n/a	n/a	n/a	n/a	n/a	n/a	14	1	8	5	n/a	n/a	n/a	n/a	n/a
2322433	PROB	n/a	LTP087	ltpFR	13	n/a	n/a	n/a	n/a	n/a	n/a	21	9	9	3	n/a	n/a	n/a	n/a	n/a
2324211	STOP	n/a	LTP087	ltpFR	13	n/a	n/a	n/a	n/a	n/a	n/a	n/a	n/a	n/a	n/a	n/a	n/a	n/a	n/a	n/a
2326358	REC_START	n/a	LTP087	ltpFR	13	10	n/a	n/a	n/a	n/a	n/a	n/a	0	0	0	n/a	n/a	n/a	n/a	n/a
2327460	REC_WORD	wordpools/wasnorm_wordpool.txt	LTP087	ltpFR	13	10	1	KITE	779	n/a	1	n/a	0	0	0	n/a	n/a	n/a	n/a	n/a
2329146	REC_WORD	wordpools/wasnorm_wordpool.txt	LTP087	ltpFR	13	10	0	TENT	1449	n/a	0	n/a	0	0	0	n/a	n/a	n/a	n/a	n/a
2331341	REC_WORD	wordpools/wasnorm_wordpool.txt	LTP087	ltpFR	13	10	1	GAZELLE	628	n/a	0	n/a	0	0	0	n/a	n/a	n/a	n/a	n/a
2336021	REC_WORD	wordpools/wasnorm_wordpool.txt	LTP087	ltpFR	13	10	0	DRILL	497	n/a	0	n/a	0	0	0	n/a	n/a	n/a	n/a	n/a
2401942	REST_REWET	n/a	LTP087	ltpFR	13	10	n/a	n/a	n/a	n/a	n/a	n/a	0	0	0	n/a	n/a	n/a	n/a	n/a
2866384	START	n/a	LTP087	ltpFR	13	n/a	n/a	n/a	n/a	n/a	n/a	n/a	n/a	n/a	n/a	n/a	n/a	n/a	n/a	n/a
2867891	PROB	n/a	LTP087	ltpFR	13	n/a	n/a	n/a	n/a	n/a	n/a	11	6	1	4	n/a	n/a	n/a	n/a	n/a
2869608	PROB	n/a	LTP087	ltpFR	13	n/a	n/a	n/a	n/a	n/a	n/a	21	4	8	9	n/a	n/a	n/a	n/a	n/a
2871383	PROB	n/a	LTP087	ltpFR	13	n/a	n/a	n/a	n/a	n/a	n/a	14	5	1	8	n/a	n/a	n/a	n/a	n/a
2874195	STOP	n/a	LTP087	ltpFR	13	n/a	n/a	n/a	n/a	n/a	n/a	n/a	n/a	n/a	n/a	n/a	n/a	n/a	n/a	n/a
2875307	WORD	wordpools/wasnorm_wordpool.txt	LTP087	ltpFR	13	11	1	PLAYGROUND	1087	n/a	0	n/a	0	0	0	1	0.412841796875	0.57763671875	upper	../fonts/amplitud.ttf
2878315	START	n/a	LTP087	ltpFR	13	n/a	n/a	n/a	n/a	n/a	n/a	n/a	n/a	n/a	n/a	n/a	n/a	n/a	n/a	n/a
2879516	PROB	n/a	LTP087	ltpFR	13	n/a	n/a	n/a	n/a	n/a	n/a	16	9	1	6	n/a	n/a	n/a	n/a	n/a
2880881	PROB	n/a	LTP087	ltpFR	13	n/a	n/a	n/a	n/a	n/a	n/a	1	7	8	2	n/a	n/a	n/a	n/a	n/a
2882357	PROB	n/a	LTP087	ltpFR	13	n/a	n/a	n/a	n/a	n/a	n/a	18	8	5	5	n/a	n/a	n/a	n/a	n/a
2883831	PROB	n/a	LTP087	ltpFR	13	n/a	n/a	n/a	n/a	n/a	n/a	10	5	4	1	n/a	n/a	n/a	n/a	n/a
2885219	STOP	n/a	LTP087	ltpFR	13	n/a	n/a	n/a	n/a	n/a	n/a	n/a	n/a	n/a	n/a	n/a	n/a	n/a	n/a	n/a
2887289	WORD	wordpools/wasnorm_wordpool.txt	LTP087	ltpFR	13	11	1	CHERRY	293	n/a	0	n/a	0	0	0	1	0.412841796875	0.57763671875	upper	../fonts/amplitud.ttf
2890298	START	n/a	LTP087	ltpFR	13	n/a	n/a	n/a	n/a	n/a	n/a	n/a	n/a	n/a	n/a	n/a	n/a	n/a	n/a	n/a
2891431	PROB	n/a	LTP087	ltpFR	13	n/a	n/a	n/a	n/a	n/a	n/a	19	6	5	8	n/a	n/a	n/a	n/a	n/a
2892980	PROB	n/a	LTP087	ltpFR	13	n/a	n/a	n/a	n/a	n/a	n/a	14	6	6	2	n/a	n/a	n/a	n/a	n/a
2894656	PROB	n/a	LTP087	ltpFR	13	n/a	n/a	n/a	n/a	n/a	n/a	15	1	7	7	n/a	n/a	n/a	n/a	n/a
2895698	PROB	n/a	LTP087	ltpFR	13	n/a	n/a	n/a	n/a	n/a	n/a	16	8	1	7	n/a	n/a	n/a	n/a	n/a
2897147	STOP	n/a	LTP087	ltpFR	13	n/a	n/a	n/a	n/a	n/a	n/a	n/a	n/a	n/a	n/a	n/a	n/a	n/a	n/a	n/a
2899263	WORD	wordpools/wasnorm_wordpool.txt	LTP087	ltpFR	13	11	1	FRUIT	610	n/a	0	n/a	0	0	0	1	0.412841796875	0.57763671875	upper	../fonts/amplitud.ttf
2902272	START	n/a	LTP087	ltpFR	13	n/a	n/a	n/a	n/a	n/a	n/a	n/a	n/a	n/a	n/a	n/a	n/a	n/a	n/a	n/a
2903255	PROB	n/a	LTP087	ltpFR	13	n/a	n/a	n/a	n/a	n/a	n/a	9	2	5	2	n/a	n/a	n/a	n/a	n/a
2904829	PROB	n/a	LTP087	ltpFR	13	n/a	n/a	n/a	n/a	n/a	n/a	26	9	8	9	n/a	n/a	n/a	n/a	n/a
2907589	PROB	n/a	LTP087	ltpFR	13	n/a	n/a	n/a	n/a	n/a	n/a	13	4	8	1	n/a	n/a	n/a	n/a	n/a
2908923	STOP	n/a	LTP087	ltpFR	13	n/a	n/a	n/a	n/a	n/a	n/a	n/a	n/a	n/a	n/a	n/a	n/a	n/a	n/a	n/a
2911137	WORD	wordpools/wasnorm_wordpool.txt	LTP087	ltpFR	13	11	1	ASSOCIATE	49	n/a	0	n/a	0	0	0	1	0.412841796875	0.57763671875	upper	../fonts/amplitud.ttf
2914137	START	n/a	LTP087	ltpFR	13	n/a	n/a	n/a	n/a	n/a	n/a	n/a	n/a	n/a	n/a	n/a	n/a	n/a	n/a	n/a
2914987	PROB	n/a	LTP087	ltpFR	13	n/a	n/a	n/a	n/a	n/a	n/a	16	5	5	6	n/a	n/a	n/a	n/a	n/a
2916279	PROB	n/a	LTP087	ltpFR	13	n/a	n/a	n/a	n/a	n/a	n/a	16	6	8	2	n/a	n/a	n/a	n/a	n/a
2922136	STOP	n/a	LTP087	ltpFR	13	n/a	n/a	n/a	n/a	n/a	n/a	n/a	n/a	n/a	n/a	n/a	n/a	n/a	n/a	n/a
2923070	WORD	wordpools/wasnorm_wordpool.txt	LTP087	ltpFR	13	11	1	EMPLOYER	532	n/a	1	n/a	0	0	0	1	0.412841796875	0.57763671875	upper	../fonts/amplitud.ttf
2926078	START	n/a	LTP087	ltpFR	13	n/a	n/a	n/a	n/a	n/a	n/a	n/a	n/a	n/a	n/a	n/a	n/a	n/a	n/a	n/a
2926994	PROB	n/a	LTP087	ltpFR	13	n/a	n/a	n/a	n/a	n/a	n/a	21	6	6	9	n/a	n/a	n/a	n/a	n/a
2930169	PROB	n/a	LTP087	ltpFR	13	n/a	n/a	n/a	n/a	n/a	n/a	13	6	5	2	n/a	n/a	n/a	n/a	n/a
2933468	STOP	n/a	LTP087	ltpFR	13	n/a	n/a	n/a	n/a	n/a	n/a	n/a	n/a	n/a	n/a	n/a	n/a	n/a	n/a	n/a
2935110	WORD	wordpools/wasnorm_wordpool.txt	LTP087	ltpFR	13	11	1	SPARROW	1347	n/a	1	n/a	0	0	0	1	0.412841796875	0.57763671875	upper	../fonts/amplitud.ttf
2938119	START	n/a	LTP087	ltpFR	13	n/a	n/a	n/a	n/a	n/a	n/a	n/a	n/a	n/a	n/a	n/a	n/a	n/a	n/a	n/a
2939260	PROB	n/a	LTP087	ltpFR	13	n/a	n/a	n/a	n/a	n/a	n/a	17	9	6	2	n/a	n/a	n/a	n/a	n/a
2940785	PROB	n/a	LTP087	ltpFR	13	n/a	n/a	n/a	n/a	n/a	n/a	8	1	1	6	n/a	n/a	n/a	n/a	n/a
2942461	PROB	n/a	LTP087	ltpFR	13	n/a	n/a	n/a	n/a	n/a	n/a	9	4	1	4	n/a	n/a	n/a	n/a	n/a
2946119	STOP	n/a	LTP087	ltpFR	13	n/a	n/a	n/a	n/a	n/a	n/a	n/a	n/a	n/a	n/a	n/a	n/a	n/a	n/a	n/a
2947035	WORD	wordpools/wasnorm_wordpool.txt	LTP087	ltpFR	13	11	1	BAG	69	n/a	0	n/a	0	0	0	1	0.412841796875	0.57763671875	upper	../fonts/amplitud.ttf
2950043	START	n/a	LTP087	ltpFR	13	n/a	n/a	n/a	n/a	n/a	n/a	n/a	n/a	n/a	n/a	n/a	n/a	n/a	n/a	n/a
2950968	PROB	n/a	LTP087	ltpFR	13	n/a	n/a	n/a	n/a	n/a	n/a	15	5	2	7	n/a	n/a	n/a	n/a	n/a
2952801	PROB	n/a	LTP087	ltpFR	13	n/a	n/a	n/a	n/a	n/a	n/a	8	3	4	1	n/a	n/a	n/a	n/a	n/a
2955059	PROB	n/a	LTP087	ltpFR	13	n/a	n/a	n/a	n/a	n/a	n/a	14	3	9	2	n/a	n/a	n/a	n/a	n/a
2956803	STOP	n/a	LTP087	ltpFR	13	n/a	n/a	n/a	n/a	n/a	n/a	n/a	n/a	n/a	n/a	n/a	n/a	n/a	n/a	n/a
2958950	WORD	wordpools/wasnorm_wordpool.txt	LTP087	ltpFR	13	11	1	BRANCH	168	n/a	0	n/a	0	0	0	1	0.412841796875	0.57763671875	upper	../fonts/amplitud.ttf
2961951	START	n/a	LTP087	ltpFR	13	n/a	n/a	n/a	n/a	n/a	n/a	n/a	n/a	n/a	n/a	n/a	n/a	n/a	n/a	n/a
2962808	PROB	n/a	LTP087	ltpFR	13	n/a	n/a	n/a	n/a	n/a	n/a	14	2	6	6	n/a	n/a	n/a	n/a	n/a
2964075	PROB	n/a	LTP087	ltpFR	13	n/a	n/a	n/a	n/a	n/a	n/a	19	8	4	7	n/a	n/a	n/a	n/a	n/a
2966376	PROB	n/a	LTP087	ltpFR	13	n/a	n/a	n/a	n/a	n/a	n/a	10	3	1	6	n/a	n/a	n/a	n/a	n/a
2968588	STOP	n/a	LTP087	ltpFR	13	n/a	n/a	n/a	n/a	n/a	n/a	n/a	n/a	n/a	n/a	n/a	n/a	n/a	n/a	n/a
2970999	WORD	wordpools/wasnorm_wordpool.txt	LTP087	ltpFR	13	11	1	OBOE	969	n/a	0	n/a	0	0	0	1	0.412841796875	0.57763671875	upper	../fonts/amplitud.ttf
2974008	START	n/a	LTP087	ltpFR	13	n/a	n/a	n/a	n/a	n/a	n/a	n/a	n/a	n/a	n/a	n/a	n/a	n/a	n/a	n/a
2974908	PROB	n/a	LTP087	ltpFR	13	n/a	n/a	n/a	n/a	n/a	n/a	20	9	3	8	n/a	n/a	n/a	n/a	n/a
2977132	PROB	n/a	LTP087	ltpFR	13	n/a	n/a	n/a	n/a	n/a	n/a	16	5	9	2	n/a	n/a	n/a	n/a	n/a
2982008	STOP	n/a	LTP087	ltpFR	13	n/a	n/a	n/a	n/a	n/a	n/a	n/a	n/a	n/a	n/a	n/a	n/a	n/a	n/a	n/a
2982857	WORD	wordpools/wasnorm_wordpool.txt	LTP087	ltpFR	13	11	1	SCREEN	1253	n/a	0	n/a	0	0	0	1	0.412841796875	0.57763671875	upper	../fonts/amplitud.ttf
2985865	START	n/a	LTP087	ltpFR	13	n/a	n/a	n/a	n/a	n/a	n/a	n/a	n/a	n/a	n/a	n/a	n/a	n/a	n/a	n/a
2986873	PROB	n/a	LTP087	ltpFR	13	n/a	n/a	n/a	n/a	n/a	n/a	15	2	6	7	n/a	n/a	n/a	n/a	n/a
2988165	PROB	n/a	LTP087	ltpFR	13	n/a	n/a	n/a	n/a	n/a	n/a	19	9	5	5	n/a	n/a	n/a	n/a	n/a
2989332	PROB	n/a	LTP087	ltpFR	13	n/a	n/a	n/a	n/a	n/a	n/a	18	9	3	6	n/a	n/a	n/a	n/a	n/a
2991323	PROB	n/a	LTP087	ltpFR	13	n/a	n/a	n/a	n/a	n/a	n/a	15	1	7	7	n/a	n/a	n/a	n/a	n/a
2992468	STOP	n/a	LTP087	ltpFR	13	n/a	n/a	n/a	n/a	n/a	n/a	n/a	n/a	n/a	n/a	n/a	n/a	n/a	n/a	n/a
2994781	WORD	wordpools/wasnorm_wordpool.txt	LTP087	ltpFR	13	11	1	ENGINEER	536	n/a	1	n/a	0	0	0	1	0.412841796875	0.57763671875	upper	../fonts/amplitud.ttf
2997790	START	n/a	LTP087	ltpFR	13	n/a	n/a	n/a	n/a	n/a	n/a	n/a	n/a	n/a	n/a	n/a	n/a	n/a	n/a	n/a
2998682	PROB	n/a	LTP087	ltpFR	13	n/a	n/a	n/a	n/a	n/a	n/a	11	1	3	7	n/a	n/a	n/a	n/a	n/a
3000281	PROB	n/a	LTP087	ltpFR	13	n/a	n/a	n/a	n/a	n/a	n/a	20	8	5	7	n/a	n/a	n/a	n/a	n/a
3005789	STOP	n/a	LTP087	ltpFR	13	n/a	n/a	n/a	n/a	n/a	n/a	n/a	n/a	n/a	n/a	n/a	n/a	n/a	n/a	n/a
3006988	WORD	wordpools/wasnorm_wordpool.txt	LTP087	ltpFR	13	11	1	BIRD	129	n/a	1	n/a	0	0	0	1	0.412841796875	0.57763671875	upper	../fonts/amplitud.ttf
3009989	START	n/a	LTP087	ltpFR	13	n/a	n/a	n/a	n/a	n/a	n/a	n/a	n/a	n/a	n/a	n/a	n/a	n/a	n/a	n/a
3010963	PROB	n/a	LTP087	ltpFR	13	n/a	n/a	n/a	n/a	n/a	n/a	4	9	1	4	n/a	n/a	n/a	n/a	n/a
3015046	PROB	n/a	LTP087	ltpFR	13	n/a	n/a	n/a	n/a	n/a	n/a	14	4	4	6	n/a	n/a	n/a	n/a	n/a
3016636	STOP	n/a	LTP087	ltpFR	13	n/a	n/a	n/a	n/a	n/a	n/a	n/a	n/a	n/a	n/a	n/a	n/a	n/a	n/a	n/a
3019146	WORD	wordpools/wasnorm_wordpool.txt	LTP087	ltpFR	13	11	1	HALL	677	n/a	0	n/a	0	0	0	1	0.412841796875	0.57763671875	upper	../fonts/amplitud.ttf
3022154	START	n/a	LTP087	ltpFR	13	n/a	n/a	n/a	n/a	n/a	n/a	n/a	n/a	n/a	n/a	n/a	n/a	n/a	n/a	n/a
3023338	PROB	n/a	LTP087	ltpFR	13	n/a	n/a	n/a	n/a	n/a	n/a	10	1	4	5	n/a	n/a	n/a	n/a	n/a
3025338	PROB	n/a	LTP087	ltpFR	13	n/a	n/a	n/a	n/a	n/a	n/a	17	8	2	7	n/a	n/a	n/a	n/a	n/a
3027530	PROB	n/a	LTP087	ltpFR	13	n/a	n/a	n/a	n/a	n/a	n/a	12	3	2	7	n/a	n/a	n/a	n/a	n/a
3028899	STOP	n/a	LTP087	ltpFR	13	n/a	n/a	n/a	n/a	n/a	n/a	n/a	n/a	n/a	n/a	n/a	n/a	n/a	n/a	n/a
3031087	WORD	wordpools/wasnorm_wordpool.txt	LTP087	ltpFR	13	11	1	RAILROAD	1162	n/a	0	n/a	0	0	0	1	0.412841796875	0.57763671875	upper	../fonts/amplitud.ttf
3034095	START	n/a	LTP087	ltpFR	13	n/a	n/a	n/a	n/a	n/a	n/a	n/a	n/a	n/a	n/a	n/a	n/a	n/a	n/a	n/a
3035036	PROB	n/a	LTP087	ltpFR	13	n/a	n/a	n/a	n/a	n/a	n/a	7	1	4	2	n/a	n/a	n/a	n/a	n/a
3036646	PROB	n/a	LTP087	ltpFR	13	n/a	n/a	n/a	n/a	n/a	n/a	11	1	1	9	n/a	n/a	n/a	n/a	n/a
3037869	PROB	n/a	LTP087	ltpFR	13	n/a	n/a	n/a	n/a	n/a	n/a	13	7	4	2	n/a	n/a	n/a	n/a	n/a
3039512	PROB	n/a	LTP087	ltpFR	13	n/a	n/a	n/a	n/a	n/a	n/a	17	3	9	5	n/a	n/a	n/a	n/a	n/a
3041243	STOP	n/a	LTP087	ltpFR	13	n/a	n/a	n/a	n/a	n/a	n/a	n/a	n/a	n/a	n/a	n/a	n/a	n/a	n/a	n/a
3042944	WORD	wordpools/wasnorm_wordpool.txt	LTP087	ltpFR	13	11	1	STEAM	1375	n/a	0	n/a	0	0	0	1	0.412841796875	0.57763671875	upper	../fonts/amplitud.ttf
3045953	START	n/a	LTP087	ltpFR	13	n/a	n/a	n/a	n/a	n/a	n/a	n/a	n/a	n/a	n/a	n/a	n/a	n/a	n/a	n/a
3046794	PROB	n/a	LTP087	ltpFR	13	n/a	n/a	n/a	n/a	n/a	n/a	16	6	1	9	n/a	n/a	n/a	n/a	n/a
3048528	PROB	n/a	LTP087	ltpFR	13	n/a	n/a	n/a	n/a	n/a	n/a	18	9	4	5	n/a	n/a	n/a	n/a	n/a
3053953	STOP	n/a	LTP087	ltpFR	13	n/a	n/a	n/a	n/a	n/a	n/a	n/a	n/a	n/a	n/a	n/a	n/a	n/a	n/a	n/a
3055051	WORD	wordpools/wasnorm_wordpool.txt	LTP087	ltpFR	13	11	1	PIPE	1073	n/a	0	n/a	0	0	0	1	0.412841796875	0.57763671875	upper	../fonts/amplitud.ttf
3058060	START	n/a	LTP087	ltpFR	13	n/a	n/a	n/a	n/a	n/a	n/a	n/a	n/a	n/a	n/a	n/a	n/a	n/a	n/a	n/a
3059051	PROB	n/a	LTP087	ltpFR	13	n/a	n/a	n/a	n/a	n/a	n/a	11	2	4	5	n/a	n/a	n/a	n/a	n/a
3060652	PROB	n/a	LTP087	ltpFR	13	n/a	n/a	n/a	n/a	n/a	n/a	22	8	8	6	n/a	n/a	n/a	n/a	n/a
3062326	PROB	n/a	LTP087	ltpFR	13	n/a	n/a	n/a	n/a	n/a	n/a	11	2	2	7	n/a	n/a	n/a	n/a	n/a
3066059	STOP	n/a	LTP087	ltpFR	13	n/a	n/a	n/a	n/a	n/a	n/a	n/a	n/a	n/a	n/a	n/a	n/a	n/a	n/a	n/a
3067809	REC_START	n/a	LTP087	ltpFR	13	11	n/a	n/a	n/a	n/a	n/a	n/a	0	0	0	n/a	n/a	n/a	n/a	n/a
3068981	REC_WORD	wordpools/wasnorm_wordpool.txt	LTP087	ltpFR	13	11	1	BIRD	129	n/a	1	n/a	0	0	0	n/a	n/a	n/a	n/a	n/a
3070149	REC_WORD	wordpools/wasnorm_wordpool.txt	LTP087	ltpFR	13	11	1	ENGINEER	536	n/a	1	n/a	0	0	0	n/a	n/a	n/a	n/a	n/a
3071416	REC_WORD	wordpools/wasnorm_wordpool.txt	LTP087	ltpFR	13	11	1	PIPE	1073	n/a	0	n/a	0	0	0	n/a	n/a	n/a	n/a	n/a
3076584	REC_WORD	wordpools/wasnorm_wordpool.txt	LTP087	ltpFR	13	11	1	SCREEN	1253	n/a	0	n/a	0	0	0	n/a	n/a	n/a	n/a	n/a
3146629	WORD	wordpools/wasnorm_wordpool.txt	LTP087	ltpFR	13	12	0	LEG	809	n/a	0	n/a	0	0	0	0	0.5869140625	0.422607421875	lower	../fonts/zerothre.ttf
3150562	WORD	wordpools/wasnorm_wordpool.txt	LTP087	ltpFR	13	12	0	SHOULDER	1294	n/a	0	n/a	0	0	0	0	0.5869140625	0.422607421875	lower	../fonts/zerothre.ttf
3154478	WORD	wordpools/wasnorm_wordpool.txt	LTP087	ltpFR	13	12	0	BOWL	158	n/a	0	n/a	0	0	0	0	0.5869140625	0.422607421875	lower	../fonts/zerothre.ttf
3158503	WORD	wordpools/wasnorm_wordpool.txt	LTP087	ltpFR	13	12	0	JAR	750	n/a	1	n/a	0	0	0	0	0.5869140625	0.422607421875	lower	../fonts/zerothre.ttf
3162428	WORD	wordpools/wasnorm_wordpool.txt	LTP087	ltpFR	13	12	0	TROUSERS	1510	n/a	0	n/a	0	0	0	0	0.5869140625	0.422607421875	lower	../fonts/zerothre.ttf
3166577	WORD	wordpools/wasnorm_wordpool.txt	LTP087	ltpFR	13	12	0	COBWEB	337	n/a	0	n/a	0	0	0	0	0.5869140625	0.422607421875	lower	../fonts/zerothre.ttf
3170452	WORD	wordpools/wasnorm_wordpool.txt	LTP087	ltpFR	13	12	0	TAR	1435	n/a	0	n/a	0	0	0	0	0.5869140625	0.422607421875	lower	../fonts/zerothre.ttf
3174627	WORD	wordpools/wasnorm_wordpool.txt	LTP087	ltpFR	13	12	0	FREEWAY	603	n/a	1	n/a	0	0	0	0	0.5869140625	0.422607421875	lower	../fonts/zerothre.ttf
3178784	WORD	wordpools/wasnorm_wordpool.txt	LTP087	ltpFR	13	12	0	COMET	353	n/a	0	n/a	0	0	0	0	0.5869140625	0.422607421875	lower	../fonts/zerothre.ttf
3182659	WORD	wordpools/wasnorm_wordpool.txt	LTP087	ltpFR	13	12	0	HERD	705	n/a	1	n/a	0	0	0	0	0.5869140625	0.422607421875	lower	../fonts/zerothre.ttf
3186817	WORD	wordpools/wasnorm_wordpool.txt	LTP087	ltpFR	13	12	0	SURGEON	1413	n/a	1	n/a	0	0	0	0	0.5869140625	0.422607421875	lower	../fonts/zerothre.ttf
3190775	WORD	wordpools/wasnorm_wordpool.txt	LTP087	ltpFR	13	12	0	FARM	552	n/a	1	n/a	0	0	0	0	0.5869140625	0.422607421875	lower	../fonts/zerothre.ttf
3194799	WORD	wordpools/wasnorm_wordpool.txt	LTP087	ltpFR	13	12	0	TELESCOPE	1446	n/a	1	n/a	0	0	0	0	0.5869140625	0.422607421875	lower	../fonts/zerothre.ttf
3198849	WORD	wordpools/wasnorm_wordpool.txt	LTP087	ltpFR	13	12	0	WAIST	1579	n/a	1	n/a	0	0	0	0	0.5869140625	0.422607421875	lower	../fonts/zerothre.ttf
3202882	WORD	wordpools/wasnorm_wordpool.txt	LTP087	ltpFR	13	12	0	RANCH	1166	n/a	1	n/a	0	0	0	0	0.5869140625	0.422607421875	lower	../fonts/zerothre.ttf
3206990	WORD	wordpools/wasnorm_wordpool.txt	LTP087	ltpFR	13	12	0	DENTIST	447	n/a	1	n/a	0	0	0	0	0.5869140625	0.422607421875	lower	../fonts/zerothre.ttf
3209998	START	n/a	LTP087	ltpFR	13	n/a	n/a	n/a	n/a	n/a	n/a	n/a	n/a	n/a	n/a	n/a	n/a	n/a	n/a	n/a
3211023	PROB	n/a	LTP087	ltpFR	13	n/a	n/a	n/a	n/a	n/a	n/a	15	6	4	5	n/a	n/a	n/a	n/a	n/a
3212707	PROB	n/a	LTP087	ltpFR	13	n/a	n/a	n/a	n/a	n/a	n/a	17	8	8	1	n/a	n/a	n/a	n/a	n/a
3214964	PROB	n/a	LTP087	ltpFR	13	n/a	n/a	n/a	n/a	n/a	n/a	11	3	1	7	n/a	n/a	n/a	n/a	n/a
3217997	STOP	n/a	LTP087	ltpFR	13	n/a	n/a	n/a	n/a	n/a	n/a	n/a	n/a	n/a	n/a	n/a	n/a	n/a	n/a	n/a
3219881	REC_START	n/a	LTP087	ltpFR	13	12	n/a	n/a	n/a	n/a	n/a	n/a	0	0	0	n/a	n/a	n/a	n/a	n/a
3220654	REC_WORD	wordpools/wasnorm_wordpool.txt	LTP087	ltpFR	13	12	0	DENTIST	447	n/a	1	n/a	0	0	0	n/a	n/a	n/a	n/a	n/a
3223787	REC_WORD	wordpools/wasnorm_wordpool.txt	LTP087	ltpFR	13	12	0	FREEWAY	603	n/a	1	n/a	0	0	0	n/a	n/a	n/a	n/a	n/a
3225219	REC_WORD	wordpools/wasnorm_wordpool.txt	LTP087	ltpFR	13	12	0	LEG	809	n/a	0	n/a	0	0	0	n/a	n/a	n/a	n/a	n/a
3225962	REC_WORD	wordpools/wasnorm_wordpool.txt	LTP087	ltpFR	13	12	0	SHOULDER	1294	n/a	0	n/a	0	0	0	n/a	n/a	n/a	n/a	n/a
3227060	REC_WORD	wordpools/wasnorm_wordpool.txt	LTP087	ltpFR	13	12	0	JAR	750	n/a	1	n/a	0	0	0	n/a	n/a	n/a	n/a	n/a
3227987	REC_WORD	wordpools/wasnorm_wordpool.txt	LTP087	ltpFR	13	12	0	BOWL	158	n/a	0	n/a	0	0	0	n/a	n/a	n/a	n/a	n/a
3307634	REC_START	n/a	LTP087	ltpFR	13	n/a	n/a	n/a	n/a	n/a	n/a	n/a	0	0	0	n/a	n/a	n/a	n/a	n/a
3311291	FFR_REC_WORD	wordpools/wasnorm_wordpool.txt	LTP087	ltpFR	13	n/a	1	PIPE	1073	n/a	0	n/a	0	0	0	n/a	n/a	n/a	n/a	n/a
3312388	FFR_REC_WORD	wordpools/wasnorm_wordpool.txt	LTP087	ltpFR	13	n/a	1	SCREEN	1253	n/a	0	n/a	0	0	0	n/a	n/a	n/a	n/a	n/a
3315641	FFR_REC_WORD	wordpools/wasnorm_wordpool.txt	LTP087	ltpFR	13	n/a	1	SALESMAN	1225	n/a	1	n/a	0	0	0	n/a	n/a	n/a	n/a	n/a
3318744	FFR_REC_WORD	wordpools/wasnorm_wordpool.txt	LTP087	ltpFR	13	n/a	0	LEG	809	n/a	0	n/a	0	0	0	n/a	n/a	n/a	n/a	n/a
3319392	FFR_REC_WORD	wordpools/wasnorm_wordpool.txt	LTP087	ltpFR	13	n/a	0	SHOULDER	1294	n/a	0	n/a	0	0	0	n/a	n/a	n/a	n/a	n/a
3320300	FFR_REC_WORD	wordpools/wasnorm_wordpool.txt	LTP087	ltpFR	13	n/a	0	JAR	750	n/a	1	n/a	0	0	0	n/a	n/a	n/a	n/a	n/a
3320998	FFR_REC_WORD	wordpools/wasnorm_wordpool.txt	LTP087	ltpFR	13	n/a	0	BOWL	158	n/a	0	n/a	0	0	0	n/a	n/a	n/a	n/a	n/a
3326636	FFR_REC_WORD	wordpools/wasnorm_wordpool.txt	LTP087	ltpFR	13	n/a	0	CACTUS	215	n/a	0	n/a	0	0	0	n/a	n/a	n/a	n/a	n/a
3574123	FFR_REC_WORD	wordpools/wasnorm_wordpool.txt	LTP087	ltpFR	13	n/a	0	DRILL	497	n/a	0	n/a	0	0	0	n/a	n/a	n/a	n/a	n/a
3579661	FFR_REC_WORD	wordpools/wasnorm_wordpool.txt	LTP087	ltpFR	13	n/a	0	TENT	1449	n/a	0	n/a	0	0	0	n/a	n/a	n/a	n/a	n/a
3584290	FFR_REC_WORD	wordpools/wasnorm_wordpool.txt	LTP087	ltpFR	13	n/a	0	CHEF	290	n/a	1	n/a	0	0	0	n/a	n/a	n/a	n/a	n/a
3589398	FFR_REC_WORD	wordpools/wasnorm_wordpool.txt	LTP087	ltpFR	13	n/a	0	STEW	1380	n/a	0	n/a	0	0	0	n/a	n/a	n/a	n/a	n/a
3622868	REC_START	n/a	LTP087	ltpFR	13	1	n/a	n/a	n/a	n/a	n/a	n/a	0	0	0	n/a	n/a	n/a	n/a	n/a
3622909	RECOG_LURE	n/a	LTP087	ltpFR	13	1	n/a	CLARINET	317	3	n/a	n/a	0	0	0	n/a	n/a	n/a	n/a	n/a
3624439	RECOG_RESP	n/a	LTP087	ltpFR	13	1	n/a	CLARINET	317	n/a	n/a	n/a	0	0	0	n/a	n/a	n/a	n/a	n/a
3625237	RECOG_CONF	n/a	LTP087	ltpFR	13	1	n/a	CLARINET	317	3	n/a	n/a	0	0	0	n/a	n/a	n/a	n/a	n/a
3626718	RECOG_TARGET	n/a	LTP087	ltpFR	13	1	0	ELBOW	520	4	1	n/a	0	0	0	n/a	n/a	n/a	n/a	n/a
3627991	RECOG_RESP	n/a	LTP087	ltpFR	13	1	0	ELBOW	520	n/a	1	n/a	0	0	0	n/a	n/a	n/a	n/a	n/a
3628610	RECOG_CONF	n/a	LTP087	ltpFR	13	1	0	ELBOW	520	4	1	n/a	0	0	0	n/a	n/a	n/a	n/a	n/a
3629941	RECOG_LURE	n/a	LTP087	ltpFR	13	1	n/a	NUN	962	3	n/a	n/a	0	0	0	n/a	n/a	n/a	n/a	n/a
3630954	RECOG_RESP	n/a	LTP087	ltpFR	13	1	n/a	NUN	962	n/a	n/a	n/a	0	0	0	n/a	n/a	n/a	n/a	n/a
3631553	RECOG_CONF	n/a	LTP087	ltpFR	13	1	n/a	NUN	962	3	n/a	n/a	0	0	0	n/a	n/a	n/a	n/a	n/a
3632866	RECOG_TARGET	n/a	LTP087	ltpFR	13	1	0	STEM	1376	3	0	n/a	0	0	0	n/a	n/a	n/a	n/a	n/a
3634207	RECOG_RESP	n/a	LTP087	ltpFR	13	1	0	STEM	1376	n/a	0	n/a	0	0	0	n/a	n/a	n/a	n/a	n/a
3635015	RECOG_CONF	n/a	LTP087	ltpFR	13	1	0	STEM	1376	3	0	n/a	0	0	0	n/a	n/a	n/a	n/a	n/a
3636467	RECOG_TARGET	n/a	LTP087	ltpFR	13	1	0	COSTUME	383	4	0	n/a	0	0	0	n/a	n/a	n/a	n/a	n/a
3637270	RECOG_RESP	n/a	LTP087	ltpFR	13	1	0	COSTUME	383	n/a	0	n/a	0	0	0	n/a	n/a	n/a	n/a	n/a
3637804	RECOG_CONF	n/a	LTP087	ltpFR	13	1	0	COSTUME	383	4	0	n/a	0	0	0	n/a	n/a	n/a	n/a	n/a
3639141	RECOG_TARGET	n/a	LTP087	ltpFR	13	1	1	SHERIFF	1284	5	0	n/a	0	0	0	n/a	n/a	n/a	n/a	n/a
3639884	RECOG_RESP	n/a	LTP087	ltpFR	13	1	1	SHERIFF	1284	n/a	0	n/a	0	0	0	n/a	n/a	n/a	n/a	n/a
3640343	RECOG_CONF	n/a	LTP087	ltpFR	13	1	1	SHERIFF	1284	5	0	n/a	0	0	0	n/a	n/a	n/a	n/a	n/a
3641675	RECOG_TARGET	n/a	LTP087	ltpFR	13	1	1	BAKER	71	3	1	n/a	0	0	0	n/a	n/a	n/a	n/a	n/a
3642638	RECOG_RESP	n/a	LTP087	ltpFR	13	1	1	BAKER	71	n/a	1	n/a	0	0	0	n/a	n/a	n/a	n/a	n/a
3643157	RECOG_CONF	n/a	LTP087	ltpFR	13	1	1	BAKER	71	3	1	n/a	0	0	0	n/a	n/a	n/a	n/a	n/a
3644525	RECOG_TARGET	n/a	LTP087	ltpFR	13	1	0	THORN	1459	5	0	n/a	0	0	0	n/a	n/a	n/a	n/a	n/a
3645222	RECOG_RESP	n/a	LTP087	ltpFR	13	1	0	THORN	1459	n/a	0	n/a	0	0	0	n/a	n/a	n/a	n/a	n/a
3645617	RECOG_CONF	n/a	LTP087	ltpFR	13	1	0	THORN	1459	5	0	n/a	0	0	0	n/a	n/a	n/a	n/a	n/a
3647032	RECOG_TARGET	n/a	LTP087	ltpFR	13	1	0	TAXI	1438	3	1	n/a	0	0	0	n/a	n/a	n/a	n/a	n/a
3647806	RECOG_RESP	n/a	LTP087	ltpFR	13	1	0	TAXI	1438	n/a	1	n/a	0	0	0	n/a	n/a	n/a	n/a	n/a
3648295	RECOG_CONF	n/a	LTP087	ltpFR	13	1	0	TAXI	1438	3	1	n/a	0	0	0	n/a	n/a	n/a	n/a	n/a
3649624	RECOG_TARGET	n/a	LTP087	ltpFR	13	1	0	WHEEL	1603	3	0	n/a	0	0	0	n/a	n/a	n/a	n/a	n/a
3650330	RECOG_RESP	n/a	LTP087	ltpFR	13	1	0	WHEEL	1603	n/a	0	n/a	0	0	0	n/a	n/a	n/a	n/a	n/a
3650829	RECOG_CONF	n/a	LTP087	ltpFR	13	1	0	WHEEL	1603	3	0	n/a	0	0	0	n/a	n/a	n/a	n/a	n/a
3652156	RECOG_TARGET	n/a	LTP087	ltpFR	13	1	0	BARLEY	88	4	1	n/a	0	0	0	n/a	n/a	n/a	n/a	n/a
3652775	RECOG_RESP	n/a	LTP087	ltpFR	13	1	0	BARLEY	88	n/a	1	n/a	0	0	0	n/a	n/a	n/a	n/a	n/a
3653216	RECOG_CONF	n/a	LTP087	ltpFR	13	1	0	BARLEY	88	4	1	n/a	0	0	0	n/a	n/a	n/a	n/a	n/a
3654657	RECOG_TARGET	n/a	LTP087	ltpFR	13	1	1	PLAYGROUND	1087	5	0	n/a	0	0	0	n/a	n/a	n/a	n/a	n/a
3655259	RECOG_RESP	n/a	LTP087	ltpFR	13	1	1	PLAYGROUND	1087	n/a	0	n/a	0	0	0	n/a	n/a	n/a	n/a	n/a
3655788	RECOG_CONF	n/a	LTP087	ltpFR	13	1	1	PLAYGROUND	1087	5	0	n/a	0	0	0	n/a	n/a	n/a	n/a	n/a
3657189	RECOG_TARGET	n/a	LTP087	ltpFR	13	1	0	TERMINAL	1450	4	0	n/a	0	0	0	n/a	n/a	n/a	n/a	n/a
3658013	RECOG_RESP	n/a	LTP087	ltpFR	13	1	0	TERMINAL	1450	n/a	0	n/a	0	0	0	n/a	n/a	n/a	n/a	n/a
3658477	RECOG_CONF	n/a	LTP087	ltpFR	13	1	0	TERMINAL	1450	4	0	n/a	0	0	0	n/a	n/a	n/a	n/a	n/a
3659889	RECOG_LURE	n/a	LTP087	ltpFR	13	1	n/a	LUGGAGE	847	3	n/a	n/a	0	0	0	n/a	n/a	n/a	n/a	n/a
3660847	RECOG_RESP	n/a	LTP087	ltpFR	13	1	n/a	LUGGAGE	847	n/a	n/a	n/a	0	0	0	n/a	n/a	n/a	n/a	n/a
3661315	RECOG_CONF	n/a	LTP087	ltpFR	13	1	n/a	LUGGAGE	847	3	n/a	n/a	0	0	0	n/a	n/a	n/a	n/a	n/a
3662657	RECOG_TARGET	n/a	LTP087	ltpFR	13	1	0	INVENTOR	743	2	1	n/a	0	0	0	n/a	n/a	n/a	n/a	n/a
3663540	RECOG_RESP	n/a	LTP087	ltpFR	13	1	0	INVENTOR	743	n/a	1	n/a	0	0	0	n/a	n/a	n/a	n/a	n/a
3664009	RECOG_CONF	n/a	LTP087	ltpFR	13	1	0	INVENTOR	743	2	1	n/a	0	0	0	n/a	n/a	n/a	n/a	n/a
3665406	RECOG_TARGET	n/a	LTP087	ltpFR	13	1	1	ANIMAL	23	4	1	n/a	0	0	0	n/a	n/a	n/a	n/a	n/a
3666154	RECOG_RESP	n/a	LTP087	ltpFR	13	1	1	ANIMAL	23	n/a	1	n/a	0	0	0	n/a	n/a	n/a	n/a	n/a
3666643	RECOG_CONF	n/a	LTP087	ltpFR	13	1	1	ANIMAL	23	4	1	n/a	0	0	0	n/a	n/a	n/a	n/a	n/a
3668022	RECOG_TARGET	n/a	LTP087	ltpFR	13	1	1	ARTERY	41	5	0	n/a	0	0	0	n/a	n/a	n/a	n/a	n/a
3668709	RECOG_RESP	n/a	LTP087	ltpFR	13	1	1	ARTERY	41	n/a	0	n/a	0	0	0	n/a	n/a	n/a	n/a	n/a
3669127	RECOG_CONF	n/a	LTP087	ltpFR	13	1	1	ARTERY	41	5	0	n/a	0	0	0	n/a	n/a	n/a	n/a	n/a
3670539	RECOG_TARGET	n/a	LTP087	ltpFR	13	1	0	LEG	809	5	0	n/a	0	0	0	n/a	n/a	n/a	n/a	n/a
3671133	RECOG_RESP	n/a	LTP087	ltpFR	13	1	0	LEG	809	n/a	0	n/a	0	0	0	n/a	n/a	n/a	n/a	n/a
3671551	RECOG_CONF	n/a	LTP087	ltpFR	13	1	0	LEG	809	5	0	n/a	0	0	0	n/a	n/a	n/a	n/a	n/a
3672980	RECOG_LURE	n/a	LTP087	ltpFR	13	1	n/a	BREAST	171	3	n/a	n/a	0	0	0	n/a	n/a	n/a	n/a	n/a
3673717	RECOG_RESP	n/a	LTP087	ltpFR	13	1	n/a	BREAST	171	n/a	n/a	n/a	0	0	0	n/a	n/a	n/a	n/a	n/a
3674944	RECOG_CONF	n/a	LTP087	ltpFR	13	1	n/a	BREAST	171	3	n/a	n/a	0	0	0	n/a	n/a	n/a	n/a	n/a
3676313	RECOG_TARGET	n/a	LTP087	ltpFR	13	1	1	MOSS	918	3	0	n/a	0	0	0	n/a	n/a	n/a	n/a	n/a
3677129	RECOG_RESP	n/a	LTP087	ltpFR	13	1	1	MOSS	918	n/a	0	n/a	0	0	0	n/a	n/a	n/a	n/a	n/a
3677728	RECOG_CONF	n/a	LTP087	ltpFR	13	1	1	MOSS	918	3	0	n/a	0	0	0	n/a	n/a	n/a	n/a	n/a
3680638	REC_START	n/a	LTP087	ltpFR	13	2	n/a	n/a	n/a	n/a	n/a	n/a	0	0	0	n/a	n/a	n/a	n/a	n/a
3680672	RECOG_LURE	n/a	LTP087	ltpFR	13	2	n/a	ROOF	1205	3	n/a	n/a	0	0	0	n/a	n/a	n/a	n/a	n/a
3681651	RECOG_RESP	n/a	LTP087	ltpFR	13	2	n/a	ROOF	1205	n/a	n/a	n/a	0	0	0	n/a	n/a	n/a	n/a	n/a
3682209	RECOG_CONF	n/a	LTP087	ltpFR	13	2	n/a	ROOF	1205	3	n/a	n/a	0	0	0	n/a	n/a	n/a	n/a	n/a
3683472	RECOG_TARGET	n/a	LTP087	ltpFR	13	2	1	CHEST	295	3	0	n/a	0	0	0	n/a	n/a	n/a	n/a	n/a
3684155	RECOG_RESP	n/a	LTP087	ltpFR	13	2	1	CHEST	295	n/a	0	n/a	0	0	0	n/a	n/a	n/a	n/a	n/a
3684704	RECOG_CONF	n/a	LTP087	ltpFR	13	2	1	CHEST	295	3	0	n/a	0	0	0	n/a	n/a	n/a	n/a	n/a
3686021	RECOG_TARGET	n/a	LTP087	ltpFR	13	2	1	DRUM	502	4	0	n/a	0	0	0	n/a	n/a	n/a	n/a	n/a
3686599	RECOG_RESP	n/a	LTP087	ltpFR	13	2	1	DRUM	502	n/a	0	n/a	0	0	0	n/a	n/a	n/a	n/a	n/a
3687108	RECOG_CONF	n/a	LTP087	ltpFR	13	2	1	DRUM	502	4	0	n/a	0	0	0	n/a	n/a	n/a	n/a	n/a
3688430	RECOG_TARGET	n/a	LTP087	ltpFR	13	2	1	PORCUPINE	1107	5	0	n/a	0	0	0	n/a	n/a	n/a	n/a	n/a
3689074	RECOG_RESP	n/a	LTP087	ltpFR	13	2	1	PORCUPINE	1107	n/a	0	n/a	0	0	0	n/a	n/a	n/a	n/a	n/a
3689602	RECOG_CONF	n/a	LTP087	ltpFR	13	2	1	PORCUPINE	1107	5	0	n/a	0	0	0	n/a	n/a	n/a	n/a	n/a
3690879	RECOG_TARGET	n/a	LTP087	ltpFR	13	2	0	TELEPHONE	1445	4	0	n/a	0	0	0	n/a	n/a	n/a	n/a	n/a
3691393	RECOG_RESP	n/a	LTP087	ltpFR	13	2	0	TELEPHONE	1445	n/a	0	n/a	0	0	0	n/a	n/a	n/a	n/a	n/a
3691955	RECOG_CONF	n/a	LTP087	ltpFR	13	2	0	TELEPHONE	1445	4	0	n/a	0	0	0	n/a	n/a	n/a	n/a	n/a
3693253	RECOG_TARGET	n/a	LTP087	ltpFR	13	2	0	JAR	750	4	1	n/a	0	0	0	n/a	n/a	n/a	n/a	n/a
3693923	RECOG_RESP	n/a	LTP087	ltpFR	13	2	0	JAR	750	n/a	1	n/a	0	0	0	n/a	n/a	n/a	n/a	n/a
3694441	RECOG_CONF	n/a	LTP087	ltpFR	13	2	0	JAR	750	4	1	n/a	0	0	0	n/a	n/a	n/a	n/a	n/a
3695811	RECOG_TARGET	n/a	LTP087	ltpFR	13	2	0	CRAB	397	4	0	n/a	0	0	0	n/a	n/a	n/a	n/a	n/a
3696497	RECOG_RESP	n/a	LTP087	ltpFR	13	2	0	CRAB	397	n/a	0	n/a	0	0	0	n/a	n/a	n/a	n/a	n/a
3697008	RECOG_CONF	n/a	LTP087	ltpFR	13	2	0	CRAB	397	4	0	n/a	0	0	0	n/a	n/a	n/a	n/a	n/a
3698446	RECOG_TARGET	n/a	LTP087	ltpFR	13	2	1	SPATULA	1348	4	0	n/a	0	0	0	n/a	n/a	n/a	n/a	n/a
3699241	RECOG_RESP	n/a	LTP087	ltpFR	13	2	1	SPATULA	1348	n/a	0	n/a	0	0	0	n/a	n/a	n/a	n/a	n/a
3699759	RECOG_CONF	n/a	LTP087	ltpFR	13	2	1	SPATULA	1348	4	0	n/a	0	0	0	n/a	n/a	n/a	n/a	n/a
3701094	RECOG_TARGET	n/a	LTP087	ltpFR	13	2	1	PLANT	1083	4	1	n/a	0	0	0	n/a	n/a	n/a	n/a	n/a
3701725	RECOG_RESP	n/a	LTP087	ltpFR	13	2	1	PLANT	1083	n/a	1	n/a	0	0	0	n/a	n/a	n/a	n/a	n/a
3702214	RECOG_CONF	n/a	LTP087	ltpFR	13	2	1	PLANT	1083	4	1	n/a	0	0	0	n/a	n/a	n/a	n/a	n/a
3703487	RECOG_TARGET	n/a	LTP087	ltpFR	13	2	1	KNIFE	785	4	0	n/a	0	0	0	n/a	n/a	n/a	n/a	n/a
3704129	RECOG_RESP	n/a	LTP087	ltpFR	13	2	1	KNIFE	785	n/a	0	n/a	0	0	0	n/a	n/a	n/a	n/a	n/a
3704640	RECOG_CONF	n/a	LTP087	ltpFR	13	2	1	KNIFE	785	4	0	n/a	0	0	0	n/a	n/a	n/a	n/a	n/a
3705961	RECOG_TARGET	n/a	LTP087	ltpFR	13	2	0	FUGITIVE	612	5	1	n/a	0	0	0	n/a	n/a	n/a	n/a	n/a
3706604	RECOG_RESP	n/a	LTP087	ltpFR	13	2	0	FUGITIVE	612	n/a	1	n/a	0	0	0	n/a	n/a	n/a	n/a	n/a
3707068	RECOG_CONF	n/a	LTP087	ltpFR	13	2	0	FUGITIVE	612	5	1	n/a	0	0	0	n/a	n/a	n/a	n/a	n/a
3708478	RECOG_LURE	n/a	LTP087	ltpFR	13	2	n/a	SEAL	1262	3	n/a	n/a	0	0	0	n/a	n/a	n/a	n/a	n/a
3709178	RECOG_RESP	n/a	LTP087	ltpFR	13	2	n/a	SEAL	1262	n/a	n/a	n/a	0	0	0	n/a	n/a	n/a	n/a	n/a
3709717	RECOG_CONF	n/a	LTP087	ltpFR	13	2	n/a	SEAL	1262	3	n/a	n/a	0	0	0	n/a	n/a	n/a	n/a	n/a
3711027	RECOG_TARGET	n/a	LTP087	ltpFR	13	2	1	DILL	465	4	0	n/a	0	0	0	n/a	n/a	n/a	n/a	n/a
3712181	RECOG_RESP	n/a	LTP087	ltpFR	13	2	1	DILL	465	n/a	0	n/a	0	0	0	n/a	n/a	n/a	n/a	n/a
3712720	RECOG_CONF	n/a	LTP087	ltpFR	13	2	1	DILL	465	4	0	n/a	0	0	0	n/a	n/a	n/a	n/a	n/a
3714052	RECOG_TARGET	n/a	LTP087	ltpFR	13	2	0	FURNITURE	616	5	n/a	n/a	0	0	0	n/a	n/a	n/a	n/a	n/a
3714725	RECOG_RESP	n/a	LTP087	ltpFR	13	2	0	FURNITURE	616	n/a	n/a	n/a	0	0	0	n/a	n/a	n/a	n/a	n/a
3715143	RECOG_CONF	n/a	LTP087	ltpFR	13	2	0	FURNITURE	616	5	n/a	n/a	0	0	0	n/a	n/a	n/a	n/a	n/a
3716453	RECOG_TARGET	n/a	LTP087	ltpFR	13	2	1	PAINTING	1005	3	2	n/a	0	0	0	n/a	n/a	n/a	n/a	n/a
3717285	RECOG_RESP	n/a	LTP087	ltpFR	13	2	1	PAINTING	1005	n/a	2	n/a	0	0	0	n/a	n/a	n/a	n/a	n/a
3717798	RECOG_CONF	n/a	LTP087	ltpFR	13	2	1	PAINTING	1005	3	2	n/a	0	0	0	n/a	n/a	n/a	n/a	n/a
3719043	RECOG_TARGET	n/a	LTP087	ltpFR	13	2	1	TERRITORY	1452	4	0	n/a	0	0	0	n/a	n/a	n/a	n/a	n/a
3719734	RECOG_RESP	n/a	LTP087	ltpFR	13	2	1	TERRITORY	1452	n/a	0	n/a	0	0	0	n/a	n/a	n/a	n/a	n/a
