onset	duration	trial_type	sample	stim_file	subject	experiment	session	trial	task	item_name	item_num	recog_resp	recog_conf	resp	color_r	color_g	color_b	case	font
317.55	n/a	SESS_START	158775	n/a	LTP265	ltpFR	17	n/a	n/a	n/a	n/a	1	n/a	n/a	n/a	n/a	n/a	n/a	n/a
364.698	n/a	WORD	182349	wordpools/wasnorm_wordpool_less_exclusions.txt	LTP265	ltpFR	17	1	1	COLESLAW	344	n/a	n/a	0	0.422607421875	0.5869140625	0	upper	zerothre.ttf
368.858	n/a	WORD	184429	wordpools/wasnorm_wordpool_less_exclusions.txt	LTP265	ltpFR	17	1	1	CHICKEN	297	n/a	n/a	1	0.422607421875	0.5869140625	0	upper	zerothre.ttf
372.97	n/a	WORD	186485	wordpools/wasnorm_wordpool_less_exclusions.txt	LTP265	ltpFR	17	1	1	BUSH	202	n/a	n/a	1	0.422607421875	0.5869140625	0	upper	zerothre.ttf
376.814	n/a	WORD	188407	wordpools/wasnorm_wordpool_less_exclusions.txt	LTP265	ltpFR	17	1	0	ORANGE	980	n/a	n/a	0	0.57763671875	0.412841796875	1	lower	amplitud.ttf
381.04	n/a	WORD	190520	wordpools/wasnorm_wordpool_less_exclusions.txt	LTP265	ltpFR	17	1	0	QUAIL	1147	n/a	n/a	1	0.57763671875	0.412841796875	1	lower	amplitud.ttf
385.018	n/a	WORD	192509	wordpools/wasnorm_wordpool_less_exclusions.txt	LTP265	ltpFR	17	1	0	TAG	1429	n/a	n/a	0	0.57763671875	0.412841796875	1	lower	amplitud.ttf
388.896	n/a	WORD	194448	wordpools/wasnorm_wordpool_less_exclusions.txt	LTP265	ltpFR	17	1	0	PERSON	1052	n/a	n/a	1	0.57763671875	0.412841796875	1	lower	amplitud.ttf
392.974	n/a	WORD	196487	wordpools/wasnorm_wordpool_less_exclusions.txt	LTP265	ltpFR	17	1	1	ARMY	39	n/a	n/a	1	0.422607421875	0.5869140625	0	upper	zerothre.ttf
396.984	n/a	WORD	198492	wordpools/wasnorm_wordpool_less_exclusions.txt	LTP265	ltpFR	17	1	1	FLEET	578	n/a	n/a	1	0.422607421875	0.5869140625	0	upper	zerothre.ttf
401.078	n/a	WORD	200539	wordpools/wasnorm_wordpool_less_exclusions.txt	LTP265	ltpFR	17	1	0	ARENA	37	n/a	n/a	1	0.57763671875	0.412841796875	1	lower	amplitud.ttf
405.188	n/a	WORD	202594	wordpools/wasnorm_wordpool_less_exclusions.txt	LTP265	ltpFR	17	1	0	ROBOT	1200	n/a	n/a	1	0.57763671875	0.412841796875	1	lower	amplitud.ttf
409.232	n/a	WORD	204616	wordpools/wasnorm_wordpool_less_exclusions.txt	LTP265	ltpFR	17	1	0	STOCKING	1383	n/a	n/a	0	0.57763671875	0.412841796875	1	lower	amplitud.ttf
413.176	n/a	WORD	206588	wordpools/wasnorm_wordpool_less_exclusions.txt	LTP265	ltpFR	17	1	0	PENGUIN	1044	n/a	n/a	1	0.57763671875	0.412841796875	1	lower	amplitud.ttf
417.204	n/a	WORD	208602	wordpools/wasnorm_wordpool_less_exclusions.txt	LTP265	ltpFR	17	1	1	ORNAMENT	985	n/a	n/a	0	0.422607421875	0.5869140625	0	upper	zerothre.ttf
421.048	n/a	WORD	210524	wordpools/wasnorm_wordpool_less_exclusions.txt	LTP265	ltpFR	17	1	1	CONDUCTOR	362	n/a	n/a	1	0.422607421875	0.5869140625	0	upper	zerothre.ttf
424.876	n/a	WORD	212438	wordpools/wasnorm_wordpool_less_exclusions.txt	LTP265	ltpFR	17	1	1	CAULIFLOWER	262	n/a	n/a	1	0.422607421875	0.5869140625	0	upper	zerothre.ttf
430.834	n/a	REC_START	215417	n/a	LTP265	ltpFR	17	1	n/a	n/a	n/a	n/a	n/a	n/a	n/a	n/a	n/a	n/a	n/a
432.314	n/a	REC_WORD	216157	wordpools/wasnorm_wordpool_less_exclusions.txt	LTP265	ltpFR	17	1	1	CAULIFLOWER	262	n/a	n/a	1	n/a	n/a	n/a	n/a	n/a
433.314	n/a	REC_WORD_VV	216657	wordpools/wasnorm_wordpool_less_exclusions.txt	LTP265	ltpFR	17	1	n/a	<>	-1	n/a	n/a	n/a	n/a	n/a	n/a	n/a	n/a
433.786	n/a	REC_WORD	216893	wordpools/wasnorm_wordpool_less_exclusions.txt	LTP265	ltpFR	17	1	1	ORNAMENT	985	n/a	n/a	0	n/a	n/a	n/a	n/a	n/a
434.946	n/a	REC_WORD	217473	wordpools/wasnorm_wordpool_less_exclusions.txt	LTP265	ltpFR	17	1	1	COLESLAW	344	n/a	n/a	0	n/a	n/a	n/a	n/a	n/a
436.284	n/a	REC_WORD	218142	wordpools/wasnorm_wordpool_less_exclusions.txt	LTP265	ltpFR	17	1	0	QUAIL	1147	n/a	n/a	1	n/a	n/a	n/a	n/a	n/a
437.948	n/a	REC_WORD	218974	wordpools/wasnorm_wordpool_less_exclusions.txt	LTP265	ltpFR	17	1	0	ORANGE	980	n/a	n/a	0	n/a	n/a	n/a	n/a	n/a
439.394	n/a	REC_WORD	219697	wordpools/wasnorm_wordpool_less_exclusions.txt	LTP265	ltpFR	17	1	1	BUSH	202	n/a	n/a	1	n/a	n/a	n/a	n/a	n/a
441.77	n/a	REC_WORD	220885	wordpools/wasnorm_wordpool_less_exclusions.txt	LTP265	ltpFR	17	1	0	PENGUIN	1044	n/a	n/a	1	n/a	n/a	n/a	n/a	n/a
448.048	n/a	REC_WORD	224024	wordpools/wasnorm_wordpool_less_exclusions.txt	LTP265	ltpFR	17	1	1	ARMY	39	n/a	n/a	1	n/a	n/a	n/a	n/a	n/a
448.682	n/a	REC_WORD	224341	wordpools/wasnorm_wordpool_less_exclusions.txt	LTP265	ltpFR	17	1	1	FLEET	578	n/a	n/a	1	n/a	n/a	n/a	n/a	n/a
450.466	n/a	REC_WORD	225233	wordpools/wasnorm_wordpool_less_exclusions.txt	LTP265	ltpFR	17	1	0	ARENA	37	n/a	n/a	1	n/a	n/a	n/a	n/a	n/a
451.686	n/a	REC_WORD	225843	wordpools/wasnorm_wordpool_less_exclusions.txt	LTP265	ltpFR	17	1	1	CONDUCTOR	362	n/a	n/a	1	n/a	n/a	n/a	n/a	n/a
453.796	n/a	REC_WORD	226898	wordpools/wasnorm_wordpool_less_exclusions.txt	LTP265	ltpFR	17	1	0	PERSON	1052	n/a	n/a	1	n/a	n/a	n/a	n/a	n/a
473.546	n/a	REC_WORD	236773	wordpools/wasnorm_wordpool_less_exclusions.txt	LTP265	ltpFR	17	1	0	TAG	1429	n/a	n/a	0	n/a	n/a	n/a	n/a	n/a
516.374	n/a	WORD	258187	wordpools/wasnorm_wordpool_less_exclusions.txt	LTP265	ltpFR	17	2	0	DOCUMENT	479	n/a	n/a	1	0.57763671875	0.412841796875	1	lower	amplitud.ttf
520.436	n/a	WORD	260218	wordpools/wasnorm_wordpool_less_exclusions.txt	LTP265	ltpFR	17	2	0	PADDING	999	n/a	n/a	1	0.57763671875	0.412841796875	1	lower	amplitud.ttf
524.38	n/a	WORD	262190	wordpools/wasnorm_wordpool_less_exclusions.txt	LTP265	ltpFR	17	2	1	PAD	998	n/a	n/a	0	0.422607421875	0.5869140625	0	upper	zerothre.ttf
528.24	n/a	WORD	264120	wordpools/wasnorm_wordpool_less_exclusions.txt	LTP265	ltpFR	17	2	1	CUSTOMER	430	n/a	n/a	1	0.422607421875	0.5869140625	0	upper	zerothre.ttf
532.4	n/a	WORD	266200	wordpools/wasnorm_wordpool_less_exclusions.txt	LTP265	ltpFR	17	2	1	MECHANIC	884	n/a	n/a	1	0.422607421875	0.5869140625	0	upper	zerothre.ttf
536.428	n/a	WORD	268214	wordpools/wasnorm_wordpool_less_exclusions.txt	LTP265	ltpFR	17	2	1	VALVE	1546	n/a	n/a	0	0.422607421875	0.5869140625	0	upper	zerothre.ttf
540.406	n/a	WORD	270203	wordpools/wasnorm_wordpool_less_exclusions.txt	LTP265	ltpFR	17	2	1	DOLLAR	482	n/a	n/a	0	0.422607421875	0.5869140625	0	upper	zerothre.ttf
544.45	n/a	WORD	272225	wordpools/wasnorm_wordpool_less_exclusions.txt	LTP265	ltpFR	17	2	1	EDITOR	516	n/a	n/a	1	0.422607421875	0.5869140625	0	upper	zerothre.ttf
548.576	n/a	WORD	274288	wordpools/wasnorm_wordpool_less_exclusions.txt	LTP265	ltpFR	17	2	0	STREAM	1392	n/a	n/a	1	0.57763671875	0.412841796875	1	lower	amplitud.ttf
552.554	n/a	WORD	276277	wordpools/wasnorm_wordpool_less_exclusions.txt	LTP265	ltpFR	17	2	0	WAVE	1596	n/a	n/a	1	0.57763671875	0.412841796875	1	lower	amplitud.ttf
556.664	n/a	WORD	278332	wordpools/wasnorm_wordpool_less_exclusions.txt	LTP265	ltpFR	17	2	0	REGISTER	1180	n/a	n/a	1	0.57763671875	0.412841796875	1	lower	amplitud.ttf
560.758	n/a	WORD	280379	wordpools/wasnorm_wordpool_less_exclusions.txt	LTP265	ltpFR	17	2	0	FARM	552	n/a	n/a	1	0.57763671875	0.412841796875	1	lower	amplitud.ttf
564.936	n/a	WORD	282468	wordpools/wasnorm_wordpool_less_exclusions.txt	LTP265	ltpFR	17	2	1	SUN	1406	n/a	n/a	1	0.422607421875	0.5869140625	0	upper	zerothre.ttf
568.996	n/a	WORD	284498	wordpools/wasnorm_wordpool_less_exclusions.txt	LTP265	ltpFR	17	2	1	NICKEL	950	n/a	n/a	0	0.422607421875	0.5869140625	0	upper	zerothre.ttf
572.824	n/a	WORD	286412	wordpools/wasnorm_wordpool_less_exclusions.txt	LTP265	ltpFR	17	2	0	SALESMAN	1225	n/a	n/a	1	0.57763671875	0.412841796875	1	lower	amplitud.ttf
577.05	n/a	WORD	288525	wordpools/wasnorm_wordpool_less_exclusions.txt	LTP265	ltpFR	17	2	0	ATMOSPHERE	54	n/a	n/a	1	0.57763671875	0.412841796875	1	lower	amplitud.ttf
582.86	n/a	REC_START	291430	n/a	LTP265	ltpFR	17	2	n/a	n/a	n/a	n/a	n/a	n/a	n/a	n/a	n/a	n/a	n/a
583.916	n/a	REC_WORD	291958	wordpools/wasnorm_wordpool_less_exclusions.txt	LTP265	ltpFR	17	2	0	ATMOSPHERE	54	n/a	n/a	1	n/a	n/a	n/a	n/a	n/a
585.21	n/a	REC_WORD	292605	wordpools/wasnorm_wordpool_less_exclusions.txt	LTP265	ltpFR	17	2	1	SUN	1406	n/a	n/a	1	n/a	n/a	n/a	n/a	n/a
586.616	n/a	REC_WORD	293308	wordpools/wasnorm_wordpool_less_exclusions.txt	LTP265	ltpFR	17	2	1	NICKEL	950	n/a	n/a	0	n/a	n/a	n/a	n/a	n/a
588.322	n/a	REC_WORD	294161	wordpools/wasnorm_wordpool_less_exclusions.txt	LTP265	ltpFR	17	2	1	DOLLAR	482	n/a	n/a	0	n/a	n/a	n/a	n/a	n/a
589.272	n/a	REC_WORD	294636	wordpools/wasnorm_wordpool_less_exclusions.txt	LTP265	ltpFR	17	2	0	REGISTER	1180	n/a	n/a	1	n/a	n/a	n/a	n/a	n/a
591.528	n/a	REC_WORD	295764	wordpools/wasnorm_wordpool_less_exclusions.txt	LTP265	ltpFR	17	2	0	SALESMAN	1225	n/a	n/a	1	n/a	n/a	n/a	n/a	n/a
592.528	n/a	REC_WORD_VV	296264	wordpools/wasnorm_wordpool_less_exclusions.txt	LTP265	ltpFR	17	2	n/a	<>	-1	n/a	n/a	n/a	n/a	n/a	n/a	n/a	n/a
593.378	n/a	REC_WORD	296689	wordpools/wasnorm_wordpool_less_exclusions.txt	LTP265	ltpFR	17	2	1	CUSTOMER	430	n/a	n/a	1	n/a	n/a	n/a	n/a	n/a
595.83	n/a	REC_WORD	297915	wordpools/wasnorm_wordpool_less_exclusions.txt	LTP265	ltpFR	17	2	1	MECHANIC	884	n/a	n/a	1	n/a	n/a	n/a	n/a	n/a
596.968	n/a	REC_WORD	298484	wordpools/wasnorm_wordpool_less_exclusions.txt	LTP265	ltpFR	17	2	1	VALVE	1546	n/a	n/a	0	n/a	n/a	n/a	n/a	n/a
603.504	n/a	REC_WORD	301752	wordpools/wasnorm_wordpool_less_exclusions.txt	LTP265	ltpFR	17	2	0	FARM	552	n/a	n/a	1	n/a	n/a	n/a	n/a	n/a
607.806	n/a	REC_WORD	303903	wordpools/wasnorm_wordpool_less_exclusions.txt	LTP265	ltpFR	17	2	1	PAD	998	n/a	n/a	0	n/a	n/a	n/a	n/a	n/a
608.786	n/a	REC_WORD	304393	wordpools/wasnorm_wordpool_less_exclusions.txt	LTP265	ltpFR	17	2	0	PADDING	999	n/a	n/a	1	n/a	n/a	n/a	n/a	n/a
611.0	n/a	REC_WORD	305500	wordpools/wasnorm_wordpool_less_exclusions.txt	LTP265	ltpFR	17	2	0	DOCUMENT	479	n/a	n/a	1	n/a	n/a	n/a	n/a	n/a
662.692	n/a	WORD	331346	wordpools/wasnorm_wordpool_less_exclusions.txt	LTP265	ltpFR	17	3	0	SKI	1316	n/a	n/a	1	0.57763671875	0.412841796875	1	lower	amplitud.ttf
666.702	n/a	WORD	333351	wordpools/wasnorm_wordpool_less_exclusions.txt	LTP265	ltpFR	17	3	0	EWE	542	n/a	n/a	1	0.57763671875	0.412841796875	1	lower	amplitud.ttf
670.746	n/a	WORD	335373	wordpools/wasnorm_wordpool_less_exclusions.txt	LTP265	ltpFR	17	3	0	PERISCOPE	1050	n/a	n/a	1	0.57763671875	0.412841796875	1	lower	amplitud.ttf
674.94	n/a	WORD	337470	wordpools/wasnorm_wordpool_less_exclusions.txt	LTP265	ltpFR	17	3	0	OWL	992	n/a	n/a	1	0.57763671875	0.412841796875	1	lower	amplitud.ttf
679.134	n/a	WORD	339567	wordpools/wasnorm_wordpool_less_exclusions.txt	LTP265	ltpFR	17	3	0	CANARY	227	n/a	n/a	1	0.57763671875	0.412841796875	1	lower	amplitud.ttf
683.094	n/a	WORD	341547	wordpools/wasnorm_wordpool_less_exclusions.txt	LTP265	ltpFR	17	3	0	POLYESTER	1100	n/a	n/a	0	0.57763671875	0.412841796875	1	lower	amplitud.ttf
687.288	n/a	WORD	343644	wordpools/wasnorm_wordpool_less_exclusions.txt	LTP265	ltpFR	17	3	0	COURT	391	n/a	n/a	1	0.57763671875	0.412841796875	1	lower	amplitud.ttf
691.166	n/a	WORD	345583	wordpools/wasnorm_wordpool_less_exclusions.txt	LTP265	ltpFR	17	3	0	CHAIN	273	n/a	n/a	0	0.57763671875	0.412841796875	1	lower	amplitud.ttf
695.008	n/a	WORD	347504	wordpools/wasnorm_wordpool_less_exclusions.txt	LTP265	ltpFR	17	3	0	TELESCOPE	1446	n/a	n/a	1	0.57763671875	0.412841796875	1	lower	amplitud.ttf
698.956	n/a	WORD	349478	wordpools/wasnorm_wordpool_less_exclusions.txt	LTP265	ltpFR	17	3	0	FROG	608	n/a	n/a	0	0.57763671875	0.412841796875	1	lower	amplitud.ttf
702.882	n/a	WORD	351441	wordpools/wasnorm_wordpool_less_exclusions.txt	LTP265	ltpFR	17	3	0	JEWEL	757	n/a	n/a	0	0.57763671875	0.412841796875	1	lower	amplitud.ttf
706.744	n/a	WORD	353372	wordpools/wasnorm_wordpool_less_exclusions.txt	LTP265	ltpFR	17	3	0	TREAD	1499	n/a	n/a	0	0.57763671875	0.412841796875	1	lower	amplitud.ttf
710.77	n/a	WORD	355385	wordpools/wasnorm_wordpool_less_exclusions.txt	LTP265	ltpFR	17	3	0	SAUCER	1237	n/a	n/a	0	0.57763671875	0.412841796875	1	lower	amplitud.ttf
714.798	n/a	WORD	357399	wordpools/wasnorm_wordpool_less_exclusions.txt	LTP265	ltpFR	17	3	0	CONTAINER	366	n/a	n/a	0	0.57763671875	0.412841796875	1	lower	amplitud.ttf
719.024	n/a	WORD	359512	wordpools/wasnorm_wordpool_less_exclusions.txt	LTP265	ltpFR	17	3	0	TRIBE	1505	n/a	n/a	1	0.57763671875	0.412841796875	1	lower	amplitud.ttf
723.002	n/a	WORD	361501	wordpools/wasnorm_wordpool_less_exclusions.txt	LTP265	ltpFR	17	3	0	FORT	595	n/a	n/a	1	0.57763671875	0.412841796875	1	lower	amplitud.ttf
728.662	n/a	REC_START	364331	n/a	LTP265	ltpFR	17	3	n/a	n/a	n/a	n/a	n/a	n/a	n/a	n/a	n/a	n/a	n/a
729.674	n/a	REC_WORD	364837	wordpools/wasnorm_wordpool_less_exclusions.txt	LTP265	ltpFR	17	3	0	FORT	595	n/a	n/a	1	n/a	n/a	n/a	n/a	n/a
730.774	n/a	REC_WORD	365387	wordpools/wasnorm_wordpool_less_exclusions.txt	LTP265	ltpFR	17	3	0	CONTAINER	366	n/a	n/a	0	n/a	n/a	n/a	n/a	n/a
732.404	n/a	REC_WORD	366202	wordpools/wasnorm_wordpool_less_exclusions.txt	LTP265	ltpFR	17	3	0	FROG	608	n/a	n/a	0	n/a	n/a	n/a	n/a	n/a
740.74	n/a	REC_WORD	370370	wordpools/wasnorm_wordpool_less_exclusions.txt	LTP265	ltpFR	17	3	0	JEWEL	757	n/a	n/a	0	n/a	n/a	n/a	n/a	n/a
748.756	n/a	REC_WORD	374378	wordpools/wasnorm_wordpool_less_exclusions.txt	LTP265	ltpFR	17	3	0	EWE	542	n/a	n/a	1	n/a	n/a	n/a	n/a	n/a
749.616	n/a	REC_WORD	374808	wordpools/wasnorm_wordpool_less_exclusions.txt	LTP265	ltpFR	17	3	0	SKI	1316	n/a	n/a	1	n/a	n/a	n/a	n/a	n/a
752.144	n/a	REC_WORD	376072	wordpools/wasnorm_wordpool_less_exclusions.txt	LTP265	ltpFR	17	3	0	OWL	992	n/a	n/a	1	n/a	n/a	n/a	n/a	n/a
752.764	n/a	REC_WORD	376382	wordpools/wasnorm_wordpool_less_exclusions.txt	LTP265	ltpFR	17	3	0	CANARY	227	n/a	n/a	1	n/a	n/a	n/a	n/a	n/a
754.614	n/a	REC_WORD	377307	wordpools/wasnorm_wordpool_less_exclusions.txt	LTP265	ltpFR	17	3	0	CHAIN	273	n/a	n/a	0	n/a	n/a	n/a	n/a	n/a
761.896	n/a	REC_WORD	380948	wordpools/wasnorm_wordpool_less_exclusions.txt	LTP265	ltpFR	17	3	0	TREAD	1499	n/a	n/a	0	n/a	n/a	n/a	n/a	n/a
765.602	n/a	REC_WORD	382801	wordpools/wasnorm_wordpool_less_exclusions.txt	LTP265	ltpFR	17	3	0	POLYESTER	1100	n/a	n/a	0	n/a	n/a	n/a	n/a	n/a
766.602	n/a	REC_WORD_VV	383301	wordpools/wasnorm_wordpool_less_exclusions.txt	LTP265	ltpFR	17	3	n/a	<>	-1	n/a	n/a	n/a	n/a	n/a	n/a	n/a	n/a
807.876	n/a	WORD	403938	wordpools/wasnorm_wordpool_less_exclusions.txt	LTP265	ltpFR	17	4	1	ROBIN	1199	n/a	n/a	1	0.422607421875	0.5869140625	0	upper	zerothre.ttf
811.788	n/a	WORD	405894	wordpools/wasnorm_wordpool_less_exclusions.txt	LTP265	ltpFR	17	4	1	ASIA	46	n/a	n/a	1	0.422607421875	0.5869140625	0	upper	zerothre.ttf
815.782	n/a	WORD	407891	wordpools/wasnorm_wordpool_less_exclusions.txt	LTP265	ltpFR	17	4	1	SUMMIT	1405	n/a	n/a	0	0.422607421875	0.5869140625	0	upper	zerothre.ttf
819.942	n/a	WORD	409971	wordpools/wasnorm_wordpool_less_exclusions.txt	LTP265	ltpFR	17	4	1	PELICAN	1039	n/a	n/a	1	0.422607421875	0.5869140625	0	upper	zerothre.ttf
823.854	n/a	WORD	411927	wordpools/wasnorm_wordpool_less_exclusions.txt	LTP265	ltpFR	17	4	1	RAKE	1164	n/a	n/a	0	0.422607421875	0.5869140625	0	upper	zerothre.ttf
827.714	n/a	WORD	413857	wordpools/wasnorm_wordpool_less_exclusions.txt	LTP265	ltpFR	17	4	1	GROOM	665	n/a	n/a	1	0.422607421875	0.5869140625	0	upper	zerothre.ttf
831.808	n/a	WORD	415904	wordpools/wasnorm_wordpool_less_exclusions.txt	LTP265	ltpFR	17	4	1	PRAIRIE	1118	n/a	n/a	1	0.422607421875	0.5869140625	0	upper	zerothre.ttf
835.72	n/a	WORD	417860	wordpools/wasnorm_wordpool_less_exclusions.txt	LTP265	ltpFR	17	4	1	ZIPPER	1636	n/a	n/a	0	0.422607421875	0.5869140625	0	upper	zerothre.ttf
839.93	n/a	WORD	419965	wordpools/wasnorm_wordpool_less_exclusions.txt	LTP265	ltpFR	17	4	1	SHORTS	1293	n/a	n/a	0	0.422607421875	0.5869140625	0	upper	zerothre.ttf
843.84	n/a	WORD	421920	wordpools/wasnorm_wordpool_less_exclusions.txt	LTP265	ltpFR	17	4	1	CITIZEN	312	n/a	n/a	1	0.422607421875	0.5869140625	0	upper	zerothre.ttf
848.0	n/a	WORD	424000	wordpools/wasnorm_wordpool_less_exclusions.txt	LTP265	ltpFR	17	4	1	MARROW	872	n/a	n/a	0	0.422607421875	0.5869140625	0	upper	zerothre.ttf
852.044	n/a	WORD	426022	wordpools/wasnorm_wordpool_less_exclusions.txt	LTP265	ltpFR	17	4	1	SCARF	1246	n/a	n/a	0	0.422607421875	0.5869140625	0	upper	zerothre.ttf
856.122	n/a	WORD	428061	wordpools/wasnorm_wordpool_less_exclusions.txt	LTP265	ltpFR	17	4	1	HEDGE	699	n/a	n/a	1	0.422607421875	0.5869140625	0	upper	zerothre.ttf
860.032	n/a	WORD	430016	wordpools/wasnorm_wordpool_less_exclusions.txt	LTP265	ltpFR	17	4	1	ZEBRA	1635	n/a	n/a	1	0.422607421875	0.5869140625	0	upper	zerothre.ttf
864.144	n/a	WORD	432072	wordpools/wasnorm_wordpool_less_exclusions.txt	LTP265	ltpFR	17	4	1	DISHWASHER	475	n/a	n/a	0	0.422607421875	0.5869140625	0	upper	zerothre.ttf
868.27	n/a	WORD	434135	wordpools/wasnorm_wordpool_less_exclusions.txt	LTP265	ltpFR	17	4	1	VACUUM	1543	n/a	n/a	0	0.422607421875	0.5869140625	0	upper	zerothre.ttf
874.162	n/a	REC_START	437081	n/a	LTP265	ltpFR	17	4	n/a	n/a	n/a	n/a	n/a	n/a	n/a	n/a	n/a	n/a	n/a
875.82	n/a	REC_WORD	437910	wordpools/wasnorm_wordpool_less_exclusions.txt	LTP265	ltpFR	17	4	1	DISHWASHER	475	n/a	n/a	0	n/a	n/a	n/a	n/a	n/a
876.846	n/a	REC_WORD	438423	wordpools/wasnorm_wordpool_less_exclusions.txt	LTP265	ltpFR	17	4	1	VACUUM	1543	n/a	n/a	0	n/a	n/a	n/a	n/a	n/a
878.482	n/a	REC_WORD	439241	wordpools/wasnorm_wordpool_less_exclusions.txt	LTP265	ltpFR	17	4	1	CITIZEN	312	n/a	n/a	1	n/a	n/a	n/a	n/a	n/a
880.402	n/a	REC_WORD	440201	wordpools/wasnorm_wordpool_less_exclusions.txt	LTP265	ltpFR	17	4	1	ZIPPER	1636	n/a	n/a	0	n/a	n/a	n/a	n/a	n/a
881.388	n/a	REC_WORD	440694	wordpools/wasnorm_wordpool_less_exclusions.txt	LTP265	ltpFR	17	4	1	SHORTS	1293	n/a	n/a	0	n/a	n/a	n/a	n/a	n/a
882.388	n/a	REC_WORD_VV	441194	wordpools/wasnorm_wordpool_less_exclusions.txt	LTP265	ltpFR	17	4	n/a	<>	-1	n/a	n/a	n/a	n/a	n/a	n/a	n/a	n/a
884.418	n/a	REC_WORD_VV	442209	wordpools/wasnorm_wordpool_less_exclusions.txt	LTP265	ltpFR	17	4	n/a	<>	-1	n/a	n/a	n/a	n/a	n/a	n/a	n/a	n/a
886.478	n/a	REC_WORD	443239	wordpools/wasnorm_wordpool_less_exclusions.txt	LTP265	ltpFR	17	4	1	ROBIN	1199	n/a	n/a	1	n/a	n/a	n/a	n/a	n/a
887.276	n/a	REC_WORD	443638	wordpools/wasnorm_wordpool_less_exclusions.txt	LTP265	ltpFR	17	4	1	PELICAN	1039	n/a	n/a	1	n/a	n/a	n/a	n/a	n/a
892.4	n/a	REC_WORD	446200	wordpools/wasnorm_wordpool_less_exclusions.txt	LTP265	ltpFR	17	4	1	ASIA	46	n/a	n/a	1	n/a	n/a	n/a	n/a	n/a
893.048	n/a	REC_WORD	446524	wordpools/wasnorm_wordpool_less_exclusions.txt	LTP265	ltpFR	17	4	1	SUMMIT	1405	n/a	n/a	0	n/a	n/a	n/a	n/a	n/a
987.978	n/a	WORD	493989	wordpools/wasnorm_wordpool_less_exclusions.txt	LTP265	ltpFR	17	5	0	TURKEY	1520	n/a	n/a	1	0.57763671875	0.412841796875	1	lower	amplitud.ttf
992.172	n/a	WORD	496086	wordpools/wasnorm_wordpool_less_exclusions.txt	LTP265	ltpFR	17	5	0	WHISKERS	1605	n/a	n/a	0	0.57763671875	0.412841796875	1	lower	amplitud.ttf
996.098	n/a	WORD	498049	wordpools/wasnorm_wordpool_less_exclusions.txt	LTP265	ltpFR	17	5	0	PALACE	1006	n/a	n/a	1	0.57763671875	0.412841796875	1	lower	amplitud.ttf
1000.242	n/a	WORD	500121	wordpools/wasnorm_wordpool_less_exclusions.txt	LTP265	ltpFR	17	5	0	PEN	1041	n/a	n/a	0	0.57763671875	0.412841796875	1	lower	amplitud.ttf
1004.104	n/a	WORD	502052	wordpools/wasnorm_wordpool_less_exclusions.txt	LTP265	ltpFR	17	5	0	CONCERT	360	n/a	n/a	1	0.57763671875	0.412841796875	1	lower	amplitud.ttf
1008.062	n/a	WORD	504031	wordpools/wasnorm_wordpool_less_exclusions.txt	LTP265	ltpFR	17	5	0	DIAPER	459	n/a	n/a	0	0.57763671875	0.412841796875	1	lower	amplitud.ttf
1011.958	n/a	WORD	505979	wordpools/wasnorm_wordpool_less_exclusions.txt	LTP265	ltpFR	17	5	0	MOTOR	922	n/a	n/a	0	0.57763671875	0.412841796875	1	lower	amplitud.ttf
1015.836	n/a	WORD	507918	wordpools/wasnorm_wordpool_less_exclusions.txt	LTP265	ltpFR	17	5	0	LOFT	840	n/a	n/a	1	0.57763671875	0.412841796875	1	lower	amplitud.ttf
1019.73	n/a	WORD	509865	wordpools/wasnorm_wordpool_less_exclusions.txt	LTP265	ltpFR	17	5	0	LACE	792	n/a	n/a	0	0.57763671875	0.412841796875	1	lower	amplitud.ttf
1023.576	n/a	WORD	511788	wordpools/wasnorm_wordpool_less_exclusions.txt	LTP265	ltpFR	17	5	0	MONARCH	906	n/a	n/a	1	0.57763671875	0.412841796875	1	lower	amplitud.ttf
1027.768	n/a	WORD	513884	wordpools/wasnorm_wordpool_less_exclusions.txt	LTP265	ltpFR	17	5	0	PANTHER	1009	n/a	n/a	1	0.57763671875	0.412841796875	1	lower	amplitud.ttf
1031.664	n/a	WORD	515832	wordpools/wasnorm_wordpool_less_exclusions.txt	LTP265	ltpFR	17	5	0	BANDANNA	80	n/a	n/a	0	0.57763671875	0.412841796875	1	lower	amplitud.ttf
1035.624	n/a	WORD	517812	wordpools/wasnorm_wordpool_less_exclusions.txt	LTP265	ltpFR	17	5	0	TWEEZERS	1526	n/a	n/a	0	0.57763671875	0.412841796875	1	lower	amplitud.ttf
1039.702	n/a	WORD	519851	wordpools/wasnorm_wordpool_less_exclusions.txt	LTP265	ltpFR	17	5	0	CURB	426	n/a	n/a	1	0.57763671875	0.412841796875	1	lower	amplitud.ttf
1043.562	n/a	WORD	521781	wordpools/wasnorm_wordpool_less_exclusions.txt	LTP265	ltpFR	17	5	0	LILY	821	n/a	n/a	0	0.57763671875	0.412841796875	1	lower	amplitud.ttf
1047.622	n/a	WORD	523811	wordpools/wasnorm_wordpool_less_exclusions.txt	LTP265	ltpFR	17	5	0	ROSE	1212	n/a	n/a	0	0.57763671875	0.412841796875	1	lower	amplitud.ttf
1053.282	n/a	REC_START	526641	n/a	LTP265	ltpFR	17	5	n/a	n/a	n/a	n/a	n/a	n/a	n/a	n/a	n/a	n/a	n/a
1054.804	n/a	REC_WORD	527402	wordpools/wasnorm_wordpool_less_exclusions.txt	LTP265	ltpFR	17	5	0	LILY	821	n/a	n/a	0	n/a	n/a	n/a	n/a	n/a
1055.94	n/a	REC_WORD	527970	wordpools/wasnorm_wordpool_less_exclusions.txt	LTP265	ltpFR	17	5	0	ROSE	1212	n/a	n/a	0	n/a	n/a	n/a	n/a	n/a
1057.414	n/a	REC_WORD	528707	wordpools/wasnorm_wordpool_less_exclusions.txt	LTP265	ltpFR	17	5	0	TWEEZERS	1526	n/a	n/a	0	n/a	n/a	n/a	n/a	n/a
1059.13	n/a	REC_WORD	529565	wordpools/wasnorm_wordpool_less_exclusions.txt	LTP265	ltpFR	17	5	0	MONARCH	906	n/a	n/a	1	n/a	n/a	n/a	n/a	n/a
1060.26	n/a	REC_WORD	530130	wordpools/wasnorm_wordpool_less_exclusions.txt	LTP265	ltpFR	17	5	0	PALACE	1006	n/a	n/a	1	n/a	n/a	n/a	n/a	n/a
1062.302	n/a	REC_WORD	531151	wordpools/wasnorm_wordpool_less_exclusions.txt	LTP265	ltpFR	17	5	0	CONCERT	360	n/a	n/a	1	n/a	n/a	n/a	n/a	n/a
1063.302	n/a	REC_WORD_VV	531651	wordpools/wasnorm_wordpool_less_exclusions.txt	LTP265	ltpFR	17	5	n/a	<>	-1	n/a	n/a	n/a	n/a	n/a	n/a	n/a	n/a
1064.442	n/a	REC_WORD	532221	wordpools/wasnorm_wordpool_less_exclusions.txt	LTP265	ltpFR	17	5	0	TURKEY	1520	n/a	n/a	1	n/a	n/a	n/a	n/a	n/a
1065.336	n/a	REC_WORD	532668	wordpools/wasnorm_wordpool_less_exclusions.txt	LTP265	ltpFR	17	5	0	WHISKERS	1605	n/a	n/a	0	n/a	n/a	n/a	n/a	n/a
1066.366	n/a	REC_WORD	533183	wordpools/wasnorm_wordpool_less_exclusions.txt	LTP265	ltpFR	17	5	0	PEN	1041	n/a	n/a	0	n/a	n/a	n/a	n/a	n/a
1079.488	n/a	REC_WORD	539744	wordpools/wasnorm_wordpool_less_exclusions.txt	LTP265	ltpFR	17	5	0	MOTOR	922	n/a	n/a	0	n/a	n/a	n/a	n/a	n/a
1081.182	n/a	REC_WORD	540591	wordpools/wasnorm_wordpool_less_exclusions.txt	LTP265	ltpFR	17	5	0	BANDANNA	80	n/a	n/a	0	n/a	n/a	n/a	n/a	n/a
1082.344	n/a	REC_WORD	541172	wordpools/wasnorm_wordpool_less_exclusions.txt	LTP265	ltpFR	17	5	0	LACE	792	n/a	n/a	0	n/a	n/a	n/a	n/a	n/a
1088.02	n/a	REC_WORD	544010	wordpools/wasnorm_wordpool_less_exclusions.txt	LTP265	ltpFR	17	5	0	LOFT	840	n/a	n/a	1	n/a	n/a	n/a	n/a	n/a
1155.148	n/a	WORD	577574	wordpools/wasnorm_wordpool_less_exclusions.txt	LTP265	ltpFR	17	6	1	WORLD	1622	n/a	n/a	1	0.422607421875	0.5869140625	0	upper	zerothre.ttf
1159.208	n/a	WORD	579604	wordpools/wasnorm_wordpool_less_exclusions.txt	LTP265	ltpFR	17	6	1	RUM	1217	n/a	n/a	0	0.422607421875	0.5869140625	0	upper	zerothre.ttf
1163.186	n/a	WORD	581593	wordpools/wasnorm_wordpool_less_exclusions.txt	LTP265	ltpFR	17	6	1	COOK	372	n/a	n/a	1	0.422607421875	0.5869140625	0	upper	zerothre.ttf
1167.33	n/a	WORD	583665	wordpools/wasnorm_wordpool_less_exclusions.txt	LTP265	ltpFR	17	6	0	HEADBAND	696	n/a	n/a	0	0.57763671875	0.412841796875	1	lower	amplitud.ttf
1171.24	n/a	WORD	585620	wordpools/wasnorm_wordpool_less_exclusions.txt	LTP265	ltpFR	17	6	0	SHAMPOO	1274	n/a	n/a	0	0.57763671875	0.412841796875	1	lower	amplitud.ttf
1175.3	n/a	WORD	587650	wordpools/wasnorm_wordpool_less_exclusions.txt	LTP265	ltpFR	17	6	0	PLAID	1080	n/a	n/a	0	0.57763671875	0.412841796875	1	lower	amplitud.ttf
1179.244	n/a	WORD	589622	wordpools/wasnorm_wordpool_less_exclusions.txt	LTP265	ltpFR	17	6	0	NAPKIN	937	n/a	n/a	0	0.57763671875	0.412841796875	1	lower	amplitud.ttf
1183.422	n/a	WORD	591711	wordpools/wasnorm_wordpool_less_exclusions.txt	LTP265	ltpFR	17	6	1	HAMBURGER	679	n/a	n/a	0	0.422607421875	0.5869140625	0	upper	zerothre.ttf
1187.582	n/a	WORD	593791	wordpools/wasnorm_wordpool_less_exclusions.txt	LTP265	ltpFR	17	6	1	PIGEON	1065	n/a	n/a	1	0.422607421875	0.5869140625	0	upper	zerothre.ttf
1191.76	n/a	WORD	595880	wordpools/wasnorm_wordpool_less_exclusions.txt	LTP265	ltpFR	17	6	1	HAWK	692	n/a	n/a	1	0.422607421875	0.5869140625	0	upper	zerothre.ttf
1195.954	n/a	WORD	597977	wordpools/wasnorm_wordpool_less_exclusions.txt	LTP265	ltpFR	17	6	1	AUDIENCE	59	n/a	n/a	1	0.422607421875	0.5869140625	0	upper	zerothre.ttf
1200.146	n/a	WORD	600073	wordpools/wasnorm_wordpool_less_exclusions.txt	LTP265	ltpFR	17	6	1	HUMAN	726	n/a	n/a	1	0.422607421875	0.5869140625	0	upper	zerothre.ttf
1204.358	n/a	WORD	602179	wordpools/wasnorm_wordpool_less_exclusions.txt	LTP265	ltpFR	17	6	0	FLANNEL	574	n/a	n/a	0	0.57763671875	0.412841796875	1	lower	amplitud.ttf
1208.302	n/a	WORD	604151	wordpools/wasnorm_wordpool_less_exclusions.txt	LTP265	ltpFR	17	6	0	CRAB	397	n/a	n/a	1	0.57763671875	0.412841796875	1	lower	amplitud.ttf
1212.496	n/a	WORD	606248	wordpools/wasnorm_wordpool_less_exclusions.txt	LTP265	ltpFR	17	6	0	HALL	677	n/a	n/a	1	0.57763671875	0.412841796875	1	lower	amplitud.ttf
1216.706	n/a	WORD	608353	wordpools/wasnorm_wordpool_less_exclusions.txt	LTP265	ltpFR	17	6	0	JUG	762	n/a	n/a	1	0.57763671875	0.412841796875	1	lower	amplitud.ttf
1222.416	n/a	REC_START	611208	n/a	LTP265	ltpFR	17	6	n/a	n/a	n/a	n/a	n/a	n/a	n/a	n/a	n/a	n/a	n/a
1223.396	n/a	REC_WORD	611698	wordpools/wasnorm_wordpool_less_exclusions.txt	LTP265	ltpFR	17	6	0	JUG	762	n/a	n/a	1	n/a	n/a	n/a	n/a	n/a
1224.196	n/a	REC_WORD	612098	wordpools/wasnorm_wordpool_less_exclusions.txt	LTP265	ltpFR	17	6	0	HALL	677	n/a	n/a	1	n/a	n/a	n/a	n/a	n/a
1225.316	n/a	REC_WORD	612658	wordpools/wasnorm_wordpool_less_exclusions.txt	LTP265	ltpFR	17	6	0	CRAB	397	n/a	n/a	1	n/a	n/a	n/a	n/a	n/a
1226.916	n/a	REC_WORD	613458	wordpools/wasnorm_wordpool_less_exclusions.txt	LTP265	ltpFR	17	6	0	NAPKIN	937	n/a	n/a	0	n/a	n/a	n/a	n/a	n/a
1229.132	n/a	REC_WORD	614566	wordpools/wasnorm_wordpool_less_exclusions.txt	LTP265	ltpFR	17	6	0	PLAID	1080	n/a	n/a	0	n/a	n/a	n/a	n/a	n/a
1230.786	n/a	REC_WORD	615393	wordpools/wasnorm_wordpool_less_exclusions.txt	LTP265	ltpFR	17	6	1	RUM	1217	n/a	n/a	0	n/a	n/a	n/a	n/a	n/a
1231.746	n/a	REC_WORD	615873	wordpools/wasnorm_wordpool_less_exclusions.txt	LTP265	ltpFR	17	6	1	WORLD	1622	n/a	n/a	1	n/a	n/a	n/a	n/a	n/a
1236.194	n/a	REC_WORD_VV	618097	wordpools/wasnorm_wordpool_less_exclusions.txt	LTP265	ltpFR	17	6	n/a	<>	-1	n/a	n/a	n/a	n/a	n/a	n/a	n/a	n/a
1242.846	n/a	REC_WORD	621423	wordpools/wasnorm_wordpool_less_exclusions.txt	LTP265	ltpFR	17	6	1	PIGEON	1065	n/a	n/a	1	n/a	n/a	n/a	n/a	n/a
1243.52	n/a	REC_WORD	621760	wordpools/wasnorm_wordpool_less_exclusions.txt	LTP265	ltpFR	17	6	1	HAWK	692	n/a	n/a	1	n/a	n/a	n/a	n/a	n/a
1247.036	n/a	REC_WORD	623518	wordpools/wasnorm_wordpool_less_exclusions.txt	LTP265	ltpFR	17	6	1	HAMBURGER	679	n/a	n/a	0	n/a	n/a	n/a	n/a	n/a
1292.272	n/a	REC_WORD	646136	wordpools/wasnorm_wordpool_less_exclusions.txt	LTP265	ltpFR	17	6	0	PANTHER	1009	n/a	n/a	1	n/a	n/a	n/a	n/a	n/a
1301.78	n/a	WORD	650890	wordpools/wasnorm_wordpool_less_exclusions.txt	LTP265	ltpFR	17	7	-1	PLANET	1082	n/a	n/a	-1	1.0	1.0	1	upper	Verdana.ttf
1305.808	n/a	WORD	652904	wordpools/wasnorm_wordpool_less_exclusions.txt	LTP265	ltpFR	17	7	-1	NEPTUNE	943	n/a	n/a	-1	1.0	1.0	1	upper	Verdana.ttf
1309.768	n/a	WORD	654884	wordpools/wasnorm_wordpool_less_exclusions.txt	LTP265	ltpFR	17	7	-1	SCULPTURE	1258	n/a	n/a	-1	1.0	1.0	1	upper	Verdana.ttf
1313.996	n/a	WORD	656998	wordpools/wasnorm_wordpool_less_exclusions.txt	LTP265	ltpFR	17	7	-1	PISTON	1076	n/a	n/a	-1	1.0	1.0	1	upper	Verdana.ttf
1317.99	n/a	WORD	658995	wordpools/wasnorm_wordpool_less_exclusions.txt	LTP265	ltpFR	17	7	-1	CHEDDAR	286	n/a	n/a	-1	1.0	1.0	1	upper	Verdana.ttf
1322.05	n/a	WORD	661025	wordpools/wasnorm_wordpool_less_exclusions.txt	LTP265	ltpFR	17	7	-1	BLOSSOM	138	n/a	n/a	-1	1.0	1.0	1	upper	Verdana.ttf
1326.11	n/a	WORD	663055	wordpools/wasnorm_wordpool_less_exclusions.txt	LTP265	ltpFR	17	7	-1	DILL	465	n/a	n/a	-1	1.0	1.0	1	upper	Verdana.ttf
1330.106	n/a	WORD	665053	wordpools/wasnorm_wordpool_less_exclusions.txt	LTP265	ltpFR	17	7	-1	BANANA	77	n/a	n/a	-1	1.0	1.0	1	upper	Verdana.ttf
1334.016	n/a	WORD	667008	wordpools/wasnorm_wordpool_less_exclusions.txt	LTP265	ltpFR	17	7	-1	CANVAS	234	n/a	n/a	-1	1.0	1.0	1	upper	Verdana.ttf
1338.01	n/a	WORD	669005	wordpools/wasnorm_wordpool_less_exclusions.txt	LTP265	ltpFR	17	7	-1	CAGE	218	n/a	n/a	-1	1.0	1.0	1	upper	Verdana.ttf
1341.904	n/a	WORD	670952	wordpools/wasnorm_wordpool_less_exclusions.txt	LTP265	ltpFR	17	7	-1	MAMMAL	861	n/a	n/a	-1	1.0	1.0	1	upper	Verdana.ttf
1345.882	n/a	WORD	672941	wordpools/wasnorm_wordpool_less_exclusions.txt	LTP265	ltpFR	17	7	-1	LUNG	850	n/a	n/a	-1	1.0	1.0	1	upper	Verdana.ttf
1349.826	n/a	WORD	674913	wordpools/wasnorm_wordpool_less_exclusions.txt	LTP265	ltpFR	17	7	-1	BOSS	152	n/a	n/a	-1	1.0	1.0	1	upper	Verdana.ttf
1354.018	n/a	WORD	677009	wordpools/wasnorm_wordpool_less_exclusions.txt	LTP265	ltpFR	17	7	-1	TAXI	1438	n/a	n/a	-1	1.0	1.0	1	upper	Verdana.ttf
1357.848	n/a	WORD	678924	wordpools/wasnorm_wordpool_less_exclusions.txt	LTP265	ltpFR	17	7	-1	CIGARETTE	309	n/a	n/a	-1	1.0	1.0	1	upper	Verdana.ttf
1361.776	n/a	WORD	680888	wordpools/wasnorm_wordpool_less_exclusions.txt	LTP265	ltpFR	17	7	-1	ROOT	1210	n/a	n/a	-1	1.0	1.0	1	upper	Verdana.ttf
1367.8	n/a	REC_START	683900	n/a	LTP265	ltpFR	17	7	n/a	n/a	n/a	n/a	n/a	n/a	n/a	n/a	n/a	n/a	n/a
1368.602	n/a	REC_WORD	684301	wordpools/wasnorm_wordpool_less_exclusions.txt	LTP265	ltpFR	17	7	-1	ROOT	1210	n/a	n/a	-1	n/a	n/a	n/a	n/a	n/a
1369.202	n/a	REC_WORD	684601	wordpools/wasnorm_wordpool_less_exclusions.txt	LTP265	ltpFR	17	7	-1	CIGARETTE	309	n/a	n/a	-1	n/a	n/a	n/a	n/a	n/a
1370.26	n/a	REC_WORD	685130	wordpools/wasnorm_wordpool_less_exclusions.txt	LTP265	ltpFR	17	7	-1	TAXI	1438	n/a	n/a	-1	n/a	n/a	n/a	n/a	n/a
1371.28	n/a	REC_WORD	685640	wordpools/wasnorm_wordpool_less_exclusions.txt	LTP265	ltpFR	17	7	-1	BOSS	152	n/a	n/a	-1	n/a	n/a	n/a	n/a	n/a
1372.446	n/a	REC_WORD	686223	wordpools/wasnorm_wordpool_less_exclusions.txt	LTP265	ltpFR	17	7	-1	PLANET	1082	n/a	n/a	-1	n/a	n/a	n/a	n/a	n/a
1373.194	n/a	REC_WORD	686597	wordpools/wasnorm_wordpool_less_exclusions.txt	LTP265	ltpFR	17	7	-1	NEPTUNE	943	n/a	n/a	-1	n/a	n/a	n/a	n/a	n/a
1374.226	n/a	REC_WORD	687113	wordpools/wasnorm_wordpool_less_exclusions.txt	LTP265	ltpFR	17	7	-1	SCULPTURE	1258	n/a	n/a	-1	n/a	n/a	n/a	n/a	n/a
1376.394	n/a	REC_WORD	688197	wordpools/wasnorm_wordpool_less_exclusions.txt	LTP265	ltpFR	17	7	-1	PISTON	1076	n/a	n/a	-1	n/a	n/a	n/a	n/a	n/a
1379.594	n/a	REC_WORD	689797	wordpools/wasnorm_wordpool_less_exclusions.txt	LTP265	ltpFR	17	7	-1	CHEDDAR	286	n/a	n/a	-1	n/a	n/a	n/a	n/a	n/a
1380.562	n/a	REC_WORD	690281	wordpools/wasnorm_wordpool_less_exclusions.txt	LTP265	ltpFR	17	7	-1	BLOSSOM	138	n/a	n/a	-1	n/a	n/a	n/a	n/a	n/a
1384.5	n/a	REC_WORD	692250	wordpools/wasnorm_wordpool_less_exclusions.txt	LTP265	ltpFR	17	7	-1	DILL	465	n/a	n/a	-1	n/a	n/a	n/a	n/a	n/a
1386.032	n/a	REC_WORD	693016	wordpools/wasnorm_wordpool_less_exclusions.txt	LTP265	ltpFR	17	7	-1	BANANA	77	n/a	n/a	-1	n/a	n/a	n/a	n/a	n/a
1386.862	n/a	REC_WORD	693431	wordpools/wasnorm_wordpool_less_exclusions.txt	LTP265	ltpFR	17	7	-1	CANVAS	234	n/a	n/a	-1	n/a	n/a	n/a	n/a	n/a
1389.086	n/a	REC_WORD	694543	wordpools/wasnorm_wordpool_less_exclusions.txt	LTP265	ltpFR	17	7	-1	CAGE	218	n/a	n/a	-1	n/a	n/a	n/a	n/a	n/a
1446.616	n/a	WORD	723308	wordpools/wasnorm_wordpool_less_exclusions.txt	LTP265	ltpFR	17	8	-1	MONUMENT	913	n/a	n/a	-1	1.0	1.0	1	upper	Verdana.ttf
1450.51	n/a	WORD	725255	wordpools/wasnorm_wordpool_less_exclusions.txt	LTP265	ltpFR	17	8	-1	DIGGER	464	n/a	n/a	-1	1.0	1.0	1	upper	Verdana.ttf
1454.372	n/a	WORD	727186	wordpools/wasnorm_wordpool_less_exclusions.txt	LTP265	ltpFR	17	8	-1	SANDWICH	1232	n/a	n/a	-1	1.0	1.0	1	upper	Verdana.ttf
1458.382	n/a	WORD	729191	wordpools/wasnorm_wordpool_less_exclusions.txt	LTP265	ltpFR	17	8	-1	RIB	1188	n/a	n/a	-1	1.0	1.0	1	upper	Verdana.ttf
1462.21	n/a	WORD	731105	wordpools/wasnorm_wordpool_less_exclusions.txt	LTP265	ltpFR	17	8	-1	WRIST	1626	n/a	n/a	-1	1.0	1.0	1	upper	Verdana.ttf
1466.204	n/a	WORD	733102	wordpools/wasnorm_wordpool_less_exclusions.txt	LTP265	ltpFR	17	8	-1	CERAMICS	271	n/a	n/a	-1	1.0	1.0	1	upper	Verdana.ttf
1470.364	n/a	WORD	735182	wordpools/wasnorm_wordpool_less_exclusions.txt	LTP265	ltpFR	17	8	-1	WHALE	1601	n/a	n/a	-1	1.0	1.0	1	upper	Verdana.ttf
1474.492	n/a	WORD	737246	wordpools/wasnorm_wordpool_less_exclusions.txt	LTP265	ltpFR	17	8	-1	TUNA	1518	n/a	n/a	-1	1.0	1.0	1	upper	Verdana.ttf
1478.486	n/a	WORD	739243	wordpools/wasnorm_wordpool_less_exclusions.txt	LTP265	ltpFR	17	8	-1	MACHINE	852	n/a	n/a	-1	1.0	1.0	1	upper	Verdana.ttf
1482.646	n/a	WORD	741323	wordpools/wasnorm_wordpool_less_exclusions.txt	LTP265	ltpFR	17	8	-1	CELERY	266	n/a	n/a	-1	1.0	1.0	1	upper	Verdana.ttf
1486.724	n/a	WORD	743362	wordpools/wasnorm_wordpool_less_exclusions.txt	LTP265	ltpFR	17	8	-1	HAND	683	n/a	n/a	-1	1.0	1.0	1	upper	Verdana.ttf
1490.934	n/a	WORD	745467	wordpools/wasnorm_wordpool_less_exclusions.txt	LTP265	ltpFR	17	8	-1	KLEENEX	782	n/a	n/a	-1	1.0	1.0	1	upper	Verdana.ttf
1495.06	n/a	WORD	747530	wordpools/wasnorm_wordpool_less_exclusions.txt	LTP265	ltpFR	17	8	-1	LEAF	808	n/a	n/a	-1	1.0	1.0	1	upper	Verdana.ttf
1499.038	n/a	WORD	749519	wordpools/wasnorm_wordpool_less_exclusions.txt	LTP265	ltpFR	17	8	-1	CLERK	321	n/a	n/a	-1	1.0	1.0	1	upper	Verdana.ttf
1502.982	n/a	WORD	751491	wordpools/wasnorm_wordpool_less_exclusions.txt	LTP265	ltpFR	17	8	-1	BOOTH	151	n/a	n/a	-1	1.0	1.0	1	upper	Verdana.ttf
1507.126	n/a	WORD	753563	wordpools/wasnorm_wordpool_less_exclusions.txt	LTP265	ltpFR	17	8	-1	ELM	527	n/a	n/a	-1	1.0	1.0	1	upper	Verdana.ttf
1513.134	n/a	REC_START	756567	n/a	LTP265	ltpFR	17	8	n/a	n/a	n/a	n/a	n/a	n/a	n/a	n/a	n/a	n/a	n/a
1515.152	n/a	REC_WORD	757576	wordpools/wasnorm_wordpool_less_exclusions.txt	LTP265	ltpFR	17	8	-1	MONUMENT	913	n/a	n/a	-1	n/a	n/a	n/a	n/a	n/a
1516.534	n/a	REC_WORD	758267	wordpools/wasnorm_wordpool_less_exclusions.txt	LTP265	ltpFR	17	8	-1	DIGGER	464	n/a	n/a	-1	n/a	n/a	n/a	n/a	n/a
1518.102	n/a	REC_WORD	759051	wordpools/wasnorm_wordpool_less_exclusions.txt	LTP265	ltpFR	17	8	-1	SANDWICH	1232	n/a	n/a	-1	n/a	n/a	n/a	n/a	n/a
1519.102	n/a	REC_WORD_VV	759551	wordpools/wasnorm_wordpool_less_exclusions.txt	LTP265	ltpFR	17	8	n/a	<>	-1	n/a	n/a	n/a	n/a	n/a	n/a	n/a	n/a
1519.434	n/a	REC_WORD	759717	wordpools/wasnorm_wordpool_less_exclusions.txt	LTP265	ltpFR	17	8	-1	RIB	1188	n/a	n/a	-1	n/a	n/a	n/a	n/a	n/a
1522.412	n/a	REC_WORD	761206	wordpools/wasnorm_wordpool_less_exclusions.txt	LTP265	ltpFR	17	8	-1	WRIST	1626	n/a	n/a	-1	n/a	n/a	n/a	n/a	n/a
1524.478	n/a	REC_WORD	762239	wordpools/wasnorm_wordpool_less_exclusions.txt	LTP265	ltpFR	17	8	-1	CERAMICS	271	n/a	n/a	-1	n/a	n/a	n/a	n/a	n/a
1525.478	n/a	REC_WORD_VV	762739	wordpools/wasnorm_wordpool_less_exclusions.txt	LTP265	ltpFR	17	8	n/a	<>	-1	n/a	n/a	n/a	n/a	n/a	n/a	n/a	n/a
1526.014	n/a	REC_WORD	763007	wordpools/wasnorm_wordpool_less_exclusions.txt	LTP265	ltpFR	17	8	-1	WHALE	1601	n/a	n/a	-1	n/a	n/a	n/a	n/a	n/a
1527.134	n/a	REC_WORD	763567	wordpools/wasnorm_wordpool_less_exclusions.txt	LTP265	ltpFR	17	8	-1	TUNA	1518	n/a	n/a	-1	n/a	n/a	n/a	n/a	n/a
1529.904	n/a	REC_WORD	764952	wordpools/wasnorm_wordpool_less_exclusions.txt	LTP265	ltpFR	17	8	-1	MACHINE	852	n/a	n/a	-1	n/a	n/a	n/a	n/a	n/a
1531.142	n/a	REC_WORD	765571	wordpools/wasnorm_wordpool_less_exclusions.txt	LTP265	ltpFR	17	8	-1	CELERY	266	n/a	n/a	-1	n/a	n/a	n/a	n/a	n/a
1534.158	n/a	REC_WORD	767079	wordpools/wasnorm_wordpool_less_exclusions.txt	LTP265	ltpFR	17	8	-1	LEAF	808	n/a	n/a	-1	n/a	n/a	n/a	n/a	n/a
1537.864	n/a	REC_WORD	768932	wordpools/wasnorm_wordpool_less_exclusions.txt	LTP265	ltpFR	17	8	-1	CLERK	321	n/a	n/a	-1	n/a	n/a	n/a	n/a	n/a
1539.222	n/a	REC_WORD	769611	wordpools/wasnorm_wordpool_less_exclusions.txt	LTP265	ltpFR	17	8	-1	BOOTH	151	n/a	n/a	-1	n/a	n/a	n/a	n/a	n/a
1592.084	n/a	WORD	796042	wordpools/wasnorm_wordpool_less_exclusions.txt	LTP265	ltpFR	17	9	1	CLAW	319	n/a	n/a	0	0.422607421875	0.5869140625	0	upper	zerothre.ttf
1595.962	n/a	WORD	797981	wordpools/wasnorm_wordpool_less_exclusions.txt	LTP265	ltpFR	17	9	1	RELISH	1183	n/a	n/a	0	0.422607421875	0.5869140625	0	upper	zerothre.ttf
1599.94	n/a	WORD	799970	wordpools/wasnorm_wordpool_less_exclusions.txt	LTP265	ltpFR	17	9	1	DIME	466	n/a	n/a	0	0.422607421875	0.5869140625	0	upper	zerothre.ttf
1604.1	n/a	WORD	802050	wordpools/wasnorm_wordpool_less_exclusions.txt	LTP265	ltpFR	17	9	0	HOSTESS	723	n/a	n/a	1	0.57763671875	0.412841796875	1	lower	amplitud.ttf
1608.06	n/a	WORD	804030	wordpools/wasnorm_wordpool_less_exclusions.txt	LTP265	ltpFR	17	9	0	WAITRESS	1581	n/a	n/a	1	0.57763671875	0.412841796875	1	lower	amplitud.ttf
1612.038	n/a	WORD	806019	wordpools/wasnorm_wordpool_less_exclusions.txt	LTP265	ltpFR	17	9	0	TACK	1428	n/a	n/a	0	0.57763671875	0.412841796875	1	lower	amplitud.ttf
1616.232	n/a	WORD	808116	wordpools/wasnorm_wordpool_less_exclusions.txt	LTP265	ltpFR	17	9	0	BULLETIN	195	n/a	n/a	0	0.57763671875	0.412841796875	1	lower	amplitud.ttf
1620.294	n/a	WORD	810147	wordpools/wasnorm_wordpool_less_exclusions.txt	LTP265	ltpFR	17	9	0	MOSS	918	n/a	n/a	0	0.57763671875	0.412841796875	1	lower	amplitud.ttf
1624.12	n/a	WORD	812060	wordpools/wasnorm_wordpool_less_exclusions.txt	LTP265	ltpFR	17	9	0	PAN	1008	n/a	n/a	1	0.57763671875	0.412841796875	1	lower	amplitud.ttf
1628.314	n/a	WORD	814157	wordpools/wasnorm_wordpool_less_exclusions.txt	LTP265	ltpFR	17	9	1	PLANT	1083	n/a	n/a	1	0.422607421875	0.5869140625	0	upper	zerothre.ttf
1632.524	n/a	WORD	816262	wordpools/wasnorm_wordpool_less_exclusions.txt	LTP265	ltpFR	17	9	1	SICKLE	1302	n/a	n/a	0	0.422607421875	0.5869140625	0	upper	zerothre.ttf
1636.602	n/a	WORD	818301	wordpools/wasnorm_wordpool_less_exclusions.txt	LTP265	ltpFR	17	9	1	VINEGAR	1569	n/a	n/a	0	0.422607421875	0.5869140625	0	upper	zerothre.ttf
1640.512	n/a	WORD	820256	wordpools/wasnorm_wordpool_less_exclusions.txt	LTP265	ltpFR	17	9	0	CASHIER	254	n/a	n/a	1	0.57763671875	0.412841796875	1	lower	amplitud.ttf
1644.658	n/a	WORD	822329	wordpools/wasnorm_wordpool_less_exclusions.txt	LTP265	ltpFR	17	9	0	CLOWN	330	n/a	n/a	1	0.57763671875	0.412841796875	1	lower	amplitud.ttf
1648.518	n/a	WORD	824259	wordpools/wasnorm_wordpool_less_exclusions.txt	LTP265	ltpFR	17	9	1	GYMNAST	675	n/a	n/a	1	0.422607421875	0.5869140625	0	upper	zerothre.ttf
1652.728	n/a	WORD	826364	wordpools/wasnorm_wordpool_less_exclusions.txt	LTP265	ltpFR	17	9	1	ATTIC	56	n/a	n/a	0	0.422607421875	0.5869140625	0	upper	zerothre.ttf
1658.404	n/a	REC_START	829202	n/a	LTP265	ltpFR	17	9	n/a	n/a	n/a	n/a	n/a	n/a	n/a	n/a	n/a	n/a	n/a
1659.694	n/a	REC_WORD	829847	wordpools/wasnorm_wordpool_less_exclusions.txt	LTP265	ltpFR	17	9	1	ATTIC	56	n/a	n/a	0	n/a	n/a	n/a	n/a	n/a
1661.176	n/a	REC_WORD	830588	wordpools/wasnorm_wordpool_less_exclusions.txt	LTP265	ltpFR	17	9	1	GYMNAST	675	n/a	n/a	1	n/a	n/a	n/a	n/a	n/a
1663.298	n/a	REC_WORD	831649	wordpools/wasnorm_wordpool_less_exclusions.txt	LTP265	ltpFR	17	9	0	CASHIER	254	n/a	n/a	1	n/a	n/a	n/a	n/a	n/a
1664.298	n/a	REC_WORD_VV	832149	wordpools/wasnorm_wordpool_less_exclusions.txt	LTP265	ltpFR	17	9	n/a	<>	-1	n/a	n/a	n/a	n/a	n/a	n/a	n/a	n/a
1665.728	n/a	REC_WORD	832864	wordpools/wasnorm_wordpool_less_exclusions.txt	LTP265	ltpFR	17	9	0	WAITRESS	1581	n/a	n/a	1	n/a	n/a	n/a	n/a	n/a
1666.726	n/a	REC_WORD	833363	wordpools/wasnorm_wordpool_less_exclusions.txt	LTP265	ltpFR	17	9	0	HOSTESS	723	n/a	n/a	1	n/a	n/a	n/a	n/a	n/a
1667.726	n/a	REC_WORD_VV	833863	wordpools/wasnorm_wordpool_less_exclusions.txt	LTP265	ltpFR	17	9	n/a	<>	-1	n/a	n/a	n/a	n/a	n/a	n/a	n/a	n/a
1669.108	n/a	REC_WORD	834554	wordpools/wasnorm_wordpool_less_exclusions.txt	LTP265	ltpFR	17	9	0	TACK	1428	n/a	n/a	0	n/a	n/a	n/a	n/a	n/a
1670.402	n/a	REC_WORD	835201	wordpools/wasnorm_wordpool_less_exclusions.txt	LTP265	ltpFR	17	9	0	BULLETIN	195	n/a	n/a	0	n/a	n/a	n/a	n/a	n/a
1679.204	n/a	REC_WORD	839602	wordpools/wasnorm_wordpool_less_exclusions.txt	LTP265	ltpFR	17	9	1	VINEGAR	1569	n/a	n/a	0	n/a	n/a	n/a	n/a	n/a
1688.55	n/a	REC_WORD	844275	wordpools/wasnorm_wordpool_less_exclusions.txt	LTP265	ltpFR	17	9	0	CLOWN	330	n/a	n/a	1	n/a	n/a	n/a	n/a	n/a
1692.708	n/a	REC_WORD	846354	wordpools/wasnorm_wordpool_less_exclusions.txt	LTP265	ltpFR	17	9	1	CLAW	319	n/a	n/a	0	n/a	n/a	n/a	n/a	n/a
1693.608	n/a	REC_WORD	846804	wordpools/wasnorm_wordpool_less_exclusions.txt	LTP265	ltpFR	17	9	1	RELISH	1183	n/a	n/a	0	n/a	n/a	n/a	n/a	n/a
1694.852	n/a	REC_WORD	847426	wordpools/wasnorm_wordpool_less_exclusions.txt	LTP265	ltpFR	17	9	1	DIME	466	n/a	n/a	0	n/a	n/a	n/a	n/a	n/a
1749.902	n/a	WORD	874951	wordpools/wasnorm_wordpool_less_exclusions.txt	LTP265	ltpFR	17	10	-1	CEILING	265	n/a	n/a	-1	1.0	1.0	1	upper	Verdana.ttf
1753.746	n/a	WORD	876873	wordpools/wasnorm_wordpool_less_exclusions.txt	LTP265	ltpFR	17	10	-1	GROUND	666	n/a	n/a	-1	1.0	1.0	1	upper	Verdana.ttf
1757.94	n/a	WORD	878970	wordpools/wasnorm_wordpool_less_exclusions.txt	LTP265	ltpFR	17	10	-1	PECAN	1036	n/a	n/a	-1	1.0	1.0	1	upper	Verdana.ttf
1762.032	n/a	WORD	881016	wordpools/wasnorm_wordpool_less_exclusions.txt	LTP265	ltpFR	17	10	-1	COIN	343	n/a	n/a	-1	1.0	1.0	1	upper	Verdana.ttf
1766.076	n/a	WORD	883038	wordpools/wasnorm_wordpool_less_exclusions.txt	LTP265	ltpFR	17	10	-1	PALM	1007	n/a	n/a	-1	1.0	1.0	1	upper	Verdana.ttf
1770.206	n/a	WORD	885103	wordpools/wasnorm_wordpool_less_exclusions.txt	LTP265	ltpFR	17	10	-1	HINGE	709	n/a	n/a	-1	1.0	1.0	1	upper	Verdana.ttf
1774.15	n/a	WORD	887075	wordpools/wasnorm_wordpool_less_exclusions.txt	LTP265	ltpFR	17	10	-1	LEVER	815	n/a	n/a	-1	1.0	1.0	1	upper	Verdana.ttf
1778.244	n/a	WORD	889122	wordpools/wasnorm_wordpool_less_exclusions.txt	LTP265	ltpFR	17	10	-1	TOOL	1480	n/a	n/a	-1	1.0	1.0	1	upper	Verdana.ttf
1782.338	n/a	WORD	891169	wordpools/wasnorm_wordpool_less_exclusions.txt	LTP265	ltpFR	17	10	-1	TREE	1502	n/a	n/a	-1	1.0	1.0	1	upper	Verdana.ttf
1786.432	n/a	WORD	893216	wordpools/wasnorm_wordpool_less_exclusions.txt	LTP265	ltpFR	17	10	-1	CARPENTER	246	n/a	n/a	-1	1.0	1.0	1	upper	Verdana.ttf
1790.442	n/a	WORD	895221	wordpools/wasnorm_wordpool_less_exclusions.txt	LTP265	ltpFR	17	10	-1	PADDLE	1000	n/a	n/a	-1	1.0	1.0	1	upper	Verdana.ttf
1794.37	n/a	WORD	897185	wordpools/wasnorm_wordpool_less_exclusions.txt	LTP265	ltpFR	17	10	-1	PIRATE	1074	n/a	n/a	-1	1.0	1.0	1	upper	Verdana.ttf
1798.496	n/a	WORD	899248	wordpools/wasnorm_wordpool_less_exclusions.txt	LTP265	ltpFR	17	10	-1	FOE	587	n/a	n/a	-1	1.0	1.0	1	upper	Verdana.ttf
1802.656	n/a	WORD	901328	wordpools/wasnorm_wordpool_less_exclusions.txt	LTP265	ltpFR	17	10	-1	PORK	1108	n/a	n/a	-1	1.0	1.0	1	upper	Verdana.ttf
1806.834	n/a	WORD	903417	wordpools/wasnorm_wordpool_less_exclusions.txt	LTP265	ltpFR	17	10	-1	PLUM	1090	n/a	n/a	-1	1.0	1.0	1	upper	Verdana.ttf
1810.978	n/a	WORD	905489	wordpools/wasnorm_wordpool_less_exclusions.txt	LTP265	ltpFR	17	10	-1	KNOB	787	n/a	n/a	-1	1.0	1.0	1	upper	Verdana.ttf
1816.636	n/a	REC_START	908318	n/a	LTP265	ltpFR	17	10	n/a	n/a	n/a	n/a	n/a	n/a	n/a	n/a	n/a	n/a	n/a
1818.502	n/a	REC_WORD	909251	wordpools/wasnorm_wordpool_less_exclusions.txt	LTP265	ltpFR	17	10	-1	KNOB	787	n/a	n/a	-1	n/a	n/a	n/a	n/a	n/a
1820.02	n/a	REC_WORD	910010	wordpools/wasnorm_wordpool_less_exclusions.txt	LTP265	ltpFR	17	10	-1	PLUM	1090	n/a	n/a	-1	n/a	n/a	n/a	n/a	n/a
1822.472	n/a	REC_WORD	911236	wordpools/wasnorm_wordpool_less_exclusions.txt	LTP265	ltpFR	17	10	-1	PORK	1108	n/a	n/a	-1	n/a	n/a	n/a	n/a	n/a
1825.254	n/a	REC_WORD	912627	wordpools/wasnorm_wordpool_less_exclusions.txt	LTP265	ltpFR	17	10	-1	PIRATE	1074	n/a	n/a	-1	n/a	n/a	n/a	n/a	n/a
1826.764	n/a	REC_WORD	913382	wordpools/wasnorm_wordpool_less_exclusions.txt	LTP265	ltpFR	17	10	-1	FOE	587	n/a	n/a	-1	n/a	n/a	n/a	n/a	n/a
1829.468	n/a	REC_WORD	914734	wordpools/wasnorm_wordpool_less_exclusions.txt	LTP265	ltpFR	17	10	-1	PADDLE	1000	n/a	n/a	-1	n/a	n/a	n/a	n/a	n/a
1830.508	n/a	REC_WORD	915254	wordpools/wasnorm_wordpool_less_exclusions.txt	LTP265	ltpFR	17	10	-1	CARPENTER	246	n/a	n/a	-1	n/a	n/a	n/a	n/a	n/a
1833.44	n/a	REC_WORD	916720	wordpools/wasnorm_wordpool_less_exclusions.txt	LTP265	ltpFR	17	10	-1	TREE	1502	n/a	n/a	-1	n/a	n/a	n/a	n/a	n/a
1834.85	n/a	REC_WORD	917425	wordpools/wasnorm_wordpool_less_exclusions.txt	LTP265	ltpFR	17	10	-1	PALM	1007	n/a	n/a	-1	n/a	n/a	n/a	n/a	n/a
1836.362	n/a	REC_WORD	918181	wordpools/wasnorm_wordpool_less_exclusions.txt	LTP265	ltpFR	17	10	-1	LEVER	815	n/a	n/a	-1	n/a	n/a	n/a	n/a	n/a
1837.364	n/a	REC_WORD	918682	wordpools/wasnorm_wordpool_less_exclusions.txt	LTP265	ltpFR	17	10	-1	TOOL	1480	n/a	n/a	-1	n/a	n/a	n/a	n/a	n/a
1839.738	n/a	REC_WORD	919869	wordpools/wasnorm_wordpool_less_exclusions.txt	LTP265	ltpFR	17	10	-1	PECAN	1036	n/a	n/a	-1	n/a	n/a	n/a	n/a	n/a
1840.892	n/a	REC_WORD	920446	wordpools/wasnorm_wordpool_less_exclusions.txt	LTP265	ltpFR	17	10	-1	COIN	343	n/a	n/a	-1	n/a	n/a	n/a	n/a	n/a
1843.366	n/a	REC_WORD	921683	wordpools/wasnorm_wordpool_less_exclusions.txt	LTP265	ltpFR	17	10	-1	CEILING	265	n/a	n/a	-1	n/a	n/a	n/a	n/a	n/a
1845.066	n/a	REC_WORD	922533	wordpools/wasnorm_wordpool_less_exclusions.txt	LTP265	ltpFR	17	10	-1	GROUND	666	n/a	n/a	-1	n/a	n/a	n/a	n/a	n/a
1895.918	n/a	WORD	947959	wordpools/wasnorm_wordpool_less_exclusions.txt	LTP265	ltpFR	17	11	0	GIFT	635	n/a	n/a	0	0.57763671875	0.412841796875	1	lower	amplitud.ttf
1899.914	n/a	WORD	949957	wordpools/wasnorm_wordpool_less_exclusions.txt	LTP265	ltpFR	17	11	0	SHARK	1275	n/a	n/a	1	0.57763671875	0.412841796875	1	lower	amplitud.ttf
1904.106	n/a	WORD	952053	wordpools/wasnorm_wordpool_less_exclusions.txt	LTP265	ltpFR	17	11	1	TRUMPET	1513	n/a	n/a	0	0.422607421875	0.5869140625	0	upper	zerothre.ttf
1908.118	n/a	WORD	954059	wordpools/wasnorm_wordpool_less_exclusions.txt	LTP265	ltpFR	17	11	1	COCOON	339	n/a	n/a	1	0.422607421875	0.5869140625	0	upper	zerothre.ttf
1912.212	n/a	WORD	956106	wordpools/wasnorm_wordpool_less_exclusions.txt	LTP265	ltpFR	17	11	1	HIKER	708	n/a	n/a	1	0.422607421875	0.5869140625	0	upper	zerothre.ttf
1916.322	n/a	WORD	958161	wordpools/wasnorm_wordpool_less_exclusions.txt	LTP265	ltpFR	17	11	1	CLIMBER	323	n/a	n/a	1	0.422607421875	0.5869140625	0	upper	zerothre.ttf
1920.45	n/a	WORD	960225	wordpools/wasnorm_wordpool_less_exclusions.txt	LTP265	ltpFR	17	11	1	LANDSCAPE	799	n/a	n/a	0	0.422607421875	0.5869140625	0	upper	zerothre.ttf
1924.36	n/a	WORD	962180	wordpools/wasnorm_wordpool_less_exclusions.txt	LTP265	ltpFR	17	11	1	INSECT	740	n/a	n/a	1	0.422607421875	0.5869140625	0	upper	zerothre.ttf
1928.254	n/a	WORD	964127	wordpools/wasnorm_wordpool_less_exclusions.txt	LTP265	ltpFR	17	11	0	DRUM	502	n/a	n/a	1	0.57763671875	0.412841796875	1	lower	amplitud.ttf
1932.132	n/a	WORD	966066	wordpools/wasnorm_wordpool_less_exclusions.txt	LTP265	ltpFR	17	11	0	KEYBOARD	774	n/a	n/a	1	0.57763671875	0.412841796875	1	lower	amplitud.ttf
1936.342	n/a	WORD	968171	wordpools/wasnorm_wordpool_less_exclusions.txt	LTP265	ltpFR	17	11	0	TWIG	1527	n/a	n/a	0	0.57763671875	0.412841796875	1	lower	amplitud.ttf
1940.436	n/a	WORD	970218	wordpools/wasnorm_wordpool_less_exclusions.txt	LTP265	ltpFR	17	11	0	STUDENT	1395	n/a	n/a	1	0.57763671875	0.412841796875	1	lower	amplitud.ttf
1944.548	n/a	WORD	972274	wordpools/wasnorm_wordpool_less_exclusions.txt	LTP265	ltpFR	17	11	1	LAWN	805	n/a	n/a	1	0.422607421875	0.5869140625	0	upper	zerothre.ttf
1948.558	n/a	WORD	974279	wordpools/wasnorm_wordpool_less_exclusions.txt	LTP265	ltpFR	17	11	1	CRATER	400	n/a	n/a	0	0.422607421875	0.5869140625	0	upper	zerothre.ttf
1952.618	n/a	WORD	976309	wordpools/wasnorm_wordpool_less_exclusions.txt	LTP265	ltpFR	17	11	0	VALLEY	1545	n/a	n/a	1	0.57763671875	0.412841796875	1	lower	amplitud.ttf
1956.446	n/a	WORD	978223	wordpools/wasnorm_wordpool_less_exclusions.txt	LTP265	ltpFR	17	11	0	CACTUS	215	n/a	n/a	0	0.57763671875	0.412841796875	1	lower	amplitud.ttf
1962.088	n/a	REC_START	981044	n/a	LTP265	ltpFR	17	11	n/a	n/a	n/a	n/a	n/a	n/a	n/a	n/a	n/a	n/a	n/a
1963.412	n/a	REC_WORD	981706	wordpools/wasnorm_wordpool_less_exclusions.txt	LTP265	ltpFR	17	11	0	CACTUS	215	n/a	n/a	0	n/a	n/a	n/a	n/a	n/a
1964.668	n/a	REC_WORD	982334	wordpools/wasnorm_wordpool_less_exclusions.txt	LTP265	ltpFR	17	11	0	VALLEY	1545	n/a	n/a	1	n/a	n/a	n/a	n/a	n/a
1966.056	n/a	REC_WORD	983028	wordpools/wasnorm_wordpool_less_exclusions.txt	LTP265	ltpFR	17	11	1	LANDSCAPE	799	n/a	n/a	0	n/a	n/a	n/a	n/a	n/a
1968.066	n/a	REC_WORD	984033	wordpools/wasnorm_wordpool_less_exclusions.txt	LTP265	ltpFR	17	11	1	HIKER	708	n/a	n/a	1	n/a	n/a	n/a	n/a	n/a
1968.936	n/a	REC_WORD	984468	wordpools/wasnorm_wordpool_less_exclusions.txt	LTP265	ltpFR	17	11	1	CLIMBER	323	n/a	n/a	1	n/a	n/a	n/a	n/a	n/a
1971.148	n/a	REC_WORD	985574	wordpools/wasnorm_wordpool_less_exclusions.txt	LTP265	ltpFR	17	11	1	INSECT	740	n/a	n/a	1	n/a	n/a	n/a	n/a	n/a
1972.148	n/a	REC_WORD_VV	986074	wordpools/wasnorm_wordpool_less_exclusions.txt	LTP265	ltpFR	17	11	n/a	<>	-1	n/a	n/a	n/a	n/a	n/a	n/a	n/a	n/a
2012.036	n/a	REC_WORD	1006018	wordpools/wasnorm_wordpool_less_exclusions.txt	LTP265	ltpFR	17	11	0	GIFT	635	n/a	n/a	0	n/a	n/a	n/a	n/a	n/a
2013.01	n/a	REC_WORD	1006505	wordpools/wasnorm_wordpool_less_exclusions.txt	LTP265	ltpFR	17	11	0	SHARK	1275	n/a	n/a	1	n/a	n/a	n/a	n/a	n/a
2016.868	n/a	REC_WORD	1008434	wordpools/wasnorm_wordpool_less_exclusions.txt	LTP265	ltpFR	17	11	1	TRUMPET	1513	n/a	n/a	0	n/a	n/a	n/a	n/a	n/a
2018.062	n/a	REC_WORD	1009031	wordpools/wasnorm_wordpool_less_exclusions.txt	LTP265	ltpFR	17	11	1	COCOON	339	n/a	n/a	1	n/a	n/a	n/a	n/a	n/a
2050.308	n/a	WORD	1025154	wordpools/wasnorm_wordpool_less_exclusions.txt	LTP265	ltpFR	17	12	1	POLICE	1098	n/a	n/a	1	0.422607421875	0.5869140625	0	upper	zerothre.ttf
2054.502	n/a	WORD	1027251	wordpools/wasnorm_wordpool_less_exclusions.txt	LTP265	ltpFR	17	12	1	HIGHWAY	707	n/a	n/a	0	0.422607421875	0.5869140625	0	upper	zerothre.ttf
2058.346	n/a	WORD	1029173	wordpools/wasnorm_wordpool_less_exclusions.txt	LTP265	ltpFR	17	12	1	PEPPER	1047	n/a	n/a	1	0.422607421875	0.5869140625	0	upper	zerothre.ttf
2062.19	n/a	WORD	1031095	wordpools/wasnorm_wordpool_less_exclusions.txt	LTP265	ltpFR	17	12	1	SUGAR	1401	n/a	n/a	0	0.422607421875	0.5869140625	0	upper	zerothre.ttf
2066.284	n/a	WORD	1033142	wordpools/wasnorm_wordpool_less_exclusions.txt	LTP265	ltpFR	17	12	1	SERGEANT	1269	n/a	n/a	1	0.422607421875	0.5869140625	0	upper	zerothre.ttf
2070.294	n/a	WORD	1035147	wordpools/wasnorm_wordpool_less_exclusions.txt	LTP265	ltpFR	17	12	1	SLEIGH	1325	n/a	n/a	0	0.422607421875	0.5869140625	0	upper	zerothre.ttf
2074.238	n/a	WORD	1037119	wordpools/wasnorm_wordpool_less_exclusions.txt	LTP265	ltpFR	17	12	1	NECK	939	n/a	n/a	0	0.422607421875	0.5869140625	0	upper	zerothre.ttf
2078.232	n/a	WORD	1039116	wordpools/wasnorm_wordpool_less_exclusions.txt	LTP265	ltpFR	17	12	1	TRENCH	1503	n/a	n/a	0	0.422607421875	0.5869140625	0	upper	zerothre.ttf
2082.326	n/a	WORD	1041163	wordpools/wasnorm_wordpool_less_exclusions.txt	LTP265	ltpFR	17	12	1	RECORD	1176	n/a	n/a	0	0.422607421875	0.5869140625	0	upper	zerothre.ttf
2086.206	n/a	WORD	1043103	wordpools/wasnorm_wordpool_less_exclusions.txt	LTP265	ltpFR	17	12	1	MARINE	869	n/a	n/a	1	0.422607421875	0.5869140625	0	upper	zerothre.ttf
2090.182	n/a	WORD	1045091	wordpools/wasnorm_wordpool_less_exclusions.txt	LTP265	ltpFR	17	12	1	PIKE	1067	n/a	n/a	0	0.422607421875	0.5869140625	0	upper	zerothre.ttf
2094.144	n/a	WORD	1047072	wordpools/wasnorm_wordpool_less_exclusions.txt	LTP265	ltpFR	17	12	1	PIANO	1057	n/a	n/a	0	0.422607421875	0.5869140625	0	upper	zerothre.ttf
2098.204	n/a	WORD	1049102	wordpools/wasnorm_wordpool_less_exclusions.txt	LTP265	ltpFR	17	12	1	OFFICER	973	n/a	n/a	1	0.422607421875	0.5869140625	0	upper	zerothre.ttf
2102.148	n/a	WORD	1051074	wordpools/wasnorm_wordpool_less_exclusions.txt	LTP265	ltpFR	17	12	1	WHEEL	1603	n/a	n/a	0	0.422607421875	0.5869140625	0	upper	zerothre.ttf
2106.276	n/a	WORD	1053138	wordpools/wasnorm_wordpool_less_exclusions.txt	LTP265	ltpFR	17	12	1	CROCODILE	411	n/a	n/a	1	0.422607421875	0.5869140625	0	upper	zerothre.ttf
2110.286	n/a	WORD	1055143	wordpools/wasnorm_wordpool_less_exclusions.txt	LTP265	ltpFR	17	12	1	REPTILE	1185	n/a	n/a	1	0.422607421875	0.5869140625	0	upper	zerothre.ttf
2116.012	n/a	REC_START	1058006	n/a	LTP265	ltpFR	17	12	n/a	n/a	n/a	n/a	n/a	n/a	n/a	n/a	n/a	n/a	n/a
2117.128	n/a	REC_WORD	1058564	wordpools/wasnorm_wordpool_less_exclusions.txt	LTP265	ltpFR	17	12	1	REPTILE	1185	n/a	n/a	1	n/a	n/a	n/a	n/a	n/a
2118.152	n/a	REC_WORD	1059076	wordpools/wasnorm_wordpool_less_exclusions.txt	LTP265	ltpFR	17	12	1	CROCODILE	411	n/a	n/a	1	n/a	n/a	n/a	n/a	n/a
2119.724	n/a	REC_WORD	1059862	wordpools/wasnorm_wordpool_less_exclusions.txt	LTP265	ltpFR	17	12	1	WHEEL	1603	n/a	n/a	0	n/a	n/a	n/a	n/a	n/a
2121.41	n/a	REC_WORD	1060705	wordpools/wasnorm_wordpool_less_exclusions.txt	LTP265	ltpFR	17	12	1	HIGHWAY	707	n/a	n/a	0	n/a	n/a	n/a	n/a	n/a
2124.8	n/a	REC_WORD	1062400	wordpools/wasnorm_wordpool_less_exclusions.txt	LTP265	ltpFR	17	12	1	OFFICER	973	n/a	n/a	1	n/a	n/a	n/a	n/a	n/a
2125.896	n/a	REC_WORD	1062948	wordpools/wasnorm_wordpool_less_exclusions.txt	LTP265	ltpFR	17	12	1	POLICE	1098	n/a	n/a	1	n/a	n/a	n/a	n/a	n/a
2127.416	n/a	REC_WORD	1063708	wordpools/wasnorm_wordpool_less_exclusions.txt	LTP265	ltpFR	17	12	1	SERGEANT	1269	n/a	n/a	1	n/a	n/a	n/a	n/a	n/a
2128.416	n/a	REC_WORD_VV	1064208	wordpools/wasnorm_wordpool_less_exclusions.txt	LTP265	ltpFR	17	12	n/a	<>	-1	n/a	n/a	n/a	n/a	n/a	n/a	n/a	n/a
2131.23	n/a	REC_WORD	1065615	wordpools/wasnorm_wordpool_less_exclusions.txt	LTP265	ltpFR	17	12	1	PIKE	1067	n/a	n/a	0	n/a	n/a	n/a	n/a	n/a
2133.9	n/a	REC_WORD	1066950	wordpools/wasnorm_wordpool_less_exclusions.txt	LTP265	ltpFR	17	12	1	PEPPER	1047	n/a	n/a	1	n/a	n/a	n/a	n/a	n/a
2134.93	n/a	REC_WORD	1067465	wordpools/wasnorm_wordpool_less_exclusions.txt	LTP265	ltpFR	17	12	1	SUGAR	1401	n/a	n/a	0	n/a	n/a	n/a	n/a	n/a
2143.696	n/a	REC_WORD	1071848	wordpools/wasnorm_wordpool_less_exclusions.txt	LTP265	ltpFR	17	12	1	NECK	939	n/a	n/a	0	n/a	n/a	n/a	n/a	n/a
2146.53	n/a	REC_WORD	1073265	wordpools/wasnorm_wordpool_less_exclusions.txt	LTP265	ltpFR	17	12	1	SLEIGH	1325	n/a	n/a	0	n/a	n/a	n/a	n/a	n/a
2191.632	n/a	REST_REWET	1095816	n/a	LTP265	ltpFR	17	12	n/a	n/a	n/a	n/a	n/a	n/a	n/a	n/a	n/a	n/a	n/a
2625.174	n/a	WORD	1312587	wordpools/wasnorm_wordpool_less_exclusions.txt	LTP265	ltpFR	17	13	0	SOAP	1337	n/a	n/a	0	0.57763671875	0.412841796875	1	lower	amplitud.ttf
2629.368	n/a	WORD	1314684	wordpools/wasnorm_wordpool_less_exclusions.txt	LTP265	ltpFR	17	13	0	BATH	98	n/a	n/a	1	0.57763671875	0.412841796875	1	lower	amplitud.ttf
2633.23	n/a	WORD	1316615	wordpools/wasnorm_wordpool_less_exclusions.txt	LTP265	ltpFR	17	13	0	FROST	609	n/a	n/a	0	0.57763671875	0.412841796875	1	lower	amplitud.ttf
2637.34	n/a	WORD	1318670	wordpools/wasnorm_wordpool_less_exclusions.txt	LTP265	ltpFR	17	13	0	LIVER	833	n/a	n/a	0	0.57763671875	0.412841796875	1	lower	amplitud.ttf
2641.5	n/a	WORD	1320750	wordpools/wasnorm_wordpool_less_exclusions.txt	LTP265	ltpFR	17	13	0	JUNGLE	764	n/a	n/a	1	0.57763671875	0.412841796875	1	lower	amplitud.ttf
2645.362	n/a	WORD	1322681	wordpools/wasnorm_wordpool_less_exclusions.txt	LTP265	ltpFR	17	13	0	ACROBAT	4	n/a	n/a	1	0.57763671875	0.412841796875	1	lower	amplitud.ttf
2649.506	n/a	WORD	1324753	wordpools/wasnorm_wordpool_less_exclusions.txt	LTP265	ltpFR	17	13	0	PLATE	1086	n/a	n/a	1	0.57763671875	0.412841796875	1	lower	amplitud.ttf
2653.582	n/a	WORD	1326791	wordpools/wasnorm_wordpool_less_exclusions.txt	LTP265	ltpFR	17	13	0	LONDON	843	n/a	n/a	1	0.57763671875	0.412841796875	1	lower	amplitud.ttf
2657.76	n/a	WORD	1328880	wordpools/wasnorm_wordpool_less_exclusions.txt	LTP265	ltpFR	17	13	0	SOFTBALL	1343	n/a	n/a	0	0.57763671875	0.412841796875	1	lower	amplitud.ttf
2661.738	n/a	WORD	1330869	wordpools/wasnorm_wordpool_less_exclusions.txt	LTP265	ltpFR	17	13	0	NUT	965	n/a	n/a	0	0.57763671875	0.412841796875	1	lower	amplitud.ttf
2665.682	n/a	WORD	1332841	wordpools/wasnorm_wordpool_less_exclusions.txt	LTP265	ltpFR	17	13	0	EUROPE	541	n/a	n/a	1	0.57763671875	0.412841796875	1	lower	amplitud.ttf
2669.826	n/a	WORD	1334913	wordpools/wasnorm_wordpool_less_exclusions.txt	LTP265	ltpFR	17	13	0	LASH	802	n/a	n/a	0	0.57763671875	0.412841796875	1	lower	amplitud.ttf
2673.77	n/a	WORD	1336885	wordpools/wasnorm_wordpool_less_exclusions.txt	LTP265	ltpFR	17	13	0	LENS	811	n/a	n/a	0	0.57763671875	0.412841796875	1	lower	amplitud.ttf
2677.864	n/a	WORD	1338932	wordpools/wasnorm_wordpool_less_exclusions.txt	LTP265	ltpFR	17	13	0	CHESS	294	n/a	n/a	1	0.57763671875	0.412841796875	1	lower	amplitud.ttf
2681.874	n/a	WORD	1340937	wordpools/wasnorm_wordpool_less_exclusions.txt	LTP265	ltpFR	17	13	0	NET	946	n/a	n/a	0	0.57763671875	0.412841796875	1	lower	amplitud.ttf
2685.936	n/a	WORD	1342968	wordpools/wasnorm_wordpool_less_exclusions.txt	LTP265	ltpFR	17	13	0	POND	1101	n/a	n/a	1	0.57763671875	0.412841796875	1	lower	amplitud.ttf
2691.96	n/a	REC_START	1345980	n/a	LTP265	ltpFR	17	13	n/a	n/a	n/a	n/a	n/a	n/a	n/a	n/a	n/a	n/a	n/a
2692.906	n/a	REC_WORD	1346453	wordpools/wasnorm_wordpool_less_exclusions.txt	LTP265	ltpFR	17	13	0	POND	1101	n/a	n/a	1	n/a	n/a	n/a	n/a	n/a
2693.906	n/a	REC_WORD	1346953	wordpools/wasnorm_wordpool_less_exclusions.txt	LTP265	ltpFR	17	13	0	NET	946	n/a	n/a	0	n/a	n/a	n/a	n/a	n/a
2695.636	n/a	REC_WORD	1347818	wordpools/wasnorm_wordpool_less_exclusions.txt	LTP265	ltpFR	17	13	0	EUROPE	541	n/a	n/a	1	n/a	n/a	n/a	n/a	n/a
2696.886	n/a	REC_WORD	1348443	wordpools/wasnorm_wordpool_less_exclusions.txt	LTP265	ltpFR	17	13	0	LONDON	843	n/a	n/a	1	n/a	n/a	n/a	n/a	n/a
2698.25	n/a	REC_WORD	1349125	wordpools/wasnorm_wordpool_less_exclusions.txt	LTP265	ltpFR	17	13	0	NUT	965	n/a	n/a	0	n/a	n/a	n/a	n/a	n/a
2699.518	n/a	REC_WORD	1349759	wordpools/wasnorm_wordpool_less_exclusions.txt	LTP265	ltpFR	17	13	0	SOAP	1337	n/a	n/a	0	n/a	n/a	n/a	n/a	n/a
2700.906	n/a	REC_WORD	1350453	wordpools/wasnorm_wordpool_less_exclusions.txt	LTP265	ltpFR	17	13	0	BATH	98	n/a	n/a	1	n/a	n/a	n/a	n/a	n/a
2702.504	n/a	REC_WORD	1351252	wordpools/wasnorm_wordpool_less_exclusions.txt	LTP265	ltpFR	17	13	0	FROST	609	n/a	n/a	0	n/a	n/a	n/a	n/a	n/a
2703.946	n/a	REC_WORD	1351973	wordpools/wasnorm_wordpool_less_exclusions.txt	LTP265	ltpFR	17	13	0	LIVER	833	n/a	n/a	0	n/a	n/a	n/a	n/a	n/a
2719.65	n/a	REC_WORD	1359825	wordpools/wasnorm_wordpool_less_exclusions.txt	LTP265	ltpFR	17	13	0	ACROBAT	4	n/a	n/a	1	n/a	n/a	n/a	n/a	n/a
2720.704	n/a	REC_WORD	1360352	wordpools/wasnorm_wordpool_less_exclusions.txt	LTP265	ltpFR	17	13	0	JUNGLE	764	n/a	n/a	1	n/a	n/a	n/a	n/a	n/a
2732.176	n/a	REC_WORD	1366088	wordpools/wasnorm_wordpool_less_exclusions.txt	LTP265	ltpFR	17	13	0	PLATE	1086	n/a	n/a	1	n/a	n/a	n/a	n/a	n/a
2783.542	n/a	WORD	1391771	wordpools/wasnorm_wordpool_less_exclusions.txt	LTP265	ltpFR	17	14	-1	VEHICLE	1553	n/a	n/a	-1	1.0	1.0	1	upper	Verdana.ttf
2787.486	n/a	WORD	1393743	wordpools/wasnorm_wordpool_less_exclusions.txt	LTP265	ltpFR	17	14	-1	VAN	1548	n/a	n/a	-1	1.0	1.0	1	upper	Verdana.ttf
2791.446	n/a	WORD	1395723	wordpools/wasnorm_wordpool_less_exclusions.txt	LTP265	ltpFR	17	14	-1	STRAW	1390	n/a	n/a	-1	1.0	1.0	1	upper	Verdana.ttf
2795.54	n/a	WORD	1397770	wordpools/wasnorm_wordpool_less_exclusions.txt	LTP265	ltpFR	17	14	-1	VELVET	1555	n/a	n/a	-1	1.0	1.0	1	upper	Verdana.ttf
2799.402	n/a	WORD	1399701	wordpools/wasnorm_wordpool_less_exclusions.txt	LTP265	ltpFR	17	14	-1	SHOP	1290	n/a	n/a	-1	1.0	1.0	1	upper	Verdana.ttf
2803.428	n/a	WORD	1401714	wordpools/wasnorm_wordpool_less_exclusions.txt	LTP265	ltpFR	17	14	-1	SUPERMARKET	1409	n/a	n/a	-1	1.0	1.0	1	upper	Verdana.ttf
2807.522	n/a	WORD	1403761	wordpools/wasnorm_wordpool_less_exclusions.txt	LTP265	ltpFR	17	14	-1	GEM	629	n/a	n/a	-1	1.0	1.0	1	upper	Verdana.ttf
2811.516	n/a	WORD	1405758	wordpools/wasnorm_wordpool_less_exclusions.txt	LTP265	ltpFR	17	14	-1	CHAMBER	277	n/a	n/a	-1	1.0	1.0	1	upper	Verdana.ttf
2815.46	n/a	WORD	1407730	wordpools/wasnorm_wordpool_less_exclusions.txt	LTP265	ltpFR	17	14	-1	TOWEL	1489	n/a	n/a	-1	1.0	1.0	1	upper	Verdana.ttf
2819.538	n/a	WORD	1409769	wordpools/wasnorm_wordpool_less_exclusions.txt	LTP265	ltpFR	17	14	-1	BEDROOM	111	n/a	n/a	-1	1.0	1.0	1	upper	Verdana.ttf
2823.532	n/a	WORD	1411766	wordpools/wasnorm_wordpool_less_exclusions.txt	LTP265	ltpFR	17	14	-1	EMERALD	528	n/a	n/a	-1	1.0	1.0	1	upper	Verdana.ttf
2827.56	n/a	WORD	1413780	wordpools/wasnorm_wordpool_less_exclusions.txt	LTP265	ltpFR	17	14	-1	SHEET	1279	n/a	n/a	-1	1.0	1.0	1	upper	Verdana.ttf
2831.702	n/a	WORD	1415851	wordpools/wasnorm_wordpool_less_exclusions.txt	LTP265	ltpFR	17	14	-1	TRAITOR	1495	n/a	n/a	-1	1.0	1.0	1	upper	Verdana.ttf
2835.796	n/a	WORD	1417898	wordpools/wasnorm_wordpool_less_exclusions.txt	LTP265	ltpFR	17	14	-1	RAIL	1161	n/a	n/a	-1	1.0	1.0	1	upper	Verdana.ttf
2839.674	n/a	WORD	1419837	wordpools/wasnorm_wordpool_less_exclusions.txt	LTP265	ltpFR	17	14	-1	TAR	1435	n/a	n/a	-1	1.0	1.0	1	upper	Verdana.ttf
2843.702	n/a	WORD	1421851	wordpools/wasnorm_wordpool_less_exclusions.txt	LTP265	ltpFR	17	14	-1	SUITE	1404	n/a	n/a	-1	1.0	1.0	1	upper	Verdana.ttf
2849.512	n/a	REC_START	1424756	n/a	LTP265	ltpFR	17	14	n/a	n/a	n/a	n/a	n/a	n/a	n/a	n/a	n/a	n/a	n/a
2850.252	n/a	REC_WORD	1425126	wordpools/wasnorm_wordpool_less_exclusions.txt	LTP265	ltpFR	17	14	-1	SUITE	1404	n/a	n/a	-1	n/a	n/a	n/a	n/a	n/a
2851.854	n/a	REC_WORD	1425927	wordpools/wasnorm_wordpool_less_exclusions.txt	LTP265	ltpFR	17	14	-1	RAIL	1161	n/a	n/a	-1	n/a	n/a	n/a	n/a	n/a
2852.9	n/a	REC_WORD	1426450	wordpools/wasnorm_wordpool_less_exclusions.txt	LTP265	ltpFR	17	14	-1	TAR	1435	n/a	n/a	-1	n/a	n/a	n/a	n/a	n/a
2854.254	n/a	REC_WORD	1427127	wordpools/wasnorm_wordpool_less_exclusions.txt	LTP265	ltpFR	17	14	-1	TRAITOR	1495	n/a	n/a	-1	n/a	n/a	n/a	n/a	n/a
2855.418	n/a	REC_WORD	1427709	wordpools/wasnorm_wordpool_less_exclusions.txt	LTP265	ltpFR	17	14	-1	SHEET	1279	n/a	n/a	-1	n/a	n/a	n/a	n/a	n/a
2856.464	n/a	REC_WORD	1428232	wordpools/wasnorm_wordpool_less_exclusions.txt	LTP265	ltpFR	17	14	-1	EMERALD	528	n/a	n/a	-1	n/a	n/a	n/a	n/a	n/a
2857.774	n/a	REC_WORD	1428887	wordpools/wasnorm_wordpool_less_exclusions.txt	LTP265	ltpFR	17	14	-1	BEDROOM	111	n/a	n/a	-1	n/a	n/a	n/a	n/a	n/a
2859.326	n/a	REC_WORD	1429663	wordpools/wasnorm_wordpool_less_exclusions.txt	LTP265	ltpFR	17	14	-1	TOWEL	1489	n/a	n/a	-1	n/a	n/a	n/a	n/a	n/a
2860.506	n/a	REC_WORD	1430253	wordpools/wasnorm_wordpool_less_exclusions.txt	LTP265	ltpFR	17	14	-1	CHAMBER	277	n/a	n/a	-1	n/a	n/a	n/a	n/a	n/a
2861.634	n/a	REC_WORD	1430817	wordpools/wasnorm_wordpool_less_exclusions.txt	LTP265	ltpFR	17	14	-1	GEM	629	n/a	n/a	-1	n/a	n/a	n/a	n/a	n/a
2866.46	n/a	REC_WORD	1433230	wordpools/wasnorm_wordpool_less_exclusions.txt	LTP265	ltpFR	17	14	-1	SUPERMARKET	1409	n/a	n/a	-1	n/a	n/a	n/a	n/a	n/a
2867.46	n/a	REC_WORD_VV	1433730	wordpools/wasnorm_wordpool_less_exclusions.txt	LTP265	ltpFR	17	14	n/a	<>	-1	n/a	n/a	n/a	n/a	n/a	n/a	n/a	n/a
2868.348	n/a	REC_WORD	1434174	wordpools/wasnorm_wordpool_less_exclusions.txt	LTP265	ltpFR	17	14	-1	SHOP	1290	n/a	n/a	-1	n/a	n/a	n/a	n/a	n/a
2876.34	n/a	REC_WORD	1438170	wordpools/wasnorm_wordpool_less_exclusions.txt	LTP265	ltpFR	17	14	-1	VEHICLE	1553	n/a	n/a	-1	n/a	n/a	n/a	n/a	n/a
2877.09	n/a	REC_WORD	1438545	wordpools/wasnorm_wordpool_less_exclusions.txt	LTP265	ltpFR	17	14	-1	VAN	1548	n/a	n/a	-1	n/a	n/a	n/a	n/a	n/a
2878.438	n/a	REC_WORD	1439219	wordpools/wasnorm_wordpool_less_exclusions.txt	LTP265	ltpFR	17	14	-1	STRAW	1390	n/a	n/a	-1	n/a	n/a	n/a	n/a	n/a
2879.438	n/a	REC_WORD_VV	1439719	wordpools/wasnorm_wordpool_less_exclusions.txt	LTP265	ltpFR	17	14	n/a	<>	-1	n/a	n/a	n/a	n/a	n/a	n/a	n/a	n/a
2880.978	n/a	REC_WORD	1440489	wordpools/wasnorm_wordpool_less_exclusions.txt	LTP265	ltpFR	17	14	-1	VELVET	1555	n/a	n/a	-1	n/a	n/a	n/a	n/a	n/a
2935.866	n/a	WORD	1467933	wordpools/wasnorm_wordpool_less_exclusions.txt	LTP265	ltpFR	17	15	1	SAUSAGE	1238	n/a	n/a	0	0.422607421875	0.5869140625	0	upper	zerothre.ttf
2939.91	n/a	WORD	1469955	wordpools/wasnorm_wordpool_less_exclusions.txt	LTP265	ltpFR	17	15	1	PIZZA	1079	n/a	n/a	0	0.422607421875	0.5869140625	0	upper	zerothre.ttf
2943.87	n/a	WORD	1471935	wordpools/wasnorm_wordpool_less_exclusions.txt	LTP265	ltpFR	17	15	1	DUST	508	n/a	n/a	0	0.422607421875	0.5869140625	0	upper	zerothre.ttf
2948.08	n/a	WORD	1474040	wordpools/wasnorm_wordpool_less_exclusions.txt	LTP265	ltpFR	17	15	1	VEST	1559	n/a	n/a	0	0.422607421875	0.5869140625	0	upper	zerothre.ttf
2952.09	n/a	WORD	1476045	wordpools/wasnorm_wordpool_less_exclusions.txt	LTP265	ltpFR	17	15	1	COYOTE	396	n/a	n/a	1	0.422607421875	0.5869140625	0	upper	zerothre.ttf
2955.986	n/a	WORD	1477993	wordpools/wasnorm_wordpool_less_exclusions.txt	LTP265	ltpFR	17	15	1	OATS	968	n/a	n/a	0	0.422607421875	0.5869140625	0	upper	zerothre.ttf
2960.196	n/a	WORD	1480098	wordpools/wasnorm_wordpool_less_exclusions.txt	LTP265	ltpFR	17	15	1	STALLION	1369	n/a	n/a	1	0.422607421875	0.5869140625	0	upper	zerothre.ttf
2964.324	n/a	WORD	1482162	wordpools/wasnorm_wordpool_less_exclusions.txt	LTP265	ltpFR	17	15	1	CONTINENT	367	n/a	n/a	1	0.422607421875	0.5869140625	0	upper	zerothre.ttf
2968.368	n/a	WORD	1484184	wordpools/wasnorm_wordpool_less_exclusions.txt	LTP265	ltpFR	17	15	1	VENUS	1557	n/a	n/a	1	0.422607421875	0.5869140625	0	upper	zerothre.ttf
2972.412	n/a	WORD	1486206	wordpools/wasnorm_wordpool_less_exclusions.txt	LTP265	ltpFR	17	15	1	SATURN	1236	n/a	n/a	1	0.422607421875	0.5869140625	0	upper	zerothre.ttf
2976.522	n/a	WORD	1488261	wordpools/wasnorm_wordpool_less_exclusions.txt	LTP265	ltpFR	17	15	1	CARAVAN	242	n/a	n/a	0	0.422607421875	0.5869140625	0	upper	zerothre.ttf
2980.468	n/a	WORD	1490234	wordpools/wasnorm_wordpool_less_exclusions.txt	LTP265	ltpFR	17	15	1	TURNIP	1521	n/a	n/a	1	0.422607421875	0.5869140625	0	upper	zerothre.ttf
2984.628	n/a	WORD	1492314	wordpools/wasnorm_wordpool_less_exclusions.txt	LTP265	ltpFR	17	15	1	SWAMP	1416	n/a	n/a	1	0.422607421875	0.5869140625	0	upper	zerothre.ttf
2988.622	n/a	WORD	1494311	wordpools/wasnorm_wordpool_less_exclusions.txt	LTP265	ltpFR	17	15	1	KITTEN	780	n/a	n/a	1	0.422607421875	0.5869140625	0	upper	zerothre.ttf
2992.682	n/a	WORD	1496341	wordpools/wasnorm_wordpool_less_exclusions.txt	LTP265	ltpFR	17	15	1	ENEMY	534	n/a	n/a	1	0.422607421875	0.5869140625	0	upper	zerothre.ttf
2996.76	n/a	WORD	1498380	wordpools/wasnorm_wordpool_less_exclusions.txt	LTP265	ltpFR	17	15	1	DAISY	435	n/a	n/a	1	0.422607421875	0.5869140625	0	upper	zerothre.ttf
3002.718	n/a	REC_START	1501359	n/a	LTP265	ltpFR	17	15	n/a	n/a	n/a	n/a	n/a	n/a	n/a	n/a	n/a	n/a	n/a
3003.766	n/a	REC_WORD	1501883	wordpools/wasnorm_wordpool_less_exclusions.txt	LTP265	ltpFR	17	15	1	DAISY	435	n/a	n/a	1	n/a	n/a	n/a	n/a	n/a
3004.81	n/a	REC_WORD	1502405	wordpools/wasnorm_wordpool_less_exclusions.txt	LTP265	ltpFR	17	15	1	KITTEN	780	n/a	n/a	1	n/a	n/a	n/a	n/a	n/a
3006.34	n/a	REC_WORD	1503170	wordpools/wasnorm_wordpool_less_exclusions.txt	LTP265	ltpFR	17	15	1	ENEMY	534	n/a	n/a	1	n/a	n/a	n/a	n/a	n/a
3008.094	n/a	REC_WORD	1504047	wordpools/wasnorm_wordpool_less_exclusions.txt	LTP265	ltpFR	17	15	1	CARAVAN	242	n/a	n/a	0	n/a	n/a	n/a	n/a	n/a
3022.134	n/a	REC_WORD	1511067	wordpools/wasnorm_wordpool_less_exclusions.txt	LTP265	ltpFR	17	15	1	SAUSAGE	1238	n/a	n/a	0	n/a	n/a	n/a	n/a	n/a
3023.024	n/a	REC_WORD	1511512	wordpools/wasnorm_wordpool_less_exclusions.txt	LTP265	ltpFR	17	15	1	PIZZA	1079	n/a	n/a	0	n/a	n/a	n/a	n/a	n/a
3024.672	n/a	REC_WORD	1512336	wordpools/wasnorm_wordpool_less_exclusions.txt	LTP265	ltpFR	17	15	1	DUST	508	n/a	n/a	0	n/a	n/a	n/a	n/a	n/a
3033.458	n/a	REC_WORD	1516729	wordpools/wasnorm_wordpool_less_exclusions.txt	LTP265	ltpFR	17	15	1	VENUS	1557	n/a	n/a	1	n/a	n/a	n/a	n/a	n/a
3034.564	n/a	REC_WORD	1517282	wordpools/wasnorm_wordpool_less_exclusions.txt	LTP265	ltpFR	17	15	n/a	JUPITER	765	n/a	n/a	n/a	n/a	n/a	n/a	n/a	n/a
3036.334	n/a	REC_WORD	1518167	wordpools/wasnorm_wordpool_less_exclusions.txt	LTP265	ltpFR	17	15	1	CONTINENT	367	n/a	n/a	1	n/a	n/a	n/a	n/a	n/a
3037.604	n/a	REC_WORD	1518802	wordpools/wasnorm_wordpool_less_exclusions.txt	LTP265	ltpFR	17	15	1	SWAMP	1416	n/a	n/a	1	n/a	n/a	n/a	n/a	n/a
3082.016	n/a	WORD	1541008	wordpools/wasnorm_wordpool_less_exclusions.txt	LTP265	ltpFR	17	16	0	CHALK	276	n/a	n/a	0	0.57763671875	0.412841796875	1	lower	amplitud.ttf
3086.226	n/a	WORD	1543113	wordpools/wasnorm_wordpool_less_exclusions.txt	LTP265	ltpFR	17	16	0	DICE	461	n/a	n/a	0	0.57763671875	0.412841796875	1	lower	amplitud.ttf
3090.12	n/a	WORD	1545060	wordpools/wasnorm_wordpool_less_exclusions.txt	LTP265	ltpFR	17	16	0	BOTTLE	153	n/a	n/a	0	0.57763671875	0.412841796875	1	lower	amplitud.ttf
3093.982	n/a	WORD	1546991	wordpools/wasnorm_wordpool_less_exclusions.txt	LTP265	ltpFR	17	16	0	VINE	1568	n/a	n/a	1	0.57763671875	0.412841796875	1	lower	amplitud.ttf
3098.16	n/a	WORD	1549080	wordpools/wasnorm_wordpool_less_exclusions.txt	LTP265	ltpFR	17	16	0	LIBRARY	816	n/a	n/a	1	0.57763671875	0.412841796875	1	lower	amplitud.ttf
3102.138	n/a	WORD	1551069	wordpools/wasnorm_wordpool_less_exclusions.txt	LTP265	ltpFR	17	16	1	SAILOR	1223	n/a	n/a	1	0.422607421875	0.5869140625	0	upper	zerothre.ttf
3106.164	n/a	WORD	1553082	wordpools/wasnorm_wordpool_less_exclusions.txt	LTP265	ltpFR	17	16	1	RECIPE	1175	n/a	n/a	0	0.422607421875	0.5869140625	0	upper	zerothre.ttf
3110.292	n/a	WORD	1555146	wordpools/wasnorm_wordpool_less_exclusions.txt	LTP265	ltpFR	17	16	1	MAP	865	n/a	n/a	0	0.422607421875	0.5869140625	0	upper	zerothre.ttf
3114.352	n/a	WORD	1557176	wordpools/wasnorm_wordpool_less_exclusions.txt	LTP265	ltpFR	17	16	1	SCOUT	1252	n/a	n/a	1	0.422607421875	0.5869140625	0	upper	zerothre.ttf
3118.214	n/a	WORD	1559107	wordpools/wasnorm_wordpool_less_exclusions.txt	LTP265	ltpFR	17	16	0	HEAD	695	n/a	n/a	n/a	0.57763671875	0.412841796875	1	lower	amplitud.ttf
3121.242	n/a	SLOW_MSG	1560621	n/a	LTP265	ltpFR	17	16	n/a	n/a	n/a	n/a	n/a	n/a	n/a	n/a	n/a	n/a	n/a
3123.672	n/a	WORD	1561836	wordpools/wasnorm_wordpool_less_exclusions.txt	LTP265	ltpFR	17	16	0	CHART	282	n/a	n/a	0	0.57763671875	0.412841796875	1	lower	amplitud.ttf
3127.55	n/a	WORD	1563775	wordpools/wasnorm_wordpool_less_exclusions.txt	LTP265	ltpFR	17	16	0	GIRL	637	n/a	n/a	1	0.57763671875	0.412841796875	1	lower	amplitud.ttf
3131.576	n/a	WORD	1565788	wordpools/wasnorm_wordpool_less_exclusions.txt	LTP265	ltpFR	17	16	1	HURRICANE	727	n/a	n/a	0	0.422607421875	0.5869140625	0	upper	zerothre.ttf
3135.704	n/a	WORD	1567852	wordpools/wasnorm_wordpool_less_exclusions.txt	LTP265	ltpFR	17	16	1	CONE	363	n/a	n/a	0	0.422607421875	0.5869140625	0	upper	zerothre.ttf
3139.782	n/a	WORD	1569891	wordpools/wasnorm_wordpool_less_exclusions.txt	LTP265	ltpFR	17	16	1	SALMON	1227	n/a	n/a	1	0.422607421875	0.5869140625	0	upper	zerothre.ttf
3143.626	n/a	WORD	1571813	wordpools/wasnorm_wordpool_less_exclusions.txt	LTP265	ltpFR	17	16	1	SQUID	1361	n/a	n/a	1	0.422607421875	0.5869140625	0	upper	zerothre.ttf
3149.4	n/a	REC_START	1574700	n/a	LTP265	ltpFR	17	16	n/a	n/a	n/a	n/a	n/a	n/a	n/a	n/a	n/a	n/a	n/a
3150.404	n/a	REC_WORD	1575202	wordpools/wasnorm_wordpool_less_exclusions.txt	LTP265	ltpFR	17	16	1	HURRICANE	727	n/a	n/a	0	n/a	n/a	n/a	n/a	n/a
3151.632	n/a	REC_WORD	1575816	wordpools/wasnorm_wordpool_less_exclusions.txt	LTP265	ltpFR	17	16	1	CONE	363	n/a	n/a	0	n/a	n/a	n/a	n/a	n/a
3152.756	n/a	REC_WORD	1576378	wordpools/wasnorm_wordpool_less_exclusions.txt	LTP265	ltpFR	17	16	1	SALMON	1227	n/a	n/a	1	n/a	n/a	n/a	n/a	n/a
3155.884	n/a	REC_WORD	1577942	wordpools/wasnorm_wordpool_less_exclusions.txt	LTP265	ltpFR	17	16	1	SAILOR	1223	n/a	n/a	1	n/a	n/a	n/a	n/a	n/a
3158.256	n/a	REC_WORD	1579128	wordpools/wasnorm_wordpool_less_exclusions.txt	LTP265	ltpFR	17	16	0	CHART	282	n/a	n/a	0	n/a	n/a	n/a	n/a	n/a
3160.66	n/a	REC_WORD	1580330	wordpools/wasnorm_wordpool_less_exclusions.txt	LTP265	ltpFR	17	16	0	BOTTLE	153	n/a	n/a	0	n/a	n/a	n/a	n/a	n/a
3161.982	n/a	REC_WORD	1580991	wordpools/wasnorm_wordpool_less_exclusions.txt	LTP265	ltpFR	17	16	0	CHALK	276	n/a	n/a	0	n/a	n/a	n/a	n/a	n/a
3163.344	n/a	REC_WORD	1581672	wordpools/wasnorm_wordpool_less_exclusions.txt	LTP265	ltpFR	17	16	0	DICE	461	n/a	n/a	0	n/a	n/a	n/a	n/a	n/a
3164.542	n/a	REC_WORD	1582271	wordpools/wasnorm_wordpool_less_exclusions.txt	LTP265	ltpFR	17	16	0	VINE	1568	n/a	n/a	1	n/a	n/a	n/a	n/a	n/a
3165.618	n/a	REC_WORD	1582809	wordpools/wasnorm_wordpool_less_exclusions.txt	LTP265	ltpFR	17	16	0	LIBRARY	816	n/a	n/a	1	n/a	n/a	n/a	n/a	n/a
3168.586	n/a	REC_WORD	1584293	wordpools/wasnorm_wordpool_less_exclusions.txt	LTP265	ltpFR	17	16	1	MAP	865	n/a	n/a	0	n/a	n/a	n/a	n/a	n/a
3172.796	n/a	REC_WORD	1586398	wordpools/wasnorm_wordpool_less_exclusions.txt	LTP265	ltpFR	17	16	0	GIRL	637	n/a	n/a	1	n/a	n/a	n/a	n/a	n/a
3184.038	n/a	REC_WORD	1592019	wordpools/wasnorm_wordpool_less_exclusions.txt	LTP265	ltpFR	17	16	0	HEAD	695	n/a	n/a	n/a	n/a	n/a	n/a	n/a	n/a
3256.51	n/a	REC_START	1628255	n/a	LTP265	ltpFR	17	1	n/a	n/a	n/a	n/a	n/a	n/a	n/a	n/a	n/a	n/a	n/a
3256.542	n/a	RECOG_LURE	1628271	n/a	LTP265	ltpFR	17	1	n/a	GARBAGE	622	0	4	n/a	n/a	n/a	n/a	n/a	n/a
3258.086	n/a	RECOG_RESP	1629043	n/a	LTP265	ltpFR	17	1	n/a	GARBAGE	622	0	n/a	n/a	n/a	n/a	n/a	n/a	n/a
3259.198	n/a	RECOG_CONF	1629599	n/a	LTP265	ltpFR	17	1	n/a	GARBAGE	622	n/a	4	n/a	n/a	n/a	n/a	n/a	n/a
3260.918	n/a	RECOG_LURE	1630459	n/a	LTP265	ltpFR	17	1	n/a	EGG	518	0	4	n/a	n/a	n/a	n/a	n/a	n/a
3261.592	n/a	RECOG_RESP	1630796	n/a	LTP265	ltpFR	17	1	n/a	EGG	518	0	n/a	n/a	n/a	n/a	n/a	n/a	n/a
3262.52	n/a	RECOG_CONF	1631260	n/a	LTP265	ltpFR	17	1	n/a	EGG	518	n/a	4	n/a	n/a	n/a	n/a	n/a	n/a
3264.13	n/a	RECOG_TARGET	1632065	n/a	LTP265	ltpFR	17	1	1	RUM	1217	1	5	0	n/a	n/a	n/a	n/a	n/a
3264.846	n/a	RECOG_RESP	1632423	n/a	LTP265	ltpFR	17	1	1	RUM	1217	1	n/a	0	n/a	n/a	n/a	n/a	n/a
3265.734	n/a	RECOG_CONF	1632867	n/a	LTP265	ltpFR	17	1	1	RUM	1217	n/a	5	0	n/a	n/a	n/a	n/a	n/a
3267.376	n/a	RECOG_TARGET	1633688	n/a	LTP265	ltpFR	17	1	1	CHICKEN	297	1	5	1	n/a	n/a	n/a	n/a	n/a
3268.088	n/a	RECOG_RESP	1634044	n/a	LTP265	ltpFR	17	1	1	CHICKEN	297	1	n/a	1	n/a	n/a	n/a	n/a	n/a
3268.966	n/a	RECOG_CONF	1634483	n/a	LTP265	ltpFR	17	1	1	CHICKEN	297	n/a	5	1	n/a	n/a	n/a	n/a	n/a
3270.672	n/a	RECOG_LURE	1635336	n/a	LTP265	ltpFR	17	1	n/a	CARDINAL	244	1	4	n/a	n/a	n/a	n/a	n/a	n/a
3271.594	n/a	RECOG_RESP	1635797	n/a	LTP265	ltpFR	17	1	n/a	CARDINAL	244	1	n/a	n/a	n/a	n/a	n/a	n/a	n/a
3272.788	n/a	RECOG_CONF	1636394	n/a	LTP265	ltpFR	17	1	n/a	CARDINAL	244	n/a	4	n/a	n/a	n/a	n/a	n/a	n/a
3274.416	n/a	RECOG_LURE	1637208	n/a	LTP265	ltpFR	17	1	n/a	TRICYCLE	1506	0	4	n/a	n/a	n/a	n/a	n/a	n/a
3276.22	n/a	RECOG_RESP	1638110	n/a	LTP265	ltpFR	17	1	n/a	TRICYCLE	1506	0	n/a	n/a	n/a	n/a	n/a	n/a	n/a
3277.088	n/a	RECOG_CONF	1638544	n/a	LTP265	ltpFR	17	1	n/a	TRICYCLE	1506	n/a	4	n/a	n/a	n/a	n/a	n/a	n/a
3278.692	n/a	RECOG_TARGET	1639346	n/a	LTP265	ltpFR	17	1	0	BATH	98	1	5	1	n/a	n/a	n/a	n/a	n/a
3279.342	n/a	RECOG_RESP	1639671	n/a	LTP265	ltpFR	17	1	0	BATH	98	1	n/a	1	n/a	n/a	n/a	n/a	n/a
3280.12	n/a	RECOG_CONF	1640060	n/a	LTP265	ltpFR	17	1	0	BATH	98	n/a	5	1	n/a	n/a	n/a	n/a	n/a
3281.904	n/a	RECOG_LURE	1640952	n/a	LTP265	ltpFR	17	1	n/a	QUARTER	1148	0	3	n/a	n/a	n/a	n/a	n/a	n/a
3282.914	n/a	RECOG_RESP	1641457	n/a	LTP265	ltpFR	17	1	n/a	QUARTER	1148	0	n/a	n/a	n/a	n/a	n/a	n/a	n/a
3283.832	n/a	RECOG_CONF	1641916	n/a	LTP265	ltpFR	17	1	n/a	QUARTER	1148	n/a	3	n/a	n/a	n/a	n/a	n/a	n/a
3285.566	n/a	RECOG_TARGET	1642783	n/a	LTP265	ltpFR	17	1	1	VALVE	1546	1	5	0	n/a	n/a	n/a	n/a	n/a
3286.248	n/a	RECOG_RESP	1643124	n/a	LTP265	ltpFR	17	1	1	VALVE	1546	1	n/a	0	n/a	n/a	n/a	n/a	n/a
3287.066	n/a	RECOG_CONF	1643533	n/a	LTP265	ltpFR	17	1	1	VALVE	1546	n/a	5	0	n/a	n/a	n/a	n/a	n/a
3288.844	n/a	RECOG_TARGET	1644422	n/a	LTP265	ltpFR	17	1	-1	GROUND	666	1	5	-1	n/a	n/a	n/a	n/a	n/a
3289.71	n/a	RECOG_RESP	1644855	n/a	LTP265	ltpFR	17	1	-1	GROUND	666	1	n/a	-1	n/a	n/a	n/a	n/a	n/a
3290.478	n/a	RECOG_CONF	1645239	n/a	LTP265	ltpFR	17	1	-1	GROUND	666	n/a	5	-1	n/a	n/a	n/a	n/a	n/a
3292.006	n/a	RECOG_LURE	1646003	n/a	LTP265	ltpFR	17	1	n/a	DIAGRAM	456	0	3	n/a	n/a	n/a	n/a	n/a	n/a
3293.098	n/a	RECOG_RESP	1646549	n/a	LTP265	ltpFR	17	1	n/a	DIAGRAM	456	0	n/a	n/a	n/a	n/a	n/a	n/a	n/a
3294.05	n/a	RECOG_CONF	1647025	n/a	LTP265	ltpFR	17	1	n/a	DIAGRAM	456	n/a	3	n/a	n/a	n/a	n/a	n/a	n/a
3295.518	n/a	RECOG_LURE	1647759	n/a	LTP265	ltpFR	17	1	n/a	BARRACUDA	90	0	5	n/a	n/a	n/a	n/a	n/a	n/a
3296.35	n/a	RECOG_RESP	1648175	n/a	LTP265	ltpFR	17	1	n/a	BARRACUDA	90	0	n/a	n/a	n/a	n/a	n/a	n/a	n/a
3297.262	n/a	RECOG_CONF	1648631	n/a	LTP265	ltpFR	17	1	n/a	BARRACUDA	90	n/a	5	n/a	n/a	n/a	n/a	n/a	n/a
3298.764	n/a	RECOG_TARGET	1649382	n/a	LTP265	ltpFR	17	1	-1	SUITE	1404	1	5	-1	n/a	n/a	n/a	n/a	n/a
3299.602	n/a	RECOG_RESP	1649801	n/a	LTP265	ltpFR	17	1	-1	SUITE	1404	1	n/a	-1	n/a	n/a	n/a	n/a	n/a
3300.376	n/a	RECOG_CONF	1650188	n/a	LTP265	ltpFR	17	1	-1	SUITE	1404	n/a	5	-1	n/a	n/a	n/a	n/a	n/a
3302.124	n/a	RECOG_LURE	1651062	n/a	LTP265	ltpFR	17	1	n/a	BACKBONE	66	0	4	n/a	n/a	n/a	n/a	n/a	n/a
3302.934	n/a	RECOG_RESP	1651467	n/a	LTP265	ltpFR	17	1	n/a	BACKBONE	66	0	n/a	n/a	n/a	n/a	n/a	n/a	n/a
3304.456	n/a	RECOG_CONF	1652228	n/a	LTP265	ltpFR	17	1	n/a	BACKBONE	66	n/a	4	n/a	n/a	n/a	n/a	n/a	n/a
3306.102	n/a	RECOG_TARGET	1653051	n/a	LTP265	ltpFR	17	1	-1	DILL	465	1	5	-1	n/a	n/a	n/a	n/a	n/a
3306.762	n/a	RECOG_RESP	1653381	n/a	LTP265	ltpFR	17	1	-1	DILL	465	1	n/a	-1	n/a	n/a	n/a	n/a	n/a
3307.54	n/a	RECOG_CONF	1653770	n/a	LTP265	ltpFR	17	1	-1	DILL	465	n/a	5	-1	n/a	n/a	n/a	n/a	n/a
3309.248	n/a	RECOG_LURE	1654624	n/a	LTP265	ltpFR	17	1	n/a	NOTEBOOK	959	0	4	n/a	n/a	n/a	n/a	n/a	n/a
3310.362	n/a	RECOG_RESP	1655181	n/a	LTP265	ltpFR	17	1	n/a	NOTEBOOK	959	0	n/a	n/a	n/a	n/a	n/a	n/a	n/a
3311.192	n/a	RECOG_CONF	1655596	n/a	LTP265	ltpFR	17	1	n/a	NOTEBOOK	959	n/a	4	n/a	n/a	n/a	n/a	n/a	n/a
3312.81	n/a	RECOG_TARGET	1656405	n/a	LTP265	ltpFR	17	1	0	BULLETIN	195	1	5	0	n/a	n/a	n/a	n/a	n/a
3313.57	n/a	RECOG_RESP	1656785	n/a	LTP265	ltpFR	17	1	0	BULLETIN	195	1	n/a	0	n/a	n/a	n/a	n/a	n/a
3314.364	n/a	RECOG_CONF	1657182	n/a	LTP265	ltpFR	17	1	0	BULLETIN	195	n/a	5	0	n/a	n/a	n/a	n/a	n/a
3315.954	n/a	RECOG_TARGET	1657977	n/a	LTP265	ltpFR	17	1	0	JUG	762	1	5	1	n/a	n/a	n/a	n/a	n/a
3316.628	n/a	RECOG_RESP	1658314	n/a	LTP265	ltpFR	17	1	0	JUG	762	1	n/a	1	n/a	n/a	n/a	n/a	n/a
3317.466	n/a	RECOG_CONF	1658733	n/a	LTP265	ltpFR	17	1	0	JUG	762	n/a	5	1	n/a	n/a	n/a	n/a	n/a
3319.15	n/a	RECOG_LURE	1659575	n/a	LTP265	ltpFR	17	1	n/a	CHERRY	293	0	4	n/a	n/a	n/a	n/a	n/a	n/a
3319.896	n/a	RECOG_RESP	1659948	n/a	LTP265	ltpFR	17	1	n/a	CHERRY	293	0	n/a	n/a	n/a	n/a	n/a	n/a	n/a
3320.7	n/a	RECOG_CONF	1660350	n/a	LTP265	ltpFR	17	1	n/a	CHERRY	293	n/a	4	n/a	n/a	n/a	n/a	n/a	n/a
3322.296	n/a	RECOG_TARGET	1661148	n/a	LTP265	ltpFR	17	1	1	ASIA	46	1	4	1	n/a	n/a	n/a	n/a	n/a
3324.46	n/a	RECOG_RESP	1662230	n/a	LTP265	ltpFR	17	1	1	ASIA	46	1	n/a	1	n/a	n/a	n/a	n/a	n/a
3325.388	n/a	RECOG_CONF	1662694	n/a	LTP265	ltpFR	17	1	1	ASIA	46	n/a	4	1	n/a	n/a	n/a	n/a	n/a
3331.478	n/a	REC_START	1665739	n/a	LTP265	ltpFR	17	2	n/a	n/a	n/a	n/a	n/a	n/a	n/a	n/a	n/a	n/a	n/a
3331.514	n/a	RECOG_LURE	1665757	n/a	LTP265	ltpFR	17	2	n/a	JELLY	755	0	4	n/a	n/a	n/a	n/a	n/a	n/a
3332.556	n/a	RECOG_RESP	1666278	n/a	LTP265	ltpFR	17	2	n/a	JELLY	755	0	n/a	n/a	n/a	n/a	n/a	n/a	n/a
3333.738	n/a	RECOG_CONF	1666869	n/a	LTP265	ltpFR	17	2	n/a	JELLY	755	n/a	4	n/a	n/a	n/a	n/a	n/a	n/a
3335.308	n/a	RECOG_LURE	1667654	n/a	LTP265	ltpFR	17	2	n/a	CHEST	295	0	3	n/a	n/a	n/a	n/a	n/a	n/a
3336.462	n/a	RECOG_RESP	1668231	n/a	LTP265	ltpFR	17	2	n/a	CHEST	295	0	n/a	n/a	n/a	n/a	n/a	n/a	n/a
3337.878	n/a	RECOG_CONF	1668939	n/a	LTP265	ltpFR	17	2	n/a	CHEST	295	n/a	3	n/a	n/a	n/a	n/a	n/a	n/a
3339.552	n/a	RECOG_LURE	1669776	n/a	LTP265	ltpFR	17	2	n/a	RACKET	1155	0	4	n/a	n/a	n/a	n/a	n/a	n/a
3340.432	n/a	RECOG_RESP	1670216	n/a	LTP265	ltpFR	17	2	n/a	RACKET	1155	0	n/a	n/a	n/a	n/a	n/a	n/a	n/a
3341.222	n/a	RECOG_CONF	1670611	n/a	LTP265	ltpFR	17	2	n/a	RACKET	1155	n/a	4	n/a	n/a	n/a	n/a	n/a	n/a
3342.848	n/a	RECOG_TARGET	1671424	n/a	LTP265	ltpFR	17	2	-1	KNOB	787	1	5	-1	n/a	n/a	n/a	n/a	n/a
3343.66	n/a	RECOG_RESP	1671830	n/a	LTP265	ltpFR	17	2	-1	KNOB	787	1	n/a	-1	n/a	n/a	n/a	n/a	n/a
3344.404	n/a	RECOG_CONF	1672202	n/a	LTP265	ltpFR	17	2	-1	KNOB	787	n/a	5	-1	n/a	n/a	n/a	n/a	n/a
3345.876	n/a	RECOG_TARGET	1672938	n/a	LTP265	ltpFR	17	2	0	DRUM	502	1	5	1	n/a	n/a	n/a	n/a	n/a
3346.574	n/a	RECOG_RESP	1673287	n/a	LTP265	ltpFR	17	2	0	DRUM	502	1	n/a	1	n/a	n/a	n/a	n/a	n/a
3347.318	n/a	RECOG_CONF	1673659	n/a	LTP265	ltpFR	17	2	0	DRUM	502	n/a	5	1	n/a	n/a	n/a	n/a	n/a
3348.806	n/a	RECOG_LURE	1674403	n/a	LTP265	ltpFR	17	2	n/a	NAVIGATOR	938	0	4	n/a	n/a	n/a	n/a	n/a	n/a
3349.752	n/a	RECOG_RESP	1674876	n/a	LTP265	ltpFR	17	2	n/a	NAVIGATOR	938	0	n/a	n/a	n/a	n/a	n/a	n/a	n/a
3350.66	n/a	RECOG_CONF	1675330	n/a	LTP265	ltpFR	17	2	n/a	NAVIGATOR	938	n/a	4	n/a	n/a	n/a	n/a	n/a	n/a
3352.152	n/a	RECOG_TARGET	1676076	n/a	LTP265	ltpFR	17	2	1	WORLD	1622	1	5	1	n/a	n/a	n/a	n/a	n/a
3352.99	n/a	RECOG_RESP	1676495	n/a	LTP265	ltpFR	17	2	1	WORLD	1622	1	n/a	1	n/a	n/a	n/a	n/a	n/a
3353.744	n/a	RECOG_CONF	1676872	n/a	LTP265	ltpFR	17	2	1	WORLD	1622	n/a	5	1	n/a	n/a	n/a	n/a	n/a
3355.164	n/a	RECOG_LURE	1677582	n/a	LTP265	ltpFR	17	2	n/a	CORK	380	0	4	n/a	n/a	n/a	n/a	n/a	n/a
3356.234	n/a	RECOG_RESP	1678117	n/a	LTP265	ltpFR	17	2	n/a	CORK	380	0	n/a	n/a	n/a	n/a	n/a	n/a	n/a
3357.566	n/a	RECOG_CONF	1678783	n/a	LTP265	ltpFR	17	2	n/a	CORK	380	n/a	4	n/a	n/a	n/a	n/a	n/a	n/a
3359.008	n/a	RECOG_LURE	1679504	n/a	LTP265	ltpFR	17	2	n/a	PIMPLE	1071	0	5	n/a	n/a	n/a	n/a	n/a	n/a
3359.89	n/a	RECOG_RESP	1679945	n/a	LTP265	ltpFR	17	2	n/a	PIMPLE	1071	0	n/a	n/a	n/a	n/a	n/a	n/a	n/a
3360.598	n/a	RECOG_CONF	1680299	n/a	LTP265	ltpFR	17	2	n/a	PIMPLE	1071	n/a	5	n/a	n/a	n/a	n/a	n/a	n/a
3362.102	n/a	RECOG_LURE	1681051	n/a	LTP265	ltpFR	17	2	n/a	HIP	710	0	5	n/a	n/a	n/a	n/a	n/a	n/a
3362.818	n/a	RECOG_RESP	1681409	n/a	LTP265	ltpFR	17	2	n/a	HIP	710	0	n/a	n/a	n/a	n/a	n/a	n/a	n/a
3363.422	n/a	RECOG_CONF	1681711	n/a	LTP265	ltpFR	17	2	n/a	HIP	710	n/a	5	n/a	n/a	n/a	n/a	n/a	n/a
3364.9	n/a	RECOG_TARGET	1682450	n/a	LTP265	ltpFR	17	2	0	PEN	1041	1	5	0	n/a	n/a	n/a	n/a	n/a
3365.612	n/a	RECOG_RESP	1682806	n/a	LTP265	ltpFR	17	2	0	PEN	1041	1	n/a	0	n/a	n/a	n/a	n/a	n/a
3366.336	n/a	RECOG_CONF	1683168	n/a	LTP265	ltpFR	17	2	0	PEN	1041	n/a	5	0	n/a	n/a	n/a	n/a	n/a
3367.828	n/a	RECOG_LURE	1683914	n/a	LTP265	ltpFR	17	2	n/a	SHACK	1273	0	4	n/a	n/a	n/a	n/a	n/a	n/a
3368.58	n/a	RECOG_RESP	1684290	n/a	LTP265	ltpFR	17	2	n/a	SHACK	1273	0	n/a	n/a	n/a	n/a	n/a	n/a	n/a
3369.388	n/a	RECOG_CONF	1684694	n/a	LTP265	ltpFR	17	2	n/a	SHACK	1273	n/a	4	n/a	n/a	n/a	n/a	n/a	n/a
3370.924	n/a	RECOG_LURE	1685462	n/a	LTP265	ltpFR	17	2	n/a	BOOT	150	0	4	n/a	n/a	n/a	n/a	n/a	n/a
3371.554	n/a	RECOG_RESP	1685777	n/a	LTP265	ltpFR	17	2	n/a	BOOT	150	0	n/a	n/a	n/a	n/a	n/a	n/a	n/a
3372.312	n/a	RECOG_CONF	1686156	n/a	LTP265	ltpFR	17	2	n/a	BOOT	150	n/a	4	n/a	n/a	n/a	n/a	n/a	n/a
3373.902	n/a	RECOG_TARGET	1686951	n/a	LTP265	ltpFR	17	2	-1	TOWEL	1489	1	5	-1	n/a	n/a	n/a	n/a	n/a
3375.3	n/a	RECOG_RESP	1687650	n/a	LTP265	ltpFR	17	2	-1	TOWEL	1489	1	n/a	-1	n/a	n/a	n/a	n/a	n/a
3376.262	n/a	RECOG_CONF	1688131	n/a	LTP265	ltpFR	17	2	-1	TOWEL	1489	n/a	5	-1	n/a	n/a	n/a	n/a	n/a
3377.814	n/a	RECOG_LURE	1688907	n/a	LTP265	ltpFR	17	2	n/a	BARREL	91	0	3	n/a	n/a	n/a	n/a	n/a	n/a
3378.632	n/a	RECOG_RESP	1689316	n/a	LTP265	ltpFR	17	2	n/a	BARREL	91	0	n/a	n/a	n/a	n/a	n/a	n/a	n/a
3379.714	n/a	RECOG_CONF	1689857	n/a	LTP265	ltpFR	17	2	n/a	BARREL	91	n/a	3	n/a	n/a	n/a	n/a	n/a	n/a
3381.274	n/a	RECOG_LURE	1690637	n/a	LTP265	ltpFR	17	2	n/a	MIRROR	899	0	5	n/a	n/a	n/a	n/a	n/a	n/a
3382.05	n/a	RECOG_RESP	1691025	n/a	LTP265	ltpFR	17	2	n/a	MIRROR	899	0	n/a	n/a	n/a	n/a	n/a	n/a	n/a
3382.848	n/a	RECOG_CONF	1691424	n/a	LTP265	ltpFR	17	2	n/a	MIRROR	899	n/a	5	n/a	n/a	n/a	n/a	n/a	n/a
3384.42	n/a	RECOG_LURE	1692210	n/a	LTP265	ltpFR	17	2	n/a	GARDEN	623	0	5	n/a	n/a	n/a	n/a	n/a	n/a
3385.306	n/a	RECOG_RESP	1692653	n/a	LTP265	ltpFR	17	2	n/a	GARDEN	623	0	n/a	n/a	n/a	n/a	n/a	n/a	n/a
3386.1	n/a	RECOG_CONF	1693050	n/a	LTP265	ltpFR	17	2	n/a	GARDEN	623	n/a	5	n/a	n/a	n/a	n/a	n/a	n/a
3387.548	n/a	RECOG_TARGET	1693774	n/a	LTP265	ltpFR	17	2	0	TAG	1429	1	5	0	n/a	n/a	n/a	n/a	n/a
3388.246	n/a	RECOG_RESP	1694123	n/a	LTP265	ltpFR	17	2	0	TAG	1429	1	n/a	0	n/a	n/a	n/a	n/a	n/a
3389.024	n/a	RECOG_CONF	1694512	n/a	LTP265	ltpFR	17	2	0	TAG	1429	n/a	5	0	n/a	n/a	n/a	n/a	n/a
3390.578	n/a	RECOG_TARGET	1695289	n/a	LTP265	ltpFR	17	2	0	WAITRESS	1581	1	5	1	n/a	n/a	n/a	n/a	n/a
3391.468	n/a	RECOG_RESP	1695734	n/a	LTP265	ltpFR	17	2	0	WAITRESS	1581	1	n/a	1	n/a	n/a	n/a	n/a	n/a
3392.216	n/a	RECOG_CONF	1696108	n/a	LTP265	ltpFR	17	2	0	WAITRESS	1581	n/a	5	1	n/a	n/a	n/a	n/a	n/a
3393.906	n/a	RECOG_LURE	1696953	n/a	LTP265	ltpFR	17	2	n/a	WORM	1623	0	5	n/a	n/a	n/a	n/a	n/a	n/a
3394.786	n/a	RECOG_RESP	1697393	n/a	LTP265	ltpFR	17	2	n/a	WORM	1623	0	n/a	n/a	n/a	n/a	n/a	n/a	n/a
3395.528	n/a	RECOG_CONF	1697764	n/a	LTP265	ltpFR	17	2	n/a	WORM	1623	n/a	5	n/a	n/a	n/a	n/a	n/a	n/a
3399.152	n/a	REC_START	1699576	n/a	LTP265	ltpFR	17	3	n/a	n/a	n/a	n/a	n/a	n/a	n/a	n/a	n/a	n/a	n/a
3399.182	n/a	RECOG_TARGET	1699591	n/a	LTP265	ltpFR	17	3	1	RAKE	1164	1	5	0	n/a	n/a	n/a	n/a	n/a
3400.086	n/a	RECOG_RESP	1700043	n/a	LTP265	ltpFR	17	3	1	RAKE	1164	1	n/a	0	n/a	n/a	n/a	n/a	n/a
3400.934	n/a	RECOG_CONF	1700467	n/a	LTP265	ltpFR	17	3	1	RAKE	1164	n/a	5	0	n/a	n/a	n/a	n/a	n/a
3402.46	n/a	RECOG_TARGET	1701230	n/a	LTP265	ltpFR	17	3	-1	RIB	1188	1	5	-1	n/a	n/a	n/a	n/a	n/a
3403.118	n/a	RECOG_RESP	1701559	n/a	LTP265	ltpFR	17	3	-1	RIB	1188	1	n/a	-1	n/a	n/a	n/a	n/a	n/a
3403.846	n/a	RECOG_CONF	1701923	n/a	LTP265	ltpFR	17	3	-1	RIB	1188	n/a	5	-1	n/a	n/a	n/a	n/a	n/a
3405.322	n/a	RECOG_TARGET	1702661	n/a	LTP265	ltpFR	17	3	0	PERISCOPE	1050	1	5	1	n/a	n/a	n/a	n/a	n/a
3406.68	n/a	RECOG_RESP	1703340	n/a	LTP265	ltpFR	17	3	0	PERISCOPE	1050	1	n/a	1	n/a	n/a	n/a	n/a	n/a
3407.398	n/a	RECOG_CONF	1703699	n/a	LTP265	ltpFR	17	3	0	PERISCOPE	1050	n/a	5	1	n/a	n/a	n/a	n/a	n/a
3408.884	n/a	RECOG_TARGET	1704442	n/a	LTP265	ltpFR	17	3	0	BOTTLE	153	1	5	0	n/a	n/a	n/a	n/a	n/a
3409.588	n/a	RECOG_RESP	1704794	n/a	LTP265	ltpFR	17	3	0	BOTTLE	153	1	n/a	0	n/a	n/a	n/a	n/a	n/a
3410.332	n/a	RECOG_CONF	1705166	n/a	LTP265	ltpFR	17	3	0	BOTTLE	153	n/a	5	0	n/a	n/a	n/a	n/a	n/a
3411.828	n/a	RECOG_TARGET	1705914	n/a	LTP265	ltpFR	17	3	1	HIGHWAY	707	1	5	0	n/a	n/a	n/a	n/a	n/a
3412.648	n/a	RECOG_RESP	1706324	n/a	LTP265	ltpFR	17	3	1	HIGHWAY	707	1	n/a	0	n/a	n/a	n/a	n/a	n/a
3413.366	n/a	RECOG_CONF	1706683	n/a	LTP265	ltpFR	17	3	1	HIGHWAY	707	n/a	5	0	n/a	n/a	n/a	n/a	n/a
3414.876	n/a	RECOG_TARGET	1707438	n/a	LTP265	ltpFR	17	3	-1	PLUM	1090	1	5	-1	n/a	n/a	n/a	n/a	n/a
3415.516	n/a	RECOG_RESP	1707758	n/a	LTP265	ltpFR	17	3	-1	PLUM	1090	1	n/a	-1	n/a	n/a	n/a	n/a	n/a
3416.26	n/a	RECOG_CONF	1708130	n/a	LTP265	ltpFR	17	3	-1	PLUM	1090	n/a	5	-1	n/a	n/a	n/a	n/a	n/a
3417.672	n/a	RECOG_LURE	1708836	n/a	LTP265	ltpFR	17	3	n/a	OMELET	976	0	4	n/a	n/a	n/a	n/a	n/a	n/a
3418.424	n/a	RECOG_RESP	1709212	n/a	LTP265	ltpFR	17	3	n/a	OMELET	976	0	n/a	n/a	n/a	n/a	n/a	n/a	n/a
3419.182	n/a	RECOG_CONF	1709591	n/a	LTP265	ltpFR	17	3	n/a	OMELET	976	n/a	4	n/a	n/a	n/a	n/a	n/a	n/a
3420.684	n/a	RECOG_LURE	1710342	n/a	LTP265	ltpFR	17	3	n/a	NIECE	952	0	5	n/a	n/a	n/a	n/a	n/a	n/a
3421.468	n/a	RECOG_RESP	1710734	n/a	LTP265	ltpFR	17	3	n/a	NIECE	952	0	n/a	n/a	n/a	n/a	n/a	n/a	n/a
3422.156	n/a	RECOG_CONF	1711078	n/a	LTP265	ltpFR	17	3	n/a	NIECE	952	n/a	5	n/a	n/a	n/a	n/a	n/a	n/a
3423.596	n/a	RECOG_TARGET	1711798	n/a	LTP265	ltpFR	17	3	0	TWEEZERS	1526	1	5	0	n/a	n/a	n/a	n/a	n/a
3424.4	n/a	RECOG_RESP	1712200	n/a	LTP265	ltpFR	17	3	0	TWEEZERS	1526	1	n/a	0	n/a	n/a	n/a	n/a	n/a
3425.14	n/a	RECOG_CONF	1712570	n/a	LTP265	ltpFR	17	3	0	TWEEZERS	1526	n/a	5	0	n/a	n/a	n/a	n/a	n/a
3426.542	n/a	RECOG_TARGET	1713271	n/a	LTP265	ltpFR	17	3	1	OATS	968	1	5	0	n/a	n/a	n/a	n/a	n/a
3427.738	n/a	RECOG_RESP	1713869	n/a	LTP265	ltpFR	17	3	1	OATS	968	1	n/a	0	n/a	n/a	n/a	n/a	n/a
3428.482	n/a	RECOG_CONF	1714241	n/a	LTP265	ltpFR	17	3	1	OATS	968	n/a	5	0	n/a	n/a	n/a	n/a	n/a
3429.936	n/a	RECOG_LURE	1714968	n/a	LTP265	ltpFR	17	3	n/a	HORSE	719	1	3	n/a	n/a	n/a	n/a	n/a	n/a
3430.836	n/a	RECOG_RESP	1715418	n/a	LTP265	ltpFR	17	3	n/a	HORSE	719	1	n/a	n/a	n/a	n/a	n/a	n/a	n/a
3432.284	n/a	RECOG_CONF	1716142	n/a	LTP265	ltpFR	17	3	n/a	HORSE	719	n/a	3	n/a	n/a	n/a	n/a	n/a	n/a
3433.914	n/a	RECOG_TARGET	1716957	n/a	LTP265	ltpFR	17	3	0	LACE	792	1	5	0	n/a	n/a	n/a	n/a	n/a
3434.996	n/a	RECOG_RESP	1717498	n/a	LTP265	ltpFR	17	3	0	LACE	792	1	n/a	0	n/a	n/a	n/a	n/a	n/a
3435.716	n/a	RECOG_CONF	1717858	n/a	LTP265	ltpFR	17	3	0	LACE	792	n/a	5	0	n/a	n/a	n/a	n/a	n/a
3437.258	n/a	RECOG_LURE	1718629	n/a	LTP265	ltpFR	17	3	n/a	STETHOSCOPE	1379	1	2	n/a	n/a	n/a	n/a	n/a	n/a
3438.28	n/a	RECOG_RESP	1719140	n/a	LTP265	ltpFR	17	3	n/a	STETHOSCOPE	1379	1	n/a	n/a	n/a	n/a	n/a	n/a	n/a
3439.416	n/a	RECOG_CONF	1719708	n/a	LTP265	ltpFR	17	3	n/a	STETHOSCOPE	1379	n/a	2	n/a	n/a	n/a	n/a	n/a	n/a
3440.92	n/a	RECOG_TARGET	1720460	n/a	LTP265	ltpFR	17	3	1	HAWK	692	1	4	1	n/a	n/a	n/a	n/a	n/a
3443.756	n/a	RECOG_RESP	1721878	n/a	LTP265	ltpFR	17	3	1	HAWK	692	1	n/a	1	n/a	n/a	n/a	n/a	n/a
3444.694	n/a	RECOG_CONF	1722347	n/a	LTP265	ltpFR	17	3	1	HAWK	692	n/a	4	1	n/a	n/a	n/a	n/a	n/a
3446.196	n/a	RECOG_LURE	1723098	n/a	LTP265	ltpFR	17	3	n/a	PRESIDENT	1121	0	5	n/a	n/a	n/a	n/a	n/a	n/a
3447.16	n/a	RECOG_RESP	1723580	n/a	LTP265	ltpFR	17	3	n/a	PRESIDENT	1121	0	n/a	n/a	n/a	n/a	n/a	n/a	n/a
3447.858	n/a	RECOG_CONF	1723929	n/a	LTP265	ltpFR	17	3	n/a	PRESIDENT	1121	n/a	5	n/a	n/a	n/a	n/a	n/a	n/a
3449.174	n/a	RECOG_LURE	1724587	n/a	LTP265	ltpFR	17	3	n/a	CHECKERS	285	0	5	n/a	n/a	n/a	n/a	n/a	n/a
3450.278	n/a	RECOG_RESP	1725139	n/a	LTP265	ltpFR	17	3	n/a	CHECKERS	285	0	n/a	n/a	n/a	n/a	n/a	n/a	n/a
3451.06	n/a	RECOG_CONF	1725530	n/a	LTP265	ltpFR	17	3	n/a	CHECKERS	285	n/a	5	n/a	n/a	n/a	n/a	n/a	n/a
3452.618	n/a	RECOG_TARGET	1726309	n/a	LTP265	ltpFR	17	3	1	COOK	372	1	5	1	n/a	n/a	n/a	n/a	n/a
3453.414	n/a	RECOG_RESP	1726707	n/a	LTP265	ltpFR	17	3	1	COOK	372	1	n/a	1	n/a	n/a	n/a	n/a	n/a
3454.154	n/a	RECOG_CONF	1727077	n/a	LTP265	ltpFR	17	3	1	COOK	372	n/a	5	1	n/a	n/a	n/a	n/a	n/a
3455.582	n/a	RECOG_TARGET	1727791	n/a	LTP265	ltpFR	17	3	1	HURRICANE	727	1	5	0	n/a	n/a	n/a	n/a	n/a
3456.542	n/a	RECOG_RESP	1728271	n/a	LTP265	ltpFR	17	3	1	HURRICANE	727	1	n/a	0	n/a	n/a	n/a	n/a	n/a
3457.326	n/a	RECOG_CONF	1728663	n/a	LTP265	ltpFR	17	3	1	HURRICANE	727	n/a	5	0	n/a	n/a	n/a	n/a	n/a
3458.876	n/a	RECOG_LURE	1729438	n/a	LTP265	ltpFR	17	3	n/a	PEDESTRIAN	1038	0	3	n/a	n/a	n/a	n/a	n/a	n/a
3459.966	n/a	RECOG_RESP	1729983	n/a	LTP265	ltpFR	17	3	n/a	PEDESTRIAN	1038	0	n/a	n/a	n/a	n/a	n/a	n/a	n/a
3460.778	n/a	RECOG_CONF	1730389	n/a	LTP265	ltpFR	17	3	n/a	PEDESTRIAN	1038	n/a	3	n/a	n/a	n/a	n/a	n/a	n/a
3462.238	n/a	RECOG_LURE	1731119	n/a	LTP265	ltpFR	17	3	n/a	CASTLE	256	0	4	n/a	n/a	n/a	n/a	n/a	n/a
3463.438	n/a	RECOG_RESP	1731719	n/a	LTP265	ltpFR	17	3	n/a	CASTLE	256	0	n/a	n/a	n/a	n/a	n/a	n/a	n/a
3464.22	n/a	RECOG_CONF	1732110	n/a	LTP265	ltpFR	17	3	n/a	CASTLE	256	n/a	4	n/a	n/a	n/a	n/a	n/a	n/a
3467.48	n/a	REC_START	1733740	n/a	LTP265	ltpFR	17	4	n/a	n/a	n/a	n/a	n/a	n/a	n/a	n/a	n/a	n/a	n/a
3467.514	n/a	RECOG_TARGET	1733757	n/a	LTP265	ltpFR	17	4	1	DOLLAR	482	1	5	0	n/a	n/a	n/a	n/a	n/a
3468.288	n/a	RECOG_RESP	1734144	n/a	LTP265	ltpFR	17	4	1	DOLLAR	482	1	n/a	0	n/a	n/a	n/a	n/a	n/a
3469.072	n/a	RECOG_CONF	1734536	n/a	LTP265	ltpFR	17	4	1	DOLLAR	482	n/a	5	0	n/a	n/a	n/a	n/a	n/a
3470.476	n/a	RECOG_LURE	1735238	n/a	LTP265	ltpFR	17	4	n/a	SHORTCAKE	1292	0	4	n/a	n/a	n/a	n/a	n/a	n/a
3471.296	n/a	RECOG_RESP	1735648	n/a	LTP265	ltpFR	17	4	n/a	SHORTCAKE	1292	0	n/a	n/a	n/a	n/a	n/a	n/a	n/a
3472.054	n/a	RECOG_CONF	1736027	n/a	LTP265	ltpFR	17	4	n/a	SHORTCAKE	1292	n/a	4	n/a	n/a	n/a	n/a	n/a	n/a
3473.654	n/a	RECOG_LURE	1736827	n/a	LTP265	ltpFR	17	4	n/a	GHOST	634	0	4	n/a	n/a	n/a	n/a	n/a	n/a
3474.454	n/a	RECOG_RESP	1737227	n/a	LTP265	ltpFR	17	4	n/a	GHOST	634	0	n/a	n/a	n/a	n/a	n/a	n/a	n/a
3475.158	n/a	RECOG_CONF	1737579	n/a	LTP265	ltpFR	17	4	n/a	GHOST	634	n/a	4	n/a	n/a	n/a	n/a	n/a	n/a
3476.534	n/a	RECOG_LURE	1738267	n/a	LTP265	ltpFR	17	4	n/a	DOOR	486	0	4	n/a	n/a	n/a	n/a	n/a	n/a
3477.712	n/a	RECOG_RESP	1738856	n/a	LTP265	ltpFR	17	4	n/a	DOOR	486	0	n/a	n/a	n/a	n/a	n/a	n/a	n/a
3478.432	n/a	RECOG_CONF	1739216	n/a	LTP265	ltpFR	17	4	n/a	DOOR	486	n/a	4	n/a	n/a	n/a	n/a	n/a	n/a
3479.98	n/a	RECOG_LURE	1739990	n/a	LTP265	ltpFR	17	4	n/a	EXPERT	543	0	4	n/a	n/a	n/a	n/a	n/a	n/a
3480.84	n/a	RECOG_RESP	1740420	n/a	LTP265	ltpFR	17	4	n/a	EXPERT	543	0	n/a	n/a	n/a	n/a	n/a	n/a	n/a
3481.584	n/a	RECOG_CONF	1740792	n/a	LTP265	ltpFR	17	4	n/a	EXPERT	543	n/a	4	n/a	n/a	n/a	n/a	n/a	n/a
3483.074	n/a	RECOG_TARGET	1741537	n/a	LTP265	ltpFR	17	4	0	COURT	391	1	3	1	n/a	n/a	n/a	n/a	n/a
3484.986	n/a	RECOG_RESP	1742493	n/a	LTP265	ltpFR	17	4	0	COURT	391	1	n/a	1	n/a	n/a	n/a	n/a	n/a
3486.404	n/a	RECOG_CONF	1743202	n/a	LTP265	ltpFR	17	4	0	COURT	391	n/a	3	1	n/a	n/a	n/a	n/a	n/a
3488.082	n/a	RECOG_LURE	1744041	n/a	LTP265	ltpFR	17	4	n/a	COBWEB	337	0	5	n/a	n/a	n/a	n/a	n/a	n/a
3488.952	n/a	RECOG_RESP	1744476	n/a	LTP265	ltpFR	17	4	n/a	COBWEB	337	0	n/a	n/a	n/a	n/a	n/a	n/a	n/a
3489.636	n/a	RECOG_CONF	1744818	n/a	LTP265	ltpFR	17	4	n/a	COBWEB	337	n/a	5	n/a	n/a	n/a	n/a	n/a	n/a
3491.212	n/a	RECOG_LURE	1745606	n/a	LTP265	ltpFR	17	4	n/a	SLUG	1329	0	5	n/a	n/a	n/a	n/a	n/a	n/a
3492.04	n/a	RECOG_RESP	1746020	n/a	LTP265	ltpFR	17	4	n/a	SLUG	1329	0	n/a	n/a	n/a	n/a	n/a	n/a	n/a
3492.7	n/a	RECOG_CONF	1746350	n/a	LTP265	ltpFR	17	4	n/a	SLUG	1329	n/a	5	n/a	n/a	n/a	n/a	n/a	n/a
3494.174	n/a	RECOG_LURE	1747087	n/a	LTP265	ltpFR	17	4	n/a	INN	739	0	5	n/a	n/a	n/a	n/a	n/a	n/a
3494.924	n/a	RECOG_RESP	1747462	n/a	LTP265	ltpFR	17	4	n/a	INN	739	0	n/a	n/a	n/a	n/a	n/a	n/a	n/a
3495.612	n/a	RECOG_CONF	1747806	n/a	LTP265	ltpFR	17	4	n/a	INN	739	n/a	5	n/a	n/a	n/a	n/a	n/a	n/a
3497.254	n/a	RECOG_LURE	1748627	n/a	LTP265	ltpFR	17	4	n/a	SALIVA	1226	0	5	n/a	n/a	n/a	n/a	n/a	n/a
3498.046	n/a	RECOG_RESP	1749023	n/a	LTP265	ltpFR	17	4	n/a	SALIVA	1226	0	n/a	n/a	n/a	n/a	n/a	n/a	n/a
3498.776	n/a	RECOG_CONF	1749388	n/a	LTP265	ltpFR	17	4	n/a	SALIVA	1226	n/a	5	n/a	n/a	n/a	n/a	n/a	n/a
3500.232	n/a	RECOG_TARGET	1750116	n/a	LTP265	ltpFR	17	4	0	STUDENT	1395	1	3	1	n/a	n/a	n/a	n/a	n/a
3501.434	n/a	RECOG_RESP	1750717	n/a	LTP265	ltpFR	17	4	0	STUDENT	1395	1	n/a	1	n/a	n/a	n/a	n/a	n/a
3502.396	n/a	RECOG_CONF	1751198	n/a	LTP265	ltpFR	17	4	0	STUDENT	1395	n/a	3	1	n/a	n/a	n/a	n/a	n/a
3503.876	n/a	RECOG_TARGET	1751938	n/a	LTP265	ltpFR	17	4	1	SERGEANT	1269	1	4	1	n/a	n/a	n/a	n/a	n/a
3504.642	n/a	RECOG_RESP	1752321	n/a	LTP265	ltpFR	17	4	1	SERGEANT	1269	1	n/a	1	n/a	n/a	n/a	n/a	n/a
3505.39	n/a	RECOG_CONF	1752695	n/a	LTP265	ltpFR	17	4	1	SERGEANT	1269	n/a	4	1	n/a	n/a	n/a	n/a	n/a
3506.938	n/a	RECOG_LURE	1753469	n/a	LTP265	ltpFR	17	4	n/a	ROOST	1208	0	5	n/a	n/a	n/a	n/a	n/a	n/a
3507.83	n/a	RECOG_RESP	1753915	n/a	LTP265	ltpFR	17	4	n/a	ROOST	1208	0	n/a	n/a	n/a	n/a	n/a	n/a	n/a
3508.534	n/a	RECOG_CONF	1754267	n/a	LTP265	ltpFR	17	4	n/a	ROOST	1208	n/a	5	n/a	n/a	n/a	n/a	n/a	n/a
3510.15	n/a	RECOG_TARGET	1755075	n/a	LTP265	ltpFR	17	4	1	GROOM	665	1	5	1	n/a	n/a	n/a	n/a	n/a
3511.012	n/a	RECOG_RESP	1755506	n/a	LTP265	ltpFR	17	4	1	GROOM	665	1	n/a	1	n/a	n/a	n/a	n/a	n/a
3511.726	n/a	RECOG_CONF	1755863	n/a	LTP265	ltpFR	17	4	1	GROOM	665	n/a	5	1	n/a	n/a	n/a	n/a	n/a
3513.23	n/a	RECOG_TARGET	1756615	n/a	LTP265	ltpFR	17	4	1	PIANO	1057	1	5	0	n/a	n/a	n/a	n/a	n/a
3514.05	n/a	RECOG_RESP	1757025	n/a	LTP265	ltpFR	17	4	1	PIANO	1057	1	n/a	0	n/a	n/a	n/a	n/a	n/a
3514.758	n/a	RECOG_CONF	1757379	n/a	LTP265	ltpFR	17	4	1	PIANO	1057	n/a	5	0	n/a	n/a	n/a	n/a	n/a
3516.274	n/a	RECOG_LURE	1758137	n/a	LTP265	ltpFR	17	4	n/a	TURTLE	1522	0	4	n/a	n/a	n/a	n/a	n/a	n/a
3518.286	n/a	RECOG_RESP	1759143	n/a	LTP265	ltpFR	17	4	n/a	TURTLE	1522	0	n/a	n/a	n/a	n/a	n/a	n/a	n/a
3519.108	n/a	RECOG_CONF	1759554	n/a	LTP265	ltpFR	17	4	n/a	TURTLE	1522	n/a	4	n/a	n/a	n/a	n/a	n/a	n/a
3520.568	n/a	RECOG_LURE	1760284	n/a	LTP265	ltpFR	17	4	n/a	BASEMENT	94	0	5	n/a	n/a	n/a	n/a	n/a	n/a
3521.398	n/a	RECOG_RESP	1760699	n/a	LTP265	ltpFR	17	4	n/a	BASEMENT	94	0	n/a	n/a	n/a	n/a	n/a	n/a	n/a
3522.062	n/a	RECOG_CONF	1761031	n/a	LTP265	ltpFR	17	4	n/a	BASEMENT	94	n/a	5	n/a	n/a	n/a	n/a	n/a	n/a
3523.464	n/a	RECOG_TARGET	1761732	n/a	LTP265	ltpFR	17	4	1	SCOUT	1252	1	5	1	n/a	n/a	n/a	n/a	n/a
3524.272	n/a	RECOG_RESP	1762136	n/a	LTP265	ltpFR	17	4	1	SCOUT	1252	1	n/a	1	n/a	n/a	n/a	n/a	n/a
3524.966	n/a	RECOG_CONF	1762483	n/a	LTP265	ltpFR	17	4	1	SCOUT	1252	n/a	5	1	n/a	n/a	n/a	n/a	n/a
3526.46	n/a	RECOG_TARGET	1763230	n/a	LTP265	ltpFR	17	4	1	MARROW	872	1	4	0	n/a	n/a	n/a	n/a	n/a
3528.672	n/a	RECOG_RESP	1764336	n/a	LTP265	ltpFR	17	4	1	MARROW	872	1	n/a	0	n/a	n/a	n/a	n/a	n/a
3529.506	n/a	RECOG_CONF	1764753	n/a	LTP265	ltpFR	17	4	1	MARROW	872	n/a	4	0	n/a	n/a	n/a	n/a	n/a
3531.036	n/a	RECOG_TARGET	1765518	n/a	LTP265	ltpFR	17	4	0	DIAPER	459	1	5	0	n/a	n/a	n/a	n/a	n/a
3531.676	n/a	RECOG_RESP	1765838	n/a	LTP265	ltpFR	17	4	0	DIAPER	459	1	n/a	0	n/a	n/a	n/a	n/a	n/a
3532.348	n/a	RECOG_CONF	1766174	n/a	LTP265	ltpFR	17	4	0	DIAPER	459	n/a	5	0	n/a	n/a	n/a	n/a	n/a
3545.644	n/a	REC_START	1772822	n/a	LTP265	ltpFR	17	5	n/a	n/a	n/a	n/a	n/a	n/a	n/a	n/a	n/a	n/a	n/a
3545.682	n/a	RECOG_LURE	1772841	n/a	LTP265	ltpFR	17	5	n/a	PIE	1062	0	5	n/a	n/a	n/a	n/a	n/a	n/a
3546.67	n/a	RECOG_RESP	1773335	n/a	LTP265	ltpFR	17	5	n/a	PIE	1062	0	n/a	n/a	n/a	n/a	n/a	n/a	n/a
3547.424	n/a	RECOG_CONF	1773712	n/a	LTP265	ltpFR	17	5	n/a	PIE	1062	n/a	5	n/a	n/a	n/a	n/a	n/a	n/a
3548.828	n/a	RECOG_TARGET	1774414	n/a	LTP265	ltpFR	17	5	0	LASH	802	1	5	0	n/a	n/a	n/a	n/a	n/a
3549.574	n/a	RECOG_RESP	1774787	n/a	LTP265	ltpFR	17	5	0	LASH	802	1	n/a	0	n/a	n/a	n/a	n/a	n/a
3550.268	n/a	RECOG_CONF	1775134	n/a	LTP265	ltpFR	17	5	0	LASH	802	n/a	5	0	n/a	n/a	n/a	n/a	n/a
3551.74	n/a	RECOG_LURE	1775870	n/a	LTP265	ltpFR	17	5	n/a	RESTAURANT	1187	0	3	n/a	n/a	n/a	n/a	n/a	n/a
3553.33	n/a	RECOG_RESP	1776665	n/a	LTP265	ltpFR	17	5	n/a	RESTAURANT	1187	0	n/a	n/a	n/a	n/a	n/a	n/a	n/a
3554.748	n/a	RECOG_CONF	1777374	n/a	LTP265	ltpFR	17	5	n/a	RESTAURANT	1187	n/a	3	n/a	n/a	n/a	n/a	n/a	n/a
3556.35	n/a	RECOG_TARGET	1778175	n/a	LTP265	ltpFR	17	5	0	JUNGLE	764	1	5	1	n/a	n/a	n/a	n/a	n/a
3557.028	n/a	RECOG_RESP	1778514	n/a	LTP265	ltpFR	17	5	0	JUNGLE	764	1	n/a	1	n/a	n/a	n/a	n/a	n/a
3557.74	n/a	RECOG_CONF	1778870	n/a	LTP265	ltpFR	17	5	0	JUNGLE	764	n/a	5	1	n/a	n/a	n/a	n/a	n/a
3559.246	n/a	RECOG_LURE	1779623	n/a	LTP265	ltpFR	17	5	n/a	LION	827	0	4	n/a	n/a	n/a	n/a	n/a	n/a
3560.43	n/a	RECOG_RESP	1780215	n/a	LTP265	ltpFR	17	5	n/a	LION	827	0	n/a	n/a	n/a	n/a	n/a	n/a	n/a
3561.184	n/a	RECOG_CONF	1780592	n/a	LTP265	ltpFR	17	5	n/a	LION	827	n/a	4	n/a	n/a	n/a	n/a	n/a	n/a
3562.79	n/a	RECOG_LURE	1781395	n/a	LTP265	ltpFR	17	5	n/a	OUTLAW	989	0	5	n/a	n/a	n/a	n/a	n/a	n/a
3563.572	n/a	RECOG_RESP	1781786	n/a	LTP265	ltpFR	17	5	n/a	OUTLAW	989	0	n/a	n/a	n/a	n/a	n/a	n/a	n/a
3564.276	n/a	RECOG_CONF	1782138	n/a	LTP265	ltpFR	17	5	n/a	OUTLAW	989	n/a	5	n/a	n/a	n/a	n/a	n/a	n/a
3565.868	n/a	RECOG_LURE	1782934	n/a	LTP265	ltpFR	17	5	n/a	HANGER	687	0	4	n/a	n/a	n/a	n/a	n/a	n/a
3566.77	n/a	RECOG_RESP	1783385	n/a	LTP265	ltpFR	17	5	n/a	HANGER	687	0	n/a	n/a	n/a	n/a	n/a	n/a	n/a
3567.478	n/a	RECOG_CONF	1783739	n/a	LTP265	ltpFR	17	5	n/a	HANGER	687	n/a	4	n/a	n/a	n/a	n/a	n/a	n/a
3568.998	n/a	RECOG_LURE	1784499	n/a	LTP265	ltpFR	17	5	n/a	FIELD	562	0	4	n/a	n/a	n/a	n/a	n/a	n/a
3570.182	n/a	RECOG_RESP	1785091	n/a	LTP265	ltpFR	17	5	n/a	FIELD	562	0	n/a	n/a	n/a	n/a	n/a	n/a	n/a
3571.05	n/a	RECOG_CONF	1785525	n/a	LTP265	ltpFR	17	5	n/a	FIELD	562	n/a	4	n/a	n/a	n/a	n/a	n/a	n/a
3572.758	n/a	RECOG_LURE	1786379	n/a	LTP265	ltpFR	17	5	n/a	HAMMER	680	0	5	n/a	n/a	n/a	n/a	n/a	n/a
3573.68	n/a	RECOG_RESP	1786840	n/a	LTP265	ltpFR	17	5	n/a	HAMMER	680	0	n/a	n/a	n/a	n/a	n/a	n/a	n/a
3574.392	n/a	RECOG_CONF	1787196	n/a	LTP265	ltpFR	17	5	n/a	HAMMER	680	n/a	5	n/a	n/a	n/a	n/a	n/a	n/a
3575.87	n/a	RECOG_TARGET	1787935	n/a	LTP265	ltpFR	17	5	0	ACROBAT	4	1	5	1	n/a	n/a	n/a	n/a	n/a
3576.648	n/a	RECOG_RESP	1788324	n/a	LTP265	ltpFR	17	5	0	ACROBAT	4	1	n/a	1	n/a	n/a	n/a	n/a	n/a
3577.396	n/a	RECOG_CONF	1788698	n/a	LTP265	ltpFR	17	5	0	ACROBAT	4	n/a	5	1	n/a	n/a	n/a	n/a	n/a
3578.932	n/a	RECOG_LURE	1789466	n/a	LTP265	ltpFR	17	5	n/a	ASH	44	0	4	n/a	n/a	n/a	n/a	n/a	n/a
3579.626	n/a	RECOG_RESP	1789813	n/a	LTP265	ltpFR	17	5	n/a	ASH	44	0	n/a	n/a	n/a	n/a	n/a	n/a	n/a
3580.41	n/a	RECOG_CONF	1790205	n/a	LTP265	ltpFR	17	5	n/a	ASH	44	n/a	4	n/a	n/a	n/a	n/a	n/a	n/a
3581.994	n/a	RECOG_TARGET	1790997	n/a	LTP265	ltpFR	17	5	-1	WHALE	1601	1	5	-1	n/a	n/a	n/a	n/a	n/a
3583.058	n/a	RECOG_RESP	1791529	n/a	LTP265	ltpFR	17	5	-1	WHALE	1601	1	n/a	-1	n/a	n/a	n/a	n/a	n/a
3583.862	n/a	RECOG_CONF	1791931	n/a	LTP265	ltpFR	17	5	-1	WHALE	1601	n/a	5	-1	n/a	n/a	n/a	n/a	n/a
3585.44	n/a	RECOG_TARGET	1792720	n/a	LTP265	ltpFR	17	5	-1	SCULPTURE	1258	1	5	-1	n/a	n/a	n/a	n/a	n/a
3586.132	n/a	RECOG_RESP	1793066	n/a	LTP265	ltpFR	17	5	-1	SCULPTURE	1258	1	n/a	-1	n/a	n/a	n/a	n/a	n/a
3586.964	n/a	RECOG_CONF	1793482	n/a	LTP265	ltpFR	17	5	-1	SCULPTURE	1258	n/a	5	-1	n/a	n/a	n/a	n/a	n/a
3588.384	n/a	RECOG_LURE	1794192	n/a	LTP265	ltpFR	17	5	n/a	VETERAN	1561	1	1	n/a	n/a	n/a	n/a	n/a	n/a
3589.28	n/a	RECOG_RESP	1794640	n/a	LTP265	ltpFR	17	5	n/a	VETERAN	1561	1	n/a	n/a	n/a	n/a	n/a	n/a	n/a
3590.656	n/a	RECOG_CONF	1795328	n/a	LTP265	ltpFR	17	5	n/a	VETERAN	1561	n/a	1	n/a	n/a	n/a	n/a	n/a	n/a
3592.262	n/a	RECOG_LURE	1796131	n/a	LTP265	ltpFR	17	5	n/a	SKIRT	1319	0	4	n/a	n/a	n/a	n/a	n/a	n/a
3593.65	n/a	RECOG_RESP	1796825	n/a	LTP265	ltpFR	17	5	n/a	SKIRT	1319	0	n/a	n/a	n/a	n/a	n/a	n/a	n/a
3594.508	n/a	RECOG_CONF	1797254	n/a	LTP265	ltpFR	17	5	n/a	SKIRT	1319	n/a	4	n/a	n/a	n/a	n/a	n/a	n/a
