mstime	trial_type	stim_file	subject	experiment	session	trial	task	item_name	item_num	recog_resp	recog_conf	resp	color_r	color_g	color_b	case	font
0	SESS_START	n/a	LTP197	ltpFR	6	n/a	n/a	n/a	n/a	1	2	n/a	n/a	n/a	n/a	n/a	n/a
44444	WORD	wordpools/wasnorm_wordpool_less_exclusions.txt	LTP197	ltpFR	6	1	1	GUM	672	0	n/a	0	0.57763671875	0.412841796875	1	lower	zerothre.ttf
48355	WORD	wordpools/wasnorm_wordpool_less_exclusions.txt	LTP197	ltpFR	6	1	1	SUPPER	1411	n/a	n/a	0	0.57763671875	0.412841796875	1	lower	zerothre.ttf
52315	WORD	wordpools/wasnorm_wordpool_less_exclusions.txt	LTP197	ltpFR	6	1	0	SENATOR	1268	n/a	n/a	1	0.422607421875	0.5869140625	0	upper	amplitud.ttf
56310	WORD	wordpools/wasnorm_wordpool_less_exclusions.txt	LTP197	ltpFR	6	1	0	DIVER	476	n/a	n/a	1	0.422607421875	0.5869140625	0	upper	amplitud.ttf
60520	WORD	wordpools/wasnorm_wordpool_less_exclusions.txt	LTP197	ltpFR	6	1	0	SWIMMER	1420	n/a	n/a	1	0.422607421875	0.5869140625	0	upper	amplitud.ttf
64613	WORD	wordpools/wasnorm_wordpool_less_exclusions.txt	LTP197	ltpFR	6	1	0	VOLLEYBALL	1576	n/a	n/a	1	0.422607421875	0.5869140625	0	upper	amplitud.ttf
68807	WORD	wordpools/wasnorm_wordpool_less_exclusions.txt	LTP197	ltpFR	6	1	1	COIN	343	n/a	n/a	0	0.57763671875	0.412841796875	1	lower	zerothre.ttf
72935	WORD	wordpools/wasnorm_wordpool_less_exclusions.txt	LTP197	ltpFR	6	1	1	CASH	252	n/a	n/a	0	0.57763671875	0.412841796875	1	lower	zerothre.ttf
76995	WORD	wordpools/wasnorm_wordpool_less_exclusions.txt	LTP197	ltpFR	6	1	1	BLADE	134	n/a	n/a	0	0.57763671875	0.412841796875	1	lower	zerothre.ttf
81122	WORD	wordpools/wasnorm_wordpool_less_exclusions.txt	LTP197	ltpFR	6	1	1	SINK	1309	n/a	n/a	0	0.57763671875	0.412841796875	1	lower	zerothre.ttf
85316	WORD	wordpools/wasnorm_wordpool_less_exclusions.txt	LTP197	ltpFR	6	1	0	JOKER	759	n/a	n/a	1	0.422607421875	0.5869140625	0	upper	amplitud.ttf
89310	WORD	wordpools/wasnorm_wordpool_less_exclusions.txt	LTP197	ltpFR	6	1	0	DUCK	504	n/a	n/a	0	0.422607421875	0.5869140625	0	upper	amplitud.ttf
93404	WORD	wordpools/wasnorm_wordpool_less_exclusions.txt	LTP197	ltpFR	6	1	0	BUCKET	184	n/a	n/a	0	0.422607421875	0.5869140625	0	upper	amplitud.ttf
97282	WORD	wordpools/wasnorm_wordpool_less_exclusions.txt	LTP197	ltpFR	6	1	0	SPATULA	1348	n/a	n/a	0	0.422607421875	0.5869140625	0	upper	amplitud.ttf
101425	WORD	wordpools/wasnorm_wordpool_less_exclusions.txt	LTP197	ltpFR	6	1	1	VEGETABLE	1552	n/a	n/a	1	0.57763671875	0.412841796875	1	lower	zerothre.ttf
105635	WORD	wordpools/wasnorm_wordpool_less_exclusions.txt	LTP197	ltpFR	6	1	1	APPLE	33	n/a	n/a	1	0.57763671875	0.412841796875	1	lower	zerothre.ttf
111693	REC_START	n/a	LTP197	ltpFR	6	1	n/a	n/a	n/a	n/a	n/a	n/a	n/a	n/a	n/a	n/a	n/a
112915	REC_WORD	wordpools/wasnorm_wordpool_less_exclusions.txt	LTP197	ltpFR	6	1	1	APPLE	33	n/a	n/a	1	n/a	n/a	n/a	n/a	n/a
113788	REC_WORD	wordpools/wasnorm_wordpool_less_exclusions.txt	LTP197	ltpFR	6	1	1	VEGETABLE	1552	n/a	n/a	1	n/a	n/a	n/a	n/a	n/a
114788	REC_WORD_VV	wordpools/wasnorm_wordpool_less_exclusions.txt	LTP197	ltpFR	6	1	n/a	<>	-1	n/a	n/a	n/a	n/a	n/a	n/a	n/a	n/a
115210	REC_WORD	wordpools/wasnorm_wordpool_less_exclusions.txt	LTP197	ltpFR	6	1	1	GUM	672	n/a	n/a	0	n/a	n/a	n/a	n/a	n/a
116327	REC_WORD	wordpools/wasnorm_wordpool_less_exclusions.txt	LTP197	ltpFR	6	1	1	BLADE	134	n/a	n/a	0	n/a	n/a	n/a	n/a	n/a
117140	REC_WORD	wordpools/wasnorm_wordpool_less_exclusions.txt	LTP197	ltpFR	6	1	0	SPATULA	1348	n/a	n/a	0	n/a	n/a	n/a	n/a	n/a
117978	REC_WORD	wordpools/wasnorm_wordpool_less_exclusions.txt	LTP197	ltpFR	6	1	1	SUPPER	1411	n/a	n/a	0	n/a	n/a	n/a	n/a	n/a
118926	REC_WORD	wordpools/wasnorm_wordpool_less_exclusions.txt	LTP197	ltpFR	6	1	0	SENATOR	1268	n/a	n/a	1	n/a	n/a	n/a	n/a	n/a
121321	REC_WORD	wordpools/wasnorm_wordpool_less_exclusions.txt	LTP197	ltpFR	6	1	0	DIVER	476	n/a	n/a	1	n/a	n/a	n/a	n/a	n/a
121936	REC_WORD	wordpools/wasnorm_wordpool_less_exclusions.txt	LTP197	ltpFR	6	1	0	SWIMMER	1420	n/a	n/a	1	n/a	n/a	n/a	n/a	n/a
122926	REC_WORD	wordpools/wasnorm_wordpool_less_exclusions.txt	LTP197	ltpFR	6	1	1	SINK	1309	n/a	n/a	0	n/a	n/a	n/a	n/a	n/a
124448	REC_WORD	wordpools/wasnorm_wordpool_less_exclusions.txt	LTP197	ltpFR	6	1	0	BUCKET	184	n/a	n/a	0	n/a	n/a	n/a	n/a	n/a
125197	REC_WORD	wordpools/wasnorm_wordpool_less_exclusions.txt	LTP197	ltpFR	6	1	0	VOLLEYBALL	1576	n/a	n/a	1	n/a	n/a	n/a	n/a	n/a
127118	REC_WORD	wordpools/wasnorm_wordpool_less_exclusions.txt	LTP197	ltpFR	6	1	0	DUCK	504	n/a	n/a	0	n/a	n/a	n/a	n/a	n/a
191857	WORD	wordpools/wasnorm_wordpool_less_exclusions.txt	LTP197	ltpFR	6	2	0	LUNG	850	n/a	n/a	1	0.422607421875	0.5869140625	0	upper	amplitud.ttf
195818	WORD	wordpools/wasnorm_wordpool_less_exclusions.txt	LTP197	ltpFR	6	2	0	PAGE	1001	n/a	n/a	0	0.422607421875	0.5869140625	0	upper	amplitud.ttf
199912	WORD	wordpools/wasnorm_wordpool_less_exclusions.txt	LTP197	ltpFR	6	2	0	FRIEND	606	n/a	n/a	1	0.422607421875	0.5869140625	0	upper	amplitud.ttf
203989	WORD	wordpools/wasnorm_wordpool_less_exclusions.txt	LTP197	ltpFR	6	2	0	THIGH	1457	n/a	n/a	1	0.422607421875	0.5869140625	0	upper	amplitud.ttf
207817	WORD	wordpools/wasnorm_wordpool_less_exclusions.txt	LTP197	ltpFR	6	2	0	SCARF	1246	n/a	n/a	1	0.422607421875	0.5869140625	0	upper	amplitud.ttf
211994	WORD	wordpools/wasnorm_wordpool_less_exclusions.txt	LTP197	ltpFR	6	2	0	PARTY	1018	n/a	n/a	1	0.422607421875	0.5869140625	0	upper	amplitud.ttf
215954	WORD	wordpools/wasnorm_wordpool_less_exclusions.txt	LTP197	ltpFR	6	2	1	DIPLOMA	470	n/a	n/a	0	0.57763671875	0.412841796875	1	lower	zerothre.ttf
219915	WORD	wordpools/wasnorm_wordpool_less_exclusions.txt	LTP197	ltpFR	6	2	1	RULER	1216	n/a	n/a	0	0.57763671875	0.412841796875	1	lower	zerothre.ttf
224109	WORD	wordpools/wasnorm_wordpool_less_exclusions.txt	LTP197	ltpFR	6	2	1	THRONE	1461	n/a	n/a	0	0.57763671875	0.412841796875	1	lower	zerothre.ttf
228253	WORD	wordpools/wasnorm_wordpool_less_exclusions.txt	LTP197	ltpFR	6	2	1	HAMPER	682	n/a	n/a	0	0.57763671875	0.412841796875	1	lower	zerothre.ttf
232380	WORD	wordpools/wasnorm_wordpool_less_exclusions.txt	LTP197	ltpFR	6	2	1	RAFT	1159	n/a	n/a	0	0.57763671875	0.412841796875	1	lower	zerothre.ttf
236507	WORD	wordpools/wasnorm_wordpool_less_exclusions.txt	LTP197	ltpFR	6	2	1	CRAB	397	n/a	n/a	0	0.57763671875	0.412841796875	1	lower	zerothre.ttf
240501	WORD	wordpools/wasnorm_wordpool_less_exclusions.txt	LTP197	ltpFR	6	2	0	ATMOSPHERE	54	n/a	n/a	1	0.422607421875	0.5869140625	0	upper	amplitud.ttf
244544	WORD	wordpools/wasnorm_wordpool_less_exclusions.txt	LTP197	ltpFR	6	2	0	OAR	966	n/a	n/a	0	0.422607421875	0.5869140625	0	upper	amplitud.ttf
248555	WORD	wordpools/wasnorm_wordpool_less_exclusions.txt	LTP197	ltpFR	6	2	1	CONTRACTOR	369	n/a	n/a	1	0.57763671875	0.412841796875	1	lower	zerothre.ttf
252383	WORD	wordpools/wasnorm_wordpool_less_exclusions.txt	LTP197	ltpFR	6	2	1	BUILDER	190	n/a	n/a	1	0.57763671875	0.412841796875	1	lower	zerothre.ttf
258175	REC_START	n/a	LTP197	ltpFR	6	2	n/a	n/a	n/a	n/a	n/a	n/a	n/a	n/a	n/a	n/a	n/a
258943	REC_WORD	wordpools/wasnorm_wordpool_less_exclusions.txt	LTP197	ltpFR	6	2	1	BUILDER	190	n/a	n/a	1	n/a	n/a	n/a	n/a	n/a
259846	REC_WORD	wordpools/wasnorm_wordpool_less_exclusions.txt	LTP197	ltpFR	6	2	1	CONTRACTOR	369	n/a	n/a	1	n/a	n/a	n/a	n/a	n/a
260846	REC_WORD_VV	wordpools/wasnorm_wordpool_less_exclusions.txt	LTP197	ltpFR	6	2	n/a	<>	-1	n/a	n/a	n/a	n/a	n/a	n/a	n/a	n/a
260938	REC_WORD	wordpools/wasnorm_wordpool_less_exclusions.txt	LTP197	ltpFR	6	2	1	RAFT	1159	n/a	n/a	0	n/a	n/a	n/a	n/a	n/a
262111	REC_WORD	wordpools/wasnorm_wordpool_less_exclusions.txt	LTP197	ltpFR	6	2	0	OAR	966	n/a	n/a	0	n/a	n/a	n/a	n/a	n/a
265508	REC_WORD	wordpools/wasnorm_wordpool_less_exclusions.txt	LTP197	ltpFR	6	2	1	THRONE	1461	n/a	n/a	0	n/a	n/a	n/a	n/a	n/a
266486	REC_WORD	wordpools/wasnorm_wordpool_less_exclusions.txt	LTP197	ltpFR	6	2	1	CRAB	397	n/a	n/a	0	n/a	n/a	n/a	n/a	n/a
268985	REC_WORD	wordpools/wasnorm_wordpool_less_exclusions.txt	LTP197	ltpFR	6	2	0	LUNG	850	n/a	n/a	1	n/a	n/a	n/a	n/a	n/a
269888	REC_WORD	wordpools/wasnorm_wordpool_less_exclusions.txt	LTP197	ltpFR	6	2	0	PAGE	1001	n/a	n/a	0	n/a	n/a	n/a	n/a	n/a
270671	REC_WORD	wordpools/wasnorm_wordpool_less_exclusions.txt	LTP197	ltpFR	6	2	0	FRIEND	606	n/a	n/a	1	n/a	n/a	n/a	n/a	n/a
272422	REC_WORD	wordpools/wasnorm_wordpool_less_exclusions.txt	LTP197	ltpFR	6	2	0	PARTY	1018	n/a	n/a	1	n/a	n/a	n/a	n/a	n/a
275121	REC_WORD	wordpools/wasnorm_wordpool_less_exclusions.txt	LTP197	ltpFR	6	2	1	RULER	1216	n/a	n/a	0	n/a	n/a	n/a	n/a	n/a
276104	REC_WORD	wordpools/wasnorm_wordpool_less_exclusions.txt	LTP197	ltpFR	6	2	1	DIPLOMA	470	n/a	n/a	0	n/a	n/a	n/a	n/a	n/a
280628	REC_WORD	wordpools/wasnorm_wordpool_less_exclusions.txt	LTP197	ltpFR	6	2	0	SCARF	1246	n/a	n/a	1	n/a	n/a	n/a	n/a	n/a
282514	REC_WORD	wordpools/wasnorm_wordpool_less_exclusions.txt	LTP197	ltpFR	6	2	0	THIGH	1457	n/a	n/a	1	n/a	n/a	n/a	n/a	n/a
337290	WORD	wordpools/wasnorm_wordpool_less_exclusions.txt	LTP197	ltpFR	6	3	-1	SAILOR	1223	n/a	n/a	-1	1.0	1.0	1	upper	Verdana.ttf
341367	WORD	wordpools/wasnorm_wordpool_less_exclusions.txt	LTP197	ltpFR	6	3	-1	SHIP	1286	n/a	n/a	-1	1.0	1.0	1	upper	Verdana.ttf
345461	WORD	wordpools/wasnorm_wordpool_less_exclusions.txt	LTP197	ltpFR	6	3	-1	MUG	930	n/a	n/a	-1	1.0	1.0	1	upper	Verdana.ttf
349521	WORD	wordpools/wasnorm_wordpool_less_exclusions.txt	LTP197	ltpFR	6	3	-1	RESORT	1186	n/a	n/a	-1	1.0	1.0	1	upper	Verdana.ttf
353449	WORD	wordpools/wasnorm_wordpool_less_exclusions.txt	LTP197	ltpFR	6	3	-1	LIMB	822	n/a	n/a	-1	1.0	1.0	1	upper	Verdana.ttf
357476	WORD	wordpools/wasnorm_wordpool_less_exclusions.txt	LTP197	ltpFR	6	3	-1	BARLEY	88	n/a	n/a	-1	1.0	1.0	1	upper	Verdana.ttf
361437	WORD	wordpools/wasnorm_wordpool_less_exclusions.txt	LTP197	ltpFR	6	3	-1	SAGE	1222	n/a	n/a	-1	1.0	1.0	1	upper	Verdana.ttf
365580	WORD	wordpools/wasnorm_wordpool_less_exclusions.txt	LTP197	ltpFR	6	3	-1	SHRIMP	1297	n/a	n/a	-1	1.0	1.0	1	upper	Verdana.ttf
369492	WORD	wordpools/wasnorm_wordpool_less_exclusions.txt	LTP197	ltpFR	6	3	-1	BOOK	149	n/a	n/a	-1	1.0	1.0	1	upper	Verdana.ttf
373568	WORD	wordpools/wasnorm_wordpool_less_exclusions.txt	LTP197	ltpFR	6	3	-1	ASTEROID	50	n/a	n/a	-1	1.0	1.0	1	upper	Verdana.ttf
377762	WORD	wordpools/wasnorm_wordpool_less_exclusions.txt	LTP197	ltpFR	6	3	-1	KNUCKLE	789	n/a	n/a	-1	1.0	1.0	1	upper	Verdana.ttf
381890	WORD	wordpools/wasnorm_wordpool_less_exclusions.txt	LTP197	ltpFR	6	3	-1	TOURIST	1488	n/a	n/a	-1	1.0	1.0	1	upper	Verdana.ttf
386034	WORD	wordpools/wasnorm_wordpool_less_exclusions.txt	LTP197	ltpFR	6	3	-1	SIDING	1304	n/a	n/a	-1	1.0	1.0	1	upper	Verdana.ttf
390111	WORD	wordpools/wasnorm_wordpool_less_exclusions.txt	LTP197	ltpFR	6	3	-1	WHALE	1601	n/a	n/a	-1	1.0	1.0	1	upper	Verdana.ttf
394255	WORD	wordpools/wasnorm_wordpool_less_exclusions.txt	LTP197	ltpFR	6	3	-1	DENIM	446	n/a	n/a	-1	1.0	1.0	1	upper	Verdana.ttf
398399	WORD	wordpools/wasnorm_wordpool_less_exclusions.txt	LTP197	ltpFR	6	3	-1	UNDERWEAR	1537	n/a	n/a	-1	1.0	1.0	1	upper	Verdana.ttf
404340	REC_START	n/a	LTP197	ltpFR	6	3	n/a	n/a	n/a	n/a	n/a	n/a	n/a	n/a	n/a	n/a	n/a
405178	REC_WORD	wordpools/wasnorm_wordpool_less_exclusions.txt	LTP197	ltpFR	6	3	-1	UNDERWEAR	1537	n/a	n/a	-1	n/a	n/a	n/a	n/a	n/a
407099	REC_WORD	wordpools/wasnorm_wordpool_less_exclusions.txt	LTP197	ltpFR	6	3	-1	DENIM	446	n/a	n/a	-1	n/a	n/a	n/a	n/a	n/a
407857	REC_WORD	wordpools/wasnorm_wordpool_less_exclusions.txt	LTP197	ltpFR	6	3	-1	WHALE	1601	n/a	n/a	-1	n/a	n/a	n/a	n/a	n/a
408505	REC_WORD	wordpools/wasnorm_wordpool_less_exclusions.txt	LTP197	ltpFR	6	3	-1	SIDING	1304	n/a	n/a	-1	n/a	n/a	n/a	n/a	n/a
409657	REC_WORD	wordpools/wasnorm_wordpool_less_exclusions.txt	LTP197	ltpFR	6	3	-1	TOURIST	1488	n/a	n/a	-1	n/a	n/a	n/a	n/a	n/a
411169	REC_WORD	wordpools/wasnorm_wordpool_less_exclusions.txt	LTP197	ltpFR	6	3	-1	SAILOR	1223	n/a	n/a	-1	n/a	n/a	n/a	n/a	n/a
415874	REC_WORD	wordpools/wasnorm_wordpool_less_exclusions.txt	LTP197	ltpFR	6	3	-1	SHIP	1286	n/a	n/a	-1	n/a	n/a	n/a	n/a	n/a
418138	REC_WORD	wordpools/wasnorm_wordpool_less_exclusions.txt	LTP197	ltpFR	6	3	-1	LIMB	822	n/a	n/a	-1	n/a	n/a	n/a	n/a	n/a
418817	REC_WORD	wordpools/wasnorm_wordpool_less_exclusions.txt	LTP197	ltpFR	6	3	-1	SAGE	1222	n/a	n/a	-1	n/a	n/a	n/a	n/a	n/a
419989	REC_WORD	wordpools/wasnorm_wordpool_less_exclusions.txt	LTP197	ltpFR	6	3	-1	BARLEY	88	n/a	n/a	-1	n/a	n/a	n/a	n/a	n/a
420912	REC_WORD	wordpools/wasnorm_wordpool_less_exclusions.txt	LTP197	ltpFR	6	3	-1	UNDERWEAR	1537	n/a	n/a	-1	n/a	n/a	n/a	n/a	n/a
421990	REC_WORD	wordpools/wasnorm_wordpool_less_exclusions.txt	LTP197	ltpFR	6	3	-1	KNUCKLE	789	n/a	n/a	-1	n/a	n/a	n/a	n/a	n/a
422992	REC_WORD	wordpools/wasnorm_wordpool_less_exclusions.txt	LTP197	ltpFR	6	3	-1	MUG	930	n/a	n/a	-1	n/a	n/a	n/a	n/a	n/a
428550	REC_WORD	wordpools/wasnorm_wordpool_less_exclusions.txt	LTP197	ltpFR	6	3	-1	LIMB	822	n/a	n/a	-1	n/a	n/a	n/a	n/a	n/a
434282	REC_WORD	wordpools/wasnorm_wordpool_less_exclusions.txt	LTP197	ltpFR	6	3	-1	ASTEROID	50	n/a	n/a	-1	n/a	n/a	n/a	n/a	n/a
435519	REC_WORD	wordpools/wasnorm_wordpool_less_exclusions.txt	LTP197	ltpFR	6	3	-1	BOOK	149	n/a	n/a	-1	n/a	n/a	n/a	n/a	n/a
485502	WORD	wordpools/wasnorm_wordpool_less_exclusions.txt	LTP197	ltpFR	6	4	0	CAPE	237	n/a	n/a	1	0.422607421875	0.5869140625	0	upper	amplitud.ttf
489379	WORD	wordpools/wasnorm_wordpool_less_exclusions.txt	LTP197	ltpFR	6	4	0	ROBE	1198	n/a	n/a	1	0.422607421875	0.5869140625	0	upper	amplitud.ttf
493390	WORD	wordpools/wasnorm_wordpool_less_exclusions.txt	LTP197	ltpFR	6	4	0	WARRIOR	1589	n/a	n/a	1	0.422607421875	0.5869140625	0	upper	amplitud.ttf
497417	WORD	wordpools/wasnorm_wordpool_less_exclusions.txt	LTP197	ltpFR	6	4	0	HAMMOCK	681	n/a	n/a	1	0.422607421875	0.5869140625	0	upper	amplitud.ttf
501461	WORD	wordpools/wasnorm_wordpool_less_exclusions.txt	LTP197	ltpFR	6	4	0	BUTTER	205	n/a	n/a	0	0.422607421875	0.5869140625	0	upper	amplitud.ttf
505621	WORD	wordpools/wasnorm_wordpool_less_exclusions.txt	LTP197	ltpFR	6	4	0	SKETCH	1315	n/a	n/a	0	0.422607421875	0.5869140625	0	upper	amplitud.ttf
509648	WORD	wordpools/wasnorm_wordpool_less_exclusions.txt	LTP197	ltpFR	6	4	0	PAINTER	1004	n/a	n/a	1	0.422607421875	0.5869140625	0	upper	amplitud.ttf
513859	WORD	wordpools/wasnorm_wordpool_less_exclusions.txt	LTP197	ltpFR	6	4	0	RACKET	1155	n/a	n/a	1	0.422607421875	0.5869140625	0	upper	amplitud.ttf
517703	WORD	wordpools/wasnorm_wordpool_less_exclusions.txt	LTP197	ltpFR	6	4	0	FISH	571	n/a	n/a	1	0.422607421875	0.5869140625	0	upper	amplitud.ttf
521597	WORD	wordpools/wasnorm_wordpool_less_exclusions.txt	LTP197	ltpFR	6	4	0	MUFFIN	929	n/a	n/a	0	0.422607421875	0.5869140625	0	upper	amplitud.ttf
525492	WORD	wordpools/wasnorm_wordpool_less_exclusions.txt	LTP197	ltpFR	6	4	0	SWING	1421	n/a	n/a	0	0.422607421875	0.5869140625	0	upper	amplitud.ttf
529618	WORD	wordpools/wasnorm_wordpool_less_exclusions.txt	LTP197	ltpFR	6	4	0	MOAT	903	n/a	n/a	1	0.422607421875	0.5869140625	0	upper	amplitud.ttf
533513	WORD	wordpools/wasnorm_wordpool_less_exclusions.txt	LTP197	ltpFR	6	4	0	DANDRUFF	439	n/a	n/a	0	0.422607421875	0.5869140625	0	upper	amplitud.ttf
537458	WORD	wordpools/wasnorm_wordpool_less_exclusions.txt	LTP197	ltpFR	6	4	0	ROAD	1196	n/a	n/a	1	0.422607421875	0.5869140625	0	upper	amplitud.ttf
541485	WORD	wordpools/wasnorm_wordpool_less_exclusions.txt	LTP197	ltpFR	6	4	0	PLAID	1080	n/a	n/a	1	0.422607421875	0.5869140625	0	upper	amplitud.ttf
545329	WORD	wordpools/wasnorm_wordpool_less_exclusions.txt	LTP197	ltpFR	6	4	0	BUTTON	207	n/a	n/a	0	0.422607421875	0.5869140625	0	upper	amplitud.ttf
551138	REC_START	n/a	LTP197	ltpFR	6	4	n/a	n/a	n/a	n/a	n/a	n/a	n/a	n/a	n/a	n/a	n/a
551851	REC_WORD	wordpools/wasnorm_wordpool_less_exclusions.txt	LTP197	ltpFR	6	4	0	PLAID	1080	n/a	n/a	1	n/a	n/a	n/a	n/a	n/a
552769	REC_WORD	wordpools/wasnorm_wordpool_less_exclusions.txt	LTP197	ltpFR	6	4	0	BUTTON	207	n/a	n/a	0	n/a	n/a	n/a	n/a	n/a
553627	REC_WORD	wordpools/wasnorm_wordpool_less_exclusions.txt	LTP197	ltpFR	6	4	0	ROAD	1196	n/a	n/a	1	n/a	n/a	n/a	n/a	n/a
554610	REC_WORD	wordpools/wasnorm_wordpool_less_exclusions.txt	LTP197	ltpFR	6	4	0	MOAT	903	n/a	n/a	1	n/a	n/a	n/a	n/a	n/a
555976	REC_WORD	wordpools/wasnorm_wordpool_less_exclusions.txt	LTP197	ltpFR	6	4	0	SWING	1421	n/a	n/a	0	n/a	n/a	n/a	n/a	n/a
556810	REC_WORD	wordpools/wasnorm_wordpool_less_exclusions.txt	LTP197	ltpFR	6	4	0	HAMMOCK	681	n/a	n/a	1	n/a	n/a	n/a	n/a	n/a
557952	REC_WORD	wordpools/wasnorm_wordpool_less_exclusions.txt	LTP197	ltpFR	6	4	0	WARRIOR	1589	n/a	n/a	1	n/a	n/a	n/a	n/a	n/a
559554	REC_WORD	wordpools/wasnorm_wordpool_less_exclusions.txt	LTP197	ltpFR	6	4	0	CAPE	237	n/a	n/a	1	n/a	n/a	n/a	n/a	n/a
560237	REC_WORD	wordpools/wasnorm_wordpool_less_exclusions.txt	LTP197	ltpFR	6	4	0	ROBE	1198	n/a	n/a	1	n/a	n/a	n/a	n/a	n/a
561948	REC_WORD	wordpools/wasnorm_wordpool_less_exclusions.txt	LTP197	ltpFR	6	4	0	PAINTER	1004	n/a	n/a	1	n/a	n/a	n/a	n/a	n/a
562866	REC_WORD	wordpools/wasnorm_wordpool_less_exclusions.txt	LTP197	ltpFR	6	4	0	SKETCH	1315	n/a	n/a	0	n/a	n/a	n/a	n/a	n/a
563644	REC_WORD	wordpools/wasnorm_wordpool_less_exclusions.txt	LTP197	ltpFR	6	4	0	MUFFIN	929	n/a	n/a	0	n/a	n/a	n/a	n/a	n/a
564652	REC_WORD	wordpools/wasnorm_wordpool_less_exclusions.txt	LTP197	ltpFR	6	4	0	BUTTER	205	n/a	n/a	0	n/a	n/a	n/a	n/a	n/a
566568	REC_WORD	wordpools/wasnorm_wordpool_less_exclusions.txt	LTP197	ltpFR	6	4	0	RACKET	1155	n/a	n/a	1	n/a	n/a	n/a	n/a	n/a
567346	REC_WORD	wordpools/wasnorm_wordpool_less_exclusions.txt	LTP197	ltpFR	6	4	0	FISH	571	n/a	n/a	1	n/a	n/a	n/a	n/a	n/a
629087	WORD	wordpools/wasnorm_wordpool_less_exclusions.txt	LTP197	ltpFR	6	5	0	GRASSHOPPER	656	n/a	n/a	0	0.422607421875	0.5869140625	0	upper	amplitud.ttf
633215	WORD	wordpools/wasnorm_wordpool_less_exclusions.txt	LTP197	ltpFR	6	5	0	COCOON	339	n/a	n/a	0	0.422607421875	0.5869140625	0	upper	amplitud.ttf
637425	WORD	wordpools/wasnorm_wordpool_less_exclusions.txt	LTP197	ltpFR	6	5	0	GRADUATE	653	n/a	n/a	1	0.422607421875	0.5869140625	0	upper	amplitud.ttf
641452	WORD	wordpools/wasnorm_wordpool_less_exclusions.txt	LTP197	ltpFR	6	5	0	CARDINAL	244	n/a	n/a	0	0.422607421875	0.5869140625	0	upper	amplitud.ttf
645513	WORD	wordpools/wasnorm_wordpool_less_exclusions.txt	LTP197	ltpFR	6	5	1	PILL	1068	n/a	n/a	0	0.57763671875	0.412841796875	1	lower	zerothre.ttf
649457	WORD	wordpools/wasnorm_wordpool_less_exclusions.txt	LTP197	ltpFR	6	5	1	TOWEL	1489	n/a	n/a	0	0.57763671875	0.412841796875	1	lower	zerothre.ttf
653434	WORD	wordpools/wasnorm_wordpool_less_exclusions.txt	LTP197	ltpFR	6	5	0	COMPASS	358	n/a	n/a	0	0.422607421875	0.5869140625	0	upper	amplitud.ttf
657428	WORD	wordpools/wasnorm_wordpool_less_exclusions.txt	LTP197	ltpFR	6	5	0	SANDWICH	1232	n/a	n/a	0	0.422607421875	0.5869140625	0	upper	amplitud.ttf
661439	WORD	wordpools/wasnorm_wordpool_less_exclusions.txt	LTP197	ltpFR	6	5	0	WALL	1582	n/a	n/a	1	0.422607421875	0.5869140625	0	upper	amplitud.ttf
665400	WORD	wordpools/wasnorm_wordpool_less_exclusions.txt	LTP197	ltpFR	6	5	0	RAIL	1161	n/a	n/a	1	0.422607421875	0.5869140625	0	upper	amplitud.ttf
669460	WORD	wordpools/wasnorm_wordpool_less_exclusions.txt	LTP197	ltpFR	6	5	1	DESIGNER	451	n/a	n/a	1	0.57763671875	0.412841796875	1	lower	zerothre.ttf
673553	WORD	wordpools/wasnorm_wordpool_less_exclusions.txt	LTP197	ltpFR	6	5	1	VITAMIN	1574	n/a	n/a	0	0.57763671875	0.412841796875	1	lower	zerothre.ttf
677531	WORD	wordpools/wasnorm_wordpool_less_exclusions.txt	LTP197	ltpFR	6	5	1	SERPENT	1270	n/a	n/a	1	0.57763671875	0.412841796875	1	lower	zerothre.ttf
681558	WORD	wordpools/wasnorm_wordpool_less_exclusions.txt	LTP197	ltpFR	6	5	1	RATTLE	1170	n/a	n/a	0	0.57763671875	0.412841796875	1	lower	zerothre.ttf
685652	WORD	wordpools/wasnorm_wordpool_less_exclusions.txt	LTP197	ltpFR	6	5	1	EAGLE	512	n/a	n/a	1	0.57763671875	0.412841796875	1	lower	zerothre.ttf
689563	WORD	wordpools/wasnorm_wordpool_less_exclusions.txt	LTP197	ltpFR	6	5	1	POLITICIAN	1099	n/a	n/a	1	0.57763671875	0.412841796875	1	lower	zerothre.ttf
695222	REC_START	n/a	LTP197	ltpFR	6	5	n/a	n/a	n/a	n/a	n/a	n/a	n/a	n/a	n/a	n/a	n/a
696653	REC_WORD	wordpools/wasnorm_wordpool_less_exclusions.txt	LTP197	ltpFR	6	5	1	POLITICIAN	1099	n/a	n/a	1	n/a	n/a	n/a	n/a	n/a
697653	REC_WORD_VV	wordpools/wasnorm_wordpool_less_exclusions.txt	LTP197	ltpFR	6	5	n/a	<>	-1	n/a	n/a	n/a	n/a	n/a	n/a	n/a	n/a
698205	REC_WORD	wordpools/wasnorm_wordpool_less_exclusions.txt	LTP197	ltpFR	6	5	1	EAGLE	512	n/a	n/a	1	n/a	n/a	n/a	n/a	n/a
700525	REC_WORD	wordpools/wasnorm_wordpool_less_exclusions.txt	LTP197	ltpFR	6	5	0	CARDINAL	244	n/a	n/a	0	n/a	n/a	n/a	n/a	n/a
701368	REC_WORD	wordpools/wasnorm_wordpool_less_exclusions.txt	LTP197	ltpFR	6	5	0	GRASSHOPPER	656	n/a	n/a	0	n/a	n/a	n/a	n/a	n/a
702365	REC_WORD	wordpools/wasnorm_wordpool_less_exclusions.txt	LTP197	ltpFR	6	5	0	COCOON	339	n/a	n/a	0	n/a	n/a	n/a	n/a	n/a
728546	REC_WORD	wordpools/wasnorm_wordpool_less_exclusions.txt	LTP197	ltpFR	6	5	0	GRADUATE	653	n/a	n/a	1	n/a	n/a	n/a	n/a	n/a
731494	REC_WORD	wordpools/wasnorm_wordpool_less_exclusions.txt	LTP197	ltpFR	6	5	1	PILL	1068	n/a	n/a	0	n/a	n/a	n/a	n/a	n/a
732088	REC_WORD	wordpools/wasnorm_wordpool_less_exclusions.txt	LTP197	ltpFR	6	5	1	VITAMIN	1574	n/a	n/a	0	n/a	n/a	n/a	n/a	n/a
732911	REC_WORD	wordpools/wasnorm_wordpool_less_exclusions.txt	LTP197	ltpFR	6	5	1	TOWEL	1489	n/a	n/a	0	n/a	n/a	n/a	n/a	n/a
781293	WORD	wordpools/wasnorm_wordpool_less_exclusions.txt	LTP197	ltpFR	6	6	0	PUBLISHER	1137	n/a	n/a	1	0.422607421875	0.5869140625	0	upper	amplitud.ttf
785188	WORD	wordpools/wasnorm_wordpool_less_exclusions.txt	LTP197	ltpFR	6	6	0	UNCLE	1536	n/a	n/a	1	0.422607421875	0.5869140625	0	upper	amplitud.ttf
789315	WORD	wordpools/wasnorm_wordpool_less_exclusions.txt	LTP197	ltpFR	6	6	0	SALIVA	1226	n/a	n/a	0	0.422607421875	0.5869140625	0	upper	amplitud.ttf
793409	WORD	wordpools/wasnorm_wordpool_less_exclusions.txt	LTP197	ltpFR	6	6	0	HANDKERCHIEF	686	n/a	n/a	0	0.422607421875	0.5869140625	0	upper	amplitud.ttf
797269	WORD	wordpools/wasnorm_wordpool_less_exclusions.txt	LTP197	ltpFR	6	6	0	BURGLAR	200	n/a	n/a	1	0.422607421875	0.5869140625	0	upper	amplitud.ttf
801130	WORD	wordpools/wasnorm_wordpool_less_exclusions.txt	LTP197	ltpFR	6	6	0	CROOK	412	n/a	n/a	1	0.422607421875	0.5869140625	0	upper	amplitud.ttf
805174	WORD	wordpools/wasnorm_wordpool_less_exclusions.txt	LTP197	ltpFR	6	6	0	CAKE	219	n/a	n/a	1	0.422607421875	0.5869140625	0	upper	amplitud.ttf
809318	WORD	wordpools/wasnorm_wordpool_less_exclusions.txt	LTP197	ltpFR	6	6	0	PERISCOPE	1050	n/a	n/a	1	0.422607421875	0.5869140625	0	upper	amplitud.ttf
813246	WORD	wordpools/wasnorm_wordpool_less_exclusions.txt	LTP197	ltpFR	6	6	0	BINDER	127	n/a	n/a	1	0.422607421875	0.5869140625	0	upper	amplitud.ttf
817090	WORD	wordpools/wasnorm_wordpool_less_exclusions.txt	LTP197	ltpFR	6	6	0	DOUGH	489	n/a	n/a	0	0.422607421875	0.5869140625	0	upper	amplitud.ttf
821267	WORD	wordpools/wasnorm_wordpool_less_exclusions.txt	LTP197	ltpFR	6	6	0	CRUMB	416	n/a	n/a	0	0.422607421875	0.5869140625	0	upper	amplitud.ttf
825111	WORD	wordpools/wasnorm_wordpool_less_exclusions.txt	LTP197	ltpFR	6	6	0	POCKET	1093	n/a	n/a	0	0.422607421875	0.5869140625	0	upper	amplitud.ttf
829105	WORD	wordpools/wasnorm_wordpool_less_exclusions.txt	LTP197	ltpFR	6	6	0	ZIPPER	1636	n/a	n/a	0	0.422607421875	0.5869140625	0	upper	amplitud.ttf
833133	WORD	wordpools/wasnorm_wordpool_less_exclusions.txt	LTP197	ltpFR	6	6	0	SUGAR	1401	n/a	n/a	0	0.422607421875	0.5869140625	0	upper	amplitud.ttf
837227	WORD	wordpools/wasnorm_wordpool_less_exclusions.txt	LTP197	ltpFR	6	6	0	MICROSCOPE	891	n/a	n/a	1	0.422607421875	0.5869140625	0	upper	amplitud.ttf
841137	WORD	wordpools/wasnorm_wordpool_less_exclusions.txt	LTP197	ltpFR	6	6	0	DAUGHTER	442	n/a	n/a	1	0.422607421875	0.5869140625	0	upper	amplitud.ttf
847195	REC_START	n/a	LTP197	ltpFR	6	6	n/a	n/a	n/a	n/a	n/a	n/a	n/a	n/a	n/a	n/a	n/a
848332	REC_WORD	wordpools/wasnorm_wordpool_less_exclusions.txt	LTP197	ltpFR	6	6	0	DAUGHTER	442	n/a	n/a	1	n/a	n/a	n/a	n/a	n/a
849834	REC_WORD	wordpools/wasnorm_wordpool_less_exclusions.txt	LTP197	ltpFR	6	6	0	UNCLE	1536	n/a	n/a	1	n/a	n/a	n/a	n/a	n/a
853066	REC_WORD	wordpools/wasnorm_wordpool_less_exclusions.txt	LTP197	ltpFR	6	6	0	CROOK	412	n/a	n/a	1	n/a	n/a	n/a	n/a	n/a
854034	REC_WORD	wordpools/wasnorm_wordpool_less_exclusions.txt	LTP197	ltpFR	6	6	0	BURGLAR	200	n/a	n/a	1	n/a	n/a	n/a	n/a	n/a
854807	REC_WORD	wordpools/wasnorm_wordpool_less_exclusions.txt	LTP197	ltpFR	6	6	0	MICROSCOPE	891	n/a	n/a	1	n/a	n/a	n/a	n/a	n/a
856025	REC_WORD	wordpools/wasnorm_wordpool_less_exclusions.txt	LTP197	ltpFR	6	6	n/a	TELESCOPE	1446	n/a	n/a	n/a	n/a	n/a	n/a	n/a	n/a
858195	REC_WORD	wordpools/wasnorm_wordpool_less_exclusions.txt	LTP197	ltpFR	6	6	0	POCKET	1093	n/a	n/a	0	n/a	n/a	n/a	n/a	n/a
858848	REC_WORD	wordpools/wasnorm_wordpool_less_exclusions.txt	LTP197	ltpFR	6	6	0	ZIPPER	1636	n/a	n/a	0	n/a	n/a	n/a	n/a	n/a
859577	REC_WORD	wordpools/wasnorm_wordpool_less_exclusions.txt	LTP197	ltpFR	6	6	0	CRUMB	416	n/a	n/a	0	n/a	n/a	n/a	n/a	n/a
860470	REC_WORD	wordpools/wasnorm_wordpool_less_exclusions.txt	LTP197	ltpFR	6	6	0	SUGAR	1401	n/a	n/a	0	n/a	n/a	n/a	n/a	n/a
863223	REC_WORD	wordpools/wasnorm_wordpool_less_exclusions.txt	LTP197	ltpFR	6	6	0	DOUGH	489	n/a	n/a	0	n/a	n/a	n/a	n/a	n/a
864725	REC_WORD	wordpools/wasnorm_wordpool_less_exclusions.txt	LTP197	ltpFR	6	6	0	UNCLE	1536	n/a	n/a	1	n/a	n/a	n/a	n/a	n/a
866865	REC_WORD	wordpools/wasnorm_wordpool_less_exclusions.txt	LTP197	ltpFR	6	6	0	SALIVA	1226	n/a	n/a	0	n/a	n/a	n/a	n/a	n/a
867865	REC_WORD_VV	wordpools/wasnorm_wordpool_less_exclusions.txt	LTP197	ltpFR	6	6	n/a	<>	-1	n/a	n/a	n/a	n/a	n/a	n/a	n/a	n/a
868037	REC_WORD	wordpools/wasnorm_wordpool_less_exclusions.txt	LTP197	ltpFR	6	6	0	HANDKERCHIEF	686	n/a	n/a	0	n/a	n/a	n/a	n/a	n/a
869037	REC_WORD_VV	wordpools/wasnorm_wordpool_less_exclusions.txt	LTP197	ltpFR	6	6	n/a	<>	-1	n/a	n/a	n/a	n/a	n/a	n/a	n/a	n/a
953785	WORD	wordpools/wasnorm_wordpool_less_exclusions.txt	LTP197	ltpFR	6	7	0	HAY	693	n/a	n/a	0	0.422607421875	0.5869140625	0	upper	amplitud.ttf
957946	WORD	wordpools/wasnorm_wordpool_less_exclusions.txt	LTP197	ltpFR	6	7	0	QUARTER	1148	n/a	n/a	0	0.422607421875	0.5869140625	0	upper	amplitud.ttf
962073	WORD	wordpools/wasnorm_wordpool_less_exclusions.txt	LTP197	ltpFR	6	7	0	BANKER	84	n/a	n/a	1	0.422607421875	0.5869140625	0	upper	amplitud.ttf
966084	WORD	wordpools/wasnorm_wordpool_less_exclusions.txt	LTP197	ltpFR	6	7	0	SHRUB	1299	n/a	n/a	1	0.422607421875	0.5869140625	0	upper	amplitud.ttf
970061	WORD	wordpools/wasnorm_wordpool_less_exclusions.txt	LTP197	ltpFR	6	7	0	DOOR	486	n/a	n/a	1	0.422607421875	0.5869140625	0	upper	amplitud.ttf
973939	WORD	wordpools/wasnorm_wordpool_less_exclusions.txt	LTP197	ltpFR	6	7	0	OATMEAL	967	n/a	n/a	0	0.422607421875	0.5869140625	0	upper	amplitud.ttf
977900	WORD	wordpools/wasnorm_wordpool_less_exclusions.txt	LTP197	ltpFR	6	7	0	SUPERMARKET	1409	n/a	n/a	1	0.422607421875	0.5869140625	0	upper	amplitud.ttf
981877	WORD	wordpools/wasnorm_wordpool_less_exclusions.txt	LTP197	ltpFR	6	7	0	WAIST	1579	n/a	n/a	1	0.422607421875	0.5869140625	0	upper	amplitud.ttf
985704	WORD	wordpools/wasnorm_wordpool_less_exclusions.txt	LTP197	ltpFR	6	7	0	ANTELOPE	27	n/a	n/a	1	0.422607421875	0.5869140625	0	upper	amplitud.ttf
989832	WORD	wordpools/wasnorm_wordpool_less_exclusions.txt	LTP197	ltpFR	6	7	0	HERO	706	n/a	n/a	1	0.422607421875	0.5869140625	0	upper	amplitud.ttf
994009	WORD	wordpools/wasnorm_wordpool_less_exclusions.txt	LTP197	ltpFR	6	7	0	OATS	968	n/a	n/a	0	0.422607421875	0.5869140625	0	upper	amplitud.ttf
998153	WORD	wordpools/wasnorm_wordpool_less_exclusions.txt	LTP197	ltpFR	6	7	0	TREE	1502	n/a	n/a	1	0.422607421875	0.5869140625	0	upper	amplitud.ttf
1002114	WORD	wordpools/wasnorm_wordpool_less_exclusions.txt	LTP197	ltpFR	6	7	0	SLIDE	1326	n/a	n/a	1	0.422607421875	0.5869140625	0	upper	amplitud.ttf
1006191	WORD	wordpools/wasnorm_wordpool_less_exclusions.txt	LTP197	ltpFR	6	7	0	JACKET	747	n/a	n/a	1	0.422607421875	0.5869140625	0	upper	amplitud.ttf
1010368	WORD	wordpools/wasnorm_wordpool_less_exclusions.txt	LTP197	ltpFR	6	7	0	ICEBERG	731	n/a	n/a	1	0.422607421875	0.5869140625	0	upper	amplitud.ttf
1014512	WORD	wordpools/wasnorm_wordpool_less_exclusions.txt	LTP197	ltpFR	6	7	0	FURNITURE	616	n/a	n/a	1	0.422607421875	0.5869140625	0	upper	amplitud.ttf
1020437	REC_START	n/a	LTP197	ltpFR	6	7	n/a	n/a	n/a	n/a	n/a	n/a	n/a	n/a	n/a	n/a	n/a
1021928	REC_WORD	wordpools/wasnorm_wordpool_less_exclusions.txt	LTP197	ltpFR	6	7	n/a	SHOEBOX	-1	n/a	n/a	n/a	n/a	n/a	n/a	n/a	n/a
1022928	REC_WORD_VV	wordpools/wasnorm_wordpool_less_exclusions.txt	LTP197	ltpFR	6	7	n/a	<>	-1	n/a	n/a	n/a	n/a	n/a	n/a	n/a	n/a
1023091	REC_WORD	wordpools/wasnorm_wordpool_less_exclusions.txt	LTP197	ltpFR	6	7	0	ICEBERG	731	n/a	n/a	1	n/a	n/a	n/a	n/a	n/a
1024036	REC_WORD	wordpools/wasnorm_wordpool_less_exclusions.txt	LTP197	ltpFR	6	7	0	FURNITURE	616	n/a	n/a	1	n/a	n/a	n/a	n/a	n/a
1025036	REC_WORD_VV	wordpools/wasnorm_wordpool_less_exclusions.txt	LTP197	ltpFR	6	7	n/a	<>	-1	n/a	n/a	n/a	n/a	n/a	n/a	n/a	n/a
1029197	REC_WORD	wordpools/wasnorm_wordpool_less_exclusions.txt	LTP197	ltpFR	6	7	0	JACKET	747	n/a	n/a	1	n/a	n/a	n/a	n/a	n/a
1038032	REC_WORD	wordpools/wasnorm_wordpool_less_exclusions.txt	LTP197	ltpFR	6	7	0	OATS	968	n/a	n/a	0	n/a	n/a	n/a	n/a	n/a
1038630	REC_WORD	wordpools/wasnorm_wordpool_less_exclusions.txt	LTP197	ltpFR	6	7	0	OATMEAL	967	n/a	n/a	0	n/a	n/a	n/a	n/a	n/a
1039244	REC_WORD	wordpools/wasnorm_wordpool_less_exclusions.txt	LTP197	ltpFR	6	7	0	SUPERMARKET	1409	n/a	n/a	1	n/a	n/a	n/a	n/a	n/a
1040526	REC_WORD	wordpools/wasnorm_wordpool_less_exclusions.txt	LTP197	ltpFR	6	7	0	DOOR	486	n/a	n/a	1	n/a	n/a	n/a	n/a	n/a
1041020	REC_WORD	wordpools/wasnorm_wordpool_less_exclusions.txt	LTP197	ltpFR	6	7	0	SHRUB	1299	n/a	n/a	1	n/a	n/a	n/a	n/a	n/a
1043335	REC_WORD	wordpools/wasnorm_wordpool_less_exclusions.txt	LTP197	ltpFR	6	7	0	BANKER	84	n/a	n/a	1	n/a	n/a	n/a	n/a	n/a
1046647	REC_WORD	wordpools/wasnorm_wordpool_less_exclusions.txt	LTP197	ltpFR	6	7	0	QUARTER	1148	n/a	n/a	0	n/a	n/a	n/a	n/a	n/a
1137112	WORD	wordpools/wasnorm_wordpool_less_exclusions.txt	LTP197	ltpFR	6	8	-1	STAIRS	1367	n/a	n/a	-1	1.0	1.0	1	upper	Verdana.ttf
1141189	WORD	wordpools/wasnorm_wordpool_less_exclusions.txt	LTP197	ltpFR	6	8	-1	SLOPE	1328	n/a	n/a	-1	1.0	1.0	1	upper	Verdana.ttf
1145350	WORD	wordpools/wasnorm_wordpool_less_exclusions.txt	LTP197	ltpFR	6	8	-1	PLASTER	1085	n/a	n/a	-1	1.0	1.0	1	upper	Verdana.ttf
1149542	WORD	wordpools/wasnorm_wordpool_less_exclusions.txt	LTP197	ltpFR	6	8	-1	LETTER	813	n/a	n/a	-1	1.0	1.0	1	upper	Verdana.ttf
1153653	WORD	wordpools/wasnorm_wordpool_less_exclusions.txt	LTP197	ltpFR	6	8	-1	FARMER	553	n/a	n/a	-1	1.0	1.0	1	upper	Verdana.ttf
1157730	WORD	wordpools/wasnorm_wordpool_less_exclusions.txt	LTP197	ltpFR	6	8	-1	FARM	552	n/a	n/a	-1	1.0	1.0	1	upper	Verdana.ttf
1161624	WORD	wordpools/wasnorm_wordpool_less_exclusions.txt	LTP197	ltpFR	6	8	-1	NOTE	958	n/a	n/a	-1	1.0	1.0	1	upper	Verdana.ttf
1165852	WORD	wordpools/wasnorm_wordpool_less_exclusions.txt	LTP197	ltpFR	6	8	-1	HOUSE	725	n/a	n/a	-1	1.0	1.0	1	upper	Verdana.ttf
1169762	WORD	wordpools/wasnorm_wordpool_less_exclusions.txt	LTP197	ltpFR	6	8	-1	ACORN	3	n/a	n/a	-1	1.0	1.0	1	upper	Verdana.ttf
1173740	WORD	wordpools/wasnorm_wordpool_less_exclusions.txt	LTP197	ltpFR	6	8	-1	MAPLE	866	n/a	n/a	-1	1.0	1.0	1	upper	Verdana.ttf
1177634	WORD	wordpools/wasnorm_wordpool_less_exclusions.txt	LTP197	ltpFR	6	8	-1	GOLD	647	n/a	n/a	-1	1.0	1.0	1	upper	Verdana.ttf
1181694	WORD	wordpools/wasnorm_wordpool_less_exclusions.txt	LTP197	ltpFR	6	8	-1	CROW	414	n/a	n/a	-1	1.0	1.0	1	upper	Verdana.ttf
1185822	WORD	wordpools/wasnorm_wordpool_less_exclusions.txt	LTP197	ltpFR	6	8	-1	HELICOPTER	701	n/a	n/a	-1	1.0	1.0	1	upper	Verdana.ttf
1189983	WORD	wordpools/wasnorm_wordpool_less_exclusions.txt	LTP197	ltpFR	6	8	-1	APARTMENT	30	n/a	n/a	-1	1.0	1.0	1	upper	Verdana.ttf
1194127	WORD	wordpools/wasnorm_wordpool_less_exclusions.txt	LTP197	ltpFR	6	8	-1	CONCRETE	361	n/a	n/a	-1	1.0	1.0	1	upper	Verdana.ttf
1198204	WORD	wordpools/wasnorm_wordpool_less_exclusions.txt	LTP197	ltpFR	6	8	-1	APRON	35	n/a	n/a	-1	1.0	1.0	1	upper	Verdana.ttf
1204196	REC_START	n/a	LTP197	ltpFR	6	8	n/a	n/a	n/a	n/a	n/a	n/a	n/a	n/a	n/a	n/a	n/a
1205483	REC_WORD	wordpools/wasnorm_wordpool_less_exclusions.txt	LTP197	ltpFR	6	8	-1	APRON	35	n/a	n/a	-1	n/a	n/a	n/a	n/a	n/a
1207144	REC_WORD	wordpools/wasnorm_wordpool_less_exclusions.txt	LTP197	ltpFR	6	8	-1	FARMER	553	n/a	n/a	-1	n/a	n/a	n/a	n/a	n/a
1207887	REC_WORD	wordpools/wasnorm_wordpool_less_exclusions.txt	LTP197	ltpFR	6	8	-1	FARM	552	n/a	n/a	-1	n/a	n/a	n/a	n/a	n/a
1208964	REC_WORD	wordpools/wasnorm_wordpool_less_exclusions.txt	LTP197	ltpFR	6	8	-1	STAIRS	1367	n/a	n/a	-1	n/a	n/a	n/a	n/a	n/a
1210039	REC_WORD	wordpools/wasnorm_wordpool_less_exclusions.txt	LTP197	ltpFR	6	8	-1	SLOPE	1328	n/a	n/a	-1	n/a	n/a	n/a	n/a	n/a
1211644	REC_WORD	wordpools/wasnorm_wordpool_less_exclusions.txt	LTP197	ltpFR	6	8	-1	PLASTER	1085	n/a	n/a	-1	n/a	n/a	n/a	n/a	n/a
1212572	REC_WORD	wordpools/wasnorm_wordpool_less_exclusions.txt	LTP197	ltpFR	6	8	-1	LETTER	813	n/a	n/a	-1	n/a	n/a	n/a	n/a	n/a
1213460	REC_WORD	wordpools/wasnorm_wordpool_less_exclusions.txt	LTP197	ltpFR	6	8	-1	NOTE	958	n/a	n/a	-1	n/a	n/a	n/a	n/a	n/a
1216628	REC_WORD	wordpools/wasnorm_wordpool_less_exclusions.txt	LTP197	ltpFR	6	8	-1	ACORN	3	n/a	n/a	-1	n/a	n/a	n/a	n/a	n/a
1217705	REC_WORD	wordpools/wasnorm_wordpool_less_exclusions.txt	LTP197	ltpFR	6	8	-1	GOLD	647	n/a	n/a	-1	n/a	n/a	n/a	n/a	n/a
1220214	REC_WORD	wordpools/wasnorm_wordpool_less_exclusions.txt	LTP197	ltpFR	6	8	-1	CROW	414	n/a	n/a	-1	n/a	n/a	n/a	n/a	n/a
1220982	REC_WORD	wordpools/wasnorm_wordpool_less_exclusions.txt	LTP197	ltpFR	6	8	-1	HELICOPTER	701	n/a	n/a	-1	n/a	n/a	n/a	n/a	n/a
1221982	REC_WORD_VV	wordpools/wasnorm_wordpool_less_exclusions.txt	LTP197	ltpFR	6	8	n/a	<>	-1	n/a	n/a	n/a	n/a	n/a	n/a	n/a	n/a
1222175	REC_WORD	wordpools/wasnorm_wordpool_less_exclusions.txt	LTP197	ltpFR	6	8	-1	CONCRETE	361	n/a	n/a	-1	n/a	n/a	n/a	n/a	n/a
1223033	REC_WORD	wordpools/wasnorm_wordpool_less_exclusions.txt	LTP197	ltpFR	6	8	-1	APARTMENT	30	n/a	n/a	-1	n/a	n/a	n/a	n/a	n/a
1229468	REC_WORD	wordpools/wasnorm_wordpool_less_exclusions.txt	LTP197	ltpFR	6	8	-1	APRON	35	n/a	n/a	-1	n/a	n/a	n/a	n/a	n/a
1297621	WORD	wordpools/wasnorm_wordpool_less_exclusions.txt	LTP197	ltpFR	6	9	1	LUNCH	849	n/a	n/a	0	0.57763671875	0.412841796875	1	lower	zerothre.ttf
1301665	WORD	wordpools/wasnorm_wordpool_less_exclusions.txt	LTP197	ltpFR	6	9	1	BRANCH	168	n/a	n/a	0	0.57763671875	0.412841796875	1	lower	zerothre.ttf
1305526	WORD	wordpools/wasnorm_wordpool_less_exclusions.txt	LTP197	ltpFR	6	9	1	OCEAN	970	n/a	n/a	1	0.57763671875	0.412841796875	1	lower	zerothre.ttf
1309736	WORD	wordpools/wasnorm_wordpool_less_exclusions.txt	LTP197	ltpFR	6	9	1	SUIT	1402	n/a	n/a	1	0.57763671875	0.412841796875	1	lower	zerothre.ttf
1313697	WORD	wordpools/wasnorm_wordpool_less_exclusions.txt	LTP197	ltpFR	6	9	1	SMOG	1330	n/a	n/a	0	0.57763671875	0.412841796875	1	lower	zerothre.ttf
1317558	WORD	wordpools/wasnorm_wordpool_less_exclusions.txt	LTP197	ltpFR	6	9	1	CORN	381	n/a	n/a	1	0.57763671875	0.412841796875	1	lower	zerothre.ttf
1321702	WORD	wordpools/wasnorm_wordpool_less_exclusions.txt	LTP197	ltpFR	6	9	0	PLANT	1083	n/a	n/a	0	0.422607421875	0.5869140625	0	upper	amplitud.ttf
1325863	WORD	wordpools/wasnorm_wordpool_less_exclusions.txt	LTP197	ltpFR	6	9	0	STEM	1376	n/a	n/a	0	0.422607421875	0.5869140625	0	upper	amplitud.ttf
1329957	WORD	wordpools/wasnorm_wordpool_less_exclusions.txt	LTP197	ltpFR	6	9	0	ANCHOR	21	n/a	n/a	1	0.422607421875	0.5869140625	0	upper	amplitud.ttf
1333935	WORD	wordpools/wasnorm_wordpool_less_exclusions.txt	LTP197	ltpFR	6	9	0	PERSONNEL	1053	n/a	n/a	1	0.422607421875	0.5869140625	0	upper	amplitud.ttf
1338028	WORD	wordpools/wasnorm_wordpool_less_exclusions.txt	LTP197	ltpFR	6	9	1	FINGERNAIL	568	n/a	n/a	0	0.57763671875	0.412841796875	1	lower	zerothre.ttf
1341956	WORD	wordpools/wasnorm_wordpool_less_exclusions.txt	LTP197	ltpFR	6	9	1	COBBLER	335	n/a	n/a	0	0.57763671875	0.412841796875	1	lower	zerothre.ttf
1346133	WORD	wordpools/wasnorm_wordpool_less_exclusions.txt	LTP197	ltpFR	6	9	0	ACTOR	5	n/a	n/a	1	0.422607421875	0.5869140625	0	upper	amplitud.ttf
1350260	WORD	wordpools/wasnorm_wordpool_less_exclusions.txt	LTP197	ltpFR	6	9	0	DIRECTOR	471	n/a	n/a	2	0.422607421875	0.5869140625	0	upper	amplitud.ttf
1350976	KEY_MSG	n/a	LTP197	ltpFR	6	9	n/a	n/a	n/a	n/a	n/a	n/a	n/a	n/a	n/a	n/a	n/a
1354271	WORD	wordpools/wasnorm_wordpool_less_exclusions.txt	LTP197	ltpFR	6	9	0	PICNIC	1060	n/a	n/a	0	0.422607421875	0.5869140625	0	upper	amplitud.ttf
1358215	WORD	wordpools/wasnorm_wordpool_less_exclusions.txt	LTP197	ltpFR	6	9	0	POLYESTER	1100	n/a	n/a	0	0.422607421875	0.5869140625	0	upper	amplitud.ttf
1363957	REC_START	n/a	LTP197	ltpFR	6	9	n/a	n/a	n/a	n/a	n/a	n/a	n/a	n/a	n/a	n/a	n/a
1365703	REC_WORD	wordpools/wasnorm_wordpool_less_exclusions.txt	LTP197	ltpFR	6	9	0	PICNIC	1060	n/a	n/a	0	n/a	n/a	n/a	n/a	n/a
1366451	REC_WORD	wordpools/wasnorm_wordpool_less_exclusions.txt	LTP197	ltpFR	6	9	0	POLYESTER	1100	n/a	n/a	0	n/a	n/a	n/a	n/a	n/a
1367451	REC_WORD_VV	wordpools/wasnorm_wordpool_less_exclusions.txt	LTP197	ltpFR	6	9	n/a	<>	-1	n/a	n/a	n/a	n/a	n/a	n/a	n/a	n/a
1376957	REC_WORD	wordpools/wasnorm_wordpool_less_exclusions.txt	LTP197	ltpFR	6	9	1	OCEAN	970	n/a	n/a	1	n/a	n/a	n/a	n/a	n/a
1378913	REC_WORD	wordpools/wasnorm_wordpool_less_exclusions.txt	LTP197	ltpFR	6	9	1	LUNCH	849	n/a	n/a	0	n/a	n/a	n/a	n/a	n/a
1379913	REC_WORD_VV	wordpools/wasnorm_wordpool_less_exclusions.txt	LTP197	ltpFR	6	9	n/a	<>	-1	n/a	n/a	n/a	n/a	n/a	n/a	n/a	n/a
1382739	REC_WORD	wordpools/wasnorm_wordpool_less_exclusions.txt	LTP197	ltpFR	6	9	-1	LIMB	822	n/a	n/a	-1	n/a	n/a	n/a	n/a	n/a
1387353	REC_WORD	wordpools/wasnorm_wordpool_less_exclusions.txt	LTP197	ltpFR	6	9	1	SMOG	1330	n/a	n/a	0	n/a	n/a	n/a	n/a	n/a
1395834	REC_WORD	wordpools/wasnorm_wordpool_less_exclusions.txt	LTP197	ltpFR	6	9	1	CORN	381	n/a	n/a	1	n/a	n/a	n/a	n/a	n/a
1398737	REC_WORD	wordpools/wasnorm_wordpool_less_exclusions.txt	LTP197	ltpFR	6	9	1	SUIT	1402	n/a	n/a	1	n/a	n/a	n/a	n/a	n/a
1446283	WORD	wordpools/wasnorm_wordpool_less_exclusions.txt	LTP197	ltpFR	6	10	1	PORCUPINE	1107	n/a	n/a	1	0.57763671875	0.412841796875	1	lower	zerothre.ttf
1450394	WORD	wordpools/wasnorm_wordpool_less_exclusions.txt	LTP197	ltpFR	6	10	1	COACH	331	n/a	n/a	1	0.57763671875	0.412841796875	1	lower	zerothre.ttf
1454388	WORD	wordpools/wasnorm_wordpool_less_exclusions.txt	LTP197	ltpFR	6	10	1	TOOL	1480	n/a	n/a	0	0.57763671875	0.412841796875	1	lower	zerothre.ttf
1458531	WORD	wordpools/wasnorm_wordpool_less_exclusions.txt	LTP197	ltpFR	6	10	1	ZOO	1637	n/a	n/a	0	0.57763671875	0.412841796875	1	lower	zerothre.ttf
1462443	WORD	wordpools/wasnorm_wordpool_less_exclusions.txt	LTP197	ltpFR	6	10	1	ANIMAL	23	n/a	n/a	1	0.57763671875	0.412841796875	1	lower	zerothre.ttf
1466569	WORD	wordpools/wasnorm_wordpool_less_exclusions.txt	LTP197	ltpFR	6	10	1	CLOTHES	327	n/a	n/a	0	0.57763671875	0.412841796875	1	lower	zerothre.ttf
1470779	WORD	wordpools/wasnorm_wordpool_less_exclusions.txt	LTP197	ltpFR	6	10	1	POT	1114	n/a	n/a	0	0.57763671875	0.412841796875	1	lower	zerothre.ttf
1474673	WORD	wordpools/wasnorm_wordpool_less_exclusions.txt	LTP197	ltpFR	6	10	1	BOSS	152	n/a	n/a	1	0.57763671875	0.412841796875	1	lower	zerothre.ttf
1478802	WORD	wordpools/wasnorm_wordpool_less_exclusions.txt	LTP197	ltpFR	6	10	1	CARPENTER	246	n/a	n/a	1	0.57763671875	0.412841796875	1	lower	zerothre.ttf
1482995	WORD	wordpools/wasnorm_wordpool_less_exclusions.txt	LTP197	ltpFR	6	10	1	RECIPE	1175	n/a	n/a	0	0.57763671875	0.412841796875	1	lower	zerothre.ttf
1487039	WORD	wordpools/wasnorm_wordpool_less_exclusions.txt	LTP197	ltpFR	6	10	1	LENS	811	n/a	n/a	0	0.57763671875	0.412841796875	1	lower	zerothre.ttf
1491083	WORD	wordpools/wasnorm_wordpool_less_exclusions.txt	LTP197	ltpFR	6	10	1	EYE	545	n/a	n/a	1	0.57763671875	0.412841796875	1	lower	zerothre.ttf
1495044	WORD	wordpools/wasnorm_wordpool_less_exclusions.txt	LTP197	ltpFR	6	10	1	RACK	1154	n/a	n/a	0	0.57763671875	0.412841796875	1	lower	zerothre.ttf
1499038	WORD	wordpools/wasnorm_wordpool_less_exclusions.txt	LTP197	ltpFR	6	10	1	LINT	826	n/a	n/a	0	0.57763671875	0.412841796875	1	lower	zerothre.ttf
1503198	WORD	wordpools/wasnorm_wordpool_less_exclusions.txt	LTP197	ltpFR	6	10	1	SCALLOP	1242	n/a	n/a	1	0.57763671875	0.412841796875	1	lower	zerothre.ttf
1507159	WORD	wordpools/wasnorm_wordpool_less_exclusions.txt	LTP197	ltpFR	6	10	1	BOUILLON	154	n/a	n/a	1	0.57763671875	0.412841796875	1	lower	zerothre.ttf
1513001	REC_START	n/a	LTP197	ltpFR	6	10	n/a	n/a	n/a	n/a	n/a	n/a	n/a	n/a	n/a	n/a	n/a
1513259	REC_WORD	wordpools/wasnorm_wordpool_less_exclusions.txt	LTP197	ltpFR	6	10	1	SCALLOP	1242	n/a	n/a	1	n/a	n/a	n/a	n/a	n/a
1514259	REC_WORD_VV	wordpools/wasnorm_wordpool_less_exclusions.txt	LTP197	ltpFR	6	10	n/a	<>	-1	n/a	n/a	n/a	n/a	n/a	n/a	n/a	n/a
1515939	REC_WORD	wordpools/wasnorm_wordpool_less_exclusions.txt	LTP197	ltpFR	6	10	1	BOUILLON	154	n/a	n/a	1	n/a	n/a	n/a	n/a	n/a
1519081	REC_WORD	wordpools/wasnorm_wordpool_less_exclusions.txt	LTP197	ltpFR	6	10	1	PORCUPINE	1107	n/a	n/a	1	n/a	n/a	n/a	n/a	n/a
1520080	REC_WORD	wordpools/wasnorm_wordpool_less_exclusions.txt	LTP197	ltpFR	6	10	1	COACH	331	n/a	n/a	1	n/a	n/a	n/a	n/a	n/a
1535455	REC_WORD	wordpools/wasnorm_wordpool_less_exclusions.txt	LTP197	ltpFR	6	10	1	CLOTHES	327	n/a	n/a	0	n/a	n/a	n/a	n/a	n/a
1536203	REC_WORD	wordpools/wasnorm_wordpool_less_exclusions.txt	LTP197	ltpFR	6	10	1	ZOO	1637	n/a	n/a	0	n/a	n/a	n/a	n/a	n/a
1537330	REC_WORD	wordpools/wasnorm_wordpool_less_exclusions.txt	LTP197	ltpFR	6	10	1	ANIMAL	23	n/a	n/a	1	n/a	n/a	n/a	n/a	n/a
1655288	WORD	wordpools/wasnorm_wordpool_less_exclusions.txt	LTP197	ltpFR	6	11	-1	SCREEN	1253	n/a	n/a	-1	1.0	1.0	1	upper	Verdana.ttf
1659465	WORD	wordpools/wasnorm_wordpool_less_exclusions.txt	LTP197	ltpFR	6	11	-1	SAXOPHONE	1240	n/a	n/a	-1	1.0	1.0	1	upper	Verdana.ttf
1663309	WORD	wordpools/wasnorm_wordpool_less_exclusions.txt	LTP197	ltpFR	6	11	-1	UNIVERSE	1540	n/a	n/a	-1	1.0	1.0	1	upper	Verdana.ttf
1667403	WORD	wordpools/wasnorm_wordpool_less_exclusions.txt	LTP197	ltpFR	6	11	-1	GLOBE	641	n/a	n/a	-1	1.0	1.0	1	upper	Verdana.ttf
1671464	WORD	wordpools/wasnorm_wordpool_less_exclusions.txt	LTP197	ltpFR	6	11	-1	TELEVISION	1447	n/a	n/a	-1	1.0	1.0	1	upper	Verdana.ttf
1675673	WORD	wordpools/wasnorm_wordpool_less_exclusions.txt	LTP197	ltpFR	6	11	-1	BUTTERFLY	206	n/a	n/a	-1	1.0	1.0	1	upper	Verdana.ttf
1679518	WORD	wordpools/wasnorm_wordpool_less_exclusions.txt	LTP197	ltpFR	6	11	-1	YACHT	1629	n/a	n/a	-1	1.0	1.0	1	upper	Verdana.ttf
1683379	WORD	wordpools/wasnorm_wordpool_less_exclusions.txt	LTP197	ltpFR	6	11	-1	INSTRUCTOR	741	n/a	n/a	-1	1.0	1.0	1	upper	Verdana.ttf
1687506	WORD	wordpools/wasnorm_wordpool_less_exclusions.txt	LTP197	ltpFR	6	11	-1	BEDROOM	111	n/a	n/a	-1	1.0	1.0	1	upper	Verdana.ttf
1691666	WORD	wordpools/wasnorm_wordpool_less_exclusions.txt	LTP197	ltpFR	6	11	-1	BOUQUET	157	n/a	n/a	-1	1.0	1.0	1	upper	Verdana.ttf
1695760	WORD	wordpools/wasnorm_wordpool_less_exclusions.txt	LTP197	ltpFR	6	11	-1	MOWER	928	n/a	n/a	-1	1.0	1.0	1	upper	Verdana.ttf
1699754	WORD	wordpools/wasnorm_wordpool_less_exclusions.txt	LTP197	ltpFR	6	11	-1	PICKLE	1059	n/a	n/a	-1	1.0	1.0	1	upper	Verdana.ttf
1703899	WORD	wordpools/wasnorm_wordpool_less_exclusions.txt	LTP197	ltpFR	6	11	-1	MUSHROOM	934	n/a	n/a	-1	1.0	1.0	1	upper	Verdana.ttf
1707893	WORD	wordpools/wasnorm_wordpool_less_exclusions.txt	LTP197	ltpFR	6	11	-1	SAW	1239	n/a	n/a	-1	1.0	1.0	1	upper	Verdana.ttf
1712086	WORD	wordpools/wasnorm_wordpool_less_exclusions.txt	LTP197	ltpFR	6	11	-1	PUPIL	1143	n/a	n/a	-1	1.0	1.0	1	upper	Verdana.ttf
1716297	WORD	wordpools/wasnorm_wordpool_less_exclusions.txt	LTP197	ltpFR	6	11	-1	ROOM	1206	n/a	n/a	-1	1.0	1.0	1	upper	Verdana.ttf
1722205	REC_START	n/a	LTP197	ltpFR	6	11	n/a	n/a	n/a	n/a	n/a	n/a	n/a	n/a	n/a	n/a	n/a
1723008	REC_WORD	wordpools/wasnorm_wordpool_less_exclusions.txt	LTP197	ltpFR	6	11	-1	PUPIL	1143	n/a	n/a	-1	n/a	n/a	n/a	n/a	n/a
1723823	REC_WORD	wordpools/wasnorm_wordpool_less_exclusions.txt	LTP197	ltpFR	6	11	-1	ROOM	1206	n/a	n/a	-1	n/a	n/a	n/a	n/a	n/a
1724794	REC_WORD	wordpools/wasnorm_wordpool_less_exclusions.txt	LTP197	ltpFR	6	11	-1	BEDROOM	111	n/a	n/a	-1	n/a	n/a	n/a	n/a	n/a
1726654	REC_WORD	wordpools/wasnorm_wordpool_less_exclusions.txt	LTP197	ltpFR	6	11	-1	SAW	1239	n/a	n/a	-1	n/a	n/a	n/a	n/a	n/a
1727413	REC_WORD	wordpools/wasnorm_wordpool_less_exclusions.txt	LTP197	ltpFR	6	11	-1	MOWER	928	n/a	n/a	-1	n/a	n/a	n/a	n/a	n/a
1730261	REC_WORD	wordpools/wasnorm_wordpool_less_exclusions.txt	LTP197	ltpFR	6	11	-1	MUSHROOM	934	n/a	n/a	-1	n/a	n/a	n/a	n/a	n/a
1731249	REC_WORD	wordpools/wasnorm_wordpool_less_exclusions.txt	LTP197	ltpFR	6	11	-1	PICKLE	1059	n/a	n/a	-1	n/a	n/a	n/a	n/a	n/a
1732092	REC_WORD	wordpools/wasnorm_wordpool_less_exclusions.txt	LTP197	ltpFR	6	11	-1	INSTRUCTOR	741	n/a	n/a	-1	n/a	n/a	n/a	n/a	n/a
1733092	REC_WORD_VV	wordpools/wasnorm_wordpool_less_exclusions.txt	LTP197	ltpFR	6	11	n/a	<>	-1	n/a	n/a	n/a	n/a	n/a	n/a	n/a	n/a
1734572	REC_WORD	wordpools/wasnorm_wordpool_less_exclusions.txt	LTP197	ltpFR	6	11	-1	YACHT	1629	n/a	n/a	-1	n/a	n/a	n/a	n/a	n/a
1735749	REC_WORD	wordpools/wasnorm_wordpool_less_exclusions.txt	LTP197	ltpFR	6	11	-1	BEDROOM	111	n/a	n/a	-1	n/a	n/a	n/a	n/a	n/a
1738443	REC_WORD	wordpools/wasnorm_wordpool_less_exclusions.txt	LTP197	ltpFR	6	11	-1	TELEVISION	1447	n/a	n/a	-1	n/a	n/a	n/a	n/a	n/a
1740383	REC_WORD	wordpools/wasnorm_wordpool_less_exclusions.txt	LTP197	ltpFR	6	11	-1	UNIVERSE	1540	n/a	n/a	-1	n/a	n/a	n/a	n/a	n/a
1741244	REC_WORD	wordpools/wasnorm_wordpool_less_exclusions.txt	LTP197	ltpFR	6	11	-1	SCREEN	1253	n/a	n/a	-1	n/a	n/a	n/a	n/a	n/a
1742204	REC_WORD	wordpools/wasnorm_wordpool_less_exclusions.txt	LTP197	ltpFR	6	11	-1	SAXOPHONE	1240	n/a	n/a	-1	n/a	n/a	n/a	n/a	n/a
1743541	REC_WORD	wordpools/wasnorm_wordpool_less_exclusions.txt	LTP197	ltpFR	6	11	-1	BUTTERFLY	206	n/a	n/a	-1	n/a	n/a	n/a	n/a	n/a
1833637	WORD	wordpools/wasnorm_wordpool_less_exclusions.txt	LTP197	ltpFR	6	12	0	GRASS	655	n/a	n/a	0	0.422607421875	0.5869140625	0	upper	amplitud.ttf
1837832	WORD	wordpools/wasnorm_wordpool_less_exclusions.txt	LTP197	ltpFR	6	12	0	WEED	1599	n/a	n/a	0	0.422607421875	0.5869140625	0	upper	amplitud.ttf
1841725	WORD	wordpools/wasnorm_wordpool_less_exclusions.txt	LTP197	ltpFR	6	12	0	CYLINDER	432	n/a	n/a	1	0.422607421875	0.5869140625	0	upper	amplitud.ttf
1845669	WORD	wordpools/wasnorm_wordpool_less_exclusions.txt	LTP197	ltpFR	6	12	1	KNOB	787	n/a	n/a	1	0.57763671875	0.412841796875	1	lower	zerothre.ttf
1849580	WORD	wordpools/wasnorm_wordpool_less_exclusions.txt	LTP197	ltpFR	6	12	1	DRYER	503	n/a	n/a	0	0.57763671875	0.412841796875	1	lower	zerothre.ttf
1853591	WORD	wordpools/wasnorm_wordpool_less_exclusions.txt	LTP197	ltpFR	6	12	1	SUITCASE	1403	n/a	n/a	0	0.57763671875	0.412841796875	1	lower	zerothre.ttf
1857735	WORD	wordpools/wasnorm_wordpool_less_exclusions.txt	LTP197	ltpFR	6	12	1	BOX	159	n/a	n/a	0	0.57763671875	0.412841796875	1	lower	zerothre.ttf
1861796	WORD	wordpools/wasnorm_wordpool_less_exclusions.txt	LTP197	ltpFR	6	12	0	FREEWAY	603	n/a	n/a	1	0.422607421875	0.5869140625	0	upper	amplitud.ttf
1865823	WORD	wordpools/wasnorm_wordpool_less_exclusions.txt	LTP197	ltpFR	6	12	0	EMPLOYEE	531	n/a	n/a	1	0.422607421875	0.5869140625	0	upper	amplitud.ttf
1869817	WORD	wordpools/wasnorm_wordpool_less_exclusions.txt	LTP197	ltpFR	6	12	1	FENCE	560	n/a	n/a	0	0.57763671875	0.412841796875	1	lower	zerothre.ttf
1873945	WORD	wordpools/wasnorm_wordpool_less_exclusions.txt	LTP197	ltpFR	6	12	1	HIGHWAY	707	n/a	n/a	0	0.57763671875	0.412841796875	1	lower	zerothre.ttf
1877989	WORD	wordpools/wasnorm_wordpool_less_exclusions.txt	LTP197	ltpFR	6	12	1	BARRACUDA	90	n/a	n/a	1	0.57763671875	0.412841796875	1	lower	zerothre.ttf
1882099	WORD	wordpools/wasnorm_wordpool_less_exclusions.txt	LTP197	ltpFR	6	12	1	POWDER	1117	n/a	n/a	1	0.57763671875	0.412841796875	1	lower	zerothre.ttf
1886210	WORD	wordpools/wasnorm_wordpool_less_exclusions.txt	LTP197	ltpFR	6	12	0	PENGUIN	1044	n/a	n/a	1	0.422607421875	0.5869140625	0	upper	amplitud.ttf
1890137	WORD	wordpools/wasnorm_wordpool_less_exclusions.txt	LTP197	ltpFR	6	12	0	GAZELLE	628	n/a	n/a	1	0.422607421875	0.5869140625	0	upper	amplitud.ttf
1894348	WORD	wordpools/wasnorm_wordpool_less_exclusions.txt	LTP197	ltpFR	6	12	0	SEAL	1262	n/a	n/a	1	0.422607421875	0.5869140625	0	upper	amplitud.ttf
1900023	REC_START	n/a	LTP197	ltpFR	6	12	n/a	n/a	n/a	n/a	n/a	n/a	n/a	n/a	n/a	n/a	n/a
1900606	REC_WORD	wordpools/wasnorm_wordpool_less_exclusions.txt	LTP197	ltpFR	6	12	0	PENGUIN	1044	n/a	n/a	1	n/a	n/a	n/a	n/a	n/a
1901410	REC_WORD	wordpools/wasnorm_wordpool_less_exclusions.txt	LTP197	ltpFR	6	12	0	GAZELLE	628	n/a	n/a	1	n/a	n/a	n/a	n/a	n/a
1902282	REC_WORD	wordpools/wasnorm_wordpool_less_exclusions.txt	LTP197	ltpFR	6	12	0	SEAL	1262	n/a	n/a	1	n/a	n/a	n/a	n/a	n/a
1904128	REC_WORD	wordpools/wasnorm_wordpool_less_exclusions.txt	LTP197	ltpFR	6	12	1	BARRACUDA	90	n/a	n/a	1	n/a	n/a	n/a	n/a	n/a
1905330	REC_WORD	wordpools/wasnorm_wordpool_less_exclusions.txt	LTP197	ltpFR	6	12	0	EMPLOYEE	531	n/a	n/a	1	n/a	n/a	n/a	n/a	n/a
1906393	REC_WORD	wordpools/wasnorm_wordpool_less_exclusions.txt	LTP197	ltpFR	6	12	0	FREEWAY	603	n/a	n/a	1	n/a	n/a	n/a	n/a	n/a
1907325	REC_WORD	wordpools/wasnorm_wordpool_less_exclusions.txt	LTP197	ltpFR	6	12	1	HIGHWAY	707	n/a	n/a	0	n/a	n/a	n/a	n/a	n/a
1909551	REC_WORD	wordpools/wasnorm_wordpool_less_exclusions.txt	LTP197	ltpFR	6	12	1	FENCE	560	n/a	n/a	0	n/a	n/a	n/a	n/a	n/a
1919369	REC_WORD	wordpools/wasnorm_wordpool_less_exclusions.txt	LTP197	ltpFR	6	12	0	GRASS	655	n/a	n/a	0	n/a	n/a	n/a	n/a	n/a
1920292	REC_WORD	wordpools/wasnorm_wordpool_less_exclusions.txt	LTP197	ltpFR	6	12	0	WEED	1599	n/a	n/a	0	n/a	n/a	n/a	n/a	n/a
1921045	REC_WORD	wordpools/wasnorm_wordpool_less_exclusions.txt	LTP197	ltpFR	6	12	0	CYLINDER	432	n/a	n/a	1	n/a	n/a	n/a	n/a	n/a
1921988	REC_WORD	wordpools/wasnorm_wordpool_less_exclusions.txt	LTP197	ltpFR	6	12	1	DRYER	503	n/a	n/a	0	n/a	n/a	n/a	n/a	n/a
1922861	REC_WORD	wordpools/wasnorm_wordpool_less_exclusions.txt	LTP197	ltpFR	6	12	1	SUITCASE	1403	n/a	n/a	0	n/a	n/a	n/a	n/a	n/a
1923923	REC_WORD	wordpools/wasnorm_wordpool_less_exclusions.txt	LTP197	ltpFR	6	12	1	BOX	159	n/a	n/a	0	n/a	n/a	n/a	n/a	n/a
1975608	REST_REWET	n/a	LTP197	ltpFR	6	12	n/a	n/a	n/a	n/a	n/a	n/a	n/a	n/a	n/a	n/a	n/a
2280720	WORD	wordpools/wasnorm_wordpool_less_exclusions.txt	LTP197	ltpFR	6	13	-1	VOLUNTEER	1577	n/a	n/a	-1	1.0	1.0	1	upper	Verdana.ttf
2284680	WORD	wordpools/wasnorm_wordpool_less_exclusions.txt	LTP197	ltpFR	6	13	-1	BLENDER	136	n/a	n/a	-1	1.0	1.0	1	upper	Verdana.ttf
2288525	WORD	wordpools/wasnorm_wordpool_less_exclusions.txt	LTP197	ltpFR	6	13	-1	WAVE	1596	n/a	n/a	-1	1.0	1.0	1	upper	Verdana.ttf
2292353	WORD	wordpools/wasnorm_wordpool_less_exclusions.txt	LTP197	ltpFR	6	13	-1	CHEF	290	n/a	n/a	-1	1.0	1.0	1	upper	Verdana.ttf
2296347	WORD	wordpools/wasnorm_wordpool_less_exclusions.txt	LTP197	ltpFR	6	13	-1	TAPE	1433	n/a	n/a	-1	1.0	1.0	1	upper	Verdana.ttf
2300491	WORD	wordpools/wasnorm_wordpool_less_exclusions.txt	LTP197	ltpFR	6	13	-1	CLARINET	317	n/a	n/a	-1	1.0	1.0	1	upper	Verdana.ttf
2304684	WORD	wordpools/wasnorm_wordpool_less_exclusions.txt	LTP197	ltpFR	6	13	-1	CABLE	213	n/a	n/a	-1	1.0	1.0	1	upper	Verdana.ttf
2308678	WORD	wordpools/wasnorm_wordpool_less_exclusions.txt	LTP197	ltpFR	6	13	-1	PANTS	1010	n/a	n/a	-1	1.0	1.0	1	upper	Verdana.ttf
2312506	WORD	wordpools/wasnorm_wordpool_less_exclusions.txt	LTP197	ltpFR	6	13	-1	PRAIRIE	1118	n/a	n/a	-1	1.0	1.0	1	upper	Verdana.ttf
2316417	WORD	wordpools/wasnorm_wordpool_less_exclusions.txt	LTP197	ltpFR	6	13	-1	MAILMAN	858	n/a	n/a	-1	1.0	1.0	1	upper	Verdana.ttf
2320461	WORD	wordpools/wasnorm_wordpool_less_exclusions.txt	LTP197	ltpFR	6	13	-1	CANAL	226	n/a	n/a	-1	1.0	1.0	1	upper	Verdana.ttf
2324621	WORD	wordpools/wasnorm_wordpool_less_exclusions.txt	LTP197	ltpFR	6	13	-1	VIOLA	1570	n/a	n/a	-1	1.0	1.0	1	upper	Verdana.ttf
2328581	WORD	wordpools/wasnorm_wordpool_less_exclusions.txt	LTP197	ltpFR	6	13	-1	MATCH	878	n/a	n/a	-1	1.0	1.0	1	upper	Verdana.ttf
2332758	WORD	wordpools/wasnorm_wordpool_less_exclusions.txt	LTP197	ltpFR	6	13	-1	KITCHEN	778	n/a	n/a	-1	1.0	1.0	1	upper	Verdana.ttf
2336820	WORD	wordpools/wasnorm_wordpool_less_exclusions.txt	LTP197	ltpFR	6	13	-1	GOVERNOR	651	n/a	n/a	-1	1.0	1.0	1	upper	Verdana.ttf
2340647	WORD	wordpools/wasnorm_wordpool_less_exclusions.txt	LTP197	ltpFR	6	13	-1	FOLLOWER	589	n/a	n/a	-1	1.0	1.0	1	upper	Verdana.ttf
2346507	REC_START	n/a	LTP197	ltpFR	6	13	n/a	n/a	n/a	n/a	n/a	n/a	n/a	n/a	n/a	n/a	n/a
2347190	REC_WORD	wordpools/wasnorm_wordpool_less_exclusions.txt	LTP197	ltpFR	6	13	-1	GOVERNOR	651	n/a	n/a	-1	n/a	n/a	n/a	n/a	n/a
2347973	REC_WORD	wordpools/wasnorm_wordpool_less_exclusions.txt	LTP197	ltpFR	6	13	-1	FOLLOWER	589	n/a	n/a	-1	n/a	n/a	n/a	n/a	n/a
2348973	REC_WORD_VV	wordpools/wasnorm_wordpool_less_exclusions.txt	LTP197	ltpFR	6	13	n/a	<>	-1	n/a	n/a	n/a	n/a	n/a	n/a	n/a	n/a
2349295	REC_WORD	wordpools/wasnorm_wordpool_less_exclusions.txt	LTP197	ltpFR	6	13	-1	CANAL	226	n/a	n/a	-1	n/a	n/a	n/a	n/a	n/a
2350597	REC_WORD	wordpools/wasnorm_wordpool_less_exclusions.txt	LTP197	ltpFR	6	13	-1	WAVE	1596	n/a	n/a	-1	n/a	n/a	n/a	n/a	n/a
2351415	REC_WORD	wordpools/wasnorm_wordpool_less_exclusions.txt	LTP197	ltpFR	6	13	-1	VIOLA	1570	n/a	n/a	-1	n/a	n/a	n/a	n/a	n/a
2352508	REC_WORD	wordpools/wasnorm_wordpool_less_exclusions.txt	LTP197	ltpFR	6	13	-1	CLARINET	317	n/a	n/a	-1	n/a	n/a	n/a	n/a	n/a
2353341	REC_WORD	wordpools/wasnorm_wordpool_less_exclusions.txt	LTP197	ltpFR	6	13	-1	CHEF	290	n/a	n/a	-1	n/a	n/a	n/a	n/a	n/a
2354124	REC_WORD	wordpools/wasnorm_wordpool_less_exclusions.txt	LTP197	ltpFR	6	13	-1	VOLUNTEER	1577	n/a	n/a	-1	n/a	n/a	n/a	n/a	n/a
2355232	REC_WORD	wordpools/wasnorm_wordpool_less_exclusions.txt	LTP197	ltpFR	6	13	-1	BLENDER	136	n/a	n/a	-1	n/a	n/a	n/a	n/a	n/a
2356534	REC_WORD	wordpools/wasnorm_wordpool_less_exclusions.txt	LTP197	ltpFR	6	13	-1	TAPE	1433	n/a	n/a	-1	n/a	n/a	n/a	n/a	n/a
2357651	REC_WORD	wordpools/wasnorm_wordpool_less_exclusions.txt	LTP197	ltpFR	6	13	-1	MAILMAN	858	n/a	n/a	-1	n/a	n/a	n/a	n/a	n/a
2358684	REC_WORD	wordpools/wasnorm_wordpool_less_exclusions.txt	LTP197	ltpFR	6	13	-1	MATCH	878	n/a	n/a	-1	n/a	n/a	n/a	n/a	n/a
2364456	REC_WORD	wordpools/wasnorm_wordpool_less_exclusions.txt	LTP197	ltpFR	6	13	-1	PRAIRIE	1118	n/a	n/a	-1	n/a	n/a	n/a	n/a	n/a
2365339	REC_WORD	wordpools/wasnorm_wordpool_less_exclusions.txt	LTP197	ltpFR	6	13	-1	KITCHEN	778	n/a	n/a	-1	n/a	n/a	n/a	n/a	n/a
2444409	WORD	wordpools/wasnorm_wordpool_less_exclusions.txt	LTP197	ltpFR	6	14	1	TWIN	1528	n/a	n/a	0	0.57763671875	0.412841796875	1	lower	zerothre.ttf
2448287	WORD	wordpools/wasnorm_wordpool_less_exclusions.txt	LTP197	ltpFR	6	14	1	BROTHER	179	n/a	n/a	1	0.57763671875	0.412841796875	1	lower	zerothre.ttf
2452298	WORD	wordpools/wasnorm_wordpool_less_exclusions.txt	LTP197	ltpFR	6	14	1	BATTERY	101	n/a	n/a	0	0.57763671875	0.412841796875	1	lower	zerothre.ttf
2456375	WORD	wordpools/wasnorm_wordpool_less_exclusions.txt	LTP197	ltpFR	6	14	1	WHISTLE	1606	n/a	n/a	1	0.57763671875	0.412841796875	1	lower	zerothre.ttf
2460269	WORD	wordpools/wasnorm_wordpool_less_exclusions.txt	LTP197	ltpFR	6	14	1	COMMANDER	354	n/a	n/a	1	0.57763671875	0.412841796875	1	lower	zerothre.ttf
2464446	WORD	wordpools/wasnorm_wordpool_less_exclusions.txt	LTP197	ltpFR	6	14	1	TANK	1432	n/a	n/a	0	0.57763671875	0.412841796875	1	lower	zerothre.ttf
2468622	WORD	wordpools/wasnorm_wordpool_less_exclusions.txt	LTP197	ltpFR	6	14	1	BAIT	70	n/a	n/a	0	0.57763671875	0.412841796875	1	lower	zerothre.ttf
2472683	WORD	wordpools/wasnorm_wordpool_less_exclusions.txt	LTP197	ltpFR	6	14	1	FRANCE	601	n/a	n/a	0	0.57763671875	0.412841796875	1	lower	zerothre.ttf
2476660	WORD	wordpools/wasnorm_wordpool_less_exclusions.txt	LTP197	ltpFR	6	14	1	FLANNEL	574	n/a	n/a	0	0.57763671875	0.412841796875	1	lower	zerothre.ttf
2480505	WORD	wordpools/wasnorm_wordpool_less_exclusions.txt	LTP197	ltpFR	6	14	1	BANDIT	81	n/a	n/a	0	0.57763671875	0.412841796875	1	lower	zerothre.ttf
2484582	WORD	wordpools/wasnorm_wordpool_less_exclusions.txt	LTP197	ltpFR	6	14	1	RECORD	1176	n/a	n/a	0	0.57763671875	0.412841796875	1	lower	zerothre.ttf
2488742	WORD	wordpools/wasnorm_wordpool_less_exclusions.txt	LTP197	ltpFR	6	14	1	DOUGHNUT	490	n/a	n/a	0	0.57763671875	0.412841796875	1	lower	zerothre.ttf
2492636	WORD	wordpools/wasnorm_wordpool_less_exclusions.txt	LTP197	ltpFR	6	14	1	BLACKBERRY	132	n/a	n/a	1	0.57763671875	0.412841796875	1	lower	zerothre.ttf
2496831	WORD	wordpools/wasnorm_wordpool_less_exclusions.txt	LTP197	ltpFR	6	14	1	RADISH	1158	n/a	n/a	1	0.57763671875	0.412841796875	1	lower	zerothre.ttf
2500758	WORD	wordpools/wasnorm_wordpool_less_exclusions.txt	LTP197	ltpFR	6	14	1	MILITARY	894	n/a	n/a	1	0.57763671875	0.412841796875	1	lower	zerothre.ttf
2504635	WORD	wordpools/wasnorm_wordpool_less_exclusions.txt	LTP197	ltpFR	6	14	1	GARAGE	621	n/a	n/a	0	0.57763671875	0.412841796875	1	lower	zerothre.ttf
2510378	REC_START	n/a	LTP197	ltpFR	6	14	n/a	n/a	n/a	n/a	n/a	n/a	n/a	n/a	n/a	n/a	n/a
2511650	REC_WORD	wordpools/wasnorm_wordpool_less_exclusions.txt	LTP197	ltpFR	6	14	1	BANDIT	81	n/a	n/a	0	n/a	n/a	n/a	n/a	n/a
2512383	REC_WORD	wordpools/wasnorm_wordpool_less_exclusions.txt	LTP197	ltpFR	6	14	1	GARAGE	621	n/a	n/a	0	n/a	n/a	n/a	n/a	n/a
2513640	REC_WORD	wordpools/wasnorm_wordpool_less_exclusions.txt	LTP197	ltpFR	6	14	1	MILITARY	894	n/a	n/a	1	n/a	n/a	n/a	n/a	n/a
2514640	REC_WORD	wordpools/wasnorm_wordpool_less_exclusions.txt	LTP197	ltpFR	6	14	1	FLANNEL	574	n/a	n/a	0	n/a	n/a	n/a	n/a	n/a
2515721	REC_WORD	wordpools/wasnorm_wordpool_less_exclusions.txt	LTP197	ltpFR	6	14	1	COMMANDER	354	n/a	n/a	1	n/a	n/a	n/a	n/a	n/a
2517197	REC_WORD	wordpools/wasnorm_wordpool_less_exclusions.txt	LTP197	ltpFR	6	14	1	WHISTLE	1606	n/a	n/a	1	n/a	n/a	n/a	n/a	n/a
2519781	REC_WORD	wordpools/wasnorm_wordpool_less_exclusions.txt	LTP197	ltpFR	6	14	1	TWIN	1528	n/a	n/a	0	n/a	n/a	n/a	n/a	n/a
2520844	REC_WORD	wordpools/wasnorm_wordpool_less_exclusions.txt	LTP197	ltpFR	6	14	1	BROTHER	179	n/a	n/a	1	n/a	n/a	n/a	n/a	n/a
2521687	REC_WORD	wordpools/wasnorm_wordpool_less_exclusions.txt	LTP197	ltpFR	6	14	1	BLACKBERRY	132	n/a	n/a	1	n/a	n/a	n/a	n/a	n/a
2601540	WORD	wordpools/wasnorm_wordpool_less_exclusions.txt	LTP197	ltpFR	6	15	1	AIRPORT	13	n/a	n/a	0	0.57763671875	0.412841796875	1	lower	zerothre.ttf
2605618	WORD	wordpools/wasnorm_wordpool_less_exclusions.txt	LTP197	ltpFR	6	15	1	VEHICLE	1553	n/a	n/a	0	0.57763671875	0.412841796875	1	lower	zerothre.ttf
2609595	WORD	wordpools/wasnorm_wordpool_less_exclusions.txt	LTP197	ltpFR	6	15	0	FAUCET	555	n/a	n/a	0	0.422607421875	0.5869140625	0	upper	amplitud.ttf
2613457	WORD	wordpools/wasnorm_wordpool_less_exclusions.txt	LTP197	ltpFR	6	15	0	SPRINKLE	1359	n/a	n/a	0	0.422607421875	0.5869140625	0	upper	amplitud.ttf
2617401	WORD	wordpools/wasnorm_wordpool_less_exclusions.txt	LTP197	ltpFR	6	15	1	STEAM	1375	n/a	n/a	0	0.57763671875	0.412841796875	1	lower	zerothre.ttf
2621478	WORD	wordpools/wasnorm_wordpool_less_exclusions.txt	LTP197	ltpFR	6	15	1	PALM	1007	n/a	n/a	0	0.57763671875	0.412841796875	1	lower	zerothre.ttf
2625604	WORD	wordpools/wasnorm_wordpool_less_exclusions.txt	LTP197	ltpFR	6	15	0	NOMAD	955	n/a	n/a	1	0.422607421875	0.5869140625	0	upper	amplitud.ttf
2629698	WORD	wordpools/wasnorm_wordpool_less_exclusions.txt	LTP197	ltpFR	6	15	0	AGENT	10	n/a	n/a	1	0.422607421875	0.5869140625	0	upper	amplitud.ttf
2633626	WORD	wordpools/wasnorm_wordpool_less_exclusions.txt	LTP197	ltpFR	6	15	0	DIAMOND	458	n/a	n/a	0	0.422607421875	0.5869140625	0	upper	amplitud.ttf
2637603	WORD	wordpools/wasnorm_wordpool_less_exclusions.txt	LTP197	ltpFR	6	15	0	MONUMENT	913	n/a	n/a	1	0.422607421875	0.5869140625	0	upper	amplitud.ttf
2641581	WORD	wordpools/wasnorm_wordpool_less_exclusions.txt	LTP197	ltpFR	6	15	0	CROCODILE	411	n/a	n/a	1	0.422607421875	0.5869140625	0	upper	amplitud.ttf
2645608	WORD	wordpools/wasnorm_wordpool_less_exclusions.txt	LTP197	ltpFR	6	15	0	WHEEL	1603	n/a	n/a	0	0.422607421875	0.5869140625	0	upper	amplitud.ttf
2649486	WORD	wordpools/wasnorm_wordpool_less_exclusions.txt	LTP197	ltpFR	6	15	1	EARTH	515	n/a	n/a	1	0.57763671875	0.412841796875	1	lower	zerothre.ttf
2653514	WORD	wordpools/wasnorm_wordpool_less_exclusions.txt	LTP197	ltpFR	6	15	1	PLUTO	1092	n/a	n/a	0	0.57763671875	0.412841796875	1	lower	zerothre.ttf
2657458	WORD	wordpools/wasnorm_wordpool_less_exclusions.txt	LTP197	ltpFR	6	15	1	SAP	1233	n/a	n/a	0	0.57763671875	0.412841796875	1	lower	zerothre.ttf
2661518	WORD	wordpools/wasnorm_wordpool_less_exclusions.txt	LTP197	ltpFR	6	15	1	HIKER	708	n/a	n/a	1	0.57763671875	0.412841796875	1	lower	zerothre.ttf
2667277	REC_START	n/a	LTP197	ltpFR	6	15	n/a	n/a	n/a	n/a	n/a	n/a	n/a	n/a	n/a	n/a	n/a
2669577	REC_WORD	wordpools/wasnorm_wordpool_less_exclusions.txt	LTP197	ltpFR	6	15	1	EARTH	515	n/a	n/a	1	n/a	n/a	n/a	n/a	n/a
2670290	REC_WORD	wordpools/wasnorm_wordpool_less_exclusions.txt	LTP197	ltpFR	6	15	1	PLUTO	1092	n/a	n/a	0	n/a	n/a	n/a	n/a	n/a
2672370	REC_WORD	wordpools/wasnorm_wordpool_less_exclusions.txt	LTP197	ltpFR	6	15	0	NOMAD	955	n/a	n/a	1	n/a	n/a	n/a	n/a	n/a
2677463	REC_WORD	wordpools/wasnorm_wordpool_less_exclusions.txt	LTP197	ltpFR	6	15	0	FAUCET	555	n/a	n/a	0	n/a	n/a	n/a	n/a	n/a
2679449	REC_WORD	wordpools/wasnorm_wordpool_less_exclusions.txt	LTP197	ltpFR	6	15	0	SPRINKLE	1359	n/a	n/a	0	n/a	n/a	n/a	n/a	n/a
2680449	REC_WORD_VV	wordpools/wasnorm_wordpool_less_exclusions.txt	LTP197	ltpFR	6	15	n/a	<>	-1	n/a	n/a	n/a	n/a	n/a	n/a	n/a	n/a
2681135	REC_WORD	wordpools/wasnorm_wordpool_less_exclusions.txt	LTP197	ltpFR	6	15	1	STEAM	1375	n/a	n/a	0	n/a	n/a	n/a	n/a	n/a
2682173	REC_WORD	wordpools/wasnorm_wordpool_less_exclusions.txt	LTP197	ltpFR	6	15	0	DIAMOND	458	n/a	n/a	0	n/a	n/a	n/a	n/a	n/a
2683173	REC_WORD_VV	wordpools/wasnorm_wordpool_less_exclusions.txt	LTP197	ltpFR	6	15	n/a	<>	-1	n/a	n/a	n/a	n/a	n/a	n/a	n/a	n/a
2683874	REC_WORD	wordpools/wasnorm_wordpool_less_exclusions.txt	LTP197	ltpFR	6	15	0	WHEEL	1603	n/a	n/a	0	n/a	n/a	n/a	n/a	n/a
2685460	REC_WORD	wordpools/wasnorm_wordpool_less_exclusions.txt	LTP197	ltpFR	6	15	1	VEHICLE	1553	n/a	n/a	0	n/a	n/a	n/a	n/a	n/a
2686403	REC_WORD	wordpools/wasnorm_wordpool_less_exclusions.txt	LTP197	ltpFR	6	15	1	AIRPORT	13	n/a	n/a	0	n/a	n/a	n/a	n/a	n/a
2691991	REC_WORD	wordpools/wasnorm_wordpool_less_exclusions.txt	LTP197	ltpFR	6	15	1	HIKER	708	n/a	n/a	1	n/a	n/a	n/a	n/a	n/a
2748339	WORD	wordpools/wasnorm_wordpool_less_exclusions.txt	LTP197	ltpFR	6	16	1	CARRIAGE	248	n/a	n/a	2	0.57763671875	0.412841796875	1	lower	zerothre.ttf
2750203	KEY_MSG	n/a	LTP197	ltpFR	6	16	n/a	n/a	n/a	n/a	n/a	n/a	n/a	n/a	n/a	n/a	n/a
2752815	WORD	wordpools/wasnorm_wordpool_less_exclusions.txt	LTP197	ltpFR	6	16	1	LIEUTENANT	818	n/a	n/a	0	0.57763671875	0.412841796875	1	lower	zerothre.ttf
2756725	WORD	wordpools/wasnorm_wordpool_less_exclusions.txt	LTP197	ltpFR	6	16	1	MEAL	882	n/a	n/a	0	0.57763671875	0.412841796875	1	lower	zerothre.ttf
2760937	WORD	wordpools/wasnorm_wordpool_less_exclusions.txt	LTP197	ltpFR	6	16	1	BOARD	143	n/a	n/a	0	0.57763671875	0.412841796875	1	lower	zerothre.ttf
2765080	WORD	wordpools/wasnorm_wordpool_less_exclusions.txt	LTP197	ltpFR	6	16	1	UNIFORM	1539	n/a	n/a	0	0.57763671875	0.412841796875	1	lower	zerothre.ttf
2768925	WORD	wordpools/wasnorm_wordpool_less_exclusions.txt	LTP197	ltpFR	6	16	1	VAN	1548	n/a	n/a	0	0.57763671875	0.412841796875	1	lower	zerothre.ttf
2772969	WORD	wordpools/wasnorm_wordpool_less_exclusions.txt	LTP197	ltpFR	6	16	1	BUS	201	n/a	n/a	0	0.57763671875	0.412841796875	1	lower	zerothre.ttf
2777112	WORD	wordpools/wasnorm_wordpool_less_exclusions.txt	LTP197	ltpFR	6	16	1	TICK	1463	n/a	n/a	1	0.57763671875	0.412841796875	1	lower	zerothre.ttf
2781306	WORD	wordpools/wasnorm_wordpool_less_exclusions.txt	LTP197	ltpFR	6	16	1	CRICKET	408	n/a	n/a	1	0.57763671875	0.412841796875	1	lower	zerothre.ttf
2785417	WORD	wordpools/wasnorm_wordpool_less_exclusions.txt	LTP197	ltpFR	6	16	1	PEOPLE	1046	n/a	n/a	1	0.57763671875	0.412841796875	1	lower	zerothre.ttf
2789626	WORD	wordpools/wasnorm_wordpool_less_exclusions.txt	LTP197	ltpFR	6	16	1	NICKEL	950	n/a	n/a	0	0.57763671875	0.412841796875	1	lower	zerothre.ttf
2793587	WORD	wordpools/wasnorm_wordpool_less_exclusions.txt	LTP197	ltpFR	6	16	1	BAG	69	n/a	n/a	0	0.57763671875	0.412841796875	1	lower	zerothre.ttf
2797449	WORD	wordpools/wasnorm_wordpool_less_exclusions.txt	LTP197	ltpFR	6	16	1	CONTAINER	366	n/a	n/a	1	0.57763671875	0.412841796875	1	lower	zerothre.ttf
2801459	WORD	wordpools/wasnorm_wordpool_less_exclusions.txt	LTP197	ltpFR	6	16	1	GANG	619	n/a	n/a	1	0.57763671875	0.412841796875	1	lower	zerothre.ttf
2805619	WORD	wordpools/wasnorm_wordpool_less_exclusions.txt	LTP197	ltpFR	6	16	1	BEAD	103	n/a	n/a	0	0.57763671875	0.412841796875	1	lower	zerothre.ttf
2809464	WORD	wordpools/wasnorm_wordpool_less_exclusions.txt	LTP197	ltpFR	6	16	1	MONKEY	911	n/a	n/a	1	0.57763671875	0.412841796875	1	lower	zerothre.ttf
2815140	REC_START	n/a	LTP197	ltpFR	6	16	n/a	n/a	n/a	n/a	n/a	n/a	n/a	n/a	n/a	n/a	n/a
2816197	REC_WORD	wordpools/wasnorm_wordpool_less_exclusions.txt	LTP197	ltpFR	6	16	1	LIEUTENANT	818	n/a	n/a	0	n/a	n/a	n/a	n/a	n/a
2817290	REC_WORD	wordpools/wasnorm_wordpool_less_exclusions.txt	LTP197	ltpFR	6	16	1	CARRIAGE	248	n/a	n/a	2	n/a	n/a	n/a	n/a	n/a
2818407	REC_WORD	wordpools/wasnorm_wordpool_less_exclusions.txt	LTP197	ltpFR	6	16	1	MEAL	882	n/a	n/a	0	n/a	n/a	n/a	n/a	n/a
2819400	REC_WORD	wordpools/wasnorm_wordpool_less_exclusions.txt	LTP197	ltpFR	6	16	1	BOARD	143	n/a	n/a	0	n/a	n/a	n/a	n/a	n/a
2821406	REC_WORD	wordpools/wasnorm_wordpool_less_exclusions.txt	LTP197	ltpFR	6	16	1	UNIFORM	1539	n/a	n/a	0	n/a	n/a	n/a	n/a	n/a
2822383	REC_WORD	wordpools/wasnorm_wordpool_less_exclusions.txt	LTP197	ltpFR	6	16	1	CRICKET	408	n/a	n/a	1	n/a	n/a	n/a	n/a	n/a
2823586	REC_WORD	wordpools/wasnorm_wordpool_less_exclusions.txt	LTP197	ltpFR	6	16	1	MONKEY	911	n/a	n/a	1	n/a	n/a	n/a	n/a	n/a
2825252	REC_WORD	wordpools/wasnorm_wordpool_less_exclusions.txt	LTP197	ltpFR	6	16	1	BAG	69	n/a	n/a	0	n/a	n/a	n/a	n/a	n/a
2825955	REC_WORD	wordpools/wasnorm_wordpool_less_exclusions.txt	LTP197	ltpFR	6	16	1	NICKEL	950	n/a	n/a	0	n/a	n/a	n/a	n/a	n/a
2828380	REC_WORD	wordpools/wasnorm_wordpool_less_exclusions.txt	LTP197	ltpFR	6	16	1	PEOPLE	1046	n/a	n/a	1	n/a	n/a	n/a	n/a	n/a
2829522	REC_WORD	wordpools/wasnorm_wordpool_less_exclusions.txt	LTP197	ltpFR	6	16	1	VAN	1548	n/a	n/a	0	n/a	n/a	n/a	n/a	n/a
2830430	REC_WORD	wordpools/wasnorm_wordpool_less_exclusions.txt	LTP197	ltpFR	6	16	1	BUS	201	n/a	n/a	0	n/a	n/a	n/a	n/a	n/a
2831652	REC_WORD	wordpools/wasnorm_wordpool_less_exclusions.txt	LTP197	ltpFR	6	16	1	CONTAINER	366	n/a	n/a	1	n/a	n/a	n/a	n/a	n/a
2832805	REC_WORD	wordpools/wasnorm_wordpool_less_exclusions.txt	LTP197	ltpFR	6	16	1	GANG	619	n/a	n/a	1	n/a	n/a	n/a	n/a	n/a
2935144	REC_START	n/a	LTP197	ltpFR	6	1	n/a	n/a	n/a	n/a	n/a	n/a	n/a	n/a	n/a	n/a	n/a
2935176	RECOG_LURE	n/a	LTP197	ltpFR	6	1	n/a	EGYPT	519	0	5	n/a	n/a	n/a	n/a	n/a	n/a
2936537	RECOG_RESP	n/a	LTP197	ltpFR	6	1	n/a	EGYPT	519	0	n/a	n/a	n/a	n/a	n/a	n/a	n/a
2937658	RECOG_CONF	n/a	LTP197	ltpFR	6	1	n/a	EGYPT	519	n/a	5	n/a	n/a	n/a	n/a	n/a	n/a
2939569	RECOG_TARGET	n/a	LTP197	ltpFR	6	1	-1	NOTE	958	1	5	-1	n/a	n/a	n/a	n/a	n/a
2940516	RECOG_RESP	n/a	LTP197	ltpFR	6	1	-1	NOTE	958	1	n/a	-1	n/a	n/a	n/a	n/a	n/a
2941275	RECOG_CONF	n/a	LTP197	ltpFR	6	1	-1	NOTE	958	n/a	5	-1	n/a	n/a	n/a	n/a	n/a
2942764	RECOG_TARGET	n/a	LTP197	ltpFR	6	1	-1	YACHT	1629	1	5	-1	n/a	n/a	n/a	n/a	n/a
2943530	RECOG_RESP	n/a	LTP197	ltpFR	6	1	-1	YACHT	1629	1	n/a	-1	n/a	n/a	n/a	n/a	n/a
2944059	RECOG_CONF	n/a	LTP197	ltpFR	6	1	-1	YACHT	1629	n/a	5	-1	n/a	n/a	n/a	n/a	n/a
2945726	RECOG_TARGET	n/a	LTP197	ltpFR	6	1	0	BINDER	127	1	5	1	n/a	n/a	n/a	n/a	n/a
2946480	RECOG_RESP	n/a	LTP197	ltpFR	6	1	0	BINDER	127	1	n/a	1	n/a	n/a	n/a	n/a	n/a
2946982	RECOG_CONF	n/a	LTP197	ltpFR	6	1	0	BINDER	127	n/a	5	1	n/a	n/a	n/a	n/a	n/a
2948555	RECOG_TARGET	n/a	LTP197	ltpFR	6	1	0	PAGE	1001	1	4	0	n/a	n/a	n/a	n/a	n/a
2950007	RECOG_RESP	n/a	LTP197	ltpFR	6	1	0	PAGE	1001	1	n/a	0	n/a	n/a	n/a	n/a	n/a
2950583	RECOG_CONF	n/a	LTP197	ltpFR	6	1	0	PAGE	1001	n/a	4	0	n/a	n/a	n/a	n/a	n/a
2952268	RECOG_TARGET	n/a	LTP197	ltpFR	6	1	1	RECORD	1176	1	5	0	n/a	n/a	n/a	n/a	n/a
2953074	RECOG_RESP	n/a	LTP197	ltpFR	6	1	1	RECORD	1176	1	n/a	0	n/a	n/a	n/a	n/a	n/a
2953507	RECOG_CONF	n/a	LTP197	ltpFR	6	1	1	RECORD	1176	n/a	5	0	n/a	n/a	n/a	n/a	n/a
2955163	RECOG_TARGET	n/a	LTP197	ltpFR	6	1	1	MEAL	882	1	5	0	n/a	n/a	n/a	n/a	n/a
2955957	RECOG_RESP	n/a	LTP197	ltpFR	6	1	1	MEAL	882	1	n/a	0	n/a	n/a	n/a	n/a	n/a
2956391	RECOG_CONF	n/a	LTP197	ltpFR	6	1	1	MEAL	882	n/a	5	0	n/a	n/a	n/a	n/a	n/a
2957859	RECOG_TARGET	n/a	LTP197	ltpFR	6	1	-1	APARTMENT	30	1	5	-1	n/a	n/a	n/a	n/a	n/a
2958733	RECOG_RESP	n/a	LTP197	ltpFR	6	1	-1	APARTMENT	30	1	n/a	-1	n/a	n/a	n/a	n/a	n/a
2959154	RECOG_CONF	n/a	LTP197	ltpFR	6	1	-1	APARTMENT	30	n/a	5	-1	n/a	n/a	n/a	n/a	n/a
2961104	RECOG_LURE	n/a	LTP197	ltpFR	6	1	n/a	THORN	1459	0	5	n/a	n/a	n/a	n/a	n/a	n/a
2962053	RECOG_RESP	n/a	LTP197	ltpFR	6	1	n/a	THORN	1459	0	n/a	n/a	n/a	n/a	n/a	n/a	n/a
2962537	RECOG_CONF	n/a	LTP197	ltpFR	6	1	n/a	THORN	1459	n/a	5	n/a	n/a	n/a	n/a	n/a	n/a
2964017	RECOG_TARGET	n/a	LTP197	ltpFR	6	1	0	GRADUATE	653	1	5	1	n/a	n/a	n/a	n/a	n/a
2964622	RECOG_RESP	n/a	LTP197	ltpFR	6	1	0	GRADUATE	653	1	n/a	1	n/a	n/a	n/a	n/a	n/a
2965021	RECOG_CONF	n/a	LTP197	ltpFR	6	1	0	GRADUATE	653	n/a	5	1	n/a	n/a	n/a	n/a	n/a
2966430	RECOG_TARGET	n/a	LTP197	ltpFR	6	1	-1	VOLUNTEER	1577	1	5	-1	n/a	n/a	n/a	n/a	n/a
2967106	RECOG_RESP	n/a	LTP197	ltpFR	6	1	-1	VOLUNTEER	1577	1	n/a	-1	n/a	n/a	n/a	n/a	n/a
2967515	RECOG_CONF	n/a	LTP197	ltpFR	6	1	-1	VOLUNTEER	1577	n/a	5	-1	n/a	n/a	n/a	n/a	n/a
2969459	RECOG_TARGET	n/a	LTP197	ltpFR	6	1	0	SKETCH	1315	1	5	0	n/a	n/a	n/a	n/a	n/a
2970268	RECOG_RESP	n/a	LTP197	ltpFR	6	1	0	SKETCH	1315	1	n/a	0	n/a	n/a	n/a	n/a	n/a
2970678	RECOG_CONF	n/a	LTP197	ltpFR	6	1	0	SKETCH	1315	n/a	5	0	n/a	n/a	n/a	n/a	n/a
2972238	RECOG_LURE	n/a	LTP197	ltpFR	6	1	n/a	HERB	704	1	2	n/a	n/a	n/a	n/a	n/a	n/a
2972934	RECOG_RESP	n/a	LTP197	ltpFR	6	1	n/a	HERB	704	1	n/a	n/a	n/a	n/a	n/a	n/a	n/a
2973886	RECOG_CONF	n/a	LTP197	ltpFR	6	1	n/a	HERB	704	n/a	2	n/a	n/a	n/a	n/a	n/a	n/a
2975400	RECOG_TARGET	n/a	LTP197	ltpFR	6	1	0	CROCODILE	411	0	2	1	n/a	n/a	n/a	n/a	n/a
2976625	RECOG_RESP	n/a	LTP197	ltpFR	6	1	0	CROCODILE	411	0	n/a	1	n/a	n/a	n/a	n/a	n/a
2977073	RECOG_CONF	n/a	LTP197	ltpFR	6	1	0	CROCODILE	411	n/a	2	1	n/a	n/a	n/a	n/a	n/a
2978544	RECOG_TARGET	n/a	LTP197	ltpFR	6	1	0	POLYESTER	1100	1	5	0	n/a	n/a	n/a	n/a	n/a
2979365	RECOG_RESP	n/a	LTP197	ltpFR	6	1	0	POLYESTER	1100	1	n/a	0	n/a	n/a	n/a	n/a	n/a
2979767	RECOG_CONF	n/a	LTP197	ltpFR	6	1	0	POLYESTER	1100	n/a	5	0	n/a	n/a	n/a	n/a	n/a
2981258	RECOG_LURE	n/a	LTP197	ltpFR	6	1	n/a	VILLAGE	1566	0	3	n/a	n/a	n/a	n/a	n/a	n/a
2982194	RECOG_RESP	n/a	LTP197	ltpFR	6	1	n/a	VILLAGE	1566	0	n/a	n/a	n/a	n/a	n/a	n/a	n/a
2982691	RECOG_CONF	n/a	LTP197	ltpFR	6	1	n/a	VILLAGE	1566	n/a	3	n/a	n/a	n/a	n/a	n/a	n/a
2984087	RECOG_TARGET	n/a	LTP197	ltpFR	6	1	-1	SAGE	1222	1	5	-1	n/a	n/a	n/a	n/a	n/a
2984746	RECOG_RESP	n/a	LTP197	ltpFR	6	1	-1	SAGE	1222	1	n/a	-1	n/a	n/a	n/a	n/a	n/a
2985105	RECOG_CONF	n/a	LTP197	ltpFR	6	1	-1	SAGE	1222	n/a	5	-1	n/a	n/a	n/a	n/a	n/a
2986682	RECOG_TARGET	n/a	LTP197	ltpFR	6	1	0	UNCLE	1536	1	5	1	n/a	n/a	n/a	n/a	n/a
2987343	RECOG_RESP	n/a	LTP197	ltpFR	6	1	0	UNCLE	1536	1	n/a	1	n/a	n/a	n/a	n/a	n/a
2987779	RECOG_CONF	n/a	LTP197	ltpFR	6	1	0	UNCLE	1536	n/a	5	1	n/a	n/a	n/a	n/a	n/a
2989212	RECOG_TARGET	n/a	LTP197	ltpFR	6	1	0	SWIMMER	1420	1	5	1	n/a	n/a	n/a	n/a	n/a
2989853	RECOG_RESP	n/a	LTP197	ltpFR	6	1	0	SWIMMER	1420	1	n/a	1	n/a	n/a	n/a	n/a	n/a
2990254	RECOG_CONF	n/a	LTP197	ltpFR	6	1	0	SWIMMER	1420	n/a	5	1	n/a	n/a	n/a	n/a	n/a
2991774	RECOG_LURE	n/a	LTP197	ltpFR	6	1	n/a	LANDSCAPE	799	0	2	n/a	n/a	n/a	n/a	n/a	n/a
2993262	RECOG_RESP	n/a	LTP197	ltpFR	6	1	n/a	LANDSCAPE	799	0	n/a	n/a	n/a	n/a	n/a	n/a	n/a
2993741	RECOG_CONF	n/a	LTP197	ltpFR	6	1	n/a	LANDSCAPE	799	n/a	2	n/a	n/a	n/a	n/a	n/a	n/a
2997050	REC_START	n/a	LTP197	ltpFR	6	2	n/a	n/a	n/a	n/a	n/a	n/a	n/a	n/a	n/a	n/a	n/a
2997084	RECOG_LURE	n/a	LTP197	ltpFR	6	2	n/a	DART	440	0	1	n/a	n/a	n/a	n/a	n/a	n/a
2998433	RECOG_RESP	n/a	LTP197	ltpFR	6	2	n/a	DART	440	0	n/a	n/a	n/a	n/a	n/a	n/a	n/a
2998882	RECOG_CONF	n/a	LTP197	ltpFR	6	2	n/a	DART	440	n/a	1	n/a	n/a	n/a	n/a	n/a	n/a
3000495	RECOG_TARGET	n/a	LTP197	ltpFR	6	2	1	VAN	1548	1	5	0	n/a	n/a	n/a	n/a	n/a
3001224	RECOG_RESP	n/a	LTP197	ltpFR	6	2	1	VAN	1548	1	n/a	0	n/a	n/a	n/a	n/a	n/a
3001634	RECOG_CONF	n/a	LTP197	ltpFR	6	2	1	VAN	1548	n/a	5	0	n/a	n/a	n/a	n/a	n/a
3003075	RECOG_LURE	n/a	LTP197	ltpFR	6	2	n/a	LIGHTER	819	1	5	n/a	n/a	n/a	n/a	n/a	n/a
3003974	RECOG_RESP	n/a	LTP197	ltpFR	6	2	n/a	LIGHTER	819	1	n/a	n/a	n/a	n/a	n/a	n/a	n/a
3004388	RECOG_CONF	n/a	LTP197	ltpFR	6	2	n/a	LIGHTER	819	n/a	5	n/a	n/a	n/a	n/a	n/a	n/a
3006487	RECOG_TARGET	n/a	LTP197	ltpFR	6	2	0	MUFFIN	929	1	2	0	n/a	n/a	n/a	n/a	n/a
3007577	RECOG_RESP	n/a	LTP197	ltpFR	6	2	0	MUFFIN	929	1	n/a	0	n/a	n/a	n/a	n/a	n/a
3008366	RECOG_CONF	n/a	LTP197	ltpFR	6	2	0	MUFFIN	929	n/a	2	0	n/a	n/a	n/a	n/a	n/a
3009798	RECOG_LURE	n/a	LTP197	ltpFR	6	2	n/a	TOE	1473	0	2	n/a	n/a	n/a	n/a	n/a	n/a
3011612	RECOG_RESP	n/a	LTP197	ltpFR	6	2	n/a	TOE	1473	0	n/a	n/a	n/a	n/a	n/a	n/a	n/a
3012107	RECOG_CONF	n/a	LTP197	ltpFR	6	2	n/a	TOE	1473	n/a	2	n/a	n/a	n/a	n/a	n/a	n/a
3014175	RECOG_TARGET	n/a	LTP197	ltpFR	6	2	0	SEAL	1262	1	5	1	n/a	n/a	n/a	n/a	n/a
3014900	RECOG_RESP	n/a	LTP197	ltpFR	6	2	0	SEAL	1262	1	n/a	1	n/a	n/a	n/a	n/a	n/a
3015353	RECOG_CONF	n/a	LTP197	ltpFR	6	2	0	SEAL	1262	n/a	5	1	n/a	n/a	n/a	n/a	n/a
3016788	RECOG_TARGET	n/a	LTP197	ltpFR	6	2	0	BANKER	84	1	5	1	n/a	n/a	n/a	n/a	n/a
3017539	RECOG_RESP	n/a	LTP197	ltpFR	6	2	0	BANKER	84	1	n/a	1	n/a	n/a	n/a	n/a	n/a
3017977	RECOG_CONF	n/a	LTP197	ltpFR	6	2	0	BANKER	84	n/a	5	1	n/a	n/a	n/a	n/a	n/a
3019500	RECOG_LURE	n/a	LTP197	ltpFR	6	2	n/a	PIN	1072	0	3	n/a	n/a	n/a	n/a	n/a	n/a
3020406	RECOG_RESP	n/a	LTP197	ltpFR	6	2	n/a	PIN	1072	0	n/a	n/a	n/a	n/a	n/a	n/a	n/a
3020878	RECOG_CONF	n/a	LTP197	ltpFR	6	2	n/a	PIN	1072	n/a	3	n/a	n/a	n/a	n/a	n/a	n/a
3022446	RECOG_LURE	n/a	LTP197	ltpFR	6	2	n/a	FORK	594	0	3	n/a	n/a	n/a	n/a	n/a	n/a
3023321	RECOG_RESP	n/a	LTP197	ltpFR	6	2	n/a	FORK	594	0	n/a	n/a	n/a	n/a	n/a	n/a	n/a
3023752	RECOG_CONF	n/a	LTP197	ltpFR	6	2	n/a	FORK	594	n/a	3	n/a	n/a	n/a	n/a	n/a	n/a
3025259	RECOG_TARGET	n/a	LTP197	ltpFR	6	2	1	LIEUTENANT	818	1	5	0	n/a	n/a	n/a	n/a	n/a
3025943	RECOG_RESP	n/a	LTP197	ltpFR	6	2	1	LIEUTENANT	818	1	n/a	0	n/a	n/a	n/a	n/a	n/a
3026438	RECOG_CONF	n/a	LTP197	ltpFR	6	2	1	LIEUTENANT	818	n/a	5	0	n/a	n/a	n/a	n/a	n/a
3027888	RECOG_TARGET	n/a	LTP197	ltpFR	6	2	0	WAIST	1579	1	5	1	n/a	n/a	n/a	n/a	n/a
3028710	RECOG_RESP	n/a	LTP197	ltpFR	6	2	0	WAIST	1579	1	n/a	1	n/a	n/a	n/a	n/a	n/a
3029162	RECOG_CONF	n/a	LTP197	ltpFR	6	2	0	WAIST	1579	n/a	5	1	n/a	n/a	n/a	n/a	n/a
3030666	RECOG_TARGET	n/a	LTP197	ltpFR	6	2	-1	HELICOPTER	701	1	5	-1	n/a	n/a	n/a	n/a	n/a
3031263	RECOG_RESP	n/a	LTP197	ltpFR	6	2	-1	HELICOPTER	701	1	n/a	-1	n/a	n/a	n/a	n/a	n/a
3031686	RECOG_CONF	n/a	LTP197	ltpFR	6	2	-1	HELICOPTER	701	n/a	5	-1	n/a	n/a	n/a	n/a	n/a
3033113	RECOG_LURE	n/a	LTP197	ltpFR	6	2	n/a	CHILD	299	0	3	n/a	n/a	n/a	n/a	n/a	n/a
3033926	RECOG_RESP	n/a	LTP197	ltpFR	6	2	n/a	CHILD	299	0	n/a	n/a	n/a	n/a	n/a	n/a	n/a
3034366	RECOG_CONF	n/a	LTP197	ltpFR	6	2	n/a	CHILD	299	n/a	3	n/a	n/a	n/a	n/a	n/a	n/a
3035725	RECOG_TARGET	n/a	LTP197	ltpFR	6	2	-1	PUPIL	1143	1	5	-1	n/a	n/a	n/a	n/a	n/a
3036308	RECOG_RESP	n/a	LTP197	ltpFR	6	2	-1	PUPIL	1143	1	n/a	-1	n/a	n/a	n/a	n/a	n/a
3036715	RECOG_CONF	n/a	LTP197	ltpFR	6	2	-1	PUPIL	1143	n/a	5	-1	n/a	n/a	n/a	n/a	n/a
3038256	RECOG_TARGET	n/a	LTP197	ltpFR	6	2	0	HERO	706	1	5	1	n/a	n/a	n/a	n/a	n/a
3038829	RECOG_RESP	n/a	LTP197	ltpFR	6	2	0	HERO	706	1	n/a	1	n/a	n/a	n/a	n/a	n/a
3039249	RECOG_CONF	n/a	LTP197	ltpFR	6	2	0	HERO	706	n/a	5	1	n/a	n/a	n/a	n/a	n/a
3040701	RECOG_TARGET	n/a	LTP197	ltpFR	6	2	0	SCARF	1246	1	5	1	n/a	n/a	n/a	n/a	n/a
3041442	RECOG_RESP	n/a	LTP197	ltpFR	6	2	0	SCARF	1246	1	n/a	1	n/a	n/a	n/a	n/a	n/a
3041833	RECOG_CONF	n/a	LTP197	ltpFR	6	2	0	SCARF	1246	n/a	5	1	n/a	n/a	n/a	n/a	n/a
3043797	RECOG_LURE	n/a	LTP197	ltpFR	6	2	n/a	SKELETON	1314	0	4	n/a	n/a	n/a	n/a	n/a	n/a
3044796	RECOG_RESP	n/a	LTP197	ltpFR	6	2	n/a	SKELETON	1314	0	n/a	n/a	n/a	n/a	n/a	n/a	n/a
3045275	RECOG_CONF	n/a	LTP197	ltpFR	6	2	n/a	SKELETON	1314	n/a	4	n/a	n/a	n/a	n/a	n/a	n/a
3046725	RECOG_LURE	n/a	LTP197	ltpFR	6	2	n/a	SURVEY	1414	0	5	n/a	n/a	n/a	n/a	n/a	n/a
3047576	RECOG_RESP	n/a	LTP197	ltpFR	6	2	n/a	SURVEY	1414	0	n/a	n/a	n/a	n/a	n/a	n/a	n/a
3047979	RECOG_CONF	n/a	LTP197	ltpFR	6	2	n/a	SURVEY	1414	n/a	5	n/a	n/a	n/a	n/a	n/a	n/a
3050022	RECOG_LURE	n/a	LTP197	ltpFR	6	2	n/a	KANGAROO	768	0	5	n/a	n/a	n/a	n/a	n/a	n/a
3050935	RECOG_RESP	n/a	LTP197	ltpFR	6	2	n/a	KANGAROO	768	0	n/a	n/a	n/a	n/a	n/a	n/a	n/a
3051381	RECOG_CONF	n/a	LTP197	ltpFR	6	2	n/a	KANGAROO	768	n/a	5	n/a	n/a	n/a	n/a	n/a	n/a
3052917	RECOG_LURE	n/a	LTP197	ltpFR	6	2	n/a	MARGARINE	868	0	3	n/a	n/a	n/a	n/a	n/a	n/a
3054444	RECOG_RESP	n/a	LTP197	ltpFR	6	2	n/a	MARGARINE	868	0	n/a	n/a	n/a	n/a	n/a	n/a	n/a
3054998	RECOG_CONF	n/a	LTP197	ltpFR	6	2	n/a	MARGARINE	868	n/a	3	n/a	n/a	n/a	n/a	n/a	n/a
3059731	REC_START	n/a	LTP197	ltpFR	6	3	n/a	n/a	n/a	n/a	n/a	n/a	n/a	n/a	n/a	n/a	n/a
3059756	RECOG_TARGET	n/a	LTP197	ltpFR	6	3	0	PLAID	1080	1	5	1	n/a	n/a	n/a	n/a	n/a
3060654	RECOG_RESP	n/a	LTP197	ltpFR	6	3	0	PLAID	1080	1	n/a	1	n/a	n/a	n/a	n/a	n/a
3061230	RECOG_CONF	n/a	LTP197	ltpFR	6	3	0	PLAID	1080	n/a	5	1	n/a	n/a	n/a	n/a	n/a
3062902	RECOG_TARGET	n/a	LTP197	ltpFR	6	3	1	EAGLE	512	1	5	1	n/a	n/a	n/a	n/a	n/a
3063555	RECOG_RESP	n/a	LTP197	ltpFR	6	3	1	EAGLE	512	1	n/a	1	n/a	n/a	n/a	n/a	n/a
3064066	RECOG_CONF	n/a	LTP197	ltpFR	6	3	1	EAGLE	512	n/a	5	1	n/a	n/a	n/a	n/a	n/a
3065564	RECOG_TARGET	n/a	LTP197	ltpFR	6	3	-1	UNDERWEAR	1537	1	5	-1	n/a	n/a	n/a	n/a	n/a
3066337	RECOG_RESP	n/a	LTP197	ltpFR	6	3	-1	UNDERWEAR	1537	1	n/a	-1	n/a	n/a	n/a	n/a	n/a
3066860	RECOG_CONF	n/a	LTP197	ltpFR	6	3	-1	UNDERWEAR	1537	n/a	5	-1	n/a	n/a	n/a	n/a	n/a
3068361	RECOG_TARGET	n/a	LTP197	ltpFR	6	3	-1	MUG	930	1	5	-1	n/a	n/a	n/a	n/a	n/a
3069081	RECOG_RESP	n/a	LTP197	ltpFR	6	3	-1	MUG	930	1	n/a	-1	n/a	n/a	n/a	n/a	n/a
3069534	RECOG_CONF	n/a	LTP197	ltpFR	6	3	-1	MUG	930	n/a	5	-1	n/a	n/a	n/a	n/a	n/a
3071090	RECOG_TARGET	n/a	LTP197	ltpFR	6	3	1	CRAB	397	1	5	0	n/a	n/a	n/a	n/a	n/a
3071801	RECOG_RESP	n/a	LTP197	ltpFR	6	3	1	CRAB	397	1	n/a	0	n/a	n/a	n/a	n/a	n/a
3072237	RECOG_CONF	n/a	LTP197	ltpFR	6	3	1	CRAB	397	n/a	5	0	n/a	n/a	n/a	n/a	n/a
3073803	RECOG_TARGET	n/a	LTP197	ltpFR	6	3	-1	CLARINET	317	1	5	-1	n/a	n/a	n/a	n/a	n/a
3074734	RECOG_RESP	n/a	LTP197	ltpFR	6	3	-1	CLARINET	317	1	n/a	-1	n/a	n/a	n/a	n/a	n/a
3075280	RECOG_CONF	n/a	LTP197	ltpFR	6	3	-1	CLARINET	317	n/a	5	-1	n/a	n/a	n/a	n/a	n/a
3076697	RECOG_LURE	n/a	LTP197	ltpFR	6	3	n/a	ELEPHANT	523	0	5	n/a	n/a	n/a	n/a	n/a	n/a
3077550	RECOG_RESP	n/a	LTP197	ltpFR	6	3	n/a	ELEPHANT	523	0	n/a	n/a	n/a	n/a	n/a	n/a	n/a
3077933	RECOG_CONF	n/a	LTP197	ltpFR	6	3	n/a	ELEPHANT	523	n/a	5	n/a	n/a	n/a	n/a	n/a	n/a
3079444	RECOG_LURE	n/a	LTP197	ltpFR	6	3	n/a	POSTAGE	1113	0	5	n/a	n/a	n/a	n/a	n/a	n/a
3080315	RECOG_RESP	n/a	LTP197	ltpFR	6	3	n/a	POSTAGE	1113	0	n/a	n/a	n/a	n/a	n/a	n/a	n/a
3080738	RECOG_CONF	n/a	LTP197	ltpFR	6	3	n/a	POSTAGE	1113	n/a	5	n/a	n/a	n/a	n/a	n/a	n/a
3082407	RECOG_TARGET	n/a	LTP197	ltpFR	6	3	1	BRANCH	168	1	5	0	n/a	n/a	n/a	n/a	n/a
3083132	RECOG_RESP	n/a	LTP197	ltpFR	6	3	1	BRANCH	168	1	n/a	0	n/a	n/a	n/a	n/a	n/a
3083641	RECOG_CONF	n/a	LTP197	ltpFR	6	3	1	BRANCH	168	n/a	5	0	n/a	n/a	n/a	n/a	n/a
3085152	RECOG_TARGET	n/a	LTP197	ltpFR	6	3	1	EYE	545	1	5	1	n/a	n/a	n/a	n/a	n/a
3085902	RECOG_RESP	n/a	LTP197	ltpFR	6	3	1	EYE	545	1	n/a	1	n/a	n/a	n/a	n/a	n/a
3086325	RECOG_CONF	n/a	LTP197	ltpFR	6	3	1	EYE	545	n/a	5	1	n/a	n/a	n/a	n/a	n/a
3087865	RECOG_LURE	n/a	LTP197	ltpFR	6	3	n/a	CHICKEN	297	0	5	n/a	n/a	n/a	n/a	n/a	n/a
3088625	RECOG_RESP	n/a	LTP197	ltpFR	6	3	n/a	CHICKEN	297	0	n/a	n/a	n/a	n/a	n/a	n/a	n/a
3089089	RECOG_CONF	n/a	LTP197	ltpFR	6	3	n/a	CHICKEN	297	n/a	5	n/a	n/a	n/a	n/a	n/a	n/a
3090461	RECOG_TARGET	n/a	LTP197	ltpFR	6	3	1	CRICKET	408	0	3	1	n/a	n/a	n/a	n/a	n/a
3091692	RECOG_RESP	n/a	LTP197	ltpFR	6	3	1	CRICKET	408	0	n/a	1	n/a	n/a	n/a	n/a	n/a
3092173	RECOG_CONF	n/a	LTP197	ltpFR	6	3	1	CRICKET	408	n/a	3	1	n/a	n/a	n/a	n/a	n/a
3093739	RECOG_LURE	n/a	LTP197	ltpFR	6	3	n/a	JUVENILE	767	0	3	n/a	n/a	n/a	n/a	n/a	n/a
3094646	RECOG_RESP	n/a	LTP197	ltpFR	6	3	n/a	JUVENILE	767	0	n/a	n/a	n/a	n/a	n/a	n/a	n/a
3095035	RECOG_CONF	n/a	LTP197	ltpFR	6	3	n/a	JUVENILE	767	n/a	3	n/a	n/a	n/a	n/a	n/a	n/a
3096352	RECOG_LURE	n/a	LTP197	ltpFR	6	3	n/a	EDITOR	516	0	1	n/a	n/a	n/a	n/a	n/a	n/a
3097800	RECOG_RESP	n/a	LTP197	ltpFR	6	3	n/a	EDITOR	516	0	n/a	n/a	n/a	n/a	n/a	n/a	n/a
3098383	RECOG_CONF	n/a	LTP197	ltpFR	6	3	n/a	EDITOR	516	n/a	1	n/a	n/a	n/a	n/a	n/a	n/a
3099947	RECOG_LURE	n/a	LTP197	ltpFR	6	3	n/a	DIARY	460	0	4	n/a	n/a	n/a	n/a	n/a	n/a
3100951	RECOG_RESP	n/a	LTP197	ltpFR	6	3	n/a	DIARY	460	0	n/a	n/a	n/a	n/a	n/a	n/a	n/a
3101241	RECOG_CONF	n/a	LTP197	ltpFR	6	3	n/a	DIARY	460	n/a	4	n/a	n/a	n/a	n/a	n/a	n/a
3102859	RECOG_TARGET	n/a	LTP197	ltpFR	6	3	1	EARTH	515	1	5	1	n/a	n/a	n/a	n/a	n/a
3103490	RECOG_RESP	n/a	LTP197	ltpFR	6	3	1	EARTH	515	1	n/a	1	n/a	n/a	n/a	n/a	n/a
3103975	RECOG_CONF	n/a	LTP197	ltpFR	6	3	1	EARTH	515	n/a	5	1	n/a	n/a	n/a	n/a	n/a
3105422	RECOG_TARGET	n/a	LTP197	ltpFR	6	3	1	CARPENTER	246	1	5	1	n/a	n/a	n/a	n/a	n/a
3106183	RECOG_RESP	n/a	LTP197	ltpFR	6	3	1	CARPENTER	246	1	n/a	1	n/a	n/a	n/a	n/a	n/a
3106639	RECOG_CONF	n/a	LTP197	ltpFR	6	3	1	CARPENTER	246	n/a	5	1	n/a	n/a	n/a	n/a	n/a
3108168	RECOG_LURE	n/a	LTP197	ltpFR	6	3	n/a	SIGN	1305	0	3	n/a	n/a	n/a	n/a	n/a	n/a
3109070	RECOG_RESP	n/a	LTP197	ltpFR	6	3	n/a	SIGN	1305	0	n/a	n/a	n/a	n/a	n/a	n/a	n/a
3109552	RECOG_CONF	n/a	LTP197	ltpFR	6	3	n/a	SIGN	1305	n/a	3	n/a	n/a	n/a	n/a	n/a	n/a
3110814	RECOG_TARGET	n/a	LTP197	ltpFR	6	3	-1	SAW	1239	1	5	-1	n/a	n/a	n/a	n/a	n/a
3111464	RECOG_RESP	n/a	LTP197	ltpFR	6	3	-1	SAW	1239	1	n/a	-1	n/a	n/a	n/a	n/a	n/a
3111877	RECOG_CONF	n/a	LTP197	ltpFR	6	3	-1	SAW	1239	n/a	5	-1	n/a	n/a	n/a	n/a	n/a
3113277	RECOG_TARGET	n/a	LTP197	ltpFR	6	3	-1	BOOK	149	1	5	-1	n/a	n/a	n/a	n/a	n/a
3114189	RECOG_RESP	n/a	LTP197	ltpFR	6	3	-1	BOOK	149	1	n/a	-1	n/a	n/a	n/a	n/a	n/a
3114591	RECOG_CONF	n/a	LTP197	ltpFR	6	3	-1	BOOK	149	n/a	5	-1	n/a	n/a	n/a	n/a	n/a
3118035	REC_START	n/a	LTP197	ltpFR	6	4	n/a	n/a	n/a	n/a	n/a	n/a	n/a	n/a	n/a	n/a	n/a
3118070	RECOG_TARGET	n/a	LTP197	ltpFR	6	4	-1	BLENDER	136	1	5	-1	n/a	n/a	n/a	n/a	n/a
3119049	RECOG_RESP	n/a	LTP197	ltpFR	6	4	-1	BLENDER	136	1	n/a	-1	n/a	n/a	n/a	n/a	n/a
3119496	RECOG_CONF	n/a	LTP197	ltpFR	6	4	-1	BLENDER	136	n/a	5	-1	n/a	n/a	n/a	n/a	n/a
3121099	RECOG_TARGET	n/a	LTP197	ltpFR	6	4	1	NICKEL	950	1	5	0	n/a	n/a	n/a	n/a	n/a
3121706	RECOG_RESP	n/a	LTP197	ltpFR	6	4	1	NICKEL	950	1	n/a	0	n/a	n/a	n/a	n/a	n/a
3122220	RECOG_CONF	n/a	LTP197	ltpFR	6	4	1	NICKEL	950	n/a	5	0	n/a	n/a	n/a	n/a	n/a
3123994	RECOG_TARGET	n/a	LTP197	ltpFR	6	4	0	ACTOR	5	0	3	1	n/a	n/a	n/a	n/a	n/a
3125234	RECOG_RESP	n/a	LTP197	ltpFR	6	4	0	ACTOR	5	0	n/a	1	n/a	n/a	n/a	n/a	n/a
3125774	RECOG_CONF	n/a	LTP197	ltpFR	6	4	0	ACTOR	5	n/a	3	1	n/a	n/a	n/a	n/a	n/a
3127306	RECOG_TARGET	n/a	LTP197	ltpFR	6	4	1	TOWEL	1489	1	5	0	n/a	n/a	n/a	n/a	n/a
3128885	RECOG_RESP	n/a	LTP197	ltpFR	6	4	1	TOWEL	1489	1	n/a	0	n/a	n/a	n/a	n/a	n/a
3129354	RECOG_CONF	n/a	LTP197	ltpFR	6	4	1	TOWEL	1489	n/a	5	0	n/a	n/a	n/a	n/a	n/a
3130917	RECOG_TARGET	n/a	LTP197	ltpFR	6	4	-1	MUSHROOM	934	1	5	-1	n/a	n/a	n/a	n/a	n/a
3131544	RECOG_RESP	n/a	LTP197	ltpFR	6	4	-1	MUSHROOM	934	1	n/a	-1	n/a	n/a	n/a	n/a	n/a
3131948	RECOG_CONF	n/a	LTP197	ltpFR	6	4	-1	MUSHROOM	934	n/a	5	-1	n/a	n/a	n/a	n/a	n/a
3133497	RECOG_LURE	n/a	LTP197	ltpFR	6	4	n/a	CHOCOLATE	306	0	4	n/a	n/a	n/a	n/a	n/a	n/a
3134219	RECOG_RESP	n/a	LTP197	ltpFR	6	4	n/a	CHOCOLATE	306	0	n/a	n/a	n/a	n/a	n/a	n/a	n/a
3134672	RECOG_CONF	n/a	LTP197	ltpFR	6	4	n/a	CHOCOLATE	306	n/a	4	n/a	n/a	n/a	n/a	n/a	n/a
3136143	RECOG_TARGET	n/a	LTP197	ltpFR	6	4	1	FLANNEL	574	1	5	0	n/a	n/a	n/a	n/a	n/a
3136638	RECOG_RESP	n/a	LTP197	ltpFR	6	4	1	FLANNEL	574	1	n/a	0	n/a	n/a	n/a	n/a	n/a
3137047	RECOG_CONF	n/a	LTP197	ltpFR	6	4	1	FLANNEL	574	n/a	5	0	n/a	n/a	n/a	n/a	n/a
3138506	RECOG_TARGET	n/a	LTP197	ltpFR	6	4	0	THIGH	1457	1	5	1	n/a	n/a	n/a	n/a	n/a
3139196	RECOG_RESP	n/a	LTP197	ltpFR	6	4	0	THIGH	1457	1	n/a	1	n/a	n/a	n/a	n/a	n/a
3139611	RECOG_CONF	n/a	LTP197	ltpFR	6	4	0	THIGH	1457	n/a	5	1	n/a	n/a	n/a	n/a	n/a
3141069	RECOG_TARGET	n/a	LTP197	ltpFR	6	4	-1	RESORT	1186	1	5	-1	n/a	n/a	n/a	n/a	n/a
3141810	RECOG_RESP	n/a	LTP197	ltpFR	6	4	-1	RESORT	1186	1	n/a	-1	n/a	n/a	n/a	n/a	n/a
3142185	RECOG_CONF	n/a	LTP197	ltpFR	6	4	-1	RESORT	1186	n/a	5	-1	n/a	n/a	n/a	n/a	n/a
3144214	RECOG_LURE	n/a	LTP197	ltpFR	6	4	n/a	REPORT	1184	1	4	n/a	n/a	n/a	n/a	n/a	n/a
3145056	RECOG_RESP	n/a	LTP197	ltpFR	6	4	n/a	REPORT	1184	1	n/a	n/a	n/a	n/a	n/a	n/a	n/a
3145545	RECOG_CONF	n/a	LTP197	ltpFR	6	4	n/a	REPORT	1184	n/a	4	n/a	n/a	n/a	n/a	n/a	n/a
3147809	RECOG_LURE	n/a	LTP197	ltpFR	6	4	n/a	PATIO	1025	0	4	n/a	n/a	n/a	n/a	n/a	n/a
3148805	RECOG_RESP	n/a	LTP197	ltpFR	6	4	n/a	PATIO	1025	0	n/a	n/a	n/a	n/a	n/a	n/a	n/a
3149339	RECOG_CONF	n/a	LTP197	ltpFR	6	4	n/a	PATIO	1025	n/a	4	n/a	n/a	n/a	n/a	n/a	n/a
3150687	RECOG_LURE	n/a	LTP197	ltpFR	6	4	n/a	SCOTCH	1251	1	2	n/a	n/a	n/a	n/a	n/a	n/a
3152033	RECOG_RESP	n/a	LTP197	ltpFR	6	4	n/a	SCOTCH	1251	1	n/a	n/a	n/a	n/a	n/a	n/a	n/a
3152505	RECOG_CONF	n/a	LTP197	ltpFR	6	4	n/a	SCOTCH	1251	n/a	2	n/a	n/a	n/a	n/a	n/a	n/a
3154083	RECOG_TARGET	n/a	LTP197	ltpFR	6	4	1	GARAGE	621	1	5	0	n/a	n/a	n/a	n/a	n/a
3154877	RECOG_RESP	n/a	LTP197	ltpFR	6	4	1	GARAGE	621	1	n/a	0	n/a	n/a	n/a	n/a	n/a
3155265	RECOG_CONF	n/a	LTP197	ltpFR	6	4	1	GARAGE	621	n/a	5	0	n/a	n/a	n/a	n/a	n/a
3156628	RECOG_TARGET	n/a	LTP197	ltpFR	6	4	1	BARRACUDA	90	1	5	1	n/a	n/a	n/a	n/a	n/a
3157412	RECOG_RESP	n/a	LTP197	ltpFR	6	4	1	BARRACUDA	90	1	n/a	1	n/a	n/a	n/a	n/a	n/a
3157819	RECOG_CONF	n/a	LTP197	ltpFR	6	4	1	BARRACUDA	90	n/a	5	1	n/a	n/a	n/a	n/a	n/a
3159690	RECOG_LURE	n/a	LTP197	ltpFR	6	4	n/a	BACON	67	0	5	n/a	n/a	n/a	n/a	n/a	n/a
3160545	RECOG_RESP	n/a	LTP197	ltpFR	6	4	n/a	BACON	67	0	n/a	n/a	n/a	n/a	n/a	n/a	n/a
3161032	RECOG_CONF	n/a	LTP197	ltpFR	6	4	n/a	BACON	67	n/a	5	n/a	n/a	n/a	n/a	n/a	n/a
3162636	RECOG_TARGET	n/a	LTP197	ltpFR	6	4	-1	WHALE	1601	1	5	-1	n/a	n/a	n/a	n/a	n/a
3163285	RECOG_RESP	n/a	LTP197	ltpFR	6	4	-1	WHALE	1601	1	n/a	-1	n/a	n/a	n/a	n/a	n/a
3163726	RECOG_CONF	n/a	LTP197	ltpFR	6	4	-1	WHALE	1601	n/a	5	-1	n/a	n/a	n/a	n/a	n/a
3165216	RECOG_TARGET	n/a	LTP197	ltpFR	6	4	1	MONKEY	911	1	5	1	n/a	n/a	n/a	n/a	n/a
3165871	RECOG_RESP	n/a	LTP197	ltpFR	6	4	1	MONKEY	911	1	n/a	1	n/a	n/a	n/a	n/a	n/a
3166280	RECOG_CONF	n/a	LTP197	ltpFR	6	4	1	MONKEY	911	n/a	5	1	n/a	n/a	n/a	n/a	n/a
3167812	RECOG_TARGET	n/a	LTP197	ltpFR	6	4	1	BLADE	134	1	5	0	n/a	n/a	n/a	n/a	n/a
3168525	RECOG_RESP	n/a	LTP197	ltpFR	6	4	1	BLADE	134	1	n/a	0	n/a	n/a	n/a	n/a	n/a
3168924	RECOG_CONF	n/a	LTP197	ltpFR	6	4	1	BLADE	134	n/a	5	0	n/a	n/a	n/a	n/a	n/a
3170624	RECOG_LURE	n/a	LTP197	ltpFR	6	4	n/a	BAND	78	0	4	n/a	n/a	n/a	n/a	n/a	n/a
3172129	RECOG_RESP	n/a	LTP197	ltpFR	6	4	n/a	BAND	78	0	n/a	n/a	n/a	n/a	n/a	n/a	n/a
3172586	RECOG_CONF	n/a	LTP197	ltpFR	6	4	n/a	BAND	78	n/a	4	n/a	n/a	n/a	n/a	n/a	n/a
3174120	RECOG_TARGET	n/a	LTP197	ltpFR	6	4	-1	PRAIRIE	1118	1	5	-1	n/a	n/a	n/a	n/a	n/a
3174896	RECOG_RESP	n/a	LTP197	ltpFR	6	4	-1	PRAIRIE	1118	1	n/a	-1	n/a	n/a	n/a	n/a	n/a
3175250	RECOG_CONF	n/a	LTP197	ltpFR	6	4	-1	PRAIRIE	1118	n/a	5	-1	n/a	n/a	n/a	n/a	n/a
3179434	REC_START	n/a	LTP197	ltpFR	6	5	n/a	n/a	n/a	n/a	n/a	n/a	n/a	n/a	n/a	n/a	n/a
3179478	RECOG_LURE	n/a	LTP197	ltpFR	6	5	n/a	CHEERLEADER	288	0	5	n/a	n/a	n/a	n/a	n/a	n/a
3180282	RECOG_RESP	n/a	LTP197	ltpFR	6	5	n/a	CHEERLEADER	288	0	n/a	n/a	n/a	n/a	n/a	n/a	n/a
3180798	RECOG_CONF	n/a	LTP197	ltpFR	6	5	n/a	CHEERLEADER	288	n/a	5	n/a	n/a	n/a	n/a	n/a	n/a
3182407	RECOG_LURE	n/a	LTP197	ltpFR	6	5	n/a	ADULT	8	0	4	n/a	n/a	n/a	n/a	n/a	n/a
3183255	RECOG_RESP	n/a	LTP197	ltpFR	6	5	n/a	ADULT	8	0	n/a	n/a	n/a	n/a	n/a	n/a	n/a
3183769	RECOG_CONF	n/a	LTP197	ltpFR	6	5	n/a	ADULT	8	n/a	4	n/a	n/a	n/a	n/a	n/a	n/a
3185220	RECOG_LURE	n/a	LTP197	ltpFR	6	5	n/a	CERAMICS	271	0	4	n/a	n/a	n/a	n/a	n/a	n/a
3185917	RECOG_RESP	n/a	LTP197	ltpFR	6	5	n/a	CERAMICS	271	0	n/a	n/a	n/a	n/a	n/a	n/a	n/a
3186373	RECOG_CONF	n/a	LTP197	ltpFR	6	5	n/a	CERAMICS	271	n/a	4	n/a	n/a	n/a	n/a	n/a	n/a
3187866	RECOG_TARGET	n/a	LTP197	ltpFR	6	5	1	BOARD	143	1	5	0	n/a	n/a	n/a	n/a	n/a
3188508	RECOG_RESP	n/a	LTP197	ltpFR	6	5	1	BOARD	143	1	n/a	0	n/a	n/a	n/a	n/a	n/a
3188897	RECOG_CONF	n/a	LTP197	ltpFR	6	5	1	BOARD	143	n/a	5	0	n/a	n/a	n/a	n/a	n/a
3190279	RECOG_TARGET	n/a	LTP197	ltpFR	6	5	0	PARTY	1018	1	5	1	n/a	n/a	n/a	n/a	n/a
3191162	RECOG_RESP	n/a	LTP197	ltpFR	6	5	0	PARTY	1018	1	n/a	1	n/a	n/a	n/a	n/a	n/a
3191851	RECOG_CONF	n/a	LTP197	ltpFR	6	5	0	PARTY	1018	n/a	5	1	n/a	n/a	n/a	n/a	n/a
3193258	RECOG_TARGET	n/a	LTP197	ltpFR	6	5	0	DIVER	476	1	5	1	n/a	n/a	n/a	n/a	n/a
3193863	RECOG_RESP	n/a	LTP197	ltpFR	6	5	0	DIVER	476	1	n/a	1	n/a	n/a	n/a	n/a	n/a
3194256	RECOG_CONF	n/a	LTP197	ltpFR	6	5	0	DIVER	476	n/a	5	1	n/a	n/a	n/a	n/a	n/a
3195987	RECOG_LURE	n/a	LTP197	ltpFR	6	5	n/a	AUDIENCE	59	0	4	n/a	n/a	n/a	n/a	n/a	n/a
3197465	RECOG_RESP	n/a	LTP197	ltpFR	6	5	n/a	AUDIENCE	59	0	n/a	n/a	n/a	n/a	n/a	n/a	n/a
3197977	RECOG_CONF	n/a	LTP197	ltpFR	6	5	n/a	AUDIENCE	59	n/a	4	n/a	n/a	n/a	n/a	n/a	n/a
3199382	RECOG_LURE	n/a	LTP197	ltpFR	6	5	n/a	WIFE	1609	0	2	n/a	n/a	n/a	n/a	n/a	n/a
3200331	RECOG_RESP	n/a	LTP197	ltpFR	6	5	n/a	WIFE	1609	0	n/a	n/a	n/a	n/a	n/a	n/a	n/a
3200885	RECOG_CONF	n/a	LTP197	ltpFR	6	5	n/a	WIFE	1609	n/a	2	n/a	n/a	n/a	n/a	n/a	n/a
3202461	RECOG_TARGET	n/a	LTP197	ltpFR	6	5	0	AGENT	10	1	5	1	n/a	n/a	n/a	n/a	n/a
3203275	RECOG_RESP	n/a	LTP197	ltpFR	6	5	0	AGENT	10	1	n/a	1	n/a	n/a	n/a	n/a	n/a
3203674	RECOG_CONF	n/a	LTP197	ltpFR	6	5	0	AGENT	10	n/a	5	1	n/a	n/a	n/a	n/a	n/a
3205223	RECOG_TARGET	n/a	LTP197	ltpFR	6	5	-1	TAPE	1433	1	5	-1	n/a	n/a	n/a	n/a	n/a
3205848	RECOG_RESP	n/a	LTP197	ltpFR	6	5	-1	TAPE	1433	1	n/a	-1	n/a	n/a	n/a	n/a	n/a
3206258	RECOG_CONF	n/a	LTP197	ltpFR	6	5	-1	TAPE	1433	n/a	5	-1	n/a	n/a	n/a	n/a	n/a
3207803	RECOG_LURE	n/a	LTP197	ltpFR	6	5	n/a	TULIP	1517	0	1	n/a	n/a	n/a	n/a	n/a	n/a
3208917	RECOG_RESP	n/a	LTP197	ltpFR	6	5	n/a	TULIP	1517	0	n/a	n/a	n/a	n/a	n/a	n/a	n/a
3209361	RECOG_CONF	n/a	LTP197	ltpFR	6	5	n/a	TULIP	1517	n/a	1	n/a	n/a	n/a	n/a	n/a	n/a
3210998	RECOG_TARGET	n/a	LTP197	ltpFR	6	5	0	SLIDE	1326	1	5	1	n/a	n/a	n/a	n/a	n/a
3212159	RECOG_RESP	n/a	LTP197	ltpFR	6	5	0	SLIDE	1326	1	n/a	1	n/a	n/a	n/a	n/a	n/a
3212564	RECOG_CONF	n/a	LTP197	ltpFR	6	5	0	SLIDE	1326	n/a	5	1	n/a	n/a	n/a	n/a	n/a
3214226	RECOG_LURE	n/a	LTP197	ltpFR	6	5	n/a	AUNT	60	0	2	n/a	n/a	n/a	n/a	n/a	n/a
3215301	RECOG_RESP	n/a	LTP197	ltpFR	6	5	n/a	AUNT	60	0	n/a	n/a	n/a	n/a	n/a	n/a	n/a
3215796	RECOG_CONF	n/a	LTP197	ltpFR	6	5	n/a	AUNT	60	n/a	2	n/a	n/a	n/a	n/a	n/a	n/a
3217288	RECOG_TARGET	n/a	LTP197	ltpFR	6	5	1	RULER	1216	1	5	0	n/a	n/a	n/a	n/a	n/a
3217844	RECOG_RESP	n/a	LTP197	ltpFR	6	5	1	RULER	1216	1	n/a	0	n/a	n/a	n/a	n/a	n/a
3218380	RECOG_CONF	n/a	LTP197	ltpFR	6	5	1	RULER	1216	n/a	5	0	n/a	n/a	n/a	n/a	n/a
3219884	RECOG_TARGET	n/a	LTP197	ltpFR	6	5	-1	STAIRS	1367	1	5	-1	n/a	n/a	n/a	n/a	n/a
3220545	RECOG_RESP	n/a	LTP197	ltpFR	6	5	-1	STAIRS	1367	1	n/a	-1	n/a	n/a	n/a	n/a	n/a
3221064	RECOG_CONF	n/a	LTP197	ltpFR	6	5	-1	STAIRS	1367	n/a	5	-1	n/a	n/a	n/a	n/a	n/a
3222530	RECOG_TARGET	n/a	LTP197	ltpFR	6	5	1	BUS	201	1	5	0	n/a	n/a	n/a	n/a	n/a
3223359	RECOG_RESP	n/a	LTP197	ltpFR	6	5	1	BUS	201	1	n/a	0	n/a	n/a	n/a	n/a	n/a
3223808	RECOG_CONF	n/a	LTP197	ltpFR	6	5	1	BUS	201	n/a	5	0	n/a	n/a	n/a	n/a	n/a
3225360	RECOG_TARGET	n/a	LTP197	ltpFR	6	5	1	BOUILLON	154	1	5	1	n/a	n/a	n/a	n/a	n/a
3226111	RECOG_RESP	n/a	LTP197	ltpFR	6	5	1	BOUILLON	154	1	n/a	1	n/a	n/a	n/a	n/a	n/a
3226564	RECOG_CONF	n/a	LTP197	ltpFR	6	5	1	BOUILLON	154	n/a	5	1	n/a	n/a	n/a	n/a	n/a
3228022	RECOG_LURE	n/a	LTP197	ltpFR	6	5	n/a	ROOSTER	1209	0	4	n/a	n/a	n/a	n/a	n/a	n/a
3229289	RECOG_RESP	n/a	LTP197	ltpFR	6	5	n/a	ROOSTER	1209	0	n/a	n/a	n/a	n/a	n/a	n/a	n/a
3229754	RECOG_CONF	n/a	LTP197	ltpFR	6	5	n/a	ROOSTER	1209	n/a	4	n/a	n/a	n/a	n/a	n/a	n/a
3231134	RECOG_TARGET	n/a	LTP197	ltpFR	6	5	0	CAPE	237	1	5	1	n/a	n/a	n/a	n/a	n/a
3231625	RECOG_RESP	n/a	LTP197	ltpFR	6	5	0	CAPE	237	1	n/a	1	n/a	n/a	n/a	n/a	n/a
3232059	RECOG_CONF	n/a	LTP197	ltpFR	6	5	0	CAPE	237	n/a	5	1	n/a	n/a	n/a	n/a	n/a
3233580	RECOG_TARGET	n/a	LTP197	ltpFR	6	5	-1	UNIVERSE	1540	1	5	-1	n/a	n/a	n/a	n/a	n/a
3234337	RECOG_RESP	n/a	LTP197	ltpFR	6	5	-1	UNIVERSE	1540	1	n/a	-1	n/a	n/a	n/a	n/a	n/a
3234793	RECOG_CONF	n/a	LTP197	ltpFR	6	5	-1	UNIVERSE	1540	n/a	5	-1	n/a	n/a	n/a	n/a	n/a
3262591	REC_START	n/a	LTP197	ltpFR	6	6	n/a	n/a	n/a	n/a	n/a	n/a	n/a	n/a	n/a	n/a	n/a
3262620	RECOG_TARGET	n/a	LTP197	ltpFR	6	6	0	DUCK	504	1	2	0	n/a	n/a	n/a	n/a	n/a
3263600	RECOG_RESP	n/a	LTP197	ltpFR	6	6	0	DUCK	504	1	n/a	0	n/a	n/a	n/a	n/a	n/a
3264122	RECOG_CONF	n/a	LTP197	ltpFR	6	6	0	DUCK	504	n/a	2	0	n/a	n/a	n/a	n/a	n/a
3265665	RECOG_TARGET	n/a	LTP197	ltpFR	6	6	0	PLANT	1083	1	5	0	n/a	n/a	n/a	n/a	n/a
3266645	RECOG_RESP	n/a	LTP197	ltpFR	6	6	0	PLANT	1083	1	n/a	0	n/a	n/a	n/a	n/a	n/a
3267066	RECOG_CONF	n/a	LTP197	ltpFR	6	6	0	PLANT	1083	n/a	5	0	n/a	n/a	n/a	n/a	n/a
3268677	RECOG_TARGET	n/a	LTP197	ltpFR	6	6	0	PUBLISHER	1137	0	2	1	n/a	n/a	n/a	n/a	n/a
3269919	RECOG_RESP	n/a	LTP197	ltpFR	6	6	0	PUBLISHER	1137	0	n/a	1	n/a	n/a	n/a	n/a	n/a
3270482	RECOG_CONF	n/a	LTP197	ltpFR	6	6	0	PUBLISHER	1137	n/a	2	1	n/a	n/a	n/a	n/a	n/a
3271940	RECOG_LURE	n/a	LTP197	ltpFR	6	6	n/a	MEDICINE	886	0	5	n/a	n/a	n/a	n/a	n/a	n/a
3272762	RECOG_RESP	n/a	LTP197	ltpFR	6	6	n/a	MEDICINE	886	0	n/a	n/a	n/a	n/a	n/a	n/a	n/a
3273234	RECOG_CONF	n/a	LTP197	ltpFR	6	6	n/a	MEDICINE	886	n/a	5	n/a	n/a	n/a	n/a	n/a	n/a
3274635	RECOG_TARGET	n/a	LTP197	ltpFR	6	6	0	VOLLEYBALL	1576	1	5	1	n/a	n/a	n/a	n/a	n/a
3275362	RECOG_RESP	n/a	LTP197	ltpFR	6	6	0	VOLLEYBALL	1576	1	n/a	1	n/a	n/a	n/a	n/a	n/a
3275786	RECOG_CONF	n/a	LTP197	ltpFR	6	6	0	VOLLEYBALL	1576	n/a	5	1	n/a	n/a	n/a	n/a	n/a
3277116	RECOG_TARGET	n/a	LTP197	ltpFR	6	6	-1	MATCH	878	1	5	-1	n/a	n/a	n/a	n/a	n/a
3277682	RECOG_RESP	n/a	LTP197	ltpFR	6	6	-1	MATCH	878	1	n/a	-1	n/a	n/a	n/a	n/a	n/a
3278071	RECOG_CONF	n/a	LTP197	ltpFR	6	6	-1	MATCH	878	n/a	5	-1	n/a	n/a	n/a	n/a	n/a
3279594	RECOG_LURE	n/a	LTP197	ltpFR	6	6	n/a	SWORD	1423	0	3	n/a	n/a	n/a	n/a	n/a	n/a
3280919	RECOG_RESP	n/a	LTP197	ltpFR	6	6	n/a	SWORD	1423	0	n/a	n/a	n/a	n/a	n/a	n/a	n/a
3281370	RECOG_CONF	n/a	LTP197	ltpFR	6	6	n/a	SWORD	1423	n/a	3	n/a	n/a	n/a	n/a	n/a	n/a
3282924	RECOG_LURE	n/a	LTP197	ltpFR	6	6	n/a	BROOM	178	0	4	n/a	n/a	n/a	n/a	n/a	n/a
3283787	RECOG_RESP	n/a	LTP197	ltpFR	6	6	n/a	BROOM	178	0	n/a	n/a	n/a	n/a	n/a	n/a	n/a
3284257	RECOG_CONF	n/a	LTP197	ltpFR	6	6	n/a	BROOM	178	n/a	4	n/a	n/a	n/a	n/a	n/a	n/a
3285803	RECOG_LURE	n/a	LTP197	ltpFR	6	6	n/a	FINGER	567	0	3	n/a	n/a	n/a	n/a	n/a	n/a
3286874	RECOG_RESP	n/a	LTP197	ltpFR	6	6	n/a	FINGER	567	0	n/a	n/a	n/a	n/a	n/a	n/a	n/a
3287394	RECOG_CONF	n/a	LTP197	ltpFR	6	6	n/a	FINGER	567	n/a	3	n/a	n/a	n/a	n/a	n/a	n/a
3288898	RECOG_TARGET	n/a	LTP197	ltpFR	6	6	1	FRANCE	601	1	5	0	n/a	n/a	n/a	n/a	n/a
3289574	RECOG_RESP	n/a	LTP197	ltpFR	6	6	1	FRANCE	601	1	n/a	0	n/a	n/a	n/a	n/a	n/a
3290033	RECOG_CONF	n/a	LTP197	ltpFR	6	6	1	FRANCE	601	n/a	5	0	n/a	n/a	n/a	n/a	n/a
3291593	RECOG_LURE	n/a	LTP197	ltpFR	6	6	n/a	VESSEL	1558	0	5	n/a	n/a	n/a	n/a	n/a	n/a
3292613	RECOG_RESP	n/a	LTP197	ltpFR	6	6	n/a	VESSEL	1558	0	n/a	n/a	n/a	n/a	n/a	n/a	n/a
3293146	RECOG_CONF	n/a	LTP197	ltpFR	6	6	n/a	VESSEL	1558	n/a	5	n/a	n/a	n/a	n/a	n/a	n/a
3294688	RECOG_TARGET	n/a	LTP197	ltpFR	6	6	1	DESIGNER	451	0	3	1	n/a	n/a	n/a	n/a	n/a
3295542	RECOG_RESP	n/a	LTP197	ltpFR	6	6	1	DESIGNER	451	0	n/a	1	n/a	n/a	n/a	n/a	n/a
3296008	RECOG_CONF	n/a	LTP197	ltpFR	6	6	1	DESIGNER	451	n/a	3	1	n/a	n/a	n/a	n/a	n/a
3297469	RECOG_LURE	n/a	LTP197	ltpFR	6	6	n/a	HOME	712	0	3	n/a	n/a	n/a	n/a	n/a	n/a
3299261	RECOG_RESP	n/a	LTP197	ltpFR	6	6	n/a	HOME	712	0	n/a	n/a	n/a	n/a	n/a	n/a	n/a
3299685	RECOG_CONF	n/a	LTP197	ltpFR	6	6	n/a	HOME	712	n/a	3	n/a	n/a	n/a	n/a	n/a	n/a
3301196	RECOG_TARGET	n/a	LTP197	ltpFR	6	6	0	CYLINDER	432	1	5	1	n/a	n/a	n/a	n/a	n/a
3302036	RECOG_RESP	n/a	LTP197	ltpFR	6	6	0	CYLINDER	432	1	n/a	1	n/a	n/a	n/a	n/a	n/a
3302465	RECOG_CONF	n/a	LTP197	ltpFR	6	6	0	CYLINDER	432	n/a	5	1	n/a	n/a	n/a	n/a	n/a
3303892	RECOG_TARGET	n/a	LTP197	ltpFR	6	6	0	FREEWAY	603	1	5	1	n/a	n/a	n/a	n/a	n/a
3304538	RECOG_RESP	n/a	LTP197	ltpFR	6	6	0	FREEWAY	603	1	n/a	1	n/a	n/a	n/a	n/a	n/a
3304960	RECOG_CONF	n/a	LTP197	ltpFR	6	6	0	FREEWAY	603	n/a	5	1	n/a	n/a	n/a	n/a	n/a
3306505	RECOG_TARGET	n/a	LTP197	ltpFR	6	6	1	HIKER	708	1	5	1	n/a	n/a	n/a	n/a	n/a
3307053	RECOG_RESP	n/a	LTP197	ltpFR	6	6	1	HIKER	708	1	n/a	1	n/a	n/a	n/a	n/a	n/a
3307454	RECOG_CONF	n/a	LTP197	ltpFR	6	6	1	HIKER	708	n/a	5	1	n/a	n/a	n/a	n/a	n/a
3308902	RECOG_TARGET	n/a	LTP197	ltpFR	6	6	0	ROAD	1196	1	5	1	n/a	n/a	n/a	n/a	n/a
3309736	RECOG_RESP	n/a	LTP197	ltpFR	6	6	0	ROAD	1196	1	n/a	1	n/a	n/a	n/a	n/a	n/a
3310228	RECOG_CONF	n/a	LTP197	ltpFR	6	6	0	ROAD	1196	n/a	5	1	n/a	n/a	n/a	n/a	n/a
3311780	RECOG_TARGET	n/a	LTP197	ltpFR	6	6	-1	DENIM	446	1	5	-1	n/a	n/a	n/a	n/a	n/a
3312487	RECOG_RESP	n/a	LTP197	ltpFR	6	6	-1	DENIM	446	1	n/a	-1	n/a	n/a	n/a	n/a	n/a
3312872	RECOG_CONF	n/a	LTP197	ltpFR	6	6	-1	DENIM	446	n/a	5	-1	n/a	n/a	n/a	n/a	n/a
3314310	RECOG_TARGET	n/a	LTP197	ltpFR	6	6	1	PLUTO	1092	1	5	0	n/a	n/a	n/a	n/a	n/a
3315025	RECOG_RESP	n/a	LTP197	ltpFR	6	6	1	PLUTO	1092	1	n/a	0	n/a	n/a	n/a	n/a	n/a
3315486	RECOG_CONF	n/a	LTP197	ltpFR	6	6	1	PLUTO	1092	n/a	5	0	n/a	n/a	n/a	n/a	n/a
3316856	RECOG_LURE	n/a	LTP197	ltpFR	6	6	n/a	NURSE	963	0	5	n/a	n/a	n/a	n/a	n/a	n/a
3317616	RECOG_RESP	n/a	LTP197	ltpFR	6	6	n/a	NURSE	963	0	n/a	n/a	n/a	n/a	n/a	n/a	n/a
3318070	RECOG_CONF	n/a	LTP197	ltpFR	6	6	n/a	NURSE	963	n/a	5	n/a	n/a	n/a	n/a	n/a	n/a
3321146	REC_START	n/a	LTP197	ltpFR	6	7	n/a	n/a	n/a	n/a	n/a	n/a	n/a	n/a	n/a	n/a	n/a
3321183	RECOG_LURE	n/a	LTP197	ltpFR	6	7	n/a	AIRPLANE	12	1	2	n/a	n/a	n/a	n/a	n/a	n/a
3321934	RECOG_RESP	n/a	LTP197	ltpFR	6	7	n/a	AIRPLANE	12	1	n/a	n/a	n/a	n/a	n/a	n/a	n/a
3322943	RECOG_CONF	n/a	LTP197	ltpFR	6	7	n/a	AIRPLANE	12	n/a	2	n/a	n/a	n/a	n/a	n/a	n/a
3324428	RECOG_LURE	n/a	LTP197	ltpFR	6	7	n/a	CABINET	212	0	4	n/a	n/a	n/a	n/a	n/a	n/a
3325616	RECOG_RESP	n/a	LTP197	ltpFR	6	7	n/a	CABINET	212	0	n/a	n/a	n/a	n/a	n/a	n/a	n/a
3326090	RECOG_CONF	n/a	LTP197	ltpFR	6	7	n/a	CABINET	212	n/a	4	n/a	n/a	n/a	n/a	n/a	n/a
3327523	RECOG_TARGET	n/a	LTP197	ltpFR	6	7	0	RAIL	1161	1	5	1	n/a	n/a	n/a	n/a	n/a
3328316	RECOG_RESP	n/a	LTP197	ltpFR	6	7	0	RAIL	1161	1	n/a	1	n/a	n/a	n/a	n/a	n/a
3328724	RECOG_CONF	n/a	LTP197	ltpFR	6	7	0	RAIL	1161	n/a	5	1	n/a	n/a	n/a	n/a	n/a
3330220	RECOG_LURE	n/a	LTP197	ltpFR	6	7	n/a	COOLER	375	0	4	n/a	n/a	n/a	n/a	n/a	n/a
3331006	RECOG_RESP	n/a	LTP197	ltpFR	6	7	n/a	COOLER	375	0	n/a	n/a	n/a	n/a	n/a	n/a	n/a
3331427	RECOG_CONF	n/a	LTP197	ltpFR	6	7	n/a	COOLER	375	n/a	4	n/a	n/a	n/a	n/a	n/a	n/a
3332932	RECOG_TARGET	n/a	LTP197	ltpFR	6	7	-1	FARM	552	1	5	-1	n/a	n/a	n/a	n/a	n/a
3333482	RECOG_RESP	n/a	LTP197	ltpFR	6	7	-1	FARM	552	1	n/a	-1	n/a	n/a	n/a	n/a	n/a
3333872	RECOG_CONF	n/a	LTP197	ltpFR	6	7	-1	FARM	552	n/a	5	-1	n/a	n/a	n/a	n/a	n/a
3335412	RECOG_TARGET	n/a	LTP197	ltpFR	6	7	0	ANCHOR	21	1	2	1	n/a	n/a	n/a	n/a	n/a
3336092	RECOG_RESP	n/a	LTP197	ltpFR	6	7	0	ANCHOR	21	1	n/a	1	n/a	n/a	n/a	n/a	n/a
3336722	RECOG_CONF	n/a	LTP197	ltpFR	6	7	0	ANCHOR	21	n/a	2	1	n/a	n/a	n/a	n/a	n/a
3338041	RECOG_LURE	n/a	LTP197	ltpFR	6	7	n/a	BATH	98	0	1	n/a	n/a	n/a	n/a	n/a	n/a
3339099	RECOG_RESP	n/a	LTP197	ltpFR	6	7	n/a	BATH	98	0	n/a	n/a	n/a	n/a	n/a	n/a	n/a
3339529	RECOG_CONF	n/a	LTP197	ltpFR	6	7	n/a	BATH	98	n/a	1	n/a	n/a	n/a	n/a	n/a	n/a
3341420	RECOG_LURE	n/a	LTP197	ltpFR	6	7	n/a	SANDPAPER	1231	0	4	n/a	n/a	n/a	n/a	n/a	n/a
3342322	RECOG_RESP	n/a	LTP197	ltpFR	6	7	n/a	SANDPAPER	1231	0	n/a	n/a	n/a	n/a	n/a	n/a	n/a
3342752	RECOG_CONF	n/a	LTP197	ltpFR	6	7	n/a	SANDPAPER	1231	n/a	4	n/a	n/a	n/a	n/a	n/a	n/a
3344299	RECOG_TARGET	n/a	LTP197	ltpFR	6	7	-1	CHEF	290	1	5	-1	n/a	n/a	n/a	n/a	n/a
3345102	RECOG_RESP	n/a	LTP197	ltpFR	6	7	-1	CHEF	290	1	n/a	-1	n/a	n/a	n/a	n/a	n/a
3345507	RECOG_CONF	n/a	LTP197	ltpFR	6	7	-1	CHEF	290	n/a	5	-1	n/a	n/a	n/a	n/a	n/a
3347145	RECOG_TARGET	n/a	LTP197	ltpFR	6	7	1	SAP	1233	1	5	0	n/a	n/a	n/a	n/a	n/a
3347891	RECOG_RESP	n/a	LTP197	ltpFR	6	7	1	SAP	1233	1	n/a	0	n/a	n/a	n/a	n/a	n/a
3348309	RECOG_CONF	n/a	LTP197	ltpFR	6	7	1	SAP	1233	n/a	5	0	n/a	n/a	n/a	n/a	n/a
3349890	RECOG_TARGET	n/a	LTP197	ltpFR	6	7	1	VEGETABLE	1552	1	5	1	n/a	n/a	n/a	n/a	n/a
3350498	RECOG_RESP	n/a	LTP197	ltpFR	6	7	1	VEGETABLE	1552	1	n/a	1	n/a	n/a	n/a	n/a	n/a
3350953	RECOG_CONF	n/a	LTP197	ltpFR	6	7	1	VEGETABLE	1552	n/a	5	1	n/a	n/a	n/a	n/a	n/a
3352370	RECOG_LURE	n/a	LTP197	ltpFR	6	7	n/a	PAWN	1030	0	1	n/a	n/a	n/a	n/a	n/a	n/a
3353373	RECOG_RESP	n/a	LTP197	ltpFR	6	7	n/a	PAWN	1030	0	n/a	n/a	n/a	n/a	n/a	n/a	n/a
3353796	RECOG_CONF	n/a	LTP197	ltpFR	6	7	n/a	PAWN	1030	n/a	1	n/a	n/a	n/a	n/a	n/a	n/a
3355266	RECOG_TARGET	n/a	LTP197	ltpFR	6	7	0	OATMEAL	967	1	5	0	n/a	n/a	n/a	n/a	n/a
3355783	RECOG_RESP	n/a	LTP197	ltpFR	6	7	0	OATMEAL	967	1	n/a	0	n/a	n/a	n/a	n/a	n/a
3356221	RECOG_CONF	n/a	LTP197	ltpFR	6	7	0	OATMEAL	967	n/a	5	0	n/a	n/a	n/a	n/a	n/a
3357812	RECOG_LURE	n/a	LTP197	ltpFR	6	7	n/a	CROSS	413	0	1	n/a	n/a	n/a	n/a	n/a	n/a
3358949	RECOG_RESP	n/a	LTP197	ltpFR	6	7	n/a	CROSS	413	0	n/a	n/a	n/a	n/a	n/a	n/a	n/a
3359374	RECOG_CONF	n/a	LTP197	ltpFR	6	7	n/a	CROSS	413	n/a	1	n/a	n/a	n/a	n/a	n/a	n/a
3360924	RECOG_TARGET	n/a	LTP197	ltpFR	6	7	1	BUILDER	190	1	4	1	n/a	n/a	n/a	n/a	n/a
3361544	RECOG_RESP	n/a	LTP197	ltpFR	6	7	1	BUILDER	190	1	n/a	1	n/a	n/a	n/a	n/a	n/a
3361993	RECOG_CONF	n/a	LTP197	ltpFR	6	7	1	BUILDER	190	n/a	4	1	n/a	n/a	n/a	n/a	n/a
3363503	RECOG_TARGET	n/a	LTP197	ltpFR	6	7	1	COACH	331	1	5	1	n/a	n/a	n/a	n/a	n/a
3364301	RECOG_RESP	n/a	LTP197	ltpFR	6	7	1	COACH	331	1	n/a	1	n/a	n/a	n/a	n/a	n/a
