mstime	trial_type	stim_file	subject	experiment	session	trial	item_name	item_num	list	answer	test_x	test_y	test_z
0	SESS_START	n/a	LTP349	ltpFR2	8	n/a	n/a	n/a	n/a	n/a	0	0	0
15129	START	n/a	LTP349	ltpFR2	8	n/a	n/a	n/a	-1	n/a	n/a	n/a	n/a
15159	PROB	n/a	LTP349	ltpFR2	8	n/a	n/a	n/a	-1	15	8	4	3
18007	PROB	n/a	LTP349	ltpFR2	8	n/a	n/a	n/a	-1	12	3	3	6
20773	PROB	n/a	LTP349	ltpFR2	8	n/a	n/a	n/a	-1	13	4	1	8
22955	PROB	n/a	LTP349	ltpFR2	8	n/a	n/a	n/a	-1	20	6	5	9
26211	STOP	n/a	LTP349	ltpFR2	8	n/a	n/a	n/a	-1	n/a	n/a	n/a	n/a
69132	WORD	wordpools/wasnorm_wordpool_576.txt	LTP349	ltpFR2	8	1	BOARD	143	n/a	n/a	0	0	0
71897	WORD	wordpools/wasnorm_wordpool_576.txt	LTP349	ltpFR2	8	1	SURVEY	1414	n/a	n/a	0	0	0
74563	WORD	wordpools/wasnorm_wordpool_576.txt	LTP349	ltpFR2	8	1	WHISTLE	1606	n/a	n/a	0	0	0
77028	WORD	wordpools/wasnorm_wordpool_576.txt	LTP349	ltpFR2	8	1	CORAL	378	n/a	n/a	0	0	0
79743	WORD	wordpools/wasnorm_wordpool_576.txt	LTP349	ltpFR2	8	1	DRIVER	499	n/a	n/a	0	0	0
82309	WORD	wordpools/wasnorm_wordpool_576.txt	LTP349	ltpFR2	8	1	PACKAGE	997	n/a	n/a	0	0	0
84841	WORD	wordpools/wasnorm_wordpool_576.txt	LTP349	ltpFR2	8	1	FIDDLE	561	n/a	n/a	0	0	0
87373	WORD	wordpools/wasnorm_wordpool_576.txt	LTP349	ltpFR2	8	1	PERMIT	1051	n/a	n/a	0	0	0
89805	WORD	wordpools/wasnorm_wordpool_576.txt	LTP349	ltpFR2	8	1	CLOTHES	327	n/a	n/a	0	0	0
92587	WORD	wordpools/wasnorm_wordpool_576.txt	LTP349	ltpFR2	8	1	SEAGULL	1261	n/a	n/a	0	0	0
95218	WORD	wordpools/wasnorm_wordpool_576.txt	LTP349	ltpFR2	8	1	PIGEON	1065	n/a	n/a	0	0	0
98034	WORD	wordpools/wasnorm_wordpool_576.txt	LTP349	ltpFR2	8	1	BARLEY	88	n/a	n/a	0	0	0
100467	WORD	wordpools/wasnorm_wordpool_576.txt	LTP349	ltpFR2	8	1	GARDEN	623	n/a	n/a	0	0	0
103098	WORD	wordpools/wasnorm_wordpool_576.txt	LTP349	ltpFR2	8	1	GIFT	635	n/a	n/a	0	0	0
105681	WORD	wordpools/wasnorm_wordpool_576.txt	LTP349	ltpFR2	8	1	BOX	159	n/a	n/a	0	0	0
108129	WORD	wordpools/wasnorm_wordpool_576.txt	LTP349	ltpFR2	8	1	OX	994	n/a	n/a	0	0	0
110928	WORD	wordpools/wasnorm_wordpool_576.txt	LTP349	ltpFR2	8	1	OYSTER	995	n/a	n/a	0	0	0
113460	WORD	wordpools/wasnorm_wordpool_576.txt	LTP349	ltpFR2	8	1	BASEMENT	94	n/a	n/a	0	0	0
115959	WORD	wordpools/wasnorm_wordpool_576.txt	LTP349	ltpFR2	8	1	TUNNEL	1519	n/a	n/a	0	0	0
118557	WORD	wordpools/wasnorm_wordpool_576.txt	LTP349	ltpFR2	8	1	KEEPER	769	n/a	n/a	0	0	0
121123	WORD	wordpools/wasnorm_wordpool_576.txt	LTP349	ltpFR2	8	1	CANDY	230	n/a	n/a	0	0	0
123738	WORD	wordpools/wasnorm_wordpool_576.txt	LTP349	ltpFR2	8	1	TAXI	1438	n/a	n/a	0	0	0
126304	WORD	wordpools/wasnorm_wordpool_576.txt	LTP349	ltpFR2	8	1	PEPPER	1047	n/a	n/a	0	0	0
129119	WORD	wordpools/wasnorm_wordpool_576.txt	LTP349	ltpFR2	8	1	TREAT	1501	n/a	n/a	0	0	0
130735	START	n/a	LTP349	ltpFR2	8	n/a	n/a	n/a	1	n/a	n/a	n/a	n/a
131691	DISTRACTOR	n/a	LTP349	ltpFR2	8	1	n/a	n/a	n/a	n/a	0	0	0
131701	PROB	n/a	LTP349	ltpFR2	8	n/a	n/a	n/a	1	13	5	7	1
136798	PROB	n/a	LTP349	ltpFR2	8	n/a	n/a	n/a	1	15	4	5	6
140397	PROB	n/a	LTP349	ltpFR2	8	n/a	n/a	n/a	1	16	9	6	1
143079	PROB	n/a	LTP349	ltpFR2	8	n/a	n/a	n/a	1	13	5	5	3
144528	PROB	n/a	LTP349	ltpFR2	8	n/a	n/a	n/a	1	13	1	5	7
146943	PROB	n/a	LTP349	ltpFR2	8	n/a	n/a	n/a	1	15	3	9	3
148926	PROB	n/a	LTP349	ltpFR2	8	n/a	n/a	n/a	1	20	9	9	2
150442	PROB	n/a	LTP349	ltpFR2	8	n/a	n/a	n/a	1	16	2	5	9
152307	PROB	n/a	LTP349	ltpFR2	8	n/a	n/a	n/a	1	14	3	7	4
153660	STOP	n/a	LTP349	ltpFR2	8	n/a	n/a	n/a	1	n/a	n/a	n/a	n/a
156573	REC_START	n/a	LTP349	ltpFR2	8	1	n/a	n/a	n/a	n/a	0	0	0
158231	REC_WORD	wordpools/wasnorm_wordpool_576.txt	LTP349	ltpFR2	8	1	CANDY	230	n/a	n/a	0	0	0
159492	REC_WORD	wordpools/wasnorm_wordpool_576.txt	LTP349	ltpFR2	8	1	OX	994	n/a	n/a	0	0	0
160559	REC_WORD	wordpools/wasnorm_wordpool_576.txt	LTP349	ltpFR2	8	1	BOARD	143	n/a	n/a	0	0	0
161520	REC_WORD	wordpools/wasnorm_wordpool_576.txt	LTP349	ltpFR2	8	1	SURVEY	1414	n/a	n/a	0	0	0
166701	REC_WORD	wordpools/wasnorm_wordpool_576.txt	LTP349	ltpFR2	8	1	GIFT	635	n/a	n/a	0	0	0
168121	REC_WORD	wordpools/wasnorm_wordpool_576.txt	LTP349	ltpFR2	8	1	FIDDLE	561	n/a	n/a	0	0	0
169617	REC_WORD	wordpools/wasnorm_wordpool_576.txt	LTP349	ltpFR2	8	1	PACKAGE	997	n/a	n/a	0	0	0
171152	REC_WORD	wordpools/wasnorm_wordpool_576.txt	LTP349	ltpFR2	8	1	PERMIT	1051	n/a	n/a	0	0	0
173123	REC_WORD	wordpools/wasnorm_wordpool_576.txt	LTP349	ltpFR2	8	1	DRIVER	499	n/a	n/a	0	0	0
181784	REC_WORD	wordpools/wasnorm_wordpool_576.txt	LTP349	ltpFR2	8	1	OYSTER	995	n/a	n/a	0	0	0
186837	REC_WORD	wordpools/wasnorm_wordpool_576.txt	LTP349	ltpFR2	8	1	CLOTHES	327	n/a	n/a	0	0	0
247010	DISTRACTOR	n/a	LTP349	ltpFR2	8	2	n/a	n/a	n/a	n/a	0	0	0
247011	START	n/a	LTP349	ltpFR2	8	n/a	n/a	n/a	2	n/a	n/a	n/a	n/a
247027	PROB	n/a	LTP349	ltpFR2	8	n/a	n/a	n/a	2	20	9	7	4
249992	PROB	n/a	LTP349	ltpFR2	8	n/a	n/a	n/a	2	13	1	3	9
251541	PROB	n/a	LTP349	ltpFR2	8	n/a	n/a	n/a	2	22	6	9	7
253324	PROB	n/a	LTP349	ltpFR2	8	n/a	n/a	n/a	2	12	1	6	5
254840	PROB	n/a	LTP349	ltpFR2	8	n/a	n/a	n/a	2	20	7	6	7
256489	PROB	n/a	LTP349	ltpFR2	8	n/a	n/a	n/a	2	8	1	6	1
259254	PROB	n/a	LTP349	ltpFR2	8	n/a	n/a	n/a	2	17	3	8	6
262336	PROB	n/a	LTP349	ltpFR2	8	n/a	n/a	n/a	2	19	2	8	9
264035	PROB	n/a	LTP349	ltpFR2	8	n/a	n/a	n/a	2	10	1	6	3
265551	PROB	n/a	LTP349	ltpFR2	8	n/a	n/a	n/a	2	23	6	9	7
271011	STOP	n/a	LTP349	ltpFR2	8	n/a	n/a	n/a	2	n/a	n/a	n/a	n/a
272031	WORD	wordpools/wasnorm_wordpool_576.txt	LTP349	ltpFR2	8	2	WORLD	1622	n/a	n/a	0	0	0
274663	WORD	wordpools/wasnorm_wordpool_576.txt	LTP349	ltpFR2	8	2	GUITAR	670	n/a	n/a	0	0	0
277412	WORD	wordpools/wasnorm_wordpool_576.txt	LTP349	ltpFR2	8	2	ICING	732	n/a	n/a	0	0	0
280094	WORD	wordpools/wasnorm_wordpool_576.txt	LTP349	ltpFR2	8	2	MARKET	871	n/a	n/a	0	0	0
282876	WORD	wordpools/wasnorm_wordpool_576.txt	LTP349	ltpFR2	8	2	PLAZA	1088	n/a	n/a	0	0	0
285541	WORD	wordpools/wasnorm_wordpool_576.txt	LTP349	ltpFR2	8	2	BUCKET	184	n/a	n/a	0	0	0
288107	WORD	wordpools/wasnorm_wordpool_576.txt	LTP349	ltpFR2	8	2	STALLION	1369	n/a	n/a	0	0	0
290639	WORD	wordpools/wasnorm_wordpool_576.txt	LTP349	ltpFR2	8	2	DONKEY	484	n/a	n/a	0	0	0
293287	WORD	wordpools/wasnorm_wordpool_576.txt	LTP349	ltpFR2	8	2	MARSH	874	n/a	n/a	0	0	0
295919	WORD	wordpools/wasnorm_wordpool_576.txt	LTP349	ltpFR2	8	2	LUGGAGE	847	n/a	n/a	0	0	0
298601	WORD	wordpools/wasnorm_wordpool_576.txt	LTP349	ltpFR2	8	2	CLAM	315	n/a	n/a	0	0	0
301183	WORD	wordpools/wasnorm_wordpool_576.txt	LTP349	ltpFR2	8	2	MILDEW	893	n/a	n/a	0	0	0
303632	WORD	wordpools/wasnorm_wordpool_576.txt	LTP349	ltpFR2	8	2	SLIDE	1326	n/a	n/a	0	0	0
306213	WORD	wordpools/wasnorm_wordpool_576.txt	LTP349	ltpFR2	8	2	WIDOW	1608	n/a	n/a	0	0	0
308663	WORD	wordpools/wasnorm_wordpool_576.txt	LTP349	ltpFR2	8	2	BALLOON	75	n/a	n/a	0	0	0
311462	WORD	wordpools/wasnorm_wordpool_576.txt	LTP349	ltpFR2	8	2	CLOUD	328	n/a	n/a	0	0	0
314027	WORD	wordpools/wasnorm_wordpool_576.txt	LTP349	ltpFR2	8	2	SWITCH	1422	n/a	n/a	0	0	0
316759	WORD	wordpools/wasnorm_wordpool_576.txt	LTP349	ltpFR2	8	2	GRAVEL	659	n/a	n/a	0	0	0
319374	WORD	wordpools/wasnorm_wordpool_576.txt	LTP349	ltpFR2	8	2	SUITCASE	1403	n/a	n/a	0	0	0
322056	WORD	wordpools/wasnorm_wordpool_576.txt	LTP349	ltpFR2	8	2	FREEZER	604	n/a	n/a	0	0	0
324822	WORD	wordpools/wasnorm_wordpool_576.txt	LTP349	ltpFR2	8	2	COOKBOOK	373	n/a	n/a	0	0	0
327254	WORD	wordpools/wasnorm_wordpool_576.txt	LTP349	ltpFR2	8	2	ZEBRA	1635	n/a	n/a	0	0	0
330053	WORD	wordpools/wasnorm_wordpool_576.txt	LTP349	ltpFR2	8	2	COMET	353	n/a	n/a	0	0	0
332784	WORD	wordpools/wasnorm_wordpool_576.txt	LTP349	ltpFR2	8	2	MONEY	908	n/a	n/a	0	0	0
334400	START	n/a	LTP349	ltpFR2	8	n/a	n/a	n/a	3	n/a	n/a	n/a	n/a
335500	DISTRACTOR	n/a	LTP349	ltpFR2	8	2	n/a	n/a	n/a	n/a	0	0	0
335516	PROB	n/a	LTP349	ltpFR2	8	n/a	n/a	n/a	3	12	2	4	6
337682	PROB	n/a	LTP349	ltpFR2	8	n/a	n/a	n/a	3	9	4	1	4
339197	PROB	n/a	LTP349	ltpFR2	8	n/a	n/a	n/a	3	9	1	1	7
340964	PROB	n/a	LTP349	ltpFR2	8	n/a	n/a	n/a	3	15	8	5	2
343412	PROB	n/a	LTP349	ltpFR2	8	n/a	n/a	n/a	3	15	2	9	4
345462	PROB	n/a	LTP349	ltpFR2	8	n/a	n/a	n/a	3	16	7	5	4
347544	PROB	n/a	LTP349	ltpFR2	8	n/a	n/a	n/a	3	19	8	6	5
349226	PROB	n/a	LTP349	ltpFR2	8	n/a	n/a	n/a	3	19	6	6	7
350842	PROB	n/a	LTP349	ltpFR2	8	n/a	n/a	n/a	3	16	7	2	7
352691	PROB	n/a	LTP349	ltpFR2	8	n/a	n/a	n/a	3	11	2	2	7
354290	PROB	n/a	LTP349	ltpFR2	8	n/a	n/a	n/a	3	19	8	5	6
356556	PROB	n/a	LTP349	ltpFR2	8	n/a	n/a	n/a	3	16	7	1	8
358308	STOP	n/a	LTP349	ltpFR2	8	n/a	n/a	n/a	3	n/a	n/a	n/a	n/a
360238	REC_START	n/a	LTP349	ltpFR2	8	2	n/a	n/a	n/a	n/a	0	0	0
364544	REC_WORD	wordpools/wasnorm_wordpool_576.txt	LTP349	ltpFR2	8	2	WORLD	1622	n/a	n/a	0	0	0
367827	REC_WORD	wordpools/wasnorm_wordpool_576.txt	LTP349	ltpFR2	8	2	ICING	732	n/a	n/a	0	0	0
369396	REC_WORD	wordpools/wasnorm_wordpool_576.txt	LTP349	ltpFR2	8	2	GUITAR	670	n/a	n/a	0	0	0
371535	REC_WORD	wordpools/wasnorm_wordpool_576.txt	LTP349	ltpFR2	8	2	BUCKET	184	n/a	n/a	0	0	0
373000	REC_WORD	wordpools/wasnorm_wordpool_576.txt	LTP349	ltpFR2	8	2	MARKET	871	n/a	n/a	0	0	0
374531	REC_WORD	wordpools/wasnorm_wordpool_576.txt	LTP349	ltpFR2	8	2	PLAZA	1088	n/a	n/a	0	0	0
376125	REC_WORD	wordpools/wasnorm_wordpool_576.txt	LTP349	ltpFR2	8	2	MONEY	908	n/a	n/a	0	0	0
377495	REC_WORD	wordpools/wasnorm_wordpool_576.txt	LTP349	ltpFR2	8	2	STALLION	1369	n/a	n/a	0	0	0
379225	REC_WORD	wordpools/wasnorm_wordpool_576.txt	LTP349	ltpFR2	8	2	DONKEY	484	n/a	n/a	0	0	0
380503	REC_WORD	wordpools/wasnorm_wordpool_576.txt	LTP349	ltpFR2	8	2	ZEBRA	1635	n/a	n/a	0	0	0
381997	REC_WORD	wordpools/wasnorm_wordpool_576.txt	LTP349	ltpFR2	8	2	WIDOW	1608	n/a	n/a	0	0	0
383577	REC_WORD	wordpools/wasnorm_wordpool_576.txt	LTP349	ltpFR2	8	2	FREEZER	604	n/a	n/a	0	0	0
385044	REC_WORD	wordpools/wasnorm_wordpool_576.txt	LTP349	ltpFR2	8	2	COOKBOOK	373	n/a	n/a	0	0	0
389554	REC_WORD	wordpools/wasnorm_wordpool_576.txt	LTP349	ltpFR2	8	2	MARSH	874	n/a	n/a	0	0	0
390958	REC_WORD	wordpools/wasnorm_wordpool_576.txt	LTP349	ltpFR2	8	2	CLAM	315	n/a	n/a	0	0	0
393186	REC_WORD	wordpools/wasnorm_wordpool_576.txt	LTP349	ltpFR2	8	2	SLIDE	1326	n/a	n/a	0	0	0
450676	DISTRACTOR	n/a	LTP349	ltpFR2	8	3	n/a	n/a	n/a	n/a	0	0	0
450676	START	n/a	LTP349	ltpFR2	8	n/a	n/a	n/a	4	n/a	n/a	n/a	n/a
450693	PROB	n/a	LTP349	ltpFR2	8	n/a	n/a	n/a	4	11	6	3	2
452525	PROB	n/a	LTP349	ltpFR2	8	n/a	n/a	n/a	4	11	1	5	5
453808	PROB	n/a	LTP349	ltpFR2	8	n/a	n/a	n/a	4	19	6	4	9
455640	PROB	n/a	LTP349	ltpFR2	8	n/a	n/a	n/a	4	9	2	5	2
457123	PROB	n/a	LTP349	ltpFR2	8	n/a	n/a	n/a	4	10	3	4	3
459055	PROB	n/a	LTP349	ltpFR2	8	n/a	n/a	n/a	4	14	1	7	6
461504	PROB	n/a	LTP349	ltpFR2	8	n/a	n/a	n/a	4	19	5	7	7
463170	PROB	n/a	LTP349	ltpFR2	8	n/a	n/a	n/a	4	11	9	1	1
464586	PROB	n/a	LTP349	ltpFR2	8	n/a	n/a	n/a	4	12	2	5	5
466585	PROB	n/a	LTP349	ltpFR2	8	n/a	n/a	n/a	4	18	9	3	6
468800	PROB	n/a	LTP349	ltpFR2	8	n/a	n/a	n/a	4	11	1	1	9
470366	PROB	n/a	LTP349	ltpFR2	8	n/a	n/a	n/a	4	19	1	9	9
471982	PROB	n/a	LTP349	ltpFR2	8	n/a	n/a	n/a	4	18	2	7	9
473676	STOP	n/a	LTP349	ltpFR2	8	n/a	n/a	n/a	4	n/a	n/a	n/a	n/a
475530	WORD	wordpools/wasnorm_wordpool_576.txt	LTP349	ltpFR2	8	3	PARENT	1013	n/a	n/a	0	0	0
478295	WORD	wordpools/wasnorm_wordpool_576.txt	LTP349	ltpFR2	8	3	TROMBONE	1508	n/a	n/a	0	0	0
480728	WORD	wordpools/wasnorm_wordpool_576.txt	LTP349	ltpFR2	8	3	GIRL	637	n/a	n/a	0	0	0
483310	WORD	wordpools/wasnorm_wordpool_576.txt	LTP349	ltpFR2	8	3	CASKET	255	n/a	n/a	0	0	0
485775	WORD	wordpools/wasnorm_wordpool_576.txt	LTP349	ltpFR2	8	3	GUARD	667	n/a	n/a	0	0	0
488590	WORD	wordpools/wasnorm_wordpool_576.txt	LTP349	ltpFR2	8	3	MACHINE	852	n/a	n/a	0	0	0
491122	WORD	wordpools/wasnorm_wordpool_576.txt	LTP349	ltpFR2	8	3	BROTHER	179	n/a	n/a	0	0	0
493638	WORD	wordpools/wasnorm_wordpool_576.txt	LTP349	ltpFR2	8	3	MUMMY	932	n/a	n/a	0	0	0
496202	WORD	wordpools/wasnorm_wordpool_576.txt	LTP349	ltpFR2	8	3	MARROW	872	n/a	n/a	0	0	0
498885	WORD	wordpools/wasnorm_wordpool_576.txt	LTP349	ltpFR2	8	3	FRAME	600	n/a	n/a	0	0	0
501617	WORD	wordpools/wasnorm_wordpool_576.txt	LTP349	ltpFR2	8	3	HUSBAND	728	n/a	n/a	0	0	0
504215	WORD	wordpools/wasnorm_wordpool_576.txt	LTP349	ltpFR2	8	3	SPACE	1345	n/a	n/a	0	0	0
506998	WORD	wordpools/wasnorm_wordpool_576.txt	LTP349	ltpFR2	8	3	ARMY	39	n/a	n/a	0	0	0
509713	WORD	wordpools/wasnorm_wordpool_576.txt	LTP349	ltpFR2	8	3	FLEET	578	n/a	n/a	0	0	0
512194	WORD	wordpools/wasnorm_wordpool_576.txt	LTP349	ltpFR2	8	3	NECKLACE	940	n/a	n/a	0	0	0
514677	WORD	wordpools/wasnorm_wordpool_576.txt	LTP349	ltpFR2	8	3	RUST	1219	n/a	n/a	0	0	0
517110	WORD	wordpools/wasnorm_wordpool_576.txt	LTP349	ltpFR2	8	3	TOMBSTONE	1478	n/a	n/a	0	0	0
519675	WORD	wordpools/wasnorm_wordpool_576.txt	LTP349	ltpFR2	8	3	CRATER	400	n/a	n/a	0	0	0
522357	WORD	wordpools/wasnorm_wordpool_576.txt	LTP349	ltpFR2	8	3	MEAT	883	n/a	n/a	0	0	0
525106	WORD	wordpools/wasnorm_wordpool_576.txt	LTP349	ltpFR2	8	3	COBRA	336	n/a	n/a	0	0	0
527888	WORD	wordpools/wasnorm_wordpool_576.txt	LTP349	ltpFR2	8	3	FOREHEAD	592	n/a	n/a	0	0	0
530553	WORD	wordpools/wasnorm_wordpool_576.txt	LTP349	ltpFR2	8	3	SCARF	1246	n/a	n/a	0	0	0
533301	WORD	wordpools/wasnorm_wordpool_576.txt	LTP349	ltpFR2	8	3	CASHEW	253	n/a	n/a	0	0	0
535850	WORD	wordpools/wasnorm_wordpool_576.txt	LTP349	ltpFR2	8	3	MAPLE	866	n/a	n/a	0	0	0
537466	START	n/a	LTP349	ltpFR2	8	n/a	n/a	n/a	5	n/a	n/a	n/a	n/a
538623	DISTRACTOR	n/a	LTP349	ltpFR2	8	3	n/a	n/a	n/a	n/a	0	0	0
538632	PROB	n/a	LTP349	ltpFR2	8	n/a	n/a	n/a	5	15	5	6	4
540415	PROB	n/a	LTP349	ltpFR2	8	n/a	n/a	n/a	5	10	6	4	2
542196	PROB	n/a	LTP349	ltpFR2	8	n/a	n/a	n/a	5	11	1	4	6
544329	PROB	n/a	LTP349	ltpFR2	8	n/a	n/a	n/a	5	14	7	6	1
546478	PROB	n/a	LTP349	ltpFR2	8	n/a	n/a	n/a	5	10	2	3	5
548078	PROB	n/a	LTP349	ltpFR2	8	n/a	n/a	n/a	5	7	2	1	4
550860	PROB	n/a	LTP349	ltpFR2	8	n/a	n/a	n/a	5	17	4	9	4
552892	PROB	n/a	LTP349	ltpFR2	8	n/a	n/a	n/a	5	17	9	2	6
555374	PROB	n/a	LTP349	ltpFR2	8	n/a	n/a	n/a	5	20	5	9	6
558722	PROB	n/a	LTP349	ltpFR2	8	n/a	n/a	n/a	5	10	4	3	3
560564	STOP	n/a	LTP349	ltpFR2	8	n/a	n/a	n/a	5	n/a	n/a	n/a	n/a
563387	REC_START	n/a	LTP349	ltpFR2	8	3	n/a	n/a	n/a	n/a	0	0	0
564383	REC_WORD	wordpools/wasnorm_wordpool_576.txt	LTP349	ltpFR2	8	3	COBRA	336	n/a	n/a	0	0	0
565758	REC_WORD	wordpools/wasnorm_wordpool_576.txt	LTP349	ltpFR2	8	3	FOREHEAD	592	n/a	n/a	0	0	0
567835	REC_WORD	wordpools/wasnorm_wordpool_576.txt	LTP349	ltpFR2	8	3	PARENT	1013	n/a	n/a	0	0	0
568990	REC_WORD	wordpools/wasnorm_wordpool_576.txt	LTP349	ltpFR2	8	3	HUSBAND	728	n/a	n/a	0	0	0
570768	REC_WORD	wordpools/wasnorm_wordpool_576.txt	LTP349	ltpFR2	8	3	GIRL	637	n/a	n/a	0	0	0
571685	REC_WORD	wordpools/wasnorm_wordpool_576.txt	LTP349	ltpFR2	8	3	TROMBONE	1508	n/a	n/a	0	0	0
573323	REC_WORD	wordpools/wasnorm_wordpool_576.txt	LTP349	ltpFR2	8	3	CASKET	255	n/a	n/a	0	0	0
574689	REC_WORD	wordpools/wasnorm_wordpool_576.txt	LTP349	ltpFR2	8	3	TOMBSTONE	1478	n/a	n/a	0	0	0
576123	REC_WORD	wordpools/wasnorm_wordpool_576.txt	LTP349	ltpFR2	8	3	MUMMY	932	n/a	n/a	0	0	0
585662	REC_WORD	wordpools/wasnorm_wordpool_576.txt	LTP349	ltpFR2	8	3	CASHEW	253	n/a	n/a	0	0	0
594469	REC_WORD	wordpools/wasnorm_wordpool_576.txt	LTP349	ltpFR2	8	3	MAPLE	866	n/a	n/a	0	0	0
602672	REC_WORD	wordpools/wasnorm_wordpool_576.txt	LTP349	ltpFR2	8	3	NECKLACE	940	n/a	n/a	0	0	0
604588	REC_WORD	wordpools/wasnorm_wordpool_576.txt	LTP349	ltpFR2	8	3	RUST	1219	n/a	n/a	0	0	0
611676	REC_WORD	wordpools/wasnorm_wordpool_576.txt	LTP349	ltpFR2	8	3	MACHINE	852	n/a	n/a	0	0	0
614845	REC_WORD	wordpools/wasnorm_wordpool_576.txt	LTP349	ltpFR2	8	3	BROTHER	179	n/a	n/a	0	0	0
653842	WORD	wordpools/wasnorm_wordpool_576.txt	LTP349	ltpFR2	8	4	TUBA	1515	n/a	n/a	0	0	0
656357	WORD	wordpools/wasnorm_wordpool_576.txt	LTP349	ltpFR2	8	4	NURSE	963	n/a	n/a	0	0	0
659139	WORD	wordpools/wasnorm_wordpool_576.txt	LTP349	ltpFR2	8	4	TUTU	1524	n/a	n/a	0	0	0
661871	WORD	wordpools/wasnorm_wordpool_576.txt	LTP349	ltpFR2	8	4	DOUGHNUT	490	n/a	n/a	0	0	0
664553	WORD	wordpools/wasnorm_wordpool_576.txt	LTP349	ltpFR2	8	4	CAFE	216	n/a	n/a	0	0	0
667285	WORD	wordpools/wasnorm_wordpool_576.txt	LTP349	ltpFR2	8	4	JAPAN	749	n/a	n/a	0	0	0
669800	WORD	wordpools/wasnorm_wordpool_576.txt	LTP349	ltpFR2	8	4	DAUGHTER	442	n/a	n/a	0	0	0
672582	WORD	wordpools/wasnorm_wordpool_576.txt	LTP349	ltpFR2	8	4	SISTER	1312	n/a	n/a	0	0	0
675197	WORD	wordpools/wasnorm_wordpool_576.txt	LTP349	ltpFR2	8	4	EXPERT	543	n/a	n/a	0	0	0
677946	WORD	wordpools/wasnorm_wordpool_576.txt	LTP349	ltpFR2	8	4	EYELASH	546	n/a	n/a	0	0	0
680678	WORD	wordpools/wasnorm_wordpool_576.txt	LTP349	ltpFR2	8	4	POSTAGE	1113	n/a	n/a	0	0	0
683294	WORD	wordpools/wasnorm_wordpool_576.txt	LTP349	ltpFR2	8	4	VENUS	1557	n/a	n/a	0	0	0
686059	WORD	wordpools/wasnorm_wordpool_576.txt	LTP349	ltpFR2	8	4	FRANCE	601	n/a	n/a	0	0	0
688558	WORD	wordpools/wasnorm_wordpool_576.txt	LTP349	ltpFR2	8	4	PEBBLE	1035	n/a	n/a	0	0	0
691205	WORD	wordpools/wasnorm_wordpool_576.txt	LTP349	ltpFR2	8	4	EMPIRE	530	n/a	n/a	0	0	0
693755	WORD	wordpools/wasnorm_wordpool_576.txt	LTP349	ltpFR2	8	4	BACON	67	n/a	n/a	0	0	0
696237	WORD	wordpools/wasnorm_wordpool_576.txt	LTP349	ltpFR2	8	4	EGYPT	519	n/a	n/a	0	0	0
698686	WORD	wordpools/wasnorm_wordpool_576.txt	LTP349	ltpFR2	8	4	PISTON	1076	n/a	n/a	0	0	0
701318	WORD	wordpools/wasnorm_wordpool_576.txt	LTP349	ltpFR2	8	4	MESSAGE	888	n/a	n/a	0	0	0
703983	WORD	wordpools/wasnorm_wordpool_576.txt	LTP349	ltpFR2	8	4	BADGE	68	n/a	n/a	0	0	0
706632	WORD	wordpools/wasnorm_wordpool_576.txt	LTP349	ltpFR2	8	4	BABY	64	n/a	n/a	0	0	0
709131	WORD	wordpools/wasnorm_wordpool_576.txt	LTP349	ltpFR2	8	4	CRIB	407	n/a	n/a	0	0	0
711780	WORD	wordpools/wasnorm_wordpool_576.txt	LTP349	ltpFR2	8	4	CANYON	235	n/a	n/a	0	0	0
714462	WORD	wordpools/wasnorm_wordpool_576.txt	LTP349	ltpFR2	8	4	PATROL	1027	n/a	n/a	0	0	0
716078	START	n/a	LTP349	ltpFR2	8	n/a	n/a	n/a	6	n/a	n/a	n/a	n/a
717145	DISTRACTOR	n/a	LTP349	ltpFR2	8	4	n/a	n/a	n/a	n/a	0	0	0
717160	PROB	n/a	LTP349	ltpFR2	8	n/a	n/a	n/a	6	19	5	8	7
720409	PROB	n/a	LTP349	ltpFR2	8	n/a	n/a	n/a	6	9	4	3	2
722358	PROB	n/a	LTP349	ltpFR2	8	n/a	n/a	n/a	6	8	5	1	2
723824	PROB	n/a	LTP349	ltpFR2	8	n/a	n/a	n/a	6	17	3	8	6
726889	PROB	n/a	LTP349	ltpFR2	8	n/a	n/a	n/a	6	18	4	8	6
728605	PROB	n/a	LTP349	ltpFR2	8	n/a	n/a	n/a	6	21	8	7	6
730970	PROB	n/a	LTP349	ltpFR2	8	n/a	n/a	n/a	6	24	9	8	7
734485	PROB	n/a	LTP349	ltpFR2	8	n/a	n/a	n/a	6	17	9	5	3
736534	PROB	n/a	LTP349	ltpFR2	8	n/a	n/a	n/a	6	19	7	7	5
738550	PROB	n/a	LTP349	ltpFR2	8	n/a	n/a	n/a	6	9	1	1	7
739708	STOP	n/a	LTP349	ltpFR2	8	n/a	n/a	n/a	6	n/a	n/a	n/a	n/a
741898	REC_START	n/a	LTP349	ltpFR2	8	4	n/a	n/a	n/a	n/a	0	0	0
745934	REC_WORD	wordpools/wasnorm_wordpool_576.txt	LTP349	ltpFR2	8	4	TUTU	1524	n/a	n/a	0	0	0
748412	REC_WORD	wordpools/wasnorm_wordpool_576.txt	LTP349	ltpFR2	8	4	TUBA	1515	n/a	n/a	0	0	0
759387	REC_WORD	wordpools/wasnorm_wordpool_576.txt	LTP349	ltpFR2	8	4	EYELASH	546	n/a	n/a	0	0	0
763042	REC_WORD	wordpools/wasnorm_wordpool_576.txt	LTP349	ltpFR2	8	4	EXPERT	543	n/a	n/a	0	0	0
832386	WORD	wordpools/wasnorm_wordpool_576.txt	LTP349	ltpFR2	8	5	GLOBE	641	n/a	n/a	0	0	0
834918	WORD	wordpools/wasnorm_wordpool_576.txt	LTP349	ltpFR2	8	5	COOK	372	n/a	n/a	0	0	0
837717	WORD	wordpools/wasnorm_wordpool_576.txt	LTP349	ltpFR2	8	5	SNACK	1331	n/a	n/a	0	0	0
840282	WORD	wordpools/wasnorm_wordpool_576.txt	LTP349	ltpFR2	8	5	PATIENT	1024	n/a	n/a	0	0	0
843081	WORD	wordpools/wasnorm_wordpool_576.txt	LTP349	ltpFR2	8	5	ATLAS	53	n/a	n/a	0	0	0
845663	WORD	wordpools/wasnorm_wordpool_576.txt	LTP349	ltpFR2	8	5	ICEBERG	731	n/a	n/a	0	0	0
848295	WORD	wordpools/wasnorm_wordpool_576.txt	LTP349	ltpFR2	8	5	CROWN	415	n/a	n/a	0	0	0
850944	WORD	wordpools/wasnorm_wordpool_576.txt	LTP349	ltpFR2	8	5	ONION	977	n/a	n/a	0	0	0
853409	WORD	wordpools/wasnorm_wordpool_576.txt	LTP349	ltpFR2	8	5	FINGER	567	n/a	n/a	0	0	0
856008	WORD	wordpools/wasnorm_wordpool_576.txt	LTP349	ltpFR2	8	5	HAND	683	n/a	n/a	0	0	0
858457	WORD	wordpools/wasnorm_wordpool_576.txt	LTP349	ltpFR2	8	5	MARS	873	n/a	n/a	0	0	0
860922	WORD	wordpools/wasnorm_wordpool_576.txt	LTP349	ltpFR2	8	5	VIRUS	1572	n/a	n/a	0	0	0
863737	WORD	wordpools/wasnorm_wordpool_576.txt	LTP349	ltpFR2	8	5	TABLET	1427	n/a	n/a	0	0	0
866469	WORD	wordpools/wasnorm_wordpool_576.txt	LTP349	ltpFR2	8	5	PORTRAIT	1111	n/a	n/a	0	0	0
869200	WORD	wordpools/wasnorm_wordpool_576.txt	LTP349	ltpFR2	8	5	SMOG	1330	n/a	n/a	0	0	0
871917	WORD	wordpools/wasnorm_wordpool_576.txt	LTP349	ltpFR2	8	5	TEMPLE	1448	n/a	n/a	0	0	0
874632	WORD	wordpools/wasnorm_wordpool_576.txt	LTP349	ltpFR2	8	5	PRINCESS	1125	n/a	n/a	0	0	0
877164	WORD	wordpools/wasnorm_wordpool_576.txt	LTP349	ltpFR2	8	5	SADDLE	1221	n/a	n/a	0	0	0
879763	WORD	wordpools/wasnorm_wordpool_576.txt	LTP349	ltpFR2	8	5	LIZARD	834	n/a	n/a	0	0	0
882278	WORD	wordpools/wasnorm_wordpool_576.txt	LTP349	ltpFR2	8	5	WHISKERS	1605	n/a	n/a	0	0	0
884794	WORD	wordpools/wasnorm_wordpool_576.txt	LTP349	ltpFR2	8	5	LONDON	843	n/a	n/a	0	0	0
887326	WORD	wordpools/wasnorm_wordpool_576.txt	LTP349	ltpFR2	8	5	WOMAN	1620	n/a	n/a	0	0	0
889841	WORD	wordpools/wasnorm_wordpool_576.txt	LTP349	ltpFR2	8	5	OZONE	996	n/a	n/a	0	0	0
892373	WORD	wordpools/wasnorm_wordpool_576.txt	LTP349	ltpFR2	8	5	SEAL	1262	n/a	n/a	0	0	0
893989	START	n/a	LTP349	ltpFR2	8	n/a	n/a	n/a	7	n/a	n/a	n/a	n/a
894803	DISTRACTOR	n/a	LTP349	ltpFR2	8	5	n/a	n/a	n/a	n/a	0	0	0
894805	PROB	n/a	LTP349	ltpFR2	8	n/a	n/a	n/a	7	9	5	3	1
896721	PROB	n/a	LTP349	ltpFR2	8	n/a	n/a	n/a	7	14	4	9	1
898237	PROB	n/a	LTP349	ltpFR2	8	n/a	n/a	n/a	7	18	6	5	7
899820	PROB	n/a	LTP349	ltpFR2	8	n/a	n/a	n/a	7	17	3	7	7
902285	PROB	n/a	LTP349	ltpFR2	8	n/a	n/a	n/a	7	19	8	9	2
904251	PROB	n/a	LTP349	ltpFR2	8	n/a	n/a	n/a	7	15	5	6	4
905750	PROB	n/a	LTP349	ltpFR2	8	n/a	n/a	n/a	7	15	5	4	6
907516	PROB	n/a	LTP349	ltpFR2	8	n/a	n/a	n/a	7	23	6	9	8
911764	PROB	n/a	LTP349	ltpFR2	8	n/a	n/a	n/a	7	10	2	7	1
913546	PROB	n/a	LTP349	ltpFR2	8	n/a	n/a	n/a	7	9	5	1	3
915645	PROB	n/a	LTP349	ltpFR2	8	n/a	n/a	n/a	7	15	4	7	4
917468	STOP	n/a	LTP349	ltpFR2	8	n/a	n/a	n/a	7	n/a	n/a	n/a	n/a
919860	REC_START	n/a	LTP349	ltpFR2	8	5	n/a	n/a	n/a	n/a	0	0	0
922166	REC_WORD	wordpools/wasnorm_wordpool_576.txt	LTP349	ltpFR2	8	5	GLOBE	641	n/a	n/a	0	0	0
923366	REC_WORD	wordpools/wasnorm_wordpool_576.txt	LTP349	ltpFR2	8	5	COOK	372	n/a	n/a	0	0	0
924204	REC_WORD	wordpools/wasnorm_wordpool_576.txt	LTP349	ltpFR2	8	5	SNACK	1331	n/a	n/a	0	0	0
925504	REC_WORD	wordpools/wasnorm_wordpool_576.txt	LTP349	ltpFR2	8	5	CROWN	415	n/a	n/a	0	0	0
926569	REC_WORD	wordpools/wasnorm_wordpool_576.txt	LTP349	ltpFR2	8	5	ICEBERG	731	n/a	n/a	0	0	0
932416	REC_WORD	wordpools/wasnorm_wordpool_576.txt	LTP349	ltpFR2	8	5	SADDLE	1221	n/a	n/a	0	0	0
933660	REC_WORD	wordpools/wasnorm_wordpool_576.txt	LTP349	ltpFR2	8	5	PRINCESS	1125	n/a	n/a	0	0	0
939449	REC_WORD	wordpools/wasnorm_wordpool_576.txt	LTP349	ltpFR2	8	5	ONION	977	n/a	n/a	0	0	0
1010298	DISTRACTOR	n/a	LTP349	ltpFR2	8	6	n/a	n/a	n/a	n/a	0	0	0
1010298	START	n/a	LTP349	ltpFR2	8	n/a	n/a	n/a	8	n/a	n/a	n/a	n/a
1010315	PROB	n/a	LTP349	ltpFR2	8	n/a	n/a	n/a	8	17	5	8	4
1012547	PROB	n/a	LTP349	ltpFR2	8	n/a	n/a	n/a	8	7	1	1	5
1013880	PROB	n/a	LTP349	ltpFR2	8	n/a	n/a	n/a	8	18	5	8	5
1015179	PROB	n/a	LTP349	ltpFR2	8	n/a	n/a	n/a	8	26	8	9	9
1018344	PROB	n/a	LTP349	ltpFR2	8	n/a	n/a	n/a	8	19	5	8	6
1020976	PROB	n/a	LTP349	ltpFR2	8	n/a	n/a	n/a	8	24	8	8	8
1022692	PROB	n/a	LTP349	ltpFR2	8	n/a	n/a	n/a	8	18	7	7	4
1024274	PROB	n/a	LTP349	ltpFR2	8	n/a	n/a	n/a	8	15	3	4	8
1026090	PROB	n/a	LTP349	ltpFR2	8	n/a	n/a	n/a	8	4	1	1	2
1027689	PROB	n/a	LTP349	ltpFR2	8	n/a	n/a	n/a	8	16	8	1	7
1029339	PROB	n/a	LTP349	ltpFR2	8	n/a	n/a	n/a	8	12	3	6	3
1031354	PROB	n/a	LTP349	ltpFR2	8	n/a	n/a	n/a	8	14	9	1	4
1032604	PROB	n/a	LTP349	ltpFR2	8	n/a	n/a	n/a	8	18	2	9	7
1034276	STOP	n/a	LTP349	ltpFR2	8	n/a	n/a	n/a	8	n/a	n/a	n/a	n/a
1035218	WORD	wordpools/wasnorm_wordpool_576.txt	LTP349	ltpFR2	8	6	COD	340	n/a	n/a	0	0	0
1038001	WORD	wordpools/wasnorm_wordpool_576.txt	LTP349	ltpFR2	8	6	WASP	1593	n/a	n/a	0	0	0
1040700	WORD	wordpools/wasnorm_wordpool_576.txt	LTP349	ltpFR2	8	6	CHAPEL	280	n/a	n/a	0	0	0
1043398	WORD	wordpools/wasnorm_wordpool_576.txt	LTP349	ltpFR2	8	6	DRINK	498	n/a	n/a	0	0	0
1046180	WORD	wordpools/wasnorm_wordpool_576.txt	LTP349	ltpFR2	8	6	WAITER	1580	n/a	n/a	0	0	0
1048879	WORD	wordpools/wasnorm_wordpool_576.txt	LTP349	ltpFR2	8	6	PASTRY	1022	n/a	n/a	0	0	0
1051411	WORD	wordpools/wasnorm_wordpool_576.txt	LTP349	ltpFR2	8	6	SCALLOP	1242	n/a	n/a	0	0	0
1054093	WORD	wordpools/wasnorm_wordpool_576.txt	LTP349	ltpFR2	8	6	ROBOT	1200	n/a	n/a	0	0	0
1056708	WORD	wordpools/wasnorm_wordpool_576.txt	LTP349	ltpFR2	8	6	PUPIL	1143	n/a	n/a	0	0	0
1059140	WORD	wordpools/wasnorm_wordpool_576.txt	LTP349	ltpFR2	8	6	ORANGE	980	n/a	n/a	0	0	0
1061856	WORD	wordpools/wasnorm_wordpool_576.txt	LTP349	ltpFR2	8	6	PARTNER	1017	n/a	n/a	0	0	0
1064371	WORD	wordpools/wasnorm_wordpool_576.txt	LTP349	ltpFR2	8	6	BOYFRIEND	162	n/a	n/a	0	0	0
1066953	WORD	wordpools/wasnorm_wordpool_576.txt	LTP349	ltpFR2	8	6	SCRIBBLE	1256	n/a	n/a	0	0	0
1069469	WORD	wordpools/wasnorm_wordpool_576.txt	LTP349	ltpFR2	8	6	KITCHEN	778	n/a	n/a	0	0	0
1072134	WORD	wordpools/wasnorm_wordpool_576.txt	LTP349	ltpFR2	8	6	FLIPPER	580	n/a	n/a	0	0	0
1074566	WORD	wordpools/wasnorm_wordpool_576.txt	LTP349	ltpFR2	8	6	BULLET	194	n/a	n/a	0	0	0
1077131	WORD	wordpools/wasnorm_wordpool_576.txt	LTP349	ltpFR2	8	6	PISTOL	1075	n/a	n/a	0	0	0
1079863	WORD	wordpools/wasnorm_wordpool_576.txt	LTP349	ltpFR2	8	6	HARP	689	n/a	n/a	0	0	0
1082396	WORD	wordpools/wasnorm_wordpool_576.txt	LTP349	ltpFR2	8	6	GRAPE	654	n/a	n/a	0	0	0
1085028	WORD	wordpools/wasnorm_wordpool_576.txt	LTP349	ltpFR2	8	6	STAR	1373	n/a	n/a	0	0	0
1087493	WORD	wordpools/wasnorm_wordpool_576.txt	LTP349	ltpFR2	8	6	LADY	794	n/a	n/a	0	0	0
1089975	WORD	wordpools/wasnorm_wordpool_576.txt	LTP349	ltpFR2	8	6	IDOL	733	n/a	n/a	0	0	0
1092757	WORD	wordpools/wasnorm_wordpool_576.txt	LTP349	ltpFR2	8	6	APPLE	33	n/a	n/a	0	0	0
1095372	WORD	wordpools/wasnorm_wordpool_576.txt	LTP349	ltpFR2	8	6	GRIZZLY	662	n/a	n/a	0	0	0
1096989	START	n/a	LTP349	ltpFR2	8	n/a	n/a	n/a	9	n/a	n/a	n/a	n/a
1098166	DISTRACTOR	n/a	LTP349	ltpFR2	8	6	n/a	n/a	n/a	n/a	0	0	0
1098171	PROB	n/a	LTP349	ltpFR2	8	n/a	n/a	n/a	9	9	2	5	2
1099737	PROB	n/a	LTP349	ltpFR2	8	n/a	n/a	n/a	9	12	3	1	8
1101703	PROB	n/a	LTP349	ltpFR2	8	n/a	n/a	n/a	9	9	4	2	3
1103718	PROB	n/a	LTP349	ltpFR2	8	n/a	n/a	n/a	9	12	1	4	7
1107100	PROB	n/a	LTP349	ltpFR2	8	n/a	n/a	n/a	9	14	9	4	1
1110165	PROB	n/a	LTP349	ltpFR2	8	n/a	n/a	n/a	9	17	7	6	4
1114195	PROB	n/a	LTP349	ltpFR2	8	n/a	n/a	n/a	9	12	8	2	2
1116029	PROB	n/a	LTP349	ltpFR2	8	n/a	n/a	n/a	9	11	3	1	7
1120988	STOP	n/a	LTP349	ltpFR2	8	n/a	n/a	n/a	9	n/a	n/a	n/a	n/a
1122809	REC_START	n/a	LTP349	ltpFR2	8	6	n/a	n/a	n/a	n/a	0	0	0
1124550	REC_WORD	wordpools/wasnorm_wordpool_576.txt	LTP349	ltpFR2	8	6	GRIZZLY	662	n/a	n/a	0	0	0
1125827	REC_WORD	wordpools/wasnorm_wordpool_576.txt	LTP349	ltpFR2	8	6	APPLE	33	n/a	n/a	0	0	0
1137534	REC_WORD	wordpools/wasnorm_wordpool_576.txt	LTP349	ltpFR2	8	6	PISTOL	1075	n/a	n/a	0	0	0
1139076	REC_WORD	wordpools/wasnorm_wordpool_576.txt	LTP349	ltpFR2	8	6	GUN	673	n/a	n/a	0	0	0
1140618	REC_WORD_VV	wordpools/wasnorm_wordpool_576.txt	LTP349	ltpFR2	8	6	<>	-1	n/a	n/a	0	0	0
1141261	REC_WORD	wordpools/wasnorm_wordpool_576.txt	LTP349	ltpFR2	8	6	BULLET	194	n/a	n/a	0	0	0
1142608	REC_WORD	wordpools/wasnorm_wordpool_576.txt	LTP349	ltpFR2	8	6	GRAPE	654	n/a	n/a	0	0	0
1143740	REC_WORD	wordpools/wasnorm_wordpool_576.txt	LTP349	ltpFR2	8	6	HARP	689	n/a	n/a	0	0	0
1145708	REC_WORD	wordpools/wasnorm_wordpool_576.txt	LTP349	ltpFR2	8	6	BOYFRIEND	162	n/a	n/a	0	0	0
1147077	REC_WORD	wordpools/wasnorm_wordpool_576.txt	LTP349	ltpFR2	8	6	PARTNER	1017	n/a	n/a	0	0	0
1149189	REC_WORD	wordpools/wasnorm_wordpool_576.txt	LTP349	ltpFR2	8	6	COD	340	n/a	n/a	0	0	0
1187945	REC_WORD	wordpools/wasnorm_wordpool_576.txt	LTP349	ltpFR2	8	6	KITCHEN	778	n/a	n/a	0	0	0
1213281	WORD	wordpools/wasnorm_wordpool_576.txt	LTP349	ltpFR2	8	7	PEANUT	1032	n/a	n/a	0	0	0
1215729	WORD	wordpools/wasnorm_wordpool_576.txt	LTP349	ltpFR2	8	7	LABEL	790	n/a	n/a	0	0	0
1218428	WORD	wordpools/wasnorm_wordpool_576.txt	LTP349	ltpFR2	8	7	PLUTO	1092	n/a	n/a	0	0	0
1221243	WORD	wordpools/wasnorm_wordpool_576.txt	LTP349	ltpFR2	8	7	LEADER	807	n/a	n/a	0	0	0
1223992	WORD	wordpools/wasnorm_wordpool_576.txt	LTP349	ltpFR2	8	7	SUNRISE	1407	n/a	n/a	0	0	0
1226557	WORD	wordpools/wasnorm_wordpool_576.txt	LTP349	ltpFR2	8	7	BACKBONE	66	n/a	n/a	0	0	0
1229273	WORD	wordpools/wasnorm_wordpool_576.txt	LTP349	ltpFR2	8	7	HERO	706	n/a	n/a	0	0	0
1231988	WORD	wordpools/wasnorm_wordpool_576.txt	LTP349	ltpFR2	8	7	DRESS	495	n/a	n/a	0	0	0
1234503	WORD	wordpools/wasnorm_wordpool_576.txt	LTP349	ltpFR2	8	7	CLIMBER	323	n/a	n/a	0	0	0
1237252	WORD	wordpools/wasnorm_wordpool_576.txt	LTP349	ltpFR2	8	7	SIDEWALK	1303	n/a	n/a	0	0	0
1239801	WORD	wordpools/wasnorm_wordpool_576.txt	LTP349	ltpFR2	8	7	UMPIRE	1535	n/a	n/a	0	0	0
1242483	WORD	wordpools/wasnorm_wordpool_576.txt	LTP349	ltpFR2	8	7	DENTIST	447	n/a	n/a	0	0	0
1244965	WORD	wordpools/wasnorm_wordpool_576.txt	LTP349	ltpFR2	8	7	BRACES	164	n/a	n/a	0	0	0
1247464	WORD	wordpools/wasnorm_wordpool_576.txt	LTP349	ltpFR2	8	7	AIRPLANE	12	n/a	n/a	0	0	0
1249929	WORD	wordpools/wasnorm_wordpool_576.txt	LTP349	ltpFR2	8	7	TWISTER	1530	n/a	n/a	0	0	0
1252711	WORD	wordpools/wasnorm_wordpool_576.txt	LTP349	ltpFR2	8	7	TILE	1468	n/a	n/a	0	0	0
1255476	WORD	wordpools/wasnorm_wordpool_576.txt	LTP349	ltpFR2	8	7	HEART	697	n/a	n/a	0	0	0
1257975	WORD	wordpools/wasnorm_wordpool_576.txt	LTP349	ltpFR2	8	7	WORKER	1621	n/a	n/a	0	0	0
1260607	WORD	wordpools/wasnorm_wordpool_576.txt	LTP349	ltpFR2	8	7	HIGHWAY	707	n/a	n/a	0	0	0
1263072	WORD	wordpools/wasnorm_wordpool_576.txt	LTP349	ltpFR2	8	7	MEDAL	885	n/a	n/a	0	0	0
1265538	WORD	wordpools/wasnorm_wordpool_576.txt	LTP349	ltpFR2	8	7	DRAGON	492	n/a	n/a	0	0	0
1268336	WORD	wordpools/wasnorm_wordpool_576.txt	LTP349	ltpFR2	8	7	FOOTBALL	591	n/a	n/a	0	0	0
1270969	WORD	wordpools/wasnorm_wordpool_576.txt	LTP349	ltpFR2	8	7	TROUT	1511	n/a	n/a	0	0	0
1273767	WORD	wordpools/wasnorm_wordpool_576.txt	LTP349	ltpFR2	8	7	CRAB	397	n/a	n/a	0	0	0
1275383	START	n/a	LTP349	ltpFR2	8	n/a	n/a	n/a	10	n/a	n/a	n/a	n/a
1276451	DISTRACTOR	n/a	LTP349	ltpFR2	8	7	n/a	n/a	n/a	n/a	0	0	0
1276466	PROB	n/a	LTP349	ltpFR2	8	n/a	n/a	n/a	10	15	6	3	6
1278698	PROB	n/a	LTP349	ltpFR2	8	n/a	n/a	n/a	10	15	4	3	8
1280747	PROB	n/a	LTP349	ltpFR2	8	n/a	n/a	n/a	10	14	3	4	7
1282446	PROB	n/a	LTP349	ltpFR2	8	n/a	n/a	n/a	10	14	5	7	2
1284129	PROB	n/a	LTP349	ltpFR2	8	n/a	n/a	n/a	10	19	8	9	2
1286094	PROB	n/a	LTP349	ltpFR2	8	n/a	n/a	n/a	10	21	8	4	9
1288560	PROB	n/a	LTP349	ltpFR2	8	n/a	n/a	n/a	10	11	1	4	6
1290208	PROB	n/a	LTP349	ltpFR2	8	n/a	n/a	n/a	10	22	8	5	9
1293974	PROB	n/a	LTP349	ltpFR2	8	n/a	n/a	n/a	10	8	1	6	1
1295323	PROB	n/a	LTP349	ltpFR2	8	n/a	n/a	n/a	10	16	1	9	6
1296956	PROB	n/a	LTP349	ltpFR2	8	n/a	n/a	n/a	10	19	9	5	5
1298348	STOP	n/a	LTP349	ltpFR2	8	n/a	n/a	n/a	10	n/a	n/a	n/a	n/a
1301237	REC_START	n/a	LTP349	ltpFR2	8	7	n/a	n/a	n/a	n/a	0	0	0
1306870	REC_WORD	wordpools/wasnorm_wordpool_576.txt	LTP349	ltpFR2	8	7	DRAGON	492	n/a	n/a	0	0	0
1312151	REC_WORD	wordpools/wasnorm_wordpool_576.txt	LTP349	ltpFR2	8	7	HERO	706	n/a	n/a	0	0	0
1317351	REC_WORD	wordpools/wasnorm_wordpool_576.txt	LTP349	ltpFR2	8	7	DRESS	495	n/a	n/a	0	0	0
1320248	REC_WORD	wordpools/wasnorm_wordpool_576.txt	LTP349	ltpFR2	8	7	CLIMBER	323	n/a	n/a	0	0	0
1322967	REC_WORD	wordpools/wasnorm_wordpool_576.txt	LTP349	ltpFR2	8	7	AIRPLANE	12	n/a	n/a	0	0	0
1324816	REC_WORD	wordpools/wasnorm_wordpool_576.txt	LTP349	ltpFR2	8	7	TWISTER	1530	n/a	n/a	0	0	0
1326598	REC_WORD	wordpools/wasnorm_wordpool_576.txt	LTP349	ltpFR2	8	7	DENTIST	447	n/a	n/a	0	0	0
1328094	REC_WORD	wordpools/wasnorm_wordpool_576.txt	LTP349	ltpFR2	8	7	BRACES	164	n/a	n/a	0	0	0
1329339	REC_WORD	wordpools/wasnorm_wordpool_576.txt	LTP349	ltpFR2	8	7	SIDEWALK	1303	n/a	n/a	0	0	0
1330891	REC_WORD	wordpools/wasnorm_wordpool_576.txt	LTP349	ltpFR2	8	7	UMPIRE	1535	n/a	n/a	0	0	0
1337160	REC_WORD	wordpools/wasnorm_wordpool_576.txt	LTP349	ltpFR2	8	7	PEANUT	1032	n/a	n/a	0	0	0
1338827	REC_WORD	wordpools/wasnorm_wordpool_576.txt	LTP349	ltpFR2	8	7	LABEL	790	n/a	n/a	0	0	0
1358524	REC_WORD	wordpools/wasnorm_wordpool_576.txt	LTP349	ltpFR2	8	7	TROUT	1511	n/a	n/a	0	0	0
1391675	DISTRACTOR	n/a	LTP349	ltpFR2	8	8	n/a	n/a	n/a	n/a	0	0	0
1391676	START	n/a	LTP349	ltpFR2	8	n/a	n/a	n/a	11	n/a	n/a	n/a	n/a
1391692	PROB	n/a	LTP349	ltpFR2	8	n/a	n/a	n/a	11	7	1	5	1
1393158	PROB	n/a	LTP349	ltpFR2	8	n/a	n/a	n/a	11	20	7	8	5
1396140	PROB	n/a	LTP349	ltpFR2	8	n/a	n/a	n/a	11	17	3	9	5
1397956	PROB	n/a	LTP349	ltpFR2	8	n/a	n/a	n/a	11	19	2	9	8
1399555	PROB	n/a	LTP349	ltpFR2	8	n/a	n/a	n/a	11	19	7	9	3
1401520	PROB	n/a	LTP349	ltpFR2	8	n/a	n/a	n/a	11	16	1	7	8
1403136	PROB	n/a	LTP349	ltpFR2	8	n/a	n/a	n/a	11	19	6	4	9
1404719	PROB	n/a	LTP349	ltpFR2	8	n/a	n/a	n/a	11	17	1	9	7
1406018	PROB	n/a	LTP349	ltpFR2	8	n/a	n/a	n/a	11	15	5	7	3
1408767	PROB	n/a	LTP349	ltpFR2	8	n/a	n/a	n/a	11	11	3	3	5
1410732	PROB	n/a	LTP349	ltpFR2	8	n/a	n/a	n/a	11	15	5	8	2
1415676	STOP	n/a	LTP349	ltpFR2	8	n/a	n/a	n/a	11	n/a	n/a	n/a	n/a
1416680	WORD	wordpools/wasnorm_wordpool_576.txt	LTP349	ltpFR2	8	8	OMELET	976	n/a	n/a	0	0	0
1419395	WORD	wordpools/wasnorm_wordpool_576.txt	LTP349	ltpFR2	8	8	BEAKER	104	n/a	n/a	0	0	0
1422043	WORD	wordpools/wasnorm_wordpool_576.txt	LTP349	ltpFR2	8	8	FIREMAN	569	n/a	n/a	0	0	0
1424626	WORD	wordpools/wasnorm_wordpool_576.txt	LTP349	ltpFR2	8	8	RABBIT	1152	n/a	n/a	0	0	0
1427190	WORD	wordpools/wasnorm_wordpool_576.txt	LTP349	ltpFR2	8	8	TORTOISE	1486	n/a	n/a	0	0	0
1429756	WORD	wordpools/wasnorm_wordpool_576.txt	LTP349	ltpFR2	8	8	MATTRESS	879	n/a	n/a	0	0	0
1432272	WORD	wordpools/wasnorm_wordpool_576.txt	LTP349	ltpFR2	8	8	CONTRACT	368	n/a	n/a	0	0	0
1434888	WORD	wordpools/wasnorm_wordpool_576.txt	LTP349	ltpFR2	8	8	BISON	131	n/a	n/a	0	0	0
1437336	WORD	wordpools/wasnorm_wordpool_576.txt	LTP349	ltpFR2	8	8	STAKE	1368	n/a	n/a	0	0	0
1440018	WORD	wordpools/wasnorm_wordpool_576.txt	LTP349	ltpFR2	8	8	JEANS	752	n/a	n/a	0	0	0
1442733	WORD	wordpools/wasnorm_wordpool_576.txt	LTP349	ltpFR2	8	8	SHIRT	1287	n/a	n/a	0	0	0
1445249	WORD	wordpools/wasnorm_wordpool_576.txt	LTP349	ltpFR2	8	8	AWARD	63	n/a	n/a	0	0	0
1447864	WORD	wordpools/wasnorm_wordpool_576.txt	LTP349	ltpFR2	8	8	XEROX	1628	n/a	n/a	0	0	0
1450679	WORD	wordpools/wasnorm_wordpool_576.txt	LTP349	ltpFR2	8	8	FOX	598	n/a	n/a	0	0	0
1453345	WORD	wordpools/wasnorm_wordpool_576.txt	LTP349	ltpFR2	8	8	RECORD	1176	n/a	n/a	0	0	0
1455877	WORD	wordpools/wasnorm_wordpool_576.txt	LTP349	ltpFR2	8	8	FLUTE	585	n/a	n/a	0	0	0
1458492	WORD	wordpools/wasnorm_wordpool_576.txt	LTP349	ltpFR2	8	8	CHEMIST	292	n/a	n/a	0	0	0
1461174	WORD	wordpools/wasnorm_wordpool_576.txt	LTP349	ltpFR2	8	8	PROTON	1132	n/a	n/a	0	0	0
1463756	WORD	wordpools/wasnorm_wordpool_576.txt	LTP349	ltpFR2	8	8	SLOPE	1328	n/a	n/a	0	0	0
1466405	WORD	wordpools/wasnorm_wordpool_576.txt	LTP349	ltpFR2	8	8	AUTHOR	61	n/a	n/a	0	0	0
1469186	WORD	wordpools/wasnorm_wordpool_576.txt	LTP349	ltpFR2	8	8	POSSUM	1112	n/a	n/a	0	0	0
1471719	WORD	wordpools/wasnorm_wordpool_576.txt	LTP349	ltpFR2	8	8	VALLEY	1545	n/a	n/a	0	0	0
1474183	WORD	wordpools/wasnorm_wordpool_576.txt	LTP349	ltpFR2	8	8	HIKER	708	n/a	n/a	0	0	0
1476800	WORD	wordpools/wasnorm_wordpool_576.txt	LTP349	ltpFR2	8	8	PASTA	1021	n/a	n/a	0	0	0
1478416	START	n/a	LTP349	ltpFR2	8	n/a	n/a	n/a	12	n/a	n/a	n/a	n/a
1479488	DISTRACTOR	n/a	LTP349	ltpFR2	8	8	n/a	n/a	n/a	n/a	0	0	0
1479498	PROB	n/a	LTP349	ltpFR2	8	n/a	n/a	n/a	12	11	5	2	4
1481481	PROB	n/a	LTP349	ltpFR2	8	n/a	n/a	n/a	12	24	9	8	7
1484229	PROB	n/a	LTP349	ltpFR2	8	n/a	n/a	n/a	12	16	6	5	5
1485879	PROB	n/a	LTP349	ltpFR2	8	n/a	n/a	n/a	12	11	5	5	1
1487511	PROB	n/a	LTP349	ltpFR2	8	n/a	n/a	n/a	12	22	8	5	9
1490126	PROB	n/a	LTP349	ltpFR2	8	n/a	n/a	n/a	12	8	1	4	3
1492159	PROB	n/a	LTP349	ltpFR2	8	n/a	n/a	n/a	12	20	8	9	3
1494774	PROB	n/a	LTP349	ltpFR2	8	n/a	n/a	n/a	12	19	6	8	5
1498272	PROB	n/a	LTP349	ltpFR2	8	n/a	n/a	n/a	12	6	2	2	2
1502404	STOP	n/a	LTP349	ltpFR2	8	n/a	n/a	n/a	12	n/a	n/a	n/a	n/a
1504219	REC_START	n/a	LTP349	ltpFR2	8	8	n/a	n/a	n/a	n/a	0	0	0
1509320	REC_WORD	wordpools/wasnorm_wordpool_576.txt	LTP349	ltpFR2	8	8	OMELET	976	n/a	n/a	0	0	0
1510939	REC_WORD	wordpools/wasnorm_wordpool_576.txt	LTP349	ltpFR2	8	8	BEAKER	104	n/a	n/a	0	0	0
1580765	REST_REWET	n/a	LTP349	ltpFR2	8	8	n/a	n/a	n/a	n/a	0	0	0
1748881	WORD	wordpools/wasnorm_wordpool_576.txt	LTP349	ltpFR2	8	9	PIANO	1057	n/a	n/a	0	0	0
1751463	WORD	wordpools/wasnorm_wordpool_576.txt	LTP349	ltpFR2	8	9	LODGE	839	n/a	n/a	0	0	0
1753895	WORD	wordpools/wasnorm_wordpool_576.txt	LTP349	ltpFR2	8	9	BRIEFCASE	175	n/a	n/a	0	0	0
1756494	WORD	wordpools/wasnorm_wordpool_576.txt	LTP349	ltpFR2	8	9	BUNNY	198	n/a	n/a	0	0	0
1759243	WORD	wordpools/wasnorm_wordpool_576.txt	LTP349	ltpFR2	8	9	PIMPLE	1071	n/a	n/a	0	0	0
1761908	WORD	wordpools/wasnorm_wordpool_576.txt	LTP349	ltpFR2	8	9	PAPER	1011	n/a	n/a	0	0	0
1764424	WORD	wordpools/wasnorm_wordpool_576.txt	LTP349	ltpFR2	8	9	UNCLE	1536	n/a	n/a	0	0	0
1767006	WORD	wordpools/wasnorm_wordpool_576.txt	LTP349	ltpFR2	8	9	DOLPHIN	483	n/a	n/a	0	0	0
1769571	WORD	wordpools/wasnorm_wordpool_576.txt	LTP349	ltpFR2	8	9	BEAST	108	n/a	n/a	0	0	0
1772136	WORD	wordpools/wasnorm_wordpool_576.txt	LTP349	ltpFR2	8	9	OUTDOORS	987	n/a	n/a	0	0	0
1774935	WORD	wordpools/wasnorm_wordpool_576.txt	LTP349	ltpFR2	8	9	WITNESS	1618	n/a	n/a	0	0	0
1777534	WORD	wordpools/wasnorm_wordpool_576.txt	LTP349	ltpFR2	8	9	LEOPARD	812	n/a	n/a	0	0	0
1780198	WORD	wordpools/wasnorm_wordpool_576.txt	LTP349	ltpFR2	8	9	PANTHER	1009	n/a	n/a	0	0	0
1782931	WORD	wordpools/wasnorm_wordpool_576.txt	LTP349	ltpFR2	8	9	SPIDER	1351	n/a	n/a	0	0	0
1785696	WORD	wordpools/wasnorm_wordpool_576.txt	LTP349	ltpFR2	8	9	STOVE	1388	n/a	n/a	0	0	0
1788312	WORD	wordpools/wasnorm_wordpool_576.txt	LTP349	ltpFR2	8	9	PLATE	1086	n/a	n/a	0	0	0
1791010	WORD	wordpools/wasnorm_wordpool_576.txt	LTP349	ltpFR2	8	9	HUMAN	726	n/a	n/a	0	0	0
1793609	WORD	wordpools/wasnorm_wordpool_576.txt	LTP349	ltpFR2	8	9	PENGUIN	1044	n/a	n/a	0	0	0
1796190	WORD	wordpools/wasnorm_wordpool_576.txt	LTP349	ltpFR2	8	9	JUDGE	761	n/a	n/a	0	0	0
1798790	WORD	wordpools/wasnorm_wordpool_576.txt	LTP349	ltpFR2	8	9	GLOVE	642	n/a	n/a	0	0	0
1801555	WORD	wordpools/wasnorm_wordpool_576.txt	LTP349	ltpFR2	8	9	KIDNEY	776	n/a	n/a	0	0	0
1804203	WORD	wordpools/wasnorm_wordpool_576.txt	LTP349	ltpFR2	8	9	FOREST	593	n/a	n/a	0	0	0
1806769	WORD	wordpools/wasnorm_wordpool_576.txt	LTP349	ltpFR2	8	9	TOASTER	1472	n/a	n/a	0	0	0
1809285	WORD	wordpools/wasnorm_wordpool_576.txt	LTP349	ltpFR2	8	9	APRON	35	n/a	n/a	0	0	0
1810901	START	n/a	LTP349	ltpFR2	8	n/a	n/a	n/a	13	n/a	n/a	n/a	n/a
1811700	DISTRACTOR	n/a	LTP349	ltpFR2	8	9	n/a	n/a	n/a	n/a	0	0	0
1811717	PROB	n/a	LTP349	ltpFR2	8	n/a	n/a	n/a	13	22	5	8	9
1816081	PROB	n/a	LTP349	ltpFR2	8	n/a	n/a	n/a	13	11	2	4	5
1819613	PROB	n/a	LTP349	ltpFR2	8	n/a	n/a	n/a	13	15	4	5	6
1821279	PROB	n/a	LTP349	ltpFR2	8	n/a	n/a	n/a	13	19	9	1	9
1824077	PROB	n/a	LTP349	ltpFR2	8	n/a	n/a	n/a	13	10	1	8	1
1825826	PROB	n/a	LTP349	ltpFR2	8	n/a	n/a	n/a	13	11	6	4	1
1827576	PROB	n/a	LTP349	ltpFR2	8	n/a	n/a	n/a	13	20	3	9	8
1829774	PROB	n/a	LTP349	ltpFR2	8	n/a	n/a	n/a	13	16	8	6	2
1831890	PROB	n/a	LTP349	ltpFR2	8	n/a	n/a	n/a	13	5	1	2	2
1833644	STOP	n/a	LTP349	ltpFR2	8	n/a	n/a	n/a	13	n/a	n/a	n/a	n/a
1836821	REC_START	n/a	LTP349	ltpFR2	8	9	n/a	n/a	n/a	n/a	0	0	0
1838580	REC_WORD	wordpools/wasnorm_wordpool_576.txt	LTP349	ltpFR2	8	9	TOASTER	1472	n/a	n/a	0	0	0
1839606	REC_WORD	wordpools/wasnorm_wordpool_576.txt	LTP349	ltpFR2	8	9	FOREST	593	n/a	n/a	0	0	0
1841047	REC_WORD	wordpools/wasnorm_wordpool_576.txt	LTP349	ltpFR2	8	9	DOLPHIN	483	n/a	n/a	0	0	0
1842180	REC_WORD	wordpools/wasnorm_wordpool_576.txt	LTP349	ltpFR2	8	9	BEAST	108	n/a	n/a	0	0	0
1844015	REC_WORD	wordpools/wasnorm_wordpool_576.txt	LTP349	ltpFR2	8	9	LEOPARD	812	n/a	n/a	0	0	0
1845873	REC_WORD	wordpools/wasnorm_wordpool_576.txt	LTP349	ltpFR2	8	9	TIGER	1467	n/a	n/a	0	0	0
1846668	REC_WORD	wordpools/wasnorm_wordpool_576.txt	LTP349	ltpFR2	8	9	LION	827	n/a	n/a	0	0	0
1851863	REC_WORD	wordpools/wasnorm_wordpool_576.txt	LTP349	ltpFR2	8	9	PIANO	1057	n/a	n/a	0	0	0
1853396	REC_WORD	wordpools/wasnorm_wordpool_576.txt	LTP349	ltpFR2	8	9	LODGE	839	n/a	n/a	0	0	0
1855077	REC_WORD_VV	wordpools/wasnorm_wordpool_576.txt	LTP349	ltpFR2	8	9	<>	-1	n/a	n/a	0	0	0
1855627	REC_WORD	wordpools/wasnorm_wordpool_576.txt	LTP349	ltpFR2	8	9	JUDGE	761	n/a	n/a	0	0	0
1857053	REC_WORD	wordpools/wasnorm_wordpool_576.txt	LTP349	ltpFR2	8	9	BRIEFCASE	175	n/a	n/a	0	0	0
1861386	REC_WORD	wordpools/wasnorm_wordpool_576.txt	LTP349	ltpFR2	8	9	BUNNY	198	n/a	n/a	0	0	0
1864928	REC_WORD	wordpools/wasnorm_wordpool_576.txt	LTP349	ltpFR2	8	9	UNCLE	1536	n/a	n/a	0	0	0
1881901	REC_WORD	wordpools/wasnorm_wordpool_576.txt	LTP349	ltpFR2	8	9	GLOVE	642	n/a	n/a	0	0	0
1927259	DISTRACTOR	n/a	LTP349	ltpFR2	8	10	n/a	n/a	n/a	n/a	0	0	0
1927260	START	n/a	LTP349	ltpFR2	8	n/a	n/a	n/a	14	n/a	n/a	n/a	n/a
1927276	PROB	n/a	LTP349	ltpFR2	8	n/a	n/a	n/a	14	14	8	5	1
1930224	PROB	n/a	LTP349	ltpFR2	8	n/a	n/a	n/a	14	19	8	7	4
1933889	PROB	n/a	LTP349	ltpFR2	8	n/a	n/a	n/a	14	9	7	1	1
1935139	PROB	n/a	LTP349	ltpFR2	8	n/a	n/a	n/a	14	13	5	4	4
1937203	PROB	n/a	LTP349	ltpFR2	8	n/a	n/a	n/a	14	12	9	2	1
1939320	PROB	n/a	LTP349	ltpFR2	8	n/a	n/a	n/a	14	11	8	2	1
1940653	PROB	n/a	LTP349	ltpFR2	8	n/a	n/a	n/a	14	16	1	6	9
1942319	PROB	n/a	LTP349	ltpFR2	8	n/a	n/a	n/a	14	18	8	6	4
1943951	PROB	n/a	LTP349	ltpFR2	8	n/a	n/a	n/a	14	20	6	8	6
1945700	PROB	n/a	LTP349	ltpFR2	8	n/a	n/a	n/a	14	15	4	4	7
1948099	PROB	n/a	LTP349	ltpFR2	8	n/a	n/a	n/a	14	17	8	7	2
1950644	STOP	n/a	LTP349	ltpFR2	8	n/a	n/a	n/a	14	n/a	n/a	n/a	n/a
1952297	WORD	wordpools/wasnorm_wordpool_576.txt	LTP349	ltpFR2	8	10	FUNGUS	614	n/a	n/a	0	0	0
1954862	WORD	wordpools/wasnorm_wordpool_576.txt	LTP349	ltpFR2	8	10	CARROT	249	n/a	n/a	0	0	0
1957528	WORD	wordpools/wasnorm_wordpool_576.txt	LTP349	ltpFR2	8	10	SHELF	1280	n/a	n/a	0	0	0
1960176	WORD	wordpools/wasnorm_wordpool_576.txt	LTP349	ltpFR2	8	10	SWORD	1423	n/a	n/a	0	0	0
1962642	WORD	wordpools/wasnorm_wordpool_576.txt	LTP349	ltpFR2	8	10	BOUQUET	157	n/a	n/a	0	0	0
1965223	WORD	wordpools/wasnorm_wordpool_576.txt	LTP349	ltpFR2	8	10	CEILING	265	n/a	n/a	0	0	0
1968022	WORD	wordpools/wasnorm_wordpool_576.txt	LTP349	ltpFR2	8	10	JOURNAL	760	n/a	n/a	0	0	0
1970488	WORD	wordpools/wasnorm_wordpool_576.txt	LTP349	ltpFR2	8	10	POET	1095	n/a	n/a	0	0	0
1973170	WORD	wordpools/wasnorm_wordpool_576.txt	LTP349	ltpFR2	8	10	RIFLE	1192	n/a	n/a	0	0	0
1975685	WORD	wordpools/wasnorm_wordpool_576.txt	LTP349	ltpFR2	8	10	CURTAIN	427	n/a	n/a	0	0	0
1978317	WORD	wordpools/wasnorm_wordpool_576.txt	LTP349	ltpFR2	8	10	PASSAGE	1019	n/a	n/a	0	0	0
1980749	WORD	wordpools/wasnorm_wordpool_576.txt	LTP349	ltpFR2	8	10	BREAST	171	n/a	n/a	0	0	0
1983298	WORD	wordpools/wasnorm_wordpool_576.txt	LTP349	ltpFR2	8	10	VICTIM	1562	n/a	n/a	0	0	0
1985897	WORD	wordpools/wasnorm_wordpool_576.txt	LTP349	ltpFR2	8	10	WINDOW	1611	n/a	n/a	0	0	0
1988396	WORD	wordpools/wasnorm_wordpool_576.txt	LTP349	ltpFR2	8	10	BRANCH	168	n/a	n/a	0	0	0
1991028	WORD	wordpools/wasnorm_wordpool_576.txt	LTP349	ltpFR2	8	10	STUDENT	1395	n/a	n/a	0	0	0
1993460	WORD	wordpools/wasnorm_wordpool_576.txt	LTP349	ltpFR2	8	10	CAPTIVE	240	n/a	n/a	0	0	0
1996242	WORD	wordpools/wasnorm_wordpool_576.txt	LTP349	ltpFR2	8	10	SPHINX	1349	n/a	n/a	0	0	0
1998940	WORD	wordpools/wasnorm_wordpool_576.txt	LTP349	ltpFR2	8	10	EAGLE	512	n/a	n/a	0	0	0
2001689	WORD	wordpools/wasnorm_wordpool_576.txt	LTP349	ltpFR2	8	10	CROSS	413	n/a	n/a	0	0	0
2004471	WORD	wordpools/wasnorm_wordpool_576.txt	LTP349	ltpFR2	8	10	CHURCH	307	n/a	n/a	0	0	0
2007253	WORD	wordpools/wasnorm_wordpool_576.txt	LTP349	ltpFR2	8	10	SUNSET	1408	n/a	n/a	0	0	0
2009968	WORD	wordpools/wasnorm_wordpool_576.txt	LTP349	ltpFR2	8	10	GARLIC	624	n/a	n/a	0	0	0
2012784	WORD	wordpools/wasnorm_wordpool_576.txt	LTP349	ltpFR2	8	10	GOBLIN	645	n/a	n/a	0	0	0
2014400	START	n/a	LTP349	ltpFR2	8	n/a	n/a	n/a	15	n/a	n/a	n/a	n/a
2015416	DISTRACTOR	n/a	LTP349	ltpFR2	8	10	n/a	n/a	n/a	n/a	0	0	0
2015432	PROB	n/a	LTP349	ltpFR2	8	n/a	n/a	n/a	15	18	8	1	9
2017698	PROB	n/a	LTP349	ltpFR2	8	n/a	n/a	n/a	15	18	7	7	4
2019213	PROB	n/a	LTP349	ltpFR2	8	n/a	n/a	n/a	15	9	3	5	1
2021396	PROB	n/a	LTP349	ltpFR2	8	n/a	n/a	n/a	15	17	8	7	2
2024494	PROB	n/a	LTP349	ltpFR2	8	n/a	n/a	n/a	15	9	1	7	1
2025910	PROB	n/a	LTP349	ltpFR2	8	n/a	n/a	n/a	15	12	7	3	2
2027310	PROB	n/a	LTP349	ltpFR2	8	n/a	n/a	n/a	15	12	6	5	1
2029159	PROB	n/a	LTP349	ltpFR2	8	n/a	n/a	n/a	15	12	4	3	5
2032141	PROB	n/a	LTP349	ltpFR2	8	n/a	n/a	n/a	15	15	1	6	8
2033906	PROB	n/a	LTP349	ltpFR2	8	n/a	n/a	n/a	15	14	4	3	7
2035422	PROB	n/a	LTP349	ltpFR2	8	n/a	n/a	n/a	15	23	7	9	7
2038156	STOP	n/a	LTP349	ltpFR2	8	n/a	n/a	n/a	15	n/a	n/a	n/a	n/a
2040287	REC_START	n/a	LTP349	ltpFR2	8	10	n/a	n/a	n/a	n/a	0	0	0
2043241	REC_WORD	wordpools/wasnorm_wordpool_576.txt	LTP349	ltpFR2	8	10	GARLIC	624	n/a	n/a	0	0	0
2044587	REC_WORD	wordpools/wasnorm_wordpool_576.txt	LTP349	ltpFR2	8	10	SHELF	1280	n/a	n/a	0	0	0
2047375	REC_WORD_VV	wordpools/wasnorm_wordpool_576.txt	LTP349	ltpFR2	8	10	<>	-1	n/a	n/a	0	0	0
2048720	REC_WORD	wordpools/wasnorm_wordpool_576.txt	LTP349	ltpFR2	8	10	FUNGUS	614	n/a	n/a	0	0	0
2050168	REC_WORD	wordpools/wasnorm_wordpool_576.txt	LTP349	ltpFR2	8	10	CARROT	249	n/a	n/a	0	0	0
2052140	REC_WORD	wordpools/wasnorm_wordpool_576.txt	LTP349	ltpFR2	8	10	PASSAGE	1019	n/a	n/a	0	0	0
2053257	REC_WORD	wordpools/wasnorm_wordpool_576.txt	LTP349	ltpFR2	8	10	VICTIM	1562	n/a	n/a	0	0	0
2054330	REC_WORD	wordpools/wasnorm_wordpool_576.txt	LTP349	ltpFR2	8	10	SPHINX	1349	n/a	n/a	0	0	0
2060716	REC_WORD	wordpools/wasnorm_wordpool_576.txt	LTP349	ltpFR2	8	10	POET	1095	n/a	n/a	0	0	0
2062617	REC_WORD	wordpools/wasnorm_wordpool_576.txt	LTP349	ltpFR2	8	10	CURTAIN	427	n/a	n/a	0	0	0
2064078	REC_WORD	wordpools/wasnorm_wordpool_576.txt	LTP349	ltpFR2	8	10	WINDOW	1611	n/a	n/a	0	0	0
2065151	REC_WORD	wordpools/wasnorm_wordpool_576.txt	LTP349	ltpFR2	8	10	SWORD	1423	n/a	n/a	0	0	0
2072171	REC_WORD	wordpools/wasnorm_wordpool_576.txt	LTP349	ltpFR2	8	10	BREAST	171	n/a	n/a	0	0	0
2079886	REC_WORD	wordpools/wasnorm_wordpool_576.txt	LTP349	ltpFR2	8	10	CAPTIVE	240	n/a	n/a	0	0	0
2085141	REC_WORD	wordpools/wasnorm_wordpool_576.txt	LTP349	ltpFR2	8	10	CEILING	265	n/a	n/a	0	0	0
2092895	REC_WORD	wordpools/wasnorm_wordpool_576.txt	LTP349	ltpFR2	8	10	EAGLE	512	n/a	n/a	0	0	0
2130725	DISTRACTOR	n/a	LTP349	ltpFR2	8	11	n/a	n/a	n/a	n/a	0	0	0
2130725	START	n/a	LTP349	ltpFR2	8	n/a	n/a	n/a	16	n/a	n/a	n/a	n/a
2130742	PROB	n/a	LTP349	ltpFR2	8	n/a	n/a	n/a	16	17	6	7	4
2132757	PROB	n/a	LTP349	ltpFR2	8	n/a	n/a	n/a	16	12	4	7	1
2135406	PROB	n/a	LTP349	ltpFR2	8	n/a	n/a	n/a	16	14	4	7	3
2136989	PROB	n/a	LTP349	ltpFR2	8	n/a	n/a	n/a	16	18	6	6	6
2138305	PROB	n/a	LTP349	ltpFR2	8	n/a	n/a	n/a	16	18	9	3	6
2140154	PROB	n/a	LTP349	ltpFR2	8	n/a	n/a	n/a	16	20	6	5	9
2144501	PROB	n/a	LTP349	ltpFR2	8	n/a	n/a	n/a	16	13	2	5	6
2147650	PROB	n/a	LTP349	ltpFR2	8	n/a	n/a	n/a	16	15	4	2	9
2149699	PROB	n/a	LTP349	ltpFR2	8	n/a	n/a	n/a	16	17	1	9	7
2151298	PROB	n/a	LTP349	ltpFR2	8	n/a	n/a	n/a	16	11	4	1	6
2153964	STOP	n/a	LTP349	ltpFR2	8	n/a	n/a	n/a	16	n/a	n/a	n/a	n/a
2155846	WORD	wordpools/wasnorm_wordpool_576.txt	LTP349	ltpFR2	8	11	HOOD	714	n/a	n/a	0	0	0
2158311	WORD	wordpools/wasnorm_wordpool_576.txt	LTP349	ltpFR2	8	11	DINER	467	n/a	n/a	0	0	0
2160993	WORD	wordpools/wasnorm_wordpool_576.txt	LTP349	ltpFR2	8	11	SANDWICH	1232	n/a	n/a	0	0	0
2163459	WORD	wordpools/wasnorm_wordpool_576.txt	LTP349	ltpFR2	8	11	GAVEL	627	n/a	n/a	0	0	0
2166206	WORD	wordpools/wasnorm_wordpool_576.txt	LTP349	ltpFR2	8	11	SLIME	1327	n/a	n/a	0	0	0
2168889	WORD	wordpools/wasnorm_wordpool_576.txt	LTP349	ltpFR2	8	11	SHRUB	1299	n/a	n/a	0	0	0
2171655	WORD	wordpools/wasnorm_wordpool_576.txt	LTP349	ltpFR2	8	11	ATOM	55	n/a	n/a	0	0	0
2174087	WORD	wordpools/wasnorm_wordpool_576.txt	LTP349	ltpFR2	8	11	WRIST	1626	n/a	n/a	0	0	0
2176669	WORD	wordpools/wasnorm_wordpool_576.txt	LTP349	ltpFR2	8	11	SIBLING	1301	n/a	n/a	0	0	0
2179134	WORD	wordpools/wasnorm_wordpool_576.txt	LTP349	ltpFR2	8	11	PEDAL	1037	n/a	n/a	0	0	0
2181850	WORD	wordpools/wasnorm_wordpool_576.txt	LTP349	ltpFR2	8	11	PRIMATE	1123	n/a	n/a	0	0	0
2184432	WORD	wordpools/wasnorm_wordpool_576.txt	LTP349	ltpFR2	8	11	JUNGLE	764	n/a	n/a	0	0	0
2187213	WORD	wordpools/wasnorm_wordpool_576.txt	LTP349	ltpFR2	8	11	QUAIL	1147	n/a	n/a	0	0	0
2189812	WORD	wordpools/wasnorm_wordpool_576.txt	LTP349	ltpFR2	8	11	ROOSTER	1209	n/a	n/a	0	0	0
2192328	WORD	wordpools/wasnorm_wordpool_576.txt	LTP349	ltpFR2	8	11	KNAPSACK	783	n/a	n/a	0	0	0
2195026	WORD	wordpools/wasnorm_wordpool_576.txt	LTP349	ltpFR2	8	11	HOOK	715	n/a	n/a	0	0	0
2197692	WORD	wordpools/wasnorm_wordpool_576.txt	LTP349	ltpFR2	8	11	SCULPTURE	1258	n/a	n/a	0	0	0
2200340	WORD	wordpools/wasnorm_wordpool_576.txt	LTP349	ltpFR2	8	11	HANDBAG	684	n/a	n/a	0	0	0
2203156	WORD	wordpools/wasnorm_wordpool_576.txt	LTP349	ltpFR2	8	11	ELBOW	520	n/a	n/a	0	0	0
2205788	WORD	wordpools/wasnorm_wordpool_576.txt	LTP349	ltpFR2	8	11	FEMALE	559	n/a	n/a	0	0	0
2208353	WORD	wordpools/wasnorm_wordpool_576.txt	LTP349	ltpFR2	8	11	SCISSORS	1250	n/a	n/a	0	0	0
2210869	WORD	wordpools/wasnorm_wordpool_576.txt	LTP349	ltpFR2	8	11	PADDING	999	n/a	n/a	0	0	0
2213667	WORD	wordpools/wasnorm_wordpool_576.txt	LTP349	ltpFR2	8	11	MOTEL	919	n/a	n/a	0	0	0
2216416	WORD	wordpools/wasnorm_wordpool_576.txt	LTP349	ltpFR2	8	11	PADDLE	1000	n/a	n/a	0	0	0
2218032	START	n/a	LTP349	ltpFR2	8	n/a	n/a	n/a	17	n/a	n/a	n/a	n/a
2218894	DISTRACTOR	n/a	LTP349	ltpFR2	8	11	n/a	n/a	n/a	n/a	0	0	0
2218898	PROB	n/a	LTP349	ltpFR2	8	n/a	n/a	n/a	17	18	9	5	4
2221313	PROB	n/a	LTP349	ltpFR2	8	n/a	n/a	n/a	17	17	8	2	7
2223795	PROB	n/a	LTP349	ltpFR2	8	n/a	n/a	n/a	17	17	7	6	4
2225411	PROB	n/a	LTP349	ltpFR2	8	n/a	n/a	n/a	17	18	4	7	7
2226794	PROB	n/a	LTP349	ltpFR2	8	n/a	n/a	n/a	17	15	9	1	5
2228227	PROB	n/a	LTP349	ltpFR2	8	n/a	n/a	n/a	17	10	5	3	2
2229809	PROB	n/a	LTP349	ltpFR2	8	n/a	n/a	n/a	17	7	3	2	2
2232424	PROB	n/a	LTP349	ltpFR2	8	n/a	n/a	n/a	17	15	2	7	6
2234923	PROB	n/a	LTP349	ltpFR2	8	n/a	n/a	n/a	17	24	9	9	8
2236772	PROB	n/a	LTP349	ltpFR2	8	n/a	n/a	n/a	17	17	7	3	7
2238705	PROB	n/a	LTP349	ltpFR2	8	n/a	n/a	n/a	17	15	9	1	5
2241980	STOP	n/a	LTP349	ltpFR2	8	n/a	n/a	n/a	17	n/a	n/a	n/a	n/a
2243969	REC_START	n/a	LTP349	ltpFR2	8	11	n/a	n/a	n/a	n/a	0	0	0
2318969	REC_WORD_VV	wordpools/wasnorm_wordpool_576.txt	LTP349	ltpFR2	8	11	<>	-1	n/a	n/a	0	0	0
2334407	DISTRACTOR	n/a	LTP349	ltpFR2	8	12	n/a	n/a	n/a	n/a	0	0	0
2334407	START	n/a	LTP349	ltpFR2	8	n/a	n/a	n/a	18	n/a	n/a	n/a	n/a
2334424	PROB	n/a	LTP349	ltpFR2	8	n/a	n/a	n/a	18	10	3	1	6
2336706	PROB	n/a	LTP349	ltpFR2	8	n/a	n/a	n/a	18	8	4	2	2
2341804	PROB	n/a	LTP349	ltpFR2	8	n/a	n/a	n/a	18	14	7	4	3
2344436	PROB	n/a	LTP349	ltpFR2	8	n/a	n/a	n/a	18	12	7	1	5
2346851	PROB	n/a	LTP349	ltpFR2	8	n/a	n/a	n/a	18	15	5	9	1
2349550	PROB	n/a	LTP349	ltpFR2	8	n/a	n/a	n/a	18	17	8	4	5
2351415	PROB	n/a	LTP349	ltpFR2	8	n/a	n/a	n/a	18	12	4	7	2
2355847	PROB	n/a	LTP349	ltpFR2	8	n/a	n/a	n/a	18	17	7	9	1
2357908	STOP	n/a	LTP349	ltpFR2	8	n/a	n/a	n/a	18	n/a	n/a	n/a	n/a
2359328	WORD	wordpools/wasnorm_wordpool_576.txt	LTP349	ltpFR2	8	12	AIRPORT	13	n/a	n/a	0	0	0
2362160	WORD	wordpools/wasnorm_wordpool_576.txt	LTP349	ltpFR2	8	12	PILOT	1070	n/a	n/a	0	0	0
2364909	WORD	wordpools/wasnorm_wordpool_576.txt	LTP349	ltpFR2	8	12	GRAVE	658	n/a	n/a	0	0	0
2367374	WORD	wordpools/wasnorm_wordpool_576.txt	LTP349	ltpFR2	8	12	POISON	1096	n/a	n/a	0	0	0
2369956	WORD	wordpools/wasnorm_wordpool_576.txt	LTP349	ltpFR2	8	12	NOMAD	955	n/a	n/a	0	0	0
2372588	WORD	wordpools/wasnorm_wordpool_576.txt	LTP349	ltpFR2	8	12	CANAL	226	n/a	n/a	0	0	0
2375254	WORD	wordpools/wasnorm_wordpool_576.txt	LTP349	ltpFR2	8	12	COWBOY	395	n/a	n/a	0	0	0
2377852	WORD	wordpools/wasnorm_wordpool_576.txt	LTP349	ltpFR2	8	12	LUMBER	848	n/a	n/a	0	0	0
2380518	WORD	wordpools/wasnorm_wordpool_576.txt	LTP349	ltpFR2	8	12	NOTEBOOK	959	n/a	n/a	0	0	0
2383199	WORD	wordpools/wasnorm_wordpool_576.txt	LTP349	ltpFR2	8	12	PLAYGROUND	1087	n/a	n/a	0	0	0
2385815	WORD	wordpools/wasnorm_wordpool_576.txt	LTP349	ltpFR2	8	12	CLOCK	325	n/a	n/a	0	0	0
2388297	WORD	wordpools/wasnorm_wordpool_576.txt	LTP349	ltpFR2	8	12	LOVER	846	n/a	n/a	0	0	0
2391012	WORD	wordpools/wasnorm_wordpool_576.txt	LTP349	ltpFR2	8	12	DANCER	437	n/a	n/a	0	0	0
2393545	WORD	wordpools/wasnorm_wordpool_576.txt	LTP349	ltpFR2	8	12	SHOULDER	1294	n/a	n/a	0	0	0
2395993	WORD	wordpools/wasnorm_wordpool_576.txt	LTP349	ltpFR2	8	12	CUPBOARD	425	n/a	n/a	0	0	0
2398475	WORD	wordpools/wasnorm_wordpool_576.txt	LTP349	ltpFR2	8	12	LAGOON	795	n/a	n/a	0	0	0
2401157	WORD	wordpools/wasnorm_wordpool_576.txt	LTP349	ltpFR2	8	12	BLUEPRINT	142	n/a	n/a	0	0	0
2403873	WORD	wordpools/wasnorm_wordpool_576.txt	LTP349	ltpFR2	8	12	MISTER	901	n/a	n/a	0	0	0
2406538	WORD	wordpools/wasnorm_wordpool_576.txt	LTP349	ltpFR2	8	12	RADISH	1158	n/a	n/a	0	0	0
2409153	WORD	wordpools/wasnorm_wordpool_576.txt	LTP349	ltpFR2	8	12	THRONE	1461	n/a	n/a	0	0	0
2411635	WORD	wordpools/wasnorm_wordpool_576.txt	LTP349	ltpFR2	8	12	DIVER	476	n/a	n/a	0	0	0
2414151	WORD	wordpools/wasnorm_wordpool_576.txt	LTP349	ltpFR2	8	12	TWIG	1527	n/a	n/a	0	0	0
2416850	WORD	wordpools/wasnorm_wordpool_576.txt	LTP349	ltpFR2	8	12	BANQUET	86	n/a	n/a	0	0	0
2419532	WORD	wordpools/wasnorm_wordpool_576.txt	LTP349	ltpFR2	8	12	STREAM	1392	n/a	n/a	0	0	0
2421148	START	n/a	LTP349	ltpFR2	8	n/a	n/a	n/a	19	n/a	n/a	n/a	n/a
2422261	DISTRACTOR	n/a	LTP349	ltpFR2	8	12	n/a	n/a	n/a	n/a	0	0	0
2422264	PROB	n/a	LTP349	ltpFR2	8	n/a	n/a	n/a	19	17	7	5	5
2424696	PROB	n/a	LTP349	ltpFR2	8	n/a	n/a	n/a	19	16	5	9	2
2427210	PROB	n/a	LTP349	ltpFR2	8	n/a	n/a	n/a	19	12	8	1	3
2429910	PROB	n/a	LTP349	ltpFR2	8	n/a	n/a	n/a	19	13	8	4	1
2431726	PROB	n/a	LTP349	ltpFR2	8	n/a	n/a	n/a	19	17	9	2	6
2433591	PROB	n/a	LTP349	ltpFR2	8	n/a	n/a	n/a	19	17	8	4	5
2435607	PROB	n/a	LTP349	ltpFR2	8	n/a	n/a	n/a	19	7	4	1	2
2437456	PROB	n/a	LTP349	ltpFR2	8	n/a	n/a	n/a	19	20	2	9	9
2440521	PROB	n/a	LTP349	ltpFR2	8	n/a	n/a	n/a	19	15	7	5	3
2443386	PROB	n/a	LTP349	ltpFR2	8	n/a	n/a	n/a	19	14	5	5	4
2444820	STOP	n/a	LTP349	ltpFR2	8	n/a	n/a	n/a	19	n/a	n/a	n/a	n/a
2447068	REC_START	n/a	LTP349	ltpFR2	8	12	n/a	n/a	n/a	n/a	0	0	0
2447816	REC_WORD	wordpools/wasnorm_wordpool_576.txt	LTP349	ltpFR2	8	12	STREAM	1392	n/a	n/a	0	0	0
2449629	REC_WORD	wordpools/wasnorm_wordpool_576.txt	LTP349	ltpFR2	8	12	BANQUET	86	n/a	n/a	0	0	0
2450810	REC_WORD	wordpools/wasnorm_wordpool_576.txt	LTP349	ltpFR2	8	12	AIRPORT	13	n/a	n/a	0	0	0
2451887	REC_WORD	wordpools/wasnorm_wordpool_576.txt	LTP349	ltpFR2	8	12	PILOT	1070	n/a	n/a	0	0	0
2452920	REC_WORD	wordpools/wasnorm_wordpool_576.txt	LTP349	ltpFR2	8	12	GRAVE	658	n/a	n/a	0	0	0
2453833	REC_WORD	wordpools/wasnorm_wordpool_576.txt	LTP349	ltpFR2	8	12	NOMAD	955	n/a	n/a	0	0	0
2455617	REC_WORD	wordpools/wasnorm_wordpool_576.txt	LTP349	ltpFR2	8	12	SHOULDER	1294	n/a	n/a	0	0	0
2465823	REC_WORD	wordpools/wasnorm_wordpool_576.txt	LTP349	ltpFR2	8	12	COWBOY	395	n/a	n/a	0	0	0
2537523	WORD	wordpools/wasnorm_wordpool_576.txt	LTP349	ltpFR2	8	13	SWAMP	1416	n/a	n/a	0	0	0
2540187	WORD	wordpools/wasnorm_wordpool_576.txt	LTP349	ltpFR2	8	13	SCOTCH	1251	n/a	n/a	0	0	0
2542854	WORD	wordpools/wasnorm_wordpool_576.txt	LTP349	ltpFR2	8	13	GLASS	639	n/a	n/a	0	0	0
2545669	WORD	wordpools/wasnorm_wordpool_576.txt	LTP349	ltpFR2	8	13	FILM	565	n/a	n/a	0	0	0
2548118	WORD	wordpools/wasnorm_wordpool_576.txt	LTP349	ltpFR2	8	13	BUREAU	199	n/a	n/a	0	0	0
2550567	WORD	wordpools/wasnorm_wordpool_576.txt	LTP349	ltpFR2	8	13	HAWK	692	n/a	n/a	0	0	0
2553115	WORD	wordpools/wasnorm_wordpool_576.txt	LTP349	ltpFR2	8	13	IGLOO	734	n/a	n/a	0	0	0
2555797	WORD	wordpools/wasnorm_wordpool_576.txt	LTP349	ltpFR2	8	13	OUTFIT	988	n/a	n/a	0	0	0
2558579	WORD	wordpools/wasnorm_wordpool_576.txt	LTP349	ltpFR2	8	13	VALVE	1546	n/a	n/a	0	0	0
2561345	WORD	wordpools/wasnorm_wordpool_576.txt	LTP349	ltpFR2	8	13	BEEF	113	n/a	n/a	0	0	0
2563893	WORD	wordpools/wasnorm_wordpool_576.txt	LTP349	ltpFR2	8	13	TRENCH	1503	n/a	n/a	0	0	0
2566559	WORD	wordpools/wasnorm_wordpool_576.txt	LTP349	ltpFR2	8	13	FLAG	573	n/a	n/a	0	0	0
2569174	WORD	wordpools/wasnorm_wordpool_576.txt	LTP349	ltpFR2	8	13	PIGMENT	1066	n/a	n/a	0	0	0
2571639	WORD	wordpools/wasnorm_wordpool_576.txt	LTP349	ltpFR2	8	13	BRAKE	166	n/a	n/a	0	0	0
2574288	WORD	wordpools/wasnorm_wordpool_576.txt	LTP349	ltpFR2	8	13	DUSTPAN	509	n/a	n/a	0	0	0
2577120	WORD	wordpools/wasnorm_wordpool_576.txt	LTP349	ltpFR2	8	13	ROBBER	1197	n/a	n/a	0	0	0
2579685	WORD	wordpools/wasnorm_wordpool_576.txt	LTP349	ltpFR2	8	13	HAMPER	682	n/a	n/a	0	0	0
2582183	WORD	wordpools/wasnorm_wordpool_576.txt	LTP349	ltpFR2	8	13	PICNIC	1060	n/a	n/a	0	0	0
2584999	WORD	wordpools/wasnorm_wordpool_576.txt	LTP349	ltpFR2	8	13	RIVER	1194	n/a	n/a	0	0	0
2587531	WORD	wordpools/wasnorm_wordpool_576.txt	LTP349	ltpFR2	8	13	ISLAND	745	n/a	n/a	0	0	0
2590030	WORD	wordpools/wasnorm_wordpool_576.txt	LTP349	ltpFR2	8	13	ANTLER	29	n/a	n/a	0	0	0
2592862	WORD	wordpools/wasnorm_wordpool_576.txt	LTP349	ltpFR2	8	13	GAZELLE	628	n/a	n/a	0	0	0
2595461	WORD	wordpools/wasnorm_wordpool_576.txt	LTP349	ltpFR2	8	13	LIPSTICK	829	n/a	n/a	0	0	0
2598010	WORD	wordpools/wasnorm_wordpool_576.txt	LTP349	ltpFR2	8	13	COCKTAIL	338	n/a	n/a	0	0	0
2599626	START	n/a	LTP349	ltpFR2	8	n/a	n/a	n/a	20	n/a	n/a	n/a	n/a
2600576	DISTRACTOR	n/a	LTP349	ltpFR2	8	13	n/a	n/a	n/a	n/a	0	0	0
2600592	PROB	n/a	LTP349	ltpFR2	8	n/a	n/a	n/a	20	13	2	4	7
2604306	PROB	n/a	LTP349	ltpFR2	8	n/a	n/a	n/a	20	18	9	5	4
2605972	PROB	n/a	LTP349	ltpFR2	8	n/a	n/a	n/a	20	12	8	1	3
2607855	PROB	n/a	LTP349	ltpFR2	8	n/a	n/a	n/a	20	12	4	4	4
2610020	PROB	n/a	LTP349	ltpFR2	8	n/a	n/a	n/a	20	10	7	1	2
2611786	PROB	n/a	LTP349	ltpFR2	8	n/a	n/a	n/a	20	10	2	2	6
2613335	PROB	n/a	LTP349	ltpFR2	8	n/a	n/a	n/a	20	16	4	3	9
2615484	PROB	n/a	LTP349	ltpFR2	8	n/a	n/a	n/a	20	17	7	3	7
2617167	PROB	n/a	LTP349	ltpFR2	8	n/a	n/a	n/a	20	11	1	8	2
2618633	PROB	n/a	LTP349	ltpFR2	8	n/a	n/a	n/a	20	14	7	4	3
2623626	STOP	n/a	LTP349	ltpFR2	8	n/a	n/a	n/a	20	n/a	n/a	n/a	n/a
2625547	REC_START	n/a	LTP349	ltpFR2	8	13	n/a	n/a	n/a	n/a	0	0	0
2628240	REC_WORD	wordpools/wasnorm_wordpool_576.txt	LTP349	ltpFR2	8	13	PICNIC	1060	n/a	n/a	0	0	0
2629853	REC_WORD	wordpools/wasnorm_wordpool_576.txt	LTP349	ltpFR2	8	13	RIVER	1194	n/a	n/a	0	0	0
2631221	REC_WORD	wordpools/wasnorm_wordpool_576.txt	LTP349	ltpFR2	8	13	SWAMP	1416	n/a	n/a	0	0	0
2633053	REC_WORD	wordpools/wasnorm_wordpool_576.txt	LTP349	ltpFR2	8	13	IGLOO	734	n/a	n/a	0	0	0
2635242	REC_WORD	wordpools/wasnorm_wordpool_576.txt	LTP349	ltpFR2	8	13	BEEF	113	n/a	n/a	0	0	0
2641102	REC_WORD	wordpools/wasnorm_wordpool_576.txt	LTP349	ltpFR2	8	13	SCOTCH	1251	n/a	n/a	0	0	0
2643667	REC_WORD	wordpools/wasnorm_wordpool_576.txt	LTP349	ltpFR2	8	13	GLASS	639	n/a	n/a	0	0	0
2715984	DISTRACTOR	n/a	LTP349	ltpFR2	8	14	n/a	n/a	n/a	n/a	0	0	0
2715985	START	n/a	LTP349	ltpFR2	8	n/a	n/a	n/a	21	n/a	n/a	n/a	n/a
2716001	PROB	n/a	LTP349	ltpFR2	8	n/a	n/a	n/a	21	19	7	9	3
2718483	PROB	n/a	LTP349	ltpFR2	8	n/a	n/a	n/a	21	13	9	2	2
2720915	PROB	n/a	LTP349	ltpFR2	8	n/a	n/a	n/a	21	2	9	8	5
2723064	PROB	n/a	LTP349	ltpFR2	8	n/a	n/a	n/a	21	17	4	6	7
2726096	PROB	n/a	LTP349	ltpFR2	8	n/a	n/a	n/a	21	25	7	9	9
2729178	PROB	n/a	LTP349	ltpFR2	8	n/a	n/a	n/a	21	17	7	3	7
2730644	PROB	n/a	LTP349	ltpFR2	8	n/a	n/a	n/a	21	7	2	2	3
2732426	PROB	n/a	LTP349	ltpFR2	8	n/a	n/a	n/a	21	6	2	2	2
2734092	PROB	n/a	LTP349	ltpFR2	8	n/a	n/a	n/a	21	19	9	4	6
2739985	STOP	n/a	LTP349	ltpFR2	8	n/a	n/a	n/a	21	n/a	n/a	n/a	n/a
2741172	WORD	wordpools/wasnorm_wordpool_576.txt	LTP349	ltpFR2	8	14	GARBAGE	622	n/a	n/a	0	0	0
2743771	WORD	wordpools/wasnorm_wordpool_576.txt	LTP349	ltpFR2	8	14	TRUCK	1512	n/a	n/a	0	0	0
2746236	WORD	wordpools/wasnorm_wordpool_576.txt	LTP349	ltpFR2	8	14	GREASE	660	n/a	n/a	0	0	0
2748901	WORD	wordpools/wasnorm_wordpool_576.txt	LTP349	ltpFR2	8	14	CHIPMUNK	304	n/a	n/a	0	0	0
2751350	WORD	wordpools/wasnorm_wordpool_576.txt	LTP349	ltpFR2	8	14	MOP	916	n/a	n/a	0	0	0
2753799	WORD	wordpools/wasnorm_wordpool_576.txt	LTP349	ltpFR2	8	14	JURY	766	n/a	n/a	0	0	0
2756281	WORD	wordpools/wasnorm_wordpool_576.txt	LTP349	ltpFR2	8	14	HEDGE	699	n/a	n/a	0	0	0
2759046	WORD	wordpools/wasnorm_wordpool_576.txt	LTP349	ltpFR2	8	14	KETCHUP	771	n/a	n/a	0	0	0
2761512	WORD	wordpools/wasnorm_wordpool_576.txt	LTP349	ltpFR2	8	14	BELLY	119	n/a	n/a	0	0	0
2764294	WORD	wordpools/wasnorm_wordpool_576.txt	LTP349	ltpFR2	8	14	CHILD	299	n/a	n/a	0	0	0
2766809	WORD	wordpools/wasnorm_wordpool_576.txt	LTP349	ltpFR2	8	14	INFANT	737	n/a	n/a	0	0	0
2769575	WORD	wordpools/wasnorm_wordpool_576.txt	LTP349	ltpFR2	8	14	JELLY	755	n/a	n/a	0	0	0
2772340	WORD	wordpools/wasnorm_wordpool_576.txt	LTP349	ltpFR2	8	14	LAKE	796	n/a	n/a	0	0	0
2775072	WORD	wordpools/wasnorm_wordpool_576.txt	LTP349	ltpFR2	8	14	DRAWING	494	n/a	n/a	0	0	0
2777571	WORD	wordpools/wasnorm_wordpool_576.txt	LTP349	ltpFR2	8	14	ROBIN	1199	n/a	n/a	0	0	0
2780336	WORD	wordpools/wasnorm_wordpool_576.txt	LTP349	ltpFR2	8	14	CITRUS	313	n/a	n/a	0	0	0
2782818	WORD	wordpools/wasnorm_wordpool_576.txt	LTP349	ltpFR2	8	14	FRUIT	610	n/a	n/a	0	0	0
2785400	WORD	wordpools/wasnorm_wordpool_576.txt	LTP349	ltpFR2	8	14	AGENT	10	n/a	n/a	0	0	0
2787882	WORD	wordpools/wasnorm_wordpool_576.txt	LTP349	ltpFR2	8	14	SKETCH	1315	n/a	n/a	0	0	0
2790397	WORD	wordpools/wasnorm_wordpool_576.txt	LTP349	ltpFR2	8	14	CREATURE	403	n/a	n/a	0	0	0
2793013	WORD	wordpools/wasnorm_wordpool_576.txt	LTP349	ltpFR2	8	14	WIFE	1609	n/a	n/a	0	0	0
2795778	WORD	wordpools/wasnorm_wordpool_576.txt	LTP349	ltpFR2	8	14	CYCLONE	431	n/a	n/a	0	0	0
2798493	WORD	wordpools/wasnorm_wordpool_576.txt	LTP349	ltpFR2	8	14	ULCER	1533	n/a	n/a	0	0	0
2801224	WORD	wordpools/wasnorm_wordpool_576.txt	LTP349	ltpFR2	8	14	SOFTBALL	1343	n/a	n/a	0	0	0
2802841	START	n/a	LTP349	ltpFR2	8	n/a	n/a	n/a	22	n/a	n/a	n/a	n/a
2803949	DISTRACTOR	n/a	LTP349	ltpFR2	8	14	n/a	n/a	n/a	n/a	0	0	0
2803957	PROB	n/a	LTP349	ltpFR2	8	n/a	n/a	n/a	22	17	7	1	9
2810388	PROB	n/a	LTP349	ltpFR2	8	n/a	n/a	n/a	22	14	7	5	2
2812303	PROB	n/a	LTP349	ltpFR2	8	n/a	n/a	n/a	22	16	8	2	6
2814169	PROB	n/a	LTP349	ltpFR2	8	n/a	n/a	n/a	22	25	8	8	7
2816501	PROB	n/a	LTP349	ltpFR2	8	n/a	n/a	n/a	22	12	4	2	5
2819166	PROB	n/a	LTP349	ltpFR2	8	n/a	n/a	n/a	22	14	3	6	5
2821499	PROB	n/a	LTP349	ltpFR2	8	n/a	n/a	n/a	22	7	3	1	3
2822998	PROB	n/a	LTP349	ltpFR2	8	n/a	n/a	n/a	22	15	9	1	5
2824464	PROB	n/a	LTP349	ltpFR2	8	n/a	n/a	n/a	22	14	7	6	1
2826309	STOP	n/a	LTP349	ltpFR2	8	n/a	n/a	n/a	22	n/a	n/a	n/a	n/a
2828662	REC_START	n/a	LTP349	ltpFR2	8	14	n/a	n/a	n/a	n/a	0	0	0
2830478	REC_WORD	wordpools/wasnorm_wordpool_576.txt	LTP349	ltpFR2	8	14	WIFE	1609	n/a	n/a	0	0	0
2831625	REC_WORD	wordpools/wasnorm_wordpool_576.txt	LTP349	ltpFR2	8	14	CYCLONE	431	n/a	n/a	0	0	0
2844057	REC_WORD	wordpools/wasnorm_wordpool_576.txt	LTP349	ltpFR2	8	14	GARBAGE	622	n/a	n/a	0	0	0
2845416	REC_WORD	wordpools/wasnorm_wordpool_576.txt	LTP349	ltpFR2	8	14	TRUCK	1512	n/a	n/a	0	0	0
2858455	REC_WORD	wordpools/wasnorm_wordpool_576.txt	LTP349	ltpFR2	8	14	JELLY	755	n/a	n/a	0	0	0
2879629	REC_WORD_VV	wordpools/wasnorm_wordpool_576.txt	LTP349	ltpFR2	8	14	<>	-1	n/a	n/a	0	0	0
2919117	DISTRACTOR	n/a	LTP349	ltpFR2	8	15	n/a	n/a	n/a	n/a	0	0	0
2919117	START	n/a	LTP349	ltpFR2	8	n/a	n/a	n/a	23	n/a	n/a	n/a	n/a
2919134	PROB	n/a	LTP349	ltpFR2	8	n/a	n/a	n/a	23	13	6	3	4
2921066	PROB	n/a	LTP349	ltpFR2	8	n/a	n/a	n/a	23	7	3	2	2
2923281	PROB	n/a	LTP349	ltpFR2	8	n/a	n/a	n/a	23	14	2	8	4
2925714	PROB	n/a	LTP349	ltpFR2	8	n/a	n/a	n/a	23	14	2	8	4
2927195	PROB	n/a	LTP349	ltpFR2	8	n/a	n/a	n/a	23	19	9	5	5
2928945	PROB	n/a	LTP349	ltpFR2	8	n/a	n/a	n/a	23	17	2	6	9
2931461	PROB	n/a	LTP349	ltpFR2	8	n/a	n/a	n/a	23	9	4	1	4
2933127	PROB	n/a	LTP349	ltpFR2	8	n/a	n/a	n/a	23	14	8	5	1
2935292	PROB	n/a	LTP349	ltpFR2	8	n/a	n/a	n/a	23	13	5	2	6
2937891	PROB	n/a	LTP349	ltpFR2	8	n/a	n/a	n/a	23	12	7	5	1
2940173	PROB	n/a	LTP349	ltpFR2	8	n/a	n/a	n/a	23	10	1	3	6
2942508	STOP	n/a	LTP349	ltpFR2	8	n/a	n/a	n/a	23	n/a	n/a	n/a	n/a
2944071	WORD	wordpools/wasnorm_wordpool_576.txt	LTP349	ltpFR2	8	15	RUG	1215	n/a	n/a	0	0	0
2946570	WORD	wordpools/wasnorm_wordpool_576.txt	LTP349	ltpFR2	8	15	PLIERS	1089	n/a	n/a	0	0	0
2949052	WORD	wordpools/wasnorm_wordpool_576.txt	LTP349	ltpFR2	8	15	QUARTER	1148	n/a	n/a	0	0	0
2951801	WORD	wordpools/wasnorm_wordpool_576.txt	LTP349	ltpFR2	8	15	WAGON	1578	n/a	n/a	0	0	0
2954466	WORD	wordpools/wasnorm_wordpool_576.txt	LTP349	ltpFR2	8	15	VIKING	1565	n/a	n/a	0	0	0
2956915	WORD	wordpools/wasnorm_wordpool_576.txt	LTP349	ltpFR2	8	15	BIKE	125	n/a	n/a	0	0	0
2959680	WORD	wordpools/wasnorm_wordpool_576.txt	LTP349	ltpFR2	8	15	HELMET	702	n/a	n/a	0	0	0
2962211	WORD	wordpools/wasnorm_wordpool_576.txt	LTP349	ltpFR2	8	15	CRUTCH	417	n/a	n/a	0	0	0
2965027	WORD	wordpools/wasnorm_wordpool_576.txt	LTP349	ltpFR2	8	15	COCOON	339	n/a	n/a	0	0	0
2967626	WORD	wordpools/wasnorm_wordpool_576.txt	LTP349	ltpFR2	8	15	TERMITE	1451	n/a	n/a	0	0	0
2970291	WORD	wordpools/wasnorm_wordpool_576.txt	LTP349	ltpFR2	8	15	FIREPLACE	570	n/a	n/a	0	0	0
2972757	WORD	wordpools/wasnorm_wordpool_576.txt	LTP349	ltpFR2	8	15	YOLK	1633	n/a	n/a	0	0	0
2975306	WORD	wordpools/wasnorm_wordpool_576.txt	LTP349	ltpFR2	8	15	PARSLEY	1016	n/a	n/a	0	0	0
2977788	WORD	wordpools/wasnorm_wordpool_576.txt	LTP349	ltpFR2	8	15	SUSPECT	1415	n/a	n/a	0	0	0
2980570	WORD	wordpools/wasnorm_wordpool_576.txt	LTP349	ltpFR2	8	15	TURNIP	1521	n/a	n/a	0	0	0
2983002	WORD	wordpools/wasnorm_wordpool_576.txt	LTP349	ltpFR2	8	15	WRENCH	1625	n/a	n/a	0	0	0
2985434	WORD	wordpools/wasnorm_wordpool_576.txt	LTP349	ltpFR2	8	15	FRECKLE	602	n/a	n/a	0	0	0
2988099	WORD	wordpools/wasnorm_wordpool_576.txt	LTP349	ltpFR2	8	15	ARM	38	n/a	n/a	0	0	0
2990665	WORD	wordpools/wasnorm_wordpool_576.txt	LTP349	ltpFR2	8	15	STOMACH	1384	n/a	n/a	0	0	0
2993280	WORD	wordpools/wasnorm_wordpool_576.txt	LTP349	ltpFR2	8	15	LIVER	833	n/a	n/a	0	0	0
2995879	WORD	wordpools/wasnorm_wordpool_576.txt	LTP349	ltpFR2	8	15	SHERIFF	1284	n/a	n/a	0	0	0
2998544	WORD	wordpools/wasnorm_wordpool_576.txt	LTP349	ltpFR2	8	15	THIEF	1456	n/a	n/a	0	0	0
3001293	WORD	wordpools/wasnorm_wordpool_576.txt	LTP349	ltpFR2	8	15	MARINE	869	n/a	n/a	0	0	0
3003841	WORD	wordpools/wasnorm_wordpool_576.txt	LTP349	ltpFR2	8	15	PECAN	1036	n/a	n/a	0	0	0
3005458	START	n/a	LTP349	ltpFR2	8	n/a	n/a	n/a	24	n/a	n/a	n/a	n/a
3006354	DISTRACTOR	n/a	LTP349	ltpFR2	8	15	n/a	n/a	n/a	n/a	0	0	0
3006357	PROB	n/a	LTP349	ltpFR2	8	n/a	n/a	n/a	24	9	4	2	3
3008972	PROB	n/a	LTP349	ltpFR2	8	n/a	n/a	n/a	24	16	1	8	7
3010605	PROB	n/a	LTP349	ltpFR2	8	n/a	n/a	n/a	24	11	7	1	3
3012287	PROB	n/a	LTP349	ltpFR2	8	n/a	n/a	n/a	24	26	9	8	9
3014769	PROB	n/a	LTP349	ltpFR2	8	n/a	n/a	n/a	24	21	7	6	8
3018183	PROB	n/a	LTP349	ltpFR2	8	n/a	n/a	n/a	24	14	4	8	2
3020233	PROB	n/a	LTP349	ltpFR2	8	n/a	n/a	n/a	24	15	5	6	4
3022316	PROB	n/a	LTP349	ltpFR2	8	n/a	n/a	n/a	24	19	6	9	4
3025114	PROB	n/a	LTP349	ltpFR2	8	n/a	n/a	n/a	24	14	5	8	1
3029458	STOP	n/a	LTP349	ltpFR2	8	n/a	n/a	n/a	24	n/a	n/a	n/a	n/a
3031412	REC_START	n/a	LTP349	ltpFR2	8	15	n/a	n/a	n/a	n/a	0	0	0
3034089	REC_WORD	wordpools/wasnorm_wordpool_576.txt	LTP349	ltpFR2	8	15	PLIERS	1089	n/a	n/a	0	0	0
3035719	REC_WORD	wordpools/wasnorm_wordpool_576.txt	LTP349	ltpFR2	8	15	RUG	1215	n/a	n/a	0	0	0
3037052	REC_WORD	wordpools/wasnorm_wordpool_576.txt	LTP349	ltpFR2	8	15	WAGON	1578	n/a	n/a	0	0	0
3039592	REC_WORD	wordpools/wasnorm_wordpool_576.txt	LTP349	ltpFR2	8	15	VIKING	1565	n/a	n/a	0	0	0
3043447	REC_WORD	wordpools/wasnorm_wordpool_576.txt	LTP349	ltpFR2	8	15	BIKE	125	n/a	n/a	0	0	0
3044662	REC_WORD	wordpools/wasnorm_wordpool_576.txt	LTP349	ltpFR2	8	15	HELMET	702	n/a	n/a	0	0	0
3045879	REC_WORD	wordpools/wasnorm_wordpool_576.txt	LTP349	ltpFR2	8	15	CRUTCH	417	n/a	n/a	0	0	0
3048281	REC_WORD	wordpools/wasnorm_wordpool_576.txt	LTP349	ltpFR2	8	15	FIREPLACE	570	n/a	n/a	0	0	0
3053651	REC_WORD	wordpools/wasnorm_wordpool_576.txt	LTP349	ltpFR2	8	15	PARSLEY	1016	n/a	n/a	0	0	0
3056815	REC_WORD	wordpools/wasnorm_wordpool_576.txt	LTP349	ltpFR2	8	15	SUSPECT	1415	n/a	n/a	0	0	0
3058593	REC_WORD	wordpools/wasnorm_wordpool_576.txt	LTP349	ltpFR2	8	15	THIEF	1456	n/a	n/a	0	0	0
3060377	REC_WORD_VV	wordpools/wasnorm_wordpool_576.txt	LTP349	ltpFR2	8	15	<>	-1	n/a	n/a	0	0	0
3060887	REC_WORD	wordpools/wasnorm_wordpool_576.txt	LTP349	ltpFR2	8	15	SHERIFF	1284	n/a	n/a	0	0	0
3065060	REC_WORD	wordpools/wasnorm_wordpool_576.txt	LTP349	ltpFR2	8	15	FRECKLE	602	n/a	n/a	0	0	0
3067861	REC_WORD	wordpools/wasnorm_wordpool_576.txt	LTP349	ltpFR2	8	15	ARM	38	n/a	n/a	0	0	0
3069208	REC_WORD	wordpools/wasnorm_wordpool_576.txt	LTP349	ltpFR2	8	15	LIVER	833	n/a	n/a	0	0	0
3073080	REC_WORD_VV	wordpools/wasnorm_wordpool_576.txt	LTP349	ltpFR2	8	15	<>	-1	n/a	n/a	0	0	0
3073728	REC_WORD	wordpools/wasnorm_wordpool_576.txt	LTP349	ltpFR2	8	15	BELLY	119	n/a	n/a	0	0	0
3087054	REC_WORD	wordpools/wasnorm_wordpool_576.txt	LTP349	ltpFR2	8	15	WRENCH	1625	n/a	n/a	0	0	0
3121866	WORD	wordpools/wasnorm_wordpool_576.txt	LTP349	ltpFR2	8	16	MONSTER	912	n/a	n/a	0	0	0
3124665	WORD	wordpools/wasnorm_wordpool_576.txt	LTP349	ltpFR2	8	16	CAMEL	223	n/a	n/a	0	0	0
3127480	WORD	wordpools/wasnorm_wordpool_576.txt	LTP349	ltpFR2	8	16	FARMER	553	n/a	n/a	0	0	0
3129995	WORD	wordpools/wasnorm_wordpool_576.txt	LTP349	ltpFR2	8	16	LACE	792	n/a	n/a	0	0	0
3132511	WORD	wordpools/wasnorm_wordpool_576.txt	LTP349	ltpFR2	8	16	HORSE	719	n/a	n/a	0	0	0
3135060	WORD	wordpools/wasnorm_wordpool_576.txt	LTP349	ltpFR2	8	16	TRACTOR	1493	n/a	n/a	0	0	0
3137508	WORD	wordpools/wasnorm_wordpool_576.txt	LTP349	ltpFR2	8	16	FRIEND	606	n/a	n/a	0	0	0
3140274	WORD	wordpools/wasnorm_wordpool_576.txt	LTP349	ltpFR2	8	16	FRAGRANCE	599	n/a	n/a	0	0	0
3142906	WORD	wordpools/wasnorm_wordpool_576.txt	LTP349	ltpFR2	8	16	CASHIER	254	n/a	n/a	0	0	0
3145688	WORD	wordpools/wasnorm_wordpool_576.txt	LTP349	ltpFR2	8	16	FLASHLIGHT	575	n/a	n/a	0	0	0
3148470	WORD	wordpools/wasnorm_wordpool_576.txt	LTP349	ltpFR2	8	16	TRIBE	1505	n/a	n/a	0	0	0
3151168	WORD	wordpools/wasnorm_wordpool_576.txt	LTP349	ltpFR2	8	16	OFFICE	972	n/a	n/a	0	0	0
3153684	WORD	wordpools/wasnorm_wordpool_576.txt	LTP349	ltpFR2	8	16	TYPIST	1532	n/a	n/a	0	0	0
3156516	WORD	wordpools/wasnorm_wordpool_576.txt	LTP349	ltpFR2	8	16	RECEIPT	1173	n/a	n/a	0	0	0
3159231	WORD	wordpools/wasnorm_wordpool_576.txt	LTP349	ltpFR2	8	16	COUSIN	392	n/a	n/a	0	0	0
3161713	WORD	wordpools/wasnorm_wordpool_576.txt	LTP349	ltpFR2	8	16	POLICE	1098	n/a	n/a	0	0	0
3164295	WORD	wordpools/wasnorm_wordpool_576.txt	LTP349	ltpFR2	8	16	GALLON	618	n/a	n/a	0	0	0
3166794	WORD	wordpools/wasnorm_wordpool_576.txt	LTP349	ltpFR2	8	16	MUFFIN	929	n/a	n/a	0	0	0
3169409	WORD	wordpools/wasnorm_wordpool_576.txt	LTP349	ltpFR2	8	16	REBEL	1172	n/a	n/a	0	0	0
3172125	WORD	wordpools/wasnorm_wordpool_576.txt	LTP349	ltpFR2	8	16	DASHBOARD	441	n/a	n/a	0	0	0
3174840	WORD	wordpools/wasnorm_wordpool_576.txt	LTP349	ltpFR2	8	16	PERFUME	1049	n/a	n/a	0	0	0
3177389	WORD	wordpools/wasnorm_wordpool_576.txt	LTP349	ltpFR2	8	16	LUNCH	849	n/a	n/a	0	0	0
3180037	WORD	wordpools/wasnorm_wordpool_576.txt	LTP349	ltpFR2	8	16	TURKEY	1520	n/a	n/a	0	0	0
3182586	WORD	wordpools/wasnorm_wordpool_576.txt	LTP349	ltpFR2	8	16	SKILLET	1317	n/a	n/a	0	0	0
3184201	START	n/a	LTP349	ltpFR2	8	n/a	n/a	n/a	25	n/a	n/a	n/a	n/a
3185329	DISTRACTOR	n/a	LTP349	ltpFR2	8	16	n/a	n/a	n/a	n/a	0	0	0
3185335	PROB	n/a	LTP349	ltpFR2	8	n/a	n/a	n/a	25	14	5	8	1
3188000	PROB	n/a	LTP349	ltpFR2	8	n/a	n/a	n/a	25	17	4	8	5
3190632	PROB	n/a	LTP349	ltpFR2	8	n/a	n/a	n/a	25	12	2	9	1
3192231	PROB	n/a	LTP349	ltpFR2	8	n/a	n/a	n/a	25	16	6	7	3
3194380	PROB	n/a	LTP349	ltpFR2	8	n/a	n/a	n/a	25	10	7	1	2
3196562	PROB	n/a	LTP349	ltpFR2	8	n/a	n/a	n/a	25	12	7	5	1
3199461	PROB	n/a	LTP349	ltpFR2	8	n/a	n/a	n/a	25	21	8	9	4
3203592	PROB	n/a	LTP349	ltpFR2	8	n/a	n/a	n/a	25	14	3	2	9
3208201	STOP	n/a	LTP349	ltpFR2	8	n/a	n/a	n/a	25	n/a	n/a	n/a	n/a
3209956	REC_START	n/a	LTP349	ltpFR2	8	16	n/a	n/a	n/a	n/a	0	0	0
3284956	REC_WORD_VV	wordpools/wasnorm_wordpool_576.txt	LTP349	ltpFR2	8	16	<>	-1	n/a	n/a	0	0	0
3286501	REST_REWET	n/a	LTP349	ltpFR2	8	16	n/a	n/a	n/a	n/a	0	0	0
3395297	WORD	wordpools/wasnorm_wordpool_576.txt	LTP349	ltpFR2	8	17	DRUG	501	n/a	n/a	0	0	0
3398096	WORD	wordpools/wasnorm_wordpool_576.txt	LTP349	ltpFR2	8	17	LAPEL	800	n/a	n/a	0	0	0
3400894	WORD	wordpools/wasnorm_wordpool_576.txt	LTP349	ltpFR2	8	17	BLOUSE	139	n/a	n/a	0	0	0
3403610	WORD	wordpools/wasnorm_wordpool_576.txt	LTP349	ltpFR2	8	17	BLENDER	136	n/a	n/a	0	0	0
3406242	WORD	wordpools/wasnorm_wordpool_576.txt	LTP349	ltpFR2	8	17	KNIFE	785	n/a	n/a	0	0	0
3408690	WORD	wordpools/wasnorm_wordpool_576.txt	LTP349	ltpFR2	8	17	BUBBLE	183	n/a	n/a	0	0	0
3411205	WORD	wordpools/wasnorm_wordpool_576.txt	LTP349	ltpFR2	8	17	GHETTO	633	n/a	n/a	0	0	0
3413805	WORD	wordpools/wasnorm_wordpool_576.txt	LTP349	ltpFR2	8	17	NOVEL	960	n/a	n/a	0	0	0
3416353	WORD	wordpools/wasnorm_wordpool_576.txt	LTP349	ltpFR2	8	17	VAGRANT	1544	n/a	n/a	0	0	0
3418785	WORD	wordpools/wasnorm_wordpool_576.txt	LTP349	ltpFR2	8	17	CHAUFFEUR	283	n/a	n/a	0	0	0
3421484	WORD	wordpools/wasnorm_wordpool_576.txt	LTP349	ltpFR2	8	17	BUGGY	188	n/a	n/a	0	0	0
3423916	WORD	wordpools/wasnorm_wordpool_576.txt	LTP349	ltpFR2	8	17	RAFT	1159	n/a	n/a	0	0	0
3426665	WORD	wordpools/wasnorm_wordpool_576.txt	LTP349	ltpFR2	8	17	LIGHTNING	820	n/a	n/a	0	0	0
3429463	WORD	wordpools/wasnorm_wordpool_576.txt	LTP349	ltpFR2	8	17	HONEY	713	n/a	n/a	0	0	0
3432179	WORD	wordpools/wasnorm_wordpool_576.txt	LTP349	ltpFR2	8	17	SPARROW	1347	n/a	n/a	0	0	0
3434927	WORD	wordpools/wasnorm_wordpool_576.txt	LTP349	ltpFR2	8	17	PUDDLE	1140	n/a	n/a	0	0	0
3437726	WORD	wordpools/wasnorm_wordpool_576.txt	LTP349	ltpFR2	8	17	BINDER	127	n/a	n/a	0	0	0
3440224	WORD	wordpools/wasnorm_wordpool_576.txt	LTP349	ltpFR2	8	17	CARRIAGE	248	n/a	n/a	0	0	0
3442857	WORD	wordpools/wasnorm_wordpool_576.txt	LTP349	ltpFR2	8	17	POWDER	1117	n/a	n/a	0	0	0
3445605	WORD	wordpools/wasnorm_wordpool_576.txt	LTP349	ltpFR2	8	17	GROUND	666	n/a	n/a	0	0	0
3448254	WORD	wordpools/wasnorm_wordpool_576.txt	LTP349	ltpFR2	8	17	OINTMENT	974	n/a	n/a	0	0	0
3450770	WORD	wordpools/wasnorm_wordpool_576.txt	LTP349	ltpFR2	8	17	GYMNAST	675	n/a	n/a	0	0	0
3453318	WORD	wordpools/wasnorm_wordpool_576.txt	LTP349	ltpFR2	8	17	JELLO	754	n/a	n/a	0	0	0
3455834	WORD	wordpools/wasnorm_wordpool_576.txt	LTP349	ltpFR2	8	17	FOOT	590	n/a	n/a	0	0	0
3457450	START	n/a	LTP349	ltpFR2	8	n/a	n/a	n/a	26	n/a	n/a	n/a	n/a
3458273	DISTRACTOR	n/a	LTP349	ltpFR2	8	17	n/a	n/a	n/a	n/a	0	0	0
3458282	PROB	n/a	LTP349	ltpFR2	8	n/a	n/a	n/a	26	23	9	6	8
3461881	PROB	n/a	LTP349	ltpFR2	8	n/a	n/a	n/a	26	11	8	2	1
3463696	PROB	n/a	LTP349	ltpFR2	8	n/a	n/a	n/a	26	7	1	2	4
3465912	PROB	n/a	LTP349	ltpFR2	8	n/a	n/a	n/a	26	24	7	9	8
3471992	PROB	n/a	LTP349	ltpFR2	8	n/a	n/a	n/a	26	6	3	1	2
3475357	PROB	n/a	LTP349	ltpFR2	8	n/a	n/a	n/a	26	11	3	4	4
3478139	PROB	n/a	LTP349	ltpFR2	8	n/a	n/a	n/a	26	7	5	1	1
3481450	STOP	n/a	LTP349	ltpFR2	8	n/a	n/a	n/a	26	n/a	n/a	n/a	n/a
3483321	REC_START	n/a	LTP349	ltpFR2	8	17	n/a	n/a	n/a	n/a	0	0	0
3487668	REC_WORD	wordpools/wasnorm_wordpool_576.txt	LTP349	ltpFR2	8	17	FOOT	590	n/a	n/a	0	0	0
3489687	REC_WORD	wordpools/wasnorm_wordpool_576.txt	LTP349	ltpFR2	8	17	GROUND	666	n/a	n/a	0	0	0
3496133	REC_WORD	wordpools/wasnorm_wordpool_576.txt	LTP349	ltpFR2	8	17	CHAUFFEUR	283	n/a	n/a	0	0	0
3497290	REC_WORD	wordpools/wasnorm_wordpool_576.txt	LTP349	ltpFR2	8	17	CARRIAGE	248	n/a	n/a	0	0	0
3498273	REC_WORD	wordpools/wasnorm_wordpool_576.txt	LTP349	ltpFR2	8	17	VAGRANT	1544	n/a	n/a	0	0	0
3499341	REC_WORD	wordpools/wasnorm_wordpool_576.txt	LTP349	ltpFR2	8	17	GHETTO	633	n/a	n/a	0	0	0
3514632	REC_WORD	wordpools/wasnorm_wordpool_576.txt	LTP349	ltpFR2	8	17	BLENDER	136	n/a	n/a	0	0	0
3515730	REC_WORD	wordpools/wasnorm_wordpool_576.txt	LTP349	ltpFR2	8	17	KNIFE	785	n/a	n/a	0	0	0
3526176	REC_WORD	wordpools/wasnorm_wordpool_576.txt	LTP349	ltpFR2	8	17	LIGHTNING	820	n/a	n/a	0	0	0
3573775	DISTRACTOR	n/a	LTP349	ltpFR2	8	18	n/a	n/a	n/a	n/a	0	0	0
3573775	START	n/a	LTP349	ltpFR2	8	n/a	n/a	n/a	27	n/a	n/a	n/a	n/a
3573792	PROB	n/a	LTP349	ltpFR2	8	n/a	n/a	n/a	27	8	2	4	2
3575591	PROB	n/a	LTP349	ltpFR2	8	n/a	n/a	n/a	27	20	3	8	9
3578956	PROB	n/a	LTP349	ltpFR2	8	n/a	n/a	n/a	27	11	4	2	5
3581538	PROB	n/a	LTP349	ltpFR2	8	n/a	n/a	n/a	27	21	5	7	9
3584903	PROB	n/a	LTP349	ltpFR2	8	n/a	n/a	n/a	27	13	4	3	6
3588085	PROB	n/a	LTP349	ltpFR2	8	n/a	n/a	n/a	27	12	2	7	3
3589950	PROB	n/a	LTP349	ltpFR2	8	n/a	n/a	n/a	27	17	6	8	3
3594731	PROB	n/a	LTP349	ltpFR2	8	n/a	n/a	n/a	27	18	9	6	3
3596716	STOP	n/a	LTP349	ltpFR2	8	n/a	n/a	n/a	27	n/a	n/a	n/a	n/a
3598913	WORD	wordpools/wasnorm_wordpool_576.txt	LTP349	ltpFR2	8	18	DRESSER	496	n/a	n/a	0	0	0
3601428	WORD	wordpools/wasnorm_wordpool_576.txt	LTP349	ltpFR2	8	18	CHEST	295	n/a	n/a	0	0	0
3603893	WORD	wordpools/wasnorm_wordpool_576.txt	LTP349	ltpFR2	8	18	OUTLAW	989	n/a	n/a	0	0	0
3606392	WORD	wordpools/wasnorm_wordpool_576.txt	LTP349	ltpFR2	8	18	PORK	1108	n/a	n/a	0	0	0
3609124	WORD	wordpools/wasnorm_wordpool_576.txt	LTP349	ltpFR2	8	18	BANK	83	n/a	n/a	0	0	0
3611673	WORD	wordpools/wasnorm_wordpool_576.txt	LTP349	ltpFR2	8	18	ROD	1203	n/a	n/a	0	0	0
3614488	WORD	wordpools/wasnorm_wordpool_576.txt	LTP349	ltpFR2	8	18	SUMMIT	1405	n/a	n/a	0	0	0
3617254	WORD	wordpools/wasnorm_wordpool_576.txt	LTP349	ltpFR2	8	18	PIZZA	1079	n/a	n/a	0	0	0
3619969	WORD	wordpools/wasnorm_wordpool_576.txt	LTP349	ltpFR2	8	18	SHORTCAKE	1292	n/a	n/a	0	0	0
3622551	WORD	wordpools/wasnorm_wordpool_576.txt	LTP349	ltpFR2	8	18	CONVICT	371	n/a	n/a	0	0	0
3625050	WORD	wordpools/wasnorm_wordpool_576.txt	LTP349	ltpFR2	8	18	JUGGLER	763	n/a	n/a	0	0	0
3627648	WORD	wordpools/wasnorm_wordpool_576.txt	LTP349	ltpFR2	8	18	CIGAR	308	n/a	n/a	0	0	0
3630181	WORD	wordpools/wasnorm_wordpool_576.txt	LTP349	ltpFR2	8	18	HEADBAND	696	n/a	n/a	0	0	0
3632962	WORD	wordpools/wasnorm_wordpool_576.txt	LTP349	ltpFR2	8	18	THREAD	1460	n/a	n/a	0	0	0
3635411	WORD	wordpools/wasnorm_wordpool_576.txt	LTP349	ltpFR2	8	18	CRITIC	410	n/a	n/a	0	0	0
3638177	WORD	wordpools/wasnorm_wordpool_576.txt	LTP349	ltpFR2	8	18	TABLE	1426	n/a	n/a	0	0	0
3640892	WORD	wordpools/wasnorm_wordpool_576.txt	LTP349	ltpFR2	8	18	YARN	1631	n/a	n/a	0	0	0
3643491	WORD	wordpools/wasnorm_wordpool_576.txt	LTP349	ltpFR2	8	18	CLAMP	316	n/a	n/a	0	0	0
3646106	WORD	wordpools/wasnorm_wordpool_576.txt	LTP349	ltpFR2	8	18	SLUG	1329	n/a	n/a	0	0	0
3648805	WORD	wordpools/wasnorm_wordpool_576.txt	LTP349	ltpFR2	8	18	CABBAGE	210	n/a	n/a	0	0	0
3651370	WORD	wordpools/wasnorm_wordpool_576.txt	LTP349	ltpFR2	8	18	COMPASS	358	n/a	n/a	0	0	0
3653935	WORD	wordpools/wasnorm_wordpool_576.txt	LTP349	ltpFR2	8	18	FRIAR	605	n/a	n/a	0	0	0
3656451	WORD	wordpools/wasnorm_wordpool_576.txt	LTP349	ltpFR2	8	18	PREACHER	1119	n/a	n/a	0	0	0
3659066	WORD	wordpools/wasnorm_wordpool_576.txt	LTP349	ltpFR2	8	18	ACTOR	5	n/a	n/a	0	0	0
3660682	START	n/a	LTP349	ltpFR2	8	n/a	n/a	n/a	28	n/a	n/a	n/a	n/a
3661647	DISTRACTOR	n/a	LTP349	ltpFR2	8	18	n/a	n/a	n/a	n/a	0	0	0
3661665	PROB	n/a	LTP349	ltpFR2	8	n/a	n/a	n/a	28	11	2	7	2
3663830	PROB	n/a	LTP349	ltpFR2	8	n/a	n/a	n/a	28	11	3	6	2
3667579	PROB	n/a	LTP349	ltpFR2	8	n/a	n/a	n/a	28	12	5	2	5
3669061	PROB	n/a	LTP349	ltpFR2	8	n/a	n/a	n/a	28	14	7	6	1
3670810	PROB	n/a	LTP349	ltpFR2	8	n/a	n/a	n/a	28	15	3	9	3
3672976	PROB	n/a	LTP349	ltpFR2	8	n/a	n/a	n/a	28	14	4	4	6
3674558	PROB	n/a	LTP349	ltpFR2	8	n/a	n/a	n/a	28	19	9	6	4
3676324	PROB	n/a	LTP349	ltpFR2	8	n/a	n/a	n/a	28	7	5	1	1
3677707	PROB	n/a	LTP349	ltpFR2	8	n/a	n/a	n/a	28	15	6	8	1
3679972	PROB	n/a	LTP349	ltpFR2	8	n/a	n/a	n/a	28	21	6	8	7
3683405	STOP	n/a	LTP349	ltpFR2	8	n/a	n/a	n/a	28	n/a	n/a	n/a	n/a
3686586	REC_START	n/a	LTP349	ltpFR2	8	18	n/a	n/a	n/a	n/a	0	0	0
3688611	REC_WORD	wordpools/wasnorm_wordpool_576.txt	LTP349	ltpFR2	8	18	CABBAGE	210	n/a	n/a	0	0	0
3690162	REC_WORD	wordpools/wasnorm_wordpool_576.txt	LTP349	ltpFR2	8	18	OUTLAW	989	n/a	n/a	0	0	0
3691610	REC_WORD	wordpools/wasnorm_wordpool_576.txt	LTP349	ltpFR2	8	18	PORK	1108	n/a	n/a	0	0	0
3693625	REC_WORD	wordpools/wasnorm_wordpool_576.txt	LTP349	ltpFR2	8	18	DRESSER	496	n/a	n/a	0	0	0
3695029	REC_WORD	wordpools/wasnorm_wordpool_576.txt	LTP349	ltpFR2	8	18	CHEST	295	n/a	n/a	0	0	0
3777041	WORD	wordpools/wasnorm_wordpool_576.txt	LTP349	ltpFR2	8	19	HOSTESS	723	n/a	n/a	0	0	0
3779523	WORD	wordpools/wasnorm_wordpool_576.txt	LTP349	ltpFR2	8	19	NEUTRON	947	n/a	n/a	0	0	0
3782288	WORD	wordpools/wasnorm_wordpool_576.txt	LTP349	ltpFR2	8	19	COUCH	386	n/a	n/a	0	0	0
3784787	WORD	wordpools/wasnorm_wordpool_576.txt	LTP349	ltpFR2	8	19	NAPKIN	937	n/a	n/a	0	0	0
3787502	WORD	wordpools/wasnorm_wordpool_576.txt	LTP349	ltpFR2	8	19	BUTCHER	203	n/a	n/a	0	0	0
3790151	WORD	wordpools/wasnorm_wordpool_576.txt	LTP349	ltpFR2	8	19	EUROPE	541	n/a	n/a	0	0	0
3792683	WORD	wordpools/wasnorm_wordpool_576.txt	LTP349	ltpFR2	8	19	TRANSPLANT	1496	n/a	n/a	0	0	0
3795197	WORD	wordpools/wasnorm_wordpool_576.txt	LTP349	ltpFR2	8	19	SHELTER	1282	n/a	n/a	0	0	0
3797980	WORD	wordpools/wasnorm_wordpool_576.txt	LTP349	ltpFR2	8	19	COUNTY	389	n/a	n/a	0	0	0
3800629	WORD	wordpools/wasnorm_wordpool_576.txt	LTP349	ltpFR2	8	19	SCALPEL	1243	n/a	n/a	0	0	0
3803128	WORD	wordpools/wasnorm_wordpool_576.txt	LTP349	ltpFR2	8	19	BLADE	134	n/a	n/a	0	0	0
3805660	WORD	wordpools/wasnorm_wordpool_576.txt	LTP349	ltpFR2	8	19	KLEENEX	782	n/a	n/a	0	0	0
3808175	WORD	wordpools/wasnorm_wordpool_576.txt	LTP349	ltpFR2	8	19	WASHER	1592	n/a	n/a	0	0	0
3810757	WORD	wordpools/wasnorm_wordpool_576.txt	LTP349	ltpFR2	8	19	DUST	508	n/a	n/a	0	0	0
3813506	WORD	wordpools/wasnorm_wordpool_576.txt	LTP349	ltpFR2	8	19	LILY	821	n/a	n/a	0	0	0
3816321	WORD	wordpools/wasnorm_wordpool_576.txt	LTP349	ltpFR2	8	19	SKIRT	1319	n/a	n/a	0	0	0
3819087	WORD	wordpools/wasnorm_wordpool_576.txt	LTP349	ltpFR2	8	19	CABIN	211	n/a	n/a	0	0	0
3821535	WORD	wordpools/wasnorm_wordpool_576.txt	LTP349	ltpFR2	8	19	BRICK	172	n/a	n/a	0	0	0
3824134	WORD	wordpools/wasnorm_wordpool_576.txt	LTP349	ltpFR2	8	19	BANKER	84	n/a	n/a	0	0	0
3826700	WORD	wordpools/wasnorm_wordpool_576.txt	LTP349	ltpFR2	8	19	COUNTRY	388	n/a	n/a	0	0	0
3829148	WORD	wordpools/wasnorm_wordpool_576.txt	LTP349	ltpFR2	8	19	PLAID	1080	n/a	n/a	0	0	0
3831614	WORD	wordpools/wasnorm_wordpool_576.txt	LTP349	ltpFR2	8	19	SHOVEL	1295	n/a	n/a	0	0	0
3834163	WORD	wordpools/wasnorm_wordpool_576.txt	LTP349	ltpFR2	8	19	DANDRUFF	439	n/a	n/a	0	0	0
3836811	WORD	wordpools/wasnorm_wordpool_576.txt	LTP349	ltpFR2	8	19	TWEEZERS	1526	n/a	n/a	0	0	0
3838427	START	n/a	LTP349	ltpFR2	8	n/a	n/a	n/a	29	n/a	n/a	n/a	n/a
3839231	DISTRACTOR	n/a	LTP349	ltpFR2	8	19	n/a	n/a	n/a	n/a	0	0	0
3839243	PROB	n/a	LTP349	ltpFR2	8	n/a	n/a	n/a	29	20	8	9	3
3846906	PROB	n/a	LTP349	ltpFR2	8	n/a	n/a	n/a	29	16	1	8	7
3848872	PROB	n/a	LTP349	ltpFR2	8	n/a	n/a	n/a	29	5	2	2	1
3850654	PROB	n/a	LTP349	ltpFR2	8	n/a	n/a	n/a	29	13	1	9	3
3852186	PROB	n/a	LTP349	ltpFR2	8	n/a	n/a	n/a	29	8	1	2	5
3854586	PROB	n/a	LTP349	ltpFR2	8	n/a	n/a	n/a	29	17	6	5	6
3858067	PROB	n/a	LTP349	ltpFR2	8	n/a	n/a	n/a	29	8	5	1	2
3862427	STOP	n/a	LTP349	ltpFR2	8	n/a	n/a	n/a	29	n/a	n/a	n/a	n/a
3864282	REC_START	n/a	LTP349	ltpFR2	8	19	n/a	n/a	n/a	n/a	0	0	0
3892312	REC_WORD	wordpools/wasnorm_wordpool_576.txt	LTP349	ltpFR2	8	19	LAPEL	800	n/a	n/a	0	0	0
3894211	REC_WORD	wordpools/wasnorm_wordpool_576.txt	LTP349	ltpFR2	8	19	BLOUSE	139	n/a	n/a	0	0	0
3903617	REC_WORD	wordpools/wasnorm_wordpool_576.txt	LTP349	ltpFR2	8	19	LILY	821	n/a	n/a	0	0	0
3906442	REC_WORD	wordpools/wasnorm_wordpool_576.txt	LTP349	ltpFR2	8	19	SKIRT	1319	n/a	n/a	0	0	0
3911589	REC_WORD	wordpools/wasnorm_wordpool_576.txt	LTP349	ltpFR2	8	19	KLEENEX	782	n/a	n/a	0	0	0
3917344	REC_WORD	wordpools/wasnorm_wordpool_576.txt	LTP349	ltpFR2	8	19	HOSTESS	723	n/a	n/a	0	0	0
3920284	REC_WORD	wordpools/wasnorm_wordpool_576.txt	LTP349	ltpFR2	8	19	COUCH	386	n/a	n/a	0	0	0
3921436	REC_WORD	wordpools/wasnorm_wordpool_576.txt	LTP349	ltpFR2	8	19	SHELTER	1282	n/a	n/a	0	0	0
3922983	REC_WORD	wordpools/wasnorm_wordpool_576.txt	LTP349	ltpFR2	8	19	BUTCHER	203	n/a	n/a	0	0	0
3925595	REC_WORD	wordpools/wasnorm_wordpool_576.txt	LTP349	ltpFR2	8	19	COUNTY	389	n/a	n/a	0	0	0
3926583	REC_WORD	wordpools/wasnorm_wordpool_576.txt	LTP349	ltpFR2	8	19	COUNTRY	388	n/a	n/a	0	0	0
3927633	REC_WORD	wordpools/wasnorm_wordpool_576.txt	LTP349	ltpFR2	8	19	EUROPE	541	n/a	n/a	0	0	0
3935672	REC_WORD	wordpools/wasnorm_wordpool_576.txt	LTP349	ltpFR2	8	19	SCALPEL	1243	n/a	n/a	0	0	0
3937035	REC_WORD	wordpools/wasnorm_wordpool_576.txt	LTP349	ltpFR2	8	19	BLADE	134	n/a	n/a	0	0	0
3937808	REC_WORD	wordpools/wasnorm_wordpool_576.txt	LTP349	ltpFR2	8	19	TRANSPLANT	1496	n/a	n/a	0	0	0
3954769	WORD	wordpools/wasnorm_wordpool_576.txt	LTP349	ltpFR2	8	20	MOTOR	922	n/a	n/a	0	0	0
3957335	WORD	wordpools/wasnorm_wordpool_576.txt	LTP349	ltpFR2	8	20	TURTLE	1522	n/a	n/a	0	0	0
3959867	WORD	wordpools/wasnorm_wordpool_576.txt	LTP349	ltpFR2	8	20	PICTURE	1061	n/a	n/a	0	0	0
3962615	WORD	wordpools/wasnorm_wordpool_576.txt	LTP349	ltpFR2	8	20	PRINCE	1124	n/a	n/a	0	0	0
3965247	WORD	wordpools/wasnorm_wordpool_576.txt	LTP349	ltpFR2	8	20	LAMP	798	n/a	n/a	0	0	0
3967879	WORD	wordpools/wasnorm_wordpool_576.txt	LTP349	ltpFR2	8	20	PERCH	1048	n/a	n/a	0	0	0
3970478	WORD	wordpools/wasnorm_wordpool_576.txt	LTP349	ltpFR2	8	20	LION	827	n/a	n/a	0	0	0
3973277	WORD	wordpools/wasnorm_wordpool_576.txt	LTP349	ltpFR2	8	20	SUBWAY	1400	n/a	n/a	0	0	0
3975726	WORD	wordpools/wasnorm_wordpool_576.txt	LTP349	ltpFR2	8	20	SNAIL	1332	n/a	n/a	0	0	0
3978274	WORD	wordpools/wasnorm_wordpool_576.txt	LTP349	ltpFR2	8	20	SCARECROW	1245	n/a	n/a	0	0	0
3980940	WORD	wordpools/wasnorm_wordpool_576.txt	LTP349	ltpFR2	8	20	BANJO	82	n/a	n/a	0	0	0
3983605	WORD	wordpools/wasnorm_wordpool_576.txt	LTP349	ltpFR2	8	20	PAIL	1002	n/a	n/a	0	0	0
3986287	WORD	wordpools/wasnorm_wordpool_576.txt	LTP349	ltpFR2	8	20	VELVET	1555	n/a	n/a	0	0	0
3988836	WORD	wordpools/wasnorm_wordpool_576.txt	LTP349	ltpFR2	8	20	SILK	1307	n/a	n/a	0	0	0
3991301	WORD	wordpools/wasnorm_wordpool_576.txt	LTP349	ltpFR2	8	20	STAPLE	1371	n/a	n/a	0	0	0
3994083	WORD	wordpools/wasnorm_wordpool_576.txt	LTP349	ltpFR2	8	20	SERVANT	1271	n/a	n/a	0	0	0
3996549	WORD	wordpools/wasnorm_wordpool_576.txt	LTP349	ltpFR2	8	20	PARROT	1015	n/a	n/a	0	0	0
3999081	WORD	wordpools/wasnorm_wordpool_576.txt	LTP349	ltpFR2	8	20	HATCHET	691	n/a	n/a	0	0	0
4001879	WORD	wordpools/wasnorm_wordpool_576.txt	LTP349	ltpFR2	8	20	SALMON	1227	n/a	n/a	0	0	0
4004378	WORD	wordpools/wasnorm_wordpool_576.txt	LTP349	ltpFR2	8	20	BROOK	177	n/a	n/a	0	0	0
4006827	WORD	wordpools/wasnorm_wordpool_576.txt	LTP349	ltpFR2	8	20	COLLEGE	346	n/a	n/a	0	0	0
4009392	WORD	wordpools/wasnorm_wordpool_576.txt	LTP349	ltpFR2	8	20	COURSE	390	n/a	n/a	0	0	0
4012008	WORD	wordpools/wasnorm_wordpool_576.txt	LTP349	ltpFR2	8	20	SAUSAGE	1238	n/a	n/a	0	0	0
4014440	WORD	wordpools/wasnorm_wordpool_576.txt	LTP349	ltpFR2	8	20	REPORT	1184	n/a	n/a	0	0	0
4016056	START	n/a	LTP349	ltpFR2	8	n/a	n/a	n/a	30	n/a	n/a	n/a	n/a
4017093	DISTRACTOR	n/a	LTP349	ltpFR2	8	20	n/a	n/a	n/a	n/a	0	0	0
4017105	PROB	n/a	LTP349	ltpFR2	8	n/a	n/a	n/a	30	17	8	6	3
4019854	PROB	n/a	LTP349	ltpFR2	8	n/a	n/a	n/a	30	10	2	2	6
4021769	PROB	n/a	LTP349	ltpFR2	8	n/a	n/a	n/a	30	19	9	2	8
4023602	PROB	n/a	LTP349	ltpFR2	8	n/a	n/a	n/a	30	5	2	1	2
4025634	PROB	n/a	LTP349	ltpFR2	8	n/a	n/a	n/a	30	10	4	2	4
4027583	PROB	n/a	LTP349	ltpFR2	8	n/a	n/a	n/a	30	14	2	7	5
4029582	PROB	n/a	LTP349	ltpFR2	8	n/a	n/a	n/a	30	12	1	7	4
4031848	PROB	n/a	LTP349	ltpFR2	8	n/a	n/a	n/a	30	16	9	6	1
4036679	PROB	n/a	LTP349	ltpFR2	8	n/a	n/a	n/a	30	16	7	1	8
4039661	STOP	n/a	LTP349	ltpFR2	8	n/a	n/a	n/a	30	n/a	n/a	n/a	n/a
4041943	REC_START	n/a	LTP349	ltpFR2	8	20	n/a	n/a	n/a	n/a	0	0	0
4098203	REC_WORD	wordpools/wasnorm_wordpool_576.txt	LTP349	ltpFR2	8	20	CABIN	211	n/a	n/a	0	0	0
4132398	DISTRACTOR	n/a	LTP349	ltpFR2	8	21	n/a	n/a	n/a	n/a	0	0	0
4132398	START	n/a	LTP349	ltpFR2	8	n/a	n/a	n/a	31	n/a	n/a	n/a	n/a
4132414	PROB	n/a	LTP349	ltpFR2	8	n/a	n/a	n/a	31	15	9	4	2
4134530	PROB	n/a	LTP349	ltpFR2	8	n/a	n/a	n/a	31	14	8	2	5
4137678	PROB	n/a	LTP349	ltpFR2	8	n/a	n/a	n/a	31	13	8	1	4
4140344	PROB	n/a	LTP349	ltpFR2	8	n/a	n/a	n/a	31	17	5	6	6
4142310	PROB	n/a	LTP349	ltpFR2	8	n/a	n/a	n/a	31	13	3	9	1
4143792	PROB	n/a	LTP349	ltpFR2	8	n/a	n/a	n/a	31	13	3	9	1
4145641	PROB	n/a	LTP349	ltpFR2	8	n/a	n/a	n/a	31	13	5	3	5
4147374	PROB	n/a	LTP349	ltpFR2	8	n/a	n/a	n/a	31	10	1	6	3
4149188	PROB	n/a	LTP349	ltpFR2	8	n/a	n/a	n/a	31	10	4	5	1
4156398	STOP	n/a	LTP349	ltpFR2	8	n/a	n/a	n/a	31	n/a	n/a	n/a	n/a
4157302	WORD	wordpools/wasnorm_wordpool_576.txt	LTP349	ltpFR2	8	21	STATUE	1374	n/a	n/a	0	0	0
4159901	WORD	wordpools/wasnorm_wordpool_576.txt	LTP349	ltpFR2	8	21	SPONGE	1355	n/a	n/a	0	0	0
4162616	WORD	wordpools/wasnorm_wordpool_576.txt	LTP349	ltpFR2	8	21	ACTRESS	6	n/a	n/a	0	0	0
4165331	WORD	wordpools/wasnorm_wordpool_576.txt	LTP349	ltpFR2	8	21	CREVICE	405	n/a	n/a	0	0	0
4167763	WORD	wordpools/wasnorm_wordpool_576.txt	LTP349	ltpFR2	8	21	RACKET	1155	n/a	n/a	0	0	0
4170579	WORD	wordpools/wasnorm_wordpool_576.txt	LTP349	ltpFR2	8	21	BODY	145	n/a	n/a	0	0	0
4173227	WORD	wordpools/wasnorm_wordpool_576.txt	LTP349	ltpFR2	8	21	SPOUSE	1358	n/a	n/a	0	0	0
4176009	WORD	wordpools/wasnorm_wordpool_576.txt	LTP349	ltpFR2	8	21	CATTLE	261	n/a	n/a	0	0	0
4178708	WORD	wordpools/wasnorm_wordpool_576.txt	LTP349	ltpFR2	8	21	DAISY	435	n/a	n/a	0	0	0
4181407	WORD	wordpools/wasnorm_wordpool_576.txt	LTP349	ltpFR2	8	21	BEAVER	109	n/a	n/a	0	0	0
4184072	WORD	wordpools/wasnorm_wordpool_576.txt	LTP349	ltpFR2	8	21	ASIA	46	n/a	n/a	0	0	0
4186804	WORD	wordpools/wasnorm_wordpool_576.txt	LTP349	ltpFR2	8	21	WARDROBE	1587	n/a	n/a	0	0	0
4189353	WORD	wordpools/wasnorm_wordpool_576.txt	LTP349	ltpFR2	8	21	COLONEL	348	n/a	n/a	0	0	0
4191952	WORD	wordpools/wasnorm_wordpool_576.txt	LTP349	ltpFR2	8	21	MARKER	870	n/a	n/a	0	0	0
4194484	WORD	wordpools/wasnorm_wordpool_576.txt	LTP349	ltpFR2	8	21	BATHTUB	100	n/a	n/a	0	0	0
4196966	WORD	wordpools/wasnorm_wordpool_576.txt	LTP349	ltpFR2	8	21	LEG	809	n/a	n/a	0	0	0
4199731	WORD	wordpools/wasnorm_wordpool_576.txt	LTP349	ltpFR2	8	21	ANKLE	24	n/a	n/a	0	0	0
4202180	WORD	wordpools/wasnorm_wordpool_576.txt	LTP349	ltpFR2	8	21	LAVA	804	n/a	n/a	0	0	0
4204662	WORD	wordpools/wasnorm_wordpool_576.txt	LTP349	ltpFR2	8	21	STONE	1385	n/a	n/a	0	0	0
4207193	WORD	wordpools/wasnorm_wordpool_576.txt	LTP349	ltpFR2	8	21	FLASK	576	n/a	n/a	0	0	0
4209859	WORD	wordpools/wasnorm_wordpool_576.txt	LTP349	ltpFR2	8	21	MILK	895	n/a	n/a	0	0	0
4212658	WORD	wordpools/wasnorm_wordpool_576.txt	LTP349	ltpFR2	8	21	MUSTARD	935	n/a	n/a	0	0	0
4215189	WORD	wordpools/wasnorm_wordpool_576.txt	LTP349	ltpFR2	8	21	RELISH	1183	n/a	n/a	0	0	0
4218005	WORD	wordpools/wasnorm_wordpool_576.txt	LTP349	ltpFR2	8	21	LETTUCE	814	n/a	n/a	0	0	0
4219621	START	n/a	LTP349	ltpFR2	8	n/a	n/a	n/a	32	n/a	n/a	n/a	n/a
4220584	DISTRACTOR	n/a	LTP349	ltpFR2	8	21	n/a	n/a	n/a	n/a	0	0	0
4220587	PROB	n/a	LTP349	ltpFR2	8	n/a	n/a	n/a	32	7	2	2	3
4224602	PROB	n/a	LTP349	ltpFR2	8	n/a	n/a	n/a	32	14	5	4	5
4225985	PROB	n/a	LTP349	ltpFR2	8	n/a	n/a	n/a	32	18	6	7	5
4233531	PROB	n/a	LTP349	ltpFR2	8	n/a	n/a	n/a	32	16	7	6	3
4235696	PROB	n/a	LTP349	ltpFR2	8	n/a	n/a	n/a	32	17	1	9	7
4237129	PROB	n/a	LTP349	ltpFR2	8	n/a	n/a	n/a	32	15	9	1	5
4239012	PROB	n/a	LTP349	ltpFR2	8	n/a	n/a	n/a	32	15	4	8	3
4241760	PROB	n/a	LTP349	ltpFR2	8	n/a	n/a	n/a	32	15	4	8	5
4243453	STOP	n/a	LTP349	ltpFR2	8	n/a	n/a	n/a	32	n/a	n/a	n/a	n/a
4245443	REC_START	n/a	LTP349	ltpFR2	8	21	n/a	n/a	n/a	n/a	0	0	0
4246917	REC_WORD	wordpools/wasnorm_wordpool_576.txt	LTP349	ltpFR2	8	21	CATTLE	261	n/a	n/a	0	0	0
4247952	REC_WORD	wordpools/wasnorm_wordpool_576.txt	LTP349	ltpFR2	8	21	LETTUCE	814	n/a	n/a	0	0	0
4249005	REC_WORD	wordpools/wasnorm_wordpool_576.txt	LTP349	ltpFR2	8	21	RELISH	1183	n/a	n/a	0	0	0
4250239	REC_WORD	wordpools/wasnorm_wordpool_576.txt	LTP349	ltpFR2	8	21	KETCHUP	771	n/a	n/a	0	0	0
4252736	REC_WORD_VV	wordpools/wasnorm_wordpool_576.txt	LTP349	ltpFR2	8	21	<>	-1	n/a	n/a	0	0	0
4253376	REC_WORD	wordpools/wasnorm_wordpool_576.txt	LTP349	ltpFR2	8	21	MUSTARD	935	n/a	n/a	0	0	0
4255064	REC_WORD	wordpools/wasnorm_wordpool_576.txt	LTP349	ltpFR2	8	21	MILK	895	n/a	n/a	0	0	0
4335880	DISTRACTOR	n/a	LTP349	ltpFR2	8	22	n/a	n/a	n/a	n/a	0	0	0
4335880	START	n/a	LTP349	ltpFR2	8	n/a	n/a	n/a	33	n/a	n/a	n/a	n/a
4335897	PROB	n/a	LTP349	ltpFR2	8	n/a	n/a	n/a	33	16	7	4	5
4338211	PROB	n/a	LTP349	ltpFR2	8	n/a	n/a	n/a	33	15	5	6	4
4339945	PROB	n/a	LTP349	ltpFR2	8	n/a	n/a	n/a	33	11	3	6	2
4342260	PROB	n/a	LTP349	ltpFR2	8	n/a	n/a	n/a	33	12	5	2	5
4343676	PROB	n/a	LTP349	ltpFR2	8	n/a	n/a	n/a	33	17	5	5	7
4345575	PROB	n/a	LTP349	ltpFR2	8	n/a	n/a	n/a	33	13	2	8	3
4347491	PROB	n/a	LTP349	ltpFR2	8	n/a	n/a	n/a	33	9	1	4	4
4351156	PROB	n/a	LTP349	ltpFR2	8	n/a	n/a	n/a	33	11	7	3	1
4353355	PROB	n/a	LTP349	ltpFR2	8	n/a	n/a	n/a	33	20	8	7	5
4355837	PROB	n/a	LTP349	ltpFR2	8	n/a	n/a	n/a	33	10	5	2	3
4359879	STOP	n/a	LTP349	ltpFR2	8	n/a	n/a	n/a	33	n/a	n/a	n/a	n/a
4361084	WORD	wordpools/wasnorm_wordpool_576.txt	LTP349	ltpFR2	8	22	GRILL	661	n/a	n/a	0	0	0
4363550	WORD	wordpools/wasnorm_wordpool_576.txt	LTP349	ltpFR2	8	22	QUEEN	1149	n/a	n/a	0	0	0
4366197	WORD	wordpools/wasnorm_wordpool_576.txt	LTP349	ltpFR2	8	22	RAZOR	1171	n/a	n/a	0	0	0
4368680	WORD	wordpools/wasnorm_wordpool_576.txt	LTP349	ltpFR2	8	22	CELLAR	267	n/a	n/a	0	0	0
4371379	WORD	wordpools/wasnorm_wordpool_576.txt	LTP349	ltpFR2	8	22	HORNET	718	n/a	n/a	0	0	0
4373878	WORD	wordpools/wasnorm_wordpool_576.txt	LTP349	ltpFR2	8	22	SUPPER	1411	n/a	n/a	0	0	0
4376443	WORD	wordpools/wasnorm_wordpool_576.txt	LTP349	ltpFR2	8	22	FLOWER	584	n/a	n/a	0	0	0
4379142	WORD	wordpools/wasnorm_wordpool_576.txt	LTP349	ltpFR2	8	22	INMATE	738	n/a	n/a	0	0	0
4381674	WORD	wordpools/wasnorm_wordpool_576.txt	LTP349	ltpFR2	8	22	CATCHER	258	n/a	n/a	0	0	0
4384239	WORD	wordpools/wasnorm_wordpool_576.txt	LTP349	ltpFR2	8	22	MISSILE	900	n/a	n/a	0	0	0
4386788	WORD	wordpools/wasnorm_wordpool_576.txt	LTP349	ltpFR2	8	22	ROCKET	1202	n/a	n/a	0	0	0
4389254	WORD	wordpools/wasnorm_wordpool_576.txt	LTP349	ltpFR2	8	22	LASER	801	n/a	n/a	0	0	0
4391803	WORD	wordpools/wasnorm_wordpool_576.txt	LTP349	ltpFR2	8	22	CONCERT	360	n/a	n/a	0	0	0
4394234	WORD	wordpools/wasnorm_wordpool_576.txt	LTP349	ltpFR2	8	22	CHAMPAGNE	278	n/a	n/a	0	0	0
4396683	WORD	wordpools/wasnorm_wordpool_576.txt	LTP349	ltpFR2	8	22	CRICKET	408	n/a	n/a	0	0	0
4399415	WORD	wordpools/wasnorm_wordpool_576.txt	LTP349	ltpFR2	8	22	BLOCKADE	137	n/a	n/a	0	0	0
4401847	WORD	wordpools/wasnorm_wordpool_576.txt	LTP349	ltpFR2	8	22	GANGSTER	620	n/a	n/a	0	0	0
4404396	WORD	wordpools/wasnorm_wordpool_576.txt	LTP349	ltpFR2	8	22	LADDER	793	n/a	n/a	0	0	0
4407028	WORD	wordpools/wasnorm_wordpool_576.txt	LTP349	ltpFR2	8	22	SERVER	1272	n/a	n/a	0	0	0
4409527	WORD	wordpools/wasnorm_wordpool_576.txt	LTP349	ltpFR2	8	22	WAITRESS	1581	n/a	n/a	0	0	0
4411976	WORD	wordpools/wasnorm_wordpool_576.txt	LTP349	ltpFR2	8	22	BLACKBOARD	133	n/a	n/a	0	0	0
4414441	WORD	wordpools/wasnorm_wordpool_576.txt	LTP349	ltpFR2	8	22	MAILMAN	858	n/a	n/a	0	0	0
4417273	WORD	wordpools/wasnorm_wordpool_576.txt	LTP349	ltpFR2	8	22	STICKER	1382	n/a	n/a	0	0	0
4419788	WORD	wordpools/wasnorm_wordpool_576.txt	LTP349	ltpFR2	8	22	BUG	187	n/a	n/a	0	0	0
4421405	START	n/a	LTP349	ltpFR2	8	n/a	n/a	n/a	34	n/a	n/a	n/a	n/a
4422399	DISTRACTOR	n/a	LTP349	ltpFR2	8	22	n/a	n/a	n/a	n/a	0	0	0
4422404	PROB	n/a	LTP349	ltpFR2	8	n/a	n/a	n/a	34	17	5	6	6
4424753	PROB	n/a	LTP349	ltpFR2	8	n/a	n/a	n/a	34	18	7	8	3
4426752	PROB	n/a	LTP349	ltpFR2	8	n/a	n/a	n/a	34	11	3	5	2
4428967	PROB	n/a	LTP349	ltpFR2	8	n/a	n/a	n/a	34	18	7	5	6
4433515	PROB	n/a	LTP349	ltpFR2	8	n/a	n/a	n/a	34	14	1	9	4
4434848	PROB	n/a	LTP349	ltpFR2	8	n/a	n/a	n/a	34	17	4	4	9
4437047	PROB	n/a	LTP349	ltpFR2	8	n/a	n/a	n/a	34	24	8	9	7
4440145	PROB	n/a	LTP349	ltpFR2	8	n/a	n/a	n/a	34	16	2	9	5
4445404	STOP	n/a	LTP349	ltpFR2	8	n/a	n/a	n/a	34	n/a	n/a	n/a	n/a
4447175	REC_START	n/a	LTP349	ltpFR2	8	22	n/a	n/a	n/a	n/a	0	0	0
4448796	REC_WORD	wordpools/wasnorm_wordpool_576.txt	LTP349	ltpFR2	8	22	GRILL	661	n/a	n/a	0	0	0
4450123	REC_WORD	wordpools/wasnorm_wordpool_576.txt	LTP349	ltpFR2	8	22	QUEEN	1149	n/a	n/a	0	0	0
4537630	WORD	wordpools/wasnorm_wordpool_576.txt	LTP349	ltpFR2	8	23	CRAYON	401	n/a	n/a	0	0	0
4540279	WORD	wordpools/wasnorm_wordpool_576.txt	LTP349	ltpFR2	8	23	TEACHER	1440	n/a	n/a	0	0	0
4543094	WORD	wordpools/wasnorm_wordpool_576.txt	LTP349	ltpFR2	8	23	PALACE	1006	n/a	n/a	0	0	0
4545559	WORD	wordpools/wasnorm_wordpool_576.txt	LTP349	ltpFR2	8	23	YACHT	1629	n/a	n/a	0	0	0
4548075	WORD	wordpools/wasnorm_wordpool_576.txt	LTP349	ltpFR2	8	23	COIN	343	n/a	n/a	0	0	0
4550623	WORD	wordpools/wasnorm_wordpool_576.txt	LTP349	ltpFR2	8	23	TOURIST	1488	n/a	n/a	0	0	0
4553289	WORD	wordpools/wasnorm_wordpool_576.txt	LTP349	ltpFR2	8	23	SNAKE	1333	n/a	n/a	0	0	0
4555771	WORD	wordpools/wasnorm_wordpool_576.txt	LTP349	ltpFR2	8	23	RATTLE	1170	n/a	n/a	0	0	0
4558270	WORD	wordpools/wasnorm_wordpool_576.txt	LTP349	ltpFR2	8	23	ORCHID	982	n/a	n/a	0	0	0
4560702	WORD	wordpools/wasnorm_wordpool_576.txt	LTP349	ltpFR2	8	23	SODA	1341	n/a	n/a	0	0	0
4563250	WORD	wordpools/wasnorm_wordpool_576.txt	LTP349	ltpFR2	8	23	LOFT	840	n/a	n/a	0	0	0
4566016	WORD	wordpools/wasnorm_wordpool_576.txt	LTP349	ltpFR2	8	23	DRILL	497	n/a	n/a	0	0	0
4568498	WORD	wordpools/wasnorm_wordpool_576.txt	LTP349	ltpFR2	8	23	CUSTARD	429	n/a	n/a	0	0	0
4571180	WORD	wordpools/wasnorm_wordpool_576.txt	LTP349	ltpFR2	8	23	ITEM	746	n/a	n/a	0	0	0
4573978	WORD	wordpools/wasnorm_wordpool_576.txt	LTP349	ltpFR2	8	23	COFFEE	341	n/a	n/a	0	0	0
4576794	WORD	wordpools/wasnorm_wordpool_576.txt	LTP349	ltpFR2	8	23	NIGHTGOWN	953	n/a	n/a	0	0	0
4579442	WORD	wordpools/wasnorm_wordpool_576.txt	LTP349	ltpFR2	8	23	PLASTER	1085	n/a	n/a	0	0	0
4582207	WORD	wordpools/wasnorm_wordpool_576.txt	LTP349	ltpFR2	8	23	DENIM	446	n/a	n/a	0	0	0
4584657	WORD	wordpools/wasnorm_wordpool_576.txt	LTP349	ltpFR2	8	23	POCKET	1093	n/a	n/a	0	0	0
4587239	WORD	wordpools/wasnorm_wordpool_576.txt	LTP349	ltpFR2	8	23	MATCH	878	n/a	n/a	0	0	0
4589871	WORD	wordpools/wasnorm_wordpool_576.txt	LTP349	ltpFR2	8	23	TART	1436	n/a	n/a	0	0	0
4592319	WORD	wordpools/wasnorm_wordpool_576.txt	LTP349	ltpFR2	8	23	MASK	876	n/a	n/a	0	0	0
4595085	WORD	wordpools/wasnorm_wordpool_576.txt	LTP349	ltpFR2	8	23	BRANDY	169	n/a	n/a	0	0	0
4597767	WORD	wordpools/wasnorm_wordpool_576.txt	LTP349	ltpFR2	8	23	DIME	466	n/a	n/a	0	0	0
4599383	START	n/a	LTP349	ltpFR2	8	n/a	n/a	n/a	35	n/a	n/a	n/a	n/a
4600426	DISTRACTOR	n/a	LTP349	ltpFR2	8	23	n/a	n/a	n/a	n/a	0	0	0
4600432	PROB	n/a	LTP349	ltpFR2	8	n/a	n/a	n/a	35	15	6	4	5
4606046	PROB	n/a	LTP349	ltpFR2	8	n/a	n/a	n/a	35	21	8	8	5
4608595	PROB	n/a	LTP349	ltpFR2	8	n/a	n/a	n/a	35	21	6	7	8
4613509	PROB	n/a	LTP349	ltpFR2	8	n/a	n/a	n/a	35	19	8	2	9
4615958	PROB	n/a	LTP349	ltpFR2	8	n/a	n/a	n/a	35	18	1	8	9
4618057	PROB	n/a	LTP349	ltpFR2	8	n/a	n/a	n/a	35	7	3	2	2
4620739	PROB	n/a	LTP349	ltpFR2	8	n/a	n/a	n/a	35	9	1	1	7
4622829	STOP	n/a	LTP349	ltpFR2	8	n/a	n/a	n/a	35	n/a	n/a	n/a	n/a
4625270	REC_START	n/a	LTP349	ltpFR2	8	23	n/a	n/a	n/a	n/a	0	0	0
4627693	REC_WORD	wordpools/wasnorm_wordpool_576.txt	LTP349	ltpFR2	8	23	POCKET	1093	n/a	n/a	0	0	0
4638898	REC_WORD	wordpools/wasnorm_wordpool_576.txt	LTP349	ltpFR2	8	23	MEDAL	885	n/a	n/a	0	0	0
4641153	REC_WORD_VV	wordpools/wasnorm_wordpool_576.txt	LTP349	ltpFR2	8	23	<>	-1	n/a	n/a	0	0	0
4715725	WORD	wordpools/wasnorm_wordpool_576.txt	LTP349	ltpFR2	8	24	PEACH	1031	n/a	n/a	0	0	0
4718357	WORD	wordpools/wasnorm_wordpool_576.txt	LTP349	ltpFR2	8	24	DONOR	485	n/a	n/a	0	0	0
4720806	WORD	wordpools/wasnorm_wordpool_576.txt	LTP349	ltpFR2	8	24	PUPPY	1144	n/a	n/a	0	0	0
4723321	WORD	wordpools/wasnorm_wordpool_576.txt	LTP349	ltpFR2	8	24	BURGLAR	200	n/a	n/a	0	0	0
4726003	WORD	wordpools/wasnorm_wordpool_576.txt	LTP349	ltpFR2	8	24	FLESH	579	n/a	n/a	0	0	0
4728502	WORD	wordpools/wasnorm_wordpool_576.txt	LTP349	ltpFR2	8	24	SEAFOOD	1260	n/a	n/a	0	0	0
4731150	WORD	wordpools/wasnorm_wordpool_576.txt	LTP349	ltpFR2	8	24	MAMMAL	861	n/a	n/a	0	0	0
4733666	WORD	wordpools/wasnorm_wordpool_576.txt	LTP349	ltpFR2	8	24	MAILBOX	857	n/a	n/a	0	0	0
4736231	WORD	wordpools/wasnorm_wordpool_576.txt	LTP349	ltpFR2	8	24	SPOOL	1356	n/a	n/a	0	0	0
4738963	WORD	wordpools/wasnorm_wordpool_576.txt	LTP349	ltpFR2	8	24	DORM	488	n/a	n/a	0	0	0
4741462	WORD	wordpools/wasnorm_wordpool_576.txt	LTP349	ltpFR2	8	24	COTTAGE	384	n/a	n/a	0	0	0
4744044	WORD	wordpools/wasnorm_wordpool_576.txt	LTP349	ltpFR2	8	24	PUDDING	1139	n/a	n/a	0	0	0
4746709	WORD	wordpools/wasnorm_wordpool_576.txt	LTP349	ltpFR2	8	24	COSTUME	383	n/a	n/a	0	0	0
4749325	WORD	wordpools/wasnorm_wordpool_576.txt	LTP349	ltpFR2	8	24	POPCORN	1104	n/a	n/a	0	0	0
4751940	WORD	wordpools/wasnorm_wordpool_576.txt	LTP349	ltpFR2	8	24	SALT	1229	n/a	n/a	0	0	0
4754472	WORD	wordpools/wasnorm_wordpool_576.txt	LTP349	ltpFR2	8	24	SALAD	1224	n/a	n/a	0	0	0
4756904	WORD	wordpools/wasnorm_wordpool_576.txt	LTP349	ltpFR2	8	24	BARREL	91	n/a	n/a	0	0	0
4759386	WORD	wordpools/wasnorm_wordpool_576.txt	LTP349	ltpFR2	8	24	SPOON	1357	n/a	n/a	0	0	0
4761819	WORD	wordpools/wasnorm_wordpool_576.txt	LTP349	ltpFR2	8	24	STAMP	1370	n/a	n/a	0	0	0
4764301	WORD	wordpools/wasnorm_wordpool_576.txt	LTP349	ltpFR2	8	24	SWIMMER	1420	n/a	n/a	0	0	0
4766916	WORD	wordpools/wasnorm_wordpool_576.txt	LTP349	ltpFR2	8	24	SHARK	1275	n/a	n/a	0	0	0
4769448	WORD	wordpools/wasnorm_wordpool_576.txt	LTP349	ltpFR2	8	24	SHORTS	1293	n/a	n/a	0	0	0
4771914	WORD	wordpools/wasnorm_wordpool_576.txt	LTP349	ltpFR2	8	24	ZIPPER	1636	n/a	n/a	0	0	0
4774379	WORD	wordpools/wasnorm_wordpool_576.txt	LTP349	ltpFR2	8	24	HOUND	724	n/a	n/a	0	0	0
4775995	START	n/a	LTP349	ltpFR2	8	n/a	n/a	n/a	36	n/a	n/a	n/a	n/a
4776978	DISTRACTOR	n/a	LTP349	ltpFR2	8	24	n/a	n/a	n/a	n/a	0	0	0
4776994	PROB	n/a	LTP349	ltpFR2	8	n/a	n/a	n/a	36	24	8	7	9
4781859	PROB	n/a	LTP349	ltpFR2	8	n/a	n/a	n/a	36	19	5	8	4
4785274	PROB	n/a	LTP349	ltpFR2	8	n/a	n/a	n/a	36	20	9	5	6
4788872	PROB	n/a	LTP349	ltpFR2	8	n/a	n/a	n/a	36	15	7	2	6
4793603	PROB	n/a	LTP349	ltpFR2	8	n/a	n/a	n/a	36	12	3	2	7
4799995	STOP	n/a	LTP349	ltpFR2	8	n/a	n/a	n/a	36	n/a	n/a	n/a	n/a
4801783	REC_START	n/a	LTP349	ltpFR2	8	24	n/a	n/a	n/a	n/a	0	0	0
4885791	SESS_END	n/a	LTP349	ltpFR2	8	24	n/a	n/a	n/a	n/a	0	0	0
