mstime	trial_type	stim_file	subject	experiment	session	trial	task	item_name	item_num	recog_resp	recog_conf	resp	color_r	color_g	color_b	case	font
0	SESS_START	n/a	LTP281	ltpFR	17	n/a	n/a	n/a	n/a	1	4	n/a	n/a	n/a	n/a	n/a	n/a
24548	WORD	wordpools/wasnorm_wordpool_less_exclusions.txt	LTP281	ltpFR	17	1	1	BUBBLE	183	0	5	0	0.422607421875	0.5869140625	0	lower	zerothre.ttf
28646	WORD	wordpools/wasnorm_wordpool_less_exclusions.txt	LTP281	ltpFR	17	1	1	COSTUME	383	1	n/a	0	0.422607421875	0.5869140625	0	lower	zerothre.ttf
32494	WORD	wordpools/wasnorm_wordpool_less_exclusions.txt	LTP281	ltpFR	17	1	1	BOSS	152	n/a	n/a	0	0.422607421875	0.5869140625	0	lower	zerothre.ttf
36359	WORD	wordpools/wasnorm_wordpool_less_exclusions.txt	LTP281	ltpFR	17	1	1	TYPIST	1532	n/a	n/a	1	0.422607421875	0.5869140625	0	lower	zerothre.ttf
40549	WORD	wordpools/wasnorm_wordpool_less_exclusions.txt	LTP281	ltpFR	17	1	0	PORPOISE	1109	n/a	n/a	0	0.57763671875	0.412841796875	1	upper	amplitud.ttf
44597	WORD	wordpools/wasnorm_wordpool_less_exclusions.txt	LTP281	ltpFR	17	1	0	TUNA	1518	n/a	n/a	1	0.57763671875	0.412841796875	1	upper	amplitud.ttf
48605	WORD	wordpools/wasnorm_wordpool_less_exclusions.txt	LTP281	ltpFR	17	1	0	PARTY	1018	n/a	n/a	0	0.57763671875	0.412841796875	1	upper	amplitud.ttf
52443	WORD	wordpools/wasnorm_wordpool_less_exclusions.txt	LTP281	ltpFR	17	1	0	PUBLICATION	1136	n/a	n/a	1	0.57763671875	0.412841796875	1	upper	amplitud.ttf
56459	WORD	wordpools/wasnorm_wordpool_less_exclusions.txt	LTP281	ltpFR	17	1	0	VOLUNTEER	1577	n/a	n/a	0	0.57763671875	0.412841796875	1	upper	amplitud.ttf
60316	WORD	wordpools/wasnorm_wordpool_less_exclusions.txt	LTP281	ltpFR	17	1	1	WHALE	1601	n/a	n/a	0	0.422607421875	0.5869140625	0	lower	zerothre.ttf
64481	WORD	wordpools/wasnorm_wordpool_less_exclusions.txt	LTP281	ltpFR	17	1	1	CHIP	303	n/a	n/a	0	0.422607421875	0.5869140625	0	lower	zerothre.ttf
68454	WORD	wordpools/wasnorm_wordpool_less_exclusions.txt	LTP281	ltpFR	17	1	0	BUGLE	189	n/a	n/a	0	0.57763671875	0.412841796875	1	upper	amplitud.ttf
72385	WORD	wordpools/wasnorm_wordpool_less_exclusions.txt	LTP281	ltpFR	17	1	0	ASSISTANT	48	n/a	n/a	1	0.57763671875	0.412841796875	1	upper	amplitud.ttf
76484	WORD	wordpools/wasnorm_wordpool_less_exclusions.txt	LTP281	ltpFR	17	1	0	TERMITE	1451	n/a	n/a	0	0.57763671875	0.412841796875	1	upper	amplitud.ttf
80693	WORD	wordpools/wasnorm_wordpool_less_exclusions.txt	LTP281	ltpFR	17	1	1	INSECT	740	n/a	n/a	1	0.422607421875	0.5869140625	0	lower	zerothre.ttf
84641	WORD	wordpools/wasnorm_wordpool_less_exclusions.txt	LTP281	ltpFR	17	1	1	FOUNTAIN	597	n/a	n/a	0	0.422607421875	0.5869140625	0	lower	zerothre.ttf
90421	REC_START	n/a	LTP281	ltpFR	17	1	n/a	n/a	n/a	n/a	n/a	n/a	n/a	n/a	n/a	n/a	n/a
91988	REC_WORD	wordpools/wasnorm_wordpool_less_exclusions.txt	LTP281	ltpFR	17	1	1	FOUNTAIN	597	n/a	n/a	0	n/a	n/a	n/a	n/a	n/a
93612	REC_WORD	wordpools/wasnorm_wordpool_less_exclusions.txt	LTP281	ltpFR	17	1	n/a	BUG	187	n/a	n/a	n/a	n/a	n/a	n/a	n/a	n/a
94523	REC_WORD	wordpools/wasnorm_wordpool_less_exclusions.txt	LTP281	ltpFR	17	1	n/a	RIVER	1194	n/a	n/a	n/a	n/a	n/a	n/a	n/a	n/a
96809	REC_WORD	wordpools/wasnorm_wordpool_less_exclusions.txt	LTP281	ltpFR	17	1	0	PORPOISE	1109	n/a	n/a	0	n/a	n/a	n/a	n/a	n/a
101514	REC_WORD	wordpools/wasnorm_wordpool_less_exclusions.txt	LTP281	ltpFR	17	1	1	TYPIST	1532	n/a	n/a	1	n/a	n/a	n/a	n/a	n/a
102587	REC_WORD	wordpools/wasnorm_wordpool_less_exclusions.txt	LTP281	ltpFR	17	1	1	BOSS	152	n/a	n/a	0	n/a	n/a	n/a	n/a	n/a
107013	REC_WORD	wordpools/wasnorm_wordpool_less_exclusions.txt	LTP281	ltpFR	17	1	0	TUNA	1518	n/a	n/a	1	n/a	n/a	n/a	n/a	n/a
169092	WORD	wordpools/wasnorm_wordpool_less_exclusions.txt	LTP281	ltpFR	17	2	0	CHEST	295	n/a	n/a	0	0.57763671875	0.412841796875	1	upper	amplitud.ttf
173182	WORD	wordpools/wasnorm_wordpool_less_exclusions.txt	LTP281	ltpFR	17	2	0	HUMAN	726	n/a	n/a	1	0.57763671875	0.412841796875	1	upper	amplitud.ttf
177231	WORD	wordpools/wasnorm_wordpool_less_exclusions.txt	LTP281	ltpFR	17	2	0	GENERAL	630	n/a	n/a	1	0.57763671875	0.412841796875	1	upper	amplitud.ttf
181255	WORD	wordpools/wasnorm_wordpool_less_exclusions.txt	LTP281	ltpFR	17	2	1	CLOVE	329	n/a	n/a	0	0.422607421875	0.5869140625	0	lower	zerothre.ttf
185328	WORD	wordpools/wasnorm_wordpool_less_exclusions.txt	LTP281	ltpFR	17	2	1	HAND	683	n/a	n/a	0	0.422607421875	0.5869140625	0	lower	zerothre.ttf
189369	WORD	wordpools/wasnorm_wordpool_less_exclusions.txt	LTP281	ltpFR	17	2	1	CUP	424	n/a	n/a	0	0.422607421875	0.5869140625	0	lower	zerothre.ttf
193592	WORD	wordpools/wasnorm_wordpool_less_exclusions.txt	LTP281	ltpFR	17	2	1	BALCONY	72	n/a	n/a	0	0.422607421875	0.5869140625	0	lower	zerothre.ttf
197423	WORD	wordpools/wasnorm_wordpool_less_exclusions.txt	LTP281	ltpFR	17	2	1	MECHANIC	884	n/a	n/a	0	0.422607421875	0.5869140625	0	lower	zerothre.ttf
201288	WORD	wordpools/wasnorm_wordpool_less_exclusions.txt	LTP281	ltpFR	17	2	0	CACTUS	215	n/a	n/a	0	0.57763671875	0.412841796875	1	upper	amplitud.ttf
205320	WORD	wordpools/wasnorm_wordpool_less_exclusions.txt	LTP281	ltpFR	17	2	0	FINGER	567	n/a	n/a	0	0.57763671875	0.412841796875	1	upper	amplitud.ttf
209168	WORD	wordpools/wasnorm_wordpool_less_exclusions.txt	LTP281	ltpFR	17	2	1	MARINE	869	n/a	n/a	0	0.422607421875	0.5869140625	0	lower	zerothre.ttf
213108	WORD	wordpools/wasnorm_wordpool_less_exclusions.txt	LTP281	ltpFR	17	2	1	ALMOND	18	n/a	n/a	0	0.422607421875	0.5869140625	0	lower	zerothre.ttf
217056	WORD	wordpools/wasnorm_wordpool_less_exclusions.txt	LTP281	ltpFR	17	2	1	SCALPEL	1243	n/a	n/a	1	0.422607421875	0.5869140625	0	lower	zerothre.ttf
220995	WORD	wordpools/wasnorm_wordpool_less_exclusions.txt	LTP281	ltpFR	17	2	0	FORK	594	n/a	n/a	0	0.57763671875	0.412841796875	1	upper	amplitud.ttf
224919	WORD	wordpools/wasnorm_wordpool_less_exclusions.txt	LTP281	ltpFR	17	2	0	EAGLE	512	n/a	n/a	1	0.57763671875	0.412841796875	1	upper	amplitud.ttf
228901	WORD	wordpools/wasnorm_wordpool_less_exclusions.txt	LTP281	ltpFR	17	2	0	DOVE	491	n/a	n/a	1	0.57763671875	0.412841796875	1	upper	amplitud.ttf
234757	REC_START	n/a	LTP281	ltpFR	17	2	n/a	n/a	n/a	n/a	n/a	n/a	n/a	n/a	n/a	n/a	n/a
235613	REC_WORD	wordpools/wasnorm_wordpool_less_exclusions.txt	LTP281	ltpFR	17	2	0	DOVE	491	n/a	n/a	1	n/a	n/a	n/a	n/a	n/a
236782	REC_WORD	wordpools/wasnorm_wordpool_less_exclusions.txt	LTP281	ltpFR	17	2	0	EAGLE	512	n/a	n/a	1	n/a	n/a	n/a	n/a	n/a
238984	REC_WORD	wordpools/wasnorm_wordpool_less_exclusions.txt	LTP281	ltpFR	17	2	1	SCALPEL	1243	n/a	n/a	1	n/a	n/a	n/a	n/a	n/a
313360	WORD	wordpools/wasnorm_wordpool_less_exclusions.txt	LTP281	ltpFR	17	3	0	FOX	598	n/a	n/a	0	0.57763671875	0.412841796875	1	upper	amplitud.ttf
317559	WORD	wordpools/wasnorm_wordpool_less_exclusions.txt	LTP281	ltpFR	17	3	0	OATMEAL	967	n/a	n/a	0	0.57763671875	0.412841796875	1	upper	amplitud.ttf
321541	WORD	wordpools/wasnorm_wordpool_less_exclusions.txt	LTP281	ltpFR	17	3	0	WIRE	1616	n/a	n/a	0	0.57763671875	0.412841796875	1	upper	amplitud.ttf
325565	WORD	wordpools/wasnorm_wordpool_less_exclusions.txt	LTP281	ltpFR	17	3	0	PAW	1029	n/a	n/a	0	0.57763671875	0.412841796875	1	upper	amplitud.ttf
329765	WORD	wordpools/wasnorm_wordpool_less_exclusions.txt	LTP281	ltpFR	17	3	0	SLIDE	1326	n/a	n/a	0	0.57763671875	0.412841796875	1	upper	amplitud.ttf
333955	WORD	wordpools/wasnorm_wordpool_less_exclusions.txt	LTP281	ltpFR	17	3	0	FAUCET	555	n/a	n/a	1	0.57763671875	0.412841796875	1	upper	amplitud.ttf
338129	WORD	wordpools/wasnorm_wordpool_less_exclusions.txt	LTP281	ltpFR	17	3	0	LENS	811	n/a	n/a	0	0.57763671875	0.412841796875	1	upper	amplitud.ttf
342202	WORD	wordpools/wasnorm_wordpool_less_exclusions.txt	LTP281	ltpFR	17	3	0	WALNUT	1584	n/a	n/a	0	0.57763671875	0.412841796875	1	upper	amplitud.ttf
346193	WORD	wordpools/wasnorm_wordpool_less_exclusions.txt	LTP281	ltpFR	17	3	0	POLICE	1098	n/a	n/a	0	0.57763671875	0.412841796875	1	upper	amplitud.ttf
350233	WORD	wordpools/wasnorm_wordpool_less_exclusions.txt	LTP281	ltpFR	17	3	0	SCALLOP	1242	n/a	n/a	0	0.57763671875	0.412841796875	1	upper	amplitud.ttf
354348	WORD	wordpools/wasnorm_wordpool_less_exclusions.txt	LTP281	ltpFR	17	3	0	TURTLE	1522	n/a	n/a	1	0.57763671875	0.412841796875	1	upper	amplitud.ttf
358179	WORD	wordpools/wasnorm_wordpool_less_exclusions.txt	LTP281	ltpFR	17	3	0	INVENTOR	743	n/a	n/a	1	0.57763671875	0.412841796875	1	upper	amplitud.ttf
362019	WORD	wordpools/wasnorm_wordpool_less_exclusions.txt	LTP281	ltpFR	17	3	0	OAR	966	n/a	n/a	0	0.57763671875	0.412841796875	1	upper	amplitud.ttf
366051	WORD	wordpools/wasnorm_wordpool_less_exclusions.txt	LTP281	ltpFR	17	3	0	VESSEL	1558	n/a	n/a	1	0.57763671875	0.412841796875	1	upper	amplitud.ttf
370074	WORD	wordpools/wasnorm_wordpool_less_exclusions.txt	LTP281	ltpFR	17	3	0	TELEPHONE	1445	n/a	n/a	1	0.57763671875	0.412841796875	1	upper	amplitud.ttf
373922	WORD	wordpools/wasnorm_wordpool_less_exclusions.txt	LTP281	ltpFR	17	3	0	DESSERT	453	n/a	n/a	1	0.57763671875	0.412841796875	1	upper	amplitud.ttf
379938	REC_START	n/a	LTP281	ltpFR	17	3	n/a	n/a	n/a	n/a	n/a	n/a	n/a	n/a	n/a	n/a	n/a
380817	REC_WORD	wordpools/wasnorm_wordpool_less_exclusions.txt	LTP281	ltpFR	17	3	0	DESSERT	453	n/a	n/a	1	n/a	n/a	n/a	n/a	n/a
381628	REC_WORD	wordpools/wasnorm_wordpool_less_exclusions.txt	LTP281	ltpFR	17	3	0	POLICE	1098	n/a	n/a	0	n/a	n/a	n/a	n/a	n/a
382609	REC_WORD	wordpools/wasnorm_wordpool_less_exclusions.txt	LTP281	ltpFR	17	3	0	OAR	966	n/a	n/a	0	n/a	n/a	n/a	n/a	n/a
383351	REC_WORD	wordpools/wasnorm_wordpool_less_exclusions.txt	LTP281	ltpFR	17	3	0	OATMEAL	967	n/a	n/a	0	n/a	n/a	n/a	n/a	n/a
384010	REC_WORD	wordpools/wasnorm_wordpool_less_exclusions.txt	LTP281	ltpFR	17	3	0	FAUCET	555	n/a	n/a	1	n/a	n/a	n/a	n/a	n/a
458918	WORD	wordpools/wasnorm_wordpool_less_exclusions.txt	LTP281	ltpFR	17	4	0	CUSHION	428	n/a	n/a	0	0.57763671875	0.412841796875	1	upper	amplitud.ttf
463075	WORD	wordpools/wasnorm_wordpool_less_exclusions.txt	LTP281	ltpFR	17	4	0	OTTER	986	n/a	n/a	1	0.57763671875	0.412841796875	1	upper	amplitud.ttf
467300	WORD	wordpools/wasnorm_wordpool_less_exclusions.txt	LTP281	ltpFR	17	4	0	SCARECROW	1245	n/a	n/a	0	0.57763671875	0.412841796875	1	upper	amplitud.ttf
471239	WORD	wordpools/wasnorm_wordpool_less_exclusions.txt	LTP281	ltpFR	17	4	0	PRIEST	1122	n/a	n/a	1	0.57763671875	0.412841796875	1	upper	amplitud.ttf
475230	WORD	wordpools/wasnorm_wordpool_less_exclusions.txt	LTP281	ltpFR	17	4	0	FRIAR	605	n/a	n/a	0	0.57763671875	0.412841796875	1	upper	amplitud.ttf
479161	WORD	wordpools/wasnorm_wordpool_less_exclusions.txt	LTP281	ltpFR	17	4	0	HUT	729	n/a	n/a	0	0.57763671875	0.412841796875	1	upper	amplitud.ttf
483050	WORD	wordpools/wasnorm_wordpool_less_exclusions.txt	LTP281	ltpFR	17	4	0	PIZZA	1079	n/a	n/a	1	0.57763671875	0.412841796875	1	upper	amplitud.ttf
487032	WORD	wordpools/wasnorm_wordpool_less_exclusions.txt	LTP281	ltpFR	17	4	0	PIGMENT	1066	n/a	n/a	0	0.57763671875	0.412841796875	1	upper	amplitud.ttf
490955	WORD	wordpools/wasnorm_wordpool_less_exclusions.txt	LTP281	ltpFR	17	4	0	DETERGENT	455	n/a	n/a	0	0.57763671875	0.412841796875	1	upper	amplitud.ttf
494820	WORD	wordpools/wasnorm_wordpool_less_exclusions.txt	LTP281	ltpFR	17	4	0	PADDING	999	n/a	n/a	0	0.57763671875	0.412841796875	1	upper	amplitud.ttf
498876	WORD	wordpools/wasnorm_wordpool_less_exclusions.txt	LTP281	ltpFR	17	4	0	SOCK	1339	n/a	n/a	0	0.57763671875	0.412841796875	1	upper	amplitud.ttf
502841	WORD	wordpools/wasnorm_wordpool_less_exclusions.txt	LTP281	ltpFR	17	4	0	LOOP	844	n/a	n/a	0	0.57763671875	0.412841796875	1	upper	amplitud.ttf
506722	WORD	wordpools/wasnorm_wordpool_less_exclusions.txt	LTP281	ltpFR	17	4	0	ELK	526	n/a	n/a	0	0.57763671875	0.412841796875	1	upper	amplitud.ttf
510687	WORD	wordpools/wasnorm_wordpool_less_exclusions.txt	LTP281	ltpFR	17	4	0	LEVER	815	n/a	n/a	0	0.57763671875	0.412841796875	1	upper	amplitud.ttf
514820	WORD	wordpools/wasnorm_wordpool_less_exclusions.txt	LTP281	ltpFR	17	4	0	YACHT	1629	n/a	n/a	0	0.57763671875	0.412841796875	1	upper	amplitud.ttf
518651	WORD	wordpools/wasnorm_wordpool_less_exclusions.txt	LTP281	ltpFR	17	4	0	WHISKERS	1605	n/a	n/a	1	0.57763671875	0.412841796875	1	upper	amplitud.ttf
524406	REC_START	n/a	LTP281	ltpFR	17	4	n/a	n/a	n/a	n/a	n/a	n/a	n/a	n/a	n/a	n/a	n/a
525169	REC_WORD	wordpools/wasnorm_wordpool_less_exclusions.txt	LTP281	ltpFR	17	4	0	WHISKERS	1605	n/a	n/a	1	n/a	n/a	n/a	n/a	n/a
526291	REC_WORD	wordpools/wasnorm_wordpool_less_exclusions.txt	LTP281	ltpFR	17	4	0	YACHT	1629	n/a	n/a	0	n/a	n/a	n/a	n/a	n/a
533909	REC_WORD	wordpools/wasnorm_wordpool_less_exclusions.txt	LTP281	ltpFR	17	4	0	PAW	1029	n/a	n/a	0	n/a	n/a	n/a	n/a	n/a
603571	WORD	wordpools/wasnorm_wordpool_less_exclusions.txt	LTP281	ltpFR	17	5	-1	PORCH	1106	n/a	n/a	-1	1.0	1.0	1	upper	Verdana.ttf
607796	WORD	wordpools/wasnorm_wordpool_less_exclusions.txt	LTP281	ltpFR	17	5	-1	SENATE	1267	n/a	n/a	-1	1.0	1.0	1	upper	Verdana.ttf
611651	WORD	wordpools/wasnorm_wordpool_less_exclusions.txt	LTP281	ltpFR	17	5	-1	COMMITTEE	355	n/a	n/a	-1	1.0	1.0	1	upper	Verdana.ttf
615826	WORD	wordpools/wasnorm_wordpool_less_exclusions.txt	LTP281	ltpFR	17	5	-1	MARKET	871	n/a	n/a	-1	1.0	1.0	1	upper	Verdana.ttf
619724	WORD	wordpools/wasnorm_wordpool_less_exclusions.txt	LTP281	ltpFR	17	5	-1	WINE	1613	n/a	n/a	-1	1.0	1.0	1	upper	Verdana.ttf
623840	WORD	wordpools/wasnorm_wordpool_less_exclusions.txt	LTP281	ltpFR	17	5	-1	GRAPE	654	n/a	n/a	-1	1.0	1.0	1	upper	Verdana.ttf
627929	WORD	wordpools/wasnorm_wordpool_less_exclusions.txt	LTP281	ltpFR	17	5	-1	OVAL	990	n/a	n/a	-1	1.0	1.0	1	upper	Verdana.ttf
631810	WORD	wordpools/wasnorm_wordpool_less_exclusions.txt	LTP281	ltpFR	17	5	-1	COBWEB	337	n/a	n/a	-1	1.0	1.0	1	upper	Verdana.ttf
635826	WORD	wordpools/wasnorm_wordpool_less_exclusions.txt	LTP281	ltpFR	17	5	-1	COMMANDER	354	n/a	n/a	-1	1.0	1.0	1	upper	Verdana.ttf
639958	WORD	wordpools/wasnorm_wordpool_less_exclusions.txt	LTP281	ltpFR	17	5	-1	GARAGE	621	n/a	n/a	-1	1.0	1.0	1	upper	Verdana.ttf
643940	WORD	wordpools/wasnorm_wordpool_less_exclusions.txt	LTP281	ltpFR	17	5	-1	GOO	648	n/a	n/a	-1	1.0	1.0	1	upper	Verdana.ttf
648014	WORD	wordpools/wasnorm_wordpool_less_exclusions.txt	LTP281	ltpFR	17	5	-1	BASSINET	97	n/a	n/a	-1	1.0	1.0	1	upper	Verdana.ttf
652104	WORD	wordpools/wasnorm_wordpool_less_exclusions.txt	LTP281	ltpFR	17	5	-1	OREGANO	983	n/a	n/a	-1	1.0	1.0	1	upper	Verdana.ttf
655968	WORD	wordpools/wasnorm_wordpool_less_exclusions.txt	LTP281	ltpFR	17	5	-1	DEPARTMENT	449	n/a	n/a	-1	1.0	1.0	1	upper	Verdana.ttf
660117	WORD	wordpools/wasnorm_wordpool_less_exclusions.txt	LTP281	ltpFR	17	5	-1	LIEUTENANT	818	n/a	n/a	-1	1.0	1.0	1	upper	Verdana.ttf
664316	WORD	wordpools/wasnorm_wordpool_less_exclusions.txt	LTP281	ltpFR	17	5	-1	SOAP	1337	n/a	n/a	-1	1.0	1.0	1	upper	Verdana.ttf
670206	REC_START	n/a	LTP281	ltpFR	17	5	n/a	n/a	n/a	n/a	n/a	n/a	n/a	n/a	n/a	n/a	n/a
671251	REC_WORD	wordpools/wasnorm_wordpool_less_exclusions.txt	LTP281	ltpFR	17	5	-1	SOAP	1337	n/a	n/a	-1	n/a	n/a	n/a	n/a	n/a
672191	REC_WORD	wordpools/wasnorm_wordpool_less_exclusions.txt	LTP281	ltpFR	17	5	-1	LIEUTENANT	818	n/a	n/a	-1	n/a	n/a	n/a	n/a	n/a
753110	WORD	wordpools/wasnorm_wordpool_less_exclusions.txt	LTP281	ltpFR	17	6	0	AUDIENCE	59	n/a	n/a	0	0.57763671875	0.412841796875	1	upper	amplitud.ttf
757242	WORD	wordpools/wasnorm_wordpool_less_exclusions.txt	LTP281	ltpFR	17	6	0	SLOPE	1328	n/a	n/a	0	0.57763671875	0.412841796875	1	upper	amplitud.ttf
761191	WORD	wordpools/wasnorm_wordpool_less_exclusions.txt	LTP281	ltpFR	17	6	0	FIST	572	n/a	n/a	0	0.57763671875	0.412841796875	1	upper	amplitud.ttf
765289	WORD	wordpools/wasnorm_wordpool_less_exclusions.txt	LTP281	ltpFR	17	6	0	POTATO	1115	n/a	n/a	0	0.57763671875	0.412841796875	1	upper	amplitud.ttf
769396	WORD	wordpools/wasnorm_wordpool_less_exclusions.txt	LTP281	ltpFR	17	6	0	STOVE	1388	n/a	n/a	0	0.57763671875	0.412841796875	1	upper	amplitud.ttf
773244	WORD	wordpools/wasnorm_wordpool_less_exclusions.txt	LTP281	ltpFR	17	6	0	WATER	1594	n/a	n/a	1	0.57763671875	0.412841796875	1	upper	amplitud.ttf
777251	WORD	wordpools/wasnorm_wordpool_less_exclusions.txt	LTP281	ltpFR	17	6	0	BAY	102	n/a	n/a	1	0.57763671875	0.412841796875	1	upper	amplitud.ttf
781324	WORD	wordpools/wasnorm_wordpool_less_exclusions.txt	LTP281	ltpFR	17	6	0	BLENDER	136	n/a	n/a	0	0.57763671875	0.412841796875	1	upper	amplitud.ttf
785516	WORD	wordpools/wasnorm_wordpool_less_exclusions.txt	LTP281	ltpFR	17	6	0	MOUNTAIN	924	n/a	n/a	0	0.57763671875	0.412841796875	1	upper	amplitud.ttf
789363	WORD	wordpools/wasnorm_wordpool_less_exclusions.txt	LTP281	ltpFR	17	6	0	BUGGY	188	n/a	n/a	1	0.57763671875	0.412841796875	1	upper	amplitud.ttf
793328	WORD	wordpools/wasnorm_wordpool_less_exclusions.txt	LTP281	ltpFR	17	6	0	BUS	201	n/a	n/a	0	0.57763671875	0.412841796875	1	upper	amplitud.ttf
797310	WORD	wordpools/wasnorm_wordpool_less_exclusions.txt	LTP281	ltpFR	17	6	0	DIME	466	n/a	n/a	0	0.57763671875	0.412841796875	1	upper	amplitud.ttf
801165	WORD	wordpools/wasnorm_wordpool_less_exclusions.txt	LTP281	ltpFR	17	6	0	HIKER	708	n/a	n/a	0	0.57763671875	0.412841796875	1	upper	amplitud.ttf
805307	WORD	wordpools/wasnorm_wordpool_less_exclusions.txt	LTP281	ltpFR	17	6	0	BEETLE	116	n/a	n/a	0	0.57763671875	0.412841796875	1	upper	amplitud.ttf
809313	WORD	wordpools/wasnorm_wordpool_less_exclusions.txt	LTP281	ltpFR	17	6	0	PALM	1007	n/a	n/a	0	0.57763671875	0.412841796875	1	upper	amplitud.ttf
813254	WORD	wordpools/wasnorm_wordpool_less_exclusions.txt	LTP281	ltpFR	17	6	0	DOUGH	489	n/a	n/a	0	0.57763671875	0.412841796875	1	upper	amplitud.ttf
819017	REC_START	n/a	LTP281	ltpFR	17	6	n/a	n/a	n/a	n/a	n/a	n/a	n/a	n/a	n/a	n/a	n/a
820526	REC_WORD	wordpools/wasnorm_wordpool_less_exclusions.txt	LTP281	ltpFR	17	6	0	DOUGH	489	n/a	n/a	0	n/a	n/a	n/a	n/a	n/a
826560	REC_WORD	wordpools/wasnorm_wordpool_less_exclusions.txt	LTP281	ltpFR	17	6	n/a	TAX	-1	n/a	n/a	n/a	n/a	n/a	n/a	n/a	n/a
898391	WORD	wordpools/wasnorm_wordpool_less_exclusions.txt	LTP281	ltpFR	17	7	1	CHEERLEADER	288	n/a	n/a	0	0.422607421875	0.5869140625	0	lower	zerothre.ttf
902473	WORD	wordpools/wasnorm_wordpool_less_exclusions.txt	LTP281	ltpFR	17	7	1	DONOR	485	n/a	n/a	0	0.422607421875	0.5869140625	0	lower	zerothre.ttf
906622	WORD	wordpools/wasnorm_wordpool_less_exclusions.txt	LTP281	ltpFR	17	7	1	PASSAGE	1019	n/a	n/a	1	0.422607421875	0.5869140625	0	lower	zerothre.ttf
910453	WORD	wordpools/wasnorm_wordpool_less_exclusions.txt	LTP281	ltpFR	17	7	1	CLASS	318	n/a	n/a	0	0.422607421875	0.5869140625	0	lower	zerothre.ttf
914292	WORD	wordpools/wasnorm_wordpool_less_exclusions.txt	LTP281	ltpFR	17	7	1	CHAMBER	277	n/a	n/a	0	0.422607421875	0.5869140625	0	lower	zerothre.ttf
918474	WORD	wordpools/wasnorm_wordpool_less_exclusions.txt	LTP281	ltpFR	17	7	1	CHEMIST	292	n/a	n/a	1	0.422607421875	0.5869140625	0	lower	zerothre.ttf
922432	WORD	wordpools/wasnorm_wordpool_less_exclusions.txt	LTP281	ltpFR	17	7	1	CRITIC	410	n/a	n/a	1	0.422607421875	0.5869140625	0	lower	zerothre.ttf
926421	WORD	wordpools/wasnorm_wordpool_less_exclusions.txt	LTP281	ltpFR	17	7	1	PERSONNEL	1053	n/a	n/a	0	0.422607421875	0.5869140625	0	lower	zerothre.ttf
930362	WORD	wordpools/wasnorm_wordpool_less_exclusions.txt	LTP281	ltpFR	17	7	1	DUNGEON	507	n/a	n/a	0	0.422607421875	0.5869140625	0	lower	zerothre.ttf
934260	WORD	wordpools/wasnorm_wordpool_less_exclusions.txt	LTP281	ltpFR	17	7	1	CLIFF	322	n/a	n/a	0	0.422607421875	0.5869140625	0	lower	zerothre.ttf
938165	WORD	wordpools/wasnorm_wordpool_less_exclusions.txt	LTP281	ltpFR	17	7	1	VALLEY	1545	n/a	n/a	0	0.422607421875	0.5869140625	0	lower	zerothre.ttf
942147	WORD	wordpools/wasnorm_wordpool_less_exclusions.txt	LTP281	ltpFR	17	7	1	BAND	78	n/a	n/a	0	0.422607421875	0.5869140625	0	lower	zerothre.ttf
946062	WORD	wordpools/wasnorm_wordpool_less_exclusions.txt	LTP281	ltpFR	17	7	1	TROMBONE	1508	n/a	n/a	0	0.422607421875	0.5869140625	0	lower	zerothre.ttf
949926	WORD	wordpools/wasnorm_wordpool_less_exclusions.txt	LTP281	ltpFR	17	7	1	SHELTER	1282	n/a	n/a	0	0.422607421875	0.5869140625	0	lower	zerothre.ttf
953791	WORD	wordpools/wasnorm_wordpool_less_exclusions.txt	LTP281	ltpFR	17	7	1	TOWN	1491	n/a	n/a	0	0.422607421875	0.5869140625	0	lower	zerothre.ttf
957865	WORD	wordpools/wasnorm_wordpool_less_exclusions.txt	LTP281	ltpFR	17	7	1	VIDEO	1564	n/a	n/a	0	0.422607421875	0.5869140625	0	lower	zerothre.ttf
963478	REC_START	n/a	LTP281	ltpFR	17	7	n/a	n/a	n/a	n/a	n/a	n/a	n/a	n/a	n/a	n/a	n/a
964597	REC_WORD	wordpools/wasnorm_wordpool_less_exclusions.txt	LTP281	ltpFR	17	7	1	SHELTER	1282	n/a	n/a	0	n/a	n/a	n/a	n/a	n/a
965499	REC_WORD	wordpools/wasnorm_wordpool_less_exclusions.txt	LTP281	ltpFR	17	7	1	VIDEO	1564	n/a	n/a	0	n/a	n/a	n/a	n/a	n/a
966520	REC_WORD	wordpools/wasnorm_wordpool_less_exclusions.txt	LTP281	ltpFR	17	7	n/a	PASSAGEWAY	-1	n/a	n/a	n/a	n/a	n/a	n/a	n/a	n/a
967613	REC_WORD	wordpools/wasnorm_wordpool_less_exclusions.txt	LTP281	ltpFR	17	7	1	CRITIC	410	n/a	n/a	1	n/a	n/a	n/a	n/a	n/a
969462	REC_WORD	wordpools/wasnorm_wordpool_less_exclusions.txt	LTP281	ltpFR	17	7	1	CHEERLEADER	288	n/a	n/a	0	n/a	n/a	n/a	n/a	n/a
981404	REC_WORD	wordpools/wasnorm_wordpool_less_exclusions.txt	LTP281	ltpFR	17	7	1	PERSONNEL	1053	n/a	n/a	0	n/a	n/a	n/a	n/a	n/a
1042618	WORD	wordpools/wasnorm_wordpool_less_exclusions.txt	LTP281	ltpFR	17	8	-1	CABINET	212	n/a	n/a	-1	1.0	1.0	1	upper	Verdana.ttf
1046574	WORD	wordpools/wasnorm_wordpool_less_exclusions.txt	LTP281	ltpFR	17	8	-1	DART	440	n/a	n/a	-1	1.0	1.0	1	upper	Verdana.ttf
1050639	WORD	wordpools/wasnorm_wordpool_less_exclusions.txt	LTP281	ltpFR	17	8	-1	BALL	73	n/a	n/a	-1	1.0	1.0	1	upper	Verdana.ttf
1054788	WORD	wordpools/wasnorm_wordpool_less_exclusions.txt	LTP281	ltpFR	17	8	-1	TEAPOT	1442	n/a	n/a	-1	1.0	1.0	1	upper	Verdana.ttf
1058762	WORD	wordpools/wasnorm_wordpool_less_exclusions.txt	LTP281	ltpFR	17	8	-1	DUST	508	n/a	n/a	-1	1.0	1.0	1	upper	Verdana.ttf
1062643	WORD	wordpools/wasnorm_wordpool_less_exclusions.txt	LTP281	ltpFR	17	8	-1	APRON	35	n/a	n/a	-1	1.0	1.0	1	upper	Verdana.ttf
1066826	WORD	wordpools/wasnorm_wordpool_less_exclusions.txt	LTP281	ltpFR	17	8	-1	MAYONNAISE	880	n/a	n/a	-1	1.0	1.0	1	upper	Verdana.ttf
1070932	WORD	wordpools/wasnorm_wordpool_less_exclusions.txt	LTP281	ltpFR	17	8	-1	COMMUNITY	356	n/a	n/a	-1	1.0	1.0	1	upper	Verdana.ttf
1074880	WORD	wordpools/wasnorm_wordpool_less_exclusions.txt	LTP281	ltpFR	17	8	-1	SUBURB	1399	n/a	n/a	-1	1.0	1.0	1	upper	Verdana.ttf
1079105	WORD	wordpools/wasnorm_wordpool_less_exclusions.txt	LTP281	ltpFR	17	8	-1	CRYSTAL	418	n/a	n/a	-1	1.0	1.0	1	upper	Verdana.ttf
1083204	WORD	wordpools/wasnorm_wordpool_less_exclusions.txt	LTP281	ltpFR	17	8	-1	CHALK	276	n/a	n/a	-1	1.0	1.0	1	upper	Verdana.ttf
1087320	WORD	wordpools/wasnorm_wordpool_less_exclusions.txt	LTP281	ltpFR	17	8	-1	FINGERNAIL	568	n/a	n/a	-1	1.0	1.0	1	upper	Verdana.ttf
1091526	WORD	wordpools/wasnorm_wordpool_less_exclusions.txt	LTP281	ltpFR	17	8	-1	NEWSSTAND	949	n/a	n/a	-1	1.0	1.0	1	upper	Verdana.ttf
1095567	WORD	wordpools/wasnorm_wordpool_less_exclusions.txt	LTP281	ltpFR	17	8	-1	REPORT	1184	n/a	n/a	-1	1.0	1.0	1	upper	Verdana.ttf
1099724	WORD	wordpools/wasnorm_wordpool_less_exclusions.txt	LTP281	ltpFR	17	8	-1	BULB	192	n/a	n/a	-1	1.0	1.0	1	upper	Verdana.ttf
1103739	WORD	wordpools/wasnorm_wordpool_less_exclusions.txt	LTP281	ltpFR	17	8	-1	TACK	1428	n/a	n/a	-1	1.0	1.0	1	upper	Verdana.ttf
1109562	REC_START	n/a	LTP281	ltpFR	17	8	n/a	n/a	n/a	n/a	n/a	n/a	n/a	n/a	n/a	n/a	n/a
1110286	REC_WORD	wordpools/wasnorm_wordpool_less_exclusions.txt	LTP281	ltpFR	17	8	-1	TACK	1428	n/a	n/a	-1	n/a	n/a	n/a	n/a	n/a
1111584	REC_WORD	wordpools/wasnorm_wordpool_less_exclusions.txt	LTP281	ltpFR	17	8	-1	REPORT	1184	n/a	n/a	-1	n/a	n/a	n/a	n/a	n/a
1117163	REC_WORD	wordpools/wasnorm_wordpool_less_exclusions.txt	LTP281	ltpFR	17	8	0	PIZZA	1079	n/a	n/a	1	n/a	n/a	n/a	n/a	n/a
1185205	REST_REWET	n/a	LTP281	ltpFR	17	8	n/a	n/a	n/a	n/a	n/a	n/a	n/a	n/a	n/a	n/a	n/a
1696272	WORD	wordpools/wasnorm_wordpool_less_exclusions.txt	LTP281	ltpFR	17	9	1	KIWI	781	n/a	n/a	0	0.422607421875	0.5869140625	0	lower	zerothre.ttf
1700304	WORD	wordpools/wasnorm_wordpool_less_exclusions.txt	LTP281	ltpFR	17	9	1	HANDBAG	684	n/a	n/a	1	0.422607421875	0.5869140625	0	lower	zerothre.ttf
1704169	WORD	wordpools/wasnorm_wordpool_less_exclusions.txt	LTP281	ltpFR	17	9	1	ELECTRON	522	n/a	n/a	1	0.422607421875	0.5869140625	0	lower	zerothre.ttf
1708042	WORD	wordpools/wasnorm_wordpool_less_exclusions.txt	LTP281	ltpFR	17	9	1	BIOLOGIST	128	n/a	n/a	1	0.422607421875	0.5869140625	0	lower	zerothre.ttf
1712199	WORD	wordpools/wasnorm_wordpool_less_exclusions.txt	LTP281	ltpFR	17	9	1	HOSTESS	723	n/a	n/a	1	0.422607421875	0.5869140625	0	lower	zerothre.ttf
1716315	WORD	wordpools/wasnorm_wordpool_less_exclusions.txt	LTP281	ltpFR	17	9	1	LAWN	805	n/a	n/a	1	0.422607421875	0.5869140625	0	lower	zerothre.ttf
1720456	WORD	wordpools/wasnorm_wordpool_less_exclusions.txt	LTP281	ltpFR	17	9	1	LANDSCAPE	799	n/a	n/a	1	0.422607421875	0.5869140625	0	lower	zerothre.ttf
1724311	WORD	wordpools/wasnorm_wordpool_less_exclusions.txt	LTP281	ltpFR	17	9	1	LAMB	797	n/a	n/a	1	0.422607421875	0.5869140625	0	lower	zerothre.ttf
1728235	WORD	wordpools/wasnorm_wordpool_less_exclusions.txt	LTP281	ltpFR	17	9	1	HEART	697	n/a	n/a	1	0.422607421875	0.5869140625	0	lower	zerothre.ttf
1732291	WORD	wordpools/wasnorm_wordpool_less_exclusions.txt	LTP281	ltpFR	17	9	1	DEODORANT	448	n/a	n/a	0	0.422607421875	0.5869140625	0	lower	zerothre.ttf
1736407	WORD	wordpools/wasnorm_wordpool_less_exclusions.txt	LTP281	ltpFR	17	9	1	WALLET	1583	n/a	n/a	0	0.422607421875	0.5869140625	0	lower	zerothre.ttf
1740414	WORD	wordpools/wasnorm_wordpool_less_exclusions.txt	LTP281	ltpFR	17	9	1	SOCIETY	1338	n/a	n/a	0	0.422607421875	0.5869140625	0	lower	zerothre.ttf
1744379	WORD	wordpools/wasnorm_wordpool_less_exclusions.txt	LTP281	ltpFR	17	9	1	PERSON	1052	n/a	n/a	0	0.422607421875	0.5869140625	0	lower	zerothre.ttf
1748595	WORD	wordpools/wasnorm_wordpool_less_exclusions.txt	LTP281	ltpFR	17	9	1	POSSUM	1112	n/a	n/a	0	0.422607421875	0.5869140625	0	lower	zerothre.ttf
1752769	WORD	wordpools/wasnorm_wordpool_less_exclusions.txt	LTP281	ltpFR	17	9	1	SERVER	1272	n/a	n/a	1	0.422607421875	0.5869140625	0	lower	zerothre.ttf
1756626	WORD	wordpools/wasnorm_wordpool_less_exclusions.txt	LTP281	ltpFR	17	9	1	BENCH	121	n/a	n/a	0	0.422607421875	0.5869140625	0	lower	zerothre.ttf
1762331	REC_START	n/a	LTP281	ltpFR	17	9	n/a	n/a	n/a	n/a	n/a	n/a	n/a	n/a	n/a	n/a	n/a
1763037	REC_WORD	wordpools/wasnorm_wordpool_less_exclusions.txt	LTP281	ltpFR	17	9	1	BENCH	121	n/a	n/a	0	n/a	n/a	n/a	n/a	n/a
1763861	REC_WORD	wordpools/wasnorm_wordpool_less_exclusions.txt	LTP281	ltpFR	17	9	1	SERVER	1272	n/a	n/a	1	n/a	n/a	n/a	n/a	n/a
1765024	REC_WORD	wordpools/wasnorm_wordpool_less_exclusions.txt	LTP281	ltpFR	17	9	1	POSSUM	1112	n/a	n/a	0	n/a	n/a	n/a	n/a	n/a
1765935	REC_WORD	wordpools/wasnorm_wordpool_less_exclusions.txt	LTP281	ltpFR	17	9	1	HEART	697	n/a	n/a	1	n/a	n/a	n/a	n/a	n/a
1778906	REC_WORD	wordpools/wasnorm_wordpool_less_exclusions.txt	LTP281	ltpFR	17	9	1	KIWI	781	n/a	n/a	0	n/a	n/a	n/a	n/a	n/a
1780069	REC_WORD	wordpools/wasnorm_wordpool_less_exclusions.txt	LTP281	ltpFR	17	9	1	HANDBAG	684	n/a	n/a	1	n/a	n/a	n/a	n/a	n/a
1852260	WORD	wordpools/wasnorm_wordpool_less_exclusions.txt	LTP281	ltpFR	17	10	0	BUG	187	n/a	n/a	2	0.57763671875	0.412841796875	1	upper	amplitud.ttf
1853348	KEY_MSG	n/a	LTP281	ltpFR	17	10	n/a	n/a	n/a	n/a	n/a	n/a	n/a	n/a	n/a	n/a	n/a
1856368	WORD	wordpools/wasnorm_wordpool_less_exclusions.txt	LTP281	ltpFR	17	10	0	PAVEMENT	1028	n/a	n/a	1	0.57763671875	0.412841796875	1	upper	amplitud.ttf
1860383	WORD	wordpools/wasnorm_wordpool_less_exclusions.txt	LTP281	ltpFR	17	10	1	RAIL	1161	n/a	n/a	0	0.422607421875	0.5869140625	0	lower	zerothre.ttf
1864573	WORD	wordpools/wasnorm_wordpool_less_exclusions.txt	LTP281	ltpFR	17	10	1	TAIL	1430	n/a	n/a	0	0.422607421875	0.5869140625	0	lower	zerothre.ttf
1868421	WORD	wordpools/wasnorm_wordpool_less_exclusions.txt	LTP281	ltpFR	17	10	1	BATTERY	101	n/a	n/a	0	0.422607421875	0.5869140625	0	lower	zerothre.ttf
1872570	WORD	wordpools/wasnorm_wordpool_less_exclusions.txt	LTP281	ltpFR	17	10	1	CLAY	320	n/a	n/a	0	0.422607421875	0.5869140625	0	lower	zerothre.ttf
1876594	WORD	wordpools/wasnorm_wordpool_less_exclusions.txt	LTP281	ltpFR	17	10	0	COMPANION	357	n/a	n/a	0	0.57763671875	0.412841796875	1	upper	amplitud.ttf
1880667	WORD	wordpools/wasnorm_wordpool_less_exclusions.txt	LTP281	ltpFR	17	10	0	TICK	1463	n/a	n/a	0	0.57763671875	0.412841796875	1	upper	amplitud.ttf
1884498	WORD	wordpools/wasnorm_wordpool_less_exclusions.txt	LTP281	ltpFR	17	10	1	SEAT	1264	n/a	n/a	0	0.422607421875	0.5869140625	0	lower	zerothre.ttf
1888707	WORD	wordpools/wasnorm_wordpool_less_exclusions.txt	LTP281	ltpFR	17	10	1	CONTINENT	367	n/a	n/a	0	0.422607421875	0.5869140625	0	lower	zerothre.ttf
1892612	WORD	wordpools/wasnorm_wordpool_less_exclusions.txt	LTP281	ltpFR	17	10	1	MAMMAL	861	n/a	n/a	1	0.422607421875	0.5869140625	0	lower	zerothre.ttf
1896570	WORD	wordpools/wasnorm_wordpool_less_exclusions.txt	LTP281	ltpFR	17	10	1	HOUND	724	n/a	n/a	1	0.422607421875	0.5869140625	0	lower	zerothre.ttf
1900468	WORD	wordpools/wasnorm_wordpool_less_exclusions.txt	LTP281	ltpFR	17	10	0	VISITOR	1573	n/a	n/a	0	0.57763671875	0.412841796875	1	upper	amplitud.ttf
1904490	WORD	wordpools/wasnorm_wordpool_less_exclusions.txt	LTP281	ltpFR	17	10	0	SATURN	1236	n/a	n/a	0	0.57763671875	0.412841796875	1	upper	amplitud.ttf
1908673	WORD	wordpools/wasnorm_wordpool_less_exclusions.txt	LTP281	ltpFR	17	10	0	MARS	873	n/a	n/a	1	0.57763671875	0.412841796875	1	upper	amplitud.ttf
1912831	WORD	wordpools/wasnorm_wordpool_less_exclusions.txt	LTP281	ltpFR	17	10	0	HAMMOCK	681	n/a	n/a	0	0.57763671875	0.412841796875	1	upper	amplitud.ttf
1918905	REC_START	n/a	LTP281	ltpFR	17	10	n/a	n/a	n/a	n/a	n/a	n/a	n/a	n/a	n/a	n/a	n/a
1919377	REC_WORD	wordpools/wasnorm_wordpool_less_exclusions.txt	LTP281	ltpFR	17	10	0	HAMMOCK	681	n/a	n/a	0	n/a	n/a	n/a	n/a	n/a
1920535	REC_WORD	wordpools/wasnorm_wordpool_less_exclusions.txt	LTP281	ltpFR	17	10	0	SATURN	1236	n/a	n/a	0	n/a	n/a	n/a	n/a	n/a
1922022	REC_WORD	wordpools/wasnorm_wordpool_less_exclusions.txt	LTP281	ltpFR	17	10	0	MARS	873	n/a	n/a	1	n/a	n/a	n/a	n/a	n/a
1924244	REC_WORD	wordpools/wasnorm_wordpool_less_exclusions.txt	LTP281	ltpFR	17	10	1	MAMMAL	861	n/a	n/a	1	n/a	n/a	n/a	n/a	n/a
1926405	REC_WORD	wordpools/wasnorm_wordpool_less_exclusions.txt	LTP281	ltpFR	17	10	1	CONTINENT	367	n/a	n/a	0	n/a	n/a	n/a	n/a	n/a
1950945	REC_WORD	wordpools/wasnorm_wordpool_less_exclusions.txt	LTP281	ltpFR	17	10	0	PAVEMENT	1028	n/a	n/a	1	n/a	n/a	n/a	n/a	n/a
2008475	WORD	wordpools/wasnorm_wordpool_less_exclusions.txt	LTP281	ltpFR	17	11	1	ATTIC	56	n/a	n/a	0	0.422607421875	0.5869140625	0	lower	zerothre.ttf
2012423	WORD	wordpools/wasnorm_wordpool_less_exclusions.txt	LTP281	ltpFR	17	11	1	BAIT	70	n/a	n/a	0	0.422607421875	0.5869140625	0	lower	zerothre.ttf
2016462	WORD	wordpools/wasnorm_wordpool_less_exclusions.txt	LTP281	ltpFR	17	11	1	LOUNGE	845	n/a	n/a	0	0.422607421875	0.5869140625	0	lower	zerothre.ttf
2020595	WORD	wordpools/wasnorm_wordpool_less_exclusions.txt	LTP281	ltpFR	17	11	1	ALLIGATOR	16	n/a	n/a	1	0.422607421875	0.5869140625	0	lower	zerothre.ttf
2024727	WORD	wordpools/wasnorm_wordpool_less_exclusions.txt	LTP281	ltpFR	17	11	1	HANDKERCHIEF	686	n/a	n/a	0	0.422607421875	0.5869140625	0	lower	zerothre.ttf
2028826	WORD	wordpools/wasnorm_wordpool_less_exclusions.txt	LTP281	ltpFR	17	11	1	SALMON	1227	n/a	n/a	1	0.422607421875	0.5869140625	0	lower	zerothre.ttf
2032783	WORD	wordpools/wasnorm_wordpool_less_exclusions.txt	LTP281	ltpFR	17	11	1	CHIEF	298	n/a	n/a	1	0.422607421875	0.5869140625	0	lower	zerothre.ttf
2036655	WORD	wordpools/wasnorm_wordpool_less_exclusions.txt	LTP281	ltpFR	17	11	1	NOMAD	955	n/a	n/a	1	0.422607421875	0.5869140625	0	lower	zerothre.ttf
2040780	WORD	wordpools/wasnorm_wordpool_less_exclusions.txt	LTP281	ltpFR	17	11	1	SUPPER	1411	n/a	n/a	0	0.422607421875	0.5869140625	0	lower	zerothre.ttf
2044786	WORD	wordpools/wasnorm_wordpool_less_exclusions.txt	LTP281	ltpFR	17	11	1	APARTMENT	30	n/a	n/a	1	0.422607421875	0.5869140625	0	lower	zerothre.ttf
2048767	WORD	wordpools/wasnorm_wordpool_less_exclusions.txt	LTP281	ltpFR	17	11	1	WICK	1607	n/a	n/a	0	0.422607421875	0.5869140625	0	lower	zerothre.ttf
2052615	WORD	wordpools/wasnorm_wordpool_less_exclusions.txt	LTP281	ltpFR	17	11	1	TEAM	1441	n/a	n/a	0	0.422607421875	0.5869140625	0	lower	zerothre.ttf
2056489	WORD	wordpools/wasnorm_wordpool_less_exclusions.txt	LTP281	ltpFR	17	11	1	FOOTBALL	591	n/a	n/a	0	0.422607421875	0.5869140625	0	lower	zerothre.ttf
2060337	WORD	wordpools/wasnorm_wordpool_less_exclusions.txt	LTP281	ltpFR	17	11	1	CITY	314	n/a	n/a	0	0.422607421875	0.5869140625	0	lower	zerothre.ttf
2064486	WORD	wordpools/wasnorm_wordpool_less_exclusions.txt	LTP281	ltpFR	17	11	1	DIAL	457	n/a	n/a	0	0.422607421875	0.5869140625	0	lower	zerothre.ttf
2068568	WORD	wordpools/wasnorm_wordpool_less_exclusions.txt	LTP281	ltpFR	17	11	1	RING	1193	n/a	n/a	0	0.422607421875	0.5869140625	0	lower	zerothre.ttf
2074591	REC_START	n/a	LTP281	ltpFR	17	11	n/a	n/a	n/a	n/a	n/a	n/a	n/a	n/a	n/a	n/a	n/a
2076496	REC_WORD	wordpools/wasnorm_wordpool_less_exclusions.txt	LTP281	ltpFR	17	11	1	RING	1193	n/a	n/a	0	n/a	n/a	n/a	n/a	n/a
2077401	REC_WORD	wordpools/wasnorm_wordpool_less_exclusions.txt	LTP281	ltpFR	17	11	1	SUPPER	1411	n/a	n/a	0	n/a	n/a	n/a	n/a	n/a
2084188	REC_WORD	wordpools/wasnorm_wordpool_less_exclusions.txt	LTP281	ltpFR	17	11	1	ATTIC	56	n/a	n/a	0	n/a	n/a	n/a	n/a	n/a
2091695	REC_WORD	wordpools/wasnorm_wordpool_less_exclusions.txt	LTP281	ltpFR	17	11	1	NOMAD	955	n/a	n/a	1	n/a	n/a	n/a	n/a	n/a
2092638	REC_WORD	wordpools/wasnorm_wordpool_less_exclusions.txt	LTP281	ltpFR	17	11	1	CHIEF	298	n/a	n/a	1	n/a	n/a	n/a	n/a	n/a
2186503	WORD	wordpools/wasnorm_wordpool_less_exclusions.txt	LTP281	ltpFR	17	12	-1	SHEET	1279	n/a	n/a	-1	1.0	1.0	1	upper	Verdana.ttf
2190377	WORD	wordpools/wasnorm_wordpool_less_exclusions.txt	LTP281	ltpFR	17	12	-1	SCROLL	1257	n/a	n/a	-1	1.0	1.0	1	upper	Verdana.ttf
2194492	WORD	wordpools/wasnorm_wordpool_less_exclusions.txt	LTP281	ltpFR	17	12	-1	CAGE	218	n/a	n/a	-1	1.0	1.0	1	upper	Verdana.ttf
2198532	WORD	wordpools/wasnorm_wordpool_less_exclusions.txt	LTP281	ltpFR	17	12	-1	VET	1560	n/a	n/a	-1	1.0	1.0	1	upper	Verdana.ttf
2202740	WORD	wordpools/wasnorm_wordpool_less_exclusions.txt	LTP281	ltpFR	17	12	-1	COCKTAIL	338	n/a	n/a	-1	1.0	1.0	1	upper	Verdana.ttf
2206880	WORD	wordpools/wasnorm_wordpool_less_exclusions.txt	LTP281	ltpFR	17	12	-1	BASEBALL	93	n/a	n/a	-1	1.0	1.0	1	upper	Verdana.ttf
2210862	WORD	wordpools/wasnorm_wordpool_less_exclusions.txt	LTP281	ltpFR	17	12	-1	SPIT	1354	n/a	n/a	-1	1.0	1.0	1	upper	Verdana.ttf
2214994	WORD	wordpools/wasnorm_wordpool_less_exclusions.txt	LTP281	ltpFR	17	12	-1	CAPITAL	238	n/a	n/a	-1	1.0	1.0	1	upper	Verdana.ttf
2219202	WORD	wordpools/wasnorm_wordpool_less_exclusions.txt	LTP281	ltpFR	17	12	-1	AWARD	63	n/a	n/a	-1	1.0	1.0	1	upper	Verdana.ttf
2223342	WORD	wordpools/wasnorm_wordpool_less_exclusions.txt	LTP281	ltpFR	17	12	-1	SANDPAPER	1231	n/a	n/a	-1	1.0	1.0	1	upper	Verdana.ttf
2227400	WORD	wordpools/wasnorm_wordpool_less_exclusions.txt	LTP281	ltpFR	17	12	-1	STEREO	1378	n/a	n/a	-1	1.0	1.0	1	upper	Verdana.ttf
2231289	WORD	wordpools/wasnorm_wordpool_less_exclusions.txt	LTP281	ltpFR	17	12	-1	PRINTER	1126	n/a	n/a	-1	1.0	1.0	1	upper	Verdana.ttf
2235254	WORD	wordpools/wasnorm_wordpool_less_exclusions.txt	LTP281	ltpFR	17	12	-1	UMPIRE	1535	n/a	n/a	-1	1.0	1.0	1	upper	Verdana.ttf
2239244	WORD	wordpools/wasnorm_wordpool_less_exclusions.txt	LTP281	ltpFR	17	12	-1	KEG	770	n/a	n/a	-1	1.0	1.0	1	upper	Verdana.ttf
2243293	WORD	wordpools/wasnorm_wordpool_less_exclusions.txt	LTP281	ltpFR	17	12	-1	ASH	44	n/a	n/a	-1	1.0	1.0	1	upper	Verdana.ttf
2247258	WORD	wordpools/wasnorm_wordpool_less_exclusions.txt	LTP281	ltpFR	17	12	-1	NAPKIN	937	n/a	n/a	-1	1.0	1.0	1	upper	Verdana.ttf
2253281	REC_START	n/a	LTP281	ltpFR	17	12	n/a	n/a	n/a	n/a	n/a	n/a	n/a	n/a	n/a	n/a	n/a
2253901	REC_WORD	wordpools/wasnorm_wordpool_less_exclusions.txt	LTP281	ltpFR	17	12	-1	PRINTER	1126	n/a	n/a	-1	n/a	n/a	n/a	n/a	n/a
2254966	REC_WORD	wordpools/wasnorm_wordpool_less_exclusions.txt	LTP281	ltpFR	17	12	-1	UMPIRE	1535	n/a	n/a	-1	n/a	n/a	n/a	n/a	n/a
2256219	REC_WORD	wordpools/wasnorm_wordpool_less_exclusions.txt	LTP281	ltpFR	17	12	-1	KEG	770	n/a	n/a	-1	n/a	n/a	n/a	n/a	n/a
2257252	REC_WORD	wordpools/wasnorm_wordpool_less_exclusions.txt	LTP281	ltpFR	17	12	-1	ASH	44	n/a	n/a	-1	n/a	n/a	n/a	n/a	n/a
2258003	REC_WORD	wordpools/wasnorm_wordpool_less_exclusions.txt	LTP281	ltpFR	17	12	-1	NAPKIN	937	n/a	n/a	-1	n/a	n/a	n/a	n/a	n/a
2297666	REC_WORD	wordpools/wasnorm_wordpool_less_exclusions.txt	LTP281	ltpFR	17	12	-1	CAGE	218	n/a	n/a	-1	n/a	n/a	n/a	n/a	n/a
2343872	WORD	wordpools/wasnorm_wordpool_less_exclusions.txt	LTP281	ltpFR	17	13	-1	SUPERMARKET	1409	n/a	n/a	-1	1.0	1.0	1	upper	Verdana.ttf
2348045	WORD	wordpools/wasnorm_wordpool_less_exclusions.txt	LTP281	ltpFR	17	13	-1	PORK	1108	n/a	n/a	-1	1.0	1.0	1	upper	Verdana.ttf
2352053	WORD	wordpools/wasnorm_wordpool_less_exclusions.txt	LTP281	ltpFR	17	13	-1	LOAF	835	n/a	n/a	-1	1.0	1.0	1	upper	Verdana.ttf
2356009	WORD	wordpools/wasnorm_wordpool_less_exclusions.txt	LTP281	ltpFR	17	13	-1	ARTIST	43	n/a	n/a	-1	1.0	1.0	1	upper	Verdana.ttf
2359916	WORD	wordpools/wasnorm_wordpool_less_exclusions.txt	LTP281	ltpFR	17	13	-1	EYELASH	546	n/a	n/a	-1	1.0	1.0	1	upper	Verdana.ttf
2363788	WORD	wordpools/wasnorm_wordpool_less_exclusions.txt	LTP281	ltpFR	17	13	-1	TWIN	1528	n/a	n/a	-1	1.0	1.0	1	upper	Verdana.ttf
2367770	WORD	wordpools/wasnorm_wordpool_less_exclusions.txt	LTP281	ltpFR	17	13	-1	TWEEZERS	1526	n/a	n/a	-1	1.0	1.0	1	upper	Verdana.ttf
2371986	WORD	wordpools/wasnorm_wordpool_less_exclusions.txt	LTP281	ltpFR	17	13	-1	DAM	436	n/a	n/a	-1	1.0	1.0	1	upper	Verdana.ttf
2375834	WORD	wordpools/wasnorm_wordpool_less_exclusions.txt	LTP281	ltpFR	17	13	-1	LAKE	796	n/a	n/a	-1	1.0	1.0	1	upper	Verdana.ttf
2379925	WORD	wordpools/wasnorm_wordpool_less_exclusions.txt	LTP281	ltpFR	17	13	-1	DRAWING	494	n/a	n/a	-1	1.0	1.0	1	upper	Verdana.ttf
2383981	WORD	wordpools/wasnorm_wordpool_less_exclusions.txt	LTP281	ltpFR	17	13	-1	FACE	547	n/a	n/a	-1	1.0	1.0	1	upper	Verdana.ttf
2387979	WORD	wordpools/wasnorm_wordpool_less_exclusions.txt	LTP281	ltpFR	17	13	-1	CONCERT	360	n/a	n/a	-1	1.0	1.0	1	upper	Verdana.ttf
2392162	WORD	wordpools/wasnorm_wordpool_less_exclusions.txt	LTP281	ltpFR	17	13	-1	ALBUM	14	n/a	n/a	-1	1.0	1.0	1	upper	Verdana.ttf
2396311	WORD	wordpools/wasnorm_wordpool_less_exclusions.txt	LTP281	ltpFR	17	13	-1	LIMOUSINE	824	n/a	n/a	-1	1.0	1.0	1	upper	Verdana.ttf
2400242	WORD	wordpools/wasnorm_wordpool_less_exclusions.txt	LTP281	ltpFR	17	13	-1	VINEGAR	1569	n/a	n/a	-1	1.0	1.0	1	upper	Verdana.ttf
2404300	WORD	wordpools/wasnorm_wordpool_less_exclusions.txt	LTP281	ltpFR	17	13	-1	CART	250	n/a	n/a	-1	1.0	1.0	1	upper	Verdana.ttf
2410298	REC_START	n/a	LTP281	ltpFR	17	13	n/a	n/a	n/a	n/a	n/a	n/a	n/a	n/a	n/a	n/a	n/a
2411278	REC_WORD	wordpools/wasnorm_wordpool_less_exclusions.txt	LTP281	ltpFR	17	13	-1	CART	250	n/a	n/a	-1	n/a	n/a	n/a	n/a	n/a
2412070	REC_WORD	wordpools/wasnorm_wordpool_less_exclusions.txt	LTP281	ltpFR	17	13	-1	LIMOUSINE	824	n/a	n/a	-1	n/a	n/a	n/a	n/a	n/a
2413294	REC_WORD	wordpools/wasnorm_wordpool_less_exclusions.txt	LTP281	ltpFR	17	13	-1	DAM	436	n/a	n/a	-1	n/a	n/a	n/a	n/a	n/a
2495284	WORD	wordpools/wasnorm_wordpool_less_exclusions.txt	LTP281	ltpFR	17	14	1	CONTRACTOR	369	n/a	n/a	0	0.422607421875	0.5869140625	0	lower	zerothre.ttf
2499459	WORD	wordpools/wasnorm_wordpool_less_exclusions.txt	LTP281	ltpFR	17	14	1	TOWER	1490	n/a	n/a	0	0.422607421875	0.5869140625	0	lower	zerothre.ttf
2503381	WORD	wordpools/wasnorm_wordpool_less_exclusions.txt	LTP281	ltpFR	17	14	0	CAR	241	n/a	n/a	0	0.57763671875	0.412841796875	1	upper	amplitud.ttf
2507439	WORD	wordpools/wasnorm_wordpool_less_exclusions.txt	LTP281	ltpFR	17	14	0	PLANT	1083	n/a	n/a	0	0.57763671875	0.412841796875	1	upper	amplitud.ttf
2511662	WORD	wordpools/wasnorm_wordpool_less_exclusions.txt	LTP281	ltpFR	17	14	0	UNICORN	1538	n/a	n/a	1	0.57763671875	0.412841796875	1	upper	amplitud.ttf
2515727	WORD	wordpools/wasnorm_wordpool_less_exclusions.txt	LTP281	ltpFR	17	14	0	RANCH	1166	n/a	n/a	1	0.57763671875	0.412841796875	1	upper	amplitud.ttf
2519943	WORD	wordpools/wasnorm_wordpool_less_exclusions.txt	LTP281	ltpFR	17	14	1	SYRUP	1425	n/a	n/a	0	0.422607421875	0.5869140625	0	lower	zerothre.ttf
2524142	WORD	wordpools/wasnorm_wordpool_less_exclusions.txt	LTP281	ltpFR	17	14	1	GRATE	657	n/a	n/a	0	0.422607421875	0.5869140625	0	lower	zerothre.ttf
2528174	WORD	wordpools/wasnorm_wordpool_less_exclusions.txt	LTP281	ltpFR	17	14	1	CURB	426	n/a	n/a	0	0.422607421875	0.5869140625	0	lower	zerothre.ttf
2532349	WORD	wordpools/wasnorm_wordpool_less_exclusions.txt	LTP281	ltpFR	17	14	0	THICKET	1455	n/a	n/a	0	0.57763671875	0.412841796875	1	upper	amplitud.ttf
2536338	WORD	wordpools/wasnorm_wordpool_less_exclusions.txt	LTP281	ltpFR	17	14	0	FOREHEAD	592	n/a	n/a	0	0.57763671875	0.412841796875	1	upper	amplitud.ttf
2540169	WORD	wordpools/wasnorm_wordpool_less_exclusions.txt	LTP281	ltpFR	17	14	0	LEAF	808	n/a	n/a	0	0.57763671875	0.412841796875	1	upper	amplitud.ttf
2544151	WORD	wordpools/wasnorm_wordpool_less_exclusions.txt	LTP281	ltpFR	17	14	0	HERO	706	n/a	n/a	1	0.57763671875	0.412841796875	1	upper	amplitud.ttf
2548049	WORD	wordpools/wasnorm_wordpool_less_exclusions.txt	LTP281	ltpFR	17	14	1	MAPLE	866	n/a	n/a	0	0.422607421875	0.5869140625	0	lower	zerothre.ttf
2552098	WORD	wordpools/wasnorm_wordpool_less_exclusions.txt	LTP281	ltpFR	17	14	1	PICKLE	1059	n/a	n/a	1	0.422607421875	0.5869140625	0	lower	zerothre.ttf
2556122	WORD	wordpools/wasnorm_wordpool_less_exclusions.txt	LTP281	ltpFR	17	14	1	LAPEL	800	n/a	n/a	0	0.422607421875	0.5869140625	0	lower	zerothre.ttf
2561878	REC_START	n/a	LTP281	ltpFR	17	14	n/a	n/a	n/a	n/a	n/a	n/a	n/a	n/a	n/a	n/a	n/a
2563540	REC_WORD	wordpools/wasnorm_wordpool_less_exclusions.txt	LTP281	ltpFR	17	14	1	PICKLE	1059	n/a	n/a	1	n/a	n/a	n/a	n/a	n/a
2564227	REC_WORD	wordpools/wasnorm_wordpool_less_exclusions.txt	LTP281	ltpFR	17	14	1	LAPEL	800	n/a	n/a	0	n/a	n/a	n/a	n/a	n/a
2567187	REC_WORD	wordpools/wasnorm_wordpool_less_exclusions.txt	LTP281	ltpFR	17	14	1	GRATE	657	n/a	n/a	0	n/a	n/a	n/a	n/a	n/a
2567887	REC_WORD	wordpools/wasnorm_wordpool_less_exclusions.txt	LTP281	ltpFR	17	14	0	THICKET	1455	n/a	n/a	0	n/a	n/a	n/a	n/a	n/a
2569229	REC_WORD	wordpools/wasnorm_wordpool_less_exclusions.txt	LTP281	ltpFR	17	14	0	UNICORN	1538	n/a	n/a	1	n/a	n/a	n/a	n/a	n/a
2588078	REC_WORD	wordpools/wasnorm_wordpool_less_exclusions.txt	LTP281	ltpFR	17	14	1	LAPEL	800	n/a	n/a	0	n/a	n/a	n/a	n/a	n/a
2654995	WORD	wordpools/wasnorm_wordpool_less_exclusions.txt	LTP281	ltpFR	17	15	0	POND	1101	n/a	n/a	0	0.57763671875	0.412841796875	1	upper	amplitud.ttf
2658984	WORD	wordpools/wasnorm_wordpool_less_exclusions.txt	LTP281	ltpFR	17	15	0	PELICAN	1039	n/a	n/a	1	0.57763671875	0.412841796875	1	upper	amplitud.ttf
2663175	WORD	wordpools/wasnorm_wordpool_less_exclusions.txt	LTP281	ltpFR	17	15	0	SALIVA	1226	n/a	n/a	0	0.57763671875	0.412841796875	1	upper	amplitud.ttf
2667224	WORD	wordpools/wasnorm_wordpool_less_exclusions.txt	LTP281	ltpFR	17	15	1	SHARK	1275	n/a	n/a	0	0.422607421875	0.5869140625	0	lower	zerothre.ttf
2671340	WORD	wordpools/wasnorm_wordpool_less_exclusions.txt	LTP281	ltpFR	17	15	1	RAFT	1159	n/a	n/a	0	0.422607421875	0.5869140625	0	lower	zerothre.ttf
2675446	WORD	wordpools/wasnorm_wordpool_less_exclusions.txt	LTP281	ltpFR	17	15	1	BUCKET	184	n/a	n/a	0	0.422607421875	0.5869140625	0	lower	zerothre.ttf
2679545	WORD	wordpools/wasnorm_wordpool_less_exclusions.txt	LTP281	ltpFR	17	15	0	CABLE	213	n/a	n/a	0	0.57763671875	0.412841796875	1	upper	amplitud.ttf
2683510	WORD	wordpools/wasnorm_wordpool_less_exclusions.txt	LTP281	ltpFR	17	15	0	TUBA	1515	n/a	n/a	0	0.57763671875	0.412841796875	1	upper	amplitud.ttf
2687501	WORD	wordpools/wasnorm_wordpool_less_exclusions.txt	LTP281	ltpFR	17	15	0	SPONGE	1355	n/a	n/a	0	0.57763671875	0.412841796875	1	upper	amplitud.ttf
2691507	WORD	wordpools/wasnorm_wordpool_less_exclusions.txt	LTP281	ltpFR	17	15	0	COD	340	n/a	n/a	0	0.57763671875	0.412841796875	1	upper	amplitud.ttf
2695681	WORD	wordpools/wasnorm_wordpool_less_exclusions.txt	LTP281	ltpFR	17	15	0	CONDUCTOR	362	n/a	n/a	0	0.57763671875	0.412841796875	1	upper	amplitud.ttf
2699587	WORD	wordpools/wasnorm_wordpool_less_exclusions.txt	LTP281	ltpFR	17	15	1	LIMB	822	n/a	n/a	0	0.422607421875	0.5869140625	0	lower	zerothre.ttf
2703669	WORD	wordpools/wasnorm_wordpool_less_exclusions.txt	LTP281	ltpFR	17	15	1	THUMB	1462	n/a	n/a	0	0.422607421875	0.5869140625	0	lower	zerothre.ttf
2707734	WORD	wordpools/wasnorm_wordpool_less_exclusions.txt	LTP281	ltpFR	17	15	1	HEN	703	n/a	n/a	1	0.422607421875	0.5869140625	0	lower	zerothre.ttf
2711558	WORD	wordpools/wasnorm_wordpool_less_exclusions.txt	LTP281	ltpFR	17	15	1	BOUILLON	154	n/a	n/a	0	0.422607421875	0.5869140625	0	lower	zerothre.ttf
2715397	WORD	wordpools/wasnorm_wordpool_less_exclusions.txt	LTP281	ltpFR	17	15	1	SPACE	1345	n/a	n/a	0	0.422607421875	0.5869140625	0	lower	zerothre.ttf
2721262	REC_START	n/a	LTP281	ltpFR	17	15	n/a	n/a	n/a	n/a	n/a	n/a	n/a	n/a	n/a	n/a	n/a
2722045	REC_WORD	wordpools/wasnorm_wordpool_less_exclusions.txt	LTP281	ltpFR	17	15	1	SPACE	1345	n/a	n/a	0	n/a	n/a	n/a	n/a	n/a
2723293	REC_WORD	wordpools/wasnorm_wordpool_less_exclusions.txt	LTP281	ltpFR	17	15	1	BOUILLON	154	n/a	n/a	0	n/a	n/a	n/a	n/a	n/a
2724551	REC_WORD	wordpools/wasnorm_wordpool_less_exclusions.txt	LTP281	ltpFR	17	15	1	HEN	703	n/a	n/a	1	n/a	n/a	n/a	n/a	n/a
2736251	REC_WORD	wordpools/wasnorm_wordpool_less_exclusions.txt	LTP281	ltpFR	17	15	0	CONDUCTOR	362	n/a	n/a	0	n/a	n/a	n/a	n/a	n/a
2737251	REC_WORD_VV	wordpools/wasnorm_wordpool_less_exclusions.txt	LTP281	ltpFR	17	15	n/a	<>	-1	n/a	n/a	n/a	n/a	n/a	n/a	n/a	n/a
2803980	WORD	wordpools/wasnorm_wordpool_less_exclusions.txt	LTP281	ltpFR	17	16	1	SUSPECT	1415	n/a	n/a	0	0.422607421875	0.5869140625	0	lower	zerothre.ttf
2807955	WORD	wordpools/wasnorm_wordpool_less_exclusions.txt	LTP281	ltpFR	17	16	1	STOCKING	1383	n/a	n/a	0	0.422607421875	0.5869140625	0	lower	zerothre.ttf
2812161	WORD	wordpools/wasnorm_wordpool_less_exclusions.txt	LTP281	ltpFR	17	16	1	JET	756	n/a	n/a	1	0.422607421875	0.5869140625	0	lower	zerothre.ttf
2816102	WORD	wordpools/wasnorm_wordpool_less_exclusions.txt	LTP281	ltpFR	17	16	0	STEWARDESS	1381	n/a	n/a	0	0.57763671875	0.412841796875	1	upper	amplitud.ttf
2820258	WORD	wordpools/wasnorm_wordpool_less_exclusions.txt	LTP281	ltpFR	17	16	0	SIDING	1304	n/a	n/a	0	0.57763671875	0.412841796875	1	upper	amplitud.ttf
2824450	WORD	wordpools/wasnorm_wordpool_less_exclusions.txt	LTP281	ltpFR	17	16	0	WAITRESS	1581	n/a	n/a	1	0.57763671875	0.412841796875	1	upper	amplitud.ttf
2828348	WORD	wordpools/wasnorm_wordpool_less_exclusions.txt	LTP281	ltpFR	17	16	0	PATH	1023	n/a	n/a	0	0.57763671875	0.412841796875	1	upper	amplitud.ttf
2832480	WORD	wordpools/wasnorm_wordpool_less_exclusions.txt	LTP281	ltpFR	17	16	0	HIGHWAY	707	n/a	n/a	0	0.57763671875	0.412841796875	1	upper	amplitud.ttf
2836654	WORD	wordpools/wasnorm_wordpool_less_exclusions.txt	LTP281	ltpFR	17	16	0	MUSHROOM	934	n/a	n/a	0	0.57763671875	0.412841796875	1	upper	amplitud.ttf
2840669	WORD	wordpools/wasnorm_wordpool_less_exclusions.txt	LTP281	ltpFR	17	16	1	BRICK	172	n/a	n/a	0	0.422607421875	0.5869140625	0	lower	zerothre.ttf
2844801	WORD	wordpools/wasnorm_wordpool_less_exclusions.txt	LTP281	ltpFR	17	16	1	COAL	332	n/a	n/a	0	0.422607421875	0.5869140625	0	lower	zerothre.ttf
2848900	WORD	wordpools/wasnorm_wordpool_less_exclusions.txt	LTP281	ltpFR	17	16	1	SCISSORS	1250	n/a	n/a	0	0.422607421875	0.5869140625	0	lower	zerothre.ttf
2853041	WORD	wordpools/wasnorm_wordpool_less_exclusions.txt	LTP281	ltpFR	17	16	1	ASSOCIATE	49	n/a	n/a	1	0.422607421875	0.5869140625	0	lower	zerothre.ttf
2856863	WORD	wordpools/wasnorm_wordpool_less_exclusions.txt	LTP281	ltpFR	17	16	1	HORIZON	717	n/a	n/a	0	0.422607421875	0.5869140625	0	lower	zerothre.ttf
2860770	WORD	wordpools/wasnorm_wordpool_less_exclusions.txt	LTP281	ltpFR	17	16	0	RAISIN	1163	n/a	n/a	0	0.57763671875	0.412841796875	1	upper	amplitud.ttf
2864743	WORD	wordpools/wasnorm_wordpool_less_exclusions.txt	LTP281	ltpFR	17	16	0	OUTLAW	989	n/a	n/a	0	0.57763671875	0.412841796875	1	upper	amplitud.ttf
2870616	REC_START	n/a	LTP281	ltpFR	17	16	n/a	n/a	n/a	n/a	n/a	n/a	n/a	n/a	n/a	n/a	n/a
2871943	REC_WORD	wordpools/wasnorm_wordpool_less_exclusions.txt	LTP281	ltpFR	17	16	0	OUTLAW	989	n/a	n/a	0	n/a	n/a	n/a	n/a	n/a
2872656	REC_WORD	wordpools/wasnorm_wordpool_less_exclusions.txt	LTP281	ltpFR	17	16	0	RAISIN	1163	n/a	n/a	0	n/a	n/a	n/a	n/a	n/a
2873358	REC_WORD	wordpools/wasnorm_wordpool_less_exclusions.txt	LTP281	ltpFR	17	16	0	STEWARDESS	1381	n/a	n/a	0	n/a	n/a	n/a	n/a	n/a
2874327	REC_WORD	wordpools/wasnorm_wordpool_less_exclusions.txt	LTP281	ltpFR	17	16	0	WAITRESS	1581	n/a	n/a	1	n/a	n/a	n/a	n/a	n/a
3468730	REC_START	n/a	LTP281	ltpFR	17	1	n/a	n/a	n/a	n/a	n/a	n/a	n/a	n/a	n/a	n/a	n/a
3468795	RECOG_TARGET	n/a	LTP281	ltpFR	17	1	1	ALLIGATOR	16	1	4	1	n/a	n/a	n/a	n/a	n/a
3470290	RECOG_RESP	n/a	LTP281	ltpFR	17	1	1	ALLIGATOR	16	1	n/a	1	n/a	n/a	n/a	n/a	n/a
3471770	RECOG_CONF	n/a	LTP281	ltpFR	17	1	1	ALLIGATOR	16	n/a	4	1	n/a	n/a	n/a	n/a	n/a
3473463	RECOG_LURE	n/a	LTP281	ltpFR	17	1	n/a	LEG	809	1	2	n/a	n/a	n/a	n/a	n/a	n/a
3474545	RECOG_RESP	n/a	LTP281	ltpFR	17	1	n/a	LEG	809	1	n/a	n/a	n/a	n/a	n/a	n/a	n/a
3475230	RECOG_CONF	n/a	LTP281	ltpFR	17	1	n/a	LEG	809	n/a	2	n/a	n/a	n/a	n/a	n/a	n/a
3476850	RECOG_LURE	n/a	LTP281	ltpFR	17	1	n/a	LIME	823	1	1	n/a	n/a	n/a	n/a	n/a	n/a
3477665	RECOG_RESP	n/a	LTP281	ltpFR	17	1	n/a	LIME	823	1	n/a	n/a	n/a	n/a	n/a	n/a	n/a
3478290	RECOG_CONF	n/a	LTP281	ltpFR	17	1	n/a	LIME	823	n/a	1	n/a	n/a	n/a	n/a	n/a	n/a
3479894	RECOG_LURE	n/a	LTP281	ltpFR	17	1	n/a	CABBAGE	210	1	1	n/a	n/a	n/a	n/a	n/a	n/a
3480870	RECOG_RESP	n/a	LTP281	ltpFR	17	1	n/a	CABBAGE	210	1	n/a	n/a	n/a	n/a	n/a	n/a	n/a
3481430	RECOG_CONF	n/a	LTP281	ltpFR	17	1	n/a	CABBAGE	210	n/a	1	n/a	n/a	n/a	n/a	n/a	n/a
3483166	RECOG_LURE	n/a	LTP281	ltpFR	17	1	n/a	HOE	711	0	1	n/a	n/a	n/a	n/a	n/a	n/a
3484086	RECOG_RESP	n/a	LTP281	ltpFR	17	1	n/a	HOE	711	0	n/a	n/a	n/a	n/a	n/a	n/a	n/a
3484608	RECOG_CONF	n/a	LTP281	ltpFR	17	1	n/a	HOE	711	n/a	1	n/a	n/a	n/a	n/a	n/a	n/a
3486168	RECOG_LURE	n/a	LTP281	ltpFR	17	1	n/a	EXPERT	543	0	1	n/a	n/a	n/a	n/a	n/a	n/a
3487495	RECOG_RESP	n/a	LTP281	ltpFR	17	1	n/a	EXPERT	543	0	n/a	n/a	n/a	n/a	n/a	n/a	n/a
3488050	RECOG_CONF	n/a	LTP281	ltpFR	17	1	n/a	EXPERT	543	n/a	1	n/a	n/a	n/a	n/a	n/a	n/a
3489874	RECOG_TARGET	n/a	LTP281	ltpFR	17	1	0	POTATO	1115	0	1	0	n/a	n/a	n/a	n/a	n/a
3490505	RECOG_RESP	n/a	LTP281	ltpFR	17	1	0	POTATO	1115	0	n/a	0	n/a	n/a	n/a	n/a	n/a
3491114	RECOG_CONF	n/a	LTP281	ltpFR	17	1	0	POTATO	1115	n/a	1	0	n/a	n/a	n/a	n/a	n/a
3492726	RECOG_TARGET	n/a	LTP281	ltpFR	17	1	1	BAND	78	0	2	0	n/a	n/a	n/a	n/a	n/a
3493440	RECOG_RESP	n/a	LTP281	ltpFR	17	1	1	BAND	78	0	n/a	0	n/a	n/a	n/a	n/a	n/a
3494090	RECOG_CONF	n/a	LTP281	ltpFR	17	1	1	BAND	78	n/a	2	0	n/a	n/a	n/a	n/a	n/a
3495654	RECOG_LURE	n/a	LTP281	ltpFR	17	1	n/a	ROACH	1195	0	1	n/a	n/a	n/a	n/a	n/a	n/a
3496545	RECOG_RESP	n/a	LTP281	ltpFR	17	1	n/a	ROACH	1195	0	n/a	n/a	n/a	n/a	n/a	n/a	n/a
3497079	RECOG_CONF	n/a	LTP281	ltpFR	17	1	n/a	ROACH	1195	n/a	1	n/a	n/a	n/a	n/a	n/a	n/a
3498782	RECOG_TARGET	n/a	LTP281	ltpFR	17	1	0	RANCH	1166	1	4	1	n/a	n/a	n/a	n/a	n/a
3499470	RECOG_RESP	n/a	LTP281	ltpFR	17	1	0	RANCH	1166	1	n/a	1	n/a	n/a	n/a	n/a	n/a
3500070	RECOG_CONF	n/a	LTP281	ltpFR	17	1	0	RANCH	1166	n/a	4	1	n/a	n/a	n/a	n/a	n/a
3501635	RECOG_TARGET	n/a	LTP281	ltpFR	17	1	-1	DEPARTMENT	449	0	1	-1	n/a	n/a	n/a	n/a	n/a
3502415	RECOG_RESP	n/a	LTP281	ltpFR	17	1	-1	DEPARTMENT	449	0	n/a	-1	n/a	n/a	n/a	n/a	n/a
3502920	RECOG_CONF	n/a	LTP281	ltpFR	17	1	-1	DEPARTMENT	449	n/a	1	-1	n/a	n/a	n/a	n/a	n/a
3504664	RECOG_TARGET	n/a	LTP281	ltpFR	17	1	-1	CRYSTAL	418	1	1	-1	n/a	n/a	n/a	n/a	n/a
3504910	RECOG_RESP	n/a	LTP281	ltpFR	17	1	-1	CRYSTAL	418	1	n/a	-1	n/a	n/a	n/a	n/a	n/a
3505450	RECOG_CONF	n/a	LTP281	ltpFR	17	1	-1	CRYSTAL	418	n/a	1	-1	n/a	n/a	n/a	n/a	n/a
3507140	RECOG_TARGET	n/a	LTP281	ltpFR	17	1	-1	COCKTAIL	338	1	1	-1	n/a	n/a	n/a	n/a	n/a
3507605	RECOG_RESP	n/a	LTP281	ltpFR	17	1	-1	COCKTAIL	338	1	n/a	-1	n/a	n/a	n/a	n/a	n/a
3508210	RECOG_CONF	n/a	LTP281	ltpFR	17	1	-1	COCKTAIL	338	n/a	1	-1	n/a	n/a	n/a	n/a	n/a
3509816	RECOG_LURE	n/a	LTP281	ltpFR	17	1	n/a	HOME	712	0	1	n/a	n/a	n/a	n/a	n/a	n/a
3511015	RECOG_RESP	n/a	LTP281	ltpFR	17	1	n/a	HOME	712	0	n/a	n/a	n/a	n/a	n/a	n/a	n/a
3511500	RECOG_CONF	n/a	LTP281	ltpFR	17	1	n/a	HOME	712	n/a	1	n/a	n/a	n/a	n/a	n/a	n/a
3513012	RECOG_LURE	n/a	LTP281	ltpFR	17	1	n/a	FUNERAL	613	0	2	n/a	n/a	n/a	n/a	n/a	n/a
3513860	RECOG_RESP	n/a	LTP281	ltpFR	17	1	n/a	FUNERAL	613	0	n/a	n/a	n/a	n/a	n/a	n/a	n/a
3514460	RECOG_CONF	n/a	LTP281	ltpFR	17	1	n/a	FUNERAL	613	n/a	2	n/a	n/a	n/a	n/a	n/a	n/a
3515973	RECOG_LURE	n/a	LTP281	ltpFR	17	1	n/a	BEAKER	104	0	1	n/a	n/a	n/a	n/a	n/a	n/a
3516705	RECOG_RESP	n/a	LTP281	ltpFR	17	1	n/a	BEAKER	104	0	n/a	n/a	n/a	n/a	n/a	n/a	n/a
3517260	RECOG_CONF	n/a	LTP281	ltpFR	17	1	n/a	BEAKER	104	n/a	1	n/a	n/a	n/a	n/a	n/a	n/a
3518800	RECOG_TARGET	n/a	LTP281	ltpFR	17	1	1	PICKLE	1059	1	4	1	n/a	n/a	n/a	n/a	n/a
3519430	RECOG_RESP	n/a	LTP281	ltpFR	17	1	1	PICKLE	1059	1	n/a	1	n/a	n/a	n/a	n/a	n/a
3520040	RECOG_CONF	n/a	LTP281	ltpFR	17	1	1	PICKLE	1059	n/a	4	1	n/a	n/a	n/a	n/a	n/a
3521477	RECOG_TARGET	n/a	LTP281	ltpFR	17	1	0	FAUCET	555	1	5	1	n/a	n/a	n/a	n/a	n/a
3522260	RECOG_RESP	n/a	LTP281	ltpFR	17	1	0	FAUCET	555	1	n/a	1	n/a	n/a	n/a	n/a	n/a
3522800	RECOG_CONF	n/a	LTP281	ltpFR	17	1	0	FAUCET	555	n/a	5	1	n/a	n/a	n/a	n/a	n/a
3524471	RECOG_LURE	n/a	LTP281	ltpFR	17	1	n/a	PEAR	1033	0	1	n/a	n/a	n/a	n/a	n/a	n/a
3525270	RECOG_RESP	n/a	LTP281	ltpFR	17	1	n/a	PEAR	1033	0	n/a	n/a	n/a	n/a	n/a	n/a	n/a
3525804	RECOG_CONF	n/a	LTP281	ltpFR	17	1	n/a	PEAR	1033	n/a	1	n/a	n/a	n/a	n/a	n/a	n/a
3527349	RECOG_LURE	n/a	LTP281	ltpFR	17	1	n/a	YOUTH	1634	0	2	n/a	n/a	n/a	n/a	n/a	n/a
3527990	RECOG_RESP	n/a	LTP281	ltpFR	17	1	n/a	YOUTH	1634	0	n/a	n/a	n/a	n/a	n/a	n/a	n/a
3528680	RECOG_CONF	n/a	LTP281	ltpFR	17	1	n/a	YOUTH	1634	n/a	2	n/a	n/a	n/a	n/a	n/a	n/a
3531784	REC_START	n/a	LTP281	ltpFR	17	2	n/a	n/a	n/a	n/a	n/a	n/a	n/a	n/a	n/a	n/a	n/a
3531840	RECOG_LURE	n/a	LTP281	ltpFR	17	2	n/a	GOLD	647	0	1	n/a	n/a	n/a	n/a	n/a	n/a
3532514	RECOG_RESP	n/a	LTP281	ltpFR	17	2	n/a	GOLD	647	0	n/a	n/a	n/a	n/a	n/a	n/a	n/a
3533034	RECOG_CONF	n/a	LTP281	ltpFR	17	2	n/a	GOLD	647	n/a	1	n/a	n/a	n/a	n/a	n/a	n/a
3534660	RECOG_LURE	n/a	LTP281	ltpFR	17	2	n/a	KEYBOARD	774	0	2	n/a	n/a	n/a	n/a	n/a	n/a
3535414	RECOG_RESP	n/a	LTP281	ltpFR	17	2	n/a	KEYBOARD	774	0	n/a	n/a	n/a	n/a	n/a	n/a	n/a
3536024	RECOG_CONF	n/a	LTP281	ltpFR	17	2	n/a	KEYBOARD	774	n/a	2	n/a	n/a	n/a	n/a	n/a	n/a
3537461	RECOG_LURE	n/a	LTP281	ltpFR	17	2	n/a	MAP	865	0	1	n/a	n/a	n/a	n/a	n/a	n/a
3538359	RECOG_RESP	n/a	LTP281	ltpFR	17	2	n/a	MAP	865	0	n/a	n/a	n/a	n/a	n/a	n/a	n/a
3538982	RECOG_CONF	n/a	LTP281	ltpFR	17	2	n/a	MAP	865	n/a	1	n/a	n/a	n/a	n/a	n/a	n/a
3540482	RECOG_LURE	n/a	LTP281	ltpFR	17	2	n/a	TOTE	1487	0	1	n/a	n/a	n/a	n/a	n/a	n/a
3541144	RECOG_RESP	n/a	LTP281	ltpFR	17	2	n/a	TOTE	1487	0	n/a	n/a	n/a	n/a	n/a	n/a	n/a
3541664	RECOG_CONF	n/a	LTP281	ltpFR	17	2	n/a	TOTE	1487	n/a	1	n/a	n/a	n/a	n/a	n/a	n/a
3543242	RECOG_TARGET	n/a	LTP281	ltpFR	17	2	1	CONTINENT	367	1	3	0	n/a	n/a	n/a	n/a	n/a
3543999	RECOG_RESP	n/a	LTP281	ltpFR	17	2	1	CONTINENT	367	1	n/a	0	n/a	n/a	n/a	n/a	n/a
3544544	RECOG_CONF	n/a	LTP281	ltpFR	17	2	1	CONTINENT	367	n/a	3	0	n/a	n/a	n/a	n/a	n/a
3546127	RECOG_LURE	n/a	LTP281	ltpFR	17	2	n/a	INMATE	738	0	1	n/a	n/a	n/a	n/a	n/a	n/a
3546804	RECOG_RESP	n/a	LTP281	ltpFR	17	2	n/a	INMATE	738	0	n/a	n/a	n/a	n/a	n/a	n/a	n/a
3547268	RECOG_CONF	n/a	LTP281	ltpFR	17	2	n/a	INMATE	738	n/a	1	n/a	n/a	n/a	n/a	n/a	n/a
3548921	RECOG_LURE	n/a	LTP281	ltpFR	17	2	n/a	CHEESE	289	0	2	n/a	n/a	n/a	n/a	n/a	n/a
3549569	RECOG_RESP	n/a	LTP281	ltpFR	17	2	n/a	CHEESE	289	0	n/a	n/a	n/a	n/a	n/a	n/a	n/a
3550104	RECOG_CONF	n/a	LTP281	ltpFR	17	2	n/a	CHEESE	289	n/a	2	n/a	n/a	n/a	n/a	n/a	n/a
3551548	RECOG_TARGET	n/a	LTP281	ltpFR	17	2	0	PARTY	1018	1	4	0	n/a	n/a	n/a	n/a	n/a
3552664	RECOG_RESP	n/a	LTP281	ltpFR	17	2	0	PARTY	1018	1	n/a	0	n/a	n/a	n/a	n/a	n/a
3553274	RECOG_CONF	n/a	LTP281	ltpFR	17	2	0	PARTY	1018	n/a	4	0	n/a	n/a	n/a	n/a	n/a
3554827	RECOG_TARGET	n/a	LTP281	ltpFR	17	2	0	DIME	466	1	1	0	n/a	n/a	n/a	n/a	n/a
3556209	RECOG_RESP	n/a	LTP281	ltpFR	17	2	0	DIME	466	1	n/a	0	n/a	n/a	n/a	n/a	n/a
3556794	RECOG_CONF	n/a	LTP281	ltpFR	17	2	0	DIME	466	n/a	1	0	n/a	n/a	n/a	n/a	n/a
3558424	RECOG_LURE	n/a	LTP281	ltpFR	17	2	n/a	SPOON	1357	0	1	n/a	n/a	n/a	n/a	n/a	n/a
3559174	RECOG_RESP	n/a	LTP281	ltpFR	17	2	n/a	SPOON	1357	0	n/a	n/a	n/a	n/a	n/a	n/a	n/a
3559644	RECOG_CONF	n/a	LTP281	ltpFR	17	2	n/a	SPOON	1357	n/a	1	n/a	n/a	n/a	n/a	n/a	n/a
3561184	RECOG_LURE	n/a	LTP281	ltpFR	17	2	n/a	BALLOON	75	0	1	n/a	n/a	n/a	n/a	n/a	n/a
3561839	RECOG_RESP	n/a	LTP281	ltpFR	17	2	n/a	BALLOON	75	0	n/a	n/a	n/a	n/a	n/a	n/a	n/a
3562446	RECOG_CONF	n/a	LTP281	ltpFR	17	2	n/a	BALLOON	75	n/a	1	n/a	n/a	n/a	n/a	n/a	n/a
3563987	RECOG_TARGET	n/a	LTP281	ltpFR	17	2	0	WIRE	1616	1	1	0	n/a	n/a	n/a	n/a	n/a
3564644	RECOG_RESP_VV	n/a	LTP281	ltpFR	17	2	0	WIRE	1616	0	n/a	0	n/a	n/a	n/a	n/a	n/a
3565243	RECOG_RESP	n/a	LTP281	ltpFR	17	2	0	WIRE	1616	1	n/a	0	n/a	n/a	n/a	n/a	n/a
3565843	RECOG_CONF	n/a	LTP281	ltpFR	17	2	0	WIRE	1616	n/a	1	0	n/a	n/a	n/a	n/a	n/a
3567374	RECOG_LURE	n/a	LTP281	ltpFR	17	2	n/a	RATTLE	1170	0	2	n/a	n/a	n/a	n/a	n/a	n/a
3568104	RECOG_RESP	n/a	LTP281	ltpFR	17	2	n/a	RATTLE	1170	0	n/a	n/a	n/a	n/a	n/a	n/a	n/a
3568684	RECOG_CONF	n/a	LTP281	ltpFR	17	2	n/a	RATTLE	1170	n/a	2	n/a	n/a	n/a	n/a	n/a	n/a
3570285	RECOG_TARGET	n/a	LTP281	ltpFR	17	2	1	ATTIC	56	1	1	0	n/a	n/a	n/a	n/a	n/a
3571419	RECOG_RESP	n/a	LTP281	ltpFR	17	2	1	ATTIC	56	1	n/a	0	n/a	n/a	n/a	n/a	n/a
3571994	RECOG_CONF	n/a	LTP281	ltpFR	17	2	1	ATTIC	56	n/a	1	0	n/a	n/a	n/a	n/a	n/a
3573607	RECOG_LURE	n/a	LTP281	ltpFR	17	2	n/a	FARM	552	0	2	n/a	n/a	n/a	n/a	n/a	n/a
3574424	RECOG_RESP	n/a	LTP281	ltpFR	17	2	n/a	FARM	552	0	n/a	n/a	n/a	n/a	n/a	n/a	n/a
3575004	RECOG_CONF	n/a	LTP281	ltpFR	17	2	n/a	FARM	552	n/a	2	n/a	n/a	n/a	n/a	n/a	n/a
3576551	RECOG_LURE	n/a	LTP281	ltpFR	17	2	n/a	MOTH	920	0	3	n/a	n/a	n/a	n/a	n/a	n/a
3577369	RECOG_RESP	n/a	LTP281	ltpFR	17	2	n/a	MOTH	920	0	n/a	n/a	n/a	n/a	n/a	n/a	n/a
3578293	RECOG_CONF	n/a	LTP281	ltpFR	17	2	n/a	MOTH	920	n/a	3	n/a	n/a	n/a	n/a	n/a	n/a
3579938	RECOG_TARGET	n/a	LTP281	ltpFR	17	2	-1	FINGERNAIL	568	0	4	-1	n/a	n/a	n/a	n/a	n/a
3580859	RECOG_RESP_VV	n/a	LTP281	ltpFR	17	2	-1	FINGERNAIL	568	1	n/a	-1	n/a	n/a	n/a	n/a	n/a
3581869	RECOG_RESP	n/a	LTP281	ltpFR	17	2	-1	FINGERNAIL	568	0	n/a	-1	n/a	n/a	n/a	n/a	n/a
3582684	RECOG_CONF	n/a	LTP281	ltpFR	17	2	-1	FINGERNAIL	568	n/a	4	-1	n/a	n/a	n/a	n/a	n/a
3584405	RECOG_LURE	n/a	LTP281	ltpFR	17	2	n/a	FROST	609	0	2	n/a	n/a	n/a	n/a	n/a	n/a
3585129	RECOG_RESP	n/a	LTP281	ltpFR	17	2	n/a	FROST	609	0	n/a	n/a	n/a	n/a	n/a	n/a	n/a
3585624	RECOG_CONF	n/a	LTP281	ltpFR	17	2	n/a	FROST	609	n/a	2	n/a	n/a	n/a	n/a	n/a	n/a
3587175	RECOG_TARGET	n/a	LTP281	ltpFR	17	2	1	TAIL	1430	1	4	0	n/a	n/a	n/a	n/a	n/a
3587804	RECOG_RESP	n/a	LTP281	ltpFR	17	2	1	TAIL	1430	1	n/a	0	n/a	n/a	n/a	n/a	n/a
3588204	RECOG_CONF	n/a	LTP281	ltpFR	17	2	1	TAIL	1430	n/a	4	0	n/a	n/a	n/a	n/a	n/a
3589901	RECOG_LURE	n/a	LTP281	ltpFR	17	2	n/a	BOULEVARD	156	0	1	n/a	n/a	n/a	n/a	n/a	n/a
3590499	RECOG_RESP	n/a	LTP281	ltpFR	17	2	n/a	BOULEVARD	156	0	n/a	n/a	n/a	n/a	n/a	n/a	n/a
3590954	RECOG_CONF	n/a	LTP281	ltpFR	17	2	n/a	BOULEVARD	156	n/a	1	n/a	n/a	n/a	n/a	n/a	n/a
3593792	REC_START	n/a	LTP281	ltpFR	17	3	n/a	n/a	n/a	n/a	n/a	n/a	n/a	n/a	n/a	n/a	n/a
3593841	RECOG_TARGET	n/a	LTP281	ltpFR	17	3	-1	MARKET	871	0	2	-1	n/a	n/a	n/a	n/a	n/a
3594622	RECOG_RESP	n/a	LTP281	ltpFR	17	3	-1	MARKET	871	0	n/a	-1	n/a	n/a	n/a	n/a	n/a
3595162	RECOG_CONF	n/a	LTP281	ltpFR	17	3	-1	MARKET	871	n/a	2	-1	n/a	n/a	n/a	n/a	n/a
3596735	RECOG_LURE	n/a	LTP281	ltpFR	17	3	n/a	CITRUS	313	1	1	n/a	n/a	n/a	n/a	n/a	n/a
3597247	RECOG_RESP	n/a	LTP281	ltpFR	17	3	n/a	CITRUS	313	1	n/a	n/a	n/a	n/a	n/a	n/a	n/a
3597642	RECOG_CONF	n/a	LTP281	ltpFR	17	3	n/a	CITRUS	313	n/a	1	n/a	n/a	n/a	n/a	n/a	n/a
3599428	RECOG_LURE	n/a	LTP281	ltpFR	17	3	n/a	CAFE	216	0	1	n/a	n/a	n/a	n/a	n/a	n/a
3600222	RECOG_RESP	n/a	LTP281	ltpFR	17	3	n/a	CAFE	216	0	n/a	n/a	n/a	n/a	n/a	n/a	n/a
3600772	RECOG_CONF	n/a	LTP281	ltpFR	17	3	n/a	CAFE	216	n/a	1	n/a	n/a	n/a	n/a	n/a	n/a
3602373	RECOG_TARGET	n/a	LTP281	ltpFR	17	3	1	BRICK	172	0	2	0	n/a	n/a	n/a	n/a	n/a
3603017	RECOG_RESP	n/a	LTP281	ltpFR	17	3	1	BRICK	172	0	n/a	0	n/a	n/a	n/a	n/a	n/a
3603502	RECOG_CONF	n/a	LTP281	ltpFR	17	3	1	BRICK	172	n/a	2	0	n/a	n/a	n/a	n/a	n/a
3605150	RECOG_LURE	n/a	LTP281	ltpFR	17	3	n/a	SAND	1230	0	1	n/a	n/a	n/a	n/a	n/a	n/a
3606617	RECOG_RESP	n/a	LTP281	ltpFR	17	3	n/a	SAND	1230	0	n/a	n/a	n/a	n/a	n/a	n/a	n/a
3607072	RECOG_CONF	n/a	LTP281	ltpFR	17	3	n/a	SAND	1230	n/a	1	n/a	n/a	n/a	n/a	n/a	n/a
3608605	RECOG_TARGET	n/a	LTP281	ltpFR	17	3	-1	STEREO	1378	0	2	-1	n/a	n/a	n/a	n/a	n/a
3609312	RECOG_RESP	n/a	LTP281	ltpFR	17	3	-1	STEREO	1378	0	n/a	-1	n/a	n/a	n/a	n/a	n/a
3609852	RECOG_CONF	n/a	LTP281	ltpFR	17	3	-1	STEREO	1378	n/a	2	-1	n/a	n/a	n/a	n/a	n/a
3611416	RECOG_TARGET	n/a	LTP281	ltpFR	17	3	-1	COMMITTEE	355	1	1	-1	n/a	n/a	n/a	n/a	n/a
3612827	RECOG_RESP	n/a	LTP281	ltpFR	17	3	-1	COMMITTEE	355	1	n/a	-1	n/a	n/a	n/a	n/a	n/a
3613262	RECOG_CONF	n/a	LTP281	ltpFR	17	3	-1	COMMITTEE	355	n/a	1	-1	n/a	n/a	n/a	n/a	n/a
3614913	RECOG_LURE	n/a	LTP281	ltpFR	17	3	n/a	CUE	422	0	1	n/a	n/a	n/a	n/a	n/a	n/a
3615837	RECOG_RESP	n/a	LTP281	ltpFR	17	3	n/a	CUE	422	0	n/a	n/a	n/a	n/a	n/a	n/a	n/a
3616222	RECOG_CONF	n/a	LTP281	ltpFR	17	3	n/a	CUE	422	n/a	1	n/a	n/a	n/a	n/a	n/a	n/a
3617848	RECOG_LURE	n/a	LTP281	ltpFR	17	3	n/a	FEAST	556	0	2	n/a	n/a	n/a	n/a	n/a	n/a
3618652	RECOG_RESP	n/a	LTP281	ltpFR	17	3	n/a	FEAST	556	0	n/a	n/a	n/a	n/a	n/a	n/a	n/a
3619077	RECOG_CONF	n/a	LTP281	ltpFR	17	3	n/a	FEAST	556	n/a	2	n/a	n/a	n/a	n/a	n/a	n/a
3620725	RECOG_TARGET	n/a	LTP281	ltpFR	17	3	1	HOUND	724	1	2	1	n/a	n/a	n/a	n/a	n/a
3621507	RECOG_RESP	n/a	LTP281	ltpFR	17	3	1	HOUND	724	1	n/a	1	n/a	n/a	n/a	n/a	n/a
3622032	RECOG_CONF	n/a	LTP281	ltpFR	17	3	1	HOUND	724	n/a	2	1	n/a	n/a	n/a	n/a	n/a
3623703	RECOG_LURE	n/a	LTP281	ltpFR	17	3	n/a	SHOP	1290	0	2	n/a	n/a	n/a	n/a	n/a	n/a
3624407	RECOG_RESP	n/a	LTP281	ltpFR	17	3	n/a	SHOP	1290	0	n/a	n/a	n/a	n/a	n/a	n/a	n/a
3624832	RECOG_CONF	n/a	LTP281	ltpFR	17	3	n/a	SHOP	1290	n/a	2	n/a	n/a	n/a	n/a	n/a	n/a
3626530	RECOG_TARGET	n/a	LTP281	ltpFR	17	3	0	INVENTOR	743	0	1	1	n/a	n/a	n/a	n/a	n/a
3627792	RECOG_RESP	n/a	LTP281	ltpFR	17	3	0	INVENTOR	743	0	n/a	1	n/a	n/a	n/a	n/a	n/a
3628292	RECOG_CONF	n/a	LTP281	ltpFR	17	3	0	INVENTOR	743	n/a	1	1	n/a	n/a	n/a	n/a	n/a
3629902	RECOG_TARGET	n/a	LTP281	ltpFR	17	3	1	ELECTRON	522	1	2	1	n/a	n/a	n/a	n/a	n/a
3630522	RECOG_RESP	n/a	LTP281	ltpFR	17	3	1	ELECTRON	522	1	n/a	1	n/a	n/a	n/a	n/a	n/a
3631033	RECOG_CONF	n/a	LTP281	ltpFR	17	3	1	ELECTRON	522	n/a	2	1	n/a	n/a	n/a	n/a	n/a
3632637	RECOG_LURE	n/a	LTP281	ltpFR	17	3	n/a	COFFEE	341	0	1	n/a	n/a	n/a	n/a	n/a	n/a
3633402	RECOG_RESP	n/a	LTP281	ltpFR	17	3	n/a	COFFEE	341	0	n/a	n/a	n/a	n/a	n/a	n/a	n/a
3633812	RECOG_CONF	n/a	LTP281	ltpFR	17	3	n/a	COFFEE	341	n/a	1	n/a	n/a	n/a	n/a	n/a	n/a
3635514	RECOG_TARGET	n/a	LTP281	ltpFR	17	3	-1	TACK	1428	1	4	-1	n/a	n/a	n/a	n/a	n/a
3636237	RECOG_RESP	n/a	LTP281	ltpFR	17	3	-1	TACK	1428	1	n/a	-1	n/a	n/a	n/a	n/a	n/a
3636672	RECOG_CONF	n/a	LTP281	ltpFR	17	3	-1	TACK	1428	n/a	4	-1	n/a	n/a	n/a	n/a	n/a
3638258	RECOG_LURE	n/a	LTP281	ltpFR	17	3	n/a	UTENSIL	1542	1	1	n/a	n/a	n/a	n/a	n/a	n/a
3639197	RECOG_RESP	n/a	LTP281	ltpFR	17	3	n/a	UTENSIL	1542	1	n/a	n/a	n/a	n/a	n/a	n/a	n/a
3639708	RECOG_CONF	n/a	LTP281	ltpFR	17	3	n/a	UTENSIL	1542	n/a	1	n/a	n/a	n/a	n/a	n/a	n/a
3641320	RECOG_LURE	n/a	LTP281	ltpFR	17	3	n/a	COOKBOOK	373	0	3	n/a	n/a	n/a	n/a	n/a	n/a
3642087	RECOG_RESP	n/a	LTP281	ltpFR	17	3	n/a	COOKBOOK	373	0	n/a	n/a	n/a	n/a	n/a	n/a	n/a
3642612	RECOG_CONF	n/a	LTP281	ltpFR	17	3	n/a	COOKBOOK	373	n/a	3	n/a	n/a	n/a	n/a	n/a	n/a
3644089	RECOG_LURE	n/a	LTP281	ltpFR	17	3	n/a	SWATTER	1418	0	1	n/a	n/a	n/a	n/a	n/a	n/a
3644782	RECOG_RESP	n/a	LTP281	ltpFR	17	3	n/a	SWATTER	1418	0	n/a	n/a	n/a	n/a	n/a	n/a	n/a
3645312	RECOG_CONF	n/a	LTP281	ltpFR	17	3	n/a	SWATTER	1418	n/a	1	n/a	n/a	n/a	n/a	n/a	n/a
3646816	RECOG_TARGET	n/a	LTP281	ltpFR	17	3	1	LOUNGE	845	1	1	0	n/a	n/a	n/a	n/a	n/a
3647852	RECOG_RESP	n/a	LTP281	ltpFR	17	3	1	LOUNGE	845	1	n/a	0	n/a	n/a	n/a	n/a	n/a
3648362	RECOG_CONF	n/a	LTP281	ltpFR	17	3	1	LOUNGE	845	n/a	1	0	n/a	n/a	n/a	n/a	n/a
3649952	RECOG_TARGET	n/a	LTP281	ltpFR	17	3	0	FORK	594	1	1	0	n/a	n/a	n/a	n/a	n/a
3650557	RECOG_RESP	n/a	LTP281	ltpFR	17	3	0	FORK	594	1	n/a	0	n/a	n/a	n/a	n/a	n/a
3651082	RECOG_CONF	n/a	LTP281	ltpFR	17	3	0	FORK	594	n/a	1	0	n/a	n/a	n/a	n/a	n/a
3654292	REC_START	n/a	LTP281	ltpFR	17	4	n/a	n/a	n/a	n/a	n/a	n/a	n/a	n/a	n/a	n/a	n/a
3654352	RECOG_LURE	n/a	LTP281	ltpFR	17	4	n/a	PEOPLE	1046	0	2	n/a	n/a	n/a	n/a	n/a	n/a
3655182	RECOG_RESP	n/a	LTP281	ltpFR	17	4	n/a	PEOPLE	1046	0	n/a	n/a	n/a	n/a	n/a	n/a	n/a
3655712	RECOG_CONF	n/a	LTP281	ltpFR	17	4	n/a	PEOPLE	1046	n/a	2	n/a	n/a	n/a	n/a	n/a	n/a
3657239	RECOG_TARGET	n/a	LTP281	ltpFR	17	4	0	TELEPHONE	1445	1	1	1	n/a	n/a	n/a	n/a	n/a
3658507	RECOG_RESP	n/a	LTP281	ltpFR	17	4	0	TELEPHONE	1445	1	n/a	1	n/a	n/a	n/a	n/a	n/a
3658992	RECOG_CONF	n/a	LTP281	ltpFR	17	4	0	TELEPHONE	1445	n/a	1	1	n/a	n/a	n/a	n/a	n/a
3660651	RECOG_TARGET	n/a	LTP281	ltpFR	17	4	-1	CART	250	1	1	-1	n/a	n/a	n/a	n/a	n/a
3661247	RECOG_RESP	n/a	LTP281	ltpFR	17	4	-1	CART	250	1	n/a	-1	n/a	n/a	n/a	n/a	n/a
3661762	RECOG_CONF	n/a	LTP281	ltpFR	17	4	-1	CART	250	n/a	1	-1	n/a	n/a	n/a	n/a	n/a
3663312	RECOG_LURE	n/a	LTP281	ltpFR	17	4	n/a	PROTON	1132	0	1	n/a	n/a	n/a	n/a	n/a	n/a
3663927	RECOG_RESP	n/a	LTP281	ltpFR	17	4	n/a	PROTON	1132	0	n/a	n/a	n/a	n/a	n/a	n/a	n/a
3664452	RECOG_CONF	n/a	LTP281	ltpFR	17	4	n/a	PROTON	1132	n/a	1	n/a	n/a	n/a	n/a	n/a	n/a
3665946	RECOG_TARGET	n/a	LTP281	ltpFR	17	4	1	WALLET	1583	1	4	0	n/a	n/a	n/a	n/a	n/a
3666612	RECOG_RESP	n/a	LTP281	ltpFR	17	4	1	WALLET	1583	1	n/a	0	n/a	n/a	n/a	n/a	n/a
3667112	RECOG_CONF	n/a	LTP281	ltpFR	17	4	1	WALLET	1583	n/a	4	0	n/a	n/a	n/a	n/a	n/a
3668615	RECOG_TARGET	n/a	LTP281	ltpFR	17	4	-1	VINEGAR	1569	0	3	-1	n/a	n/a	n/a	n/a	n/a
3669222	RECOG_RESP	n/a	LTP281	ltpFR	17	4	-1	VINEGAR	1569	0	n/a	-1	n/a	n/a	n/a	n/a	n/a
3669682	RECOG_CONF	n/a	LTP281	ltpFR	17	4	-1	VINEGAR	1569	n/a	3	-1	n/a	n/a	n/a	n/a	n/a
3671292	RECOG_LURE	n/a	LTP281	ltpFR	17	4	n/a	ERASER	538	0	1	n/a	n/a	n/a	n/a	n/a	n/a
3671987	RECOG_RESP	n/a	LTP281	ltpFR	17	4	n/a	ERASER	538	0	n/a	n/a	n/a	n/a	n/a	n/a	n/a
3672462	RECOG_CONF	n/a	LTP281	ltpFR	17	4	n/a	ERASER	538	n/a	1	n/a	n/a	n/a	n/a	n/a	n/a
3673959	RECOG_LURE	n/a	LTP281	ltpFR	17	4	n/a	GRIZZLY	662	1	1	n/a	n/a	n/a	n/a	n/a	n/a
3675122	RECOG_RESP	n/a	LTP281	ltpFR	17	4	n/a	GRIZZLY	662	1	n/a	n/a	n/a	n/a	n/a	n/a	n/a
3675682	RECOG_CONF	n/a	LTP281	ltpFR	17	4	n/a	GRIZZLY	662	n/a	1	n/a	n/a	n/a	n/a	n/a	n/a
3677255	RECOG_LURE	n/a	LTP281	ltpFR	17	4	n/a	HAMBURGER	679	0	2	n/a	n/a	n/a	n/a	n/a	n/a
3677957	RECOG_RESP	n/a	LTP281	ltpFR	17	4	n/a	HAMBURGER	679	0	n/a	n/a	n/a	n/a	n/a	n/a	n/a
3678542	RECOG_CONF	n/a	LTP281	ltpFR	17	4	n/a	HAMBURGER	679	n/a	2	n/a	n/a	n/a	n/a	n/a	n/a
3680015	RECOG_TARGET	n/a	LTP281	ltpFR	17	4	0	CUSHION	428	0	1	0	n/a	n/a	n/a	n/a	n/a
3680787	RECOG_RESP	n/a	LTP281	ltpFR	17	4	0	CUSHION	428	0	n/a	0	n/a	n/a	n/a	n/a	n/a
3681172	RECOG_CONF	n/a	LTP281	ltpFR	17	4	0	CUSHION	428	n/a	1	0	n/a	n/a	n/a	n/a	n/a
3682926	RECOG_LURE	n/a	LTP281	ltpFR	17	4	n/a	CHEMICAL	291	0	2	n/a	n/a	n/a	n/a	n/a	n/a
3683497	RECOG_RESP	n/a	LTP281	ltpFR	17	4	n/a	CHEMICAL	291	0	n/a	n/a	n/a	n/a	n/a	n/a	n/a
3684042	RECOG_CONF	n/a	LTP281	ltpFR	17	4	n/a	CHEMICAL	291	n/a	2	n/a	n/a	n/a	n/a	n/a	n/a
3685595	RECOG_TARGET	n/a	LTP281	ltpFR	17	4	1	SOCIETY	1338	0	3	0	n/a	n/a	n/a	n/a	n/a
3686277	RECOG_RESP	n/a	LTP281	ltpFR	17	4	1	SOCIETY	1338	0	n/a	0	n/a	n/a	n/a	n/a	n/a
3687012	RECOG_CONF	n/a	LTP281	ltpFR	17	4	1	SOCIETY	1338	n/a	3	0	n/a	n/a	n/a	n/a	n/a
3688614	RECOG_LURE	n/a	LTP281	ltpFR	17	4	n/a	TOAST	1471	0	1	n/a	n/a	n/a	n/a	n/a	n/a
3689137	RECOG_RESP	n/a	LTP281	ltpFR	17	4	n/a	TOAST	1471	0	n/a	n/a	n/a	n/a	n/a	n/a	n/a
3689672	RECOG_CONF	n/a	LTP281	ltpFR	17	4	n/a	TOAST	1471	n/a	1	n/a	n/a	n/a	n/a	n/a	n/a
3691258	RECOG_TARGET	n/a	LTP281	ltpFR	17	4	-1	GRAPE	654	0	2	-1	n/a	n/a	n/a	n/a	n/a
3691812	RECOG_RESP	n/a	LTP281	ltpFR	17	4	-1	GRAPE	654	0	n/a	-1	n/a	n/a	n/a	n/a	n/a
3692222	RECOG_CONF	n/a	LTP281	ltpFR	17	4	-1	GRAPE	654	n/a	2	-1	n/a	n/a	n/a	n/a	n/a
3693884	RECOG_TARGET	n/a	LTP281	ltpFR	17	4	-1	SOAP	1337	1	1	-1	n/a	n/a	n/a	n/a	n/a
3694447	RECOG_RESP	n/a	LTP281	ltpFR	17	4	-1	SOAP	1337	1	n/a	-1	n/a	n/a	n/a	n/a	n/a
3694892	RECOG_CONF	n/a	LTP281	ltpFR	17	4	-1	SOAP	1337	n/a	1	-1	n/a	n/a	n/a	n/a	n/a
3696503	RECOG_LURE	n/a	LTP281	ltpFR	17	4	n/a	TURNIP	1521	0	1	n/a	n/a	n/a	n/a	n/a	n/a
3697507	RECOG_RESP	n/a	LTP281	ltpFR	17	4	n/a	TURNIP	1521	0	n/a	n/a	n/a	n/a	n/a	n/a	n/a
3697992	RECOG_CONF	n/a	LTP281	ltpFR	17	4	n/a	TURNIP	1521	n/a	1	n/a	n/a	n/a	n/a	n/a	n/a
3699606	RECOG_LURE	n/a	LTP281	ltpFR	17	4	n/a	RADIATOR	1156	0	1	n/a	n/a	n/a	n/a	n/a	n/a
3700407	RECOG_RESP	n/a	LTP281	ltpFR	17	4	n/a	RADIATOR	1156	0	n/a	n/a	n/a	n/a	n/a	n/a	n/a
3700892	RECOG_CONF	n/a	LTP281	ltpFR	17	4	n/a	RADIATOR	1156	n/a	1	n/a	n/a	n/a	n/a	n/a	n/a
3702416	RECOG_LURE	n/a	LTP281	ltpFR	17	4	n/a	ZUCCHINI	1638	0	2	n/a	n/a	n/a	n/a	n/a	n/a
3703422	RECOG_RESP	n/a	LTP281	ltpFR	17	4	n/a	ZUCCHINI	1638	0	n/a	n/a	n/a	n/a	n/a	n/a	n/a
3704012	RECOG_CONF	n/a	LTP281	ltpFR	17	4	n/a	ZUCCHINI	1638	n/a	2	n/a	n/a	n/a	n/a	n/a	n/a
3705504	RECOG_TARGET	n/a	LTP281	ltpFR	17	4	-1	PORCH	1106	0	1	-1	n/a	n/a	n/a	n/a	n/a
3706652	RECOG_RESP	n/a	LTP281	ltpFR	17	4	-1	PORCH	1106	0	n/a	-1	n/a	n/a	n/a	n/a	n/a
3707162	RECOG_CONF	n/a	LTP281	ltpFR	17	4	-1	PORCH	1106	n/a	1	-1	n/a	n/a	n/a	n/a	n/a
3708833	RECOG_LURE	n/a	LTP281	ltpFR	17	4	n/a	BRIDGE	174	0	1	n/a	n/a	n/a	n/a	n/a	n/a
3709707	RECOG_RESP	n/a	LTP281	ltpFR	17	4	n/a	BRIDGE	174	0	n/a	n/a	n/a	n/a	n/a	n/a	n/a
3710152	RECOG_CONF	n/a	LTP281	ltpFR	17	4	n/a	BRIDGE	174	n/a	1	n/a	n/a	n/a	n/a	n/a	n/a
3713399	REC_START	n/a	LTP281	ltpFR	17	5	n/a	n/a	n/a	n/a	n/a	n/a	n/a	n/a	n/a	n/a	n/a
3713458	RECOG_LURE	n/a	LTP281	ltpFR	17	5	n/a	SANDWICH	1232	0	1	n/a	n/a	n/a	n/a	n/a	n/a
3714209	RECOG_RESP	n/a	LTP281	ltpFR	17	5	n/a	SANDWICH	1232	0	n/a	n/a	n/a	n/a	n/a	n/a	n/a
3714759	RECOG_CONF	n/a	LTP281	ltpFR	17	5	n/a	SANDWICH	1232	n/a	1	n/a	n/a	n/a	n/a	n/a	n/a
3716168	RECOG_TARGET	n/a	LTP281	ltpFR	17	5	0	OUTLAW	989	0	1	0	n/a	n/a	n/a	n/a	n/a
3716769	RECOG_RESP	n/a	LTP281	ltpFR	17	5	0	OUTLAW	989	0	n/a	0	n/a	n/a	n/a	n/a	n/a
3717329	RECOG_CONF	n/a	LTP281	ltpFR	17	5	0	OUTLAW	989	n/a	1	0	n/a	n/a	n/a	n/a	n/a
3718854	RECOG_TARGET	n/a	LTP281	ltpFR	17	5	1	HEART	697	1	1	1	n/a	n/a	n/a	n/a	n/a
3719404	RECOG_RESP	n/a	LTP281	ltpFR	17	5	1	HEART	697	1	n/a	1	n/a	n/a	n/a	n/a	n/a
3719969	RECOG_CONF	n/a	LTP281	ltpFR	17	5	1	HEART	697	n/a	1	1	n/a	n/a	n/a	n/a	n/a
3721531	RECOG_LURE	n/a	LTP281	ltpFR	17	5	n/a	WARDROBE	1587	1	1	n/a	n/a	n/a	n/a	n/a	n/a
3723264	RECOG_RESP	n/a	LTP281	ltpFR	17	5	n/a	WARDROBE	1587	1	n/a	n/a	n/a	n/a	n/a	n/a	n/a
3723959	RECOG_CONF	n/a	LTP281	ltpFR	17	5	n/a	WARDROBE	1587	n/a	1	n/a	n/a	n/a	n/a	n/a	n/a
3725654	RECOG_TARGET	n/a	LTP281	ltpFR	17	5	1	CHIP	303	0	3	0	n/a	n/a	n/a	n/a	n/a
3727234	RECOG_RESP	n/a	LTP281	ltpFR	17	5	1	CHIP	303	0	n/a	0	n/a	n/a	n/a	n/a	n/a
3727624	RECOG_CONF	n/a	LTP281	ltpFR	17	5	1	CHIP	303	n/a	3	0	n/a	n/a	n/a	n/a	n/a
3729234	RECOG_TARGET	n/a	LTP281	ltpFR	17	5	0	TURTLE	1522	1	4	1	n/a	n/a	n/a	n/a	n/a
3730169	RECOG_RESP	n/a	LTP281	ltpFR	17	5	0	TURTLE	1522	1	n/a	1	n/a	n/a	n/a	n/a	n/a
3730687	RECOG_CONF	n/a	LTP281	ltpFR	17	5	0	TURTLE	1522	n/a	4	1	n/a	n/a	n/a	n/a	n/a
3732138	RECOG_LURE	n/a	LTP281	ltpFR	17	5	n/a	MARROW	872	0	2	n/a	n/a	n/a	n/a	n/a	n/a
3732944	RECOG_RESP	n/a	LTP281	ltpFR	17	5	n/a	MARROW	872	0	n/a	n/a	n/a	n/a	n/a	n/a	n/a
3733319	RECOG_CONF	n/a	LTP281	ltpFR	17	5	n/a	MARROW	872	n/a	2	n/a	n/a	n/a	n/a	n/a	n/a
3734848	RECOG_LURE	n/a	LTP281	ltpFR	17	5	n/a	AUNT	60	0	1	n/a	n/a	n/a	n/a	n/a	n/a
3735564	RECOG_RESP	n/a	LTP281	ltpFR	17	5	n/a	AUNT	60	0	n/a	n/a	n/a	n/a	n/a	n/a	n/a
3735919	RECOG_CONF	n/a	LTP281	ltpFR	17	5	n/a	AUNT	60	n/a	1	n/a	n/a	n/a	n/a	n/a	n/a
3737508	RECOG_TARGET	n/a	LTP281	ltpFR	17	5	0	PIZZA	1079	0	1	1	n/a	n/a	n/a	n/a	n/a
3738264	RECOG_RESP	n/a	LTP281	ltpFR	17	5	0	PIZZA	1079	0	n/a	1	n/a	n/a	n/a	n/a	n/a
3738729	RECOG_CONF	n/a	LTP281	ltpFR	17	5	0	PIZZA	1079	n/a	1	1	n/a	n/a	n/a	n/a	n/a
3740326	RECOG_LURE	n/a	LTP281	ltpFR	17	5	n/a	BOULDER	155	0	1	n/a	n/a	n/a	n/a	n/a	n/a
3741189	RECOG_RESP	n/a	LTP281	ltpFR	17	5	n/a	BOULDER	155	0	n/a	n/a	n/a	n/a	n/a	n/a	n/a
3741769	RECOG_CONF	n/a	LTP281	ltpFR	17	5	n/a	BOULDER	155	n/a	1	n/a	n/a	n/a	n/a	n/a	n/a
3743304	RECOG_LURE	n/a	LTP281	ltpFR	17	5	n/a	BOTTLE	153	0	2	n/a	n/a	n/a	n/a	n/a	n/a
3744229	RECOG_RESP	n/a	LTP281	ltpFR	17	5	n/a	BOTTLE	153	0	n/a	n/a	n/a	n/a	n/a	n/a	n/a
3744769	RECOG_CONF	n/a	LTP281	ltpFR	17	5	n/a	BOTTLE	153	n/a	2	n/a	n/a	n/a	n/a	n/a	n/a
3746232	RECOG_TARGET	n/a	LTP281	ltpFR	17	5	1	BAIT	70	0	3	0	n/a	n/a	n/a	n/a	n/a
3747049	RECOG_RESP	n/a	LTP281	ltpFR	17	5	1	BAIT	70	0	n/a	0	n/a	n/a	n/a	n/a	n/a
3747609	RECOG_CONF	n/a	LTP281	ltpFR	17	5	1	BAIT	70	n/a	3	0	n/a	n/a	n/a	n/a	n/a
3749286	RECOG_TARGET	n/a	LTP281	ltpFR	17	5	1	BUCKET	184	0	1	0	n/a	n/a	n/a	n/a	n/a
3749924	RECOG_RESP	n/a	LTP281	ltpFR	17	5	1	BUCKET	184	0	n/a	0	n/a	n/a	n/a	n/a	n/a
3750518	RECOG_CONF	n/a	LTP281	ltpFR	17	5	1	BUCKET	184	n/a	1	0	n/a	n/a	n/a	n/a	n/a
3752003	RECOG_LURE	n/a	LTP281	ltpFR	17	5	n/a	OWNER	993	1	1	n/a	n/a	n/a	n/a	n/a	n/a
3752394	RECOG_RESP	n/a	LTP281	ltpFR	17	5	n/a	OWNER	993	1	n/a	n/a	n/a	n/a	n/a	n/a	n/a
3752879	RECOG_CONF	n/a	LTP281	ltpFR	17	5	n/a	OWNER	993	n/a	1	n/a	n/a	n/a	n/a	n/a	n/a
3754396	RECOG_TARGET	n/a	LTP281	ltpFR	17	5	-1	LAKE	796	1	2	-1	n/a	n/a	n/a	n/a	n/a
3755633	RECOG_RESP	n/a	LTP281	ltpFR	17	5	-1	LAKE	796	1	n/a	-1	n/a	n/a	n/a	n/a	n/a
3756219	RECOG_CONF	n/a	LTP281	ltpFR	17	5	-1	LAKE	796	n/a	2	-1	n/a	n/a	n/a	n/a	n/a
3757885	RECOG_LURE	n/a	LTP281	ltpFR	17	5	n/a	RACK	1154	1	1	n/a	n/a	n/a	n/a	n/a	n/a
3758684	RECOG_RESP	n/a	LTP281	ltpFR	17	5	n/a	RACK	1154	1	n/a	n/a	n/a	n/a	n/a	n/a	n/a
3759179	RECOG_CONF	n/a	LTP281	ltpFR	17	5	n/a	RACK	1154	n/a	1	n/a	n/a	n/a	n/a	n/a	n/a
3760729	RECOG_TARGET	n/a	LTP281	ltpFR	17	5	1	WICK	1607	1	1	0	n/a	n/a	n/a	n/a	n/a
3761459	RECOG_RESP	n/a	LTP281	ltpFR	17	5	1	WICK	1607	1	n/a	0	n/a	n/a	n/a	n/a	n/a
3761899	RECOG_CONF	n/a	LTP281	ltpFR	17	5	1	WICK	1607	n/a	1	0	n/a	n/a	n/a	n/a	n/a
3763539	RECOG_LURE	n/a	LTP281	ltpFR	17	5	n/a	CHECKERS	285	0	3	n/a	n/a	n/a	n/a	n/a	n/a
3764234	RECOG_RESP	n/a	LTP281	ltpFR	17	5	n/a	CHECKERS	285	0	n/a	n/a	n/a	n/a	n/a	n/a	n/a
3764759	RECOG_CONF	n/a	LTP281	ltpFR	17	5	n/a	CHECKERS	285	n/a	3	n/a	n/a	n/a	n/a	n/a	n/a
3766350	RECOG_TARGET	n/a	LTP281	ltpFR	17	5	1	SYRUP	1425	1	2	0	n/a	n/a	n/a	n/a	n/a
3767104	RECOG_RESP	n/a	LTP281	ltpFR	17	5	1	SYRUP	1425	1	n/a	0	n/a	n/a	n/a	n/a	n/a
3767689	RECOG_CONF	n/a	LTP281	ltpFR	17	5	1	SYRUP	1425	n/a	2	0	n/a	n/a	n/a	n/a	n/a
3769335	RECOG_TARGET	n/a	LTP281	ltpFR	17	5	0	PAW	1029	1	1	0	n/a	n/a	n/a	n/a	n/a
3770009	RECOG_RESP	n/a	LTP281	ltpFR	17	5	0	PAW	1029	1	n/a	0	n/a	n/a	n/a	n/a	n/a
3770549	RECOG_CONF	n/a	LTP281	ltpFR	17	5	0	PAW	1029	n/a	1	0	n/a	n/a	n/a	n/a	n/a
3773477	REC_START	n/a	LTP281	ltpFR	17	6	n/a	n/a	n/a	n/a	n/a	n/a	n/a	n/a	n/a	n/a	n/a
3773534	RECOG_LURE	n/a	LTP281	ltpFR	17	6	n/a	POLYESTER	1100	0	1	n/a	n/a	n/a	n/a	n/a	n/a
3774332	RECOG_RESP	n/a	LTP281	ltpFR	17	6	n/a	POLYESTER	1100	0	n/a	n/a	n/a	n/a	n/a	n/a	n/a
3774737	RECOG_CONF	n/a	LTP281	ltpFR	17	6	n/a	POLYESTER	1100	n/a	1	n/a	n/a	n/a	n/a	n/a	n/a
3776187	RECOG_TARGET	n/a	LTP281	ltpFR	17	6	0	WALNUT	1584	0	1	0	n/a	n/a	n/a	n/a	n/a
3777147	RECOG_RESP	n/a	LTP281	ltpFR	17	6	0	WALNUT	1584	0	n/a	0	n/a	n/a	n/a	n/a	n/a
3777587	RECOG_CONF	n/a	LTP281	ltpFR	17	6	0	WALNUT	1584	n/a	1	0	n/a	n/a	n/a	n/a	n/a
3779232	RECOG_TARGET	n/a	LTP281	ltpFR	17	6	0	CACTUS	215	0	1	0	n/a	n/a	n/a	n/a	n/a
3780057	RECOG_RESP	n/a	LTP281	ltpFR	17	6	0	CACTUS	215	0	n/a	0	n/a	n/a	n/a	n/a	n/a
3780697	RECOG_CONF	n/a	LTP281	ltpFR	17	6	0	CACTUS	215	n/a	1	0	n/a	n/a	n/a	n/a	n/a
3786835	RECOG_LURE	n/a	LTP281	ltpFR	17	6	n/a	LASH	802	0	1	n/a	n/a	n/a	n/a	n/a	n/a
3788917	RECOG_RESP	n/a	LTP281	ltpFR	17	6	n/a	LASH	802	0	n/a	n/a	n/a	n/a	n/a	n/a	n/a
3789447	RECOG_CONF	n/a	LTP281	ltpFR	17	6	n/a	LASH	802	n/a	1	n/a	n/a	n/a	n/a	n/a	n/a
3791060	RECOG_TARGET	n/a	LTP281	ltpFR	17	6	0	BUS	201	1	1	0	n/a	n/a	n/a	n/a	n/a
3791877	RECOG_RESP	n/a	LTP281	ltpFR	17	6	0	BUS	201	1	n/a	0	n/a	n/a	n/a	n/a	n/a
3792477	RECOG_CONF	n/a	LTP281	ltpFR	17	6	0	BUS	201	n/a	1	0	n/a	n/a	n/a	n/a	n/a
3794145	RECOG_TARGET	n/a	LTP281	ltpFR	17	6	1	SHELTER	1282	1	1	0	n/a	n/a	n/a	n/a	n/a
3794912	RECOG_RESP	n/a	LTP281	ltpFR	17	6	1	SHELTER	1282	1	n/a	0	n/a	n/a	n/a	n/a	n/a
3795287	RECOG_CONF	n/a	LTP281	ltpFR	17	6	1	SHELTER	1282	n/a	1	0	n/a	n/a	n/a	n/a	n/a
3797015	RECOG_TARGET	n/a	LTP281	ltpFR	17	6	0	PUBLICATION	1136	1	2	1	n/a	n/a	n/a	n/a	n/a
3797907	RECOG_RESP	n/a	LTP281	ltpFR	17	6	0	PUBLICATION	1136	1	n/a	1	n/a	n/a	n/a	n/a	n/a
3798467	RECOG_CONF	n/a	LTP281	ltpFR	17	6	0	PUBLICATION	1136	n/a	2	1	n/a	n/a	n/a	n/a	n/a
3800068	RECOG_LURE	n/a	LTP281	ltpFR	17	6	n/a	PEBBLE	1035	0	4	n/a	n/a	n/a	n/a	n/a	n/a
3800727	RECOG_RESP	n/a	LTP281	ltpFR	17	6	n/a	PEBBLE	1035	0	n/a	n/a	n/a	n/a	n/a	n/a	n/a
3801207	RECOG_CONF	n/a	LTP281	ltpFR	17	6	n/a	PEBBLE	1035	n/a	4	n/a	n/a	n/a	n/a	n/a	n/a
3802878	RECOG_LURE	n/a	LTP281	ltpFR	17	6	n/a	PLASTER	1085	0	1	n/a	n/a	n/a	n/a	n/a	n/a
3803802	RECOG_RESP	n/a	LTP281	ltpFR	17	6	n/a	PLASTER	1085	0	n/a	n/a	n/a	n/a	n/a	n/a	n/a
3804407	RECOG_CONF	n/a	LTP281	ltpFR	17	6	n/a	PLASTER	1085	n/a	1	n/a	n/a	n/a	n/a	n/a	n/a
3805982	RECOG_TARGET	n/a	LTP281	ltpFR	17	6	1	BIOLOGIST	128	0	1	1	n/a	n/a	n/a	n/a	n/a
3806612	RECOG_RESP	n/a	LTP281	ltpFR	17	6	1	BIOLOGIST	128	0	n/a	1	n/a	n/a	n/a	n/a	n/a
3807169	RECOG_CONF	n/a	LTP281	ltpFR	17	6	1	BIOLOGIST	128	n/a	1	1	n/a	n/a	n/a	n/a	n/a
3808684	RECOG_TARGET	n/a	LTP281	ltpFR	17	6	-1	SHEET	1279	0	4	-1	n/a	n/a	n/a	n/a	n/a
3809587	RECOG_RESP	n/a	LTP281	ltpFR	17	6	-1	SHEET	1279	0	n/a	-1	n/a	n/a	n/a	n/a	n/a
3809937	RECOG_CONF	n/a	LTP281	ltpFR	17	6	-1	SHEET	1279	n/a	4	-1	n/a	n/a	n/a	n/a	n/a
3811661	RECOG_TARGET	n/a	LTP281	ltpFR	17	6	-1	OREGANO	983	0	1	-1	n/a	n/a	n/a	n/a	n/a
3812737	RECOG_RESP	n/a	LTP281	ltpFR	17	6	-1	OREGANO	983	0	n/a	-1	n/a	n/a	n/a	n/a	n/a
3813127	RECOG_CONF	n/a	LTP281	ltpFR	17	6	-1	OREGANO	983	n/a	1	-1	n/a	n/a	n/a	n/a	n/a
3814833	RECOG_LURE	n/a	LTP281	ltpFR	17	6	n/a	RACCOON	1153	0	2	n/a	n/a	n/a	n/a	n/a	n/a
3815676	RECOG_RESP	n/a	LTP281	ltpFR	17	6	n/a	RACCOON	1153	0	n/a	n/a	n/a	n/a	n/a	n/a	n/a
3816209	RECOG_CONF	n/a	LTP281	ltpFR	17	6	n/a	RACCOON	1153	n/a	2	n/a	n/a	n/a	n/a	n/a	n/a
3817911	RECOG_TARGET	n/a	LTP281	ltpFR	17	6	-1	BASSINET	97	0	1	-1	n/a	n/a	n/a	n/a	n/a
3818892	RECOG_RESP	n/a	LTP281	ltpFR	17	6	-1	BASSINET	97	0	n/a	-1	n/a	n/a	n/a	n/a	n/a
3819297	RECOG_CONF	n/a	LTP281	ltpFR	17	6	-1	BASSINET	97	n/a	1	-1	n/a	n/a	n/a	n/a	n/a
3821064	RECOG_TARGET	n/a	LTP281	ltpFR	17	6	-1	DRAWING	494	0	2	-1	n/a	n/a	n/a	n/a	n/a
3821857	RECOG_RESP	n/a	LTP281	ltpFR	17	6	-1	DRAWING	494	0	n/a	-1	n/a	n/a	n/a	n/a	n/a
3822387	RECOG_CONF	n/a	LTP281	ltpFR	17	6	-1	DRAWING	494	n/a	2	-1	n/a	n/a	n/a	n/a	n/a
3824075	RECOG_LURE	n/a	LTP281	ltpFR	17	6	n/a	AMBULANCE	19	0	3	n/a	n/a	n/a	n/a	n/a	n/a
3824747	RECOG_RESP	n/a	LTP281	ltpFR	17	6	n/a	AMBULANCE	19	0	n/a	n/a	n/a	n/a	n/a	n/a	n/a
3825259	RECOG_CONF	n/a	LTP281	ltpFR	17	6	n/a	AMBULANCE	19	n/a	3	n/a	n/a	n/a	n/a	n/a	n/a
3826886	RECOG_LURE	n/a	LTP281	ltpFR	17	6	n/a	SHEARS	1276	0	4	n/a	n/a	n/a	n/a	n/a	n/a
3827672	RECOG_RESP	n/a	LTP281	ltpFR	17	6	n/a	SHEARS	1276	0	n/a	n/a	n/a	n/a	n/a	n/a	n/a
3828427	RECOG_CONF	n/a	LTP281	ltpFR	17	6	n/a	SHEARS	1276	n/a	4	n/a	n/a	n/a	n/a	n/a	n/a
3829997	RECOG_TARGET	n/a	LTP281	ltpFR	17	6	1	CHAMBER	277	1	1	0	n/a	n/a	n/a	n/a	n/a
3831357	RECOG_RESP	n/a	LTP281	ltpFR	17	6	1	CHAMBER	277	1	n/a	0	n/a	n/a	n/a	n/a	n/a
3831787	RECOG_CONF	n/a	LTP281	ltpFR	17	6	1	CHAMBER	277	n/a	1	0	n/a	n/a	n/a	n/a	n/a
3833536	RECOG_TARGET	n/a	LTP281	ltpFR	17	6	0	LOOP	844	0	4	0	n/a	n/a	n/a	n/a	n/a
3834302	RECOG_RESP	n/a	LTP281	ltpFR	17	6	0	LOOP	844	0	n/a	0	n/a	n/a	n/a	n/a	n/a
3834917	RECOG_CONF	n/a	LTP281	ltpFR	17	6	0	LOOP	844	n/a	4	0	n/a	n/a	n/a	n/a	n/a
3836522	RECOG_TARGET	n/a	LTP281	ltpFR	17	6	0	HUT	729	1	1	0	n/a	n/a	n/a	n/a	n/a
3837102	RECOG_RESP	n/a	LTP281	ltpFR	17	6	0	HUT	729	1	n/a	0	n/a	n/a	n/a	n/a	n/a
3837617	RECOG_CONF	n/a	LTP281	ltpFR	17	6	0	HUT	729	n/a	1	0	n/a	n/a	n/a	n/a	n/a
3840731	REC_START	n/a	LTP281	ltpFR	17	7	n/a	n/a	n/a	n/a	n/a	n/a	n/a	n/a	n/a	n/a	n/a
3840788	RECOG_LURE	n/a	LTP281	ltpFR	17	7	n/a	PLUMBER	1091	0	2	n/a	n/a	n/a	n/a	n/a	n/a
3841632	RECOG_RESP	n/a	LTP281	ltpFR	17	7	n/a	PLUMBER	1091	0	n/a	n/a	n/a	n/a	n/a	n/a	n/a
3842181	RECOG_CONF	n/a	LTP281	ltpFR	17	7	n/a	PLUMBER	1091	n/a	2	n/a	n/a	n/a	n/a	n/a	n/a
3843691	RECOG_TARGET	n/a	LTP281	ltpFR	17	7	1	TOWN	1491	0	1	0	n/a	n/a	n/a	n/a	n/a
3844166	RECOG_RESP	n/a	LTP281	ltpFR	17	7	1	TOWN	1491	0	n/a	0	n/a	n/a	n/a	n/a	n/a
3844651	RECOG_CONF	n/a	LTP281	ltpFR	17	7	1	TOWN	1491	n/a	1	0	n/a	n/a	n/a	n/a	n/a
3846192	RECOG_LURE	n/a	LTP281	ltpFR	17	7	n/a	PRESIDENT	1121	0	4	n/a	n/a	n/a	n/a	n/a	n/a
3846991	RECOG_RESP	n/a	LTP281	ltpFR	17	7	n/a	PRESIDENT	1121	0	n/a	n/a	n/a	n/a	n/a	n/a	n/a
3847581	RECOG_CONF	n/a	LTP281	ltpFR	17	7	n/a	PRESIDENT	1121	n/a	4	n/a	n/a	n/a	n/a	n/a	n/a
3849236	RECOG_LURE	n/a	LTP281	ltpFR	17	7	n/a	GYMNAST	675	0	2	n/a	n/a	n/a	n/a	n/a	n/a
3849921	RECOG_RESP	n/a	LTP281	ltpFR	17	7	n/a	GYMNAST	675	0	n/a	n/a	n/a	n/a	n/a	n/a	n/a
3850421	RECOG_CONF	n/a	LTP281	ltpFR	17	7	n/a	GYMNAST	675	n/a	2	n/a	n/a	n/a	n/a	n/a	n/a
3852039	RECOG_TARGET	n/a	LTP281	ltpFR	17	7	0	CHEST	295	0	4	0	n/a	n/a	n/a	n/a	n/a
3852641	RECOG_RESP	n/a	LTP281	ltpFR	17	7	0	CHEST	295	0	n/a	0	n/a	n/a	n/a	n/a	n/a
3853171	RECOG_CONF	n/a	LTP281	ltpFR	17	7	0	CHEST	295	n/a	4	0	n/a	n/a	n/a	n/a	n/a
3854716	RECOG_LURE	n/a	LTP281	ltpFR	17	7	n/a	SPRINKLE	1359	0	2	n/a	n/a	n/a	n/a	n/a	n/a
3855391	RECOG_RESP	n/a	LTP281	ltpFR	17	7	n/a	SPRINKLE	1359	0	n/a	n/a	n/a	n/a	n/a	n/a	n/a
3855891	RECOG_CONF	n/a	LTP281	ltpFR	17	7	n/a	SPRINKLE	1359	n/a	2	n/a	n/a	n/a	n/a	n/a	n/a
3857694	RECOG_LURE	n/a	LTP281	ltpFR	17	7	n/a	PUZZLE	1146	0	1	n/a	n/a	n/a	n/a	n/a	n/a
3858306	RECOG_RESP	n/a	LTP281	ltpFR	17	7	n/a	PUZZLE	1146	0	n/a	n/a	n/a	n/a	n/a	n/a	n/a
3858781	RECOG_CONF	n/a	LTP281	ltpFR	17	7	n/a	PUZZLE	1146	n/a	1	n/a	n/a	n/a	n/a	n/a	n/a
3860311	RECOG_LURE	n/a	LTP281	ltpFR	17	7	n/a	TOOL	1480	0	2	n/a	n/a	n/a	n/a	n/a	n/a
3860790	RECOG_RESP	n/a	LTP281	ltpFR	17	7	n/a	TOOL	1480	0	n/a	n/a	n/a	n/a	n/a	n/a	n/a
3861350	RECOG_CONF	n/a	LTP281	ltpFR	17	7	n/a	TOOL	1480	n/a	2	n/a	n/a	n/a	n/a	n/a	n/a
3862854	RECOG_LURE	n/a	LTP281	ltpFR	17	7	n/a	CASH	252	0	1	n/a	n/a	n/a	n/a	n/a	n/a
3863521	RECOG_RESP	n/a	LTP281	ltpFR	17	7	n/a	CASH	252	0	n/a	n/a	n/a	n/a	n/a	n/a	n/a
3863911	RECOG_CONF	n/a	LTP281	ltpFR	17	7	n/a	CASH	252	n/a	1	n/a	n/a	n/a	n/a	n/a	n/a
3865531	RECOG_TARGET	n/a	LTP281	ltpFR	17	7	1	CURB	426	0	1	0	n/a	n/a	n/a	n/a	n/a
3865986	RECOG_RESP	n/a	LTP281	ltpFR	17	7	1	CURB	426	0	n/a	0	n/a	n/a	n/a	n/a	n/a
3866871	RECOG_CONF	n/a	LTP281	ltpFR	17	7	1	CURB	426	n/a	1	0	n/a	n/a	n/a	n/a	n/a
3868501	RECOG_TARGET	n/a	LTP281	ltpFR	17	7	1	COSTUME	383	0	1	0	n/a	n/a	n/a	n/a	n/a
3869191	RECOG_RESP	n/a	LTP281	ltpFR	17	7	1	COSTUME	383	0	n/a	0	n/a	n/a	n/a	n/a	n/a
3869621	RECOG_CONF	n/a	LTP281	ltpFR	17	7	1	COSTUME	383	n/a	1	0	n/a	n/a	n/a	n/a	n/a
3871270	RECOG_TARGET	n/a	LTP281	ltpFR	17	7	1	FOUNTAIN	597	1	3	0	n/a	n/a	n/a	n/a	n/a
3872079	RECOG_RESP	n/a	LTP281	ltpFR	17	7	1	FOUNTAIN	597	1	n/a	0	n/a	n/a	n/a	n/a	n/a
3872516	RECOG_CONF	n/a	LTP281	ltpFR	17	7	1	FOUNTAIN	597	n/a	3	0	n/a	n/a	n/a	n/a	n/a
3874047	RECOG_LURE	n/a	LTP281	ltpFR	17	7	n/a	TIMBER	1469	1	1	n/a	n/a	n/a	n/a	n/a	n/a
3874866	RECOG_RESP	n/a	LTP281	ltpFR	17	7	n/a	TIMBER	1469	1	n/a	n/a	n/a	n/a	n/a	n/a	n/a
3875318	RECOG_CONF	n/a	LTP281	ltpFR	17	7	n/a	TIMBER	1469	n/a	1	n/a	n/a	n/a	n/a	n/a	n/a
3876891	RECOG_TARGET	n/a	LTP281	ltpFR	17	7	-1	SANDPAPER	1231	0	1	-1	n/a	n/a	n/a	n/a	n/a
3877691	RECOG_RESP	n/a	LTP281	ltpFR	17	7	-1	SANDPAPER	1231	0	n/a	-1	n/a	n/a	n/a	n/a	n/a
3878135	RECOG_CONF	n/a	LTP281	ltpFR	17	7	-1	SANDPAPER	1231	n/a	1	-1	n/a	n/a	n/a	n/a	n/a
3879660	RECOG_LURE	n/a	LTP281	ltpFR	17	7	n/a	PARIS	1014	0	4	n/a	n/a	n/a	n/a	n/a	n/a
3880351	RECOG_RESP	n/a	LTP281	ltpFR	17	7	n/a	PARIS	1014	0	n/a	n/a	n/a	n/a	n/a	n/a	n/a
3880851	RECOG_CONF	n/a	LTP281	ltpFR	17	7	n/a	PARIS	1014	n/a	4	n/a	n/a	n/a	n/a	n/a	n/a
3882404	RECOG_LURE	n/a	LTP281	ltpFR	17	7	n/a	GUN	673	0	2	n/a	n/a	n/a	n/a	n/a	n/a
3883026	RECOG_RESP	n/a	LTP281	ltpFR	17	7	n/a	GUN	673	0	n/a	n/a	n/a	n/a	n/a	n/a	n/a
3883491	RECOG_CONF	n/a	LTP281	ltpFR	17	7	n/a	GUN	673	n/a	2	n/a	n/a	n/a	n/a	n/a	n/a
3885097	RECOG_LURE	n/a	LTP281	ltpFR	17	7	n/a	RASH	1167	0	1	n/a	n/a	n/a	n/a	n/a	n/a
3885616	RECOG_RESP	n/a	LTP281	ltpFR	17	7	n/a	RASH	1167	0	n/a	n/a	n/a	n/a	n/a	n/a	n/a
3886061	RECOG_CONF	n/a	LTP281	ltpFR	17	7	n/a	RASH	1167	n/a	1	n/a	n/a	n/a	n/a	n/a	n/a
3887707	RECOG_TARGET	n/a	LTP281	ltpFR	17	7	0	HUMAN	726	1	1	1	n/a	n/a	n/a	n/a	n/a
3888756	RECOG_RESP	n/a	LTP281	ltpFR	17	7	0	HUMAN	726	1	n/a	1	n/a	n/a	n/a	n/a	n/a
3889301	RECOG_CONF	n/a	LTP281	ltpFR	17	7	0	HUMAN	726	n/a	1	1	n/a	n/a	n/a	n/a	n/a
3890893	RECOG_TARGET	n/a	LTP281	ltpFR	17	7	1	DIAL	457	1	1	0	n/a	n/a	n/a	n/a	n/a
3891966	RECOG_RESP	n/a	LTP281	ltpFR	17	7	1	DIAL	457	1	n/a	0	n/a	n/a	n/a	n/a	n/a
3892456	RECOG_CONF	n/a	LTP281	ltpFR	17	7	1	DIAL	457	n/a	1	0	n/a	n/a	n/a	n/a	n/a
3893988	RECOG_LURE	n/a	LTP281	ltpFR	17	7	n/a	CRACKER	398	0	4	n/a	n/a	n/a	n/a	n/a	n/a
3894831	RECOG_RESP	n/a	LTP281	ltpFR	17	7	n/a	CRACKER	398	0	n/a	n/a	n/a	n/a	n/a	n/a	n/a
3895331	RECOG_CONF	n/a	LTP281	ltpFR	17	7	n/a	CRACKER	398	n/a	4	n/a	n/a	n/a	n/a	n/a	n/a
3898987	REC_START	n/a	LTP281	ltpFR	17	8	n/a	n/a	n/a	n/a	n/a	n/a	n/a	n/a	n/a	n/a	n/a
3899041	RECOG_LURE	n/a	LTP281	ltpFR	17	8	n/a	CARTON	251	0	2	n/a	n/a	n/a	n/a	n/a	n/a
3899742	RECOG_RESP	n/a	LTP281	ltpFR	17	8	n/a	CARTON	251	0	n/a	n/a	n/a	n/a	n/a	n/a	n/a
3900267	RECOG_CONF	n/a	LTP281	ltpFR	17	8	n/a	CARTON	251	n/a	2	n/a	n/a	n/a	n/a	n/a	n/a
3901952	RECOG_LURE	n/a	LTP281	ltpFR	17	8	n/a	BREAD	170	0	1	n/a	n/a	n/a	n/a	n/a	n/a
3902557	RECOG_RESP	n/a	LTP281	ltpFR	17	8	n/a	BREAD	170	0	n/a	n/a	n/a	n/a	n/a	n/a	n/a
3903059	RECOG_CONF	n/a	LTP281	ltpFR	17	8	n/a	BREAD	170	n/a	1	n/a	n/a	n/a	n/a	n/a	n/a
3904578	RECOG_TARGET	n/a	LTP281	ltpFR	17	8	-1	NAPKIN	937	1	5	-1	n/a	n/a	n/a	n/a	n/a
3905631	RECOG_RESP	n/a	LTP281	ltpFR	17	8	-1	NAPKIN	937	1	n/a	-1	n/a	n/a	n/a	n/a	n/a
3906077	RECOG_CONF	n/a	LTP281	ltpFR	17	8	-1	NAPKIN	937	n/a	5	-1	n/a	n/a	n/a	n/a	n/a
3907933	RECOG_TARGET	n/a	LTP281	ltpFR	17	8	1	PERSONNEL	1053	1	1	0	n/a	n/a	n/a	n/a	n/a
3909847	RECOG_RESP	n/a	LTP281	ltpFR	17	8	1	PERSONNEL	1053	1	n/a	0	n/a	n/a	n/a	n/a	n/a
3910267	RECOG_CONF	n/a	LTP281	ltpFR	17	8	1	PERSONNEL	1053	n/a	1	0	n/a	n/a	n/a	n/a	n/a
3911856	RECOG_LURE	n/a	LTP281	ltpFR	17	8	n/a	NICOTINE	951	0	3	n/a	n/a	n/a	n/a	n/a	n/a
3912612	RECOG_RESP	n/a	LTP281	ltpFR	17	8	n/a	NICOTINE	951	0	n/a	n/a	n/a	n/a	n/a	n/a	n/a
3913017	RECOG_CONF	n/a	LTP281	ltpFR	17	8	n/a	NICOTINE	951	n/a	3	n/a	n/a	n/a	n/a	n/a	n/a
3914549	RECOG_TARGET	n/a	LTP281	ltpFR	17	8	-1	KEG	770	1	4	-1	n/a	n/a	n/a	n/a	n/a
3915237	RECOG_RESP	n/a	LTP281	ltpFR	17	8	-1	KEG	770	1	n/a	-1	n/a	n/a	n/a	n/a	n/a
3915717	RECOG_CONF	n/a	LTP281	ltpFR	17	8	-1	KEG	770	n/a	4	-1	n/a	n/a	n/a	n/a	n/a
3917360	RECOG_TARGET	n/a	LTP281	ltpFR	17	8	0	LEAF	808	1	5	0	n/a	n/a	n/a	n/a	n/a
3917947	RECOG_RESP	n/a	LTP281	ltpFR	17	8	0	LEAF	808	1	n/a	0	n/a	n/a	n/a	n/a	n/a
3918277	RECOG_CONF	n/a	LTP281	ltpFR	17	8	0	LEAF	808	n/a	5	0	n/a	n/a	n/a	n/a	n/a
3919895	RECOG_LURE	n/a	LTP281	ltpFR	17	8	n/a	SLEEVE	1324	1	1	n/a	n/a	n/a	n/a	n/a	n/a
3920507	RECOG_RESP	n/a	LTP281	ltpFR	17	8	n/a	SLEEVE	1324	1	n/a	n/a	n/a	n/a	n/a	n/a	n/a
3920947	RECOG_CONF	n/a	LTP281	ltpFR	17	8	n/a	SLEEVE	1324	n/a	1	n/a	n/a	n/a	n/a	n/a	n/a
3922496	RECOG_LURE	n/a	LTP281	ltpFR	17	8	n/a	SHELF	1280	1	2	n/a	n/a	n/a	n/a	n/a	n/a
3923092	RECOG_RESP	n/a	LTP281	ltpFR	17	8	n/a	SHELF	1280	1	n/a	n/a	n/a	n/a	n/a	n/a	n/a
3923557	RECOG_CONF	n/a	LTP281	ltpFR	17	8	n/a	SHELF	1280	n/a	2	n/a	n/a	n/a	n/a	n/a	n/a
3925098	RECOG_LURE	n/a	LTP281	ltpFR	17	8	n/a	JUGGLER	763	0	1	n/a	n/a	n/a	n/a	n/a	n/a
3925727	RECOG_RESP	n/a	LTP281	ltpFR	17	8	n/a	JUGGLER	763	0	n/a	n/a	n/a	n/a	n/a	n/a	n/a
3926247	RECOG_CONF	n/a	LTP281	ltpFR	17	8	n/a	JUGGLER	763	n/a	1	n/a	n/a	n/a	n/a	n/a	n/a
3927782	RECOG_TARGET	n/a	LTP281	ltpFR	17	8	0	BUGGY	188	1	3	1	n/a	n/a	n/a	n/a	n/a
3928537	RECOG_RESP	n/a	LTP281	ltpFR	17	8	0	BUGGY	188	1	n/a	1	n/a	n/a	n/a	n/a	n/a
3929027	RECOG_CONF	n/a	LTP281	ltpFR	17	8	0	BUGGY	188	n/a	3	1	n/a	n/a	n/a	n/a	n/a
3930543	RECOG_TARGET	n/a	LTP281	ltpFR	17	8	-1	TWEEZERS	1526	1	4	-1	n/a	n/a	n/a	n/a	n/a
3931197	RECOG_RESP	n/a	LTP281	ltpFR	17	8	-1	TWEEZERS	1526	1	n/a	-1	n/a	n/a	n/a	n/a	n/a
3931647	RECOG_CONF	n/a	LTP281	ltpFR	17	8	-1	TWEEZERS	1526	n/a	4	-1	n/a	n/a	n/a	n/a	n/a
3933179	RECOG_LURE	n/a	LTP281	ltpFR	17	8	n/a	WOMAN	1620	1	1	n/a	n/a	n/a	n/a	n/a	n/a
3933767	RECOG_RESP	n/a	LTP281	ltpFR	17	8	n/a	WOMAN	1620	1	n/a	n/a	n/a	n/a	n/a	n/a	n/a
3934187	RECOG_CONF	n/a	LTP281	ltpFR	17	8	n/a	WOMAN	1620	n/a	1	n/a	n/a	n/a	n/a	n/a	n/a
3935696	RECOG_TARGET	n/a	LTP281	ltpFR	17	8	1	BENCH	121	1	2	0	n/a	n/a	n/a	n/a	n/a
3936182	RECOG_RESP	n/a	LTP281	ltpFR	17	8	1	BENCH	121	1	n/a	0	n/a	n/a	n/a	n/a	n/a
3936647	RECOG_CONF	n/a	LTP281	ltpFR	17	8	1	BENCH	121	n/a	2	0	n/a	n/a	n/a	n/a	n/a
3938205	RECOG_LURE	n/a	LTP281	ltpFR	17	8	n/a	FUNGUS	614	1	1	n/a	n/a	n/a	n/a	n/a	n/a
3938597	RECOG_RESP	n/a	LTP281	ltpFR	17	8	n/a	FUNGUS	614	1	n/a	n/a	n/a	n/a	n/a	n/a	n/a
3939099	RECOG_CONF	n/a	LTP281	ltpFR	17	8	n/a	FUNGUS	614	n/a	1	n/a	n/a	n/a	n/a	n/a	n/a
3940614	RECOG_LURE	n/a	LTP281	ltpFR	17	8	n/a	BISCUIT	130	0	2	n/a	n/a	n/a	n/a	n/a	n/a
3941612	RECOG_RESP	n/a	LTP281	ltpFR	17	8	n/a	BISCUIT	130	0	n/a	n/a	n/a	n/a	n/a	n/a	n/a
3942117	RECOG_CONF	n/a	LTP281	ltpFR	17	8	n/a	BISCUIT	130	n/a	2	n/a	n/a	n/a	n/a	n/a	n/a
3943609	RECOG_TARGET	n/a	LTP281	ltpFR	17	8	1	CLOVE	329	0	1	0	n/a	n/a	n/a	n/a	n/a
3944532	RECOG_RESP	n/a	LTP281	ltpFR	17	8	1	CLOVE	329	0	n/a	0	n/a	n/a	n/a	n/a	n/a
3945017	RECOG_CONF	n/a	LTP281	ltpFR	17	8	1	CLOVE	329	n/a	1	0	n/a	n/a	n/a	n/a	n/a
3946529	RECOG_TARGET	n/a	LTP281	ltpFR	17	8	0	PLANT	1083	1	5	0	n/a	n/a	n/a	n/a	n/a
3948097	RECOG_RESP	n/a	LTP281	ltpFR	17	8	0	PLANT	1083	1	n/a	0	n/a	n/a	n/a	n/a	n/a
3948467	RECOG_CONF	n/a	LTP281	ltpFR	17	8	0	PLANT	1083	n/a	5	0	n/a	n/a	n/a	n/a	n/a
3950109	RECOG_LURE	n/a	LTP281	ltpFR	17	8	n/a	LIP	828	1	1	n/a	n/a	n/a	n/a	n/a	n/a
3950707	RECOG_RESP	n/a	LTP281	ltpFR	17	8	n/a	LIP	828	1	n/a	n/a	n/a	n/a	n/a	n/a	n/a
3951157	RECOG_CONF	n/a	LTP281	ltpFR	17	8	n/a	LIP	828	n/a	1	n/a	n/a	n/a	n/a	n/a	n/a
3952660	RECOG_TARGET	n/a	LTP281	ltpFR	17	8	0	VISITOR	1573	1	1	0	n/a	n/a	n/a	n/a	n/a
3953292	RECOG_RESP	n/a	LTP281	ltpFR	17	8	0	VISITOR	1573	1	n/a	0	n/a	n/a	n/a	n/a	n/a
3953747	RECOG_CONF	n/a	LTP281	ltpFR	17	8	0	VISITOR	1573	n/a	1	0	n/a	n/a	n/a	n/a	n/a
3957657	REC_START	n/a	LTP281	ltpFR	17	9	n/a	n/a	n/a	n/a	n/a	n/a	n/a	n/a	n/a	n/a	n/a
3957712	RECOG_TARGET	n/a	LTP281	ltpFR	17	9	0	PRIEST	1122	1	1	1	n/a	n/a	n/a	n/a	n/a
3958557	RECOG_RESP	n/a	LTP281	ltpFR	17	9	0	PRIEST	1122	1	n/a	1	n/a	n/a	n/a	n/a	n/a
3958998	RECOG_CONF	n/a	LTP281	ltpFR	17	9	0	PRIEST	1122	n/a	1	1	n/a	n/a	n/a	n/a	n/a
3960506	RECOG_LURE	n/a	LTP281	ltpFR	17	9	n/a	GOBLIN	645	0	2	n/a	n/a	n/a	n/a	n/a	n/a
3961252	RECOG_RESP	n/a	LTP281	ltpFR	17	9	n/a	GOBLIN	645	0	n/a	n/a	n/a	n/a	n/a	n/a	n/a
3961697	RECOG_CONF	n/a	LTP281	ltpFR	17	9	n/a	GOBLIN	645	n/a	2	n/a	n/a	n/a	n/a	n/a	n/a
3963316	RECOG_TARGET	n/a	LTP281	ltpFR	17	9	0	WATER	1594	1	1	1	n/a	n/a	n/a	n/a	n/a
3964022	RECOG_RESP	n/a	LTP281	ltpFR	17	9	0	WATER	1594	1	n/a	1	n/a	n/a	n/a	n/a	n/a
3964617	RECOG_CONF	n/a	LTP281	ltpFR	17	9	0	WATER	1594	n/a	1	1	n/a	n/a	n/a	n/a	n/a
3966177	RECOG_TARGET	n/a	LTP281	ltpFR	17	9	-1	DART	440	0	1	-1	n/a	n/a	n/a	n/a	n/a
3966767	RECOG_RESP	n/a	LTP281	ltpFR	17	9	-1	DART	440	0	n/a	-1	n/a	n/a	n/a	n/a	n/a
3967255	RECOG_CONF	n/a	LTP281	ltpFR	17	9	-1	DART	440	n/a	1	-1	n/a	n/a	n/a	n/a	n/a
3968871	RECOG_TARGET	n/a	LTP281	ltpFR	17	9	-1	SUPERMARKET	1409	1	1	-1	n/a	n/a	n/a	n/a	n/a
3969667	RECOG_RESP	n/a	LTP281	ltpFR	17	9	-1	SUPERMARKET	1409	1	n/a	-1	n/a	n/a	n/a	n/a	n/a
3970187	RECOG_CONF	n/a	LTP281	ltpFR	17	9	-1	SUPERMARKET	1409	n/a	1	-1	n/a	n/a	n/a	n/a	n/a
3971757	RECOG_LURE	n/a	LTP281	ltpFR	17	9	n/a	CANARY	227	1	3	n/a	n/a	n/a	n/a	n/a	n/a
3972527	RECOG_RESP	n/a	LTP281	ltpFR	17	9	n/a	CANARY	227	1	n/a	n/a	n/a	n/a	n/a	n/a	n/a
3973037	RECOG_CONF	n/a	LTP281	ltpFR	17	9	n/a	CANARY	227	n/a	3	n/a	n/a	n/a	n/a	n/a	n/a
3974559	RECOG_LURE	n/a	LTP281	ltpFR	17	9	n/a	TORTOISE	1486	0	2	n/a	n/a	n/a	n/a	n/a	n/a
3975612	RECOG_RESP	n/a	LTP281	ltpFR	17	9	n/a	TORTOISE	1486	0	n/a	n/a	n/a	n/a	n/a	n/a	n/a
3976057	RECOG_CONF	n/a	LTP281	ltpFR	17	9	n/a	TORTOISE	1486	n/a	2	n/a	n/a	n/a	n/a	n/a	n/a
3977680	RECOG_TARGET	n/a	LTP281	ltpFR	17	9	0	HERO	706	0	1	1	n/a	n/a	n/a	n/a	n/a
3978312	RECOG_RESP	n/a	LTP281	ltpFR	17	9	0	HERO	706	0	n/a	1	n/a	n/a	n/a	n/a	n/a
3978787	RECOG_CONF	n/a	LTP281	ltpFR	17	9	0	HERO	706	n/a	1	1	n/a	n/a	n/a	n/a	n/a
3980715	RECOG_TARGET	n/a	LTP281	ltpFR	17	9	-1	SCROLL	1257	0	1	-1	n/a	n/a	n/a	n/a	n/a
3981367	RECOG_RESP	n/a	LTP281	ltpFR	17	9	-1	SCROLL	1257	0	n/a	-1	n/a	n/a	n/a	n/a	n/a
3981857	RECOG_CONF	n/a	LTP281	ltpFR	17	9	-1	SCROLL	1257	n/a	1	-1	n/a	n/a	n/a	n/a	n/a
3983509	RECOG_LURE	n/a	LTP281	ltpFR	17	9	n/a	COACH	331	1	1	n/a	n/a	n/a	n/a	n/a	n/a
3984882	RECOG_RESP	n/a	LTP281	ltpFR	17	9	n/a	COACH	331	1	n/a	n/a	n/a	n/a	n/a	n/a	n/a
3985427	RECOG_CONF	n/a	LTP281	ltpFR	17	9	n/a	COACH	331	n/a	1	n/a	n/a	n/a	n/a	n/a	n/a
3987006	RECOG_LURE	n/a	LTP281	ltpFR	17	9	n/a	DOORBELL	487	0	2	n/a	n/a	n/a	n/a	n/a	n/a
3987779	RECOG_RESP	n/a	LTP281	ltpFR	17	9	n/a	DOORBELL	487	0	n/a	n/a	n/a	n/a	n/a	n/a	n/a
3988147	RECOG_CONF	n/a	LTP281	ltpFR	17	9	n/a	DOORBELL	487	n/a	2	n/a	n/a	n/a	n/a	n/a	n/a
3989842	RECOG_TARGET	n/a	LTP281	ltpFR	17	9	1	TEAM	1441	0	1	0	n/a	n/a	n/a	n/a	n/a
3990447	RECOG_RESP	n/a	LTP281	ltpFR	17	9	1	TEAM	1441	0	n/a	0	n/a	n/a	n/a	n/a	n/a
3990847	RECOG_CONF	n/a	LTP281	ltpFR	17	9	1	TEAM	1441	n/a	1	0	n/a	n/a	n/a	n/a	n/a
3992527	RECOG_LURE	n/a	LTP281	ltpFR	17	9	n/a	CLIMBER	323	0	2	n/a	n/a	n/a	n/a	n/a	n/a
3993172	RECOG_RESP	n/a	LTP281	ltpFR	17	9	n/a	CLIMBER	323	0	n/a	n/a	n/a	n/a	n/a	n/a	n/a
3993647	RECOG_CONF	n/a	LTP281	ltpFR	17	9	n/a	CLIMBER	323	n/a	2	n/a	n/a	n/a	n/a	n/a	n/a
3995337	RECOG_LURE	n/a	LTP281	ltpFR	17	9	n/a	OWL	992	0	1	n/a	n/a	n/a	n/a	n/a	n/a
3996067	RECOG_RESP	n/a	LTP281	ltpFR	17	9	n/a	OWL	992	0	n/a	n/a	n/a	n/a	n/a	n/a	n/a
3996517	RECOG_CONF	n/a	LTP281	ltpFR	17	9	n/a	OWL	992	n/a	1	n/a	n/a	n/a	n/a	n/a	n/a
3998031	RECOG_TARGET	n/a	LTP281	ltpFR	17	9	0	TICK	1463	1	4	0	n/a	n/a	n/a	n/a	n/a
3998752	RECOG_RESP	n/a	LTP281	ltpFR	17	9	0	TICK	1463	1	n/a	0	n/a	n/a	n/a	n/a	n/a
3999357	RECOG_CONF	n/a	LTP281	ltpFR	17	9	0	TICK	1463	n/a	4	0	n/a	n/a	n/a	n/a	n/a
4000875	RECOG_LURE	n/a	LTP281	ltpFR	17	9	n/a	PASTA	1021	0	3	n/a	n/a	n/a	n/a	n/a	n/a
4001802	RECOG_RESP	n/a	LTP281	ltpFR	17	9	n/a	PASTA	1021	0	n/a	n/a	n/a	n/a	n/a	n/a	n/a
4002527	RECOG_CONF	n/a	LTP281	ltpFR	17	9	n/a	PASTA	1021	n/a	3	n/a	n/a	n/a	n/a	n/a	n/a
4003986	RECOG_TARGET	n/a	LTP281	ltpFR	17	9	1	ALMOND	18	0	1	0	n/a	n/a	n/a	n/a	n/a
4004737	RECOG_RESP	n/a	LTP281	ltpFR	17	9	1	ALMOND	18	0	n/a	0	n/a	n/a	n/a	n/a	n/a
4005187	RECOG_CONF	n/a	LTP281	ltpFR	17	9	1	ALMOND	18	n/a	1	0	n/a	n/a	n/a	n/a	n/a
4006596	RECOG_LURE	n/a	LTP281	ltpFR	17	9	n/a	BRUISE	180	0	2	n/a	n/a	n/a	n/a	n/a	n/a
4007502	RECOG_RESP	n/a	LTP281	ltpFR	17	9	n/a	BRUISE	180	0	n/a	n/a	n/a	n/a	n/a	n/a	n/a
4007987	RECOG_CONF	n/a	LTP281	ltpFR	17	9	n/a	BRUISE	180	n/a	2	n/a	n/a	n/a	n/a	n/a	n/a
4009390	RECOG_TARGET	n/a	LTP281	ltpFR	17	9	-1	COMMANDER	354	1	5	-1	n/a	n/a	n/a	n/a	n/a
4010087	RECOG_RESP	n/a	LTP281	ltpFR	17	9	-1	COMMANDER	354	1	n/a	-1	n/a	n/a	n/a	n/a	n/a
4010497	RECOG_CONF	n/a	LTP281	ltpFR	17	9	-1	COMMANDER	354	n/a	5	-1	n/a	n/a	n/a	n/a	n/a
4012033	RECOG_LURE	n/a	LTP281	ltpFR	17	9	n/a	CREW	406	1	1	n/a	n/a	n/a	n/a	n/a	n/a
4012722	RECOG_RESP	n/a	LTP281	ltpFR	17	9	n/a	CREW	406	1	n/a	n/a	n/a	n/a	n/a	n/a	n/a
4013237	RECOG_CONF	n/a	LTP281	ltpFR	17	9	n/a	CREW	406	n/a	1	n/a	n/a	n/a	n/a	n/a	n/a
4016349	REC_START	n/a	LTP281	ltpFR	17	10	n/a	n/a	n/a	n/a	n/a	n/a	n/a	n/a	n/a	n/a	n/a
4016400	RECOG_LURE	n/a	LTP281	ltpFR	17	10	n/a	MEDICINE	886	0	2	n/a	n/a	n/a	n/a	n/a	n/a
4017194	RECOG_RESP	n/a	LTP281	ltpFR	17	10	n/a	MEDICINE	886	0	n/a	n/a	n/a	n/a	n/a	n/a	n/a
4017729	RECOG_CONF	n/a	LTP281	ltpFR	17	10	n/a	MEDICINE	886	n/a	2	n/a	n/a	n/a	n/a	n/a	n/a
4019194	RECOG_LURE	n/a	LTP281	ltpFR	17	10	n/a	OZONE	996	0	1	n/a	n/a	n/a	n/a	n/a	n/a
4019759	RECOG_RESP	n/a	LTP281	ltpFR	17	10	n/a	OZONE	996	0	n/a	n/a	n/a	n/a	n/a	n/a	n/a
4020259	RECOG_CONF	n/a	LTP281	ltpFR	17	10	n/a	OZONE	996	n/a	1	n/a	n/a	n/a	n/a	n/a	n/a
4021854	RECOG_LURE	n/a	LTP281	ltpFR	17	10	n/a	STAPLER	1372	0	1	n/a	n/a	n/a	n/a	n/a	n/a
4022469	RECOG_RESP	n/a	LTP281	ltpFR	17	10	n/a	STAPLER	1372	0	n/a	n/a	n/a	n/a	n/a	n/a	n/a
4022979	RECOG_CONF	n/a	LTP281	ltpFR	17	10	n/a	STAPLER	1372	n/a	1	n/a	n/a	n/a	n/a	n/a	n/a
4024497	RECOG_LURE	n/a	LTP281	ltpFR	17	10	n/a	LILY	821	0	3	n/a	n/a	n/a	n/a	n/a	n/a
4025049	RECOG_RESP	n/a	LTP281	ltpFR	17	10	n/a	LILY	821	0	n/a	n/a	n/a	n/a	n/a	n/a	n/a
4025559	RECOG_CONF	n/a	LTP281	ltpFR	17	10	n/a	LILY	821	n/a	3	n/a	n/a	n/a	n/a	n/a	n/a
4027073	RECOG_TARGET	n/a	LTP281	ltpFR	17	10	-1	BASEBALL	93	0	2	-1	n/a	n/a	n/a	n/a	n/a
4027734	RECOG_RESP	n/a	LTP281	ltpFR	17	10	-1	BASEBALL	93	0	n/a	-1	n/a	n/a	n/a	n/a	n/a
4028349	RECOG_CONF	n/a	LTP281	ltpFR	17	10	-1	BASEBALL	93	n/a	2	-1	n/a	n/a	n/a	n/a	n/a
4029884	RECOG_TARGET	n/a	LTP281	ltpFR	17	10	-1	FACE	547	0	1	-1	n/a	n/a	n/a	n/a	n/a
4030309	RECOG_RESP	n/a	LTP281	ltpFR	17	10	-1	FACE	547	0	n/a	-1	n/a	n/a	n/a	n/a	n/a
4030829	RECOG_CONF	n/a	LTP281	ltpFR	17	10	-1	FACE	547	n/a	1	-1	n/a	n/a	n/a	n/a	n/a
4032302	RECOG_LURE	n/a	LTP281	ltpFR	17	10	n/a	TURKEY	1520	1	1	n/a	n/a	n/a	n/a	n/a	n/a
4032729	RECOG_RESP	n/a	LTP281	ltpFR	17	10	n/a	TURKEY	1520	1	n/a	n/a	n/a	n/a	n/a	n/a	n/a
4033209	RECOG_CONF	n/a	LTP281	ltpFR	17	10	n/a	TURKEY	1520	n/a	1	n/a	n/a	n/a	n/a	n/a	n/a
4034853	RECOG_LURE	n/a	LTP281	ltpFR	17	10	n/a	CHAIR	274	0	4	n/a	n/a	n/a	n/a	n/a	n/a
4035519	RECOG_RESP	n/a	LTP281	ltpFR	17	10	n/a	CHAIR	274	0	n/a	n/a	n/a	n/a	n/a	n/a	n/a
4036009	RECOG_CONF	n/a	LTP281	ltpFR	17	10	n/a	CHAIR	274	n/a	4	n/a	n/a	n/a	n/a	n/a	n/a
4037680	RECOG_TARGET	n/a	LTP281	ltpFR	17	10	0	MOUNTAIN	924	0	1	0	n/a	n/a	n/a	n/a	n/a
4038399	RECOG_RESP	n/a	LTP281	ltpFR	17	10	0	MOUNTAIN	924	0	n/a	0	n/a	n/a	n/a	n/a	n/a
4040139	RECOG_CONF	n/a	LTP281	ltpFR	17	10	0	MOUNTAIN	924	n/a	1	0	n/a	n/a	n/a	n/a	n/a
4041972	RECOG_LURE	n/a	LTP281	ltpFR	17	10	n/a	CONVENT	370	0	2	n/a	n/a	n/a	n/a	n/a	n/a
4042974	RECOG_RESP	n/a	LTP281	ltpFR	17	10	n/a	CONVENT	370	0	n/a	n/a	n/a	n/a	n/a	n/a	n/a
4043519	RECOG_CONF	n/a	LTP281	ltpFR	17	10	n/a	CONVENT	370	n/a	2	n/a	n/a	n/a	n/a	n/a	n/a
4045141	RECOG_TARGET	n/a	LTP281	ltpFR	17	10	0	FIST	572	1	1	0	n/a	n/a	n/a	n/a	n/a
4046139	RECOG_RESP	n/a	LTP281	ltpFR	17	10	0	FIST	572	1	n/a	0	n/a	n/a	n/a	n/a	n/a
4046669	RECOG_CONF	n/a	LTP281	ltpFR	17	10	0	FIST	572	n/a	1	0	n/a	n/a	n/a	n/a	n/a
4048136	RECOG_TARGET	n/a	LTP281	ltpFR	17	10	0	YACHT	1629	0	3	0	n/a	n/a	n/a	n/a	n/a
4048789	RECOG_RESP	n/a	LTP281	ltpFR	17	10	0	YACHT	1629	0	n/a	0	n/a	n/a	n/a	n/a	n/a
4049419	RECOG_CONF	n/a	LTP281	ltpFR	17	10	0	YACHT	1629	n/a	3	0	n/a	n/a	n/a	n/a	n/a
4050930	RECOG_TARGET	n/a	LTP281	ltpFR	17	10	1	HAND	683	1	1	0	n/a	n/a	n/a	n/a	n/a
4051674	RECOG_RESP	n/a	LTP281	ltpFR	17	10	1	HAND	683	1	n/a	0	n/a	n/a	n/a	n/a	n/a
4052239	RECOG_CONF	n/a	LTP281	ltpFR	17	10	1	HAND	683	n/a	1	0	n/a	n/a	n/a	n/a	n/a
4053858	RECOG_TARGET	n/a	LTP281	ltpFR	17	10	0	PAVEMENT	1028	1	5	1	n/a	n/a	n/a	n/a	n/a
4054679	RECOG_RESP_VV	n/a	LTP281	ltpFR	17	10	0	PAVEMENT	1028	0	n/a	1	n/a	n/a	n/a	n/a	n/a
4056319	RECOG_RESP_VV	n/a	LTP281	ltpFR	17	10	0	PAVEMENT	1028	n/a	1	1	n/a	n/a	n/a	n/a	n/a
4057104	RECOG_RESP	n/a	LTP281	ltpFR	17	10	0	PAVEMENT	1028	1	n/a	1	n/a	n/a	n/a	n/a	n/a
4057659	RECOG_CONF	n/a	LTP281	ltpFR	17	10	0	PAVEMENT	1028	n/a	5	1	n/a	n/a	n/a	n/a	n/a
4059388	RECOG_LURE	n/a	LTP281	ltpFR	17	10	n/a	ANTLER	29	0	2	n/a	n/a	n/a	n/a	n/a	n/a
4060114	RECOG_RESP	n/a	LTP281	ltpFR	17	10	n/a	ANTLER	29	0	n/a	n/a	n/a	n/a	n/a	n/a	n/a
4060729	RECOG_CONF	n/a	LTP281	ltpFR	17	10	n/a	ANTLER	29	n/a	2	n/a	n/a	n/a	n/a	n/a	n/a
4062382	RECOG_LURE	n/a	LTP281	ltpFR	17	10	n/a	TECHNICIAN	1443	0	1	n/a	n/a	n/a	n/a	n/a	n/a
4063164	RECOG_RESP	n/a	LTP281	ltpFR	17	10	n/a	TECHNICIAN	1443	0	n/a	n/a	n/a	n/a	n/a	n/a	n/a
4063709	RECOG_CONF	n/a	LTP281	ltpFR	17	10	n/a	TECHNICIAN	1443	n/a	1	n/a	n/a	n/a	n/a	n/a	n/a
4065293	RECOG_LURE	n/a	LTP281	ltpFR	17	10	n/a	CHAIN	273	0	3	n/a	n/a	n/a	n/a	n/a	n/a
4066229	RECOG_RESP	n/a	LTP281	ltpFR	17	10	n/a	CHAIN	273	0	n/a	n/a	n/a	n/a	n/a	n/a	n/a
4066799	RECOG_CONF	n/a	LTP281	ltpFR	17	10	n/a	CHAIN	273	n/a	3	n/a	n/a	n/a	n/a	n/a	n/a
4068455	RECOG_TARGET	n/a	LTP281	ltpFR	17	10	1	KIWI	781	1	5	0	n/a	n/a	n/a	n/a	n/a
4069089	RECOG_RESP	n/a	LTP281	ltpFR	17	10	1	KIWI	781	1	n/a	0	n/a	n/a	n/a	n/a	n/a
4069659	RECOG_CONF	n/a	LTP281	ltpFR	17	10	1	KIWI	781	n/a	5	0	n/a	n/a	n/a	n/a	n/a
4071123	RECOG_TARGET	n/a	LTP281	ltpFR	17	10	-1	CAPITAL	238	1	1	-1	n/a	n/a	n/a	n/a	n/a
4071944	RECOG_RESP	n/a	LTP281	ltpFR	17	10	-1	CAPITAL	238	1	n/a	-1	n/a	n/a	n/a	n/a	n/a
4072379	RECOG_CONF	n/a	LTP281	ltpFR	17	10	-1	CAPITAL	238	n/a	1	-1	n/a	n/a	n/a	n/a	n/a
4073993	RECOG_LURE	n/a	LTP281	ltpFR	17	10	n/a	ARTERY	41	1	2	n/a	n/a	n/a	n/a	n/a	n/a
4074744	RECOG_RESP	n/a	LTP281	ltpFR	17	10	n/a	ARTERY	41	1	n/a	n/a	n/a	n/a	n/a	n/a	n/a
4075251	RECOG_CONF	n/a	LTP281	ltpFR	17	10	n/a	ARTERY	41	n/a	2	n/a	n/a	n/a	n/a	n/a	n/a
4078491	REC_START	n/a	LTP281	ltpFR	17	11	n/a	n/a	n/a	n/a	n/a	n/a	n/a	n/a	n/a	n/a	n/a
