mstime	trial_type	stim_file	subject	experiment	session	trial	task	item_name	item_num	recog_conf	resp	color_b	color_g	color_r	case	font
0	SESS_START	n/a	LTP082	ltpFR	5	n/a	n/a	n/a	n/a	4	n/a	n/a	n/a	n/a	n/a	n/a
59736	WORD	wordpools/wasnorm_wordpool.txt	LTP082	ltpFR	5	1	0	LUNCH	849	n/a	1	0	0.5869140625	0.422607421875	upper	../fonts/amplitud.ttf
63686	WORD	wordpools/wasnorm_wordpool.txt	LTP082	ltpFR	5	1	0	SNACK	1331	n/a	0	0	0.5869140625	0.422607421875	upper	../fonts/amplitud.ttf
67735	WORD	wordpools/wasnorm_wordpool.txt	LTP082	ltpFR	5	1	0	KING	777	n/a	1	0	0.5869140625	0.422607421875	upper	../fonts/amplitud.ttf
71834	WORD	wordpools/wasnorm_wordpool.txt	LTP082	ltpFR	5	1	1	ATTORNEY	58	n/a	1	1	0.412841796875	0.57763671875	lower	../fonts/zerothre.ttf
76018	WORD	wordpools/wasnorm_wordpool.txt	LTP082	ltpFR	5	1	1	GRADUATE	653	n/a	1	1	0.412841796875	0.57763671875	lower	../fonts/zerothre.ttf
79968	WORD	wordpools/wasnorm_wordpool.txt	LTP082	ltpFR	5	1	0	TOMATO	1476	n/a	0	0	0.5869140625	0.422607421875	upper	../fonts/amplitud.ttf
83841	WORD	wordpools/wasnorm_wordpool.txt	LTP082	ltpFR	5	1	0	JUDGE	761	n/a	1	0	0.5869140625	0.422607421875	upper	../fonts/amplitud.ttf
87959	WORD	wordpools/wasnorm_wordpool.txt	LTP082	ltpFR	5	1	0	BOOT	150	n/a	1	0	0.5869140625	0.422607421875	upper	../fonts/amplitud.ttf
91833	WORD	wordpools/wasnorm_wordpool.txt	LTP082	ltpFR	5	1	1	CELERY	266	n/a	0	1	0.412841796875	0.57763671875	lower	../fonts/zerothre.ttf
95924	WORD	wordpools/wasnorm_wordpool.txt	LTP082	ltpFR	5	1	1	EGG	518	n/a	0	1	0.412841796875	0.57763671875	lower	../fonts/zerothre.ttf
99975	WORD	wordpools/wasnorm_wordpool.txt	LTP082	ltpFR	5	1	1	KNOT	788	n/a	0	1	0.412841796875	0.57763671875	lower	../fonts/zerothre.ttf
104066	WORD	wordpools/wasnorm_wordpool.txt	LTP082	ltpFR	5	1	1	MUMMY	932	n/a	0	1	0.412841796875	0.57763671875	lower	../fonts/zerothre.ttf
108032	WORD	wordpools/wasnorm_wordpool.txt	LTP082	ltpFR	5	1	1	COMMANDER	354	n/a	1	1	0.412841796875	0.57763671875	lower	../fonts/zerothre.ttf
112007	WORD	wordpools/wasnorm_wordpool.txt	LTP082	ltpFR	5	1	1	SKULL	1320	n/a	0	1	0.412841796875	0.57763671875	lower	../fonts/zerothre.ttf
116107	WORD	wordpools/wasnorm_wordpool.txt	LTP082	ltpFR	5	1	0	PITCHFORK	1078	n/a	1	0	0.5869140625	0.422607421875	upper	../fonts/amplitud.ttf
120223	WORD	wordpools/wasnorm_wordpool.txt	LTP082	ltpFR	5	1	0	FARM	552	n/a	1	0	0.5869140625	0.422607421875	upper	../fonts/amplitud.ttf
125940	REC_START	n/a	LTP082	ltpFR	5	1	n/a	n/a	n/a	n/a	n/a	n/a	n/a	n/a	n/a	n/a
128180	REC_WORD	wordpools/wasnorm_wordpool.txt	LTP082	ltpFR	5	1	0	FARM	552	n/a	1	n/a	n/a	n/a	n/a	n/a
130190	REC_WORD	wordpools/wasnorm_wordpool.txt	LTP082	ltpFR	5	1	0	PITCHFORK	1078	n/a	1	n/a	n/a	n/a	n/a	n/a
133029	REC_WORD	wordpools/wasnorm_wordpool.txt	LTP082	ltpFR	5	1	1	MUMMY	932	n/a	0	n/a	n/a	n/a	n/a	n/a
134944	REC_WORD	wordpools/wasnorm_wordpool.txt	LTP082	ltpFR	5	1	1	SKULL	1320	n/a	0	n/a	n/a	n/a	n/a	n/a
137918	REC_WORD	wordpools/wasnorm_wordpool.txt	LTP082	ltpFR	5	1	1	KNOT	788	n/a	0	n/a	n/a	n/a	n/a	n/a
143071	REC_WORD	wordpools/wasnorm_wordpool.txt	LTP082	ltpFR	5	1	1	CELERY	266	n/a	0	n/a	n/a	n/a	n/a	n/a
145959	REC_WORD	wordpools/wasnorm_wordpool.txt	LTP082	ltpFR	5	1	0	LUNCH	849	n/a	1	n/a	n/a	n/a	n/a	n/a
147695	REC_WORD	wordpools/wasnorm_wordpool.txt	LTP082	ltpFR	5	1	0	SNACK	1331	n/a	0	n/a	n/a	n/a	n/a	n/a
150279	REC_WORD	wordpools/wasnorm_wordpool.txt	LTP082	ltpFR	5	1	1	ATTORNEY	58	n/a	1	n/a	n/a	n/a	n/a	n/a
152425	REC_WORD	wordpools/wasnorm_wordpool.txt	LTP082	ltpFR	5	1	1	GRADUATE	653	n/a	1	n/a	n/a	n/a	n/a	n/a
154460	REC_WORD	wordpools/wasnorm_wordpool.txt	LTP082	ltpFR	5	1	1	COMMANDER	354	n/a	1	n/a	n/a	n/a	n/a	n/a
160342	REC_WORD	wordpools/wasnorm_wordpool.txt	LTP082	ltpFR	5	1	0	JUDGE	761	n/a	1	n/a	n/a	n/a	n/a	n/a
206725	WORD	wordpools/wasnorm_wordpool.txt	LTP082	ltpFR	5	2	1	RUNNER	1218	n/a	1	1	0.412841796875	0.57763671875	lower	../fonts/zerothre.ttf
210583	WORD	wordpools/wasnorm_wordpool.txt	LTP082	ltpFR	5	2	1	STADIUM	1364	n/a	0	1	0.412841796875	0.57763671875	lower	../fonts/zerothre.ttf
214491	WORD	wordpools/wasnorm_wordpool.txt	LTP082	ltpFR	5	2	1	DAISY	435	n/a	1	1	0.412841796875	0.57763671875	lower	../fonts/zerothre.ttf
218574	WORD	wordpools/wasnorm_wordpool.txt	LTP082	ltpFR	5	2	1	MOTH	920	n/a	1	1	0.412841796875	0.57763671875	lower	../fonts/zerothre.ttf
222732	WORD	wordpools/wasnorm_wordpool.txt	LTP082	ltpFR	5	2	0	HAWK	692	n/a	1	0	0.5869140625	0.422607421875	upper	../fonts/amplitud.ttf
226765	WORD	wordpools/wasnorm_wordpool.txt	LTP082	ltpFR	5	2	0	WINDSHIELD	1612	n/a	1	0	0.5869140625	0.422607421875	upper	../fonts/amplitud.ttf
230748	WORD	wordpools/wasnorm_wordpool.txt	LTP082	ltpFR	5	2	1	RACCOON	1153	n/a	1	1	0.412841796875	0.57763671875	lower	../fonts/zerothre.ttf
234956	WORD	wordpools/wasnorm_wordpool.txt	LTP082	ltpFR	5	2	1	MAILMAN	858	n/a	1	1	0.412841796875	0.57763671875	lower	../fonts/zerothre.ttf
239064	WORD	wordpools/wasnorm_wordpool.txt	LTP082	ltpFR	5	2	1	MESSAGE	888	n/a	0	1	0.412841796875	0.57763671875	lower	../fonts/zerothre.ttf
243081	WORD	wordpools/wasnorm_wordpool.txt	LTP082	ltpFR	5	2	1	CROCODILE	411	n/a	1	1	0.412841796875	0.57763671875	lower	../fonts/zerothre.ttf
247197	WORD	wordpools/wasnorm_wordpool.txt	LTP082	ltpFR	5	2	0	LILY	821	n/a	0	0	0.5869140625	0.422607421875	upper	../fonts/amplitud.ttf
251038	WORD	wordpools/wasnorm_wordpool.txt	LTP082	ltpFR	5	2	0	FIELD	562	n/a	1	0	0.5869140625	0.422607421875	upper	../fonts/amplitud.ttf
255155	WORD	wordpools/wasnorm_wordpool.txt	LTP082	ltpFR	5	2	0	CEILING	265	n/a	1	0	0.5869140625	0.422607421875	upper	../fonts/amplitud.ttf
259013	WORD	wordpools/wasnorm_wordpool.txt	LTP082	ltpFR	5	2	0	PARTNER	1017	n/a	1	0	0.5869140625	0.422607421875	upper	../fonts/amplitud.ttf
262911	WORD	wordpools/wasnorm_wordpool.txt	LTP082	ltpFR	5	2	0	PAW	1029	n/a	0	0	0.5869140625	0.422607421875	upper	../fonts/amplitud.ttf
267079	WORD	wordpools/wasnorm_wordpool.txt	LTP082	ltpFR	5	2	0	VET	1560	n/a	1	0	0.5869140625	0.422607421875	upper	../fonts/amplitud.ttf
272895	REC_START	n/a	LTP082	ltpFR	5	2	n/a	n/a	n/a	n/a	n/a	n/a	n/a	n/a	n/a	n/a
274541	REC_WORD	wordpools/wasnorm_wordpool.txt	LTP082	ltpFR	5	2	0	PAW	1029	n/a	0	n/a	n/a	n/a	n/a	n/a
276242	REC_WORD	wordpools/wasnorm_wordpool.txt	LTP082	ltpFR	5	2	0	VET	1560	n/a	1	n/a	n/a	n/a	n/a	n/a
278766	REC_WORD	wordpools/wasnorm_wordpool.txt	LTP082	ltpFR	5	2	0	LILY	821	n/a	0	n/a	n/a	n/a	n/a	n/a
283665	REC_WORD	wordpools/wasnorm_wordpool.txt	LTP082	ltpFR	5	2	1	DAISY	435	n/a	1	n/a	n/a	n/a	n/a	n/a
285506	REC_WORD	wordpools/wasnorm_wordpool.txt	LTP082	ltpFR	5	2	1	MOTH	920	n/a	1	n/a	n/a	n/a	n/a	n/a
287691	REC_WORD	wordpools/wasnorm_wordpool.txt	LTP082	ltpFR	5	2	1	CROCODILE	411	n/a	1	n/a	n/a	n/a	n/a	n/a
290001	REC_WORD	wordpools/wasnorm_wordpool.txt	LTP082	ltpFR	5	2	1	RACCOON	1153	n/a	1	n/a	n/a	n/a	n/a	n/a
293204	REC_WORD	wordpools/wasnorm_wordpool.txt	LTP082	ltpFR	5	2	1	RUNNER	1218	n/a	1	n/a	n/a	n/a	n/a	n/a
295408	REC_WORD	wordpools/wasnorm_wordpool.txt	LTP082	ltpFR	5	2	1	STADIUM	1364	n/a	0	n/a	n/a	n/a	n/a	n/a
295628	REC_WORD	wordpools/wasnorm_wordpool.txt	LTP082	ltpFR	5	2	n/a	[???]	-1	n/a	n/a	n/a	n/a	n/a	n/a	n/a
310165	REC_WORD	wordpools/wasnorm_wordpool.txt	LTP082	ltpFR	5	2	0	VET	1560	n/a	1	n/a	n/a	n/a	n/a	n/a
318696	REC_WORD	wordpools/wasnorm_wordpool.txt	LTP082	ltpFR	5	2	0	PARTNER	1017	n/a	1	n/a	n/a	n/a	n/a	n/a
334330	REC_WORD	wordpools/wasnorm_wordpool.txt	LTP082	ltpFR	5	2	0	HAWK	692	n/a	1	n/a	n/a	n/a	n/a	n/a
352239	WORD	wordpools/wasnorm_wordpool.txt	LTP082	ltpFR	5	3	-1	SOFA	1342	n/a	-1	1	1.0	1.0	upper	../fonts/Verdana.ttf
356231	WORD	wordpools/wasnorm_wordpool.txt	LTP082	ltpFR	5	3	-1	MINK	897	n/a	-1	1	1.0	1.0	upper	../fonts/Verdana.ttf
360139	WORD	wordpools/wasnorm_wordpool.txt	LTP082	ltpFR	5	3	-1	TOOL	1480	n/a	-1	1	1.0	1.0	upper	../fonts/Verdana.ttf
363963	WORD	wordpools/wasnorm_wordpool.txt	LTP082	ltpFR	5	3	-1	BISON	131	n/a	-1	1	1.0	1.0	upper	../fonts/Verdana.ttf
368005	WORD	wordpools/wasnorm_wordpool.txt	LTP082	ltpFR	5	3	-1	RIB	1188	n/a	-1	1	1.0	1.0	upper	../fonts/Verdana.ttf
371946	WORD	wordpools/wasnorm_wordpool.txt	LTP082	ltpFR	5	3	-1	LOFT	840	n/a	-1	1	1.0	1.0	upper	../fonts/Verdana.ttf
375979	WORD	wordpools/wasnorm_wordpool.txt	LTP082	ltpFR	5	3	-1	SHOULDER	1294	n/a	-1	1	1.0	1.0	upper	../fonts/Verdana.ttf
380012	WORD	wordpools/wasnorm_wordpool.txt	LTP082	ltpFR	5	3	-1	VETERAN	1561	n/a	-1	1	1.0	1.0	upper	../fonts/Verdana.ttf
384012	WORD	wordpools/wasnorm_wordpool.txt	LTP082	ltpFR	5	3	-1	DIME	466	n/a	-1	1	1.0	1.0	upper	../fonts/Verdana.ttf
387861	WORD	wordpools/wasnorm_wordpool.txt	LTP082	ltpFR	5	3	-1	WALLET	1583	n/a	-1	1	1.0	1.0	upper	../fonts/Verdana.ttf
391869	WORD	wordpools/wasnorm_wordpool.txt	LTP082	ltpFR	5	3	-1	THIGH	1457	n/a	-1	1	1.0	1.0	upper	../fonts/Verdana.ttf
395927	WORD	wordpools/wasnorm_wordpool.txt	LTP082	ltpFR	5	3	-1	DOOR	486	n/a	-1	1	1.0	1.0	upper	../fonts/Verdana.ttf
399952	WORD	wordpools/wasnorm_wordpool.txt	LTP082	ltpFR	5	3	-1	CABINET	212	n/a	-1	1	1.0	1.0	upper	../fonts/Verdana.ttf
404052	WORD	wordpools/wasnorm_wordpool.txt	LTP082	ltpFR	5	3	-1	VEGETABLE	1552	n/a	-1	1	1.0	1.0	upper	../fonts/Verdana.ttf
408185	WORD	wordpools/wasnorm_wordpool.txt	LTP082	ltpFR	5	3	-1	HARE	688	n/a	-1	1	1.0	1.0	upper	../fonts/Verdana.ttf
412360	WORD	wordpools/wasnorm_wordpool.txt	LTP082	ltpFR	5	3	-1	RICE	1190	n/a	-1	1	1.0	1.0	upper	../fonts/Verdana.ttf
418285	REC_START	n/a	LTP082	ltpFR	5	3	n/a	n/a	n/a	n/a	n/a	n/a	n/a	n/a	n/a	n/a
420435	REC_WORD	wordpools/wasnorm_wordpool.txt	LTP082	ltpFR	5	3	-1	RICE	1190	n/a	-1	n/a	n/a	n/a	n/a	n/a
422510	REC_WORD	wordpools/wasnorm_wordpool.txt	LTP082	ltpFR	5	3	-1	VEGETABLE	1552	n/a	-1	n/a	n/a	n/a	n/a	n/a
424965	REC_WORD	wordpools/wasnorm_wordpool.txt	LTP082	ltpFR	5	3	-1	HARE	688	n/a	-1	n/a	n/a	n/a	n/a	n/a
428851	REC_WORD	wordpools/wasnorm_wordpool.txt	LTP082	ltpFR	5	3	-1	DIME	466	n/a	-1	n/a	n/a	n/a	n/a	n/a
431365	REC_WORD	wordpools/wasnorm_wordpool.txt	LTP082	ltpFR	5	3	-1	WALLET	1583	n/a	-1	n/a	n/a	n/a	n/a	n/a
433530	REC_WORD	wordpools/wasnorm_wordpool.txt	LTP082	ltpFR	5	3	-1	SOFA	1342	n/a	-1	n/a	n/a	n/a	n/a	n/a
435840	REC_WORD	wordpools/wasnorm_wordpool.txt	LTP082	ltpFR	5	3	-1	MINK	897	n/a	-1	n/a	n/a	n/a	n/a	n/a
438334	REC_WORD	wordpools/wasnorm_wordpool.txt	LTP082	ltpFR	5	3	-1	BISON	131	n/a	-1	n/a	n/a	n/a	n/a	n/a
447089	REC_WORD	wordpools/wasnorm_wordpool.txt	LTP082	ltpFR	5	3	-1	THIGH	1457	n/a	-1	n/a	n/a	n/a	n/a	n/a
450686	REC_WORD	wordpools/wasnorm_wordpool.txt	LTP082	ltpFR	5	3	-1	SHOULDER	1294	n/a	-1	n/a	n/a	n/a	n/a	n/a
454777	REC_WORD	wordpools/wasnorm_wordpool.txt	LTP082	ltpFR	5	3	-1	RIB	1188	n/a	-1	n/a	n/a	n/a	n/a	n/a
464849	REC_WORD	wordpools/wasnorm_wordpool.txt	LTP082	ltpFR	5	3	-1	DOOR	486	n/a	-1	n/a	n/a	n/a	n/a	n/a
469518	REC_WORD	wordpools/wasnorm_wordpool.txt	LTP082	ltpFR	5	3	-1	CABINET	212	n/a	-1	n/a	n/a	n/a	n/a	n/a
501852	WORD	wordpools/wasnorm_wordpool.txt	LTP082	ltpFR	5	4	0	WALNUT	1584	n/a	0	0	0.5869140625	0.422607421875	upper	../fonts/amplitud.ttf
505827	WORD	wordpools/wasnorm_wordpool.txt	LTP082	ltpFR	5	4	0	TREE	1502	n/a	1	0	0.5869140625	0.422607421875	upper	../fonts/amplitud.ttf
509777	WORD	wordpools/wasnorm_wordpool.txt	LTP082	ltpFR	5	4	0	COFFIN	342	n/a	1	0	0.5869140625	0.422607421875	upper	../fonts/amplitud.ttf
513635	WORD	wordpools/wasnorm_wordpool.txt	LTP082	ltpFR	5	4	0	NOOSE	956	n/a	0	0	0.5869140625	0.422607421875	upper	../fonts/amplitud.ttf
517594	WORD	wordpools/wasnorm_wordpool.txt	LTP082	ltpFR	5	4	0	CAPITAL	238	n/a	1	0	0.5869140625	0.422607421875	upper	../fonts/amplitud.ttf
521510	WORD	wordpools/wasnorm_wordpool.txt	LTP082	ltpFR	5	4	0	APE	31	n/a	1	0	0.5869140625	0.422607421875	upper	../fonts/amplitud.ttf
525551	WORD	wordpools/wasnorm_wordpool.txt	LTP082	ltpFR	5	4	0	DISHWASHER	475	n/a	1	0	0.5869140625	0.422607421875	upper	../fonts/amplitud.ttf
529526	WORD	wordpools/wasnorm_wordpool.txt	LTP082	ltpFR	5	4	0	PENNY	1045	n/a	0	0	0.5869140625	0.422607421875	upper	../fonts/amplitud.ttf
533442	WORD	wordpools/wasnorm_wordpool.txt	LTP082	ltpFR	5	4	0	TACK	1428	n/a	0	0	0.5869140625	0.422607421875	upper	../fonts/amplitud.ttf
537359	WORD	wordpools/wasnorm_wordpool.txt	LTP082	ltpFR	5	4	0	JURY	766	n/a	1	0	0.5869140625	0.422607421875	upper	../fonts/amplitud.ttf
541358	WORD	wordpools/wasnorm_wordpool.txt	LTP082	ltpFR	5	4	0	TIDE	1465	n/a	n/a	0	0.5869140625	0.422607421875	upper	../fonts/amplitud.ttf
544383	SLOW_MSG	n/a	LTP082	ltpFR	5	4	n/a	n/a	n/a	n/a	n/a	n/a	n/a	n/a	n/a	n/a
546983	WORD	wordpools/wasnorm_wordpool.txt	LTP082	ltpFR	5	4	0	NICKEL	950	n/a	0	0	0.5869140625	0.422607421875	upper	../fonts/amplitud.ttf
550898	WORD	wordpools/wasnorm_wordpool.txt	LTP082	ltpFR	5	4	0	THIMBLE	1458	n/a	0	0	0.5869140625	0.422607421875	upper	../fonts/amplitud.ttf
554991	WORD	wordpools/wasnorm_wordpool.txt	LTP082	ltpFR	5	4	0	LEOPARD	812	n/a	1	0	0.5869140625	0.422607421875	upper	../fonts/amplitud.ttf
559149	WORD	wordpools/wasnorm_wordpool.txt	LTP082	ltpFR	5	4	0	VIDEO	1564	n/a	0	0	0.5869140625	0.422607421875	upper	../fonts/amplitud.ttf
563074	WORD	wordpools/wasnorm_wordpool.txt	LTP082	ltpFR	5	4	0	CRITIC	410	n/a	1	0	0.5869140625	0.422607421875	upper	../fonts/amplitud.ttf
569099	REC_START	n/a	LTP082	ltpFR	5	4	n/a	n/a	n/a	n/a	n/a	n/a	n/a	n/a	n/a	n/a
571289	REC_WORD	wordpools/wasnorm_wordpool.txt	LTP082	ltpFR	5	4	0	CRITIC	410	n/a	1	n/a	n/a	n/a	n/a	n/a
574197	REC_WORD	wordpools/wasnorm_wordpool.txt	LTP082	ltpFR	5	4	0	LEOPARD	812	n/a	1	n/a	n/a	n/a	n/a	n/a
577066	REC_WORD	wordpools/wasnorm_wordpool.txt	LTP082	ltpFR	5	4	0	APE	31	n/a	1	n/a	n/a	n/a	n/a	n/a
579939	REC_WORD	wordpools/wasnorm_wordpool.txt	LTP082	ltpFR	5	4	0	NICKEL	950	n/a	0	n/a	n/a	n/a	n/a	n/a
582708	REC_WORD	wordpools/wasnorm_wordpool.txt	LTP082	ltpFR	5	4	0	PENNY	1045	n/a	0	n/a	n/a	n/a	n/a	n/a
585222	REC_WORD	wordpools/wasnorm_wordpool.txt	LTP082	ltpFR	5	4	0	TACK	1428	n/a	0	n/a	n/a	n/a	n/a	n/a
587477	REC_WORD	wordpools/wasnorm_wordpool.txt	LTP082	ltpFR	5	4	0	THIMBLE	1458	n/a	0	n/a	n/a	n/a	n/a	n/a
590540	REC_WORD	wordpools/wasnorm_wordpool.txt	LTP082	ltpFR	5	4	0	VIDEO	1564	n/a	0	n/a	n/a	n/a	n/a	n/a
601959	REC_WORD	wordpools/wasnorm_wordpool.txt	LTP082	ltpFR	5	4	0	CAPITAL	238	n/a	1	n/a	n/a	n/a	n/a	n/a
604623	REC_WORD	wordpools/wasnorm_wordpool.txt	LTP082	ltpFR	5	4	0	JURY	766	n/a	1	n/a	n/a	n/a	n/a	n/a
650750	WORD	wordpools/wasnorm_wordpool.txt	LTP082	ltpFR	5	5	0	SCROLL	1257	n/a	0	0	0.5869140625	0.422607421875	upper	../fonts/amplitud.ttf
654617	WORD	wordpools/wasnorm_wordpool.txt	LTP082	ltpFR	5	5	0	AIRPLANE	12	n/a	1	0	0.5869140625	0.422607421875	upper	../fonts/amplitud.ttf
658700	WORD	wordpools/wasnorm_wordpool.txt	LTP082	ltpFR	5	5	0	ANCESTOR	20	n/a	1	0	0.5869140625	0.422607421875	upper	../fonts/amplitud.ttf
662857	WORD	wordpools/wasnorm_wordpool.txt	LTP082	ltpFR	5	5	1	PERSONNEL	1053	n/a	1	1	0.412841796875	0.57763671875	lower	../fonts/zerothre.ttf
666865	WORD	wordpools/wasnorm_wordpool.txt	LTP082	ltpFR	5	5	1	SOFTBALL	1343	n/a	0	1	0.412841796875	0.57763671875	lower	../fonts/zerothre.ttf
670823	WORD	wordpools/wasnorm_wordpool.txt	LTP082	ltpFR	5	5	0	BUCKET	184	n/a	n/a	0	0.5869140625	0.422607421875	upper	../fonts/amplitud.ttf
673848	SLOW_MSG	n/a	LTP082	ltpFR	5	5	n/a	n/a	n/a	n/a	n/a	n/a	n/a	n/a	n/a	n/a
676448	WORD	wordpools/wasnorm_wordpool.txt	LTP082	ltpFR	5	5	0	JUG	762	n/a	1	0	0.5869140625	0.422607421875	upper	../fonts/amplitud.ttf
680265	WORD	wordpools/wasnorm_wordpool.txt	LTP082	ltpFR	5	5	1	MOWER	928	n/a	0	1	0.412841796875	0.57763671875	lower	../fonts/zerothre.ttf
684198	WORD	wordpools/wasnorm_wordpool.txt	LTP082	ltpFR	5	5	1	NIECE	952	n/a	1	1	0.412841796875	0.57763671875	lower	../fonts/zerothre.ttf
688306	WORD	wordpools/wasnorm_wordpool.txt	LTP082	ltpFR	5	5	1	SADDLE	1221	n/a	0	1	0.412841796875	0.57763671875	lower	../fonts/zerothre.ttf
692181	WORD	wordpools/wasnorm_wordpool.txt	LTP082	ltpFR	5	5	1	ANIMAL	23	n/a	1	1	0.412841796875	0.57763671875	lower	../fonts/zerothre.ttf
696189	WORD	wordpools/wasnorm_wordpool.txt	LTP082	ltpFR	5	5	1	GANGSTER	620	n/a	1	1	0.412841796875	0.57763671875	lower	../fonts/zerothre.ttf
700197	WORD	wordpools/wasnorm_wordpool.txt	LTP082	ltpFR	5	5	1	PAD	998	n/a	0	1	0.412841796875	0.57763671875	lower	../fonts/zerothre.ttf
704155	WORD	wordpools/wasnorm_wordpool.txt	LTP082	ltpFR	5	5	0	BROTHER	179	n/a	1	0	0.5869140625	0.422607421875	upper	../fonts/amplitud.ttf
708146	WORD	wordpools/wasnorm_wordpool.txt	LTP082	ltpFR	5	5	0	STEM	1376	n/a	0	0	0.5869140625	0.422607421875	upper	../fonts/amplitud.ttf
712021	WORD	wordpools/wasnorm_wordpool.txt	LTP082	ltpFR	5	5	0	MEADOW	881	n/a	1	0	0.5869140625	0.422607421875	upper	../fonts/amplitud.ttf
717771	REC_START	n/a	LTP082	ltpFR	5	5	n/a	n/a	n/a	n/a	n/a	n/a	n/a	n/a	n/a	n/a
719691	REC_WORD	wordpools/wasnorm_wordpool.txt	LTP082	ltpFR	5	5	0	MEADOW	881	n/a	1	n/a	n/a	n/a	n/a	n/a
722519	REC_WORD	wordpools/wasnorm_wordpool.txt	LTP082	ltpFR	5	5	0	STEM	1376	n/a	0	n/a	n/a	n/a	n/a	n/a
725109	REC_WORD	wordpools/wasnorm_wordpool.txt	LTP082	ltpFR	5	5	0	BROTHER	179	n/a	1	n/a	n/a	n/a	n/a	n/a
727798	REC_WORD	wordpools/wasnorm_wordpool.txt	LTP082	ltpFR	5	5	0	JUG	762	n/a	1	n/a	n/a	n/a	n/a	n/a
731574	REC_WORD	wordpools/wasnorm_wordpool.txt	LTP082	ltpFR	5	5	0	AIRPLANE	12	n/a	1	n/a	n/a	n/a	n/a	n/a
734632	REC_WORD	wordpools/wasnorm_wordpool.txt	LTP082	ltpFR	5	5	0	ANCESTOR	20	n/a	1	n/a	n/a	n/a	n/a	n/a
740938	REC_WORD	wordpools/wasnorm_wordpool.txt	LTP082	ltpFR	5	5	1	ANIMAL	23	n/a	1	n/a	n/a	n/a	n/a	n/a
743318	REC_WORD	wordpools/wasnorm_wordpool.txt	LTP082	ltpFR	5	5	1	SADDLE	1221	n/a	0	n/a	n/a	n/a	n/a	n/a
746715	REC_WORD	wordpools/wasnorm_wordpool.txt	LTP082	ltpFR	5	5	1	SOFTBALL	1343	n/a	0	n/a	n/a	n/a	n/a	n/a
751115	REC_WORD	wordpools/wasnorm_wordpool.txt	LTP082	ltpFR	5	5	1	PERSONNEL	1053	n/a	1	n/a	n/a	n/a	n/a	n/a
800239	WORD	wordpools/wasnorm_wordpool.txt	LTP082	ltpFR	5	6	1	PORPOISE	1109	n/a	1	1	0.412841796875	0.57763671875	lower	../fonts/zerothre.ttf
804139	WORD	wordpools/wasnorm_wordpool.txt	LTP082	ltpFR	5	6	1	TWEEZERS	1526	n/a	0	1	0.412841796875	0.57763671875	lower	../fonts/zerothre.ttf
808055	WORD	wordpools/wasnorm_wordpool.txt	LTP082	ltpFR	5	6	1	NIGHTGOWN	953	n/a	0	1	0.412841796875	0.57763671875	lower	../fonts/zerothre.ttf
812072	WORD	wordpools/wasnorm_wordpool.txt	LTP082	ltpFR	5	6	1	SCARF	1246	n/a	0	1	0.412841796875	0.57763671875	lower	../fonts/zerothre.ttf
816038	WORD	wordpools/wasnorm_wordpool.txt	LTP082	ltpFR	5	6	1	CAPTIVE	240	n/a	1	1	0.412841796875	0.57763671875	lower	../fonts/zerothre.ttf
820088	WORD	wordpools/wasnorm_wordpool.txt	LTP082	ltpFR	5	6	0	WAGON	1578	n/a	1	0	0.5869140625	0.422607421875	upper	../fonts/amplitud.ttf
824062	WORD	wordpools/wasnorm_wordpool.txt	LTP082	ltpFR	5	6	0	WICK	1607	n/a	0	0	0.5869140625	0.422607421875	upper	../fonts/amplitud.ttf
828062	WORD	wordpools/wasnorm_wordpool.txt	LTP082	ltpFR	5	6	0	BENCH	121	n/a	1	0	0.5869140625	0.422607421875	upper	../fonts/amplitud.ttf
832178	WORD	wordpools/wasnorm_wordpool.txt	LTP082	ltpFR	5	6	0	WOLF	1619	n/a	1	0	0.5869140625	0.422607421875	upper	../fonts/amplitud.ttf
836370	WORD	wordpools/wasnorm_wordpool.txt	LTP082	ltpFR	5	6	1	HOSTAGE	722	n/a	1	1	0.412841796875	0.57763671875	lower	../fonts/zerothre.ttf
840219	WORD	wordpools/wasnorm_wordpool.txt	LTP082	ltpFR	5	6	1	SKIRT	1319	n/a	0	1	0.412841796875	0.57763671875	lower	../fonts/zerothre.ttf
844086	WORD	wordpools/wasnorm_wordpool.txt	LTP082	ltpFR	5	6	1	DENIM	446	n/a	0	1	0.412841796875	0.57763671875	lower	../fonts/zerothre.ttf
848135	WORD	wordpools/wasnorm_wordpool.txt	LTP082	ltpFR	5	6	0	PLAID	1080	n/a	0	0	0.5869140625	0.422607421875	upper	../fonts/amplitud.ttf
852210	WORD	wordpools/wasnorm_wordpool.txt	LTP082	ltpFR	5	6	0	SUIT	1402	n/a	1	0	0.5869140625	0.422607421875	upper	../fonts/amplitud.ttf
856143	WORD	wordpools/wasnorm_wordpool.txt	LTP082	ltpFR	5	6	0	WALRUS	1585	n/a	1	0	0.5869140625	0.422607421875	upper	../fonts/amplitud.ttf
860285	WORD	wordpools/wasnorm_wordpool.txt	LTP082	ltpFR	5	6	0	OTTER	986	n/a	1	0	0.5869140625	0.422607421875	upper	../fonts/amplitud.ttf
866168	REC_START	n/a	LTP082	ltpFR	5	6	n/a	n/a	n/a	n/a	n/a	n/a	n/a	n/a	n/a	n/a
868113	REC_WORD	wordpools/wasnorm_wordpool.txt	LTP082	ltpFR	5	6	0	OTTER	986	n/a	1	n/a	n/a	n/a	n/a	n/a
870787	REC_WORD	wordpools/wasnorm_wordpool.txt	LTP082	ltpFR	5	6	0	WALRUS	1585	n/a	1	n/a	n/a	n/a	n/a	n/a
874833	REC_WORD	wordpools/wasnorm_wordpool.txt	LTP082	ltpFR	5	6	1	PORPOISE	1109	n/a	1	n/a	n/a	n/a	n/a	n/a
877103	REC_WORD	wordpools/wasnorm_wordpool.txt	LTP082	ltpFR	5	6	0	WAGON	1578	n/a	1	n/a	n/a	n/a	n/a	n/a
879073	REC_WORD	wordpools/wasnorm_wordpool.txt	LTP082	ltpFR	5	6	0	WICK	1607	n/a	0	n/a	n/a	n/a	n/a	n/a
882870	REC_WORD	wordpools/wasnorm_wordpool.txt	LTP082	ltpFR	5	6	1	TWEEZERS	1526	n/a	0	n/a	n/a	n/a	n/a	n/a
886382	REC_WORD	wordpools/wasnorm_wordpool.txt	LTP082	ltpFR	5	6	0	PLAID	1080	n/a	0	n/a	n/a	n/a	n/a	n/a
888956	REC_WORD	wordpools/wasnorm_wordpool.txt	LTP082	ltpFR	5	6	0	SUIT	1402	n/a	1	n/a	n/a	n/a	n/a	n/a
909000	REC_WORD	wordpools/wasnorm_wordpool.txt	LTP082	ltpFR	5	6	1	HOSTAGE	722	n/a	1	n/a	n/a	n/a	n/a	n/a
913490	REC_WORD	wordpools/wasnorm_wordpool.txt	LTP082	ltpFR	5	6	1	CAPTIVE	240	n/a	1	n/a	n/a	n/a	n/a	n/a
946595	WORD	wordpools/wasnorm_wordpool.txt	LTP082	ltpFR	5	7	1	KNEE	784	n/a	1	1	0.412841796875	0.57763671875	lower	../fonts/zerothre.ttf
950603	WORD	wordpools/wasnorm_wordpool.txt	LTP082	ltpFR	5	7	1	LIMB	822	n/a	1	1	0.412841796875	0.57763671875	lower	../fonts/zerothre.ttf
954794	WORD	wordpools/wasnorm_wordpool.txt	LTP082	ltpFR	5	7	1	SWORD	1423	n/a	0	1	0.412841796875	0.57763671875	lower	../fonts/zerothre.ttf
958702	WORD	wordpools/wasnorm_wordpool.txt	LTP082	ltpFR	5	7	1	MALL	860	n/a	0	1	0.412841796875	0.57763671875	lower	../fonts/zerothre.ttf
962727	WORD	wordpools/wasnorm_wordpool.txt	LTP082	ltpFR	5	7	1	SWIMMER	1420	n/a	1	1	0.412841796875	0.57763671875	lower	../fonts/zerothre.ttf
966660	WORD	wordpools/wasnorm_wordpool.txt	LTP082	ltpFR	5	7	1	CONTAINER	366	n/a	0	1	0.412841796875	0.57763671875	lower	../fonts/zerothre.ttf
970485	WORD	wordpools/wasnorm_wordpool.txt	LTP082	ltpFR	5	7	1	PHYSICIAN	1056	n/a	1	1	0.412841796875	0.57763671875	lower	../fonts/zerothre.ttf
974484	WORD	wordpools/wasnorm_wordpool.txt	LTP082	ltpFR	5	7	1	COLOGNE	347	n/a	0	1	0.412841796875	0.57763671875	lower	../fonts/zerothre.ttf
978309	WORD	wordpools/wasnorm_wordpool.txt	LTP082	ltpFR	5	7	1	FLESH	579	n/a	1	1	0.412841796875	0.57763671875	lower	../fonts/zerothre.ttf
982376	WORD	wordpools/wasnorm_wordpool.txt	LTP082	ltpFR	5	7	1	GENERAL	630	n/a	1	1	0.412841796875	0.57763671875	lower	../fonts/zerothre.ttf
986500	WORD	wordpools/wasnorm_wordpool.txt	LTP082	ltpFR	5	7	1	NOTEBOOK	959	n/a	0	1	0.412841796875	0.57763671875	lower	../fonts/zerothre.ttf
990467	WORD	wordpools/wasnorm_wordpool.txt	LTP082	ltpFR	5	7	1	NAPKIN	937	n/a	0	1	0.412841796875	0.57763671875	lower	../fonts/zerothre.ttf
994450	WORD	wordpools/wasnorm_wordpool.txt	LTP082	ltpFR	5	7	1	SURGEON	1413	n/a	1	1	0.412841796875	0.57763671875	lower	../fonts/zerothre.ttf
998299	WORD	wordpools/wasnorm_wordpool.txt	LTP082	ltpFR	5	7	1	LIVER	833	n/a	1	1	0.412841796875	0.57763671875	lower	../fonts/zerothre.ttf
1002366	WORD	wordpools/wasnorm_wordpool.txt	LTP082	ltpFR	5	7	1	DEODORANT	448	n/a	0	1	0.412841796875	0.57763671875	lower	../fonts/zerothre.ttf
1006415	WORD	wordpools/wasnorm_wordpool.txt	LTP082	ltpFR	5	7	1	PUZZLE	1146	n/a	0	1	0.412841796875	0.57763671875	lower	../fonts/zerothre.ttf
1012107	REC_START	n/a	LTP082	ltpFR	5	7	n/a	n/a	n/a	n/a	n/a	n/a	n/a	n/a	n/a	n/a
1014247	REC_WORD	wordpools/wasnorm_wordpool.txt	LTP082	ltpFR	5	7	1	DEODORANT	448	n/a	0	n/a	n/a	n/a	n/a	n/a
1016402	REC_WORD	wordpools/wasnorm_wordpool.txt	LTP082	ltpFR	5	7	1	PUZZLE	1146	n/a	0	n/a	n/a	n/a	n/a	n/a
1018567	REC_WORD	wordpools/wasnorm_wordpool.txt	LTP082	ltpFR	5	7	1	MALL	860	n/a	0	n/a	n/a	n/a	n/a	n/a
1023102	REC_WORD	wordpools/wasnorm_wordpool.txt	LTP082	ltpFR	5	7	1	NOTEBOOK	959	n/a	0	n/a	n/a	n/a	n/a	n/a
1025087	REC_WORD	wordpools/wasnorm_wordpool.txt	LTP082	ltpFR	5	7	1	GENERAL	630	n/a	1	n/a	n/a	n/a	n/a	n/a
1026873	REC_WORD	wordpools/wasnorm_wordpool.txt	LTP082	ltpFR	5	7	1	SURGEON	1413	n/a	1	n/a	n/a	n/a	n/a	n/a
1028804	REC_WORD	wordpools/wasnorm_wordpool.txt	LTP082	ltpFR	5	7	1	PHYSICIAN	1056	n/a	1	n/a	n/a	n/a	n/a	n/a
1030894	REC_WORD	wordpools/wasnorm_wordpool.txt	LTP082	ltpFR	5	7	1	LIVER	833	n/a	1	n/a	n/a	n/a	n/a	n/a
1032456	REC_WORD	wordpools/wasnorm_wordpool.txt	LTP082	ltpFR	5	7	1	KNEE	784	n/a	1	n/a	n/a	n/a	n/a	n/a
1034117	REC_WORD	wordpools/wasnorm_wordpool.txt	LTP082	ltpFR	5	7	1	LIMB	822	n/a	1	n/a	n/a	n/a	n/a	n/a
1035633	REC_WORD	wordpools/wasnorm_wordpool.txt	LTP082	ltpFR	5	7	1	FLESH	579	n/a	1	n/a	n/a	n/a	n/a	n/a
1050569	REC_WORD	wordpools/wasnorm_wordpool.txt	LTP082	ltpFR	5	7	1	NAPKIN	937	n/a	0	n/a	n/a	n/a	n/a	n/a
1094916	WORD	wordpools/wasnorm_wordpool.txt	LTP082	ltpFR	5	8	-1	SCOUT	1252	n/a	-1	1	1.0	1.0	upper	../fonts/Verdana.ttf
1098792	WORD	wordpools/wasnorm_wordpool.txt	LTP082	ltpFR	5	8	-1	WHISTLE	1606	n/a	-1	1	1.0	1.0	upper	../fonts/Verdana.ttf
1102708	WORD	wordpools/wasnorm_wordpool.txt	LTP082	ltpFR	5	8	-1	CLAY	320	n/a	-1	1	1.0	1.0	upper	../fonts/Verdana.ttf
1106766	WORD	wordpools/wasnorm_wordpool.txt	LTP082	ltpFR	5	8	-1	CIRCUS	311	n/a	-1	1	1.0	1.0	upper	../fonts/Verdana.ttf
1110758	WORD	wordpools/wasnorm_wordpool.txt	LTP082	ltpFR	5	8	-1	TORCH	1484	n/a	-1	1	1.0	1.0	upper	../fonts/Verdana.ttf
1114966	WORD	wordpools/wasnorm_wordpool.txt	LTP082	ltpFR	5	8	-1	BEAKER	104	n/a	-1	1	1.0	1.0	upper	../fonts/Verdana.ttf
1119065	WORD	wordpools/wasnorm_wordpool.txt	LTP082	ltpFR	5	8	-1	SAILOR	1223	n/a	-1	1	1.0	1.0	upper	../fonts/Verdana.ttf
1123090	WORD	wordpools/wasnorm_wordpool.txt	LTP082	ltpFR	5	8	-1	SCREW	1254	n/a	-1	1	1.0	1.0	upper	../fonts/Verdana.ttf
1127165	WORD	wordpools/wasnorm_wordpool.txt	LTP082	ltpFR	5	8	-1	OREGANO	983	n/a	-1	1	1.0	1.0	upper	../fonts/Verdana.ttf
1131123	WORD	wordpools/wasnorm_wordpool.txt	LTP082	ltpFR	5	8	-1	ISLAND	745	n/a	-1	1	1.0	1.0	upper	../fonts/Verdana.ttf
1135022	WORD	wordpools/wasnorm_wordpool.txt	LTP082	ltpFR	5	8	-1	RACKET	1155	n/a	-1	1	1.0	1.0	upper	../fonts/Verdana.ttf
1138980	WORD	wordpools/wasnorm_wordpool.txt	LTP082	ltpFR	5	8	-1	CERAMICS	271	n/a	-1	1	1.0	1.0	upper	../fonts/Verdana.ttf
1142888	WORD	wordpools/wasnorm_wordpool.txt	LTP082	ltpFR	5	8	-1	DICE	461	n/a	-1	1	1.0	1.0	upper	../fonts/Verdana.ttf
1146755	WORD	wordpools/wasnorm_wordpool.txt	LTP082	ltpFR	5	8	-1	CHECKERS	285	n/a	-1	1	1.0	1.0	upper	../fonts/Verdana.ttf
1150870	WORD	wordpools/wasnorm_wordpool.txt	LTP082	ltpFR	5	8	-1	CAGE	218	n/a	-1	1	1.0	1.0	upper	../fonts/Verdana.ttf
1154729	WORD	wordpools/wasnorm_wordpool.txt	LTP082	ltpFR	5	8	-1	SWAN	1417	n/a	-1	1	1.0	1.0	upper	../fonts/Verdana.ttf
1160738	REC_START	n/a	LTP082	ltpFR	5	8	n/a	n/a	n/a	n/a	n/a	n/a	n/a	n/a	n/a	n/a
1162379	REC_WORD	wordpools/wasnorm_wordpool.txt	LTP082	ltpFR	5	8	-1	SWAN	1417	n/a	-1	n/a	n/a	n/a	n/a	n/a
1164789	REC_WORD	wordpools/wasnorm_wordpool.txt	LTP082	ltpFR	5	8	-1	CHECKERS	285	n/a	-1	n/a	n/a	n/a	n/a	n/a
1166804	REC_WORD	wordpools/wasnorm_wordpool.txt	LTP082	ltpFR	5	8	-1	DICE	461	n/a	-1	n/a	n/a	n/a	n/a	n/a
1168949	REC_WORD	wordpools/wasnorm_wordpool.txt	LTP082	ltpFR	5	8	-1	CERAMICS	271	n/a	-1	n/a	n/a	n/a	n/a	n/a
1173882	REC_WORD	wordpools/wasnorm_wordpool.txt	LTP082	ltpFR	5	8	-1	SCOUT	1252	n/a	-1	n/a	n/a	n/a	n/a	n/a
1176218	REC_WORD	wordpools/wasnorm_wordpool.txt	LTP082	ltpFR	5	8	-1	WHISTLE	1606	n/a	-1	n/a	n/a	n/a	n/a	n/a
1184544	REC_WORD	wordpools/wasnorm_wordpool.txt	LTP082	ltpFR	5	8	-1	OREGANO	983	n/a	-1	n/a	n/a	n/a	n/a	n/a
1187407	REC_WORD	wordpools/wasnorm_wordpool.txt	LTP082	ltpFR	5	8	-1	SAILOR	1223	n/a	-1	n/a	n/a	n/a	n/a	n/a
1189801	REC_WORD	wordpools/wasnorm_wordpool.txt	LTP082	ltpFR	5	8	-1	SCREW	1254	n/a	-1	n/a	n/a	n/a	n/a	n/a
1242514	WORD	wordpools/wasnorm_wordpool.txt	LTP082	ltpFR	5	9	1	SALESMAN	1225	n/a	1	1	0.412841796875	0.57763671875	lower	../fonts/zerothre.ttf
1246539	WORD	wordpools/wasnorm_wordpool.txt	LTP082	ltpFR	5	9	1	MAT	877	n/a	0	1	0.412841796875	0.57763671875	lower	../fonts/zerothre.ttf
1250364	WORD	wordpools/wasnorm_wordpool.txt	LTP082	ltpFR	5	9	1	BLUEPRINT	142	n/a	0	1	0.412841796875	0.57763671875	lower	../fonts/zerothre.ttf
1254564	WORD	wordpools/wasnorm_wordpool.txt	LTP082	ltpFR	5	9	1	KEG	770	n/a	0	1	0.412841796875	0.57763671875	lower	../fonts/zerothre.ttf
1258771	WORD	wordpools/wasnorm_wordpool.txt	LTP082	ltpFR	5	9	1	COAT	333	n/a	0	1	0.412841796875	0.57763671875	lower	../fonts/zerothre.ttf
1262730	WORD	wordpools/wasnorm_wordpool.txt	LTP082	ltpFR	5	9	1	ROBE	1198	n/a	0	1	0.412841796875	0.57763671875	lower	../fonts/zerothre.ttf
1266928	WORD	wordpools/wasnorm_wordpool.txt	LTP082	ltpFR	5	9	1	GUARDIAN	668	n/a	1	1	0.412841796875	0.57763671875	lower	../fonts/zerothre.ttf
1271112	WORD	wordpools/wasnorm_wordpool.txt	LTP082	ltpFR	5	9	1	BOTTLE	153	n/a	0	1	0.412841796875	0.57763671875	lower	../fonts/zerothre.ttf
1274928	WORD	wordpools/wasnorm_wordpool.txt	LTP082	ltpFR	5	9	1	TOWN	1491	n/a	0	1	0.412841796875	0.57763671875	lower	../fonts/zerothre.ttf
1278852	WORD	wordpools/wasnorm_wordpool.txt	LTP082	ltpFR	5	9	1	CONSUMER	365	n/a	1	1	0.412841796875	0.57763671875	lower	../fonts/zerothre.ttf
1282678	WORD	wordpools/wasnorm_wordpool.txt	LTP082	ltpFR	5	9	1	TICKET	1464	n/a	0	1	0.412841796875	0.57763671875	lower	../fonts/zerothre.ttf
1286719	WORD	wordpools/wasnorm_wordpool.txt	LTP082	ltpFR	5	9	1	SHACK	1273	n/a	0	1	0.412841796875	0.57763671875	lower	../fonts/zerothre.ttf
1290753	WORD	wordpools/wasnorm_wordpool.txt	LTP082	ltpFR	5	9	1	LAGOON	795	n/a	0	1	0.412841796875	0.57763671875	lower	../fonts/zerothre.ttf
1294719	WORD	wordpools/wasnorm_wordpool.txt	LTP082	ltpFR	5	9	1	DAM	436	n/a	0	1	0.412841796875	0.57763671875	lower	../fonts/zerothre.ttf
1298619	WORD	wordpools/wasnorm_wordpool.txt	LTP082	ltpFR	5	9	1	DUCK	504	n/a	1	1	0.412841796875	0.57763671875	lower	../fonts/zerothre.ttf
1302518	WORD	wordpools/wasnorm_wordpool.txt	LTP082	ltpFR	5	9	1	EAGLE	512	n/a	1	1	0.412841796875	0.57763671875	lower	../fonts/zerothre.ttf
1308185	REC_START	n/a	LTP082	ltpFR	5	9	n/a	n/a	n/a	n/a	n/a	n/a	n/a	n/a	n/a	n/a
1310011	REC_WORD	wordpools/wasnorm_wordpool.txt	LTP082	ltpFR	5	9	1	DUCK	504	n/a	1	n/a	n/a	n/a	n/a	n/a
1312854	REC_WORD	wordpools/wasnorm_wordpool.txt	LTP082	ltpFR	5	9	1	EAGLE	512	n/a	1	n/a	n/a	n/a	n/a	n/a
1314885	REC_WORD	wordpools/wasnorm_wordpool.txt	LTP082	ltpFR	5	9	1	SHACK	1273	n/a	0	n/a	n/a	n/a	n/a	n/a
1316880	REC_WORD	wordpools/wasnorm_wordpool.txt	LTP082	ltpFR	5	9	1	DAM	436	n/a	0	n/a	n/a	n/a	n/a	n/a
1318636	REC_WORD	wordpools/wasnorm_wordpool.txt	LTP082	ltpFR	5	9	1	LAGOON	795	n/a	0	n/a	n/a	n/a	n/a	n/a
1321115	REC_WORD	wordpools/wasnorm_wordpool.txt	LTP082	ltpFR	5	9	1	TOWN	1491	n/a	0	n/a	n/a	n/a	n/a	n/a
1337822	REC_WORD	wordpools/wasnorm_wordpool.txt	LTP082	ltpFR	5	9	1	ROBE	1198	n/a	0	n/a	n/a	n/a	n/a	n/a
1339793	REC_WORD	wordpools/wasnorm_wordpool.txt	LTP082	ltpFR	5	9	1	COAT	333	n/a	0	n/a	n/a	n/a	n/a	n/a
1341564	REC_WORD	wordpools/wasnorm_wordpool.txt	LTP082	ltpFR	5	9	1	CONSUMER	365	n/a	1	n/a	n/a	n/a	n/a	n/a
1343699	REC_WORD	wordpools/wasnorm_wordpool.txt	LTP082	ltpFR	5	9	1	TICKET	1464	n/a	0	n/a	n/a	n/a	n/a	n/a
1345400	REC_WORD	wordpools/wasnorm_wordpool.txt	LTP082	ltpFR	5	9	1	BOTTLE	153	n/a	0	n/a	n/a	n/a	n/a	n/a
1349780	REC_WORD	wordpools/wasnorm_wordpool.txt	LTP082	ltpFR	5	9	1	SALESMAN	1225	n/a	1	n/a	n/a	n/a	n/a	n/a
1352719	REC_WORD	wordpools/wasnorm_wordpool.txt	LTP082	ltpFR	5	9	1	MAT	877	n/a	0	n/a	n/a	n/a	n/a	n/a
1355178	REC_WORD	wordpools/wasnorm_wordpool.txt	LTP082	ltpFR	5	9	1	KEG	770	n/a	0	n/a	n/a	n/a	n/a	n/a
1394860	WORD	wordpools/wasnorm_wordpool.txt	LTP082	ltpFR	5	10	-1	CANE	231	n/a	-1	1	1.0	1.0	upper	../fonts/Verdana.ttf
1398703	WORD	wordpools/wasnorm_wordpool.txt	LTP082	ltpFR	5	10	-1	FROST	609	n/a	-1	1	1.0	1.0	upper	../fonts/Verdana.ttf
1402843	WORD	wordpools/wasnorm_wordpool.txt	LTP082	ltpFR	5	10	-1	JET	756	n/a	-1	1	1.0	1.0	upper	../fonts/Verdana.ttf
1406851	WORD	wordpools/wasnorm_wordpool.txt	LTP082	ltpFR	5	10	-1	AIRPORT	13	n/a	-1	1	1.0	1.0	upper	../fonts/Verdana.ttf
1411043	WORD	wordpools/wasnorm_wordpool.txt	LTP082	ltpFR	5	10	-1	PERISCOPE	1050	n/a	-1	1	1.0	1.0	upper	../fonts/Verdana.ttf
1415227	WORD	wordpools/wasnorm_wordpool.txt	LTP082	ltpFR	5	10	-1	BOSS	152	n/a	-1	1	1.0	1.0	upper	../fonts/Verdana.ttf
1419268	WORD	wordpools/wasnorm_wordpool.txt	LTP082	ltpFR	5	10	-1	MOUTH	926	n/a	-1	1	1.0	1.0	upper	../fonts/Verdana.ttf
1423184	WORD	wordpools/wasnorm_wordpool.txt	LTP082	ltpFR	5	10	-1	DIRECTOR	471	n/a	-1	1	1.0	1.0	upper	../fonts/Verdana.ttf
1427101	WORD	wordpools/wasnorm_wordpool.txt	LTP082	ltpFR	5	10	-1	OFFICE	972	n/a	-1	1	1.0	1.0	upper	../fonts/Verdana.ttf
1431000	WORD	wordpools/wasnorm_wordpool.txt	LTP082	ltpFR	5	10	-1	SLEIGH	1325	n/a	-1	1	1.0	1.0	upper	../fonts/Verdana.ttf
1435142	WORD	wordpools/wasnorm_wordpool.txt	LTP082	ltpFR	5	10	-1	THREAD	1460	n/a	-1	1	1.0	1.0	upper	../fonts/Verdana.ttf
1439275	WORD	wordpools/wasnorm_wordpool.txt	LTP082	ltpFR	5	10	-1	CANYON	235	n/a	-1	1	1.0	1.0	upper	../fonts/Verdana.ttf
1443124	WORD	wordpools/wasnorm_wordpool.txt	LTP082	ltpFR	5	10	-1	CLIFF	322	n/a	-1	1	1.0	1.0	upper	../fonts/Verdana.ttf
1447207	WORD	wordpools/wasnorm_wordpool.txt	LTP082	ltpFR	5	10	-1	STRAW	1390	n/a	-1	1	1.0	1.0	upper	../fonts/Verdana.ttf
1451057	WORD	wordpools/wasnorm_wordpool.txt	LTP082	ltpFR	5	10	-1	TEAPOT	1442	n/a	-1	1	1.0	1.0	upper	../fonts/Verdana.ttf
1455024	WORD	wordpools/wasnorm_wordpool.txt	LTP082	ltpFR	5	10	-1	STAR	1373	n/a	-1	1	1.0	1.0	upper	../fonts/Verdana.ttf
1460740	REC_START	n/a	LTP082	ltpFR	5	10	n/a	n/a	n/a	n/a	n/a	n/a	n/a	n/a	n/a	n/a
1461986	REC_WORD	wordpools/wasnorm_wordpool.txt	LTP082	ltpFR	5	10	-1	STAR	1373	n/a	-1	n/a	n/a	n/a	n/a	n/a
1464032	REC_WORD	wordpools/wasnorm_wordpool.txt	LTP082	ltpFR	5	10	-1	TEAPOT	1442	n/a	-1	n/a	n/a	n/a	n/a	n/a
1465958	REC_WORD	wordpools/wasnorm_wordpool.txt	LTP082	ltpFR	5	10	-1	STRAW	1390	n/a	-1	n/a	n/a	n/a	n/a	n/a
1468158	REC_WORD	wordpools/wasnorm_wordpool.txt	LTP082	ltpFR	5	10	-1	THREAD	1460	n/a	-1	n/a	n/a	n/a	n/a	n/a
1473416	REC_WORD	wordpools/wasnorm_wordpool.txt	LTP082	ltpFR	5	10	-1	JET	756	n/a	-1	n/a	n/a	n/a	n/a	n/a
1475382	REC_WORD	wordpools/wasnorm_wordpool.txt	LTP082	ltpFR	5	10	-1	AIRPORT	13	n/a	-1	n/a	n/a	n/a	n/a	n/a
1477916	REC_WORD	wordpools/wasnorm_wordpool.txt	LTP082	ltpFR	5	10	-1	PERISCOPE	1050	n/a	-1	n/a	n/a	n/a	n/a	n/a
1480275	REC_WORD	wordpools/wasnorm_wordpool.txt	LTP082	ltpFR	5	10	-1	CANYON	235	n/a	-1	n/a	n/a	n/a	n/a	n/a
1493620	REC_WORD	wordpools/wasnorm_wordpool.txt	LTP082	ltpFR	5	10	-1	OFFICE	972	n/a	-1	n/a	n/a	n/a	n/a	n/a
1495940	REC_WORD	wordpools/wasnorm_wordpool.txt	LTP082	ltpFR	5	10	-1	BOSS	152	n/a	-1	n/a	n/a	n/a	n/a	n/a
1498190	REC_WORD	wordpools/wasnorm_wordpool.txt	LTP082	ltpFR	5	10	-1	MOUTH	926	n/a	-1	n/a	n/a	n/a	n/a	n/a
1506620	REC_WORD	wordpools/wasnorm_wordpool.txt	LTP082	ltpFR	5	10	-1	SLEIGH	1325	n/a	-1	n/a	n/a	n/a	n/a	n/a
1517266	REC_WORD	wordpools/wasnorm_wordpool.txt	LTP082	ltpFR	5	10	-1	PERISCOPE	1050	n/a	-1	n/a	n/a	n/a	n/a	n/a
1520260	REC_WORD	wordpools/wasnorm_wordpool.txt	LTP082	ltpFR	5	10	-1	AIRPORT	13	n/a	-1	n/a	n/a	n/a	n/a	n/a
1522325	REC_WORD	wordpools/wasnorm_wordpool.txt	LTP082	ltpFR	5	10	-1	JET	756	n/a	-1	n/a	n/a	n/a	n/a	n/a
1543942	WORD	wordpools/wasnorm_wordpool.txt	LTP082	ltpFR	5	11	0	TONGUE	1479	n/a	0	0	0.5869140625	0.422607421875	upper	../fonts/amplitud.ttf
1548108	WORD	wordpools/wasnorm_wordpool.txt	LTP082	ltpFR	5	11	0	HARP	689	n/a	1	0	0.5869140625	0.422607421875	upper	../fonts/amplitud.ttf
1551932	WORD	wordpools/wasnorm_wordpool.txt	LTP082	ltpFR	5	11	0	TRUMPET	1513	n/a	1	0	0.5869140625	0.422607421875	upper	../fonts/amplitud.ttf
1555857	WORD	wordpools/wasnorm_wordpool.txt	LTP082	ltpFR	5	11	0	BEGGAR	117	n/a	0	0	0.5869140625	0.422607421875	upper	../fonts/amplitud.ttf
1559923	WORD	wordpools/wasnorm_wordpool.txt	LTP082	ltpFR	5	11	1	POLITICIAN	1099	n/a	1	1	0.412841796875	0.57763671875	lower	../fonts/zerothre.ttf
1564090	WORD	wordpools/wasnorm_wordpool.txt	LTP082	ltpFR	5	11	1	CROOK	412	n/a	1	1	0.412841796875	0.57763671875	lower	../fonts/zerothre.ttf
1568082	WORD	wordpools/wasnorm_wordpool.txt	LTP082	ltpFR	5	11	1	BEAN	105	n/a	0	1	0.412841796875	0.57763671875	lower	../fonts/zerothre.ttf
1572256	WORD	wordpools/wasnorm_wordpool.txt	LTP082	ltpFR	5	11	1	TEACHER	1440	n/a	1	1	0.412841796875	0.57763671875	lower	../fonts/zerothre.ttf
1576090	WORD	wordpools/wasnorm_wordpool.txt	LTP082	ltpFR	5	11	0	FUDGE	611	n/a	n/a	0	0.5869140625	0.422607421875	upper	../fonts/amplitud.ttf
1579114	SLOW_MSG	n/a	LTP082	ltpFR	5	11	n/a	n/a	n/a	n/a	n/a	n/a	n/a	n/a	n/a	n/a
1581497	WORD	wordpools/wasnorm_wordpool.txt	LTP082	ltpFR	5	11	0	TREAT	1501	n/a	1	0	0.5869140625	0.422607421875	upper	../fonts/amplitud.ttf
1585322	WORD	wordpools/wasnorm_wordpool.txt	LTP082	ltpFR	5	11	0	SENATOR	1268	n/a	1	0	0.5869140625	0.422607421875	upper	../fonts/amplitud.ttf
1589239	WORD	wordpools/wasnorm_wordpool.txt	LTP082	ltpFR	5	11	0	BRACES	164	n/a	0	0	0.5869140625	0.422607421875	upper	../fonts/amplitud.ttf
1593088	WORD	wordpools/wasnorm_wordpool.txt	LTP082	ltpFR	5	11	1	CENT	270	n/a	0	1	0.412841796875	0.57763671875	lower	../fonts/zerothre.ttf
1596996	WORD	wordpools/wasnorm_wordpool.txt	LTP082	ltpFR	5	11	1	REFRIGERATOR	1179	n/a	0	1	0.412841796875	0.57763671875	lower	../fonts/zerothre.ttf
1601004	WORD	wordpools/wasnorm_wordpool.txt	LTP082	ltpFR	5	11	1	GOVERNOR	651	n/a	1	1	0.412841796875	0.57763671875	lower	../fonts/zerothre.ttf
1604911	WORD	wordpools/wasnorm_wordpool.txt	LTP082	ltpFR	5	11	1	BUSH	202	n/a	0	1	0.412841796875	0.57763671875	lower	../fonts/zerothre.ttf
1610936	REC_START	n/a	LTP082	ltpFR	5	11	n/a	n/a	n/a	n/a	n/a	n/a	n/a	n/a	n/a	n/a
1612677	REC_WORD	wordpools/wasnorm_wordpool.txt	LTP082	ltpFR	5	11	1	GOVERNOR	651	n/a	1	n/a	n/a	n/a	n/a	n/a
1614667	REC_WORD	wordpools/wasnorm_wordpool.txt	LTP082	ltpFR	5	11	1	BUSH	202	n/a	0	n/a	n/a	n/a	n/a	n/a
1616758	REC_WORD	wordpools/wasnorm_wordpool.txt	LTP082	ltpFR	5	11	1	BEAN	105	n/a	0	n/a	n/a	n/a	n/a	n/a
1618958	REC_WORD	wordpools/wasnorm_wordpool.txt	LTP082	ltpFR	5	11	1	POLITICIAN	1099	n/a	1	n/a	n/a	n/a	n/a	n/a
1621527	REC_WORD	wordpools/wasnorm_wordpool.txt	LTP082	ltpFR	5	11	1	CROOK	412	n/a	1	n/a	n/a	n/a	n/a	n/a
1623936	REC_WORD	wordpools/wasnorm_wordpool.txt	LTP082	ltpFR	5	11	0	SENATOR	1268	n/a	1	n/a	n/a	n/a	n/a	n/a
1627758	REC_WORD	wordpools/wasnorm_wordpool.txt	LTP082	ltpFR	5	11	0	TONGUE	1479	n/a	0	n/a	n/a	n/a	n/a	n/a
1630047	REC_WORD	wordpools/wasnorm_wordpool.txt	LTP082	ltpFR	5	11	0	BEGGAR	117	n/a	0	n/a	n/a	n/a	n/a	n/a
1647079	REC_WORD	wordpools/wasnorm_wordpool.txt	LTP082	ltpFR	5	11	1	REFRIGERATOR	1179	n/a	0	n/a	n/a	n/a	n/a	n/a
1689139	WORD	wordpools/wasnorm_wordpool.txt	LTP082	ltpFR	5	12	1	PASTA	1021	n/a	0	1	0.412841796875	0.57763671875	lower	../fonts/zerothre.ttf
1693347	WORD	wordpools/wasnorm_wordpool.txt	LTP082	ltpFR	5	12	1	SAP	1233	n/a	0	1	0.412841796875	0.57763671875	lower	../fonts/zerothre.ttf
1697272	WORD	wordpools/wasnorm_wordpool.txt	LTP082	ltpFR	5	12	1	BERRY	122	n/a	1	1	0.412841796875	0.57763671875	lower	../fonts/zerothre.ttf
1701272	WORD	wordpools/wasnorm_wordpool.txt	LTP082	ltpFR	5	12	1	CABBAGE	210	n/a	1	1	0.412841796875	0.57763671875	lower	../fonts/zerothre.ttf
1705130	WORD	wordpools/wasnorm_wordpool.txt	LTP082	ltpFR	5	12	1	OUTLAW	989	n/a	1	1	0.412841796875	0.57763671875	lower	../fonts/zerothre.ttf
1708946	WORD	wordpools/wasnorm_wordpool.txt	LTP082	ltpFR	5	12	1	SIRLOIN	1311	n/a	1	1	0.412841796875	0.57763671875	lower	../fonts/zerothre.ttf
1712853	WORD	wordpools/wasnorm_wordpool.txt	LTP082	ltpFR	5	12	1	SODA	1341	n/a	0	1	0.412841796875	0.57763671875	lower	../fonts/zerothre.ttf
1717029	WORD	wordpools/wasnorm_wordpool.txt	LTP082	ltpFR	5	12	1	INMATE	738	n/a	1	1	0.412841796875	0.57763671875	lower	../fonts/zerothre.ttf
1721045	WORD	wordpools/wasnorm_wordpool.txt	LTP082	ltpFR	5	12	1	TRAY	1498	n/a	0	1	0.412841796875	0.57763671875	lower	../fonts/zerothre.ttf
1724886	WORD	wordpools/wasnorm_wordpool.txt	LTP082	ltpFR	5	12	1	OBOE	969	n/a	1	1	0.412841796875	0.57763671875	lower	../fonts/zerothre.ttf
1728761	WORD	wordpools/wasnorm_wordpool.txt	LTP082	ltpFR	5	12	1	CUSTARD	429	n/a	0	1	0.412841796875	0.57763671875	lower	../fonts/zerothre.ttf
1732902	WORD	wordpools/wasnorm_wordpool.txt	LTP082	ltpFR	5	12	1	TAPIOCA	1434	n/a	0	1	0.412841796875	0.57763671875	lower	../fonts/zerothre.ttf
1736744	WORD	wordpools/wasnorm_wordpool.txt	LTP082	ltpFR	5	12	1	AUNT	60	n/a	1	1	0.412841796875	0.57763671875	lower	../fonts/zerothre.ttf
1740802	WORD	wordpools/wasnorm_wordpool.txt	LTP082	ltpFR	5	12	1	OX	994	n/a	1	1	0.412841796875	0.57763671875	lower	../fonts/zerothre.ttf
1744627	WORD	wordpools/wasnorm_wordpool.txt	LTP082	ltpFR	5	12	1	BEAST	108	n/a	1	1	0.412841796875	0.57763671875	lower	../fonts/zerothre.ttf
1748752	WORD	wordpools/wasnorm_wordpool.txt	LTP082	ltpFR	5	12	1	COUSIN	392	n/a	1	1	0.412841796875	0.57763671875	lower	../fonts/zerothre.ttf
1754777	REC_START	n/a	LTP082	ltpFR	5	12	n/a	n/a	n/a	n/a	n/a	n/a	n/a	n/a	n/a	n/a
1756957	REC_WORD	wordpools/wasnorm_wordpool.txt	LTP082	ltpFR	5	12	n/a	ANT	25	n/a	n/a	n/a	n/a	n/a	n/a	n/a
1758623	REC_WORD	wordpools/wasnorm_wordpool.txt	LTP082	ltpFR	5	12	1	COUSIN	392	n/a	1	n/a	n/a	n/a	n/a	n/a
1760514	REC_WORD	wordpools/wasnorm_wordpool.txt	LTP082	ltpFR	5	12	1	BEAST	108	n/a	1	n/a	n/a	n/a	n/a	n/a
1762365	REC_WORD	wordpools/wasnorm_wordpool.txt	LTP082	ltpFR	5	12	1	OX	994	n/a	1	n/a	n/a	n/a	n/a	n/a
1764370	REC_WORD	wordpools/wasnorm_wordpool.txt	LTP082	ltpFR	5	12	1	BERRY	122	n/a	1	n/a	n/a	n/a	n/a	n/a
1766036	REC_WORD	wordpools/wasnorm_wordpool.txt	LTP082	ltpFR	5	12	1	CABBAGE	210	n/a	1	n/a	n/a	n/a	n/a	n/a
1767937	REC_WORD	wordpools/wasnorm_wordpool.txt	LTP082	ltpFR	5	12	1	SIRLOIN	1311	n/a	1	n/a	n/a	n/a	n/a	n/a
1769753	REC_WORD	wordpools/wasnorm_wordpool.txt	LTP082	ltpFR	5	12	1	PASTA	1021	n/a	0	n/a	n/a	n/a	n/a	n/a
1771584	REC_WORD	wordpools/wasnorm_wordpool.txt	LTP082	ltpFR	5	12	1	SAP	1233	n/a	0	n/a	n/a	n/a	n/a	n/a
1794641	REC_WORD	wordpools/wasnorm_wordpool.txt	LTP082	ltpFR	5	12	1	TAPIOCA	1434	n/a	0	n/a	n/a	n/a	n/a	n/a
1796477	REC_WORD	wordpools/wasnorm_wordpool.txt	LTP082	ltpFR	5	12	1	CUSTARD	429	n/a	0	n/a	n/a	n/a	n/a	n/a
1812311	REC_WORD	wordpools/wasnorm_wordpool.txt	LTP082	ltpFR	5	12	1	INMATE	738	n/a	1	n/a	n/a	n/a	n/a	n/a
1814132	REC_WORD	wordpools/wasnorm_wordpool.txt	LTP082	ltpFR	5	12	1	TRAY	1498	n/a	0	n/a	n/a	n/a	n/a	n/a
1816442	REC_WORD	wordpools/wasnorm_wordpool.txt	LTP082	ltpFR	5	12	1	OUTLAW	989	n/a	1	n/a	n/a	n/a	n/a	n/a
1830379	REST_REWET	n/a	LTP082	ltpFR	5	12	n/a	n/a	n/a	n/a	n/a	n/a	n/a	n/a	n/a	n/a
2207509	WORD	wordpools/wasnorm_wordpool.txt	LTP082	ltpFR	5	13	0	COLT	349	n/a	1	0	0.5869140625	0.422607421875	upper	../fonts/amplitud.ttf
2211384	WORD	wordpools/wasnorm_wordpool.txt	LTP082	ltpFR	5	13	0	PUMP	1141	n/a	1	0	0.5869140625	0.422607421875	upper	../fonts/amplitud.ttf
2215383	WORD	wordpools/wasnorm_wordpool.txt	LTP082	ltpFR	5	13	0	ORANGE	980	n/a	0	0	0.5869140625	0.422607421875	upper	../fonts/amplitud.ttf
2219441	WORD	wordpools/wasnorm_wordpool.txt	LTP082	ltpFR	5	13	0	BRAN	167	n/a	0	0	0.5869140625	0.422607421875	upper	../fonts/amplitud.ttf
2223508	WORD	wordpools/wasnorm_wordpool.txt	LTP082	ltpFR	5	13	0	JEEP	753	n/a	1	0	0.5869140625	0.422607421875	upper	../fonts/amplitud.ttf
2227407	WORD	wordpools/wasnorm_wordpool.txt	LTP082	ltpFR	5	13	0	ANT	25	n/a	0	0	0.5869140625	0.422607421875	upper	../fonts/amplitud.ttf
2231257	WORD	wordpools/wasnorm_wordpool.txt	LTP082	ltpFR	5	13	0	EDITOR	516	n/a	1	0	0.5869140625	0.422607421875	upper	../fonts/amplitud.ttf
2235332	WORD	wordpools/wasnorm_wordpool.txt	LTP082	ltpFR	5	13	0	FEAST	556	n/a	1	0	0.5869140625	0.422607421875	upper	../fonts/amplitud.ttf
2239507	WORD	wordpools/wasnorm_wordpool.txt	LTP082	ltpFR	5	13	0	CHAIRPERSON	275	n/a	1	0	0.5869140625	0.422607421875	upper	../fonts/amplitud.ttf
2243540	WORD	wordpools/wasnorm_wordpool.txt	LTP082	ltpFR	5	13	0	MOSQUITO	917	n/a	0	0	0.5869140625	0.422607421875	upper	../fonts/amplitud.ttf
2247389	WORD	wordpools/wasnorm_wordpool.txt	LTP082	ltpFR	5	13	0	COCOON	339	n/a	0	0	0.5869140625	0.422607421875	upper	../fonts/amplitud.ttf
2251481	WORD	wordpools/wasnorm_wordpool.txt	LTP082	ltpFR	5	13	0	CHAMPAGNE	278	n/a	0	0	0.5869140625	0.422607421875	upper	../fonts/amplitud.ttf
2255347	WORD	wordpools/wasnorm_wordpool.txt	LTP082	ltpFR	5	13	0	BARTENDER	92	n/a	1	0	0.5869140625	0.422607421875	upper	../fonts/amplitud.ttf
2259372	WORD	wordpools/wasnorm_wordpool.txt	LTP082	ltpFR	5	13	0	BOOK	149	n/a	1	0	0.5869140625	0.422607421875	upper	../fonts/amplitud.ttf
2263496	WORD	wordpools/wasnorm_wordpool.txt	LTP082	ltpFR	5	13	0	MOTORCYCLE	923	n/a	1	0	0.5869140625	0.422607421875	upper	../fonts/amplitud.ttf
2267521	WORD	wordpools/wasnorm_wordpool.txt	LTP082	ltpFR	5	13	0	HAY	693	n/a	0	0	0.5869140625	0.422607421875	upper	../fonts/amplitud.ttf
2273430	REC_START	n/a	LTP082	ltpFR	5	13	n/a	n/a	n/a	n/a	n/a	n/a	n/a	n/a	n/a	n/a
2276089	REC_WORD	wordpools/wasnorm_wordpool.txt	LTP082	ltpFR	5	13	0	HAY	693	n/a	0	n/a	n/a	n/a	n/a	n/a
2277910	REC_WORD	wordpools/wasnorm_wordpool.txt	LTP082	ltpFR	5	13	0	MOTORCYCLE	923	n/a	1	n/a	n/a	n/a	n/a	n/a
2280055	REC_WORD	wordpools/wasnorm_wordpool.txt	LTP082	ltpFR	5	13	0	BOOK	149	n/a	1	n/a	n/a	n/a	n/a	n/a
2281821	REC_WORD	wordpools/wasnorm_wordpool.txt	LTP082	ltpFR	5	13	0	EDITOR	516	n/a	1	n/a	n/a	n/a	n/a	n/a
2283896	REC_WORD	wordpools/wasnorm_wordpool.txt	LTP082	ltpFR	5	13	0	BARTENDER	92	n/a	1	n/a	n/a	n/a	n/a	n/a
2285832	REC_WORD	wordpools/wasnorm_wordpool.txt	LTP082	ltpFR	5	13	0	CHAMPAGNE	278	n/a	0	n/a	n/a	n/a	n/a	n/a
2290291	REC_WORD	wordpools/wasnorm_wordpool.txt	LTP082	ltpFR	5	13	0	ORANGE	980	n/a	0	n/a	n/a	n/a	n/a	n/a
2298553	REC_WORD	wordpools/wasnorm_wordpool.txt	LTP082	ltpFR	5	13	0	MOSQUITO	917	n/a	0	n/a	n/a	n/a	n/a	n/a
2300763	REC_WORD	wordpools/wasnorm_wordpool.txt	LTP082	ltpFR	5	13	0	ANT	25	n/a	0	n/a	n/a	n/a	n/a	n/a
2353798	WORD	wordpools/wasnorm_wordpool.txt	LTP082	ltpFR	5	14	1	SAUCER	1237	n/a	0	1	0.412841796875	0.57763671875	lower	../fonts/zerothre.ttf
2357913	WORD	wordpools/wasnorm_wordpool.txt	LTP082	ltpFR	5	14	1	PRINTER	1126	n/a	0	1	0.412841796875	0.57763671875	lower	../fonts/zerothre.ttf
2361797	WORD	wordpools/wasnorm_wordpool.txt	LTP082	ltpFR	5	14	1	HOME	712	n/a	0	1	0.412841796875	0.57763671875	lower	../fonts/zerothre.ttf
2365846	WORD	wordpools/wasnorm_wordpool.txt	LTP082	ltpFR	5	14	1	BACON	67	n/a	0	1	0.412841796875	0.57763671875	lower	../fonts/zerothre.ttf
2369879	WORD	wordpools/wasnorm_wordpool.txt	LTP082	ltpFR	5	14	0	SLUG	1329	n/a	1	0	0.5869140625	0.422607421875	upper	../fonts/amplitud.ttf
2373862	WORD	wordpools/wasnorm_wordpool.txt	LTP082	ltpFR	5	14	0	SAGE	1222	n/a	0	0	0.5869140625	0.422607421875	upper	../fonts/amplitud.ttf
2377688	WORD	wordpools/wasnorm_wordpool.txt	LTP082	ltpFR	5	14	1	SKUNK	1321	n/a	1	1	0.412841796875	0.57763671875	lower	../fonts/zerothre.ttf
2381895	WORD	wordpools/wasnorm_wordpool.txt	LTP082	ltpFR	5	14	1	TEA	1439	n/a	0	1	0.412841796875	0.57763671875	lower	../fonts/zerothre.ttf
2385729	WORD	wordpools/wasnorm_wordpool.txt	LTP082	ltpFR	5	14	0	ELK	526	n/a	1	0	0.5869140625	0.422607421875	upper	../fonts/amplitud.ttf
2389620	WORD	wordpools/wasnorm_wordpool.txt	LTP082	ltpFR	5	14	0	EWE	542	n/a	1	0	0.5869140625	0.422607421875	upper	../fonts/amplitud.ttf
2393745	WORD	wordpools/wasnorm_wordpool.txt	LTP082	ltpFR	5	14	0	BARN	89	n/a	1	0	0.5869140625	0.422607421875	upper	../fonts/amplitud.ttf
2397803	WORD	wordpools/wasnorm_wordpool.txt	LTP082	ltpFR	5	14	0	BULL	193	n/a	1	0	0.5869140625	0.422607421875	upper	../fonts/amplitud.ttf
2401835	WORD	wordpools/wasnorm_wordpool.txt	LTP082	ltpFR	5	14	0	OWNER	993	n/a	1	0	0.5869140625	0.422607421875	upper	../fonts/amplitud.ttf
2405719	WORD	wordpools/wasnorm_wordpool.txt	LTP082	ltpFR	5	14	0	BAKER	71	n/a	1	0	0.5869140625	0.422607421875	upper	../fonts/amplitud.ttf
2409744	WORD	wordpools/wasnorm_wordpool.txt	LTP082	ltpFR	5	14	1	ICING	732	n/a	0	1	0.412841796875	0.57763671875	lower	../fonts/zerothre.ttf
2413577	WORD	wordpools/wasnorm_wordpool.txt	LTP082	ltpFR	5	14	1	SPATULA	1348	n/a	0	1	0.412841796875	0.57763671875	lower	../fonts/zerothre.ttf
2419502	REC_START	n/a	LTP082	ltpFR	5	14	n/a	n/a	n/a	n/a	n/a	n/a	n/a	n/a	n/a	n/a
2422385	REC_WORD	wordpools/wasnorm_wordpool.txt	LTP082	ltpFR	5	14	1	SPATULA	1348	n/a	0	n/a	n/a	n/a	n/a	n/a
2424700	REC_WORD	wordpools/wasnorm_wordpool.txt	LTP082	ltpFR	5	14	1	ICING	732	n/a	0	n/a	n/a	n/a	n/a	n/a
2426730	REC_WORD	wordpools/wasnorm_wordpool.txt	LTP082	ltpFR	5	14	0	BAKER	71	n/a	1	n/a	n/a	n/a	n/a	n/a
2428446	REC_WORD	wordpools/wasnorm_wordpool.txt	LTP082	ltpFR	5	14	0	OWNER	993	n/a	1	n/a	n/a	n/a	n/a	n/a
2430457	REC_WORD	wordpools/wasnorm_wordpool.txt	LTP082	ltpFR	5	14	0	BULL	193	n/a	1	n/a	n/a	n/a	n/a	n/a
2432916	REC_WORD	wordpools/wasnorm_wordpool.txt	LTP082	ltpFR	5	14	0	BARN	89	n/a	1	n/a	n/a	n/a	n/a	n/a
2435136	REC_WORD	wordpools/wasnorm_wordpool.txt	LTP082	ltpFR	5	14	0	EWE	542	n/a	1	n/a	n/a	n/a	n/a	n/a
2437516	REC_WORD	wordpools/wasnorm_wordpool.txt	LTP082	ltpFR	5	14	0	ELK	526	n/a	1	n/a	n/a	n/a	n/a	n/a
2441202	REC_WORD	wordpools/wasnorm_wordpool.txt	LTP082	ltpFR	5	14	1	SAUCER	1237	n/a	0	n/a	n/a	n/a	n/a	n/a
2463467	REC_WORD	wordpools/wasnorm_wordpool.txt	LTP082	ltpFR	5	14	0	BAKER	71	n/a	1	n/a	n/a	n/a	n/a	n/a
2480673	REC_WORD	wordpools/wasnorm_wordpool.txt	LTP082	ltpFR	5	14	n/a	KEY	773	n/a	n/a	n/a	n/a	n/a	n/a	n/a
2485751	REC_WORD	wordpools/wasnorm_wordpool.txt	LTP082	ltpFR	5	14	1	BACON	67	n/a	0	n/a	n/a	n/a	n/a	n/a
2498903	WORD	wordpools/wasnorm_wordpool.txt	LTP082	ltpFR	5	15	0	GOWN	652	n/a	1	0	0.5869140625	0.422607421875	upper	../fonts/amplitud.ttf
2502979	WORD	wordpools/wasnorm_wordpool.txt	LTP082	ltpFR	5	15	0	LINEN	825	n/a	1	0	0.5869140625	0.422607421875	upper	../fonts/amplitud.ttf
2506877	WORD	wordpools/wasnorm_wordpool.txt	LTP082	ltpFR	5	15	0	PLIERS	1089	n/a	0	0	0.5869140625	0.422607421875	upper	../fonts/amplitud.ttf
2511061	WORD	wordpools/wasnorm_wordpool.txt	LTP082	ltpFR	5	15	0	HATCHET	691	n/a	1	0	0.5869140625	0.422607421875	upper	../fonts/amplitud.ttf
2514994	WORD	wordpools/wasnorm_wordpool.txt	LTP082	ltpFR	5	15	0	DRAWER	493	n/a	1	0	0.5869140625	0.422607421875	upper	../fonts/amplitud.ttf
2518819	WORD	wordpools/wasnorm_wordpool.txt	LTP082	ltpFR	5	15	0	APPLE	33	n/a	0	0	0.5869140625	0.422607421875	upper	../fonts/amplitud.ttf
2522893	WORD	wordpools/wasnorm_wordpool.txt	LTP082	ltpFR	5	15	0	BRANCH	168	n/a	1	0	0.5869140625	0.422607421875	upper	../fonts/amplitud.ttf
2526926	WORD	wordpools/wasnorm_wordpool.txt	LTP082	ltpFR	5	15	0	MOP	916	n/a	1	0	0.5869140625	0.422607421875	upper	../fonts/amplitud.ttf
2530818	WORD	wordpools/wasnorm_wordpool.txt	LTP082	ltpFR	5	15	0	CORN	381	n/a	0	0	0.5869140625	0.422607421875	upper	../fonts/amplitud.ttf
2534643	WORD	wordpools/wasnorm_wordpool.txt	LTP082	ltpFR	5	15	0	CELLO	268	n/a	1	0	0.5869140625	0.422607421875	upper	../fonts/amplitud.ttf
2538501	WORD	wordpools/wasnorm_wordpool.txt	LTP082	ltpFR	5	15	0	ORCHESTRA	981	n/a	1	0	0.5869140625	0.422607421875	upper	../fonts/amplitud.ttf
2542501	WORD	wordpools/wasnorm_wordpool.txt	LTP082	ltpFR	5	15	0	GARBAGE	622	n/a	1	0	0.5869140625	0.422607421875	upper	../fonts/amplitud.ttf
2546409	WORD	wordpools/wasnorm_wordpool.txt	LTP082	ltpFR	5	15	0	DUSTPAN	509	n/a	1	0	0.5869140625	0.422607421875	upper	../fonts/amplitud.ttf
2550400	WORD	wordpools/wasnorm_wordpool.txt	LTP082	ltpFR	5	15	0	MAPLE	866	n/a	1	0	0.5869140625	0.422607421875	upper	../fonts/amplitud.ttf
2554341	WORD	wordpools/wasnorm_wordpool.txt	LTP082	ltpFR	5	15	0	COOK	372	n/a	1	0	0.5869140625	0.422607421875	upper	../fonts/amplitud.ttf
2558358	WORD	wordpools/wasnorm_wordpool.txt	LTP082	ltpFR	5	15	0	SCREEN	1253	n/a	1	0	0.5869140625	0.422607421875	upper	../fonts/amplitud.ttf
2564091	REC_START	n/a	LTP082	ltpFR	5	15	n/a	n/a	n/a	n/a	n/a	n/a	n/a	n/a	n/a	n/a
2565962	REC_WORD	wordpools/wasnorm_wordpool.txt	LTP082	ltpFR	5	15	0	SCREEN	1253	n/a	1	n/a	n/a	n/a	n/a	n/a
2568596	REC_WORD	wordpools/wasnorm_wordpool.txt	LTP082	ltpFR	5	15	0	COOK	372	n/a	1	n/a	n/a	n/a	n/a	n/a
2571359	REC_WORD	wordpools/wasnorm_wordpool.txt	LTP082	ltpFR	5	15	0	PLIERS	1089	n/a	0	n/a	n/a	n/a	n/a	n/a
2574283	REC_WORD	wordpools/wasnorm_wordpool.txt	LTP082	ltpFR	5	15	0	APPLE	33	n/a	0	n/a	n/a	n/a	n/a	n/a
2579780	REC_WORD	wordpools/wasnorm_wordpool.txt	LTP082	ltpFR	5	15	0	GOWN	652	n/a	1	n/a	n/a	n/a	n/a	n/a
2584479	REC_WORD	wordpools/wasnorm_wordpool.txt	LTP082	ltpFR	5	15	0	DRAWER	493	n/a	1	n/a	n/a	n/a	n/a	n/a
2609637	REC_WORD	wordpools/wasnorm_wordpool.txt	LTP082	ltpFR	5	15	0	CORN	381	n/a	0	n/a	n/a	n/a	n/a	n/a
2626274	REC_WORD	wordpools/wasnorm_wordpool.txt	LTP082	ltpFR	5	15	0	SCREEN	1253	n/a	1	n/a	n/a	n/a	n/a	n/a
2646118	WORD	wordpools/wasnorm_wordpool.txt	LTP082	ltpFR	5	16	-1	OINTMENT	974	n/a	-1	1	1.0	1.0	upper	../fonts/Verdana.ttf
2650101	WORD	wordpools/wasnorm_wordpool.txt	LTP082	ltpFR	5	16	-1	BASEMENT	94	n/a	-1	1	1.0	1.0	upper	../fonts/Verdana.ttf
2654017	WORD	wordpools/wasnorm_wordpool.txt	LTP082	ltpFR	5	16	-1	DRUM	502	n/a	-1	1	1.0	1.0	upper	../fonts/Verdana.ttf
2658084	WORD	wordpools/wasnorm_wordpool.txt	LTP082	ltpFR	5	16	-1	NOTE	958	n/a	-1	1	1.0	1.0	upper	../fonts/Verdana.ttf
2661916	WORD	wordpools/wasnorm_wordpool.txt	LTP082	ltpFR	5	16	-1	OPERATOR	979	n/a	-1	1	1.0	1.0	upper	../fonts/Verdana.ttf
2666033	WORD	wordpools/wasnorm_wordpool.txt	LTP082	ltpFR	5	16	-1	BIRD	129	n/a	-1	1	1.0	1.0	upper	../fonts/Verdana.ttf
2670033	WORD	wordpools/wasnorm_wordpool.txt	LTP082	ltpFR	5	16	-1	BUN	197	n/a	-1	1	1.0	1.0	upper	../fonts/Verdana.ttf
2674041	WORD	wordpools/wasnorm_wordpool.txt	LTP082	ltpFR	5	16	-1	CUSTOMER	430	n/a	-1	1	1.0	1.0	upper	../fonts/Verdana.ttf
2677931	WORD	wordpools/wasnorm_wordpool.txt	LTP082	ltpFR	5	16	-1	CANARY	227	n/a	-1	1	1.0	1.0	upper	../fonts/Verdana.ttf
2682032	WORD	wordpools/wasnorm_wordpool.txt	LTP082	ltpFR	5	16	-1	HANDKERCHIEF	686	n/a	-1	1	1.0	1.0	upper	../fonts/Verdana.ttf
2686190	WORD	wordpools/wasnorm_wordpool.txt	LTP082	ltpFR	5	16	-1	FREEZER	604	n/a	-1	1	1.0	1.0	upper	../fonts/Verdana.ttf
2690023	WORD	wordpools/wasnorm_wordpool.txt	LTP082	ltpFR	5	16	-1	BUTTER	205	n/a	-1	1	1.0	1.0	upper	../fonts/Verdana.ttf
2694214	WORD	wordpools/wasnorm_wordpool.txt	LTP082	ltpFR	5	16	-1	FLOUR	583	n/a	-1	1	1.0	1.0	upper	../fonts/Verdana.ttf
2698156	WORD	wordpools/wasnorm_wordpool.txt	LTP082	ltpFR	5	16	-1	PLAZA	1088	n/a	-1	1	1.0	1.0	upper	../fonts/Verdana.ttf
2702080	WORD	wordpools/wasnorm_wordpool.txt	LTP082	ltpFR	5	16	-1	NICOTINE	951	n/a	-1	1	1.0	1.0	upper	../fonts/Verdana.ttf
2706088	WORD	wordpools/wasnorm_wordpool.txt	LTP082	ltpFR	5	16	-1	ASH	44	n/a	-1	1	1.0	1.0	upper	../fonts/Verdana.ttf
2711980	REC_START	n/a	LTP082	ltpFR	5	16	n/a	n/a	n/a	n/a	n/a	n/a	n/a	n/a	n/a	n/a
2713551	REC_WORD	wordpools/wasnorm_wordpool.txt	LTP082	ltpFR	5	16	-1	ASH	44	n/a	-1	n/a	n/a	n/a	n/a	n/a
2715197	REC_WORD	wordpools/wasnorm_wordpool.txt	LTP082	ltpFR	5	16	-1	NICOTINE	951	n/a	-1	n/a	n/a	n/a	n/a	n/a
2717263	REC_WORD	wordpools/wasnorm_wordpool.txt	LTP082	ltpFR	5	16	-1	HANDKERCHIEF	686	n/a	-1	n/a	n/a	n/a	n/a	n/a
2732349	REC_WORD	wordpools/wasnorm_wordpool.txt	LTP082	ltpFR	5	16	-1	OINTMENT	974	n/a	-1	n/a	n/a	n/a	n/a	n/a
2733920	REC_WORD	wordpools/wasnorm_wordpool.txt	LTP082	ltpFR	5	16	-1	BASEMENT	94	n/a	-1	n/a	n/a	n/a	n/a	n/a
2735621	REC_WORD	wordpools/wasnorm_wordpool.txt	LTP082	ltpFR	5	16	-1	DRUM	502	n/a	-1	n/a	n/a	n/a	n/a	n/a
2739278	REC_WORD	wordpools/wasnorm_wordpool.txt	LTP082	ltpFR	5	16	-1	FREEZER	604	n/a	-1	n/a	n/a	n/a	n/a	n/a
2759816	REC_WORD	wordpools/wasnorm_wordpool.txt	LTP082	ltpFR	5	16	-1	NOTE	958	n/a	-1	n/a	n/a	n/a	n/a	n/a
2764705	REC_WORD	wordpools/wasnorm_wordpool.txt	LTP082	ltpFR	5	16	-1	OPERATOR	979	n/a	-1	n/a	n/a	n/a	n/a	n/a
2768686	REC_WORD	wordpools/wasnorm_wordpool.txt	LTP082	ltpFR	5	16	-1	BIRD	129	n/a	-1	n/a	n/a	n/a	n/a	n/a
2770128	REC_WORD	wordpools/wasnorm_wordpool.txt	LTP082	ltpFR	5	16	-1	CANARY	227	n/a	-1	n/a	n/a	n/a	n/a	n/a
2771899	REC_WORD	wordpools/wasnorm_wordpool.txt	LTP082	ltpFR	5	16	-1	BUN	197	n/a	-1	n/a	n/a	n/a	n/a	n/a
2807847	REC_START	n/a	LTP082	ltpFR	5	n/a	n/a	n/a	n/a	n/a	n/a	n/a	n/a	n/a	n/a	n/a
2809124	FFR_REC_WORD	wordpools/wasnorm_wordpool.txt	LTP082	ltpFR	5	n/a	0	WALNUT	1584	n/a	0	n/a	n/a	n/a	n/a	n/a
2810935	FFR_REC_WORD	wordpools/wasnorm_wordpool.txt	LTP082	ltpFR	5	n/a	0	TREE	1502	n/a	1	n/a	n/a	n/a	n/a	n/a
2812830	FFR_REC_WORD	wordpools/wasnorm_wordpool.txt	LTP082	ltpFR	5	n/a	-1	ASH	44	n/a	-1	n/a	n/a	n/a	n/a	n/a
2815754	FFR_REC_WORD	wordpools/wasnorm_wordpool.txt	LTP082	ltpFR	5	n/a	0	MAPLE	866	n/a	1	n/a	n/a	n/a	n/a	n/a
2818084	FFR_REC_WORD	wordpools/wasnorm_wordpool.txt	LTP082	ltpFR	5	n/a	0	APPLE	33	n/a	0	n/a	n/a	n/a	n/a	n/a
2819884	FFR_REC_WORD	wordpools/wasnorm_wordpool.txt	LTP082	ltpFR	5	n/a	0	BRANCH	168	n/a	1	n/a	n/a	n/a	n/a	n/a
2821805	FFR_REC_WORD	wordpools/wasnorm_wordpool.txt	LTP082	ltpFR	5	n/a	1	CUSTARD	429	n/a	0	n/a	n/a	n/a	n/a	n/a
2823561	FFR_REC_WORD	wordpools/wasnorm_wordpool.txt	LTP082	ltpFR	5	n/a	-1	WALLET	1583	n/a	-1	n/a	n/a	n/a	n/a	n/a
2825232	FFR_REC_WORD	wordpools/wasnorm_wordpool.txt	LTP082	ltpFR	5	n/a	-1	DIME	466	n/a	-1	n/a	n/a	n/a	n/a	n/a
2826933	FFR_REC_WORD	wordpools/wasnorm_wordpool.txt	LTP082	ltpFR	5	n/a	0	NICKEL	950	n/a	0	n/a	n/a	n/a	n/a	n/a
2828854	FFR_REC_WORD	wordpools/wasnorm_wordpool.txt	LTP082	ltpFR	5	n/a	0	PENNY	1045	n/a	0	n/a	n/a	n/a	n/a	n/a
2830780	FFR_REC_WORD	wordpools/wasnorm_wordpool.txt	LTP082	ltpFR	5	n/a	0	TACK	1428	n/a	0	n/a	n/a	n/a	n/a	n/a
2832326	FFR_REC_WORD	wordpools/wasnorm_wordpool.txt	LTP082	ltpFR	5	n/a	-1	CANARY	227	n/a	-1	n/a	n/a	n/a	n/a	n/a
2834182	FFR_REC_WORD	wordpools/wasnorm_wordpool.txt	LTP082	ltpFR	5	n/a	-1	BIRD	129	n/a	-1	n/a	n/a	n/a	n/a	n/a
2835988	FFR_REC_WORD	wordpools/wasnorm_wordpool.txt	LTP082	ltpFR	5	n/a	0	ELK	526	n/a	1	n/a	n/a	n/a	n/a	n/a
2837584	FFR_REC_WORD	wordpools/wasnorm_wordpool.txt	LTP082	ltpFR	5	n/a	0	EWE	542	n/a	1	n/a	n/a	n/a	n/a	n/a
2839270	FFR_REC_WORD	wordpools/wasnorm_wordpool.txt	LTP082	ltpFR	5	n/a	0	BARN	89	n/a	1	n/a	n/a	n/a	n/a	n/a
2841031	FFR_REC_WORD	wordpools/wasnorm_wordpool.txt	LTP082	ltpFR	5	n/a	0	COLT	349	n/a	1	n/a	n/a	n/a	n/a	n/a
2842742	FFR_REC_WORD	wordpools/wasnorm_wordpool.txt	LTP082	ltpFR	5	n/a	1	LIVER	833	n/a	1	n/a	n/a	n/a	n/a	n/a
2844354	FFR_REC_WORD	wordpools/wasnorm_wordpool.txt	LTP082	ltpFR	5	n/a	1	KNEE	784	n/a	1	n/a	n/a	n/a	n/a	n/a
2846215	FFR_REC_WORD	wordpools/wasnorm_wordpool.txt	LTP082	ltpFR	5	n/a	1	FLESH	579	n/a	1	n/a	n/a	n/a	n/a	n/a
2849098	FFR_REC_WORD	wordpools/wasnorm_wordpool.txt	LTP082	ltpFR	5	n/a	1	PHYSICIAN	1056	n/a	1	n/a	n/a	n/a	n/a	n/a
2853358	FFR_REC_WORD	wordpools/wasnorm_wordpool.txt	LTP082	ltpFR	5	n/a	1	SURGEON	1413	n/a	1	n/a	n/a	n/a	n/a	n/a
2855603	FFR_REC_WORD	wordpools/wasnorm_wordpool.txt	LTP082	ltpFR	5	n/a	1	GENERAL	630	n/a	1	n/a	n/a	n/a	n/a	n/a
2858272	FFR_REC_WORD	wordpools/wasnorm_wordpool.txt	LTP082	ltpFR	5	n/a	0	ORANGE	980	n/a	0	n/a	n/a	n/a	n/a	n/a
2860158	FFR_REC_WORD	wordpools/wasnorm_wordpool.txt	LTP082	ltpFR	5	n/a	0	MOSQUITO	917	n/a	0	n/a	n/a	n/a	n/a	n/a
2862373	FFR_REC_WORD	wordpools/wasnorm_wordpool.txt	LTP082	ltpFR	5	n/a	0	ANT	25	n/a	0	n/a	n/a	n/a	n/a	n/a
2865885	FFR_REC_WORD	wordpools/wasnorm_wordpool.txt	LTP082	ltpFR	5	n/a	-1	NICOTINE	951	n/a	-1	n/a	n/a	n/a	n/a	n/a
2867726	FFR_REC_WORD	wordpools/wasnorm_wordpool.txt	LTP082	ltpFR	5	n/a	-1	HANDKERCHIEF	686	n/a	-1	n/a	n/a	n/a	n/a	n/a
2871263	FFR_REC_WORD	wordpools/wasnorm_wordpool.txt	LTP082	ltpFR	5	n/a	0	BAKER	71	n/a	1	n/a	n/a	n/a	n/a	n/a
2873473	FFR_REC_WORD	wordpools/wasnorm_wordpool.txt	LTP082	ltpFR	5	n/a	1	ICING	732	n/a	0	n/a	n/a	n/a	n/a	n/a
2875088	FFR_REC_WORD	wordpools/wasnorm_wordpool.txt	LTP082	ltpFR	5	n/a	1	SPATULA	1348	n/a	0	n/a	n/a	n/a	n/a	n/a
2877179	FFR_REC_WORD	wordpools/wasnorm_wordpool.txt	LTP082	ltpFR	5	n/a	0	COOK	372	n/a	1	n/a	n/a	n/a	n/a	n/a
2883749	FFR_REC_WORD	wordpools/wasnorm_wordpool.txt	LTP082	ltpFR	5	n/a	1	GOVERNOR	651	n/a	1	n/a	n/a	n/a	n/a	n/a
2885555	FFR_REC_WORD	wordpools/wasnorm_wordpool.txt	LTP082	ltpFR	5	n/a	1	BUSH	202	n/a	0	n/a	n/a	n/a	n/a	n/a
2887356	FFR_REC_WORD	wordpools/wasnorm_wordpool.txt	LTP082	ltpFR	5	n/a	1	BEAN	105	n/a	0	n/a	n/a	n/a	n/a	n/a
2888898	FFR_REC_WORD	wordpools/wasnorm_wordpool.txt	LTP082	ltpFR	5	n/a	0	SENATOR	1268	n/a	1	n/a	n/a	n/a	n/a	n/a
2893158	FFR_REC_WORD	wordpools/wasnorm_wordpool.txt	LTP082	ltpFR	5	n/a	1	RUNNER	1218	n/a	1	n/a	n/a	n/a	n/a	n/a
2894630	FFR_REC_WORD	wordpools/wasnorm_wordpool.txt	LTP082	ltpFR	5	n/a	1	STADIUM	1364	n/a	0	n/a	n/a	n/a	n/a	n/a
2898216	FFR_REC_WORD	wordpools/wasnorm_wordpool.txt	LTP082	ltpFR	5	n/a	0	PARTNER	1017	n/a	1	n/a	n/a	n/a	n/a	n/a
2902532	FFR_REC_WORD	wordpools/wasnorm_wordpool.txt	LTP082	ltpFR	5	n/a	-1	BOSS	152	n/a	-1	n/a	n/a	n/a	n/a	n/a
2904323	FFR_REC_WORD	wordpools/wasnorm_wordpool.txt	LTP082	ltpFR	5	n/a	-1	MOUTH	926	n/a	-1	n/a	n/a	n/a	n/a	n/a
2907785	FFR_REC_WORD	wordpools/wasnorm_wordpool.txt	LTP082	ltpFR	5	n/a	1	KNEE	784	n/a	1	n/a	n/a	n/a	n/a	n/a
2912414	FFR_REC_WORD	wordpools/wasnorm_wordpool.txt	LTP082	ltpFR	5	n/a	1	LIMB	822	n/a	1	n/a	n/a	n/a	n/a	n/a
2920546	FFR_REC_WORD	wordpools/wasnorm_wordpool.txt	LTP082	ltpFR	5	n/a	1	PASTA	1021	n/a	0	n/a	n/a	n/a	n/a	n/a
2922496	FFR_REC_WORD	wordpools/wasnorm_wordpool.txt	LTP082	ltpFR	5	n/a	1	SAUCER	1237	n/a	0	n/a	n/a	n/a	n/a	n/a
2927260	FFR_REC_WORD	wordpools/wasnorm_wordpool.txt	LTP082	ltpFR	5	n/a	1	SOFTBALL	1343	n/a	0	n/a	n/a	n/a	n/a	n/a
2933920	FFR_REC_WORD	wordpools/wasnorm_wordpool.txt	LTP082	ltpFR	5	n/a	-1	FREEZER	604	n/a	-1	n/a	n/a	n/a	n/a	n/a
2935711	FFR_REC_WORD	wordpools/wasnorm_wordpool.txt	LTP082	ltpFR	5	n/a	1	REFRIGERATOR	1179	n/a	0	n/a	n/a	n/a	n/a	n/a
2942586	FFR_REC_WORD	wordpools/wasnorm_wordpool.txt	LTP082	ltpFR	5	n/a	-1	OINTMENT	974	n/a	-1	n/a	n/a	n/a	n/a	n/a
2944486	FFR_REC_WORD	wordpools/wasnorm_wordpool.txt	LTP082	ltpFR	5	n/a	-1	BASEMENT	94	n/a	-1	n/a	n/a	n/a	n/a	n/a
2946676	FFR_REC_WORD	wordpools/wasnorm_wordpool.txt	LTP082	ltpFR	5	n/a	-1	DRUM	502	n/a	-1	n/a	n/a	n/a	n/a	n/a
2948996	FFR_REC_WORD	wordpools/wasnorm_wordpool.txt	LTP082	ltpFR	5	n/a	-1	NOTE	958	n/a	-1	n/a	n/a	n/a	n/a	n/a
2955556	FFR_REC_WORD	wordpools/wasnorm_wordpool.txt	LTP082	ltpFR	5	n/a	1	NAPKIN	937	n/a	0	n/a	n/a	n/a	n/a	n/a
2960525	FFR_REC_WORD	wordpools/wasnorm_wordpool.txt	LTP082	ltpFR	5	n/a	-1	BIRD	129	n/a	-1	n/a	n/a	n/a	n/a	n/a
2962745	FFR_REC_WORD	wordpools/wasnorm_wordpool.txt	LTP082	ltpFR	5	n/a	-1	BUN	197	n/a	-1	n/a	n/a	n/a	n/a	n/a
2964401	FFR_REC_WORD	wordpools/wasnorm_wordpool.txt	LTP082	ltpFR	5	n/a	-1	CANARY	227	n/a	-1	n/a	n/a	n/a	n/a	n/a
2969754	FFR_REC_WORD	wordpools/wasnorm_wordpool.txt	LTP082	ltpFR	5	n/a	-1	TOOL	1480	n/a	-1	n/a	n/a	n/a	n/a	n/a
2977970	FFR_REC_WORD	wordpools/wasnorm_wordpool.txt	LTP082	ltpFR	5	n/a	1	TEACHER	1440	n/a	1	n/a	n/a	n/a	n/a	n/a
2997017	FFR_REC_WORD	wordpools/wasnorm_wordpool.txt	LTP082	ltpFR	5	n/a	0	GOWN	652	n/a	1	n/a	n/a	n/a	n/a	n/a
2999596	FFR_REC_WORD	wordpools/wasnorm_wordpool.txt	LTP082	ltpFR	5	n/a	1	NIGHTGOWN	953	n/a	0	n/a	n/a	n/a	n/a	n/a
3002649	FFR_REC_WORD	wordpools/wasnorm_wordpool.txt	LTP082	ltpFR	5	n/a	0	HAWK	692	n/a	1	n/a	n/a	n/a	n/a	n/a
3005074	FFR_REC_WORD	wordpools/wasnorm_wordpool.txt	LTP082	ltpFR	5	n/a	0	WALRUS	1585	n/a	1	n/a	n/a	n/a	n/a	n/a
3007787	FFR_REC_WORD	wordpools/wasnorm_wordpool.txt	LTP082	ltpFR	5	n/a	1	PORPOISE	1109	n/a	1	n/a	n/a	n/a	n/a	n/a
3009938	FFR_REC_WORD	wordpools/wasnorm_wordpool.txt	LTP082	ltpFR	5	n/a	0	OTTER	986	n/a	1	n/a	n/a	n/a	n/a	n/a
3015889	FFR_REC_WORD	wordpools/wasnorm_wordpool.txt	LTP082	ltpFR	5	n/a	0	FIELD	562	n/a	1	n/a	n/a	n/a	n/a	n/a
3017830	FFR_REC_WORD	wordpools/wasnorm_wordpool.txt	LTP082	ltpFR	5	n/a	0	MEADOW	881	n/a	1	n/a	n/a	n/a	n/a	n/a
3042099	FFR_REC_WORD	wordpools/wasnorm_wordpool.txt	LTP082	ltpFR	5	n/a	1	INMATE	738	n/a	1	n/a	n/a	n/a	n/a	n/a
3043786	FFR_REC_WORD	wordpools/wasnorm_wordpool.txt	LTP082	ltpFR	5	n/a	1	OUTLAW	989	n/a	1	n/a	n/a	n/a	n/a	n/a
3045591	FFR_REC_WORD	wordpools/wasnorm_wordpool.txt	LTP082	ltpFR	5	n/a	1	TRAY	1498	n/a	0	n/a	n/a	n/a	n/a	n/a
3047687	FFR_REC_WORD	wordpools/wasnorm_wordpool.txt	LTP082	ltpFR	5	n/a	0	BROTHER	179	n/a	1	n/a	n/a	n/a	n/a	n/a
3050251	FFR_REC_WORD	wordpools/wasnorm_wordpool.txt	LTP082	ltpFR	5	n/a	1	PERSONNEL	1053	n/a	1	n/a	n/a	n/a	n/a	n/a
3052576	FFR_REC_WORD	wordpools/wasnorm_wordpool.txt	LTP082	ltpFR	5	n/a	1	TOWN	1491	n/a	0	n/a	n/a	n/a	n/a	n/a
3054980	FFR_REC_WORD	wordpools/wasnorm_wordpool.txt	LTP082	ltpFR	5	n/a	-1	ISLAND	745	n/a	-1	n/a	n/a	n/a	n/a	n/a
3080073	FFR_REC_WORD	wordpools/wasnorm_wordpool.txt	LTP082	ltpFR	5	n/a	1	CUSTARD	429	n/a	0	n/a	n/a	n/a	n/a	n/a
3102407	FFR_REC_WORD	wordpools/wasnorm_wordpool.txt	LTP082	ltpFR	5	n/a	0	FEAST	556	n/a	1	n/a	n/a	n/a	n/a	n/a
3104173	FFR_REC_WORD	wordpools/wasnorm_wordpool.txt	LTP082	ltpFR	5	n/a	0	ANT	25	n/a	0	n/a	n/a	n/a	n/a	n/a
3105994	FFR_REC_WORD	wordpools/wasnorm_wordpool.txt	LTP082	ltpFR	5	n/a	1	COUSIN	392	n/a	1	n/a	n/a	n/a	n/a	n/a
3107700	FFR_REC_WORD_VV	wordpools/wasnorm_wordpool.txt	LTP082	ltpFR	5	n/a	n/a	<>	-1	n/a	n/a	n/a	n/a	n/a	n/a	n/a
3132449	REC_START	n/a	LTP082	ltpFR	5	1	n/a	n/a	n/a	n/a	n/a	n/a	n/a	n/a	n/a	n/a
3132481	RECOG_LURE	n/a	LTP082	ltpFR	5	1	n/a	PALM	1007	5	n/a	n/a	n/a	n/a	n/a	n/a
3136355	RECOG_RESP	n/a	LTP082	ltpFR	5	1	n/a	PALM	1007	n/a	n/a	n/a	n/a	n/a	n/a	n/a
3140635	RECOG_CONF	n/a	LTP082	ltpFR	5	1	n/a	PALM	1007	5	n/a	n/a	n/a	n/a	n/a	n/a
3142397	RECOG_TARGET	n/a	LTP082	ltpFR	5	1	0	NICKEL	950	5	0	n/a	n/a	n/a	n/a	n/a
3143763	RECOG_RESP	n/a	LTP082	ltpFR	5	1	0	NICKEL	950	n/a	0	n/a	n/a	n/a	n/a	n/a
3146332	RECOG_CONF	n/a	LTP082	ltpFR	5	1	0	NICKEL	950	5	0	n/a	n/a	n/a	n/a	n/a
3147964	RECOG_TARGET	n/a	LTP082	ltpFR	5	1	1	TEACHER	1440	4	1	n/a	n/a	n/a	n/a	n/a
3148752	RECOG_RESP	n/a	LTP082	ltpFR	5	1	1	TEACHER	1440	n/a	1	n/a	n/a	n/a	n/a	n/a
3150583	RECOG_CONF	n/a	LTP082	ltpFR	5	1	1	TEACHER	1440	4	1	n/a	n/a	n/a	n/a	n/a
3152197	RECOG_TARGET	n/a	LTP082	ltpFR	5	1	1	NAPKIN	937	5	0	n/a	n/a	n/a	n/a	n/a
3153012	RECOG_RESP	n/a	LTP082	ltpFR	5	1	1	NAPKIN	937	n/a	0	n/a	n/a	n/a	n/a	n/a
3154853	RECOG_CONF	n/a	LTP082	ltpFR	5	1	1	NAPKIN	937	5	0	n/a	n/a	n/a	n/a	n/a
3156513	RECOG_TARGET	n/a	LTP082	ltpFR	5	1	1	PHYSICIAN	1056	5	1	n/a	n/a	n/a	n/a	n/a
3157173	RECOG_RESP	n/a	LTP082	ltpFR	5	1	1	PHYSICIAN	1056	n/a	1	n/a	n/a	n/a	n/a	n/a
3158964	RECOG_CONF	n/a	LTP082	ltpFR	5	1	1	PHYSICIAN	1056	5	1	n/a	n/a	n/a	n/a	n/a
3160438	RECOG_TARGET	n/a	LTP082	ltpFR	5	1	1	DEODORANT	448	5	0	n/a	n/a	n/a	n/a	n/a
3161074	RECOG_RESP	n/a	LTP082	ltpFR	5	1	1	DEODORANT	448	n/a	0	n/a	n/a	n/a	n/a	n/a
3162954	RECOG_CONF	n/a	LTP082	ltpFR	5	1	1	DEODORANT	448	5	0	n/a	n/a	n/a	n/a	n/a
3164354	RECOG_TARGET	n/a	LTP082	ltpFR	5	1	1	SOFTBALL	1343	5	0	n/a	n/a	n/a	n/a	n/a
3164985	RECOG_RESP	n/a	LTP082	ltpFR	5	1	1	SOFTBALL	1343	n/a	0	n/a	n/a	n/a	n/a	n/a
3166816	RECOG_CONF	n/a	LTP082	ltpFR	5	1	1	SOFTBALL	1343	5	0	n/a	n/a	n/a	n/a	n/a
3168279	RECOG_TARGET	n/a	LTP082	ltpFR	5	1	-1	RICE	1190	5	-1	n/a	n/a	n/a	n/a	n/a
3168926	RECOG_RESP	n/a	LTP082	ltpFR	5	1	-1	RICE	1190	n/a	-1	n/a	n/a	n/a	n/a	n/a
3170667	RECOG_CONF	n/a	LTP082	ltpFR	5	1	-1	RICE	1190	5	-1	n/a	n/a	n/a	n/a	n/a
3172228	RECOG_TARGET	n/a	LTP082	ltpFR	5	1	0	MEADOW	881	5	1	n/a	n/a	n/a	n/a	n/a
3172832	RECOG_RESP	n/a	LTP082	ltpFR	5	1	0	MEADOW	881	n/a	1	n/a	n/a	n/a	n/a	n/a
3174608	RECOG_CONF	n/a	LTP082	ltpFR	5	1	0	MEADOW	881	5	1	n/a	n/a	n/a	n/a	n/a
3176220	RECOG_TARGET	n/a	LTP082	ltpFR	5	1	-1	DICE	461	5	-1	n/a	n/a	n/a	n/a	n/a
3176768	RECOG_RESP	n/a	LTP082	ltpFR	5	1	-1	DICE	461	n/a	-1	n/a	n/a	n/a	n/a	n/a
3179457	RECOG_CONF	n/a	LTP082	ltpFR	5	1	-1	DICE	461	5	-1	n/a	n/a	n/a	n/a	n/a
3181011	RECOG_TARGET	n/a	LTP082	ltpFR	5	1	0	HATCHET	691	5	1	n/a	n/a	n/a	n/a	n/a
3181597	RECOG_RESP	n/a	LTP082	ltpFR	5	1	0	HATCHET	691	n/a	1	n/a	n/a	n/a	n/a	n/a
3184096	RECOG_CONF	n/a	LTP082	ltpFR	5	1	0	HATCHET	691	5	1	n/a	n/a	n/a	n/a	n/a
3186519	RECOG_TARGET	n/a	LTP082	ltpFR	5	1	1	HOME	712	5	0	n/a	n/a	n/a	n/a	n/a
3187309	RECOG_RESP	n/a	LTP082	ltpFR	5	1	1	HOME	712	n/a	0	n/a	n/a	n/a	n/a	n/a
3189045	RECOG_CONF	n/a	LTP082	ltpFR	5	1	1	HOME	712	5	0	n/a	n/a	n/a	n/a	n/a
3190826	RECOG_TARGET	n/a	LTP082	ltpFR	5	1	0	SAGE	1222	5	0	n/a	n/a	n/a	n/a	n/a
3191420	RECOG_RESP	n/a	LTP082	ltpFR	5	1	0	SAGE	1222	n/a	0	n/a	n/a	n/a	n/a	n/a
3193296	RECOG_CONF	n/a	LTP082	ltpFR	5	1	0	SAGE	1222	5	0	n/a	n/a	n/a	n/a	n/a
3194985	RECOG_TARGET	n/a	LTP082	ltpFR	5	1	1	COUSIN	392	5	1	n/a	n/a	n/a	n/a	n/a
3195570	RECOG_RESP	n/a	LTP082	ltpFR	5	1	1	COUSIN	392	n/a	1	n/a	n/a	n/a	n/a	n/a
3197416	RECOG_CONF	n/a	LTP082	ltpFR	5	1	1	COUSIN	392	5	1	n/a	n/a	n/a	n/a	n/a
3198892	RECOG_TARGET	n/a	LTP082	ltpFR	5	1	0	JEEP	753	5	1	n/a	n/a	n/a	n/a	n/a
3199491	RECOG_RESP	n/a	LTP082	ltpFR	5	1	0	JEEP	753	n/a	1	n/a	n/a	n/a	n/a	n/a
3201317	RECOG_CONF	n/a	LTP082	ltpFR	5	1	0	JEEP	753	5	1	n/a	n/a	n/a	n/a	n/a
3203635	RECOG_TARGET	n/a	LTP082	ltpFR	5	1	0	ELK	526	5	1	n/a	n/a	n/a	n/a	n/a
3204221	RECOG_RESP	n/a	LTP082	ltpFR	5	1	0	ELK	526	n/a	1	n/a	n/a	n/a	n/a	n/a
3205937	RECOG_CONF	n/a	LTP082	ltpFR	5	1	0	ELK	526	5	1	n/a	n/a	n/a	n/a	n/a
3207384	RECOG_TARGET	n/a	LTP082	ltpFR	5	1	0	TOMATO	1476	2	0	n/a	n/a	n/a	n/a	n/a
3208391	RECOG_RESP	n/a	LTP082	ltpFR	5	1	0	TOMATO	1476	n/a	0	n/a	n/a	n/a	n/a	n/a
3210506	RECOG_CONF	n/a	LTP082	ltpFR	5	1	0	TOMATO	1476	2	0	n/a	n/a	n/a	n/a	n/a
3212000	RECOG_LURE	n/a	LTP082	ltpFR	5	1	n/a	RUST	1219	3	n/a	n/a	n/a	n/a	n/a	n/a
3212756	RECOG_RESP	n/a	LTP082	ltpFR	5	1	n/a	RUST	1219	n/a	n/a	n/a	n/a	n/a	n/a	n/a
3214747	RECOG_CONF	n/a	LTP082	ltpFR	5	1	n/a	RUST	1219	3	n/a	n/a	n/a	n/a	n/a	n/a
3216284	RECOG_TARGET	n/a	LTP082	ltpFR	5	1	1	SPATULA	1348	5	0	n/a	n/a	n/a	n/a	n/a
3216827	RECOG_RESP	n/a	LTP082	ltpFR	5	1	1	SPATULA	1348	n/a	0	n/a	n/a	n/a	n/a	n/a
3218708	RECOG_CONF	n/a	LTP082	ltpFR	5	1	1	SPATULA	1348	5	0	n/a	n/a	n/a	n/a	n/a
3220467	RECOG_TARGET	n/a	LTP082	ltpFR	5	1	-1	CABINET	212	5	-1	n/a	n/a	n/a	n/a	n/a
3220973	RECOG_RESP	n/a	LTP082	ltpFR	5	1	-1	CABINET	212	n/a	-1	n/a	n/a	n/a	n/a	n/a
3222779	RECOG_CONF	n/a	LTP082	ltpFR	5	1	-1	CABINET	212	5	-1	n/a	n/a	n/a	n/a	n/a
3228090	REC_START	n/a	LTP082	ltpFR	5	2	n/a	n/a	n/a	n/a	n/a	n/a	n/a	n/a	n/a	n/a
3228124	RECOG_LURE	n/a	LTP082	ltpFR	5	2	n/a	WINNER	1615	5	n/a	n/a	n/a	n/a	n/a	n/a
3229008	RECOG_RESP	n/a	LTP082	ltpFR	5	2	n/a	WINNER	1615	n/a	n/a	n/a	n/a	n/a	n/a	n/a
3230689	RECOG_CONF	n/a	LTP082	ltpFR	5	2	n/a	WINNER	1615	5	n/a	n/a	n/a	n/a	n/a	n/a
3232149	RECOG_LURE	n/a	LTP082	ltpFR	5	2	n/a	MICROSCOPE	891	5	n/a	n/a	n/a	n/a	n/a	n/a
3233093	RECOG_RESP	n/a	LTP082	ltpFR	5	2	n/a	MICROSCOPE	891	n/a	n/a	n/a	n/a	n/a	n/a	n/a
3234989	RECOG_CONF	n/a	LTP082	ltpFR	5	2	n/a	MICROSCOPE	891	5	n/a	n/a	n/a	n/a	n/a	n/a
3236432	RECOG_LURE	n/a	LTP082	ltpFR	5	2	n/a	ELF	525	5	n/a	n/a	n/a	n/a	n/a	n/a
3237194	RECOG_RESP	n/a	LTP082	ltpFR	5	2	n/a	ELF	525	n/a	n/a	n/a	n/a	n/a	n/a	n/a
3239329	RECOG_CONF	n/a	LTP082	ltpFR	5	2	n/a	ELF	525	5	n/a	n/a	n/a	n/a	n/a	n/a
3240864	RECOG_LURE	n/a	LTP082	ltpFR	5	2	n/a	STOCKING	1383	5	n/a	n/a	n/a	n/a	n/a	n/a
3241564	RECOG_RESP	n/a	LTP082	ltpFR	5	2	n/a	STOCKING	1383	n/a	n/a	n/a	n/a	n/a	n/a	n/a
3243420	RECOG_CONF	n/a	LTP082	ltpFR	5	2	n/a	STOCKING	1383	5	n/a	n/a	n/a	n/a	n/a	n/a
3244830	RECOG_TARGET	n/a	LTP082	ltpFR	5	2	1	SADDLE	1221	5	0	n/a	n/a	n/a	n/a	n/a
3245515	RECOG_RESP	n/a	LTP082	ltpFR	5	2	1	SADDLE	1221	n/a	0	n/a	n/a	n/a	n/a	n/a
3247291	RECOG_CONF	n/a	LTP082	ltpFR	5	2	1	SADDLE	1221	5	0	n/a	n/a	n/a	n/a	n/a
3248706	RECOG_TARGET	n/a	LTP082	ltpFR	5	2	-1	OINTMENT	974	5	-1	n/a	n/a	n/a	n/a	n/a
3249282	RECOG_RESP	n/a	LTP082	ltpFR	5	2	-1	OINTMENT	974	n/a	-1	n/a	n/a	n/a	n/a	n/a
3251043	RECOG_CONF	n/a	LTP082	ltpFR	5	2	-1	OINTMENT	974	5	-1	n/a	n/a	n/a	n/a	n/a
3252481	RECOG_LURE	n/a	LTP082	ltpFR	5	2	n/a	LIPSTICK	829	5	n/a	n/a	n/a	n/a	n/a	n/a
3253173	RECOG_RESP	n/a	LTP082	ltpFR	5	2	n/a	LIPSTICK	829	n/a	n/a	n/a	n/a	n/a	n/a	n/a
3254924	RECOG_CONF	n/a	LTP082	ltpFR	5	2	n/a	LIPSTICK	829	5	n/a	n/a	n/a	n/a	n/a	n/a
3256289	RECOG_TARGET	n/a	LTP082	ltpFR	5	2	0	COOK	372	5	1	n/a	n/a	n/a	n/a	n/a
3256894	RECOG_RESP	n/a	LTP082	ltpFR	5	2	0	COOK	372	n/a	1	n/a	n/a	n/a	n/a	n/a
3258795	RECOG_CONF	n/a	LTP082	ltpFR	5	2	0	COOK	372	5	1	n/a	n/a	n/a	n/a	n/a
3260305	RECOG_TARGET	n/a	LTP082	ltpFR	5	2	0	BENCH	121	5	1	n/a	n/a	n/a	n/a	n/a
3261065	RECOG_RESP_VV	n/a	LTP082	ltpFR	5	2	0	BENCH	121	n/a	1	n/a	n/a	n/a	n/a	n/a
3262068	RECOG_RESP	n/a	LTP082	ltpFR	5	2	0	BENCH	121	n/a	1	n/a	n/a	n/a	n/a	n/a
3263873	RECOG_CONF	n/a	LTP082	ltpFR	5	2	0	BENCH	121	5	1	n/a	n/a	n/a	n/a	n/a
3265338	RECOG_TARGET	n/a	LTP082	ltpFR	5	2	-1	HARE	688	5	-1	n/a	n/a	n/a	n/a	n/a
3265919	RECOG_RESP	n/a	LTP082	ltpFR	5	2	-1	HARE	688	n/a	-1	n/a	n/a	n/a	n/a	n/a
3267815	RECOG_CONF	n/a	LTP082	ltpFR	5	2	-1	HARE	688	5	-1	n/a	n/a	n/a	n/a	n/a
3269430	RECOG_TARGET	n/a	LTP082	ltpFR	5	2	0	CELLO	268	5	1	n/a	n/a	n/a	n/a	n/a
3269995	RECOG_RESP	n/a	LTP082	ltpFR	5	2	0	CELLO	268	n/a	1	n/a	n/a	n/a	n/a	n/a
3271716	RECOG_CONF	n/a	LTP082	ltpFR	5	2	0	CELLO	268	5	1	n/a	n/a	n/a	n/a	n/a
3273221	RECOG_LURE	n/a	LTP082	ltpFR	5	2	n/a	TAR	1435	5	n/a	n/a	n/a	n/a	n/a	n/a
3273891	RECOG_RESP	n/a	LTP082	ltpFR	5	2	n/a	TAR	1435	n/a	n/a	n/a	n/a	n/a	n/a	n/a
3275567	RECOG_CONF	n/a	LTP082	ltpFR	5	2	n/a	TAR	1435	5	n/a	n/a	n/a	n/a	n/a	n/a
3276979	RECOG_TARGET	n/a	LTP082	ltpFR	5	2	-1	NOTE	958	5	-1	n/a	n/a	n/a	n/a	n/a
3277512	RECOG_RESP	n/a	LTP082	ltpFR	5	2	-1	NOTE	958	n/a	-1	n/a	n/a	n/a	n/a	n/a
3279418	RECOG_CONF	n/a	LTP082	ltpFR	5	2	-1	NOTE	958	5	-1	n/a	n/a	n/a	n/a	n/a
3280878	RECOG_TARGET	n/a	LTP082	ltpFR	5	2	1	BEAST	108	5	1	n/a	n/a	n/a	n/a	n/a
3281444	RECOG_RESP	n/a	LTP082	ltpFR	5	2	1	BEAST	108	n/a	1	n/a	n/a	n/a	n/a	n/a
3283200	RECOG_CONF	n/a	LTP082	ltpFR	5	2	1	BEAST	108	5	1	n/a	n/a	n/a	n/a	n/a
3284812	RECOG_TARGET	n/a	LTP082	ltpFR	5	2	1	TOWN	1491	5	0	n/a	n/a	n/a	n/a	n/a
3285395	RECOG_RESP	n/a	LTP082	ltpFR	5	2	1	TOWN	1491	n/a	0	n/a	n/a	n/a	n/a	n/a
3287260	RECOG_CONF	n/a	LTP082	ltpFR	5	2	1	TOWN	1491	5	0	n/a	n/a	n/a	n/a	n/a
3288670	RECOG_TARGET	n/a	LTP082	ltpFR	5	2	-1	BISON	131	5	-1	n/a	n/a	n/a	n/a	n/a
3289246	RECOG_RESP	n/a	LTP082	ltpFR	5	2	-1	BISON	131	n/a	-1	n/a	n/a	n/a	n/a	n/a
3290982	RECOG_CONF	n/a	LTP082	ltpFR	5	2	-1	BISON	131	5	-1	n/a	n/a	n/a	n/a	n/a
3292486	RECOG_TARGET	n/a	LTP082	ltpFR	5	2	1	GENERAL	630	5	1	n/a	n/a	n/a	n/a	n/a
3293047	RECOG_RESP	n/a	LTP082	ltpFR	5	2	1	GENERAL	630	n/a	1	n/a	n/a	n/a	n/a	n/a
3294793	RECOG_CONF	n/a	LTP082	ltpFR	5	2	1	GENERAL	630	5	1	n/a	n/a	n/a	n/a	n/a
3296286	RECOG_TARGET	n/a	LTP082	ltpFR	5	2	0	BUCKET	184	5	n/a	n/a	n/a	n/a	n/a	n/a
3296834	RECOG_RESP	n/a	LTP082	ltpFR	5	2	0	BUCKET	184	n/a	n/a	n/a	n/a	n/a	n/a	n/a
3298634	RECOG_CONF	n/a	LTP082	ltpFR	5	2	0	BUCKET	184	5	n/a	n/a	n/a	n/a	n/a	n/a
3300036	RECOG_TARGET	n/a	LTP082	ltpFR	5	2	-1	TORCH	1484	5	-1	n/a	n/a	n/a	n/a	n/a
3300680	RECOG_RESP	n/a	LTP082	ltpFR	5	2	-1	TORCH	1484	n/a	-1	n/a	n/a	n/a	n/a	n/a
3302396	RECOG_CONF	n/a	LTP082	ltpFR	5	2	-1	TORCH	1484	5	-1	n/a	n/a	n/a	n/a	n/a
3303785	RECOG_TARGET	n/a	LTP082	ltpFR	5	2	1	SCARF	1246	5	0	n/a	n/a	n/a	n/a	n/a
3304361	RECOG_RESP	n/a	LTP082	ltpFR	5	2	1	SCARF	1246	n/a	0	n/a	n/a	n/a	n/a	n/a
3306197	RECOG_CONF	n/a	LTP082	ltpFR	5	2	1	SCARF	1246	5	0	n/a	n/a	n/a	n/a	n/a
3310461	REC_START	n/a	LTP082	ltpFR	5	3	n/a	n/a	n/a	n/a	n/a	n/a	n/a	n/a	n/a	n/a
3310493	RECOG_TARGET	n/a	LTP082	ltpFR	5	3	0	GARBAGE	622	5	1	n/a	n/a	n/a	n/a	n/a
3311164	RECOG_RESP	n/a	LTP082	ltpFR	5	3	0	GARBAGE	622	n/a	1	n/a	n/a	n/a	n/a	n/a
3312820	RECOG_CONF	n/a	LTP082	ltpFR	5	3	0	GARBAGE	622	5	1	n/a	n/a	n/a	n/a	n/a
3314260	RECOG_TARGET	n/a	LTP082	ltpFR	5	3	0	BRAN	167	5	0	n/a	n/a	n/a	n/a	n/a
3314886	RECOG_RESP	n/a	LTP082	ltpFR	5	3	0	BRAN	167	n/a	0	n/a	n/a	n/a	n/a	n/a
3316492	RECOG_CONF	n/a	LTP082	ltpFR	5	3	0	BRAN	167	5	0	n/a	n/a	n/a	n/a	n/a
3318109	RECOG_LURE	n/a	LTP082	ltpFR	5	3	n/a	TRICYCLE	1506	4	n/a	n/a	n/a	n/a	n/a	n/a
3318887	RECOG_RESP	n/a	LTP082	ltpFR	5	3	n/a	TRICYCLE	1506	n/a	n/a	n/a	n/a	n/a	n/a	n/a
3320613	RECOG_CONF	n/a	LTP082	ltpFR	5	3	n/a	TRICYCLE	1506	4	n/a	n/a	n/a	n/a	n/a	n/a
3322034	RECOG_LURE	n/a	LTP082	ltpFR	5	3	n/a	MONUMENT	913	5	n/a	n/a	n/a	n/a	n/a	n/a
3322848	RECOG_RESP	n/a	LTP082	ltpFR	5	3	n/a	MONUMENT	913	n/a	n/a	n/a	n/a	n/a	n/a	n/a
3324474	RECOG_CONF	n/a	LTP082	ltpFR	5	3	n/a	MONUMENT	913	5	n/a	n/a	n/a	n/a	n/a	n/a
3325858	RECOG_TARGET	n/a	LTP082	ltpFR	5	3	1	ANIMAL	23	5	1	n/a	n/a	n/a	n/a	n/a
3326459	RECOG_RESP	n/a	LTP082	ltpFR	5	3	1	ANIMAL	23	n/a	1	n/a	n/a	n/a	n/a	n/a
3328136	RECOG_CONF	n/a	LTP082	ltpFR	5	3	1	ANIMAL	23	5	1	n/a	n/a	n/a	n/a	n/a
3329617	RECOG_TARGET	n/a	LTP082	ltpFR	5	3	-1	AIRPORT	13	5	-1	n/a	n/a	n/a	n/a	n/a
3330291	RECOG_RESP	n/a	LTP082	ltpFR	5	3	-1	AIRPORT	13	n/a	-1	n/a	n/a	n/a	n/a	n/a
3332017	RECOG_CONF	n/a	LTP082	ltpFR	5	3	-1	AIRPORT	13	5	-1	n/a	n/a	n/a	n/a	n/a
3333483	RECOG_TARGET	n/a	LTP082	ltpFR	5	3	-1	SWAN	1417	5	-1	n/a	n/a	n/a	n/a	n/a
3334137	RECOG_RESP	n/a	LTP082	ltpFR	5	3	-1	SWAN	1417	n/a	-1	n/a	n/a	n/a	n/a	n/a
3335838	RECOG_CONF	n/a	LTP082	ltpFR	5	3	-1	SWAN	1417	5	-1	n/a	n/a	n/a	n/a	n/a
3337249	RECOG_TARGET	n/a	LTP082	ltpFR	5	3	-1	CUSTOMER	430	5	-1	n/a	n/a	n/a	n/a	n/a
3337779	RECOG_RESP	n/a	LTP082	ltpFR	5	3	-1	CUSTOMER	430	n/a	-1	n/a	n/a	n/a	n/a	n/a
3339510	RECOG_CONF	n/a	LTP082	ltpFR	5	3	-1	CUSTOMER	430	5	-1	n/a	n/a	n/a	n/a	n/a
3340923	RECOG_TARGET	n/a	LTP082	ltpFR	5	3	-1	DIME	466	5	-1	n/a	n/a	n/a	n/a	n/a
3341435	RECOG_RESP	n/a	LTP082	ltpFR	5	3	-1	DIME	466	n/a	-1	n/a	n/a	n/a	n/a	n/a
3343231	RECOG_CONF	n/a	LTP082	ltpFR	5	3	-1	DIME	466	5	-1	n/a	n/a	n/a	n/a	n/a
3344549	RECOG_TARGET	n/a	LTP082	ltpFR	5	3	0	SENATOR	1268	5	1	n/a	n/a	n/a	n/a	n/a
3345117	RECOG_RESP	n/a	LTP082	ltpFR	5	3	0	SENATOR	1268	n/a	1	n/a	n/a	n/a	n/a	n/a
3347013	RECOG_CONF	n/a	LTP082	ltpFR	5	3	0	SENATOR	1268	5	1	n/a	n/a	n/a	n/a	n/a
3348399	RECOG_TARGET	n/a	LTP082	ltpFR	5	3	-1	DOOR	486	5	-1	n/a	n/a	n/a	n/a	n/a
3348878	RECOG_RESP	n/a	LTP082	ltpFR	5	3	-1	DOOR	486	n/a	-1	n/a	n/a	n/a	n/a	n/a
3350694	RECOG_CONF	n/a	LTP082	ltpFR	5	3	-1	DOOR	486	5	-1	n/a	n/a	n/a	n/a	n/a
3353432	RECOG_LURE	n/a	LTP082	ltpFR	5	3	n/a	PICKLE	1059	5	n/a	n/a	n/a	n/a	n/a	n/a
3354137	RECOG_RESP	n/a	LTP082	ltpFR	5	3	n/a	PICKLE	1059	n/a	n/a	n/a	n/a	n/a	n/a	n/a
3355863	RECOG_CONF	n/a	LTP082	ltpFR	5	3	n/a	PICKLE	1059	5	n/a	n/a	n/a	n/a	n/a	n/a
3357864	RECOG_TARGET	n/a	LTP082	ltpFR	5	3	0	CAPITAL	238	5	1	n/a	n/a	n/a	n/a	n/a
3358497	RECOG_RESP	n/a	LTP082	ltpFR	5	3	0	CAPITAL	238	n/a	1	n/a	n/a	n/a	n/a	n/a
3360492	RECOG_CONF	n/a	LTP082	ltpFR	5	3	0	CAPITAL	238	5	1	n/a	n/a	n/a	n/a	n/a
3362089	RECOG_TARGET	n/a	LTP082	ltpFR	5	3	1	SKIRT	1319	5	0	n/a	n/a	n/a	n/a	n/a
3362707	RECOG_RESP	n/a	LTP082	ltpFR	5	3	1	SKIRT	1319	n/a	0	n/a	n/a	n/a	n/a	n/a
3366568	RECOG_CONF	n/a	LTP082	ltpFR	5	3	1	SKIRT	1319	5	0	n/a	n/a	n/a	n/a	n/a
3368272	RECOG_TARGET	n/a	LTP082	ltpFR	5	3	1	LIVER	833	5	1	n/a	n/a	n/a	n/a	n/a
3368843	RECOG_RESP_VV	n/a	LTP082	ltpFR	5	3	1	LIVER	833	n/a	1	n/a	n/a	n/a	n/a	n/a
3369477	RECOG_RESP	n/a	LTP082	ltpFR	5	3	1	LIVER	833	n/a	1	n/a	n/a	n/a	n/a	n/a
3371577	RECOG_CONF	n/a	LTP082	ltpFR	5	3	1	LIVER	833	5	1	n/a	n/a	n/a	n/a	n/a
3373089	RECOG_TARGET	n/a	LTP082	ltpFR	5	3	0	SCROLL	1257	5	0	n/a	n/a	n/a	n/a	n/a
3373592	RECOG_RESP	n/a	LTP082	ltpFR	5	3	0	SCROLL	1257	n/a	0	n/a	n/a	n/a	n/a	n/a
3375777	RECOG_CONF	n/a	LTP082	ltpFR	5	3	0	SCROLL	1257	5	0	n/a	n/a	n/a	n/a	n/a
3377355	RECOG_TARGET	n/a	LTP082	ltpFR	5	3	0	TACK	1428	5	0	n/a	n/a	n/a	n/a	n/a
3377893	RECOG_RESP	n/a	LTP082	ltpFR	5	3	0	TACK	1428	n/a	0	n/a	n/a	n/a	n/a	n/a
3379848	RECOG_CONF	n/a	LTP082	ltpFR	5	3	0	TACK	1428	5	0	n/a	n/a	n/a	n/a	n/a
3381229	RECOG_TARGET	n/a	LTP082	ltpFR	5	3	0	JUG	762	5	1	n/a	n/a	n/a	n/a	n/a
3381794	RECOG_RESP	n/a	LTP082	ltpFR	5	3	0	JUG	762	n/a	1	n/a	n/a	n/a	n/a	n/a
3383640	RECOG_CONF	n/a	LTP082	ltpFR	5	3	0	JUG	762	5	1	n/a	n/a	n/a	n/a	n/a
3385071	RECOG_TARGET	n/a	LTP082	ltpFR	5	3	-1	CANARY	227	5	-1	n/a	n/a	n/a	n/a	n/a
3385620	RECOG_RESP	n/a	LTP082	ltpFR	5	3	-1	CANARY	227	n/a	-1	n/a	n/a	n/a	n/a	n/a
3387391	RECOG_CONF	n/a	LTP082	ltpFR	5	3	-1	CANARY	227	5	-1	n/a	n/a	n/a	n/a	n/a
3388820	RECOG_TARGET	n/a	LTP082	ltpFR	5	3	-1	DIRECTOR	471	3	-1	n/a	n/a	n/a	n/a	n/a
3389342	RECOG_RESP	n/a	LTP082	ltpFR	5	3	-1	DIRECTOR	471	n/a	-1	n/a	n/a	n/a	n/a	n/a
3391721	RECOG_CONF	n/a	LTP082	ltpFR	5	3	-1	DIRECTOR	471	3	-1	n/a	n/a	n/a	n/a	n/a
3399428	REC_START	n/a	LTP082	ltpFR	5	4	n/a	n/a	n/a	n/a	n/a	n/a	n/a	n/a	n/a	n/a
3399461	RECOG_TARGET	n/a	LTP082	ltpFR	5	4	0	HAY	693	5	0	n/a	n/a	n/a	n/a	n/a
3400076	RECOG_RESP	n/a	LTP082	ltpFR	5	4	0	HAY	693	n/a	0	n/a	n/a	n/a	n/a	n/a
3401777	RECOG_CONF	n/a	LTP082	ltpFR	5	4	0	HAY	693	5	0	n/a	n/a	n/a	n/a	n/a
3403228	RECOG_LURE	n/a	LTP082	ltpFR	5	4	n/a	MITTEN	902	5	n/a	n/a	n/a	n/a	n/a	n/a
3403848	RECOG_RESP	n/a	LTP082	ltpFR	5	4	n/a	MITTEN	902	n/a	n/a	n/a	n/a	n/a	n/a	n/a
3405589	RECOG_CONF	n/a	LTP082	ltpFR	5	4	n/a	MITTEN	902	5	n/a	n/a	n/a	n/a	n/a	n/a
3406994	RECOG_TARGET	n/a	LTP082	ltpFR	5	4	0	LEOPARD	812	5	1	n/a	n/a	n/a	n/a	n/a
3407734	RECOG_RESP	n/a	LTP082	ltpFR	5	4	0	LEOPARD	812	n/a	1	n/a	n/a	n/a	n/a	n/a
3409370	RECOG_CONF	n/a	LTP082	ltpFR	5	4	0	LEOPARD	812	5	1	n/a	n/a	n/a	n/a	n/a
3410860	RECOG_TARGET	n/a	LTP082	ltpFR	5	4	1	TEA	1439	5	0	n/a	n/a	n/a	n/a	n/a
3411480	RECOG_RESP	n/a	LTP082	ltpFR	5	4	1	TEA	1439	n/a	0	n/a	n/a	n/a	n/a	n/a
3413371	RECOG_CONF	n/a	LTP082	ltpFR	5	4	1	TEA	1439	5	0	n/a	n/a	n/a	n/a	n/a
3416352	RECOG_TARGET	n/a	LTP082	ltpFR	5	4	0	MAPLE	866	5	1	n/a	n/a	n/a	n/a	n/a
3416923	RECOG_RESP	n/a	LTP082	ltpFR	5	4	0	MAPLE	866	n/a	1	n/a	n/a	n/a	n/a	n/a
3418759	RECOG_CONF	n/a	LTP082	ltpFR	5	4	0	MAPLE	866	5	1	n/a	n/a	n/a	n/a	n/a
3420243	RECOG_LURE	n/a	LTP082	ltpFR	5	4	n/a	ANTENNA	28	4	n/a	n/a	n/a	n/a	n/a	n/a
3420884	RECOG_RESP	n/a	LTP082	ltpFR	5	4	n/a	ANTENNA	28	n/a	n/a	n/a	n/a	n/a	n/a	n/a
3422680	RECOG_CONF	n/a	LTP082	ltpFR	5	4	n/a	ANTENNA	28	4	n/a	n/a	n/a	n/a	n/a	n/a
3424151	RECOG_TARGET	n/a	LTP082	ltpFR	5	4	0	WALNUT	1584	5	0	n/a	n/a	n/a	n/a	n/a
3424695	RECOG_RESP	n/a	LTP082	ltpFR	5	4	0	WALNUT	1584	n/a	0	n/a	n/a	n/a	n/a	n/a
3426491	RECOG_CONF	n/a	LTP082	ltpFR	5	4	0	WALNUT	1584	5	0	n/a	n/a	n/a	n/a	n/a
3427908	RECOG_TARGET	n/a	LTP082	ltpFR	5	4	1	SODA	1341	4	0	n/a	n/a	n/a	n/a	n/a
3429195	RECOG_RESP	n/a	LTP082	ltpFR	5	4	1	SODA	1341	n/a	0	n/a	n/a	n/a	n/a	n/a
3430941	RECOG_CONF	n/a	LTP082	ltpFR	5	4	1	SODA	1341	4	0	n/a	n/a	n/a	n/a	n/a
3432392	RECOG_TARGET	n/a	LTP082	ltpFR	5	4	0	KING	777	4	1	n/a	n/a	n/a	n/a	n/a
3433016	RECOG_RESP	n/a	LTP082	ltpFR	5	4	0	KING	777	n/a	1	n/a	n/a	n/a	n/a	n/a
3434802	RECOG_CONF	n/a	LTP082	ltpFR	5	4	0	KING	777	4	1	n/a	n/a	n/a	n/a	n/a
3436300	RECOG_TARGET	n/a	LTP082	ltpFR	5	4	1	MAILMAN	858	5	1	n/a	n/a	n/a	n/a	n/a
3436898	RECOG_RESP	n/a	LTP082	ltpFR	5	4	1	MAILMAN	858	n/a	1	n/a	n/a	n/a	n/a	n/a
3438913	RECOG_CONF	n/a	LTP082	ltpFR	5	4	1	MAILMAN	858	5	1	n/a	n/a	n/a	n/a	n/a
3440508	RECOG_LURE	n/a	LTP082	ltpFR	5	4	n/a	SUNSET	1408	4	n/a	n/a	n/a	n/a	n/a	n/a
3441168	RECOG_RESP	n/a	LTP082	ltpFR	5	4	n/a	SUNSET	1408	n/a	n/a	n/a	n/a	n/a	n/a	n/a
3442774	RECOG_CONF	n/a	LTP082	ltpFR	5	4	n/a	SUNSET	1408	4	n/a	n/a	n/a	n/a	n/a	n/a
3444200	RECOG_TARGET	n/a	LTP082	ltpFR	5	4	1	HOSTAGE	722	5	1	n/a	n/a	n/a	n/a	n/a
3444790	RECOG_RESP	n/a	LTP082	ltpFR	5	4	1	HOSTAGE	722	n/a	1	n/a	n/a	n/a	n/a	n/a
3446446	RECOG_CONF	n/a	LTP082	ltpFR	5	4	1	HOSTAGE	722	5	1	n/a	n/a	n/a	n/a	n/a
3447924	RECOG_TARGET	n/a	LTP082	ltpFR	5	4	-1	BUTTER	205	5	-1	n/a	n/a	n/a	n/a	n/a
3448511	RECOG_RESP	n/a	LTP082	ltpFR	5	4	-1	BUTTER	205	n/a	-1	n/a	n/a	n/a	n/a	n/a
3450158	RECOG_CONF	n/a	LTP082	ltpFR	5	4	-1	BUTTER	205	5	-1	n/a	n/a	n/a	n/a	n/a
3451658	RECOG_TARGET	n/a	LTP082	ltpFR	5	4	1	DAISY	435	5	1	n/a	n/a	n/a	n/a	n/a
3452328	RECOG_RESP	n/a	LTP082	ltpFR	5	4	1	DAISY	435	n/a	1	n/a	n/a	n/a	n/a	n/a
3454138	RECOG_CONF	n/a	LTP082	ltpFR	5	4	1	DAISY	435	5	1	n/a	n/a	n/a	n/a	n/a
3455549	RECOG_TARGET	n/a	LTP082	ltpFR	5	4	-1	BUN	197	5	-1	n/a	n/a	n/a	n/a	n/a
3456144	RECOG_RESP	n/a	LTP082	ltpFR	5	4	-1	BUN	197	n/a	-1	n/a	n/a	n/a	n/a	n/a
3457910	RECOG_CONF	n/a	LTP082	ltpFR	5	4	-1	BUN	197	5	-1	n/a	n/a	n/a	n/a	n/a
3459240	RECOG_TARGET	n/a	LTP082	ltpFR	5	4	-1	BIRD	129	5	-1	n/a	n/a	n/a	n/a	n/a
3459806	RECOG_RESP	n/a	LTP082	ltpFR	5	4	-1	BIRD	129	n/a	-1	n/a	n/a	n/a	n/a	n/a
3461552	RECOG_CONF	n/a	LTP082	ltpFR	5	4	-1	BIRD	129	5	-1	n/a	n/a	n/a	n/a	n/a
3463115	RECOG_TARGET	n/a	LTP082	ltpFR	5	4	1	COMMANDER	354	5	1	n/a	n/a	n/a	n/a	n/a
3463667	RECOG_RESP	n/a	LTP082	ltpFR	5	4	1	COMMANDER	354	n/a	1	n/a	n/a	n/a	n/a	n/a
3465383	RECOG_CONF	n/a	LTP082	ltpFR	5	4	1	COMMANDER	354	5	1	n/a	n/a	n/a	n/a	n/a
3466723	RECOG_TARGET	n/a	LTP082	ltpFR	5	4	1	ROBE	1198	5	0	n/a	n/a	n/a	n/a	n/a
3467328	RECOG_RESP	n/a	LTP082	ltpFR	5	4	1	ROBE	1198	n/a	0	n/a	n/a	n/a	n/a	n/a
3468925	RECOG_CONF	n/a	LTP082	ltpFR	5	4	1	ROBE	1198	5	0	n/a	n/a	n/a	n/a	n/a
3470365	RECOG_TARGET	n/a	LTP082	ltpFR	5	4	1	CABBAGE	210	5	1	n/a	n/a	n/a	n/a	n/a
3470900	RECOG_RESP	n/a	LTP082	ltpFR	5	4	1	CABBAGE	210	n/a	1	n/a	n/a	n/a	n/a	n/a
3472577	RECOG_CONF	n/a	LTP082	ltpFR	5	4	1	CABBAGE	210	5	1	n/a	n/a	n/a	n/a	n/a
3475896	RECOG_LURE	n/a	LTP082	ltpFR	5	4	n/a	SURVEY	1414	4	n/a	n/a	n/a	n/a	n/a	n/a
3476553	RECOG_RESP	n/a	LTP082	ltpFR	5	4	n/a	SURVEY	1414	n/a	n/a	n/a	n/a	n/a	n/a	n/a
3478194	RECOG_CONF	n/a	LTP082	ltpFR	5	4	n/a	SURVEY	1414	4	n/a	n/a	n/a	n/a	n/a	n/a
3485216	REC_START	n/a	LTP082	ltpFR	5	5	n/a	n/a	n/a	n/a	n/a	n/a	n/a	n/a	n/a	n/a
3485247	RECOG_TARGET	n/a	LTP082	ltpFR	5	5	0	GOWN	652	5	1	n/a	n/a	n/a	n/a	n/a
3485809	RECOG_RESP	n/a	LTP082	ltpFR	5	5	0	GOWN	652	n/a	1	n/a	n/a	n/a	n/a	n/a
3487426	RECOG_CONF	n/a	LTP082	ltpFR	5	5	0	GOWN	652	5	1	n/a	n/a	n/a	n/a	n/a
3488904	RECOG_TARGET	n/a	LTP082	ltpFR	5	5	0	BROTHER	179	5	1	n/a	n/a	n/a	n/a	n/a
3489487	RECOG_RESP	n/a	LTP082	ltpFR	5	5	0	BROTHER	179	n/a	1	n/a	n/a	n/a	n/a	n/a
3491287	RECOG_CONF	n/a	LTP082	ltpFR	5	5	0	BROTHER	179	5	1	n/a	n/a	n/a	n/a	n/a
3492705	RECOG_TARGET	n/a	LTP082	ltpFR	5	5	0	ORANGE	980	5	0	n/a	n/a	n/a	n/a	n/a
3493312	RECOG_RESP	n/a	LTP082	ltpFR	5	5	0	ORANGE	980	n/a	0	n/a	n/a	n/a	n/a	n/a
3495128	RECOG_CONF	n/a	LTP082	ltpFR	5	5	0	ORANGE	980	5	0	n/a	n/a	n/a	n/a	n/a
3496538	RECOG_TARGET	n/a	LTP082	ltpFR	5	5	1	OUTLAW	989	5	1	n/a	n/a	n/a	n/a	n/a
3497109	RECOG_RESP	n/a	LTP082	ltpFR	5	5	1	OUTLAW	989	n/a	1	n/a	n/a	n/a	n/a	n/a
3498760	RECOG_CONF	n/a	LTP082	ltpFR	5	5	1	OUTLAW	989	5	1	n/a	n/a	n/a	n/a	n/a
3500179	RECOG_LURE	n/a	LTP082	ltpFR	5	5	n/a	MINT	898	2	n/a	n/a	n/a	n/a	n/a	n/a
3500825	RECOG_RESP	n/a	LTP082	ltpFR	5	5	n/a	MINT	898	n/a	n/a	n/a	n/a	n/a	n/a	n/a
3502482	RECOG_CONF	n/a	LTP082	ltpFR	5	5	n/a	MINT	898	2	n/a	n/a	n/a	n/a	n/a	n/a
3503869	RECOG_TARGET	n/a	LTP082	ltpFR	5	5	-1	JET	756	5	-1	n/a	n/a	n/a	n/a	n/a
3504417	RECOG_RESP	n/a	LTP082	ltpFR	5	5	-1	JET	756	n/a	-1	n/a	n/a	n/a	n/a	n/a
3506103	RECOG_CONF	n/a	LTP082	ltpFR	5	5	-1	JET	756	5	-1	n/a	n/a	n/a	n/a	n/a
3507528	RECOG_TARGET	n/a	LTP082	ltpFR	5	5	1	MUMMY	932	5	0	n/a	n/a	n/a	n/a	n/a
3508074	RECOG_RESP	n/a	LTP082	ltpFR	5	5	1	MUMMY	932	n/a	0	n/a	n/a	n/a	n/a	n/a
3509705	RECOG_CONF	n/a	LTP082	ltpFR	5	5	1	MUMMY	932	5	0	n/a	n/a	n/a	n/a	n/a
3511028	RECOG_TARGET	n/a	LTP082	ltpFR	5	5	1	STADIUM	1364	5	0	n/a	n/a	n/a	n/a	n/a
3511581	RECOG_RESP	n/a	LTP082	ltpFR	5	5	1	STADIUM	1364	n/a	0	n/a	n/a	n/a	n/a	n/a
3513287	RECOG_CONF	n/a	LTP082	ltpFR	5	5	1	STADIUM	1364	5	0	n/a	n/a	n/a	n/a	n/a
3514703	RECOG_TARGET	n/a	LTP082	ltpFR	5	5	0	JURY	766	5	1	n/a	n/a	n/a	n/a	n/a
3515387	RECOG_RESP	n/a	LTP082	ltpFR	5	5	0	JURY	766	n/a	1	n/a	n/a	n/a	n/a	n/a
3516969	RECOG_CONF	n/a	LTP082	ltpFR	5	5	0	JURY	766	5	1	n/a	n/a	n/a	n/a	n/a
3518528	RECOG_TARGET	n/a	LTP082	ltpFR	5	5	1	GANGSTER	620	5	1	n/a	n/a	n/a	n/a	n/a
3519024	RECOG_RESP	n/a	LTP082	ltpFR	5	5	1	GANGSTER	620	n/a	1	n/a	n/a	n/a	n/a	n/a
3520640	RECOG_CONF	n/a	LTP082	ltpFR	5	5	1	GANGSTER	620	5	1	n/a	n/a	n/a	n/a	n/a
3522144	RECOG_TARGET	n/a	LTP082	ltpFR	5	5	1	PRINTER	1126	5	0	n/a	n/a	n/a	n/a	n/a
3523214	RECOG_RESP	n/a	LTP082	ltpFR	5	5	1	PRINTER	1126	n/a	0	n/a	n/a	n/a	n/a	n/a
3524901	RECOG_CONF	n/a	LTP082	ltpFR	5	5	1	PRINTER	1126	5	0	n/a	n/a	n/a	n/a	n/a
3526327	RECOG_TARGET	n/a	LTP082	ltpFR	5	5	0	MOP	916	5	1	n/a	n/a	n/a	n/a	n/a
3526906	RECOG_RESP	n/a	LTP082	ltpFR	5	5	0	MOP	916	n/a	1	n/a	n/a	n/a	n/a	n/a
3528712	RECOG_CONF	n/a	LTP082	ltpFR	5	5	0	MOP	916	5	1	n/a	n/a	n/a	n/a	n/a
3530118	RECOG_TARGET	n/a	LTP082	ltpFR	5	5	0	COCOON	339	5	0	n/a	n/a	n/a	n/a	n/a
3530628	RECOG_RESP	n/a	LTP082	ltpFR	5	5	0	COCOON	339	n/a	0	n/a	n/a	n/a	n/a	n/a
3532264	RECOG_CONF	n/a	LTP082	ltpFR	5	5	0	COCOON	339	5	0	n/a	n/a	n/a	n/a	n/a
3533710	RECOG_LURE	n/a	LTP082	ltpFR	5	5	n/a	VASE	1549	4	n/a	n/a	n/a	n/a	n/a	n/a
3534499	RECOG_RESP	n/a	LTP082	ltpFR	5	5	n/a	VASE	1549	n/a	n/a	n/a	n/a	n/a	n/a	n/a
3536255	RECOG_CONF	n/a	LTP082	ltpFR	5	5	n/a	VASE	1549	4	n/a	n/a	n/a	n/a	n/a	n/a
3537743	RECOG_TARGET	n/a	LTP082	ltpFR	5	5	1	REFRIGERATOR	1179	5	0	n/a	n/a	n/a	n/a	n/a
3538300	RECOG_RESP	n/a	LTP082	ltpFR	5	5	1	REFRIGERATOR	1179	n/a	0	n/a	n/a	n/a	n/a	n/a
3539897	RECOG_CONF	n/a	LTP082	ltpFR	5	5	1	REFRIGERATOR	1179	5	0	n/a	n/a	n/a	n/a	n/a
3541251	RECOG_TARGET	n/a	LTP082	ltpFR	5	5	-1	SOFA	1342	5	-1	n/a	n/a	n/a	n/a	n/a
3541832	RECOG_RESP	n/a	LTP082	ltpFR	5	5	-1	SOFA	1342	n/a	-1	n/a	n/a	n/a	n/a	n/a
3543618	RECOG_CONF	n/a	LTP082	ltpFR	5	5	-1	SOFA	1342	5	-1	n/a	n/a	n/a	n/a	n/a
3545117	RECOG_TARGET	n/a	LTP082	ltpFR	5	5	-1	OREGANO	983	5	-1	n/a	n/a	n/a	n/a	n/a
3545673	RECOG_RESP	n/a	LTP082	ltpFR	5	5	-1	OREGANO	983	n/a	-1	n/a	n/a	n/a	n/a	n/a
3547330	RECOG_CONF	n/a	LTP082	ltpFR	5	5	-1	OREGANO	983	5	-1	n/a	n/a	n/a	n/a	n/a
3548784	RECOG_TARGET	n/a	LTP082	ltpFR	5	5	1	SAUCER	1237	5	0	n/a	n/a	n/a	n/a	n/a
3549375	RECOG_RESP	n/a	LTP082	ltpFR	5	5	1	SAUCER	1237	n/a	0	n/a	n/a	n/a	n/a	n/a
3551111	RECOG_CONF	n/a	LTP082	ltpFR	5	5	1	SAUCER	1237	5	0	n/a	n/a	n/a	n/a	n/a
3552575	RECOG_TARGET	n/a	LTP082	ltpFR	5	5	-1	DRUM	502	5	-1	n/a	n/a	n/a	n/a	n/a
3553236	RECOG_RESP	n/a	LTP082	ltpFR	5	5	-1	DRUM	502	n/a	-1	n/a	n/a	n/a	n/a	n/a
3555002	RECOG_CONF	n/a	LTP082	ltpFR	5	5	-1	DRUM	502	5	-1	n/a	n/a	n/a	n/a	n/a
3556466	RECOG_LURE	n/a	LTP082	ltpFR	5	5	n/a	BANK	83	4	n/a	n/a	n/a	n/a	n/a	n/a
3557177	RECOG_RESP	n/a	LTP082	ltpFR	5	5	n/a	BANK	83	n/a	n/a	n/a	n/a	n/a	n/a	n/a
3558674	RECOG_CONF	n/a	LTP082	ltpFR	5	5	n/a	BANK	83	4	n/a	n/a	n/a	n/a	n/a	n/a
3576601	REC_START	n/a	LTP082	ltpFR	5	6	n/a	n/a	n/a	n/a	n/a	n/a	n/a	n/a	n/a	n/a
3576640	RECOG_TARGET	n/a	LTP082	ltpFR	5	6	0	MOTORCYCLE	923	5	1	n/a	n/a	n/a	n/a	n/a
3577294	RECOG_RESP	n/a	LTP082	ltpFR	5	6	0	MOTORCYCLE	923	n/a	1	n/a	n/a	n/a	n/a	n/a
3578931	RECOG_CONF	n/a	LTP082	ltpFR	5	6	0	MOTORCYCLE	923	5	1	n/a	n/a	n/a	n/a	n/a
3580273	RECOG_LURE	n/a	LTP082	ltpFR	5	6	n/a	MACHINE	852	5	n/a	n/a	n/a	n/a	n/a	n/a
3580986	RECOG_RESP	n/a	LTP082	ltpFR	5	6	n/a	MACHINE	852	n/a	n/a	n/a	n/a	n/a	n/a	n/a
3582682	RECOG_CONF	n/a	LTP082	ltpFR	5	6	n/a	MACHINE	852	5	n/a	n/a	n/a	n/a	n/a	n/a
3584173	RECOG_TARGET	n/a	LTP082	ltpFR	5	6	1	AUNT	60	5	1	n/a	n/a	n/a	n/a	n/a
3584707	RECOG_RESP	n/a	LTP082	ltpFR	5	6	1	AUNT	60	n/a	1	n/a	n/a	n/a	n/a	n/a
3586453	RECOG_CONF	n/a	LTP082	ltpFR	5	6	1	AUNT	60	5	1	n/a	n/a	n/a	n/a	n/a
3587913	RECOG_LURE	n/a	LTP082	ltpFR	5	6	n/a	PRINCESS	1125	3	n/a	n/a	n/a	n/a	n/a	n/a
3588579	RECOG_RESP	n/a	LTP082	ltpFR	5	6	n/a	PRINCESS	1125	n/a	n/a	n/a	n/a	n/a	n/a	n/a
3590235	RECOG_CONF	n/a	LTP082	ltpFR	5	6	n/a	PRINCESS	1125	3	n/a	n/a	n/a	n/a	n/a	n/a
3591547	RECOG_TARGET	n/a	LTP082	ltpFR	5	6	-1	WALLET	1583	5	-1	n/a	n/a	n/a	n/a	n/a
3592081	RECOG_RESP	n/a	LTP082	ltpFR	5	6	-1	WALLET	1583	n/a	-1	n/a	n/a	n/a	n/a	n/a
3593727	RECOG_CONF	n/a	LTP082	ltpFR	5	6	-1	WALLET	1583	5	-1	n/a	n/a	n/a	n/a	n/a
3595139	RECOG_TARGET	n/a	LTP082	ltpFR	5	6	0	THIMBLE	1458	5	0	n/a	n/a	n/a	n/a	n/a
3595752	RECOG_RESP	n/a	LTP082	ltpFR	5	6	0	THIMBLE	1458	n/a	0	n/a	n/a	n/a	n/a	n/a
3597349	RECOG_CONF	n/a	LTP082	ltpFR	5	6	0	THIMBLE	1458	5	0	n/a	n/a	n/a	n/a	n/a
3598755	RECOG_TARGET	n/a	LTP082	ltpFR	5	6	0	FEAST	556	5	1	n/a	n/a	n/a	n/a	n/a
3599354	RECOG_RESP	n/a	LTP082	ltpFR	5	6	0	FEAST	556	n/a	1	n/a	n/a	n/a	n/a	n/a
3600931	RECOG_CONF	n/a	LTP082	ltpFR	5	6	0	FEAST	556	5	1	n/a	n/a	n/a	n/a	n/a
3602280	RECOG_TARGET	n/a	LTP082	ltpFR	5	6	-1	FROST	609	5	-1	n/a	n/a	n/a	n/a	n/a
3602846	RECOG_RESP	n/a	LTP082	ltpFR	5	6	-1	FROST	609	n/a	-1	n/a	n/a	n/a	n/a	n/a
3604592	RECOG_CONF	n/a	LTP082	ltpFR	5	6	-1	FROST	609	5	-1	n/a	n/a	n/a	n/a	n/a
3605954	RECOG_TARGET	n/a	LTP082	ltpFR	5	6	0	OTTER	986	5	1	n/a	n/a	n/a	n/a	n/a
3606578	RECOG_RESP	n/a	LTP082	ltpFR	5	6	0	OTTER	986	n/a	1	n/a	n/a	n/a	n/a	n/a
3608184	RECOG_CONF	n/a	LTP082	ltpFR	5	6	0	OTTER	986	5	1	n/a	n/a	n/a	n/a	n/a
3609637	RECOG_TARGET	n/a	LTP082	ltpFR	5	6	1	GUARDIAN	668	5	1	n/a	n/a	n/a	n/a	n/a
3610199	RECOG_RESP	n/a	LTP082	ltpFR	5	6	1	GUARDIAN	668	n/a	1	n/a	n/a	n/a	n/a	n/a
3611886	RECOG_CONF	n/a	LTP082	ltpFR	5	6	1	GUARDIAN	668	5	1	n/a	n/a	n/a	n/a	n/a
3613271	RECOG_TARGET	n/a	LTP082	ltpFR	5	6	-1	ASH	44	5	-1	n/a	n/a	n/a	n/a	n/a
3613771	RECOG_RESP	n/a	LTP082	ltpFR	5	6	-1	ASH	44	n/a	-1	n/a	n/a	n/a	n/a	n/a
3615458	RECOG_CONF	n/a	LTP082	ltpFR	5	6	-1	ASH	44	5	-1	n/a	n/a	n/a	n/a	n/a
3616903	RECOG_TARGET	n/a	LTP082	ltpFR	5	6	1	GOVERNOR	651	5	1	n/a	n/a	n/a	n/a	n/a
3617453	RECOG_RESP	n/a	LTP082	ltpFR	5	6	1	GOVERNOR	651	n/a	1	n/a	n/a	n/a	n/a	n/a
3619209	RECOG_CONF	n/a	LTP082	ltpFR	5	6	1	GOVERNOR	651	5	1	n/a	n/a	n/a	n/a	n/a
3620712	RECOG_TARGET	n/a	LTP082	ltpFR	5	6	0	TREAT	1501	5	1	n/a	n/a	n/a	n/a	n/a
3621194	RECOG_RESP	n/a	LTP082	ltpFR	5	6	0	TREAT	1501	n/a	1	n/a	n/a	n/a	n/a	n/a
3622901	RECOG_CONF	n/a	LTP082	ltpFR	5	6	0	TREAT	1501	5	1	n/a	n/a	n/a	n/a	n/a
3624328	RECOG_TARGET	n/a	LTP082	ltpFR	5	6	-1	TEAPOT	1442	1	-1	n/a	n/a	n/a	n/a	n/a
3625036	RECOG_RESP	n/a	LTP082	ltpFR	5	6	-1	TEAPOT	1442	n/a	-1	n/a	n/a	n/a	n/a	n/a
3627510	RECOG_CONF	n/a	LTP082	ltpFR	5	6	-1	TEAPOT	1442	1	-1	n/a	n/a	n/a	n/a	n/a
3628843	RECOG_TARGET	n/a	LTP082	ltpFR	5	6	-1	SHOULDER	1294	5	-1	n/a	n/a	n/a	n/a	n/a
3629436	RECOG_RESP	n/a	LTP082	ltpFR	5	6	-1	SHOULDER	1294	n/a	-1	n/a	n/a	n/a	n/a	n/a
3631112	RECOG_CONF	n/a	LTP082	ltpFR	5	6	-1	SHOULDER	1294	5	-1	n/a	n/a	n/a	n/a	n/a
3632569	RECOG_TARGET	n/a	LTP082	ltpFR	5	6	0	PUMP	1141	5	1	n/a	n/a	n/a	n/a	n/a
3633197	RECOG_RESP	n/a	LTP082	ltpFR	5	6	0	PUMP	1141	n/a	1	n/a	n/a	n/a	n/a	n/a
3634814	RECOG_CONF	n/a	LTP082	ltpFR	5	6	0	PUMP	1141	5	1	n/a	n/a	n/a	n/a	n/a
3636169	RECOG_TARGET	n/a	LTP082	ltpFR	5	6	1	BACON	67	5	0	n/a	n/a	n/a	n/a	n/a
3636759	RECOG_RESP	n/a	LTP082	ltpFR	5	6	1	BACON	67	n/a	0	n/a	n/a	n/a	n/a	n/a
3638395	RECOG_CONF	n/a	LTP082	ltpFR	5	6	1	BACON	67	5	0	n/a	n/a	n/a	n/a	n/a
3639785	RECOG_TARGET	n/a	LTP082	ltpFR	5	6	1	OBOE	969	5	1	n/a	n/a	n/a	n/a	n/a
3640361	RECOG_RESP	n/a	LTP082	ltpFR	5	6	1	OBOE	969	n/a	1	n/a	n/a	n/a	n/a	n/a
3642047	RECOG_CONF	n/a	LTP082	ltpFR	5	6	1	OBOE	969	5	1	n/a	n/a	n/a	n/a	n/a
3643518	RECOG_TARGET	n/a	LTP082	ltpFR	5	6	1	DAM	436	5	0	n/a	n/a	n/a	n/a	n/a
3643983	RECOG_RESP	n/a	LTP082	ltpFR	5	6	1	DAM	436	n/a	0	n/a	n/a	n/a	n/a	n/a
3645499	RECOG_CONF	n/a	LTP082	ltpFR	5	6	1	DAM	436	5	0	n/a	n/a	n/a	n/a	n/a
3647285	RECOG_TARGET	n/a	LTP082	ltpFR	5	6	0	LILY	821	5	0	n/a	n/a	n/a	n/a	n/a
3647834	RECOG_RESP	n/a	LTP082	ltpFR	5	6	0	LILY	821	n/a	0	n/a	n/a	n/a	n/a	n/a
3650687	RECOG_CONF	n/a	LTP082	ltpFR	5	6	0	LILY	821	5	0	n/a	n/a	n/a	n/a	n/a
3657086	REC_START	n/a	LTP082	ltpFR	5	7	n/a	n/a	n/a	n/a	n/a	n/a	n/a	n/a	n/a	n/a
3657117	RECOG_TARGET	n/a	LTP082	ltpFR	5	7	-1	NICOTINE	951	5	-1	n/a	n/a	n/a	n/a	n/a
3657719	RECOG_RESP	n/a	LTP082	ltpFR	5	7	-1	NICOTINE	951	n/a	-1	n/a	n/a	n/a	n/a	n/a
3659246	RECOG_CONF	n/a	LTP082	ltpFR	5	7	-1	NICOTINE	951	5	-1	n/a	n/a	n/a	n/a	n/a
3660659	RECOG_TARGET	n/a	LTP082	ltpFR	5	7	1	OX	994	5	1	n/a	n/a	n/a	n/a	n/a
3661177	RECOG_RESP	n/a	LTP082	ltpFR	5	7	1	OX	994	n/a	1	n/a	n/a	n/a	n/a	n/a
3663137	RECOG_CONF	n/a	LTP082	ltpFR	5	7	1	OX	994	5	1	n/a	n/a	n/a	n/a	n/a
3664725	RECOG_TARGET	n/a	LTP082	ltpFR	5	7	1	PUZZLE	1146	5	0	n/a	n/a	n/a	n/a	n/a
3665282	RECOG_RESP	n/a	LTP082	ltpFR	5	7	1	PUZZLE	1146	n/a	0	n/a	n/a	n/a	n/a	n/a
3667008	RECOG_CONF	n/a	LTP082	ltpFR	5	7	1	PUZZLE	1146	5	0	n/a	n/a	n/a	n/a	n/a
3668466	RECOG_TARGET	n/a	LTP082	ltpFR	5	7	-1	THIGH	1457	5	-1	n/a	n/a	n/a	n/a	n/a
3669014	RECOG_RESP	n/a	LTP082	ltpFR	5	7	-1	THIGH	1457	n/a	-1	n/a	n/a	n/a	n/a	n/a
3670889	RECOG_CONF	n/a	LTP082	ltpFR	5	7	-1	THIGH	1457	5	-1	n/a	n/a	n/a	n/a	n/a
3672299	RECOG_TARGET	n/a	LTP082	ltpFR	5	7	1	ATTORNEY	58	5	1	n/a	n/a	n/a	n/a	n/a
3672865	RECOG_RESP	n/a	LTP082	ltpFR	5	7	1	ATTORNEY	58	n/a	1	n/a	n/a	n/a	n/a	n/a
3674631	RECOG_CONF	n/a	LTP082	ltpFR	5	7	1	ATTORNEY	58	5	1	n/a	n/a	n/a	n/a	n/a
3676074	RECOG_TARGET	n/a	LTP082	ltpFR	5	7	0	OWNER	993	5	1	n/a	n/a	n/a	n/a	n/a
3676766	RECOG_RESP	n/a	LTP082	ltpFR	5	7	0	OWNER	993	n/a	1	n/a	n/a	n/a	n/a	n/a
3678482	RECOG_CONF	n/a	LTP082	ltpFR	5	7	0	OWNER	993	5	1	n/a	n/a	n/a	n/a	n/a
3680332	RECOG_LURE	n/a	LTP082	ltpFR	5	7	n/a	MAGNET	855	2	n/a	n/a	n/a	n/a	n/a	n/a
3680792	RECOG_RESP	n/a	LTP082	ltpFR	5	7	n/a	MAGNET	855	n/a	n/a	n/a	n/a	n/a	n/a	n/a
3682623	RECOG_CONF	n/a	LTP082	ltpFR	5	7	n/a	MAGNET	855	2	n/a	n/a	n/a	n/a	n/a	n/a
3683999	RECOG_TARGET	n/a	LTP082	ltpFR	5	7	0	BARTENDER	92	5	1	n/a	n/a	n/a	n/a	n/a
3684558	RECOG_RESP	n/a	LTP082	ltpFR	5	7	0	BARTENDER	92	n/a	1	n/a	n/a	n/a	n/a	n/a
3686165	RECOG_CONF	n/a	LTP082	ltpFR	5	7	0	BARTENDER	92	5	1	n/a	n/a	n/a	n/a	n/a
3687673	RECOG_TARGET	n/a	LTP082	ltpFR	5	7	-1	FLOUR	583	5	-1	n/a	n/a	n/a	n/a	n/a
3688160	RECOG_RESP	n/a	LTP082	ltpFR	5	7	-1	FLOUR	583	n/a	-1	n/a	n/a	n/a	n/a	n/a
3690016	RECOG_CONF	n/a	LTP082	ltpFR	5	7	-1	FLOUR	583	5	-1	n/a	n/a	n/a	n/a	n/a
3691423	RECOG_TARGET	n/a	LTP082	ltpFR	5	7	0	WALRUS	1585	5	1	n/a	n/a	n/a	n/a	n/a
3691922	RECOG_RESP	n/a	LTP082	ltpFR	5	7	0	WALRUS	1585	n/a	1	n/a	n/a	n/a	n/a	n/a
3693678	RECOG_CONF	n/a	LTP082	ltpFR	5	7	0	WALRUS	1585	5	1	n/a	n/a	n/a	n/a	n/a
3695139	RECOG_TARGET	n/a	LTP082	ltpFR	5	7	1	BUSH	202	5	0	n/a	n/a	n/a	n/a	n/a
3695663	RECOG_RESP	n/a	LTP082	ltpFR	5	7	1	BUSH	202	n/a	0	n/a	n/a	n/a	n/a	n/a
3697359	RECOG_CONF	n/a	LTP082	ltpFR	5	7	1	BUSH	202	5	0	n/a	n/a	n/a	n/a	n/a
3698797	RECOG_TARGET	n/a	LTP082	ltpFR	5	7	-1	BASEMENT	94	5	-1	n/a	n/a	n/a	n/a	n/a
3699285	RECOG_RESP	n/a	LTP082	ltpFR	5	7	-1	BASEMENT	94	n/a	-1	n/a	n/a	n/a	n/a	n/a
3700841	RECOG_CONF	n/a	LTP082	ltpFR	5	7	-1	BASEMENT	94	5	-1	n/a	n/a	n/a	n/a	n/a
3702214	RECOG_TARGET	n/a	LTP082	ltpFR	5	7	1	CELERY	266	5	0	n/a	n/a	n/a	n/a	n/a
3702722	RECOG_RESP	n/a	LTP082	ltpFR	5	7	1	CELERY	266	n/a	0	n/a	n/a	n/a	n/a	n/a
3704313	RECOG_CONF	n/a	LTP082	ltpFR	5	7	1	CELERY	266	5	0	n/a	n/a	n/a	n/a	n/a
3705714	RECOG_TARGET	n/a	LTP082	ltpFR	5	7	0	CORN	381	5	0	n/a	n/a	n/a	n/a	n/a
3706234	RECOG_RESP	n/a	LTP082	ltpFR	5	7	0	CORN	381	n/a	0	n/a	n/a	n/a	n/a	n/a
3707796	RECOG_CONF	n/a	LTP082	ltpFR	5	7	0	CORN	381	5	0	n/a	n/a	n/a	n/a	n/a
3709355	RECOG_LURE	n/a	LTP082	ltpFR	5	7	n/a	HAT	690	2	n/a	n/a	n/a	n/a	n/a	n/a
3709791	RECOG_RESP_VV	n/a	LTP082	ltpFR	5	7	n/a	HAT	690	n/a	n/a	n/a	n/a	n/a	n/a	n/a
3711377	RECOG_RESP	n/a	LTP082	ltpFR	5	7	n/a	HAT	690	n/a	n/a	n/a	n/a	n/a	n/a	n/a
3714510	RECOG_CONF	n/a	LTP082	ltpFR	5	7	n/a	HAT	690	2	n/a	n/a	n/a	n/a	n/a	n/a
3715920	RECOG_LURE	n/a	LTP082	ltpFR	5	7	n/a	ROCK	1201	3	n/a	n/a	n/a	n/a	n/a	n/a
3717643	RECOG_RESP	n/a	LTP082	ltpFR	5	7	n/a	ROCK	1201	n/a	n/a	n/a	n/a	n/a	n/a	n/a
3719499	RECOG_CONF	n/a	LTP082	ltpFR	5	7	n/a	ROCK	1201	3	n/a	n/a	n/a	n/a	n/a	n/a
3720828	RECOG_TARGET	n/a	LTP082	ltpFR	5	7	1	KNEE	784	5	1	n/a	n/a	n/a	n/a	n/a
3721504	RECOG_RESP	n/a	LTP082	ltpFR	5	7	1	KNEE	784	n/a	1	n/a	n/a	n/a	n/a	n/a
3723001	RECOG_CONF	n/a	LTP082	ltpFR	5	7	1	KNEE	784	5	1	n/a	n/a	n/a	n/a	n/a
3724429	RECOG_TARGET	n/a	LTP082	ltpFR	5	7	-1	SLEIGH	1325	5	-1	n/a	n/a	n/a	n/a	n/a
3725006	RECOG_RESP	n/a	LTP082	ltpFR	5	7	-1	SLEIGH	1325	n/a	-1	n/a	n/a	n/a	n/a	n/a
3726583	RECOG_CONF	n/a	LTP082	ltpFR	5	7	-1	SLEIGH	1325	5	-1	n/a	n/a	n/a	n/a	n/a
3728029	RECOG_TARGET	n/a	LTP082	ltpFR	5	7	1	MESSAGE	888	4	0	n/a	n/a	n/a	n/a	n/a
3728528	RECOG_RESP	n/a	LTP082	ltpFR	5	7	1	MESSAGE	888	n/a	0	n/a	n/a	n/a	n/a	n/a
3730075	RECOG_CONF	n/a	LTP082	ltpFR	5	7	1	MESSAGE	888	4	0	n/a	n/a	n/a	n/a	n/a
3731470	RECOG_TARGET	n/a	LTP082	ltpFR	5	7	0	TREE	1502	5	1	n/a	n/a	n/a	n/a	n/a
3732011	RECOG_RESP	n/a	LTP082	ltpFR	5	7	0	TREE	1502	n/a	1	n/a	n/a	n/a	n/a	n/a
3733487	RECOG_CONF	n/a	LTP082	ltpFR	5	7	0	TREE	1502	5	1	n/a	n/a	n/a	n/a	n/a
3738774	REC_START	n/a	LTP082	ltpFR	5	8	n/a	n/a	n/a	n/a	n/a	n/a	n/a	n/a	n/a	n/a
3738811	RECOG_TARGET	n/a	LTP082	ltpFR	5	8	1	CROCODILE	411	5	1	n/a	n/a	n/a	n/a	n/a
3739397	RECOG_RESP	n/a	LTP082	ltpFR	5	8	1	CROCODILE	411	n/a	1	n/a	n/a	n/a	n/a	n/a
3740754	RECOG_CONF	n/a	LTP082	ltpFR	5	8	1	CROCODILE	411	5	1	n/a	n/a	n/a	n/a	n/a
3742211	RECOG_TARGET	n/a	LTP082	ltpFR	5	8	-1	SCOUT	1252	5	-1	n/a	n/a	n/a	n/a	n/a
3742720	RECOG_RESP	n/a	LTP082	ltpFR	5	8	-1	SCOUT	1252	n/a	-1	n/a	n/a	n/a	n/a	n/a
3743947	RECOG_CONF	n/a	LTP082	ltpFR	5	8	-1	SCOUT	1252	5	-1	n/a	n/a	n/a	n/a	n/a
3745427	RECOG_TARGET	n/a	LTP082	ltpFR	5	8	1	SAP	1233	5	0	n/a	n/a	n/a	n/a	n/a
3746052	RECOG_RESP	n/a	LTP082	ltpFR	5	8	1	SAP	1233	n/a	0	n/a	n/a	n/a	n/a	n/a
3748487	RECOG_CONF	n/a	LTP082	ltpFR	5	8	1	SAP	1233	5	0	n/a	n/a	n/a	n/a	n/a
3749918	RECOG_TARGET	n/a	LTP082	ltpFR	5	8	1	COLOGNE	347	5	0	n/a	n/a	n/a	n/a	n/a
3750502	RECOG_RESP	n/a	LTP082	ltpFR	5	8	1	COLOGNE	347	n/a	0	n/a	n/a	n/a	n/a	n/a
3752128	RECOG_CONF	n/a	LTP082	ltpFR	5	8	1	COLOGNE	347	5	0	n/a	n/a	n/a	n/a	n/a
3753660	RECOG_LURE	n/a	LTP082	ltpFR	5	8	n/a	SWEATER	1419	3	n/a	n/a	n/a	n/a	n/a	n/a
3754663	RECOG_RESP	n/a	LTP082	ltpFR	5	8	n/a	SWEATER	1419	n/a	n/a	n/a	n/a	n/a	n/a	n/a
3756449	RECOG_CONF	n/a	LTP082	ltpFR	5	8	n/a	SWEATER	1419	3	n/a	n/a	n/a	n/a	n/a	n/a
3757867	RECOG_TARGET	n/a	LTP082	ltpFR	5	8	-1	VEGETABLE	1552	5	-1	n/a	n/a	n/a	n/a	n/a
3758479	RECOG_RESP	n/a	LTP082	ltpFR	5	8	-1	VEGETABLE	1552	n/a	-1	n/a	n/a	n/a	n/a	n/a
3759911	RECOG_CONF	n/a	LTP082	ltpFR	5	8	-1	VEGETABLE	1552	5	-1	n/a	n/a	n/a	n/a	n/a
3761301	RECOG_TARGET	n/a	LTP082	ltpFR	5	8	0	BAKER	71	5	1	n/a	n/a	n/a	n/a	n/a
3761851	RECOG_RESP	n/a	LTP082	ltpFR	5	8	0	BAKER	71	n/a	1	n/a	n/a	n/a	n/a	n/a
3763313	RECOG_CONF	n/a	LTP082	ltpFR	5	8	0	BAKER	71	5	1	n/a	n/a	n/a	n/a	n/a
3764751	RECOG_TARGET	n/a	LTP082	ltpFR	5	8	0	CHAIRPERSON	275	2	1	n/a	n/a	n/a	n/a	n/a
3765568	RECOG_RESP	n/a	LTP082	ltpFR	5	8	0	CHAIRPERSON	275	n/a	1	n/a	n/a	n/a	n/a	n/a
3767084	RECOG_CONF	n/a	LTP082	ltpFR	5	8	0	CHAIRPERSON	275	2	1	n/a	n/a	n/a	n/a	n/a
3768451	RECOG_TARGET	n/a	LTP082	ltpFR	5	8	0	WAGON	1578	5	1	n/a	n/a	n/a	n/a	n/a
